key_resp_8.keys,key_resp_8.rt,key_resp_9.keys,key_resp_9.rt,key_resp_10.keys,key_resp_10.rt,key_resp_11.keys,key_resp_11.rt,key_resp_2.keys,key_resp_2.rt,key_resp_3.keys,key_resp_3.rt,key_resp.keys,key_resp.rt,Feedback,train.thisRepN,train.thisTrialN,train.thisN,train.thisIndex,train.ran,torta_sx,torta_dx,difference,probability,age,gender,date,expName,psychopyVersion,OS,frameRate,participant,key_resp_15.keys,key_resp_15.rt,key_resp_6.keys,key_resp_6.rt,test1.thisRepN,test1.thisTrialN,test1.thisN,test1.thisIndex,test1.ran,key_resp_16.keys,key_resp_16.rt,key_resp_7.keys,key_resp_7.rt,test2.thisRepN,test2.thisTrialN,test2.thisN,test2.thisIndex,test2.ran,rating.response,rating.rt,mouse.x,mouse.y,mouse.leftButton,mouse.midButton,mouse.rightButton,mouse.clicked_name,mouse_2.x,mouse_2.y,mouse_2.leftButton,mouse_2.midButton,mouse_2.rightButton,mouse_2.clicked_name,mouse_3.x,mouse_3.y,mouse_3.leftButton,mouse_3.midButton,mouse_3.rightButton,mouse_3.clicked_name,key_resp_12.keys,key_resp_12.rt,key_resp_13.keys,key_resp_13.rt,key_resp_14.keys,key_resp_14.rt
space,12.562185,space,4.31729,space,0.436315,space,2.35535,space,15.44198,a,35.54209,a,0.912745,Incorrect,0,0,0,55,1,t2.png,t4.png,2,0.059078,20,Male,2020-11-06_11h00.09.543,torte-q,2020.1.3,MacIntel,60,12720,,,,,,,,,,,,,,,,,,,,,,,,,,,,,,,,,,,,,,,,,,,,
,,,,,,,,,,,,a,0.838,Correct!,0,1,1,45,1,t3.png,t2.png,1,0.90855,20,Male,2020-11-06_11h00.09.543,torte-q,2020.1.3,MacIntel,60,12720,,,,,,,,,,,,,,,,,,,,,,,,,,,,,,,,,,,,,,,,,,,,
,,,,,,,,,,,,l,1.38315,Incorrect,0,2,2,62,1,t5.png,t5.png,0,0.978,20,Male,2020-11-06_11h00.09.543,torte-q,2020.1.3,MacIntel,60,12720,,,,,,,,,,,,,,,,,,,,,,,,,,,,,,,,,,,,,,,,,,,,
,,,,,,,,,,,,a,1.266855,Correct!,0,3,3,113,1,t5.png,t4.png,1,0.9,20,Male,2020-11-06_11h00.09.543,torte-q,2020.1.3,MacIntel,60,12720,,,,,,,,,,,,,,,,,,,,,,,,,,,,,,,,,,,,,,,,,,,,
,,,,,,,,,,,,,,Too slow :(,0,4,4,97,1,t5.png,t5.png,0,0.97829,20,Male,2020-11-06_11h00.09.543,torte-q,2020.1.3,MacIntel,60,12720,,,,,,,,,,,,,,,,,,,,,,,,,,,,,,,,,,,,,,,,,,,,
,,,,,,,,,,,,l,1.153355,Incorrect,0,5,5,77,1,t1.png,t1.png,0,0.97829,20,Male,2020-11-06_11h00.09.543,torte-q,2020.1.3,MacIntel,60,12720,,,,,,,,,,,,,,,,,,,,,,,,,,,,,,,,,,,,,,,,,,,,
,,,,,,,,,,,,l,1.217455,Correct!,0,6,6,7,1,t4.png,t5.png,1,0.90025,20,Male,2020-11-06_11h00.09.543,torte-q,2020.1.3,MacIntel,60,12720,,,,,,,,,,,,,,,,,,,,,,,,,,,,,,,,,,,,,,,,,,,,
,,,,,,,,,,,,l,0.93732,Correct!,0,7,7,61,1,t1.png,t4.png,3,0.0000131,20,Male,2020-11-06_11h00.09.543,torte-q,2020.1.3,MacIntel,60,12720,,,,,,,,,,,,,,,,,,,,,,,,,,,,,,,,,,,,,,,,,,,,
,,,,,,,,,,,,l,0.866785,Correct!,0,8,8,89,1,t1.png,t4.png,3,0.0000131,20,Male,2020-11-06_11h00.09.543,torte-q,2020.1.3,MacIntel,60,12720,,,,,,,,,,,,,,,,,,,,,,,,,,,,,,,,,,,,,,,,,,,,
,,,,,,,,,,,,l,1.11811,Incorrect,0,9,9,18,1,t4.png,t5.png,1,0.90025,20,Male,2020-11-06_11h00.09.543,torte-q,2020.1.3,MacIntel,60,12720,,,,,,,,,,,,,,,,,,,,,,,,,,,,,,,,,,,,,,,,,,,,
,,,,,,,,,,,,a,1.434255,Correct!,0,10,10,84,1,t1.png,t1.png,0,0.97829,20,Male,2020-11-06_11h00.09.543,torte-q,2020.1.3,MacIntel,60,12720,,,,,,,,,,,,,,,,,,,,,,,,,,,,,,,,,,,,,,,,,,,,
,,,,,,,,,,,,a,1.288925,Correct!,0,11,11,70,1,t5.png,t5.png,0,0.978,20,Male,2020-11-06_11h00.09.543,torte-q,2020.1.3,MacIntel,60,12720,,,,,,,,,,,,,,,,,,,,,,,,,,,,,,,,,,,,,,,,,,,,
,,,,,,,,,,,,l,1.250215,Incorrect,0,12,12,63,1,t2.png,t3.png,1,0.909,20,Male,2020-11-06_11h00.09.543,torte-q,2020.1.3,MacIntel,60,12720,,,,,,,,,,,,,,,,,,,,,,,,,,,,,,,,,,,,,,,,,,,,
,,,,,,,,,,,,a,0.58519,Correct!,0,13,13,58,1,t5.png,t4.png,1,0.90025,20,Male,2020-11-06_11h00.09.543,torte-q,2020.1.3,MacIntel,60,12720,,,,,,,,,,,,,,,,,,,,,,,,,,,,,,,,,,,,,,,,,,,,
,,,,,,,,,,,,l,1.166995,Correct!,0,14,14,3,1,t1.png,t5.png,4,9.55E-11,20,Male,2020-11-06_11h00.09.543,torte-q,2020.1.3,MacIntel,60,12720,,,,,,,,,,,,,,,,,,,,,,,,,,,,,,,,,,,,,,,,,,,,
,,,,,,,,,,,,a,1.699905,Correct!,0,15,15,39,1,t3.png,t2.png,1,0.90855,20,Male,2020-11-06_11h00.09.543,torte-q,2020.1.3,MacIntel,60,12720,,,,,,,,,,,,,,,,,,,,,,,,,,,,,,,,,,,,,,,,,,,,
,,,,,,,,,,,,a,1.071305,Correct!,0,16,16,41,1,t3.png,t2.png,1,0.90855,20,Male,2020-11-06_11h00.09.543,torte-q,2020.1.3,MacIntel,60,12720,,,,,,,,,,,,,,,,,,,,,,,,,,,,,,,,,,,,,,,,,,,,
,,,,,,,,,,,,a,0.939585,Incorrect,0,17,17,26,1,t4.png,t2.png,2,0.0591,20,Male,2020-11-06_11h00.09.543,torte-q,2020.1.3,MacIntel,60,12720,,,,,,,,,,,,,,,,,,,,,,,,,,,,,,,,,,,,,,,,,,,,
,,,,,,,,,,,,l,1.15024,Incorrect,0,18,18,106,1,t2.png,t3.png,1,0.90855,20,Male,2020-11-06_11h00.09.543,torte-q,2020.1.3,MacIntel,60,12720,,,,,,,,,,,,,,,,,,,,,,,,,,,,,,,,,,,,,,,,,,,,
,,,,,,,,,,,,a,1.772445,Correct!,0,19,19,44,1,t2.png,t3.png,1,0.909,20,Male,2020-11-06_11h00.09.543,torte-q,2020.1.3,MacIntel,60,12720,,,,,,,,,,,,,,,,,,,,,,,,,,,,,,,,,,,,,,,,,,,,
,,,,,,,,,,,,l,0.90299,Incorrect,0,20,20,9,1,t4.png,t5.png,1,0.9,20,Male,2020-11-06_11h00.09.543,torte-q,2020.1.3,MacIntel,60,12720,,,,,,,,,,,,,,,,,,,,,,,,,,,,,,,,,,,,,,,,,,,,
,,,,,,,,,,,,a,0.96898,Incorrect,0,21,21,116,1,t5.png,t4.png,1,0.90025,20,Male,2020-11-06_11h00.09.543,torte-q,2020.1.3,MacIntel,60,12720,,,,,,,,,,,,,,,,,,,,,,,,,,,,,,,,,,,,,,,,,,,,
,,,,,,,,,,,,a,1.01707,Correct!,0,22,22,79,1,t3.png,t2.png,1,0.909,20,Male,2020-11-06_11h00.09.543,torte-q,2020.1.3,MacIntel,60,12720,,,,,,,,,,,,,,,,,,,,,,,,,,,,,,,,,,,,,,,,,,,,
,,,,,,,,,,,,a,0.836615,Incorrect,0,23,23,47,1,t4.png,t2.png,2,0.059078,20,Male,2020-11-06_11h00.09.543,torte-q,2020.1.3,MacIntel,60,12720,,,,,,,,,,,,,,,,,,,,,,,,,,,,,,,,,,,,,,,,,,,,
,,,,,,,,,,,,a,1.66715,Correct!,0,24,24,48,1,t5.png,t5.png,0,0.97829,20,Male,2020-11-06_11h00.09.543,torte-q,2020.1.3,MacIntel,60,12720,,,,,,,,,,,,,,,,,,,,,,,,,,,,,,,,,,,,,,,,,,,,
,,,,,,,,,,,,a,1.28311,Correct!,0,25,25,78,1,t1.png,t1.png,0,0.978,20,Male,2020-11-06_11h00.09.543,torte-q,2020.1.3,MacIntel,60,12720,,,,,,,,,,,,,,,,,,,,,,,,,,,,,,,,,,,,,,,,,,,,
,,,,,,,,,,,,a,1.40007,Incorrect,0,26,26,87,1,t5.png,t1.png,4,9.55E-11,20,Male,2020-11-06_11h00.09.543,torte-q,2020.1.3,MacIntel,60,12720,,,,,,,,,,,,,,,,,,,,,,,,,,,,,,,,,,,,,,,,,,,,
,,,,,,,,,,,,a,1.38662,Correct!,0,27,27,29,1,t5.png,t5.png,0,0.97829,20,Male,2020-11-06_11h00.09.543,torte-q,2020.1.3,MacIntel,60,12720,,,,,,,,,,,,,,,,,,,,,,,,,,,,,,,,,,,,,,,,,,,,
,,,,,,,,,,,,l,1.40043,Correct!,0,28,28,6,1,t1.png,t4.png,3,0.0000131,20,Male,2020-11-06_11h00.09.543,torte-q,2020.1.3,MacIntel,60,12720,,,,,,,,,,,,,,,,,,,,,,,,,,,,,,,,,,,,,,,,,,,,
,,,,,,,,,,,,a,1.249005,Correct!,0,29,29,13,1,t5.png,t5.png,0,0.97829,20,Male,2020-11-06_11h00.09.543,torte-q,2020.1.3,MacIntel,60,12720,,,,,,,,,,,,,,,,,,,,,,,,,,,,,,,,,,,,,,,,,,,,
,,,,,,,,,,,,l,1.252795,Correct!,0,30,30,57,1,t2.png,t4.png,2,0.059078,20,Male,2020-11-06_11h00.09.543,torte-q,2020.1.3,MacIntel,60,12720,,,,,,,,,,,,,,,,,,,,,,,,,,,,,,,,,,,,,,,,,,,,
,,,,,,,,,,,,a,0.983375,Correct!,0,31,31,64,1,t1.png,t1.png,0,0.978,20,Male,2020-11-06_11h00.09.543,torte-q,2020.1.3,MacIntel,60,12720,,,,,,,,,,,,,,,,,,,,,,,,,,,,,,,,,,,,,,,,,,,,
,,,,,,,,,,,,l,1.534715,Incorrect,0,32,32,28,1,t2.png,t3.png,1,0.909,20,Male,2020-11-06_11h00.09.543,torte-q,2020.1.3,MacIntel,60,12720,,,,,,,,,,,,,,,,,,,,,,,,,,,,,,,,,,,,,,,,,,,,
,,,,,,,,,,,,a,1.034235,Incorrect,0,33,33,43,1,t4.png,t2.png,2,0.059078,20,Male,2020-11-06_11h00.09.543,torte-q,2020.1.3,MacIntel,60,12720,,,,,,,,,,,,,,,,,,,,,,,,,,,,,,,,,,,,,,,,,,,,
,,,,,,,,,,,,a,1.747645,Incorrect,0,34,34,88,1,t3.png,t1.png,2,0.056466,20,Male,2020-11-06_11h00.09.543,torte-q,2020.1.3,MacIntel,60,12720,,,,,,,,,,,,,,,,,,,,,,,,,,,,,,,,,,,,,,,,,,,,
,,,,,,,,,,,,l,1.202765,Correct!,0,35,35,119,1,t1.png,t5.png,4,9.55E-11,20,Male,2020-11-06_11h00.09.543,torte-q,2020.1.3,MacIntel,60,12720,,,,,,,,,,,,,,,,,,,,,,,,,,,,,,,,,,,,,,,,,,,,
,,,,,,,,,,,,l,0.96905,Correct!,0,36,36,49,1,t4.png,t5.png,1,0.9,20,Male,2020-11-06_11h00.09.543,torte-q,2020.1.3,MacIntel,60,12720,,,,,,,,,,,,,,,,,,,,,,,,,,,,,,,,,,,,,,,,,,,,
,,,,,,,,,,,,l,1.28354,Correct!,0,37,37,65,1,t4.png,t5.png,1,0.90025,20,Male,2020-11-06_11h00.09.543,torte-q,2020.1.3,MacIntel,60,12720,,,,,,,,,,,,,,,,,,,,,,,,,,,,,,,,,,,,,,,,,,,,
,,,,,,,,,,,,l,1.666775,Incorrect,0,38,38,20,1,t2.png,t3.png,1,0.90855,20,Male,2020-11-06_11h00.09.543,torte-q,2020.1.3,MacIntel,60,12720,,,,,,,,,,,,,,,,,,,,,,,,,,,,,,,,,,,,,,,,,,,,
,,,,,,,,,,,,a,0.969525,Incorrect,0,39,39,12,1,t5.png,t1.png,4,9.55E-11,20,Male,2020-11-06_11h00.09.543,torte-q,2020.1.3,MacIntel,60,12720,,,,,,,,,,,,,,,,,,,,,,,,,,,,,,,,,,,,,,,,,,,,
,,,,,,,,,,,,a,1.03484,Correct!,0,40,40,107,1,t1.png,t1.png,0,0.978,20,Male,2020-11-06_11h00.09.543,torte-q,2020.1.3,MacIntel,60,12720,,,,,,,,,,,,,,,,,,,,,,,,,,,,,,,,,,,,,,,,,,,,
,,,,,,,,,,,,l,1.334185,Correct!,0,41,41,102,1,t4.png,t2.png,2,0.059078,20,Male,2020-11-06_11h00.09.543,torte-q,2020.1.3,MacIntel,60,12720,,,,,,,,,,,,,,,,,,,,,,,,,,,,,,,,,,,,,,,,,,,,
,,,,,,,,,,,,a,1.150325,Correct!,0,42,42,96,1,t1.png,t1.png,0,0.97829,20,Male,2020-11-06_11h00.09.543,torte-q,2020.1.3,MacIntel,60,12720,,,,,,,,,,,,,,,,,,,,,,,,,,,,,,,,,,,,,,,,,,,,
,,,,,,,,,,,,l,1.58331,Correct!,0,43,43,69,1,t4.png,t2.png,2,0.059078,20,Male,2020-11-06_11h00.09.543,torte-q,2020.1.3,MacIntel,60,12720,,,,,,,,,,,,,,,,,,,,,,,,,,,,,,,,,,,,,,,,,,,,
,,,,,,,,,,,,l,1.581925,Correct!,0,44,44,90,1,t1.png,t5.png,4,9.55E-11,20,Male,2020-11-06_11h00.09.543,torte-q,2020.1.3,MacIntel,60,12720,,,,,,,,,,,,,,,,,,,,,,,,,,,,,,,,,,,,,,,,,,,,
,,,,,,,,,,,,a,1.156545,Incorrect,0,45,45,14,1,t2.png,t4.png,2,0.059078,20,Male,2020-11-06_11h00.09.543,torte-q,2020.1.3,MacIntel,60,12720,,,,,,,,,,,,,,,,,,,,,,,,,,,,,,,,,,,,,,,,,,,,
,,,,,,,,,,,,l,1.38395,Incorrect,0,46,46,66,1,t4.png,t5.png,1,0.9,20,Male,2020-11-06_11h00.09.543,torte-q,2020.1.3,MacIntel,60,12720,,,,,,,,,,,,,,,,,,,,,,,,,,,,,,,,,,,,,,,,,,,,
,,,,,,,,,,,,a,1.150195,Correct!,0,47,47,10,1,t2.png,t3.png,1,0.90855,20,Male,2020-11-06_11h00.09.543,torte-q,2020.1.3,MacIntel,60,12720,,,,,,,,,,,,,,,,,,,,,,,,,,,,,,,,,,,,,,,,,,,,
,,,,,,,,,,,,a,1.30379,Correct!,0,48,48,95,1,t1.png,t1.png,0,0.978,20,Male,2020-11-06_11h00.09.543,torte-q,2020.1.3,MacIntel,60,12720,,,,,,,,,,,,,,,,,,,,,,,,,,,,,,,,,,,,,,,,,,,,
,,,,,,,,,,,,a,1.366995,Incorrect,0,49,49,111,1,t5.png,t1.png,4,9.55E-11,20,Male,2020-11-06_11h00.09.543,torte-q,2020.1.3,MacIntel,60,12720,,,,,,,,,,,,,,,,,,,,,,,,,,,,,,,,,,,,,,,,,,,,
,,,,,,,,,,,,l,0.90556,Correct!,0,50,50,51,1,t3.png,t1.png,2,0.056466,20,Male,2020-11-06_11h00.09.543,torte-q,2020.1.3,MacIntel,60,12720,,,,,,,,,,,,,,,,,,,,,,,,,,,,,,,,,,,,,,,,,,,,
,,,,,,,,,,,,l,0.784025,Correct!,0,51,51,38,1,t3.png,t1.png,2,0.056466,20,Male,2020-11-06_11h00.09.543,torte-q,2020.1.3,MacIntel,60,12720,,,,,,,,,,,,,,,,,,,,,,,,,,,,,,,,,,,,,,,,,,,,
,,,,,,,,,,,,l,1.01653,Incorrect,0,52,52,8,1,t3.png,t2.png,1,0.90855,20,Male,2020-11-06_11h00.09.543,torte-q,2020.1.3,MacIntel,60,12720,,,,,,,,,,,,,,,,,,,,,,,,,,,,,,,,,,,,,,,,,,,,
,,,,,,,,,,,,a,1.38628,Incorrect,0,53,53,11,1,t1.png,t4.png,3,0.0000131,20,Male,2020-11-06_11h00.09.543,torte-q,2020.1.3,MacIntel,60,12720,,,,,,,,,,,,,,,,,,,,,,,,,,,,,,,,,,,,,,,,,,,,
,,,,,,,,,,,,l,1.06625,Correct!,0,54,54,60,1,t2.png,t4.png,2,0.059078,20,Male,2020-11-06_11h00.09.543,torte-q,2020.1.3,MacIntel,60,12720,,,,,,,,,,,,,,,,,,,,,,,,,,,,,,,,,,,,,,,,,,,,
,,,,,,,,,,,,l,1.26635,Correct!,0,55,55,4,1,t1.png,t5.png,4,9.55E-11,20,Male,2020-11-06_11h00.09.543,torte-q,2020.1.3,MacIntel,60,12720,,,,,,,,,,,,,,,,,,,,,,,,,,,,,,,,,,,,,,,,,,,,
,,,,,,,,,,,,a,1.21652,Correct!,0,56,56,114,1,t2.png,t3.png,1,0.90855,20,Male,2020-11-06_11h00.09.543,torte-q,2020.1.3,MacIntel,60,12720,,,,,,,,,,,,,,,,,,,,,,,,,,,,,,,,,,,,,,,,,,,,
,,,,,,,,,,,,a,1.119825,Incorrect,0,57,57,68,1,t1.png,t4.png,3,0.0000131,20,Male,2020-11-06_11h00.09.543,torte-q,2020.1.3,MacIntel,60,12720,,,,,,,,,,,,,,,,,,,,,,,,,,,,,,,,,,,,,,,,,,,,
,,,,,,,,,,,,l,1.169115,Correct!,0,58,58,1,1,t2.png,t4.png,2,0.059078,20,Male,2020-11-06_11h00.09.543,torte-q,2020.1.3,MacIntel,60,12720,,,,,,,,,,,,,,,,,,,,,,,,,,,,,,,,,,,,,,,,,,,,
,,,,,,,,,,,,l,1.217015,Correct!,0,59,59,86,1,t3.png,t1.png,2,0.056466,20,Male,2020-11-06_11h00.09.543,torte-q,2020.1.3,MacIntel,60,12720,,,,,,,,,,,,,,,,,,,,,,,,,,,,,,,,,,,,,,,,,,,,
,,,,,,,,,,,,l,1.72213,Correct!,0,60,60,5,1,t2.png,t4.png,2,0.059078,20,Male,2020-11-06_11h00.09.543,torte-q,2020.1.3,MacIntel,60,12720,,,,,,,,,,,,,,,,,,,,,,,,,,,,,,,,,,,,,,,,,,,,
,,,,,,,,,,,,a,1.068715,Incorrect,0,61,61,56,1,t5.png,t1.png,4,9.55E-11,20,Male,2020-11-06_11h00.09.543,torte-q,2020.1.3,MacIntel,60,12720,,,,,,,,,,,,,,,,,,,,,,,,,,,,,,,,,,,,,,,,,,,,
,,,,,,,,,,,,l,1.238945,Incorrect,0,62,62,42,1,t5.png,t4.png,1,0.90025,20,Male,2020-11-06_11h00.09.543,torte-q,2020.1.3,MacIntel,60,12720,,,,,,,,,,,,,,,,,,,,,,,,,,,,,,,,,,,,,,,,,,,,
,,,,,,,,,,,,a,1.18347,Correct!,0,63,63,110,1,t4.png,t5.png,1,0.90025,20,Male,2020-11-06_11h00.09.543,torte-q,2020.1.3,MacIntel,60,12720,,,,,,,,,,,,,,,,,,,,,,,,,,,,,,,,,,,,,,,,,,,,
,,,,,,,,,,,,l,0.93285,Correct!,0,64,64,53,1,t3.png,t1.png,2,0.056466,20,Male,2020-11-06_11h00.09.543,torte-q,2020.1.3,MacIntel,60,12720,,,,,,,,,,,,,,,,,,,,,,,,,,,,,,,,,,,,,,,,,,,,
,,,,,,,,,,,,l,0.91686,Incorrect,0,65,65,92,1,t2.png,t3.png,1,0.909,20,Male,2020-11-06_11h00.09.543,torte-q,2020.1.3,MacIntel,60,12720,,,,,,,,,,,,,,,,,,,,,,,,,,,,,,,,,,,,,,,,,,,,
,,,,,,,,,,,,a,0.917045,Incorrect,0,66,66,0,1,t5.png,t1.png,4,9.55E-11,20,Male,2020-11-06_11h00.09.543,torte-q,2020.1.3,MacIntel,60,12720,,,,,,,,,,,,,,,,,,,,,,,,,,,,,,,,,,,,,,,,,,,,
,,,,,,,,,,,,l,1.189195,Correct!,0,67,67,93,1,t2.png,t4.png,2,0.059078,20,Male,2020-11-06_11h00.09.543,torte-q,2020.1.3,MacIntel,60,12720,,,,,,,,,,,,,,,,,,,,,,,,,,,,,,,,,,,,,,,,,,,,
,,,,,,,,,,,,l,0.904665,Incorrect,0,68,68,112,1,t1.png,t1.png,0,0.97829,20,Male,2020-11-06_11h00.09.543,torte-q,2020.1.3,MacIntel,60,12720,,,,,,,,,,,,,,,,,,,,,,,,,,,,,,,,,,,,,,,,,,,,
,,,,,,,,,,,,l,1.271655,Incorrect,0,69,69,34,1,t5.png,t4.png,1,0.9,20,Male,2020-11-06_11h00.09.543,torte-q,2020.1.3,MacIntel,60,12720,,,,,,,,,,,,,,,,,,,,,,,,,,,,,,,,,,,,,,,,,,,,
,,,,,,,,,,,,l,1.35486,Correct!,0,70,70,82,1,t5.png,t1.png,4,9.55E-11,20,Male,2020-11-06_11h00.09.543,torte-q,2020.1.3,MacIntel,60,12720,,,,,,,,,,,,,,,,,,,,,,,,,,,,,,,,,,,,,,,,,,,,
,,,,,,,,,,,,a,1.533595,Incorrect,0,71,71,46,1,t4.png,t2.png,2,0.059078,20,Male,2020-11-06_11h00.09.543,torte-q,2020.1.3,MacIntel,60,12720,,,,,,,,,,,,,,,,,,,,,,,,,,,,,,,,,,,,,,,,,,,,
,,,,,,,,,,,,l,1.2002,Correct!,0,72,72,30,1,t3.png,t1.png,2,0.056466,20,Male,2020-11-06_11h00.09.543,torte-q,2020.1.3,MacIntel,60,12720,,,,,,,,,,,,,,,,,,,,,,,,,,,,,,,,,,,,,,,,,,,,
,,,,,,,,,,,,l,0.7339,Correct!,0,73,73,33,1,t5.png,t1.png,4,9.55E-11,20,Male,2020-11-06_11h00.09.543,torte-q,2020.1.3,MacIntel,60,12720,,,,,,,,,,,,,,,,,,,,,,,,,,,,,,,,,,,,,,,,,,,,
,,,,,,,,,,,,l,2.39992,Correct!,0,74,74,91,1,t1.png,t4.png,3,0.0000131,20,Male,2020-11-06_11h00.09.543,torte-q,2020.1.3,MacIntel,60,12720,,,,,,,,,,,,,,,,,,,,,,,,,,,,,,,,,,,,,,,,,,,,
,,,,,,,,,,,,a,2.017365,Incorrect,0,75,75,54,1,t1.png,t5.png,4,9.55E-11,20,Male,2020-11-06_11h00.09.543,torte-q,2020.1.3,MacIntel,60,12720,,,,,,,,,,,,,,,,,,,,,,,,,,,,,,,,,,,,,,,,,,,,
,,,,,,,,,,,,l,0.866915,Correct!,0,76,76,117,1,t1.png,t5.png,4,9.55E-11,20,Male,2020-11-06_11h00.09.543,torte-q,2020.1.3,MacIntel,60,12720,,,,,,,,,,,,,,,,,,,,,,,,,,,,,,,,,,,,,,,,,,,,
,,,,,,,,,,,,a,1.968165,Correct!,0,77,77,25,1,t5.png,t5.png,0,0.97829,20,Male,2020-11-06_11h00.09.543,torte-q,2020.1.3,MacIntel,60,12720,,,,,,,,,,,,,,,,,,,,,,,,,,,,,,,,,,,,,,,,,,,,
,,,,,,,,,,,,l,1.95012,Correct!,0,78,78,31,1,t1.png,t5.png,4,9.55E-11,20,Male,2020-11-06_11h00.09.543,torte-q,2020.1.3,MacIntel,60,12720,,,,,,,,,,,,,,,,,,,,,,,,,,,,,,,,,,,,,,,,,,,,
,,,,,,,,,,,,a,2.301135,Correct!,0,79,79,81,1,t1.png,t1.png,0,0.97829,20,Male,2020-11-06_11h00.09.543,torte-q,2020.1.3,MacIntel,60,12720,,,,,,,,,,,,,,,,,,,,,,,,,,,,,,,,,,,,,,,,,,,,
,,,,,,,,,,,,l,1.85062,Incorrect,0,80,80,101,1,t4.png,t5.png,1,0.90025,20,Male,2020-11-06_11h00.09.543,torte-q,2020.1.3,MacIntel,60,12720,,,,,,,,,,,,,,,,,,,,,,,,,,,,,,,,,,,,,,,,,,,,
,,,,,,,,,,,,l,1.93276,Incorrect,0,81,81,21,1,t5.png,t4.png,1,0.90025,20,Male,2020-11-06_11h00.09.543,torte-q,2020.1.3,MacIntel,60,12720,,,,,,,,,,,,,,,,,,,,,,,,,,,,,,,,,,,,,,,,,,,,
,,,,,,,,,,,,l,1.56728,Incorrect,0,82,82,15,1,t3.png,t2.png,1,0.90855,20,Male,2020-11-06_11h00.09.543,torte-q,2020.1.3,MacIntel,60,12720,,,,,,,,,,,,,,,,,,,,,,,,,,,,,,,,,,,,,,,,,,,,
,,,,,,,,,,,,l,2.374635,Correct!,0,83,83,80,1,t1.png,t4.png,3,0.0000131,20,Male,2020-11-06_11h00.09.543,torte-q,2020.1.3,MacIntel,60,12720,,,,,,,,,,,,,,,,,,,,,,,,,,,,,,,,,,,,,,,,,,,,
,,,,,,,,,,,,a,1.18899,Correct!,0,84,84,104,1,t2.png,t3.png,1,0.90855,20,Male,2020-11-06_11h00.09.543,torte-q,2020.1.3,MacIntel,60,12720,,,,,,,,,,,,,,,,,,,,,,,,,,,,,,,,,,,,,,,,,,,,
,,,,,,,,,,,,a,1.51718,Correct!,0,85,85,76,1,t3.png,t2.png,1,0.90855,20,Male,2020-11-06_11h00.09.543,torte-q,2020.1.3,MacIntel,60,12720,,,,,,,,,,,,,,,,,,,,,,,,,,,,,,,,,,,,,,,,,,,,
,,,,,,,,,,,,a,1.75051,Incorrect,0,86,86,50,1,t5.png,t1.png,4,9.55E-11,20,Male,2020-11-06_11h00.09.543,torte-q,2020.1.3,MacIntel,60,12720,,,,,,,,,,,,,,,,,,,,,,,,,,,,,,,,,,,,,,,,,,,,
,,,,,,,,,,,,l,0.900765,Correct!,0,87,87,103,1,t3.png,t1.png,2,0.056466,20,Male,2020-11-06_11h00.09.543,torte-q,2020.1.3,MacIntel,60,12720,,,,,,,,,,,,,,,,,,,,,,,,,,,,,,,,,,,,,,,,,,,,
,,,,,,,,,,,,l,1.817295,Correct!,0,88,88,17,1,t1.png,t4.png,3,0.0000131,20,Male,2020-11-06_11h00.09.543,torte-q,2020.1.3,MacIntel,60,12720,,,,,,,,,,,,,,,,,,,,,,,,,,,,,,,,,,,,,,,,,,,,
,,,,,,,,,,,,l,1.62245,Correct!,0,89,89,108,1,t5.png,t1.png,4,9.55E-11,20,Male,2020-11-06_11h00.09.543,torte-q,2020.1.3,MacIntel,60,12720,,,,,,,,,,,,,,,,,,,,,,,,,,,,,,,,,,,,,,,,,,,,
,,,,,,,,,,,,l,1.283145,Incorrect,0,90,90,23,1,t5.png,t4.png,1,0.90025,20,Male,2020-11-06_11h00.09.543,torte-q,2020.1.3,MacIntel,60,12720,,,,,,,,,,,,,,,,,,,,,,,,,,,,,,,,,,,,,,,,,,,,
,,,,,,,,,,,,l,1.66789,Incorrect,0,91,91,52,1,t2.png,t4.png,2,0.059078,20,Male,2020-11-06_11h00.09.543,torte-q,2020.1.3,MacIntel,60,12720,,,,,,,,,,,,,,,,,,,,,,,,,,,,,,,,,,,,,,,,,,,,
,,,,,,,,,,,,a,2.32356,Correct!,0,92,92,100,1,t4.png,t5.png,1,0.90025,20,Male,2020-11-06_11h00.09.543,torte-q,2020.1.3,MacIntel,60,12720,,,,,,,,,,,,,,,,,,,,,,,,,,,,,,,,,,,,,,,,,,,,
,,,,,,,,,,,,l,1.184245,Incorrect,0,93,93,85,1,t3.png,t2.png,1,0.90855,20,Male,2020-11-06_11h00.09.543,torte-q,2020.1.3,MacIntel,60,12720,,,,,,,,,,,,,,,,,,,,,,,,,,,,,,,,,,,,,,,,,,,,
,,,,,,,,,,,,l,1.03867,Incorrect,0,94,94,2,1,t3.png,t2.png,1,0.90855,20,Male,2020-11-06_11h00.09.543,torte-q,2020.1.3,MacIntel,60,12720,,,,,,,,,,,,,,,,,,,,,,,,,,,,,,,,,,,,,,,,,,,,
,,,,,,,,,,,,a,1.350425,Incorrect,0,95,95,98,1,t2.png,t4.png,2,0.0591,20,Male,2020-11-06_11h00.09.543,torte-q,2020.1.3,MacIntel,60,12720,,,,,,,,,,,,,,,,,,,,,,,,,,,,,,,,,,,,,,,,,,,,
,,,,,,,,,,,,a,1.66883,Correct!,0,96,96,32,1,t4.png,t5.png,1,0.90025,20,Male,2020-11-06_11h00.09.543,torte-q,2020.1.3,MacIntel,60,12720,,,,,,,,,,,,,,,,,,,,,,,,,,,,,,,,,,,,,,,,,,,,
,,,,,,,,,,,,l,0.866905,Correct!,0,97,97,16,1,t5.png,t4.png,1,0.9,20,Male,2020-11-06_11h00.09.543,torte-q,2020.1.3,MacIntel,60,12720,,,,,,,,,,,,,,,,,,,,,,,,,,,,,,,,,,,,,,,,,,,,
,,,,,,,,,,,,a,1.183215,Correct!,0,98,98,75,1,t1.png,t1.png,0,0.97829,20,Male,2020-11-06_11h00.09.543,torte-q,2020.1.3,MacIntel,60,12720,,,,,,,,,,,,,,,,,,,,,,,,,,,,,,,,,,,,,,,,,,,,
,,,,,,,,,,,,l,0.81632,Correct!,0,99,99,24,1,t4.png,t2.png,2,0.059078,20,Male,2020-11-06_11h00.09.543,torte-q,2020.1.3,MacIntel,60,12720,,,,,,,,,,,,,,,,,,,,,,,,,,,,,,,,,,,,,,,,,,,,
,,,,,,,,,,,,l,0.905815,Correct!,0,100,100,36,1,t3.png,t1.png,2,0.0565,20,Male,2020-11-06_11h00.09.543,torte-q,2020.1.3,MacIntel,60,12720,,,,,,,,,,,,,,,,,,,,,,,,,,,,,,,,,,,,,,,,,,,,
,,,,,,,,,,,,l,1.60073,Correct!,0,101,101,67,1,t1.png,t5.png,4,9.55E-11,20,Male,2020-11-06_11h00.09.543,torte-q,2020.1.3,MacIntel,60,12720,,,,,,,,,,,,,,,,,,,,,,,,,,,,,,,,,,,,,,,,,,,,
,,,,,,,,,,,,l,1.387265,Correct!,0,102,102,72,1,t4.png,t2.png,2,0.059078,20,Male,2020-11-06_11h00.09.543,torte-q,2020.1.3,MacIntel,60,12720,,,,,,,,,,,,,,,,,,,,,,,,,,,,,,,,,,,,,,,,,,,,
,,,,,,,,,,,,l,1.02209,Correct!,0,103,103,94,1,t5.png,t1.png,4,9.55E-11,20,Male,2020-11-06_11h00.09.543,torte-q,2020.1.3,MacIntel,60,12720,,,,,,,,,,,,,,,,,,,,,,,,,,,,,,,,,,,,,,,,,,,,
,,,,,,,,,,,,l,1.152185,Correct!,0,104,104,27,1,t3.png,t1.png,2,0.0565,20,Male,2020-11-06_11h00.09.543,torte-q,2020.1.3,MacIntel,60,12720,,,,,,,,,,,,,,,,,,,,,,,,,,,,,,,,,,,,,,,,,,,,
,,,,,,,,,,,,l,1.133935,Incorrect,0,105,105,105,1,t3.png,t2.png,1,0.90855,20,Male,2020-11-06_11h00.09.543,torte-q,2020.1.3,MacIntel,60,12720,,,,,,,,,,,,,,,,,,,,,,,,,,,,,,,,,,,,,,,,,,,,
,,,,,,,,,,,,l,1.46747,Correct!,0,106,106,83,1,t3.png,t1.png,2,0.056466,20,Male,2020-11-06_11h00.09.543,torte-q,2020.1.3,MacIntel,60,12720,,,,,,,,,,,,,,,,,,,,,,,,,,,,,,,,,,,,,,,,,,,,
,,,,,,,,,,,,a,1.88391,Incorrect,0,107,107,19,1,t4.png,t2.png,2,0.059078,20,Male,2020-11-06_11h00.09.543,torte-q,2020.1.3,MacIntel,60,12720,,,,,,,,,,,,,,,,,,,,,,,,,,,,,,,,,,,,,,,,,,,,
,,,,,,,,,,,,l,1.29087,Incorrect,0,108,108,118,1,t5.png,t5.png,0,0.978,20,Male,2020-11-06_11h00.09.543,torte-q,2020.1.3,MacIntel,60,12720,,,,,,,,,,,,,,,,,,,,,,,,,,,,,,,,,,,,,,,,,,,,
,,,,,,,,,,,,a,2.150455,Correct!,0,109,109,22,1,t2.png,t3.png,1,0.90855,20,Male,2020-11-06_11h00.09.543,torte-q,2020.1.3,MacIntel,60,12720,,,,,,,,,,,,,,,,,,,,,,,,,,,,,,,,,,,,,,,,,,,,
,,,,,,,,,,,,a,1.6501,Correct!,0,110,110,59,1,t5.png,t4.png,1,0.9,20,Male,2020-11-06_11h00.09.543,torte-q,2020.1.3,MacIntel,60,12720,,,,,,,,,,,,,,,,,,,,,,,,,,,,,,,,,,,,,,,,,,,,
,,,,,,,,,,,,a,1.583785,Incorrect,0,111,111,73,1,t4.png,t2.png,2,0.059078,20,Male,2020-11-06_11h00.09.543,torte-q,2020.1.3,MacIntel,60,12720,,,,,,,,,,,,,,,,,,,,,,,,,,,,,,,,,,,,,,,,,,,,
,,,,,,,,,,,,a,2.100405,Incorrect,0,112,112,35,1,t1.png,t4.png,3,0.0000131,20,Male,2020-11-06_11h00.09.543,torte-q,2020.1.3,MacIntel,60,12720,,,,,,,,,,,,,,,,,,,,,,,,,,,,,,,,,,,,,,,,,,,,
,,,,,,,,,,,,a,1.26745,Correct!,0,113,113,109,1,t5.png,t5.png,0,0.97829,20,Male,2020-11-06_11h00.09.543,torte-q,2020.1.3,MacIntel,60,12720,,,,,,,,,,,,,,,,,,,,,,,,,,,,,,,,,,,,,,,,,,,,
,,,,,,,,,,,,l,1.467295,Correct!,0,114,114,115,1,t2.png,t4.png,2,0.059078,20,Male,2020-11-06_11h00.09.543,torte-q,2020.1.3,MacIntel,60,12720,,,,,,,,,,,,,,,,,,,,,,,,,,,,,,,,,,,,,,,,,,,,
,,,,,,,,,,,,l,2.23366,Correct!,0,115,115,40,1,t1.png,t5.png,4,9.55E-11,20,Male,2020-11-06_11h00.09.543,torte-q,2020.1.3,MacIntel,60,12720,,,,,,,,,,,,,,,,,,,,,,,,,,,,,,,,,,,,,,,,,,,,
,,,,,,,,,,,,l,1.170395,Correct!,0,116,116,37,1,t1.png,t4.png,3,0.0000131,20,Male,2020-11-06_11h00.09.543,torte-q,2020.1.3,MacIntel,60,12720,,,,,,,,,,,,,,,,,,,,,,,,,,,,,,,,,,,,,,,,,,,,
,,,,,,,,,,,,l,0.984665,Incorrect,0,117,117,71,1,t5.png,t5.png,0,0.97829,20,Male,2020-11-06_11h00.09.543,torte-q,2020.1.3,MacIntel,60,12720,,,,,,,,,,,,,,,,,,,,,,,,,,,,,,,,,,,,,,,,,,,,
,,,,,,,,,,,,a,1.55102,Correct!,0,118,118,74,1,t5.png,t4.png,1,0.9,20,Male,2020-11-06_11h00.09.543,torte-q,2020.1.3,MacIntel,60,12720,,,,,,,,,,,,,,,,,,,,,,,,,,,,,,,,,,,,,,,,,,,,
,,,,,,,,,,,,l,1.150435,Correct!,0,119,119,99,1,t1.png,t5.png,4,9.55E-11,20,Male,2020-11-06_11h00.09.543,torte-q,2020.1.3,MacIntel,60,12720,,,,,,,,,,,,,,,,,,,,,,,,,,,,,,,,,,,,,,,,,,,,
,,,,,,,,,,,,l,1.151685,Incorrect,,,,,,t1.png,t2.png,1,0.9,20,Male,2020-11-06_11h00.09.543,torte-q,2020.1.3,MacIntel,60,12720,space,24.281705,space,9.62013,0,0,0,1,1,,,,,,,,,,,,,,,,,,,,,,,,,,,,,,,,,,,
,,,,,,,,,,,,l,1.40194,Incorrect,,,,,,t3.png,t4.png,1,0.90855,20,Male,2020-11-06_11h00.09.543,torte-q,2020.1.3,MacIntel,60,12720,,,,,0,1,1,96,1,,,,,,,,,,,,,,,,,,,,,,,,,,,,,,,,,,,
,,,,,,,,,,,,l,1.85132,Correct!,,,,,,t4.png,t2.png,2,0.059078,20,Male,2020-11-06_11h00.09.543,torte-q,2020.1.3,MacIntel,60,12720,,,,,0,2,2,110,1,,,,,,,,,,,,,,,,,,,,,,,,,,,,,,,,,,,
,,,,,,,,,,,,a,1.456135,Incorrect,,,,,,t1.png,t5.png,4,9.55E-11,20,Male,2020-11-06_11h00.09.543,torte-q,2020.1.3,MacIntel,60,12720,,,,,0,3,3,85,1,,,,,,,,,,,,,,,,,,,,,,,,,,,,,,,,,,,
,,,,,,,,,,,,a,1.668335,Correct!,,,,,,t4.png,t3.png,1,0.90855,20,Male,2020-11-06_11h00.09.543,torte-q,2020.1.3,MacIntel,60,12720,,,,,0,4,4,75,1,,,,,,,,,,,,,,,,,,,,,,,,,,,,,,,,,,,
,,,,,,,,,,,,l,1.73546,Correct!,,,,,,t3.png,t5.png,2,0.056466,20,Male,2020-11-06_11h00.09.543,torte-q,2020.1.3,MacIntel,60,12720,,,,,0,5,5,14,1,,,,,,,,,,,,,,,,,,,,,,,,,,,,,,,,,,,
,,,,,,,,,,,,l,1.9001,Correct!,,,,,,t5.png,t1.png,4,9.55E-11,20,Male,2020-11-06_11h00.09.543,torte-q,2020.1.3,MacIntel,60,12720,,,,,0,6,6,102,1,,,,,,,,,,,,,,,,,,,,,,,,,,,,,,,,,,,
,,,,,,,,,,,,a,1.41677,Correct!,,,,,,t4.png,t3.png,1,0.909,20,Male,2020-11-06_11h00.09.543,torte-q,2020.1.3,MacIntel,60,12720,,,,,0,7,7,46,1,,,,,,,,,,,,,,,,,,,,,,,,,,,,,,,,,,,
,,,,,,,,,,,,l,1.68665,Correct!,,,,,,t4.png,t2.png,2,0.059078,20,Male,2020-11-06_11h00.09.543,torte-q,2020.1.3,MacIntel,60,12720,,,,,0,8,8,109,1,,,,,,,,,,,,,,,,,,,,,,,,,,,,,,,,,,,
,,,,,,,,,,,,l,2.25441,Incorrect,,,,,,t2.png,t1.png,1,0.90025,20,Male,2020-11-06_11h00.09.543,torte-q,2020.1.3,MacIntel,60,12720,,,,,0,9,9,62,1,,,,,,,,,,,,,,,,,,,,,,,,,,,,,,,,,,,
,,,,,,,,,,,,a,1.683455,Incorrect,,,,,,t4.png,t1.png,3,0.0000131,20,Male,2020-11-06_11h00.09.543,torte-q,2020.1.3,MacIntel,60,12720,,,,,0,10,10,61,1,,,,,,,,,,,,,,,,,,,,,,,,,,,,,,,,,,,
,,,,,,,,,,,,a,2.317035,Incorrect,,,,,,t5.png,t1.png,4,9.55E-11,20,Male,2020-11-06_11h00.09.543,torte-q,2020.1.3,MacIntel,60,12720,,,,,0,11,11,43,1,,,,,,,,,,,,,,,,,,,,,,,,,,,,,,,,,,,
,,,,,,,,,,,,a,1.53524,Correct!,,,,,,t1.png,t3.png,2,0.056466,20,Male,2020-11-06_11h00.09.543,torte-q,2020.1.3,MacIntel,60,12720,,,,,0,12,12,69,1,,,,,,,,,,,,,,,,,,,,,,,,,,,,,,,,,,,
,,,,,,,,,,,,l,1.368115,Incorrect,,,,,,t3.png,t2.png,1,0.90855,20,Male,2020-11-06_11h00.09.543,torte-q,2020.1.3,MacIntel,60,12720,,,,,0,13,13,97,1,,,,,,,,,,,,,,,,,,,,,,,,,,,,,,,,,,,
,,,,,,,,,,,,l,1.48718,Correct!,,,,,,t2.png,t4.png,2,0.059078,20,Male,2020-11-06_11h00.09.543,torte-q,2020.1.3,MacIntel,60,12720,,,,,0,14,14,11,1,,,,,,,,,,,,,,,,,,,,,,,,,,,,,,,,,,,
,,,,,,,,,,,,l,1.87137,Correct!,,,,,,t4.png,t5.png,1,0.90025,20,Male,2020-11-06_11h00.09.543,torte-q,2020.1.3,MacIntel,60,12720,,,,,0,15,15,47,1,,,,,,,,,,,,,,,,,,,,,,,,,,,,,,,,,,,
,,,,,,,,,,,,a,1.9181,Correct!,,,,,,t5.png,t5.png,0,0.97829,20,Male,2020-11-06_11h00.09.543,torte-q,2020.1.3,MacIntel,60,12720,,,,,0,16,16,94,1,,,,,,,,,,,,,,,,,,,,,,,,,,,,,,,,,,,
,,,,,,,,,,,,l,1.08462,Incorrect,,,,,,t3.png,t2.png,1,0.90855,20,Male,2020-11-06_11h00.09.543,torte-q,2020.1.3,MacIntel,60,12720,,,,,0,17,17,18,1,,,,,,,,,,,,,,,,,,,,,,,,,,,,,,,,,,,
,,,,,,,,,,,,a,1.38394,Correct!,,,,,,t4.png,t4.png,0,0.98115,20,Male,2020-11-06_11h00.09.543,torte-q,2020.1.3,MacIntel,60,12720,,,,,0,18,18,80,1,,,,,,,,,,,,,,,,,,,,,,,,,,,,,,,,,,,
,,,,,,,,,,,,l,1.03402,Correct!,,,,,,t3.png,t1.png,2,0.056466,20,Male,2020-11-06_11h00.09.543,torte-q,2020.1.3,MacIntel,60,12720,,,,,0,19,19,64,1,,,,,,,,,,,,,,,,,,,,,,,,,,,,,,,,,,,
,,,,,,,,,,,,l,2.234115,Correct!,,,,,,t1.png,t5.png,4,9.55E-11,20,Male,2020-11-06_11h00.09.543,torte-q,2020.1.3,MacIntel,60,12720,,,,,0,20,20,41,1,,,,,,,,,,,,,,,,,,,,,,,,,,,,,,,,,,,
,,,,,,,,,,,,a,1.384385,Correct!,,,,,,t1.png,t2.png,1,0.90025,20,Male,2020-11-06_11h00.09.543,torte-q,2020.1.3,MacIntel,60,12720,,,,,0,21,21,112,1,,,,,,,,,,,,,,,,,,,,,,,,,,,,,,,,,,,
,,,,,,,,,,,,a,1.383725,Correct!,,,,,,t2.png,t3.png,1,0.90855,20,Male,2020-11-06_11h00.09.543,torte-q,2020.1.3,MacIntel,60,12720,,,,,0,22,22,65,1,,,,,,,,,,,,,,,,,,,,,,,,,,,,,,,,,,,
,,,,,,,,,,,,a,1.44999,Correct!,,,,,,t2.png,t2.png,0,0.98115,20,Male,2020-11-06_11h00.09.543,torte-q,2020.1.3,MacIntel,60,12720,,,,,0,23,23,7,1,,,,,,,,,,,,,,,,,,,,,,,,,,,,,,,,,,,
,,,,,,,,,,,,,,Too slow :(,,,,,,t2.png,t5.png,3,0.0000131,20,Male,2020-11-06_11h00.09.543,torte-q,2020.1.3,MacIntel,60,12720,,,,,0,24,24,8,1,,,,,,,,,,,,,,,,,,,,,,,,,,,,,,,,,,,
,,,,,,,,,,,,l,1.65133,Correct!,,,,,,t4.png,t1.png,3,0.0000131,20,Male,2020-11-06_11h00.09.543,torte-q,2020.1.3,MacIntel,60,12720,,,,,0,25,25,48,1,,,,,,,,,,,,,,,,,,,,,,,,,,,,,,,,,,,
,,,,,,,,,,,,l,0.93752,Correct!,,,,,,t3.png,t1.png,2,0.056466,20,Male,2020-11-06_11h00.09.543,torte-q,2020.1.3,MacIntel,60,12720,,,,,0,26,26,0,1,,,,,,,,,,,,,,,,,,,,,,,,,,,,,,,,,,,
,,,,,,,,,,,,l,1.05064,Correct!,,,,,,t1.png,t5.png,4,9.55E-11,20,Male,2020-11-06_11h00.09.543,torte-q,2020.1.3,MacIntel,60,12720,,,,,0,27,27,12,1,,,,,,,,,,,,,,,,,,,,,,,,,,,,,,,,,,,
,,,,,,,,,,,,a,1.41688,Incorrect,,,,,,t1.png,t3.png,2,0.056466,20,Male,2020-11-06_11h00.09.543,torte-q,2020.1.3,MacIntel,60,12720,,,,,0,28,28,60,1,,,,,,,,,,,,,,,,,,,,,,,,,,,,,,,,,,,
,,,,,,,,,,,,l,1.133175,Correct!,,,,,,t2.png,t5.png,3,0.0000131,20,Male,2020-11-06_11h00.09.543,torte-q,2020.1.3,MacIntel,60,12720,,,,,0,29,29,95,1,,,,,,,,,,,,,,,,,,,,,,,,,,,,,,,,,,,
,,,,,,,,,,,,a,1.520555,Correct!,,,,,,t5.png,t4.png,1,0.90025,20,Male,2020-11-06_11h00.09.543,torte-q,2020.1.3,MacIntel,60,12720,,,,,0,30,30,27,1,,,,,,,,,,,,,,,,,,,,,,,,,,,,,,,,,,,
,,,,,,,,,,,,l,1.20088,Incorrect,,,,,,t2.png,t2.png,0,0.98115,20,Male,2020-11-06_11h00.09.543,torte-q,2020.1.3,MacIntel,60,12720,,,,,0,31,31,57,1,,,,,,,,,,,,,,,,,,,,,,,,,,,,,,,,,,,
,,,,,,,,,,,,a,1.534685,Incorrect,,,,,,t1.png,t4.png,3,0.0000131,20,Male,2020-11-06_11h00.09.543,torte-q,2020.1.3,MacIntel,60,12720,,,,,0,32,32,50,1,,,,,,,,,,,,,,,,,,,,,,,,,,,,,,,,,,,
,,,,,,,,,,,,a,1.6724,Incorrect,,,,,,t1.png,t4.png,3,0.0000131,20,Male,2020-11-06_11h00.09.543,torte-q,2020.1.3,MacIntel,60,12720,,,,,0,33,33,107,1,,,,,,,,,,,,,,,,,,,,,,,,,,,,,,,,,,,
,,,,,,,,,,,,a,1.62318,Incorrect,,,,,,t5.png,t2.png,3,0.0000131,20,Male,2020-11-06_11h00.09.543,torte-q,2020.1.3,MacIntel,60,12720,,,,,0,34,34,119,1,,,,,,,,,,,,,,,,,,,,,,,,,,,,,,,,,,,
,,,,,,,,,,,,l,1.634345,Correct!,,,,,,t2.png,t4.png,2,0.059078,20,Male,2020-11-06_11h00.09.543,torte-q,2020.1.3,MacIntel,60,12720,,,,,0,35,35,24,1,,,,,,,,,,,,,,,,,,,,,,,,,,,,,,,,,,,
,,,,,,,,,,,,a,1.43417,Correct!,,,,,,t5.png,t5.png,0,0.97829,20,Male,2020-11-06_11h00.09.543,torte-q,2020.1.3,MacIntel,60,12720,,,,,0,36,36,25,1,,,,,,,,,,,,,,,,,,,,,,,,,,,,,,,,,,,
,,,,,,,,,,,,a,0.850945,Correct!,,,,,,t5.png,t5.png,0,0.97829,20,Male,2020-11-06_11h00.09.543,torte-q,2020.1.3,MacIntel,60,12720,,,,,0,37,37,70,1,,,,,,,,,,,,,,,,,,,,,,,,,,,,,,,,,,,
,,,,,,,,,,,,a,0.88452,Correct!,,,,,,t1.png,t1.png,0,0.97829,20,Male,2020-11-06_11h00.09.543,torte-q,2020.1.3,MacIntel,60,12720,,,,,0,38,38,67,1,,,,,,,,,,,,,,,,,,,,,,,,,,,,,,,,,,,
,,,,,,,,,,,,l,1.35036,Correct!,,,,,,t2.png,t5.png,3,0.0000131,20,Male,2020-11-06_11h00.09.543,torte-q,2020.1.3,MacIntel,60,12720,,,,,0,39,39,66,1,,,,,,,,,,,,,,,,,,,,,,,,,,,,,,,,,,,
,,,,,,,,,,,,l,1.018145,Incorrect,,,,,,t3.png,t2.png,1,0.90855,20,Male,2020-11-06_11h00.09.543,torte-q,2020.1.3,MacIntel,60,12720,,,,,0,40,40,53,1,,,,,,,,,,,,,,,,,,,,,,,,,,,,,,,,,,,
,,,,,,,,,,,,a,1.318135,Correct!,,,,,,t5.png,t4.png,1,0.9,20,Male,2020-11-06_11h00.09.543,torte-q,2020.1.3,MacIntel,60,12720,,,,,0,41,41,49,1,,,,,,,,,,,,,,,,,,,,,,,,,,,,,,,,,,,
,,,,,,,,,,,,l,0.850805,Incorrect,,,,,,t1.png,t1.png,0,0.978,20,Male,2020-11-06_11h00.09.543,torte-q,2020.1.3,MacIntel,60,12720,,,,,0,42,42,54,1,,,,,,,,,,,,,,,,,,,,,,,,,,,,,,,,,,,
,,,,,,,,,,,,a,1.050825,Incorrect,,,,,,t5.png,t2.png,3,0.0000131,20,Male,2020-11-06_11h00.09.543,torte-q,2020.1.3,MacIntel,60,12720,,,,,0,43,43,116,1,,,,,,,,,,,,,,,,,,,,,,,,,,,,,,,,,,,
,,,,,,,,,,,,l,1.20075,Incorrect,,,,,,t2.png,t2.png,0,0.981,20,Male,2020-11-06_11h00.09.543,torte-q,2020.1.3,MacIntel,60,12720,,,,,0,44,44,101,1,,,,,,,,,,,,,,,,,,,,,,,,,,,,,,,,,,,
,,,,,,,,,,,,a,0.873005,Incorrect,,,,,,t5.png,t1.png,4,9.55E-11,20,Male,2020-11-06_11h00.09.543,torte-q,2020.1.3,MacIntel,60,12720,,,,,0,45,45,100,1,,,,,,,,,,,,,,,,,,,,,,,,,,,,,,,,,,,
,,,,,,,,,,,,l,0.834715,Correct!,,,,,,t5.png,t1.png,4,9.55E-11,20,Male,2020-11-06_11h00.09.543,torte-q,2020.1.3,MacIntel,60,12720,,,,,0,46,46,22,1,,,,,,,,,,,,,,,,,,,,,,,,,,,,,,,,,,,
,,,,,,,,,,,,a,1.067635,Incorrect,,,,,,t2.png,t5.png,3,0.0000131,20,Male,2020-11-06_11h00.09.543,torte-q,2020.1.3,MacIntel,60,12720,,,,,0,47,47,40,1,,,,,,,,,,,,,,,,,,,,,,,,,,,,,,,,,,,
,,,,,,,,,,,,l,0.818145,Correct!,,,,,,t3.png,t1.png,2,0.056466,20,Male,2020-11-06_11h00.09.543,torte-q,2020.1.3,MacIntel,60,12720,,,,,0,48,48,32,1,,,,,,,,,,,,,,,,,,,,,,,,,,,,,,,,,,,
,,,,,,,,,,,,l,0.90164,Correct!,,,,,,t1.png,t3.png,2,0.056466,20,Male,2020-11-06_11h00.09.543,torte-q,2020.1.3,MacIntel,60,12720,,,,,0,49,49,99,1,,,,,,,,,,,,,,,,,,,,,,,,,,,,,,,,,,,
,,,,,,,,,,,,l,1.63796,Incorrect,,,,,,t3.png,t4.png,1,0.909,20,Male,2020-11-06_11h00.09.543,torte-q,2020.1.3,MacIntel,60,12720,,,,,0,50,50,82,1,,,,,,,,,,,,,,,,,,,,,,,,,,,,,,,,,,,
,,,,,,,,,,,,a,1.46794,Correct!,,,,,,t4.png,t3.png,1,0.909,20,Male,2020-11-06_11h00.09.543,torte-q,2020.1.3,MacIntel,60,12720,,,,,0,51,51,20,1,,,,,,,,,,,,,,,,,,,,,,,,,,,,,,,,,,,
,,,,,,,,,,,,l,1.60054,Correct!,,,,,,t3.png,t5.png,2,0.0565,20,Male,2020-11-06_11h00.09.543,torte-q,2020.1.3,MacIntel,60,12720,,,,,0,52,52,83,1,,,,,,,,,,,,,,,,,,,,,,,,,,,,,,,,,,,
,,,,,,,,,,,,a,1.78428,Incorrect,,,,,,t1.png,t5.png,4,9.55E-11,20,Male,2020-11-06_11h00.09.543,torte-q,2020.1.3,MacIntel,60,12720,,,,,0,53,53,55,1,,,,,,,,,,,,,,,,,,,,,,,,,,,,,,,,,,,
,,,,,,,,,,,,a,1.401955,Correct!,,,,,,t4.png,t5.png,1,0.90025,20,Male,2020-11-06_11h00.09.543,torte-q,2020.1.3,MacIntel,60,12720,,,,,0,54,54,113,1,,,,,,,,,,,,,,,,,,,,,,,,,,,,,,,,,,,
,,,,,,,,,,,,l,1.635105,Correct!,,,,,,t1.png,t3.png,2,0.056466,20,Male,2020-11-06_11h00.09.543,torte-q,2020.1.3,MacIntel,60,12720,,,,,0,55,55,63,1,,,,,,,,,,,,,,,,,,,,,,,,,,,,,,,,,,,
,,,,,,,,,,,,a,1.035255,Correct!,,,,,,t1.png,t1.png,0,0.97829,20,Male,2020-11-06_11h00.09.543,torte-q,2020.1.3,MacIntel,60,12720,,,,,0,56,56,9,1,,,,,,,,,,,,,,,,,,,,,,,,,,,,,,,,,,,
,,,,,,,,,,,,a,1.40091,Correct!,,,,,,t4.png,t5.png,1,0.9,20,Male,2020-11-06_11h00.09.543,torte-q,2020.1.3,MacIntel,60,12720,,,,,0,57,57,115,1,,,,,,,,,,,,,,,,,,,,,,,,,,,,,,,,,,,
,,,,,,,,,,,,a,1.034205,Correct!,,,,,,t4.png,t3.png,1,0.90855,20,Male,2020-11-06_11h00.09.543,torte-q,2020.1.3,MacIntel,60,12720,,,,,0,58,58,45,1,,,,,,,,,,,,,,,,,,,,,,,,,,,,,,,,,,,
,,,,,,,,,,,,a,2.18481,Incorrect,,,,,,t5.png,t2.png,3,0.0000131,20,Male,2020-11-06_11h00.09.543,torte-q,2020.1.3,MacIntel,60,12720,,,,,0,59,59,51,1,,,,,,,,,,,,,,,,,,,,,,,,,,,,,,,,,,,
,,,,,,,,,,,,l,1.367495,Incorrect,,,,,,t2.png,t3.png,1,0.90855,20,Male,2020-11-06_11h00.09.543,torte-q,2020.1.3,MacIntel,60,12720,,,,,0,60,60,68,1,,,,,,,,,,,,,,,,,,,,,,,,,,,,,,,,,,,
,,,,,,,,,,,,a,1.254185,Incorrect,,,,,,t5.png,t3.png,2,0.056466,20,Male,2020-11-06_11h00.09.543,torte-q,2020.1.3,MacIntel,60,12720,,,,,0,61,61,38,1,,,,,,,,,,,,,,,,,,,,,,,,,,,,,,,,,,,
,,,,,,,,,,,,a,2.050705,Incorrect,,,,,,t1.png,t4.png,3,0.0000131,20,Male,2020-11-06_11h00.09.543,torte-q,2020.1.3,MacIntel,60,12720,,,,,0,62,62,92,1,,,,,,,,,,,,,,,,,,,,,,,,,,,,,,,,,,,
,,,,,,,,,,,,l,0.83429,Correct!,,,,,,t3.png,t1.png,2,0.056466,20,Male,2020-11-06_11h00.09.543,torte-q,2020.1.3,MacIntel,60,12720,,,,,0,63,63,29,1,,,,,,,,,,,,,,,,,,,,,,,,,,,,,,,,,,,
,,,,,,,,,,,,a,1.318975,Incorrect,,,,,,t5.png,t2.png,3,0.0000131,20,Male,2020-11-06_11h00.09.543,torte-q,2020.1.3,MacIntel,60,12720,,,,,0,64,64,98,1,,,,,,,,,,,,,,,,,,,,,,,,,,,,,,,,,,,
,,,,,,,,,,,,l,1.25062,Correct!,,,,,,t2.png,t5.png,3,0.0000131,20,Male,2020-11-06_11h00.09.543,torte-q,2020.1.3,MacIntel,60,12720,,,,,0,65,65,104,1,,,,,,,,,,,,,,,,,,,,,,,,,,,,,,,,,,,
,,,,,,,,,,,,l,1.733485,Incorrect,,,,,,t2.png,t3.png,1,0.90855,20,Male,2020-11-06_11h00.09.543,torte-q,2020.1.3,MacIntel,60,12720,,,,,0,66,66,10,1,,,,,,,,,,,,,,,,,,,,,,,,,,,,,,,,,,,
,,,,,,,,,,,,l,0.95106,Incorrect,,,,,,t2.png,t3.png,1,0.90855,20,Male,2020-11-06_11h00.09.543,torte-q,2020.1.3,MacIntel,60,12720,,,,,0,67,67,111,1,,,,,,,,,,,,,,,,,,,,,,,,,,,,,,,,,,,
,,,,,,,,,,,,a,1.45302,Incorrect,,,,,,t1.png,t2.png,1,0.90025,20,Male,2020-11-06_11h00.09.543,torte-q,2020.1.3,MacIntel,60,12720,,,,,0,68,68,72,1,,,,,,,,,,,,,,,,,,,,,,,,,,,,,,,,,,,
,,,,,,,,,,,,a,0.96808,Incorrect,,,,,,t5.png,t3.png,2,0.056466,20,Male,2020-11-06_11h00.09.543,torte-q,2020.1.3,MacIntel,60,12720,,,,,0,69,69,108,1,,,,,,,,,,,,,,,,,,,,,,,,,,,,,,,,,,,
,,,,,,,,,,,,l,1.58782,Correct!,,,,,,t1.png,t5.png,4,9.55E-11,20,Male,2020-11-06_11h00.09.543,torte-q,2020.1.3,MacIntel,60,12720,,,,,0,70,70,16,1,,,,,,,,,,,,,,,,,,,,,,,,,,,,,,,,,,,
,,,,,,,,,,,,l,1.000985,Incorrect,,,,,,t2.png,t1.png,1,0.90025,20,Male,2020-11-06_11h00.09.543,torte-q,2020.1.3,MacIntel,60,12720,,,,,0,71,71,4,1,,,,,,,,,,,,,,,,,,,,,,,,,,,,,,,,,,,
,,,,,,,,,,,,l,1.01826,Correct!,,,,,,t3.png,t1.png,2,0.0565,20,Male,2020-11-06_11h00.09.543,torte-q,2020.1.3,MacIntel,60,12720,,,,,0,72,72,31,1,,,,,,,,,,,,,,,,,,,,,,,,,,,,,,,,,,,
,,,,,,,,,,,,a,1.571095,Incorrect,,,,,,t5.png,t3.png,2,0.0565,20,Male,2020-11-06_11h00.09.543,torte-q,2020.1.3,MacIntel,60,12720,,,,,0,73,73,39,1,,,,,,,,,,,,,,,,,,,,,,,,,,,,,,,,,,,
,,,,,,,,,,,,a,1.51833,Correct!,,,,,,t5.png,t5.png,0,0.97829,20,Male,2020-11-06_11h00.09.543,torte-q,2020.1.3,MacIntel,60,12720,,,,,0,74,74,73,1,,,,,,,,,,,,,,,,,,,,,,,,,,,,,,,,,,,
,,,,,,,,,,,,a,1.55089,Correct!,,,,,,t5.png,t4.png,1,0.9,20,Male,2020-11-06_11h00.09.543,torte-q,2020.1.3,MacIntel,60,12720,,,,,0,75,75,76,1,,,,,,,,,,,,,,,,,,,,,,,,,,,,,,,,,,,
,,,,,,,,,,,,l,2.03432,Incorrect,,,,,,t1.png,t1.png,0,0.97829,20,Male,2020-11-06_11h00.09.543,torte-q,2020.1.3,MacIntel,60,12720,,,,,0,76,76,78,1,,,,,,,,,,,,,,,,,,,,,,,,,,,,,,,,,,,
,,,,,,,,,,,,a,0.984225,Incorrect,,,,,,t5.png,t3.png,2,0.056466,20,Male,2020-11-06_11h00.09.543,torte-q,2020.1.3,MacIntel,60,12720,,,,,0,77,77,56,1,,,,,,,,,,,,,,,,,,,,,,,,,,,,,,,,,,,
,,,,,,,,,,,,a,1.63394,Incorrect,,,,,,t3.png,t5.png,2,0.056466,20,Male,2020-11-06_11h00.09.543,torte-q,2020.1.3,MacIntel,60,12720,,,,,0,78,78,44,1,,,,,,,,,,,,,,,,,,,,,,,,,,,,,,,,,,,
,,,,,,,,,,,,a,1.184405,Incorrect,,,,,,t4.png,t2.png,2,0.059078,20,Male,2020-11-06_11h00.09.543,torte-q,2020.1.3,MacIntel,60,12720,,,,,0,79,79,86,1,,,,,,,,,,,,,,,,,,,,,,,,,,,,,,,,,,,
,,,,,,,,,,,,a,1.46782,Correct!,,,,,,t5.png,t5.png,0,0.978,20,Male,2020-11-06_11h00.09.543,torte-q,2020.1.3,MacIntel,60,12720,,,,,0,80,80,117,1,,,,,,,,,,,,,,,,,,,,,,,,,,,,,,,,,,,
,,,,,,,,,,,,a,1.583565,Incorrect,,,,,,t3.png,t5.png,2,0.056466,20,Male,2020-11-06_11h00.09.543,torte-q,2020.1.3,MacIntel,60,12720,,,,,0,81,81,6,1,,,,,,,,,,,,,,,,,,,,,,,,,,,,,,,,,,,
,,,,,,,,,,,,a,2.067695,Incorrect,,,,,,t1.png,t4.png,3,0.0000131,20,Male,2020-11-06_11h00.09.543,torte-q,2020.1.3,MacIntel,60,12720,,,,,0,82,82,17,1,,,,,,,,,,,,,,,,,,,,,,,,,,,,,,,,,,,
,,,,,,,,,,,,a,1.967515,Incorrect,,,,,,t4.png,t2.png,2,0.059078,20,Male,2020-11-06_11h00.09.543,torte-q,2020.1.3,MacIntel,60,12720,,,,,0,83,83,88,1,,,,,,,,,,,,,,,,,,,,,,,,,,,,,,,,,,,
,,,,,,,,,,,,a,1.350585,Incorrect,,,,,,t4.png,t1.png,3,0.0000131,20,Male,2020-11-06_11h00.09.543,torte-q,2020.1.3,MacIntel,60,12720,,,,,0,84,84,93,1,,,,,,,,,,,,,,,,,,,,,,,,,,,,,,,,,,,
,,,,,,,,,,,,a,1.73689,Incorrect,,,,,,t2.png,t4.png,2,0.0591,20,Male,2020-11-06_11h00.09.543,torte-q,2020.1.3,MacIntel,60,12720,,,,,0,85,85,15,1,,,,,,,,,,,,,,,,,,,,,,,,,,,,,,,,,,,
,,,,,,,,,,,,l,2.267575,Correct!,,,,,,t5.png,t3.png,2,0.056466,20,Male,2020-11-06_11h00.09.543,torte-q,2020.1.3,MacIntel,60,12720,,,,,0,86,86,114,1,,,,,,,,,,,,,,,,,,,,,,,,,,,,,,,,,,,
,,,,,,,,,,,,l,1.683525,Incorrect,,,,,,t2.png,t2.png,0,0.98115,20,Male,2020-11-06_11h00.09.543,torte-q,2020.1.3,MacIntel,60,12720,,,,,0,87,87,2,1,,,,,,,,,,,,,,,,,,,,,,,,,,,,,,,,,,,
,,,,,,,,,,,,l,1.73402,Incorrect,,,,,,t1.png,t2.png,1,0.90025,20,Male,2020-11-06_11h00.09.543,torte-q,2020.1.3,MacIntel,60,12720,,,,,0,88,88,105,1,,,,,,,,,,,,,,,,,,,,,,,,,,,,,,,,,,,
,,,,,,,,,,,,a,1.20336,Correct!,,,,,,t3.png,t4.png,1,0.90855,20,Male,2020-11-06_11h00.09.543,torte-q,2020.1.3,MacIntel,60,12720,,,,,0,89,89,84,1,,,,,,,,,,,,,,,,,,,,,,,,,,,,,,,,,,,
,,,,,,,,,,,,a,1.10004,Correct!,,,,,,t4.png,t4.png,0,0.98115,20,Male,2020-11-06_11h00.09.543,torte-q,2020.1.3,MacIntel,60,12720,,,,,0,90,90,90,1,,,,,,,,,,,,,,,,,,,,,,,,,,,,,,,,,,,
,,,,,,,,,,,,a,0.933285,Correct!,,,,,,t4.png,t5.png,1,0.90025,20,Male,2020-11-06_11h00.09.543,torte-q,2020.1.3,MacIntel,60,12720,,,,,0,91,91,103,1,,,,,,,,,,,,,,,,,,,,,,,,,,,,,,,,,,,
,,,,,,,,,,,,a,1.0397,Correct!,,,,,,t4.png,t4.png,0,0.98115,20,Male,2020-11-06_11h00.09.543,torte-q,2020.1.3,MacIntel,60,12720,,,,,0,92,92,79,1,,,,,,,,,,,,,,,,,,,,,,,,,,,,,,,,,,,
,,,,,,,,,,,,,,Too slow :(,,,,,,t3.png,t5.png,2,0.0565,20,Male,2020-11-06_11h00.09.543,torte-q,2020.1.3,MacIntel,60,12720,,,,,0,93,93,30,1,,,,,,,,,,,,,,,,,,,,,,,,,,,,,,,,,,,
,,,,,,,,,,,,a,1.63489,Correct!,,,,,,t2.png,t1.png,1,0.9,20,Male,2020-11-06_11h00.09.543,torte-q,2020.1.3,MacIntel,60,12720,,,,,0,94,94,118,1,,,,,,,,,,,,,,,,,,,,,,,,,,,,,,,,,,,
,,,,,,,,,,,,a,2.351675,Incorrect,,,,,,t5.png,t1.png,4,9.55E-11,20,Male,2020-11-06_11h00.09.543,torte-q,2020.1.3,MacIntel,60,12720,,,,,0,95,95,71,1,,,,,,,,,,,,,,,,,,,,,,,,,,,,,,,,,,,
,,,,,,,,,,,,a,0.95243,Correct!,,,,,,t5.png,t4.png,1,0.90025,20,Male,2020-11-06_11h00.09.543,torte-q,2020.1.3,MacIntel,60,12720,,,,,0,96,96,34,1,,,,,,,,,,,,,,,,,,,,,,,,,,,,,,,,,,,
,,,,,,,,,,,,a,0.95033,Correct!,,,,,,t4.png,t4.png,0,0.98115,20,Male,2020-11-06_11h00.09.543,torte-q,2020.1.3,MacIntel,60,12720,,,,,0,97,97,52,1,,,,,,,,,,,,,,,,,,,,,,,,,,,,,,,,,,,
,,,,,,,,,,,,a,1.784735,Correct!,,,,,,t3.png,t4.png,1,0.909,20,Male,2020-11-06_11h00.09.543,torte-q,2020.1.3,MacIntel,60,12720,,,,,0,98,98,106,1,,,,,,,,,,,,,,,,,,,,,,,,,,,,,,,,,,,
,,,,,,,,,,,,l,1.888185,Correct!,,,,,,t5.png,t2.png,3,0.0000131,20,Male,2020-11-06_11h00.09.543,torte-q,2020.1.3,MacIntel,60,12720,,,,,0,99,99,91,1,,,,,,,,,,,,,,,,,,,,,,,,,,,,,,,,,,,
,,,,,,,,,,,,a,1.18493,Incorrect,,,,,,t4.png,t1.png,3,0.0000131,20,Male,2020-11-06_11h00.09.543,torte-q,2020.1.3,MacIntel,60,12720,,,,,0,100,100,42,1,,,,,,,,,,,,,,,,,,,,,,,,,,,,,,,,,,,
,,,,,,,,,,,,l,1.46734,Incorrect,,,,,,t2.png,t1.png,1,0.90025,20,Male,2020-11-06_11h00.09.543,torte-q,2020.1.3,MacIntel,60,12720,,,,,0,101,101,5,1,,,,,,,,,,,,,,,,,,,,,,,,,,,,,,,,,,,
,,,,,,,,,,,,,,Too slow :(,,,,,,t2.png,t3.png,1,0.909,20,Male,2020-11-06_11h00.09.543,torte-q,2020.1.3,MacIntel,60,12720,,,,,0,102,102,74,1,,,,,,,,,,,,,,,,,,,,,,,,,,,,,,,,,,,
,,,,,,,,,,,,a,1.804165,Correct!,,,,,,t3.png,t4.png,1,0.909,20,Male,2020-11-06_11h00.09.543,torte-q,2020.1.3,MacIntel,60,12720,,,,,0,103,103,89,1,,,,,,,,,,,,,,,,,,,,,,,,,,,,,,,,,,,
,,,,,,,,,,,,a,1.93339,Correct!,,,,,,t4.png,t5.png,1,0.90025,20,Male,2020-11-06_11h00.09.543,torte-q,2020.1.3,MacIntel,60,12720,,,,,0,104,104,58,1,,,,,,,,,,,,,,,,,,,,,,,,,,,,,,,,,,,
,,,,,,,,,,,,a,1.484615,Correct!,,,,,,t4.png,t3.png,1,0.90855,20,Male,2020-11-06_11h00.09.543,torte-q,2020.1.3,MacIntel,60,12720,,,,,0,105,105,35,1,,,,,,,,,,,,,,,,,,,,,,,,,,,,,,,,,,,
,,,,,,,,,,,,l,1.400715,Incorrect,,,,,,t3.png,t2.png,1,0.909,20,Male,2020-11-06_11h00.09.543,torte-q,2020.1.3,MacIntel,60,12720,,,,,0,106,106,3,1,,,,,,,,,,,,,,,,,,,,,,,,,,,,,,,,,,,
,,,,,,,,,,,,l,0.967965,Incorrect,,,,,,t3.png,t2.png,1,0.909,20,Male,2020-11-06_11h00.09.543,torte-q,2020.1.3,MacIntel,60,12720,,,,,0,107,107,23,1,,,,,,,,,,,,,,,,,,,,,,,,,,,,,,,,,,,
,,,,,,,,,,,,l,0.950565,Incorrect,,,,,,t2.png,t1.png,1,0.90025,20,Male,2020-11-06_11h00.09.543,torte-q,2020.1.3,MacIntel,60,12720,,,,,0,108,108,19,1,,,,,,,,,,,,,,,,,,,,,,,,,,,,,,,,,,,
,,,,,,,,,,,,a,1.2849,Incorrect,,,,,,t4.png,t2.png,2,0.0591,20,Male,2020-11-06_11h00.09.543,torte-q,2020.1.3,MacIntel,60,12720,,,,,0,109,109,36,1,,,,,,,,,,,,,,,,,,,,,,,,,,,,,,,,,,,
,,,,,,,,,,,,l,1.2183,Incorrect,,,,,,t1.png,t1.png,0,0.978,20,Male,2020-11-06_11h00.09.543,torte-q,2020.1.3,MacIntel,60,12720,,,,,0,110,110,28,1,,,,,,,,,,,,,,,,,,,,,,,,,,,,,,,,,,,
,,,,,,,,,,,,l,2.2543,Correct!,,,,,,t1.png,t4.png,3,0.0000131,20,Male,2020-11-06_11h00.09.543,torte-q,2020.1.3,MacIntel,60,12720,,,,,0,111,111,81,1,,,,,,,,,,,,,,,,,,,,,,,,,,,,,,,,,,,
,,,,,,,,,,,,l,1.083755,Incorrect,,,,,,t1.png,t2.png,1,0.90025,20,Male,2020-11-06_11h00.09.543,torte-q,2020.1.3,MacIntel,60,12720,,,,,0,112,112,33,1,,,,,,,,,,,,,,,,,,,,,,,,,,,,,,,,,,,
,,,,,,,,,,,,l,0.82227,Incorrect,,,,,,t2.png,t2.png,0,0.98115,20,Male,2020-11-06_11h00.09.543,torte-q,2020.1.3,MacIntel,60,12720,,,,,0,113,113,59,1,,,,,,,,,,,,,,,,,,,,,,,,,,,,,,,,,,,
,,,,,,,,,,,,a,1.084855,Incorrect,,,,,,t2.png,t4.png,2,0.059078,20,Male,2020-11-06_11h00.09.543,torte-q,2020.1.3,MacIntel,60,12720,,,,,0,114,114,37,1,,,,,,,,,,,,,,,,,,,,,,,,,,,,,,,,,,,
,,,,,,,,,,,,,,Too slow :(,,,,,,t2.png,t4.png,2,0.059078,20,Male,2020-11-06_11h00.09.543,torte-q,2020.1.3,MacIntel,60,12720,,,,,0,115,115,77,1,,,,,,,,,,,,,,,,,,,,,,,,,,,,,,,,,,,
,,,,,,,,,,,,a,2.367545,Correct!,,,,,,t5.png,t4.png,1,0.90025,20,Male,2020-11-06_11h00.09.543,torte-q,2020.1.3,MacIntel,60,12720,,,,,0,116,116,26,1,,,,,,,,,,,,,,,,,,,,,,,,,,,,,,,,,,,
,,,,,,,,,,,,a,1.001465,Correct!,,,,,,t4.png,t4.png,0,0.98115,20,Male,2020-11-06_11h00.09.543,torte-q,2020.1.3,MacIntel,60,12720,,,,,0,117,117,21,1,,,,,,,,,,,,,,,,,,,,,,,,,,,,,,,,,,,
,,,,,,,,,,,,a,1.08372,Incorrect,,,,,,t4.png,t1.png,3,0.0000131,20,Male,2020-11-06_11h00.09.543,torte-q,2020.1.3,MacIntel,60,12720,,,,,0,118,118,13,1,,,,,,,,,,,,,,,,,,,,,,,,,,,,,,,,,,,
,,,,,,,,,,,,,,Too slow :(,,,,,,t1.png,t3.png,2,0.056466,20,Male,2020-11-06_11h00.09.543,torte-q,2020.1.3,MacIntel,60,12720,,,,,0,119,119,87,1,,,,,,,,,,,,,,,,,,,,,,,,,,,,,,,,,,,
,,,,,,,,,,,,l,1.918265,Correct!,,,,,,t2.png,t5.png,3,0.0000131,20,Male,2020-11-06_11h00.09.543,torte-q,2020.1.3,MacIntel,60,12720,space,28.44044,,,,,,,,space,14.486945,space,2.25168,0,0,0,95,1,,,,,,,,,,,,,,,,,,,,,,,,,,
,,,,,,,,,,,,a,1.15113,Incorrect,,,,,,t2.png,t4.png,2,0.059078,20,Male,2020-11-06_11h00.09.543,torte-q,2020.1.3,MacIntel,60,12720,,,,,,,,,,,,,,0,1,1,77,1,,,,,,,,,,,,,,,,,,,,,,,,,,
,,,,,,,,,,,,a,1.888135,Incorrect,,,,,,t1.png,t4.png,3,0.0000131,20,Male,2020-11-06_11h00.09.543,torte-q,2020.1.3,MacIntel,60,12720,,,,,,,,,,,,,,0,2,2,107,1,,,,,,,,,,,,,,,,,,,,,,,,,,
,,,,,,,,,,,,l,1.78409,Correct!,,,,,,t1.png,t3.png,2,0.056466,20,Male,2020-11-06_11h00.09.543,torte-q,2020.1.3,MacIntel,60,12720,,,,,,,,,,,,,,0,3,3,87,1,,,,,,,,,,,,,,,,,,,,,,,,,,
,,,,,,,,,,,,a,1.08424,Correct!,,,,,,t4.png,t3.png,1,0.909,20,Male,2020-11-06_11h00.09.543,torte-q,2020.1.3,MacIntel,60,12720,,,,,,,,,,,,,,0,4,4,20,1,,,,,,,,,,,,,,,,,,,,,,,,,,
,,,,,,,,,,,,a,1.08491,Incorrect,,,,,,t5.png,t1.png,4,9.55E-11,20,Male,2020-11-06_11h00.09.543,torte-q,2020.1.3,MacIntel,60,12720,,,,,,,,,,,,,,0,5,5,102,1,,,,,,,,,,,,,,,,,,,,,,,,,,
,,,,,,,,,,,,a,0.668205,Correct!,,,,,,t5.png,t4.png,1,0.90025,20,Male,2020-11-06_11h00.09.543,torte-q,2020.1.3,MacIntel,60,12720,,,,,,,,,,,,,,0,6,6,27,1,,,,,,,,,,,,,,,,,,,,,,,,,,
,,,,,,,,,,,,a,0.934075,Incorrect,,,,,,t3.png,t5.png,2,0.056466,20,Male,2020-11-06_11h00.09.543,torte-q,2020.1.3,MacIntel,60,12720,,,,,,,,,,,,,,0,7,7,44,1,,,,,,,,,,,,,,,,,,,,,,,,,,
,,,,,,,,,,,,a,1.11887,Incorrect,,,,,,t3.png,t5.png,2,0.056466,20,Male,2020-11-06_11h00.09.543,torte-q,2020.1.3,MacIntel,60,12720,,,,,,,,,,,,,,0,8,8,14,1,,,,,,,,,,,,,,,,,,,,,,,,,,
,,,,,,,,,,,,l,1.30184,Correct!,,,,,,t2.png,t4.png,2,0.059078,20,Male,2020-11-06_11h00.09.543,torte-q,2020.1.3,MacIntel,60,12720,,,,,,,,,,,,,,0,9,9,37,1,,,,,,,,,,,,,,,,,,,,,,,,,,
,,,,,,,,,,,,l,1.534745,Correct!,,,,,,t1.png,t3.png,2,0.056466,20,Male,2020-11-06_11h00.09.543,torte-q,2020.1.3,MacIntel,60,12720,,,,,,,,,,,,,,0,10,10,99,1,,,,,,,,,,,,,,,,,,,,,,,,,,
,,,,,,,,,,,,l,1.65151,Incorrect,,,,,,t3.png,t4.png,1,0.90855,20,Male,2020-11-06_11h00.09.543,torte-q,2020.1.3,MacIntel,60,12720,,,,,,,,,,,,,,0,11,11,84,1,,,,,,,,,,,,,,,,,,,,,,,,,,
,,,,,,,,,,,,a,1.484675,Correct!,,,,,,t5.png,t4.png,1,0.90025,20,Male,2020-11-06_11h00.09.543,torte-q,2020.1.3,MacIntel,60,12720,,,,,,,,,,,,,,0,12,12,26,1,,,,,,,,,,,,,,,,,,,,,,,,,,
,,,,,,,,,,,,a,0.987745,Incorrect,,,,,,t3.png,t1.png,2,0.056466,20,Male,2020-11-06_11h00.09.543,torte-q,2020.1.3,MacIntel,60,12720,,,,,,,,,,,,,,0,13,13,64,1,,,,,,,,,,,,,,,,,,,,,,,,,,
,,,,,,,,,,,,l,1.21804,Incorrect,,,,,,t2.png,t2.png,0,0.98115,20,Male,2020-11-06_11h00.09.543,torte-q,2020.1.3,MacIntel,60,12720,,,,,,,,,,,,,,0,14,14,57,1,,,,,,,,,,,,,,,,,,,,,,,,,,
,,,,,,,,,,,,a,0.819325,Incorrect,,,,,,t4.png,t1.png,3,0.0000131,20,Male,2020-11-06_11h00.09.543,torte-q,2020.1.3,MacIntel,60,12720,,,,,,,,,,,,,,0,15,15,48,1,,,,,,,,,,,,,,,,,,,,,,,,,,
,,,,,,,,,,,,a,1.067705,Incorrect,,,,,,t5.png,t1.png,4,9.55E-11,20,Male,2020-11-06_11h00.09.543,torte-q,2020.1.3,MacIntel,60,12720,,,,,,,,,,,,,,0,16,16,22,1,,,,,,,,,,,,,,,,,,,,,,,,,,
,,,,,,,,,,,,a,1.36768,Correct!,,,,,,t5.png,t5.png,0,0.97829,20,Male,2020-11-06_11h00.09.543,torte-q,2020.1.3,MacIntel,60,12720,,,,,,,,,,,,,,0,17,17,70,1,,,,,,,,,,,,,,,,,,,,,,,,,,
,,,,,,,,,,,,a,1.533715,Incorrect,,,,,,t3.png,t1.png,2,0.056466,20,Male,2020-11-06_11h00.09.543,torte-q,2020.1.3,MacIntel,60,12720,,,,,,,,,,,,,,0,18,18,32,1,,,,,,,,,,,,,,,,,,,,,,,,,,
,,,,,,,,,,,,l,0.902425,Incorrect,,,,,,t1.png,t1.png,0,0.97829,20,Male,2020-11-06_11h00.09.543,torte-q,2020.1.3,MacIntel,60,12720,,,,,,,,,,,,,,0,19,19,78,1,,,,,,,,,,,,,,,,,,,,,,,,,,
,,,,,,,,,,,,l,1.453365,Correct!,,,,,,t2.png,t5.png,3,0.0000131,20,Male,2020-11-06_11h00.09.543,torte-q,2020.1.3,MacIntel,60,12720,,,,,,,,,,,,,,0,20,20,40,1,,,,,,,,,,,,,,,,,,,,,,,,,,
,,,,,,,,,,,,a,1.218345,Incorrect,,,,,,t2.png,t4.png,2,0.059078,20,Male,2020-11-06_11h00.09.543,torte-q,2020.1.3,MacIntel,60,12720,,,,,,,,,,,,,,0,21,21,11,1,,,,,,,,,,,,,,,,,,,,,,,,,,
,,,,,,,,,,,,l,0.91838,Incorrect,,,,,,t2.png,t3.png,1,0.90855,20,Male,2020-11-06_11h00.09.543,torte-q,2020.1.3,MacIntel,60,12720,,,,,,,,,,,,,,0,22,22,68,1,,,,,,,,,,,,,,,,,,,,,,,,,,
,,,,,,,,,,,,l,1.338625,Correct!,,,,,,t1.png,t5.png,4,9.55E-11,20,Male,2020-11-06_11h00.09.543,torte-q,2020.1.3,MacIntel,60,12720,,,,,,,,,,,,,,0,23,23,16,1,,,,,,,,,,,,,,,,,,,,,,,,,,
,,,,,,,,,,,,a,0.9177,Correct!,,,,,,t4.png,t3.png,1,0.909,20,Male,2020-11-06_11h00.09.543,torte-q,2020.1.3,MacIntel,60,12720,,,,,,,,,,,,,,0,24,24,46,1,,,,,,,,,,,,,,,,,,,,,,,,,,
,,,,,,,,,,,,a,0.998995,Correct!,,,,,,t4.png,t5.png,1,0.90025,20,Male,2020-11-06_11h00.09.543,torte-q,2020.1.3,MacIntel,60,12720,,,,,,,,,,,,,,0,25,25,58,1,,,,,,,,,,,,,,,,,,,,,,,,,,
,,,,,,,,,,,,l,0.98611,Correct!,,,,,,t1.png,t5.png,4,9.55E-11,20,Male,2020-11-06_11h00.09.543,torte-q,2020.1.3,MacIntel,60,12720,,,,,,,,,,,,,,0,26,26,55,1,,,,,,,,,,,,,,,,,,,,,,,,,,
,,,,,,,,,,,,a,1.33369,Incorrect,,,,,,t1.png,t3.png,2,0.056466,20,Male,2020-11-06_11h00.09.543,torte-q,2020.1.3,MacIntel,60,12720,,,,,,,,,,,,,,0,27,27,63,1,,,,,,,,,,,,,,,,,,,,,,,,,,
,,,,,,,,,,,,l,0.95046,Correct!,,,,,,t2.png,t5.png,3,0.0000131,20,Male,2020-11-06_11h00.09.543,torte-q,2020.1.3,MacIntel,60,12720,,,,,,,,,,,,,,0,28,28,104,1,,,,,,,,,,,,,,,,,,,,,,,,,,
,,,,,,,,,,,,l,0.833955,Correct!,,,,,,t1.png,t5.png,4,9.55E-11,20,Male,2020-11-06_11h00.09.543,torte-q,2020.1.3,MacIntel,60,12720,,,,,,,,,,,,,,0,29,29,85,1,,,,,,,,,,,,,,,,,,,,,,,,,,
,,,,,,,,,,,,l,0.937655,Correct!,,,,,,t4.png,t1.png,3,0.0000131,20,Male,2020-11-06_11h00.09.543,torte-q,2020.1.3,MacIntel,60,12720,,,,,,,,,,,,,,0,30,30,42,1,,,,,,,,,,,,,,,,,,,,,,,,,,
,,,,,,,,,,,,l,1.334185,Incorrect,,,,,,t2.png,t1.png,1,0.90025,20,Male,2020-11-06_11h00.09.543,torte-q,2020.1.3,MacIntel,60,12720,,,,,,,,,,,,,,0,31,31,19,1,,,,,,,,,,,,,,,,,,,,,,,,,,
,,,,,,,,,,,,l,0.73891,Incorrect,,,,,,t3.png,t4.png,1,0.909,20,Male,2020-11-06_11h00.09.543,torte-q,2020.1.3,MacIntel,60,12720,,,,,,,,,,,,,,0,32,32,82,1,,,,,,,,,,,,,,,,,,,,,,,,,,
,,,,,,,,,,,,l,1.551615,Correct!,,,,,,t4.png,t2.png,2,0.059078,20,Male,2020-11-06_11h00.09.543,torte-q,2020.1.3,MacIntel,60,12720,,,,,,,,,,,,,,0,33,33,110,1,,,,,,,,,,,,,,,,,,,,,,,,,,
,,,,,,,,,,,,a,0.71782,Incorrect,,,,,,t4.png,t1.png,3,0.0000131,20,Male,2020-11-06_11h00.09.543,torte-q,2020.1.3,MacIntel,60,12720,,,,,,,,,,,,,,0,34,34,93,1,,,,,,,,,,,,,,,,,,,,,,,,,,
,,,,,,,,,,,,a,0.68412,Incorrect,,,,,,t4.png,t1.png,3,0.0000131,20,Male,2020-11-06_11h00.09.543,torte-q,2020.1.3,MacIntel,60,12720,,,,,,,,,,,,,,0,35,35,61,1,,,,,,,,,,,,,,,,,,,,,,,,,,
,,,,,,,,,,,,l,1.351105,Incorrect,,,,,,t5.png,t4.png,1,0.90025,20,Male,2020-11-06_11h00.09.543,torte-q,2020.1.3,MacIntel,60,12720,,,,,,,,,,,,,,0,36,36,34,1,,,,,,,,,,,,,,,,,,,,,,,,,,
,,,,,,,,,,,,a,1.62171,Correct!,,,,,,t2.png,t3.png,1,0.90855,20,Male,2020-11-06_11h00.09.543,torte-q,2020.1.3,MacIntel,60,12720,,,,,,,,,,,,,,0,37,37,65,1,,,,,,,,,,,,,,,,,,,,,,,,,,
,,,,,,,,,,,,a,1.167845,Correct!,,,,,,t4.png,t4.png,0,0.98115,20,Male,2020-11-06_11h00.09.543,torte-q,2020.1.3,MacIntel,60,12720,,,,,,,,,,,,,,0,38,38,79,1,,,,,,,,,,,,,,,,,,,,,,,,,,
,,,,,,,,,,,,a,1.317745,Incorrect,,,,,,t3.png,t5.png,2,0.0565,20,Male,2020-11-06_11h00.09.543,torte-q,2020.1.3,MacIntel,60,12720,,,,,,,,,,,,,,0,39,39,30,1,,,,,,,,,,,,,,,,,,,,,,,,,,
,,,,,,,,,,,,a,0.987115,Incorrect,,,,,,t3.png,t5.png,2,0.056466,20,Male,2020-11-06_11h00.09.543,torte-q,2020.1.3,MacIntel,60,12720,,,,,,,,,,,,,,0,40,40,6,1,,,,,,,,,,,,,,,,,,,,,,,,,,
,,,,,,,,,,,,l,0.834175,Incorrect,,,,,,t1.png,t1.png,0,0.97829,20,Male,2020-11-06_11h00.09.543,torte-q,2020.1.3,MacIntel,60,12720,,,,,,,,,,,,,,0,41,41,9,1,,,,,,,,,,,,,,,,,,,,,,,,,,
,,,,,,,,,,,,l,1.384045,Correct!,,,,,,t5.png,t1.png,4,9.55E-11,20,Male,2020-11-06_11h00.09.543,torte-q,2020.1.3,MacIntel,60,12720,,,,,,,,,,,,,,0,42,42,71,1,,,,,,,,,,,,,,,,,,,,,,,,,,
,,,,,,,,,,,,a,1.25054,Incorrect,,,,,,t1.png,t3.png,2,0.056466,20,Male,2020-11-06_11h00.09.543,torte-q,2020.1.3,MacIntel,60,12720,,,,,,,,,,,,,,0,43,43,69,1,,,,,,,,,,,,,,,,,,,,,,,,,,
,,,,,,,,,,,,a,1.016685,Incorrect,,,,,,t4.png,t1.png,3,0.0000131,20,Male,2020-11-06_11h00.09.543,torte-q,2020.1.3,MacIntel,60,12720,,,,,,,,,,,,,,0,44,44,13,1,,,,,,,,,,,,,,,,,,,,,,,,,,
,,,,,,,,,,,,l,0.71636,Incorrect,,,,,,t3.png,t1.png,2,0.056466,20,Male,2020-11-06_11h00.09.543,torte-q,2020.1.3,MacIntel,60,12720,,,,,,,,,,,,,,0,45,45,29,1,,,,,,,,,,,,,,,,,,,,,,,,,,
,,,,,,,,,,,,l,0.820085,Incorrect,,,,,,t3.png,t2.png,1,0.90855,20,Male,2020-11-06_11h00.09.543,torte-q,2020.1.3,MacIntel,60,12720,,,,,,,,,,,,,,0,46,46,97,1,,,,,,,,,,,,,,,,,,,,,,,,,,
,,,,,,,,,,,,a,1.11835,Incorrect,,,,,,t4.png,t2.png,2,0.0591,20,Male,2020-11-06_11h00.09.543,torte-q,2020.1.3,MacIntel,60,12720,,,,,,,,,,,,,,0,47,47,36,1,,,,,,,,,,,,,,,,,,,,,,,,,,
,,,,,,,,,,,,l,0.80404,Incorrect,,,,,,t2.png,t2.png,0,0.98115,20,Male,2020-11-06_11h00.09.543,torte-q,2020.1.3,MacIntel,60,12720,,,,,,,,,,,,,,0,48,48,7,1,,,,,,,,,,,,,,,,,,,,,,,,,,
,,,,,,,,,,,,l,1.534175,Correct!,,,,,,t2.png,t4.png,2,0.059078,20,Male,2020-11-06_11h00.09.543,torte-q,2020.1.3,MacIntel,60,12720,,,,,,,,,,,,,,0,49,49,24,1,,,,,,,,,,,,,,,,,,,,,,,,,,
,,,,,,,,,,,,l,2.000805,Correct!,,,,,,t1.png,t4.png,3,0.0000131,20,Male,2020-11-06_11h00.09.543,torte-q,2020.1.3,MacIntel,60,12720,,,,,,,,,,,,,,0,50,50,17,1,,,,,,,,,,,,,,,,,,,,,,,,,,
,,,,,,,,,,,,l,0.934515,Incorrect,,,,,,t1.png,t1.png,0,0.978,20,Male,2020-11-06_11h00.09.543,torte-q,2020.1.3,MacIntel,60,12720,,,,,,,,,,,,,,0,51,51,54,1,,,,,,,,,,,,,,,,,,,,,,,,,,
,,,,,,,,,,,,a,0.66742,Correct!,,,,,,t4.png,t4.png,0,0.98115,20,Male,2020-11-06_11h00.09.543,torte-q,2020.1.3,MacIntel,60,12720,,,,,,,,,,,,,,0,52,52,80,1,,,,,,,,,,,,,,,,,,,,,,,,,,
,,,,,,,,,,,,a,1.38393,Correct!,,,,,,t5.png,t5.png,0,0.97829,20,Male,2020-11-06_11h00.09.543,torte-q,2020.1.3,MacIntel,60,12720,,,,,,,,,,,,,,0,53,53,25,1,,,,,,,,,,,,,,,,,,,,,,,,,,
,,,,,,,,,,,,l,1.1503,Incorrect,,,,,,t2.png,t3.png,1,0.90855,20,Male,2020-11-06_11h00.09.543,torte-q,2020.1.3,MacIntel,60,12720,,,,,,,,,,,,,,0,54,54,111,1,,,,,,,,,,,,,,,,,,,,,,,,,,
,,,,,,,,,,,,l,0.90559,Incorrect,,,,,,t2.png,t1.png,1,0.90025,20,Male,2020-11-06_11h00.09.543,torte-q,2020.1.3,MacIntel,60,12720,,,,,,,,,,,,,,0,55,55,62,1,,,,,,,,,,,,,,,,,,,,,,,,,,
,,,,,,,,,,,,a,1.35095,Correct!,,,,,,t5.png,t3.png,2,0.056466,20,Male,2020-11-06_11h00.09.543,torte-q,2020.1.3,MacIntel,60,12720,,,,,,,,,,,,,,0,56,56,114,1,,,,,,,,,,,,,,,,,,,,,,,,,,
,,,,,,,,,,,,a,1.29992,Correct!,,,,,,t3.png,t4.png,1,0.909,20,Male,2020-11-06_11h00.09.543,torte-q,2020.1.3,MacIntel,60,12720,,,,,,,,,,,,,,0,57,57,106,1,,,,,,,,,,,,,,,,,,,,,,,,,,
,,,,,,,,,,,,l,1.100985,Correct!,,,,,,t3.png,t1.png,2,0.056466,20,Male,2020-11-06_11h00.09.543,torte-q,2020.1.3,MacIntel,60,12720,,,,,,,,,,,,,,0,58,58,0,1,,,,,,,,,,,,,,,,,,,,,,,,,,
,,,,,,,,,,,,a,1.27104,Correct!,,,,,,t2.png,t3.png,1,0.90855,20,Male,2020-11-06_11h00.09.543,torte-q,2020.1.3,MacIntel,60,12720,,,,,,,,,,,,,,0,59,59,10,1,,,,,,,,,,,,,,,,,,,,,,,,,,
,,,,,,,,,,,,a,0.98317,Incorrect,,,,,,t2.png,t4.png,2,0.0591,20,Male,2020-11-06_11h00.09.543,torte-q,2020.1.3,MacIntel,60,12720,,,,,,,,,,,,,,0,60,60,15,1,,,,,,,,,,,,,,,,,,,,,,,,,,
,,,,,,,,,,,,l,1.683755,Correct!,,,,,,t5.png,t1.png,4,9.55E-11,20,Male,2020-11-06_11h00.09.543,torte-q,2020.1.3,MacIntel,60,12720,,,,,,,,,,,,,,0,61,61,43,1,,,,,,,,,,,,,,,,,,,,,,,,,,
,,,,,,,,,,,,a,1.152325,Correct!,,,,,,t5.png,t5.png,0,0.97829,20,Male,2020-11-06_11h00.09.543,torte-q,2020.1.3,MacIntel,60,12720,,,,,,,,,,,,,,0,62,62,73,1,,,,,,,,,,,,,,,,,,,,,,,,,,
,,,,,,,,,,,,a,1.16707,Incorrect,,,,,,t1.png,t5.png,4,9.55E-11,20,Male,2020-11-06_11h00.09.543,torte-q,2020.1.3,MacIntel,60,12720,,,,,,,,,,,,,,0,63,63,12,1,,,,,,,,,,,,,,,,,,,,,,,,,,
,,,,,,,,,,,,a,1.06902,Correct!,,,,,,t2.png,t1.png,1,0.90025,20,Male,2020-11-06_11h00.09.543,torte-q,2020.1.3,MacIntel,60,12720,,,,,,,,,,,,,,0,64,64,5,1,,,,,,,,,,,,,,,,,,,,,,,,,,
,,,,,,,,,,,,l,1.734205,Correct!,,,,,,t2.png,t5.png,3,0.0000131,20,Male,2020-11-06_11h00.09.543,torte-q,2020.1.3,MacIntel,60,12720,,,,,,,,,,,,,,0,65,65,8,1,,,,,,,,,,,,,,,,,,,,,,,,,,
,,,,,,,,,,,,l,1.101075,Incorrect,,,,,,t3.png,t2.png,1,0.909,20,Male,2020-11-06_11h00.09.543,torte-q,2020.1.3,MacIntel,60,12720,,,,,,,,,,,,,,0,66,66,23,1,,,,,,,,,,,,,,,,,,,,,,,,,,
,,,,,,,,,,,,l,2.000545,Incorrect,,,,,,t1.png,t2.png,1,0.90025,20,Male,2020-11-06_11h00.09.543,torte-q,2020.1.3,MacIntel,60,12720,,,,,,,,,,,,,,0,67,67,112,1,,,,,,,,,,,,,,,,,,,,,,,,,,
,,,,,,,,,,,,l,1.46754,Incorrect,,,,,,t2.png,t3.png,1,0.909,20,Male,2020-11-06_11h00.09.543,torte-q,2020.1.3,MacIntel,60,12720,,,,,,,,,,,,,,0,68,68,74,1,,,,,,,,,,,,,,,,,,,,,,,,,,
,,,,,,,,,,,,a,1.717415,Incorrect,,,,,,t3.png,t5.png,2,0.0565,20,Male,2020-11-06_11h00.09.543,torte-q,2020.1.3,MacIntel,60,12720,,,,,,,,,,,,,,0,69,69,83,1,,,,,,,,,,,,,,,,,,,,,,,,,,
,,,,,,,,,,,,a,1.20108,Correct!,,,,,,t5.png,t4.png,1,0.9,20,Male,2020-11-06_11h00.09.543,torte-q,2020.1.3,MacIntel,60,12720,,,,,,,,,,,,,,0,70,70,49,1,,,,,,,,,,,,,,,,,,,,,,,,,,
,,,,,,,,,,,,l,1.36806,Correct!,,,,,,t1.png,t5.png,4,9.55E-11,20,Male,2020-11-06_11h00.09.543,torte-q,2020.1.3,MacIntel,60,12720,,,,,,,,,,,,,,0,71,71,41,1,,,,,,,,,,,,,,,,,,,,,,,,,,
,,,,,,,,,,,,l,1.0184,Incorrect,,,,,,t1.png,t2.png,1,0.90025,20,Male,2020-11-06_11h00.09.543,torte-q,2020.1.3,MacIntel,60,12720,,,,,,,,,,,,,,0,72,72,33,1,,,,,,,,,,,,,,,,,,,,,,,,,,
,,,,,,,,,,,,a,2.068405,Incorrect,,,,,,t2.png,t1.png,1,0.9,20,Male,2020-11-06_11h00.09.543,torte-q,2020.1.3,MacIntel,60,12720,,,,,,,,,,,,,,0,73,73,118,1,,,,,,,,,,,,,,,,,,,,,,,,,,
,,,,,,,,,,,,l,1.13779,Incorrect,,,,,,t5.png,t5.png,0,0.978,20,Male,2020-11-06_11h00.09.543,torte-q,2020.1.3,MacIntel,60,12720,,,,,,,,,,,,,,0,74,74,117,1,,,,,,,,,,,,,,,,,,,,,,,,,,
,,,,,,,,,,,,l,1.03467,Incorrect,,,,,,t2.png,t1.png,1,0.90025,20,Male,2020-11-06_11h00.09.543,torte-q,2020.1.3,MacIntel,60,12720,,,,,,,,,,,,,,0,75,75,4,1,,,,,,,,,,,,,,,,,,,,,,,,,,
,,,,,,,,,,,,a,1.051185,Correct!,,,,,,t4.png,t4.png,0,0.98115,20,Male,2020-11-06_11h00.09.543,torte-q,2020.1.3,MacIntel,60,12720,,,,,,,,,,,,,,0,76,76,52,1,,,,,,,,,,,,,,,,,,,,,,,,,,
,,,,,,,,,,,,l,1.033425,Incorrect,,,,,,t1.png,t2.png,1,0.9,20,Male,2020-11-06_11h00.09.543,torte-q,2020.1.3,MacIntel,60,12720,,,,,,,,,,,,,,0,77,77,1,1,,,,,,,,,,,,,,,,,,,,,,,,,,
,,,,,,,,,,,,a,0.91737,Correct!,,,,,,t4.png,t5.png,1,0.9,20,Male,2020-11-06_11h00.09.543,torte-q,2020.1.3,MacIntel,60,12720,,,,,,,,,,,,,,0,78,78,115,1,,,,,,,,,,,,,,,,,,,,,,,,,,
,,,,,,,,,,,,l,1.86745,Correct!,,,,,,t1.png,t2.png,1,0.90025,20,Male,2020-11-06_11h00.09.543,torte-q,2020.1.3,MacIntel,60,12720,,,,,,,,,,,,,,0,79,79,105,1,,,,,,,,,,,,,,,,,,,,,,,,,,
,,,,,,,,,,,,a,0.688305,Correct!,,,,,,t4.png,t4.png,0,0.98115,20,Male,2020-11-06_11h00.09.543,torte-q,2020.1.3,MacIntel,60,12720,,,,,,,,,,,,,,0,80,80,21,1,,,,,,,,,,,,,,,,,,,,,,,,,,
,,,,,,,,,,,,a,0.73445,Correct!,,,,,,t4.png,t5.png,1,0.90025,20,Male,2020-11-06_11h00.09.543,torte-q,2020.1.3,MacIntel,60,12720,,,,,,,,,,,,,,0,81,81,113,1,,,,,,,,,,,,,,,,,,,,,,,,,,
,,,,,,,,,,,,l,1.301065,Correct!,,,,,,t5.png,t3.png,2,0.056466,20,Male,2020-11-06_11h00.09.543,torte-q,2020.1.3,MacIntel,60,12720,,,,,,,,,,,,,,0,82,82,108,1,,,,,,,,,,,,,,,,,,,,,,,,,,
,,,,,,,,,,,,a,0.78381,Incorrect,,,,,,t4.png,t2.png,2,0.059078,20,Male,2020-11-06_11h00.09.543,torte-q,2020.1.3,MacIntel,60,12720,,,,,,,,,,,,,,0,83,83,86,1,,,,,,,,,,,,,,,,,,,,,,,,,,
,,,,,,,,,,,,a,0.884805,Correct!,,,,,,t5.png,t3.png,2,0.0565,20,Male,2020-11-06_11h00.09.543,torte-q,2020.1.3,MacIntel,60,12720,,,,,,,,,,,,,,0,84,84,39,1,,,,,,,,,,,,,,,,,,,,,,,,,,
,,,,,,,,,,,,a,0.83531,Correct!,,,,,,t4.png,t5.png,1,0.90025,20,Male,2020-11-06_11h00.09.543,torte-q,2020.1.3,MacIntel,60,12720,,,,,,,,,,,,,,0,85,85,47,1,,,,,,,,,,,,,,,,,,,,,,,,,,
,,,,,,,,,,,,a,0.9019,Incorrect,,,,,,t3.png,t4.png,1,0.90855,20,Male,2020-11-06_11h00.09.543,torte-q,2020.1.3,MacIntel,60,12720,,,,,,,,,,,,,,0,86,86,96,1,,,,,,,,,,,,,,,,,,,,,,,,,,
,,,,,,,,,,,,a,1.30068,Correct!,,,,,,t2.png,t2.png,0,0.981,20,Male,2020-11-06_11h00.09.543,torte-q,2020.1.3,MacIntel,60,12720,,,,,,,,,,,,,,0,87,87,101,1,,,,,,,,,,,,,,,,,,,,,,,,,,
,,,,,,,,,,,,a,1.05181,Correct!,,,,,,t5.png,t4.png,1,0.9,20,Male,2020-11-06_11h00.09.543,torte-q,2020.1.3,MacIntel,60,12720,,,,,,,,,,,,,,0,88,88,76,1,,,,,,,,,,,,,,,,,,,,,,,,,,
,,,,,,,,,,,,a,1.216675,Incorrect,,,,,,t5.png,t2.png,3,0.0000131,20,Male,2020-11-06_11h00.09.543,torte-q,2020.1.3,MacIntel,60,12720,,,,,,,,,,,,,,0,89,89,116,1,,,,,,,,,,,,,,,,,,,,,,,,,,
,,,,,,,,,,,,l,0.88544,Incorrect,,,,,,t2.png,t2.png,0,0.98115,20,Male,2020-11-06_11h00.09.543,torte-q,2020.1.3,MacIntel,60,12720,,,,,,,,,,,,,,0,90,90,2,1,,,,,,,,,,,,,,,,,,,,,,,,,,
,,,,,,,,,,,,l,0.91869,Correct!,,,,,,t3.png,t1.png,2,0.0565,20,Male,2020-11-06_11h00.09.543,torte-q,2020.1.3,MacIntel,60,12720,,,,,,,,,,,,,,0,91,91,31,1,,,,,,,,,,,,,,,,,,,,,,,,,,
,,,,,,,,,,,,a,2.13722,Correct!,,,,,,t5.png,t5.png,0,0.97829,20,Male,2020-11-06_11h00.09.543,torte-q,2020.1.3,MacIntel,60,12720,,,,,,,,,,,,,,0,92,92,94,1,,,,,,,,,,,,,,,,,,,,,,,,,,
,,,,,,,,,,,,l,0.934155,Correct!,,,,,,t1.png,t2.png,1,0.90025,20,Male,2020-11-06_11h00.09.543,torte-q,2020.1.3,MacIntel,60,12720,,,,,,,,,,,,,,0,93,93,72,1,,,,,,,,,,,,,,,,,,,,,,,,,,
,,,,,,,,,,,,l,1.055545,Correct!,,,,,,t5.png,t2.png,3,0.0000131,20,Male,2020-11-06_11h00.09.543,torte-q,2020.1.3,MacIntel,60,12720,,,,,,,,,,,,,,0,94,94,119,1,,,,,,,,,,,,,,,,,,,,,,,,,,
,,,,,,,,,,,,a,0.70103,Incorrect,,,,,,t4.png,t2.png,2,0.059078,20,Male,2020-11-06_11h00.09.543,torte-q,2020.1.3,MacIntel,60,12720,,,,,,,,,,,,,,0,95,95,109,1,,,,,,,,,,,,,,,,,,,,,,,,,,
,,,,,,,,,,,,a,1.363475,Correct!,,,,,,t1.png,t1.png,0,0.97829,20,Male,2020-11-06_11h00.09.543,torte-q,2020.1.3,MacIntel,60,12720,,,,,,,,,,,,,,0,96,96,67,1,,,,,,,,,,,,,,,,,,,,,,,,,,
,,,,,,,,,,,,a,1.20199,Incorrect,,,,,,t5.png,t2.png,3,0.0000131,20,Male,2020-11-06_11h00.09.543,torte-q,2020.1.3,MacIntel,60,12720,,,,,,,,,,,,,,0,97,97,51,1,,,,,,,,,,,,,,,,,,,,,,,,,,
,,,,,,,,,,,,l,0.78442,Correct!,,,,,,t1.png,t1.png,0,0.978,20,Male,2020-11-06_11h00.09.543,torte-q,2020.1.3,MacIntel,60,12720,,,,,,,,,,,,,,0,98,98,28,1,,,,,,,,,,,,,,,,,,,,,,,,,,
,,,,,,,,,,,,l,0.86778,Incorrect,,,,,,t2.png,t2.png,0,0.98115,20,Male,2020-11-06_11h00.09.543,torte-q,2020.1.3,MacIntel,60,12720,,,,,,,,,,,,,,0,99,99,59,1,,,,,,,,,,,,,,,,,,,,,,,,,,
,,,,,,,,,,,,l,0.98474,Correct!,,,,,,t1.png,t4.png,3,0.0000131,20,Male,2020-11-06_11h00.09.543,torte-q,2020.1.3,MacIntel,60,12720,,,,,,,,,,,,,,0,100,100,92,1,,,,,,,,,,,,,,,,,,,,,,,,,,
,,,,,,,,,,,,a,1.183975,Incorrect,,,,,,t5.png,t2.png,3,0.0000131,20,Male,2020-11-06_11h00.09.543,torte-q,2020.1.3,MacIntel,60,12720,,,,,,,,,,,,,,0,101,101,98,1,,,,,,,,,,,,,,,,,,,,,,,,,,
,,,,,,,,,,,,a,0.75193,Incorrect,,,,,,t4.png,t2.png,2,0.059078,20,Male,2020-11-06_11h00.09.543,torte-q,2020.1.3,MacIntel,60,12720,,,,,,,,,,,,,,0,102,102,88,1,,,,,,,,,,,,,,,,,,,,,,,,,,
,,,,,,,,,,,,l,0.83568,Incorrect,,,,,,t3.png,t2.png,1,0.90855,20,Male,2020-11-06_11h00.09.543,torte-q,2020.1.3,MacIntel,60,12720,,,,,,,,,,,,,,0,103,103,53,1,,,,,,,,,,,,,,,,,,,,,,,,,,
,,,,,,,,,,,,a,0.88425,Incorrect,,,,,,t5.png,t3.png,2,0.056466,20,Male,2020-11-06_11h00.09.543,torte-q,2020.1.3,MacIntel,60,12720,,,,,,,,,,,,,,0,104,104,38,1,,,,,,,,,,,,,,,,,,,,,,,,,,
,,,,,,,,,,,,a,1.438245,Incorrect,,,,,,t2.png,t5.png,3,0.0000131,20,Male,2020-11-06_11h00.09.543,torte-q,2020.1.3,MacIntel,60,12720,,,,,,,,,,,,,,0,105,105,66,1,,,,,,,,,,,,,,,,,,,,,,,,,,
,,,,,,,,,,,,a,1.084235,Incorrect,,,,,,t5.png,t3.png,2,0.056466,20,Male,2020-11-06_11h00.09.543,torte-q,2020.1.3,MacIntel,60,12720,,,,,,,,,,,,,,0,106,106,56,1,,,,,,,,,,,,,,,,,,,,,,,,,,
,,,,,,,,,,,,l,0.936095,Incorrect,,,,,,t3.png,t2.png,1,0.90855,20,Male,2020-11-06_11h00.09.543,torte-q,2020.1.3,MacIntel,60,12720,,,,,,,,,,,,,,0,107,107,18,1,,,,,,,,,,,,,,,,,,,,,,,,,,
,,,,,,,,,,,,a,0.737005,Incorrect,,,,,,t5.png,t1.png,4,9.55E-11,20,Male,2020-11-06_11h00.09.543,torte-q,2020.1.3,MacIntel,60,12720,,,,,,,,,,,,,,0,108,108,100,1,,,,,,,,,,,,,,,,,,,,,,,,,,
,,,,,,,,,,,,a,0.70091,Correct!,,,,,,t4.png,t3.png,1,0.90855,20,Male,2020-11-06_11h00.09.543,torte-q,2020.1.3,MacIntel,60,12720,,,,,,,,,,,,,,0,109,109,75,1,,,,,,,,,,,,,,,,,,,,,,,,,,
,,,,,,,,,,,,l,0.900115,Correct!,,,,,,t1.png,t3.png,2,0.056466,20,Male,2020-11-06_11h00.09.543,torte-q,2020.1.3,MacIntel,60,12720,,,,,,,,,,,,,,0,110,110,60,1,,,,,,,,,,,,,,,,,,,,,,,,,,
,,,,,,,,,,,,a,1.283955,Incorrect,,,,,,t1.png,t4.png,3,0.0000131,20,Male,2020-11-06_11h00.09.543,torte-q,2020.1.3,MacIntel,60,12720,,,,,,,,,,,,,,0,111,111,50,1,,,,,,,,,,,,,,,,,,,,,,,,,,
,,,,,,,,,,,,l,1.018105,Incorrect,,,,,,t3.png,t2.png,1,0.909,20,Male,2020-11-06_11h00.09.543,torte-q,2020.1.3,MacIntel,60,12720,,,,,,,,,,,,,,0,112,112,3,1,,,,,,,,,,,,,,,,,,,,,,,,,,
,,,,,,,,,,,,a,0.73803,Correct!,,,,,,t4.png,t4.png,0,0.98115,20,Male,2020-11-06_11h00.09.543,torte-q,2020.1.3,MacIntel,60,12720,,,,,,,,,,,,,,0,113,113,90,1,,,,,,,,,,,,,,,,,,,,,,,,,,
,,,,,,,,,,,,a,0.784245,Correct!,,,,,,t4.png,t3.png,1,0.90855,20,Male,2020-11-06_11h00.09.543,torte-q,2020.1.3,MacIntel,60,12720,,,,,,,,,,,,,,0,114,114,45,1,,,,,,,,,,,,,,,,,,,,,,,,,,
,,,,,,,,,,,,,,Too slow :(,,,,,,t5.png,t2.png,3,0.0000131,20,Male,2020-11-06_11h00.09.543,torte-q,2020.1.3,MacIntel,60,12720,,,,,,,,,,,,,,0,115,115,91,1,,,,,,,,,,,,,,,,,,,,,,,,,,
,,,,,,,,,,,,a,0.93429,Correct!,,,,,,t3.png,t4.png,1,0.909,20,Male,2020-11-06_11h00.09.543,torte-q,2020.1.3,MacIntel,60,12720,,,,,,,,,,,,,,0,116,116,89,1,,,,,,,,,,,,,,,,,,,,,,,,,,
,,,,,,,,,,,,a,0.81732,Correct!,,,,,,t4.png,t5.png,1,0.90025,20,Male,2020-11-06_11h00.09.543,torte-q,2020.1.3,MacIntel,60,12720,,,,,,,,,,,,,,0,117,117,103,1,,,,,,,,,,,,,,,,,,,,,,,,,,
,,,,,,,,,,,,a,0.667945,Correct!,,,,,,t4.png,t3.png,1,0.90855,20,Male,2020-11-06_11h00.09.543,torte-q,2020.1.3,MacIntel,60,12720,,,,,,,,,,,,,,0,118,118,35,1,,,,,,,,,,,,,,,,,,,,,,,,,,
,,,,,,,,,,,,a,1.41806,Incorrect,,,,,,t1.png,t4.png,3,0.0000131,20,Male,2020-11-06_11h00.09.543,torte-q,2020.1.3,MacIntel,60,12720,,,,,,,,,,,,,,0,119,119,81,1,,,,,,,,,,,,,,,,,,,,,,,,,,
,,,,,,,,,,,,,,,,,,,,,,,,20,Male,2020-11-06_11h00.09.543,torte-q,2020.1.3,MacIntel,60,12720,space,1.288345,,,,,,,,,,,,,,,,,2.981787109,4.128305,278.3828125,59.9375,1,0,0,s3,274.015625,15.6171875,1,0,0,t2,314.2226563,-114.8554688,1,0,0,proceed,space,0.582935,space,6.766935,space,0.351
