key_resp_8.keys,key_resp_8.rt,key_resp_9.keys,key_resp_9.rt,key_resp_10.keys,key_resp_10.rt,key_resp_11.keys,key_resp_11.rt,key_resp_2.keys,key_resp_2.rt,key_resp_3.keys,key_resp_3.rt,key_resp.keys,Feedback,train.thisRepN,train.thisTrialN,train.thisN,train.thisIndex,train.ran,torta_sx,torta_dx,difference,probability,age,gender,date,expName,psychopyVersion,OS,frameRate,participant,key_resp.rt,key_resp_15.keys,key_resp_15.rt,key_resp_6.keys,key_resp_6.rt,test1.thisRepN,test1.thisTrialN,test1.thisN,test1.thisIndex,test1.ran,key_resp_16.keys,key_resp_16.rt,key_resp_7.keys,key_resp_7.rt,test2.thisRepN,test2.thisTrialN,test2.thisN,test2.thisIndex,test2.ran,rating.response,rating.rt,mouse.x,mouse.y,mouse.leftButton,mouse.midButton,mouse.rightButton,mouse.clicked_name,mouse_2.x,mouse_2.y,mouse_2.leftButton,mouse_2.midButton,mouse_2.rightButton,mouse_2.clicked_name,mouse_3.x,mouse_3.y,mouse_3.leftButton,mouse_3.midButton,mouse_3.rightButton,mouse_3.clicked_name,key_resp_12.keys,key_resp_12.rt,key_resp_13.keys,key_resp_13.rt,key_resp_14.keys,key_resp_14.rt
space,11.531405,space,0.50245,space,0.412935,space,3.383925,space,6.234085,space,109.956845,,Too slow :(,0,0,0,67,1,t1.png,t5.png,4,9.55E-11,22,Female,2020-10-23_13h48.15.713,torte-q,2020.1.3,Win32,60,12773,,,,,,,,,,,,,,,,,,,,,,,,,,,,,,,,,,,,,,,,,,,,,
,,,,,,,,,,,,l,Correct!,0,1,1,5,1,t2.png,t4.png,2,0.059078,22,Female,2020-10-23_13h48.15.713,torte-q,2020.1.3,Win32,60,12773,1.534875,,,,,,,,,,,,,,,,,,,,,,,,,,,,,,,,,,,,,,,,,,,,
,,,,,,,,,,,,l,Correct!,0,2,2,54,1,t1.png,t5.png,4,9.55E-11,22,Female,2020-10-23_13h48.15.713,torte-q,2020.1.3,Win32,60,12773,1.356495,,,,,,,,,,,,,,,,,,,,,,,,,,,,,,,,,,,,,,,,,,,,
,,,,,,,,,,,,l,Correct!,0,3,3,40,1,t1.png,t5.png,4,9.55E-11,22,Female,2020-10-23_13h48.15.713,torte-q,2020.1.3,Win32,60,12773,0.899375,,,,,,,,,,,,,,,,,,,,,,,,,,,,,,,,,,,,,,,,,,,,
,,,,,,,,,,,,l,Correct!,0,4,4,3,1,t1.png,t5.png,4,9.55E-11,22,Female,2020-10-23_13h48.15.713,torte-q,2020.1.3,Win32,60,12773,0.7663,,,,,,,,,,,,,,,,,,,,,,,,,,,,,,,,,,,,,,,,,,,,
,,,,,,,,,,,,,Too slow :(,0,5,5,29,1,t5.png,t5.png,0,0.97829,22,Female,2020-10-23_13h48.15.713,torte-q,2020.1.3,Win32,60,12773,,,,,,,,,,,,,,,,,,,,,,,,,,,,,,,,,,,,,,,,,,,,,
,,,,,,,,,,,,l,Correct!,0,6,6,11,1,t1.png,t4.png,3,0.0000131,22,Female,2020-10-23_13h48.15.713,torte-q,2020.1.3,Win32,60,12773,0.75234,,,,,,,,,,,,,,,,,,,,,,,,,,,,,,,,,,,,,,,,,,,,
,,,,,,,,,,,,a,Correct!,0,7,7,8,1,t3.png,t2.png,1,0.90855,22,Female,2020-10-23_13h48.15.713,torte-q,2020.1.3,Win32,60,12773,1.53633,,,,,,,,,,,,,,,,,,,,,,,,,,,,,,,,,,,,,,,,,,,,
,,,,,,,,,,,,a,Incorrect,0,8,8,103,1,t3.png,t1.png,2,0.056466,22,Female,2020-10-23_13h48.15.713,torte-q,2020.1.3,Win32,60,12773,0.95835,,,,,,,,,,,,,,,,,,,,,,,,,,,,,,,,,,,,,,,,,,,,
,,,,,,,,,,,,l,Incorrect,0,9,9,114,1,t2.png,t3.png,1,0.90855,22,Female,2020-10-23_13h48.15.713,torte-q,2020.1.3,Win32,60,12773,0.88275,,,,,,,,,,,,,,,,,,,,,,,,,,,,,,,,,,,,,,,,,,,,
,,,,,,,,,,,,a,Correct!,0,10,10,48,1,t5.png,t5.png,0,0.97829,22,Female,2020-10-23_13h48.15.713,torte-q,2020.1.3,Win32,60,12773,1.73561,,,,,,,,,,,,,,,,,,,,,,,,,,,,,,,,,,,,,,,,,,,,
,,,,,,,,,,,,,Too slow :(,0,11,11,101,1,t4.png,t5.png,1,0.90025,22,Female,2020-10-23_13h48.15.713,torte-q,2020.1.3,Win32,60,12773,,,,,,,,,,,,,,,,,,,,,,,,,,,,,,,,,,,,,,,,,,,,,
,,,,,,,,,,,,l,Correct!,0,12,12,55,1,t2.png,t4.png,2,0.059078,22,Female,2020-10-23_13h48.15.713,torte-q,2020.1.3,Win32,60,12773,0.83326,,,,,,,,,,,,,,,,,,,,,,,,,,,,,,,,,,,,,,,,,,,,
,,,,,,,,,,,,l,Correct!,0,13,13,9,1,t4.png,t5.png,1,0.9,22,Female,2020-10-23_13h48.15.713,torte-q,2020.1.3,Win32,60,12773,1.499485,,,,,,,,,,,,,,,,,,,,,,,,,,,,,,,,,,,,,,,,,,,,
,,,,,,,,,,,,a,Correct!,0,14,14,76,1,t3.png,t2.png,1,0.90855,22,Female,2020-10-23_13h48.15.713,torte-q,2020.1.3,Win32,60,12773,1.407095,,,,,,,,,,,,,,,,,,,,,,,,,,,,,,,,,,,,,,,,,,,,
,,,,,,,,,,,,l,Incorrect,0,15,15,95,1,t1.png,t1.png,0,0.978,22,Female,2020-10-23_13h48.15.713,torte-q,2020.1.3,Win32,60,12773,1.470915,,,,,,,,,,,,,,,,,,,,,,,,,,,,,,,,,,,,,,,,,,,,
,,,,,,,,,,,,l,Correct!,0,16,16,49,1,t4.png,t5.png,1,0.9,22,Female,2020-10-23_13h48.15.713,torte-q,2020.1.3,Win32,60,12773,1.41998,,,,,,,,,,,,,,,,,,,,,,,,,,,,,,,,,,,,,,,,,,,,
,,,,,,,,,,,,l,Incorrect,0,17,17,20,1,t2.png,t3.png,1,0.90855,22,Female,2020-10-23_13h48.15.713,torte-q,2020.1.3,Win32,60,12773,1.002425,,,,,,,,,,,,,,,,,,,,,,,,,,,,,,,,,,,,,,,,,,,,
,,,,,,,,,,,,a,Incorrect,0,18,18,69,1,t4.png,t2.png,2,0.059078,22,Female,2020-10-23_13h48.15.713,torte-q,2020.1.3,Win32,60,12773,1.11953,,,,,,,,,,,,,,,,,,,,,,,,,,,,,,,,,,,,,,,,,,,,
,,,,,,,,,,,,l,Incorrect,0,19,19,18,1,t4.png,t5.png,1,0.90025,22,Female,2020-10-23_13h48.15.713,torte-q,2020.1.3,Win32,60,12773,1.842175,,,,,,,,,,,,,,,,,,,,,,,,,,,,,,,,,,,,,,,,,,,,
,,,,,,,,,,,,a,Correct!,0,20,20,79,1,t3.png,t2.png,1,0.909,22,Female,2020-10-23_13h48.15.713,torte-q,2020.1.3,Win32,60,12773,1.316365,,,,,,,,,,,,,,,,,,,,,,,,,,,,,,,,,,,,,,,,,,,,
,,,,,,,,,,,,l,Incorrect,0,21,21,7,1,t4.png,t5.png,1,0.90025,22,Female,2020-10-23_13h48.15.713,torte-q,2020.1.3,Win32,60,12773,1.383545,,,,,,,,,,,,,,,,,,,,,,,,,,,,,,,,,,,,,,,,,,,,
,,,,,,,,,,,,l,Correct!,0,22,22,61,1,t1.png,t4.png,3,0.0000131,22,Female,2020-10-23_13h48.15.713,torte-q,2020.1.3,Win32,60,12773,0.982935,,,,,,,,,,,,,,,,,,,,,,,,,,,,,,,,,,,,,,,,,,,,
,,,,,,,,,,,,l,Incorrect,0,23,23,25,1,t5.png,t5.png,0,0.97829,22,Female,2020-10-23_13h48.15.713,torte-q,2020.1.3,Win32,60,12773,2.070345,,,,,,,,,,,,,,,,,,,,,,,,,,,,,,,,,,,,,,,,,,,,
,,,,,,,,,,,,a,Correct!,0,24,24,107,1,t1.png,t1.png,0,0.978,22,Female,2020-10-23_13h48.15.713,torte-q,2020.1.3,Win32,60,12773,1.35703,,,,,,,,,,,,,,,,,,,,,,,,,,,,,,,,,,,,,,,,,,,,
,,,,,,,,,,,,a,Correct!,0,25,25,58,1,t5.png,t4.png,1,0.90025,22,Female,2020-10-23_13h48.15.713,torte-q,2020.1.3,Win32,60,12773,1.625635,,,,,,,,,,,,,,,,,,,,,,,,,,,,,,,,,,,,,,,,,,,,
,,,,,,,,,,,,l,Correct!,0,26,26,80,1,t1.png,t4.png,3,0.0000131,22,Female,2020-10-23_13h48.15.713,torte-q,2020.1.3,Win32,60,12773,0.917575,,,,,,,,,,,,,,,,,,,,,,,,,,,,,,,,,,,,,,,,,,,,
,,,,,,,,,,,,a,Correct!,0,27,27,59,1,t5.png,t4.png,1,0.9,22,Female,2020-10-23_13h48.15.713,torte-q,2020.1.3,Win32,60,12773,1.215725,,,,,,,,,,,,,,,,,,,,,,,,,,,,,,,,,,,,,,,,,,,,
,,,,,,,,,,,,l,Incorrect,0,28,28,77,1,t1.png,t1.png,0,0.97829,22,Female,2020-10-23_13h48.15.713,torte-q,2020.1.3,Win32,60,12773,1.175955,,,,,,,,,,,,,,,,,,,,,,,,,,,,,,,,,,,,,,,,,,,,
,,,,,,,,,,,,l,Correct!,0,29,29,14,1,t2.png,t4.png,2,0.059078,22,Female,2020-10-23_13h48.15.713,torte-q,2020.1.3,Win32,60,12773,0.806855,,,,,,,,,,,,,,,,,,,,,,,,,,,,,,,,,,,,,,,,,,,,
,,,,,,,,,,,,l,Correct!,0,30,30,37,1,t1.png,t4.png,3,0.0000131,22,Female,2020-10-23_13h48.15.713,torte-q,2020.1.3,Win32,60,12773,0.532695,,,,,,,,,,,,,,,,,,,,,,,,,,,,,,,,,,,,,,,,,,,,
,,,,,,,,,,,,l,Correct!,0,31,31,68,1,t1.png,t4.png,3,0.0000131,22,Female,2020-10-23_13h48.15.713,torte-q,2020.1.3,Win32,60,12773,0.53548,,,,,,,,,,,,,,,,,,,,,,,,,,,,,,,,,,,,,,,,,,,,
,,,,,,,,,,,,a,Correct!,0,32,32,2,1,t3.png,t2.png,1,0.90855,22,Female,2020-10-23_13h48.15.713,torte-q,2020.1.3,Win32,60,12773,0.64949,,,,,,,,,,,,,,,,,,,,,,,,,,,,,,,,,,,,,,,,,,,,
,,,,,,,,,,,,a,Correct!,0,33,33,16,1,t5.png,t4.png,1,0.9,22,Female,2020-10-23_13h48.15.713,torte-q,2020.1.3,Win32,60,12773,1.098365,,,,,,,,,,,,,,,,,,,,,,,,,,,,,,,,,,,,,,,,,,,,
,,,,,,,,,,,,l,Correct!,0,34,34,17,1,t1.png,t4.png,3,0.0000131,22,Female,2020-10-23_13h48.15.713,torte-q,2020.1.3,Win32,60,12773,0.706725,,,,,,,,,,,,,,,,,,,,,,,,,,,,,,,,,,,,,,,,,,,,
,,,,,,,,,,,,a,Incorrect,0,35,35,82,1,t5.png,t1.png,4,9.55E-11,22,Female,2020-10-23_13h48.15.713,torte-q,2020.1.3,Win32,60,12773,0.64063,,,,,,,,,,,,,,,,,,,,,,,,,,,,,,,,,,,,,,,,,,,,
,,,,,,,,,,,,a,Incorrect,0,36,36,72,1,t4.png,t2.png,2,0.059078,22,Female,2020-10-23_13h48.15.713,torte-q,2020.1.3,Win32,60,12773,0.86639,,,,,,,,,,,,,,,,,,,,,,,,,,,,,,,,,,,,,,,,,,,,
,,,,,,,,,,,,a,Correct!,0,37,37,45,1,t3.png,t2.png,1,0.90855,22,Female,2020-10-23_13h48.15.713,torte-q,2020.1.3,Win32,60,12773,1.43497,,,,,,,,,,,,,,,,,,,,,,,,,,,,,,,,,,,,,,,,,,,,
,,,,,,,,,,,,a,Incorrect,0,38,38,36,1,t3.png,t1.png,2,0.0565,22,Female,2020-10-23_13h48.15.713,torte-q,2020.1.3,Win32,60,12773,2.249605,,,,,,,,,,,,,,,,,,,,,,,,,,,,,,,,,,,,,,,,,,,,
,,,,,,,,,,,,l,Correct!,0,39,39,1,1,t2.png,t4.png,2,0.059078,22,Female,2020-10-23_13h48.15.713,torte-q,2020.1.3,Win32,60,12773,1.01614,,,,,,,,,,,,,,,,,,,,,,,,,,,,,,,,,,,,,,,,,,,,
,,,,,,,,,,,,l,Incorrect,0,40,40,10,1,t2.png,t3.png,1,0.90855,22,Female,2020-10-23_13h48.15.713,torte-q,2020.1.3,Win32,60,12773,0.79945,,,,,,,,,,,,,,,,,,,,,,,,,,,,,,,,,,,,,,,,,,,,
,,,,,,,,,,,,a,Incorrect,0,41,41,88,1,t3.png,t1.png,2,0.056466,22,Female,2020-10-23_13h48.15.713,torte-q,2020.1.3,Win32,60,12773,0.96691,,,,,,,,,,,,,,,,,,,,,,,,,,,,,,,,,,,,,,,,,,,,
,,,,,,,,,,,,l,Incorrect,0,42,42,62,1,t5.png,t5.png,0,0.978,22,Female,2020-10-23_13h48.15.713,torte-q,2020.1.3,Win32,60,12773,1.83285,,,,,,,,,,,,,,,,,,,,,,,,,,,,,,,,,,,,,,,,,,,,
,,,,,,,,,,,,a,Correct!,0,43,43,84,1,t1.png,t1.png,0,0.97829,22,Female,2020-10-23_13h48.15.713,torte-q,2020.1.3,Win32,60,12773,1.616185,,,,,,,,,,,,,,,,,,,,,,,,,,,,,,,,,,,,,,,,,,,,
,,,,,,,,,,,,l,Correct!,0,44,44,78,1,t1.png,t1.png,0,0.978,22,Female,2020-10-23_13h48.15.713,torte-q,2020.1.3,Win32,60,12773,0.803105,,,,,,,,,,,,,,,,,,,,,,,,,,,,,,,,,,,,,,,,,,,,
,,,,,,,,,,,,l,Incorrect,0,45,45,100,1,t4.png,t5.png,1,0.90025,22,Female,2020-10-23_13h48.15.713,torte-q,2020.1.3,Win32,60,12773,1.2596,,,,,,,,,,,,,,,,,,,,,,,,,,,,,,,,,,,,,,,,,,,,
,,,,,,,,,,,,l,Correct!,0,46,46,39,1,t3.png,t2.png,1,0.90855,22,Female,2020-10-23_13h48.15.713,torte-q,2020.1.3,Win32,60,12773,1.165635,,,,,,,,,,,,,,,,,,,,,,,,,,,,,,,,,,,,,,,,,,,,
,,,,,,,,,,,,,Too slow :(,0,47,47,66,1,t4.png,t5.png,1,0.9,22,Female,2020-10-23_13h48.15.713,torte-q,2020.1.3,Win32,60,12773,,,,,,,,,,,,,,,,,,,,,,,,,,,,,,,,,,,,,,,,,,,,,
,,,,,,,,,,,,a,Correct!,0,48,48,105,1,t3.png,t2.png,1,0.90855,22,Female,2020-10-23_13h48.15.713,torte-q,2020.1.3,Win32,60,12773,2.116575,,,,,,,,,,,,,,,,,,,,,,,,,,,,,,,,,,,,,,,,,,,,
,,,,,,,,,,,,l,Incorrect,0,49,49,22,1,t2.png,t3.png,1,0.90855,22,Female,2020-10-23_13h48.15.713,torte-q,2020.1.3,Win32,60,12773,0.666405,,,,,,,,,,,,,,,,,,,,,,,,,,,,,,,,,,,,,,,,,,,,
,,,,,,,,,,,,l,Correct!,0,50,50,6,1,t1.png,t4.png,3,0.0000131,22,Female,2020-10-23_13h48.15.713,torte-q,2020.1.3,Win32,60,12773,0.554025,,,,,,,,,,,,,,,,,,,,,,,,,,,,,,,,,,,,,,,,,,,,
,,,,,,,,,,,,a,Incorrect,0,51,51,50,1,t5.png,t1.png,4,9.55E-11,22,Female,2020-10-23_13h48.15.713,torte-q,2020.1.3,Win32,60,12773,0.499725,,,,,,,,,,,,,,,,,,,,,,,,,,,,,,,,,,,,,,,,,,,,
,,,,,,,,,,,,a,Incorrect,0,52,52,0,1,t5.png,t1.png,4,9.55E-11,22,Female,2020-10-23_13h48.15.713,torte-q,2020.1.3,Win32,60,12773,0.7258,,,,,,,,,,,,,,,,,,,,,,,,,,,,,,,,,,,,,,,,,,,,
,,,,,,,,,,,,l,Incorrect,0,53,53,110,1,t4.png,t5.png,1,0.90025,22,Female,2020-10-23_13h48.15.713,torte-q,2020.1.3,Win32,60,12773,0.7667,,,,,,,,,,,,,,,,,,,,,,,,,,,,,,,,,,,,,,,,,,,,
,,,,,,,,,,,,a,Correct!,0,54,54,42,1,t5.png,t4.png,1,0.90025,22,Female,2020-10-23_13h48.15.713,torte-q,2020.1.3,Win32,60,12773,0.921225,,,,,,,,,,,,,,,,,,,,,,,,,,,,,,,,,,,,,,,,,,,,
,,,,,,,,,,,,a,Incorrect,0,55,55,102,1,t4.png,t2.png,2,0.059078,22,Female,2020-10-23_13h48.15.713,torte-q,2020.1.3,Win32,60,12773,0.633035,,,,,,,,,,,,,,,,,,,,,,,,,,,,,,,,,,,,,,,,,,,,
,,,,,,,,,,,,a,Incorrect,0,56,56,53,1,t3.png,t1.png,2,0.056466,22,Female,2020-10-23_13h48.15.713,torte-q,2020.1.3,Win32,60,12773,0.69945,,,,,,,,,,,,,,,,,,,,,,,,,,,,,,,,,,,,,,,,,,,,
,,,,,,,,,,,,l,Correct!,0,57,57,91,1,t1.png,t4.png,3,0.0000131,22,Female,2020-10-23_13h48.15.713,torte-q,2020.1.3,Win32,60,12773,0.532775,,,,,,,,,,,,,,,,,,,,,,,,,,,,,,,,,,,,,,,,,,,,
,,,,,,,,,,,,a,Incorrect,0,58,58,111,1,t5.png,t1.png,4,9.55E-11,22,Female,2020-10-23_13h48.15.713,torte-q,2020.1.3,Win32,60,12773,0.72193,,,,,,,,,,,,,,,,,,,,,,,,,,,,,,,,,,,,,,,,,,,,
,,,,,,,,,,,,l,Incorrect,0,59,59,65,1,t4.png,t5.png,1,0.90025,22,Female,2020-10-23_13h48.15.713,torte-q,2020.1.3,Win32,60,12773,0.77278,,,,,,,,,,,,,,,,,,,,,,,,,,,,,,,,,,,,,,,,,,,,
,,,,,,,,,,,,l,Incorrect,0,60,60,104,1,t2.png,t3.png,1,0.90855,22,Female,2020-10-23_13h48.15.713,torte-q,2020.1.3,Win32,60,12773,0.640405,,,,,,,,,,,,,,,,,,,,,,,,,,,,,,,,,,,,,,,,,,,,
,,,,,,,,,,,,l,Incorrect,0,61,61,74,1,t5.png,t4.png,1,0.9,22,Female,2020-10-23_13h48.15.713,torte-q,2020.1.3,Win32,60,12773,1.19858,,,,,,,,,,,,,,,,,,,,,,,,,,,,,,,,,,,,,,,,,,,,
,,,,,,,,,,,,a,Correct!,0,62,62,19,1,t4.png,t2.png,2,0.059078,22,Female,2020-10-23_13h48.15.713,torte-q,2020.1.3,Win32,60,12773,0.58324,,,,,,,,,,,,,,,,,,,,,,,,,,,,,,,,,,,,,,,,,,,,
,,,,,,,,,,,,l,Correct!,0,63,63,31,1,t1.png,t5.png,4,9.55E-11,22,Female,2020-10-23_13h48.15.713,torte-q,2020.1.3,Win32,60,12773,0.858495,,,,,,,,,,,,,,,,,,,,,,,,,,,,,,,,,,,,,,,,,,,,
,,,,,,,,,,,,l,Correct!,0,64,64,89,1,t1.png,t4.png,3,0.0000131,22,Female,2020-10-23_13h48.15.713,torte-q,2020.1.3,Win32,60,12773,0.749555,,,,,,,,,,,,,,,,,,,,,,,,,,,,,,,,,,,,,,,,,,,,
,,,,,,,,,,,,l,Incorrect,0,65,65,112,1,t1.png,t1.png,0,0.97829,22,Female,2020-10-23_13h48.15.713,torte-q,2020.1.3,Win32,60,12773,1.19941,,,,,,,,,,,,,,,,,,,,,,,,,,,,,,,,,,,,,,,,,,,,
,,,,,,,,,,,,l,Correct!,0,66,66,99,1,t1.png,t5.png,4,9.55E-11,22,Female,2020-10-23_13h48.15.713,torte-q,2020.1.3,Win32,60,12773,1.343145,,,,,,,,,,,,,,,,,,,,,,,,,,,,,,,,,,,,,,,,,,,,
,,,,,,,,,,,,a,Incorrect,0,67,67,83,1,t3.png,t1.png,2,0.056466,22,Female,2020-10-23_13h48.15.713,torte-q,2020.1.3,Win32,60,12773,1.186305,,,,,,,,,,,,,,,,,,,,,,,,,,,,,,,,,,,,,,,,,,,,
,,,,,,,,,,,,l,Incorrect,0,68,68,63,1,t2.png,t3.png,1,0.909,22,Female,2020-10-23_13h48.15.713,torte-q,2020.1.3,Win32,60,12773,1.035865,,,,,,,,,,,,,,,,,,,,,,,,,,,,,,,,,,,,,,,,,,,,
,,,,,,,,,,,,a,Incorrect,0,69,69,51,1,t3.png,t1.png,2,0.056466,22,Female,2020-10-23_13h48.15.713,torte-q,2020.1.3,Win32,60,12773,0.791435,,,,,,,,,,,,,,,,,,,,,,,,,,,,,,,,,,,,,,,,,,,,
,,,,,,,,,,,,a,Incorrect,0,70,70,87,1,t5.png,t1.png,4,9.55E-11,22,Female,2020-10-23_13h48.15.713,torte-q,2020.1.3,Win32,60,12773,0.685305,,,,,,,,,,,,,,,,,,,,,,,,,,,,,,,,,,,,,,,,,,,,
,,,,,,,,,,,,a,Correct!,0,71,71,75,1,t1.png,t1.png,0,0.97829,22,Female,2020-10-23_13h48.15.713,torte-q,2020.1.3,Win32,60,12773,1.449505,,,,,,,,,,,,,,,,,,,,,,,,,,,,,,,,,,,,,,,,,,,,
,,,,,,,,,,,,l,Correct!,0,72,72,117,1,t1.png,t5.png,4,9.55E-11,22,Female,2020-10-23_13h48.15.713,torte-q,2020.1.3,Win32,60,12773,0.799875,,,,,,,,,,,,,,,,,,,,,,,,,,,,,,,,,,,,,,,,,,,,
,,,,,,,,,,,,l,Correct!,0,73,73,12,1,t5.png,t1.png,4,9.55E-11,22,Female,2020-10-23_13h48.15.713,torte-q,2020.1.3,Win32,60,12773,2.172255,,,,,,,,,,,,,,,,,,,,,,,,,,,,,,,,,,,,,,,,,,,,
,,,,,,,,,,,,l,Incorrect,0,74,74,23,1,t5.png,t4.png,1,0.90025,22,Female,2020-10-23_13h48.15.713,torte-q,2020.1.3,Win32,60,12773,2.156185,,,,,,,,,,,,,,,,,,,,,,,,,,,,,,,,,,,,,,,,,,,,
,,,,,,,,,,,,a,Incorrect,0,75,75,27,1,t3.png,t1.png,2,0.0565,22,Female,2020-10-23_13h48.15.713,torte-q,2020.1.3,Win32,60,12773,1.81544,,,,,,,,,,,,,,,,,,,,,,,,,,,,,,,,,,,,,,,,,,,,
,,,,,,,,,,,,l,Incorrect,0,76,76,64,1,t1.png,t1.png,0,0.978,22,Female,2020-10-23_13h48.15.713,torte-q,2020.1.3,Win32,60,12773,1.292885,,,,,,,,,,,,,,,,,,,,,,,,,,,,,,,,,,,,,,,,,,,,
,,,,,,,,,,,,l,Incorrect,0,77,77,46,1,t4.png,t2.png,2,0.059078,22,Female,2020-10-23_13h48.15.713,torte-q,2020.1.3,Win32,60,12773,2.240705,,,,,,,,,,,,,,,,,,,,,,,,,,,,,,,,,,,,,,,,,,,,
,,,,,,,,,,,,l,Correct!,0,78,78,60,1,t2.png,t4.png,2,0.059078,22,Female,2020-10-23_13h48.15.713,torte-q,2020.1.3,Win32,60,12773,0.723495,,,,,,,,,,,,,,,,,,,,,,,,,,,,,,,,,,,,,,,,,,,,
,,,,,,,,,,,,l,Incorrect,0,79,79,109,1,t5.png,t5.png,0,0.97829,22,Female,2020-10-23_13h48.15.713,torte-q,2020.1.3,Win32,60,12773,2.23523,,,,,,,,,,,,,,,,,,,,,,,,,,,,,,,,,,,,,,,,,,,,
,,,,,,,,,,,,a,Incorrect,0,80,80,85,1,t3.png,t2.png,1,0.90855,22,Female,2020-10-23_13h48.15.713,torte-q,2020.1.3,Win32,60,12773,1.24143,,,,,,,,,,,,,,,,,,,,,,,,,,,,,,,,,,,,,,,,,,,,
,,,,,,,,,,,,,Too slow :(,0,81,81,70,1,t5.png,t5.png,0,0.978,22,Female,2020-10-23_13h48.15.713,torte-q,2020.1.3,Win32,60,12773,,,,,,,,,,,,,,,,,,,,,,,,,,,,,,,,,,,,,,,,,,,,,
,,,,,,,,,,,,l,Incorrect,0,82,82,71,1,t5.png,t5.png,0,0.97829,22,Female,2020-10-23_13h48.15.713,torte-q,2020.1.3,Win32,60,12773,1.01964,,,,,,,,,,,,,,,,,,,,,,,,,,,,,,,,,,,,,,,,,,,,
,,,,,,,,,,,,,Too slow :(,0,83,83,38,1,t3.png,t1.png,2,0.056466,22,Female,2020-10-23_13h48.15.713,torte-q,2020.1.3,Win32,60,12773,,,,,,,,,,,,,,,,,,,,,,,,,,,,,,,,,,,,,,,,,,,,,
,,,,,,,,,,,,l,Correct!,0,84,84,21,1,t5.png,t4.png,1,0.90025,22,Female,2020-10-23_13h48.15.713,torte-q,2020.1.3,Win32,60,12773,1.61622,,,,,,,,,,,,,,,,,,,,,,,,,,,,,,,,,,,,,,,,,,,,
,,,,,,,,,,,,l,Correct!,0,85,85,90,1,t1.png,t5.png,4,9.55E-11,22,Female,2020-10-23_13h48.15.713,torte-q,2020.1.3,Win32,60,12773,1.38276,,,,,,,,,,,,,,,,,,,,,,,,,,,,,,,,,,,,,,,,,,,,
,,,,,,,,,,,,l,Incorrect,0,86,86,32,1,t4.png,t5.png,1,0.90025,22,Female,2020-10-23_13h48.15.713,torte-q,2020.1.3,Win32,60,12773,1.199525,,,,,,,,,,,,,,,,,,,,,,,,,,,,,,,,,,,,,,,,,,,,
,,,,,,,,,,,,l,Incorrect,0,87,87,13,1,t5.png,t5.png,0,0.97829,22,Female,2020-10-23_13h48.15.713,torte-q,2020.1.3,Win32,60,12773,1.152085,,,,,,,,,,,,,,,,,,,,,,,,,,,,,,,,,,,,,,,,,,,,
,,,,,,,,,,,,l,Incorrect,0,88,88,28,1,t2.png,t3.png,1,0.909,22,Female,2020-10-23_13h48.15.713,torte-q,2020.1.3,Win32,60,12773,0.790995,,,,,,,,,,,,,,,,,,,,,,,,,,,,,,,,,,,,,,,,,,,,
,,,,,,,,,,,,a,Incorrect,0,89,89,94,1,t5.png,t1.png,4,9.55E-11,22,Female,2020-10-23_13h48.15.713,torte-q,2020.1.3,Win32,60,12773,0.63959,,,,,,,,,,,,,,,,,,,,,,,,,,,,,,,,,,,,,,,,,,,,
,,,,,,,,,,,,l,Incorrect,0,90,90,96,1,t1.png,t1.png,0,0.97829,22,Female,2020-10-23_13h48.15.713,torte-q,2020.1.3,Win32,60,12773,0.76658,,,,,,,,,,,,,,,,,,,,,,,,,,,,,,,,,,,,,,,,,,,,
,,,,,,,,,,,,l,Incorrect,0,91,91,34,1,t5.png,t4.png,1,0.9,22,Female,2020-10-23_13h48.15.713,torte-q,2020.1.3,Win32,60,12773,1.065505,,,,,,,,,,,,,,,,,,,,,,,,,,,,,,,,,,,,,,,,,,,,
,,,,,,,,,,,,l,Correct!,0,92,92,93,1,t2.png,t4.png,2,0.059078,22,Female,2020-10-23_13h48.15.713,torte-q,2020.1.3,Win32,60,12773,1.019345,,,,,,,,,,,,,,,,,,,,,,,,,,,,,,,,,,,,,,,,,,,,
,,,,,,,,,,,,l,Incorrect,0,93,93,92,1,t2.png,t3.png,1,0.909,22,Female,2020-10-23_13h48.15.713,torte-q,2020.1.3,Win32,60,12773,0.82464,,,,,,,,,,,,,,,,,,,,,,,,,,,,,,,,,,,,,,,,,,,,
,,,,,,,,,,,,a,Incorrect,0,94,94,56,1,t5.png,t1.png,4,9.55E-11,22,Female,2020-10-23_13h48.15.713,torte-q,2020.1.3,Win32,60,12773,1.18727,,,,,,,,,,,,,,,,,,,,,,,,,,,,,,,,,,,,,,,,,,,,
,,,,,,,,,,,,a,Incorrect,0,95,95,47,1,t4.png,t2.png,2,0.059078,22,Female,2020-10-23_13h48.15.713,torte-q,2020.1.3,Win32,60,12773,0.97079,,,,,,,,,,,,,,,,,,,,,,,,,,,,,,,,,,,,,,,,,,,,
,,,,,,,,,,,,l,Incorrect,0,96,96,106,1,t2.png,t3.png,1,0.90855,22,Female,2020-10-23_13h48.15.713,torte-q,2020.1.3,Win32,60,12773,0.66674,,,,,,,,,,,,,,,,,,,,,,,,,,,,,,,,,,,,,,,,,,,,
,,,,,,,,,,,,l,Correct!,0,97,97,108,1,t5.png,t1.png,4,9.55E-11,22,Female,2020-10-23_13h48.15.713,torte-q,2020.1.3,Win32,60,12773,1.616495,,,,,,,,,,,,,,,,,,,,,,,,,,,,,,,,,,,,,,,,,,,,
,,,,,,,,,,,,l,Incorrect,0,98,98,81,1,t1.png,t1.png,0,0.97829,22,Female,2020-10-23_13h48.15.713,torte-q,2020.1.3,Win32,60,12773,1.407015,,,,,,,,,,,,,,,,,,,,,,,,,,,,,,,,,,,,,,,,,,,,
,,,,,,,,,,,,l,Correct!,0,99,99,73,1,t4.png,t2.png,2,0.059078,22,Female,2020-10-23_13h48.15.713,torte-q,2020.1.3,Win32,60,12773,1.054265,,,,,,,,,,,,,,,,,,,,,,,,,,,,,,,,,,,,,,,,,,,,
,,,,,,,,,,,,l,Correct!,0,100,100,4,1,t1.png,t5.png,4,9.55E-11,22,Female,2020-10-23_13h48.15.713,torte-q,2020.1.3,Win32,60,12773,1.18349,,,,,,,,,,,,,,,,,,,,,,,,,,,,,,,,,,,,,,,,,,,,
,,,,,,,,,,,,a,Incorrect,0,101,101,52,1,t2.png,t4.png,2,0.059078,22,Female,2020-10-23_13h48.15.713,torte-q,2020.1.3,Win32,60,12773,1.658355,,,,,,,,,,,,,,,,,,,,,,,,,,,,,,,,,,,,,,,,,,,,
,,,,,,,,,,,,l,Correct!,0,102,102,35,1,t1.png,t4.png,3,0.0000131,22,Female,2020-10-23_13h48.15.713,torte-q,2020.1.3,Win32,60,12773,1.27535,,,,,,,,,,,,,,,,,,,,,,,,,,,,,,,,,,,,,,,,,,,,
,,,,,,,,,,,,,Too slow :(,0,103,103,116,1,t5.png,t4.png,1,0.90025,22,Female,2020-10-23_13h48.15.713,torte-q,2020.1.3,Win32,60,12773,,,,,,,,,,,,,,,,,,,,,,,,,,,,,,,,,,,,,,,,,,,,,
,,,,,,,,,,,,l,Correct!,0,104,104,98,1,t2.png,t4.png,2,0.0591,22,Female,2020-10-23_13h48.15.713,torte-q,2020.1.3,Win32,60,12773,0.66897,,,,,,,,,,,,,,,,,,,,,,,,,,,,,,,,,,,,,,,,,,,,
,,,,,,,,,,,,l,Correct!,0,105,105,26,1,t4.png,t2.png,2,0.0591,22,Female,2020-10-23_13h48.15.713,torte-q,2020.1.3,Win32,60,12773,0.937305,,,,,,,,,,,,,,,,,,,,,,,,,,,,,,,,,,,,,,,,,,,,
,,,,,,,,,,,,l,Incorrect,0,106,106,44,1,t2.png,t3.png,1,0.909,22,Female,2020-10-23_13h48.15.713,torte-q,2020.1.3,Win32,60,12773,0.9705,,,,,,,,,,,,,,,,,,,,,,,,,,,,,,,,,,,,,,,,,,,,
,,,,,,,,,,,,l,Incorrect,0,107,107,113,1,t5.png,t4.png,1,0.9,22,Female,2020-10-23_13h48.15.713,torte-q,2020.1.3,Win32,60,12773,1.02079,,,,,,,,,,,,,,,,,,,,,,,,,,,,,,,,,,,,,,,,,,,,
,,,,,,,,,,,,l,Correct!,0,108,108,119,1,t1.png,t5.png,4,9.55E-11,22,Female,2020-10-23_13h48.15.713,torte-q,2020.1.3,Win32,60,12773,1.11445,,,,,,,,,,,,,,,,,,,,,,,,,,,,,,,,,,,,,,,,,,,,
,,,,,,,,,,,,l,Incorrect,0,109,109,118,1,t5.png,t5.png,0,0.978,22,Female,2020-10-23_13h48.15.713,torte-q,2020.1.3,Win32,60,12773,1.232515,,,,,,,,,,,,,,,,,,,,,,,,,,,,,,,,,,,,,,,,,,,,
,,,,,,,,,,,,l,Incorrect,0,110,110,41,1,t3.png,t2.png,1,0.90855,22,Female,2020-10-23_13h48.15.713,torte-q,2020.1.3,Win32,60,12773,1.233045,,,,,,,,,,,,,,,,,,,,,,,,,,,,,,,,,,,,,,,,,,,,
,,,,,,,,,,,,l,Correct!,0,111,111,57,1,t2.png,t4.png,2,0.059078,22,Female,2020-10-23_13h48.15.713,torte-q,2020.1.3,Win32,60,12773,1.42077,,,,,,,,,,,,,,,,,,,,,,,,,,,,,,,,,,,,,,,,,,,,
,,,,,,,,,,,,a,Incorrect,0,112,112,86,1,t3.png,t1.png,2,0.056466,22,Female,2020-10-23_13h48.15.713,torte-q,2020.1.3,Win32,60,12773,1.84837,,,,,,,,,,,,,,,,,,,,,,,,,,,,,,,,,,,,,,,,,,,,
,,,,,,,,,,,,a,Incorrect,0,113,113,24,1,t4.png,t2.png,2,0.059078,22,Female,2020-10-23_13h48.15.713,torte-q,2020.1.3,Win32,60,12773,1.88529,,,,,,,,,,,,,,,,,,,,,,,,,,,,,,,,,,,,,,,,,,,,
,,,,,,,,,,,,,Too slow :(,0,114,114,33,1,t5.png,t1.png,4,9.55E-11,22,Female,2020-10-23_13h48.15.713,torte-q,2020.1.3,Win32,60,12773,,,,,,,,,,,,,,,,,,,,,,,,,,,,,,,,,,,,,,,,,,,,,
,,,,,,,,,,,,a,Incorrect,0,115,115,43,1,t4.png,t2.png,2,0.059078,22,Female,2020-10-23_13h48.15.713,torte-q,2020.1.3,Win32,60,12773,2.002655,,,,,,,,,,,,,,,,,,,,,,,,,,,,,,,,,,,,,,,,,,,,
,,,,,,,,,,,,l,Incorrect,0,116,116,15,1,t3.png,t2.png,1,0.90855,22,Female,2020-10-23_13h48.15.713,torte-q,2020.1.3,Win32,60,12773,1.849695,,,,,,,,,,,,,,,,,,,,,,,,,,,,,,,,,,,,,,,,,,,,
,,,,,,,,,,,,l,Incorrect,0,117,117,97,1,t5.png,t5.png,0,0.97829,22,Female,2020-10-23_13h48.15.713,torte-q,2020.1.3,Win32,60,12773,2.12607,,,,,,,,,,,,,,,,,,,,,,,,,,,,,,,,,,,,,,,,,,,,
,,,,,,,,,,,,l,Correct!,0,118,118,115,1,t2.png,t4.png,2,0.059078,22,Female,2020-10-23_13h48.15.713,torte-q,2020.1.3,Win32,60,12773,1.308135,,,,,,,,,,,,,,,,,,,,,,,,,,,,,,,,,,,,,,,,,,,,
,,,,,,,,,,,,,Too slow :(,0,119,119,30,1,t3.png,t1.png,2,0.056466,22,Female,2020-10-23_13h48.15.713,torte-q,2020.1.3,Win32,60,12773,,,,,,,,,,,,,,,,,,,,,,,,,,,,,,,,,,,,,,,,,,,,,
,,,,,,,,,,,,a,Incorrect,,,,,,t2.png,t4.png,2,0.059078,22,Female,2020-10-23_13h48.15.713,torte-q,2020.1.3,Win32,60,12773,0.586265,space,236.29014,space,50.73087,0,0,0,24,1,,,,,,,,,,,,,,,,,,,,,,,,,,,,,,,,,,,
,,,,,,,,,,,,l,Correct!,,,,,,t2.png,t5.png,3,0.0000131,22,Female,2020-10-23_13h48.15.713,torte-q,2020.1.3,Win32,60,12773,0.558575,,,,,0,1,1,40,1,,,,,,,,,,,,,,,,,,,,,,,,,,,,,,,,,,,
,,,,,,,,,,,,l,Correct!,,,,,,t3.png,t5.png,2,0.056466,22,Female,2020-10-23_13h48.15.713,torte-q,2020.1.3,Win32,60,12773,0.473155,,,,,0,2,2,14,1,,,,,,,,,,,,,,,,,,,,,,,,,,,,,,,,,,,
,,,,,,,,,,,,l,Correct!,,,,,,t4.png,t3.png,1,0.909,22,Female,2020-10-23_13h48.15.713,torte-q,2020.1.3,Win32,60,12773,0.68263,,,,,0,3,3,46,1,,,,,,,,,,,,,,,,,,,,,,,,,,,,,,,,,,,
,,,,,,,,,,,,a,Incorrect,,,,,,t1.png,t5.png,4,9.55E-11,22,Female,2020-10-23_13h48.15.713,torte-q,2020.1.3,Win32,60,12773,0.386205,,,,,0,4,4,41,1,,,,,,,,,,,,,,,,,,,,,,,,,,,,,,,,,,,
,,,,,,,,,,,,l,Incorrect,,,,,,t3.png,t4.png,1,0.90855,22,Female,2020-10-23_13h48.15.713,torte-q,2020.1.3,Win32,60,12773,1.36663,,,,,0,5,5,84,1,,,,,,,,,,,,,,,,,,,,,,,,,,,,,,,,,,,
,,,,,,,,,,,,l,Incorrect,,,,,,t2.png,t3.png,1,0.909,22,Female,2020-10-23_13h48.15.713,torte-q,2020.1.3,Win32,60,12773,1.06658,,,,,0,6,6,74,1,,,,,,,,,,,,,,,,,,,,,,,,,,,,,,,,,,,
,,,,,,,,,,,,a,Incorrect,,,,,,t5.png,t3.png,2,0.0565,22,Female,2020-10-23_13h48.15.713,torte-q,2020.1.3,Win32,60,12773,0.373885,,,,,0,7,7,39,1,,,,,,,,,,,,,,,,,,,,,,,,,,,,,,,,,,,
,,,,,,,,,,,,l,Correct!,,,,,,t5.png,t3.png,2,0.056466,22,Female,2020-10-23_13h48.15.713,torte-q,2020.1.3,Win32,60,12773,0.551115,,,,,0,8,8,56,1,,,,,,,,,,,,,,,,,,,,,,,,,,,,,,,,,,,
,,,,,,,,,,,,a,Correct!,,,,,,t5.png,t5.png,0,0.97829,22,Female,2020-10-23_13h48.15.713,torte-q,2020.1.3,Win32,60,12773,0.51862,,,,,0,9,9,94,1,,,,,,,,,,,,,,,,,,,,,,,,,,,,,,,,,,,
,,,,,,,,,,,,a,Correct!,,,,,,t5.png,t4.png,1,0.9,22,Female,2020-10-23_13h48.15.713,torte-q,2020.1.3,Win32,60,12773,0.52423,,,,,0,10,10,49,1,,,,,,,,,,,,,,,,,,,,,,,,,,,,,,,,,,,
,,,,,,,,,,,,a,Incorrect,,,,,,t3.png,t1.png,2,0.056466,22,Female,2020-10-23_13h48.15.713,torte-q,2020.1.3,Win32,60,12773,0.533195,,,,,0,11,11,64,1,,,,,,,,,,,,,,,,,,,,,,,,,,,,,,,,,,,
,,,,,,,,,,,,l,Correct!,,,,,,t3.png,t1.png,2,0.056466,22,Female,2020-10-23_13h48.15.713,torte-q,2020.1.3,Win32,60,12773,0.618365,,,,,0,12,12,0,1,,,,,,,,,,,,,,,,,,,,,,,,,,,,,,,,,,,
,,,,,,,,,,,,l,Incorrect,,,,,,t3.png,t2.png,1,0.90855,22,Female,2020-10-23_13h48.15.713,torte-q,2020.1.3,Win32,60,12773,0.505185,,,,,0,13,13,53,1,,,,,,,,,,,,,,,,,,,,,,,,,,,,,,,,,,,
,,,,,,,,,,,,l,Incorrect,,,,,,t2.png,t1.png,1,0.90025,22,Female,2020-10-23_13h48.15.713,torte-q,2020.1.3,Win32,60,12773,1.216775,,,,,0,14,14,62,1,,,,,,,,,,,,,,,,,,,,,,,,,,,,,,,,,,,
,,,,,,,,,,,,a,Correct!,,,,,,t2.png,t2.png,0,0.98115,22,Female,2020-10-23_13h48.15.713,torte-q,2020.1.3,Win32,60,12773,1.082995,,,,,0,15,15,59,1,,,,,,,,,,,,,,,,,,,,,,,,,,,,,,,,,,,
,,,,,,,,,,,,a,Correct!,,,,,,t5.png,t4.png,1,0.9,22,Female,2020-10-23_13h48.15.713,torte-q,2020.1.3,Win32,60,12773,0.699695,,,,,0,16,16,76,1,,,,,,,,,,,,,,,,,,,,,,,,,,,,,,,,,,,
,,,,,,,,,,,,l,Correct!,,,,,,t2.png,t4.png,2,0.059078,22,Female,2020-10-23_13h48.15.713,torte-q,2020.1.3,Win32,60,12773,0.29979,,,,,0,17,17,37,1,,,,,,,,,,,,,,,,,,,,,,,,,,,,,,,,,,,
,,,,,,,,,,,,,Too slow :(,,,,,,t2.png,t2.png,0,0.98115,22,Female,2020-10-23_13h48.15.713,torte-q,2020.1.3,Win32,60,12773,,,,,,0,18,18,7,1,,,,,,,,,,,,,,,,,,,,,,,,,,,,,,,,,,,
,,,,,,,,,,,,l,Incorrect,,,,,,t3.png,t1.png,2,0.056466,22,Female,2020-10-23_13h48.15.713,torte-q,2020.1.3,Win32,60,12773,1.187215,,,,,0,19,19,32,1,,,,,,,,,,,,,,,,,,,,,,,,,,,,,,,,,,,
,,,,,,,,,,,,l,Correct!,,,,,,t1.png,t4.png,3,0.0000131,22,Female,2020-10-23_13h48.15.713,torte-q,2020.1.3,Win32,60,12773,1.583045,,,,,0,20,20,107,1,,,,,,,,,,,,,,,,,,,,,,,,,,,,,,,,,,,
,,,,,,,,,,,,l,Correct!,,,,,,t3.png,t5.png,2,0.056466,22,Female,2020-10-23_13h48.15.713,torte-q,2020.1.3,Win32,60,12773,0.799575,,,,,0,21,21,44,1,,,,,,,,,,,,,,,,,,,,,,,,,,,,,,,,,,,
,,,,,,,,,,,,a,Correct!,,,,,,t4.png,t4.png,0,0.98115,22,Female,2020-10-23_13h48.15.713,torte-q,2020.1.3,Win32,60,12773,1.165805,,,,,0,22,22,80,1,,,,,,,,,,,,,,,,,,,,,,,,,,,,,,,,,,,
,,,,,,,,,,,,a,Correct!,,,,,,t4.png,t5.png,1,0.90025,22,Female,2020-10-23_13h48.15.713,torte-q,2020.1.3,Win32,60,12773,0.705025,,,,,0,23,23,113,1,,,,,,,,,,,,,,,,,,,,,,,,,,,,,,,,,,,
,,,,,,,,,,,,l,Incorrect,,,,,,t3.png,t4.png,1,0.909,22,Female,2020-10-23_13h48.15.713,torte-q,2020.1.3,Win32,60,12773,0.67184,,,,,0,24,24,106,1,,,,,,,,,,,,,,,,,,,,,,,,,,,,,,,,,,,
,,,,,,,,,,,,a,Incorrect,,,,,,t5.png,t2.png,3,0.0000131,22,Female,2020-10-23_13h48.15.713,torte-q,2020.1.3,Win32,60,12773,0.673295,,,,,0,25,25,116,1,,,,,,,,,,,,,,,,,,,,,,,,,,,,,,,,,,,
,,,,,,,,,,,,a,Incorrect,,,,,,t4.png,t1.png,3,0.0000131,22,Female,2020-10-23_13h48.15.713,torte-q,2020.1.3,Win32,60,12773,0.919735,,,,,0,26,26,13,1,,,,,,,,,,,,,,,,,,,,,,,,,,,,,,,,,,,
,,,,,,,,,,,,l,Correct!,,,,,,t1.png,t5.png,4,9.55E-11,22,Female,2020-10-23_13h48.15.713,torte-q,2020.1.3,Win32,60,12773,0.449875,,,,,0,27,27,55,1,,,,,,,,,,,,,,,,,,,,,,,,,,,,,,,,,,,
,,,,,,,,,,,,l,Correct!,,,,,,t1.png,t4.png,3,0.0000131,22,Female,2020-10-23_13h48.15.713,torte-q,2020.1.3,Win32,60,12773,0.51677,,,,,0,28,28,17,1,,,,,,,,,,,,,,,,,,,,,,,,,,,,,,,,,,,
,,,,,,,,,,,,a,Correct!,,,,,,t5.png,t4.png,1,0.90025,22,Female,2020-10-23_13h48.15.713,torte-q,2020.1.3,Win32,60,12773,0.573145,,,,,0,29,29,26,1,,,,,,,,,,,,,,,,,,,,,,,,,,,,,,,,,,,
,,,,,,,,,,,,l,Correct!,,,,,,t3.png,t5.png,2,0.0565,22,Female,2020-10-23_13h48.15.713,torte-q,2020.1.3,Win32,60,12773,0.47229,,,,,0,30,30,30,1,,,,,,,,,,,,,,,,,,,,,,,,,,,,,,,,,,,
,,,,,,,,,,,,l,Incorrect,,,,,,t2.png,t3.png,1,0.90855,22,Female,2020-10-23_13h48.15.713,torte-q,2020.1.3,Win32,60,12773,0.45526,,,,,0,31,31,65,1,,,,,,,,,,,,,,,,,,,,,,,,,,,,,,,,,,,
,,,,,,,,,,,,l,Incorrect,,,,,,t4.png,t4.png,0,0.98115,22,Female,2020-10-23_13h48.15.713,torte-q,2020.1.3,Win32,60,12773,0.68547,,,,,0,32,32,90,1,,,,,,,,,,,,,,,,,,,,,,,,,,,,,,,,,,,
,,,,,,,,,,,,a,Incorrect,,,,,,t4.png,t3.png,1,0.909,22,Female,2020-10-23_13h48.15.713,torte-q,2020.1.3,Win32,60,12773,0.70155,,,,,0,33,33,20,1,,,,,,,,,,,,,,,,,,,,,,,,,,,,,,,,,,,
,,,,,,,,,,,,l,Incorrect,,,,,,t2.png,t3.png,1,0.90855,22,Female,2020-10-23_13h48.15.713,torte-q,2020.1.3,Win32,60,12773,0.50315,,,,,0,34,34,68,1,,,,,,,,,,,,,,,,,,,,,,,,,,,,,,,,,,,
,,,,,,,,,,,,l,Correct!,,,,,,t5.png,t1.png,4,9.55E-11,22,Female,2020-10-23_13h48.15.713,torte-q,2020.1.3,Win32,60,12773,0.437,,,,,0,35,35,43,1,,,,,,,,,,,,,,,,,,,,,,,,,,,,,,,,,,,
,,,,,,,,,,,,a,Incorrect,,,,,,t1.png,t5.png,4,9.55E-11,22,Female,2020-10-23_13h48.15.713,torte-q,2020.1.3,Win32,60,12773,0.8326,,,,,0,36,36,85,1,,,,,,,,,,,,,,,,,,,,,,,,,,,,,,,,,,,
,,,,,,,,,,,,a,Incorrect,,,,,,t4.png,t2.png,2,0.059078,22,Female,2020-10-23_13h48.15.713,torte-q,2020.1.3,Win32,60,12773,0.46914,,,,,0,37,37,88,1,,,,,,,,,,,,,,,,,,,,,,,,,,,,,,,,,,,
,,,,,,,,,,,,a,Correct!,,,,,,t5.png,t4.png,1,0.90025,22,Female,2020-10-23_13h48.15.713,torte-q,2020.1.3,Win32,60,12773,0.92635,,,,,0,38,38,27,1,,,,,,,,,,,,,,,,,,,,,,,,,,,,,,,,,,,
,,,,,,,,,,,,a,Incorrect,,,,,,t4.png,t2.png,2,0.059078,22,Female,2020-10-23_13h48.15.713,torte-q,2020.1.3,Win32,60,12773,0.7,,,,,0,39,39,110,1,,,,,,,,,,,,,,,,,,,,,,,,,,,,,,,,,,,
,,,,,,,,,,,,a,Incorrect,,,,,,t5.png,t3.png,2,0.056466,22,Female,2020-10-23_13h48.15.713,torte-q,2020.1.3,Win32,60,12773,0.68711,,,,,0,40,40,38,1,,,,,,,,,,,,,,,,,,,,,,,,,,,,,,,,,,,
,,,,,,,,,,,,l,Incorrect,,,,,,t3.png,t4.png,1,0.909,22,Female,2020-10-23_13h48.15.713,torte-q,2020.1.3,Win32,60,12773,0.620465,,,,,0,41,41,89,1,,,,,,,,,,,,,,,,,,,,,,,,,,,,,,,,,,,
,,,,,,,,,,,,a,Correct!,,,,,,t5.png,t5.png,0,0.97829,22,Female,2020-10-23_13h48.15.713,torte-q,2020.1.3,Win32,60,12773,0.649995,,,,,0,42,42,73,1,,,,,,,,,,,,,,,,,,,,,,,,,,,,,,,,,,,
,,,,,,,,,,,,a,Incorrect,,,,,,t5.png,t1.png,4,9.55E-11,22,Female,2020-10-23_13h48.15.713,torte-q,2020.1.3,Win32,60,12773,0.723435,,,,,0,43,43,102,1,,,,,,,,,,,,,,,,,,,,,,,,,,,,,,,,,,,
,,,,,,,,,,,,l,Incorrect,,,,,,t4.png,t5.png,1,0.90025,22,Female,2020-10-23_13h48.15.713,torte-q,2020.1.3,Win32,60,12773,0.832885,,,,,0,44,44,47,1,,,,,,,,,,,,,,,,,,,,,,,,,,,,,,,,,,,
,,,,,,,,,,,,a,Correct!,,,,,,t2.png,t3.png,1,0.90855,22,Female,2020-10-23_13h48.15.713,torte-q,2020.1.3,Win32,60,12773,0.666035,,,,,0,45,45,10,1,,,,,,,,,,,,,,,,,,,,,,,,,,,,,,,,,,,
,,,,,,,,,,,,l,Incorrect,,,,,,t5.png,t4.png,1,0.90025,22,Female,2020-10-23_13h48.15.713,torte-q,2020.1.3,Win32,60,12773,2.28592,,,,,0,46,46,34,1,,,,,,,,,,,,,,,,,,,,,,,,,,,,,,,,,,,
,,,,,,,,,,,,l,Incorrect,,,,,,t5.png,t5.png,0,0.97829,22,Female,2020-10-23_13h48.15.713,torte-q,2020.1.3,Win32,60,12773,1.408365,,,,,0,47,47,25,1,,,,,,,,,,,,,,,,,,,,,,,,,,,,,,,,,,,
,,,,,,,,,,,,l,Incorrect,,,,,,t2.png,t2.png,0,0.98115,22,Female,2020-10-23_13h48.15.713,torte-q,2020.1.3,Win32,60,12773,0.77574,,,,,0,48,48,2,1,,,,,,,,,,,,,,,,,,,,,,,,,,,,,,,,,,,
,,,,,,,,,,,,a,Correct!,,,,,,t5.png,t5.png,0,0.97829,22,Female,2020-10-23_13h48.15.713,torte-q,2020.1.3,Win32,60,12773,1.00651,,,,,0,49,49,70,1,,,,,,,,,,,,,,,,,,,,,,,,,,,,,,,,,,,
,,,,,,,,,,,,a,Incorrect,,,,,,t5.png,t1.png,4,9.55E-11,22,Female,2020-10-23_13h48.15.713,torte-q,2020.1.3,Win32,60,12773,1.092985,,,,,0,50,50,22,1,,,,,,,,,,,,,,,,,,,,,,,,,,,,,,,,,,,
,,,,,,,,,,,,l,Incorrect,,,,,,t4.png,t3.png,1,0.90855,22,Female,2020-10-23_13h48.15.713,torte-q,2020.1.3,Win32,60,12773,2.08777,,,,,0,51,51,75,1,,,,,,,,,,,,,,,,,,,,,,,,,,,,,,,,,,,
,,,,,,,,,,,,l,Correct!,,,,,,t1.png,t4.png,3,0.0000131,22,Female,2020-10-23_13h48.15.713,torte-q,2020.1.3,Win32,60,12773,1.468315,,,,,0,52,52,50,1,,,,,,,,,,,,,,,,,,,,,,,,,,,,,,,,,,,
,,,,,,,,,,,,l,Correct!,,,,,,t1.png,t3.png,2,0.056466,22,Female,2020-10-23_13h48.15.713,torte-q,2020.1.3,Win32,60,12773,0.527225,,,,,0,53,53,60,1,,,,,,,,,,,,,,,,,,,,,,,,,,,,,,,,,,,
,,,,,,,,,,,,a,Incorrect,,,,,,t3.png,t5.png,2,0.056466,22,Female,2020-10-23_13h48.15.713,torte-q,2020.1.3,Win32,60,12773,0.32342,,,,,0,54,54,6,1,,,,,,,,,,,,,,,,,,,,,,,,,,,,,,,,,,,
,,,,,,,,,,,,l,Correct!,,,,,,t1.png,t3.png,2,0.056466,22,Female,2020-10-23_13h48.15.713,torte-q,2020.1.3,Win32,60,12773,1.066865,,,,,0,55,55,69,1,,,,,,,,,,,,,,,,,,,,,,,,,,,,,,,,,,,
,,,,,,,,,,,,a,Correct!,,,,,,t2.png,t1.png,1,0.90025,22,Female,2020-10-23_13h48.15.713,torte-q,2020.1.3,Win32,60,12773,1.01643,,,,,0,56,56,4,1,,,,,,,,,,,,,,,,,,,,,,,,,,,,,,,,,,,
,,,,,,,,,,,,a,Incorrect,,,,,,t2.png,t5.png,3,0.0000131,22,Female,2020-10-23_13h48.15.713,torte-q,2020.1.3,Win32,60,12773,0.89403,,,,,0,57,57,95,1,,,,,,,,,,,,,,,,,,,,,,,,,,,,,,,,,,,
,,,,,,,,,,,,a,Incorrect,,,,,,t3.png,t5.png,2,0.0565,22,Female,2020-10-23_13h48.15.713,torte-q,2020.1.3,Win32,60,12773,0.554855,,,,,0,58,58,83,1,,,,,,,,,,,,,,,,,,,,,,,,,,,,,,,,,,,
,,,,,,,,,,,,a,Correct!,,,,,,t1.png,t1.png,0,0.97829,22,Female,2020-10-23_13h48.15.713,torte-q,2020.1.3,Win32,60,12773,0.933055,,,,,0,59,59,67,1,,,,,,,,,,,,,,,,,,,,,,,,,,,,,,,,,,,
,,,,,,,,,,,,a,Correct!,,,,,,t1.png,t1.png,0,0.97829,22,Female,2020-10-23_13h48.15.713,torte-q,2020.1.3,Win32,60,12773,0.656935,,,,,0,60,60,9,1,,,,,,,,,,,,,,,,,,,,,,,,,,,,,,,,,,,
,,,,,,,,,,,,a,Incorrect,,,,,,t5.png,t1.png,4,9.55E-11,22,Female,2020-10-23_13h48.15.713,torte-q,2020.1.3,Win32,60,12773,0.752365,,,,,0,61,61,100,1,,,,,,,,,,,,,,,,,,,,,,,,,,,,,,,,,,,
,,,,,,,,,,,,l,Incorrect,,,,,,t4.png,t5.png,1,0.9,22,Female,2020-10-23_13h48.15.713,torte-q,2020.1.3,Win32,60,12773,0.50484,,,,,0,62,62,115,1,,,,,,,,,,,,,,,,,,,,,,,,,,,,,,,,,,,
,,,,,,,,,,,,a,Incorrect,,,,,,t4.png,t2.png,2,0.0591,22,Female,2020-10-23_13h48.15.713,torte-q,2020.1.3,Win32,60,12773,0.66636,,,,,0,63,63,36,1,,,,,,,,,,,,,,,,,,,,,,,,,,,,,,,,,,,
,,,,,,,,,,,,l,Incorrect,,,,,,t3.png,t2.png,1,0.90855,22,Female,2020-10-23_13h48.15.713,torte-q,2020.1.3,Win32,60,12773,0.68618,,,,,0,64,64,97,1,,,,,,,,,,,,,,,,,,,,,,,,,,,,,,,,,,,
,,,,,,,,,,,,l,Incorrect,,,,,,t3.png,t2.png,1,0.909,22,Female,2020-10-23_13h48.15.713,torte-q,2020.1.3,Win32,60,12773,0.48264,,,,,0,65,65,3,1,,,,,,,,,,,,,,,,,,,,,,,,,,,,,,,,,,,
,,,,,,,,,,,,l,Incorrect,,,,,,t2.png,t1.png,1,0.90025,22,Female,2020-10-23_13h48.15.713,torte-q,2020.1.3,Win32,60,12773,0.738505,,,,,0,66,66,19,1,,,,,,,,,,,,,,,,,,,,,,,,,,,,,,,,,,,
,,,,,,,,,,,,a,Incorrect,,,,,,t4.png,t2.png,2,0.059078,22,Female,2020-10-23_13h48.15.713,torte-q,2020.1.3,Win32,60,12773,0.401285,,,,,0,67,67,109,1,,,,,,,,,,,,,,,,,,,,,,,,,,,,,,,,,,,
,,,,,,,,,,,,l,Incorrect,,,,,,t4.png,t5.png,1,0.90025,22,Female,2020-10-23_13h48.15.713,torte-q,2020.1.3,Win32,60,12773,0.75206,,,,,0,68,68,58,1,,,,,,,,,,,,,,,,,,,,,,,,,,,,,,,,,,,
,,,,,,,,,,,,a,Incorrect,,,,,,t5.png,t3.png,2,0.056466,22,Female,2020-10-23_13h48.15.713,torte-q,2020.1.3,Win32,60,12773,0.557775,,,,,0,69,69,108,1,,,,,,,,,,,,,,,,,,,,,,,,,,,,,,,,,,,
,,,,,,,,,,,,l,Correct!,,,,,,t5.png,t2.png,3,0.0000131,22,Female,2020-10-23_13h48.15.713,torte-q,2020.1.3,Win32,60,12773,1.00295,,,,,0,70,70,119,1,,,,,,,,,,,,,,,,,,,,,,,,,,,,,,,,,,,
,,,,,,,,,,,,l,Incorrect,,,,,,t3.png,t2.png,1,0.90855,22,Female,2020-10-23_13h48.15.713,torte-q,2020.1.3,Win32,60,12773,0.869615,,,,,0,71,71,18,1,,,,,,,,,,,,,,,,,,,,,,,,,,,,,,,,,,,
,,,,,,,,,,,,l,Incorrect,,,,,,t2.png,t3.png,1,0.90855,22,Female,2020-10-23_13h48.15.713,torte-q,2020.1.3,Win32,60,12773,1.088415,,,,,0,72,72,111,1,,,,,,,,,,,,,,,,,,,,,,,,,,,,,,,,,,,
,,,,,,,,,,,,l,Correct!,,,,,,t1.png,t5.png,4,9.55E-11,22,Female,2020-10-23_13h48.15.713,torte-q,2020.1.3,Win32,60,12773,0.90186,,,,,0,73,73,16,1,,,,,,,,,,,,,,,,,,,,,,,,,,,,,,,,,,,
,,,,,,,,,,,,l,Correct!,,,,,,t4.png,t1.png,3,0.0000131,22,Female,2020-10-23_13h48.15.713,torte-q,2020.1.3,Win32,60,12773,1.036805,,,,,0,74,74,42,1,,,,,,,,,,,,,,,,,,,,,,,,,,,,,,,,,,,
,,,,,,,,,,,,a,Incorrect,,,,,,t1.png,t3.png,2,0.056466,22,Female,2020-10-23_13h48.15.713,torte-q,2020.1.3,Win32,60,12773,1.19972,,,,,0,75,75,63,1,,,,,,,,,,,,,,,,,,,,,,,,,,,,,,,,,,,
,,,,,,,,,,,,a,Correct!,,,,,,t1.png,t1.png,0,0.978,22,Female,2020-10-23_13h48.15.713,torte-q,2020.1.3,Win32,60,12773,1.020935,,,,,0,76,76,28,1,,,,,,,,,,,,,,,,,,,,,,,,,,,,,,,,,,,
,,,,,,,,,,,,a,Correct!,,,,,,t4.png,t5.png,1,0.90025,22,Female,2020-10-23_13h48.15.713,torte-q,2020.1.3,Win32,60,12773,1.14968,,,,,0,77,77,103,1,,,,,,,,,,,,,,,,,,,,,,,,,,,,,,,,,,,
,,,,,,,,,,,,a,Correct!,,,,,,t2.png,t1.png,1,0.90025,22,Female,2020-10-23_13h48.15.713,torte-q,2020.1.3,Win32,60,12773,0.654925,,,,,0,78,78,5,1,,,,,,,,,,,,,,,,,,,,,,,,,,,,,,,,,,,
,,,,,,,,,,,,l,Correct!,,,,,,t5.png,t2.png,3,0.0000131,22,Female,2020-10-23_13h48.15.713,torte-q,2020.1.3,Win32,60,12773,0.40268,,,,,0,79,79,51,1,,,,,,,,,,,,,,,,,,,,,,,,,,,,,,,,,,,
,,,,,,,,,,,,a,Incorrect,,,,,,t4.png,t1.png,3,0.0000131,22,Female,2020-10-23_13h48.15.713,torte-q,2020.1.3,Win32,60,12773,0.602285,,,,,0,80,80,48,1,,,,,,,,,,,,,,,,,,,,,,,,,,,,,,,,,,,
,,,,,,,,,,,,l,Incorrect,,,,,,t4.png,t4.png,0,0.98115,22,Female,2020-10-23_13h48.15.713,torte-q,2020.1.3,Win32,60,12773,1.67043,,,,,0,81,81,21,1,,,,,,,,,,,,,,,,,,,,,,,,,,,,,,,,,,,
,,,,,,,,,,,,l,Incorrect,,,,,,t4.png,t3.png,1,0.90855,22,Female,2020-10-23_13h48.15.713,torte-q,2020.1.3,Win32,60,12773,0.942525,,,,,0,82,82,35,1,,,,,,,,,,,,,,,,,,,,,,,,,,,,,,,,,,,
,,,,,,,,,,,,l,Correct!,,,,,,t1.png,t4.png,3,0.0000131,22,Female,2020-10-23_13h48.15.713,torte-q,2020.1.3,Win32,60,12773,2.02403,,,,,0,83,83,81,1,,,,,,,,,,,,,,,,,,,,,,,,,,,,,,,,,,,
,,,,,,,,,,,,a,Incorrect,,,,,,t5.png,t3.png,2,0.056466,22,Female,2020-10-23_13h48.15.713,torte-q,2020.1.3,Win32,60,12773,0.987475,,,,,0,84,84,114,1,,,,,,,,,,,,,,,,,,,,,,,,,,,,,,,,,,,
,,,,,,,,,,,,l,Correct!,,,,,,t1.png,t4.png,3,0.0000131,22,Female,2020-10-23_13h48.15.713,torte-q,2020.1.3,Win32,60,12773,1.16623,,,,,0,85,85,92,1,,,,,,,,,,,,,,,,,,,,,,,,,,,,,,,,,,,
,,,,,,,,,,,,a,Incorrect,,,,,,t5.png,t2.png,3,0.0000131,22,Female,2020-10-23_13h48.15.713,torte-q,2020.1.3,Win32,60,12773,1.066245,,,,,0,86,86,91,1,,,,,,,,,,,,,,,,,,,,,,,,,,,,,,,,,,,
,,,,,,,,,,,,l,Incorrect,,,,,,t4.png,t4.png,0,0.98115,22,Female,2020-10-23_13h48.15.713,torte-q,2020.1.3,Win32,60,12773,1.104335,,,,,0,87,87,52,1,,,,,,,,,,,,,,,,,,,,,,,,,,,,,,,,,,,
,,,,,,,,,,,,l,Correct!,,,,,,t2.png,t5.png,3,0.0000131,22,Female,2020-10-23_13h48.15.713,torte-q,2020.1.3,Win32,60,12773,0.851845,,,,,0,88,88,8,1,,,,,,,,,,,,,,,,,,,,,,,,,,,,,,,,,,,
,,,,,,,,,,,,l,Correct!,,,,,,t1.png,t5.png,4,9.55E-11,22,Female,2020-10-23_13h48.15.713,torte-q,2020.1.3,Win32,60,12773,0.63887,,,,,0,89,89,12,1,,,,,,,,,,,,,,,,,,,,,,,,,,,,,,,,,,,
,,,,,,,,,,,,a,Incorrect,,,,,,t1.png,t1.png,0,0.978,22,Female,2020-10-23_13h48.15.713,torte-q,2020.1.3,Win32,60,12773,0.83912,,,,,0,90,90,54,1,,,,,,,,,,,,,,,,,,,,,,,,,,,,,,,,,,,
,,,,,,,,,,,,a,Correct!,,,,,,t3.png,t4.png,1,0.909,22,Female,2020-10-23_13h48.15.713,torte-q,2020.1.3,Win32,60,12773,0.82001,,,,,0,91,91,82,1,,,,,,,,,,,,,,,,,,,,,,,,,,,,,,,,,,,
,,,,,,,,,,,,l,Incorrect,,,,,,t4.png,t3.png,1,0.90855,22,Female,2020-10-23_13h48.15.713,torte-q,2020.1.3,Win32,60,12773,2.17481,,,,,0,92,92,45,1,,,,,,,,,,,,,,,,,,,,,,,,,,,,,,,,,,,
,,,,,,,,,,,,,Too slow :(,,,,,,t1.png,t3.png,2,0.056466,22,Female,2020-10-23_13h48.15.713,torte-q,2020.1.3,Win32,60,12773,,,,,,0,93,93,99,1,,,,,,,,,,,,,,,,,,,,,,,,,,,,,,,,,,,
,,,,,,,,,,,,a,Incorrect,,,,,,t5.png,t2.png,3,0.0000131,22,Female,2020-10-23_13h48.15.713,torte-q,2020.1.3,Win32,60,12773,2.252945,,,,,0,94,94,98,1,,,,,,,,,,,,,,,,,,,,,,,,,,,,,,,,,,,
,,,,,,,,,,,,l,Incorrect,,,,,,t1.png,t2.png,1,0.90025,22,Female,2020-10-23_13h48.15.713,torte-q,2020.1.3,Win32,60,12773,0.699655,,,,,0,95,95,112,1,,,,,,,,,,,,,,,,,,,,,,,,,,,,,,,,,,,
,,,,,,,,,,,,a,Correct!,,,,,,t3.png,t2.png,1,0.909,22,Female,2020-10-23_13h48.15.713,torte-q,2020.1.3,Win32,60,12773,0.58539,,,,,0,96,96,23,1,,,,,,,,,,,,,,,,,,,,,,,,,,,,,,,,,,,
,,,,,,,,,,,,l,Correct!,,,,,,t1.png,t3.png,2,0.056466,22,Female,2020-10-23_13h48.15.713,torte-q,2020.1.3,Win32,60,12773,0.63327,,,,,0,97,97,87,1,,,,,,,,,,,,,,,,,,,,,,,,,,,,,,,,,,,
,,,,,,,,,,,,l,Incorrect,,,,,,t3.png,t4.png,1,0.90855,22,Female,2020-10-23_13h48.15.713,torte-q,2020.1.3,Win32,60,12773,0.73266,,,,,0,98,98,96,1,,,,,,,,,,,,,,,,,,,,,,,,,,,,,,,,,,,
,,,,,,,,,,,,,Too slow :(,,,,,,t1.png,t2.png,1,0.90025,22,Female,2020-10-23_13h48.15.713,torte-q,2020.1.3,Win32,60,12773,,,,,,0,99,99,105,1,,,,,,,,,,,,,,,,,,,,,,,,,,,,,,,,,,,
,,,,,,,,,,,,l,Correct!,,,,,,t2.png,t4.png,2,0.0591,22,Female,2020-10-23_13h48.15.713,torte-q,2020.1.3,Win32,60,12773,0.90347,,,,,0,100,100,15,1,,,,,,,,,,,,,,,,,,,,,,,,,,,,,,,,,,,
,,,,,,,,,,,,l,Correct!,,,,,,t4.png,t1.png,3,0.0000131,22,Female,2020-10-23_13h48.15.713,torte-q,2020.1.3,Win32,60,12773,1.1161,,,,,0,101,101,61,1,,,,,,,,,,,,,,,,,,,,,,,,,,,,,,,,,,,
,,,,,,,,,,,,a,Incorrect,,,,,,t2.png,t5.png,3,0.0000131,22,Female,2020-10-23_13h48.15.713,torte-q,2020.1.3,Win32,60,12773,0.752155,,,,,0,102,102,66,1,,,,,,,,,,,,,,,,,,,,,,,,,,,,,,,,,,,
,,,,,,,,,,,,a,Incorrect,,,,,,t4.png,t1.png,3,0.0000131,22,Female,2020-10-23_13h48.15.713,torte-q,2020.1.3,Win32,60,12773,0.639495,,,,,0,103,103,93,1,,,,,,,,,,,,,,,,,,,,,,,,,,,,,,,,,,,
,,,,,,,,,,,,a,Correct!,,,,,,t1.png,t2.png,1,0.9,22,Female,2020-10-23_13h48.15.713,torte-q,2020.1.3,Win32,60,12773,2.435205,,,,,0,104,104,1,1,,,,,,,,,,,,,,,,,,,,,,,,,,,,,,,,,,,
,,,,,,,,,,,,l,Incorrect,,,,,,t2.png,t2.png,0,0.98115,22,Female,2020-10-23_13h48.15.713,torte-q,2020.1.3,Win32,60,12773,0.866595,,,,,0,105,105,57,1,,,,,,,,,,,,,,,,,,,,,,,,,,,,,,,,,,,
,,,,,,,,,,,,a,Incorrect,,,,,,t5.png,t1.png,4,9.55E-11,22,Female,2020-10-23_13h48.15.713,torte-q,2020.1.3,Win32,60,12773,1.06679,,,,,0,106,106,71,1,,,,,,,,,,,,,,,,,,,,,,,,,,,,,,,,,,,
,,,,,,,,,,,,a,Incorrect,,,,,,t2.png,t5.png,3,0.0000131,22,Female,2020-10-23_13h48.15.713,torte-q,2020.1.3,Win32,60,12773,0.65985,,,,,0,107,107,104,1,,,,,,,,,,,,,,,,,,,,,,,,,,,,,,,,,,,
,,,,,,,,,,,,a,Incorrect,,,,,,t2.png,t4.png,2,0.059078,22,Female,2020-10-23_13h48.15.713,torte-q,2020.1.3,Win32,60,12773,0.956145,,,,,0,108,108,11,1,,,,,,,,,,,,,,,,,,,,,,,,,,,,,,,,,,,
,,,,,,,,,,,,l,Incorrect,,,,,,t2.png,t1.png,1,0.9,22,Female,2020-10-23_13h48.15.713,torte-q,2020.1.3,Win32,60,12773,0.936565,,,,,0,109,109,118,1,,,,,,,,,,,,,,,,,,,,,,,,,,,,,,,,,,,
,,,,,,,,,,,,l,Incorrect,,,,,,t5.png,t5.png,0,0.978,22,Female,2020-10-23_13h48.15.713,torte-q,2020.1.3,Win32,60,12773,1.216295,,,,,0,110,110,117,1,,,,,,,,,,,,,,,,,,,,,,,,,,,,,,,,,,,
,,,,,,,,,,,,a,Incorrect,,,,,,t2.png,t4.png,2,0.059078,22,Female,2020-10-23_13h48.15.713,torte-q,2020.1.3,Win32,60,12773,0.82076,,,,,0,111,111,77,1,,,,,,,,,,,,,,,,,,,,,,,,,,,,,,,,,,,
,,,,,,,,,,,,l,Correct!,,,,,,t3.png,t1.png,2,0.0565,22,Female,2020-10-23_13h48.15.713,torte-q,2020.1.3,Win32,60,12773,2.073435,,,,,0,112,112,31,1,,,,,,,,,,,,,,,,,,,,,,,,,,,,,,,,,,,
,,,,,,,,,,,,l,Incorrect,,,,,,t2.png,t2.png,0,0.981,22,Female,2020-10-23_13h48.15.713,torte-q,2020.1.3,Win32,60,12773,0.849485,,,,,0,113,113,101,1,,,,,,,,,,,,,,,,,,,,,,,,,,,,,,,,,,,
,,,,,,,,,,,,l,Correct!,,,,,,t1.png,t2.png,1,0.90025,22,Female,2020-10-23_13h48.15.713,torte-q,2020.1.3,Win32,60,12773,0.735165,,,,,0,114,114,72,1,,,,,,,,,,,,,,,,,,,,,,,,,,,,,,,,,,,
,,,,,,,,,,,,l,Incorrect,,,,,,t1.png,t2.png,1,0.90025,22,Female,2020-10-23_13h48.15.713,torte-q,2020.1.3,Win32,60,12773,1.203125,,,,,0,115,115,33,1,,,,,,,,,,,,,,,,,,,,,,,,,,,,,,,,,,,
,,,,,,,,,,,,l,Incorrect,,,,,,t1.png,t1.png,0,0.97829,22,Female,2020-10-23_13h48.15.713,torte-q,2020.1.3,Win32,60,12773,0.54318,,,,,0,116,116,78,1,,,,,,,,,,,,,,,,,,,,,,,,,,,,,,,,,,,
,,,,,,,,,,,,a,Incorrect,,,,,,t4.png,t2.png,2,0.059078,22,Female,2020-10-23_13h48.15.713,torte-q,2020.1.3,Win32,60,12773,0.821995,,,,,0,117,117,86,1,,,,,,,,,,,,,,,,,,,,,,,,,,,,,,,,,,,
,,,,,,,,,,,,a,Incorrect,,,,,,t3.png,t1.png,2,0.056466,22,Female,2020-10-23_13h48.15.713,torte-q,2020.1.3,Win32,60,12773,0.86695,,,,,0,118,118,29,1,,,,,,,,,,,,,,,,,,,,,,,,,,,,,,,,,,,
,,,,,,,,,,,,l,Incorrect,,,,,,t4.png,t4.png,0,0.98115,22,Female,2020-10-23_13h48.15.713,torte-q,2020.1.3,Win32,60,12773,1.448945,,,,,0,119,119,79,1,,,,,,,,,,,,,,,,,,,,,,,,,,,,,,,,,,,
,,,,,,,,,,,,a,Correct!,,,,,,t2.png,t1.png,1,0.9,22,Female,2020-10-23_13h48.15.713,torte-q,2020.1.3,Win32,60,12773,0.668465,space,26.086545,,,,,,,,space,16.13604,space,53.064025,0,0,0,118,1,,,,,,,,,,,,,,,,,,,,,,,,,,
,,,,,,,,,,,,a,Incorrect,,,,,,t5.png,t2.png,3,0.0000131,22,Female,2020-10-23_13h48.15.713,torte-q,2020.1.3,Win32,60,12773,1.16623,,,,,,,,,,,,,,0,1,1,119,1,,,,,,,,,,,,,,,,,,,,,,,,,,
,,,,,,,,,,,,,Too slow :(,,,,,,t2.png,t4.png,2,0.059078,22,Female,2020-10-23_13h48.15.713,torte-q,2020.1.3,Win32,60,12773,,,,,,,,,,,,,,,0,2,2,77,1,,,,,,,,,,,,,,,,,,,,,,,,,,
,,,,,,,,,,,,,Too slow :(,,,,,,t2.png,t3.png,1,0.90855,22,Female,2020-10-23_13h48.15.713,torte-q,2020.1.3,Win32,60,12773,,,,,,,,,,,,,,,0,3,3,65,1,,,,,,,,,,,,,,,,,,,,,,,,,,
,,,,,,,,,,,,,Too slow :(,,,,,,t4.png,t5.png,1,0.90025,22,Female,2020-10-23_13h48.15.713,torte-q,2020.1.3,Win32,60,12773,,,,,,,,,,,,,,,0,4,4,58,1,,,,,,,,,,,,,,,,,,,,,,,,,,
,,,,,,,,,,,,l,Correct!,,,,,,t1.png,t3.png,2,0.056466,22,Female,2020-10-23_13h48.15.713,torte-q,2020.1.3,Win32,60,12773,1.853225,,,,,,,,,,,,,,0,5,5,69,1,,,,,,,,,,,,,,,,,,,,,,,,,,
,,,,,,,,,,,,l,Correct!,,,,,,t1.png,t3.png,2,0.056466,22,Female,2020-10-23_13h48.15.713,torte-q,2020.1.3,Win32,60,12773,0.58848,,,,,,,,,,,,,,0,6,6,99,1,,,,,,,,,,,,,,,,,,,,,,,,,,
,,,,,,,,,,,,l,Correct!,,,,,,t1.png,t5.png,4,9.55E-11,22,Female,2020-10-23_13h48.15.713,torte-q,2020.1.3,Win32,60,12773,1.621385,,,,,,,,,,,,,,0,7,7,55,1,,,,,,,,,,,,,,,,,,,,,,,,,,
,,,,,,,,,,,,a,Correct!,,,,,,t1.png,t2.png,1,0.9,22,Female,2020-10-23_13h48.15.713,torte-q,2020.1.3,Win32,60,12773,0.773095,,,,,,,,,,,,,,0,8,8,1,1,,,,,,,,,,,,,,,,,,,,,,,,,,
,,,,,,,,,,,,a,Incorrect,,,,,,t5.png,t3.png,2,0.056466,22,Female,2020-10-23_13h48.15.713,torte-q,2020.1.3,Win32,60,12773,2.049405,,,,,,,,,,,,,,0,9,9,108,1,,,,,,,,,,,,,,,,,,,,,,,,,,
,,,,,,,,,,,,a,Correct!,,,,,,t4.png,t3.png,1,0.909,22,Female,2020-10-23_13h48.15.713,torte-q,2020.1.3,Win32,60,12773,2.135015,,,,,,,,,,,,,,0,10,10,46,1,,,,,,,,,,,,,,,,,,,,,,,,,,
,,,,,,,,,,,,a,Incorrect,,,,,,t5.png,t2.png,3,0.0000131,22,Female,2020-10-23_13h48.15.713,torte-q,2020.1.3,Win32,60,12773,1.02426,,,,,,,,,,,,,,0,11,11,91,1,,,,,,,,,,,,,,,,,,,,,,,,,,
,,,,,,,,,,,,a,Correct!,,,,,,t2.png,t3.png,1,0.90855,22,Female,2020-10-23_13h48.15.713,torte-q,2020.1.3,Win32,60,12773,0.73895,,,,,,,,,,,,,,0,12,12,10,1,,,,,,,,,,,,,,,,,,,,,,,,,,
,,,,,,,,,,,,l,Correct!,,,,,,t1.png,t5.png,4,9.55E-11,22,Female,2020-10-23_13h48.15.713,torte-q,2020.1.3,Win32,60,12773,1.32543,,,,,,,,,,,,,,0,13,13,12,1,,,,,,,,,,,,,,,,,,,,,,,,,,
,,,,,,,,,,,,a,Incorrect,,,,,,t5.png,t1.png,4,9.55E-11,22,Female,2020-10-23_13h48.15.713,torte-q,2020.1.3,Win32,60,12773,1.97263,,,,,,,,,,,,,,0,14,14,100,1,,,,,,,,,,,,,,,,,,,,,,,,,,
,,,,,,,,,,,,,Too slow :(,,,,,,t5.png,t5.png,0,0.97829,22,Female,2020-10-23_13h48.15.713,torte-q,2020.1.3,Win32,60,12773,,,,,,,,,,,,,,,0,15,15,94,1,,,,,,,,,,,,,,,,,,,,,,,,,,
,,,,,,,,,,,,l,Correct!,,,,,,t3.png,t1.png,2,0.056466,22,Female,2020-10-23_13h48.15.713,torte-q,2020.1.3,Win32,60,12773,1.433045,,,,,,,,,,,,,,0,16,16,0,1,,,,,,,,,,,,,,,,,,,,,,,,,,
,,,,,,,,,,,,a,Incorrect,,,,,,t4.png,t2.png,2,0.059078,22,Female,2020-10-23_13h48.15.713,torte-q,2020.1.3,Win32,60,12773,1.692145,,,,,,,,,,,,,,0,17,17,86,1,,,,,,,,,,,,,,,,,,,,,,,,,,
,,,,,,,,,,,,l,Incorrect,,,,,,t2.png,t3.png,1,0.90855,22,Female,2020-10-23_13h48.15.713,torte-q,2020.1.3,Win32,60,12773,0.9738,,,,,,,,,,,,,,0,18,18,68,1,,,,,,,,,,,,,,,,,,,,,,,,,,
,,,,,,,,,,,,a,Correct!,,,,,,t4.png,t5.png,1,0.90025,22,Female,2020-10-23_13h48.15.713,torte-q,2020.1.3,Win32,60,12773,0.705575,,,,,,,,,,,,,,0,19,19,103,1,,,,,,,,,,,,,,,,,,,,,,,,,,
,,,,,,,,,,,,a,Incorrect,,,,,,t5.png,t2.png,3,0.0000131,22,Female,2020-10-23_13h48.15.713,torte-q,2020.1.3,Win32,60,12773,0.818805,,,,,,,,,,,,,,0,20,20,51,1,,,,,,,,,,,,,,,,,,,,,,,,,,
,,,,,,,,,,,,l,Correct!,,,,,,t3.png,t4.png,1,0.909,22,Female,2020-10-23_13h48.15.713,torte-q,2020.1.3,Win32,60,12773,1.498855,,,,,,,,,,,,,,0,21,21,82,1,,,,,,,,,,,,,,,,,,,,,,,,,,
,,,,,,,,,,,,a,Incorrect,,,,,,t5.png,t3.png,2,0.056466,22,Female,2020-10-23_13h48.15.713,torte-q,2020.1.3,Win32,60,12773,2.170745,,,,,,,,,,,,,,0,22,22,38,1,,,,,,,,,,,,,,,,,,,,,,,,,,
,,,,,,,,,,,,a,Correct!,,,,,,t2.png,t2.png,0,0.98115,22,Female,2020-10-23_13h48.15.713,torte-q,2020.1.3,Win32,60,12773,1.15267,,,,,,,,,,,,,,0,23,23,57,1,,,,,,,,,,,,,,,,,,,,,,,,,,
,,,,,,,,,,,,l,Correct!,,,,,,t2.png,t4.png,2,0.059078,22,Female,2020-10-23_13h48.15.713,torte-q,2020.1.3,Win32,60,12773,0.905895,,,,,,,,,,,,,,0,24,24,24,1,,,,,,,,,,,,,,,,,,,,,,,,,,
,,,,,,,,,,,,l,Incorrect,,,,,,t2.png,t3.png,1,0.90855,22,Female,2020-10-23_13h48.15.713,torte-q,2020.1.3,Win32,60,12773,1.21594,,,,,,,,,,,,,,0,25,25,111,1,,,,,,,,,,,,,,,,,,,,,,,,,,
,,,,,,,,,,,,l,Correct!,,,,,,t1.png,t4.png,3,0.0000131,22,Female,2020-10-23_13h48.15.713,torte-q,2020.1.3,Win32,60,12773,0.688135,,,,,,,,,,,,,,0,26,26,17,1,,,,,,,,,,,,,,,,,,,,,,,,,,
,,,,,,,,,,,,l,Correct!,,,,,,t1.png,t5.png,4,9.55E-11,22,Female,2020-10-23_13h48.15.713,torte-q,2020.1.3,Win32,60,12773,1.299735,,,,,,,,,,,,,,0,27,27,41,1,,,,,,,,,,,,,,,,,,,,,,,,,,
,,,,,,,,,,,,a,Incorrect,,,,,,t4.png,t2.png,2,0.059078,22,Female,2020-10-23_13h48.15.713,torte-q,2020.1.3,Win32,60,12773,0.75073,,,,,,,,,,,,,,0,28,28,88,1,,,,,,,,,,,,,,,,,,,,,,,,,,
,,,,,,,,,,,,a,Incorrect,,,,,,t1.png,t5.png,4,9.55E-11,22,Female,2020-10-23_13h48.15.713,torte-q,2020.1.3,Win32,60,12773,0.870665,,,,,,,,,,,,,,0,29,29,85,1,,,,,,,,,,,,,,,,,,,,,,,,,,
,,,,,,,,,,,,l,Incorrect,,,,,,t1.png,t2.png,1,0.90025,22,Female,2020-10-23_13h48.15.713,torte-q,2020.1.3,Win32,60,12773,1.82453,,,,,,,,,,,,,,0,30,30,33,1,,,,,,,,,,,,,,,,,,,,,,,,,,
,,,,,,,,,,,,a,Correct!,,,,,,t4.png,t2.png,2,0.059078,22,Female,2020-10-23_13h48.15.713,torte-q,2020.1.3,Win32,60,12773,1.30003,,,,,,,,,,,,,,0,31,31,109,1,,,,,,,,,,,,,,,,,,,,,,,,,,
,,,,,,,,,,,,l,Incorrect,,,,,,t4.png,t5.png,1,0.9,22,Female,2020-10-23_13h48.15.713,torte-q,2020.1.3,Win32,60,12773,1.61894,,,,,,,,,,,,,,0,32,32,115,1,,,,,,,,,,,,,,,,,,,,,,,,,,
,,,,,,,,,,,,a,Correct!,,,,,,t3.png,t2.png,1,0.90855,22,Female,2020-10-23_13h48.15.713,torte-q,2020.1.3,Win32,60,12773,1.232645,,,,,,,,,,,,,,0,33,33,53,1,,,,,,,,,,,,,,,,,,,,,,,,,,
,,,,,,,,,,,,,Too slow :(,,,,,,t4.png,t4.png,0,0.98115,22,Female,2020-10-23_13h48.15.713,torte-q,2020.1.3,Win32,60,12773,,,,,,,,,,,,,,,0,34,34,52,1,,,,,,,,,,,,,,,,,,,,,,,,,,
,,,,,,,,,,,,a,Incorrect,,,,,,t5.png,t2.png,3,0.0000131,22,Female,2020-10-23_13h48.15.713,torte-q,2020.1.3,Win32,60,12773,0.76393,,,,,,,,,,,,,,0,35,35,98,1,,,,,,,,,,,,,,,,,,,,,,,,,,
,,,,,,,,,,,,a,Incorrect,,,,,,t2.png,t5.png,3,0.0000131,22,Female,2020-10-23_13h48.15.713,torte-q,2020.1.3,Win32,60,12773,1.15947,,,,,,,,,,,,,,0,36,36,40,1,,,,,,,,,,,,,,,,,,,,,,,,,,
,,,,,,,,,,,,a,Incorrect,,,,,,t5.png,t3.png,2,0.056466,22,Female,2020-10-23_13h48.15.713,torte-q,2020.1.3,Win32,60,12773,1.258075,,,,,,,,,,,,,,0,37,37,56,1,,,,,,,,,,,,,,,,,,,,,,,,,,
,,,,,,,,,,,,l,Incorrect,,,,,,t1.png,t2.png,1,0.90025,22,Female,2020-10-23_13h48.15.713,torte-q,2020.1.3,Win32,60,12773,1.15479,,,,,,,,,,,,,,0,38,38,112,1,,,,,,,,,,,,,,,,,,,,,,,,,,
,,,,,,,,,,,,l,Incorrect,,,,,,t1.png,t1.png,0,0.97829,22,Female,2020-10-23_13h48.15.713,torte-q,2020.1.3,Win32,60,12773,1.12653,,,,,,,,,,,,,,0,39,39,67,1,,,,,,,,,,,,,,,,,,,,,,,,,,
,,,,,,,,,,,,l,Incorrect,,,,,,t4.png,t4.png,0,0.98115,22,Female,2020-10-23_13h48.15.713,torte-q,2020.1.3,Win32,60,12773,0.82144,,,,,,,,,,,,,,0,40,40,21,1,,,,,,,,,,,,,,,,,,,,,,,,,,
,,,,,,,,,,,,a,Correct!,,,,,,t5.png,t4.png,1,0.90025,22,Female,2020-10-23_13h48.15.713,torte-q,2020.1.3,Win32,60,12773,0.7254,,,,,,,,,,,,,,0,41,41,34,1,,,,,,,,,,,,,,,,,,,,,,,,,,
,,,,,,,,,,,,l,Correct!,,,,,,t5.png,t3.png,2,0.0565,22,Female,2020-10-23_13h48.15.713,torte-q,2020.1.3,Win32,60,12773,1.10791,,,,,,,,,,,,,,0,42,42,39,1,,,,,,,,,,,,,,,,,,,,,,,,,,
,,,,,,,,,,,,,Too slow :(,,,,,,t3.png,t4.png,1,0.90855,22,Female,2020-10-23_13h48.15.713,torte-q,2020.1.3,Win32,60,12773,,,,,,,,,,,,,,,0,43,43,84,1,,,,,,,,,,,,,,,,,,,,,,,,,,
,,,,,,,,,,,,,Too slow :(,,,,,,t3.png,t2.png,1,0.90855,22,Female,2020-10-23_13h48.15.713,torte-q,2020.1.3,Win32,60,12773,,,,,,,,,,,,,,,0,44,44,18,1,,,,,,,,,,,,,,,,,,,,,,,,,,
,,,,,,,,,,,,a,Incorrect,,,,,,t1.png,t3.png,2,0.056466,22,Female,2020-10-23_13h48.15.713,torte-q,2020.1.3,Win32,60,12773,0.716435,,,,,,,,,,,,,,0,45,45,87,1,,,,,,,,,,,,,,,,,,,,,,,,,,
,,,,,,,,,,,,a,Correct!,,,,,,t1.png,t1.png,0,0.978,22,Female,2020-10-23_13h48.15.713,torte-q,2020.1.3,Win32,60,12773,0.726685,,,,,,,,,,,,,,0,46,46,54,1,,,,,,,,,,,,,,,,,,,,,,,,,,
,,,,,,,,,,,,a,Incorrect,,,,,,t4.png,t1.png,3,0.0000131,22,Female,2020-10-23_13h48.15.713,torte-q,2020.1.3,Win32,60,12773,2.004095,,,,,,,,,,,,,,0,47,47,13,1,,,,,,,,,,,,,,,,,,,,,,,,,,
,,,,,,,,,,,,a,Incorrect,,,,,,t3.png,t1.png,2,0.056466,22,Female,2020-10-23_13h48.15.713,torte-q,2020.1.3,Win32,60,12773,0.7684,,,,,,,,,,,,,,0,48,48,29,1,,,,,,,,,,,,,,,,,,,,,,,,,,
,,,,,,,,,,,,l,Incorrect,,,,,,t1.png,t2.png,1,0.90025,22,Female,2020-10-23_13h48.15.713,torte-q,2020.1.3,Win32,60,12773,1.183275,,,,,,,,,,,,,,0,49,49,105,1,,,,,,,,,,,,,,,,,,,,,,,,,,
,,,,,,,,,,,,a,Correct!,,,,,,t3.png,t4.png,1,0.909,22,Female,2020-10-23_13h48.15.713,torte-q,2020.1.3,Win32,60,12773,1.62456,,,,,,,,,,,,,,0,50,50,106,1,,,,,,,,,,,,,,,,,,,,,,,,,,
,,,,,,,,,,,,l,Incorrect,,,,,,t4.png,t4.png,0,0.98115,22,Female,2020-10-23_13h48.15.713,torte-q,2020.1.3,Win32,60,12773,1.118995,,,,,,,,,,,,,,0,51,51,80,1,,,,,,,,,,,,,,,,,,,,,,,,,,
,,,,,,,,,,,,a,Incorrect,,,,,,t5.png,t1.png,4,9.55E-11,22,Female,2020-10-23_13h48.15.713,torte-q,2020.1.3,Win32,60,12773,0.85183,,,,,,,,,,,,,,0,52,52,43,1,,,,,,,,,,,,,,,,,,,,,,,,,,
,,,,,,,,,,,,l,Correct!,,,,,,t4.png,t4.png,0,0.98115,22,Female,2020-10-23_13h48.15.713,torte-q,2020.1.3,Win32,60,12773,2.04269,,,,,,,,,,,,,,0,53,53,79,1,,,,,,,,,,,,,,,,,,,,,,,,,,
,,,,,,,,,,,,l,Correct!,,,,,,t4.png,t1.png,3,0.0000131,22,Female,2020-10-23_13h48.15.713,torte-q,2020.1.3,Win32,60,12773,1.941295,,,,,,,,,,,,,,0,54,54,93,1,,,,,,,,,,,,,,,,,,,,,,,,,,
,,,,,,,,,,,,a,Correct!,,,,,,t3.png,t2.png,1,0.90855,22,Female,2020-10-23_13h48.15.713,torte-q,2020.1.3,Win32,60,12773,0.816355,,,,,,,,,,,,,,0,55,55,97,1,,,,,,,,,,,,,,,,,,,,,,,,,,
,,,,,,,,,,,,a,Incorrect,,,,,,t4.png,t1.png,3,0.0000131,22,Female,2020-10-23_13h48.15.713,torte-q,2020.1.3,Win32,60,12773,0.758,,,,,,,,,,,,,,0,56,56,61,1,,,,,,,,,,,,,,,,,,,,,,,,,,
,,,,,,,,,,,,a,Incorrect,,,,,,t3.png,t1.png,2,0.056466,22,Female,2020-10-23_13h48.15.713,torte-q,2020.1.3,Win32,60,12773,0.791995,,,,,,,,,,,,,,0,57,57,32,1,,,,,,,,,,,,,,,,,,,,,,,,,,
,,,,,,,,,,,,a,Incorrect,,,,,,t4.png,t3.png,1,0.909,22,Female,2020-10-23_13h48.15.713,torte-q,2020.1.3,Win32,60,12773,1.51726,,,,,,,,,,,,,,0,58,58,20,1,,,,,,,,,,,,,,,,,,,,,,,,,,
,,,,,,,,,,,,l,Incorrect,,,,,,t5.png,t4.png,1,0.9,22,Female,2020-10-23_13h48.15.713,torte-q,2020.1.3,Win32,60,12773,1.202275,,,,,,,,,,,,,,0,59,59,76,1,,,,,,,,,,,,,,,,,,,,,,,,,,
,,,,,,,,,,,,,Too slow :(,,,,,,t2.png,t4.png,2,0.0591,22,Female,2020-10-23_13h48.15.713,torte-q,2020.1.3,Win32,60,12773,,,,,,,,,,,,,,,0,60,60,15,1,,,,,,,,,,,,,,,,,,,,,,,,,,
,,,,,,,,,,,,l,Incorrect,,,,,,t4.png,t5.png,1,0.90025,22,Female,2020-10-23_13h48.15.713,torte-q,2020.1.3,Win32,60,12773,1.332795,,,,,,,,,,,,,,0,61,61,113,1,,,,,,,,,,,,,,,,,,,,,,,,,,
,,,,,,,,,,,,l,Correct!,,,,,,t1.png,t4.png,3,0.0000131,22,Female,2020-10-23_13h48.15.713,torte-q,2020.1.3,Win32,60,12773,0.788505,,,,,,,,,,,,,,0,62,62,81,1,,,,,,,,,,,,,,,,,,,,,,,,,,
,,,,,,,,,,,,l,Correct!,,,,,,t2.png,t5.png,3,0.0000131,22,Female,2020-10-23_13h48.15.713,torte-q,2020.1.3,Win32,60,12773,1.125325,,,,,,,,,,,,,,0,63,63,95,1,,,,,,,,,,,,,,,,,,,,,,,,,,
,,,,,,,,,,,,a,Incorrect,,,,,,t2.png,t5.png,3,0.0000131,22,Female,2020-10-23_13h48.15.713,torte-q,2020.1.3,Win32,60,12773,1.106725,,,,,,,,,,,,,,0,64,64,104,1,,,,,,,,,,,,,,,,,,,,,,,,,,
,,,,,,,,,,,,a,Incorrect,,,,,,t3.png,t5.png,2,0.0565,22,Female,2020-10-23_13h48.15.713,torte-q,2020.1.3,Win32,60,12773,0.391965,,,,,,,,,,,,,,0,65,65,30,1,,,,,,,,,,,,,,,,,,,,,,,,,,
,,,,,,,,,,,,a,Incorrect,,,,,,t4.png,t2.png,2,0.0591,22,Female,2020-10-23_13h48.15.713,torte-q,2020.1.3,Win32,60,12773,1.466245,,,,,,,,,,,,,,0,66,66,36,1,,,,,,,,,,,,,,,,,,,,,,,,,,
,,,,,,,,,,,,a,Correct!,,,,,,t4.png,t3.png,1,0.90855,22,Female,2020-10-23_13h48.15.713,torte-q,2020.1.3,Win32,60,12773,0.832625,,,,,,,,,,,,,,0,67,67,35,1,,,,,,,,,,,,,,,,,,,,,,,,,,
,,,,,,,,,,,,l,Incorrect,,,,,,t1.png,t2.png,1,0.90025,22,Female,2020-10-23_13h48.15.713,torte-q,2020.1.3,Win32,60,12773,1.035165,,,,,,,,,,,,,,0,68,68,72,1,,,,,,,,,,,,,,,,,,,,,,,,,,
,,,,,,,,,,,,a,Correct!,,,,,,t2.png,t1.png,1,0.90025,22,Female,2020-10-23_13h48.15.713,torte-q,2020.1.3,Win32,60,12773,0.666305,,,,,,,,,,,,,,0,69,69,62,1,,,,,,,,,,,,,,,,,,,,,,,,,,
,,,,,,,,,,,,l,Incorrect,,,,,,t5.png,t5.png,0,0.978,22,Female,2020-10-23_13h48.15.713,torte-q,2020.1.3,Win32,60,12773,1.419555,,,,,,,,,,,,,,0,70,70,117,1,,,,,,,,,,,,,,,,,,,,,,,,,,
,,,,,,,,,,,,l,Correct!,,,,,,t2.png,t5.png,3,0.0000131,22,Female,2020-10-23_13h48.15.713,torte-q,2020.1.3,Win32,60,12773,0.552575,,,,,,,,,,,,,,0,71,71,66,1,,,,,,,,,,,,,,,,,,,,,,,,,,
,,,,,,,,,,,,a,Incorrect,,,,,,t5.png,t2.png,3,0.0000131,22,Female,2020-10-23_13h48.15.713,torte-q,2020.1.3,Win32,60,12773,0.855565,,,,,,,,,,,,,,0,72,72,116,1,,,,,,,,,,,,,,,,,,,,,,,,,,
,,,,,,,,,,,,a,Correct!,,,,,,t3.png,t4.png,1,0.90855,22,Female,2020-10-23_13h48.15.713,torte-q,2020.1.3,Win32,60,12773,0.7663,,,,,,,,,,,,,,0,73,73,96,1,,,,,,,,,,,,,,,,,,,,,,,,,,
,,,,,,,,,,,,a,Correct!,,,,,,t4.png,t4.png,0,0.98115,22,Female,2020-10-23_13h48.15.713,torte-q,2020.1.3,Win32,60,12773,0.62441,,,,,,,,,,,,,,0,74,74,90,1,,,,,,,,,,,,,,,,,,,,,,,,,,
,,,,,,,,,,,,l,Incorrect,,,,,,t1.png,t1.png,0,0.97829,22,Female,2020-10-23_13h48.15.713,torte-q,2020.1.3,Win32,60,12773,0.819965,,,,,,,,,,,,,,0,75,75,9,1,,,,,,,,,,,,,,,,,,,,,,,,,,
,,,,,,,,,,,,a,Correct!,,,,,,t5.png,t5.png,0,0.97829,22,Female,2020-10-23_13h48.15.713,torte-q,2020.1.3,Win32,60,12773,0.775365,,,,,,,,,,,,,,0,76,76,70,1,,,,,,,,,,,,,,,,,,,,,,,,,,
,,,,,,,,,,,,a,Correct!,,,,,,t5.png,t4.png,1,0.9,22,Female,2020-10-23_13h48.15.713,torte-q,2020.1.3,Win32,60,12773,1.202245,,,,,,,,,,,,,,0,77,77,49,1,,,,,,,,,,,,,,,,,,,,,,,,,,
,,,,,,,,,,,,a,Correct!,,,,,,t5.png,t5.png,0,0.97829,22,Female,2020-10-23_13h48.15.713,torte-q,2020.1.3,Win32,60,12773,0.71642,,,,,,,,,,,,,,0,78,78,73,1,,,,,,,,,,,,,,,,,,,,,,,,,,
,,,,,,,,,,,,a,Correct!,,,,,,t2.png,t1.png,1,0.90025,22,Female,2020-10-23_13h48.15.713,torte-q,2020.1.3,Win32,60,12773,1.100325,,,,,,,,,,,,,,0,79,79,5,1,,,,,,,,,,,,,,,,,,,,,,,,,,
,,,,,,,,,,,,l,Incorrect,,,,,,t3.png,t2.png,1,0.909,22,Female,2020-10-23_13h48.15.713,torte-q,2020.1.3,Win32,60,12773,1.10526,,,,,,,,,,,,,,0,80,80,23,1,,,,,,,,,,,,,,,,,,,,,,,,,,
,,,,,,,,,,,,a,Correct!,,,,,,t4.png,t3.png,1,0.90855,22,Female,2020-10-23_13h48.15.713,torte-q,2020.1.3,Win32,60,12773,0.51666,,,,,,,,,,,,,,0,81,81,45,1,,,,,,,,,,,,,,,,,,,,,,,,,,
,,,,,,,,,,,,l,Incorrect,,,,,,t5.png,t4.png,1,0.90025,22,Female,2020-10-23_13h48.15.713,torte-q,2020.1.3,Win32,60,12773,0.852965,,,,,,,,,,,,,,0,82,82,26,1,,,,,,,,,,,,,,,,,,,,,,,,,,
,,,,,,,,,,,,a,Correct!,,,,,,t4.png,t5.png,1,0.90025,22,Female,2020-10-23_13h48.15.713,torte-q,2020.1.3,Win32,60,12773,0.583385,,,,,,,,,,,,,,0,83,83,47,1,,,,,,,,,,,,,,,,,,,,,,,,,,
,,,,,,,,,,,,a,Correct!,,,,,,t4.png,t3.png,1,0.90855,22,Female,2020-10-23_13h48.15.713,torte-q,2020.1.3,Win32,60,12773,1.13929,,,,,,,,,,,,,,0,84,84,75,1,,,,,,,,,,,,,,,,,,,,,,,,,,
,,,,,,,,,,,,a,Incorrect,,,,,,t5.png,t3.png,2,0.056466,22,Female,2020-10-23_13h48.15.713,torte-q,2020.1.3,Win32,60,12773,0.60909,,,,,,,,,,,,,,0,85,85,114,1,,,,,,,,,,,,,,,,,,,,,,,,,,
,,,,,,,,,,,,a,Incorrect,,,,,,t1.png,t4.png,3,0.0000131,22,Female,2020-10-23_13h48.15.713,torte-q,2020.1.3,Win32,60,12773,1.049485,,,,,,,,,,,,,,0,86,86,107,1,,,,,,,,,,,,,,,,,,,,,,,,,,
,,,,,,,,,,,,l,Incorrect,,,,,,t1.png,t1.png,0,0.97829,22,Female,2020-10-23_13h48.15.713,torte-q,2020.1.3,Win32,60,12773,0.420215,,,,,,,,,,,,,,0,87,87,78,1,,,,,,,,,,,,,,,,,,,,,,,,,,
,,,,,,,,,,,,l,Incorrect,,,,,,t2.png,t2.png,0,0.98115,22,Female,2020-10-23_13h48.15.713,torte-q,2020.1.3,Win32,60,12773,0.889285,,,,,,,,,,,,,,0,88,88,7,1,,,,,,,,,,,,,,,,,,,,,,,,,,
,,,,,,,,,,,,l,Incorrect,,,,,,t2.png,t2.png,0,0.98115,22,Female,2020-10-23_13h48.15.713,torte-q,2020.1.3,Win32,60,12773,0.967035,,,,,,,,,,,,,,0,89,89,59,1,,,,,,,,,,,,,,,,,,,,,,,,,,
,,,,,,,,,,,,a,Incorrect,,,,,,t5.png,t1.png,4,9.55E-11,22,Female,2020-10-23_13h48.15.713,torte-q,2020.1.3,Win32,60,12773,1.802215,,,,,,,,,,,,,,0,90,90,71,1,,,,,,,,,,,,,,,,,,,,,,,,,,
,,,,,,,,,,,,a,Correct!,,,,,,t2.png,t3.png,1,0.909,22,Female,2020-10-23_13h48.15.713,torte-q,2020.1.3,Win32,60,12773,0.67238,,,,,,,,,,,,,,0,91,91,74,1,,,,,,,,,,,,,,,,,,,,,,,,,,
,,,,,,,,,,,,a,Incorrect,,,,,,t3.png,t5.png,2,0.056466,22,Female,2020-10-23_13h48.15.713,torte-q,2020.1.3,Win32,60,12773,1.01624,,,,,,,,,,,,,,0,92,92,44,1,,,,,,,,,,,,,,,,,,,,,,,,,,
,,,,,,,,,,,,a,Incorrect,,,,,,t3.png,t5.png,2,0.0565,22,Female,2020-10-23_13h48.15.713,torte-q,2020.1.3,Win32,60,12773,0.688895,,,,,,,,,,,,,,0,93,93,83,1,,,,,,,,,,,,,,,,,,,,,,,,,,
,,,,,,,,,,,,a,Incorrect,,,,,,t5.png,t1.png,4,9.55E-11,22,Female,2020-10-23_13h48.15.713,torte-q,2020.1.3,Win32,60,12773,0.63734,,,,,,,,,,,,,,0,94,94,102,1,,,,,,,,,,,,,,,,,,,,,,,,,,
,,,,,,,,,,,,l,Incorrect,,,,,,t1.png,t1.png,0,0.978,22,Female,2020-10-23_13h48.15.713,torte-q,2020.1.3,Win32,60,12773,0.5161,,,,,,,,,,,,,,0,95,95,28,1,,,,,,,,,,,,,,,,,,,,,,,,,,
,,,,,,,,,,,,a,Incorrect,,,,,,t4.png,t2.png,2,0.059078,22,Female,2020-10-23_13h48.15.713,torte-q,2020.1.3,Win32,60,12773,0.575815,,,,,,,,,,,,,,0,96,96,110,1,,,,,,,,,,,,,,,,,,,,,,,,,,
,,,,,,,,,,,,a,Incorrect,,,,,,t5.png,t1.png,4,9.55E-11,22,Female,2020-10-23_13h48.15.713,torte-q,2020.1.3,Win32,60,12773,1.49964,,,,,,,,,,,,,,0,97,97,22,1,,,,,,,,,,,,,,,,,,,,,,,,,,
,,,,,,,,,,,,l,Incorrect,,,,,,t2.png,t1.png,1,0.90025,22,Female,2020-10-23_13h48.15.713,torte-q,2020.1.3,Win32,60,12773,0.53777,,,,,,,,,,,,,,0,98,98,4,1,,,,,,,,,,,,,,,,,,,,,,,,,,
,,,,,,,,,,,,l,Correct!,,,,,,t1.png,t3.png,2,0.056466,22,Female,2020-10-23_13h48.15.713,torte-q,2020.1.3,Win32,60,12773,0.70439,,,,,,,,,,,,,,0,99,99,63,1,,,,,,,,,,,,,,,,,,,,,,,,,,
,,,,,,,,,,,,,Too slow :(,,,,,,t2.png,t4.png,2,0.059078,22,Female,2020-10-23_13h48.15.713,torte-q,2020.1.3,Win32,60,12773,,,,,,,,,,,,,,,0,100,100,11,1,,,,,,,,,,,,,,,,,,,,,,,,,,
,,,,,,,,,,,,l,Incorrect,,,,,,t3.png,t4.png,1,0.909,22,Female,2020-10-23_13h48.15.713,torte-q,2020.1.3,Win32,60,12773,0.53439,,,,,,,,,,,,,,0,101,101,89,1,,,,,,,,,,,,,,,,,,,,,,,,,,
,,,,,,,,,,,,a,Correct!,,,,,,t3.png,t2.png,1,0.909,22,Female,2020-10-23_13h48.15.713,torte-q,2020.1.3,Win32,60,12773,0.319495,,,,,,,,,,,,,,0,102,102,3,1,,,,,,,,,,,,,,,,,,,,,,,,,,
,,,,,,,,,,,,a,Incorrect,,,,,,t1.png,t4.png,3,0.0000131,22,Female,2020-10-23_13h48.15.713,torte-q,2020.1.3,Win32,60,12773,0.4058,,,,,,,,,,,,,,0,103,103,92,1,,,,,,,,,,,,,,,,,,,,,,,,,,
,,,,,,,,,,,,l,Correct!,,,,,,t3.png,t5.png,2,0.056466,22,Female,2020-10-23_13h48.15.713,torte-q,2020.1.3,Win32,60,12773,0.40237,,,,,,,,,,,,,,0,104,104,6,1,,,,,,,,,,,,,,,,,,,,,,,,,,
,,,,,,,,,,,,a,Correct!,,,,,,t5.png,t4.png,1,0.90025,22,Female,2020-10-23_13h48.15.713,torte-q,2020.1.3,Win32,60,12773,0.84969,,,,,,,,,,,,,,0,105,105,27,1,,,,,,,,,,,,,,,,,,,,,,,,,,
,,,,,,,,,,,,a,Incorrect,,,,,,t4.png,t1.png,3,0.0000131,22,Female,2020-10-23_13h48.15.713,torte-q,2020.1.3,Win32,60,12773,0.57434,,,,,,,,,,,,,,0,106,106,48,1,,,,,,,,,,,,,,,,,,,,,,,,,,
,,,,,,,,,,,,a,Incorrect,,,,,,t2.png,t4.png,2,0.059078,22,Female,2020-10-23_13h48.15.713,torte-q,2020.1.3,Win32,60,12773,0.69179,,,,,,,,,,,,,,0,107,107,37,1,,,,,,,,,,,,,,,,,,,,,,,,,,
,,,,,,,,,,,,a,Incorrect,,,,,,t1.png,t3.png,2,0.056466,22,Female,2020-10-23_13h48.15.713,torte-q,2020.1.3,Win32,60,12773,0.656875,,,,,,,,,,,,,,0,108,108,60,1,,,,,,,,,,,,,,,,,,,,,,,,,,
,,,,,,,,,,,,a,Incorrect,,,,,,t3.png,t1.png,2,0.0565,22,Female,2020-10-23_13h48.15.713,torte-q,2020.1.3,Win32,60,12773,0.58682,,,,,,,,,,,,,,0,109,109,31,1,,,,,,,,,,,,,,,,,,,,,,,,,,
,,,,,,,,,,,,a,Incorrect,,,,,,t3.png,t1.png,2,0.056466,22,Female,2020-10-23_13h48.15.713,torte-q,2020.1.3,Win32,60,12773,0.666515,,,,,,,,,,,,,,0,110,110,64,1,,,,,,,,,,,,,,,,,,,,,,,,,,
,,,,,,,,,,,,a,Correct!,,,,,,t5.png,t5.png,0,0.97829,22,Female,2020-10-23_13h48.15.713,torte-q,2020.1.3,Win32,60,12773,0.67063,,,,,,,,,,,,,,0,111,111,25,1,,,,,,,,,,,,,,,,,,,,,,,,,,
,,,,,,,,,,,,a,Correct!,,,,,,t2.png,t2.png,0,0.981,22,Female,2020-10-23_13h48.15.713,torte-q,2020.1.3,Win32,60,12773,0.902845,,,,,,,,,,,,,,0,112,112,101,1,,,,,,,,,,,,,,,,,,,,,,,,,,
,,,,,,,,,,,,l,Correct!,,,,,,t1.png,t4.png,3,0.0000131,22,Female,2020-10-23_13h48.15.713,torte-q,2020.1.3,Win32,60,12773,0.51597,,,,,,,,,,,,,,0,113,113,50,1,,,,,,,,,,,,,,,,,,,,,,,,,,
,,,,,,,,,,,,l,Correct!,,,,,,t4.png,t1.png,3,0.0000131,22,Female,2020-10-23_13h48.15.713,torte-q,2020.1.3,Win32,60,12773,1.38657,,,,,,,,,,,,,,0,114,114,42,1,,,,,,,,,,,,,,,,,,,,,,,,,,
,,,,,,,,,,,,a,Incorrect,,,,,,t1.png,t5.png,4,9.55E-11,22,Female,2020-10-23_13h48.15.713,torte-q,2020.1.3,Win32,60,12773,0.74927,,,,,,,,,,,,,,0,115,115,16,1,,,,,,,,,,,,,,,,,,,,,,,,,,
,,,,,,,,,,,,l,Incorrect,,,,,,t2.png,t2.png,0,0.98115,22,Female,2020-10-23_13h48.15.713,torte-q,2020.1.3,Win32,60,12773,0.816275,,,,,,,,,,,,,,0,116,116,2,1,,,,,,,,,,,,,,,,,,,,,,,,,,
,,,,,,,,,,,,l,Incorrect,,,,,,t2.png,t1.png,1,0.90025,22,Female,2020-10-23_13h48.15.713,torte-q,2020.1.3,Win32,60,12773,0.48386,,,,,,,,,,,,,,0,117,117,19,1,,,,,,,,,,,,,,,,,,,,,,,,,,
,,,,,,,,,,,,a,Incorrect,,,,,,t3.png,t5.png,2,0.056466,22,Female,2020-10-23_13h48.15.713,torte-q,2020.1.3,Win32,60,12773,0.822605,,,,,,,,,,,,,,0,118,118,14,1,,,,,,,,,,,,,,,,,,,,,,,,,,
,,,,,,,,,,,,a,Incorrect,,,,,,t2.png,t5.png,3,0.0000131,22,Female,2020-10-23_13h48.15.713,torte-q,2020.1.3,Win32,60,12773,1.41344,,,,,,,,,,,,,,0,119,119,8,1,,,,,,,,,,,,,,,,,,,,,,,,,,
,,,,,,,,,,,,,,,,,,,,,,,22,Female,2020-10-23_13h48.15.713,torte-q,2020.1.3,Win32,60,12773,,space,2.066925,,,,,,,,,,,,,,,,,2.902000046,5.68993,56.00001037,64.7999956,1,0,0,s3,34.40001005,31.19997069,1,0,0,t2,257.6000134,-109.600007,1,0,0,proceed,space,0.16821,space,4.10067,space,0.71888
