key_resp_8.keys,key_resp_8.rt,key_resp_9.keys,key_resp_9.rt,key_resp_10.keys,key_resp_10.rt,key_resp_11.keys,key_resp_11.rt,key_resp_2.keys,key_resp_2.rt,key_resp_3.keys,key_resp_3.rt,key_resp.keys,Feedback,train.thisRepN,train.thisTrialN,train.thisN,train.thisIndex,train.ran,torta_sx,torta_dx,difference,probability,age,gender,date,expName,psychopyVersion,OS,frameRate,participant,key_resp.rt,key_resp_15.keys,key_resp_15.rt,key_resp_6.keys,key_resp_6.rt,test1.thisRepN,test1.thisTrialN,test1.thisN,test1.thisIndex,test1.ran,key_resp_16.keys,key_resp_16.rt,key_resp_7.keys,key_resp_7.rt,test2.thisRepN,test2.thisTrialN,test2.thisN,test2.thisIndex,test2.ran,rating.response,rating.rt,mouse.x,mouse.y,mouse.leftButton,mouse.midButton,mouse.rightButton,mouse.clicked_name,mouse_2.x,mouse_2.y,mouse_2.leftButton,mouse_2.midButton,mouse_2.rightButton,mouse_2.clicked_name,mouse_3.x,mouse_3.y,mouse_3.leftButton,mouse_3.midButton,mouse_3.rightButton,mouse_3.clicked_name,key_resp_12.keys,key_resp_12.rt,key_resp_13.keys,key_resp_13.rt,key_resp_14.keys,key_resp_14.rt
space,3.12056,space,9.362335,space,0.98832,space,6.379105,space,32.46134,space,85.28863,,Too slow :(,0,0,0,57,1,t2.png,t4.png,2,0.059078,20,female,2020-11-11_23h51.08.927,torte-q,2020.1.3,Win32,60,12914,,,,,,,,,,,,,,,,,,,,,,,,,,,,,,,,,,,,,,,,,,,,,
,,,,,,,,,,,,a,Correct!,0,1,1,77,1,t1.png,t1.png,0,0.97829,20,female,2020-11-11_23h51.08.927,torte-q,2020.1.3,Win32,60,12914,0.52813,,,,,,,,,,,,,,,,,,,,,,,,,,,,,,,,,,,,,,,,,,,,
,,,,,,,,,,,,l,Incorrect,0,2,2,113,1,t5.png,t4.png,1,0.9,20,female,2020-11-11_23h51.08.927,torte-q,2020.1.3,Win32,60,12914,0.834665,,,,,,,,,,,,,,,,,,,,,,,,,,,,,,,,,,,,,,,,,,,,
,,,,,,,,,,,,l,Correct!,0,3,3,91,1,t1.png,t4.png,3,0.0000131,20,female,2020-11-11_23h51.08.927,torte-q,2020.1.3,Win32,60,12914,0.990185,,,,,,,,,,,,,,,,,,,,,,,,,,,,,,,,,,,,,,,,,,,,
,,,,,,,,,,,,l,Incorrect,0,4,4,65,1,t4.png,t5.png,1,0.90025,20,female,2020-11-11_23h51.08.927,torte-q,2020.1.3,Win32,60,12914,1.580635,,,,,,,,,,,,,,,,,,,,,,,,,,,,,,,,,,,,,,,,,,,,
,,,,,,,,,,,,l,Correct!,0,5,5,4,1,t1.png,t5.png,4,9.55E-11,20,female,2020-11-11_23h51.08.927,torte-q,2020.1.3,Win32,60,12914,0.996725,,,,,,,,,,,,,,,,,,,,,,,,,,,,,,,,,,,,,,,,,,,,
,,,,,,,,,,,,l,Correct!,0,6,6,117,1,t1.png,t5.png,4,9.55E-11,20,female,2020-11-11_23h51.08.927,torte-q,2020.1.3,Win32,60,12914,0.82229,,,,,,,,,,,,,,,,,,,,,,,,,,,,,,,,,,,,,,,,,,,,
,,,,,,,,,,,,a,Incorrect,0,7,7,26,1,t4.png,t2.png,2,0.0591,20,female,2020-11-11_23h51.08.927,torte-q,2020.1.3,Win32,60,12914,0.748795,,,,,,,,,,,,,,,,,,,,,,,,,,,,,,,,,,,,,,,,,,,,
,,,,,,,,,,,,l,Correct!,0,8,8,89,1,t1.png,t4.png,3,0.0000131,20,female,2020-11-11_23h51.08.927,torte-q,2020.1.3,Win32,60,12914,0.780165,,,,,,,,,,,,,,,,,,,,,,,,,,,,,,,,,,,,,,,,,,,,
,,,,,,,,,,,,a,Incorrect,0,9,9,53,1,t3.png,t1.png,2,0.056466,20,female,2020-11-11_23h51.08.927,torte-q,2020.1.3,Win32,60,12914,0.974145,,,,,,,,,,,,,,,,,,,,,,,,,,,,,,,,,,,,,,,,,,,,
,,,,,,,,,,,,a,Incorrect,0,10,10,71,1,t5.png,t5.png,0,0.97829,20,female,2020-11-11_23h51.08.927,torte-q,2020.1.3,Win32,60,12914,0.685385,,,,,,,,,,,,,,,,,,,,,,,,,,,,,,,,,,,,,,,,,,,,
,,,,,,,,,,,,a,Incorrect,0,11,11,30,1,t3.png,t1.png,2,0.056466,20,female,2020-11-11_23h51.08.927,torte-q,2020.1.3,Win32,60,12914,0.874875,,,,,,,,,,,,,,,,,,,,,,,,,,,,,,,,,,,,,,,,,,,,
,,,,,,,,,,,,l,Incorrect,0,12,12,85,1,t3.png,t2.png,1,0.90855,20,female,2020-11-11_23h51.08.927,torte-q,2020.1.3,Win32,60,12914,0.991035,,,,,,,,,,,,,,,,,,,,,,,,,,,,,,,,,,,,,,,,,,,,
,,,,,,,,,,,,a,Correct!,0,13,13,21,1,t5.png,t4.png,1,0.90025,20,female,2020-11-11_23h51.08.927,torte-q,2020.1.3,Win32,60,12914,0.955615,,,,,,,,,,,,,,,,,,,,,,,,,,,,,,,,,,,,,,,,,,,,
,,,,,,,,,,,,l,Incorrect,0,14,14,109,1,t5.png,t5.png,0,0.97829,20,female,2020-11-11_23h51.08.927,torte-q,2020.1.3,Win32,60,12914,1.079585,,,,,,,,,,,,,,,,,,,,,,,,,,,,,,,,,,,,,,,,,,,,
,,,,,,,,,,,,a,Correct!,0,15,15,97,1,t5.png,t5.png,0,0.97829,20,female,2020-11-11_23h51.08.927,torte-q,2020.1.3,Win32,60,12914,0.69087,,,,,,,,,,,,,,,,,,,,,,,,,,,,,,,,,,,,,,,,,,,,
,,,,,,,,,,,,l,Correct!,0,16,16,46,1,t4.png,t2.png,2,0.059078,20,female,2020-11-11_23h51.08.927,torte-q,2020.1.3,Win32,60,12914,0.88127,,,,,,,,,,,,,,,,,,,,,,,,,,,,,,,,,,,,,,,,,,,,
,,,,,,,,,,,,l,Correct!,0,17,17,108,1,t5.png,t1.png,4,9.55E-11,20,female,2020-11-11_23h51.08.927,torte-q,2020.1.3,Win32,60,12914,1.05744,,,,,,,,,,,,,,,,,,,,,,,,,,,,,,,,,,,,,,,,,,,,
,,,,,,,,,,,,l,Incorrect,0,18,18,62,1,t5.png,t5.png,0,0.978,20,female,2020-11-11_23h51.08.927,torte-q,2020.1.3,Win32,60,12914,0.930775,,,,,,,,,,,,,,,,,,,,,,,,,,,,,,,,,,,,,,,,,,,,
,,,,,,,,,,,,l,Correct!,0,19,19,33,1,t5.png,t1.png,4,9.55E-11,20,female,2020-11-11_23h51.08.927,torte-q,2020.1.3,Win32,60,12914,0.717095,,,,,,,,,,,,,,,,,,,,,,,,,,,,,,,,,,,,,,,,,,,,
,,,,,,,,,,,,a,Incorrect,0,20,20,11,1,t1.png,t4.png,3,0.0000131,20,female,2020-11-11_23h51.08.927,torte-q,2020.1.3,Win32,60,12914,0.82382,,,,,,,,,,,,,,,,,,,,,,,,,,,,,,,,,,,,,,,,,,,,
,,,,,,,,,,,,l,Correct!,0,21,21,47,1,t4.png,t2.png,2,0.059078,20,female,2020-11-11_23h51.08.927,torte-q,2020.1.3,Win32,60,12914,1.297955,,,,,,,,,,,,,,,,,,,,,,,,,,,,,,,,,,,,,,,,,,,,
,,,,,,,,,,,,a,Correct!,0,22,22,58,1,t5.png,t4.png,1,0.90025,20,female,2020-11-11_23h51.08.927,torte-q,2020.1.3,Win32,60,12914,1.135245,,,,,,,,,,,,,,,,,,,,,,,,,,,,,,,,,,,,,,,,,,,,
,,,,,,,,,,,,l,Correct!,0,23,23,51,1,t3.png,t1.png,2,0.056466,20,female,2020-11-11_23h51.08.927,torte-q,2020.1.3,Win32,60,12914,0.78937,,,,,,,,,,,,,,,,,,,,,,,,,,,,,,,,,,,,,,,,,,,,
,,,,,,,,,,,,a,Incorrect,0,24,24,93,1,t2.png,t4.png,2,0.059078,20,female,2020-11-11_23h51.08.927,torte-q,2020.1.3,Win32,60,12914,0.868735,,,,,,,,,,,,,,,,,,,,,,,,,,,,,,,,,,,,,,,,,,,,
,,,,,,,,,,,,l,Incorrect,0,25,25,9,1,t4.png,t5.png,1,0.9,20,female,2020-11-11_23h51.08.927,torte-q,2020.1.3,Win32,60,12914,0.98507,,,,,,,,,,,,,,,,,,,,,,,,,,,,,,,,,,,,,,,,,,,,
,,,,,,,,,,,,a,Correct!,0,26,26,20,1,t2.png,t3.png,1,0.90855,20,female,2020-11-11_23h51.08.927,torte-q,2020.1.3,Win32,60,12914,0.947715,,,,,,,,,,,,,,,,,,,,,,,,,,,,,,,,,,,,,,,,,,,,
,,,,,,,,,,,,a,Incorrect,0,27,27,0,1,t5.png,t1.png,4,9.55E-11,20,female,2020-11-11_23h51.08.927,torte-q,2020.1.3,Win32,60,12914,1.15555,,,,,,,,,,,,,,,,,,,,,,,,,,,,,,,,,,,,,,,,,,,,
,,,,,,,,,,,,l,Incorrect,0,28,28,8,1,t3.png,t2.png,1,0.90855,20,female,2020-11-11_23h51.08.927,torte-q,2020.1.3,Win32,60,12914,0.91467,,,,,,,,,,,,,,,,,,,,,,,,,,,,,,,,,,,,,,,,,,,,
,,,,,,,,,,,,l,Incorrect,0,29,29,107,1,t1.png,t1.png,0,0.978,20,female,2020-11-11_23h51.08.927,torte-q,2020.1.3,Win32,60,12914,0.952305,,,,,,,,,,,,,,,,,,,,,,,,,,,,,,,,,,,,,,,,,,,,
,,,,,,,,,,,,a,Correct!,0,30,30,59,1,t5.png,t4.png,1,0.9,20,female,2020-11-11_23h51.08.927,torte-q,2020.1.3,Win32,60,12914,1.499475,,,,,,,,,,,,,,,,,,,,,,,,,,,,,,,,,,,,,,,,,,,,
,,,,,,,,,,,,l,Correct!,0,31,31,3,1,t1.png,t5.png,4,9.55E-11,20,female,2020-11-11_23h51.08.927,torte-q,2020.1.3,Win32,60,12914,0.9047,,,,,,,,,,,,,,,,,,,,,,,,,,,,,,,,,,,,,,,,,,,,
,,,,,,,,,,,,l,Correct!,0,32,32,56,1,t5.png,t1.png,4,9.55E-11,20,female,2020-11-11_23h51.08.927,torte-q,2020.1.3,Win32,60,12914,0.96502,,,,,,,,,,,,,,,,,,,,,,,,,,,,,,,,,,,,,,,,,,,,
,,,,,,,,,,,,l,Correct!,0,33,33,87,1,t5.png,t1.png,4,9.55E-11,20,female,2020-11-11_23h51.08.927,torte-q,2020.1.3,Win32,60,12914,0.72908,,,,,,,,,,,,,,,,,,,,,,,,,,,,,,,,,,,,,,,,,,,,
,,,,,,,,,,,,a,Incorrect,0,34,34,27,1,t3.png,t1.png,2,0.0565,20,female,2020-11-11_23h51.08.927,torte-q,2020.1.3,Win32,60,12914,1.14924,,,,,,,,,,,,,,,,,,,,,,,,,,,,,,,,,,,,,,,,,,,,
,,,,,,,,,,,,a,Correct!,0,35,35,118,1,t5.png,t5.png,0,0.978,20,female,2020-11-11_23h51.08.927,torte-q,2020.1.3,Win32,60,12914,1.54576,,,,,,,,,,,,,,,,,,,,,,,,,,,,,,,,,,,,,,,,,,,,
,,,,,,,,,,,,l,Correct!,0,36,36,1,1,t2.png,t4.png,2,0.059078,20,female,2020-11-11_23h51.08.927,torte-q,2020.1.3,Win32,60,12914,0.947255,,,,,,,,,,,,,,,,,,,,,,,,,,,,,,,,,,,,,,,,,,,,
,,,,,,,,,,,,l,Correct!,0,37,37,52,1,t2.png,t4.png,2,0.059078,20,female,2020-11-11_23h51.08.927,torte-q,2020.1.3,Win32,60,12914,1.007365,,,,,,,,,,,,,,,,,,,,,,,,,,,,,,,,,,,,,,,,,,,,
,,,,,,,,,,,,l,Correct!,0,38,38,102,1,t4.png,t2.png,2,0.059078,20,female,2020-11-11_23h51.08.927,torte-q,2020.1.3,Win32,60,12914,1.120155,,,,,,,,,,,,,,,,,,,,,,,,,,,,,,,,,,,,,,,,,,,,
,,,,,,,,,,,,l,Correct!,0,39,39,103,1,t3.png,t1.png,2,0.056466,20,female,2020-11-11_23h51.08.927,torte-q,2020.1.3,Win32,60,12914,0.756015,,,,,,,,,,,,,,,,,,,,,,,,,,,,,,,,,,,,,,,,,,,,
,,,,,,,,,,,,a,Incorrect,0,40,40,54,1,t1.png,t5.png,4,9.55E-11,20,female,2020-11-11_23h51.08.927,torte-q,2020.1.3,Win32,60,12914,1.33888,,,,,,,,,,,,,,,,,,,,,,,,,,,,,,,,,,,,,,,,,,,,
,,,,,,,,,,,,l,Incorrect,0,41,41,7,1,t4.png,t5.png,1,0.90025,20,female,2020-11-11_23h51.08.927,torte-q,2020.1.3,Win32,60,12914,1.37206,,,,,,,,,,,,,,,,,,,,,,,,,,,,,,,,,,,,,,,,,,,,
,,,,,,,,,,,,a,Incorrect,0,42,42,24,1,t4.png,t2.png,2,0.059078,20,female,2020-11-11_23h51.08.927,torte-q,2020.1.3,Win32,60,12914,0.654365,,,,,,,,,,,,,,,,,,,,,,,,,,,,,,,,,,,,,,,,,,,,
,,,,,,,,,,,,l,Correct!,0,43,43,61,1,t1.png,t4.png,3,0.0000131,20,female,2020-11-11_23h51.08.927,torte-q,2020.1.3,Win32,60,12914,0.742595,,,,,,,,,,,,,,,,,,,,,,,,,,,,,,,,,,,,,,,,,,,,
,,,,,,,,,,,,l,Correct!,0,44,44,31,1,t1.png,t5.png,4,9.55E-11,20,female,2020-11-11_23h51.08.927,torte-q,2020.1.3,Win32,60,12914,0.92296,,,,,,,,,,,,,,,,,,,,,,,,,,,,,,,,,,,,,,,,,,,,
,,,,,,,,,,,,l,Correct!,0,45,45,98,1,t2.png,t4.png,2,0.0591,20,female,2020-11-11_23h51.08.927,torte-q,2020.1.3,Win32,60,12914,0.930455,,,,,,,,,,,,,,,,,,,,,,,,,,,,,,,,,,,,,,,,,,,,
,,,,,,,,,,,,l,Correct!,0,46,46,14,1,t2.png,t4.png,2,0.059078,20,female,2020-11-11_23h51.08.927,torte-q,2020.1.3,Win32,60,12914,0.781665,,,,,,,,,,,,,,,,,,,,,,,,,,,,,,,,,,,,,,,,,,,,
,,,,,,,,,,,,l,Incorrect,0,47,47,78,1,t1.png,t1.png,0,0.978,20,female,2020-11-11_23h51.08.927,torte-q,2020.1.3,Win32,60,12914,0.881115,,,,,,,,,,,,,,,,,,,,,,,,,,,,,,,,,,,,,,,,,,,,
,,,,,,,,,,,,a,Incorrect,0,48,48,37,1,t1.png,t4.png,3,0.0000131,20,female,2020-11-11_23h51.08.927,torte-q,2020.1.3,Win32,60,12914,1.840195,,,,,,,,,,,,,,,,,,,,,,,,,,,,,,,,,,,,,,,,,,,,
,,,,,,,,,,,,l,Correct!,0,49,49,83,1,t3.png,t1.png,2,0.056466,20,female,2020-11-11_23h51.08.927,torte-q,2020.1.3,Win32,60,12914,0.957815,,,,,,,,,,,,,,,,,,,,,,,,,,,,,,,,,,,,,,,,,,,,
,,,,,,,,,,,,l,Incorrect,0,50,50,2,1,t3.png,t2.png,1,0.90855,20,female,2020-11-11_23h51.08.927,torte-q,2020.1.3,Win32,60,12914,0.76607,,,,,,,,,,,,,,,,,,,,,,,,,,,,,,,,,,,,,,,,,,,,
,,,,,,,,,,,,l,Incorrect,0,51,51,104,1,t2.png,t3.png,1,0.90855,20,female,2020-11-11_23h51.08.927,torte-q,2020.1.3,Win32,60,12914,1.08604,,,,,,,,,,,,,,,,,,,,,,,,,,,,,,,,,,,,,,,,,,,,
,,,,,,,,,,,,l,Incorrect,0,52,52,42,1,t5.png,t4.png,1,0.90025,20,female,2020-11-11_23h51.08.927,torte-q,2020.1.3,Win32,60,12914,1.53324,,,,,,,,,,,,,,,,,,,,,,,,,,,,,,,,,,,,,,,,,,,,
,,,,,,,,,,,,l,Correct!,0,53,53,40,1,t1.png,t5.png,4,9.55E-11,20,female,2020-11-11_23h51.08.927,torte-q,2020.1.3,Win32,60,12914,1.17842,,,,,,,,,,,,,,,,,,,,,,,,,,,,,,,,,,,,,,,,,,,,
,,,,,,,,,,,,a,Correct!,0,54,54,112,1,t1.png,t1.png,0,0.97829,20,female,2020-11-11_23h51.08.927,torte-q,2020.1.3,Win32,60,12914,0.984865,,,,,,,,,,,,,,,,,,,,,,,,,,,,,,,,,,,,,,,,,,,,
,,,,,,,,,,,,a,Incorrect,0,55,55,69,1,t4.png,t2.png,2,0.059078,20,female,2020-11-11_23h51.08.927,torte-q,2020.1.3,Win32,60,12914,1.114865,,,,,,,,,,,,,,,,,,,,,,,,,,,,,,,,,,,,,,,,,,,,
,,,,,,,,,,,,l,Incorrect,0,56,56,10,1,t2.png,t3.png,1,0.90855,20,female,2020-11-11_23h51.08.927,torte-q,2020.1.3,Win32,60,12914,1.12072,,,,,,,,,,,,,,,,,,,,,,,,,,,,,,,,,,,,,,,,,,,,
,,,,,,,,,,,,l,Correct!,0,57,57,94,1,t5.png,t1.png,4,9.55E-11,20,female,2020-11-11_23h51.08.927,torte-q,2020.1.3,Win32,60,12914,1.12416,,,,,,,,,,,,,,,,,,,,,,,,,,,,,,,,,,,,,,,,,,,,
,,,,,,,,,,,,l,Incorrect,0,58,58,101,1,t4.png,t5.png,1,0.90025,20,female,2020-11-11_23h51.08.927,torte-q,2020.1.3,Win32,60,12914,1.04811,,,,,,,,,,,,,,,,,,,,,,,,,,,,,,,,,,,,,,,,,,,,
,,,,,,,,,,,,a,Correct!,0,59,59,70,1,t5.png,t5.png,0,0.978,20,female,2020-11-11_23h51.08.927,torte-q,2020.1.3,Win32,60,12914,1.880365,,,,,,,,,,,,,,,,,,,,,,,,,,,,,,,,,,,,,,,,,,,,
,,,,,,,,,,,,a,Incorrect,0,60,60,115,1,t2.png,t4.png,2,0.059078,20,female,2020-11-11_23h51.08.927,torte-q,2020.1.3,Win32,60,12914,1.271305,,,,,,,,,,,,,,,,,,,,,,,,,,,,,,,,,,,,,,,,,,,,
,,,,,,,,,,,,l,Incorrect,0,61,61,110,1,t4.png,t5.png,1,0.90025,20,female,2020-11-11_23h51.08.927,torte-q,2020.1.3,Win32,60,12914,1.36096,,,,,,,,,,,,,,,,,,,,,,,,,,,,,,,,,,,,,,,,,,,,
,,,,,,,,,,,,a,Correct!,0,62,62,15,1,t3.png,t2.png,1,0.90855,20,female,2020-11-11_23h51.08.927,torte-q,2020.1.3,Win32,60,12914,1.31442,,,,,,,,,,,,,,,,,,,,,,,,,,,,,,,,,,,,,,,,,,,,
,,,,,,,,,,,,l,Correct!,0,63,63,119,1,t1.png,t5.png,4,9.55E-11,20,female,2020-11-11_23h51.08.927,torte-q,2020.1.3,Win32,60,12914,1.088955,,,,,,,,,,,,,,,,,,,,,,,,,,,,,,,,,,,,,,,,,,,,
,,,,,,,,,,,,l,Correct!,0,64,64,111,1,t5.png,t1.png,4,9.55E-11,20,female,2020-11-11_23h51.08.927,torte-q,2020.1.3,Win32,60,12914,1.067485,,,,,,,,,,,,,,,,,,,,,,,,,,,,,,,,,,,,,,,,,,,,
,,,,,,,,,,,,l,Correct!,0,65,65,68,1,t1.png,t4.png,3,0.0000131,20,female,2020-11-11_23h51.08.927,torte-q,2020.1.3,Win32,60,12914,1.020945,,,,,,,,,,,,,,,,,,,,,,,,,,,,,,,,,,,,,,,,,,,,
,,,,,,,,,,,,a,Correct!,0,66,66,105,1,t3.png,t2.png,1,0.90855,20,female,2020-11-11_23h51.08.927,torte-q,2020.1.3,Win32,60,12914,1.2194,,,,,,,,,,,,,,,,,,,,,,,,,,,,,,,,,,,,,,,,,,,,
,,,,,,,,,,,,l,Correct!,0,67,67,50,1,t5.png,t1.png,4,9.55E-11,20,female,2020-11-11_23h51.08.927,torte-q,2020.1.3,Win32,60,12914,1.083395,,,,,,,,,,,,,,,,,,,,,,,,,,,,,,,,,,,,,,,,,,,,
,,,,,,,,,,,,a,Correct!,0,68,68,76,1,t3.png,t2.png,1,0.90855,20,female,2020-11-11_23h51.08.927,torte-q,2020.1.3,Win32,60,12914,1.127265,,,,,,,,,,,,,,,,,,,,,,,,,,,,,,,,,,,,,,,,,,,,
,,,,,,,,,,,,a,Correct!,0,69,69,32,1,t4.png,t5.png,1,0.90025,20,female,2020-11-11_23h51.08.927,torte-q,2020.1.3,Win32,60,12914,1.12092,,,,,,,,,,,,,,,,,,,,,,,,,,,,,,,,,,,,,,,,,,,,
,,,,,,,,,,,,a,Incorrect,0,70,70,88,1,t3.png,t1.png,2,0.056466,20,female,2020-11-11_23h51.08.927,torte-q,2020.1.3,Win32,60,12914,1.2145,,,,,,,,,,,,,,,,,,,,,,,,,,,,,,,,,,,,,,,,,,,,
,,,,,,,,,,,,l,Correct!,0,71,71,5,1,t2.png,t4.png,2,0.059078,20,female,2020-11-11_23h51.08.927,torte-q,2020.1.3,Win32,60,12914,1.16259,,,,,,,,,,,,,,,,,,,,,,,,,,,,,,,,,,,,,,,,,,,,
,,,,,,,,,,,,a,Incorrect,0,72,72,55,1,t2.png,t4.png,2,0.059078,20,female,2020-11-11_23h51.08.927,torte-q,2020.1.3,Win32,60,12914,1.25682,,,,,,,,,,,,,,,,,,,,,,,,,,,,,,,,,,,,,,,,,,,,
,,,,,,,,,,,,a,Correct!,0,73,73,79,1,t3.png,t2.png,1,0.909,20,female,2020-11-11_23h51.08.927,torte-q,2020.1.3,Win32,60,12914,0.90249,,,,,,,,,,,,,,,,,,,,,,,,,,,,,,,,,,,,,,,,,,,,
,,,,,,,,,,,,a,Correct!,0,74,74,16,1,t5.png,t4.png,1,0.9,20,female,2020-11-11_23h51.08.927,torte-q,2020.1.3,Win32,60,12914,1.16953,,,,,,,,,,,,,,,,,,,,,,,,,,,,,,,,,,,,,,,,,,,,
,,,,,,,,,,,,l,Correct!,0,75,75,6,1,t1.png,t4.png,3,0.0000131,20,female,2020-11-11_23h51.08.927,torte-q,2020.1.3,Win32,60,12914,0.866265,,,,,,,,,,,,,,,,,,,,,,,,,,,,,,,,,,,,,,,,,,,,
,,,,,,,,,,,,a,Correct!,0,76,76,22,1,t2.png,t3.png,1,0.90855,20,female,2020-11-11_23h51.08.927,torte-q,2020.1.3,Win32,60,12914,1.09694,,,,,,,,,,,,,,,,,,,,,,,,,,,,,,,,,,,,,,,,,,,,
,,,,,,,,,,,,a,Correct!,0,77,77,45,1,t3.png,t2.png,1,0.90855,20,female,2020-11-11_23h51.08.927,torte-q,2020.1.3,Win32,60,12914,0.787725,,,,,,,,,,,,,,,,,,,,,,,,,,,,,,,,,,,,,,,,,,,,
,,,,,,,,,,,,a,Correct!,0,78,78,114,1,t2.png,t3.png,1,0.90855,20,female,2020-11-11_23h51.08.927,torte-q,2020.1.3,Win32,60,12914,0.765155,,,,,,,,,,,,,,,,,,,,,,,,,,,,,,,,,,,,,,,,,,,,
,,,,,,,,,,,,l,Correct!,0,79,79,19,1,t4.png,t2.png,2,0.059078,20,female,2020-11-11_23h51.08.927,torte-q,2020.1.3,Win32,60,12914,1.1457,,,,,,,,,,,,,,,,,,,,,,,,,,,,,,,,,,,,,,,,,,,,
,,,,,,,,,,,,l,Correct!,0,80,80,82,1,t5.png,t1.png,4,9.55E-11,20,female,2020-11-11_23h51.08.927,torte-q,2020.1.3,Win32,60,12914,0.93797,,,,,,,,,,,,,,,,,,,,,,,,,,,,,,,,,,,,,,,,,,,,
,,,,,,,,,,,,l,Correct!,0,81,81,67,1,t1.png,t5.png,4,9.55E-11,20,female,2020-11-11_23h51.08.927,torte-q,2020.1.3,Win32,60,12914,1.44098,,,,,,,,,,,,,,,,,,,,,,,,,,,,,,,,,,,,,,,,,,,,
,,,,,,,,,,,,l,Correct!,0,82,82,99,1,t1.png,t5.png,4,9.55E-11,20,female,2020-11-11_23h51.08.927,torte-q,2020.1.3,Win32,60,12914,0.71463,,,,,,,,,,,,,,,,,,,,,,,,,,,,,,,,,,,,,,,,,,,,
,,,,,,,,,,,,l,Correct!,0,83,83,90,1,t1.png,t5.png,4,9.55E-11,20,female,2020-11-11_23h51.08.927,torte-q,2020.1.3,Win32,60,12914,0.69759,,,,,,,,,,,,,,,,,,,,,,,,,,,,,,,,,,,,,,,,,,,,
,,,,,,,,,,,,a,Incorrect,0,84,84,49,1,t4.png,t5.png,1,0.9,20,female,2020-11-11_23h51.08.927,torte-q,2020.1.3,Win32,60,12914,1.2929,,,,,,,,,,,,,,,,,,,,,,,,,,,,,,,,,,,,,,,,,,,,
,,,,,,,,,,,,l,Incorrect,0,85,85,34,1,t5.png,t4.png,1,0.9,20,female,2020-11-11_23h51.08.927,torte-q,2020.1.3,Win32,60,12914,1.536045,,,,,,,,,,,,,,,,,,,,,,,,,,,,,,,,,,,,,,,,,,,,
,,,,,,,,,,,,a,Correct!,0,86,86,63,1,t2.png,t3.png,1,0.909,20,female,2020-11-11_23h51.08.927,torte-q,2020.1.3,Win32,60,12914,0.877195,,,,,,,,,,,,,,,,,,,,,,,,,,,,,,,,,,,,,,,,,,,,
,,,,,,,,,,,,l,Incorrect,0,87,87,100,1,t4.png,t5.png,1,0.90025,20,female,2020-11-11_23h51.08.927,torte-q,2020.1.3,Win32,60,12914,1.28638,,,,,,,,,,,,,,,,,,,,,,,,,,,,,,,,,,,,,,,,,,,,
,,,,,,,,,,,,a,Incorrect,0,88,88,39,1,t3.png,t2.png,1,0.90855,20,female,2020-11-11_23h51.08.927,torte-q,2020.1.3,Win32,60,12914,0.77371,,,,,,,,,,,,,,,,,,,,,,,,,,,,,,,,,,,,,,,,,,,,
,,,,,,,,,,,,a,Correct!,0,89,89,41,1,t3.png,t2.png,1,0.90855,20,female,2020-11-11_23h51.08.927,torte-q,2020.1.3,Win32,60,12914,0.718445,,,,,,,,,,,,,,,,,,,,,,,,,,,,,,,,,,,,,,,,,,,,
,,,,,,,,,,,,a,Correct!,0,90,90,81,1,t1.png,t1.png,0,0.97829,20,female,2020-11-11_23h51.08.927,torte-q,2020.1.3,Win32,60,12914,0.93651,,,,,,,,,,,,,,,,,,,,,,,,,,,,,,,,,,,,,,,,,,,,
,,,,,,,,,,,,a,Incorrect,0,91,91,73,1,t4.png,t2.png,2,0.059078,20,female,2020-11-11_23h51.08.927,torte-q,2020.1.3,Win32,60,12914,1.28804,,,,,,,,,,,,,,,,,,,,,,,,,,,,,,,,,,,,,,,,,,,,
,,,,,,,,,,,,l,Correct!,0,92,92,17,1,t1.png,t4.png,3,0.0000131,20,female,2020-11-11_23h51.08.927,torte-q,2020.1.3,Win32,60,12914,1.16938,,,,,,,,,,,,,,,,,,,,,,,,,,,,,,,,,,,,,,,,,,,,
,,,,,,,,,,,,a,Incorrect,0,93,93,86,1,t3.png,t1.png,2,0.056466,20,female,2020-11-11_23h51.08.927,torte-q,2020.1.3,Win32,60,12914,0.98829,,,,,,,,,,,,,,,,,,,,,,,,,,,,,,,,,,,,,,,,,,,,
,,,,,,,,,,,,l,Correct!,0,94,94,43,1,t4.png,t2.png,2,0.059078,20,female,2020-11-11_23h51.08.927,torte-q,2020.1.3,Win32,60,12914,1.120465,,,,,,,,,,,,,,,,,,,,,,,,,,,,,,,,,,,,,,,,,,,,
,,,,,,,,,,,,a,Correct!,0,95,95,44,1,t2.png,t3.png,1,0.909,20,female,2020-11-11_23h51.08.927,torte-q,2020.1.3,Win32,60,12914,0.85247,,,,,,,,,,,,,,,,,,,,,,,,,,,,,,,,,,,,,,,,,,,,
,,,,,,,,,,,,l,Correct!,0,96,96,12,1,t5.png,t1.png,4,9.55E-11,20,female,2020-11-11_23h51.08.927,torte-q,2020.1.3,Win32,60,12914,0.810405,,,,,,,,,,,,,,,,,,,,,,,,,,,,,,,,,,,,,,,,,,,,
,,,,,,,,,,,,l,Correct!,0,97,97,72,1,t4.png,t2.png,2,0.059078,20,female,2020-11-11_23h51.08.927,torte-q,2020.1.3,Win32,60,12914,1.052455,,,,,,,,,,,,,,,,,,,,,,,,,,,,,,,,,,,,,,,,,,,,
,,,,,,,,,,,,a,Correct!,0,98,98,84,1,t1.png,t1.png,0,0.97829,20,female,2020-11-11_23h51.08.927,torte-q,2020.1.3,Win32,60,12914,0.88725,,,,,,,,,,,,,,,,,,,,,,,,,,,,,,,,,,,,,,,,,,,,
,,,,,,,,,,,,a,Correct!,0,99,99,48,1,t5.png,t5.png,0,0.97829,20,female,2020-11-11_23h51.08.927,torte-q,2020.1.3,Win32,60,12914,1.07107,,,,,,,,,,,,,,,,,,,,,,,,,,,,,,,,,,,,,,,,,,,,
,,,,,,,,,,,,a,Correct!,0,100,100,95,1,t1.png,t1.png,0,0.978,20,female,2020-11-11_23h51.08.927,torte-q,2020.1.3,Win32,60,12914,0.702595,,,,,,,,,,,,,,,,,,,,,,,,,,,,,,,,,,,,,,,,,,,,
,,,,,,,,,,,,l,Correct!,0,101,101,35,1,t1.png,t4.png,3,0.0000131,20,female,2020-11-11_23h51.08.927,torte-q,2020.1.3,Win32,60,12914,0.72215,,,,,,,,,,,,,,,,,,,,,,,,,,,,,,,,,,,,,,,,,,,,
,,,,,,,,,,,,l,Incorrect,0,102,102,74,1,t5.png,t4.png,1,0.9,20,female,2020-11-11_23h51.08.927,torte-q,2020.1.3,Win32,60,12914,0.924605,,,,,,,,,,,,,,,,,,,,,,,,,,,,,,,,,,,,,,,,,,,,
,,,,,,,,,,,,l,Correct!,0,103,103,60,1,t2.png,t4.png,2,0.059078,20,female,2020-11-11_23h51.08.927,torte-q,2020.1.3,Win32,60,12914,0.978635,,,,,,,,,,,,,,,,,,,,,,,,,,,,,,,,,,,,,,,,,,,,
,,,,,,,,,,,,l,Correct!,0,104,104,36,1,t3.png,t1.png,2,0.0565,20,female,2020-11-11_23h51.08.927,torte-q,2020.1.3,Win32,60,12914,1.318805,,,,,,,,,,,,,,,,,,,,,,,,,,,,,,,,,,,,,,,,,,,,
,,,,,,,,,,,,l,Incorrect,0,105,105,66,1,t4.png,t5.png,1,0.9,20,female,2020-11-11_23h51.08.927,torte-q,2020.1.3,Win32,60,12914,1.025425,,,,,,,,,,,,,,,,,,,,,,,,,,,,,,,,,,,,,,,,,,,,
,,,,,,,,,,,,a,Correct!,0,106,106,64,1,t1.png,t1.png,0,0.978,20,female,2020-11-11_23h51.08.927,torte-q,2020.1.3,Win32,60,12914,0.686425,,,,,,,,,,,,,,,,,,,,,,,,,,,,,,,,,,,,,,,,,,,,
,,,,,,,,,,,,l,Incorrect,0,107,107,116,1,t5.png,t4.png,1,0.90025,20,female,2020-11-11_23h51.08.927,torte-q,2020.1.3,Win32,60,12914,0.86965,,,,,,,,,,,,,,,,,,,,,,,,,,,,,,,,,,,,,,,,,,,,
,,,,,,,,,,,,a,Correct!,0,108,108,13,1,t5.png,t5.png,0,0.97829,20,female,2020-11-11_23h51.08.927,torte-q,2020.1.3,Win32,60,12914,0.87782,,,,,,,,,,,,,,,,,,,,,,,,,,,,,,,,,,,,,,,,,,,,
,,,,,,,,,,,,l,Incorrect,0,109,109,18,1,t4.png,t5.png,1,0.90025,20,female,2020-11-11_23h51.08.927,torte-q,2020.1.3,Win32,60,12914,0.826395,,,,,,,,,,,,,,,,,,,,,,,,,,,,,,,,,,,,,,,,,,,,
,,,,,,,,,,,,a,Correct!,0,110,110,75,1,t1.png,t1.png,0,0.97829,20,female,2020-11-11_23h51.08.927,torte-q,2020.1.3,Win32,60,12914,0.660495,,,,,,,,,,,,,,,,,,,,,,,,,,,,,,,,,,,,,,,,,,,,
,,,,,,,,,,,,a,Correct!,0,111,111,25,1,t5.png,t5.png,0,0.97829,20,female,2020-11-11_23h51.08.927,torte-q,2020.1.3,Win32,60,12914,0.824705,,,,,,,,,,,,,,,,,,,,,,,,,,,,,,,,,,,,,,,,,,,,
,,,,,,,,,,,,a,Correct!,0,112,112,92,1,t2.png,t3.png,1,0.909,20,female,2020-11-11_23h51.08.927,torte-q,2020.1.3,Win32,60,12914,0.802165,,,,,,,,,,,,,,,,,,,,,,,,,,,,,,,,,,,,,,,,,,,,
,,,,,,,,,,,,,Too slow :(,0,113,113,80,1,t1.png,t4.png,3,0.0000131,20,female,2020-11-11_23h51.08.927,torte-q,2020.1.3,Win32,60,12914,,,,,,,,,,,,,,,,,,,,,,,,,,,,,,,,,,,,,,,,,,,,,
,,,,,,,,,,,,a,Correct!,0,114,114,29,1,t5.png,t5.png,0,0.97829,20,female,2020-11-11_23h51.08.927,torte-q,2020.1.3,Win32,60,12914,0.68575,,,,,,,,,,,,,,,,,,,,,,,,,,,,,,,,,,,,,,,,,,,,
,,,,,,,,,,,,a,Correct!,0,115,115,96,1,t1.png,t1.png,0,0.97829,20,female,2020-11-11_23h51.08.927,torte-q,2020.1.3,Win32,60,12914,0.653765,,,,,,,,,,,,,,,,,,,,,,,,,,,,,,,,,,,,,,,,,,,,
,,,,,,,,,,,,l,Correct!,0,116,116,38,1,t3.png,t1.png,2,0.056466,20,female,2020-11-11_23h51.08.927,torte-q,2020.1.3,Win32,60,12914,1.09611,,,,,,,,,,,,,,,,,,,,,,,,,,,,,,,,,,,,,,,,,,,,
,,,,,,,,,,,,l,Incorrect,0,117,117,23,1,t5.png,t4.png,1,0.90025,20,female,2020-11-11_23h51.08.927,torte-q,2020.1.3,Win32,60,12914,1.00226,,,,,,,,,,,,,,,,,,,,,,,,,,,,,,,,,,,,,,,,,,,,
,,,,,,,,,,,,a,Correct!,0,118,118,28,1,t2.png,t3.png,1,0.909,20,female,2020-11-11_23h51.08.927,torte-q,2020.1.3,Win32,60,12914,0.8255,,,,,,,,,,,,,,,,,,,,,,,,,,,,,,,,,,,,,,,,,,,,
,,,,,,,,,,,,a,Correct!,0,119,119,106,1,t2.png,t3.png,1,0.90855,20,female,2020-11-11_23h51.08.927,torte-q,2020.1.3,Win32,60,12914,0.777145,,,,,,,,,,,,,,,,,,,,,,,,,,,,,,,,,,,,,,,,,,,,
,,,,,,,,,,,,a,Correct!,,,,,,t2.png,t2.png,0,0.98115,20,female,2020-11-11_23h51.08.927,torte-q,2020.1.3,Win32,60,12914,1.335695,space,2.30126,space,9.054525,0,0,0,57,1,,,,,,,,,,,,,,,,,,,,,,,,,,,,,,,,,,,
,,,,,,,,,,,,l,Correct!,,,,,,t4.png,t1.png,3,0.0000131,20,female,2020-11-11_23h51.08.927,torte-q,2020.1.3,Win32,60,12914,1.00372,,,,,0,1,1,13,1,,,,,,,,,,,,,,,,,,,,,,,,,,,,,,,,,,,
,,,,,,,,,,,,a,Correct!,,,,,,t2.png,t3.png,1,0.90855,20,female,2020-11-11_23h51.08.927,torte-q,2020.1.3,Win32,60,12914,0.80245,,,,,0,2,2,10,1,,,,,,,,,,,,,,,,,,,,,,,,,,,,,,,,,,,
,,,,,,,,,,,,l,Correct!,,,,,,t3.png,t1.png,2,0.056466,20,female,2020-11-11_23h51.08.927,torte-q,2020.1.3,Win32,60,12914,0.97784,,,,,0,3,3,64,1,,,,,,,,,,,,,,,,,,,,,,,,,,,,,,,,,,,
,,,,,,,,,,,,l,Correct!,,,,,,t1.png,t4.png,3,0.0000131,20,female,2020-11-11_23h51.08.927,torte-q,2020.1.3,Win32,60,12914,0.987,,,,,0,4,4,17,1,,,,,,,,,,,,,,,,,,,,,,,,,,,,,,,,,,,
,,,,,,,,,,,,l,Incorrect,,,,,,t3.png,t5.png,2,0.0565,20,female,2020-11-11_23h51.08.927,torte-q,2020.1.3,Win32,60,12914,0.936285,,,,,0,5,5,83,1,,,,,,,,,,,,,,,,,,,,,,,,,,,,,,,,,,,
,,,,,,,,,,,,a,Correct!,,,,,,t5.png,t4.png,1,0.9,20,female,2020-11-11_23h51.08.927,torte-q,2020.1.3,Win32,60,12914,1.28667,,,,,0,6,6,49,1,,,,,,,,,,,,,,,,,,,,,,,,,,,,,,,,,,,
,,,,,,,,,,,,l,Correct!,,,,,,t1.png,t5.png,4,9.55E-11,20,female,2020-11-11_23h51.08.927,torte-q,2020.1.3,Win32,60,12914,1.13524,,,,,0,7,7,16,1,,,,,,,,,,,,,,,,,,,,,,,,,,,,,,,,,,,
,,,,,,,,,,,,l,Correct!,,,,,,t5.png,t3.png,2,0.056466,20,female,2020-11-11_23h51.08.927,torte-q,2020.1.3,Win32,60,12914,1.36726,,,,,0,8,8,56,1,,,,,,,,,,,,,,,,,,,,,,,,,,,,,,,,,,,
,,,,,,,,,,,,l,Correct!,,,,,,t3.png,t5.png,2,0.056466,20,female,2020-11-11_23h51.08.927,torte-q,2020.1.3,Win32,60,12914,1.151275,,,,,0,9,9,14,1,,,,,,,,,,,,,,,,,,,,,,,,,,,,,,,,,,,
,,,,,,,,,,,,a,Correct!,,,,,,t4.png,t5.png,1,0.9,20,female,2020-11-11_23h51.08.927,torte-q,2020.1.3,Win32,60,12914,1.60092,,,,,0,10,10,115,1,,,,,,,,,,,,,,,,,,,,,,,,,,,,,,,,,,,
,,,,,,,,,,,,l,Correct!,,,,,,t4.png,t1.png,3,0.0000131,20,female,2020-11-11_23h51.08.927,torte-q,2020.1.3,Win32,60,12914,1.13521,,,,,0,11,11,42,1,,,,,,,,,,,,,,,,,,,,,,,,,,,,,,,,,,,
,,,,,,,,,,,,l,Correct!,,,,,,t1.png,t3.png,2,0.056466,20,female,2020-11-11_23h51.08.927,torte-q,2020.1.3,Win32,60,12914,1.234975,,,,,0,12,12,99,1,,,,,,,,,,,,,,,,,,,,,,,,,,,,,,,,,,,
,,,,,,,,,,,,l,Correct!,,,,,,t1.png,t3.png,2,0.056466,20,female,2020-11-11_23h51.08.927,torte-q,2020.1.3,Win32,60,12914,0.8335,,,,,0,13,13,63,1,,,,,,,,,,,,,,,,,,,,,,,,,,,,,,,,,,,
,,,,,,,,,,,,l,Incorrect,,,,,,t1.png,t2.png,1,0.90025,20,female,2020-11-11_23h51.08.927,torte-q,2020.1.3,Win32,60,12914,1.31773,,,,,0,14,14,105,1,,,,,,,,,,,,,,,,,,,,,,,,,,,,,,,,,,,
,,,,,,,,,,,,l,Correct!,,,,,,t5.png,t1.png,4,9.55E-11,20,female,2020-11-11_23h51.08.927,torte-q,2020.1.3,Win32,60,12914,1.117325,,,,,0,15,15,102,1,,,,,,,,,,,,,,,,,,,,,,,,,,,,,,,,,,,
,,,,,,,,,,,,l,Correct!,,,,,,t4.png,t2.png,2,0.059078,20,female,2020-11-11_23h51.08.927,torte-q,2020.1.3,Win32,60,12914,1.218305,,,,,0,16,16,86,1,,,,,,,,,,,,,,,,,,,,,,,,,,,,,,,,,,,
,,,,,,,,,,,,l,Correct!,,,,,,t5.png,t3.png,2,0.056466,20,female,2020-11-11_23h51.08.927,torte-q,2020.1.3,Win32,60,12914,1.233185,,,,,0,17,17,114,1,,,,,,,,,,,,,,,,,,,,,,,,,,,,,,,,,,,
,,,,,,,,,,,,a,Correct!,,,,,,t1.png,t1.png,0,0.97829,20,female,2020-11-11_23h51.08.927,torte-q,2020.1.3,Win32,60,12914,0.850865,,,,,0,18,18,9,1,,,,,,,,,,,,,,,,,,,,,,,,,,,,,,,,,,,
,,,,,,,,,,,,a,Correct!,,,,,,t4.png,t4.png,0,0.98115,20,female,2020-11-11_23h51.08.927,torte-q,2020.1.3,Win32,60,12914,0.93388,,,,,0,19,19,90,1,,,,,,,,,,,,,,,,,,,,,,,,,,,,,,,,,,,
,,,,,,,,,,,,l,Incorrect,,,,,,t2.png,t1.png,1,0.90025,20,female,2020-11-11_23h51.08.927,torte-q,2020.1.3,Win32,60,12914,1.300815,,,,,0,20,20,4,1,,,,,,,,,,,,,,,,,,,,,,,,,,,,,,,,,,,
,,,,,,,,,,,,l,Incorrect,,,,,,t4.png,t3.png,1,0.90855,20,female,2020-11-11_23h51.08.927,torte-q,2020.1.3,Win32,60,12914,1.217495,,,,,0,21,21,75,1,,,,,,,,,,,,,,,,,,,,,,,,,,,,,,,,,,,
,,,,,,,,,,,,l,Correct!,,,,,,t5.png,t2.png,3,0.0000131,20,female,2020-11-11_23h51.08.927,torte-q,2020.1.3,Win32,60,12914,1.284385,,,,,0,22,22,91,1,,,,,,,,,,,,,,,,,,,,,,,,,,,,,,,,,,,
,,,,,,,,,,,,a,Incorrect,,,,,,t5.png,t5.png,0,0.97829,20,female,2020-11-11_23h51.08.927,torte-q,2020.1.3,Win32,60,12914,0.90106,,,,,0,23,23,25,1,,,,,,,,,,,,,,,,,,,,,,,,,,,,,,,,,,,
,,,,,,,,,,,,l,Correct!,,,,,,t3.png,t1.png,2,0.0565,20,female,2020-11-11_23h51.08.927,torte-q,2020.1.3,Win32,60,12914,1.118105,,,,,0,24,24,31,1,,,,,,,,,,,,,,,,,,,,,,,,,,,,,,,,,,,
,,,,,,,,,,,,a,Correct!,,,,,,t2.png,t3.png,1,0.90855,20,female,2020-11-11_23h51.08.927,torte-q,2020.1.3,Win32,60,12914,0.98366,,,,,0,25,25,111,1,,,,,,,,,,,,,,,,,,,,,,,,,,,,,,,,,,,
,,,,,,,,,,,,l,Correct!,,,,,,t2.png,t4.png,2,0.0591,20,female,2020-11-11_23h51.08.927,torte-q,2020.1.3,Win32,60,12914,1.03414,,,,,0,26,26,15,1,,,,,,,,,,,,,,,,,,,,,,,,,,,,,,,,,,,
,,,,,,,,,,,,l,Correct!,,,,,,t2.png,t4.png,2,0.059078,20,female,2020-11-11_23h51.08.927,torte-q,2020.1.3,Win32,60,12914,0.950805,,,,,0,27,27,37,1,,,,,,,,,,,,,,,,,,,,,,,,,,,,,,,,,,,
,,,,,,,,,,,,l,Incorrect,,,,,,t2.png,t1.png,1,0.90025,20,female,2020-11-11_23h51.08.927,torte-q,2020.1.3,Win32,60,12914,0.95089,,,,,0,28,28,5,1,,,,,,,,,,,,,,,,,,,,,,,,,,,,,,,,,,,
,,,,,,,,,,,,l,Correct!,,,,,,t4.png,t1.png,3,0.0000131,20,female,2020-11-11_23h51.08.927,torte-q,2020.1.3,Win32,60,12914,0.81837,,,,,0,29,29,61,1,,,,,,,,,,,,,,,,,,,,,,,,,,,,,,,,,,,
,,,,,,,,,,,,l,Incorrect,,,,,,t2.png,t1.png,1,0.90025,20,female,2020-11-11_23h51.08.927,torte-q,2020.1.3,Win32,60,12914,1.01743,,,,,0,30,30,62,1,,,,,,,,,,,,,,,,,,,,,,,,,,,,,,,,,,,
,,,,,,,,,,,,l,Incorrect,,,,,,t4.png,t3.png,1,0.90855,20,female,2020-11-11_23h51.08.927,torte-q,2020.1.3,Win32,60,12914,1.0673,,,,,0,31,31,45,1,,,,,,,,,,,,,,,,,,,,,,,,,,,,,,,,,,,
,,,,,,,,,,,,a,Correct!,,,,,,t2.png,t2.png,0,0.98115,20,female,2020-11-11_23h51.08.927,torte-q,2020.1.3,Win32,60,12914,1.017735,,,,,0,32,32,2,1,,,,,,,,,,,,,,,,,,,,,,,,,,,,,,,,,,,
,,,,,,,,,,,,l,Incorrect,,,,,,t1.png,t2.png,1,0.90025,20,female,2020-11-11_23h51.08.927,torte-q,2020.1.3,Win32,60,12914,0.817515,,,,,0,33,33,33,1,,,,,,,,,,,,,,,,,,,,,,,,,,,,,,,,,,,
,,,,,,,,,,,,l,Incorrect,,,,,,t3.png,t4.png,1,0.909,20,female,2020-11-11_23h51.08.927,torte-q,2020.1.3,Win32,60,12914,0.95127,,,,,0,34,34,82,1,,,,,,,,,,,,,,,,,,,,,,,,,,,,,,,,,,,
,,,,,,,,,,,,l,Correct!,,,,,,t2.png,t5.png,3,0.0000131,20,female,2020-11-11_23h51.08.927,torte-q,2020.1.3,Win32,60,12914,0.967845,,,,,0,35,35,40,1,,,,,,,,,,,,,,,,,,,,,,,,,,,,,,,,,,,
,,,,,,,,,,,,a,Correct!,,,,,,t5.png,t5.png,0,0.97829,20,female,2020-11-11_23h51.08.927,torte-q,2020.1.3,Win32,60,12914,0.9345,,,,,0,36,36,94,1,,,,,,,,,,,,,,,,,,,,,,,,,,,,,,,,,,,
,,,,,,,,,,,,l,Correct!,,,,,,t5.png,t2.png,3,0.0000131,20,female,2020-11-11_23h51.08.927,torte-q,2020.1.3,Win32,60,12914,1.132665,,,,,0,37,37,98,1,,,,,,,,,,,,,,,,,,,,,,,,,,,,,,,,,,,
,,,,,,,,,,,,l,Incorrect,,,,,,t2.png,t1.png,1,0.90025,20,female,2020-11-11_23h51.08.927,torte-q,2020.1.3,Win32,60,12914,0.98443,,,,,0,38,38,19,1,,,,,,,,,,,,,,,,,,,,,,,,,,,,,,,,,,,
,,,,,,,,,,,,l,Correct!,,,,,,t4.png,t5.png,1,0.90025,20,female,2020-11-11_23h51.08.927,torte-q,2020.1.3,Win32,60,12914,1.18502,,,,,0,39,39,103,1,,,,,,,,,,,,,,,,,,,,,,,,,,,,,,,,,,,
,,,,,,,,,,,,l,Correct!,,,,,,t4.png,t2.png,2,0.059078,20,female,2020-11-11_23h51.08.927,torte-q,2020.1.3,Win32,60,12914,1.15174,,,,,0,40,40,109,1,,,,,,,,,,,,,,,,,,,,,,,,,,,,,,,,,,,
,,,,,,,,,,,,l,Incorrect,,,,,,t4.png,t3.png,1,0.909,20,female,2020-11-11_23h51.08.927,torte-q,2020.1.3,Win32,60,12914,1.30106,,,,,0,41,41,46,1,,,,,,,,,,,,,,,,,,,,,,,,,,,,,,,,,,,
,,,,,,,,,,,,a,Correct!,,,,,,t3.png,t2.png,1,0.90855,20,female,2020-11-11_23h51.08.927,torte-q,2020.1.3,Win32,60,12914,1.001085,,,,,0,42,42,53,1,,,,,,,,,,,,,,,,,,,,,,,,,,,,,,,,,,,
,,,,,,,,,,,,a,Correct!,,,,,,t2.png,t3.png,1,0.90855,20,female,2020-11-11_23h51.08.927,torte-q,2020.1.3,Win32,60,12914,0.96788,,,,,0,43,43,68,1,,,,,,,,,,,,,,,,,,,,,,,,,,,,,,,,,,,
,,,,,,,,,,,,a,Correct!,,,,,,t3.png,t2.png,1,0.909,20,female,2020-11-11_23h51.08.927,torte-q,2020.1.3,Win32,60,12914,0.901445,,,,,0,44,44,23,1,,,,,,,,,,,,,,,,,,,,,,,,,,,,,,,,,,,
,,,,,,,,,,,,l,Correct!,,,,,,t4.png,t1.png,3,0.0000131,20,female,2020-11-11_23h51.08.927,torte-q,2020.1.3,Win32,60,12914,0.90084,,,,,0,45,45,48,1,,,,,,,,,,,,,,,,,,,,,,,,,,,,,,,,,,,
,,,,,,,,,,,,l,Correct!,,,,,,t4.png,t1.png,3,0.0000131,20,female,2020-11-11_23h51.08.927,torte-q,2020.1.3,Win32,60,12914,0.901205,,,,,0,46,46,93,1,,,,,,,,,,,,,,,,,,,,,,,,,,,,,,,,,,,
,,,,,,,,,,,,l,Correct!,,,,,,t1.png,t5.png,4,9.55E-11,20,female,2020-11-11_23h51.08.927,torte-q,2020.1.3,Win32,60,12914,1.01865,,,,,0,47,47,12,1,,,,,,,,,,,,,,,,,,,,,,,,,,,,,,,,,,,
,,,,,,,,,,,,a,Correct!,,,,,,t5.png,t5.png,0,0.978,20,female,2020-11-11_23h51.08.927,torte-q,2020.1.3,Win32,60,12914,0.98365,,,,,0,48,48,117,1,,,,,,,,,,,,,,,,,,,,,,,,,,,,,,,,,,,
,,,,,,,,,,,,a,Correct!,,,,,,t5.png,t5.png,0,0.97829,20,female,2020-11-11_23h51.08.927,torte-q,2020.1.3,Win32,60,12914,0.717505,,,,,0,49,49,73,1,,,,,,,,,,,,,,,,,,,,,,,,,,,,,,,,,,,
,,,,,,,,,,,,l,Correct!,,,,,,t2.png,t5.png,3,0.0000131,20,female,2020-11-11_23h51.08.927,torte-q,2020.1.3,Win32,60,12914,1.084055,,,,,0,50,50,95,1,,,,,,,,,,,,,,,,,,,,,,,,,,,,,,,,,,,
,,,,,,,,,,,,l,Incorrect,,,,,,t3.png,t4.png,1,0.909,20,female,2020-11-11_23h51.08.927,torte-q,2020.1.3,Win32,60,12914,1.26872,,,,,0,51,51,106,1,,,,,,,,,,,,,,,,,,,,,,,,,,,,,,,,,,,
,,,,,,,,,,,,a,Correct!,,,,,,t1.png,t1.png,0,0.97829,20,female,2020-11-11_23h51.08.927,torte-q,2020.1.3,Win32,60,12914,0.835875,,,,,0,52,52,67,1,,,,,,,,,,,,,,,,,,,,,,,,,,,,,,,,,,,
,,,,,,,,,,,,l,Correct!,,,,,,t2.png,t5.png,3,0.0000131,20,female,2020-11-11_23h51.08.927,torte-q,2020.1.3,Win32,60,12914,1.134595,,,,,0,53,53,104,1,,,,,,,,,,,,,,,,,,,,,,,,,,,,,,,,,,,
,,,,,,,,,,,,a,Correct!,,,,,,t5.png,t4.png,1,0.90025,20,female,2020-11-11_23h51.08.927,torte-q,2020.1.3,Win32,60,12914,1.401035,,,,,0,54,54,26,1,,,,,,,,,,,,,,,,,,,,,,,,,,,,,,,,,,,
,,,,,,,,,,,,l,Correct!,,,,,,t3.png,t1.png,2,0.056466,20,female,2020-11-11_23h51.08.927,torte-q,2020.1.3,Win32,60,12914,0.968995,,,,,0,55,55,29,1,,,,,,,,,,,,,,,,,,,,,,,,,,,,,,,,,,,
,,,,,,,,,,,,l,Correct!,,,,,,t1.png,t5.png,4,9.55E-11,20,female,2020-11-11_23h51.08.927,torte-q,2020.1.3,Win32,60,12914,1.150165,,,,,0,56,56,85,1,,,,,,,,,,,,,,,,,,,,,,,,,,,,,,,,,,,
,,,,,,,,,,,,l,Incorrect,,,,,,t3.png,t5.png,2,0.056466,20,female,2020-11-11_23h51.08.927,torte-q,2020.1.3,Win32,60,12914,1.100695,,,,,0,57,57,6,1,,,,,,,,,,,,,,,,,,,,,,,,,,,,,,,,,,,
,,,,,,,,,,,,a,Correct!,,,,,,t4.png,t4.png,0,0.98115,20,female,2020-11-11_23h51.08.927,torte-q,2020.1.3,Win32,60,12914,0.86719,,,,,0,58,58,79,1,,,,,,,,,,,,,,,,,,,,,,,,,,,,,,,,,,,
,,,,,,,,,,,,l,Incorrect,,,,,,t4.png,t5.png,1,0.90025,20,female,2020-11-11_23h51.08.927,torte-q,2020.1.3,Win32,60,12914,0.902315,,,,,0,59,59,113,1,,,,,,,,,,,,,,,,,,,,,,,,,,,,,,,,,,,
,,,,,,,,,,,,l,Correct!,,,,,,t3.png,t1.png,2,0.056466,20,female,2020-11-11_23h51.08.927,torte-q,2020.1.3,Win32,60,12914,0.967665,,,,,0,60,60,32,1,,,,,,,,,,,,,,,,,,,,,,,,,,,,,,,,,,,
,,,,,,,,,,,,l,Incorrect,,,,,,t1.png,t2.png,1,0.90025,20,female,2020-11-11_23h51.08.927,torte-q,2020.1.3,Win32,60,12914,1.217415,,,,,0,61,61,72,1,,,,,,,,,,,,,,,,,,,,,,,,,,,,,,,,,,,
,,,,,,,,,,,,l,Correct!,,,,,,t4.png,t2.png,2,0.059078,20,female,2020-11-11_23h51.08.927,torte-q,2020.1.3,Win32,60,12914,1.1842,,,,,0,62,62,110,1,,,,,,,,,,,,,,,,,,,,,,,,,,,,,,,,,,,
,,,,,,,,,,,,l,Correct!,,,,,,t5.png,t2.png,3,0.0000131,20,female,2020-11-11_23h51.08.927,torte-q,2020.1.3,Win32,60,12914,1.134685,,,,,0,63,63,116,1,,,,,,,,,,,,,,,,,,,,,,,,,,,,,,,,,,,
,,,,,,,,,,,,a,Correct!,,,,,,t1.png,t1.png,0,0.978,20,female,2020-11-11_23h51.08.927,torte-q,2020.1.3,Win32,60,12914,0.767765,,,,,0,64,64,28,1,,,,,,,,,,,,,,,,,,,,,,,,,,,,,,,,,,,
,,,,,,,,,,,,a,Correct!,,,,,,t3.png,t2.png,1,0.90855,20,female,2020-11-11_23h51.08.927,torte-q,2020.1.3,Win32,60,12914,0.83369,,,,,0,65,65,97,1,,,,,,,,,,,,,,,,,,,,,,,,,,,,,,,,,,,
,,,,,,,,,,,,l,Correct!,,,,,,t3.png,t1.png,2,0.056466,20,female,2020-11-11_23h51.08.927,torte-q,2020.1.3,Win32,60,12914,1.067145,,,,,0,66,66,0,1,,,,,,,,,,,,,,,,,,,,,,,,,,,,,,,,,,,
,,,,,,,,,,,,l,Correct!,,,,,,t5.png,t2.png,3,0.0000131,20,female,2020-11-11_23h51.08.927,torte-q,2020.1.3,Win32,60,12914,1.28408,,,,,0,67,67,51,1,,,,,,,,,,,,,,,,,,,,,,,,,,,,,,,,,,,
,,,,,,,,,,,,l,Incorrect,,,,,,t4.png,t3.png,1,0.909,20,female,2020-11-11_23h51.08.927,torte-q,2020.1.3,Win32,60,12914,1.317505,,,,,0,68,68,20,1,,,,,,,,,,,,,,,,,,,,,,,,,,,,,,,,,,,
,,,,,,,,,,,,l,Correct!,,,,,,t2.png,t4.png,2,0.059078,20,female,2020-11-11_23h51.08.927,torte-q,2020.1.3,Win32,60,12914,0.91766,,,,,0,69,69,24,1,,,,,,,,,,,,,,,,,,,,,,,,,,,,,,,,,,,
,,,,,,,,,,,,a,Correct!,,,,,,t2.png,t2.png,0,0.98115,20,female,2020-11-11_23h51.08.927,torte-q,2020.1.3,Win32,60,12914,0.9192,,,,,0,70,70,7,1,,,,,,,,,,,,,,,,,,,,,,,,,,,,,,,,,,,
,,,,,,,,,,,,a,Correct!,,,,,,t2.png,t3.png,1,0.90855,20,female,2020-11-11_23h51.08.927,torte-q,2020.1.3,Win32,60,12914,0.8226,,,,,0,71,71,65,1,,,,,,,,,,,,,,,,,,,,,,,,,,,,,,,,,,,
,,,,,,,,,,,,a,Correct!,,,,,,t4.png,t4.png,0,0.98115,20,female,2020-11-11_23h51.08.927,torte-q,2020.1.3,Win32,60,12914,0.885715,,,,,0,72,72,52,1,,,,,,,,,,,,,,,,,,,,,,,,,,,,,,,,,,,
,,,,,,,,,,,,l,Correct!,,,,,,t1.png,t4.png,3,0.0000131,20,female,2020-11-11_23h51.08.927,torte-q,2020.1.3,Win32,60,12914,0.837105,,,,,0,73,73,92,1,,,,,,,,,,,,,,,,,,,,,,,,,,,,,,,,,,,
,,,,,,,,,,,,a,Correct!,,,,,,t4.png,t5.png,1,0.90025,20,female,2020-11-11_23h51.08.927,torte-q,2020.1.3,Win32,60,12914,1.066035,,,,,0,74,74,47,1,,,,,,,,,,,,,,,,,,,,,,,,,,,,,,,,,,,
,,,,,,,,,,,,a,Correct!,,,,,,t3.png,t2.png,1,0.909,20,female,2020-11-11_23h51.08.927,torte-q,2020.1.3,Win32,60,12914,1.15807,,,,,0,75,75,3,1,,,,,,,,,,,,,,,,,,,,,,,,,,,,,,,,,,,
,,,,,,,,,,,,l,Correct!,,,,,,t1.png,t3.png,2,0.056466,20,female,2020-11-11_23h51.08.927,torte-q,2020.1.3,Win32,60,12914,0.821055,,,,,0,76,76,87,1,,,,,,,,,,,,,,,,,,,,,,,,,,,,,,,,,,,
,,,,,,,,,,,,l,Incorrect,,,,,,t3.png,t4.png,1,0.90855,20,female,2020-11-11_23h51.08.927,torte-q,2020.1.3,Win32,60,12914,1.060745,,,,,0,77,77,96,1,,,,,,,,,,,,,,,,,,,,,,,,,,,,,,,,,,,
,,,,,,,,,,,,l,Incorrect,,,,,,t2.png,t1.png,1,0.9,20,female,2020-11-11_23h51.08.927,torte-q,2020.1.3,Win32,60,12914,0.81303,,,,,0,78,78,118,1,,,,,,,,,,,,,,,,,,,,,,,,,,,,,,,,,,,
,,,,,,,,,,,,a,Correct!,,,,,,t1.png,t1.png,0,0.978,20,female,2020-11-11_23h51.08.927,torte-q,2020.1.3,Win32,60,12914,0.71865,,,,,0,79,79,54,1,,,,,,,,,,,,,,,,,,,,,,,,,,,,,,,,,,,
,,,,,,,,,,,,l,Correct!,,,,,,t1.png,t4.png,3,0.0000131,20,female,2020-11-11_23h51.08.927,torte-q,2020.1.3,Win32,60,12914,0.819425,,,,,0,80,80,107,1,,,,,,,,,,,,,,,,,,,,,,,,,,,,,,,,,,,
,,,,,,,,,,,,l,Correct!,,,,,,t5.png,t1.png,4,9.55E-11,20,female,2020-11-11_23h51.08.927,torte-q,2020.1.3,Win32,60,12914,0.9414,,,,,0,81,81,71,1,,,,,,,,,,,,,,,,,,,,,,,,,,,,,,,,,,,
,,,,,,,,,,,,a,Correct!,,,,,,t5.png,t4.png,1,0.9,20,female,2020-11-11_23h51.08.927,torte-q,2020.1.3,Win32,60,12914,0.96959,,,,,0,82,82,76,1,,,,,,,,,,,,,,,,,,,,,,,,,,,,,,,,,,,
,,,,,,,,,,,,l,Correct!,,,,,,t5.png,t3.png,2,0.056466,20,female,2020-11-11_23h51.08.927,torte-q,2020.1.3,Win32,60,12914,1.271405,,,,,0,83,83,38,1,,,,,,,,,,,,,,,,,,,,,,,,,,,,,,,,,,,
,,,,,,,,,,,,l,Incorrect,,,,,,t1.png,t2.png,1,0.90025,20,female,2020-11-11_23h51.08.927,torte-q,2020.1.3,Win32,60,12914,1.12048,,,,,0,84,84,112,1,,,,,,,,,,,,,,,,,,,,,,,,,,,,,,,,,,,
,,,,,,,,,,,,l,Correct!,,,,,,t4.png,t2.png,2,0.0591,20,female,2020-11-11_23h51.08.927,torte-q,2020.1.3,Win32,60,12914,0.87519,,,,,0,85,85,36,1,,,,,,,,,,,,,,,,,,,,,,,,,,,,,,,,,,,
,,,,,,,,,,,,l,Correct!,,,,,,t2.png,t5.png,3,0.0000131,20,female,2020-11-11_23h51.08.927,torte-q,2020.1.3,Win32,60,12914,0.89288,,,,,0,86,86,8,1,,,,,,,,,,,,,,,,,,,,,,,,,,,,,,,,,,,
,,,,,,,,,,,,l,Correct!,,,,,,t5.png,t1.png,4,9.55E-11,20,female,2020-11-11_23h51.08.927,torte-q,2020.1.3,Win32,60,12914,0.777045,,,,,0,87,87,22,1,,,,,,,,,,,,,,,,,,,,,,,,,,,,,,,,,,,
,,,,,,,,,,,,l,Correct!,,,,,,t1.png,t3.png,2,0.056466,20,female,2020-11-11_23h51.08.927,torte-q,2020.1.3,Win32,60,12914,0.725895,,,,,0,88,88,60,1,,,,,,,,,,,,,,,,,,,,,,,,,,,,,,,,,,,
,,,,,,,,,,,,l,Correct!,,,,,,t5.png,t2.png,3,0.0000131,20,female,2020-11-11_23h51.08.927,torte-q,2020.1.3,Win32,60,12914,0.869455,,,,,0,89,89,119,1,,,,,,,,,,,,,,,,,,,,,,,,,,,,,,,,,,,
,,,,,,,,,,,,l,Correct!,,,,,,t3.png,t5.png,2,0.056466,20,female,2020-11-11_23h51.08.927,torte-q,2020.1.3,Win32,60,12914,1.119815,,,,,0,90,90,44,1,,,,,,,,,,,,,,,,,,,,,,,,,,,,,,,,,,,
,,,,,,,,,,,,a,Correct!,,,,,,t5.png,t4.png,1,0.90025,20,female,2020-11-11_23h51.08.927,torte-q,2020.1.3,Win32,60,12914,0.99193,,,,,0,91,91,34,1,,,,,,,,,,,,,,,,,,,,,,,,,,,,,,,,,,,
,,,,,,,,,,,,l,Correct!,,,,,,t5.png,t1.png,4,9.55E-11,20,female,2020-11-11_23h51.08.927,torte-q,2020.1.3,Win32,60,12914,0.85606,,,,,0,92,92,100,1,,,,,,,,,,,,,,,,,,,,,,,,,,,,,,,,,,,
,,,,,,,,,,,,l,Correct!,,,,,,t5.png,t3.png,2,0.0565,20,female,2020-11-11_23h51.08.927,torte-q,2020.1.3,Win32,60,12914,0.91258,,,,,0,93,93,39,1,,,,,,,,,,,,,,,,,,,,,,,,,,,,,,,,,,,
,,,,,,,,,,,,l,Correct!,,,,,,t4.png,t2.png,2,0.059078,20,female,2020-11-11_23h51.08.927,torte-q,2020.1.3,Win32,60,12914,0.883995,,,,,0,94,94,88,1,,,,,,,,,,,,,,,,,,,,,,,,,,,,,,,,,,,
,,,,,,,,,,,,l,Incorrect,,,,,,t3.png,t4.png,1,0.90855,20,female,2020-11-11_23h51.08.927,torte-q,2020.1.3,Win32,60,12914,0.98604,,,,,0,95,95,84,1,,,,,,,,,,,,,,,,,,,,,,,,,,,,,,,,,,,
,,,,,,,,,,,,a,Correct!,,,,,,t2.png,t3.png,1,0.909,20,female,2020-11-11_23h51.08.927,torte-q,2020.1.3,Win32,60,12914,0.83097,,,,,0,96,96,74,1,,,,,,,,,,,,,,,,,,,,,,,,,,,,,,,,,,,
,,,,,,,,,,,,l,Correct!,,,,,,t3.png,t5.png,2,0.0565,20,female,2020-11-11_23h51.08.927,torte-q,2020.1.3,Win32,60,12914,0.89387,,,,,0,97,97,30,1,,,,,,,,,,,,,,,,,,,,,,,,,,,,,,,,,,,
,,,,,,,,,,,,l,Correct!,,,,,,t2.png,t5.png,3,0.0000131,20,female,2020-11-11_23h51.08.927,torte-q,2020.1.3,Win32,60,12914,0.9031,,,,,0,98,98,66,1,,,,,,,,,,,,,,,,,,,,,,,,,,,,,,,,,,,
,,,,,,,,,,,,l,Correct!,,,,,,t5.png,t3.png,2,0.056466,20,female,2020-11-11_23h51.08.927,torte-q,2020.1.3,Win32,60,12914,0.73605,,,,,0,99,99,108,1,,,,,,,,,,,,,,,,,,,,,,,,,,,,,,,,,,,
,,,,,,,,,,,,l,Correct!,,,,,,t1.png,t4.png,3,0.0000131,20,female,2020-11-11_23h51.08.927,torte-q,2020.1.3,Win32,60,12914,0.749375,,,,,0,100,100,50,1,,,,,,,,,,,,,,,,,,,,,,,,,,,,,,,,,,,
,,,,,,,,,,,,a,Correct!,,,,,,t2.png,t2.png,0,0.981,20,female,2020-11-11_23h51.08.927,torte-q,2020.1.3,Win32,60,12914,0.91844,,,,,0,101,101,101,1,,,,,,,,,,,,,,,,,,,,,,,,,,,,,,,,,,,
,,,,,,,,,,,,a,Correct!,,,,,,t5.png,t4.png,1,0.90025,20,female,2020-11-11_23h51.08.927,torte-q,2020.1.3,Win32,60,12914,0.919025,,,,,0,102,102,27,1,,,,,,,,,,,,,,,,,,,,,,,,,,,,,,,,,,,
,,,,,,,,,,,,a,Correct!,,,,,,t1.png,t1.png,0,0.97829,20,female,2020-11-11_23h51.08.927,torte-q,2020.1.3,Win32,60,12914,0.75862,,,,,0,103,103,78,1,,,,,,,,,,,,,,,,,,,,,,,,,,,,,,,,,,,
,,,,,,,,,,,,a,Correct!,,,,,,t4.png,t4.png,0,0.98115,20,female,2020-11-11_23h51.08.927,torte-q,2020.1.3,Win32,60,12914,1.42357,,,,,0,104,104,80,1,,,,,,,,,,,,,,,,,,,,,,,,,,,,,,,,,,,
,,,,,,,,,,,,a,Correct!,,,,,,t3.png,t2.png,1,0.90855,20,female,2020-11-11_23h51.08.927,torte-q,2020.1.3,Win32,60,12914,0.89088,,,,,0,105,105,18,1,,,,,,,,,,,,,,,,,,,,,,,,,,,,,,,,,,,
,,,,,,,,,,,,l,Incorrect,,,,,,t1.png,t2.png,1,0.9,20,female,2020-11-11_23h51.08.927,torte-q,2020.1.3,Win32,60,12914,0.84639,,,,,0,106,106,1,1,,,,,,,,,,,,,,,,,,,,,,,,,,,,,,,,,,,
,,,,,,,,,,,,l,Correct!,,,,,,t1.png,t5.png,4,9.55E-11,20,female,2020-11-11_23h51.08.927,torte-q,2020.1.3,Win32,60,12914,0.776105,,,,,0,107,107,41,1,,,,,,,,,,,,,,,,,,,,,,,,,,,,,,,,,,,
,,,,,,,,,,,,l,Correct!,,,,,,t1.png,t4.png,3,0.0000131,20,female,2020-11-11_23h51.08.927,torte-q,2020.1.3,Win32,60,12914,0.64583,,,,,0,108,108,81,1,,,,,,,,,,,,,,,,,,,,,,,,,,,,,,,,,,,
,,,,,,,,,,,,l,Correct!,,,,,,t5.png,t1.png,4,9.55E-11,20,female,2020-11-11_23h51.08.927,torte-q,2020.1.3,Win32,60,12914,0.76757,,,,,0,109,109,43,1,,,,,,,,,,,,,,,,,,,,,,,,,,,,,,,,,,,
,,,,,,,,,,,,l,Correct!,,,,,,t2.png,t4.png,2,0.059078,20,female,2020-11-11_23h51.08.927,torte-q,2020.1.3,Win32,60,12914,1.002235,,,,,0,110,110,77,1,,,,,,,,,,,,,,,,,,,,,,,,,,,,,,,,,,,
,,,,,,,,,,,,a,Correct!,,,,,,t4.png,t4.png,0,0.98115,20,female,2020-11-11_23h51.08.927,torte-q,2020.1.3,Win32,60,12914,0.726745,,,,,0,111,111,21,1,,,,,,,,,,,,,,,,,,,,,,,,,,,,,,,,,,,
,,,,,,,,,,,,l,Correct!,,,,,,t2.png,t4.png,2,0.059078,20,female,2020-11-11_23h51.08.927,torte-q,2020.1.3,Win32,60,12914,0.692735,,,,,0,112,112,11,1,,,,,,,,,,,,,,,,,,,,,,,,,,,,,,,,,,,
,,,,,,,,,,,,a,Correct!,,,,,,t2.png,t2.png,0,0.98115,20,female,2020-11-11_23h51.08.927,torte-q,2020.1.3,Win32,60,12914,0.769255,,,,,0,113,113,59,1,,,,,,,,,,,,,,,,,,,,,,,,,,,,,,,,,,,
,,,,,,,,,,,,l,Correct!,,,,,,t1.png,t3.png,2,0.056466,20,female,2020-11-11_23h51.08.927,torte-q,2020.1.3,Win32,60,12914,0.786305,,,,,0,114,114,69,1,,,,,,,,,,,,,,,,,,,,,,,,,,,,,,,,,,,
,,,,,,,,,,,,l,Incorrect,,,,,,t4.png,t3.png,1,0.90855,20,female,2020-11-11_23h51.08.927,torte-q,2020.1.3,Win32,60,12914,0.887255,,,,,0,115,115,35,1,,,,,,,,,,,,,,,,,,,,,,,,,,,,,,,,,,,
,,,,,,,,,,,,a,Correct!,,,,,,t4.png,t5.png,1,0.90025,20,female,2020-11-11_23h51.08.927,torte-q,2020.1.3,Win32,60,12914,1.21879,,,,,0,116,116,58,1,,,,,,,,,,,,,,,,,,,,,,,,,,,,,,,,,,,
,,,,,,,,,,,,a,Correct!,,,,,,t5.png,t5.png,0,0.97829,20,female,2020-11-11_23h51.08.927,torte-q,2020.1.3,Win32,60,12914,0.80263,,,,,0,117,117,70,1,,,,,,,,,,,,,,,,,,,,,,,,,,,,,,,,,,,
,,,,,,,,,,,,l,Correct!,,,,,,t1.png,t5.png,4,9.55E-11,20,female,2020-11-11_23h51.08.927,torte-q,2020.1.3,Win32,60,12914,0.74404,,,,,0,118,118,55,1,,,,,,,,,,,,,,,,,,,,,,,,,,,,,,,,,,,
,,,,,,,,,,,,l,Incorrect,,,,,,t3.png,t4.png,1,0.909,20,female,2020-11-11_23h51.08.927,torte-q,2020.1.3,Win32,60,12914,1.01314,,,,,0,119,119,89,1,,,,,,,,,,,,,,,,,,,,,,,,,,,,,,,,,,,
,,,,,,,,,,,,l,Correct!,,,,,,t3.png,t5.png,2,0.0565,20,female,2020-11-11_23h51.08.927,torte-q,2020.1.3,Win32,60,12914,1.71356,space,2.25528,,,,,,,,space,14.89664,space,8.05234,0,0,0,30,1,,,,,,,,,,,,,,,,,,,,,,,,,,
,,,,,,,,,,,,l,Incorrect,,,,,,t4.png,t3.png,1,0.90855,20,female,2020-11-11_23h51.08.927,torte-q,2020.1.3,Win32,60,12914,1.16443,,,,,,,,,,,,,,0,1,1,75,1,,,,,,,,,,,,,,,,,,,,,,,,,,
,,,,,,,,,,,,l,Correct!,,,,,,t1.png,t5.png,4,9.55E-11,20,female,2020-11-11_23h51.08.927,torte-q,2020.1.3,Win32,60,12914,0.901575,,,,,,,,,,,,,,0,2,2,85,1,,,,,,,,,,,,,,,,,,,,,,,,,,
,,,,,,,,,,,,a,Correct!,,,,,,t3.png,t2.png,1,0.909,20,female,2020-11-11_23h51.08.927,torte-q,2020.1.3,Win32,60,12914,0.85041,,,,,,,,,,,,,,0,3,3,3,1,,,,,,,,,,,,,,,,,,,,,,,,,,
,,,,,,,,,,,,l,Incorrect,,,,,,t2.png,t1.png,1,0.90025,20,female,2020-11-11_23h51.08.927,torte-q,2020.1.3,Win32,60,12914,0.83618,,,,,,,,,,,,,,0,4,4,19,1,,,,,,,,,,,,,,,,,,,,,,,,,,
,,,,,,,,,,,,l,Correct!,,,,,,t5.png,t2.png,3,0.0000131,20,female,2020-11-11_23h51.08.927,torte-q,2020.1.3,Win32,60,12914,0.976295,,,,,,,,,,,,,,0,5,5,98,1,,,,,,,,,,,,,,,,,,,,,,,,,,
,,,,,,,,,,,,l,Incorrect,,,,,,t2.png,t1.png,1,0.90025,20,female,2020-11-11_23h51.08.927,torte-q,2020.1.3,Win32,60,12914,1.02334,,,,,,,,,,,,,,0,6,6,5,1,,,,,,,,,,,,,,,,,,,,,,,,,,
,,,,,,,,,,,,l,Incorrect,,,,,,t3.png,t4.png,1,0.909,20,female,2020-11-11_23h51.08.927,torte-q,2020.1.3,Win32,60,12914,0.8144,,,,,,,,,,,,,,0,7,7,106,1,,,,,,,,,,,,,,,,,,,,,,,,,,
,,,,,,,,,,,,l,Correct!,,,,,,t5.png,t3.png,2,0.056466,20,female,2020-11-11_23h51.08.927,torte-q,2020.1.3,Win32,60,12914,1.29118,,,,,,,,,,,,,,0,8,8,38,1,,,,,,,,,,,,,,,,,,,,,,,,,,
,,,,,,,,,,,,a,Correct!,,,,,,t3.png,t2.png,1,0.909,20,female,2020-11-11_23h51.08.927,torte-q,2020.1.3,Win32,60,12914,0.81713,,,,,,,,,,,,,,0,9,9,23,1,,,,,,,,,,,,,,,,,,,,,,,,,,
,,,,,,,,,,,,l,Incorrect,,,,,,t3.png,t4.png,1,0.909,20,female,2020-11-11_23h51.08.927,torte-q,2020.1.3,Win32,60,12914,0.713785,,,,,,,,,,,,,,0,10,10,82,1,,,,,,,,,,,,,,,,,,,,,,,,,,
,,,,,,,,,,,,a,Correct!,,,,,,t1.png,t1.png,0,0.97829,20,female,2020-11-11_23h51.08.927,torte-q,2020.1.3,Win32,60,12914,0.805305,,,,,,,,,,,,,,0,11,11,9,1,,,,,,,,,,,,,,,,,,,,,,,,,,
,,,,,,,,,,,,l,Incorrect,,,,,,t4.png,t3.png,1,0.909,20,female,2020-11-11_23h51.08.927,torte-q,2020.1.3,Win32,60,12914,0.805355,,,,,,,,,,,,,,0,12,12,46,1,,,,,,,,,,,,,,,,,,,,,,,,,,
,,,,,,,,,,,,a,Correct!,,,,,,t1.png,t1.png,0,0.97829,20,female,2020-11-11_23h51.08.927,torte-q,2020.1.3,Win32,60,12914,0.642365,,,,,,,,,,,,,,0,13,13,78,1,,,,,,,,,,,,,,,,,,,,,,,,,,
,,,,,,,,,,,,l,Incorrect,,,,,,t1.png,t2.png,1,0.90025,20,female,2020-11-11_23h51.08.927,torte-q,2020.1.3,Win32,60,12914,0.98565,,,,,,,,,,,,,,0,14,14,112,1,,,,,,,,,,,,,,,,,,,,,,,,,,
,,,,,,,,,,,,l,Incorrect,,,,,,t2.png,t1.png,1,0.90025,20,female,2020-11-11_23h51.08.927,torte-q,2020.1.3,Win32,60,12914,0.763605,,,,,,,,,,,,,,0,15,15,4,1,,,,,,,,,,,,,,,,,,,,,,,,,,
,,,,,,,,,,,,a,Correct!,,,,,,t4.png,t4.png,0,0.98115,20,female,2020-11-11_23h51.08.927,torte-q,2020.1.3,Win32,60,12914,0.848105,,,,,,,,,,,,,,0,16,16,80,1,,,,,,,,,,,,,,,,,,,,,,,,,,
,,,,,,,,,,,,l,Correct!,,,,,,t1.png,t3.png,2,0.056466,20,female,2020-11-11_23h51.08.927,torte-q,2020.1.3,Win32,60,12914,0.88592,,,,,,,,,,,,,,0,17,17,60,1,,,,,,,,,,,,,,,,,,,,,,,,,,
,,,,,,,,,,,,l,Correct!,,,,,,t4.png,t2.png,2,0.059078,20,female,2020-11-11_23h51.08.927,torte-q,2020.1.3,Win32,60,12914,0.832075,,,,,,,,,,,,,,0,18,18,110,1,,,,,,,,,,,,,,,,,,,,,,,,,,
,,,,,,,,,,,,l,Correct!,,,,,,t4.png,t2.png,2,0.059078,20,female,2020-11-11_23h51.08.927,torte-q,2020.1.3,Win32,60,12914,1.00086,,,,,,,,,,,,,,0,19,19,86,1,,,,,,,,,,,,,,,,,,,,,,,,,,
,,,,,,,,,,,,l,Correct!,,,,,,t1.png,t4.png,3,0.0000131,20,female,2020-11-11_23h51.08.927,torte-q,2020.1.3,Win32,60,12914,0.85583,,,,,,,,,,,,,,0,20,20,81,1,,,,,,,,,,,,,,,,,,,,,,,,,,
,,,,,,,,,,,,l,Correct!,,,,,,t5.png,t3.png,2,0.056466,20,female,2020-11-11_23h51.08.927,torte-q,2020.1.3,Win32,60,12914,0.974795,,,,,,,,,,,,,,0,21,21,108,1,,,,,,,,,,,,,,,,,,,,,,,,,,
,,,,,,,,,,,,a,Correct!,,,,,,t5.png,t5.png,0,0.97829,20,female,2020-11-11_23h51.08.927,torte-q,2020.1.3,Win32,60,12914,0.83147,,,,,,,,,,,,,,0,22,22,25,1,,,,,,,,,,,,,,,,,,,,,,,,,,
,,,,,,,,,,,,l,Correct!,,,,,,t1.png,t5.png,4,9.55E-11,20,female,2020-11-11_23h51.08.927,torte-q,2020.1.3,Win32,60,12914,0.882055,,,,,,,,,,,,,,0,23,23,41,1,,,,,,,,,,,,,,,,,,,,,,,,,,
,,,,,,,,,,,,a,Correct!,,,,,,t1.png,t1.png,0,0.97829,20,female,2020-11-11_23h51.08.927,torte-q,2020.1.3,Win32,60,12914,0.631385,,,,,,,,,,,,,,0,24,24,67,1,,,,,,,,,,,,,,,,,,,,,,,,,,
,,,,,,,,,,,,l,Incorrect,,,,,,t1.png,t2.png,1,0.9,20,female,2020-11-11_23h51.08.927,torte-q,2020.1.3,Win32,60,12914,0.738355,,,,,,,,,,,,,,0,25,25,1,1,,,,,,,,,,,,,,,,,,,,,,,,,,
,,,,,,,,,,,,l,Correct!,,,,,,t3.png,t5.png,2,0.056466,20,female,2020-11-11_23h51.08.927,torte-q,2020.1.3,Win32,60,12914,0.787325,,,,,,,,,,,,,,0,26,26,6,1,,,,,,,,,,,,,,,,,,,,,,,,,,
,,,,,,,,,,,,l,Correct!,,,,,,t5.png,t2.png,3,0.0000131,20,female,2020-11-11_23h51.08.927,torte-q,2020.1.3,Win32,60,12914,1.00687,,,,,,,,,,,,,,0,27,27,51,1,,,,,,,,,,,,,,,,,,,,,,,,,,
,,,,,,,,,,,,l,Incorrect,,,,,,t1.png,t2.png,1,0.90025,20,female,2020-11-11_23h51.08.927,torte-q,2020.1.3,Win32,60,12914,0.797155,,,,,,,,,,,,,,0,28,28,72,1,,,,,,,,,,,,,,,,,,,,,,,,,,
,,,,,,,,,,,,a,Correct!,,,,,,t2.png,t2.png,0,0.98115,20,female,2020-11-11_23h51.08.927,torte-q,2020.1.3,Win32,60,12914,0.781745,,,,,,,,,,,,,,0,29,29,7,1,,,,,,,,,,,,,,,,,,,,,,,,,,
,,,,,,,,,,,,l,Correct!,,,,,,t4.png,t1.png,3,0.0000131,20,female,2020-11-11_23h51.08.927,torte-q,2020.1.3,Win32,60,12914,0.730945,,,,,,,,,,,,,,0,30,30,48,1,,,,,,,,,,,,,,,,,,,,,,,,,,
,,,,,,,,,,,,a,Correct!,,,,,,t5.png,t4.png,1,0.90025,20,female,2020-11-11_23h51.08.927,torte-q,2020.1.3,Win32,60,12914,1.199155,,,,,,,,,,,,,,0,31,31,34,1,,,,,,,,,,,,,,,,,,,,,,,,,,
,,,,,,,,,,,,l,Correct!,,,,,,t5.png,t3.png,2,0.0565,20,female,2020-11-11_23h51.08.927,torte-q,2020.1.3,Win32,60,12914,0.900055,,,,,,,,,,,,,,0,32,32,39,1,,,,,,,,,,,,,,,,,,,,,,,,,,
,,,,,,,,,,,,l,Incorrect,,,,,,t3.png,t4.png,1,0.90855,20,female,2020-11-11_23h51.08.927,torte-q,2020.1.3,Win32,60,12914,0.949875,,,,,,,,,,,,,,0,33,33,84,1,,,,,,,,,,,,,,,,,,,,,,,,,,
,,,,,,,,,,,,l,Correct!,,,,,,t2.png,t5.png,3,0.0000131,20,female,2020-11-11_23h51.08.927,torte-q,2020.1.3,Win32,60,12914,0.86706,,,,,,,,,,,,,,0,34,34,104,1,,,,,,,,,,,,,,,,,,,,,,,,,,
,,,,,,,,,,,,l,Correct!,,,,,,t1.png,t4.png,3,0.0000131,20,female,2020-11-11_23h51.08.927,torte-q,2020.1.3,Win32,60,12914,0.72515,,,,,,,,,,,,,,0,35,35,17,1,,,,,,,,,,,,,,,,,,,,,,,,,,
,,,,,,,,,,,,l,Incorrect,,,,,,t1.png,t2.png,1,0.90025,20,female,2020-11-11_23h51.08.927,torte-q,2020.1.3,Win32,60,12914,0.921475,,,,,,,,,,,,,,0,36,36,33,1,,,,,,,,,,,,,,,,,,,,,,,,,,
,,,,,,,,,,,,l,Correct!,,,,,,t3.png,t5.png,2,0.056466,20,female,2020-11-11_23h51.08.927,torte-q,2020.1.3,Win32,60,12914,0.9237,,,,,,,,,,,,,,0,37,37,44,1,,,,,,,,,,,,,,,,,,,,,,,,,,
,,,,,,,,,,,,a,Correct!,,,,,,t4.png,t5.png,1,0.90025,20,female,2020-11-11_23h51.08.927,torte-q,2020.1.3,Win32,60,12914,0.890775,,,,,,,,,,,,,,0,38,38,47,1,,,,,,,,,,,,,,,,,,,,,,,,,,
,,,,,,,,,,,,l,Correct!,,,,,,t5.png,t1.png,4,9.55E-11,20,female,2020-11-11_23h51.08.927,torte-q,2020.1.3,Win32,60,12914,0.81423,,,,,,,,,,,,,,0,39,39,22,1,,,,,,,,,,,,,,,,,,,,,,,,,,
,,,,,,,,,,,,a,Correct!,,,,,,t4.png,t5.png,1,0.9,20,female,2020-11-11_23h51.08.927,torte-q,2020.1.3,Win32,60,12914,0.847135,,,,,,,,,,,,,,0,40,40,115,1,,,,,,,,,,,,,,,,,,,,,,,,,,
,,,,,,,,,,,,l,Correct!,,,,,,t4.png,t2.png,2,0.059078,20,female,2020-11-11_23h51.08.927,torte-q,2020.1.3,Win32,60,12914,0.979625,,,,,,,,,,,,,,0,41,41,88,1,,,,,,,,,,,,,,,,,,,,,,,,,,
,,,,,,,,,,,,a,Correct!,,,,,,t2.png,t3.png,1,0.90855,20,female,2020-11-11_23h51.08.927,torte-q,2020.1.3,Win32,60,12914,1.01736,,,,,,,,,,,,,,0,42,42,68,1,,,,,,,,,,,,,,,,,,,,,,,,,,
,,,,,,,,,,,,l,Correct!,,,,,,t1.png,t3.png,2,0.056466,20,female,2020-11-11_23h51.08.927,torte-q,2020.1.3,Win32,60,12914,0.830635,,,,,,,,,,,,,,0,43,43,63,1,,,,,,,,,,,,,,,,,,,,,,,,,,
,,,,,,,,,,,,a,Correct!,,,,,,t3.png,t2.png,1,0.90855,20,female,2020-11-11_23h51.08.927,torte-q,2020.1.3,Win32,60,12914,0.83267,,,,,,,,,,,,,,0,44,44,97,1,,,,,,,,,,,,,,,,,,,,,,,,,,
,,,,,,,,,,,,l,Correct!,,,,,,t3.png,t1.png,2,0.056466,20,female,2020-11-11_23h51.08.927,torte-q,2020.1.3,Win32,60,12914,0.897535,,,,,,,,,,,,,,0,45,45,64,1,,,,,,,,,,,,,,,,,,,,,,,,,,
,,,,,,,,,,,,a,Correct!,,,,,,t4.png,t5.png,1,0.90025,20,female,2020-11-11_23h51.08.927,torte-q,2020.1.3,Win32,60,12914,0.846855,,,,,,,,,,,,,,0,46,46,58,1,,,,,,,,,,,,,,,,,,,,,,,,,,
,,,,,,,,,,,,l,Correct!,,,,,,t5.png,t2.png,3,0.0000131,20,female,2020-11-11_23h51.08.927,torte-q,2020.1.3,Win32,60,12914,0.797645,,,,,,,,,,,,,,0,47,47,116,1,,,,,,,,,,,,,,,,,,,,,,,,,,
,,,,,,,,,,,,l,Correct!,,,,,,t1.png,t4.png,3,0.0000131,20,female,2020-11-11_23h51.08.927,torte-q,2020.1.3,Win32,60,12914,0.699515,,,,,,,,,,,,,,0,48,48,50,1,,,,,,,,,,,,,,,,,,,,,,,,,,
,,,,,,,,,,,,l,Correct!,,,,,,t5.png,t1.png,4,9.55E-11,20,female,2020-11-11_23h51.08.927,torte-q,2020.1.3,Win32,60,12914,0.73385,,,,,,,,,,,,,,0,49,49,71,1,,,,,,,,,,,,,,,,,,,,,,,,,,
,,,,,,,,,,,,a,Correct!,,,,,,t5.png,t4.png,1,0.90025,20,female,2020-11-11_23h51.08.927,torte-q,2020.1.3,Win32,60,12914,0.81545,,,,,,,,,,,,,,0,50,50,27,1,,,,,,,,,,,,,,,,,,,,,,,,,,
,,,,,,,,,,,,l,Correct!,,,,,,t2.png,t4.png,2,0.059078,20,female,2020-11-11_23h51.08.927,torte-q,2020.1.3,Win32,60,12914,0.824775,,,,,,,,,,,,,,0,51,51,24,1,,,,,,,,,,,,,,,,,,,,,,,,,,
,,,,,,,,,,,,l,Correct!,,,,,,t5.png,t2.png,3,0.0000131,20,female,2020-11-11_23h51.08.927,torte-q,2020.1.3,Win32,60,12914,1.09869,,,,,,,,,,,,,,0,52,52,119,1,,,,,,,,,,,,,,,,,,,,,,,,,,
,,,,,,,,,,,,l,Correct!,,,,,,t2.png,t4.png,2,0.059078,20,female,2020-11-11_23h51.08.927,torte-q,2020.1.3,Win32,60,12914,0.79812,,,,,,,,,,,,,,0,53,53,77,1,,,,,,,,,,,,,,,,,,,,,,,,,,
,,,,,,,,,,,,l,Correct!,,,,,,t2.png,t4.png,2,0.0591,20,female,2020-11-11_23h51.08.927,torte-q,2020.1.3,Win32,60,12914,0.63086,,,,,,,,,,,,,,0,54,54,15,1,,,,,,,,,,,,,,,,,,,,,,,,,,
,,,,,,,,,,,,l,Correct!,,,,,,t5.png,t1.png,4,9.55E-11,20,female,2020-11-11_23h51.08.927,torte-q,2020.1.3,Win32,60,12914,0.701155,,,,,,,,,,,,,,0,55,55,100,1,,,,,,,,,,,,,,,,,,,,,,,,,,
,,,,,,,,,,,,a,Correct!,,,,,,t2.png,t2.png,0,0.98115,20,female,2020-11-11_23h51.08.927,torte-q,2020.1.3,Win32,60,12914,0.823255,,,,,,,,,,,,,,0,56,56,57,1,,,,,,,,,,,,,,,,,,,,,,,,,,
,,,,,,,,,,,,l,Correct!,,,,,,t1.png,t3.png,2,0.056466,20,female,2020-11-11_23h51.08.927,torte-q,2020.1.3,Win32,60,12914,0.801325,,,,,,,,,,,,,,0,57,57,69,1,,,,,,,,,,,,,,,,,,,,,,,,,,
,,,,,,,,,,,,a,Correct!,,,,,,t5.png,t4.png,1,0.9,20,female,2020-11-11_23h51.08.927,torte-q,2020.1.3,Win32,60,12914,0.76915,,,,,,,,,,,,,,0,58,58,49,1,,,,,,,,,,,,,,,,,,,,,,,,,,
,,,,,,,,,,,,l,Correct!,,,,,,t1.png,t4.png,3,0.0000131,20,female,2020-11-11_23h51.08.927,torte-q,2020.1.3,Win32,60,12914,0.6647,,,,,,,,,,,,,,0,59,59,92,1,,,,,,,,,,,,,,,,,,,,,,,,,,
,,,,,,,,,,,,a,Correct!,,,,,,t3.png,t2.png,1,0.90855,20,female,2020-11-11_23h51.08.927,torte-q,2020.1.3,Win32,60,12914,0.68845,,,,,,,,,,,,,,0,60,60,53,1,,,,,,,,,,,,,,,,,,,,,,,,,,
,,,,,,,,,,,,a,Correct!,,,,,,t5.png,t5.png,0,0.97829,20,female,2020-11-11_23h51.08.927,torte-q,2020.1.3,Win32,60,12914,0.79681,,,,,,,,,,,,,,0,61,61,94,1,,,,,,,,,,,,,,,,,,,,,,,,,,
,,,,,,,,,,,,a,Correct!,,,,,,t4.png,t4.png,0,0.98115,20,female,2020-11-11_23h51.08.927,torte-q,2020.1.3,Win32,60,12914,0.897595,,,,,,,,,,,,,,0,62,62,52,1,,,,,,,,,,,,,,,,,,,,,,,,,,
,,,,,,,,,,,,a,Correct!,,,,,,t2.png,t3.png,1,0.90855,20,female,2020-11-11_23h51.08.927,torte-q,2020.1.3,Win32,60,12914,0.782795,,,,,,,,,,,,,,0,63,63,10,1,,,,,,,,,,,,,,,,,,,,,,,,,,
,,,,,,,,,,,,l,Correct!,,,,,,t1.png,t4.png,3,0.0000131,20,female,2020-11-11_23h51.08.927,torte-q,2020.1.3,Win32,60,12914,0.78074,,,,,,,,,,,,,,0,64,64,107,1,,,,,,,,,,,,,,,,,,,,,,,,,,
,,,,,,,,,,,,a,Correct!,,,,,,t2.png,t3.png,1,0.90855,20,female,2020-11-11_23h51.08.927,torte-q,2020.1.3,Win32,60,12914,0.70996,,,,,,,,,,,,,,0,65,65,65,1,,,,,,,,,,,,,,,,,,,,,,,,,,
,,,,,,,,,,,,a,Correct!,,,,,,t5.png,t4.png,1,0.90025,20,female,2020-11-11_23h51.08.927,torte-q,2020.1.3,Win32,60,12914,0.94967,,,,,,,,,,,,,,0,66,66,26,1,,,,,,,,,,,,,,,,,,,,,,,,,,
,,,,,,,,,,,,l,Correct!,,,,,,t3.png,t4.png,1,0.909,20,female,2020-11-11_23h51.08.927,torte-q,2020.1.3,Win32,60,12914,0.900165,,,,,,,,,,,,,,0,67,67,89,1,,,,,,,,,,,,,,,,,,,,,,,,,,
,,,,,,,,,,,,a,Correct!,,,,,,t5.png,t5.png,0,0.978,20,female,2020-11-11_23h51.08.927,torte-q,2020.1.3,Win32,60,12914,0.73113,,,,,,,,,,,,,,0,68,68,117,1,,,,,,,,,,,,,,,,,,,,,,,,,,
,,,,,,,,,,,,l,Correct!,,,,,,t3.png,t5.png,2,0.0565,20,female,2020-11-11_23h51.08.927,torte-q,2020.1.3,Win32,60,12914,0.833575,,,,,,,,,,,,,,0,69,69,83,1,,,,,,,,,,,,,,,,,,,,,,,,,,
,,,,,,,,,,,,l,Incorrect,,,,,,t4.png,t3.png,1,0.90855,20,female,2020-11-11_23h51.08.927,torte-q,2020.1.3,Win32,60,12914,0.77459,,,,,,,,,,,,,,0,70,70,45,1,,,,,,,,,,,,,,,,,,,,,,,,,,
,,,,,,,,,,,,l,Correct!,,,,,,t1.png,t5.png,4,9.55E-11,20,female,2020-11-11_23h51.08.927,torte-q,2020.1.3,Win32,60,12914,0.68167,,,,,,,,,,,,,,0,71,71,16,1,,,,,,,,,,,,,,,,,,,,,,,,,,
,,,,,,,,,,,,l,Correct!,,,,,,t2.png,t4.png,2,0.059078,20,female,2020-11-11_23h51.08.927,torte-q,2020.1.3,Win32,60,12914,0.72455,,,,,,,,,,,,,,0,72,72,37,1,,,,,,,,,,,,,,,,,,,,,,,,,,
,,,,,,,,,,,,l,Correct!,,,,,,t3.png,t1.png,2,0.0565,20,female,2020-11-11_23h51.08.927,torte-q,2020.1.3,Win32,60,12914,0.6588,,,,,,,,,,,,,,0,73,73,31,1,,,,,,,,,,,,,,,,,,,,,,,,,,
,,,,,,,,,,,,l,Incorrect,,,,,,t1.png,t2.png,1,0.90025,20,female,2020-11-11_23h51.08.927,torte-q,2020.1.3,Win32,60,12914,0.769665,,,,,,,,,,,,,,0,74,74,105,1,,,,,,,,,,,,,,,,,,,,,,,,,,
,,,,,,,,,,,,a,Correct!,,,,,,t2.png,t2.png,0,0.98115,20,female,2020-11-11_23h51.08.927,torte-q,2020.1.3,Win32,60,12914,0.78153,,,,,,,,,,,,,,0,75,75,59,1,,,,,,,,,,,,,,,,,,,,,,,,,,
,,,,,,,,,,,,l,Correct!,,,,,,t2.png,t5.png,3,0.0000131,20,female,2020-11-11_23h51.08.927,torte-q,2020.1.3,Win32,60,12914,0.70184,,,,,,,,,,,,,,0,76,76,66,1,,,,,,,,,,,,,,,,,,,,,,,,,,
,,,,,,,,,,,,l,Correct!,,,,,,t1.png,t3.png,2,0.056466,20,female,2020-11-11_23h51.08.927,torte-q,2020.1.3,Win32,60,12914,0.63955,,,,,,,,,,,,,,0,77,77,99,1,,,,,,,,,,,,,,,,,,,,,,,,,,
,,,,,,,,,,,,l,Correct!,,,,,,t2.png,t1.png,1,0.90025,20,female,2020-11-11_23h51.08.927,torte-q,2020.1.3,Win32,60,12914,0.647875,,,,,,,,,,,,,,0,78,78,62,1,,,,,,,,,,,,,,,,,,,,,,,,,,
,,,,,,,,,,,,a,Correct!,,,,,,t1.png,t1.png,0,0.978,20,female,2020-11-11_23h51.08.927,torte-q,2020.1.3,Win32,60,12914,0.714785,,,,,,,,,,,,,,0,79,79,54,1,,,,,,,,,,,,,,,,,,,,,,,,,,
,,,,,,,,,,,,a,Correct!,,,,,,t4.png,t5.png,1,0.90025,20,female,2020-11-11_23h51.08.927,torte-q,2020.1.3,Win32,60,12914,0.88159,,,,,,,,,,,,,,0,80,80,113,1,,,,,,,,,,,,,,,,,,,,,,,,,,
,,,,,,,,,,,,l,Correct!,,,,,,t2.png,t5.png,3,0.0000131,20,female,2020-11-11_23h51.08.927,torte-q,2020.1.3,Win32,60,12914,0.71039,,,,,,,,,,,,,,0,81,81,8,1,,,,,,,,,,,,,,,,,,,,,,,,,,
,,,,,,,,,,,,l,Correct!,,,,,,t3.png,t1.png,2,0.056466,20,female,2020-11-11_23h51.08.927,torte-q,2020.1.3,Win32,60,12914,0.856355,,,,,,,,,,,,,,0,82,82,29,1,,,,,,,,,,,,,,,,,,,,,,,,,,
,,,,,,,,,,,,l,Correct!,,,,,,t4.png,t1.png,3,0.0000131,20,female,2020-11-11_23h51.08.927,torte-q,2020.1.3,Win32,60,12914,0.72629,,,,,,,,,,,,,,0,83,83,93,1,,,,,,,,,,,,,,,,,,,,,,,,,,
,,,,,,,,,,,,l,Correct!,,,,,,t1.png,t5.png,4,9.55E-11,20,female,2020-11-11_23h51.08.927,torte-q,2020.1.3,Win32,60,12914,0.725845,,,,,,,,,,,,,,0,84,84,55,1,,,,,,,,,,,,,,,,,,,,,,,,,,
,,,,,,,,,,,,a,Correct!,,,,,,t2.png,t2.png,0,0.98115,20,female,2020-11-11_23h51.08.927,torte-q,2020.1.3,Win32,60,12914,0.731535,,,,,,,,,,,,,,0,85,85,2,1,,,,,,,,,,,,,,,,,,,,,,,,,,
,,,,,,,,,,,,l,Correct!,,,,,,t2.png,t5.png,3,0.0000131,20,female,2020-11-11_23h51.08.927,torte-q,2020.1.3,Win32,60,12914,0.754085,,,,,,,,,,,,,,0,86,86,95,1,,,,,,,,,,,,,,,,,,,,,,,,,,
,,,,,,,,,,,,a,Correct!,,,,,,t3.png,t2.png,1,0.90855,20,female,2020-11-11_23h51.08.927,torte-q,2020.1.3,Win32,60,12914,0.769195,,,,,,,,,,,,,,0,87,87,18,1,,,,,,,,,,,,,,,,,,,,,,,,,,
,,,,,,,,,,,,l,Incorrect,,,,,,t3.png,t4.png,1,0.90855,20,female,2020-11-11_23h51.08.927,torte-q,2020.1.3,Win32,60,12914,0.80286,,,,,,,,,,,,,,0,88,88,96,1,,,,,,,,,,,,,,,,,,,,,,,,,,
,,,,,,,,,,,,l,Correct!,,,,,,t5.png,t1.png,4,9.55E-11,20,female,2020-11-11_23h51.08.927,torte-q,2020.1.3,Win32,60,12914,0.74992,,,,,,,,,,,,,,0,89,89,102,1,,,,,,,,,,,,,,,,,,,,,,,,,,
,,,,,,,,,,,,l,Correct!,,,,,,t5.png,t3.png,2,0.056466,20,female,2020-11-11_23h51.08.927,torte-q,2020.1.3,Win32,60,12914,0.88385,,,,,,,,,,,,,,0,90,90,56,1,,,,,,,,,,,,,,,,,,,,,,,,,,
,,,,,,,,,,,,a,Correct!,,,,,,t4.png,t5.png,1,0.90025,20,female,2020-11-11_23h51.08.927,torte-q,2020.1.3,Win32,60,12914,0.865035,,,,,,,,,,,,,,0,91,91,103,1,,,,,,,,,,,,,,,,,,,,,,,,,,
,,,,,,,,,,,,l,Correct!,,,,,,t4.png,t2.png,2,0.059078,20,female,2020-11-11_23h51.08.927,torte-q,2020.1.3,Win32,60,12914,0.802045,,,,,,,,,,,,,,0,92,92,109,1,,,,,,,,,,,,,,,,,,,,,,,,,,
,,,,,,,,,,,,a,Correct!,,,,,,t2.png,t2.png,0,0.981,20,female,2020-11-11_23h51.08.927,torte-q,2020.1.3,Win32,60,12914,0.67385,,,,,,,,,,,,,,0,93,93,101,1,,,,,,,,,,,,,,,,,,,,,,,,,,
,,,,,,,,,,,,l,Correct!,,,,,,t3.png,t1.png,2,0.056466,20,female,2020-11-11_23h51.08.927,torte-q,2020.1.3,Win32,60,12914,0.69958,,,,,,,,,,,,,,0,94,94,0,1,,,,,,,,,,,,,,,,,,,,,,,,,,
,,,,,,,,,,,,l,Correct!,,,,,,t5.png,t2.png,3,0.0000131,20,female,2020-11-11_23h51.08.927,torte-q,2020.1.3,Win32,60,12914,0.969355,,,,,,,,,,,,,,0,95,95,91,1,,,,,,,,,,,,,,,,,,,,,,,,,,
,,,,,,,,,,,,a,Correct!,,,,,,t5.png,t4.png,1,0.9,20,female,2020-11-11_23h51.08.927,torte-q,2020.1.3,Win32,60,12914,0.947845,,,,,,,,,,,,,,0,96,96,76,1,,,,,,,,,,,,,,,,,,,,,,,,,,
,,,,,,,,,,,,l,Incorrect,,,,,,t2.png,t1.png,1,0.9,20,female,2020-11-11_23h51.08.927,torte-q,2020.1.3,Win32,60,12914,0.717175,,,,,,,,,,,,,,0,97,97,118,1,,,,,,,,,,,,,,,,,,,,,,,,,,
,,,,,,,,,,,,l,Incorrect,,,,,,t4.png,t3.png,1,0.90855,20,female,2020-11-11_23h51.08.927,torte-q,2020.1.3,Win32,60,12914,0.772155,,,,,,,,,,,,,,0,98,98,35,1,,,,,,,,,,,,,,,,,,,,,,,,,,
,,,,,,,,,,,,a,Correct!,,,,,,t1.png,t1.png,0,0.978,20,female,2020-11-11_23h51.08.927,torte-q,2020.1.3,Win32,60,12914,0.75689,,,,,,,,,,,,,,0,99,99,28,1,,,,,,,,,,,,,,,,,,,,,,,,,,
,,,,,,,,,,,,l,Correct!,,,,,,t4.png,t1.png,3,0.0000131,20,female,2020-11-11_23h51.08.927,torte-q,2020.1.3,Win32,60,12914,0.720475,,,,,,,,,,,,,,0,100,100,42,1,,,,,,,,,,,,,,,,,,,,,,,,,,
,,,,,,,,,,,,l,Correct!,,,,,,t1.png,t3.png,2,0.056466,20,female,2020-11-11_23h51.08.927,torte-q,2020.1.3,Win32,60,12914,0.968885,,,,,,,,,,,,,,0,101,101,87,1,,,,,,,,,,,,,,,,,,,,,,,,,,
,,,,,,,,,,,,l,Correct!,,,,,,t5.png,t1.png,4,9.55E-11,20,female,2020-11-11_23h51.08.927,torte-q,2020.1.3,Win32,60,12914,0.800955,,,,,,,,,,,,,,0,102,102,43,1,,,,,,,,,,,,,,,,,,,,,,,,,,
,,,,,,,,,,,,l,Correct!,,,,,,t3.png,t1.png,2,0.056466,20,female,2020-11-11_23h51.08.927,torte-q,2020.1.3,Win32,60,12914,0.95483,,,,,,,,,,,,,,0,103,103,32,1,,,,,,,,,,,,,,,,,,,,,,,,,,
,,,,,,,,,,,,l,Correct!,,,,,,t3.png,t5.png,2,0.056466,20,female,2020-11-11_23h51.08.927,torte-q,2020.1.3,Win32,60,12914,1.05635,,,,,,,,,,,,,,0,104,104,14,1,,,,,,,,,,,,,,,,,,,,,,,,,,
,,,,,,,,,,,,a,Correct!,,,,,,t2.png,t3.png,1,0.909,20,female,2020-11-11_23h51.08.927,torte-q,2020.1.3,Win32,60,12914,0.97817,,,,,,,,,,,,,,0,105,105,74,1,,,,,,,,,,,,,,,,,,,,,,,,,,
,,,,,,,,,,,,l,Correct!,,,,,,t4.png,t1.png,3,0.0000131,20,female,2020-11-11_23h51.08.927,torte-q,2020.1.3,Win32,60,12914,0.69199,,,,,,,,,,,,,,0,106,106,61,1,,,,,,,,,,,,,,,,,,,,,,,,,,
,,,,,,,,,,,,a,Correct!,,,,,,t5.png,t5.png,0,0.97829,20,female,2020-11-11_23h51.08.927,torte-q,2020.1.3,Win32,60,12914,0.816055,,,,,,,,,,,,,,0,107,107,73,1,,,,,,,,,,,,,,,,,,,,,,,,,,
,,,,,,,,,,,,a,Correct!,,,,,,t4.png,t4.png,0,0.98115,20,female,2020-11-11_23h51.08.927,torte-q,2020.1.3,Win32,60,12914,0.720685,,,,,,,,,,,,,,0,108,108,21,1,,,,,,,,,,,,,,,,,,,,,,,,,,
,,,,,,,,,,,,a,Correct!,,,,,,t4.png,t4.png,0,0.98115,20,female,2020-11-11_23h51.08.927,torte-q,2020.1.3,Win32,60,12914,0.76549,,,,,,,,,,,,,,0,109,109,90,1,,,,,,,,,,,,,,,,,,,,,,,,,,
,,,,,,,,,,,,a,Correct!,,,,,,t2.png,t3.png,1,0.90855,20,female,2020-11-11_23h51.08.927,torte-q,2020.1.3,Win32,60,12914,0.947435,,,,,,,,,,,,,,0,110,110,111,1,,,,,,,,,,,,,,,,,,,,,,,,,,
,,,,,,,,,,,,l,Correct!,,,,,,t5.png,t3.png,2,0.056466,20,female,2020-11-11_23h51.08.927,torte-q,2020.1.3,Win32,60,12914,0.84074,,,,,,,,,,,,,,0,111,111,114,1,,,,,,,,,,,,,,,,,,,,,,,,,,
,,,,,,,,,,,,l,Correct!,,,,,,t4.png,t1.png,3,0.0000131,20,female,2020-11-11_23h51.08.927,torte-q,2020.1.3,Win32,60,12914,0.61434,,,,,,,,,,,,,,0,112,112,13,1,,,,,,,,,,,,,,,,,,,,,,,,,,
,,,,,,,,,,,,l,Correct!,,,,,,t2.png,t4.png,2,0.059078,20,female,2020-11-11_23h51.08.927,torte-q,2020.1.3,Win32,60,12914,1.02049,,,,,,,,,,,,,,0,113,113,11,1,,,,,,,,,,,,,,,,,,,,,,,,,,
,,,,,,,,,,,,l,Correct!,,,,,,t4.png,t2.png,2,0.0591,20,female,2020-11-11_23h51.08.927,torte-q,2020.1.3,Win32,60,12914,0.815645,,,,,,,,,,,,,,0,114,114,36,1,,,,,,,,,,,,,,,,,,,,,,,,,,
,,,,,,,,,,,,l,Correct!,,,,,,t2.png,t5.png,3,0.0000131,20,female,2020-11-11_23h51.08.927,torte-q,2020.1.3,Win32,60,12914,0.834815,,,,,,,,,,,,,,0,115,115,40,1,,,,,,,,,,,,,,,,,,,,,,,,,,
,,,,,,,,,,,,l,Incorrect,,,,,,t4.png,t3.png,1,0.909,20,female,2020-11-11_23h51.08.927,torte-q,2020.1.3,Win32,60,12914,0.88173,,,,,,,,,,,,,,0,116,116,20,1,,,,,,,,,,,,,,,,,,,,,,,,,,
,,,,,,,,,,,,l,Correct!,,,,,,t1.png,t5.png,4,9.55E-11,20,female,2020-11-11_23h51.08.927,torte-q,2020.1.3,Win32,60,12914,0.648015,,,,,,,,,,,,,,0,117,117,12,1,,,,,,,,,,,,,,,,,,,,,,,,,,
,,,,,,,,,,,,a,Correct!,,,,,,t5.png,t5.png,0,0.97829,20,female,2020-11-11_23h51.08.927,torte-q,2020.1.3,Win32,60,12914,0.633945,,,,,,,,,,,,,,0,118,118,70,1,,,,,,,,,,,,,,,,,,,,,,,,,,
,,,,,,,,,,,,a,Correct!,,,,,,t4.png,t4.png,0,0.98115,20,female,2020-11-11_23h51.08.927,torte-q,2020.1.3,Win32,60,12914,0.67713,,,,,,,,,,,,,,0,119,119,79,1,,,,,,,,,,,,,,,,,,,,,,,,,,
,,,,,,,,,,,,,,,,,,,,,,,20,female,2020-11-11_23h51.08.927,torte-q,2020.1.3,Win32,60,12914,,space,1.83691,,,,,,,,,,,,,,,,,4.015,6.31118,95.33335525,179.3333279,1,0,0,s1,60.66668755,77.9999916,1,0,0,t1,262.0000269,-107.3333473,1,0,0,proceed,space,4.906145,space,0.91827,space,0.16136
