key_resp_8.keys,key_resp_8.rt,key_resp_9.keys,key_resp_9.rt,key_resp_10.keys,key_resp_10.rt,key_resp_11.keys,key_resp_11.rt,key_resp_2.keys,key_resp_2.rt,key_resp_3.keys,key_resp_3.rt,key_resp.keys,Feedback,train.thisRepN,train.thisTrialN,train.thisN,train.thisIndex,train.ran,torta_sx,torta_dx,difference,probability,age,gender,date,expName,psychopyVersion,OS,frameRate,participant,key_resp.rt,key_resp_15.keys,key_resp_15.rt,key_resp_6.keys,key_resp_6.rt,test1.thisRepN,test1.thisTrialN,test1.thisN,test1.thisIndex,test1.ran,key_resp_16.keys,key_resp_16.rt,key_resp_7.keys,key_resp_7.rt,test2.thisRepN,test2.thisTrialN,test2.thisN,test2.thisIndex,test2.ran,rating.response,rating.rt,mouse.x,mouse.y,mouse.leftButton,mouse.midButton,mouse.rightButton,mouse.clicked_name,mouse_2.x,mouse_2.y,mouse_2.leftButton,mouse_2.midButton,mouse_2.rightButton,mouse_2.clicked_name,mouse_3.x,mouse_3.y,mouse_3.leftButton,mouse_3.midButton,mouse_3.rightButton,mouse_3.clicked_name,key_resp_12.keys,key_resp_12.rt,key_resp_13.keys,key_resp_13.rt,key_resp_14.keys,key_resp_14.rt
space,0.91727,space,0.29854,space,0.067515,space,0.39986,c,0.18855,space,33.501485,,Too slow :(,0,0,0,83,1,t3.png,t1.png,2,0.056466,23,female,2020-10-22_08h23.52.526,torte-q,2020.1.3,MacIntel,60,13176,,,,,,,,,,,,,,,,,,,,,,,,,,,,,,,,,,,,,,,,,,,,,
,,,,,,,,,,,,l,Correct!,0,1,1,37,1,t1.png,t4.png,3,0.0000131,23,female,2020-10-22_08h23.52.526,torte-q,2020.1.3,MacIntel,60,13176,1.011985,,,,,,,,,,,,,,,,,,,,,,,,,,,,,,,,,,,,,,,,,,,,
,,,,,,,,,,,,a,Incorrect,0,2,2,51,1,t3.png,t1.png,2,0.056466,23,female,2020-10-22_08h23.52.526,torte-q,2020.1.3,MacIntel,60,13176,0.82867,,,,,,,,,,,,,,,,,,,,,,,,,,,,,,,,,,,,,,,,,,,,
,,,,,,,,,,,,a,Incorrect,0,3,3,53,1,t3.png,t1.png,2,0.056466,23,female,2020-10-22_08h23.52.526,torte-q,2020.1.3,MacIntel,60,13176,0.89142,,,,,,,,,,,,,,,,,,,,,,,,,,,,,,,,,,,,,,,,,,,,
,,,,,,,,,,,,l,Incorrect,0,4,4,79,1,t3.png,t2.png,1,0.909,23,female,2020-10-22_08h23.52.526,torte-q,2020.1.3,MacIntel,60,13176,1.06488,,,,,,,,,,,,,,,,,,,,,,,,,,,,,,,,,,,,,,,,,,,,
,,,,,,,,,,,,a,Incorrect,0,5,5,108,1,t5.png,t1.png,4,9.55E-11,23,female,2020-10-22_08h23.52.526,torte-q,2020.1.3,MacIntel,60,13176,0.860005,,,,,,,,,,,,,,,,,,,,,,,,,,,,,,,,,,,,,,,,,,,,
,,,,,,,,,,,,l,Correct!,0,6,6,90,1,t1.png,t5.png,4,9.55E-11,23,female,2020-10-22_08h23.52.526,torte-q,2020.1.3,MacIntel,60,13176,0.95303,,,,,,,,,,,,,,,,,,,,,,,,,,,,,,,,,,,,,,,,,,,,
,,,,,,,,,,,,l,Correct!,0,7,7,99,1,t1.png,t5.png,4,9.55E-11,23,female,2020-10-22_08h23.52.526,torte-q,2020.1.3,MacIntel,60,13176,0.771245,,,,,,,,,,,,,,,,,,,,,,,,,,,,,,,,,,,,,,,,,,,,
,,,,,,,,,,,,a,Incorrect,0,8,8,74,1,t5.png,t4.png,1,0.9,23,female,2020-10-22_08h23.52.526,torte-q,2020.1.3,MacIntel,60,13176,1.78453,,,,,,,,,,,,,,,,,,,,,,,,,,,,,,,,,,,,,,,,,,,,
,,,,,,,,,,,,l,Correct!,0,9,9,30,1,t3.png,t1.png,2,0.056466,23,female,2020-10-22_08h23.52.526,torte-q,2020.1.3,MacIntel,60,13176,1.66833,,,,,,,,,,,,,,,,,,,,,,,,,,,,,,,,,,,,,,,,,,,,
,,,,,,,,,,,,l,Incorrect,0,10,10,77,1,t1.png,t1.png,0,0.97829,23,female,2020-10-22_08h23.52.526,torte-q,2020.1.3,MacIntel,60,13176,0.384535,,,,,,,,,,,,,,,,,,,,,,,,,,,,,,,,,,,,,,,,,,,,
,,,,,,,,,,,,a,Correct!,0,11,11,118,1,t5.png,t5.png,0,0.978,23,female,2020-10-22_08h23.52.526,torte-q,2020.1.3,MacIntel,60,13176,0.334495,,,,,,,,,,,,,,,,,,,,,,,,,,,,,,,,,,,,,,,,,,,,
,,,,,,,,,,,,a,Correct!,0,12,12,25,1,t5.png,t5.png,0,0.97829,23,female,2020-10-22_08h23.52.526,torte-q,2020.1.3,MacIntel,60,13176,0.00063,,,,,,,,,,,,,,,,,,,,,,,,,,,,,,,,,,,,,,,,,,,,
,,,,,,,,,,,,l,Incorrect,0,13,13,114,1,t2.png,t3.png,1,0.90855,23,female,2020-10-22_08h23.52.526,torte-q,2020.1.3,MacIntel,60,13176,0.450885,,,,,,,,,,,,,,,,,,,,,,,,,,,,,,,,,,,,,,,,,,,,
,,,,,,,,,,,,a,Incorrect,0,14,14,35,1,t1.png,t4.png,3,0.0000131,23,female,2020-10-22_08h23.52.526,torte-q,2020.1.3,MacIntel,60,13176,0.00067,,,,,,,,,,,,,,,,,,,,,,,,,,,,,,,,,,,,,,,,,,,,
,,,,,,,,,,,,a,Incorrect,0,15,15,6,1,t1.png,t4.png,3,0.0000131,23,female,2020-10-22_08h23.52.526,torte-q,2020.1.3,MacIntel,60,13176,1.05936,,,,,,,,,,,,,,,,,,,,,,,,,,,,,,,,,,,,,,,,,,,,
,,,,,,,,,,,,l,Correct!,0,16,16,0,1,t5.png,t1.png,4,9.55E-11,23,female,2020-10-22_08h23.52.526,torte-q,2020.1.3,MacIntel,60,13176,0.29709,,,,,,,,,,,,,,,,,,,,,,,,,,,,,,,,,,,,,,,,,,,,
,,,,,,,,,,,,l,Incorrect,0,17,17,59,1,t5.png,t4.png,1,0.9,23,female,2020-10-22_08h23.52.526,torte-q,2020.1.3,MacIntel,60,13176,0.26359,,,,,,,,,,,,,,,,,,,,,,,,,,,,,,,,,,,,,,,,,,,,
,,,,,,,,,,,,a,Correct!,0,18,18,76,1,t3.png,t2.png,1,0.90855,23,female,2020-10-22_08h23.52.526,torte-q,2020.1.3,MacIntel,60,13176,0.101605,,,,,,,,,,,,,,,,,,,,,,,,,,,,,,,,,,,,,,,,,,,,
,,,,,,,,,,,,a,Correct!,0,19,19,105,1,t3.png,t2.png,1,0.90855,23,female,2020-10-22_08h23.52.526,torte-q,2020.1.3,MacIntel,60,13176,0.25101,,,,,,,,,,,,,,,,,,,,,,,,,,,,,,,,,,,,,,,,,,,,
,,,,,,,,,,,,a,Incorrect,0,20,20,47,1,t4.png,t2.png,2,0.059078,23,female,2020-10-22_08h23.52.526,torte-q,2020.1.3,MacIntel,60,13176,0.32622,,,,,,,,,,,,,,,,,,,,,,,,,,,,,,,,,,,,,,,,,,,,
,,,,,,,,,,,,l,Correct!,0,21,21,5,1,t2.png,t4.png,2,0.059078,23,female,2020-10-22_08h23.52.526,torte-q,2020.1.3,MacIntel,60,13176,0.405615,,,,,,,,,,,,,,,,,,,,,,,,,,,,,,,,,,,,,,,,,,,,
,,,,,,,,,,,,l,Correct!,0,22,22,14,1,t2.png,t4.png,2,0.059078,23,female,2020-10-22_08h23.52.526,torte-q,2020.1.3,MacIntel,60,13176,0.126975,,,,,,,,,,,,,,,,,,,,,,,,,,,,,,,,,,,,,,,,,,,,
,,,,,,,,,,,,l,Incorrect,0,23,23,96,1,t1.png,t1.png,0,0.97829,23,female,2020-10-22_08h23.52.526,torte-q,2020.1.3,MacIntel,60,13176,0.052225,,,,,,,,,,,,,,,,,,,,,,,,,,,,,,,,,,,,,,,,,,,,
,,,,,,,,,,,,l,Correct!,0,24,24,111,1,t5.png,t1.png,4,9.55E-11,23,female,2020-10-22_08h23.52.526,torte-q,2020.1.3,MacIntel,60,13176,0.28311,,,,,,,,,,,,,,,,,,,,,,,,,,,,,,,,,,,,,,,,,,,,
,,,,,,,,,,,,l,Correct!,0,25,25,56,1,t5.png,t1.png,4,9.55E-11,23,female,2020-10-22_08h23.52.526,torte-q,2020.1.3,MacIntel,60,13176,2.02041,,,,,,,,,,,,,,,,,,,,,,,,,,,,,,,,,,,,,,,,,,,,
,,,,,,,,,,,,a,Correct!,0,26,26,81,1,t1.png,t1.png,0,0.97829,23,female,2020-10-22_08h23.52.526,torte-q,2020.1.3,MacIntel,60,13176,0.051535,,,,,,,,,,,,,,,,,,,,,,,,,,,,,,,,,,,,,,,,,,,,
,,,,,,,,,,,,a,Incorrect,0,27,27,98,1,t2.png,t4.png,2,0.0591,23,female,2020-10-22_08h23.52.526,torte-q,2020.1.3,MacIntel,60,13176,0.15203,,,,,,,,,,,,,,,,,,,,,,,,,,,,,,,,,,,,,,,,,,,,
,,,,,,,,,,,,l,Incorrect,0,28,28,107,1,t1.png,t1.png,0,0.978,23,female,2020-10-22_08h23.52.526,torte-q,2020.1.3,MacIntel,60,13176,0.14256,,,,,,,,,,,,,,,,,,,,,,,,,,,,,,,,,,,,,,,,,,,,
,,,,,,,,,,,,l,Incorrect,0,29,29,66,1,t4.png,t5.png,1,0.9,23,female,2020-10-22_08h23.52.526,torte-q,2020.1.3,MacIntel,60,13176,0.102505,,,,,,,,,,,,,,,,,,,,,,,,,,,,,,,,,,,,,,,,,,,,
,,,,,,,,,,,,a,Incorrect,0,30,30,87,1,t5.png,t1.png,4,9.55E-11,23,female,2020-10-22_08h23.52.526,torte-q,2020.1.3,MacIntel,60,13176,0.266395,,,,,,,,,,,,,,,,,,,,,,,,,,,,,,,,,,,,,,,,,,,,
,,,,,,,,,,,,l,Incorrect,0,31,31,95,1,t1.png,t1.png,0,0.978,23,female,2020-10-22_08h23.52.526,torte-q,2020.1.3,MacIntel,60,13176,0.033075,,,,,,,,,,,,,,,,,,,,,,,,,,,,,,,,,,,,,,,,,,,,
,,,,,,,,,,,,a,Incorrect,0,32,32,103,1,t3.png,t1.png,2,0.056466,23,female,2020-10-22_08h23.52.526,torte-q,2020.1.3,MacIntel,60,13176,0.2846,,,,,,,,,,,,,,,,,,,,,,,,,,,,,,,,,,,,,,,,,,,,
,,,,,,,,,,,,a,Correct!,0,33,33,71,1,t5.png,t5.png,0,0.97829,23,female,2020-10-22_08h23.52.526,torte-q,2020.1.3,MacIntel,60,13176,0.770895,,,,,,,,,,,,,,,,,,,,,,,,,,,,,,,,,,,,,,,,,,,,
,,,,,,,,,,,,a,Incorrect,0,34,34,10,1,t2.png,t3.png,1,0.90855,23,female,2020-10-22_08h23.52.526,torte-q,2020.1.3,MacIntel,60,13176,0.99165,,,,,,,,,,,,,,,,,,,,,,,,,,,,,,,,,,,,,,,,,,,,
,,,,,,,,,,,,l,Correct!,0,35,35,54,1,t1.png,t5.png,4,9.55E-11,23,female,2020-10-22_08h23.52.526,torte-q,2020.1.3,MacIntel,60,13176,0.41091,,,,,,,,,,,,,,,,,,,,,,,,,,,,,,,,,,,,,,,,,,,,
,,,,,,,,,,,,l,Correct!,0,36,36,117,1,t1.png,t5.png,4,9.55E-11,23,female,2020-10-22_08h23.52.526,torte-q,2020.1.3,MacIntel,60,13176,0.582025,,,,,,,,,,,,,,,,,,,,,,,,,,,,,,,,,,,,,,,,,,,,
,,,,,,,,,,,,l,Incorrect,0,37,37,62,1,t5.png,t5.png,0,0.978,23,female,2020-10-22_08h23.52.526,torte-q,2020.1.3,MacIntel,60,13176,0.517315,,,,,,,,,,,,,,,,,,,,,,,,,,,,,,,,,,,,,,,,,,,,
,,,,,,,,,,,,a,Correct!,0,38,38,44,1,t2.png,t3.png,1,0.909,23,female,2020-10-22_08h23.52.526,torte-q,2020.1.3,MacIntel,60,13176,0.139685,,,,,,,,,,,,,,,,,,,,,,,,,,,,,,,,,,,,,,,,,,,,
,,,,,,,,,,,,a,Incorrect,0,39,39,17,1,t1.png,t4.png,3,0.0000131,23,female,2020-10-22_08h23.52.526,torte-q,2020.1.3,MacIntel,60,13176,0.540285,,,,,,,,,,,,,,,,,,,,,,,,,,,,,,,,,,,,,,,,,,,,
,,,,,,,,,,,,a,Correct!,0,40,40,9,1,t4.png,t5.png,1,0.9,23,female,2020-10-22_08h23.52.526,torte-q,2020.1.3,MacIntel,60,13176,1.13313,,,,,,,,,,,,,,,,,,,,,,,,,,,,,,,,,,,,,,,,,,,,
,,,,,,,,,,,,l,Incorrect,0,41,41,92,1,t2.png,t3.png,1,0.909,23,female,2020-10-22_08h23.52.526,torte-q,2020.1.3,MacIntel,60,13176,0.10002,,,,,,,,,,,,,,,,,,,,,,,,,,,,,,,,,,,,,,,,,,,,
,,,,,,,,,,,,a,Correct!,0,42,42,18,1,t4.png,t5.png,1,0.90025,23,female,2020-10-22_08h23.52.526,torte-q,2020.1.3,MacIntel,60,13176,0.42215,,,,,,,,,,,,,,,,,,,,,,,,,,,,,,,,,,,,,,,,,,,,
,,,,,,,,,,,,a,Incorrect,0,43,43,67,1,t1.png,t5.png,4,9.55E-11,23,female,2020-10-22_08h23.52.526,torte-q,2020.1.3,MacIntel,60,13176,0.24948,,,,,,,,,,,,,,,,,,,,,,,,,,,,,,,,,,,,,,,,,,,,
,,,,,,,,,,,,l,Correct!,0,44,44,19,1,t4.png,t2.png,2,0.059078,23,female,2020-10-22_08h23.52.526,torte-q,2020.1.3,MacIntel,60,13176,0.132585,,,,,,,,,,,,,,,,,,,,,,,,,,,,,,,,,,,,,,,,,,,,
,,,,,,,,,,,,a,Incorrect,0,45,45,11,1,t1.png,t4.png,3,0.0000131,23,female,2020-10-22_08h23.52.526,torte-q,2020.1.3,MacIntel,60,13176,0.08455,,,,,,,,,,,,,,,,,,,,,,,,,,,,,,,,,,,,,,,,,,,,
,,,,,,,,,,,,l,Correct!,0,46,46,50,1,t5.png,t1.png,4,9.55E-11,23,female,2020-10-22_08h23.52.526,torte-q,2020.1.3,MacIntel,60,13176,0.066915,,,,,,,,,,,,,,,,,,,,,,,,,,,,,,,,,,,,,,,,,,,,
,,,,,,,,,,,,l,Correct!,0,47,47,80,1,t1.png,t4.png,3,0.0000131,23,female,2020-10-22_08h23.52.526,torte-q,2020.1.3,MacIntel,60,13176,0.31031,,,,,,,,,,,,,,,,,,,,,,,,,,,,,,,,,,,,,,,,,,,,
,,,,,,,,,,,,a,Correct!,0,48,48,28,1,t2.png,t3.png,1,0.909,23,female,2020-10-22_08h23.52.526,torte-q,2020.1.3,MacIntel,60,13176,0.533855,,,,,,,,,,,,,,,,,,,,,,,,,,,,,,,,,,,,,,,,,,,,
,,,,,,,,,,,,l,Incorrect,0,49,49,110,1,t4.png,t5.png,1,0.90025,23,female,2020-10-22_08h23.52.526,torte-q,2020.1.3,MacIntel,60,13176,0.50194,,,,,,,,,,,,,,,,,,,,,,,,,,,,,,,,,,,,,,,,,,,,
,,,,,,,,,,,,a,Incorrect,0,50,50,82,1,t5.png,t1.png,4,9.55E-11,23,female,2020-10-22_08h23.52.526,torte-q,2020.1.3,MacIntel,60,13176,0.24372,,,,,,,,,,,,,,,,,,,,,,,,,,,,,,,,,,,,,,,,,,,,
,,,,,,,,,,,,a,Correct!,0,51,51,32,1,t4.png,t5.png,1,0.90025,23,female,2020-10-22_08h23.52.526,torte-q,2020.1.3,MacIntel,60,13176,0.393655,,,,,,,,,,,,,,,,,,,,,,,,,,,,,,,,,,,,,,,,,,,,
,,,,,,,,,,,,a,Correct!,0,52,52,29,1,t5.png,t5.png,0,0.97829,23,female,2020-10-22_08h23.52.526,torte-q,2020.1.3,MacIntel,60,13176,0.98835,,,,,,,,,,,,,,,,,,,,,,,,,,,,,,,,,,,,,,,,,,,,
,,,,,,,,,,,,,Too slow :(,0,53,53,49,1,t4.png,t5.png,1,0.9,23,female,2020-10-22_08h23.52.526,torte-q,2020.1.3,MacIntel,60,13176,,,,,,,,,,,,,,,,,,,,,,,,,,,,,,,,,,,,,,,,,,,,,
,,,,,,,,,,,,a,Correct!,0,54,54,97,1,t5.png,t5.png,0,0.97829,23,female,2020-10-22_08h23.52.526,torte-q,2020.1.3,MacIntel,60,13176,1.893545,,,,,,,,,,,,,,,,,,,,,,,,,,,,,,,,,,,,,,,,,,,,
,,,,,,,,,,,,l,Incorrect,0,55,55,23,1,t5.png,t4.png,1,0.90025,23,female,2020-10-22_08h23.52.526,torte-q,2020.1.3,MacIntel,60,13176,0.73904,,,,,,,,,,,,,,,,,,,,,,,,,,,,,,,,,,,,,,,,,,,,
,,,,,,,,,,,,l,Correct!,0,56,56,38,1,t3.png,t1.png,2,0.056466,23,female,2020-10-22_08h23.52.526,torte-q,2020.1.3,MacIntel,60,13176,1.51344,,,,,,,,,,,,,,,,,,,,,,,,,,,,,,,,,,,,,,,,,,,,
,,,,,,,,,,,,l,Incorrect,0,57,57,70,1,t5.png,t5.png,0,0.978,23,female,2020-10-22_08h23.52.526,torte-q,2020.1.3,MacIntel,60,13176,1.19582,,,,,,,,,,,,,,,,,,,,,,,,,,,,,,,,,,,,,,,,,,,,
,,,,,,,,,,,,,Too slow :(,0,58,58,21,1,t5.png,t4.png,1,0.90025,23,female,2020-10-22_08h23.52.526,torte-q,2020.1.3,MacIntel,60,13176,,,,,,,,,,,,,,,,,,,,,,,,,,,,,,,,,,,,,,,,,,,,,
,,,,,,,,,,,,,Too slow :(,0,59,59,3,1,t1.png,t5.png,4,9.55E-11,23,female,2020-10-22_08h23.52.526,torte-q,2020.1.3,MacIntel,60,13176,,,,,,,,,,,,,,,,,,,,,,,,,,,,,,,,,,,,,,,,,,,,,
,,,,,,,,,,,,l,Incorrect,0,60,60,106,1,t2.png,t3.png,1,0.90855,23,female,2020-10-22_08h23.52.526,torte-q,2020.1.3,MacIntel,60,13176,0.235705,,,,,,,,,,,,,,,,,,,,,,,,,,,,,,,,,,,,,,,,,,,,
,,,,,,,,,,,,a,Incorrect,0,61,61,69,1,t4.png,t2.png,2,0.059078,23,female,2020-10-22_08h23.52.526,torte-q,2020.1.3,MacIntel,60,13176,2.36558,,,,,,,,,,,,,,,,,,,,,,,,,,,,,,,,,,,,,,,,,,,,
,,,,,,,,,,,,l,Incorrect,0,62,62,39,1,t3.png,t2.png,1,0.90855,23,female,2020-10-22_08h23.52.526,torte-q,2020.1.3,MacIntel,60,13176,0.31788,,,,,,,,,,,,,,,,,,,,,,,,,,,,,,,,,,,,,,,,,,,,
,,,,,,,,,,,,a,Incorrect,0,63,63,12,1,t5.png,t1.png,4,9.55E-11,23,female,2020-10-22_08h23.52.526,torte-q,2020.1.3,MacIntel,60,13176,0.393245,,,,,,,,,,,,,,,,,,,,,,,,,,,,,,,,,,,,,,,,,,,,
,,,,,,,,,,,,l,Incorrect,0,64,64,34,1,t5.png,t4.png,1,0.9,23,female,2020-10-22_08h23.52.526,torte-q,2020.1.3,MacIntel,60,13176,0.356705,,,,,,,,,,,,,,,,,,,,,,,,,,,,,,,,,,,,,,,,,,,,
,,,,,,,,,,,,a,Correct!,0,65,65,16,1,t5.png,t4.png,1,0.9,23,female,2020-10-22_08h23.52.526,torte-q,2020.1.3,MacIntel,60,13176,0.539635,,,,,,,,,,,,,,,,,,,,,,,,,,,,,,,,,,,,,,,,,,,,
,,,,,,,,,,,,l,Incorrect,0,66,66,101,1,t4.png,t5.png,1,0.90025,23,female,2020-10-22_08h23.52.526,torte-q,2020.1.3,MacIntel,60,13176,0.28611,,,,,,,,,,,,,,,,,,,,,,,,,,,,,,,,,,,,,,,,,,,,
,,,,,,,,,,,,a,Incorrect,0,67,67,73,1,t4.png,t2.png,2,0.059078,23,female,2020-10-22_08h23.52.526,torte-q,2020.1.3,MacIntel,60,13176,0.32323,,,,,,,,,,,,,,,,,,,,,,,,,,,,,,,,,,,,,,,,,,,,
,,,,,,,,,,,,l,Incorrect,0,68,68,42,1,t5.png,t4.png,1,0.90025,23,female,2020-10-22_08h23.52.526,torte-q,2020.1.3,MacIntel,60,13176,0.628545,,,,,,,,,,,,,,,,,,,,,,,,,,,,,,,,,,,,,,,,,,,,
,,,,,,,,,,,,a,Incorrect,0,69,69,68,1,t1.png,t4.png,3,0.0000131,23,female,2020-10-22_08h23.52.526,torte-q,2020.1.3,MacIntel,60,13176,0.376315,,,,,,,,,,,,,,,,,,,,,,,,,,,,,,,,,,,,,,,,,,,,
,,,,,,,,,,,,l,Correct!,0,70,70,86,1,t3.png,t1.png,2,0.056466,23,female,2020-10-22_08h23.52.526,torte-q,2020.1.3,MacIntel,60,13176,1.497515,,,,,,,,,,,,,,,,,,,,,,,,,,,,,,,,,,,,,,,,,,,,
,,,,,,,,,,,,,Too slow :(,0,71,71,20,1,t2.png,t3.png,1,0.90855,23,female,2020-10-22_08h23.52.526,torte-q,2020.1.3,MacIntel,60,13176,,,,,,,,,,,,,,,,,,,,,,,,,,,,,,,,,,,,,,,,,,,,,
,,,,,,,,,,,,l,Incorrect,0,72,72,22,1,t2.png,t3.png,1,0.90855,23,female,2020-10-22_08h23.52.526,torte-q,2020.1.3,MacIntel,60,13176,0.38798,,,,,,,,,,,,,,,,,,,,,,,,,,,,,,,,,,,,,,,,,,,,
,,,,,,,,,,,,a,Incorrect,0,73,73,88,1,t3.png,t1.png,2,0.056466,23,female,2020-10-22_08h23.52.526,torte-q,2020.1.3,MacIntel,60,13176,0.335295,,,,,,,,,,,,,,,,,,,,,,,,,,,,,,,,,,,,,,,,,,,,
,,,,,,,,,,,,a,Correct!,0,74,74,109,1,t5.png,t5.png,0,0.97829,23,female,2020-10-22_08h23.52.526,torte-q,2020.1.3,MacIntel,60,13176,0.150705,,,,,,,,,,,,,,,,,,,,,,,,,,,,,,,,,,,,,,,,,,,,
,,,,,,,,,,,,l,Correct!,0,75,75,115,1,t2.png,t4.png,2,0.059078,23,female,2020-10-22_08h23.52.526,torte-q,2020.1.3,MacIntel,60,13176,0.519755,,,,,,,,,,,,,,,,,,,,,,,,,,,,,,,,,,,,,,,,,,,,
,,,,,,,,,,,,l,Correct!,0,76,76,72,1,t4.png,t2.png,2,0.059078,23,female,2020-10-22_08h23.52.526,torte-q,2020.1.3,MacIntel,60,13176,0.44914,,,,,,,,,,,,,,,,,,,,,,,,,,,,,,,,,,,,,,,,,,,,
,,,,,,,,,,,,a,Correct!,0,77,77,85,1,t3.png,t2.png,1,0.90855,23,female,2020-10-22_08h23.52.526,torte-q,2020.1.3,MacIntel,60,13176,0.418745,,,,,,,,,,,,,,,,,,,,,,,,,,,,,,,,,,,,,,,,,,,,
,,,,,,,,,,,,l,Incorrect,0,78,78,104,1,t2.png,t3.png,1,0.90855,23,female,2020-10-22_08h23.52.526,torte-q,2020.1.3,MacIntel,60,13176,0.398165,,,,,,,,,,,,,,,,,,,,,,,,,,,,,,,,,,,,,,,,,,,,
,,,,,,,,,,,,a,Incorrect,0,79,79,43,1,t4.png,t2.png,2,0.059078,23,female,2020-10-22_08h23.52.526,torte-q,2020.1.3,MacIntel,60,13176,0.47874,,,,,,,,,,,,,,,,,,,,,,,,,,,,,,,,,,,,,,,,,,,,
,,,,,,,,,,,,l,Incorrect,0,80,80,60,1,t2.png,t4.png,2,0.059078,23,female,2020-10-22_08h23.52.526,torte-q,2020.1.3,MacIntel,60,13176,0.436825,,,,,,,,,,,,,,,,,,,,,,,,,,,,,,,,,,,,,,,,,,,,
,,,,,,,,,,,,l,Correct!,0,81,81,1,1,t2.png,t4.png,2,0.059078,23,female,2020-10-22_08h23.52.526,torte-q,2020.1.3,MacIntel,60,13176,0.82264,,,,,,,,,,,,,,,,,,,,,,,,,,,,,,,,,,,,,,,,,,,,
,,,,,,,,,,,,l,Incorrect,0,82,82,100,1,t4.png,t5.png,1,0.90025,23,female,2020-10-22_08h23.52.526,torte-q,2020.1.3,MacIntel,60,13176,0.186095,,,,,,,,,,,,,,,,,,,,,,,,,,,,,,,,,,,,,,,,,,,,
,,,,,,,,,,,,a,Correct!,0,83,83,15,1,t3.png,t2.png,1,0.90855,23,female,2020-10-22_08h23.52.526,torte-q,2020.1.3,MacIntel,60,13176,1.083595,,,,,,,,,,,,,,,,,,,,,,,,,,,,,,,,,,,,,,,,,,,,
,,,,,,,,,,,,l,Incorrect,0,84,84,45,1,t3.png,t2.png,1,0.90855,23,female,2020-10-22_08h23.52.526,torte-q,2020.1.3,MacIntel,60,13176,0.580965,,,,,,,,,,,,,,,,,,,,,,,,,,,,,,,,,,,,,,,,,,,,
,,,,,,,,,,,,a,Incorrect,0,85,85,40,1,t1.png,t5.png,4,9.55E-11,23,female,2020-10-22_08h23.52.526,torte-q,2020.1.3,MacIntel,60,13176,0.411525,,,,,,,,,,,,,,,,,,,,,,,,,,,,,,,,,,,,,,,,,,,,
,,,,,,,,,,,,l,Correct!,0,86,86,36,1,t3.png,t1.png,2,0.0565,23,female,2020-10-22_08h23.52.526,torte-q,2020.1.3,MacIntel,60,13176,0.456975,,,,,,,,,,,,,,,,,,,,,,,,,,,,,,,,,,,,,,,,,,,,
,,,,,,,,,,,,l,Correct!,0,87,87,4,1,t1.png,t5.png,4,9.55E-11,23,female,2020-10-22_08h23.52.526,torte-q,2020.1.3,MacIntel,60,13176,0.793165,,,,,,,,,,,,,,,,,,,,,,,,,,,,,,,,,,,,,,,,,,,,
,,,,,,,,,,,,a,Incorrect,0,88,88,91,1,t1.png,t4.png,3,0.0000131,23,female,2020-10-22_08h23.52.526,torte-q,2020.1.3,MacIntel,60,13176,0.344865,,,,,,,,,,,,,,,,,,,,,,,,,,,,,,,,,,,,,,,,,,,,
,,,,,,,,,,,,a,Correct!,0,89,89,112,1,t1.png,t1.png,0,0.97829,23,female,2020-10-22_08h23.52.526,torte-q,2020.1.3,MacIntel,60,13176,1.528885,,,,,,,,,,,,,,,,,,,,,,,,,,,,,,,,,,,,,,,,,,,,
,,,,,,,,,,,,l,Incorrect,0,90,90,84,1,t1.png,t1.png,0,0.97829,23,female,2020-10-22_08h23.52.526,torte-q,2020.1.3,MacIntel,60,13176,0.524785,,,,,,,,,,,,,,,,,,,,,,,,,,,,,,,,,,,,,,,,,,,,
,,,,,,,,,,,,l,Incorrect,0,91,91,13,1,t5.png,t5.png,0,0.97829,23,female,2020-10-22_08h23.52.526,torte-q,2020.1.3,MacIntel,60,13176,0.35007,,,,,,,,,,,,,,,,,,,,,,,,,,,,,,,,,,,,,,,,,,,,
,,,,,,,,,,,,a,Correct!,0,92,92,116,1,t5.png,t4.png,1,0.90025,23,female,2020-10-22_08h23.52.526,torte-q,2020.1.3,MacIntel,60,13176,0.094285,,,,,,,,,,,,,,,,,,,,,,,,,,,,,,,,,,,,,,,,,,,,
,,,,,,,,,,,,l,Correct!,0,93,93,31,1,t1.png,t5.png,4,9.55E-11,23,female,2020-10-22_08h23.52.526,torte-q,2020.1.3,MacIntel,60,13176,0.32313,,,,,,,,,,,,,,,,,,,,,,,,,,,,,,,,,,,,,,,,,,,,
,,,,,,,,,,,,l,Incorrect,0,94,94,48,1,t5.png,t5.png,0,0.97829,23,female,2020-10-22_08h23.52.526,torte-q,2020.1.3,MacIntel,60,13176,1.03576,,,,,,,,,,,,,,,,,,,,,,,,,,,,,,,,,,,,,,,,,,,,
,,,,,,,,,,,,a,Incorrect,0,95,95,33,1,t5.png,t1.png,4,9.55E-11,23,female,2020-10-22_08h23.52.526,torte-q,2020.1.3,MacIntel,60,13176,0.58368,,,,,,,,,,,,,,,,,,,,,,,,,,,,,,,,,,,,,,,,,,,,
,,,,,,,,,,,,l,Incorrect,0,96,96,78,1,t1.png,t1.png,0,0.978,23,female,2020-10-22_08h23.52.526,torte-q,2020.1.3,MacIntel,60,13176,0.497905,,,,,,,,,,,,,,,,,,,,,,,,,,,,,,,,,,,,,,,,,,,,
,,,,,,,,,,,,a,Incorrect,0,97,97,24,1,t4.png,t2.png,2,0.059078,23,female,2020-10-22_08h23.52.526,torte-q,2020.1.3,MacIntel,60,13176,0.539355,,,,,,,,,,,,,,,,,,,,,,,,,,,,,,,,,,,,,,,,,,,,
,,,,,,,,,,,,a,Incorrect,0,98,98,26,1,t4.png,t2.png,2,0.0591,23,female,2020-10-22_08h23.52.526,torte-q,2020.1.3,MacIntel,60,13176,0.839455,,,,,,,,,,,,,,,,,,,,,,,,,,,,,,,,,,,,,,,,,,,,
,,,,,,,,,,,,l,Correct!,0,99,99,102,1,t4.png,t2.png,2,0.059078,23,female,2020-10-22_08h23.52.526,torte-q,2020.1.3,MacIntel,60,13176,0.428355,,,,,,,,,,,,,,,,,,,,,,,,,,,,,,,,,,,,,,,,,,,,
,,,,,,,,,,,,l,Correct!,0,100,100,93,1,t2.png,t4.png,2,0.059078,23,female,2020-10-22_08h23.52.526,torte-q,2020.1.3,MacIntel,60,13176,0.85312,,,,,,,,,,,,,,,,,,,,,,,,,,,,,,,,,,,,,,,,,,,,
,,,,,,,,,,,,a,Correct!,0,101,101,58,1,t5.png,t4.png,1,0.90025,23,female,2020-10-22_08h23.52.526,torte-q,2020.1.3,MacIntel,60,13176,0.00067,,,,,,,,,,,,,,,,,,,,,,,,,,,,,,,,,,,,,,,,,,,,
,,,,,,,,,,,,l,Correct!,0,102,102,46,1,t4.png,t2.png,2,0.059078,23,female,2020-10-22_08h23.52.526,torte-q,2020.1.3,MacIntel,60,13176,0.267935,,,,,,,,,,,,,,,,,,,,,,,,,,,,,,,,,,,,,,,,,,,,
,,,,,,,,,,,,l,Incorrect,0,103,103,64,1,t1.png,t1.png,0,0.978,23,female,2020-10-22_08h23.52.526,torte-q,2020.1.3,MacIntel,60,13176,0.41495,,,,,,,,,,,,,,,,,,,,,,,,,,,,,,,,,,,,,,,,,,,,
,,,,,,,,,,,,a,Incorrect,0,104,104,61,1,t1.png,t4.png,3,0.0000131,23,female,2020-10-22_08h23.52.526,torte-q,2020.1.3,MacIntel,60,13176,0.31618,,,,,,,,,,,,,,,,,,,,,,,,,,,,,,,,,,,,,,,,,,,,
,,,,,,,,,,,,l,Incorrect,0,105,105,65,1,t4.png,t5.png,1,0.90025,23,female,2020-10-22_08h23.52.526,torte-q,2020.1.3,MacIntel,60,13176,0.32076,,,,,,,,,,,,,,,,,,,,,,,,,,,,,,,,,,,,,,,,,,,,
,,,,,,,,,,,,a,Incorrect,0,106,106,119,1,t1.png,t5.png,4,9.55E-11,23,female,2020-10-22_08h23.52.526,torte-q,2020.1.3,MacIntel,60,13176,0.3216,,,,,,,,,,,,,,,,,,,,,,,,,,,,,,,,,,,,,,,,,,,,
,,,,,,,,,,,,l,Correct!,0,107,107,52,1,t2.png,t4.png,2,0.059078,23,female,2020-10-22_08h23.52.526,torte-q,2020.1.3,MacIntel,60,13176,0.40438,,,,,,,,,,,,,,,,,,,,,,,,,,,,,,,,,,,,,,,,,,,,
,,,,,,,,,,,,l,Incorrect,0,108,108,8,1,t3.png,t2.png,1,0.90855,23,female,2020-10-22_08h23.52.526,torte-q,2020.1.3,MacIntel,60,13176,0.37932,,,,,,,,,,,,,,,,,,,,,,,,,,,,,,,,,,,,,,,,,,,,
,,,,,,,,,,,,a,Correct!,0,109,109,113,1,t5.png,t4.png,1,0.9,23,female,2020-10-22_08h23.52.526,torte-q,2020.1.3,MacIntel,60,13176,0.79211,,,,,,,,,,,,,,,,,,,,,,,,,,,,,,,,,,,,,,,,,,,,
,,,,,,,,,,,,l,Correct!,0,110,110,89,1,t1.png,t4.png,3,0.0000131,23,female,2020-10-22_08h23.52.526,torte-q,2020.1.3,MacIntel,60,13176,0.44501,,,,,,,,,,,,,,,,,,,,,,,,,,,,,,,,,,,,,,,,,,,,
,,,,,,,,,,,,l,Correct!,0,111,111,55,1,t2.png,t4.png,2,0.059078,23,female,2020-10-22_08h23.52.526,torte-q,2020.1.3,MacIntel,60,13176,1.06681,,,,,,,,,,,,,,,,,,,,,,,,,,,,,,,,,,,,,,,,,,,,
,,,,,,,,,,,,l,Correct!,0,112,112,27,1,t3.png,t1.png,2,0.0565,23,female,2020-10-22_08h23.52.526,torte-q,2020.1.3,MacIntel,60,13176,1.20422,,,,,,,,,,,,,,,,,,,,,,,,,,,,,,,,,,,,,,,,,,,,
,,,,,,,,,,,,a,Incorrect,0,113,113,57,1,t2.png,t4.png,2,0.059078,23,female,2020-10-22_08h23.52.526,torte-q,2020.1.3,MacIntel,60,13176,0.980735,,,,,,,,,,,,,,,,,,,,,,,,,,,,,,,,,,,,,,,,,,,,
,,,,,,,,,,,,l,Incorrect,0,114,114,41,1,t3.png,t2.png,1,0.90855,23,female,2020-10-22_08h23.52.526,torte-q,2020.1.3,MacIntel,60,13176,1.377635,,,,,,,,,,,,,,,,,,,,,,,,,,,,,,,,,,,,,,,,,,,,
,,,,,,,,,,,,l,Correct!,0,115,115,94,1,t5.png,t1.png,4,9.55E-11,23,female,2020-10-22_08h23.52.526,torte-q,2020.1.3,MacIntel,60,13176,0.39987,,,,,,,,,,,,,,,,,,,,,,,,,,,,,,,,,,,,,,,,,,,,
,,,,,,,,,,,,l,Incorrect,0,116,116,75,1,t1.png,t1.png,0,0.97829,23,female,2020-10-22_08h23.52.526,torte-q,2020.1.3,MacIntel,60,13176,0.82834,,,,,,,,,,,,,,,,,,,,,,,,,,,,,,,,,,,,,,,,,,,,
,,,,,,,,,,,,l,Incorrect,0,117,117,7,1,t4.png,t5.png,1,0.90025,23,female,2020-10-22_08h23.52.526,torte-q,2020.1.3,MacIntel,60,13176,0.47508,,,,,,,,,,,,,,,,,,,,,,,,,,,,,,,,,,,,,,,,,,,,
,,,,,,,,,,,,a,Correct!,0,118,118,63,1,t2.png,t3.png,1,0.909,23,female,2020-10-22_08h23.52.526,torte-q,2020.1.3,MacIntel,60,13176,0.366905,,,,,,,,,,,,,,,,,,,,,,,,,,,,,,,,,,,,,,,,,,,,
,,,,,,,,,,,,l,Incorrect,0,119,119,2,1,t3.png,t2.png,1,0.90855,23,female,2020-10-22_08h23.52.526,torte-q,2020.1.3,MacIntel,60,13176,0.43297,,,,,,,,,,,,,,,,,,,,,,,,,,,,,,,,,,,,,,,,,,,,
,,,,,,,,,,,,a,Correct!,,,,,,t2.png,t2.png,0,0.98115,23,female,2020-10-22_08h23.52.526,torte-q,2020.1.3,MacIntel,60,13176,1.450925,a,0.266365,l,21.214205,0,0,0,59,1,,,,,,,,,,,,,,,,,,,,,,,,,,,,,,,,,,,
,,,,,,,,,,,,l,Correct!,,,,,,t2.png,t3.png,1,0.90855,23,female,2020-10-22_08h23.52.526,torte-q,2020.1.3,MacIntel,60,13176,0.275985,,,,,0,1,1,68,1,,,,,,,,,,,,,,,,,,,,,,,,,,,,,,,,,,,
,,,,,,,,,,,,a,Incorrect,,,,,,t1.png,t4.png,3,0.0000131,23,female,2020-10-22_08h23.52.526,torte-q,2020.1.3,MacIntel,60,13176,0.25177,,,,,0,2,2,17,1,,,,,,,,,,,,,,,,,,,,,,,,,,,,,,,,,,,
,,,,,,,,,,,,a,Incorrect,,,,,,t2.png,t4.png,2,0.059078,23,female,2020-10-22_08h23.52.526,torte-q,2020.1.3,MacIntel,60,13176,0.31766,,,,,0,3,3,77,1,,,,,,,,,,,,,,,,,,,,,,,,,,,,,,,,,,,
,,,,,,,,,,,,a,Incorrect,,,,,,t5.png,t3.png,2,0.056466,23,female,2020-10-22_08h23.52.526,torte-q,2020.1.3,MacIntel,60,13176,0.840285,,,,,0,4,4,56,1,,,,,,,,,,,,,,,,,,,,,,,,,,,,,,,,,,,
,,,,,,,,,,,,l,Incorrect,,,,,,t2.png,t3.png,1,0.909,23,female,2020-10-22_08h23.52.526,torte-q,2020.1.3,MacIntel,60,13176,2.182035,,,,,0,5,5,74,1,,,,,,,,,,,,,,,,,,,,,,,,,,,,,,,,,,,
,,,,,,,,,,,,l,Correct!,,,,,,t1.png,t5.png,4,9.55E-11,23,female,2020-10-22_08h23.52.526,torte-q,2020.1.3,MacIntel,60,13176,0.960095,,,,,0,6,6,85,1,,,,,,,,,,,,,,,,,,,,,,,,,,,,,,,,,,,
,,,,,,,,,,,,l,Correct!,,,,,,t1.png,t3.png,2,0.056466,23,female,2020-10-22_08h23.52.526,torte-q,2020.1.3,MacIntel,60,13176,1.21797,,,,,0,7,7,87,1,,,,,,,,,,,,,,,,,,,,,,,,,,,,,,,,,,,
,,,,,,,,,,,,l,Correct!,,,,,,t3.png,t5.png,2,0.0565,23,female,2020-10-22_08h23.52.526,torte-q,2020.1.3,MacIntel,60,13176,1.384995,,,,,0,8,8,83,1,,,,,,,,,,,,,,,,,,,,,,,,,,,,,,,,,,,
,,,,,,,,,,,,a,Correct!,,,,,,t2.png,t3.png,1,0.90855,23,female,2020-10-22_08h23.52.526,torte-q,2020.1.3,MacIntel,60,13176,0.265405,,,,,0,9,9,10,1,,,,,,,,,,,,,,,,,,,,,,,,,,,,,,,,,,,
,,,,,,,,,,,,a,Correct!,,,,,,t5.png,t5.png,0,0.978,23,female,2020-10-22_08h23.52.526,torte-q,2020.1.3,MacIntel,60,13176,0.33573,,,,,0,10,10,117,1,,,,,,,,,,,,,,,,,,,,,,,,,,,,,,,,,,,
,,,,,,,,,,,,a,Incorrect,,,,,,t3.png,t1.png,2,0.0565,23,female,2020-10-22_08h23.52.526,torte-q,2020.1.3,MacIntel,60,13176,0.665205,,,,,0,11,11,31,1,,,,,,,,,,,,,,,,,,,,,,,,,,,,,,,,,,,
,,,,,,,,,,,,l,Correct!,,,,,,t1.png,t4.png,3,0.0000131,23,female,2020-10-22_08h23.52.526,torte-q,2020.1.3,MacIntel,60,13176,0.384125,,,,,0,12,12,81,1,,,,,,,,,,,,,,,,,,,,,,,,,,,,,,,,,,,
,,,,,,,,,,,,a,Correct!,,,,,,t2.png,t4.png,2,0.059078,23,female,2020-10-22_08h23.52.526,torte-q,2020.1.3,MacIntel,60,13176,0.416735,,,,,0,13,13,37,1,,,,,,,,,,,,,,,,,,,,,,,,,,,,,,,,,,,
,,,,,,,,,,,,l,Correct!,,,,,,t5.png,t4.png,1,0.90025,23,female,2020-10-22_08h23.52.526,torte-q,2020.1.3,MacIntel,60,13176,0.71673,,,,,0,14,14,26,1,,,,,,,,,,,,,,,,,,,,,,,,,,,,,,,,,,,
,,,,,,,,,,,,a,Correct!,,,,,,t1.png,t2.png,1,0.90025,23,female,2020-10-22_08h23.52.526,torte-q,2020.1.3,MacIntel,60,13176,0.276615,,,,,0,15,15,105,1,,,,,,,,,,,,,,,,,,,,,,,,,,,,,,,,,,,
,,,,,,,,,,,,l,Correct!,,,,,,t2.png,t3.png,1,0.90855,23,female,2020-10-22_08h23.52.526,torte-q,2020.1.3,MacIntel,60,13176,0.31613,,,,,0,16,16,111,1,,,,,,,,,,,,,,,,,,,,,,,,,,,,,,,,,,,
,,,,,,,,,,,,a,Incorrect,,,,,,t1.png,t3.png,2,0.056466,23,female,2020-10-22_08h23.52.526,torte-q,2020.1.3,MacIntel,60,13176,0.07671,,,,,0,17,17,69,1,,,,,,,,,,,,,,,,,,,,,,,,,,,,,,,,,,,
,,,,,,,,,,,,l,Incorrect,,,,,,t5.png,t4.png,1,0.9,23,female,2020-10-22_08h23.52.526,torte-q,2020.1.3,MacIntel,60,13176,0.26842,,,,,0,18,18,49,1,,,,,,,,,,,,,,,,,,,,,,,,,,,,,,,,,,,
,,,,,,,,,,,,a,Incorrect,,,,,,t5.png,t3.png,2,0.056466,23,female,2020-10-22_08h23.52.526,torte-q,2020.1.3,MacIntel,60,13176,0.385935,,,,,0,19,19,114,1,,,,,,,,,,,,,,,,,,,,,,,,,,,,,,,,,,,
,,,,,,,,,,,,a,Incorrect,,,,,,t1.png,t3.png,2,0.056466,23,female,2020-10-22_08h23.52.526,torte-q,2020.1.3,MacIntel,60,13176,0.457325,,,,,0,20,20,63,1,,,,,,,,,,,,,,,,,,,,,,,,,,,,,,,,,,,
,,,,,,,,,,,,a,Correct!,,,,,,t3.png,t4.png,1,0.909,23,female,2020-10-22_08h23.52.526,torte-q,2020.1.3,MacIntel,60,13176,0.24362,,,,,0,21,21,89,1,,,,,,,,,,,,,,,,,,,,,,,,,,,,,,,,,,,
,,,,,,,,,,,,a,Incorrect,,,,,,t5.png,t2.png,3,0.0000131,23,female,2020-10-22_08h23.52.526,torte-q,2020.1.3,MacIntel,60,13176,0.55004,,,,,0,22,22,98,1,,,,,,,,,,,,,,,,,,,,,,,,,,,,,,,,,,,
,,,,,,,,,,,,l,Correct!,,,,,,t2.png,t4.png,2,0.059078,23,female,2020-10-22_08h23.52.526,torte-q,2020.1.3,MacIntel,60,13176,1.02892,,,,,0,23,23,24,1,,,,,,,,,,,,,,,,,,,,,,,,,,,,,,,,,,,
,,,,,,,,,,,,l,Incorrect,,,,,,t4.png,t4.png,0,0.98115,23,female,2020-10-22_08h23.52.526,torte-q,2020.1.3,MacIntel,60,13176,1.266115,,,,,0,24,24,80,1,,,,,,,,,,,,,,,,,,,,,,,,,,,,,,,,,,,
,,,,,,,,,,,,l,Correct!,,,,,,t2.png,t5.png,3,0.0000131,23,female,2020-10-22_08h23.52.526,torte-q,2020.1.3,MacIntel,60,13176,1.249045,,,,,0,25,25,66,1,,,,,,,,,,,,,,,,,,,,,,,,,,,,,,,,,,,
,,,,,,,,,,,,,Too slow :(,,,,,,t4.png,t2.png,2,0.059078,23,female,2020-10-22_08h23.52.526,torte-q,2020.1.3,MacIntel,60,13176,,,,,,0,26,26,109,1,,,,,,,,,,,,,,,,,,,,,,,,,,,,,,,,,,,
,,,,,,,,,,,,l,Correct!,,,,,,t2.png,t5.png,3,0.0000131,23,female,2020-10-22_08h23.52.526,torte-q,2020.1.3,MacIntel,60,13176,0.84277,,,,,0,27,27,40,1,,,,,,,,,,,,,,,,,,,,,,,,,,,,,,,,,,,
,,,,,,,,,,,,a,Correct!,,,,,,t4.png,t4.png,0,0.98115,23,female,2020-10-22_08h23.52.526,torte-q,2020.1.3,MacIntel,60,13176,0.76706,,,,,0,28,28,21,1,,,,,,,,,,,,,,,,,,,,,,,,,,,,,,,,,,,
,,,,,,,,,,,,l,Correct!,,,,,,t1.png,t3.png,2,0.056466,23,female,2020-10-22_08h23.52.526,torte-q,2020.1.3,MacIntel,60,13176,0.602015,,,,,0,29,29,99,1,,,,,,,,,,,,,,,,,,,,,,,,,,,,,,,,,,,
,,,,,,,,,,,,a,Incorrect,,,,,,t5.png,t1.png,4,9.55E-11,23,female,2020-10-22_08h23.52.526,torte-q,2020.1.3,MacIntel,60,13176,0.920625,,,,,0,30,30,43,1,,,,,,,,,,,,,,,,,,,,,,,,,,,,,,,,,,,
,,,,,,,,,,,,a,Correct!,,,,,,t5.png,t5.png,0,0.97829,23,female,2020-10-22_08h23.52.526,torte-q,2020.1.3,MacIntel,60,13176,0.420235,,,,,0,31,31,25,1,,,,,,,,,,,,,,,,,,,,,,,,,,,,,,,,,,,
,,,,,,,,,,,,l,Correct!,,,,,,t2.png,t4.png,2,0.059078,23,female,2020-10-22_08h23.52.526,torte-q,2020.1.3,MacIntel,60,13176,0.68318,,,,,0,32,32,11,1,,,,,,,,,,,,,,,,,,,,,,,,,,,,,,,,,,,
,,,,,,,,,,,,a,Incorrect,,,,,,t3.png,t1.png,2,0.056466,23,female,2020-10-22_08h23.52.526,torte-q,2020.1.3,MacIntel,60,13176,0.351925,,,,,0,33,33,64,1,,,,,,,,,,,,,,,,,,,,,,,,,,,,,,,,,,,
,,,,,,,,,,,,l,Incorrect,,,,,,t3.png,t4.png,1,0.90855,23,female,2020-10-22_08h23.52.526,torte-q,2020.1.3,MacIntel,60,13176,0.26911,,,,,0,34,34,96,1,,,,,,,,,,,,,,,,,,,,,,,,,,,,,,,,,,,
,,,,,,,,,,,,a,Correct!,,,,,,t2.png,t2.png,0,0.98115,23,female,2020-10-22_08h23.52.526,torte-q,2020.1.3,MacIntel,60,13176,0.40871,,,,,0,35,35,2,1,,,,,,,,,,,,,,,,,,,,,,,,,,,,,,,,,,,
,,,,,,,,,,,,a,Incorrect,,,,,,t2.png,t4.png,2,0.0591,23,female,2020-10-22_08h23.52.526,torte-q,2020.1.3,MacIntel,60,13176,0.35318,,,,,0,36,36,15,1,,,,,,,,,,,,,,,,,,,,,,,,,,,,,,,,,,,
,,,,,,,,,,,,l,Incorrect,,,,,,t2.png,t1.png,1,0.9,23,female,2020-10-22_08h23.52.526,torte-q,2020.1.3,MacIntel,60,13176,0.35047,,,,,0,37,37,118,1,,,,,,,,,,,,,,,,,,,,,,,,,,,,,,,,,,,
,,,,,,,,,,,,a,Incorrect,,,,,,t2.png,t5.png,3,0.0000131,23,female,2020-10-22_08h23.52.526,torte-q,2020.1.3,MacIntel,60,13176,0.38592,,,,,0,38,38,95,1,,,,,,,,,,,,,,,,,,,,,,,,,,,,,,,,,,,
,,,,,,,,,,,,a,Correct!,,,,,,t3.png,t4.png,1,0.909,23,female,2020-10-22_08h23.52.526,torte-q,2020.1.3,MacIntel,60,13176,0.3552,,,,,0,39,39,106,1,,,,,,,,,,,,,,,,,,,,,,,,,,,,,,,,,,,
,,,,,,,,,,,,l,Correct!,,,,,,t1.png,t5.png,4,9.55E-11,23,female,2020-10-22_08h23.52.526,torte-q,2020.1.3,MacIntel,60,13176,0.36207,,,,,0,40,40,12,1,,,,,,,,,,,,,,,,,,,,,,,,,,,,,,,,,,,
,,,,,,,,,,,,a,Incorrect,,,,,,t4.png,t1.png,3,0.0000131,23,female,2020-10-22_08h23.52.526,torte-q,2020.1.3,MacIntel,60,13176,0.618785,,,,,0,41,41,13,1,,,,,,,,,,,,,,,,,,,,,,,,,,,,,,,,,,,
,,,,,,,,,,,,a,Correct!,,,,,,t4.png,t3.png,1,0.90855,23,female,2020-10-22_08h23.52.526,torte-q,2020.1.3,MacIntel,60,13176,0.31819,,,,,0,42,42,35,1,,,,,,,,,,,,,,,,,,,,,,,,,,,,,,,,,,,
,,,,,,,,,,,,l,Incorrect,,,,,,t3.png,t2.png,1,0.90855,23,female,2020-10-22_08h23.52.526,torte-q,2020.1.3,MacIntel,60,13176,1.10839,,,,,0,43,43,53,1,,,,,,,,,,,,,,,,,,,,,,,,,,,,,,,,,,,
,,,,,,,,,,,,a,Correct!,,,,,,t3.png,t2.png,1,0.909,23,female,2020-10-22_08h23.52.526,torte-q,2020.1.3,MacIntel,60,13176,0.66897,,,,,0,44,44,3,1,,,,,,,,,,,,,,,,,,,,,,,,,,,,,,,,,,,
,,,,,,,,,,,,l,Incorrect,,,,,,t2.png,t2.png,0,0.98115,23,female,2020-10-22_08h23.52.526,torte-q,2020.1.3,MacIntel,60,13176,0.566625,,,,,0,45,45,57,1,,,,,,,,,,,,,,,,,,,,,,,,,,,,,,,,,,,
,,,,,,,,,,,,a,Correct!,,,,,,t4.png,t3.png,1,0.90855,23,female,2020-10-22_08h23.52.526,torte-q,2020.1.3,MacIntel,60,13176,0.557035,,,,,0,46,46,75,1,,,,,,,,,,,,,,,,,,,,,,,,,,,,,,,,,,,
,,,,,,,,,,,,l,Incorrect,,,,,,t5.png,t4.png,1,0.90025,23,female,2020-10-22_08h23.52.526,torte-q,2020.1.3,MacIntel,60,13176,0.38588,,,,,0,47,47,27,1,,,,,,,,,,,,,,,,,,,,,,,,,,,,,,,,,,,
,,,,,,,,,,,,a,Incorrect,,,,,,t1.png,t2.png,1,0.90025,23,female,2020-10-22_08h23.52.526,torte-q,2020.1.3,MacIntel,60,13176,0.821275,,,,,0,48,48,112,1,,,,,,,,,,,,,,,,,,,,,,,,,,,,,,,,,,,
,,,,,,,,,,,,l,Correct!,,,,,,t2.png,t5.png,3,0.0000131,23,female,2020-10-22_08h23.52.526,torte-q,2020.1.3,MacIntel,60,13176,0.497955,,,,,0,49,49,104,1,,,,,,,,,,,,,,,,,,,,,,,,,,,,,,,,,,,
,,,,,,,,,,,,a,Incorrect,,,,,,t3.png,t1.png,2,0.056466,23,female,2020-10-22_08h23.52.526,torte-q,2020.1.3,MacIntel,60,13176,0.41551,,,,,0,50,50,29,1,,,,,,,,,,,,,,,,,,,,,,,,,,,,,,,,,,,
,,,,,,,,,,,,l,Correct!,,,,,,t4.png,t2.png,2,0.059078,23,female,2020-10-22_08h23.52.526,torte-q,2020.1.3,MacIntel,60,13176,0.28459,,,,,0,51,51,86,1,,,,,,,,,,,,,,,,,,,,,,,,,,,,,,,,,,,
,,,,,,,,,,,,l,Correct!,,,,,,t3.png,t5.png,2,0.056466,23,female,2020-10-22_08h23.52.526,torte-q,2020.1.3,MacIntel,60,13176,0.301705,,,,,0,52,52,14,1,,,,,,,,,,,,,,,,,,,,,,,,,,,,,,,,,,,
,,,,,,,,,,,,a,Incorrect,,,,,,t4.png,t1.png,3,0.0000131,23,female,2020-10-22_08h23.52.526,torte-q,2020.1.3,MacIntel,60,13176,0.280375,,,,,0,53,53,61,1,,,,,,,,,,,,,,,,,,,,,,,,,,,,,,,,,,,
,,,,,,,,,,,,l,Correct!,,,,,,t4.png,t1.png,3,0.0000131,23,female,2020-10-22_08h23.52.526,torte-q,2020.1.3,MacIntel,60,13176,0.265025,,,,,0,54,54,42,1,,,,,,,,,,,,,,,,,,,,,,,,,,,,,,,,,,,
,,,,,,,,,,,,l,Correct!,,,,,,t5.png,t4.png,1,0.9,23,female,2020-10-22_08h23.52.526,torte-q,2020.1.3,MacIntel,60,13176,0.317555,,,,,0,55,55,76,1,,,,,,,,,,,,,,,,,,,,,,,,,,,,,,,,,,,
,,,,,,,,,,,,a,Correct!,,,,,,t1.png,t2.png,1,0.90025,23,female,2020-10-22_08h23.52.526,torte-q,2020.1.3,MacIntel,60,13176,0.281015,,,,,0,56,56,33,1,,,,,,,,,,,,,,,,,,,,,,,,,,,,,,,,,,,
,,,,,,,,,,,,l,Incorrect,,,,,,t2.png,t1.png,1,0.90025,23,female,2020-10-22_08h23.52.526,torte-q,2020.1.3,MacIntel,60,13176,0.3071,,,,,0,57,57,19,1,,,,,,,,,,,,,,,,,,,,,,,,,,,,,,,,,,,
,,,,,,,,,,,,a,Incorrect,,,,,,t3.png,t1.png,2,0.056466,23,female,2020-10-22_08h23.52.526,torte-q,2020.1.3,MacIntel,60,13176,0.29958,,,,,0,58,58,32,1,,,,,,,,,,,,,,,,,,,,,,,,,,,,,,,,,,,
,,,,,,,,,,,,a,Incorrect,,,,,,t1.png,t3.png,2,0.056466,23,female,2020-10-22_08h23.52.526,torte-q,2020.1.3,MacIntel,60,13176,0.39083,,,,,0,59,59,60,1,,,,,,,,,,,,,,,,,,,,,,,,,,,,,,,,,,,
,,,,,,,,,,,,a,Incorrect,,,,,,t5.png,t2.png,3,0.0000131,23,female,2020-10-22_08h23.52.526,torte-q,2020.1.3,MacIntel,60,13176,0.691975,,,,,0,60,60,116,1,,,,,,,,,,,,,,,,,,,,,,,,,,,,,,,,,,,
,,,,,,,,,,,,l,Correct!,,,,,,t3.png,t5.png,2,0.056466,23,female,2020-10-22_08h23.52.526,torte-q,2020.1.3,MacIntel,60,13176,1.46659,,,,,0,61,61,6,1,,,,,,,,,,,,,,,,,,,,,,,,,,,,,,,,,,,
,,,,,,,,,,,,l,Correct!,,,,,,t3.png,t5.png,2,0.0565,23,female,2020-10-22_08h23.52.526,torte-q,2020.1.3,MacIntel,60,13176,0.880135,,,,,0,62,62,30,1,,,,,,,,,,,,,,,,,,,,,,,,,,,,,,,,,,,
,,,,,,,,,,,,a,Incorrect,,,,,,t1.png,t5.png,4,9.55E-11,23,female,2020-10-22_08h23.52.526,torte-q,2020.1.3,MacIntel,60,13176,0.35063,,,,,0,63,63,55,1,,,,,,,,,,,,,,,,,,,,,,,,,,,,,,,,,,,
,,,,,,,,,,,,l,Incorrect,,,,,,t1.png,t1.png,0,0.97829,23,female,2020-10-22_08h23.52.526,torte-q,2020.1.3,MacIntel,60,13176,0.349795,,,,,0,64,64,78,1,,,,,,,,,,,,,,,,,,,,,,,,,,,,,,,,,,,
,,,,,,,,,,,,a,Correct!,,,,,,t2.png,t1.png,1,0.90025,23,female,2020-10-22_08h23.52.526,torte-q,2020.1.3,MacIntel,60,13176,0.28249,,,,,0,65,65,62,1,,,,,,,,,,,,,,,,,,,,,,,,,,,,,,,,,,,
,,,,,,,,,,,,l,Incorrect,,,,,,t1.png,t2.png,1,0.90025,23,female,2020-10-22_08h23.52.526,torte-q,2020.1.3,MacIntel,60,13176,0.251045,,,,,0,66,66,72,1,,,,,,,,,,,,,,,,,,,,,,,,,,,,,,,,,,,
,,,,,,,,,,,,a,Correct!,,,,,,t2.png,t2.png,0,0.98115,23,female,2020-10-22_08h23.52.526,torte-q,2020.1.3,MacIntel,60,13176,0.26336,,,,,0,67,67,7,1,,,,,,,,,,,,,,,,,,,,,,,,,,,,,,,,,,,
,,,,,,,,,,,,l,Correct!,,,,,,t1.png,t4.png,3,0.0000131,23,female,2020-10-22_08h23.52.526,torte-q,2020.1.3,MacIntel,60,13176,0.3173,,,,,0,68,68,50,1,,,,,,,,,,,,,,,,,,,,,,,,,,,,,,,,,,,
,,,,,,,,,,,,l,Correct!,,,,,,t5.png,t3.png,2,0.056466,23,female,2020-10-22_08h23.52.526,torte-q,2020.1.3,MacIntel,60,13176,0.681785,,,,,0,69,69,38,1,,,,,,,,,,,,,,,,,,,,,,,,,,,,,,,,,,,
,,,,,,,,,,,,a,Incorrect,,,,,,t5.png,t1.png,4,9.55E-11,23,female,2020-10-22_08h23.52.526,torte-q,2020.1.3,MacIntel,60,13176,0.30057,,,,,0,70,70,102,1,,,,,,,,,,,,,,,,,,,,,,,,,,,,,,,,,,,
,,,,,,,,,,,,a,Correct!,,,,,,t1.png,t1.png,0,0.97829,23,female,2020-10-22_08h23.52.526,torte-q,2020.1.3,MacIntel,60,13176,0.29337,,,,,0,71,71,67,1,,,,,,,,,,,,,,,,,,,,,,,,,,,,,,,,,,,
,,,,,,,,,,,,a,Incorrect,,,,,,t4.png,t2.png,2,0.059078,23,female,2020-10-22_08h23.52.526,torte-q,2020.1.3,MacIntel,60,13176,0.265015,,,,,0,72,72,88,1,,,,,,,,,,,,,,,,,,,,,,,,,,,,,,,,,,,
,,,,,,,,,,,,l,Incorrect,,,,,,t2.png,t1.png,1,0.90025,23,female,2020-10-22_08h23.52.526,torte-q,2020.1.3,MacIntel,60,13176,0.250575,,,,,0,73,73,5,1,,,,,,,,,,,,,,,,,,,,,,,,,,,,,,,,,,,
,,,,,,,,,,,,a,Correct!,,,,,,t5.png,t5.png,0,0.97829,23,female,2020-10-22_08h23.52.526,torte-q,2020.1.3,MacIntel,60,13176,0.232105,,,,,0,74,74,73,1,,,,,,,,,,,,,,,,,,,,,,,,,,,,,,,,,,,
,,,,,,,,,,,,a,Correct!,,,,,,t4.png,t4.png,0,0.98115,23,female,2020-10-22_08h23.52.526,torte-q,2020.1.3,MacIntel,60,13176,0.343365,,,,,0,75,75,90,1,,,,,,,,,,,,,,,,,,,,,,,,,,,,,,,,,,,
,,,,,,,,,,,,a,Incorrect,,,,,,t4.png,t3.png,1,0.909,23,female,2020-10-22_08h23.52.526,torte-q,2020.1.3,MacIntel,60,13176,0.558985,,,,,0,76,76,20,1,,,,,,,,,,,,,,,,,,,,,,,,,,,,,,,,,,,
,,,,,,,,,,,,l,Incorrect,,,,,,t3.png,t2.png,1,0.90855,23,female,2020-10-22_08h23.52.526,torte-q,2020.1.3,MacIntel,60,13176,0.250595,,,,,0,77,77,18,1,,,,,,,,,,,,,,,,,,,,,,,,,,,,,,,,,,,
,,,,,,,,,,,,a,Correct!,,,,,,t3.png,t4.png,1,0.909,23,female,2020-10-22_08h23.52.526,torte-q,2020.1.3,MacIntel,60,13176,0.55203,,,,,0,78,78,82,1,,,,,,,,,,,,,,,,,,,,,,,,,,,,,,,,,,,
,,,,,,,,,,,,a,Incorrect,,,,,,t5.png,t1.png,4,9.55E-11,23,female,2020-10-22_08h23.52.526,torte-q,2020.1.3,MacIntel,60,13176,1.3502,,,,,0,79,79,100,1,,,,,,,,,,,,,,,,,,,,,,,,,,,,,,,,,,,
,,,,,,,,,,,,l,Incorrect,,,,,,t4.png,t5.png,1,0.90025,23,female,2020-10-22_08h23.52.526,torte-q,2020.1.3,MacIntel,60,13176,0.666195,,,,,0,80,80,103,1,,,,,,,,,,,,,,,,,,,,,,,,,,,,,,,,,,,
,,,,,,,,,,,,a,Incorrect,,,,,,t1.png,t5.png,4,9.55E-11,23,female,2020-10-22_08h23.52.526,torte-q,2020.1.3,MacIntel,60,13176,1.047665,,,,,0,81,81,16,1,,,,,,,,,,,,,,,,,,,,,,,,,,,,,,,,,,,
,,,,,,,,,,,,a,Correct!,,,,,,t4.png,t5.png,1,0.90025,23,female,2020-10-22_08h23.52.526,torte-q,2020.1.3,MacIntel,60,13176,1.489955,,,,,0,82,82,113,1,,,,,,,,,,,,,,,,,,,,,,,,,,,,,,,,,,,
,,,,,,,,,,,,l,Incorrect,,,,,,t3.png,t2.png,1,0.909,23,female,2020-10-22_08h23.52.526,torte-q,2020.1.3,MacIntel,60,13176,2.14801,,,,,0,83,83,23,1,,,,,,,,,,,,,,,,,,,,,,,,,,,,,,,,,,,
,,,,,,,,,,,,,Too slow :(,,,,,,t4.png,t1.png,3,0.0000131,23,female,2020-10-22_08h23.52.526,torte-q,2020.1.3,MacIntel,60,13176,,,,,,0,84,84,93,1,,,,,,,,,,,,,,,,,,,,,,,,,,,,,,,,,,,
,,,,,,,,,,,,,Too slow :(,,,,,,t4.png,t3.png,1,0.90855,23,female,2020-10-22_08h23.52.526,torte-q,2020.1.3,MacIntel,60,13176,,,,,,0,85,85,45,1,,,,,,,,,,,,,,,,,,,,,,,,,,,,,,,,,,,
,,,,,,,,,,,,a,Incorrect,,,,,,t5.png,t1.png,4,9.55E-11,23,female,2020-10-22_08h23.52.526,torte-q,2020.1.3,MacIntel,60,13176,1.28393,,,,,0,86,86,71,1,,,,,,,,,,,,,,,,,,,,,,,,,,,,,,,,,,,
,,,,,,,,,,,,l,Incorrect,,,,,,t3.png,t4.png,1,0.90855,23,female,2020-10-22_08h23.52.526,torte-q,2020.1.3,MacIntel,60,13176,1.521465,,,,,0,87,87,84,1,,,,,,,,,,,,,,,,,,,,,,,,,,,,,,,,,,,
,,,,,,,,,,,,l,Correct!,,,,,,t3.png,t5.png,2,0.056466,23,female,2020-10-22_08h23.52.526,torte-q,2020.1.3,MacIntel,60,13176,1.366715,,,,,0,88,88,44,1,,,,,,,,,,,,,,,,,,,,,,,,,,,,,,,,,,,
,,,,,,,,,,,,a,Correct!,,,,,,t5.png,t5.png,0,0.97829,23,female,2020-10-22_08h23.52.526,torte-q,2020.1.3,MacIntel,60,13176,0.562765,,,,,0,89,89,70,1,,,,,,,,,,,,,,,,,,,,,,,,,,,,,,,,,,,
,,,,,,,,,,,,l,Incorrect,,,,,,t1.png,t1.png,0,0.97829,23,female,2020-10-22_08h23.52.526,torte-q,2020.1.3,MacIntel,60,13176,0.663975,,,,,0,90,90,9,1,,,,,,,,,,,,,,,,,,,,,,,,,,,,,,,,,,,
,,,,,,,,,,,,l,Correct!,,,,,,t3.png,t1.png,2,0.056466,23,female,2020-10-22_08h23.52.526,torte-q,2020.1.3,MacIntel,60,13176,0.679865,,,,,0,91,91,0,1,,,,,,,,,,,,,,,,,,,,,,,,,,,,,,,,,,,
,,,,,,,,,,,,a,Incorrect,,,,,,t4.png,t2.png,2,0.059078,23,female,2020-10-22_08h23.52.526,torte-q,2020.1.3,MacIntel,60,13176,0.73381,,,,,0,92,92,110,1,,,,,,,,,,,,,,,,,,,,,,,,,,,,,,,,,,,
,,,,,,,,,,,,a,Incorrect,,,,,,t4.png,t2.png,2,0.0591,23,female,2020-10-22_08h23.52.526,torte-q,2020.1.3,MacIntel,60,13176,1.669905,,,,,0,93,93,36,1,,,,,,,,,,,,,,,,,,,,,,,,,,,,,,,,,,,
,,,,,,,,,,,,a,Incorrect,,,,,,t2.png,t5.png,3,0.0000131,23,female,2020-10-22_08h23.52.526,torte-q,2020.1.3,MacIntel,60,13176,1.70248,,,,,0,94,94,8,1,,,,,,,,,,,,,,,,,,,,,,,,,,,,,,,,,,,
,,,,,,,,,,,,,Too slow :(,,,,,,t3.png,t2.png,1,0.90855,23,female,2020-10-22_08h23.52.526,torte-q,2020.1.3,MacIntel,60,13176,,,,,,0,95,95,97,1,,,,,,,,,,,,,,,,,,,,,,,,,,,,,,,,,,,
,,,,,,,,,,,,l,Incorrect,,,,,,t1.png,t1.png,0,0.978,23,female,2020-10-22_08h23.52.526,torte-q,2020.1.3,MacIntel,60,13176,0.81687,,,,,0,96,96,54,1,,,,,,,,,,,,,,,,,,,,,,,,,,,,,,,,,,,
,,,,,,,,,,,,,Too slow :(,,,,,,t5.png,t2.png,3,0.0000131,23,female,2020-10-22_08h23.52.526,torte-q,2020.1.3,MacIntel,60,13176,,,,,,0,97,97,51,1,,,,,,,,,,,,,,,,,,,,,,,,,,,,,,,,,,,
,,,,,,,,,,,,,Too slow :(,,,,,,t4.png,t1.png,3,0.0000131,23,female,2020-10-22_08h23.52.526,torte-q,2020.1.3,MacIntel,60,13176,,,,,,0,98,98,48,1,,,,,,,,,,,,,,,,,,,,,,,,,,,,,,,,,,,
,,,,,,,,,,,,l,Correct!,,,,,,t5.png,t2.png,3,0.0000131,23,female,2020-10-22_08h23.52.526,torte-q,2020.1.3,MacIntel,60,13176,0.901135,,,,,0,99,99,91,1,,,,,,,,,,,,,,,,,,,,,,,,,,,,,,,,,,,
,,,,,,,,,,,,,Too slow :(,,,,,,t4.png,t5.png,1,0.9,23,female,2020-10-22_08h23.52.526,torte-q,2020.1.3,MacIntel,60,13176,,,,,,0,100,100,115,1,,,,,,,,,,,,,,,,,,,,,,,,,,,,,,,,,,,
,,,,,,,,,,,,,Too slow :(,,,,,,t1.png,t4.png,3,0.0000131,23,female,2020-10-22_08h23.52.526,torte-q,2020.1.3,MacIntel,60,13176,,,,,,0,101,101,92,1,,,,,,,,,,,,,,,,,,,,,,,,,,,,,,,,,,,
,,,,,,,,,,,,l,Incorrect,,,,,,t4.png,t5.png,1,0.90025,23,female,2020-10-22_08h23.52.526,torte-q,2020.1.3,MacIntel,60,13176,2.005955,,,,,0,102,102,58,1,,,,,,,,,,,,,,,,,,,,,,,,,,,,,,,,,,,
,,,,,,,,,,,,a,Correct!,,,,,,t4.png,t4.png,0,0.98115,23,female,2020-10-22_08h23.52.526,torte-q,2020.1.3,MacIntel,60,13176,0.518005,,,,,0,103,103,52,1,,,,,,,,,,,,,,,,,,,,,,,,,,,,,,,,,,,
,,,,,,,,,,,,a,Incorrect,,,,,,t5.png,t2.png,3,0.0000131,23,female,2020-10-22_08h23.52.526,torte-q,2020.1.3,MacIntel,60,13176,0.611315,,,,,0,104,104,119,1,,,,,,,,,,,,,,,,,,,,,,,,,,,,,,,,,,,
,,,,,,,,,,,,l,Correct!,,,,,,t5.png,t3.png,2,0.056466,23,female,2020-10-22_08h23.52.526,torte-q,2020.1.3,MacIntel,60,13176,0.51768,,,,,0,105,105,108,1,,,,,,,,,,,,,,,,,,,,,,,,,,,,,,,,,,,
,,,,,,,,,,,,l,Correct!,,,,,,t1.png,t5.png,4,9.55E-11,23,female,2020-10-22_08h23.52.526,torte-q,2020.1.3,MacIntel,60,13176,0.790555,,,,,0,106,106,41,1,,,,,,,,,,,,,,,,,,,,,,,,,,,,,,,,,,,
,,,,,,,,,,,,l,Incorrect,,,,,,t2.png,t1.png,1,0.90025,23,female,2020-10-22_08h23.52.526,torte-q,2020.1.3,MacIntel,60,13176,2.118615,,,,,0,107,107,4,1,,,,,,,,,,,,,,,,,,,,,,,,,,,,,,,,,,,
,,,,,,,,,,,,l,Incorrect,,,,,,t4.png,t4.png,0,0.98115,23,female,2020-10-22_08h23.52.526,torte-q,2020.1.3,MacIntel,60,13176,1.57247,,,,,0,108,108,79,1,,,,,,,,,,,,,,,,,,,,,,,,,,,,,,,,,,,
,,,,,,,,,,,,a,Incorrect,,,,,,t1.png,t4.png,3,0.0000131,23,female,2020-10-22_08h23.52.526,torte-q,2020.1.3,MacIntel,60,13176,1.203605,,,,,0,109,109,107,1,,,,,,,,,,,,,,,,,,,,,,,,,,,,,,,,,,,
,,,,,,,,,,,,l,Incorrect,,,,,,t2.png,t3.png,1,0.90855,23,female,2020-10-22_08h23.52.526,torte-q,2020.1.3,MacIntel,60,13176,0.76904,,,,,0,110,110,65,1,,,,,,,,,,,,,,,,,,,,,,,,,,,,,,,,,,,
,,,,,,,,,,,,a,Correct!,,,,,,t2.png,t2.png,0,0.981,23,female,2020-10-22_08h23.52.526,torte-q,2020.1.3,MacIntel,60,13176,1.001525,,,,,0,111,111,101,1,,,,,,,,,,,,,,,,,,,,,,,,,,,,,,,,,,,
,,,,,,,,,,,,a,Correct!,,,,,,t5.png,t4.png,1,0.90025,23,female,2020-10-22_08h23.52.526,torte-q,2020.1.3,MacIntel,60,13176,1.21702,,,,,0,112,112,34,1,,,,,,,,,,,,,,,,,,,,,,,,,,,,,,,,,,,
,,,,,,,,,,,,l,Correct!,,,,,,t5.png,t3.png,2,0.0565,23,female,2020-10-22_08h23.52.526,torte-q,2020.1.3,MacIntel,60,13176,0.540555,,,,,0,113,113,39,1,,,,,,,,,,,,,,,,,,,,,,,,,,,,,,,,,,,
,,,,,,,,,,,,l,Incorrect,,,,,,t4.png,t5.png,1,0.90025,23,female,2020-10-22_08h23.52.526,torte-q,2020.1.3,MacIntel,60,13176,2.1693,,,,,0,114,114,47,1,,,,,,,,,,,,,,,,,,,,,,,,,,,,,,,,,,,
,,,,,,,,,,,,a,Incorrect,,,,,,t4.png,t3.png,1,0.909,23,female,2020-10-22_08h23.52.526,torte-q,2020.1.3,MacIntel,60,13176,0.666205,,,,,0,115,115,46,1,,,,,,,,,,,,,,,,,,,,,,,,,,,,,,,,,,,
,,,,,,,,,,,,l,Incorrect,,,,,,t1.png,t1.png,0,0.978,23,female,2020-10-22_08h23.52.526,torte-q,2020.1.3,MacIntel,60,13176,0.775125,,,,,0,116,116,28,1,,,,,,,,,,,,,,,,,,,,,,,,,,,,,,,,,,,
,,,,,,,,,,,,l,Incorrect,,,,,,t5.png,t5.png,0,0.97829,23,female,2020-10-22_08h23.52.526,torte-q,2020.1.3,MacIntel,60,13176,2.186765,,,,,0,117,117,94,1,,,,,,,,,,,,,,,,,,,,,,,,,,,,,,,,,,,
,,,,,,,,,,,,a,Incorrect,,,,,,t5.png,t1.png,4,9.55E-11,23,female,2020-10-22_08h23.52.526,torte-q,2020.1.3,MacIntel,60,13176,0.91746,,,,,0,118,118,22,1,,,,,,,,,,,,,,,,,,,,,,,,,,,,,,,,,,,
,,,,,,,,,,,,l,Incorrect,,,,,,t1.png,t2.png,1,0.9,23,female,2020-10-22_08h23.52.526,torte-q,2020.1.3,MacIntel,60,13176,1.023985,,,,,0,119,119,1,1,,,,,,,,,,,,,,,,,,,,,,,,,,,,,,,,,,,
,,,,,,,,,,,,l,Incorrect,,,,,,t2.png,t1.png,1,0.9,23,female,2020-10-22_08h23.52.526,torte-q,2020.1.3,MacIntel,60,13176,0.50298,space,2.2113,,,,,,,,space,7.56804,space,0.944275,0,0,0,118,1,,,,,,,,,,,,,,,,,,,,,,,,,,
,,,,,,,,,,,,a,Incorrect,,,,,,t1.png,t3.png,2,0.056466,23,female,2020-10-22_08h23.52.526,torte-q,2020.1.3,MacIntel,60,13176,0.19992,,,,,,,,,,,,,,0,1,1,99,1,,,,,,,,,,,,,,,,,,,,,,,,,,
,,,,,,,,,,,,l,Correct!,,,,,,t1.png,t4.png,3,0.0000131,23,female,2020-10-22_08h23.52.526,torte-q,2020.1.3,MacIntel,60,13176,0.295545,,,,,,,,,,,,,,0,2,2,92,1,,,,,,,,,,,,,,,,,,,,,,,,,,
,,,,,,,,,,,,l,Correct!,,,,,,t3.png,t5.png,2,0.056466,23,female,2020-10-22_08h23.52.526,torte-q,2020.1.3,MacIntel,60,13176,0.27868,,,,,,,,,,,,,,0,3,3,6,1,,,,,,,,,,,,,,,,,,,,,,,,,,
,,,,,,,,,,,,l,Incorrect,,,,,,t4.png,t3.png,1,0.90855,23,female,2020-10-22_08h23.52.526,torte-q,2020.1.3,MacIntel,60,13176,0.387085,,,,,,,,,,,,,,0,4,4,75,1,,,,,,,,,,,,,,,,,,,,,,,,,,
,,,,,,,,,,,,a,Incorrect,,,,,,t5.png,t1.png,4,9.55E-11,23,female,2020-10-22_08h23.52.526,torte-q,2020.1.3,MacIntel,60,13176,0.32392,,,,,,,,,,,,,,0,5,5,102,1,,,,,,,,,,,,,,,,,,,,,,,,,,
,,,,,,,,,,,,a,Correct!,,,,,,t4.png,t4.png,0,0.98115,23,female,2020-10-22_08h23.52.526,torte-q,2020.1.3,MacIntel,60,13176,0.28342,,,,,,,,,,,,,,0,6,6,52,1,,,,,,,,,,,,,,,,,,,,,,,,,,
,,,,,,,,,,,,a,Correct!,,,,,,t2.png,t2.png,0,0.98115,23,female,2020-10-22_08h23.52.526,torte-q,2020.1.3,MacIntel,60,13176,0.317565,,,,,,,,,,,,,,0,7,7,57,1,,,,,,,,,,,,,,,,,,,,,,,,,,
,,,,,,,,,,,,a,Incorrect,,,,,,t5.png,t1.png,4,9.55E-11,23,female,2020-10-22_08h23.52.526,torte-q,2020.1.3,MacIntel,60,13176,0.731885,,,,,,,,,,,,,,0,8,8,43,1,,,,,,,,,,,,,,,,,,,,,,,,,,
,,,,,,,,,,,,l,Correct!,,,,,,t1.png,t2.png,1,0.90025,23,female,2020-10-22_08h23.52.526,torte-q,2020.1.3,MacIntel,60,13176,0.283135,,,,,,,,,,,,,,0,9,9,112,1,,,,,,,,,,,,,,,,,,,,,,,,,,
,,,,,,,,,,,,l,Correct!,,,,,,t5.png,t2.png,3,0.0000131,23,female,2020-10-22_08h23.52.526,torte-q,2020.1.3,MacIntel,60,13176,0.28269,,,,,,,,,,,,,,0,10,10,116,1,,,,,,,,,,,,,,,,,,,,,,,,,,
,,,,,,,,,,,,a,Correct!,,,,,,t2.png,t1.png,1,0.90025,23,female,2020-10-22_08h23.52.526,torte-q,2020.1.3,MacIntel,60,13176,0.249065,,,,,,,,,,,,,,0,11,11,5,1,,,,,,,,,,,,,,,,,,,,,,,,,,
,,,,,,,,,,,,l,Incorrect,,,,,,t2.png,t3.png,1,0.909,23,female,2020-10-22_08h23.52.526,torte-q,2020.1.3,MacIntel,60,13176,0.25631,,,,,,,,,,,,,,0,12,12,74,1,,,,,,,,,,,,,,,,,,,,,,,,,,
,,,,,,,,,,,,a,Incorrect,,,,,,t3.png,t1.png,2,0.056466,23,female,2020-10-22_08h23.52.526,torte-q,2020.1.3,MacIntel,60,13176,0.25774,,,,,,,,,,,,,,0,13,13,0,1,,,,,,,,,,,,,,,,,,,,,,,,,,
,,,,,,,,,,,,a,Incorrect,,,,,,t2.png,t4.png,2,0.059078,23,female,2020-10-22_08h23.52.526,torte-q,2020.1.3,MacIntel,60,13176,0.249185,,,,,,,,,,,,,,0,14,14,24,1,,,,,,,,,,,,,,,,,,,,,,,,,,
,,,,,,,,,,,,l,Incorrect,,,,,,t2.png,t2.png,0,0.98115,23,female,2020-10-22_08h23.52.526,torte-q,2020.1.3,MacIntel,60,13176,0.251445,,,,,,,,,,,,,,0,15,15,2,1,,,,,,,,,,,,,,,,,,,,,,,,,,
,,,,,,,,,,,,a,Incorrect,,,,,,t2.png,t4.png,2,0.059078,23,female,2020-10-22_08h23.52.526,torte-q,2020.1.3,MacIntel,60,13176,0.316855,,,,,,,,,,,,,,0,16,16,37,1,,,,,,,,,,,,,,,,,,,,,,,,,,
,,,,,,,,,,,,a,Correct!,,,,,,t1.png,t1.png,0,0.97829,23,female,2020-10-22_08h23.52.526,torte-q,2020.1.3,MacIntel,60,13176,0.31147,,,,,,,,,,,,,,0,17,17,9,1,,,,,,,,,,,,,,,,,,,,,,,,,,
,,,,,,,,,,,,l,Incorrect,,,,,,t1.png,t1.png,0,0.978,23,female,2020-10-22_08h23.52.526,torte-q,2020.1.3,MacIntel,60,13176,0.31874,,,,,,,,,,,,,,0,18,18,54,1,,,,,,,,,,,,,,,,,,,,,,,,,,
,,,,,,,,,,,,a,Incorrect,,,,,,t2.png,t4.png,2,0.0591,23,female,2020-10-22_08h23.52.526,torte-q,2020.1.3,MacIntel,60,13176,0.56531,,,,,,,,,,,,,,0,19,19,15,1,,,,,,,,,,,,,,,,,,,,,,,,,,
,,,,,,,,,,,,a,Incorrect,,,,,,t3.png,t1.png,2,0.0565,23,female,2020-10-22_08h23.52.526,torte-q,2020.1.3,MacIntel,60,13176,0.283655,,,,,,,,,,,,,,0,20,20,31,1,,,,,,,,,,,,,,,,,,,,,,,,,,
,,,,,,,,,,,,l,Correct!,,,,,,t4.png,t1.png,3,0.0000131,23,female,2020-10-22_08h23.52.526,torte-q,2020.1.3,MacIntel,60,13176,0.21631,,,,,,,,,,,,,,0,21,21,13,1,,,,,,,,,,,,,,,,,,,,,,,,,,
,,,,,,,,,,,,a,Incorrect,,,,,,t3.png,t5.png,2,0.0565,23,female,2020-10-22_08h23.52.526,torte-q,2020.1.3,MacIntel,60,13176,0.20205,,,,,,,,,,,,,,0,22,22,30,1,,,,,,,,,,,,,,,,,,,,,,,,,,
,,,,,,,,,,,,a,Incorrect,,,,,,t5.png,t3.png,2,0.056466,23,female,2020-10-22_08h23.52.526,torte-q,2020.1.3,MacIntel,60,13176,0.26506,,,,,,,,,,,,,,0,23,23,56,1,,,,,,,,,,,,,,,,,,,,,,,,,,
,,,,,,,,,,,,l,Correct!,,,,,,t5.png,t3.png,2,0.056466,23,female,2020-10-22_08h23.52.526,torte-q,2020.1.3,MacIntel,60,13176,0.28572,,,,,,,,,,,,,,0,24,24,114,1,,,,,,,,,,,,,,,,,,,,,,,,,,
,,,,,,,,,,,,a,Correct!,,,,,,t3.png,t2.png,1,0.90855,23,female,2020-10-22_08h23.52.526,torte-q,2020.1.3,MacIntel,60,13176,0.279785,,,,,,,,,,,,,,0,25,25,18,1,,,,,,,,,,,,,,,,,,,,,,,,,,
,,,,,,,,,,,,,Too slow :(,,,,,,t2.png,t3.png,1,0.90855,23,female,2020-10-22_08h23.52.526,torte-q,2020.1.3,MacIntel,60,13176,,,,,,,,,,,,,,,0,26,26,68,1,,,,,,,,,,,,,,,,,,,,,,,,,,
,,,,,,,,,,,,l,Correct!,,,,,,t1.png,t5.png,4,9.55E-11,23,female,2020-10-22_08h23.52.526,torte-q,2020.1.3,MacIntel,60,13176,1.97619,,,,,,,,,,,,,,0,27,27,16,1,,,,,,,,,,,,,,,,,,,,,,,,,,
,,,,,,,,,,,,,Too slow :(,,,,,,t5.png,t1.png,4,9.55E-11,23,female,2020-10-22_08h23.52.526,torte-q,2020.1.3,MacIntel,60,13176,,,,,,,,,,,,,,,0,28,28,100,1,,,,,,,,,,,,,,,,,,,,,,,,,,
,,,,,,,,,,,,a,Incorrect,,,,,,t4.png,t1.png,3,0.0000131,23,female,2020-10-22_08h23.52.526,torte-q,2020.1.3,MacIntel,60,13176,0.44831,,,,,,,,,,,,,,0,29,29,61,1,,,,,,,,,,,,,,,,,,,,,,,,,,
,,,,,,,,,,,,a,Incorrect,,,,,,t5.png,t4.png,1,0.90025,23,female,2020-10-22_08h23.52.526,torte-q,2020.1.3,MacIntel,60,13176,2.152295,,,,,,,,,,,,,,0,30,30,26,1,,,,,,,,,,,,,,,,,,,,,,,,,,
,,,,,,,,,,,,l,Incorrect,,,,,,t4.png,t3.png,1,0.909,23,female,2020-10-22_08h23.52.526,torte-q,2020.1.3,MacIntel,60,13176,0.771775,,,,,,,,,,,,,,0,31,31,20,1,,,,,,,,,,,,,,,,,,,,,,,,,,
,,,,,,,,,,,,a,Incorrect,,,,,,t4.png,t1.png,3,0.0000131,23,female,2020-10-22_08h23.52.526,torte-q,2020.1.3,MacIntel,60,13176,0.39316,,,,,,,,,,,,,,0,32,32,48,1,,,,,,,,,,,,,,,,,,,,,,,,,,
,,,,,,,,,,,,a,Incorrect,,,,,,t5.png,t1.png,4,9.55E-11,23,female,2020-10-22_08h23.52.526,torte-q,2020.1.3,MacIntel,60,13176,0.35264,,,,,,,,,,,,,,0,33,33,22,1,,,,,,,,,,,,,,,,,,,,,,,,,,
,,,,,,,,,,,,l,Incorrect,,,,,,t4.png,t4.png,0,0.98115,23,female,2020-10-22_08h23.52.526,torte-q,2020.1.3,MacIntel,60,13176,0.36656,,,,,,,,,,,,,,0,34,34,80,1,,,,,,,,,,,,,,,,,,,,,,,,,,
,,,,,,,,,,,,a,Incorrect,,,,,,t1.png,t3.png,2,0.056466,23,female,2020-10-22_08h23.52.526,torte-q,2020.1.3,MacIntel,60,13176,0.483775,,,,,,,,,,,,,,0,35,35,63,1,,,,,,,,,,,,,,,,,,,,,,,,,,
,,,,,,,,,,,,l,Correct!,,,,,,t3.png,t1.png,2,0.056466,23,female,2020-10-22_08h23.52.526,torte-q,2020.1.3,MacIntel,60,13176,0.351105,,,,,,,,,,,,,,0,36,36,64,1,,,,,,,,,,,,,,,,,,,,,,,,,,
,,,,,,,,,,,,a,Incorrect,,,,,,t3.png,t5.png,2,0.056466,23,female,2020-10-22_08h23.52.526,torte-q,2020.1.3,MacIntel,60,13176,0.389785,,,,,,,,,,,,,,0,37,37,14,1,,,,,,,,,,,,,,,,,,,,,,,,,,
,,,,,,,,,,,,a,Incorrect,,,,,,t5.png,t3.png,2,0.056466,23,female,2020-10-22_08h23.52.526,torte-q,2020.1.3,MacIntel,60,13176,0.432945,,,,,,,,,,,,,,0,38,38,38,1,,,,,,,,,,,,,,,,,,,,,,,,,,
,,,,,,,,,,,,l,Incorrect,,,,,,t2.png,t1.png,1,0.90025,23,female,2020-10-22_08h23.52.526,torte-q,2020.1.3,MacIntel,60,13176,0.33511,,,,,,,,,,,,,,0,39,39,4,1,,,,,,,,,,,,,,,,,,,,,,,,,,
,,,,,,,,,,,,a,Incorrect,,,,,,t5.png,t3.png,2,0.0565,23,female,2020-10-22_08h23.52.526,torte-q,2020.1.3,MacIntel,60,13176,0.283025,,,,,,,,,,,,,,0,40,40,39,1,,,,,,,,,,,,,,,,,,,,,,,,,,
,,,,,,,,,,,,a,Correct!,,,,,,t5.png,t4.png,1,0.9,23,female,2020-10-22_08h23.52.526,torte-q,2020.1.3,MacIntel,60,13176,0.58303,,,,,,,,,,,,,,0,41,41,49,1,,,,,,,,,,,,,,,,,,,,,,,,,,
,,,,,,,,,,,,a,Correct!,,,,,,t3.png,t4.png,1,0.909,23,female,2020-10-22_08h23.52.526,torte-q,2020.1.3,MacIntel,60,13176,0.468825,,,,,,,,,,,,,,0,42,42,106,1,,,,,,,,,,,,,,,,,,,,,,,,,,
,,,,,,,,,,,,l,Correct!,,,,,,t3.png,t5.png,2,0.0565,23,female,2020-10-22_08h23.52.526,torte-q,2020.1.3,MacIntel,60,13176,0.799305,,,,,,,,,,,,,,0,43,43,83,1,,,,,,,,,,,,,,,,,,,,,,,,,,
,,,,,,,,,,,,a,Correct!,,,,,,t1.png,t2.png,1,0.90025,23,female,2020-10-22_08h23.52.526,torte-q,2020.1.3,MacIntel,60,13176,0.620315,,,,,,,,,,,,,,0,44,44,72,1,,,,,,,,,,,,,,,,,,,,,,,,,,
,,,,,,,,,,,,a,Incorrect,,,,,,t5.png,t1.png,4,9.55E-11,23,female,2020-10-22_08h23.52.526,torte-q,2020.1.3,MacIntel,60,13176,0.650965,,,,,,,,,,,,,,0,45,45,71,1,,,,,,,,,,,,,,,,,,,,,,,,,,
,,,,,,,,,,,,,Too slow :(,,,,,,t3.png,t2.png,1,0.909,23,female,2020-10-22_08h23.52.526,torte-q,2020.1.3,MacIntel,60,13176,,,,,,,,,,,,,,,0,46,46,23,1,,,,,,,,,,,,,,,,,,,,,,,,,,
,,,,,,,,,,,,a,Incorrect,,,,,,t3.png,t4.png,1,0.90855,23,female,2020-10-22_08h23.52.526,torte-q,2020.1.3,MacIntel,60,13176,1.019365,,,,,,,,,,,,,,0,47,47,84,1,,,,,,,,,,,,,,,,,,,,,,,,,,
,,,,,,,,,,,,a,Incorrect,,,,,,t1.png,t4.png,3,0.0000131,23,female,2020-10-22_08h23.52.526,torte-q,2020.1.3,MacIntel,60,13176,0.650335,,,,,,,,,,,,,,0,48,48,17,1,,,,,,,,,,,,,,,,,,,,,,,,,,
,,,,,,,,,,,,l,Incorrect,,,,,,t3.png,t2.png,1,0.90855,23,female,2020-10-22_08h23.52.526,torte-q,2020.1.3,MacIntel,60,13176,1.298345,,,,,,,,,,,,,,0,49,49,53,1,,,,,,,,,,,,,,,,,,,,,,,,,,
,,,,,,,,,,,,l,Correct!,,,,,,t4.png,t2.png,2,0.059078,23,female,2020-10-22_08h23.52.526,torte-q,2020.1.3,MacIntel,60,13176,2.060955,,,,,,,,,,,,,,0,50,50,88,1,,,,,,,,,,,,,,,,,,,,,,,,,,
,,,,,,,,,,,,a,Incorrect,,,,,,t1.png,t3.png,2,0.056466,23,female,2020-10-22_08h23.52.526,torte-q,2020.1.3,MacIntel,60,13176,1.856605,,,,,,,,,,,,,,0,51,51,87,1,,,,,,,,,,,,,,,,,,,,,,,,,,
,,,,,,,,,,,,a,Incorrect,,,,,,t1.png,t5.png,4,9.55E-11,23,female,2020-10-22_08h23.52.526,torte-q,2020.1.3,MacIntel,60,13176,0.43558,,,,,,,,,,,,,,0,52,52,55,1,,,,,,,,,,,,,,,,,,,,,,,,,,
,,,,,,,,,,,,l,Incorrect,,,,,,t2.png,t3.png,1,0.90855,23,female,2020-10-22_08h23.52.526,torte-q,2020.1.3,MacIntel,60,13176,1.86411,,,,,,,,,,,,,,0,53,53,10,1,,,,,,,,,,,,,,,,,,,,,,,,,,
,,,,,,,,,,,,l,Correct!,,,,,,t2.png,t4.png,2,0.059078,23,female,2020-10-22_08h23.52.526,torte-q,2020.1.3,MacIntel,60,13176,1.10963,,,,,,,,,,,,,,0,54,54,77,1,,,,,,,,,,,,,,,,,,,,,,,,,,
,,,,,,,,,,,,a,Correct!,,,,,,t1.png,t2.png,1,0.90025,23,female,2020-10-22_08h23.52.526,torte-q,2020.1.3,MacIntel,60,13176,0.764815,,,,,,,,,,,,,,0,55,55,33,1,,,,,,,,,,,,,,,,,,,,,,,,,,
,,,,,,,,,,,,a,Incorrect,,,,,,t2.png,t5.png,3,0.0000131,23,female,2020-10-22_08h23.52.526,torte-q,2020.1.3,MacIntel,60,13176,1.916625,,,,,,,,,,,,,,0,56,56,104,1,,,,,,,,,,,,,,,,,,,,,,,,,,
,,,,,,,,,,,,l,Incorrect,,,,,,t3.png,t4.png,1,0.909,23,female,2020-10-22_08h23.52.526,torte-q,2020.1.3,MacIntel,60,13176,0.822695,,,,,,,,,,,,,,0,57,57,82,1,,,,,,,,,,,,,,,,,,,,,,,,,,
,,,,,,,,,,,,l,Incorrect,,,,,,t1.png,t1.png,0,0.97829,23,female,2020-10-22_08h23.52.526,torte-q,2020.1.3,MacIntel,60,13176,1.199845,,,,,,,,,,,,,,0,58,58,67,1,,,,,,,,,,,,,,,,,,,,,,,,,,
,,,,,,,,,,,,a,Correct!,,,,,,t1.png,t1.png,0,0.978,23,female,2020-10-22_08h23.52.526,torte-q,2020.1.3,MacIntel,60,13176,1.05316,,,,,,,,,,,,,,0,59,59,28,1,,,,,,,,,,,,,,,,,,,,,,,,,,
,,,,,,,,,,,,a,Incorrect,,,,,,t4.png,t1.png,3,0.0000131,23,female,2020-10-22_08h23.52.526,torte-q,2020.1.3,MacIntel,60,13176,0.74979,,,,,,,,,,,,,,0,60,60,93,1,,,,,,,,,,,,,,,,,,,,,,,,,,
,,,,,,,,,,,,,Too slow :(,,,,,,t4.png,t5.png,1,0.90025,23,female,2020-10-22_08h23.52.526,torte-q,2020.1.3,MacIntel,60,13176,,,,,,,,,,,,,,,0,61,61,58,1,,,,,,,,,,,,,,,,,,,,,,,,,,
,,,,,,,,,,,,,Too slow :(,,,,,,t1.png,t5.png,4,9.55E-11,23,female,2020-10-22_08h23.52.526,torte-q,2020.1.3,MacIntel,60,13176,,,,,,,,,,,,,,,0,62,62,85,1,,,,,,,,,,,,,,,,,,,,,,,,,,
,,,,,,,,,,,,a,Correct!,,,,,,t2.png,t3.png,1,0.90855,23,female,2020-10-22_08h23.52.526,torte-q,2020.1.3,MacIntel,60,13176,0.000545,,,,,,,,,,,,,,0,63,63,111,1,,,,,,,,,,,,,,,,,,,,,,,,,,
,,,,,,,,,,,,l,Incorrect,,,,,,t4.png,t3.png,1,0.90855,23,female,2020-10-22_08h23.52.526,torte-q,2020.1.3,MacIntel,60,13176,2.02262,,,,,,,,,,,,,,0,64,64,35,1,,,,,,,,,,,,,,,,,,,,,,,,,,
,,,,,,,,,,,,l,Correct!,,,,,,t3.png,t1.png,2,0.056466,23,female,2020-10-22_08h23.52.526,torte-q,2020.1.3,MacIntel,60,13176,0.766565,,,,,,,,,,,,,,0,65,65,29,1,,,,,,,,,,,,,,,,,,,,,,,,,,
,,,,,,,,,,,,,Too slow :(,,,,,,t5.png,t2.png,3,0.0000131,23,female,2020-10-22_08h23.52.526,torte-q,2020.1.3,MacIntel,60,13176,,,,,,,,,,,,,,,0,66,66,98,1,,,,,,,,,,,,,,,,,,,,,,,,,,
,,,,,,,,,,,,a,Correct!,,,,,,t4.png,t4.png,0,0.98115,23,female,2020-10-22_08h23.52.526,torte-q,2020.1.3,MacIntel,60,13176,0.19314,,,,,,,,,,,,,,0,67,67,21,1,,,,,,,,,,,,,,,,,,,,,,,,,,
,,,,,,,,,,,,l,Incorrect,,,,,,t4.png,t4.png,0,0.98115,23,female,2020-10-22_08h23.52.526,torte-q,2020.1.3,MacIntel,60,13176,1.036305,,,,,,,,,,,,,,0,68,68,79,1,,,,,,,,,,,,,,,,,,,,,,,,,,
,,,,,,,,,,,,l,Incorrect,,,,,,t4.png,t2.png,2,0.059078,23,female,2020-10-22_08h23.52.526,torte-q,2020.1.3,MacIntel,60,13176,0.73438,,,,,,,,,,,,,,0,69,69,86,1,,,,,,,,,,,,,,,,,,,,,,,,,,
,,,,,,,,,,,,a,Correct!,,,,,,t3.png,t4.png,1,0.90855,23,female,2020-10-22_08h23.52.526,torte-q,2020.1.3,MacIntel,60,13176,0.68626,,,,,,,,,,,,,,0,70,70,96,1,,,,,,,,,,,,,,,,,,,,,,,,,,
,,,,,,,,,,,,l,Incorrect,,,,,,t2.png,t2.png,0,0.981,23,female,2020-10-22_08h23.52.526,torte-q,2020.1.3,MacIntel,60,13176,0.38311,,,,,,,,,,,,,,0,71,71,101,1,,,,,,,,,,,,,,,,,,,,,,,,,,
,,,,,,,,,,,,l,Incorrect,,,,,,t4.png,t3.png,1,0.90855,23,female,2020-10-22_08h23.52.526,torte-q,2020.1.3,MacIntel,60,13176,0.56882,,,,,,,,,,,,,,0,72,72,45,1,,,,,,,,,,,,,,,,,,,,,,,,,,
,,,,,,,,,,,,a,Correct!,,,,,,t3.png,t4.png,1,0.909,23,female,2020-10-22_08h23.52.526,torte-q,2020.1.3,MacIntel,60,13176,0.284615,,,,,,,,,,,,,,0,73,73,89,1,,,,,,,,,,,,,,,,,,,,,,,,,,
,,,,,,,,,,,,l,Correct!,,,,,,t3.png,t1.png,2,0.056466,23,female,2020-10-22_08h23.52.526,torte-q,2020.1.3,MacIntel,60,13176,0.44123,,,,,,,,,,,,,,0,74,74,32,1,,,,,,,,,,,,,,,,,,,,,,,,,,
,,,,,,,,,,,,a,Correct!,,,,,,t4.png,t5.png,1,0.9,23,female,2020-10-22_08h23.52.526,torte-q,2020.1.3,MacIntel,60,13176,0.31523,,,,,,,,,,,,,,0,75,75,115,1,,,,,,,,,,,,,,,,,,,,,,,,,,
,,,,,,,,,,,,l,Incorrect,,,,,,t5.png,t5.png,0,0.97829,23,female,2020-10-22_08h23.52.526,torte-q,2020.1.3,MacIntel,60,13176,1.83598,,,,,,,,,,,,,,0,76,76,94,1,,,,,,,,,,,,,,,,,,,,,,,,,,
,,,,,,,,,,,,l,Correct!,,,,,,t4.png,t2.png,2,0.0591,23,female,2020-10-22_08h23.52.526,torte-q,2020.1.3,MacIntel,60,13176,1.504165,,,,,,,,,,,,,,0,77,77,36,1,,,,,,,,,,,,,,,,,,,,,,,,,,
,,,,,,,,,,,,l,Correct!,,,,,,t2.png,t5.png,3,0.0000131,23,female,2020-10-22_08h23.52.526,torte-q,2020.1.3,MacIntel,60,13176,1.000055,,,,,,,,,,,,,,0,78,78,66,1,,,,,,,,,,,,,,,,,,,,,,,,,,
,,,,,,,,,,,,l,Correct!,,,,,,t1.png,t5.png,4,9.55E-11,23,female,2020-10-22_08h23.52.526,torte-q,2020.1.3,MacIntel,60,13176,1.350285,,,,,,,,,,,,,,0,79,79,12,1,,,,,,,,,,,,,,,,,,,,,,,,,,
,,,,,,,,,,,,l,Incorrect,,,,,,t5.png,t5.png,0,0.97829,23,female,2020-10-22_08h23.52.526,torte-q,2020.1.3,MacIntel,60,13176,0.64547,,,,,,,,,,,,,,0,80,80,70,1,,,,,,,,,,,,,,,,,,,,,,,,,,
,,,,,,,,,,,,a,Correct!,,,,,,t1.png,t2.png,1,0.9,23,female,2020-10-22_08h23.52.526,torte-q,2020.1.3,MacIntel,60,13176,0.312965,,,,,,,,,,,,,,0,81,81,1,1,,,,,,,,,,,,,,,,,,,,,,,,,,
,,,,,,,,,,,,a,Incorrect,,,,,,t2.png,t5.png,3,0.0000131,23,female,2020-10-22_08h23.52.526,torte-q,2020.1.3,MacIntel,60,13176,1.59543,,,,,,,,,,,,,,0,82,82,8,1,,,,,,,,,,,,,,,,,,,,,,,,,,
,,,,,,,,,,,,l,Incorrect,,,,,,t4.png,t5.png,1,0.90025,23,female,2020-10-22_08h23.52.526,torte-q,2020.1.3,MacIntel,60,13176,0.72685,,,,,,,,,,,,,,0,83,83,103,1,,,,,,,,,,,,,,,,,,,,,,,,,,
,,,,,,,,,,,,l,Correct!,,,,,,t1.png,t5.png,4,9.55E-11,23,female,2020-10-22_08h23.52.526,torte-q,2020.1.3,MacIntel,60,13176,2.26735,,,,,,,,,,,,,,0,84,84,41,1,,,,,,,,,,,,,,,,,,,,,,,,,,
,,,,,,,,,,,,a,Correct!,,,,,,t5.png,t4.png,1,0.90025,23,female,2020-10-22_08h23.52.526,torte-q,2020.1.3,MacIntel,60,13176,0.69167,,,,,,,,,,,,,,0,85,85,27,1,,,,,,,,,,,,,,,,,,,,,,,,,,
,,,,,,,,,,,,,Too slow :(,,,,,,t1.png,t4.png,3,0.0000131,23,female,2020-10-22_08h23.52.526,torte-q,2020.1.3,MacIntel,60,13176,,,,,,,,,,,,,,,0,86,86,50,1,,,,,,,,,,,,,,,,,,,,,,,,,,
,,,,,,,,,,,,l,Incorrect,,,,,,t5.png,t4.png,1,0.9,23,female,2020-10-22_08h23.52.526,torte-q,2020.1.3,MacIntel,60,13176,0.347565,,,,,,,,,,,,,,0,87,87,76,1,,,,,,,,,,,,,,,,,,,,,,,,,,
,,,,,,,,,,,,a,Incorrect,,,,,,t3.png,t5.png,2,0.056466,23,female,2020-10-22_08h23.52.526,torte-q,2020.1.3,MacIntel,60,13176,0.38515,,,,,,,,,,,,,,0,88,88,44,1,,,,,,,,,,,,,,,,,,,,,,,,,,
,,,,,,,,,,,,l,Incorrect,,,,,,t4.png,t5.png,1,0.90025,23,female,2020-10-22_08h23.52.526,torte-q,2020.1.3,MacIntel,60,13176,0.655235,,,,,,,,,,,,,,0,89,89,113,1,,,,,,,,,,,,,,,,,,,,,,,,,,
,,,,,,,,,,,,,Too slow :(,,,,,,t2.png,t1.png,1,0.90025,23,female,2020-10-22_08h23.52.526,torte-q,2020.1.3,MacIntel,60,13176,,,,,,,,,,,,,,,0,90,90,62,1,,,,,,,,,,,,,,,,,,,,,,,,,,
,,,,,,,,,,,,a,Correct!,,,,,,t4.png,t3.png,1,0.909,23,female,2020-10-22_08h23.52.526,torte-q,2020.1.3,MacIntel,60,13176,1.26978,,,,,,,,,,,,,,0,91,91,46,1,,,,,,,,,,,,,,,,,,,,,,,,,,
,,,,,,,,,,,,l,Incorrect,,,,,,t1.png,t3.png,2,0.056466,23,female,2020-10-22_08h23.52.526,torte-q,2020.1.3,MacIntel,60,13176,0.453545,,,,,,,,,,,,,,0,92,92,60,1,,,,,,,,,,,,,,,,,,,,,,,,,,
,,,,,,,,,,,,l,Correct!,,,,,,t5.png,t3.png,2,0.056466,23,female,2020-10-22_08h23.52.526,torte-q,2020.1.3,MacIntel,60,13176,1.332795,,,,,,,,,,,,,,0,93,93,108,1,,,,,,,,,,,,,,,,,,,,,,,,,,
,,,,,,,,,,,,a,Correct!,,,,,,t1.png,t1.png,0,0.97829,23,female,2020-10-22_08h23.52.526,torte-q,2020.1.3,MacIntel,60,13176,0.899395,,,,,,,,,,,,,,0,94,94,78,1,,,,,,,,,,,,,,,,,,,,,,,,,,
,,,,,,,,,,,,l,Incorrect,,,,,,t3.png,t2.png,1,0.909,23,female,2020-10-22_08h23.52.526,torte-q,2020.1.3,MacIntel,60,13176,1.08328,,,,,,,,,,,,,,0,95,95,3,1,,,,,,,,,,,,,,,,,,,,,,,,,,
,,,,,,,,,,,,l,Incorrect,,,,,,t2.png,t2.png,0,0.98115,23,female,2020-10-22_08h23.52.526,torte-q,2020.1.3,MacIntel,60,13176,1.317045,,,,,,,,,,,,,,0,96,96,7,1,,,,,,,,,,,,,,,,,,,,,,,,,,
,,,,,,,,,,,,l,Incorrect,,,,,,t2.png,t4.png,2,0.059078,23,female,2020-10-22_08h23.52.526,torte-q,2020.1.3,MacIntel,60,13176,1.093355,,,,,,,,,,,,,,0,97,97,11,1,,,,,,,,,,,,,,,,,,,,,,,,,,
,,,,,,,,,,,,l,Correct!,,,,,,t4.png,t2.png,2,0.059078,23,female,2020-10-22_08h23.52.526,torte-q,2020.1.3,MacIntel,60,13176,1.814045,,,,,,,,,,,,,,0,98,98,109,1,,,,,,,,,,,,,,,,,,,,,,,,,,
,,,,,,,,,,,,a,Correct!,,,,,,t2.png,t3.png,1,0.90855,23,female,2020-10-22_08h23.52.526,torte-q,2020.1.3,MacIntel,60,13176,0.590995,,,,,,,,,,,,,,0,99,99,65,1,,,,,,,,,,,,,,,,,,,,,,,,,,
,,,,,,,,,,,,a,Correct!,,,,,,t3.png,t2.png,1,0.90855,23,female,2020-10-22_08h23.52.526,torte-q,2020.1.3,MacIntel,60,13176,0.90925,,,,,,,,,,,,,,0,100,100,97,1,,,,,,,,,,,,,,,,,,,,,,,,,,
,,,,,,,,,,,,,Too slow :(,,,,,,t5.png,t4.png,1,0.90025,23,female,2020-10-22_08h23.52.526,torte-q,2020.1.3,MacIntel,60,13176,,,,,,,,,,,,,,,0,101,101,34,1,,,,,,,,,,,,,,,,,,,,,,,,,,
,,,,,,,,,,,,a,Incorrect,,,,,,t2.png,t5.png,3,0.0000131,23,female,2020-10-22_08h23.52.526,torte-q,2020.1.3,MacIntel,60,13176,2.26258,,,,,,,,,,,,,,0,102,102,40,1,,,,,,,,,,,,,,,,,,,,,,,,,,
,,,,,,,,,,,,,Too slow :(,,,,,,t5.png,t5.png,0,0.978,23,female,2020-10-22_08h23.52.526,torte-q,2020.1.3,MacIntel,60,13176,,,,,,,,,,,,,,,0,103,103,117,1,,,,,,,,,,,,,,,,,,,,,,,,,,
,,,,,,,,,,,,l,Correct!,,,,,,t4.png,t2.png,2,0.059078,23,female,2020-10-22_08h23.52.526,torte-q,2020.1.3,MacIntel,60,13176,0.56492,,,,,,,,,,,,,,0,104,104,110,1,,,,,,,,,,,,,,,,,,,,,,,,,,
,,,,,,,,,,,,a,Correct!,,,,,,t5.png,t5.png,0,0.97829,23,female,2020-10-22_08h23.52.526,torte-q,2020.1.3,MacIntel,60,13176,0.38269,,,,,,,,,,,,,,0,105,105,73,1,,,,,,,,,,,,,,,,,,,,,,,,,,
,,,,,,,,,,,,,Too slow :(,,,,,,t4.png,t1.png,3,0.0000131,23,female,2020-10-22_08h23.52.526,torte-q,2020.1.3,MacIntel,60,13176,,,,,,,,,,,,,,,0,106,106,42,1,,,,,,,,,,,,,,,,,,,,,,,,,,
,,,,,,,,,,,,l,Correct!,,,,,,t5.png,t2.png,3,0.0000131,23,female,2020-10-22_08h23.52.526,torte-q,2020.1.3,MacIntel,60,13176,0.057295,,,,,,,,,,,,,,0,107,107,51,1,,,,,,,,,,,,,,,,,,,,,,,,,,
,,,,,,,,,,,,a,Incorrect,,,,,,t1.png,t3.png,2,0.056466,23,female,2020-10-22_08h23.52.526,torte-q,2020.1.3,MacIntel,60,13176,0.22492,,,,,,,,,,,,,,0,108,108,69,1,,,,,,,,,,,,,,,,,,,,,,,,,,
,,,,,,,,,,,,a,Correct!,,,,,,t4.png,t4.png,0,0.98115,23,female,2020-10-22_08h23.52.526,torte-q,2020.1.3,MacIntel,60,13176,0.37102,,,,,,,,,,,,,,0,109,109,90,1,,,,,,,,,,,,,,,,,,,,,,,,,,
,,,,,,,,,,,,a,Correct!,,,,,,t2.png,t2.png,0,0.98115,23,female,2020-10-22_08h23.52.526,torte-q,2020.1.3,MacIntel,60,13176,0.319205,,,,,,,,,,,,,,0,110,110,59,1,,,,,,,,,,,,,,,,,,,,,,,,,,
,,,,,,,,,,,,l,Correct!,,,,,,t5.png,t5.png,0,0.97829,23,female,2020-10-22_08h23.52.526,torte-q,2020.1.3,MacIntel,60,13176,0.480485,,,,,,,,,,,,,,0,111,111,25,1,,,,,,,,,,,,,,,,,,,,,,,,,,
,,,,,,,,,,,,,Too slow :(,,,,,,t5.png,t2.png,3,0.0000131,23,female,2020-10-22_08h23.52.526,torte-q,2020.1.3,MacIntel,60,13176,,,,,,,,,,,,,,,0,112,112,119,1,,,,,,,,,,,,,,,,,,,,,,,,,,
,,,,,,,,,,,,l,Correct!,,,,,,t1.png,t4.png,3,0.0000131,23,female,2020-10-22_08h23.52.526,torte-q,2020.1.3,MacIntel,60,13176,0.88357,,,,,,,,,,,,,,0,113,113,81,1,,,,,,,,,,,,,,,,,,,,,,,,,,
,,,,,,,,,,,,l,Correct!,,,,,,t2.png,t5.png,3,0.0000131,23,female,2020-10-22_08h23.52.526,torte-q,2020.1.3,MacIntel,60,13176,0.5313,,,,,,,,,,,,,,0,114,114,95,1,,,,,,,,,,,,,,,,,,,,,,,,,,
,,,,,,,,,,,,a,Incorrect,,,,,,t1.png,t4.png,3,0.0000131,23,female,2020-10-22_08h23.52.526,torte-q,2020.1.3,MacIntel,60,13176,0.448925,,,,,,,,,,,,,,0,115,115,107,1,,,,,,,,,,,,,,,,,,,,,,,,,,
,,,,,,,,,,,,l,Incorrect,,,,,,t4.png,t5.png,1,0.90025,23,female,2020-10-22_08h23.52.526,torte-q,2020.1.3,MacIntel,60,13176,0.61794,,,,,,,,,,,,,,0,116,116,47,1,,,,,,,,,,,,,,,,,,,,,,,,,,
,,,,,,,,,,,,l,Incorrect,,,,,,t1.png,t2.png,1,0.90025,23,female,2020-10-22_08h23.52.526,torte-q,2020.1.3,MacIntel,60,13176,0.45823,,,,,,,,,,,,,,0,117,117,105,1,,,,,,,,,,,,,,,,,,,,,,,,,,
,,,,,,,,,,,,l,Incorrect,,,,,,t2.png,t1.png,1,0.90025,23,female,2020-10-22_08h23.52.526,torte-q,2020.1.3,MacIntel,60,13176,0.84047,,,,,,,,,,,,,,0,118,118,19,1,,,,,,,,,,,,,,,,,,,,,,,,,,
,,,,,,,,,,,,,Too slow :(,,,,,,t5.png,t2.png,3,0.0000131,23,female,2020-10-22_08h23.52.526,torte-q,2020.1.3,MacIntel,60,13176,,,,,,,,,,,,,,,0,119,119,91,1,,,,,,,,,,,,,,,,,,,,,,,,,,
,,,,,,,,,,,,,,,,,,,,,,,23,female,2020-10-22_08h23.52.526,torte-q,2020.1.3,MacIntel,60,13176,,space,1.64966,,,,,,,,,,,,,,,,,4.006240234,5.197045,100.4648438,175.8085938,1,0,0,s1,23.94921875,31.50390625,1,0,0,t2,149.3945313,-100.3984375,1,0,0,proceed,space,0.84319,space,0.41363,space,0.726555
