key_resp_8.keys,key_resp_8.rt,key_resp_9.keys,key_resp_9.rt,key_resp_10.keys,key_resp_10.rt,key_resp_11.keys,key_resp_11.rt,key_resp_2.keys,key_resp_2.rt,key_resp_3.keys,key_resp_3.rt,key_resp.keys,key_resp.rt,Feedback,train.thisRepN,train.thisTrialN,train.thisN,train.thisIndex,train.ran,torta_sx,torta_dx,difference,probability,age,gender,date,expName,psychopyVersion,OS,frameRate,participant,key_resp_15.keys,key_resp_15.rt,key_resp_6.keys,key_resp_6.rt,test1.thisRepN,test1.thisTrialN,test1.thisN,test1.thisIndex,test1.ran,key_resp_16.keys,key_resp_16.rt,key_resp_7.keys,key_resp_7.rt,test2.thisRepN,test2.thisTrialN,test2.thisN,test2.thisIndex,test2.ran,rating.response,rating.rt,mouse.x,mouse.y,mouse.leftButton,mouse.midButton,mouse.rightButton,mouse.clicked_name,mouse_2.x,mouse_2.y,mouse_2.leftButton,mouse_2.midButton,mouse_2.rightButton,mouse_2.clicked_name,mouse_3.x,mouse_3.y,mouse_3.leftButton,mouse_3.midButton,mouse_3.rightButton,mouse_3.clicked_name,key_resp_12.keys,key_resp_12.rt,key_resp_13.keys,key_resp_13.rt,key_resp_14.keys,key_resp_14.rt
space,2.11655,space,0.00104,space,1.117235,space,1.953245,space,3.89979,space,33.610515,a,1.01864,Incorrect,0,0,0,93,1,t2.png,t4.png,2,0.059078,19,female,2020-11-09_20h09.40.227,torte-q,2020.1.3,Win32,60,13200,,,,,,,,,,,,,,,,,,,,,,,,,,,,,,,,,,,,,,,,,,,,
,,,,,,,,,,,,a,2.184815,Correct!,0,1,1,74,1,t5.png,t4.png,1,0.9,19,female,2020-11-09_20h09.40.227,torte-q,2020.1.3,Win32,60,13200,,,,,,,,,,,,,,,,,,,,,,,,,,,,,,,,,,,,,,,,,,,,
,,,,,,,,,,,,l,0.897855,Correct!,0,2,2,54,1,t1.png,t5.png,4,9.55E-11,19,female,2020-11-09_20h09.40.227,torte-q,2020.1.3,Win32,60,13200,,,,,,,,,,,,,,,,,,,,,,,,,,,,,,,,,,,,,,,,,,,,
,,,,,,,,,,,,l,0.63525,Correct!,0,3,3,115,1,t2.png,t4.png,2,0.059078,19,female,2020-11-09_20h09.40.227,torte-q,2020.1.3,Win32,60,13200,,,,,,,,,,,,,,,,,,,,,,,,,,,,,,,,,,,,,,,,,,,,
,,,,,,,,,,,,a,0.814635,Correct!,0,4,4,41,1,t3.png,t2.png,1,0.90855,19,female,2020-11-09_20h09.40.227,torte-q,2020.1.3,Win32,60,13200,,,,,,,,,,,,,,,,,,,,,,,,,,,,,,,,,,,,,,,,,,,,
,,,,,,,,,,,,a,0.731085,Correct!,0,5,5,23,1,t5.png,t4.png,1,0.90025,19,female,2020-11-09_20h09.40.227,torte-q,2020.1.3,Win32,60,13200,,,,,,,,,,,,,,,,,,,,,,,,,,,,,,,,,,,,,,,,,,,,
,,,,,,,,,,,,l,0.850615,Incorrect,0,6,6,7,1,t4.png,t5.png,1,0.90025,19,female,2020-11-09_20h09.40.227,torte-q,2020.1.3,Win32,60,13200,,,,,,,,,,,,,,,,,,,,,,,,,,,,,,,,,,,,,,,,,,,,
,,,,,,,,,,,,l,0.88373,Correct!,0,7,7,14,1,t2.png,t4.png,2,0.059078,19,female,2020-11-09_20h09.40.227,torte-q,2020.1.3,Win32,60,13200,,,,,,,,,,,,,,,,,,,,,,,,,,,,,,,,,,,,,,,,,,,,
,,,,,,,,,,,,l,1.28827,Correct!,0,8,8,52,1,t2.png,t4.png,2,0.059078,19,female,2020-11-09_20h09.40.227,torte-q,2020.1.3,Win32,60,13200,,,,,,,,,,,,,,,,,,,,,,,,,,,,,,,,,,,,,,,,,,,,
,,,,,,,,,,,,a,0.99748,Incorrect,0,9,9,102,1,t4.png,t2.png,2,0.059078,19,female,2020-11-09_20h09.40.227,torte-q,2020.1.3,Win32,60,13200,,,,,,,,,,,,,,,,,,,,,,,,,,,,,,,,,,,,,,,,,,,,
,,,,,,,,,,,,a,1.905065,Incorrect,0,10,10,83,1,t3.png,t1.png,2,0.056466,19,female,2020-11-09_20h09.40.227,torte-q,2020.1.3,Win32,60,13200,,,,,,,,,,,,,,,,,,,,,,,,,,,,,,,,,,,,,,,,,,,,
,,,,,,,,,,,,a,1.77039,Incorrect,0,11,11,82,1,t5.png,t1.png,4,9.55E-11,19,female,2020-11-09_20h09.40.227,torte-q,2020.1.3,Win32,60,13200,,,,,,,,,,,,,,,,,,,,,,,,,,,,,,,,,,,,,,,,,,,,
,,,,,,,,,,,,a,0.687345,Correct!,0,12,12,28,1,t2.png,t3.png,1,0.909,19,female,2020-11-09_20h09.40.227,torte-q,2020.1.3,Win32,60,13200,,,,,,,,,,,,,,,,,,,,,,,,,,,,,,,,,,,,,,,,,,,,
,,,,,,,,,,,,l,1.213865,Incorrect,0,13,13,21,1,t5.png,t4.png,1,0.90025,19,female,2020-11-09_20h09.40.227,torte-q,2020.1.3,Win32,60,13200,,,,,,,,,,,,,,,,,,,,,,,,,,,,,,,,,,,,,,,,,,,,
,,,,,,,,,,,,a,1.067605,Incorrect,0,14,14,56,1,t5.png,t1.png,4,9.55E-11,19,female,2020-11-09_20h09.40.227,torte-q,2020.1.3,Win32,60,13200,,,,,,,,,,,,,,,,,,,,,,,,,,,,,,,,,,,,,,,,,,,,
,,,,,,,,,,,,a,1.92445,Correct!,0,15,15,10,1,t2.png,t3.png,1,0.90855,19,female,2020-11-09_20h09.40.227,torte-q,2020.1.3,Win32,60,13200,,,,,,,,,,,,,,,,,,,,,,,,,,,,,,,,,,,,,,,,,,,,
,,,,,,,,,,,,a,1.090735,Correct!,0,16,16,113,1,t5.png,t4.png,1,0.9,19,female,2020-11-09_20h09.40.227,torte-q,2020.1.3,Win32,60,13200,,,,,,,,,,,,,,,,,,,,,,,,,,,,,,,,,,,,,,,,,,,,
,,,,,,,,,,,,l,1.264015,Correct!,0,17,17,15,1,t3.png,t2.png,1,0.90855,19,female,2020-11-09_20h09.40.227,torte-q,2020.1.3,Win32,60,13200,,,,,,,,,,,,,,,,,,,,,,,,,,,,,,,,,,,,,,,,,,,,
,,,,,,,,,,,,,,Too slow :(,0,18,18,26,1,t4.png,t2.png,2,0.0591,19,female,2020-11-09_20h09.40.227,torte-q,2020.1.3,Win32,60,13200,,,,,,,,,,,,,,,,,,,,,,,,,,,,,,,,,,,,,,,,,,,,
,,,,,,,,,,,,l,1.11596,Correct!,0,19,19,89,1,t1.png,t4.png,3,0.0000131,19,female,2020-11-09_20h09.40.227,torte-q,2020.1.3,Win32,60,13200,,,,,,,,,,,,,,,,,,,,,,,,,,,,,,,,,,,,,,,,,,,,
,,,,,,,,,,,,a,0.73034,Incorrect,0,20,20,53,1,t3.png,t1.png,2,0.056466,19,female,2020-11-09_20h09.40.227,torte-q,2020.1.3,Win32,60,13200,,,,,,,,,,,,,,,,,,,,,,,,,,,,,,,,,,,,,,,,,,,,
,,,,,,,,,,,,l,0.66336,Correct!,0,21,21,91,1,t1.png,t4.png,3,0.0000131,19,female,2020-11-09_20h09.40.227,torte-q,2020.1.3,Win32,60,13200,,,,,,,,,,,,,,,,,,,,,,,,,,,,,,,,,,,,,,,,,,,,
,,,,,,,,,,,,l,1.47576,Incorrect,0,22,22,78,1,t1.png,t1.png,0,0.978,19,female,2020-11-09_20h09.40.227,torte-q,2020.1.3,Win32,60,13200,,,,,,,,,,,,,,,,,,,,,,,,,,,,,,,,,,,,,,,,,,,,
,,,,,,,,,,,,l,1.83467,Correct!,0,23,23,61,1,t1.png,t4.png,3,0.0000131,19,female,2020-11-09_20h09.40.227,torte-q,2020.1.3,Win32,60,13200,,,,,,,,,,,,,,,,,,,,,,,,,,,,,,,,,,,,,,,,,,,,
,,,,,,,,,,,,l,0.83127,Correct!,0,24,24,5,1,t2.png,t4.png,2,0.059078,19,female,2020-11-09_20h09.40.227,torte-q,2020.1.3,Win32,60,13200,,,,,,,,,,,,,,,,,,,,,,,,,,,,,,,,,,,,,,,,,,,,
,,,,,,,,,,,,a,0.79201,Incorrect,0,25,25,88,1,t3.png,t1.png,2,0.056466,19,female,2020-11-09_20h09.40.227,torte-q,2020.1.3,Win32,60,13200,,,,,,,,,,,,,,,,,,,,,,,,,,,,,,,,,,,,,,,,,,,,
,,,,,,,,,,,,l,2.0803,Incorrect,0,26,26,107,1,t1.png,t1.png,0,0.978,19,female,2020-11-09_20h09.40.227,torte-q,2020.1.3,Win32,60,13200,,,,,,,,,,,,,,,,,,,,,,,,,,,,,,,,,,,,,,,,,,,,
,,,,,,,,,,,,a,1.02291,Correct!,0,27,27,29,1,t5.png,t5.png,0,0.97829,19,female,2020-11-09_20h09.40.227,torte-q,2020.1.3,Win32,60,13200,,,,,,,,,,,,,,,,,,,,,,,,,,,,,,,,,,,,,,,,,,,,
,,,,,,,,,,,,a,2.09697,Correct!,0,28,28,8,1,t3.png,t2.png,1,0.90855,19,female,2020-11-09_20h09.40.227,torte-q,2020.1.3,Win32,60,13200,,,,,,,,,,,,,,,,,,,,,,,,,,,,,,,,,,,,,,,,,,,,
,,,,,,,,,,,,a,1.373685,Incorrect,0,29,29,50,1,t5.png,t1.png,4,9.55E-11,19,female,2020-11-09_20h09.40.227,torte-q,2020.1.3,Win32,60,13200,,,,,,,,,,,,,,,,,,,,,,,,,,,,,,,,,,,,,,,,,,,,
,,,,,,,,,,,,l,1.284325,Incorrect,0,30,30,63,1,t2.png,t3.png,1,0.909,19,female,2020-11-09_20h09.40.227,torte-q,2020.1.3,Win32,60,13200,,,,,,,,,,,,,,,,,,,,,,,,,,,,,,,,,,,,,,,,,,,,
,,,,,,,,,,,,a,1.31312,Correct!,0,31,31,106,1,t2.png,t3.png,1,0.90855,19,female,2020-11-09_20h09.40.227,torte-q,2020.1.3,Win32,60,13200,,,,,,,,,,,,,,,,,,,,,,,,,,,,,,,,,,,,,,,,,,,,
,,,,,,,,,,,,a,1.88361,Correct!,0,32,32,16,1,t5.png,t4.png,1,0.9,19,female,2020-11-09_20h09.40.227,torte-q,2020.1.3,Win32,60,13200,,,,,,,,,,,,,,,,,,,,,,,,,,,,,,,,,,,,,,,,,,,,
,,,,,,,,,,,,,,Too slow :(,0,33,33,37,1,t1.png,t4.png,3,0.0000131,19,female,2020-11-09_20h09.40.227,torte-q,2020.1.3,Win32,60,13200,,,,,,,,,,,,,,,,,,,,,,,,,,,,,,,,,,,,,,,,,,,,
,,,,,,,,,,,,l,1.357315,Correct!,0,34,34,1,1,t2.png,t4.png,2,0.059078,19,female,2020-11-09_20h09.40.227,torte-q,2020.1.3,Win32,60,13200,,,,,,,,,,,,,,,,,,,,,,,,,,,,,,,,,,,,,,,,,,,,
,,,,,,,,,,,,l,1.186725,Correct!,0,35,35,67,1,t1.png,t5.png,4,9.55E-11,19,female,2020-11-09_20h09.40.227,torte-q,2020.1.3,Win32,60,13200,,,,,,,,,,,,,,,,,,,,,,,,,,,,,,,,,,,,,,,,,,,,
,,,,,,,,,,,,l,0.552925,Incorrect,0,36,36,49,1,t4.png,t5.png,1,0.9,19,female,2020-11-09_20h09.40.227,torte-q,2020.1.3,Win32,60,13200,,,,,,,,,,,,,,,,,,,,,,,,,,,,,,,,,,,,,,,,,,,,
,,,,,,,,,,,,a,0.78432,Incorrect,0,37,37,30,1,t3.png,t1.png,2,0.056466,19,female,2020-11-09_20h09.40.227,torte-q,2020.1.3,Win32,60,13200,,,,,,,,,,,,,,,,,,,,,,,,,,,,,,,,,,,,,,,,,,,,
,,,,,,,,,,,,a,0.46505,Incorrect,0,38,38,72,1,t4.png,t2.png,2,0.059078,19,female,2020-11-09_20h09.40.227,torte-q,2020.1.3,Win32,60,13200,,,,,,,,,,,,,,,,,,,,,,,,,,,,,,,,,,,,,,,,,,,,
,,,,,,,,,,,,a,1.487785,Incorrect,0,39,39,90,1,t1.png,t5.png,4,9.55E-11,19,female,2020-11-09_20h09.40.227,torte-q,2020.1.3,Win32,60,13200,,,,,,,,,,,,,,,,,,,,,,,,,,,,,,,,,,,,,,,,,,,,
,,,,,,,,,,,,a,0.64764,Incorrect,0,40,40,99,1,t1.png,t5.png,4,9.55E-11,19,female,2020-11-09_20h09.40.227,torte-q,2020.1.3,Win32,60,13200,,,,,,,,,,,,,,,,,,,,,,,,,,,,,,,,,,,,,,,,,,,,
,,,,,,,,,,,,a,0.873945,Correct!,0,41,41,75,1,t1.png,t1.png,0,0.97829,19,female,2020-11-09_20h09.40.227,torte-q,2020.1.3,Win32,60,13200,,,,,,,,,,,,,,,,,,,,,,,,,,,,,,,,,,,,,,,,,,,,
,,,,,,,,,,,,l,1.120835,Correct!,0,42,42,117,1,t1.png,t5.png,4,9.55E-11,19,female,2020-11-09_20h09.40.227,torte-q,2020.1.3,Win32,60,13200,,,,,,,,,,,,,,,,,,,,,,,,,,,,,,,,,,,,,,,,,,,,
,,,,,,,,,,,,l,0.631485,Incorrect,0,43,43,92,1,t2.png,t3.png,1,0.909,19,female,2020-11-09_20h09.40.227,torte-q,2020.1.3,Win32,60,13200,,,,,,,,,,,,,,,,,,,,,,,,,,,,,,,,,,,,,,,,,,,,
,,,,,,,,,,,,a,0.397445,Incorrect,0,44,44,68,1,t1.png,t4.png,3,0.0000131,19,female,2020-11-09_20h09.40.227,torte-q,2020.1.3,Win32,60,13200,,,,,,,,,,,,,,,,,,,,,,,,,,,,,,,,,,,,,,,,,,,,
,,,,,,,,,,,,l,0.63301,Incorrect,0,45,45,25,1,t5.png,t5.png,0,0.97829,19,female,2020-11-09_20h09.40.227,torte-q,2020.1.3,Win32,60,13200,,,,,,,,,,,,,,,,,,,,,,,,,,,,,,,,,,,,,,,,,,,,
,,,,,,,,,,,,a,0.607645,Incorrect,0,46,46,27,1,t3.png,t1.png,2,0.0565,19,female,2020-11-09_20h09.40.227,torte-q,2020.1.3,Win32,60,13200,,,,,,,,,,,,,,,,,,,,,,,,,,,,,,,,,,,,,,,,,,,,
,,,,,,,,,,,,l,0.44932,Correct!,0,47,47,17,1,t1.png,t4.png,3,0.0000131,19,female,2020-11-09_20h09.40.227,torte-q,2020.1.3,Win32,60,13200,,,,,,,,,,,,,,,,,,,,,,,,,,,,,,,,,,,,,,,,,,,,
,,,,,,,,,,,,a,0.57168,Incorrect,0,48,48,46,1,t4.png,t2.png,2,0.059078,19,female,2020-11-09_20h09.40.227,torte-q,2020.1.3,Win32,60,13200,,,,,,,,,,,,,,,,,,,,,,,,,,,,,,,,,,,,,,,,,,,,
,,,,,,,,,,,,a,1.03998,Correct!,0,49,49,76,1,t3.png,t2.png,1,0.90855,19,female,2020-11-09_20h09.40.227,torte-q,2020.1.3,Win32,60,13200,,,,,,,,,,,,,,,,,,,,,,,,,,,,,,,,,,,,,,,,,,,,
,,,,,,,,,,,,a,1.131285,Correct!,0,50,50,116,1,t5.png,t4.png,1,0.90025,19,female,2020-11-09_20h09.40.227,torte-q,2020.1.3,Win32,60,13200,,,,,,,,,,,,,,,,,,,,,,,,,,,,,,,,,,,,,,,,,,,,
,,,,,,,,,,,,a,0.531055,Incorrect,0,51,51,0,1,t5.png,t1.png,4,9.55E-11,19,female,2020-11-09_20h09.40.227,torte-q,2020.1.3,Win32,60,13200,,,,,,,,,,,,,,,,,,,,,,,,,,,,,,,,,,,,,,,,,,,,
,,,,,,,,,,,,a,0.467915,Incorrect,0,52,52,19,1,t4.png,t2.png,2,0.059078,19,female,2020-11-09_20h09.40.227,torte-q,2020.1.3,Win32,60,13200,,,,,,,,,,,,,,,,,,,,,,,,,,,,,,,,,,,,,,,,,,,,
,,,,,,,,,,,,l,0.404925,Correct!,0,53,53,6,1,t1.png,t4.png,3,0.0000131,19,female,2020-11-09_20h09.40.227,torte-q,2020.1.3,Win32,60,13200,,,,,,,,,,,,,,,,,,,,,,,,,,,,,,,,,,,,,,,,,,,,
,,,,,,,,,,,,l,1.01351,Incorrect,0,54,54,62,1,t5.png,t5.png,0,0.978,19,female,2020-11-09_20h09.40.227,torte-q,2020.1.3,Win32,60,13200,,,,,,,,,,,,,,,,,,,,,,,,,,,,,,,,,,,,,,,,,,,,
,,,,,,,,,,,,a,0.731305,Correct!,0,55,55,96,1,t1.png,t1.png,0,0.97829,19,female,2020-11-09_20h09.40.227,torte-q,2020.1.3,Win32,60,13200,,,,,,,,,,,,,,,,,,,,,,,,,,,,,,,,,,,,,,,,,,,,
,,,,,,,,,,,,l,0.581005,Correct!,0,56,56,119,1,t1.png,t5.png,4,9.55E-11,19,female,2020-11-09_20h09.40.227,torte-q,2020.1.3,Win32,60,13200,,,,,,,,,,,,,,,,,,,,,,,,,,,,,,,,,,,,,,,,,,,,
,,,,,,,,,,,,a,0.58997,Incorrect,0,57,57,51,1,t3.png,t1.png,2,0.056466,19,female,2020-11-09_20h09.40.227,torte-q,2020.1.3,Win32,60,13200,,,,,,,,,,,,,,,,,,,,,,,,,,,,,,,,,,,,,,,,,,,,
,,,,,,,,,,,,l,0.27324,Incorrect,0,58,58,34,1,t5.png,t4.png,1,0.9,19,female,2020-11-09_20h09.40.227,torte-q,2020.1.3,Win32,60,13200,,,,,,,,,,,,,,,,,,,,,,,,,,,,,,,,,,,,,,,,,,,,
,,,,,,,,,,,,a,0.37292,Correct!,0,59,59,109,1,t5.png,t5.png,0,0.97829,19,female,2020-11-09_20h09.40.227,torte-q,2020.1.3,Win32,60,13200,,,,,,,,,,,,,,,,,,,,,,,,,,,,,,,,,,,,,,,,,,,,
,,,,,,,,,,,,l,0.63865,Correct!,0,60,60,60,1,t2.png,t4.png,2,0.059078,19,female,2020-11-09_20h09.40.227,torte-q,2020.1.3,Win32,60,13200,,,,,,,,,,,,,,,,,,,,,,,,,,,,,,,,,,,,,,,,,,,,
,,,,,,,,,,,,a,0.56476,Incorrect,0,61,61,94,1,t5.png,t1.png,4,9.55E-11,19,female,2020-11-09_20h09.40.227,torte-q,2020.1.3,Win32,60,13200,,,,,,,,,,,,,,,,,,,,,,,,,,,,,,,,,,,,,,,,,,,,
,,,,,,,,,,,,l,0.347505,Incorrect,0,62,62,112,1,t1.png,t1.png,0,0.97829,19,female,2020-11-09_20h09.40.227,torte-q,2020.1.3,Win32,60,13200,,,,,,,,,,,,,,,,,,,,,,,,,,,,,,,,,,,,,,,,,,,,
,,,,,,,,,,,,l,0.740535,Correct!,0,63,63,4,1,t1.png,t5.png,4,9.55E-11,19,female,2020-11-09_20h09.40.227,torte-q,2020.1.3,Win32,60,13200,,,,,,,,,,,,,,,,,,,,,,,,,,,,,,,,,,,,,,,,,,,,
,,,,,,,,,,,,l,0.69788,Incorrect,0,64,64,77,1,t1.png,t1.png,0,0.97829,19,female,2020-11-09_20h09.40.227,torte-q,2020.1.3,Win32,60,13200,,,,,,,,,,,,,,,,,,,,,,,,,,,,,,,,,,,,,,,,,,,,
,,,,,,,,,,,,a,0.5806,Correct!,0,65,65,100,1,t4.png,t5.png,1,0.90025,19,female,2020-11-09_20h09.40.227,torte-q,2020.1.3,Win32,60,13200,,,,,,,,,,,,,,,,,,,,,,,,,,,,,,,,,,,,,,,,,,,,
,,,,,,,,,,,,a,0.547235,Incorrect,0,66,66,111,1,t5.png,t1.png,4,9.55E-11,19,female,2020-11-09_20h09.40.227,torte-q,2020.1.3,Win32,60,13200,,,,,,,,,,,,,,,,,,,,,,,,,,,,,,,,,,,,,,,,,,,,
,,,,,,,,,,,,l,1.29302,Incorrect,0,67,67,84,1,t1.png,t1.png,0,0.97829,19,female,2020-11-09_20h09.40.227,torte-q,2020.1.3,Win32,60,13200,,,,,,,,,,,,,,,,,,,,,,,,,,,,,,,,,,,,,,,,,,,,
,,,,,,,,,,,,a,0.31491,Incorrect,0,68,68,55,1,t2.png,t4.png,2,0.059078,19,female,2020-11-09_20h09.40.227,torte-q,2020.1.3,Win32,60,13200,,,,,,,,,,,,,,,,,,,,,,,,,,,,,,,,,,,,,,,,,,,,
,,,,,,,,,,,,l,0.27368,Correct!,0,69,69,57,1,t2.png,t4.png,2,0.059078,19,female,2020-11-09_20h09.40.227,torte-q,2020.1.3,Win32,60,13200,,,,,,,,,,,,,,,,,,,,,,,,,,,,,,,,,,,,,,,,,,,,
,,,,,,,,,,,,l,0.44815,Incorrect,0,70,70,65,1,t4.png,t5.png,1,0.90025,19,female,2020-11-09_20h09.40.227,torte-q,2020.1.3,Win32,60,13200,,,,,,,,,,,,,,,,,,,,,,,,,,,,,,,,,,,,,,,,,,,,
,,,,,,,,,,,,l,0.514745,Correct!,0,71,71,11,1,t1.png,t4.png,3,0.0000131,19,female,2020-11-09_20h09.40.227,torte-q,2020.1.3,Win32,60,13200,,,,,,,,,,,,,,,,,,,,,,,,,,,,,,,,,,,,,,,,,,,,
,,,,,,,,,,,,a,0.817225,Incorrect,0,72,72,38,1,t3.png,t1.png,2,0.056466,19,female,2020-11-09_20h09.40.227,torte-q,2020.1.3,Win32,60,13200,,,,,,,,,,,,,,,,,,,,,,,,,,,,,,,,,,,,,,,,,,,,
,,,,,,,,,,,,a,1.530485,Correct!,0,73,73,70,1,t5.png,t5.png,0,0.978,19,female,2020-11-09_20h09.40.227,torte-q,2020.1.3,Win32,60,13200,,,,,,,,,,,,,,,,,,,,,,,,,,,,,,,,,,,,,,,,,,,,
,,,,,,,,,,,,l,0.949495,Incorrect,0,74,74,13,1,t5.png,t5.png,0,0.97829,19,female,2020-11-09_20h09.40.227,torte-q,2020.1.3,Win32,60,13200,,,,,,,,,,,,,,,,,,,,,,,,,,,,,,,,,,,,,,,,,,,,
,,,,,,,,,,,,a,0.520415,Correct!,0,75,75,9,1,t4.png,t5.png,1,0.9,19,female,2020-11-09_20h09.40.227,torte-q,2020.1.3,Win32,60,13200,,,,,,,,,,,,,,,,,,,,,,,,,,,,,,,,,,,,,,,,,,,,
,,,,,,,,,,,,l,0.732285,Incorrect,0,76,76,48,1,t5.png,t5.png,0,0.97829,19,female,2020-11-09_20h09.40.227,torte-q,2020.1.3,Win32,60,13200,,,,,,,,,,,,,,,,,,,,,,,,,,,,,,,,,,,,,,,,,,,,
,,,,,,,,,,,,a,0.57216,Incorrect,0,77,77,36,1,t3.png,t1.png,2,0.0565,19,female,2020-11-09_20h09.40.227,torte-q,2020.1.3,Win32,60,13200,,,,,,,,,,,,,,,,,,,,,,,,,,,,,,,,,,,,,,,,,,,,
,,,,,,,,,,,,l,0.37572,Correct!,0,78,78,35,1,t1.png,t4.png,3,0.0000131,19,female,2020-11-09_20h09.40.227,torte-q,2020.1.3,Win32,60,13200,,,,,,,,,,,,,,,,,,,,,,,,,,,,,,,,,,,,,,,,,,,,
,,,,,,,,,,,,l,0.58206,Incorrect,0,79,79,81,1,t1.png,t1.png,0,0.97829,19,female,2020-11-09_20h09.40.227,torte-q,2020.1.3,Win32,60,13200,,,,,,,,,,,,,,,,,,,,,,,,,,,,,,,,,,,,,,,,,,,,
,,,,,,,,,,,,l,0.647975,Incorrect,0,80,80,118,1,t5.png,t5.png,0,0.978,19,female,2020-11-09_20h09.40.227,torte-q,2020.1.3,Win32,60,13200,,,,,,,,,,,,,,,,,,,,,,,,,,,,,,,,,,,,,,,,,,,,
,,,,,,,,,,,,l,0.570385,Incorrect,0,81,81,20,1,t2.png,t3.png,1,0.90855,19,female,2020-11-09_20h09.40.227,torte-q,2020.1.3,Win32,60,13200,,,,,,,,,,,,,,,,,,,,,,,,,,,,,,,,,,,,,,,,,,,,
,,,,,,,,,,,,a,0.369935,Correct!,0,82,82,59,1,t5.png,t4.png,1,0.9,19,female,2020-11-09_20h09.40.227,torte-q,2020.1.3,Win32,60,13200,,,,,,,,,,,,,,,,,,,,,,,,,,,,,,,,,,,,,,,,,,,,
,,,,,,,,,,,,a,0.515775,Incorrect,0,83,83,69,1,t4.png,t2.png,2,0.059078,19,female,2020-11-09_20h09.40.227,torte-q,2020.1.3,Win32,60,13200,,,,,,,,,,,,,,,,,,,,,,,,,,,,,,,,,,,,,,,,,,,,
,,,,,,,,,,,,l,0.25815,Incorrect,0,84,84,18,1,t4.png,t5.png,1,0.90025,19,female,2020-11-09_20h09.40.227,torte-q,2020.1.3,Win32,60,13200,,,,,,,,,,,,,,,,,,,,,,,,,,,,,,,,,,,,,,,,,,,,
,,,,,,,,,,,,l,0.62375,Correct!,0,85,85,24,1,t4.png,t2.png,2,0.059078,19,female,2020-11-09_20h09.40.227,torte-q,2020.1.3,Win32,60,13200,,,,,,,,,,,,,,,,,,,,,,,,,,,,,,,,,,,,,,,,,,,,
,,,,,,,,,,,,a,1.61413,Correct!,0,86,86,73,1,t4.png,t2.png,2,0.059078,19,female,2020-11-09_20h09.40.227,torte-q,2020.1.3,Win32,60,13200,,,,,,,,,,,,,,,,,,,,,,,,,,,,,,,,,,,,,,,,,,,,
,,,,,,,,,,,,l,0.764705,Correct!,0,87,87,33,1,t5.png,t1.png,4,9.55E-11,19,female,2020-11-09_20h09.40.227,torte-q,2020.1.3,Win32,60,13200,,,,,,,,,,,,,,,,,,,,,,,,,,,,,,,,,,,,,,,,,,,,
,,,,,,,,,,,,a,0.36868,Incorrect,0,88,88,103,1,t3.png,t1.png,2,0.056466,19,female,2020-11-09_20h09.40.227,torte-q,2020.1.3,Win32,60,13200,,,,,,,,,,,,,,,,,,,,,,,,,,,,,,,,,,,,,,,,,,,,
,,,,,,,,,,,,l,1.06905,Incorrect,0,89,89,39,1,t3.png,t2.png,1,0.90855,19,female,2020-11-09_20h09.40.227,torte-q,2020.1.3,Win32,60,13200,,,,,,,,,,,,,,,,,,,,,,,,,,,,,,,,,,,,,,,,,,,,
,,,,,,,,,,,,l,0.28677,Correct!,0,90,90,87,1,t5.png,t1.png,4,9.55E-11,19,female,2020-11-09_20h09.40.227,torte-q,2020.1.3,Win32,60,13200,,,,,,,,,,,,,,,,,,,,,,,,,,,,,,,,,,,,,,,,,,,,
,,,,,,,,,,,,a,0.314745,Incorrect,0,91,91,80,1,t1.png,t4.png,3,0.0000131,19,female,2020-11-09_20h09.40.227,torte-q,2020.1.3,Win32,60,13200,,,,,,,,,,,,,,,,,,,,,,,,,,,,,,,,,,,,,,,,,,,,
,,,,,,,,,,,,l,0.45,Incorrect,0,92,92,58,1,t5.png,t4.png,1,0.90025,19,female,2020-11-09_20h09.40.227,torte-q,2020.1.3,Win32,60,13200,,,,,,,,,,,,,,,,,,,,,,,,,,,,,,,,,,,,,,,,,,,,
,,,,,,,,,,,,l,0.331125,Correct!,0,93,93,98,1,t2.png,t4.png,2,0.0591,19,female,2020-11-09_20h09.40.227,torte-q,2020.1.3,Win32,60,13200,,,,,,,,,,,,,,,,,,,,,,,,,,,,,,,,,,,,,,,,,,,,
,,,,,,,,,,,,a,0.32548,Correct!,0,94,94,2,1,t3.png,t2.png,1,0.90855,19,female,2020-11-09_20h09.40.227,torte-q,2020.1.3,Win32,60,13200,,,,,,,,,,,,,,,,,,,,,,,,,,,,,,,,,,,,,,,,,,,,
,,,,,,,,,,,,l,0.499185,Incorrect,0,95,95,95,1,t1.png,t1.png,0,0.978,19,female,2020-11-09_20h09.40.227,torte-q,2020.1.3,Win32,60,13200,,,,,,,,,,,,,,,,,,,,,,,,,,,,,,,,,,,,,,,,,,,,
,,,,,,,,,,,,a,0.233805,Correct!,0,96,96,45,1,t3.png,t2.png,1,0.90855,19,female,2020-11-09_20h09.40.227,torte-q,2020.1.3,Win32,60,13200,,,,,,,,,,,,,,,,,,,,,,,,,,,,,,,,,,,,,,,,,,,,
,,,,,,,,,,,,l,0.316635,Incorrect,0,97,97,44,1,t2.png,t3.png,1,0.909,19,female,2020-11-09_20h09.40.227,torte-q,2020.1.3,Win32,60,13200,,,,,,,,,,,,,,,,,,,,,,,,,,,,,,,,,,,,,,,,,,,,
,,,,,,,,,,,,a,0.281525,Incorrect,0,98,98,40,1,t1.png,t5.png,4,9.55E-11,19,female,2020-11-09_20h09.40.227,torte-q,2020.1.3,Win32,60,13200,,,,,,,,,,,,,,,,,,,,,,,,,,,,,,,,,,,,,,,,,,,,
,,,,,,,,,,,,a,0.300895,Correct!,0,99,99,32,1,t4.png,t5.png,1,0.90025,19,female,2020-11-09_20h09.40.227,torte-q,2020.1.3,Win32,60,13200,,,,,,,,,,,,,,,,,,,,,,,,,,,,,,,,,,,,,,,,,,,,
,,,,,,,,,,,,l,0.3238,Incorrect,0,100,100,101,1,t4.png,t5.png,1,0.90025,19,female,2020-11-09_20h09.40.227,torte-q,2020.1.3,Win32,60,13200,,,,,,,,,,,,,,,,,,,,,,,,,,,,,,,,,,,,,,,,,,,,
,,,,,,,,,,,,a,0.321715,Correct!,0,101,101,42,1,t5.png,t4.png,1,0.90025,19,female,2020-11-09_20h09.40.227,torte-q,2020.1.3,Win32,60,13200,,,,,,,,,,,,,,,,,,,,,,,,,,,,,,,,,,,,,,,,,,,,
,,,,,,,,,,,,a,0.65218,Correct!,0,102,102,97,1,t5.png,t5.png,0,0.97829,19,female,2020-11-09_20h09.40.227,torte-q,2020.1.3,Win32,60,13200,,,,,,,,,,,,,,,,,,,,,,,,,,,,,,,,,,,,,,,,,,,,
,,,,,,,,,,,,a,0.607015,Incorrect,0,103,103,47,1,t4.png,t2.png,2,0.059078,19,female,2020-11-09_20h09.40.227,torte-q,2020.1.3,Win32,60,13200,,,,,,,,,,,,,,,,,,,,,,,,,,,,,,,,,,,,,,,,,,,,
,,,,,,,,,,,,l,0.33017,Correct!,0,104,104,108,1,t5.png,t1.png,4,9.55E-11,19,female,2020-11-09_20h09.40.227,torte-q,2020.1.3,Win32,60,13200,,,,,,,,,,,,,,,,,,,,,,,,,,,,,,,,,,,,,,,,,,,,
,,,,,,,,,,,,l,0.31958,Incorrect,0,105,105,85,1,t3.png,t2.png,1,0.90855,19,female,2020-11-09_20h09.40.227,torte-q,2020.1.3,Win32,60,13200,,,,,,,,,,,,,,,,,,,,,,,,,,,,,,,,,,,,,,,,,,,,
,,,,,,,,,,,,a,0.276025,Correct!,0,106,106,110,1,t4.png,t5.png,1,0.90025,19,female,2020-11-09_20h09.40.227,torte-q,2020.1.3,Win32,60,13200,,,,,,,,,,,,,,,,,,,,,,,,,,,,,,,,,,,,,,,,,,,,
,,,,,,,,,,,,a,0.44977,Incorrect,0,107,107,86,1,t3.png,t1.png,2,0.056466,19,female,2020-11-09_20h09.40.227,torte-q,2020.1.3,Win32,60,13200,,,,,,,,,,,,,,,,,,,,,,,,,,,,,,,,,,,,,,,,,,,,
,,,,,,,,,,,,l,1.03743,Correct!,0,108,108,43,1,t4.png,t2.png,2,0.059078,19,female,2020-11-09_20h09.40.227,torte-q,2020.1.3,Win32,60,13200,,,,,,,,,,,,,,,,,,,,,,,,,,,,,,,,,,,,,,,,,,,,
,,,,,,,,,,,,l,0.78035,Incorrect,0,109,109,66,1,t4.png,t5.png,1,0.9,19,female,2020-11-09_20h09.40.227,torte-q,2020.1.3,Win32,60,13200,,,,,,,,,,,,,,,,,,,,,,,,,,,,,,,,,,,,,,,,,,,,
,,,,,,,,,,,,l,0.964745,Incorrect,0,110,110,114,1,t2.png,t3.png,1,0.90855,19,female,2020-11-09_20h09.40.227,torte-q,2020.1.3,Win32,60,13200,,,,,,,,,,,,,,,,,,,,,,,,,,,,,,,,,,,,,,,,,,,,
,,,,,,,,,,,,a,0.593415,Correct!,0,111,111,22,1,t2.png,t3.png,1,0.90855,19,female,2020-11-09_20h09.40.227,torte-q,2020.1.3,Win32,60,13200,,,,,,,,,,,,,,,,,,,,,,,,,,,,,,,,,,,,,,,,,,,,
,,,,,,,,,,,,l,0.974755,Incorrect,0,112,112,71,1,t5.png,t5.png,0,0.97829,19,female,2020-11-09_20h09.40.227,torte-q,2020.1.3,Win32,60,13200,,,,,,,,,,,,,,,,,,,,,,,,,,,,,,,,,,,,,,,,,,,,
,,,,,,,,,,,,l,0.66006,Correct!,0,113,113,12,1,t5.png,t1.png,4,9.55E-11,19,female,2020-11-09_20h09.40.227,torte-q,2020.1.3,Win32,60,13200,,,,,,,,,,,,,,,,,,,,,,,,,,,,,,,,,,,,,,,,,,,,
,,,,,,,,,,,,l,0.579795,Correct!,0,114,114,105,1,t3.png,t2.png,1,0.90855,19,female,2020-11-09_20h09.40.227,torte-q,2020.1.3,Win32,60,13200,,,,,,,,,,,,,,,,,,,,,,,,,,,,,,,,,,,,,,,,,,,,
,,,,,,,,,,,,a,0.57393,Incorrect,0,115,115,31,1,t1.png,t5.png,4,9.55E-11,19,female,2020-11-09_20h09.40.227,torte-q,2020.1.3,Win32,60,13200,,,,,,,,,,,,,,,,,,,,,,,,,,,,,,,,,,,,,,,,,,,,
,,,,,,,,,,,,l,0.58773,Correct!,0,116,116,3,1,t1.png,t5.png,4,9.55E-11,19,female,2020-11-09_20h09.40.227,torte-q,2020.1.3,Win32,60,13200,,,,,,,,,,,,,,,,,,,,,,,,,,,,,,,,,,,,,,,,,,,,
,,,,,,,,,,,,a,0.859185,Correct!,0,117,117,104,1,t2.png,t3.png,1,0.90855,19,female,2020-11-09_20h09.40.227,torte-q,2020.1.3,Win32,60,13200,,,,,,,,,,,,,,,,,,,,,,,,,,,,,,,,,,,,,,,,,,,,
,,,,,,,,,,,,l,0.77684,Incorrect,0,118,118,64,1,t1.png,t1.png,0,0.978,19,female,2020-11-09_20h09.40.227,torte-q,2020.1.3,Win32,60,13200,,,,,,,,,,,,,,,,,,,,,,,,,,,,,,,,,,,,,,,,,,,,
,,,,,,,,,,,,a,0.637255,Correct!,0,119,119,79,1,t3.png,t2.png,1,0.909,19,female,2020-11-09_20h09.40.227,torte-q,2020.1.3,Win32,60,13200,,,,,,,,,,,,,,,,,,,,,,,,,,,,,,,,,,,,,,,,,,,,
,,,,,,,,,,,,a,0.9403,Incorrect,,,,,,t1.png,t4.png,3,0.0000131,19,female,2020-11-09_20h09.40.227,torte-q,2020.1.3,Win32,60,13200,space,2.25382,space,21.22756,0,0,0,81,1,,,,,,,,,,,,,,,,,,,,,,,,,,,,,,,,,,,
,,,,,,,,,,,,l,0.660335,Correct!,,,,,,t1.png,t3.png,2,0.056466,19,female,2020-11-09_20h09.40.227,torte-q,2020.1.3,Win32,60,13200,,,,,0,1,1,87,1,,,,,,,,,,,,,,,,,,,,,,,,,,,,,,,,,,,
,,,,,,,,,,,,l,0.287595,Incorrect,,,,,,t2.png,t3.png,1,0.90855,19,female,2020-11-09_20h09.40.227,torte-q,2020.1.3,Win32,60,13200,,,,,0,2,2,65,1,,,,,,,,,,,,,,,,,,,,,,,,,,,,,,,,,,,
,,,,,,,,,,,,a,0.225135,Correct!,,,,,,t2.png,t2.png,0,0.98115,19,female,2020-11-09_20h09.40.227,torte-q,2020.1.3,Win32,60,13200,,,,,0,3,3,2,1,,,,,,,,,,,,,,,,,,,,,,,,,,,,,,,,,,,
,,,,,,,,,,,,l,0.2448,Correct!,,,,,,t5.png,t2.png,3,0.0000131,19,female,2020-11-09_20h09.40.227,torte-q,2020.1.3,Win32,60,13200,,,,,0,4,4,98,1,,,,,,,,,,,,,,,,,,,,,,,,,,,,,,,,,,,
,,,,,,,,,,,,a,0.260285,Incorrect,,,,,,t2.png,t5.png,3,0.0000131,19,female,2020-11-09_20h09.40.227,torte-q,2020.1.3,Win32,60,13200,,,,,0,5,5,95,1,,,,,,,,,,,,,,,,,,,,,,,,,,,,,,,,,,,
,,,,,,,,,,,,l,0.2523,Incorrect,,,,,,t2.png,t3.png,1,0.90855,19,female,2020-11-09_20h09.40.227,torte-q,2020.1.3,Win32,60,13200,,,,,0,6,6,111,1,,,,,,,,,,,,,,,,,,,,,,,,,,,,,,,,,,,
,,,,,,,,,,,,a,0.25227,Incorrect,,,,,,t4.png,t3.png,1,0.909,19,female,2020-11-09_20h09.40.227,torte-q,2020.1.3,Win32,60,13200,,,,,0,7,7,46,1,,,,,,,,,,,,,,,,,,,,,,,,,,,,,,,,,,,
,,,,,,,,,,,,l,0.24103,Correct!,,,,,,t4.png,t2.png,2,0.059078,19,female,2020-11-09_20h09.40.227,torte-q,2020.1.3,Win32,60,13200,,,,,0,8,8,109,1,,,,,,,,,,,,,,,,,,,,,,,,,,,,,,,,,,,
,,,,,,,,,,,,a,0.103875,Correct!,,,,,,t5.png,t4.png,1,0.90025,19,female,2020-11-09_20h09.40.227,torte-q,2020.1.3,Win32,60,13200,,,,,0,9,9,26,1,,,,,,,,,,,,,,,,,,,,,,,,,,,,,,,,,,,
,,,,,,,,,,,,l,0.424425,Incorrect,,,,,,t4.png,t5.png,1,0.90025,19,female,2020-11-09_20h09.40.227,torte-q,2020.1.3,Win32,60,13200,,,,,0,10,10,113,1,,,,,,,,,,,,,,,,,,,,,,,,,,,,,,,,,,,
,,,,,,,,,,,,a,0.322145,Correct!,,,,,,t2.png,t3.png,1,0.90855,19,female,2020-11-09_20h09.40.227,torte-q,2020.1.3,Win32,60,13200,,,,,0,11,11,68,1,,,,,,,,,,,,,,,,,,,,,,,,,,,,,,,,,,,
,,,,,,,,,,,,a,0.4185,Incorrect,,,,,,t1.png,t5.png,4,9.55E-11,19,female,2020-11-09_20h09.40.227,torte-q,2020.1.3,Win32,60,13200,,,,,0,12,12,85,1,,,,,,,,,,,,,,,,,,,,,,,,,,,,,,,,,,,
,,,,,,,,,,,,l,0.28995,Incorrect,,,,,,t1.png,t1.png,0,0.978,19,female,2020-11-09_20h09.40.227,torte-q,2020.1.3,Win32,60,13200,,,,,0,13,13,54,1,,,,,,,,,,,,,,,,,,,,,,,,,,,,,,,,,,,
,,,,,,,,,,,,l,0.38543,Incorrect,,,,,,t2.png,t2.png,0,0.98115,19,female,2020-11-09_20h09.40.227,torte-q,2020.1.3,Win32,60,13200,,,,,0,14,14,57,1,,,,,,,,,,,,,,,,,,,,,,,,,,,,,,,,,,,
,,,,,,,,,,,,a,0.307745,Incorrect,,,,,,t4.png,t1.png,3,0.0000131,19,female,2020-11-09_20h09.40.227,torte-q,2020.1.3,Win32,60,13200,,,,,0,15,15,13,1,,,,,,,,,,,,,,,,,,,,,,,,,,,,,,,,,,,
,,,,,,,,,,,,l,0.26761,Correct!,,,,,,t3.png,t1.png,2,0.056466,19,female,2020-11-09_20h09.40.227,torte-q,2020.1.3,Win32,60,13200,,,,,0,16,16,64,1,,,,,,,,,,,,,,,,,,,,,,,,,,,,,,,,,,,
,,,,,,,,,,,,l,0.30137,Correct!,,,,,,t5.png,t1.png,4,9.55E-11,19,female,2020-11-09_20h09.40.227,torte-q,2020.1.3,Win32,60,13200,,,,,0,17,17,71,1,,,,,,,,,,,,,,,,,,,,,,,,,,,,,,,,,,,
,,,,,,,,,,,,a,0.21358,Correct!,,,,,,t5.png,t4.png,1,0.9,19,female,2020-11-09_20h09.40.227,torte-q,2020.1.3,Win32,60,13200,,,,,0,18,18,49,1,,,,,,,,,,,,,,,,,,,,,,,,,,,,,,,,,,,
,,,,,,,,,,,,a,0.21678,Correct!,,,,,,t5.png,t4.png,1,0.90025,19,female,2020-11-09_20h09.40.227,torte-q,2020.1.3,Win32,60,13200,,,,,0,19,19,34,1,,,,,,,,,,,,,,,,,,,,,,,,,,,,,,,,,,,
,,,,,,,,,,,,l,0.184725,Correct!,,,,,,t2.png,t4.png,2,0.059078,19,female,2020-11-09_20h09.40.227,torte-q,2020.1.3,Win32,60,13200,,,,,0,20,20,11,1,,,,,,,,,,,,,,,,,,,,,,,,,,,,,,,,,,,
,,,,,,,,,,,,a,0.17689,Correct!,,,,,,t1.png,t2.png,1,0.90025,19,female,2020-11-09_20h09.40.227,torte-q,2020.1.3,Win32,60,13200,,,,,0,21,21,33,1,,,,,,,,,,,,,,,,,,,,,,,,,,,,,,,,,,,
,,,,,,,,,,,,l,0.07005,Correct!,,,,,,t2.png,t2.png,0,0.98115,19,female,2020-11-09_20h09.40.227,torte-q,2020.1.3,Win32,60,13200,,,,,0,22,22,59,1,,,,,,,,,,,,,,,,,,,,,,,,,,,,,,,,,,,
,,,,,,,,,,,,a,0.21489,Incorrect,,,,,,t1.png,t3.png,2,0.056466,19,female,2020-11-09_20h09.40.227,torte-q,2020.1.3,Win32,60,13200,,,,,0,23,23,60,1,,,,,,,,,,,,,,,,,,,,,,,,,,,,,,,,,,,
,,,,,,,,,,,,a,0.30219,Correct!,,,,,,t2.png,t3.png,1,0.909,19,female,2020-11-09_20h09.40.227,torte-q,2020.1.3,Win32,60,13200,,,,,0,24,24,74,1,,,,,,,,,,,,,,,,,,,,,,,,,,,,,,,,,,,
,,,,,,,,,,,,l,0.233865,Correct!,,,,,,t1.png,t3.png,2,0.056466,19,female,2020-11-09_20h09.40.227,torte-q,2020.1.3,Win32,60,13200,,,,,0,25,25,99,1,,,,,,,,,,,,,,,,,,,,,,,,,,,,,,,,,,,
,,,,,,,,,,,,a,0.095465,Correct!,,,,,,t2.png,t2.png,0,0.98115,19,female,2020-11-09_20h09.40.227,torte-q,2020.1.3,Win32,60,13200,,,,,0,26,26,7,1,,,,,,,,,,,,,,,,,,,,,,,,,,,,,,,,,,,
,,,,,,,,,,,,l,0.150065,Incorrect,,,,,,t3.png,t2.png,1,0.90855,19,female,2020-11-09_20h09.40.227,torte-q,2020.1.3,Win32,60,13200,,,,,0,27,27,97,1,,,,,,,,,,,,,,,,,,,,,,,,,,,,,,,,,,,
,,,,,,,,,,,,a,0.017275,Incorrect,,,,,,t4.png,t2.png,2,0.059078,19,female,2020-11-09_20h09.40.227,torte-q,2020.1.3,Win32,60,13200,,,,,0,28,28,88,1,,,,,,,,,,,,,,,,,,,,,,,,,,,,,,,,,,,
,,,,,,,,,,,,l,0.2365,Incorrect,,,,,,t4.png,t3.png,1,0.90855,19,female,2020-11-09_20h09.40.227,torte-q,2020.1.3,Win32,60,13200,,,,,0,29,29,45,1,,,,,,,,,,,,,,,,,,,,,,,,,,,,,,,,,,,
,,,,,,,,,,,,a,0.261255,Correct!,,,,,,t5.png,t4.png,1,0.90025,19,female,2020-11-09_20h09.40.227,torte-q,2020.1.3,Win32,60,13200,,,,,0,30,30,27,1,,,,,,,,,,,,,,,,,,,,,,,,,,,,,,,,,,,
,,,,,,,,,,,,a,0.18964,Incorrect,,,,,,t2.png,t4.png,2,0.059078,19,female,2020-11-09_20h09.40.227,torte-q,2020.1.3,Win32,60,13200,,,,,0,31,31,24,1,,,,,,,,,,,,,,,,,,,,,,,,,,,,,,,,,,,
,,,,,,,,,,,,l,0.25094,Incorrect,,,,,,t3.png,t2.png,1,0.90855,19,female,2020-11-09_20h09.40.227,torte-q,2020.1.3,Win32,60,13200,,,,,0,32,32,18,1,,,,,,,,,,,,,,,,,,,,,,,,,,,,,,,,,,,
,,,,,,,,,,,,a,0.267655,Correct!,,,,,,t4.png,t4.png,0,0.98115,19,female,2020-11-09_20h09.40.227,torte-q,2020.1.3,Win32,60,13200,,,,,0,33,33,80,1,,,,,,,,,,,,,,,,,,,,,,,,,,,,,,,,,,,
,,,,,,,,,,,,l,0.361815,Correct!,,,,,,t1.png,t4.png,3,0.0000131,19,female,2020-11-09_20h09.40.227,torte-q,2020.1.3,Win32,60,13200,,,,,0,34,34,50,1,,,,,,,,,,,,,,,,,,,,,,,,,,,,,,,,,,,
,,,,,,,,,,,,a,0.140135,Incorrect,,,,,,t1.png,t4.png,3,0.0000131,19,female,2020-11-09_20h09.40.227,torte-q,2020.1.3,Win32,60,13200,,,,,0,35,35,17,1,,,,,,,,,,,,,,,,,,,,,,,,,,,,,,,,,,,
,,,,,,,,,,,,a,0.21732,Incorrect,,,,,,t5.png,t2.png,3,0.0000131,19,female,2020-11-09_20h09.40.227,torte-q,2020.1.3,Win32,60,13200,,,,,0,36,36,51,1,,,,,,,,,,,,,,,,,,,,,,,,,,,,,,,,,,,
,,,,,,,,,,,,l,0.53411,Incorrect,,,,,,t1.png,t1.png,0,0.97829,19,female,2020-11-09_20h09.40.227,torte-q,2020.1.3,Win32,60,13200,,,,,0,37,37,67,1,,,,,,,,,,,,,,,,,,,,,,,,,,,,,,,,,,,
,,,,,,,,,,,,a,0.007515,Incorrect,,,,,,t5.png,t2.png,3,0.0000131,19,female,2020-11-09_20h09.40.227,torte-q,2020.1.3,Win32,60,13200,,,,,0,38,38,91,1,,,,,,,,,,,,,,,,,,,,,,,,,,,,,,,,,,,
,,,,,,,,,,,,l,0.048995,Correct!,,,,,,t1.png,t5.png,4,9.55E-11,19,female,2020-11-09_20h09.40.227,torte-q,2020.1.3,Win32,60,13200,,,,,0,39,39,12,1,,,,,,,,,,,,,,,,,,,,,,,,,,,,,,,,,,,
,,,,,,,,,,,,l,0.496565,Correct!,,,,,,t1.png,t5.png,4,9.55E-11,19,female,2020-11-09_20h09.40.227,torte-q,2020.1.3,Win32,60,13200,,,,,0,40,40,55,1,,,,,,,,,,,,,,,,,,,,,,,,,,,,,,,,,,,
,,,,,,,,,,,,a,0.200815,Correct!,,,,,,t3.png,t4.png,1,0.909,19,female,2020-11-09_20h09.40.227,torte-q,2020.1.3,Win32,60,13200,,,,,0,41,41,89,1,,,,,,,,,,,,,,,,,,,,,,,,,,,,,,,,,,,
,,,,,,,,,,,,l,0.300655,Incorrect,,,,,,t4.png,t4.png,0,0.98115,19,female,2020-11-09_20h09.40.227,torte-q,2020.1.3,Win32,60,13200,,,,,0,42,42,21,1,,,,,,,,,,,,,,,,,,,,,,,,,,,,,,,,,,,
,,,,,,,,,,,,a,0.26899,Correct!,,,,,,t3.png,t4.png,1,0.90855,19,female,2020-11-09_20h09.40.227,torte-q,2020.1.3,Win32,60,13200,,,,,0,43,43,96,1,,,,,,,,,,,,,,,,,,,,,,,,,,,,,,,,,,,
,,,,,,,,,,,,a,0.216955,Incorrect,,,,,,t3.png,t4.png,1,0.909,19,female,2020-11-09_20h09.40.227,torte-q,2020.1.3,Win32,60,13200,,,,,0,44,44,82,1,,,,,,,,,,,,,,,,,,,,,,,,,,,,,,,,,,,
,,,,,,,,,,,,l,0.201145,Incorrect,,,,,,t5.png,t5.png,0,0.97829,19,female,2020-11-09_20h09.40.227,torte-q,2020.1.3,Win32,60,13200,,,,,0,45,45,94,1,,,,,,,,,,,,,,,,,,,,,,,,,,,,,,,,,,,
,,,,,,,,,,,,a,0.295535,Correct!,,,,,,t1.png,t2.png,1,0.9,19,female,2020-11-09_20h09.40.227,torte-q,2020.1.3,Win32,60,13200,,,,,0,46,46,1,1,,,,,,,,,,,,,,,,,,,,,,,,,,,,,,,,,,,
,,,,,,,,,,,,a,0.550495,Correct!,,,,,,t5.png,t5.png,0,0.978,19,female,2020-11-09_20h09.40.227,torte-q,2020.1.3,Win32,60,13200,,,,,0,47,47,117,1,,,,,,,,,,,,,,,,,,,,,,,,,,,,,,,,,,,
,,,,,,,,,,,,a,0.71685,Incorrect,,,,,,t3.png,t5.png,2,0.0565,19,female,2020-11-09_20h09.40.227,torte-q,2020.1.3,Win32,60,13200,,,,,0,48,48,30,1,,,,,,,,,,,,,,,,,,,,,,,,,,,,,,,,,,,
,,,,,,,,,,,,a,0.617025,Incorrect,,,,,,t3.png,t5.png,2,0.0565,19,female,2020-11-09_20h09.40.227,torte-q,2020.1.3,Win32,60,13200,,,,,0,49,49,83,1,,,,,,,,,,,,,,,,,,,,,,,,,,,,,,,,,,,
,,,,,,,,,,,,l,0.584095,Incorrect,,,,,,t2.png,t3.png,1,0.90855,19,female,2020-11-09_20h09.40.227,torte-q,2020.1.3,Win32,60,13200,,,,,0,50,50,10,1,,,,,,,,,,,,,,,,,,,,,,,,,,,,,,,,,,,
,,,,,,,,,,,,a,0.49285,Incorrect,,,,,,t2.png,t4.png,2,0.059078,19,female,2020-11-09_20h09.40.227,torte-q,2020.1.3,Win32,60,13200,,,,,0,51,51,37,1,,,,,,,,,,,,,,,,,,,,,,,,,,,,,,,,,,,
,,,,,,,,,,,,l,0.260805,Correct!,,,,,,t4.png,t2.png,2,0.0591,19,female,2020-11-09_20h09.40.227,torte-q,2020.1.3,Win32,60,13200,,,,,0,52,52,36,1,,,,,,,,,,,,,,,,,,,,,,,,,,,,,,,,,,,
,,,,,,,,,,,,a,0.15457,Incorrect,,,,,,t4.png,t1.png,3,0.0000131,19,female,2020-11-09_20h09.40.227,torte-q,2020.1.3,Win32,60,13200,,,,,0,53,53,93,1,,,,,,,,,,,,,,,,,,,,,,,,,,,,,,,,,,,
,,,,,,,,,,,,l,0.16766,Correct!,,,,,,t1.png,t5.png,4,9.55E-11,19,female,2020-11-09_20h09.40.227,torte-q,2020.1.3,Win32,60,13200,,,,,0,54,54,16,1,,,,,,,,,,,,,,,,,,,,,,,,,,,,,,,,,,,
,,,,,,,,,,,,a,0.22322,Incorrect,,,,,,t2.png,t1.png,1,0.90025,19,female,2020-11-09_20h09.40.227,torte-q,2020.1.3,Win32,60,13200,,,,,0,55,55,4,1,,,,,,,,,,,,,,,,,,,,,,,,,,,,,,,,,,,
,,,,,,,,,,,,l,0.534635,Correct!,,,,,,t3.png,t1.png,2,0.0565,19,female,2020-11-09_20h09.40.227,torte-q,2020.1.3,Win32,60,13200,,,,,0,56,56,31,1,,,,,,,,,,,,,,,,,,,,,,,,,,,,,,,,,,,
,,,,,,,,,,,,a,0.21903,Correct!,,,,,,t3.png,t2.png,1,0.909,19,female,2020-11-09_20h09.40.227,torte-q,2020.1.3,Win32,60,13200,,,,,0,57,57,23,1,,,,,,,,,,,,,,,,,,,,,,,,,,,,,,,,,,,
,,,,,,,,,,,,l,0.28423,Correct!,,,,,,t2.png,t4.png,2,0.0591,19,female,2020-11-09_20h09.40.227,torte-q,2020.1.3,Win32,60,13200,,,,,0,58,58,15,1,,,,,,,,,,,,,,,,,,,,,,,,,,,,,,,,,,,
,,,,,,,,,,,,a,0.251085,Correct!,,,,,,t5.png,t5.png,0,0.97829,19,female,2020-11-09_20h09.40.227,torte-q,2020.1.3,Win32,60,13200,,,,,0,59,59,25,1,,,,,,,,,,,,,,,,,,,,,,,,,,,,,,,,,,,
,,,,,,,,,,,,l,0.070235,Incorrect,,,,,,t2.png,t2.png,0,0.981,19,female,2020-11-09_20h09.40.227,torte-q,2020.1.3,Win32,60,13200,,,,,0,60,60,101,1,,,,,,,,,,,,,,,,,,,,,,,,,,,,,,,,,,,
,,,,,,,,,,,,a,0.23484,Correct!,,,,,,t3.png,t2.png,1,0.90855,19,female,2020-11-09_20h09.40.227,torte-q,2020.1.3,Win32,60,13200,,,,,0,61,61,53,1,,,,,,,,,,,,,,,,,,,,,,,,,,,,,,,,,,,
,,,,,,,,,,,,l,0.001195,Correct!,,,,,,t5.png,t3.png,2,0.056466,19,female,2020-11-09_20h09.40.227,torte-q,2020.1.3,Win32,60,13200,,,,,0,62,62,114,1,,,,,,,,,,,,,,,,,,,,,,,,,,,,,,,,,,,
,,,,,,,,,,,,a,0.218225,Correct!,,,,,,t1.png,t1.png,0,0.97829,19,female,2020-11-09_20h09.40.227,torte-q,2020.1.3,Win32,60,13200,,,,,0,63,63,78,1,,,,,,,,,,,,,,,,,,,,,,,,,,,,,,,,,,,
,,,,,,,,,,,,l,0.21915,Incorrect,,,,,,t4.png,t5.png,1,0.90025,19,female,2020-11-09_20h09.40.227,torte-q,2020.1.3,Win32,60,13200,,,,,0,64,64,47,1,,,,,,,,,,,,,,,,,,,,,,,,,,,,,,,,,,,
,,,,,,,,,,,,a,0.295165,Correct!,,,,,,t3.png,t4.png,1,0.909,19,female,2020-11-09_20h09.40.227,torte-q,2020.1.3,Win32,60,13200,,,,,0,65,65,106,1,,,,,,,,,,,,,,,,,,,,,,,,,,,,,,,,,,,
,,,,,,,,,,,,a,0.416725,Incorrect,,,,,,t5.png,t3.png,2,0.0565,19,female,2020-11-09_20h09.40.227,torte-q,2020.1.3,Win32,60,13200,,,,,0,66,66,39,1,,,,,,,,,,,,,,,,,,,,,,,,,,,,,,,,,,,
,,,,,,,,,,,,a,0.27067,Incorrect,,,,,,t5.png,t1.png,4,9.55E-11,19,female,2020-11-09_20h09.40.227,torte-q,2020.1.3,Win32,60,13200,,,,,0,67,67,102,1,,,,,,,,,,,,,,,,,,,,,,,,,,,,,,,,,,,
,,,,,,,,,,,,l,0.24839,Incorrect,,,,,,t4.png,t3.png,1,0.909,19,female,2020-11-09_20h09.40.227,torte-q,2020.1.3,Win32,60,13200,,,,,0,68,68,20,1,,,,,,,,,,,,,,,,,,,,,,,,,,,,,,,,,,,
,,,,,,,,,,,,a,0.250785,Incorrect,,,,,,t2.png,t5.png,3,0.0000131,19,female,2020-11-09_20h09.40.227,torte-q,2020.1.3,Win32,60,13200,,,,,0,69,69,66,1,,,,,,,,,,,,,,,,,,,,,,,,,,,,,,,,,,,
,,,,,,,,,,,,l,0.183705,Correct!,,,,,,t5.png,t2.png,3,0.0000131,19,female,2020-11-09_20h09.40.227,torte-q,2020.1.3,Win32,60,13200,,,,,0,70,70,119,1,,,,,,,,,,,,,,,,,,,,,,,,,,,,,,,,,,,
,,,,,,,,,,,,l,0.35598,Incorrect,,,,,,t4.png,t3.png,1,0.90855,19,female,2020-11-09_20h09.40.227,torte-q,2020.1.3,Win32,60,13200,,,,,0,71,71,35,1,,,,,,,,,,,,,,,,,,,,,,,,,,,,,,,,,,,
,,,,,,,,,,,,l,0.53916,Incorrect,,,,,,t2.png,t1.png,1,0.90025,19,female,2020-11-09_20h09.40.227,torte-q,2020.1.3,Win32,60,13200,,,,,0,72,72,62,1,,,,,,,,,,,,,,,,,,,,,,,,,,,,,,,,,,,
,,,,,,,,,,,,a,0.20199,Correct!,,,,,,t1.png,t2.png,1,0.90025,19,female,2020-11-09_20h09.40.227,torte-q,2020.1.3,Win32,60,13200,,,,,0,73,73,72,1,,,,,,,,,,,,,,,,,,,,,,,,,,,,,,,,,,,
,,,,,,,,,,,,l,0.37115,Incorrect,,,,,,t5.png,t5.png,0,0.97829,19,female,2020-11-09_20h09.40.227,torte-q,2020.1.3,Win32,60,13200,,,,,0,74,74,73,1,,,,,,,,,,,,,,,,,,,,,,,,,,,,,,,,,,,
,,,,,,,,,,,,l,0.445155,Incorrect,,,,,,t4.png,t4.png,0,0.98115,19,female,2020-11-09_20h09.40.227,torte-q,2020.1.3,Win32,60,13200,,,,,0,75,75,79,1,,,,,,,,,,,,,,,,,,,,,,,,,,,,,,,,,,,
,,,,,,,,,,,,a,0.285285,Correct!,,,,,,t2.png,t1.png,1,0.90025,19,female,2020-11-09_20h09.40.227,torte-q,2020.1.3,Win32,60,13200,,,,,0,76,76,5,1,,,,,,,,,,,,,,,,,,,,,,,,,,,,,,,,,,,
,,,,,,,,,,,,l,0.33578,Correct!,,,,,,t3.png,t5.png,2,0.056466,19,female,2020-11-09_20h09.40.227,torte-q,2020.1.3,Win32,60,13200,,,,,0,77,77,6,1,,,,,,,,,,,,,,,,,,,,,,,,,,,,,,,,,,,
,,,,,,,,,,,,a,0.381555,Incorrect,,,,,,t3.png,t1.png,2,0.056466,19,female,2020-11-09_20h09.40.227,torte-q,2020.1.3,Win32,60,13200,,,,,0,78,78,32,1,,,,,,,,,,,,,,,,,,,,,,,,,,,,,,,,,,,
,,,,,,,,,,,,l,0.462265,Incorrect,,,,,,t4.png,t5.png,1,0.90025,19,female,2020-11-09_20h09.40.227,torte-q,2020.1.3,Win32,60,13200,,,,,0,79,79,58,1,,,,,,,,,,,,,,,,,,,,,,,,,,,,,,,,,,,
,,,,,,,,,,,,a,0.234485,Incorrect,,,,,,t5.png,t1.png,4,9.55E-11,19,female,2020-11-09_20h09.40.227,torte-q,2020.1.3,Win32,60,13200,,,,,0,80,80,100,1,,,,,,,,,,,,,,,,,,,,,,,,,,,,,,,,,,,
,,,,,,,,,,,,l,0.319535,Correct!,,,,,,t1.png,t3.png,2,0.056466,19,female,2020-11-09_20h09.40.227,torte-q,2020.1.3,Win32,60,13200,,,,,0,81,81,63,1,,,,,,,,,,,,,,,,,,,,,,,,,,,,,,,,,,,
,,,,,,,,,,,,l,0.317155,Correct!,,,,,,t5.png,t2.png,3,0.0000131,19,female,2020-11-09_20h09.40.227,torte-q,2020.1.3,Win32,60,13200,,,,,0,82,82,116,1,,,,,,,,,,,,,,,,,,,,,,,,,,,,,,,,,,,
,,,,,,,,,,,,a,0.26902,Incorrect,,,,,,t1.png,t4.png,3,0.0000131,19,female,2020-11-09_20h09.40.227,torte-q,2020.1.3,Win32,60,13200,,,,,0,83,83,107,1,,,,,,,,,,,,,,,,,,,,,,,,,,,,,,,,,,,
,,,,,,,,,,,,l,0.684825,Correct!,,,,,,t4.png,t1.png,3,0.0000131,19,female,2020-11-09_20h09.40.227,torte-q,2020.1.3,Win32,60,13200,,,,,0,84,84,48,1,,,,,,,,,,,,,,,,,,,,,,,,,,,,,,,,,,,
,,,,,,,,,,,,a,0.743395,Correct!,,,,,,t5.png,t5.png,0,0.97829,19,female,2020-11-09_20h09.40.227,torte-q,2020.1.3,Win32,60,13200,,,,,0,85,85,70,1,,,,,,,,,,,,,,,,,,,,,,,,,,,,,,,,,,,
,,,,,,,,,,,,a,0.51933,Incorrect,,,,,,t4.png,t2.png,2,0.059078,19,female,2020-11-09_20h09.40.227,torte-q,2020.1.3,Win32,60,13200,,,,,0,86,86,86,1,,,,,,,,,,,,,,,,,,,,,,,,,,,,,,,,,,,
,,,,,,,,,,,,l,0.328555,Incorrect,,,,,,t4.png,t5.png,1,0.9,19,female,2020-11-09_20h09.40.227,torte-q,2020.1.3,Win32,60,13200,,,,,0,87,87,115,1,,,,,,,,,,,,,,,,,,,,,,,,,,,,,,,,,,,
,,,,,,,,,,,,a,0.45936,Correct!,,,,,,t3.png,t2.png,1,0.909,19,female,2020-11-09_20h09.40.227,torte-q,2020.1.3,Win32,60,13200,,,,,0,88,88,3,1,,,,,,,,,,,,,,,,,,,,,,,,,,,,,,,,,,,
,,,,,,,,,,,,l,0.44196,Correct!,,,,,,t5.png,t3.png,2,0.056466,19,female,2020-11-09_20h09.40.227,torte-q,2020.1.3,Win32,60,13200,,,,,0,89,89,56,1,,,,,,,,,,,,,,,,,,,,,,,,,,,,,,,,,,,
,,,,,,,,,,,,a,0.285095,Incorrect,,,,,,t3.png,t4.png,1,0.90855,19,female,2020-11-09_20h09.40.227,torte-q,2020.1.3,Win32,60,13200,,,,,0,90,90,84,1,,,,,,,,,,,,,,,,,,,,,,,,,,,,,,,,,,,
,,,,,,,,,,,,l,0.70761,Correct!,,,,,,t1.png,t5.png,4,9.55E-11,19,female,2020-11-09_20h09.40.227,torte-q,2020.1.3,Win32,60,13200,,,,,0,91,91,41,1,,,,,,,,,,,,,,,,,,,,,,,,,,,,,,,,,,,
,,,,,,,,,,,,a,0.40249,Incorrect,,,,,,t5.png,t3.png,2,0.056466,19,female,2020-11-09_20h09.40.227,torte-q,2020.1.3,Win32,60,13200,,,,,0,92,92,38,1,,,,,,,,,,,,,,,,,,,,,,,,,,,,,,,,,,,
,,,,,,,,,,,,a,0.467535,Correct!,,,,,,t5.png,t4.png,1,0.9,19,female,2020-11-09_20h09.40.227,torte-q,2020.1.3,Win32,60,13200,,,,,0,93,93,76,1,,,,,,,,,,,,,,,,,,,,,,,,,,,,,,,,,,,
,,,,,,,,,,,,l,0.55227,Incorrect,,,,,,t2.png,t4.png,2,0.059078,19,female,2020-11-09_20h09.40.227,torte-q,2020.1.3,Win32,60,13200,,,,,0,94,94,77,1,,,,,,,,,,,,,,,,,,,,,,,,,,,,,,,,,,,
,,,,,,,,,,,,a,0.585285,Incorrect,,,,,,t1.png,t3.png,2,0.056466,19,female,2020-11-09_20h09.40.227,torte-q,2020.1.3,Win32,60,13200,,,,,0,95,95,69,1,,,,,,,,,,,,,,,,,,,,,,,,,,,,,,,,,,,
,,,,,,,,,,,,l,0.500135,Correct!,,,,,,t2.png,t5.png,3,0.0000131,19,female,2020-11-09_20h09.40.227,torte-q,2020.1.3,Win32,60,13200,,,,,0,96,96,104,1,,,,,,,,,,,,,,,,,,,,,,,,,,,,,,,,,,,
,,,,,,,,,,,,a,0.49267,Incorrect,,,,,,t3.png,t1.png,2,0.056466,19,female,2020-11-09_20h09.40.227,torte-q,2020.1.3,Win32,60,13200,,,,,0,97,97,29,1,,,,,,,,,,,,,,,,,,,,,,,,,,,,,,,,,,,
,,,,,,,,,,,,l,0.708735,Correct!,,,,,,t5.png,t3.png,2,0.056466,19,female,2020-11-09_20h09.40.227,torte-q,2020.1.3,Win32,60,13200,,,,,0,98,98,108,1,,,,,,,,,,,,,,,,,,,,,,,,,,,,,,,,,,,
,,,,,,,,,,,,a,0.300225,Incorrect,,,,,,t4.png,t1.png,3,0.0000131,19,female,2020-11-09_20h09.40.227,torte-q,2020.1.3,Win32,60,13200,,,,,0,99,99,61,1,,,,,,,,,,,,,,,,,,,,,,,,,,,,,,,,,,,
,,,,,,,,,,,,a,0.36751,Correct!,,,,,,t4.png,t2.png,2,0.059078,19,female,2020-11-09_20h09.40.227,torte-q,2020.1.3,Win32,60,13200,,,,,0,100,100,110,1,,,,,,,,,,,,,,,,,,,,,,,,,,,,,,,,,,,
,,,,,,,,,,,,a,0.617415,Correct!,,,,,,t4.png,t5.png,1,0.90025,19,female,2020-11-09_20h09.40.227,torte-q,2020.1.3,Win32,60,13200,,,,,0,101,101,103,1,,,,,,,,,,,,,,,,,,,,,,,,,,,,,,,,,,,
,,,,,,,,,,,,a,0.56793,Correct!,,,,,,t4.png,t4.png,0,0.98115,19,female,2020-11-09_20h09.40.227,torte-q,2020.1.3,Win32,60,13200,,,,,0,102,102,52,1,,,,,,,,,,,,,,,,,,,,,,,,,,,,,,,,,,,
,,,,,,,,,,,,a,0.917255,Correct!,,,,,,t2.png,t1.png,1,0.9,19,female,2020-11-09_20h09.40.227,torte-q,2020.1.3,Win32,60,13200,,,,,0,103,103,118,1,,,,,,,,,,,,,,,,,,,,,,,,,,,,,,,,,,,
,,,,,,,,,,,,l,0.512535,Incorrect,,,,,,t2.png,t1.png,1,0.90025,19,female,2020-11-09_20h09.40.227,torte-q,2020.1.3,Win32,60,13200,,,,,0,104,104,19,1,,,,,,,,,,,,,,,,,,,,,,,,,,,,,,,,,,,
,,,,,,,,,,,,a,0.235385,Incorrect,,,,,,t5.png,t1.png,4,9.55E-11,19,female,2020-11-09_20h09.40.227,torte-q,2020.1.3,Win32,60,13200,,,,,0,105,105,22,1,,,,,,,,,,,,,,,,,,,,,,,,,,,,,,,,,,,
,,,,,,,,,,,,a,0.33687,Incorrect,,,,,,t1.png,t2.png,1,0.90025,19,female,2020-11-09_20h09.40.227,torte-q,2020.1.3,Win32,60,13200,,,,,0,106,106,105,1,,,,,,,,,,,,,,,,,,,,,,,,,,,,,,,,,,,
,,,,,,,,,,,,l,0.305525,Incorrect,,,,,,t4.png,t4.png,0,0.98115,19,female,2020-11-09_20h09.40.227,torte-q,2020.1.3,Win32,60,13200,,,,,0,107,107,90,1,,,,,,,,,,,,,,,,,,,,,,,,,,,,,,,,,,,
,,,,,,,,,,,,a,0.302985,Incorrect,,,,,,t3.png,t5.png,2,0.056466,19,female,2020-11-09_20h09.40.227,torte-q,2020.1.3,Win32,60,13200,,,,,0,108,108,44,1,,,,,,,,,,,,,,,,,,,,,,,,,,,,,,,,,,,
,,,,,,,,,,,,l,0.645135,Correct!,,,,,,t1.png,t4.png,3,0.0000131,19,female,2020-11-09_20h09.40.227,torte-q,2020.1.3,Win32,60,13200,,,,,0,109,109,92,1,,,,,,,,,,,,,,,,,,,,,,,,,,,,,,,,,,,
,,,,,,,,,,,,a,0.43534,Correct!,,,,,,t3.png,t1.png,2,0.056466,19,female,2020-11-09_20h09.40.227,torte-q,2020.1.3,Win32,60,13200,,,,,0,110,110,0,1,,,,,,,,,,,,,,,,,,,,,,,,,,,,,,,,,,,
,,,,,,,,,,,,a,0.45409,Incorrect,,,,,,t4.png,t1.png,3,0.0000131,19,female,2020-11-09_20h09.40.227,torte-q,2020.1.3,Win32,60,13200,,,,,0,111,111,42,1,,,,,,,,,,,,,,,,,,,,,,,,,,,,,,,,,,,
,,,,,,,,,,,,l,0.563005,Incorrect,,,,,,t1.png,t1.png,0,0.978,19,female,2020-11-09_20h09.40.227,torte-q,2020.1.3,Win32,60,13200,,,,,0,112,112,28,1,,,,,,,,,,,,,,,,,,,,,,,,,,,,,,,,,,,
,,,,,,,,,,,,a,0.26717,Correct!,,,,,,t1.png,t2.png,1,0.90025,19,female,2020-11-09_20h09.40.227,torte-q,2020.1.3,Win32,60,13200,,,,,0,113,113,112,1,,,,,,,,,,,,,,,,,,,,,,,,,,,,,,,,,,,
,,,,,,,,,,,,l,0.333695,Correct!,,,,,,t2.png,t5.png,3,0.0000131,19,female,2020-11-09_20h09.40.227,torte-q,2020.1.3,Win32,60,13200,,,,,0,114,114,8,1,,,,,,,,,,,,,,,,,,,,,,,,,,,,,,,,,,,
,,,,,,,,,,,,a,0.21733,Correct!,,,,,,t4.png,t3.png,1,0.90855,19,female,2020-11-09_20h09.40.227,torte-q,2020.1.3,Win32,60,13200,,,,,0,115,115,75,1,,,,,,,,,,,,,,,,,,,,,,,,,,,,,,,,,,,
,,,,,,,,,,,,l,0.218465,Correct!,,,,,,t3.png,t5.png,2,0.056466,19,female,2020-11-09_20h09.40.227,torte-q,2020.1.3,Win32,60,13200,,,,,0,116,116,14,1,,,,,,,,,,,,,,,,,,,,,,,,,,,,,,,,,,,
,,,,,,,,,,,,a,0.331385,Incorrect,,,,,,t2.png,t5.png,3,0.0000131,19,female,2020-11-09_20h09.40.227,torte-q,2020.1.3,Win32,60,13200,,,,,0,117,117,40,1,,,,,,,,,,,,,,,,,,,,,,,,,,,,,,,,,,,
,,,,,,,,,,,,l,0.400055,Correct!,,,,,,t5.png,t1.png,4,9.55E-11,19,female,2020-11-09_20h09.40.227,torte-q,2020.1.3,Win32,60,13200,,,,,0,118,118,43,1,,,,,,,,,,,,,,,,,,,,,,,,,,,,,,,,,,,
,,,,,,,,,,,,l,0.466825,Incorrect,,,,,,t1.png,t1.png,0,0.97829,19,female,2020-11-09_20h09.40.227,torte-q,2020.1.3,Win32,60,13200,,,,,0,119,119,9,1,,,,,,,,,,,,,,,,,,,,,,,,,,,,,,,,,,,
,,,,,,,,,,,,a,0.309385,Correct!,,,,,,t5.png,t3.png,2,0.0565,19,female,2020-11-09_20h09.40.227,torte-q,2020.1.3,Win32,60,13200,space,194.55293,,,,,,,,space,8.405805,space,6.513665,0,0,0,39,1,,,,,,,,,,,,,,,,,,,,,,,,,,
,,,,,,,,,,,,l,0.28354,Correct!,,,,,,t1.png,t4.png,3,0.0000131,19,female,2020-11-09_20h09.40.227,torte-q,2020.1.3,Win32,60,13200,,,,,,,,,,,,,,0,1,1,92,1,,,,,,,,,,,,,,,,,,,,,,,,,,
,,,,,,,,,,,,a,0.229305,Correct!,,,,,,t3.png,t2.png,1,0.90855,19,female,2020-11-09_20h09.40.227,torte-q,2020.1.3,Win32,60,13200,,,,,,,,,,,,,,0,2,2,97,1,,,,,,,,,,,,,,,,,,,,,,,,,,
,,,,,,,,,,,,l,0.167465,Correct!,,,,,,t5.png,t2.png,3,0.0000131,19,female,2020-11-09_20h09.40.227,torte-q,2020.1.3,Win32,60,13200,,,,,,,,,,,,,,0,3,3,98,1,,,,,,,,,,,,,,,,,,,,,,,,,,
,,,,,,,,,,,,l,0.16993,Incorrect,,,,,,t3.png,t4.png,1,0.909,19,female,2020-11-09_20h09.40.227,torte-q,2020.1.3,Win32,60,13200,,,,,,,,,,,,,,0,4,4,106,1,,,,,,,,,,,,,,,,,,,,,,,,,,
,,,,,,,,,,,,a,0.427285,Correct!,,,,,,t5.png,t5.png,0,0.97829,19,female,2020-11-09_20h09.40.227,torte-q,2020.1.3,Win32,60,13200,,,,,,,,,,,,,,0,5,5,94,1,,,,,,,,,,,,,,,,,,,,,,,,,,
,,,,,,,,,,,,l,0.234295,Correct!,,,,,,t5.png,t3.png,2,0.056466,19,female,2020-11-09_20h09.40.227,torte-q,2020.1.3,Win32,60,13200,,,,,,,,,,,,,,0,6,6,38,1,,,,,,,,,,,,,,,,,,,,,,,,,,
,,,,,,,,,,,,a,0.20663,Incorrect,,,,,,t2.png,t4.png,2,0.059078,19,female,2020-11-09_20h09.40.227,torte-q,2020.1.3,Win32,60,13200,,,,,,,,,,,,,,0,7,7,37,1,,,,,,,,,,,,,,,,,,,,,,,,,,
,,,,,,,,,,,,l,0.245845,Correct!,,,,,,t2.png,t5.png,3,0.0000131,19,female,2020-11-09_20h09.40.227,torte-q,2020.1.3,Win32,60,13200,,,,,,,,,,,,,,0,8,8,40,1,,,,,,,,,,,,,,,,,,,,,,,,,,
,,,,,,,,,,,,a,0.10939,Incorrect,,,,,,t2.png,t4.png,2,0.059078,19,female,2020-11-09_20h09.40.227,torte-q,2020.1.3,Win32,60,13200,,,,,,,,,,,,,,0,9,9,77,1,,,,,,,,,,,,,,,,,,,,,,,,,,
,,,,,,,,,,,,l,0.23376,Incorrect,,,,,,t4.png,t5.png,1,0.90025,19,female,2020-11-09_20h09.40.227,torte-q,2020.1.3,Win32,60,13200,,,,,,,,,,,,,,0,10,10,113,1,,,,,,,,,,,,,,,,,,,,,,,,,,
,,,,,,,,,,,,a,0.21986,Incorrect,,,,,,t4.png,t1.png,3,0.0000131,19,female,2020-11-09_20h09.40.227,torte-q,2020.1.3,Win32,60,13200,,,,,,,,,,,,,,0,11,11,48,1,,,,,,,,,,,,,,,,,,,,,,,,,,
,,,,,,,,,,,,l,0.271365,Correct!,,,,,,t3.png,t4.png,1,0.909,19,female,2020-11-09_20h09.40.227,torte-q,2020.1.3,Win32,60,13200,,,,,,,,,,,,,,0,12,12,82,1,,,,,,,,,,,,,,,,,,,,,,,,,,
,,,,,,,,,,,,a,0.086965,Incorrect,,,,,,t4.png,t1.png,3,0.0000131,19,female,2020-11-09_20h09.40.227,torte-q,2020.1.3,Win32,60,13200,,,,,,,,,,,,,,0,13,13,13,1,,,,,,,,,,,,,,,,,,,,,,,,,,
,,,,,,,,,,,,a,0.534165,Incorrect,,,,,,t5.png,t1.png,4,9.55E-11,19,female,2020-11-09_20h09.40.227,torte-q,2020.1.3,Win32,60,13200,,,,,,,,,,,,,,0,14,14,43,1,,,,,,,,,,,,,,,,,,,,,,,,,,
,,,,,,,,,,,,a,0.460015,Incorrect,,,,,,t3.png,t1.png,2,0.056466,19,female,2020-11-09_20h09.40.227,torte-q,2020.1.3,Win32,60,13200,,,,,,,,,,,,,,0,15,15,0,1,,,,,,,,,,,,,,,,,,,,,,,,,,
,,,,,,,,,,,,l,0.23412,Correct!,,,,,,t1.png,t3.png,2,0.056466,19,female,2020-11-09_20h09.40.227,torte-q,2020.1.3,Win32,60,13200,,,,,,,,,,,,,,0,16,16,60,1,,,,,,,,,,,,,,,,,,,,,,,,,,
,,,,,,,,,,,,a,0.167735,Incorrect,,,,,,t2.png,t5.png,3,0.0000131,19,female,2020-11-09_20h09.40.227,torte-q,2020.1.3,Win32,60,13200,,,,,,,,,,,,,,0,17,17,8,1,,,,,,,,,,,,,,,,,,,,,,,,,,
,,,,,,,,,,,,l,0.23909,Correct!,,,,,,t3.png,t5.png,2,0.0565,19,female,2020-11-09_20h09.40.227,torte-q,2020.1.3,Win32,60,13200,,,,,,,,,,,,,,0,18,18,83,1,,,,,,,,,,,,,,,,,,,,,,,,,,
,,,,,,,,,,,,a,0.067565,Incorrect,,,,,,t5.png,t2.png,3,0.0000131,19,female,2020-11-09_20h09.40.227,torte-q,2020.1.3,Win32,60,13200,,,,,,,,,,,,,,0,19,19,91,1,,,,,,,,,,,,,,,,,,,,,,,,,,
,,,,,,,,,,,,l,0.45943,Incorrect,,,,,,t4.png,t3.png,1,0.90855,19,female,2020-11-09_20h09.40.227,torte-q,2020.1.3,Win32,60,13200,,,,,,,,,,,,,,0,20,20,75,1,,,,,,,,,,,,,,,,,,,,,,,,,,
,,,,,,,,,,,,a,0.496885,Incorrect,,,,,,t5.png,t1.png,4,9.55E-11,19,female,2020-11-09_20h09.40.227,torte-q,2020.1.3,Win32,60,13200,,,,,,,,,,,,,,0,21,21,71,1,,,,,,,,,,,,,,,,,,,,,,,,,,
,,,,,,,,,,,,l,0.034555,Correct!,,,,,,t5.png,t3.png,2,0.056466,19,female,2020-11-09_20h09.40.227,torte-q,2020.1.3,Win32,60,13200,,,,,,,,,,,,,,0,22,22,56,1,,,,,,,,,,,,,,,,,,,,,,,,,,
,,,,,,,,,,,,a,0.200805,Correct!,,,,,,t1.png,t2.png,1,0.90025,19,female,2020-11-09_20h09.40.227,torte-q,2020.1.3,Win32,60,13200,,,,,,,,,,,,,,0,23,23,105,1,,,,,,,,,,,,,,,,,,,,,,,,,,
,,,,,,,,,,,,l,0.933395,Correct!,,,,,,t5.png,t3.png,2,0.056466,19,female,2020-11-09_20h09.40.227,torte-q,2020.1.3,Win32,60,13200,,,,,,,,,,,,,,0,24,24,114,1,,,,,,,,,,,,,,,,,,,,,,,,,,
,,,,,,,,,,,,a,0.135685,Incorrect,,,,,,t1.png,t4.png,3,0.0000131,19,female,2020-11-09_20h09.40.227,torte-q,2020.1.3,Win32,60,13200,,,,,,,,,,,,,,0,25,25,81,1,,,,,,,,,,,,,,,,,,,,,,,,,,
,,,,,,,,,,,,l,0.001025,Correct!,,,,,,t2.png,t5.png,3,0.0000131,19,female,2020-11-09_20h09.40.227,torte-q,2020.1.3,Win32,60,13200,,,,,,,,,,,,,,0,26,26,104,1,,,,,,,,,,,,,,,,,,,,,,,,,,
,,,,,,,,,,,,a,0.302585,Incorrect,,,,,,t3.png,t2.png,1,0.909,19,female,2020-11-09_20h09.40.227,torte-q,2020.1.3,Win32,60,13200,,,,,,,,,,,,,,0,27,27,23,1,,,,,,,,,,,,,,,,,,,,,,,,,,
,,,,,,,,,,,,l,0.24105,Correct!,,,,,,t1.png,t5.png,4,9.55E-11,19,female,2020-11-09_20h09.40.227,torte-q,2020.1.3,Win32,60,13200,,,,,,,,,,,,,,0,28,28,41,1,,,,,,,,,,,,,,,,,,,,,,,,,,
,,,,,,,,,,,,a,0.269005,Correct!,,,,,,t2.png,t1.png,1,0.90025,19,female,2020-11-09_20h09.40.227,torte-q,2020.1.3,Win32,60,13200,,,,,,,,,,,,,,0,29,29,4,1,,,,,,,,,,,,,,,,,,,,,,,,,,
,,,,,,,,,,,,l,0.268775,Incorrect,,,,,,t5.png,t4.png,1,0.90025,19,female,2020-11-09_20h09.40.227,torte-q,2020.1.3,Win32,60,13200,,,,,,,,,,,,,,0,30,30,27,1,,,,,,,,,,,,,,,,,,,,,,,,,,
,,,,,,,,,,,,l,0.517725,Incorrect,,,,,,t1.png,t1.png,0,0.978,19,female,2020-11-09_20h09.40.227,torte-q,2020.1.3,Win32,60,13200,,,,,,,,,,,,,,0,31,31,28,1,,,,,,,,,,,,,,,,,,,,,,,,,,
,,,,,,,,,,,,a,0.284355,Correct!,,,,,,t2.png,t1.png,1,0.9,19,female,2020-11-09_20h09.40.227,torte-q,2020.1.3,Win32,60,13200,,,,,,,,,,,,,,0,32,32,118,1,,,,,,,,,,,,,,,,,,,,,,,,,,
,,,,,,,,,,,,l,0.329935,Correct!,,,,,,t3.png,t1.png,2,0.0565,19,female,2020-11-09_20h09.40.227,torte-q,2020.1.3,Win32,60,13200,,,,,,,,,,,,,,0,33,33,31,1,,,,,,,,,,,,,,,,,,,,,,,,,,
,,,,,,,,,,,,a,0.53354,Incorrect,,,,,,t5.png,t1.png,4,9.55E-11,19,female,2020-11-09_20h09.40.227,torte-q,2020.1.3,Win32,60,13200,,,,,,,,,,,,,,0,34,34,102,1,,,,,,,,,,,,,,,,,,,,,,,,,,
,,,,,,,,,,,,l,0.302715,Correct!,,,,,,t2.png,t5.png,3,0.0000131,19,female,2020-11-09_20h09.40.227,torte-q,2020.1.3,Win32,60,13200,,,,,,,,,,,,,,0,35,35,66,1,,,,,,,,,,,,,,,,,,,,,,,,,,
,,,,,,,,,,,,a,0.450505,Incorrect,,,,,,t1.png,t4.png,3,0.0000131,19,female,2020-11-09_20h09.40.227,torte-q,2020.1.3,Win32,60,13200,,,,,,,,,,,,,,0,36,36,107,1,,,,,,,,,,,,,,,,,,,,,,,,,,
,,,,,,,,,,,,l,0.117115,Incorrect,,,,,,t4.png,t5.png,1,0.9,19,female,2020-11-09_20h09.40.227,torte-q,2020.1.3,Win32,60,13200,,,,,,,,,,,,,,0,37,37,115,1,,,,,,,,,,,,,,,,,,,,,,,,,,
,,,,,,,,,,,,a,0.293385,Incorrect,,,,,,t1.png,t3.png,2,0.056466,19,female,2020-11-09_20h09.40.227,torte-q,2020.1.3,Win32,60,13200,,,,,,,,,,,,,,0,38,38,69,1,,,,,,,,,,,,,,,,,,,,,,,,,,
,,,,,,,,,,,,l,0.056395,Incorrect,,,,,,t4.png,t3.png,1,0.909,19,female,2020-11-09_20h09.40.227,torte-q,2020.1.3,Win32,60,13200,,,,,,,,,,,,,,0,39,39,46,1,,,,,,,,,,,,,,,,,,,,,,,,,,
,,,,,,,,,,,,a,0.616985,Correct!,,,,,,t4.png,t4.png,0,0.98115,19,female,2020-11-09_20h09.40.227,torte-q,2020.1.3,Win32,60,13200,,,,,,,,,,,,,,0,40,40,52,1,,,,,,,,,,,,,,,,,,,,,,,,,,
,,,,,,,,,,,,a,0.593475,Incorrect,,,,,,t4.png,t1.png,3,0.0000131,19,female,2020-11-09_20h09.40.227,torte-q,2020.1.3,Win32,60,13200,,,,,,,,,,,,,,0,41,41,42,1,,,,,,,,,,,,,,,,,,,,,,,,,,
,,,,,,,,,,,,l,0.24402,Correct!,,,,,,t1.png,t5.png,4,9.55E-11,19,female,2020-11-09_20h09.40.227,torte-q,2020.1.3,Win32,60,13200,,,,,,,,,,,,,,0,42,42,16,1,,,,,,,,,,,,,,,,,,,,,,,,,,
,,,,,,,,,,,,l,0.46684,Incorrect,,,,,,t1.png,t1.png,0,0.978,19,female,2020-11-09_20h09.40.227,torte-q,2020.1.3,Win32,60,13200,,,,,,,,,,,,,,0,43,43,54,1,,,,,,,,,,,,,,,,,,,,,,,,,,
,,,,,,,,,,,,a,0.316925,Correct!,,,,,,t2.png,t2.png,0,0.98115,19,female,2020-11-09_20h09.40.227,torte-q,2020.1.3,Win32,60,13200,,,,,,,,,,,,,,0,44,44,7,1,,,,,,,,,,,,,,,,,,,,,,,,,,
,,,,,,,,,,,,a,0.03382,Correct!,,,,,,t1.png,t1.png,0,0.97829,19,female,2020-11-09_20h09.40.227,torte-q,2020.1.3,Win32,60,13200,,,,,,,,,,,,,,0,45,45,78,1,,,,,,,,,,,,,,,,,,,,,,,,,,
,,,,,,,,,,,,l,0.117675,Incorrect,,,,,,t5.png,t4.png,1,0.9,19,female,2020-11-09_20h09.40.227,torte-q,2020.1.3,Win32,60,13200,,,,,,,,,,,,,,0,46,46,49,1,,,,,,,,,,,,,,,,,,,,,,,,,,
,,,,,,,,,,,,a,0.558405,Correct!,,,,,,t5.png,t5.png,0,0.97829,19,female,2020-11-09_20h09.40.227,torte-q,2020.1.3,Win32,60,13200,,,,,,,,,,,,,,0,47,47,73,1,,,,,,,,,,,,,,,,,,,,,,,,,,
,,,,,,,,,,,,l,0.269315,Correct!,,,,,,t5.png,t1.png,4,9.55E-11,19,female,2020-11-09_20h09.40.227,torte-q,2020.1.3,Win32,60,13200,,,,,,,,,,,,,,0,48,48,100,1,,,,,,,,,,,,,,,,,,,,,,,,,,
,,,,,,,,,,,,a,0.034885,Incorrect,,,,,,t4.png,t1.png,3,0.0000131,19,female,2020-11-09_20h09.40.227,torte-q,2020.1.3,Win32,60,13200,,,,,,,,,,,,,,0,49,49,93,1,,,,,,,,,,,,,,,,,,,,,,,,,,
,,,,,,,,,,,,l,0.07614,Correct!,,,,,,t4.png,t2.png,2,0.059078,19,female,2020-11-09_20h09.40.227,torte-q,2020.1.3,Win32,60,13200,,,,,,,,,,,,,,0,50,50,109,1,,,,,,,,,,,,,,,,,,,,,,,,,,
,,,,,,,,,,,,a,0.023505,Incorrect,,,,,,t5.png,t1.png,4,9.55E-11,19,female,2020-11-09_20h09.40.227,torte-q,2020.1.3,Win32,60,13200,,,,,,,,,,,,,,0,51,51,22,1,,,,,,,,,,,,,,,,,,,,,,,,,,
,,,,,,,,,,,,a,0.52133,Correct!,,,,,,t4.png,t4.png,0,0.98115,19,female,2020-11-09_20h09.40.227,torte-q,2020.1.3,Win32,60,13200,,,,,,,,,,,,,,0,52,52,21,1,,,,,,,,,,,,,,,,,,,,,,,,,,
,,,,,,,,,,,,l,0.209045,Correct!,,,,,,t5.png,t4.png,1,0.90025,19,female,2020-11-09_20h09.40.227,torte-q,2020.1.3,Win32,60,13200,,,,,,,,,,,,,,0,53,53,34,1,,,,,,,,,,,,,,,,,,,,,,,,,,
,,,,,,,,,,,,a,0.27516,Incorrect,,,,,,t5.png,t3.png,2,0.056466,19,female,2020-11-09_20h09.40.227,torte-q,2020.1.3,Win32,60,13200,,,,,,,,,,,,,,0,54,54,108,1,,,,,,,,,,,,,,,,,,,,,,,,,,
,,,,,,,,,,,,l,0.160545,Incorrect,,,,,,t2.png,t3.png,1,0.90855,19,female,2020-11-09_20h09.40.227,torte-q,2020.1.3,Win32,60,13200,,,,,,,,,,,,,,0,55,55,10,1,,,,,,,,,,,,,,,,,,,,,,,,,,
,,,,,,,,,,,,a,0.084585,Incorrect,,,,,,t3.png,t5.png,2,0.0565,19,female,2020-11-09_20h09.40.227,torte-q,2020.1.3,Win32,60,13200,,,,,,,,,,,,,,0,56,56,30,1,,,,,,,,,,,,,,,,,,,,,,,,,,
,,,,,,,,,,,,l,0.187905,Incorrect,,,,,,t5.png,t4.png,1,0.90025,19,female,2020-11-09_20h09.40.227,torte-q,2020.1.3,Win32,60,13200,,,,,,,,,,,,,,0,57,57,26,1,,,,,,,,,,,,,,,,,,,,,,,,,,
,,,,,,,,,,,,a,0.1953,Correct!,,,,,,t3.png,t2.png,1,0.90855,19,female,2020-11-09_20h09.40.227,torte-q,2020.1.3,Win32,60,13200,,,,,,,,,,,,,,0,58,58,18,1,,,,,,,,,,,,,,,,,,,,,,,,,,
,,,,,,,,,,,,l,0.21733,Correct!,,,,,,t3.png,t1.png,2,0.056466,19,female,2020-11-09_20h09.40.227,torte-q,2020.1.3,Win32,60,13200,,,,,,,,,,,,,,0,59,59,64,1,,,,,,,,,,,,,,,,,,,,,,,,,,
,,,,,,,,,,,,a,0.078005,Incorrect,,,,,,t1.png,t4.png,3,0.0000131,19,female,2020-11-09_20h09.40.227,torte-q,2020.1.3,Win32,60,13200,,,,,,,,,,,,,,0,60,60,50,1,,,,,,,,,,,,,,,,,,,,,,,,,,
,,,,,,,,,,,,l,0.134135,Correct!,,,,,,t1.png,t5.png,4,9.55E-11,19,female,2020-11-09_20h09.40.227,torte-q,2020.1.3,Win32,60,13200,,,,,,,,,,,,,,0,61,61,12,1,,,,,,,,,,,,,,,,,,,,,,,,,,
,,,,,,,,,,,,a,0.254695,Incorrect,,,,,,t3.png,t1.png,2,0.056466,19,female,2020-11-09_20h09.40.227,torte-q,2020.1.3,Win32,60,13200,,,,,,,,,,,,,,0,62,62,29,1,,,,,,,,,,,,,,,,,,,,,,,,,,
,,,,,,,,,,,,l,0.03222,Incorrect,,,,,,t4.png,t3.png,1,0.90855,19,female,2020-11-09_20h09.40.227,torte-q,2020.1.3,Win32,60,13200,,,,,,,,,,,,,,0,63,63,45,1,,,,,,,,,,,,,,,,,,,,,,,,,,
,,,,,,,,,,,,a,0.201045,Incorrect,,,,,,t4.png,t2.png,2,0.059078,19,female,2020-11-09_20h09.40.227,torte-q,2020.1.3,Win32,60,13200,,,,,,,,,,,,,,0,64,64,88,1,,,,,,,,,,,,,,,,,,,,,,,,,,
,,,,,,,,,,,,l,0.192805,Incorrect,,,,,,t2.png,t3.png,1,0.90855,19,female,2020-11-09_20h09.40.227,torte-q,2020.1.3,Win32,60,13200,,,,,,,,,,,,,,0,65,65,68,1,,,,,,,,,,,,,,,,,,,,,,,,,,
,,,,,,,,,,,,a,0.28802,Correct!,,,,,,t4.png,t3.png,1,0.90855,19,female,2020-11-09_20h09.40.227,torte-q,2020.1.3,Win32,60,13200,,,,,,,,,,,,,,0,66,66,35,1,,,,,,,,,,,,,,,,,,,,,,,,,,
,,,,,,,,,,,,l,0.30036,Incorrect,,,,,,t2.png,t2.png,0,0.98115,19,female,2020-11-09_20h09.40.227,torte-q,2020.1.3,Win32,60,13200,,,,,,,,,,,,,,0,67,67,2,1,,,,,,,,,,,,,,,,,,,,,,,,,,
,,,,,,,,,,,,a,0.088785,Correct!,,,,,,t3.png,t4.png,1,0.90855,19,female,2020-11-09_20h09.40.227,torte-q,2020.1.3,Win32,60,13200,,,,,,,,,,,,,,0,68,68,84,1,,,,,,,,,,,,,,,,,,,,,,,,,,
,,,,,,,,,,,,l,0.31717,Correct!,,,,,,t1.png,t3.png,2,0.056466,19,female,2020-11-09_20h09.40.227,torte-q,2020.1.3,Win32,60,13200,,,,,,,,,,,,,,0,69,69,87,1,,,,,,,,,,,,,,,,,,,,,,,,,,
,,,,,,,,,,,,a,0.318085,Correct!,,,,,,t1.png,t2.png,1,0.90025,19,female,2020-11-09_20h09.40.227,torte-q,2020.1.3,Win32,60,13200,,,,,,,,,,,,,,0,70,70,112,1,,,,,,,,,,,,,,,,,,,,,,,,,,
,,,,,,,,,,,,a,0.58776,Correct!,,,,,,t2.png,t2.png,0,0.981,19,female,2020-11-09_20h09.40.227,torte-q,2020.1.3,Win32,60,13200,,,,,,,,,,,,,,0,71,71,101,1,,,,,,,,,,,,,,,,,,,,,,,,,,
,,,,,,,,,,,,l,0.116895,Incorrect,,,,,,t1.png,t2.png,1,0.90025,19,female,2020-11-09_20h09.40.227,torte-q,2020.1.3,Win32,60,13200,,,,,,,,,,,,,,0,72,72,33,1,,,,,,,,,,,,,,,,,,,,,,,,,,
,,,,,,,,,,,,a,0.05029,Incorrect,,,,,,t3.png,t5.png,2,0.056466,19,female,2020-11-09_20h09.40.227,torte-q,2020.1.3,Win32,60,13200,,,,,,,,,,,,,,0,73,73,44,1,,,,,,,,,,,,,,,,,,,,,,,,,,
,,,,,,,,,,,,a,0.46689,Correct!,,,,,,t2.png,t1.png,1,0.90025,19,female,2020-11-09_20h09.40.227,torte-q,2020.1.3,Win32,60,13200,,,,,,,,,,,,,,0,74,74,19,1,,,,,,,,,,,,,,,,,,,,,,,,,,
,,,,,,,,,,,,a,0.3977,Incorrect,,,,,,t1.png,t3.png,2,0.056466,19,female,2020-11-09_20h09.40.227,torte-q,2020.1.3,Win32,60,13200,,,,,,,,,,,,,,0,75,75,63,1,,,,,,,,,,,,,,,,,,,,,,,,,,
,,,,,,,,,,,,a,0.018855,Incorrect,,,,,,t2.png,t4.png,2,0.0591,19,female,2020-11-09_20h09.40.227,torte-q,2020.1.3,Win32,60,13200,,,,,,,,,,,,,,0,76,76,15,1,,,,,,,,,,,,,,,,,,,,,,,,,,
,,,,,,,,,,,,l,0.050125,Incorrect,,,,,,t3.png,t2.png,1,0.909,19,female,2020-11-09_20h09.40.227,torte-q,2020.1.3,Win32,60,13200,,,,,,,,,,,,,,0,77,77,3,1,,,,,,,,,,,,,,,,,,,,,,,,,,
,,,,,,,,,,,,a,0.133735,Correct!,,,,,,t1.png,t1.png,0,0.97829,19,female,2020-11-09_20h09.40.227,torte-q,2020.1.3,Win32,60,13200,,,,,,,,,,,,,,0,78,78,9,1,,,,,,,,,,,,,,,,,,,,,,,,,,
,,,,,,,,,,,,l,0.023375,Correct!,,,,,,t2.png,t5.png,3,0.0000131,19,female,2020-11-09_20h09.40.227,torte-q,2020.1.3,Win32,60,13200,,,,,,,,,,,,,,0,79,79,95,1,,,,,,,,,,,,,,,,,,,,,,,,,,
,,,,,,,,,,,,a,0.02393,Incorrect,,,,,,t3.png,t1.png,2,0.056466,19,female,2020-11-09_20h09.40.227,torte-q,2020.1.3,Win32,60,13200,,,,,,,,,,,,,,0,80,80,32,1,,,,,,,,,,,,,,,,,,,,,,,,,,
,,,,,,,,,,,,l,0.001255,Correct!,,,,,,t2.png,t4.png,2,0.059078,19,female,2020-11-09_20h09.40.227,torte-q,2020.1.3,Win32,60,13200,,,,,,,,,,,,,,0,81,81,24,1,,,,,,,,,,,,,,,,,,,,,,,,,,
,,,,,,,,,,,,l,0.23937,Incorrect,,,,,,t3.png,t4.png,1,0.909,19,female,2020-11-09_20h09.40.227,torte-q,2020.1.3,Win32,60,13200,,,,,,,,,,,,,,0,82,82,89,1,,,,,,,,,,,,,,,,,,,,,,,,,,
,,,,,,,,,,,,l,0.173475,Incorrect,,,,,,t3.png,t4.png,1,0.90855,19,female,2020-11-09_20h09.40.227,torte-q,2020.1.3,Win32,60,13200,,,,,,,,,,,,,,0,83,83,96,1,,,,,,,,,,,,,,,,,,,,,,,,,,
,,,,,,,,,,,,a,0.05088,Incorrect,,,,,,t5.png,t2.png,3,0.0000131,19,female,2020-11-09_20h09.40.227,torte-q,2020.1.3,Win32,60,13200,,,,,,,,,,,,,,0,84,84,116,1,,,,,,,,,,,,,,,,,,,,,,,,,,
,,,,,,,,,,,,l,0.07546,Incorrect,,,,,,t5.png,t5.png,0,0.97829,19,female,2020-11-09_20h09.40.227,torte-q,2020.1.3,Win32,60,13200,,,,,,,,,,,,,,0,85,85,25,1,,,,,,,,,,,,,,,,,,,,,,,,,,
,,,,,,,,,,,,a,0.02241,Correct!,,,,,,t2.png,t3.png,1,0.90855,19,female,2020-11-09_20h09.40.227,torte-q,2020.1.3,Win32,60,13200,,,,,,,,,,,,,,0,86,86,111,1,,,,,,,,,,,,,,,,,,,,,,,,,,
,,,,,,,,,,,,l,0.25372,Incorrect,,,,,,t2.png,t3.png,1,0.909,19,female,2020-11-09_20h09.40.227,torte-q,2020.1.3,Win32,60,13200,,,,,,,,,,,,,,0,87,87,74,1,,,,,,,,,,,,,,,,,,,,,,,,,,
,,,,,,,,,,,,a,0.017505,Correct!,,,,,,t3.png,t2.png,1,0.90855,19,female,2020-11-09_20h09.40.227,torte-q,2020.1.3,Win32,60,13200,,,,,,,,,,,,,,0,88,88,53,1,,,,,,,,,,,,,,,,,,,,,,,,,,
,,,,,,,,,,,,l,0.092345,Correct!,,,,,,t1.png,t4.png,3,0.0000131,19,female,2020-11-09_20h09.40.227,torte-q,2020.1.3,Win32,60,13200,,,,,,,,,,,,,,0,89,89,17,1,,,,,,,,,,,,,,,,,,,,,,,,,,
,,,,,,,,,,,,a,0.06178,Incorrect,,,,,,t4.png,t4.png,0,0.98115,19,female,2020-11-09_20h09.40.227,torte-q,2020.1.3,Win32,60,13200,,,,,,,,,,,,,,0,90,90,90,1,,,,,,,,,,,,,,,,,,,,,,,,,,
,,,,,,,,,,,,l,0.09537,Correct!,,,,,,t4.png,t2.png,2,0.059078,19,female,2020-11-09_20h09.40.227,torte-q,2020.1.3,Win32,60,13200,,,,,,,,,,,,,,0,91,91,110,1,,,,,,,,,,,,,,,,,,,,,,,,,,
,,,,,,,,,,,,a,0.069015,Correct!,,,,,,t5.png,t4.png,1,0.9,19,female,2020-11-09_20h09.40.227,torte-q,2020.1.3,Win32,60,13200,,,,,,,,,,,,,,0,92,92,76,1,,,,,,,,,,,,,,,,,,,,,,,,,,
,,,,,,,,,,,,l,0.01696,Correct!,,,,,,t4.png,t1.png,3,0.0000131,19,female,2020-11-09_20h09.40.227,torte-q,2020.1.3,Win32,60,13200,,,,,,,,,,,,,,0,93,93,61,1,,,,,,,,,,,,,,,,,,,,,,,,,,
,,,,,,,,,,,,a,0.155415,Correct!,,,,,,t2.png,t3.png,1,0.90855,19,female,2020-11-09_20h09.40.227,torte-q,2020.1.3,Win32,60,13200,,,,,,,,,,,,,,0,94,94,65,1,,,,,,,,,,,,,,,,,,,,,,,,,,
,,,,,,,,,,,,l,0.01744,Incorrect,,,,,,t5.png,t5.png,0,0.978,19,female,2020-11-09_20h09.40.227,torte-q,2020.1.3,Win32,60,13200,,,,,,,,,,,,,,0,95,95,117,1,,,,,,,,,,,,,,,,,,,,,,,,,,
,,,,,,,,,,,,a,0.03438,Incorrect,,,,,,t1.png,t5.png,4,9.55E-11,19,female,2020-11-09_20h09.40.227,torte-q,2020.1.3,Win32,60,13200,,,,,,,,,,,,,,0,96,96,85,1,,,,,,,,,,,,,,,,,,,,,,,,,,
,,,,,,,,,,,,a,0.167635,Correct!,,,,,,t4.png,t3.png,1,0.909,19,female,2020-11-09_20h09.40.227,torte-q,2020.1.3,Win32,60,13200,,,,,,,,,,,,,,0,97,97,20,1,,,,,,,,,,,,,,,,,,,,,,,,,,
,,,,,,,,,,,,l,0.08476,Correct!,,,,,,t3.png,t5.png,2,0.056466,19,female,2020-11-09_20h09.40.227,torte-q,2020.1.3,Win32,60,13200,,,,,,,,,,,,,,0,98,98,14,1,,,,,,,,,,,,,,,,,,,,,,,,,,
,,,,,,,,,,,,l,0.25867,Incorrect,,,,,,t3.png,t5.png,2,0.056466,19,female,2020-11-09_20h09.40.227,torte-q,2020.1.3,Win32,60,13200,,,,,,,,,,,,,,0,99,99,6,1,,,,,,,,,,,,,,,,,,,,,,,,,,
,,,,,,,,,,,,a,0.051065,Correct!,,,,,,t2.png,t2.png,0,0.98115,19,female,2020-11-09_20h09.40.227,torte-q,2020.1.3,Win32,60,13200,,,,,,,,,,,,,,0,100,100,59,1,,,,,,,,,,,,,,,,,,,,,,,,,,
,,,,,,,,,,,,l,0.170905,Correct!,,,,,,t5.png,t2.png,3,0.0000131,19,female,2020-11-09_20h09.40.227,torte-q,2020.1.3,Win32,60,13200,,,,,,,,,,,,,,0,101,101,119,1,,,,,,,,,,,,,,,,,,,,,,,,,,
,,,,,,,,,,,,l,0.284435,Correct!,,,,,,t4.png,t2.png,2,0.0591,19,female,2020-11-09_20h09.40.227,torte-q,2020.1.3,Win32,60,13200,,,,,,,,,,,,,,0,102,102,36,1,,,,,,,,,,,,,,,,,,,,,,,,,,
,,,,,,,,,,,,l,0.238965,Correct!,,,,,,t1.png,t5.png,4,9.55E-11,19,female,2020-11-09_20h09.40.227,torte-q,2020.1.3,Win32,60,13200,,,,,,,,,,,,,,0,103,103,55,1,,,,,,,,,,,,,,,,,,,,,,,,,,
,,,,,,,,,,,,l,0.50162,Incorrect,,,,,,t2.png,t2.png,0,0.98115,19,female,2020-11-09_20h09.40.227,torte-q,2020.1.3,Win32,60,13200,,,,,,,,,,,,,,0,104,104,57,1,,,,,,,,,,,,,,,,,,,,,,,,,,
,,,,,,,,,,,,l,0.58011,Incorrect,,,,,,t4.png,t5.png,1,0.90025,19,female,2020-11-09_20h09.40.227,torte-q,2020.1.3,Win32,60,13200,,,,,,,,,,,,,,0,105,105,47,1,,,,,,,,,,,,,,,,,,,,,,,,,,
,,,,,,,,,,,,l,0.121185,Correct!,,,,,,t5.png,t2.png,3,0.0000131,19,female,2020-11-09_20h09.40.227,torte-q,2020.1.3,Win32,60,13200,,,,,,,,,,,,,,0,106,106,51,1,,,,,,,,,,,,,,,,,,,,,,,,,,
,,,,,,,,,,,,l,0.48094,Incorrect,,,,,,t2.png,t1.png,1,0.90025,19,female,2020-11-09_20h09.40.227,torte-q,2020.1.3,Win32,60,13200,,,,,,,,,,,,,,0,107,107,5,1,,,,,,,,,,,,,,,,,,,,,,,,,,
,,,,,,,,,,,,l,0.69318,Correct!,,,,,,t2.png,t1.png,1,0.90025,19,female,2020-11-09_20h09.40.227,torte-q,2020.1.3,Win32,60,13200,,,,,,,,,,,,,,0,108,108,62,1,,,,,,,,,,,,,,,,,,,,,,,,,,
,,,,,,,,,,,,l,0.8042,Incorrect,,,,,,t1.png,t2.png,1,0.90025,19,female,2020-11-09_20h09.40.227,torte-q,2020.1.3,Win32,60,13200,,,,,,,,,,,,,,0,109,109,72,1,,,,,,,,,,,,,,,,,,,,,,,,,,
,,,,,,,,,,,,l,1.047225,Incorrect,,,,,,t5.png,t5.png,0,0.97829,19,female,2020-11-09_20h09.40.227,torte-q,2020.1.3,Win32,60,13200,,,,,,,,,,,,,,0,110,110,70,1,,,,,,,,,,,,,,,,,,,,,,,,,,
,,,,,,,,,,,,l,1.68869,Correct!,,,,,,t4.png,t2.png,2,0.059078,19,female,2020-11-09_20h09.40.227,torte-q,2020.1.3,Win32,60,13200,,,,,,,,,,,,,,0,111,111,86,1,,,,,,,,,,,,,,,,,,,,,,,,,,
,,,,,,,,,,,,,,Too slow :(,,,,,,t2.png,t4.png,2,0.059078,19,female,2020-11-09_20h09.40.227,torte-q,2020.1.3,Win32,60,13200,,,,,,,,,,,,,,0,112,112,11,1,,,,,,,,,,,,,,,,,,,,,,,,,,
,,,,,,,,,,,,,,Too slow :(,,,,,,t4.png,t5.png,1,0.90025,19,female,2020-11-09_20h09.40.227,torte-q,2020.1.3,Win32,60,13200,,,,,,,,,,,,,,0,113,113,58,1,,,,,,,,,,,,,,,,,,,,,,,,,,
,,,,,,,,,,,,a,0.43093,Incorrect,,,,,,t1.png,t3.png,2,0.056466,19,female,2020-11-09_20h09.40.227,torte-q,2020.1.3,Win32,60,13200,,,,,,,,,,,,,,0,114,114,99,1,,,,,,,,,,,,,,,,,,,,,,,,,,
,,,,,,,,,,,,a,0.282525,Correct!,,,,,,t1.png,t2.png,1,0.9,19,female,2020-11-09_20h09.40.227,torte-q,2020.1.3,Win32,60,13200,,,,,,,,,,,,,,0,115,115,1,1,,,,,,,,,,,,,,,,,,,,,,,,,,
,,,,,,,,,,,,a,0.72597,Correct!,,,,,,t1.png,t1.png,0,0.97829,19,female,2020-11-09_20h09.40.227,torte-q,2020.1.3,Win32,60,13200,,,,,,,,,,,,,,0,116,116,67,1,,,,,,,,,,,,,,,,,,,,,,,,,,
,,,,,,,,,,,,a,0.725945,Correct!,,,,,,t4.png,t4.png,0,0.98115,19,female,2020-11-09_20h09.40.227,torte-q,2020.1.3,Win32,60,13200,,,,,,,,,,,,,,0,117,117,80,1,,,,,,,,,,,,,,,,,,,,,,,,,,
,,,,,,,,,,,,a,0.872075,Incorrect,,,,,,t4.png,t5.png,1,0.90025,19,female,2020-11-09_20h09.40.227,torte-q,2020.1.3,Win32,60,13200,,,,,,,,,,,,,,0,118,118,103,1,,,,,,,,,,,,,,,,,,,,,,,,,,
,,,,,,,,,,,,a,0.65327,Correct!,,,,,,t4.png,t4.png,0,0.98115,19,female,2020-11-09_20h09.40.227,torte-q,2020.1.3,Win32,60,13200,,,,,,,,,,,,,,0,119,119,79,1,,,,,,,,,,,,,,,,,,,,,,,,,,
,,,,,,,,,,,,,,,,,,,,,,,,19,female,2020-11-09_20h09.40.227,torte-q,2020.1.3,Win32,60,13200,a,1.58103,,,,,,,,,,,,,,,,,4.984000092,5.02817,101.600013,-108.000008,1,0,0,s6,89.60001278,80.79999477,1,0,0,t1,166.4000139,-104.800008,1,0,0,proceed,space,0.048095,space,0.373345,space,0.26325
