key_resp_8.keys,key_resp_8.rt,key_resp_9.keys,key_resp_9.rt,key_resp_10.keys,key_resp_10.rt,key_resp_11.keys,key_resp_11.rt,key_resp_2.keys,key_resp_2.rt,key_resp_3.keys,key_resp_3.rt,key_resp.keys,key_resp.rt,Feedback,train.thisRepN,train.thisTrialN,train.thisN,train.thisIndex,train.ran,torta_sx,torta_dx,difference,probability,age,gender,date,expName,psychopyVersion,OS,frameRate,participant,key_resp_15.keys,key_resp_15.rt,key_resp_6.keys,key_resp_6.rt,test1.thisRepN,test1.thisTrialN,test1.thisN,test1.thisIndex,test1.ran,key_resp_16.keys,key_resp_16.rt,key_resp_7.keys,key_resp_7.rt,test2.thisRepN,test2.thisTrialN,test2.thisN,test2.thisIndex,test2.ran,rating.response,rating.rt,mouse.x,mouse.y,mouse.leftButton,mouse.midButton,mouse.rightButton,mouse.clicked_name,mouse_2.x,mouse_2.y,mouse_2.leftButton,mouse_2.midButton,mouse_2.rightButton,mouse_2.clicked_name,mouse_3.x,mouse_3.y,mouse_3.leftButton,mouse_3.midButton,mouse_3.rightButton,mouse_3.clicked_name,key_resp_12.keys,key_resp_12.rt,key_resp_13.keys,key_resp_13.rt,key_resp_14.keys,key_resp_14.rt
space,0.94056,space,6.93734,space,2.523475,space,1.837165,space,13.482045,space,26.884925,a,1.293085,Incorrect,0,0,0,111,1,t5.png,t1.png,4,9.55E-11,19,male,2020-11-18_17h04.42.564,torte-q,2020.1.3,Win32,60,13202,,,,,,,,,,,,,,,,,,,,,,,,,,,,,,,,,,,,,,,,,,,,
,,,,,,,,,,,,l,1.31332,Incorrect,0,1,1,96,1,t1.png,t1.png,0,0.97829,19,male,2020-11-18_17h04.42.564,torte-q,2020.1.3,Win32,60,13202,,,,,,,,,,,,,,,,,,,,,,,,,,,,,,,,,,,,,,,,,,,,
,,,,,,,,,,,,l,2.423745,Incorrect,0,2,2,49,1,t4.png,t5.png,1,0.9,19,male,2020-11-18_17h04.42.564,torte-q,2020.1.3,Win32,60,13202,,,,,,,,,,,,,,,,,,,,,,,,,,,,,,,,,,,,,,,,,,,,
,,,,,,,,,,,,a,1.476695,Incorrect,0,3,3,56,1,t5.png,t1.png,4,9.55E-11,19,male,2020-11-18_17h04.42.564,torte-q,2020.1.3,Win32,60,13202,,,,,,,,,,,,,,,,,,,,,,,,,,,,,,,,,,,,,,,,,,,,
,,,,,,,,,,,,l,2.18286,Correct!,0,4,4,67,1,t1.png,t5.png,4,9.55E-11,19,male,2020-11-18_17h04.42.564,torte-q,2020.1.3,Win32,60,13202,,,,,,,,,,,,,,,,,,,,,,,,,,,,,,,,,,,,,,,,,,,,
,,,,,,,,,,,,l,1.805315,Incorrect,0,5,5,9,1,t4.png,t5.png,1,0.9,19,male,2020-11-18_17h04.42.564,torte-q,2020.1.3,Win32,60,13202,,,,,,,,,,,,,,,,,,,,,,,,,,,,,,,,,,,,,,,,,,,,
,,,,,,,,,,,,,,Too slow :(,0,6,6,34,1,t5.png,t4.png,1,0.9,19,male,2020-11-18_17h04.42.564,torte-q,2020.1.3,Win32,60,13202,,,,,,,,,,,,,,,,,,,,,,,,,,,,,,,,,,,,,,,,,,,,
,,,,,,,,,,,,a,1.78072,Incorrect,0,7,7,66,1,t4.png,t5.png,1,0.9,19,male,2020-11-18_17h04.42.564,torte-q,2020.1.3,Win32,60,13202,,,,,,,,,,,,,,,,,,,,,,,,,,,,,,,,,,,,,,,,,,,,
,,,,,,,,,,,,,,Too slow :(,0,8,8,79,1,t3.png,t2.png,1,0.909,19,male,2020-11-18_17h04.42.564,torte-q,2020.1.3,Win32,60,13202,,,,,,,,,,,,,,,,,,,,,,,,,,,,,,,,,,,,,,,,,,,,
,,,,,,,,,,,,l,1.571915,Correct!,0,9,9,17,1,t1.png,t4.png,3,0.0000131,19,male,2020-11-18_17h04.42.564,torte-q,2020.1.3,Win32,60,13202,,,,,,,,,,,,,,,,,,,,,,,,,,,,,,,,,,,,,,,,,,,,
,,,,,,,,,,,,l,1.114315,Incorrect,0,10,10,95,1,t1.png,t1.png,0,0.978,19,male,2020-11-18_17h04.42.564,torte-q,2020.1.3,Win32,60,13202,,,,,,,,,,,,,,,,,,,,,,,,,,,,,,,,,,,,,,,,,,,,
,,,,,,,,,,,,,,Too slow :(,0,11,11,89,1,t1.png,t4.png,3,0.0000131,19,male,2020-11-18_17h04.42.564,torte-q,2020.1.3,Win32,60,13202,,,,,,,,,,,,,,,,,,,,,,,,,,,,,,,,,,,,,,,,,,,,
,,,,,,,,,,,,l,1.270545,Incorrect,0,12,12,63,1,t2.png,t3.png,1,0.909,19,male,2020-11-18_17h04.42.564,torte-q,2020.1.3,Win32,60,13202,,,,,,,,,,,,,,,,,,,,,,,,,,,,,,,,,,,,,,,,,,,,
,,,,,,,,,,,,a,1.173645,Correct!,0,13,13,58,1,t5.png,t4.png,1,0.90025,19,male,2020-11-18_17h04.42.564,torte-q,2020.1.3,Win32,60,13202,,,,,,,,,,,,,,,,,,,,,,,,,,,,,,,,,,,,,,,,,,,,
,,,,,,,,,,,,,,Too slow :(,0,14,14,60,1,t2.png,t4.png,2,0.059078,19,male,2020-11-18_17h04.42.564,torte-q,2020.1.3,Win32,60,13202,,,,,,,,,,,,,,,,,,,,,,,,,,,,,,,,,,,,,,,,,,,,
,,,,,,,,,,,,l,1.096105,Correct!,0,15,15,109,1,t5.png,t5.png,0,0.97829,19,male,2020-11-18_17h04.42.564,torte-q,2020.1.3,Win32,60,13202,,,,,,,,,,,,,,,,,,,,,,,,,,,,,,,,,,,,,,,,,,,,
,,,,,,,,,,,,l,1.54752,Correct!,0,16,16,91,1,t1.png,t4.png,3,0.0000131,19,male,2020-11-18_17h04.42.564,torte-q,2020.1.3,Win32,60,13202,,,,,,,,,,,,,,,,,,,,,,,,,,,,,,,,,,,,,,,,,,,,
,,,,,,,,,,,,l,2.06742,Incorrect,0,17,17,92,1,t2.png,t3.png,1,0.909,19,male,2020-11-18_17h04.42.564,torte-q,2020.1.3,Win32,60,13202,,,,,,,,,,,,,,,,,,,,,,,,,,,,,,,,,,,,,,,,,,,,
,,,,,,,,,,,,l,1.972375,Correct!,0,18,18,86,1,t3.png,t1.png,2,0.056466,19,male,2020-11-18_17h04.42.564,torte-q,2020.1.3,Win32,60,13202,,,,,,,,,,,,,,,,,,,,,,,,,,,,,,,,,,,,,,,,,,,,
,,,,,,,,,,,,l,1.192455,Correct!,0,19,19,83,1,t3.png,t1.png,2,0.056466,19,male,2020-11-18_17h04.42.564,torte-q,2020.1.3,Win32,60,13202,,,,,,,,,,,,,,,,,,,,,,,,,,,,,,,,,,,,,,,,,,,,
,,,,,,,,,,,,l,2.10071,Correct!,0,20,20,46,1,t4.png,t2.png,2,0.059078,19,male,2020-11-18_17h04.42.564,torte-q,2020.1.3,Win32,60,13202,,,,,,,,,,,,,,,,,,,,,,,,,,,,,,,,,,,,,,,,,,,,
,,,,,,,,,,,,a,1.14676,Incorrect,0,21,21,93,1,t2.png,t4.png,2,0.059078,19,male,2020-11-18_17h04.42.564,torte-q,2020.1.3,Win32,60,13202,,,,,,,,,,,,,,,,,,,,,,,,,,,,,,,,,,,,,,,,,,,,
,,,,,,,,,,,,l,0.99187,Incorrect,0,22,22,15,1,t3.png,t2.png,1,0.90855,19,male,2020-11-18_17h04.42.564,torte-q,2020.1.3,Win32,60,13202,,,,,,,,,,,,,,,,,,,,,,,,,,,,,,,,,,,,,,,,,,,,
,,,,,,,,,,,,a,1.936785,Incorrect,0,23,23,117,1,t1.png,t5.png,4,9.55E-11,19,male,2020-11-18_17h04.42.564,torte-q,2020.1.3,Win32,60,13202,,,,,,,,,,,,,,,,,,,,,,,,,,,,,,,,,,,,,,,,,,,,
,,,,,,,,,,,,l,1.16312,Correct!,0,24,24,4,1,t1.png,t5.png,4,9.55E-11,19,male,2020-11-18_17h04.42.564,torte-q,2020.1.3,Win32,60,13202,,,,,,,,,,,,,,,,,,,,,,,,,,,,,,,,,,,,,,,,,,,,
,,,,,,,,,,,,,,Too slow :(,0,25,25,102,1,t4.png,t2.png,2,0.059078,19,male,2020-11-18_17h04.42.564,torte-q,2020.1.3,Win32,60,13202,,,,,,,,,,,,,,,,,,,,,,,,,,,,,,,,,,,,,,,,,,,,
,,,,,,,,,,,,a,0.515965,Correct!,0,26,26,16,1,t5.png,t4.png,1,0.9,19,male,2020-11-18_17h04.42.564,torte-q,2020.1.3,Win32,60,13202,,,,,,,,,,,,,,,,,,,,,,,,,,,,,,,,,,,,,,,,,,,,
,,,,,,,,,,,,l,1.049915,Incorrect,0,27,27,71,1,t5.png,t5.png,0,0.97829,19,male,2020-11-18_17h04.42.564,torte-q,2020.1.3,Win32,60,13202,,,,,,,,,,,,,,,,,,,,,,,,,,,,,,,,,,,,,,,,,,,,
,,,,,,,,,,,,l,2.20439,Correct!,0,28,28,98,1,t2.png,t4.png,2,0.0591,19,male,2020-11-18_17h04.42.564,torte-q,2020.1.3,Win32,60,13202,,,,,,,,,,,,,,,,,,,,,,,,,,,,,,,,,,,,,,,,,,,,
,,,,,,,,,,,,a,2.0938,Incorrect,0,29,29,54,1,t1.png,t5.png,4,9.55E-11,19,male,2020-11-18_17h04.42.564,torte-q,2020.1.3,Win32,60,13202,,,,,,,,,,,,,,,,,,,,,,,,,,,,,,,,,,,,,,,,,,,,
,,,,,,,,,,,,a,1.604395,Incorrect,0,30,30,100,1,t4.png,t5.png,1,0.90025,19,male,2020-11-18_17h04.42.564,torte-q,2020.1.3,Win32,60,13202,,,,,,,,,,,,,,,,,,,,,,,,,,,,,,,,,,,,,,,,,,,,
,,,,,,,,,,,,l,1.39063,Incorrect,0,31,31,48,1,t5.png,t5.png,0,0.97829,19,male,2020-11-18_17h04.42.564,torte-q,2020.1.3,Win32,60,13202,,,,,,,,,,,,,,,,,,,,,,,,,,,,,,,,,,,,,,,,,,,,
,,,,,,,,,,,,a,1.73058,Incorrect,0,32,32,72,1,t4.png,t2.png,2,0.059078,19,male,2020-11-18_17h04.42.564,torte-q,2020.1.3,Win32,60,13202,,,,,,,,,,,,,,,,,,,,,,,,,,,,,,,,,,,,,,,,,,,,
,,,,,,,,,,,,l,1.751425,Correct!,0,33,33,108,1,t5.png,t1.png,4,9.55E-11,19,male,2020-11-18_17h04.42.564,torte-q,2020.1.3,Win32,60,13202,,,,,,,,,,,,,,,,,,,,,,,,,,,,,,,,,,,,,,,,,,,,
,,,,,,,,,,,,l,1.439755,Incorrect,0,34,34,75,1,t1.png,t1.png,0,0.97829,19,male,2020-11-18_17h04.42.564,torte-q,2020.1.3,Win32,60,13202,,,,,,,,,,,,,,,,,,,,,,,,,,,,,,,,,,,,,,,,,,,,
,,,,,,,,,,,,a,0.90782,Correct!,0,35,35,116,1,t5.png,t4.png,1,0.90025,19,male,2020-11-18_17h04.42.564,torte-q,2020.1.3,Win32,60,13202,,,,,,,,,,,,,,,,,,,,,,,,,,,,,,,,,,,,,,,,,,,,
,,,,,,,,,,,,a,0.964795,Correct!,0,36,36,64,1,t1.png,t1.png,0,0.978,19,male,2020-11-18_17h04.42.564,torte-q,2020.1.3,Win32,60,13202,,,,,,,,,,,,,,,,,,,,,,,,,,,,,,,,,,,,,,,,,,,,
,,,,,,,,,,,,a,1.482725,Correct!,0,37,37,114,1,t2.png,t3.png,1,0.90855,19,male,2020-11-18_17h04.42.564,torte-q,2020.1.3,Win32,60,13202,,,,,,,,,,,,,,,,,,,,,,,,,,,,,,,,,,,,,,,,,,,,
,,,,,,,,,,,,l,1.559815,Incorrect,0,38,38,32,1,t4.png,t5.png,1,0.90025,19,male,2020-11-18_17h04.42.564,torte-q,2020.1.3,Win32,60,13202,,,,,,,,,,,,,,,,,,,,,,,,,,,,,,,,,,,,,,,,,,,,
,,,,,,,,,,,,a,1.14897,Correct!,0,39,39,62,1,t5.png,t5.png,0,0.978,19,male,2020-11-18_17h04.42.564,torte-q,2020.1.3,Win32,60,13202,,,,,,,,,,,,,,,,,,,,,,,,,,,,,,,,,,,,,,,,,,,,
,,,,,,,,,,,,l,1.97847,Incorrect,0,40,40,41,1,t3.png,t2.png,1,0.90855,19,male,2020-11-18_17h04.42.564,torte-q,2020.1.3,Win32,60,13202,,,,,,,,,,,,,,,,,,,,,,,,,,,,,,,,,,,,,,,,,,,,
,,,,,,,,,,,,l,2.29481,Correct!,0,41,41,90,1,t1.png,t5.png,4,9.55E-11,19,male,2020-11-18_17h04.42.564,torte-q,2020.1.3,Win32,60,13202,,,,,,,,,,,,,,,,,,,,,,,,,,,,,,,,,,,,,,,,,,,,
,,,,,,,,,,,,l,2.41301,Correct!,0,42,42,14,1,t2.png,t4.png,2,0.059078,19,male,2020-11-18_17h04.42.564,torte-q,2020.1.3,Win32,60,13202,,,,,,,,,,,,,,,,,,,,,,,,,,,,,,,,,,,,,,,,,,,,
,,,,,,,,,,,,a,0.998275,Incorrect,0,43,43,51,1,t3.png,t1.png,2,0.056466,19,male,2020-11-18_17h04.42.564,torte-q,2020.1.3,Win32,60,13202,,,,,,,,,,,,,,,,,,,,,,,,,,,,,,,,,,,,,,,,,,,,
,,,,,,,,,,,,l,2.12707,Incorrect,0,44,44,85,1,t3.png,t2.png,1,0.90855,19,male,2020-11-18_17h04.42.564,torte-q,2020.1.3,Win32,60,13202,,,,,,,,,,,,,,,,,,,,,,,,,,,,,,,,,,,,,,,,,,,,
,,,,,,,,,,,,a,1.02583,Correct!,0,45,45,10,1,t2.png,t3.png,1,0.90855,19,male,2020-11-18_17h04.42.564,torte-q,2020.1.3,Win32,60,13202,,,,,,,,,,,,,,,,,,,,,,,,,,,,,,,,,,,,,,,,,,,,
,,,,,,,,,,,,a,1.470295,Incorrect,0,46,46,47,1,t4.png,t2.png,2,0.059078,19,male,2020-11-18_17h04.42.564,torte-q,2020.1.3,Win32,60,13202,,,,,,,,,,,,,,,,,,,,,,,,,,,,,,,,,,,,,,,,,,,,
,,,,,,,,,,,,l,1.29662,Correct!,0,47,47,30,1,t3.png,t1.png,2,0.056466,19,male,2020-11-18_17h04.42.564,torte-q,2020.1.3,Win32,60,13202,,,,,,,,,,,,,,,,,,,,,,,,,,,,,,,,,,,,,,,,,,,,
,,,,,,,,,,,,l,1.30111,Correct!,0,48,48,11,1,t1.png,t4.png,3,0.0000131,19,male,2020-11-18_17h04.42.564,torte-q,2020.1.3,Win32,60,13202,,,,,,,,,,,,,,,,,,,,,,,,,,,,,,,,,,,,,,,,,,,,
,,,,,,,,,,,,l,1.256205,Correct!,0,49,49,103,1,t3.png,t1.png,2,0.056466,19,male,2020-11-18_17h04.42.564,torte-q,2020.1.3,Win32,60,13202,,,,,,,,,,,,,,,,,,,,,,,,,,,,,,,,,,,,,,,,,,,,
,,,,,,,,,,,,l,2.17984,Correct!,0,50,50,110,1,t4.png,t5.png,1,0.90025,19,male,2020-11-18_17h04.42.564,torte-q,2020.1.3,Win32,60,13202,,,,,,,,,,,,,,,,,,,,,,,,,,,,,,,,,,,,,,,,,,,,
,,,,,,,,,,,,l,1.220145,Correct!,0,51,51,35,1,t1.png,t4.png,3,0.0000131,19,male,2020-11-18_17h04.42.564,torte-q,2020.1.3,Win32,60,13202,,,,,,,,,,,,,,,,,,,,,,,,,,,,,,,,,,,,,,,,,,,,
,,,,,,,,,,,,l,1.58407,Incorrect,0,52,52,118,1,t5.png,t5.png,0,0.978,19,male,2020-11-18_17h04.42.564,torte-q,2020.1.3,Win32,60,13202,,,,,,,,,,,,,,,,,,,,,,,,,,,,,,,,,,,,,,,,,,,,
,,,,,,,,,,,,l,1.438615,Incorrect,0,53,53,101,1,t4.png,t5.png,1,0.90025,19,male,2020-11-18_17h04.42.564,torte-q,2020.1.3,Win32,60,13202,,,,,,,,,,,,,,,,,,,,,,,,,,,,,,,,,,,,,,,,,,,,
,,,,,,,,,,,,l,1.889645,Correct!,0,54,54,94,1,t5.png,t1.png,4,9.55E-11,19,male,2020-11-18_17h04.42.564,torte-q,2020.1.3,Win32,60,13202,,,,,,,,,,,,,,,,,,,,,,,,,,,,,,,,,,,,,,,,,,,,
,,,,,,,,,,,,a,1.64586,Correct!,0,55,55,23,1,t5.png,t4.png,1,0.90025,19,male,2020-11-18_17h04.42.564,torte-q,2020.1.3,Win32,60,13202,,,,,,,,,,,,,,,,,,,,,,,,,,,,,,,,,,,,,,,,,,,,
,,,,,,,,,,,,a,1.88726,Incorrect,0,56,56,19,1,t4.png,t2.png,2,0.059078,19,male,2020-11-18_17h04.42.564,torte-q,2020.1.3,Win32,60,13202,,,,,,,,,,,,,,,,,,,,,,,,,,,,,,,,,,,,,,,,,,,,
,,,,,,,,,,,,l,1.60285,Correct!,0,57,57,26,1,t4.png,t2.png,2,0.0591,19,male,2020-11-18_17h04.42.564,torte-q,2020.1.3,Win32,60,13202,,,,,,,,,,,,,,,,,,,,,,,,,,,,,,,,,,,,,,,,,,,,
,,,,,,,,,,,,l,1.571855,Incorrect,0,58,58,45,1,t3.png,t2.png,1,0.90855,19,male,2020-11-18_17h04.42.564,torte-q,2020.1.3,Win32,60,13202,,,,,,,,,,,,,,,,,,,,,,,,,,,,,,,,,,,,,,,,,,,,
,,,,,,,,,,,,a,0.831555,Correct!,0,59,59,76,1,t3.png,t2.png,1,0.90855,19,male,2020-11-18_17h04.42.564,torte-q,2020.1.3,Win32,60,13202,,,,,,,,,,,,,,,,,,,,,,,,,,,,,,,,,,,,,,,,,,,,
,,,,,,,,,,,,a,1.407785,Correct!,0,60,60,104,1,t2.png,t3.png,1,0.90855,19,male,2020-11-18_17h04.42.564,torte-q,2020.1.3,Win32,60,13202,,,,,,,,,,,,,,,,,,,,,,,,,,,,,,,,,,,,,,,,,,,,
,,,,,,,,,,,,l,1.75379,Correct!,0,61,61,55,1,t2.png,t4.png,2,0.059078,19,male,2020-11-18_17h04.42.564,torte-q,2020.1.3,Win32,60,13202,,,,,,,,,,,,,,,,,,,,,,,,,,,,,,,,,,,,,,,,,,,,
,,,,,,,,,,,,l,1.124015,Correct!,0,62,62,52,1,t2.png,t4.png,2,0.059078,19,male,2020-11-18_17h04.42.564,torte-q,2020.1.3,Win32,60,13202,,,,,,,,,,,,,,,,,,,,,,,,,,,,,,,,,,,,,,,,,,,,
,,,,,,,,,,,,a,2.02896,Correct!,0,63,63,113,1,t5.png,t4.png,1,0.9,19,male,2020-11-18_17h04.42.564,torte-q,2020.1.3,Win32,60,13202,,,,,,,,,,,,,,,,,,,,,,,,,,,,,,,,,,,,,,,,,,,,
,,,,,,,,,,,,a,1.45733,Incorrect,0,64,64,88,1,t3.png,t1.png,2,0.056466,19,male,2020-11-18_17h04.42.564,torte-q,2020.1.3,Win32,60,13202,,,,,,,,,,,,,,,,,,,,,,,,,,,,,,,,,,,,,,,,,,,,
,,,,,,,,,,,,l,1.39103,Correct!,0,65,65,6,1,t1.png,t4.png,3,0.0000131,19,male,2020-11-18_17h04.42.564,torte-q,2020.1.3,Win32,60,13202,,,,,,,,,,,,,,,,,,,,,,,,,,,,,,,,,,,,,,,,,,,,
,,,,,,,,,,,,l,2.211145,Correct!,0,66,66,31,1,t1.png,t5.png,4,9.55E-11,19,male,2020-11-18_17h04.42.564,torte-q,2020.1.3,Win32,60,13202,,,,,,,,,,,,,,,,,,,,,,,,,,,,,,,,,,,,,,,,,,,,
,,,,,,,,,,,,l,1.602855,Incorrect,0,67,67,20,1,t2.png,t3.png,1,0.90855,19,male,2020-11-18_17h04.42.564,torte-q,2020.1.3,Win32,60,13202,,,,,,,,,,,,,,,,,,,,,,,,,,,,,,,,,,,,,,,,,,,,
,,,,,,,,,,,,l,1.05008,Correct!,0,68,68,3,1,t1.png,t5.png,4,9.55E-11,19,male,2020-11-18_17h04.42.564,torte-q,2020.1.3,Win32,60,13202,,,,,,,,,,,,,,,,,,,,,,,,,,,,,,,,,,,,,,,,,,,,
,,,,,,,,,,,,a,1.053025,Incorrect,0,69,69,37,1,t1.png,t4.png,3,0.0000131,19,male,2020-11-18_17h04.42.564,torte-q,2020.1.3,Win32,60,13202,,,,,,,,,,,,,,,,,,,,,,,,,,,,,,,,,,,,,,,,,,,,
,,,,,,,,,,,,a,1.81178,Incorrect,0,70,70,73,1,t4.png,t2.png,2,0.059078,19,male,2020-11-18_17h04.42.564,torte-q,2020.1.3,Win32,60,13202,,,,,,,,,,,,,,,,,,,,,,,,,,,,,,,,,,,,,,,,,,,,
,,,,,,,,,,,,l,0.82699,Correct!,0,71,71,50,1,t5.png,t1.png,4,9.55E-11,19,male,2020-11-18_17h04.42.564,torte-q,2020.1.3,Win32,60,13202,,,,,,,,,,,,,,,,,,,,,,,,,,,,,,,,,,,,,,,,,,,,
,,,,,,,,,,,,l,1.65835,Incorrect,0,72,72,84,1,t1.png,t1.png,0,0.97829,19,male,2020-11-18_17h04.42.564,torte-q,2020.1.3,Win32,60,13202,,,,,,,,,,,,,,,,,,,,,,,,,,,,,,,,,,,,,,,,,,,,
,,,,,,,,,,,,l,1.452355,Incorrect,0,73,73,28,1,t2.png,t3.png,1,0.909,19,male,2020-11-18_17h04.42.564,torte-q,2020.1.3,Win32,60,13202,,,,,,,,,,,,,,,,,,,,,,,,,,,,,,,,,,,,,,,,,,,,
,,,,,,,,,,,,l,2.27256,Correct!,0,74,74,12,1,t5.png,t1.png,4,9.55E-11,19,male,2020-11-18_17h04.42.564,torte-q,2020.1.3,Win32,60,13202,,,,,,,,,,,,,,,,,,,,,,,,,,,,,,,,,,,,,,,,,,,,
,,,,,,,,,,,,a,1.11403,Incorrect,0,75,75,24,1,t4.png,t2.png,2,0.059078,19,male,2020-11-18_17h04.42.564,torte-q,2020.1.3,Win32,60,13202,,,,,,,,,,,,,,,,,,,,,,,,,,,,,,,,,,,,,,,,,,,,
,,,,,,,,,,,,a,1.51091,Correct!,0,76,76,2,1,t3.png,t2.png,1,0.90855,19,male,2020-11-18_17h04.42.564,torte-q,2020.1.3,Win32,60,13202,,,,,,,,,,,,,,,,,,,,,,,,,,,,,,,,,,,,,,,,,,,,
,,,,,,,,,,,,l,1.18552,Incorrect,0,77,77,25,1,t5.png,t5.png,0,0.97829,19,male,2020-11-18_17h04.42.564,torte-q,2020.1.3,Win32,60,13202,,,,,,,,,,,,,,,,,,,,,,,,,,,,,,,,,,,,,,,,,,,,
,,,,,,,,,,,,a,1.26214,Incorrect,0,78,78,82,1,t5.png,t1.png,4,9.55E-11,19,male,2020-11-18_17h04.42.564,torte-q,2020.1.3,Win32,60,13202,,,,,,,,,,,,,,,,,,,,,,,,,,,,,,,,,,,,,,,,,,,,
,,,,,,,,,,,,l,0.707055,Correct!,0,79,79,69,1,t4.png,t2.png,2,0.059078,19,male,2020-11-18_17h04.42.564,torte-q,2020.1.3,Win32,60,13202,,,,,,,,,,,,,,,,,,,,,,,,,,,,,,,,,,,,,,,,,,,,
,,,,,,,,,,,,,,Too slow :(,0,80,80,77,1,t1.png,t1.png,0,0.97829,19,male,2020-11-18_17h04.42.564,torte-q,2020.1.3,Win32,60,13202,,,,,,,,,,,,,,,,,,,,,,,,,,,,,,,,,,,,,,,,,,,,
,,,,,,,,,,,,a,0.912465,Correct!,0,81,81,44,1,t2.png,t3.png,1,0.909,19,male,2020-11-18_17h04.42.564,torte-q,2020.1.3,Win32,60,13202,,,,,,,,,,,,,,,,,,,,,,,,,,,,,,,,,,,,,,,,,,,,
,,,,,,,,,,,,l,1.349905,Incorrect,0,82,82,74,1,t5.png,t4.png,1,0.9,19,male,2020-11-18_17h04.42.564,torte-q,2020.1.3,Win32,60,13202,,,,,,,,,,,,,,,,,,,,,,,,,,,,,,,,,,,,,,,,,,,,
,,,,,,,,,,,,a,0.746575,Correct!,0,83,83,1,1,t2.png,t4.png,2,0.059078,19,male,2020-11-18_17h04.42.564,torte-q,2020.1.3,Win32,60,13202,,,,,,,,,,,,,,,,,,,,,,,,,,,,,,,,,,,,,,,,,,,,
,,,,,,,,,,,,l,1.17872,Correct!,0,84,84,87,1,t5.png,t1.png,4,9.55E-11,19,male,2020-11-18_17h04.42.564,torte-q,2020.1.3,Win32,60,13202,,,,,,,,,,,,,,,,,,,,,,,,,,,,,,,,,,,,,,,,,,,,
,,,,,,,,,,,,l,1.572295,Incorrect,0,85,85,97,1,t5.png,t5.png,0,0.97829,19,male,2020-11-18_17h04.42.564,torte-q,2020.1.3,Win32,60,13202,,,,,,,,,,,,,,,,,,,,,,,,,,,,,,,,,,,,,,,,,,,,
,,,,,,,,,,,,l,0.948115,Correct!,0,86,86,80,1,t1.png,t4.png,3,0.0000131,19,male,2020-11-18_17h04.42.564,torte-q,2020.1.3,Win32,60,13202,,,,,,,,,,,,,,,,,,,,,,,,,,,,,,,,,,,,,,,,,,,,
,,,,,,,,,,,,a,1.0498,Incorrect,0,87,87,68,1,t1.png,t4.png,3,0.0000131,19,male,2020-11-18_17h04.42.564,torte-q,2020.1.3,Win32,60,13202,,,,,,,,,,,,,,,,,,,,,,,,,,,,,,,,,,,,,,,,,,,,
,,,,,,,,,,,,l,1.044155,Incorrect,0,88,88,112,1,t1.png,t1.png,0,0.97829,19,male,2020-11-18_17h04.42.564,torte-q,2020.1.3,Win32,60,13202,,,,,,,,,,,,,,,,,,,,,,,,,,,,,,,,,,,,,,,,,,,,
,,,,,,,,,,,,a,0.62506,Correct!,0,89,89,81,1,t1.png,t1.png,0,0.97829,19,male,2020-11-18_17h04.42.564,torte-q,2020.1.3,Win32,60,13202,,,,,,,,,,,,,,,,,,,,,,,,,,,,,,,,,,,,,,,,,,,,
,,,,,,,,,,,,l,0.90508,Correct!,0,90,90,36,1,t3.png,t1.png,2,0.0565,19,male,2020-11-18_17h04.42.564,torte-q,2020.1.3,Win32,60,13202,,,,,,,,,,,,,,,,,,,,,,,,,,,,,,,,,,,,,,,,,,,,
,,,,,,,,,,,,a,1.043595,Incorrect,0,91,91,61,1,t1.png,t4.png,3,0.0000131,19,male,2020-11-18_17h04.42.564,torte-q,2020.1.3,Win32,60,13202,,,,,,,,,,,,,,,,,,,,,,,,,,,,,,,,,,,,,,,,,,,,
,,,,,,,,,,,,l,0.682965,Incorrect,0,92,92,42,1,t5.png,t4.png,1,0.90025,19,male,2020-11-18_17h04.42.564,torte-q,2020.1.3,Win32,60,13202,,,,,,,,,,,,,,,,,,,,,,,,,,,,,,,,,,,,,,,,,,,,
,,,,,,,,,,,,l,0.923615,Correct!,0,93,93,106,1,t2.png,t3.png,1,0.90855,19,male,2020-11-18_17h04.42.564,torte-q,2020.1.3,Win32,60,13202,,,,,,,,,,,,,,,,,,,,,,,,,,,,,,,,,,,,,,,,,,,,
,,,,,,,,,,,,a,0.814415,Incorrect,0,94,94,27,1,t3.png,t1.png,2,0.0565,19,male,2020-11-18_17h04.42.564,torte-q,2020.1.3,Win32,60,13202,,,,,,,,,,,,,,,,,,,,,,,,,,,,,,,,,,,,,,,,,,,,
,,,,,,,,,,,,l,0.934475,Correct!,0,95,95,119,1,t1.png,t5.png,4,9.55E-11,19,male,2020-11-18_17h04.42.564,torte-q,2020.1.3,Win32,60,13202,,,,,,,,,,,,,,,,,,,,,,,,,,,,,,,,,,,,,,,,,,,,
,,,,,,,,,,,,l,1.44432,Incorrect,0,96,96,8,1,t3.png,t2.png,1,0.90855,19,male,2020-11-18_17h04.42.564,torte-q,2020.1.3,Win32,60,13202,,,,,,,,,,,,,,,,,,,,,,,,,,,,,,,,,,,,,,,,,,,,
,,,,,,,,,,,,a,0.67337,Incorrect,0,97,97,5,1,t2.png,t4.png,2,0.059078,19,male,2020-11-18_17h04.42.564,torte-q,2020.1.3,Win32,60,13202,,,,,,,,,,,,,,,,,,,,,,,,,,,,,,,,,,,,,,,,,,,,
,,,,,,,,,,,,l,1.459615,Incorrect,0,98,98,65,1,t4.png,t5.png,1,0.90025,19,male,2020-11-18_17h04.42.564,torte-q,2020.1.3,Win32,60,13202,,,,,,,,,,,,,,,,,,,,,,,,,,,,,,,,,,,,,,,,,,,,
,,,,,,,,,,,,l,1.58654,Correct!,0,99,99,53,1,t3.png,t1.png,2,0.056466,19,male,2020-11-18_17h04.42.564,torte-q,2020.1.3,Win32,60,13202,,,,,,,,,,,,,,,,,,,,,,,,,,,,,,,,,,,,,,,,,,,,
,,,,,,,,,,,,a,1.196945,Incorrect,0,100,100,40,1,t1.png,t5.png,4,9.55E-11,19,male,2020-11-18_17h04.42.564,torte-q,2020.1.3,Win32,60,13202,,,,,,,,,,,,,,,,,,,,,,,,,,,,,,,,,,,,,,,,,,,,
,,,,,,,,,,,,l,1.19805,Correct!,0,101,101,99,1,t1.png,t5.png,4,9.55E-11,19,male,2020-11-18_17h04.42.564,torte-q,2020.1.3,Win32,60,13202,,,,,,,,,,,,,,,,,,,,,,,,,,,,,,,,,,,,,,,,,,,,
,,,,,,,,,,,,l,1.207685,Incorrect,0,102,102,29,1,t5.png,t5.png,0,0.97829,19,male,2020-11-18_17h04.42.564,torte-q,2020.1.3,Win32,60,13202,,,,,,,,,,,,,,,,,,,,,,,,,,,,,,,,,,,,,,,,,,,,
,,,,,,,,,,,,l,1.001285,Correct!,0,103,103,33,1,t5.png,t1.png,4,9.55E-11,19,male,2020-11-18_17h04.42.564,torte-q,2020.1.3,Win32,60,13202,,,,,,,,,,,,,,,,,,,,,,,,,,,,,,,,,,,,,,,,,,,,
,,,,,,,,,,,,a,0.63135,Correct!,0,104,104,13,1,t5.png,t5.png,0,0.97829,19,male,2020-11-18_17h04.42.564,torte-q,2020.1.3,Win32,60,13202,,,,,,,,,,,,,,,,,,,,,,,,,,,,,,,,,,,,,,,,,,,,
,,,,,,,,,,,,l,0.857185,Correct!,0,105,105,0,1,t5.png,t1.png,4,9.55E-11,19,male,2020-11-18_17h04.42.564,torte-q,2020.1.3,Win32,60,13202,,,,,,,,,,,,,,,,,,,,,,,,,,,,,,,,,,,,,,,,,,,,
,,,,,,,,,,,,a,1.021155,Correct!,0,106,106,70,1,t5.png,t5.png,0,0.978,19,male,2020-11-18_17h04.42.564,torte-q,2020.1.3,Win32,60,13202,,,,,,,,,,,,,,,,,,,,,,,,,,,,,,,,,,,,,,,,,,,,
,,,,,,,,,,,,a,1.54543,Correct!,0,107,107,39,1,t3.png,t2.png,1,0.90855,19,male,2020-11-18_17h04.42.564,torte-q,2020.1.3,Win32,60,13202,,,,,,,,,,,,,,,,,,,,,,,,,,,,,,,,,,,,,,,,,,,,
,,,,,,,,,,,,l,1.285115,Incorrect,0,108,108,7,1,t4.png,t5.png,1,0.90025,19,male,2020-11-18_17h04.42.564,torte-q,2020.1.3,Win32,60,13202,,,,,,,,,,,,,,,,,,,,,,,,,,,,,,,,,,,,,,,,,,,,
,,,,,,,,,,,,l,1.802535,Incorrect,0,109,109,78,1,t1.png,t1.png,0,0.978,19,male,2020-11-18_17h04.42.564,torte-q,2020.1.3,Win32,60,13202,,,,,,,,,,,,,,,,,,,,,,,,,,,,,,,,,,,,,,,,,,,,
,,,,,,,,,,,,a,0.667535,Correct!,0,110,110,107,1,t1.png,t1.png,0,0.978,19,male,2020-11-18_17h04.42.564,torte-q,2020.1.3,Win32,60,13202,,,,,,,,,,,,,,,,,,,,,,,,,,,,,,,,,,,,,,,,,,,,
,,,,,,,,,,,,l,2.119885,Correct!,0,111,111,57,1,t2.png,t4.png,2,0.059078,19,male,2020-11-18_17h04.42.564,torte-q,2020.1.3,Win32,60,13202,,,,,,,,,,,,,,,,,,,,,,,,,,,,,,,,,,,,,,,,,,,,
,,,,,,,,,,,,a,1.43375,Correct!,0,112,112,59,1,t5.png,t4.png,1,0.9,19,male,2020-11-18_17h04.42.564,torte-q,2020.1.3,Win32,60,13202,,,,,,,,,,,,,,,,,,,,,,,,,,,,,,,,,,,,,,,,,,,,
,,,,,,,,,,,,l,1.568915,Incorrect,0,113,113,21,1,t5.png,t4.png,1,0.90025,19,male,2020-11-18_17h04.42.564,torte-q,2020.1.3,Win32,60,13202,,,,,,,,,,,,,,,,,,,,,,,,,,,,,,,,,,,,,,,,,,,,
,,,,,,,,,,,,l,1.99048,Correct!,0,114,114,43,1,t4.png,t2.png,2,0.059078,19,male,2020-11-18_17h04.42.564,torte-q,2020.1.3,Win32,60,13202,,,,,,,,,,,,,,,,,,,,,,,,,,,,,,,,,,,,,,,,,,,,
,,,,,,,,,,,,l,1.426975,Correct!,0,115,115,115,1,t2.png,t4.png,2,0.059078,19,male,2020-11-18_17h04.42.564,torte-q,2020.1.3,Win32,60,13202,,,,,,,,,,,,,,,,,,,,,,,,,,,,,,,,,,,,,,,,,,,,
,,,,,,,,,,,,a,2.233345,Correct!,0,116,116,18,1,t4.png,t5.png,1,0.90025,19,male,2020-11-18_17h04.42.564,torte-q,2020.1.3,Win32,60,13202,,,,,,,,,,,,,,,,,,,,,,,,,,,,,,,,,,,,,,,,,,,,
,,,,,,,,,,,,l,1.48308,Incorrect,0,117,117,22,1,t2.png,t3.png,1,0.90855,19,male,2020-11-18_17h04.42.564,torte-q,2020.1.3,Win32,60,13202,,,,,,,,,,,,,,,,,,,,,,,,,,,,,,,,,,,,,,,,,,,,
,,,,,,,,,,,,a,0.71166,Correct!,0,118,118,105,1,t3.png,t2.png,1,0.90855,19,male,2020-11-18_17h04.42.564,torte-q,2020.1.3,Win32,60,13202,,,,,,,,,,,,,,,,,,,,,,,,,,,,,,,,,,,,,,,,,,,,
,,,,,,,,,,,,a,1.111025,Incorrect,0,119,119,38,1,t3.png,t1.png,2,0.056466,19,male,2020-11-18_17h04.42.564,torte-q,2020.1.3,Win32,60,13202,,,,,,,,,,,,,,,,,,,,,,,,,,,,,,,,,,,,,,,,,,,,
,,,,,,,,,,,,l,1.35318,Correct!,,,,,,t5.png,t2.png,3,0.0000131,19,male,2020-11-18_17h04.42.564,torte-q,2020.1.3,Win32,60,13202,space,2.384245,space,5.610705,0,0,0,119,1,,,,,,,,,,,,,,,,,,,,,,,,,,,,,,,,,,,
,,,,,,,,,,,,l,1.824745,Correct!,,,,,,t4.png,t1.png,3,0.0000131,19,male,2020-11-18_17h04.42.564,torte-q,2020.1.3,Win32,60,13202,,,,,0,1,1,61,1,,,,,,,,,,,,,,,,,,,,,,,,,,,,,,,,,,,
,,,,,,,,,,,,a,1.7841,Correct!,,,,,,t4.png,t3.png,1,0.90855,19,male,2020-11-18_17h04.42.564,torte-q,2020.1.3,Win32,60,13202,,,,,0,2,2,75,1,,,,,,,,,,,,,,,,,,,,,,,,,,,,,,,,,,,
,,,,,,,,,,,,a,1.584205,Correct!,,,,,,t4.png,t5.png,1,0.9,19,male,2020-11-18_17h04.42.564,torte-q,2020.1.3,Win32,60,13202,,,,,0,3,3,115,1,,,,,,,,,,,,,,,,,,,,,,,,,,,,,,,,,,,
,,,,,,,,,,,,l,1.341085,Correct!,,,,,,t5.png,t3.png,2,0.0565,19,male,2020-11-18_17h04.42.564,torte-q,2020.1.3,Win32,60,13202,,,,,0,4,4,39,1,,,,,,,,,,,,,,,,,,,,,,,,,,,,,,,,,,,
,,,,,,,,,,,,l,1.414275,Incorrect,,,,,,t3.png,t2.png,1,0.909,19,male,2020-11-18_17h04.42.564,torte-q,2020.1.3,Win32,60,13202,,,,,0,5,5,23,1,,,,,,,,,,,,,,,,,,,,,,,,,,,,,,,,,,,
,,,,,,,,,,,,l,1.433835,Incorrect,,,,,,t5.png,t5.png,0,0.97829,19,male,2020-11-18_17h04.42.564,torte-q,2020.1.3,Win32,60,13202,,,,,0,6,6,73,1,,,,,,,,,,,,,,,,,,,,,,,,,,,,,,,,,,,
,,,,,,,,,,,,a,1.943965,Incorrect,,,,,,t2.png,t4.png,2,0.059078,19,male,2020-11-18_17h04.42.564,torte-q,2020.1.3,Win32,60,13202,,,,,0,7,7,11,1,,,,,,,,,,,,,,,,,,,,,,,,,,,,,,,,,,,
,,,,,,,,,,,,l,1.37949,Incorrect,,,,,,t3.png,t2.png,1,0.90855,19,male,2020-11-18_17h04.42.564,torte-q,2020.1.3,Win32,60,13202,,,,,0,8,8,53,1,,,,,,,,,,,,,,,,,,,,,,,,,,,,,,,,,,,
,,,,,,,,,,,,l,1.4774,Correct!,,,,,,t5.png,t2.png,3,0.0000131,19,male,2020-11-18_17h04.42.564,torte-q,2020.1.3,Win32,60,13202,,,,,0,9,9,91,1,,,,,,,,,,,,,,,,,,,,,,,,,,,,,,,,,,,
,,,,,,,,,,,,l,1.659055,Incorrect,,,,,,t1.png,t1.png,0,0.978,19,male,2020-11-18_17h04.42.564,torte-q,2020.1.3,Win32,60,13202,,,,,0,10,10,54,1,,,,,,,,,,,,,,,,,,,,,,,,,,,,,,,,,,,
,,,,,,,,,,,,a,1.023485,Correct!,,,,,,t2.png,t2.png,0,0.98115,19,male,2020-11-18_17h04.42.564,torte-q,2020.1.3,Win32,60,13202,,,,,0,11,11,57,1,,,,,,,,,,,,,,,,,,,,,,,,,,,,,,,,,,,
,,,,,,,,,,,,l,1.35123,Incorrect,,,,,,t2.png,t3.png,1,0.90855,19,male,2020-11-18_17h04.42.564,torte-q,2020.1.3,Win32,60,13202,,,,,0,12,12,10,1,,,,,,,,,,,,,,,,,,,,,,,,,,,,,,,,,,,
,,,,,,,,,,,,a,1.25037,Correct!,,,,,,t3.png,t4.png,1,0.909,19,male,2020-11-18_17h04.42.564,torte-q,2020.1.3,Win32,60,13202,,,,,0,13,13,82,1,,,,,,,,,,,,,,,,,,,,,,,,,,,,,,,,,,,
,,,,,,,,,,,,l,1.750895,Correct!,,,,,,t5.png,t1.png,4,9.55E-11,19,male,2020-11-18_17h04.42.564,torte-q,2020.1.3,Win32,60,13202,,,,,0,14,14,71,1,,,,,,,,,,,,,,,,,,,,,,,,,,,,,,,,,,,
,,,,,,,,,,,,a,1.60949,Incorrect,,,,,,t5.png,t4.png,1,0.9,19,male,2020-11-18_17h04.42.564,torte-q,2020.1.3,Win32,60,13202,,,,,0,15,15,49,1,,,,,,,,,,,,,,,,,,,,,,,,,,,,,,,,,,,
,,,,,,,,,,,,a,1.872805,Correct!,,,,,,t4.png,t3.png,1,0.909,19,male,2020-11-18_17h04.42.564,torte-q,2020.1.3,Win32,60,13202,,,,,0,16,16,20,1,,,,,,,,,,,,,,,,,,,,,,,,,,,,,,,,,,,
,,,,,,,,,,,,l,1.757205,Incorrect,,,,,,t4.png,t2.png,2,0.059078,19,male,2020-11-18_17h04.42.564,torte-q,2020.1.3,Win32,60,13202,,,,,0,17,17,88,1,,,,,,,,,,,,,,,,,,,,,,,,,,,,,,,,,,,
,,,,,,,,,,,,a,1.278015,Incorrect,,,,,,t3.png,t5.png,2,0.056466,19,male,2020-11-18_17h04.42.564,torte-q,2020.1.3,Win32,60,13202,,,,,0,18,18,6,1,,,,,,,,,,,,,,,,,,,,,,,,,,,,,,,,,,,
,,,,,,,,,,,,l,1.393525,Incorrect,,,,,,t4.png,t4.png,0,0.98115,19,male,2020-11-18_17h04.42.564,torte-q,2020.1.3,Win32,60,13202,,,,,0,19,19,52,1,,,,,,,,,,,,,,,,,,,,,,,,,,,,,,,,,,,
,,,,,,,,,,,,a,1.40265,Incorrect,,,,,,t2.png,t4.png,2,0.059078,19,male,2020-11-18_17h04.42.564,torte-q,2020.1.3,Win32,60,13202,,,,,0,20,20,37,1,,,,,,,,,,,,,,,,,,,,,,,,,,,,,,,,,,,
,,,,,,,,,,,,l,1.226775,Incorrect,,,,,,t1.png,t3.png,2,0.056466,19,male,2020-11-18_17h04.42.564,torte-q,2020.1.3,Win32,60,13202,,,,,0,21,21,87,1,,,,,,,,,,,,,,,,,,,,,,,,,,,,,,,,,,,
,,,,,,,,,,,,l,1.32298,Incorrect,,,,,,t4.png,t4.png,0,0.98115,19,male,2020-11-18_17h04.42.564,torte-q,2020.1.3,Win32,60,13202,,,,,0,22,22,21,1,,,,,,,,,,,,,,,,,,,,,,,,,,,,,,,,,,,
,,,,,,,,,,,,l,1.377485,Correct!,,,,,,t1.png,t5.png,4,9.55E-11,19,male,2020-11-18_17h04.42.564,torte-q,2020.1.3,Win32,60,13202,,,,,0,23,23,85,1,,,,,,,,,,,,,,,,,,,,,,,,,,,,,,,,,,,
,,,,,,,,,,,,l,1.688135,Incorrect,,,,,,t1.png,t1.png,0,0.97829,19,male,2020-11-18_17h04.42.564,torte-q,2020.1.3,Win32,60,13202,,,,,0,24,24,9,1,,,,,,,,,,,,,,,,,,,,,,,,,,,,,,,,,,,
,,,,,,,,,,,,a,1.75387,Incorrect,,,,,,t5.png,t1.png,4,9.55E-11,19,male,2020-11-18_17h04.42.564,torte-q,2020.1.3,Win32,60,13202,,,,,0,25,25,22,1,,,,,,,,,,,,,,,,,,,,,,,,,,,,,,,,,,,
,,,,,,,,,,,,l,1.007455,Correct!,,,,,,t2.png,t5.png,3,0.0000131,19,male,2020-11-18_17h04.42.564,torte-q,2020.1.3,Win32,60,13202,,,,,0,26,26,104,1,,,,,,,,,,,,,,,,,,,,,,,,,,,,,,,,,,,
,,,,,,,,,,,,l,1.796235,Incorrect,,,,,,t5.png,t5.png,0,0.97829,19,male,2020-11-18_17h04.42.564,torte-q,2020.1.3,Win32,60,13202,,,,,0,27,27,94,1,,,,,,,,,,,,,,,,,,,,,,,,,,,,,,,,,,,
,,,,,,,,,,,,a,0.81687,Incorrect,,,,,,t1.png,t4.png,3,0.0000131,19,male,2020-11-18_17h04.42.564,torte-q,2020.1.3,Win32,60,13202,,,,,0,28,28,107,1,,,,,,,,,,,,,,,,,,,,,,,,,,,,,,,,,,,
,,,,,,,,,,,,l,0.85042,Incorrect,,,,,,t3.png,t1.png,2,0.056466,19,male,2020-11-18_17h04.42.564,torte-q,2020.1.3,Win32,60,13202,,,,,0,29,29,32,1,,,,,,,,,,,,,,,,,,,,,,,,,,,,,,,,,,,
,,,,,,,,,,,,a,1.35369,Correct!,,,,,,t3.png,t4.png,1,0.909,19,male,2020-11-18_17h04.42.564,torte-q,2020.1.3,Win32,60,13202,,,,,0,30,30,106,1,,,,,,,,,,,,,,,,,,,,,,,,,,,,,,,,,,,
,,,,,,,,,,,,l,1.1778,Incorrect,,,,,,t2.png,t3.png,1,0.909,19,male,2020-11-18_17h04.42.564,torte-q,2020.1.3,Win32,60,13202,,,,,0,31,31,74,1,,,,,,,,,,,,,,,,,,,,,,,,,,,,,,,,,,,
,,,,,,,,,,,,l,1.693085,Correct!,,,,,,t5.png,t3.png,2,0.056466,19,male,2020-11-18_17h04.42.564,torte-q,2020.1.3,Win32,60,13202,,,,,0,32,32,114,1,,,,,,,,,,,,,,,,,,,,,,,,,,,,,,,,,,,
,,,,,,,,,,,,l,2.215855,Correct!,,,,,,t1.png,t4.png,3,0.0000131,19,male,2020-11-18_17h04.42.564,torte-q,2020.1.3,Win32,60,13202,,,,,0,33,33,81,1,,,,,,,,,,,,,,,,,,,,,,,,,,,,,,,,,,,
,,,,,,,,,,,,a,0.601085,Correct!,,,,,,t3.png,t2.png,1,0.909,19,male,2020-11-18_17h04.42.564,torte-q,2020.1.3,Win32,60,13202,,,,,0,34,34,3,1,,,,,,,,,,,,,,,,,,,,,,,,,,,,,,,,,,,
,,,,,,,,,,,,l,1.55536,Correct!,,,,,,t1.png,t5.png,4,9.55E-11,19,male,2020-11-18_17h04.42.564,torte-q,2020.1.3,Win32,60,13202,,,,,0,35,35,41,1,,,,,,,,,,,,,,,,,,,,,,,,,,,,,,,,,,,
,,,,,,,,,,,,l,1.312485,Incorrect,,,,,,t5.png,t4.png,1,0.9,19,male,2020-11-18_17h04.42.564,torte-q,2020.1.3,Win32,60,13202,,,,,0,36,36,76,1,,,,,,,,,,,,,,,,,,,,,,,,,,,,,,,,,,,
,,,,,,,,,,,,a,0.57803,Correct!,,,,,,t4.png,t5.png,1,0.90025,19,male,2020-11-18_17h04.42.564,torte-q,2020.1.3,Win32,60,13202,,,,,0,37,37,47,1,,,,,,,,,,,,,,,,,,,,,,,,,,,,,,,,,,,
,,,,,,,,,,,,l,0.79554,Correct!,,,,,,t3.png,t5.png,2,0.056466,19,male,2020-11-18_17h04.42.564,torte-q,2020.1.3,Win32,60,13202,,,,,0,38,38,44,1,,,,,,,,,,,,,,,,,,,,,,,,,,,,,,,,,,,
,,,,,,,,,,,,a,1.790155,Incorrect,,,,,,t2.png,t3.png,1,0.90855,19,male,2020-11-18_17h04.42.564,torte-q,2020.1.3,Win32,60,13202,,,,,0,39,39,111,1,,,,,,,,,,,,,,,,,,,,,,,,,,,,,,,,,,,
,,,,,,,,,,,,l,1.353285,Correct!,,,,,,t5.png,t1.png,4,9.55E-11,19,male,2020-11-18_17h04.42.564,torte-q,2020.1.3,Win32,60,13202,,,,,0,40,40,43,1,,,,,,,,,,,,,,,,,,,,,,,,,,,,,,,,,,,
,,,,,,,,,,,,l,1.92838,Incorrect,,,,,,t4.png,t4.png,0,0.98115,19,male,2020-11-18_17h04.42.564,torte-q,2020.1.3,Win32,60,13202,,,,,0,41,41,80,1,,,,,,,,,,,,,,,,,,,,,,,,,,,,,,,,,,,
,,,,,,,,,,,,a,1.23832,Correct!,,,,,,t5.png,t3.png,2,0.056466,19,male,2020-11-18_17h04.42.564,torte-q,2020.1.3,Win32,60,13202,,,,,0,42,42,56,1,,,,,,,,,,,,,,,,,,,,,,,,,,,,,,,,,,,
,,,,,,,,,,,,a,0.8717,Incorrect,,,,,,t4.png,t2.png,2,0.059078,19,male,2020-11-18_17h04.42.564,torte-q,2020.1.3,Win32,60,13202,,,,,0,43,43,109,1,,,,,,,,,,,,,,,,,,,,,,,,,,,,,,,,,,,
,,,,,,,,,,,,l,1.118975,Correct!,,,,,,t5.png,t1.png,4,9.55E-11,19,male,2020-11-18_17h04.42.564,torte-q,2020.1.3,Win32,60,13202,,,,,0,44,44,102,1,,,,,,,,,,,,,,,,,,,,,,,,,,,,,,,,,,,
,,,,,,,,,,,,l,1.782245,Incorrect,,,,,,t5.png,t4.png,1,0.90025,19,male,2020-11-18_17h04.42.564,torte-q,2020.1.3,Win32,60,13202,,,,,0,45,45,26,1,,,,,,,,,,,,,,,,,,,,,,,,,,,,,,,,,,,
,,,,,,,,,,,,l,1.214135,Correct!,,,,,,t2.png,t5.png,3,0.0000131,19,male,2020-11-18_17h04.42.564,torte-q,2020.1.3,Win32,60,13202,,,,,0,46,46,95,1,,,,,,,,,,,,,,,,,,,,,,,,,,,,,,,,,,,
,,,,,,,,,,,,l,2.01225,Incorrect,,,,,,t4.png,t5.png,1,0.90025,19,male,2020-11-18_17h04.42.564,torte-q,2020.1.3,Win32,60,13202,,,,,0,47,47,58,1,,,,,,,,,,,,,,,,,,,,,,,,,,,,,,,,,,,
,,,,,,,,,,,,l,1.338055,Incorrect,,,,,,t1.png,t1.png,0,0.97829,19,male,2020-11-18_17h04.42.564,torte-q,2020.1.3,Win32,60,13202,,,,,0,48,48,78,1,,,,,,,,,,,,,,,,,,,,,,,,,,,,,,,,,,,
,,,,,,,,,,,,a,1.32322,Incorrect,,,,,,t1.png,t5.png,4,9.55E-11,19,male,2020-11-18_17h04.42.564,torte-q,2020.1.3,Win32,60,13202,,,,,0,49,49,12,1,,,,,,,,,,,,,,,,,,,,,,,,,,,,,,,,,,,
,,,,,,,,,,,,a,1.29331,Incorrect,,,,,,t3.png,t1.png,2,0.056466,19,male,2020-11-18_17h04.42.564,torte-q,2020.1.3,Win32,60,13202,,,,,0,50,50,29,1,,,,,,,,,,,,,,,,,,,,,,,,,,,,,,,,,,,
,,,,,,,,,,,,l,1.246105,Incorrect,,,,,,t4.png,t2.png,2,0.059078,19,male,2020-11-18_17h04.42.564,torte-q,2020.1.3,Win32,60,13202,,,,,0,51,51,110,1,,,,,,,,,,,,,,,,,,,,,,,,,,,,,,,,,,,
,,,,,,,,,,,,l,1.33914,Correct!,,,,,,t3.png,t1.png,2,0.0565,19,male,2020-11-18_17h04.42.564,torte-q,2020.1.3,Win32,60,13202,,,,,0,52,52,31,1,,,,,,,,,,,,,,,,,,,,,,,,,,,,,,,,,,,
,,,,,,,,,,,,a,1.189345,Incorrect,,,,,,t5.png,t2.png,3,0.0000131,19,male,2020-11-18_17h04.42.564,torte-q,2020.1.3,Win32,60,13202,,,,,0,53,53,98,1,,,,,,,,,,,,,,,,,,,,,,,,,,,,,,,,,,,
,,,,,,,,,,,,l,2.071025,Incorrect,,,,,,t5.png,t4.png,1,0.90025,19,male,2020-11-18_17h04.42.564,torte-q,2020.1.3,Win32,60,13202,,,,,0,54,54,34,1,,,,,,,,,,,,,,,,,,,,,,,,,,,,,,,,,,,
,,,,,,,,,,,,l,1.295745,Correct!,,,,,,t4.png,t1.png,3,0.0000131,19,male,2020-11-18_17h04.42.564,torte-q,2020.1.3,Win32,60,13202,,,,,0,55,55,13,1,,,,,,,,,,,,,,,,,,,,,,,,,,,,,,,,,,,
,,,,,,,,,,,,a,1.392675,Incorrect,,,,,,t2.png,t5.png,3,0.0000131,19,male,2020-11-18_17h04.42.564,torte-q,2020.1.3,Win32,60,13202,,,,,0,56,56,66,1,,,,,,,,,,,,,,,,,,,,,,,,,,,,,,,,,,,
,,,,,,,,,,,,l,0.759815,Incorrect,,,,,,t2.png,t2.png,0,0.981,19,male,2020-11-18_17h04.42.564,torte-q,2020.1.3,Win32,60,13202,,,,,0,57,57,101,1,,,,,,,,,,,,,,,,,,,,,,,,,,,,,,,,,,,
,,,,,,,,,,,,l,1.04557,Correct!,,,,,,t1.png,t3.png,2,0.056466,19,male,2020-11-18_17h04.42.564,torte-q,2020.1.3,Win32,60,13202,,,,,0,58,58,69,1,,,,,,,,,,,,,,,,,,,,,,,,,,,,,,,,,,,
,,,,,,,,,,,,l,1.323565,Incorrect,,,,,,t4.png,t4.png,0,0.98115,19,male,2020-11-18_17h04.42.564,torte-q,2020.1.3,Win32,60,13202,,,,,0,59,59,90,1,,,,,,,,,,,,,,,,,,,,,,,,,,,,,,,,,,,
,,,,,,,,,,,,l,1.78686,Correct!,,,,,,t1.png,t5.png,4,9.55E-11,19,male,2020-11-18_17h04.42.564,torte-q,2020.1.3,Win32,60,13202,,,,,0,60,60,16,1,,,,,,,,,,,,,,,,,,,,,,,,,,,,,,,,,,,
,,,,,,,,,,,,l,1.152985,Incorrect,,,,,,t2.png,t1.png,1,0.90025,19,male,2020-11-18_17h04.42.564,torte-q,2020.1.3,Win32,60,13202,,,,,0,61,61,19,1,,,,,,,,,,,,,,,,,,,,,,,,,,,,,,,,,,,
,,,,,,,,,,,,a,0.896105,Incorrect,,,,,,t1.png,t3.png,2,0.056466,19,male,2020-11-18_17h04.42.564,torte-q,2020.1.3,Win32,60,13202,,,,,0,62,62,60,1,,,,,,,,,,,,,,,,,,,,,,,,,,,,,,,,,,,
,,,,,,,,,,,,l,1.54134,Correct!,,,,,,t5.png,t2.png,3,0.0000131,19,male,2020-11-18_17h04.42.564,torte-q,2020.1.3,Win32,60,13202,,,,,0,63,63,51,1,,,,,,,,,,,,,,,,,,,,,,,,,,,,,,,,,,,
,,,,,,,,,,,,a,1.42898,Correct!,,,,,,t4.png,t3.png,1,0.90855,19,male,2020-11-18_17h04.42.564,torte-q,2020.1.3,Win32,60,13202,,,,,0,64,64,35,1,,,,,,,,,,,,,,,,,,,,,,,,,,,,,,,,,,,
,,,,,,,,,,,,a,0.916395,Incorrect,,,,,,t4.png,t2.png,2,0.0591,19,male,2020-11-18_17h04.42.564,torte-q,2020.1.3,Win32,60,13202,,,,,0,65,65,36,1,,,,,,,,,,,,,,,,,,,,,,,,,,,,,,,,,,,
,,,,,,,,,,,,l,0.81338,Incorrect,,,,,,t3.png,t4.png,1,0.90855,19,male,2020-11-18_17h04.42.564,torte-q,2020.1.3,Win32,60,13202,,,,,0,66,66,84,1,,,,,,,,,,,,,,,,,,,,,,,,,,,,,,,,,,,
,,,,,,,,,,,,l,1.36183,Incorrect,,,,,,t5.png,t5.png,0,0.97829,19,male,2020-11-18_17h04.42.564,torte-q,2020.1.3,Win32,60,13202,,,,,0,67,67,70,1,,,,,,,,,,,,,,,,,,,,,,,,,,,,,,,,,,,
,,,,,,,,,,,,a,1.03992,Correct!,,,,,,t5.png,t3.png,2,0.056466,19,male,2020-11-18_17h04.42.564,torte-q,2020.1.3,Win32,60,13202,,,,,0,68,68,108,1,,,,,,,,,,,,,,,,,,,,,,,,,,,,,,,,,,,
,,,,,,,,,,,,l,0.84349,Incorrect,,,,,,t1.png,t2.png,1,0.90025,19,male,2020-11-18_17h04.42.564,torte-q,2020.1.3,Win32,60,13202,,,,,0,69,69,72,1,,,,,,,,,,,,,,,,,,,,,,,,,,,,,,,,,,,
,,,,,,,,,,,,a,1.664255,Incorrect,,,,,,t3.png,t5.png,2,0.056466,19,male,2020-11-18_17h04.42.564,torte-q,2020.1.3,Win32,60,13202,,,,,0,70,70,14,1,,,,,,,,,,,,,,,,,,,,,,,,,,,,,,,,,,,
,,,,,,,,,,,,l,0.88601,Incorrect,,,,,,t2.png,t3.png,1,0.90855,19,male,2020-11-18_17h04.42.564,torte-q,2020.1.3,Win32,60,13202,,,,,0,71,71,65,1,,,,,,,,,,,,,,,,,,,,,,,,,,,,,,,,,,,
,,,,,,,,,,,,l,1.177335,Correct!,,,,,,t1.png,t5.png,4,9.55E-11,19,male,2020-11-18_17h04.42.564,torte-q,2020.1.3,Win32,60,13202,,,,,0,72,72,55,1,,,,,,,,,,,,,,,,,,,,,,,,,,,,,,,,,,,
,,,,,,,,,,,,l,1.20796,Correct!,,,,,,t5.png,t3.png,2,0.056466,19,male,2020-11-18_17h04.42.564,torte-q,2020.1.3,Win32,60,13202,,,,,0,73,73,38,1,,,,,,,,,,,,,,,,,,,,,,,,,,,,,,,,,,,
,,,,,,,,,,,,l,0.651265,Correct!,,,,,,t2.png,t5.png,3,0.0000131,19,male,2020-11-18_17h04.42.564,torte-q,2020.1.3,Win32,60,13202,,,,,0,74,74,8,1,,,,,,,,,,,,,,,,,,,,,,,,,,,,,,,,,,,
,,,,,,,,,,,,a,0.482845,Incorrect,,,,,,t4.png,t3.png,1,0.909,19,male,2020-11-18_17h04.42.564,torte-q,2020.1.3,Win32,60,13202,,,,,0,75,75,46,1,,,,,,,,,,,,,,,,,,,,,,,,,,,,,,,,,,,
,,,,,,,,,,,,l,0.885745,Correct!,,,,,,t4.png,t1.png,3,0.0000131,19,male,2020-11-18_17h04.42.564,torte-q,2020.1.3,Win32,60,13202,,,,,0,76,76,93,1,,,,,,,,,,,,,,,,,,,,,,,,,,,,,,,,,,,
,,,,,,,,,,,,l,1.0741,Incorrect,,,,,,t2.png,t2.png,0,0.98115,19,male,2020-11-18_17h04.42.564,torte-q,2020.1.3,Win32,60,13202,,,,,0,77,77,7,1,,,,,,,,,,,,,,,,,,,,,,,,,,,,,,,,,,,
,,,,,,,,,,,,a,0.98713,Correct!,,,,,,t1.png,t2.png,1,0.90025,19,male,2020-11-18_17h04.42.564,torte-q,2020.1.3,Win32,60,13202,,,,,0,78,78,112,1,,,,,,,,,,,,,,,,,,,,,,,,,,,,,,,,,,,
,,,,,,,,,,,,l,0.930455,Incorrect,,,,,,t2.png,t2.png,0,0.98115,19,male,2020-11-18_17h04.42.564,torte-q,2020.1.3,Win32,60,13202,,,,,0,79,79,59,1,,,,,,,,,,,,,,,,,,,,,,,,,,,,,,,,,,,
,,,,,,,,,,,,a,1.05592,Correct!,,,,,,t4.png,t5.png,1,0.90025,19,male,2020-11-18_17h04.42.564,torte-q,2020.1.3,Win32,60,13202,,,,,0,80,80,113,1,,,,,,,,,,,,,,,,,,,,,,,,,,,,,,,,,,,
,,,,,,,,,,,,l,0.619665,Correct!,,,,,,t3.png,t5.png,2,0.0565,19,male,2020-11-18_17h04.42.564,torte-q,2020.1.3,Win32,60,13202,,,,,0,81,81,83,1,,,,,,,,,,,,,,,,,,,,,,,,,,,,,,,,,,,
,,,,,,,,,,,,l,1.47254,Correct!,,,,,,t1.png,t3.png,2,0.056466,19,male,2020-11-18_17h04.42.564,torte-q,2020.1.3,Win32,60,13202,,,,,0,82,82,63,1,,,,,,,,,,,,,,,,,,,,,,,,,,,,,,,,,,,
,,,,,,,,,,,,l,1.992045,Incorrect,,,,,,t1.png,t2.png,1,0.9,19,male,2020-11-18_17h04.42.564,torte-q,2020.1.3,Win32,60,13202,,,,,0,83,83,1,1,,,,,,,,,,,,,,,,,,,,,,,,,,,,,,,,,,,
,,,,,,,,,,,,a,1.365785,Incorrect,,,,,,t3.png,t1.png,2,0.056466,19,male,2020-11-18_17h04.42.564,torte-q,2020.1.3,Win32,60,13202,,,,,0,84,84,0,1,,,,,,,,,,,,,,,,,,,,,,,,,,,,,,,,,,,
,,,,,,,,,,,,l,1.29666,Correct!,,,,,,t4.png,t1.png,3,0.0000131,19,male,2020-11-18_17h04.42.564,torte-q,2020.1.3,Win32,60,13202,,,,,0,85,85,48,1,,,,,,,,,,,,,,,,,,,,,,,,,,,,,,,,,,,
,,,,,,,,,,,,a,1.44722,Incorrect,,,,,,t1.png,t4.png,3,0.0000131,19,male,2020-11-18_17h04.42.564,torte-q,2020.1.3,Win32,60,13202,,,,,0,86,86,17,1,,,,,,,,,,,,,,,,,,,,,,,,,,,,,,,,,,,
,,,,,,,,,,,,l,1.01332,Incorrect,,,,,,t4.png,t5.png,1,0.90025,19,male,2020-11-18_17h04.42.564,torte-q,2020.1.3,Win32,60,13202,,,,,0,87,87,103,1,,,,,,,,,,,,,,,,,,,,,,,,,,,,,,,,,,,
,,,,,,,,,,,,l,1.137145,Correct!,,,,,,t3.png,t1.png,2,0.056466,19,male,2020-11-18_17h04.42.564,torte-q,2020.1.3,Win32,60,13202,,,,,0,88,88,64,1,,,,,,,,,,,,,,,,,,,,,,,,,,,,,,,,,,,
,,,,,,,,,,,,l,1.444295,Incorrect,,,,,,t5.png,t4.png,1,0.90025,19,male,2020-11-18_17h04.42.564,torte-q,2020.1.3,Win32,60,13202,,,,,0,89,89,27,1,,,,,,,,,,,,,,,,,,,,,,,,,,,,,,,,,,,
,,,,,,,,,,,,l,1.897445,Correct!,,,,,,t1.png,t4.png,3,0.0000131,19,male,2020-11-18_17h04.42.564,torte-q,2020.1.3,Win32,60,13202,,,,,0,90,90,50,1,,,,,,,,,,,,,,,,,,,,,,,,,,,,,,,,,,,
,,,,,,,,,,,,a,0.55167,Incorrect,,,,,,t4.png,t2.png,2,0.059078,19,male,2020-11-18_17h04.42.564,torte-q,2020.1.3,Win32,60,13202,,,,,0,91,91,86,1,,,,,,,,,,,,,,,,,,,,,,,,,,,,,,,,,,,
,,,,,,,,,,,,l,1.04172,Incorrect,,,,,,t1.png,t1.png,0,0.978,19,male,2020-11-18_17h04.42.564,torte-q,2020.1.3,Win32,60,13202,,,,,0,92,92,28,1,,,,,,,,,,,,,,,,,,,,,,,,,,,,,,,,,,,
,,,,,,,,,,,,a,1.852255,Correct!,,,,,,t4.png,t4.png,0,0.98115,19,male,2020-11-18_17h04.42.564,torte-q,2020.1.3,Win32,60,13202,,,,,0,93,93,79,1,,,,,,,,,,,,,,,,,,,,,,,,,,,,,,,,,,,
,,,,,,,,,,,,l,1.850825,Correct!,,,,,,t4.png,t1.png,3,0.0000131,19,male,2020-11-18_17h04.42.564,torte-q,2020.1.3,Win32,60,13202,,,,,0,94,94,42,1,,,,,,,,,,,,,,,,,,,,,,,,,,,,,,,,,,,
,,,,,,,,,,,,l,2.218155,Incorrect,,,,,,t1.png,t1.png,0,0.97829,19,male,2020-11-18_17h04.42.564,torte-q,2020.1.3,Win32,60,13202,,,,,0,95,95,67,1,,,,,,,,,,,,,,,,,,,,,,,,,,,,,,,,,,,
,,,,,,,,,,,,a,1.515265,Correct!,,,,,,t2.png,t1.png,1,0.90025,19,male,2020-11-18_17h04.42.564,torte-q,2020.1.3,Win32,60,13202,,,,,0,96,96,5,1,,,,,,,,,,,,,,,,,,,,,,,,,,,,,,,,,,,
,,,,,,,,,,,,l,1.031575,Correct!,,,,,,t1.png,t3.png,2,0.056466,19,male,2020-11-18_17h04.42.564,torte-q,2020.1.3,Win32,60,13202,,,,,0,97,97,99,1,,,,,,,,,,,,,,,,,,,,,,,,,,,,,,,,,,,
,,,,,,,,,,,,l,0.934705,Incorrect,,,,,,t3.png,t4.png,1,0.909,19,male,2020-11-18_17h04.42.564,torte-q,2020.1.3,Win32,60,13202,,,,,0,98,98,89,1,,,,,,,,,,,,,,,,,,,,,,,,,,,,,,,,,,,
,,,,,,,,,,,,l,0.83958,Incorrect,,,,,,t2.png,t1.png,1,0.90025,19,male,2020-11-18_17h04.42.564,torte-q,2020.1.3,Win32,60,13202,,,,,0,99,99,4,1,,,,,,,,,,,,,,,,,,,,,,,,,,,,,,,,,,,
,,,,,,,,,,,,a,0.56158,Correct!,,,,,,t2.png,t2.png,0,0.98115,19,male,2020-11-18_17h04.42.564,torte-q,2020.1.3,Win32,60,13202,,,,,0,100,100,2,1,,,,,,,,,,,,,,,,,,,,,,,,,,,,,,,,,,,
,,,,,,,,,,,,l,1.79692,Correct!,,,,,,t2.png,t5.png,3,0.0000131,19,male,2020-11-18_17h04.42.564,torte-q,2020.1.3,Win32,60,13202,,,,,0,101,101,40,1,,,,,,,,,,,,,,,,,,,,,,,,,,,,,,,,,,,
,,,,,,,,,,,,l,1.12372,Correct!,,,,,,t2.png,t4.png,2,0.059078,19,male,2020-11-18_17h04.42.564,torte-q,2020.1.3,Win32,60,13202,,,,,0,102,102,24,1,,,,,,,,,,,,,,,,,,,,,,,,,,,,,,,,,,,
,,,,,,,,,,,,a,1.20369,Correct!,,,,,,t4.png,t3.png,1,0.90855,19,male,2020-11-18_17h04.42.564,torte-q,2020.1.3,Win32,60,13202,,,,,0,103,103,45,1,,,,,,,,,,,,,,,,,,,,,,,,,,,,,,,,,,,
,,,,,,,,,,,,l,1.01587,Correct!,,,,,,t3.png,t5.png,2,0.0565,19,male,2020-11-18_17h04.42.564,torte-q,2020.1.3,Win32,60,13202,,,,,0,104,104,30,1,,,,,,,,,,,,,,,,,,,,,,,,,,,,,,,,,,,
,,,,,,,,,,,,l,0.862165,Incorrect,,,,,,t3.png,t4.png,1,0.90855,19,male,2020-11-18_17h04.42.564,torte-q,2020.1.3,Win32,60,13202,,,,,0,105,105,96,1,,,,,,,,,,,,,,,,,,,,,,,,,,,,,,,,,,,
,,,,,,,,,,,,a,1.24521,Correct!,,,,,,t2.png,t1.png,1,0.90025,19,male,2020-11-18_17h04.42.564,torte-q,2020.1.3,Win32,60,13202,,,,,0,106,106,62,1,,,,,,,,,,,,,,,,,,,,,,,,,,,,,,,,,,,
,,,,,,,,,,,,l,0.7039,Correct!,,,,,,t1.png,t4.png,3,0.0000131,19,male,2020-11-18_17h04.42.564,torte-q,2020.1.3,Win32,60,13202,,,,,0,107,107,92,1,,,,,,,,,,,,,,,,,,,,,,,,,,,,,,,,,,,
,,,,,,,,,,,,a,0.944735,Incorrect,,,,,,t3.png,t2.png,1,0.90855,19,male,2020-11-18_17h04.42.564,torte-q,2020.1.3,Win32,60,13202,,,,,0,108,108,97,1,,,,,,,,,,,,,,,,,,,,,,,,,,,,,,,,,,,
,,,,,,,,,,,,l,0.69281,Incorrect,,,,,,t1.png,t2.png,1,0.90025,19,male,2020-11-18_17h04.42.564,torte-q,2020.1.3,Win32,60,13202,,,,,0,109,109,105,1,,,,,,,,,,,,,,,,,,,,,,,,,,,,,,,,,,,
,,,,,,,,,,,,a,0.94986,Correct!,,,,,,t5.png,t5.png,0,0.978,19,male,2020-11-18_17h04.42.564,torte-q,2020.1.3,Win32,60,13202,,,,,0,110,110,117,1,,,,,,,,,,,,,,,,,,,,,,,,,,,,,,,,,,,
,,,,,,,,,,,,l,0.716005,Correct!,,,,,,t2.png,t4.png,2,0.059078,19,male,2020-11-18_17h04.42.564,torte-q,2020.1.3,Win32,60,13202,,,,,0,111,111,77,1,,,,,,,,,,,,,,,,,,,,,,,,,,,,,,,,,,,
,,,,,,,,,,,,a,1.080465,Incorrect,,,,,,t2.png,t4.png,2,0.0591,19,male,2020-11-18_17h04.42.564,torte-q,2020.1.3,Win32,60,13202,,,,,0,112,112,15,1,,,,,,,,,,,,,,,,,,,,,,,,,,,,,,,,,,,
,,,,,,,,,,,,l,0.64327,Correct!,,,,,,t5.png,t2.png,3,0.0000131,19,male,2020-11-18_17h04.42.564,torte-q,2020.1.3,Win32,60,13202,,,,,0,113,113,116,1,,,,,,,,,,,,,,,,,,,,,,,,,,,,,,,,,,,
,,,,,,,,,,,,l,0.69501,Correct!,,,,,,t2.png,t3.png,1,0.90855,19,male,2020-11-18_17h04.42.564,torte-q,2020.1.3,Win32,60,13202,,,,,0,114,114,68,1,,,,,,,,,,,,,,,,,,,,,,,,,,,,,,,,,,,
,,,,,,,,,,,,a,1.201595,Correct!,,,,,,t5.png,t5.png,0,0.97829,19,male,2020-11-18_17h04.42.564,torte-q,2020.1.3,Win32,60,13202,,,,,0,115,115,25,1,,,,,,,,,,,,,,,,,,,,,,,,,,,,,,,,,,,
,,,,,,,,,,,,a,0.813005,Incorrect,,,,,,t5.png,t1.png,4,9.55E-11,19,male,2020-11-18_17h04.42.564,torte-q,2020.1.3,Win32,60,13202,,,,,0,116,116,100,1,,,,,,,,,,,,,,,,,,,,,,,,,,,,,,,,,,,
,,,,,,,,,,,,l,0.662635,Incorrect,,,,,,t3.png,t2.png,1,0.90855,19,male,2020-11-18_17h04.42.564,torte-q,2020.1.3,Win32,60,13202,,,,,0,117,117,18,1,,,,,,,,,,,,,,,,,,,,,,,,,,,,,,,,,,,
,,,,,,,,,,,,a,0.989745,Correct!,,,,,,t2.png,t1.png,1,0.9,19,male,2020-11-18_17h04.42.564,torte-q,2020.1.3,Win32,60,13202,,,,,0,118,118,118,1,,,,,,,,,,,,,,,,,,,,,,,,,,,,,,,,,,,
,,,,,,,,,,,,l,0.620405,Incorrect,,,,,,t1.png,t2.png,1,0.90025,19,male,2020-11-18_17h04.42.564,torte-q,2020.1.3,Win32,60,13202,,,,,0,119,119,33,1,,,,,,,,,,,,,,,,,,,,,,,,,,,,,,,,,,,
,,,,,,,,,,,,l,2.0271,Correct!,,,,,,t5.png,t1.png,4,9.55E-11,19,male,2020-11-18_17h04.42.564,torte-q,2020.1.3,Win32,60,13202,space,5.509885,,,,,,,,a,10.52495,space,1.244155,0,0,0,22,1,,,,,,,,,,,,,,,,,,,,,,,,,,
,,,,,,,,,,,,a,1.36558,Correct!,,,,,,t1.png,t1.png,0,0.97829,19,male,2020-11-18_17h04.42.564,torte-q,2020.1.3,Win32,60,13202,,,,,,,,,,,,,,0,1,1,67,1,,,,,,,,,,,,,,,,,,,,,,,,,,
,,,,,,,,,,,,,,Too slow :(,,,,,,t5.png,t2.png,3,0.0000131,19,male,2020-11-18_17h04.42.564,torte-q,2020.1.3,Win32,60,13202,,,,,,,,,,,,,,0,2,2,91,1,,,,,,,,,,,,,,,,,,,,,,,,,,
,,,,,,,,,,,,l,1.35635,Correct!,,,,,,t1.png,t5.png,4,9.55E-11,19,male,2020-11-18_17h04.42.564,torte-q,2020.1.3,Win32,60,13202,,,,,,,,,,,,,,0,3,3,16,1,,,,,,,,,,,,,,,,,,,,,,,,,,
,,,,,,,,,,,,l,1.389825,Correct!,,,,,,t4.png,t1.png,3,0.0000131,19,male,2020-11-18_17h04.42.564,torte-q,2020.1.3,Win32,60,13202,,,,,,,,,,,,,,0,4,4,48,1,,,,,,,,,,,,,,,,,,,,,,,,,,
,,,,,,,,,,,,a,0.894215,Incorrect,,,,,,t2.png,t5.png,3,0.0000131,19,male,2020-11-18_17h04.42.564,torte-q,2020.1.3,Win32,60,13202,,,,,,,,,,,,,,0,5,5,8,1,,,,,,,,,,,,,,,,,,,,,,,,,,
,,,,,,,,,,,,l,1.01534,Correct!,,,,,,t3.png,t1.png,2,0.0565,19,male,2020-11-18_17h04.42.564,torte-q,2020.1.3,Win32,60,13202,,,,,,,,,,,,,,0,6,6,31,1,,,,,,,,,,,,,,,,,,,,,,,,,,
,,,,,,,,,,,,a,1.06475,Incorrect,,,,,,t4.png,t2.png,2,0.0591,19,male,2020-11-18_17h04.42.564,torte-q,2020.1.3,Win32,60,13202,,,,,,,,,,,,,,0,7,7,36,1,,,,,,,,,,,,,,,,,,,,,,,,,,
,,,,,,,,,,,,l,1.91243,Correct!,,,,,,t5.png,t3.png,2,0.056466,19,male,2020-11-18_17h04.42.564,torte-q,2020.1.3,Win32,60,13202,,,,,,,,,,,,,,0,8,8,38,1,,,,,,,,,,,,,,,,,,,,,,,,,,
,,,,,,,,,,,,l,0.880065,Incorrect,,,,,,t1.png,t1.png,0,0.978,19,male,2020-11-18_17h04.42.564,torte-q,2020.1.3,Win32,60,13202,,,,,,,,,,,,,,0,9,9,54,1,,,,,,,,,,,,,,,,,,,,,,,,,,
,,,,,,,,,,,,l,1.02953,Correct!,,,,,,t3.png,t1.png,2,0.056466,19,male,2020-11-18_17h04.42.564,torte-q,2020.1.3,Win32,60,13202,,,,,,,,,,,,,,0,10,10,29,1,,,,,,,,,,,,,,,,,,,,,,,,,,
,,,,,,,,,,,,a,1.112065,Correct!,,,,,,t2.png,t2.png,0,0.98115,19,male,2020-11-18_17h04.42.564,torte-q,2020.1.3,Win32,60,13202,,,,,,,,,,,,,,0,11,11,2,1,,,,,,,,,,,,,,,,,,,,,,,,,,
,,,,,,,,,,,,l,0.79806,Incorrect,,,,,,t1.png,t1.png,0,0.97829,19,male,2020-11-18_17h04.42.564,torte-q,2020.1.3,Win32,60,13202,,,,,,,,,,,,,,0,12,12,9,1,,,,,,,,,,,,,,,,,,,,,,,,,,
,,,,,,,,,,,,l,1.2877,Correct!,,,,,,t3.png,t1.png,2,0.056466,19,male,2020-11-18_17h04.42.564,torte-q,2020.1.3,Win32,60,13202,,,,,,,,,,,,,,0,13,13,64,1,,,,,,,,,,,,,,,,,,,,,,,,,,
,,,,,,,,,,,,a,0.85874,Incorrect,,,,,,t1.png,t3.png,2,0.056466,19,male,2020-11-18_17h04.42.564,torte-q,2020.1.3,Win32,60,13202,,,,,,,,,,,,,,0,14,14,63,1,,,,,,,,,,,,,,,,,,,,,,,,,,
,,,,,,,,,,,,l,2.35468,Correct!,,,,,,t3.png,t5.png,2,0.0565,19,male,2020-11-18_17h04.42.564,torte-q,2020.1.3,Win32,60,13202,,,,,,,,,,,,,,0,15,15,30,1,,,,,,,,,,,,,,,,,,,,,,,,,,
,,,,,,,,,,,,a,1.68701,Incorrect,,,,,,t5.png,t1.png,4,9.55E-11,19,male,2020-11-18_17h04.42.564,torte-q,2020.1.3,Win32,60,13202,,,,,,,,,,,,,,0,16,16,102,1,,,,,,,,,,,,,,,,,,,,,,,,,,
,,,,,,,,,,,,a,0.779755,Correct!,,,,,,t4.png,t3.png,1,0.90855,19,male,2020-11-18_17h04.42.564,torte-q,2020.1.3,Win32,60,13202,,,,,,,,,,,,,,0,17,17,45,1,,,,,,,,,,,,,,,,,,,,,,,,,,
,,,,,,,,,,,,l,0.84996,Incorrect,,,,,,t4.png,t3.png,1,0.909,19,male,2020-11-18_17h04.42.564,torte-q,2020.1.3,Win32,60,13202,,,,,,,,,,,,,,0,18,18,20,1,,,,,,,,,,,,,,,,,,,,,,,,,,
,,,,,,,,,,,,l,1.226465,Correct!,,,,,,t3.png,t2.png,1,0.90855,19,male,2020-11-18_17h04.42.564,torte-q,2020.1.3,Win32,60,13202,,,,,,,,,,,,,,0,19,19,53,1,,,,,,,,,,,,,,,,,,,,,,,,,,
,,,,,,,,,,,,l,1.59253,Correct!,,,,,,t5.png,t1.png,4,9.55E-11,19,male,2020-11-18_17h04.42.564,torte-q,2020.1.3,Win32,60,13202,,,,,,,,,,,,,,0,20,20,43,1,,,,,,,,,,,,,,,,,,,,,,,,,,
,,,,,,,,,,,,a,1.371345,Correct!,,,,,,t2.png,t2.png,0,0.98115,19,male,2020-11-18_17h04.42.564,torte-q,2020.1.3,Win32,60,13202,,,,,,,,,,,,,,0,21,21,59,1,,,,,,,,,,,,,,,,,,,,,,,,,,
,,,,,,,,,,,,l,1.259685,Correct!,,,,,,t3.png,t5.png,2,0.056466,19,male,2020-11-18_17h04.42.564,torte-q,2020.1.3,Win32,60,13202,,,,,,,,,,,,,,0,22,22,6,1,,,,,,,,,,,,,,,,,,,,,,,,,,
,,,,,,,,,,,,a,1.177505,Incorrect,,,,,,t5.png,t2.png,3,0.0000131,19,male,2020-11-18_17h04.42.564,torte-q,2020.1.3,Win32,60,13202,,,,,,,,,,,,,,0,23,23,51,1,,,,,,,,,,,,,,,,,,,,,,,,,,
,,,,,,,,,,,,a,1.639795,Incorrect,,,,,,t4.png,t1.png,3,0.0000131,19,male,2020-11-18_17h04.42.564,torte-q,2020.1.3,Win32,60,13202,,,,,,,,,,,,,,0,24,24,93,1,,,,,,,,,,,,,,,,,,,,,,,,,,
,,,,,,,,,,,,a,1.031665,Incorrect,,,,,,t4.png,t2.png,2,0.059078,19,male,2020-11-18_17h04.42.564,torte-q,2020.1.3,Win32,60,13202,,,,,,,,,,,,,,0,25,25,109,1,,,,,,,,,,,,,,,,,,,,,,,,,,
,,,,,,,,,,,,l,0.807115,Correct!,,,,,,t5.png,t1.png,4,9.55E-11,19,male,2020-11-18_17h04.42.564,torte-q,2020.1.3,Win32,60,13202,,,,,,,,,,,,,,0,26,26,100,1,,,,,,,,,,,,,,,,,,,,,,,,,,
,,,,,,,,,,,,l,1.446615,Correct!,,,,,,t3.png,t5.png,2,0.0565,19,male,2020-11-18_17h04.42.564,torte-q,2020.1.3,Win32,60,13202,,,,,,,,,,,,,,0,27,27,83,1,,,,,,,,,,,,,,,,,,,,,,,,,,
,,,,,,,,,,,,a,1.116485,Incorrect,,,,,,t1.png,t4.png,3,0.0000131,19,male,2020-11-18_17h04.42.564,torte-q,2020.1.3,Win32,60,13202,,,,,,,,,,,,,,0,28,28,81,1,,,,,,,,,,,,,,,,,,,,,,,,,,
,,,,,,,,,,,,l,1.601985,Correct!,,,,,,t1.png,t4.png,3,0.0000131,19,male,2020-11-18_17h04.42.564,torte-q,2020.1.3,Win32,60,13202,,,,,,,,,,,,,,0,29,29,107,1,,,,,,,,,,,,,,,,,,,,,,,,,,
,,,,,,,,,,,,a,1.5,Correct!,,,,,,t4.png,t4.png,0,0.98115,19,male,2020-11-18_17h04.42.564,torte-q,2020.1.3,Win32,60,13202,,,,,,,,,,,,,,0,30,30,90,1,,,,,,,,,,,,,,,,,,,,,,,,,,
,,,,,,,,,,,,a,1.189295,Correct!,,,,,,t5.png,t4.png,1,0.9,19,male,2020-11-18_17h04.42.564,torte-q,2020.1.3,Win32,60,13202,,,,,,,,,,,,,,0,31,31,76,1,,,,,,,,,,,,,,,,,,,,,,,,,,
,,,,,,,,,,,,l,1.45037,Incorrect,,,,,,t1.png,t2.png,1,0.90025,19,male,2020-11-18_17h04.42.564,torte-q,2020.1.3,Win32,60,13202,,,,,,,,,,,,,,0,32,32,112,1,,,,,,,,,,,,,,,,,,,,,,,,,,
,,,,,,,,,,,,a,0.71971,Correct!,,,,,,t4.png,t4.png,0,0.98115,19,male,2020-11-18_17h04.42.564,torte-q,2020.1.3,Win32,60,13202,,,,,,,,,,,,,,0,33,33,21,1,,,,,,,,,,,,,,,,,,,,,,,,,,
,,,,,,,,,,,,l,0.83815,Incorrect,,,,,,t2.png,t1.png,1,0.90025,19,male,2020-11-18_17h04.42.564,torte-q,2020.1.3,Win32,60,13202,,,,,,,,,,,,,,0,34,34,5,1,,,,,,,,,,,,,,,,,,,,,,,,,,
,,,,,,,,,,,,a,1.226215,Correct!,,,,,,t2.png,t1.png,1,0.9,19,male,2020-11-18_17h04.42.564,torte-q,2020.1.3,Win32,60,13202,,,,,,,,,,,,,,0,35,35,118,1,,,,,,,,,,,,,,,,,,,,,,,,,,
,,,,,,,,,,,,l,1.015765,Correct!,,,,,,t1.png,t4.png,3,0.0000131,19,male,2020-11-18_17h04.42.564,torte-q,2020.1.3,Win32,60,13202,,,,,,,,,,,,,,0,36,36,17,1,,,,,,,,,,,,,,,,,,,,,,,,,,
,,,,,,,,,,,,a,1.34442,Incorrect,,,,,,t5.png,t4.png,1,0.90025,19,male,2020-11-18_17h04.42.564,torte-q,2020.1.3,Win32,60,13202,,,,,,,,,,,,,,0,37,37,26,1,,,,,,,,,,,,,,,,,,,,,,,,,,
,,,,,,,,,,,,l,0.876915,Correct!,,,,,,t5.png,t3.png,2,0.056466,19,male,2020-11-18_17h04.42.564,torte-q,2020.1.3,Win32,60,13202,,,,,,,,,,,,,,0,38,38,56,1,,,,,,,,,,,,,,,,,,,,,,,,,,
,,,,,,,,,,,,a,0.693055,Incorrect,,,,,,t5.png,t2.png,3,0.0000131,19,male,2020-11-18_17h04.42.564,torte-q,2020.1.3,Win32,60,13202,,,,,,,,,,,,,,0,39,39,116,1,,,,,,,,,,,,,,,,,,,,,,,,,,
,,,,,,,,,,,,l,0.9792,Correct!,,,,,,t2.png,t1.png,1,0.90025,19,male,2020-11-18_17h04.42.564,torte-q,2020.1.3,Win32,60,13202,,,,,,,,,,,,,,0,40,40,62,1,,,,,,,,,,,,,,,,,,,,,,,,,,
,,,,,,,,,,,,a,0.56694,Correct!,,,,,,t3.png,t4.png,1,0.909,19,male,2020-11-18_17h04.42.564,torte-q,2020.1.3,Win32,60,13202,,,,,,,,,,,,,,0,41,41,106,1,,,,,,,,,,,,,,,,,,,,,,,,,,
,,,,,,,,,,,,l,0.892025,Incorrect,,,,,,t2.png,t4.png,2,0.0591,19,male,2020-11-18_17h04.42.564,torte-q,2020.1.3,Win32,60,13202,,,,,,,,,,,,,,0,42,42,15,1,,,,,,,,,,,,,,,,,,,,,,,,,,
,,,,,,,,,,,,a,0.8374,Correct!,,,,,,t1.png,t3.png,2,0.056466,19,male,2020-11-18_17h04.42.564,torte-q,2020.1.3,Win32,60,13202,,,,,,,,,,,,,,0,43,43,99,1,,,,,,,,,,,,,,,,,,,,,,,,,,
,,,,,,,,,,,,l,1.12877,Incorrect,,,,,,t4.png,t5.png,1,0.90025,19,male,2020-11-18_17h04.42.564,torte-q,2020.1.3,Win32,60,13202,,,,,,,,,,,,,,0,44,44,47,1,,,,,,,,,,,,,,,,,,,,,,,,,,
,,,,,,,,,,,,a,1.191465,Correct!,,,,,,t3.png,t4.png,1,0.90855,19,male,2020-11-18_17h04.42.564,torte-q,2020.1.3,Win32,60,13202,,,,,,,,,,,,,,0,45,45,84,1,,,,,,,,,,,,,,,,,,,,,,,,,,
,,,,,,,,,,,,a,1.340775,Incorrect,,,,,,t1.png,t3.png,2,0.056466,19,male,2020-11-18_17h04.42.564,torte-q,2020.1.3,Win32,60,13202,,,,,,,,,,,,,,0,46,46,60,1,,,,,,,,,,,,,,,,,,,,,,,,,,
,,,,,,,,,,,,l,0.760135,Incorrect,,,,,,t3.png,t2.png,1,0.909,19,male,2020-11-18_17h04.42.564,torte-q,2020.1.3,Win32,60,13202,,,,,,,,,,,,,,0,47,47,23,1,,,,,,,,,,,,,,,,,,,,,,,,,,
,,,,,,,,,,,,l,0.962765,Incorrect,,,,,,t2.png,t3.png,1,0.90855,19,male,2020-11-18_17h04.42.564,torte-q,2020.1.3,Win32,60,13202,,,,,,,,,,,,,,0,48,48,65,1,,,,,,,,,,,,,,,,,,,,,,,,,,
,,,,,,,,,,,,a,0.767325,Correct!,,,,,,t3.png,t1.png,2,0.056466,19,male,2020-11-18_17h04.42.564,torte-q,2020.1.3,Win32,60,13202,,,,,,,,,,,,,,0,49,49,0,1,,,,,,,,,,,,,,,,,,,,,,,,,,
,,,,,,,,,,,,l,0.68771,Correct!,,,,,,t1.png,t5.png,4,9.55E-11,19,male,2020-11-18_17h04.42.564,torte-q,2020.1.3,Win32,60,13202,,,,,,,,,,,,,,0,50,50,85,1,,,,,,,,,,,,,,,,,,,,,,,,,,
,,,,,,,,,,,,l,1.06185,Incorrect,,,,,,t2.png,t3.png,1,0.90855,19,male,2020-11-18_17h04.42.564,torte-q,2020.1.3,Win32,60,13202,,,,,,,,,,,,,,0,51,51,111,1,,,,,,,,,,,,,,,,,,,,,,,,,,
,,,,,,,,,,,,a,0.63317,Correct!,,,,,,t4.png,t5.png,1,0.90025,19,male,2020-11-18_17h04.42.564,torte-q,2020.1.3,Win32,60,13202,,,,,,,,,,,,,,0,52,52,113,1,,,,,,,,,,,,,,,,,,,,,,,,,,
,,,,,,,,,,,,l,0.747435,Incorrect,,,,,,t3.png,t4.png,1,0.909,19,male,2020-11-18_17h04.42.564,torte-q,2020.1.3,Win32,60,13202,,,,,,,,,,,,,,0,53,53,89,1,,,,,,,,,,,,,,,,,,,,,,,,,,
,,,,,,,,,,,,a,1.02841,Correct!,,,,,,t1.png,t2.png,1,0.90025,19,male,2020-11-18_17h04.42.564,torte-q,2020.1.3,Win32,60,13202,,,,,,,,,,,,,,0,54,54,72,1,,,,,,,,,,,,,,,,,,,,,,,,,,
,,,,,,,,,,,,l,1.209405,Incorrect,,,,,,t5.png,t5.png,0,0.978,19,male,2020-11-18_17h04.42.564,torte-q,2020.1.3,Win32,60,13202,,,,,,,,,,,,,,0,55,55,117,1,,,,,,,,,,,,,,,,,,,,,,,,,,
,,,,,,,,,,,,a,0.852375,Correct!,,,,,,t4.png,t3.png,1,0.909,19,male,2020-11-18_17h04.42.564,torte-q,2020.1.3,Win32,60,13202,,,,,,,,,,,,,,0,56,56,46,1,,,,,,,,,,,,,,,,,,,,,,,,,,
,,,,,,,,,,,,a,1.64787,Incorrect,,,,,,t5.png,t3.png,2,0.0565,19,male,2020-11-18_17h04.42.564,torte-q,2020.1.3,Win32,60,13202,,,,,,,,,,,,,,0,57,57,39,1,,,,,,,,,,,,,,,,,,,,,,,,,,
,,,,,,,,,,,,a,1.29367,Correct!,,,,,,t3.png,t2.png,1,0.90855,19,male,2020-11-18_17h04.42.564,torte-q,2020.1.3,Win32,60,13202,,,,,,,,,,,,,,0,58,58,18,1,,,,,,,,,,,,,,,,,,,,,,,,,,
,,,,,,,,,,,,l,1.38724,Incorrect,,,,,,t5.png,t4.png,1,0.9,19,male,2020-11-18_17h04.42.564,torte-q,2020.1.3,Win32,60,13202,,,,,,,,,,,,,,0,59,59,49,1,,,,,,,,,,,,,,,,,,,,,,,,,,
,,,,,,,,,,,,a,0.934495,Correct!,,,,,,t4.png,t3.png,1,0.90855,19,male,2020-11-18_17h04.42.564,torte-q,2020.1.3,Win32,60,13202,,,,,,,,,,,,,,0,60,60,75,1,,,,,,,,,,,,,,,,,,,,,,,,,,
,,,,,,,,,,,,l,1.447865,Correct!,,,,,,t1.png,t5.png,4,9.55E-11,19,male,2020-11-18_17h04.42.564,torte-q,2020.1.3,Win32,60,13202,,,,,,,,,,,,,,0,61,61,12,1,,,,,,,,,,,,,,,,,,,,,,,,,,
,,,,,,,,,,,,a,1.480555,Incorrect,,,,,,t2.png,t5.png,3,0.0000131,19,male,2020-11-18_17h04.42.564,torte-q,2020.1.3,Win32,60,13202,,,,,,,,,,,,,,0,62,62,66,1,,,,,,,,,,,,,,,,,,,,,,,,,,
,,,,,,,,,,,,l,0.87976,Incorrect,,,,,,t1.png,t2.png,1,0.9,19,male,2020-11-18_17h04.42.564,torte-q,2020.1.3,Win32,60,13202,,,,,,,,,,,,,,0,63,63,1,1,,,,,,,,,,,,,,,,,,,,,,,,,,
,,,,,,,,,,,,a,0.52591,Correct!,,,,,,t4.png,t4.png,0,0.98115,19,male,2020-11-18_17h04.42.564,torte-q,2020.1.3,Win32,60,13202,,,,,,,,,,,,,,0,64,64,80,1,,,,,,,,,,,,,,,,,,,,,,,,,,
,,,,,,,,,,,,l,0.970945,Incorrect,,,,,,t1.png,t1.png,0,0.97829,19,male,2020-11-18_17h04.42.564,torte-q,2020.1.3,Win32,60,13202,,,,,,,,,,,,,,0,65,65,78,1,,,,,,,,,,,,,,,,,,,,,,,,,,
,,,,,,,,,,,,l,1.186655,Correct!,,,,,,t1.png,t3.png,2,0.056466,19,male,2020-11-18_17h04.42.564,torte-q,2020.1.3,Win32,60,13202,,,,,,,,,,,,,,0,66,66,87,1,,,,,,,,,,,,,,,,,,,,,,,,,,
,,,,,,,,,,,,a,1.11891,Correct!,,,,,,t2.png,t2.png,0,0.981,19,male,2020-11-18_17h04.42.564,torte-q,2020.1.3,Win32,60,13202,,,,,,,,,,,,,,0,67,67,101,1,,,,,,,,,,,,,,,,,,,,,,,,,,
,,,,,,,,,,,,l,0.75231,Correct!,,,,,,t3.png,t5.png,2,0.056466,19,male,2020-11-18_17h04.42.564,torte-q,2020.1.3,Win32,60,13202,,,,,,,,,,,,,,0,68,68,44,1,,,,,,,,,,,,,,,,,,,,,,,,,,
,,,,,,,,,,,,a,0.73595,Incorrect,,,,,,t4.png,t2.png,2,0.059078,19,male,2020-11-18_17h04.42.564,torte-q,2020.1.3,Win32,60,13202,,,,,,,,,,,,,,0,69,69,110,1,,,,,,,,,,,,,,,,,,,,,,,,,,
,,,,,,,,,,,,l,0.970975,Incorrect,,,,,,t1.png,t2.png,1,0.90025,19,male,2020-11-18_17h04.42.564,torte-q,2020.1.3,Win32,60,13202,,,,,,,,,,,,,,0,70,70,33,1,,,,,,,,,,,,,,,,,,,,,,,,,,
,,,,,,,,,,,,l,0.669395,Correct!,,,,,,t2.png,t5.png,3,0.0000131,19,male,2020-11-18_17h04.42.564,torte-q,2020.1.3,Win32,60,13202,,,,,,,,,,,,,,0,71,71,40,1,,,,,,,,,,,,,,,,,,,,,,,,,,
,,,,,,,,,,,,l,0.620865,Correct!,,,,,,t2.png,t4.png,2,0.059078,19,male,2020-11-18_17h04.42.564,torte-q,2020.1.3,Win32,60,13202,,,,,,,,,,,,,,0,72,72,24,1,,,,,,,,,,,,,,,,,,,,,,,,,,
,,,,,,,,,,,,a,0.75225,Correct!,,,,,,t4.png,t5.png,1,0.90025,19,male,2020-11-18_17h04.42.564,torte-q,2020.1.3,Win32,60,13202,,,,,,,,,,,,,,0,73,73,58,1,,,,,,,,,,,,,,,,,,,,,,,,,,
,,,,,,,,,,,,l,0.79267,Incorrect,,,,,,t2.png,t2.png,0,0.98115,19,male,2020-11-18_17h04.42.564,torte-q,2020.1.3,Win32,60,13202,,,,,,,,,,,,,,0,74,74,57,1,,,,,,,,,,,,,,,,,,,,,,,,,,
,,,,,,,,,,,,a,1.56907,Incorrect,,,,,,t5.png,t3.png,2,0.056466,19,male,2020-11-18_17h04.42.564,torte-q,2020.1.3,Win32,60,13202,,,,,,,,,,,,,,0,75,75,108,1,,,,,,,,,,,,,,,,,,,,,,,,,,
,,,,,,,,,,,,,,Too slow :(,,,,,,t5.png,t4.png,1,0.90025,19,male,2020-11-18_17h04.42.564,torte-q,2020.1.3,Win32,60,13202,,,,,,,,,,,,,,0,76,76,27,1,,,,,,,,,,,,,,,,,,,,,,,,,,
,,,,,,,,,,,,l,1.509,Correct!,,,,,,t2.png,t5.png,3,0.0000131,19,male,2020-11-18_17h04.42.564,torte-q,2020.1.3,Win32,60,13202,,,,,,,,,,,,,,0,77,77,95,1,,,,,,,,,,,,,,,,,,,,,,,,,,
,,,,,,,,,,,,l,1.5416,Correct!,,,,,,t5.png,t1.png,4,9.55E-11,19,male,2020-11-18_17h04.42.564,torte-q,2020.1.3,Win32,60,13202,,,,,,,,,,,,,,0,78,78,71,1,,,,,,,,,,,,,,,,,,,,,,,,,,
,,,,,,,,,,,,a,1.0073,Incorrect,,,,,,t1.png,t5.png,4,9.55E-11,19,male,2020-11-18_17h04.42.564,torte-q,2020.1.3,Win32,60,13202,,,,,,,,,,,,,,0,79,79,41,1,,,,,,,,,,,,,,,,,,,,,,,,,,
,,,,,,,,,,,,l,1.311155,Incorrect,,,,,,t3.png,t4.png,1,0.909,19,male,2020-11-18_17h04.42.564,torte-q,2020.1.3,Win32,60,13202,,,,,,,,,,,,,,0,80,80,82,1,,,,,,,,,,,,,,,,,,,,,,,,,,
,,,,,,,,,,,,l,0.891865,Correct!,,,,,,t2.png,t4.png,2,0.059078,19,male,2020-11-18_17h04.42.564,torte-q,2020.1.3,Win32,60,13202,,,,,,,,,,,,,,0,81,81,37,1,,,,,,,,,,,,,,,,,,,,,,,,,,
,,,,,,,,,,,,a,1.48695,Correct!,,,,,,t5.png,t5.png,0,0.97829,19,male,2020-11-18_17h04.42.564,torte-q,2020.1.3,Win32,60,13202,,,,,,,,,,,,,,0,82,82,25,1,,,,,,,,,,,,,,,,,,,,,,,,,,
,,,,,,,,,,,,l,0.649615,Incorrect,,,,,,t2.png,t2.png,0,0.98115,19,male,2020-11-18_17h04.42.564,torte-q,2020.1.3,Win32,60,13202,,,,,,,,,,,,,,0,83,83,7,1,,,,,,,,,,,,,,,,,,,,,,,,,,
,,,,,,,,,,,,a,0.82622,Correct!,,,,,,t4.png,t5.png,1,0.90025,19,male,2020-11-18_17h04.42.564,torte-q,2020.1.3,Win32,60,13202,,,,,,,,,,,,,,0,84,84,103,1,,,,,,,,,,,,,,,,,,,,,,,,,,
,,,,,,,,,,,,l,1.59622,Incorrect,,,,,,t3.png,t2.png,1,0.909,19,male,2020-11-18_17h04.42.564,torte-q,2020.1.3,Win32,60,13202,,,,,,,,,,,,,,0,85,85,3,1,,,,,,,,,,,,,,,,,,,,,,,,,,
,,,,,,,,,,,,a,1.01948,Correct!,,,,,,t2.png,t3.png,1,0.90855,19,male,2020-11-18_17h04.42.564,torte-q,2020.1.3,Win32,60,13202,,,,,,,,,,,,,,0,86,86,10,1,,,,,,,,,,,,,,,,,,,,,,,,,,
,,,,,,,,,,,,l,0.77482,Correct!,,,,,,t1.png,t3.png,2,0.056466,19,male,2020-11-18_17h04.42.564,torte-q,2020.1.3,Win32,60,13202,,,,,,,,,,,,,,0,87,87,69,1,,,,,,,,,,,,,,,,,,,,,,,,,,
,,,,,,,,,,,,a,0.625165,Correct!,,,,,,t4.png,t3.png,1,0.90855,19,male,2020-11-18_17h04.42.564,torte-q,2020.1.3,Win32,60,13202,,,,,,,,,,,,,,0,88,88,35,1,,,,,,,,,,,,,,,,,,,,,,,,,,
,,,,,,,,,,,,l,1.105005,Correct!,,,,,,t2.png,t4.png,2,0.059078,19,male,2020-11-18_17h04.42.564,torte-q,2020.1.3,Win32,60,13202,,,,,,,,,,,,,,0,89,89,11,1,,,,,,,,,,,,,,,,,,,,,,,,,,
,,,,,,,,,,,,a,0.76495,Correct!,,,,,,t5.png,t5.png,0,0.97829,19,male,2020-11-18_17h04.42.564,torte-q,2020.1.3,Win32,60,13202,,,,,,,,,,,,,,0,90,90,73,1,,,,,,,,,,,,,,,,,,,,,,,,,,
,,,,,,,,,,,,l,0.68645,Correct!,,,,,,t1.png,t4.png,3,0.0000131,19,male,2020-11-18_17h04.42.564,torte-q,2020.1.3,Win32,60,13202,,,,,,,,,,,,,,0,91,91,50,1,,,,,,,,,,,,,,,,,,,,,,,,,,
,,,,,,,,,,,,a,0.547075,Incorrect,,,,,,t3.png,t5.png,2,0.056466,19,male,2020-11-18_17h04.42.564,torte-q,2020.1.3,Win32,60,13202,,,,,,,,,,,,,,0,92,92,14,1,,,,,,,,,,,,,,,,,,,,,,,,,,
,,,,,,,,,,,,a,2.44614,Correct!,,,,,,t2.png,t3.png,1,0.90855,19,male,2020-11-18_17h04.42.564,torte-q,2020.1.3,Win32,60,13202,,,,,,,,,,,,,,0,93,93,68,1,,,,,,,,,,,,,,,,,,,,,,,,,,
,,,,,,,,,,,,l,0.865235,Incorrect,,,,,,t4.png,t4.png,0,0.98115,19,male,2020-11-18_17h04.42.564,torte-q,2020.1.3,Win32,60,13202,,,,,,,,,,,,,,0,94,94,79,1,,,,,,,,,,,,,,,,,,,,,,,,,,
,,,,,,,,,,,,l,1.056025,Correct!,,,,,,t5.png,t4.png,1,0.90025,19,male,2020-11-18_17h04.42.564,torte-q,2020.1.3,Win32,60,13202,,,,,,,,,,,,,,0,95,95,34,1,,,,,,,,,,,,,,,,,,,,,,,,,,
,,,,,,,,,,,,l,0.66169,Incorrect,,,,,,t1.png,t2.png,1,0.90025,19,male,2020-11-18_17h04.42.564,torte-q,2020.1.3,Win32,60,13202,,,,,,,,,,,,,,0,96,96,105,1,,,,,,,,,,,,,,,,,,,,,,,,,,
,,,,,,,,,,,,a,1.529285,Correct!,,,,,,t5.png,t5.png,0,0.97829,19,male,2020-11-18_17h04.42.564,torte-q,2020.1.3,Win32,60,13202,,,,,,,,,,,,,,0,97,97,94,1,,,,,,,,,,,,,,,,,,,,,,,,,,
,,,,,,,,,,,,l,0.8457,Correct!,,,,,,t4.png,t1.png,3,0.0000131,19,male,2020-11-18_17h04.42.564,torte-q,2020.1.3,Win32,60,13202,,,,,,,,,,,,,,0,98,98,61,1,,,,,,,,,,,,,,,,,,,,,,,,,,
,,,,,,,,,,,,a,1.107145,Correct!,,,,,,t3.png,t2.png,1,0.90855,19,male,2020-11-18_17h04.42.564,torte-q,2020.1.3,Win32,60,13202,,,,,,,,,,,,,,0,99,99,97,1,,,,,,,,,,,,,,,,,,,,,,,,,,
,,,,,,,,,,,,l,1.0316,Correct!,,,,,,t4.png,t1.png,3,0.0000131,19,male,2020-11-18_17h04.42.564,torte-q,2020.1.3,Win32,60,13202,,,,,,,,,,,,,,0,100,100,42,1,,,,,,,,,,,,,,,,,,,,,,,,,,
,,,,,,,,,,,,l,2.083955,Correct!,,,,,,t5.png,t3.png,2,0.056466,19,male,2020-11-18_17h04.42.564,torte-q,2020.1.3,Win32,60,13202,,,,,,,,,,,,,,0,101,101,114,1,,,,,,,,,,,,,,,,,,,,,,,,,,
,,,,,,,,,,,,a,0.888845,Incorrect,,,,,,t3.png,t1.png,2,0.056466,19,male,2020-11-18_17h04.42.564,torte-q,2020.1.3,Win32,60,13202,,,,,,,,,,,,,,0,102,102,32,1,,,,,,,,,,,,,,,,,,,,,,,,,,
,,,,,,,,,,,,,,Too slow :(,,,,,,t2.png,t5.png,3,0.0000131,19,male,2020-11-18_17h04.42.564,torte-q,2020.1.3,Win32,60,13202,,,,,,,,,,,,,,0,103,103,104,1,,,,,,,,,,,,,,,,,,,,,,,,,,
,,,,,,,,,,,,a,1.08416,Incorrect,,,,,,t5.png,t2.png,3,0.0000131,19,male,2020-11-18_17h04.42.564,torte-q,2020.1.3,Win32,60,13202,,,,,,,,,,,,,,0,104,104,98,1,,,,,,,,,,,,,,,,,,,,,,,,,,
,,,,,,,,,,,,a,1.83987,Correct!,,,,,,t2.png,t1.png,1,0.90025,19,male,2020-11-18_17h04.42.564,torte-q,2020.1.3,Win32,60,13202,,,,,,,,,,,,,,0,105,105,19,1,,,,,,,,,,,,,,,,,,,,,,,,,,
,,,,,,,,,,,,l,1.15096,Incorrect,,,,,,t3.png,t4.png,1,0.90855,19,male,2020-11-18_17h04.42.564,torte-q,2020.1.3,Win32,60,13202,,,,,,,,,,,,,,0,106,106,96,1,,,,,,,,,,,,,,,,,,,,,,,,,,
,,,,,,,,,,,,a,0.92286,Correct!,,,,,,t2.png,t1.png,1,0.90025,19,male,2020-11-18_17h04.42.564,torte-q,2020.1.3,Win32,60,13202,,,,,,,,,,,,,,0,107,107,4,1,,,,,,,,,,,,,,,,,,,,,,,,,,
,,,,,,,,,,,,l,0.89227,Correct!,,,,,,t1.png,t4.png,3,0.0000131,19,male,2020-11-18_17h04.42.564,torte-q,2020.1.3,Win32,60,13202,,,,,,,,,,,,,,0,108,108,92,1,,,,,,,,,,,,,,,,,,,,,,,,,,
,,,,,,,,,,,,a,0.554155,Incorrect,,,,,,t4.png,t2.png,2,0.059078,19,male,2020-11-18_17h04.42.564,torte-q,2020.1.3,Win32,60,13202,,,,,,,,,,,,,,0,109,109,86,1,,,,,,,,,,,,,,,,,,,,,,,,,,
,,,,,,,,,,,,l,1.122885,Incorrect,,,,,,t4.png,t5.png,1,0.9,19,male,2020-11-18_17h04.42.564,torte-q,2020.1.3,Win32,60,13202,,,,,,,,,,,,,,0,110,110,115,1,,,,,,,,,,,,,,,,,,,,,,,,,,
,,,,,,,,,,,,l,0.80534,Correct!,,,,,,t2.png,t4.png,2,0.059078,19,male,2020-11-18_17h04.42.564,torte-q,2020.1.3,Win32,60,13202,,,,,,,,,,,,,,0,111,111,77,1,,,,,,,,,,,,,,,,,,,,,,,,,,
,,,,,,,,,,,,a,0.707315,Correct!,,,,,,t2.png,t3.png,1,0.909,19,male,2020-11-18_17h04.42.564,torte-q,2020.1.3,Win32,60,13202,,,,,,,,,,,,,,0,112,112,74,1,,,,,,,,,,,,,,,,,,,,,,,,,,
,,,,,,,,,,,,l,0.764585,Incorrect,,,,,,t1.png,t1.png,0,0.978,19,male,2020-11-18_17h04.42.564,torte-q,2020.1.3,Win32,60,13202,,,,,,,,,,,,,,0,113,113,28,1,,,,,,,,,,,,,,,,,,,,,,,,,,
,,,,,,,,,,,,a,0.883185,Incorrect,,,,,,t5.png,t2.png,3,0.0000131,19,male,2020-11-18_17h04.42.564,torte-q,2020.1.3,Win32,60,13202,,,,,,,,,,,,,,0,114,114,119,1,,,,,,,,,,,,,,,,,,,,,,,,,,
,,,,,,,,,,,,l,1.1562,Incorrect,,,,,,t4.png,t4.png,0,0.98115,19,male,2020-11-18_17h04.42.564,torte-q,2020.1.3,Win32,60,13202,,,,,,,,,,,,,,0,115,115,52,1,,,,,,,,,,,,,,,,,,,,,,,,,,
,,,,,,,,,,,,l,0.95275,Correct!,,,,,,t1.png,t5.png,4,9.55E-11,19,male,2020-11-18_17h04.42.564,torte-q,2020.1.3,Win32,60,13202,,,,,,,,,,,,,,0,116,116,55,1,,,,,,,,,,,,,,,,,,,,,,,,,,
,,,,,,,,,,,,l,0.83504,Correct!,,,,,,t4.png,t2.png,2,0.059078,19,male,2020-11-18_17h04.42.564,torte-q,2020.1.3,Win32,60,13202,,,,,,,,,,,,,,0,117,117,88,1,,,,,,,,,,,,,,,,,,,,,,,,,,
,,,,,,,,,,,,l,1.47205,Correct!,,,,,,t4.png,t1.png,3,0.0000131,19,male,2020-11-18_17h04.42.564,torte-q,2020.1.3,Win32,60,13202,,,,,,,,,,,,,,0,118,118,13,1,,,,,,,,,,,,,,,,,,,,,,,,,,
,,,,,,,,,,,,a,0.944435,Correct!,,,,,,t5.png,t5.png,0,0.97829,19,male,2020-11-18_17h04.42.564,torte-q,2020.1.3,Win32,60,13202,,,,,,,,,,,,,,0,119,119,70,1,,,,,,,,,,,,,,,,,,,,,,,,,,
,,,,,,,,,,,,,,,,,,,,,,,,19,male,2020-11-18_17h04.42.564,torte-q,2020.1.3,Win32,60,13202,space,1.511905,,,,,,,,,,,,,,,,,4.9975,4.7724,-59,182,1,0,0,s1,4,33,1,0,0,t2,410,-94,1,0,0,proceed,space,1.921205,space,1.355945,space,0.91805
