key_resp_8.keys,key_resp_8.rt,key_resp_9.keys,key_resp_9.rt,key_resp_10.keys,key_resp_10.rt,key_resp_11.keys,key_resp_11.rt,key_resp_2.keys,key_resp_2.rt,key_resp_3.keys,key_resp_3.rt,key_resp.keys,Feedback,train.thisRepN,train.thisTrialN,train.thisN,train.thisIndex,train.ran,torta_sx,torta_dx,difference,probability,age,gender,date,expName,psychopyVersion,OS,frameRate,participant,key_resp.rt,key_resp_15.keys,key_resp_15.rt,key_resp_6.keys,key_resp_6.rt,test1.thisRepN,test1.thisTrialN,test1.thisN,test1.thisIndex,test1.ran,key_resp_16.keys,key_resp_16.rt,key_resp_7.keys,key_resp_7.rt,test2.thisRepN,test2.thisTrialN,test2.thisN,test2.thisIndex,test2.ran,rating.response,rating.rt,mouse.x,mouse.y,mouse.leftButton,mouse.midButton,mouse.rightButton,mouse.clicked_name,mouse_2.x,mouse_2.y,mouse_2.leftButton,mouse_2.midButton,mouse_2.rightButton,mouse_2.clicked_name,mouse_3.x,mouse_3.y,mouse_3.leftButton,mouse_3.midButton,mouse_3.rightButton,mouse_3.clicked_name,key_resp_12.keys,key_resp_12.rt,key_resp_13.keys,key_resp_13.rt,key_resp_14.keys,key_resp_14.rt
space,2.27,space,0.997,space,1.647,space,1.603,space,36.1,space,43.173,,Too slow :(,0,0,0,99,1,t1.png,t5.png,4,9.55E-11,19,woman,2020-11-07_15h10.57.915,torte-q,2020.1.3,Win32,60,13249,,,,,,,,,,,,,,,,,,,,,,,,,,,,,,,,,,,,,,,,,,,,,
,,,,,,,,,,,,l,Correct!,0,1,1,17,1,t1.png,t4.png,3,0.0000131,19,woman,2020-11-07_15h10.57.915,torte-q,2020.1.3,Win32,60,13249,2.164,,,,,,,,,,,,,,,,,,,,,,,,,,,,,,,,,,,,,,,,,,,,
,,,,,,,,,,,,a,Correct!,0,2,2,78,1,t1.png,t1.png,0,0.978,19,woman,2020-11-07_15h10.57.915,torte-q,2020.1.3,Win32,60,13249,1.735,,,,,,,,,,,,,,,,,,,,,,,,,,,,,,,,,,,,,,,,,,,,
,,,,,,,,,,,,,Too slow :(,0,3,3,111,1,t5.png,t1.png,4,9.55E-11,19,woman,2020-11-07_15h10.57.915,torte-q,2020.1.3,Win32,60,13249,,,,,,,,,,,,,,,,,,,,,,,,,,,,,,,,,,,,,,,,,,,,,
,,,,,,,,,,,,l,Correct!,0,4,4,31,1,t1.png,t5.png,4,9.55E-11,19,woman,2020-11-07_15h10.57.915,torte-q,2020.1.3,Win32,60,13249,1.134,,,,,,,,,,,,,,,,,,,,,,,,,,,,,,,,,,,,,,,,,,,,
,,,,,,,,,,,,l,Incorrect,0,5,5,25,1,t5.png,t5.png,0,0.97829,19,woman,2020-11-07_15h10.57.915,torte-q,2020.1.3,Win32,60,13249,1.072,,,,,,,,,,,,,,,,,,,,,,,,,,,,,,,,,,,,,,,,,,,,
,,,,,,,,,,,,l,Incorrect,0,6,6,118,1,t5.png,t5.png,0,0.978,19,woman,2020-11-07_15h10.57.915,torte-q,2020.1.3,Win32,60,13249,1.202,,,,,,,,,,,,,,,,,,,,,,,,,,,,,,,,,,,,,,,,,,,,
,,,,,,,,,,,,a,Incorrect,0,7,7,19,1,t4.png,t2.png,2,0.059078,19,woman,2020-11-07_15h10.57.915,torte-q,2020.1.3,Win32,60,13249,2,,,,,,,,,,,,,,,,,,,,,,,,,,,,,,,,,,,,,,,,,,,,
,,,,,,,,,,,,l,Correct!,0,8,8,91,1,t1.png,t4.png,3,0.0000131,19,woman,2020-11-07_15h10.57.915,torte-q,2020.1.3,Win32,60,13249,1.187,,,,,,,,,,,,,,,,,,,,,,,,,,,,,,,,,,,,,,,,,,,,
,,,,,,,,,,,,a,Incorrect,0,9,9,4,1,t1.png,t5.png,4,9.55E-11,19,woman,2020-11-07_15h10.57.915,torte-q,2020.1.3,Win32,60,13249,0.801,,,,,,,,,,,,,,,,,,,,,,,,,,,,,,,,,,,,,,,,,,,,
,,,,,,,,,,,,l,Correct!,0,10,10,29,1,t5.png,t5.png,0,0.97829,19,woman,2020-11-07_15h10.57.915,torte-q,2020.1.3,Win32,60,13249,0.665,,,,,,,,,,,,,,,,,,,,,,,,,,,,,,,,,,,,,,,,,,,,
,,,,,,,,,,,,l,Correct!,0,11,11,98,1,t2.png,t4.png,2,0.0591,19,woman,2020-11-07_15h10.57.915,torte-q,2020.1.3,Win32,60,13249,0.219,,,,,,,,,,,,,,,,,,,,,,,,,,,,,,,,,,,,,,,,,,,,
,,,,,,,,,,,,a,Incorrect,0,12,12,94,1,t5.png,t1.png,4,9.55E-11,19,woman,2020-11-07_15h10.57.915,torte-q,2020.1.3,Win32,60,13249,0.584,,,,,,,,,,,,,,,,,,,,,,,,,,,,,,,,,,,,,,,,,,,,
,,,,,,,,,,,,l,Incorrect,0,13,13,66,1,t4.png,t5.png,1,0.9,19,woman,2020-11-07_15h10.57.915,torte-q,2020.1.3,Win32,60,13249,0.167,,,,,,,,,,,,,,,,,,,,,,,,,,,,,,,,,,,,,,,,,,,,
,,,,,,,,,,,,l,Correct!,0,14,14,80,1,t1.png,t4.png,3,0.0000131,19,woman,2020-11-07_15h10.57.915,torte-q,2020.1.3,Win32,60,13249,0.739,,,,,,,,,,,,,,,,,,,,,,,,,,,,,,,,,,,,,,,,,,,,
,,,,,,,,,,,,a,Correct!,0,15,15,13,1,t5.png,t5.png,0,0.97829,19,woman,2020-11-07_15h10.57.915,torte-q,2020.1.3,Win32,60,13249,1.855,,,,,,,,,,,,,,,,,,,,,,,,,,,,,,,,,,,,,,,,,,,,
,,,,,,,,,,,,l,Correct!,0,16,16,89,1,t1.png,t4.png,3,0.0000131,19,woman,2020-11-07_15h10.57.915,torte-q,2020.1.3,Win32,60,13249,0.199,,,,,,,,,,,,,,,,,,,,,,,,,,,,,,,,,,,,,,,,,,,,
,,,,,,,,,,,,a,Incorrect,0,17,17,102,1,t4.png,t2.png,2,0.059078,19,woman,2020-11-07_15h10.57.915,torte-q,2020.1.3,Win32,60,13249,0.885,,,,,,,,,,,,,,,,,,,,,,,,,,,,,,,,,,,,,,,,,,,,
,,,,,,,,,,,,l,Correct!,0,18,18,54,1,t1.png,t5.png,4,9.55E-11,19,woman,2020-11-07_15h10.57.915,torte-q,2020.1.3,Win32,60,13249,0.535,,,,,,,,,,,,,,,,,,,,,,,,,,,,,,,,,,,,,,,,,,,,
,,,,,,,,,,,,l,Incorrect,0,19,19,21,1,t5.png,t4.png,1,0.90025,19,woman,2020-11-07_15h10.57.915,torte-q,2020.1.3,Win32,60,13249,0.567,,,,,,,,,,,,,,,,,,,,,,,,,,,,,,,,,,,,,,,,,,,,
,,,,,,,,,,,,a,Correct!,0,20,20,81,1,t1.png,t1.png,0,0.97829,19,woman,2020-11-07_15h10.57.915,torte-q,2020.1.3,Win32,60,13249,0.452,,,,,,,,,,,,,,,,,,,,,,,,,,,,,,,,,,,,,,,,,,,,
,,,,,,,,,,,,l,Correct!,0,21,21,55,1,t2.png,t4.png,2,0.059078,19,woman,2020-11-07_15h10.57.915,torte-q,2020.1.3,Win32,60,13249,0.531,,,,,,,,,,,,,,,,,,,,,,,,,,,,,,,,,,,,,,,,,,,,
,,,,,,,,,,,,a,Incorrect,0,22,22,117,1,t1.png,t5.png,4,9.55E-11,19,woman,2020-11-07_15h10.57.915,torte-q,2020.1.3,Win32,60,13249,1.704,,,,,,,,,,,,,,,,,,,,,,,,,,,,,,,,,,,,,,,,,,,,
,,,,,,,,,,,,l,Correct!,0,23,23,56,1,t5.png,t1.png,4,9.55E-11,19,woman,2020-11-07_15h10.57.915,torte-q,2020.1.3,Win32,60,13249,0.249,,,,,,,,,,,,,,,,,,,,,,,,,,,,,,,,,,,,,,,,,,,,
,,,,,,,,,,,,a,Incorrect,0,24,24,23,1,t5.png,t4.png,1,0.90025,19,woman,2020-11-07_15h10.57.915,torte-q,2020.1.3,Win32,60,13249,1.786,,,,,,,,,,,,,,,,,,,,,,,,,,,,,,,,,,,,,,,,,,,,
,,,,,,,,,,,,l,Correct!,0,25,25,27,1,t3.png,t1.png,2,0.0565,19,woman,2020-11-07_15h10.57.915,torte-q,2020.1.3,Win32,60,13249,1.231,,,,,,,,,,,,,,,,,,,,,,,,,,,,,,,,,,,,,,,,,,,,
,,,,,,,,,,,,a,Incorrect,0,26,26,60,1,t2.png,t4.png,2,0.059078,19,woman,2020-11-07_15h10.57.915,torte-q,2020.1.3,Win32,60,13249,1.43,,,,,,,,,,,,,,,,,,,,,,,,,,,,,,,,,,,,,,,,,,,,
,,,,,,,,,,,,l,Correct!,0,27,27,11,1,t1.png,t4.png,3,0.0000131,19,woman,2020-11-07_15h10.57.915,torte-q,2020.1.3,Win32,60,13249,1.182,,,,,,,,,,,,,,,,,,,,,,,,,,,,,,,,,,,,,,,,,,,,
,,,,,,,,,,,,l,Incorrect,0,28,28,97,1,t5.png,t5.png,0,0.97829,19,woman,2020-11-07_15h10.57.915,torte-q,2020.1.3,Win32,60,13249,1.986,,,,,,,,,,,,,,,,,,,,,,,,,,,,,,,,,,,,,,,,,,,,
,,,,,,,,,,,,l,Incorrect,0,29,29,63,1,t2.png,t3.png,1,0.909,19,woman,2020-11-07_15h10.57.915,torte-q,2020.1.3,Win32,60,13249,1.16,,,,,,,,,,,,,,,,,,,,,,,,,,,,,,,,,,,,,,,,,,,,
,,,,,,,,,,,,a,Incorrect,0,30,30,88,1,t3.png,t1.png,2,0.056466,19,woman,2020-11-07_15h10.57.915,torte-q,2020.1.3,Win32,60,13249,0.59,,,,,,,,,,,,,,,,,,,,,,,,,,,,,,,,,,,,,,,,,,,,
,,,,,,,,,,,,l,Correct!,0,31,31,0,1,t5.png,t1.png,4,9.55E-11,19,woman,2020-11-07_15h10.57.915,torte-q,2020.1.3,Win32,60,13249,0.648,,,,,,,,,,,,,,,,,,,,,,,,,,,,,,,,,,,,,,,,,,,,
,,,,,,,,,,,,l,Correct!,0,32,32,50,1,t5.png,t1.png,4,9.55E-11,19,woman,2020-11-07_15h10.57.915,torte-q,2020.1.3,Win32,60,13249,1.635,,,,,,,,,,,,,,,,,,,,,,,,,,,,,,,,,,,,,,,,,,,,
,,,,,,,,,,,,l,Correct!,0,33,33,47,1,t4.png,t2.png,2,0.059078,19,woman,2020-11-07_15h10.57.915,torte-q,2020.1.3,Win32,60,13249,2.301,,,,,,,,,,,,,,,,,,,,,,,,,,,,,,,,,,,,,,,,,,,,
,,,,,,,,,,,,,Too slow :(,0,34,34,58,1,t5.png,t4.png,1,0.90025,19,woman,2020-11-07_15h10.57.915,torte-q,2020.1.3,Win32,60,13249,,,,,,,,,,,,,,,,,,,,,,,,,,,,,,,,,,,,,,,,,,,,,
,,,,,,,,,,,,l,Incorrect,0,35,35,109,1,t5.png,t5.png,0,0.97829,19,woman,2020-11-07_15h10.57.915,torte-q,2020.1.3,Win32,60,13249,1.098,,,,,,,,,,,,,,,,,,,,,,,,,,,,,,,,,,,,,,,,,,,,
,,,,,,,,,,,,a,Correct!,0,36,36,22,1,t2.png,t3.png,1,0.90855,19,woman,2020-11-07_15h10.57.915,torte-q,2020.1.3,Win32,60,13249,0.206,,,,,,,,,,,,,,,,,,,,,,,,,,,,,,,,,,,,,,,,,,,,
,,,,,,,,,,,,l,Correct!,0,37,37,5,1,t2.png,t4.png,2,0.059078,19,woman,2020-11-07_15h10.57.915,torte-q,2020.1.3,Win32,60,13249,0.648,,,,,,,,,,,,,,,,,,,,,,,,,,,,,,,,,,,,,,,,,,,,
,,,,,,,,,,,,l,Correct!,0,38,38,43,1,t4.png,t2.png,2,0.059078,19,woman,2020-11-07_15h10.57.915,torte-q,2020.1.3,Win32,60,13249,0.634,,,,,,,,,,,,,,,,,,,,,,,,,,,,,,,,,,,,,,,,,,,,
,,,,,,,,,,,,a,Correct!,0,39,39,95,1,t1.png,t1.png,0,0.978,19,woman,2020-11-07_15h10.57.915,torte-q,2020.1.3,Win32,60,13249,0.413,,,,,,,,,,,,,,,,,,,,,,,,,,,,,,,,,,,,,,,,,,,,
,,,,,,,,,,,,l,Correct!,0,40,40,33,1,t5.png,t1.png,4,9.55E-11,19,woman,2020-11-07_15h10.57.915,torte-q,2020.1.3,Win32,60,13249,0.401,,,,,,,,,,,,,,,,,,,,,,,,,,,,,,,,,,,,,,,,,,,,
,,,,,,,,,,,,l,Incorrect,0,41,41,34,1,t5.png,t4.png,1,0.9,19,woman,2020-11-07_15h10.57.915,torte-q,2020.1.3,Win32,60,13249,0.071,,,,,,,,,,,,,,,,,,,,,,,,,,,,,,,,,,,,,,,,,,,,
,,,,,,,,,,,,a,Incorrect,0,42,42,90,1,t1.png,t5.png,4,9.55E-11,19,woman,2020-11-07_15h10.57.915,torte-q,2020.1.3,Win32,60,13249,0.42,,,,,,,,,,,,,,,,,,,,,,,,,,,,,,,,,,,,,,,,,,,,
,,,,,,,,,,,,l,Correct!,0,43,43,52,1,t2.png,t4.png,2,0.059078,19,woman,2020-11-07_15h10.57.915,torte-q,2020.1.3,Win32,60,13249,0.568,,,,,,,,,,,,,,,,,,,,,,,,,,,,,,,,,,,,,,,,,,,,
,,,,,,,,,,,,l,Correct!,0,44,44,119,1,t1.png,t5.png,4,9.55E-11,19,woman,2020-11-07_15h10.57.915,torte-q,2020.1.3,Win32,60,13249,1.287,,,,,,,,,,,,,,,,,,,,,,,,,,,,,,,,,,,,,,,,,,,,
,,,,,,,,,,,,l,Correct!,0,45,45,115,1,t2.png,t4.png,2,0.059078,19,woman,2020-11-07_15h10.57.915,torte-q,2020.1.3,Win32,60,13249,1.067,,,,,,,,,,,,,,,,,,,,,,,,,,,,,,,,,,,,,,,,,,,,
,,,,,,,,,,,,l,Correct!,0,46,46,28,1,t2.png,t3.png,1,0.909,19,woman,2020-11-07_15h10.57.915,torte-q,2020.1.3,Win32,60,13249,1,,,,,,,,,,,,,,,,,,,,,,,,,,,,,,,,,,,,,,,,,,,,
,,,,,,,,,,,,l,Incorrect,0,47,47,71,1,t5.png,t5.png,0,0.97829,19,woman,2020-11-07_15h10.57.915,torte-q,2020.1.3,Win32,60,13249,1.484,,,,,,,,,,,,,,,,,,,,,,,,,,,,,,,,,,,,,,,,,,,,
,,,,,,,,,,,,l,Correct!,0,48,48,104,1,t2.png,t3.png,1,0.90855,19,woman,2020-11-07_15h10.57.915,torte-q,2020.1.3,Win32,60,13249,1.134,,,,,,,,,,,,,,,,,,,,,,,,,,,,,,,,,,,,,,,,,,,,
,,,,,,,,,,,,a,Incorrect,0,49,49,73,1,t4.png,t2.png,2,0.059078,19,woman,2020-11-07_15h10.57.915,torte-q,2020.1.3,Win32,60,13249,0.801,,,,,,,,,,,,,,,,,,,,,,,,,,,,,,,,,,,,,,,,,,,,
,,,,,,,,,,,,l,Incorrect,0,50,50,64,1,t1.png,t1.png,0,0.978,19,woman,2020-11-07_15h10.57.915,torte-q,2020.1.3,Win32,60,13249,0.686,,,,,,,,,,,,,,,,,,,,,,,,,,,,,,,,,,,,,,,,,,,,
,,,,,,,,,,,,a,Correct!,0,51,51,62,1,t5.png,t5.png,0,0.978,19,woman,2020-11-07_15h10.57.915,torte-q,2020.1.3,Win32,60,13249,0.647,,,,,,,,,,,,,,,,,,,,,,,,,,,,,,,,,,,,,,,,,,,,
,,,,,,,,,,,,l,Correct!,0,52,52,44,1,t2.png,t3.png,1,0.909,19,woman,2020-11-07_15h10.57.915,torte-q,2020.1.3,Win32,60,13249,0.423,,,,,,,,,,,,,,,,,,,,,,,,,,,,,,,,,,,,,,,,,,,,
,,,,,,,,,,,,l,Correct!,0,53,53,53,1,t3.png,t1.png,2,0.056466,19,woman,2020-11-07_15h10.57.915,torte-q,2020.1.3,Win32,60,13249,0.349,,,,,,,,,,,,,,,,,,,,,,,,,,,,,,,,,,,,,,,,,,,,
,,,,,,,,,,,,a,Incorrect,0,54,54,12,1,t5.png,t1.png,4,9.55E-11,19,woman,2020-11-07_15h10.57.915,torte-q,2020.1.3,Win32,60,13249,0.848,,,,,,,,,,,,,,,,,,,,,,,,,,,,,,,,,,,,,,,,,,,,
,,,,,,,,,,,,l,Incorrect,0,55,55,48,1,t5.png,t5.png,0,0.97829,19,woman,2020-11-07_15h10.57.915,torte-q,2020.1.3,Win32,60,13249,0.907,,,,,,,,,,,,,,,,,,,,,,,,,,,,,,,,,,,,,,,,,,,,
,,,,,,,,,,,,l,Correct!,0,56,56,40,1,t1.png,t5.png,4,9.55E-11,19,woman,2020-11-07_15h10.57.915,torte-q,2020.1.3,Win32,60,13249,1.054,,,,,,,,,,,,,,,,,,,,,,,,,,,,,,,,,,,,,,,,,,,,
,,,,,,,,,,,,l,Incorrect,0,57,57,114,1,t2.png,t3.png,1,0.90855,19,woman,2020-11-07_15h10.57.915,torte-q,2020.1.3,Win32,60,13249,1.404,,,,,,,,,,,,,,,,,,,,,,,,,,,,,,,,,,,,,,,,,,,,
,,,,,,,,,,,,a,Incorrect,0,58,58,108,1,t5.png,t1.png,4,9.55E-11,19,woman,2020-11-07_15h10.57.915,torte-q,2020.1.3,Win32,60,13249,0.77,,,,,,,,,,,,,,,,,,,,,,,,,,,,,,,,,,,,,,,,,,,,
,,,,,,,,,,,,l,Incorrect,0,59,59,74,1,t5.png,t4.png,1,0.9,19,woman,2020-11-07_15h10.57.915,torte-q,2020.1.3,Win32,60,13249,1.386,,,,,,,,,,,,,,,,,,,,,,,,,,,,,,,,,,,,,,,,,,,,
,,,,,,,,,,,,l,Correct!,0,60,60,37,1,t1.png,t4.png,3,0.0000131,19,woman,2020-11-07_15h10.57.915,torte-q,2020.1.3,Win32,60,13249,1.453,,,,,,,,,,,,,,,,,,,,,,,,,,,,,,,,,,,,,,,,,,,,
,,,,,,,,,,,,l,Correct!,0,61,61,14,1,t2.png,t4.png,2,0.059078,19,woman,2020-11-07_15h10.57.915,torte-q,2020.1.3,Win32,60,13249,0.906,,,,,,,,,,,,,,,,,,,,,,,,,,,,,,,,,,,,,,,,,,,,
,,,,,,,,,,,,a,Correct!,0,62,62,41,1,t3.png,t2.png,1,0.90855,19,woman,2020-11-07_15h10.57.915,torte-q,2020.1.3,Win32,60,13249,0.767,,,,,,,,,,,,,,,,,,,,,,,,,,,,,,,,,,,,,,,,,,,,
,,,,,,,,,,,,a,Correct!,0,63,63,112,1,t1.png,t1.png,0,0.97829,19,woman,2020-11-07_15h10.57.915,torte-q,2020.1.3,Win32,60,13249,0.8,,,,,,,,,,,,,,,,,,,,,,,,,,,,,,,,,,,,,,,,,,,,
,,,,,,,,,,,,l,Correct!,0,64,64,67,1,t1.png,t5.png,4,9.55E-11,19,woman,2020-11-07_15h10.57.915,torte-q,2020.1.3,Win32,60,13249,1.069,,,,,,,,,,,,,,,,,,,,,,,,,,,,,,,,,,,,,,,,,,,,
,,,,,,,,,,,,l,Incorrect,0,65,65,59,1,t5.png,t4.png,1,0.9,19,woman,2020-11-07_15h10.57.915,torte-q,2020.1.3,Win32,60,13249,0.357,,,,,,,,,,,,,,,,,,,,,,,,,,,,,,,,,,,,,,,,,,,,
,,,,,,,,,,,,l,Incorrect,0,66,66,15,1,t3.png,t2.png,1,0.90855,19,woman,2020-11-07_15h10.57.915,torte-q,2020.1.3,Win32,60,13249,0.732,,,,,,,,,,,,,,,,,,,,,,,,,,,,,,,,,,,,,,,,,,,,
,,,,,,,,,,,,l,Correct!,0,67,67,86,1,t3.png,t1.png,2,0.056466,19,woman,2020-11-07_15h10.57.915,torte-q,2020.1.3,Win32,60,13249,0.718,,,,,,,,,,,,,,,,,,,,,,,,,,,,,,,,,,,,,,,,,,,,
,,,,,,,,,,,,l,Correct!,0,68,68,46,1,t4.png,t2.png,2,0.059078,19,woman,2020-11-07_15h10.57.915,torte-q,2020.1.3,Win32,60,13249,0.167,,,,,,,,,,,,,,,,,,,,,,,,,,,,,,,,,,,,,,,,,,,,
,,,,,,,,,,,,l,Incorrect,0,69,69,76,1,t3.png,t2.png,1,0.90855,19,woman,2020-11-07_15h10.57.915,torte-q,2020.1.3,Win32,60,13249,0.22,,,,,,,,,,,,,,,,,,,,,,,,,,,,,,,,,,,,,,,,,,,,
,,,,,,,,,,,,l,Incorrect,0,70,70,8,1,t3.png,t2.png,1,0.90855,19,woman,2020-11-07_15h10.57.915,torte-q,2020.1.3,Win32,60,13249,1.288,,,,,,,,,,,,,,,,,,,,,,,,,,,,,,,,,,,,,,,,,,,,
,,,,,,,,,,,,a,Correct!,0,71,71,106,1,t2.png,t3.png,1,0.90855,19,woman,2020-11-07_15h10.57.915,torte-q,2020.1.3,Win32,60,13249,0.532,,,,,,,,,,,,,,,,,,,,,,,,,,,,,,,,,,,,,,,,,,,,
,,,,,,,,,,,,a,Correct!,0,72,72,77,1,t1.png,t1.png,0,0.97829,19,woman,2020-11-07_15h10.57.915,torte-q,2020.1.3,Win32,60,13249,0.5,,,,,,,,,,,,,,,,,,,,,,,,,,,,,,,,,,,,,,,,,,,,
,,,,,,,,,,,,a,Correct!,0,73,73,10,1,t2.png,t3.png,1,0.90855,19,woman,2020-11-07_15h10.57.915,torte-q,2020.1.3,Win32,60,13249,1.436,,,,,,,,,,,,,,,,,,,,,,,,,,,,,,,,,,,,,,,,,,,,
,,,,,,,,,,,,l,Correct!,0,74,74,87,1,t5.png,t1.png,4,9.55E-11,19,woman,2020-11-07_15h10.57.915,torte-q,2020.1.3,Win32,60,13249,0.482,,,,,,,,,,,,,,,,,,,,,,,,,,,,,,,,,,,,,,,,,,,,
,,,,,,,,,,,,a,Incorrect,0,75,75,24,1,t4.png,t2.png,2,0.059078,19,woman,2020-11-07_15h10.57.915,torte-q,2020.1.3,Win32,60,13249,1.223,,,,,,,,,,,,,,,,,,,,,,,,,,,,,,,,,,,,,,,,,,,,
,,,,,,,,,,,,l,Correct!,0,76,76,6,1,t1.png,t4.png,3,0.0000131,19,woman,2020-11-07_15h10.57.915,torte-q,2020.1.3,Win32,60,13249,0.555,,,,,,,,,,,,,,,,,,,,,,,,,,,,,,,,,,,,,,,,,,,,
,,,,,,,,,,,,l,Correct!,0,77,77,35,1,t1.png,t4.png,3,0.0000131,19,woman,2020-11-07_15h10.57.915,torte-q,2020.1.3,Win32,60,13249,0.489,,,,,,,,,,,,,,,,,,,,,,,,,,,,,,,,,,,,,,,,,,,,
,,,,,,,,,,,,l,Incorrect,0,78,78,16,1,t5.png,t4.png,1,0.9,19,woman,2020-11-07_15h10.57.915,torte-q,2020.1.3,Win32,60,13249,0.021,,,,,,,,,,,,,,,,,,,,,,,,,,,,,,,,,,,,,,,,,,,,
,,,,,,,,,,,,l,Incorrect,0,79,79,49,1,t4.png,t5.png,1,0.9,19,woman,2020-11-07_15h10.57.915,torte-q,2020.1.3,Win32,60,13249,0.085,,,,,,,,,,,,,,,,,,,,,,,,,,,,,,,,,,,,,,,,,,,,
,,,,,,,,,,,,l,Incorrect,0,80,80,18,1,t4.png,t5.png,1,0.90025,19,woman,2020-11-07_15h10.57.915,torte-q,2020.1.3,Win32,60,13249,0.112,,,,,,,,,,,,,,,,,,,,,,,,,,,,,,,,,,,,,,,,,,,,
,,,,,,,,,,,,l,Correct!,0,81,81,3,1,t1.png,t5.png,4,9.55E-11,19,woman,2020-11-07_15h10.57.915,torte-q,2020.1.3,Win32,60,13249,0.091,,,,,,,,,,,,,,,,,,,,,,,,,,,,,,,,,,,,,,,,,,,,
,,,,,,,,,,,,l,Correct!,0,82,82,103,1,t3.png,t1.png,2,0.056466,19,woman,2020-11-07_15h10.57.915,torte-q,2020.1.3,Win32,60,13249,0.468,,,,,,,,,,,,,,,,,,,,,,,,,,,,,,,,,,,,,,,,,,,,
,,,,,,,,,,,,a,Incorrect,0,83,83,61,1,t1.png,t4.png,3,0.0000131,19,woman,2020-11-07_15h10.57.915,torte-q,2020.1.3,Win32,60,13249,0.018,,,,,,,,,,,,,,,,,,,,,,,,,,,,,,,,,,,,,,,,,,,,
,,,,,,,,,,,,a,Incorrect,0,84,84,69,1,t4.png,t2.png,2,0.059078,19,woman,2020-11-07_15h10.57.915,torte-q,2020.1.3,Win32,60,13249,0.216,,,,,,,,,,,,,,,,,,,,,,,,,,,,,,,,,,,,,,,,,,,,
,,,,,,,,,,,,l,Correct!,0,85,85,51,1,t3.png,t1.png,2,0.056466,19,woman,2020-11-07_15h10.57.915,torte-q,2020.1.3,Win32,60,13249,0.173,,,,,,,,,,,,,,,,,,,,,,,,,,,,,,,,,,,,,,,,,,,,
,,,,,,,,,,,,a,Incorrect,0,86,86,83,1,t3.png,t1.png,2,0.056466,19,woman,2020-11-07_15h10.57.915,torte-q,2020.1.3,Win32,60,13249,0.346,,,,,,,,,,,,,,,,,,,,,,,,,,,,,,,,,,,,,,,,,,,,
,,,,,,,,,,,,l,Incorrect,0,87,87,79,1,t3.png,t2.png,1,0.909,19,woman,2020-11-07_15h10.57.915,torte-q,2020.1.3,Win32,60,13249,0.035,,,,,,,,,,,,,,,,,,,,,,,,,,,,,,,,,,,,,,,,,,,,
,,,,,,,,,,,,l,Incorrect,0,88,88,9,1,t4.png,t5.png,1,0.9,19,woman,2020-11-07_15h10.57.915,torte-q,2020.1.3,Win32,60,13249,0.607,,,,,,,,,,,,,,,,,,,,,,,,,,,,,,,,,,,,,,,,,,,,
,,,,,,,,,,,,a,Correct!,0,89,89,45,1,t3.png,t2.png,1,0.90855,19,woman,2020-11-07_15h10.57.915,torte-q,2020.1.3,Win32,60,13249,0.505,,,,,,,,,,,,,,,,,,,,,,,,,,,,,,,,,,,,,,,,,,,,
,,,,,,,,,,,,l,Incorrect,0,90,90,84,1,t1.png,t1.png,0,0.97829,19,woman,2020-11-07_15h10.57.915,torte-q,2020.1.3,Win32,60,13249,0.665,,,,,,,,,,,,,,,,,,,,,,,,,,,,,,,,,,,,,,,,,,,,
,,,,,,,,,,,,a,Incorrect,0,91,91,1,1,t2.png,t4.png,2,0.059078,19,woman,2020-11-07_15h10.57.915,torte-q,2020.1.3,Win32,60,13249,0.534,,,,,,,,,,,,,,,,,,,,,,,,,,,,,,,,,,,,,,,,,,,,
,,,,,,,,,,,,l,Incorrect,0,92,92,75,1,t1.png,t1.png,0,0.97829,19,woman,2020-11-07_15h10.57.915,torte-q,2020.1.3,Win32,60,13249,0.468,,,,,,,,,,,,,,,,,,,,,,,,,,,,,,,,,,,,,,,,,,,,
,,,,,,,,,,,,l,Incorrect,0,93,93,101,1,t4.png,t5.png,1,0.90025,19,woman,2020-11-07_15h10.57.915,torte-q,2020.1.3,Win32,60,13249,0.384,,,,,,,,,,,,,,,,,,,,,,,,,,,,,,,,,,,,,,,,,,,,
,,,,,,,,,,,,a,Correct!,0,94,94,32,1,t4.png,t5.png,1,0.90025,19,woman,2020-11-07_15h10.57.915,torte-q,2020.1.3,Win32,60,13249,0.347,,,,,,,,,,,,,,,,,,,,,,,,,,,,,,,,,,,,,,,,,,,,
,,,,,,,,,,,,a,Correct!,0,95,95,96,1,t1.png,t1.png,0,0.97829,19,woman,2020-11-07_15h10.57.915,torte-q,2020.1.3,Win32,60,13249,0.386,,,,,,,,,,,,,,,,,,,,,,,,,,,,,,,,,,,,,,,,,,,,
,,,,,,,,,,,,a,Correct!,0,96,96,100,1,t4.png,t5.png,1,0.90025,19,woman,2020-11-07_15h10.57.915,torte-q,2020.1.3,Win32,60,13249,0.253,,,,,,,,,,,,,,,,,,,,,,,,,,,,,,,,,,,,,,,,,,,,
,,,,,,,,,,,,l,Correct!,0,97,97,68,1,t1.png,t4.png,3,0.0000131,19,woman,2020-11-07_15h10.57.915,torte-q,2020.1.3,Win32,60,13249,0.267,,,,,,,,,,,,,,,,,,,,,,,,,,,,,,,,,,,,,,,,,,,,
,,,,,,,,,,,,l,Incorrect,0,98,98,2,1,t3.png,t2.png,1,0.90855,19,woman,2020-11-07_15h10.57.915,torte-q,2020.1.3,Win32,60,13249,0.199,,,,,,,,,,,,,,,,,,,,,,,,,,,,,,,,,,,,,,,,,,,,
,,,,,,,,,,,,a,Incorrect,0,99,99,38,1,t3.png,t1.png,2,0.056466,19,woman,2020-11-07_15h10.57.915,torte-q,2020.1.3,Win32,60,13249,0.067,,,,,,,,,,,,,,,,,,,,,,,,,,,,,,,,,,,,,,,,,,,,
,,,,,,,,,,,,a,Correct!,0,100,100,20,1,t2.png,t3.png,1,0.90855,19,woman,2020-11-07_15h10.57.915,torte-q,2020.1.3,Win32,60,13249,0.04,,,,,,,,,,,,,,,,,,,,,,,,,,,,,,,,,,,,,,,,,,,,
,,,,,,,,,,,,a,Correct!,0,101,101,113,1,t5.png,t4.png,1,0.9,19,woman,2020-11-07_15h10.57.915,torte-q,2020.1.3,Win32,60,13249,0.034,,,,,,,,,,,,,,,,,,,,,,,,,,,,,,,,,,,,,,,,,,,,
,,,,,,,,,,,,a,Incorrect,0,102,102,36,1,t3.png,t1.png,2,0.0565,19,woman,2020-11-07_15h10.57.915,torte-q,2020.1.3,Win32,60,13249,0.271,,,,,,,,,,,,,,,,,,,,,,,,,,,,,,,,,,,,,,,,,,,,
,,,,,,,,,,,,a,Incorrect,0,103,103,93,1,t2.png,t4.png,2,0.059078,19,woman,2020-11-07_15h10.57.915,torte-q,2020.1.3,Win32,60,13249,0.169,,,,,,,,,,,,,,,,,,,,,,,,,,,,,,,,,,,,,,,,,,,,
,,,,,,,,,,,,a,Incorrect,0,104,104,82,1,t5.png,t1.png,4,9.55E-11,19,woman,2020-11-07_15h10.57.915,torte-q,2020.1.3,Win32,60,13249,0.249,,,,,,,,,,,,,,,,,,,,,,,,,,,,,,,,,,,,,,,,,,,,
,,,,,,,,,,,,a,Incorrect,0,105,105,57,1,t2.png,t4.png,2,0.059078,19,woman,2020-11-07_15h10.57.915,torte-q,2020.1.3,Win32,60,13249,0.067,,,,,,,,,,,,,,,,,,,,,,,,,,,,,,,,,,,,,,,,,,,,
,,,,,,,,,,,,a,Incorrect,0,106,106,26,1,t4.png,t2.png,2,0.0591,19,woman,2020-11-07_15h10.57.915,torte-q,2020.1.3,Win32,60,13249,0.336,,,,,,,,,,,,,,,,,,,,,,,,,,,,,,,,,,,,,,,,,,,,
,,,,,,,,,,,,a,Incorrect,0,107,107,30,1,t3.png,t1.png,2,0.056466,19,woman,2020-11-07_15h10.57.915,torte-q,2020.1.3,Win32,60,13249,0.07,,,,,,,,,,,,,,,,,,,,,,,,,,,,,,,,,,,,,,,,,,,,
,,,,,,,,,,,,a,Correct!,0,108,108,65,1,t4.png,t5.png,1,0.90025,19,woman,2020-11-07_15h10.57.915,torte-q,2020.1.3,Win32,60,13249,0.12,,,,,,,,,,,,,,,,,,,,,,,,,,,,,,,,,,,,,,,,,,,,
,,,,,,,,,,,,a,Correct!,0,109,109,70,1,t5.png,t5.png,0,0.978,19,woman,2020-11-07_15h10.57.915,torte-q,2020.1.3,Win32,60,13249,0.733,,,,,,,,,,,,,,,,,,,,,,,,,,,,,,,,,,,,,,,,,,,,
,,,,,,,,,,,,a,Correct!,0,110,110,107,1,t1.png,t1.png,0,0.978,19,woman,2020-11-07_15h10.57.915,torte-q,2020.1.3,Win32,60,13249,0.832,,,,,,,,,,,,,,,,,,,,,,,,,,,,,,,,,,,,,,,,,,,,
,,,,,,,,,,,,a,Correct!,0,111,111,105,1,t3.png,t2.png,1,0.90855,19,woman,2020-11-07_15h10.57.915,torte-q,2020.1.3,Win32,60,13249,0.582,,,,,,,,,,,,,,,,,,,,,,,,,,,,,,,,,,,,,,,,,,,,
,,,,,,,,,,,,a,Correct!,0,112,112,85,1,t3.png,t2.png,1,0.90855,19,woman,2020-11-07_15h10.57.915,torte-q,2020.1.3,Win32,60,13249,0.789,,,,,,,,,,,,,,,,,,,,,,,,,,,,,,,,,,,,,,,,,,,,
,,,,,,,,,,,,a,Correct!,0,113,113,42,1,t5.png,t4.png,1,0.90025,19,woman,2020-11-07_15h10.57.915,torte-q,2020.1.3,Win32,60,13249,0.935,,,,,,,,,,,,,,,,,,,,,,,,,,,,,,,,,,,,,,,,,,,,
,,,,,,,,,,,,a,Correct!,0,114,114,116,1,t5.png,t4.png,1,0.90025,19,woman,2020-11-07_15h10.57.915,torte-q,2020.1.3,Win32,60,13249,0.972,,,,,,,,,,,,,,,,,,,,,,,,,,,,,,,,,,,,,,,,,,,,
,,,,,,,,,,,,a,Correct!,0,115,115,39,1,t3.png,t2.png,1,0.90855,19,woman,2020-11-07_15h10.57.915,torte-q,2020.1.3,Win32,60,13249,2.017,,,,,,,,,,,,,,,,,,,,,,,,,,,,,,,,,,,,,,,,,,,,
,,,,,,,,,,,,l,Incorrect,0,116,116,110,1,t4.png,t5.png,1,0.90025,19,woman,2020-11-07_15h10.57.915,torte-q,2020.1.3,Win32,60,13249,1.587,,,,,,,,,,,,,,,,,,,,,,,,,,,,,,,,,,,,,,,,,,,,
,,,,,,,,,,,,a,Correct!,0,117,117,7,1,t4.png,t5.png,1,0.90025,19,woman,2020-11-07_15h10.57.915,torte-q,2020.1.3,Win32,60,13249,0.067,,,,,,,,,,,,,,,,,,,,,,,,,,,,,,,,,,,,,,,,,,,,
,,,,,,,,,,,,a,Incorrect,0,118,118,72,1,t4.png,t2.png,2,0.059078,19,woman,2020-11-07_15h10.57.915,torte-q,2020.1.3,Win32,60,13249,0.451,,,,,,,,,,,,,,,,,,,,,,,,,,,,,,,,,,,,,,,,,,,,
,,,,,,,,,,,,a,Correct!,0,119,119,92,1,t2.png,t3.png,1,0.909,19,woman,2020-11-07_15h10.57.915,torte-q,2020.1.3,Win32,60,13249,0.421,,,,,,,,,,,,,,,,,,,,,,,,,,,,,,,,,,,,,,,,,,,,
,,,,,,,,,,,,l,Correct!,,,,,,t2.png,t3.png,1,0.909,19,woman,2020-11-07_15h10.57.915,torte-q,2020.1.3,Win32,60,13249,1.285,space,1.726,space,15.176,0,0,0,74,1,,,,,,,,,,,,,,,,,,,,,,,,,,,,,,,,,,,
,,,,,,,,,,,,l,Correct!,,,,,,t2.png,t5.png,3,0.0000131,19,woman,2020-11-07_15h10.57.915,torte-q,2020.1.3,Win32,60,13249,0.619,,,,,0,1,1,40,1,,,,,,,,,,,,,,,,,,,,,,,,,,,,,,,,,,,
,,,,,,,,,,,,l,Correct!,,,,,,t2.png,t4.png,2,0.059078,19,woman,2020-11-07_15h10.57.915,torte-q,2020.1.3,Win32,60,13249,0.986,,,,,0,2,2,24,1,,,,,,,,,,,,,,,,,,,,,,,,,,,,,,,,,,,
,,,,,,,,,,,,l,Correct!,,,,,,t1.png,t4.png,3,0.0000131,19,woman,2020-11-07_15h10.57.915,torte-q,2020.1.3,Win32,60,13249,0.983,,,,,0,3,3,17,1,,,,,,,,,,,,,,,,,,,,,,,,,,,,,,,,,,,
,,,,,,,,,,,,l,Correct!,,,,,,t1.png,t3.png,2,0.056466,19,woman,2020-11-07_15h10.57.915,torte-q,2020.1.3,Win32,60,13249,0.77,,,,,0,4,4,69,1,,,,,,,,,,,,,,,,,,,,,,,,,,,,,,,,,,,
,,,,,,,,,,,,l,Incorrect,,,,,,t3.png,t4.png,1,0.90855,19,woman,2020-11-07_15h10.57.915,torte-q,2020.1.3,Win32,60,13249,0.98,,,,,0,5,5,96,1,,,,,,,,,,,,,,,,,,,,,,,,,,,,,,,,,,,
,,,,,,,,,,,,a,Incorrect,,,,,,t5.png,t3.png,2,0.056466,19,woman,2020-11-07_15h10.57.915,torte-q,2020.1.3,Win32,60,13249,0.703,,,,,0,6,6,108,1,,,,,,,,,,,,,,,,,,,,,,,,,,,,,,,,,,,
,,,,,,,,,,,,a,Incorrect,,,,,,t5.png,t1.png,4,9.55E-11,19,woman,2020-11-07_15h10.57.915,torte-q,2020.1.3,Win32,60,13249,0.601,,,,,0,7,7,71,1,,,,,,,,,,,,,,,,,,,,,,,,,,,,,,,,,,,
,,,,,,,,,,,,a,Correct!,,,,,,t5.png,t4.png,1,0.90025,19,woman,2020-11-07_15h10.57.915,torte-q,2020.1.3,Win32,60,13249,0.686,,,,,0,8,8,27,1,,,,,,,,,,,,,,,,,,,,,,,,,,,,,,,,,,,
,,,,,,,,,,,,a,Correct!,,,,,,t5.png,t4.png,1,0.9,19,woman,2020-11-07_15h10.57.915,torte-q,2020.1.3,Win32,60,13249,1.034,,,,,0,9,9,76,1,,,,,,,,,,,,,,,,,,,,,,,,,,,,,,,,,,,
,,,,,,,,,,,,a,Incorrect,,,,,,t4.png,t1.png,3,0.0000131,19,woman,2020-11-07_15h10.57.915,torte-q,2020.1.3,Win32,60,13249,0.616,,,,,0,10,10,61,1,,,,,,,,,,,,,,,,,,,,,,,,,,,,,,,,,,,
,,,,,,,,,,,,a,Correct!,,,,,,t2.png,t1.png,1,0.90025,19,woman,2020-11-07_15h10.57.915,torte-q,2020.1.3,Win32,60,13249,0.617,,,,,0,11,11,5,1,,,,,,,,,,,,,,,,,,,,,,,,,,,,,,,,,,,
,,,,,,,,,,,,l,Incorrect,,,,,,t1.png,t2.png,1,0.90025,19,woman,2020-11-07_15h10.57.915,torte-q,2020.1.3,Win32,60,13249,0.515,,,,,0,12,12,33,1,,,,,,,,,,,,,,,,,,,,,,,,,,,,,,,,,,,
,,,,,,,,,,,,a,Incorrect,,,,,,t3.png,t1.png,2,0.056466,19,woman,2020-11-07_15h10.57.915,torte-q,2020.1.3,Win32,60,13249,0.499,,,,,0,13,13,0,1,,,,,,,,,,,,,,,,,,,,,,,,,,,,,,,,,,,
,,,,,,,,,,,,a,Incorrect,,,,,,t4.png,t2.png,2,0.059078,19,woman,2020-11-07_15h10.57.915,torte-q,2020.1.3,Win32,60,13249,0.726,,,,,0,14,14,88,1,,,,,,,,,,,,,,,,,,,,,,,,,,,,,,,,,,,
,,,,,,,,,,,,l,Correct!,,,,,,t5.png,t5.png,0,0.978,19,woman,2020-11-07_15h10.57.915,torte-q,2020.1.3,Win32,60,13249,1.369,,,,,0,15,15,117,1,,,,,,,,,,,,,,,,,,,,,,,,,,,,,,,,,,,
,,,,,,,,,,,,a,Incorrect,,,,,,t5.png,t2.png,3,0.0000131,19,woman,2020-11-07_15h10.57.915,torte-q,2020.1.3,Win32,60,13249,1.737,,,,,0,16,16,51,1,,,,,,,,,,,,,,,,,,,,,,,,,,,,,,,,,,,
,,,,,,,,,,,,a,Correct!,,,,,,t4.png,t4.png,0,0.98115,19,woman,2020-11-07_15h10.57.915,torte-q,2020.1.3,Win32,60,13249,1.217,,,,,0,17,17,52,1,,,,,,,,,,,,,,,,,,,,,,,,,,,,,,,,,,,
,,,,,,,,,,,,l,Correct!,,,,,,t1.png,t5.png,4,9.55E-11,19,woman,2020-11-07_15h10.57.915,torte-q,2020.1.3,Win32,60,13249,0.638,,,,,0,18,18,16,1,,,,,,,,,,,,,,,,,,,,,,,,,,,,,,,,,,,
,,,,,,,,,,,,a,Correct!,,,,,,t2.png,t2.png,0,0.981,19,woman,2020-11-07_15h10.57.915,torte-q,2020.1.3,Win32,60,13249,0.796,,,,,0,19,19,101,1,,,,,,,,,,,,,,,,,,,,,,,,,,,,,,,,,,,
,,,,,,,,,,,,l,Incorrect,,,,,,t2.png,t3.png,1,0.90855,19,woman,2020-11-07_15h10.57.915,torte-q,2020.1.3,Win32,60,13249,1.085,,,,,0,20,20,68,1,,,,,,,,,,,,,,,,,,,,,,,,,,,,,,,,,,,
,,,,,,,,,,,,a,Correct!,,,,,,t4.png,t3.png,1,0.909,19,woman,2020-11-07_15h10.57.915,torte-q,2020.1.3,Win32,60,13249,1.447,,,,,0,21,21,46,1,,,,,,,,,,,,,,,,,,,,,,,,,,,,,,,,,,,
,,,,,,,,,,,,l,Incorrect,,,,,,t2.png,t2.png,0,0.98115,19,woman,2020-11-07_15h10.57.915,torte-q,2020.1.3,Win32,60,13249,1.538,,,,,0,22,22,57,1,,,,,,,,,,,,,,,,,,,,,,,,,,,,,,,,,,,
,,,,,,,,,,,,l,Correct!,,,,,,t2.png,t4.png,2,0.059078,19,woman,2020-11-07_15h10.57.915,torte-q,2020.1.3,Win32,60,13249,0.717,,,,,0,23,23,37,1,,,,,,,,,,,,,,,,,,,,,,,,,,,,,,,,,,,
,,,,,,,,,,,,a,Incorrect,,,,,,t5.png,t5.png,0,0.97829,19,woman,2020-11-07_15h10.57.915,torte-q,2020.1.3,Win32,60,13249,0.73,,,,,0,24,24,70,1,,,,,,,,,,,,,,,,,,,,,,,,,,,,,,,,,,,
,,,,,,,,,,,,a,Correct!,,,,,,t3.png,t2.png,1,0.909,19,woman,2020-11-07_15h10.57.915,torte-q,2020.1.3,Win32,60,13249,0.757,,,,,0,25,25,23,1,,,,,,,,,,,,,,,,,,,,,,,,,,,,,,,,,,,
,,,,,,,,,,,,a,Incorrect,,,,,,t5.png,t3.png,2,0.056466,19,woman,2020-11-07_15h10.57.915,torte-q,2020.1.3,Win32,60,13249,0.602,,,,,0,26,26,56,1,,,,,,,,,,,,,,,,,,,,,,,,,,,,,,,,,,,
,,,,,,,,,,,,l,Incorrect,,,,,,t1.png,t2.png,1,0.90025,19,woman,2020-11-07_15h10.57.915,torte-q,2020.1.3,Win32,60,13249,0.553,,,,,0,27,27,112,1,,,,,,,,,,,,,,,,,,,,,,,,,,,,,,,,,,,
,,,,,,,,,,,,l,Incorrect,,,,,,t1.png,t1.png,0,0.97829,19,woman,2020-11-07_15h10.57.915,torte-q,2020.1.3,Win32,60,13249,0.57,,,,,0,28,28,78,1,,,,,,,,,,,,,,,,,,,,,,,,,,,,,,,,,,,
,,,,,,,,,,,,l,Correct!,,,,,,t1.png,t3.png,2,0.056466,19,woman,2020-11-07_15h10.57.915,torte-q,2020.1.3,Win32,60,13249,0.118,,,,,0,29,29,60,1,,,,,,,,,,,,,,,,,,,,,,,,,,,,,,,,,,,
,,,,,,,,,,,,l,Correct!,,,,,,t2.png,t5.png,3,0.0000131,19,woman,2020-11-07_15h10.57.915,torte-q,2020.1.3,Win32,60,13249,0.037,,,,,0,30,30,95,1,,,,,,,,,,,,,,,,,,,,,,,,,,,,,,,,,,,
,,,,,,,,,,,,l,Incorrect,,,,,,t5.png,t4.png,1,0.90025,19,woman,2020-11-07_15h10.57.915,torte-q,2020.1.3,Win32,60,13249,0.153,,,,,0,31,31,34,1,,,,,,,,,,,,,,,,,,,,,,,,,,,,,,,,,,,
,,,,,,,,,,,,l,Incorrect,,,,,,t4.png,t5.png,1,0.90025,19,woman,2020-11-07_15h10.57.915,torte-q,2020.1.3,Win32,60,13249,0.067,,,,,0,32,32,113,1,,,,,,,,,,,,,,,,,,,,,,,,,,,,,,,,,,,
,,,,,,,,,,,,a,Incorrect,,,,,,t5.png,t1.png,4,9.55E-11,19,woman,2020-11-07_15h10.57.915,torte-q,2020.1.3,Win32,60,13249,1.268,,,,,0,33,33,43,1,,,,,,,,,,,,,,,,,,,,,,,,,,,,,,,,,,,
,,,,,,,,,,,,a,Incorrect,,,,,,t4.png,t2.png,2,0.059078,19,woman,2020-11-07_15h10.57.915,torte-q,2020.1.3,Win32,60,13249,1.2,,,,,0,34,34,109,1,,,,,,,,,,,,,,,,,,,,,,,,,,,,,,,,,,,
,,,,,,,,,,,,,Too slow :(,,,,,,t5.png,t5.png,0,0.97829,19,woman,2020-11-07_15h10.57.915,torte-q,2020.1.3,Win32,60,13249,,,,,,0,35,35,25,1,,,,,,,,,,,,,,,,,,,,,,,,,,,,,,,,,,,
,,,,,,,,,,,,a,Correct!,,,,,,t4.png,t4.png,0,0.98115,19,woman,2020-11-07_15h10.57.915,torte-q,2020.1.3,Win32,60,13249,0.833,,,,,0,36,36,90,1,,,,,,,,,,,,,,,,,,,,,,,,,,,,,,,,,,,
,,,,,,,,,,,,,Too slow :(,,,,,,t3.png,t1.png,2,0.056466,19,woman,2020-11-07_15h10.57.915,torte-q,2020.1.3,Win32,60,13249,,,,,,0,37,37,29,1,,,,,,,,,,,,,,,,,,,,,,,,,,,,,,,,,,,
,,,,,,,,,,,,l,Incorrect,,,,,,t2.png,t3.png,1,0.90855,19,woman,2020-11-07_15h10.57.915,torte-q,2020.1.3,Win32,60,13249,1.313,,,,,0,38,38,10,1,,,,,,,,,,,,,,,,,,,,,,,,,,,,,,,,,,,
,,,,,,,,,,,,a,Correct!,,,,,,t5.png,t5.png,0,0.97829,19,woman,2020-11-07_15h10.57.915,torte-q,2020.1.3,Win32,60,13249,1.902,,,,,0,39,39,73,1,,,,,,,,,,,,,,,,,,,,,,,,,,,,,,,,,,,
,,,,,,,,,,,,l,Correct!,,,,,,t3.png,t5.png,2,0.0565,19,woman,2020-11-07_15h10.57.915,torte-q,2020.1.3,Win32,60,13249,1.922,,,,,0,40,40,30,1,,,,,,,,,,,,,,,,,,,,,,,,,,,,,,,,,,,
,,,,,,,,,,,,l,Incorrect,,,,,,t4.png,t5.png,1,0.9,19,woman,2020-11-07_15h10.57.915,torte-q,2020.1.3,Win32,60,13249,0.872,,,,,0,41,41,115,1,,,,,,,,,,,,,,,,,,,,,,,,,,,,,,,,,,,
,,,,,,,,,,,,l,Incorrect,,,,,,t4.png,t4.png,0,0.98115,19,woman,2020-11-07_15h10.57.915,torte-q,2020.1.3,Win32,60,13249,0.5,,,,,0,42,42,21,1,,,,,,,,,,,,,,,,,,,,,,,,,,,,,,,,,,,
,,,,,,,,,,,,l,Incorrect,,,,,,t4.png,t5.png,1,0.90025,19,woman,2020-11-07_15h10.57.915,torte-q,2020.1.3,Win32,60,13249,0.9,,,,,0,43,43,47,1,,,,,,,,,,,,,,,,,,,,,,,,,,,,,,,,,,,
,,,,,,,,,,,,l,Incorrect,,,,,,t2.png,t2.png,0,0.98115,19,woman,2020-11-07_15h10.57.915,torte-q,2020.1.3,Win32,60,13249,0.488,,,,,0,44,44,7,1,,,,,,,,,,,,,,,,,,,,,,,,,,,,,,,,,,,
,,,,,,,,,,,,l,Correct!,,,,,,t2.png,t1.png,1,0.90025,19,woman,2020-11-07_15h10.57.915,torte-q,2020.1.3,Win32,60,13249,0.034,,,,,0,45,45,19,1,,,,,,,,,,,,,,,,,,,,,,,,,,,,,,,,,,,
,,,,,,,,,,,,l,Correct!,,,,,,t1.png,t5.png,4,9.55E-11,19,woman,2020-11-07_15h10.57.915,torte-q,2020.1.3,Win32,60,13249,0.1,,,,,0,46,46,55,1,,,,,,,,,,,,,,,,,,,,,,,,,,,,,,,,,,,
,,,,,,,,,,,,l,Correct!,,,,,,t2.png,t5.png,3,0.0000131,19,woman,2020-11-07_15h10.57.915,torte-q,2020.1.3,Win32,60,13249,0.021,,,,,0,47,47,66,1,,,,,,,,,,,,,,,,,,,,,,,,,,,,,,,,,,,
,,,,,,,,,,,,l,Incorrect,,,,,,t1.png,t1.png,0,0.97829,19,woman,2020-11-07_15h10.57.915,torte-q,2020.1.3,Win32,60,13249,0.133,,,,,0,48,48,9,1,,,,,,,,,,,,,,,,,,,,,,,,,,,,,,,,,,,
,,,,,,,,,,,,l,Correct!,,,,,,t5.png,t1.png,4,9.55E-11,19,woman,2020-11-07_15h10.57.915,torte-q,2020.1.3,Win32,60,13249,0.169,,,,,0,49,49,100,1,,,,,,,,,,,,,,,,,,,,,,,,,,,,,,,,,,,
,,,,,,,,,,,,l,Correct!,,,,,,t5.png,t3.png,2,0.056466,19,woman,2020-11-07_15h10.57.915,torte-q,2020.1.3,Win32,60,13249,0.084,,,,,0,50,50,38,1,,,,,,,,,,,,,,,,,,,,,,,,,,,,,,,,,,,
,,,,,,,,,,,,l,Incorrect,,,,,,t3.png,t2.png,1,0.909,19,woman,2020-11-07_15h10.57.915,torte-q,2020.1.3,Win32,60,13249,0.184,,,,,0,51,51,3,1,,,,,,,,,,,,,,,,,,,,,,,,,,,,,,,,,,,
,,,,,,,,,,,,l,Correct!,,,,,,t2.png,t4.png,2,0.059078,19,woman,2020-11-07_15h10.57.915,torte-q,2020.1.3,Win32,60,13249,0.019,,,,,0,52,52,77,1,,,,,,,,,,,,,,,,,,,,,,,,,,,,,,,,,,,
,,,,,,,,,,,,l,Correct!,,,,,,t5.png,t2.png,3,0.0000131,19,woman,2020-11-07_15h10.57.915,torte-q,2020.1.3,Win32,60,13249,1.435,,,,,0,53,53,98,1,,,,,,,,,,,,,,,,,,,,,,,,,,,,,,,,,,,
,,,,,,,,,,,,,Too slow :(,,,,,,t1.png,t5.png,4,9.55E-11,19,woman,2020-11-07_15h10.57.915,torte-q,2020.1.3,Win32,60,13249,,,,,,0,54,54,85,1,,,,,,,,,,,,,,,,,,,,,,,,,,,,,,,,,,,
,,,,,,,,,,,,a,Incorrect,,,,,,t4.png,t1.png,3,0.0000131,19,woman,2020-11-07_15h10.57.915,torte-q,2020.1.3,Win32,60,13249,1.465,,,,,0,55,55,93,1,,,,,,,,,,,,,,,,,,,,,,,,,,,,,,,,,,,
,,,,,,,,,,,,a,Correct!,,,,,,t1.png,t2.png,1,0.9,19,woman,2020-11-07_15h10.57.915,torte-q,2020.1.3,Win32,60,13249,2.433,,,,,0,56,56,1,1,,,,,,,,,,,,,,,,,,,,,,,,,,,,,,,,,,,
,,,,,,,,,,,,l,Correct!,,,,,,t1.png,t4.png,3,0.0000131,19,woman,2020-11-07_15h10.57.915,torte-q,2020.1.3,Win32,60,13249,2.236,,,,,0,57,57,81,1,,,,,,,,,,,,,,,,,,,,,,,,,,,,,,,,,,,
,,,,,,,,,,,,l,Incorrect,,,,,,t4.png,t4.png,0,0.98115,19,woman,2020-11-07_15h10.57.915,torte-q,2020.1.3,Win32,60,13249,1.12,,,,,0,58,58,80,1,,,,,,,,,,,,,,,,,,,,,,,,,,,,,,,,,,,
,,,,,,,,,,,,a,Incorrect,,,,,,t4.png,t2.png,2,0.059078,19,woman,2020-11-07_15h10.57.915,torte-q,2020.1.3,Win32,60,13249,1.086,,,,,0,59,59,86,1,,,,,,,,,,,,,,,,,,,,,,,,,,,,,,,,,,,
,,,,,,,,,,,,a,Incorrect,,,,,,t5.png,t1.png,4,9.55E-11,19,woman,2020-11-07_15h10.57.915,torte-q,2020.1.3,Win32,60,13249,0.868,,,,,0,60,60,22,1,,,,,,,,,,,,,,,,,,,,,,,,,,,,,,,,,,,
,,,,,,,,,,,,l,Incorrect,,,,,,t1.png,t1.png,0,0.97829,19,woman,2020-11-07_15h10.57.915,torte-q,2020.1.3,Win32,60,13249,1.256,,,,,0,61,61,67,1,,,,,,,,,,,,,,,,,,,,,,,,,,,,,,,,,,,
,,,,,,,,,,,,l,Correct!,,,,,,t1.png,t4.png,3,0.0000131,19,woman,2020-11-07_15h10.57.915,torte-q,2020.1.3,Win32,60,13249,1.503,,,,,0,62,62,107,1,,,,,,,,,,,,,,,,,,,,,,,,,,,,,,,,,,,
,,,,,,,,,,,,a,Incorrect,,,,,,t5.png,t1.png,4,9.55E-11,19,woman,2020-11-07_15h10.57.915,torte-q,2020.1.3,Win32,60,13249,0.986,,,,,0,63,63,102,1,,,,,,,,,,,,,,,,,,,,,,,,,,,,,,,,,,,
,,,,,,,,,,,,,Too slow :(,,,,,,t5.png,t2.png,3,0.0000131,19,woman,2020-11-07_15h10.57.915,torte-q,2020.1.3,Win32,60,13249,,,,,,0,64,64,119,1,,,,,,,,,,,,,,,,,,,,,,,,,,,,,,,,,,,
,,,,,,,,,,,,a,Incorrect,,,,,,t2.png,t1.png,1,0.90025,19,woman,2020-11-07_15h10.57.915,torte-q,2020.1.3,Win32,60,13249,1.519,,,,,0,65,65,4,1,,,,,,,,,,,,,,,,,,,,,,,,,,,,,,,,,,,
,,,,,,,,,,,,,Too slow :(,,,,,,t2.png,t1.png,1,0.90025,19,woman,2020-11-07_15h10.57.915,torte-q,2020.1.3,Win32,60,13249,,,,,,0,66,66,62,1,,,,,,,,,,,,,,,,,,,,,,,,,,,,,,,,,,,
,,,,,,,,,,,,a,Incorrect,,,,,,t4.png,t2.png,2,0.059078,19,woman,2020-11-07_15h10.57.915,torte-q,2020.1.3,Win32,60,13249,0.917,,,,,0,67,67,110,1,,,,,,,,,,,,,,,,,,,,,,,,,,,,,,,,,,,
,,,,,,,,,,,,a,Correct!,,,,,,t2.png,t3.png,1,0.90855,19,woman,2020-11-07_15h10.57.915,torte-q,2020.1.3,Win32,60,13249,0.727,,,,,0,68,68,111,1,,,,,,,,,,,,,,,,,,,,,,,,,,,,,,,,,,,
,,,,,,,,,,,,a,Incorrect,,,,,,t2.png,t4.png,2,0.0591,19,woman,2020-11-07_15h10.57.915,torte-q,2020.1.3,Win32,60,13249,0.337,,,,,0,69,69,15,1,,,,,,,,,,,,,,,,,,,,,,,,,,,,,,,,,,,
,,,,,,,,,,,,l,Correct!,,,,,,t1.png,t5.png,4,9.55E-11,19,woman,2020-11-07_15h10.57.915,torte-q,2020.1.3,Win32,60,13249,0.772,,,,,0,70,70,12,1,,,,,,,,,,,,,,,,,,,,,,,,,,,,,,,,,,,
,,,,,,,,,,,,l,Incorrect,,,,,,t1.png,t2.png,1,0.90025,19,woman,2020-11-07_15h10.57.915,torte-q,2020.1.3,Win32,60,13249,0.505,,,,,0,71,71,72,1,,,,,,,,,,,,,,,,,,,,,,,,,,,,,,,,,,,
,,,,,,,,,,,,l,Incorrect,,,,,,t2.png,t3.png,1,0.90855,19,woman,2020-11-07_15h10.57.915,torte-q,2020.1.3,Win32,60,13249,1.501,,,,,0,72,72,65,1,,,,,,,,,,,,,,,,,,,,,,,,,,,,,,,,,,,
,,,,,,,,,,,,l,Correct!,,,,,,t2.png,t4.png,2,0.059078,19,woman,2020-11-07_15h10.57.915,torte-q,2020.1.3,Win32,60,13249,1.552,,,,,0,73,73,11,1,,,,,,,,,,,,,,,,,,,,,,,,,,,,,,,,,,,
,,,,,,,,,,,,l,Correct!,,,,,,t2.png,t5.png,3,0.0000131,19,woman,2020-11-07_15h10.57.915,torte-q,2020.1.3,Win32,60,13249,1.268,,,,,0,74,74,104,1,,,,,,,,,,,,,,,,,,,,,,,,,,,,,,,,,,,
,,,,,,,,,,,,l,Correct!,,,,,,t1.png,t3.png,2,0.056466,19,woman,2020-11-07_15h10.57.915,torte-q,2020.1.3,Win32,60,13249,1.381,,,,,0,75,75,99,1,,,,,,,,,,,,,,,,,,,,,,,,,,,,,,,,,,,
,,,,,,,,,,,,,Too slow :(,,,,,,t4.png,t3.png,1,0.90855,19,woman,2020-11-07_15h10.57.915,torte-q,2020.1.3,Win32,60,13249,,,,,,0,76,76,45,1,,,,,,,,,,,,,,,,,,,,,,,,,,,,,,,,,,,
,,,,,,,,,,,,,Too slow :(,,,,,,t4.png,t3.png,1,0.90855,19,woman,2020-11-07_15h10.57.915,torte-q,2020.1.3,Win32,60,13249,,,,,,0,77,77,75,1,,,,,,,,,,,,,,,,,,,,,,,,,,,,,,,,,,,
,,,,,,,,,,,,a,Incorrect,,,,,,t5.png,t2.png,3,0.0000131,19,woman,2020-11-07_15h10.57.915,torte-q,2020.1.3,Win32,60,13249,0.785,,,,,0,78,78,91,1,,,,,,,,,,,,,,,,,,,,,,,,,,,,,,,,,,,
,,,,,,,,,,,,,Too slow :(,,,,,,t2.png,t2.png,0,0.98115,19,woman,2020-11-07_15h10.57.915,torte-q,2020.1.3,Win32,60,13249,,,,,,0,79,79,59,1,,,,,,,,,,,,,,,,,,,,,,,,,,,,,,,,,,,
,,,,,,,,,,,,a,Incorrect,,,,,,t4.png,t1.png,3,0.0000131,19,woman,2020-11-07_15h10.57.915,torte-q,2020.1.3,Win32,60,13249,2.414,,,,,0,80,80,13,1,,,,,,,,,,,,,,,,,,,,,,,,,,,,,,,,,,,
,,,,,,,,,,,,a,Incorrect,,,,,,t4.png,t1.png,3,0.0000131,19,woman,2020-11-07_15h10.57.915,torte-q,2020.1.3,Win32,60,13249,0.952,,,,,0,81,81,48,1,,,,,,,,,,,,,,,,,,,,,,,,,,,,,,,,,,,
,,,,,,,,,,,,l,Correct!,,,,,,t3.png,t5.png,2,0.056466,19,woman,2020-11-07_15h10.57.915,torte-q,2020.1.3,Win32,60,13249,1.466,,,,,0,82,82,6,1,,,,,,,,,,,,,,,,,,,,,,,,,,,,,,,,,,,
,,,,,,,,,,,,l,Correct!,,,,,,t1.png,t3.png,2,0.056466,19,woman,2020-11-07_15h10.57.915,torte-q,2020.1.3,Win32,60,13249,2.324,,,,,0,83,83,63,1,,,,,,,,,,,,,,,,,,,,,,,,,,,,,,,,,,,
,,,,,,,,,,,,a,Correct!,,,,,,t3.png,t2.png,1,0.90855,19,woman,2020-11-07_15h10.57.915,torte-q,2020.1.3,Win32,60,13249,0.903,,,,,0,84,84,18,1,,,,,,,,,,,,,,,,,,,,,,,,,,,,,,,,,,,
,,,,,,,,,,,,a,Incorrect,,,,,,t5.png,t3.png,2,0.056466,19,woman,2020-11-07_15h10.57.915,torte-q,2020.1.3,Win32,60,13249,0.935,,,,,0,85,85,114,1,,,,,,,,,,,,,,,,,,,,,,,,,,,,,,,,,,,
,,,,,,,,,,,,l,Incorrect,,,,,,t3.png,t4.png,1,0.90855,19,woman,2020-11-07_15h10.57.915,torte-q,2020.1.3,Win32,60,13249,0.603,,,,,0,86,86,84,1,,,,,,,,,,,,,,,,,,,,,,,,,,,,,,,,,,,
,,,,,,,,,,,,l,Correct!,,,,,,t3.png,t5.png,2,0.0565,19,woman,2020-11-07_15h10.57.915,torte-q,2020.1.3,Win32,60,13249,0.636,,,,,0,87,87,83,1,,,,,,,,,,,,,,,,,,,,,,,,,,,,,,,,,,,
,,,,,,,,,,,,l,Incorrect,,,,,,t5.png,t5.png,0,0.97829,19,woman,2020-11-07_15h10.57.915,torte-q,2020.1.3,Win32,60,13249,0.732,,,,,0,88,88,94,1,,,,,,,,,,,,,,,,,,,,,,,,,,,,,,,,,,,
,,,,,,,,,,,,l,Correct!,,,,,,t1.png,t2.png,1,0.90025,19,woman,2020-11-07_15h10.57.915,torte-q,2020.1.3,Win32,60,13249,0.155,,,,,0,89,89,105,1,,,,,,,,,,,,,,,,,,,,,,,,,,,,,,,,,,,
,,,,,,,,,,,,l,Incorrect,,,,,,t3.png,t2.png,1,0.90855,19,woman,2020-11-07_15h10.57.915,torte-q,2020.1.3,Win32,60,13249,0.039,,,,,0,90,90,97,1,,,,,,,,,,,,,,,,,,,,,,,,,,,,,,,,,,,
,,,,,,,,,,,,l,Correct!,,,,,,t4.png,t2.png,2,0.0591,19,woman,2020-11-07_15h10.57.915,torte-q,2020.1.3,Win32,60,13249,0.219,,,,,0,91,91,36,1,,,,,,,,,,,,,,,,,,,,,,,,,,,,,,,,,,,
,,,,,,,,,,,,l,Correct!,,,,,,t4.png,t1.png,3,0.0000131,19,woman,2020-11-07_15h10.57.915,torte-q,2020.1.3,Win32,60,13249,0.071,,,,,0,92,92,42,1,,,,,,,,,,,,,,,,,,,,,,,,,,,,,,,,,,,
,,,,,,,,,,,,a,Incorrect,,,,,,t1.png,t4.png,3,0.0000131,19,woman,2020-11-07_15h10.57.915,torte-q,2020.1.3,Win32,60,13249,0.211,,,,,0,93,93,92,1,,,,,,,,,,,,,,,,,,,,,,,,,,,,,,,,,,,
,,,,,,,,,,,,l,Correct!,,,,,,t1.png,t5.png,4,9.55E-11,19,woman,2020-11-07_15h10.57.915,torte-q,2020.1.3,Win32,60,13249,0.003,,,,,0,94,94,41,1,,,,,,,,,,,,,,,,,,,,,,,,,,,,,,,,,,,
,,,,,,,,,,,,l,Incorrect,,,,,,t3.png,t4.png,1,0.909,19,woman,2020-11-07_15h10.57.915,torte-q,2020.1.3,Win32,60,13249,0.074,,,,,0,95,95,82,1,,,,,,,,,,,,,,,,,,,,,,,,,,,,,,,,,,,
,,,,,,,,,,,,l,Incorrect,,,,,,t1.png,t1.png,0,0.978,19,woman,2020-11-07_15h10.57.915,torte-q,2020.1.3,Win32,60,13249,0.07,,,,,0,96,96,28,1,,,,,,,,,,,,,,,,,,,,,,,,,,,,,,,,,,,
,,,,,,,,,,,,l,Incorrect,,,,,,t3.png,t2.png,1,0.90855,19,woman,2020-11-07_15h10.57.915,torte-q,2020.1.3,Win32,60,13249,0.036,,,,,0,97,97,53,1,,,,,,,,,,,,,,,,,,,,,,,,,,,,,,,,,,,
,,,,,,,,,,,,l,Correct!,,,,,,t5.png,t3.png,2,0.0565,19,woman,2020-11-07_15h10.57.915,torte-q,2020.1.3,Win32,60,13249,0.153,,,,,0,98,98,39,1,,,,,,,,,,,,,,,,,,,,,,,,,,,,,,,,,,,
,,,,,,,,,,,,a,Correct!,,,,,,t1.png,t1.png,0,0.978,19,woman,2020-11-07_15h10.57.915,torte-q,2020.1.3,Win32,60,13249,0.054,,,,,0,99,99,54,1,,,,,,,,,,,,,,,,,,,,,,,,,,,,,,,,,,,
,,,,,,,,,,,,a,Incorrect,,,,,,t1.png,t4.png,3,0.0000131,19,woman,2020-11-07_15h10.57.915,torte-q,2020.1.3,Win32,60,13249,0.106,,,,,0,100,100,50,1,,,,,,,,,,,,,,,,,,,,,,,,,,,,,,,,,,,
,,,,,,,,,,,,l,Correct!,,,,,,t5.png,t2.png,3,0.0000131,19,woman,2020-11-07_15h10.57.915,torte-q,2020.1.3,Win32,60,13249,0.013,,,,,0,101,101,116,1,,,,,,,,,,,,,,,,,,,,,,,,,,,,,,,,,,,
,,,,,,,,,,,,a,Incorrect,,,,,,t2.png,t5.png,3,0.0000131,19,woman,2020-11-07_15h10.57.915,torte-q,2020.1.3,Win32,60,13249,0.112,,,,,0,102,102,8,1,,,,,,,,,,,,,,,,,,,,,,,,,,,,,,,,,,,
,,,,,,,,,,,,l,Incorrect,,,,,,t3.png,t4.png,1,0.909,19,woman,2020-11-07_15h10.57.915,torte-q,2020.1.3,Win32,60,13249,0.172,,,,,0,103,103,89,1,,,,,,,,,,,,,,,,,,,,,,,,,,,,,,,,,,,
,,,,,,,,,,,,l,Incorrect,,,,,,t4.png,t4.png,0,0.98115,19,woman,2020-11-07_15h10.57.915,torte-q,2020.1.3,Win32,60,13249,0.015,,,,,0,104,104,79,1,,,,,,,,,,,,,,,,,,,,,,,,,,,,,,,,,,,
,,,,,,,,,,,,l,Incorrect,,,,,,t4.png,t3.png,1,0.90855,19,woman,2020-11-07_15h10.57.915,torte-q,2020.1.3,Win32,60,13249,0.214,,,,,0,105,105,35,1,,,,,,,,,,,,,,,,,,,,,,,,,,,,,,,,,,,
,,,,,,,,,,,,l,Correct!,,,,,,t3.png,t1.png,2,0.0565,19,woman,2020-11-07_15h10.57.915,torte-q,2020.1.3,Win32,60,13249,0.119,,,,,0,106,106,31,1,,,,,,,,,,,,,,,,,,,,,,,,,,,,,,,,,,,
,,,,,,,,,,,,l,Incorrect,,,,,,t2.png,t1.png,1,0.9,19,woman,2020-11-07_15h10.57.915,torte-q,2020.1.3,Win32,60,13249,0.235,,,,,0,107,107,118,1,,,,,,,,,,,,,,,,,,,,,,,,,,,,,,,,,,,
,,,,,,,,,,,,l,Correct!,,,,,,t1.png,t3.png,2,0.056466,19,woman,2020-11-07_15h10.57.915,torte-q,2020.1.3,Win32,60,13249,0.006,,,,,0,108,108,87,1,,,,,,,,,,,,,,,,,,,,,,,,,,,,,,,,,,,
,,,,,,,,,,,,l,Incorrect,,,,,,t4.png,t3.png,1,0.909,19,woman,2020-11-07_15h10.57.915,torte-q,2020.1.3,Win32,60,13249,0.006,,,,,0,109,109,20,1,,,,,,,,,,,,,,,,,,,,,,,,,,,,,,,,,,,
,,,,,,,,,,,,l,Incorrect,,,,,,t4.png,t5.png,1,0.90025,19,woman,2020-11-07_15h10.57.915,torte-q,2020.1.3,Win32,60,13249,0.016,,,,,0,110,110,58,1,,,,,,,,,,,,,,,,,,,,,,,,,,,,,,,,,,,
,,,,,,,,,,,,l,Correct!,,,,,,t3.png,t1.png,2,0.056466,19,woman,2020-11-07_15h10.57.915,torte-q,2020.1.3,Win32,60,13249,0.151,,,,,0,111,111,32,1,,,,,,,,,,,,,,,,,,,,,,,,,,,,,,,,,,,
,,,,,,,,,,,,a,Correct!,,,,,,t3.png,t1.png,2,0.056466,19,woman,2020-11-07_15h10.57.915,torte-q,2020.1.3,Win32,60,13249,0.217,,,,,0,112,112,64,1,,,,,,,,,,,,,,,,,,,,,,,,,,,,,,,,,,,
,,,,,,,,,,,,a,Correct!,,,,,,t5.png,t4.png,1,0.90025,19,woman,2020-11-07_15h10.57.915,torte-q,2020.1.3,Win32,60,13249,0.835,,,,,0,113,113,26,1,,,,,,,,,,,,,,,,,,,,,,,,,,,,,,,,,,,
,,,,,,,,,,,,l,Correct!,,,,,,t3.png,t4.png,1,0.909,19,woman,2020-11-07_15h10.57.915,torte-q,2020.1.3,Win32,60,13249,0.002,,,,,0,114,114,106,1,,,,,,,,,,,,,,,,,,,,,,,,,,,,,,,,,,,
,,,,,,,,,,,,a,Correct!,,,,,,t4.png,t5.png,1,0.90025,19,woman,2020-11-07_15h10.57.915,torte-q,2020.1.3,Win32,60,13249,0.233,,,,,0,115,115,103,1,,,,,,,,,,,,,,,,,,,,,,,,,,,,,,,,,,,
,,,,,,,,,,,,a,Incorrect,,,,,,t3.png,t5.png,2,0.056466,19,woman,2020-11-07_15h10.57.915,torte-q,2020.1.3,Win32,60,13249,0.02,,,,,0,116,116,44,1,,,,,,,,,,,,,,,,,,,,,,,,,,,,,,,,,,,
,,,,,,,,,,,,a,Incorrect,,,,,,t3.png,t5.png,2,0.056466,19,woman,2020-11-07_15h10.57.915,torte-q,2020.1.3,Win32,60,13249,0.101,,,,,0,117,117,14,1,,,,,,,,,,,,,,,,,,,,,,,,,,,,,,,,,,,
,,,,,,,,,,,,a,Incorrect,,,,,,t5.png,t4.png,1,0.9,19,woman,2020-11-07_15h10.57.915,torte-q,2020.1.3,Win32,60,13249,0.052,,,,,0,118,118,49,1,,,,,,,,,,,,,,,,,,,,,,,,,,,,,,,,,,,
,,,,,,,,,,,,a,Correct!,,,,,,t2.png,t2.png,0,0.98115,19,woman,2020-11-07_15h10.57.915,torte-q,2020.1.3,Win32,60,13249,0.002,,,,,0,119,119,2,1,,,,,,,,,,,,,,,,,,,,,,,,,,,,,,,,,,,
,,,,,,,,,,,,l,Incorrect,,,,,,t4.png,t5.png,1,0.90025,19,woman,2020-11-07_15h10.57.915,torte-q,2020.1.3,Win32,60,13249,0.353,space,0.002,,,,,,,,n,11.122,space,4.059,0,0,0,103,1,,,,,,,,,,,,,,,,,,,,,,,,,,
,,,,,,,,,,,,l,Correct!,,,,,,t3.png,t5.png,2,0.0565,19,woman,2020-11-07_15h10.57.915,torte-q,2020.1.3,Win32,60,13249,0.185,,,,,,,,,,,,,,0,1,1,83,1,,,,,,,,,,,,,,,,,,,,,,,,,,
,,,,,,,,,,,,l,Correct!,,,,,,t5.png,t3.png,2,0.056466,19,woman,2020-11-07_15h10.57.915,torte-q,2020.1.3,Win32,60,13249,0.152,,,,,,,,,,,,,,0,2,2,108,1,,,,,,,,,,,,,,,,,,,,,,,,,,
,,,,,,,,,,,,l,Incorrect,,,,,,t2.png,t1.png,1,0.90025,19,woman,2020-11-07_15h10.57.915,torte-q,2020.1.3,Win32,60,13249,0.052,,,,,,,,,,,,,,0,3,3,4,1,,,,,,,,,,,,,,,,,,,,,,,,,,
,,,,,,,,,,,,l,Correct!,,,,,,t1.png,t5.png,4,9.55E-11,19,woman,2020-11-07_15h10.57.915,torte-q,2020.1.3,Win32,60,13249,0.118,,,,,,,,,,,,,,0,4,4,85,1,,,,,,,,,,,,,,,,,,,,,,,,,,
,,,,,,,,,,,,a,Correct!,,,,,,t2.png,t1.png,1,0.90025,19,woman,2020-11-07_15h10.57.915,torte-q,2020.1.3,Win32,60,13249,0.037,,,,,,,,,,,,,,0,5,5,5,1,,,,,,,,,,,,,,,,,,,,,,,,,,
,,,,,,,,,,,,l,Correct!,,,,,,t1.png,t5.png,4,9.55E-11,19,woman,2020-11-07_15h10.57.915,torte-q,2020.1.3,Win32,60,13249,0.016,,,,,,,,,,,,,,0,6,6,16,1,,,,,,,,,,,,,,,,,,,,,,,,,,
,,,,,,,,,,,,l,Incorrect,,,,,,t5.png,t5.png,0,0.97829,19,woman,2020-11-07_15h10.57.915,torte-q,2020.1.3,Win32,60,13249,0.101,,,,,,,,,,,,,,0,7,7,73,1,,,,,,,,,,,,,,,,,,,,,,,,,,
,,,,,,,,,,,,a,Correct!,,,,,,t4.png,t3.png,1,0.909,19,woman,2020-11-07_15h10.57.915,torte-q,2020.1.3,Win32,60,13249,0.002,,,,,,,,,,,,,,0,8,8,46,1,,,,,,,,,,,,,,,,,,,,,,,,,,
,,,,,,,,,,,,a,Correct!,,,,,,t1.png,t2.png,1,0.90025,19,woman,2020-11-07_15h10.57.915,torte-q,2020.1.3,Win32,60,13249,0.086,,,,,,,,,,,,,,0,9,9,33,1,,,,,,,,,,,,,,,,,,,,,,,,,,
,,,,,,,,,,,,a,Correct!,,,,,,t2.png,t2.png,0,0.98115,19,woman,2020-11-07_15h10.57.915,torte-q,2020.1.3,Win32,60,13249,0.002,,,,,,,,,,,,,,0,10,10,57,1,,,,,,,,,,,,,,,,,,,,,,,,,,
,,,,,,,,,,,,l,Incorrect,,,,,,t2.png,t2.png,0,0.98115,19,woman,2020-11-07_15h10.57.915,torte-q,2020.1.3,Win32,60,13249,0.034,,,,,,,,,,,,,,0,11,11,59,1,,,,,,,,,,,,,,,,,,,,,,,,,,
,,,,,,,,,,,,l,Incorrect,,,,,,t4.png,t4.png,0,0.98115,19,woman,2020-11-07_15h10.57.915,torte-q,2020.1.3,Win32,60,13249,0.081,,,,,,,,,,,,,,0,12,12,21,1,,,,,,,,,,,,,,,,,,,,,,,,,,
,,,,,,,,,,,,l,Incorrect,,,,,,t5.png,t4.png,1,0.90025,19,woman,2020-11-07_15h10.57.915,torte-q,2020.1.3,Win32,60,13249,0.039,,,,,,,,,,,,,,0,13,13,34,1,,,,,,,,,,,,,,,,,,,,,,,,,,
,,,,,,,,,,,,l,Incorrect,,,,,,t2.png,t3.png,1,0.909,19,woman,2020-11-07_15h10.57.915,torte-q,2020.1.3,Win32,60,13249,0.048,,,,,,,,,,,,,,0,14,14,74,1,,,,,,,,,,,,,,,,,,,,,,,,,,
,,,,,,,,,,,,a,Correct!,,,,,,t4.png,t3.png,1,0.90855,19,woman,2020-11-07_15h10.57.915,torte-q,2020.1.3,Win32,60,13249,0.114,,,,,,,,,,,,,,0,15,15,35,1,,,,,,,,,,,,,,,,,,,,,,,,,,
,,,,,,,,,,,,l,Correct!,,,,,,t1.png,t5.png,4,9.55E-11,19,woman,2020-11-07_15h10.57.915,torte-q,2020.1.3,Win32,60,13249,0.102,,,,,,,,,,,,,,0,16,16,12,1,,,,,,,,,,,,,,,,,,,,,,,,,,
,,,,,,,,,,,,l,Correct!,,,,,,t5.png,t1.png,4,9.55E-11,19,woman,2020-11-07_15h10.57.915,torte-q,2020.1.3,Win32,60,13249,0.189,,,,,,,,,,,,,,0,17,17,43,1,,,,,,,,,,,,,,,,,,,,,,,,,,
,,,,,,,,,,,,a,Correct!,,,,,,t3.png,t4.png,1,0.90855,19,woman,2020-11-07_15h10.57.915,torte-q,2020.1.3,Win32,60,13249,0.152,,,,,,,,,,,,,,0,18,18,96,1,,,,,,,,,,,,,,,,,,,,,,,,,,
,,,,,,,,,,,,a,Correct!,,,,,,t3.png,t4.png,1,0.90855,19,woman,2020-11-07_15h10.57.915,torte-q,2020.1.3,Win32,60,13249,0.101,,,,,,,,,,,,,,0,19,19,84,1,,,,,,,,,,,,,,,,,,,,,,,,,,
,,,,,,,,,,,,a,Incorrect,,,,,,t4.png,t3.png,1,0.90855,19,woman,2020-11-07_15h10.57.915,torte-q,2020.1.3,Win32,60,13249,0.09,,,,,,,,,,,,,,0,20,20,45,1,,,,,,,,,,,,,,,,,,,,,,,,,,
,,,,,,,,,,,,l,Correct!,,,,,,t1.png,t5.png,4,9.55E-11,19,woman,2020-11-07_15h10.57.915,torte-q,2020.1.3,Win32,60,13249,0.171,,,,,,,,,,,,,,0,21,21,41,1,,,,,,,,,,,,,,,,,,,,,,,,,,
,,,,,,,,,,,,l,Correct!,,,,,,t1.png,t3.png,2,0.056466,19,woman,2020-11-07_15h10.57.915,torte-q,2020.1.3,Win32,60,13249,0.366,,,,,,,,,,,,,,0,22,22,87,1,,,,,,,,,,,,,,,,,,,,,,,,,,
,,,,,,,,,,,,a,Correct!,,,,,,t1.png,t2.png,1,0.90025,19,woman,2020-11-07_15h10.57.915,torte-q,2020.1.3,Win32,60,13249,0.103,,,,,,,,,,,,,,0,23,23,72,1,,,,,,,,,,,,,,,,,,,,,,,,,,
,,,,,,,,,,,,l,Correct!,,,,,,t4.png,t1.png,3,0.0000131,19,woman,2020-11-07_15h10.57.915,torte-q,2020.1.3,Win32,60,13249,0.067,,,,,,,,,,,,,,0,24,24,61,1,,,,,,,,,,,,,,,,,,,,,,,,,,
,,,,,,,,,,,,a,Incorrect,,,,,,t3.png,t5.png,2,0.056466,19,woman,2020-11-07_15h10.57.915,torte-q,2020.1.3,Win32,60,13249,0.002,,,,,,,,,,,,,,0,25,25,6,1,,,,,,,,,,,,,,,,,,,,,,,,,,
,,,,,,,,,,,,l,Correct!,,,,,,t4.png,t5.png,1,0.90025,19,woman,2020-11-07_15h10.57.915,torte-q,2020.1.3,Win32,60,13249,0.201,,,,,,,,,,,,,,0,26,26,47,1,,,,,,,,,,,,,,,,,,,,,,,,,,
,,,,,,,,,,,,a,Correct!,,,,,,t5.png,t4.png,1,0.90025,19,woman,2020-11-07_15h10.57.915,torte-q,2020.1.3,Win32,60,13249,0.151,,,,,,,,,,,,,,0,27,27,27,1,,,,,,,,,,,,,,,,,,,,,,,,,,
,,,,,,,,,,,,l,Correct!,,,,,,t1.png,t4.png,3,0.0000131,19,woman,2020-11-07_15h10.57.915,torte-q,2020.1.3,Win32,60,13249,0.049,,,,,,,,,,,,,,0,28,28,17,1,,,,,,,,,,,,,,,,,,,,,,,,,,
,,,,,,,,,,,,l,Incorrect,,,,,,t2.png,t3.png,1,0.90855,19,woman,2020-11-07_15h10.57.915,torte-q,2020.1.3,Win32,60,13249,0.05,,,,,,,,,,,,,,0,29,29,10,1,,,,,,,,,,,,,,,,,,,,,,,,,,
,,,,,,,,,,,,a,Correct!,,,,,,t4.png,t5.png,1,0.90025,19,woman,2020-11-07_15h10.57.915,torte-q,2020.1.3,Win32,60,13249,0.137,,,,,,,,,,,,,,0,30,30,58,1,,,,,,,,,,,,,,,,,,,,,,,,,,
,,,,,,,,,,,,a,Incorrect,,,,,,t3.png,t1.png,2,0.056466,19,woman,2020-11-07_15h10.57.915,torte-q,2020.1.3,Win32,60,13249,0.017,,,,,,,,,,,,,,0,31,31,32,1,,,,,,,,,,,,,,,,,,,,,,,,,,
,,,,,,,,,,,,l,Correct!,,,,,,t3.png,t1.png,2,0.056466,19,woman,2020-11-07_15h10.57.915,torte-q,2020.1.3,Win32,60,13249,0.05,,,,,,,,,,,,,,0,32,32,64,1,,,,,,,,,,,,,,,,,,,,,,,,,,
,,,,,,,,,,,,a,Incorrect,,,,,,t4.png,t2.png,2,0.059078,19,woman,2020-11-07_15h10.57.915,torte-q,2020.1.3,Win32,60,13249,0.07,,,,,,,,,,,,,,0,33,33,86,1,,,,,,,,,,,,,,,,,,,,,,,,,,
,,,,,,,,,,,,l,Correct!,,,,,,t3.png,t5.png,2,0.0565,19,woman,2020-11-07_15h10.57.915,torte-q,2020.1.3,Win32,60,13249,0.167,,,,,,,,,,,,,,0,34,34,30,1,,,,,,,,,,,,,,,,,,,,,,,,,,
,,,,,,,,,,,,l,Incorrect,,,,,,t2.png,t1.png,1,0.90025,19,woman,2020-11-07_15h10.57.915,torte-q,2020.1.3,Win32,60,13249,0.132,,,,,,,,,,,,,,0,35,35,19,1,,,,,,,,,,,,,,,,,,,,,,,,,,
,,,,,,,,,,,,l,Correct!,,,,,,t4.png,t1.png,3,0.0000131,19,woman,2020-11-07_15h10.57.915,torte-q,2020.1.3,Win32,60,13249,0.013,,,,,,,,,,,,,,0,36,36,48,1,,,,,,,,,,,,,,,,,,,,,,,,,,
,,,,,,,,,,,,l,Incorrect,,,,,,t2.png,t1.png,1,0.90025,19,woman,2020-11-07_15h10.57.915,torte-q,2020.1.3,Win32,60,13249,0.016,,,,,,,,,,,,,,0,37,37,62,1,,,,,,,,,,,,,,,,,,,,,,,,,,
,,,,,,,,,,,,a,Incorrect,,,,,,t4.png,t1.png,3,0.0000131,19,woman,2020-11-07_15h10.57.915,torte-q,2020.1.3,Win32,60,13249,0.002,,,,,,,,,,,,,,0,38,38,42,1,,,,,,,,,,,,,,,,,,,,,,,,,,
,,,,,,,,,,,,l,Correct!,,,,,,t4.png,t2.png,2,0.0591,19,woman,2020-11-07_15h10.57.915,torte-q,2020.1.3,Win32,60,13249,0.083,,,,,,,,,,,,,,0,39,39,36,1,,,,,,,,,,,,,,,,,,,,,,,,,,
,,,,,,,,,,,,l,Correct!,,,,,,t5.png,t1.png,4,9.55E-11,19,woman,2020-11-07_15h10.57.915,torte-q,2020.1.3,Win32,60,13249,0.1,,,,,,,,,,,,,,0,40,40,71,1,,,,,,,,,,,,,,,,,,,,,,,,,,
,,,,,,,,,,,,a,Correct!,,,,,,t3.png,t2.png,1,0.90855,19,woman,2020-11-07_15h10.57.915,torte-q,2020.1.3,Win32,60,13249,0.202,,,,,,,,,,,,,,0,41,41,53,1,,,,,,,,,,,,,,,,,,,,,,,,,,
,,,,,,,,,,,,a,Correct!,,,,,,t4.png,t3.png,1,0.909,19,woman,2020-11-07_15h10.57.915,torte-q,2020.1.3,Win32,60,13249,0.087,,,,,,,,,,,,,,0,42,42,20,1,,,,,,,,,,,,,,,,,,,,,,,,,,
,,,,,,,,,,,,a,Correct!,,,,,,t1.png,t2.png,1,0.90025,19,woman,2020-11-07_15h10.57.915,torte-q,2020.1.3,Win32,60,13249,0.085,,,,,,,,,,,,,,0,43,43,105,1,,,,,,,,,,,,,,,,,,,,,,,,,,
,,,,,,,,,,,,l,Correct!,,,,,,t3.png,t1.png,2,0.056466,19,woman,2020-11-07_15h10.57.915,torte-q,2020.1.3,Win32,60,13249,0.067,,,,,,,,,,,,,,0,44,44,0,1,,,,,,,,,,,,,,,,,,,,,,,,,,
,,,,,,,,,,,,a,Correct!,,,,,,t5.png,t4.png,1,0.9,19,woman,2020-11-07_15h10.57.915,torte-q,2020.1.3,Win32,60,13249,0.049,,,,,,,,,,,,,,0,45,45,49,1,,,,,,,,,,,,,,,,,,,,,,,,,,
,,,,,,,,,,,,a,Incorrect,,,,,,t1.png,t4.png,3,0.0000131,19,woman,2020-11-07_15h10.57.915,torte-q,2020.1.3,Win32,60,13249,0.051,,,,,,,,,,,,,,0,46,46,81,1,,,,,,,,,,,,,,,,,,,,,,,,,,
,,,,,,,,,,,,a,Incorrect,,,,,,t5.png,t1.png,4,9.55E-11,19,woman,2020-11-07_15h10.57.915,torte-q,2020.1.3,Win32,60,13249,0.045,,,,,,,,,,,,,,0,47,47,22,1,,,,,,,,,,,,,,,,,,,,,,,,,,
,,,,,,,,,,,,l,Incorrect,,,,,,t3.png,t5.png,2,0.056466,19,woman,2020-11-07_15h10.57.915,torte-q,2020.1.3,Win32,60,13249,0.053,,,,,,,,,,,,,,0,48,48,14,1,,,,,,,,,,,,,,,,,,,,,,,,,,
,,,,,,,,,,,,a,Incorrect,,,,,,t2.png,t4.png,2,0.059078,19,woman,2020-11-07_15h10.57.915,torte-q,2020.1.3,Win32,60,13249,0.03,,,,,,,,,,,,,,0,49,49,11,1,,,,,,,,,,,,,,,,,,,,,,,,,,
,,,,,,,,,,,,a,Incorrect,,,,,,t5.png,t1.png,4,9.55E-11,19,woman,2020-11-07_15h10.57.915,torte-q,2020.1.3,Win32,60,13249,0.049,,,,,,,,,,,,,,0,50,50,102,1,,,,,,,,,,,,,,,,,,,,,,,,,,
,,,,,,,,,,,,l,Correct!,,,,,,t3.png,t5.png,2,0.056466,19,woman,2020-11-07_15h10.57.915,torte-q,2020.1.3,Win32,60,13249,0.152,,,,,,,,,,,,,,0,51,51,44,1,,,,,,,,,,,,,,,,,,,,,,,,,,
,,,,,,,,,,,,a,Incorrect,,,,,,t1.png,t5.png,4,9.55E-11,19,woman,2020-11-07_15h10.57.915,torte-q,2020.1.3,Win32,60,13249,0.046,,,,,,,,,,,,,,0,52,52,55,1,,,,,,,,,,,,,,,,,,,,,,,,,,
,,,,,,,,,,,,a,Incorrect,,,,,,t2.png,t5.png,3,0.0000131,19,woman,2020-11-07_15h10.57.915,torte-q,2020.1.3,Win32,60,13249,0.103,,,,,,,,,,,,,,0,53,53,40,1,,,,,,,,,,,,,,,,,,,,,,,,,,
,,,,,,,,,,,,l,Correct!,,,,,,t2.png,t4.png,2,0.059078,19,woman,2020-11-07_15h10.57.915,torte-q,2020.1.3,Win32,60,13249,0.069,,,,,,,,,,,,,,0,54,54,24,1,,,,,,,,,,,,,,,,,,,,,,,,,,
,,,,,,,,,,,,l,Correct!,,,,,,t2.png,t5.png,3,0.0000131,19,woman,2020-11-07_15h10.57.915,torte-q,2020.1.3,Win32,60,13249,0.054,,,,,,,,,,,,,,0,55,55,8,1,,,,,,,,,,,,,,,,,,,,,,,,,,
,,,,,,,,,,,,a,Correct!,,,,,,t5.png,t4.png,1,0.90025,19,woman,2020-11-07_15h10.57.915,torte-q,2020.1.3,Win32,60,13249,0.051,,,,,,,,,,,,,,0,56,56,26,1,,,,,,,,,,,,,,,,,,,,,,,,,,
,,,,,,,,,,,,a,Incorrect,,,,,,t3.png,t1.png,2,0.056466,19,woman,2020-11-07_15h10.57.915,torte-q,2020.1.3,Win32,60,13249,0.161,,,,,,,,,,,,,,0,57,57,29,1,,,,,,,,,,,,,,,,,,,,,,,,,,
,,,,,,,,,,,,l,Incorrect,,,,,,t1.png,t1.png,0,0.97829,19,woman,2020-11-07_15h10.57.915,torte-q,2020.1.3,Win32,60,13249,0.175,,,,,,,,,,,,,,0,58,58,78,1,,,,,,,,,,,,,,,,,,,,,,,,,,
,,,,,,,,,,,,a,Incorrect,,,,,,t5.png,t2.png,3,0.0000131,19,woman,2020-11-07_15h10.57.915,torte-q,2020.1.3,Win32,60,13249,0.168,,,,,,,,,,,,,,0,59,59,91,1,,,,,,,,,,,,,,,,,,,,,,,,,,
,,,,,,,,,,,,l,Correct!,,,,,,t1.png,t3.png,2,0.056466,19,woman,2020-11-07_15h10.57.915,torte-q,2020.1.3,Win32,60,13249,0.185,,,,,,,,,,,,,,0,60,60,69,1,,,,,,,,,,,,,,,,,,,,,,,,,,
,,,,,,,,,,,,a,Incorrect,,,,,,t5.png,t3.png,2,0.056466,19,woman,2020-11-07_15h10.57.915,torte-q,2020.1.3,Win32,60,13249,0.003,,,,,,,,,,,,,,0,61,61,38,1,,,,,,,,,,,,,,,,,,,,,,,,,,
,,,,,,,,,,,,l,Correct!,,,,,,t1.png,t2.png,1,0.9,19,woman,2020-11-07_15h10.57.915,torte-q,2020.1.3,Win32,60,13249,0.101,,,,,,,,,,,,,,0,62,62,1,1,,,,,,,,,,,,,,,,,,,,,,,,,,
,,,,,,,,,,,,l,Correct!,,,,,,t1.png,t3.png,2,0.056466,19,woman,2020-11-07_15h10.57.915,torte-q,2020.1.3,Win32,60,13249,0.136,,,,,,,,,,,,,,0,63,63,99,1,,,,,,,,,,,,,,,,,,,,,,,,,,
,,,,,,,,,,,,l,Incorrect,,,,,,t3.png,t2.png,1,0.90855,19,woman,2020-11-07_15h10.57.915,torte-q,2020.1.3,Win32,60,13249,0.052,,,,,,,,,,,,,,0,64,64,18,1,,,,,,,,,,,,,,,,,,,,,,,,,,
,,,,,,,,,,,,l,Correct!,,,,,,t2.png,t4.png,2,0.059078,19,woman,2020-11-07_15h10.57.915,torte-q,2020.1.3,Win32,60,13249,0.235,,,,,,,,,,,,,,0,65,65,37,1,,,,,,,,,,,,,,,,,,,,,,,,,,
,,,,,,,,,,,,l,Incorrect,,,,,,t2.png,t3.png,1,0.90855,19,woman,2020-11-07_15h10.57.915,torte-q,2020.1.3,Win32,60,13249,0.234,,,,,,,,,,,,,,0,66,66,68,1,,,,,,,,,,,,,,,,,,,,,,,,,,
,,,,,,,,,,,,l,Incorrect,,,,,,t4.png,t5.png,1,0.9,19,woman,2020-11-07_15h10.57.915,torte-q,2020.1.3,Win32,60,13249,0.215,,,,,,,,,,,,,,0,67,67,115,1,,,,,,,,,,,,,,,,,,,,,,,,,,
,,,,,,,,,,,,a,Incorrect,,,,,,t4.png,t2.png,2,0.059078,19,woman,2020-11-07_15h10.57.915,torte-q,2020.1.3,Win32,60,13249,0.001,,,,,,,,,,,,,,0,68,68,109,1,,,,,,,,,,,,,,,,,,,,,,,,,,
,,,,,,,,,,,,l,Correct!,,,,,,t1.png,t4.png,3,0.0000131,19,woman,2020-11-07_15h10.57.915,torte-q,2020.1.3,Win32,60,13249,0.469,,,,,,,,,,,,,,0,69,69,50,1,,,,,,,,,,,,,,,,,,,,,,,,,,
,,,,,,,,,,,,a,Correct!,,,,,,t3.png,t4.png,1,0.909,19,woman,2020-11-07_15h10.57.915,torte-q,2020.1.3,Win32,60,13249,0.187,,,,,,,,,,,,,,0,70,70,89,1,,,,,,,,,,,,,,,,,,,,,,,,,,
,,,,,,,,,,,,l,Incorrect,,,,,,t5.png,t5.png,0,0.978,19,woman,2020-11-07_15h10.57.915,torte-q,2020.1.3,Win32,60,13249,0.214,,,,,,,,,,,,,,0,71,71,117,1,,,,,,,,,,,,,,,,,,,,,,,,,,
,,,,,,,,,,,,l,Incorrect,,,,,,t5.png,t5.png,0,0.97829,19,woman,2020-11-07_15h10.57.915,torte-q,2020.1.3,Win32,60,13249,0.146,,,,,,,,,,,,,,0,72,72,25,1,,,,,,,,,,,,,,,,,,,,,,,,,,
,,,,,,,,,,,,l,Incorrect,,,,,,t1.png,t1.png,0,0.97829,19,woman,2020-11-07_15h10.57.915,torte-q,2020.1.3,Win32,60,13249,0.121,,,,,,,,,,,,,,0,73,73,67,1,,,,,,,,,,,,,,,,,,,,,,,,,,
,,,,,,,,,,,,l,Correct!,,,,,,t1.png,t3.png,2,0.056466,19,woman,2020-11-07_15h10.57.915,torte-q,2020.1.3,Win32,60,13249,0.067,,,,,,,,,,,,,,0,74,74,60,1,,,,,,,,,,,,,,,,,,,,,,,,,,
,,,,,,,,,,,,a,Correct!,,,,,,t4.png,t4.png,0,0.98115,19,woman,2020-11-07_15h10.57.915,torte-q,2020.1.3,Win32,60,13249,0.201,,,,,,,,,,,,,,0,75,75,52,1,,,,,,,,,,,,,,,,,,,,,,,,,,
,,,,,,,,,,,,l,Incorrect,,,,,,t4.png,t4.png,0,0.98115,19,woman,2020-11-07_15h10.57.915,torte-q,2020.1.3,Win32,60,13249,0.002,,,,,,,,,,,,,,0,76,76,90,1,,,,,,,,,,,,,,,,,,,,,,,,,,
,,,,,,,,,,,,a,Correct!,,,,,,t1.png,t1.png,0,0.978,19,woman,2020-11-07_15h10.57.915,torte-q,2020.1.3,Win32,60,13249,0.203,,,,,,,,,,,,,,0,77,77,28,1,,,,,,,,,,,,,,,,,,,,,,,,,,
,,,,,,,,,,,,a,Correct!,,,,,,t1.png,t1.png,0,0.97829,19,woman,2020-11-07_15h10.57.915,torte-q,2020.1.3,Win32,60,13249,0.018,,,,,,,,,,,,,,0,78,78,9,1,,,,,,,,,,,,,,,,,,,,,,,,,,
,,,,,,,,,,,,l,Correct!,,,,,,t2.png,t4.png,2,0.0591,19,woman,2020-11-07_15h10.57.915,torte-q,2020.1.3,Win32,60,13249,0.048,,,,,,,,,,,,,,0,79,79,15,1,,,,,,,,,,,,,,,,,,,,,,,,,,
,,,,,,,,,,,,l,Incorrect,,,,,,t2.png,t3.png,1,0.90855,19,woman,2020-11-07_15h10.57.915,torte-q,2020.1.3,Win32,60,13249,0.019,,,,,,,,,,,,,,0,80,80,111,1,,,,,,,,,,,,,,,,,,,,,,,,,,
,,,,,,,,,,,,a,Incorrect,,,,,,t5.png,t3.png,2,0.056466,19,woman,2020-11-07_15h10.57.915,torte-q,2020.1.3,Win32,60,13249,0.117,,,,,,,,,,,,,,0,81,81,114,1,,,,,,,,,,,,,,,,,,,,,,,,,,
,,,,,,,,,,,,a,Incorrect,,,,,,t5.png,t1.png,4,9.55E-11,19,woman,2020-11-07_15h10.57.915,torte-q,2020.1.3,Win32,60,13249,0.052,,,,,,,,,,,,,,0,82,82,100,1,,,,,,,,,,,,,,,,,,,,,,,,,,
,,,,,,,,,,,,a,Correct!,,,,,,t5.png,t5.png,0,0.97829,19,woman,2020-11-07_15h10.57.915,torte-q,2020.1.3,Win32,60,13249,0.047,,,,,,,,,,,,,,0,83,83,70,1,,,,,,,,,,,,,,,,,,,,,,,,,,
,,,,,,,,,,,,a,Correct!,,,,,,t4.png,t4.png,0,0.98115,19,woman,2020-11-07_15h10.57.915,torte-q,2020.1.3,Win32,60,13249,0.059,,,,,,,,,,,,,,0,84,84,80,1,,,,,,,,,,,,,,,,,,,,,,,,,,
,,,,,,,,,,,,l,Incorrect,,,,,,t2.png,t2.png,0,0.98115,19,woman,2020-11-07_15h10.57.915,torte-q,2020.1.3,Win32,60,13249,0.132,,,,,,,,,,,,,,0,85,85,2,1,,,,,,,,,,,,,,,,,,,,,,,,,,
,,,,,,,,,,,,l,Correct!,,,,,,t5.png,t2.png,3,0.0000131,19,woman,2020-11-07_15h10.57.915,torte-q,2020.1.3,Win32,60,13249,0.081,,,,,,,,,,,,,,0,86,86,98,1,,,,,,,,,,,,,,,,,,,,,,,,,,
,,,,,,,,,,,,l,Correct!,,,,,,t4.png,t1.png,3,0.0000131,19,woman,2020-11-07_15h10.57.915,torte-q,2020.1.3,Win32,60,13249,0.202,,,,,,,,,,,,,,0,87,87,93,1,,,,,,,,,,,,,,,,,,,,,,,,,,
,,,,,,,,,,,,l,Correct!,,,,,,t5.png,t3.png,2,0.0565,19,woman,2020-11-07_15h10.57.915,torte-q,2020.1.3,Win32,60,13249,0.086,,,,,,,,,,,,,,0,88,88,39,1,,,,,,,,,,,,,,,,,,,,,,,,,,
,,,,,,,,,,,,l,Incorrect,,,,,,t2.png,t2.png,0,0.98115,19,woman,2020-11-07_15h10.57.915,torte-q,2020.1.3,Win32,60,13249,0.267,,,,,,,,,,,,,,0,89,89,7,1,,,,,,,,,,,,,,,,,,,,,,,,,,
,,,,,,,,,,,,l,Incorrect,,,,,,t4.png,t5.png,1,0.90025,19,woman,2020-11-07_15h10.57.915,torte-q,2020.1.3,Win32,60,13249,0.105,,,,,,,,,,,,,,0,90,90,113,1,,,,,,,,,,,,,,,,,,,,,,,,,,
,,,,,,,,,,,,a,Incorrect,,,,,,t2.png,t4.png,2,0.059078,19,woman,2020-11-07_15h10.57.915,torte-q,2020.1.3,Win32,60,13249,0.025,,,,,,,,,,,,,,0,91,91,77,1,,,,,,,,,,,,,,,,,,,,,,,,,,
,,,,,,,,,,,,a,Correct!,,,,,,t4.png,t4.png,0,0.98115,19,woman,2020-11-07_15h10.57.915,torte-q,2020.1.3,Win32,60,13249,0.184,,,,,,,,,,,,,,0,92,92,79,1,,,,,,,,,,,,,,,,,,,,,,,,,,
,,,,,,,,,,,,a,Correct!,,,,,,t5.png,t5.png,0,0.97829,19,woman,2020-11-07_15h10.57.915,torte-q,2020.1.3,Win32,60,13249,0.166,,,,,,,,,,,,,,0,93,93,94,1,,,,,,,,,,,,,,,,,,,,,,,,,,
,,,,,,,,,,,,a,Incorrect,,,,,,t2.png,t5.png,3,0.0000131,19,woman,2020-11-07_15h10.57.915,torte-q,2020.1.3,Win32,60,13249,0.019,,,,,,,,,,,,,,0,94,94,66,1,,,,,,,,,,,,,,,,,,,,,,,,,,
,,,,,,,,,,,,l,Correct!,,,,,,t1.png,t4.png,3,0.0000131,19,woman,2020-11-07_15h10.57.915,torte-q,2020.1.3,Win32,60,13249,0.103,,,,,,,,,,,,,,0,95,95,107,1,,,,,,,,,,,,,,,,,,,,,,,,,,
,,,,,,,,,,,,l,Correct!,,,,,,t2.png,t5.png,3,0.0000131,19,woman,2020-11-07_15h10.57.915,torte-q,2020.1.3,Win32,60,13249,0.09,,,,,,,,,,,,,,0,96,96,104,1,,,,,,,,,,,,,,,,,,,,,,,,,,
,,,,,,,,,,,,l,Incorrect,,,,,,t2.png,t1.png,1,0.9,19,woman,2020-11-07_15h10.57.915,torte-q,2020.1.3,Win32,60,13249,0.051,,,,,,,,,,,,,,0,97,97,118,1,,,,,,,,,,,,,,,,,,,,,,,,,,
,,,,,,,,,,,,l,Incorrect,,,,,,t1.png,t1.png,0,0.978,19,woman,2020-11-07_15h10.57.915,torte-q,2020.1.3,Win32,60,13249,0.101,,,,,,,,,,,,,,0,98,98,54,1,,,,,,,,,,,,,,,,,,,,,,,,,,
,,,,,,,,,,,,l,Correct!,,,,,,t3.png,t1.png,2,0.0565,19,woman,2020-11-07_15h10.57.915,torte-q,2020.1.3,Win32,60,13249,0.134,,,,,,,,,,,,,,0,99,99,31,1,,,,,,,,,,,,,,,,,,,,,,,,,,
,,,,,,,,,,,,l,Incorrect,,,,,,t3.png,t4.png,1,0.909,19,woman,2020-11-07_15h10.57.915,torte-q,2020.1.3,Win32,60,13249,0.114,,,,,,,,,,,,,,0,100,100,106,1,,,,,,,,,,,,,,,,,,,,,,,,,,
,,,,,,,,,,,,a,Incorrect,,,,,,t1.png,t3.png,2,0.056466,19,woman,2020-11-07_15h10.57.915,torte-q,2020.1.3,Win32,60,13249,0.089,,,,,,,,,,,,,,0,101,101,63,1,,,,,,,,,,,,,,,,,,,,,,,,,,
,,,,,,,,,,,,l,Correct!,,,,,,t5.png,t2.png,3,0.0000131,19,woman,2020-11-07_15h10.57.915,torte-q,2020.1.3,Win32,60,13249,0.001,,,,,,,,,,,,,,0,102,102,119,1,,,,,,,,,,,,,,,,,,,,,,,,,,
,,,,,,,,,,,,a,Incorrect,,,,,,t3.png,t4.png,1,0.909,19,woman,2020-11-07_15h10.57.915,torte-q,2020.1.3,Win32,60,13249,0.035,,,,,,,,,,,,,,0,103,103,82,1,,,,,,,,,,,,,,,,,,,,,,,,,,
,,,,,,,,,,,,a,Incorrect,,,,,,t5.png,t3.png,2,0.056466,19,woman,2020-11-07_15h10.57.915,torte-q,2020.1.3,Win32,60,13249,0.036,,,,,,,,,,,,,,0,104,104,56,1,,,,,,,,,,,,,,,,,,,,,,,,,,
,,,,,,,,,,,,l,Incorrect,,,,,,t3.png,t2.png,1,0.909,19,woman,2020-11-07_15h10.57.915,torte-q,2020.1.3,Win32,60,13249,0.202,,,,,,,,,,,,,,0,105,105,3,1,,,,,,,,,,,,,,,,,,,,,,,,,,
,,,,,,,,,,,,l,Correct!,,,,,,t5.png,t2.png,3,0.0000131,19,woman,2020-11-07_15h10.57.915,torte-q,2020.1.3,Win32,60,13249,0.015,,,,,,,,,,,,,,0,106,106,116,1,,,,,,,,,,,,,,,,,,,,,,,,,,
,,,,,,,,,,,,l,Correct!,,,,,,t4.png,t2.png,2,0.059078,19,woman,2020-11-07_15h10.57.915,torte-q,2020.1.3,Win32,60,13249,0.062,,,,,,,,,,,,,,0,107,107,110,1,,,,,,,,,,,,,,,,,,,,,,,,,,
,,,,,,,,,,,,a,Correct!,,,,,,t4.png,t3.png,1,0.90855,19,woman,2020-11-07_15h10.57.915,torte-q,2020.1.3,Win32,60,13249,0.102,,,,,,,,,,,,,,0,108,108,75,1,,,,,,,,,,,,,,,,,,,,,,,,,,
,,,,,,,,,,,,l,Correct!,,,,,,t5.png,t2.png,3,0.0000131,19,woman,2020-11-07_15h10.57.915,torte-q,2020.1.3,Win32,60,13249,0.121,,,,,,,,,,,,,,0,109,109,51,1,,,,,,,,,,,,,,,,,,,,,,,,,,
,,,,,,,,,,,,a,Incorrect,,,,,,t2.png,t5.png,3,0.0000131,19,woman,2020-11-07_15h10.57.915,torte-q,2020.1.3,Win32,60,13249,0.034,,,,,,,,,,,,,,0,110,110,95,1,,,,,,,,,,,,,,,,,,,,,,,,,,
,,,,,,,,,,,,l,Correct!,,,,,,t3.png,t2.png,1,0.90855,19,woman,2020-11-07_15h10.57.915,torte-q,2020.1.3,Win32,60,13249,0.003,,,,,,,,,,,,,,0,111,111,97,1,,,,,,,,,,,,,,,,,,,,,,,,,,
,,,,,,,,,,,,a,Incorrect,,,,,,t4.png,t2.png,2,0.059078,19,woman,2020-11-07_15h10.57.915,torte-q,2020.1.3,Win32,60,13249,0.281,,,,,,,,,,,,,,0,112,112,88,1,,,,,,,,,,,,,,,,,,,,,,,,,,
,,,,,,,,,,,,l,Incorrect,,,,,,t2.png,t3.png,1,0.90855,19,woman,2020-11-07_15h10.57.915,torte-q,2020.1.3,Win32,60,13249,0.467,,,,,,,,,,,,,,0,113,113,65,1,,,,,,,,,,,,,,,,,,,,,,,,,,
,,,,,,,,,,,,l,Correct!,,,,,,t4.png,t1.png,3,0.0000131,19,woman,2020-11-07_15h10.57.915,torte-q,2020.1.3,Win32,60,13249,0.22,,,,,,,,,,,,,,0,114,114,13,1,,,,,,,,,,,,,,,,,,,,,,,,,,
,,,,,,,,,,,,l,Incorrect,,,,,,t1.png,t2.png,1,0.90025,19,woman,2020-11-07_15h10.57.915,torte-q,2020.1.3,Win32,60,13249,0.184,,,,,,,,,,,,,,0,115,115,112,1,,,,,,,,,,,,,,,,,,,,,,,,,,
,,,,,,,,,,,,,Too slow :(,,,,,,t3.png,t2.png,1,0.909,19,woman,2020-11-07_15h10.57.915,torte-q,2020.1.3,Win32,60,13249,,,,,,,,,,,,,,,0,116,116,23,1,,,,,,,,,,,,,,,,,,,,,,,,,,
,,,,,,,,,,,,l,Incorrect,,,,,,t5.png,t4.png,1,0.9,19,woman,2020-11-07_15h10.57.915,torte-q,2020.1.3,Win32,60,13249,1.351,,,,,,,,,,,,,,0,117,117,76,1,,,,,,,,,,,,,,,,,,,,,,,,,,
,,,,,,,,,,,,l,Incorrect,,,,,,t2.png,t2.png,0,0.981,19,woman,2020-11-07_15h10.57.915,torte-q,2020.1.3,Win32,60,13249,0.955,,,,,,,,,,,,,,0,118,118,101,1,,,,,,,,,,,,,,,,,,,,,,,,,,
,,,,,,,,,,,,l,Correct!,,,,,,t1.png,t4.png,3,0.0000131,19,woman,2020-11-07_15h10.57.915,torte-q,2020.1.3,Win32,60,13249,0.037,,,,,,,,,,,,,,0,119,119,92,1,,,,,,,,,,,,,,,,,,,,,,,,,,
,,,,,,,,,,,,,,,,,,,,,,,19,woman,2020-11-07_15h10.57.915,torte-q,2020.1.3,Win32,60,13249,,l,0.214,,,,,,,,,,,,,,,,,1.0225,8.98,-60,57,1,0,0,s3,-29,28,1,0,0,t2,195,-108,1,0,0,proceed,space,8.154,space,0.883,space,0.598
