key_resp_8.keys,key_resp_8.rt,key_resp_9.keys,key_resp_9.rt,key_resp_10.keys,key_resp_10.rt,key_resp_11.keys,key_resp_11.rt,key_resp_2.keys,key_resp_2.rt,key_resp_3.keys,key_resp_3.rt,key_resp.keys,key_resp.rt,Feedback,train.thisRepN,train.thisTrialN,train.thisN,train.thisIndex,train.ran,torta_sx,torta_dx,difference,probability,age,gender,date,expName,psychopyVersion,OS,frameRate,participant,key_resp_15.keys,key_resp_15.rt,key_resp_6.keys,key_resp_6.rt,test1.thisRepN,test1.thisTrialN,test1.thisN,test1.thisIndex,test1.ran,key_resp_16.keys,key_resp_16.rt,key_resp_7.keys,key_resp_7.rt,test2.thisRepN,test2.thisTrialN,test2.thisN,test2.thisIndex,test2.ran,rating.response,rating.rt,mouse.x,mouse.y,mouse.leftButton,mouse.midButton,mouse.rightButton,mouse.clicked_name,mouse_2.x,mouse_2.y,mouse_2.leftButton,mouse_2.midButton,mouse_2.rightButton,mouse_2.clicked_name,mouse_3.x,mouse_3.y,mouse_3.leftButton,mouse_3.midButton,mouse_3.rightButton,mouse_3.clicked_name,key_resp_12.keys,key_resp_12.rt,key_resp_13.keys,key_resp_13.rt,key_resp_14.keys,key_resp_14.rt
space,3.189155,space,2.625755,space,1.901465,space,1.926295,space,8.009135,space,17.47035,a,1.281285,Correct!,0,0,0,21,1,t5.png,t4.png,1,0.90025,20,female,2020-10-21_17h23.58.333,torte-q,2020.1.3,MacIntel,60,13245,,,,,,,,,,,,,,,,,,,,,,,,,,,,,,,,,,,,,,,,,,,,
,,,,,,,,,,,,l,0.82335,Correct!,0,1,1,55,1,t2.png,t4.png,2,0.059078,20,female,2020-10-21_17h23.58.333,torte-q,2020.1.3,MacIntel,60,13245,,,,,,,,,,,,,,,,,,,,,,,,,,,,,,,,,,,,,,,,,,,,
,,,,,,,,,,,,a,1.81966,Correct!,0,2,2,84,1,t1.png,t1.png,0,0.97829,20,female,2020-10-21_17h23.58.333,torte-q,2020.1.3,MacIntel,60,13245,,,,,,,,,,,,,,,,,,,,,,,,,,,,,,,,,,,,,,,,,,,,
,,,,,,,,,,,,l,1.167495,Correct!,0,3,3,14,1,t2.png,t4.png,2,0.059078,20,female,2020-10-21_17h23.58.333,torte-q,2020.1.3,MacIntel,60,13245,,,,,,,,,,,,,,,,,,,,,,,,,,,,,,,,,,,,,,,,,,,,
,,,,,,,,,,,,l,0.852705,Correct!,0,4,4,52,1,t2.png,t4.png,2,0.059078,20,female,2020-10-21_17h23.58.333,torte-q,2020.1.3,MacIntel,60,13245,,,,,,,,,,,,,,,,,,,,,,,,,,,,,,,,,,,,,,,,,,,,
,,,,,,,,,,,,a,0.58759,Incorrect,0,5,5,87,1,t5.png,t1.png,4,9.55E-11,20,female,2020-10-21_17h23.58.333,torte-q,2020.1.3,MacIntel,60,13245,,,,,,,,,,,,,,,,,,,,,,,,,,,,,,,,,,,,,,,,,,,,
,,,,,,,,,,,,a,0.616665,Incorrect,0,6,6,38,1,t3.png,t1.png,2,0.056466,20,female,2020-10-21_17h23.58.333,torte-q,2020.1.3,MacIntel,60,13245,,,,,,,,,,,,,,,,,,,,,,,,,,,,,,,,,,,,,,,,,,,,
,,,,,,,,,,,,l,0.583815,Correct!,0,7,7,57,1,t2.png,t4.png,2,0.059078,20,female,2020-10-21_17h23.58.333,torte-q,2020.1.3,MacIntel,60,13245,,,,,,,,,,,,,,,,,,,,,,,,,,,,,,,,,,,,,,,,,,,,
,,,,,,,,,,,,l,0.554875,Correct!,0,8,8,4,1,t1.png,t5.png,4,9.55E-11,20,female,2020-10-21_17h23.58.333,torte-q,2020.1.3,MacIntel,60,13245,,,,,,,,,,,,,,,,,,,,,,,,,,,,,,,,,,,,,,,,,,,,
,,,,,,,,,,,,l,0.86757,Incorrect,0,9,9,114,1,t2.png,t3.png,1,0.90855,20,female,2020-10-21_17h23.58.333,torte-q,2020.1.3,MacIntel,60,13245,,,,,,,,,,,,,,,,,,,,,,,,,,,,,,,,,,,,,,,,,,,,
,,,,,,,,,,,,a,0.60569,Incorrect,0,10,10,79,1,t3.png,t2.png,1,0.909,20,female,2020-10-21_17h23.58.333,torte-q,2020.1.3,MacIntel,60,13245,,,,,,,,,,,,,,,,,,,,,,,,,,,,,,,,,,,,,,,,,,,,
,,,,,,,,,,,,l,0.734585,Incorrect,0,11,11,65,1,t4.png,t5.png,1,0.90025,20,female,2020-10-21_17h23.58.333,torte-q,2020.1.3,MacIntel,60,13245,,,,,,,,,,,,,,,,,,,,,,,,,,,,,,,,,,,,,,,,,,,,
,,,,,,,,,,,,a,1.358445,Correct!,0,12,12,15,1,t3.png,t2.png,1,0.90855,20,female,2020-10-21_17h23.58.333,torte-q,2020.1.3,MacIntel,60,13245,,,,,,,,,,,,,,,,,,,,,,,,,,,,,,,,,,,,,,,,,,,,
,,,,,,,,,,,,l,0.71622,Correct!,0,13,13,68,1,t1.png,t4.png,3,0.0000131,20,female,2020-10-21_17h23.58.333,torte-q,2020.1.3,MacIntel,60,13245,,,,,,,,,,,,,,,,,,,,,,,,,,,,,,,,,,,,,,,,,,,,
,,,,,,,,,,,,l,0.68404,Correct!,0,14,14,99,1,t1.png,t5.png,4,9.55E-11,20,female,2020-10-21_17h23.58.333,torte-q,2020.1.3,MacIntel,60,13245,,,,,,,,,,,,,,,,,,,,,,,,,,,,,,,,,,,,,,,,,,,,
,,,,,,,,,,,,a,0.61622,Incorrect,0,15,15,102,1,t4.png,t2.png,2,0.059078,20,female,2020-10-21_17h23.58.333,torte-q,2020.1.3,MacIntel,60,13245,,,,,,,,,,,,,,,,,,,,,,,,,,,,,,,,,,,,,,,,,,,,
,,,,,,,,,,,,a,1.08483,Correct!,0,16,16,2,1,t3.png,t2.png,1,0.90855,20,female,2020-10-21_17h23.58.333,torte-q,2020.1.3,MacIntel,60,13245,,,,,,,,,,,,,,,,,,,,,,,,,,,,,,,,,,,,,,,,,,,,
,,,,,,,,,,,,a,1.517745,Correct!,0,17,17,107,1,t1.png,t1.png,0,0.978,20,female,2020-10-21_17h23.58.333,torte-q,2020.1.3,MacIntel,60,13245,,,,,,,,,,,,,,,,,,,,,,,,,,,,,,,,,,,,,,,,,,,,
,,,,,,,,,,,,a,0.70003,Correct!,0,18,18,8,1,t3.png,t2.png,1,0.90855,20,female,2020-10-21_17h23.58.333,torte-q,2020.1.3,MacIntel,60,13245,,,,,,,,,,,,,,,,,,,,,,,,,,,,,,,,,,,,,,,,,,,,
,,,,,,,,,,,,a,0.517495,Incorrect,0,19,19,86,1,t3.png,t1.png,2,0.056466,20,female,2020-10-21_17h23.58.333,torte-q,2020.1.3,MacIntel,60,13245,,,,,,,,,,,,,,,,,,,,,,,,,,,,,,,,,,,,,,,,,,,,
,,,,,,,,,,,,a,0.60351,Incorrect,0,20,20,43,1,t4.png,t2.png,2,0.059078,20,female,2020-10-21_17h23.58.333,torte-q,2020.1.3,MacIntel,60,13245,,,,,,,,,,,,,,,,,,,,,,,,,,,,,,,,,,,,,,,,,,,,
,,,,,,,,,,,,l,0.816215,Incorrect,0,21,21,71,1,t5.png,t5.png,0,0.97829,20,female,2020-10-21_17h23.58.333,torte-q,2020.1.3,MacIntel,60,13245,,,,,,,,,,,,,,,,,,,,,,,,,,,,,,,,,,,,,,,,,,,,
,,,,,,,,,,,,l,0.975795,Correct!,0,22,22,60,1,t2.png,t4.png,2,0.059078,20,female,2020-10-21_17h23.58.333,torte-q,2020.1.3,MacIntel,60,13245,,,,,,,,,,,,,,,,,,,,,,,,,,,,,,,,,,,,,,,,,,,,
,,,,,,,,,,,,l,1.398375,Incorrect,0,23,23,92,1,t2.png,t3.png,1,0.909,20,female,2020-10-21_17h23.58.333,torte-q,2020.1.3,MacIntel,60,13245,,,,,,,,,,,,,,,,,,,,,,,,,,,,,,,,,,,,,,,,,,,,
,,,,,,,,,,,,a,0.73315,Incorrect,0,24,24,46,1,t4.png,t2.png,2,0.059078,20,female,2020-10-21_17h23.58.333,torte-q,2020.1.3,MacIntel,60,13245,,,,,,,,,,,,,,,,,,,,,,,,,,,,,,,,,,,,,,,,,,,,
,,,,,,,,,,,,l,0.51693,Correct!,0,25,25,35,1,t1.png,t4.png,3,0.0000131,20,female,2020-10-21_17h23.58.333,torte-q,2020.1.3,MacIntel,60,13245,,,,,,,,,,,,,,,,,,,,,,,,,,,,,,,,,,,,,,,,,,,,
,,,,,,,,,,,,l,1.054205,Incorrect,0,26,26,44,1,t2.png,t3.png,1,0.909,20,female,2020-10-21_17h23.58.333,torte-q,2020.1.3,MacIntel,60,13245,,,,,,,,,,,,,,,,,,,,,,,,,,,,,,,,,,,,,,,,,,,,
,,,,,,,,,,,,l,0.68457,Correct!,0,27,27,6,1,t1.png,t4.png,3,0.0000131,20,female,2020-10-21_17h23.58.333,torte-q,2020.1.3,MacIntel,60,13245,,,,,,,,,,,,,,,,,,,,,,,,,,,,,,,,,,,,,,,,,,,,
,,,,,,,,,,,,a,0.650175,Incorrect,0,28,28,51,1,t3.png,t1.png,2,0.056466,20,female,2020-10-21_17h23.58.333,torte-q,2020.1.3,MacIntel,60,13245,,,,,,,,,,,,,,,,,,,,,,,,,,,,,,,,,,,,,,,,,,,,
,,,,,,,,,,,,a,0.73437,Incorrect,0,29,29,83,1,t3.png,t1.png,2,0.056466,20,female,2020-10-21_17h23.58.333,torte-q,2020.1.3,MacIntel,60,13245,,,,,,,,,,,,,,,,,,,,,,,,,,,,,,,,,,,,,,,,,,,,
,,,,,,,,,,,,l,1.11957,Incorrect,0,30,30,109,1,t5.png,t5.png,0,0.97829,20,female,2020-10-21_17h23.58.333,torte-q,2020.1.3,MacIntel,60,13245,,,,,,,,,,,,,,,,,,,,,,,,,,,,,,,,,,,,,,,,,,,,
,,,,,,,,,,,,l,0.56986,Correct!,0,31,31,91,1,t1.png,t4.png,3,0.0000131,20,female,2020-10-21_17h23.58.333,torte-q,2020.1.3,MacIntel,60,13245,,,,,,,,,,,,,,,,,,,,,,,,,,,,,,,,,,,,,,,,,,,,
,,,,,,,,,,,,l,0.571515,Incorrect,0,32,32,100,1,t4.png,t5.png,1,0.90025,20,female,2020-10-21_17h23.58.333,torte-q,2020.1.3,MacIntel,60,13245,,,,,,,,,,,,,,,,,,,,,,,,,,,,,,,,,,,,,,,,,,,,
,,,,,,,,,,,,a,0.54129,Incorrect,0,33,33,26,1,t4.png,t2.png,2,0.0591,20,female,2020-10-21_17h23.58.333,torte-q,2020.1.3,MacIntel,60,13245,,,,,,,,,,,,,,,,,,,,,,,,,,,,,,,,,,,,,,,,,,,,
,,,,,,,,,,,,a,0.658815,Incorrect,0,34,34,12,1,t5.png,t1.png,4,9.55E-11,20,female,2020-10-21_17h23.58.333,torte-q,2020.1.3,MacIntel,60,13245,,,,,,,,,,,,,,,,,,,,,,,,,,,,,,,,,,,,,,,,,,,,
,,,,,,,,,,,,a,0.51897,Incorrect,0,35,35,108,1,t5.png,t1.png,4,9.55E-11,20,female,2020-10-21_17h23.58.333,torte-q,2020.1.3,MacIntel,60,13245,,,,,,,,,,,,,,,,,,,,,,,,,,,,,,,,,,,,,,,,,,,,
,,,,,,,,,,,,a,0.526065,Incorrect,0,36,36,111,1,t5.png,t1.png,4,9.55E-11,20,female,2020-10-21_17h23.58.333,torte-q,2020.1.3,MacIntel,60,13245,,,,,,,,,,,,,,,,,,,,,,,,,,,,,,,,,,,,,,,,,,,,
,,,,,,,,,,,,a,0.531495,Incorrect,0,37,37,0,1,t5.png,t1.png,4,9.55E-11,20,female,2020-10-21_17h23.58.333,torte-q,2020.1.3,MacIntel,60,13245,,,,,,,,,,,,,,,,,,,,,,,,,,,,,,,,,,,,,,,,,,,,
,,,,,,,,,,,,a,1.674645,Correct!,0,38,38,64,1,t1.png,t1.png,0,0.978,20,female,2020-10-21_17h23.58.333,torte-q,2020.1.3,MacIntel,60,13245,,,,,,,,,,,,,,,,,,,,,,,,,,,,,,,,,,,,,,,,,,,,
,,,,,,,,,,,,l,1.516255,Incorrect,0,39,39,28,1,t2.png,t3.png,1,0.909,20,female,2020-10-21_17h23.58.333,torte-q,2020.1.3,MacIntel,60,13245,,,,,,,,,,,,,,,,,,,,,,,,,,,,,,,,,,,,,,,,,,,,
,,,,,,,,,,,,a,0.68515,Correct!,0,40,40,93,1,t2.png,t4.png,2,0.059078,20,female,2020-10-21_17h23.58.333,torte-q,2020.1.3,MacIntel,60,13245,,,,,,,,,,,,,,,,,,,,,,,,,,,,,,,,,,,,,,,,,,,,
,,,,,,,,,,,,l,1.584545,Correct!,0,41,41,53,1,t3.png,t1.png,2,0.056466,20,female,2020-10-21_17h23.58.333,torte-q,2020.1.3,MacIntel,60,13245,,,,,,,,,,,,,,,,,,,,,,,,,,,,,,,,,,,,,,,,,,,,
,,,,,,,,,,,,l,0.81997,Correct!,0,42,42,19,1,t4.png,t2.png,2,0.059078,20,female,2020-10-21_17h23.58.333,torte-q,2020.1.3,MacIntel,60,13245,,,,,,,,,,,,,,,,,,,,,,,,,,,,,,,,,,,,,,,,,,,,
,,,,,,,,,,,,a,0.715985,Incorrect,0,43,43,80,1,t1.png,t4.png,3,0.0000131,20,female,2020-10-21_17h23.58.333,torte-q,2020.1.3,MacIntel,60,13245,,,,,,,,,,,,,,,,,,,,,,,,,,,,,,,,,,,,,,,,,,,,
,,,,,,,,,,,,l,0.983905,Correct!,0,44,44,115,1,t2.png,t4.png,2,0.059078,20,female,2020-10-21_17h23.58.333,torte-q,2020.1.3,MacIntel,60,13245,,,,,,,,,,,,,,,,,,,,,,,,,,,,,,,,,,,,,,,,,,,,
,,,,,,,,,,,,a,0.516915,Incorrect,0,45,45,82,1,t5.png,t1.png,4,9.55E-11,20,female,2020-10-21_17h23.58.333,torte-q,2020.1.3,MacIntel,60,13245,,,,,,,,,,,,,,,,,,,,,,,,,,,,,,,,,,,,,,,,,,,,
,,,,,,,,,,,,a,0.50264,Incorrect,0,46,46,24,1,t4.png,t2.png,2,0.059078,20,female,2020-10-21_17h23.58.333,torte-q,2020.1.3,MacIntel,60,13245,,,,,,,,,,,,,,,,,,,,,,,,,,,,,,,,,,,,,,,,,,,,
,,,,,,,,,,,,l,0.5756,Incorrect,0,47,47,101,1,t4.png,t5.png,1,0.90025,20,female,2020-10-21_17h23.58.333,torte-q,2020.1.3,MacIntel,60,13245,,,,,,,,,,,,,,,,,,,,,,,,,,,,,,,,,,,,,,,,,,,,
,,,,,,,,,,,,a,0.469955,Incorrect,0,48,48,56,1,t5.png,t1.png,4,9.55E-11,20,female,2020-10-21_17h23.58.333,torte-q,2020.1.3,MacIntel,60,13245,,,,,,,,,,,,,,,,,,,,,,,,,,,,,,,,,,,,,,,,,,,,
,,,,,,,,,,,,a,1.0556,Correct!,0,49,49,112,1,t1.png,t1.png,0,0.97829,20,female,2020-10-21_17h23.58.333,torte-q,2020.1.3,MacIntel,60,13245,,,,,,,,,,,,,,,,,,,,,,,,,,,,,,,,,,,,,,,,,,,,
,,,,,,,,,,,,l,1.434405,Incorrect,0,50,50,97,1,t5.png,t5.png,0,0.97829,20,female,2020-10-21_17h23.58.333,torte-q,2020.1.3,MacIntel,60,13245,,,,,,,,,,,,,,,,,,,,,,,,,,,,,,,,,,,,,,,,,,,,
,,,,,,,,,,,,a,0.85836,Correct!,0,51,51,62,1,t5.png,t5.png,0,0.978,20,female,2020-10-21_17h23.58.333,torte-q,2020.1.3,MacIntel,60,13245,,,,,,,,,,,,,,,,,,,,,,,,,,,,,,,,,,,,,,,,,,,,
,,,,,,,,,,,,a,1.03263,Correct!,0,52,52,77,1,t1.png,t1.png,0,0.97829,20,female,2020-10-21_17h23.58.333,torte-q,2020.1.3,MacIntel,60,13245,,,,,,,,,,,,,,,,,,,,,,,,,,,,,,,,,,,,,,,,,,,,
,,,,,,,,,,,,a,0.67245,Incorrect,0,53,53,39,1,t3.png,t2.png,1,0.90855,20,female,2020-10-21_17h23.58.333,torte-q,2020.1.3,MacIntel,60,13245,,,,,,,,,,,,,,,,,,,,,,,,,,,,,,,,,,,,,,,,,,,,
,,,,,,,,,,,,l,0.51673,Incorrect,0,54,54,104,1,t2.png,t3.png,1,0.90855,20,female,2020-10-21_17h23.58.333,torte-q,2020.1.3,MacIntel,60,13245,,,,,,,,,,,,,,,,,,,,,,,,,,,,,,,,,,,,,,,,,,,,
,,,,,,,,,,,,l,0.63753,Incorrect,0,55,55,106,1,t2.png,t3.png,1,0.90855,20,female,2020-10-21_17h23.58.333,torte-q,2020.1.3,MacIntel,60,13245,,,,,,,,,,,,,,,,,,,,,,,,,,,,,,,,,,,,,,,,,,,,
,,,,,,,,,,,,a,1.29153,Correct!,0,56,56,59,1,t5.png,t4.png,1,0.9,20,female,2020-10-21_17h23.58.333,torte-q,2020.1.3,MacIntel,60,13245,,,,,,,,,,,,,,,,,,,,,,,,,,,,,,,,,,,,,,,,,,,,
,,,,,,,,,,,,l,1.236655,Incorrect,0,57,57,75,1,t1.png,t1.png,0,0.97829,20,female,2020-10-21_17h23.58.333,torte-q,2020.1.3,MacIntel,60,13245,,,,,,,,,,,,,,,,,,,,,,,,,,,,,,,,,,,,,,,,,,,,
,,,,,,,,,,,,a,0.62022,Incorrect,0,58,58,50,1,t5.png,t1.png,4,9.55E-11,20,female,2020-10-21_17h23.58.333,torte-q,2020.1.3,MacIntel,60,13245,,,,,,,,,,,,,,,,,,,,,,,,,,,,,,,,,,,,,,,,,,,,
,,,,,,,,,,,,a,0.69007,Correct!,0,59,59,85,1,t3.png,t2.png,1,0.90855,20,female,2020-10-21_17h23.58.333,torte-q,2020.1.3,MacIntel,60,13245,,,,,,,,,,,,,,,,,,,,,,,,,,,,,,,,,,,,,,,,,,,,
,,,,,,,,,,,,l,0.72009,Incorrect,0,60,60,9,1,t4.png,t5.png,1,0.9,20,female,2020-10-21_17h23.58.333,torte-q,2020.1.3,MacIntel,60,13245,,,,,,,,,,,,,,,,,,,,,,,,,,,,,,,,,,,,,,,,,,,,
,,,,,,,,,,,,a,0.83396,Correct!,0,61,61,105,1,t3.png,t2.png,1,0.90855,20,female,2020-10-21_17h23.58.333,torte-q,2020.1.3,MacIntel,60,13245,,,,,,,,,,,,,,,,,,,,,,,,,,,,,,,,,,,,,,,,,,,,
,,,,,,,,,,,,a,0.54277,Incorrect,0,62,62,94,1,t5.png,t1.png,4,9.55E-11,20,female,2020-10-21_17h23.58.333,torte-q,2020.1.3,MacIntel,60,13245,,,,,,,,,,,,,,,,,,,,,,,,,,,,,,,,,,,,,,,,,,,,
,,,,,,,,,,,,l,0.63393,Incorrect,0,63,63,110,1,t4.png,t5.png,1,0.90025,20,female,2020-10-21_17h23.58.333,torte-q,2020.1.3,MacIntel,60,13245,,,,,,,,,,,,,,,,,,,,,,,,,,,,,,,,,,,,,,,,,,,,
,,,,,,,,,,,,a,1.543265,Correct!,0,64,64,13,1,t5.png,t5.png,0,0.97829,20,female,2020-10-21_17h23.58.333,torte-q,2020.1.3,MacIntel,60,13245,,,,,,,,,,,,,,,,,,,,,,,,,,,,,,,,,,,,,,,,,,,,
,,,,,,,,,,,,l,0.918075,Incorrect,0,65,65,49,1,t4.png,t5.png,1,0.9,20,female,2020-10-21_17h23.58.333,torte-q,2020.1.3,MacIntel,60,13245,,,,,,,,,,,,,,,,,,,,,,,,,,,,,,,,,,,,,,,,,,,,
,,,,,,,,,,,,l,0.616655,Incorrect,0,66,66,29,1,t5.png,t5.png,0,0.97829,20,female,2020-10-21_17h23.58.333,torte-q,2020.1.3,MacIntel,60,13245,,,,,,,,,,,,,,,,,,,,,,,,,,,,,,,,,,,,,,,,,,,,
,,,,,,,,,,,,l,0.80205,Correct!,0,67,67,54,1,t1.png,t5.png,4,9.55E-11,20,female,2020-10-21_17h23.58.333,torte-q,2020.1.3,MacIntel,60,13245,,,,,,,,,,,,,,,,,,,,,,,,,,,,,,,,,,,,,,,,,,,,
,,,,,,,,,,,,a,1.209155,Correct!,0,68,68,118,1,t5.png,t5.png,0,0.978,20,female,2020-10-21_17h23.58.333,torte-q,2020.1.3,MacIntel,60,13245,,,,,,,,,,,,,,,,,,,,,,,,,,,,,,,,,,,,,,,,,,,,
,,,,,,,,,,,,l,0.65102,Correct!,0,69,69,31,1,t1.png,t5.png,4,9.55E-11,20,female,2020-10-21_17h23.58.333,torte-q,2020.1.3,MacIntel,60,13245,,,,,,,,,,,,,,,,,,,,,,,,,,,,,,,,,,,,,,,,,,,,
,,,,,,,,,,,,a,0.51988,Correct!,0,70,70,27,1,t3.png,t1.png,2,0.0565,20,female,2020-10-21_17h23.58.333,torte-q,2020.1.3,MacIntel,60,13245,,,,,,,,,,,,,,,,,,,,,,,,,,,,,,,,,,,,,,,,,,,,
,,,,,,,,,,,,a,0.475855,Correct!,0,71,71,45,1,t3.png,t2.png,1,0.90855,20,female,2020-10-21_17h23.58.333,torte-q,2020.1.3,MacIntel,60,13245,,,,,,,,,,,,,,,,,,,,,,,,,,,,,,,,,,,,,,,,,,,,
,,,,,,,,,,,,l,0.52439,Correct!,0,72,72,90,1,t1.png,t5.png,4,9.55E-11,20,female,2020-10-21_17h23.58.333,torte-q,2020.1.3,MacIntel,60,13245,,,,,,,,,,,,,,,,,,,,,,,,,,,,,,,,,,,,,,,,,,,,
,,,,,,,,,,,,a,0.568495,Correct!,0,73,73,116,1,t5.png,t4.png,1,0.90025,20,female,2020-10-21_17h23.58.333,torte-q,2020.1.3,MacIntel,60,13245,,,,,,,,,,,,,,,,,,,,,,,,,,,,,,,,,,,,,,,,,,,,
,,,,,,,,,,,,l,0.631685,Incorrect,0,74,74,20,1,t2.png,t3.png,1,0.90855,20,female,2020-10-21_17h23.58.333,torte-q,2020.1.3,MacIntel,60,13245,,,,,,,,,,,,,,,,,,,,,,,,,,,,,,,,,,,,,,,,,,,,
,,,,,,,,,,,,a,0.5105,Correct!,0,75,75,73,1,t4.png,t2.png,2,0.059078,20,female,2020-10-21_17h23.58.333,torte-q,2020.1.3,MacIntel,60,13245,,,,,,,,,,,,,,,,,,,,,,,,,,,,,,,,,,,,,,,,,,,,
,,,,,,,,,,,,a,0.869115,Correct!,0,76,76,76,1,t3.png,t2.png,1,0.90855,20,female,2020-10-21_17h23.58.333,torte-q,2020.1.3,MacIntel,60,13245,,,,,,,,,,,,,,,,,,,,,,,,,,,,,,,,,,,,,,,,,,,,
,,,,,,,,,,,,a,0.82564,Correct!,0,77,77,113,1,t5.png,t4.png,1,0.9,20,female,2020-10-21_17h23.58.333,torte-q,2020.1.3,MacIntel,60,13245,,,,,,,,,,,,,,,,,,,,,,,,,,,,,,,,,,,,,,,,,,,,
,,,,,,,,,,,,a,0.952525,Incorrect,0,78,78,30,1,t3.png,t1.png,2,0.056466,20,female,2020-10-21_17h23.58.333,torte-q,2020.1.3,MacIntel,60,13245,,,,,,,,,,,,,,,,,,,,,,,,,,,,,,,,,,,,,,,,,,,,
,,,,,,,,,,,,a,1.155755,Correct!,0,79,79,42,1,t5.png,t4.png,1,0.90025,20,female,2020-10-21_17h23.58.333,torte-q,2020.1.3,MacIntel,60,13245,,,,,,,,,,,,,,,,,,,,,,,,,,,,,,,,,,,,,,,,,,,,
,,,,,,,,,,,,l,0.618115,Incorrect,0,80,80,32,1,t4.png,t5.png,1,0.90025,20,female,2020-10-21_17h23.58.333,torte-q,2020.1.3,MacIntel,60,13245,,,,,,,,,,,,,,,,,,,,,,,,,,,,,,,,,,,,,,,,,,,,
,,,,,,,,,,,,a,0.92434,Correct!,0,81,81,34,1,t5.png,t4.png,1,0.9,20,female,2020-10-21_17h23.58.333,torte-q,2020.1.3,MacIntel,60,13245,,,,,,,,,,,,,,,,,,,,,,,,,,,,,,,,,,,,,,,,,,,,
,,,,,,,,,,,,l,0.603155,Correct!,0,82,82,66,1,t4.png,t5.png,1,0.9,20,female,2020-10-21_17h23.58.333,torte-q,2020.1.3,MacIntel,60,13245,,,,,,,,,,,,,,,,,,,,,,,,,,,,,,,,,,,,,,,,,,,,
,,,,,,,,,,,,a,1.381965,Correct!,0,83,83,16,1,t5.png,t4.png,1,0.9,20,female,2020-10-21_17h23.58.333,torte-q,2020.1.3,MacIntel,60,13245,,,,,,,,,,,,,,,,,,,,,,,,,,,,,,,,,,,,,,,,,,,,
,,,,,,,,,,,,l,1.059335,Incorrect,0,84,84,25,1,t5.png,t5.png,0,0.97829,20,female,2020-10-21_17h23.58.333,torte-q,2020.1.3,MacIntel,60,13245,,,,,,,,,,,,,,,,,,,,,,,,,,,,,,,,,,,,,,,,,,,,
,,,,,,,,,,,,l,0.885585,Incorrect,0,85,85,22,1,t2.png,t3.png,1,0.90855,20,female,2020-10-21_17h23.58.333,torte-q,2020.1.3,MacIntel,60,13245,,,,,,,,,,,,,,,,,,,,,,,,,,,,,,,,,,,,,,,,,,,,
,,,,,,,,,,,,l,0.64989,Incorrect,0,86,86,7,1,t4.png,t5.png,1,0.90025,20,female,2020-10-21_17h23.58.333,torte-q,2020.1.3,MacIntel,60,13245,,,,,,,,,,,,,,,,,,,,,,,,,,,,,,,,,,,,,,,,,,,,
,,,,,,,,,,,,l,0.8902,Incorrect,0,87,87,81,1,t1.png,t1.png,0,0.97829,20,female,2020-10-21_17h23.58.333,torte-q,2020.1.3,MacIntel,60,13245,,,,,,,,,,,,,,,,,,,,,,,,,,,,,,,,,,,,,,,,,,,,
,,,,,,,,,,,,a,0.637195,Correct!,0,88,88,69,1,t4.png,t2.png,2,0.059078,20,female,2020-10-21_17h23.58.333,torte-q,2020.1.3,MacIntel,60,13245,,,,,,,,,,,,,,,,,,,,,,,,,,,,,,,,,,,,,,,,,,,,
,,,,,,,,,,,,a,1.26795,Correct!,0,89,89,96,1,t1.png,t1.png,0,0.97829,20,female,2020-10-21_17h23.58.333,torte-q,2020.1.3,MacIntel,60,13245,,,,,,,,,,,,,,,,,,,,,,,,,,,,,,,,,,,,,,,,,,,,
,,,,,,,,,,,,l,1.033265,Incorrect,0,90,90,63,1,t2.png,t3.png,1,0.909,20,female,2020-10-21_17h23.58.333,torte-q,2020.1.3,MacIntel,60,13245,,,,,,,,,,,,,,,,,,,,,,,,,,,,,,,,,,,,,,,,,,,,
,,,,,,,,,,,,a,0.67526,Correct!,0,91,91,74,1,t5.png,t4.png,1,0.9,20,female,2020-10-21_17h23.58.333,torte-q,2020.1.3,MacIntel,60,13245,,,,,,,,,,,,,,,,,,,,,,,,,,,,,,,,,,,,,,,,,,,,
,,,,,,,,,,,,a,1.00057,Correct!,0,92,92,58,1,t5.png,t4.png,1,0.90025,20,female,2020-10-21_17h23.58.333,torte-q,2020.1.3,MacIntel,60,13245,,,,,,,,,,,,,,,,,,,,,,,,,,,,,,,,,,,,,,,,,,,,
,,,,,,,,,,,,l,1.31435,Correct!,0,93,93,67,1,t1.png,t5.png,4,9.55E-11,20,female,2020-10-21_17h23.58.333,torte-q,2020.1.3,MacIntel,60,13245,,,,,,,,,,,,,,,,,,,,,,,,,,,,,,,,,,,,,,,,,,,,
,,,,,,,,,,,,a,1.484195,Incorrect,0,94,94,47,1,t4.png,t2.png,2,0.059078,20,female,2020-10-21_17h23.58.333,torte-q,2020.1.3,MacIntel,60,13245,,,,,,,,,,,,,,,,,,,,,,,,,,,,,,,,,,,,,,,,,,,,
,,,,,,,,,,,,l,0.73592,Correct!,0,95,95,98,1,t2.png,t4.png,2,0.0591,20,female,2020-10-21_17h23.58.333,torte-q,2020.1.3,MacIntel,60,13245,,,,,,,,,,,,,,,,,,,,,,,,,,,,,,,,,,,,,,,,,,,,
,,,,,,,,,,,,l,0.600845,Correct!,0,96,96,117,1,t1.png,t5.png,4,9.55E-11,20,female,2020-10-21_17h23.58.333,torte-q,2020.1.3,MacIntel,60,13245,,,,,,,,,,,,,,,,,,,,,,,,,,,,,,,,,,,,,,,,,,,,
,,,,,,,,,,,,a,0.72583,Incorrect,0,97,97,33,1,t5.png,t1.png,4,9.55E-11,20,female,2020-10-21_17h23.58.333,torte-q,2020.1.3,MacIntel,60,13245,,,,,,,,,,,,,,,,,,,,,,,,,,,,,,,,,,,,,,,,,,,,
,,,,,,,,,,,,a,1.20908,Correct!,0,98,98,70,1,t5.png,t5.png,0,0.978,20,female,2020-10-21_17h23.58.333,torte-q,2020.1.3,MacIntel,60,13245,,,,,,,,,,,,,,,,,,,,,,,,,,,,,,,,,,,,,,,,,,,,
,,,,,,,,,,,,a,1.51008,Correct!,0,99,99,95,1,t1.png,t1.png,0,0.978,20,female,2020-10-21_17h23.58.333,torte-q,2020.1.3,MacIntel,60,13245,,,,,,,,,,,,,,,,,,,,,,,,,,,,,,,,,,,,,,,,,,,,
,,,,,,,,,,,,l,0.69963,Correct!,0,100,100,119,1,t1.png,t5.png,4,9.55E-11,20,female,2020-10-21_17h23.58.333,torte-q,2020.1.3,MacIntel,60,13245,,,,,,,,,,,,,,,,,,,,,,,,,,,,,,,,,,,,,,,,,,,,
,,,,,,,,,,,,a,1.78574,Correct!,0,101,101,48,1,t5.png,t5.png,0,0.97829,20,female,2020-10-21_17h23.58.333,torte-q,2020.1.3,MacIntel,60,13245,,,,,,,,,,,,,,,,,,,,,,,,,,,,,,,,,,,,,,,,,,,,
,,,,,,,,,,,,a,0.80174,Correct!,0,102,102,41,1,t3.png,t2.png,1,0.90855,20,female,2020-10-21_17h23.58.333,torte-q,2020.1.3,MacIntel,60,13245,,,,,,,,,,,,,,,,,,,,,,,,,,,,,,,,,,,,,,,,,,,,
,,,,,,,,,,,,l,0.73447,Correct!,0,103,103,40,1,t1.png,t5.png,4,9.55E-11,20,female,2020-10-21_17h23.58.333,torte-q,2020.1.3,MacIntel,60,13245,,,,,,,,,,,,,,,,,,,,,,,,,,,,,,,,,,,,,,,,,,,,
,,,,,,,,,,,,a,0.690315,Incorrect,0,104,104,72,1,t4.png,t2.png,2,0.059078,20,female,2020-10-21_17h23.58.333,torte-q,2020.1.3,MacIntel,60,13245,,,,,,,,,,,,,,,,,,,,,,,,,,,,,,,,,,,,,,,,,,,,
,,,,,,,,,,,,a,0.700125,Correct!,0,105,105,36,1,t3.png,t1.png,2,0.0565,20,female,2020-10-21_17h23.58.333,torte-q,2020.1.3,MacIntel,60,13245,,,,,,,,,,,,,,,,,,,,,,,,,,,,,,,,,,,,,,,,,,,,
,,,,,,,,,,,,l,0.58362,Correct!,0,106,106,17,1,t1.png,t4.png,3,0.0000131,20,female,2020-10-21_17h23.58.333,torte-q,2020.1.3,MacIntel,60,13245,,,,,,,,,,,,,,,,,,,,,,,,,,,,,,,,,,,,,,,,,,,,
,,,,,,,,,,,,l,0.522015,Correct!,0,107,107,11,1,t1.png,t4.png,3,0.0000131,20,female,2020-10-21_17h23.58.333,torte-q,2020.1.3,MacIntel,60,13245,,,,,,,,,,,,,,,,,,,,,,,,,,,,,,,,,,,,,,,,,,,,
,,,,,,,,,,,,l,0.51907,Correct!,0,108,108,5,1,t2.png,t4.png,2,0.059078,20,female,2020-10-21_17h23.58.333,torte-q,2020.1.3,MacIntel,60,13245,,,,,,,,,,,,,,,,,,,,,,,,,,,,,,,,,,,,,,,,,,,,
,,,,,,,,,,,,l,0.55256,Correct!,0,109,109,61,1,t1.png,t4.png,3,0.0000131,20,female,2020-10-21_17h23.58.333,torte-q,2020.1.3,MacIntel,60,13245,,,,,,,,,,,,,,,,,,,,,,,,,,,,,,,,,,,,,,,,,,,,
,,,,,,,,,,,,a,0.53307,Incorrect,0,110,110,88,1,t3.png,t1.png,2,0.056466,20,female,2020-10-21_17h23.58.333,torte-q,2020.1.3,MacIntel,60,13245,,,,,,,,,,,,,,,,,,,,,,,,,,,,,,,,,,,,,,,,,,,,
,,,,,,,,,,,,a,0.68647,Incorrect,0,111,111,103,1,t3.png,t1.png,2,0.056466,20,female,2020-10-21_17h23.58.333,torte-q,2020.1.3,MacIntel,60,13245,,,,,,,,,,,,,,,,,,,,,,,,,,,,,,,,,,,,,,,,,,,,
,,,,,,,,,,,,a,0.71901,Correct!,0,112,112,23,1,t5.png,t4.png,1,0.90025,20,female,2020-10-21_17h23.58.333,torte-q,2020.1.3,MacIntel,60,13245,,,,,,,,,,,,,,,,,,,,,,,,,,,,,,,,,,,,,,,,,,,,
,,,,,,,,,,,,l,0.536045,Correct!,0,113,113,89,1,t1.png,t4.png,3,0.0000131,20,female,2020-10-21_17h23.58.333,torte-q,2020.1.3,MacIntel,60,13245,,,,,,,,,,,,,,,,,,,,,,,,,,,,,,,,,,,,,,,,,,,,
,,,,,,,,,,,,l,0.583495,Correct!,0,114,114,3,1,t1.png,t5.png,4,9.55E-11,20,female,2020-10-21_17h23.58.333,torte-q,2020.1.3,MacIntel,60,13245,,,,,,,,,,,,,,,,,,,,,,,,,,,,,,,,,,,,,,,,,,,,
,,,,,,,,,,,,l,0.84292,Correct!,0,115,115,1,1,t2.png,t4.png,2,0.059078,20,female,2020-10-21_17h23.58.333,torte-q,2020.1.3,MacIntel,60,13245,,,,,,,,,,,,,,,,,,,,,,,,,,,,,,,,,,,,,,,,,,,,
,,,,,,,,,,,,a,1.42022,Correct!,0,116,116,78,1,t1.png,t1.png,0,0.978,20,female,2020-10-21_17h23.58.333,torte-q,2020.1.3,MacIntel,60,13245,,,,,,,,,,,,,,,,,,,,,,,,,,,,,,,,,,,,,,,,,,,,
,,,,,,,,,,,,l,0.82028,Incorrect,0,117,117,18,1,t4.png,t5.png,1,0.90025,20,female,2020-10-21_17h23.58.333,torte-q,2020.1.3,MacIntel,60,13245,,,,,,,,,,,,,,,,,,,,,,,,,,,,,,,,,,,,,,,,,,,,
,,,,,,,,,,,,l,0.75682,Correct!,0,118,118,37,1,t1.png,t4.png,3,0.0000131,20,female,2020-10-21_17h23.58.333,torte-q,2020.1.3,MacIntel,60,13245,,,,,,,,,,,,,,,,,,,,,,,,,,,,,,,,,,,,,,,,,,,,
,,,,,,,,,,,,l,0.97093,Incorrect,0,119,119,10,1,t2.png,t3.png,1,0.90855,20,female,2020-10-21_17h23.58.333,torte-q,2020.1.3,MacIntel,60,13245,,,,,,,,,,,,,,,,,,,,,,,,,,,,,,,,,,,,,,,,,,,,
,,,,,,,,,,,,l,1.47406,Correct!,,,,,,t1.png,t3.png,2,0.056466,20,female,2020-10-21_17h23.58.333,torte-q,2020.1.3,MacIntel,60,13245,space,2.724665,space,8.955795,0,0,0,60,1,,,,,,,,,,,,,,,,,,,,,,,,,,,,,,,,,,,
,,,,,,,,,,,,a,1.48331,Correct!,,,,,,t1.png,t1.png,0,0.97829,20,female,2020-10-21_17h23.58.333,torte-q,2020.1.3,MacIntel,60,13245,,,,,0,1,1,67,1,,,,,,,,,,,,,,,,,,,,,,,,,,,,,,,,,,,
,,,,,,,,,,,,a,1.021245,Correct!,,,,,,t5.png,t4.png,1,0.9,20,female,2020-10-21_17h23.58.333,torte-q,2020.1.3,MacIntel,60,13245,,,,,0,2,2,76,1,,,,,,,,,,,,,,,,,,,,,,,,,,,,,,,,,,,
,,,,,,,,,,,,a,0.938575,Correct!,,,,,,t4.png,t3.png,1,0.90855,20,female,2020-10-21_17h23.58.333,torte-q,2020.1.3,MacIntel,60,13245,,,,,0,3,3,75,1,,,,,,,,,,,,,,,,,,,,,,,,,,,,,,,,,,,
,,,,,,,,,,,,a,0.63339,Correct!,,,,,,t4.png,t3.png,1,0.90855,20,female,2020-10-21_17h23.58.333,torte-q,2020.1.3,MacIntel,60,13245,,,,,0,4,4,35,1,,,,,,,,,,,,,,,,,,,,,,,,,,,,,,,,,,,
,,,,,,,,,,,,a,1.436075,Correct!,,,,,,t5.png,t5.png,0,0.97829,20,female,2020-10-21_17h23.58.333,torte-q,2020.1.3,MacIntel,60,13245,,,,,0,5,5,25,1,,,,,,,,,,,,,,,,,,,,,,,,,,,,,,,,,,,
,,,,,,,,,,,,a,0.51637,Incorrect,,,,,,t4.png,t2.png,2,0.0591,20,female,2020-10-21_17h23.58.333,torte-q,2020.1.3,MacIntel,60,13245,,,,,0,6,6,36,1,,,,,,,,,,,,,,,,,,,,,,,,,,,,,,,,,,,
,,,,,,,,,,,,a,0.557125,Correct!,,,,,,t2.png,t1.png,1,0.90025,20,female,2020-10-21_17h23.58.333,torte-q,2020.1.3,MacIntel,60,13245,,,,,0,7,7,4,1,,,,,,,,,,,,,,,,,,,,,,,,,,,,,,,,,,,
,,,,,,,,,,,,a,0.567315,Correct!,,,,,,t4.png,t3.png,1,0.909,20,female,2020-10-21_17h23.58.333,torte-q,2020.1.3,MacIntel,60,13245,,,,,0,8,8,46,1,,,,,,,,,,,,,,,,,,,,,,,,,,,,,,,,,,,
,,,,,,,,,,,,a,0.752665,Correct!,,,,,,t3.png,t2.png,1,0.90855,20,female,2020-10-21_17h23.58.333,torte-q,2020.1.3,MacIntel,60,13245,,,,,0,9,9,53,1,,,,,,,,,,,,,,,,,,,,,,,,,,,,,,,,,,,
,,,,,,,,,,,,a,0.868425,Correct!,,,,,,t3.png,t2.png,1,0.90855,20,female,2020-10-21_17h23.58.333,torte-q,2020.1.3,MacIntel,60,13245,,,,,0,10,10,97,1,,,,,,,,,,,,,,,,,,,,,,,,,,,,,,,,,,,
,,,,,,,,,,,,a,0.636235,Incorrect,,,,,,t5.png,t1.png,4,9.55E-11,20,female,2020-10-21_17h23.58.333,torte-q,2020.1.3,MacIntel,60,13245,,,,,0,11,11,22,1,,,,,,,,,,,,,,,,,,,,,,,,,,,,,,,,,,,
,,,,,,,,,,,,a,0.363315,Correct!,,,,,,t3.png,t2.png,1,0.909,20,female,2020-10-21_17h23.58.333,torte-q,2020.1.3,MacIntel,60,13245,,,,,0,12,12,3,1,,,,,,,,,,,,,,,,,,,,,,,,,,,,,,,,,,,
,,,,,,,,,,,,a,0.351125,Incorrect,,,,,,t5.png,t3.png,2,0.056466,20,female,2020-10-21_17h23.58.333,torte-q,2020.1.3,MacIntel,60,13245,,,,,0,13,13,114,1,,,,,,,,,,,,,,,,,,,,,,,,,,,,,,,,,,,
,,,,,,,,,,,,a,1.31954,Correct!,,,,,,t1.png,t1.png,0,0.978,20,female,2020-10-21_17h23.58.333,torte-q,2020.1.3,MacIntel,60,13245,,,,,0,14,14,54,1,,,,,,,,,,,,,,,,,,,,,,,,,,,,,,,,,,,
,,,,,,,,,,,,a,0.46995,Correct!,,,,,,t2.png,t1.png,1,0.90025,20,female,2020-10-21_17h23.58.333,torte-q,2020.1.3,MacIntel,60,13245,,,,,0,15,15,19,1,,,,,,,,,,,,,,,,,,,,,,,,,,,,,,,,,,,
,,,,,,,,,,,,a,0.58407,Incorrect,,,,,,t3.png,t1.png,2,0.056466,20,female,2020-10-21_17h23.58.333,torte-q,2020.1.3,MacIntel,60,13245,,,,,0,16,16,32,1,,,,,,,,,,,,,,,,,,,,,,,,,,,,,,,,,,,
,,,,,,,,,,,,l,0.86902,Correct!,,,,,,t2.png,t4.png,2,0.059078,20,female,2020-10-21_17h23.58.333,torte-q,2020.1.3,MacIntel,60,13245,,,,,0,17,17,77,1,,,,,,,,,,,,,,,,,,,,,,,,,,,,,,,,,,,
,,,,,,,,,,,,l,1.36026,Correct!,,,,,,t2.png,t3.png,1,0.90855,20,female,2020-10-21_17h23.58.333,torte-q,2020.1.3,MacIntel,60,13245,,,,,0,18,18,10,1,,,,,,,,,,,,,,,,,,,,,,,,,,,,,,,,,,,
,,,,,,,,,,,,a,1.13603,Correct!,,,,,,t2.png,t2.png,0,0.98115,20,female,2020-10-21_17h23.58.333,torte-q,2020.1.3,MacIntel,60,13245,,,,,0,19,19,2,1,,,,,,,,,,,,,,,,,,,,,,,,,,,,,,,,,,,
,,,,,,,,,,,,l,1.354725,Incorrect,,,,,,t4.png,t4.png,0,0.98115,20,female,2020-10-21_17h23.58.333,torte-q,2020.1.3,MacIntel,60,13245,,,,,0,20,20,52,1,,,,,,,,,,,,,,,,,,,,,,,,,,,,,,,,,,,
,,,,,,,,,,,,a,0.78684,Incorrect,,,,,,t2.png,t1.png,1,0.9,20,female,2020-10-21_17h23.58.333,torte-q,2020.1.3,MacIntel,60,13245,,,,,0,21,21,118,1,,,,,,,,,,,,,,,,,,,,,,,,,,,,,,,,,,,
,,,,,,,,,,,,a,0.49228,Correct!,,,,,,t3.png,t2.png,1,0.90855,20,female,2020-10-21_17h23.58.333,torte-q,2020.1.3,MacIntel,60,13245,,,,,0,22,22,18,1,,,,,,,,,,,,,,,,,,,,,,,,,,,,,,,,,,,
,,,,,,,,,,,,a,0.364295,Incorrect,,,,,,t3.png,t2.png,1,0.909,20,female,2020-10-21_17h23.58.333,torte-q,2020.1.3,MacIntel,60,13245,,,,,0,23,23,23,1,,,,,,,,,,,,,,,,,,,,,,,,,,,,,,,,,,,
,,,,,,,,,,,,a,0.33453,Correct!,,,,,,t1.png,t1.png,0,0.97829,20,female,2020-10-21_17h23.58.333,torte-q,2020.1.3,MacIntel,60,13245,,,,,0,24,24,9,1,,,,,,,,,,,,,,,,,,,,,,,,,,,,,,,,,,,
,,,,,,,,,,,,a,0.508355,Incorrect,,,,,,t5.png,t2.png,3,0.0000131,20,female,2020-10-21_17h23.58.333,torte-q,2020.1.3,MacIntel,60,13245,,,,,0,25,25,116,1,,,,,,,,,,,,,,,,,,,,,,,,,,,,,,,,,,,
,,,,,,,,,,,,a,0.45004,Correct!,,,,,,t1.png,t2.png,1,0.90025,20,female,2020-10-21_17h23.58.333,torte-q,2020.1.3,MacIntel,60,13245,,,,,0,26,26,33,1,,,,,,,,,,,,,,,,,,,,,,,,,,,,,,,,,,,
,,,,,,,,,,,,a,0.504795,Incorrect,,,,,,t5.png,t1.png,4,9.55E-11,20,female,2020-10-21_17h23.58.333,torte-q,2020.1.3,MacIntel,60,13245,,,,,0,27,27,102,1,,,,,,,,,,,,,,,,,,,,,,,,,,,,,,,,,,,
,,,,,,,,,,,,a,0.634325,Correct!,,,,,,t3.png,t4.png,1,0.90855,20,female,2020-10-21_17h23.58.333,torte-q,2020.1.3,MacIntel,60,13245,,,,,0,28,28,96,1,,,,,,,,,,,,,,,,,,,,,,,,,,,,,,,,,,,
,,,,,,,,,,,,a,1.352075,Correct!,,,,,,t5.png,t5.png,0,0.97829,20,female,2020-10-21_17h23.58.333,torte-q,2020.1.3,MacIntel,60,13245,,,,,0,29,29,94,1,,,,,,,,,,,,,,,,,,,,,,,,,,,,,,,,,,,
,,,,,,,,,,,,l,0.93566,Correct!,,,,,,t1.png,t2.png,1,0.90025,20,female,2020-10-21_17h23.58.333,torte-q,2020.1.3,MacIntel,60,13245,,,,,0,30,30,105,1,,,,,,,,,,,,,,,,,,,,,,,,,,,,,,,,,,,
,,,,,,,,,,,,l,0.886875,Incorrect,,,,,,t3.png,t4.png,1,0.90855,20,female,2020-10-21_17h23.58.333,torte-q,2020.1.3,MacIntel,60,13245,,,,,0,31,31,84,1,,,,,,,,,,,,,,,,,,,,,,,,,,,,,,,,,,,
,,,,,,,,,,,,a,0.69243,Incorrect,,,,,,t5.png,t3.png,2,0.056466,20,female,2020-10-21_17h23.58.333,torte-q,2020.1.3,MacIntel,60,13245,,,,,0,32,32,108,1,,,,,,,,,,,,,,,,,,,,,,,,,,,,,,,,,,,
,,,,,,,,,,,,l,0.607825,Correct!,,,,,,t1.png,t5.png,4,9.55E-11,20,female,2020-10-21_17h23.58.333,torte-q,2020.1.3,MacIntel,60,13245,,,,,0,33,33,85,1,,,,,,,,,,,,,,,,,,,,,,,,,,,,,,,,,,,
,,,,,,,,,,,,a,0.83996,Correct!,,,,,,t4.png,t3.png,1,0.909,20,female,2020-10-21_17h23.58.333,torte-q,2020.1.3,MacIntel,60,13245,,,,,0,34,34,20,1,,,,,,,,,,,,,,,,,,,,,,,,,,,,,,,,,,,
,,,,,,,,,,,,a,1.3419,Correct!,,,,,,t2.png,t2.png,0,0.98115,20,female,2020-10-21_17h23.58.333,torte-q,2020.1.3,MacIntel,60,13245,,,,,0,35,35,59,1,,,,,,,,,,,,,,,,,,,,,,,,,,,,,,,,,,,
,,,,,,,,,,,,l,0.80297,Correct!,,,,,,t2.png,t5.png,3,0.0000131,20,female,2020-10-21_17h23.58.333,torte-q,2020.1.3,MacIntel,60,13245,,,,,0,36,36,66,1,,,,,,,,,,,,,,,,,,,,,,,,,,,,,,,,,,,
,,,,,,,,,,,,a,0.50994,Incorrect,,,,,,t5.png,t2.png,3,0.0000131,20,female,2020-10-21_17h23.58.333,torte-q,2020.1.3,MacIntel,60,13245,,,,,0,37,37,119,1,,,,,,,,,,,,,,,,,,,,,,,,,,,,,,,,,,,
,,,,,,,,,,,,l,0.56665,Incorrect,,,,,,t4.png,t5.png,1,0.9,20,female,2020-10-21_17h23.58.333,torte-q,2020.1.3,MacIntel,60,13245,,,,,0,38,38,115,1,,,,,,,,,,,,,,,,,,,,,,,,,,,,,,,,,,,
,,,,,,,,,,,,a,0.61701,Incorrect,,,,,,t5.png,t3.png,2,0.056466,20,female,2020-10-21_17h23.58.333,torte-q,2020.1.3,MacIntel,60,13245,,,,,0,39,39,56,1,,,,,,,,,,,,,,,,,,,,,,,,,,,,,,,,,,,
,,,,,,,,,,,,l,0.709975,Correct!,,,,,,t1.png,t4.png,3,0.0000131,20,female,2020-10-21_17h23.58.333,torte-q,2020.1.3,MacIntel,60,13245,,,,,0,40,40,81,1,,,,,,,,,,,,,,,,,,,,,,,,,,,,,,,,,,,
,,,,,,,,,,,,l,1.00305,Correct!,,,,,,t3.png,t5.png,2,0.056466,20,female,2020-10-21_17h23.58.333,torte-q,2020.1.3,MacIntel,60,13245,,,,,0,41,41,44,1,,,,,,,,,,,,,,,,,,,,,,,,,,,,,,,,,,,
,,,,,,,,,,,,l,1.049745,Incorrect,,,,,,t2.png,t3.png,1,0.90855,20,female,2020-10-21_17h23.58.333,torte-q,2020.1.3,MacIntel,60,13245,,,,,0,42,42,68,1,,,,,,,,,,,,,,,,,,,,,,,,,,,,,,,,,,,
,,,,,,,,,,,,a,0.63508,Correct!,,,,,,t2.png,t1.png,1,0.90025,20,female,2020-10-21_17h23.58.333,torte-q,2020.1.3,MacIntel,60,13245,,,,,0,43,43,5,1,,,,,,,,,,,,,,,,,,,,,,,,,,,,,,,,,,,
,,,,,,,,,,,,l,0.81956,Incorrect,,,,,,t4.png,t5.png,1,0.90025,20,female,2020-10-21_17h23.58.333,torte-q,2020.1.3,MacIntel,60,13245,,,,,0,44,44,47,1,,,,,,,,,,,,,,,,,,,,,,,,,,,,,,,,,,,
,,,,,,,,,,,,l,0.68348,Incorrect,,,,,,t4.png,t4.png,0,0.98115,20,female,2020-10-21_17h23.58.333,torte-q,2020.1.3,MacIntel,60,13245,,,,,0,45,45,21,1,,,,,,,,,,,,,,,,,,,,,,,,,,,,,,,,,,,
,,,,,,,,,,,,a,0.53723,Incorrect,,,,,,t4.png,t1.png,3,0.0000131,20,female,2020-10-21_17h23.58.333,torte-q,2020.1.3,MacIntel,60,13245,,,,,0,46,46,61,1,,,,,,,,,,,,,,,,,,,,,,,,,,,,,,,,,,,
,,,,,,,,,,,,a,1.319695,Correct!,,,,,,t5.png,t4.png,1,0.90025,20,female,2020-10-21_17h23.58.333,torte-q,2020.1.3,MacIntel,60,13245,,,,,0,47,47,27,1,,,,,,,,,,,,,,,,,,,,,,,,,,,,,,,,,,,
,,,,,,,,,,,,l,0.93481,Correct!,,,,,,t1.png,t5.png,4,9.55E-11,20,female,2020-10-21_17h23.58.333,torte-q,2020.1.3,MacIntel,60,13245,,,,,0,48,48,12,1,,,,,,,,,,,,,,,,,,,,,,,,,,,,,,,,,,,
,,,,,,,,,,,,a,1.59925,Correct!,,,,,,t4.png,t4.png,0,0.98115,20,female,2020-10-21_17h23.58.333,torte-q,2020.1.3,MacIntel,60,13245,,,,,0,49,49,80,1,,,,,,,,,,,,,,,,,,,,,,,,,,,,,,,,,,,
,,,,,,,,,,,,l,0.716745,Correct!,,,,,,t1.png,t3.png,2,0.056466,20,female,2020-10-21_17h23.58.333,torte-q,2020.1.3,MacIntel,60,13245,,,,,0,50,50,99,1,,,,,,,,,,,,,,,,,,,,,,,,,,,,,,,,,,,
,,,,,,,,,,,,l,0.783445,Correct!,,,,,,t3.png,t5.png,2,0.0565,20,female,2020-10-21_17h23.58.333,torte-q,2020.1.3,MacIntel,60,13245,,,,,0,51,51,83,1,,,,,,,,,,,,,,,,,,,,,,,,,,,,,,,,,,,
,,,,,,,,,,,,a,0.793625,Incorrect,,,,,,t3.png,t1.png,2,0.056466,20,female,2020-10-21_17h23.58.333,torte-q,2020.1.3,MacIntel,60,13245,,,,,0,52,52,64,1,,,,,,,,,,,,,,,,,,,,,,,,,,,,,,,,,,,
,,,,,,,,,,,,a,1.51605,Correct!,,,,,,t2.png,t2.png,0,0.981,20,female,2020-10-21_17h23.58.333,torte-q,2020.1.3,MacIntel,60,13245,,,,,0,53,53,101,1,,,,,,,,,,,,,,,,,,,,,,,,,,,,,,,,,,,
,,,,,,,,,,,,l,0.60154,Correct!,,,,,,t3.png,t5.png,2,0.056466,20,female,2020-10-21_17h23.58.333,torte-q,2020.1.3,MacIntel,60,13245,,,,,0,54,54,6,1,,,,,,,,,,,,,,,,,,,,,,,,,,,,,,,,,,,
,,,,,,,,,,,,a,0.499165,Incorrect,,,,,,t5.png,t1.png,4,9.55E-11,20,female,2020-10-21_17h23.58.333,torte-q,2020.1.3,MacIntel,60,13245,,,,,0,55,55,71,1,,,,,,,,,,,,,,,,,,,,,,,,,,,,,,,,,,,
,,,,,,,,,,,,a,0.982675,Correct!,,,,,,t4.png,t3.png,1,0.90855,20,female,2020-10-21_17h23.58.333,torte-q,2020.1.3,MacIntel,60,13245,,,,,0,56,56,45,1,,,,,,,,,,,,,,,,,,,,,,,,,,,,,,,,,,,
,,,,,,,,,,,,a,0.437875,Incorrect,,,,,,t4.png,t2.png,2,0.059078,20,female,2020-10-21_17h23.58.333,torte-q,2020.1.3,MacIntel,60,13245,,,,,0,57,57,110,1,,,,,,,,,,,,,,,,,,,,,,,,,,,,,,,,,,,
,,,,,,,,,,,,l,0.686865,Correct!,,,,,,t1.png,t4.png,3,0.0000131,20,female,2020-10-21_17h23.58.333,torte-q,2020.1.3,MacIntel,60,13245,,,,,0,58,58,92,1,,,,,,,,,,,,,,,,,,,,,,,,,,,,,,,,,,,
,,,,,,,,,,,,a,0.383595,Correct!,,,,,,t3.png,t4.png,1,0.909,20,female,2020-10-21_17h23.58.333,torte-q,2020.1.3,MacIntel,60,13245,,,,,0,59,59,106,1,,,,,,,,,,,,,,,,,,,,,,,,,,,,,,,,,,,
,,,,,,,,,,,,l,0.523045,Correct!,,,,,,t1.png,t3.png,2,0.056466,20,female,2020-10-21_17h23.58.333,torte-q,2020.1.3,MacIntel,60,13245,,,,,0,60,60,69,1,,,,,,,,,,,,,,,,,,,,,,,,,,,,,,,,,,,
,,,,,,,,,,,,a,0.53479,Incorrect,,,,,,t4.png,t1.png,3,0.0000131,20,female,2020-10-21_17h23.58.333,torte-q,2020.1.3,MacIntel,60,13245,,,,,0,61,61,13,1,,,,,,,,,,,,,,,,,,,,,,,,,,,,,,,,,,,
,,,,,,,,,,,,l,0.568325,Correct!,,,,,,t2.png,t4.png,2,0.059078,20,female,2020-10-21_17h23.58.333,torte-q,2020.1.3,MacIntel,60,13245,,,,,0,62,62,24,1,,,,,,,,,,,,,,,,,,,,,,,,,,,,,,,,,,,
,,,,,,,,,,,,a,1.43563,Incorrect,,,,,,t4.png,t1.png,3,0.0000131,20,female,2020-10-21_17h23.58.333,torte-q,2020.1.3,MacIntel,60,13245,,,,,0,63,63,48,1,,,,,,,,,,,,,,,,,,,,,,,,,,,,,,,,,,,
,,,,,,,,,,,,l,0.754055,Correct!,,,,,,t2.png,t5.png,3,0.0000131,20,female,2020-10-21_17h23.58.333,torte-q,2020.1.3,MacIntel,60,13245,,,,,0,64,64,104,1,,,,,,,,,,,,,,,,,,,,,,,,,,,,,,,,,,,
,,,,,,,,,,,,l,0.634185,Correct!,,,,,,t1.png,t5.png,4,9.55E-11,20,female,2020-10-21_17h23.58.333,torte-q,2020.1.3,MacIntel,60,13245,,,,,0,65,65,16,1,,,,,,,,,,,,,,,,,,,,,,,,,,,,,,,,,,,
,,,,,,,,,,,,l,0.715405,Incorrect,,,,,,t4.png,t5.png,1,0.90025,20,female,2020-10-21_17h23.58.333,torte-q,2020.1.3,MacIntel,60,13245,,,,,0,66,66,113,1,,,,,,,,,,,,,,,,,,,,,,,,,,,,,,,,,,,
,,,,,,,,,,,,a,0.63639,Correct!,,,,,,t5.png,t4.png,1,0.90025,20,female,2020-10-21_17h23.58.333,torte-q,2020.1.3,MacIntel,60,13245,,,,,0,67,67,34,1,,,,,,,,,,,,,,,,,,,,,,,,,,,,,,,,,,,
,,,,,,,,,,,,a,1.01245,Correct!,,,,,,t2.png,t2.png,0,0.98115,20,female,2020-10-21_17h23.58.333,torte-q,2020.1.3,MacIntel,60,13245,,,,,0,68,68,7,1,,,,,,,,,,,,,,,,,,,,,,,,,,,,,,,,,,,
,,,,,,,,,,,,a,0.80613,Correct!,,,,,,t5.png,t5.png,0,0.97829,20,female,2020-10-21_17h23.58.333,torte-q,2020.1.3,MacIntel,60,13245,,,,,0,69,69,70,1,,,,,,,,,,,,,,,,,,,,,,,,,,,,,,,,,,,
,,,,,,,,,,,,a,0.454115,Correct!,,,,,,t1.png,t2.png,1,0.90025,20,female,2020-10-21_17h23.58.333,torte-q,2020.1.3,MacIntel,60,13245,,,,,0,70,70,112,1,,,,,,,,,,,,,,,,,,,,,,,,,,,,,,,,,,,
,,,,,,,,,,,,l,0.51996,Incorrect,,,,,,t2.png,t3.png,1,0.90855,20,female,2020-10-21_17h23.58.333,torte-q,2020.1.3,MacIntel,60,13245,,,,,0,71,71,111,1,,,,,,,,,,,,,,,,,,,,,,,,,,,,,,,,,,,
,,,,,,,,,,,,l,0.598685,Correct!,,,,,,t1.png,t3.png,2,0.056466,20,female,2020-10-21_17h23.58.333,torte-q,2020.1.3,MacIntel,60,13245,,,,,0,72,72,87,1,,,,,,,,,,,,,,,,,,,,,,,,,,,,,,,,,,,
,,,,,,,,,,,,l,0.385285,Incorrect,,,,,,t1.png,t2.png,1,0.90025,20,female,2020-10-21_17h23.58.333,torte-q,2020.1.3,MacIntel,60,13245,,,,,0,73,73,72,1,,,,,,,,,,,,,,,,,,,,,,,,,,,,,,,,,,,
,,,,,,,,,,,,a,0.582535,Incorrect,,,,,,t3.png,t1.png,2,0.056466,20,female,2020-10-21_17h23.58.333,torte-q,2020.1.3,MacIntel,60,13245,,,,,0,74,74,0,1,,,,,,,,,,,,,,,,,,,,,,,,,,,,,,,,,,,
,,,,,,,,,,,,a,0.56851,Incorrect,,,,,,t3.png,t1.png,2,0.056466,20,female,2020-10-21_17h23.58.333,torte-q,2020.1.3,MacIntel,60,13245,,,,,0,75,75,29,1,,,,,,,,,,,,,,,,,,,,,,,,,,,,,,,,,,,
,,,,,,,,,,,,a,0.526135,Incorrect,,,,,,t4.png,t2.png,2,0.059078,20,female,2020-10-21_17h23.58.333,torte-q,2020.1.3,MacIntel,60,13245,,,,,0,76,76,86,1,,,,,,,,,,,,,,,,,,,,,,,,,,,,,,,,,,,
,,,,,,,,,,,,l,0.600025,Correct!,,,,,,t1.png,t4.png,3,0.0000131,20,female,2020-10-21_17h23.58.333,torte-q,2020.1.3,MacIntel,60,13245,,,,,0,77,77,17,1,,,,,,,,,,,,,,,,,,,,,,,,,,,,,,,,,,,
,,,,,,,,,,,,a,0.70696,Incorrect,,,,,,t3.png,t1.png,2,0.0565,20,female,2020-10-21_17h23.58.333,torte-q,2020.1.3,MacIntel,60,13245,,,,,0,78,78,31,1,,,,,,,,,,,,,,,,,,,,,,,,,,,,,,,,,,,
,,,,,,,,,,,,a,0.608775,Incorrect,,,,,,t4.png,t2.png,2,0.059078,20,female,2020-10-21_17h23.58.333,torte-q,2020.1.3,MacIntel,60,13245,,,,,0,79,79,109,1,,,,,,,,,,,,,,,,,,,,,,,,,,,,,,,,,,,
,,,,,,,,,,,,l,0.53767,Correct!,,,,,,t2.png,t4.png,2,0.059078,20,female,2020-10-21_17h23.58.333,torte-q,2020.1.3,MacIntel,60,13245,,,,,0,80,80,11,1,,,,,,,,,,,,,,,,,,,,,,,,,,,,,,,,,,,
,,,,,,,,,,,,a,0.66938,Correct!,,,,,,t5.png,t5.png,0,0.97829,20,female,2020-10-21_17h23.58.333,torte-q,2020.1.3,MacIntel,60,13245,,,,,0,81,81,73,1,,,,,,,,,,,,,,,,,,,,,,,,,,,,,,,,,,,
,,,,,,,,,,,,l,0.53731,Correct!,,,,,,t3.png,t5.png,2,0.0565,20,female,2020-10-21_17h23.58.333,torte-q,2020.1.3,MacIntel,60,13245,,,,,0,82,82,30,1,,,,,,,,,,,,,,,,,,,,,,,,,,,,,,,,,,,
,,,,,,,,,,,,l,0.624025,Correct!,,,,,,t1.png,t3.png,2,0.056466,20,female,2020-10-21_17h23.58.333,torte-q,2020.1.3,MacIntel,60,13245,,,,,0,83,83,63,1,,,,,,,,,,,,,,,,,,,,,,,,,,,,,,,,,,,
,,,,,,,,,,,,a,0.64227,Incorrect,,,,,,t5.png,t1.png,4,9.55E-11,20,female,2020-10-21_17h23.58.333,torte-q,2020.1.3,MacIntel,60,13245,,,,,0,84,84,43,1,,,,,,,,,,,,,,,,,,,,,,,,,,,,,,,,,,,
,,,,,,,,,,,,l,0.550595,Incorrect,,,,,,t2.png,t3.png,1,0.90855,20,female,2020-10-21_17h23.58.333,torte-q,2020.1.3,MacIntel,60,13245,,,,,0,85,85,65,1,,,,,,,,,,,,,,,,,,,,,,,,,,,,,,,,,,,
,,,,,,,,,,,,l,0.597455,Correct!,,,,,,t1.png,t4.png,3,0.0000131,20,female,2020-10-21_17h23.58.333,torte-q,2020.1.3,MacIntel,60,13245,,,,,0,86,86,50,1,,,,,,,,,,,,,,,,,,,,,,,,,,,,,,,,,,,
,,,,,,,,,,,,a,0.616635,Incorrect,,,,,,t4.png,t1.png,3,0.0000131,20,female,2020-10-21_17h23.58.333,torte-q,2020.1.3,MacIntel,60,13245,,,,,0,87,87,42,1,,,,,,,,,,,,,,,,,,,,,,,,,,,,,,,,,,,
,,,,,,,,,,,,a,1.86647,Correct!,,,,,,t4.png,t4.png,0,0.98115,20,female,2020-10-21_17h23.58.333,torte-q,2020.1.3,MacIntel,60,13245,,,,,0,88,88,79,1,,,,,,,,,,,,,,,,,,,,,,,,,,,,,,,,,,,
,,,,,,,,,,,,a,1.352405,Correct!,,,,,,t4.png,t5.png,1,0.90025,20,female,2020-10-21_17h23.58.333,torte-q,2020.1.3,MacIntel,60,13245,,,,,0,89,89,103,1,,,,,,,,,,,,,,,,,,,,,,,,,,,,,,,,,,,
,,,,,,,,,,,,l,1.35699,Correct!,,,,,,t3.png,t5.png,2,0.056466,20,female,2020-10-21_17h23.58.333,torte-q,2020.1.3,MacIntel,60,13245,,,,,0,90,90,14,1,,,,,,,,,,,,,,,,,,,,,,,,,,,,,,,,,,,
,,,,,,,,,,,,l,0.88019,Correct!,,,,,,t2.png,t4.png,2,0.059078,20,female,2020-10-21_17h23.58.333,torte-q,2020.1.3,MacIntel,60,13245,,,,,0,91,91,37,1,,,,,,,,,,,,,,,,,,,,,,,,,,,,,,,,,,,
,,,,,,,,,,,,l,0.568855,Correct!,,,,,,t1.png,t5.png,4,9.55E-11,20,female,2020-10-21_17h23.58.333,torte-q,2020.1.3,MacIntel,60,13245,,,,,0,92,92,41,1,,,,,,,,,,,,,,,,,,,,,,,,,,,,,,,,,,,
,,,,,,,,,,,,l,0.524185,Correct!,,,,,,t2.png,t5.png,3,0.0000131,20,female,2020-10-21_17h23.58.333,torte-q,2020.1.3,MacIntel,60,13245,,,,,0,93,93,95,1,,,,,,,,,,,,,,,,,,,,,,,,,,,,,,,,,,,
,,,,,,,,,,,,l,0.90624,Incorrect,,,,,,t5.png,t4.png,1,0.90025,20,female,2020-10-21_17h23.58.333,torte-q,2020.1.3,MacIntel,60,13245,,,,,0,94,94,26,1,,,,,,,,,,,,,,,,,,,,,,,,,,,,,,,,,,,
,,,,,,,,,,,,a,1.357375,Correct!,,,,,,t5.png,t5.png,0,0.978,20,female,2020-10-21_17h23.58.333,torte-q,2020.1.3,MacIntel,60,13245,,,,,0,95,95,117,1,,,,,,,,,,,,,,,,,,,,,,,,,,,,,,,,,,,
,,,,,,,,,,,,l,0.94073,Incorrect,,,,,,t4.png,t4.png,0,0.98115,20,female,2020-10-21_17h23.58.333,torte-q,2020.1.3,MacIntel,60,13245,,,,,0,96,96,90,1,,,,,,,,,,,,,,,,,,,,,,,,,,,,,,,,,,,
,,,,,,,,,,,,l,0.65403,Correct!,,,,,,t1.png,t5.png,4,9.55E-11,20,female,2020-10-21_17h23.58.333,torte-q,2020.1.3,MacIntel,60,13245,,,,,0,97,97,55,1,,,,,,,,,,,,,,,,,,,,,,,,,,,,,,,,,,,
,,,,,,,,,,,,l,0.642585,Correct!,,,,,,t1.png,t4.png,3,0.0000131,20,female,2020-10-21_17h23.58.333,torte-q,2020.1.3,MacIntel,60,13245,,,,,0,98,98,107,1,,,,,,,,,,,,,,,,,,,,,,,,,,,,,,,,,,,
,,,,,,,,,,,,l,0.450865,Correct!,,,,,,t2.png,t4.png,2,0.0591,20,female,2020-10-21_17h23.58.333,torte-q,2020.1.3,MacIntel,60,13245,,,,,0,99,99,15,1,,,,,,,,,,,,,,,,,,,,,,,,,,,,,,,,,,,
,,,,,,,,,,,,a,0.61328,Incorrect,,,,,,t5.png,t3.png,2,0.056466,20,female,2020-10-21_17h23.58.333,torte-q,2020.1.3,MacIntel,60,13245,,,,,0,100,100,38,1,,,,,,,,,,,,,,,,,,,,,,,,,,,,,,,,,,,
,,,,,,,,,,,,l,0.624065,Incorrect,,,,,,t4.png,t5.png,1,0.90025,20,female,2020-10-21_17h23.58.333,torte-q,2020.1.3,MacIntel,60,13245,,,,,0,101,101,58,1,,,,,,,,,,,,,,,,,,,,,,,,,,,,,,,,,,,
,,,,,,,,,,,,l,0.674975,Incorrect,,,,,,t3.png,t4.png,1,0.909,20,female,2020-10-21_17h23.58.333,torte-q,2020.1.3,MacIntel,60,13245,,,,,0,102,102,89,1,,,,,,,,,,,,,,,,,,,,,,,,,,,,,,,,,,,
,,,,,,,,,,,,l,0.35975,Incorrect,,,,,,t1.png,t1.png,0,0.978,20,female,2020-10-21_17h23.58.333,torte-q,2020.1.3,MacIntel,60,13245,,,,,0,103,103,28,1,,,,,,,,,,,,,,,,,,,,,,,,,,,,,,,,,,,
,,,,,,,,,,,,a,0.4827,Incorrect,,,,,,t5.png,t2.png,3,0.0000131,20,female,2020-10-21_17h23.58.333,torte-q,2020.1.3,MacIntel,60,13245,,,,,0,104,104,51,1,,,,,,,,,,,,,,,,,,,,,,,,,,,,,,,,,,,
,,,,,,,,,,,,a,0.618,Correct!,,,,,,t2.png,t1.png,1,0.90025,20,female,2020-10-21_17h23.58.333,torte-q,2020.1.3,MacIntel,60,13245,,,,,0,105,105,62,1,,,,,,,,,,,,,,,,,,,,,,,,,,,,,,,,,,,
,,,,,,,,,,,,a,0.441865,Incorrect,,,,,,t5.png,t2.png,3,0.0000131,20,female,2020-10-21_17h23.58.333,torte-q,2020.1.3,MacIntel,60,13245,,,,,0,106,106,91,1,,,,,,,,,,,,,,,,,,,,,,,,,,,,,,,,,,,
,,,,,,,,,,,,l,0.593845,Correct!,,,,,,t2.png,t5.png,3,0.0000131,20,female,2020-10-21_17h23.58.333,torte-q,2020.1.3,MacIntel,60,13245,,,,,0,107,107,40,1,,,,,,,,,,,,,,,,,,,,,,,,,,,,,,,,,,,
,,,,,,,,,,,,a,0.56563,Incorrect,,,,,,t4.png,t2.png,2,0.059078,20,female,2020-10-21_17h23.58.333,torte-q,2020.1.3,MacIntel,60,13245,,,,,0,108,108,88,1,,,,,,,,,,,,,,,,,,,,,,,,,,,,,,,,,,,
,,,,,,,,,,,,a,0.52349,Incorrect,,,,,,t5.png,t1.png,4,9.55E-11,20,female,2020-10-21_17h23.58.333,torte-q,2020.1.3,MacIntel,60,13245,,,,,0,109,109,100,1,,,,,,,,,,,,,,,,,,,,,,,,,,,,,,,,,,,
,,,,,,,,,,,,a,0.371065,Incorrect,,,,,,t5.png,t2.png,3,0.0000131,20,female,2020-10-21_17h23.58.333,torte-q,2020.1.3,MacIntel,60,13245,,,,,0,110,110,98,1,,,,,,,,,,,,,,,,,,,,,,,,,,,,,,,,,,,
,,,,,,,,,,,,a,0.54085,Incorrect,,,,,,t4.png,t1.png,3,0.0000131,20,female,2020-10-21_17h23.58.333,torte-q,2020.1.3,MacIntel,60,13245,,,,,0,111,111,93,1,,,,,,,,,,,,,,,,,,,,,,,,,,,,,,,,,,,
,,,,,,,,,,,,a,0.38495,Correct!,,,,,,t5.png,t4.png,1,0.9,20,female,2020-10-21_17h23.58.333,torte-q,2020.1.3,MacIntel,60,13245,,,,,0,112,112,49,1,,,,,,,,,,,,,,,,,,,,,,,,,,,,,,,,,,,
,,,,,,,,,,,,l,0.66652,Incorrect,,,,,,t2.png,t3.png,1,0.909,20,female,2020-10-21_17h23.58.333,torte-q,2020.1.3,MacIntel,60,13245,,,,,0,113,113,74,1,,,,,,,,,,,,,,,,,,,,,,,,,,,,,,,,,,,
,,,,,,,,,,,,a,0.97682,Correct!,,,,,,t1.png,t1.png,0,0.97829,20,female,2020-10-21_17h23.58.333,torte-q,2020.1.3,MacIntel,60,13245,,,,,0,114,114,78,1,,,,,,,,,,,,,,,,,,,,,,,,,,,,,,,,,,,
,,,,,,,,,,,,l,0.634785,Incorrect,,,,,,t3.png,t4.png,1,0.909,20,female,2020-10-21_17h23.58.333,torte-q,2020.1.3,MacIntel,60,13245,,,,,0,115,115,82,1,,,,,,,,,,,,,,,,,,,,,,,,,,,,,,,,,,,
,,,,,,,,,,,,l,0.601375,Incorrect,,,,,,t1.png,t2.png,1,0.9,20,female,2020-10-21_17h23.58.333,torte-q,2020.1.3,MacIntel,60,13245,,,,,0,116,116,1,1,,,,,,,,,,,,,,,,,,,,,,,,,,,,,,,,,,,
,,,,,,,,,,,,l,0.73457,Incorrect,,,,,,t2.png,t2.png,0,0.98115,20,female,2020-10-21_17h23.58.333,torte-q,2020.1.3,MacIntel,60,13245,,,,,0,117,117,57,1,,,,,,,,,,,,,,,,,,,,,,,,,,,,,,,,,,,
,,,,,,,,,,,,a,0.5507,Incorrect,,,,,,t5.png,t3.png,2,0.0565,20,female,2020-10-21_17h23.58.333,torte-q,2020.1.3,MacIntel,60,13245,,,,,0,118,118,39,1,,,,,,,,,,,,,,,,,,,,,,,,,,,,,,,,,,,
,,,,,,,,,,,,l,0.566985,Correct!,,,,,,t2.png,t5.png,3,0.0000131,20,female,2020-10-21_17h23.58.333,torte-q,2020.1.3,MacIntel,60,13245,,,,,0,119,119,8,1,,,,,,,,,,,,,,,,,,,,,,,,,,,,,,,,,,,
,,,,,,,,,,,,l,1.699905,Correct!,,,,,,t3.png,t5.png,2,0.0565,20,female,2020-10-21_17h23.58.333,torte-q,2020.1.3,MacIntel,60,13245,space,4.024525,,,,,,,,space,11.1591,space,223.21865,0,0,0,30,1,,,,,,,,,,,,,,,,,,,,,,,,,,
,,,,,,,,,,,,l,0.80252,Incorrect,,,,,,t3.png,t4.png,1,0.909,20,female,2020-10-21_17h23.58.333,torte-q,2020.1.3,MacIntel,60,13245,,,,,,,,,,,,,,0,1,1,106,1,,,,,,,,,,,,,,,,,,,,,,,,,,
,,,,,,,,,,,,a,0.60411,Incorrect,,,,,,t4.png,t2.png,2,0.059078,20,female,2020-10-21_17h23.58.333,torte-q,2020.1.3,MacIntel,60,13245,,,,,,,,,,,,,,0,2,2,110,1,,,,,,,,,,,,,,,,,,,,,,,,,,
,,,,,,,,,,,,l,0.56608,Incorrect,,,,,,t2.png,t3.png,1,0.909,20,female,2020-10-21_17h23.58.333,torte-q,2020.1.3,MacIntel,60,13245,,,,,,,,,,,,,,0,3,3,74,1,,,,,,,,,,,,,,,,,,,,,,,,,,
,,,,,,,,,,,,a,1.424305,Incorrect,,,,,,t1.png,t1.png,0,0.97829,20,female,2020-10-21_17h23.58.333,torte-q,2020.1.3,MacIntel,60,13245,,,,,,,,,,,,,,0,4,4,9,1,,,,,,,,,,,,,,,,,,,,,,,,,,
,,,,,,,,,,,,a,0.840575,Correct!,,,,,,t2.png,t1.png,1,0.90025,20,female,2020-10-21_17h23.58.333,torte-q,2020.1.3,MacIntel,60,13245,,,,,,,,,,,,,,0,5,5,19,1,,,,,,,,,,,,,,,,,,,,,,,,,,
,,,,,,,,,,,,a,0.608645,Incorrect,,,,,,t3.png,t1.png,2,0.056466,20,female,2020-10-21_17h23.58.333,torte-q,2020.1.3,MacIntel,60,13245,,,,,,,,,,,,,,0,6,6,29,1,,,,,,,,,,,,,,,,,,,,,,,,,,
,,,,,,,,,,,,a,0.923465,Correct!,,,,,,t4.png,t3.png,1,0.90855,20,female,2020-10-21_17h23.58.333,torte-q,2020.1.3,MacIntel,60,13245,,,,,,,,,,,,,,0,7,7,35,1,,,,,,,,,,,,,,,,,,,,,,,,,,
,,,,,,,,,,,,l,0.58416,Correct!,,,,,,t2.png,t5.png,3,0.0000131,20,female,2020-10-21_17h23.58.333,torte-q,2020.1.3,MacIntel,60,13245,,,,,,,,,,,,,,0,8,8,40,1,,,,,,,,,,,,,,,,,,,,,,,,,,
,,,,,,,,,,,,a,0.48538,Incorrect,,,,,,t3.png,t1.png,2,0.056466,20,female,2020-10-21_17h23.58.333,torte-q,2020.1.3,MacIntel,60,13245,,,,,,,,,,,,,,0,9,9,64,1,,,,,,,,,,,,,,,,,,,,,,,,,,
,,,,,,,,,,,,l,0.489855,Correct!,,,,,,t1.png,t5.png,4,9.55E-11,20,female,2020-10-21_17h23.58.333,torte-q,2020.1.3,MacIntel,60,13245,,,,,,,,,,,,,,0,10,10,85,1,,,,,,,,,,,,,,,,,,,,,,,,,,
,,,,,,,,,,,,l,0.54961,Correct!,,,,,,t1.png,t3.png,2,0.056466,20,female,2020-10-21_17h23.58.333,torte-q,2020.1.3,MacIntel,60,13245,,,,,,,,,,,,,,0,11,11,60,1,,,,,,,,,,,,,,,,,,,,,,,,,,
,,,,,,,,,,,,a,1.56668,Correct!,,,,,,t4.png,t4.png,0,0.98115,20,female,2020-10-21_17h23.58.333,torte-q,2020.1.3,MacIntel,60,13245,,,,,,,,,,,,,,0,12,12,79,1,,,,,,,,,,,,,,,,,,,,,,,,,,
,,,,,,,,,,,,a,0.51692,Incorrect,,,,,,t5.png,t1.png,4,9.55E-11,20,female,2020-10-21_17h23.58.333,torte-q,2020.1.3,MacIntel,60,13245,,,,,,,,,,,,,,0,13,13,43,1,,,,,,,,,,,,,,,,,,,,,,,,,,
,,,,,,,,,,,,a,1.004035,Correct!,,,,,,t1.png,t1.png,0,0.97829,20,female,2020-10-21_17h23.58.333,torte-q,2020.1.3,MacIntel,60,13245,,,,,,,,,,,,,,0,14,14,78,1,,,,,,,,,,,,,,,,,,,,,,,,,,
,,,,,,,,,,,,a,0.64848,Correct!,,,,,,t3.png,t2.png,1,0.909,20,female,2020-10-21_17h23.58.333,torte-q,2020.1.3,MacIntel,60,13245,,,,,,,,,,,,,,0,15,15,23,1,,,,,,,,,,,,,,,,,,,,,,,,,,
,,,,,,,,,,,,a,0.582015,Incorrect,,,,,,t5.png,t3.png,2,0.0565,20,female,2020-10-21_17h23.58.333,torte-q,2020.1.3,MacIntel,60,13245,,,,,,,,,,,,,,0,16,16,39,1,,,,,,,,,,,,,,,,,,,,,,,,,,
,,,,,,,,,,,,l,0.566325,Incorrect,,,,,,t4.png,t5.png,1,0.9,20,female,2020-10-21_17h23.58.333,torte-q,2020.1.3,MacIntel,60,13245,,,,,,,,,,,,,,0,17,17,115,1,,,,,,,,,,,,,,,,,,,,,,,,,,
,,,,,,,,,,,,l,0.55641,Correct!,,,,,,t2.png,t4.png,2,0.059078,20,female,2020-10-21_17h23.58.333,torte-q,2020.1.3,MacIntel,60,13245,,,,,,,,,,,,,,0,18,18,11,1,,,,,,,,,,,,,,,,,,,,,,,,,,
,,,,,,,,,,,,a,0.54116,Correct!,,,,,,t4.png,t3.png,1,0.90855,20,female,2020-10-21_17h23.58.333,torte-q,2020.1.3,MacIntel,60,13245,,,,,,,,,,,,,,0,19,19,45,1,,,,,,,,,,,,,,,,,,,,,,,,,,
,,,,,,,,,,,,a,1.086725,Correct!,,,,,,t3.png,t2.png,1,0.909,20,female,2020-10-21_17h23.58.333,torte-q,2020.1.3,MacIntel,60,13245,,,,,,,,,,,,,,0,20,20,3,1,,,,,,,,,,,,,,,,,,,,,,,,,,
,,,,,,,,,,,,,,Too slow :(,,,,,,t3.png,t4.png,1,0.909,20,female,2020-10-21_17h23.58.333,torte-q,2020.1.3,MacIntel,60,13245,,,,,,,,,,,,,,0,21,21,82,1,,,,,,,,,,,,,,,,,,,,,,,,,,
,,,,,,,,,,,,l,0.918695,Correct!,,,,,,t1.png,t3.png,2,0.056466,20,female,2020-10-21_17h23.58.333,torte-q,2020.1.3,MacIntel,60,13245,,,,,,,,,,,,,,0,22,22,99,1,,,,,,,,,,,,,,,,,,,,,,,,,,
,,,,,,,,,,,,a,1.00448,Correct!,,,,,,t3.png,t2.png,1,0.90855,20,female,2020-10-21_17h23.58.333,torte-q,2020.1.3,MacIntel,60,13245,,,,,,,,,,,,,,0,23,23,53,1,,,,,,,,,,,,,,,,,,,,,,,,,,
,,,,,,,,,,,,l,2.369145,Correct!,,,,,,t2.png,t5.png,3,0.0000131,20,female,2020-10-21_17h23.58.333,torte-q,2020.1.3,MacIntel,60,13245,,,,,,,,,,,,,,0,24,24,104,1,,,,,,,,,,,,,,,,,,,,,,,,,,
,,,,,,,,,,,,a,1.69676,Correct!,,,,,,t1.png,t1.png,0,0.978,20,female,2020-10-21_17h23.58.333,torte-q,2020.1.3,MacIntel,60,13245,,,,,,,,,,,,,,0,25,25,28,1,,,,,,,,,,,,,,,,,,,,,,,,,,
,,,,,,,,,,,,,,Too slow :(,,,,,,t3.png,t2.png,1,0.90855,20,female,2020-10-21_17h23.58.333,torte-q,2020.1.3,MacIntel,60,13245,,,,,,,,,,,,,,0,26,26,97,1,,,,,,,,,,,,,,,,,,,,,,,,,,
,,,,,,,,,,,,a,0.48299,Correct!,,,,,,t5.png,t5.png,0,0.97829,20,female,2020-10-21_17h23.58.333,torte-q,2020.1.3,MacIntel,60,13245,,,,,,,,,,,,,,0,27,27,70,1,,,,,,,,,,,,,,,,,,,,,,,,,,
,,,,,,,,,,,,l,0.73228,Incorrect,,,,,,t4.png,t5.png,1,0.90025,20,female,2020-10-21_17h23.58.333,torte-q,2020.1.3,MacIntel,60,13245,,,,,,,,,,,,,,0,28,28,103,1,,,,,,,,,,,,,,,,,,,,,,,,,,
,,,,,,,,,,,,a,1.771915,Incorrect,,,,,,t3.png,t1.png,2,0.0565,20,female,2020-10-21_17h23.58.333,torte-q,2020.1.3,MacIntel,60,13245,,,,,,,,,,,,,,0,29,29,31,1,,,,,,,,,,,,,,,,,,,,,,,,,,
,,,,,,,,,,,,a,0.494395,Incorrect,,,,,,t4.png,t2.png,2,0.059078,20,female,2020-10-21_17h23.58.333,torte-q,2020.1.3,MacIntel,60,13245,,,,,,,,,,,,,,0,30,30,88,1,,,,,,,,,,,,,,,,,,,,,,,,,,
,,,,,,,,,,,,a,0.55084,Correct!,,,,,,t5.png,t3.png,2,0.056466,20,female,2020-10-21_17h23.58.333,torte-q,2020.1.3,MacIntel,60,13245,,,,,,,,,,,,,,0,31,31,56,1,,,,,,,,,,,,,,,,,,,,,,,,,,
,,,,,,,,,,,,a,0.48826,Incorrect,,,,,,t4.png,t1.png,3,0.0000131,20,female,2020-10-21_17h23.58.333,torte-q,2020.1.3,MacIntel,60,13245,,,,,,,,,,,,,,0,32,32,13,1,,,,,,,,,,,,,,,,,,,,,,,,,,
,,,,,,,,,,,,,,Too slow :(,,,,,,t4.png,t5.png,1,0.90025,20,female,2020-10-21_17h23.58.333,torte-q,2020.1.3,MacIntel,60,13245,,,,,,,,,,,,,,0,33,33,113,1,,,,,,,,,,,,,,,,,,,,,,,,,,
,,,,,,,,,,,,,,Too slow :(,,,,,,t2.png,t2.png,0,0.98115,20,female,2020-10-21_17h23.58.333,torte-q,2020.1.3,MacIntel,60,13245,,,,,,,,,,,,,,0,34,34,57,1,,,,,,,,,,,,,,,,,,,,,,,,,,
,,,,,,,,,,,,,,Too slow :(,,,,,,t1.png,t5.png,4,9.55E-11,20,female,2020-10-21_17h23.58.333,torte-q,2020.1.3,MacIntel,60,13245,,,,,,,,,,,,,,0,35,35,16,1,,,,,,,,,,,,,,,,,,,,,,,,,,
,,,,,,,,,,,,,,Too slow :(,,,,,,t1.png,t2.png,1,0.90025,20,female,2020-10-21_17h23.58.333,torte-q,2020.1.3,MacIntel,60,13245,,,,,,,,,,,,,,0,36,36,72,1,,,,,,,,,,,,,,,,,,,,,,,,,,
,,,,,,,,,,,,,,Too slow :(,,,,,,t5.png,t4.png,1,0.90025,20,female,2020-10-21_17h23.58.333,torte-q,2020.1.3,MacIntel,60,13245,,,,,,,,,,,,,,0,37,37,26,1,,,,,,,,,,,,,,,,,,,,,,,,,,
,,,,,,,,,,,,,,Too slow :(,,,,,,t5.png,t2.png,3,0.0000131,20,female,2020-10-21_17h23.58.333,torte-q,2020.1.3,MacIntel,60,13245,,,,,,,,,,,,,,0,38,38,51,1,,,,,,,,,,,,,,,,,,,,,,,,,,
,,,,,,,,,,,,,,Too slow :(,,,,,,t4.png,t1.png,3,0.0000131,20,female,2020-10-21_17h23.58.333,torte-q,2020.1.3,MacIntel,60,13245,,,,,,,,,,,,,,0,39,39,93,1,,,,,,,,,,,,,,,,,,,,,,,,,,
,,,,,,,,,,,,,,Too slow :(,,,,,,t2.png,t1.png,1,0.90025,20,female,2020-10-21_17h23.58.333,torte-q,2020.1.3,MacIntel,60,13245,,,,,,,,,,,,,,0,40,40,4,1,,,,,,,,,,,,,,,,,,,,,,,,,,
,,,,,,,,,,,,,,Too slow :(,,,,,,t2.png,t3.png,1,0.90855,20,female,2020-10-21_17h23.58.333,torte-q,2020.1.3,MacIntel,60,13245,,,,,,,,,,,,,,0,41,41,10,1,,,,,,,,,,,,,,,,,,,,,,,,,,
,,,,,,,,,,,,,,Too slow :(,,,,,,t3.png,t4.png,1,0.90855,20,female,2020-10-21_17h23.58.333,torte-q,2020.1.3,MacIntel,60,13245,,,,,,,,,,,,,,0,42,42,96,1,,,,,,,,,,,,,,,,,,,,,,,,,,
,,,,,,,,,,,,,,Too slow :(,,,,,,t3.png,t5.png,2,0.056466,20,female,2020-10-21_17h23.58.333,torte-q,2020.1.3,MacIntel,60,13245,,,,,,,,,,,,,,0,43,43,6,1,,,,,,,,,,,,,,,,,,,,,,,,,,
,,,,,,,,,,,,,,Too slow :(,,,,,,t1.png,t1.png,0,0.978,20,female,2020-10-21_17h23.58.333,torte-q,2020.1.3,MacIntel,60,13245,,,,,,,,,,,,,,0,44,44,54,1,,,,,,,,,,,,,,,,,,,,,,,,,,
,,,,,,,,,,,,,,Too slow :(,,,,,,t2.png,t4.png,2,0.059078,20,female,2020-10-21_17h23.58.333,torte-q,2020.1.3,MacIntel,60,13245,,,,,,,,,,,,,,0,45,45,24,1,,,,,,,,,,,,,,,,,,,,,,,,,,
,,,,,,,,,,,,,,Too slow :(,,,,,,t1.png,t2.png,1,0.90025,20,female,2020-10-21_17h23.58.333,torte-q,2020.1.3,MacIntel,60,13245,,,,,,,,,,,,,,0,46,46,105,1,,,,,,,,,,,,,,,,,,,,,,,,,,
,,,,,,,,,,,,,,Too slow :(,,,,,,t5.png,t3.png,2,0.056466,20,female,2020-10-21_17h23.58.333,torte-q,2020.1.3,MacIntel,60,13245,,,,,,,,,,,,,,0,47,47,108,1,,,,,,,,,,,,,,,,,,,,,,,,,,
,,,,,,,,,,,,,,Too slow :(,,,,,,t3.png,t5.png,2,0.0565,20,female,2020-10-21_17h23.58.333,torte-q,2020.1.3,MacIntel,60,13245,,,,,,,,,,,,,,0,48,48,83,1,,,,,,,,,,,,,,,,,,,,,,,,,,
,,,,,,,,,,,,,,Too slow :(,,,,,,t5.png,t2.png,3,0.0000131,20,female,2020-10-21_17h23.58.333,torte-q,2020.1.3,MacIntel,60,13245,,,,,,,,,,,,,,0,49,49,116,1,,,,,,,,,,,,,,,,,,,,,,,,,,
,,,,,,,,,,,,,,Too slow :(,,,,,,t1.png,t4.png,3,0.0000131,20,female,2020-10-21_17h23.58.333,torte-q,2020.1.3,MacIntel,60,13245,,,,,,,,,,,,,,0,50,50,107,1,,,,,,,,,,,,,,,,,,,,,,,,,,
,,,,,,,,,,,,,,Too slow :(,,,,,,t2.png,t2.png,0,0.98115,20,female,2020-10-21_17h23.58.333,torte-q,2020.1.3,MacIntel,60,13245,,,,,,,,,,,,,,0,51,51,2,1,,,,,,,,,,,,,,,,,,,,,,,,,,
,,,,,,,,,,,,,,Too slow :(,,,,,,t5.png,t4.png,1,0.9,20,female,2020-10-21_17h23.58.333,torte-q,2020.1.3,MacIntel,60,13245,,,,,,,,,,,,,,0,52,52,49,1,,,,,,,,,,,,,,,,,,,,,,,,,,
,,,,,,,,,,,,,,Too slow :(,,,,,,t4.png,t5.png,1,0.90025,20,female,2020-10-21_17h23.58.333,torte-q,2020.1.3,MacIntel,60,13245,,,,,,,,,,,,,,0,53,53,47,1,,,,,,,,,,,,,,,,,,,,,,,,,,
,,,,,,,,,,,,a,1.523345,Incorrect,,,,,,t4.png,t1.png,3,0.0000131,20,female,2020-10-21_17h23.58.333,torte-q,2020.1.3,MacIntel,60,13245,,,,,,,,,,,,,,0,54,54,48,1,,,,,,,,,,,,,,,,,,,,,,,,,,
,,,,,,,,,,,,a,0.550995,Incorrect,,,,,,t5.png,t1.png,4,9.55E-11,20,female,2020-10-21_17h23.58.333,torte-q,2020.1.3,MacIntel,60,13245,,,,,,,,,,,,,,0,55,55,100,1,,,,,,,,,,,,,,,,,,,,,,,,,,
,,,,,,,,,,,,a,0.71788,Incorrect,,,,,,t3.png,t1.png,2,0.056466,20,female,2020-10-21_17h23.58.333,torte-q,2020.1.3,MacIntel,60,13245,,,,,,,,,,,,,,0,56,56,32,1,,,,,,,,,,,,,,,,,,,,,,,,,,
,,,,,,,,,,,,a,0.40278,Incorrect,,,,,,t1.png,t3.png,2,0.056466,20,female,2020-10-21_17h23.58.333,torte-q,2020.1.3,MacIntel,60,13245,,,,,,,,,,,,,,0,57,57,63,1,,,,,,,,,,,,,,,,,,,,,,,,,,
,,,,,,,,,,,,a,0.650485,Correct!,,,,,,t2.png,t3.png,1,0.90855,20,female,2020-10-21_17h23.58.333,torte-q,2020.1.3,MacIntel,60,13245,,,,,,,,,,,,,,0,58,58,111,1,,,,,,,,,,,,,,,,,,,,,,,,,,
,,,,,,,,,,,,a,1.761325,Correct!,,,,,,t2.png,t2.png,0,0.981,20,female,2020-10-21_17h23.58.333,torte-q,2020.1.3,MacIntel,60,13245,,,,,,,,,,,,,,0,59,59,101,1,,,,,,,,,,,,,,,,,,,,,,,,,,
,,,,,,,,,,,,,,Too slow :(,,,,,,t1.png,t4.png,3,0.0000131,20,female,2020-10-21_17h23.58.333,torte-q,2020.1.3,MacIntel,60,13245,,,,,,,,,,,,,,0,60,60,17,1,,,,,,,,,,,,,,,,,,,,,,,,,,
,,,,,,,,,,,,,,Too slow :(,,,,,,t4.png,t2.png,2,0.059078,20,female,2020-10-21_17h23.58.333,torte-q,2020.1.3,MacIntel,60,13245,,,,,,,,,,,,,,0,61,61,109,1,,,,,,,,,,,,,,,,,,,,,,,,,,
,,,,,,,,,,,,a,1.753685,Correct!,,,,,,t4.png,t2.png,2,0.059078,20,female,2020-10-21_17h23.58.333,torte-q,2020.1.3,MacIntel,60,13245,,,,,,,,,,,,,,0,62,62,86,1,,,,,,,,,,,,,,,,,,,,,,,,,,
,,,,,,,,,,,,a,1.30541,Correct!,,,,,,t4.png,t4.png,0,0.98115,20,female,2020-10-21_17h23.58.333,torte-q,2020.1.3,MacIntel,60,13245,,,,,,,,,,,,,,0,63,63,52,1,,,,,,,,,,,,,,,,,,,,,,,,,,
,,,,,,,,,,,,a,0.600205,Incorrect,,,,,,t5.png,t2.png,3,0.0000131,20,female,2020-10-21_17h23.58.333,torte-q,2020.1.3,MacIntel,60,13245,,,,,,,,,,,,,,0,64,64,91,1,,,,,,,,,,,,,,,,,,,,,,,,,,
,,,,,,,,,,,,,,Too slow :(,,,,,,t5.png,t5.png,0,0.97829,20,female,2020-10-21_17h23.58.333,torte-q,2020.1.3,MacIntel,60,13245,,,,,,,,,,,,,,0,65,65,73,1,,,,,,,,,,,,,,,,,,,,,,,,,,
,,,,,,,,,,,,a,0.61629,Incorrect,,,,,,t5.png,t1.png,4,9.55E-11,20,female,2020-10-21_17h23.58.333,torte-q,2020.1.3,MacIntel,60,13245,,,,,,,,,,,,,,0,66,66,102,1,,,,,,,,,,,,,,,,,,,,,,,,,,
,,,,,,,,,,,,a,1.21956,Correct!,,,,,,t2.png,t1.png,1,0.9,20,female,2020-10-21_17h23.58.333,torte-q,2020.1.3,MacIntel,60,13245,,,,,,,,,,,,,,0,67,67,118,1,,,,,,,,,,,,,,,,,,,,,,,,,,
,,,,,,,,,,,,a,0.802015,Correct!,,,,,,t4.png,t3.png,1,0.90855,20,female,2020-10-21_17h23.58.333,torte-q,2020.1.3,MacIntel,60,13245,,,,,,,,,,,,,,0,68,68,75,1,,,,,,,,,,,,,,,,,,,,,,,,,,
,,,,,,,,,,,,a,0.53458,Incorrect,,,,,,t5.png,t3.png,2,0.056466,20,female,2020-10-21_17h23.58.333,torte-q,2020.1.3,MacIntel,60,13245,,,,,,,,,,,,,,0,69,69,38,1,,,,,,,,,,,,,,,,,,,,,,,,,,
,,,,,,,,,,,,a,1.204735,Correct!,,,,,,t2.png,t2.png,0,0.98115,20,female,2020-10-21_17h23.58.333,torte-q,2020.1.3,MacIntel,60,13245,,,,,,,,,,,,,,0,70,70,7,1,,,,,,,,,,,,,,,,,,,,,,,,,,
,,,,,,,,,,,,a,0.518185,Incorrect,,,,,,t3.png,t1.png,2,0.056466,20,female,2020-10-21_17h23.58.333,torte-q,2020.1.3,MacIntel,60,13245,,,,,,,,,,,,,,0,71,71,0,1,,,,,,,,,,,,,,,,,,,,,,,,,,
,,,,,,,,,,,,a,0.586165,Incorrect,,,,,,t2.png,t1.png,1,0.90025,20,female,2020-10-21_17h23.58.333,torte-q,2020.1.3,MacIntel,60,13245,,,,,,,,,,,,,,0,72,72,5,1,,,,,,,,,,,,,,,,,,,,,,,,,,
,,,,,,,,,,,,l,0.834435,Incorrect,,,,,,t5.png,t5.png,0,0.97829,20,female,2020-10-21_17h23.58.333,torte-q,2020.1.3,MacIntel,60,13245,,,,,,,,,,,,,,0,73,73,94,1,,,,,,,,,,,,,,,,,,,,,,,,,,
,,,,,,,,,,,,a,0.53211,Correct!,,,,,,t4.png,t3.png,1,0.909,20,female,2020-10-21_17h23.58.333,torte-q,2020.1.3,MacIntel,60,13245,,,,,,,,,,,,,,0,74,74,46,1,,,,,,,,,,,,,,,,,,,,,,,,,,
,,,,,,,,,,,,l,1.666605,Correct!,,,,,,t1.png,t3.png,2,0.056466,20,female,2020-10-21_17h23.58.333,torte-q,2020.1.3,MacIntel,60,13245,,,,,,,,,,,,,,0,75,75,87,1,,,,,,,,,,,,,,,,,,,,,,,,,,
,,,,,,,,,,,,l,1.13282,Incorrect,,,,,,t3.png,t4.png,1,0.90855,20,female,2020-10-21_17h23.58.333,torte-q,2020.1.3,MacIntel,60,13245,,,,,,,,,,,,,,0,76,76,84,1,,,,,,,,,,,,,,,,,,,,,,,,,,
,,,,,,,,,,,,a,0.5175,Incorrect,,,,,,t4.png,t1.png,3,0.0000131,20,female,2020-10-21_17h23.58.333,torte-q,2020.1.3,MacIntel,60,13245,,,,,,,,,,,,,,0,77,77,42,1,,,,,,,,,,,,,,,,,,,,,,,,,,
,,,,,,,,,,,,a,0.894515,Correct!,,,,,,t3.png,t2.png,1,0.90855,20,female,2020-10-21_17h23.58.333,torte-q,2020.1.3,MacIntel,60,13245,,,,,,,,,,,,,,0,78,78,18,1,,,,,,,,,,,,,,,,,,,,,,,,,,
,,,,,,,,,,,,l,0.623165,Incorrect,,,,,,t1.png,t2.png,1,0.9,20,female,2020-10-21_17h23.58.333,torte-q,2020.1.3,MacIntel,60,13245,,,,,,,,,,,,,,0,79,79,1,1,,,,,,,,,,,,,,,,,,,,,,,,,,
,,,,,,,,,,,,a,1.6036,Incorrect,,,,,,t4.png,t2.png,2,0.0591,20,female,2020-10-21_17h23.58.333,torte-q,2020.1.3,MacIntel,60,13245,,,,,,,,,,,,,,0,80,80,36,1,,,,,,,,,,,,,,,,,,,,,,,,,,
,,,,,,,,,,,,a,2.024745,Correct!,,,,,,t5.png,t4.png,1,0.9,20,female,2020-10-21_17h23.58.333,torte-q,2020.1.3,MacIntel,60,13245,,,,,,,,,,,,,,0,81,81,76,1,,,,,,,,,,,,,,,,,,,,,,,,,,
,,,,,,,,,,,,l,1.200995,Correct!,,,,,,t2.png,t5.png,3,0.0000131,20,female,2020-10-21_17h23.58.333,torte-q,2020.1.3,MacIntel,60,13245,,,,,,,,,,,,,,0,82,82,66,1,,,,,,,,,,,,,,,,,,,,,,,,,,
,,,,,,,,,,,,l,1.22006,Correct!,,,,,,t3.png,t5.png,2,0.056466,20,female,2020-10-21_17h23.58.333,torte-q,2020.1.3,MacIntel,60,13245,,,,,,,,,,,,,,0,83,83,44,1,,,,,,,,,,,,,,,,,,,,,,,,,,
,,,,,,,,,,,,l,1.2189,Incorrect,,,,,,t1.png,t2.png,1,0.90025,20,female,2020-10-21_17h23.58.333,torte-q,2020.1.3,MacIntel,60,13245,,,,,,,,,,,,,,0,84,84,33,1,,,,,,,,,,,,,,,,,,,,,,,,,,
,,,,,,,,,,,,l,1.244425,Correct!,,,,,,t1.png,t4.png,3,0.0000131,20,female,2020-10-21_17h23.58.333,torte-q,2020.1.3,MacIntel,60,13245,,,,,,,,,,,,,,0,85,85,92,1,,,,,,,,,,,,,,,,,,,,,,,,,,
,,,,,,,,,,,,l,0.583125,Correct!,,,,,,t1.png,t4.png,3,0.0000131,20,female,2020-10-21_17h23.58.333,torte-q,2020.1.3,MacIntel,60,13245,,,,,,,,,,,,,,0,86,86,81,1,,,,,,,,,,,,,,,,,,,,,,,,,,
,,,,,,,,,,,,l,0.57742,Correct!,,,,,,t2.png,t4.png,2,0.0591,20,female,2020-10-21_17h23.58.333,torte-q,2020.1.3,MacIntel,60,13245,,,,,,,,,,,,,,0,87,87,15,1,,,,,,,,,,,,,,,,,,,,,,,,,,
,,,,,,,,,,,,a,1.288015,Incorrect,,,,,,t5.png,t2.png,3,0.0000131,20,female,2020-10-21_17h23.58.333,torte-q,2020.1.3,MacIntel,60,13245,,,,,,,,,,,,,,0,88,88,98,1,,,,,,,,,,,,,,,,,,,,,,,,,,
,,,,,,,,,,,,l,0.7348,Incorrect,,,,,,t5.png,t5.png,0,0.978,20,female,2020-10-21_17h23.58.333,torte-q,2020.1.3,MacIntel,60,13245,,,,,,,,,,,,,,0,89,89,117,1,,,,,,,,,,,,,,,,,,,,,,,,,,
,,,,,,,,,,,,a,0.683905,Incorrect,,,,,,t5.png,t3.png,2,0.056466,20,female,2020-10-21_17h23.58.333,torte-q,2020.1.3,MacIntel,60,13245,,,,,,,,,,,,,,0,90,90,114,1,,,,,,,,,,,,,,,,,,,,,,,,,,
,,,,,,,,,,,,a,0.57481,Correct!,,,,,,t4.png,t3.png,1,0.909,20,female,2020-10-21_17h23.58.333,torte-q,2020.1.3,MacIntel,60,13245,,,,,,,,,,,,,,0,91,91,20,1,,,,,,,,,,,,,,,,,,,,,,,,,,
,,,,,,,,,,,,a,1.100375,Correct!,,,,,,t4.png,t4.png,0,0.98115,20,female,2020-10-21_17h23.58.333,torte-q,2020.1.3,MacIntel,60,13245,,,,,,,,,,,,,,0,92,92,90,1,,,,,,,,,,,,,,,,,,,,,,,,,,
,,,,,,,,,,,,a,0.639205,Correct!,,,,,,t2.png,t1.png,1,0.90025,20,female,2020-10-21_17h23.58.333,torte-q,2020.1.3,MacIntel,60,13245,,,,,,,,,,,,,,0,93,93,62,1,,,,,,,,,,,,,,,,,,,,,,,,,,
,,,,,,,,,,,,a,1.08546,Correct!,,,,,,t5.png,t4.png,1,0.90025,20,female,2020-10-21_17h23.58.333,torte-q,2020.1.3,MacIntel,60,13245,,,,,,,,,,,,,,0,94,94,34,1,,,,,,,,,,,,,,,,,,,,,,,,,,
,,,,,,,,,,,,l,1.223305,Correct!,,,,,,t1.png,t5.png,4,9.55E-11,20,female,2020-10-21_17h23.58.333,torte-q,2020.1.3,MacIntel,60,13245,,,,,,,,,,,,,,0,95,95,55,1,,,,,,,,,,,,,,,,,,,,,,,,,,
,,,,,,,,,,,,a,1.519175,Correct!,,,,,,t1.png,t1.png,0,0.97829,20,female,2020-10-21_17h23.58.333,torte-q,2020.1.3,MacIntel,60,13245,,,,,,,,,,,,,,0,96,96,67,1,,,,,,,,,,,,,,,,,,,,,,,,,,
,,,,,,,,,,,,l,1.000935,Correct!,,,,,,t1.png,t5.png,4,9.55E-11,20,female,2020-10-21_17h23.58.333,torte-q,2020.1.3,MacIntel,60,13245,,,,,,,,,,,,,,0,97,97,41,1,,,,,,,,,,,,,,,,,,,,,,,,,,
,,,,,,,,,,,,a,2.075305,Correct!,,,,,,t2.png,t2.png,0,0.98115,20,female,2020-10-21_17h23.58.333,torte-q,2020.1.3,MacIntel,60,13245,,,,,,,,,,,,,,0,98,98,59,1,,,,,,,,,,,,,,,,,,,,,,,,,,
,,,,,,,,,,,,a,1.201195,Incorrect,,,,,,t5.png,t1.png,4,9.55E-11,20,female,2020-10-21_17h23.58.333,torte-q,2020.1.3,MacIntel,60,13245,,,,,,,,,,,,,,0,99,99,22,1,,,,,,,,,,,,,,,,,,,,,,,,,,
,,,,,,,,,,,,,,Too slow :(,,,,,,t1.png,t5.png,4,9.55E-11,20,female,2020-10-21_17h23.58.333,torte-q,2020.1.3,MacIntel,60,13245,,,,,,,,,,,,,,0,100,100,12,1,,,,,,,,,,,,,,,,,,,,,,,,,,
,,,,,,,,,,,,a,2.217245,Correct!,,,,,,t5.png,t5.png,0,0.97829,20,female,2020-10-21_17h23.58.333,torte-q,2020.1.3,MacIntel,60,13245,,,,,,,,,,,,,,0,101,101,25,1,,,,,,,,,,,,,,,,,,,,,,,,,,
,,,,,,,,,,,,a,0.542455,Correct!,,,,,,t5.png,t4.png,1,0.90025,20,female,2020-10-21_17h23.58.333,torte-q,2020.1.3,MacIntel,60,13245,,,,,,,,,,,,,,0,102,102,27,1,,,,,,,,,,,,,,,,,,,,,,,,,,
,,,,,,,,,,,,l,0.56919,Correct!,,,,,,t3.png,t5.png,2,0.056466,20,female,2020-10-21_17h23.58.333,torte-q,2020.1.3,MacIntel,60,13245,,,,,,,,,,,,,,0,103,103,14,1,,,,,,,,,,,,,,,,,,,,,,,,,,
,,,,,,,,,,,,l,0.484415,Correct!,,,,,,t2.png,t5.png,3,0.0000131,20,female,2020-10-21_17h23.58.333,torte-q,2020.1.3,MacIntel,60,13245,,,,,,,,,,,,,,0,104,104,8,1,,,,,,,,,,,,,,,,,,,,,,,,,,
,,,,,,,,,,,,a,0.500105,Incorrect,,,,,,t4.png,t1.png,3,0.0000131,20,female,2020-10-21_17h23.58.333,torte-q,2020.1.3,MacIntel,60,13245,,,,,,,,,,,,,,0,105,105,61,1,,,,,,,,,,,,,,,,,,,,,,,,,,
,,,,,,,,,,,,l,0.48363,Correct!,,,,,,t1.png,t4.png,3,0.0000131,20,female,2020-10-21_17h23.58.333,torte-q,2020.1.3,MacIntel,60,13245,,,,,,,,,,,,,,0,106,106,50,1,,,,,,,,,,,,,,,,,,,,,,,,,,
,,,,,,,,,,,,l,1.64001,Incorrect,,,,,,t2.png,t3.png,1,0.90855,20,female,2020-10-21_17h23.58.333,torte-q,2020.1.3,MacIntel,60,13245,,,,,,,,,,,,,,0,107,107,68,1,,,,,,,,,,,,,,,,,,,,,,,,,,
,,,,,,,,,,,,a,0.71932,Correct!,,,,,,t4.png,t4.png,0,0.98115,20,female,2020-10-21_17h23.58.333,torte-q,2020.1.3,MacIntel,60,13245,,,,,,,,,,,,,,0,108,108,21,1,,,,,,,,,,,,,,,,,,,,,,,,,,
,,,,,,,,,,,,a,0.70158,Incorrect,,,,,,t5.png,t1.png,4,9.55E-11,20,female,2020-10-21_17h23.58.333,torte-q,2020.1.3,MacIntel,60,13245,,,,,,,,,,,,,,0,109,109,71,1,,,,,,,,,,,,,,,,,,,,,,,,,,
,,,,,,,,,,,,l,1.21745,Correct!,,,,,,t2.png,t5.png,3,0.0000131,20,female,2020-10-21_17h23.58.333,torte-q,2020.1.3,MacIntel,60,13245,,,,,,,,,,,,,,0,110,110,95,1,,,,,,,,,,,,,,,,,,,,,,,,,,
,,,,,,,,,,,,l,0.600875,Correct!,,,,,,t2.png,t4.png,2,0.059078,20,female,2020-10-21_17h23.58.333,torte-q,2020.1.3,MacIntel,60,13245,,,,,,,,,,,,,,0,111,111,77,1,,,,,,,,,,,,,,,,,,,,,,,,,,
,,,,,,,,,,,,l,0.549735,Correct!,,,,,,t1.png,t3.png,2,0.056466,20,female,2020-10-21_17h23.58.333,torte-q,2020.1.3,MacIntel,60,13245,,,,,,,,,,,,,,0,112,112,69,1,,,,,,,,,,,,,,,,,,,,,,,,,,
,,,,,,,,,,,,l,1.20385,Incorrect,,,,,,t2.png,t3.png,1,0.90855,20,female,2020-10-21_17h23.58.333,torte-q,2020.1.3,MacIntel,60,13245,,,,,,,,,,,,,,0,113,113,65,1,,,,,,,,,,,,,,,,,,,,,,,,,,
,,,,,,,,,,,,l,0.734735,Incorrect,,,,,,t4.png,t5.png,1,0.90025,20,female,2020-10-21_17h23.58.333,torte-q,2020.1.3,MacIntel,60,13245,,,,,,,,,,,,,,0,114,114,58,1,,,,,,,,,,,,,,,,,,,,,,,,,,
,,,,,,,,,,,,l,1.236835,Incorrect,,,,,,t3.png,t4.png,1,0.909,20,female,2020-10-21_17h23.58.333,torte-q,2020.1.3,MacIntel,60,13245,,,,,,,,,,,,,,0,115,115,89,1,,,,,,,,,,,,,,,,,,,,,,,,,,
,,,,,,,,,,,,l,1.23601,Correct!,,,,,,t2.png,t4.png,2,0.059078,20,female,2020-10-21_17h23.58.333,torte-q,2020.1.3,MacIntel,60,13245,,,,,,,,,,,,,,0,116,116,37,1,,,,,,,,,,,,,,,,,,,,,,,,,,
,,,,,,,,,,,,a,1.10736,Incorrect,,,,,,t5.png,t2.png,3,0.0000131,20,female,2020-10-21_17h23.58.333,torte-q,2020.1.3,MacIntel,60,13245,,,,,,,,,,,,,,0,117,117,119,1,,,,,,,,,,,,,,,,,,,,,,,,,,
,,,,,,,,,,,,a,1.369845,Correct!,,,,,,t4.png,t4.png,0,0.98115,20,female,2020-10-21_17h23.58.333,torte-q,2020.1.3,MacIntel,60,13245,,,,,,,,,,,,,,0,118,118,80,1,,,,,,,,,,,,,,,,,,,,,,,,,,
,,,,,,,,,,,,,,Too slow :(,,,,,,t1.png,t2.png,1,0.90025,20,female,2020-10-21_17h23.58.333,torte-q,2020.1.3,MacIntel,60,13245,,,,,,,,,,,,,,0,119,119,112,1,,,,,,,,,,,,,,,,,,,,,,,,,,
,,,,,,,,,,,,,,,,,,,,,,,,20,female,2020-10-21_17h23.58.333,torte-q,2020.1.3,MacIntel,60,13245,space,2.086075,,,,,,,,,,,,,,,,,6.971347656,5.506305,-9.3359375,-59.4140625,1,0,0,s5,-10.95703125,-85.9296875,1,0,0,t4,275.2734375,-96.875,1,0,0,proceed,space,12.36614,space,87.25373,space,0.12085
