key_resp_8.keys,key_resp_8.rt,key_resp_9.keys,key_resp_9.rt,key_resp_10.keys,key_resp_10.rt,key_resp_11.keys,key_resp_11.rt,key_resp_2.keys,key_resp_2.rt,key_resp_3.keys,key_resp_3.rt,key_resp.keys,key_resp.rt,Feedback,train.thisRepN,train.thisTrialN,train.thisN,train.thisIndex,train.ran,torta_sx,torta_dx,difference,probability,age,gender,date,expName,psychopyVersion,OS,frameRate,participant,key_resp_15.keys,key_resp_15.rt,key_resp_6.keys,key_resp_6.rt,test1.thisRepN,test1.thisTrialN,test1.thisN,test1.thisIndex,test1.ran,key_resp_16.keys,key_resp_16.rt,key_resp_7.keys,key_resp_7.rt,test2.thisRepN,test2.thisTrialN,test2.thisN,test2.thisIndex,test2.ran,rating.response,rating.rt,mouse.x,mouse.y,mouse.leftButton,mouse.midButton,mouse.rightButton,mouse.clicked_name,mouse_2.x,mouse_2.y,mouse_2.leftButton,mouse_2.midButton,mouse_2.rightButton,mouse_2.clicked_name,mouse_3.x,mouse_3.y,mouse_3.leftButton,mouse_3.midButton,mouse_3.rightButton,mouse_3.clicked_name,key_resp_12.keys,key_resp_12.rt,key_resp_13.keys,key_resp_13.rt,key_resp_14.keys,key_resp_14.rt
space,34.91646,space,30.421295,space,4.76613,space,8.7082,space,38.811315,space,99.36808,l,2.275265,Correct!,0,0,0,99,1,t1.png,t5.png,4,9.55E-11,19,female,2020-11-15_18h40.58.569,torte-q,2020.1.3,MacIntel,60,13252,,,,,,,,,,,,,,,,,,,,,,,,,,,,,,,,,,,,,,,,,,,,
,,,,,,,,,,,,,,Too slow :(,0,1,1,71,1,t5.png,t5.png,0,0.97829,19,female,2020-11-15_18h40.58.569,torte-q,2020.1.3,MacIntel,60,13252,,,,,,,,,,,,,,,,,,,,,,,,,,,,,,,,,,,,,,,,,,,,
,,,,,,,,,,,,l,0.9871,Incorrect,0,2,2,114,1,t2.png,t3.png,1,0.90855,19,female,2020-11-15_18h40.58.569,torte-q,2020.1.3,MacIntel,60,13252,,,,,,,,,,,,,,,,,,,,,,,,,,,,,,,,,,,,,,,,,,,,
,,,,,,,,,,,,a,1.868155,Incorrect,0,3,3,111,1,t5.png,t1.png,4,9.55E-11,19,female,2020-11-15_18h40.58.569,torte-q,2020.1.3,MacIntel,60,13252,,,,,,,,,,,,,,,,,,,,,,,,,,,,,,,,,,,,,,,,,,,,
,,,,,,,,,,,,a,1.778195,Correct!,0,4,4,15,1,t3.png,t2.png,1,0.90855,19,female,2020-11-15_18h40.58.569,torte-q,2020.1.3,MacIntel,60,13252,,,,,,,,,,,,,,,,,,,,,,,,,,,,,,,,,,,,,,,,,,,,
,,,,,,,,,,,,l,0.99786,Correct!,0,5,5,89,1,t1.png,t4.png,3,0.0000131,19,female,2020-11-15_18h40.58.569,torte-q,2020.1.3,MacIntel,60,13252,,,,,,,,,,,,,,,,,,,,,,,,,,,,,,,,,,,,,,,,,,,,
,,,,,,,,,,,,a,1.266205,Correct!,0,6,6,64,1,t1.png,t1.png,0,0.978,19,female,2020-11-15_18h40.58.569,torte-q,2020.1.3,MacIntel,60,13252,,,,,,,,,,,,,,,,,,,,,,,,,,,,,,,,,,,,,,,,,,,,
,,,,,,,,,,,,a,1.90333,Correct!,0,7,7,34,1,t5.png,t4.png,1,0.9,19,female,2020-11-15_18h40.58.569,torte-q,2020.1.3,MacIntel,60,13252,,,,,,,,,,,,,,,,,,,,,,,,,,,,,,,,,,,,,,,,,,,,
,,,,,,,,,,,,l,0.70504,Correct!,0,8,8,90,1,t1.png,t5.png,4,9.55E-11,19,female,2020-11-15_18h40.58.569,torte-q,2020.1.3,MacIntel,60,13252,,,,,,,,,,,,,,,,,,,,,,,,,,,,,,,,,,,,,,,,,,,,
,,,,,,,,,,,,a,0.56799,Incorrect,0,9,9,0,1,t5.png,t1.png,4,9.55E-11,19,female,2020-11-15_18h40.58.569,torte-q,2020.1.3,MacIntel,60,13252,,,,,,,,,,,,,,,,,,,,,,,,,,,,,,,,,,,,,,,,,,,,
,,,,,,,,,,,,l,0.98477,Correct!,0,10,10,9,1,t4.png,t5.png,1,0.9,19,female,2020-11-15_18h40.58.569,torte-q,2020.1.3,MacIntel,60,13252,,,,,,,,,,,,,,,,,,,,,,,,,,,,,,,,,,,,,,,,,,,,
,,,,,,,,,,,,l,0.93079,Incorrect,0,11,11,63,1,t2.png,t3.png,1,0.909,19,female,2020-11-15_18h40.58.569,torte-q,2020.1.3,MacIntel,60,13252,,,,,,,,,,,,,,,,,,,,,,,,,,,,,,,,,,,,,,,,,,,,
,,,,,,,,,,,,l,0.79959,Incorrect,0,12,12,101,1,t4.png,t5.png,1,0.90025,19,female,2020-11-15_18h40.58.569,torte-q,2020.1.3,MacIntel,60,13252,,,,,,,,,,,,,,,,,,,,,,,,,,,,,,,,,,,,,,,,,,,,
,,,,,,,,,,,,a,1.285465,Correct!,0,13,13,48,1,t5.png,t5.png,0,0.97829,19,female,2020-11-15_18h40.58.569,torte-q,2020.1.3,MacIntel,60,13252,,,,,,,,,,,,,,,,,,,,,,,,,,,,,,,,,,,,,,,,,,,,
,,,,,,,,,,,,a,0.88768,Correct!,0,14,14,39,1,t3.png,t2.png,1,0.90855,19,female,2020-11-15_18h40.58.569,torte-q,2020.1.3,MacIntel,60,13252,,,,,,,,,,,,,,,,,,,,,,,,,,,,,,,,,,,,,,,,,,,,
,,,,,,,,,,,,l,0.591545,Correct!,0,15,15,40,1,t1.png,t5.png,4,9.55E-11,19,female,2020-11-15_18h40.58.569,torte-q,2020.1.3,MacIntel,60,13252,,,,,,,,,,,,,,,,,,,,,,,,,,,,,,,,,,,,,,,,,,,,
,,,,,,,,,,,,l,0.757055,Correct!,0,16,16,49,1,t4.png,t5.png,1,0.9,19,female,2020-11-15_18h40.58.569,torte-q,2020.1.3,MacIntel,60,13252,,,,,,,,,,,,,,,,,,,,,,,,,,,,,,,,,,,,,,,,,,,,
,,,,,,,,,,,,a,0.749845,Correct!,0,17,17,2,1,t3.png,t2.png,1,0.90855,19,female,2020-11-15_18h40.58.569,torte-q,2020.1.3,MacIntel,60,13252,,,,,,,,,,,,,,,,,,,,,,,,,,,,,,,,,,,,,,,,,,,,
,,,,,,,,,,,,a,0.56607,Incorrect,0,18,18,82,1,t5.png,t1.png,4,9.55E-11,19,female,2020-11-15_18h40.58.569,torte-q,2020.1.3,MacIntel,60,13252,,,,,,,,,,,,,,,,,,,,,,,,,,,,,,,,,,,,,,,,,,,,
,,,,,,,,,,,,a,1.117005,Correct!,0,19,19,95,1,t1.png,t1.png,0,0.978,19,female,2020-11-15_18h40.58.569,torte-q,2020.1.3,MacIntel,60,13252,,,,,,,,,,,,,,,,,,,,,,,,,,,,,,,,,,,,,,,,,,,,
,,,,,,,,,,,,a,1.542015,Incorrect,0,20,20,47,1,t4.png,t2.png,2,0.059078,19,female,2020-11-15_18h40.58.569,torte-q,2020.1.3,MacIntel,60,13252,,,,,,,,,,,,,,,,,,,,,,,,,,,,,,,,,,,,,,,,,,,,
,,,,,,,,,,,,l,0.951145,Correct!,0,21,21,68,1,t1.png,t4.png,3,0.0000131,19,female,2020-11-15_18h40.58.569,torte-q,2020.1.3,MacIntel,60,13252,,,,,,,,,,,,,,,,,,,,,,,,,,,,,,,,,,,,,,,,,,,,
,,,,,,,,,,,,a,0.95063,Correct!,0,22,22,29,1,t5.png,t5.png,0,0.97829,19,female,2020-11-15_18h40.58.569,torte-q,2020.1.3,MacIntel,60,13252,,,,,,,,,,,,,,,,,,,,,,,,,,,,,,,,,,,,,,,,,,,,
,,,,,,,,,,,,a,1.08509,Correct!,0,23,23,112,1,t1.png,t1.png,0,0.97829,19,female,2020-11-15_18h40.58.569,torte-q,2020.1.3,MacIntel,60,13252,,,,,,,,,,,,,,,,,,,,,,,,,,,,,,,,,,,,,,,,,,,,
,,,,,,,,,,,,l,1.066655,Incorrect,0,24,24,32,1,t4.png,t5.png,1,0.90025,19,female,2020-11-15_18h40.58.569,torte-q,2020.1.3,MacIntel,60,13252,,,,,,,,,,,,,,,,,,,,,,,,,,,,,,,,,,,,,,,,,,,,
,,,,,,,,,,,,a,0.90065,Incorrect,0,25,25,83,1,t3.png,t1.png,2,0.056466,19,female,2020-11-15_18h40.58.569,torte-q,2020.1.3,MacIntel,60,13252,,,,,,,,,,,,,,,,,,,,,,,,,,,,,,,,,,,,,,,,,,,,
,,,,,,,,,,,,a,1.13082,Correct!,0,26,26,113,1,t5.png,t4.png,1,0.9,19,female,2020-11-15_18h40.58.569,torte-q,2020.1.3,MacIntel,60,13252,,,,,,,,,,,,,,,,,,,,,,,,,,,,,,,,,,,,,,,,,,,,
,,,,,,,,,,,,l,0.91447,Correct!,0,27,27,54,1,t1.png,t5.png,4,9.55E-11,19,female,2020-11-15_18h40.58.569,torte-q,2020.1.3,MacIntel,60,13252,,,,,,,,,,,,,,,,,,,,,,,,,,,,,,,,,,,,,,,,,,,,
,,,,,,,,,,,,a,0.781045,Correct!,0,28,28,77,1,t1.png,t1.png,0,0.97829,19,female,2020-11-15_18h40.58.569,torte-q,2020.1.3,MacIntel,60,13252,,,,,,,,,,,,,,,,,,,,,,,,,,,,,,,,,,,,,,,,,,,,
,,,,,,,,,,,,a,1.017205,Correct!,0,29,29,116,1,t5.png,t4.png,1,0.90025,19,female,2020-11-15_18h40.58.569,torte-q,2020.1.3,MacIntel,60,13252,,,,,,,,,,,,,,,,,,,,,,,,,,,,,,,,,,,,,,,,,,,,
,,,,,,,,,,,,a,0.88597,Incorrect,0,30,30,72,1,t4.png,t2.png,2,0.059078,19,female,2020-11-15_18h40.58.569,torte-q,2020.1.3,MacIntel,60,13252,,,,,,,,,,,,,,,,,,,,,,,,,,,,,,,,,,,,,,,,,,,,
,,,,,,,,,,,,a,0.62415,Incorrect,0,31,31,43,1,t4.png,t2.png,2,0.059078,19,female,2020-11-15_18h40.58.569,torte-q,2020.1.3,MacIntel,60,13252,,,,,,,,,,,,,,,,,,,,,,,,,,,,,,,,,,,,,,,,,,,,
,,,,,,,,,,,,a,0.985045,Correct!,0,32,32,62,1,t5.png,t5.png,0,0.978,19,female,2020-11-15_18h40.58.569,torte-q,2020.1.3,MacIntel,60,13252,,,,,,,,,,,,,,,,,,,,,,,,,,,,,,,,,,,,,,,,,,,,
,,,,,,,,,,,,a,0.614455,Incorrect,0,33,33,94,1,t5.png,t1.png,4,9.55E-11,19,female,2020-11-15_18h40.58.569,torte-q,2020.1.3,MacIntel,60,13252,,,,,,,,,,,,,,,,,,,,,,,,,,,,,,,,,,,,,,,,,,,,
,,,,,,,,,,,,l,2.085935,Correct!,0,34,34,31,1,t1.png,t5.png,4,9.55E-11,19,female,2020-11-15_18h40.58.569,torte-q,2020.1.3,MacIntel,60,13252,,,,,,,,,,,,,,,,,,,,,,,,,,,,,,,,,,,,,,,,,,,,
,,,,,,,,,,,,a,0.732245,Correct!,0,35,35,76,1,t3.png,t2.png,1,0.90855,19,female,2020-11-15_18h40.58.569,torte-q,2020.1.3,MacIntel,60,13252,,,,,,,,,,,,,,,,,,,,,,,,,,,,,,,,,,,,,,,,,,,,
,,,,,,,,,,,,a,0.688375,Incorrect,0,36,36,38,1,t3.png,t1.png,2,0.056466,19,female,2020-11-15_18h40.58.569,torte-q,2020.1.3,MacIntel,60,13252,,,,,,,,,,,,,,,,,,,,,,,,,,,,,,,,,,,,,,,,,,,,
,,,,,,,,,,,,a,1.351415,Correct!,0,37,37,42,1,t5.png,t4.png,1,0.90025,19,female,2020-11-15_18h40.58.569,torte-q,2020.1.3,MacIntel,60,13252,,,,,,,,,,,,,,,,,,,,,,,,,,,,,,,,,,,,,,,,,,,,
,,,,,,,,,,,,a,0.907775,Correct!,0,38,38,13,1,t5.png,t5.png,0,0.97829,19,female,2020-11-15_18h40.58.569,torte-q,2020.1.3,MacIntel,60,13252,,,,,,,,,,,,,,,,,,,,,,,,,,,,,,,,,,,,,,,,,,,,
,,,,,,,,,,,,l,1.08966,Correct!,0,39,39,117,1,t1.png,t5.png,4,9.55E-11,19,female,2020-11-15_18h40.58.569,torte-q,2020.1.3,MacIntel,60,13252,,,,,,,,,,,,,,,,,,,,,,,,,,,,,,,,,,,,,,,,,,,,
,,,,,,,,,,,,l,0.941425,Correct!,0,40,40,17,1,t1.png,t4.png,3,0.0000131,19,female,2020-11-15_18h40.58.569,torte-q,2020.1.3,MacIntel,60,13252,,,,,,,,,,,,,,,,,,,,,,,,,,,,,,,,,,,,,,,,,,,,
,,,,,,,,,,,,l,0.883,Incorrect,0,41,41,92,1,t2.png,t3.png,1,0.909,19,female,2020-11-15_18h40.58.569,torte-q,2020.1.3,MacIntel,60,13252,,,,,,,,,,,,,,,,,,,,,,,,,,,,,,,,,,,,,,,,,,,,
,,,,,,,,,,,,a,0.640325,Incorrect,0,42,42,87,1,t5.png,t1.png,4,9.55E-11,19,female,2020-11-15_18h40.58.569,torte-q,2020.1.3,MacIntel,60,13252,,,,,,,,,,,,,,,,,,,,,,,,,,,,,,,,,,,,,,,,,,,,
,,,,,,,,,,,,l,0.736485,Incorrect,0,43,43,10,1,t2.png,t3.png,1,0.90855,19,female,2020-11-15_18h40.58.569,torte-q,2020.1.3,MacIntel,60,13252,,,,,,,,,,,,,,,,,,,,,,,,,,,,,,,,,,,,,,,,,,,,
,,,,,,,,,,,,a,0.689305,Correct!,0,44,44,53,1,t3.png,t1.png,2,0.056466,19,female,2020-11-15_18h40.58.569,torte-q,2020.1.3,MacIntel,60,13252,,,,,,,,,,,,,,,,,,,,,,,,,,,,,,,,,,,,,,,,,,,,
,,,,,,,,,,,,l,0.952315,Incorrect,0,45,45,104,1,t2.png,t3.png,1,0.90855,19,female,2020-11-15_18h40.58.569,torte-q,2020.1.3,MacIntel,60,13252,,,,,,,,,,,,,,,,,,,,,,,,,,,,,,,,,,,,,,,,,,,,
,,,,,,,,,,,,l,0.640575,Correct!,0,46,46,93,1,t2.png,t4.png,2,0.059078,19,female,2020-11-15_18h40.58.569,torte-q,2020.1.3,MacIntel,60,13252,,,,,,,,,,,,,,,,,,,,,,,,,,,,,,,,,,,,,,,,,,,,
,,,,,,,,,,,,a,0.959915,Correct!,0,47,47,75,1,t1.png,t1.png,0,0.97829,19,female,2020-11-15_18h40.58.569,torte-q,2020.1.3,MacIntel,60,13252,,,,,,,,,,,,,,,,,,,,,,,,,,,,,,,,,,,,,,,,,,,,
,,,,,,,,,,,,a,0.803495,Correct!,0,48,48,78,1,t1.png,t1.png,0,0.978,19,female,2020-11-15_18h40.58.569,torte-q,2020.1.3,MacIntel,60,13252,,,,,,,,,,,,,,,,,,,,,,,,,,,,,,,,,,,,,,,,,,,,
,,,,,,,,,,,,a,0.55003,Correct!,0,49,49,107,1,t1.png,t1.png,0,0.978,19,female,2020-11-15_18h40.58.569,torte-q,2020.1.3,MacIntel,60,13252,,,,,,,,,,,,,,,,,,,,,,,,,,,,,,,,,,,,,,,,,,,,
,,,,,,,,,,,,l,0.86604,Correct!,0,50,50,6,1,t1.png,t4.png,3,0.0000131,19,female,2020-11-15_18h40.58.569,torte-q,2020.1.3,MacIntel,60,13252,,,,,,,,,,,,,,,,,,,,,,,,,,,,,,,,,,,,,,,,,,,,
,,,,,,,,,,,,a,0.56703,Incorrect,0,51,51,85,1,t3.png,t2.png,1,0.90855,19,female,2020-11-15_18h40.58.569,torte-q,2020.1.3,MacIntel,60,13252,,,,,,,,,,,,,,,,,,,,,,,,,,,,,,,,,,,,,,,,,,,,
,,,,,,,,,,,,a,0.584855,Incorrect,0,52,52,24,1,t4.png,t2.png,2,0.059078,19,female,2020-11-15_18h40.58.569,torte-q,2020.1.3,MacIntel,60,13252,,,,,,,,,,,,,,,,,,,,,,,,,,,,,,,,,,,,,,,,,,,,
,,,,,,,,,,,,a,0.484735,Incorrect,0,53,53,27,1,t3.png,t1.png,2,0.0565,19,female,2020-11-15_18h40.58.569,torte-q,2020.1.3,MacIntel,60,13252,,,,,,,,,,,,,,,,,,,,,,,,,,,,,,,,,,,,,,,,,,,,
,,,,,,,,,,,,a,0.91684,Correct!,0,54,54,96,1,t1.png,t1.png,0,0.97829,19,female,2020-11-15_18h40.58.569,torte-q,2020.1.3,MacIntel,60,13252,,,,,,,,,,,,,,,,,,,,,,,,,,,,,,,,,,,,,,,,,,,,
,,,,,,,,,,,,a,0.484695,Incorrect,0,55,55,102,1,t4.png,t2.png,2,0.059078,19,female,2020-11-15_18h40.58.569,torte-q,2020.1.3,MacIntel,60,13252,,,,,,,,,,,,,,,,,,,,,,,,,,,,,,,,,,,,,,,,,,,,
,,,,,,,,,,,,l,0.753545,Correct!,0,56,56,35,1,t1.png,t4.png,3,0.0000131,19,female,2020-11-15_18h40.58.569,torte-q,2020.1.3,MacIntel,60,13252,,,,,,,,,,,,,,,,,,,,,,,,,,,,,,,,,,,,,,,,,,,,
,,,,,,,,,,,,l,0.55057,Correct!,0,57,57,55,1,t2.png,t4.png,2,0.059078,19,female,2020-11-15_18h40.58.569,torte-q,2020.1.3,MacIntel,60,13252,,,,,,,,,,,,,,,,,,,,,,,,,,,,,,,,,,,,,,,,,,,,
,,,,,,,,,,,,a,0.51727,Incorrect,0,58,58,51,1,t3.png,t1.png,2,0.056466,19,female,2020-11-15_18h40.58.569,torte-q,2020.1.3,MacIntel,60,13252,,,,,,,,,,,,,,,,,,,,,,,,,,,,,,,,,,,,,,,,,,,,
,,,,,,,,,,,,l,0.567255,Correct!,0,59,59,57,1,t2.png,t4.png,2,0.059078,19,female,2020-11-15_18h40.58.569,torte-q,2020.1.3,MacIntel,60,13252,,,,,,,,,,,,,,,,,,,,,,,,,,,,,,,,,,,,,,,,,,,,
,,,,,,,,,,,,l,0.615655,Correct!,0,60,60,60,1,t2.png,t4.png,2,0.059078,19,female,2020-11-15_18h40.58.569,torte-q,2020.1.3,MacIntel,60,13252,,,,,,,,,,,,,,,,,,,,,,,,,,,,,,,,,,,,,,,,,,,,
,,,,,,,,,,,,l,0.714975,Correct!,0,61,61,37,1,t1.png,t4.png,3,0.0000131,19,female,2020-11-15_18h40.58.569,torte-q,2020.1.3,MacIntel,60,13252,,,,,,,,,,,,,,,,,,,,,,,,,,,,,,,,,,,,,,,,,,,,
,,,,,,,,,,,,a,0.996285,Correct!,0,62,62,16,1,t5.png,t4.png,1,0.9,19,female,2020-11-15_18h40.58.569,torte-q,2020.1.3,MacIntel,60,13252,,,,,,,,,,,,,,,,,,,,,,,,,,,,,,,,,,,,,,,,,,,,
,,,,,,,,,,,,a,0.968305,Correct!,0,63,63,109,1,t5.png,t5.png,0,0.97829,19,female,2020-11-15_18h40.58.569,torte-q,2020.1.3,MacIntel,60,13252,,,,,,,,,,,,,,,,,,,,,,,,,,,,,,,,,,,,,,,,,,,,
,,,,,,,,,,,,a,0.59975,Incorrect,0,64,64,46,1,t4.png,t2.png,2,0.059078,19,female,2020-11-15_18h40.58.569,torte-q,2020.1.3,MacIntel,60,13252,,,,,,,,,,,,,,,,,,,,,,,,,,,,,,,,,,,,,,,,,,,,
,,,,,,,,,,,,l,1.102495,Incorrect,0,65,65,20,1,t2.png,t3.png,1,0.90855,19,female,2020-11-15_18h40.58.569,torte-q,2020.1.3,MacIntel,60,13252,,,,,,,,,,,,,,,,,,,,,,,,,,,,,,,,,,,,,,,,,,,,
,,,,,,,,,,,,a,0.745975,Correct!,0,66,66,79,1,t3.png,t2.png,1,0.909,19,female,2020-11-15_18h40.58.569,torte-q,2020.1.3,MacIntel,60,13252,,,,,,,,,,,,,,,,,,,,,,,,,,,,,,,,,,,,,,,,,,,,
,,,,,,,,,,,,l,0.634015,Correct!,0,67,67,98,1,t2.png,t4.png,2,0.0591,19,female,2020-11-15_18h40.58.569,torte-q,2020.1.3,MacIntel,60,13252,,,,,,,,,,,,,,,,,,,,,,,,,,,,,,,,,,,,,,,,,,,,
,,,,,,,,,,,,a,1.053595,Correct!,0,68,68,21,1,t5.png,t4.png,1,0.90025,19,female,2020-11-15_18h40.58.569,torte-q,2020.1.3,MacIntel,60,13252,,,,,,,,,,,,,,,,,,,,,,,,,,,,,,,,,,,,,,,,,,,,
,,,,,,,,,,,,a,1.066945,Correct!,0,69,69,84,1,t1.png,t1.png,0,0.97829,19,female,2020-11-15_18h40.58.569,torte-q,2020.1.3,MacIntel,60,13252,,,,,,,,,,,,,,,,,,,,,,,,,,,,,,,,,,,,,,,,,,,,
,,,,,,,,,,,,a,1.101025,Correct!,0,70,70,74,1,t5.png,t4.png,1,0.9,19,female,2020-11-15_18h40.58.569,torte-q,2020.1.3,MacIntel,60,13252,,,,,,,,,,,,,,,,,,,,,,,,,,,,,,,,,,,,,,,,,,,,
,,,,,,,,,,,,a,1.207025,Correct!,0,71,71,118,1,t5.png,t5.png,0,0.978,19,female,2020-11-15_18h40.58.569,torte-q,2020.1.3,MacIntel,60,13252,,,,,,,,,,,,,,,,,,,,,,,,,,,,,,,,,,,,,,,,,,,,
,,,,,,,,,,,,a,1.23358,Incorrect,0,72,72,41,1,t3.png,t2.png,1,0.90855,19,female,2020-11-15_18h40.58.569,torte-q,2020.1.3,MacIntel,60,13252,,,,,,,,,,,,,,,,,,,,,,,,,,,,,,,,,,,,,,,,,,,,
,,,,,,,,,,,,a,1.984265,Correct!,0,73,73,105,1,t3.png,t2.png,1,0.90855,19,female,2020-11-15_18h40.58.569,torte-q,2020.1.3,MacIntel,60,13252,,,,,,,,,,,,,,,,,,,,,,,,,,,,,,,,,,,,,,,,,,,,
,,,,,,,,,,,,a,0.80097,Correct!,0,74,74,45,1,t3.png,t2.png,1,0.90855,19,female,2020-11-15_18h40.58.569,torte-q,2020.1.3,MacIntel,60,13252,,,,,,,,,,,,,,,,,,,,,,,,,,,,,,,,,,,,,,,,,,,,
,,,,,,,,,,,,a,0.95087,Incorrect,0,75,75,36,1,t3.png,t1.png,2,0.0565,19,female,2020-11-15_18h40.58.569,torte-q,2020.1.3,MacIntel,60,13252,,,,,,,,,,,,,,,,,,,,,,,,,,,,,,,,,,,,,,,,,,,,
,,,,,,,,,,,,a,1.184445,Incorrect,0,76,76,58,1,t5.png,t4.png,1,0.90025,19,female,2020-11-15_18h40.58.569,torte-q,2020.1.3,MacIntel,60,13252,,,,,,,,,,,,,,,,,,,,,,,,,,,,,,,,,,,,,,,,,,,,
,,,,,,,,,,,,l,1.23631,Correct!,0,77,77,1,1,t2.png,t4.png,2,0.059078,19,female,2020-11-15_18h40.58.569,torte-q,2020.1.3,MacIntel,60,13252,,,,,,,,,,,,,,,,,,,,,,,,,,,,,,,,,,,,,,,,,,,,
,,,,,,,,,,,,a,2.0677,Correct!,0,78,78,8,1,t3.png,t2.png,1,0.90855,19,female,2020-11-15_18h40.58.569,torte-q,2020.1.3,MacIntel,60,13252,,,,,,,,,,,,,,,,,,,,,,,,,,,,,,,,,,,,,,,,,,,,
,,,,,,,,,,,,a,0.58384,Incorrect,0,79,79,103,1,t3.png,t1.png,2,0.056466,19,female,2020-11-15_18h40.58.569,torte-q,2020.1.3,MacIntel,60,13252,,,,,,,,,,,,,,,,,,,,,,,,,,,,,,,,,,,,,,,,,,,,
,,,,,,,,,,,,a,0.534145,Incorrect,0,80,80,88,1,t3.png,t1.png,2,0.056466,19,female,2020-11-15_18h40.58.569,torte-q,2020.1.3,MacIntel,60,13252,,,,,,,,,,,,,,,,,,,,,,,,,,,,,,,,,,,,,,,,,,,,
,,,,,,,,,,,,a,0.535605,Incorrect,0,81,81,12,1,t5.png,t1.png,4,9.55E-11,19,female,2020-11-15_18h40.58.569,torte-q,2020.1.3,MacIntel,60,13252,,,,,,,,,,,,,,,,,,,,,,,,,,,,,,,,,,,,,,,,,,,,
,,,,,,,,,,,,l,1.04707,Incorrect,0,82,82,65,1,t4.png,t5.png,1,0.90025,19,female,2020-11-15_18h40.58.569,torte-q,2020.1.3,MacIntel,60,13252,,,,,,,,,,,,,,,,,,,,,,,,,,,,,,,,,,,,,,,,,,,,
,,,,,,,,,,,,l,0.604525,Incorrect,0,83,83,22,1,t2.png,t3.png,1,0.90855,19,female,2020-11-15_18h40.58.569,torte-q,2020.1.3,MacIntel,60,13252,,,,,,,,,,,,,,,,,,,,,,,,,,,,,,,,,,,,,,,,,,,,
,,,,,,,,,,,,l,1.16849,Incorrect,0,84,84,18,1,t4.png,t5.png,1,0.90025,19,female,2020-11-15_18h40.58.569,torte-q,2020.1.3,MacIntel,60,13252,,,,,,,,,,,,,,,,,,,,,,,,,,,,,,,,,,,,,,,,,,,,
,,,,,,,,,,,,l,0.723465,Correct!,0,85,85,100,1,t4.png,t5.png,1,0.90025,19,female,2020-11-15_18h40.58.569,torte-q,2020.1.3,MacIntel,60,13252,,,,,,,,,,,,,,,,,,,,,,,,,,,,,,,,,,,,,,,,,,,,
,,,,,,,,,,,,a,0.69904,Incorrect,0,86,86,30,1,t3.png,t1.png,2,0.056466,19,female,2020-11-15_18h40.58.569,torte-q,2020.1.3,MacIntel,60,13252,,,,,,,,,,,,,,,,,,,,,,,,,,,,,,,,,,,,,,,,,,,,
,,,,,,,,,,,,a,0.633505,Incorrect,0,87,87,69,1,t4.png,t2.png,2,0.059078,19,female,2020-11-15_18h40.58.569,torte-q,2020.1.3,MacIntel,60,13252,,,,,,,,,,,,,,,,,,,,,,,,,,,,,,,,,,,,,,,,,,,,
,,,,,,,,,,,,a,0.084085,Correct!,0,88,88,59,1,t5.png,t4.png,1,0.9,19,female,2020-11-15_18h40.58.569,torte-q,2020.1.3,MacIntel,60,13252,,,,,,,,,,,,,,,,,,,,,,,,,,,,,,,,,,,,,,,,,,,,
,,,,,,,,,,,,a,0.91625,Correct!,0,89,89,23,1,t5.png,t4.png,1,0.90025,19,female,2020-11-15_18h40.58.569,torte-q,2020.1.3,MacIntel,60,13252,,,,,,,,,,,,,,,,,,,,,,,,,,,,,,,,,,,,,,,,,,,,
,,,,,,,,,,,,l,0.901155,Incorrect,0,90,90,66,1,t4.png,t5.png,1,0.9,19,female,2020-11-15_18h40.58.569,torte-q,2020.1.3,MacIntel,60,13252,,,,,,,,,,,,,,,,,,,,,,,,,,,,,,,,,,,,,,,,,,,,
,,,,,,,,,,,,a,1.00207,Correct!,0,91,91,70,1,t5.png,t5.png,0,0.978,19,female,2020-11-15_18h40.58.569,torte-q,2020.1.3,MacIntel,60,13252,,,,,,,,,,,,,,,,,,,,,,,,,,,,,,,,,,,,,,,,,,,,
,,,,,,,,,,,,l,2.34047,Correct!,0,92,92,67,1,t1.png,t5.png,4,9.55E-11,19,female,2020-11-15_18h40.58.569,torte-q,2020.1.3,MacIntel,60,13252,,,,,,,,,,,,,,,,,,,,,,,,,,,,,,,,,,,,,,,,,,,,
,,,,,,,,,,,,a,1.328425,Incorrect,0,93,93,50,1,t5.png,t1.png,4,9.55E-11,19,female,2020-11-15_18h40.58.569,torte-q,2020.1.3,MacIntel,60,13252,,,,,,,,,,,,,,,,,,,,,,,,,,,,,,,,,,,,,,,,,,,,
,,,,,,,,,,,,l,2.418855,Incorrect,0,94,94,14,1,t2.png,t4.png,2,0.059078,19,female,2020-11-15_18h40.58.569,torte-q,2020.1.3,MacIntel,60,13252,,,,,,,,,,,,,,,,,,,,,,,,,,,,,,,,,,,,,,,,,,,,
,,,,,,,,,,,,l,0.699825,Incorrect,0,95,95,44,1,t2.png,t3.png,1,0.909,19,female,2020-11-15_18h40.58.569,torte-q,2020.1.3,MacIntel,60,13252,,,,,,,,,,,,,,,,,,,,,,,,,,,,,,,,,,,,,,,,,,,,
,,,,,,,,,,,,l,1.132535,Correct!,0,96,96,80,1,t1.png,t4.png,3,0.0000131,19,female,2020-11-15_18h40.58.569,torte-q,2020.1.3,MacIntel,60,13252,,,,,,,,,,,,,,,,,,,,,,,,,,,,,,,,,,,,,,,,,,,,
,,,,,,,,,,,,a,0.99421,Correct!,0,97,97,81,1,t1.png,t1.png,0,0.97829,19,female,2020-11-15_18h40.58.569,torte-q,2020.1.3,MacIntel,60,13252,,,,,,,,,,,,,,,,,,,,,,,,,,,,,,,,,,,,,,,,,,,,
,,,,,,,,,,,,l,1.33307,Correct!,0,98,98,5,1,t2.png,t4.png,2,0.059078,19,female,2020-11-15_18h40.58.569,torte-q,2020.1.3,MacIntel,60,13252,,,,,,,,,,,,,,,,,,,,,,,,,,,,,,,,,,,,,,,,,,,,
,,,,,,,,,,,,a,1.24042,Incorrect,0,99,99,33,1,t5.png,t1.png,4,9.55E-11,19,female,2020-11-15_18h40.58.569,torte-q,2020.1.3,MacIntel,60,13252,,,,,,,,,,,,,,,,,,,,,,,,,,,,,,,,,,,,,,,,,,,,
,,,,,,,,,,,,,,Too slow :(,0,100,100,7,1,t4.png,t5.png,1,0.90025,19,female,2020-11-15_18h40.58.569,torte-q,2020.1.3,MacIntel,60,13252,,,,,,,,,,,,,,,,,,,,,,,,,,,,,,,,,,,,,,,,,,,,
,,,,,,,,,,,,l,1.257505,Incorrect,0,101,101,28,1,t2.png,t3.png,1,0.909,19,female,2020-11-15_18h40.58.569,torte-q,2020.1.3,MacIntel,60,13252,,,,,,,,,,,,,,,,,,,,,,,,,,,,,,,,,,,,,,,,,,,,
,,,,,,,,,,,,a,1.656745,Incorrect,0,102,102,73,1,t4.png,t2.png,2,0.059078,19,female,2020-11-15_18h40.58.569,torte-q,2020.1.3,MacIntel,60,13252,,,,,,,,,,,,,,,,,,,,,,,,,,,,,,,,,,,,,,,,,,,,
,,,,,,,,,,,,l,1.674295,Correct!,0,103,103,52,1,t2.png,t4.png,2,0.059078,19,female,2020-11-15_18h40.58.569,torte-q,2020.1.3,MacIntel,60,13252,,,,,,,,,,,,,,,,,,,,,,,,,,,,,,,,,,,,,,,,,,,,
,,,,,,,,,,,,l,0.992335,Correct!,0,104,104,4,1,t1.png,t5.png,4,9.55E-11,19,female,2020-11-15_18h40.58.569,torte-q,2020.1.3,MacIntel,60,13252,,,,,,,,,,,,,,,,,,,,,,,,,,,,,,,,,,,,,,,,,,,,
,,,,,,,,,,,,a,1.787965,Incorrect,0,105,105,86,1,t3.png,t1.png,2,0.056466,19,female,2020-11-15_18h40.58.569,torte-q,2020.1.3,MacIntel,60,13252,,,,,,,,,,,,,,,,,,,,,,,,,,,,,,,,,,,,,,,,,,,,
,,,,,,,,,,,,l,2.150205,Incorrect,0,106,106,25,1,t5.png,t5.png,0,0.97829,19,female,2020-11-15_18h40.58.569,torte-q,2020.1.3,MacIntel,60,13252,,,,,,,,,,,,,,,,,,,,,,,,,,,,,,,,,,,,,,,,,,,,
,,,,,,,,,,,,,,Too slow :(,0,107,107,3,1,t1.png,t5.png,4,9.55E-11,19,female,2020-11-15_18h40.58.569,torte-q,2020.1.3,MacIntel,60,13252,,,,,,,,,,,,,,,,,,,,,,,,,,,,,,,,,,,,,,,,,,,,
,,,,,,,,,,,,a,0.904235,Correct!,0,108,108,97,1,t5.png,t5.png,0,0.97829,19,female,2020-11-15_18h40.58.569,torte-q,2020.1.3,MacIntel,60,13252,,,,,,,,,,,,,,,,,,,,,,,,,,,,,,,,,,,,,,,,,,,,
,,,,,,,,,,,,l,1.004955,Correct!,0,109,109,115,1,t2.png,t4.png,2,0.059078,19,female,2020-11-15_18h40.58.569,torte-q,2020.1.3,MacIntel,60,13252,,,,,,,,,,,,,,,,,,,,,,,,,,,,,,,,,,,,,,,,,,,,
,,,,,,,,,,,,,,Too slow :(,0,110,110,11,1,t1.png,t4.png,3,0.0000131,19,female,2020-11-15_18h40.58.569,torte-q,2020.1.3,MacIntel,60,13252,,,,,,,,,,,,,,,,,,,,,,,,,,,,,,,,,,,,,,,,,,,,
,,,,,,,,,,,,a,0.74064,Incorrect,0,111,111,108,1,t5.png,t1.png,4,9.55E-11,19,female,2020-11-15_18h40.58.569,torte-q,2020.1.3,MacIntel,60,13252,,,,,,,,,,,,,,,,,,,,,,,,,,,,,,,,,,,,,,,,,,,,
,,,,,,,,,,,,l,1.108895,Correct!,0,112,112,119,1,t1.png,t5.png,4,9.55E-11,19,female,2020-11-15_18h40.58.569,torte-q,2020.1.3,MacIntel,60,13252,,,,,,,,,,,,,,,,,,,,,,,,,,,,,,,,,,,,,,,,,,,,
,,,,,,,,,,,,l,0.683135,Correct!,0,113,113,61,1,t1.png,t4.png,3,0.0000131,19,female,2020-11-15_18h40.58.569,torte-q,2020.1.3,MacIntel,60,13252,,,,,,,,,,,,,,,,,,,,,,,,,,,,,,,,,,,,,,,,,,,,
,,,,,,,,,,,,l,0.696965,Incorrect,0,114,114,106,1,t2.png,t3.png,1,0.90855,19,female,2020-11-15_18h40.58.569,torte-q,2020.1.3,MacIntel,60,13252,,,,,,,,,,,,,,,,,,,,,,,,,,,,,,,,,,,,,,,,,,,,
,,,,,,,,,,,,l,0.63346,Correct!,0,115,115,91,1,t1.png,t4.png,3,0.0000131,19,female,2020-11-15_18h40.58.569,torte-q,2020.1.3,MacIntel,60,13252,,,,,,,,,,,,,,,,,,,,,,,,,,,,,,,,,,,,,,,,,,,,
,,,,,,,,,,,,l,1.06781,Incorrect,0,116,116,110,1,t4.png,t5.png,1,0.90025,19,female,2020-11-15_18h40.58.569,torte-q,2020.1.3,MacIntel,60,13252,,,,,,,,,,,,,,,,,,,,,,,,,,,,,,,,,,,,,,,,,,,,
,,,,,,,,,,,,a,0.68998,Incorrect,0,117,117,19,1,t4.png,t2.png,2,0.059078,19,female,2020-11-15_18h40.58.569,torte-q,2020.1.3,MacIntel,60,13252,,,,,,,,,,,,,,,,,,,,,,,,,,,,,,,,,,,,,,,,,,,,
,,,,,,,,,,,,a,0.590175,Incorrect,0,118,118,26,1,t4.png,t2.png,2,0.0591,19,female,2020-11-15_18h40.58.569,torte-q,2020.1.3,MacIntel,60,13252,,,,,,,,,,,,,,,,,,,,,,,,,,,,,,,,,,,,,,,,,,,,
,,,,,,,,,,,,a,0.43321,Incorrect,0,119,119,56,1,t5.png,t1.png,4,9.55E-11,19,female,2020-11-15_18h40.58.569,torte-q,2020.1.3,MacIntel,60,13252,,,,,,,,,,,,,,,,,,,,,,,,,,,,,,,,,,,,,,,,,,,,
,,,,,,,,,,,,a,1.84023,Correct!,,,,,,t1.png,t1.png,0,0.97829,19,female,2020-11-15_18h40.58.569,torte-q,2020.1.3,MacIntel,60,13252,space,154.382185,space,32.87458,0,0,0,9,1,,,,,,,,,,,,,,,,,,,,,,,,,,,,,,,,,,,
,,,,,,,,,,,,l,1.766215,Correct!,,,,,,t2.png,t5.png,3,0.0000131,19,female,2020-11-15_18h40.58.569,torte-q,2020.1.3,MacIntel,60,13252,,,,,0,1,1,8,1,,,,,,,,,,,,,,,,,,,,,,,,,,,,,,,,,,,
,,,,,,,,,,,,a,1.173555,Correct!,,,,,,t4.png,t3.png,1,0.90855,19,female,2020-11-15_18h40.58.569,torte-q,2020.1.3,MacIntel,60,13252,,,,,0,2,2,35,1,,,,,,,,,,,,,,,,,,,,,,,,,,,,,,,,,,,
,,,,,,,,,,,,a,0.55489,Incorrect,,,,,,t5.png,t2.png,3,0.0000131,19,female,2020-11-15_18h40.58.569,torte-q,2020.1.3,MacIntel,60,13252,,,,,0,3,3,98,1,,,,,,,,,,,,,,,,,,,,,,,,,,,,,,,,,,,
,,,,,,,,,,,,a,0.696865,Correct!,,,,,,t4.png,t3.png,1,0.90855,19,female,2020-11-15_18h40.58.569,torte-q,2020.1.3,MacIntel,60,13252,,,,,0,4,4,75,1,,,,,,,,,,,,,,,,,,,,,,,,,,,,,,,,,,,
,,,,,,,,,,,,a,0.53211,Incorrect,,,,,,t5.png,t1.png,4,9.55E-11,19,female,2020-11-15_18h40.58.569,torte-q,2020.1.3,MacIntel,60,13252,,,,,0,5,5,102,1,,,,,,,,,,,,,,,,,,,,,,,,,,,,,,,,,,,
,,,,,,,,,,,,a,0.80102,Correct!,,,,,,t4.png,t3.png,1,0.90855,19,female,2020-11-15_18h40.58.569,torte-q,2020.1.3,MacIntel,60,13252,,,,,0,6,6,45,1,,,,,,,,,,,,,,,,,,,,,,,,,,,,,,,,,,,
,,,,,,,,,,,,a,1.68743,Correct!,,,,,,t5.png,t4.png,1,0.9,19,female,2020-11-15_18h40.58.569,torte-q,2020.1.3,MacIntel,60,13252,,,,,0,7,7,76,1,,,,,,,,,,,,,,,,,,,,,,,,,,,,,,,,,,,
,,,,,,,,,,,,l,1.62567,Correct!,,,,,,t1.png,t3.png,2,0.056466,19,female,2020-11-15_18h40.58.569,torte-q,2020.1.3,MacIntel,60,13252,,,,,0,8,8,99,1,,,,,,,,,,,,,,,,,,,,,,,,,,,,,,,,,,,
,,,,,,,,,,,,a,0.681225,Incorrect,,,,,,t4.png,t2.png,2,0.0591,19,female,2020-11-15_18h40.58.569,torte-q,2020.1.3,MacIntel,60,13252,,,,,0,9,9,36,1,,,,,,,,,,,,,,,,,,,,,,,,,,,,,,,,,,,
,,,,,,,,,,,,l,2.041095,Incorrect,,,,,,t1.png,t2.png,1,0.90025,19,female,2020-11-15_18h40.58.569,torte-q,2020.1.3,MacIntel,60,13252,,,,,0,10,10,72,1,,,,,,,,,,,,,,,,,,,,,,,,,,,,,,,,,,,
,,,,,,,,,,,,l,0.55012,Correct!,,,,,,t1.png,t4.png,3,0.0000131,19,female,2020-11-15_18h40.58.569,torte-q,2020.1.3,MacIntel,60,13252,,,,,0,11,11,50,1,,,,,,,,,,,,,,,,,,,,,,,,,,,,,,,,,,,
,,,,,,,,,,,,a,0.690425,Incorrect,,,,,,t4.png,t1.png,3,0.0000131,19,female,2020-11-15_18h40.58.569,torte-q,2020.1.3,MacIntel,60,13252,,,,,0,12,12,48,1,,,,,,,,,,,,,,,,,,,,,,,,,,,,,,,,,,,
,,,,,,,,,,,,a,0.98069,Correct!,,,,,,t5.png,t4.png,1,0.90025,19,female,2020-11-15_18h40.58.569,torte-q,2020.1.3,MacIntel,60,13252,,,,,0,13,13,26,1,,,,,,,,,,,,,,,,,,,,,,,,,,,,,,,,,,,
,,,,,,,,,,,,l,0.82644,Incorrect,,,,,,t4.png,t5.png,1,0.9,19,female,2020-11-15_18h40.58.569,torte-q,2020.1.3,MacIntel,60,13252,,,,,0,14,14,115,1,,,,,,,,,,,,,,,,,,,,,,,,,,,,,,,,,,,
,,,,,,,,,,,,a,0.534925,Incorrect,,,,,,t5.png,t1.png,4,9.55E-11,19,female,2020-11-15_18h40.58.569,torte-q,2020.1.3,MacIntel,60,13252,,,,,0,15,15,43,1,,,,,,,,,,,,,,,,,,,,,,,,,,,,,,,,,,,
,,,,,,,,,,,,l,0.49093,Incorrect,,,,,,t3.png,t4.png,1,0.90855,19,female,2020-11-15_18h40.58.569,torte-q,2020.1.3,MacIntel,60,13252,,,,,0,16,16,96,1,,,,,,,,,,,,,,,,,,,,,,,,,,,,,,,,,,,
,,,,,,,,,,,,l,0.617585,Incorrect,,,,,,t3.png,t4.png,1,0.909,19,female,2020-11-15_18h40.58.569,torte-q,2020.1.3,MacIntel,60,13252,,,,,0,17,17,82,1,,,,,,,,,,,,,,,,,,,,,,,,,,,,,,,,,,,
,,,,,,,,,,,,a,0.756425,Incorrect,,,,,,t5.png,t2.png,3,0.0000131,19,female,2020-11-15_18h40.58.569,torte-q,2020.1.3,MacIntel,60,13252,,,,,0,18,18,91,1,,,,,,,,,,,,,,,,,,,,,,,,,,,,,,,,,,,
,,,,,,,,,,,,l,0.473595,Incorrect,,,,,,t4.png,t5.png,1,0.90025,19,female,2020-11-15_18h40.58.569,torte-q,2020.1.3,MacIntel,60,13252,,,,,0,19,19,103,1,,,,,,,,,,,,,,,,,,,,,,,,,,,,,,,,,,,
,,,,,,,,,,,,a,0.518375,Correct!,,,,,,t5.png,t3.png,2,0.056466,19,female,2020-11-15_18h40.58.569,torte-q,2020.1.3,MacIntel,60,13252,,,,,0,20,20,56,1,,,,,,,,,,,,,,,,,,,,,,,,,,,,,,,,,,,
,,,,,,,,,,,,a,1.39065,Correct!,,,,,,t2.png,t2.png,0,0.98115,19,female,2020-11-15_18h40.58.569,torte-q,2020.1.3,MacIntel,60,13252,,,,,0,21,21,7,1,,,,,,,,,,,,,,,,,,,,,,,,,,,,,,,,,,,
,,,,,,,,,,,,l,1.08187,Incorrect,,,,,,t2.png,t3.png,1,0.90855,19,female,2020-11-15_18h40.58.569,torte-q,2020.1.3,MacIntel,60,13252,,,,,0,22,22,68,1,,,,,,,,,,,,,,,,,,,,,,,,,,,,,,,,,,,
,,,,,,,,,,,,a,0.607795,Incorrect,,,,,,t3.png,t1.png,2,0.056466,19,female,2020-11-15_18h40.58.569,torte-q,2020.1.3,MacIntel,60,13252,,,,,0,23,23,32,1,,,,,,,,,,,,,,,,,,,,,,,,,,,,,,,,,,,
,,,,,,,,,,,,a,0.55018,Correct!,,,,,,t5.png,t3.png,2,0.056466,19,female,2020-11-15_18h40.58.569,torte-q,2020.1.3,MacIntel,60,13252,,,,,0,24,24,38,1,,,,,,,,,,,,,,,,,,,,,,,,,,,,,,,,,,,
,,,,,,,,,,,,a,0.680175,Correct!,,,,,,t2.png,t1.png,1,0.90025,19,female,2020-11-15_18h40.58.569,torte-q,2020.1.3,MacIntel,60,13252,,,,,0,25,25,62,1,,,,,,,,,,,,,,,,,,,,,,,,,,,,,,,,,,,
,,,,,,,,,,,,a,1.184715,Correct!,,,,,,t4.png,t4.png,0,0.98115,19,female,2020-11-15_18h40.58.569,torte-q,2020.1.3,MacIntel,60,13252,,,,,0,26,26,80,1,,,,,,,,,,,,,,,,,,,,,,,,,,,,,,,,,,,
,,,,,,,,,,,,a,0.48921,Incorrect,,,,,,t4.png,t2.png,2,0.059078,19,female,2020-11-15_18h40.58.569,torte-q,2020.1.3,MacIntel,60,13252,,,,,0,27,27,86,1,,,,,,,,,,,,,,,,,,,,,,,,,,,,,,,,,,,
,,,,,,,,,,,,a,0.837415,Correct!,,,,,,t2.png,t2.png,0,0.981,19,female,2020-11-15_18h40.58.569,torte-q,2020.1.3,MacIntel,60,13252,,,,,0,28,28,101,1,,,,,,,,,,,,,,,,,,,,,,,,,,,,,,,,,,,
,,,,,,,,,,,,a,0.62118,Incorrect,,,,,,t3.png,t1.png,2,0.0565,19,female,2020-11-15_18h40.58.569,torte-q,2020.1.3,MacIntel,60,13252,,,,,0,29,29,31,1,,,,,,,,,,,,,,,,,,,,,,,,,,,,,,,,,,,
,,,,,,,,,,,,a,0.565175,Correct!,,,,,,t2.png,t1.png,1,0.90025,19,female,2020-11-15_18h40.58.569,torte-q,2020.1.3,MacIntel,60,13252,,,,,0,30,30,5,1,,,,,,,,,,,,,,,,,,,,,,,,,,,,,,,,,,,
,,,,,,,,,,,,l,0.89961,Correct!,,,,,,t1.png,t3.png,2,0.056466,19,female,2020-11-15_18h40.58.569,torte-q,2020.1.3,MacIntel,60,13252,,,,,0,31,31,69,1,,,,,,,,,,,,,,,,,,,,,,,,,,,,,,,,,,,
,,,,,,,,,,,,l,1.71793,Incorrect,,,,,,t4.png,t5.png,1,0.90025,19,female,2020-11-15_18h40.58.569,torte-q,2020.1.3,MacIntel,60,13252,,,,,0,32,32,113,1,,,,,,,,,,,,,,,,,,,,,,,,,,,,,,,,,,,
,,,,,,,,,,,,l,1.08441,Incorrect,,,,,,t2.png,t3.png,1,0.90855,19,female,2020-11-15_18h40.58.569,torte-q,2020.1.3,MacIntel,60,13252,,,,,0,33,33,111,1,,,,,,,,,,,,,,,,,,,,,,,,,,,,,,,,,,,
,,,,,,,,,,,,a,0.876745,Correct!,,,,,,t4.png,t3.png,1,0.909,19,female,2020-11-15_18h40.58.569,torte-q,2020.1.3,MacIntel,60,13252,,,,,0,34,34,20,1,,,,,,,,,,,,,,,,,,,,,,,,,,,,,,,,,,,
,,,,,,,,,,,,l,0.737455,Correct!,,,,,,t1.png,t5.png,4,9.55E-11,19,female,2020-11-15_18h40.58.569,torte-q,2020.1.3,MacIntel,60,13252,,,,,0,35,35,12,1,,,,,,,,,,,,,,,,,,,,,,,,,,,,,,,,,,,
,,,,,,,,,,,,l,0.83371,Incorrect,,,,,,t2.png,t3.png,1,0.909,19,female,2020-11-15_18h40.58.569,torte-q,2020.1.3,MacIntel,60,13252,,,,,0,36,36,74,1,,,,,,,,,,,,,,,,,,,,,,,,,,,,,,,,,,,
,,,,,,,,,,,,a,0.498545,Correct!,,,,,,t3.png,t2.png,1,0.909,19,female,2020-11-15_18h40.58.569,torte-q,2020.1.3,MacIntel,60,13252,,,,,0,37,37,23,1,,,,,,,,,,,,,,,,,,,,,,,,,,,,,,,,,,,
,,,,,,,,,,,,a,0.92233,Correct!,,,,,,t4.png,t4.png,0,0.98115,19,female,2020-11-15_18h40.58.569,torte-q,2020.1.3,MacIntel,60,13252,,,,,0,38,38,21,1,,,,,,,,,,,,,,,,,,,,,,,,,,,,,,,,,,,
,,,,,,,,,,,,l,0.722745,Correct!,,,,,,t2.png,t4.png,2,0.059078,19,female,2020-11-15_18h40.58.569,torte-q,2020.1.3,MacIntel,60,13252,,,,,0,39,39,37,1,,,,,,,,,,,,,,,,,,,,,,,,,,,,,,,,,,,
,,,,,,,,,,,,a,0.534755,Correct!,,,,,,t2.png,t2.png,0,0.98115,19,female,2020-11-15_18h40.58.569,torte-q,2020.1.3,MacIntel,60,13252,,,,,0,40,40,2,1,,,,,,,,,,,,,,,,,,,,,,,,,,,,,,,,,,,
,,,,,,,,,,,,a,0.60861,Correct!,,,,,,t5.png,t5.png,0,0.978,19,female,2020-11-15_18h40.58.569,torte-q,2020.1.3,MacIntel,60,13252,,,,,0,41,41,117,1,,,,,,,,,,,,,,,,,,,,,,,,,,,,,,,,,,,
,,,,,,,,,,,,a,0.431125,Incorrect,,,,,,t4.png,t2.png,2,0.059078,19,female,2020-11-15_18h40.58.569,torte-q,2020.1.3,MacIntel,60,13252,,,,,0,42,42,109,1,,,,,,,,,,,,,,,,,,,,,,,,,,,,,,,,,,,
,,,,,,,,,,,,a,0.364155,Incorrect,,,,,,t5.png,t2.png,3,0.0000131,19,female,2020-11-15_18h40.58.569,torte-q,2020.1.3,MacIntel,60,13252,,,,,0,43,43,119,1,,,,,,,,,,,,,,,,,,,,,,,,,,,,,,,,,,,
,,,,,,,,,,,,l,0.96724,Correct!,,,,,,t1.png,t4.png,3,0.0000131,19,female,2020-11-15_18h40.58.569,torte-q,2020.1.3,MacIntel,60,13252,,,,,0,44,44,17,1,,,,,,,,,,,,,,,,,,,,,,,,,,,,,,,,,,,
,,,,,,,,,,,,l,0.549915,Incorrect,,,,,,t4.png,t5.png,1,0.90025,19,female,2020-11-15_18h40.58.569,torte-q,2020.1.3,MacIntel,60,13252,,,,,0,45,45,58,1,,,,,,,,,,,,,,,,,,,,,,,,,,,,,,,,,,,
,,,,,,,,,,,,l,0.839575,Correct!,,,,,,t1.png,t5.png,4,9.55E-11,19,female,2020-11-15_18h40.58.569,torte-q,2020.1.3,MacIntel,60,13252,,,,,0,46,46,41,1,,,,,,,,,,,,,,,,,,,,,,,,,,,,,,,,,,,
,,,,,,,,,,,,a,0.887575,Correct!,,,,,,t5.png,t4.png,1,0.90025,19,female,2020-11-15_18h40.58.569,torte-q,2020.1.3,MacIntel,60,13252,,,,,0,47,47,34,1,,,,,,,,,,,,,,,,,,,,,,,,,,,,,,,,,,,
,,,,,,,,,,,,a,0.91208,Correct!,,,,,,t5.png,t5.png,0,0.97829,19,female,2020-11-15_18h40.58.569,torte-q,2020.1.3,MacIntel,60,13252,,,,,0,48,48,94,1,,,,,,,,,,,,,,,,,,,,,,,,,,,,,,,,,,,
,,,,,,,,,,,,a,0.64844,Incorrect,,,,,,t4.png,t1.png,3,0.0000131,19,female,2020-11-15_18h40.58.569,torte-q,2020.1.3,MacIntel,60,13252,,,,,0,49,49,13,1,,,,,,,,,,,,,,,,,,,,,,,,,,,,,,,,,,,
,,,,,,,,,,,,l,0.837885,Correct!,,,,,,t2.png,t5.png,3,0.0000131,19,female,2020-11-15_18h40.58.569,torte-q,2020.1.3,MacIntel,60,13252,,,,,0,50,50,66,1,,,,,,,,,,,,,,,,,,,,,,,,,,,,,,,,,,,
,,,,,,,,,,,,l,0.633,Correct!,,,,,,t1.png,t4.png,3,0.0000131,19,female,2020-11-15_18h40.58.569,torte-q,2020.1.3,MacIntel,60,13252,,,,,0,51,51,81,1,,,,,,,,,,,,,,,,,,,,,,,,,,,,,,,,,,,
,,,,,,,,,,,,a,0.44816,Correct!,,,,,,t3.png,t2.png,1,0.90855,19,female,2020-11-15_18h40.58.569,torte-q,2020.1.3,MacIntel,60,13252,,,,,0,52,52,18,1,,,,,,,,,,,,,,,,,,,,,,,,,,,,,,,,,,,
,,,,,,,,,,,,l,0.65787,Correct!,,,,,,t3.png,t5.png,2,0.0565,19,female,2020-11-15_18h40.58.569,torte-q,2020.1.3,MacIntel,60,13252,,,,,0,53,53,30,1,,,,,,,,,,,,,,,,,,,,,,,,,,,,,,,,,,,
,,,,,,,,,,,,l,0.457985,Correct!,,,,,,t1.png,t4.png,3,0.0000131,19,female,2020-11-15_18h40.58.569,torte-q,2020.1.3,MacIntel,60,13252,,,,,0,54,54,92,1,,,,,,,,,,,,,,,,,,,,,,,,,,,,,,,,,,,
,,,,,,,,,,,,a,0.44468,Incorrect,,,,,,t3.png,t1.png,2,0.056466,19,female,2020-11-15_18h40.58.569,torte-q,2020.1.3,MacIntel,60,13252,,,,,0,55,55,29,1,,,,,,,,,,,,,,,,,,,,,,,,,,,,,,,,,,,
,,,,,,,,,,,,l,0.67198,Correct!,,,,,,t2.png,t4.png,2,0.059078,19,female,2020-11-15_18h40.58.569,torte-q,2020.1.3,MacIntel,60,13252,,,,,0,56,56,11,1,,,,,,,,,,,,,,,,,,,,,,,,,,,,,,,,,,,
,,,,,,,,,,,,a,0.59925,Incorrect,,,,,,t5.png,t1.png,4,9.55E-11,19,female,2020-11-15_18h40.58.569,torte-q,2020.1.3,MacIntel,60,13252,,,,,0,57,57,22,1,,,,,,,,,,,,,,,,,,,,,,,,,,,,,,,,,,,
,,,,,,,,,,,,a,0.948965,Correct!,,,,,,t4.png,t4.png,0,0.98115,19,female,2020-11-15_18h40.58.569,torte-q,2020.1.3,MacIntel,60,13252,,,,,0,58,58,90,1,,,,,,,,,,,,,,,,,,,,,,,,,,,,,,,,,,,
,,,,,,,,,,,,a,0.609375,Correct!,,,,,,t5.png,t4.png,1,0.90025,19,female,2020-11-15_18h40.58.569,torte-q,2020.1.3,MacIntel,60,13252,,,,,0,59,59,27,1,,,,,,,,,,,,,,,,,,,,,,,,,,,,,,,,,,,
,,,,,,,,,,,,a,0.488445,Incorrect,,,,,,t5.png,t1.png,4,9.55E-11,19,female,2020-11-15_18h40.58.569,torte-q,2020.1.3,MacIntel,60,13252,,,,,0,60,60,71,1,,,,,,,,,,,,,,,,,,,,,,,,,,,,,,,,,,,
,,,,,,,,,,,,a,0.628905,Correct!,,,,,,t1.png,t1.png,0,0.978,19,female,2020-11-15_18h40.58.569,torte-q,2020.1.3,MacIntel,60,13252,,,,,0,61,61,54,1,,,,,,,,,,,,,,,,,,,,,,,,,,,,,,,,,,,
,,,,,,,,,,,,a,0.47083,Incorrect,,,,,,t3.png,t1.png,2,0.056466,19,female,2020-11-15_18h40.58.569,torte-q,2020.1.3,MacIntel,60,13252,,,,,0,62,62,64,1,,,,,,,,,,,,,,,,,,,,,,,,,,,,,,,,,,,
,,,,,,,,,,,,a,0.357655,Correct!,,,,,,t2.png,t2.png,0,0.98115,19,female,2020-11-15_18h40.58.569,torte-q,2020.1.3,MacIntel,60,13252,,,,,0,63,63,57,1,,,,,,,,,,,,,,,,,,,,,,,,,,,,,,,,,,,
,,,,,,,,,,,,a,0.366775,Correct!,,,,,,t4.png,t5.png,1,0.90025,19,female,2020-11-15_18h40.58.569,torte-q,2020.1.3,MacIntel,60,13252,,,,,0,64,64,47,1,,,,,,,,,,,,,,,,,,,,,,,,,,,,,,,,,,,
,,,,,,,,,,,,a,0.569545,Correct!,,,,,,t2.png,t1.png,1,0.90025,19,female,2020-11-15_18h40.58.569,torte-q,2020.1.3,MacIntel,60,13252,,,,,0,65,65,4,1,,,,,,,,,,,,,,,,,,,,,,,,,,,,,,,,,,,
,,,,,,,,,,,,a,1.15731,Correct!,,,,,,t1.png,t1.png,0,0.97829,19,female,2020-11-15_18h40.58.569,torte-q,2020.1.3,MacIntel,60,13252,,,,,0,66,66,78,1,,,,,,,,,,,,,,,,,,,,,,,,,,,,,,,,,,,
,,,,,,,,,,,,l,1.309375,Correct!,,,,,,t1.png,t5.png,4,9.55E-11,19,female,2020-11-15_18h40.58.569,torte-q,2020.1.3,MacIntel,60,13252,,,,,0,67,67,55,1,,,,,,,,,,,,,,,,,,,,,,,,,,,,,,,,,,,
,,,,,,,,,,,,l,0.51327,Correct!,,,,,,t2.png,t5.png,3,0.0000131,19,female,2020-11-15_18h40.58.569,torte-q,2020.1.3,MacIntel,60,13252,,,,,0,68,68,40,1,,,,,,,,,,,,,,,,,,,,,,,,,,,,,,,,,,,
,,,,,,,,,,,,a,1.291215,Correct!,,,,,,t1.png,t1.png,0,0.97829,19,female,2020-11-15_18h40.58.569,torte-q,2020.1.3,MacIntel,60,13252,,,,,0,69,69,67,1,,,,,,,,,,,,,,,,,,,,,,,,,,,,,,,,,,,
,,,,,,,,,,,,l,0.98567,Incorrect,,,,,,t3.png,t4.png,1,0.909,19,female,2020-11-15_18h40.58.569,torte-q,2020.1.3,MacIntel,60,13252,,,,,0,70,70,106,1,,,,,,,,,,,,,,,,,,,,,,,,,,,,,,,,,,,
,,,,,,,,,,,,l,1.55964,Correct!,,,,,,t3.png,t5.png,2,0.0565,19,female,2020-11-15_18h40.58.569,torte-q,2020.1.3,MacIntel,60,13252,,,,,0,71,71,83,1,,,,,,,,,,,,,,,,,,,,,,,,,,,,,,,,,,,
,,,,,,,,,,,,l,1.31912,Correct!,,,,,,t1.png,t3.png,2,0.056466,19,female,2020-11-15_18h40.58.569,torte-q,2020.1.3,MacIntel,60,13252,,,,,0,72,72,87,1,,,,,,,,,,,,,,,,,,,,,,,,,,,,,,,,,,,
,,,,,,,,,,,,a,0.87275,Correct!,,,,,,t5.png,t5.png,0,0.97829,19,female,2020-11-15_18h40.58.569,torte-q,2020.1.3,MacIntel,60,13252,,,,,0,73,73,73,1,,,,,,,,,,,,,,,,,,,,,,,,,,,,,,,,,,,
,,,,,,,,,,,,l,1.40186,Incorrect,,,,,,t2.png,t3.png,1,0.90855,19,female,2020-11-15_18h40.58.569,torte-q,2020.1.3,MacIntel,60,13252,,,,,0,74,74,10,1,,,,,,,,,,,,,,,,,,,,,,,,,,,,,,,,,,,
,,,,,,,,,,,,a,0.594375,Correct!,,,,,,t4.png,t4.png,0,0.98115,19,female,2020-11-15_18h40.58.569,torte-q,2020.1.3,MacIntel,60,13252,,,,,0,75,75,52,1,,,,,,,,,,,,,,,,,,,,,,,,,,,,,,,,,,,
,,,,,,,,,,,,a,0.624035,Incorrect,,,,,,t5.png,t1.png,4,9.55E-11,19,female,2020-11-15_18h40.58.569,torte-q,2020.1.3,MacIntel,60,13252,,,,,0,76,76,100,1,,,,,,,,,,,,,,,,,,,,,,,,,,,,,,,,,,,
,,,,,,,,,,,,a,0.60481,Incorrect,,,,,,t2.png,t1.png,1,0.90025,19,female,2020-11-15_18h40.58.569,torte-q,2020.1.3,MacIntel,60,13252,,,,,0,77,77,19,1,,,,,,,,,,,,,,,,,,,,,,,,,,,,,,,,,,,
,,,,,,,,,,,,l,0.87246,Correct!,,,,,,t2.png,t4.png,2,0.0591,19,female,2020-11-15_18h40.58.569,torte-q,2020.1.3,MacIntel,60,13252,,,,,0,78,78,15,1,,,,,,,,,,,,,,,,,,,,,,,,,,,,,,,,,,,
,,,,,,,,,,,,l,0.56702,Correct!,,,,,,t1.png,t5.png,4,9.55E-11,19,female,2020-11-15_18h40.58.569,torte-q,2020.1.3,MacIntel,60,13252,,,,,0,79,79,16,1,,,,,,,,,,,,,,,,,,,,,,,,,,,,,,,,,,,
,,,,,,,,,,,,l,0.6008,Correct!,,,,,,t1.png,t3.png,2,0.056466,19,female,2020-11-15_18h40.58.569,torte-q,2020.1.3,MacIntel,60,13252,,,,,0,80,80,60,1,,,,,,,,,,,,,,,,,,,,,,,,,,,,,,,,,,,
,,,,,,,,,,,,a,0.501385,Incorrect,,,,,,t5.png,t2.png,3,0.0000131,19,female,2020-11-15_18h40.58.569,torte-q,2020.1.3,MacIntel,60,13252,,,,,0,81,81,116,1,,,,,,,,,,,,,,,,,,,,,,,,,,,,,,,,,,,
,,,,,,,,,,,,a,0.440365,Correct!,,,,,,t2.png,t2.png,0,0.98115,19,female,2020-11-15_18h40.58.569,torte-q,2020.1.3,MacIntel,60,13252,,,,,0,82,82,59,1,,,,,,,,,,,,,,,,,,,,,,,,,,,,,,,,,,,
,,,,,,,,,,,,l,0.649215,Correct!,,,,,,t2.png,t5.png,3,0.0000131,19,female,2020-11-15_18h40.58.569,torte-q,2020.1.3,MacIntel,60,13252,,,,,0,83,83,104,1,,,,,,,,,,,,,,,,,,,,,,,,,,,,,,,,,,,
,,,,,,,,,,,,a,0.63622,Correct!,,,,,,t5.png,t5.png,0,0.97829,19,female,2020-11-15_18h40.58.569,torte-q,2020.1.3,MacIntel,60,13252,,,,,0,84,84,70,1,,,,,,,,,,,,,,,,,,,,,,,,,,,,,,,,,,,
,,,,,,,,,,,,a,0.545045,Incorrect,,,,,,t3.png,t2.png,1,0.90855,19,female,2020-11-15_18h40.58.569,torte-q,2020.1.3,MacIntel,60,13252,,,,,0,85,85,97,1,,,,,,,,,,,,,,,,,,,,,,,,,,,,,,,,,,,
,,,,,,,,,,,,l,0.69014,Correct!,,,,,,t2.png,t5.png,3,0.0000131,19,female,2020-11-15_18h40.58.569,torte-q,2020.1.3,MacIntel,60,13252,,,,,0,86,86,95,1,,,,,,,,,,,,,,,,,,,,,,,,,,,,,,,,,,,
,,,,,,,,,,,,a,0.50035,Correct!,,,,,,t4.png,t3.png,1,0.909,19,female,2020-11-15_18h40.58.569,torte-q,2020.1.3,MacIntel,60,13252,,,,,0,87,87,46,1,,,,,,,,,,,,,,,,,,,,,,,,,,,,,,,,,,,
,,,,,,,,,,,,l,0.922535,Incorrect,,,,,,t3.png,t4.png,1,0.909,19,female,2020-11-15_18h40.58.569,torte-q,2020.1.3,MacIntel,60,13252,,,,,0,88,88,89,1,,,,,,,,,,,,,,,,,,,,,,,,,,,,,,,,,,,
,,,,,,,,,,,,a,0.506255,Correct!,,,,,,t3.png,t2.png,1,0.909,19,female,2020-11-15_18h40.58.569,torte-q,2020.1.3,MacIntel,60,13252,,,,,0,89,89,3,1,,,,,,,,,,,,,,,,,,,,,,,,,,,,,,,,,,,
,,,,,,,,,,,,l,1.03525,Incorrect,,,,,,t1.png,t2.png,1,0.9,19,female,2020-11-15_18h40.58.569,torte-q,2020.1.3,MacIntel,60,13252,,,,,0,90,90,1,1,,,,,,,,,,,,,,,,,,,,,,,,,,,,,,,,,,,
,,,,,,,,,,,,l,0.91849,Incorrect,,,,,,t3.png,t4.png,1,0.90855,19,female,2020-11-15_18h40.58.569,torte-q,2020.1.3,MacIntel,60,13252,,,,,0,91,91,84,1,,,,,,,,,,,,,,,,,,,,,,,,,,,,,,,,,,,
,,,,,,,,,,,,a,0.57847,Incorrect,,,,,,t4.png,t1.png,3,0.0000131,19,female,2020-11-15_18h40.58.569,torte-q,2020.1.3,MacIntel,60,13252,,,,,0,92,92,42,1,,,,,,,,,,,,,,,,,,,,,,,,,,,,,,,,,,,
,,,,,,,,,,,,a,0.487225,Incorrect,,,,,,t4.png,t1.png,3,0.0000131,19,female,2020-11-15_18h40.58.569,torte-q,2020.1.3,MacIntel,60,13252,,,,,0,93,93,61,1,,,,,,,,,,,,,,,,,,,,,,,,,,,,,,,,,,,
,,,,,,,,,,,,a,0.477895,Incorrect,,,,,,t3.png,t1.png,2,0.056466,19,female,2020-11-15_18h40.58.569,torte-q,2020.1.3,MacIntel,60,13252,,,,,0,94,94,0,1,,,,,,,,,,,,,,,,,,,,,,,,,,,,,,,,,,,
,,,,,,,,,,,,a,0.449475,Incorrect,,,,,,t4.png,t2.png,2,0.059078,19,female,2020-11-15_18h40.58.569,torte-q,2020.1.3,MacIntel,60,13252,,,,,0,95,95,88,1,,,,,,,,,,,,,,,,,,,,,,,,,,,,,,,,,,,
,,,,,,,,,,,,a,0.373265,Correct!,,,,,,t4.png,t4.png,0,0.98115,19,female,2020-11-15_18h40.58.569,torte-q,2020.1.3,MacIntel,60,13252,,,,,0,96,96,79,1,,,,,,,,,,,,,,,,,,,,,,,,,,,,,,,,,,,
,,,,,,,,,,,,l,0.78704,Correct!,,,,,,t2.png,t4.png,2,0.059078,19,female,2020-11-15_18h40.58.569,torte-q,2020.1.3,MacIntel,60,13252,,,,,0,97,97,24,1,,,,,,,,,,,,,,,,,,,,,,,,,,,,,,,,,,,
,,,,,,,,,,,,a,0.46807,Correct!,,,,,,t3.png,t2.png,1,0.90855,19,female,2020-11-15_18h40.58.569,torte-q,2020.1.3,MacIntel,60,13252,,,,,0,98,98,53,1,,,,,,,,,,,,,,,,,,,,,,,,,,,,,,,,,,,
,,,,,,,,,,,,a,0.50144,Correct!,,,,,,t5.png,t4.png,1,0.9,19,female,2020-11-15_18h40.58.569,torte-q,2020.1.3,MacIntel,60,13252,,,,,0,99,99,49,1,,,,,,,,,,,,,,,,,,,,,,,,,,,,,,,,,,,
,,,,,,,,,,,,l,1.1173,Correct!,,,,,,t3.png,t5.png,2,0.056466,19,female,2020-11-15_18h40.58.569,torte-q,2020.1.3,MacIntel,60,13252,,,,,0,100,100,6,1,,,,,,,,,,,,,,,,,,,,,,,,,,,,,,,,,,,
,,,,,,,,,,,,a,0.55446,Correct!,,,,,,t2.png,t1.png,1,0.9,19,female,2020-11-15_18h40.58.569,torte-q,2020.1.3,MacIntel,60,13252,,,,,0,101,101,118,1,,,,,,,,,,,,,,,,,,,,,,,,,,,,,,,,,,,
,,,,,,,,,,,,a,0.610935,Correct!,,,,,,t5.png,t5.png,0,0.97829,19,female,2020-11-15_18h40.58.569,torte-q,2020.1.3,MacIntel,60,13252,,,,,0,102,102,25,1,,,,,,,,,,,,,,,,,,,,,,,,,,,,,,,,,,,
,,,,,,,,,,,,a,0.458945,Correct!,,,,,,t4.png,t2.png,2,0.059078,19,female,2020-11-15_18h40.58.569,torte-q,2020.1.3,MacIntel,60,13252,,,,,0,103,103,110,1,,,,,,,,,,,,,,,,,,,,,,,,,,,,,,,,,,,
,,,,,,,,,,,,l,0.906965,Incorrect,,,,,,t2.png,t3.png,1,0.90855,19,female,2020-11-15_18h40.58.569,torte-q,2020.1.3,MacIntel,60,13252,,,,,0,104,104,65,1,,,,,,,,,,,,,,,,,,,,,,,,,,,,,,,,,,,
,,,,,,,,,,,,a,0.39821,Incorrect,,,,,,t5.png,t3.png,2,0.056466,19,female,2020-11-15_18h40.58.569,torte-q,2020.1.3,MacIntel,60,13252,,,,,0,105,105,114,1,,,,,,,,,,,,,,,,,,,,,,,,,,,,,,,,,,,
,,,,,,,,,,,,l,0.71583,Correct!,,,,,,t1.png,t5.png,4,9.55E-11,19,female,2020-11-15_18h40.58.569,torte-q,2020.1.3,MacIntel,60,13252,,,,,0,106,106,85,1,,,,,,,,,,,,,,,,,,,,,,,,,,,,,,,,,,,
,,,,,,,,,,,,l,0.933645,Incorrect,,,,,,t1.png,t2.png,1,0.90025,19,female,2020-11-15_18h40.58.569,torte-q,2020.1.3,MacIntel,60,13252,,,,,0,107,107,33,1,,,,,,,,,,,,,,,,,,,,,,,,,,,,,,,,,,,
,,,,,,,,,,,,l,0.503875,Correct!,,,,,,t1.png,t4.png,3,0.0000131,19,female,2020-11-15_18h40.58.569,torte-q,2020.1.3,MacIntel,60,13252,,,,,0,108,108,107,1,,,,,,,,,,,,,,,,,,,,,,,,,,,,,,,,,,,
,,,,,,,,,,,,l,0.858495,Incorrect,,,,,,t1.png,t2.png,1,0.90025,19,female,2020-11-15_18h40.58.569,torte-q,2020.1.3,MacIntel,60,13252,,,,,0,109,109,112,1,,,,,,,,,,,,,,,,,,,,,,,,,,,,,,,,,,,
,,,,,,,,,,,,l,0.654955,Incorrect,,,,,,t1.png,t2.png,1,0.90025,19,female,2020-11-15_18h40.58.569,torte-q,2020.1.3,MacIntel,60,13252,,,,,0,110,110,105,1,,,,,,,,,,,,,,,,,,,,,,,,,,,,,,,,,,,
,,,,,,,,,,,,l,0.5143,Incorrect,,,,,,t3.png,t5.png,2,0.056466,19,female,2020-11-15_18h40.58.569,torte-q,2020.1.3,MacIntel,60,13252,,,,,0,111,111,14,1,,,,,,,,,,,,,,,,,,,,,,,,,,,,,,,,,,,
,,,,,,,,,,,,l,0.556755,Correct!,,,,,,t2.png,t4.png,2,0.059078,19,female,2020-11-15_18h40.58.569,torte-q,2020.1.3,MacIntel,60,13252,,,,,0,112,112,77,1,,,,,,,,,,,,,,,,,,,,,,,,,,,,,,,,,,,
,,,,,,,,,,,,a,1.258255,Correct!,,,,,,t1.png,t1.png,0,0.978,19,female,2020-11-15_18h40.58.569,torte-q,2020.1.3,MacIntel,60,13252,,,,,0,113,113,28,1,,,,,,,,,,,,,,,,,,,,,,,,,,,,,,,,,,,
,,,,,,,,,,,,a,0.44851,Incorrect,,,,,,t4.png,t1.png,3,0.0000131,19,female,2020-11-15_18h40.58.569,torte-q,2020.1.3,MacIntel,60,13252,,,,,0,114,114,93,1,,,,,,,,,,,,,,,,,,,,,,,,,,,,,,,,,,,
,,,,,,,,,,,,a,0.490115,Incorrect,,,,,,t5.png,t2.png,3,0.0000131,19,female,2020-11-15_18h40.58.569,torte-q,2020.1.3,MacIntel,60,13252,,,,,0,115,115,51,1,,,,,,,,,,,,,,,,,,,,,,,,,,,,,,,,,,,
,,,,,,,,,,,,a,0.46817,Incorrect,,,,,,t1.png,t3.png,2,0.056466,19,female,2020-11-15_18h40.58.569,torte-q,2020.1.3,MacIntel,60,13252,,,,,0,116,116,63,1,,,,,,,,,,,,,,,,,,,,,,,,,,,,,,,,,,,
,,,,,,,,,,,,a,0.49744,Incorrect,,,,,,t5.png,t3.png,2,0.056466,19,female,2020-11-15_18h40.58.569,torte-q,2020.1.3,MacIntel,60,13252,,,,,0,117,117,108,1,,,,,,,,,,,,,,,,,,,,,,,,,,,,,,,,,,,
,,,,,,,,,,,,a,0.53401,Incorrect,,,,,,t5.png,t3.png,2,0.0565,19,female,2020-11-15_18h40.58.569,torte-q,2020.1.3,MacIntel,60,13252,,,,,0,118,118,39,1,,,,,,,,,,,,,,,,,,,,,,,,,,,,,,,,,,,
,,,,,,,,,,,,a,0.08457,Correct!,,,,,,t3.png,t5.png,2,0.056466,19,female,2020-11-15_18h40.58.569,torte-q,2020.1.3,MacIntel,60,13252,,,,,0,119,119,44,1,,,,,,,,,,,,,,,,,,,,,,,,,,,,,,,,,,,
,,,,,,,,,,,,l,1.21851,Incorrect,,,,,,t2.png,t3.png,1,0.90855,19,female,2020-11-15_18h40.58.569,torte-q,2020.1.3,MacIntel,60,13252,space,5.668505,,,,,,,,space,199.258245,space,2.599005,0,0,0,68,1,,,,,,,,,,,,,,,,,,,,,,,,,,
,,,,,,,,,,,,a,0.600725,Incorrect,,,,,,t5.png,t1.png,4,9.55E-11,19,female,2020-11-15_18h40.58.569,torte-q,2020.1.3,MacIntel,60,13252,,,,,,,,,,,,,,0,1,1,22,1,,,,,,,,,,,,,,,,,,,,,,,,,,
,,,,,,,,,,,,a,0.79008,Correct!,,,,,,t4.png,t3.png,1,0.909,19,female,2020-11-15_18h40.58.569,torte-q,2020.1.3,MacIntel,60,13252,,,,,,,,,,,,,,0,2,2,46,1,,,,,,,,,,,,,,,,,,,,,,,,,,
,,,,,,,,,,,,a,1.28149,Correct!,,,,,,t2.png,t2.png,0,0.98115,19,female,2020-11-15_18h40.58.569,torte-q,2020.1.3,MacIntel,60,13252,,,,,,,,,,,,,,0,3,3,57,1,,,,,,,,,,,,,,,,,,,,,,,,,,
,,,,,,,,,,,,l,0.8645,Correct!,,,,,,t1.png,t4.png,3,0.0000131,19,female,2020-11-15_18h40.58.569,torte-q,2020.1.3,MacIntel,60,13252,,,,,,,,,,,,,,0,4,4,92,1,,,,,,,,,,,,,,,,,,,,,,,,,,
,,,,,,,,,,,,a,0.468395,Incorrect,,,,,,t5.png,t3.png,2,0.056466,19,female,2020-11-15_18h40.58.569,torte-q,2020.1.3,MacIntel,60,13252,,,,,,,,,,,,,,0,5,5,38,1,,,,,,,,,,,,,,,,,,,,,,,,,,
,,,,,,,,,,,,a,0.516905,Incorrect,,,,,,t4.png,t1.png,3,0.0000131,19,female,2020-11-15_18h40.58.569,torte-q,2020.1.3,MacIntel,60,13252,,,,,,,,,,,,,,0,6,6,93,1,,,,,,,,,,,,,,,,,,,,,,,,,,
,,,,,,,,,,,,a,0.453505,Correct!,,,,,,t2.png,t1.png,1,0.90025,19,female,2020-11-15_18h40.58.569,torte-q,2020.1.3,MacIntel,60,13252,,,,,,,,,,,,,,0,7,7,62,1,,,,,,,,,,,,,,,,,,,,,,,,,,
,,,,,,,,,,,,a,0.8016,Correct!,,,,,,t4.png,t4.png,0,0.98115,19,female,2020-11-15_18h40.58.569,torte-q,2020.1.3,MacIntel,60,13252,,,,,,,,,,,,,,0,8,8,21,1,,,,,,,,,,,,,,,,,,,,,,,,,,
,,,,,,,,,,,,a,0.5657,Correct!,,,,,,t4.png,t3.png,1,0.909,19,female,2020-11-15_18h40.58.569,torte-q,2020.1.3,MacIntel,60,13252,,,,,,,,,,,,,,0,9,9,20,1,,,,,,,,,,,,,,,,,,,,,,,,,,
,,,,,,,,,,,,l,1.11133,Incorrect,,,,,,t2.png,t3.png,1,0.90855,19,female,2020-11-15_18h40.58.569,torte-q,2020.1.3,MacIntel,60,13252,,,,,,,,,,,,,,0,10,10,111,1,,,,,,,,,,,,,,,,,,,,,,,,,,
,,,,,,,,,,,,a,1.017405,Incorrect,,,,,,t5.png,t4.png,1,0.90025,19,female,2020-11-15_18h40.58.569,torte-q,2020.1.3,MacIntel,60,13252,,,,,,,,,,,,,,0,11,11,34,1,,,,,,,,,,,,,,,,,,,,,,,,,,
,,,,,,,,,,,,a,0.47252,Incorrect,,,,,,t5.png,t1.png,4,9.55E-11,19,female,2020-11-15_18h40.58.569,torte-q,2020.1.3,MacIntel,60,13252,,,,,,,,,,,,,,0,12,12,102,1,,,,,,,,,,,,,,,,,,,,,,,,,,
,,,,,,,,,,,,a,1.668975,Correct!,,,,,,t2.png,t2.png,0,0.98115,19,female,2020-11-15_18h40.58.569,torte-q,2020.1.3,MacIntel,60,13252,,,,,,,,,,,,,,0,13,13,2,1,,,,,,,,,,,,,,,,,,,,,,,,,,
,,,,,,,,,,,,a,1.116455,Incorrect,,,,,,t3.png,t1.png,2,0.0565,19,female,2020-11-15_18h40.58.569,torte-q,2020.1.3,MacIntel,60,13252,,,,,,,,,,,,,,0,14,14,31,1,,,,,,,,,,,,,,,,,,,,,,,,,,
,,,,,,,,,,,,l,1.41723,Incorrect,,,,,,t4.png,t5.png,1,0.90025,19,female,2020-11-15_18h40.58.569,torte-q,2020.1.3,MacIntel,60,13252,,,,,,,,,,,,,,0,15,15,47,1,,,,,,,,,,,,,,,,,,,,,,,,,,
,,,,,,,,,,,,a,0.485075,Incorrect,,,,,,t5.png,t1.png,4,9.55E-11,19,female,2020-11-15_18h40.58.569,torte-q,2020.1.3,MacIntel,60,13252,,,,,,,,,,,,,,0,16,16,71,1,,,,,,,,,,,,,,,,,,,,,,,,,,
,,,,,,,,,,,,l,0.805035,Incorrect,,,,,,t1.png,t2.png,1,0.90025,19,female,2020-11-15_18h40.58.569,torte-q,2020.1.3,MacIntel,60,13252,,,,,,,,,,,,,,0,17,17,33,1,,,,,,,,,,,,,,,,,,,,,,,,,,
,,,,,,,,,,,,a,0.63682,Correct!,,,,,,t2.png,t2.png,0,0.98115,19,female,2020-11-15_18h40.58.569,torte-q,2020.1.3,MacIntel,60,13252,,,,,,,,,,,,,,0,18,18,59,1,,,,,,,,,,,,,,,,,,,,,,,,,,
,,,,,,,,,,,,l,0.90184,Incorrect,,,,,,t1.png,t2.png,1,0.90025,19,female,2020-11-15_18h40.58.569,torte-q,2020.1.3,MacIntel,60,13252,,,,,,,,,,,,,,0,19,19,112,1,,,,,,,,,,,,,,,,,,,,,,,,,,
,,,,,,,,,,,,l,0.6178,Correct!,,,,,,t2.png,t5.png,3,0.0000131,19,female,2020-11-15_18h40.58.569,torte-q,2020.1.3,MacIntel,60,13252,,,,,,,,,,,,,,0,20,20,66,1,,,,,,,,,,,,,,,,,,,,,,,,,,
,,,,,,,,,,,,a,0.467255,Incorrect,,,,,,t5.png,t3.png,2,0.056466,19,female,2020-11-15_18h40.58.569,torte-q,2020.1.3,MacIntel,60,13252,,,,,,,,,,,,,,0,21,21,56,1,,,,,,,,,,,,,,,,,,,,,,,,,,
,,,,,,,,,,,,l,0.65223,Correct!,,,,,,t1.png,t5.png,4,9.55E-11,19,female,2020-11-15_18h40.58.569,torte-q,2020.1.3,MacIntel,60,13252,,,,,,,,,,,,,,0,22,22,85,1,,,,,,,,,,,,,,,,,,,,,,,,,,
,,,,,,,,,,,,a,0.683885,Correct!,,,,,,t4.png,t4.png,0,0.98115,19,female,2020-11-15_18h40.58.569,torte-q,2020.1.3,MacIntel,60,13252,,,,,,,,,,,,,,0,23,23,52,1,,,,,,,,,,,,,,,,,,,,,,,,,,
,,,,,,,,,,,,l,0.619815,Correct!,,,,,,t1.png,t4.png,3,0.0000131,19,female,2020-11-15_18h40.58.569,torte-q,2020.1.3,MacIntel,60,13252,,,,,,,,,,,,,,0,24,24,17,1,,,,,,,,,,,,,,,,,,,,,,,,,,
,,,,,,,,,,,,a,0.451615,Incorrect,,,,,,t5.png,t1.png,4,9.55E-11,19,female,2020-11-15_18h40.58.569,torte-q,2020.1.3,MacIntel,60,13252,,,,,,,,,,,,,,0,25,25,43,1,,,,,,,,,,,,,,,,,,,,,,,,,,
,,,,,,,,,,,,a,0.5498,Correct!,,,,,,t2.png,t1.png,1,0.90025,19,female,2020-11-15_18h40.58.569,torte-q,2020.1.3,MacIntel,60,13252,,,,,,,,,,,,,,0,26,26,5,1,,,,,,,,,,,,,,,,,,,,,,,,,,
,,,,,,,,,,,,a,0.583155,Correct!,,,,,,t5.png,t4.png,1,0.90025,19,female,2020-11-15_18h40.58.569,torte-q,2020.1.3,MacIntel,60,13252,,,,,,,,,,,,,,0,27,27,27,1,,,,,,,,,,,,,,,,,,,,,,,,,,
,,,,,,,,,,,,a,0.433625,Incorrect,,,,,,t5.png,t1.png,4,9.55E-11,19,female,2020-11-15_18h40.58.569,torte-q,2020.1.3,MacIntel,60,13252,,,,,,,,,,,,,,0,28,28,100,1,,,,,,,,,,,,,,,,,,,,,,,,,,
,,,,,,,,,,,,a,0.615825,Correct!,,,,,,t3.png,t2.png,1,0.909,19,female,2020-11-15_18h40.58.569,torte-q,2020.1.3,MacIntel,60,13252,,,,,,,,,,,,,,0,29,29,23,1,,,,,,,,,,,,,,,,,,,,,,,,,,
,,,,,,,,,,,,a,0.638905,Correct!,,,,,,t2.png,t1.png,1,0.9,19,female,2020-11-15_18h40.58.569,torte-q,2020.1.3,MacIntel,60,13252,,,,,,,,,,,,,,0,30,30,118,1,,,,,,,,,,,,,,,,,,,,,,,,,,
,,,,,,,,,,,,a,0.60032,Correct!,,,,,,t5.png,t5.png,0,0.97829,19,female,2020-11-15_18h40.58.569,torte-q,2020.1.3,MacIntel,60,13252,,,,,,,,,,,,,,0,31,31,25,1,,,,,,,,,,,,,,,,,,,,,,,,,,
,,,,,,,,,,,,a,0.47044,Correct!,,,,,,t2.png,t1.png,1,0.90025,19,female,2020-11-15_18h40.58.569,torte-q,2020.1.3,MacIntel,60,13252,,,,,,,,,,,,,,0,32,32,19,1,,,,,,,,,,,,,,,,,,,,,,,,,,
,,,,,,,,,,,,a,0.565335,Correct!,,,,,,t4.png,t4.png,0,0.98115,19,female,2020-11-15_18h40.58.569,torte-q,2020.1.3,MacIntel,60,13252,,,,,,,,,,,,,,0,33,33,90,1,,,,,,,,,,,,,,,,,,,,,,,,,,
,,,,,,,,,,,,a,0.50064,Correct!,,,,,,t3.png,t2.png,1,0.90855,19,female,2020-11-15_18h40.58.569,torte-q,2020.1.3,MacIntel,60,13252,,,,,,,,,,,,,,0,34,34,18,1,,,,,,,,,,,,,,,,,,,,,,,,,,
,,,,,,,,,,,,l,1.11695,Incorrect,,,,,,t3.png,t4.png,1,0.90855,19,female,2020-11-15_18h40.58.569,torte-q,2020.1.3,MacIntel,60,13252,,,,,,,,,,,,,,0,35,35,84,1,,,,,,,,,,,,,,,,,,,,,,,,,,
,,,,,,,,,,,,a,0.448995,Correct!,,,,,,t5.png,t4.png,1,0.9,19,female,2020-11-15_18h40.58.569,torte-q,2020.1.3,MacIntel,60,13252,,,,,,,,,,,,,,0,36,36,76,1,,,,,,,,,,,,,,,,,,,,,,,,,,
,,,,,,,,,,,,a,0.4906,Incorrect,,,,,,t4.png,t1.png,3,0.0000131,19,female,2020-11-15_18h40.58.569,torte-q,2020.1.3,MacIntel,60,13252,,,,,,,,,,,,,,0,37,37,61,1,,,,,,,,,,,,,,,,,,,,,,,,,,
,,,,,,,,,,,,l,0.853545,Correct!,,,,,,t1.png,t3.png,2,0.056466,19,female,2020-11-15_18h40.58.569,torte-q,2020.1.3,MacIntel,60,13252,,,,,,,,,,,,,,0,38,38,69,1,,,,,,,,,,,,,,,,,,,,,,,,,,
,,,,,,,,,,,,a,0.532855,Correct!,,,,,,t3.png,t2.png,1,0.90855,19,female,2020-11-15_18h40.58.569,torte-q,2020.1.3,MacIntel,60,13252,,,,,,,,,,,,,,0,39,39,97,1,,,,,,,,,,,,,,,,,,,,,,,,,,
,,,,,,,,,,,,l,0.606995,Correct!,,,,,,t2.png,t4.png,2,0.059078,19,female,2020-11-15_18h40.58.569,torte-q,2020.1.3,MacIntel,60,13252,,,,,,,,,,,,,,0,40,40,77,1,,,,,,,,,,,,,,,,,,,,,,,,,,
,,,,,,,,,,,,a,0.767175,Incorrect,,,,,,t5.png,t3.png,2,0.056466,19,female,2020-11-15_18h40.58.569,torte-q,2020.1.3,MacIntel,60,13252,,,,,,,,,,,,,,0,41,41,108,1,,,,,,,,,,,,,,,,,,,,,,,,,,
,,,,,,,,,,,,l,0.73392,Correct!,,,,,,t3.png,t5.png,2,0.0565,19,female,2020-11-15_18h40.58.569,torte-q,2020.1.3,MacIntel,60,13252,,,,,,,,,,,,,,0,42,42,83,1,,,,,,,,,,,,,,,,,,,,,,,,,,
,,,,,,,,,,,,a,1.30209,Correct!,,,,,,t1.png,t1.png,0,0.97829,19,female,2020-11-15_18h40.58.569,torte-q,2020.1.3,MacIntel,60,13252,,,,,,,,,,,,,,0,43,43,67,1,,,,,,,,,,,,,,,,,,,,,,,,,,
,,,,,,,,,,,,a,0.349175,Incorrect,,,,,,t4.png,t2.png,2,0.059078,19,female,2020-11-15_18h40.58.569,torte-q,2020.1.3,MacIntel,60,13252,,,,,,,,,,,,,,0,44,44,109,1,,,,,,,,,,,,,,,,,,,,,,,,,,
,,,,,,,,,,,,a,0.43425,Incorrect,,,,,,t4.png,t1.png,3,0.0000131,19,female,2020-11-15_18h40.58.569,torte-q,2020.1.3,MacIntel,60,13252,,,,,,,,,,,,,,0,45,45,13,1,,,,,,,,,,,,,,,,,,,,,,,,,,
,,,,,,,,,,,,a,0.68344,Correct!,,,,,,t1.png,t1.png,0,0.978,19,female,2020-11-15_18h40.58.569,torte-q,2020.1.3,MacIntel,60,13252,,,,,,,,,,,,,,0,46,46,54,1,,,,,,,,,,,,,,,,,,,,,,,,,,
,,,,,,,,,,,,l,0.70081,Correct!,,,,,,t1.png,t3.png,2,0.056466,19,female,2020-11-15_18h40.58.569,torte-q,2020.1.3,MacIntel,60,13252,,,,,,,,,,,,,,0,47,47,99,1,,,,,,,,,,,,,,,,,,,,,,,,,,
,,,,,,,,,,,,l,0.605825,Correct!,,,,,,t2.png,t4.png,2,0.059078,19,female,2020-11-15_18h40.58.569,torte-q,2020.1.3,MacIntel,60,13252,,,,,,,,,,,,,,0,48,48,24,1,,,,,,,,,,,,,,,,,,,,,,,,,,
,,,,,,,,,,,,l,0.639395,Incorrect,,,,,,t4.png,t5.png,1,0.90025,19,female,2020-11-15_18h40.58.569,torte-q,2020.1.3,MacIntel,60,13252,,,,,,,,,,,,,,0,49,49,58,1,,,,,,,,,,,,,,,,,,,,,,,,,,
,,,,,,,,,,,,a,0.78547,Correct!,,,,,,t2.png,t2.png,0,0.98115,19,female,2020-11-15_18h40.58.569,torte-q,2020.1.3,MacIntel,60,13252,,,,,,,,,,,,,,0,50,50,7,1,,,,,,,,,,,,,,,,,,,,,,,,,,
,,,,,,,,,,,,a,0.60479,Correct!,,,,,,t5.png,t4.png,1,0.9,19,female,2020-11-15_18h40.58.569,torte-q,2020.1.3,MacIntel,60,13252,,,,,,,,,,,,,,0,51,51,49,1,,,,,,,,,,,,,,,,,,,,,,,,,,
,,,,,,,,,,,,a,0.48398,Incorrect,,,,,,t4.png,t2.png,2,0.059078,19,female,2020-11-15_18h40.58.569,torte-q,2020.1.3,MacIntel,60,13252,,,,,,,,,,,,,,0,52,52,110,1,,,,,,,,,,,,,,,,,,,,,,,,,,
,,,,,,,,,,,,a,0.501045,Correct!,,,,,,t4.png,t3.png,1,0.90855,19,female,2020-11-15_18h40.58.569,torte-q,2020.1.3,MacIntel,60,13252,,,,,,,,,,,,,,0,53,53,45,1,,,,,,,,,,,,,,,,,,,,,,,,,,
,,,,,,,,,,,,a,0.44046,Correct!,,,,,,t4.png,t3.png,1,0.90855,19,female,2020-11-15_18h40.58.569,torte-q,2020.1.3,MacIntel,60,13252,,,,,,,,,,,,,,0,54,54,75,1,,,,,,,,,,,,,,,,,,,,,,,,,,
,,,,,,,,,,,,a,0.39147,Incorrect,,,,,,t4.png,t2.png,2,0.059078,19,female,2020-11-15_18h40.58.569,torte-q,2020.1.3,MacIntel,60,13252,,,,,,,,,,,,,,0,55,55,86,1,,,,,,,,,,,,,,,,,,,,,,,,,,
,,,,,,,,,,,,l,0.751375,Correct!,,,,,,t2.png,t5.png,3,0.0000131,19,female,2020-11-15_18h40.58.569,torte-q,2020.1.3,MacIntel,60,13252,,,,,,,,,,,,,,0,56,56,8,1,,,,,,,,,,,,,,,,,,,,,,,,,,
,,,,,,,,,,,,a,0.658365,Correct!,,,,,,t1.png,t1.png,0,0.97829,19,female,2020-11-15_18h40.58.569,torte-q,2020.1.3,MacIntel,60,13252,,,,,,,,,,,,,,0,57,57,9,1,,,,,,,,,,,,,,,,,,,,,,,,,,
,,,,,,,,,,,,l,0.64396,Correct!,,,,,,t1.png,t5.png,4,9.55E-11,19,female,2020-11-15_18h40.58.569,torte-q,2020.1.3,MacIntel,60,13252,,,,,,,,,,,,,,0,58,58,55,1,,,,,,,,,,,,,,,,,,,,,,,,,,
,,,,,,,,,,,,l,0.60639,Incorrect,,,,,,t3.png,t4.png,1,0.909,19,female,2020-11-15_18h40.58.569,torte-q,2020.1.3,MacIntel,60,13252,,,,,,,,,,,,,,0,59,59,82,1,,,,,,,,,,,,,,,,,,,,,,,,,,
,,,,,,,,,,,,a,0.49835,Incorrect,,,,,,t5.png,t2.png,3,0.0000131,19,female,2020-11-15_18h40.58.569,torte-q,2020.1.3,MacIntel,60,13252,,,,,,,,,,,,,,0,60,60,119,1,,,,,,,,,,,,,,,,,,,,,,,,,,
,,,,,,,,,,,,a,0.39363,Incorrect,,,,,,t5.png,t3.png,2,0.0565,19,female,2020-11-15_18h40.58.569,torte-q,2020.1.3,MacIntel,60,13252,,,,,,,,,,,,,,0,61,61,39,1,,,,,,,,,,,,,,,,,,,,,,,,,,
,,,,,,,,,,,,a,0.75734,Correct!,,,,,,t5.png,t4.png,1,0.90025,19,female,2020-11-15_18h40.58.569,torte-q,2020.1.3,MacIntel,60,13252,,,,,,,,,,,,,,0,62,62,26,1,,,,,,,,,,,,,,,,,,,,,,,,,,
,,,,,,,,,,,,l,0.66634,Correct!,,,,,,t1.png,t4.png,3,0.0000131,19,female,2020-11-15_18h40.58.569,torte-q,2020.1.3,MacIntel,60,13252,,,,,,,,,,,,,,0,63,63,50,1,,,,,,,,,,,,,,,,,,,,,,,,,,
,,,,,,,,,,,,a,0.489855,Correct!,,,,,,t3.png,t2.png,1,0.909,19,female,2020-11-15_18h40.58.569,torte-q,2020.1.3,MacIntel,60,13252,,,,,,,,,,,,,,0,64,64,3,1,,,,,,,,,,,,,,,,,,,,,,,,,,
,,,,,,,,,,,,a,0.497895,Incorrect,,,,,,t4.png,t1.png,3,0.0000131,19,female,2020-11-15_18h40.58.569,torte-q,2020.1.3,MacIntel,60,13252,,,,,,,,,,,,,,0,65,65,42,1,,,,,,,,,,,,,,,,,,,,,,,,,,
,,,,,,,,,,,,a,0.36332,Incorrect,,,,,,t5.png,t3.png,2,0.056466,19,female,2020-11-15_18h40.58.569,torte-q,2020.1.3,MacIntel,60,13252,,,,,,,,,,,,,,0,66,66,114,1,,,,,,,,,,,,,,,,,,,,,,,,,,
,,,,,,,,,,,,l,0.67313,Correct!,,,,,,t2.png,t5.png,3,0.0000131,19,female,2020-11-15_18h40.58.569,torte-q,2020.1.3,MacIntel,60,13252,,,,,,,,,,,,,,0,67,67,40,1,,,,,,,,,,,,,,,,,,,,,,,,,,
,,,,,,,,,,,,a,0.88276,Correct!,,,,,,t2.png,t2.png,0,0.981,19,female,2020-11-15_18h40.58.569,torte-q,2020.1.3,MacIntel,60,13252,,,,,,,,,,,,,,0,68,68,101,1,,,,,,,,,,,,,,,,,,,,,,,,,,
,,,,,,,,,,,,l,1.413805,Correct!,,,,,,t1.png,t3.png,2,0.056466,19,female,2020-11-15_18h40.58.569,torte-q,2020.1.3,MacIntel,60,13252,,,,,,,,,,,,,,0,69,69,87,1,,,,,,,,,,,,,,,,,,,,,,,,,,
,,,,,,,,,,,,l,0.557255,Correct!,,,,,,t2.png,t4.png,2,0.059078,19,female,2020-11-15_18h40.58.569,torte-q,2020.1.3,MacIntel,60,13252,,,,,,,,,,,,,,0,70,70,11,1,,,,,,,,,,,,,,,,,,,,,,,,,,
,,,,,,,,,,,,a,0.74944,Correct!,,,,,,t3.png,t2.png,1,0.90855,19,female,2020-11-15_18h40.58.569,torte-q,2020.1.3,MacIntel,60,13252,,,,,,,,,,,,,,0,71,71,53,1,,,,,,,,,,,,,,,,,,,,,,,,,,
,,,,,,,,,,,,a,0.432795,Incorrect,,,,,,t4.png,t1.png,3,0.0000131,19,female,2020-11-15_18h40.58.569,torte-q,2020.1.3,MacIntel,60,13252,,,,,,,,,,,,,,0,72,72,48,1,,,,,,,,,,,,,,,,,,,,,,,,,,
,,,,,,,,,,,,l,0.59122,Correct!,,,,,,t2.png,t5.png,3,0.0000131,19,female,2020-11-15_18h40.58.569,torte-q,2020.1.3,MacIntel,60,13252,,,,,,,,,,,,,,0,73,73,95,1,,,,,,,,,,,,,,,,,,,,,,,,,,
,,,,,,,,,,,,a,0.466745,Incorrect,,,,,,t5.png,t2.png,3,0.0000131,19,female,2020-11-15_18h40.58.569,torte-q,2020.1.3,MacIntel,60,13252,,,,,,,,,,,,,,0,74,74,116,1,,,,,,,,,,,,,,,,,,,,,,,,,,
,,,,,,,,,,,,l,0.468145,Correct!,,,,,,t4.png,t5.png,1,0.9,19,female,2020-11-15_18h40.58.569,torte-q,2020.1.3,MacIntel,60,13252,,,,,,,,,,,,,,0,75,75,115,1,,,,,,,,,,,,,,,,,,,,,,,,,,
,,,,,,,,,,,,a,0.40399,Incorrect,,,,,,t4.png,t2.png,2,0.059078,19,female,2020-11-15_18h40.58.569,torte-q,2020.1.3,MacIntel,60,13252,,,,,,,,,,,,,,0,76,76,88,1,,,,,,,,,,,,,,,,,,,,,,,,,,
,,,,,,,,,,,,l,0.42216,Correct!,,,,,,t1.png,t5.png,4,9.55E-11,19,female,2020-11-15_18h40.58.569,torte-q,2020.1.3,MacIntel,60,13252,,,,,,,,,,,,,,0,77,77,41,1,,,,,,,,,,,,,,,,,,,,,,,,,,
,,,,,,,,,,,,l,0.466665,Correct!,,,,,,t3.png,t5.png,2,0.056466,19,female,2020-11-15_18h40.58.569,torte-q,2020.1.3,MacIntel,60,13252,,,,,,,,,,,,,,0,78,78,14,1,,,,,,,,,,,,,,,,,,,,,,,,,,
,,,,,,,,,,,,l,0.59055,Incorrect,,,,,,t5.png,t5.png,0,0.97829,19,female,2020-11-15_18h40.58.569,torte-q,2020.1.3,MacIntel,60,13252,,,,,,,,,,,,,,0,79,79,94,1,,,,,,,,,,,,,,,,,,,,,,,,,,
,,,,,,,,,,,,l,0.46444,Correct!,,,,,,t1.png,t5.png,4,9.55E-11,19,female,2020-11-15_18h40.58.569,torte-q,2020.1.3,MacIntel,60,13252,,,,,,,,,,,,,,0,80,80,16,1,,,,,,,,,,,,,,,,,,,,,,,,,,
,,,,,,,,,,,,a,0.84168,Correct!,,,,,,t2.png,t3.png,1,0.909,19,female,2020-11-15_18h40.58.569,torte-q,2020.1.3,MacIntel,60,13252,,,,,,,,,,,,,,0,81,81,74,1,,,,,,,,,,,,,,,,,,,,,,,,,,
,,,,,,,,,,,,l,1.216725,Incorrect,,,,,,t2.png,t3.png,1,0.90855,19,female,2020-11-15_18h40.58.569,torte-q,2020.1.3,MacIntel,60,13252,,,,,,,,,,,,,,0,82,82,10,1,,,,,,,,,,,,,,,,,,,,,,,,,,
,,,,,,,,,,,,a,1.089795,Correct!,,,,,,t1.png,t1.png,0,0.97829,19,female,2020-11-15_18h40.58.569,torte-q,2020.1.3,MacIntel,60,13252,,,,,,,,,,,,,,0,83,83,78,1,,,,,,,,,,,,,,,,,,,,,,,,,,
,,,,,,,,,,,,l,0.826725,Correct!,,,,,,t1.png,t3.png,2,0.056466,19,female,2020-11-15_18h40.58.569,torte-q,2020.1.3,MacIntel,60,13252,,,,,,,,,,,,,,0,84,84,60,1,,,,,,,,,,,,,,,,,,,,,,,,,,
,,,,,,,,,,,,a,0.51418,Incorrect,,,,,,t3.png,t1.png,2,0.056466,19,female,2020-11-15_18h40.58.569,torte-q,2020.1.3,MacIntel,60,13252,,,,,,,,,,,,,,0,85,85,29,1,,,,,,,,,,,,,,,,,,,,,,,,,,
,,,,,,,,,,,,l,1.58766,Incorrect,,,,,,t1.png,t2.png,1,0.90025,19,female,2020-11-15_18h40.58.569,torte-q,2020.1.3,MacIntel,60,13252,,,,,,,,,,,,,,0,86,86,72,1,,,,,,,,,,,,,,,,,,,,,,,,,,
,,,,,,,,,,,,a,0.88357,Correct!,,,,,,t5.png,t5.png,0,0.97829,19,female,2020-11-15_18h40.58.569,torte-q,2020.1.3,MacIntel,60,13252,,,,,,,,,,,,,,0,87,87,73,1,,,,,,,,,,,,,,,,,,,,,,,,,,
,,,,,,,,,,,,a,0.7671,Correct!,,,,,,t2.png,t1.png,1,0.90025,19,female,2020-11-15_18h40.58.569,torte-q,2020.1.3,MacIntel,60,13252,,,,,,,,,,,,,,0,88,88,4,1,,,,,,,,,,,,,,,,,,,,,,,,,,
,,,,,,,,,,,,a,0.45067,Incorrect,,,,,,t3.png,t1.png,2,0.056466,19,female,2020-11-15_18h40.58.569,torte-q,2020.1.3,MacIntel,60,13252,,,,,,,,,,,,,,0,89,89,64,1,,,,,,,,,,,,,,,,,,,,,,,,,,
,,,,,,,,,,,,l,1.19997,Incorrect,,,,,,t3.png,t4.png,1,0.909,19,female,2020-11-15_18h40.58.569,torte-q,2020.1.3,MacIntel,60,13252,,,,,,,,,,,,,,0,90,90,89,1,,,,,,,,,,,,,,,,,,,,,,,,,,
,,,,,,,,,,,,l,0.402705,Correct!,,,,,,t1.png,t4.png,3,0.0000131,19,female,2020-11-15_18h40.58.569,torte-q,2020.1.3,MacIntel,60,13252,,,,,,,,,,,,,,0,91,91,81,1,,,,,,,,,,,,,,,,,,,,,,,,,,
,,,,,,,,,,,,l,0.516405,Correct!,,,,,,t3.png,t5.png,2,0.056466,19,female,2020-11-15_18h40.58.569,torte-q,2020.1.3,MacIntel,60,13252,,,,,,,,,,,,,,0,92,92,44,1,,,,,,,,,,,,,,,,,,,,,,,,,,
,,,,,,,,,,,,a,0.468095,Incorrect,,,,,,t5.png,t2.png,3,0.0000131,19,female,2020-11-15_18h40.58.569,torte-q,2020.1.3,MacIntel,60,13252,,,,,,,,,,,,,,0,93,93,51,1,,,,,,,,,,,,,,,,,,,,,,,,,,
,,,,,,,,,,,,a,1.06873,Correct!,,,,,,t4.png,t4.png,0,0.98115,19,female,2020-11-15_18h40.58.569,torte-q,2020.1.3,MacIntel,60,13252,,,,,,,,,,,,,,0,94,94,79,1,,,,,,,,,,,,,,,,,,,,,,,,,,
,,,,,,,,,,,,a,0.77713,Correct!,,,,,,t1.png,t2.png,1,0.9,19,female,2020-11-15_18h40.58.569,torte-q,2020.1.3,MacIntel,60,13252,,,,,,,,,,,,,,0,95,95,1,1,,,,,,,,,,,,,,,,,,,,,,,,,,
,,,,,,,,,,,,a,1.66825,Correct!,,,,,,t4.png,t4.png,0,0.98115,19,female,2020-11-15_18h40.58.569,torte-q,2020.1.3,MacIntel,60,13252,,,,,,,,,,,,,,0,96,96,80,1,,,,,,,,,,,,,,,,,,,,,,,,,,
,,,,,,,,,,,,a,1.22885,Incorrect,,,,,,t3.png,t1.png,2,0.056466,19,female,2020-11-15_18h40.58.569,torte-q,2020.1.3,MacIntel,60,13252,,,,,,,,,,,,,,0,97,97,32,1,,,,,,,,,,,,,,,,,,,,,,,,,,
,,,,,,,,,,,,l,1.763015,Incorrect,,,,,,t2.png,t3.png,1,0.90855,19,female,2020-11-15_18h40.58.569,torte-q,2020.1.3,MacIntel,60,13252,,,,,,,,,,,,,,0,98,98,65,1,,,,,,,,,,,,,,,,,,,,,,,,,,
,,,,,,,,,,,,a,0.689635,Correct!,,,,,,t5.png,t5.png,0,0.97829,19,female,2020-11-15_18h40.58.569,torte-q,2020.1.3,MacIntel,60,13252,,,,,,,,,,,,,,0,99,99,70,1,,,,,,,,,,,,,,,,,,,,,,,,,,
,,,,,,,,,,,,a,0.36635,Correct!,,,,,,t1.png,t2.png,1,0.90025,19,female,2020-11-15_18h40.58.569,torte-q,2020.1.3,MacIntel,60,13252,,,,,,,,,,,,,,0,100,100,105,1,,,,,,,,,,,,,,,,,,,,,,,,,,
,,,,,,,,,,,,a,0.584485,Incorrect,,,,,,t3.png,t1.png,2,0.056466,19,female,2020-11-15_18h40.58.569,torte-q,2020.1.3,MacIntel,60,13252,,,,,,,,,,,,,,0,101,101,0,1,,,,,,,,,,,,,,,,,,,,,,,,,,
,,,,,,,,,,,,l,1.13931,Correct!,,,,,,t1.png,t5.png,4,9.55E-11,19,female,2020-11-15_18h40.58.569,torte-q,2020.1.3,MacIntel,60,13252,,,,,,,,,,,,,,0,102,102,12,1,,,,,,,,,,,,,,,,,,,,,,,,,,
,,,,,,,,,,,,a,1.088825,Correct!,,,,,,t1.png,t1.png,0,0.978,19,female,2020-11-15_18h40.58.569,torte-q,2020.1.3,MacIntel,60,13252,,,,,,,,,,,,,,0,103,103,28,1,,,,,,,,,,,,,,,,,,,,,,,,,,
,,,,,,,,,,,,a,1.1084,Incorrect,,,,,,t5.png,t2.png,3,0.0000131,19,female,2020-11-15_18h40.58.569,torte-q,2020.1.3,MacIntel,60,13252,,,,,,,,,,,,,,0,104,104,98,1,,,,,,,,,,,,,,,,,,,,,,,,,,
,,,,,,,,,,,,a,1.069015,Incorrect,,,,,,t4.png,t3.png,1,0.90855,19,female,2020-11-15_18h40.58.569,torte-q,2020.1.3,MacIntel,60,13252,,,,,,,,,,,,,,0,105,105,35,1,,,,,,,,,,,,,,,,,,,,,,,,,,
,,,,,,,,,,,,l,0.775445,Correct!,,,,,,t3.png,t5.png,2,0.056466,19,female,2020-11-15_18h40.58.569,torte-q,2020.1.3,MacIntel,60,13252,,,,,,,,,,,,,,0,106,106,6,1,,,,,,,,,,,,,,,,,,,,,,,,,,
,,,,,,,,,,,,l,1.484805,Incorrect,,,,,,t3.png,t4.png,1,0.909,19,female,2020-11-15_18h40.58.569,torte-q,2020.1.3,MacIntel,60,13252,,,,,,,,,,,,,,0,107,107,106,1,,,,,,,,,,,,,,,,,,,,,,,,,,
,,,,,,,,,,,,l,1.23234,Correct!,,,,,,t2.png,t5.png,3,0.0000131,19,female,2020-11-15_18h40.58.569,torte-q,2020.1.3,MacIntel,60,13252,,,,,,,,,,,,,,0,108,108,104,1,,,,,,,,,,,,,,,,,,,,,,,,,,
,,,,,,,,,,,,l,0.699765,Correct!,,,,,,t2.png,t4.png,2,0.059078,19,female,2020-11-15_18h40.58.569,torte-q,2020.1.3,MacIntel,60,13252,,,,,,,,,,,,,,0,109,109,37,1,,,,,,,,,,,,,,,,,,,,,,,,,,
,,,,,,,,,,,,l,0.502695,Correct!,,,,,,t3.png,t5.png,2,0.0565,19,female,2020-11-15_18h40.58.569,torte-q,2020.1.3,MacIntel,60,13252,,,,,,,,,,,,,,0,110,110,30,1,,,,,,,,,,,,,,,,,,,,,,,,,,
,,,,,,,,,,,,l,0.654975,Incorrect,,,,,,t3.png,t4.png,1,0.90855,19,female,2020-11-15_18h40.58.569,torte-q,2020.1.3,MacIntel,60,13252,,,,,,,,,,,,,,0,111,111,96,1,,,,,,,,,,,,,,,,,,,,,,,,,,
,,,,,,,,,,,,l,0.607555,Correct!,,,,,,t1.png,t3.png,2,0.056466,19,female,2020-11-15_18h40.58.569,torte-q,2020.1.3,MacIntel,60,13252,,,,,,,,,,,,,,0,112,112,63,1,,,,,,,,,,,,,,,,,,,,,,,,,,
,,,,,,,,,,,,a,0.47415,Incorrect,,,,,,t5.png,t2.png,3,0.0000131,19,female,2020-11-15_18h40.58.569,torte-q,2020.1.3,MacIntel,60,13252,,,,,,,,,,,,,,0,113,113,91,1,,,,,,,,,,,,,,,,,,,,,,,,,,
,,,,,,,,,,,,a,0.67996,Correct!,,,,,,t5.png,t5.png,0,0.978,19,female,2020-11-15_18h40.58.569,torte-q,2020.1.3,MacIntel,60,13252,,,,,,,,,,,,,,0,114,114,117,1,,,,,,,,,,,,,,,,,,,,,,,,,,
,,,,,,,,,,,,l,0.52225,Correct!,,,,,,t1.png,t4.png,3,0.0000131,19,female,2020-11-15_18h40.58.569,torte-q,2020.1.3,MacIntel,60,13252,,,,,,,,,,,,,,0,115,115,107,1,,,,,,,,,,,,,,,,,,,,,,,,,,
,,,,,,,,,,,,l,0.4244,Correct!,,,,,,t2.png,t4.png,2,0.0591,19,female,2020-11-15_18h40.58.569,torte-q,2020.1.3,MacIntel,60,13252,,,,,,,,,,,,,,0,116,116,15,1,,,,,,,,,,,,,,,,,,,,,,,,,,
,,,,,,,,,,,,l,0.748965,Incorrect,,,,,,t4.png,t5.png,1,0.90025,19,female,2020-11-15_18h40.58.569,torte-q,2020.1.3,MacIntel,60,13252,,,,,,,,,,,,,,0,117,117,113,1,,,,,,,,,,,,,,,,,,,,,,,,,,
,,,,,,,,,,,,a,0.615845,Correct!,,,,,,t4.png,t2.png,2,0.0591,19,female,2020-11-15_18h40.58.569,torte-q,2020.1.3,MacIntel,60,13252,,,,,,,,,,,,,,0,118,118,36,1,,,,,,,,,,,,,,,,,,,,,,,,,,
,,,,,,,,,,,,l,1.299595,Incorrect,,,,,,t4.png,t5.png,1,0.90025,19,female,2020-11-15_18h40.58.569,torte-q,2020.1.3,MacIntel,60,13252,,,,,,,,,,,,,,0,119,119,103,1,,,,,,,,,,,,,,,,,,,,,,,,,,
,,,,,,,,,,,,,,,,,,,,,,,,19,female,2020-11-15_18h40.58.569,torte-q,2020.1.3,MacIntel,60,13252,space,1.89762,,,,,,,,,,,,,,,,,5.030166016,4.61715,13.7890625,62.90625,1,0,0,s3,14.3046875,90.9765625,1,0,0,t1,158.6953125,-82.171875,1,0,0,proceed,space,6.390975,space,6.4371,space,0.050385
