key_resp_8.keys,key_resp_8.rt,key_resp_9.keys,key_resp_9.rt,key_resp_10.keys,key_resp_10.rt,key_resp_11.keys,key_resp_11.rt,key_resp_2.keys,key_resp_2.rt,key_resp_3.keys,key_resp_3.rt,key_resp.keys,Feedback,train.thisRepN,train.thisTrialN,train.thisN,train.thisIndex,train.ran,torta_sx,torta_dx,difference,probability,age,gender,date,expName,psychopyVersion,OS,frameRate,participant,key_resp.rt,key_resp_15.keys,key_resp_15.rt,key_resp_6.keys,key_resp_6.rt,test1.thisRepN,test1.thisTrialN,test1.thisN,test1.thisIndex,test1.ran,key_resp_16.keys,key_resp_16.rt,key_resp_7.keys,key_resp_7.rt,test2.thisRepN,test2.thisTrialN,test2.thisN,test2.thisIndex,test2.ran,rating.response,rating.rt,mouse.x,mouse.y,mouse.leftButton,mouse.midButton,mouse.rightButton,mouse.clicked_name,mouse_2.x,mouse_2.y,mouse_2.leftButton,mouse_2.midButton,mouse_2.rightButton,mouse_2.clicked_name,mouse_3.x,mouse_3.y,mouse_3.leftButton,mouse_3.midButton,mouse_3.rightButton,mouse_3.clicked_name,key_resp_12.keys,key_resp_12.rt,key_resp_13.keys,key_resp_13.rt,key_resp_14.keys,key_resp_14.rt
space,1.08903,space,0.001325,space,0.04593,space,0.461605,space,4.118,space,0.74118,,Too slow :(,0,0,0,43,1,t4.png,t2.png,2,0.059078,20,Female,2020-11-15_17h29.18.943,torte-q,2020.1.3,MacIntel,60,13281,,,,,,,,,,,,,,,,,,,,,,,,,,,,,,,,,,,,,,,,,,,,,
,,,,,,,,,,,,l,Incorrect,0,1,1,77,1,t1.png,t1.png,0,0.97829,20,Female,2020-11-15_17h29.18.943,torte-q,2020.1.3,MacIntel,60,13281,0.221105,,,,,,,,,,,,,,,,,,,,,,,,,,,,,,,,,,,,,,,,,,,,
,,,,,,,,,,,,l,Incorrect,0,2,2,64,1,t1.png,t1.png,0,0.978,20,Female,2020-11-15_17h29.18.943,torte-q,2020.1.3,MacIntel,60,13281,1.38453,,,,,,,,,,,,,,,,,,,,,,,,,,,,,,,,,,,,,,,,,,,,
,,,,,,,,,,,,,Too slow :(,0,3,3,32,1,t4.png,t5.png,1,0.90025,20,Female,2020-11-15_17h29.18.943,torte-q,2020.1.3,MacIntel,60,13281,,,,,,,,,,,,,,,,,,,,,,,,,,,,,,,,,,,,,,,,,,,,,
,,,,,,,,,,,,,Too slow :(,0,4,4,50,1,t5.png,t1.png,4,9.55E-11,20,Female,2020-11-15_17h29.18.943,torte-q,2020.1.3,MacIntel,60,13281,,,,,,,,,,,,,,,,,,,,,,,,,,,,,,,,,,,,,,,,,,,,,
,,,,,,,,,,,,l,Incorrect,0,5,5,45,1,t3.png,t2.png,1,0.90855,20,Female,2020-11-15_17h29.18.943,torte-q,2020.1.3,MacIntel,60,13281,0.540975,,,,,,,,,,,,,,,,,,,,,,,,,,,,,,,,,,,,,,,,,,,,
,,,,,,,,,,,,,Too slow :(,0,6,6,16,1,t5.png,t4.png,1,0.9,20,Female,2020-11-15_17h29.18.943,torte-q,2020.1.3,MacIntel,60,13281,,,,,,,,,,,,,,,,,,,,,,,,,,,,,,,,,,,,,,,,,,,,,
,,,,,,,,,,,,a,Incorrect,0,7,7,54,1,t1.png,t5.png,4,9.55E-11,20,Female,2020-11-15_17h29.18.943,torte-q,2020.1.3,MacIntel,60,13281,0.75597,,,,,,,,,,,,,,,,,,,,,,,,,,,,,,,,,,,,,,,,,,,,
,,,,,,,,,,,,a,Correct!,0,8,8,66,1,t4.png,t5.png,1,0.9,20,Female,2020-11-15_17h29.18.943,torte-q,2020.1.3,MacIntel,60,13281,1.616425,,,,,,,,,,,,,,,,,,,,,,,,,,,,,,,,,,,,,,,,,,,,
,,,,,,,,,,,,l,Incorrect,0,9,9,46,1,t4.png,t2.png,2,0.059078,20,Female,2020-11-15_17h29.18.943,torte-q,2020.1.3,MacIntel,60,13281,2.374445,,,,,,,,,,,,,,,,,,,,,,,,,,,,,,,,,,,,,,,,,,,,
,,,,,,,,,,,,a,Incorrect,0,10,10,87,1,t5.png,t1.png,4,9.55E-11,20,Female,2020-11-15_17h29.18.943,torte-q,2020.1.3,MacIntel,60,13281,1.39776,,,,,,,,,,,,,,,,,,,,,,,,,,,,,,,,,,,,,,,,,,,,
,,,,,,,,,,,,a,Incorrect,0,11,11,82,1,t5.png,t1.png,4,9.55E-11,20,Female,2020-11-15_17h29.18.943,torte-q,2020.1.3,MacIntel,60,13281,0.7985,,,,,,,,,,,,,,,,,,,,,,,,,,,,,,,,,,,,,,,,,,,,
,,,,,,,,,,,,l,Incorrect,0,12,12,62,1,t5.png,t5.png,0,0.978,20,Female,2020-11-15_17h29.18.943,torte-q,2020.1.3,MacIntel,60,13281,0.589465,,,,,,,,,,,,,,,,,,,,,,,,,,,,,,,,,,,,,,,,,,,,
,,,,,,,,,,,,,Too slow :(,0,13,13,25,1,t5.png,t5.png,0,0.97829,20,Female,2020-11-15_17h29.18.943,torte-q,2020.1.3,MacIntel,60,13281,,,,,,,,,,,,,,,,,,,,,,,,,,,,,,,,,,,,,,,,,,,,,
,,,,,,,,,,,,l,Incorrect,0,14,14,8,1,t3.png,t2.png,1,0.90855,20,Female,2020-11-15_17h29.18.943,torte-q,2020.1.3,MacIntel,60,13281,1.68839,,,,,,,,,,,,,,,,,,,,,,,,,,,,,,,,,,,,,,,,,,,,
,,,,,,,,,,,,a,Correct!,0,15,15,41,1,t3.png,t2.png,1,0.90855,20,Female,2020-11-15_17h29.18.943,torte-q,2020.1.3,MacIntel,60,13281,1.49962,,,,,,,,,,,,,,,,,,,,,,,,,,,,,,,,,,,,,,,,,,,,
,,,,,,,,,,,,a,Correct!,0,16,16,59,1,t5.png,t4.png,1,0.9,20,Female,2020-11-15_17h29.18.943,torte-q,2020.1.3,MacIntel,60,13281,1.204905,,,,,,,,,,,,,,,,,,,,,,,,,,,,,,,,,,,,,,,,,,,,
,,,,,,,,,,,,a,Incorrect,0,17,17,111,1,t5.png,t1.png,4,9.55E-11,20,Female,2020-11-15_17h29.18.943,torte-q,2020.1.3,MacIntel,60,13281,0.83596,,,,,,,,,,,,,,,,,,,,,,,,,,,,,,,,,,,,,,,,,,,,
,,,,,,,,,,,,,Too slow :(,0,18,18,92,1,t2.png,t3.png,1,0.909,20,Female,2020-11-15_17h29.18.943,torte-q,2020.1.3,MacIntel,60,13281,,,,,,,,,,,,,,,,,,,,,,,,,,,,,,,,,,,,,,,,,,,,,
,,,,,,,,,,,,l,Correct!,0,19,19,1,1,t2.png,t4.png,2,0.059078,20,Female,2020-11-15_17h29.18.943,torte-q,2020.1.3,MacIntel,60,13281,0.581875,,,,,,,,,,,,,,,,,,,,,,,,,,,,,,,,,,,,,,,,,,,,
,,,,,,,,,,,,a,Incorrect,0,20,20,65,1,t4.png,t5.png,1,0.90025,20,Female,2020-11-15_17h29.18.943,torte-q,2020.1.3,MacIntel,60,13281,0.36796,,,,,,,,,,,,,,,,,,,,,,,,,,,,,,,,,,,,,,,,,,,,
,,,,,,,,,,,,a,Incorrect,0,21,21,37,1,t1.png,t4.png,3,0.0000131,20,Female,2020-11-15_17h29.18.943,torte-q,2020.1.3,MacIntel,60,13281,0.332455,,,,,,,,,,,,,,,,,,,,,,,,,,,,,,,,,,,,,,,,,,,,
,,,,,,,,,,,,l,Incorrect,0,22,22,110,1,t4.png,t5.png,1,0.90025,20,Female,2020-11-15_17h29.18.943,torte-q,2020.1.3,MacIntel,60,13281,0.270995,,,,,,,,,,,,,,,,,,,,,,,,,,,,,,,,,,,,,,,,,,,,
,,,,,,,,,,,,a,Correct!,0,23,23,29,1,t5.png,t5.png,0,0.97829,20,Female,2020-11-15_17h29.18.943,torte-q,2020.1.3,MacIntel,60,13281,0.345225,,,,,,,,,,,,,,,,,,,,,,,,,,,,,,,,,,,,,,,,,,,,
,,,,,,,,,,,,l,Correct!,0,24,24,0,1,t5.png,t1.png,4,9.55E-11,20,Female,2020-11-15_17h29.18.943,torte-q,2020.1.3,MacIntel,60,13281,0.36528,,,,,,,,,,,,,,,,,,,,,,,,,,,,,,,,,,,,,,,,,,,,
,,,,,,,,,,,,a,Correct!,0,25,25,13,1,t5.png,t5.png,0,0.97829,20,Female,2020-11-15_17h29.18.943,torte-q,2020.1.3,MacIntel,60,13281,0.824435,,,,,,,,,,,,,,,,,,,,,,,,,,,,,,,,,,,,,,,,,,,,
,,,,,,,,,,,,a,Incorrect,0,26,26,68,1,t1.png,t4.png,3,0.0000131,20,Female,2020-11-15_17h29.18.943,torte-q,2020.1.3,MacIntel,60,13281,0.485115,,,,,,,,,,,,,,,,,,,,,,,,,,,,,,,,,,,,,,,,,,,,
,,,,,,,,,,,,a,Correct!,0,27,27,39,1,t3.png,t2.png,1,0.90855,20,Female,2020-11-15_17h29.18.943,torte-q,2020.1.3,MacIntel,60,13281,0.40015,,,,,,,,,,,,,,,,,,,,,,,,,,,,,,,,,,,,,,,,,,,,
,,,,,,,,,,,,a,Incorrect,0,28,28,119,1,t1.png,t5.png,4,9.55E-11,20,Female,2020-11-15_17h29.18.943,torte-q,2020.1.3,MacIntel,60,13281,0.43364,,,,,,,,,,,,,,,,,,,,,,,,,,,,,,,,,,,,,,,,,,,,
,,,,,,,,,,,,l,Correct!,0,29,29,30,1,t3.png,t1.png,2,0.056466,20,Female,2020-11-15_17h29.18.943,torte-q,2020.1.3,MacIntel,60,13281,0.223955,,,,,,,,,,,,,,,,,,,,,,,,,,,,,,,,,,,,,,,,,,,,
,,,,,,,,,,,,l,Incorrect,0,30,30,22,1,t2.png,t3.png,1,0.90855,20,Female,2020-11-15_17h29.18.943,torte-q,2020.1.3,MacIntel,60,13281,0.271845,,,,,,,,,,,,,,,,,,,,,,,,,,,,,,,,,,,,,,,,,,,,
,,,,,,,,,,,,a,Correct!,0,31,31,15,1,t3.png,t2.png,1,0.90855,20,Female,2020-11-15_17h29.18.943,torte-q,2020.1.3,MacIntel,60,13281,0.48591,,,,,,,,,,,,,,,,,,,,,,,,,,,,,,,,,,,,,,,,,,,,
,,,,,,,,,,,,l,Incorrect,0,32,32,105,1,t3.png,t2.png,1,0.90855,20,Female,2020-11-15_17h29.18.943,torte-q,2020.1.3,MacIntel,60,13281,0.47399,,,,,,,,,,,,,,,,,,,,,,,,,,,,,,,,,,,,,,,,,,,,
,,,,,,,,,,,,l,Incorrect,0,33,33,95,1,t1.png,t1.png,0,0.978,20,Female,2020-11-15_17h29.18.943,torte-q,2020.1.3,MacIntel,60,13281,0.24833,,,,,,,,,,,,,,,,,,,,,,,,,,,,,,,,,,,,,,,,,,,,
,,,,,,,,,,,,a,Incorrect,0,34,34,86,1,t3.png,t1.png,2,0.056466,20,Female,2020-11-15_17h29.18.943,torte-q,2020.1.3,MacIntel,60,13281,0.623345,,,,,,,,,,,,,,,,,,,,,,,,,,,,,,,,,,,,,,,,,,,,
,,,,,,,,,,,,a,Correct!,0,35,35,28,1,t2.png,t3.png,1,0.909,20,Female,2020-11-15_17h29.18.943,torte-q,2020.1.3,MacIntel,60,13281,0.697915,,,,,,,,,,,,,,,,,,,,,,,,,,,,,,,,,,,,,,,,,,,,
,,,,,,,,,,,,l,Incorrect,0,36,36,71,1,t5.png,t5.png,0,0.97829,20,Female,2020-11-15_17h29.18.943,torte-q,2020.1.3,MacIntel,60,13281,1.28827,,,,,,,,,,,,,,,,,,,,,,,,,,,,,,,,,,,,,,,,,,,,
,,,,,,,,,,,,l,Incorrect,0,37,37,116,1,t5.png,t4.png,1,0.90025,20,Female,2020-11-15_17h29.18.943,torte-q,2020.1.3,MacIntel,60,13281,0.42618,,,,,,,,,,,,,,,,,,,,,,,,,,,,,,,,,,,,,,,,,,,,
,,,,,,,,,,,,a,Incorrect,0,38,38,61,1,t1.png,t4.png,3,0.0000131,20,Female,2020-11-15_17h29.18.943,torte-q,2020.1.3,MacIntel,60,13281,0.968045,,,,,,,,,,,,,,,,,,,,,,,,,,,,,,,,,,,,,,,,,,,,
,,,,,,,,,,,,a,Incorrect,0,39,39,26,1,t4.png,t2.png,2,0.0591,20,Female,2020-11-15_17h29.18.943,torte-q,2020.1.3,MacIntel,60,13281,0.512475,,,,,,,,,,,,,,,,,,,,,,,,,,,,,,,,,,,,,,,,,,,,
,,,,,,,,,,,,a,Correct!,0,40,40,85,1,t3.png,t2.png,1,0.90855,20,Female,2020-11-15_17h29.18.943,torte-q,2020.1.3,MacIntel,60,13281,0.40551,,,,,,,,,,,,,,,,,,,,,,,,,,,,,,,,,,,,,,,,,,,,
,,,,,,,,,,,,l,Incorrect,0,41,41,18,1,t4.png,t5.png,1,0.90025,20,Female,2020-11-15_17h29.18.943,torte-q,2020.1.3,MacIntel,60,13281,0.4888,,,,,,,,,,,,,,,,,,,,,,,,,,,,,,,,,,,,,,,,,,,,
,,,,,,,,,,,,a,Incorrect,0,42,42,117,1,t1.png,t5.png,4,9.55E-11,20,Female,2020-11-15_17h29.18.943,torte-q,2020.1.3,MacIntel,60,13281,0.88205,,,,,,,,,,,,,,,,,,,,,,,,,,,,,,,,,,,,,,,,,,,,
,,,,,,,,,,,,l,Incorrect,0,43,43,63,1,t2.png,t3.png,1,0.909,20,Female,2020-11-15_17h29.18.943,torte-q,2020.1.3,MacIntel,60,13281,0.424025,,,,,,,,,,,,,,,,,,,,,,,,,,,,,,,,,,,,,,,,,,,,
,,,,,,,,,,,,a,Incorrect,0,44,44,67,1,t1.png,t5.png,4,9.55E-11,20,Female,2020-11-15_17h29.18.943,torte-q,2020.1.3,MacIntel,60,13281,0.79046,,,,,,,,,,,,,,,,,,,,,,,,,,,,,,,,,,,,,,,,,,,,
,,,,,,,,,,,,,Too slow :(,0,45,45,40,1,t1.png,t5.png,4,9.55E-11,20,Female,2020-11-15_17h29.18.943,torte-q,2020.1.3,MacIntel,60,13281,,,,,,,,,,,,,,,,,,,,,,,,,,,,,,,,,,,,,,,,,,,,,
,,,,,,,,,,,,l,Incorrect,0,46,46,9,1,t4.png,t5.png,1,0.9,20,Female,2020-11-15_17h29.18.943,torte-q,2020.1.3,MacIntel,60,13281,0.488525,,,,,,,,,,,,,,,,,,,,,,,,,,,,,,,,,,,,,,,,,,,,
,,,,,,,,,,,,l,Correct!,0,47,47,90,1,t1.png,t5.png,4,9.55E-11,20,Female,2020-11-15_17h29.18.943,torte-q,2020.1.3,MacIntel,60,13281,1.319625,,,,,,,,,,,,,,,,,,,,,,,,,,,,,,,,,,,,,,,,,,,,
,,,,,,,,,,,,,Too slow :(,0,48,48,104,1,t2.png,t3.png,1,0.90855,20,Female,2020-11-15_17h29.18.943,torte-q,2020.1.3,MacIntel,60,13281,,,,,,,,,,,,,,,,,,,,,,,,,,,,,,,,,,,,,,,,,,,,,
,,,,,,,,,,,,l,Incorrect,0,49,49,76,1,t3.png,t2.png,1,0.90855,20,Female,2020-11-15_17h29.18.943,torte-q,2020.1.3,MacIntel,60,13281,0.34637,,,,,,,,,,,,,,,,,,,,,,,,,,,,,,,,,,,,,,,,,,,,
,,,,,,,,,,,,l,Incorrect,0,50,50,58,1,t5.png,t4.png,1,0.90025,20,Female,2020-11-15_17h29.18.943,torte-q,2020.1.3,MacIntel,60,13281,0.501,,,,,,,,,,,,,,,,,,,,,,,,,,,,,,,,,,,,,,,,,,,,
,,,,,,,,,,,,l,Correct!,0,51,51,47,1,t4.png,t2.png,2,0.059078,20,Female,2020-11-15_17h29.18.943,torte-q,2020.1.3,MacIntel,60,13281,0.443415,,,,,,,,,,,,,,,,,,,,,,,,,,,,,,,,,,,,,,,,,,,,
,,,,,,,,,,,,a,Correct!,0,52,52,112,1,t1.png,t1.png,0,0.97829,20,Female,2020-11-15_17h29.18.943,torte-q,2020.1.3,MacIntel,60,13281,0.45301,,,,,,,,,,,,,,,,,,,,,,,,,,,,,,,,,,,,,,,,,,,,
,,,,,,,,,,,,a,Incorrect,0,53,53,31,1,t1.png,t5.png,4,9.55E-11,20,Female,2020-11-15_17h29.18.943,torte-q,2020.1.3,MacIntel,60,13281,0.48717,,,,,,,,,,,,,,,,,,,,,,,,,,,,,,,,,,,,,,,,,,,,
,,,,,,,,,,,,,Too slow :(,0,54,54,97,1,t5.png,t5.png,0,0.97829,20,Female,2020-11-15_17h29.18.943,torte-q,2020.1.3,MacIntel,60,13281,,,,,,,,,,,,,,,,,,,,,,,,,,,,,,,,,,,,,,,,,,,,,
,,,,,,,,,,,,l,Incorrect,0,55,55,48,1,t5.png,t5.png,0,0.97829,20,Female,2020-11-15_17h29.18.943,torte-q,2020.1.3,MacIntel,60,13281,0.60661,,,,,,,,,,,,,,,,,,,,,,,,,,,,,,,,,,,,,,,,,,,,
,,,,,,,,,,,,l,Incorrect,0,56,56,106,1,t2.png,t3.png,1,0.90855,20,Female,2020-11-15_17h29.18.943,torte-q,2020.1.3,MacIntel,60,13281,1.3899,,,,,,,,,,,,,,,,,,,,,,,,,,,,,,,,,,,,,,,,,,,,
,,,,,,,,,,,,a,Incorrect,0,57,57,93,1,t2.png,t4.png,2,0.059078,20,Female,2020-11-15_17h29.18.943,torte-q,2020.1.3,MacIntel,60,13281,0.94917,,,,,,,,,,,,,,,,,,,,,,,,,,,,,,,,,,,,,,,,,,,,
,,,,,,,,,,,,a,Incorrect,0,58,58,72,1,t4.png,t2.png,2,0.059078,20,Female,2020-11-15_17h29.18.943,torte-q,2020.1.3,MacIntel,60,13281,0.1944,,,,,,,,,,,,,,,,,,,,,,,,,,,,,,,,,,,,,,,,,,,,
,,,,,,,,,,,,a,Incorrect,0,59,59,88,1,t3.png,t1.png,2,0.056466,20,Female,2020-11-15_17h29.18.943,torte-q,2020.1.3,MacIntel,60,13281,0.05711,,,,,,,,,,,,,,,,,,,,,,,,,,,,,,,,,,,,,,,,,,,,
,,,,,,,,,,,,a,Incorrect,0,60,60,5,1,t2.png,t4.png,2,0.059078,20,Female,2020-11-15_17h29.18.943,torte-q,2020.1.3,MacIntel,60,13281,0.41031,,,,,,,,,,,,,,,,,,,,,,,,,,,,,,,,,,,,,,,,,,,,
,,,,,,,,,,,,l,Incorrect,0,61,61,21,1,t5.png,t4.png,1,0.90025,20,Female,2020-11-15_17h29.18.943,torte-q,2020.1.3,MacIntel,60,13281,0.115935,,,,,,,,,,,,,,,,,,,,,,,,,,,,,,,,,,,,,,,,,,,,
,,,,,,,,,,,,a,Incorrect,0,62,62,57,1,t2.png,t4.png,2,0.059078,20,Female,2020-11-15_17h29.18.943,torte-q,2020.1.3,MacIntel,60,13281,0.38388,,,,,,,,,,,,,,,,,,,,,,,,,,,,,,,,,,,,,,,,,,,,
,,,,,,,,,,,,l,Incorrect,0,63,63,74,1,t5.png,t4.png,1,0.9,20,Female,2020-11-15_17h29.18.943,torte-q,2020.1.3,MacIntel,60,13281,0.11777,,,,,,,,,,,,,,,,,,,,,,,,,,,,,,,,,,,,,,,,,,,,
,,,,,,,,,,,,a,Incorrect,0,64,64,12,1,t5.png,t1.png,4,9.55E-11,20,Female,2020-11-15_17h29.18.943,torte-q,2020.1.3,MacIntel,60,13281,0.349325,,,,,,,,,,,,,,,,,,,,,,,,,,,,,,,,,,,,,,,,,,,,
,,,,,,,,,,,,a,Incorrect,0,65,65,24,1,t4.png,t2.png,2,0.059078,20,Female,2020-11-15_17h29.18.943,torte-q,2020.1.3,MacIntel,60,13281,1.634095,,,,,,,,,,,,,,,,,,,,,,,,,,,,,,,,,,,,,,,,,,,,
,,,,,,,,,,,,l,Incorrect,0,66,66,81,1,t1.png,t1.png,0,0.97829,20,Female,2020-11-15_17h29.18.943,torte-q,2020.1.3,MacIntel,60,13281,0.387085,,,,,,,,,,,,,,,,,,,,,,,,,,,,,,,,,,,,,,,,,,,,
,,,,,,,,,,,,l,Incorrect,0,67,67,44,1,t2.png,t3.png,1,0.909,20,Female,2020-11-15_17h29.18.943,torte-q,2020.1.3,MacIntel,60,13281,0.034425,,,,,,,,,,,,,,,,,,,,,,,,,,,,,,,,,,,,,,,,,,,,
,,,,,,,,,,,,a,Correct!,0,68,68,101,1,t4.png,t5.png,1,0.90025,20,Female,2020-11-15_17h29.18.943,torte-q,2020.1.3,MacIntel,60,13281,0.52295,,,,,,,,,,,,,,,,,,,,,,,,,,,,,,,,,,,,,,,,,,,,
,,,,,,,,,,,,,Too slow :(,0,69,69,17,1,t1.png,t4.png,3,0.0000131,20,Female,2020-11-15_17h29.18.943,torte-q,2020.1.3,MacIntel,60,13281,,,,,,,,,,,,,,,,,,,,,,,,,,,,,,,,,,,,,,,,,,,,,
,,,,,,,,,,,,,Too slow :(,0,70,70,14,1,t2.png,t4.png,2,0.059078,20,Female,2020-11-15_17h29.18.943,torte-q,2020.1.3,MacIntel,60,13281,,,,,,,,,,,,,,,,,,,,,,,,,,,,,,,,,,,,,,,,,,,,,
,,,,,,,,,,,,,Too slow :(,0,71,71,19,1,t4.png,t2.png,2,0.059078,20,Female,2020-11-15_17h29.18.943,torte-q,2020.1.3,MacIntel,60,13281,,,,,,,,,,,,,,,,,,,,,,,,,,,,,,,,,,,,,,,,,,,,,
,,,,,,,,,,,,,Too slow :(,0,72,72,52,1,t2.png,t4.png,2,0.059078,20,Female,2020-11-15_17h29.18.943,torte-q,2020.1.3,MacIntel,60,13281,,,,,,,,,,,,,,,,,,,,,,,,,,,,,,,,,,,,,,,,,,,,,
,,,,,,,,,,,,l,Correct!,0,73,73,27,1,t3.png,t1.png,2,0.0565,20,Female,2020-11-15_17h29.18.943,torte-q,2020.1.3,MacIntel,60,13281,0.648615,,,,,,,,,,,,,,,,,,,,,,,,,,,,,,,,,,,,,,,,,,,,
,,,,,,,,,,,,,Too slow :(,0,74,74,89,1,t1.png,t4.png,3,0.0000131,20,Female,2020-11-15_17h29.18.943,torte-q,2020.1.3,MacIntel,60,13281,,,,,,,,,,,,,,,,,,,,,,,,,,,,,,,,,,,,,,,,,,,,,
,,,,,,,,,,,,,Too slow :(,0,75,75,96,1,t1.png,t1.png,0,0.97829,20,Female,2020-11-15_17h29.18.943,torte-q,2020.1.3,MacIntel,60,13281,,,,,,,,,,,,,,,,,,,,,,,,,,,,,,,,,,,,,,,,,,,,,
,,,,,,,,,,,,,Too slow :(,0,76,76,49,1,t4.png,t5.png,1,0.9,20,Female,2020-11-15_17h29.18.943,torte-q,2020.1.3,MacIntel,60,13281,,,,,,,,,,,,,,,,,,,,,,,,,,,,,,,,,,,,,,,,,,,,,
,,,,,,,,,,,,a,Correct!,0,77,77,100,1,t4.png,t5.png,1,0.90025,20,Female,2020-11-15_17h29.18.943,torte-q,2020.1.3,MacIntel,60,13281,0.545405,,,,,,,,,,,,,,,,,,,,,,,,,,,,,,,,,,,,,,,,,,,,
,,,,,,,,,,,,a,Correct!,0,78,78,109,1,t5.png,t5.png,0,0.97829,20,Female,2020-11-15_17h29.18.943,torte-q,2020.1.3,MacIntel,60,13281,0.43609,,,,,,,,,,,,,,,,,,,,,,,,,,,,,,,,,,,,,,,,,,,,
,,,,,,,,,,,,a,Incorrect,0,79,79,33,1,t5.png,t1.png,4,9.55E-11,20,Female,2020-11-15_17h29.18.943,torte-q,2020.1.3,MacIntel,60,13281,0.2946,,,,,,,,,,,,,,,,,,,,,,,,,,,,,,,,,,,,,,,,,,,,
,,,,,,,,,,,,l,Correct!,0,80,80,51,1,t3.png,t1.png,2,0.056466,20,Female,2020-11-15_17h29.18.943,torte-q,2020.1.3,MacIntel,60,13281,0.450825,,,,,,,,,,,,,,,,,,,,,,,,,,,,,,,,,,,,,,,,,,,,
,,,,,,,,,,,,a,Correct!,0,81,81,10,1,t2.png,t3.png,1,0.90855,20,Female,2020-11-15_17h29.18.943,torte-q,2020.1.3,MacIntel,60,13281,0.353755,,,,,,,,,,,,,,,,,,,,,,,,,,,,,,,,,,,,,,,,,,,,
,,,,,,,,,,,,l,Incorrect,0,82,82,7,1,t4.png,t5.png,1,0.90025,20,Female,2020-11-15_17h29.18.943,torte-q,2020.1.3,MacIntel,60,13281,0.434445,,,,,,,,,,,,,,,,,,,,,,,,,,,,,,,,,,,,,,,,,,,,
,,,,,,,,,,,,a,Incorrect,0,83,83,3,1,t1.png,t5.png,4,9.55E-11,20,Female,2020-11-15_17h29.18.943,torte-q,2020.1.3,MacIntel,60,13281,0.6885,,,,,,,,,,,,,,,,,,,,,,,,,,,,,,,,,,,,,,,,,,,,
,,,,,,,,,,,,l,Incorrect,0,84,84,78,1,t1.png,t1.png,0,0.978,20,Female,2020-11-15_17h29.18.943,torte-q,2020.1.3,MacIntel,60,13281,0.35752,,,,,,,,,,,,,,,,,,,,,,,,,,,,,,,,,,,,,,,,,,,,
,,,,,,,,,,,,a,Incorrect,0,85,85,80,1,t1.png,t4.png,3,0.0000131,20,Female,2020-11-15_17h29.18.943,torte-q,2020.1.3,MacIntel,60,13281,0.25805,,,,,,,,,,,,,,,,,,,,,,,,,,,,,,,,,,,,,,,,,,,,
,,,,,,,,,,,,l,Incorrect,0,86,86,70,1,t5.png,t5.png,0,0.978,20,Female,2020-11-15_17h29.18.943,torte-q,2020.1.3,MacIntel,60,13281,0.91983,,,,,,,,,,,,,,,,,,,,,,,,,,,,,,,,,,,,,,,,,,,,
,,,,,,,,,,,,a,Correct!,0,87,87,23,1,t5.png,t4.png,1,0.90025,20,Female,2020-11-15_17h29.18.943,torte-q,2020.1.3,MacIntel,60,13281,1.249405,,,,,,,,,,,,,,,,,,,,,,,,,,,,,,,,,,,,,,,,,,,,
,,,,,,,,,,,,a,Correct!,0,88,88,114,1,t2.png,t3.png,1,0.90855,20,Female,2020-11-15_17h29.18.943,torte-q,2020.1.3,MacIntel,60,13281,0.691785,,,,,,,,,,,,,,,,,,,,,,,,,,,,,,,,,,,,,,,,,,,,
,,,,,,,,,,,,a,Incorrect,0,89,89,83,1,t3.png,t1.png,2,0.056466,20,Female,2020-11-15_17h29.18.943,torte-q,2020.1.3,MacIntel,60,13281,0.481895,,,,,,,,,,,,,,,,,,,,,,,,,,,,,,,,,,,,,,,,,,,,
,,,,,,,,,,,,l,Correct!,0,90,90,6,1,t1.png,t4.png,3,0.0000131,20,Female,2020-11-15_17h29.18.943,torte-q,2020.1.3,MacIntel,60,13281,1.969645,,,,,,,,,,,,,,,,,,,,,,,,,,,,,,,,,,,,,,,,,,,,
,,,,,,,,,,,,a,Incorrect,0,91,91,103,1,t3.png,t1.png,2,0.056466,20,Female,2020-11-15_17h29.18.943,torte-q,2020.1.3,MacIntel,60,13281,0.413505,,,,,,,,,,,,,,,,,,,,,,,,,,,,,,,,,,,,,,,,,,,,
,,,,,,,,,,,,l,Correct!,0,92,92,108,1,t5.png,t1.png,4,9.55E-11,20,Female,2020-11-15_17h29.18.943,torte-q,2020.1.3,MacIntel,60,13281,0.53275,,,,,,,,,,,,,,,,,,,,,,,,,,,,,,,,,,,,,,,,,,,,
,,,,,,,,,,,,l,Incorrect,0,93,93,118,1,t5.png,t5.png,0,0.978,20,Female,2020-11-15_17h29.18.943,torte-q,2020.1.3,MacIntel,60,13281,0.62493,,,,,,,,,,,,,,,,,,,,,,,,,,,,,,,,,,,,,,,,,,,,
,,,,,,,,,,,,a,Incorrect,0,94,94,115,1,t2.png,t4.png,2,0.059078,20,Female,2020-11-15_17h29.18.943,torte-q,2020.1.3,MacIntel,60,13281,0.52394,,,,,,,,,,,,,,,,,,,,,,,,,,,,,,,,,,,,,,,,,,,,
,,,,,,,,,,,,l,Correct!,0,95,95,56,1,t5.png,t1.png,4,9.55E-11,20,Female,2020-11-15_17h29.18.943,torte-q,2020.1.3,MacIntel,60,13281,0.444225,,,,,,,,,,,,,,,,,,,,,,,,,,,,,,,,,,,,,,,,,,,,
,,,,,,,,,,,,l,Incorrect,0,96,96,20,1,t2.png,t3.png,1,0.90855,20,Female,2020-11-15_17h29.18.943,torte-q,2020.1.3,MacIntel,60,13281,1.163785,,,,,,,,,,,,,,,,,,,,,,,,,,,,,,,,,,,,,,,,,,,,
,,,,,,,,,,,,a,Incorrect,0,97,97,98,1,t2.png,t4.png,2,0.0591,20,Female,2020-11-15_17h29.18.943,torte-q,2020.1.3,MacIntel,60,13281,0.9354,,,,,,,,,,,,,,,,,,,,,,,,,,,,,,,,,,,,,,,,,,,,
,,,,,,,,,,,,l,Correct!,0,98,98,11,1,t1.png,t4.png,3,0.0000131,20,Female,2020-11-15_17h29.18.943,torte-q,2020.1.3,MacIntel,60,13281,0.870485,,,,,,,,,,,,,,,,,,,,,,,,,,,,,,,,,,,,,,,,,,,,
,,,,,,,,,,,,,Too slow :(,0,99,99,113,1,t5.png,t4.png,1,0.9,20,Female,2020-11-15_17h29.18.943,torte-q,2020.1.3,MacIntel,60,13281,,,,,,,,,,,,,,,,,,,,,,,,,,,,,,,,,,,,,,,,,,,,,
,,,,,,,,,,,,a,Correct!,0,100,100,75,1,t1.png,t1.png,0,0.97829,20,Female,2020-11-15_17h29.18.943,torte-q,2020.1.3,MacIntel,60,13281,0.463085,,,,,,,,,,,,,,,,,,,,,,,,,,,,,,,,,,,,,,,,,,,,
,,,,,,,,,,,,l,Correct!,0,101,101,94,1,t5.png,t1.png,4,9.55E-11,20,Female,2020-11-15_17h29.18.943,torte-q,2020.1.3,MacIntel,60,13281,0.42516,,,,,,,,,,,,,,,,,,,,,,,,,,,,,,,,,,,,,,,,,,,,
,,,,,,,,,,,,l,Correct!,0,102,102,38,1,t3.png,t1.png,2,0.056466,20,Female,2020-11-15_17h29.18.943,torte-q,2020.1.3,MacIntel,60,13281,0.623695,,,,,,,,,,,,,,,,,,,,,,,,,,,,,,,,,,,,,,,,,,,,
,,,,,,,,,,,,a,Correct!,0,103,103,107,1,t1.png,t1.png,0,0.978,20,Female,2020-11-15_17h29.18.943,torte-q,2020.1.3,MacIntel,60,13281,0.65087,,,,,,,,,,,,,,,,,,,,,,,,,,,,,,,,,,,,,,,,,,,,
,,,,,,,,,,,,a,Correct!,0,104,104,84,1,t1.png,t1.png,0,0.97829,20,Female,2020-11-15_17h29.18.943,torte-q,2020.1.3,MacIntel,60,13281,0.623425,,,,,,,,,,,,,,,,,,,,,,,,,,,,,,,,,,,,,,,,,,,,
,,,,,,,,,,,,a,Incorrect,0,105,105,102,1,t4.png,t2.png,2,0.059078,20,Female,2020-11-15_17h29.18.943,torte-q,2020.1.3,MacIntel,60,13281,0.732895,,,,,,,,,,,,,,,,,,,,,,,,,,,,,,,,,,,,,,,,,,,,
,,,,,,,,,,,,l,Correct!,0,106,106,60,1,t2.png,t4.png,2,0.059078,20,Female,2020-11-15_17h29.18.943,torte-q,2020.1.3,MacIntel,60,13281,0.365355,,,,,,,,,,,,,,,,,,,,,,,,,,,,,,,,,,,,,,,,,,,,
,,,,,,,,,,,,a,Correct!,0,107,107,42,1,t5.png,t4.png,1,0.90025,20,Female,2020-11-15_17h29.18.943,torte-q,2020.1.3,MacIntel,60,13281,0.48758,,,,,,,,,,,,,,,,,,,,,,,,,,,,,,,,,,,,,,,,,,,,
,,,,,,,,,,,,l,Correct!,0,108,108,53,1,t3.png,t1.png,2,0.056466,20,Female,2020-11-15_17h29.18.943,torte-q,2020.1.3,MacIntel,60,13281,0.51894,,,,,,,,,,,,,,,,,,,,,,,,,,,,,,,,,,,,,,,,,,,,
,,,,,,,,,,,,l,Correct!,0,109,109,2,1,t3.png,t2.png,1,0.90855,20,Female,2020-11-15_17h29.18.943,torte-q,2020.1.3,MacIntel,60,13281,1.53523,,,,,,,,,,,,,,,,,,,,,,,,,,,,,,,,,,,,,,,,,,,,
,,,,,,,,,,,,,Too slow :(,0,110,110,36,1,t3.png,t1.png,2,0.0565,20,Female,2020-11-15_17h29.18.943,torte-q,2020.1.3,MacIntel,60,13281,,,,,,,,,,,,,,,,,,,,,,,,,,,,,,,,,,,,,,,,,,,,,
,,,,,,,,,,,,a,Correct!,0,111,111,34,1,t5.png,t4.png,1,0.9,20,Female,2020-11-15_17h29.18.943,torte-q,2020.1.3,MacIntel,60,13281,0.41044,,,,,,,,,,,,,,,,,,,,,,,,,,,,,,,,,,,,,,,,,,,,
,,,,,,,,,,,,a,Incorrect,0,112,112,99,1,t1.png,t5.png,4,9.55E-11,20,Female,2020-11-15_17h29.18.943,torte-q,2020.1.3,MacIntel,60,13281,0.42431,,,,,,,,,,,,,,,,,,,,,,,,,,,,,,,,,,,,,,,,,,,,
,,,,,,,,,,,,l,Correct!,0,113,113,73,1,t4.png,t2.png,2,0.059078,20,Female,2020-11-15_17h29.18.943,torte-q,2020.1.3,MacIntel,60,13281,0.443605,,,,,,,,,,,,,,,,,,,,,,,,,,,,,,,,,,,,,,,,,,,,
,,,,,,,,,,,,,Too slow :(,0,114,114,91,1,t1.png,t4.png,3,0.0000131,20,Female,2020-11-15_17h29.18.943,torte-q,2020.1.3,MacIntel,60,13281,,,,,,,,,,,,,,,,,,,,,,,,,,,,,,,,,,,,,,,,,,,,,
,,,,,,,,,,,,l,Correct!,0,115,115,35,1,t1.png,t4.png,3,0.0000131,20,Female,2020-11-15_17h29.18.943,torte-q,2020.1.3,MacIntel,60,13281,1.77217,,,,,,,,,,,,,,,,,,,,,,,,,,,,,,,,,,,,,,,,,,,,
,,,,,,,,,,,,l,Correct!,0,116,116,55,1,t2.png,t4.png,2,0.059078,20,Female,2020-11-15_17h29.18.943,torte-q,2020.1.3,MacIntel,60,13281,0.758515,,,,,,,,,,,,,,,,,,,,,,,,,,,,,,,,,,,,,,,,,,,,
,,,,,,,,,,,,a,Incorrect,0,117,117,4,1,t1.png,t5.png,4,9.55E-11,20,Female,2020-11-15_17h29.18.943,torte-q,2020.1.3,MacIntel,60,13281,1.30593,,,,,,,,,,,,,,,,,,,,,,,,,,,,,,,,,,,,,,,,,,,,
,,,,,,,,,,,,l,Incorrect,0,118,118,79,1,t3.png,t2.png,1,0.909,20,Female,2020-11-15_17h29.18.943,torte-q,2020.1.3,MacIntel,60,13281,0.150425,,,,,,,,,,,,,,,,,,,,,,,,,,,,,,,,,,,,,,,,,,,,
,,,,,,,,,,,,l,Correct!,0,119,119,69,1,t4.png,t2.png,2,0.059078,20,Female,2020-11-15_17h29.18.943,torte-q,2020.1.3,MacIntel,60,13281,0.07936,,,,,,,,,,,,,,,,,,,,,,,,,,,,,,,,,,,,,,,,,,,,
,,,,,,,,,,,,,Too slow :(,,,,,,t4.png,t3.png,1,0.90855,20,Female,2020-11-15_17h29.18.943,torte-q,2020.1.3,MacIntel,60,13281,,t,3.504955,space,42.05947,0,0,0,35,1,,,,,,,,,,,,,,,,,,,,,,,,,,,,,,,,,,,
,,,,,,,,,,,,l,Correct!,,,,,,t4.png,t2.png,2,0.0591,20,Female,2020-11-15_17h29.18.943,torte-q,2020.1.3,MacIntel,60,13281,0.76676,,,,,0,1,1,36,1,,,,,,,,,,,,,,,,,,,,,,,,,,,,,,,,,,,
,,,,,,,,,,,,l,Correct!,,,,,,t2.png,t4.png,2,0.059078,20,Female,2020-11-15_17h29.18.943,torte-q,2020.1.3,MacIntel,60,13281,0.94823,,,,,0,2,2,24,1,,,,,,,,,,,,,,,,,,,,,,,,,,,,,,,,,,,
,,,,,,,,,,,,a,Correct!,,,,,,t3.png,t2.png,1,0.90855,20,Female,2020-11-15_17h29.18.943,torte-q,2020.1.3,MacIntel,60,13281,0.564835,,,,,0,3,3,53,1,,,,,,,,,,,,,,,,,,,,,,,,,,,,,,,,,,,
,,,,,,,,,,,,l,Incorrect,,,,,,t5.png,t5.png,0,0.97829,20,Female,2020-11-15_17h29.18.943,torte-q,2020.1.3,MacIntel,60,13281,1.222355,,,,,0,4,4,94,1,,,,,,,,,,,,,,,,,,,,,,,,,,,,,,,,,,,
,,,,,,,,,,,,a,Incorrect,,,,,,t4.png,t1.png,3,0.0000131,20,Female,2020-11-15_17h29.18.943,torte-q,2020.1.3,MacIntel,60,13281,0.54494,,,,,0,5,5,48,1,,,,,,,,,,,,,,,,,,,,,,,,,,,,,,,,,,,
,,,,,,,,,,,,a,Incorrect,,,,,,t5.png,t1.png,4,9.55E-11,20,Female,2020-11-15_17h29.18.943,torte-q,2020.1.3,MacIntel,60,13281,0.620985,,,,,0,6,6,71,1,,,,,,,,,,,,,,,,,,,,,,,,,,,,,,,,,,,
,,,,,,,,,,,,l,Correct!,,,,,,t3.png,t1.png,2,0.056466,20,Female,2020-11-15_17h29.18.943,torte-q,2020.1.3,MacIntel,60,13281,0.374675,,,,,0,7,7,0,1,,,,,,,,,,,,,,,,,,,,,,,,,,,,,,,,,,,
,,,,,,,,,,,,a,Incorrect,,,,,,t3.png,t1.png,2,0.056466,20,Female,2020-11-15_17h29.18.943,torte-q,2020.1.3,MacIntel,60,13281,0.299725,,,,,0,8,8,32,1,,,,,,,,,,,,,,,,,,,,,,,,,,,,,,,,,,,
,,,,,,,,,,,,l,Correct!,,,,,,t5.png,t3.png,2,0.056466,20,Female,2020-11-15_17h29.18.943,torte-q,2020.1.3,MacIntel,60,13281,0.336985,,,,,0,9,9,114,1,,,,,,,,,,,,,,,,,,,,,,,,,,,,,,,,,,,
,,,,,,,,,,,,l,Incorrect,,,,,,t4.png,t3.png,1,0.909,20,Female,2020-11-15_17h29.18.943,torte-q,2020.1.3,MacIntel,60,13281,0.33299,,,,,0,10,10,20,1,,,,,,,,,,,,,,,,,,,,,,,,,,,,,,,,,,,
,,,,,,,,,,,,a,Incorrect,,,,,,t2.png,t5.png,3,0.0000131,20,Female,2020-11-15_17h29.18.943,torte-q,2020.1.3,MacIntel,60,13281,0.921665,,,,,0,11,11,104,1,,,,,,,,,,,,,,,,,,,,,,,,,,,,,,,,,,,
,,,,,,,,,,,,a,Incorrect,,,,,,t3.png,t5.png,2,0.056466,20,Female,2020-11-15_17h29.18.943,torte-q,2020.1.3,MacIntel,60,13281,0.29904,,,,,0,12,12,44,1,,,,,,,,,,,,,,,,,,,,,,,,,,,,,,,,,,,
,,,,,,,,,,,,a,Correct!,,,,,,t2.png,t1.png,1,0.90025,20,Female,2020-11-15_17h29.18.943,torte-q,2020.1.3,MacIntel,60,13281,0.279465,,,,,0,13,13,5,1,,,,,,,,,,,,,,,,,,,,,,,,,,,,,,,,,,,
,,,,,,,,,,,,l,Incorrect,,,,,,t4.png,t4.png,0,0.98115,20,Female,2020-11-15_17h29.18.943,torte-q,2020.1.3,MacIntel,60,13281,0.324915,,,,,0,14,14,52,1,,,,,,,,,,,,,,,,,,,,,,,,,,,,,,,,,,,
,,,,,,,,,,,,a,Incorrect,,,,,,t3.png,t5.png,2,0.0565,20,Female,2020-11-15_17h29.18.943,torte-q,2020.1.3,MacIntel,60,13281,1.03463,,,,,0,15,15,30,1,,,,,,,,,,,,,,,,,,,,,,,,,,,,,,,,,,,
,,,,,,,,,,,,l,Correct!,,,,,,t1.png,t5.png,4,9.55E-11,20,Female,2020-11-15_17h29.18.943,torte-q,2020.1.3,MacIntel,60,13281,0.48924,,,,,0,16,16,12,1,,,,,,,,,,,,,,,,,,,,,,,,,,,,,,,,,,,
,,,,,,,,,,,,l,Incorrect,,,,,,t5.png,t4.png,1,0.90025,20,Female,2020-11-15_17h29.18.943,torte-q,2020.1.3,MacIntel,60,13281,0.68457,,,,,0,17,17,26,1,,,,,,,,,,,,,,,,,,,,,,,,,,,,,,,,,,,
,,,,,,,,,,,,l,Correct!,,,,,,t4.png,t2.png,2,0.059078,20,Female,2020-11-15_17h29.18.943,torte-q,2020.1.3,MacIntel,60,13281,1.207345,,,,,0,18,18,110,1,,,,,,,,,,,,,,,,,,,,,,,,,,,,,,,,,,,
,,,,,,,,,,,,a,Incorrect,,,,,,t3.png,t5.png,2,0.056466,20,Female,2020-11-15_17h29.18.943,torte-q,2020.1.3,MacIntel,60,13281,0.60338,,,,,0,19,19,14,1,,,,,,,,,,,,,,,,,,,,,,,,,,,,,,,,,,,
,,,,,,,,,,,,a,Incorrect,,,,,,t1.png,t2.png,1,0.90025,20,Female,2020-11-15_17h29.18.943,torte-q,2020.1.3,MacIntel,60,13281,0.301385,,,,,0,20,20,33,1,,,,,,,,,,,,,,,,,,,,,,,,,,,,,,,,,,,
,,,,,,,,,,,,l,Correct!,,,,,,t5.png,t2.png,3,0.0000131,20,Female,2020-11-15_17h29.18.943,torte-q,2020.1.3,MacIntel,60,13281,0.56087,,,,,0,21,21,98,1,,,,,,,,,,,,,,,,,,,,,,,,,,,,,,,,,,,
,,,,,,,,,,,,a,Incorrect,,,,,,t4.png,t2.png,2,0.059078,20,Female,2020-11-15_17h29.18.943,torte-q,2020.1.3,MacIntel,60,13281,0.4016,,,,,0,22,22,88,1,,,,,,,,,,,,,,,,,,,,,,,,,,,,,,,,,,,
,,,,,,,,,,,,l,Correct!,,,,,,t4.png,t1.png,3,0.0000131,20,Female,2020-11-15_17h29.18.943,torte-q,2020.1.3,MacIntel,60,13281,0.448035,,,,,0,23,23,61,1,,,,,,,,,,,,,,,,,,,,,,,,,,,,,,,,,,,
,,,,,,,,,,,,a,Incorrect,,,,,,t2.png,t4.png,2,0.0591,20,Female,2020-11-15_17h29.18.943,torte-q,2020.1.3,MacIntel,60,13281,0.66483,,,,,0,24,24,15,1,,,,,,,,,,,,,,,,,,,,,,,,,,,,,,,,,,,
,,,,,,,,,,,,a,Incorrect,,,,,,t3.png,t5.png,2,0.0565,20,Female,2020-11-15_17h29.18.943,torte-q,2020.1.3,MacIntel,60,13281,0.367525,,,,,0,25,25,83,1,,,,,,,,,,,,,,,,,,,,,,,,,,,,,,,,,,,
,,,,,,,,,,,,l,Correct!,,,,,,t1.png,t4.png,3,0.0000131,20,Female,2020-11-15_17h29.18.943,torte-q,2020.1.3,MacIntel,60,13281,0.89176,,,,,0,26,26,81,1,,,,,,,,,,,,,,,,,,,,,,,,,,,,,,,,,,,
,,,,,,,,,,,,a,Correct!,,,,,,t5.png,t4.png,1,0.9,20,Female,2020-11-15_17h29.18.943,torte-q,2020.1.3,MacIntel,60,13281,0.56612,,,,,0,27,27,76,1,,,,,,,,,,,,,,,,,,,,,,,,,,,,,,,,,,,
,,,,,,,,,,,,a,Correct!,,,,,,t2.png,t3.png,1,0.90855,20,Female,2020-11-15_17h29.18.943,torte-q,2020.1.3,MacIntel,60,13281,0.95723,,,,,0,28,28,10,1,,,,,,,,,,,,,,,,,,,,,,,,,,,,,,,,,,,
,,,,,,,,,,,,l,Correct!,,,,,,t5.png,t2.png,3,0.0000131,20,Female,2020-11-15_17h29.18.943,torte-q,2020.1.3,MacIntel,60,13281,0.311665,,,,,0,29,29,116,1,,,,,,,,,,,,,,,,,,,,,,,,,,,,,,,,,,,
,,,,,,,,,,,,a,Incorrect,,,,,,t5.png,t1.png,4,9.55E-11,20,Female,2020-11-15_17h29.18.943,torte-q,2020.1.3,MacIntel,60,13281,0.39063,,,,,0,30,30,43,1,,,,,,,,,,,,,,,,,,,,,,,,,,,,,,,,,,,
,,,,,,,,,,,,l,Correct!,,,,,,t4.png,t1.png,3,0.0000131,20,Female,2020-11-15_17h29.18.943,torte-q,2020.1.3,MacIntel,60,13281,0.57279,,,,,0,31,31,42,1,,,,,,,,,,,,,,,,,,,,,,,,,,,,,,,,,,,
,,,,,,,,,,,,a,Incorrect,,,,,,t4.png,t1.png,3,0.0000131,20,Female,2020-11-15_17h29.18.943,torte-q,2020.1.3,MacIntel,60,13281,0.55218,,,,,0,32,32,13,1,,,,,,,,,,,,,,,,,,,,,,,,,,,,,,,,,,,
,,,,,,,,,,,,a,Correct!,,,,,,t2.png,t2.png,0,0.98115,20,Female,2020-11-15_17h29.18.943,torte-q,2020.1.3,MacIntel,60,13281,0.040995,,,,,0,33,33,57,1,,,,,,,,,,,,,,,,,,,,,,,,,,,,,,,,,,,
,,,,,,,,,,,,l,Incorrect,,,,,,t3.png,t4.png,1,0.909,20,Female,2020-11-15_17h29.18.943,torte-q,2020.1.3,MacIntel,60,13281,0.300295,,,,,0,34,34,82,1,,,,,,,,,,,,,,,,,,,,,,,,,,,,,,,,,,,
,,,,,,,,,,,,l,Incorrect,,,,,,t2.png,t1.png,1,0.9,20,Female,2020-11-15_17h29.18.943,torte-q,2020.1.3,MacIntel,60,13281,1.17276,,,,,0,35,35,118,1,,,,,,,,,,,,,,,,,,,,,,,,,,,,,,,,,,,
,,,,,,,,,,,,a,Incorrect,,,,,,t3.png,t1.png,2,0.056466,20,Female,2020-11-15_17h29.18.943,torte-q,2020.1.3,MacIntel,60,13281,0.420875,,,,,0,36,36,64,1,,,,,,,,,,,,,,,,,,,,,,,,,,,,,,,,,,,
,,,,,,,,,,,,a,Incorrect,,,,,,t2.png,t2.png,0,0.98115,20,Female,2020-11-15_17h29.18.943,torte-q,2020.1.3,MacIntel,60,13281,0.434355,,,,,0,37,37,59,1,,,,,,,,,,,,,,,,,,,,,,,,,,,,,,,,,,,
,,,,,,,,,,,,a,Correct!,,,,,,t2.png,t3.png,1,0.909,20,Female,2020-11-15_17h29.18.943,torte-q,2020.1.3,MacIntel,60,13281,0.389545,,,,,0,38,38,74,1,,,,,,,,,,,,,,,,,,,,,,,,,,,,,,,,,,,
,,,,,,,,,,,,l,Correct!,,,,,,t5.png,t2.png,3,0.0000131,20,Female,2020-11-15_17h29.18.943,torte-q,2020.1.3,MacIntel,60,13281,0.40134,,,,,0,39,39,91,1,,,,,,,,,,,,,,,,,,,,,,,,,,,,,,,,,,,
,,,,,,,,,,,,a,Incorrect,,,,,,t5.png,t1.png,4,9.55E-11,20,Female,2020-11-15_17h29.18.943,torte-q,2020.1.3,MacIntel,60,13281,0.33446,,,,,0,40,40,100,1,,,,,,,,,,,,,,,,,,,,,,,,,,,,,,,,,,,
,,,,,,,,,,,,a,Correct!,,,,,,t5.png,t5.png,0,0.97829,20,Female,2020-11-15_17h29.18.943,torte-q,2020.1.3,MacIntel,60,13281,0.311035,,,,,0,41,41,70,1,,,,,,,,,,,,,,,,,,,,,,,,,,,,,,,,,,,
,,,,,,,,,,,,l,Correct!,,,,,,t2.png,t5.png,3,0.0000131,20,Female,2020-11-15_17h29.18.943,torte-q,2020.1.3,MacIntel,60,13281,0.390005,,,,,0,42,42,40,1,,,,,,,,,,,,,,,,,,,,,,,,,,,,,,,,,,,
,,,,,,,,,,,,l,Correct!,,,,,,t1.png,t3.png,2,0.056466,20,Female,2020-11-15_17h29.18.943,torte-q,2020.1.3,MacIntel,60,13281,1.507315,,,,,0,43,43,99,1,,,,,,,,,,,,,,,,,,,,,,,,,,,,,,,,,,,
,,,,,,,,,,,,a,Incorrect,,,,,,t2.png,t5.png,3,0.0000131,20,Female,2020-11-15_17h29.18.943,torte-q,2020.1.3,MacIntel,60,13281,1.27651,,,,,0,44,44,95,1,,,,,,,,,,,,,,,,,,,,,,,,,,,,,,,,,,,
,,,,,,,,,,,,l,Incorrect,,,,,,t3.png,t4.png,1,0.90855,20,Female,2020-11-15_17h29.18.943,torte-q,2020.1.3,MacIntel,60,13281,0.49398,,,,,0,45,45,84,1,,,,,,,,,,,,,,,,,,,,,,,,,,,,,,,,,,,
,,,,,,,,,,,,l,Incorrect,,,,,,t1.png,t3.png,2,0.056466,20,Female,2020-11-15_17h29.18.943,torte-q,2020.1.3,MacIntel,60,13281,0.523545,,,,,0,46,46,60,1,,,,,,,,,,,,,,,,,,,,,,,,,,,,,,,,,,,
,,,,,,,,,,,,l,Incorrect,,,,,,t4.png,t5.png,1,0.90025,20,Female,2020-11-15_17h29.18.943,torte-q,2020.1.3,MacIntel,60,13281,0.363085,,,,,0,47,47,47,1,,,,,,,,,,,,,,,,,,,,,,,,,,,,,,,,,,,
,,,,,,,,,,,,a,Correct!,,,,,,t1.png,t1.png,0,0.97829,20,Female,2020-11-15_17h29.18.943,torte-q,2020.1.3,MacIntel,60,13281,0.66642,,,,,0,48,48,67,1,,,,,,,,,,,,,,,,,,,,,,,,,,,,,,,,,,,
,,,,,,,,,,,,a,Correct!,,,,,,t1.png,t1.png,0,0.978,20,Female,2020-11-15_17h29.18.943,torte-q,2020.1.3,MacIntel,60,13281,0.45133,,,,,0,49,49,28,1,,,,,,,,,,,,,,,,,,,,,,,,,,,,,,,,,,,
,,,,,,,,,,,,a,Incorrect,,,,,,t2.png,t5.png,3,0.0000131,20,Female,2020-11-15_17h29.18.943,torte-q,2020.1.3,MacIntel,60,13281,0.387495,,,,,0,50,50,8,1,,,,,,,,,,,,,,,,,,,,,,,,,,,,,,,,,,,
,,,,,,,,,,,,a,Incorrect,,,,,,t1.png,t3.png,2,0.056466,20,Female,2020-11-15_17h29.18.943,torte-q,2020.1.3,MacIntel,60,13281,0.30266,,,,,0,51,51,63,1,,,,,,,,,,,,,,,,,,,,,,,,,,,,,,,,,,,
,,,,,,,,,,,,l,Incorrect,,,,,,t2.png,t3.png,1,0.90855,20,Female,2020-11-15_17h29.18.943,torte-q,2020.1.3,MacIntel,60,13281,0.794965,,,,,0,52,52,65,1,,,,,,,,,,,,,,,,,,,,,,,,,,,,,,,,,,,
,,,,,,,,,,,,l,Incorrect,,,,,,t3.png,t4.png,1,0.909,20,Female,2020-11-15_17h29.18.943,torte-q,2020.1.3,MacIntel,60,13281,2.365605,,,,,0,53,53,106,1,,,,,,,,,,,,,,,,,,,,,,,,,,,,,,,,,,,
,,,,,,,,,,,,l,Incorrect,,,,,,t4.png,t4.png,0,0.98115,20,Female,2020-11-15_17h29.18.943,torte-q,2020.1.3,MacIntel,60,13281,1.474815,,,,,0,54,54,80,1,,,,,,,,,,,,,,,,,,,,,,,,,,,,,,,,,,,
,,,,,,,,,,,,,Too slow :(,,,,,,t3.png,t2.png,1,0.909,20,Female,2020-11-15_17h29.18.943,torte-q,2020.1.3,MacIntel,60,13281,,,,,,0,55,55,3,1,,,,,,,,,,,,,,,,,,,,,,,,,,,,,,,,,,,
,,,,,,,,,,,,a,Incorrect,,,,,,t4.png,t2.png,2,0.059078,20,Female,2020-11-15_17h29.18.943,torte-q,2020.1.3,MacIntel,60,13281,0.466555,,,,,0,56,56,86,1,,,,,,,,,,,,,,,,,,,,,,,,,,,,,,,,,,,
,,,,,,,,,,,,a,Incorrect,,,,,,t5.png,t3.png,2,0.056466,20,Female,2020-11-15_17h29.18.943,torte-q,2020.1.3,MacIntel,60,13281,0.568665,,,,,0,57,57,38,1,,,,,,,,,,,,,,,,,,,,,,,,,,,,,,,,,,,
,,,,,,,,,,,,l,Incorrect,,,,,,t1.png,t1.png,0,0.978,20,Female,2020-11-15_17h29.18.943,torte-q,2020.1.3,MacIntel,60,13281,0.904635,,,,,0,58,58,54,1,,,,,,,,,,,,,,,,,,,,,,,,,,,,,,,,,,,
,,,,,,,,,,,,a,Incorrect,,,,,,t5.png,t2.png,3,0.0000131,20,Female,2020-11-15_17h29.18.943,torte-q,2020.1.3,MacIntel,60,13281,0.66795,,,,,0,59,59,119,1,,,,,,,,,,,,,,,,,,,,,,,,,,,,,,,,,,,
,,,,,,,,,,,,l,Correct!,,,,,,t3.png,t1.png,2,0.0565,20,Female,2020-11-15_17h29.18.943,torte-q,2020.1.3,MacIntel,60,13281,0.24439,,,,,0,60,60,31,1,,,,,,,,,,,,,,,,,,,,,,,,,,,,,,,,,,,
,,,,,,,,,,,,a,Correct!,,,,,,t2.png,t1.png,1,0.90025,20,Female,2020-11-15_17h29.18.943,torte-q,2020.1.3,MacIntel,60,13281,0.72448,,,,,0,61,61,4,1,,,,,,,,,,,,,,,,,,,,,,,,,,,,,,,,,,,
,,,,,,,,,,,,l,Incorrect,,,,,,t1.png,t2.png,1,0.9,20,Female,2020-11-15_17h29.18.943,torte-q,2020.1.3,MacIntel,60,13281,0.73622,,,,,0,62,62,1,1,,,,,,,,,,,,,,,,,,,,,,,,,,,,,,,,,,,
,,,,,,,,,,,,l,Incorrect,,,,,,t2.png,t1.png,1,0.90025,20,Female,2020-11-15_17h29.18.943,torte-q,2020.1.3,MacIntel,60,13281,0.45848,,,,,0,63,63,62,1,,,,,,,,,,,,,,,,,,,,,,,,,,,,,,,,,,,
,,,,,,,,,,,,l,Incorrect,,,,,,t4.png,t4.png,0,0.98115,20,Female,2020-11-15_17h29.18.943,torte-q,2020.1.3,MacIntel,60,13281,0.39069,,,,,0,64,64,79,1,,,,,,,,,,,,,,,,,,,,,,,,,,,,,,,,,,,
,,,,,,,,,,,,l,Incorrect,,,,,,t4.png,t3.png,1,0.90855,20,Female,2020-11-15_17h29.18.943,torte-q,2020.1.3,MacIntel,60,13281,0.322905,,,,,0,65,65,75,1,,,,,,,,,,,,,,,,,,,,,,,,,,,,,,,,,,,
,,,,,,,,,,,,l,Correct!,,,,,,t1.png,t4.png,3,0.0000131,20,Female,2020-11-15_17h29.18.943,torte-q,2020.1.3,MacIntel,60,13281,2.07021,,,,,0,66,66,17,1,,,,,,,,,,,,,,,,,,,,,,,,,,,,,,,,,,,
,,,,,,,,,,,,a,Correct!,,,,,,t1.png,t2.png,1,0.90025,20,Female,2020-11-15_17h29.18.943,torte-q,2020.1.3,MacIntel,60,13281,0.399675,,,,,0,67,67,72,1,,,,,,,,,,,,,,,,,,,,,,,,,,,,,,,,,,,
,,,,,,,,,,,,l,Correct!,,,,,,t3.png,t5.png,2,0.056466,20,Female,2020-11-15_17h29.18.943,torte-q,2020.1.3,MacIntel,60,13281,2.42817,,,,,0,68,68,6,1,,,,,,,,,,,,,,,,,,,,,,,,,,,,,,,,,,,
,,,,,,,,,,,,a,Incorrect,,,,,,t2.png,t5.png,3,0.0000131,20,Female,2020-11-15_17h29.18.943,torte-q,2020.1.3,MacIntel,60,13281,1.07327,,,,,0,69,69,66,1,,,,,,,,,,,,,,,,,,,,,,,,,,,,,,,,,,,
,,,,,,,,,,,,l,Correct!,,,,,,t5.png,t3.png,2,0.056466,20,Female,2020-11-15_17h29.18.943,torte-q,2020.1.3,MacIntel,60,13281,0.55812,,,,,0,70,70,56,1,,,,,,,,,,,,,,,,,,,,,,,,,,,,,,,,,,,
,,,,,,,,,,,,l,Correct!,,,,,,t2.png,t4.png,2,0.059078,20,Female,2020-11-15_17h29.18.943,torte-q,2020.1.3,MacIntel,60,13281,1.44804,,,,,0,71,71,77,1,,,,,,,,,,,,,,,,,,,,,,,,,,,,,,,,,,,
,,,,,,,,,,,,a,Correct!,,,,,,t3.png,t4.png,1,0.909,20,Female,2020-11-15_17h29.18.943,torte-q,2020.1.3,MacIntel,60,13281,2.156135,,,,,0,72,72,89,1,,,,,,,,,,,,,,,,,,,,,,,,,,,,,,,,,,,
,,,,,,,,,,,,l,Correct!,,,,,,t3.png,t2.png,1,0.90855,20,Female,2020-11-15_17h29.18.943,torte-q,2020.1.3,MacIntel,60,13281,0.55996,,,,,0,73,73,18,1,,,,,,,,,,,,,,,,,,,,,,,,,,,,,,,,,,,
,,,,,,,,,,,,a,Correct!,,,,,,t3.png,t2.png,1,0.90855,20,Female,2020-11-15_17h29.18.943,torte-q,2020.1.3,MacIntel,60,13281,0.399635,,,,,0,74,74,97,1,,,,,,,,,,,,,,,,,,,,,,,,,,,,,,,,,,,
,,,,,,,,,,,,a,Correct!,,,,,,t4.png,t3.png,1,0.90855,20,Female,2020-11-15_17h29.18.943,torte-q,2020.1.3,MacIntel,60,13281,2.002415,,,,,0,75,75,45,1,,,,,,,,,,,,,,,,,,,,,,,,,,,,,,,,,,,
,,,,,,,,,,,,,Too slow :(,,,,,,t4.png,t4.png,0,0.98115,20,Female,2020-11-15_17h29.18.943,torte-q,2020.1.3,MacIntel,60,13281,,,,,,0,76,76,21,1,,,,,,,,,,,,,,,,,,,,,,,,,,,,,,,,,,,
,,,,,,,,,,,,l,Incorrect,,,,,,t2.png,t3.png,1,0.90855,20,Female,2020-11-15_17h29.18.943,torte-q,2020.1.3,MacIntel,60,13281,0.07554,,,,,0,77,77,68,1,,,,,,,,,,,,,,,,,,,,,,,,,,,,,,,,,,,
,,,,,,,,,,,,l,Incorrect,,,,,,t4.png,t4.png,0,0.98115,20,Female,2020-11-15_17h29.18.943,torte-q,2020.1.3,MacIntel,60,13281,2.30035,,,,,0,78,78,90,1,,,,,,,,,,,,,,,,,,,,,,,,,,,,,,,,,,,
,,,,,,,,,,,,a,Correct!,,,,,,t2.png,t2.png,0,0.981,20,Female,2020-11-15_17h29.18.943,torte-q,2020.1.3,MacIntel,60,13281,0.375505,,,,,0,79,79,101,1,,,,,,,,,,,,,,,,,,,,,,,,,,,,,,,,,,,
,,,,,,,,,,,,l,Incorrect,,,,,,t1.png,t1.png,0,0.97829,20,Female,2020-11-15_17h29.18.943,torte-q,2020.1.3,MacIntel,60,13281,1.901905,,,,,0,80,80,78,1,,,,,,,,,,,,,,,,,,,,,,,,,,,,,,,,,,,
,,,,,,,,,,,,a,Incorrect,,,,,,t5.png,t1.png,4,9.55E-11,20,Female,2020-11-15_17h29.18.943,torte-q,2020.1.3,MacIntel,60,13281,0.42949,,,,,0,81,81,22,1,,,,,,,,,,,,,,,,,,,,,,,,,,,,,,,,,,,
,,,,,,,,,,,,a,Incorrect,,,,,,t5.png,t3.png,2,0.056466,20,Female,2020-11-15_17h29.18.943,torte-q,2020.1.3,MacIntel,60,13281,0.52679,,,,,0,82,82,108,1,,,,,,,,,,,,,,,,,,,,,,,,,,,,,,,,,,,
,,,,,,,,,,,,l,Correct!,,,,,,t1.png,t3.png,2,0.056466,20,Female,2020-11-15_17h29.18.943,torte-q,2020.1.3,MacIntel,60,13281,0.81824,,,,,0,83,83,87,1,,,,,,,,,,,,,,,,,,,,,,,,,,,,,,,,,,,
,,,,,,,,,,,,a,Correct!,,,,,,t2.png,t2.png,0,0.98115,20,Female,2020-11-15_17h29.18.943,torte-q,2020.1.3,MacIntel,60,13281,0.961195,,,,,0,84,84,2,1,,,,,,,,,,,,,,,,,,,,,,,,,,,,,,,,,,,
,,,,,,,,,,,,l,Correct!,,,,,,t1.png,t4.png,3,0.0000131,20,Female,2020-11-15_17h29.18.943,torte-q,2020.1.3,MacIntel,60,13281,0.656195,,,,,0,85,85,92,1,,,,,,,,,,,,,,,,,,,,,,,,,,,,,,,,,,,
,,,,,,,,,,,,,Too slow :(,,,,,,t5.png,t3.png,2,0.0565,20,Female,2020-11-15_17h29.18.943,torte-q,2020.1.3,MacIntel,60,13281,,,,,,0,86,86,39,1,,,,,,,,,,,,,,,,,,,,,,,,,,,,,,,,,,,
,,,,,,,,,,,,l,Correct!,,,,,,t4.png,t5.png,1,0.90025,20,Female,2020-11-15_17h29.18.943,torte-q,2020.1.3,MacIntel,60,13281,1.22918,,,,,0,87,87,113,1,,,,,,,,,,,,,,,,,,,,,,,,,,,,,,,,,,,
,,,,,,,,,,,,,Too slow :(,,,,,,t1.png,t4.png,3,0.0000131,20,Female,2020-11-15_17h29.18.943,torte-q,2020.1.3,MacIntel,60,13281,,,,,,0,88,88,107,1,,,,,,,,,,,,,,,,,,,,,,,,,,,,,,,,,,,
,,,,,,,,,,,,a,Correct!,,,,,,t5.png,t4.png,1,0.9,20,Female,2020-11-15_17h29.18.943,torte-q,2020.1.3,MacIntel,60,13281,0.36395,,,,,0,89,89,49,1,,,,,,,,,,,,,,,,,,,,,,,,,,,,,,,,,,,
,,,,,,,,,,,,l,Incorrect,,,,,,t5.png,t4.png,1,0.90025,20,Female,2020-11-15_17h29.18.943,torte-q,2020.1.3,MacIntel,60,13281,0.392095,,,,,0,90,90,27,1,,,,,,,,,,,,,,,,,,,,,,,,,,,,,,,,,,,
,,,,,,,,,,,,l,Incorrect,,,,,,t4.png,t5.png,1,0.90025,20,Female,2020-11-15_17h29.18.943,torte-q,2020.1.3,MacIntel,60,13281,1.7151,,,,,0,91,91,103,1,,,,,,,,,,,,,,,,,,,,,,,,,,,,,,,,,,,
,,,,,,,,,,,,a,Correct!,,,,,,t3.png,t4.png,1,0.90855,20,Female,2020-11-15_17h29.18.943,torte-q,2020.1.3,MacIntel,60,13281,0.97013,,,,,0,92,92,96,1,,,,,,,,,,,,,,,,,,,,,,,,,,,,,,,,,,,
,,,,,,,,,,,,l,Correct!,,,,,,t1.png,t5.png,4,9.55E-11,20,Female,2020-11-15_17h29.18.943,torte-q,2020.1.3,MacIntel,60,13281,0.42165,,,,,0,93,93,55,1,,,,,,,,,,,,,,,,,,,,,,,,,,,,,,,,,,,
,,,,,,,,,,,,a,Incorrect,,,,,,t1.png,t5.png,4,9.55E-11,20,Female,2020-11-15_17h29.18.943,torte-q,2020.1.3,MacIntel,60,13281,0.43456,,,,,0,94,94,85,1,,,,,,,,,,,,,,,,,,,,,,,,,,,,,,,,,,,
,,,,,,,,,,,,a,Incorrect,,,,,,t4.png,t2.png,2,0.059078,20,Female,2020-11-15_17h29.18.943,torte-q,2020.1.3,MacIntel,60,13281,0.456645,,,,,0,95,95,109,1,,,,,,,,,,,,,,,,,,,,,,,,,,,,,,,,,,,
,,,,,,,,,,,,l,Incorrect,,,,,,t2.png,t1.png,1,0.90025,20,Female,2020-11-15_17h29.18.943,torte-q,2020.1.3,MacIntel,60,13281,0.435995,,,,,0,96,96,19,1,,,,,,,,,,,,,,,,,,,,,,,,,,,,,,,,,,,
,,,,,,,,,,,,l,Incorrect,,,,,,t4.png,t5.png,1,0.90025,20,Female,2020-11-15_17h29.18.943,torte-q,2020.1.3,MacIntel,60,13281,0.42452,,,,,0,97,97,58,1,,,,,,,,,,,,,,,,,,,,,,,,,,,,,,,,,,,
,,,,,,,,,,,,l,Correct!,,,,,,t1.png,t5.png,4,9.55E-11,20,Female,2020-11-15_17h29.18.943,torte-q,2020.1.3,MacIntel,60,13281,0.86912,,,,,0,98,98,16,1,,,,,,,,,,,,,,,,,,,,,,,,,,,,,,,,,,,
,,,,,,,,,,,,a,Correct!,,,,,,t2.png,t3.png,1,0.90855,20,Female,2020-11-15_17h29.18.943,torte-q,2020.1.3,MacIntel,60,13281,0.59626,,,,,0,99,99,111,1,,,,,,,,,,,,,,,,,,,,,,,,,,,,,,,,,,,
,,,,,,,,,,,,a,Incorrect,,,,,,t5.png,t4.png,1,0.90025,20,Female,2020-11-15_17h29.18.943,torte-q,2020.1.3,MacIntel,60,13281,0.46894,,,,,0,100,100,34,1,,,,,,,,,,,,,,,,,,,,,,,,,,,,,,,,,,,
,,,,,,,,,,,,a,Incorrect,,,,,,t2.png,t4.png,2,0.059078,20,Female,2020-11-15_17h29.18.943,torte-q,2020.1.3,MacIntel,60,13281,0.54693,,,,,0,101,101,11,1,,,,,,,,,,,,,,,,,,,,,,,,,,,,,,,,,,,
,,,,,,,,,,,,l,Incorrect,,,,,,t5.png,t5.png,0,0.97829,20,Female,2020-11-15_17h29.18.943,torte-q,2020.1.3,MacIntel,60,13281,1.83931,,,,,0,102,102,73,1,,,,,,,,,,,,,,,,,,,,,,,,,,,,,,,,,,,
,,,,,,,,,,,,l,Correct!,,,,,,t1.png,t3.png,2,0.056466,20,Female,2020-11-15_17h29.18.943,torte-q,2020.1.3,MacIntel,60,13281,1.983685,,,,,0,103,103,69,1,,,,,,,,,,,,,,,,,,,,,,,,,,,,,,,,,,,
,,,,,,,,,,,,a,Incorrect,,,,,,t3.png,t1.png,2,0.056466,20,Female,2020-11-15_17h29.18.943,torte-q,2020.1.3,MacIntel,60,13281,0.95378,,,,,0,104,104,29,1,,,,,,,,,,,,,,,,,,,,,,,,,,,,,,,,,,,
,,,,,,,,,,,,a,Correct!,,,,,,t5.png,t5.png,0,0.97829,20,Female,2020-11-15_17h29.18.943,torte-q,2020.1.3,MacIntel,60,13281,1.479055,,,,,0,105,105,25,1,,,,,,,,,,,,,,,,,,,,,,,,,,,,,,,,,,,
,,,,,,,,,,,,l,Correct!,,,,,,t5.png,t2.png,3,0.0000131,20,Female,2020-11-15_17h29.18.943,torte-q,2020.1.3,MacIntel,60,13281,1.352545,,,,,0,106,106,51,1,,,,,,,,,,,,,,,,,,,,,,,,,,,,,,,,,,,
,,,,,,,,,,,,a,Correct!,,,,,,t1.png,t2.png,1,0.90025,20,Female,2020-11-15_17h29.18.943,torte-q,2020.1.3,MacIntel,60,13281,0.752115,,,,,0,107,107,112,1,,,,,,,,,,,,,,,,,,,,,,,,,,,,,,,,,,,
,,,,,,,,,,,,l,Incorrect,,,,,,t5.png,t5.png,0,0.978,20,Female,2020-11-15_17h29.18.943,torte-q,2020.1.3,MacIntel,60,13281,0.39659,,,,,0,108,108,117,1,,,,,,,,,,,,,,,,,,,,,,,,,,,,,,,,,,,
,,,,,,,,,,,,a,Incorrect,,,,,,t5.png,t1.png,4,9.55E-11,20,Female,2020-11-15_17h29.18.943,torte-q,2020.1.3,MacIntel,60,13281,0.70117,,,,,0,109,109,102,1,,,,,,,,,,,,,,,,,,,,,,,,,,,,,,,,,,,
,,,,,,,,,,,,a,Correct!,,,,,,t4.png,t3.png,1,0.909,20,Female,2020-11-15_17h29.18.943,torte-q,2020.1.3,MacIntel,60,13281,0.39025,,,,,0,110,110,46,1,,,,,,,,,,,,,,,,,,,,,,,,,,,,,,,,,,,
,,,,,,,,,,,,a,Correct!,,,,,,t4.png,t5.png,1,0.9,20,Female,2020-11-15_17h29.18.943,torte-q,2020.1.3,MacIntel,60,13281,0.74968,,,,,0,111,111,115,1,,,,,,,,,,,,,,,,,,,,,,,,,,,,,,,,,,,
,,,,,,,,,,,,a,Correct!,,,,,,t2.png,t2.png,0,0.98115,20,Female,2020-11-15_17h29.18.943,torte-q,2020.1.3,MacIntel,60,13281,1.92424,,,,,0,112,112,7,1,,,,,,,,,,,,,,,,,,,,,,,,,,,,,,,,,,,
,,,,,,,,,,,,l,Incorrect,,,,,,t1.png,t1.png,0,0.97829,20,Female,2020-11-15_17h29.18.943,torte-q,2020.1.3,MacIntel,60,13281,0.55741,,,,,0,113,113,9,1,,,,,,,,,,,,,,,,,,,,,,,,,,,,,,,,,,,
,,,,,,,,,,,,a,Incorrect,,,,,,t4.png,t1.png,3,0.0000131,20,Female,2020-11-15_17h29.18.943,torte-q,2020.1.3,MacIntel,60,13281,0.43831,,,,,0,114,114,93,1,,,,,,,,,,,,,,,,,,,,,,,,,,,,,,,,,,,
,,,,,,,,,,,,l,Incorrect,,,,,,t3.png,t2.png,1,0.909,20,Female,2020-11-15_17h29.18.943,torte-q,2020.1.3,MacIntel,60,13281,0.424435,,,,,0,115,115,23,1,,,,,,,,,,,,,,,,,,,,,,,,,,,,,,,,,,,
,,,,,,,,,,,,a,Incorrect,,,,,,t1.png,t5.png,4,9.55E-11,20,Female,2020-11-15_17h29.18.943,torte-q,2020.1.3,MacIntel,60,13281,0.45634,,,,,0,116,116,41,1,,,,,,,,,,,,,,,,,,,,,,,,,,,,,,,,,,,
,,,,,,,,,,,,a,Incorrect,,,,,,t2.png,t4.png,2,0.059078,20,Female,2020-11-15_17h29.18.943,torte-q,2020.1.3,MacIntel,60,13281,0.057205,,,,,0,117,117,37,1,,,,,,,,,,,,,,,,,,,,,,,,,,,,,,,,,,,
,,,,,,,,,,,,l,Incorrect,,,,,,t1.png,t2.png,1,0.90025,20,Female,2020-11-15_17h29.18.943,torte-q,2020.1.3,MacIntel,60,13281,0.466645,,,,,0,118,118,105,1,,,,,,,,,,,,,,,,,,,,,,,,,,,,,,,,,,,
,,,,,,,,,,,,l,Correct!,,,,,,t1.png,t4.png,3,0.0000131,20,Female,2020-11-15_17h29.18.943,torte-q,2020.1.3,MacIntel,60,13281,0.26891,,,,,0,119,119,50,1,,,,,,,,,,,,,,,,,,,,,,,,,,,,,,,,,,,
,,,,,,,,,,,,a,Correct!,,,,,,t4.png,t4.png,0,0.98115,20,Female,2020-11-15_17h29.18.943,torte-q,2020.1.3,MacIntel,60,13281,0.785145,space,15.051835,,,,,,,,space,5.512655,space,0.56829,0,0,0,90,1,,,,,,,,,,,,,,,,,,,,,,,,,,
,,,,,,,,,,,,a,Incorrect,,,,,,t5.png,t3.png,2,0.056466,20,Female,2020-11-15_17h29.18.943,torte-q,2020.1.3,MacIntel,60,13281,0.56761,,,,,,,,,,,,,,0,1,1,108,1,,,,,,,,,,,,,,,,,,,,,,,,,,
,,,,,,,,,,,,l,Correct!,,,,,,t1.png,t5.png,4,9.55E-11,20,Female,2020-11-15_17h29.18.943,torte-q,2020.1.3,MacIntel,60,13281,0.60075,,,,,,,,,,,,,,0,2,2,85,1,,,,,,,,,,,,,,,,,,,,,,,,,,
,,,,,,,,,,,,,Too slow :(,,,,,,t1.png,t3.png,2,0.056466,20,Female,2020-11-15_17h29.18.943,torte-q,2020.1.3,MacIntel,60,13281,,,,,,,,,,,,,,,0,3,3,87,1,,,,,,,,,,,,,,,,,,,,,,,,,,
,,,,,,,,,,,,,Too slow :(,,,,,,t1.png,t4.png,3,0.0000131,20,Female,2020-11-15_17h29.18.943,torte-q,2020.1.3,MacIntel,60,13281,,,,,,,,,,,,,,,0,4,4,17,1,,,,,,,,,,,,,,,,,,,,,,,,,,
,,,,,,,,,,,,,Too slow :(,,,,,,t2.png,t2.png,0,0.98115,20,Female,2020-11-15_17h29.18.943,torte-q,2020.1.3,MacIntel,60,13281,,,,,,,,,,,,,,,0,5,5,59,1,,,,,,,,,,,,,,,,,,,,,,,,,,
,,,,,,,,,,,,l,Incorrect,,,,,,t3.png,t2.png,1,0.909,20,Female,2020-11-15_17h29.18.943,torte-q,2020.1.3,MacIntel,60,13281,1.09017,,,,,,,,,,,,,,0,6,6,23,1,,,,,,,,,,,,,,,,,,,,,,,,,,
,,,,,,,,,,,,a,Incorrect,,,,,,t1.png,t5.png,4,9.55E-11,20,Female,2020-11-15_17h29.18.943,torte-q,2020.1.3,MacIntel,60,13281,0.50461,,,,,,,,,,,,,,0,7,7,41,1,,,,,,,,,,,,,,,,,,,,,,,,,,
,,,,,,,,,,,,a,Correct!,,,,,,t5.png,t4.png,1,0.90025,20,Female,2020-11-15_17h29.18.943,torte-q,2020.1.3,MacIntel,60,13281,0.4695,,,,,,,,,,,,,,0,8,8,26,1,,,,,,,,,,,,,,,,,,,,,,,,,,
,,,,,,,,,,,,l,Incorrect,,,,,,t2.png,t3.png,1,0.90855,20,Female,2020-11-15_17h29.18.943,torte-q,2020.1.3,MacIntel,60,13281,1.097235,,,,,,,,,,,,,,0,9,9,68,1,,,,,,,,,,,,,,,,,,,,,,,,,,
,,,,,,,,,,,,a,Correct!,,,,,,t5.png,t5.png,0,0.97829,20,Female,2020-11-15_17h29.18.943,torte-q,2020.1.3,MacIntel,60,13281,0.563035,,,,,,,,,,,,,,0,10,10,25,1,,,,,,,,,,,,,,,,,,,,,,,,,,
,,,,,,,,,,,,a,Incorrect,,,,,,t4.png,t3.png,1,0.909,20,Female,2020-11-15_17h29.18.943,torte-q,2020.1.3,MacIntel,60,13281,0.47223,,,,,,,,,,,,,,0,11,11,20,1,,,,,,,,,,,,,,,,,,,,,,,,,,
,,,,,,,,,,,,l,Correct!,,,,,,t5.png,t1.png,4,9.55E-11,20,Female,2020-11-15_17h29.18.943,torte-q,2020.1.3,MacIntel,60,13281,0.886755,,,,,,,,,,,,,,0,12,12,71,1,,,,,,,,,,,,,,,,,,,,,,,,,,
,,,,,,,,,,,,a,Correct!,,,,,,t3.png,t2.png,1,0.909,20,Female,2020-11-15_17h29.18.943,torte-q,2020.1.3,MacIntel,60,13281,0.39015,,,,,,,,,,,,,,0,13,13,3,1,,,,,,,,,,,,,,,,,,,,,,,,,,
,,,,,,,,,,,,a,Correct!,,,,,,t4.png,t3.png,1,0.90855,20,Female,2020-11-15_17h29.18.943,torte-q,2020.1.3,MacIntel,60,13281,0.469845,,,,,,,,,,,,,,0,14,14,35,1,,,,,,,,,,,,,,,,,,,,,,,,,,
,,,,,,,,,,,,a,Correct!,,,,,,t4.png,t3.png,1,0.90855,20,Female,2020-11-15_17h29.18.943,torte-q,2020.1.3,MacIntel,60,13281,0.381445,,,,,,,,,,,,,,0,15,15,45,1,,,,,,,,,,,,,,,,,,,,,,,,,,
,,,,,,,,,,,,l,Correct!,,,,,,t4.png,t1.png,3,0.0000131,20,Female,2020-11-15_17h29.18.943,torte-q,2020.1.3,MacIntel,60,13281,1.519315,,,,,,,,,,,,,,0,16,16,61,1,,,,,,,,,,,,,,,,,,,,,,,,,,
,,,,,,,,,,,,a,Incorrect,,,,,,t1.png,t3.png,2,0.056466,20,Female,2020-11-15_17h29.18.943,torte-q,2020.1.3,MacIntel,60,13281,0.464005,,,,,,,,,,,,,,0,17,17,69,1,,,,,,,,,,,,,,,,,,,,,,,,,,
,,,,,,,,,,,,,Too slow :(,,,,,,t1.png,t3.png,2,0.056466,20,Female,2020-11-15_17h29.18.943,torte-q,2020.1.3,MacIntel,60,13281,,,,,,,,,,,,,,,0,18,18,60,1,,,,,,,,,,,,,,,,,,,,,,,,,,
,,,,,,,,,,,,a,Correct!,,,,,,t4.png,t5.png,1,0.9,20,Female,2020-11-15_17h29.18.943,torte-q,2020.1.3,MacIntel,60,13281,0.723805,,,,,,,,,,,,,,0,19,19,115,1,,,,,,,,,,,,,,,,,,,,,,,,,,
,,,,,,,,,,,,a,Incorrect,,,,,,t2.png,t4.png,2,0.059078,20,Female,2020-11-15_17h29.18.943,torte-q,2020.1.3,MacIntel,60,13281,2.244345,,,,,,,,,,,,,,0,20,20,77,1,,,,,,,,,,,,,,,,,,,,,,,,,,
,,,,,,,,,,,,a,Incorrect,,,,,,t3.png,t1.png,2,0.0565,20,Female,2020-11-15_17h29.18.943,torte-q,2020.1.3,MacIntel,60,13281,0.61769,,,,,,,,,,,,,,0,21,21,31,1,,,,,,,,,,,,,,,,,,,,,,,,,,
,,,,,,,,,,,,a,Correct!,,,,,,t5.png,t3.png,2,0.056466,20,Female,2020-11-15_17h29.18.943,torte-q,2020.1.3,MacIntel,60,13281,2.2251,,,,,,,,,,,,,,0,22,22,114,1,,,,,,,,,,,,,,,,,,,,,,,,,,
,,,,,,,,,,,,a,Incorrect,,,,,,t2.png,t4.png,2,0.0591,20,Female,2020-11-15_17h29.18.943,torte-q,2020.1.3,MacIntel,60,13281,0.867335,,,,,,,,,,,,,,0,23,23,15,1,,,,,,,,,,,,,,,,,,,,,,,,,,
,,,,,,,,,,,,a,Correct!,,,,,,t2.png,t1.png,1,0.90025,20,Female,2020-11-15_17h29.18.943,torte-q,2020.1.3,MacIntel,60,13281,0.922955,,,,,,,,,,,,,,0,24,24,4,1,,,,,,,,,,,,,,,,,,,,,,,,,,
,,,,,,,,,,,,l,Correct!,,,,,,t4.png,t1.png,3,0.0000131,20,Female,2020-11-15_17h29.18.943,torte-q,2020.1.3,MacIntel,60,13281,0.61732,,,,,,,,,,,,,,0,25,25,13,1,,,,,,,,,,,,,,,,,,,,,,,,,,
,,,,,,,,,,,,l,Incorrect,,,,,,t2.png,t3.png,1,0.90855,20,Female,2020-11-15_17h29.18.943,torte-q,2020.1.3,MacIntel,60,13281,0.25713,,,,,,,,,,,,,,0,26,26,10,1,,,,,,,,,,,,,,,,,,,,,,,,,,
,,,,,,,,,,,,l,Correct!,,,,,,t2.png,t2.png,0,0.98115,20,Female,2020-11-15_17h29.18.943,torte-q,2020.1.3,MacIntel,60,13281,0.36484,,,,,,,,,,,,,,0,27,27,7,1,,,,,,,,,,,,,,,,,,,,,,,,,,
,,,,,,,,,,,,l,Incorrect,,,,,,t2.png,t1.png,1,0.90025,20,Female,2020-11-15_17h29.18.943,torte-q,2020.1.3,MacIntel,60,13281,0.328265,,,,,,,,,,,,,,0,28,28,19,1,,,,,,,,,,,,,,,,,,,,,,,,,,
,,,,,,,,,,,,l,Incorrect,,,,,,t1.png,t2.png,1,0.90025,20,Female,2020-11-15_17h29.18.943,torte-q,2020.1.3,MacIntel,60,13281,0.03436,,,,,,,,,,,,,,0,29,29,72,1,,,,,,,,,,,,,,,,,,,,,,,,,,
,,,,,,,,,,,,a,Incorrect,,,,,,t1.png,t5.png,4,9.55E-11,20,Female,2020-11-15_17h29.18.943,torte-q,2020.1.3,MacIntel,60,13281,0.090725,,,,,,,,,,,,,,0,30,30,12,1,,,,,,,,,,,,,,,,,,,,,,,,,,
,,,,,,,,,,,,l,Correct!,,,,,,t1.png,t5.png,4,9.55E-11,20,Female,2020-11-15_17h29.18.943,torte-q,2020.1.3,MacIntel,60,13281,0.233265,,,,,,,,,,,,,,0,31,31,16,1,,,,,,,,,,,,,,,,,,,,,,,,,,
,,,,,,,,,,,,l,Correct!,,,,,,t3.png,t1.png,2,0.056466,20,Female,2020-11-15_17h29.18.943,torte-q,2020.1.3,MacIntel,60,13281,0.157775,,,,,,,,,,,,,,0,32,32,0,1,,,,,,,,,,,,,,,,,,,,,,,,,,
,,,,,,,,,,,,l,Incorrect,,,,,,t4.png,t3.png,1,0.90855,20,Female,2020-11-15_17h29.18.943,torte-q,2020.1.3,MacIntel,60,13281,0.32387,,,,,,,,,,,,,,0,33,33,75,1,,,,,,,,,,,,,,,,,,,,,,,,,,
,,,,,,,,,,,,l,Incorrect,,,,,,t4.png,t5.png,1,0.90025,20,Female,2020-11-15_17h29.18.943,torte-q,2020.1.3,MacIntel,60,13281,0.30032,,,,,,,,,,,,,,0,34,34,103,1,,,,,,,,,,,,,,,,,,,,,,,,,,
,,,,,,,,,,,,l,Incorrect,,,,,,t3.png,t2.png,1,0.90855,20,Female,2020-11-15_17h29.18.943,torte-q,2020.1.3,MacIntel,60,13281,0.08726,,,,,,,,,,,,,,0,35,35,18,1,,,,,,,,,,,,,,,,,,,,,,,,,,
,,,,,,,,,,,,a,Incorrect,,,,,,t2.png,t5.png,3,0.0000131,20,Female,2020-11-15_17h29.18.943,torte-q,2020.1.3,MacIntel,60,13281,0.001115,,,,,,,,,,,,,,0,36,36,8,1,,,,,,,,,,,,,,,,,,,,,,,,,,
,,,,,,,,,,,,l,Incorrect,,,,,,t4.png,t5.png,1,0.90025,20,Female,2020-11-15_17h29.18.943,torte-q,2020.1.3,MacIntel,60,13281,0.1905,,,,,,,,,,,,,,0,37,37,47,1,,,,,,,,,,,,,,,,,,,,,,,,,,
,,,,,,,,,,,,l,Incorrect,,,,,,t2.png,t1.png,1,0.90025,20,Female,2020-11-15_17h29.18.943,torte-q,2020.1.3,MacIntel,60,13281,0.02272,,,,,,,,,,,,,,0,38,38,62,1,,,,,,,,,,,,,,,,,,,,,,,,,,
,,,,,,,,,,,,l,Incorrect,,,,,,t3.png,t4.png,1,0.90855,20,Female,2020-11-15_17h29.18.943,torte-q,2020.1.3,MacIntel,60,13281,0.159065,,,,,,,,,,,,,,0,39,39,96,1,,,,,,,,,,,,,,,,,,,,,,,,,,
,,,,,,,,,,,,l,Correct!,,,,,,t2.png,t1.png,1,0.90025,20,Female,2020-11-15_17h29.18.943,torte-q,2020.1.3,MacIntel,60,13281,0.03435,,,,,,,,,,,,,,0,40,40,5,1,,,,,,,,,,,,,,,,,,,,,,,,,,
,,,,,,,,,,,,l,Correct!,,,,,,t4.png,t1.png,3,0.0000131,20,Female,2020-11-15_17h29.18.943,torte-q,2020.1.3,MacIntel,60,13281,0.044485,,,,,,,,,,,,,,0,41,41,48,1,,,,,,,,,,,,,,,,,,,,,,,,,,
,,,,,,,,,,,,a,Incorrect,,,,,,t4.png,t2.png,2,0.059078,20,Female,2020-11-15_17h29.18.943,torte-q,2020.1.3,MacIntel,60,13281,2.04827,,,,,,,,,,,,,,0,42,42,88,1,,,,,,,,,,,,,,,,,,,,,,,,,,
,,,,,,,,,,,,l,Correct!,,,,,,t5.png,t1.png,4,9.55E-11,20,Female,2020-11-15_17h29.18.943,torte-q,2020.1.3,MacIntel,60,13281,0.566675,,,,,,,,,,,,,,0,43,43,100,1,,,,,,,,,,,,,,,,,,,,,,,,,,
,,,,,,,,,,,,a,Correct!,,,,,,t5.png,t5.png,0,0.97829,20,Female,2020-11-15_17h29.18.943,torte-q,2020.1.3,MacIntel,60,13281,0.567315,,,,,,,,,,,,,,0,44,44,73,1,,,,,,,,,,,,,,,,,,,,,,,,,,
,,,,,,,,,,,,a,Correct!,,,,,,t5.png,t4.png,1,0.9,20,Female,2020-11-15_17h29.18.943,torte-q,2020.1.3,MacIntel,60,13281,0.566875,,,,,,,,,,,,,,0,45,45,49,1,,,,,,,,,,,,,,,,,,,,,,,,,,
,,,,,,,,,,,,l,Correct!,,,,,,t3.png,t1.png,2,0.056466,20,Female,2020-11-15_17h29.18.943,torte-q,2020.1.3,MacIntel,60,13281,1.10097,,,,,,,,,,,,,,0,46,46,32,1,,,,,,,,,,,,,,,,,,,,,,,,,,
,,,,,,,,,,,,a,Correct!,,,,,,t1.png,t2.png,1,0.90025,20,Female,2020-11-15_17h29.18.943,torte-q,2020.1.3,MacIntel,60,13281,0.388215,,,,,,,,,,,,,,0,47,47,112,1,,,,,,,,,,,,,,,,,,,,,,,,,,
,,,,,,,,,,,,l,Correct!,,,,,,t2.png,t5.png,3,0.0000131,20,Female,2020-11-15_17h29.18.943,torte-q,2020.1.3,MacIntel,60,13281,0.55738,,,,,,,,,,,,,,0,48,48,40,1,,,,,,,,,,,,,,,,,,,,,,,,,,
,,,,,,,,,,,,a,Incorrect,,,,,,t4.png,t2.png,2,0.059078,20,Female,2020-11-15_17h29.18.943,torte-q,2020.1.3,MacIntel,60,13281,1.33975,,,,,,,,,,,,,,0,49,49,109,1,,,,,,,,,,,,,,,,,,,,,,,,,,
,,,,,,,,,,,,l,Correct!,,,,,,t5.png,t2.png,3,0.0000131,20,Female,2020-11-15_17h29.18.943,torte-q,2020.1.3,MacIntel,60,13281,0.574575,,,,,,,,,,,,,,0,50,50,51,1,,,,,,,,,,,,,,,,,,,,,,,,,,
,,,,,,,,,,,,l,Correct!,,,,,,t3.png,t5.png,2,0.0565,20,Female,2020-11-15_17h29.18.943,torte-q,2020.1.3,MacIntel,60,13281,0.820095,,,,,,,,,,,,,,0,51,51,30,1,,,,,,,,,,,,,,,,,,,,,,,,,,
,,,,,,,,,,,,l,Incorrect,,,,,,t4.png,t3.png,1,0.909,20,Female,2020-11-15_17h29.18.943,torte-q,2020.1.3,MacIntel,60,13281,0.29061,,,,,,,,,,,,,,0,52,52,46,1,,,,,,,,,,,,,,,,,,,,,,,,,,
,,,,,,,,,,,,a,Incorrect,,,,,,t1.png,t3.png,2,0.056466,20,Female,2020-11-15_17h29.18.943,torte-q,2020.1.3,MacIntel,60,13281,2.05642,,,,,,,,,,,,,,0,53,53,99,1,,,,,,,,,,,,,,,,,,,,,,,,,,
,,,,,,,,,,,,a,Incorrect,,,,,,t1.png,t4.png,3,0.0000131,20,Female,2020-11-15_17h29.18.943,torte-q,2020.1.3,MacIntel,60,13281,0.56797,,,,,,,,,,,,,,0,54,54,92,1,,,,,,,,,,,,,,,,,,,,,,,,,,
,,,,,,,,,,,,a,Incorrect,,,,,,t2.png,t5.png,3,0.0000131,20,Female,2020-11-15_17h29.18.943,torte-q,2020.1.3,MacIntel,60,13281,1.390225,,,,,,,,,,,,,,0,55,55,95,1,,,,,,,,,,,,,,,,,,,,,,,,,,
,,,,,,,,,,,,l,Correct!,,,,,,t5.png,t2.png,3,0.0000131,20,Female,2020-11-15_17h29.18.943,torte-q,2020.1.3,MacIntel,60,13281,0.485725,,,,,,,,,,,,,,0,56,56,98,1,,,,,,,,,,,,,,,,,,,,,,,,,,
,,,,,,,,,,,,l,Incorrect,,,,,,t5.png,t4.png,1,0.90025,20,Female,2020-11-15_17h29.18.943,torte-q,2020.1.3,MacIntel,60,13281,0.389845,,,,,,,,,,,,,,0,57,57,34,1,,,,,,,,,,,,,,,,,,,,,,,,,,
,,,,,,,,,,,,a,Incorrect,,,,,,t4.png,t1.png,3,0.0000131,20,Female,2020-11-15_17h29.18.943,torte-q,2020.1.3,MacIntel,60,13281,0.390005,,,,,,,,,,,,,,0,58,58,42,1,,,,,,,,,,,,,,,,,,,,,,,,,,
,,,,,,,,,,,,l,Correct!,,,,,,t3.png,t1.png,2,0.056466,20,Female,2020-11-15_17h29.18.943,torte-q,2020.1.3,MacIntel,60,13281,1.761045,,,,,,,,,,,,,,0,59,59,29,1,,,,,,,,,,,,,,,,,,,,,,,,,,
,,,,,,,,,,,,a,Correct!,,,,,,t1.png,t2.png,1,0.9,20,Female,2020-11-15_17h29.18.943,torte-q,2020.1.3,MacIntel,60,13281,0.636575,,,,,,,,,,,,,,0,60,60,1,1,,,,,,,,,,,,,,,,,,,,,,,,,,
,,,,,,,,,,,,l,Correct!,,,,,,t2.png,t5.png,3,0.0000131,20,Female,2020-11-15_17h29.18.943,torte-q,2020.1.3,MacIntel,60,13281,0.39003,,,,,,,,,,,,,,0,61,61,104,1,,,,,,,,,,,,,,,,,,,,,,,,,,
,,,,,,,,,,,,a,Correct!,,,,,,t3.png,t4.png,1,0.909,20,Female,2020-11-15_17h29.18.943,torte-q,2020.1.3,MacIntel,60,13281,2.20205,,,,,,,,,,,,,,0,62,62,106,1,,,,,,,,,,,,,,,,,,,,,,,,,,
,,,,,,,,,,,,l,Correct!,,,,,,t2.png,t5.png,3,0.0000131,20,Female,2020-11-15_17h29.18.943,torte-q,2020.1.3,MacIntel,60,13281,0.37033,,,,,,,,,,,,,,0,63,63,66,1,,,,,,,,,,,,,,,,,,,,,,,,,,
,,,,,,,,,,,,a,Correct!,,,,,,t3.png,t4.png,1,0.909,20,Female,2020-11-15_17h29.18.943,torte-q,2020.1.3,MacIntel,60,13281,2.21839,,,,,,,,,,,,,,0,64,64,89,1,,,,,,,,,,,,,,,,,,,,,,,,,,
,,,,,,,,,,,,l,Incorrect,,,,,,t4.png,t4.png,0,0.98115,20,Female,2020-11-15_17h29.18.943,torte-q,2020.1.3,MacIntel,60,13281,0.601535,,,,,,,,,,,,,,0,65,65,80,1,,,,,,,,,,,,,,,,,,,,,,,,,,
,,,,,,,,,,,,l,Incorrect,,,,,,t1.png,t1.png,0,0.978,20,Female,2020-11-15_17h29.18.943,torte-q,2020.1.3,MacIntel,60,13281,1.790365,,,,,,,,,,,,,,0,66,66,28,1,,,,,,,,,,,,,,,,,,,,,,,,,,
,,,,,,,,,,,,l,Incorrect,,,,,,t1.png,t1.png,0,0.97829,20,Female,2020-11-15_17h29.18.943,torte-q,2020.1.3,MacIntel,60,13281,1.725045,,,,,,,,,,,,,,0,67,67,67,1,,,,,,,,,,,,,,,,,,,,,,,,,,
,,,,,,,,,,,,a,Incorrect,,,,,,t4.png,t2.png,2,0.059078,20,Female,2020-11-15_17h29.18.943,torte-q,2020.1.3,MacIntel,60,13281,0.38968,,,,,,,,,,,,,,0,68,68,110,1,,,,,,,,,,,,,,,,,,,,,,,,,,
,,,,,,,,,,,,a,Incorrect,,,,,,t5.png,t3.png,2,0.0565,20,Female,2020-11-15_17h29.18.943,torte-q,2020.1.3,MacIntel,60,13281,0.865685,,,,,,,,,,,,,,0,69,69,39,1,,,,,,,,,,,,,,,,,,,,,,,,,,
,,,,,,,,,,,,a,Correct!,,,,,,t1.png,t1.png,0,0.97829,20,Female,2020-11-15_17h29.18.943,torte-q,2020.1.3,MacIntel,60,13281,2.307015,,,,,,,,,,,,,,0,70,70,9,1,,,,,,,,,,,,,,,,,,,,,,,,,,
,,,,,,,,,,,,l,Correct!,,,,,,t4.png,t1.png,3,0.0000131,20,Female,2020-11-15_17h29.18.943,torte-q,2020.1.3,MacIntel,60,13281,0.332075,,,,,,,,,,,,,,0,71,71,93,1,,,,,,,,,,,,,,,,,,,,,,,,,,
,,,,,,,,,,,,l,Correct!,,,,,,t2.png,t1.png,1,0.9,20,Female,2020-11-15_17h29.18.943,torte-q,2020.1.3,MacIntel,60,13281,0.535775,,,,,,,,,,,,,,0,72,72,118,1,,,,,,,,,,,,,,,,,,,,,,,,,,
,,,,,,,,,,,,a,Correct!,,,,,,t1.png,t1.png,0,0.97829,20,Female,2020-11-15_17h29.18.943,torte-q,2020.1.3,MacIntel,60,13281,0.523975,,,,,,,,,,,,,,0,73,73,78,1,,,,,,,,,,,,,,,,,,,,,,,,,,
,,,,,,,,,,,,a,Incorrect,,,,,,t5.png,t2.png,3,0.0000131,20,Female,2020-11-15_17h29.18.943,torte-q,2020.1.3,MacIntel,60,13281,0.310525,,,,,,,,,,,,,,0,74,74,116,1,,,,,,,,,,,,,,,,,,,,,,,,,,
,,,,,,,,,,,,l,Correct!,,,,,,t1.png,t3.png,2,0.056466,20,Female,2020-11-15_17h29.18.943,torte-q,2020.1.3,MacIntel,60,13281,0.490495,,,,,,,,,,,,,,0,75,75,63,1,,,,,,,,,,,,,,,,,,,,,,,,,,
,,,,,,,,,,,,l,Incorrect,,,,,,t3.png,t4.png,1,0.909,20,Female,2020-11-15_17h29.18.943,torte-q,2020.1.3,MacIntel,60,13281,0.48461,,,,,,,,,,,,,,0,76,76,82,1,,,,,,,,,,,,,,,,,,,,,,,,,,
,,,,,,,,,,,,l,Incorrect,,,,,,t2.png,t3.png,1,0.90855,20,Female,2020-11-15_17h29.18.943,torte-q,2020.1.3,MacIntel,60,13281,2.27904,,,,,,,,,,,,,,0,77,77,111,1,,,,,,,,,,,,,,,,,,,,,,,,,,
,,,,,,,,,,,,,Too slow :(,,,,,,t3.png,t5.png,2,0.056466,20,Female,2020-11-15_17h29.18.943,torte-q,2020.1.3,MacIntel,60,13281,,,,,,,,,,,,,,,0,78,78,6,1,,,,,,,,,,,,,,,,,,,,,,,,,,
,,,,,,,,,,,,l,Incorrect,,,,,,t2.png,t3.png,1,0.909,20,Female,2020-11-15_17h29.18.943,torte-q,2020.1.3,MacIntel,60,13281,1.105555,,,,,,,,,,,,,,0,79,79,74,1,,,,,,,,,,,,,,,,,,,,,,,,,,
,,,,,,,,,,,,a,Incorrect,,,,,,t4.png,t2.png,2,0.059078,20,Female,2020-11-15_17h29.18.943,torte-q,2020.1.3,MacIntel,60,13281,0.45661,,,,,,,,,,,,,,0,80,80,86,1,,,,,,,,,,,,,,,,,,,,,,,,,,
,,,,,,,,,,,,l,Incorrect,,,,,,t5.png,t4.png,1,0.90025,20,Female,2020-11-15_17h29.18.943,torte-q,2020.1.3,MacIntel,60,13281,0.589585,,,,,,,,,,,,,,0,81,81,27,1,,,,,,,,,,,,,,,,,,,,,,,,,,
,,,,,,,,,,,,a,Incorrect,,,,,,t2.png,t4.png,2,0.059078,20,Female,2020-11-15_17h29.18.943,torte-q,2020.1.3,MacIntel,60,13281,1.17006,,,,,,,,,,,,,,0,82,82,11,1,,,,,,,,,,,,,,,,,,,,,,,,,,
,,,,,,,,,,,,l,Correct!,,,,,,t3.png,t5.png,2,0.056466,20,Female,2020-11-15_17h29.18.943,torte-q,2020.1.3,MacIntel,60,13281,0.413435,,,,,,,,,,,,,,0,83,83,14,1,,,,,,,,,,,,,,,,,,,,,,,,,,
,,,,,,,,,,,,a,Incorrect,,,,,,t5.png,t1.png,4,9.55E-11,20,Female,2020-11-15_17h29.18.943,torte-q,2020.1.3,MacIntel,60,13281,1.418005,,,,,,,,,,,,,,0,84,84,22,1,,,,,,,,,,,,,,,,,,,,,,,,,,
,,,,,,,,,,,,l,Correct!,,,,,,t3.png,t5.png,2,0.056466,20,Female,2020-11-15_17h29.18.943,torte-q,2020.1.3,MacIntel,60,13281,0.512915,,,,,,,,,,,,,,0,85,85,44,1,,,,,,,,,,,,,,,,,,,,,,,,,,
,,,,,,,,,,,,l,Incorrect,,,,,,t1.png,t2.png,1,0.90025,20,Female,2020-11-15_17h29.18.943,torte-q,2020.1.3,MacIntel,60,13281,0.609605,,,,,,,,,,,,,,0,86,86,33,1,,,,,,,,,,,,,,,,,,,,,,,,,,
,,,,,,,,,,,,l,Correct!,,,,,,t3.png,t5.png,2,0.0565,20,Female,2020-11-15_17h29.18.943,torte-q,2020.1.3,MacIntel,60,13281,0.567785,,,,,,,,,,,,,,0,87,87,83,1,,,,,,,,,,,,,,,,,,,,,,,,,,
,,,,,,,,,,,,l,Incorrect,,,,,,t3.png,t2.png,1,0.90855,20,Female,2020-11-15_17h29.18.943,torte-q,2020.1.3,MacIntel,60,13281,0.76688,,,,,,,,,,,,,,0,88,88,53,1,,,,,,,,,,,,,,,,,,,,,,,,,,
,,,,,,,,,,,,l,Incorrect,,,,,,t2.png,t2.png,0,0.981,20,Female,2020-11-15_17h29.18.943,torte-q,2020.1.3,MacIntel,60,13281,0.143545,,,,,,,,,,,,,,0,89,89,101,1,,,,,,,,,,,,,,,,,,,,,,,,,,
,,,,,,,,,,,,a,Correct!,,,,,,t4.png,t4.png,0,0.98115,20,Female,2020-11-15_17h29.18.943,torte-q,2020.1.3,MacIntel,60,13281,0.737655,,,,,,,,,,,,,,0,90,90,21,1,,,,,,,,,,,,,,,,,,,,,,,,,,
,,,,,,,,,,,,a,Correct!,,,,,,t3.png,t4.png,1,0.90855,20,Female,2020-11-15_17h29.18.943,torte-q,2020.1.3,MacIntel,60,13281,0.593595,,,,,,,,,,,,,,0,91,91,84,1,,,,,,,,,,,,,,,,,,,,,,,,,,
,,,,,,,,,,,,a,Correct!,,,,,,t1.png,t2.png,1,0.90025,20,Female,2020-11-15_17h29.18.943,torte-q,2020.1.3,MacIntel,60,13281,1.33281,,,,,,,,,,,,,,0,92,92,105,1,,,,,,,,,,,,,,,,,,,,,,,,,,
,,,,,,,,,,,,a,Correct!,,,,,,t4.png,t5.png,1,0.90025,20,Female,2020-11-15_17h29.18.943,torte-q,2020.1.3,MacIntel,60,13281,1.224185,,,,,,,,,,,,,,0,93,93,113,1,,,,,,,,,,,,,,,,,,,,,,,,,,
,,,,,,,,,,,,a,Correct!,,,,,,t4.png,t5.png,1,0.90025,20,Female,2020-11-15_17h29.18.943,torte-q,2020.1.3,MacIntel,60,13281,1.455695,,,,,,,,,,,,,,0,94,94,58,1,,,,,,,,,,,,,,,,,,,,,,,,,,
,,,,,,,,,,,,l,Incorrect,,,,,,t4.png,t4.png,0,0.98115,20,Female,2020-11-15_17h29.18.943,torte-q,2020.1.3,MacIntel,60,13281,0.32304,,,,,,,,,,,,,,0,95,95,79,1,,,,,,,,,,,,,,,,,,,,,,,,,,
,,,,,,,,,,,,,Too slow :(,,,,,,t5.png,t5.png,0,0.978,20,Female,2020-11-15_17h29.18.943,torte-q,2020.1.3,MacIntel,60,13281,,,,,,,,,,,,,,,0,96,96,117,1,,,,,,,,,,,,,,,,,,,,,,,,,,
,,,,,,,,,,,,,Too slow :(,,,,,,t5.png,t1.png,4,9.55E-11,20,Female,2020-11-15_17h29.18.943,torte-q,2020.1.3,MacIntel,60,13281,,,,,,,,,,,,,,,0,97,97,43,1,,,,,,,,,,,,,,,,,,,,,,,,,,
,,,,,,,,,,,,l,Incorrect,,,,,,t5.png,t5.png,0,0.97829,20,Female,2020-11-15_17h29.18.943,torte-q,2020.1.3,MacIntel,60,13281,1.531655,,,,,,,,,,,,,,0,98,98,70,1,,,,,,,,,,,,,,,,,,,,,,,,,,
,,,,,,,,,,,,a,Correct!,,,,,,t2.png,t3.png,1,0.90855,20,Female,2020-11-15_17h29.18.943,torte-q,2020.1.3,MacIntel,60,13281,0.386825,,,,,,,,,,,,,,0,99,99,65,1,,,,,,,,,,,,,,,,,,,,,,,,,,
,,,,,,,,,,,,,Too slow :(,,,,,,t5.png,t2.png,3,0.0000131,20,Female,2020-11-15_17h29.18.943,torte-q,2020.1.3,MacIntel,60,13281,,,,,,,,,,,,,,,0,100,100,119,1,,,,,,,,,,,,,,,,,,,,,,,,,,
,,,,,,,,,,,,a,Incorrect,,,,,,t2.png,t4.png,2,0.059078,20,Female,2020-11-15_17h29.18.943,torte-q,2020.1.3,MacIntel,60,13281,0.365945,,,,,,,,,,,,,,0,101,101,37,1,,,,,,,,,,,,,,,,,,,,,,,,,,
,,,,,,,,,,,,a,Correct!,,,,,,t5.png,t4.png,1,0.9,20,Female,2020-11-15_17h29.18.943,torte-q,2020.1.3,MacIntel,60,13281,1.358375,,,,,,,,,,,,,,0,102,102,76,1,,,,,,,,,,,,,,,,,,,,,,,,,,
,,,,,,,,,,,,l,Incorrect,,,,,,t2.png,t2.png,0,0.98115,20,Female,2020-11-15_17h29.18.943,torte-q,2020.1.3,MacIntel,60,13281,1.200735,,,,,,,,,,,,,,0,103,103,57,1,,,,,,,,,,,,,,,,,,,,,,,,,,
,,,,,,,,,,,,a,Incorrect,,,,,,t3.png,t1.png,2,0.056466,20,Female,2020-11-15_17h29.18.943,torte-q,2020.1.3,MacIntel,60,13281,0.902765,,,,,,,,,,,,,,0,104,104,64,1,,,,,,,,,,,,,,,,,,,,,,,,,,
,,,,,,,,,,,,l,Incorrect,,,,,,t5.png,t5.png,0,0.97829,20,Female,2020-11-15_17h29.18.943,torte-q,2020.1.3,MacIntel,60,13281,0.09146,,,,,,,,,,,,,,0,105,105,94,1,,,,,,,,,,,,,,,,,,,,,,,,,,
,,,,,,,,,,,,a,Incorrect,,,,,,t1.png,t5.png,4,9.55E-11,20,Female,2020-11-15_17h29.18.943,torte-q,2020.1.3,MacIntel,60,13281,0.60151,,,,,,,,,,,,,,0,106,106,55,1,,,,,,,,,,,,,,,,,,,,,,,,,,
,,,,,,,,,,,,l,Correct!,,,,,,t5.png,t1.png,4,9.55E-11,20,Female,2020-11-15_17h29.18.943,torte-q,2020.1.3,MacIntel,60,13281,0.658075,,,,,,,,,,,,,,0,107,107,102,1,,,,,,,,,,,,,,,,,,,,,,,,,,
,,,,,,,,,,,,a,Correct!,,,,,,t3.png,t2.png,1,0.90855,20,Female,2020-11-15_17h29.18.943,torte-q,2020.1.3,MacIntel,60,13281,1.30703,,,,,,,,,,,,,,0,108,108,97,1,,,,,,,,,,,,,,,,,,,,,,,,,,
,,,,,,,,,,,,a,Incorrect,,,,,,t5.png,t3.png,2,0.056466,20,Female,2020-11-15_17h29.18.943,torte-q,2020.1.3,MacIntel,60,13281,0.433935,,,,,,,,,,,,,,0,109,109,38,1,,,,,,,,,,,,,,,,,,,,,,,,,,
,,,,,,,,,,,,l,Correct!,,,,,,t5.png,t2.png,3,0.0000131,20,Female,2020-11-15_17h29.18.943,torte-q,2020.1.3,MacIntel,60,13281,0.257685,,,,,,,,,,,,,,0,110,110,91,1,,,,,,,,,,,,,,,,,,,,,,,,,,
,,,,,,,,,,,,,Too slow :(,,,,,,t4.png,t4.png,0,0.98115,20,Female,2020-11-15_17h29.18.943,torte-q,2020.1.3,MacIntel,60,13281,,,,,,,,,,,,,,,0,111,111,52,1,,,,,,,,,,,,,,,,,,,,,,,,,,
,,,,,,,,,,,,l,Incorrect,,,,,,t1.png,t1.png,0,0.978,20,Female,2020-11-15_17h29.18.943,torte-q,2020.1.3,MacIntel,60,13281,1.091225,,,,,,,,,,,,,,0,112,112,54,1,,,,,,,,,,,,,,,,,,,,,,,,,,
,,,,,,,,,,,,a,Incorrect,,,,,,t1.png,t4.png,3,0.0000131,20,Female,2020-11-15_17h29.18.943,torte-q,2020.1.3,MacIntel,60,13281,0.528235,,,,,,,,,,,,,,0,113,113,81,1,,,,,,,,,,,,,,,,,,,,,,,,,,
,,,,,,,,,,,,l,Incorrect,,,,,,t5.png,t3.png,2,0.056466,20,Female,2020-11-15_17h29.18.943,torte-q,2020.1.3,MacIntel,60,13281,0.300055,,,,,,,,,,,,,,0,114,114,56,1,,,,,,,,,,,,,,,,,,,,,,,,,,
,,,,,,,,,,,,a,Incorrect,,,,,,t2.png,t4.png,2,0.059078,20,Female,2020-11-15_17h29.18.943,torte-q,2020.1.3,MacIntel,60,13281,0.3602,,,,,,,,,,,,,,0,115,115,24,1,,,,,,,,,,,,,,,,,,,,,,,,,,
,,,,,,,,,,,,a,Incorrect,,,,,,t4.png,t2.png,2,0.0591,20,Female,2020-11-15_17h29.18.943,torte-q,2020.1.3,MacIntel,60,13281,0.234825,,,,,,,,,,,,,,0,116,116,36,1,,,,,,,,,,,,,,,,,,,,,,,,,,
,,,,,,,,,,,,a,Incorrect,,,,,,t1.png,t4.png,3,0.0000131,20,Female,2020-11-15_17h29.18.943,torte-q,2020.1.3,MacIntel,60,13281,0.38922,,,,,,,,,,,,,,0,117,117,107,1,,,,,,,,,,,,,,,,,,,,,,,,,,
,,,,,,,,,,,,l,Incorrect,,,,,,t2.png,t2.png,0,0.98115,20,Female,2020-11-15_17h29.18.943,torte-q,2020.1.3,MacIntel,60,13281,0.397,,,,,,,,,,,,,,0,118,118,2,1,,,,,,,,,,,,,,,,,,,,,,,,,,
,,,,,,,,,,,,l,Correct!,,,,,,t1.png,t4.png,3,0.0000131,20,Female,2020-11-15_17h29.18.943,torte-q,2020.1.3,MacIntel,60,13281,0.08693,,,,,,,,,,,,,,0,119,119,50,1,,,,,,,,,,,,,,,,,,,,,,,,,,
,,,,,,,,,,,,,,,,,,,,,,,20,Female,2020-11-15_17h29.18.943,torte-q,2020.1.3,MacIntel,60,13281,,space,5.207165,,,,,,,,,,,,,,,,,2.994707031,9.14906,20.171875,-180.8085938,1,0,0,s7,41.28515625,-32.55859375,1,0,0,t3,-349.8867188,-97.1953125,1,0,0,withdraw,space,1.360095,space,0.65564,space,1.05378
