key_resp_8.keys,key_resp_8.rt,key_resp_9.keys,key_resp_9.rt,key_resp_10.keys,key_resp_10.rt,key_resp_11.keys,key_resp_11.rt,key_resp_2.keys,key_resp_2.rt,key_resp_3.keys,key_resp_3.rt,key_resp.keys,key_resp.rt,Feedback,train.thisRepN,train.thisTrialN,train.thisN,train.thisIndex,train.ran,torta_sx,torta_dx,difference,probability,age,gender,date,expName,psychopyVersion,OS,frameRate,participant,key_resp_15.keys,key_resp_15.rt,key_resp_6.keys,key_resp_6.rt,test1.thisRepN,test1.thisTrialN,test1.thisN,test1.thisIndex,test1.ran,key_resp_16.keys,key_resp_16.rt,key_resp_7.keys,key_resp_7.rt,test2.thisRepN,test2.thisTrialN,test2.thisN,test2.thisIndex,test2.ran,rating.response,rating.rt,mouse.x,mouse.y,mouse.leftButton,mouse.midButton,mouse.rightButton,mouse.clicked_name,mouse_2.x,mouse_2.y,mouse_2.leftButton,mouse_2.midButton,mouse_2.rightButton,mouse_2.clicked_name,mouse_3.x,mouse_3.y,mouse_3.leftButton,mouse_3.midButton,mouse_3.rightButton,mouse_3.clicked_name,key_resp_12.keys,key_resp_12.rt,key_resp_13.keys,key_resp_13.rt,key_resp_14.keys,key_resp_14.rt
space,10.34227,space,3.15843,space,4.241275,space,7.880775,space,35.455965,space,46.24135,l,1.63991,Correct!,0,0,0,40,1,t1.png,t5.png,4,9.55E-11,19,Female,2020-10-14_11h30.49.454,torte-q,2020.1.3,Win32,60,13285,,,,,,,,,,,,,,,,,,,,,,,,,,,,,,,,,,,,,,,,,,,,
,,,,,,,,,,,,a,0.624565,Incorrect,0,1,1,41,1,t3.png,t2.png,1,0.90855,19,Female,2020-10-14_11h30.49.454,torte-q,2020.1.3,Win32,60,13285,,,,,,,,,,,,,,,,,,,,,,,,,,,,,,,,,,,,,,,,,,,,
,,,,,,,,,,,,l,1.691885,Correct!,0,2,2,99,1,t1.png,t5.png,4,9.55E-11,19,Female,2020-10-14_11h30.49.454,torte-q,2020.1.3,Win32,60,13285,,,,,,,,,,,,,,,,,,,,,,,,,,,,,,,,,,,,,,,,,,,,
,,,,,,,,,,,,a,1.459875,Incorrect,0,3,3,12,1,t5.png,t1.png,4,9.55E-11,19,Female,2020-10-14_11h30.49.454,torte-q,2020.1.3,Win32,60,13285,,,,,,,,,,,,,,,,,,,,,,,,,,,,,,,,,,,,,,,,,,,,
,,,,,,,,,,,,l,1.33332,Correct!,0,4,4,31,1,t1.png,t5.png,4,9.55E-11,19,Female,2020-10-14_11h30.49.454,torte-q,2020.1.3,Win32,60,13285,,,,,,,,,,,,,,,,,,,,,,,,,,,,,,,,,,,,,,,,,,,,
,,,,,,,,,,,,l,1.458155,Incorrect,0,5,5,81,1,t1.png,t1.png,0,0.97829,19,Female,2020-10-14_11h30.49.454,torte-q,2020.1.3,Win32,60,13285,,,,,,,,,,,,,,,,,,,,,,,,,,,,,,,,,,,,,,,,,,,,
,,,,,,,,,,,,,,Too slow :(,0,6,6,23,1,t5.png,t4.png,1,0.90025,19,Female,2020-10-14_11h30.49.454,torte-q,2020.1.3,Win32,60,13285,,,,,,,,,,,,,,,,,,,,,,,,,,,,,,,,,,,,,,,,,,,,
,,,,,,,,,,,,a,1.10079,Incorrect,0,7,7,86,1,t3.png,t1.png,2,0.056466,19,Female,2020-10-14_11h30.49.454,torte-q,2020.1.3,Win32,60,13285,,,,,,,,,,,,,,,,,,,,,,,,,,,,,,,,,,,,,,,,,,,,
,,,,,,,,,,,,a,1.82651,Correct!,0,8,8,76,1,t3.png,t2.png,1,0.90855,19,Female,2020-10-14_11h30.49.454,torte-q,2020.1.3,Win32,60,13285,,,,,,,,,,,,,,,,,,,,,,,,,,,,,,,,,,,,,,,,,,,,
,,,,,,,,,,,,a,1.422085,Correct!,0,9,9,84,1,t1.png,t1.png,0,0.97829,19,Female,2020-10-14_11h30.49.454,torte-q,2020.1.3,Win32,60,13285,,,,,,,,,,,,,,,,,,,,,,,,,,,,,,,,,,,,,,,,,,,,
,,,,,,,,,,,,l,1.04457,Correct!,0,10,10,82,1,t5.png,t1.png,4,9.55E-11,19,Female,2020-10-14_11h30.49.454,torte-q,2020.1.3,Win32,60,13285,,,,,,,,,,,,,,,,,,,,,,,,,,,,,,,,,,,,,,,,,,,,
,,,,,,,,,,,,a,0.831285,Incorrect,0,11,11,60,1,t2.png,t4.png,2,0.059078,19,Female,2020-10-14_11h30.49.454,torte-q,2020.1.3,Win32,60,13285,,,,,,,,,,,,,,,,,,,,,,,,,,,,,,,,,,,,,,,,,,,,
,,,,,,,,,,,,l,1.52788,Incorrect,0,12,12,48,1,t5.png,t5.png,0,0.97829,19,Female,2020-10-14_11h30.49.454,torte-q,2020.1.3,Win32,60,13285,,,,,,,,,,,,,,,,,,,,,,,,,,,,,,,,,,,,,,,,,,,,
,,,,,,,,,,,,a,1.4648,Incorrect,0,13,13,61,1,t1.png,t4.png,3,0.0000131,19,Female,2020-10-14_11h30.49.454,torte-q,2020.1.3,Win32,60,13285,,,,,,,,,,,,,,,,,,,,,,,,,,,,,,,,,,,,,,,,,,,,
,,,,,,,,,,,,a,1.25962,Correct!,0,14,14,70,1,t5.png,t5.png,0,0.978,19,Female,2020-10-14_11h30.49.454,torte-q,2020.1.3,Win32,60,13285,,,,,,,,,,,,,,,,,,,,,,,,,,,,,,,,,,,,,,,,,,,,
,,,,,,,,,,,,a,1.04345,Incorrect,0,15,15,69,1,t4.png,t2.png,2,0.059078,19,Female,2020-10-14_11h30.49.454,torte-q,2020.1.3,Win32,60,13285,,,,,,,,,,,,,,,,,,,,,,,,,,,,,,,,,,,,,,,,,,,,
,,,,,,,,,,,,l,1.167415,Incorrect,0,16,16,96,1,t1.png,t1.png,0,0.97829,19,Female,2020-10-14_11h30.49.454,torte-q,2020.1.3,Win32,60,13285,,,,,,,,,,,,,,,,,,,,,,,,,,,,,,,,,,,,,,,,,,,,
,,,,,,,,,,,,l,2.326445,Correct!,0,17,17,89,1,t1.png,t4.png,3,0.0000131,19,Female,2020-10-14_11h30.49.454,torte-q,2020.1.3,Win32,60,13285,,,,,,,,,,,,,,,,,,,,,,,,,,,,,,,,,,,,,,,,,,,,
,,,,,,,,,,,,,,Too slow :(,0,18,18,10,1,t2.png,t3.png,1,0.90855,19,Female,2020-10-14_11h30.49.454,torte-q,2020.1.3,Win32,60,13285,,,,,,,,,,,,,,,,,,,,,,,,,,,,,,,,,,,,,,,,,,,,
,,,,,,,,,,,,a,0.80178,Incorrect,0,19,19,50,1,t5.png,t1.png,4,9.55E-11,19,Female,2020-10-14_11h30.49.454,torte-q,2020.1.3,Win32,60,13285,,,,,,,,,,,,,,,,,,,,,,,,,,,,,,,,,,,,,,,,,,,,
,,,,,,,,,,,,,,Too slow :(,0,20,20,19,1,t4.png,t2.png,2,0.059078,19,Female,2020-10-14_11h30.49.454,torte-q,2020.1.3,Win32,60,13285,,,,,,,,,,,,,,,,,,,,,,,,,,,,,,,,,,,,,,,,,,,,
,,,,,,,,,,,,a,0.703525,Correct!,0,21,21,74,1,t5.png,t4.png,1,0.9,19,Female,2020-10-14_11h30.49.454,torte-q,2020.1.3,Win32,60,13285,,,,,,,,,,,,,,,,,,,,,,,,,,,,,,,,,,,,,,,,,,,,
,,,,,,,,,,,,l,1.151225,Incorrect,0,22,22,52,1,t2.png,t4.png,2,0.059078,19,Female,2020-10-14_11h30.49.454,torte-q,2020.1.3,Win32,60,13285,,,,,,,,,,,,,,,,,,,,,,,,,,,,,,,,,,,,,,,,,,,,
,,,,,,,,,,,,a,0.87328,Incorrect,0,23,23,24,1,t4.png,t2.png,2,0.059078,19,Female,2020-10-14_11h30.49.454,torte-q,2020.1.3,Win32,60,13285,,,,,,,,,,,,,,,,,,,,,,,,,,,,,,,,,,,,,,,,,,,,
,,,,,,,,,,,,l,0.994535,Incorrect,0,24,24,34,1,t5.png,t4.png,1,0.9,19,Female,2020-10-14_11h30.49.454,torte-q,2020.1.3,Win32,60,13285,,,,,,,,,,,,,,,,,,,,,,,,,,,,,,,,,,,,,,,,,,,,
,,,,,,,,,,,,a,1.81653,Correct!,0,25,25,18,1,t4.png,t5.png,1,0.90025,19,Female,2020-10-14_11h30.49.454,torte-q,2020.1.3,Win32,60,13285,,,,,,,,,,,,,,,,,,,,,,,,,,,,,,,,,,,,,,,,,,,,
,,,,,,,,,,,,a,0.775215,Correct!,0,26,26,78,1,t1.png,t1.png,0,0.978,19,Female,2020-10-14_11h30.49.454,torte-q,2020.1.3,Win32,60,13285,,,,,,,,,,,,,,,,,,,,,,,,,,,,,,,,,,,,,,,,,,,,
,,,,,,,,,,,,l,1.749065,Incorrect,0,27,27,92,1,t2.png,t3.png,1,0.909,19,Female,2020-10-14_11h30.49.454,torte-q,2020.1.3,Win32,60,13285,,,,,,,,,,,,,,,,,,,,,,,,,,,,,,,,,,,,,,,,,,,,
,,,,,,,,,,,,a,0.28189,Correct!,0,28,28,65,1,t4.png,t5.png,1,0.90025,19,Female,2020-10-14_11h30.49.454,torte-q,2020.1.3,Win32,60,13285,,,,,,,,,,,,,,,,,,,,,,,,,,,,,,,,,,,,,,,,,,,,
,,,,,,,,,,,,a,0.611735,Incorrect,0,29,29,73,1,t4.png,t2.png,2,0.059078,19,Female,2020-10-14_11h30.49.454,torte-q,2020.1.3,Win32,60,13285,,,,,,,,,,,,,,,,,,,,,,,,,,,,,,,,,,,,,,,,,,,,
,,,,,,,,,,,,l,1.277075,Incorrect,0,30,30,7,1,t4.png,t5.png,1,0.90025,19,Female,2020-10-14_11h30.49.454,torte-q,2020.1.3,Win32,60,13285,,,,,,,,,,,,,,,,,,,,,,,,,,,,,,,,,,,,,,,,,,,,
,,,,,,,,,,,,a,0.53285,Incorrect,0,31,31,55,1,t2.png,t4.png,2,0.059078,19,Female,2020-10-14_11h30.49.454,torte-q,2020.1.3,Win32,60,13285,,,,,,,,,,,,,,,,,,,,,,,,,,,,,,,,,,,,,,,,,,,,
,,,,,,,,,,,,l,0.76776,Correct!,0,32,32,90,1,t1.png,t5.png,4,9.55E-11,19,Female,2020-10-14_11h30.49.454,torte-q,2020.1.3,Win32,60,13285,,,,,,,,,,,,,,,,,,,,,,,,,,,,,,,,,,,,,,,,,,,,
,,,,,,,,,,,,l,2.091445,Incorrect,0,33,33,85,1,t3.png,t2.png,1,0.90855,19,Female,2020-10-14_11h30.49.454,torte-q,2020.1.3,Win32,60,13285,,,,,,,,,,,,,,,,,,,,,,,,,,,,,,,,,,,,,,,,,,,,
,,,,,,,,,,,,l,0.94413,Correct!,0,34,34,117,1,t1.png,t5.png,4,9.55E-11,19,Female,2020-10-14_11h30.49.454,torte-q,2020.1.3,Win32,60,13285,,,,,,,,,,,,,,,,,,,,,,,,,,,,,,,,,,,,,,,,,,,,
,,,,,,,,,,,,a,1.230405,Correct!,0,35,35,16,1,t5.png,t4.png,1,0.9,19,Female,2020-10-14_11h30.49.454,torte-q,2020.1.3,Win32,60,13285,,,,,,,,,,,,,,,,,,,,,,,,,,,,,,,,,,,,,,,,,,,,
,,,,,,,,,,,,l,0.85557,Incorrect,0,36,36,49,1,t4.png,t5.png,1,0.9,19,Female,2020-10-14_11h30.49.454,torte-q,2020.1.3,Win32,60,13285,,,,,,,,,,,,,,,,,,,,,,,,,,,,,,,,,,,,,,,,,,,,
,,,,,,,,,,,,a,0.61045,Incorrect,0,37,37,71,1,t5.png,t5.png,0,0.97829,19,Female,2020-10-14_11h30.49.454,torte-q,2020.1.3,Win32,60,13285,,,,,,,,,,,,,,,,,,,,,,,,,,,,,,,,,,,,,,,,,,,,
,,,,,,,,,,,,a,0.87067,Incorrect,0,38,38,0,1,t5.png,t1.png,4,9.55E-11,19,Female,2020-10-14_11h30.49.454,torte-q,2020.1.3,Win32,60,13285,,,,,,,,,,,,,,,,,,,,,,,,,,,,,,,,,,,,,,,,,,,,
,,,,,,,,,,,,l,0.835415,Incorrect,0,39,39,28,1,t2.png,t3.png,1,0.909,19,Female,2020-10-14_11h30.49.454,torte-q,2020.1.3,Win32,60,13285,,,,,,,,,,,,,,,,,,,,,,,,,,,,,,,,,,,,,,,,,,,,
,,,,,,,,,,,,l,0.685365,Correct!,0,40,40,87,1,t5.png,t1.png,4,9.55E-11,19,Female,2020-10-14_11h30.49.454,torte-q,2020.1.3,Win32,60,13285,,,,,,,,,,,,,,,,,,,,,,,,,,,,,,,,,,,,,,,,,,,,
,,,,,,,,,,,,a,1.02603,Incorrect,0,41,41,67,1,t1.png,t5.png,4,9.55E-11,19,Female,2020-10-14_11h30.49.454,torte-q,2020.1.3,Win32,60,13285,,,,,,,,,,,,,,,,,,,,,,,,,,,,,,,,,,,,,,,,,,,,
,,,,,,,,,,,,,,Too slow :(,0,42,42,8,1,t3.png,t2.png,1,0.90855,19,Female,2020-10-14_11h30.49.454,torte-q,2020.1.3,Win32,60,13285,,,,,,,,,,,,,,,,,,,,,,,,,,,,,,,,,,,,,,,,,,,,
,,,,,,,,,,,,l,0.76525,Correct!,0,43,43,1,1,t2.png,t4.png,2,0.059078,19,Female,2020-10-14_11h30.49.454,torte-q,2020.1.3,Win32,60,13285,,,,,,,,,,,,,,,,,,,,,,,,,,,,,,,,,,,,,,,,,,,,
,,,,,,,,,,,,a,0.70561,Incorrect,0,44,44,80,1,t1.png,t4.png,3,0.0000131,19,Female,2020-10-14_11h30.49.454,torte-q,2020.1.3,Win32,60,13285,,,,,,,,,,,,,,,,,,,,,,,,,,,,,,,,,,,,,,,,,,,,
,,,,,,,,,,,,l,0.41003,Incorrect,0,45,45,112,1,t1.png,t1.png,0,0.97829,19,Female,2020-10-14_11h30.49.454,torte-q,2020.1.3,Win32,60,13285,,,,,,,,,,,,,,,,,,,,,,,,,,,,,,,,,,,,,,,,,,,,
,,,,,,,,,,,,l,0.616975,Incorrect,0,46,46,101,1,t4.png,t5.png,1,0.90025,19,Female,2020-10-14_11h30.49.454,torte-q,2020.1.3,Win32,60,13285,,,,,,,,,,,,,,,,,,,,,,,,,,,,,,,,,,,,,,,,,,,,
,,,,,,,,,,,,l,0.951495,Correct!,0,47,47,119,1,t1.png,t5.png,4,9.55E-11,19,Female,2020-10-14_11h30.49.454,torte-q,2020.1.3,Win32,60,13285,,,,,,,,,,,,,,,,,,,,,,,,,,,,,,,,,,,,,,,,,,,,
,,,,,,,,,,,,a,2.13841,Incorrect,0,48,48,5,1,t2.png,t4.png,2,0.059078,19,Female,2020-10-14_11h30.49.454,torte-q,2020.1.3,Win32,60,13285,,,,,,,,,,,,,,,,,,,,,,,,,,,,,,,,,,,,,,,,,,,,
,,,,,,,,,,,,l,0.71554,Incorrect,0,49,49,110,1,t4.png,t5.png,1,0.90025,19,Female,2020-10-14_11h30.49.454,torte-q,2020.1.3,Win32,60,13285,,,,,,,,,,,,,,,,,,,,,,,,,,,,,,,,,,,,,,,,,,,,
,,,,,,,,,,,,a,2.065765,Incorrect,0,50,50,116,1,t5.png,t4.png,1,0.90025,19,Female,2020-10-14_11h30.49.454,torte-q,2020.1.3,Win32,60,13285,,,,,,,,,,,,,,,,,,,,,,,,,,,,,,,,,,,,,,,,,,,,
,,,,,,,,,,,,a,1.08726,Correct!,0,51,51,95,1,t1.png,t1.png,0,0.978,19,Female,2020-10-14_11h30.49.454,torte-q,2020.1.3,Win32,60,13285,,,,,,,,,,,,,,,,,,,,,,,,,,,,,,,,,,,,,,,,,,,,
,,,,,,,,,,,,a,0.87046,Incorrect,0,52,52,72,1,t4.png,t2.png,2,0.059078,19,Female,2020-10-14_11h30.49.454,torte-q,2020.1.3,Win32,60,13285,,,,,,,,,,,,,,,,,,,,,,,,,,,,,,,,,,,,,,,,,,,,
,,,,,,,,,,,,l,0.490575,Incorrect,0,53,53,63,1,t2.png,t3.png,1,0.909,19,Female,2020-10-14_11h30.49.454,torte-q,2020.1.3,Win32,60,13285,,,,,,,,,,,,,,,,,,,,,,,,,,,,,,,,,,,,,,,,,,,,
,,,,,,,,,,,,l,0.281395,Incorrect,0,54,54,118,1,t5.png,t5.png,0,0.978,19,Female,2020-10-14_11h30.49.454,torte-q,2020.1.3,Win32,60,13285,,,,,,,,,,,,,,,,,,,,,,,,,,,,,,,,,,,,,,,,,,,,
,,,,,,,,,,,,a,0.726165,Correct!,0,55,55,100,1,t4.png,t5.png,1,0.90025,19,Female,2020-10-14_11h30.49.454,torte-q,2020.1.3,Win32,60,13285,,,,,,,,,,,,,,,,,,,,,,,,,,,,,,,,,,,,,,,,,,,,
,,,,,,,,,,,,l,0.84273,Correct!,0,56,56,36,1,t3.png,t1.png,2,0.0565,19,Female,2020-10-14_11h30.49.454,torte-q,2020.1.3,Win32,60,13285,,,,,,,,,,,,,,,,,,,,,,,,,,,,,,,,,,,,,,,,,,,,
,,,,,,,,,,,,a,0.350295,Correct!,0,57,57,113,1,t5.png,t4.png,1,0.9,19,Female,2020-10-14_11h30.49.454,torte-q,2020.1.3,Win32,60,13285,,,,,,,,,,,,,,,,,,,,,,,,,,,,,,,,,,,,,,,,,,,,
,,,,,,,,,,,,a,0.375685,Correct!,0,58,58,42,1,t5.png,t4.png,1,0.90025,19,Female,2020-10-14_11h30.49.454,torte-q,2020.1.3,Win32,60,13285,,,,,,,,,,,,,,,,,,,,,,,,,,,,,,,,,,,,,,,,,,,,
,,,,,,,,,,,,a,0.73813,Incorrect,0,59,59,53,1,t3.png,t1.png,2,0.056466,19,Female,2020-10-14_11h30.49.454,torte-q,2020.1.3,Win32,60,13285,,,,,,,,,,,,,,,,,,,,,,,,,,,,,,,,,,,,,,,,,,,,
,,,,,,,,,,,,l,0.26742,Incorrect,0,60,60,58,1,t5.png,t4.png,1,0.90025,19,Female,2020-10-14_11h30.49.454,torte-q,2020.1.3,Win32,60,13285,,,,,,,,,,,,,,,,,,,,,,,,,,,,,,,,,,,,,,,,,,,,
,,,,,,,,,,,,a,0.34418,Correct!,0,61,61,21,1,t5.png,t4.png,1,0.90025,19,Female,2020-10-14_11h30.49.454,torte-q,2020.1.3,Win32,60,13285,,,,,,,,,,,,,,,,,,,,,,,,,,,,,,,,,,,,,,,,,,,,
,,,,,,,,,,,,a,0.4758,Incorrect,0,62,62,91,1,t1.png,t4.png,3,0.0000131,19,Female,2020-10-14_11h30.49.454,torte-q,2020.1.3,Win32,60,13285,,,,,,,,,,,,,,,,,,,,,,,,,,,,,,,,,,,,,,,,,,,,
,,,,,,,,,,,,l,0.3711,Incorrect,0,63,63,105,1,t3.png,t2.png,1,0.90855,19,Female,2020-10-14_11h30.49.454,torte-q,2020.1.3,Win32,60,13285,,,,,,,,,,,,,,,,,,,,,,,,,,,,,,,,,,,,,,,,,,,,
,,,,,,,,,,,,l,0.540345,Incorrect,0,64,64,25,1,t5.png,t5.png,0,0.97829,19,Female,2020-10-14_11h30.49.454,torte-q,2020.1.3,Win32,60,13285,,,,,,,,,,,,,,,,,,,,,,,,,,,,,,,,,,,,,,,,,,,,
,,,,,,,,,,,,a,0.31005,Incorrect,0,65,65,26,1,t4.png,t2.png,2,0.0591,19,Female,2020-10-14_11h30.49.454,torte-q,2020.1.3,Win32,60,13285,,,,,,,,,,,,,,,,,,,,,,,,,,,,,,,,,,,,,,,,,,,,
,,,,,,,,,,,,a,1.265585,Correct!,0,66,66,75,1,t1.png,t1.png,0,0.97829,19,Female,2020-10-14_11h30.49.454,torte-q,2020.1.3,Win32,60,13285,,,,,,,,,,,,,,,,,,,,,,,,,,,,,,,,,,,,,,,,,,,,
,,,,,,,,,,,,l,0.99965,Correct!,0,67,67,98,1,t2.png,t4.png,2,0.0591,19,Female,2020-10-14_11h30.49.454,torte-q,2020.1.3,Win32,60,13285,,,,,,,,,,,,,,,,,,,,,,,,,,,,,,,,,,,,,,,,,,,,
,,,,,,,,,,,,a,0.69743,Correct!,0,68,68,39,1,t3.png,t2.png,1,0.90855,19,Female,2020-10-14_11h30.49.454,torte-q,2020.1.3,Win32,60,13285,,,,,,,,,,,,,,,,,,,,,,,,,,,,,,,,,,,,,,,,,,,,
,,,,,,,,,,,,a,0.99342,Incorrect,0,69,69,38,1,t3.png,t1.png,2,0.056466,19,Female,2020-10-14_11h30.49.454,torte-q,2020.1.3,Win32,60,13285,,,,,,,,,,,,,,,,,,,,,,,,,,,,,,,,,,,,,,,,,,,,
,,,,,,,,,,,,l,1.53597,Incorrect,0,70,70,66,1,t4.png,t5.png,1,0.9,19,Female,2020-10-14_11h30.49.454,torte-q,2020.1.3,Win32,60,13285,,,,,,,,,,,,,,,,,,,,,,,,,,,,,,,,,,,,,,,,,,,,
,,,,,,,,,,,,a,1.51659,Incorrect,0,71,71,4,1,t1.png,t5.png,4,9.55E-11,19,Female,2020-10-14_11h30.49.454,torte-q,2020.1.3,Win32,60,13285,,,,,,,,,,,,,,,,,,,,,,,,,,,,,,,,,,,,,,,,,,,,
,,,,,,,,,,,,a,1.55585,Incorrect,0,72,72,108,1,t5.png,t1.png,4,9.55E-11,19,Female,2020-10-14_11h30.49.454,torte-q,2020.1.3,Win32,60,13285,,,,,,,,,,,,,,,,,,,,,,,,,,,,,,,,,,,,,,,,,,,,
,,,,,,,,,,,,a,2.020555,Incorrect,0,73,73,111,1,t5.png,t1.png,4,9.55E-11,19,Female,2020-10-14_11h30.49.454,torte-q,2020.1.3,Win32,60,13285,,,,,,,,,,,,,,,,,,,,,,,,,,,,,,,,,,,,,,,,,,,,
,,,,,,,,,,,,a,0.974855,Incorrect,0,74,74,47,1,t4.png,t2.png,2,0.059078,19,Female,2020-10-14_11h30.49.454,torte-q,2020.1.3,Win32,60,13285,,,,,,,,,,,,,,,,,,,,,,,,,,,,,,,,,,,,,,,,,,,,
,,,,,,,,,,,,l,0.51711,Incorrect,0,75,75,22,1,t2.png,t3.png,1,0.90855,19,Female,2020-10-14_11h30.49.454,torte-q,2020.1.3,Win32,60,13285,,,,,,,,,,,,,,,,,,,,,,,,,,,,,,,,,,,,,,,,,,,,
,,,,,,,,,,,,a,0.59767,Incorrect,0,76,76,37,1,t1.png,t4.png,3,0.0000131,19,Female,2020-10-14_11h30.49.454,torte-q,2020.1.3,Win32,60,13285,,,,,,,,,,,,,,,,,,,,,,,,,,,,,,,,,,,,,,,,,,,,
,,,,,,,,,,,,a,0.28192,Correct!,0,77,77,62,1,t5.png,t5.png,0,0.978,19,Female,2020-10-14_11h30.49.454,torte-q,2020.1.3,Win32,60,13285,,,,,,,,,,,,,,,,,,,,,,,,,,,,,,,,,,,,,,,,,,,,
,,,,,,,,,,,,l,0.34085,Correct!,0,78,78,94,1,t5.png,t1.png,4,9.55E-11,19,Female,2020-10-14_11h30.49.454,torte-q,2020.1.3,Win32,60,13285,,,,,,,,,,,,,,,,,,,,,,,,,,,,,,,,,,,,,,,,,,,,
,,,,,,,,,,,,l,0.543155,Correct!,0,79,79,33,1,t5.png,t1.png,4,9.55E-11,19,Female,2020-10-14_11h30.49.454,torte-q,2020.1.3,Win32,60,13285,,,,,,,,,,,,,,,,,,,,,,,,,,,,,,,,,,,,,,,,,,,,
,,,,,,,,,,,,a,0.49919,Incorrect,0,80,80,88,1,t3.png,t1.png,2,0.056466,19,Female,2020-10-14_11h30.49.454,torte-q,2020.1.3,Win32,60,13285,,,,,,,,,,,,,,,,,,,,,,,,,,,,,,,,,,,,,,,,,,,,
,,,,,,,,,,,,a,0.564605,Correct!,0,81,81,45,1,t3.png,t2.png,1,0.90855,19,Female,2020-10-14_11h30.49.454,torte-q,2020.1.3,Win32,60,13285,,,,,,,,,,,,,,,,,,,,,,,,,,,,,,,,,,,,,,,,,,,,
,,,,,,,,,,,,a,1.02645,Correct!,0,82,82,2,1,t3.png,t2.png,1,0.90855,19,Female,2020-10-14_11h30.49.454,torte-q,2020.1.3,Win32,60,13285,,,,,,,,,,,,,,,,,,,,,,,,,,,,,,,,,,,,,,,,,,,,
,,,,,,,,,,,,l,0.355705,Correct!,0,83,83,17,1,t1.png,t4.png,3,0.0000131,19,Female,2020-10-14_11h30.49.454,torte-q,2020.1.3,Win32,60,13285,,,,,,,,,,,,,,,,,,,,,,,,,,,,,,,,,,,,,,,,,,,,
,,,,,,,,,,,,a,0.783495,Incorrect,0,84,84,30,1,t3.png,t1.png,2,0.056466,19,Female,2020-10-14_11h30.49.454,torte-q,2020.1.3,Win32,60,13285,,,,,,,,,,,,,,,,,,,,,,,,,,,,,,,,,,,,,,,,,,,,
,,,,,,,,,,,,a,0.318875,Correct!,0,85,85,9,1,t4.png,t5.png,1,0.9,19,Female,2020-10-14_11h30.49.454,torte-q,2020.1.3,Win32,60,13285,,,,,,,,,,,,,,,,,,,,,,,,,,,,,,,,,,,,,,,,,,,,
,,,,,,,,,,,,l,0.44079,Correct!,0,86,86,11,1,t1.png,t4.png,3,0.0000131,19,Female,2020-10-14_11h30.49.454,torte-q,2020.1.3,Win32,60,13285,,,,,,,,,,,,,,,,,,,,,,,,,,,,,,,,,,,,,,,,,,,,
,,,,,,,,,,,,l,0.998345,Incorrect,0,87,87,64,1,t1.png,t1.png,0,0.978,19,Female,2020-10-14_11h30.49.454,torte-q,2020.1.3,Win32,60,13285,,,,,,,,,,,,,,,,,,,,,,,,,,,,,,,,,,,,,,,,,,,,
,,,,,,,,,,,,l,0.276025,Incorrect,0,88,88,79,1,t3.png,t2.png,1,0.909,19,Female,2020-10-14_11h30.49.454,torte-q,2020.1.3,Win32,60,13285,,,,,,,,,,,,,,,,,,,,,,,,,,,,,,,,,,,,,,,,,,,,
,,,,,,,,,,,,a,0.31709,Incorrect,0,89,89,93,1,t2.png,t4.png,2,0.059078,19,Female,2020-10-14_11h30.49.454,torte-q,2020.1.3,Win32,60,13285,,,,,,,,,,,,,,,,,,,,,,,,,,,,,,,,,,,,,,,,,,,,
,,,,,,,,,,,,a,1.78604,Correct!,0,90,90,32,1,t4.png,t5.png,1,0.90025,19,Female,2020-10-14_11h30.49.454,torte-q,2020.1.3,Win32,60,13285,,,,,,,,,,,,,,,,,,,,,,,,,,,,,,,,,,,,,,,,,,,,
,,,,,,,,,,,,a,2.37199,Incorrect,0,91,91,6,1,t1.png,t4.png,3,0.0000131,19,Female,2020-10-14_11h30.49.454,torte-q,2020.1.3,Win32,60,13285,,,,,,,,,,,,,,,,,,,,,,,,,,,,,,,,,,,,,,,,,,,,
,,,,,,,,,,,,,,Too slow :(,0,92,92,27,1,t3.png,t1.png,2,0.0565,19,Female,2020-10-14_11h30.49.454,torte-q,2020.1.3,Win32,60,13285,,,,,,,,,,,,,,,,,,,,,,,,,,,,,,,,,,,,,,,,,,,,
,,,,,,,,,,,,a,1.981445,Incorrect,0,93,93,115,1,t2.png,t4.png,2,0.059078,19,Female,2020-10-14_11h30.49.454,torte-q,2020.1.3,Win32,60,13285,,,,,,,,,,,,,,,,,,,,,,,,,,,,,,,,,,,,,,,,,,,,
,,,,,,,,,,,,l,1.726355,Correct!,0,94,94,14,1,t2.png,t4.png,2,0.059078,19,Female,2020-10-14_11h30.49.454,torte-q,2020.1.3,Win32,60,13285,,,,,,,,,,,,,,,,,,,,,,,,,,,,,,,,,,,,,,,,,,,,
,,,,,,,,,,,,a,2.152835,Incorrect,0,95,95,68,1,t1.png,t4.png,3,0.0000131,19,Female,2020-10-14_11h30.49.454,torte-q,2020.1.3,Win32,60,13285,,,,,,,,,,,,,,,,,,,,,,,,,,,,,,,,,,,,,,,,,,,,
,,,,,,,,,,,,a,1.524835,Incorrect,0,96,96,83,1,t3.png,t1.png,2,0.056466,19,Female,2020-10-14_11h30.49.454,torte-q,2020.1.3,Win32,60,13285,,,,,,,,,,,,,,,,,,,,,,,,,,,,,,,,,,,,,,,,,,,,
,,,,,,,,,,,,l,1.07714,Incorrect,0,97,97,104,1,t2.png,t3.png,1,0.90855,19,Female,2020-10-14_11h30.49.454,torte-q,2020.1.3,Win32,60,13285,,,,,,,,,,,,,,,,,,,,,,,,,,,,,,,,,,,,,,,,,,,,
,,,,,,,,,,,,l,1.626965,Incorrect,0,98,98,20,1,t2.png,t3.png,1,0.90855,19,Female,2020-10-14_11h30.49.454,torte-q,2020.1.3,Win32,60,13285,,,,,,,,,,,,,,,,,,,,,,,,,,,,,,,,,,,,,,,,,,,,
,,,,,,,,,,,,a,0.98884,Correct!,0,99,99,15,1,t3.png,t2.png,1,0.90855,19,Female,2020-10-14_11h30.49.454,torte-q,2020.1.3,Win32,60,13285,,,,,,,,,,,,,,,,,,,,,,,,,,,,,,,,,,,,,,,,,,,,
,,,,,,,,,,,,l,1.87351,Correct!,0,100,100,54,1,t1.png,t5.png,4,9.55E-11,19,Female,2020-10-14_11h30.49.454,torte-q,2020.1.3,Win32,60,13285,,,,,,,,,,,,,,,,,,,,,,,,,,,,,,,,,,,,,,,,,,,,
,,,,,,,,,,,,a,0.763945,Correct!,0,101,101,59,1,t5.png,t4.png,1,0.9,19,Female,2020-10-14_11h30.49.454,torte-q,2020.1.3,Win32,60,13285,,,,,,,,,,,,,,,,,,,,,,,,,,,,,,,,,,,,,,,,,,,,
,,,,,,,,,,,,l,1.630675,Correct!,0,102,102,57,1,t2.png,t4.png,2,0.059078,19,Female,2020-10-14_11h30.49.454,torte-q,2020.1.3,Win32,60,13285,,,,,,,,,,,,,,,,,,,,,,,,,,,,,,,,,,,,,,,,,,,,
,,,,,,,,,,,,a,1.548775,Correct!,0,103,103,109,1,t5.png,t5.png,0,0.97829,19,Female,2020-10-14_11h30.49.454,torte-q,2020.1.3,Win32,60,13285,,,,,,,,,,,,,,,,,,,,,,,,,,,,,,,,,,,,,,,,,,,,
,,,,,,,,,,,,l,1.455725,Incorrect,0,104,104,114,1,t2.png,t3.png,1,0.90855,19,Female,2020-10-14_11h30.49.454,torte-q,2020.1.3,Win32,60,13285,,,,,,,,,,,,,,,,,,,,,,,,,,,,,,,,,,,,,,,,,,,,
,,,,,,,,,,,,a,1.43587,Incorrect,0,105,105,35,1,t1.png,t4.png,3,0.0000131,19,Female,2020-10-14_11h30.49.454,torte-q,2020.1.3,Win32,60,13285,,,,,,,,,,,,,,,,,,,,,,,,,,,,,,,,,,,,,,,,,,,,
,,,,,,,,,,,,l,1.047865,Incorrect,0,106,106,44,1,t2.png,t3.png,1,0.909,19,Female,2020-10-14_11h30.49.454,torte-q,2020.1.3,Win32,60,13285,,,,,,,,,,,,,,,,,,,,,,,,,,,,,,,,,,,,,,,,,,,,
,,,,,,,,,,,,a,0.414445,Incorrect,0,107,107,43,1,t4.png,t2.png,2,0.059078,19,Female,2020-10-14_11h30.49.454,torte-q,2020.1.3,Win32,60,13285,,,,,,,,,,,,,,,,,,,,,,,,,,,,,,,,,,,,,,,,,,,,
,,,,,,,,,,,,a,0.51707,Correct!,0,108,108,77,1,t1.png,t1.png,0,0.97829,19,Female,2020-10-14_11h30.49.454,torte-q,2020.1.3,Win32,60,13285,,,,,,,,,,,,,,,,,,,,,,,,,,,,,,,,,,,,,,,,,,,,
,,,,,,,,,,,,a,0.748615,Incorrect,0,109,109,29,1,t5.png,t5.png,0,0.97829,19,Female,2020-10-14_11h30.49.454,torte-q,2020.1.3,Win32,60,13285,,,,,,,,,,,,,,,,,,,,,,,,,,,,,,,,,,,,,,,,,,,,
,,,,,,,,,,,,l,0.64631,Correct!,0,110,110,103,1,t3.png,t1.png,2,0.056466,19,Female,2020-10-14_11h30.49.454,torte-q,2020.1.3,Win32,60,13285,,,,,,,,,,,,,,,,,,,,,,,,,,,,,,,,,,,,,,,,,,,,
,,,,,,,,,,,,a,0.302975,Incorrect,0,111,111,102,1,t4.png,t2.png,2,0.059078,19,Female,2020-10-14_11h30.49.454,torte-q,2020.1.3,Win32,60,13285,,,,,,,,,,,,,,,,,,,,,,,,,,,,,,,,,,,,,,,,,,,,
,,,,,,,,,,,,a,0.294655,Correct!,0,112,112,97,1,t5.png,t5.png,0,0.97829,19,Female,2020-10-14_11h30.49.454,torte-q,2020.1.3,Win32,60,13285,,,,,,,,,,,,,,,,,,,,,,,,,,,,,,,,,,,,,,,,,,,,
,,,,,,,,,,,,a,0.781995,Correct!,0,113,113,107,1,t1.png,t1.png,0,0.978,19,Female,2020-10-14_11h30.49.454,torte-q,2020.1.3,Win32,60,13285,,,,,,,,,,,,,,,,,,,,,,,,,,,,,,,,,,,,,,,,,,,,
,,,,,,,,,,,,l,0.36416,Correct!,0,114,114,3,1,t1.png,t5.png,4,9.55E-11,19,Female,2020-10-14_11h30.49.454,torte-q,2020.1.3,Win32,60,13285,,,,,,,,,,,,,,,,,,,,,,,,,,,,,,,,,,,,,,,,,,,,
,,,,,,,,,,,,l,0.60656,Correct!,0,115,115,106,1,t2.png,t3.png,1,0.90855,19,Female,2020-10-14_11h30.49.454,torte-q,2020.1.3,Win32,60,13285,,,,,,,,,,,,,,,,,,,,,,,,,,,,,,,,,,,,,,,,,,,,
,,,,,,,,,,,,a,0.38416,Correct!,0,116,116,13,1,t5.png,t5.png,0,0.97829,19,Female,2020-10-14_11h30.49.454,torte-q,2020.1.3,Win32,60,13285,,,,,,,,,,,,,,,,,,,,,,,,,,,,,,,,,,,,,,,,,,,,
,,,,,,,,,,,,a,0.26508,Incorrect,0,117,117,51,1,t3.png,t1.png,2,0.056466,19,Female,2020-10-14_11h30.49.454,torte-q,2020.1.3,Win32,60,13285,,,,,,,,,,,,,,,,,,,,,,,,,,,,,,,,,,,,,,,,,,,,
,,,,,,,,,,,,l,0.332325,Incorrect,0,118,118,46,1,t4.png,t2.png,2,0.059078,19,Female,2020-10-14_11h30.49.454,torte-q,2020.1.3,Win32,60,13285,,,,,,,,,,,,,,,,,,,,,,,,,,,,,,,,,,,,,,,,,,,,
,,,,,,,,,,,,l,0.3733,Correct!,0,119,119,56,1,t5.png,t1.png,4,9.55E-11,19,Female,2020-10-14_11h30.49.454,torte-q,2020.1.3,Win32,60,13285,,,,,,,,,,,,,,,,,,,,,,,,,,,,,,,,,,,,,,,,,,,,
,,,,,,,,,,,,l,1.52813,Correct!,,,,,,t3.png,t5.png,2,0.0565,19,Female,2020-10-14_11h30.49.454,torte-q,2020.1.3,Win32,60,13285,space,416.723415,space,8.095415,0,0,0,30,1,,,,,,,,,,,,,,,,,,,,,,,,,,,,,,,,,,,
,,,,,,,,,,,,a,1.047315,Correct!,,,,,,t1.png,t1.png,0,0.97829,19,Female,2020-10-14_11h30.49.454,torte-q,2020.1.3,Win32,60,13285,,,,,0,1,1,67,1,,,,,,,,,,,,,,,,,,,,,,,,,,,,,,,,,,,
,,,,,,,,,,,,a,0.53343,Incorrect,,,,,,t2.png,t4.png,2,0.0591,19,Female,2020-10-14_11h30.49.454,torte-q,2020.1.3,Win32,60,13285,,,,,0,2,2,15,1,,,,,,,,,,,,,,,,,,,,,,,,,,,,,,,,,,,
,,,,,,,,,,,,l,0.87128,Incorrect,,,,,,t4.png,t4.png,0,0.98115,19,Female,2020-10-14_11h30.49.454,torte-q,2020.1.3,Win32,60,13285,,,,,0,3,3,90,1,,,,,,,,,,,,,,,,,,,,,,,,,,,,,,,,,,,
,,,,,,,,,,,,l,1.40201,Correct!,,,,,,t2.png,t4.png,2,0.059078,19,Female,2020-10-14_11h30.49.454,torte-q,2020.1.3,Win32,60,13285,,,,,0,4,4,37,1,,,,,,,,,,,,,,,,,,,,,,,,,,,,,,,,,,,
,,,,,,,,,,,,l,0.415235,Incorrect,,,,,,t2.png,t2.png,0,0.98115,19,Female,2020-10-14_11h30.49.454,torte-q,2020.1.3,Win32,60,13285,,,,,0,5,5,2,1,,,,,,,,,,,,,,,,,,,,,,,,,,,,,,,,,,,
,,,,,,,,,,,,a,0.28136,Correct!,,,,,,t5.png,t5.png,0,0.978,19,Female,2020-10-14_11h30.49.454,torte-q,2020.1.3,Win32,60,13285,,,,,0,6,6,117,1,,,,,,,,,,,,,,,,,,,,,,,,,,,,,,,,,,,
,,,,,,,,,,,,a,0.97616,Correct!,,,,,,t4.png,t5.png,1,0.90025,19,Female,2020-10-14_11h30.49.454,torte-q,2020.1.3,Win32,60,13285,,,,,0,7,7,103,1,,,,,,,,,,,,,,,,,,,,,,,,,,,,,,,,,,,
,,,,,,,,,,,,l,0.327255,Correct!,,,,,,t2.png,t4.png,2,0.059078,19,Female,2020-10-14_11h30.49.454,torte-q,2020.1.3,Win32,60,13285,,,,,0,8,8,24,1,,,,,,,,,,,,,,,,,,,,,,,,,,,,,,,,,,,
,,,,,,,,,,,,a,0.322035,Incorrect,,,,,,t5.png,t1.png,4,9.55E-11,19,Female,2020-10-14_11h30.49.454,torte-q,2020.1.3,Win32,60,13285,,,,,0,9,9,43,1,,,,,,,,,,,,,,,,,,,,,,,,,,,,,,,,,,,
,,,,,,,,,,,,l,0.5808,Incorrect,,,,,,t5.png,t4.png,1,0.90025,19,Female,2020-10-14_11h30.49.454,torte-q,2020.1.3,Win32,60,13285,,,,,0,10,10,27,1,,,,,,,,,,,,,,,,,,,,,,,,,,,,,,,,,,,
,,,,,,,,,,,,l,0.535345,Incorrect,,,,,,t4.png,t5.png,1,0.90025,19,Female,2020-10-14_11h30.49.454,torte-q,2020.1.3,Win32,60,13285,,,,,0,11,11,58,1,,,,,,,,,,,,,,,,,,,,,,,,,,,,,,,,,,,
,,,,,,,,,,,,a,0.44798,Correct!,,,,,,t1.png,t2.png,1,0.90025,19,Female,2020-10-14_11h30.49.454,torte-q,2020.1.3,Win32,60,13285,,,,,0,12,12,33,1,,,,,,,,,,,,,,,,,,,,,,,,,,,,,,,,,,,
,,,,,,,,,,,,l,0.306895,Incorrect,,,,,,t1.png,t1.png,0,0.978,19,Female,2020-10-14_11h30.49.454,torte-q,2020.1.3,Win32,60,13285,,,,,0,13,13,54,1,,,,,,,,,,,,,,,,,,,,,,,,,,,,,,,,,,,
,,,,,,,,,,,,a,0.19875,Incorrect,,,,,,t5.png,t1.png,4,9.55E-11,19,Female,2020-10-14_11h30.49.454,torte-q,2020.1.3,Win32,60,13285,,,,,0,14,14,22,1,,,,,,,,,,,,,,,,,,,,,,,,,,,,,,,,,,,
,,,,,,,,,,,,a,0.351195,Incorrect,,,,,,t3.png,t1.png,2,0.056466,19,Female,2020-10-14_11h30.49.454,torte-q,2020.1.3,Win32,60,13285,,,,,0,15,15,29,1,,,,,,,,,,,,,,,,,,,,,,,,,,,,,,,,,,,
,,,,,,,,,,,,a,0.4654,Incorrect,,,,,,t2.png,t5.png,3,0.0000131,19,Female,2020-10-14_11h30.49.454,torte-q,2020.1.3,Win32,60,13285,,,,,0,16,16,40,1,,,,,,,,,,,,,,,,,,,,,,,,,,,,,,,,,,,
,,,,,,,,,,,,l,0.29561,Correct!,,,,,,t3.png,t1.png,2,0.056466,19,Female,2020-10-14_11h30.49.454,torte-q,2020.1.3,Win32,60,13285,,,,,0,17,17,32,1,,,,,,,,,,,,,,,,,,,,,,,,,,,,,,,,,,,
,,,,,,,,,,,,l,0.2766,Incorrect,,,,,,t5.png,t5.png,0,0.97829,19,Female,2020-10-14_11h30.49.454,torte-q,2020.1.3,Win32,60,13285,,,,,0,18,18,94,1,,,,,,,,,,,,,,,,,,,,,,,,,,,,,,,,,,,
,,,,,,,,,,,,a,0.18819,Incorrect,,,,,,t1.png,t3.png,2,0.056466,19,Female,2020-10-14_11h30.49.454,torte-q,2020.1.3,Win32,60,13285,,,,,0,19,19,87,1,,,,,,,,,,,,,,,,,,,,,,,,,,,,,,,,,,,
,,,,,,,,,,,,l,0.272195,Incorrect,,,,,,t5.png,t4.png,1,0.90025,19,Female,2020-10-14_11h30.49.454,torte-q,2020.1.3,Win32,60,13285,,,,,0,20,20,26,1,,,,,,,,,,,,,,,,,,,,,,,,,,,,,,,,,,,
,,,,,,,,,,,,a,0.28477,Incorrect,,,,,,t5.png,t2.png,3,0.0000131,19,Female,2020-10-14_11h30.49.454,torte-q,2020.1.3,Win32,60,13285,,,,,0,21,21,116,1,,,,,,,,,,,,,,,,,,,,,,,,,,,,,,,,,,,
,,,,,,,,,,,,a,0.748195,Incorrect,,,,,,t1.png,t5.png,4,9.55E-11,19,Female,2020-10-14_11h30.49.454,torte-q,2020.1.3,Win32,60,13285,,,,,0,22,22,55,1,,,,,,,,,,,,,,,,,,,,,,,,,,,,,,,,,,,
,,,,,,,,,,,,l,0.301685,Incorrect,,,,,,t5.png,t4.png,1,0.9,19,Female,2020-10-14_11h30.49.454,torte-q,2020.1.3,Win32,60,13285,,,,,0,23,23,49,1,,,,,,,,,,,,,,,,,,,,,,,,,,,,,,,,,,,
,,,,,,,,,,,,l,0.257115,Incorrect,,,,,,t4.png,t3.png,1,0.909,19,Female,2020-10-14_11h30.49.454,torte-q,2020.1.3,Win32,60,13285,,,,,0,24,24,46,1,,,,,,,,,,,,,,,,,,,,,,,,,,,,,,,,,,,
,,,,,,,,,,,,l,0.41936,Correct!,,,,,,t4.png,t2.png,2,0.0591,19,Female,2020-10-14_11h30.49.454,torte-q,2020.1.3,Win32,60,13285,,,,,0,25,25,36,1,,,,,,,,,,,,,,,,,,,,,,,,,,,,,,,,,,,
,,,,,,,,,,,,a,0.33272,Incorrect,,,,,,t3.png,t5.png,2,0.056466,19,Female,2020-10-14_11h30.49.454,torte-q,2020.1.3,Win32,60,13285,,,,,0,26,26,14,1,,,,,,,,,,,,,,,,,,,,,,,,,,,,,,,,,,,
,,,,,,,,,,,,l,0.53176,Incorrect,,,,,,t5.png,t4.png,1,0.9,19,Female,2020-10-14_11h30.49.454,torte-q,2020.1.3,Win32,60,13285,,,,,0,27,27,76,1,,,,,,,,,,,,,,,,,,,,,,,,,,,,,,,,,,,
,,,,,,,,,,,,l,0.649775,Correct!,,,,,,t1.png,t4.png,3,0.0000131,19,Female,2020-10-14_11h30.49.454,torte-q,2020.1.3,Win32,60,13285,,,,,0,28,28,81,1,,,,,,,,,,,,,,,,,,,,,,,,,,,,,,,,,,,
,,,,,,,,,,,,a,0.299575,Correct!,,,,,,t1.png,t2.png,1,0.90025,19,Female,2020-10-14_11h30.49.454,torte-q,2020.1.3,Win32,60,13285,,,,,0,29,29,72,1,,,,,,,,,,,,,,,,,,,,,,,,,,,,,,,,,,,
,,,,,,,,,,,,a,0.401035,Incorrect,,,,,,t1.png,t3.png,2,0.056466,19,Female,2020-10-14_11h30.49.454,torte-q,2020.1.3,Win32,60,13285,,,,,0,30,30,63,1,,,,,,,,,,,,,,,,,,,,,,,,,,,,,,,,,,,
,,,,,,,,,,,,a,0.47779,Incorrect,,,,,,t3.png,t5.png,2,0.056466,19,Female,2020-10-14_11h30.49.454,torte-q,2020.1.3,Win32,60,13285,,,,,0,31,31,6,1,,,,,,,,,,,,,,,,,,,,,,,,,,,,,,,,,,,
,,,,,,,,,,,,l,0.57728,Correct!,,,,,,t1.png,t5.png,4,9.55E-11,19,Female,2020-10-14_11h30.49.454,torte-q,2020.1.3,Win32,60,13285,,,,,0,32,32,16,1,,,,,,,,,,,,,,,,,,,,,,,,,,,,,,,,,,,
,,,,,,,,,,,,l,0.597395,Correct!,,,,,,t5.png,t1.png,4,9.55E-11,19,Female,2020-10-14_11h30.49.454,torte-q,2020.1.3,Win32,60,13285,,,,,0,33,33,71,1,,,,,,,,,,,,,,,,,,,,,,,,,,,,,,,,,,,
,,,,,,,,,,,,a,0.416565,Correct!,,,,,,t4.png,t5.png,1,0.90025,19,Female,2020-10-14_11h30.49.454,torte-q,2020.1.3,Win32,60,13285,,,,,0,34,34,47,1,,,,,,,,,,,,,,,,,,,,,,,,,,,,,,,,,,,
,,,,,,,,,,,,a,0.71775,Correct!,,,,,,t5.png,t5.png,0,0.97829,19,Female,2020-10-14_11h30.49.454,torte-q,2020.1.3,Win32,60,13285,,,,,0,35,35,70,1,,,,,,,,,,,,,,,,,,,,,,,,,,,,,,,,,,,
,,,,,,,,,,,,l,0.740345,Incorrect,,,,,,t5.png,t5.png,0,0.97829,19,Female,2020-10-14_11h30.49.454,torte-q,2020.1.3,Win32,60,13285,,,,,0,36,36,73,1,,,,,,,,,,,,,,,,,,,,,,,,,,,,,,,,,,,
,,,,,,,,,,,,a,0.287715,Correct!,,,,,,t2.png,t2.png,0,0.98115,19,Female,2020-10-14_11h30.49.454,torte-q,2020.1.3,Win32,60,13285,,,,,0,37,37,7,1,,,,,,,,,,,,,,,,,,,,,,,,,,,,,,,,,,,
,,,,,,,,,,,,l,0.805735,Correct!,,,,,,t5.png,t1.png,4,9.55E-11,19,Female,2020-10-14_11h30.49.454,torte-q,2020.1.3,Win32,60,13285,,,,,0,38,38,100,1,,,,,,,,,,,,,,,,,,,,,,,,,,,,,,,,,,,
,,,,,,,,,,,,l,0.390515,Incorrect,,,,,,t2.png,t1.png,1,0.9,19,Female,2020-10-14_11h30.49.454,torte-q,2020.1.3,Win32,60,13285,,,,,0,39,39,118,1,,,,,,,,,,,,,,,,,,,,,,,,,,,,,,,,,,,
,,,,,,,,,,,,l,0.842335,Correct!,,,,,,t1.png,t4.png,3,0.0000131,19,Female,2020-10-14_11h30.49.454,torte-q,2020.1.3,Win32,60,13285,,,,,0,40,40,92,1,,,,,,,,,,,,,,,,,,,,,,,,,,,,,,,,,,,
,,,,,,,,,,,,a,0.455305,Incorrect,,,,,,t5.png,t3.png,2,0.056466,19,Female,2020-10-14_11h30.49.454,torte-q,2020.1.3,Win32,60,13285,,,,,0,41,41,56,1,,,,,,,,,,,,,,,,,,,,,,,,,,,,,,,,,,,
,,,,,,,,,,,,l,0.391075,Incorrect,,,,,,t1.png,t1.png,0,0.97829,19,Female,2020-10-14_11h30.49.454,torte-q,2020.1.3,Win32,60,13285,,,,,0,42,42,9,1,,,,,,,,,,,,,,,,,,,,,,,,,,,,,,,,,,,
,,,,,,,,,,,,a,0.701555,Correct!,,,,,,t4.png,t4.png,0,0.98115,19,Female,2020-10-14_11h30.49.454,torte-q,2020.1.3,Win32,60,13285,,,,,0,43,43,21,1,,,,,,,,,,,,,,,,,,,,,,,,,,,,,,,,,,,
,,,,,,,,,,,,l,0.86664,Correct!,,,,,,t4.png,t2.png,2,0.059078,19,Female,2020-10-14_11h30.49.454,torte-q,2020.1.3,Win32,60,13285,,,,,0,44,44,110,1,,,,,,,,,,,,,,,,,,,,,,,,,,,,,,,,,,,
,,,,,,,,,,,,l,0.608685,Incorrect,,,,,,t5.png,t4.png,1,0.90025,19,Female,2020-10-14_11h30.49.454,torte-q,2020.1.3,Win32,60,13285,,,,,0,45,45,34,1,,,,,,,,,,,,,,,,,,,,,,,,,,,,,,,,,,,
,,,,,,,,,,,,a,0.57187,Correct!,,,,,,t4.png,t3.png,1,0.90855,19,Female,2020-10-14_11h30.49.454,torte-q,2020.1.3,Win32,60,13285,,,,,0,46,46,35,1,,,,,,,,,,,,,,,,,,,,,,,,,,,,,,,,,,,
,,,,,,,,,,,,a,0.664785,Correct!,,,,,,t4.png,t5.png,1,0.9,19,Female,2020-10-14_11h30.49.454,torte-q,2020.1.3,Win32,60,13285,,,,,0,47,47,115,1,,,,,,,,,,,,,,,,,,,,,,,,,,,,,,,,,,,
,,,,,,,,,,,,l,0.57072,Incorrect,,,,,,t2.png,t1.png,1,0.90025,19,Female,2020-10-14_11h30.49.454,torte-q,2020.1.3,Win32,60,13285,,,,,0,48,48,4,1,,,,,,,,,,,,,,,,,,,,,,,,,,,,,,,,,,,
,,,,,,,,,,,,a,0.569305,Incorrect,,,,,,t4.png,t1.png,3,0.0000131,19,Female,2020-10-14_11h30.49.454,torte-q,2020.1.3,Win32,60,13285,,,,,0,49,49,61,1,,,,,,,,,,,,,,,,,,,,,,,,,,,,,,,,,,,
,,,,,,,,,,,,l,0.647165,Incorrect,,,,,,t2.png,t1.png,1,0.90025,19,Female,2020-10-14_11h30.49.454,torte-q,2020.1.3,Win32,60,13285,,,,,0,50,50,62,1,,,,,,,,,,,,,,,,,,,,,,,,,,,,,,,,,,,
,,,,,,,,,,,,a,0.362465,Incorrect,,,,,,t5.png,t3.png,2,0.056466,19,Female,2020-10-14_11h30.49.454,torte-q,2020.1.3,Win32,60,13285,,,,,0,51,51,114,1,,,,,,,,,,,,,,,,,,,,,,,,,,,,,,,,,,,
,,,,,,,,,,,,l,0.741895,Correct!,,,,,,t1.png,t3.png,2,0.056466,19,Female,2020-10-14_11h30.49.454,torte-q,2020.1.3,Win32,60,13285,,,,,0,52,52,69,1,,,,,,,,,,,,,,,,,,,,,,,,,,,,,,,,,,,
,,,,,,,,,,,,l,0.93959,Correct!,,,,,,t5.png,t1.png,4,9.55E-11,19,Female,2020-10-14_11h30.49.454,torte-q,2020.1.3,Win32,60,13285,,,,,0,53,53,102,1,,,,,,,,,,,,,,,,,,,,,,,,,,,,,,,,,,,
,,,,,,,,,,,,l,1.09965,Incorrect,,,,,,t3.png,t2.png,1,0.909,19,Female,2020-10-14_11h30.49.454,torte-q,2020.1.3,Win32,60,13285,,,,,0,54,54,23,1,,,,,,,,,,,,,,,,,,,,,,,,,,,,,,,,,,,
,,,,,,,,,,,,l,1.65322,Correct!,,,,,,t3.png,t5.png,2,0.056466,19,Female,2020-10-14_11h30.49.454,torte-q,2020.1.3,Win32,60,13285,,,,,0,55,55,44,1,,,,,,,,,,,,,,,,,,,,,,,,,,,,,,,,,,,
,,,,,,,,,,,,a,0.34794,Correct!,,,,,,t4.png,t4.png,0,0.98115,19,Female,2020-10-14_11h30.49.454,torte-q,2020.1.3,Win32,60,13285,,,,,0,56,56,80,1,,,,,,,,,,,,,,,,,,,,,,,,,,,,,,,,,,,
,,,,,,,,,,,,l,0.60405,Correct!,,,,,,t4.png,t1.png,3,0.0000131,19,Female,2020-10-14_11h30.49.454,torte-q,2020.1.3,Win32,60,13285,,,,,0,57,57,48,1,,,,,,,,,,,,,,,,,,,,,,,,,,,,,,,,,,,
,,,,,,,,,,,,a,1.05826,Correct!,,,,,,t3.png,t4.png,1,0.909,19,Female,2020-10-14_11h30.49.454,torte-q,2020.1.3,Win32,60,13285,,,,,0,58,58,82,1,,,,,,,,,,,,,,,,,,,,,,,,,,,,,,,,,,,
,,,,,,,,,,,,a,0.91662,Correct!,,,,,,t3.png,t1.png,2,0.056466,19,Female,2020-10-14_11h30.49.454,torte-q,2020.1.3,Win32,60,13285,,,,,0,59,59,64,1,,,,,,,,,,,,,,,,,,,,,,,,,,,,,,,,,,,
,,,,,,,,,,,,l,0.73243,Correct!,,,,,,t4.png,t2.png,2,0.059078,19,Female,2020-10-14_11h30.49.454,torte-q,2020.1.3,Win32,60,13285,,,,,0,60,60,88,1,,,,,,,,,,,,,,,,,,,,,,,,,,,,,,,,,,,
,,,,,,,,,,,,a,0.532015,Correct!,,,,,,t3.png,t4.png,1,0.909,19,Female,2020-10-14_11h30.49.454,torte-q,2020.1.3,Win32,60,13285,,,,,0,61,61,106,1,,,,,,,,,,,,,,,,,,,,,,,,,,,,,,,,,,,
,,,,,,,,,,,,l,0.10945,Correct!,,,,,,t4.png,t2.png,2,0.059078,19,Female,2020-10-14_11h30.49.454,torte-q,2020.1.3,Win32,60,13285,,,,,0,62,62,86,1,,,,,,,,,,,,,,,,,,,,,,,,,,,,,,,,,,,
,,,,,,,,,,,,l,0.99177,Correct!,,,,,,t1.png,t4.png,3,0.0000131,19,Female,2020-10-14_11h30.49.454,torte-q,2020.1.3,Win32,60,13285,,,,,0,63,63,17,1,,,,,,,,,,,,,,,,,,,,,,,,,,,,,,,,,,,
,,,,,,,,,,,,a,0.597895,Incorrect,,,,,,t3.png,t4.png,1,0.90855,19,Female,2020-10-14_11h30.49.454,torte-q,2020.1.3,Win32,60,13285,,,,,0,64,64,96,1,,,,,,,,,,,,,,,,,,,,,,,,,,,,,,,,,,,
,,,,,,,,,,,,l,0.62489,Incorrect,,,,,,t1.png,t1.png,0,0.978,19,Female,2020-10-14_11h30.49.454,torte-q,2020.1.3,Win32,60,13285,,,,,0,65,65,28,1,,,,,,,,,,,,,,,,,,,,,,,,,,,,,,,,,,,
,,,,,,,,,,,,l,0.793865,Correct!,,,,,,t1.png,t4.png,3,0.0000131,19,Female,2020-10-14_11h30.49.454,torte-q,2020.1.3,Win32,60,13285,,,,,0,66,66,50,1,,,,,,,,,,,,,,,,,,,,,,,,,,,,,,,,,,,
,,,,,,,,,,,,a,2.41751,Incorrect,,,,,,t2.png,t5.png,3,0.0000131,19,Female,2020-10-14_11h30.49.454,torte-q,2020.1.3,Win32,60,13285,,,,,0,67,67,104,1,,,,,,,,,,,,,,,,,,,,,,,,,,,,,,,,,,,
,,,,,,,,,,,,a,0.724305,Correct!,,,,,,t2.png,t3.png,1,0.90855,19,Female,2020-10-14_11h30.49.454,torte-q,2020.1.3,Win32,60,13285,,,,,0,68,68,10,1,,,,,,,,,,,,,,,,,,,,,,,,,,,,,,,,,,,
,,,,,,,,,,,,l,1.63287,Incorrect,,,,,,t5.png,t5.png,0,0.97829,19,Female,2020-10-14_11h30.49.454,torte-q,2020.1.3,Win32,60,13285,,,,,0,69,69,25,1,,,,,,,,,,,,,,,,,,,,,,,,,,,,,,,,,,,
,,,,,,,,,,,,l,0.33113,Incorrect,,,,,,t3.png,t4.png,1,0.909,19,Female,2020-10-14_11h30.49.454,torte-q,2020.1.3,Win32,60,13285,,,,,0,70,70,89,1,,,,,,,,,,,,,,,,,,,,,,,,,,,,,,,,,,,
,,,,,,,,,,,,a,0.371575,Incorrect,,,,,,t3.png,t1.png,2,0.056466,19,Female,2020-10-14_11h30.49.454,torte-q,2020.1.3,Win32,60,13285,,,,,0,71,71,0,1,,,,,,,,,,,,,,,,,,,,,,,,,,,,,,,,,,,
,,,,,,,,,,,,l,0.581465,Correct!,,,,,,t1.png,t5.png,4,9.55E-11,19,Female,2020-10-14_11h30.49.454,torte-q,2020.1.3,Win32,60,13285,,,,,0,72,72,85,1,,,,,,,,,,,,,,,,,,,,,,,,,,,,,,,,,,,
,,,,,,,,,,,,a,0.658475,Correct!,,,,,,t2.png,t3.png,1,0.90855,19,Female,2020-10-14_11h30.49.454,torte-q,2020.1.3,Win32,60,13285,,,,,0,73,73,65,1,,,,,,,,,,,,,,,,,,,,,,,,,,,,,,,,,,,
,,,,,,,,,,,,a,0.49854,Incorrect,,,,,,t1.png,t3.png,2,0.056466,19,Female,2020-10-14_11h30.49.454,torte-q,2020.1.3,Win32,60,13285,,,,,0,74,74,99,1,,,,,,,,,,,,,,,,,,,,,,,,,,,,,,,,,,,
,,,,,,,,,,,,l,0.339205,Incorrect,,,,,,t3.png,t2.png,1,0.90855,19,Female,2020-10-14_11h30.49.454,torte-q,2020.1.3,Win32,60,13285,,,,,0,75,75,18,1,,,,,,,,,,,,,,,,,,,,,,,,,,,,,,,,,,,
,,,,,,,,,,,,a,0.27764,Correct!,,,,,,t4.png,t4.png,0,0.98115,19,Female,2020-10-14_11h30.49.454,torte-q,2020.1.3,Win32,60,13285,,,,,0,76,76,52,1,,,,,,,,,,,,,,,,,,,,,,,,,,,,,,,,,,,
,,,,,,,,,,,,l,0.302155,Correct!,,,,,,t2.png,t5.png,3,0.0000131,19,Female,2020-10-14_11h30.49.454,torte-q,2020.1.3,Win32,60,13285,,,,,0,77,77,66,1,,,,,,,,,,,,,,,,,,,,,,,,,,,,,,,,,,,
,,,,,,,,,,,,a,0.450805,Incorrect,,,,,,t1.png,t5.png,4,9.55E-11,19,Female,2020-10-14_11h30.49.454,torte-q,2020.1.3,Win32,60,13285,,,,,0,78,78,41,1,,,,,,,,,,,,,,,,,,,,,,,,,,,,,,,,,,,
,,,,,,,,,,,,a,1.24798,Incorrect,,,,,,t5.png,t2.png,3,0.0000131,19,Female,2020-10-14_11h30.49.454,torte-q,2020.1.3,Win32,60,13285,,,,,0,79,79,51,1,,,,,,,,,,,,,,,,,,,,,,,,,,,,,,,,,,,
,,,,,,,,,,,,l,0.647795,Correct!,,,,,,t2.png,t4.png,2,0.059078,19,Female,2020-10-14_11h30.49.454,torte-q,2020.1.3,Win32,60,13285,,,,,0,80,80,77,1,,,,,,,,,,,,,,,,,,,,,,,,,,,,,,,,,,,
,,,,,,,,,,,,a,0.770945,Incorrect,,,,,,t4.png,t1.png,3,0.0000131,19,Female,2020-10-14_11h30.49.454,torte-q,2020.1.3,Win32,60,13285,,,,,0,81,81,93,1,,,,,,,,,,,,,,,,,,,,,,,,,,,,,,,,,,,
,,,,,,,,,,,,l,1.29453,Correct!,,,,,,t2.png,t5.png,3,0.0000131,19,Female,2020-10-14_11h30.49.454,torte-q,2020.1.3,Win32,60,13285,,,,,0,82,82,8,1,,,,,,,,,,,,,,,,,,,,,,,,,,,,,,,,,,,
,,,,,,,,,,,,a,0.34848,Incorrect,,,,,,t2.png,t5.png,3,0.0000131,19,Female,2020-10-14_11h30.49.454,torte-q,2020.1.3,Win32,60,13285,,,,,0,83,83,95,1,,,,,,,,,,,,,,,,,,,,,,,,,,,,,,,,,,,
,,,,,,,,,,,,a,0.776555,Incorrect,,,,,,t3.png,t1.png,2,0.0565,19,Female,2020-10-14_11h30.49.454,torte-q,2020.1.3,Win32,60,13285,,,,,0,84,84,31,1,,,,,,,,,,,,,,,,,,,,,,,,,,,,,,,,,,,
,,,,,,,,,,,,l,1.14139,Incorrect,,,,,,t3.png,t2.png,1,0.909,19,Female,2020-10-14_11h30.49.454,torte-q,2020.1.3,Win32,60,13285,,,,,0,85,85,3,1,,,,,,,,,,,,,,,,,,,,,,,,,,,,,,,,,,,
,,,,,,,,,,,,l,1.074605,Incorrect,,,,,,t1.png,t2.png,1,0.90025,19,Female,2020-10-14_11h30.49.454,torte-q,2020.1.3,Win32,60,13285,,,,,0,86,86,112,1,,,,,,,,,,,,,,,,,,,,,,,,,,,,,,,,,,,
,,,,,,,,,,,,l,1.173085,Correct!,,,,,,t3.png,t5.png,2,0.0565,19,Female,2020-10-14_11h30.49.454,torte-q,2020.1.3,Win32,60,13285,,,,,0,87,87,83,1,,,,,,,,,,,,,,,,,,,,,,,,,,,,,,,,,,,
,,,,,,,,,,,,a,0.305775,Incorrect,,,,,,t5.png,t3.png,2,0.056466,19,Female,2020-10-14_11h30.49.454,torte-q,2020.1.3,Win32,60,13285,,,,,0,88,88,38,1,,,,,,,,,,,,,,,,,,,,,,,,,,,,,,,,,,,
,,,,,,,,,,,,a,0.41564,Correct!,,,,,,t3.png,t2.png,1,0.90855,19,Female,2020-10-14_11h30.49.454,torte-q,2020.1.3,Win32,60,13285,,,,,0,89,89,53,1,,,,,,,,,,,,,,,,,,,,,,,,,,,,,,,,,,,
,,,,,,,,,,,,l,1.081565,Incorrect,,,,,,t2.png,t2.png,0,0.981,19,Female,2020-10-14_11h30.49.454,torte-q,2020.1.3,Win32,60,13285,,,,,0,90,90,101,1,,,,,,,,,,,,,,,,,,,,,,,,,,,,,,,,,,,
,,,,,,,,,,,,a,1.48701,Incorrect,,,,,,t5.png,t2.png,3,0.0000131,19,Female,2020-10-14_11h30.49.454,torte-q,2020.1.3,Win32,60,13285,,,,,0,91,91,98,1,,,,,,,,,,,,,,,,,,,,,,,,,,,,,,,,,,,
,,,,,,,,,,,,a,0.520995,Incorrect,,,,,,t5.png,t3.png,2,0.056466,19,Female,2020-10-14_11h30.49.454,torte-q,2020.1.3,Win32,60,13285,,,,,0,92,92,108,1,,,,,,,,,,,,,,,,,,,,,,,,,,,,,,,,,,,
,,,,,,,,,,,,l,0.957735,Correct!,,,,,,t5.png,t2.png,3,0.0000131,19,Female,2020-10-14_11h30.49.454,torte-q,2020.1.3,Win32,60,13285,,,,,0,93,93,91,1,,,,,,,,,,,,,,,,,,,,,,,,,,,,,,,,,,,
,,,,,,,,,,,,a,0.465115,Correct!,,,,,,t4.png,t4.png,0,0.98115,19,Female,2020-10-14_11h30.49.454,torte-q,2020.1.3,Win32,60,13285,,,,,0,94,94,79,1,,,,,,,,,,,,,,,,,,,,,,,,,,,,,,,,,,,
,,,,,,,,,,,,l,0.355775,Correct!,,,,,,t4.png,t2.png,2,0.059078,19,Female,2020-10-14_11h30.49.454,torte-q,2020.1.3,Win32,60,13285,,,,,0,95,95,109,1,,,,,,,,,,,,,,,,,,,,,,,,,,,,,,,,,,,
,,,,,,,,,,,,l,0.595555,Incorrect,,,,,,t3.png,t4.png,1,0.90855,19,Female,2020-10-14_11h30.49.454,torte-q,2020.1.3,Win32,60,13285,,,,,0,96,96,84,1,,,,,,,,,,,,,,,,,,,,,,,,,,,,,,,,,,,
,,,,,,,,,,,,a,0.484095,Correct!,,,,,,t3.png,t2.png,1,0.90855,19,Female,2020-10-14_11h30.49.454,torte-q,2020.1.3,Win32,60,13285,,,,,0,97,97,97,1,,,,,,,,,,,,,,,,,,,,,,,,,,,,,,,,,,,
,,,,,,,,,,,,a,0.68173,Incorrect,,,,,,t5.png,t2.png,3,0.0000131,19,Female,2020-10-14_11h30.49.454,torte-q,2020.1.3,Win32,60,13285,,,,,0,98,98,119,1,,,,,,,,,,,,,,,,,,,,,,,,,,,,,,,,,,,
,,,,,,,,,,,,a,0.45159,Correct!,,,,,,t1.png,t1.png,0,0.97829,19,Female,2020-10-14_11h30.49.454,torte-q,2020.1.3,Win32,60,13285,,,,,0,99,99,78,1,,,,,,,,,,,,,,,,,,,,,,,,,,,,,,,,,,,
,,,,,,,,,,,,a,0.391185,Correct!,,,,,,t4.png,t3.png,1,0.90855,19,Female,2020-10-14_11h30.49.454,torte-q,2020.1.3,Win32,60,13285,,,,,0,100,100,45,1,,,,,,,,,,,,,,,,,,,,,,,,,,,,,,,,,,,
,,,,,,,,,,,,l,0.301675,Incorrect,,,,,,t2.png,t3.png,1,0.90855,19,Female,2020-10-14_11h30.49.454,torte-q,2020.1.3,Win32,60,13285,,,,,0,101,101,111,1,,,,,,,,,,,,,,,,,,,,,,,,,,,,,,,,,,,
,,,,,,,,,,,,l,0.43127,Correct!,,,,,,t4.png,t1.png,3,0.0000131,19,Female,2020-10-14_11h30.49.454,torte-q,2020.1.3,Win32,60,13285,,,,,0,102,102,13,1,,,,,,,,,,,,,,,,,,,,,,,,,,,,,,,,,,,
,,,,,,,,,,,,a,0.36556,Incorrect,,,,,,t1.png,t5.png,4,9.55E-11,19,Female,2020-10-14_11h30.49.454,torte-q,2020.1.3,Win32,60,13285,,,,,0,103,103,12,1,,,,,,,,,,,,,,,,,,,,,,,,,,,,,,,,,,,
,,,,,,,,,,,,l,0.302795,Incorrect,,,,,,t2.png,t1.png,1,0.90025,19,Female,2020-10-14_11h30.49.454,torte-q,2020.1.3,Win32,60,13285,,,,,0,104,104,19,1,,,,,,,,,,,,,,,,,,,,,,,,,,,,,,,,,,,
,,,,,,,,,,,,l,1.36533,Incorrect,,,,,,t4.png,t3.png,1,0.909,19,Female,2020-10-14_11h30.49.454,torte-q,2020.1.3,Win32,60,13285,,,,,0,105,105,20,1,,,,,,,,,,,,,,,,,,,,,,,,,,,,,,,,,,,
,,,,,,,,,,,,a,0.38746,Incorrect,,,,,,t2.png,t4.png,2,0.059078,19,Female,2020-10-14_11h30.49.454,torte-q,2020.1.3,Win32,60,13285,,,,,0,106,106,11,1,,,,,,,,,,,,,,,,,,,,,,,,,,,,,,,,,,,
,,,,,,,,,,,,l,1.126765,Incorrect,,,,,,t4.png,t5.png,1,0.90025,19,Female,2020-10-14_11h30.49.454,torte-q,2020.1.3,Win32,60,13285,,,,,0,107,107,113,1,,,,,,,,,,,,,,,,,,,,,,,,,,,,,,,,,,,
,,,,,,,,,,,,a,0.32824,Incorrect,,,,,,t1.png,t4.png,3,0.0000131,19,Female,2020-10-14_11h30.49.454,torte-q,2020.1.3,Win32,60,13285,,,,,0,108,108,107,1,,,,,,,,,,,,,,,,,,,,,,,,,,,,,,,,,,,
,,,,,,,,,,,,a,0.314735,Incorrect,,,,,,t4.png,t1.png,3,0.0000131,19,Female,2020-10-14_11h30.49.454,torte-q,2020.1.3,Win32,60,13285,,,,,0,109,109,42,1,,,,,,,,,,,,,,,,,,,,,,,,,,,,,,,,,,,
,,,,,,,,,,,,a,0.54453,Correct!,,,,,,t4.png,t3.png,1,0.90855,19,Female,2020-10-14_11h30.49.454,torte-q,2020.1.3,Win32,60,13285,,,,,0,110,110,75,1,,,,,,,,,,,,,,,,,,,,,,,,,,,,,,,,,,,
,,,,,,,,,,,,a,0.36981,Correct!,,,,,,t1.png,t2.png,1,0.9,19,Female,2020-10-14_11h30.49.454,torte-q,2020.1.3,Win32,60,13285,,,,,0,111,111,1,1,,,,,,,,,,,,,,,,,,,,,,,,,,,,,,,,,,,
,,,,,,,,,,,,l,0.297915,Incorrect,,,,,,t2.png,t1.png,1,0.90025,19,Female,2020-10-14_11h30.49.454,torte-q,2020.1.3,Win32,60,13285,,,,,0,112,112,5,1,,,,,,,,,,,,,,,,,,,,,,,,,,,,,,,,,,,
,,,,,,,,,,,,l,0.2983,Incorrect,,,,,,t1.png,t2.png,1,0.90025,19,Female,2020-10-14_11h30.49.454,torte-q,2020.1.3,Win32,60,13285,,,,,0,113,113,105,1,,,,,,,,,,,,,,,,,,,,,,,,,,,,,,,,,,,
,,,,,,,,,,,,l,0.33251,Incorrect,,,,,,t2.png,t2.png,0,0.98115,19,Female,2020-10-14_11h30.49.454,torte-q,2020.1.3,Win32,60,13285,,,,,0,114,114,59,1,,,,,,,,,,,,,,,,,,,,,,,,,,,,,,,,,,,
,,,,,,,,,,,,a,0.26007,Correct!,,,,,,t2.png,t3.png,1,0.90855,19,Female,2020-10-14_11h30.49.454,torte-q,2020.1.3,Win32,60,13285,,,,,0,115,115,68,1,,,,,,,,,,,,,,,,,,,,,,,,,,,,,,,,,,,
,,,,,,,,,,,,l,0.691445,Correct!,,,,,,t1.png,t3.png,2,0.056466,19,Female,2020-10-14_11h30.49.454,torte-q,2020.1.3,Win32,60,13285,,,,,0,116,116,60,1,,,,,,,,,,,,,,,,,,,,,,,,,,,,,,,,,,,
,,,,,,,,,,,,a,0.76524,Incorrect,,,,,,t5.png,t3.png,2,0.0565,19,Female,2020-10-14_11h30.49.454,torte-q,2020.1.3,Win32,60,13285,,,,,0,117,117,39,1,,,,,,,,,,,,,,,,,,,,,,,,,,,,,,,,,,,
,,,,,,,,,,,,l,1.056005,Incorrect,,,,,,t2.png,t3.png,1,0.909,19,Female,2020-10-14_11h30.49.454,torte-q,2020.1.3,Win32,60,13285,,,,,0,118,118,74,1,,,,,,,,,,,,,,,,,,,,,,,,,,,,,,,,,,,
,,,,,,,,,,,,a,0.77059,Correct!,,,,,,t2.png,t2.png,0,0.98115,19,Female,2020-10-14_11h30.49.454,torte-q,2020.1.3,Win32,60,13285,,,,,0,119,119,57,1,,,,,,,,,,,,,,,,,,,,,,,,,,,,,,,,,,,
,,,,,,,,,,,,a,0.9007,Incorrect,,,,,,t5.png,t3.png,2,0.056466,19,Female,2020-10-14_11h30.49.454,torte-q,2020.1.3,Win32,60,13285,space,2.575665,,,,,,,,N/A,14.390105,space,7.516035,0,0,0,38,1,,,,,,,,,,,,,,,,,,,,,,,,,,
,,,,,,,,,,,,l,0.49972,Correct!,,,,,,t1.png,t4.png,3,0.0000131,19,Female,2020-10-14_11h30.49.454,torte-q,2020.1.3,Win32,60,13285,,,,,,,,,,,,,,0,1,1,17,1,,,,,,,,,,,,,,,,,,,,,,,,,,
,,,,,,,,,,,,a,0.300455,Correct!,,,,,,t4.png,t3.png,1,0.90855,19,Female,2020-10-14_11h30.49.454,torte-q,2020.1.3,Win32,60,13285,,,,,,,,,,,,,,0,2,2,75,1,,,,,,,,,,,,,,,,,,,,,,,,,,
,,,,,,,,,,,,a,0.25512,Correct!,,,,,,t4.png,t3.png,1,0.90855,19,Female,2020-10-14_11h30.49.454,torte-q,2020.1.3,Win32,60,13285,,,,,,,,,,,,,,0,3,3,45,1,,,,,,,,,,,,,,,,,,,,,,,,,,
,,,,,,,,,,,,a,0.416895,Incorrect,,,,,,t4.png,t1.png,3,0.0000131,19,Female,2020-10-14_11h30.49.454,torte-q,2020.1.3,Win32,60,13285,,,,,,,,,,,,,,0,4,4,13,1,,,,,,,,,,,,,,,,,,,,,,,,,,
,,,,,,,,,,,,l,1.034875,Incorrect,,,,,,t5.png,t5.png,0,0.978,19,Female,2020-10-14_11h30.49.454,torte-q,2020.1.3,Win32,60,13285,,,,,,,,,,,,,,0,5,5,117,1,,,,,,,,,,,,,,,,,,,,,,,,,,
,,,,,,,,,,,,l,0.48887,Correct!,,,,,,t2.png,t5.png,3,0.0000131,19,Female,2020-10-14_11h30.49.454,torte-q,2020.1.3,Win32,60,13285,,,,,,,,,,,,,,0,6,6,104,1,,,,,,,,,,,,,,,,,,,,,,,,,,
,,,,,,,,,,,,a,0.40524,Correct!,,,,,,t5.png,t4.png,1,0.90025,19,Female,2020-10-14_11h30.49.454,torte-q,2020.1.3,Win32,60,13285,,,,,,,,,,,,,,0,7,7,26,1,,,,,,,,,,,,,,,,,,,,,,,,,,
,,,,,,,,,,,,a,0.901855,Correct!,,,,,,t4.png,t4.png,0,0.98115,19,Female,2020-10-14_11h30.49.454,torte-q,2020.1.3,Win32,60,13285,,,,,,,,,,,,,,0,8,8,52,1,,,,,,,,,,,,,,,,,,,,,,,,,,
,,,,,,,,,,,,l,0.317735,Correct!,,,,,,t2.png,t4.png,2,0.0591,19,Female,2020-10-14_11h30.49.454,torte-q,2020.1.3,Win32,60,13285,,,,,,,,,,,,,,0,9,9,15,1,,,,,,,,,,,,,,,,,,,,,,,,,,
,,,,,,,,,,,,l,0.467955,Incorrect,,,,,,t4.png,t4.png,0,0.98115,19,Female,2020-10-14_11h30.49.454,torte-q,2020.1.3,Win32,60,13285,,,,,,,,,,,,,,0,10,10,90,1,,,,,,,,,,,,,,,,,,,,,,,,,,
,,,,,,,,,,,,a,0.31036,Correct!,,,,,,t3.png,t2.png,1,0.909,19,Female,2020-10-14_11h30.49.454,torte-q,2020.1.3,Win32,60,13285,,,,,,,,,,,,,,0,11,11,3,1,,,,,,,,,,,,,,,,,,,,,,,,,,
,,,,,,,,,,,,l,0.3609,Incorrect,,,,,,t1.png,t2.png,1,0.90025,19,Female,2020-10-14_11h30.49.454,torte-q,2020.1.3,Win32,60,13285,,,,,,,,,,,,,,0,12,12,72,1,,,,,,,,,,,,,,,,,,,,,,,,,,
,,,,,,,,,,,,a,0.50191,Incorrect,,,,,,t4.png,t2.png,2,0.059078,19,Female,2020-10-14_11h30.49.454,torte-q,2020.1.3,Win32,60,13285,,,,,,,,,,,,,,0,13,13,88,1,,,,,,,,,,,,,,,,,,,,,,,,,,
,,,,,,,,,,,,a,0.41496,Incorrect,,,,,,t3.png,t1.png,2,0.056466,19,Female,2020-10-14_11h30.49.454,torte-q,2020.1.3,Win32,60,13285,,,,,,,,,,,,,,0,14,14,29,1,,,,,,,,,,,,,,,,,,,,,,,,,,
,,,,,,,,,,,,l,0.56704,Correct!,,,,,,t3.png,t5.png,2,0.0565,19,Female,2020-10-14_11h30.49.454,torte-q,2020.1.3,Win32,60,13285,,,,,,,,,,,,,,0,15,15,30,1,,,,,,,,,,,,,,,,,,,,,,,,,,
,,,,,,,,,,,,a,0.411005,Incorrect,,,,,,t4.png,t1.png,3,0.0000131,19,Female,2020-10-14_11h30.49.454,torte-q,2020.1.3,Win32,60,13285,,,,,,,,,,,,,,0,16,16,61,1,,,,,,,,,,,,,,,,,,,,,,,,,,
,,,,,,,,,,,,l,0.62582,Incorrect,,,,,,t1.png,t2.png,1,0.90025,19,Female,2020-10-14_11h30.49.454,torte-q,2020.1.3,Win32,60,13285,,,,,,,,,,,,,,0,17,17,33,1,,,,,,,,,,,,,,,,,,,,,,,,,,
,,,,,,,,,,,,l,0.668045,Incorrect,,,,,,t2.png,t1.png,1,0.9,19,Female,2020-10-14_11h30.49.454,torte-q,2020.1.3,Win32,60,13285,,,,,,,,,,,,,,0,18,18,118,1,,,,,,,,,,,,,,,,,,,,,,,,,,
,,,,,,,,,,,,a,0.60307,Incorrect,,,,,,t5.png,t1.png,4,9.55E-11,19,Female,2020-10-14_11h30.49.454,torte-q,2020.1.3,Win32,60,13285,,,,,,,,,,,,,,0,19,19,102,1,,,,,,,,,,,,,,,,,,,,,,,,,,
,,,,,,,,,,,,a,0.305815,Incorrect,,,,,,t5.png,t3.png,2,0.056466,19,Female,2020-10-14_11h30.49.454,torte-q,2020.1.3,Win32,60,13285,,,,,,,,,,,,,,0,20,20,114,1,,,,,,,,,,,,,,,,,,,,,,,,,,
,,,,,,,,,,,,a,0.475275,Correct!,,,,,,t3.png,t2.png,1,0.90855,19,Female,2020-10-14_11h30.49.454,torte-q,2020.1.3,Win32,60,13285,,,,,,,,,,,,,,0,21,21,18,1,,,,,,,,,,,,,,,,,,,,,,,,,,
,,,,,,,,,,,,l,0.359265,Correct!,,,,,,t5.png,t1.png,4,9.55E-11,19,Female,2020-10-14_11h30.49.454,torte-q,2020.1.3,Win32,60,13285,,,,,,,,,,,,,,0,22,22,71,1,,,,,,,,,,,,,,,,,,,,,,,,,,
,,,,,,,,,,,,a,0.26907,Incorrect,,,,,,t5.png,t1.png,4,9.55E-11,19,Female,2020-10-14_11h30.49.454,torte-q,2020.1.3,Win32,60,13285,,,,,,,,,,,,,,0,23,23,22,1,,,,,,,,,,,,,,,,,,,,,,,,,,
,,,,,,,,,,,,l,0.267285,Incorrect,,,,,,t4.png,t5.png,1,0.90025,19,Female,2020-10-14_11h30.49.454,torte-q,2020.1.3,Win32,60,13285,,,,,,,,,,,,,,0,24,24,47,1,,,,,,,,,,,,,,,,,,,,,,,,,,
,,,,,,,,,,,,a,0.268395,Incorrect,,,,,,t1.png,t3.png,2,0.056466,19,Female,2020-10-14_11h30.49.454,torte-q,2020.1.3,Win32,60,13285,,,,,,,,,,,,,,0,25,25,87,1,,,,,,,,,,,,,,,,,,,,,,,,,,
,,,,,,,,,,,,l,0.27513,Incorrect,,,,,,t4.png,t3.png,1,0.909,19,Female,2020-10-14_11h30.49.454,torte-q,2020.1.3,Win32,60,13285,,,,,,,,,,,,,,0,26,26,46,1,,,,,,,,,,,,,,,,,,,,,,,,,,
,,,,,,,,,,,,l,0.25337,Incorrect,,,,,,t4.png,t5.png,1,0.9,19,Female,2020-10-14_11h30.49.454,torte-q,2020.1.3,Win32,60,13285,,,,,,,,,,,,,,0,27,27,115,1,,,,,,,,,,,,,,,,,,,,,,,,,,
,,,,,,,,,,,,l,0.297345,Correct!,,,,,,t1.png,t2.png,1,0.9,19,Female,2020-10-14_11h30.49.454,torte-q,2020.1.3,Win32,60,13285,,,,,,,,,,,,,,0,28,28,1,1,,,,,,,,,,,,,,,,,,,,,,,,,,
,,,,,,,,,,,,a,0.32508,Correct!,,,,,,t5.png,t5.png,0,0.97829,19,Female,2020-10-14_11h30.49.454,torte-q,2020.1.3,Win32,60,13285,,,,,,,,,,,,,,0,29,29,70,1,,,,,,,,,,,,,,,,,,,,,,,,,,
,,,,,,,,,,,,a,0.517675,Incorrect,,,,,,t1.png,t5.png,4,9.55E-11,19,Female,2020-10-14_11h30.49.454,torte-q,2020.1.3,Win32,60,13285,,,,,,,,,,,,,,0,30,30,55,1,,,,,,,,,,,,,,,,,,,,,,,,,,
,,,,,,,,,,,,l,0.46753,Incorrect,,,,,,t2.png,t3.png,1,0.90855,19,Female,2020-10-14_11h30.49.454,torte-q,2020.1.3,Win32,60,13285,,,,,,,,,,,,,,0,31,31,10,1,,,,,,,,,,,,,,,,,,,,,,,,,,
,,,,,,,,,,,,l,0.517825,Incorrect,,,,,,t3.png,t4.png,1,0.90855,19,Female,2020-10-14_11h30.49.454,torte-q,2020.1.3,Win32,60,13285,,,,,,,,,,,,,,0,32,32,96,1,,,,,,,,,,,,,,,,,,,,,,,,,,
,,,,,,,,,,,,a,0.293715,Incorrect,,,,,,t3.png,t5.png,2,0.0565,19,Female,2020-10-14_11h30.49.454,torte-q,2020.1.3,Win32,60,13285,,,,,,,,,,,,,,0,33,33,83,1,,,,,,,,,,,,,,,,,,,,,,,,,,
,,,,,,,,,,,,l,0.61748,Correct!,,,,,,t1.png,t2.png,1,0.90025,19,Female,2020-10-14_11h30.49.454,torte-q,2020.1.3,Win32,60,13285,,,,,,,,,,,,,,0,34,34,105,1,,,,,,,,,,,,,,,,,,,,,,,,,,
,,,,,,,,,,,,l,0.517225,Incorrect,,,,,,t5.png,t4.png,1,0.9,19,Female,2020-10-14_11h30.49.454,torte-q,2020.1.3,Win32,60,13285,,,,,,,,,,,,,,0,35,35,76,1,,,,,,,,,,,,,,,,,,,,,,,,,,
,,,,,,,,,,,,a,0.618865,Correct!,,,,,,t4.png,t4.png,0,0.98115,19,Female,2020-10-14_11h30.49.454,torte-q,2020.1.3,Win32,60,13285,,,,,,,,,,,,,,0,36,36,80,1,,,,,,,,,,,,,,,,,,,,,,,,,,
,,,,,,,,,,,,l,0.776925,Incorrect,,,,,,t2.png,t3.png,1,0.909,19,Female,2020-10-14_11h30.49.454,torte-q,2020.1.3,Win32,60,13285,,,,,,,,,,,,,,0,37,37,74,1,,,,,,,,,,,,,,,,,,,,,,,,,,
,,,,,,,,,,,,l,0.700235,Incorrect,,,,,,t1.png,t1.png,0,0.978,19,Female,2020-10-14_11h30.49.454,torte-q,2020.1.3,Win32,60,13285,,,,,,,,,,,,,,0,38,38,28,1,,,,,,,,,,,,,,,,,,,,,,,,,,
,,,,,,,,,,,,a,0.80141,Incorrect,,,,,,t5.png,t3.png,2,0.056466,19,Female,2020-10-14_11h30.49.454,torte-q,2020.1.3,Win32,60,13285,,,,,,,,,,,,,,0,39,39,108,1,,,,,,,,,,,,,,,,,,,,,,,,,,
,,,,,,,,,,,,l,0.604745,Incorrect,,,,,,t2.png,t3.png,1,0.90855,19,Female,2020-10-14_11h30.49.454,torte-q,2020.1.3,Win32,60,13285,,,,,,,,,,,,,,0,40,40,68,1,,,,,,,,,,,,,,,,,,,,,,,,,,
,,,,,,,,,,,,a,0.417405,Incorrect,,,,,,t5.png,t1.png,4,9.55E-11,19,Female,2020-10-14_11h30.49.454,torte-q,2020.1.3,Win32,60,13285,,,,,,,,,,,,,,0,41,41,100,1,,,,,,,,,,,,,,,,,,,,,,,,,,
,,,,,,,,,,,,l,0.10001,Incorrect,,,,,,t5.png,t4.png,1,0.90025,19,Female,2020-10-14_11h30.49.454,torte-q,2020.1.3,Win32,60,13285,,,,,,,,,,,,,,0,42,42,27,1,,,,,,,,,,,,,,,,,,,,,,,,,,
,,,,,,,,,,,,a,0.537545,Incorrect,,,,,,t2.png,t4.png,2,0.059078,19,Female,2020-10-14_11h30.49.454,torte-q,2020.1.3,Win32,60,13285,,,,,,,,,,,,,,0,43,43,11,1,,,,,,,,,,,,,,,,,,,,,,,,,,
,,,,,,,,,,,,a,0.84682,Correct!,,,,,,t1.png,t1.png,0,0.97829,19,Female,2020-10-14_11h30.49.454,torte-q,2020.1.3,Win32,60,13285,,,,,,,,,,,,,,0,44,44,9,1,,,,,,,,,,,,,,,,,,,,,,,,,,
,,,,,,,,,,,,l,0.85007,Correct!,,,,,,t2.png,t5.png,3,0.0000131,19,Female,2020-10-14_11h30.49.454,torte-q,2020.1.3,Win32,60,13285,,,,,,,,,,,,,,0,45,45,95,1,,,,,,,,,,,,,,,,,,,,,,,,,,
,,,,,,,,,,,,l,1.825065,Correct!,,,,,,t5.png,t2.png,3,0.0000131,19,Female,2020-10-14_11h30.49.454,torte-q,2020.1.3,Win32,60,13285,,,,,,,,,,,,,,0,46,46,91,1,,,,,,,,,,,,,,,,,,,,,,,,,,
,,,,,,,,,,,,a,1.055865,Incorrect,,,,,,t3.png,t1.png,2,0.056466,19,Female,2020-10-14_11h30.49.454,torte-q,2020.1.3,Win32,60,13285,,,,,,,,,,,,,,0,47,47,0,1,,,,,,,,,,,,,,,,,,,,,,,,,,
,,,,,,,,,,,,l,0.994615,Correct!,,,,,,t1.png,t3.png,2,0.056466,19,Female,2020-10-14_11h30.49.454,torte-q,2020.1.3,Win32,60,13285,,,,,,,,,,,,,,0,48,48,99,1,,,,,,,,,,,,,,,,,,,,,,,,,,
,,,,,,,,,,,,a,1.752135,Correct!,,,,,,t5.png,t5.png,0,0.97829,19,Female,2020-10-14_11h30.49.454,torte-q,2020.1.3,Win32,60,13285,,,,,,,,,,,,,,0,49,49,73,1,,,,,,,,,,,,,,,,,,,,,,,,,,
,,,,,,,,,,,,a,0.626035,Correct!,,,,,,t2.png,t1.png,1,0.90025,19,Female,2020-10-14_11h30.49.454,torte-q,2020.1.3,Win32,60,13285,,,,,,,,,,,,,,0,50,50,5,1,,,,,,,,,,,,,,,,,,,,,,,,,,
,,,,,,,,,,,,a,0.79675,Incorrect,,,,,,t5.png,t2.png,3,0.0000131,19,Female,2020-10-14_11h30.49.454,torte-q,2020.1.3,Win32,60,13285,,,,,,,,,,,,,,0,51,51,98,1,,,,,,,,,,,,,,,,,,,,,,,,,,
,,,,,,,,,,,,a,0.98278,Incorrect,,,,,,t4.png,t1.png,3,0.0000131,19,Female,2020-10-14_11h30.49.454,torte-q,2020.1.3,Win32,60,13285,,,,,,,,,,,,,,0,52,52,48,1,,,,,,,,,,,,,,,,,,,,,,,,,,
,,,,,,,,,,,,l,1.63649,Correct!,,,,,,t1.png,t5.png,4,9.55E-11,19,Female,2020-10-14_11h30.49.454,torte-q,2020.1.3,Win32,60,13285,,,,,,,,,,,,,,0,53,53,12,1,,,,,,,,,,,,,,,,,,,,,,,,,,
,,,,,,,,,,,,a,0.800045,Correct!,,,,,,t4.png,t5.png,1,0.90025,19,Female,2020-10-14_11h30.49.454,torte-q,2020.1.3,Win32,60,13285,,,,,,,,,,,,,,0,54,54,113,1,,,,,,,,,,,,,,,,,,,,,,,,,,
,,,,,,,,,,,,l,1.85029,Correct!,,,,,,t1.png,t5.png,4,9.55E-11,19,Female,2020-10-14_11h30.49.454,torte-q,2020.1.3,Win32,60,13285,,,,,,,,,,,,,,0,55,55,41,1,,,,,,,,,,,,,,,,,,,,,,,,,,
,,,,,,,,,,,,a,0.886845,Incorrect,,,,,,t4.png,t2.png,2,0.059078,19,Female,2020-10-14_11h30.49.454,torte-q,2020.1.3,Win32,60,13285,,,,,,,,,,,,,,0,56,56,86,1,,,,,,,,,,,,,,,,,,,,,,,,,,
,,,,,,,,,,,,l,0.81745,Correct!,,,,,,t2.png,t5.png,3,0.0000131,19,Female,2020-10-14_11h30.49.454,torte-q,2020.1.3,Win32,60,13285,,,,,,,,,,,,,,0,57,57,66,1,,,,,,,,,,,,,,,,,,,,,,,,,,
,,,,,,,,,,,,a,0.76324,Correct!,,,,,,t3.png,t2.png,1,0.90855,19,Female,2020-10-14_11h30.49.454,torte-q,2020.1.3,Win32,60,13285,,,,,,,,,,,,,,0,58,58,97,1,,,,,,,,,,,,,,,,,,,,,,,,,,
,,,,,,,,,,,,l,0.77078,Correct!,,,,,,t2.png,t4.png,2,0.059078,19,Female,2020-10-14_11h30.49.454,torte-q,2020.1.3,Win32,60,13285,,,,,,,,,,,,,,0,59,59,77,1,,,,,,,,,,,,,,,,,,,,,,,,,,
,,,,,,,,,,,,a,0.764195,Correct!,,,,,,t2.png,t2.png,0,0.98115,19,Female,2020-10-14_11h30.49.454,torte-q,2020.1.3,Win32,60,13285,,,,,,,,,,,,,,0,60,60,7,1,,,,,,,,,,,,,,,,,,,,,,,,,,
,,,,,,,,,,,,a,0.769395,Correct!,,,,,,t5.png,t5.png,0,0.97829,19,Female,2020-10-14_11h30.49.454,torte-q,2020.1.3,Win32,60,13285,,,,,,,,,,,,,,0,61,61,94,1,,,,,,,,,,,,,,,,,,,,,,,,,,
,,,,,,,,,,,,l,1.124485,Incorrect,,,,,,t4.png,t3.png,1,0.909,19,Female,2020-10-14_11h30.49.454,torte-q,2020.1.3,Win32,60,13285,,,,,,,,,,,,,,0,62,62,20,1,,,,,,,,,,,,,,,,,,,,,,,,,,
,,,,,,,,,,,,a,0.844395,Correct!,,,,,,t1.png,t1.png,0,0.978,19,Female,2020-10-14_11h30.49.454,torte-q,2020.1.3,Win32,60,13285,,,,,,,,,,,,,,0,63,63,54,1,,,,,,,,,,,,,,,,,,,,,,,,,,
,,,,,,,,,,,,a,0.48409,Incorrect,,,,,,t1.png,t5.png,4,9.55E-11,19,Female,2020-10-14_11h30.49.454,torte-q,2020.1.3,Win32,60,13285,,,,,,,,,,,,,,0,64,64,85,1,,,,,,,,,,,,,,,,,,,,,,,,,,
,,,,,,,,,,,,l,1.03406,Correct!,,,,,,t3.png,t1.png,2,0.056466,19,Female,2020-10-14_11h30.49.454,torte-q,2020.1.3,Win32,60,13285,,,,,,,,,,,,,,0,65,65,32,1,,,,,,,,,,,,,,,,,,,,,,,,,,
,,,,,,,,,,,,l,0.347215,Incorrect,,,,,,t1.png,t1.png,0,0.97829,19,Female,2020-10-14_11h30.49.454,torte-q,2020.1.3,Win32,60,13285,,,,,,,,,,,,,,0,66,66,78,1,,,,,,,,,,,,,,,,,,,,,,,,,,
,,,,,,,,,,,,a,0.19247,Correct!,,,,,,t1.png,t1.png,0,0.97829,19,Female,2020-10-14_11h30.49.454,torte-q,2020.1.3,Win32,60,13285,,,,,,,,,,,,,,0,67,67,67,1,,,,,,,,,,,,,,,,,,,,,,,,,,
,,,,,,,,,,,,l,0.637315,Correct!,,,,,,t2.png,t4.png,2,0.059078,19,Female,2020-10-14_11h30.49.454,torte-q,2020.1.3,Win32,60,13285,,,,,,,,,,,,,,0,68,68,24,1,,,,,,,,,,,,,,,,,,,,,,,,,,
,,,,,,,,,,,,a,0.76805,Incorrect,,,,,,t5.png,t3.png,2,0.0565,19,Female,2020-10-14_11h30.49.454,torte-q,2020.1.3,Win32,60,13285,,,,,,,,,,,,,,0,69,69,39,1,,,,,,,,,,,,,,,,,,,,,,,,,,
,,,,,,,,,,,,a,1.018465,Incorrect,,,,,,t1.png,t4.png,3,0.0000131,19,Female,2020-10-14_11h30.49.454,torte-q,2020.1.3,Win32,60,13285,,,,,,,,,,,,,,0,70,70,50,1,,,,,,,,,,,,,,,,,,,,,,,,,,
,,,,,,,,,,,,a,0.73399,Correct!,,,,,,t5.png,t5.png,0,0.97829,19,Female,2020-10-14_11h30.49.454,torte-q,2020.1.3,Win32,60,13285,,,,,,,,,,,,,,0,71,71,25,1,,,,,,,,,,,,,,,,,,,,,,,,,,
,,,,,,,,,,,,a,0.63443,Incorrect,,,,,,t1.png,t3.png,2,0.056466,19,Female,2020-10-14_11h30.49.454,torte-q,2020.1.3,Win32,60,13285,,,,,,,,,,,,,,0,72,72,60,1,,,,,,,,,,,,,,,,,,,,,,,,,,
,,,,,,,,,,,,l,0.33548,Incorrect,,,,,,t2.png,t3.png,1,0.90855,19,Female,2020-10-14_11h30.49.454,torte-q,2020.1.3,Win32,60,13285,,,,,,,,,,,,,,0,73,73,111,1,,,,,,,,,,,,,,,,,,,,,,,,,,
,,,,,,,,,,,,l,0.379855,Incorrect,,,,,,t2.png,t2.png,0,0.98115,19,Female,2020-10-14_11h30.49.454,torte-q,2020.1.3,Win32,60,13285,,,,,,,,,,,,,,0,74,74,59,1,,,,,,,,,,,,,,,,,,,,,,,,,,
,,,,,,,,,,,,a,1.10027,Correct!,,,,,,t2.png,t1.png,1,0.90025,19,Female,2020-10-14_11h30.49.454,torte-q,2020.1.3,Win32,60,13285,,,,,,,,,,,,,,0,75,75,19,1,,,,,,,,,,,,,,,,,,,,,,,,,,
,,,,,,,,,,,,l,0.96831,Incorrect,,,,,,t2.png,t4.png,2,0.059078,19,Female,2020-10-14_11h30.49.454,torte-q,2020.1.3,Win32,60,13285,,,,,,,,,,,,,,0,76,76,37,1,,,,,,,,,,,,,,,,,,,,,,,,,,
,,,,,,,,,,,,a,0.65105,Incorrect,,,,,,t4.png,t2.png,2,0.059078,19,Female,2020-10-14_11h30.49.454,torte-q,2020.1.3,Win32,60,13285,,,,,,,,,,,,,,0,77,77,109,1,,,,,,,,,,,,,,,,,,,,,,,,,,
,,,,,,,,,,,,a,0.35154,Correct!,,,,,,t5.png,t4.png,1,0.90025,19,Female,2020-10-14_11h30.49.454,torte-q,2020.1.3,Win32,60,13285,,,,,,,,,,,,,,0,78,78,34,1,,,,,,,,,,,,,,,,,,,,,,,,,,
,,,,,,,,,,,,l,0.30072,Incorrect,,,,,,t2.png,t3.png,1,0.90855,19,Female,2020-10-14_11h30.49.454,torte-q,2020.1.3,Win32,60,13285,,,,,,,,,,,,,,0,79,79,65,1,,,,,,,,,,,,,,,,,,,,,,,,,,
,,,,,,,,,,,,l,0.34017,Incorrect,,,,,,t3.png,t2.png,1,0.909,19,Female,2020-10-14_11h30.49.454,torte-q,2020.1.3,Win32,60,13285,,,,,,,,,,,,,,0,80,80,23,1,,,,,,,,,,,,,,,,,,,,,,,,,,
,,,,,,,,,,,,a,0.4671,Incorrect,,,,,,t3.png,t1.png,2,0.0565,19,Female,2020-10-14_11h30.49.454,torte-q,2020.1.3,Win32,60,13285,,,,,,,,,,,,,,0,81,81,31,1,,,,,,,,,,,,,,,,,,,,,,,,,,
,,,,,,,,,,,,l,0.48223,Incorrect,,,,,,t2.png,t2.png,0,0.981,19,Female,2020-10-14_11h30.49.454,torte-q,2020.1.3,Win32,60,13285,,,,,,,,,,,,,,0,82,82,101,1,,,,,,,,,,,,,,,,,,,,,,,,,,
,,,,,,,,,,,,a,0.4785,Correct!,,,,,,t5.png,t4.png,1,0.9,19,Female,2020-10-14_11h30.49.454,torte-q,2020.1.3,Win32,60,13285,,,,,,,,,,,,,,0,83,83,49,1,,,,,,,,,,,,,,,,,,,,,,,,,,
,,,,,,,,,,,,l,0.34598,Correct!,,,,,,t1.png,t4.png,3,0.0000131,19,Female,2020-10-14_11h30.49.454,torte-q,2020.1.3,Win32,60,13285,,,,,,,,,,,,,,0,84,84,92,1,,,,,,,,,,,,,,,,,,,,,,,,,,
,,,,,,,,,,,,l,0.60171,Incorrect,,,,,,t3.png,t4.png,1,0.909,19,Female,2020-10-14_11h30.49.454,torte-q,2020.1.3,Win32,60,13285,,,,,,,,,,,,,,0,85,85,106,1,,,,,,,,,,,,,,,,,,,,,,,,,,
,,,,,,,,,,,,l,1.11672,Incorrect,,,,,,t3.png,t4.png,1,0.90855,19,Female,2020-10-14_11h30.49.454,torte-q,2020.1.3,Win32,60,13285,,,,,,,,,,,,,,0,86,86,84,1,,,,,,,,,,,,,,,,,,,,,,,,,,
,,,,,,,,,,,,a,0.961585,Incorrect,,,,,,t1.png,t4.png,3,0.0000131,19,Female,2020-10-14_11h30.49.454,torte-q,2020.1.3,Win32,60,13285,,,,,,,,,,,,,,0,87,87,81,1,,,,,,,,,,,,,,,,,,,,,,,,,,
,,,,,,,,,,,,l,1.684185,Correct!,,,,,,t1.png,t5.png,4,9.55E-11,19,Female,2020-10-14_11h30.49.454,torte-q,2020.1.3,Win32,60,13285,,,,,,,,,,,,,,0,88,88,16,1,,,,,,,,,,,,,,,,,,,,,,,,,,
,,,,,,,,,,,,l,0.84011,Incorrect,,,,,,t4.png,t4.png,0,0.98115,19,Female,2020-10-14_11h30.49.454,torte-q,2020.1.3,Win32,60,13285,,,,,,,,,,,,,,0,89,89,21,1,,,,,,,,,,,,,,,,,,,,,,,,,,
,,,,,,,,,,,,a,0.81703,Incorrect,,,,,,t2.png,t5.png,3,0.0000131,19,Female,2020-10-14_11h30.49.454,torte-q,2020.1.3,Win32,60,13285,,,,,,,,,,,,,,0,90,90,40,1,,,,,,,,,,,,,,,,,,,,,,,,,,
,,,,,,,,,,,,l,1.409995,Incorrect,,,,,,t3.png,t4.png,1,0.909,19,Female,2020-10-14_11h30.49.454,torte-q,2020.1.3,Win32,60,13285,,,,,,,,,,,,,,0,91,91,82,1,,,,,,,,,,,,,,,,,,,,,,,,,,
,,,,,,,,,,,,a,0.939745,Incorrect,,,,,,t5.png,t2.png,3,0.0000131,19,Female,2020-10-14_11h30.49.454,torte-q,2020.1.3,Win32,60,13285,,,,,,,,,,,,,,0,92,92,116,1,,,,,,,,,,,,,,,,,,,,,,,,,,
,,,,,,,,,,,,a,1.40121,Incorrect,,,,,,t4.png,t1.png,3,0.0000131,19,Female,2020-10-14_11h30.49.454,torte-q,2020.1.3,Win32,60,13285,,,,,,,,,,,,,,0,93,93,93,1,,,,,,,,,,,,,,,,,,,,,,,,,,
,,,,,,,,,,,,a,1.37184,Correct!,,,,,,t4.png,t4.png,0,0.98115,19,Female,2020-10-14_11h30.49.454,torte-q,2020.1.3,Win32,60,13285,,,,,,,,,,,,,,0,94,94,79,1,,,,,,,,,,,,,,,,,,,,,,,,,,
,,,,,,,,,,,,l,0.93824,Correct!,,,,,,t3.png,t5.png,2,0.056466,19,Female,2020-10-14_11h30.49.454,torte-q,2020.1.3,Win32,60,13285,,,,,,,,,,,,,,0,95,95,6,1,,,,,,,,,,,,,,,,,,,,,,,,,,
,,,,,,,,,,,,a,2.09289,Correct!,,,,,,t2.png,t2.png,0,0.98115,19,Female,2020-10-14_11h30.49.454,torte-q,2020.1.3,Win32,60,13285,,,,,,,,,,,,,,0,96,96,2,1,,,,,,,,,,,,,,,,,,,,,,,,,,
,,,,,,,,,,,,l,1.300525,Incorrect,,,,,,t4.png,t3.png,1,0.90855,19,Female,2020-10-14_11h30.49.454,torte-q,2020.1.3,Win32,60,13285,,,,,,,,,,,,,,0,97,97,35,1,,,,,,,,,,,,,,,,,,,,,,,,,,
,,,,,,,,,,,,a,0.52035,Incorrect,,,,,,t3.png,t5.png,2,0.056466,19,Female,2020-10-14_11h30.49.454,torte-q,2020.1.3,Win32,60,13285,,,,,,,,,,,,,,0,98,98,14,1,,,,,,,,,,,,,,,,,,,,,,,,,,
,,,,,,,,,,,,l,0.46017,Correct!,,,,,,t5.png,t1.png,4,9.55E-11,19,Female,2020-10-14_11h30.49.454,torte-q,2020.1.3,Win32,60,13285,,,,,,,,,,,,,,0,99,99,43,1,,,,,,,,,,,,,,,,,,,,,,,,,,
,,,,,,,,,,,,a,0.5333,Incorrect,,,,,,t5.png,t2.png,3,0.0000131,19,Female,2020-10-14_11h30.49.454,torte-q,2020.1.3,Win32,60,13285,,,,,,,,,,,,,,0,100,100,51,1,,,,,,,,,,,,,,,,,,,,,,,,,,
,,,,,,,,,,,,a,0.523235,Incorrect,,,,,,t4.png,t2.png,2,0.0591,19,Female,2020-10-14_11h30.49.454,torte-q,2020.1.3,Win32,60,13285,,,,,,,,,,,,,,0,101,101,36,1,,,,,,,,,,,,,,,,,,,,,,,,,,
,,,,,,,,,,,,l,1.35603,Correct!,,,,,,t1.png,t3.png,2,0.056466,19,Female,2020-10-14_11h30.49.454,torte-q,2020.1.3,Win32,60,13285,,,,,,,,,,,,,,0,102,102,63,1,,,,,,,,,,,,,,,,,,,,,,,,,,
,,,,,,,,,,,,a,1.540165,Incorrect,,,,,,t5.png,t3.png,2,0.056466,19,Female,2020-10-14_11h30.49.454,torte-q,2020.1.3,Win32,60,13285,,,,,,,,,,,,,,0,103,103,56,1,,,,,,,,,,,,,,,,,,,,,,,,,,
,,,,,,,,,,,,a,1.43231,Correct!,,,,,,t4.png,t5.png,1,0.90025,19,Female,2020-10-14_11h30.49.454,torte-q,2020.1.3,Win32,60,13285,,,,,,,,,,,,,,0,104,104,58,1,,,,,,,,,,,,,,,,,,,,,,,,,,
,,,,,,,,,,,,a,0.984565,Correct!,,,,,,t4.png,t5.png,1,0.90025,19,Female,2020-10-14_11h30.49.454,torte-q,2020.1.3,Win32,60,13285,,,,,,,,,,,,,,0,105,105,103,1,,,,,,,,,,,,,,,,,,,,,,,,,,
,,,,,,,,,,,,l,0.50141,Incorrect,,,,,,t1.png,t2.png,1,0.90025,19,Female,2020-10-14_11h30.49.454,torte-q,2020.1.3,Win32,60,13285,,,,,,,,,,,,,,0,106,106,112,1,,,,,,,,,,,,,,,,,,,,,,,,,,
,,,,,,,,,,,,l,0.79622,Correct!,,,,,,t2.png,t5.png,3,0.0000131,19,Female,2020-10-14_11h30.49.454,torte-q,2020.1.3,Win32,60,13285,,,,,,,,,,,,,,0,107,107,8,1,,,,,,,,,,,,,,,,,,,,,,,,,,
,,,,,,,,,,,,a,1.66124,Incorrect,,,,,,t3.png,t5.png,2,0.056466,19,Female,2020-10-14_11h30.49.454,torte-q,2020.1.3,Win32,60,13285,,,,,,,,,,,,,,0,108,108,44,1,,,,,,,,,,,,,,,,,,,,,,,,,,
,,,,,,,,,,,,a,2.16704,Correct!,,,,,,t2.png,t1.png,1,0.90025,19,Female,2020-10-14_11h30.49.454,torte-q,2020.1.3,Win32,60,13285,,,,,,,,,,,,,,0,109,109,62,1,,,,,,,,,,,,,,,,,,,,,,,,,,
,,,,,,,,,,,,l,0.70741,Correct!,,,,,,t1.png,t4.png,3,0.0000131,19,Female,2020-10-14_11h30.49.454,torte-q,2020.1.3,Win32,60,13285,,,,,,,,,,,,,,0,110,110,107,1,,,,,,,,,,,,,,,,,,,,,,,,,,
,,,,,,,,,,,,l,0.565215,Correct!,,,,,,t4.png,t2.png,2,0.059078,19,Female,2020-10-14_11h30.49.454,torte-q,2020.1.3,Win32,60,13285,,,,,,,,,,,,,,0,111,111,110,1,,,,,,,,,,,,,,,,,,,,,,,,,,
,,,,,,,,,,,,a,0.350465,Correct!,,,,,,t2.png,t2.png,0,0.98115,19,Female,2020-10-14_11h30.49.454,torte-q,2020.1.3,Win32,60,13285,,,,,,,,,,,,,,0,112,112,57,1,,,,,,,,,,,,,,,,,,,,,,,,,,
,,,,,,,,,,,,a,0.301775,Correct!,,,,,,t1.png,t3.png,2,0.056466,19,Female,2020-10-14_11h30.49.454,torte-q,2020.1.3,Win32,60,13285,,,,,,,,,,,,,,0,113,113,69,1,,,,,,,,,,,,,,,,,,,,,,,,,,
,,,,,,,,,,,,a,0.467425,Correct!,,,,,,t3.png,t2.png,1,0.90855,19,Female,2020-10-14_11h30.49.454,torte-q,2020.1.3,Win32,60,13285,,,,,,,,,,,,,,0,114,114,53,1,,,,,,,,,,,,,,,,,,,,,,,,,,
,,,,,,,,,,,,a,0.36297,Incorrect,,,,,,t5.png,t2.png,3,0.0000131,19,Female,2020-10-14_11h30.49.454,torte-q,2020.1.3,Win32,60,13285,,,,,,,,,,,,,,0,115,115,119,1,,,,,,,,,,,,,,,,,,,,,,,,,,
,,,,,,,,,,,,l,0.305255,Incorrect,,,,,,t2.png,t1.png,1,0.90025,19,Female,2020-10-14_11h30.49.454,torte-q,2020.1.3,Win32,60,13285,,,,,,,,,,,,,,0,116,116,4,1,,,,,,,,,,,,,,,,,,,,,,,,,,
,,,,,,,,,,,,l,0.88327,Correct!,,,,,,t4.png,t1.png,3,0.0000131,19,Female,2020-10-14_11h30.49.454,torte-q,2020.1.3,Win32,60,13285,,,,,,,,,,,,,,0,117,117,42,1,,,,,,,,,,,,,,,,,,,,,,,,,,
,,,,,,,,,,,,a,0.57551,Correct!,,,,,,t3.png,t4.png,1,0.909,19,Female,2020-10-14_11h30.49.454,torte-q,2020.1.3,Win32,60,13285,,,,,,,,,,,,,,0,118,118,89,1,,,,,,,,,,,,,,,,,,,,,,,,,,
,,,,,,,,,,,,l,0.342455,Correct!,,,,,,t3.png,t1.png,2,0.056466,19,Female,2020-10-14_11h30.49.454,torte-q,2020.1.3,Win32,60,13285,,,,,,,,,,,,,,0,119,119,64,1,,,,,,,,,,,,,,,,,,,,,,,,,,
,,,,,,,,,,,,,,,,,,,,,,,,19,Female,2020-10-14_11h30.49.454,torte-q,2020.1.3,Win32,60,13285,space,3.08358,,,,,,,,,,,,,,,,,4.012000275,4.201845,77.6000126,-8.800006568,1,0,0,s4,9.600060415,21.59999388,1,0,0,t2,193.6000143,-116.8000082,1,0,0,proceed,space,17.317395,space,1.13359,space,0.584145
