key_resp_8.keys,key_resp_8.rt,key_resp_9.keys,key_resp_9.rt,key_resp_10.keys,key_resp_10.rt,key_resp_11.keys,key_resp_11.rt,key_resp_2.keys,key_resp_2.rt,key_resp_3.keys,key_resp_3.rt,key_resp.keys,key_resp.rt,Feedback,train.thisRepN,train.thisTrialN,train.thisN,train.thisIndex,train.ran,torta_sx,torta_dx,difference,probability,age,gender,date,expName,psychopyVersion,OS,frameRate,participant,key_resp_15.keys,key_resp_15.rt,key_resp_6.keys,key_resp_6.rt,test1.thisRepN,test1.thisTrialN,test1.thisN,test1.thisIndex,test1.ran,key_resp_16.keys,key_resp_16.rt,key_resp_7.keys,key_resp_7.rt,test2.thisRepN,test2.thisTrialN,test2.thisN,test2.thisIndex,test2.ran,rating.response,rating.rt,mouse.x,mouse.y,mouse.leftButton,mouse.midButton,mouse.rightButton,mouse.clicked_name,mouse_2.x,mouse_2.y,mouse_2.leftButton,mouse_2.midButton,mouse_2.rightButton,mouse_2.clicked_name,mouse_3.x,mouse_3.y,mouse_3.leftButton,mouse_3.midButton,mouse_3.rightButton,mouse_3.clicked_name,key_resp_12.keys,key_resp_12.rt,key_resp_13.keys,key_resp_13.rt,key_resp_14.keys,key_resp_14.rt
space,63.880675,space,10.333285,space,5.22993,space,4.348945,space,34.91565,space,122.819745,a,1.6757,Correct!,0,0,0,71,1,t5.png,t5.png,0,0.97829,19,Female,2020-10-16_17h24.06.756,torte-q,2020.1.3,Win32,60,13300,,,,,,,,,,,,,,,,,,,,,,,,,,,,,,,,,,,,,,,,,,,,
,,,,,,,,,,,,a,0.836525,Incorrect,0,1,1,27,1,t3.png,t1.png,2,0.0565,19,Female,2020-10-16_17h24.06.756,torte-q,2020.1.3,Win32,60,13300,,,,,,,,,,,,,,,,,,,,,,,,,,,,,,,,,,,,,,,,,,,,
,,,,,,,,,,,,l,1.36605,Incorrect,0,2,2,101,1,t4.png,t5.png,1,0.90025,19,Female,2020-10-16_17h24.06.756,torte-q,2020.1.3,Win32,60,13300,,,,,,,,,,,,,,,,,,,,,,,,,,,,,,,,,,,,,,,,,,,,
,,,,,,,,,,,,a,1.60238,Correct!,0,3,3,96,1,t1.png,t1.png,0,0.97829,19,Female,2020-10-16_17h24.06.756,torte-q,2020.1.3,Win32,60,13300,,,,,,,,,,,,,,,,,,,,,,,,,,,,,,,,,,,,,,,,,,,,
,,,,,,,,,,,,a,0.91973,Correct!,0,4,4,84,1,t1.png,t1.png,0,0.97829,19,Female,2020-10-16_17h24.06.756,torte-q,2020.1.3,Win32,60,13300,,,,,,,,,,,,,,,,,,,,,,,,,,,,,,,,,,,,,,,,,,,,
,,,,,,,,,,,,a,0.89063,Incorrect,0,5,5,53,1,t3.png,t1.png,2,0.056466,19,Female,2020-10-16_17h24.06.756,torte-q,2020.1.3,Win32,60,13300,,,,,,,,,,,,,,,,,,,,,,,,,,,,,,,,,,,,,,,,,,,,
,,,,,,,,,,,,l,1.16863,Correct!,0,6,6,72,1,t4.png,t2.png,2,0.059078,19,Female,2020-10-16_17h24.06.756,torte-q,2020.1.3,Win32,60,13300,,,,,,,,,,,,,,,,,,,,,,,,,,,,,,,,,,,,,,,,,,,,
,,,,,,,,,,,,a,1.052725,Correct!,0,7,7,39,1,t3.png,t2.png,1,0.90855,19,Female,2020-10-16_17h24.06.756,torte-q,2020.1.3,Win32,60,13300,,,,,,,,,,,,,,,,,,,,,,,,,,,,,,,,,,,,,,,,,,,,
,,,,,,,,,,,,l,1.236215,Correct!,0,8,8,33,1,t5.png,t1.png,4,9.55E-11,19,Female,2020-10-16_17h24.06.756,torte-q,2020.1.3,Win32,60,13300,,,,,,,,,,,,,,,,,,,,,,,,,,,,,,,,,,,,,,,,,,,,
,,,,,,,,,,,,a,0.904295,Correct!,0,9,9,112,1,t1.png,t1.png,0,0.97829,19,Female,2020-10-16_17h24.06.756,torte-q,2020.1.3,Win32,60,13300,,,,,,,,,,,,,,,,,,,,,,,,,,,,,,,,,,,,,,,,,,,,
,,,,,,,,,,,,l,1.06907,Incorrect,0,10,10,97,1,t5.png,t5.png,0,0.97829,19,Female,2020-10-16_17h24.06.756,torte-q,2020.1.3,Win32,60,13300,,,,,,,,,,,,,,,,,,,,,,,,,,,,,,,,,,,,,,,,,,,,
,,,,,,,,,,,,l,1.08716,Incorrect,0,11,11,81,1,t1.png,t1.png,0,0.97829,19,Female,2020-10-16_17h24.06.756,torte-q,2020.1.3,Win32,60,13300,,,,,,,,,,,,,,,,,,,,,,,,,,,,,,,,,,,,,,,,,,,,
,,,,,,,,,,,,l,1.06966,Correct!,0,12,12,91,1,t1.png,t4.png,3,0.0000131,19,Female,2020-10-16_17h24.06.756,torte-q,2020.1.3,Win32,60,13300,,,,,,,,,,,,,,,,,,,,,,,,,,,,,,,,,,,,,,,,,,,,
,,,,,,,,,,,,l,1.36976,Incorrect,0,13,13,20,1,t2.png,t3.png,1,0.90855,19,Female,2020-10-16_17h24.06.756,torte-q,2020.1.3,Win32,60,13300,,,,,,,,,,,,,,,,,,,,,,,,,,,,,,,,,,,,,,,,,,,,
,,,,,,,,,,,,l,1.189955,Correct!,0,14,14,119,1,t1.png,t5.png,4,9.55E-11,19,Female,2020-10-16_17h24.06.756,torte-q,2020.1.3,Win32,60,13300,,,,,,,,,,,,,,,,,,,,,,,,,,,,,,,,,,,,,,,,,,,,
,,,,,,,,,,,,l,1.436735,Incorrect,0,15,15,64,1,t1.png,t1.png,0,0.978,19,Female,2020-10-16_17h24.06.756,torte-q,2020.1.3,Win32,60,13300,,,,,,,,,,,,,,,,,,,,,,,,,,,,,,,,,,,,,,,,,,,,
,,,,,,,,,,,,l,1.162315,Correct!,0,16,16,115,1,t2.png,t4.png,2,0.059078,19,Female,2020-10-16_17h24.06.756,torte-q,2020.1.3,Win32,60,13300,,,,,,,,,,,,,,,,,,,,,,,,,,,,,,,,,,,,,,,,,,,,
,,,,,,,,,,,,l,0.67041,Correct!,0,17,17,40,1,t1.png,t5.png,4,9.55E-11,19,Female,2020-10-16_17h24.06.756,torte-q,2020.1.3,Win32,60,13300,,,,,,,,,,,,,,,,,,,,,,,,,,,,,,,,,,,,,,,,,,,,
,,,,,,,,,,,,a,0.57184,Correct!,0,18,18,75,1,t1.png,t1.png,0,0.97829,19,Female,2020-10-16_17h24.06.756,torte-q,2020.1.3,Win32,60,13300,,,,,,,,,,,,,,,,,,,,,,,,,,,,,,,,,,,,,,,,,,,,
,,,,,,,,,,,,a,0.737085,Correct!,0,19,19,78,1,t1.png,t1.png,0,0.978,19,Female,2020-10-16_17h24.06.756,torte-q,2020.1.3,Win32,60,13300,,,,,,,,,,,,,,,,,,,,,,,,,,,,,,,,,,,,,,,,,,,,
,,,,,,,,,,,,l,0.819195,Correct!,0,20,20,14,1,t2.png,t4.png,2,0.059078,19,Female,2020-10-16_17h24.06.756,torte-q,2020.1.3,Win32,60,13300,,,,,,,,,,,,,,,,,,,,,,,,,,,,,,,,,,,,,,,,,,,,
,,,,,,,,,,,,l,0.96263,Incorrect,0,21,21,79,1,t3.png,t2.png,1,0.909,19,Female,2020-10-16_17h24.06.756,torte-q,2020.1.3,Win32,60,13300,,,,,,,,,,,,,,,,,,,,,,,,,,,,,,,,,,,,,,,,,,,,
,,,,,,,,,,,,l,1.128785,Incorrect,0,22,22,106,1,t2.png,t3.png,1,0.90855,19,Female,2020-10-16_17h24.06.756,torte-q,2020.1.3,Win32,60,13300,,,,,,,,,,,,,,,,,,,,,,,,,,,,,,,,,,,,,,,,,,,,
,,,,,,,,,,,,a,1.08805,Incorrect,0,23,23,82,1,t5.png,t1.png,4,9.55E-11,19,Female,2020-10-16_17h24.06.756,torte-q,2020.1.3,Win32,60,13300,,,,,,,,,,,,,,,,,,,,,,,,,,,,,,,,,,,,,,,,,,,,
,,,,,,,,,,,,l,0.74365,Incorrect,0,24,24,52,1,t2.png,t4.png,2,0.059078,19,Female,2020-10-16_17h24.06.756,torte-q,2020.1.3,Win32,60,13300,,,,,,,,,,,,,,,,,,,,,,,,,,,,,,,,,,,,,,,,,,,,
,,,,,,,,,,,,l,1.11952,Incorrect,0,25,25,22,1,t2.png,t3.png,1,0.90855,19,Female,2020-10-16_17h24.06.756,torte-q,2020.1.3,Win32,60,13300,,,,,,,,,,,,,,,,,,,,,,,,,,,,,,,,,,,,,,,,,,,,
,,,,,,,,,,,,a,0.835705,Correct!,0,26,26,107,1,t1.png,t1.png,0,0.978,19,Female,2020-10-16_17h24.06.756,torte-q,2020.1.3,Win32,60,13300,,,,,,,,,,,,,,,,,,,,,,,,,,,,,,,,,,,,,,,,,,,,
,,,,,,,,,,,,a,1.204605,Incorrect,0,27,27,109,1,t5.png,t5.png,0,0.97829,19,Female,2020-10-16_17h24.06.756,torte-q,2020.1.3,Win32,60,13300,,,,,,,,,,,,,,,,,,,,,,,,,,,,,,,,,,,,,,,,,,,,
,,,,,,,,,,,,l,1.359145,Incorrect,0,28,28,113,1,t5.png,t4.png,1,0.9,19,Female,2020-10-16_17h24.06.756,torte-q,2020.1.3,Win32,60,13300,,,,,,,,,,,,,,,,,,,,,,,,,,,,,,,,,,,,,,,,,,,,
,,,,,,,,,,,,a,1.687825,Incorrect,0,29,29,103,1,t3.png,t1.png,2,0.056466,19,Female,2020-10-16_17h24.06.756,torte-q,2020.1.3,Win32,60,13300,,,,,,,,,,,,,,,,,,,,,,,,,,,,,,,,,,,,,,,,,,,,
,,,,,,,,,,,,l,1.16304,Correct!,0,30,30,19,1,t4.png,t2.png,2,0.059078,19,Female,2020-10-16_17h24.06.756,torte-q,2020.1.3,Win32,60,13300,,,,,,,,,,,,,,,,,,,,,,,,,,,,,,,,,,,,,,,,,,,,
,,,,,,,,,,,,a,1.45881,Correct!,0,31,31,7,1,t4.png,t5.png,1,0.90025,19,Female,2020-10-16_17h24.06.756,torte-q,2020.1.3,Win32,60,13300,,,,,,,,,,,,,,,,,,,,,,,,,,,,,,,,,,,,,,,,,,,,
,,,,,,,,,,,,a,0.95981,Correct!,0,32,32,92,1,t2.png,t3.png,1,0.909,19,Female,2020-10-16_17h24.06.756,torte-q,2020.1.3,Win32,60,13300,,,,,,,,,,,,,,,,,,,,,,,,,,,,,,,,,,,,,,,,,,,,
,,,,,,,,,,,,a,1.202745,Incorrect,0,33,33,32,1,t4.png,t5.png,1,0.90025,19,Female,2020-10-16_17h24.06.756,torte-q,2020.1.3,Win32,60,13300,,,,,,,,,,,,,,,,,,,,,,,,,,,,,,,,,,,,,,,,,,,,
,,,,,,,,,,,,l,1.270745,Incorrect,0,34,34,74,1,t5.png,t4.png,1,0.9,19,Female,2020-10-16_17h24.06.756,torte-q,2020.1.3,Win32,60,13300,,,,,,,,,,,,,,,,,,,,,,,,,,,,,,,,,,,,,,,,,,,,
,,,,,,,,,,,,a,1.074025,Incorrect,0,35,35,38,1,t3.png,t1.png,2,0.056466,19,Female,2020-10-16_17h24.06.756,torte-q,2020.1.3,Win32,60,13300,,,,,,,,,,,,,,,,,,,,,,,,,,,,,,,,,,,,,,,,,,,,
,,,,,,,,,,,,a,1.1933,Correct!,0,36,36,100,1,t4.png,t5.png,1,0.90025,19,Female,2020-10-16_17h24.06.756,torte-q,2020.1.3,Win32,60,13300,,,,,,,,,,,,,,,,,,,,,,,,,,,,,,,,,,,,,,,,,,,,
,,,,,,,,,,,,a,0.938715,Correct!,0,37,37,66,1,t4.png,t5.png,1,0.9,19,Female,2020-10-16_17h24.06.756,torte-q,2020.1.3,Win32,60,13300,,,,,,,,,,,,,,,,,,,,,,,,,,,,,,,,,,,,,,,,,,,,
,,,,,,,,,,,,l,1.13616,Correct!,0,38,38,11,1,t1.png,t4.png,3,0.0000131,19,Female,2020-10-16_17h24.06.756,torte-q,2020.1.3,Win32,60,13300,,,,,,,,,,,,,,,,,,,,,,,,,,,,,,,,,,,,,,,,,,,,
,,,,,,,,,,,,l,1.072925,Incorrect,0,39,39,48,1,t5.png,t5.png,0,0.97829,19,Female,2020-10-16_17h24.06.756,torte-q,2020.1.3,Win32,60,13300,,,,,,,,,,,,,,,,,,,,,,,,,,,,,,,,,,,,,,,,,,,,
,,,,,,,,,,,,l,0.87064,Correct!,0,40,40,90,1,t1.png,t5.png,4,9.55E-11,19,Female,2020-10-16_17h24.06.756,torte-q,2020.1.3,Win32,60,13300,,,,,,,,,,,,,,,,,,,,,,,,,,,,,,,,,,,,,,,,,,,,
,,,,,,,,,,,,a,0.941495,Incorrect,0,41,41,50,1,t5.png,t1.png,4,9.55E-11,19,Female,2020-10-16_17h24.06.756,torte-q,2020.1.3,Win32,60,13300,,,,,,,,,,,,,,,,,,,,,,,,,,,,,,,,,,,,,,,,,,,,
,,,,,,,,,,,,a,1.359445,Correct!,0,42,42,13,1,t5.png,t5.png,0,0.97829,19,Female,2020-10-16_17h24.06.756,torte-q,2020.1.3,Win32,60,13300,,,,,,,,,,,,,,,,,,,,,,,,,,,,,,,,,,,,,,,,,,,,
,,,,,,,,,,,,l,0.73702,Correct!,0,43,43,17,1,t1.png,t4.png,3,0.0000131,19,Female,2020-10-16_17h24.06.756,torte-q,2020.1.3,Win32,60,13300,,,,,,,,,,,,,,,,,,,,,,,,,,,,,,,,,,,,,,,,,,,,
,,,,,,,,,,,,a,1.386515,Correct!,0,44,44,10,1,t2.png,t3.png,1,0.90855,19,Female,2020-10-16_17h24.06.756,torte-q,2020.1.3,Win32,60,13300,,,,,,,,,,,,,,,,,,,,,,,,,,,,,,,,,,,,,,,,,,,,
,,,,,,,,,,,,l,1.319455,Incorrect,0,45,45,41,1,t3.png,t2.png,1,0.90855,19,Female,2020-10-16_17h24.06.756,torte-q,2020.1.3,Win32,60,13300,,,,,,,,,,,,,,,,,,,,,,,,,,,,,,,,,,,,,,,,,,,,
,,,,,,,,,,,,a,0.886855,Correct!,0,46,46,46,1,t4.png,t2.png,2,0.059078,19,Female,2020-10-16_17h24.06.756,torte-q,2020.1.3,Win32,60,13300,,,,,,,,,,,,,,,,,,,,,,,,,,,,,,,,,,,,,,,,,,,,
,,,,,,,,,,,,a,0.986985,Incorrect,0,47,47,0,1,t5.png,t1.png,4,9.55E-11,19,Female,2020-10-16_17h24.06.756,torte-q,2020.1.3,Win32,60,13300,,,,,,,,,,,,,,,,,,,,,,,,,,,,,,,,,,,,,,,,,,,,
,,,,,,,,,,,,a,1.304445,Incorrect,0,48,48,80,1,t1.png,t4.png,3,0.0000131,19,Female,2020-10-16_17h24.06.756,torte-q,2020.1.3,Win32,60,13300,,,,,,,,,,,,,,,,,,,,,,,,,,,,,,,,,,,,,,,,,,,,
,,,,,,,,,,,,l,1.10399,Incorrect,0,49,49,29,1,t5.png,t5.png,0,0.97829,19,Female,2020-10-16_17h24.06.756,torte-q,2020.1.3,Win32,60,13300,,,,,,,,,,,,,,,,,,,,,,,,,,,,,,,,,,,,,,,,,,,,
,,,,,,,,,,,,a,1.122275,Incorrect,0,50,50,73,1,t4.png,t2.png,2,0.059078,19,Female,2020-10-16_17h24.06.756,torte-q,2020.1.3,Win32,60,13300,,,,,,,,,,,,,,,,,,,,,,,,,,,,,,,,,,,,,,,,,,,,
,,,,,,,,,,,,a,1.137095,Correct!,0,51,51,95,1,t1.png,t1.png,0,0.978,19,Female,2020-10-16_17h24.06.756,torte-q,2020.1.3,Win32,60,13300,,,,,,,,,,,,,,,,,,,,,,,,,,,,,,,,,,,,,,,,,,,,
,,,,,,,,,,,,l,1.136775,Correct!,0,52,52,56,1,t5.png,t1.png,4,9.55E-11,19,Female,2020-10-16_17h24.06.756,torte-q,2020.1.3,Win32,60,13300,,,,,,,,,,,,,,,,,,,,,,,,,,,,,,,,,,,,,,,,,,,,
,,,,,,,,,,,,l,1.350635,Correct!,0,53,53,47,1,t4.png,t2.png,2,0.059078,19,Female,2020-10-16_17h24.06.756,torte-q,2020.1.3,Win32,60,13300,,,,,,,,,,,,,,,,,,,,,,,,,,,,,,,,,,,,,,,,,,,,
,,,,,,,,,,,,l,0.596595,Incorrect,0,54,54,15,1,t3.png,t2.png,1,0.90855,19,Female,2020-10-16_17h24.06.756,torte-q,2020.1.3,Win32,60,13300,,,,,,,,,,,,,,,,,,,,,,,,,,,,,,,,,,,,,,,,,,,,
,,,,,,,,,,,,a,0.938825,Incorrect,0,55,55,83,1,t3.png,t1.png,2,0.056466,19,Female,2020-10-16_17h24.06.756,torte-q,2020.1.3,Win32,60,13300,,,,,,,,,,,,,,,,,,,,,,,,,,,,,,,,,,,,,,,,,,,,
,,,,,,,,,,,,l,0.75822,Correct!,0,56,56,102,1,t4.png,t2.png,2,0.059078,19,Female,2020-10-16_17h24.06.756,torte-q,2020.1.3,Win32,60,13300,,,,,,,,,,,,,,,,,,,,,,,,,,,,,,,,,,,,,,,,,,,,
,,,,,,,,,,,,l,0.704255,Incorrect,0,57,57,69,1,t4.png,t2.png,2,0.059078,19,Female,2020-10-16_17h24.06.756,torte-q,2020.1.3,Win32,60,13300,,,,,,,,,,,,,,,,,,,,,,,,,,,,,,,,,,,,,,,,,,,,
,,,,,,,,,,,,l,1.02021,Correct!,0,58,58,99,1,t1.png,t5.png,4,9.55E-11,19,Female,2020-10-16_17h24.06.756,torte-q,2020.1.3,Win32,60,13300,,,,,,,,,,,,,,,,,,,,,,,,,,,,,,,,,,,,,,,,,,,,
,,,,,,,,,,,,l,1.20763,Incorrect,0,59,59,21,1,t5.png,t4.png,1,0.90025,19,Female,2020-10-16_17h24.06.756,torte-q,2020.1.3,Win32,60,13300,,,,,,,,,,,,,,,,,,,,,,,,,,,,,,,,,,,,,,,,,,,,
,,,,,,,,,,,,l,0.986955,Correct!,0,60,60,6,1,t1.png,t4.png,3,0.0000131,19,Female,2020-10-16_17h24.06.756,torte-q,2020.1.3,Win32,60,13300,,,,,,,,,,,,,,,,,,,,,,,,,,,,,,,,,,,,,,,,,,,,
,,,,,,,,,,,,a,1.04371,Incorrect,0,61,61,60,1,t2.png,t4.png,2,0.059078,19,Female,2020-10-16_17h24.06.756,torte-q,2020.1.3,Win32,60,13300,,,,,,,,,,,,,,,,,,,,,,,,,,,,,,,,,,,,,,,,,,,,
,,,,,,,,,,,,a,1.368345,Incorrect,0,62,62,67,1,t1.png,t5.png,4,9.55E-11,19,Female,2020-10-16_17h24.06.756,torte-q,2020.1.3,Win32,60,13300,,,,,,,,,,,,,,,,,,,,,,,,,,,,,,,,,,,,,,,,,,,,
,,,,,,,,,,,,l,0.62597,Correct!,0,63,63,3,1,t1.png,t5.png,4,9.55E-11,19,Female,2020-10-16_17h24.06.756,torte-q,2020.1.3,Win32,60,13300,,,,,,,,,,,,,,,,,,,,,,,,,,,,,,,,,,,,,,,,,,,,
,,,,,,,,,,,,l,0.636665,Correct!,0,64,64,31,1,t1.png,t5.png,4,9.55E-11,19,Female,2020-10-16_17h24.06.756,torte-q,2020.1.3,Win32,60,13300,,,,,,,,,,,,,,,,,,,,,,,,,,,,,,,,,,,,,,,,,,,,
,,,,,,,,,,,,l,0.58874,Correct!,0,65,65,54,1,t1.png,t5.png,4,9.55E-11,19,Female,2020-10-16_17h24.06.756,torte-q,2020.1.3,Win32,60,13300,,,,,,,,,,,,,,,,,,,,,,,,,,,,,,,,,,,,,,,,,,,,
,,,,,,,,,,,,a,1.203795,Incorrect,0,66,66,108,1,t5.png,t1.png,4,9.55E-11,19,Female,2020-10-16_17h24.06.756,torte-q,2020.1.3,Win32,60,13300,,,,,,,,,,,,,,,,,,,,,,,,,,,,,,,,,,,,,,,,,,,,
,,,,,,,,,,,,l,0.986255,Correct!,0,67,67,5,1,t2.png,t4.png,2,0.059078,19,Female,2020-10-16_17h24.06.756,torte-q,2020.1.3,Win32,60,13300,,,,,,,,,,,,,,,,,,,,,,,,,,,,,,,,,,,,,,,,,,,,
,,,,,,,,,,,,l,0.99189,Incorrect,0,68,68,65,1,t4.png,t5.png,1,0.90025,19,Female,2020-10-16_17h24.06.756,torte-q,2020.1.3,Win32,60,13300,,,,,,,,,,,,,,,,,,,,,,,,,,,,,,,,,,,,,,,,,,,,
,,,,,,,,,,,,l,1.03686,Correct!,0,69,69,114,1,t2.png,t3.png,1,0.90855,19,Female,2020-10-16_17h24.06.756,torte-q,2020.1.3,Win32,60,13300,,,,,,,,,,,,,,,,,,,,,,,,,,,,,,,,,,,,,,,,,,,,
,,,,,,,,,,,,a,0.86018,Correct!,0,70,70,105,1,t3.png,t2.png,1,0.90855,19,Female,2020-10-16_17h24.06.756,torte-q,2020.1.3,Win32,60,13300,,,,,,,,,,,,,,,,,,,,,,,,,,,,,,,,,,,,,,,,,,,,
,,,,,,,,,,,,l,1.042885,Incorrect,0,71,71,62,1,t5.png,t5.png,0,0.978,19,Female,2020-10-16_17h24.06.756,torte-q,2020.1.3,Win32,60,13300,,,,,,,,,,,,,,,,,,,,,,,,,,,,,,,,,,,,,,,,,,,,
,,,,,,,,,,,,l,0.62167,Incorrect,0,72,72,118,1,t5.png,t5.png,0,0.978,19,Female,2020-10-16_17h24.06.756,torte-q,2020.1.3,Win32,60,13300,,,,,,,,,,,,,,,,,,,,,,,,,,,,,,,,,,,,,,,,,,,,
,,,,,,,,,,,,l,0.735215,Incorrect,0,73,73,9,1,t4.png,t5.png,1,0.9,19,Female,2020-10-16_17h24.06.756,torte-q,2020.1.3,Win32,60,13300,,,,,,,,,,,,,,,,,,,,,,,,,,,,,,,,,,,,,,,,,,,,
,,,,,,,,,,,,a,0.78687,Correct!,0,74,74,76,1,t3.png,t2.png,1,0.90855,19,Female,2020-10-16_17h24.06.756,torte-q,2020.1.3,Win32,60,13300,,,,,,,,,,,,,,,,,,,,,,,,,,,,,,,,,,,,,,,,,,,,
,,,,,,,,,,,,a,0.744695,Correct!,0,75,75,104,1,t2.png,t3.png,1,0.90855,19,Female,2020-10-16_17h24.06.756,torte-q,2020.1.3,Win32,60,13300,,,,,,,,,,,,,,,,,,,,,,,,,,,,,,,,,,,,,,,,,,,,
,,,,,,,,,,,,l,0.988485,Incorrect,0,76,76,2,1,t3.png,t2.png,1,0.90855,19,Female,2020-10-16_17h24.06.756,torte-q,2020.1.3,Win32,60,13300,,,,,,,,,,,,,,,,,,,,,,,,,,,,,,,,,,,,,,,,,,,,
,,,,,,,,,,,,a,1.03871,Incorrect,0,77,77,23,1,t5.png,t4.png,1,0.90025,19,Female,2020-10-16_17h24.06.756,torte-q,2020.1.3,Win32,60,13300,,,,,,,,,,,,,,,,,,,,,,,,,,,,,,,,,,,,,,,,,,,,
,,,,,,,,,,,,a,0.95994,Incorrect,0,78,78,87,1,t5.png,t1.png,4,9.55E-11,19,Female,2020-10-16_17h24.06.756,torte-q,2020.1.3,Win32,60,13300,,,,,,,,,,,,,,,,,,,,,,,,,,,,,,,,,,,,,,,,,,,,
,,,,,,,,,,,,a,0.719045,Incorrect,0,79,79,117,1,t1.png,t5.png,4,9.55E-11,19,Female,2020-10-16_17h24.06.756,torte-q,2020.1.3,Win32,60,13300,,,,,,,,,,,,,,,,,,,,,,,,,,,,,,,,,,,,,,,,,,,,
,,,,,,,,,,,,l,1.034855,Correct!,0,80,80,61,1,t1.png,t4.png,3,0.0000131,19,Female,2020-10-16_17h24.06.756,torte-q,2020.1.3,Win32,60,13300,,,,,,,,,,,,,,,,,,,,,,,,,,,,,,,,,,,,,,,,,,,,
,,,,,,,,,,,,l,0.858675,Incorrect,0,81,81,42,1,t5.png,t4.png,1,0.90025,19,Female,2020-10-16_17h24.06.756,torte-q,2020.1.3,Win32,60,13300,,,,,,,,,,,,,,,,,,,,,,,,,,,,,,,,,,,,,,,,,,,,
,,,,,,,,,,,,l,1.06612,Correct!,0,82,82,89,1,t1.png,t4.png,3,0.0000131,19,Female,2020-10-16_17h24.06.756,torte-q,2020.1.3,Win32,60,13300,,,,,,,,,,,,,,,,,,,,,,,,,,,,,,,,,,,,,,,,,,,,
,,,,,,,,,,,,a,1.40067,Incorrect,0,83,83,24,1,t4.png,t2.png,2,0.059078,19,Female,2020-10-16_17h24.06.756,torte-q,2020.1.3,Win32,60,13300,,,,,,,,,,,,,,,,,,,,,,,,,,,,,,,,,,,,,,,,,,,,
,,,,,,,,,,,,l,0.786765,Correct!,0,84,84,43,1,t4.png,t2.png,2,0.059078,19,Female,2020-10-16_17h24.06.756,torte-q,2020.1.3,Win32,60,13300,,,,,,,,,,,,,,,,,,,,,,,,,,,,,,,,,,,,,,,,,,,,
,,,,,,,,,,,,l,1.28536,Incorrect,0,85,85,8,1,t3.png,t2.png,1,0.90855,19,Female,2020-10-16_17h24.06.756,torte-q,2020.1.3,Win32,60,13300,,,,,,,,,,,,,,,,,,,,,,,,,,,,,,,,,,,,,,,,,,,,
,,,,,,,,,,,,l,1.172855,Correct!,0,86,86,4,1,t1.png,t5.png,4,9.55E-11,19,Female,2020-10-16_17h24.06.756,torte-q,2020.1.3,Win32,60,13300,,,,,,,,,,,,,,,,,,,,,,,,,,,,,,,,,,,,,,,,,,,,
,,,,,,,,,,,,a,1.32443,Correct!,0,87,87,85,1,t3.png,t2.png,1,0.90855,19,Female,2020-10-16_17h24.06.756,torte-q,2020.1.3,Win32,60,13300,,,,,,,,,,,,,,,,,,,,,,,,,,,,,,,,,,,,,,,,,,,,
,,,,,,,,,,,,a,1.29522,Incorrect,0,88,88,88,1,t3.png,t1.png,2,0.056466,19,Female,2020-10-16_17h24.06.756,torte-q,2020.1.3,Win32,60,13300,,,,,,,,,,,,,,,,,,,,,,,,,,,,,,,,,,,,,,,,,,,,
,,,,,,,,,,,,l,1.41306,Correct!,0,89,89,44,1,t2.png,t3.png,1,0.909,19,Female,2020-10-16_17h24.06.756,torte-q,2020.1.3,Win32,60,13300,,,,,,,,,,,,,,,,,,,,,,,,,,,,,,,,,,,,,,,,,,,,
,,,,,,,,,,,,a,1.5188,Incorrect,0,90,90,57,1,t2.png,t4.png,2,0.059078,19,Female,2020-10-16_17h24.06.756,torte-q,2020.1.3,Win32,60,13300,,,,,,,,,,,,,,,,,,,,,,,,,,,,,,,,,,,,,,,,,,,,
,,,,,,,,,,,,a,2.092915,Incorrect,0,91,91,86,1,t3.png,t1.png,2,0.056466,19,Female,2020-10-16_17h24.06.756,torte-q,2020.1.3,Win32,60,13300,,,,,,,,,,,,,,,,,,,,,,,,,,,,,,,,,,,,,,,,,,,,
,,,,,,,,,,,,a,1.772955,Correct!,0,92,92,63,1,t2.png,t3.png,1,0.909,19,Female,2020-10-16_17h24.06.756,torte-q,2020.1.3,Win32,60,13300,,,,,,,,,,,,,,,,,,,,,,,,,,,,,,,,,,,,,,,,,,,,
,,,,,,,,,,,,a,1.30331,Correct!,0,93,93,110,1,t4.png,t5.png,1,0.90025,19,Female,2020-10-16_17h24.06.756,torte-q,2020.1.3,Win32,60,13300,,,,,,,,,,,,,,,,,,,,,,,,,,,,,,,,,,,,,,,,,,,,
,,,,,,,,,,,,l,1.32596,Correct!,0,94,94,30,1,t3.png,t1.png,2,0.056466,19,Female,2020-10-16_17h24.06.756,torte-q,2020.1.3,Win32,60,13300,,,,,,,,,,,,,,,,,,,,,,,,,,,,,,,,,,,,,,,,,,,,
,,,,,,,,,,,,a,1.10566,Correct!,0,95,95,77,1,t1.png,t1.png,0,0.97829,19,Female,2020-10-16_17h24.06.756,torte-q,2020.1.3,Win32,60,13300,,,,,,,,,,,,,,,,,,,,,,,,,,,,,,,,,,,,,,,,,,,,
,,,,,,,,,,,,l,1.443605,Incorrect,0,96,96,18,1,t4.png,t5.png,1,0.90025,19,Female,2020-10-16_17h24.06.756,torte-q,2020.1.3,Win32,60,13300,,,,,,,,,,,,,,,,,,,,,,,,,,,,,,,,,,,,,,,,,,,,
,,,,,,,,,,,,l,1.395055,Correct!,0,97,97,94,1,t5.png,t1.png,4,9.55E-11,19,Female,2020-10-16_17h24.06.756,torte-q,2020.1.3,Win32,60,13300,,,,,,,,,,,,,,,,,,,,,,,,,,,,,,,,,,,,,,,,,,,,
,,,,,,,,,,,,a,1.68646,Incorrect,0,98,98,55,1,t2.png,t4.png,2,0.059078,19,Female,2020-10-16_17h24.06.756,torte-q,2020.1.3,Win32,60,13300,,,,,,,,,,,,,,,,,,,,,,,,,,,,,,,,,,,,,,,,,,,,
,,,,,,,,,,,,a,1.43439,Correct!,0,99,99,58,1,t5.png,t4.png,1,0.90025,19,Female,2020-10-16_17h24.06.756,torte-q,2020.1.3,Win32,60,13300,,,,,,,,,,,,,,,,,,,,,,,,,,,,,,,,,,,,,,,,,,,,
,,,,,,,,,,,,l,1.34292,Correct!,0,100,100,51,1,t3.png,t1.png,2,0.056466,19,Female,2020-10-16_17h24.06.756,torte-q,2020.1.3,Win32,60,13300,,,,,,,,,,,,,,,,,,,,,,,,,,,,,,,,,,,,,,,,,,,,
,,,,,,,,,,,,a,1.36896,Incorrect,0,101,101,111,1,t5.png,t1.png,4,9.55E-11,19,Female,2020-10-16_17h24.06.756,torte-q,2020.1.3,Win32,60,13300,,,,,,,,,,,,,,,,,,,,,,,,,,,,,,,,,,,,,,,,,,,,
,,,,,,,,,,,,a,1.13646,Correct!,0,102,102,70,1,t5.png,t5.png,0,0.978,19,Female,2020-10-16_17h24.06.756,torte-q,2020.1.3,Win32,60,13300,,,,,,,,,,,,,,,,,,,,,,,,,,,,,,,,,,,,,,,,,,,,
,,,,,,,,,,,,a,1.485495,Incorrect,0,103,103,26,1,t4.png,t2.png,2,0.0591,19,Female,2020-10-16_17h24.06.756,torte-q,2020.1.3,Win32,60,13300,,,,,,,,,,,,,,,,,,,,,,,,,,,,,,,,,,,,,,,,,,,,
,,,,,,,,,,,,l,1.269495,Incorrect,0,104,104,16,1,t5.png,t4.png,1,0.9,19,Female,2020-10-16_17h24.06.756,torte-q,2020.1.3,Win32,60,13300,,,,,,,,,,,,,,,,,,,,,,,,,,,,,,,,,,,,,,,,,,,,
,,,,,,,,,,,,l,0.831555,Correct!,0,105,105,98,1,t2.png,t4.png,2,0.0591,19,Female,2020-10-16_17h24.06.756,torte-q,2020.1.3,Win32,60,13300,,,,,,,,,,,,,,,,,,,,,,,,,,,,,,,,,,,,,,,,,,,,
,,,,,,,,,,,,a,1.50982,Incorrect,0,106,106,1,1,t2.png,t4.png,2,0.059078,19,Female,2020-10-16_17h24.06.756,torte-q,2020.1.3,Win32,60,13300,,,,,,,,,,,,,,,,,,,,,,,,,,,,,,,,,,,,,,,,,,,,
,,,,,,,,,,,,a,1.30459,Incorrect,0,107,107,68,1,t1.png,t4.png,3,0.0000131,19,Female,2020-10-16_17h24.06.756,torte-q,2020.1.3,Win32,60,13300,,,,,,,,,,,,,,,,,,,,,,,,,,,,,,,,,,,,,,,,,,,,
,,,,,,,,,,,,l,1.619325,Correct!,0,108,108,36,1,t3.png,t1.png,2,0.0565,19,Female,2020-10-16_17h24.06.756,torte-q,2020.1.3,Win32,60,13300,,,,,,,,,,,,,,,,,,,,,,,,,,,,,,,,,,,,,,,,,,,,
,,,,,,,,,,,,a,1.53784,Incorrect,0,109,109,12,1,t5.png,t1.png,4,9.55E-11,19,Female,2020-10-16_17h24.06.756,torte-q,2020.1.3,Win32,60,13300,,,,,,,,,,,,,,,,,,,,,,,,,,,,,,,,,,,,,,,,,,,,
,,,,,,,,,,,,l,1.25318,Correct!,0,110,110,49,1,t4.png,t5.png,1,0.9,19,Female,2020-10-16_17h24.06.756,torte-q,2020.1.3,Win32,60,13300,,,,,,,,,,,,,,,,,,,,,,,,,,,,,,,,,,,,,,,,,,,,
,,,,,,,,,,,,l,1.020305,Correct!,0,111,111,35,1,t1.png,t4.png,3,0.0000131,19,Female,2020-10-16_17h24.06.756,torte-q,2020.1.3,Win32,60,13300,,,,,,,,,,,,,,,,,,,,,,,,,,,,,,,,,,,,,,,,,,,,
,,,,,,,,,,,,l,1.018615,Correct!,0,112,112,37,1,t1.png,t4.png,3,0.0000131,19,Female,2020-10-16_17h24.06.756,torte-q,2020.1.3,Win32,60,13300,,,,,,,,,,,,,,,,,,,,,,,,,,,,,,,,,,,,,,,,,,,,
,,,,,,,,,,,,l,1.13617,Incorrect,0,113,113,34,1,t5.png,t4.png,1,0.9,19,Female,2020-10-16_17h24.06.756,torte-q,2020.1.3,Win32,60,13300,,,,,,,,,,,,,,,,,,,,,,,,,,,,,,,,,,,,,,,,,,,,
,,,,,,,,,,,,l,1.0852,Incorrect,0,114,114,28,1,t2.png,t3.png,1,0.909,19,Female,2020-10-16_17h24.06.756,torte-q,2020.1.3,Win32,60,13300,,,,,,,,,,,,,,,,,,,,,,,,,,,,,,,,,,,,,,,,,,,,
,,,,,,,,,,,,l,0.919635,Incorrect,0,115,115,59,1,t5.png,t4.png,1,0.9,19,Female,2020-10-16_17h24.06.756,torte-q,2020.1.3,Win32,60,13300,,,,,,,,,,,,,,,,,,,,,,,,,,,,,,,,,,,,,,,,,,,,
,,,,,,,,,,,,l,1.21629,Incorrect,0,116,116,45,1,t3.png,t2.png,1,0.90855,19,Female,2020-10-16_17h24.06.756,torte-q,2020.1.3,Win32,60,13300,,,,,,,,,,,,,,,,,,,,,,,,,,,,,,,,,,,,,,,,,,,,
,,,,,,,,,,,,a,1.04501,Correct!,0,117,117,116,1,t5.png,t4.png,1,0.90025,19,Female,2020-10-16_17h24.06.756,torte-q,2020.1.3,Win32,60,13300,,,,,,,,,,,,,,,,,,,,,,,,,,,,,,,,,,,,,,,,,,,,
,,,,,,,,,,,,a,1.59971,Incorrect,0,118,118,93,1,t2.png,t4.png,2,0.059078,19,Female,2020-10-16_17h24.06.756,torte-q,2020.1.3,Win32,60,13300,,,,,,,,,,,,,,,,,,,,,,,,,,,,,,,,,,,,,,,,,,,,
,,,,,,,,,,,,l,0.93413,Incorrect,0,119,119,25,1,t5.png,t5.png,0,0.97829,19,Female,2020-10-16_17h24.06.756,torte-q,2020.1.3,Win32,60,13300,,,,,,,,,,,,,,,,,,,,,,,,,,,,,,,,,,,,,,,,,,,,
,,,,,,,,,,,,a,1.385035,Correct!,,,,,,t2.png,t1.png,1,0.9,19,Female,2020-10-16_17h24.06.756,torte-q,2020.1.3,Win32,60,13300,space,56.814455,space,7.83688,0,0,0,118,1,,,,,,,,,,,,,,,,,,,,,,,,,,,,,,,,,,,
,,,,,,,,,,,,a,1.33241,Correct!,,,,,,t3.png,t4.png,1,0.90855,19,Female,2020-10-16_17h24.06.756,torte-q,2020.1.3,Win32,60,13300,,,,,0,1,1,84,1,,,,,,,,,,,,,,,,,,,,,,,,,,,,,,,,,,,
,,,,,,,,,,,,l,1.234405,Correct!,,,,,,t5.png,t2.png,3,0.0000131,19,Female,2020-10-16_17h24.06.756,torte-q,2020.1.3,Win32,60,13300,,,,,0,2,2,116,1,,,,,,,,,,,,,,,,,,,,,,,,,,,,,,,,,,,
,,,,,,,,,,,,l,1.286885,Correct!,,,,,,t2.png,t4.png,2,0.0591,19,Female,2020-10-16_17h24.06.756,torte-q,2020.1.3,Win32,60,13300,,,,,0,3,3,15,1,,,,,,,,,,,,,,,,,,,,,,,,,,,,,,,,,,,
,,,,,,,,,,,,l,0.78927,Incorrect,,,,,,t2.png,t3.png,1,0.90855,19,Female,2020-10-16_17h24.06.756,torte-q,2020.1.3,Win32,60,13300,,,,,0,4,4,10,1,,,,,,,,,,,,,,,,,,,,,,,,,,,,,,,,,,,
,,,,,,,,,,,,l,0.92992,Correct!,,,,,,t1.png,t5.png,4,9.55E-11,19,Female,2020-10-16_17h24.06.756,torte-q,2020.1.3,Win32,60,13300,,,,,0,5,5,85,1,,,,,,,,,,,,,,,,,,,,,,,,,,,,,,,,,,,
,,,,,,,,,,,,l,1.63226,Correct!,,,,,,t5.png,t3.png,2,0.056466,19,Female,2020-10-16_17h24.06.756,torte-q,2020.1.3,Win32,60,13300,,,,,0,6,6,56,1,,,,,,,,,,,,,,,,,,,,,,,,,,,,,,,,,,,
,,,,,,,,,,,,a,1.492615,Correct!,,,,,,t1.png,t2.png,1,0.90025,19,Female,2020-10-16_17h24.06.756,torte-q,2020.1.3,Win32,60,13300,,,,,0,7,7,112,1,,,,,,,,,,,,,,,,,,,,,,,,,,,,,,,,,,,
,,,,,,,,,,,,l,1.65199,Correct!,,,,,,t3.png,t5.png,2,0.056466,19,Female,2020-10-16_17h24.06.756,torte-q,2020.1.3,Win32,60,13300,,,,,0,8,8,6,1,,,,,,,,,,,,,,,,,,,,,,,,,,,,,,,,,,,
,,,,,,,,,,,,l,1.027335,Incorrect,,,,,,t5.png,t4.png,1,0.90025,19,Female,2020-10-16_17h24.06.756,torte-q,2020.1.3,Win32,60,13300,,,,,0,9,9,27,1,,,,,,,,,,,,,,,,,,,,,,,,,,,,,,,,,,,
,,,,,,,,,,,,a,1.30598,Correct!,,,,,,t2.png,t1.png,1,0.90025,19,Female,2020-10-16_17h24.06.756,torte-q,2020.1.3,Win32,60,13300,,,,,0,10,10,19,1,,,,,,,,,,,,,,,,,,,,,,,,,,,,,,,,,,,
,,,,,,,,,,,,l,1.61902,Incorrect,,,,,,t3.png,t4.png,1,0.90855,19,Female,2020-10-16_17h24.06.756,torte-q,2020.1.3,Win32,60,13300,,,,,0,11,11,96,1,,,,,,,,,,,,,,,,,,,,,,,,,,,,,,,,,,,
,,,,,,,,,,,,l,1.58952,Incorrect,,,,,,t4.png,t3.png,1,0.90855,19,Female,2020-10-16_17h24.06.756,torte-q,2020.1.3,Win32,60,13300,,,,,0,12,12,75,1,,,,,,,,,,,,,,,,,,,,,,,,,,,,,,,,,,,
,,,,,,,,,,,,l,1.169455,Correct!,,,,,,t3.png,t1.png,2,0.056466,19,Female,2020-10-16_17h24.06.756,torte-q,2020.1.3,Win32,60,13300,,,,,0,13,13,32,1,,,,,,,,,,,,,,,,,,,,,,,,,,,,,,,,,,,
,,,,,,,,,,,,l,1.355815,Correct!,,,,,,t2.png,t5.png,3,0.0000131,19,Female,2020-10-16_17h24.06.756,torte-q,2020.1.3,Win32,60,13300,,,,,0,14,14,95,1,,,,,,,,,,,,,,,,,,,,,,,,,,,,,,,,,,,
,,,,,,,,,,,,l,1.063225,Correct!,,,,,,t5.png,t3.png,2,0.056466,19,Female,2020-10-16_17h24.06.756,torte-q,2020.1.3,Win32,60,13300,,,,,0,15,15,114,1,,,,,,,,,,,,,,,,,,,,,,,,,,,,,,,,,,,
,,,,,,,,,,,,l,1.103015,Incorrect,,,,,,t4.png,t3.png,1,0.909,19,Female,2020-10-16_17h24.06.756,torte-q,2020.1.3,Win32,60,13300,,,,,0,16,16,46,1,,,,,,,,,,,,,,,,,,,,,,,,,,,,,,,,,,,
,,,,,,,,,,,,l,0.9053,Correct!,,,,,,t1.png,t4.png,3,0.0000131,19,Female,2020-10-16_17h24.06.756,torte-q,2020.1.3,Win32,60,13300,,,,,0,17,17,107,1,,,,,,,,,,,,,,,,,,,,,,,,,,,,,,,,,,,
,,,,,,,,,,,,l,0.703915,Correct!,,,,,,t5.png,t2.png,3,0.0000131,19,Female,2020-10-16_17h24.06.756,torte-q,2020.1.3,Win32,60,13300,,,,,0,18,18,91,1,,,,,,,,,,,,,,,,,,,,,,,,,,,,,,,,,,,
,,,,,,,,,,,,a,0.856365,Correct!,,,,,,t4.png,t3.png,1,0.909,19,Female,2020-10-16_17h24.06.756,torte-q,2020.1.3,Win32,60,13300,,,,,0,19,19,20,1,,,,,,,,,,,,,,,,,,,,,,,,,,,,,,,,,,,
,,,,,,,,,,,,a,1.00399,Correct!,,,,,,t1.png,t1.png,0,0.97829,19,Female,2020-10-16_17h24.06.756,torte-q,2020.1.3,Win32,60,13300,,,,,0,20,20,78,1,,,,,,,,,,,,,,,,,,,,,,,,,,,,,,,,,,,
,,,,,,,,,,,,a,0.839475,Correct!,,,,,,t4.png,t3.png,1,0.90855,19,Female,2020-10-16_17h24.06.756,torte-q,2020.1.3,Win32,60,13300,,,,,0,21,21,45,1,,,,,,,,,,,,,,,,,,,,,,,,,,,,,,,,,,,
,,,,,,,,,,,,l,1.234665,Correct!,,,,,,t3.png,t5.png,2,0.0565,19,Female,2020-10-16_17h24.06.756,torte-q,2020.1.3,Win32,60,13300,,,,,0,22,22,30,1,,,,,,,,,,,,,,,,,,,,,,,,,,,,,,,,,,,
,,,,,,,,,,,,l,0.918015,Correct!,,,,,,t5.png,t3.png,2,0.0565,19,Female,2020-10-16_17h24.06.756,torte-q,2020.1.3,Win32,60,13300,,,,,0,23,23,39,1,,,,,,,,,,,,,,,,,,,,,,,,,,,,,,,,,,,
,,,,,,,,,,,,l,0.534975,Incorrect,,,,,,t5.png,t5.png,0,0.97829,19,Female,2020-10-16_17h24.06.756,torte-q,2020.1.3,Win32,60,13300,,,,,0,24,24,25,1,,,,,,,,,,,,,,,,,,,,,,,,,,,,,,,,,,,
,,,,,,,,,,,,l,0.967535,Correct!,,,,,,t4.png,t2.png,2,0.059078,19,Female,2020-10-16_17h24.06.756,torte-q,2020.1.3,Win32,60,13300,,,,,0,25,25,86,1,,,,,,,,,,,,,,,,,,,,,,,,,,,,,,,,,,,
,,,,,,,,,,,,a,1.327135,Correct!,,,,,,t1.png,t3.png,2,0.056466,19,Female,2020-10-16_17h24.06.756,torte-q,2020.1.3,Win32,60,13300,,,,,0,26,26,69,1,,,,,,,,,,,,,,,,,,,,,,,,,,,,,,,,,,,
,,,,,,,,,,,,a,1.46958,Correct!,,,,,,t5.png,t4.png,1,0.9,19,Female,2020-10-16_17h24.06.756,torte-q,2020.1.3,Win32,60,13300,,,,,0,27,27,76,1,,,,,,,,,,,,,,,,,,,,,,,,,,,,,,,,,,,
,,,,,,,,,,,,a,1.32835,Incorrect,,,,,,t3.png,t5.png,2,0.056466,19,Female,2020-10-16_17h24.06.756,torte-q,2020.1.3,Win32,60,13300,,,,,0,28,28,14,1,,,,,,,,,,,,,,,,,,,,,,,,,,,,,,,,,,,
,,,,,,,,,,,,a,1.38596,Incorrect,,,,,,t2.png,t5.png,3,0.0000131,19,Female,2020-10-16_17h24.06.756,torte-q,2020.1.3,Win32,60,13300,,,,,0,29,29,66,1,,,,,,,,,,,,,,,,,,,,,,,,,,,,,,,,,,,
,,,,,,,,,,,,a,1.14224,Correct!,,,,,,t2.png,t3.png,1,0.909,19,Female,2020-10-16_17h24.06.756,torte-q,2020.1.3,Win32,60,13300,,,,,0,30,30,74,1,,,,,,,,,,,,,,,,,,,,,,,,,,,,,,,,,,,
,,,,,,,,,,,,l,1.02492,Incorrect,,,,,,t4.png,t5.png,1,0.90025,19,Female,2020-10-16_17h24.06.756,torte-q,2020.1.3,Win32,60,13300,,,,,0,31,31,58,1,,,,,,,,,,,,,,,,,,,,,,,,,,,,,,,,,,,
,,,,,,,,,,,,l,1.461615,Correct!,,,,,,t2.png,t5.png,3,0.0000131,19,Female,2020-10-16_17h24.06.756,torte-q,2020.1.3,Win32,60,13300,,,,,0,32,32,104,1,,,,,,,,,,,,,,,,,,,,,,,,,,,,,,,,,,,
,,,,,,,,,,,,l,1.34544,Correct!,,,,,,t4.png,t2.png,2,0.0591,19,Female,2020-10-16_17h24.06.756,torte-q,2020.1.3,Win32,60,13300,,,,,0,33,33,36,1,,,,,,,,,,,,,,,,,,,,,,,,,,,,,,,,,,,
,,,,,,,,,,,,l,1.357135,Correct!,,,,,,t5.png,t1.png,4,9.55E-11,19,Female,2020-10-16_17h24.06.756,torte-q,2020.1.3,Win32,60,13300,,,,,0,34,34,43,1,,,,,,,,,,,,,,,,,,,,,,,,,,,,,,,,,,,
,,,,,,,,,,,,l,1.154255,Correct!,,,,,,t3.png,t1.png,2,0.056466,19,Female,2020-10-16_17h24.06.756,torte-q,2020.1.3,Win32,60,13300,,,,,0,35,35,0,1,,,,,,,,,,,,,,,,,,,,,,,,,,,,,,,,,,,
,,,,,,,,,,,,a,1.019525,Correct!,,,,,,t1.png,t1.png,0,0.978,19,Female,2020-10-16_17h24.06.756,torte-q,2020.1.3,Win32,60,13300,,,,,0,36,36,54,1,,,,,,,,,,,,,,,,,,,,,,,,,,,,,,,,,,,
,,,,,,,,,,,,l,1.502955,Correct!,,,,,,t2.png,t5.png,3,0.0000131,19,Female,2020-10-16_17h24.06.756,torte-q,2020.1.3,Win32,60,13300,,,,,0,37,37,8,1,,,,,,,,,,,,,,,,,,,,,,,,,,,,,,,,,,,
,,,,,,,,,,,,l,1.085545,Incorrect,,,,,,t3.png,t2.png,1,0.909,19,Female,2020-10-16_17h24.06.756,torte-q,2020.1.3,Win32,60,13300,,,,,0,38,38,3,1,,,,,,,,,,,,,,,,,,,,,,,,,,,,,,,,,,,
,,,,,,,,,,,,a,1.08718,Correct!,,,,,,t2.png,t3.png,1,0.90855,19,Female,2020-10-16_17h24.06.756,torte-q,2020.1.3,Win32,60,13300,,,,,0,39,39,68,1,,,,,,,,,,,,,,,,,,,,,,,,,,,,,,,,,,,
,,,,,,,,,,,,a,1.466175,Incorrect,,,,,,t4.png,t1.png,3,0.0000131,19,Female,2020-10-16_17h24.06.756,torte-q,2020.1.3,Win32,60,13300,,,,,0,40,40,42,1,,,,,,,,,,,,,,,,,,,,,,,,,,,,,,,,,,,
,,,,,,,,,,,,l,1.036435,Correct!,,,,,,t5.png,t2.png,3,0.0000131,19,Female,2020-10-16_17h24.06.756,torte-q,2020.1.3,Win32,60,13300,,,,,0,41,41,119,1,,,,,,,,,,,,,,,,,,,,,,,,,,,,,,,,,,,
,,,,,,,,,,,,a,0.98767,Incorrect,,,,,,t4.png,t1.png,3,0.0000131,19,Female,2020-10-16_17h24.06.756,torte-q,2020.1.3,Win32,60,13300,,,,,0,42,42,48,1,,,,,,,,,,,,,,,,,,,,,,,,,,,,,,,,,,,
,,,,,,,,,,,,l,1.48629,Incorrect,,,,,,t5.png,t5.png,0,0.97829,19,Female,2020-10-16_17h24.06.756,torte-q,2020.1.3,Win32,60,13300,,,,,0,43,43,73,1,,,,,,,,,,,,,,,,,,,,,,,,,,,,,,,,,,,
,,,,,,,,,,,,l,1.344565,Correct!,,,,,,t1.png,t4.png,3,0.0000131,19,Female,2020-10-16_17h24.06.756,torte-q,2020.1.3,Win32,60,13300,,,,,0,44,44,92,1,,,,,,,,,,,,,,,,,,,,,,,,,,,,,,,,,,,
,,,,,,,,,,,,l,0.78744,Correct!,,,,,,t1.png,t5.png,4,9.55E-11,19,Female,2020-10-16_17h24.06.756,torte-q,2020.1.3,Win32,60,13300,,,,,0,45,45,16,1,,,,,,,,,,,,,,,,,,,,,,,,,,,,,,,,,,,
,,,,,,,,,,,,l,1.851905,Incorrect,,,,,,t5.png,t4.png,1,0.90025,19,Female,2020-10-16_17h24.06.756,torte-q,2020.1.3,Win32,60,13300,,,,,0,46,46,34,1,,,,,,,,,,,,,,,,,,,,,,,,,,,,,,,,,,,
,,,,,,,,,,,,l,1.585025,Correct!,,,,,,t4.png,t1.png,3,0.0000131,19,Female,2020-10-16_17h24.06.756,torte-q,2020.1.3,Win32,60,13300,,,,,0,47,47,13,1,,,,,,,,,,,,,,,,,,,,,,,,,,,,,,,,,,,
,,,,,,,,,,,,l,0.875205,Correct!,,,,,,t3.png,t1.png,2,0.056466,19,Female,2020-10-16_17h24.06.756,torte-q,2020.1.3,Win32,60,13300,,,,,0,48,48,64,1,,,,,,,,,,,,,,,,,,,,,,,,,,,,,,,,,,,
,,,,,,,,,,,,l,1.152705,Incorrect,,,,,,t1.png,t2.png,1,0.9,19,Female,2020-10-16_17h24.06.756,torte-q,2020.1.3,Win32,60,13300,,,,,0,49,49,1,1,,,,,,,,,,,,,,,,,,,,,,,,,,,,,,,,,,,
,,,,,,,,,,,,l,1.145505,Correct!,,,,,,t1.png,t5.png,4,9.55E-11,19,Female,2020-10-16_17h24.06.756,torte-q,2020.1.3,Win32,60,13300,,,,,0,50,50,55,1,,,,,,,,,,,,,,,,,,,,,,,,,,,,,,,,,,,
,,,,,,,,,,,,a,1.01927,Incorrect,,,,,,t2.png,t4.png,2,0.059078,19,Female,2020-10-16_17h24.06.756,torte-q,2020.1.3,Win32,60,13300,,,,,0,51,51,77,1,,,,,,,,,,,,,,,,,,,,,,,,,,,,,,,,,,,
,,,,,,,,,,,,a,1.576975,Correct!,,,,,,t4.png,t4.png,0,0.98115,19,Female,2020-10-16_17h24.06.756,torte-q,2020.1.3,Win32,60,13300,,,,,0,52,52,21,1,,,,,,,,,,,,,,,,,,,,,,,,,,,,,,,,,,,
,,,,,,,,,,,,a,1.052975,Correct!,,,,,,t1.png,t1.png,0,0.978,19,Female,2020-10-16_17h24.06.756,torte-q,2020.1.3,Win32,60,13300,,,,,0,53,53,28,1,,,,,,,,,,,,,,,,,,,,,,,,,,,,,,,,,,,
,,,,,,,,,,,,a,1.192895,Correct!,,,,,,t5.png,t5.png,0,0.97829,19,Female,2020-10-16_17h24.06.756,torte-q,2020.1.3,Win32,60,13300,,,,,0,54,54,70,1,,,,,,,,,,,,,,,,,,,,,,,,,,,,,,,,,,,
,,,,,,,,,,,,l,0.99172,Incorrect,,,,,,t3.png,t2.png,1,0.90855,19,Female,2020-10-16_17h24.06.756,torte-q,2020.1.3,Win32,60,13300,,,,,0,55,55,97,1,,,,,,,,,,,,,,,,,,,,,,,,,,,,,,,,,,,
,,,,,,,,,,,,l,0.775815,Incorrect,,,,,,t1.png,t1.png,0,0.97829,19,Female,2020-10-16_17h24.06.756,torte-q,2020.1.3,Win32,60,13300,,,,,0,56,56,9,1,,,,,,,,,,,,,,,,,,,,,,,,,,,,,,,,,,,
,,,,,,,,,,,,a,0.834845,Incorrect,,,,,,t3.png,t5.png,2,0.056466,19,Female,2020-10-16_17h24.06.756,torte-q,2020.1.3,Win32,60,13300,,,,,0,57,57,44,1,,,,,,,,,,,,,,,,,,,,,,,,,,,,,,,,,,,
,,,,,,,,,,,,a,0.922575,Correct!,,,,,,t2.png,t2.png,0,0.98115,19,Female,2020-10-16_17h24.06.756,torte-q,2020.1.3,Win32,60,13300,,,,,0,58,58,2,1,,,,,,,,,,,,,,,,,,,,,,,,,,,,,,,,,,,
,,,,,,,,,,,,a,0.707835,Correct!,,,,,,t4.png,t4.png,0,0.98115,19,Female,2020-10-16_17h24.06.756,torte-q,2020.1.3,Win32,60,13300,,,,,0,59,59,52,1,,,,,,,,,,,,,,,,,,,,,,,,,,,,,,,,,,,
,,,,,,,,,,,,l,1.11065,Correct!,,,,,,t4.png,t2.png,2,0.059078,19,Female,2020-10-16_17h24.06.756,torte-q,2020.1.3,Win32,60,13300,,,,,0,60,60,109,1,,,,,,,,,,,,,,,,,,,,,,,,,,,,,,,,,,,
,,,,,,,,,,,,a,0.92023,Correct!,,,,,,t1.png,t2.png,1,0.90025,19,Female,2020-10-16_17h24.06.756,torte-q,2020.1.3,Win32,60,13300,,,,,0,61,61,33,1,,,,,,,,,,,,,,,,,,,,,,,,,,,,,,,,,,,
,,,,,,,,,,,,a,0.986775,Correct!,,,,,,t2.png,t2.png,0,0.98115,19,Female,2020-10-16_17h24.06.756,torte-q,2020.1.3,Win32,60,13300,,,,,0,62,62,57,1,,,,,,,,,,,,,,,,,,,,,,,,,,,,,,,,,,,
,,,,,,,,,,,,l,0.55039,Incorrect,,,,,,t3.png,t2.png,1,0.90855,19,Female,2020-10-16_17h24.06.756,torte-q,2020.1.3,Win32,60,13300,,,,,0,63,63,53,1,,,,,,,,,,,,,,,,,,,,,,,,,,,,,,,,,,,
,,,,,,,,,,,,l,0.6044,Incorrect,,,,,,t2.png,t2.png,0,0.98115,19,Female,2020-10-16_17h24.06.756,torte-q,2020.1.3,Win32,60,13300,,,,,0,64,64,59,1,,,,,,,,,,,,,,,,,,,,,,,,,,,,,,,,,,,
,,,,,,,,,,,,a,0.737575,Incorrect,,,,,,t1.png,t3.png,2,0.056466,19,Female,2020-10-16_17h24.06.756,torte-q,2020.1.3,Win32,60,13300,,,,,0,65,65,60,1,,,,,,,,,,,,,,,,,,,,,,,,,,,,,,,,,,,
,,,,,,,,,,,,l,0.66667,Incorrect,,,,,,t4.png,t4.png,0,0.98115,19,Female,2020-10-16_17h24.06.756,torte-q,2020.1.3,Win32,60,13300,,,,,0,66,66,80,1,,,,,,,,,,,,,,,,,,,,,,,,,,,,,,,,,,,
,,,,,,,,,,,,a,1.05283,Incorrect,,,,,,t4.png,t1.png,3,0.0000131,19,Female,2020-10-16_17h24.06.756,torte-q,2020.1.3,Win32,60,13300,,,,,0,67,67,93,1,,,,,,,,,,,,,,,,,,,,,,,,,,,,,,,,,,,
,,,,,,,,,,,,a,1.10305,Incorrect,,,,,,t2.png,t1.png,1,0.90025,19,Female,2020-10-16_17h24.06.756,torte-q,2020.1.3,Win32,60,13300,,,,,0,68,68,62,1,,,,,,,,,,,,,,,,,,,,,,,,,,,,,,,,,,,
,,,,,,,,,,,,l,1.15334,Correct!,,,,,,t1.png,t5.png,4,9.55E-11,19,Female,2020-10-16_17h24.06.756,torte-q,2020.1.3,Win32,60,13300,,,,,0,69,69,41,1,,,,,,,,,,,,,,,,,,,,,,,,,,,,,,,,,,,
,,,,,,,,,,,,a,1.04656,Correct!,,,,,,t4.png,t5.png,1,0.90025,19,Female,2020-10-16_17h24.06.756,torte-q,2020.1.3,Win32,60,13300,,,,,0,70,70,113,1,,,,,,,,,,,,,,,,,,,,,,,,,,,,,,,,,,,
,,,,,,,,,,,,l,1.53667,Incorrect,,,,,,t5.png,t4.png,1,0.90025,19,Female,2020-10-16_17h24.06.756,torte-q,2020.1.3,Win32,60,13300,,,,,0,71,71,26,1,,,,,,,,,,,,,,,,,,,,,,,,,,,,,,,,,,,
,,,,,,,,,,,,a,0.986425,Correct!,,,,,,t2.png,t2.png,0,0.98115,19,Female,2020-10-16_17h24.06.756,torte-q,2020.1.3,Win32,60,13300,,,,,0,72,72,7,1,,,,,,,,,,,,,,,,,,,,,,,,,,,,,,,,,,,
,,,,,,,,,,,,a,1.252785,Correct!,,,,,,t3.png,t4.png,1,0.909,19,Female,2020-10-16_17h24.06.756,torte-q,2020.1.3,Win32,60,13300,,,,,0,73,73,89,1,,,,,,,,,,,,,,,,,,,,,,,,,,,,,,,,,,,
,,,,,,,,,,,,l,1.30898,Correct!,,,,,,t1.png,t4.png,3,0.0000131,19,Female,2020-10-16_17h24.06.756,torte-q,2020.1.3,Win32,60,13300,,,,,0,74,74,17,1,,,,,,,,,,,,,,,,,,,,,,,,,,,,,,,,,,,
,,,,,,,,,,,,l,1.02429,Correct!,,,,,,t3.png,t1.png,2,0.0565,19,Female,2020-10-16_17h24.06.756,torte-q,2020.1.3,Win32,60,13300,,,,,0,75,75,31,1,,,,,,,,,,,,,,,,,,,,,,,,,,,,,,,,,,,
,,,,,,,,,,,,l,0.787975,Correct!,,,,,,t5.png,t2.png,3,0.0000131,19,Female,2020-10-16_17h24.06.756,torte-q,2020.1.3,Win32,60,13300,,,,,0,76,76,98,1,,,,,,,,,,,,,,,,,,,,,,,,,,,,,,,,,,,
,,,,,,,,,,,,l,0.67298,Correct!,,,,,,t5.png,t1.png,4,9.55E-11,19,Female,2020-10-16_17h24.06.756,torte-q,2020.1.3,Win32,60,13300,,,,,0,77,77,102,1,,,,,,,,,,,,,,,,,,,,,,,,,,,,,,,,,,,
,,,,,,,,,,,,l,0.74307,Incorrect,,,,,,t2.png,t1.png,1,0.90025,19,Female,2020-10-16_17h24.06.756,torte-q,2020.1.3,Win32,60,13300,,,,,0,78,78,4,1,,,,,,,,,,,,,,,,,,,,,,,,,,,,,,,,,,,
,,,,,,,,,,,,a,0.901905,Correct!,,,,,,t5.png,t5.png,0,0.978,19,Female,2020-10-16_17h24.06.756,torte-q,2020.1.3,Win32,60,13300,,,,,0,79,79,117,1,,,,,,,,,,,,,,,,,,,,,,,,,,,,,,,,,,,
,,,,,,,,,,,,a,1.00368,Incorrect,,,,,,t1.png,t3.png,2,0.056466,19,Female,2020-10-16_17h24.06.756,torte-q,2020.1.3,Win32,60,13300,,,,,0,80,80,63,1,,,,,,,,,,,,,,,,,,,,,,,,,,,,,,,,,,,
,,,,,,,,,,,,l,1.3187,Incorrect,,,,,,t4.png,t3.png,1,0.90855,19,Female,2020-10-16_17h24.06.756,torte-q,2020.1.3,Win32,60,13300,,,,,0,81,81,35,1,,,,,,,,,,,,,,,,,,,,,,,,,,,,,,,,,,,
,,,,,,,,,,,,a,1.136365,Incorrect,,,,,,t2.png,t4.png,2,0.059078,19,Female,2020-10-16_17h24.06.756,torte-q,2020.1.3,Win32,60,13300,,,,,0,82,82,37,1,,,,,,,,,,,,,,,,,,,,,,,,,,,,,,,,,,,
,,,,,,,,,,,,l,0.774165,Correct!,,,,,,t4.png,t2.png,2,0.059078,19,Female,2020-10-16_17h24.06.756,torte-q,2020.1.3,Win32,60,13300,,,,,0,83,83,88,1,,,,,,,,,,,,,,,,,,,,,,,,,,,,,,,,,,,
,,,,,,,,,,,,l,0.718215,Correct!,,,,,,t4.png,t1.png,3,0.0000131,19,Female,2020-10-16_17h24.06.756,torte-q,2020.1.3,Win32,60,13300,,,,,0,84,84,61,1,,,,,,,,,,,,,,,,,,,,,,,,,,,,,,,,,,,
,,,,,,,,,,,,a,0.68665,Incorrect,,,,,,t1.png,t4.png,3,0.0000131,19,Female,2020-10-16_17h24.06.756,torte-q,2020.1.3,Win32,60,13300,,,,,0,85,85,50,1,,,,,,,,,,,,,,,,,,,,,,,,,,,,,,,,,,,
,,,,,,,,,,,,a,0.886465,Correct!,,,,,,t5.png,t4.png,1,0.9,19,Female,2020-10-16_17h24.06.756,torte-q,2020.1.3,Win32,60,13300,,,,,0,86,86,49,1,,,,,,,,,,,,,,,,,,,,,,,,,,,,,,,,,,,
,,,,,,,,,,,,a,0.677165,Incorrect,,,,,,t5.png,t1.png,4,9.55E-11,19,Female,2020-10-16_17h24.06.756,torte-q,2020.1.3,Win32,60,13300,,,,,0,87,87,100,1,,,,,,,,,,,,,,,,,,,,,,,,,,,,,,,,,,,
,,,,,,,,,,,,l,0.83534,Incorrect,,,,,,t3.png,t4.png,1,0.909,19,Female,2020-10-16_17h24.06.756,torte-q,2020.1.3,Win32,60,13300,,,,,0,88,88,82,1,,,,,,,,,,,,,,,,,,,,,,,,,,,,,,,,,,,
,,,,,,,,,,,,l,1.03755,Incorrect,,,,,,t4.png,t5.png,1,0.9,19,Female,2020-10-16_17h24.06.756,torte-q,2020.1.3,Win32,60,13300,,,,,0,89,89,115,1,,,,,,,,,,,,,,,,,,,,,,,,,,,,,,,,,,,
,,,,,,,,,,,,a,0.767635,Incorrect,,,,,,t2.png,t4.png,2,0.059078,19,Female,2020-10-16_17h24.06.756,torte-q,2020.1.3,Win32,60,13300,,,,,0,90,90,11,1,,,,,,,,,,,,,,,,,,,,,,,,,,,,,,,,,,,
,,,,,,,,,,,,a,0.81695,Correct!,,,,,,t4.png,t4.png,0,0.98115,19,Female,2020-10-16_17h24.06.756,torte-q,2020.1.3,Win32,60,13300,,,,,0,91,91,90,1,,,,,,,,,,,,,,,,,,,,,,,,,,,,,,,,,,,
,,,,,,,,,,,,a,0.86564,Incorrect,,,,,,t5.png,t1.png,4,9.55E-11,19,Female,2020-10-16_17h24.06.756,torte-q,2020.1.3,Win32,60,13300,,,,,0,92,92,71,1,,,,,,,,,,,,,,,,,,,,,,,,,,,,,,,,,,,
,,,,,,,,,,,,l,0.862825,Correct!,,,,,,t1.png,t5.png,4,9.55E-11,19,Female,2020-10-16_17h24.06.756,torte-q,2020.1.3,Win32,60,13300,,,,,0,93,93,12,1,,,,,,,,,,,,,,,,,,,,,,,,,,,,,,,,,,,
,,,,,,,,,,,,l,0.91339,Correct!,,,,,,t1.png,t4.png,3,0.0000131,19,Female,2020-10-16_17h24.06.756,torte-q,2020.1.3,Win32,60,13300,,,,,0,94,94,81,1,,,,,,,,,,,,,,,,,,,,,,,,,,,,,,,,,,,
,,,,,,,,,,,,a,1.098405,Incorrect,,,,,,t2.png,t4.png,2,0.059078,19,Female,2020-10-16_17h24.06.756,torte-q,2020.1.3,Win32,60,13300,,,,,0,95,95,24,1,,,,,,,,,,,,,,,,,,,,,,,,,,,,,,,,,,,
,,,,,,,,,,,,l,1.49784,Incorrect,,,,,,t2.png,t1.png,1,0.90025,19,Female,2020-10-16_17h24.06.756,torte-q,2020.1.3,Win32,60,13300,,,,,0,96,96,5,1,,,,,,,,,,,,,,,,,,,,,,,,,,,,,,,,,,,
,,,,,,,,,,,,l,0.564855,Incorrect,,,,,,t3.png,t2.png,1,0.909,19,Female,2020-10-16_17h24.06.756,torte-q,2020.1.3,Win32,60,13300,,,,,0,97,97,23,1,,,,,,,,,,,,,,,,,,,,,,,,,,,,,,,,,,,
,,,,,,,,,,,,l,0.85095,Correct!,,,,,,t5.png,t3.png,2,0.056466,19,Female,2020-10-16_17h24.06.756,torte-q,2020.1.3,Win32,60,13300,,,,,0,98,98,108,1,,,,,,,,,,,,,,,,,,,,,,,,,,,,,,,,,,,
,,,,,,,,,,,,l,1.057415,Incorrect,,,,,,t3.png,t4.png,1,0.909,19,Female,2020-10-16_17h24.06.756,torte-q,2020.1.3,Win32,60,13300,,,,,0,99,99,106,1,,,,,,,,,,,,,,,,,,,,,,,,,,,,,,,,,,,
,,,,,,,,,,,,l,0.81093,Incorrect,,,,,,t1.png,t1.png,0,0.97829,19,Female,2020-10-16_17h24.06.756,torte-q,2020.1.3,Win32,60,13300,,,,,0,100,100,67,1,,,,,,,,,,,,,,,,,,,,,,,,,,,,,,,,,,,
,,,,,,,,,,,,a,0.979795,Correct!,,,,,,t4.png,t5.png,1,0.90025,19,Female,2020-10-16_17h24.06.756,torte-q,2020.1.3,Win32,60,13300,,,,,0,101,101,103,1,,,,,,,,,,,,,,,,,,,,,,,,,,,,,,,,,,,
,,,,,,,,,,,,l,1.025425,Correct!,,,,,,t1.png,t3.png,2,0.056466,19,Female,2020-10-16_17h24.06.756,torte-q,2020.1.3,Win32,60,13300,,,,,0,102,102,99,1,,,,,,,,,,,,,,,,,,,,,,,,,,,,,,,,,,,
,,,,,,,,,,,,l,1.16943,Correct!,,,,,,t5.png,t1.png,4,9.55E-11,19,Female,2020-10-16_17h24.06.756,torte-q,2020.1.3,Win32,60,13300,,,,,0,103,103,22,1,,,,,,,,,,,,,,,,,,,,,,,,,,,,,,,,,,,
,,,,,,,,,,,,a,1.209975,Incorrect,,,,,,t2.png,t3.png,1,0.90855,19,Female,2020-10-16_17h24.06.756,torte-q,2020.1.3,Win32,60,13300,,,,,0,104,104,65,1,,,,,,,,,,,,,,,,,,,,,,,,,,,,,,,,,,,
,,,,,,,,,,,,a,1.436545,Correct!,,,,,,t4.png,t5.png,1,0.90025,19,Female,2020-10-16_17h24.06.756,torte-q,2020.1.3,Win32,60,13300,,,,,0,105,105,47,1,,,,,,,,,,,,,,,,,,,,,,,,,,,,,,,,,,,
,,,,,,,,,,,,a,0.936575,Incorrect,,,,,,t3.png,t5.png,2,0.0565,19,Female,2020-10-16_17h24.06.756,torte-q,2020.1.3,Win32,60,13300,,,,,0,106,106,83,1,,,,,,,,,,,,,,,,,,,,,,,,,,,,,,,,,,,
,,,,,,,,,,,,a,1.301625,Correct!,,,,,,t1.png,t2.png,1,0.90025,19,Female,2020-10-16_17h24.06.756,torte-q,2020.1.3,Win32,60,13300,,,,,0,107,107,105,1,,,,,,,,,,,,,,,,,,,,,,,,,,,,,,,,,,,
,,,,,,,,,,,,a,1.46901,Correct!,,,,,,t2.png,t3.png,1,0.90855,19,Female,2020-10-16_17h24.06.756,torte-q,2020.1.3,Win32,60,13300,,,,,0,108,108,111,1,,,,,,,,,,,,,,,,,,,,,,,,,,,,,,,,,,,
,,,,,,,,,,,,l,0.991745,Correct!,,,,,,t5.png,t2.png,3,0.0000131,19,Female,2020-10-16_17h24.06.756,torte-q,2020.1.3,Win32,60,13300,,,,,0,109,109,51,1,,,,,,,,,,,,,,,,,,,,,,,,,,,,,,,,,,,
,,,,,,,,,,,,l,1.553205,Incorrect,,,,,,t5.png,t5.png,0,0.97829,19,Female,2020-10-16_17h24.06.756,torte-q,2020.1.3,Win32,60,13300,,,,,0,110,110,94,1,,,,,,,,,,,,,,,,,,,,,,,,,,,,,,,,,,,
,,,,,,,,,,,,l,0.793405,Correct!,,,,,,t4.png,t2.png,2,0.059078,19,Female,2020-10-16_17h24.06.756,torte-q,2020.1.3,Win32,60,13300,,,,,0,111,111,110,1,,,,,,,,,,,,,,,,,,,,,,,,,,,,,,,,,,,
,,,,,,,,,,,,l,1.00353,Incorrect,,,,,,t4.png,t4.png,0,0.98115,19,Female,2020-10-16_17h24.06.756,torte-q,2020.1.3,Win32,60,13300,,,,,0,112,112,79,1,,,,,,,,,,,,,,,,,,,,,,,,,,,,,,,,,,,
,,,,,,,,,,,,l,0.669815,Incorrect,,,,,,t3.png,t2.png,1,0.90855,19,Female,2020-10-16_17h24.06.756,torte-q,2020.1.3,Win32,60,13300,,,,,0,113,113,18,1,,,,,,,,,,,,,,,,,,,,,,,,,,,,,,,,,,,
,,,,,,,,,,,,l,0.78724,Correct!,,,,,,t3.png,t1.png,2,0.056466,19,Female,2020-10-16_17h24.06.756,torte-q,2020.1.3,Win32,60,13300,,,,,0,114,114,29,1,,,,,,,,,,,,,,,,,,,,,,,,,,,,,,,,,,,
,,,,,,,,,,,,a,0.91993,Correct!,,,,,,t2.png,t2.png,0,0.981,19,Female,2020-10-16_17h24.06.756,torte-q,2020.1.3,Win32,60,13300,,,,,0,115,115,101,1,,,,,,,,,,,,,,,,,,,,,,,,,,,,,,,,,,,
,,,,,,,,,,,,a,1.019785,Incorrect,,,,,,t1.png,t3.png,2,0.056466,19,Female,2020-10-16_17h24.06.756,torte-q,2020.1.3,Win32,60,13300,,,,,0,116,116,87,1,,,,,,,,,,,,,,,,,,,,,,,,,,,,,,,,,,,
,,,,,,,,,,,,a,1.56908,Incorrect,,,,,,t2.png,t5.png,3,0.0000131,19,Female,2020-10-16_17h24.06.756,torte-q,2020.1.3,Win32,60,13300,,,,,0,117,117,40,1,,,,,,,,,,,,,,,,,,,,,,,,,,,,,,,,,,,
,,,,,,,,,,,,l,1.002435,Correct!,,,,,,t5.png,t3.png,2,0.056466,19,Female,2020-10-16_17h24.06.756,torte-q,2020.1.3,Win32,60,13300,,,,,0,118,118,38,1,,,,,,,,,,,,,,,,,,,,,,,,,,,,,,,,,,,
,,,,,,,,,,,,l,0.86019,Incorrect,,,,,,t1.png,t2.png,1,0.90025,19,Female,2020-10-16_17h24.06.756,torte-q,2020.1.3,Win32,60,13300,,,,,0,119,119,72,1,,,,,,,,,,,,,,,,,,,,,,,,,,,,,,,,,,,
,,,,,,,,,,,,l,0.911825,Correct!,,,,,,t5.png,t3.png,2,0.056466,19,Female,2020-10-16_17h24.06.756,torte-q,2020.1.3,Win32,60,13300,space,7.999125,,,,,,,,space,28.93959,space,8.031655,0,0,0,56,1,,,,,,,,,,,,,,,,,,,,,,,,,,
,,,,,,,,,,,,a,1.01313,Correct!,,,,,,t1.png,t2.png,1,0.9,19,Female,2020-10-16_17h24.06.756,torte-q,2020.1.3,Win32,60,13300,,,,,,,,,,,,,,0,1,1,1,1,,,,,,,,,,,,,,,,,,,,,,,,,,
,,,,,,,,,,,,a,0.883405,Correct!,,,,,,t1.png,t1.png,0,0.97829,19,Female,2020-10-16_17h24.06.756,torte-q,2020.1.3,Win32,60,13300,,,,,,,,,,,,,,0,2,2,9,1,,,,,,,,,,,,,,,,,,,,,,,,,,
,,,,,,,,,,,,a,1.543985,Incorrect,,,,,,t1.png,t3.png,2,0.056466,19,Female,2020-10-16_17h24.06.756,torte-q,2020.1.3,Win32,60,13300,,,,,,,,,,,,,,0,3,3,87,1,,,,,,,,,,,,,,,,,,,,,,,,,,
,,,,,,,,,,,,l,0.7894,Correct!,,,,,,t4.png,t2.png,2,0.059078,19,Female,2020-10-16_17h24.06.756,torte-q,2020.1.3,Win32,60,13300,,,,,,,,,,,,,,0,4,4,86,1,,,,,,,,,,,,,,,,,,,,,,,,,,
,,,,,,,,,,,,l,1.863345,Correct!,,,,,,t3.png,t5.png,2,0.056466,19,Female,2020-10-16_17h24.06.756,torte-q,2020.1.3,Win32,60,13300,,,,,,,,,,,,,,0,5,5,6,1,,,,,,,,,,,,,,,,,,,,,,,,,,
,,,,,,,,,,,,l,1.379595,Correct!,,,,,,t5.png,t1.png,4,9.55E-11,19,Female,2020-10-16_17h24.06.756,torte-q,2020.1.3,Win32,60,13300,,,,,,,,,,,,,,0,6,6,22,1,,,,,,,,,,,,,,,,,,,,,,,,,,
,,,,,,,,,,,,l,1.23892,Correct!,,,,,,t3.png,t5.png,2,0.0565,19,Female,2020-10-16_17h24.06.756,torte-q,2020.1.3,Win32,60,13300,,,,,,,,,,,,,,0,7,7,83,1,,,,,,,,,,,,,,,,,,,,,,,,,,
,,,,,,,,,,,,l,1.202415,Correct!,,,,,,t2.png,t5.png,3,0.0000131,19,Female,2020-10-16_17h24.06.756,torte-q,2020.1.3,Win32,60,13300,,,,,,,,,,,,,,0,8,8,95,1,,,,,,,,,,,,,,,,,,,,,,,,,,
,,,,,,,,,,,,l,0.620045,Correct!,,,,,,t5.png,t1.png,4,9.55E-11,19,Female,2020-10-16_17h24.06.756,torte-q,2020.1.3,Win32,60,13300,,,,,,,,,,,,,,0,9,9,43,1,,,,,,,,,,,,,,,,,,,,,,,,,,
,,,,,,,,,,,,l,0.966385,Incorrect,,,,,,t1.png,t2.png,1,0.90025,19,Female,2020-10-16_17h24.06.756,torte-q,2020.1.3,Win32,60,13300,,,,,,,,,,,,,,0,10,10,105,1,,,,,,,,,,,,,,,,,,,,,,,,,,
,,,,,,,,,,,,a,0.83687,Correct!,,,,,,t1.png,t1.png,0,0.97829,19,Female,2020-10-16_17h24.06.756,torte-q,2020.1.3,Win32,60,13300,,,,,,,,,,,,,,0,11,11,78,1,,,,,,,,,,,,,,,,,,,,,,,,,,
,,,,,,,,,,,,l,1.916775,Correct!,,,,,,t1.png,t5.png,4,9.55E-11,19,Female,2020-10-16_17h24.06.756,torte-q,2020.1.3,Win32,60,13300,,,,,,,,,,,,,,0,12,12,41,1,,,,,,,,,,,,,,,,,,,,,,,,,,
,,,,,,,,,,,,a,0.928545,Correct!,,,,,,t3.png,t5.png,2,0.056466,19,Female,2020-10-16_17h24.06.756,torte-q,2020.1.3,Win32,60,13300,,,,,,,,,,,,,,0,13,13,14,1,,,,,,,,,,,,,,,,,,,,,,,,,,
,,,,,,,,,,,,l,1.06859,Correct!,,,,,,t1.png,t3.png,2,0.056466,19,Female,2020-10-16_17h24.06.756,torte-q,2020.1.3,Win32,60,13300,,,,,,,,,,,,,,0,14,14,60,1,,,,,,,,,,,,,,,,,,,,,,,,,,
,,,,,,,,,,,,l,0.89123,Correct!,,,,,,t4.png,t2.png,2,0.059078,19,Female,2020-10-16_17h24.06.756,torte-q,2020.1.3,Win32,60,13300,,,,,,,,,,,,,,0,15,15,88,1,,,,,,,,,,,,,,,,,,,,,,,,,,
,,,,,,,,,,,,l,1.885605,Incorrect,,,,,,t2.png,t1.png,1,0.9,19,Female,2020-10-16_17h24.06.756,torte-q,2020.1.3,Win32,60,13300,,,,,,,,,,,,,,0,16,16,118,1,,,,,,,,,,,,,,,,,,,,,,,,,,
,,,,,,,,,,,,l,0.743235,Correct!,,,,,,t1.png,t4.png,3,0.0000131,19,Female,2020-10-16_17h24.06.756,torte-q,2020.1.3,Win32,60,13300,,,,,,,,,,,,,,0,17,17,107,1,,,,,,,,,,,,,,,,,,,,,,,,,,
,,,,,,,,,,,,l,1.019695,Incorrect,,,,,,t4.png,t4.png,0,0.98115,19,Female,2020-10-16_17h24.06.756,torte-q,2020.1.3,Win32,60,13300,,,,,,,,,,,,,,0,18,18,90,1,,,,,,,,,,,,,,,,,,,,,,,,,,
,,,,,,,,,,,,l,0.856425,Correct!,,,,,,t5.png,t3.png,2,0.056466,19,Female,2020-10-16_17h24.06.756,torte-q,2020.1.3,Win32,60,13300,,,,,,,,,,,,,,0,19,19,38,1,,,,,,,,,,,,,,,,,,,,,,,,,,
,,,,,,,,,,,,l,1.34012,Correct!,,,,,,t1.png,t5.png,4,9.55E-11,19,Female,2020-10-16_17h24.06.756,torte-q,2020.1.3,Win32,60,13300,,,,,,,,,,,,,,0,20,20,12,1,,,,,,,,,,,,,,,,,,,,,,,,,,
,,,,,,,,,,,,l,0.978665,Correct!,,,,,,t5.png,t1.png,4,9.55E-11,19,Female,2020-10-16_17h24.06.756,torte-q,2020.1.3,Win32,60,13300,,,,,,,,,,,,,,0,21,21,71,1,,,,,,,,,,,,,,,,,,,,,,,,,,
,,,,,,,,,,,,l,0.775555,Correct!,,,,,,t3.png,t5.png,2,0.0565,19,Female,2020-10-16_17h24.06.756,torte-q,2020.1.3,Win32,60,13300,,,,,,,,,,,,,,0,22,22,30,1,,,,,,,,,,,,,,,,,,,,,,,,,,
,,,,,,,,,,,,a,1.40658,Incorrect,,,,,,t5.png,t3.png,2,0.056466,19,Female,2020-10-16_17h24.06.756,torte-q,2020.1.3,Win32,60,13300,,,,,,,,,,,,,,0,23,23,108,1,,,,,,,,,,,,,,,,,,,,,,,,,,
,,,,,,,,,,,,l,1.141655,Correct!,,,,,,t3.png,t5.png,2,0.056466,19,Female,2020-10-16_17h24.06.756,torte-q,2020.1.3,Win32,60,13300,,,,,,,,,,,,,,0,24,24,44,1,,,,,,,,,,,,,,,,,,,,,,,,,,
,,,,,,,,,,,,l,0.752705,Correct!,,,,,,t5.png,t3.png,2,0.056466,19,Female,2020-10-16_17h24.06.756,torte-q,2020.1.3,Win32,60,13300,,,,,,,,,,,,,,0,25,25,114,1,,,,,,,,,,,,,,,,,,,,,,,,,,
,,,,,,,,,,,,l,0.719615,Correct!,,,,,,t1.png,t5.png,4,9.55E-11,19,Female,2020-10-16_17h24.06.756,torte-q,2020.1.3,Win32,60,13300,,,,,,,,,,,,,,0,26,26,55,1,,,,,,,,,,,,,,,,,,,,,,,,,,
,,,,,,,,,,,,l,1.4903,Correct!,,,,,,t4.png,t1.png,3,0.0000131,19,Female,2020-10-16_17h24.06.756,torte-q,2020.1.3,Win32,60,13300,,,,,,,,,,,,,,0,27,27,93,1,,,,,,,,,,,,,,,,,,,,,,,,,,
,,,,,,,,,,,,l,0.426905,Incorrect,,,,,,t5.png,t4.png,1,0.9,19,Female,2020-10-16_17h24.06.756,torte-q,2020.1.3,Win32,60,13300,,,,,,,,,,,,,,0,28,28,76,1,,,,,,,,,,,,,,,,,,,,,,,,,,
,,,,,,,,,,,,l,0.629445,Correct!,,,,,,t3.png,t1.png,2,0.056466,19,Female,2020-10-16_17h24.06.756,torte-q,2020.1.3,Win32,60,13300,,,,,,,,,,,,,,0,29,29,32,1,,,,,,,,,,,,,,,,,,,,,,,,,,
,,,,,,,,,,,,l,0.625335,Incorrect,,,,,,t3.png,t4.png,1,0.909,19,Female,2020-10-16_17h24.06.756,torte-q,2020.1.3,Win32,60,13300,,,,,,,,,,,,,,0,30,30,89,1,,,,,,,,,,,,,,,,,,,,,,,,,,
,,,,,,,,,,,,l,0.57084,Incorrect,,,,,,t5.png,t4.png,1,0.90025,19,Female,2020-10-16_17h24.06.756,torte-q,2020.1.3,Win32,60,13300,,,,,,,,,,,,,,0,31,31,26,1,,,,,,,,,,,,,,,,,,,,,,,,,,
,,,,,,,,,,,,l,0.66054,Correct!,,,,,,t2.png,t4.png,2,0.059078,19,Female,2020-10-16_17h24.06.756,torte-q,2020.1.3,Win32,60,13300,,,,,,,,,,,,,,0,32,32,24,1,,,,,,,,,,,,,,,,,,,,,,,,,,
,,,,,,,,,,,,l,0.8958,Correct!,,,,,,t3.png,t1.png,2,0.0565,19,Female,2020-10-16_17h24.06.756,torte-q,2020.1.3,Win32,60,13300,,,,,,,,,,,,,,0,33,33,31,1,,,,,,,,,,,,,,,,,,,,,,,,,,
,,,,,,,,,,,,l,0.703465,Incorrect,,,,,,t3.png,t2.png,1,0.909,19,Female,2020-10-16_17h24.06.756,torte-q,2020.1.3,Win32,60,13300,,,,,,,,,,,,,,0,34,34,23,1,,,,,,,,,,,,,,,,,,,,,,,,,,
,,,,,,,,,,,,l,0.960035,Incorrect,,,,,,t4.png,t5.png,1,0.90025,19,Female,2020-10-16_17h24.06.756,torte-q,2020.1.3,Win32,60,13300,,,,,,,,,,,,,,0,35,35,58,1,,,,,,,,,,,,,,,,,,,,,,,,,,
,,,,,,,,,,,,l,0.934135,Correct!,,,,,,t3.png,t1.png,2,0.056466,19,Female,2020-10-16_17h24.06.756,torte-q,2020.1.3,Win32,60,13300,,,,,,,,,,,,,,0,36,36,64,1,,,,,,,,,,,,,,,,,,,,,,,,,,
,,,,,,,,,,,,a,0.753395,Incorrect,,,,,,t1.png,t3.png,2,0.056466,19,Female,2020-10-16_17h24.06.756,torte-q,2020.1.3,Win32,60,13300,,,,,,,,,,,,,,0,37,37,69,1,,,,,,,,,,,,,,,,,,,,,,,,,,
,,,,,,,,,,,,a,0.874685,Correct!,,,,,,t1.png,t1.png,0,0.978,19,Female,2020-10-16_17h24.06.756,torte-q,2020.1.3,Win32,60,13300,,,,,,,,,,,,,,0,38,38,28,1,,,,,,,,,,,,,,,,,,,,,,,,,,
,,,,,,,,,,,,l,1.003855,Incorrect,,,,,,t2.png,t1.png,1,0.90025,19,Female,2020-10-16_17h24.06.756,torte-q,2020.1.3,Win32,60,13300,,,,,,,,,,,,,,0,39,39,19,1,,,,,,,,,,,,,,,,,,,,,,,,,,
,,,,,,,,,,,,l,1.27193,Correct!,,,,,,t2.png,t5.png,3,0.0000131,19,Female,2020-10-16_17h24.06.756,torte-q,2020.1.3,Win32,60,13300,,,,,,,,,,,,,,0,40,40,40,1,,,,,,,,,,,,,,,,,,,,,,,,,,
,,,,,,,,,,,,l,1.220575,Incorrect,,,,,,t2.png,t1.png,1,0.90025,19,Female,2020-10-16_17h24.06.756,torte-q,2020.1.3,Win32,60,13300,,,,,,,,,,,,,,0,41,41,62,1,,,,,,,,,,,,,,,,,,,,,,,,,,
,,,,,,,,,,,,a,1.85194,Correct!,,,,,,t4.png,t5.png,1,0.90025,19,Female,2020-10-16_17h24.06.756,torte-q,2020.1.3,Win32,60,13300,,,,,,,,,,,,,,0,42,42,113,1,,,,,,,,,,,,,,,,,,,,,,,,,,
,,,,,,,,,,,,l,0.842785,Correct!,,,,,,t4.png,t2.png,2,0.059078,19,Female,2020-10-16_17h24.06.756,torte-q,2020.1.3,Win32,60,13300,,,,,,,,,,,,,,0,43,43,110,1,,,,,,,,,,,,,,,,,,,,,,,,,,
,,,,,,,,,,,,l,1.717955,Correct!,,,,,,t2.png,t5.png,3,0.0000131,19,Female,2020-10-16_17h24.06.756,torte-q,2020.1.3,Win32,60,13300,,,,,,,,,,,,,,0,44,44,66,1,,,,,,,,,,,,,,,,,,,,,,,,,,
,,,,,,,,,,,,a,1.968215,Correct!,,,,,,t2.png,t2.png,0,0.98115,19,Female,2020-10-16_17h24.06.756,torte-q,2020.1.3,Win32,60,13300,,,,,,,,,,,,,,0,45,45,59,1,,,,,,,,,,,,,,,,,,,,,,,,,,
,,,,,,,,,,,,l,1.72264,Incorrect,,,,,,t1.png,t2.png,1,0.90025,19,Female,2020-10-16_17h24.06.756,torte-q,2020.1.3,Win32,60,13300,,,,,,,,,,,,,,0,46,46,33,1,,,,,,,,,,,,,,,,,,,,,,,,,,
,,,,,,,,,,,,l,0.91956,Correct!,,,,,,t2.png,t4.png,2,0.059078,19,Female,2020-10-16_17h24.06.756,torte-q,2020.1.3,Win32,60,13300,,,,,,,,,,,,,,0,47,47,37,1,,,,,,,,,,,,,,,,,,,,,,,,,,
,,,,,,,,,,,,l,1.271015,Correct!,,,,,,t5.png,t1.png,4,9.55E-11,19,Female,2020-10-16_17h24.06.756,torte-q,2020.1.3,Win32,60,13300,,,,,,,,,,,,,,0,48,48,100,1,,,,,,,,,,,,,,,,,,,,,,,,,,
,,,,,,,,,,,,l,1.05316,Correct!,,,,,,t5.png,t2.png,3,0.0000131,19,Female,2020-10-16_17h24.06.756,torte-q,2020.1.3,Win32,60,13300,,,,,,,,,,,,,,0,49,49,51,1,,,,,,,,,,,,,,,,,,,,,,,,,,
,,,,,,,,,,,,l,1.119795,Incorrect,,,,,,t4.png,t4.png,0,0.98115,19,Female,2020-10-16_17h24.06.756,torte-q,2020.1.3,Win32,60,13300,,,,,,,,,,,,,,0,50,50,80,1,,,,,,,,,,,,,,,,,,,,,,,,,,
,,,,,,,,,,,,a,1.878975,Correct!,,,,,,t2.png,t3.png,1,0.90855,19,Female,2020-10-16_17h24.06.756,torte-q,2020.1.3,Win32,60,13300,,,,,,,,,,,,,,0,51,51,111,1,,,,,,,,,,,,,,,,,,,,,,,,,,
,,,,,,,,,,,,l,0.85206,Incorrect,,,,,,t3.png,t2.png,1,0.90855,19,Female,2020-10-16_17h24.06.756,torte-q,2020.1.3,Win32,60,13300,,,,,,,,,,,,,,0,52,52,18,1,,,,,,,,,,,,,,,,,,,,,,,,,,
,,,,,,,,,,,,a,1.876385,Incorrect,,,,,,t1.png,t4.png,3,0.0000131,19,Female,2020-10-16_17h24.06.756,torte-q,2020.1.3,Win32,60,13300,,,,,,,,,,,,,,0,53,53,92,1,,,,,,,,,,,,,,,,,,,,,,,,,,
,,,,,,,,,,,,a,1.211615,Incorrect,,,,,,t1.png,t4.png,3,0.0000131,19,Female,2020-10-16_17h24.06.756,torte-q,2020.1.3,Win32,60,13300,,,,,,,,,,,,,,0,54,54,81,1,,,,,,,,,,,,,,,,,,,,,,,,,,
,,,,,,,,,,,,l,0.837615,Incorrect,,,,,,t2.png,t2.png,0,0.981,19,Female,2020-10-16_17h24.06.756,torte-q,2020.1.3,Win32,60,13300,,,,,,,,,,,,,,0,55,55,101,1,,,,,,,,,,,,,,,,,,,,,,,,,,
,,,,,,,,,,,,l,0.879825,Correct!,,,,,,t4.png,t1.png,3,0.0000131,19,Female,2020-10-16_17h24.06.756,torte-q,2020.1.3,Win32,60,13300,,,,,,,,,,,,,,0,56,56,42,1,,,,,,,,,,,,,,,,,,,,,,,,,,
,,,,,,,,,,,,a,1.46838,Incorrect,,,,,,t1.png,t4.png,3,0.0000131,19,Female,2020-10-16_17h24.06.756,torte-q,2020.1.3,Win32,60,13300,,,,,,,,,,,,,,0,57,57,50,1,,,,,,,,,,,,,,,,,,,,,,,,,,
,,,,,,,,,,,,l,1.204515,Correct!,,,,,,t1.png,t5.png,4,9.55E-11,19,Female,2020-10-16_17h24.06.756,torte-q,2020.1.3,Win32,60,13300,,,,,,,,,,,,,,0,58,58,85,1,,,,,,,,,,,,,,,,,,,,,,,,,,
,,,,,,,,,,,,l,1.32757,Correct!,,,,,,t3.png,t1.png,2,0.056466,19,Female,2020-10-16_17h24.06.756,torte-q,2020.1.3,Win32,60,13300,,,,,,,,,,,,,,0,59,59,0,1,,,,,,,,,,,,,,,,,,,,,,,,,,
,,,,,,,,,,,,a,1.180235,Correct!,,,,,,t3.png,t4.png,1,0.90855,19,Female,2020-10-16_17h24.06.756,torte-q,2020.1.3,Win32,60,13300,,,,,,,,,,,,,,0,60,60,96,1,,,,,,,,,,,,,,,,,,,,,,,,,,
,,,,,,,,,,,,a,1.021725,Correct!,,,,,,t2.png,t3.png,1,0.90855,19,Female,2020-10-16_17h24.06.756,torte-q,2020.1.3,Win32,60,13300,,,,,,,,,,,,,,0,61,61,10,1,,,,,,,,,,,,,,,,,,,,,,,,,,
,,,,,,,,,,,,l,0.81812,Correct!,,,,,,t4.png,t3.png,1,0.909,19,Female,2020-10-16_17h24.06.756,torte-q,2020.1.3,Win32,60,13300,,,,,,,,,,,,,,0,62,62,46,1,,,,,,,,,,,,,,,,,,,,,,,,,,
,,,,,,,,,,,,l,0.72936,Correct!,,,,,,t4.png,t1.png,3,0.0000131,19,Female,2020-10-16_17h24.06.756,torte-q,2020.1.3,Win32,60,13300,,,,,,,,,,,,,,0,63,63,13,1,,,,,,,,,,,,,,,,,,,,,,,,,,
,,,,,,,,,,,,a,0.866905,Correct!,,,,,,t1.png,t1.png,0,0.97829,19,Female,2020-10-16_17h24.06.756,torte-q,2020.1.3,Win32,60,13300,,,,,,,,,,,,,,0,64,64,67,1,,,,,,,,,,,,,,,,,,,,,,,,,,
,,,,,,,,,,,,l,0.8481,Incorrect,,,,,,t3.png,t2.png,1,0.909,19,Female,2020-10-16_17h24.06.756,torte-q,2020.1.3,Win32,60,13300,,,,,,,,,,,,,,0,65,65,3,1,,,,,,,,,,,,,,,,,,,,,,,,,,
,,,,,,,,,,,,a,1.83158,Correct!,,,,,,t5.png,t5.png,0,0.978,19,Female,2020-10-16_17h24.06.756,torte-q,2020.1.3,Win32,60,13300,,,,,,,,,,,,,,0,66,66,117,1,,,,,,,,,,,,,,,,,,,,,,,,,,
,,,,,,,,,,,,a,0.70903,Correct!,,,,,,t5.png,t5.png,0,0.97829,19,Female,2020-10-16_17h24.06.756,torte-q,2020.1.3,Win32,60,13300,,,,,,,,,,,,,,0,67,67,73,1,,,,,,,,,,,,,,,,,,,,,,,,,,
,,,,,,,,,,,,a,1.30558,Correct!,,,,,,t3.png,t4.png,1,0.909,19,Female,2020-10-16_17h24.06.756,torte-q,2020.1.3,Win32,60,13300,,,,,,,,,,,,,,0,68,68,82,1,,,,,,,,,,,,,,,,,,,,,,,,,,
,,,,,,,,,,,,l,0.689705,Incorrect,,,,,,t4.png,t3.png,1,0.90855,19,Female,2020-10-16_17h24.06.756,torte-q,2020.1.3,Win32,60,13300,,,,,,,,,,,,,,0,69,69,35,1,,,,,,,,,,,,,,,,,,,,,,,,,,
,,,,,,,,,,,,a,0.782565,Incorrect,,,,,,t2.png,t5.png,3,0.0000131,19,Female,2020-10-16_17h24.06.756,torte-q,2020.1.3,Win32,60,13300,,,,,,,,,,,,,,0,70,70,8,1,,,,,,,,,,,,,,,,,,,,,,,,,,
,,,,,,,,,,,,a,0.954105,Correct!,,,,,,t3.png,t4.png,1,0.90855,19,Female,2020-10-16_17h24.06.756,torte-q,2020.1.3,Win32,60,13300,,,,,,,,,,,,,,0,71,71,84,1,,,,,,,,,,,,,,,,,,,,,,,,,,
,,,,,,,,,,,,l,0.88147,Incorrect,,,,,,t4.png,t4.png,0,0.98115,19,Female,2020-10-16_17h24.06.756,torte-q,2020.1.3,Win32,60,13300,,,,,,,,,,,,,,0,72,72,52,1,,,,,,,,,,,,,,,,,,,,,,,,,,
,,,,,,,,,,,,a,0.749155,Correct!,,,,,,t1.png,t1.png,0,0.978,19,Female,2020-10-16_17h24.06.756,torte-q,2020.1.3,Win32,60,13300,,,,,,,,,,,,,,0,73,73,54,1,,,,,,,,,,,,,,,,,,,,,,,,,,
,,,,,,,,,,,,a,0.95171,Incorrect,,,,,,t2.png,t4.png,2,0.0591,19,Female,2020-10-16_17h24.06.756,torte-q,2020.1.3,Win32,60,13300,,,,,,,,,,,,,,0,74,74,15,1,,,,,,,,,,,,,,,,,,,,,,,,,,
,,,,,,,,,,,,l,0.66333,Incorrect,,,,,,t4.png,t3.png,1,0.90855,19,Female,2020-10-16_17h24.06.756,torte-q,2020.1.3,Win32,60,13300,,,,,,,,,,,,,,0,75,75,45,1,,,,,,,,,,,,,,,,,,,,,,,,,,
,,,,,,,,,,,,l,0.9538,Incorrect,,,,,,t4.png,t5.png,1,0.9,19,Female,2020-10-16_17h24.06.756,torte-q,2020.1.3,Win32,60,13300,,,,,,,,,,,,,,0,76,76,115,1,,,,,,,,,,,,,,,,,,,,,,,,,,
,,,,,,,,,,,,l,1.01371,Correct!,,,,,,t5.png,t4.png,1,0.90025,19,Female,2020-10-16_17h24.06.756,torte-q,2020.1.3,Win32,60,13300,,,,,,,,,,,,,,0,77,77,34,1,,,,,,,,,,,,,,,,,,,,,,,,,,
,,,,,,,,,,,,a,1.037595,Correct!,,,,,,t5.png,t5.png,0,0.97829,19,Female,2020-10-16_17h24.06.756,torte-q,2020.1.3,Win32,60,13300,,,,,,,,,,,,,,0,78,78,94,1,,,,,,,,,,,,,,,,,,,,,,,,,,
,,,,,,,,,,,,l,1.268455,Incorrect,,,,,,t1.png,t2.png,1,0.90025,19,Female,2020-10-16_17h24.06.756,torte-q,2020.1.3,Win32,60,13300,,,,,,,,,,,,,,0,79,79,112,1,,,,,,,,,,,,,,,,,,,,,,,,,,
,,,,,,,,,,,,l,0.931495,Correct!,,,,,,t5.png,t1.png,4,9.55E-11,19,Female,2020-10-16_17h24.06.756,torte-q,2020.1.3,Win32,60,13300,,,,,,,,,,,,,,0,80,80,102,1,,,,,,,,,,,,,,,,,,,,,,,,,,
,,,,,,,,,,,,a,1.16475,Correct!,,,,,,t2.png,t3.png,1,0.90855,19,Female,2020-10-16_17h24.06.756,torte-q,2020.1.3,Win32,60,13300,,,,,,,,,,,,,,0,81,81,65,1,,,,,,,,,,,,,,,,,,,,,,,,,,
,,,,,,,,,,,,l,0.934615,Correct!,,,,,,t4.png,t2.png,2,0.059078,19,Female,2020-10-16_17h24.06.756,torte-q,2020.1.3,Win32,60,13300,,,,,,,,,,,,,,0,82,82,109,1,,,,,,,,,,,,,,,,,,,,,,,,,,
,,,,,,,,,,,,l,0.749995,Incorrect,,,,,,t3.png,t2.png,1,0.90855,19,Female,2020-10-16_17h24.06.756,torte-q,2020.1.3,Win32,60,13300,,,,,,,,,,,,,,0,83,83,53,1,,,,,,,,,,,,,,,,,,,,,,,,,,
,,,,,,,,,,,,a,1.00239,Correct!,,,,,,t5.png,t5.png,0,0.97829,19,Female,2020-10-16_17h24.06.756,torte-q,2020.1.3,Win32,60,13300,,,,,,,,,,,,,,0,84,84,25,1,,,,,,,,,,,,,,,,,,,,,,,,,,
,,,,,,,,,,,,a,0.895855,Correct!,,,,,,t2.png,t3.png,1,0.90855,19,Female,2020-10-16_17h24.06.756,torte-q,2020.1.3,Win32,60,13300,,,,,,,,,,,,,,0,85,85,68,1,,,,,,,,,,,,,,,,,,,,,,,,,,
,,,,,,,,,,,,l,0.696875,Correct!,,,,,,t5.png,t2.png,3,0.0000131,19,Female,2020-10-16_17h24.06.756,torte-q,2020.1.3,Win32,60,13300,,,,,,,,,,,,,,0,86,86,116,1,,,,,,,,,,,,,,,,,,,,,,,,,,
,,,,,,,,,,,,l,1.366135,Incorrect,,,,,,t4.png,t3.png,1,0.90855,19,Female,2020-10-16_17h24.06.756,torte-q,2020.1.3,Win32,60,13300,,,,,,,,,,,,,,0,87,87,75,1,,,,,,,,,,,,,,,,,,,,,,,,,,
,,,,,,,,,,,,l,1.24641,Correct!,,,,,,t3.png,t1.png,2,0.056466,19,Female,2020-10-16_17h24.06.756,torte-q,2020.1.3,Win32,60,13300,,,,,,,,,,,,,,0,88,88,29,1,,,,,,,,,,,,,,,,,,,,,,,,,,
,,,,,,,,,,,,l,1.31337,Incorrect,,,,,,t5.png,t4.png,1,0.90025,19,Female,2020-10-16_17h24.06.756,torte-q,2020.1.3,Win32,60,13300,,,,,,,,,,,,,,0,89,89,27,1,,,,,,,,,,,,,,,,,,,,,,,,,,
,,,,,,,,,,,,l,0.587215,Incorrect,,,,,,t4.png,t2.png,2,0.0591,19,Female,2020-10-16_17h24.06.756,torte-q,2020.1.3,Win32,60,13300,,,,,,,,,,,,,,0,90,90,36,1,,,,,,,,,,,,,,,,,,,,,,,,,,
,,,,,,,,,,,,a,0.88894,Correct!,,,,,,t2.png,t2.png,0,0.98115,19,Female,2020-10-16_17h24.06.756,torte-q,2020.1.3,Win32,60,13300,,,,,,,,,,,,,,0,91,91,7,1,,,,,,,,,,,,,,,,,,,,,,,,,,
,,,,,,,,,,,,l,0.979485,Incorrect,,,,,,t1.png,t2.png,1,0.90025,19,Female,2020-10-16_17h24.06.756,torte-q,2020.1.3,Win32,60,13300,,,,,,,,,,,,,,0,92,92,72,1,,,,,,,,,,,,,,,,,,,,,,,,,,
,,,,,,,,,,,,l,1.21359,Incorrect,,,,,,t2.png,t1.png,1,0.90025,19,Female,2020-10-16_17h24.06.756,torte-q,2020.1.3,Win32,60,13300,,,,,,,,,,,,,,0,93,93,4,1,,,,,,,,,,,,,,,,,,,,,,,,,,
,,,,,,,,,,,,a,1.402605,Incorrect,,,,,,t2.png,t4.png,2,0.059078,19,Female,2020-10-16_17h24.06.756,torte-q,2020.1.3,Win32,60,13300,,,,,,,,,,,,,,0,94,94,11,1,,,,,,,,,,,,,,,,,,,,,,,,,,
,,,,,,,,,,,,l,1.49793,Correct!,,,,,,t5.png,t3.png,2,0.0565,19,Female,2020-10-16_17h24.06.756,torte-q,2020.1.3,Win32,60,13300,,,,,,,,,,,,,,0,95,95,39,1,,,,,,,,,,,,,,,,,,,,,,,,,,
,,,,,,,,,,,,a,0.881305,Incorrect,,,,,,t4.png,t1.png,3,0.0000131,19,Female,2020-10-16_17h24.06.756,torte-q,2020.1.3,Win32,60,13300,,,,,,,,,,,,,,0,96,96,61,1,,,,,,,,,,,,,,,,,,,,,,,,,,
,,,,,,,,,,,,a,1.07029,Correct!,,,,,,t2.png,t3.png,1,0.909,19,Female,2020-10-16_17h24.06.756,torte-q,2020.1.3,Win32,60,13300,,,,,,,,,,,,,,0,97,97,74,1,,,,,,,,,,,,,,,,,,,,,,,,,,
,,,,,,,,,,,,l,2.26299,Correct!,,,,,,t5.png,t2.png,3,0.0000131,19,Female,2020-10-16_17h24.06.756,torte-q,2020.1.3,Win32,60,13300,,,,,,,,,,,,,,0,98,98,98,1,,,,,,,,,,,,,,,,,,,,,,,,,,
,,,,,,,,,,,,l,1.231005,Incorrect,,,,,,t4.png,t5.png,1,0.90025,19,Female,2020-10-16_17h24.06.756,torte-q,2020.1.3,Win32,60,13300,,,,,,,,,,,,,,0,99,99,103,1,,,,,,,,,,,,,,,,,,,,,,,,,,
,,,,,,,,,,,,l,1.046535,Correct!,,,,,,t1.png,t5.png,4,9.55E-11,19,Female,2020-10-16_17h24.06.756,torte-q,2020.1.3,Win32,60,13300,,,,,,,,,,,,,,0,100,100,16,1,,,,,,,,,,,,,,,,,,,,,,,,,,
,,,,,,,,,,,,l,1.11812,Correct!,,,,,,t2.png,t4.png,2,0.059078,19,Female,2020-10-16_17h24.06.756,torte-q,2020.1.3,Win32,60,13300,,,,,,,,,,,,,,0,101,101,77,1,,,,,,,,,,,,,,,,,,,,,,,,,,
,,,,,,,,,,,,l,1.336125,Correct!,,,,,,t4.png,t1.png,3,0.0000131,19,Female,2020-10-16_17h24.06.756,torte-q,2020.1.3,Win32,60,13300,,,,,,,,,,,,,,0,102,102,48,1,,,,,,,,,,,,,,,,,,,,,,,,,,
,,,,,,,,,,,,a,0.98229,Correct!,,,,,,t2.png,t2.png,0,0.98115,19,Female,2020-10-16_17h24.06.756,torte-q,2020.1.3,Win32,60,13300,,,,,,,,,,,,,,0,103,103,57,1,,,,,,,,,,,,,,,,,,,,,,,,,,
,,,,,,,,,,,,a,1.566585,Correct!,,,,,,t4.png,t5.png,1,0.90025,19,Female,2020-10-16_17h24.06.756,torte-q,2020.1.3,Win32,60,13300,,,,,,,,,,,,,,0,104,104,47,1,,,,,,,,,,,,,,,,,,,,,,,,,,
,,,,,,,,,,,,l,1.014515,Incorrect,,,,,,t3.png,t2.png,1,0.90855,19,Female,2020-10-16_17h24.06.756,torte-q,2020.1.3,Win32,60,13300,,,,,,,,,,,,,,0,105,105,97,1,,,,,,,,,,,,,,,,,,,,,,,,,,
,,,,,,,,,,,,a,1.280415,Incorrect,,,,,,t5.png,t2.png,3,0.0000131,19,Female,2020-10-16_17h24.06.756,torte-q,2020.1.3,Win32,60,13300,,,,,,,,,,,,,,0,106,106,91,1,,,,,,,,,,,,,,,,,,,,,,,,,,
,,,,,,,,,,,,l,1.01605,Correct!,,,,,,t1.png,t3.png,2,0.056466,19,Female,2020-10-16_17h24.06.756,torte-q,2020.1.3,Win32,60,13300,,,,,,,,,,,,,,0,107,107,63,1,,,,,,,,,,,,,,,,,,,,,,,,,,
,,,,,,,,,,,,l,0.770125,Correct!,,,,,,t2.png,t5.png,3,0.0000131,19,Female,2020-10-16_17h24.06.756,torte-q,2020.1.3,Win32,60,13300,,,,,,,,,,,,,,0,108,108,104,1,,,,,,,,,,,,,,,,,,,,,,,,,,
,,,,,,,,,,,,l,0.78718,Incorrect,,,,,,t3.png,t4.png,1,0.909,19,Female,2020-10-16_17h24.06.756,torte-q,2020.1.3,Win32,60,13300,,,,,,,,,,,,,,0,109,109,106,1,,,,,,,,,,,,,,,,,,,,,,,,,,
,,,,,,,,,,,,a,0.934275,Incorrect,,,,,,t5.png,t2.png,3,0.0000131,19,Female,2020-10-16_17h24.06.756,torte-q,2020.1.3,Win32,60,13300,,,,,,,,,,,,,,0,110,110,119,1,,,,,,,,,,,,,,,,,,,,,,,,,,
,,,,,,,,,,,,a,0.92749,Correct!,,,,,,t2.png,t2.png,0,0.98115,19,Female,2020-10-16_17h24.06.756,torte-q,2020.1.3,Win32,60,13300,,,,,,,,,,,,,,0,111,111,2,1,,,,,,,,,,,,,,,,,,,,,,,,,,
,,,,,,,,,,,,l,1.00277,Incorrect,,,,,,t5.png,t4.png,1,0.9,19,Female,2020-10-16_17h24.06.756,torte-q,2020.1.3,Win32,60,13300,,,,,,,,,,,,,,0,112,112,49,1,,,,,,,,,,,,,,,,,,,,,,,,,,
,,,,,,,,,,,,l,1.435005,Correct!,,,,,,t1.png,t4.png,3,0.0000131,19,Female,2020-10-16_17h24.06.756,torte-q,2020.1.3,Win32,60,13300,,,,,,,,,,,,,,0,113,113,17,1,,,,,,,,,,,,,,,,,,,,,,,,,,
,,,,,,,,,,,,l,1.25775,Incorrect,,,,,,t4.png,t4.png,0,0.98115,19,Female,2020-10-16_17h24.06.756,torte-q,2020.1.3,Win32,60,13300,,,,,,,,,,,,,,0,114,114,21,1,,,,,,,,,,,,,,,,,,,,,,,,,,
,,,,,,,,,,,,l,1.43621,Correct!,,,,,,t2.png,t1.png,1,0.90025,19,Female,2020-10-16_17h24.06.756,torte-q,2020.1.3,Win32,60,13300,,,,,,,,,,,,,,0,115,115,5,1,,,,,,,,,,,,,,,,,,,,,,,,,,
,,,,,,,,,,,,a,0.9755,Correct!,,,,,,t5.png,t5.png,0,0.97829,19,Female,2020-10-16_17h24.06.756,torte-q,2020.1.3,Win32,60,13300,,,,,,,,,,,,,,0,116,116,70,1,,,,,,,,,,,,,,,,,,,,,,,,,,
,,,,,,,,,,,,a,1.1862,Correct!,,,,,,t4.png,t4.png,0,0.98115,19,Female,2020-10-16_17h24.06.756,torte-q,2020.1.3,Win32,60,13300,,,,,,,,,,,,,,0,117,117,79,1,,,,,,,,,,,,,,,,,,,,,,,,,,
,,,,,,,,,,,,l,1.093075,Incorrect,,,,,,t4.png,t3.png,1,0.909,19,Female,2020-10-16_17h24.06.756,torte-q,2020.1.3,Win32,60,13300,,,,,,,,,,,,,,0,118,118,20,1,,,,,,,,,,,,,,,,,,,,,,,,,,
,,,,,,,,,,,,a,1.30568,Incorrect,,,,,,t1.png,t3.png,2,0.056466,19,Female,2020-10-16_17h24.06.756,torte-q,2020.1.3,Win32,60,13300,,,,,,,,,,,,,,0,119,119,99,1,,,,,,,,,,,,,,,,,,,,,,,,,,
,,,,,,,,,,,,,,,,,,,,,,,,19,Female,2020-10-16_17h24.06.756,torte-q,2020.1.3,Win32,60,13300,space,1.303825,,,,,,,,,,,,,,,,,1.980000153,6.217415,-221.3333209,171.9999944,1,0,0,s1,-93.33331704,-102.0000138,1,0,0,t4,170.0000241,-106.0000139,1,0,0,proceed,space,11.860325,space,1.03958,space,0.90332
