key_resp_8.keys,key_resp_8.rt,key_resp_9.keys,key_resp_9.rt,key_resp_10.keys,key_resp_10.rt,key_resp_11.keys,key_resp_11.rt,key_resp_2.keys,key_resp_2.rt,key_resp_3.keys,key_resp_3.rt,key_resp.keys,key_resp.rt,Feedback,train.thisRepN,train.thisTrialN,train.thisN,train.thisIndex,train.ran,torta_sx,torta_dx,difference,probability,age,gender,date,expName,psychopyVersion,OS,frameRate,participant,key_resp_15.keys,key_resp_15.rt,key_resp_6.keys,key_resp_6.rt,test1.thisRepN,test1.thisTrialN,test1.thisN,test1.thisIndex,test1.ran,key_resp_16.keys,key_resp_16.rt,key_resp_7.keys,key_resp_7.rt,test2.thisRepN,test2.thisTrialN,test2.thisN,test2.thisIndex,test2.ran,rating.response,rating.rt,mouse.x,mouse.y,mouse.leftButton,mouse.midButton,mouse.rightButton,mouse.clicked_name,mouse_2.x,mouse_2.y,mouse_2.leftButton,mouse_2.midButton,mouse_2.rightButton,mouse_2.clicked_name,mouse_3.x,mouse_3.y,mouse_3.leftButton,mouse_3.midButton,mouse_3.rightButton,mouse_3.clicked_name,key_resp_12.keys,key_resp_12.rt,key_resp_13.keys,key_resp_13.rt,key_resp_14.keys,key_resp_14.rt
space,29.31966,space,5.694075,space,3.930025,space,3.14824,space,21.064625,space,39.89271,a,1.52763,Correct!,0,0,0,58,1,t5.png,t4.png,1,0.90025,61,Male,2020-11-16_16h38.54.805,torte-q,2020.1.3,Win32,60,13311,,,,,,,,,,,,,,,,,,,,,,,,,,,,,,,,,,,,,,,,,,,,
,,,,,,,,,,,,a,0.78023,Incorrect,0,1,1,33,1,t5.png,t1.png,4,9.55E-11,61,Male,2020-11-16_16h38.54.805,torte-q,2020.1.3,Win32,60,13311,,,,,,,,,,,,,,,,,,,,,,,,,,,,,,,,,,,,,,,,,,,,
,,,,,,,,,,,,l,1.83509,Incorrect,0,2,2,75,1,t1.png,t1.png,0,0.97829,61,Male,2020-11-16_16h38.54.805,torte-q,2020.1.3,Win32,60,13311,,,,,,,,,,,,,,,,,,,,,,,,,,,,,,,,,,,,,,,,,,,,
,,,,,,,,,,,,l,1.669715,Correct!,0,3,3,3,1,t1.png,t5.png,4,9.55E-11,61,Male,2020-11-16_16h38.54.805,torte-q,2020.1.3,Win32,60,13311,,,,,,,,,,,,,,,,,,,,,,,,,,,,,,,,,,,,,,,,,,,,
,,,,,,,,,,,,a,1.468535,Correct!,0,4,4,77,1,t1.png,t1.png,0,0.97829,61,Male,2020-11-16_16h38.54.805,torte-q,2020.1.3,Win32,60,13311,,,,,,,,,,,,,,,,,,,,,,,,,,,,,,,,,,,,,,,,,,,,
,,,,,,,,,,,,a,1.29905,Incorrect,0,5,5,27,1,t3.png,t1.png,2,0.0565,61,Male,2020-11-16_16h38.54.805,torte-q,2020.1.3,Win32,60,13311,,,,,,,,,,,,,,,,,,,,,,,,,,,,,,,,,,,,,,,,,,,,
,,,,,,,,,,,,l,1.204255,Correct!,0,6,6,38,1,t3.png,t1.png,2,0.056466,61,Male,2020-11-16_16h38.54.805,torte-q,2020.1.3,Win32,60,13311,,,,,,,,,,,,,,,,,,,,,,,,,,,,,,,,,,,,,,,,,,,,
,,,,,,,,,,,,a,1.23712,Incorrect,0,7,7,46,1,t4.png,t2.png,2,0.059078,61,Male,2020-11-16_16h38.54.805,torte-q,2020.1.3,Win32,60,13311,,,,,,,,,,,,,,,,,,,,,,,,,,,,,,,,,,,,,,,,,,,,
,,,,,,,,,,,,l,0.62594,Incorrect,0,8,8,112,1,t1.png,t1.png,0,0.97829,61,Male,2020-11-16_16h38.54.805,torte-q,2020.1.3,Win32,60,13311,,,,,,,,,,,,,,,,,,,,,,,,,,,,,,,,,,,,,,,,,,,,
,,,,,,,,,,,,l,1.16125,Correct!,0,9,9,31,1,t1.png,t5.png,4,9.55E-11,61,Male,2020-11-16_16h38.54.805,torte-q,2020.1.3,Win32,60,13311,,,,,,,,,,,,,,,,,,,,,,,,,,,,,,,,,,,,,,,,,,,,
,,,,,,,,,,,,l,1.2168,Incorrect,0,10,10,2,1,t3.png,t2.png,1,0.90855,61,Male,2020-11-16_16h38.54.805,torte-q,2020.1.3,Win32,60,13311,,,,,,,,,,,,,,,,,,,,,,,,,,,,,,,,,,,,,,,,,,,,
,,,,,,,,,,,,l,1.68851,Correct!,0,11,11,69,1,t4.png,t2.png,2,0.059078,61,Male,2020-11-16_16h38.54.805,torte-q,2020.1.3,Win32,60,13311,,,,,,,,,,,,,,,,,,,,,,,,,,,,,,,,,,,,,,,,,,,,
,,,,,,,,,,,,a,1.55192,Correct!,0,12,12,74,1,t5.png,t4.png,1,0.9,61,Male,2020-11-16_16h38.54.805,torte-q,2020.1.3,Win32,60,13311,,,,,,,,,,,,,,,,,,,,,,,,,,,,,,,,,,,,,,,,,,,,
,,,,,,,,,,,,l,1.454665,Incorrect,0,13,13,15,1,t3.png,t2.png,1,0.90855,61,Male,2020-11-16_16h38.54.805,torte-q,2020.1.3,Win32,60,13311,,,,,,,,,,,,,,,,,,,,,,,,,,,,,,,,,,,,,,,,,,,,
,,,,,,,,,,,,l,1.827945,Incorrect,0,14,14,29,1,t5.png,t5.png,0,0.97829,61,Male,2020-11-16_16h38.54.805,torte-q,2020.1.3,Win32,60,13311,,,,,,,,,,,,,,,,,,,,,,,,,,,,,,,,,,,,,,,,,,,,
,,,,,,,,,,,,a,1.45239,Correct!,0,15,15,96,1,t1.png,t1.png,0,0.97829,61,Male,2020-11-16_16h38.54.805,torte-q,2020.1.3,Win32,60,13311,,,,,,,,,,,,,,,,,,,,,,,,,,,,,,,,,,,,,,,,,,,,
,,,,,,,,,,,,l,1.443095,Correct!,0,16,16,35,1,t1.png,t4.png,3,0.0000131,61,Male,2020-11-16_16h38.54.805,torte-q,2020.1.3,Win32,60,13311,,,,,,,,,,,,,,,,,,,,,,,,,,,,,,,,,,,,,,,,,,,,
,,,,,,,,,,,,a,1.56809,Incorrect,0,17,17,80,1,t1.png,t4.png,3,0.0000131,61,Male,2020-11-16_16h38.54.805,torte-q,2020.1.3,Win32,60,13311,,,,,,,,,,,,,,,,,,,,,,,,,,,,,,,,,,,,,,,,,,,,
,,,,,,,,,,,,a,0.99906,Incorrect,0,18,18,24,1,t4.png,t2.png,2,0.059078,61,Male,2020-11-16_16h38.54.805,torte-q,2020.1.3,Win32,60,13311,,,,,,,,,,,,,,,,,,,,,,,,,,,,,,,,,,,,,,,,,,,,
,,,,,,,,,,,,a,1.218105,Incorrect,0,19,19,30,1,t3.png,t1.png,2,0.056466,61,Male,2020-11-16_16h38.54.805,torte-q,2020.1.3,Win32,60,13311,,,,,,,,,,,,,,,,,,,,,,,,,,,,,,,,,,,,,,,,,,,,
,,,,,,,,,,,,a,1.21962,Incorrect,0,20,20,102,1,t4.png,t2.png,2,0.059078,61,Male,2020-11-16_16h38.54.805,torte-q,2020.1.3,Win32,60,13311,,,,,,,,,,,,,,,,,,,,,,,,,,,,,,,,,,,,,,,,,,,,
,,,,,,,,,,,,l,1.736815,Correct!,0,21,21,117,1,t1.png,t5.png,4,9.55E-11,61,Male,2020-11-16_16h38.54.805,torte-q,2020.1.3,Win32,60,13311,,,,,,,,,,,,,,,,,,,,,,,,,,,,,,,,,,,,,,,,,,,,
,,,,,,,,,,,,a,1.57666,Correct!,0,22,22,7,1,t4.png,t5.png,1,0.90025,61,Male,2020-11-16_16h38.54.805,torte-q,2020.1.3,Win32,60,13311,,,,,,,,,,,,,,,,,,,,,,,,,,,,,,,,,,,,,,,,,,,,
,,,,,,,,,,,,l,1.80097,Incorrect,0,23,23,63,1,t2.png,t3.png,1,0.909,61,Male,2020-11-16_16h38.54.805,torte-q,2020.1.3,Win32,60,13311,,,,,,,,,,,,,,,,,,,,,,,,,,,,,,,,,,,,,,,,,,,,
,,,,,,,,,,,,l,1.001395,Incorrect,0,24,24,10,1,t2.png,t3.png,1,0.90855,61,Male,2020-11-16_16h38.54.805,torte-q,2020.1.3,Win32,60,13311,,,,,,,,,,,,,,,,,,,,,,,,,,,,,,,,,,,,,,,,,,,,
,,,,,,,,,,,,a,1.86795,Incorrect,0,25,25,49,1,t4.png,t5.png,1,0.9,61,Male,2020-11-16_16h38.54.805,torte-q,2020.1.3,Win32,60,13311,,,,,,,,,,,,,,,,,,,,,,,,,,,,,,,,,,,,,,,,,,,,
,,,,,,,,,,,,a,0.789315,Incorrect,0,26,26,26,1,t4.png,t2.png,2,0.0591,61,Male,2020-11-16_16h38.54.805,torte-q,2020.1.3,Win32,60,13311,,,,,,,,,,,,,,,,,,,,,,,,,,,,,,,,,,,,,,,,,,,,
,,,,,,,,,,,,l,1.100115,Correct!,0,27,27,106,1,t2.png,t3.png,1,0.90855,61,Male,2020-11-16_16h38.54.805,torte-q,2020.1.3,Win32,60,13311,,,,,,,,,,,,,,,,,,,,,,,,,,,,,,,,,,,,,,,,,,,,
,,,,,,,,,,,,l,1.55168,Incorrect,0,28,28,8,1,t3.png,t2.png,1,0.90855,61,Male,2020-11-16_16h38.54.805,torte-q,2020.1.3,Win32,60,13311,,,,,,,,,,,,,,,,,,,,,,,,,,,,,,,,,,,,,,,,,,,,
,,,,,,,,,,,,a,0.62417,Incorrect,0,29,29,53,1,t3.png,t1.png,2,0.056466,61,Male,2020-11-16_16h38.54.805,torte-q,2020.1.3,Win32,60,13311,,,,,,,,,,,,,,,,,,,,,,,,,,,,,,,,,,,,,,,,,,,,
,,,,,,,,,,,,a,2.06637,Incorrect,0,30,30,56,1,t5.png,t1.png,4,9.55E-11,61,Male,2020-11-16_16h38.54.805,torte-q,2020.1.3,Win32,60,13311,,,,,,,,,,,,,,,,,,,,,,,,,,,,,,,,,,,,,,,,,,,,
,,,,,,,,,,,,a,1.451065,Correct!,0,31,31,25,1,t5.png,t5.png,0,0.97829,61,Male,2020-11-16_16h38.54.805,torte-q,2020.1.3,Win32,60,13311,,,,,,,,,,,,,,,,,,,,,,,,,,,,,,,,,,,,,,,,,,,,
,,,,,,,,,,,,l,1.289925,Correct!,0,32,32,90,1,t1.png,t5.png,4,9.55E-11,61,Male,2020-11-16_16h38.54.805,torte-q,2020.1.3,Win32,60,13311,,,,,,,,,,,,,,,,,,,,,,,,,,,,,,,,,,,,,,,,,,,,
,,,,,,,,,,,,a,1.30139,Incorrect,0,33,33,43,1,t4.png,t2.png,2,0.059078,61,Male,2020-11-16_16h38.54.805,torte-q,2020.1.3,Win32,60,13311,,,,,,,,,,,,,,,,,,,,,,,,,,,,,,,,,,,,,,,,,,,,
,,,,,,,,,,,,a,1.22273,Correct!,0,34,34,101,1,t4.png,t5.png,1,0.90025,61,Male,2020-11-16_16h38.54.805,torte-q,2020.1.3,Win32,60,13311,,,,,,,,,,,,,,,,,,,,,,,,,,,,,,,,,,,,,,,,,,,,
,,,,,,,,,,,,a,1.70497,Correct!,0,35,35,42,1,t5.png,t4.png,1,0.90025,61,Male,2020-11-16_16h38.54.805,torte-q,2020.1.3,Win32,60,13311,,,,,,,,,,,,,,,,,,,,,,,,,,,,,,,,,,,,,,,,,,,,
,,,,,,,,,,,,a,1.219915,Incorrect,0,36,36,50,1,t5.png,t1.png,4,9.55E-11,61,Male,2020-11-16_16h38.54.805,torte-q,2020.1.3,Win32,60,13311,,,,,,,,,,,,,,,,,,,,,,,,,,,,,,,,,,,,,,,,,,,,
,,,,,,,,,,,,l,0.98636,Correct!,0,37,37,11,1,t1.png,t4.png,3,0.0000131,61,Male,2020-11-16_16h38.54.805,torte-q,2020.1.3,Win32,60,13311,,,,,,,,,,,,,,,,,,,,,,,,,,,,,,,,,,,,,,,,,,,,
,,,,,,,,,,,,a,1.320045,Correct!,0,38,38,113,1,t5.png,t4.png,1,0.9,61,Male,2020-11-16_16h38.54.805,torte-q,2020.1.3,Win32,60,13311,,,,,,,,,,,,,,,,,,,,,,,,,,,,,,,,,,,,,,,,,,,,
,,,,,,,,,,,,l,0.84789,Correct!,0,39,39,68,1,t1.png,t4.png,3,0.0000131,61,Male,2020-11-16_16h38.54.805,torte-q,2020.1.3,Win32,60,13311,,,,,,,,,,,,,,,,,,,,,,,,,,,,,,,,,,,,,,,,,,,,
,,,,,,,,,,,,l,1.56825,Incorrect,0,40,40,85,1,t3.png,t2.png,1,0.90855,61,Male,2020-11-16_16h38.54.805,torte-q,2020.1.3,Win32,60,13311,,,,,,,,,,,,,,,,,,,,,,,,,,,,,,,,,,,,,,,,,,,,
,,,,,,,,,,,,a,1.20277,Correct!,0,41,41,107,1,t1.png,t1.png,0,0.978,61,Male,2020-11-16_16h38.54.805,torte-q,2020.1.3,Win32,60,13311,,,,,,,,,,,,,,,,,,,,,,,,,,,,,,,,,,,,,,,,,,,,
,,,,,,,,,,,,l,1.292155,Correct!,0,42,42,1,1,t2.png,t4.png,2,0.059078,61,Male,2020-11-16_16h38.54.805,torte-q,2020.1.3,Win32,60,13311,,,,,,,,,,,,,,,,,,,,,,,,,,,,,,,,,,,,,,,,,,,,
,,,,,,,,,,,,a,1.50129,Correct!,0,43,43,81,1,t1.png,t1.png,0,0.97829,61,Male,2020-11-16_16h38.54.805,torte-q,2020.1.3,Win32,60,13311,,,,,,,,,,,,,,,,,,,,,,,,,,,,,,,,,,,,,,,,,,,,
,,,,,,,,,,,,l,1.48457,Incorrect,0,44,44,115,1,t2.png,t4.png,2,0.059078,61,Male,2020-11-16_16h38.54.805,torte-q,2020.1.3,Win32,60,13311,,,,,,,,,,,,,,,,,,,,,,,,,,,,,,,,,,,,,,,,,,,,
,,,,,,,,,,,,a,1.38489,Correct!,0,45,45,66,1,t4.png,t5.png,1,0.9,61,Male,2020-11-16_16h38.54.805,torte-q,2020.1.3,Win32,60,13311,,,,,,,,,,,,,,,,,,,,,,,,,,,,,,,,,,,,,,,,,,,,
,,,,,,,,,,,,l,0.951895,Incorrect,0,46,46,28,1,t2.png,t3.png,1,0.909,61,Male,2020-11-16_16h38.54.805,torte-q,2020.1.3,Win32,60,13311,,,,,,,,,,,,,,,,,,,,,,,,,,,,,,,,,,,,,,,,,,,,
,,,,,,,,,,,,a,0.44803,Incorrect,0,47,47,93,1,t2.png,t4.png,2,0.059078,61,Male,2020-11-16_16h38.54.805,torte-q,2020.1.3,Win32,60,13311,,,,,,,,,,,,,,,,,,,,,,,,,,,,,,,,,,,,,,,,,,,,
,,,,,,,,,,,,a,1.684455,Correct!,0,48,48,64,1,t1.png,t1.png,0,0.978,61,Male,2020-11-16_16h38.54.805,torte-q,2020.1.3,Win32,60,13311,,,,,,,,,,,,,,,,,,,,,,,,,,,,,,,,,,,,,,,,,,,,
,,,,,,,,,,,,l,1.35127,Incorrect,0,49,49,92,1,t2.png,t3.png,1,0.909,61,Male,2020-11-16_16h38.54.805,torte-q,2020.1.3,Win32,60,13311,,,,,,,,,,,,,,,,,,,,,,,,,,,,,,,,,,,,,,,,,,,,
,,,,,,,,,,,,l,0.89062,Correct!,0,50,50,91,1,t1.png,t4.png,3,0.0000131,61,Male,2020-11-16_16h38.54.805,torte-q,2020.1.3,Win32,60,13311,,,,,,,,,,,,,,,,,,,,,,,,,,,,,,,,,,,,,,,,,,,,
,,,,,,,,,,,,a,0.95163,Correct!,0,51,51,9,1,t4.png,t5.png,1,0.9,61,Male,2020-11-16_16h38.54.805,torte-q,2020.1.3,Win32,60,13311,,,,,,,,,,,,,,,,,,,,,,,,,,,,,,,,,,,,,,,,,,,,
,,,,,,,,,,,,a,1.11065,Incorrect,0,52,52,82,1,t5.png,t1.png,4,9.55E-11,61,Male,2020-11-16_16h38.54.805,torte-q,2020.1.3,Win32,60,13311,,,,,,,,,,,,,,,,,,,,,,,,,,,,,,,,,,,,,,,,,,,,
,,,,,,,,,,,,l,0.956485,Incorrect,0,53,53,65,1,t4.png,t5.png,1,0.90025,61,Male,2020-11-16_16h38.54.805,torte-q,2020.1.3,Win32,60,13311,,,,,,,,,,,,,,,,,,,,,,,,,,,,,,,,,,,,,,,,,,,,
,,,,,,,,,,,,a,1.020865,Incorrect,0,54,54,89,1,t1.png,t4.png,3,0.0000131,61,Male,2020-11-16_16h38.54.805,torte-q,2020.1.3,Win32,60,13311,,,,,,,,,,,,,,,,,,,,,,,,,,,,,,,,,,,,,,,,,,,,
,,,,,,,,,,,,l,0.933295,Correct!,0,55,55,60,1,t2.png,t4.png,2,0.059078,61,Male,2020-11-16_16h38.54.805,torte-q,2020.1.3,Win32,60,13311,,,,,,,,,,,,,,,,,,,,,,,,,,,,,,,,,,,,,,,,,,,,
,,,,,,,,,,,,l,1.456535,Correct!,0,56,56,103,1,t3.png,t1.png,2,0.056466,61,Male,2020-11-16_16h38.54.805,torte-q,2020.1.3,Win32,60,13311,,,,,,,,,,,,,,,,,,,,,,,,,,,,,,,,,,,,,,,,,,,,
,,,,,,,,,,,,a,1.14787,Incorrect,0,57,57,108,1,t5.png,t1.png,4,9.55E-11,61,Male,2020-11-16_16h38.54.805,torte-q,2020.1.3,Win32,60,13311,,,,,,,,,,,,,,,,,,,,,,,,,,,,,,,,,,,,,,,,,,,,
,,,,,,,,,,,,l,1.199065,Incorrect,0,58,58,16,1,t5.png,t4.png,1,0.9,61,Male,2020-11-16_16h38.54.805,torte-q,2020.1.3,Win32,60,13311,,,,,,,,,,,,,,,,,,,,,,,,,,,,,,,,,,,,,,,,,,,,
,,,,,,,,,,,,l,1.210315,Correct!,0,59,59,36,1,t3.png,t1.png,2,0.0565,61,Male,2020-11-16_16h38.54.805,torte-q,2020.1.3,Win32,60,13311,,,,,,,,,,,,,,,,,,,,,,,,,,,,,,,,,,,,,,,,,,,,
,,,,,,,,,,,,l,1.365475,Correct!,0,60,60,6,1,t1.png,t4.png,3,0.0000131,61,Male,2020-11-16_16h38.54.805,torte-q,2020.1.3,Win32,60,13311,,,,,,,,,,,,,,,,,,,,,,,,,,,,,,,,,,,,,,,,,,,,
,,,,,,,,,,,,l,1.508975,Incorrect,0,61,61,45,1,t3.png,t2.png,1,0.90855,61,Male,2020-11-16_16h38.54.805,torte-q,2020.1.3,Win32,60,13311,,,,,,,,,,,,,,,,,,,,,,,,,,,,,,,,,,,,,,,,,,,,
,,,,,,,,,,,,l,1.36865,Correct!,0,62,62,67,1,t1.png,t5.png,4,9.55E-11,61,Male,2020-11-16_16h38.54.805,torte-q,2020.1.3,Win32,60,13311,,,,,,,,,,,,,,,,,,,,,,,,,,,,,,,,,,,,,,,,,,,,
,,,,,,,,,,,,a,1.36077,Incorrect,0,63,63,5,1,t2.png,t4.png,2,0.059078,61,Male,2020-11-16_16h38.54.805,torte-q,2020.1.3,Win32,60,13311,,,,,,,,,,,,,,,,,,,,,,,,,,,,,,,,,,,,,,,,,,,,
,,,,,,,,,,,,a,0.835225,Incorrect,0,64,64,86,1,t3.png,t1.png,2,0.056466,61,Male,2020-11-16_16h38.54.805,torte-q,2020.1.3,Win32,60,13311,,,,,,,,,,,,,,,,,,,,,,,,,,,,,,,,,,,,,,,,,,,,
,,,,,,,,,,,,l,0.771775,Correct!,0,65,65,119,1,t1.png,t5.png,4,9.55E-11,61,Male,2020-11-16_16h38.54.805,torte-q,2020.1.3,Win32,60,13311,,,,,,,,,,,,,,,,,,,,,,,,,,,,,,,,,,,,,,,,,,,,
,,,,,,,,,,,,l,1.0577,Incorrect,0,66,66,34,1,t5.png,t4.png,1,0.9,61,Male,2020-11-16_16h38.54.805,torte-q,2020.1.3,Win32,60,13311,,,,,,,,,,,,,,,,,,,,,,,,,,,,,,,,,,,,,,,,,,,,
,,,,,,,,,,,,l,1.136095,Incorrect,0,67,67,114,1,t2.png,t3.png,1,0.90855,61,Male,2020-11-16_16h38.54.805,torte-q,2020.1.3,Win32,60,13311,,,,,,,,,,,,,,,,,,,,,,,,,,,,,,,,,,,,,,,,,,,,
,,,,,,,,,,,,a,1.085545,Incorrect,0,68,68,32,1,t4.png,t5.png,1,0.90025,61,Male,2020-11-16_16h38.54.805,torte-q,2020.1.3,Win32,60,13311,,,,,,,,,,,,,,,,,,,,,,,,,,,,,,,,,,,,,,,,,,,,
,,,,,,,,,,,,a,0.9024,Correct!,0,69,69,100,1,t4.png,t5.png,1,0.90025,61,Male,2020-11-16_16h38.54.805,torte-q,2020.1.3,Win32,60,13311,,,,,,,,,,,,,,,,,,,,,,,,,,,,,,,,,,,,,,,,,,,,
,,,,,,,,,,,,a,1.323705,Incorrect,0,70,70,19,1,t4.png,t2.png,2,0.059078,61,Male,2020-11-16_16h38.54.805,torte-q,2020.1.3,Win32,60,13311,,,,,,,,,,,,,,,,,,,,,,,,,,,,,,,,,,,,,,,,,,,,
,,,,,,,,,,,,l,0.85206,Incorrect,0,71,71,72,1,t4.png,t2.png,2,0.059078,61,Male,2020-11-16_16h38.54.805,torte-q,2020.1.3,Win32,60,13311,,,,,,,,,,,,,,,,,,,,,,,,,,,,,,,,,,,,,,,,,,,,
,,,,,,,,,,,,l,0.949795,Incorrect,0,72,72,20,1,t2.png,t3.png,1,0.90855,61,Male,2020-11-16_16h38.54.805,torte-q,2020.1.3,Win32,60,13311,,,,,,,,,,,,,,,,,,,,,,,,,,,,,,,,,,,,,,,,,,,,
,,,,,,,,,,,,a,0.68122,Incorrect,0,73,73,51,1,t3.png,t1.png,2,0.056466,61,Male,2020-11-16_16h38.54.805,torte-q,2020.1.3,Win32,60,13311,,,,,,,,,,,,,,,,,,,,,,,,,,,,,,,,,,,,,,,,,,,,
,,,,,,,,,,,,a,0.82996,Correct!,0,74,74,39,1,t3.png,t2.png,1,0.90855,61,Male,2020-11-16_16h38.54.805,torte-q,2020.1.3,Win32,60,13311,,,,,,,,,,,,,,,,,,,,,,,,,,,,,,,,,,,,,,,,,,,,
,,,,,,,,,,,,a,0.96871,Incorrect,0,75,75,4,1,t1.png,t5.png,4,9.55E-11,61,Male,2020-11-16_16h38.54.805,torte-q,2020.1.3,Win32,60,13311,,,,,,,,,,,,,,,,,,,,,,,,,,,,,,,,,,,,,,,,,,,,
,,,,,,,,,,,,l,0.56065,Incorrect,0,76,76,110,1,t4.png,t5.png,1,0.90025,61,Male,2020-11-16_16h38.54.805,torte-q,2020.1.3,Win32,60,13311,,,,,,,,,,,,,,,,,,,,,,,,,,,,,,,,,,,,,,,,,,,,
,,,,,,,,,,,,a,0.872265,Correct!,0,77,77,18,1,t4.png,t5.png,1,0.90025,61,Male,2020-11-16_16h38.54.805,torte-q,2020.1.3,Win32,60,13311,,,,,,,,,,,,,,,,,,,,,,,,,,,,,,,,,,,,,,,,,,,,
,,,,,,,,,,,,l,1.552615,Incorrect,0,78,78,84,1,t1.png,t1.png,0,0.97829,61,Male,2020-11-16_16h38.54.805,torte-q,2020.1.3,Win32,60,13311,,,,,,,,,,,,,,,,,,,,,,,,,,,,,,,,,,,,,,,,,,,,
,,,,,,,,,,,,a,1.617665,Correct!,0,79,79,79,1,t3.png,t2.png,1,0.909,61,Male,2020-11-16_16h38.54.805,torte-q,2020.1.3,Win32,60,13311,,,,,,,,,,,,,,,,,,,,,,,,,,,,,,,,,,,,,,,,,,,,
,,,,,,,,,,,,a,1.73485,Correct!,0,80,80,59,1,t5.png,t4.png,1,0.9,61,Male,2020-11-16_16h38.54.805,torte-q,2020.1.3,Win32,60,13311,,,,,,,,,,,,,,,,,,,,,,,,,,,,,,,,,,,,,,,,,,,,
,,,,,,,,,,,,a,1.55416,Incorrect,0,81,81,88,1,t3.png,t1.png,2,0.056466,61,Male,2020-11-16_16h38.54.805,torte-q,2020.1.3,Win32,60,13311,,,,,,,,,,,,,,,,,,,,,,,,,,,,,,,,,,,,,,,,,,,,
,,,,,,,,,,,,l,0.96783,Correct!,0,82,82,57,1,t2.png,t4.png,2,0.059078,61,Male,2020-11-16_16h38.54.805,torte-q,2020.1.3,Win32,60,13311,,,,,,,,,,,,,,,,,,,,,,,,,,,,,,,,,,,,,,,,,,,,
,,,,,,,,,,,,a,1.384875,Correct!,0,83,83,70,1,t5.png,t5.png,0,0.978,61,Male,2020-11-16_16h38.54.805,torte-q,2020.1.3,Win32,60,13311,,,,,,,,,,,,,,,,,,,,,,,,,,,,,,,,,,,,,,,,,,,,
,,,,,,,,,,,,a,1.440665,Incorrect,0,84,84,47,1,t4.png,t2.png,2,0.059078,61,Male,2020-11-16_16h38.54.805,torte-q,2020.1.3,Win32,60,13311,,,,,,,,,,,,,,,,,,,,,,,,,,,,,,,,,,,,,,,,,,,,
,,,,,,,,,,,,l,1.618065,Incorrect,0,85,85,41,1,t3.png,t2.png,1,0.90855,61,Male,2020-11-16_16h38.54.805,torte-q,2020.1.3,Win32,60,13311,,,,,,,,,,,,,,,,,,,,,,,,,,,,,,,,,,,,,,,,,,,,
,,,,,,,,,,,,a,1.1533,Correct!,0,86,86,21,1,t5.png,t4.png,1,0.90025,61,Male,2020-11-16_16h38.54.805,torte-q,2020.1.3,Win32,60,13311,,,,,,,,,,,,,,,,,,,,,,,,,,,,,,,,,,,,,,,,,,,,
,,,,,,,,,,,,l,1.63521,Incorrect,0,87,87,104,1,t2.png,t3.png,1,0.90855,61,Male,2020-11-16_16h38.54.805,torte-q,2020.1.3,Win32,60,13311,,,,,,,,,,,,,,,,,,,,,,,,,,,,,,,,,,,,,,,,,,,,
,,,,,,,,,,,,a,1.31678,Incorrect,0,88,88,12,1,t5.png,t1.png,4,9.55E-11,61,Male,2020-11-16_16h38.54.805,torte-q,2020.1.3,Win32,60,13311,,,,,,,,,,,,,,,,,,,,,,,,,,,,,,,,,,,,,,,,,,,,
,,,,,,,,,,,,l,0.792115,Correct!,0,89,89,54,1,t1.png,t5.png,4,9.55E-11,61,Male,2020-11-16_16h38.54.805,torte-q,2020.1.3,Win32,60,13311,,,,,,,,,,,,,,,,,,,,,,,,,,,,,,,,,,,,,,,,,,,,
,,,,,,,,,,,,a,1.485225,Incorrect,0,90,90,13,1,t5.png,t5.png,0,0.97829,61,Male,2020-11-16_16h38.54.805,torte-q,2020.1.3,Win32,60,13311,,,,,,,,,,,,,,,,,,,,,,,,,,,,,,,,,,,,,,,,,,,,
,,,,,,,,,,,,a,0.8211,Correct!,0,91,91,76,1,t3.png,t2.png,1,0.90855,61,Male,2020-11-16_16h38.54.805,torte-q,2020.1.3,Win32,60,13311,,,,,,,,,,,,,,,,,,,,,,,,,,,,,,,,,,,,,,,,,,,,
,,,,,,,,,,,,l,1.29971,Incorrect,0,92,92,22,1,t2.png,t3.png,1,0.90855,61,Male,2020-11-16_16h38.54.805,torte-q,2020.1.3,Win32,60,13311,,,,,,,,,,,,,,,,,,,,,,,,,,,,,,,,,,,,,,,,,,,,
,,,,,,,,,,,,a,0.626565,Correct!,0,93,93,118,1,t5.png,t5.png,0,0.978,61,Male,2020-11-16_16h38.54.805,torte-q,2020.1.3,Win32,60,13311,,,,,,,,,,,,,,,,,,,,,,,,,,,,,,,,,,,,,,,,,,,,
,,,,,,,,,,,,a,0.950855,Correct!,0,94,94,71,1,t5.png,t5.png,0,0.97829,61,Male,2020-11-16_16h38.54.805,torte-q,2020.1.3,Win32,60,13311,,,,,,,,,,,,,,,,,,,,,,,,,,,,,,,,,,,,,,,,,,,,
,,,,,,,,,,,,a,0.76454,Correct!,0,95,95,48,1,t5.png,t5.png,0,0.97829,61,Male,2020-11-16_16h38.54.805,torte-q,2020.1.3,Win32,60,13311,,,,,,,,,,,,,,,,,,,,,,,,,,,,,,,,,,,,,,,,,,,,
,,,,,,,,,,,,l,1.825525,Incorrect,0,96,96,95,1,t1.png,t1.png,0,0.978,61,Male,2020-11-16_16h38.54.805,torte-q,2020.1.3,Win32,60,13311,,,,,,,,,,,,,,,,,,,,,,,,,,,,,,,,,,,,,,,,,,,,
,,,,,,,,,,,,l,1.693225,Correct!,0,97,97,55,1,t2.png,t4.png,2,0.059078,61,Male,2020-11-16_16h38.54.805,torte-q,2020.1.3,Win32,60,13311,,,,,,,,,,,,,,,,,,,,,,,,,,,,,,,,,,,,,,,,,,,,
,,,,,,,,,,,,a,1.04751,Correct!,0,98,98,78,1,t1.png,t1.png,0,0.978,61,Male,2020-11-16_16h38.54.805,torte-q,2020.1.3,Win32,60,13311,,,,,,,,,,,,,,,,,,,,,,,,,,,,,,,,,,,,,,,,,,,,
,,,,,,,,,,,,a,1.682475,Correct!,0,99,99,105,1,t3.png,t2.png,1,0.90855,61,Male,2020-11-16_16h38.54.805,torte-q,2020.1.3,Win32,60,13311,,,,,,,,,,,,,,,,,,,,,,,,,,,,,,,,,,,,,,,,,,,,
,,,,,,,,,,,,l,1.18309,Correct!,0,100,100,17,1,t1.png,t4.png,3,0.0000131,61,Male,2020-11-16_16h38.54.805,torte-q,2020.1.3,Win32,60,13311,,,,,,,,,,,,,,,,,,,,,,,,,,,,,,,,,,,,,,,,,,,,
,,,,,,,,,,,,a,2.25278,Incorrect,0,101,101,87,1,t5.png,t1.png,4,9.55E-11,61,Male,2020-11-16_16h38.54.805,torte-q,2020.1.3,Win32,60,13311,,,,,,,,,,,,,,,,,,,,,,,,,,,,,,,,,,,,,,,,,,,,
,,,,,,,,,,,,l,0.61589,Incorrect,0,102,102,109,1,t5.png,t5.png,0,0.97829,61,Male,2020-11-16_16h38.54.805,torte-q,2020.1.3,Win32,60,13311,,,,,,,,,,,,,,,,,,,,,,,,,,,,,,,,,,,,,,,,,,,,
,,,,,,,,,,,,l,1.11651,Correct!,0,103,103,52,1,t2.png,t4.png,2,0.059078,61,Male,2020-11-16_16h38.54.805,torte-q,2020.1.3,Win32,60,13311,,,,,,,,,,,,,,,,,,,,,,,,,,,,,,,,,,,,,,,,,,,,
,,,,,,,,,,,,l,1.81577,Correct!,0,104,104,98,1,t2.png,t4.png,2,0.0591,61,Male,2020-11-16_16h38.54.805,torte-q,2020.1.3,Win32,60,13311,,,,,,,,,,,,,,,,,,,,,,,,,,,,,,,,,,,,,,,,,,,,
,,,,,,,,,,,,a,1.53201,Correct!,0,105,105,23,1,t5.png,t4.png,1,0.90025,61,Male,2020-11-16_16h38.54.805,torte-q,2020.1.3,Win32,60,13311,,,,,,,,,,,,,,,,,,,,,,,,,,,,,,,,,,,,,,,,,,,,
,,,,,,,,,,,,a,2.08339,Incorrect,0,106,106,0,1,t5.png,t1.png,4,9.55E-11,61,Male,2020-11-16_16h38.54.805,torte-q,2020.1.3,Win32,60,13311,,,,,,,,,,,,,,,,,,,,,,,,,,,,,,,,,,,,,,,,,,,,
,,,,,,,,,,,,a,1.40226,Correct!,0,107,107,62,1,t5.png,t5.png,0,0.978,61,Male,2020-11-16_16h38.54.805,torte-q,2020.1.3,Win32,60,13311,,,,,,,,,,,,,,,,,,,,,,,,,,,,,,,,,,,,,,,,,,,,
,,,,,,,,,,,,l,1.179905,Correct!,0,108,108,14,1,t2.png,t4.png,2,0.059078,61,Male,2020-11-16_16h38.54.805,torte-q,2020.1.3,Win32,60,13311,,,,,,,,,,,,,,,,,,,,,,,,,,,,,,,,,,,,,,,,,,,,
,,,,,,,,,,,,a,1.70565,Correct!,0,109,109,116,1,t5.png,t4.png,1,0.90025,61,Male,2020-11-16_16h38.54.805,torte-q,2020.1.3,Win32,60,13311,,,,,,,,,,,,,,,,,,,,,,,,,,,,,,,,,,,,,,,,,,,,
,,,,,,,,,,,,l,1.4821,Correct!,0,110,110,111,1,t5.png,t1.png,4,9.55E-11,61,Male,2020-11-16_16h38.54.805,torte-q,2020.1.3,Win32,60,13311,,,,,,,,,,,,,,,,,,,,,,,,,,,,,,,,,,,,,,,,,,,,
,,,,,,,,,,,,l,0.7356,Correct!,0,111,111,94,1,t5.png,t1.png,4,9.55E-11,61,Male,2020-11-16_16h38.54.805,torte-q,2020.1.3,Win32,60,13311,,,,,,,,,,,,,,,,,,,,,,,,,,,,,,,,,,,,,,,,,,,,
,,,,,,,,,,,,a,1.019925,Incorrect,0,112,112,99,1,t1.png,t5.png,4,9.55E-11,61,Male,2020-11-16_16h38.54.805,torte-q,2020.1.3,Win32,60,13311,,,,,,,,,,,,,,,,,,,,,,,,,,,,,,,,,,,,,,,,,,,,
,,,,,,,,,,,,l,0.649695,Correct!,0,113,113,40,1,t1.png,t5.png,4,9.55E-11,61,Male,2020-11-16_16h38.54.805,torte-q,2020.1.3,Win32,60,13311,,,,,,,,,,,,,,,,,,,,,,,,,,,,,,,,,,,,,,,,,,,,
,,,,,,,,,,,,a,1.66277,Incorrect,0,114,114,83,1,t3.png,t1.png,2,0.056466,61,Male,2020-11-16_16h38.54.805,torte-q,2020.1.3,Win32,60,13311,,,,,,,,,,,,,,,,,,,,,,,,,,,,,,,,,,,,,,,,,,,,
,,,,,,,,,,,,l,1.364795,Correct!,0,115,115,73,1,t4.png,t2.png,2,0.059078,61,Male,2020-11-16_16h38.54.805,torte-q,2020.1.3,Win32,60,13311,,,,,,,,,,,,,,,,,,,,,,,,,,,,,,,,,,,,,,,,,,,,
,,,,,,,,,,,,l,1.8819,Incorrect,0,116,116,97,1,t5.png,t5.png,0,0.97829,61,Male,2020-11-16_16h38.54.805,torte-q,2020.1.3,Win32,60,13311,,,,,,,,,,,,,,,,,,,,,,,,,,,,,,,,,,,,,,,,,,,,
,,,,,,,,,,,,l,1.88113,Correct!,0,117,117,61,1,t1.png,t4.png,3,0.0000131,61,Male,2020-11-16_16h38.54.805,torte-q,2020.1.3,Win32,60,13311,,,,,,,,,,,,,,,,,,,,,,,,,,,,,,,,,,,,,,,,,,,,
,,,,,,,,,,,,a,1.03445,Correct!,0,118,118,44,1,t2.png,t3.png,1,0.909,61,Male,2020-11-16_16h38.54.805,torte-q,2020.1.3,Win32,60,13311,,,,,,,,,,,,,,,,,,,,,,,,,,,,,,,,,,,,,,,,,,,,
,,,,,,,,,,,,l,1.62491,Correct!,0,119,119,37,1,t1.png,t4.png,3,0.0000131,61,Male,2020-11-16_16h38.54.805,torte-q,2020.1.3,Win32,60,13311,,,,,,,,,,,,,,,,,,,,,,,,,,,,,,,,,,,,,,,,,,,,
,,,,,,,,,,,,a,0.906695,Incorrect,,,,,,t1.png,t4.png,3,0.0000131,61,Male,2020-11-16_16h38.54.805,torte-q,2020.1.3,Win32,60,13311,space,3.385155,space,9.951005,0,0,0,107,1,,,,,,,,,,,,,,,,,,,,,,,,,,,,,,,,,,,
,,,,,,,,,,,,a,1.417855,Correct!,,,,,,t3.png,t2.png,1,0.90855,61,Male,2020-11-16_16h38.54.805,torte-q,2020.1.3,Win32,60,13311,,,,,0,1,1,18,1,,,,,,,,,,,,,,,,,,,,,,,,,,,,,,,,,,,
,,,,,,,,,,,,l,1.21792,Incorrect,,,,,,t2.png,t1.png,1,0.90025,61,Male,2020-11-16_16h38.54.805,torte-q,2020.1.3,Win32,60,13311,,,,,0,2,2,19,1,,,,,,,,,,,,,,,,,,,,,,,,,,,,,,,,,,,
,,,,,,,,,,,,a,1.168465,Correct!,,,,,,t3.png,t2.png,1,0.909,61,Male,2020-11-16_16h38.54.805,torte-q,2020.1.3,Win32,60,13311,,,,,0,3,3,3,1,,,,,,,,,,,,,,,,,,,,,,,,,,,,,,,,,,,
,,,,,,,,,,,,l,1.441195,Incorrect,,,,,,t2.png,t3.png,1,0.90855,61,Male,2020-11-16_16h38.54.805,torte-q,2020.1.3,Win32,60,13311,,,,,0,4,4,111,1,,,,,,,,,,,,,,,,,,,,,,,,,,,,,,,,,,,
,,,,,,,,,,,,a,1.11822,Incorrect,,,,,,t4.png,t2.png,2,0.059078,61,Male,2020-11-16_16h38.54.805,torte-q,2020.1.3,Win32,60,13311,,,,,0,5,5,86,1,,,,,,,,,,,,,,,,,,,,,,,,,,,,,,,,,,,
,,,,,,,,,,,,a,0.853075,Incorrect,,,,,,t4.png,t2.png,2,0.059078,61,Male,2020-11-16_16h38.54.805,torte-q,2020.1.3,Win32,60,13311,,,,,0,6,6,88,1,,,,,,,,,,,,,,,,,,,,,,,,,,,,,,,,,,,
,,,,,,,,,,,,l,1.465795,Correct!,,,,,,t5.png,t3.png,2,0.056466,61,Male,2020-11-16_16h38.54.805,torte-q,2020.1.3,Win32,60,13311,,,,,0,7,7,114,1,,,,,,,,,,,,,,,,,,,,,,,,,,,,,,,,,,,
,,,,,,,,,,,,l,1.73283,Incorrect,,,,,,t4.png,t5.png,1,0.90025,61,Male,2020-11-16_16h38.54.805,torte-q,2020.1.3,Win32,60,13311,,,,,0,8,8,47,1,,,,,,,,,,,,,,,,,,,,,,,,,,,,,,,,,,,
,,,,,,,,,,,,a,0.932235,Correct!,,,,,,t4.png,t3.png,1,0.909,61,Male,2020-11-16_16h38.54.805,torte-q,2020.1.3,Win32,60,13311,,,,,0,9,9,20,1,,,,,,,,,,,,,,,,,,,,,,,,,,,,,,,,,,,
,,,,,,,,,,,,a,1.58008,Correct!,,,,,,t1.png,t2.png,1,0.90025,61,Male,2020-11-16_16h38.54.805,torte-q,2020.1.3,Win32,60,13311,,,,,0,10,10,105,1,,,,,,,,,,,,,,,,,,,,,,,,,,,,,,,,,,,
,,,,,,,,,,,,l,1.412835,Incorrect,,,,,,t5.png,t4.png,1,0.90025,61,Male,2020-11-16_16h38.54.805,torte-q,2020.1.3,Win32,60,13311,,,,,0,11,11,34,1,,,,,,,,,,,,,,,,,,,,,,,,,,,,,,,,,,,
,,,,,,,,,,,,l,1.636845,Correct!,,,,,,t1.png,t4.png,3,0.0000131,61,Male,2020-11-16_16h38.54.805,torte-q,2020.1.3,Win32,60,13311,,,,,0,12,12,92,1,,,,,,,,,,,,,,,,,,,,,,,,,,,,,,,,,,,
,,,,,,,,,,,,l,1.301425,Correct!,,,,,,t1.png,t5.png,4,9.55E-11,61,Male,2020-11-16_16h38.54.805,torte-q,2020.1.3,Win32,60,13311,,,,,0,13,13,16,1,,,,,,,,,,,,,,,,,,,,,,,,,,,,,,,,,,,
,,,,,,,,,,,,a,1.401685,Incorrect,,,,,,t5.png,t2.png,3,0.0000131,61,Male,2020-11-16_16h38.54.805,torte-q,2020.1.3,Win32,60,13311,,,,,0,14,14,51,1,,,,,,,,,,,,,,,,,,,,,,,,,,,,,,,,,,,
,,,,,,,,,,,,a,1.44501,Correct!,,,,,,t2.png,t1.png,1,0.90025,61,Male,2020-11-16_16h38.54.805,torte-q,2020.1.3,Win32,60,13311,,,,,0,15,15,5,1,,,,,,,,,,,,,,,,,,,,,,,,,,,,,,,,,,,
,,,,,,,,,,,,l,0.890155,Correct!,,,,,,t1.png,t3.png,2,0.056466,61,Male,2020-11-16_16h38.54.805,torte-q,2020.1.3,Win32,60,13311,,,,,0,16,16,60,1,,,,,,,,,,,,,,,,,,,,,,,,,,,,,,,,,,,
,,,,,,,,,,,,l,1.170015,Incorrect,,,,,,t2.png,t3.png,1,0.90855,61,Male,2020-11-16_16h38.54.805,torte-q,2020.1.3,Win32,60,13311,,,,,0,17,17,68,1,,,,,,,,,,,,,,,,,,,,,,,,,,,,,,,,,,,
,,,,,,,,,,,,a,1.77537,Correct!,,,,,,t4.png,t4.png,0,0.98115,61,Male,2020-11-16_16h38.54.805,torte-q,2020.1.3,Win32,60,13311,,,,,0,18,18,90,1,,,,,,,,,,,,,,,,,,,,,,,,,,,,,,,,,,,
,,,,,,,,,,,,l,1.464295,Correct!,,,,,,t2.png,t4.png,2,0.059078,61,Male,2020-11-16_16h38.54.805,torte-q,2020.1.3,Win32,60,13311,,,,,0,19,19,37,1,,,,,,,,,,,,,,,,,,,,,,,,,,,,,,,,,,,
,,,,,,,,,,,,l,1.36568,Correct!,,,,,,t2.png,t4.png,2,0.0591,61,Male,2020-11-16_16h38.54.805,torte-q,2020.1.3,Win32,60,13311,,,,,0,20,20,15,1,,,,,,,,,,,,,,,,,,,,,,,,,,,,,,,,,,,
,,,,,,,,,,,,l,1.368225,Correct!,,,,,,t3.png,t5.png,2,0.056466,61,Male,2020-11-16_16h38.54.805,torte-q,2020.1.3,Win32,60,13311,,,,,0,21,21,6,1,,,,,,,,,,,,,,,,,,,,,,,,,,,,,,,,,,,
,,,,,,,,,,,,a,0.702245,Incorrect,,,,,,t5.png,t2.png,3,0.0000131,61,Male,2020-11-16_16h38.54.805,torte-q,2020.1.3,Win32,60,13311,,,,,0,22,22,98,1,,,,,,,,,,,,,,,,,,,,,,,,,,,,,,,,,,,
,,,,,,,,,,,,a,0.885565,Incorrect,,,,,,t4.png,t1.png,3,0.0000131,61,Male,2020-11-16_16h38.54.805,torte-q,2020.1.3,Win32,60,13311,,,,,0,23,23,48,1,,,,,,,,,,,,,,,,,,,,,,,,,,,,,,,,,,,
,,,,,,,,,,,,a,1.07384,Incorrect,,,,,,t5.png,t3.png,2,0.0565,61,Male,2020-11-16_16h38.54.805,torte-q,2020.1.3,Win32,60,13311,,,,,0,24,24,39,1,,,,,,,,,,,,,,,,,,,,,,,,,,,,,,,,,,,
,,,,,,,,,,,,l,0.68194,Incorrect,,,,,,t2.png,t4.png,2,0.059078,61,Male,2020-11-16_16h38.54.805,torte-q,2020.1.3,Win32,60,13311,,,,,0,25,25,24,1,,,,,,,,,,,,,,,,,,,,,,,,,,,,,,,,,,,
,,,,,,,,,,,,l,0.6066,Correct!,,,,,,t1.png,t5.png,4,9.55E-11,61,Male,2020-11-16_16h38.54.805,torte-q,2020.1.3,Win32,60,13311,,,,,0,26,26,12,1,,,,,,,,,,,,,,,,,,,,,,,,,,,,,,,,,,,
,,,,,,,,,,,,l,1.519355,Incorrect,,,,,,t2.png,t3.png,1,0.909,61,Male,2020-11-16_16h38.54.805,torte-q,2020.1.3,Win32,60,13311,,,,,0,27,27,74,1,,,,,,,,,,,,,,,,,,,,,,,,,,,,,,,,,,,
,,,,,,,,,,,,l,1.13133,Incorrect,,,,,,t1.png,t2.png,1,0.90025,61,Male,2020-11-16_16h38.54.805,torte-q,2020.1.3,Win32,60,13311,,,,,0,28,28,112,1,,,,,,,,,,,,,,,,,,,,,,,,,,,,,,,,,,,
,,,,,,,,,,,,l,0.81612,Correct!,,,,,,t1.png,t5.png,4,9.55E-11,61,Male,2020-11-16_16h38.54.805,torte-q,2020.1.3,Win32,60,13311,,,,,0,29,29,85,1,,,,,,,,,,,,,,,,,,,,,,,,,,,,,,,,,,,
,,,,,,,,,,,,l,1.736325,Incorrect,,,,,,t3.png,t4.png,1,0.90855,61,Male,2020-11-16_16h38.54.805,torte-q,2020.1.3,Win32,60,13311,,,,,0,30,30,96,1,,,,,,,,,,,,,,,,,,,,,,,,,,,,,,,,,,,
,,,,,,,,,,,,l,0.90292,Correct!,,,,,,t1.png,t4.png,3,0.0000131,61,Male,2020-11-16_16h38.54.805,torte-q,2020.1.3,Win32,60,13311,,,,,0,31,31,50,1,,,,,,,,,,,,,,,,,,,,,,,,,,,,,,,,,,,
,,,,,,,,,,,,l,1.352,Incorrect,,,,,,t4.png,t5.png,1,0.9,61,Male,2020-11-16_16h38.54.805,torte-q,2020.1.3,Win32,60,13311,,,,,0,32,32,115,1,,,,,,,,,,,,,,,,,,,,,,,,,,,,,,,,,,,
,,,,,,,,,,,,a,0.97014,Incorrect,,,,,,t3.png,t1.png,2,0.056466,61,Male,2020-11-16_16h38.54.805,torte-q,2020.1.3,Win32,60,13311,,,,,0,33,33,32,1,,,,,,,,,,,,,,,,,,,,,,,,,,,,,,,,,,,
,,,,,,,,,,,,a,0.940385,Correct!,,,,,,t4.png,t3.png,1,0.909,61,Male,2020-11-16_16h38.54.805,torte-q,2020.1.3,Win32,60,13311,,,,,0,34,34,46,1,,,,,,,,,,,,,,,,,,,,,,,,,,,,,,,,,,,
,,,,,,,,,,,,l,1.407135,Incorrect,,,,,,t2.png,t2.png,0,0.98115,61,Male,2020-11-16_16h38.54.805,torte-q,2020.1.3,Win32,60,13311,,,,,0,35,35,57,1,,,,,,,,,,,,,,,,,,,,,,,,,,,,,,,,,,,
,,,,,,,,,,,,l,0.99889,Incorrect,,,,,,t3.png,t4.png,1,0.90855,61,Male,2020-11-16_16h38.54.805,torte-q,2020.1.3,Win32,60,13311,,,,,0,36,36,84,1,,,,,,,,,,,,,,,,,,,,,,,,,,,,,,,,,,,
,,,,,,,,,,,,a,0.652415,Incorrect,,,,,,t4.png,t2.png,2,0.059078,61,Male,2020-11-16_16h38.54.805,torte-q,2020.1.3,Win32,60,13311,,,,,0,37,37,110,1,,,,,,,,,,,,,,,,,,,,,,,,,,,,,,,,,,,
,,,,,,,,,,,,a,1.40001,Correct!,,,,,,t5.png,t5.png,0,0.97829,61,Male,2020-11-16_16h38.54.805,torte-q,2020.1.3,Win32,60,13311,,,,,0,38,38,25,1,,,,,,,,,,,,,,,,,,,,,,,,,,,,,,,,,,,
,,,,,,,,,,,,l,1.0008,Correct!,,,,,,t1.png,t3.png,2,0.056466,61,Male,2020-11-16_16h38.54.805,torte-q,2020.1.3,Win32,60,13311,,,,,0,39,39,63,1,,,,,,,,,,,,,,,,,,,,,,,,,,,,,,,,,,,
,,,,,,,,,,,,l,1.485775,Incorrect,,,,,,t4.png,t5.png,1,0.90025,61,Male,2020-11-16_16h38.54.805,torte-q,2020.1.3,Win32,60,13311,,,,,0,40,40,103,1,,,,,,,,,,,,,,,,,,,,,,,,,,,,,,,,,,,
,,,,,,,,,,,,l,1.253995,Incorrect,,,,,,t2.png,t3.png,1,0.90855,61,Male,2020-11-16_16h38.54.805,torte-q,2020.1.3,Win32,60,13311,,,,,0,41,41,10,1,,,,,,,,,,,,,,,,,,,,,,,,,,,,,,,,,,,
,,,,,,,,,,,,l,0.808785,Correct!,,,,,,t2.png,t5.png,3,0.0000131,61,Male,2020-11-16_16h38.54.805,torte-q,2020.1.3,Win32,60,13311,,,,,0,42,42,40,1,,,,,,,,,,,,,,,,,,,,,,,,,,,,,,,,,,,
,,,,,,,,,,,,l,0.67671,Correct!,,,,,,t1.png,t5.png,4,9.55E-11,61,Male,2020-11-16_16h38.54.805,torte-q,2020.1.3,Win32,60,13311,,,,,0,43,43,55,1,,,,,,,,,,,,,,,,,,,,,,,,,,,,,,,,,,,
,,,,,,,,,,,,l,1.218135,Correct!,,,,,,t2.png,t4.png,2,0.059078,61,Male,2020-11-16_16h38.54.805,torte-q,2020.1.3,Win32,60,13311,,,,,0,44,44,11,1,,,,,,,,,,,,,,,,,,,,,,,,,,,,,,,,,,,
,,,,,,,,,,,,l,0.68954,Correct!,,,,,,t1.png,t4.png,3,0.0000131,61,Male,2020-11-16_16h38.54.805,torte-q,2020.1.3,Win32,60,13311,,,,,0,45,45,81,1,,,,,,,,,,,,,,,,,,,,,,,,,,,,,,,,,,,
,,,,,,,,,,,,a,0.71636,Correct!,,,,,,t4.png,t3.png,1,0.90855,61,Male,2020-11-16_16h38.54.805,torte-q,2020.1.3,Win32,60,13311,,,,,0,46,46,75,1,,,,,,,,,,,,,,,,,,,,,,,,,,,,,,,,,,,
,,,,,,,,,,,,a,0.67036,Incorrect,,,,,,t5.png,t1.png,4,9.55E-11,61,Male,2020-11-16_16h38.54.805,torte-q,2020.1.3,Win32,60,13311,,,,,0,47,47,100,1,,,,,,,,,,,,,,,,,,,,,,,,,,,,,,,,,,,
,,,,,,,,,,,,a,0.91809,Correct!,,,,,,t5.png,t4.png,1,0.90025,61,Male,2020-11-16_16h38.54.805,torte-q,2020.1.3,Win32,60,13311,,,,,0,48,48,26,1,,,,,,,,,,,,,,,,,,,,,,,,,,,,,,,,,,,
,,,,,,,,,,,,a,0.845715,Correct!,,,,,,t5.png,t4.png,1,0.90025,61,Male,2020-11-16_16h38.54.805,torte-q,2020.1.3,Win32,60,13311,,,,,0,49,49,27,1,,,,,,,,,,,,,,,,,,,,,,,,,,,,,,,,,,,
,,,,,,,,,,,,a,0.9309,Correct!,,,,,,t3.png,t2.png,1,0.909,61,Male,2020-11-16_16h38.54.805,torte-q,2020.1.3,Win32,60,13311,,,,,0,50,50,23,1,,,,,,,,,,,,,,,,,,,,,,,,,,,,,,,,,,,
,,,,,,,,,,,,a,0.96858,Correct!,,,,,,t3.png,t4.png,1,0.909,61,Male,2020-11-16_16h38.54.805,torte-q,2020.1.3,Win32,60,13311,,,,,0,51,51,82,1,,,,,,,,,,,,,,,,,,,,,,,,,,,,,,,,,,,
,,,,,,,,,,,,a,0.766235,Incorrect,,,,,,t4.png,t1.png,3,0.0000131,61,Male,2020-11-16_16h38.54.805,torte-q,2020.1.3,Win32,60,13311,,,,,0,52,52,93,1,,,,,,,,,,,,,,,,,,,,,,,,,,,,,,,,,,,
,,,,,,,,,,,,a,0.6199,Incorrect,,,,,,t5.png,t3.png,2,0.056466,61,Male,2020-11-16_16h38.54.805,torte-q,2020.1.3,Win32,60,13311,,,,,0,53,53,56,1,,,,,,,,,,,,,,,,,,,,,,,,,,,,,,,,,,,
,,,,,,,,,,,,l,0.70468,Correct!,,,,,,t1.png,t3.png,2,0.056466,61,Male,2020-11-16_16h38.54.805,torte-q,2020.1.3,Win32,60,13311,,,,,0,54,54,87,1,,,,,,,,,,,,,,,,,,,,,,,,,,,,,,,,,,,
,,,,,,,,,,,,a,1.25528,Correct!,,,,,,t5.png,t5.png,0,0.97829,61,Male,2020-11-16_16h38.54.805,torte-q,2020.1.3,Win32,60,13311,,,,,0,55,55,70,1,,,,,,,,,,,,,,,,,,,,,,,,,,,,,,,,,,,
,,,,,,,,,,,,l,1.09957,Incorrect,,,,,,t1.png,t1.png,0,0.97829,61,Male,2020-11-16_16h38.54.805,torte-q,2020.1.3,Win32,60,13311,,,,,0,56,56,67,1,,,,,,,,,,,,,,,,,,,,,,,,,,,,,,,,,,,
,,,,,,,,,,,,a,0.885355,Incorrect,,,,,,t4.png,t2.png,2,0.059078,61,Male,2020-11-16_16h38.54.805,torte-q,2020.1.3,Win32,60,13311,,,,,0,57,57,109,1,,,,,,,,,,,,,,,,,,,,,,,,,,,,,,,,,,,
,,,,,,,,,,,,l,1.13499,Incorrect,,,,,,t2.png,t2.png,0,0.98115,61,Male,2020-11-16_16h38.54.805,torte-q,2020.1.3,Win32,60,13311,,,,,0,58,58,2,1,,,,,,,,,,,,,,,,,,,,,,,,,,,,,,,,,,,
,,,,,,,,,,,,a,0.66938,Incorrect,,,,,,t3.png,t1.png,2,0.056466,61,Male,2020-11-16_16h38.54.805,torte-q,2020.1.3,Win32,60,13311,,,,,0,59,59,0,1,,,,,,,,,,,,,,,,,,,,,,,,,,,,,,,,,,,
,,,,,,,,,,,,l,0.750425,Correct!,,,,,,t3.png,t5.png,2,0.056466,61,Male,2020-11-16_16h38.54.805,torte-q,2020.1.3,Win32,60,13311,,,,,0,60,60,44,1,,,,,,,,,,,,,,,,,,,,,,,,,,,,,,,,,,,
,,,,,,,,,,,,a,0.616355,Incorrect,,,,,,t3.png,t1.png,2,0.056466,61,Male,2020-11-16_16h38.54.805,torte-q,2020.1.3,Win32,60,13311,,,,,0,61,61,29,1,,,,,,,,,,,,,,,,,,,,,,,,,,,,,,,,,,,
,,,,,,,,,,,,l,0.64879,Correct!,,,,,,t2.png,t5.png,3,0.0000131,61,Male,2020-11-16_16h38.54.805,torte-q,2020.1.3,Win32,60,13311,,,,,0,62,62,8,1,,,,,,,,,,,,,,,,,,,,,,,,,,,,,,,,,,,
,,,,,,,,,,,,l,1.50387,Incorrect,,,,,,t4.png,t5.png,1,0.90025,61,Male,2020-11-16_16h38.54.805,torte-q,2020.1.3,Win32,60,13311,,,,,0,63,63,58,1,,,,,,,,,,,,,,,,,,,,,,,,,,,,,,,,,,,
,,,,,,,,,,,,l,1.015085,Incorrect,,,,,,t1.png,t1.png,0,0.978,61,Male,2020-11-16_16h38.54.805,torte-q,2020.1.3,Win32,60,13311,,,,,0,64,64,54,1,,,,,,,,,,,,,,,,,,,,,,,,,,,,,,,,,,,
,,,,,,,,,,,,a,0.602055,Correct!,,,,,,t5.png,t3.png,2,0.056466,61,Male,2020-11-16_16h38.54.805,torte-q,2020.1.3,Win32,60,13311,,,,,0,65,65,108,1,,,,,,,,,,,,,,,,,,,,,,,,,,,,,,,,,,,
,,,,,,,,,,,,l,0.757935,Incorrect,,,,,,t1.png,t2.png,1,0.90025,61,Male,2020-11-16_16h38.54.805,torte-q,2020.1.3,Win32,60,13311,,,,,0,66,66,72,1,,,,,,,,,,,,,,,,,,,,,,,,,,,,,,,,,,,
,,,,,,,,,,,,a,0.63363,Correct!,,,,,,t2.png,t1.png,1,0.90025,61,Male,2020-11-16_16h38.54.805,torte-q,2020.1.3,Win32,60,13311,,,,,0,67,67,62,1,,,,,,,,,,,,,,,,,,,,,,,,,,,,,,,,,,,
,,,,,,,,,,,,a,0.64946,Correct!,,,,,,t3.png,t2.png,1,0.90855,61,Male,2020-11-16_16h38.54.805,torte-q,2020.1.3,Win32,60,13311,,,,,0,68,68,97,1,,,,,,,,,,,,,,,,,,,,,,,,,,,,,,,,,,,
,,,,,,,,,,,,a,0.61308,Incorrect,,,,,,t4.png,t2.png,2,0.0591,61,Male,2020-11-16_16h38.54.805,torte-q,2020.1.3,Win32,60,13311,,,,,0,69,69,36,1,,,,,,,,,,,,,,,,,,,,,,,,,,,,,,,,,,,
,,,,,,,,,,,,l,0.668205,Correct!,,,,,,t3.png,t5.png,2,0.0565,61,Male,2020-11-16_16h38.54.805,torte-q,2020.1.3,Win32,60,13311,,,,,0,70,70,83,1,,,,,,,,,,,,,,,,,,,,,,,,,,,,,,,,,,,
,,,,,,,,,,,,a,0.583605,Incorrect,,,,,,t5.png,t2.png,3,0.0000131,61,Male,2020-11-16_16h38.54.805,torte-q,2020.1.3,Win32,60,13311,,,,,0,71,71,116,1,,,,,,,,,,,,,,,,,,,,,,,,,,,,,,,,,,,
,,,,,,,,,,,,l,0.56348,Correct!,,,,,,t2.png,t5.png,3,0.0000131,61,Male,2020-11-16_16h38.54.805,torte-q,2020.1.3,Win32,60,13311,,,,,0,72,72,66,1,,,,,,,,,,,,,,,,,,,,,,,,,,,,,,,,,,,
,,,,,,,,,,,,a,0.717445,Correct!,,,,,,t2.png,t1.png,1,0.90025,61,Male,2020-11-16_16h38.54.805,torte-q,2020.1.3,Win32,60,13311,,,,,0,73,73,4,1,,,,,,,,,,,,,,,,,,,,,,,,,,,,,,,,,,,
,,,,,,,,,,,,a,0.632445,Correct!,,,,,,t3.png,t2.png,1,0.90855,61,Male,2020-11-16_16h38.54.805,torte-q,2020.1.3,Win32,60,13311,,,,,0,74,74,53,1,,,,,,,,,,,,,,,,,,,,,,,,,,,,,,,,,,,
,,,,,,,,,,,,a,0.569625,Incorrect,,,,,,t5.png,t1.png,4,9.55E-11,61,Male,2020-11-16_16h38.54.805,torte-q,2020.1.3,Win32,60,13311,,,,,0,75,75,43,1,,,,,,,,,,,,,,,,,,,,,,,,,,,,,,,,,,,
,,,,,,,,,,,,a,0.55111,Correct!,,,,,,t4.png,t4.png,0,0.98115,61,Male,2020-11-16_16h38.54.805,torte-q,2020.1.3,Win32,60,13311,,,,,0,76,76,52,1,,,,,,,,,,,,,,,,,,,,,,,,,,,,,,,,,,,
,,,,,,,,,,,,l,0.61647,Correct!,,,,,,t1.png,t3.png,2,0.056466,61,Male,2020-11-16_16h38.54.805,torte-q,2020.1.3,Win32,60,13311,,,,,0,77,77,99,1,,,,,,,,,,,,,,,,,,,,,,,,,,,,,,,,,,,
,,,,,,,,,,,,l,0.871725,Incorrect,,,,,,t1.png,t1.png,0,0.978,61,Male,2020-11-16_16h38.54.805,torte-q,2020.1.3,Win32,60,13311,,,,,0,78,78,28,1,,,,,,,,,,,,,,,,,,,,,,,,,,,,,,,,,,,
,,,,,,,,,,,,l,0.631905,Incorrect,,,,,,t3.png,t4.png,1,0.909,61,Male,2020-11-16_16h38.54.805,torte-q,2020.1.3,Win32,60,13311,,,,,0,79,79,89,1,,,,,,,,,,,,,,,,,,,,,,,,,,,,,,,,,,,
,,,,,,,,,,,,a,1.11512,Correct!,,,,,,t5.png,t5.png,0,0.978,61,Male,2020-11-16_16h38.54.805,torte-q,2020.1.3,Win32,60,13311,,,,,0,80,80,117,1,,,,,,,,,,,,,,,,,,,,,,,,,,,,,,,,,,,
,,,,,,,,,,,,l,0.679025,Correct!,,,,,,t2.png,t5.png,3,0.0000131,61,Male,2020-11-16_16h38.54.805,torte-q,2020.1.3,Win32,60,13311,,,,,0,81,81,95,1,,,,,,,,,,,,,,,,,,,,,,,,,,,,,,,,,,,
,,,,,,,,,,,,a,0.63966,Incorrect,,,,,,t4.png,t1.png,3,0.0000131,61,Male,2020-11-16_16h38.54.805,torte-q,2020.1.3,Win32,60,13311,,,,,0,82,82,42,1,,,,,,,,,,,,,,,,,,,,,,,,,,,,,,,,,,,
,,,,,,,,,,,,a,1.0787,Incorrect,,,,,,t5.png,t1.png,4,9.55E-11,61,Male,2020-11-16_16h38.54.805,torte-q,2020.1.3,Win32,60,13311,,,,,0,83,83,71,1,,,,,,,,,,,,,,,,,,,,,,,,,,,,,,,,,,,
,,,,,,,,,,,,a,1.074665,Correct!,,,,,,t2.png,t1.png,1,0.9,61,Male,2020-11-16_16h38.54.805,torte-q,2020.1.3,Win32,60,13311,,,,,0,84,84,118,1,,,,,,,,,,,,,,,,,,,,,,,,,,,,,,,,,,,
,,,,,,,,,,,,a,0.949955,Correct!,,,,,,t5.png,t5.png,0,0.97829,61,Male,2020-11-16_16h38.54.805,torte-q,2020.1.3,Win32,60,13311,,,,,0,85,85,73,1,,,,,,,,,,,,,,,,,,,,,,,,,,,,,,,,,,,
,,,,,,,,,,,,a,0.716185,Incorrect,,,,,,t4.png,t1.png,3,0.0000131,61,Male,2020-11-16_16h38.54.805,torte-q,2020.1.3,Win32,60,13311,,,,,0,86,86,61,1,,,,,,,,,,,,,,,,,,,,,,,,,,,,,,,,,,,
,,,,,,,,,,,,l,0.81444,Incorrect,,,,,,t5.png,t5.png,0,0.97829,61,Male,2020-11-16_16h38.54.805,torte-q,2020.1.3,Win32,60,13311,,,,,0,87,87,94,1,,,,,,,,,,,,,,,,,,,,,,,,,,,,,,,,,,,
,,,,,,,,,,,,l,0.704245,Correct!,,,,,,t1.png,t5.png,4,9.55E-11,61,Male,2020-11-16_16h38.54.805,torte-q,2020.1.3,Win32,60,13311,,,,,0,88,88,41,1,,,,,,,,,,,,,,,,,,,,,,,,,,,,,,,,,,,
,,,,,,,,,,,,l,0.968735,Correct!,,,,,,t3.png,t5.png,2,0.0565,61,Male,2020-11-16_16h38.54.805,torte-q,2020.1.3,Win32,60,13311,,,,,0,89,89,30,1,,,,,,,,,,,,,,,,,,,,,,,,,,,,,,,,,,,
,,,,,,,,,,,,l,1.006595,Incorrect,,,,,,t2.png,t2.png,0,0.98115,61,Male,2020-11-16_16h38.54.805,torte-q,2020.1.3,Win32,60,13311,,,,,0,90,90,7,1,,,,,,,,,,,,,,,,,,,,,,,,,,,,,,,,,,,
,,,,,,,,,,,,a,1.10634,Correct!,,,,,,t4.png,t4.png,0,0.98115,61,Male,2020-11-16_16h38.54.805,torte-q,2020.1.3,Win32,60,13311,,,,,0,91,91,79,1,,,,,,,,,,,,,,,,,,,,,,,,,,,,,,,,,,,
,,,,,,,,,,,,a,0.720685,Incorrect,,,,,,t5.png,t3.png,2,0.056466,61,Male,2020-11-16_16h38.54.805,torte-q,2020.1.3,Win32,60,13311,,,,,0,92,92,38,1,,,,,,,,,,,,,,,,,,,,,,,,,,,,,,,,,,,
,,,,,,,,,,,,a,0.669865,Incorrect,,,,,,t5.png,t2.png,3,0.0000131,61,Male,2020-11-16_16h38.54.805,torte-q,2020.1.3,Win32,60,13311,,,,,0,93,93,119,1,,,,,,,,,,,,,,,,,,,,,,,,,,,,,,,,,,,
,,,,,,,,,,,,l,0.853625,Incorrect,,,,,,t2.png,t2.png,0,0.98115,61,Male,2020-11-16_16h38.54.805,torte-q,2020.1.3,Win32,60,13311,,,,,0,94,94,59,1,,,,,,,,,,,,,,,,,,,,,,,,,,,,,,,,,,,
,,,,,,,,,,,,a,1.501925,Correct!,,,,,,t5.png,t4.png,1,0.9,61,Male,2020-11-16_16h38.54.805,torte-q,2020.1.3,Win32,60,13311,,,,,0,95,95,49,1,,,,,,,,,,,,,,,,,,,,,,,,,,,,,,,,,,,
,,,,,,,,,,,,l,0.70164,Correct!,,,,,,t1.png,t3.png,2,0.056466,61,Male,2020-11-16_16h38.54.805,torte-q,2020.1.3,Win32,60,13311,,,,,0,96,96,69,1,,,,,,,,,,,,,,,,,,,,,,,,,,,,,,,,,,,
,,,,,,,,,,,,l,0.64513,Incorrect,,,,,,t3.png,t4.png,1,0.909,61,Male,2020-11-16_16h38.54.805,torte-q,2020.1.3,Win32,60,13311,,,,,0,97,97,106,1,,,,,,,,,,,,,,,,,,,,,,,,,,,,,,,,,,,
,,,,,,,,,,,,l,0.56939,Correct!,,,,,,t3.png,t5.png,2,0.056466,61,Male,2020-11-16_16h38.54.805,torte-q,2020.1.3,Win32,60,13311,,,,,0,98,98,14,1,,,,,,,,,,,,,,,,,,,,,,,,,,,,,,,,,,,
,,,,,,,,,,,,l,0.699695,Incorrect,,,,,,t1.png,t2.png,1,0.9,61,Male,2020-11-16_16h38.54.805,torte-q,2020.1.3,Win32,60,13311,,,,,0,99,99,1,1,,,,,,,,,,,,,,,,,,,,,,,,,,,,,,,,,,,
,,,,,,,,,,,,a,0.61586,Incorrect,,,,,,t5.png,t1.png,4,9.55E-11,61,Male,2020-11-16_16h38.54.805,torte-q,2020.1.3,Win32,60,13311,,,,,0,100,100,102,1,,,,,,,,,,,,,,,,,,,,,,,,,,,,,,,,,,,
,,,,,,,,,,,,a,0.854125,Correct!,,,,,,t4.png,t4.png,0,0.98115,61,Male,2020-11-16_16h38.54.805,torte-q,2020.1.3,Win32,60,13311,,,,,0,101,101,80,1,,,,,,,,,,,,,,,,,,,,,,,,,,,,,,,,,,,
,,,,,,,,,,,,a,0.71932,Incorrect,,,,,,t3.png,t1.png,2,0.056466,61,Male,2020-11-16_16h38.54.805,torte-q,2020.1.3,Win32,60,13311,,,,,0,102,102,64,1,,,,,,,,,,,,,,,,,,,,,,,,,,,,,,,,,,,
,,,,,,,,,,,,a,0.671485,Incorrect,,,,,,t5.png,t2.png,3,0.0000131,61,Male,2020-11-16_16h38.54.805,torte-q,2020.1.3,Win32,60,13311,,,,,0,103,103,91,1,,,,,,,,,,,,,,,,,,,,,,,,,,,,,,,,,,,
,,,,,,,,,,,,a,0.59035,Incorrect,,,,,,t4.png,t1.png,3,0.0000131,61,Male,2020-11-16_16h38.54.805,torte-q,2020.1.3,Win32,60,13311,,,,,0,104,104,13,1,,,,,,,,,,,,,,,,,,,,,,,,,,,,,,,,,,,
,,,,,,,,,,,,l,0.832395,Incorrect,,,,,,t1.png,t2.png,1,0.90025,61,Male,2020-11-16_16h38.54.805,torte-q,2020.1.3,Win32,60,13311,,,,,0,105,105,33,1,,,,,,,,,,,,,,,,,,,,,,,,,,,,,,,,,,,
,,,,,,,,,,,,a,0.588985,Incorrect,,,,,,t3.png,t1.png,2,0.0565,61,Male,2020-11-16_16h38.54.805,torte-q,2020.1.3,Win32,60,13311,,,,,0,106,106,31,1,,,,,,,,,,,,,,,,,,,,,,,,,,,,,,,,,,,
,,,,,,,,,,,,a,0.951775,Incorrect,,,,,,t4.png,t3.png,1,0.90855,61,Male,2020-11-16_16h38.54.805,torte-q,2020.1.3,Win32,60,13311,,,,,0,107,107,35,1,,,,,,,,,,,,,,,,,,,,,,,,,,,,,,,,,,,
,,,,,,,,,,,,a,0.798515,Correct!,,,,,,t4.png,t3.png,1,0.90855,61,Male,2020-11-16_16h38.54.805,torte-q,2020.1.3,Win32,60,13311,,,,,0,108,108,45,1,,,,,,,,,,,,,,,,,,,,,,,,,,,,,,,,,,,
,,,,,,,,,,,,l,0.69576,Correct!,,,,,,t2.png,t5.png,3,0.0000131,61,Male,2020-11-16_16h38.54.805,torte-q,2020.1.3,Win32,60,13311,,,,,0,109,109,104,1,,,,,,,,,,,,,,,,,,,,,,,,,,,,,,,,,,,
,,,,,,,,,,,,l,1.049755,Incorrect,,,,,,t1.png,t1.png,0,0.97829,61,Male,2020-11-16_16h38.54.805,torte-q,2020.1.3,Win32,60,13311,,,,,0,110,110,9,1,,,,,,,,,,,,,,,,,,,,,,,,,,,,,,,,,,,
,,,,,,,,,,,,a,0.936025,Incorrect,,,,,,t5.png,t4.png,1,0.9,61,Male,2020-11-16_16h38.54.805,torte-q,2020.1.3,Win32,60,13311,,,,,0,111,111,76,1,,,,,,,,,,,,,,,,,,,,,,,,,,,,,,,,,,,
,,,,,,,,,,,,l,0.624695,Correct!,,,,,,t2.png,t4.png,2,0.059078,61,Male,2020-11-16_16h38.54.805,torte-q,2020.1.3,Win32,60,13311,,,,,0,112,112,77,1,,,,,,,,,,,,,,,,,,,,,,,,,,,,,,,,,,,
,,,,,,,,,,,,l,0.572365,Incorrect,,,,,,t2.png,t3.png,1,0.90855,61,Male,2020-11-16_16h38.54.805,torte-q,2020.1.3,Win32,60,13311,,,,,0,113,113,65,1,,,,,,,,,,,,,,,,,,,,,,,,,,,,,,,,,,,
,,,,,,,,,,,,l,0.63254,Correct!,,,,,,t1.png,t4.png,3,0.0000131,61,Male,2020-11-16_16h38.54.805,torte-q,2020.1.3,Win32,60,13311,,,,,0,114,114,17,1,,,,,,,,,,,,,,,,,,,,,,,,,,,,,,,,,,,
,,,,,,,,,,,,a,1.23312,Correct!,,,,,,t2.png,t2.png,0,0.981,61,Male,2020-11-16_16h38.54.805,torte-q,2020.1.3,Win32,60,13311,,,,,0,115,115,101,1,,,,,,,,,,,,,,,,,,,,,,,,,,,,,,,,,,,
,,,,,,,,,,,,l,1.42,Incorrect,,,,,,t4.png,t5.png,1,0.90025,61,Male,2020-11-16_16h38.54.805,torte-q,2020.1.3,Win32,60,13311,,,,,0,116,116,113,1,,,,,,,,,,,,,,,,,,,,,,,,,,,,,,,,,,,
,,,,,,,,,,,,a,0.623965,Incorrect,,,,,,t5.png,t1.png,4,9.55E-11,61,Male,2020-11-16_16h38.54.805,torte-q,2020.1.3,Win32,60,13311,,,,,0,117,117,22,1,,,,,,,,,,,,,,,,,,,,,,,,,,,,,,,,,,,
,,,,,,,,,,,,l,1.35274,Incorrect,,,,,,t4.png,t4.png,0,0.98115,61,Male,2020-11-16_16h38.54.805,torte-q,2020.1.3,Win32,60,13311,,,,,0,118,118,21,1,,,,,,,,,,,,,,,,,,,,,,,,,,,,,,,,,,,
,,,,,,,,,,,,l,1.038015,Incorrect,,,,,,t1.png,t1.png,0,0.97829,61,Male,2020-11-16_16h38.54.805,torte-q,2020.1.3,Win32,60,13311,,,,,0,119,119,78,1,,,,,,,,,,,,,,,,,,,,,,,,,,,,,,,,,,,
,,,,,,,,,,,,,,Too slow :(,,,,,,t2.png,t4.png,2,0.059078,61,Male,2020-11-16_16h38.54.805,torte-q,2020.1.3,Win32,60,13311,space,9.08102,,,,,,,,space,17.125145,space,7.93494,0,0,0,11,1,,,,,,,,,,,,,,,,,,,,,,,,,,
,,,,,,,,,,,,a,1.335325,Incorrect,,,,,,t3.png,t1.png,2,0.0565,61,Male,2020-11-16_16h38.54.805,torte-q,2020.1.3,Win32,60,13311,,,,,,,,,,,,,,0,1,1,31,1,,,,,,,,,,,,,,,,,,,,,,,,,,
,,,,,,,,,,,,a,2.214925,Correct!,,,,,,t2.png,t2.png,0,0.98115,61,Male,2020-11-16_16h38.54.805,torte-q,2020.1.3,Win32,60,13311,,,,,,,,,,,,,,0,2,2,7,1,,,,,,,,,,,,,,,,,,,,,,,,,,
,,,,,,,,,,,,a,0.71983,Incorrect,,,,,,t4.png,t1.png,3,0.0000131,61,Male,2020-11-16_16h38.54.805,torte-q,2020.1.3,Win32,60,13311,,,,,,,,,,,,,,0,3,3,61,1,,,,,,,,,,,,,,,,,,,,,,,,,,
,,,,,,,,,,,,l,1.14311,Incorrect,,,,,,t4.png,t5.png,1,0.9,61,Male,2020-11-16_16h38.54.805,torte-q,2020.1.3,Win32,60,13311,,,,,,,,,,,,,,0,4,4,115,1,,,,,,,,,,,,,,,,,,,,,,,,,,
,,,,,,,,,,,,l,1.1084,Incorrect,,,,,,t1.png,t1.png,0,0.97829,61,Male,2020-11-16_16h38.54.805,torte-q,2020.1.3,Win32,60,13311,,,,,,,,,,,,,,0,5,5,78,1,,,,,,,,,,,,,,,,,,,,,,,,,,
,,,,,,,,,,,,a,0.63275,Incorrect,,,,,,t5.png,t3.png,2,0.056466,61,Male,2020-11-16_16h38.54.805,torte-q,2020.1.3,Win32,60,13311,,,,,,,,,,,,,,0,6,6,114,1,,,,,,,,,,,,,,,,,,,,,,,,,,
,,,,,,,,,,,,a,0.790725,Correct!,,,,,,t3.png,t2.png,1,0.909,61,Male,2020-11-16_16h38.54.805,torte-q,2020.1.3,Win32,60,13311,,,,,,,,,,,,,,0,7,7,23,1,,,,,,,,,,,,,,,,,,,,,,,,,,
,,,,,,,,,,,,l,0.691585,Correct!,,,,,,t1.png,t4.png,3,0.0000131,61,Male,2020-11-16_16h38.54.805,torte-q,2020.1.3,Win32,60,13311,,,,,,,,,,,,,,0,8,8,107,1,,,,,,,,,,,,,,,,,,,,,,,,,,
,,,,,,,,,,,,l,0.71521,Correct!,,,,,,t1.png,t5.png,4,9.55E-11,61,Male,2020-11-16_16h38.54.805,torte-q,2020.1.3,Win32,60,13311,,,,,,,,,,,,,,0,9,9,41,1,,,,,,,,,,,,,,,,,,,,,,,,,,
,,,,,,,,,,,,l,1.77648,Incorrect,,,,,,t4.png,t4.png,0,0.98115,61,Male,2020-11-16_16h38.54.805,torte-q,2020.1.3,Win32,60,13311,,,,,,,,,,,,,,0,10,10,21,1,,,,,,,,,,,,,,,,,,,,,,,,,,
,,,,,,,,,,,,l,1.448955,Correct!,,,,,,t2.png,t5.png,3,0.0000131,61,Male,2020-11-16_16h38.54.805,torte-q,2020.1.3,Win32,60,13311,,,,,,,,,,,,,,0,11,11,8,1,,,,,,,,,,,,,,,,,,,,,,,,,,
,,,,,,,,,,,,a,0.75864,Correct!,,,,,,t2.png,t3.png,1,0.909,61,Male,2020-11-16_16h38.54.805,torte-q,2020.1.3,Win32,60,13311,,,,,,,,,,,,,,0,12,12,74,1,,,,,,,,,,,,,,,,,,,,,,,,,,
,,,,,,,,,,,,l,0.92445,Incorrect,,,,,,t1.png,t1.png,0,0.97829,61,Male,2020-11-16_16h38.54.805,torte-q,2020.1.3,Win32,60,13311,,,,,,,,,,,,,,0,13,13,9,1,,,,,,,,,,,,,,,,,,,,,,,,,,
,,,,,,,,,,,,l,1.61886,Correct!,,,,,,t1.png,t5.png,4,9.55E-11,61,Male,2020-11-16_16h38.54.805,torte-q,2020.1.3,Win32,60,13311,,,,,,,,,,,,,,0,14,14,55,1,,,,,,,,,,,,,,,,,,,,,,,,,,
,,,,,,,,,,,,l,0.967045,Correct!,,,,,,t2.png,t4.png,2,0.0591,61,Male,2020-11-16_16h38.54.805,torte-q,2020.1.3,Win32,60,13311,,,,,,,,,,,,,,0,15,15,15,1,,,,,,,,,,,,,,,,,,,,,,,,,,
,,,,,,,,,,,,a,0.922595,Correct!,,,,,,t2.png,t1.png,1,0.90025,61,Male,2020-11-16_16h38.54.805,torte-q,2020.1.3,Win32,60,13311,,,,,,,,,,,,,,0,16,16,5,1,,,,,,,,,,,,,,,,,,,,,,,,,,
,,,,,,,,,,,,l,1.41713,Incorrect,,,,,,t4.png,t5.png,1,0.90025,61,Male,2020-11-16_16h38.54.805,torte-q,2020.1.3,Win32,60,13311,,,,,,,,,,,,,,0,17,17,58,1,,,,,,,,,,,,,,,,,,,,,,,,,,
,,,,,,,,,,,,a,1.067915,Correct!,,,,,,t2.png,t1.png,1,0.90025,61,Male,2020-11-16_16h38.54.805,torte-q,2020.1.3,Win32,60,13311,,,,,,,,,,,,,,0,18,18,19,1,,,,,,,,,,,,,,,,,,,,,,,,,,
,,,,,,,,,,,,a,0.665855,Incorrect,,,,,,t5.png,t2.png,3,0.0000131,61,Male,2020-11-16_16h38.54.805,torte-q,2020.1.3,Win32,60,13311,,,,,,,,,,,,,,0,19,19,51,1,,,,,,,,,,,,,,,,,,,,,,,,,,
,,,,,,,,,,,,a,1.693435,Correct!,,,,,,t5.png,t5.png,0,0.97829,61,Male,2020-11-16_16h38.54.805,torte-q,2020.1.3,Win32,60,13311,,,,,,,,,,,,,,0,20,20,94,1,,,,,,,,,,,,,,,,,,,,,,,,,,
,,,,,,,,,,,,l,0.926165,Correct!,,,,,,t3.png,t5.png,2,0.0565,61,Male,2020-11-16_16h38.54.805,torte-q,2020.1.3,Win32,60,13311,,,,,,,,,,,,,,0,21,21,30,1,,,,,,,,,,,,,,,,,,,,,,,,,,
,,,,,,,,,,,,a,0.62896,Incorrect,,,,,,t4.png,t2.png,2,0.059078,61,Male,2020-11-16_16h38.54.805,torte-q,2020.1.3,Win32,60,13311,,,,,,,,,,,,,,0,22,22,86,1,,,,,,,,,,,,,,,,,,,,,,,,,,
,,,,,,,,,,,,l,0.64818,Correct!,,,,,,t2.png,t5.png,3,0.0000131,61,Male,2020-11-16_16h38.54.805,torte-q,2020.1.3,Win32,60,13311,,,,,,,,,,,,,,0,23,23,95,1,,,,,,,,,,,,,,,,,,,,,,,,,,
,,,,,,,,,,,,l,0.780835,Correct!,,,,,,t1.png,t3.png,2,0.056466,61,Male,2020-11-16_16h38.54.805,torte-q,2020.1.3,Win32,60,13311,,,,,,,,,,,,,,0,24,24,69,1,,,,,,,,,,,,,,,,,,,,,,,,,,
,,,,,,,,,,,,l,0.72596,Incorrect,,,,,,t1.png,t3.png,2,0.056466,61,Male,2020-11-16_16h38.54.805,torte-q,2020.1.3,Win32,60,13311,,,,,,,,,,,,,,0,25,25,87,1,,,,,,,,,,,,,,,,,,,,,,,,,,
,,,,,,,,,,,,l,0.86503,Correct!,,,,,,t3.png,t5.png,2,0.056466,61,Male,2020-11-16_16h38.54.805,torte-q,2020.1.3,Win32,60,13311,,,,,,,,,,,,,,0,26,26,44,1,,,,,,,,,,,,,,,,,,,,,,,,,,
,,,,,,,,,,,,a,0.581565,Incorrect,,,,,,t4.png,t1.png,3,0.0000131,61,Male,2020-11-16_16h38.54.805,torte-q,2020.1.3,Win32,60,13311,,,,,,,,,,,,,,0,27,27,48,1,,,,,,,,,,,,,,,,,,,,,,,,,,
,,,,,,,,,,,,a,1.203475,Correct!,,,,,,t5.png,t4.png,1,0.9,61,Male,2020-11-16_16h38.54.805,torte-q,2020.1.3,Win32,60,13311,,,,,,,,,,,,,,0,28,28,49,1,,,,,,,,,,,,,,,,,,,,,,,,,,
,,,,,,,,,,,,l,1.614125,Incorrect,,,,,,t2.png,t2.png,0,0.98115,61,Male,2020-11-16_16h38.54.805,torte-q,2020.1.3,Win32,60,13311,,,,,,,,,,,,,,0,29,29,57,1,,,,,,,,,,,,,,,,,,,,,,,,,,
,,,,,,,,,,,,a,0.72116,Incorrect,,,,,,t3.png,t1.png,2,0.056466,61,Male,2020-11-16_16h38.54.805,torte-q,2020.1.3,Win32,60,13311,,,,,,,,,,,,,,0,30,30,32,1,,,,,,,,,,,,,,,,,,,,,,,,,,
,,,,,,,,,,,,a,0.597125,Incorrect,,,,,,t5.png,t1.png,4,9.55E-11,61,Male,2020-11-16_16h38.54.805,torte-q,2020.1.3,Win32,60,13311,,,,,,,,,,,,,,0,31,31,71,1,,,,,,,,,,,,,,,,,,,,,,,,,,
,,,,,,,,,,,,l,1.666565,Incorrect,,,,,,t5.png,t5.png,0,0.978,61,Male,2020-11-16_16h38.54.805,torte-q,2020.1.3,Win32,60,13311,,,,,,,,,,,,,,0,32,32,117,1,,,,,,,,,,,,,,,,,,,,,,,,,,
,,,,,,,,,,,,l,0.787315,Correct!,,,,,,t1.png,t5.png,4,9.55E-11,61,Male,2020-11-16_16h38.54.805,torte-q,2020.1.3,Win32,60,13311,,,,,,,,,,,,,,0,33,33,16,1,,,,,,,,,,,,,,,,,,,,,,,,,,
,,,,,,,,,,,,a,0.602085,Incorrect,,,,,,t4.png,t1.png,3,0.0000131,61,Male,2020-11-16_16h38.54.805,torte-q,2020.1.3,Win32,60,13311,,,,,,,,,,,,,,0,34,34,42,1,,,,,,,,,,,,,,,,,,,,,,,,,,
,,,,,,,,,,,,a,0.61267,Incorrect,,,,,,t5.png,t1.png,4,9.55E-11,61,Male,2020-11-16_16h38.54.805,torte-q,2020.1.3,Win32,60,13311,,,,,,,,,,,,,,0,35,35,22,1,,,,,,,,,,,,,,,,,,,,,,,,,,
,,,,,,,,,,,,l,0.91838,Correct!,,,,,,t2.png,t5.png,3,0.0000131,61,Male,2020-11-16_16h38.54.805,torte-q,2020.1.3,Win32,60,13311,,,,,,,,,,,,,,0,36,36,66,1,,,,,,,,,,,,,,,,,,,,,,,,,,
,,,,,,,,,,,,a,0.71942,Correct!,,,,,,t3.png,t2.png,1,0.909,61,Male,2020-11-16_16h38.54.805,torte-q,2020.1.3,Win32,60,13311,,,,,,,,,,,,,,0,37,37,3,1,,,,,,,,,,,,,,,,,,,,,,,,,,
,,,,,,,,,,,,a,1.257805,Incorrect,,,,,,t4.png,t2.png,2,0.059078,61,Male,2020-11-16_16h38.54.805,torte-q,2020.1.3,Win32,60,13311,,,,,,,,,,,,,,0,38,38,109,1,,,,,,,,,,,,,,,,,,,,,,,,,,
,,,,,,,,,,,,l,0.86885,Incorrect,,,,,,t1.png,t1.png,0,0.978,61,Male,2020-11-16_16h38.54.805,torte-q,2020.1.3,Win32,60,13311,,,,,,,,,,,,,,0,39,39,28,1,,,,,,,,,,,,,,,,,,,,,,,,,,
,,,,,,,,,,,,l,1.15093,Incorrect,,,,,,t4.png,t5.png,1,0.90025,61,Male,2020-11-16_16h38.54.805,torte-q,2020.1.3,Win32,60,13311,,,,,,,,,,,,,,0,40,40,47,1,,,,,,,,,,,,,,,,,,,,,,,,,,
,,,,,,,,,,,,a,0.685545,Incorrect,,,,,,t5.png,t1.png,4,9.55E-11,61,Male,2020-11-16_16h38.54.805,torte-q,2020.1.3,Win32,60,13311,,,,,,,,,,,,,,0,41,41,102,1,,,,,,,,,,,,,,,,,,,,,,,,,,
,,,,,,,,,,,,a,0.68485,Incorrect,,,,,,t5.png,t1.png,4,9.55E-11,61,Male,2020-11-16_16h38.54.805,torte-q,2020.1.3,Win32,60,13311,,,,,,,,,,,,,,0,42,42,43,1,,,,,,,,,,,,,,,,,,,,,,,,,,
,,,,,,,,,,,,l,1.051915,Incorrect,,,,,,t5.png,t5.png,0,0.97829,61,Male,2020-11-16_16h38.54.805,torte-q,2020.1.3,Win32,60,13311,,,,,,,,,,,,,,0,43,43,70,1,,,,,,,,,,,,,,,,,,,,,,,,,,
,,,,,,,,,,,,l,0.834745,Incorrect,,,,,,t3.png,t4.png,1,0.90855,61,Male,2020-11-16_16h38.54.805,torte-q,2020.1.3,Win32,60,13311,,,,,,,,,,,,,,0,44,44,84,1,,,,,,,,,,,,,,,,,,,,,,,,,,
,,,,,,,,,,,,l,0.870725,Incorrect,,,,,,t1.png,t2.png,1,0.90025,61,Male,2020-11-16_16h38.54.805,torte-q,2020.1.3,Win32,60,13311,,,,,,,,,,,,,,0,45,45,72,1,,,,,,,,,,,,,,,,,,,,,,,,,,
,,,,,,,,,,,,a,0.773765,Correct!,,,,,,t3.png,t2.png,1,0.90855,61,Male,2020-11-16_16h38.54.805,torte-q,2020.1.3,Win32,60,13311,,,,,,,,,,,,,,0,46,46,53,1,,,,,,,,,,,,,,,,,,,,,,,,,,
,,,,,,,,,,,,a,1.68667,Correct!,,,,,,t4.png,t4.png,0,0.98115,61,Male,2020-11-16_16h38.54.805,torte-q,2020.1.3,Win32,60,13311,,,,,,,,,,,,,,0,47,47,80,1,,,,,,,,,,,,,,,,,,,,,,,,,,
,,,,,,,,,,,,l,0.788755,Incorrect,,,,,,t1.png,t2.png,1,0.90025,61,Male,2020-11-16_16h38.54.805,torte-q,2020.1.3,Win32,60,13311,,,,,,,,,,,,,,0,48,48,112,1,,,,,,,,,,,,,,,,,,,,,,,,,,
,,,,,,,,,,,,l,0.698425,Correct!,,,,,,t1.png,t5.png,4,9.55E-11,61,Male,2020-11-16_16h38.54.805,torte-q,2020.1.3,Win32,60,13311,,,,,,,,,,,,,,0,49,49,85,1,,,,,,,,,,,,,,,,,,,,,,,,,,
,,,,,,,,,,,,a,1.47275,Correct!,,,,,,t4.png,t4.png,0,0.98115,61,Male,2020-11-16_16h38.54.805,torte-q,2020.1.3,Win32,60,13311,,,,,,,,,,,,,,0,50,50,79,1,,,,,,,,,,,,,,,,,,,,,,,,,,
,,,,,,,,,,,,l,0.83509,Incorrect,,,,,,t1.png,t2.png,1,0.90025,61,Male,2020-11-16_16h38.54.805,torte-q,2020.1.3,Win32,60,13311,,,,,,,,,,,,,,0,51,51,33,1,,,,,,,,,,,,,,,,,,,,,,,,,,
,,,,,,,,,,,,a,0.634635,Incorrect,,,,,,t5.png,t2.png,3,0.0000131,61,Male,2020-11-16_16h38.54.805,torte-q,2020.1.3,Win32,60,13311,,,,,,,,,,,,,,0,52,52,91,1,,,,,,,,,,,,,,,,,,,,,,,,,,
,,,,,,,,,,,,l,0.71932,Incorrect,,,,,,t3.png,t4.png,1,0.909,61,Male,2020-11-16_16h38.54.805,torte-q,2020.1.3,Win32,60,13311,,,,,,,,,,,,,,0,53,53,106,1,,,,,,,,,,,,,,,,,,,,,,,,,,
,,,,,,,,,,,,a,0.65214,Incorrect,,,,,,t5.png,t2.png,3,0.0000131,61,Male,2020-11-16_16h38.54.805,torte-q,2020.1.3,Win32,60,13311,,,,,,,,,,,,,,0,54,54,119,1,,,,,,,,,,,,,,,,,,,,,,,,,,
,,,,,,,,,,,,l,0.687695,Correct!,,,,,,t2.png,t5.png,3,0.0000131,61,Male,2020-11-16_16h38.54.805,torte-q,2020.1.3,Win32,60,13311,,,,,,,,,,,,,,0,55,55,40,1,,,,,,,,,,,,,,,,,,,,,,,,,,
,,,,,,,,,,,,a,0.80194,Correct!,,,,,,t4.png,t3.png,1,0.90855,61,Male,2020-11-16_16h38.54.805,torte-q,2020.1.3,Win32,60,13311,,,,,,,,,,,,,,0,56,56,35,1,,,,,,,,,,,,,,,,,,,,,,,,,,
,,,,,,,,,,,,l,0.651935,Correct!,,,,,,t1.png,t4.png,3,0.0000131,61,Male,2020-11-16_16h38.54.805,torte-q,2020.1.3,Win32,60,13311,,,,,,,,,,,,,,0,57,57,92,1,,,,,,,,,,,,,,,,,,,,,,,,,,
,,,,,,,,,,,,l,0.634005,Incorrect,,,,,,t3.png,t4.png,1,0.90855,61,Male,2020-11-16_16h38.54.805,torte-q,2020.1.3,Win32,60,13311,,,,,,,,,,,,,,0,58,58,96,1,,,,,,,,,,,,,,,,,,,,,,,,,,
,,,,,,,,,,,,l,1.36916,Incorrect,,,,,,t2.png,t2.png,0,0.981,61,Male,2020-11-16_16h38.54.805,torte-q,2020.1.3,Win32,60,13311,,,,,,,,,,,,,,0,59,59,101,1,,,,,,,,,,,,,,,,,,,,,,,,,,
,,,,,,,,,,,,l,0.73698,Correct!,,,,,,t3.png,t5.png,2,0.0565,61,Male,2020-11-16_16h38.54.805,torte-q,2020.1.3,Win32,60,13311,,,,,,,,,,,,,,0,60,60,83,1,,,,,,,,,,,,,,,,,,,,,,,,,,
,,,,,,,,,,,,l,1.13466,Correct!,,,,,,t1.png,t3.png,2,0.056466,61,Male,2020-11-16_16h38.54.805,torte-q,2020.1.3,Win32,60,13311,,,,,,,,,,,,,,0,61,61,60,1,,,,,,,,,,,,,,,,,,,,,,,,,,
,,,,,,,,,,,,l,1.46634,Incorrect,,,,,,t4.png,t5.png,1,0.90025,61,Male,2020-11-16_16h38.54.805,torte-q,2020.1.3,Win32,60,13311,,,,,,,,,,,,,,0,62,62,113,1,,,,,,,,,,,,,,,,,,,,,,,,,,
,,,,,,,,,,,,l,0.878045,Incorrect,,,,,,t2.png,t3.png,1,0.90855,61,Male,2020-11-16_16h38.54.805,torte-q,2020.1.3,Win32,60,13311,,,,,,,,,,,,,,0,63,63,65,1,,,,,,,,,,,,,,,,,,,,,,,,,,
,,,,,,,,,,,,l,0.636425,Correct!,,,,,,t2.png,t4.png,2,0.059078,61,Male,2020-11-16_16h38.54.805,torte-q,2020.1.3,Win32,60,13311,,,,,,,,,,,,,,0,64,64,24,1,,,,,,,,,,,,,,,,,,,,,,,,,,
,,,,,,,,,,,,l,0.58677,Correct!,,,,,,t3.png,t5.png,2,0.056466,61,Male,2020-11-16_16h38.54.805,torte-q,2020.1.3,Win32,60,13311,,,,,,,,,,,,,,0,65,65,6,1,,,,,,,,,,,,,,,,,,,,,,,,,,
,,,,,,,,,,,,l,0.585635,Correct!,,,,,,t1.png,t5.png,4,9.55E-11,61,Male,2020-11-16_16h38.54.805,torte-q,2020.1.3,Win32,60,13311,,,,,,,,,,,,,,0,66,66,12,1,,,,,,,,,,,,,,,,,,,,,,,,,,
,,,,,,,,,,,,l,0.65316,Correct!,,,,,,t1.png,t4.png,3,0.0000131,61,Male,2020-11-16_16h38.54.805,torte-q,2020.1.3,Win32,60,13311,,,,,,,,,,,,,,0,67,67,50,1,,,,,,,,,,,,,,,,,,,,,,,,,,
,,,,,,,,,,,,a,0.93082,Correct!,,,,,,t5.png,t4.png,1,0.9,61,Male,2020-11-16_16h38.54.805,torte-q,2020.1.3,Win32,60,13311,,,,,,,,,,,,,,0,68,68,76,1,,,,,,,,,,,,,,,,,,,,,,,,,,
,,,,,,,,,,,,a,1.265705,Correct!,,,,,,t5.png,t5.png,0,0.97829,61,Male,2020-11-16_16h38.54.805,torte-q,2020.1.3,Win32,60,13311,,,,,,,,,,,,,,0,69,69,73,1,,,,,,,,,,,,,,,,,,,,,,,,,,
,,,,,,,,,,,,a,1.39103,Correct!,,,,,,t4.png,t4.png,0,0.98115,61,Male,2020-11-16_16h38.54.805,torte-q,2020.1.3,Win32,60,13311,,,,,,,,,,,,,,0,70,70,52,1,,,,,,,,,,,,,,,,,,,,,,,,,,
,,,,,,,,,,,,a,0.791995,Incorrect,,,,,,t5.png,t1.png,4,9.55E-11,61,Male,2020-11-16_16h38.54.805,torte-q,2020.1.3,Win32,60,13311,,,,,,,,,,,,,,0,71,71,100,1,,,,,,,,,,,,,,,,,,,,,,,,,,
,,,,,,,,,,,,a,0.80302,Correct!,,,,,,t3.png,t2.png,1,0.90855,61,Male,2020-11-16_16h38.54.805,torte-q,2020.1.3,Win32,60,13311,,,,,,,,,,,,,,0,72,72,18,1,,,,,,,,,,,,,,,,,,,,,,,,,,
,,,,,,,,,,,,l,0.6515,Correct!,,,,,,t3.png,t5.png,2,0.056466,61,Male,2020-11-16_16h38.54.805,torte-q,2020.1.3,Win32,60,13311,,,,,,,,,,,,,,0,73,73,14,1,,,,,,,,,,,,,,,,,,,,,,,,,,
,,,,,,,,,,,,l,0.90204,Incorrect,,,,,,t1.png,t1.png,0,0.97829,61,Male,2020-11-16_16h38.54.805,torte-q,2020.1.3,Win32,60,13311,,,,,,,,,,,,,,0,74,74,67,1,,,,,,,,,,,,,,,,,,,,,,,,,,
,,,,,,,,,,,,l,1.401715,Incorrect,,,,,,t4.png,t5.png,1,0.90025,61,Male,2020-11-16_16h38.54.805,torte-q,2020.1.3,Win32,60,13311,,,,,,,,,,,,,,0,75,75,103,1,,,,,,,,,,,,,,,,,,,,,,,,,,
,,,,,,,,,,,,l,0.741665,Correct!,,,,,,t1.png,t4.png,3,0.0000131,61,Male,2020-11-16_16h38.54.805,torte-q,2020.1.3,Win32,60,13311,,,,,,,,,,,,,,0,76,76,81,1,,,,,,,,,,,,,,,,,,,,,,,,,,
,,,,,,,,,,,,l,0.87475,Incorrect,,,,,,t1.png,t2.png,1,0.9,61,Male,2020-11-16_16h38.54.805,torte-q,2020.1.3,Win32,60,13311,,,,,,,,,,,,,,0,77,77,1,1,,,,,,,,,,,,,,,,,,,,,,,,,,
,,,,,,,,,,,,a,0.6557,Correct!,,,,,,t4.png,t3.png,1,0.90855,61,Male,2020-11-16_16h38.54.805,torte-q,2020.1.3,Win32,60,13311,,,,,,,,,,,,,,0,78,78,75,1,,,,,,,,,,,,,,,,,,,,,,,,,,
,,,,,,,,,,,,a,1.304445,Incorrect,,,,,,t5.png,t4.png,1,0.90025,61,Male,2020-11-16_16h38.54.805,torte-q,2020.1.3,Win32,60,13311,,,,,,,,,,,,,,0,79,79,34,1,,,,,,,,,,,,,,,,,,,,,,,,,,
,,,,,,,,,,,,a,0.80134,Incorrect,,,,,,t3.png,t1.png,2,0.056466,61,Male,2020-11-16_16h38.54.805,torte-q,2020.1.3,Win32,60,13311,,,,,,,,,,,,,,0,80,80,29,1,,,,,,,,,,,,,,,,,,,,,,,,,,
,,,,,,,,,,,,a,0.701985,Incorrect,,,,,,t3.png,t1.png,2,0.056466,61,Male,2020-11-16_16h38.54.805,torte-q,2020.1.3,Win32,60,13311,,,,,,,,,,,,,,0,81,81,0,1,,,,,,,,,,,,,,,,,,,,,,,,,,
,,,,,,,,,,,,l,0.784925,Incorrect,,,,,,t1.png,t2.png,1,0.90025,61,Male,2020-11-16_16h38.54.805,torte-q,2020.1.3,Win32,60,13311,,,,,,,,,,,,,,0,82,82,105,1,,,,,,,,,,,,,,,,,,,,,,,,,,
,,,,,,,,,,,,a,0.604125,Incorrect,,,,,,t4.png,t2.png,2,0.059078,61,Male,2020-11-16_16h38.54.805,torte-q,2020.1.3,Win32,60,13311,,,,,,,,,,,,,,0,83,83,110,1,,,,,,,,,,,,,,,,,,,,,,,,,,
,,,,,,,,,,,,l,1.668465,Incorrect,,,,,,t2.png,t2.png,0,0.98115,61,Male,2020-11-16_16h38.54.805,torte-q,2020.1.3,Win32,60,13311,,,,,,,,,,,,,,0,84,84,2,1,,,,,,,,,,,,,,,,,,,,,,,,,,
,,,,,,,,,,,,a,0.61804,Correct!,,,,,,t4.png,t3.png,1,0.909,61,Male,2020-11-16_16h38.54.805,torte-q,2020.1.3,Win32,60,13311,,,,,,,,,,,,,,0,85,85,20,1,,,,,,,,,,,,,,,,,,,,,,,,,,
,,,,,,,,,,,,a,0.635435,Correct!,,,,,,t3.png,t2.png,1,0.90855,61,Male,2020-11-16_16h38.54.805,torte-q,2020.1.3,Win32,60,13311,,,,,,,,,,,,,,0,86,86,97,1,,,,,,,,,,,,,,,,,,,,,,,,,,
,,,,,,,,,,,,a,0.60999,Incorrect,,,,,,t5.png,t3.png,2,0.056466,61,Male,2020-11-16_16h38.54.805,torte-q,2020.1.3,Win32,60,13311,,,,,,,,,,,,,,0,87,87,108,1,,,,,,,,,,,,,,,,,,,,,,,,,,
,,,,,,,,,,,,l,0.635085,Incorrect,,,,,,t3.png,t4.png,1,0.909,61,Male,2020-11-16_16h38.54.805,torte-q,2020.1.3,Win32,60,13311,,,,,,,,,,,,,,0,88,88,89,1,,,,,,,,,,,,,,,,,,,,,,,,,,
,,,,,,,,,,,,a,0.63459,Correct!,,,,,,t4.png,t3.png,1,0.909,61,Male,2020-11-16_16h38.54.805,torte-q,2020.1.3,Win32,60,13311,,,,,,,,,,,,,,0,89,89,46,1,,,,,,,,,,,,,,,,,,,,,,,,,,
,,,,,,,,,,,,a,0.568555,Incorrect,,,,,,t4.png,t1.png,3,0.0000131,61,Male,2020-11-16_16h38.54.805,torte-q,2020.1.3,Win32,60,13311,,,,,,,,,,,,,,0,90,90,13,1,,,,,,,,,,,,,,,,,,,,,,,,,,
,,,,,,,,,,,,a,0.685105,Incorrect,,,,,,t4.png,t2.png,2,0.0591,61,Male,2020-11-16_16h38.54.805,torte-q,2020.1.3,Win32,60,13311,,,,,,,,,,,,,,0,91,91,36,1,,,,,,,,,,,,,,,,,,,,,,,,,,
,,,,,,,,,,,,l,1.214685,Incorrect,,,,,,t2.png,t3.png,1,0.90855,61,Male,2020-11-16_16h38.54.805,torte-q,2020.1.3,Win32,60,13311,,,,,,,,,,,,,,0,92,92,10,1,,,,,,,,,,,,,,,,,,,,,,,,,,
,,,,,,,,,,,,l,1.01788,Incorrect,,,,,,t2.png,t3.png,1,0.90855,61,Male,2020-11-16_16h38.54.805,torte-q,2020.1.3,Win32,60,13311,,,,,,,,,,,,,,0,93,93,68,1,,,,,,,,,,,,,,,,,,,,,,,,,,
,,,,,,,,,,,,a,1.151725,Correct!,,,,,,t5.png,t4.png,1,0.90025,61,Male,2020-11-16_16h38.54.805,torte-q,2020.1.3,Win32,60,13311,,,,,,,,,,,,,,0,94,94,26,1,,,,,,,,,,,,,,,,,,,,,,,,,,
,,,,,,,,,,,,l,0.607495,Correct!,,,,,,t1.png,t3.png,2,0.056466,61,Male,2020-11-16_16h38.54.805,torte-q,2020.1.3,Win32,60,13311,,,,,,,,,,,,,,0,95,95,63,1,,,,,,,,,,,,,,,,,,,,,,,,,,
,,,,,,,,,,,,l,0.626285,Correct!,,,,,,t1.png,t3.png,2,0.056466,61,Male,2020-11-16_16h38.54.805,torte-q,2020.1.3,Win32,60,13311,,,,,,,,,,,,,,0,96,96,99,1,,,,,,,,,,,,,,,,,,,,,,,,,,
,,,,,,,,,,,,a,0.63709,Incorrect,,,,,,t3.png,t1.png,2,0.056466,61,Male,2020-11-16_16h38.54.805,torte-q,2020.1.3,Win32,60,13311,,,,,,,,,,,,,,0,97,97,64,1,,,,,,,,,,,,,,,,,,,,,,,,,,
,,,,,,,,,,,,a,0.590785,Incorrect,,,,,,t5.png,t2.png,3,0.0000131,61,Male,2020-11-16_16h38.54.805,torte-q,2020.1.3,Win32,60,13311,,,,,,,,,,,,,,0,98,98,98,1,,,,,,,,,,,,,,,,,,,,,,,,,,
,,,,,,,,,,,,a,1.185215,Correct!,,,,,,t5.png,t4.png,1,0.90025,61,Male,2020-11-16_16h38.54.805,torte-q,2020.1.3,Win32,60,13311,,,,,,,,,,,,,,0,99,99,27,1,,,,,,,,,,,,,,,,,,,,,,,,,,
,,,,,,,,,,,,a,0.634945,Incorrect,,,,,,t5.png,t3.png,2,0.0565,61,Male,2020-11-16_16h38.54.805,torte-q,2020.1.3,Win32,60,13311,,,,,,,,,,,,,,0,100,100,39,1,,,,,,,,,,,,,,,,,,,,,,,,,,
,,,,,,,,,,,,l,0.586605,Correct!,,,,,,t2.png,t5.png,3,0.0000131,61,Male,2020-11-16_16h38.54.805,torte-q,2020.1.3,Win32,60,13311,,,,,,,,,,,,,,0,101,101,104,1,,,,,,,,,,,,,,,,,,,,,,,,,,
,,,,,,,,,,,,a,0.702105,Correct!,,,,,,t2.png,t1.png,1,0.90025,61,Male,2020-11-16_16h38.54.805,torte-q,2020.1.3,Win32,60,13311,,,,,,,,,,,,,,0,102,102,62,1,,,,,,,,,,,,,,,,,,,,,,,,,,
,,,,,,,,,,,,a,0.56857,Incorrect,,,,,,t4.png,t2.png,2,0.059078,61,Male,2020-11-16_16h38.54.805,torte-q,2020.1.3,Win32,60,13311,,,,,,,,,,,,,,0,103,103,88,1,,,,,,,,,,,,,,,,,,,,,,,,,,
,,,,,,,,,,,,a,0.57322,Incorrect,,,,,,t5.png,t2.png,3,0.0000131,61,Male,2020-11-16_16h38.54.805,torte-q,2020.1.3,Win32,60,13311,,,,,,,,,,,,,,0,104,104,116,1,,,,,,,,,,,,,,,,,,,,,,,,,,
,,,,,,,,,,,,a,0.670885,Correct!,,,,,,t2.png,t1.png,1,0.90025,61,Male,2020-11-16_16h38.54.805,torte-q,2020.1.3,Win32,60,13311,,,,,,,,,,,,,,0,105,105,4,1,,,,,,,,,,,,,,,,,,,,,,,,,,
,,,,,,,,,,,,l,0.81884,Incorrect,,,,,,t1.png,t1.png,0,0.978,61,Male,2020-11-16_16h38.54.805,torte-q,2020.1.3,Win32,60,13311,,,,,,,,,,,,,,0,106,106,54,1,,,,,,,,,,,,,,,,,,,,,,,,,,
,,,,,,,,,,,,a,0.61827,Correct!,,,,,,t2.png,t1.png,1,0.9,61,Male,2020-11-16_16h38.54.805,torte-q,2020.1.3,Win32,60,13311,,,,,,,,,,,,,,0,107,107,118,1,,,,,,,,,,,,,,,,,,,,,,,,,,
,,,,,,,,,,,,a,1.16862,Correct!,,,,,,t4.png,t4.png,0,0.98115,61,Male,2020-11-16_16h38.54.805,torte-q,2020.1.3,Win32,60,13311,,,,,,,,,,,,,,0,108,108,90,1,,,,,,,,,,,,,,,,,,,,,,,,,,
,,,,,,,,,,,,a,0.618995,Correct!,,,,,,t2.png,t2.png,0,0.98115,61,Male,2020-11-16_16h38.54.805,torte-q,2020.1.3,Win32,60,13311,,,,,,,,,,,,,,0,109,109,59,1,,,,,,,,,,,,,,,,,,,,,,,,,,
,,,,,,,,,,,,a,0.851205,Correct!,,,,,,t4.png,t3.png,1,0.90855,61,Male,2020-11-16_16h38.54.805,torte-q,2020.1.3,Win32,60,13311,,,,,,,,,,,,,,0,110,110,45,1,,,,,,,,,,,,,,,,,,,,,,,,,,
,,,,,,,,,,,,l,0.918535,Incorrect,,,,,,t2.png,t3.png,1,0.90855,61,Male,2020-11-16_16h38.54.805,torte-q,2020.1.3,Win32,60,13311,,,,,,,,,,,,,,0,111,111,111,1,,,,,,,,,,,,,,,,,,,,,,,,,,
,,,,,,,,,,,,a,0.63485,Incorrect,,,,,,t5.png,t3.png,2,0.056466,61,Male,2020-11-16_16h38.54.805,torte-q,2020.1.3,Win32,60,13311,,,,,,,,,,,,,,0,112,112,56,1,,,,,,,,,,,,,,,,,,,,,,,,,,
,,,,,,,,,,,,l,1.4685,Incorrect,,,,,,t5.png,t5.png,0,0.97829,61,Male,2020-11-16_16h38.54.805,torte-q,2020.1.3,Win32,60,13311,,,,,,,,,,,,,,0,113,113,25,1,,,,,,,,,,,,,,,,,,,,,,,,,,
,,,,,,,,,,,,l,1.00861,Incorrect,,,,,,t3.png,t4.png,1,0.909,61,Male,2020-11-16_16h38.54.805,torte-q,2020.1.3,Win32,60,13311,,,,,,,,,,,,,,0,114,114,82,1,,,,,,,,,,,,,,,,,,,,,,,,,,
,,,,,,,,,,,,l,0.65161,Correct!,,,,,,t1.png,t4.png,3,0.0000131,61,Male,2020-11-16_16h38.54.805,torte-q,2020.1.3,Win32,60,13311,,,,,,,,,,,,,,0,115,115,17,1,,,,,,,,,,,,,,,,,,,,,,,,,,
,,,,,,,,,,,,l,0.56857,Correct!,,,,,,t2.png,t4.png,2,0.059078,61,Male,2020-11-16_16h38.54.805,torte-q,2020.1.3,Win32,60,13311,,,,,,,,,,,,,,0,116,116,77,1,,,,,,,,,,,,,,,,,,,,,,,,,,
,,,,,,,,,,,,l,0.647835,Correct!,,,,,,t2.png,t4.png,2,0.059078,61,Male,2020-11-16_16h38.54.805,torte-q,2020.1.3,Win32,60,13311,,,,,,,,,,,,,,0,117,117,37,1,,,,,,,,,,,,,,,,,,,,,,,,,,
,,,,,,,,,,,,a,0.61827,Incorrect,,,,,,t5.png,t3.png,2,0.056466,61,Male,2020-11-16_16h38.54.805,torte-q,2020.1.3,Win32,60,13311,,,,,,,,,,,,,,0,118,118,38,1,,,,,,,,,,,,,,,,,,,,,,,,,,
,,,,,,,,,,,,a,1.151475,Incorrect,,,,,,t4.png,t1.png,3,0.0000131,61,Male,2020-11-16_16h38.54.805,torte-q,2020.1.3,Win32,60,13311,,,,,,,,,,,,,,0,119,119,93,1,,,,,,,,,,,,,,,,,,,,,,,,,,
,,,,,,,,,,,,,,,,,,,,,,,,61,Male,2020-11-16_16h38.54.805,torte-q,2020.1.3,Win32,60,13311,space,2.191785,,,,,,,,,,,,,,,,,5.955000153,11.86885,134.0000231,53.99999088,1,0,0,s3,78.66668808,23.33330295,1,0,0,t2,292.0000278,-106.0000139,1,0,0,proceed,space,20.06308,space,3.67075,space,0.91509
