key_resp_8.keys,key_resp_8.rt,key_resp_9.keys,key_resp_9.rt,key_resp_10.keys,key_resp_10.rt,key_resp_11.keys,key_resp_11.rt,key_resp_2.keys,key_resp_2.rt,key_resp_3.keys,key_resp_3.rt,key_resp.keys,Feedback,train.thisRepN,train.thisTrialN,train.thisN,train.thisIndex,train.ran,torta_sx,torta_dx,difference,probability,age,gender,date,expName,psychopyVersion,OS,frameRate,participant,key_resp.rt,key_resp_15.keys,key_resp_15.rt,key_resp_6.keys,key_resp_6.rt,test1.thisRepN,test1.thisTrialN,test1.thisN,test1.thisIndex,test1.ran,key_resp_16.keys,key_resp_16.rt,key_resp_7.keys,key_resp_7.rt,test2.thisRepN,test2.thisTrialN,test2.thisN,test2.thisIndex,test2.ran,rating.response,rating.rt,mouse.x,mouse.y,mouse.leftButton,mouse.midButton,mouse.rightButton,mouse.clicked_name,mouse_2.x,mouse_2.y,mouse_2.leftButton,mouse_2.midButton,mouse_2.rightButton,mouse_2.clicked_name,mouse_3.x,mouse_3.y,mouse_3.leftButton,mouse_3.midButton,mouse_3.rightButton,mouse_3.clicked_name,key_resp_12.keys,key_resp_12.rt,key_resp_13.keys,key_resp_13.rt,key_resp_14.keys,key_resp_14.rt
space,12.58958,space,3.65235,space,0.82438,space,7.439615,space,20.66656,space,54.15619,,Too slow :(,0,0,0,32,1,t4.png,t5.png,1,0.90025,29,Female,2020-10-21_14h23.40.601,torte-q,2020.1.3,Win32,60,13322,,,,,,,,,,,,,,,,,,,,,,,,,,,,,,,,,,,,,,,,,,,,,
,,,,,,,,,,,,a,Correct!,0,1,1,79,1,t3.png,t2.png,1,0.909,29,Female,2020-10-21_14h23.40.601,torte-q,2020.1.3,Win32,60,13322,0.879855,,,,,,,,,,,,,,,,,,,,,,,,,,,,,,,,,,,,,,,,,,,,
,,,,,,,,,,,,a,Correct!,0,2,2,102,1,t4.png,t2.png,2,0.059078,29,Female,2020-10-21_14h23.40.601,torte-q,2020.1.3,Win32,60,13322,0.731715,,,,,,,,,,,,,,,,,,,,,,,,,,,,,,,,,,,,,,,,,,,,
,,,,,,,,,,,,a,Correct!,0,3,3,2,1,t3.png,t2.png,1,0.90855,29,Female,2020-10-21_14h23.40.601,torte-q,2020.1.3,Win32,60,13322,1.43217,,,,,,,,,,,,,,,,,,,,,,,,,,,,,,,,,,,,,,,,,,,,
,,,,,,,,,,,,a,Incorrect,0,4,4,90,1,t1.png,t5.png,4,9.55E-11,29,Female,2020-10-21_14h23.40.601,torte-q,2020.1.3,Win32,60,13322,1.43044,,,,,,,,,,,,,,,,,,,,,,,,,,,,,,,,,,,,,,,,,,,,
,,,,,,,,,,,,l,Correct!,0,5,5,55,1,t2.png,t4.png,2,0.059078,29,Female,2020-10-21_14h23.40.601,torte-q,2020.1.3,Win32,60,13322,1.614645,,,,,,,,,,,,,,,,,,,,,,,,,,,,,,,,,,,,,,,,,,,,
,,,,,,,,,,,,l,Correct!,0,6,6,111,1,t5.png,t1.png,4,9.55E-11,29,Female,2020-10-21_14h23.40.601,torte-q,2020.1.3,Win32,60,13322,0.98307,,,,,,,,,,,,,,,,,,,,,,,,,,,,,,,,,,,,,,,,,,,,
,,,,,,,,,,,,l,Correct!,0,7,7,24,1,t4.png,t2.png,2,0.059078,29,Female,2020-10-21_14h23.40.601,torte-q,2020.1.3,Win32,60,13322,1.13325,,,,,,,,,,,,,,,,,,,,,,,,,,,,,,,,,,,,,,,,,,,,
,,,,,,,,,,,,l,Correct!,0,8,8,98,1,t2.png,t4.png,2,0.0591,29,Female,2020-10-21_14h23.40.601,torte-q,2020.1.3,Win32,60,13322,1.033895,,,,,,,,,,,,,,,,,,,,,,,,,,,,,,,,,,,,,,,,,,,,
,,,,,,,,,,,,a,Correct!,0,9,9,116,1,t5.png,t4.png,1,0.90025,29,Female,2020-10-21_14h23.40.601,torte-q,2020.1.3,Win32,60,13322,1.21662,,,,,,,,,,,,,,,,,,,,,,,,,,,,,,,,,,,,,,,,,,,,
,,,,,,,,,,,,a,Incorrect,0,10,10,91,1,t1.png,t4.png,3,0.0000131,29,Female,2020-10-21_14h23.40.601,torte-q,2020.1.3,Win32,60,13322,0.88751,,,,,,,,,,,,,,,,,,,,,,,,,,,,,,,,,,,,,,,,,,,,
,,,,,,,,,,,,a,Correct!,0,11,11,20,1,t2.png,t3.png,1,0.90855,29,Female,2020-10-21_14h23.40.601,torte-q,2020.1.3,Win32,60,13322,1.518695,,,,,,,,,,,,,,,,,,,,,,,,,,,,,,,,,,,,,,,,,,,,
,,,,,,,,,,,,a,Incorrect,0,12,12,117,1,t1.png,t5.png,4,9.55E-11,29,Female,2020-10-21_14h23.40.601,torte-q,2020.1.3,Win32,60,13322,0.786275,,,,,,,,,,,,,,,,,,,,,,,,,,,,,,,,,,,,,,,,,,,,
,,,,,,,,,,,,a,Correct!,0,13,13,114,1,t2.png,t3.png,1,0.90855,29,Female,2020-10-21_14h23.40.601,torte-q,2020.1.3,Win32,60,13322,1.19822,,,,,,,,,,,,,,,,,,,,,,,,,,,,,,,,,,,,,,,,,,,,
,,,,,,,,,,,,a,Correct!,0,14,14,105,1,t3.png,t2.png,1,0.90855,29,Female,2020-10-21_14h23.40.601,torte-q,2020.1.3,Win32,60,13322,1.030045,,,,,,,,,,,,,,,,,,,,,,,,,,,,,,,,,,,,,,,,,,,,
,,,,,,,,,,,,a,Correct!,0,15,15,22,1,t2.png,t3.png,1,0.90855,29,Female,2020-10-21_14h23.40.601,torte-q,2020.1.3,Win32,60,13322,1.033245,,,,,,,,,,,,,,,,,,,,,,,,,,,,,,,,,,,,,,,,,,,,
,,,,,,,,,,,,l,Correct!,0,16,16,23,1,t5.png,t4.png,1,0.90025,29,Female,2020-10-21_14h23.40.601,torte-q,2020.1.3,Win32,60,13322,1.730395,,,,,,,,,,,,,,,,,,,,,,,,,,,,,,,,,,,,,,,,,,,,
,,,,,,,,,,,,l,Correct!,0,17,17,31,1,t1.png,t5.png,4,9.55E-11,29,Female,2020-10-21_14h23.40.601,torte-q,2020.1.3,Win32,60,13322,0.94892,,,,,,,,,,,,,,,,,,,,,,,,,,,,,,,,,,,,,,,,,,,,
,,,,,,,,,,,,a,Incorrect,0,18,18,37,1,t1.png,t4.png,3,0.0000131,29,Female,2020-10-21_14h23.40.601,torte-q,2020.1.3,Win32,60,13322,0.91348,,,,,,,,,,,,,,,,,,,,,,,,,,,,,,,,,,,,,,,,,,,,
,,,,,,,,,,,,a,Incorrect,0,19,19,35,1,t1.png,t4.png,3,0.0000131,29,Female,2020-10-21_14h23.40.601,torte-q,2020.1.3,Win32,60,13322,1.180245,,,,,,,,,,,,,,,,,,,,,,,,,,,,,,,,,,,,,,,,,,,,
,,,,,,,,,,,,l,Correct!,0,20,20,56,1,t5.png,t1.png,4,9.55E-11,29,Female,2020-10-21_14h23.40.601,torte-q,2020.1.3,Win32,60,13322,1.02101,,,,,,,,,,,,,,,,,,,,,,,,,,,,,,,,,,,,,,,,,,,,
,,,,,,,,,,,,a,Incorrect,0,21,21,86,1,t3.png,t1.png,2,0.056466,29,Female,2020-10-21_14h23.40.601,torte-q,2020.1.3,Win32,60,13322,0.885145,,,,,,,,,,,,,,,,,,,,,,,,,,,,,,,,,,,,,,,,,,,,
,,,,,,,,,,,,l,Incorrect,0,22,22,65,1,t4.png,t5.png,1,0.90025,29,Female,2020-10-21_14h23.40.601,torte-q,2020.1.3,Win32,60,13322,1.850665,,,,,,,,,,,,,,,,,,,,,,,,,,,,,,,,,,,,,,,,,,,,
,,,,,,,,,,,,l,Correct!,0,23,23,50,1,t5.png,t1.png,4,9.55E-11,29,Female,2020-10-21_14h23.40.601,torte-q,2020.1.3,Win32,60,13322,1.133135,,,,,,,,,,,,,,,,,,,,,,,,,,,,,,,,,,,,,,,,,,,,
,,,,,,,,,,,,l,Correct!,0,24,24,33,1,t5.png,t1.png,4,9.55E-11,29,Female,2020-10-21_14h23.40.601,torte-q,2020.1.3,Win32,60,13322,0.948885,,,,,,,,,,,,,,,,,,,,,,,,,,,,,,,,,,,,,,,,,,,,
,,,,,,,,,,,,a,Incorrect,0,25,25,103,1,t3.png,t1.png,2,0.056466,29,Female,2020-10-21_14h23.40.601,torte-q,2020.1.3,Win32,60,13322,0.966695,,,,,,,,,,,,,,,,,,,,,,,,,,,,,,,,,,,,,,,,,,,,
,,,,,,,,,,,,l,Correct!,0,26,26,115,1,t2.png,t4.png,2,0.059078,29,Female,2020-10-21_14h23.40.601,torte-q,2020.1.3,Win32,60,13322,1.48449,,,,,,,,,,,,,,,,,,,,,,,,,,,,,,,,,,,,,,,,,,,,
,,,,,,,,,,,,l,Correct!,0,27,27,52,1,t2.png,t4.png,2,0.059078,29,Female,2020-10-21_14h23.40.601,torte-q,2020.1.3,Win32,60,13322,1.980555,,,,,,,,,,,,,,,,,,,,,,,,,,,,,,,,,,,,,,,,,,,,
,,,,,,,,,,,,a,Incorrect,0,28,28,6,1,t1.png,t4.png,3,0.0000131,29,Female,2020-10-21_14h23.40.601,torte-q,2020.1.3,Win32,60,13322,1.881405,,,,,,,,,,,,,,,,,,,,,,,,,,,,,,,,,,,,,,,,,,,,
,,,,,,,,,,,,l,Correct!,0,29,29,43,1,t4.png,t2.png,2,0.059078,29,Female,2020-10-21_14h23.40.601,torte-q,2020.1.3,Win32,60,13322,2.01891,,,,,,,,,,,,,,,,,,,,,,,,,,,,,,,,,,,,,,,,,,,,
,,,,,,,,,,,,l,Correct!,0,30,30,57,1,t2.png,t4.png,2,0.059078,29,Female,2020-10-21_14h23.40.601,torte-q,2020.1.3,Win32,60,13322,0.7323,,,,,,,,,,,,,,,,,,,,,,,,,,,,,,,,,,,,,,,,,,,,
,,,,,,,,,,,,a,Correct!,0,31,31,29,1,t5.png,t5.png,0,0.97829,29,Female,2020-10-21_14h23.40.601,torte-q,2020.1.3,Win32,60,13322,1.260615,,,,,,,,,,,,,,,,,,,,,,,,,,,,,,,,,,,,,,,,,,,,
,,,,,,,,,,,,a,Incorrect,0,32,32,30,1,t3.png,t1.png,2,0.056466,29,Female,2020-10-21_14h23.40.601,torte-q,2020.1.3,Win32,60,13322,2.134365,,,,,,,,,,,,,,,,,,,,,,,,,,,,,,,,,,,,,,,,,,,,
,,,,,,,,,,,,l,Correct!,0,33,33,72,1,t4.png,t2.png,2,0.059078,29,Female,2020-10-21_14h23.40.601,torte-q,2020.1.3,Win32,60,13322,1.03038,,,,,,,,,,,,,,,,,,,,,,,,,,,,,,,,,,,,,,,,,,,,
,,,,,,,,,,,,l,Correct!,0,34,34,99,1,t1.png,t5.png,4,9.55E-11,29,Female,2020-10-21_14h23.40.601,torte-q,2020.1.3,Win32,60,13322,0.916815,,,,,,,,,,,,,,,,,,,,,,,,,,,,,,,,,,,,,,,,,,,,
,,,,,,,,,,,,l,Correct!,0,35,35,47,1,t4.png,t2.png,2,0.059078,29,Female,2020-10-21_14h23.40.601,torte-q,2020.1.3,Win32,60,13322,0.83712,,,,,,,,,,,,,,,,,,,,,,,,,,,,,,,,,,,,,,,,,,,,
,,,,,,,,,,,,a,Correct!,0,36,36,63,1,t2.png,t3.png,1,0.909,29,Female,2020-10-21_14h23.40.601,torte-q,2020.1.3,Win32,60,13322,1.20652,,,,,,,,,,,,,,,,,,,,,,,,,,,,,,,,,,,,,,,,,,,,
,,,,,,,,,,,,a,Correct!,0,37,37,95,1,t1.png,t1.png,0,0.978,29,Female,2020-10-21_14h23.40.601,torte-q,2020.1.3,Win32,60,13322,1.9142,,,,,,,,,,,,,,,,,,,,,,,,,,,,,,,,,,,,,,,,,,,,
,,,,,,,,,,,,l,Correct!,0,38,38,0,1,t5.png,t1.png,4,9.55E-11,29,Female,2020-10-21_14h23.40.601,torte-q,2020.1.3,Win32,60,13322,1.06338,,,,,,,,,,,,,,,,,,,,,,,,,,,,,,,,,,,,,,,,,,,,
,,,,,,,,,,,,l,Correct!,0,39,39,119,1,t1.png,t5.png,4,9.55E-11,29,Female,2020-10-21_14h23.40.601,torte-q,2020.1.3,Win32,60,13322,2.3809,,,,,,,,,,,,,,,,,,,,,,,,,,,,,,,,,,,,,,,,,,,,
,,,,,,,,,,,,l,Incorrect,0,40,40,18,1,t4.png,t5.png,1,0.90025,29,Female,2020-10-21_14h23.40.601,torte-q,2020.1.3,Win32,60,13322,1.23161,,,,,,,,,,,,,,,,,,,,,,,,,,,,,,,,,,,,,,,,,,,,
,,,,,,,,,,,,a,Correct!,0,41,41,70,1,t5.png,t5.png,0,0.978,29,Female,2020-10-21_14h23.40.601,torte-q,2020.1.3,Win32,60,13322,1.455485,,,,,,,,,,,,,,,,,,,,,,,,,,,,,,,,,,,,,,,,,,,,
,,,,,,,,,,,,a,Correct!,0,42,42,106,1,t2.png,t3.png,1,0.90855,29,Female,2020-10-21_14h23.40.601,torte-q,2020.1.3,Win32,60,13322,1.696725,,,,,,,,,,,,,,,,,,,,,,,,,,,,,,,,,,,,,,,,,,,,
,,,,,,,,,,,,a,Correct!,0,43,43,10,1,t2.png,t3.png,1,0.90855,29,Female,2020-10-21_14h23.40.601,torte-q,2020.1.3,Win32,60,13322,0.68969,,,,,,,,,,,,,,,,,,,,,,,,,,,,,,,,,,,,,,,,,,,,
,,,,,,,,,,,,a,Correct!,0,44,44,104,1,t2.png,t3.png,1,0.90855,29,Female,2020-10-21_14h23.40.601,torte-q,2020.1.3,Win32,60,13322,1.09736,,,,,,,,,,,,,,,,,,,,,,,,,,,,,,,,,,,,,,,,,,,,
,,,,,,,,,,,,l,Correct!,0,45,45,46,1,t4.png,t2.png,2,0.059078,29,Female,2020-10-21_14h23.40.601,torte-q,2020.1.3,Win32,60,13322,1.51105,,,,,,,,,,,,,,,,,,,,,,,,,,,,,,,,,,,,,,,,,,,,
,,,,,,,,,,,,l,Correct!,0,46,46,19,1,t4.png,t2.png,2,0.059078,29,Female,2020-10-21_14h23.40.601,torte-q,2020.1.3,Win32,60,13322,0.773415,,,,,,,,,,,,,,,,,,,,,,,,,,,,,,,,,,,,,,,,,,,,
,,,,,,,,,,,,l,Incorrect,0,47,47,7,1,t4.png,t5.png,1,0.90025,29,Female,2020-10-21_14h23.40.601,torte-q,2020.1.3,Win32,60,13322,0.916275,,,,,,,,,,,,,,,,,,,,,,,,,,,,,,,,,,,,,,,,,,,,
,,,,,,,,,,,,l,Correct!,0,48,48,108,1,t5.png,t1.png,4,9.55E-11,29,Female,2020-10-21_14h23.40.601,torte-q,2020.1.3,Win32,60,13322,1.46486,,,,,,,,,,,,,,,,,,,,,,,,,,,,,,,,,,,,,,,,,,,,
,,,,,,,,,,,,a,Correct!,0,49,49,34,1,t5.png,t4.png,1,0.9,29,Female,2020-10-21_14h23.40.601,torte-q,2020.1.3,Win32,60,13322,0.79835,,,,,,,,,,,,,,,,,,,,,,,,,,,,,,,,,,,,,,,,,,,,
,,,,,,,,,,,,a,Correct!,0,50,50,107,1,t1.png,t1.png,0,0.978,29,Female,2020-10-21_14h23.40.601,torte-q,2020.1.3,Win32,60,13322,0.804205,,,,,,,,,,,,,,,,,,,,,,,,,,,,,,,,,,,,,,,,,,,,
,,,,,,,,,,,,a,Correct!,0,51,51,39,1,t3.png,t2.png,1,0.90855,29,Female,2020-10-21_14h23.40.601,torte-q,2020.1.3,Win32,60,13322,1.298425,,,,,,,,,,,,,,,,,,,,,,,,,,,,,,,,,,,,,,,,,,,,
,,,,,,,,,,,,a,Incorrect,0,52,52,58,1,t5.png,t4.png,1,0.90025,29,Female,2020-10-21_14h23.40.601,torte-q,2020.1.3,Win32,60,13322,0.81374,,,,,,,,,,,,,,,,,,,,,,,,,,,,,,,,,,,,,,,,,,,,
,,,,,,,,,,,,a,Incorrect,0,53,53,45,1,t3.png,t2.png,1,0.90855,29,Female,2020-10-21_14h23.40.601,torte-q,2020.1.3,Win32,60,13322,2.004555,,,,,,,,,,,,,,,,,,,,,,,,,,,,,,,,,,,,,,,,,,,,
,,,,,,,,,,,,l,Incorrect,0,54,54,85,1,t3.png,t2.png,1,0.90855,29,Female,2020-10-21_14h23.40.601,torte-q,2020.1.3,Win32,60,13322,1.130235,,,,,,,,,,,,,,,,,,,,,,,,,,,,,,,,,,,,,,,,,,,,
,,,,,,,,,,,,l,Incorrect,0,55,55,49,1,t4.png,t5.png,1,0.9,29,Female,2020-10-21_14h23.40.601,torte-q,2020.1.3,Win32,60,13322,1.22055,,,,,,,,,,,,,,,,,,,,,,,,,,,,,,,,,,,,,,,,,,,,
,,,,,,,,,,,,l,Incorrect,0,56,56,118,1,t5.png,t5.png,0,0.978,29,Female,2020-10-21_14h23.40.601,torte-q,2020.1.3,Win32,60,13322,1.68275,,,,,,,,,,,,,,,,,,,,,,,,,,,,,,,,,,,,,,,,,,,,
,,,,,,,,,,,,a,Correct!,0,57,57,44,1,t2.png,t3.png,1,0.909,29,Female,2020-10-21_14h23.40.601,torte-q,2020.1.3,Win32,60,13322,1.38375,,,,,,,,,,,,,,,,,,,,,,,,,,,,,,,,,,,,,,,,,,,,
,,,,,,,,,,,,a,Correct!,0,58,58,51,1,t3.png,t1.png,2,0.056466,29,Female,2020-10-21_14h23.40.601,torte-q,2020.1.3,Win32,60,13322,1.453245,,,,,,,,,,,,,,,,,,,,,,,,,,,,,,,,,,,,,,,,,,,,
,,,,,,,,,,,,a,Correct!,0,59,59,8,1,t3.png,t2.png,1,0.90855,29,Female,2020-10-21_14h23.40.601,torte-q,2020.1.3,Win32,60,13322,0.835695,,,,,,,,,,,,,,,,,,,,,,,,,,,,,,,,,,,,,,,,,,,,
,,,,,,,,,,,,a,Correct!,0,60,60,76,1,t3.png,t2.png,1,0.90855,29,Female,2020-10-21_14h23.40.601,torte-q,2020.1.3,Win32,60,13322,0.74931,,,,,,,,,,,,,,,,,,,,,,,,,,,,,,,,,,,,,,,,,,,,
,,,,,,,,,,,,l,Correct!,0,61,61,12,1,t5.png,t1.png,4,9.55E-11,29,Female,2020-10-21_14h23.40.601,torte-q,2020.1.3,Win32,60,13322,1.63133,,,,,,,,,,,,,,,,,,,,,,,,,,,,,,,,,,,,,,,,,,,,
,,,,,,,,,,,,l,Correct!,0,62,62,69,1,t4.png,t2.png,2,0.059078,29,Female,2020-10-21_14h23.40.601,torte-q,2020.1.3,Win32,60,13322,1.319855,,,,,,,,,,,,,,,,,,,,,,,,,,,,,,,,,,,,,,,,,,,,
,,,,,,,,,,,,l,Correct!,0,63,63,93,1,t2.png,t4.png,2,0.059078,29,Female,2020-10-21_14h23.40.601,torte-q,2020.1.3,Win32,60,13322,1.31581,,,,,,,,,,,,,,,,,,,,,,,,,,,,,,,,,,,,,,,,,,,,
,,,,,,,,,,,,a,Incorrect,0,64,64,53,1,t3.png,t1.png,2,0.056466,29,Female,2020-10-21_14h23.40.601,torte-q,2020.1.3,Win32,60,13322,0.81712,,,,,,,,,,,,,,,,,,,,,,,,,,,,,,,,,,,,,,,,,,,,
,,,,,,,,,,,,l,Correct!,0,65,65,1,1,t2.png,t4.png,2,0.059078,29,Female,2020-10-21_14h23.40.601,torte-q,2020.1.3,Win32,60,13322,1.201665,,,,,,,,,,,,,,,,,,,,,,,,,,,,,,,,,,,,,,,,,,,,
,,,,,,,,,,,,l,Correct!,0,66,66,88,1,t3.png,t1.png,2,0.056466,29,Female,2020-10-21_14h23.40.601,torte-q,2020.1.3,Win32,60,13322,0.93037,,,,,,,,,,,,,,,,,,,,,,,,,,,,,,,,,,,,,,,,,,,,
,,,,,,,,,,,,l,Correct!,0,67,67,73,1,t4.png,t2.png,2,0.059078,29,Female,2020-10-21_14h23.40.601,torte-q,2020.1.3,Win32,60,13322,1.99462,,,,,,,,,,,,,,,,,,,,,,,,,,,,,,,,,,,,,,,,,,,,
,,,,,,,,,,,,a,Incorrect,0,68,68,83,1,t3.png,t1.png,2,0.056466,29,Female,2020-10-21_14h23.40.601,torte-q,2020.1.3,Win32,60,13322,1.35458,,,,,,,,,,,,,,,,,,,,,,,,,,,,,,,,,,,,,,,,,,,,
,,,,,,,,,,,,l,Correct!,0,69,69,26,1,t4.png,t2.png,2,0.0591,29,Female,2020-10-21_14h23.40.601,torte-q,2020.1.3,Win32,60,13322,2.033045,,,,,,,,,,,,,,,,,,,,,,,,,,,,,,,,,,,,,,,,,,,,
,,,,,,,,,,,,a,Correct!,0,70,70,28,1,t2.png,t3.png,1,0.909,29,Female,2020-10-21_14h23.40.601,torte-q,2020.1.3,Win32,60,13322,2.21433,,,,,,,,,,,,,,,,,,,,,,,,,,,,,,,,,,,,,,,,,,,,
,,,,,,,,,,,,l,Incorrect,0,71,71,62,1,t5.png,t5.png,0,0.978,29,Female,2020-10-21_14h23.40.601,torte-q,2020.1.3,Win32,60,13322,1.415195,,,,,,,,,,,,,,,,,,,,,,,,,,,,,,,,,,,,,,,,,,,,
,,,,,,,,,,,,l,Incorrect,0,72,72,96,1,t1.png,t1.png,0,0.97829,29,Female,2020-10-21_14h23.40.601,torte-q,2020.1.3,Win32,60,13322,1.431415,,,,,,,,,,,,,,,,,,,,,,,,,,,,,,,,,,,,,,,,,,,,
,,,,,,,,,,,,l,Incorrect,0,73,73,9,1,t4.png,t5.png,1,0.9,29,Female,2020-10-21_14h23.40.601,torte-q,2020.1.3,Win32,60,13322,1.26461,,,,,,,,,,,,,,,,,,,,,,,,,,,,,,,,,,,,,,,,,,,,
,,,,,,,,,,,,l,Correct!,0,74,74,94,1,t5.png,t1.png,4,9.55E-11,29,Female,2020-10-21_14h23.40.601,torte-q,2020.1.3,Win32,60,13322,1.120065,,,,,,,,,,,,,,,,,,,,,,,,,,,,,,,,,,,,,,,,,,,,
,,,,,,,,,,,,a,Correct!,0,75,75,75,1,t1.png,t1.png,0,0.97829,29,Female,2020-10-21_14h23.40.601,torte-q,2020.1.3,Win32,60,13322,0.832775,,,,,,,,,,,,,,,,,,,,,,,,,,,,,,,,,,,,,,,,,,,,
,,,,,,,,,,,,l,Incorrect,0,76,76,110,1,t4.png,t5.png,1,0.90025,29,Female,2020-10-21_14h23.40.601,torte-q,2020.1.3,Win32,60,13322,1.23237,,,,,,,,,,,,,,,,,,,,,,,,,,,,,,,,,,,,,,,,,,,,
,,,,,,,,,,,,a,Correct!,0,77,77,27,1,t3.png,t1.png,2,0.0565,29,Female,2020-10-21_14h23.40.601,torte-q,2020.1.3,Win32,60,13322,1.153805,,,,,,,,,,,,,,,,,,,,,,,,,,,,,,,,,,,,,,,,,,,,
,,,,,,,,,,,,a,Correct!,0,78,78,101,1,t4.png,t5.png,1,0.90025,29,Female,2020-10-21_14h23.40.601,torte-q,2020.1.3,Win32,60,13322,1.753405,,,,,,,,,,,,,,,,,,,,,,,,,,,,,,,,,,,,,,,,,,,,
,,,,,,,,,,,,a,Correct!,0,79,79,59,1,t5.png,t4.png,1,0.9,29,Female,2020-10-21_14h23.40.601,torte-q,2020.1.3,Win32,60,13322,1.147885,,,,,,,,,,,,,,,,,,,,,,,,,,,,,,,,,,,,,,,,,,,,
,,,,,,,,,,,,,Too slow :(,0,80,80,11,1,t1.png,t4.png,3,0.0000131,29,Female,2020-10-21_14h23.40.601,torte-q,2020.1.3,Win32,60,13322,,,,,,,,,,,,,,,,,,,,,,,,,,,,,,,,,,,,,,,,,,,,,
,,,,,,,,,,,,l,Correct!,0,81,81,5,1,t2.png,t4.png,2,0.059078,29,Female,2020-10-21_14h23.40.601,torte-q,2020.1.3,Win32,60,13322,1.135115,,,,,,,,,,,,,,,,,,,,,,,,,,,,,,,,,,,,,,,,,,,,
,,,,,,,,,,,,a,Correct!,0,82,82,112,1,t1.png,t1.png,0,0.97829,29,Female,2020-10-21_14h23.40.601,torte-q,2020.1.3,Win32,60,13322,0.67858,,,,,,,,,,,,,,,,,,,,,,,,,,,,,,,,,,,,,,,,,,,,
,,,,,,,,,,,,a,Correct!,0,83,83,113,1,t5.png,t4.png,1,0.9,29,Female,2020-10-21_14h23.40.601,torte-q,2020.1.3,Win32,60,13322,2.16741,,,,,,,,,,,,,,,,,,,,,,,,,,,,,,,,,,,,,,,,,,,,
,,,,,,,,,,,,a,Correct!,0,84,84,109,1,t5.png,t5.png,0,0.97829,29,Female,2020-10-21_14h23.40.601,torte-q,2020.1.3,Win32,60,13322,0.697715,,,,,,,,,,,,,,,,,,,,,,,,,,,,,,,,,,,,,,,,,,,,
,,,,,,,,,,,,a,Correct!,0,85,85,84,1,t1.png,t1.png,0,0.97829,29,Female,2020-10-21_14h23.40.601,torte-q,2020.1.3,Win32,60,13322,1.19663,,,,,,,,,,,,,,,,,,,,,,,,,,,,,,,,,,,,,,,,,,,,
,,,,,,,,,,,,l,Correct!,0,86,86,87,1,t5.png,t1.png,4,9.55E-11,29,Female,2020-10-21_14h23.40.601,torte-q,2020.1.3,Win32,60,13322,1.49781,,,,,,,,,,,,,,,,,,,,,,,,,,,,,,,,,,,,,,,,,,,,
,,,,,,,,,,,,a,Correct!,0,87,87,92,1,t2.png,t3.png,1,0.909,29,Female,2020-10-21_14h23.40.601,torte-q,2020.1.3,Win32,60,13322,1.680585,,,,,,,,,,,,,,,,,,,,,,,,,,,,,,,,,,,,,,,,,,,,
,,,,,,,,,,,,a,Incorrect,0,88,88,17,1,t1.png,t4.png,3,0.0000131,29,Female,2020-10-21_14h23.40.601,torte-q,2020.1.3,Win32,60,13322,1.06823,,,,,,,,,,,,,,,,,,,,,,,,,,,,,,,,,,,,,,,,,,,,
,,,,,,,,,,,,a,Correct!,0,89,89,64,1,t1.png,t1.png,0,0.978,29,Female,2020-10-21_14h23.40.601,torte-q,2020.1.3,Win32,60,13322,2.38464,,,,,,,,,,,,,,,,,,,,,,,,,,,,,,,,,,,,,,,,,,,,
,,,,,,,,,,,,a,Correct!,0,90,90,100,1,t4.png,t5.png,1,0.90025,29,Female,2020-10-21_14h23.40.601,torte-q,2020.1.3,Win32,60,13322,1.501845,,,,,,,,,,,,,,,,,,,,,,,,,,,,,,,,,,,,,,,,,,,,
,,,,,,,,,,,,a,Incorrect,0,91,91,80,1,t1.png,t4.png,3,0.0000131,29,Female,2020-10-21_14h23.40.601,torte-q,2020.1.3,Win32,60,13322,1.236175,,,,,,,,,,,,,,,,,,,,,,,,,,,,,,,,,,,,,,,,,,,,
,,,,,,,,,,,,l,Correct!,0,92,92,14,1,t2.png,t4.png,2,0.059078,29,Female,2020-10-21_14h23.40.601,torte-q,2020.1.3,Win32,60,13322,2.18454,,,,,,,,,,,,,,,,,,,,,,,,,,,,,,,,,,,,,,,,,,,,
,,,,,,,,,,,,a,Correct!,0,93,93,13,1,t5.png,t5.png,0,0.97829,29,Female,2020-10-21_14h23.40.601,torte-q,2020.1.3,Win32,60,13322,1.07599,,,,,,,,,,,,,,,,,,,,,,,,,,,,,,,,,,,,,,,,,,,,
,,,,,,,,,,,,l,Incorrect,0,94,94,81,1,t1.png,t1.png,0,0.97829,29,Female,2020-10-21_14h23.40.601,torte-q,2020.1.3,Win32,60,13322,1.968955,,,,,,,,,,,,,,,,,,,,,,,,,,,,,,,,,,,,,,,,,,,,
,,,,,,,,,,,,l,Correct!,0,95,95,68,1,t1.png,t4.png,3,0.0000131,29,Female,2020-10-21_14h23.40.601,torte-q,2020.1.3,Win32,60,13322,1.56883,,,,,,,,,,,,,,,,,,,,,,,,,,,,,,,,,,,,,,,,,,,,
,,,,,,,,,,,,l,Incorrect,0,96,96,15,1,t3.png,t2.png,1,0.90855,29,Female,2020-10-21_14h23.40.601,torte-q,2020.1.3,Win32,60,13322,1.220235,,,,,,,,,,,,,,,,,,,,,,,,,,,,,,,,,,,,,,,,,,,,
,,,,,,,,,,,,l,Incorrect,0,97,97,21,1,t5.png,t4.png,1,0.90025,29,Female,2020-10-21_14h23.40.601,torte-q,2020.1.3,Win32,60,13322,0.96846,,,,,,,,,,,,,,,,,,,,,,,,,,,,,,,,,,,,,,,,,,,,
,,,,,,,,,,,,a,Correct!,0,98,98,48,1,t5.png,t5.png,0,0.97829,29,Female,2020-10-21_14h23.40.601,torte-q,2020.1.3,Win32,60,13322,0.889405,,,,,,,,,,,,,,,,,,,,,,,,,,,,,,,,,,,,,,,,,,,,
,,,,,,,,,,,,l,Correct!,0,99,99,61,1,t1.png,t4.png,3,0.0000131,29,Female,2020-10-21_14h23.40.601,torte-q,2020.1.3,Win32,60,13322,1.233775,,,,,,,,,,,,,,,,,,,,,,,,,,,,,,,,,,,,,,,,,,,,
,,,,,,,,,,,,a,Correct!,0,100,100,77,1,t1.png,t1.png,0,0.97829,29,Female,2020-10-21_14h23.40.601,torte-q,2020.1.3,Win32,60,13322,1.164655,,,,,,,,,,,,,,,,,,,,,,,,,,,,,,,,,,,,,,,,,,,,
,,,,,,,,,,,,l,Correct!,0,101,101,67,1,t1.png,t5.png,4,9.55E-11,29,Female,2020-10-21_14h23.40.601,torte-q,2020.1.3,Win32,60,13322,1.23057,,,,,,,,,,,,,,,,,,,,,,,,,,,,,,,,,,,,,,,,,,,,
,,,,,,,,,,,,a,Correct!,0,102,102,16,1,t5.png,t4.png,1,0.9,29,Female,2020-10-21_14h23.40.601,torte-q,2020.1.3,Win32,60,13322,1.15246,,,,,,,,,,,,,,,,,,,,,,,,,,,,,,,,,,,,,,,,,,,,
,,,,,,,,,,,,l,Incorrect,0,103,103,41,1,t3.png,t2.png,1,0.90855,29,Female,2020-10-21_14h23.40.601,torte-q,2020.1.3,Win32,60,13322,1.08803,,,,,,,,,,,,,,,,,,,,,,,,,,,,,,,,,,,,,,,,,,,,
,,,,,,,,,,,,l,Correct!,0,104,104,60,1,t2.png,t4.png,2,0.059078,29,Female,2020-10-21_14h23.40.601,torte-q,2020.1.3,Win32,60,13322,1.34782,,,,,,,,,,,,,,,,,,,,,,,,,,,,,,,,,,,,,,,,,,,,
,,,,,,,,,,,,a,Correct!,0,105,105,42,1,t5.png,t4.png,1,0.90025,29,Female,2020-10-21_14h23.40.601,torte-q,2020.1.3,Win32,60,13322,0.715245,,,,,,,,,,,,,,,,,,,,,,,,,,,,,,,,,,,,,,,,,,,,
,,,,,,,,,,,,a,Incorrect,0,106,106,36,1,t3.png,t1.png,2,0.0565,29,Female,2020-10-21_14h23.40.601,torte-q,2020.1.3,Win32,60,13322,2.01399,,,,,,,,,,,,,,,,,,,,,,,,,,,,,,,,,,,,,,,,,,,,
,,,,,,,,,,,,l,Correct!,0,107,107,40,1,t1.png,t5.png,4,9.55E-11,29,Female,2020-10-21_14h23.40.601,torte-q,2020.1.3,Win32,60,13322,1.05696,,,,,,,,,,,,,,,,,,,,,,,,,,,,,,,,,,,,,,,,,,,,
,,,,,,,,,,,,l,Correct!,0,108,108,38,1,t3.png,t1.png,2,0.056466,29,Female,2020-10-21_14h23.40.601,torte-q,2020.1.3,Win32,60,13322,1.735035,,,,,,,,,,,,,,,,,,,,,,,,,,,,,,,,,,,,,,,,,,,,
,,,,,,,,,,,,,Too slow :(,0,109,109,74,1,t5.png,t4.png,1,0.9,29,Female,2020-10-21_14h23.40.601,torte-q,2020.1.3,Win32,60,13322,,,,,,,,,,,,,,,,,,,,,,,,,,,,,,,,,,,,,,,,,,,,,
,,,,,,,,,,,,,Too slow :(,0,110,110,66,1,t4.png,t5.png,1,0.9,29,Female,2020-10-21_14h23.40.601,torte-q,2020.1.3,Win32,60,13322,,,,,,,,,,,,,,,,,,,,,,,,,,,,,,,,,,,,,,,,,,,,,
,,,,,,,,,,,,l,Correct!,0,111,111,4,1,t1.png,t5.png,4,9.55E-11,29,Female,2020-10-21_14h23.40.601,torte-q,2020.1.3,Win32,60,13322,1.06448,,,,,,,,,,,,,,,,,,,,,,,,,,,,,,,,,,,,,,,,,,,,
,,,,,,,,,,,,l,Incorrect,0,112,112,25,1,t5.png,t5.png,0,0.97829,29,Female,2020-10-21_14h23.40.601,torte-q,2020.1.3,Win32,60,13322,1.787955,,,,,,,,,,,,,,,,,,,,,,,,,,,,,,,,,,,,,,,,,,,,
,,,,,,,,,,,,l,Correct!,0,113,113,3,1,t1.png,t5.png,4,9.55E-11,29,Female,2020-10-21_14h23.40.601,torte-q,2020.1.3,Win32,60,13322,0.890605,,,,,,,,,,,,,,,,,,,,,,,,,,,,,,,,,,,,,,,,,,,,
,,,,,,,,,,,,l,Correct!,0,114,114,82,1,t5.png,t1.png,4,9.55E-11,29,Female,2020-10-21_14h23.40.601,torte-q,2020.1.3,Win32,60,13322,1.1331,,,,,,,,,,,,,,,,,,,,,,,,,,,,,,,,,,,,,,,,,,,,
,,,,,,,,,,,,l,Correct!,0,115,115,54,1,t1.png,t5.png,4,9.55E-11,29,Female,2020-10-21_14h23.40.601,torte-q,2020.1.3,Win32,60,13322,0.71451,,,,,,,,,,,,,,,,,,,,,,,,,,,,,,,,,,,,,,,,,,,,
,,,,,,,,,,,,a,Correct!,0,116,116,71,1,t5.png,t5.png,0,0.97829,29,Female,2020-10-21_14h23.40.601,torte-q,2020.1.3,Win32,60,13322,0.946225,,,,,,,,,,,,,,,,,,,,,,,,,,,,,,,,,,,,,,,,,,,,
,,,,,,,,,,,,a,Incorrect,0,117,117,89,1,t1.png,t4.png,3,0.0000131,29,Female,2020-10-21_14h23.40.601,torte-q,2020.1.3,Win32,60,13322,1.098685,,,,,,,,,,,,,,,,,,,,,,,,,,,,,,,,,,,,,,,,,,,,
,,,,,,,,,,,,l,Incorrect,0,118,118,97,1,t5.png,t5.png,0,0.97829,29,Female,2020-10-21_14h23.40.601,torte-q,2020.1.3,Win32,60,13322,0.96999,,,,,,,,,,,,,,,,,,,,,,,,,,,,,,,,,,,,,,,,,,,,
,,,,,,,,,,,,a,Correct!,0,119,119,78,1,t1.png,t1.png,0,0.978,29,Female,2020-10-21_14h23.40.601,torte-q,2020.1.3,Win32,60,13322,1.065895,,,,,,,,,,,,,,,,,,,,,,,,,,,,,,,,,,,,,,,,,,,,
,,,,,,,,,,,,a,Incorrect,,,,,,t3.png,t1.png,2,0.056466,29,Female,2020-10-21_14h23.40.601,torte-q,2020.1.3,Win32,60,13322,1.899495,space,1.314105,space,18.733295,0,0,0,32,1,,,,,,,,,,,,,,,,,,,,,,,,,,,,,,,,,,,
,,,,,,,,,,,,a,Correct!,,,,,,t1.png,t2.png,1,0.90025,29,Female,2020-10-21_14h23.40.601,torte-q,2020.1.3,Win32,60,13322,1.201475,,,,,0,1,1,72,1,,,,,,,,,,,,,,,,,,,,,,,,,,,,,,,,,,,
,,,,,,,,,,,,a,Incorrect,,,,,,t1.png,t4.png,3,0.0000131,29,Female,2020-10-21_14h23.40.601,torte-q,2020.1.3,Win32,60,13322,1.07158,,,,,0,2,2,92,1,,,,,,,,,,,,,,,,,,,,,,,,,,,,,,,,,,,
,,,,,,,,,,,,a,Incorrect,,,,,,t1.png,t4.png,3,0.0000131,29,Female,2020-10-21_14h23.40.601,torte-q,2020.1.3,Win32,60,13322,0.917625,,,,,0,3,3,107,1,,,,,,,,,,,,,,,,,,,,,,,,,,,,,,,,,,,
,,,,,,,,,,,,a,Correct!,,,,,,t5.png,t4.png,1,0.90025,29,Female,2020-10-21_14h23.40.601,torte-q,2020.1.3,Win32,60,13322,1.02075,,,,,0,4,4,34,1,,,,,,,,,,,,,,,,,,,,,,,,,,,,,,,,,,,
,,,,,,,,,,,,a,Incorrect,,,,,,t5.png,t3.png,2,0.056466,29,Female,2020-10-21_14h23.40.601,torte-q,2020.1.3,Win32,60,13322,0.71099,,,,,0,5,5,114,1,,,,,,,,,,,,,,,,,,,,,,,,,,,,,,,,,,,
,,,,,,,,,,,,a,Correct!,,,,,,t4.png,t4.png,0,0.98115,29,Female,2020-10-21_14h23.40.601,torte-q,2020.1.3,Win32,60,13322,2.388435,,,,,0,6,6,90,1,,,,,,,,,,,,,,,,,,,,,,,,,,,,,,,,,,,
,,,,,,,,,,,,a,Correct!,,,,,,t4.png,t5.png,1,0.9,29,Female,2020-10-21_14h23.40.601,torte-q,2020.1.3,Win32,60,13322,1.24699,,,,,0,7,7,115,1,,,,,,,,,,,,,,,,,,,,,,,,,,,,,,,,,,,
,,,,,,,,,,,,a,Incorrect,,,,,,t2.png,t5.png,3,0.0000131,29,Female,2020-10-21_14h23.40.601,torte-q,2020.1.3,Win32,60,13322,0.997165,,,,,0,8,8,8,1,,,,,,,,,,,,,,,,,,,,,,,,,,,,,,,,,,,
,,,,,,,,,,,,l,Correct!,,,,,,t3.png,t5.png,2,0.056466,29,Female,2020-10-21_14h23.40.601,torte-q,2020.1.3,Win32,60,13322,1.888665,,,,,0,9,9,14,1,,,,,,,,,,,,,,,,,,,,,,,,,,,,,,,,,,,
,,,,,,,,,,,,a,Correct!,,,,,,t5.png,t5.png,0,0.97829,29,Female,2020-10-21_14h23.40.601,torte-q,2020.1.3,Win32,60,13322,1.79891,,,,,0,10,10,73,1,,,,,,,,,,,,,,,,,,,,,,,,,,,,,,,,,,,
,,,,,,,,,,,,a,Correct!,,,,,,t3.png,t4.png,1,0.90855,29,Female,2020-10-21_14h23.40.601,torte-q,2020.1.3,Win32,60,13322,1.486615,,,,,0,11,11,84,1,,,,,,,,,,,,,,,,,,,,,,,,,,,,,,,,,,,
,,,,,,,,,,,,a,Correct!,,,,,,t1.png,t1.png,0,0.97829,29,Female,2020-10-21_14h23.40.601,torte-q,2020.1.3,Win32,60,13322,1.847395,,,,,0,12,12,78,1,,,,,,,,,,,,,,,,,,,,,,,,,,,,,,,,,,,
,,,,,,,,,,,,l,Correct!,,,,,,t3.png,t5.png,2,0.056466,29,Female,2020-10-21_14h23.40.601,torte-q,2020.1.3,Win32,60,13322,0.832385,,,,,0,13,13,6,1,,,,,,,,,,,,,,,,,,,,,,,,,,,,,,,,,,,
,,,,,,,,,,,,a,Incorrect,,,,,,t1.png,t4.png,3,0.0000131,29,Female,2020-10-21_14h23.40.601,torte-q,2020.1.3,Win32,60,13322,1.19329,,,,,0,14,14,81,1,,,,,,,,,,,,,,,,,,,,,,,,,,,,,,,,,,,
,,,,,,,,,,,,a,Correct!,,,,,,t4.png,t5.png,1,0.90025,29,Female,2020-10-21_14h23.40.601,torte-q,2020.1.3,Win32,60,13322,1.96651,,,,,0,15,15,103,1,,,,,,,,,,,,,,,,,,,,,,,,,,,,,,,,,,,
,,,,,,,,,,,,a,Incorrect,,,,,,t4.png,t1.png,3,0.0000131,29,Female,2020-10-21_14h23.40.601,torte-q,2020.1.3,Win32,60,13322,1.552255,,,,,0,16,16,48,1,,,,,,,,,,,,,,,,,,,,,,,,,,,,,,,,,,,
,,,,,,,,,,,,a,Correct!,,,,,,t5.png,t5.png,0,0.978,29,Female,2020-10-21_14h23.40.601,torte-q,2020.1.3,Win32,60,13322,1.464775,,,,,0,17,17,117,1,,,,,,,,,,,,,,,,,,,,,,,,,,,,,,,,,,,
,,,,,,,,,,,,a,Correct!,,,,,,t1.png,t2.png,1,0.9,29,Female,2020-10-21_14h23.40.601,torte-q,2020.1.3,Win32,60,13322,1.83089,,,,,0,18,18,1,1,,,,,,,,,,,,,,,,,,,,,,,,,,,,,,,,,,,
,,,,,,,,,,,,l,Correct!,,,,,,t4.png,t2.png,2,0.059078,29,Female,2020-10-21_14h23.40.601,torte-q,2020.1.3,Win32,60,13322,1.764575,,,,,0,19,19,109,1,,,,,,,,,,,,,,,,,,,,,,,,,,,,,,,,,,,
,,,,,,,,,,,,a,Incorrect,,,,,,t1.png,t4.png,3,0.0000131,29,Female,2020-10-21_14h23.40.601,torte-q,2020.1.3,Win32,60,13322,1.064545,,,,,0,20,20,50,1,,,,,,,,,,,,,,,,,,,,,,,,,,,,,,,,,,,
,,,,,,,,,,,,a,Correct!,,,,,,t4.png,t5.png,1,0.90025,29,Female,2020-10-21_14h23.40.601,torte-q,2020.1.3,Win32,60,13322,1.581185,,,,,0,21,21,113,1,,,,,,,,,,,,,,,,,,,,,,,,,,,,,,,,,,,
,,,,,,,,,,,,a,Incorrect,,,,,,t3.png,t1.png,2,0.0565,29,Female,2020-10-21_14h23.40.601,torte-q,2020.1.3,Win32,60,13322,1.19849,,,,,0,22,22,31,1,,,,,,,,,,,,,,,,,,,,,,,,,,,,,,,,,,,
,,,,,,,,,,,,a,Incorrect,,,,,,t4.png,t1.png,3,0.0000131,29,Female,2020-10-21_14h23.40.601,torte-q,2020.1.3,Win32,60,13322,1.703665,,,,,0,23,23,61,1,,,,,,,,,,,,,,,,,,,,,,,,,,,,,,,,,,,
,,,,,,,,,,,,l,Correct!,,,,,,t5.png,t1.png,4,9.55E-11,29,Female,2020-10-21_14h23.40.601,torte-q,2020.1.3,Win32,60,13322,0.865595,,,,,0,24,24,22,1,,,,,,,,,,,,,,,,,,,,,,,,,,,,,,,,,,,
,,,,,,,,,,,,l,Correct!,,,,,,t4.png,t2.png,2,0.059078,29,Female,2020-10-21_14h23.40.601,torte-q,2020.1.3,Win32,60,13322,1.022,,,,,0,25,25,110,1,,,,,,,,,,,,,,,,,,,,,,,,,,,,,,,,,,,
,,,,,,,,,,,,a,Incorrect,,,,,,t4.png,t1.png,3,0.0000131,29,Female,2020-10-21_14h23.40.601,torte-q,2020.1.3,Win32,60,13322,0.667895,,,,,0,26,26,93,1,,,,,,,,,,,,,,,,,,,,,,,,,,,,,,,,,,,
,,,,,,,,,,,,a,Incorrect,,,,,,t4.png,t1.png,3,0.0000131,29,Female,2020-10-21_14h23.40.601,torte-q,2020.1.3,Win32,60,13322,0.551875,,,,,0,27,27,13,1,,,,,,,,,,,,,,,,,,,,,,,,,,,,,,,,,,,
,,,,,,,,,,,,a,Incorrect,,,,,,t5.png,t3.png,2,0.056466,29,Female,2020-10-21_14h23.40.601,torte-q,2020.1.3,Win32,60,13322,1.01821,,,,,0,28,28,38,1,,,,,,,,,,,,,,,,,,,,,,,,,,,,,,,,,,,
,,,,,,,,,,,,a,Correct!,,,,,,t4.png,t4.png,0,0.98115,29,Female,2020-10-21_14h23.40.601,torte-q,2020.1.3,Win32,60,13322,0.967805,,,,,0,29,29,80,1,,,,,,,,,,,,,,,,,,,,,,,,,,,,,,,,,,,
,,,,,,,,,,,,a,Correct!,,,,,,t2.png,t2.png,0,0.98115,29,Female,2020-10-21_14h23.40.601,torte-q,2020.1.3,Win32,60,13322,0.90188,,,,,0,30,30,57,1,,,,,,,,,,,,,,,,,,,,,,,,,,,,,,,,,,,
,,,,,,,,,,,,a,Correct!,,,,,,t4.png,t4.png,0,0.98115,29,Female,2020-10-21_14h23.40.601,torte-q,2020.1.3,Win32,60,13322,0.53514,,,,,0,31,31,79,1,,,,,,,,,,,,,,,,,,,,,,,,,,,,,,,,,,,
,,,,,,,,,,,,a,Incorrect,,,,,,t5.png,t2.png,3,0.0000131,29,Female,2020-10-21_14h23.40.601,torte-q,2020.1.3,Win32,60,13322,1.015765,,,,,0,32,32,98,1,,,,,,,,,,,,,,,,,,,,,,,,,,,,,,,,,,,
,,,,,,,,,,,,a,Incorrect,,,,,,t5.png,t2.png,3,0.0000131,29,Female,2020-10-21_14h23.40.601,torte-q,2020.1.3,Win32,60,13322,0.864665,,,,,0,33,33,116,1,,,,,,,,,,,,,,,,,,,,,,,,,,,,,,,,,,,
,,,,,,,,,,,,a,Correct!,,,,,,t4.png,t3.png,1,0.909,29,Female,2020-10-21_14h23.40.601,torte-q,2020.1.3,Win32,60,13322,0.929205,,,,,0,34,34,46,1,,,,,,,,,,,,,,,,,,,,,,,,,,,,,,,,,,,
,,,,,,,,,,,,l,Correct!,,,,,,t1.png,t5.png,4,9.55E-11,29,Female,2020-10-21_14h23.40.601,torte-q,2020.1.3,Win32,60,13322,0.61363,,,,,0,35,35,16,1,,,,,,,,,,,,,,,,,,,,,,,,,,,,,,,,,,,
,,,,,,,,,,,,a,Correct!,,,,,,t1.png,t2.png,1,0.90025,29,Female,2020-10-21_14h23.40.601,torte-q,2020.1.3,Win32,60,13322,0.81556,,,,,0,36,36,33,1,,,,,,,,,,,,,,,,,,,,,,,,,,,,,,,,,,,
,,,,,,,,,,,,a,Correct!,,,,,,t3.png,t4.png,1,0.909,29,Female,2020-10-21_14h23.40.601,torte-q,2020.1.3,Win32,60,13322,0.922335,,,,,0,37,37,82,1,,,,,,,,,,,,,,,,,,,,,,,,,,,,,,,,,,,
,,,,,,,,,,,,l,Correct!,,,,,,t4.png,t2.png,2,0.059078,29,Female,2020-10-21_14h23.40.601,torte-q,2020.1.3,Win32,60,13322,0.913745,,,,,0,38,38,88,1,,,,,,,,,,,,,,,,,,,,,,,,,,,,,,,,,,,
,,,,,,,,,,,,a,Correct!,,,,,,t3.png,t4.png,1,0.90855,29,Female,2020-10-21_14h23.40.601,torte-q,2020.1.3,Win32,60,13322,1.26278,,,,,0,39,39,96,1,,,,,,,,,,,,,,,,,,,,,,,,,,,,,,,,,,,
,,,,,,,,,,,,l,Correct!,,,,,,t5.png,t1.png,4,9.55E-11,29,Female,2020-10-21_14h23.40.601,torte-q,2020.1.3,Win32,60,13322,0.59008,,,,,0,40,40,43,1,,,,,,,,,,,,,,,,,,,,,,,,,,,,,,,,,,,
,,,,,,,,,,,,a,Incorrect,,,,,,t5.png,t2.png,3,0.0000131,29,Female,2020-10-21_14h23.40.601,torte-q,2020.1.3,Win32,60,13322,0.973175,,,,,0,41,41,119,1,,,,,,,,,,,,,,,,,,,,,,,,,,,,,,,,,,,
,,,,,,,,,,,,a,Correct!,,,,,,t2.png,t1.png,1,0.90025,29,Female,2020-10-21_14h23.40.601,torte-q,2020.1.3,Win32,60,13322,0.831065,,,,,0,42,42,62,1,,,,,,,,,,,,,,,,,,,,,,,,,,,,,,,,,,,
,,,,,,,,,,,,l,Correct!,,,,,,t4.png,t2.png,2,0.0591,29,Female,2020-10-21_14h23.40.601,torte-q,2020.1.3,Win32,60,13322,0.79032,,,,,0,43,43,36,1,,,,,,,,,,,,,,,,,,,,,,,,,,,,,,,,,,,
,,,,,,,,,,,,a,Correct!,,,,,,t4.png,t4.png,0,0.98115,29,Female,2020-10-21_14h23.40.601,torte-q,2020.1.3,Win32,60,13322,0.91667,,,,,0,44,44,52,1,,,,,,,,,,,,,,,,,,,,,,,,,,,,,,,,,,,
,,,,,,,,,,,,a,Correct!,,,,,,t2.png,t3.png,1,0.90855,29,Female,2020-10-21_14h23.40.601,torte-q,2020.1.3,Win32,60,13322,0.91792,,,,,0,45,45,65,1,,,,,,,,,,,,,,,,,,,,,,,,,,,,,,,,,,,
,,,,,,,,,,,,a,Incorrect,,,,,,t5.png,t3.png,2,0.056466,29,Female,2020-10-21_14h23.40.601,torte-q,2020.1.3,Win32,60,13322,0.59893,,,,,0,46,46,108,1,,,,,,,,,,,,,,,,,,,,,,,,,,,,,,,,,,,
,,,,,,,,,,,,a,Incorrect,,,,,,t2.png,t5.png,3,0.0000131,29,Female,2020-10-21_14h23.40.601,torte-q,2020.1.3,Win32,60,13322,0.71556,,,,,0,47,47,104,1,,,,,,,,,,,,,,,,,,,,,,,,,,,,,,,,,,,
,,,,,,,,,,,,a,Incorrect,,,,,,t2.png,t5.png,3,0.0000131,29,Female,2020-10-21_14h23.40.601,torte-q,2020.1.3,Win32,60,13322,0.699385,,,,,0,48,48,95,1,,,,,,,,,,,,,,,,,,,,,,,,,,,,,,,,,,,
,,,,,,,,,,,,a,Incorrect,,,,,,t5.png,t4.png,1,0.90025,29,Female,2020-10-21_14h23.40.601,torte-q,2020.1.3,Win32,60,13322,0.87022,,,,,0,49,49,27,1,,,,,,,,,,,,,,,,,,,,,,,,,,,,,,,,,,,
,,,,,,,,,,,,l,Correct!,,,,,,t1.png,t5.png,4,9.55E-11,29,Female,2020-10-21_14h23.40.601,torte-q,2020.1.3,Win32,60,13322,2.18117,,,,,0,50,50,85,1,,,,,,,,,,,,,,,,,,,,,,,,,,,,,,,,,,,
,,,,,,,,,,,,a,Incorrect,,,,,,t1.png,t3.png,2,0.056466,29,Female,2020-10-21_14h23.40.601,torte-q,2020.1.3,Win32,60,13322,0.702795,,,,,0,51,51,60,1,,,,,,,,,,,,,,,,,,,,,,,,,,,,,,,,,,,
,,,,,,,,,,,,a,Correct!,,,,,,t5.png,t5.png,0,0.97829,29,Female,2020-10-21_14h23.40.601,torte-q,2020.1.3,Win32,60,13322,1.271115,,,,,0,52,52,70,1,,,,,,,,,,,,,,,,,,,,,,,,,,,,,,,,,,,
,,,,,,,,,,,,a,Correct!,,,,,,t4.png,t4.png,0,0.98115,29,Female,2020-10-21_14h23.40.601,torte-q,2020.1.3,Win32,60,13322,0.78892,,,,,0,53,53,21,1,,,,,,,,,,,,,,,,,,,,,,,,,,,,,,,,,,,
,,,,,,,,,,,,a,Correct!,,,,,,t5.png,t4.png,1,0.9,29,Female,2020-10-21_14h23.40.601,torte-q,2020.1.3,Win32,60,13322,1.698335,,,,,0,54,54,49,1,,,,,,,,,,,,,,,,,,,,,,,,,,,,,,,,,,,
,,,,,,,,,,,,l,Correct!,,,,,,t4.png,t2.png,2,0.059078,29,Female,2020-10-21_14h23.40.601,torte-q,2020.1.3,Win32,60,13322,1.37097,,,,,0,55,55,86,1,,,,,,,,,,,,,,,,,,,,,,,,,,,,,,,,,,,
,,,,,,,,,,,,a,Incorrect,,,,,,t1.png,t4.png,3,0.0000131,29,Female,2020-10-21_14h23.40.601,torte-q,2020.1.3,Win32,60,13322,1.255205,,,,,0,56,56,17,1,,,,,,,,,,,,,,,,,,,,,,,,,,,,,,,,,,,
,,,,,,,,,,,,a,Correct!,,,,,,t1.png,t2.png,1,0.90025,29,Female,2020-10-21_14h23.40.601,torte-q,2020.1.3,Win32,60,13322,0.897715,,,,,0,57,57,105,1,,,,,,,,,,,,,,,,,,,,,,,,,,,,,,,,,,,
,,,,,,,,,,,,l,Correct!,,,,,,t2.png,t4.png,2,0.059078,29,Female,2020-10-21_14h23.40.601,torte-q,2020.1.3,Win32,60,13322,1.01757,,,,,0,58,58,24,1,,,,,,,,,,,,,,,,,,,,,,,,,,,,,,,,,,,
,,,,,,,,,,,,a,Incorrect,,,,,,t4.png,t3.png,1,0.909,29,Female,2020-10-21_14h23.40.601,torte-q,2020.1.3,Win32,60,13322,0.954775,,,,,0,59,59,20,1,,,,,,,,,,,,,,,,,,,,,,,,,,,,,,,,,,,
,,,,,,,,,,,,l,Correct!,,,,,,t5.png,t1.png,4,9.55E-11,29,Female,2020-10-21_14h23.40.601,torte-q,2020.1.3,Win32,60,13322,0.832595,,,,,0,60,60,100,1,,,,,,,,,,,,,,,,,,,,,,,,,,,,,,,,,,,
,,,,,,,,,,,,a,Correct!,,,,,,t2.png,t3.png,1,0.90855,29,Female,2020-10-21_14h23.40.601,torte-q,2020.1.3,Win32,60,13322,1.114905,,,,,0,61,61,68,1,,,,,,,,,,,,,,,,,,,,,,,,,,,,,,,,,,,
,,,,,,,,,,,,a,Correct!,,,,,,t5.png,t4.png,1,0.90025,29,Female,2020-10-21_14h23.40.601,torte-q,2020.1.3,Win32,60,13322,1.003285,,,,,0,62,62,26,1,,,,,,,,,,,,,,,,,,,,,,,,,,,,,,,,,,,
,,,,,,,,,,,,a,Correct!,,,,,,t2.png,t1.png,1,0.90025,29,Female,2020-10-21_14h23.40.601,torte-q,2020.1.3,Win32,60,13322,1.320855,,,,,0,63,63,4,1,,,,,,,,,,,,,,,,,,,,,,,,,,,,,,,,,,,
,,,,,,,,,,,,a,Incorrect,,,,,,t4.png,t5.png,1,0.90025,29,Female,2020-10-21_14h23.40.601,torte-q,2020.1.3,Win32,60,13322,1.190245,,,,,0,64,64,58,1,,,,,,,,,,,,,,,,,,,,,,,,,,,,,,,,,,,
,,,,,,,,,,,,a,Incorrect,,,,,,t5.png,t2.png,3,0.0000131,29,Female,2020-10-21_14h23.40.601,torte-q,2020.1.3,Win32,60,13322,1.13351,,,,,0,65,65,51,1,,,,,,,,,,,,,,,,,,,,,,,,,,,,,,,,,,,
,,,,,,,,,,,,l,Correct!,,,,,,t2.png,t4.png,2,0.0591,29,Female,2020-10-21_14h23.40.601,torte-q,2020.1.3,Win32,60,13322,0.91485,,,,,0,66,66,15,1,,,,,,,,,,,,,,,,,,,,,,,,,,,,,,,,,,,
,,,,,,,,,,,,a,Correct!,,,,,,t3.png,t4.png,1,0.909,29,Female,2020-10-21_14h23.40.601,torte-q,2020.1.3,Win32,60,13322,0.73285,,,,,0,67,67,89,1,,,,,,,,,,,,,,,,,,,,,,,,,,,,,,,,,,,
,,,,,,,,,,,,a,Correct!,,,,,,t4.png,t3.png,1,0.90855,29,Female,2020-10-21_14h23.40.601,torte-q,2020.1.3,Win32,60,13322,0.76704,,,,,0,68,68,35,1,,,,,,,,,,,,,,,,,,,,,,,,,,,,,,,,,,,
,,,,,,,,,,,,l,Correct!,,,,,,t2.png,t4.png,2,0.059078,29,Female,2020-10-21_14h23.40.601,torte-q,2020.1.3,Win32,60,13322,0.834755,,,,,0,69,69,37,1,,,,,,,,,,,,,,,,,,,,,,,,,,,,,,,,,,,
,,,,,,,,,,,,a,Correct!,,,,,,t2.png,t2.png,0,0.98115,29,Female,2020-10-21_14h23.40.601,torte-q,2020.1.3,Win32,60,13322,0.882965,,,,,0,70,70,7,1,,,,,,,,,,,,,,,,,,,,,,,,,,,,,,,,,,,
,,,,,,,,,,,,l,Correct!,,,,,,t1.png,t5.png,4,9.55E-11,29,Female,2020-10-21_14h23.40.601,torte-q,2020.1.3,Win32,60,13322,0.682095,,,,,0,71,71,55,1,,,,,,,,,,,,,,,,,,,,,,,,,,,,,,,,,,,
,,,,,,,,,,,,a,Correct!,,,,,,t2.png,t2.png,0,0.98115,29,Female,2020-10-21_14h23.40.601,torte-q,2020.1.3,Win32,60,13322,0.68541,,,,,0,72,72,59,1,,,,,,,,,,,,,,,,,,,,,,,,,,,,,,,,,,,
,,,,,,,,,,,,l,Correct!,,,,,,t2.png,t4.png,2,0.059078,29,Female,2020-10-21_14h23.40.601,torte-q,2020.1.3,Win32,60,13322,0.8171,,,,,0,73,73,11,1,,,,,,,,,,,,,,,,,,,,,,,,,,,,,,,,,,,
,,,,,,,,,,,,a,Incorrect,,,,,,t3.png,t5.png,2,0.0565,29,Female,2020-10-21_14h23.40.601,torte-q,2020.1.3,Win32,60,13322,0.78864,,,,,0,74,74,83,1,,,,,,,,,,,,,,,,,,,,,,,,,,,,,,,,,,,
,,,,,,,,,,,,a,Incorrect,,,,,,t5.png,t2.png,3,0.0000131,29,Female,2020-10-21_14h23.40.601,torte-q,2020.1.3,Win32,60,13322,0.88246,,,,,0,75,75,91,1,,,,,,,,,,,,,,,,,,,,,,,,,,,,,,,,,,,
,,,,,,,,,,,,l,Correct!,,,,,,t5.png,t1.png,4,9.55E-11,29,Female,2020-10-21_14h23.40.601,torte-q,2020.1.3,Win32,60,13322,0.60468,,,,,0,76,76,102,1,,,,,,,,,,,,,,,,,,,,,,,,,,,,,,,,,,,
,,,,,,,,,,,,a,Correct!,,,,,,t2.png,t3.png,1,0.90855,29,Female,2020-10-21_14h23.40.601,torte-q,2020.1.3,Win32,60,13322,0.61614,,,,,0,77,77,111,1,,,,,,,,,,,,,,,,,,,,,,,,,,,,,,,,,,,
,,,,,,,,,,,,a,Correct!,,,,,,t3.png,t2.png,1,0.90855,29,Female,2020-10-21_14h23.40.601,torte-q,2020.1.3,Win32,60,13322,0.850545,,,,,0,78,78,53,1,,,,,,,,,,,,,,,,,,,,,,,,,,,,,,,,,,,
,,,,,,,,,,,,a,Incorrect,,,,,,t3.png,t1.png,2,0.056466,29,Female,2020-10-21_14h23.40.601,torte-q,2020.1.3,Win32,60,13322,0.731395,,,,,0,79,79,0,1,,,,,,,,,,,,,,,,,,,,,,,,,,,,,,,,,,,
,,,,,,,,,,,,a,Incorrect,,,,,,t3.png,t1.png,2,0.056466,29,Female,2020-10-21_14h23.40.601,torte-q,2020.1.3,Win32,60,13322,0.547715,,,,,0,80,80,64,1,,,,,,,,,,,,,,,,,,,,,,,,,,,,,,,,,,,
,,,,,,,,,,,,a,Incorrect,,,,,,t3.png,t5.png,2,0.0565,29,Female,2020-10-21_14h23.40.601,torte-q,2020.1.3,Win32,60,13322,0.73145,,,,,0,81,81,30,1,,,,,,,,,,,,,,,,,,,,,,,,,,,,,,,,,,,
,,,,,,,,,,,,l,Correct!,,,,,,t5.png,t1.png,4,9.55E-11,29,Female,2020-10-21_14h23.40.601,torte-q,2020.1.3,Win32,60,13322,0.600955,,,,,0,82,82,71,1,,,,,,,,,,,,,,,,,,,,,,,,,,,,,,,,,,,
,,,,,,,,,,,,a,Incorrect,,,,,,t4.png,t1.png,3,0.0000131,29,Female,2020-10-21_14h23.40.601,torte-q,2020.1.3,Win32,60,13322,0.698675,,,,,0,83,83,42,1,,,,,,,,,,,,,,,,,,,,,,,,,,,,,,,,,,,
,,,,,,,,,,,,l,Correct!,,,,,,t1.png,t5.png,4,9.55E-11,29,Female,2020-10-21_14h23.40.601,torte-q,2020.1.3,Win32,60,13322,0.599775,,,,,0,84,84,12,1,,,,,,,,,,,,,,,,,,,,,,,,,,,,,,,,,,,
,,,,,,,,,,,,a,Correct!,,,,,,t4.png,t3.png,1,0.90855,29,Female,2020-10-21_14h23.40.601,torte-q,2020.1.3,Win32,60,13322,0.9482,,,,,0,85,85,75,1,,,,,,,,,,,,,,,,,,,,,,,,,,,,,,,,,,,
,,,,,,,,,,,,a,Incorrect,,,,,,t1.png,t3.png,2,0.056466,29,Female,2020-10-21_14h23.40.601,torte-q,2020.1.3,Win32,60,13322,0.717075,,,,,0,86,86,87,1,,,,,,,,,,,,,,,,,,,,,,,,,,,,,,,,,,,
,,,,,,,,,,,,a,Correct!,,,,,,t1.png,t1.png,0,0.978,29,Female,2020-10-21_14h23.40.601,torte-q,2020.1.3,Win32,60,13322,0.756065,,,,,0,87,87,28,1,,,,,,,,,,,,,,,,,,,,,,,,,,,,,,,,,,,
,,,,,,,,,,,,a,Correct!,,,,,,t5.png,t5.png,0,0.97829,29,Female,2020-10-21_14h23.40.601,torte-q,2020.1.3,Win32,60,13322,0.778285,,,,,0,88,88,94,1,,,,,,,,,,,,,,,,,,,,,,,,,,,,,,,,,,,
,,,,,,,,,,,,a,Correct!,,,,,,t1.png,t1.png,0,0.97829,29,Female,2020-10-21_14h23.40.601,torte-q,2020.1.3,Win32,60,13322,0.751215,,,,,0,89,89,67,1,,,,,,,,,,,,,,,,,,,,,,,,,,,,,,,,,,,
,,,,,,,,,,,,a,Incorrect,,,,,,t1.png,t3.png,2,0.056466,29,Female,2020-10-21_14h23.40.601,torte-q,2020.1.3,Win32,60,13322,1.299655,,,,,0,90,90,63,1,,,,,,,,,,,,,,,,,,,,,,,,,,,,,,,,,,,
,,,,,,,,,,,,a,Incorrect,,,,,,t1.png,t3.png,2,0.056466,29,Female,2020-10-21_14h23.40.601,torte-q,2020.1.3,Win32,60,13322,0.7289,,,,,0,91,91,69,1,,,,,,,,,,,,,,,,,,,,,,,,,,,,,,,,,,,
,,,,,,,,,,,,a,Incorrect,,,,,,t2.png,t5.png,3,0.0000131,29,Female,2020-10-21_14h23.40.601,torte-q,2020.1.3,Win32,60,13322,0.931055,,,,,0,92,92,66,1,,,,,,,,,,,,,,,,,,,,,,,,,,,,,,,,,,,
,,,,,,,,,,,,a,Correct!,,,,,,t2.png,t1.png,1,0.90025,29,Female,2020-10-21_14h23.40.601,torte-q,2020.1.3,Win32,60,13322,0.68541,,,,,0,93,93,19,1,,,,,,,,,,,,,,,,,,,,,,,,,,,,,,,,,,,
,,,,,,,,,,,,a,Incorrect,,,,,,t3.png,t1.png,2,0.056466,29,Female,2020-10-21_14h23.40.601,torte-q,2020.1.3,Win32,60,13322,0.718025,,,,,0,94,94,29,1,,,,,,,,,,,,,,,,,,,,,,,,,,,,,,,,,,,
,,,,,,,,,,,,a,Correct!,,,,,,t2.png,t2.png,0,0.98115,29,Female,2020-10-21_14h23.40.601,torte-q,2020.1.3,Win32,60,13322,0.614755,,,,,0,95,95,2,1,,,,,,,,,,,,,,,,,,,,,,,,,,,,,,,,,,,
,,,,,,,,,,,,a,Correct!,,,,,,t2.png,t1.png,1,0.9,29,Female,2020-10-21_14h23.40.601,torte-q,2020.1.3,Win32,60,13322,0.76572,,,,,0,96,96,118,1,,,,,,,,,,,,,,,,,,,,,,,,,,,,,,,,,,,
,,,,,,,,,,,,a,Incorrect,,,,,,t2.png,t5.png,3,0.0000131,29,Female,2020-10-21_14h23.40.601,torte-q,2020.1.3,Win32,60,13322,0.79776,,,,,0,97,97,40,1,,,,,,,,,,,,,,,,,,,,,,,,,,,,,,,,,,,
,,,,,,,,,,,,a,Correct!,,,,,,t5.png,t5.png,0,0.97829,29,Female,2020-10-21_14h23.40.601,torte-q,2020.1.3,Win32,60,13322,0.63609,,,,,0,98,98,25,1,,,,,,,,,,,,,,,,,,,,,,,,,,,,,,,,,,,
,,,,,,,,,,,,a,Correct!,,,,,,t2.png,t3.png,1,0.909,29,Female,2020-10-21_14h23.40.601,torte-q,2020.1.3,Win32,60,13322,0.431705,,,,,0,99,99,74,1,,,,,,,,,,,,,,,,,,,,,,,,,,,,,,,,,,,
,,,,,,,,,,,,a,Correct!,,,,,,t3.png,t2.png,1,0.90855,29,Female,2020-10-21_14h23.40.601,torte-q,2020.1.3,Win32,60,13322,0.86615,,,,,0,100,100,18,1,,,,,,,,,,,,,,,,,,,,,,,,,,,,,,,,,,,
,,,,,,,,,,,,a,Correct!,,,,,,t2.png,t1.png,1,0.90025,29,Female,2020-10-21_14h23.40.601,torte-q,2020.1.3,Win32,60,13322,0.56616,,,,,0,101,101,5,1,,,,,,,,,,,,,,,,,,,,,,,,,,,,,,,,,,,
,,,,,,,,,,,,a,Correct!,,,,,,t1.png,t2.png,1,0.90025,29,Female,2020-10-21_14h23.40.601,torte-q,2020.1.3,Win32,60,13322,0.748235,,,,,0,102,102,112,1,,,,,,,,,,,,,,,,,,,,,,,,,,,,,,,,,,,
,,,,,,,,,,,,a,Correct!,,,,,,t3.png,t2.png,1,0.909,29,Female,2020-10-21_14h23.40.601,torte-q,2020.1.3,Win32,60,13322,0.86345,,,,,0,103,103,3,1,,,,,,,,,,,,,,,,,,,,,,,,,,,,,,,,,,,
,,,,,,,,,,,,a,Correct!,,,,,,t5.png,t4.png,1,0.9,29,Female,2020-10-21_14h23.40.601,torte-q,2020.1.3,Win32,60,13322,0.856075,,,,,0,104,104,76,1,,,,,,,,,,,,,,,,,,,,,,,,,,,,,,,,,,,
,,,,,,,,,,,,a,Correct!,,,,,,t4.png,t5.png,1,0.90025,29,Female,2020-10-21_14h23.40.601,torte-q,2020.1.3,Win32,60,13322,0.955415,,,,,0,105,105,47,1,,,,,,,,,,,,,,,,,,,,,,,,,,,,,,,,,,,
,,,,,,,,,,,,a,Correct!,,,,,,t3.png,t2.png,1,0.90855,29,Female,2020-10-21_14h23.40.601,torte-q,2020.1.3,Win32,60,13322,0.946925,,,,,0,106,106,97,1,,,,,,,,,,,,,,,,,,,,,,,,,,,,,,,,,,,
,,,,,,,,,,,,a,Incorrect,,,,,,t3.png,t5.png,2,0.056466,29,Female,2020-10-21_14h23.40.601,torte-q,2020.1.3,Win32,60,13322,0.77391,,,,,0,107,107,44,1,,,,,,,,,,,,,,,,,,,,,,,,,,,,,,,,,,,
,,,,,,,,,,,,l,Correct!,,,,,,t2.png,t4.png,2,0.059078,29,Female,2020-10-21_14h23.40.601,torte-q,2020.1.3,Win32,60,13322,1.05068,,,,,0,108,108,77,1,,,,,,,,,,,,,,,,,,,,,,,,,,,,,,,,,,,
,,,,,,,,,,,,a,Correct!,,,,,,t4.png,t3.png,1,0.90855,29,Female,2020-10-21_14h23.40.601,torte-q,2020.1.3,Win32,60,13322,0.950925,,,,,0,109,109,45,1,,,,,,,,,,,,,,,,,,,,,,,,,,,,,,,,,,,
,,,,,,,,,,,,a,Incorrect,,,,,,t1.png,t3.png,2,0.056466,29,Female,2020-10-21_14h23.40.601,torte-q,2020.1.3,Win32,60,13322,0.598905,,,,,0,110,110,99,1,,,,,,,,,,,,,,,,,,,,,,,,,,,,,,,,,,,
,,,,,,,,,,,,a,Correct!,,,,,,t1.png,t1.png,0,0.978,29,Female,2020-10-21_14h23.40.601,torte-q,2020.1.3,Win32,60,13322,0.75534,,,,,0,111,111,54,1,,,,,,,,,,,,,,,,,,,,,,,,,,,,,,,,,,,
,,,,,,,,,,,,a,Correct!,,,,,,t3.png,t4.png,1,0.909,29,Female,2020-10-21_14h23.40.601,torte-q,2020.1.3,Win32,60,13322,0.964925,,,,,0,112,112,106,1,,,,,,,,,,,,,,,,,,,,,,,,,,,,,,,,,,,
,,,,,,,,,,,,a,Correct!,,,,,,t3.png,t2.png,1,0.909,29,Female,2020-10-21_14h23.40.601,torte-q,2020.1.3,Win32,60,13322,0.933615,,,,,0,113,113,23,1,,,,,,,,,,,,,,,,,,,,,,,,,,,,,,,,,,,
,,,,,,,,,,,,a,Correct!,,,,,,t2.png,t3.png,1,0.90855,29,Female,2020-10-21_14h23.40.601,torte-q,2020.1.3,Win32,60,13322,0.86447,,,,,0,114,114,10,1,,,,,,,,,,,,,,,,,,,,,,,,,,,,,,,,,,,
,,,,,,,,,,,,l,Correct!,,,,,,t1.png,t5.png,4,9.55E-11,29,Female,2020-10-21_14h23.40.601,torte-q,2020.1.3,Win32,60,13322,0.632485,,,,,0,115,115,41,1,,,,,,,,,,,,,,,,,,,,,,,,,,,,,,,,,,,
,,,,,,,,,,,,a,Correct!,,,,,,t2.png,t2.png,0,0.981,29,Female,2020-10-21_14h23.40.601,torte-q,2020.1.3,Win32,60,13322,0.650125,,,,,0,116,116,101,1,,,,,,,,,,,,,,,,,,,,,,,,,,,,,,,,,,,
,,,,,,,,,,,,a,Incorrect,,,,,,t5.png,t3.png,2,0.0565,29,Female,2020-10-21_14h23.40.601,torte-q,2020.1.3,Win32,60,13322,0.71562,,,,,0,117,117,39,1,,,,,,,,,,,,,,,,,,,,,,,,,,,,,,,,,,,
,,,,,,,,,,,,a,Correct!,,,,,,t1.png,t1.png,0,0.97829,29,Female,2020-10-21_14h23.40.601,torte-q,2020.1.3,Win32,60,13322,0.669045,,,,,0,118,118,9,1,,,,,,,,,,,,,,,,,,,,,,,,,,,,,,,,,,,
,,,,,,,,,,,,a,Incorrect,,,,,,t5.png,t3.png,2,0.056466,29,Female,2020-10-21_14h23.40.601,torte-q,2020.1.3,Win32,60,13322,0.7143,,,,,0,119,119,56,1,,,,,,,,,,,,,,,,,,,,,,,,,,,,,,,,,,,
,,,,,,,,,,,,a,Correct!,,,,,,t2.png,t1.png,1,0.9,29,Female,2020-10-21_14h23.40.601,torte-q,2020.1.3,Win32,60,13322,1.78087,space,2.666205,,,,,,,,N/A,12.302265,space,4.14032,0,0,0,118,1,,,,,,,,,,,,,,,,,,,,,,,,,,
,,,,,,,,,,,,a,Correct!,,,,,,t3.png,t4.png,1,0.909,29,Female,2020-10-21_14h23.40.601,torte-q,2020.1.3,Win32,60,13322,1.196755,,,,,,,,,,,,,,0,1,1,106,1,,,,,,,,,,,,,,,,,,,,,,,,,,
,,,,,,,,,,,,a,Incorrect,,,,,,t5.png,t3.png,2,0.056466,29,Female,2020-10-21_14h23.40.601,torte-q,2020.1.3,Win32,60,13322,0.914535,,,,,,,,,,,,,,0,2,2,114,1,,,,,,,,,,,,,,,,,,,,,,,,,,
,,,,,,,,,,,,a,Correct!,,,,,,t2.png,t2.png,0,0.98115,29,Female,2020-10-21_14h23.40.601,torte-q,2020.1.3,Win32,60,13322,1.214885,,,,,,,,,,,,,,0,3,3,2,1,,,,,,,,,,,,,,,,,,,,,,,,,,
,,,,,,,,,,,,a,Correct!,,,,,,t2.png,t1.png,1,0.90025,29,Female,2020-10-21_14h23.40.601,torte-q,2020.1.3,Win32,60,13322,0.7825,,,,,,,,,,,,,,0,4,4,19,1,,,,,,,,,,,,,,,,,,,,,,,,,,
,,,,,,,,,,,,a,Correct!,,,,,,t3.png,t4.png,1,0.909,29,Female,2020-10-21_14h23.40.601,torte-q,2020.1.3,Win32,60,13322,1.18192,,,,,,,,,,,,,,0,5,5,89,1,,,,,,,,,,,,,,,,,,,,,,,,,,
,,,,,,,,,,,,l,Correct!,,,,,,t5.png,t1.png,4,9.55E-11,29,Female,2020-10-21_14h23.40.601,torte-q,2020.1.3,Win32,60,13322,0.654035,,,,,,,,,,,,,,0,6,6,71,1,,,,,,,,,,,,,,,,,,,,,,,,,,
,,,,,,,,,,,,a,Correct!,,,,,,t1.png,t1.png,0,0.97829,29,Female,2020-10-21_14h23.40.601,torte-q,2020.1.3,Win32,60,13322,0.76452,,,,,,,,,,,,,,0,7,7,9,1,,,,,,,,,,,,,,,,,,,,,,,,,,
,,,,,,,,,,,,a,Incorrect,,,,,,t2.png,t4.png,2,0.059078,29,Female,2020-10-21_14h23.40.601,torte-q,2020.1.3,Win32,60,13322,1.39559,,,,,,,,,,,,,,0,8,8,77,1,,,,,,,,,,,,,,,,,,,,,,,,,,
,,,,,,,,,,,,a,Incorrect,,,,,,t3.png,t1.png,2,0.056466,29,Female,2020-10-21_14h23.40.601,torte-q,2020.1.3,Win32,60,13322,0.833135,,,,,,,,,,,,,,0,9,9,0,1,,,,,,,,,,,,,,,,,,,,,,,,,,
,,,,,,,,,,,,a,Incorrect,,,,,,t4.png,t1.png,3,0.0000131,29,Female,2020-10-21_14h23.40.601,torte-q,2020.1.3,Win32,60,13322,0.836445,,,,,,,,,,,,,,0,10,10,13,1,,,,,,,,,,,,,,,,,,,,,,,,,,
,,,,,,,,,,,,a,Incorrect,,,,,,t3.png,t5.png,2,0.056466,29,Female,2020-10-21_14h23.40.601,torte-q,2020.1.3,Win32,60,13322,1.02336,,,,,,,,,,,,,,0,11,11,44,1,,,,,,,,,,,,,,,,,,,,,,,,,,
,,,,,,,,,,,,l,Correct!,,,,,,t4.png,t2.png,2,0.059078,29,Female,2020-10-21_14h23.40.601,torte-q,2020.1.3,Win32,60,13322,0.97203,,,,,,,,,,,,,,0,12,12,109,1,,,,,,,,,,,,,,,,,,,,,,,,,,
,,,,,,,,,,,,a,Correct!,,,,,,t1.png,t1.png,0,0.978,29,Female,2020-10-21_14h23.40.601,torte-q,2020.1.3,Win32,60,13322,0.732925,,,,,,,,,,,,,,0,13,13,28,1,,,,,,,,,,,,,,,,,,,,,,,,,,
,,,,,,,,,,,,l,Correct!,,,,,,t1.png,t5.png,4,9.55E-11,29,Female,2020-10-21_14h23.40.601,torte-q,2020.1.3,Win32,60,13322,0.699095,,,,,,,,,,,,,,0,14,14,85,1,,,,,,,,,,,,,,,,,,,,,,,,,,
,,,,,,,,,,,,a,Incorrect,,,,,,t5.png,t3.png,2,0.0565,29,Female,2020-10-21_14h23.40.601,torte-q,2020.1.3,Win32,60,13322,0.915525,,,,,,,,,,,,,,0,15,15,39,1,,,,,,,,,,,,,,,,,,,,,,,,,,
,,,,,,,,,,,,a,Correct!,,,,,,t4.png,t5.png,1,0.90025,29,Female,2020-10-21_14h23.40.601,torte-q,2020.1.3,Win32,60,13322,1.363105,,,,,,,,,,,,,,0,16,16,58,1,,,,,,,,,,,,,,,,,,,,,,,,,,
,,,,,,,,,,,,a,Correct!,,,,,,t1.png,t2.png,1,0.9,29,Female,2020-10-21_14h23.40.601,torte-q,2020.1.3,Win32,60,13322,0.84901,,,,,,,,,,,,,,0,17,17,1,1,,,,,,,,,,,,,,,,,,,,,,,,,,
,,,,,,,,,,,,a,Correct!,,,,,,t1.png,t2.png,1,0.90025,29,Female,2020-10-21_14h23.40.601,torte-q,2020.1.3,Win32,60,13322,0.815925,,,,,,,,,,,,,,0,18,18,112,1,,,,,,,,,,,,,,,,,,,,,,,,,,
,,,,,,,,,,,,l,Correct!,,,,,,t4.png,t2.png,2,0.0591,29,Female,2020-10-21_14h23.40.601,torte-q,2020.1.3,Win32,60,13322,0.85669,,,,,,,,,,,,,,0,19,19,36,1,,,,,,,,,,,,,,,,,,,,,,,,,,
,,,,,,,,,,,,a,Incorrect,,,,,,t2.png,t5.png,3,0.0000131,29,Female,2020-10-21_14h23.40.601,torte-q,2020.1.3,Win32,60,13322,0.8653,,,,,,,,,,,,,,0,20,20,104,1,,,,,,,,,,,,,,,,,,,,,,,,,,
,,,,,,,,,,,,a,Correct!,,,,,,t5.png,t4.png,1,0.9,29,Female,2020-10-21_14h23.40.601,torte-q,2020.1.3,Win32,60,13322,0.98804,,,,,,,,,,,,,,0,21,21,76,1,,,,,,,,,,,,,,,,,,,,,,,,,,
,,,,,,,,,,,,a,Correct!,,,,,,t2.png,t2.png,0,0.98115,29,Female,2020-10-21_14h23.40.601,torte-q,2020.1.3,Win32,60,13322,0.732,,,,,,,,,,,,,,0,22,22,57,1,,,,,,,,,,,,,,,,,,,,,,,,,,
,,,,,,,,,,,,l,Correct!,,,,,,t1.png,t5.png,4,9.55E-11,29,Female,2020-10-21_14h23.40.601,torte-q,2020.1.3,Win32,60,13322,0.681565,,,,,,,,,,,,,,0,23,23,41,1,,,,,,,,,,,,,,,,,,,,,,,,,,
,,,,,,,,,,,,a,Correct!,,,,,,t2.png,t1.png,1,0.90025,29,Female,2020-10-21_14h23.40.601,torte-q,2020.1.3,Win32,60,13322,0.81521,,,,,,,,,,,,,,0,24,24,62,1,,,,,,,,,,,,,,,,,,,,,,,,,,
,,,,,,,,,,,,a,Correct!,,,,,,t4.png,t5.png,1,0.90025,29,Female,2020-10-21_14h23.40.601,torte-q,2020.1.3,Win32,60,13322,1.14014,,,,,,,,,,,,,,0,25,25,47,1,,,,,,,,,,,,,,,,,,,,,,,,,,
,,,,,,,,,,,,a,Incorrect,,,,,,t4.png,t5.png,1,0.90025,29,Female,2020-10-21_14h23.40.601,torte-q,2020.1.3,Win32,60,13322,0.68222,,,,,,,,,,,,,,0,26,26,103,1,,,,,,,,,,,,,,,,,,,,,,,,,,
,,,,,,,,,,,,a,Incorrect,,,,,,t4.png,t1.png,3,0.0000131,29,Female,2020-10-21_14h23.40.601,torte-q,2020.1.3,Win32,60,13322,0.8311,,,,,,,,,,,,,,0,27,27,61,1,,,,,,,,,,,,,,,,,,,,,,,,,,
,,,,,,,,,,,,a,Correct!,,,,,,t5.png,t4.png,1,0.9,29,Female,2020-10-21_14h23.40.601,torte-q,2020.1.3,Win32,60,13322,0.62074,,,,,,,,,,,,,,0,28,28,49,1,,,,,,,,,,,,,,,,,,,,,,,,,,
,,,,,,,,,,,,a,Incorrect,,,,,,t5.png,t2.png,3,0.0000131,29,Female,2020-10-21_14h23.40.601,torte-q,2020.1.3,Win32,60,13322,0.975315,,,,,,,,,,,,,,0,29,29,119,1,,,,,,,,,,,,,,,,,,,,,,,,,,
,,,,,,,,,,,,a,Correct!,,,,,,t2.png,t2.png,0,0.98115,29,Female,2020-10-21_14h23.40.601,torte-q,2020.1.3,Win32,60,13322,0.72456,,,,,,,,,,,,,,0,30,30,7,1,,,,,,,,,,,,,,,,,,,,,,,,,,
,,,,,,,,,,,,a,Correct!,,,,,,t5.png,t5.png,0,0.97829,29,Female,2020-10-21_14h23.40.601,torte-q,2020.1.3,Win32,60,13322,0.68295,,,,,,,,,,,,,,0,31,31,70,1,,,,,,,,,,,,,,,,,,,,,,,,,,
,,,,,,,,,,,,a,Incorrect,,,,,,t4.png,t1.png,3,0.0000131,29,Female,2020-10-21_14h23.40.601,torte-q,2020.1.3,Win32,60,13322,1.297475,,,,,,,,,,,,,,0,32,32,48,1,,,,,,,,,,,,,,,,,,,,,,,,,,
,,,,,,,,,,,,a,Incorrect,,,,,,t3.png,t5.png,2,0.0565,29,Female,2020-10-21_14h23.40.601,torte-q,2020.1.3,Win32,60,13322,0.61653,,,,,,,,,,,,,,0,33,33,83,1,,,,,,,,,,,,,,,,,,,,,,,,,,
,,,,,,,,,,,,a,Correct!,,,,,,t3.png,t4.png,1,0.90855,29,Female,2020-10-21_14h23.40.601,torte-q,2020.1.3,Win32,60,13322,0.517365,,,,,,,,,,,,,,0,34,34,96,1,,,,,,,,,,,,,,,,,,,,,,,,,,
,,,,,,,,,,,,a,Correct!,,,,,,t2.png,t1.png,1,0.90025,29,Female,2020-10-21_14h23.40.601,torte-q,2020.1.3,Win32,60,13322,0.62375,,,,,,,,,,,,,,0,35,35,5,1,,,,,,,,,,,,,,,,,,,,,,,,,,
,,,,,,,,,,,,a,Incorrect,,,,,,t4.png,t1.png,3,0.0000131,29,Female,2020-10-21_14h23.40.601,torte-q,2020.1.3,Win32,60,13322,0.71911,,,,,,,,,,,,,,0,36,36,93,1,,,,,,,,,,,,,,,,,,,,,,,,,,
,,,,,,,,,,,,a,Incorrect,,,,,,t4.png,t4.png,0,0.98115,29,Female,2020-10-21_14h23.40.601,torte-q,2020.1.3,Win32,60,13322,0.72101,,,,,,,,,,,,,,0,37,37,79,1,,,,,,,,,,,,,,,,,,,,,,,,,,
,,,,,,,,,,,,a,Incorrect,,,,,,t4.png,t1.png,3,0.0000131,29,Female,2020-10-21_14h23.40.601,torte-q,2020.1.3,Win32,60,13322,0.73478,,,,,,,,,,,,,,0,38,38,42,1,,,,,,,,,,,,,,,,,,,,,,,,,,
,,,,,,,,,,,,a,Correct!,,,,,,t5.png,t5.png,0,0.978,29,Female,2020-10-21_14h23.40.601,torte-q,2020.1.3,Win32,60,13322,0.866515,,,,,,,,,,,,,,0,39,39,117,1,,,,,,,,,,,,,,,,,,,,,,,,,,
,,,,,,,,,,,,l,Correct!,,,,,,t4.png,t2.png,2,0.059078,29,Female,2020-10-21_14h23.40.601,torte-q,2020.1.3,Win32,60,13322,0.913285,,,,,,,,,,,,,,0,40,40,86,1,,,,,,,,,,,,,,,,,,,,,,,,,,
,,,,,,,,,,,,a,Correct!,,,,,,t3.png,t2.png,1,0.90855,29,Female,2020-10-21_14h23.40.601,torte-q,2020.1.3,Win32,60,13322,1.153515,,,,,,,,,,,,,,0,41,41,18,1,,,,,,,,,,,,,,,,,,,,,,,,,,
,,,,,,,,,,,,l,Correct!,,,,,,t5.png,t1.png,4,9.55E-11,29,Female,2020-10-21_14h23.40.601,torte-q,2020.1.3,Win32,60,13322,1.01663,,,,,,,,,,,,,,0,42,42,100,1,,,,,,,,,,,,,,,,,,,,,,,,,,
,,,,,,,,,,,,a,Incorrect,,,,,,t5.png,t2.png,3,0.0000131,29,Female,2020-10-21_14h23.40.601,torte-q,2020.1.3,Win32,60,13322,1.34787,,,,,,,,,,,,,,0,43,43,51,1,,,,,,,,,,,,,,,,,,,,,,,,,,
,,,,,,,,,,,,a,Incorrect,,,,,,t3.png,t1.png,2,0.0565,29,Female,2020-10-21_14h23.40.601,torte-q,2020.1.3,Win32,60,13322,0.782705,,,,,,,,,,,,,,0,44,44,31,1,,,,,,,,,,,,,,,,,,,,,,,,,,
,,,,,,,,,,,,l,Correct!,,,,,,t2.png,t4.png,2,0.0591,29,Female,2020-10-21_14h23.40.601,torte-q,2020.1.3,Win32,60,13322,0.75355,,,,,,,,,,,,,,0,45,45,15,1,,,,,,,,,,,,,,,,,,,,,,,,,,
,,,,,,,,,,,,a,Incorrect,,,,,,t5.png,t2.png,3,0.0000131,29,Female,2020-10-21_14h23.40.601,torte-q,2020.1.3,Win32,60,13322,0.73367,,,,,,,,,,,,,,0,46,46,116,1,,,,,,,,,,,,,,,,,,,,,,,,,,
,,,,,,,,,,,,a,Correct!,,,,,,t4.png,t4.png,0,0.98115,29,Female,2020-10-21_14h23.40.601,torte-q,2020.1.3,Win32,60,13322,0.949165,,,,,,,,,,,,,,0,47,47,21,1,,,,,,,,,,,,,,,,,,,,,,,,,,
,,,,,,,,,,,,l,Correct!,,,,,,t5.png,t1.png,4,9.55E-11,29,Female,2020-10-21_14h23.40.601,torte-q,2020.1.3,Win32,60,13322,0.668215,,,,,,,,,,,,,,0,48,48,22,1,,,,,,,,,,,,,,,,,,,,,,,,,,
,,,,,,,,,,,,l,Correct!,,,,,,t4.png,t2.png,2,0.059078,29,Female,2020-10-21_14h23.40.601,torte-q,2020.1.3,Win32,60,13322,0.815455,,,,,,,,,,,,,,0,49,49,110,1,,,,,,,,,,,,,,,,,,,,,,,,,,
,,,,,,,,,,,,a,Correct!,,,,,,t5.png,t4.png,1,0.90025,29,Female,2020-10-21_14h23.40.601,torte-q,2020.1.3,Win32,60,13322,0.604245,,,,,,,,,,,,,,0,50,50,34,1,,,,,,,,,,,,,,,,,,,,,,,,,,
,,,,,,,,,,,,l,Correct!,,,,,,t1.png,t5.png,4,9.55E-11,29,Female,2020-10-21_14h23.40.601,torte-q,2020.1.3,Win32,60,13322,0.69981,,,,,,,,,,,,,,0,51,51,16,1,,,,,,,,,,,,,,,,,,,,,,,,,,
,,,,,,,,,,,,a,Incorrect,,,,,,t3.png,t5.png,2,0.056466,29,Female,2020-10-21_14h23.40.601,torte-q,2020.1.3,Win32,60,13322,0.721115,,,,,,,,,,,,,,0,52,52,14,1,,,,,,,,,,,,,,,,,,,,,,,,,,
,,,,,,,,,,,,a,Incorrect,,,,,,t3.png,t1.png,2,0.056466,29,Female,2020-10-21_14h23.40.601,torte-q,2020.1.3,Win32,60,13322,0.63303,,,,,,,,,,,,,,0,53,53,29,1,,,,,,,,,,,,,,,,,,,,,,,,,,
,,,,,,,,,,,,a,Incorrect,,,,,,t2.png,t5.png,3,0.0000131,29,Female,2020-10-21_14h23.40.601,torte-q,2020.1.3,Win32,60,13322,0.646985,,,,,,,,,,,,,,0,54,54,66,1,,,,,,,,,,,,,,,,,,,,,,,,,,
,,,,,,,,,,,,a,Correct!,,,,,,t4.png,t5.png,1,0.9,29,Female,2020-10-21_14h23.40.601,torte-q,2020.1.3,Win32,60,13322,1.082215,,,,,,,,,,,,,,0,55,55,115,1,,,,,,,,,,,,,,,,,,,,,,,,,,
,,,,,,,,,,,,a,Correct!,,,,,,t4.png,t3.png,1,0.90855,29,Female,2020-10-21_14h23.40.601,torte-q,2020.1.3,Win32,60,13322,0.72962,,,,,,,,,,,,,,0,56,56,35,1,,,,,,,,,,,,,,,,,,,,,,,,,,
,,,,,,,,,,,,a,Correct!,,,,,,t3.png,t4.png,1,0.909,29,Female,2020-10-21_14h23.40.601,torte-q,2020.1.3,Win32,60,13322,1.065435,,,,,,,,,,,,,,0,57,57,82,1,,,,,,,,,,,,,,,,,,,,,,,,,,
,,,,,,,,,,,,a,Correct!,,,,,,t5.png,t5.png,0,0.97829,29,Female,2020-10-21_14h23.40.601,torte-q,2020.1.3,Win32,60,13322,0.670395,,,,,,,,,,,,,,0,58,58,94,1,,,,,,,,,,,,,,,,,,,,,,,,,,
,,,,,,,,,,,,a,Incorrect,,,,,,t3.png,t1.png,2,0.056466,29,Female,2020-10-21_14h23.40.601,torte-q,2020.1.3,Win32,60,13322,0.65025,,,,,,,,,,,,,,0,59,59,32,1,,,,,,,,,,,,,,,,,,,,,,,,,,
,,,,,,,,,,,,a,Correct!,,,,,,t3.png,t2.png,1,0.90855,29,Female,2020-10-21_14h23.40.601,torte-q,2020.1.3,Win32,60,13322,0.984725,,,,,,,,,,,,,,0,60,60,97,1,,,,,,,,,,,,,,,,,,,,,,,,,,
,,,,,,,,,,,,l,Correct!,,,,,,t5.png,t1.png,4,9.55E-11,29,Female,2020-10-21_14h23.40.601,torte-q,2020.1.3,Win32,60,13322,0.931195,,,,,,,,,,,,,,0,61,61,43,1,,,,,,,,,,,,,,,,,,,,,,,,,,
,,,,,,,,,,,,a,Incorrect,,,,,,t2.png,t3.png,1,0.90855,29,Female,2020-10-21_14h23.40.601,torte-q,2020.1.3,Win32,60,13322,0.79944,,,,,,,,,,,,,,0,62,62,65,1,,,,,,,,,,,,,,,,,,,,,,,,,,
,,,,,,,,,,,,a,Incorrect,,,,,,t3.png,t5.png,2,0.056466,29,Female,2020-10-21_14h23.40.601,torte-q,2020.1.3,Win32,60,13322,0.715585,,,,,,,,,,,,,,0,63,63,6,1,,,,,,,,,,,,,,,,,,,,,,,,,,
,,,,,,,,,,,,a,Correct!,,,,,,t5.png,t5.png,0,0.97829,29,Female,2020-10-21_14h23.40.601,torte-q,2020.1.3,Win32,60,13322,0.74913,,,,,,,,,,,,,,0,64,64,25,1,,,,,,,,,,,,,,,,,,,,,,,,,,
,,,,,,,,,,,,a,Correct!,,,,,,t3.png,t2.png,1,0.909,29,Female,2020-10-21_14h23.40.601,torte-q,2020.1.3,Win32,60,13322,0.76183,,,,,,,,,,,,,,0,65,65,3,1,,,,,,,,,,,,,,,,,,,,,,,,,,
,,,,,,,,,,,,a,Correct!,,,,,,t1.png,t2.png,1,0.90025,29,Female,2020-10-21_14h23.40.601,torte-q,2020.1.3,Win32,60,13322,0.95548,,,,,,,,,,,,,,0,66,66,33,1,,,,,,,,,,,,,,,,,,,,,,,,,,
,,,,,,,,,,,,l,Correct!,,,,,,t2.png,t4.png,2,0.059078,29,Female,2020-10-21_14h23.40.601,torte-q,2020.1.3,Win32,60,13322,0.97167,,,,,,,,,,,,,,0,67,67,24,1,,,,,,,,,,,,,,,,,,,,,,,,,,
,,,,,,,,,,,,a,Incorrect,,,,,,t2.png,t5.png,3,0.0000131,29,Female,2020-10-21_14h23.40.601,torte-q,2020.1.3,Win32,60,13322,0.75715,,,,,,,,,,,,,,0,68,68,40,1,,,,,,,,,,,,,,,,,,,,,,,,,,
,,,,,,,,,,,,a,Correct!,,,,,,t2.png,t3.png,1,0.909,29,Female,2020-10-21_14h23.40.601,torte-q,2020.1.3,Win32,60,13322,0.717395,,,,,,,,,,,,,,0,69,69,74,1,,,,,,,,,,,,,,,,,,,,,,,,,,
,,,,,,,,,,,,a,Correct!,,,,,,t1.png,t2.png,1,0.90025,29,Female,2020-10-21_14h23.40.601,torte-q,2020.1.3,Win32,60,13322,0.999205,,,,,,,,,,,,,,0,70,70,105,1,,,,,,,,,,,,,,,,,,,,,,,,,,
,,,,,,,,,,,,a,Incorrect,,,,,,t5.png,t3.png,2,0.056466,29,Female,2020-10-21_14h23.40.601,torte-q,2020.1.3,Win32,60,13322,0.848885,,,,,,,,,,,,,,0,71,71,108,1,,,,,,,,,,,,,,,,,,,,,,,,,,
,,,,,,,,,,,,a,Correct!,,,,,,t4.png,t4.png,0,0.98115,29,Female,2020-10-21_14h23.40.601,torte-q,2020.1.3,Win32,60,13322,0.709675,,,,,,,,,,,,,,0,72,72,90,1,,,,,,,,,,,,,,,,,,,,,,,,,,
,,,,,,,,,,,,a,Incorrect,,,,,,t5.png,t2.png,3,0.0000131,29,Female,2020-10-21_14h23.40.601,torte-q,2020.1.3,Win32,60,13322,0.85101,,,,,,,,,,,,,,0,73,73,91,1,,,,,,,,,,,,,,,,,,,,,,,,,,
,,,,,,,,,,,,a,Correct!,,,,,,t2.png,t3.png,1,0.90855,29,Female,2020-10-21_14h23.40.601,torte-q,2020.1.3,Win32,60,13322,0.681285,,,,,,,,,,,,,,0,74,74,68,1,,,,,,,,,,,,,,,,,,,,,,,,,,
,,,,,,,,,,,,a,Correct!,,,,,,t2.png,t2.png,0,0.981,29,Female,2020-10-21_14h23.40.601,torte-q,2020.1.3,Win32,60,13322,0.482835,,,,,,,,,,,,,,0,75,75,101,1,,,,,,,,,,,,,,,,,,,,,,,,,,
,,,,,,,,,,,,l,Correct!,,,,,,t2.png,t4.png,2,0.059078,29,Female,2020-10-21_14h23.40.601,torte-q,2020.1.3,Win32,60,13322,0.733615,,,,,,,,,,,,,,0,76,76,37,1,,,,,,,,,,,,,,,,,,,,,,,,,,
,,,,,,,,,,,,l,Correct!,,,,,,t1.png,t5.png,4,9.55E-11,29,Female,2020-10-21_14h23.40.601,torte-q,2020.1.3,Win32,60,13322,0.61991,,,,,,,,,,,,,,0,77,77,12,1,,,,,,,,,,,,,,,,,,,,,,,,,,
,,,,,,,,,,,,a,Correct!,,,,,,t1.png,t1.png,0,0.97829,29,Female,2020-10-21_14h23.40.601,torte-q,2020.1.3,Win32,60,13322,0.60533,,,,,,,,,,,,,,0,78,78,67,1,,,,,,,,,,,,,,,,,,,,,,,,,,
,,,,,,,,,,,,l,Correct!,,,,,,t1.png,t5.png,4,9.55E-11,29,Female,2020-10-21_14h23.40.601,torte-q,2020.1.3,Win32,60,13322,0.619155,,,,,,,,,,,,,,0,79,79,55,1,,,,,,,,,,,,,,,,,,,,,,,,,,
,,,,,,,,,,,,a,Correct!,,,,,,t1.png,t1.png,0,0.978,29,Female,2020-10-21_14h23.40.601,torte-q,2020.1.3,Win32,60,13322,0.56379,,,,,,,,,,,,,,0,80,80,54,1,,,,,,,,,,,,,,,,,,,,,,,,,,
,,,,,,,,,,,,a,Correct!,,,,,,t4.png,t3.png,1,0.90855,29,Female,2020-10-21_14h23.40.601,torte-q,2020.1.3,Win32,60,13322,0.81567,,,,,,,,,,,,,,0,81,81,45,1,,,,,,,,,,,,,,,,,,,,,,,,,,
,,,,,,,,,,,,,Too slow :(,,,,,,t1.png,t4.png,3,0.0000131,29,Female,2020-10-21_14h23.40.601,torte-q,2020.1.3,Win32,60,13322,,,,,,,,,,,,,,,0,82,82,107,1,,,,,,,,,,,,,,,,,,,,,,,,,,
,,,,,,,,,,,,a,Correct!,,,,,,t4.png,t4.png,0,0.98115,29,Female,2020-10-21_14h23.40.601,torte-q,2020.1.3,Win32,60,13322,1.21534,,,,,,,,,,,,,,0,83,83,80,1,,,,,,,,,,,,,,,,,,,,,,,,,,
,,,,,,,,,,,,a,Incorrect,,,,,,t3.png,t1.png,2,0.056466,29,Female,2020-10-21_14h23.40.601,torte-q,2020.1.3,Win32,60,13322,0.65153,,,,,,,,,,,,,,0,84,84,64,1,,,,,,,,,,,,,,,,,,,,,,,,,,
,,,,,,,,,,,,a,Incorrect,,,,,,t5.png,t1.png,4,9.55E-11,29,Female,2020-10-21_14h23.40.601,torte-q,2020.1.3,Win32,60,13322,0.449385,,,,,,,,,,,,,,0,85,85,102,1,,,,,,,,,,,,,,,,,,,,,,,,,,
,,,,,,,,,,,,a,Correct!,,,,,,t1.png,t2.png,1,0.90025,29,Female,2020-10-21_14h23.40.601,torte-q,2020.1.3,Win32,60,13322,0.68165,,,,,,,,,,,,,,0,86,86,72,1,,,,,,,,,,,,,,,,,,,,,,,,,,
,,,,,,,,,,,,l,Correct!,,,,,,t2.png,t4.png,2,0.059078,29,Female,2020-10-21_14h23.40.601,torte-q,2020.1.3,Win32,60,13322,0.782665,,,,,,,,,,,,,,0,87,87,11,1,,,,,,,,,,,,,,,,,,,,,,,,,,
,,,,,,,,,,,,a,Correct!,,,,,,t4.png,t3.png,1,0.909,29,Female,2020-10-21_14h23.40.601,torte-q,2020.1.3,Win32,60,13322,0.837305,,,,,,,,,,,,,,0,88,88,20,1,,,,,,,,,,,,,,,,,,,,,,,,,,
,,,,,,,,,,,,a,Incorrect,,,,,,t5.png,t2.png,3,0.0000131,29,Female,2020-10-21_14h23.40.601,torte-q,2020.1.3,Win32,60,13322,0.89905,,,,,,,,,,,,,,0,89,89,98,1,,,,,,,,,,,,,,,,,,,,,,,,,,
,,,,,,,,,,,,a,Incorrect,,,,,,t1.png,t3.png,2,0.056466,29,Female,2020-10-21_14h23.40.601,torte-q,2020.1.3,Win32,60,13322,0.688035,,,,,,,,,,,,,,0,90,90,69,1,,,,,,,,,,,,,,,,,,,,,,,,,,
,,,,,,,,,,,,a,Correct!,,,,,,t5.png,t5.png,0,0.97829,29,Female,2020-10-21_14h23.40.601,torte-q,2020.1.3,Win32,60,13322,0.64829,,,,,,,,,,,,,,0,91,91,73,1,,,,,,,,,,,,,,,,,,,,,,,,,,
,,,,,,,,,,,,a,Correct!,,,,,,t2.png,t1.png,1,0.90025,29,Female,2020-10-21_14h23.40.601,torte-q,2020.1.3,Win32,60,13322,0.68318,,,,,,,,,,,,,,0,92,92,4,1,,,,,,,,,,,,,,,,,,,,,,,,,,
,,,,,,,,,,,,a,Correct!,,,,,,t4.png,t5.png,1,0.90025,29,Female,2020-10-21_14h23.40.601,torte-q,2020.1.3,Win32,60,13322,0.602475,,,,,,,,,,,,,,0,93,93,113,1,,,,,,,,,,,,,,,,,,,,,,,,,,
,,,,,,,,,,,,a,Incorrect,,,,,,t1.png,t3.png,2,0.056466,29,Female,2020-10-21_14h23.40.601,torte-q,2020.1.3,Win32,60,13322,0.581605,,,,,,,,,,,,,,0,94,94,60,1,,,,,,,,,,,,,,,,,,,,,,,,,,
,,,,,,,,,,,,a,Incorrect,,,,,,t2.png,t5.png,3,0.0000131,29,Female,2020-10-21_14h23.40.601,torte-q,2020.1.3,Win32,60,13322,0.88539,,,,,,,,,,,,,,0,95,95,95,1,,,,,,,,,,,,,,,,,,,,,,,,,,
,,,,,,,,,,,,a,Correct!,,,,,,t4.png,t3.png,1,0.909,29,Female,2020-10-21_14h23.40.601,torte-q,2020.1.3,Win32,60,13322,0.8288,,,,,,,,,,,,,,0,96,96,46,1,,,,,,,,,,,,,,,,,,,,,,,,,,
,,,,,,,,,,,,a,Incorrect,,,,,,t5.png,t4.png,1,0.90025,29,Female,2020-10-21_14h23.40.601,torte-q,2020.1.3,Win32,60,13322,0.638145,,,,,,,,,,,,,,0,97,97,26,1,,,,,,,,,,,,,,,,,,,,,,,,,,
,,,,,,,,,,,,a,Correct!,,,,,,t2.png,t3.png,1,0.90855,29,Female,2020-10-21_14h23.40.601,torte-q,2020.1.3,Win32,60,13322,0.948425,,,,,,,,,,,,,,0,98,98,111,1,,,,,,,,,,,,,,,,,,,,,,,,,,
,,,,,,,,,,,,a,Correct!,,,,,,t4.png,t4.png,0,0.98115,29,Female,2020-10-21_14h23.40.601,torte-q,2020.1.3,Win32,60,13322,0.70368,,,,,,,,,,,,,,0,99,99,52,1,,,,,,,,,,,,,,,,,,,,,,,,,,
,,,,,,,,,,,,a,Incorrect,,,,,,t5.png,t3.png,2,0.056466,29,Female,2020-10-21_14h23.40.601,torte-q,2020.1.3,Win32,60,13322,0.647975,,,,,,,,,,,,,,0,100,100,56,1,,,,,,,,,,,,,,,,,,,,,,,,,,
,,,,,,,,,,,,a,Correct!,,,,,,t1.png,t1.png,0,0.97829,29,Female,2020-10-21_14h23.40.601,torte-q,2020.1.3,Win32,60,13322,0.603575,,,,,,,,,,,,,,0,101,101,78,1,,,,,,,,,,,,,,,,,,,,,,,,,,
,,,,,,,,,,,,a,Incorrect,,,,,,t1.png,t3.png,2,0.056466,29,Female,2020-10-21_14h23.40.601,torte-q,2020.1.3,Win32,60,13322,0.55521,,,,,,,,,,,,,,0,102,102,99,1,,,,,,,,,,,,,,,,,,,,,,,,,,
,,,,,,,,,,,,a,Correct!,,,,,,t2.png,t2.png,0,0.98115,29,Female,2020-10-21_14h23.40.601,torte-q,2020.1.3,Win32,60,13322,0.616015,,,,,,,,,,,,,,0,103,103,59,1,,,,,,,,,,,,,,,,,,,,,,,,,,
,,,,,,,,,,,,a,Correct!,,,,,,t4.png,t3.png,1,0.90855,29,Female,2020-10-21_14h23.40.601,torte-q,2020.1.3,Win32,60,13322,0.68405,,,,,,,,,,,,,,0,104,104,75,1,,,,,,,,,,,,,,,,,,,,,,,,,,
,,,,,,,,,,,,a,Correct!,,,,,,t5.png,t4.png,1,0.90025,29,Female,2020-10-21_14h23.40.601,torte-q,2020.1.3,Win32,60,13322,0.766175,,,,,,,,,,,,,,0,105,105,27,1,,,,,,,,,,,,,,,,,,,,,,,,,,
,,,,,,,,,,,,a,Incorrect,,,,,,t1.png,t4.png,3,0.0000131,29,Female,2020-10-21_14h23.40.601,torte-q,2020.1.3,Win32,60,13322,0.780975,,,,,,,,,,,,,,0,106,106,92,1,,,,,,,,,,,,,,,,,,,,,,,,,,
,,,,,,,,,,,,l,Correct!,,,,,,t4.png,t2.png,2,0.059078,29,Female,2020-10-21_14h23.40.601,torte-q,2020.1.3,Win32,60,13322,0.78579,,,,,,,,,,,,,,0,107,107,88,1,,,,,,,,,,,,,,,,,,,,,,,,,,
,,,,,,,,,,,,a,Incorrect,,,,,,t3.png,t5.png,2,0.0565,29,Female,2020-10-21_14h23.40.601,torte-q,2020.1.3,Win32,60,13322,0.75114,,,,,,,,,,,,,,0,108,108,30,1,,,,,,,,,,,,,,,,,,,,,,,,,,
,,,,,,,,,,,,a,Correct!,,,,,,t3.png,t2.png,1,0.90855,29,Female,2020-10-21_14h23.40.601,torte-q,2020.1.3,Win32,60,13322,0.61707,,,,,,,,,,,,,,0,109,109,53,1,,,,,,,,,,,,,,,,,,,,,,,,,,
,,,,,,,,,,,,a,Correct!,,,,,,t2.png,t3.png,1,0.90855,29,Female,2020-10-21_14h23.40.601,torte-q,2020.1.3,Win32,60,13322,0.62383,,,,,,,,,,,,,,0,110,110,10,1,,,,,,,,,,,,,,,,,,,,,,,,,,
,,,,,,,,,,,,a,Correct!,,,,,,t3.png,t4.png,1,0.90855,29,Female,2020-10-21_14h23.40.601,torte-q,2020.1.3,Win32,60,13322,0.783245,,,,,,,,,,,,,,0,111,111,84,1,,,,,,,,,,,,,,,,,,,,,,,,,,
,,,,,,,,,,,,a,Incorrect,,,,,,t1.png,t4.png,3,0.0000131,29,Female,2020-10-21_14h23.40.601,torte-q,2020.1.3,Win32,60,13322,0.58626,,,,,,,,,,,,,,0,112,112,81,1,,,,,,,,,,,,,,,,,,,,,,,,,,
,,,,,,,,,,,,a,Correct!,,,,,,t1.png,t3.png,2,0.056466,29,Female,2020-10-21_14h23.40.601,torte-q,2020.1.3,Win32,60,13322,0.514305,,,,,,,,,,,,,,0,113,113,63,1,,,,,,,,,,,,,,,,,,,,,,,,,,
,,,,,,,,,,,,a,Correct!,,,,,,t3.png,t2.png,1,0.909,29,Female,2020-10-21_14h23.40.601,torte-q,2020.1.3,Win32,60,13322,0.999365,,,,,,,,,,,,,,0,114,114,23,1,,,,,,,,,,,,,,,,,,,,,,,,,,
,,,,,,,,,,,,a,Incorrect,,,,,,t1.png,t4.png,3,0.0000131,29,Female,2020-10-21_14h23.40.601,torte-q,2020.1.3,Win32,60,13322,0.60693,,,,,,,,,,,,,,0,115,115,50,1,,,,,,,,,,,,,,,,,,,,,,,,,,
,,,,,,,,,,,,a,Incorrect,,,,,,t5.png,t3.png,2,0.056466,29,Female,2020-10-21_14h23.40.601,torte-q,2020.1.3,Win32,60,13322,0.833225,,,,,,,,,,,,,,0,116,116,38,1,,,,,,,,,,,,,,,,,,,,,,,,,,
,,,,,,,,,,,,a,Incorrect,,,,,,t1.png,t4.png,3,0.0000131,29,Female,2020-10-21_14h23.40.601,torte-q,2020.1.3,Win32,60,13322,0.76562,,,,,,,,,,,,,,0,117,117,17,1,,,,,,,,,,,,,,,,,,,,,,,,,,
,,,,,,,,,,,,a,Incorrect,,,,,,t1.png,t3.png,2,0.056466,29,Female,2020-10-21_14h23.40.601,torte-q,2020.1.3,Win32,60,13322,0.65594,,,,,,,,,,,,,,0,118,118,87,1,,,,,,,,,,,,,,,,,,,,,,,,,,
,,,,,,,,,,,,a,Incorrect,,,,,,t2.png,t5.png,3,0.0000131,29,Female,2020-10-21_14h23.40.601,torte-q,2020.1.3,Win32,60,13322,0.833695,,,,,,,,,,,,,,0,119,119,8,1,,,,,,,,,,,,,,,,,,,,,,,,,,
,,,,,,,,,,,,,,,,,,,,,,,29,Female,2020-10-21_14h23.40.601,torte-q,2020.1.3,Win32,60,13322,,space,1.347945,,,,,,,,,,,,,,,,,4.005000153,6.127865,190.0000247,-6.000010908,1,0,0,s4,166.000024,47.9999907,1,0,0,t2,191.3333581,-116.6666809,1,0,0,proceed,space,19.14444,space,0.763655,space,0.547105
