key_resp_8.keys,key_resp_8.rt,key_resp_9.keys,key_resp_9.rt,key_resp_10.keys,key_resp_10.rt,key_resp_11.keys,key_resp_11.rt,key_resp_2.keys,key_resp_2.rt,key_resp_3.keys,key_resp_3.rt,key_resp.keys,key_resp.rt,Feedback,train.thisRepN,train.thisTrialN,train.thisN,train.thisIndex,train.ran,torta_sx,torta_dx,difference,probability,age,gender,date,expName,psychopyVersion,OS,frameRate,participant,key_resp_15.keys,key_resp_15.rt,key_resp_6.keys,key_resp_6.rt,test1.thisRepN,test1.thisTrialN,test1.thisN,test1.thisIndex,test1.ran,key_resp_16.keys,key_resp_16.rt,key_resp_7.keys,key_resp_7.rt,test2.thisRepN,test2.thisTrialN,test2.thisN,test2.thisIndex,test2.ran,rating.response,rating.rt,mouse.x,mouse.y,mouse.leftButton,mouse.midButton,mouse.rightButton,mouse.clicked_name,mouse_2.x,mouse_2.y,mouse_2.leftButton,mouse_2.midButton,mouse_2.rightButton,mouse_2.clicked_name,mouse_3.x,mouse_3.y,mouse_3.leftButton,mouse_3.midButton,mouse_3.rightButton,mouse_3.clicked_name,key_resp_12.keys,key_resp_12.rt,key_resp_13.keys,key_resp_13.rt,key_resp_14.keys,key_resp_14.rt
space,0.998355,space,1.58065,space,0.98049,space,3.233645,space,19.38689,left,36.99818,a,1.66659,Correct!,0,0,0,105,1,t3.png,t2.png,1,0.90855,19,female,2020-11-05_13h34.12.129,torte-q,2020.1.3,MacIntel,60,13325,,,,,,,,,,,,,,,,,,,,,,,,,,,,,,,,,,,,,,,,,,,,
,,,,,,,,,,,,a,1.15,Incorrect,0,1,1,36,1,t3.png,t1.png,2,0.0565,19,female,2020-11-05_13h34.12.129,torte-q,2020.1.3,MacIntel,60,13325,,,,,,,,,,,,,,,,,,,,,,,,,,,,,,,,,,,,,,,,,,,,
,,,,,,,,,,,,l,1.430635,Incorrect,0,2,2,70,1,t5.png,t5.png,0,0.978,19,female,2020-11-05_13h34.12.129,torte-q,2020.1.3,MacIntel,60,13325,,,,,,,,,,,,,,,,,,,,,,,,,,,,,,,,,,,,,,,,,,,,
,,,,,,,,,,,,l,1.73498,Incorrect,0,3,3,112,1,t1.png,t1.png,0,0.97829,19,female,2020-11-05_13h34.12.129,torte-q,2020.1.3,MacIntel,60,13325,,,,,,,,,,,,,,,,,,,,,,,,,,,,,,,,,,,,,,,,,,,,
,,,,,,,,,,,,a,1.547725,Correct!,0,4,4,66,1,t4.png,t5.png,1,0.9,19,female,2020-11-05_13h34.12.129,torte-q,2020.1.3,MacIntel,60,13325,,,,,,,,,,,,,,,,,,,,,,,,,,,,,,,,,,,,,,,,,,,,
,,,,,,,,,,,,,,Too slow :(,0,5,5,40,1,t1.png,t5.png,4,9.55E-11,19,female,2020-11-05_13h34.12.129,torte-q,2020.1.3,MacIntel,60,13325,,,,,,,,,,,,,,,,,,,,,,,,,,,,,,,,,,,,,,,,,,,,
,,,,,,,,,,,,a,1.038295,Incorrect,0,6,6,90,1,t1.png,t5.png,4,9.55E-11,19,female,2020-11-05_13h34.12.129,torte-q,2020.1.3,MacIntel,60,13325,,,,,,,,,,,,,,,,,,,,,,,,,,,,,,,,,,,,,,,,,,,,
,,,,,,,,,,,,a,1.49908,Correct!,0,7,7,63,1,t2.png,t3.png,1,0.909,19,female,2020-11-05_13h34.12.129,torte-q,2020.1.3,MacIntel,60,13325,,,,,,,,,,,,,,,,,,,,,,,,,,,,,,,,,,,,,,,,,,,,
,,,,,,,,,,,,a,1.96439,Incorrect,0,8,8,12,1,t5.png,t1.png,4,9.55E-11,19,female,2020-11-05_13h34.12.129,torte-q,2020.1.3,MacIntel,60,13325,,,,,,,,,,,,,,,,,,,,,,,,,,,,,,,,,,,,,,,,,,,,
,,,,,,,,,,,,a,2.333505,Correct!,0,9,9,25,1,t5.png,t5.png,0,0.97829,19,female,2020-11-05_13h34.12.129,torte-q,2020.1.3,MacIntel,60,13325,,,,,,,,,,,,,,,,,,,,,,,,,,,,,,,,,,,,,,,,,,,,
,,,,,,,,,,,,l,1.067385,Correct!,0,10,10,99,1,t1.png,t5.png,4,9.55E-11,19,female,2020-11-05_13h34.12.129,torte-q,2020.1.3,MacIntel,60,13325,,,,,,,,,,,,,,,,,,,,,,,,,,,,,,,,,,,,,,,,,,,,
,,,,,,,,,,,,l,1.164245,Correct!,0,11,11,5,1,t2.png,t4.png,2,0.059078,19,female,2020-11-05_13h34.12.129,torte-q,2020.1.3,MacIntel,60,13325,,,,,,,,,,,,,,,,,,,,,,,,,,,,,,,,,,,,,,,,,,,,
,,,,,,,,,,,,a,0.914785,Correct!,0,12,12,49,1,t4.png,t5.png,1,0.9,19,female,2020-11-05_13h34.12.129,torte-q,2020.1.3,MacIntel,60,13325,,,,,,,,,,,,,,,,,,,,,,,,,,,,,,,,,,,,,,,,,,,,
,,,,,,,,,,,,l,1.798095,Correct!,0,13,13,43,1,t4.png,t2.png,2,0.059078,19,female,2020-11-05_13h34.12.129,torte-q,2020.1.3,MacIntel,60,13325,,,,,,,,,,,,,,,,,,,,,,,,,,,,,,,,,,,,,,,,,,,,
,,,,,,,,,,,,a,1.298375,Correct!,0,14,14,48,1,t5.png,t5.png,0,0.97829,19,female,2020-11-05_13h34.12.129,torte-q,2020.1.3,MacIntel,60,13325,,,,,,,,,,,,,,,,,,,,,,,,,,,,,,,,,,,,,,,,,,,,
,,,,,,,,,,,,l,0.781985,Correct!,0,15,15,0,1,t5.png,t1.png,4,9.55E-11,19,female,2020-11-05_13h34.12.129,torte-q,2020.1.3,MacIntel,60,13325,,,,,,,,,,,,,,,,,,,,,,,,,,,,,,,,,,,,,,,,,,,,
,,,,,,,,,,,,a,1.23124,Correct!,0,16,16,100,1,t4.png,t5.png,1,0.90025,19,female,2020-11-05_13h34.12.129,torte-q,2020.1.3,MacIntel,60,13325,,,,,,,,,,,,,,,,,,,,,,,,,,,,,,,,,,,,,,,,,,,,
,,,,,,,,,,,,l,1.51591,Incorrect,0,17,17,39,1,t3.png,t2.png,1,0.90855,19,female,2020-11-05_13h34.12.129,torte-q,2020.1.3,MacIntel,60,13325,,,,,,,,,,,,,,,,,,,,,,,,,,,,,,,,,,,,,,,,,,,,
,,,,,,,,,,,,a,1.747855,Incorrect,0,18,18,88,1,t3.png,t1.png,2,0.056466,19,female,2020-11-05_13h34.12.129,torte-q,2020.1.3,MacIntel,60,13325,,,,,,,,,,,,,,,,,,,,,,,,,,,,,,,,,,,,,,,,,,,,
,,,,,,,,,,,,l,2.03263,Incorrect,0,19,19,96,1,t1.png,t1.png,0,0.97829,19,female,2020-11-05_13h34.12.129,torte-q,2020.1.3,MacIntel,60,13325,,,,,,,,,,,,,,,,,,,,,,,,,,,,,,,,,,,,,,,,,,,,
,,,,,,,,,,,,a,1.583275,Incorrect,0,20,20,91,1,t1.png,t4.png,3,0.0000131,19,female,2020-11-05_13h34.12.129,torte-q,2020.1.3,MacIntel,60,13325,,,,,,,,,,,,,,,,,,,,,,,,,,,,,,,,,,,,,,,,,,,,
,,,,,,,,,,,,a,1.134015,Incorrect,0,21,21,98,1,t2.png,t4.png,2,0.0591,19,female,2020-11-05_13h34.12.129,torte-q,2020.1.3,MacIntel,60,13325,,,,,,,,,,,,,,,,,,,,,,,,,,,,,,,,,,,,,,,,,,,,
,,,,,,,,,,,,l,0.966985,Incorrect,0,22,22,10,1,t2.png,t3.png,1,0.90855,19,female,2020-11-05_13h34.12.129,torte-q,2020.1.3,MacIntel,60,13325,,,,,,,,,,,,,,,,,,,,,,,,,,,,,,,,,,,,,,,,,,,,
,,,,,,,,,,,,l,1.583955,Correct!,0,23,23,35,1,t1.png,t4.png,3,0.0000131,19,female,2020-11-05_13h34.12.129,torte-q,2020.1.3,MacIntel,60,13325,,,,,,,,,,,,,,,,,,,,,,,,,,,,,,,,,,,,,,,,,,,,
,,,,,,,,,,,,l,1.4332,Incorrect,0,24,24,32,1,t4.png,t5.png,1,0.90025,19,female,2020-11-05_13h34.12.129,torte-q,2020.1.3,MacIntel,60,13325,,,,,,,,,,,,,,,,,,,,,,,,,,,,,,,,,,,,,,,,,,,,
,,,,,,,,,,,,a,1.01558,Incorrect,0,25,25,17,1,t1.png,t4.png,3,0.0000131,19,female,2020-11-05_13h34.12.129,torte-q,2020.1.3,MacIntel,60,13325,,,,,,,,,,,,,,,,,,,,,,,,,,,,,,,,,,,,,,,,,,,,
,,,,,,,,,,,,a,1.06689,Correct!,0,26,26,44,1,t2.png,t3.png,1,0.909,19,female,2020-11-05_13h34.12.129,torte-q,2020.1.3,MacIntel,60,13325,,,,,,,,,,,,,,,,,,,,,,,,,,,,,,,,,,,,,,,,,,,,
,,,,,,,,,,,,a,1.18377,Correct!,0,27,27,104,1,t2.png,t3.png,1,0.90855,19,female,2020-11-05_13h34.12.129,torte-q,2020.1.3,MacIntel,60,13325,,,,,,,,,,,,,,,,,,,,,,,,,,,,,,,,,,,,,,,,,,,,
,,,,,,,,,,,,a,1.46456,Correct!,0,28,28,106,1,t2.png,t3.png,1,0.90855,19,female,2020-11-05_13h34.12.129,torte-q,2020.1.3,MacIntel,60,13325,,,,,,,,,,,,,,,,,,,,,,,,,,,,,,,,,,,,,,,,,,,,
,,,,,,,,,,,,a,1.365135,Incorrect,0,29,29,24,1,t4.png,t2.png,2,0.059078,19,female,2020-11-05_13h34.12.129,torte-q,2020.1.3,MacIntel,60,13325,,,,,,,,,,,,,,,,,,,,,,,,,,,,,,,,,,,,,,,,,,,,
,,,,,,,,,,,,a,1.386685,Correct!,0,30,30,20,1,t2.png,t3.png,1,0.90855,19,female,2020-11-05_13h34.12.129,torte-q,2020.1.3,MacIntel,60,13325,,,,,,,,,,,,,,,,,,,,,,,,,,,,,,,,,,,,,,,,,,,,
,,,,,,,,,,,,l,1.549115,Correct!,0,31,31,102,1,t4.png,t2.png,2,0.059078,19,female,2020-11-05_13h34.12.129,torte-q,2020.1.3,MacIntel,60,13325,,,,,,,,,,,,,,,,,,,,,,,,,,,,,,,,,,,,,,,,,,,,
,,,,,,,,,,,,a,0.96519,Incorrect,0,32,32,1,1,t2.png,t4.png,2,0.059078,19,female,2020-11-05_13h34.12.129,torte-q,2020.1.3,MacIntel,60,13325,,,,,,,,,,,,,,,,,,,,,,,,,,,,,,,,,,,,,,,,,,,,
,,,,,,,,,,,,l,1.08211,Incorrect,0,33,33,59,1,t5.png,t4.png,1,0.9,19,female,2020-11-05_13h34.12.129,torte-q,2020.1.3,MacIntel,60,13325,,,,,,,,,,,,,,,,,,,,,,,,,,,,,,,,,,,,,,,,,,,,
,,,,,,,,,,,,l,1.617465,Incorrect,0,34,34,76,1,t3.png,t2.png,1,0.90855,19,female,2020-11-05_13h34.12.129,torte-q,2020.1.3,MacIntel,60,13325,,,,,,,,,,,,,,,,,,,,,,,,,,,,,,,,,,,,,,,,,,,,
,,,,,,,,,,,,a,1.300595,Incorrect,0,35,35,86,1,t3.png,t1.png,2,0.056466,19,female,2020-11-05_13h34.12.129,torte-q,2020.1.3,MacIntel,60,13325,,,,,,,,,,,,,,,,,,,,,,,,,,,,,,,,,,,,,,,,,,,,
,,,,,,,,,,,,l,0.899885,Correct!,0,36,36,26,1,t4.png,t2.png,2,0.0591,19,female,2020-11-05_13h34.12.129,torte-q,2020.1.3,MacIntel,60,13325,,,,,,,,,,,,,,,,,,,,,,,,,,,,,,,,,,,,,,,,,,,,
,,,,,,,,,,,,l,0.81499,Correct!,0,37,37,73,1,t4.png,t2.png,2,0.059078,19,female,2020-11-05_13h34.12.129,torte-q,2020.1.3,MacIntel,60,13325,,,,,,,,,,,,,,,,,,,,,,,,,,,,,,,,,,,,,,,,,,,,
,,,,,,,,,,,,l,0.948895,Incorrect,0,38,38,95,1,t1.png,t1.png,0,0.978,19,female,2020-11-05_13h34.12.129,torte-q,2020.1.3,MacIntel,60,13325,,,,,,,,,,,,,,,,,,,,,,,,,,,,,,,,,,,,,,,,,,,,
,,,,,,,,,,,,a,1.53281,Correct!,0,39,39,97,1,t5.png,t5.png,0,0.97829,19,female,2020-11-05_13h34.12.129,torte-q,2020.1.3,MacIntel,60,13325,,,,,,,,,,,,,,,,,,,,,,,,,,,,,,,,,,,,,,,,,,,,
,,,,,,,,,,,,a,1.200265,Correct!,0,40,40,109,1,t5.png,t5.png,0,0.97829,19,female,2020-11-05_13h34.12.129,torte-q,2020.1.3,MacIntel,60,13325,,,,,,,,,,,,,,,,,,,,,,,,,,,,,,,,,,,,,,,,,,,,
,,,,,,,,,,,,a,1.38391,Incorrect,0,41,41,19,1,t4.png,t2.png,2,0.059078,19,female,2020-11-05_13h34.12.129,torte-q,2020.1.3,MacIntel,60,13325,,,,,,,,,,,,,,,,,,,,,,,,,,,,,,,,,,,,,,,,,,,,
,,,,,,,,,,,,a,0.950285,Correct!,0,42,42,74,1,t5.png,t4.png,1,0.9,19,female,2020-11-05_13h34.12.129,torte-q,2020.1.3,MacIntel,60,13325,,,,,,,,,,,,,,,,,,,,,,,,,,,,,,,,,,,,,,,,,,,,
,,,,,,,,,,,,l,0.89806,Correct!,0,43,43,3,1,t1.png,t5.png,4,9.55E-11,19,female,2020-11-05_13h34.12.129,torte-q,2020.1.3,MacIntel,60,13325,,,,,,,,,,,,,,,,,,,,,,,,,,,,,,,,,,,,,,,,,,,,
,,,,,,,,,,,,l,1.09781,Incorrect,0,44,44,69,1,t4.png,t2.png,2,0.059078,19,female,2020-11-05_13h34.12.129,torte-q,2020.1.3,MacIntel,60,13325,,,,,,,,,,,,,,,,,,,,,,,,,,,,,,,,,,,,,,,,,,,,
,,,,,,,,,,,,a,1.433475,Correct!,0,45,45,42,1,t5.png,t4.png,1,0.90025,19,female,2020-11-05_13h34.12.129,torte-q,2020.1.3,MacIntel,60,13325,,,,,,,,,,,,,,,,,,,,,,,,,,,,,,,,,,,,,,,,,,,,
,,,,,,,,,,,,a,1.180565,Correct!,0,46,46,110,1,t4.png,t5.png,1,0.90025,19,female,2020-11-05_13h34.12.129,torte-q,2020.1.3,MacIntel,60,13325,,,,,,,,,,,,,,,,,,,,,,,,,,,,,,,,,,,,,,,,,,,,
,,,,,,,,,,,,l,1.332495,Correct!,0,47,47,119,1,t1.png,t5.png,4,9.55E-11,19,female,2020-11-05_13h34.12.129,torte-q,2020.1.3,MacIntel,60,13325,,,,,,,,,,,,,,,,,,,,,,,,,,,,,,,,,,,,,,,,,,,,
,,,,,,,,,,,,l,1.14932,Correct!,0,48,48,94,1,t5.png,t1.png,4,9.55E-11,19,female,2020-11-05_13h34.12.129,torte-q,2020.1.3,MacIntel,60,13325,,,,,,,,,,,,,,,,,,,,,,,,,,,,,,,,,,,,,,,,,,,,
,,,,,,,,,,,,a,1.1486,Incorrect,0,49,49,27,1,t3.png,t1.png,2,0.0565,19,female,2020-11-05_13h34.12.129,torte-q,2020.1.3,MacIntel,60,13325,,,,,,,,,,,,,,,,,,,,,,,,,,,,,,,,,,,,,,,,,,,,
,,,,,,,,,,,,l,1.497885,Correct!,0,50,50,38,1,t3.png,t1.png,2,0.056466,19,female,2020-11-05_13h34.12.129,torte-q,2020.1.3,MacIntel,60,13325,,,,,,,,,,,,,,,,,,,,,,,,,,,,,,,,,,,,,,,,,,,,
,,,,,,,,,,,,a,1.41471,Correct!,0,51,51,101,1,t4.png,t5.png,1,0.90025,19,female,2020-11-05_13h34.12.129,torte-q,2020.1.3,MacIntel,60,13325,,,,,,,,,,,,,,,,,,,,,,,,,,,,,,,,,,,,,,,,,,,,
,,,,,,,,,,,,a,0.864175,Correct!,0,52,52,113,1,t5.png,t4.png,1,0.9,19,female,2020-11-05_13h34.12.129,torte-q,2020.1.3,MacIntel,60,13325,,,,,,,,,,,,,,,,,,,,,,,,,,,,,,,,,,,,,,,,,,,,
,,,,,,,,,,,,l,0.63459,Correct!,0,53,53,51,1,t3.png,t1.png,2,0.056466,19,female,2020-11-05_13h34.12.129,torte-q,2020.1.3,MacIntel,60,13325,,,,,,,,,,,,,,,,,,,,,,,,,,,,,,,,,,,,,,,,,,,,
,,,,,,,,,,,,a,1.148595,Incorrect,0,54,54,87,1,t5.png,t1.png,4,9.55E-11,19,female,2020-11-05_13h34.12.129,torte-q,2020.1.3,MacIntel,60,13325,,,,,,,,,,,,,,,,,,,,,,,,,,,,,,,,,,,,,,,,,,,,
,,,,,,,,,,,,l,1.632795,Incorrect,0,55,55,41,1,t3.png,t2.png,1,0.90855,19,female,2020-11-05_13h34.12.129,torte-q,2020.1.3,MacIntel,60,13325,,,,,,,,,,,,,,,,,,,,,,,,,,,,,,,,,,,,,,,,,,,,
,,,,,,,,,,,,a,1.683045,Correct!,0,56,56,16,1,t5.png,t4.png,1,0.9,19,female,2020-11-05_13h34.12.129,torte-q,2020.1.3,MacIntel,60,13325,,,,,,,,,,,,,,,,,,,,,,,,,,,,,,,,,,,,,,,,,,,,
,,,,,,,,,,,,l,1.935755,Correct!,0,57,57,60,1,t2.png,t4.png,2,0.059078,19,female,2020-11-05_13h34.12.129,torte-q,2020.1.3,MacIntel,60,13325,,,,,,,,,,,,,,,,,,,,,,,,,,,,,,,,,,,,,,,,,,,,
,,,,,,,,,,,,a,1.265175,Correct!,0,58,58,92,1,t2.png,t3.png,1,0.909,19,female,2020-11-05_13h34.12.129,torte-q,2020.1.3,MacIntel,60,13325,,,,,,,,,,,,,,,,,,,,,,,,,,,,,,,,,,,,,,,,,,,,
,,,,,,,,,,,,l,1.202245,Correct!,0,59,59,47,1,t4.png,t2.png,2,0.059078,19,female,2020-11-05_13h34.12.129,torte-q,2020.1.3,MacIntel,60,13325,,,,,,,,,,,,,,,,,,,,,,,,,,,,,,,,,,,,,,,,,,,,
,,,,,,,,,,,,a,0.73152,Incorrect,0,60,60,71,1,t5.png,t5.png,0,0.97829,19,female,2020-11-05_13h34.12.129,torte-q,2020.1.3,MacIntel,60,13325,,,,,,,,,,,,,,,,,,,,,,,,,,,,,,,,,,,,,,,,,,,,
,,,,,,,,,,,,l,1.198515,Incorrect,0,61,61,84,1,t1.png,t1.png,0,0.97829,19,female,2020-11-05_13h34.12.129,torte-q,2020.1.3,MacIntel,60,13325,,,,,,,,,,,,,,,,,,,,,,,,,,,,,,,,,,,,,,,,,,,,
,,,,,,,,,,,,a,0.78192,Correct!,0,62,62,107,1,t1.png,t1.png,0,0.978,19,female,2020-11-05_13h34.12.129,torte-q,2020.1.3,MacIntel,60,13325,,,,,,,,,,,,,,,,,,,,,,,,,,,,,,,,,,,,,,,,,,,,
,,,,,,,,,,,,a,1.898755,Correct!,0,63,63,8,1,t3.png,t2.png,1,0.90855,19,female,2020-11-05_13h34.12.129,torte-q,2020.1.3,MacIntel,60,13325,,,,,,,,,,,,,,,,,,,,,,,,,,,,,,,,,,,,,,,,,,,,
,,,,,,,,,,,,l,1.45072,Correct!,0,64,64,54,1,t1.png,t5.png,4,9.55E-11,19,female,2020-11-05_13h34.12.129,torte-q,2020.1.3,MacIntel,60,13325,,,,,,,,,,,,,,,,,,,,,,,,,,,,,,,,,,,,,,,,,,,,
,,,,,,,,,,,,a,1.814705,Incorrect,0,65,65,89,1,t1.png,t4.png,3,0.0000131,19,female,2020-11-05_13h34.12.129,torte-q,2020.1.3,MacIntel,60,13325,,,,,,,,,,,,,,,,,,,,,,,,,,,,,,,,,,,,,,,,,,,,
,,,,,,,,,,,,l,1.0644,Incorrect,0,66,66,64,1,t1.png,t1.png,0,0.978,19,female,2020-11-05_13h34.12.129,torte-q,2020.1.3,MacIntel,60,13325,,,,,,,,,,,,,,,,,,,,,,,,,,,,,,,,,,,,,,,,,,,,
,,,,,,,,,,,,l,1.71476,Correct!,0,67,67,103,1,t3.png,t1.png,2,0.056466,19,female,2020-11-05_13h34.12.129,torte-q,2020.1.3,MacIntel,60,13325,,,,,,,,,,,,,,,,,,,,,,,,,,,,,,,,,,,,,,,,,,,,
,,,,,,,,,,,,a,1.38133,Incorrect,0,68,68,46,1,t4.png,t2.png,2,0.059078,19,female,2020-11-05_13h34.12.129,torte-q,2020.1.3,MacIntel,60,13325,,,,,,,,,,,,,,,,,,,,,,,,,,,,,,,,,,,,,,,,,,,,
,,,,,,,,,,,,l,0.981735,Correct!,0,69,69,14,1,t2.png,t4.png,2,0.059078,19,female,2020-11-05_13h34.12.129,torte-q,2020.1.3,MacIntel,60,13325,,,,,,,,,,,,,,,,,,,,,,,,,,,,,,,,,,,,,,,,,,,,
,,,,,,,,,,,,l,1.5159,Incorrect,0,70,70,75,1,t1.png,t1.png,0,0.97829,19,female,2020-11-05_13h34.12.129,torte-q,2020.1.3,MacIntel,60,13325,,,,,,,,,,,,,,,,,,,,,,,,,,,,,,,,,,,,,,,,,,,,
,,,,,,,,,,,,l,0.847875,Correct!,0,71,71,56,1,t5.png,t1.png,4,9.55E-11,19,female,2020-11-05_13h34.12.129,torte-q,2020.1.3,MacIntel,60,13325,,,,,,,,,,,,,,,,,,,,,,,,,,,,,,,,,,,,,,,,,,,,
,,,,,,,,,,,,l,1.249565,Correct!,0,72,72,4,1,t1.png,t5.png,4,9.55E-11,19,female,2020-11-05_13h34.12.129,torte-q,2020.1.3,MacIntel,60,13325,,,,,,,,,,,,,,,,,,,,,,,,,,,,,,,,,,,,,,,,,,,,
,,,,,,,,,,,,l,0.832385,Correct!,0,73,73,50,1,t5.png,t1.png,4,9.55E-11,19,female,2020-11-05_13h34.12.129,torte-q,2020.1.3,MacIntel,60,13325,,,,,,,,,,,,,,,,,,,,,,,,,,,,,,,,,,,,,,,,,,,,
,,,,,,,,,,,,l,2.147825,Incorrect,0,74,74,79,1,t3.png,t2.png,1,0.909,19,female,2020-11-05_13h34.12.129,torte-q,2020.1.3,MacIntel,60,13325,,,,,,,,,,,,,,,,,,,,,,,,,,,,,,,,,,,,,,,,,,,,
,,,,,,,,,,,,l,1.58227,Correct!,0,75,75,11,1,t1.png,t4.png,3,0.0000131,19,female,2020-11-05_13h34.12.129,torte-q,2020.1.3,MacIntel,60,13325,,,,,,,,,,,,,,,,,,,,,,,,,,,,,,,,,,,,,,,,,,,,
,,,,,,,,,,,,l,1.44929,Correct!,0,76,76,33,1,t5.png,t1.png,4,9.55E-11,19,female,2020-11-05_13h34.12.129,torte-q,2020.1.3,MacIntel,60,13325,,,,,,,,,,,,,,,,,,,,,,,,,,,,,,,,,,,,,,,,,,,,
,,,,,,,,,,,,l,1.882735,Incorrect,0,77,77,7,1,t4.png,t5.png,1,0.90025,19,female,2020-11-05_13h34.12.129,torte-q,2020.1.3,MacIntel,60,13325,,,,,,,,,,,,,,,,,,,,,,,,,,,,,,,,,,,,,,,,,,,,
,,,,,,,,,,,,l,1.51763,Incorrect,0,78,78,114,1,t2.png,t3.png,1,0.90855,19,female,2020-11-05_13h34.12.129,torte-q,2020.1.3,MacIntel,60,13325,,,,,,,,,,,,,,,,,,,,,,,,,,,,,,,,,,,,,,,,,,,,
,,,,,,,,,,,,l,0.94821,Correct!,0,79,79,111,1,t5.png,t1.png,4,9.55E-11,19,female,2020-11-05_13h34.12.129,torte-q,2020.1.3,MacIntel,60,13325,,,,,,,,,,,,,,,,,,,,,,,,,,,,,,,,,,,,,,,,,,,,
,,,,,,,,,,,,a,1.932475,Correct!,0,80,80,18,1,t4.png,t5.png,1,0.90025,19,female,2020-11-05_13h34.12.129,torte-q,2020.1.3,MacIntel,60,13325,,,,,,,,,,,,,,,,,,,,,,,,,,,,,,,,,,,,,,,,,,,,
,,,,,,,,,,,,a,1.599035,Correct!,0,81,81,22,1,t2.png,t3.png,1,0.90855,19,female,2020-11-05_13h34.12.129,torte-q,2020.1.3,MacIntel,60,13325,,,,,,,,,,,,,,,,,,,,,,,,,,,,,,,,,,,,,,,,,,,,
,,,,,,,,,,,,a,0.882815,Incorrect,0,82,82,81,1,t1.png,t1.png,0,0.97829,19,female,2020-11-05_13h34.12.129,torte-q,2020.1.3,MacIntel,60,13325,,,,,,,,,,,,,,,,,,,,,,,,,,,,,,,,,,,,,,,,,,,,
,,,,,,,,,,,,a,1.5148,Incorrect,0,83,83,53,1,t3.png,t1.png,2,0.056466,19,female,2020-11-05_13h34.12.129,torte-q,2020.1.3,MacIntel,60,13325,,,,,,,,,,,,,,,,,,,,,,,,,,,,,,,,,,,,,,,,,,,,
,,,,,,,,,,,,l,1.332055,Correct!,0,84,84,65,1,t4.png,t5.png,1,0.90025,19,female,2020-11-05_13h34.12.129,torte-q,2020.1.3,MacIntel,60,13325,,,,,,,,,,,,,,,,,,,,,,,,,,,,,,,,,,,,,,,,,,,,
,,,,,,,,,,,,l,0.967425,Correct!,0,85,85,82,1,t5.png,t1.png,4,9.55E-11,19,female,2020-11-05_13h34.12.129,torte-q,2020.1.3,MacIntel,60,13325,,,,,,,,,,,,,,,,,,,,,,,,,,,,,,,,,,,,,,,,,,,,
,,,,,,,,,,,,a,1.898045,Correct!,0,86,86,45,1,t3.png,t2.png,1,0.90855,19,female,2020-11-05_13h34.12.129,torte-q,2020.1.3,MacIntel,60,13325,,,,,,,,,,,,,,,,,,,,,,,,,,,,,,,,,,,,,,,,,,,,
,,,,,,,,,,,,l,1.749725,Correct!,0,87,87,57,1,t2.png,t4.png,2,0.059078,19,female,2020-11-05_13h34.12.129,torte-q,2020.1.3,MacIntel,60,13325,,,,,,,,,,,,,,,,,,,,,,,,,,,,,,,,,,,,,,,,,,,,
,,,,,,,,,,,,l,1.485395,Incorrect,0,88,88,118,1,t5.png,t5.png,0,0.978,19,female,2020-11-05_13h34.12.129,torte-q,2020.1.3,MacIntel,60,13325,,,,,,,,,,,,,,,,,,,,,,,,,,,,,,,,,,,,,,,,,,,,
,,,,,,,,,,,,l,1.366235,Correct!,0,89,89,117,1,t1.png,t5.png,4,9.55E-11,19,female,2020-11-05_13h34.12.129,torte-q,2020.1.3,MacIntel,60,13325,,,,,,,,,,,,,,,,,,,,,,,,,,,,,,,,,,,,,,,,,,,,
,,,,,,,,,,,,a,1.51628,Correct!,0,90,90,2,1,t3.png,t2.png,1,0.90855,19,female,2020-11-05_13h34.12.129,torte-q,2020.1.3,MacIntel,60,13325,,,,,,,,,,,,,,,,,,,,,,,,,,,,,,,,,,,,,,,,,,,,
,,,,,,,,,,,,l,1.651415,Correct!,0,91,91,93,1,t2.png,t4.png,2,0.059078,19,female,2020-11-05_13h34.12.129,torte-q,2020.1.3,MacIntel,60,13325,,,,,,,,,,,,,,,,,,,,,,,,,,,,,,,,,,,,,,,,,,,,
,,,,,,,,,,,,a,1.21779,Correct!,0,92,92,21,1,t5.png,t4.png,1,0.90025,19,female,2020-11-05_13h34.12.129,torte-q,2020.1.3,MacIntel,60,13325,,,,,,,,,,,,,,,,,,,,,,,,,,,,,,,,,,,,,,,,,,,,
,,,,,,,,,,,,a,1.531015,Incorrect,0,93,93,30,1,t3.png,t1.png,2,0.056466,19,female,2020-11-05_13h34.12.129,torte-q,2020.1.3,MacIntel,60,13325,,,,,,,,,,,,,,,,,,,,,,,,,,,,,,,,,,,,,,,,,,,,
,,,,,,,,,,,,l,1.215505,Incorrect,0,94,94,85,1,t3.png,t2.png,1,0.90855,19,female,2020-11-05_13h34.12.129,torte-q,2020.1.3,MacIntel,60,13325,,,,,,,,,,,,,,,,,,,,,,,,,,,,,,,,,,,,,,,,,,,,
,,,,,,,,,,,,a,1.333125,Correct!,0,95,95,13,1,t5.png,t5.png,0,0.97829,19,female,2020-11-05_13h34.12.129,torte-q,2020.1.3,MacIntel,60,13325,,,,,,,,,,,,,,,,,,,,,,,,,,,,,,,,,,,,,,,,,,,,
,,,,,,,,,,,,a,1.74884,Correct!,0,96,96,78,1,t1.png,t1.png,0,0.978,19,female,2020-11-05_13h34.12.129,torte-q,2020.1.3,MacIntel,60,13325,,,,,,,,,,,,,,,,,,,,,,,,,,,,,,,,,,,,,,,,,,,,
,,,,,,,,,,,,l,0.987555,Correct!,0,97,97,72,1,t4.png,t2.png,2,0.059078,19,female,2020-11-05_13h34.12.129,torte-q,2020.1.3,MacIntel,60,13325,,,,,,,,,,,,,,,,,,,,,,,,,,,,,,,,,,,,,,,,,,,,
,,,,,,,,,,,,a,1.401355,Correct!,0,98,98,28,1,t2.png,t3.png,1,0.909,19,female,2020-11-05_13h34.12.129,torte-q,2020.1.3,MacIntel,60,13325,,,,,,,,,,,,,,,,,,,,,,,,,,,,,,,,,,,,,,,,,,,,
,,,,,,,,,,,,l,2.331885,Incorrect,0,99,99,58,1,t5.png,t4.png,1,0.90025,19,female,2020-11-05_13h34.12.129,torte-q,2020.1.3,MacIntel,60,13325,,,,,,,,,,,,,,,,,,,,,,,,,,,,,,,,,,,,,,,,,,,,
,,,,,,,,,,,,l,1.04775,Correct!,0,100,100,67,1,t1.png,t5.png,4,9.55E-11,19,female,2020-11-05_13h34.12.129,torte-q,2020.1.3,MacIntel,60,13325,,,,,,,,,,,,,,,,,,,,,,,,,,,,,,,,,,,,,,,,,,,,
,,,,,,,,,,,,l,0.79944,Correct!,0,101,101,31,1,t1.png,t5.png,4,9.55E-11,19,female,2020-11-05_13h34.12.129,torte-q,2020.1.3,MacIntel,60,13325,,,,,,,,,,,,,,,,,,,,,,,,,,,,,,,,,,,,,,,,,,,,
,,,,,,,,,,,,a,1.63157,Correct!,0,102,102,9,1,t4.png,t5.png,1,0.9,19,female,2020-11-05_13h34.12.129,torte-q,2020.1.3,MacIntel,60,13325,,,,,,,,,,,,,,,,,,,,,,,,,,,,,,,,,,,,,,,,,,,,
,,,,,,,,,,,,a,1.21791,Correct!,0,103,103,29,1,t5.png,t5.png,0,0.97829,19,female,2020-11-05_13h34.12.129,torte-q,2020.1.3,MacIntel,60,13325,,,,,,,,,,,,,,,,,,,,,,,,,,,,,,,,,,,,,,,,,,,,
,,,,,,,,,,,,a,0.79905,Correct!,0,104,104,62,1,t5.png,t5.png,0,0.978,19,female,2020-11-05_13h34.12.129,torte-q,2020.1.3,MacIntel,60,13325,,,,,,,,,,,,,,,,,,,,,,,,,,,,,,,,,,,,,,,,,,,,
,,,,,,,,,,,,a,1.849865,Correct!,0,105,105,34,1,t5.png,t4.png,1,0.9,19,female,2020-11-05_13h34.12.129,torte-q,2020.1.3,MacIntel,60,13325,,,,,,,,,,,,,,,,,,,,,,,,,,,,,,,,,,,,,,,,,,,,
,,,,,,,,,,,,a,1.5658,Correct!,0,106,106,15,1,t3.png,t2.png,1,0.90855,19,female,2020-11-05_13h34.12.129,torte-q,2020.1.3,MacIntel,60,13325,,,,,,,,,,,,,,,,,,,,,,,,,,,,,,,,,,,,,,,,,,,,
,,,,,,,,,,,,l,0.797945,Correct!,0,107,107,52,1,t2.png,t4.png,2,0.059078,19,female,2020-11-05_13h34.12.129,torte-q,2020.1.3,MacIntel,60,13325,,,,,,,,,,,,,,,,,,,,,,,,,,,,,,,,,,,,,,,,,,,,
,,,,,,,,,,,,a,1.497715,Correct!,0,108,108,116,1,t5.png,t4.png,1,0.90025,19,female,2020-11-05_13h34.12.129,torte-q,2020.1.3,MacIntel,60,13325,,,,,,,,,,,,,,,,,,,,,,,,,,,,,,,,,,,,,,,,,,,,
,,,,,,,,,,,,l,2.34099,Correct!,0,109,109,80,1,t1.png,t4.png,3,0.0000131,19,female,2020-11-05_13h34.12.129,torte-q,2020.1.3,MacIntel,60,13325,,,,,,,,,,,,,,,,,,,,,,,,,,,,,,,,,,,,,,,,,,,,
,,,,,,,,,,,,l,1.78453,Correct!,0,110,110,37,1,t1.png,t4.png,3,0.0000131,19,female,2020-11-05_13h34.12.129,torte-q,2020.1.3,MacIntel,60,13325,,,,,,,,,,,,,,,,,,,,,,,,,,,,,,,,,,,,,,,,,,,,
,,,,,,,,,,,,l,1.385445,Correct!,0,111,111,55,1,t2.png,t4.png,2,0.059078,19,female,2020-11-05_13h34.12.129,torte-q,2020.1.3,MacIntel,60,13325,,,,,,,,,,,,,,,,,,,,,,,,,,,,,,,,,,,,,,,,,,,,
,,,,,,,,,,,,a,1.217715,Correct!,0,112,112,23,1,t5.png,t4.png,1,0.90025,19,female,2020-11-05_13h34.12.129,torte-q,2020.1.3,MacIntel,60,13325,,,,,,,,,,,,,,,,,,,,,,,,,,,,,,,,,,,,,,,,,,,,
,,,,,,,,,,,,l,2.45091,Correct!,0,113,113,68,1,t1.png,t4.png,3,0.0000131,19,female,2020-11-05_13h34.12.129,torte-q,2020.1.3,MacIntel,60,13325,,,,,,,,,,,,,,,,,,,,,,,,,,,,,,,,,,,,,,,,,,,,
,,,,,,,,,,,,l,2.298155,Correct!,0,114,114,61,1,t1.png,t4.png,3,0.0000131,19,female,2020-11-05_13h34.12.129,torte-q,2020.1.3,MacIntel,60,13325,,,,,,,,,,,,,,,,,,,,,,,,,,,,,,,,,,,,,,,,,,,,
,,,,,,,,,,,,a,1.46474,Incorrect,0,115,115,83,1,t3.png,t1.png,2,0.056466,19,female,2020-11-05_13h34.12.129,torte-q,2020.1.3,MacIntel,60,13325,,,,,,,,,,,,,,,,,,,,,,,,,,,,,,,,,,,,,,,,,,,,
,,,,,,,,,,,,l,0.98115,Correct!,0,116,116,115,1,t2.png,t4.png,2,0.059078,19,female,2020-11-05_13h34.12.129,torte-q,2020.1.3,MacIntel,60,13325,,,,,,,,,,,,,,,,,,,,,,,,,,,,,,,,,,,,,,,,,,,,
,,,,,,,,,,,,l,2.0149,Incorrect,0,117,117,77,1,t1.png,t1.png,0,0.97829,19,female,2020-11-05_13h34.12.129,torte-q,2020.1.3,MacIntel,60,13325,,,,,,,,,,,,,,,,,,,,,,,,,,,,,,,,,,,,,,,,,,,,
,,,,,,,,,,,,l,2.09865,Correct!,0,118,118,6,1,t1.png,t4.png,3,0.0000131,19,female,2020-11-05_13h34.12.129,torte-q,2020.1.3,MacIntel,60,13325,,,,,,,,,,,,,,,,,,,,,,,,,,,,,,,,,,,,,,,,,,,,
,,,,,,,,,,,,l,0.984825,Correct!,0,119,119,108,1,t5.png,t1.png,4,9.55E-11,19,female,2020-11-05_13h34.12.129,torte-q,2020.1.3,MacIntel,60,13325,,,,,,,,,,,,,,,,,,,,,,,,,,,,,,,,,,,,,,,,,,,,
,,,,,,,,,,,,l,1.78469,Incorrect,,,,,,t3.png,t4.png,1,0.90855,19,female,2020-11-05_13h34.12.129,torte-q,2020.1.3,MacIntel,60,13325,space,3.13467,space,28.767435,0,0,0,96,1,,,,,,,,,,,,,,,,,,,,,,,,,,,,,,,,,,,
,,,,,,,,,,,,l,2.14959,Correct!,,,,,,t2.png,t5.png,3,0.0000131,19,female,2020-11-05_13h34.12.129,torte-q,2020.1.3,MacIntel,60,13325,,,,,0,1,1,8,1,,,,,,,,,,,,,,,,,,,,,,,,,,,,,,,,,,,
,,,,,,,,,,,,a,1.169865,Correct!,,,,,,t2.png,t1.png,1,0.90025,19,female,2020-11-05_13h34.12.129,torte-q,2020.1.3,MacIntel,60,13325,,,,,0,2,2,62,1,,,,,,,,,,,,,,,,,,,,,,,,,,,,,,,,,,,
,,,,,,,,,,,,l,1.11759,Correct!,,,,,,t2.png,t4.png,2,0.0591,19,female,2020-11-05_13h34.12.129,torte-q,2020.1.3,MacIntel,60,13325,,,,,0,3,3,15,1,,,,,,,,,,,,,,,,,,,,,,,,,,,,,,,,,,,
,,,,,,,,,,,,a,1.266155,Correct!,,,,,,t3.png,t2.png,1,0.90855,19,female,2020-11-05_13h34.12.129,torte-q,2020.1.3,MacIntel,60,13325,,,,,0,4,4,53,1,,,,,,,,,,,,,,,,,,,,,,,,,,,,,,,,,,,
,,,,,,,,,,,,a,2.4316,Incorrect,,,,,,t4.png,t1.png,3,0.0000131,19,female,2020-11-05_13h34.12.129,torte-q,2020.1.3,MacIntel,60,13325,,,,,0,5,5,42,1,,,,,,,,,,,,,,,,,,,,,,,,,,,,,,,,,,,
,,,,,,,,,,,,l,1.333625,Incorrect,,,,,,t1.png,t2.png,1,0.9,19,female,2020-11-05_13h34.12.129,torte-q,2020.1.3,MacIntel,60,13325,,,,,0,6,6,1,1,,,,,,,,,,,,,,,,,,,,,,,,,,,,,,,,,,,
,,,,,,,,,,,,l,1.932205,Incorrect,,,,,,t4.png,t5.png,1,0.90025,19,female,2020-11-05_13h34.12.129,torte-q,2020.1.3,MacIntel,60,13325,,,,,0,7,7,58,1,,,,,,,,,,,,,,,,,,,,,,,,,,,,,,,,,,,
,,,,,,,,,,,,l,1.615845,Correct!,,,,,,t4.png,t2.png,2,0.059078,19,female,2020-11-05_13h34.12.129,torte-q,2020.1.3,MacIntel,60,13325,,,,,0,8,8,109,1,,,,,,,,,,,,,,,,,,,,,,,,,,,,,,,,,,,
,,,,,,,,,,,,l,1.81406,Incorrect,,,,,,t4.png,t5.png,1,0.90025,19,female,2020-11-05_13h34.12.129,torte-q,2020.1.3,MacIntel,60,13325,,,,,0,9,9,113,1,,,,,,,,,,,,,,,,,,,,,,,,,,,,,,,,,,,
,,,,,,,,,,,,a,1.832745,Correct!,,,,,,t2.png,t1.png,1,0.90025,19,female,2020-11-05_13h34.12.129,torte-q,2020.1.3,MacIntel,60,13325,,,,,0,10,10,4,1,,,,,,,,,,,,,,,,,,,,,,,,,,,,,,,,,,,
,,,,,,,,,,,,a,1.431835,Correct!,,,,,,t3.png,t2.png,1,0.909,19,female,2020-11-05_13h34.12.129,torte-q,2020.1.3,MacIntel,60,13325,,,,,0,11,11,23,1,,,,,,,,,,,,,,,,,,,,,,,,,,,,,,,,,,,
,,,,,,,,,,,,a,1.80009,Incorrect,,,,,,t5.png,t3.png,2,0.056466,19,female,2020-11-05_13h34.12.129,torte-q,2020.1.3,MacIntel,60,13325,,,,,0,12,12,56,1,,,,,,,,,,,,,,,,,,,,,,,,,,,,,,,,,,,
,,,,,,,,,,,,l,1.3237,Correct!,,,,,,t2.png,t3.png,1,0.90855,19,female,2020-11-05_13h34.12.129,torte-q,2020.1.3,MacIntel,60,13325,,,,,0,13,13,111,1,,,,,,,,,,,,,,,,,,,,,,,,,,,,,,,,,,,
,,,,,,,,,,,,a,1.550085,Correct!,,,,,,t5.png,t5.png,0,0.97829,19,female,2020-11-05_13h34.12.129,torte-q,2020.1.3,MacIntel,60,13325,,,,,0,14,14,70,1,,,,,,,,,,,,,,,,,,,,,,,,,,,,,,,,,,,
,,,,,,,,,,,,l,1.081645,Correct!,,,,,,t2.png,t4.png,2,0.059078,19,female,2020-11-05_13h34.12.129,torte-q,2020.1.3,MacIntel,60,13325,,,,,0,15,15,77,1,,,,,,,,,,,,,,,,,,,,,,,,,,,,,,,,,,,
,,,,,,,,,,,,l,1.06625,Correct!,,,,,,t5.png,t1.png,4,9.55E-11,19,female,2020-11-05_13h34.12.129,torte-q,2020.1.3,MacIntel,60,13325,,,,,0,16,16,71,1,,,,,,,,,,,,,,,,,,,,,,,,,,,,,,,,,,,
,,,,,,,,,,,,l,1.45138,Correct!,,,,,,t2.png,t5.png,3,0.0000131,19,female,2020-11-05_13h34.12.129,torte-q,2020.1.3,MacIntel,60,13325,,,,,0,17,17,95,1,,,,,,,,,,,,,,,,,,,,,,,,,,,,,,,,,,,
,,,,,,,,,,,,l,1.330345,Correct!,,,,,,t2.png,t5.png,3,0.0000131,19,female,2020-11-05_13h34.12.129,torte-q,2020.1.3,MacIntel,60,13325,,,,,0,18,18,40,1,,,,,,,,,,,,,,,,,,,,,,,,,,,,,,,,,,,
,,,,,,,,,,,,a,1.4541,Incorrect,,,,,,t5.png,t2.png,3,0.0000131,19,female,2020-11-05_13h34.12.129,torte-q,2020.1.3,MacIntel,60,13325,,,,,0,19,19,119,1,,,,,,,,,,,,,,,,,,,,,,,,,,,,,,,,,,,
,,,,,,,,,,,,a,1.401305,Correct!,,,,,,t3.png,t2.png,1,0.90855,19,female,2020-11-05_13h34.12.129,torte-q,2020.1.3,MacIntel,60,13325,,,,,0,20,20,97,1,,,,,,,,,,,,,,,,,,,,,,,,,,,,,,,,,,,
,,,,,,,,,,,,a,1.85171,Correct!,,,,,,t5.png,t4.png,1,0.9,19,female,2020-11-05_13h34.12.129,torte-q,2020.1.3,MacIntel,60,13325,,,,,0,21,21,49,1,,,,,,,,,,,,,,,,,,,,,,,,,,,,,,,,,,,
,,,,,,,,,,,,l,1.600695,Incorrect,,,,,,t1.png,t2.png,1,0.90025,19,female,2020-11-05_13h34.12.129,torte-q,2020.1.3,MacIntel,60,13325,,,,,0,22,22,112,1,,,,,,,,,,,,,,,,,,,,,,,,,,,,,,,,,,,
,,,,,,,,,,,,l,0.931495,Correct!,,,,,,t5.png,t1.png,4,9.55E-11,19,female,2020-11-05_13h34.12.129,torte-q,2020.1.3,MacIntel,60,13325,,,,,0,23,23,43,1,,,,,,,,,,,,,,,,,,,,,,,,,,,,,,,,,,,
,,,,,,,,,,,,a,1.31695,Correct!,,,,,,t5.png,t4.png,1,0.90025,19,female,2020-11-05_13h34.12.129,torte-q,2020.1.3,MacIntel,60,13325,,,,,0,24,24,26,1,,,,,,,,,,,,,,,,,,,,,,,,,,,,,,,,,,,
,,,,,,,,,,,,a,1.48206,Incorrect,,,,,,t5.png,t3.png,2,0.056466,19,female,2020-11-05_13h34.12.129,torte-q,2020.1.3,MacIntel,60,13325,,,,,0,25,25,114,1,,,,,,,,,,,,,,,,,,,,,,,,,,,,,,,,,,,
,,,,,,,,,,,,a,1.284455,Correct!,,,,,,t3.png,t2.png,1,0.909,19,female,2020-11-05_13h34.12.129,torte-q,2020.1.3,MacIntel,60,13325,,,,,0,26,26,3,1,,,,,,,,,,,,,,,,,,,,,,,,,,,,,,,,,,,
,,,,,,,,,,,,a,2.181165,Incorrect,,,,,,t2.png,t5.png,3,0.0000131,19,female,2020-11-05_13h34.12.129,torte-q,2020.1.3,MacIntel,60,13325,,,,,0,27,27,104,1,,,,,,,,,,,,,,,,,,,,,,,,,,,,,,,,,,,
,,,,,,,,,,,,l,1.581225,Correct!,,,,,,t1.png,t3.png,2,0.056466,19,female,2020-11-05_13h34.12.129,torte-q,2020.1.3,MacIntel,60,13325,,,,,0,28,28,99,1,,,,,,,,,,,,,,,,,,,,,,,,,,,,,,,,,,,
,,,,,,,,,,,,a,1.55191,Correct!,,,,,,t2.png,t2.png,0,0.98115,19,female,2020-11-05_13h34.12.129,torte-q,2020.1.3,MacIntel,60,13325,,,,,0,29,29,7,1,,,,,,,,,,,,,,,,,,,,,,,,,,,,,,,,,,,
,,,,,,,,,,,,a,1.383055,Correct!,,,,,,t5.png,t5.png,0,0.97829,19,female,2020-11-05_13h34.12.129,torte-q,2020.1.3,MacIntel,60,13325,,,,,0,30,30,94,1,,,,,,,,,,,,,,,,,,,,,,,,,,,,,,,,,,,
,,,,,,,,,,,,a,1.432,Incorrect,,,,,,t5.png,t2.png,3,0.0000131,19,female,2020-11-05_13h34.12.129,torte-q,2020.1.3,MacIntel,60,13325,,,,,0,31,31,98,1,,,,,,,,,,,,,,,,,,,,,,,,,,,,,,,,,,,
,,,,,,,,,,,,l,1.433915,Correct!,,,,,,t3.png,t5.png,2,0.056466,19,female,2020-11-05_13h34.12.129,torte-q,2020.1.3,MacIntel,60,13325,,,,,0,32,32,44,1,,,,,,,,,,,,,,,,,,,,,,,,,,,,,,,,,,,
,,,,,,,,,,,,a,1.60003,Correct!,,,,,,t4.png,t4.png,0,0.98115,19,female,2020-11-05_13h34.12.129,torte-q,2020.1.3,MacIntel,60,13325,,,,,0,33,33,21,1,,,,,,,,,,,,,,,,,,,,,,,,,,,,,,,,,,,
,,,,,,,,,,,,a,2.1319,Incorrect,,,,,,t1.png,t4.png,3,0.0000131,19,female,2020-11-05_13h34.12.129,torte-q,2020.1.3,MacIntel,60,13325,,,,,0,34,34,81,1,,,,,,,,,,,,,,,,,,,,,,,,,,,,,,,,,,,
,,,,,,,,,,,,l,1.94863,Incorrect,,,,,,t2.png,t3.png,1,0.90855,19,female,2020-11-05_13h34.12.129,torte-q,2020.1.3,MacIntel,60,13325,,,,,0,35,35,65,1,,,,,,,,,,,,,,,,,,,,,,,,,,,,,,,,,,,
,,,,,,,,,,,,a,1.03531,Correct!,,,,,,t5.png,t5.png,0,0.978,19,female,2020-11-05_13h34.12.129,torte-q,2020.1.3,MacIntel,60,13325,,,,,0,36,36,117,1,,,,,,,,,,,,,,,,,,,,,,,,,,,,,,,,,,,
,,,,,,,,,,,,l,0.783985,Incorrect,,,,,,t5.png,t5.png,0,0.97829,19,female,2020-11-05_13h34.12.129,torte-q,2020.1.3,MacIntel,60,13325,,,,,0,37,37,25,1,,,,,,,,,,,,,,,,,,,,,,,,,,,,,,,,,,,
,,,,,,,,,,,,a,0.964835,Correct!,,,,,,t5.png,t4.png,1,0.90025,19,female,2020-11-05_13h34.12.129,torte-q,2020.1.3,MacIntel,60,13325,,,,,0,38,38,27,1,,,,,,,,,,,,,,,,,,,,,,,,,,,,,,,,,,,
,,,,,,,,,,,,l,1.43433,Incorrect,,,,,,t2.png,t2.png,0,0.98115,19,female,2020-11-05_13h34.12.129,torte-q,2020.1.3,MacIntel,60,13325,,,,,0,39,39,59,1,,,,,,,,,,,,,,,,,,,,,,,,,,,,,,,,,,,
,,,,,,,,,,,,a,1.82365,Correct!,,,,,,t4.png,t3.png,1,0.90855,19,female,2020-11-05_13h34.12.129,torte-q,2020.1.3,MacIntel,60,13325,,,,,0,40,40,35,1,,,,,,,,,,,,,,,,,,,,,,,,,,,,,,,,,,,
,,,,,,,,,,,,a,1.33313,Incorrect,,,,,,t5.png,t3.png,2,0.0565,19,female,2020-11-05_13h34.12.129,torte-q,2020.1.3,MacIntel,60,13325,,,,,0,41,41,39,1,,,,,,,,,,,,,,,,,,,,,,,,,,,,,,,,,,,
,,,,,,,,,,,,a,1.55204,Incorrect,,,,,,t2.png,t3.png,1,0.909,19,female,2020-11-05_13h34.12.129,torte-q,2020.1.3,MacIntel,60,13325,,,,,0,42,42,74,1,,,,,,,,,,,,,,,,,,,,,,,,,,,,,,,,,,,
,,,,,,,,,,,,l,0.967315,Correct!,,,,,,t3.png,t5.png,2,0.0565,19,female,2020-11-05_13h34.12.129,torte-q,2020.1.3,MacIntel,60,13325,,,,,0,43,43,30,1,,,,,,,,,,,,,,,,,,,,,,,,,,,,,,,,,,,
,,,,,,,,,,,,l,1.08478,Correct!,,,,,,t4.png,t2.png,2,0.059078,19,female,2020-11-05_13h34.12.129,torte-q,2020.1.3,MacIntel,60,13325,,,,,0,44,44,110,1,,,,,,,,,,,,,,,,,,,,,,,,,,,,,,,,,,,
,,,,,,,,,,,,a,1.128055,Correct!,,,,,,t4.png,t5.png,1,0.90025,19,female,2020-11-05_13h34.12.129,torte-q,2020.1.3,MacIntel,60,13325,,,,,0,45,45,47,1,,,,,,,,,,,,,,,,,,,,,,,,,,,,,,,,,,,
,,,,,,,,,,,,a,1.433165,Correct!,,,,,,t5.png,t4.png,1,0.90025,19,female,2020-11-05_13h34.12.129,torte-q,2020.1.3,MacIntel,60,13325,,,,,0,46,46,34,1,,,,,,,,,,,,,,,,,,,,,,,,,,,,,,,,,,,
,,,,,,,,,,,,l,1.96872,Incorrect,,,,,,t3.png,t4.png,1,0.909,19,female,2020-11-05_13h34.12.129,torte-q,2020.1.3,MacIntel,60,13325,,,,,0,47,47,82,1,,,,,,,,,,,,,,,,,,,,,,,,,,,,,,,,,,,
,,,,,,,,,,,,l,0.91515,Correct!,,,,,,t5.png,t1.png,4,9.55E-11,19,female,2020-11-05_13h34.12.129,torte-q,2020.1.3,MacIntel,60,13325,,,,,0,48,48,100,1,,,,,,,,,,,,,,,,,,,,,,,,,,,,,,,,,,,
,,,,,,,,,,,,l,1.216155,Correct!,,,,,,t3.png,t5.png,2,0.056466,19,female,2020-11-05_13h34.12.129,torte-q,2020.1.3,MacIntel,60,13325,,,,,0,49,49,6,1,,,,,,,,,,,,,,,,,,,,,,,,,,,,,,,,,,,
,,,,,,,,,,,,a,0.982415,Incorrect,,,,,,t4.png,t2.png,2,0.059078,19,female,2020-11-05_13h34.12.129,torte-q,2020.1.3,MacIntel,60,13325,,,,,0,50,50,86,1,,,,,,,,,,,,,,,,,,,,,,,,,,,,,,,,,,,
,,,,,,,,,,,,a,1.33256,Incorrect,,,,,,t3.png,t1.png,2,0.0565,19,female,2020-11-05_13h34.12.129,torte-q,2020.1.3,MacIntel,60,13325,,,,,0,51,51,31,1,,,,,,,,,,,,,,,,,,,,,,,,,,,,,,,,,,,
,,,,,,,,,,,,l,1.61826,Incorrect,,,,,,t2.png,t2.png,0,0.981,19,female,2020-11-05_13h34.12.129,torte-q,2020.1.3,MacIntel,60,13325,,,,,0,52,52,101,1,,,,,,,,,,,,,,,,,,,,,,,,,,,,,,,,,,,
,,,,,,,,,,,,l,1.08172,Correct!,,,,,,t1.png,t5.png,4,9.55E-11,19,female,2020-11-05_13h34.12.129,torte-q,2020.1.3,MacIntel,60,13325,,,,,0,53,53,12,1,,,,,,,,,,,,,,,,,,,,,,,,,,,,,,,,,,,
,,,,,,,,,,,,l,1.39749,Correct!,,,,,,t4.png,t2.png,2,0.059078,19,female,2020-11-05_13h34.12.129,torte-q,2020.1.3,MacIntel,60,13325,,,,,0,54,54,88,1,,,,,,,,,,,,,,,,,,,,,,,,,,,,,,,,,,,
,,,,,,,,,,,,l,0.96602,Incorrect,,,,,,t4.png,t4.png,0,0.98115,19,female,2020-11-05_13h34.12.129,torte-q,2020.1.3,MacIntel,60,13325,,,,,0,55,55,52,1,,,,,,,,,,,,,,,,,,,,,,,,,,,,,,,,,,,
,,,,,,,,,,,,l,0.834685,Incorrect,,,,,,t5.png,t4.png,1,0.9,19,female,2020-11-05_13h34.12.129,torte-q,2020.1.3,MacIntel,60,13325,,,,,0,56,56,76,1,,,,,,,,,,,,,,,,,,,,,,,,,,,,,,,,,,,
,,,,,,,,,,,,l,1.38158,Correct!,,,,,,t5.png,t2.png,3,0.0000131,19,female,2020-11-05_13h34.12.129,torte-q,2020.1.3,MacIntel,60,13325,,,,,0,57,57,91,1,,,,,,,,,,,,,,,,,,,,,,,,,,,,,,,,,,,
,,,,,,,,,,,,a,0.898675,Correct!,,,,,,t4.png,t4.png,0,0.98115,19,female,2020-11-05_13h34.12.129,torte-q,2020.1.3,MacIntel,60,13325,,,,,0,58,58,79,1,,,,,,,,,,,,,,,,,,,,,,,,,,,,,,,,,,,
,,,,,,,,,,,,l,0.85173,Correct!,,,,,,t2.png,t4.png,2,0.059078,19,female,2020-11-05_13h34.12.129,torte-q,2020.1.3,MacIntel,60,13325,,,,,0,59,59,24,1,,,,,,,,,,,,,,,,,,,,,,,,,,,,,,,,,,,
,,,,,,,,,,,,l,0.90129,Correct!,,,,,,t1.png,t3.png,2,0.056466,19,female,2020-11-05_13h34.12.129,torte-q,2020.1.3,MacIntel,60,13325,,,,,0,60,60,69,1,,,,,,,,,,,,,,,,,,,,,,,,,,,,,,,,,,,
,,,,,,,,,,,,l,1.62028,Correct!,,,,,,t3.png,t5.png,2,0.0565,19,female,2020-11-05_13h34.12.129,torte-q,2020.1.3,MacIntel,60,13325,,,,,0,61,61,83,1,,,,,,,,,,,,,,,,,,,,,,,,,,,,,,,,,,,
,,,,,,,,,,,,l,1.16778,Correct!,,,,,,t1.png,t3.png,2,0.056466,19,female,2020-11-05_13h34.12.129,torte-q,2020.1.3,MacIntel,60,13325,,,,,0,62,62,60,1,,,,,,,,,,,,,,,,,,,,,,,,,,,,,,,,,,,
,,,,,,,,,,,,l,0.80222,Correct!,,,,,,t3.png,t1.png,2,0.056466,19,female,2020-11-05_13h34.12.129,torte-q,2020.1.3,MacIntel,60,13325,,,,,0,63,63,32,1,,,,,,,,,,,,,,,,,,,,,,,,,,,,,,,,,,,
,,,,,,,,,,,,l,1.26491,Incorrect,,,,,,t1.png,t2.png,1,0.90025,19,female,2020-11-05_13h34.12.129,torte-q,2020.1.3,MacIntel,60,13325,,,,,0,64,64,72,1,,,,,,,,,,,,,,,,,,,,,,,,,,,,,,,,,,,
,,,,,,,,,,,,l,1.08299,Correct!,,,,,,t5.png,t1.png,4,9.55E-11,19,female,2020-11-05_13h34.12.129,torte-q,2020.1.3,MacIntel,60,13325,,,,,0,65,65,22,1,,,,,,,,,,,,,,,,,,,,,,,,,,,,,,,,,,,
,,,,,,,,,,,,a,1.014905,Incorrect,,,,,,t5.png,t2.png,3,0.0000131,19,female,2020-11-05_13h34.12.129,torte-q,2020.1.3,MacIntel,60,13325,,,,,0,66,66,116,1,,,,,,,,,,,,,,,,,,,,,,,,,,,,,,,,,,,
,,,,,,,,,,,,l,0.9843,Correct!,,,,,,t3.png,t1.png,2,0.056466,19,female,2020-11-05_13h34.12.129,torte-q,2020.1.3,MacIntel,60,13325,,,,,0,67,67,0,1,,,,,,,,,,,,,,,,,,,,,,,,,,,,,,,,,,,
,,,,,,,,,,,,a,1.450005,Incorrect,,,,,,t4.png,t1.png,3,0.0000131,19,female,2020-11-05_13h34.12.129,torte-q,2020.1.3,MacIntel,60,13325,,,,,0,68,68,48,1,,,,,,,,,,,,,,,,,,,,,,,,,,,,,,,,,,,
,,,,,,,,,,,,a,1.28447,Incorrect,,,,,,t5.png,t3.png,2,0.056466,19,female,2020-11-05_13h34.12.129,torte-q,2020.1.3,MacIntel,60,13325,,,,,0,69,69,108,1,,,,,,,,,,,,,,,,,,,,,,,,,,,,,,,,,,,
,,,,,,,,,,,,a,1.816215,Correct!,,,,,,t2.png,t1.png,1,0.90025,19,female,2020-11-05_13h34.12.129,torte-q,2020.1.3,MacIntel,60,13325,,,,,0,70,70,19,1,,,,,,,,,,,,,,,,,,,,,,,,,,,,,,,,,,,
,,,,,,,,,,,,a,1.61507,Incorrect,,,,,,t3.png,t1.png,2,0.056466,19,female,2020-11-05_13h34.12.129,torte-q,2020.1.3,MacIntel,60,13325,,,,,0,71,71,29,1,,,,,,,,,,,,,,,,,,,,,,,,,,,,,,,,,,,
,,,,,,,,,,,,l,2.333845,Correct!,,,,,,t1.png,t4.png,3,0.0000131,19,female,2020-11-05_13h34.12.129,torte-q,2020.1.3,MacIntel,60,13325,,,,,0,72,72,92,1,,,,,,,,,,,,,,,,,,,,,,,,,,,,,,,,,,,
,,,,,,,,,,,,l,0.98224,Correct!,,,,,,t1.png,t5.png,4,9.55E-11,19,female,2020-11-05_13h34.12.129,torte-q,2020.1.3,MacIntel,60,13325,,,,,0,73,73,55,1,,,,,,,,,,,,,,,,,,,,,,,,,,,,,,,,,,,
,,,,,,,,,,,,a,1.518,Correct!,,,,,,t1.png,t1.png,0,0.97829,19,female,2020-11-05_13h34.12.129,torte-q,2020.1.3,MacIntel,60,13325,,,,,0,74,74,9,1,,,,,,,,,,,,,,,,,,,,,,,,,,,,,,,,,,,
,,,,,,,,,,,,l,0.79984,Correct!,,,,,,t1.png,t5.png,4,9.55E-11,19,female,2020-11-05_13h34.12.129,torte-q,2020.1.3,MacIntel,60,13325,,,,,0,75,75,16,1,,,,,,,,,,,,,,,,,,,,,,,,,,,,,,,,,,,
,,,,,,,,,,,,l,0.900825,Incorrect,,,,,,t1.png,t1.png,0,0.978,19,female,2020-11-05_13h34.12.129,torte-q,2020.1.3,MacIntel,60,13325,,,,,0,76,76,28,1,,,,,,,,,,,,,,,,,,,,,,,,,,,,,,,,,,,
,,,,,,,,,,,,a,0.731885,Incorrect,,,,,,t2.png,t5.png,3,0.0000131,19,female,2020-11-05_13h34.12.129,torte-q,2020.1.3,MacIntel,60,13325,,,,,0,77,77,66,1,,,,,,,,,,,,,,,,,,,,,,,,,,,,,,,,,,,
,,,,,,,,,,,,l,1.13481,Incorrect,,,,,,t4.png,t5.png,1,0.90025,19,female,2020-11-05_13h34.12.129,torte-q,2020.1.3,MacIntel,60,13325,,,,,0,78,78,103,1,,,,,,,,,,,,,,,,,,,,,,,,,,,,,,,,,,,
,,,,,,,,,,,,a,0.84839,Correct!,,,,,,t5.png,t5.png,0,0.97829,19,female,2020-11-05_13h34.12.129,torte-q,2020.1.3,MacIntel,60,13325,,,,,0,79,79,73,1,,,,,,,,,,,,,,,,,,,,,,,,,,,,,,,,,,,
,,,,,,,,,,,,l,1.11452,Correct!,,,,,,t5.png,t2.png,3,0.0000131,19,female,2020-11-05_13h34.12.129,torte-q,2020.1.3,MacIntel,60,13325,,,,,0,80,80,51,1,,,,,,,,,,,,,,,,,,,,,,,,,,,,,,,,,,,
,,,,,,,,,,,,a,0.88196,Correct!,,,,,,t4.png,t3.png,1,0.90855,19,female,2020-11-05_13h34.12.129,torte-q,2020.1.3,MacIntel,60,13325,,,,,0,81,81,75,1,,,,,,,,,,,,,,,,,,,,,,,,,,,,,,,,,,,
,,,,,,,,,,,,l,1.031695,Incorrect,,,,,,t1.png,t1.png,0,0.97829,19,female,2020-11-05_13h34.12.129,torte-q,2020.1.3,MacIntel,60,13325,,,,,0,82,82,67,1,,,,,,,,,,,,,,,,,,,,,,,,,,,,,,,,,,,
,,,,,,,,,,,,l,0.73196,Incorrect,,,,,,t3.png,t4.png,1,0.909,19,female,2020-11-05_13h34.12.129,torte-q,2020.1.3,MacIntel,60,13325,,,,,0,83,83,89,1,,,,,,,,,,,,,,,,,,,,,,,,,,,,,,,,,,,
,,,,,,,,,,,,l,0.70045,Incorrect,,,,,,t3.png,t4.png,1,0.90855,19,female,2020-11-05_13h34.12.129,torte-q,2020.1.3,MacIntel,60,13325,,,,,0,84,84,84,1,,,,,,,,,,,,,,,,,,,,,,,,,,,,,,,,,,,
,,,,,,,,,,,,a,1.332345,Correct!,,,,,,t4.png,t4.png,0,0.98115,19,female,2020-11-05_13h34.12.129,torte-q,2020.1.3,MacIntel,60,13325,,,,,0,85,85,80,1,,,,,,,,,,,,,,,,,,,,,,,,,,,,,,,,,,,
,,,,,,,,,,,,l,2.034215,Correct!,,,,,,t4.png,t1.png,3,0.0000131,19,female,2020-11-05_13h34.12.129,torte-q,2020.1.3,MacIntel,60,13325,,,,,0,86,86,93,1,,,,,,,,,,,,,,,,,,,,,,,,,,,,,,,,,,,
,,,,,,,,,,,,l,1.617715,Incorrect,,,,,,t2.png,t2.png,0,0.98115,19,female,2020-11-05_13h34.12.129,torte-q,2020.1.3,MacIntel,60,13325,,,,,0,87,87,57,1,,,,,,,,,,,,,,,,,,,,,,,,,,,,,,,,,,,
,,,,,,,,,,,,a,1.482355,Correct!,,,,,,t1.png,t2.png,1,0.90025,19,female,2020-11-05_13h34.12.129,torte-q,2020.1.3,MacIntel,60,13325,,,,,0,88,88,105,1,,,,,,,,,,,,,,,,,,,,,,,,,,,,,,,,,,,
,,,,,,,,,,,,a,0.732715,Correct!,,,,,,t2.png,t2.png,0,0.98115,19,female,2020-11-05_13h34.12.129,torte-q,2020.1.3,MacIntel,60,13325,,,,,0,89,89,2,1,,,,,,,,,,,,,,,,,,,,,,,,,,,,,,,,,,,
,,,,,,,,,,,,a,1.11738,Correct!,,,,,,t3.png,t4.png,1,0.909,19,female,2020-11-05_13h34.12.129,torte-q,2020.1.3,MacIntel,60,13325,,,,,0,90,90,106,1,,,,,,,,,,,,,,,,,,,,,,,,,,,,,,,,,,,
,,,,,,,,,,,,a,0.96773,Correct!,,,,,,t3.png,t5.png,2,0.056466,19,female,2020-11-05_13h34.12.129,torte-q,2020.1.3,MacIntel,60,13325,,,,,0,91,91,14,1,,,,,,,,,,,,,,,,,,,,,,,,,,,,,,,,,,,
,,,,,,,,,,,,l,0.93206,Correct!,,,,,,t1.png,t3.png,2,0.056466,19,female,2020-11-05_13h34.12.129,torte-q,2020.1.3,MacIntel,60,13325,,,,,0,92,92,63,1,,,,,,,,,,,,,,,,,,,,,,,,,,,,,,,,,,,
,,,,,,,,,,,,,,Too slow :(,,,,,,t4.png,t3.png,1,0.909,19,female,2020-11-05_13h34.12.129,torte-q,2020.1.3,MacIntel,60,13325,,,,,0,93,93,46,1,,,,,,,,,,,,,,,,,,,,,,,,,,,,,,,,,,,
,,,,,,,,,,,,l,1.551575,Incorrect,,,,,,t1.png,t1.png,0,0.97829,19,female,2020-11-05_13h34.12.129,torte-q,2020.1.3,MacIntel,60,13325,,,,,0,94,94,78,1,,,,,,,,,,,,,,,,,,,,,,,,,,,,,,,,,,,
,,,,,,,,,,,,a,1.96897,Correct!,,,,,,t2.png,t3.png,1,0.90855,19,female,2020-11-05_13h34.12.129,torte-q,2020.1.3,MacIntel,60,13325,,,,,0,95,95,68,1,,,,,,,,,,,,,,,,,,,,,,,,,,,,,,,,,,,
,,,,,,,,,,,,a,1.768395,Correct!,,,,,,t4.png,t3.png,1,0.909,19,female,2020-11-05_13h34.12.129,torte-q,2020.1.3,MacIntel,60,13325,,,,,0,96,96,20,1,,,,,,,,,,,,,,,,,,,,,,,,,,,,,,,,,,,
,,,,,,,,,,,,a,0.831975,Correct!,,,,,,t1.png,t2.png,1,0.90025,19,female,2020-11-05_13h34.12.129,torte-q,2020.1.3,MacIntel,60,13325,,,,,0,97,97,33,1,,,,,,,,,,,,,,,,,,,,,,,,,,,,,,,,,,,
,,,,,,,,,,,,a,0.71608,Incorrect,,,,,,t4.png,t2.png,2,0.0591,19,female,2020-11-05_13h34.12.129,torte-q,2020.1.3,MacIntel,60,13325,,,,,0,98,98,36,1,,,,,,,,,,,,,,,,,,,,,,,,,,,,,,,,,,,
,,,,,,,,,,,,l,1.600815,Correct!,,,,,,t2.png,t4.png,2,0.059078,19,female,2020-11-05_13h34.12.129,torte-q,2020.1.3,MacIntel,60,13325,,,,,0,99,99,37,1,,,,,,,,,,,,,,,,,,,,,,,,,,,,,,,,,,,
,,,,,,,,,,,,l,0.98439,Incorrect,,,,,,t1.png,t1.png,0,0.978,19,female,2020-11-05_13h34.12.129,torte-q,2020.1.3,MacIntel,60,13325,,,,,0,100,100,54,1,,,,,,,,,,,,,,,,,,,,,,,,,,,,,,,,,,,
,,,,,,,,,,,,a,1.6982,Incorrect,,,,,,t5.png,t3.png,2,0.056466,19,female,2020-11-05_13h34.12.129,torte-q,2020.1.3,MacIntel,60,13325,,,,,0,101,101,38,1,,,,,,,,,,,,,,,,,,,,,,,,,,,,,,,,,,,
,,,,,,,,,,,,l,0.8625,Correct!,,,,,,t1.png,t3.png,2,0.056466,19,female,2020-11-05_13h34.12.129,torte-q,2020.1.3,MacIntel,60,13325,,,,,0,102,102,87,1,,,,,,,,,,,,,,,,,,,,,,,,,,,,,,,,,,,
,,,,,,,,,,,,l,0.88576,Correct!,,,,,,t5.png,t1.png,4,9.55E-11,19,female,2020-11-05_13h34.12.129,torte-q,2020.1.3,MacIntel,60,13325,,,,,0,103,103,102,1,,,,,,,,,,,,,,,,,,,,,,,,,,,,,,,,,,,
,,,,,,,,,,,,a,0.88171,Incorrect,,,,,,t1.png,t4.png,3,0.0000131,19,female,2020-11-05_13h34.12.129,torte-q,2020.1.3,MacIntel,60,13325,,,,,0,104,104,17,1,,,,,,,,,,,,,,,,,,,,,,,,,,,,,,,,,,,
,,,,,,,,,,,,l,0.764945,Correct!,,,,,,t1.png,t4.png,3,0.0000131,19,female,2020-11-05_13h34.12.129,torte-q,2020.1.3,MacIntel,60,13325,,,,,0,105,105,50,1,,,,,,,,,,,,,,,,,,,,,,,,,,,,,,,,,,,
,,,,,,,,,,,,a,0.564715,Correct!,,,,,,t4.png,t3.png,1,0.90855,19,female,2020-11-05_13h34.12.129,torte-q,2020.1.3,MacIntel,60,13325,,,,,0,106,106,45,1,,,,,,,,,,,,,,,,,,,,,,,,,,,,,,,,,,,
,,,,,,,,,,,,l,0.847925,Incorrect,,,,,,t2.png,t3.png,1,0.90855,19,female,2020-11-05_13h34.12.129,torte-q,2020.1.3,MacIntel,60,13325,,,,,0,107,107,10,1,,,,,,,,,,,,,,,,,,,,,,,,,,,,,,,,,,,
,,,,,,,,,,,,a,1.933455,Incorrect,,,,,,t1.png,t4.png,3,0.0000131,19,female,2020-11-05_13h34.12.129,torte-q,2020.1.3,MacIntel,60,13325,,,,,0,108,108,107,1,,,,,,,,,,,,,,,,,,,,,,,,,,,,,,,,,,,
,,,,,,,,,,,,a,1.266535,Incorrect,,,,,,t3.png,t1.png,2,0.056466,19,female,2020-11-05_13h34.12.129,torte-q,2020.1.3,MacIntel,60,13325,,,,,0,109,109,64,1,,,,,,,,,,,,,,,,,,,,,,,,,,,,,,,,,,,
,,,,,,,,,,,,,,Too slow :(,,,,,,t3.png,t2.png,1,0.90855,19,female,2020-11-05_13h34.12.129,torte-q,2020.1.3,MacIntel,60,13325,,,,,0,110,110,18,1,,,,,,,,,,,,,,,,,,,,,,,,,,,,,,,,,,,
,,,,,,,,,,,,a,0.68284,Incorrect,,,,,,t4.png,t1.png,3,0.0000131,19,female,2020-11-05_13h34.12.129,torte-q,2020.1.3,MacIntel,60,13325,,,,,0,111,111,13,1,,,,,,,,,,,,,,,,,,,,,,,,,,,,,,,,,,,
,,,,,,,,,,,,a,0.71928,Correct!,,,,,,t4.png,t4.png,0,0.98115,19,female,2020-11-05_13h34.12.129,torte-q,2020.1.3,MacIntel,60,13325,,,,,0,112,112,90,1,,,,,,,,,,,,,,,,,,,,,,,,,,,,,,,,,,,
,,,,,,,,,,,,a,0.599025,Incorrect,,,,,,t4.png,t1.png,3,0.0000131,19,female,2020-11-05_13h34.12.129,torte-q,2020.1.3,MacIntel,60,13325,,,,,0,113,113,61,1,,,,,,,,,,,,,,,,,,,,,,,,,,,,,,,,,,,
,,,,,,,,,,,,a,0.835245,Correct!,,,,,,t2.png,t1.png,1,0.9,19,female,2020-11-05_13h34.12.129,torte-q,2020.1.3,MacIntel,60,13325,,,,,0,114,114,118,1,,,,,,,,,,,,,,,,,,,,,,,,,,,,,,,,,,,
,,,,,,,,,,,,a,0.66682,Correct!,,,,,,t4.png,t5.png,1,0.9,19,female,2020-11-05_13h34.12.129,torte-q,2020.1.3,MacIntel,60,13325,,,,,0,115,115,115,1,,,,,,,,,,,,,,,,,,,,,,,,,,,,,,,,,,,
,,,,,,,,,,,,l,0.865255,Correct!,,,,,,t1.png,t5.png,4,9.55E-11,19,female,2020-11-05_13h34.12.129,torte-q,2020.1.3,MacIntel,60,13325,,,,,0,116,116,85,1,,,,,,,,,,,,,,,,,,,,,,,,,,,,,,,,,,,
,,,,,,,,,,,,a,1.151395,Correct!,,,,,,t2.png,t1.png,1,0.90025,19,female,2020-11-05_13h34.12.129,torte-q,2020.1.3,MacIntel,60,13325,,,,,0,117,117,5,1,,,,,,,,,,,,,,,,,,,,,,,,,,,,,,,,,,,
,,,,,,,,,,,,l,1.168125,Correct!,,,,,,t1.png,t5.png,4,9.55E-11,19,female,2020-11-05_13h34.12.129,torte-q,2020.1.3,MacIntel,60,13325,,,,,0,118,118,41,1,,,,,,,,,,,,,,,,,,,,,,,,,,,,,,,,,,,
,,,,,,,,,,,,l,1.298375,Correct!,,,,,,t2.png,t4.png,2,0.059078,19,female,2020-11-05_13h34.12.129,torte-q,2020.1.3,MacIntel,60,13325,,,,,0,119,119,11,1,,,,,,,,,,,,,,,,,,,,,,,,,,,,,,,,,,,
,,,,,,,,,,,,l,1.18384,Correct!,,,,,,t2.png,t4.png,2,0.059078,19,female,2020-11-05_13h34.12.129,torte-q,2020.1.3,MacIntel,60,13325,space,3.41665,,,,,,,,space,6.86773,space,8.283485,0,0,0,37,1,,,,,,,,,,,,,,,,,,,,,,,,,,
,,,,,,,,,,,,l,1.377705,Incorrect,,,,,,t4.png,t5.png,1,0.90025,19,female,2020-11-05_13h34.12.129,torte-q,2020.1.3,MacIntel,60,13325,,,,,,,,,,,,,,0,1,1,103,1,,,,,,,,,,,,,,,,,,,,,,,,,,
,,,,,,,,,,,,l,1.167855,Correct!,,,,,,t2.png,t3.png,1,0.909,19,female,2020-11-05_13h34.12.129,torte-q,2020.1.3,MacIntel,60,13325,,,,,,,,,,,,,,0,2,2,74,1,,,,,,,,,,,,,,,,,,,,,,,,,,
,,,,,,,,,,,,l,0.8573,Correct!,,,,,,t1.png,t5.png,4,9.55E-11,19,female,2020-11-05_13h34.12.129,torte-q,2020.1.3,MacIntel,60,13325,,,,,,,,,,,,,,0,3,3,85,1,,,,,,,,,,,,,,,,,,,,,,,,,,
,,,,,,,,,,,,a,1.25029,Correct!,,,,,,t4.png,t4.png,0,0.98115,19,female,2020-11-05_13h34.12.129,torte-q,2020.1.3,MacIntel,60,13325,,,,,,,,,,,,,,0,4,4,79,1,,,,,,,,,,,,,,,,,,,,,,,,,,
,,,,,,,,,,,,a,1.73327,Incorrect,,,,,,t4.png,t5.png,1,0.9,19,female,2020-11-05_13h34.12.129,torte-q,2020.1.3,MacIntel,60,13325,,,,,,,,,,,,,,0,5,5,115,1,,,,,,,,,,,,,,,,,,,,,,,,,,
,,,,,,,,,,,,l,1.416385,Correct!,,,,,,t3.png,t5.png,2,0.0565,19,female,2020-11-05_13h34.12.129,torte-q,2020.1.3,MacIntel,60,13325,,,,,,,,,,,,,,0,6,6,83,1,,,,,,,,,,,,,,,,,,,,,,,,,,
,,,,,,,,,,,,l,1.034495,Incorrect,,,,,,t2.png,t2.png,0,0.98115,19,female,2020-11-05_13h34.12.129,torte-q,2020.1.3,MacIntel,60,13325,,,,,,,,,,,,,,0,7,7,7,1,,,,,,,,,,,,,,,,,,,,,,,,,,
,,,,,,,,,,,,a,0.6358,Incorrect,,,,,,t3.png,t2.png,1,0.90855,19,female,2020-11-05_13h34.12.129,torte-q,2020.1.3,MacIntel,60,13325,,,,,,,,,,,,,,0,8,8,53,1,,,,,,,,,,,,,,,,,,,,,,,,,,
,,,,,,,,,,,,l,1.184975,Correct!,,,,,,t1.png,t5.png,4,9.55E-11,19,female,2020-11-05_13h34.12.129,torte-q,2020.1.3,MacIntel,60,13325,,,,,,,,,,,,,,0,9,9,41,1,,,,,,,,,,,,,,,,,,,,,,,,,,
,,,,,,,,,,,,a,1.38409,Incorrect,,,,,,t4.png,t1.png,3,0.0000131,19,female,2020-11-05_13h34.12.129,torte-q,2020.1.3,MacIntel,60,13325,,,,,,,,,,,,,,0,10,10,48,1,,,,,,,,,,,,,,,,,,,,,,,,,,
,,,,,,,,,,,,a,1.547865,Correct!,,,,,,t5.png,t5.png,0,0.97829,19,female,2020-11-05_13h34.12.129,torte-q,2020.1.3,MacIntel,60,13325,,,,,,,,,,,,,,0,11,11,25,1,,,,,,,,,,,,,,,,,,,,,,,,,,
,,,,,,,,,,,,a,1.665065,Correct!,,,,,,t5.png,t5.png,0,0.97829,19,female,2020-11-05_13h34.12.129,torte-q,2020.1.3,MacIntel,60,13325,,,,,,,,,,,,,,0,12,12,73,1,,,,,,,,,,,,,,,,,,,,,,,,,,
,,,,,,,,,,,,l,1.21757,Correct!,,,,,,t5.png,t1.png,4,9.55E-11,19,female,2020-11-05_13h34.12.129,torte-q,2020.1.3,MacIntel,60,13325,,,,,,,,,,,,,,0,13,13,102,1,,,,,,,,,,,,,,,,,,,,,,,,,,
,,,,,,,,,,,,l,1.831545,Correct!,,,,,,t4.png,t1.png,3,0.0000131,19,female,2020-11-05_13h34.12.129,torte-q,2020.1.3,MacIntel,60,13325,,,,,,,,,,,,,,0,14,14,13,1,,,,,,,,,,,,,,,,,,,,,,,,,,
,,,,,,,,,,,,,,Too slow :(,,,,,,t2.png,t1.png,1,0.90025,19,female,2020-11-05_13h34.12.129,torte-q,2020.1.3,MacIntel,60,13325,,,,,,,,,,,,,,0,15,15,4,1,,,,,,,,,,,,,,,,,,,,,,,,,,
,,,,,,,,,,,,,,Too slow :(,,,,,,t1.png,t2.png,1,0.90025,19,female,2020-11-05_13h34.12.129,torte-q,2020.1.3,MacIntel,60,13325,,,,,,,,,,,,,,0,16,16,72,1,,,,,,,,,,,,,,,,,,,,,,,,,,
,,,,,,,,,,,,a,2.43481,Incorrect,,,,,,t3.png,t1.png,2,0.0565,19,female,2020-11-05_13h34.12.129,torte-q,2020.1.3,MacIntel,60,13325,,,,,,,,,,,,,,0,17,17,31,1,,,,,,,,,,,,,,,,,,,,,,,,,,
,,,,,,,,,,,,l,2.01345,Correct!,,,,,,t2.png,t4.png,2,0.059078,19,female,2020-11-05_13h34.12.129,torte-q,2020.1.3,MacIntel,60,13325,,,,,,,,,,,,,,0,18,18,11,1,,,,,,,,,,,,,,,,,,,,,,,,,,
,,,,,,,,,,,,l,1.531215,Correct!,,,,,,t4.png,t2.png,2,0.059078,19,female,2020-11-05_13h34.12.129,torte-q,2020.1.3,MacIntel,60,13325,,,,,,,,,,,,,,0,19,19,86,1,,,,,,,,,,,,,,,,,,,,,,,,,,
,,,,,,,,,,,,l,1.001645,Correct!,,,,,,t4.png,t2.png,2,0.059078,19,female,2020-11-05_13h34.12.129,torte-q,2020.1.3,MacIntel,60,13325,,,,,,,,,,,,,,0,20,20,110,1,,,,,,,,,,,,,,,,,,,,,,,,,,
,,,,,,,,,,,,l,2.384405,Incorrect,,,,,,t3.png,t2.png,1,0.90855,19,female,2020-11-05_13h34.12.129,torte-q,2020.1.3,MacIntel,60,13325,,,,,,,,,,,,,,0,21,21,18,1,,,,,,,,,,,,,,,,,,,,,,,,,,
,,,,,,,,,,,,l,1.53123,Correct!,,,,,,t1.png,t3.png,2,0.056466,19,female,2020-11-05_13h34.12.129,torte-q,2020.1.3,MacIntel,60,13325,,,,,,,,,,,,,,0,22,22,99,1,,,,,,,,,,,,,,,,,,,,,,,,,,
,,,,,,,,,,,,l,1.75077,Correct!,,,,,,t5.png,t1.png,4,9.55E-11,19,female,2020-11-05_13h34.12.129,torte-q,2020.1.3,MacIntel,60,13325,,,,,,,,,,,,,,0,23,23,43,1,,,,,,,,,,,,,,,,,,,,,,,,,,
,,,,,,,,,,,,a,1.54957,Correct!,,,,,,t2.png,t2.png,0,0.98115,19,female,2020-11-05_13h34.12.129,torte-q,2020.1.3,MacIntel,60,13325,,,,,,,,,,,,,,0,24,24,59,1,,,,,,,,,,,,,,,,,,,,,,,,,,
,,,,,,,,,,,,l,1.36567,Incorrect,,,,,,t4.png,t4.png,0,0.98115,19,female,2020-11-05_13h34.12.129,torte-q,2020.1.3,MacIntel,60,13325,,,,,,,,,,,,,,0,25,25,21,1,,,,,,,,,,,,,,,,,,,,,,,,,,
,,,,,,,,,,,,l,2.367575,Incorrect,,,,,,t2.png,t3.png,1,0.90855,19,female,2020-11-05_13h34.12.129,torte-q,2020.1.3,MacIntel,60,13325,,,,,,,,,,,,,,0,26,26,111,1,,,,,,,,,,,,,,,,,,,,,,,,,,
,,,,,,,,,,,,l,1.014715,Correct!,,,,,,t1.png,t3.png,2,0.056466,19,female,2020-11-05_13h34.12.129,torte-q,2020.1.3,MacIntel,60,13325,,,,,,,,,,,,,,0,27,27,69,1,,,,,,,,,,,,,,,,,,,,,,,,,,
,,,,,,,,,,,,l,1.357105,Correct!,,,,,,t4.png,t5.png,1,0.90025,19,female,2020-11-05_13h34.12.129,torte-q,2020.1.3,MacIntel,60,13325,,,,,,,,,,,,,,0,28,28,58,1,,,,,,,,,,,,,,,,,,,,,,,,,,
,,,,,,,,,,,,a,2.11639,Incorrect,,,,,,t5.png,t3.png,2,0.056466,19,female,2020-11-05_13h34.12.129,torte-q,2020.1.3,MacIntel,60,13325,,,,,,,,,,,,,,0,29,29,108,1,,,,,,,,,,,,,,,,,,,,,,,,,,
,,,,,,,,,,,,a,1.86777,Correct!,,,,,,t5.png,t4.png,1,0.90025,19,female,2020-11-05_13h34.12.129,torte-q,2020.1.3,MacIntel,60,13325,,,,,,,,,,,,,,0,30,30,34,1,,,,,,,,,,,,,,,,,,,,,,,,,,
,,,,,,,,,,,,l,0.94956,Correct!,,,,,,t4.png,t2.png,2,0.0591,19,female,2020-11-05_13h34.12.129,torte-q,2020.1.3,MacIntel,60,13325,,,,,,,,,,,,,,0,31,31,36,1,,,,,,,,,,,,,,,,,,,,,,,,,,
,,,,,,,,,,,,l,0.76553,Correct!,,,,,,t5.png,t1.png,4,9.55E-11,19,female,2020-11-05_13h34.12.129,torte-q,2020.1.3,MacIntel,60,13325,,,,,,,,,,,,,,0,32,32,71,1,,,,,,,,,,,,,,,,,,,,,,,,,,
,,,,,,,,,,,,a,2.034925,Incorrect,,,,,,t5.png,t3.png,2,0.056466,19,female,2020-11-05_13h34.12.129,torte-q,2020.1.3,MacIntel,60,13325,,,,,,,,,,,,,,0,33,33,114,1,,,,,,,,,,,,,,,,,,,,,,,,,,
,,,,,,,,,,,,l,1.681595,Correct!,,,,,,t1.png,t4.png,3,0.0000131,19,female,2020-11-05_13h34.12.129,torte-q,2020.1.3,MacIntel,60,13325,,,,,,,,,,,,,,0,34,34,17,1,,,,,,,,,,,,,,,,,,,,,,,,,,
,,,,,,,,,,,,l,1.55028,Correct!,,,,,,t2.png,t5.png,3,0.0000131,19,female,2020-11-05_13h34.12.129,torte-q,2020.1.3,MacIntel,60,13325,,,,,,,,,,,,,,0,35,35,104,1,,,,,,,,,,,,,,,,,,,,,,,,,,
,,,,,,,,,,,,a,1.31463,Correct!,,,,,,t3.png,t2.png,1,0.909,19,female,2020-11-05_13h34.12.129,torte-q,2020.1.3,MacIntel,60,13325,,,,,,,,,,,,,,0,36,36,3,1,,,,,,,,,,,,,,,,,,,,,,,,,,
,,,,,,,,,,,,l,1.232655,Correct!,,,,,,t5.png,t1.png,4,9.55E-11,19,female,2020-11-05_13h34.12.129,torte-q,2020.1.3,MacIntel,60,13325,,,,,,,,,,,,,,0,37,37,100,1,,,,,,,,,,,,,,,,,,,,,,,,,,
,,,,,,,,,,,,a,1.489295,Incorrect,,,,,,t1.png,t3.png,2,0.056466,19,female,2020-11-05_13h34.12.129,torte-q,2020.1.3,MacIntel,60,13325,,,,,,,,,,,,,,0,38,38,63,1,,,,,,,,,,,,,,,,,,,,,,,,,,
,,,,,,,,,,,,a,0.818135,Correct!,,,,,,t5.png,t4.png,1,0.90025,19,female,2020-11-05_13h34.12.129,torte-q,2020.1.3,MacIntel,60,13325,,,,,,,,,,,,,,0,39,39,27,1,,,,,,,,,,,,,,,,,,,,,,,,,,
,,,,,,,,,,,,l,1.88092,Incorrect,,,,,,t1.png,t1.png,0,0.97829,19,female,2020-11-05_13h34.12.129,torte-q,2020.1.3,MacIntel,60,13325,,,,,,,,,,,,,,0,40,40,67,1,,,,,,,,,,,,,,,,,,,,,,,,,,
,,,,,,,,,,,,a,1.5652,Correct!,,,,,,t4.png,t3.png,1,0.90855,19,female,2020-11-05_13h34.12.129,torte-q,2020.1.3,MacIntel,60,13325,,,,,,,,,,,,,,0,41,41,75,1,,,,,,,,,,,,,,,,,,,,,,,,,,
,,,,,,,,,,,,a,1.11739,Incorrect,,,,,,t4.png,t1.png,3,0.0000131,19,female,2020-11-05_13h34.12.129,torte-q,2020.1.3,MacIntel,60,13325,,,,,,,,,,,,,,0,42,42,61,1,,,,,,,,,,,,,,,,,,,,,,,,,,
,,,,,,,,,,,,a,1.067485,Correct!,,,,,,t5.png,t4.png,1,0.9,19,female,2020-11-05_13h34.12.129,torte-q,2020.1.3,MacIntel,60,13325,,,,,,,,,,,,,,0,43,43,49,1,,,,,,,,,,,,,,,,,,,,,,,,,,
,,,,,,,,,,,,a,1.751465,Incorrect,,,,,,t3.png,t1.png,2,0.056466,19,female,2020-11-05_13h34.12.129,torte-q,2020.1.3,MacIntel,60,13325,,,,,,,,,,,,,,0,44,44,64,1,,,,,,,,,,,,,,,,,,,,,,,,,,
,,,,,,,,,,,,a,1.434565,Correct!,,,,,,t2.png,t1.png,1,0.90025,19,female,2020-11-05_13h34.12.129,torte-q,2020.1.3,MacIntel,60,13325,,,,,,,,,,,,,,0,45,45,19,1,,,,,,,,,,,,,,,,,,,,,,,,,,
,,,,,,,,,,,,l,1.548465,Incorrect,,,,,,t1.png,t1.png,0,0.97829,19,female,2020-11-05_13h34.12.129,torte-q,2020.1.3,MacIntel,60,13325,,,,,,,,,,,,,,0,46,46,78,1,,,,,,,,,,,,,,,,,,,,,,,,,,
,,,,,,,,,,,,a,1.198375,Correct!,,,,,,t2.png,t2.png,0,0.98115,19,female,2020-11-05_13h34.12.129,torte-q,2020.1.3,MacIntel,60,13325,,,,,,,,,,,,,,0,47,47,57,1,,,,,,,,,,,,,,,,,,,,,,,,,,
,,,,,,,,,,,,l,0.951665,Correct!,,,,,,t1.png,t5.png,4,9.55E-11,19,female,2020-11-05_13h34.12.129,torte-q,2020.1.3,MacIntel,60,13325,,,,,,,,,,,,,,0,48,48,55,1,,,,,,,,,,,,,,,,,,,,,,,,,,
,,,,,,,,,,,,a,1.41804,Correct!,,,,,,t4.png,t3.png,1,0.90855,19,female,2020-11-05_13h34.12.129,torte-q,2020.1.3,MacIntel,60,13325,,,,,,,,,,,,,,0,49,49,35,1,,,,,,,,,,,,,,,,,,,,,,,,,,
,,,,,,,,,,,,l,1.650845,Correct!,,,,,,t2.png,t4.png,2,0.059078,19,female,2020-11-05_13h34.12.129,torte-q,2020.1.3,MacIntel,60,13325,,,,,,,,,,,,,,0,50,50,77,1,,,,,,,,,,,,,,,,,,,,,,,,,,
,,,,,,,,,,,,l,0.867545,Incorrect,,,,,,t4.png,t5.png,1,0.90025,19,female,2020-11-05_13h34.12.129,torte-q,2020.1.3,MacIntel,60,13325,,,,,,,,,,,,,,0,51,51,113,1,,,,,,,,,,,,,,,,,,,,,,,,,,
,,,,,,,,,,,,l,1.39822,Correct!,,,,,,t4.png,t5.png,1,0.90025,19,female,2020-11-05_13h34.12.129,torte-q,2020.1.3,MacIntel,60,13325,,,,,,,,,,,,,,0,52,52,47,1,,,,,,,,,,,,,,,,,,,,,,,,,,
,,,,,,,,,,,,l,1.40018,Correct!,,,,,,t3.png,t5.png,2,0.056466,19,female,2020-11-05_13h34.12.129,torte-q,2020.1.3,MacIntel,60,13325,,,,,,,,,,,,,,0,53,53,6,1,,,,,,,,,,,,,,,,,,,,,,,,,,
,,,,,,,,,,,,a,1.63463,Correct!,,,,,,t3.png,t2.png,1,0.90855,19,female,2020-11-05_13h34.12.129,torte-q,2020.1.3,MacIntel,60,13325,,,,,,,,,,,,,,0,54,54,97,1,,,,,,,,,,,,,,,,,,,,,,,,,,
,,,,,,,,,,,,l,1.21718,Correct!,,,,,,t1.png,t4.png,3,0.0000131,19,female,2020-11-05_13h34.12.129,torte-q,2020.1.3,MacIntel,60,13325,,,,,,,,,,,,,,0,55,55,50,1,,,,,,,,,,,,,,,,,,,,,,,,,,
,,,,,,,,,,,,a,1.34854,Incorrect,,,,,,t5.png,t2.png,3,0.0000131,19,female,2020-11-05_13h34.12.129,torte-q,2020.1.3,MacIntel,60,13325,,,,,,,,,,,,,,0,56,56,98,1,,,,,,,,,,,,,,,,,,,,,,,,,,
,,,,,,,,,,,,,,Too slow :(,,,,,,t5.png,t2.png,3,0.0000131,19,female,2020-11-05_13h34.12.129,torte-q,2020.1.3,MacIntel,60,13325,,,,,,,,,,,,,,0,57,57,119,1,,,,,,,,,,,,,,,,,,,,,,,,,,
,,,,,,,,,,,,l,0.834015,Correct!,,,,,,t1.png,t5.png,4,9.55E-11,19,female,2020-11-05_13h34.12.129,torte-q,2020.1.3,MacIntel,60,13325,,,,,,,,,,,,,,0,58,58,12,1,,,,,,,,,,,,,,,,,,,,,,,,,,
,,,,,,,,,,,,a,1.048625,Correct!,,,,,,t4.png,t3.png,1,0.909,19,female,2020-11-05_13h34.12.129,torte-q,2020.1.3,MacIntel,60,13325,,,,,,,,,,,,,,0,59,59,20,1,,,,,,,,,,,,,,,,,,,,,,,,,,
,,,,,,,,,,,,,,Too slow :(,,,,,,t1.png,t4.png,3,0.0000131,19,female,2020-11-05_13h34.12.129,torte-q,2020.1.3,MacIntel,60,13325,,,,,,,,,,,,,,0,60,60,107,1,,,,,,,,,,,,,,,,,,,,,,,,,,
,,,,,,,,,,,,a,1.064495,Correct!,,,,,,t4.png,t3.png,1,0.909,19,female,2020-11-05_13h34.12.129,torte-q,2020.1.3,MacIntel,60,13325,,,,,,,,,,,,,,0,61,61,46,1,,,,,,,,,,,,,,,,,,,,,,,,,,
,,,,,,,,,,,,l,0.70146,Correct!,,,,,,t4.png,t2.png,2,0.059078,19,female,2020-11-05_13h34.12.129,torte-q,2020.1.3,MacIntel,60,13325,,,,,,,,,,,,,,0,62,62,88,1,,,,,,,,,,,,,,,,,,,,,,,,,,
,,,,,,,,,,,,a,1.08445,Incorrect,,,,,,t3.png,t1.png,2,0.056466,19,female,2020-11-05_13h34.12.129,torte-q,2020.1.3,MacIntel,60,13325,,,,,,,,,,,,,,0,63,63,0,1,,,,,,,,,,,,,,,,,,,,,,,,,,
,,,,,,,,,,,,l,0.66495,Incorrect,,,,,,t3.png,t4.png,1,0.90855,19,female,2020-11-05_13h34.12.129,torte-q,2020.1.3,MacIntel,60,13325,,,,,,,,,,,,,,0,64,64,96,1,,,,,,,,,,,,,,,,,,,,,,,,,,
,,,,,,,,,,,,l,2.03372,Incorrect,,,,,,t4.png,t4.png,0,0.98115,19,female,2020-11-05_13h34.12.129,torte-q,2020.1.3,MacIntel,60,13325,,,,,,,,,,,,,,0,65,65,90,1,,,,,,,,,,,,,,,,,,,,,,,,,,
,,,,,,,,,,,,l,1.315075,Correct!,,,,,,t2.png,t4.png,2,0.0591,19,female,2020-11-05_13h34.12.129,torte-q,2020.1.3,MacIntel,60,13325,,,,,,,,,,,,,,0,66,66,15,1,,,,,,,,,,,,,,,,,,,,,,,,,,
,,,,,,,,,,,,a,2.447415,Incorrect,,,,,,t2.png,t5.png,3,0.0000131,19,female,2020-11-05_13h34.12.129,torte-q,2020.1.3,MacIntel,60,13325,,,,,,,,,,,,,,0,67,67,40,1,,,,,,,,,,,,,,,,,,,,,,,,,,
,,,,,,,,,,,,l,0.865455,Correct!,,,,,,t1.png,t3.png,2,0.056466,19,female,2020-11-05_13h34.12.129,torte-q,2020.1.3,MacIntel,60,13325,,,,,,,,,,,,,,0,68,68,60,1,,,,,,,,,,,,,,,,,,,,,,,,,,
,,,,,,,,,,,,l,0.65132,Incorrect,,,,,,t1.png,t2.png,1,0.90025,19,female,2020-11-05_13h34.12.129,torte-q,2020.1.3,MacIntel,60,13325,,,,,,,,,,,,,,0,69,69,112,1,,,,,,,,,,,,,,,,,,,,,,,,,,
,,,,,,,,,,,,l,1.03167,Incorrect,,,,,,t4.png,t4.png,0,0.98115,19,female,2020-11-05_13h34.12.129,torte-q,2020.1.3,MacIntel,60,13325,,,,,,,,,,,,,,0,70,70,80,1,,,,,,,,,,,,,,,,,,,,,,,,,,
,,,,,,,,,,,,l,1.133325,Correct!,,,,,,t5.png,t2.png,3,0.0000131,19,female,2020-11-05_13h34.12.129,torte-q,2020.1.3,MacIntel,60,13325,,,,,,,,,,,,,,0,71,71,116,1,,,,,,,,,,,,,,,,,,,,,,,,,,
,,,,,,,,,,,,a,1.85117,Incorrect,,,,,,t5.png,t3.png,2,0.056466,19,female,2020-11-05_13h34.12.129,torte-q,2020.1.3,MacIntel,60,13325,,,,,,,,,,,,,,0,72,72,38,1,,,,,,,,,,,,,,,,,,,,,,,,,,
,,,,,,,,,,,,l,1.514575,Correct!,,,,,,t3.png,t5.png,2,0.056466,19,female,2020-11-05_13h34.12.129,torte-q,2020.1.3,MacIntel,60,13325,,,,,,,,,,,,,,0,73,73,14,1,,,,,,,,,,,,,,,,,,,,,,,,,,
,,,,,,,,,,,,l,1.148145,Incorrect,,,,,,t2.png,t3.png,1,0.90855,19,female,2020-11-05_13h34.12.129,torte-q,2020.1.3,MacIntel,60,13325,,,,,,,,,,,,,,0,74,74,68,1,,,,,,,,,,,,,,,,,,,,,,,,,,
,,,,,,,,,,,,l,0.917575,Incorrect,,,,,,t2.png,t2.png,0,0.981,19,female,2020-11-05_13h34.12.129,torte-q,2020.1.3,MacIntel,60,13325,,,,,,,,,,,,,,0,75,75,101,1,,,,,,,,,,,,,,,,,,,,,,,,,,
,,,,,,,,,,,,l,1.334265,Incorrect,,,,,,t2.png,t2.png,0,0.98115,19,female,2020-11-05_13h34.12.129,torte-q,2020.1.3,MacIntel,60,13325,,,,,,,,,,,,,,0,76,76,2,1,,,,,,,,,,,,,,,,,,,,,,,,,,
,,,,,,,,,,,,l,1.23417,Incorrect,,,,,,t5.png,t4.png,1,0.9,19,female,2020-11-05_13h34.12.129,torte-q,2020.1.3,MacIntel,60,13325,,,,,,,,,,,,,,0,77,77,76,1,,,,,,,,,,,,,,,,,,,,,,,,,,
,,,,,,,,,,,,l,1.017,Correct!,,,,,,t5.png,t1.png,4,9.55E-11,19,female,2020-11-05_13h34.12.129,torte-q,2020.1.3,MacIntel,60,13325,,,,,,,,,,,,,,0,78,78,22,1,,,,,,,,,,,,,,,,,,,,,,,,,,
,,,,,,,,,,,,l,1.21593,Incorrect,,,,,,t1.png,t1.png,0,0.978,19,female,2020-11-05_13h34.12.129,torte-q,2020.1.3,MacIntel,60,13325,,,,,,,,,,,,,,0,79,79,28,1,,,,,,,,,,,,,,,,,,,,,,,,,,
,,,,,,,,,,,,a,1.34878,Correct!,,,,,,t3.png,t2.png,1,0.909,19,female,2020-11-05_13h34.12.129,torte-q,2020.1.3,MacIntel,60,13325,,,,,,,,,,,,,,0,80,80,23,1,,,,,,,,,,,,,,,,,,,,,,,,,,
,,,,,,,,,,,,l,1.034595,Incorrect,,,,,,t5.png,t5.png,0,0.97829,19,female,2020-11-05_13h34.12.129,torte-q,2020.1.3,MacIntel,60,13325,,,,,,,,,,,,,,0,81,81,94,1,,,,,,,,,,,,,,,,,,,,,,,,,,
,,,,,,,,,,,,a,1.14806,Incorrect,,,,,,t5.png,t3.png,2,0.056466,19,female,2020-11-05_13h34.12.129,torte-q,2020.1.3,MacIntel,60,13325,,,,,,,,,,,,,,0,82,82,56,1,,,,,,,,,,,,,,,,,,,,,,,,,,
,,,,,,,,,,,,l,1.067905,Incorrect,,,,,,t4.png,t4.png,0,0.98115,19,female,2020-11-05_13h34.12.129,torte-q,2020.1.3,MacIntel,60,13325,,,,,,,,,,,,,,0,83,83,52,1,,,,,,,,,,,,,,,,,,,,,,,,,,
,,,,,,,,,,,,l,1.482765,Incorrect,,,,,,t3.png,t4.png,1,0.909,19,female,2020-11-05_13h34.12.129,torte-q,2020.1.3,MacIntel,60,13325,,,,,,,,,,,,,,0,84,84,89,1,,,,,,,,,,,,,,,,,,,,,,,,,,
,,,,,,,,,,,,l,1.31664,Incorrect,,,,,,t2.png,t3.png,1,0.90855,19,female,2020-11-05_13h34.12.129,torte-q,2020.1.3,MacIntel,60,13325,,,,,,,,,,,,,,0,85,85,10,1,,,,,,,,,,,,,,,,,,,,,,,,,,
,,,,,,,,,,,,l,1.267875,Incorrect,,,,,,t3.png,t4.png,1,0.909,19,female,2020-11-05_13h34.12.129,torte-q,2020.1.3,MacIntel,60,13325,,,,,,,,,,,,,,0,86,86,82,1,,,,,,,,,,,,,,,,,,,,,,,,,,
,,,,,,,,,,,,l,1.0845,Correct!,,,,,,t3.png,t4.png,1,0.909,19,female,2020-11-05_13h34.12.129,torte-q,2020.1.3,MacIntel,60,13325,,,,,,,,,,,,,,0,87,87,106,1,,,,,,,,,,,,,,,,,,,,,,,,,,
,,,,,,,,,,,,l,0.934645,Correct!,,,,,,t2.png,t5.png,3,0.0000131,19,female,2020-11-05_13h34.12.129,torte-q,2020.1.3,MacIntel,60,13325,,,,,,,,,,,,,,0,88,88,66,1,,,,,,,,,,,,,,,,,,,,,,,,,,
,,,,,,,,,,,,l,0.93211,Incorrect,,,,,,t2.png,t1.png,1,0.90025,19,female,2020-11-05_13h34.12.129,torte-q,2020.1.3,MacIntel,60,13325,,,,,,,,,,,,,,0,89,89,5,1,,,,,,,,,,,,,,,,,,,,,,,,,,
,,,,,,,,,,,,a,0.68414,Incorrect,,,,,,t2.png,t1.png,1,0.90025,19,female,2020-11-05_13h34.12.129,torte-q,2020.1.3,MacIntel,60,13325,,,,,,,,,,,,,,0,90,90,62,1,,,,,,,,,,,,,,,,,,,,,,,,,,
,,,,,,,,,,,,l,1.315475,Correct!,,,,,,t2.png,t4.png,2,0.059078,19,female,2020-11-05_13h34.12.129,torte-q,2020.1.3,MacIntel,60,13325,,,,,,,,,,,,,,0,91,91,24,1,,,,,,,,,,,,,,,,,,,,,,,,,,
,,,,,,,,,,,,l,1.61472,Correct!,,,,,,t2.png,t5.png,3,0.0000131,19,female,2020-11-05_13h34.12.129,torte-q,2020.1.3,MacIntel,60,13325,,,,,,,,,,,,,,0,92,92,95,1,,,,,,,,,,,,,,,,,,,,,,,,,,
,,,,,,,,,,,,,,Too slow :(,,,,,,t1.png,t2.png,1,0.9,19,female,2020-11-05_13h34.12.129,torte-q,2020.1.3,MacIntel,60,13325,,,,,,,,,,,,,,0,93,93,1,1,,,,,,,,,,,,,,,,,,,,,,,,,,
,,,,,,,,,,,,l,0.86789,Correct!,,,,,,t2.png,t5.png,3,0.0000131,19,female,2020-11-05_13h34.12.129,torte-q,2020.1.3,MacIntel,60,13325,,,,,,,,,,,,,,0,94,94,8,1,,,,,,,,,,,,,,,,,,,,,,,,,,
,,,,,,,,,,,,a,1.518145,Incorrect,,,,,,t5.png,t2.png,3,0.0000131,19,female,2020-11-05_13h34.12.129,torte-q,2020.1.3,MacIntel,60,13325,,,,,,,,,,,,,,0,95,95,51,1,,,,,,,,,,,,,,,,,,,,,,,,,,
,,,,,,,,,,,,l,0.897715,Correct!,,,,,,t1.png,t5.png,4,9.55E-11,19,female,2020-11-05_13h34.12.129,torte-q,2020.1.3,MacIntel,60,13325,,,,,,,,,,,,,,0,96,96,16,1,,,,,,,,,,,,,,,,,,,,,,,,,,
,,,,,,,,,,,,l,1.380995,Correct!,,,,,,t1.png,t3.png,2,0.056466,19,female,2020-11-05_13h34.12.129,torte-q,2020.1.3,MacIntel,60,13325,,,,,,,,,,,,,,0,97,97,87,1,,,,,,,,,,,,,,,,,,,,,,,,,,
,,,,,,,,,,,,l,1.417105,Incorrect,,,,,,t1.png,t1.png,0,0.97829,19,female,2020-11-05_13h34.12.129,torte-q,2020.1.3,MacIntel,60,13325,,,,,,,,,,,,,,0,98,98,9,1,,,,,,,,,,,,,,,,,,,,,,,,,,
,,,,,,,,,,,,l,0.8317,Correct!,,,,,,t5.png,t2.png,3,0.0000131,19,female,2020-11-05_13h34.12.129,torte-q,2020.1.3,MacIntel,60,13325,,,,,,,,,,,,,,0,99,99,91,1,,,,,,,,,,,,,,,,,,,,,,,,,,
,,,,,,,,,,,,,,Too slow :(,,,,,,t1.png,t4.png,3,0.0000131,19,female,2020-11-05_13h34.12.129,torte-q,2020.1.3,MacIntel,60,13325,,,,,,,,,,,,,,0,100,100,81,1,,,,,,,,,,,,,,,,,,,,,,,,,,
,,,,,,,,,,,,a,1.183525,Correct!,,,,,,t4.png,t3.png,1,0.90855,19,female,2020-11-05_13h34.12.129,torte-q,2020.1.3,MacIntel,60,13325,,,,,,,,,,,,,,0,101,101,45,1,,,,,,,,,,,,,,,,,,,,,,,,,,
,,,,,,,,,,,,l,1.768745,Correct!,,,,,,t4.png,t2.png,2,0.059078,19,female,2020-11-05_13h34.12.129,torte-q,2020.1.3,MacIntel,60,13325,,,,,,,,,,,,,,0,102,102,109,1,,,,,,,,,,,,,,,,,,,,,,,,,,
,,,,,,,,,,,,l,1.53391,Incorrect,,,,,,t1.png,t2.png,1,0.90025,19,female,2020-11-05_13h34.12.129,torte-q,2020.1.3,MacIntel,60,13325,,,,,,,,,,,,,,0,103,103,33,1,,,,,,,,,,,,,,,,,,,,,,,,,,
,,,,,,,,,,,,l,2.01845,Correct!,,,,,,t4.png,t1.png,3,0.0000131,19,female,2020-11-05_13h34.12.129,torte-q,2020.1.3,MacIntel,60,13325,,,,,,,,,,,,,,0,104,104,42,1,,,,,,,,,,,,,,,,,,,,,,,,,,
,,,,,,,,,,,,a,1.366395,Incorrect,,,,,,t5.png,t3.png,2,0.0565,19,female,2020-11-05_13h34.12.129,torte-q,2020.1.3,MacIntel,60,13325,,,,,,,,,,,,,,0,105,105,39,1,,,,,,,,,,,,,,,,,,,,,,,,,,
,,,,,,,,,,,,l,1.58648,Correct!,,,,,,t3.png,t5.png,2,0.0565,19,female,2020-11-05_13h34.12.129,torte-q,2020.1.3,MacIntel,60,13325,,,,,,,,,,,,,,0,106,106,30,1,,,,,,,,,,,,,,,,,,,,,,,,,,
,,,,,,,,,,,,a,1.2008,Correct!,,,,,,t5.png,t5.png,0,0.978,19,female,2020-11-05_13h34.12.129,torte-q,2020.1.3,MacIntel,60,13325,,,,,,,,,,,,,,0,107,107,117,1,,,,,,,,,,,,,,,,,,,,,,,,,,
,,,,,,,,,,,,l,1.484595,Incorrect,,,,,,t3.png,t4.png,1,0.90855,19,female,2020-11-05_13h34.12.129,torte-q,2020.1.3,MacIntel,60,13325,,,,,,,,,,,,,,0,108,108,84,1,,,,,,,,,,,,,,,,,,,,,,,,,,
,,,,,,,,,,,,a,1.699715,Incorrect,,,,,,t3.png,t1.png,2,0.056466,19,female,2020-11-05_13h34.12.129,torte-q,2020.1.3,MacIntel,60,13325,,,,,,,,,,,,,,0,109,109,32,1,,,,,,,,,,,,,,,,,,,,,,,,,,
,,,,,,,,,,,,l,0.751145,Incorrect,,,,,,t1.png,t1.png,0,0.978,19,female,2020-11-05_13h34.12.129,torte-q,2020.1.3,MacIntel,60,13325,,,,,,,,,,,,,,0,110,110,54,1,,,,,,,,,,,,,,,,,,,,,,,,,,
,,,,,,,,,,,,l,1.998815,Correct!,,,,,,t1.png,t4.png,3,0.0000131,19,female,2020-11-05_13h34.12.129,torte-q,2020.1.3,MacIntel,60,13325,,,,,,,,,,,,,,0,111,111,92,1,,,,,,,,,,,,,,,,,,,,,,,,,,
,,,,,,,,,,,,a,1.6661,Incorrect,,,,,,t3.png,t1.png,2,0.056466,19,female,2020-11-05_13h34.12.129,torte-q,2020.1.3,MacIntel,60,13325,,,,,,,,,,,,,,0,112,112,29,1,,,,,,,,,,,,,,,,,,,,,,,,,,
,,,,,,,,,,,,l,0.934195,Incorrect,,,,,,t5.png,t5.png,0,0.97829,19,female,2020-11-05_13h34.12.129,torte-q,2020.1.3,MacIntel,60,13325,,,,,,,,,,,,,,0,113,113,70,1,,,,,,,,,,,,,,,,,,,,,,,,,,
,,,,,,,,,,,,l,1.184265,Correct!,,,,,,t2.png,t3.png,1,0.90855,19,female,2020-11-05_13h34.12.129,torte-q,2020.1.3,MacIntel,60,13325,,,,,,,,,,,,,,0,114,114,65,1,,,,,,,,,,,,,,,,,,,,,,,,,,
,,,,,,,,,,,,l,1.40115,Incorrect,,,,,,t1.png,t2.png,1,0.90025,19,female,2020-11-05_13h34.12.129,torte-q,2020.1.3,MacIntel,60,13325,,,,,,,,,,,,,,0,115,115,105,1,,,,,,,,,,,,,,,,,,,,,,,,,,
,,,,,,,,,,,,a,0.848565,Correct!,,,,,,t5.png,t4.png,1,0.90025,19,female,2020-11-05_13h34.12.129,torte-q,2020.1.3,MacIntel,60,13325,,,,,,,,,,,,,,0,116,116,26,1,,,,,,,,,,,,,,,,,,,,,,,,,,
,,,,,,,,,,,,a,0.96483,Incorrect,,,,,,t2.png,t1.png,1,0.9,19,female,2020-11-05_13h34.12.129,torte-q,2020.1.3,MacIntel,60,13325,,,,,,,,,,,,,,0,117,117,118,1,,,,,,,,,,,,,,,,,,,,,,,,,,
,,,,,,,,,,,,,,Too slow :(,,,,,,t3.png,t5.png,2,0.056466,19,female,2020-11-05_13h34.12.129,torte-q,2020.1.3,MacIntel,60,13325,,,,,,,,,,,,,,0,118,118,44,1,,,,,,,,,,,,,,,,,,,,,,,,,,
,,,,,,,,,,,,a,0.76669,Incorrect,,,,,,t4.png,t1.png,3,0.0000131,19,female,2020-11-05_13h34.12.129,torte-q,2020.1.3,MacIntel,60,13325,,,,,,,,,,,,,,0,119,119,93,1,,,,,,,,,,,,,,,,,,,,,,,,,,
,,,,,,,,,,,,,,,,,,,,,,,,19,female,2020-11-05_13h34.12.129,torte-q,2020.1.3,MacIntel,60,13325,space,1.465025,,,,,,,,,,,,,,,,,6.002822266,4.63351,65.67578125,71.390625,1,0,0,s3,34.11328125,84.22265625,1,0,0,t1,164.4765625,-101.8789063,1,0,0,proceed,space,1.134495,space,0.535195,space,0.49892
