key_resp_8.keys,key_resp_8.rt,key_resp_9.keys,key_resp_9.rt,key_resp_10.keys,key_resp_10.rt,key_resp_11.keys,key_resp_11.rt,key_resp_2.keys,key_resp_2.rt,key_resp_3.keys,key_resp_3.rt,key_resp.keys,key_resp.rt,Feedback,train.thisRepN,train.thisTrialN,train.thisN,train.thisIndex,train.ran,torta_sx,torta_dx,difference,probability,age,gender,date,expName,psychopyVersion,OS,frameRate,participant,key_resp_15.keys,key_resp_15.rt,key_resp_6.keys,key_resp_6.rt,test1.thisRepN,test1.thisTrialN,test1.thisN,test1.thisIndex,test1.ran,key_resp_16.keys,key_resp_16.rt,key_resp_7.keys,key_resp_7.rt,test2.thisRepN,test2.thisTrialN,test2.thisN,test2.thisIndex,test2.ran,rating.response,rating.rt,mouse.x,mouse.y,mouse.leftButton,mouse.midButton,mouse.rightButton,mouse.clicked_name,mouse_2.x,mouse_2.y,mouse_2.leftButton,mouse_2.midButton,mouse_2.rightButton,mouse_2.clicked_name,mouse_3.x,mouse_3.y,mouse_3.leftButton,mouse_3.midButton,mouse_3.rightButton,mouse_3.clicked_name,key_resp_12.keys,key_resp_12.rt,key_resp_13.keys,key_resp_13.rt,key_resp_14.keys,key_resp_14.rt
space,34.610235,space,10.686945,space,4.35519,space,2.747875,space,26.073765,return,34.10745,l,1.931595,Incorrect,0,0,0,75,1,t1.png,t1.png,0,0.97829,19,female,2020-11-07_17h22.16.146,torte-q,2020.1.3,Win32,60,13368,,,,,,,,,,,,,,,,,,,,,,,,,,,,,,,,,,,,,,,,,,,,
,,,,,,,,,,,,a,1.063415,Incorrect,0,1,1,69,1,t4.png,t2.png,2,0.059078,19,female,2020-11-07_17h22.16.146,torte-q,2020.1.3,Win32,60,13368,,,,,,,,,,,,,,,,,,,,,,,,,,,,,,,,,,,,,,,,,,,,
,,,,,,,,,,,,a,0.91318,Correct!,0,2,2,59,1,t5.png,t4.png,1,0.9,19,female,2020-11-07_17h22.16.146,torte-q,2020.1.3,Win32,60,13368,,,,,,,,,,,,,,,,,,,,,,,,,,,,,,,,,,,,,,,,,,,,
,,,,,,,,,,,,a,0.820385,Correct!,0,3,3,113,1,t5.png,t4.png,1,0.9,19,female,2020-11-07_17h22.16.146,torte-q,2020.1.3,Win32,60,13368,,,,,,,,,,,,,,,,,,,,,,,,,,,,,,,,,,,,,,,,,,,,
,,,,,,,,,,,,a,0.72645,Incorrect,0,4,4,27,1,t3.png,t1.png,2,0.0565,19,female,2020-11-07_17h22.16.146,torte-q,2020.1.3,Win32,60,13368,,,,,,,,,,,,,,,,,,,,,,,,,,,,,,,,,,,,,,,,,,,,
,,,,,,,,,,,,a,0.88374,Correct!,0,5,5,21,1,t5.png,t4.png,1,0.90025,19,female,2020-11-07_17h22.16.146,torte-q,2020.1.3,Win32,60,13368,,,,,,,,,,,,,,,,,,,,,,,,,,,,,,,,,,,,,,,,,,,,
,,,,,,,,,,,,a,0.930395,Incorrect,0,6,6,47,1,t4.png,t2.png,2,0.059078,19,female,2020-11-07_17h22.16.146,torte-q,2020.1.3,Win32,60,13368,,,,,,,,,,,,,,,,,,,,,,,,,,,,,,,,,,,,,,,,,,,,
,,,,,,,,,,,,l,0.68054,Correct!,0,7,7,115,1,t2.png,t4.png,2,0.059078,19,female,2020-11-07_17h22.16.146,torte-q,2020.1.3,Win32,60,13368,,,,,,,,,,,,,,,,,,,,,,,,,,,,,,,,,,,,,,,,,,,,
,,,,,,,,,,,,a,0.58135,Incorrect,0,8,8,36,1,t3.png,t1.png,2,0.0565,19,female,2020-11-07_17h22.16.146,torte-q,2020.1.3,Win32,60,13368,,,,,,,,,,,,,,,,,,,,,,,,,,,,,,,,,,,,,,,,,,,,
,,,,,,,,,,,,l,0.901975,Correct!,0,9,9,88,1,t3.png,t1.png,2,0.056466,19,female,2020-11-07_17h22.16.146,torte-q,2020.1.3,Win32,60,13368,,,,,,,,,,,,,,,,,,,,,,,,,,,,,,,,,,,,,,,,,,,,
,,,,,,,,,,,,a,0.665965,Correct!,0,10,10,25,1,t5.png,t5.png,0,0.97829,19,female,2020-11-07_17h22.16.146,torte-q,2020.1.3,Win32,60,13368,,,,,,,,,,,,,,,,,,,,,,,,,,,,,,,,,,,,,,,,,,,,
,,,,,,,,,,,,l,0.963765,Correct!,0,11,11,67,1,t1.png,t5.png,4,9.55E-11,19,female,2020-11-07_17h22.16.146,torte-q,2020.1.3,Win32,60,13368,,,,,,,,,,,,,,,,,,,,,,,,,,,,,,,,,,,,,,,,,,,,
,,,,,,,,,,,,l,1.066755,Incorrect,0,12,12,60,1,t2.png,t4.png,2,0.059078,19,female,2020-11-07_17h22.16.146,torte-q,2020.1.3,Win32,60,13368,,,,,,,,,,,,,,,,,,,,,,,,,,,,,,,,,,,,,,,,,,,,
,,,,,,,,,,,,l,0.875325,Incorrect,0,13,13,112,1,t1.png,t1.png,0,0.97829,19,female,2020-11-07_17h22.16.146,torte-q,2020.1.3,Win32,60,13368,,,,,,,,,,,,,,,,,,,,,,,,,,,,,,,,,,,,,,,,,,,,
,,,,,,,,,,,,a,0.907035,Incorrect,0,14,14,30,1,t3.png,t1.png,2,0.056466,19,female,2020-11-07_17h22.16.146,torte-q,2020.1.3,Win32,60,13368,,,,,,,,,,,,,,,,,,,,,,,,,,,,,,,,,,,,,,,,,,,,
,,,,,,,,,,,,a,0.88118,Incorrect,0,15,15,73,1,t4.png,t2.png,2,0.059078,19,female,2020-11-07_17h22.16.146,torte-q,2020.1.3,Win32,60,13368,,,,,,,,,,,,,,,,,,,,,,,,,,,,,,,,,,,,,,,,,,,,
,,,,,,,,,,,,l,0.64746,Correct!,0,16,16,31,1,t1.png,t5.png,4,9.55E-11,19,female,2020-11-07_17h22.16.146,torte-q,2020.1.3,Win32,60,13368,,,,,,,,,,,,,,,,,,,,,,,,,,,,,,,,,,,,,,,,,,,,
,,,,,,,,,,,,l,0.56583,Correct!,0,17,17,4,1,t1.png,t5.png,4,9.55E-11,19,female,2020-11-07_17h22.16.146,torte-q,2020.1.3,Win32,60,13368,,,,,,,,,,,,,,,,,,,,,,,,,,,,,,,,,,,,,,,,,,,,
,,,,,,,,,,,,a,0.886065,Incorrect,0,18,18,39,1,t3.png,t2.png,1,0.90855,19,female,2020-11-07_17h22.16.146,torte-q,2020.1.3,Win32,60,13368,,,,,,,,,,,,,,,,,,,,,,,,,,,,,,,,,,,,,,,,,,,,
,,,,,,,,,,,,a,0.62357,Incorrect,0,19,19,50,1,t5.png,t1.png,4,9.55E-11,19,female,2020-11-07_17h22.16.146,torte-q,2020.1.3,Win32,60,13368,,,,,,,,,,,,,,,,,,,,,,,,,,,,,,,,,,,,,,,,,,,,
,,,,,,,,,,,,l,0.4709,Correct!,0,20,20,45,1,t3.png,t2.png,1,0.90855,19,female,2020-11-07_17h22.16.146,torte-q,2020.1.3,Win32,60,13368,,,,,,,,,,,,,,,,,,,,,,,,,,,,,,,,,,,,,,,,,,,,
,,,,,,,,,,,,l,0.43728,Correct!,0,21,21,55,1,t2.png,t4.png,2,0.059078,19,female,2020-11-07_17h22.16.146,torte-q,2020.1.3,Win32,60,13368,,,,,,,,,,,,,,,,,,,,,,,,,,,,,,,,,,,,,,,,,,,,
,,,,,,,,,,,,l,0.506015,Incorrect,0,22,22,70,1,t5.png,t5.png,0,0.978,19,female,2020-11-07_17h22.16.146,torte-q,2020.1.3,Win32,60,13368,,,,,,,,,,,,,,,,,,,,,,,,,,,,,,,,,,,,,,,,,,,,
,,,,,,,,,,,,a,0.630845,Correct!,0,23,23,29,1,t5.png,t5.png,0,0.97829,19,female,2020-11-07_17h22.16.146,torte-q,2020.1.3,Win32,60,13368,,,,,,,,,,,,,,,,,,,,,,,,,,,,,,,,,,,,,,,,,,,,
,,,,,,,,,,,,l,1.003985,Correct!,0,24,24,94,1,t5.png,t1.png,4,9.55E-11,19,female,2020-11-07_17h22.16.146,torte-q,2020.1.3,Win32,60,13368,,,,,,,,,,,,,,,,,,,,,,,,,,,,,,,,,,,,,,,,,,,,
,,,,,,,,,,,,a,0.988145,Incorrect,0,25,25,24,1,t4.png,t2.png,2,0.059078,19,female,2020-11-07_17h22.16.146,torte-q,2020.1.3,Win32,60,13368,,,,,,,,,,,,,,,,,,,,,,,,,,,,,,,,,,,,,,,,,,,,
,,,,,,,,,,,,a,0.82894,Correct!,0,26,26,74,1,t5.png,t4.png,1,0.9,19,female,2020-11-07_17h22.16.146,torte-q,2020.1.3,Win32,60,13368,,,,,,,,,,,,,,,,,,,,,,,,,,,,,,,,,,,,,,,,,,,,
,,,,,,,,,,,,l,0.58759,Correct!,0,27,27,37,1,t1.png,t4.png,3,0.0000131,19,female,2020-11-07_17h22.16.146,torte-q,2020.1.3,Win32,60,13368,,,,,,,,,,,,,,,,,,,,,,,,,,,,,,,,,,,,,,,,,,,,
,,,,,,,,,,,,l,0.887025,Incorrect,0,28,28,114,1,t2.png,t3.png,1,0.90855,19,female,2020-11-07_17h22.16.146,torte-q,2020.1.3,Win32,60,13368,,,,,,,,,,,,,,,,,,,,,,,,,,,,,,,,,,,,,,,,,,,,
,,,,,,,,,,,,l,0.92092,Incorrect,0,29,29,106,1,t2.png,t3.png,1,0.90855,19,female,2020-11-07_17h22.16.146,torte-q,2020.1.3,Win32,60,13368,,,,,,,,,,,,,,,,,,,,,,,,,,,,,,,,,,,,,,,,,,,,
,,,,,,,,,,,,a,0.613875,Incorrect,0,30,30,102,1,t4.png,t2.png,2,0.059078,19,female,2020-11-07_17h22.16.146,torte-q,2020.1.3,Win32,60,13368,,,,,,,,,,,,,,,,,,,,,,,,,,,,,,,,,,,,,,,,,,,,
,,,,,,,,,,,,l,0.937335,Correct!,0,31,31,99,1,t1.png,t5.png,4,9.55E-11,19,female,2020-11-07_17h22.16.146,torte-q,2020.1.3,Win32,60,13368,,,,,,,,,,,,,,,,,,,,,,,,,,,,,,,,,,,,,,,,,,,,
,,,,,,,,,,,,a,0.77545,Correct!,0,32,32,79,1,t3.png,t2.png,1,0.909,19,female,2020-11-07_17h22.16.146,torte-q,2020.1.3,Win32,60,13368,,,,,,,,,,,,,,,,,,,,,,,,,,,,,,,,,,,,,,,,,,,,
,,,,,,,,,,,,l,0.95408,Correct!,0,33,33,68,1,t1.png,t4.png,3,0.0000131,19,female,2020-11-07_17h22.16.146,torte-q,2020.1.3,Win32,60,13368,,,,,,,,,,,,,,,,,,,,,,,,,,,,,,,,,,,,,,,,,,,,
,,,,,,,,,,,,a,0.65987,Incorrect,0,34,34,86,1,t3.png,t1.png,2,0.056466,19,female,2020-11-07_17h22.16.146,torte-q,2020.1.3,Win32,60,13368,,,,,,,,,,,,,,,,,,,,,,,,,,,,,,,,,,,,,,,,,,,,
,,,,,,,,,,,,a,0.66037,Correct!,0,35,35,42,1,t5.png,t4.png,1,0.90025,19,female,2020-11-07_17h22.16.146,torte-q,2020.1.3,Win32,60,13368,,,,,,,,,,,,,,,,,,,,,,,,,,,,,,,,,,,,,,,,,,,,
,,,,,,,,,,,,a,1.20322,Correct!,0,36,36,48,1,t5.png,t5.png,0,0.97829,19,female,2020-11-07_17h22.16.146,torte-q,2020.1.3,Win32,60,13368,,,,,,,,,,,,,,,,,,,,,,,,,,,,,,,,,,,,,,,,,,,,
,,,,,,,,,,,,l,0.881125,Correct!,0,37,37,26,1,t4.png,t2.png,2,0.0591,19,female,2020-11-07_17h22.16.146,torte-q,2020.1.3,Win32,60,13368,,,,,,,,,,,,,,,,,,,,,,,,,,,,,,,,,,,,,,,,,,,,
,,,,,,,,,,,,l,1.19291,Correct!,0,38,38,57,1,t2.png,t4.png,2,0.059078,19,female,2020-11-07_17h22.16.146,torte-q,2020.1.3,Win32,60,13368,,,,,,,,,,,,,,,,,,,,,,,,,,,,,,,,,,,,,,,,,,,,
,,,,,,,,,,,,a,0.778835,Incorrect,0,39,39,56,1,t5.png,t1.png,4,9.55E-11,19,female,2020-11-07_17h22.16.146,torte-q,2020.1.3,Win32,60,13368,,,,,,,,,,,,,,,,,,,,,,,,,,,,,,,,,,,,,,,,,,,,
,,,,,,,,,,,,l,0.85664,Incorrect,0,40,40,105,1,t3.png,t2.png,1,0.90855,19,female,2020-11-07_17h22.16.146,torte-q,2020.1.3,Win32,60,13368,,,,,,,,,,,,,,,,,,,,,,,,,,,,,,,,,,,,,,,,,,,,
,,,,,,,,,,,,a,1.16282,Incorrect,0,41,41,14,1,t2.png,t4.png,2,0.059078,19,female,2020-11-07_17h22.16.146,torte-q,2020.1.3,Win32,60,13368,,,,,,,,,,,,,,,,,,,,,,,,,,,,,,,,,,,,,,,,,,,,
,,,,,,,,,,,,l,0.93094,Incorrect,0,42,42,110,1,t4.png,t5.png,1,0.90025,19,female,2020-11-07_17h22.16.146,torte-q,2020.1.3,Win32,60,13368,,,,,,,,,,,,,,,,,,,,,,,,,,,,,,,,,,,,,,,,,,,,
,,,,,,,,,,,,l,1.973565,Incorrect,0,43,43,62,1,t5.png,t5.png,0,0.978,19,female,2020-11-07_17h22.16.146,torte-q,2020.1.3,Win32,60,13368,,,,,,,,,,,,,,,,,,,,,,,,,,,,,,,,,,,,,,,,,,,,
,,,,,,,,,,,,a,1.22734,Correct!,0,44,44,8,1,t3.png,t2.png,1,0.90855,19,female,2020-11-07_17h22.16.146,torte-q,2020.1.3,Win32,60,13368,,,,,,,,,,,,,,,,,,,,,,,,,,,,,,,,,,,,,,,,,,,,
,,,,,,,,,,,,a,1.29543,Correct!,0,45,45,109,1,t5.png,t5.png,0,0.97829,19,female,2020-11-07_17h22.16.146,torte-q,2020.1.3,Win32,60,13368,,,,,,,,,,,,,,,,,,,,,,,,,,,,,,,,,,,,,,,,,,,,
,,,,,,,,,,,,a,1.32091,Incorrect,0,46,46,17,1,t1.png,t4.png,3,0.0000131,19,female,2020-11-07_17h22.16.146,torte-q,2020.1.3,Win32,60,13368,,,,,,,,,,,,,,,,,,,,,,,,,,,,,,,,,,,,,,,,,,,,
,,,,,,,,,,,,l,1.35414,Incorrect,0,47,47,101,1,t4.png,t5.png,1,0.90025,19,female,2020-11-07_17h22.16.146,torte-q,2020.1.3,Win32,60,13368,,,,,,,,,,,,,,,,,,,,,,,,,,,,,,,,,,,,,,,,,,,,
,,,,,,,,,,,,l,0.89497,Incorrect,0,48,48,76,1,t3.png,t2.png,1,0.90855,19,female,2020-11-07_17h22.16.146,torte-q,2020.1.3,Win32,60,13368,,,,,,,,,,,,,,,,,,,,,,,,,,,,,,,,,,,,,,,,,,,,
,,,,,,,,,,,,l,1.143315,Correct!,0,49,49,52,1,t2.png,t4.png,2,0.059078,19,female,2020-11-07_17h22.16.146,torte-q,2020.1.3,Win32,60,13368,,,,,,,,,,,,,,,,,,,,,,,,,,,,,,,,,,,,,,,,,,,,
,,,,,,,,,,,,l,0.98758,Incorrect,0,50,50,85,1,t3.png,t2.png,1,0.90855,19,female,2020-11-07_17h22.16.146,torte-q,2020.1.3,Win32,60,13368,,,,,,,,,,,,,,,,,,,,,,,,,,,,,,,,,,,,,,,,,,,,
,,,,,,,,,,,,a,1.363305,Correct!,0,51,51,22,1,t2.png,t3.png,1,0.90855,19,female,2020-11-07_17h22.16.146,torte-q,2020.1.3,Win32,60,13368,,,,,,,,,,,,,,,,,,,,,,,,,,,,,,,,,,,,,,,,,,,,
,,,,,,,,,,,,a,1.02022,Correct!,0,52,52,116,1,t5.png,t4.png,1,0.90025,19,female,2020-11-07_17h22.16.146,torte-q,2020.1.3,Win32,60,13368,,,,,,,,,,,,,,,,,,,,,,,,,,,,,,,,,,,,,,,,,,,,
,,,,,,,,,,,,a,1.103035,Incorrect,0,53,53,23,1,t5.png,t4.png,1,0.90025,19,female,2020-11-07_17h22.16.146,torte-q,2020.1.3,Win32,60,13368,,,,,,,,,,,,,,,,,,,,,,,,,,,,,,,,,,,,,,,,,,,,
,,,,,,,,,,,,a,0.87105,Correct!,0,54,54,58,1,t5.png,t4.png,1,0.90025,19,female,2020-11-07_17h22.16.146,torte-q,2020.1.3,Win32,60,13368,,,,,,,,,,,,,,,,,,,,,,,,,,,,,,,,,,,,,,,,,,,,
,,,,,,,,,,,,l,1.18739,Correct!,0,55,55,33,1,t5.png,t1.png,4,9.55E-11,19,female,2020-11-07_17h22.16.146,torte-q,2020.1.3,Win32,60,13368,,,,,,,,,,,,,,,,,,,,,,,,,,,,,,,,,,,,,,,,,,,,
,,,,,,,,,,,,a,0.901355,Incorrect,0,56,56,93,1,t2.png,t4.png,2,0.059078,19,female,2020-11-07_17h22.16.146,torte-q,2020.1.3,Win32,60,13368,,,,,,,,,,,,,,,,,,,,,,,,,,,,,,,,,,,,,,,,,,,,
,,,,,,,,,,,,l,1.109255,Incorrect,0,57,57,63,1,t2.png,t3.png,1,0.909,19,female,2020-11-07_17h22.16.146,torte-q,2020.1.3,Win32,60,13368,,,,,,,,,,,,,,,,,,,,,,,,,,,,,,,,,,,,,,,,,,,,
,,,,,,,,,,,,l,1.09184,Correct!,0,58,58,91,1,t1.png,t4.png,3,0.0000131,19,female,2020-11-07_17h22.16.146,torte-q,2020.1.3,Win32,60,13368,,,,,,,,,,,,,,,,,,,,,,,,,,,,,,,,,,,,,,,,,,,,
,,,,,,,,,,,,l,1.74177,Correct!,0,59,59,72,1,t4.png,t2.png,2,0.059078,19,female,2020-11-07_17h22.16.146,torte-q,2020.1.3,Win32,60,13368,,,,,,,,,,,,,,,,,,,,,,,,,,,,,,,,,,,,,,,,,,,,
,,,,,,,,,,,,l,1.063425,Correct!,0,60,60,117,1,t1.png,t5.png,4,9.55E-11,19,female,2020-11-07_17h22.16.146,torte-q,2020.1.3,Win32,60,13368,,,,,,,,,,,,,,,,,,,,,,,,,,,,,,,,,,,,,,,,,,,,
,,,,,,,,,,,,l,1.52141,Incorrect,0,61,61,84,1,t1.png,t1.png,0,0.97829,19,female,2020-11-07_17h22.16.146,torte-q,2020.1.3,Win32,60,13368,,,,,,,,,,,,,,,,,,,,,,,,,,,,,,,,,,,,,,,,,,,,
,,,,,,,,,,,,l,1.08713,Incorrect,0,62,62,78,1,t1.png,t1.png,0,0.978,19,female,2020-11-07_17h22.16.146,torte-q,2020.1.3,Win32,60,13368,,,,,,,,,,,,,,,,,,,,,,,,,,,,,,,,,,,,,,,,,,,,
,,,,,,,,,,,,l,1.72431,Correct!,0,63,63,54,1,t1.png,t5.png,4,9.55E-11,19,female,2020-11-07_17h22.16.146,torte-q,2020.1.3,Win32,60,13368,,,,,,,,,,,,,,,,,,,,,,,,,,,,,,,,,,,,,,,,,,,,
,,,,,,,,,,,,l,1.470245,Correct!,0,64,64,12,1,t5.png,t1.png,4,9.55E-11,19,female,2020-11-07_17h22.16.146,torte-q,2020.1.3,Win32,60,13368,,,,,,,,,,,,,,,,,,,,,,,,,,,,,,,,,,,,,,,,,,,,
,,,,,,,,,,,,l,1.62636,Incorrect,0,65,65,66,1,t4.png,t5.png,1,0.9,19,female,2020-11-07_17h22.16.146,torte-q,2020.1.3,Win32,60,13368,,,,,,,,,,,,,,,,,,,,,,,,,,,,,,,,,,,,,,,,,,,,
,,,,,,,,,,,,a,1.121,Correct!,0,66,66,97,1,t5.png,t5.png,0,0.97829,19,female,2020-11-07_17h22.16.146,torte-q,2020.1.3,Win32,60,13368,,,,,,,,,,,,,,,,,,,,,,,,,,,,,,,,,,,,,,,,,,,,
,,,,,,,,,,,,a,1.170455,Correct!,0,67,67,34,1,t5.png,t4.png,1,0.9,19,female,2020-11-07_17h22.16.146,torte-q,2020.1.3,Win32,60,13368,,,,,,,,,,,,,,,,,,,,,,,,,,,,,,,,,,,,,,,,,,,,
,,,,,,,,,,,,l,1.1534,Incorrect,0,68,68,18,1,t4.png,t5.png,1,0.90025,19,female,2020-11-07_17h22.16.146,torte-q,2020.1.3,Win32,60,13368,,,,,,,,,,,,,,,,,,,,,,,,,,,,,,,,,,,,,,,,,,,,
,,,,,,,,,,,,l,1.17087,Correct!,0,69,69,53,1,t3.png,t1.png,2,0.056466,19,female,2020-11-07_17h22.16.146,torte-q,2020.1.3,Win32,60,13368,,,,,,,,,,,,,,,,,,,,,,,,,,,,,,,,,,,,,,,,,,,,
,,,,,,,,,,,,l,2.047055,Correct!,0,70,70,103,1,t3.png,t1.png,2,0.056466,19,female,2020-11-07_17h22.16.146,torte-q,2020.1.3,Win32,60,13368,,,,,,,,,,,,,,,,,,,,,,,,,,,,,,,,,,,,,,,,,,,,
,,,,,,,,,,,,l,1.03772,Correct!,0,71,71,111,1,t5.png,t1.png,4,9.55E-11,19,female,2020-11-07_17h22.16.146,torte-q,2020.1.3,Win32,60,13368,,,,,,,,,,,,,,,,,,,,,,,,,,,,,,,,,,,,,,,,,,,,
,,,,,,,,,,,,l,1.25733,Correct!,0,72,72,80,1,t1.png,t4.png,3,0.0000131,19,female,2020-11-07_17h22.16.146,torte-q,2020.1.3,Win32,60,13368,,,,,,,,,,,,,,,,,,,,,,,,,,,,,,,,,,,,,,,,,,,,
,,,,,,,,,,,,l,1.18587,Correct!,0,73,73,90,1,t1.png,t5.png,4,9.55E-11,19,female,2020-11-07_17h22.16.146,torte-q,2020.1.3,Win32,60,13368,,,,,,,,,,,,,,,,,,,,,,,,,,,,,,,,,,,,,,,,,,,,
,,,,,,,,,,,,l,1.059935,Correct!,0,74,74,38,1,t3.png,t1.png,2,0.056466,19,female,2020-11-07_17h22.16.146,torte-q,2020.1.3,Win32,60,13368,,,,,,,,,,,,,,,,,,,,,,,,,,,,,,,,,,,,,,,,,,,,
,,,,,,,,,,,,l,1.18356,Incorrect,0,75,75,44,1,t2.png,t3.png,1,0.909,19,female,2020-11-07_17h22.16.146,torte-q,2020.1.3,Win32,60,13368,,,,,,,,,,,,,,,,,,,,,,,,,,,,,,,,,,,,,,,,,,,,
,,,,,,,,,,,,l,1.437995,Correct!,0,76,76,19,1,t4.png,t2.png,2,0.059078,19,female,2020-11-07_17h22.16.146,torte-q,2020.1.3,Win32,60,13368,,,,,,,,,,,,,,,,,,,,,,,,,,,,,,,,,,,,,,,,,,,,
,,,,,,,,,,,,l,1.171665,Correct!,0,77,77,87,1,t5.png,t1.png,4,9.55E-11,19,female,2020-11-07_17h22.16.146,torte-q,2020.1.3,Win32,60,13368,,,,,,,,,,,,,,,,,,,,,,,,,,,,,,,,,,,,,,,,,,,,
,,,,,,,,,,,,l,1.914285,Incorrect,0,78,78,64,1,t1.png,t1.png,0,0.978,19,female,2020-11-07_17h22.16.146,torte-q,2020.1.3,Win32,60,13368,,,,,,,,,,,,,,,,,,,,,,,,,,,,,,,,,,,,,,,,,,,,
,,,,,,,,,,,,l,1.72305,Correct!,0,79,79,2,1,t3.png,t2.png,1,0.90855,19,female,2020-11-07_17h22.16.146,torte-q,2020.1.3,Win32,60,13368,,,,,,,,,,,,,,,,,,,,,,,,,,,,,,,,,,,,,,,,,,,,
,,,,,,,,,,,,l,1.50938,Correct!,0,80,80,40,1,t1.png,t5.png,4,9.55E-11,19,female,2020-11-07_17h22.16.146,torte-q,2020.1.3,Win32,60,13368,,,,,,,,,,,,,,,,,,,,,,,,,,,,,,,,,,,,,,,,,,,,
,,,,,,,,,,,,l,1.552965,Incorrect,0,81,81,32,1,t4.png,t5.png,1,0.90025,19,female,2020-11-07_17h22.16.146,torte-q,2020.1.3,Win32,60,13368,,,,,,,,,,,,,,,,,,,,,,,,,,,,,,,,,,,,,,,,,,,,
,,,,,,,,,,,,l,1.13769,Incorrect,0,82,82,15,1,t3.png,t2.png,1,0.90855,19,female,2020-11-07_17h22.16.146,torte-q,2020.1.3,Win32,60,13368,,,,,,,,,,,,,,,,,,,,,,,,,,,,,,,,,,,,,,,,,,,,
,,,,,,,,,,,,a,1.34367,Correct!,0,83,83,16,1,t5.png,t4.png,1,0.9,19,female,2020-11-07_17h22.16.146,torte-q,2020.1.3,Win32,60,13368,,,,,,,,,,,,,,,,,,,,,,,,,,,,,,,,,,,,,,,,,,,,
,,,,,,,,,,,,l,1.25696,Incorrect,0,84,84,65,1,t4.png,t5.png,1,0.90025,19,female,2020-11-07_17h22.16.146,torte-q,2020.1.3,Win32,60,13368,,,,,,,,,,,,,,,,,,,,,,,,,,,,,,,,,,,,,,,,,,,,
,,,,,,,,,,,,l,1.13722,Correct!,0,85,85,83,1,t3.png,t1.png,2,0.056466,19,female,2020-11-07_17h22.16.146,torte-q,2020.1.3,Win32,60,13368,,,,,,,,,,,,,,,,,,,,,,,,,,,,,,,,,,,,,,,,,,,,
,,,,,,,,,,,,a,1.36921,Incorrect,0,86,86,46,1,t4.png,t2.png,2,0.059078,19,female,2020-11-07_17h22.16.146,torte-q,2020.1.3,Win32,60,13368,,,,,,,,,,,,,,,,,,,,,,,,,,,,,,,,,,,,,,,,,,,,
,,,,,,,,,,,,l,1.07751,Incorrect,0,87,87,7,1,t4.png,t5.png,1,0.90025,19,female,2020-11-07_17h22.16.146,torte-q,2020.1.3,Win32,60,13368,,,,,,,,,,,,,,,,,,,,,,,,,,,,,,,,,,,,,,,,,,,,
,,,,,,,,,,,,l,1.2049,Correct!,0,88,88,43,1,t4.png,t2.png,2,0.059078,19,female,2020-11-07_17h22.16.146,torte-q,2020.1.3,Win32,60,13368,,,,,,,,,,,,,,,,,,,,,,,,,,,,,,,,,,,,,,,,,,,,
,,,,,,,,,,,,a,1.6374,Incorrect,0,89,89,5,1,t2.png,t4.png,2,0.059078,19,female,2020-11-07_17h22.16.146,torte-q,2020.1.3,Win32,60,13368,,,,,,,,,,,,,,,,,,,,,,,,,,,,,,,,,,,,,,,,,,,,
,,,,,,,,,,,,l,2.14648,Incorrect,0,90,90,92,1,t2.png,t3.png,1,0.909,19,female,2020-11-07_17h22.16.146,torte-q,2020.1.3,Win32,60,13368,,,,,,,,,,,,,,,,,,,,,,,,,,,,,,,,,,,,,,,,,,,,
,,,,,,,,,,,,a,2.16281,Correct!,0,91,91,95,1,t1.png,t1.png,0,0.978,19,female,2020-11-07_17h22.16.146,torte-q,2020.1.3,Win32,60,13368,,,,,,,,,,,,,,,,,,,,,,,,,,,,,,,,,,,,,,,,,,,,
,,,,,,,,,,,,l,1.64173,Correct!,0,92,92,51,1,t3.png,t1.png,2,0.056466,19,female,2020-11-07_17h22.16.146,torte-q,2020.1.3,Win32,60,13368,,,,,,,,,,,,,,,,,,,,,,,,,,,,,,,,,,,,,,,,,,,,
,,,,,,,,,,,,l,1.242685,Correct!,0,93,93,108,1,t5.png,t1.png,4,9.55E-11,19,female,2020-11-07_17h22.16.146,torte-q,2020.1.3,Win32,60,13368,,,,,,,,,,,,,,,,,,,,,,,,,,,,,,,,,,,,,,,,,,,,
,,,,,,,,,,,,,,Too slow :(,0,94,94,1,1,t2.png,t4.png,2,0.059078,19,female,2020-11-07_17h22.16.146,torte-q,2020.1.3,Win32,60,13368,,,,,,,,,,,,,,,,,,,,,,,,,,,,,,,,,,,,,,,,,,,,
,,,,,,,,,,,,l,1.2114,Correct!,0,95,95,98,1,t2.png,t4.png,2,0.0591,19,female,2020-11-07_17h22.16.146,torte-q,2020.1.3,Win32,60,13368,,,,,,,,,,,,,,,,,,,,,,,,,,,,,,,,,,,,,,,,,,,,
,,,,,,,,,,,,l,1.63665,Correct!,0,96,96,3,1,t1.png,t5.png,4,9.55E-11,19,female,2020-11-07_17h22.16.146,torte-q,2020.1.3,Win32,60,13368,,,,,,,,,,,,,,,,,,,,,,,,,,,,,,,,,,,,,,,,,,,,
,,,,,,,,,,,,a,1.537765,Correct!,0,97,97,13,1,t5.png,t5.png,0,0.97829,19,female,2020-11-07_17h22.16.146,torte-q,2020.1.3,Win32,60,13368,,,,,,,,,,,,,,,,,,,,,,,,,,,,,,,,,,,,,,,,,,,,
,,,,,,,,,,,,l,2.27004,Incorrect,0,98,98,104,1,t2.png,t3.png,1,0.90855,19,female,2020-11-07_17h22.16.146,torte-q,2020.1.3,Win32,60,13368,,,,,,,,,,,,,,,,,,,,,,,,,,,,,,,,,,,,,,,,,,,,
,,,,,,,,,,,,l,2.214495,Incorrect,0,99,99,9,1,t4.png,t5.png,1,0.9,19,female,2020-11-07_17h22.16.146,torte-q,2020.1.3,Win32,60,13368,,,,,,,,,,,,,,,,,,,,,,,,,,,,,,,,,,,,,,,,,,,,
,,,,,,,,,,,,l,1.460925,Correct!,0,100,100,61,1,t1.png,t4.png,3,0.0000131,19,female,2020-11-07_17h22.16.146,torte-q,2020.1.3,Win32,60,13368,,,,,,,,,,,,,,,,,,,,,,,,,,,,,,,,,,,,,,,,,,,,
,,,,,,,,,,,,a,1.353455,Correct!,0,101,101,96,1,t1.png,t1.png,0,0.97829,19,female,2020-11-07_17h22.16.146,torte-q,2020.1.3,Win32,60,13368,,,,,,,,,,,,,,,,,,,,,,,,,,,,,,,,,,,,,,,,,,,,
,,,,,,,,,,,,a,1.162855,Correct!,0,102,102,20,1,t2.png,t3.png,1,0.90855,19,female,2020-11-07_17h22.16.146,torte-q,2020.1.3,Win32,60,13368,,,,,,,,,,,,,,,,,,,,,,,,,,,,,,,,,,,,,,,,,,,,
,,,,,,,,,,,,a,1.237905,Correct!,0,103,103,10,1,t2.png,t3.png,1,0.90855,19,female,2020-11-07_17h22.16.146,torte-q,2020.1.3,Win32,60,13368,,,,,,,,,,,,,,,,,,,,,,,,,,,,,,,,,,,,,,,,,,,,
,,,,,,,,,,,,l,1.253275,Incorrect,0,104,104,41,1,t3.png,t2.png,1,0.90855,19,female,2020-11-07_17h22.16.146,torte-q,2020.1.3,Win32,60,13368,,,,,,,,,,,,,,,,,,,,,,,,,,,,,,,,,,,,,,,,,,,,
,,,,,,,,,,,,a,1.51218,Correct!,0,105,105,77,1,t1.png,t1.png,0,0.97829,19,female,2020-11-07_17h22.16.146,torte-q,2020.1.3,Win32,60,13368,,,,,,,,,,,,,,,,,,,,,,,,,,,,,,,,,,,,,,,,,,,,
,,,,,,,,,,,,l,2.105275,Correct!,0,106,106,6,1,t1.png,t4.png,3,0.0000131,19,female,2020-11-07_17h22.16.146,torte-q,2020.1.3,Win32,60,13368,,,,,,,,,,,,,,,,,,,,,,,,,,,,,,,,,,,,,,,,,,,,
,,,,,,,,,,,,a,1.153585,Correct!,0,107,107,107,1,t1.png,t1.png,0,0.978,19,female,2020-11-07_17h22.16.146,torte-q,2020.1.3,Win32,60,13368,,,,,,,,,,,,,,,,,,,,,,,,,,,,,,,,,,,,,,,,,,,,
,,,,,,,,,,,,l,1.620505,Correct!,0,108,108,89,1,t1.png,t4.png,3,0.0000131,19,female,2020-11-07_17h22.16.146,torte-q,2020.1.3,Win32,60,13368,,,,,,,,,,,,,,,,,,,,,,,,,,,,,,,,,,,,,,,,,,,,
,,,,,,,,,,,,l,1.51915,Correct!,0,109,109,119,1,t1.png,t5.png,4,9.55E-11,19,female,2020-11-07_17h22.16.146,torte-q,2020.1.3,Win32,60,13368,,,,,,,,,,,,,,,,,,,,,,,,,,,,,,,,,,,,,,,,,,,,
,,,,,,,,,,,,a,1.89458,Correct!,0,110,110,100,1,t4.png,t5.png,1,0.90025,19,female,2020-11-07_17h22.16.146,torte-q,2020.1.3,Win32,60,13368,,,,,,,,,,,,,,,,,,,,,,,,,,,,,,,,,,,,,,,,,,,,
,,,,,,,,,,,,a,1.2547,Correct!,0,111,111,118,1,t5.png,t5.png,0,0.978,19,female,2020-11-07_17h22.16.146,torte-q,2020.1.3,Win32,60,13368,,,,,,,,,,,,,,,,,,,,,,,,,,,,,,,,,,,,,,,,,,,,
,,,,,,,,,,,,a,1.694655,Correct!,0,112,112,49,1,t4.png,t5.png,1,0.9,19,female,2020-11-07_17h22.16.146,torte-q,2020.1.3,Win32,60,13368,,,,,,,,,,,,,,,,,,,,,,,,,,,,,,,,,,,,,,,,,,,,
,,,,,,,,,,,,l,1.494775,Correct!,0,113,113,35,1,t1.png,t4.png,3,0.0000131,19,female,2020-11-07_17h22.16.146,torte-q,2020.1.3,Win32,60,13368,,,,,,,,,,,,,,,,,,,,,,,,,,,,,,,,,,,,,,,,,,,,
,,,,,,,,,,,,a,1.209715,Correct!,0,114,114,28,1,t2.png,t3.png,1,0.909,19,female,2020-11-07_17h22.16.146,torte-q,2020.1.3,Win32,60,13368,,,,,,,,,,,,,,,,,,,,,,,,,,,,,,,,,,,,,,,,,,,,
,,,,,,,,,,,,l,1.627415,Correct!,0,115,115,82,1,t5.png,t1.png,4,9.55E-11,19,female,2020-11-07_17h22.16.146,torte-q,2020.1.3,Win32,60,13368,,,,,,,,,,,,,,,,,,,,,,,,,,,,,,,,,,,,,,,,,,,,
,,,,,,,,,,,,l,1.24326,Correct!,0,116,116,0,1,t5.png,t1.png,4,9.55E-11,19,female,2020-11-07_17h22.16.146,torte-q,2020.1.3,Win32,60,13368,,,,,,,,,,,,,,,,,,,,,,,,,,,,,,,,,,,,,,,,,,,,
,,,,,,,,,,,,a,1.229375,Incorrect,0,117,117,11,1,t1.png,t4.png,3,0.0000131,19,female,2020-11-07_17h22.16.146,torte-q,2020.1.3,Win32,60,13368,,,,,,,,,,,,,,,,,,,,,,,,,,,,,,,,,,,,,,,,,,,,
,,,,,,,,,,,,a,1.361765,Correct!,0,118,118,71,1,t5.png,t5.png,0,0.97829,19,female,2020-11-07_17h22.16.146,torte-q,2020.1.3,Win32,60,13368,,,,,,,,,,,,,,,,,,,,,,,,,,,,,,,,,,,,,,,,,,,,
,,,,,,,,,,,,l,1.61433,Incorrect,0,119,119,81,1,t1.png,t1.png,0,0.97829,19,female,2020-11-07_17h22.16.146,torte-q,2020.1.3,Win32,60,13368,,,,,,,,,,,,,,,,,,,,,,,,,,,,,,,,,,,,,,,,,,,,
,,,,,,,,,,,,l,2.23722,Correct!,,,,,,t1.png,t4.png,3,0.0000131,19,female,2020-11-07_17h22.16.146,torte-q,2020.1.3,Win32,60,13368,space,17.15428,return,10.96679,0,0,0,92,1,,,,,,,,,,,,,,,,,,,,,,,,,,,,,,,,,,,
,,,,,,,,,,,,l,1.25389,Correct!,,,,,,t3.png,t1.png,2,0.0565,19,female,2020-11-07_17h22.16.146,torte-q,2020.1.3,Win32,60,13368,,,,,0,1,1,31,1,,,,,,,,,,,,,,,,,,,,,,,,,,,,,,,,,,,
,,,,,,,,,,,,l,1.343085,Correct!,,,,,,t5.png,t3.png,2,0.056466,19,female,2020-11-07_17h22.16.146,torte-q,2020.1.3,Win32,60,13368,,,,,0,2,2,38,1,,,,,,,,,,,,,,,,,,,,,,,,,,,,,,,,,,,
,,,,,,,,,,,,a,1.30662,Correct!,,,,,,t1.png,t1.png,0,0.97829,19,female,2020-11-07_17h22.16.146,torte-q,2020.1.3,Win32,60,13368,,,,,0,3,3,78,1,,,,,,,,,,,,,,,,,,,,,,,,,,,,,,,,,,,
,,,,,,,,,,,,l,1.3769,Incorrect,,,,,,t4.png,t5.png,1,0.90025,19,female,2020-11-07_17h22.16.146,torte-q,2020.1.3,Win32,60,13368,,,,,0,4,4,58,1,,,,,,,,,,,,,,,,,,,,,,,,,,,,,,,,,,,
,,,,,,,,,,,,a,0.953715,Correct!,,,,,,t4.png,t4.png,0,0.98115,19,female,2020-11-07_17h22.16.146,torte-q,2020.1.3,Win32,60,13368,,,,,0,5,5,52,1,,,,,,,,,,,,,,,,,,,,,,,,,,,,,,,,,,,
,,,,,,,,,,,,a,1.421,Incorrect,,,,,,t2.png,t4.png,2,0.059078,19,female,2020-11-07_17h22.16.146,torte-q,2020.1.3,Win32,60,13368,,,,,0,6,6,11,1,,,,,,,,,,,,,,,,,,,,,,,,,,,,,,,,,,,
,,,,,,,,,,,,l,0.972535,Incorrect,,,,,,t3.png,t2.png,1,0.909,19,female,2020-11-07_17h22.16.146,torte-q,2020.1.3,Win32,60,13368,,,,,0,7,7,23,1,,,,,,,,,,,,,,,,,,,,,,,,,,,,,,,,,,,
,,,,,,,,,,,,a,1.789665,Correct!,,,,,,t2.png,t3.png,1,0.90855,19,female,2020-11-07_17h22.16.146,torte-q,2020.1.3,Win32,60,13368,,,,,0,8,8,10,1,,,,,,,,,,,,,,,,,,,,,,,,,,,,,,,,,,,
,,,,,,,,,,,,a,1.493865,Incorrect,,,,,,t5.png,t3.png,2,0.056466,19,female,2020-11-07_17h22.16.146,torte-q,2020.1.3,Win32,60,13368,,,,,0,9,9,56,1,,,,,,,,,,,,,,,,,,,,,,,,,,,,,,,,,,,
,,,,,,,,,,,,l,1.659825,Correct!,,,,,,t5.png,t2.png,3,0.0000131,19,female,2020-11-07_17h22.16.146,torte-q,2020.1.3,Win32,60,13368,,,,,0,10,10,98,1,,,,,,,,,,,,,,,,,,,,,,,,,,,,,,,,,,,
,,,,,,,,,,,,a,1.168835,Correct!,,,,,,t2.png,t2.png,0,0.981,19,female,2020-11-07_17h22.16.146,torte-q,2020.1.3,Win32,60,13368,,,,,0,11,11,101,1,,,,,,,,,,,,,,,,,,,,,,,,,,,,,,,,,,,
,,,,,,,,,,,,a,1.170375,Correct!,,,,,,t5.png,t5.png,0,0.97829,19,female,2020-11-07_17h22.16.146,torte-q,2020.1.3,Win32,60,13368,,,,,0,12,12,70,1,,,,,,,,,,,,,,,,,,,,,,,,,,,,,,,,,,,
,,,,,,,,,,,,l,0.922475,Correct!,,,,,,t3.png,t5.png,2,0.056466,19,female,2020-11-07_17h22.16.146,torte-q,2020.1.3,Win32,60,13368,,,,,0,13,13,14,1,,,,,,,,,,,,,,,,,,,,,,,,,,,,,,,,,,,
,,,,,,,,,,,,a,1.490855,Correct!,,,,,,t5.png,t4.png,1,0.9,19,female,2020-11-07_17h22.16.146,torte-q,2020.1.3,Win32,60,13368,,,,,0,14,14,49,1,,,,,,,,,,,,,,,,,,,,,,,,,,,,,,,,,,,
,,,,,,,,,,,,l,1.37057,Correct!,,,,,,t2.png,t5.png,3,0.0000131,19,female,2020-11-07_17h22.16.146,torte-q,2020.1.3,Win32,60,13368,,,,,0,15,15,40,1,,,,,,,,,,,,,,,,,,,,,,,,,,,,,,,,,,,
,,,,,,,,,,,,a,1.104095,Correct!,,,,,,t4.png,t4.png,0,0.98115,19,female,2020-11-07_17h22.16.146,torte-q,2020.1.3,Win32,60,13368,,,,,0,16,16,80,1,,,,,,,,,,,,,,,,,,,,,,,,,,,,,,,,,,,
,,,,,,,,,,,,l,1.304365,Correct!,,,,,,t1.png,t4.png,3,0.0000131,19,female,2020-11-07_17h22.16.146,torte-q,2020.1.3,Win32,60,13368,,,,,0,17,17,81,1,,,,,,,,,,,,,,,,,,,,,,,,,,,,,,,,,,,
,,,,,,,,,,,,l,1.444685,Correct!,,,,,,t1.png,t4.png,3,0.0000131,19,female,2020-11-07_17h22.16.146,torte-q,2020.1.3,Win32,60,13368,,,,,0,18,18,107,1,,,,,,,,,,,,,,,,,,,,,,,,,,,,,,,,,,,
,,,,,,,,,,,,a,1.22805,Incorrect,,,,,,t3.png,t5.png,2,0.056466,19,female,2020-11-07_17h22.16.146,torte-q,2020.1.3,Win32,60,13368,,,,,0,19,19,6,1,,,,,,,,,,,,,,,,,,,,,,,,,,,,,,,,,,,
,,,,,,,,,,,,l,1.520325,Correct!,,,,,,t1.png,t5.png,4,9.55E-11,19,female,2020-11-07_17h22.16.146,torte-q,2020.1.3,Win32,60,13368,,,,,0,20,20,55,1,,,,,,,,,,,,,,,,,,,,,,,,,,,,,,,,,,,
,,,,,,,,,,,,l,1.57667,Correct!,,,,,,t3.png,t5.png,2,0.056466,19,female,2020-11-07_17h22.16.146,torte-q,2020.1.3,Win32,60,13368,,,,,0,21,21,44,1,,,,,,,,,,,,,,,,,,,,,,,,,,,,,,,,,,,
,,,,,,,,,,,,l,1.903825,Correct!,,,,,,t5.png,t2.png,3,0.0000131,19,female,2020-11-07_17h22.16.146,torte-q,2020.1.3,Win32,60,13368,,,,,0,22,22,116,1,,,,,,,,,,,,,,,,,,,,,,,,,,,,,,,,,,,
,,,,,,,,,,,,l,1.473155,Correct!,,,,,,t4.png,t1.png,3,0.0000131,19,female,2020-11-07_17h22.16.146,torte-q,2020.1.3,Win32,60,13368,,,,,0,23,23,61,1,,,,,,,,,,,,,,,,,,,,,,,,,,,,,,,,,,,
,,,,,,,,,,,,a,1.545785,Correct!,,,,,,t3.png,t4.png,1,0.909,19,female,2020-11-07_17h22.16.146,torte-q,2020.1.3,Win32,60,13368,,,,,0,24,24,89,1,,,,,,,,,,,,,,,,,,,,,,,,,,,,,,,,,,,
,,,,,,,,,,,,l,1.476375,Correct!,,,,,,t5.png,t2.png,3,0.0000131,19,female,2020-11-07_17h22.16.146,torte-q,2020.1.3,Win32,60,13368,,,,,0,25,25,51,1,,,,,,,,,,,,,,,,,,,,,,,,,,,,,,,,,,,
,,,,,,,,,,,,l,1.470745,Correct!,,,,,,t5.png,t3.png,2,0.056466,19,female,2020-11-07_17h22.16.146,torte-q,2020.1.3,Win32,60,13368,,,,,0,26,26,114,1,,,,,,,,,,,,,,,,,,,,,,,,,,,,,,,,,,,
,,,,,,,,,,,,a,1.370475,Correct!,,,,,,t2.png,t2.png,0,0.98115,19,female,2020-11-07_17h22.16.146,torte-q,2020.1.3,Win32,60,13368,,,,,0,27,27,57,1,,,,,,,,,,,,,,,,,,,,,,,,,,,,,,,,,,,
,,,,,,,,,,,,a,1.436845,Correct!,,,,,,t5.png,t4.png,1,0.9,19,female,2020-11-07_17h22.16.146,torte-q,2020.1.3,Win32,60,13368,,,,,0,28,28,76,1,,,,,,,,,,,,,,,,,,,,,,,,,,,,,,,,,,,
,,,,,,,,,,,,l,1.84066,Correct!,,,,,,t1.png,t5.png,4,9.55E-11,19,female,2020-11-07_17h22.16.146,torte-q,2020.1.3,Win32,60,13368,,,,,0,29,29,85,1,,,,,,,,,,,,,,,,,,,,,,,,,,,,,,,,,,,
,,,,,,,,,,,,l,1.66713,Incorrect,,,,,,t2.png,t1.png,1,0.90025,19,female,2020-11-07_17h22.16.146,torte-q,2020.1.3,Win32,60,13368,,,,,0,30,30,62,1,,,,,,,,,,,,,,,,,,,,,,,,,,,,,,,,,,,
,,,,,,,,,,,,l,1.547255,Incorrect,,,,,,t2.png,t1.png,1,0.9,19,female,2020-11-07_17h22.16.146,torte-q,2020.1.3,Win32,60,13368,,,,,0,31,31,118,1,,,,,,,,,,,,,,,,,,,,,,,,,,,,,,,,,,,
,,,,,,,,,,,,a,1.59002,Correct!,,,,,,t1.png,t1.png,0,0.978,19,female,2020-11-07_17h22.16.146,torte-q,2020.1.3,Win32,60,13368,,,,,0,32,32,54,1,,,,,,,,,,,,,,,,,,,,,,,,,,,,,,,,,,,
,,,,,,,,,,,,l,1.47038,Incorrect,,,,,,t2.png,t3.png,1,0.90855,19,female,2020-11-07_17h22.16.146,torte-q,2020.1.3,Win32,60,13368,,,,,0,33,33,65,1,,,,,,,,,,,,,,,,,,,,,,,,,,,,,,,,,,,
,,,,,,,,,,,,l,1.18739,Correct!,,,,,,t3.png,t1.png,2,0.056466,19,female,2020-11-07_17h22.16.146,torte-q,2020.1.3,Win32,60,13368,,,,,0,34,34,64,1,,,,,,,,,,,,,,,,,,,,,,,,,,,,,,,,,,,
,,,,,,,,,,,,l,1.190885,Correct!,,,,,,t5.png,t1.png,4,9.55E-11,19,female,2020-11-07_17h22.16.146,torte-q,2020.1.3,Win32,60,13368,,,,,0,35,35,102,1,,,,,,,,,,,,,,,,,,,,,,,,,,,,,,,,,,,
,,,,,,,,,,,,l,1.804185,Incorrect,,,,,,t1.png,t2.png,1,0.90025,19,female,2020-11-07_17h22.16.146,torte-q,2020.1.3,Win32,60,13368,,,,,0,36,36,72,1,,,,,,,,,,,,,,,,,,,,,,,,,,,,,,,,,,,
,,,,,,,,,,,,l,1.305215,Correct!,,,,,,t3.png,t5.png,2,0.0565,19,female,2020-11-07_17h22.16.146,torte-q,2020.1.3,Win32,60,13368,,,,,0,37,37,83,1,,,,,,,,,,,,,,,,,,,,,,,,,,,,,,,,,,,
,,,,,,,,,,,,l,1.25194,Correct!,,,,,,t1.png,t3.png,2,0.056466,19,female,2020-11-07_17h22.16.146,torte-q,2020.1.3,Win32,60,13368,,,,,0,38,38,99,1,,,,,,,,,,,,,,,,,,,,,,,,,,,,,,,,,,,
,,,,,,,,,,,,l,1.139875,Correct!,,,,,,t1.png,t3.png,2,0.056466,19,female,2020-11-07_17h22.16.146,torte-q,2020.1.3,Win32,60,13368,,,,,0,39,39,87,1,,,,,,,,,,,,,,,,,,,,,,,,,,,,,,,,,,,
,,,,,,,,,,,,a,1.153875,Correct!,,,,,,t2.png,t2.png,0,0.98115,19,female,2020-11-07_17h22.16.146,torte-q,2020.1.3,Win32,60,13368,,,,,0,40,40,2,1,,,,,,,,,,,,,,,,,,,,,,,,,,,,,,,,,,,
,,,,,,,,,,,,l,1.54164,Correct!,,,,,,t3.png,t1.png,2,0.056466,19,female,2020-11-07_17h22.16.146,torte-q,2020.1.3,Win32,60,13368,,,,,0,41,41,32,1,,,,,,,,,,,,,,,,,,,,,,,,,,,,,,,,,,,
,,,,,,,,,,,,l,2.05472,Correct!,,,,,,t2.png,t5.png,3,0.0000131,19,female,2020-11-07_17h22.16.146,torte-q,2020.1.3,Win32,60,13368,,,,,0,42,42,104,1,,,,,,,,,,,,,,,,,,,,,,,,,,,,,,,,,,,
,,,,,,,,,,,,a,1.34119,Incorrect,,,,,,t2.png,t5.png,3,0.0000131,19,female,2020-11-07_17h22.16.146,torte-q,2020.1.3,Win32,60,13368,,,,,0,43,43,95,1,,,,,,,,,,,,,,,,,,,,,,,,,,,,,,,,,,,
,,,,,,,,,,,,l,1.904655,Correct!,,,,,,t4.png,t1.png,3,0.0000131,19,female,2020-11-07_17h22.16.146,torte-q,2020.1.3,Win32,60,13368,,,,,0,44,44,42,1,,,,,,,,,,,,,,,,,,,,,,,,,,,,,,,,,,,
,,,,,,,,,,,,a,1.68756,Correct!,,,,,,t5.png,t4.png,1,0.90025,19,female,2020-11-07_17h22.16.146,torte-q,2020.1.3,Win32,60,13368,,,,,0,45,45,26,1,,,,,,,,,,,,,,,,,,,,,,,,,,,,,,,,,,,
,,,,,,,,,,,,l,1.27092,Incorrect,,,,,,t1.png,t2.png,1,0.90025,19,female,2020-11-07_17h22.16.146,torte-q,2020.1.3,Win32,60,13368,,,,,0,46,46,112,1,,,,,,,,,,,,,,,,,,,,,,,,,,,,,,,,,,,
,,,,,,,,,,,,l,1.62074,Correct!,,,,,,t2.png,t5.png,3,0.0000131,19,female,2020-11-07_17h22.16.146,torte-q,2020.1.3,Win32,60,13368,,,,,0,47,47,8,1,,,,,,,,,,,,,,,,,,,,,,,,,,,,,,,,,,,
,,,,,,,,,,,,l,1.471135,Correct!,,,,,,t1.png,t4.png,3,0.0000131,19,female,2020-11-07_17h22.16.146,torte-q,2020.1.3,Win32,60,13368,,,,,0,48,48,50,1,,,,,,,,,,,,,,,,,,,,,,,,,,,,,,,,,,,
,,,,,,,,,,,,l,1.521965,Incorrect,,,,,,t2.png,t1.png,1,0.90025,19,female,2020-11-07_17h22.16.146,torte-q,2020.1.3,Win32,60,13368,,,,,0,49,49,5,1,,,,,,,,,,,,,,,,,,,,,,,,,,,,,,,,,,,
,,,,,,,,,,,,l,1.26209,Correct!,,,,,,t4.png,t2.png,2,0.059078,19,female,2020-11-07_17h22.16.146,torte-q,2020.1.3,Win32,60,13368,,,,,0,50,50,110,1,,,,,,,,,,,,,,,,,,,,,,,,,,,,,,,,,,,
,,,,,,,,,,,,a,1.186825,Correct!,,,,,,t4.png,t4.png,0,0.98115,19,female,2020-11-07_17h22.16.146,torte-q,2020.1.3,Win32,60,13368,,,,,0,51,51,21,1,,,,,,,,,,,,,,,,,,,,,,,,,,,,,,,,,,,
,,,,,,,,,,,,l,1.31856,Correct!,,,,,,t5.png,t1.png,4,9.55E-11,19,female,2020-11-07_17h22.16.146,torte-q,2020.1.3,Win32,60,13368,,,,,0,52,52,22,1,,,,,,,,,,,,,,,,,,,,,,,,,,,,,,,,,,,
,,,,,,,,,,,,l,1.20373,Correct!,,,,,,t1.png,t5.png,4,9.55E-11,19,female,2020-11-07_17h22.16.146,torte-q,2020.1.3,Win32,60,13368,,,,,0,53,53,16,1,,,,,,,,,,,,,,,,,,,,,,,,,,,,,,,,,,,
,,,,,,,,,,,,l,0.995975,Incorrect,,,,,,t2.png,t1.png,1,0.90025,19,female,2020-11-07_17h22.16.146,torte-q,2020.1.3,Win32,60,13368,,,,,0,54,54,4,1,,,,,,,,,,,,,,,,,,,,,,,,,,,,,,,,,,,
,,,,,,,,,,,,l,1.17119,Incorrect,,,,,,t4.png,t4.png,0,0.98115,19,female,2020-11-07_17h22.16.146,torte-q,2020.1.3,Win32,60,13368,,,,,0,55,55,90,1,,,,,,,,,,,,,,,,,,,,,,,,,,,,,,,,,,,
,,,,,,,,,,,,l,1.28713,Incorrect,,,,,,t3.png,t4.png,1,0.909,19,female,2020-11-07_17h22.16.146,torte-q,2020.1.3,Win32,60,13368,,,,,0,56,56,106,1,,,,,,,,,,,,,,,,,,,,,,,,,,,,,,,,,,,
,,,,,,,,,,,,l,1.46681,Correct!,,,,,,t1.png,t5.png,4,9.55E-11,19,female,2020-11-07_17h22.16.146,torte-q,2020.1.3,Win32,60,13368,,,,,0,57,57,12,1,,,,,,,,,,,,,,,,,,,,,,,,,,,,,,,,,,,
,,,,,,,,,,,,l,1.154725,Correct!,,,,,,t1.png,t4.png,3,0.0000131,19,female,2020-11-07_17h22.16.146,torte-q,2020.1.3,Win32,60,13368,,,,,0,58,58,17,1,,,,,,,,,,,,,,,,,,,,,,,,,,,,,,,,,,,
,,,,,,,,,,,,a,1.58572,Correct!,,,,,,t2.png,t3.png,1,0.90855,19,female,2020-11-07_17h22.16.146,torte-q,2020.1.3,Win32,60,13368,,,,,0,59,59,68,1,,,,,,,,,,,,,,,,,,,,,,,,,,,,,,,,,,,
,,,,,,,,,,,,l,1.12249,Correct!,,,,,,t5.png,t1.png,4,9.55E-11,19,female,2020-11-07_17h22.16.146,torte-q,2020.1.3,Win32,60,13368,,,,,0,60,60,71,1,,,,,,,,,,,,,,,,,,,,,,,,,,,,,,,,,,,
,,,,,,,,,,,,a,2.320405,Correct!,,,,,,t5.png,t5.png,0,0.97829,19,female,2020-11-07_17h22.16.146,torte-q,2020.1.3,Win32,60,13368,,,,,0,61,61,94,1,,,,,,,,,,,,,,,,,,,,,,,,,,,,,,,,,,,
,,,,,,,,,,,,,,Too slow :(,,,,,,t3.png,t1.png,2,0.056466,19,female,2020-11-07_17h22.16.146,torte-q,2020.1.3,Win32,60,13368,,,,,0,62,62,0,1,,,,,,,,,,,,,,,,,,,,,,,,,,,,,,,,,,,
,,,,,,,,,,,,l,1.37435,Incorrect,,,,,,t1.png,t1.png,0,0.97829,19,female,2020-11-07_17h22.16.146,torte-q,2020.1.3,Win32,60,13368,,,,,0,63,63,67,1,,,,,,,,,,,,,,,,,,,,,,,,,,,,,,,,,,,
,,,,,,,,,,,,a,1.37348,Incorrect,,,,,,t5.png,t3.png,2,0.056466,19,female,2020-11-07_17h22.16.146,torte-q,2020.1.3,Win32,60,13368,,,,,0,64,64,108,1,,,,,,,,,,,,,,,,,,,,,,,,,,,,,,,,,,,
,,,,,,,,,,,,,,Too slow :(,,,,,,t2.png,t5.png,3,0.0000131,19,female,2020-11-07_17h22.16.146,torte-q,2020.1.3,Win32,60,13368,,,,,0,65,65,66,1,,,,,,,,,,,,,,,,,,,,,,,,,,,,,,,,,,,
,,,,,,,,,,,,l,1.3008,Incorrect,,,,,,t3.png,t4.png,1,0.90855,19,female,2020-11-07_17h22.16.146,torte-q,2020.1.3,Win32,60,13368,,,,,0,66,66,84,1,,,,,,,,,,,,,,,,,,,,,,,,,,,,,,,,,,,
,,,,,,,,,,,,l,1.627605,Incorrect,,,,,,t2.png,t3.png,1,0.90855,19,female,2020-11-07_17h22.16.146,torte-q,2020.1.3,Win32,60,13368,,,,,0,67,67,111,1,,,,,,,,,,,,,,,,,,,,,,,,,,,,,,,,,,,
,,,,,,,,,,,,l,1.453985,Incorrect,,,,,,t1.png,t2.png,1,0.90025,19,female,2020-11-07_17h22.16.146,torte-q,2020.1.3,Win32,60,13368,,,,,0,68,68,105,1,,,,,,,,,,,,,,,,,,,,,,,,,,,,,,,,,,,
,,,,,,,,,,,,l,1.19721,Correct!,,,,,,t5.png,t1.png,4,9.55E-11,19,female,2020-11-07_17h22.16.146,torte-q,2020.1.3,Win32,60,13368,,,,,0,69,69,43,1,,,,,,,,,,,,,,,,,,,,,,,,,,,,,,,,,,,
,,,,,,,,,,,,a,1.155015,Incorrect,,,,,,t5.png,t3.png,2,0.0565,19,female,2020-11-07_17h22.16.146,torte-q,2020.1.3,Win32,60,13368,,,,,0,70,70,39,1,,,,,,,,,,,,,,,,,,,,,,,,,,,,,,,,,,,
,,,,,,,,,,,,l,1.221365,Correct!,,,,,,t4.png,t2.png,2,0.059078,19,female,2020-11-07_17h22.16.146,torte-q,2020.1.3,Win32,60,13368,,,,,0,71,71,88,1,,,,,,,,,,,,,,,,,,,,,,,,,,,,,,,,,,,
,,,,,,,,,,,,l,1.23755,Correct!,,,,,,t5.png,t1.png,4,9.55E-11,19,female,2020-11-07_17h22.16.146,torte-q,2020.1.3,Win32,60,13368,,,,,0,72,72,100,1,,,,,,,,,,,,,,,,,,,,,,,,,,,,,,,,,,,
,,,,,,,,,,,,a,1.305335,Correct!,,,,,,t4.png,t5.png,1,0.9,19,female,2020-11-07_17h22.16.146,torte-q,2020.1.3,Win32,60,13368,,,,,0,73,73,115,1,,,,,,,,,,,,,,,,,,,,,,,,,,,,,,,,,,,
,,,,,,,,,,,,a,1.521995,Correct!,,,,,,t4.png,t5.png,1,0.90025,19,female,2020-11-07_17h22.16.146,torte-q,2020.1.3,Win32,60,13368,,,,,0,74,74,103,1,,,,,,,,,,,,,,,,,,,,,,,,,,,,,,,,,,,
,,,,,,,,,,,,l,1.57308,Incorrect,,,,,,t5.png,t4.png,1,0.90025,19,female,2020-11-07_17h22.16.146,torte-q,2020.1.3,Win32,60,13368,,,,,0,75,75,27,1,,,,,,,,,,,,,,,,,,,,,,,,,,,,,,,,,,,
,,,,,,,,,,,,a,1.5898,Correct!,,,,,,t4.png,t3.png,1,0.90855,19,female,2020-11-07_17h22.16.146,torte-q,2020.1.3,Win32,60,13368,,,,,0,76,76,35,1,,,,,,,,,,,,,,,,,,,,,,,,,,,,,,,,,,,
,,,,,,,,,,,,l,1.470205,Correct!,,,,,,t3.png,t2.png,1,0.90855,19,female,2020-11-07_17h22.16.146,torte-q,2020.1.3,Win32,60,13368,,,,,0,77,77,18,1,,,,,,,,,,,,,,,,,,,,,,,,,,,,,,,,,,,
,,,,,,,,,,,,l,1.56525,Incorrect,,,,,,t2.png,t3.png,1,0.909,19,female,2020-11-07_17h22.16.146,torte-q,2020.1.3,Win32,60,13368,,,,,0,78,78,74,1,,,,,,,,,,,,,,,,,,,,,,,,,,,,,,,,,,,
,,,,,,,,,,,,l,1.563605,Incorrect,,,,,,t4.png,t5.png,1,0.90025,19,female,2020-11-07_17h22.16.146,torte-q,2020.1.3,Win32,60,13368,,,,,0,79,79,47,1,,,,,,,,,,,,,,,,,,,,,,,,,,,,,,,,,,,
,,,,,,,,,,,,l,1.08131,Correct!,,,,,,t4.png,t2.png,2,0.059078,19,female,2020-11-07_17h22.16.146,torte-q,2020.1.3,Win32,60,13368,,,,,0,80,80,109,1,,,,,,,,,,,,,,,,,,,,,,,,,,,,,,,,,,,
,,,,,,,,,,,,a,1.563765,Correct!,,,,,,t4.png,t4.png,0,0.98115,19,female,2020-11-07_17h22.16.146,torte-q,2020.1.3,Win32,60,13368,,,,,0,81,81,79,1,,,,,,,,,,,,,,,,,,,,,,,,,,,,,,,,,,,
,,,,,,,,,,,,l,1.151425,Correct!,,,,,,t1.png,t3.png,2,0.056466,19,female,2020-11-07_17h22.16.146,torte-q,2020.1.3,Win32,60,13368,,,,,0,82,82,63,1,,,,,,,,,,,,,,,,,,,,,,,,,,,,,,,,,,,
,,,,,,,,,,,,l,1.01266,Incorrect,,,,,,t3.png,t2.png,1,0.90855,19,female,2020-11-07_17h22.16.146,torte-q,2020.1.3,Win32,60,13368,,,,,0,83,83,97,1,,,,,,,,,,,,,,,,,,,,,,,,,,,,,,,,,,,
,,,,,,,,,,,,l,1.268775,Correct!,,,,,,t4.png,t2.png,2,0.059078,19,female,2020-11-07_17h22.16.146,torte-q,2020.1.3,Win32,60,13368,,,,,0,84,84,86,1,,,,,,,,,,,,,,,,,,,,,,,,,,,,,,,,,,,
,,,,,,,,,,,,l,0.7805,Correct!,,,,,,t5.png,t2.png,3,0.0000131,19,female,2020-11-07_17h22.16.146,torte-q,2020.1.3,Win32,60,13368,,,,,0,85,85,119,1,,,,,,,,,,,,,,,,,,,,,,,,,,,,,,,,,,,
,,,,,,,,,,,,l,1.65668,Correct!,,,,,,t2.png,t4.png,2,0.0591,19,female,2020-11-07_17h22.16.146,torte-q,2020.1.3,Win32,60,13368,,,,,0,86,86,15,1,,,,,,,,,,,,,,,,,,,,,,,,,,,,,,,,,,,
,,,,,,,,,,,,l,2.19721,Correct!,,,,,,t2.png,t4.png,2,0.059078,19,female,2020-11-07_17h22.16.146,torte-q,2020.1.3,Win32,60,13368,,,,,0,87,87,77,1,,,,,,,,,,,,,,,,,,,,,,,,,,,,,,,,,,,
,,,,,,,,,,,,a,1.49776,Correct!,,,,,,t2.png,t2.png,0,0.98115,19,female,2020-11-07_17h22.16.146,torte-q,2020.1.3,Win32,60,13368,,,,,0,88,88,59,1,,,,,,,,,,,,,,,,,,,,,,,,,,,,,,,,,,,
,,,,,,,,,,,,a,1.43047,Correct!,,,,,,t5.png,t5.png,0,0.97829,19,female,2020-11-07_17h22.16.146,torte-q,2020.1.3,Win32,60,13368,,,,,0,89,89,73,1,,,,,,,,,,,,,,,,,,,,,,,,,,,,,,,,,,,
,,,,,,,,,,,,l,1.569375,Incorrect,,,,,,t1.png,t2.png,1,0.9,19,female,2020-11-07_17h22.16.146,torte-q,2020.1.3,Win32,60,13368,,,,,0,90,90,1,1,,,,,,,,,,,,,,,,,,,,,,,,,,,,,,,,,,,
,,,,,,,,,,,,l,1.457475,Correct!,,,,,,t3.png,t5.png,2,0.0565,19,female,2020-11-07_17h22.16.146,torte-q,2020.1.3,Win32,60,13368,,,,,0,91,91,30,1,,,,,,,,,,,,,,,,,,,,,,,,,,,,,,,,,,,
,,,,,,,,,,,,l,1.350585,Incorrect,,,,,,t1.png,t2.png,1,0.90025,19,female,2020-11-07_17h22.16.146,torte-q,2020.1.3,Win32,60,13368,,,,,0,92,92,33,1,,,,,,,,,,,,,,,,,,,,,,,,,,,,,,,,,,,
,,,,,,,,,,,,a,1.54813,Incorrect,,,,,,t2.png,t4.png,2,0.059078,19,female,2020-11-07_17h22.16.146,torte-q,2020.1.3,Win32,60,13368,,,,,0,93,93,24,1,,,,,,,,,,,,,,,,,,,,,,,,,,,,,,,,,,,
,,,,,,,,,,,,l,1.890125,Correct!,,,,,,t3.png,t2.png,1,0.90855,19,female,2020-11-07_17h22.16.146,torte-q,2020.1.3,Win32,60,13368,,,,,0,94,94,53,1,,,,,,,,,,,,,,,,,,,,,,,,,,,,,,,,,,,
,,,,,,,,,,,,l,1.06427,Correct!,,,,,,t4.png,t1.png,3,0.0000131,19,female,2020-11-07_17h22.16.146,torte-q,2020.1.3,Win32,60,13368,,,,,0,95,95,48,1,,,,,,,,,,,,,,,,,,,,,,,,,,,,,,,,,,,
,,,,,,,,,,,,l,1.150245,Correct!,,,,,,t1.png,t5.png,4,9.55E-11,19,female,2020-11-07_17h22.16.146,torte-q,2020.1.3,Win32,60,13368,,,,,0,96,96,41,1,,,,,,,,,,,,,,,,,,,,,,,,,,,,,,,,,,,
,,,,,,,,,,,,l,1.336725,Incorrect,,,,,,t4.png,t3.png,1,0.90855,19,female,2020-11-07_17h22.16.146,torte-q,2020.1.3,Win32,60,13368,,,,,0,97,97,45,1,,,,,,,,,,,,,,,,,,,,,,,,,,,,,,,,,,,
,,,,,,,,,,,,a,1.701565,Correct!,,,,,,t4.png,t3.png,1,0.90855,19,female,2020-11-07_17h22.16.146,torte-q,2020.1.3,Win32,60,13368,,,,,0,98,98,75,1,,,,,,,,,,,,,,,,,,,,,,,,,,,,,,,,,,,
,,,,,,,,,,,,l,1.254205,Incorrect,,,,,,t4.png,t5.png,1,0.90025,19,female,2020-11-07_17h22.16.146,torte-q,2020.1.3,Win32,60,13368,,,,,0,99,99,113,1,,,,,,,,,,,,,,,,,,,,,,,,,,,,,,,,,,,
,,,,,,,,,,,,a,1.621885,Incorrect,,,,,,t5.png,t4.png,1,0.90025,19,female,2020-11-07_17h22.16.146,torte-q,2020.1.3,Win32,60,13368,,,,,0,100,100,34,1,,,,,,,,,,,,,,,,,,,,,,,,,,,,,,,,,,,
,,,,,,,,,,,,l,1.410565,Incorrect,,,,,,t3.png,t4.png,1,0.909,19,female,2020-11-07_17h22.16.146,torte-q,2020.1.3,Win32,60,13368,,,,,0,101,101,82,1,,,,,,,,,,,,,,,,,,,,,,,,,,,,,,,,,,,
,,,,,,,,,,,,a,1.80455,Incorrect,,,,,,t2.png,t2.png,0,0.98115,19,female,2020-11-07_17h22.16.146,torte-q,2020.1.3,Win32,60,13368,,,,,0,102,102,7,1,,,,,,,,,,,,,,,,,,,,,,,,,,,,,,,,,,,
,,,,,,,,,,,,l,1.260035,Incorrect,,,,,,t4.png,t3.png,1,0.909,19,female,2020-11-07_17h22.16.146,torte-q,2020.1.3,Win32,60,13368,,,,,0,103,103,20,1,,,,,,,,,,,,,,,,,,,,,,,,,,,,,,,,,,,
,,,,,,,,,,,,l,1.205765,Incorrect,,,,,,t3.png,t4.png,1,0.90855,19,female,2020-11-07_17h22.16.146,torte-q,2020.1.3,Win32,60,13368,,,,,0,104,104,96,1,,,,,,,,,,,,,,,,,,,,,,,,,,,,,,,,,,,
,,,,,,,,,,,,l,1.171795,Correct!,,,,,,t1.png,t1.png,0,0.978,19,female,2020-11-07_17h22.16.146,torte-q,2020.1.3,Win32,60,13368,,,,,0,105,105,28,1,,,,,,,,,,,,,,,,,,,,,,,,,,,,,,,,,,,
,,,,,,,,,,,,l,1.2298,Correct!,,,,,,t4.png,t1.png,3,0.0000131,19,female,2020-11-07_17h22.16.146,torte-q,2020.1.3,Win32,60,13368,,,,,0,106,106,93,1,,,,,,,,,,,,,,,,,,,,,,,,,,,,,,,,,,,
,,,,,,,,,,,,l,1.156595,Incorrect,,,,,,t3.png,t2.png,1,0.909,19,female,2020-11-07_17h22.16.146,torte-q,2020.1.3,Win32,60,13368,,,,,0,107,107,3,1,,,,,,,,,,,,,,,,,,,,,,,,,,,,,,,,,,,
,,,,,,,,,,,,a,1.817535,Correct!,,,,,,t5.png,t5.png,0,0.978,19,female,2020-11-07_17h22.16.146,torte-q,2020.1.3,Win32,60,13368,,,,,0,108,108,117,1,,,,,,,,,,,,,,,,,,,,,,,,,,,,,,,,,,,
,,,,,,,,,,,,l,1.618415,Correct!,,,,,,t1.png,t3.png,2,0.056466,19,female,2020-11-07_17h22.16.146,torte-q,2020.1.3,Win32,60,13368,,,,,0,109,109,69,1,,,,,,,,,,,,,,,,,,,,,,,,,,,,,,,,,,,
,,,,,,,,,,,,l,1.80502,Correct!,,,,,,t4.png,t1.png,3,0.0000131,19,female,2020-11-07_17h22.16.146,torte-q,2020.1.3,Win32,60,13368,,,,,0,110,110,13,1,,,,,,,,,,,,,,,,,,,,,,,,,,,,,,,,,,,
,,,,,,,,,,,,l,1.228535,Correct!,,,,,,t5.png,t2.png,3,0.0000131,19,female,2020-11-07_17h22.16.146,torte-q,2020.1.3,Win32,60,13368,,,,,0,111,111,91,1,,,,,,,,,,,,,,,,,,,,,,,,,,,,,,,,,,,
,,,,,,,,,,,,,,Too slow :(,,,,,,t2.png,t4.png,2,0.059078,19,female,2020-11-07_17h22.16.146,torte-q,2020.1.3,Win32,60,13368,,,,,0,112,112,37,1,,,,,,,,,,,,,,,,,,,,,,,,,,,,,,,,,,,
,,,,,,,,,,,,l,1.26207,Correct!,,,,,,t4.png,t2.png,2,0.0591,19,female,2020-11-07_17h22.16.146,torte-q,2020.1.3,Win32,60,13368,,,,,0,113,113,36,1,,,,,,,,,,,,,,,,,,,,,,,,,,,,,,,,,,,
,,,,,,,,,,,,a,1.626925,Correct!,,,,,,t5.png,t5.png,0,0.97829,19,female,2020-11-07_17h22.16.146,torte-q,2020.1.3,Win32,60,13368,,,,,0,114,114,25,1,,,,,,,,,,,,,,,,,,,,,,,,,,,,,,,,,,,
,,,,,,,,,,,,a,1.48707,Correct!,,,,,,t4.png,t3.png,1,0.909,19,female,2020-11-07_17h22.16.146,torte-q,2020.1.3,Win32,60,13368,,,,,0,115,115,46,1,,,,,,,,,,,,,,,,,,,,,,,,,,,,,,,,,,,
,,,,,,,,,,,,l,0.94528,Correct!,,,,,,t3.png,t1.png,2,0.056466,19,female,2020-11-07_17h22.16.146,torte-q,2020.1.3,Win32,60,13368,,,,,0,116,116,29,1,,,,,,,,,,,,,,,,,,,,,,,,,,,,,,,,,,,
,,,,,,,,,,,,l,1.070635,Incorrect,,,,,,t2.png,t1.png,1,0.90025,19,female,2020-11-07_17h22.16.146,torte-q,2020.1.3,Win32,60,13368,,,,,0,117,117,19,1,,,,,,,,,,,,,,,,,,,,,,,,,,,,,,,,,,,
,,,,,,,,,,,,a,1.144165,Correct!,,,,,,t1.png,t1.png,0,0.97829,19,female,2020-11-07_17h22.16.146,torte-q,2020.1.3,Win32,60,13368,,,,,0,118,118,9,1,,,,,,,,,,,,,,,,,,,,,,,,,,,,,,,,,,,
,,,,,,,,,,,,a,1.3526,Incorrect,,,,,,t1.png,t3.png,2,0.056466,19,female,2020-11-07_17h22.16.146,torte-q,2020.1.3,Win32,60,13368,,,,,0,119,119,60,1,,,,,,,,,,,,,,,,,,,,,,,,,,,,,,,,,,,
,,,,,,,,,,,,l,1.44771,Correct!,,,,,,t5.png,t2.png,3,0.0000131,19,female,2020-11-07_17h22.16.146,torte-q,2020.1.3,Win32,60,13368,space,5.138725,,,,,,,,N/A,7.78699,return,0.792775,0,0,0,51,1,,,,,,,,,,,,,,,,,,,,,,,,,,
,,,,,,,,,,,,l,1.705985,Incorrect,,,,,,t2.png,t3.png,1,0.90855,19,female,2020-11-07_17h22.16.146,torte-q,2020.1.3,Win32,60,13368,,,,,,,,,,,,,,0,1,1,65,1,,,,,,,,,,,,,,,,,,,,,,,,,,
,,,,,,,,,,,,l,0.705145,Correct!,,,,,,t5.png,t2.png,3,0.0000131,19,female,2020-11-07_17h22.16.146,torte-q,2020.1.3,Win32,60,13368,,,,,,,,,,,,,,0,2,2,116,1,,,,,,,,,,,,,,,,,,,,,,,,,,
,,,,,,,,,,,,a,1.21143,Incorrect,,,,,,t1.png,t5.png,4,9.55E-11,19,female,2020-11-07_17h22.16.146,torte-q,2020.1.3,Win32,60,13368,,,,,,,,,,,,,,0,3,3,41,1,,,,,,,,,,,,,,,,,,,,,,,,,,
,,,,,,,,,,,,l,1.4532,Correct!,,,,,,t1.png,t4.png,3,0.0000131,19,female,2020-11-07_17h22.16.146,torte-q,2020.1.3,Win32,60,13368,,,,,,,,,,,,,,0,4,4,81,1,,,,,,,,,,,,,,,,,,,,,,,,,,
,,,,,,,,,,,,a,1.17081,Correct!,,,,,,t4.png,t4.png,0,0.98115,19,female,2020-11-07_17h22.16.146,torte-q,2020.1.3,Win32,60,13368,,,,,,,,,,,,,,0,5,5,21,1,,,,,,,,,,,,,,,,,,,,,,,,,,
,,,,,,,,,,,,l,0.73732,Correct!,,,,,,t4.png,t1.png,3,0.0000131,19,female,2020-11-07_17h22.16.146,torte-q,2020.1.3,Win32,60,13368,,,,,,,,,,,,,,0,6,6,48,1,,,,,,,,,,,,,,,,,,,,,,,,,,
,,,,,,,,,,,,l,1.62123,Incorrect,,,,,,t2.png,t1.png,1,0.9,19,female,2020-11-07_17h22.16.146,torte-q,2020.1.3,Win32,60,13368,,,,,,,,,,,,,,0,7,7,118,1,,,,,,,,,,,,,,,,,,,,,,,,,,
,,,,,,,,,,,,l,0.608365,Correct!,,,,,,t4.png,t1.png,3,0.0000131,19,female,2020-11-07_17h22.16.146,torte-q,2020.1.3,Win32,60,13368,,,,,,,,,,,,,,0,8,8,13,1,,,,,,,,,,,,,,,,,,,,,,,,,,
,,,,,,,,,,,,l,0.554565,Incorrect,,,,,,t2.png,t1.png,1,0.90025,19,female,2020-11-07_17h22.16.146,torte-q,2020.1.3,Win32,60,13368,,,,,,,,,,,,,,0,9,9,19,1,,,,,,,,,,,,,,,,,,,,,,,,,,
,,,,,,,,,,,,l,0.828725,Correct!,,,,,,t4.png,t2.png,2,0.059078,19,female,2020-11-07_17h22.16.146,torte-q,2020.1.3,Win32,60,13368,,,,,,,,,,,,,,0,10,10,88,1,,,,,,,,,,,,,,,,,,,,,,,,,,
,,,,,,,,,,,,a,0.704115,Correct!,,,,,,t1.png,t1.png,0,0.978,19,female,2020-11-07_17h22.16.146,torte-q,2020.1.3,Win32,60,13368,,,,,,,,,,,,,,0,11,11,28,1,,,,,,,,,,,,,,,,,,,,,,,,,,
,,,,,,,,,,,,l,1.41687,Correct!,,,,,,t5.png,t3.png,2,0.056466,19,female,2020-11-07_17h22.16.146,torte-q,2020.1.3,Win32,60,13368,,,,,,,,,,,,,,0,12,12,108,1,,,,,,,,,,,,,,,,,,,,,,,,,,
,,,,,,,,,,,,l,1.46205,Correct!,,,,,,t1.png,t4.png,3,0.0000131,19,female,2020-11-07_17h22.16.146,torte-q,2020.1.3,Win32,60,13368,,,,,,,,,,,,,,0,13,13,92,1,,,,,,,,,,,,,,,,,,,,,,,,,,
,,,,,,,,,,,,l,0.889345,Incorrect,,,,,,t4.png,t3.png,1,0.909,19,female,2020-11-07_17h22.16.146,torte-q,2020.1.3,Win32,60,13368,,,,,,,,,,,,,,0,14,14,46,1,,,,,,,,,,,,,,,,,,,,,,,,,,
,,,,,,,,,,,,l,0.630535,Incorrect,,,,,,t2.png,t1.png,1,0.90025,19,female,2020-11-07_17h22.16.146,torte-q,2020.1.3,Win32,60,13368,,,,,,,,,,,,,,0,15,15,62,1,,,,,,,,,,,,,,,,,,,,,,,,,,
,,,,,,,,,,,,a,1.487375,Correct!,,,,,,t4.png,t3.png,1,0.90855,19,female,2020-11-07_17h22.16.146,torte-q,2020.1.3,Win32,60,13368,,,,,,,,,,,,,,0,16,16,45,1,,,,,,,,,,,,,,,,,,,,,,,,,,
,,,,,,,,,,,,l,1.240555,Correct!,,,,,,t3.png,t5.png,2,0.056466,19,female,2020-11-07_17h22.16.146,torte-q,2020.1.3,Win32,60,13368,,,,,,,,,,,,,,0,17,17,6,1,,,,,,,,,,,,,,,,,,,,,,,,,,
,,,,,,,,,,,,l,1.705465,Incorrect,,,,,,t3.png,t4.png,1,0.90855,19,female,2020-11-07_17h22.16.146,torte-q,2020.1.3,Win32,60,13368,,,,,,,,,,,,,,0,18,18,96,1,,,,,,,,,,,,,,,,,,,,,,,,,,
,,,,,,,,,,,,a,1.07043,Correct!,,,,,,t3.png,t4.png,1,0.90855,19,female,2020-11-07_17h22.16.146,torte-q,2020.1.3,Win32,60,13368,,,,,,,,,,,,,,0,19,19,84,1,,,,,,,,,,,,,,,,,,,,,,,,,,
,,,,,,,,,,,,a,0.828755,Incorrect,,,,,,t2.png,t5.png,3,0.0000131,19,female,2020-11-07_17h22.16.146,torte-q,2020.1.3,Win32,60,13368,,,,,,,,,,,,,,0,20,20,66,1,,,,,,,,,,,,,,,,,,,,,,,,,,
,,,,,,,,,,,,a,1.22044,Correct!,,,,,,t5.png,t3.png,2,0.056466,19,female,2020-11-07_17h22.16.146,torte-q,2020.1.3,Win32,60,13368,,,,,,,,,,,,,,0,21,21,56,1,,,,,,,,,,,,,,,,,,,,,,,,,,
,,,,,,,,,,,,l,0.805715,Incorrect,,,,,,t1.png,t1.png,0,0.97829,19,female,2020-11-07_17h22.16.146,torte-q,2020.1.3,Win32,60,13368,,,,,,,,,,,,,,0,22,22,67,1,,,,,,,,,,,,,,,,,,,,,,,,,,
,,,,,,,,,,,,l,1.10423,Incorrect,,,,,,t4.png,t5.png,1,0.90025,19,female,2020-11-07_17h22.16.146,torte-q,2020.1.3,Win32,60,13368,,,,,,,,,,,,,,0,23,23,47,1,,,,,,,,,,,,,,,,,,,,,,,,,,
,,,,,,,,,,,,l,1.521045,Incorrect,,,,,,t4.png,t5.png,1,0.9,19,female,2020-11-07_17h22.16.146,torte-q,2020.1.3,Win32,60,13368,,,,,,,,,,,,,,0,24,24,115,1,,,,,,,,,,,,,,,,,,,,,,,,,,
,,,,,,,,,,,,a,1.848995,Correct!,,,,,,t4.png,t3.png,1,0.90855,19,female,2020-11-07_17h22.16.146,torte-q,2020.1.3,Win32,60,13368,,,,,,,,,,,,,,0,25,25,75,1,,,,,,,,,,,,,,,,,,,,,,,,,,
,,,,,,,,,,,,l,1.321775,Incorrect,,,,,,t1.png,t2.png,1,0.90025,19,female,2020-11-07_17h22.16.146,torte-q,2020.1.3,Win32,60,13368,,,,,,,,,,,,,,0,26,26,72,1,,,,,,,,,,,,,,,,,,,,,,,,,,
,,,,,,,,,,,,a,1.25501,Correct!,,,,,,t4.png,t4.png,0,0.98115,19,female,2020-11-07_17h22.16.146,torte-q,2020.1.3,Win32,60,13368,,,,,,,,,,,,,,0,27,27,79,1,,,,,,,,,,,,,,,,,,,,,,,,,,
,,,,,,,,,,,,l,1.29153,Incorrect,,,,,,t3.png,t2.png,1,0.90855,19,female,2020-11-07_17h22.16.146,torte-q,2020.1.3,Win32,60,13368,,,,,,,,,,,,,,0,28,28,53,1,,,,,,,,,,,,,,,,,,,,,,,,,,
,,,,,,,,,,,,l,1.742295,Incorrect,,,,,,t2.png,t3.png,1,0.90855,19,female,2020-11-07_17h22.16.146,torte-q,2020.1.3,Win32,60,13368,,,,,,,,,,,,,,0,29,29,111,1,,,,,,,,,,,,,,,,,,,,,,,,,,
,,,,,,,,,,,,l,1.470765,Correct!,,,,,,t1.png,t5.png,4,9.55E-11,19,female,2020-11-07_17h22.16.146,torte-q,2020.1.3,Win32,60,13368,,,,,,,,,,,,,,0,30,30,12,1,,,,,,,,,,,,,,,,,,,,,,,,,,
,,,,,,,,,,,,l,0.68656,Correct!,,,,,,t1.png,t5.png,4,9.55E-11,19,female,2020-11-07_17h22.16.146,torte-q,2020.1.3,Win32,60,13368,,,,,,,,,,,,,,0,31,31,55,1,,,,,,,,,,,,,,,,,,,,,,,,,,
,,,,,,,,,,,,l,0.887265,Correct!,,,,,,t4.png,t2.png,2,0.059078,19,female,2020-11-07_17h22.16.146,torte-q,2020.1.3,Win32,60,13368,,,,,,,,,,,,,,0,32,32,86,1,,,,,,,,,,,,,,,,,,,,,,,,,,
,,,,,,,,,,,,l,0.725135,Correct!,,,,,,t5.png,t2.png,3,0.0000131,19,female,2020-11-07_17h22.16.146,torte-q,2020.1.3,Win32,60,13368,,,,,,,,,,,,,,0,33,33,98,1,,,,,,,,,,,,,,,,,,,,,,,,,,
,,,,,,,,,,,,l,0.689315,Incorrect,,,,,,t1.png,t2.png,1,0.90025,19,female,2020-11-07_17h22.16.146,torte-q,2020.1.3,Win32,60,13368,,,,,,,,,,,,,,0,34,34,112,1,,,,,,,,,,,,,,,,,,,,,,,,,,
,,,,,,,,,,,,a,1.38962,Incorrect,,,,,,t2.png,t4.png,2,0.059078,19,female,2020-11-07_17h22.16.146,torte-q,2020.1.3,Win32,60,13368,,,,,,,,,,,,,,0,35,35,24,1,,,,,,,,,,,,,,,,,,,,,,,,,,
,,,,,,,,,,,,a,1.68722,Correct!,,,,,,t5.png,t5.png,0,0.97829,19,female,2020-11-07_17h22.16.146,torte-q,2020.1.3,Win32,60,13368,,,,,,,,,,,,,,0,36,36,94,1,,,,,,,,,,,,,,,,,,,,,,,,,,
,,,,,,,,,,,,a,1.353665,Incorrect,,,,,,t5.png,t3.png,2,0.056466,19,female,2020-11-07_17h22.16.146,torte-q,2020.1.3,Win32,60,13368,,,,,,,,,,,,,,0,37,37,114,1,,,,,,,,,,,,,,,,,,,,,,,,,,
,,,,,,,,,,,,a,1.271905,Correct!,,,,,,t1.png,t1.png,0,0.978,19,female,2020-11-07_17h22.16.146,torte-q,2020.1.3,Win32,60,13368,,,,,,,,,,,,,,0,38,38,54,1,,,,,,,,,,,,,,,,,,,,,,,,,,
,,,,,,,,,,,,l,0.935125,Correct!,,,,,,t2.png,t5.png,3,0.0000131,19,female,2020-11-07_17h22.16.146,torte-q,2020.1.3,Win32,60,13368,,,,,,,,,,,,,,0,39,39,40,1,,,,,,,,,,,,,,,,,,,,,,,,,,
,,,,,,,,,,,,l,1.020315,Incorrect,,,,,,t4.png,t5.png,1,0.90025,19,female,2020-11-07_17h22.16.146,torte-q,2020.1.3,Win32,60,13368,,,,,,,,,,,,,,0,40,40,58,1,,,,,,,,,,,,,,,,,,,,,,,,,,
,,,,,,,,,,,,a,0.93733,Correct!,,,,,,t5.png,t5.png,0,0.97829,19,female,2020-11-07_17h22.16.146,torte-q,2020.1.3,Win32,60,13368,,,,,,,,,,,,,,0,41,41,73,1,,,,,,,,,,,,,,,,,,,,,,,,,,
,,,,,,,,,,,,l,1.13325,Correct!,,,,,,t4.png,t2.png,2,0.059078,19,female,2020-11-07_17h22.16.146,torte-q,2020.1.3,Win32,60,13368,,,,,,,,,,,,,,0,42,42,109,1,,,,,,,,,,,,,,,,,,,,,,,,,,
,,,,,,,,,,,,l,1.79055,Incorrect,,,,,,t4.png,t5.png,1,0.90025,19,female,2020-11-07_17h22.16.146,torte-q,2020.1.3,Win32,60,13368,,,,,,,,,,,,,,0,43,43,113,1,,,,,,,,,,,,,,,,,,,,,,,,,,
,,,,,,,,,,,,a,2.211195,Incorrect,,,,,,t5.png,t3.png,2,0.056466,19,female,2020-11-07_17h22.16.146,torte-q,2020.1.3,Win32,60,13368,,,,,,,,,,,,,,0,44,44,38,1,,,,,,,,,,,,,,,,,,,,,,,,,,
,,,,,,,,,,,,l,1.00075,Incorrect,,,,,,t1.png,t2.png,1,0.9,19,female,2020-11-07_17h22.16.146,torte-q,2020.1.3,Win32,60,13368,,,,,,,,,,,,,,0,45,45,1,1,,,,,,,,,,,,,,,,,,,,,,,,,,
,,,,,,,,,,,,l,1.61201,Correct!,,,,,,t1.png,t4.png,3,0.0000131,19,female,2020-11-07_17h22.16.146,torte-q,2020.1.3,Win32,60,13368,,,,,,,,,,,,,,0,46,46,107,1,,,,,,,,,,,,,,,,,,,,,,,,,,
,,,,,,,,,,,,l,1.408415,Correct!,,,,,,t3.png,t5.png,2,0.056466,19,female,2020-11-07_17h22.16.146,torte-q,2020.1.3,Win32,60,13368,,,,,,,,,,,,,,0,47,47,44,1,,,,,,,,,,,,,,,,,,,,,,,,,,
,,,,,,,,,,,,l,1.59823,Correct!,,,,,,t2.png,t4.png,2,0.059078,19,female,2020-11-07_17h22.16.146,torte-q,2020.1.3,Win32,60,13368,,,,,,,,,,,,,,0,48,48,77,1,,,,,,,,,,,,,,,,,,,,,,,,,,
,,,,,,,,,,,,l,0.771395,Correct!,,,,,,t5.png,t1.png,4,9.55E-11,19,female,2020-11-07_17h22.16.146,torte-q,2020.1.3,Win32,60,13368,,,,,,,,,,,,,,0,49,49,43,1,,,,,,,,,,,,,,,,,,,,,,,,,,
,,,,,,,,,,,,,,Too slow :(,,,,,,t4.png,t3.png,1,0.90855,19,female,2020-11-07_17h22.16.146,torte-q,2020.1.3,Win32,60,13368,,,,,,,,,,,,,,0,50,50,35,1,,,,,,,,,,,,,,,,,,,,,,,,,,
,,,,,,,,,,,,l,0.822255,Correct!,,,,,,t3.png,t1.png,2,0.0565,19,female,2020-11-07_17h22.16.146,torte-q,2020.1.3,Win32,60,13368,,,,,,,,,,,,,,0,51,51,31,1,,,,,,,,,,,,,,,,,,,,,,,,,,
,,,,,,,,,,,,l,0.836395,Incorrect,,,,,,t1.png,t2.png,1,0.90025,19,female,2020-11-07_17h22.16.146,torte-q,2020.1.3,Win32,60,13368,,,,,,,,,,,,,,0,52,52,33,1,,,,,,,,,,,,,,,,,,,,,,,,,,
,,,,,,,,,,,,l,0.75774,Incorrect,,,,,,t3.png,t4.png,1,0.909,19,female,2020-11-07_17h22.16.146,torte-q,2020.1.3,Win32,60,13368,,,,,,,,,,,,,,0,53,53,82,1,,,,,,,,,,,,,,,,,,,,,,,,,,
,,,,,,,,,,,,l,0.932765,Correct!,,,,,,t3.png,t1.png,2,0.056466,19,female,2020-11-07_17h22.16.146,torte-q,2020.1.3,Win32,60,13368,,,,,,,,,,,,,,0,54,54,64,1,,,,,,,,,,,,,,,,,,,,,,,,,,
,,,,,,,,,,,,l,0.65133,Correct!,,,,,,t4.png,t1.png,3,0.0000131,19,female,2020-11-07_17h22.16.146,torte-q,2020.1.3,Win32,60,13368,,,,,,,,,,,,,,0,55,55,61,1,,,,,,,,,,,,,,,,,,,,,,,,,,
,,,,,,,,,,,,a,0.9184,Incorrect,,,,,,t1.png,t5.png,4,9.55E-11,19,female,2020-11-07_17h22.16.146,torte-q,2020.1.3,Win32,60,13368,,,,,,,,,,,,,,0,56,56,85,1,,,,,,,,,,,,,,,,,,,,,,,,,,
,,,,,,,,,,,,a,1.718625,Correct!,,,,,,t4.png,t4.png,0,0.98115,19,female,2020-11-07_17h22.16.146,torte-q,2020.1.3,Win32,60,13368,,,,,,,,,,,,,,0,57,57,52,1,,,,,,,,,,,,,,,,,,,,,,,,,,
,,,,,,,,,,,,l,1.53519,Correct!,,,,,,t1.png,t3.png,2,0.056466,19,female,2020-11-07_17h22.16.146,torte-q,2020.1.3,Win32,60,13368,,,,,,,,,,,,,,0,58,58,69,1,,,,,,,,,,,,,,,,,,,,,,,,,,
,,,,,,,,,,,,l,1.201665,Incorrect,,,,,,t2.png,t2.png,0,0.98115,19,female,2020-11-07_17h22.16.146,torte-q,2020.1.3,Win32,60,13368,,,,,,,,,,,,,,0,59,59,57,1,,,,,,,,,,,,,,,,,,,,,,,,,,
,,,,,,,,,,,,a,1.101365,Correct!,,,,,,t5.png,t5.png,0,0.97829,19,female,2020-11-07_17h22.16.146,torte-q,2020.1.3,Win32,60,13368,,,,,,,,,,,,,,0,60,60,70,1,,,,,,,,,,,,,,,,,,,,,,,,,,
,,,,,,,,,,,,l,1.08486,Correct!,,,,,,t1.png,t4.png,3,0.0000131,19,female,2020-11-07_17h22.16.146,torte-q,2020.1.3,Win32,60,13368,,,,,,,,,,,,,,0,61,61,50,1,,,,,,,,,,,,,,,,,,,,,,,,,,
,,,,,,,,,,,,l,1.05169,Correct!,,,,,,t2.png,t4.png,2,0.059078,19,female,2020-11-07_17h22.16.146,torte-q,2020.1.3,Win32,60,13368,,,,,,,,,,,,,,0,62,62,11,1,,,,,,,,,,,,,,,,,,,,,,,,,,
,,,,,,,,,,,,l,0.83574,Incorrect,,,,,,t1.png,t1.png,0,0.97829,19,female,2020-11-07_17h22.16.146,torte-q,2020.1.3,Win32,60,13368,,,,,,,,,,,,,,0,63,63,78,1,,,,,,,,,,,,,,,,,,,,,,,,,,
,,,,,,,,,,,,l,2.23587,Correct!,,,,,,t2.png,t4.png,2,0.059078,19,female,2020-11-07_17h22.16.146,torte-q,2020.1.3,Win32,60,13368,,,,,,,,,,,,,,0,64,64,37,1,,,,,,,,,,,,,,,,,,,,,,,,,,
,,,,,,,,,,,,a,0.801535,Correct!,,,,,,t4.png,t4.png,0,0.98115,19,female,2020-11-07_17h22.16.146,torte-q,2020.1.3,Win32,60,13368,,,,,,,,,,,,,,0,65,65,80,1,,,,,,,,,,,,,,,,,,,,,,,,,,
,,,,,,,,,,,,l,0.63546,Correct!,,,,,,t3.png,t2.png,1,0.909,19,female,2020-11-07_17h22.16.146,torte-q,2020.1.3,Win32,60,13368,,,,,,,,,,,,,,0,66,66,23,1,,,,,,,,,,,,,,,,,,,,,,,,,,
,,,,,,,,,,,,a,0.868255,Correct!,,,,,,t4.png,t4.png,0,0.98115,19,female,2020-11-07_17h22.16.146,torte-q,2020.1.3,Win32,60,13368,,,,,,,,,,,,,,0,67,67,90,1,,,,,,,,,,,,,,,,,,,,,,,,,,
,,,,,,,,,,,,l,0.68487,Incorrect,,,,,,t3.png,t2.png,1,0.90855,19,female,2020-11-07_17h22.16.146,torte-q,2020.1.3,Win32,60,13368,,,,,,,,,,,,,,0,68,68,18,1,,,,,,,,,,,,,,,,,,,,,,,,,,
,,,,,,,,,,,,l,0.602965,Incorrect,,,,,,t2.png,t2.png,0,0.981,19,female,2020-11-07_17h22.16.146,torte-q,2020.1.3,Win32,60,13368,,,,,,,,,,,,,,0,69,69,101,1,,,,,,,,,,,,,,,,,,,,,,,,,,
,,,,,,,,,,,,l,0.88309,Incorrect,,,,,,t5.png,t5.png,0,0.97829,19,female,2020-11-07_17h22.16.146,torte-q,2020.1.3,Win32,60,13368,,,,,,,,,,,,,,0,70,70,25,1,,,,,,,,,,,,,,,,,,,,,,,,,,
,,,,,,,,,,,,l,0.70173,Incorrect,,,,,,t2.png,t1.png,1,0.90025,19,female,2020-11-07_17h22.16.146,torte-q,2020.1.3,Win32,60,13368,,,,,,,,,,,,,,0,71,71,5,1,,,,,,,,,,,,,,,,,,,,,,,,,,
,,,,,,,,,,,,l,0.80168,Incorrect,,,,,,t2.png,t2.png,0,0.98115,19,female,2020-11-07_17h22.16.146,torte-q,2020.1.3,Win32,60,13368,,,,,,,,,,,,,,0,72,72,7,1,,,,,,,,,,,,,,,,,,,,,,,,,,
,,,,,,,,,,,,l,0.801705,Correct!,,,,,,t5.png,t2.png,3,0.0000131,19,female,2020-11-07_17h22.16.146,torte-q,2020.1.3,Win32,60,13368,,,,,,,,,,,,,,0,73,73,119,1,,,,,,,,,,,,,,,,,,,,,,,,,,
,,,,,,,,,,,,a,0.83514,Correct!,,,,,,t5.png,t4.png,1,0.90025,19,female,2020-11-07_17h22.16.146,torte-q,2020.1.3,Win32,60,13368,,,,,,,,,,,,,,0,74,74,34,1,,,,,,,,,,,,,,,,,,,,,,,,,,
,,,,,,,,,,,,l,0.585005,Correct!,,,,,,t4.png,t2.png,2,0.0591,19,female,2020-11-07_17h22.16.146,torte-q,2020.1.3,Win32,60,13368,,,,,,,,,,,,,,0,75,75,36,1,,,,,,,,,,,,,,,,,,,,,,,,,,
,,,,,,,,,,,,a,0.7853,Incorrect,,,,,,t1.png,t3.png,2,0.056466,19,female,2020-11-07_17h22.16.146,torte-q,2020.1.3,Win32,60,13368,,,,,,,,,,,,,,0,76,76,60,1,,,,,,,,,,,,,,,,,,,,,,,,,,
,,,,,,,,,,,,l,1.11847,Correct!,,,,,,t2.png,t5.png,3,0.0000131,19,female,2020-11-07_17h22.16.146,torte-q,2020.1.3,Win32,60,13368,,,,,,,,,,,,,,0,77,77,95,1,,,,,,,,,,,,,,,,,,,,,,,,,,
,,,,,,,,,,,,l,1.223485,Incorrect,,,,,,t2.png,t3.png,1,0.909,19,female,2020-11-07_17h22.16.146,torte-q,2020.1.3,Win32,60,13368,,,,,,,,,,,,,,0,78,78,74,1,,,,,,,,,,,,,,,,,,,,,,,,,,
,,,,,,,,,,,,l,1.320535,Incorrect,,,,,,t2.png,t3.png,1,0.90855,19,female,2020-11-07_17h22.16.146,torte-q,2020.1.3,Win32,60,13368,,,,,,,,,,,,,,0,79,79,10,1,,,,,,,,,,,,,,,,,,,,,,,,,,
,,,,,,,,,,,,a,1.526185,Correct!,,,,,,t5.png,t5.png,0,0.978,19,female,2020-11-07_17h22.16.146,torte-q,2020.1.3,Win32,60,13368,,,,,,,,,,,,,,0,80,80,117,1,,,,,,,,,,,,,,,,,,,,,,,,,,
,,,,,,,,,,,,l,0.537755,Correct!,,,,,,t3.png,t1.png,2,0.056466,19,female,2020-11-07_17h22.16.146,torte-q,2020.1.3,Win32,60,13368,,,,,,,,,,,,,,0,81,81,32,1,,,,,,,,,,,,,,,,,,,,,,,,,,
,,,,,,,,,,,,l,0.599625,Correct!,,,,,,t5.png,t1.png,4,9.55E-11,19,female,2020-11-07_17h22.16.146,torte-q,2020.1.3,Win32,60,13368,,,,,,,,,,,,,,0,82,82,22,1,,,,,,,,,,,,,,,,,,,,,,,,,,
,,,,,,,,,,,,l,0.49202,Correct!,,,,,,t4.png,t1.png,3,0.0000131,19,female,2020-11-07_17h22.16.146,torte-q,2020.1.3,Win32,60,13368,,,,,,,,,,,,,,0,83,83,42,1,,,,,,,,,,,,,,,,,,,,,,,,,,
,,,,,,,,,,,,l,0.819765,Correct!,,,,,,t2.png,t5.png,3,0.0000131,19,female,2020-11-07_17h22.16.146,torte-q,2020.1.3,Win32,60,13368,,,,,,,,,,,,,,0,84,84,8,1,,,,,,,,,,,,,,,,,,,,,,,,,,
,,,,,,,,,,,,l,0.978225,Incorrect,,,,,,t5.png,t4.png,1,0.9,19,female,2020-11-07_17h22.16.146,torte-q,2020.1.3,Win32,60,13368,,,,,,,,,,,,,,0,85,85,49,1,,,,,,,,,,,,,,,,,,,,,,,,,,
,,,,,,,,,,,,l,1.28717,Incorrect,,,,,,t3.png,t4.png,1,0.909,19,female,2020-11-07_17h22.16.146,torte-q,2020.1.3,Win32,60,13368,,,,,,,,,,,,,,0,86,86,89,1,,,,,,,,,,,,,,,,,,,,,,,,,,
,,,,,,,,,,,,a,0.91219,Incorrect,,,,,,t2.png,t4.png,2,0.0591,19,female,2020-11-07_17h22.16.146,torte-q,2020.1.3,Win32,60,13368,,,,,,,,,,,,,,0,87,87,15,1,,,,,,,,,,,,,,,,,,,,,,,,,,
,,,,,,,,,,,,l,0.74701,Incorrect,,,,,,t3.png,t2.png,1,0.909,19,female,2020-11-07_17h22.16.146,torte-q,2020.1.3,Win32,60,13368,,,,,,,,,,,,,,0,88,88,3,1,,,,,,,,,,,,,,,,,,,,,,,,,,
,,,,,,,,,,,,l,0.597495,Correct!,,,,,,t5.png,t1.png,4,9.55E-11,19,female,2020-11-07_17h22.16.146,torte-q,2020.1.3,Win32,60,13368,,,,,,,,,,,,,,0,89,89,71,1,,,,,,,,,,,,,,,,,,,,,,,,,,
,,,,,,,,,,,,l,0.60738,Correct!,,,,,,t3.png,t1.png,2,0.056466,19,female,2020-11-07_17h22.16.146,torte-q,2020.1.3,Win32,60,13368,,,,,,,,,,,,,,0,90,90,0,1,,,,,,,,,,,,,,,,,,,,,,,,,,
,,,,,,,,,,,,l,0.7304,Correct!,,,,,,t5.png,t1.png,4,9.55E-11,19,female,2020-11-07_17h22.16.146,torte-q,2020.1.3,Win32,60,13368,,,,,,,,,,,,,,0,91,91,102,1,,,,,,,,,,,,,,,,,,,,,,,,,,
,,,,,,,,,,,,l,0.91363,Correct!,,,,,,t3.png,t5.png,2,0.0565,19,female,2020-11-07_17h22.16.146,torte-q,2020.1.3,Win32,60,13368,,,,,,,,,,,,,,0,92,92,83,1,,,,,,,,,,,,,,,,,,,,,,,,,,
,,,,,,,,,,,,l,0.98515,Correct!,,,,,,t1.png,t3.png,2,0.056466,19,female,2020-11-07_17h22.16.146,torte-q,2020.1.3,Win32,60,13368,,,,,,,,,,,,,,0,93,93,63,1,,,,,,,,,,,,,,,,,,,,,,,,,,
,,,,,,,,,,,,l,0.656195,Incorrect,,,,,,t3.png,t2.png,1,0.90855,19,female,2020-11-07_17h22.16.146,torte-q,2020.1.3,Win32,60,13368,,,,,,,,,,,,,,0,94,94,97,1,,,,,,,,,,,,,,,,,,,,,,,,,,
,,,,,,,,,,,,l,0.73752,Incorrect,,,,,,t2.png,t2.png,0,0.98115,19,female,2020-11-07_17h22.16.146,torte-q,2020.1.3,Win32,60,13368,,,,,,,,,,,,,,0,95,95,2,1,,,,,,,,,,,,,,,,,,,,,,,,,,
,,,,,,,,,,,,a,1.173575,Correct!,,,,,,t4.png,t5.png,1,0.90025,19,female,2020-11-07_17h22.16.146,torte-q,2020.1.3,Win32,60,13368,,,,,,,,,,,,,,0,96,96,103,1,,,,,,,,,,,,,,,,,,,,,,,,,,
,,,,,,,,,,,,l,0.679675,Correct!,,,,,,t4.png,t2.png,2,0.059078,19,female,2020-11-07_17h22.16.146,torte-q,2020.1.3,Win32,60,13368,,,,,,,,,,,,,,0,97,97,110,1,,,,,,,,,,,,,,,,,,,,,,,,,,
,,,,,,,,,,,,l,0.72335,Correct!,,,,,,t3.png,t1.png,2,0.056466,19,female,2020-11-07_17h22.16.146,torte-q,2020.1.3,Win32,60,13368,,,,,,,,,,,,,,0,98,98,29,1,,,,,,,,,,,,,,,,,,,,,,,,,,
,,,,,,,,,,,,l,0.703315,Incorrect,,,,,,t2.png,t1.png,1,0.90025,19,female,2020-11-07_17h22.16.146,torte-q,2020.1.3,Win32,60,13368,,,,,,,,,,,,,,0,99,99,4,1,,,,,,,,,,,,,,,,,,,,,,,,,,
,,,,,,,,,,,,a,2.32947,Correct!,,,,,,t5.png,t4.png,1,0.9,19,female,2020-11-07_17h22.16.146,torte-q,2020.1.3,Win32,60,13368,,,,,,,,,,,,,,0,100,100,76,1,,,,,,,,,,,,,,,,,,,,,,,,,,
,,,,,,,,,,,,l,0.735195,Correct!,,,,,,t4.png,t1.png,3,0.0000131,19,female,2020-11-07_17h22.16.146,torte-q,2020.1.3,Win32,60,13368,,,,,,,,,,,,,,0,101,101,93,1,,,,,,,,,,,,,,,,,,,,,,,,,,
,,,,,,,,,,,,l,1.23815,Correct!,,,,,,t1.png,t3.png,2,0.056466,19,female,2020-11-07_17h22.16.146,torte-q,2020.1.3,Win32,60,13368,,,,,,,,,,,,,,0,102,102,99,1,,,,,,,,,,,,,,,,,,,,,,,,,,
,,,,,,,,,,,,l,0.620365,Correct!,,,,,,t5.png,t1.png,4,9.55E-11,19,female,2020-11-07_17h22.16.146,torte-q,2020.1.3,Win32,60,13368,,,,,,,,,,,,,,0,103,103,100,1,,,,,,,,,,,,,,,,,,,,,,,,,,
,,,,,,,,,,,,a,1.02562,Correct!,,,,,,t5.png,t4.png,1,0.90025,19,female,2020-11-07_17h22.16.146,torte-q,2020.1.3,Win32,60,13368,,,,,,,,,,,,,,0,104,104,26,1,,,,,,,,,,,,,,,,,,,,,,,,,,
,,,,,,,,,,,,l,0.696545,Correct!,,,,,,t3.png,t5.png,2,0.056466,19,female,2020-11-07_17h22.16.146,torte-q,2020.1.3,Win32,60,13368,,,,,,,,,,,,,,0,105,105,14,1,,,,,,,,,,,,,,,,,,,,,,,,,,
,,,,,,,,,,,,l,0.652105,Incorrect,,,,,,t2.png,t2.png,0,0.98115,19,female,2020-11-07_17h22.16.146,torte-q,2020.1.3,Win32,60,13368,,,,,,,,,,,,,,0,106,106,59,1,,,,,,,,,,,,,,,,,,,,,,,,,,
,,,,,,,,,,,,l,1.086585,Correct!,,,,,,t3.png,t5.png,2,0.0565,19,female,2020-11-07_17h22.16.146,torte-q,2020.1.3,Win32,60,13368,,,,,,,,,,,,,,0,107,107,30,1,,,,,,,,,,,,,,,,,,,,,,,,,,
,,,,,,,,,,,,a,0.967795,Incorrect,,,,,,t5.png,t3.png,2,0.0565,19,female,2020-11-07_17h22.16.146,torte-q,2020.1.3,Win32,60,13368,,,,,,,,,,,,,,0,108,108,39,1,,,,,,,,,,,,,,,,,,,,,,,,,,
,,,,,,,,,,,,a,0.95376,Correct!,,,,,,t4.png,t3.png,1,0.909,19,female,2020-11-07_17h22.16.146,torte-q,2020.1.3,Win32,60,13368,,,,,,,,,,,,,,0,109,109,20,1,,,,,,,,,,,,,,,,,,,,,,,,,,
,,,,,,,,,,,,l,0.82049,Incorrect,,,,,,t1.png,t2.png,1,0.90025,19,female,2020-11-07_17h22.16.146,torte-q,2020.1.3,Win32,60,13368,,,,,,,,,,,,,,0,110,110,105,1,,,,,,,,,,,,,,,,,,,,,,,,,,
,,,,,,,,,,,,l,1.163205,Incorrect,,,,,,t3.png,t4.png,1,0.909,19,female,2020-11-07_17h22.16.146,torte-q,2020.1.3,Win32,60,13368,,,,,,,,,,,,,,0,111,111,106,1,,,,,,,,,,,,,,,,,,,,,,,,,,
,,,,,,,,,,,,l,0.72826,Correct!,,,,,,t2.png,t5.png,3,0.0000131,19,female,2020-11-07_17h22.16.146,torte-q,2020.1.3,Win32,60,13368,,,,,,,,,,,,,,0,112,112,104,1,,,,,,,,,,,,,,,,,,,,,,,,,,
,,,,,,,,,,,,l,0.6686,Incorrect,,,,,,t1.png,t1.png,0,0.97829,19,female,2020-11-07_17h22.16.146,torte-q,2020.1.3,Win32,60,13368,,,,,,,,,,,,,,0,113,113,9,1,,,,,,,,,,,,,,,,,,,,,,,,,,
,,,,,,,,,,,,l,0.79689,Correct!,,,,,,t5.png,t2.png,3,0.0000131,19,female,2020-11-07_17h22.16.146,torte-q,2020.1.3,Win32,60,13368,,,,,,,,,,,,,,0,114,114,91,1,,,,,,,,,,,,,,,,,,,,,,,,,,
,,,,,,,,,,,,l,1.70337,Incorrect,,,,,,t2.png,t3.png,1,0.90855,19,female,2020-11-07_17h22.16.146,torte-q,2020.1.3,Win32,60,13368,,,,,,,,,,,,,,0,115,115,68,1,,,,,,,,,,,,,,,,,,,,,,,,,,
,,,,,,,,,,,,l,0.804125,Correct!,,,,,,t1.png,t5.png,4,9.55E-11,19,female,2020-11-07_17h22.16.146,torte-q,2020.1.3,Win32,60,13368,,,,,,,,,,,,,,0,116,116,16,1,,,,,,,,,,,,,,,,,,,,,,,,,,
,,,,,,,,,,,,l,0.872545,Correct!,,,,,,t1.png,t4.png,3,0.0000131,19,female,2020-11-07_17h22.16.146,torte-q,2020.1.3,Win32,60,13368,,,,,,,,,,,,,,0,117,117,17,1,,,,,,,,,,,,,,,,,,,,,,,,,,
,,,,,,,,,,,,l,0.62134,Correct!,,,,,,t1.png,t3.png,2,0.056466,19,female,2020-11-07_17h22.16.146,torte-q,2020.1.3,Win32,60,13368,,,,,,,,,,,,,,0,118,118,87,1,,,,,,,,,,,,,,,,,,,,,,,,,,
,,,,,,,,,,,,,,Too slow :(,,,,,,t5.png,t4.png,1,0.90025,19,female,2020-11-07_17h22.16.146,torte-q,2020.1.3,Win32,60,13368,,,,,,,,,,,,,,0,119,119,27,1,,,,,,,,,,,,,,,,,,,,,,,,,,
,,,,,,,,,,,,,,,,,,,,,,,,19,female,2020-11-07_17h22.16.146,torte-q,2020.1.3,Win32,60,13368,loption,1.877185,,,,,,,,,,,,,,,,,4.025000305,4.6485,188.6666914,-129.3333479,1,0,0,s6,51.33335394,20.66665655,1,0,0,t2,213.3333588,-99.33334702,1,0,0,proceed,space,21.61404,space,0.93397,space,0.34762
