key_resp_8.keys,key_resp_8.rt,key_resp_9.keys,key_resp_9.rt,key_resp_10.keys,key_resp_10.rt,key_resp_11.keys,key_resp_11.rt,key_resp_2.keys,key_resp_2.rt,key_resp_3.keys,key_resp_3.rt,key_resp.keys,Feedback,train.thisRepN,train.thisTrialN,train.thisN,train.thisIndex,train.ran,torta_sx,torta_dx,difference,probability,age,gender,date,expName,psychopyVersion,OS,frameRate,participant,key_resp.rt,key_resp_15.keys,key_resp_15.rt,key_resp_6.keys,key_resp_6.rt,test1.thisRepN,test1.thisTrialN,test1.thisN,test1.thisIndex,test1.ran,key_resp_16.keys,key_resp_16.rt,key_resp_7.keys,key_resp_7.rt,test2.thisRepN,test2.thisTrialN,test2.thisN,test2.thisIndex,test2.ran,rating.response,rating.rt,mouse.x,mouse.y,mouse.leftButton,mouse.midButton,mouse.rightButton,mouse.clicked_name,mouse_2.x,mouse_2.y,mouse_2.leftButton,mouse_2.midButton,mouse_2.rightButton,mouse_2.clicked_name,mouse_3.x,mouse_3.y,mouse_3.leftButton,mouse_3.midButton,mouse_3.rightButton,mouse_3.clicked_name,key_resp_12.keys,key_resp_12.rt,key_resp_13.keys,key_resp_13.rt,key_resp_14.keys,key_resp_14.rt
space,1.72537,space,0.539785,space,1.756665,space,0.509315,s,0.45661,s,29.09941,,Too slow :(,0,0,0,45,1,t3.png,t2.png,1,0.90855,22,Male,2020-10-22_14h33.39.268,torte-q,2020.1.3,Win32,60,13395,,,,,,,,,,,,,,,,,,,,,,,,,,,,,,,,,,,,,,,,,,,,,
,,,,,,,,,,,,a,Incorrect,0,1,1,61,1,t1.png,t4.png,3,0.0000131,22,Male,2020-10-22_14h33.39.268,torte-q,2020.1.3,Win32,60,13395,0.07894,,,,,,,,,,,,,,,,,,,,,,,,,,,,,,,,,,,,,,,,,,,,
,,,,,,,,,,,,l,Correct!,0,2,2,94,1,t5.png,t1.png,4,9.55E-11,22,Male,2020-10-22_14h33.39.268,torte-q,2020.1.3,Win32,60,13395,0.450725,,,,,,,,,,,,,,,,,,,,,,,,,,,,,,,,,,,,,,,,,,,,
,,,,,,,,,,,,a,Correct!,0,3,3,85,1,t3.png,t2.png,1,0.90855,22,Male,2020-10-22_14h33.39.268,torte-q,2020.1.3,Win32,60,13395,0.55864,,,,,,,,,,,,,,,,,,,,,,,,,,,,,,,,,,,,,,,,,,,,
,,,,,,,,,,,,l,Correct!,0,4,4,119,1,t1.png,t5.png,4,9.55E-11,22,Male,2020-10-22_14h33.39.268,torte-q,2020.1.3,Win32,60,13395,0.70282,,,,,,,,,,,,,,,,,,,,,,,,,,,,,,,,,,,,,,,,,,,,
,,,,,,,,,,,,a,Correct!,0,5,5,29,1,t5.png,t5.png,0,0.97829,22,Male,2020-10-22_14h33.39.268,torte-q,2020.1.3,Win32,60,13395,0.97736,,,,,,,,,,,,,,,,,,,,,,,,,,,,,,,,,,,,,,,,,,,,
,,,,,,,,,,,,l,Correct!,0,6,6,107,1,t1.png,t1.png,0,0.978,22,Male,2020-10-22_14h33.39.268,torte-q,2020.1.3,Win32,60,13395,0.480755,,,,,,,,,,,,,,,,,,,,,,,,,,,,,,,,,,,,,,,,,,,,
,,,,,,,,,,,,l,Correct!,0,7,7,40,1,t1.png,t5.png,4,9.55E-11,22,Male,2020-10-22_14h33.39.268,torte-q,2020.1.3,Win32,60,13395,0.71686,,,,,,,,,,,,,,,,,,,,,,,,,,,,,,,,,,,,,,,,,,,,
,,,,,,,,,,,,l,Correct!,0,8,8,68,1,t1.png,t4.png,3,0.0000131,22,Male,2020-10-22_14h33.39.268,torte-q,2020.1.3,Win32,60,13395,0.678075,,,,,,,,,,,,,,,,,,,,,,,,,,,,,,,,,,,,,,,,,,,,
,,,,,,,,,,,,l,Correct!,0,9,9,65,1,t4.png,t5.png,1,0.90025,22,Male,2020-10-22_14h33.39.268,torte-q,2020.1.3,Win32,60,13395,1.13751,,,,,,,,,,,,,,,,,,,,,,,,,,,,,,,,,,,,,,,,,,,,
,,,,,,,,,,,,a,Correct!,0,10,10,58,1,t5.png,t4.png,1,0.90025,22,Male,2020-10-22_14h33.39.268,torte-q,2020.1.3,Win32,60,13395,1.002465,,,,,,,,,,,,,,,,,,,,,,,,,,,,,,,,,,,,,,,,,,,,
,,,,,,,,,,,,l,Correct!,0,11,11,67,1,t1.png,t5.png,4,9.55E-11,22,Male,2020-10-22_14h33.39.268,torte-q,2020.1.3,Win32,60,13395,0.666935,,,,,,,,,,,,,,,,,,,,,,,,,,,,,,,,,,,,,,,,,,,,
,,,,,,,,,,,,a,Incorrect,0,12,12,47,1,t4.png,t2.png,2,0.059078,22,Male,2020-10-22_14h33.39.268,torte-q,2020.1.3,Win32,60,13395,0.924155,,,,,,,,,,,,,,,,,,,,,,,,,,,,,,,,,,,,,,,,,,,,
,,,,,,,,,,,,l,Incorrect,0,13,13,110,1,t4.png,t5.png,1,0.90025,22,Male,2020-10-22_14h33.39.268,torte-q,2020.1.3,Win32,60,13395,0.70171,,,,,,,,,,,,,,,,,,,,,,,,,,,,,,,,,,,,,,,,,,,,
,,,,,,,,,,,,l,Incorrect,0,14,14,32,1,t4.png,t5.png,1,0.90025,22,Male,2020-10-22_14h33.39.268,torte-q,2020.1.3,Win32,60,13395,0.47223,,,,,,,,,,,,,,,,,,,,,,,,,,,,,,,,,,,,,,,,,,,,
,,,,,,,,,,,,a,Incorrect,0,15,15,36,1,t3.png,t1.png,2,0.0565,22,Male,2020-10-22_14h33.39.268,torte-q,2020.1.3,Win32,60,13395,0.70775,,,,,,,,,,,,,,,,,,,,,,,,,,,,,,,,,,,,,,,,,,,,
,,,,,,,,,,,,l,Incorrect,0,16,16,84,1,t1.png,t1.png,0,0.97829,22,Male,2020-10-22_14h33.39.268,torte-q,2020.1.3,Win32,60,13395,0.933835,,,,,,,,,,,,,,,,,,,,,,,,,,,,,,,,,,,,,,,,,,,,
,,,,,,,,,,,,l,Incorrect,0,17,17,101,1,t4.png,t5.png,1,0.90025,22,Male,2020-10-22_14h33.39.268,torte-q,2020.1.3,Win32,60,13395,0.958965,,,,,,,,,,,,,,,,,,,,,,,,,,,,,,,,,,,,,,,,,,,,
,,,,,,,,,,,,a,Incorrect,0,18,18,30,1,t3.png,t1.png,2,0.056466,22,Male,2020-10-22_14h33.39.268,torte-q,2020.1.3,Win32,60,13395,0.591005,,,,,,,,,,,,,,,,,,,,,,,,,,,,,,,,,,,,,,,,,,,,
,,,,,,,,,,,,a,Incorrect,0,19,19,73,1,t4.png,t2.png,2,0.059078,22,Male,2020-10-22_14h33.39.268,torte-q,2020.1.3,Win32,60,13395,0.54999,,,,,,,,,,,,,,,,,,,,,,,,,,,,,,,,,,,,,,,,,,,,
,,,,,,,,,,,,l,Correct!,0,20,20,90,1,t1.png,t5.png,4,9.55E-11,22,Male,2020-10-22_14h33.39.268,torte-q,2020.1.3,Win32,60,13395,0.55101,,,,,,,,,,,,,,,,,,,,,,,,,,,,,,,,,,,,,,,,,,,,
,,,,,,,,,,,,l,Correct!,0,21,21,117,1,t1.png,t5.png,4,9.55E-11,22,Male,2020-10-22_14h33.39.268,torte-q,2020.1.3,Win32,60,13395,0.55909,,,,,,,,,,,,,,,,,,,,,,,,,,,,,,,,,,,,,,,,,,,,
,,,,,,,,,,,,a,Incorrect,0,22,22,82,1,t5.png,t1.png,4,9.55E-11,22,Male,2020-10-22_14h33.39.268,torte-q,2020.1.3,Win32,60,13395,0.51949,,,,,,,,,,,,,,,,,,,,,,,,,,,,,,,,,,,,,,,,,,,,
,,,,,,,,,,,,l,Incorrect,0,23,23,109,1,t5.png,t5.png,0,0.97829,22,Male,2020-10-22_14h33.39.268,torte-q,2020.1.3,Win32,60,13395,0.4667,,,,,,,,,,,,,,,,,,,,,,,,,,,,,,,,,,,,,,,,,,,,
,,,,,,,,,,,,l,Correct!,0,24,24,31,1,t1.png,t5.png,4,9.55E-11,22,Male,2020-10-22_14h33.39.268,torte-q,2020.1.3,Win32,60,13395,0.62864,,,,,,,,,,,,,,,,,,,,,,,,,,,,,,,,,,,,,,,,,,,,
,,,,,,,,,,,,l,Incorrect,0,25,25,77,1,t1.png,t1.png,0,0.97829,22,Male,2020-10-22_14h33.39.268,torte-q,2020.1.3,Win32,60,13395,0.858225,,,,,,,,,,,,,,,,,,,,,,,,,,,,,,,,,,,,,,,,,,,,
,,,,,,,,,,,,a,Incorrect,0,26,26,33,1,t5.png,t1.png,4,9.55E-11,22,Male,2020-10-22_14h33.39.268,torte-q,2020.1.3,Win32,60,13395,0.446495,,,,,,,,,,,,,,,,,,,,,,,,,,,,,,,,,,,,,,,,,,,,
,,,,,,,,,,,,a,Incorrect,0,27,27,27,1,t3.png,t1.png,2,0.0565,22,Male,2020-10-22_14h33.39.268,torte-q,2020.1.3,Win32,60,13395,0.579205,,,,,,,,,,,,,,,,,,,,,,,,,,,,,,,,,,,,,,,,,,,,
,,,,,,,,,,,,a,Incorrect,0,28,28,12,1,t5.png,t1.png,4,9.55E-11,22,Male,2020-10-22_14h33.39.268,torte-q,2020.1.3,Win32,60,13395,0.538965,,,,,,,,,,,,,,,,,,,,,,,,,,,,,,,,,,,,,,,,,,,,
,,,,,,,,,,,,l,Incorrect,0,29,29,25,1,t5.png,t5.png,0,0.97829,22,Male,2020-10-22_14h33.39.268,torte-q,2020.1.3,Win32,60,13395,1.091945,,,,,,,,,,,,,,,,,,,,,,,,,,,,,,,,,,,,,,,,,,,,
,,,,,,,,,,,,a,Correct!,0,30,30,23,1,t5.png,t4.png,1,0.90025,22,Male,2020-10-22_14h33.39.268,torte-q,2020.1.3,Win32,60,13395,1.07865,,,,,,,,,,,,,,,,,,,,,,,,,,,,,,,,,,,,,,,,,,,,
,,,,,,,,,,,,l,Incorrect,0,31,31,49,1,t4.png,t5.png,1,0.9,22,Male,2020-10-22_14h33.39.268,torte-q,2020.1.3,Win32,60,13395,0.850425,,,,,,,,,,,,,,,,,,,,,,,,,,,,,,,,,,,,,,,,,,,,
,,,,,,,,,,,,a,Incorrect,0,32,32,87,1,t5.png,t1.png,4,9.55E-11,22,Male,2020-10-22_14h33.39.268,torte-q,2020.1.3,Win32,60,13395,0.430715,,,,,,,,,,,,,,,,,,,,,,,,,,,,,,,,,,,,,,,,,,,,
,,,,,,,,,,,,l,Correct!,0,33,33,86,1,t3.png,t1.png,2,0.056466,22,Male,2020-10-22_14h33.39.268,torte-q,2020.1.3,Win32,60,13395,0.492205,,,,,,,,,,,,,,,,,,,,,,,,,,,,,,,,,,,,,,,,,,,,
,,,,,,,,,,,,l,Incorrect,0,34,34,59,1,t5.png,t4.png,1,0.9,22,Male,2020-10-22_14h33.39.268,torte-q,2020.1.3,Win32,60,13395,0.943135,,,,,,,,,,,,,,,,,,,,,,,,,,,,,,,,,,,,,,,,,,,,
,,,,,,,,,,,,a,Correct!,0,35,35,42,1,t5.png,t4.png,1,0.90025,22,Male,2020-10-22_14h33.39.268,torte-q,2020.1.3,Win32,60,13395,0.433395,,,,,,,,,,,,,,,,,,,,,,,,,,,,,,,,,,,,,,,,,,,,
,,,,,,,,,,,,a,Correct!,0,36,36,39,1,t3.png,t2.png,1,0.90855,22,Male,2020-10-22_14h33.39.268,torte-q,2020.1.3,Win32,60,13395,0.58903,,,,,,,,,,,,,,,,,,,,,,,,,,,,,,,,,,,,,,,,,,,,
,,,,,,,,,,,,l,Correct!,0,37,37,115,1,t2.png,t4.png,2,0.059078,22,Male,2020-10-22_14h33.39.268,torte-q,2020.1.3,Win32,60,13395,0.475885,,,,,,,,,,,,,,,,,,,,,,,,,,,,,,,,,,,,,,,,,,,,
,,,,,,,,,,,,a,Correct!,0,38,38,76,1,t3.png,t2.png,1,0.90855,22,Male,2020-10-22_14h33.39.268,torte-q,2020.1.3,Win32,60,13395,0.400075,,,,,,,,,,,,,,,,,,,,,,,,,,,,,,,,,,,,,,,,,,,,
,,,,,,,,,,,,a,Correct!,0,39,39,34,1,t5.png,t4.png,1,0.9,22,Male,2020-10-22_14h33.39.268,torte-q,2020.1.3,Win32,60,13395,0.60568,,,,,,,,,,,,,,,,,,,,,,,,,,,,,,,,,,,,,,,,,,,,
,,,,,,,,,,,,l,Incorrect,0,40,40,13,1,t5.png,t5.png,0,0.97829,22,Male,2020-10-22_14h33.39.268,torte-q,2020.1.3,Win32,60,13395,0.45976,,,,,,,,,,,,,,,,,,,,,,,,,,,,,,,,,,,,,,,,,,,,
,,,,,,,,,,,,a,Incorrect,0,41,41,89,1,t1.png,t4.png,3,0.0000131,22,Male,2020-10-22_14h33.39.268,torte-q,2020.1.3,Win32,60,13395,0.680325,,,,,,,,,,,,,,,,,,,,,,,,,,,,,,,,,,,,,,,,,,,,
,,,,,,,,,,,,l,Correct!,0,42,42,103,1,t3.png,t1.png,2,0.056466,22,Male,2020-10-22_14h33.39.268,torte-q,2020.1.3,Win32,60,13395,0.63562,,,,,,,,,,,,,,,,,,,,,,,,,,,,,,,,,,,,,,,,,,,,
,,,,,,,,,,,,l,Correct!,0,43,43,4,1,t1.png,t5.png,4,9.55E-11,22,Male,2020-10-22_14h33.39.268,torte-q,2020.1.3,Win32,60,13395,0.64069,,,,,,,,,,,,,,,,,,,,,,,,,,,,,,,,,,,,,,,,,,,,
,,,,,,,,,,,,l,Correct!,0,44,44,5,1,t2.png,t4.png,2,0.059078,22,Male,2020-10-22_14h33.39.268,torte-q,2020.1.3,Win32,60,13395,0.725665,,,,,,,,,,,,,,,,,,,,,,,,,,,,,,,,,,,,,,,,,,,,
,,,,,,,,,,,,l,Correct!,0,45,45,37,1,t1.png,t4.png,3,0.0000131,22,Male,2020-10-22_14h33.39.268,torte-q,2020.1.3,Win32,60,13395,0.70316,,,,,,,,,,,,,,,,,,,,,,,,,,,,,,,,,,,,,,,,,,,,
,,,,,,,,,,,,l,Incorrect,0,46,46,114,1,t2.png,t3.png,1,0.90855,22,Male,2020-10-22_14h33.39.268,torte-q,2020.1.3,Win32,60,13395,0.609405,,,,,,,,,,,,,,,,,,,,,,,,,,,,,,,,,,,,,,,,,,,,
,,,,,,,,,,,,a,Incorrect,0,47,47,56,1,t5.png,t1.png,4,9.55E-11,22,Male,2020-10-22_14h33.39.268,torte-q,2020.1.3,Win32,60,13395,0.37585,,,,,,,,,,,,,,,,,,,,,,,,,,,,,,,,,,,,,,,,,,,,
,,,,,,,,,,,,l,Incorrect,0,48,48,21,1,t5.png,t4.png,1,0.90025,22,Male,2020-10-22_14h33.39.268,torte-q,2020.1.3,Win32,60,13395,0.57524,,,,,,,,,,,,,,,,,,,,,,,,,,,,,,,,,,,,,,,,,,,,
,,,,,,,,,,,,a,Correct!,0,49,49,16,1,t5.png,t4.png,1,0.9,22,Male,2020-10-22_14h33.39.268,torte-q,2020.1.3,Win32,60,13395,0.50284,,,,,,,,,,,,,,,,,,,,,,,,,,,,,,,,,,,,,,,,,,,,
,,,,,,,,,,,,a,Incorrect,0,50,50,43,1,t4.png,t2.png,2,0.059078,22,Male,2020-10-22_14h33.39.268,torte-q,2020.1.3,Win32,60,13395,0.64122,,,,,,,,,,,,,,,,,,,,,,,,,,,,,,,,,,,,,,,,,,,,
,,,,,,,,,,,,l,Correct!,0,51,51,51,1,t3.png,t1.png,2,0.056466,22,Male,2020-10-22_14h33.39.268,torte-q,2020.1.3,Win32,60,13395,0.59799,,,,,,,,,,,,,,,,,,,,,,,,,,,,,,,,,,,,,,,,,,,,
,,,,,,,,,,,,a,Incorrect,0,52,52,108,1,t5.png,t1.png,4,9.55E-11,22,Male,2020-10-22_14h33.39.268,torte-q,2020.1.3,Win32,60,13395,0.37288,,,,,,,,,,,,,,,,,,,,,,,,,,,,,,,,,,,,,,,,,,,,
,,,,,,,,,,,,l,Correct!,0,53,53,52,1,t2.png,t4.png,2,0.059078,22,Male,2020-10-22_14h33.39.268,torte-q,2020.1.3,Win32,60,13395,0.67649,,,,,,,,,,,,,,,,,,,,,,,,,,,,,,,,,,,,,,,,,,,,
,,,,,,,,,,,,a,Correct!,0,54,54,71,1,t5.png,t5.png,0,0.97829,22,Male,2020-10-22_14h33.39.268,torte-q,2020.1.3,Win32,60,13395,0.33601,,,,,,,,,,,,,,,,,,,,,,,,,,,,,,,,,,,,,,,,,,,,
,,,,,,,,,,,,a,Correct!,0,55,55,95,1,t1.png,t1.png,0,0.978,22,Male,2020-10-22_14h33.39.268,torte-q,2020.1.3,Win32,60,13395,0.512895,,,,,,,,,,,,,,,,,,,,,,,,,,,,,,,,,,,,,,,,,,,,
,,,,,,,,,,,,a,Correct!,0,56,56,63,1,t2.png,t3.png,1,0.909,22,Male,2020-10-22_14h33.39.268,torte-q,2020.1.3,Win32,60,13395,0.57134,,,,,,,,,,,,,,,,,,,,,,,,,,,,,,,,,,,,,,,,,,,,
,,,,,,,,,,,,l,Incorrect,0,57,57,64,1,t1.png,t1.png,0,0.978,22,Male,2020-10-22_14h33.39.268,torte-q,2020.1.3,Win32,60,13395,0.730755,,,,,,,,,,,,,,,,,,,,,,,,,,,,,,,,,,,,,,,,,,,,
,,,,,,,,,,,,a,Correct!,0,58,58,83,1,t3.png,t1.png,2,0.056466,22,Male,2020-10-22_14h33.39.268,torte-q,2020.1.3,Win32,60,13395,0.89217,,,,,,,,,,,,,,,,,,,,,,,,,,,,,,,,,,,,,,,,,,,,
,,,,,,,,,,,,a,Correct!,0,59,59,8,1,t3.png,t2.png,1,0.90855,22,Male,2020-10-22_14h33.39.268,torte-q,2020.1.3,Win32,60,13395,1.56728,,,,,,,,,,,,,,,,,,,,,,,,,,,,,,,,,,,,,,,,,,,,
,,,,,,,,,,,,a,Incorrect,0,60,60,72,1,t4.png,t2.png,2,0.059078,22,Male,2020-10-22_14h33.39.268,torte-q,2020.1.3,Win32,60,13395,1.27076,,,,,,,,,,,,,,,,,,,,,,,,,,,,,,,,,,,,,,,,,,,,
,,,,,,,,,,,,l,Incorrect,0,61,61,75,1,t1.png,t1.png,0,0.97829,22,Male,2020-10-22_14h33.39.268,torte-q,2020.1.3,Win32,60,13395,1.202575,,,,,,,,,,,,,,,,,,,,,,,,,,,,,,,,,,,,,,,,,,,,
,,,,,,,,,,,,a,Incorrect,0,62,62,60,1,t2.png,t4.png,2,0.059078,22,Male,2020-10-22_14h33.39.268,torte-q,2020.1.3,Win32,60,13395,0.44988,,,,,,,,,,,,,,,,,,,,,,,,,,,,,,,,,,,,,,,,,,,,
,,,,,,,,,,,,l,Incorrect,0,63,63,62,1,t5.png,t5.png,0,0.978,22,Male,2020-10-22_14h33.39.268,torte-q,2020.1.3,Win32,60,13395,1.052915,,,,,,,,,,,,,,,,,,,,,,,,,,,,,,,,,,,,,,,,,,,,
,,,,,,,,,,,,l,Correct!,0,64,64,113,1,t5.png,t4.png,1,0.9,22,Male,2020-10-22_14h33.39.268,torte-q,2020.1.3,Win32,60,13395,1.089385,,,,,,,,,,,,,,,,,,,,,,,,,,,,,,,,,,,,,,,,,,,,
,,,,,,,,,,,,l,Incorrect,0,65,65,15,1,t3.png,t2.png,1,0.90855,22,Male,2020-10-22_14h33.39.268,torte-q,2020.1.3,Win32,60,13395,0.580065,,,,,,,,,,,,,,,,,,,,,,,,,,,,,,,,,,,,,,,,,,,,
,,,,,,,,,,,,a,Correct!,0,66,66,24,1,t4.png,t2.png,2,0.059078,22,Male,2020-10-22_14h33.39.268,torte-q,2020.1.3,Win32,60,13395,0.62781,,,,,,,,,,,,,,,,,,,,,,,,,,,,,,,,,,,,,,,,,,,,
,,,,,,,,,,,,a,Incorrect,0,67,67,14,1,t2.png,t4.png,2,0.059078,22,Male,2020-10-22_14h33.39.268,torte-q,2020.1.3,Win32,60,13395,1.049885,,,,,,,,,,,,,,,,,,,,,,,,,,,,,,,,,,,,,,,,,,,,
,,,,,,,,,,,,l,Incorrect,0,68,68,96,1,t1.png,t1.png,0,0.97829,22,Male,2020-10-22_14h33.39.268,torte-q,2020.1.3,Win32,60,13395,0.5738,,,,,,,,,,,,,,,,,,,,,,,,,,,,,,,,,,,,,,,,,,,,
,,,,,,,,,,,,a,Correct!,0,69,69,78,1,t1.png,t1.png,0,0.978,22,Male,2020-10-22_14h33.39.268,torte-q,2020.1.3,Win32,60,13395,0.34107,,,,,,,,,,,,,,,,,,,,,,,,,,,,,,,,,,,,,,,,,,,,
,,,,,,,,,,,,a,Incorrect,0,70,70,19,1,t4.png,t2.png,2,0.059078,22,Male,2020-10-22_14h33.39.268,torte-q,2020.1.3,Win32,60,13395,0.454175,,,,,,,,,,,,,,,,,,,,,,,,,,,,,,,,,,,,,,,,,,,,
,,,,,,,,,,,,a,Correct!,0,71,71,74,1,t5.png,t4.png,1,0.9,22,Male,2020-10-22_14h33.39.268,torte-q,2020.1.3,Win32,60,13395,0.35443,,,,,,,,,,,,,,,,,,,,,,,,,,,,,,,,,,,,,,,,,,,,
,,,,,,,,,,,,a,Incorrect,0,72,72,91,1,t1.png,t4.png,3,0.0000131,22,Male,2020-10-22_14h33.39.268,torte-q,2020.1.3,Win32,60,13395,0.68353,,,,,,,,,,,,,,,,,,,,,,,,,,,,,,,,,,,,,,,,,,,,
,,,,,,,,,,,,l,Correct!,0,73,73,55,1,t2.png,t4.png,2,0.059078,22,Male,2020-10-22_14h33.39.268,torte-q,2020.1.3,Win32,60,13395,2.022225,,,,,,,,,,,,,,,,,,,,,,,,,,,,,,,,,,,,,,,,,,,,
,,,,,,,,,,,,a,Incorrect,0,74,74,80,1,t1.png,t4.png,3,0.0000131,22,Male,2020-10-22_14h33.39.268,torte-q,2020.1.3,Win32,60,13395,0.40012,,,,,,,,,,,,,,,,,,,,,,,,,,,,,,,,,,,,,,,,,,,,
,,,,,,,,,,,,l,Incorrect,0,75,75,105,1,t3.png,t2.png,1,0.90855,22,Male,2020-10-22_14h33.39.268,torte-q,2020.1.3,Win32,60,13395,0.354715,,,,,,,,,,,,,,,,,,,,,,,,,,,,,,,,,,,,,,,,,,,,
,,,,,,,,,,,,a,Correct!,0,76,76,106,1,t2.png,t3.png,1,0.90855,22,Male,2020-10-22_14h33.39.268,torte-q,2020.1.3,Win32,60,13395,0.370835,,,,,,,,,,,,,,,,,,,,,,,,,,,,,,,,,,,,,,,,,,,,
,,,,,,,,,,,,a,Correct!,0,77,77,22,1,t2.png,t3.png,1,0.90855,22,Male,2020-10-22_14h33.39.268,torte-q,2020.1.3,Win32,60,13395,0.4507,,,,,,,,,,,,,,,,,,,,,,,,,,,,,,,,,,,,,,,,,,,,
,,,,,,,,,,,,l,Incorrect,0,78,78,20,1,t2.png,t3.png,1,0.90855,22,Male,2020-10-22_14h33.39.268,torte-q,2020.1.3,Win32,60,13395,0.518815,,,,,,,,,,,,,,,,,,,,,,,,,,,,,,,,,,,,,,,,,,,,
,,,,,,,,,,,,a,Incorrect,0,79,79,11,1,t1.png,t4.png,3,0.0000131,22,Male,2020-10-22_14h33.39.268,torte-q,2020.1.3,Win32,60,13395,0.496195,,,,,,,,,,,,,,,,,,,,,,,,,,,,,,,,,,,,,,,,,,,,
,,,,,,,,,,,,l,Incorrect,0,80,80,79,1,t3.png,t2.png,1,0.909,22,Male,2020-10-22_14h33.39.268,torte-q,2020.1.3,Win32,60,13395,0.34744,,,,,,,,,,,,,,,,,,,,,,,,,,,,,,,,,,,,,,,,,,,,
,,,,,,,,,,,,a,Incorrect,0,81,81,102,1,t4.png,t2.png,2,0.059078,22,Male,2020-10-22_14h33.39.268,torte-q,2020.1.3,Win32,60,13395,0.308185,,,,,,,,,,,,,,,,,,,,,,,,,,,,,,,,,,,,,,,,,,,,
,,,,,,,,,,,,l,Incorrect,0,82,82,9,1,t4.png,t5.png,1,0.9,22,Male,2020-10-22_14h33.39.268,torte-q,2020.1.3,Win32,60,13395,0.414185,,,,,,,,,,,,,,,,,,,,,,,,,,,,,,,,,,,,,,,,,,,,
,,,,,,,,,,,,a,Incorrect,0,83,83,17,1,t1.png,t4.png,3,0.0000131,22,Male,2020-10-22_14h33.39.268,torte-q,2020.1.3,Win32,60,13395,0.167715,,,,,,,,,,,,,,,,,,,,,,,,,,,,,,,,,,,,,,,,,,,,
,,,,,,,,,,,,a,Incorrect,0,84,84,26,1,t4.png,t2.png,2,0.0591,22,Male,2020-10-22_14h33.39.268,torte-q,2020.1.3,Win32,60,13395,0.306735,,,,,,,,,,,,,,,,,,,,,,,,,,,,,,,,,,,,,,,,,,,,
,,,,,,,,,,,,l,Correct!,0,85,85,57,1,t2.png,t4.png,2,0.059078,22,Male,2020-10-22_14h33.39.268,torte-q,2020.1.3,Win32,60,13395,0.25506,,,,,,,,,,,,,,,,,,,,,,,,,,,,,,,,,,,,,,,,,,,,
,,,,,,,,,,,,l,Correct!,0,86,86,6,1,t1.png,t4.png,3,0.0000131,22,Male,2020-10-22_14h33.39.268,torte-q,2020.1.3,Win32,60,13395,0.331375,,,,,,,,,,,,,,,,,,,,,,,,,,,,,,,,,,,,,,,,,,,,
,,,,,,,,,,,,l,Incorrect,0,87,87,100,1,t4.png,t5.png,1,0.90025,22,Male,2020-10-22_14h33.39.268,torte-q,2020.1.3,Win32,60,13395,0.437025,,,,,,,,,,,,,,,,,,,,,,,,,,,,,,,,,,,,,,,,,,,,
,,,,,,,,,,,,a,Incorrect,0,88,88,38,1,t3.png,t1.png,2,0.056466,22,Male,2020-10-22_14h33.39.268,torte-q,2020.1.3,Win32,60,13395,1.169665,,,,,,,,,,,,,,,,,,,,,,,,,,,,,,,,,,,,,,,,,,,,
,,,,,,,,,,,,l,Incorrect,0,89,89,48,1,t5.png,t5.png,0,0.97829,22,Male,2020-10-22_14h33.39.268,torte-q,2020.1.3,Win32,60,13395,1.250045,,,,,,,,,,,,,,,,,,,,,,,,,,,,,,,,,,,,,,,,,,,,
,,,,,,,,,,,,a,Incorrect,0,90,90,111,1,t5.png,t1.png,4,9.55E-11,22,Male,2020-10-22_14h33.39.268,torte-q,2020.1.3,Win32,60,13395,0.38328,,,,,,,,,,,,,,,,,,,,,,,,,,,,,,,,,,,,,,,,,,,,
,,,,,,,,,,,,a,Correct!,0,91,91,2,1,t3.png,t2.png,1,0.90855,22,Male,2020-10-22_14h33.39.268,torte-q,2020.1.3,Win32,60,13395,0.380555,,,,,,,,,,,,,,,,,,,,,,,,,,,,,,,,,,,,,,,,,,,,
,,,,,,,,,,,,a,Correct!,0,92,92,41,1,t3.png,t2.png,1,0.90855,22,Male,2020-10-22_14h33.39.268,torte-q,2020.1.3,Win32,60,13395,0.58012,,,,,,,,,,,,,,,,,,,,,,,,,,,,,,,,,,,,,,,,,,,,
,,,,,,,,,,,,a,Correct!,0,93,93,66,1,t4.png,t5.png,1,0.9,22,Male,2020-10-22_14h33.39.268,torte-q,2020.1.3,Win32,60,13395,0.5334,,,,,,,,,,,,,,,,,,,,,,,,,,,,,,,,,,,,,,,,,,,,
,,,,,,,,,,,,a,Correct!,0,94,94,97,1,t5.png,t5.png,0,0.97829,22,Male,2020-10-22_14h33.39.268,torte-q,2020.1.3,Win32,60,13395,0.55026,,,,,,,,,,,,,,,,,,,,,,,,,,,,,,,,,,,,,,,,,,,,
,,,,,,,,,,,,l,Correct!,0,95,95,35,1,t1.png,t4.png,3,0.0000131,22,Male,2020-10-22_14h33.39.268,torte-q,2020.1.3,Win32,60,13395,1.55756,,,,,,,,,,,,,,,,,,,,,,,,,,,,,,,,,,,,,,,,,,,,
,,,,,,,,,,,,l,Correct!,0,96,96,54,1,t1.png,t5.png,4,9.55E-11,22,Male,2020-10-22_14h33.39.268,torte-q,2020.1.3,Win32,60,13395,1.357855,,,,,,,,,,,,,,,,,,,,,,,,,,,,,,,,,,,,,,,,,,,,
,,,,,,,,,,,,l,Incorrect,0,97,97,81,1,t1.png,t1.png,0,0.97829,22,Male,2020-10-22_14h33.39.268,torte-q,2020.1.3,Win32,60,13395,0.733995,,,,,,,,,,,,,,,,,,,,,,,,,,,,,,,,,,,,,,,,,,,,
,,,,,,,,,,,,l,Incorrect,0,98,98,118,1,t5.png,t5.png,0,0.978,22,Male,2020-10-22_14h33.39.268,torte-q,2020.1.3,Win32,60,13395,1.83892,,,,,,,,,,,,,,,,,,,,,,,,,,,,,,,,,,,,,,,,,,,,
,,,,,,,,,,,,a,Incorrect,0,99,99,1,1,t2.png,t4.png,2,0.059078,22,Male,2020-10-22_14h33.39.268,torte-q,2020.1.3,Win32,60,13395,0.533375,,,,,,,,,,,,,,,,,,,,,,,,,,,,,,,,,,,,,,,,,,,,
,,,,,,,,,,,,l,Incorrect,0,100,100,104,1,t2.png,t3.png,1,0.90855,22,Male,2020-10-22_14h33.39.268,torte-q,2020.1.3,Win32,60,13395,0.388805,,,,,,,,,,,,,,,,,,,,,,,,,,,,,,,,,,,,,,,,,,,,
,,,,,,,,,,,,l,Correct!,0,101,101,50,1,t5.png,t1.png,4,9.55E-11,22,Male,2020-10-22_14h33.39.268,torte-q,2020.1.3,Win32,60,13395,0.37181,,,,,,,,,,,,,,,,,,,,,,,,,,,,,,,,,,,,,,,,,,,,
,,,,,,,,,,,,a,Incorrect,0,102,102,98,1,t2.png,t4.png,2,0.0591,22,Male,2020-10-22_14h33.39.268,torte-q,2020.1.3,Win32,60,13395,0.443425,,,,,,,,,,,,,,,,,,,,,,,,,,,,,,,,,,,,,,,,,,,,
,,,,,,,,,,,,l,Incorrect,0,103,103,10,1,t2.png,t3.png,1,0.90855,22,Male,2020-10-22_14h33.39.268,torte-q,2020.1.3,Win32,60,13395,0.384125,,,,,,,,,,,,,,,,,,,,,,,,,,,,,,,,,,,,,,,,,,,,
,,,,,,,,,,,,l,Correct!,0,104,104,88,1,t3.png,t1.png,2,0.056466,22,Male,2020-10-22_14h33.39.268,torte-q,2020.1.3,Win32,60,13395,0.439075,,,,,,,,,,,,,,,,,,,,,,,,,,,,,,,,,,,,,,,,,,,,
,,,,,,,,,,,,l,Incorrect,0,105,105,53,1,t3.png,t1.png,2,0.056466,22,Male,2020-10-22_14h33.39.268,torte-q,2020.1.3,Win32,60,13395,0.43614,,,,,,,,,,,,,,,,,,,,,,,,,,,,,,,,,,,,,,,,,,,,
,,,,,,,,,,,,a,Correct!,0,106,106,28,1,t2.png,t3.png,1,0.909,22,Male,2020-10-22_14h33.39.268,torte-q,2020.1.3,Win32,60,13395,0.784615,,,,,,,,,,,,,,,,,,,,,,,,,,,,,,,,,,,,,,,,,,,,
,,,,,,,,,,,,a,Correct!,0,107,107,116,1,t5.png,t4.png,1,0.90025,22,Male,2020-10-22_14h33.39.268,torte-q,2020.1.3,Win32,60,13395,1.135785,,,,,,,,,,,,,,,,,,,,,,,,,,,,,,,,,,,,,,,,,,,,
,,,,,,,,,,,,a,Incorrect,0,108,108,69,1,t4.png,t2.png,2,0.059078,22,Male,2020-10-22_14h33.39.268,torte-q,2020.1.3,Win32,60,13395,1.304965,,,,,,,,,,,,,,,,,,,,,,,,,,,,,,,,,,,,,,,,,,,,
,,,,,,,,,,,,a,Incorrect,0,109,109,46,1,t4.png,t2.png,2,0.059078,22,Male,2020-10-22_14h33.39.268,torte-q,2020.1.3,Win32,60,13395,0.891205,,,,,,,,,,,,,,,,,,,,,,,,,,,,,,,,,,,,,,,,,,,,
,,,,,,,,,,,,a,Incorrect,0,110,110,92,1,t2.png,t3.png,1,0.909,22,Male,2020-10-22_14h33.39.268,torte-q,2020.1.3,Win32,60,13395,0.65413,,,,,,,,,,,,,,,,,,,,,,,,,,,,,,,,,,,,,,,,,,,,
,,,,,,,,,,,,a,Incorrect,0,111,111,99,1,t1.png,t5.png,4,9.55E-11,22,Male,2020-10-22_14h33.39.268,torte-q,2020.1.3,Win32,60,13395,0.890555,,,,,,,,,,,,,,,,,,,,,,,,,,,,,,,,,,,,,,,,,,,,
,,,,,,,,,,,,l,Correct!,0,112,112,18,1,t4.png,t5.png,1,0.90025,22,Male,2020-10-22_14h33.39.268,torte-q,2020.1.3,Win32,60,13395,1.157305,,,,,,,,,,,,,,,,,,,,,,,,,,,,,,,,,,,,,,,,,,,,
,,,,,,,,,,,,l,Correct!,0,113,113,44,1,t2.png,t3.png,1,0.909,22,Male,2020-10-22_14h33.39.268,torte-q,2020.1.3,Win32,60,13395,0.525435,,,,,,,,,,,,,,,,,,,,,,,,,,,,,,,,,,,,,,,,,,,,
,,,,,,,,,,,,l,Correct!,0,114,114,0,1,t5.png,t1.png,4,9.55E-11,22,Male,2020-10-22_14h33.39.268,torte-q,2020.1.3,Win32,60,13395,1.551275,,,,,,,,,,,,,,,,,,,,,,,,,,,,,,,,,,,,,,,,,,,,
,,,,,,,,,,,,l,Incorrect,0,115,115,112,1,t1.png,t1.png,0,0.97829,22,Male,2020-10-22_14h33.39.268,torte-q,2020.1.3,Win32,60,13395,0.543435,,,,,,,,,,,,,,,,,,,,,,,,,,,,,,,,,,,,,,,,,,,,
,,,,,,,,,,,,l,Correct!,0,116,116,7,1,t4.png,t5.png,1,0.90025,22,Male,2020-10-22_14h33.39.268,torte-q,2020.1.3,Win32,60,13395,0.304275,,,,,,,,,,,,,,,,,,,,,,,,,,,,,,,,,,,,,,,,,,,,
,,,,,,,,,,,,a,Incorrect,0,117,117,3,1,t1.png,t5.png,4,9.55E-11,22,Male,2020-10-22_14h33.39.268,torte-q,2020.1.3,Win32,60,13395,0.900035,,,,,,,,,,,,,,,,,,,,,,,,,,,,,,,,,,,,,,,,,,,,
,,,,,,,,,,,,a,Incorrect,0,118,118,93,1,t2.png,t4.png,2,0.059078,22,Male,2020-10-22_14h33.39.268,torte-q,2020.1.3,Win32,60,13395,1.04482,,,,,,,,,,,,,,,,,,,,,,,,,,,,,,,,,,,,,,,,,,,,
,,,,,,,,,,,,l,Incorrect,0,119,119,70,1,t5.png,t5.png,0,0.978,22,Male,2020-10-22_14h33.39.268,torte-q,2020.1.3,Win32,60,13395,0.441775,,,,,,,,,,,,,,,,,,,,,,,,,,,,,,,,,,,,,,,,,,,,
,,,,,,,,,,,,a,Incorrect,,,,,,t3.png,t5.png,2,0.056466,22,Male,2020-10-22_14h33.39.268,torte-q,2020.1.3,Win32,60,13395,1.26835,j,2.16755,g,17.07225,0,0,0,6,1,,,,,,,,,,,,,,,,,,,,,,,,,,,,,,,,,,,
,,,,,,,,,,,,l,Correct!,,,,,,t1.png,t3.png,2,0.056466,22,Male,2020-10-22_14h33.39.268,torte-q,2020.1.3,Win32,60,13395,2.091875,,,,,0,1,1,69,1,,,,,,,,,,,,,,,,,,,,,,,,,,,,,,,,,,,
,,,,,,,,,,,,l,Incorrect,,,,,,t2.png,t1.png,1,0.90025,22,Male,2020-10-22_14h33.39.268,torte-q,2020.1.3,Win32,60,13395,2.17883,,,,,0,2,2,4,1,,,,,,,,,,,,,,,,,,,,,,,,,,,,,,,,,,,
,,,,,,,,,,,,l,Correct!,,,,,,t3.png,t1.png,2,0.056466,22,Male,2020-10-22_14h33.39.268,torte-q,2020.1.3,Win32,60,13395,1.54256,,,,,0,3,3,29,1,,,,,,,,,,,,,,,,,,,,,,,,,,,,,,,,,,,
,,,,,,,,,,,,a,Correct!,,,,,,t4.png,t4.png,0,0.98115,22,Male,2020-10-22_14h33.39.268,torte-q,2020.1.3,Win32,60,13395,2.427305,,,,,0,4,4,80,1,,,,,,,,,,,,,,,,,,,,,,,,,,,,,,,,,,,
,,,,,,,,,,,,a,Correct!,,,,,,t5.png,t5.png,0,0.978,22,Male,2020-10-22_14h33.39.268,torte-q,2020.1.3,Win32,60,13395,1.82073,,,,,0,5,5,117,1,,,,,,,,,,,,,,,,,,,,,,,,,,,,,,,,,,,
,,,,,,,,,,,,l,Incorrect,,,,,,t1.png,t2.png,1,0.90025,22,Male,2020-10-22_14h33.39.268,torte-q,2020.1.3,Win32,60,13395,1.63862,,,,,0,6,6,72,1,,,,,,,,,,,,,,,,,,,,,,,,,,,,,,,,,,,
,,,,,,,,,,,,,Too slow :(,,,,,,t3.png,t2.png,1,0.90855,22,Male,2020-10-22_14h33.39.268,torte-q,2020.1.3,Win32,60,13395,,,,,,0,7,7,53,1,,,,,,,,,,,,,,,,,,,,,,,,,,,,,,,,,,,
,,,,,,,,,,,,l,Correct!,,,,,,t4.png,t2.png,2,0.059078,22,Male,2020-10-22_14h33.39.268,torte-q,2020.1.3,Win32,60,13395,0.00026,,,,,0,8,8,86,1,,,,,,,,,,,,,,,,,,,,,,,,,,,,,,,,,,,
,,,,,,,,,,,,,Too slow :(,,,,,,t5.png,t5.png,0,0.97829,22,Male,2020-10-22_14h33.39.268,torte-q,2020.1.3,Win32,60,13395,,,,,,0,9,9,25,1,,,,,,,,,,,,,,,,,,,,,,,,,,,,,,,,,,,
,,,,,,,,,,,,,Too slow :(,,,,,,t2.png,t1.png,1,0.90025,22,Male,2020-10-22_14h33.39.268,torte-q,2020.1.3,Win32,60,13395,,,,,,0,10,10,62,1,,,,,,,,,,,,,,,,,,,,,,,,,,,,,,,,,,,
,,,,,,,,,,,,a,Correct!,,,,,,t2.png,t2.png,0,0.98115,22,Male,2020-10-22_14h33.39.268,torte-q,2020.1.3,Win32,60,13395,0.4351,,,,,0,11,11,7,1,,,,,,,,,,,,,,,,,,,,,,,,,,,,,,,,,,,
,,,,,,,,,,,,a,Correct!,,,,,,t4.png,t5.png,1,0.90025,22,Male,2020-10-22_14h33.39.268,torte-q,2020.1.3,Win32,60,13395,0.89151,,,,,0,12,12,113,1,,,,,,,,,,,,,,,,,,,,,,,,,,,,,,,,,,,
,,,,,,,,,,,,l,Incorrect,,,,,,t5.png,t4.png,1,0.90025,22,Male,2020-10-22_14h33.39.268,torte-q,2020.1.3,Win32,60,13395,0.922295,,,,,0,13,13,34,1,,,,,,,,,,,,,,,,,,,,,,,,,,,,,,,,,,,
,,,,,,,,,,,,a,Incorrect,,,,,,t2.png,t3.png,1,0.90855,22,Male,2020-10-22_14h33.39.268,torte-q,2020.1.3,Win32,60,13395,1.45584,,,,,0,14,14,10,1,,,,,,,,,,,,,,,,,,,,,,,,,,,,,,,,,,,
,,,,,,,,,,,,a,Correct!,,,,,,t4.png,t4.png,0,0.98115,22,Male,2020-10-22_14h33.39.268,torte-q,2020.1.3,Win32,60,13395,0.55215,,,,,0,15,15,79,1,,,,,,,,,,,,,,,,,,,,,,,,,,,,,,,,,,,
,,,,,,,,,,,,l,Correct!,,,,,,t5.png,t2.png,3,0.0000131,22,Male,2020-10-22_14h33.39.268,torte-q,2020.1.3,Win32,60,13395,0.46032,,,,,0,16,16,91,1,,,,,,,,,,,,,,,,,,,,,,,,,,,,,,,,,,,
,,,,,,,,,,,,l,Incorrect,,,,,,t4.png,t3.png,1,0.90855,22,Male,2020-10-22_14h33.39.268,torte-q,2020.1.3,Win32,60,13395,0.31687,,,,,0,17,17,35,1,,,,,,,,,,,,,,,,,,,,,,,,,,,,,,,,,,,
,,,,,,,,,,,,a,Incorrect,,,,,,t1.png,t3.png,2,0.056466,22,Male,2020-10-22_14h33.39.268,torte-q,2020.1.3,Win32,60,13395,0.38573,,,,,0,18,18,63,1,,,,,,,,,,,,,,,,,,,,,,,,,,,,,,,,,,,
,,,,,,,,,,,,a,Correct!,,,,,,t4.png,t4.png,0,0.98115,22,Male,2020-10-22_14h33.39.268,torte-q,2020.1.3,Win32,60,13395,0.356695,,,,,0,19,19,90,1,,,,,,,,,,,,,,,,,,,,,,,,,,,,,,,,,,,
,,,,,,,,,,,,a,Correct!,,,,,,t4.png,t3.png,1,0.90855,22,Male,2020-10-22_14h33.39.268,torte-q,2020.1.3,Win32,60,13395,0.392615,,,,,0,20,20,45,1,,,,,,,,,,,,,,,,,,,,,,,,,,,,,,,,,,,
,,,,,,,,,,,,l,Incorrect,,,,,,t2.png,t3.png,1,0.909,22,Male,2020-10-22_14h33.39.268,torte-q,2020.1.3,Win32,60,13395,0.3956,,,,,0,21,21,74,1,,,,,,,,,,,,,,,,,,,,,,,,,,,,,,,,,,,
,,,,,,,,,,,,l,Incorrect,,,,,,t5.png,t5.png,0,0.97829,22,Male,2020-10-22_14h33.39.268,torte-q,2020.1.3,Win32,60,13395,0.550625,,,,,0,22,22,70,1,,,,,,,,,,,,,,,,,,,,,,,,,,,,,,,,,,,
,,,,,,,,,,,,l,Incorrect,,,,,,t1.png,t1.png,0,0.97829,22,Male,2020-10-22_14h33.39.268,torte-q,2020.1.3,Win32,60,13395,0.410545,,,,,0,23,23,9,1,,,,,,,,,,,,,,,,,,,,,,,,,,,,,,,,,,,
,,,,,,,,,,,,a,Incorrect,,,,,,t1.png,t5.png,4,9.55E-11,22,Male,2020-10-22_14h33.39.268,torte-q,2020.1.3,Win32,60,13395,0.428525,,,,,0,24,24,16,1,,,,,,,,,,,,,,,,,,,,,,,,,,,,,,,,,,,
,,,,,,,,,,,,l,Correct!,,,,,,t1.png,t2.png,1,0.9,22,Male,2020-10-22_14h33.39.268,torte-q,2020.1.3,Win32,60,13395,0.373995,,,,,0,25,25,1,1,,,,,,,,,,,,,,,,,,,,,,,,,,,,,,,,,,,
,,,,,,,,,,,,a,Incorrect,,,,,,t5.png,t2.png,3,0.0000131,22,Male,2020-10-22_14h33.39.268,torte-q,2020.1.3,Win32,60,13395,0.353595,,,,,0,26,26,98,1,,,,,,,,,,,,,,,,,,,,,,,,,,,,,,,,,,,
,,,,,,,,,,,,a,Incorrect,,,,,,t1.png,t3.png,2,0.056466,22,Male,2020-10-22_14h33.39.268,torte-q,2020.1.3,Win32,60,13395,0.301655,,,,,0,27,27,60,1,,,,,,,,,,,,,,,,,,,,,,,,,,,,,,,,,,,
,,,,,,,,,,,,a,Incorrect,,,,,,t5.png,t1.png,4,9.55E-11,22,Male,2020-10-22_14h33.39.268,torte-q,2020.1.3,Win32,60,13395,0.533375,,,,,0,28,28,100,1,,,,,,,,,,,,,,,,,,,,,,,,,,,,,,,,,,,
,,,,,,,,,,,,a,Incorrect,,,,,,t1.png,t4.png,3,0.0000131,22,Male,2020-10-22_14h33.39.268,torte-q,2020.1.3,Win32,60,13395,0.56066,,,,,0,29,29,107,1,,,,,,,,,,,,,,,,,,,,,,,,,,,,,,,,,,,
,,,,,,,,,,,,a,Incorrect,,,,,,t5.png,t1.png,4,9.55E-11,22,Male,2020-10-22_14h33.39.268,torte-q,2020.1.3,Win32,60,13395,0.3007,,,,,0,30,30,71,1,,,,,,,,,,,,,,,,,,,,,,,,,,,,,,,,,,,
,,,,,,,,,,,,l,Incorrect,,,,,,t2.png,t1.png,1,0.9,22,Male,2020-10-22_14h33.39.268,torte-q,2020.1.3,Win32,60,13395,0.316705,,,,,0,31,31,118,1,,,,,,,,,,,,,,,,,,,,,,,,,,,,,,,,,,,
,,,,,,,,,,,,l,Incorrect,,,,,,t4.png,t3.png,1,0.909,22,Male,2020-10-22_14h33.39.268,torte-q,2020.1.3,Win32,60,13395,0.1837,,,,,0,32,32,20,1,,,,,,,,,,,,,,,,,,,,,,,,,,,,,,,,,,,
,,,,,,,,,,,,l,Correct!,,,,,,t3.png,t5.png,2,0.056466,22,Male,2020-10-22_14h33.39.268,torte-q,2020.1.3,Win32,60,13395,0.03511,,,,,0,33,33,44,1,,,,,,,,,,,,,,,,,,,,,,,,,,,,,,,,,,,
,,,,,,,,,,,,l,Correct!,,,,,,t4.png,t1.png,3,0.0000131,22,Male,2020-10-22_14h33.39.268,torte-q,2020.1.3,Win32,60,13395,0.150185,,,,,0,34,34,42,1,,,,,,,,,,,,,,,,,,,,,,,,,,,,,,,,,,,
,,,,,,,,,,,,a,Correct!,,,,,,t3.png,t2.png,1,0.909,22,Male,2020-10-22_14h33.39.268,torte-q,2020.1.3,Win32,60,13395,0.295905,,,,,0,35,35,23,1,,,,,,,,,,,,,,,,,,,,,,,,,,,,,,,,,,,
,,,,,,,,,,,,a,Correct!,,,,,,t4.png,t5.png,1,0.90025,22,Male,2020-10-22_14h33.39.268,torte-q,2020.1.3,Win32,60,13395,0.110815,,,,,0,36,36,58,1,,,,,,,,,,,,,,,,,,,,,,,,,,,,,,,,,,,
,,,,,,,,,,,,a,Incorrect,,,,,,t3.png,t1.png,2,0.056466,22,Male,2020-10-22_14h33.39.268,torte-q,2020.1.3,Win32,60,13395,0.324945,,,,,0,37,37,32,1,,,,,,,,,,,,,,,,,,,,,,,,,,,,,,,,,,,
,,,,,,,,,,,,l,Correct!,,,,,,t2.png,t5.png,3,0.0000131,22,Male,2020-10-22_14h33.39.268,torte-q,2020.1.3,Win32,60,13395,0.18626,,,,,0,38,38,40,1,,,,,,,,,,,,,,,,,,,,,,,,,,,,,,,,,,,
,,,,,,,,,,,,l,Incorrect,,,,,,t3.png,t4.png,1,0.90855,22,Male,2020-10-22_14h33.39.268,torte-q,2020.1.3,Win32,60,13395,0.150185,,,,,0,39,39,84,1,,,,,,,,,,,,,,,,,,,,,,,,,,,,,,,,,,,
,,,,,,,,,,,,l,Correct!,,,,,,t2.png,t4.png,2,0.059078,22,Male,2020-10-22_14h33.39.268,torte-q,2020.1.3,Win32,60,13395,0.041325,,,,,0,40,40,24,1,,,,,,,,,,,,,,,,,,,,,,,,,,,,,,,,,,,
,,,,,,,,,,,,a,Incorrect,,,,,,t1.png,t4.png,3,0.0000131,22,Male,2020-10-22_14h33.39.268,torte-q,2020.1.3,Win32,60,13395,0.04207,,,,,0,41,41,92,1,,,,,,,,,,,,,,,,,,,,,,,,,,,,,,,,,,,
,,,,,,,,,,,,a,Correct!,,,,,,t3.png,t2.png,1,0.90855,22,Male,2020-10-22_14h33.39.268,torte-q,2020.1.3,Win32,60,13395,0.08358,,,,,0,42,42,18,1,,,,,,,,,,,,,,,,,,,,,,,,,,,,,,,,,,,
,,,,,,,,,,,,a,Correct!,,,,,,t5.png,t4.png,1,0.90025,22,Male,2020-10-22_14h33.39.268,torte-q,2020.1.3,Win32,60,13395,0.12949,,,,,0,43,43,26,1,,,,,,,,,,,,,,,,,,,,,,,,,,,,,,,,,,,
,,,,,,,,,,,,l,Incorrect,,,,,,t2.png,t1.png,1,0.90025,22,Male,2020-10-22_14h33.39.268,torte-q,2020.1.3,Win32,60,13395,0.000245,,,,,0,44,44,19,1,,,,,,,,,,,,,,,,,,,,,,,,,,,,,,,,,,,
,,,,,,,,,,,,l,Correct!,,,,,,t5.png,t1.png,4,9.55E-11,22,Male,2020-10-22_14h33.39.268,torte-q,2020.1.3,Win32,60,13395,0.16986,,,,,0,45,45,22,1,,,,,,,,,,,,,,,,,,,,,,,,,,,,,,,,,,,
,,,,,,,,,,,,l,Incorrect,,,,,,t1.png,t1.png,0,0.978,22,Male,2020-10-22_14h33.39.268,torte-q,2020.1.3,Win32,60,13395,0.141145,,,,,0,46,46,28,1,,,,,,,,,,,,,,,,,,,,,,,,,,,,,,,,,,,
,,,,,,,,,,,,a,Incorrect,,,,,,t3.png,t5.png,2,0.056466,22,Male,2020-10-22_14h33.39.268,torte-q,2020.1.3,Win32,60,13395,0.300075,,,,,0,47,47,14,1,,,,,,,,,,,,,,,,,,,,,,,,,,,,,,,,,,,
,,,,,,,,,,,,a,Incorrect,,,,,,t2.png,t5.png,3,0.0000131,22,Male,2020-10-22_14h33.39.268,torte-q,2020.1.3,Win32,60,13395,0.35223,,,,,0,48,48,95,1,,,,,,,,,,,,,,,,,,,,,,,,,,,,,,,,,,,
,,,,,,,,,,,,a,Incorrect,,,,,,t4.png,t2.png,2,0.059078,22,Male,2020-10-22_14h33.39.268,torte-q,2020.1.3,Win32,60,13395,0.452355,,,,,0,49,49,88,1,,,,,,,,,,,,,,,,,,,,,,,,,,,,,,,,,,,
,,,,,,,,,,,,a,Correct!,,,,,,t2.png,t2.png,0,0.981,22,Male,2020-10-22_14h33.39.268,torte-q,2020.1.3,Win32,60,13395,0.19644,,,,,0,50,50,101,1,,,,,,,,,,,,,,,,,,,,,,,,,,,,,,,,,,,
,,,,,,,,,,,,l,Correct!,,,,,,t2.png,t4.png,2,0.059078,22,Male,2020-10-22_14h33.39.268,torte-q,2020.1.3,Win32,60,13395,0.27926,,,,,0,51,51,77,1,,,,,,,,,,,,,,,,,,,,,,,,,,,,,,,,,,,
,,,,,,,,,,,,l,Incorrect,,,,,,t4.png,t3.png,1,0.90855,22,Male,2020-10-22_14h33.39.268,torte-q,2020.1.3,Win32,60,13395,0.2867,,,,,0,52,52,75,1,,,,,,,,,,,,,,,,,,,,,,,,,,,,,,,,,,,
,,,,,,,,,,,,l,Incorrect,,,,,,t4.png,t4.png,0,0.98115,22,Male,2020-10-22_14h33.39.268,torte-q,2020.1.3,Win32,60,13395,0.357675,,,,,0,53,53,52,1,,,,,,,,,,,,,,,,,,,,,,,,,,,,,,,,,,,
,,,,,,,,,,,,l,Incorrect,,,,,,t4.png,t5.png,1,0.9,22,Male,2020-10-22_14h33.39.268,torte-q,2020.1.3,Win32,60,13395,0.26681,,,,,0,54,54,115,1,,,,,,,,,,,,,,,,,,,,,,,,,,,,,,,,,,,
,,,,,,,,,,,,a,Incorrect,,,,,,t5.png,t2.png,3,0.0000131,22,Male,2020-10-22_14h33.39.268,torte-q,2020.1.3,Win32,60,13395,0.161065,,,,,0,55,55,119,1,,,,,,,,,,,,,,,,,,,,,,,,,,,,,,,,,,,
,,,,,,,,,,,,a,Incorrect,,,,,,t2.png,t5.png,3,0.0000131,22,Male,2020-10-22_14h33.39.268,torte-q,2020.1.3,Win32,60,13395,0.04502,,,,,0,56,56,8,1,,,,,,,,,,,,,,,,,,,,,,,,,,,,,,,,,,,
,,,,,,,,,,,,a,Correct!,,,,,,t1.png,t1.png,0,0.97829,22,Male,2020-10-22_14h33.39.268,torte-q,2020.1.3,Win32,60,13395,0.101775,,,,,0,57,57,67,1,,,,,,,,,,,,,,,,,,,,,,,,,,,,,,,,,,,
,,,,,,,,,,,,a,Incorrect,,,,,,t5.png,t1.png,4,9.55E-11,22,Male,2020-10-22_14h33.39.268,torte-q,2020.1.3,Win32,60,13395,0.13342,,,,,0,58,58,102,1,,,,,,,,,,,,,,,,,,,,,,,,,,,,,,,,,,,
,,,,,,,,,,,,l,Incorrect,,,,,,t1.png,t2.png,1,0.90025,22,Male,2020-10-22_14h33.39.268,torte-q,2020.1.3,Win32,60,13395,0.289605,,,,,0,59,59,33,1,,,,,,,,,,,,,,,,,,,,,,,,,,,,,,,,,,,
,,,,,,,,,,,,l,Correct!,,,,,,t4.png,t1.png,3,0.0000131,22,Male,2020-10-22_14h33.39.268,torte-q,2020.1.3,Win32,60,13395,0.184275,,,,,0,60,60,13,1,,,,,,,,,,,,,,,,,,,,,,,,,,,,,,,,,,,
,,,,,,,,,,,,l,Correct!,,,,,,t3.png,t1.png,2,0.0565,22,Male,2020-10-22_14h33.39.268,torte-q,2020.1.3,Win32,60,13395,0.26721,,,,,0,61,61,31,1,,,,,,,,,,,,,,,,,,,,,,,,,,,,,,,,,,,
,,,,,,,,,,,,l,Correct!,,,,,,t4.png,t1.png,3,0.0000131,22,Male,2020-10-22_14h33.39.268,torte-q,2020.1.3,Win32,60,13395,0.258525,,,,,0,62,62,93,1,,,,,,,,,,,,,,,,,,,,,,,,,,,,,,,,,,,
,,,,,,,,,,,,a,Incorrect,,,,,,t4.png,t2.png,2,0.059078,22,Male,2020-10-22_14h33.39.268,torte-q,2020.1.3,Win32,60,13395,0.37852,,,,,0,63,63,109,1,,,,,,,,,,,,,,,,,,,,,,,,,,,,,,,,,,,
,,,,,,,,,,,,a,Incorrect,,,,,,t4.png,t2.png,2,0.0591,22,Male,2020-10-22_14h33.39.268,torte-q,2020.1.3,Win32,60,13395,0.30197,,,,,0,64,64,36,1,,,,,,,,,,,,,,,,,,,,,,,,,,,,,,,,,,,
,,,,,,,,,,,,a,Incorrect,,,,,,t2.png,t5.png,3,0.0000131,22,Male,2020-10-22_14h33.39.268,torte-q,2020.1.3,Win32,60,13395,0.292315,,,,,0,65,65,66,1,,,,,,,,,,,,,,,,,,,,,,,,,,,,,,,,,,,
,,,,,,,,,,,,a,Incorrect,,,,,,t5.png,t3.png,2,0.056466,22,Male,2020-10-22_14h33.39.268,torte-q,2020.1.3,Win32,60,13395,0.32305,,,,,0,66,66,56,1,,,,,,,,,,,,,,,,,,,,,,,,,,,,,,,,,,,
,,,,,,,,,,,,a,Incorrect,,,,,,t5.png,t3.png,2,0.0565,22,Male,2020-10-22_14h33.39.268,torte-q,2020.1.3,Win32,60,13395,0.04985,,,,,0,67,67,39,1,,,,,,,,,,,,,,,,,,,,,,,,,,,,,,,,,,,
,,,,,,,,,,,,l,Incorrect,,,,,,t1.png,t2.png,1,0.90025,22,Male,2020-10-22_14h33.39.268,torte-q,2020.1.3,Win32,60,13395,0.61657,,,,,0,68,68,112,1,,,,,,,,,,,,,,,,,,,,,,,,,,,,,,,,,,,
,,,,,,,,,,,,l,Incorrect,,,,,,t1.png,t2.png,1,0.90025,22,Male,2020-10-22_14h33.39.268,torte-q,2020.1.3,Win32,60,13395,0.33008,,,,,0,69,69,105,1,,,,,,,,,,,,,,,,,,,,,,,,,,,,,,,,,,,
,,,,,,,,,,,,a,Incorrect,,,,,,t1.png,t5.png,4,9.55E-11,22,Male,2020-10-22_14h33.39.268,torte-q,2020.1.3,Win32,60,13395,0.279445,,,,,0,70,70,41,1,,,,,,,,,,,,,,,,,,,,,,,,,,,,,,,,,,,
,,,,,,,,,,,,a,Incorrect,,,,,,t5.png,t1.png,4,9.55E-11,22,Male,2020-10-22_14h33.39.268,torte-q,2020.1.3,Win32,60,13395,0.03121,,,,,0,71,71,43,1,,,,,,,,,,,,,,,,,,,,,,,,,,,,,,,,,,,
,,,,,,,,,,,,a,Correct!,,,,,,t3.png,t4.png,1,0.90855,22,Male,2020-10-22_14h33.39.268,torte-q,2020.1.3,Win32,60,13395,0.192335,,,,,0,72,72,96,1,,,,,,,,,,,,,,,,,,,,,,,,,,,,,,,,,,,
,,,,,,,,,,,,a,Correct!,,,,,,t5.png,t4.png,1,0.9,22,Male,2020-10-22_14h33.39.268,torte-q,2020.1.3,Win32,60,13395,0.25107,,,,,0,73,73,49,1,,,,,,,,,,,,,,,,,,,,,,,,,,,,,,,,,,,
,,,,,,,,,,,,a,Correct!,,,,,,t3.png,t4.png,1,0.909,22,Male,2020-10-22_14h33.39.268,torte-q,2020.1.3,Win32,60,13395,0.18737,,,,,0,74,74,89,1,,,,,,,,,,,,,,,,,,,,,,,,,,,,,,,,,,,
,,,,,,,,,,,,a,Correct!,,,,,,t3.png,t4.png,1,0.909,22,Male,2020-10-22_14h33.39.268,torte-q,2020.1.3,Win32,60,13395,0.20595,,,,,0,75,75,82,1,,,,,,,,,,,,,,,,,,,,,,,,,,,,,,,,,,,
,,,,,,,,,,,,l,Correct!,,,,,,t5.png,t2.png,3,0.0000131,22,Male,2020-10-22_14h33.39.268,torte-q,2020.1.3,Win32,60,13395,0.288135,,,,,0,76,76,51,1,,,,,,,,,,,,,,,,,,,,,,,,,,,,,,,,,,,
,,,,,,,,,,,,l,Incorrect,,,,,,t2.png,t1.png,1,0.90025,22,Male,2020-10-22_14h33.39.268,torte-q,2020.1.3,Win32,60,13395,0.151185,,,,,0,77,77,5,1,,,,,,,,,,,,,,,,,,,,,,,,,,,,,,,,,,,
,,,,,,,,,,,,l,Correct!,,,,,,t2.png,t4.png,2,0.0591,22,Male,2020-10-22_14h33.39.268,torte-q,2020.1.3,Win32,60,13395,0.15501,,,,,0,78,78,15,1,,,,,,,,,,,,,,,,,,,,,,,,,,,,,,,,,,,
,,,,,,,,,,,,a,Incorrect,,,,,,t2.png,t4.png,2,0.059078,22,Male,2020-10-22_14h33.39.268,torte-q,2020.1.3,Win32,60,13395,0.143245,,,,,0,79,79,11,1,,,,,,,,,,,,,,,,,,,,,,,,,,,,,,,,,,,
,,,,,,,,,,,,a,Correct!,,,,,,t2.png,t2.png,0,0.98115,22,Male,2020-10-22_14h33.39.268,torte-q,2020.1.3,Win32,60,13395,0.107115,,,,,0,80,80,59,1,,,,,,,,,,,,,,,,,,,,,,,,,,,,,,,,,,,
,,,,,,,,,,,,a,Correct!,,,,,,t4.png,t5.png,1,0.90025,22,Male,2020-10-22_14h33.39.268,torte-q,2020.1.3,Win32,60,13395,0.121975,,,,,0,81,81,103,1,,,,,,,,,,,,,,,,,,,,,,,,,,,,,,,,,,,
,,,,,,,,,,,,a,Correct!,,,,,,t4.png,t4.png,0,0.98115,22,Male,2020-10-22_14h33.39.268,torte-q,2020.1.3,Win32,60,13395,0.2396,,,,,0,82,82,21,1,,,,,,,,,,,,,,,,,,,,,,,,,,,,,,,,,,,
,,,,,,,,,,,,a,Correct!,,,,,,t2.png,t2.png,0,0.98115,22,Male,2020-10-22_14h33.39.268,torte-q,2020.1.3,Win32,60,13395,0.112445,,,,,0,83,83,57,1,,,,,,,,,,,,,,,,,,,,,,,,,,,,,,,,,,,
,,,,,,,,,,,,a,Incorrect,,,,,,t1.png,t3.png,2,0.056466,22,Male,2020-10-22_14h33.39.268,torte-q,2020.1.3,Win32,60,13395,0.262305,,,,,0,84,84,99,1,,,,,,,,,,,,,,,,,,,,,,,,,,,,,,,,,,,
,,,,,,,,,,,,a,Correct!,,,,,,t4.png,t3.png,1,0.909,22,Male,2020-10-22_14h33.39.268,torte-q,2020.1.3,Win32,60,13395,0.22259,,,,,0,85,85,46,1,,,,,,,,,,,,,,,,,,,,,,,,,,,,,,,,,,,
,,,,,,,,,,,,l,Correct!,,,,,,t3.png,t5.png,2,0.0565,22,Male,2020-10-22_14h33.39.268,torte-q,2020.1.3,Win32,60,13395,0.75191,,,,,0,86,86,30,1,,,,,,,,,,,,,,,,,,,,,,,,,,,,,,,,,,,
,,,,,,,,,,,,l,Correct!,,,,,,t5.png,t2.png,3,0.0000131,22,Male,2020-10-22_14h33.39.268,torte-q,2020.1.3,Win32,60,13395,0.26026,,,,,0,87,87,116,1,,,,,,,,,,,,,,,,,,,,,,,,,,,,,,,,,,,
,,,,,,,,,,,,a,Correct!,,,,,,t1.png,t1.png,0,0.978,22,Male,2020-10-22_14h33.39.268,torte-q,2020.1.3,Win32,60,13395,0.59629,,,,,0,88,88,54,1,,,,,,,,,,,,,,,,,,,,,,,,,,,,,,,,,,,
,,,,,,,,,,,,l,Correct!,,,,,,t3.png,t1.png,2,0.056466,22,Male,2020-10-22_14h33.39.268,torte-q,2020.1.3,Win32,60,13395,0.375365,,,,,0,89,89,64,1,,,,,,,,,,,,,,,,,,,,,,,,,,,,,,,,,,,
,,,,,,,,,,,,l,Correct!,,,,,,t4.png,t1.png,3,0.0000131,22,Male,2020-10-22_14h33.39.268,torte-q,2020.1.3,Win32,60,13395,0.14666,,,,,0,90,90,61,1,,,,,,,,,,,,,,,,,,,,,,,,,,,,,,,,,,,
,,,,,,,,,,,,a,Incorrect,,,,,,t4.png,t2.png,2,0.059078,22,Male,2020-10-22_14h33.39.268,torte-q,2020.1.3,Win32,60,13395,0.567315,,,,,0,91,91,110,1,,,,,,,,,,,,,,,,,,,,,,,,,,,,,,,,,,,
,,,,,,,,,,,,a,Incorrect,,,,,,t5.png,t3.png,2,0.056466,22,Male,2020-10-22_14h33.39.268,torte-q,2020.1.3,Win32,60,13395,0.722885,,,,,0,92,92,114,1,,,,,,,,,,,,,,,,,,,,,,,,,,,,,,,,,,,
,,,,,,,,,,,,a,Incorrect,,,,,,t2.png,t4.png,2,0.059078,22,Male,2020-10-22_14h33.39.268,torte-q,2020.1.3,Win32,60,13395,1.38442,,,,,0,93,93,37,1,,,,,,,,,,,,,,,,,,,,,,,,,,,,,,,,,,,
,,,,,,,,,,,,a,Correct!,,,,,,t5.png,t3.png,2,0.056466,22,Male,2020-10-22_14h33.39.268,torte-q,2020.1.3,Win32,60,13395,0.3394,,,,,0,94,94,38,1,,,,,,,,,,,,,,,,,,,,,,,,,,,,,,,,,,,
,,,,,,,,,,,,l,Correct!,,,,,,t1.png,t4.png,3,0.0000131,22,Male,2020-10-22_14h33.39.268,torte-q,2020.1.3,Win32,60,13395,0.376005,,,,,0,95,95,81,1,,,,,,,,,,,,,,,,,,,,,,,,,,,,,,,,,,,
,,,,,,,,,,,,l,Correct!,,,,,,t5.png,t3.png,2,0.056466,22,Male,2020-10-22_14h33.39.268,torte-q,2020.1.3,Win32,60,13395,0.39549,,,,,0,96,96,108,1,,,,,,,,,,,,,,,,,,,,,,,,,,,,,,,,,,,
,,,,,,,,,,,,l,Incorrect,,,,,,t1.png,t1.png,0,0.97829,22,Male,2020-10-22_14h33.39.268,torte-q,2020.1.3,Win32,60,13395,0.183285,,,,,0,97,97,78,1,,,,,,,,,,,,,,,,,,,,,,,,,,,,,,,,,,,
,,,,,,,,,,,,a,Incorrect,,,,,,t1.png,t4.png,3,0.0000131,22,Male,2020-10-22_14h33.39.268,torte-q,2020.1.3,Win32,60,13395,0.3371,,,,,0,98,98,50,1,,,,,,,,,,,,,,,,,,,,,,,,,,,,,,,,,,,
,,,,,,,,,,,,a,Correct!,,,,,,t2.png,t3.png,1,0.90855,22,Male,2020-10-22_14h33.39.268,torte-q,2020.1.3,Win32,60,13395,0.78971,,,,,0,99,99,65,1,,,,,,,,,,,,,,,,,,,,,,,,,,,,,,,,,,,
,,,,,,,,,,,,l,Incorrect,,,,,,t2.png,t2.png,0,0.98115,22,Male,2020-10-22_14h33.39.268,torte-q,2020.1.3,Win32,60,13395,1.008855,,,,,0,100,100,2,1,,,,,,,,,,,,,,,,,,,,,,,,,,,,,,,,,,,
,,,,,,,,,,,,l,Incorrect,,,,,,t2.png,t3.png,1,0.90855,22,Male,2020-10-22_14h33.39.268,torte-q,2020.1.3,Win32,60,13395,0.57086,,,,,0,101,101,111,1,,,,,,,,,,,,,,,,,,,,,,,,,,,,,,,,,,,
,,,,,,,,,,,,l,Incorrect,,,,,,t5.png,t5.png,0,0.97829,22,Male,2020-10-22_14h33.39.268,torte-q,2020.1.3,Win32,60,13395,1.022355,,,,,0,102,102,73,1,,,,,,,,,,,,,,,,,,,,,,,,,,,,,,,,,,,
,,,,,,,,,,,,a,Incorrect,,,,,,t4.png,t1.png,3,0.0000131,22,Male,2020-10-22_14h33.39.268,torte-q,2020.1.3,Win32,60,13395,1,,,,,0,103,103,48,1,,,,,,,,,,,,,,,,,,,,,,,,,,,,,,,,,,,
,,,,,,,,,,,,l,Correct!,,,,,,t1.png,t5.png,4,9.55E-11,22,Male,2020-10-22_14h33.39.268,torte-q,2020.1.3,Win32,60,13395,0.59387,,,,,0,104,104,12,1,,,,,,,,,,,,,,,,,,,,,,,,,,,,,,,,,,,
,,,,,,,,,,,,l,Correct!,,,,,,t1.png,t5.png,4,9.55E-11,22,Male,2020-10-22_14h33.39.268,torte-q,2020.1.3,Win32,60,13395,0.48495,,,,,0,105,105,55,1,,,,,,,,,,,,,,,,,,,,,,,,,,,,,,,,,,,
,,,,,,,,,,,,l,Incorrect,,,,,,t2.png,t3.png,1,0.90855,22,Male,2020-10-22_14h33.39.268,torte-q,2020.1.3,Win32,60,13395,0.875635,,,,,0,106,106,68,1,,,,,,,,,,,,,,,,,,,,,,,,,,,,,,,,,,,
,,,,,,,,,,,,l,Correct!,,,,,,t1.png,t5.png,4,9.55E-11,22,Male,2020-10-22_14h33.39.268,torte-q,2020.1.3,Win32,60,13395,0.64299,,,,,0,107,107,85,1,,,,,,,,,,,,,,,,,,,,,,,,,,,,,,,,,,,
,,,,,,,,,,,,l,Incorrect,,,,,,t5.png,t5.png,0,0.97829,22,Male,2020-10-22_14h33.39.268,torte-q,2020.1.3,Win32,60,13395,0.66774,,,,,0,108,108,94,1,,,,,,,,,,,,,,,,,,,,,,,,,,,,,,,,,,,
,,,,,,,,,,,,l,Correct!,,,,,,t2.png,t5.png,3,0.0000131,22,Male,2020-10-22_14h33.39.268,torte-q,2020.1.3,Win32,60,13395,0.947285,,,,,0,109,109,104,1,,,,,,,,,,,,,,,,,,,,,,,,,,,,,,,,,,,
,,,,,,,,,,,,a,Correct!,,,,,,t5.png,t4.png,1,0.90025,22,Male,2020-10-22_14h33.39.268,torte-q,2020.1.3,Win32,60,13395,0.984395,,,,,0,110,110,27,1,,,,,,,,,,,,,,,,,,,,,,,,,,,,,,,,,,,
,,,,,,,,,,,,l,Incorrect,,,,,,t3.png,t4.png,1,0.909,22,Male,2020-10-22_14h33.39.268,torte-q,2020.1.3,Win32,60,13395,0.49966,,,,,0,111,111,106,1,,,,,,,,,,,,,,,,,,,,,,,,,,,,,,,,,,,
,,,,,,,,,,,,l,Correct!,,,,,,t1.png,t4.png,3,0.0000131,22,Male,2020-10-22_14h33.39.268,torte-q,2020.1.3,Win32,60,13395,0.43303,,,,,0,112,112,17,1,,,,,,,,,,,,,,,,,,,,,,,,,,,,,,,,,,,
,,,,,,,,,,,,l,Correct!,,,,,,t4.png,t5.png,1,0.90025,22,Male,2020-10-22_14h33.39.268,torte-q,2020.1.3,Win32,60,13395,0.84198,,,,,0,113,113,47,1,,,,,,,,,,,,,,,,,,,,,,,,,,,,,,,,,,,
,,,,,,,,,,,,l,Correct!,,,,,,t1.png,t3.png,2,0.056466,22,Male,2020-10-22_14h33.39.268,torte-q,2020.1.3,Win32,60,13395,0.62686,,,,,0,114,114,87,1,,,,,,,,,,,,,,,,,,,,,,,,,,,,,,,,,,,
,,,,,,,,,,,,a,Correct!,,,,,,t3.png,t2.png,1,0.909,22,Male,2020-10-22_14h33.39.268,torte-q,2020.1.3,Win32,60,13395,0.61253,,,,,0,115,115,3,1,,,,,,,,,,,,,,,,,,,,,,,,,,,,,,,,,,,
,,,,,,,,,,,,l,Correct!,,,,,,t3.png,t5.png,2,0.0565,22,Male,2020-10-22_14h33.39.268,torte-q,2020.1.3,Win32,60,13395,0.52646,,,,,0,116,116,83,1,,,,,,,,,,,,,,,,,,,,,,,,,,,,,,,,,,,
,,,,,,,,,,,,a,Correct!,,,,,,t3.png,t1.png,2,0.056466,22,Male,2020-10-22_14h33.39.268,torte-q,2020.1.3,Win32,60,13395,0.47581,,,,,0,117,117,0,1,,,,,,,,,,,,,,,,,,,,,,,,,,,,,,,,,,,
,,,,,,,,,,,,l,Incorrect,,,,,,t5.png,t4.png,1,0.9,22,Male,2020-10-22_14h33.39.268,torte-q,2020.1.3,Win32,60,13395,0.523415,,,,,0,118,118,76,1,,,,,,,,,,,,,,,,,,,,,,,,,,,,,,,,,,,
,,,,,,,,,,,,a,Incorrect,,,,,,t3.png,t2.png,1,0.90855,22,Male,2020-10-22_14h33.39.268,torte-q,2020.1.3,Win32,60,13395,0.784705,,,,,0,119,119,97,1,,,,,,,,,,,,,,,,,,,,,,,,,,,,,,,,,,,
,,,,,,,,,,,,l,Correct!,,,,,,t4.png,t1.png,3,0.0000131,22,Male,2020-10-22_14h33.39.268,torte-q,2020.1.3,Win32,60,13395,0.690415,space,150.557555,,,,,,,,a,16.29533,space,1.96212,0,0,0,42,1,,,,,,,,,,,,,,,,,,,,,,,,,,
,,,,,,,,,,,,a,Correct!,,,,,,t4.png,t3.png,1,0.90855,22,Male,2020-10-22_14h33.39.268,torte-q,2020.1.3,Win32,60,13395,0.49761,,,,,,,,,,,,,,0,1,1,75,1,,,,,,,,,,,,,,,,,,,,,,,,,,
,,,,,,,,,,,,a,Incorrect,,,,,,t2.png,t5.png,3,0.0000131,22,Male,2020-10-22_14h33.39.268,torte-q,2020.1.3,Win32,60,13395,0.320095,,,,,,,,,,,,,,0,2,2,104,1,,,,,,,,,,,,,,,,,,,,,,,,,,
,,,,,,,,,,,,l,Correct!,,,,,,t1.png,t3.png,2,0.056466,22,Male,2020-10-22_14h33.39.268,torte-q,2020.1.3,Win32,60,13395,0.98906,,,,,,,,,,,,,,0,3,3,60,1,,,,,,,,,,,,,,,,,,,,,,,,,,
,,,,,,,,,,,,a,Correct!,,,,,,t2.png,t2.png,0,0.98115,22,Male,2020-10-22_14h33.39.268,torte-q,2020.1.3,Win32,60,13395,0.20835,,,,,,,,,,,,,,0,4,4,7,1,,,,,,,,,,,,,,,,,,,,,,,,,,
,,,,,,,,,,,,l,Correct!,,,,,,t3.png,t1.png,2,0.056466,22,Male,2020-10-22_14h33.39.268,torte-q,2020.1.3,Win32,60,13395,0.378475,,,,,,,,,,,,,,0,5,5,64,1,,,,,,,,,,,,,,,,,,,,,,,,,,
,,,,,,,,,,,,a,Correct!,,,,,,t4.png,t4.png,0,0.98115,22,Male,2020-10-22_14h33.39.268,torte-q,2020.1.3,Win32,60,13395,0.17393,,,,,,,,,,,,,,0,6,6,52,1,,,,,,,,,,,,,,,,,,,,,,,,,,
,,,,,,,,,,,,a,Incorrect,,,,,,t2.png,t4.png,2,0.059078,22,Male,2020-10-22_14h33.39.268,torte-q,2020.1.3,Win32,60,13395,0.36942,,,,,,,,,,,,,,0,7,7,24,1,,,,,,,,,,,,,,,,,,,,,,,,,,
,,,,,,,,,,,,a,Incorrect,,,,,,t1.png,t4.png,3,0.0000131,22,Male,2020-10-22_14h33.39.268,torte-q,2020.1.3,Win32,60,13395,0.276875,,,,,,,,,,,,,,0,8,8,17,1,,,,,,,,,,,,,,,,,,,,,,,,,,
,,,,,,,,,,,,a,Incorrect,,,,,,t5.png,t2.png,3,0.0000131,22,Male,2020-10-22_14h33.39.268,torte-q,2020.1.3,Win32,60,13395,0.08445,,,,,,,,,,,,,,0,9,9,119,1,,,,,,,,,,,,,,,,,,,,,,,,,,
,,,,,,,,,,,,l,Incorrect,,,,,,t2.png,t3.png,1,0.90855,22,Male,2020-10-22_14h33.39.268,torte-q,2020.1.3,Win32,60,13395,0.035095,,,,,,,,,,,,,,0,10,10,68,1,,,,,,,,,,,,,,,,,,,,,,,,,,
,,,,,,,,,,,,l,Correct!,,,,,,t3.png,t5.png,2,0.056466,22,Male,2020-10-22_14h33.39.268,torte-q,2020.1.3,Win32,60,13395,0.059845,,,,,,,,,,,,,,0,11,11,6,1,,,,,,,,,,,,,,,,,,,,,,,,,,
,,,,,,,,,,,,l,Incorrect,,,,,,t1.png,t2.png,1,0.90025,22,Male,2020-10-22_14h33.39.268,torte-q,2020.1.3,Win32,60,13395,0.10001,,,,,,,,,,,,,,0,12,12,33,1,,,,,,,,,,,,,,,,,,,,,,,,,,
,,,,,,,,,,,,a,Incorrect,,,,,,t5.png,t1.png,4,9.55E-11,22,Male,2020-10-22_14h33.39.268,torte-q,2020.1.3,Win32,60,13395,0.050415,,,,,,,,,,,,,,0,13,13,102,1,,,,,,,,,,,,,,,,,,,,,,,,,,
,,,,,,,,,,,,a,Incorrect,,,,,,t1.png,t5.png,4,9.55E-11,22,Male,2020-10-22_14h33.39.268,torte-q,2020.1.3,Win32,60,13395,0.20008,,,,,,,,,,,,,,0,14,14,12,1,,,,,,,,,,,,,,,,,,,,,,,,,,
,,,,,,,,,,,,a,Correct!,,,,,,t2.png,t3.png,1,0.90855,22,Male,2020-10-22_14h33.39.268,torte-q,2020.1.3,Win32,60,13395,0.10909,,,,,,,,,,,,,,0,15,15,10,1,,,,,,,,,,,,,,,,,,,,,,,,,,
,,,,,,,,,,,,a,Incorrect,,,,,,t4.png,t2.png,2,0.059078,22,Male,2020-10-22_14h33.39.268,torte-q,2020.1.3,Win32,60,13395,0.00025,,,,,,,,,,,,,,0,16,16,88,1,,,,,,,,,,,,,,,,,,,,,,,,,,
,,,,,,,,,,,,a,Correct!,,,,,,t3.png,t2.png,1,0.90855,22,Male,2020-10-22_14h33.39.268,torte-q,2020.1.3,Win32,60,13395,0.093995,,,,,,,,,,,,,,0,17,17,18,1,,,,,,,,,,,,,,,,,,,,,,,,,,
,,,,,,,,,,,,a,Incorrect,,,,,,t2.png,t5.png,3,0.0000131,22,Male,2020-10-22_14h33.39.268,torte-q,2020.1.3,Win32,60,13395,0.06879,,,,,,,,,,,,,,0,18,18,95,1,,,,,,,,,,,,,,,,,,,,,,,,,,
,,,,,,,,,,,,a,Incorrect,,,,,,t5.png,t4.png,1,0.9,22,Male,2020-10-22_14h33.39.268,torte-q,2020.1.3,Win32,60,13395,0.020215,,,,,,,,,,,,,,0,19,19,49,1,,,,,,,,,,,,,,,,,,,,,,,,,,
,,,,,,,,,,,,a,Incorrect,,,,,,t2.png,t5.png,3,0.0000131,22,Male,2020-10-22_14h33.39.268,torte-q,2020.1.3,Win32,60,13395,0.02168,,,,,,,,,,,,,,0,20,20,40,1,,,,,,,,,,,,,,,,,,,,,,,,,,
,,,,,,,,,,,,a,Correct!,,,,,,t4.png,t4.png,0,0.98115,22,Male,2020-10-22_14h33.39.268,torte-q,2020.1.3,Win32,60,13395,0.016885,,,,,,,,,,,,,,0,21,21,90,1,,,,,,,,,,,,,,,,,,,,,,,,,,
,,,,,,,,,,,,a,Incorrect,,,,,,t4.png,t1.png,3,0.0000131,22,Male,2020-10-22_14h33.39.268,torte-q,2020.1.3,Win32,60,13395,1.377245,,,,,,,,,,,,,,0,22,22,61,1,,,,,,,,,,,,,,,,,,,,,,,,,,
,,,,,,,,,,,,a,Incorrect,,,,,,t1.png,t3.png,2,0.056466,22,Male,2020-10-22_14h33.39.268,torte-q,2020.1.3,Win32,60,13395,0.1567,,,,,,,,,,,,,,0,23,23,63,1,,,,,,,,,,,,,,,,,,,,,,,,,,
,,,,,,,,,,,,a,Correct!,,,,,,t1.png,t2.png,1,0.9,22,Male,2020-10-22_14h33.39.268,torte-q,2020.1.3,Win32,60,13395,0.160685,,,,,,,,,,,,,,0,24,24,1,1,,,,,,,,,,,,,,,,,,,,,,,,,,
,,,,,,,,,,,,l,Incorrect,,,,,,t2.png,t3.png,1,0.909,22,Male,2020-10-22_14h33.39.268,torte-q,2020.1.3,Win32,60,13395,0.11635,,,,,,,,,,,,,,0,25,25,74,1,,,,,,,,,,,,,,,,,,,,,,,,,,
,,,,,,,,,,,,l,Correct!,,,,,,t4.png,t2.png,2,0.059078,22,Male,2020-10-22_14h33.39.268,torte-q,2020.1.3,Win32,60,13395,0.250585,,,,,,,,,,,,,,0,26,26,110,1,,,,,,,,,,,,,,,,,,,,,,,,,,
,,,,,,,,,,,,l,Correct!,,,,,,t5.png,t2.png,3,0.0000131,22,Male,2020-10-22_14h33.39.268,torte-q,2020.1.3,Win32,60,13395,0.058365,,,,,,,,,,,,,,0,27,27,51,1,,,,,,,,,,,,,,,,,,,,,,,,,,
,,,,,,,,,,,,l,Correct!,,,,,,t4.png,t2.png,2,0.059078,22,Male,2020-10-22_14h33.39.268,torte-q,2020.1.3,Win32,60,13395,0.2185,,,,,,,,,,,,,,0,28,28,109,1,,,,,,,,,,,,,,,,,,,,,,,,,,
,,,,,,,,,,,,l,Correct!,,,,,,t1.png,t5.png,4,9.55E-11,22,Male,2020-10-22_14h33.39.268,torte-q,2020.1.3,Win32,60,13395,0.108075,,,,,,,,,,,,,,0,29,29,41,1,,,,,,,,,,,,,,,,,,,,,,,,,,
,,,,,,,,,,,,l,Incorrect,,,,,,t3.png,t4.png,1,0.909,22,Male,2020-10-22_14h33.39.268,torte-q,2020.1.3,Win32,60,13395,0.3382,,,,,,,,,,,,,,0,30,30,106,1,,,,,,,,,,,,,,,,,,,,,,,,,,
,,,,,,,,,,,,l,Incorrect,,,,,,t2.png,t3.png,1,0.90855,22,Male,2020-10-22_14h33.39.268,torte-q,2020.1.3,Win32,60,13395,0.246035,,,,,,,,,,,,,,0,31,31,65,1,,,,,,,,,,,,,,,,,,,,,,,,,,
,,,,,,,,,,,,a,Correct!,,,,,,t4.png,t3.png,1,0.909,22,Male,2020-10-22_14h33.39.268,torte-q,2020.1.3,Win32,60,13395,0.37583,,,,,,,,,,,,,,0,32,32,46,1,,,,,,,,,,,,,,,,,,,,,,,,,,
,,,,,,,,,,,,a,Correct!,,,,,,t1.png,t1.png,0,0.978,22,Male,2020-10-22_14h33.39.268,torte-q,2020.1.3,Win32,60,13395,0.139105,,,,,,,,,,,,,,0,33,33,54,1,,,,,,,,,,,,,,,,,,,,,,,,,,
,,,,,,,,,,,,a,Incorrect,,,,,,t5.png,t1.png,4,9.55E-11,22,Male,2020-10-22_14h33.39.268,torte-q,2020.1.3,Win32,60,13395,0.31988,,,,,,,,,,,,,,0,34,34,22,1,,,,,,,,,,,,,,,,,,,,,,,,,,
,,,,,,,,,,,,a,Correct!,,,,,,t5.png,t4.png,1,0.90025,22,Male,2020-10-22_14h33.39.268,torte-q,2020.1.3,Win32,60,13395,0.45348,,,,,,,,,,,,,,0,35,35,27,1,,,,,,,,,,,,,,,,,,,,,,,,,,
,,,,,,,,,,,,a,Incorrect,,,,,,t3.png,t5.png,2,0.056466,22,Male,2020-10-22_14h33.39.268,torte-q,2020.1.3,Win32,60,13395,0.60564,,,,,,,,,,,,,,0,36,36,44,1,,,,,,,,,,,,,,,,,,,,,,,,,,
,,,,,,,,,,,,l,Incorrect,,,,,,t3.png,t4.png,1,0.90855,22,Male,2020-10-22_14h33.39.268,torte-q,2020.1.3,Win32,60,13395,0.327775,,,,,,,,,,,,,,0,37,37,84,1,,,,,,,,,,,,,,,,,,,,,,,,,,
,,,,,,,,,,,,l,Incorrect,,,,,,t4.png,t3.png,1,0.909,22,Male,2020-10-22_14h33.39.268,torte-q,2020.1.3,Win32,60,13395,0.616615,,,,,,,,,,,,,,0,38,38,20,1,,,,,,,,,,,,,,,,,,,,,,,,,,
,,,,,,,,,,,,l,Correct!,,,,,,t4.png,t2.png,2,0.059078,22,Male,2020-10-22_14h33.39.268,torte-q,2020.1.3,Win32,60,13395,0.33529,,,,,,,,,,,,,,0,39,39,86,1,,,,,,,,,,,,,,,,,,,,,,,,,,
,,,,,,,,,,,,l,Correct!,,,,,,t4.png,t1.png,3,0.0000131,22,Male,2020-10-22_14h33.39.268,torte-q,2020.1.3,Win32,60,13395,1.371985,,,,,,,,,,,,,,0,40,40,48,1,,,,,,,,,,,,,,,,,,,,,,,,,,
,,,,,,,,,,,,l,Correct!,,,,,,t1.png,t5.png,4,9.55E-11,22,Male,2020-10-22_14h33.39.268,torte-q,2020.1.3,Win32,60,13395,0.10354,,,,,,,,,,,,,,0,41,41,16,1,,,,,,,,,,,,,,,,,,,,,,,,,,
,,,,,,,,,,,,l,Incorrect,,,,,,t3.png,t1.png,2,0.056466,22,Male,2020-10-22_14h33.39.268,torte-q,2020.1.3,Win32,60,13395,0.149925,,,,,,,,,,,,,,0,42,42,32,1,,,,,,,,,,,,,,,,,,,,,,,,,,
,,,,,,,,,,,,l,Incorrect,,,,,,t1.png,t2.png,1,0.90025,22,Male,2020-10-22_14h33.39.268,torte-q,2020.1.3,Win32,60,13395,0.266055,,,,,,,,,,,,,,0,43,43,105,1,,,,,,,,,,,,,,,,,,,,,,,,,,
,,,,,,,,,,,,a,Correct!,,,,,,t4.png,t4.png,0,0.98115,22,Male,2020-10-22_14h33.39.268,torte-q,2020.1.3,Win32,60,13395,0.273405,,,,,,,,,,,,,,0,44,44,79,1,,,,,,,,,,,,,,,,,,,,,,,,,,
,,,,,,,,,,,,a,Correct!,,,,,,t5.png,t5.png,0,0.97829,22,Male,2020-10-22_14h33.39.268,torte-q,2020.1.3,Win32,60,13395,0.280675,,,,,,,,,,,,,,0,45,45,25,1,,,,,,,,,,,,,,,,,,,,,,,,,,
,,,,,,,,,,,,a,Correct!,,,,,,t4.png,t5.png,1,0.90025,22,Male,2020-10-22_14h33.39.268,torte-q,2020.1.3,Win32,60,13395,0.272295,,,,,,,,,,,,,,0,46,46,113,1,,,,,,,,,,,,,,,,,,,,,,,,,,
,,,,,,,,,,,,a,Correct!,,,,,,t4.png,t3.png,1,0.90855,22,Male,2020-10-22_14h33.39.268,torte-q,2020.1.3,Win32,60,13395,0.327595,,,,,,,,,,,,,,0,47,47,35,1,,,,,,,,,,,,,,,,,,,,,,,,,,
,,,,,,,,,,,,a,Correct!,,,,,,t4.png,t4.png,0,0.98115,22,Male,2020-10-22_14h33.39.268,torte-q,2020.1.3,Win32,60,13395,0.35017,,,,,,,,,,,,,,0,48,48,21,1,,,,,,,,,,,,,,,,,,,,,,,,,,
,,,,,,,,,,,,l,Correct!,,,,,,t1.png,t1.png,0,0.97829,22,Male,2020-10-22_14h33.39.268,torte-q,2020.1.3,Win32,60,13395,0.46676,,,,,,,,,,,,,,0,49,49,9,1,,,,,,,,,,,,,,,,,,,,,,,,,,
,,,,,,,,,,,,l,Incorrect,,,,,,t3.png,t2.png,1,0.90855,22,Male,2020-10-22_14h33.39.268,torte-q,2020.1.3,Win32,60,13395,0.53702,,,,,,,,,,,,,,0,50,50,53,1,,,,,,,,,,,,,,,,,,,,,,,,,,
,,,,,,,,,,,,a,Incorrect,,,,,,t1.png,t5.png,4,9.55E-11,22,Male,2020-10-22_14h33.39.268,torte-q,2020.1.3,Win32,60,13395,0.333625,,,,,,,,,,,,,,0,51,51,85,1,,,,,,,,,,,,,,,,,,,,,,,,,,
,,,,,,,,,,,,a,Incorrect,,,,,,t5.png,t1.png,4,9.55E-11,22,Male,2020-10-22_14h33.39.268,torte-q,2020.1.3,Win32,60,13395,0.366855,,,,,,,,,,,,,,0,52,52,100,1,,,,,,,,,,,,,,,,,,,,,,,,,,
,,,,,,,,,,,,a,Incorrect,,,,,,t3.png,t5.png,2,0.056466,22,Male,2020-10-22_14h33.39.268,torte-q,2020.1.3,Win32,60,13395,0.199955,,,,,,,,,,,,,,0,53,53,14,1,,,,,,,,,,,,,,,,,,,,,,,,,,
,,,,,,,,,,,,a,Correct!,,,,,,t5.png,t5.png,0,0.978,22,Male,2020-10-22_14h33.39.268,torte-q,2020.1.3,Win32,60,13395,0.34456,,,,,,,,,,,,,,0,54,54,117,1,,,,,,,,,,,,,,,,,,,,,,,,,,
,,,,,,,,,,,,a,Incorrect,,,,,,t3.png,t1.png,2,0.056466,22,Male,2020-10-22_14h33.39.268,torte-q,2020.1.3,Win32,60,13395,0.485305,,,,,,,,,,,,,,0,55,55,29,1,,,,,,,,,,,,,,,,,,,,,,,,,,
,,,,,,,,,,,,a,Correct!,,,,,,t1.png,t1.png,0,0.97829,22,Male,2020-10-22_14h33.39.268,torte-q,2020.1.3,Win32,60,13395,0.16679,,,,,,,,,,,,,,0,56,56,78,1,,,,,,,,,,,,,,,,,,,,,,,,,,
,,,,,,,,,,,,a,Incorrect,,,,,,t5.png,t3.png,2,0.056466,22,Male,2020-10-22_14h33.39.268,torte-q,2020.1.3,Win32,60,13395,2.04024,,,,,,,,,,,,,,0,57,57,108,1,,,,,,,,,,,,,,,,,,,,,,,,,,
,,,,,,,,,,,,l,Incorrect,,,,,,t4.png,t5.png,1,0.90025,22,Male,2020-10-22_14h33.39.268,torte-q,2020.1.3,Win32,60,13395,0.20925,,,,,,,,,,,,,,0,58,58,103,1,,,,,,,,,,,,,,,,,,,,,,,,,,
,,,,,,,,,,,,a,Correct!,,,,,,t1.png,t2.png,1,0.90025,22,Male,2020-10-22_14h33.39.268,torte-q,2020.1.3,Win32,60,13395,0.291355,,,,,,,,,,,,,,0,59,59,72,1,,,,,,,,,,,,,,,,,,,,,,,,,,
,,,,,,,,,,,,l,Correct!,,,,,,t3.png,t1.png,2,0.056466,22,Male,2020-10-22_14h33.39.268,torte-q,2020.1.3,Win32,60,13395,0.090145,,,,,,,,,,,,,,0,60,60,0,1,,,,,,,,,,,,,,,,,,,,,,,,,,
,,,,,,,,,,,,a,Correct!,,,,,,t3.png,t4.png,1,0.90855,22,Male,2020-10-22_14h33.39.268,torte-q,2020.1.3,Win32,60,13395,0.105,,,,,,,,,,,,,,0,61,61,96,1,,,,,,,,,,,,,,,,,,,,,,,,,,
,,,,,,,,,,,,a,Correct!,,,,,,t2.png,t2.png,0,0.981,22,Male,2020-10-22_14h33.39.268,torte-q,2020.1.3,Win32,60,13395,0.054875,,,,,,,,,,,,,,0,62,62,101,1,,,,,,,,,,,,,,,,,,,,,,,,,,
,,,,,,,,,,,,l,Correct!,,,,,,t4.png,t2.png,2,0.0591,22,Male,2020-10-22_14h33.39.268,torte-q,2020.1.3,Win32,60,13395,0.15914,,,,,,,,,,,,,,0,63,63,36,1,,,,,,,,,,,,,,,,,,,,,,,,,,
,,,,,,,,,,,,a,Correct!,,,,,,t5.png,t3.png,2,0.056466,22,Male,2020-10-22_14h33.39.268,torte-q,2020.1.3,Win32,60,13395,0.01669,,,,,,,,,,,,,,0,64,64,56,1,,,,,,,,,,,,,,,,,,,,,,,,,,
,,,,,,,,,,,,l,Correct!,,,,,,t2.png,t5.png,3,0.0000131,22,Male,2020-10-22_14h33.39.268,torte-q,2020.1.3,Win32,60,13395,0.085375,,,,,,,,,,,,,,0,65,65,66,1,,,,,,,,,,,,,,,,,,,,,,,,,,
,,,,,,,,,,,,a,Incorrect,,,,,,t5.png,t3.png,2,0.0565,22,Male,2020-10-22_14h33.39.268,torte-q,2020.1.3,Win32,60,13395,0.12397,,,,,,,,,,,,,,0,66,66,39,1,,,,,,,,,,,,,,,,,,,,,,,,,,
,,,,,,,,,,,,l,Incorrect,,,,,,t1.png,t1.png,0,0.97829,22,Male,2020-10-22_14h33.39.268,torte-q,2020.1.3,Win32,60,13395,0.16144,,,,,,,,,,,,,,0,67,67,67,1,,,,,,,,,,,,,,,,,,,,,,,,,,
,,,,,,,,,,,,l,Incorrect,,,,,,t3.png,t4.png,1,0.909,22,Male,2020-10-22_14h33.39.268,torte-q,2020.1.3,Win32,60,13395,0.205875,,,,,,,,,,,,,,0,68,68,89,1,,,,,,,,,,,,,,,,,,,,,,,,,,
,,,,,,,,,,,,a,Incorrect,,,,,,t5.png,t1.png,4,9.55E-11,22,Male,2020-10-22_14h33.39.268,torte-q,2020.1.3,Win32,60,13395,0.03339,,,,,,,,,,,,,,0,69,69,71,1,,,,,,,,,,,,,,,,,,,,,,,,,,
,,,,,,,,,,,,a,Correct!,,,,,,t5.png,t5.png,0,0.97829,22,Male,2020-10-22_14h33.39.268,torte-q,2020.1.3,Win32,60,13395,0.233445,,,,,,,,,,,,,,0,70,70,94,1,,,,,,,,,,,,,,,,,,,,,,,,,,
,,,,,,,,,,,,a,Incorrect,,,,,,t4.png,t1.png,3,0.0000131,22,Male,2020-10-22_14h33.39.268,torte-q,2020.1.3,Win32,60,13395,0.21796,,,,,,,,,,,,,,0,71,71,93,1,,,,,,,,,,,,,,,,,,,,,,,,,,
,,,,,,,,,,,,a,Correct!,,,,,,t4.png,t5.png,1,0.9,22,Male,2020-10-22_14h33.39.268,torte-q,2020.1.3,Win32,60,13395,0.03547,,,,,,,,,,,,,,0,72,72,115,1,,,,,,,,,,,,,,,,,,,,,,,,,,
,,,,,,,,,,,,l,Correct!,,,,,,t4.png,t1.png,3,0.0000131,22,Male,2020-10-22_14h33.39.268,torte-q,2020.1.3,Win32,60,13395,0.000265,,,,,,,,,,,,,,0,73,73,13,1,,,,,,,,,,,,,,,,,,,,,,,,,,
,,,,,,,,,,,,l,Incorrect,,,,,,t2.png,t1.png,1,0.9,22,Male,2020-10-22_14h33.39.268,torte-q,2020.1.3,Win32,60,13395,0.047045,,,,,,,,,,,,,,0,74,74,118,1,,,,,,,,,,,,,,,,,,,,,,,,,,
,,,,,,,,,,,,l,Correct!,,,,,,t5.png,t3.png,2,0.056466,22,Male,2020-10-22_14h33.39.268,torte-q,2020.1.3,Win32,60,13395,0.06399,,,,,,,,,,,,,,0,75,75,114,1,,,,,,,,,,,,,,,,,,,,,,,,,,
,,,,,,,,,,,,a,Incorrect,,,,,,t2.png,t4.png,2,0.059078,22,Male,2020-10-22_14h33.39.268,torte-q,2020.1.3,Win32,60,13395,0.99178,,,,,,,,,,,,,,0,76,76,11,1,,,,,,,,,,,,,,,,,,,,,,,,,,
,,,,,,,,,,,,a,Correct!,,,,,,t2.png,t2.png,0,0.98115,22,Male,2020-10-22_14h33.39.268,torte-q,2020.1.3,Win32,60,13395,0.233465,,,,,,,,,,,,,,0,77,77,57,1,,,,,,,,,,,,,,,,,,,,,,,,,,
,,,,,,,,,,,,a,Incorrect,,,,,,t3.png,t5.png,2,0.0565,22,Male,2020-10-22_14h33.39.268,torte-q,2020.1.3,Win32,60,13395,0.124075,,,,,,,,,,,,,,0,78,78,83,1,,,,,,,,,,,,,,,,,,,,,,,,,,
,,,,,,,,,,,,a,Correct!,,,,,,t5.png,t4.png,1,0.90025,22,Male,2020-10-22_14h33.39.268,torte-q,2020.1.3,Win32,60,13395,0.13768,,,,,,,,,,,,,,0,79,79,26,1,,,,,,,,,,,,,,,,,,,,,,,,,,
,,,,,,,,,,,,l,Incorrect,,,,,,t3.png,t2.png,1,0.909,22,Male,2020-10-22_14h33.39.268,torte-q,2020.1.3,Win32,60,13395,0.10241,,,,,,,,,,,,,,0,80,80,23,1,,,,,,,,,,,,,,,,,,,,,,,,,,
,,,,,,,,,,,,l,Incorrect,,,,,,t1.png,t1.png,0,0.978,22,Male,2020-10-22_14h33.39.268,torte-q,2020.1.3,Win32,60,13395,0.108565,,,,,,,,,,,,,,0,81,81,28,1,,,,,,,,,,,,,,,,,,,,,,,,,,
,,,,,,,,,,,,l,Correct!,,,,,,t1.png,t4.png,3,0.0000131,22,Male,2020-10-22_14h33.39.268,torte-q,2020.1.3,Win32,60,13395,0.20252,,,,,,,,,,,,,,0,82,82,107,1,,,,,,,,,,,,,,,,,,,,,,,,,,
,,,,,,,,,,,,l,Incorrect,,,,,,t4.png,t3.png,1,0.90855,22,Male,2020-10-22_14h33.39.268,torte-q,2020.1.3,Win32,60,13395,0.236675,,,,,,,,,,,,,,0,83,83,45,1,,,,,,,,,,,,,,,,,,,,,,,,,,
,,,,,,,,,,,,l,Correct!,,,,,,t3.png,t5.png,2,0.0565,22,Male,2020-10-22_14h33.39.268,torte-q,2020.1.3,Win32,60,13395,0.189415,,,,,,,,,,,,,,0,84,84,30,1,,,,,,,,,,,,,,,,,,,,,,,,,,
,,,,,,,,,,,,a,Incorrect,,,,,,t2.png,t4.png,2,0.059078,22,Male,2020-10-22_14h33.39.268,torte-q,2020.1.3,Win32,60,13395,0.00026,,,,,,,,,,,,,,0,85,85,37,1,,,,,,,,,,,,,,,,,,,,,,,,,,
,,,,,,,,,,,,a,Correct!,,,,,,t2.png,t3.png,1,0.90855,22,Male,2020-10-22_14h33.39.268,torte-q,2020.1.3,Win32,60,13395,0.17113,,,,,,,,,,,,,,0,86,86,111,1,,,,,,,,,,,,,,,,,,,,,,,,,,
,,,,,,,,,,,,a,Incorrect,,,,,,t5.png,t2.png,3,0.0000131,22,Male,2020-10-22_14h33.39.268,torte-q,2020.1.3,Win32,60,13395,0.12674,,,,,,,,,,,,,,0,87,87,98,1,,,,,,,,,,,,,,,,,,,,,,,,,,
,,,,,,,,,,,,a,Incorrect,,,,,,t5.png,t2.png,3,0.0000131,22,Male,2020-10-22_14h33.39.268,torte-q,2020.1.3,Win32,60,13395,0.21201,,,,,,,,,,,,,,0,88,88,91,1,,,,,,,,,,,,,,,,,,,,,,,,,,
,,,,,,,,,,,,a,Correct!,,,,,,t1.png,t2.png,1,0.90025,22,Male,2020-10-22_14h33.39.268,torte-q,2020.1.3,Win32,60,13395,0.16675,,,,,,,,,,,,,,0,89,89,112,1,,,,,,,,,,,,,,,,,,,,,,,,,,
,,,,,,,,,,,,a,Correct!,,,,,,t4.png,t5.png,1,0.90025,22,Male,2020-10-22_14h33.39.268,torte-q,2020.1.3,Win32,60,13395,0.16943,,,,,,,,,,,,,,0,90,90,58,1,,,,,,,,,,,,,,,,,,,,,,,,,,
,,,,,,,,,,,,a,Correct!,,,,,,t4.png,t5.png,1,0.90025,22,Male,2020-10-22_14h33.39.268,torte-q,2020.1.3,Win32,60,13395,0.25289,,,,,,,,,,,,,,0,91,91,47,1,,,,,,,,,,,,,,,,,,,,,,,,,,
,,,,,,,,,,,,a,Correct!,,,,,,t5.png,t4.png,1,0.9,22,Male,2020-10-22_14h33.39.268,torte-q,2020.1.3,Win32,60,13395,0.25315,,,,,,,,,,,,,,0,92,92,76,1,,,,,,,,,,,,,,,,,,,,,,,,,,
,,,,,,,,,,,,a,Incorrect,,,,,,t5.png,t3.png,2,0.056466,22,Male,2020-10-22_14h33.39.268,torte-q,2020.1.3,Win32,60,13395,0.20545,,,,,,,,,,,,,,0,93,93,38,1,,,,,,,,,,,,,,,,,,,,,,,,,,
,,,,,,,,,,,,a,Correct!,,,,,,t3.png,t2.png,1,0.90855,22,Male,2020-10-22_14h33.39.268,torte-q,2020.1.3,Win32,60,13395,0.08739,,,,,,,,,,,,,,0,94,94,97,1,,,,,,,,,,,,,,,,,,,,,,,,,,
,,,,,,,,,,,,a,Incorrect,,,,,,t1.png,t4.png,3,0.0000131,22,Male,2020-10-22_14h33.39.268,torte-q,2020.1.3,Win32,60,13395,0.18342,,,,,,,,,,,,,,0,95,95,81,1,,,,,,,,,,,,,,,,,,,,,,,,,,
,,,,,,,,,,,,a,Incorrect,,,,,,t1.png,t4.png,3,0.0000131,22,Male,2020-10-22_14h33.39.268,torte-q,2020.1.3,Win32,60,13395,0.21767,,,,,,,,,,,,,,0,96,96,50,1,,,,,,,,,,,,,,,,,,,,,,,,,,
,,,,,,,,,,,,a,Incorrect,,,,,,t2.png,t4.png,2,0.0591,22,Male,2020-10-22_14h33.39.268,torte-q,2020.1.3,Win32,60,13395,0.04961,,,,,,,,,,,,,,0,97,97,15,1,,,,,,,,,,,,,,,,,,,,,,,,,,
,,,,,,,,,,,,l,Correct!,,,,,,t1.png,t3.png,2,0.056466,22,Male,2020-10-22_14h33.39.268,torte-q,2020.1.3,Win32,60,13395,0.067795,,,,,,,,,,,,,,0,98,98,87,1,,,,,,,,,,,,,,,,,,,,,,,,,,
,,,,,,,,,,,,l,Correct!,,,,,,t3.png,t1.png,2,0.0565,22,Male,2020-10-22_14h33.39.268,torte-q,2020.1.3,Win32,60,13395,0.133295,,,,,,,,,,,,,,0,99,99,31,1,,,,,,,,,,,,,,,,,,,,,,,,,,
,,,,,,,,,,,,l,Correct!,,,,,,t5.png,t2.png,3,0.0000131,22,Male,2020-10-22_14h33.39.268,torte-q,2020.1.3,Win32,60,13395,0.288125,,,,,,,,,,,,,,0,100,100,116,1,,,,,,,,,,,,,,,,,,,,,,,,,,
,,,,,,,,,,,,l,Incorrect,,,,,,t2.png,t4.png,2,0.059078,22,Male,2020-10-22_14h33.39.268,torte-q,2020.1.3,Win32,60,13395,0.0467,,,,,,,,,,,,,,0,101,101,77,1,,,,,,,,,,,,,,,,,,,,,,,,,,
,,,,,,,,,,,,l,Incorrect,,,,,,t3.png,t2.png,1,0.909,22,Male,2020-10-22_14h33.39.268,torte-q,2020.1.3,Win32,60,13395,0.00025,,,,,,,,,,,,,,0,102,102,3,1,,,,,,,,,,,,,,,,,,,,,,,,,,
,,,,,,,,,,,,l,Correct!,,,,,,t1.png,t3.png,2,0.056466,22,Male,2020-10-22_14h33.39.268,torte-q,2020.1.3,Win32,60,13395,0.026245,,,,,,,,,,,,,,0,103,103,99,1,,,,,,,,,,,,,,,,,,,,,,,,,,
,,,,,,,,,,,,l,Correct!,,,,,,t3.png,t4.png,1,0.909,22,Male,2020-10-22_14h33.39.268,torte-q,2020.1.3,Win32,60,13395,0.027655,,,,,,,,,,,,,,0,104,104,82,1,,,,,,,,,,,,,,,,,,,,,,,,,,
,,,,,,,,,,,,l,Incorrect,,,,,,t2.png,t1.png,1,0.90025,22,Male,2020-10-22_14h33.39.268,torte-q,2020.1.3,Win32,60,13395,0.18927,,,,,,,,,,,,,,0,105,105,5,1,,,,,,,,,,,,,,,,,,,,,,,,,,
,,,,,,,,,,,,l,Correct!,,,,,,t1.png,t3.png,2,0.056466,22,Male,2020-10-22_14h33.39.268,torte-q,2020.1.3,Win32,60,13395,0.048085,,,,,,,,,,,,,,0,106,106,69,1,,,,,,,,,,,,,,,,,,,,,,,,,,
,,,,,,,,,,,,a,Correct!,,,,,,t2.png,t2.png,0,0.98115,22,Male,2020-10-22_14h33.39.268,torte-q,2020.1.3,Win32,60,13395,0.168955,,,,,,,,,,,,,,0,107,107,2,1,,,,,,,,,,,,,,,,,,,,,,,,,,
,,,,,,,,,,,,a,Correct!,,,,,,t5.png,t5.png,0,0.97829,22,Male,2020-10-22_14h33.39.268,torte-q,2020.1.3,Win32,60,13395,0.212285,,,,,,,,,,,,,,0,108,108,70,1,,,,,,,,,,,,,,,,,,,,,,,,,,
,,,,,,,,,,,,a,Incorrect,,,,,,t2.png,t5.png,3,0.0000131,22,Male,2020-10-22_14h33.39.268,torte-q,2020.1.3,Win32,60,13395,0.038375,,,,,,,,,,,,,,0,109,109,8,1,,,,,,,,,,,,,,,,,,,,,,,,,,
,,,,,,,,,,,,a,Correct!,,,,,,t2.png,t2.png,0,0.98115,22,Male,2020-10-22_14h33.39.268,torte-q,2020.1.3,Win32,60,13395,0.223175,,,,,,,,,,,,,,0,110,110,59,1,,,,,,,,,,,,,,,,,,,,,,,,,,
,,,,,,,,,,,,a,Correct!,,,,,,t2.png,t1.png,1,0.90025,22,Male,2020-10-22_14h33.39.268,torte-q,2020.1.3,Win32,60,13395,0.06461,,,,,,,,,,,,,,0,111,111,4,1,,,,,,,,,,,,,,,,,,,,,,,,,,
,,,,,,,,,,,,a,Correct!,,,,,,t5.png,t4.png,1,0.90025,22,Male,2020-10-22_14h33.39.268,torte-q,2020.1.3,Win32,60,13395,0.16874,,,,,,,,,,,,,,0,112,112,34,1,,,,,,,,,,,,,,,,,,,,,,,,,,
,,,,,,,,,,,,a,Correct!,,,,,,t5.png,t5.png,0,0.97829,22,Male,2020-10-22_14h33.39.268,torte-q,2020.1.3,Win32,60,13395,0.292165,,,,,,,,,,,,,,0,113,113,73,1,,,,,,,,,,,,,,,,,,,,,,,,,,
,,,,,,,,,,,,a,Incorrect,,,,,,t1.png,t5.png,4,9.55E-11,22,Male,2020-10-22_14h33.39.268,torte-q,2020.1.3,Win32,60,13395,0.21095,,,,,,,,,,,,,,0,114,114,55,1,,,,,,,,,,,,,,,,,,,,,,,,,,
,,,,,,,,,,,,a,Correct!,,,,,,t2.png,t1.png,1,0.90025,22,Male,2020-10-22_14h33.39.268,torte-q,2020.1.3,Win32,60,13395,0.31711,,,,,,,,,,,,,,0,115,115,19,1,,,,,,,,,,,,,,,,,,,,,,,,,,
,,,,,,,,,,,,l,Incorrect,,,,,,t4.png,t4.png,0,0.98115,22,Male,2020-10-22_14h33.39.268,torte-q,2020.1.3,Win32,60,13395,0.50022,,,,,,,,,,,,,,0,116,116,80,1,,,,,,,,,,,,,,,,,,,,,,,,,,
,,,,,,,,,,,,l,Incorrect,,,,,,t2.png,t1.png,1,0.90025,22,Male,2020-10-22_14h33.39.268,torte-q,2020.1.3,Win32,60,13395,0.16857,,,,,,,,,,,,,,0,117,117,62,1,,,,,,,,,,,,,,,,,,,,,,,,,,
,,,,,,,,,,,,a,Incorrect,,,,,,t5.png,t1.png,4,9.55E-11,22,Male,2020-10-22_14h33.39.268,torte-q,2020.1.3,Win32,60,13395,0.33328,,,,,,,,,,,,,,0,118,118,43,1,,,,,,,,,,,,,,,,,,,,,,,,,,
,,,,,,,,,,,,a,Incorrect,,,,,,t1.png,t4.png,3,0.0000131,22,Male,2020-10-22_14h33.39.268,torte-q,2020.1.3,Win32,60,13395,0.016935,,,,,,,,,,,,,,0,119,119,92,1,,,,,,,,,,,,,,,,,,,,,,,,,,
,,,,,,,,,,,,,,,,,,,,,,,22,Male,2020-10-22_14h33.39.268,torte-q,2020.1.3,Win32,60,13395,,a,1.852495,,,,,,,,,,,,,,,,,4.99,12.780205,28,115,1,0,0,s2,41,25,1,0,0,t2,317,-99,1,0,0,proceed,g,1.650075,g,0.29529,g,0.05007
