key_resp_8.keys,key_resp_8.rt,key_resp_9.keys,key_resp_9.rt,key_resp_10.keys,key_resp_10.rt,key_resp_11.keys,key_resp_11.rt,key_resp_2.keys,key_resp_2.rt,key_resp_3.keys,key_resp_3.rt,key_resp.keys,key_resp.rt,Feedback,train.thisRepN,train.thisTrialN,train.thisN,train.thisIndex,train.ran,torta_sx,torta_dx,difference,probability,age,gender,date,expName,psychopyVersion,OS,frameRate,participant,key_resp_15.keys,key_resp_15.rt,key_resp_6.keys,key_resp_6.rt,test1.thisRepN,test1.thisTrialN,test1.thisN,test1.thisIndex,test1.ran,key_resp_16.keys,key_resp_16.rt,key_resp_7.keys,key_resp_7.rt,test2.thisRepN,test2.thisTrialN,test2.thisN,test2.thisIndex,test2.ran,rating.response,rating.rt,mouse.x,mouse.y,mouse.leftButton,mouse.midButton,mouse.rightButton,mouse.clicked_name,mouse_2.x,mouse_2.y,mouse_2.leftButton,mouse_2.midButton,mouse_2.rightButton,mouse_2.clicked_name,mouse_3.x,mouse_3.y,mouse_3.leftButton,mouse_3.midButton,mouse_3.rightButton,mouse_3.clicked_name,key_resp_12.keys,key_resp_12.rt,key_resp_13.keys,key_resp_13.rt,key_resp_14.keys,key_resp_14.rt
space,0.131085,space,0.16884,space,0.163975,space,22.66706,semicolon,15.048625,space,51.514965,a,2.065225,Correct!,0,0,0,64,1,t1.png,t1.png,0,0.978,19,Male,2020-10-19_23h04.04.615,torte-q,2020.1.3,Win32,60,13877,,,,,,,,,,,,,,,,,,,,,,,,,,,,,,,,,,,,,,,,,,,,
,,,,,,,,,,,,l,0.73064,Correct!,0,1,1,35,1,t1.png,t4.png,3,0.0000131,19,Male,2020-10-19_23h04.04.615,torte-q,2020.1.3,Win32,60,13877,,,,,,,,,,,,,,,,,,,,,,,,,,,,,,,,,,,,,,,,,,,,
,,,,,,,,,,,,l,1.06354,Correct!,0,2,2,14,1,t2.png,t4.png,2,0.059078,19,Male,2020-10-19_23h04.04.615,torte-q,2020.1.3,Win32,60,13877,,,,,,,,,,,,,,,,,,,,,,,,,,,,,,,,,,,,,,,,,,,,
,,,,,,,,,,,,a,0.600475,Incorrect,0,3,3,108,1,t5.png,t1.png,4,9.55E-11,19,Male,2020-10-19_23h04.04.615,torte-q,2020.1.3,Win32,60,13877,,,,,,,,,,,,,,,,,,,,,,,,,,,,,,,,,,,,,,,,,,,,
,,,,,,,,,,,,a,0.513915,Incorrect,0,4,4,0,1,t5.png,t1.png,4,9.55E-11,19,Male,2020-10-19_23h04.04.615,torte-q,2020.1.3,Win32,60,13877,,,,,,,,,,,,,,,,,,,,,,,,,,,,,,,,,,,,,,,,,,,,
,,,,,,,,,,,,l,0.780985,Incorrect,0,5,5,20,1,t2.png,t3.png,1,0.90855,19,Male,2020-10-19_23h04.04.615,torte-q,2020.1.3,Win32,60,13877,,,,,,,,,,,,,,,,,,,,,,,,,,,,,,,,,,,,,,,,,,,,
,,,,,,,,,,,,a,1.52207,Correct!,0,6,6,78,1,t1.png,t1.png,0,0.978,19,Male,2020-10-19_23h04.04.615,torte-q,2020.1.3,Win32,60,13877,,,,,,,,,,,,,,,,,,,,,,,,,,,,,,,,,,,,,,,,,,,,
,,,,,,,,,,,,a,1.41452,Correct!,0,7,7,16,1,t5.png,t4.png,1,0.9,19,Male,2020-10-19_23h04.04.615,torte-q,2020.1.3,Win32,60,13877,,,,,,,,,,,,,,,,,,,,,,,,,,,,,,,,,,,,,,,,,,,,
,,,,,,,,,,,,a,0.96427,Correct!,0,8,8,41,1,t3.png,t2.png,1,0.90855,19,Male,2020-10-19_23h04.04.615,torte-q,2020.1.3,Win32,60,13877,,,,,,,,,,,,,,,,,,,,,,,,,,,,,,,,,,,,,,,,,,,,
,,,,,,,,,,,,a,0.43165,Incorrect,0,9,9,51,1,t3.png,t1.png,2,0.056466,19,Male,2020-10-19_23h04.04.615,torte-q,2020.1.3,Win32,60,13877,,,,,,,,,,,,,,,,,,,,,,,,,,,,,,,,,,,,,,,,,,,,
,,,,,,,,,,,,l,0.002045,Incorrect,0,10,10,29,1,t5.png,t5.png,0,0.97829,19,Male,2020-10-19_23h04.04.615,torte-q,2020.1.3,Win32,60,13877,,,,,,,,,,,,,,,,,,,,,,,,,,,,,,,,,,,,,,,,,,,,
,,,,,,,,,,,,a,0.98741,Correct!,0,11,11,70,1,t5.png,t5.png,0,0.978,19,Male,2020-10-19_23h04.04.615,torte-q,2020.1.3,Win32,60,13877,,,,,,,,,,,,,,,,,,,,,,,,,,,,,,,,,,,,,,,,,,,,
,,,,,,,,,,,,l,0.605345,Correct!,0,12,12,99,1,t1.png,t5.png,4,9.55E-11,19,Male,2020-10-19_23h04.04.615,torte-q,2020.1.3,Win32,60,13877,,,,,,,,,,,,,,,,,,,,,,,,,,,,,,,,,,,,,,,,,,,,
,,,,,,,,,,,,a,0.513915,Incorrect,0,13,13,33,1,t5.png,t1.png,4,9.55E-11,19,Male,2020-10-19_23h04.04.615,torte-q,2020.1.3,Win32,60,13877,,,,,,,,,,,,,,,,,,,,,,,,,,,,,,,,,,,,,,,,,,,,
,,,,,,,,,,,,l,0.8825,Correct!,0,14,14,40,1,t1.png,t5.png,4,9.55E-11,19,Male,2020-10-19_23h04.04.615,torte-q,2020.1.3,Win32,60,13877,,,,,,,,,,,,,,,,,,,,,,,,,,,,,,,,,,,,,,,,,,,,
,,,,,,,,,,,,a,1.06399,Incorrect,0,15,15,3,1,t1.png,t5.png,4,9.55E-11,19,Male,2020-10-19_23h04.04.615,torte-q,2020.1.3,Win32,60,13877,,,,,,,,,,,,,,,,,,,,,,,,,,,,,,,,,,,,,,,,,,,,
,,,,,,,,,,,,a,0.83889,Incorrect,0,16,16,87,1,t5.png,t1.png,4,9.55E-11,19,Male,2020-10-19_23h04.04.615,torte-q,2020.1.3,Win32,60,13877,,,,,,,,,,,,,,,,,,,,,,,,,,,,,,,,,,,,,,,,,,,,
,,,,,,,,,,,,l,0.465115,Correct!,0,17,17,93,1,t2.png,t4.png,2,0.059078,19,Male,2020-10-19_23h04.04.615,torte-q,2020.1.3,Win32,60,13877,,,,,,,,,,,,,,,,,,,,,,,,,,,,,,,,,,,,,,,,,,,,
,,,,,,,,,,,,l,1.23991,Incorrect,0,18,18,66,1,t4.png,t5.png,1,0.9,19,Male,2020-10-19_23h04.04.615,torte-q,2020.1.3,Win32,60,13877,,,,,,,,,,,,,,,,,,,,,,,,,,,,,,,,,,,,,,,,,,,,
,,,,,,,,,,,,a,1.125755,Correct!,0,19,19,13,1,t5.png,t5.png,0,0.97829,19,Male,2020-10-19_23h04.04.615,torte-q,2020.1.3,Win32,60,13877,,,,,,,,,,,,,,,,,,,,,,,,,,,,,,,,,,,,,,,,,,,,
,,,,,,,,,,,,l,1.43174,Incorrect,0,20,20,22,1,t2.png,t3.png,1,0.90855,19,Male,2020-10-19_23h04.04.615,torte-q,2020.1.3,Win32,60,13877,,,,,,,,,,,,,,,,,,,,,,,,,,,,,,,,,,,,,,,,,,,,
,,,,,,,,,,,,l,2.405045,Incorrect,0,21,21,101,1,t4.png,t5.png,1,0.90025,19,Male,2020-10-19_23h04.04.615,torte-q,2020.1.3,Win32,60,13877,,,,,,,,,,,,,,,,,,,,,,,,,,,,,,,,,,,,,,,,,,,,
,,,,,,,,,,,,a,1.71495,Correct!,0,22,22,43,1,t4.png,t2.png,2,0.059078,19,Male,2020-10-19_23h04.04.615,torte-q,2020.1.3,Win32,60,13877,,,,,,,,,,,,,,,,,,,,,,,,,,,,,,,,,,,,,,,,,,,,
,,,,,,,,,,,,l,0.44279,Correct!,0,23,23,73,1,t4.png,t2.png,2,0.059078,19,Male,2020-10-19_23h04.04.615,torte-q,2020.1.3,Win32,60,13877,,,,,,,,,,,,,,,,,,,,,,,,,,,,,,,,,,,,,,,,,,,,
,,,,,,,,,,,,l,0.31383,Incorrect,0,24,24,34,1,t5.png,t4.png,1,0.9,19,Male,2020-10-19_23h04.04.615,torte-q,2020.1.3,Win32,60,13877,,,,,,,,,,,,,,,,,,,,,,,,,,,,,,,,,,,,,,,,,,,,
,,,,,,,,,,,,a,0.13229,Correct!,0,25,25,100,1,t4.png,t5.png,1,0.90025,19,Male,2020-10-19_23h04.04.615,torte-q,2020.1.3,Win32,60,13877,,,,,,,,,,,,,,,,,,,,,,,,,,,,,,,,,,,,,,,,,,,,
,,,,,,,,,,,,a,0.002315,Incorrect,0,26,26,94,1,t5.png,t1.png,4,9.55E-11,19,Male,2020-10-19_23h04.04.615,torte-q,2020.1.3,Win32,60,13877,,,,,,,,,,,,,,,,,,,,,,,,,,,,,,,,,,,,,,,,,,,,
,,,,,,,,,,,,a,0.097855,Correct!,0,27,27,18,1,t4.png,t5.png,1,0.90025,19,Male,2020-10-19_23h04.04.615,torte-q,2020.1.3,Win32,60,13877,,,,,,,,,,,,,,,,,,,,,,,,,,,,,,,,,,,,,,,,,,,,
,,,,,,,,,,,,a,0.14877,Correct!,0,28,28,114,1,t2.png,t3.png,1,0.90855,19,Male,2020-10-19_23h04.04.615,torte-q,2020.1.3,Win32,60,13877,,,,,,,,,,,,,,,,,,,,,,,,,,,,,,,,,,,,,,,,,,,,
,,,,,,,,,,,,l,0.028675,Incorrect,0,29,29,21,1,t5.png,t4.png,1,0.90025,19,Male,2020-10-19_23h04.04.615,torte-q,2020.1.3,Win32,60,13877,,,,,,,,,,,,,,,,,,,,,,,,,,,,,,,,,,,,,,,,,,,,
,,,,,,,,,,,,a,0.031785,Incorrect,0,30,30,67,1,t1.png,t5.png,4,9.55E-11,19,Male,2020-10-19_23h04.04.615,torte-q,2020.1.3,Win32,60,13877,,,,,,,,,,,,,,,,,,,,,,,,,,,,,,,,,,,,,,,,,,,,
,,,,,,,,,,,,a,0.09816,Correct!,0,31,31,65,1,t4.png,t5.png,1,0.90025,19,Male,2020-10-19_23h04.04.615,torte-q,2020.1.3,Win32,60,13877,,,,,,,,,,,,,,,,,,,,,,,,,,,,,,,,,,,,,,,,,,,,
,,,,,,,,,,,,a,0.0256,Correct!,0,32,32,49,1,t4.png,t5.png,1,0.9,19,Male,2020-10-19_23h04.04.615,torte-q,2020.1.3,Win32,60,13877,,,,,,,,,,,,,,,,,,,,,,,,,,,,,,,,,,,,,,,,,,,,
,,,,,,,,,,,,l,0.248055,Correct!,0,33,33,46,1,t4.png,t2.png,2,0.059078,19,Male,2020-10-19_23h04.04.615,torte-q,2020.1.3,Win32,60,13877,,,,,,,,,,,,,,,,,,,,,,,,,,,,,,,,,,,,,,,,,,,,
,,,,,,,,,,,,l,0.354495,Incorrect,0,34,34,106,1,t2.png,t3.png,1,0.90855,19,Male,2020-10-19_23h04.04.615,torte-q,2020.1.3,Win32,60,13877,,,,,,,,,,,,,,,,,,,,,,,,,,,,,,,,,,,,,,,,,,,,
,,,,,,,,,,,,l,0.035125,Incorrect,0,35,35,77,1,t1.png,t1.png,0,0.97829,19,Male,2020-10-19_23h04.04.615,torte-q,2020.1.3,Win32,60,13877,,,,,,,,,,,,,,,,,,,,,,,,,,,,,,,,,,,,,,,,,,,,
,,,,,,,,,,,,l,0.153745,Incorrect,0,36,36,97,1,t5.png,t5.png,0,0.97829,19,Male,2020-10-19_23h04.04.615,torte-q,2020.1.3,Win32,60,13877,,,,,,,,,,,,,,,,,,,,,,,,,,,,,,,,,,,,,,,,,,,,
,,,,,,,,,,,,l,0.020775,Correct!,0,37,37,27,1,t3.png,t1.png,2,0.0565,19,Male,2020-10-19_23h04.04.615,torte-q,2020.1.3,Win32,60,13877,,,,,,,,,,,,,,,,,,,,,,,,,,,,,,,,,,,,,,,,,,,,
,,,,,,,,,,,,l,0.12242,Incorrect,0,38,38,23,1,t5.png,t4.png,1,0.90025,19,Male,2020-10-19_23h04.04.615,torte-q,2020.1.3,Win32,60,13877,,,,,,,,,,,,,,,,,,,,,,,,,,,,,,,,,,,,,,,,,,,,
,,,,,,,,,,,,l,0.00168,Correct!,0,39,39,45,1,t3.png,t2.png,1,0.90855,19,Male,2020-10-19_23h04.04.615,torte-q,2020.1.3,Win32,60,13877,,,,,,,,,,,,,,,,,,,,,,,,,,,,,,,,,,,,,,,,,,,,
,,,,,,,,,,,,a,0.252465,Correct!,0,40,40,9,1,t4.png,t5.png,1,0.9,19,Male,2020-10-19_23h04.04.615,torte-q,2020.1.3,Win32,60,13877,,,,,,,,,,,,,,,,,,,,,,,,,,,,,,,,,,,,,,,,,,,,
,,,,,,,,,,,,a,0.001595,Incorrect,0,41,41,52,1,t2.png,t4.png,2,0.059078,19,Male,2020-10-19_23h04.04.615,torte-q,2020.1.3,Win32,60,13877,,,,,,,,,,,,,,,,,,,,,,,,,,,,,,,,,,,,,,,,,,,,
,,,,,,,,,,,,a,0.00331,Correct!,0,42,42,59,1,t5.png,t4.png,1,0.9,19,Male,2020-10-19_23h04.04.615,torte-q,2020.1.3,Win32,60,13877,,,,,,,,,,,,,,,,,,,,,,,,,,,,,,,,,,,,,,,,,,,,
,,,,,,,,,,,,a,0.07403,Incorrect,0,43,43,82,1,t5.png,t1.png,4,9.55E-11,19,Male,2020-10-19_23h04.04.615,torte-q,2020.1.3,Win32,60,13877,,,,,,,,,,,,,,,,,,,,,,,,,,,,,,,,,,,,,,,,,,,,
,,,,,,,,,,,,a,0.435685,Incorrect,0,44,44,11,1,t1.png,t4.png,3,0.0000131,19,Male,2020-10-19_23h04.04.615,torte-q,2020.1.3,Win32,60,13877,,,,,,,,,,,,,,,,,,,,,,,,,,,,,,,,,,,,,,,,,,,,
,,,,,,,,,,,,l,0.48252,Correct!,0,45,45,57,1,t2.png,t4.png,2,0.059078,19,Male,2020-10-19_23h04.04.615,torte-q,2020.1.3,Win32,60,13877,,,,,,,,,,,,,,,,,,,,,,,,,,,,,,,,,,,,,,,,,,,,
,,,,,,,,,,,,l,0.3998,Correct!,0,46,46,5,1,t2.png,t4.png,2,0.059078,19,Male,2020-10-19_23h04.04.615,torte-q,2020.1.3,Win32,60,13877,,,,,,,,,,,,,,,,,,,,,,,,,,,,,,,,,,,,,,,,,,,,
,,,,,,,,,,,,l,0.264545,Correct!,0,47,47,12,1,t5.png,t1.png,4,9.55E-11,19,Male,2020-10-19_23h04.04.615,torte-q,2020.1.3,Win32,60,13877,,,,,,,,,,,,,,,,,,,,,,,,,,,,,,,,,,,,,,,,,,,,
,,,,,,,,,,,,l,0.08075,Incorrect,0,48,48,74,1,t5.png,t4.png,1,0.9,19,Male,2020-10-19_23h04.04.615,torte-q,2020.1.3,Win32,60,13877,,,,,,,,,,,,,,,,,,,,,,,,,,,,,,,,,,,,,,,,,,,,
,,,,,,,,,,,,l,0.26738,Correct!,0,49,49,17,1,t1.png,t4.png,3,0.0000131,19,Male,2020-10-19_23h04.04.615,torte-q,2020.1.3,Win32,60,13877,,,,,,,,,,,,,,,,,,,,,,,,,,,,,,,,,,,,,,,,,,,,
,,,,,,,,,,,,l,0.186015,Correct!,0,50,50,91,1,t1.png,t4.png,3,0.0000131,19,Male,2020-10-19_23h04.04.615,torte-q,2020.1.3,Win32,60,13877,,,,,,,,,,,,,,,,,,,,,,,,,,,,,,,,,,,,,,,,,,,,
,,,,,,,,,,,,l,0.00152,Correct!,0,51,51,119,1,t1.png,t5.png,4,9.55E-11,19,Male,2020-10-19_23h04.04.615,torte-q,2020.1.3,Win32,60,13877,,,,,,,,,,,,,,,,,,,,,,,,,,,,,,,,,,,,,,,,,,,,
,,,,,,,,,,,,l,0.183405,Incorrect,0,52,52,76,1,t3.png,t2.png,1,0.90855,19,Male,2020-10-19_23h04.04.615,torte-q,2020.1.3,Win32,60,13877,,,,,,,,,,,,,,,,,,,,,,,,,,,,,,,,,,,,,,,,,,,,
,,,,,,,,,,,,l,1.24105,Correct!,0,53,53,61,1,t1.png,t4.png,3,0.0000131,19,Male,2020-10-19_23h04.04.615,torte-q,2020.1.3,Win32,60,13877,,,,,,,,,,,,,,,,,,,,,,,,,,,,,,,,,,,,,,,,,,,,
,,,,,,,,,,,,l,1.35257,Correct!,0,54,54,56,1,t5.png,t1.png,4,9.55E-11,19,Male,2020-10-19_23h04.04.615,torte-q,2020.1.3,Win32,60,13877,,,,,,,,,,,,,,,,,,,,,,,,,,,,,,,,,,,,,,,,,,,,
,,,,,,,,,,,,l,0.68414,Incorrect,0,55,55,28,1,t2.png,t3.png,1,0.909,19,Male,2020-10-19_23h04.04.615,torte-q,2020.1.3,Win32,60,13877,,,,,,,,,,,,,,,,,,,,,,,,,,,,,,,,,,,,,,,,,,,,
,,,,,,,,,,,,l,0.68149,Incorrect,0,56,56,39,1,t3.png,t2.png,1,0.90855,19,Male,2020-10-19_23h04.04.615,torte-q,2020.1.3,Win32,60,13877,,,,,,,,,,,,,,,,,,,,,,,,,,,,,,,,,,,,,,,,,,,,
,,,,,,,,,,,,l,0.380855,Correct!,0,57,57,117,1,t1.png,t5.png,4,9.55E-11,19,Male,2020-10-19_23h04.04.615,torte-q,2020.1.3,Win32,60,13877,,,,,,,,,,,,,,,,,,,,,,,,,,,,,,,,,,,,,,,,,,,,
,,,,,,,,,,,,l,0.289765,Incorrect,0,58,58,71,1,t5.png,t5.png,0,0.97829,19,Male,2020-10-19_23h04.04.615,torte-q,2020.1.3,Win32,60,13877,,,,,,,,,,,,,,,,,,,,,,,,,,,,,,,,,,,,,,,,,,,,
,,,,,,,,,,,,a,0.267265,Incorrect,0,59,59,103,1,t3.png,t1.png,2,0.056466,19,Male,2020-10-19_23h04.04.615,torte-q,2020.1.3,Win32,60,13877,,,,,,,,,,,,,,,,,,,,,,,,,,,,,,,,,,,,,,,,,,,,
,,,,,,,,,,,,a,0.170075,Incorrect,0,60,60,30,1,t3.png,t1.png,2,0.056466,19,Male,2020-10-19_23h04.04.615,torte-q,2020.1.3,Win32,60,13877,,,,,,,,,,,,,,,,,,,,,,,,,,,,,,,,,,,,,,,,,,,,
,,,,,,,,,,,,a,1.07207,Correct!,0,61,61,53,1,t3.png,t1.png,2,0.056466,19,Male,2020-10-19_23h04.04.615,torte-q,2020.1.3,Win32,60,13877,,,,,,,,,,,,,,,,,,,,,,,,,,,,,,,,,,,,,,,,,,,,
,,,,,,,,,,,,a,0.078905,Incorrect,0,62,62,72,1,t4.png,t2.png,2,0.059078,19,Male,2020-10-19_23h04.04.615,torte-q,2020.1.3,Win32,60,13877,,,,,,,,,,,,,,,,,,,,,,,,,,,,,,,,,,,,,,,,,,,,
,,,,,,,,,,,,a,0.10046,Incorrect,0,63,63,31,1,t1.png,t5.png,4,9.55E-11,19,Male,2020-10-19_23h04.04.615,torte-q,2020.1.3,Win32,60,13877,,,,,,,,,,,,,,,,,,,,,,,,,,,,,,,,,,,,,,,,,,,,
,,,,,,,,,,,,a,0.223645,Correct!,0,64,64,105,1,t3.png,t2.png,1,0.90855,19,Male,2020-10-19_23h04.04.615,torte-q,2020.1.3,Win32,60,13877,,,,,,,,,,,,,,,,,,,,,,,,,,,,,,,,,,,,,,,,,,,,
,,,,,,,,,,,,a,0.532345,Correct!,0,65,65,32,1,t4.png,t5.png,1,0.90025,19,Male,2020-10-19_23h04.04.615,torte-q,2020.1.3,Win32,60,13877,,,,,,,,,,,,,,,,,,,,,,,,,,,,,,,,,,,,,,,,,,,,
,,,,,,,,,,,,a,1.319695,Incorrect,0,66,66,86,1,t3.png,t1.png,2,0.056466,19,Male,2020-10-19_23h04.04.615,torte-q,2020.1.3,Win32,60,13877,,,,,,,,,,,,,,,,,,,,,,,,,,,,,,,,,,,,,,,,,,,,
,,,,,,,,,,,,l,0.865315,Correct!,0,67,67,24,1,t4.png,t2.png,2,0.059078,19,Male,2020-10-19_23h04.04.615,torte-q,2020.1.3,Win32,60,13877,,,,,,,,,,,,,,,,,,,,,,,,,,,,,,,,,,,,,,,,,,,,
,,,,,,,,,,,,l,0.1508,Incorrect,0,68,68,42,1,t5.png,t4.png,1,0.90025,19,Male,2020-10-19_23h04.04.615,torte-q,2020.1.3,Win32,60,13877,,,,,,,,,,,,,,,,,,,,,,,,,,,,,,,,,,,,,,,,,,,,
,,,,,,,,,,,,a,0.13341,Incorrect,0,69,69,4,1,t1.png,t5.png,4,9.55E-11,19,Male,2020-10-19_23h04.04.615,torte-q,2020.1.3,Win32,60,13877,,,,,,,,,,,,,,,,,,,,,,,,,,,,,,,,,,,,,,,,,,,,
,,,,,,,,,,,,a,0.01589,Incorrect,0,70,70,26,1,t4.png,t2.png,2,0.0591,19,Male,2020-10-19_23h04.04.615,torte-q,2020.1.3,Win32,60,13877,,,,,,,,,,,,,,,,,,,,,,,,,,,,,,,,,,,,,,,,,,,,
,,,,,,,,,,,,a,0.024465,Incorrect,0,71,71,90,1,t1.png,t5.png,4,9.55E-11,19,Male,2020-10-19_23h04.04.615,torte-q,2020.1.3,Win32,60,13877,,,,,,,,,,,,,,,,,,,,,,,,,,,,,,,,,,,,,,,,,,,,
,,,,,,,,,,,,a,1.607995,Correct!,0,72,72,10,1,t2.png,t3.png,1,0.90855,19,Male,2020-10-19_23h04.04.615,torte-q,2020.1.3,Win32,60,13877,,,,,,,,,,,,,,,,,,,,,,,,,,,,,,,,,,,,,,,,,,,,
,,,,,,,,,,,,l,0.372055,Incorrect,0,73,73,25,1,t5.png,t5.png,0,0.97829,19,Male,2020-10-19_23h04.04.615,torte-q,2020.1.3,Win32,60,13877,,,,,,,,,,,,,,,,,,,,,,,,,,,,,,,,,,,,,,,,,,,,
,,,,,,,,,,,,a,0.03825,Correct!,0,74,74,110,1,t4.png,t5.png,1,0.90025,19,Male,2020-10-19_23h04.04.615,torte-q,2020.1.3,Win32,60,13877,,,,,,,,,,,,,,,,,,,,,,,,,,,,,,,,,,,,,,,,,,,,
,,,,,,,,,,,,a,0.033535,Correct!,0,75,75,75,1,t1.png,t1.png,0,0.97829,19,Male,2020-10-19_23h04.04.615,torte-q,2020.1.3,Win32,60,13877,,,,,,,,,,,,,,,,,,,,,,,,,,,,,,,,,,,,,,,,,,,,
,,,,,,,,,,,,l,0.71527,Incorrect,0,76,76,8,1,t3.png,t2.png,1,0.90855,19,Male,2020-10-19_23h04.04.615,torte-q,2020.1.3,Win32,60,13877,,,,,,,,,,,,,,,,,,,,,,,,,,,,,,,,,,,,,,,,,,,,
,,,,,,,,,,,,a,0.315465,Incorrect,0,77,77,38,1,t3.png,t1.png,2,0.056466,19,Male,2020-10-19_23h04.04.615,torte-q,2020.1.3,Win32,60,13877,,,,,,,,,,,,,,,,,,,,,,,,,,,,,,,,,,,,,,,,,,,,
,,,,,,,,,,,,l,1.43607,Correct!,0,78,78,98,1,t2.png,t4.png,2,0.0591,19,Male,2020-10-19_23h04.04.615,torte-q,2020.1.3,Win32,60,13877,,,,,,,,,,,,,,,,,,,,,,,,,,,,,,,,,,,,,,,,,,,,
,,,,,,,,,,,,a,0.249535,Incorrect,0,79,79,69,1,t4.png,t2.png,2,0.059078,19,Male,2020-10-19_23h04.04.615,torte-q,2020.1.3,Win32,60,13877,,,,,,,,,,,,,,,,,,,,,,,,,,,,,,,,,,,,,,,,,,,,
,,,,,,,,,,,,a,0.200445,Correct!,0,80,80,96,1,t1.png,t1.png,0,0.97829,19,Male,2020-10-19_23h04.04.615,torte-q,2020.1.3,Win32,60,13877,,,,,,,,,,,,,,,,,,,,,,,,,,,,,,,,,,,,,,,,,,,,
,,,,,,,,,,,,l,0.63222,Correct!,0,81,81,89,1,t1.png,t4.png,3,0.0000131,19,Male,2020-10-19_23h04.04.615,torte-q,2020.1.3,Win32,60,13877,,,,,,,,,,,,,,,,,,,,,,,,,,,,,,,,,,,,,,,,,,,,
,,,,,,,,,,,,a,0.5374,Correct!,0,82,82,113,1,t5.png,t4.png,1,0.9,19,Male,2020-10-19_23h04.04.615,torte-q,2020.1.3,Win32,60,13877,,,,,,,,,,,,,,,,,,,,,,,,,,,,,,,,,,,,,,,,,,,,
,,,,,,,,,,,,l,0.414825,Incorrect,0,83,83,84,1,t1.png,t1.png,0,0.97829,19,Male,2020-10-19_23h04.04.615,torte-q,2020.1.3,Win32,60,13877,,,,,,,,,,,,,,,,,,,,,,,,,,,,,,,,,,,,,,,,,,,,
,,,,,,,,,,,,a,0.32007,Correct!,0,84,84,79,1,t3.png,t2.png,1,0.909,19,Male,2020-10-19_23h04.04.615,torte-q,2020.1.3,Win32,60,13877,,,,,,,,,,,,,,,,,,,,,,,,,,,,,,,,,,,,,,,,,,,,
,,,,,,,,,,,,l,0.331985,Incorrect,0,85,85,116,1,t5.png,t4.png,1,0.90025,19,Male,2020-10-19_23h04.04.615,torte-q,2020.1.3,Win32,60,13877,,,,,,,,,,,,,,,,,,,,,,,,,,,,,,,,,,,,,,,,,,,,
,,,,,,,,,,,,a,0.400985,Incorrect,0,86,86,85,1,t3.png,t2.png,1,0.90855,19,Male,2020-10-19_23h04.04.615,torte-q,2020.1.3,Win32,60,13877,,,,,,,,,,,,,,,,,,,,,,,,,,,,,,,,,,,,,,,,,,,,
,,,,,,,,,,,,l,0.337395,Incorrect,0,87,87,81,1,t1.png,t1.png,0,0.97829,19,Male,2020-10-19_23h04.04.615,torte-q,2020.1.3,Win32,60,13877,,,,,,,,,,,,,,,,,,,,,,,,,,,,,,,,,,,,,,,,,,,,
,,,,,,,,,,,,a,0.34755,Incorrect,0,88,88,60,1,t2.png,t4.png,2,0.059078,19,Male,2020-10-19_23h04.04.615,torte-q,2020.1.3,Win32,60,13877,,,,,,,,,,,,,,,,,,,,,,,,,,,,,,,,,,,,,,,,,,,,
,,,,,,,,,,,,l,0.681395,Correct!,0,89,89,102,1,t4.png,t2.png,2,0.059078,19,Male,2020-10-19_23h04.04.615,torte-q,2020.1.3,Win32,60,13877,,,,,,,,,,,,,,,,,,,,,,,,,,,,,,,,,,,,,,,,,,,,
,,,,,,,,,,,,l,0.30044,Correct!,0,90,90,80,1,t1.png,t4.png,3,0.0000131,19,Male,2020-10-19_23h04.04.615,torte-q,2020.1.3,Win32,60,13877,,,,,,,,,,,,,,,,,,,,,,,,,,,,,,,,,,,,,,,,,,,,
,,,,,,,,,,,,l,0.08279,Incorrect,0,91,91,109,1,t5.png,t5.png,0,0.97829,19,Male,2020-10-19_23h04.04.615,torte-q,2020.1.3,Win32,60,13877,,,,,,,,,,,,,,,,,,,,,,,,,,,,,,,,,,,,,,,,,,,,
,,,,,,,,,,,,l,0.418015,Incorrect,0,92,92,44,1,t2.png,t3.png,1,0.909,19,Male,2020-10-19_23h04.04.615,torte-q,2020.1.3,Win32,60,13877,,,,,,,,,,,,,,,,,,,,,,,,,,,,,,,,,,,,,,,,,,,,
,,,,,,,,,,,,l,0.212605,Correct!,0,93,93,37,1,t1.png,t4.png,3,0.0000131,19,Male,2020-10-19_23h04.04.615,torte-q,2020.1.3,Win32,60,13877,,,,,,,,,,,,,,,,,,,,,,,,,,,,,,,,,,,,,,,,,,,,
,,,,,,,,,,,,l,0.250025,Incorrect,0,94,94,95,1,t1.png,t1.png,0,0.978,19,Male,2020-10-19_23h04.04.615,torte-q,2020.1.3,Win32,60,13877,,,,,,,,,,,,,,,,,,,,,,,,,,,,,,,,,,,,,,,,,,,,
,,,,,,,,,,,,l,0.014535,Correct!,0,95,95,36,1,t3.png,t1.png,2,0.0565,19,Male,2020-10-19_23h04.04.615,torte-q,2020.1.3,Win32,60,13877,,,,,,,,,,,,,,,,,,,,,,,,,,,,,,,,,,,,,,,,,,,,
,,,,,,,,,,,,l,0.281265,Incorrect,0,96,96,48,1,t5.png,t5.png,0,0.97829,19,Male,2020-10-19_23h04.04.615,torte-q,2020.1.3,Win32,60,13877,,,,,,,,,,,,,,,,,,,,,,,,,,,,,,,,,,,,,,,,,,,,
,,,,,,,,,,,,l,0.3361,Incorrect,0,97,97,2,1,t3.png,t2.png,1,0.90855,19,Male,2020-10-19_23h04.04.615,torte-q,2020.1.3,Win32,60,13877,,,,,,,,,,,,,,,,,,,,,,,,,,,,,,,,,,,,,,,,,,,,
,,,,,,,,,,,,l,0.0205,Correct!,0,98,98,6,1,t1.png,t4.png,3,0.0000131,19,Male,2020-10-19_23h04.04.615,torte-q,2020.1.3,Win32,60,13877,,,,,,,,,,,,,,,,,,,,,,,,,,,,,,,,,,,,,,,,,,,,
,,,,,,,,,,,,a,0.20282,Correct!,0,99,99,112,1,t1.png,t1.png,0,0.97829,19,Male,2020-10-19_23h04.04.615,torte-q,2020.1.3,Win32,60,13877,,,,,,,,,,,,,,,,,,,,,,,,,,,,,,,,,,,,,,,,,,,,
,,,,,,,,,,,,a,0.248235,Correct!,0,100,100,118,1,t5.png,t5.png,0,0.978,19,Male,2020-10-19_23h04.04.615,torte-q,2020.1.3,Win32,60,13877,,,,,,,,,,,,,,,,,,,,,,,,,,,,,,,,,,,,,,,,,,,,
,,,,,,,,,,,,a,0.531335,Correct!,0,101,101,7,1,t4.png,t5.png,1,0.90025,19,Male,2020-10-19_23h04.04.615,torte-q,2020.1.3,Win32,60,13877,,,,,,,,,,,,,,,,,,,,,,,,,,,,,,,,,,,,,,,,,,,,
,,,,,,,,,,,,a,0.23126,Incorrect,0,102,102,58,1,t5.png,t4.png,1,0.90025,19,Male,2020-10-19_23h04.04.615,torte-q,2020.1.3,Win32,60,13877,,,,,,,,,,,,,,,,,,,,,,,,,,,,,,,,,,,,,,,,,,,,
,,,,,,,,,,,,a,0.02464,Incorrect,0,103,103,83,1,t3.png,t1.png,2,0.056466,19,Male,2020-10-19_23h04.04.615,torte-q,2020.1.3,Win32,60,13877,,,,,,,,,,,,,,,,,,,,,,,,,,,,,,,,,,,,,,,,,,,,
,,,,,,,,,,,,a,0.03711,Incorrect,0,104,104,19,1,t4.png,t2.png,2,0.059078,19,Male,2020-10-19_23h04.04.615,torte-q,2020.1.3,Win32,60,13877,,,,,,,,,,,,,,,,,,,,,,,,,,,,,,,,,,,,,,,,,,,,
,,,,,,,,,,,,a,0.347885,Correct!,0,105,105,107,1,t1.png,t1.png,0,0.978,19,Male,2020-10-19_23h04.04.615,torte-q,2020.1.3,Win32,60,13877,,,,,,,,,,,,,,,,,,,,,,,,,,,,,,,,,,,,,,,,,,,,
,,,,,,,,,,,,a,0.183365,Incorrect,0,106,106,50,1,t5.png,t1.png,4,9.55E-11,19,Male,2020-10-19_23h04.04.615,torte-q,2020.1.3,Win32,60,13877,,,,,,,,,,,,,,,,,,,,,,,,,,,,,,,,,,,,,,,,,,,,
,,,,,,,,,,,,l,0.379285,Correct!,0,107,107,54,1,t1.png,t5.png,4,9.55E-11,19,Male,2020-10-19_23h04.04.615,torte-q,2020.1.3,Win32,60,13877,,,,,,,,,,,,,,,,,,,,,,,,,,,,,,,,,,,,,,,,,,,,
,,,,,,,,,,,,a,0.46841,Incorrect,0,108,108,47,1,t4.png,t2.png,2,0.059078,19,Male,2020-10-19_23h04.04.615,torte-q,2020.1.3,Win32,60,13877,,,,,,,,,,,,,,,,,,,,,,,,,,,,,,,,,,,,,,,,,,,,
,,,,,,,,,,,,,,Too slow :(,0,109,109,62,1,t5.png,t5.png,0,0.978,19,Male,2020-10-19_23h04.04.615,torte-q,2020.1.3,Win32,60,13877,,,,,,,,,,,,,,,,,,,,,,,,,,,,,,,,,,,,,,,,,,,,
,,,,,,,,,,,,l,0.38523,Correct!,0,110,110,111,1,t5.png,t1.png,4,9.55E-11,19,Male,2020-10-19_23h04.04.615,torte-q,2020.1.3,Win32,60,13877,,,,,,,,,,,,,,,,,,,,,,,,,,,,,,,,,,,,,,,,,,,,
,,,,,,,,,,,,a,0.92193,Correct!,0,111,111,15,1,t3.png,t2.png,1,0.90855,19,Male,2020-10-19_23h04.04.615,torte-q,2020.1.3,Win32,60,13877,,,,,,,,,,,,,,,,,,,,,,,,,,,,,,,,,,,,,,,,,,,,
,,,,,,,,,,,,l,0.09989,Correct!,0,112,112,88,1,t3.png,t1.png,2,0.056466,19,Male,2020-10-19_23h04.04.615,torte-q,2020.1.3,Win32,60,13877,,,,,,,,,,,,,,,,,,,,,,,,,,,,,,,,,,,,,,,,,,,,
,,,,,,,,,,,,l,0.388775,Correct!,0,113,113,68,1,t1.png,t4.png,3,0.0000131,19,Male,2020-10-19_23h04.04.615,torte-q,2020.1.3,Win32,60,13877,,,,,,,,,,,,,,,,,,,,,,,,,,,,,,,,,,,,,,,,,,,,
,,,,,,,,,,,,a,0.021565,Correct!,0,114,114,104,1,t2.png,t3.png,1,0.90855,19,Male,2020-10-19_23h04.04.615,torte-q,2020.1.3,Win32,60,13877,,,,,,,,,,,,,,,,,,,,,,,,,,,,,,,,,,,,,,,,,,,,
,,,,,,,,,,,,l,0.0152,Correct!,0,115,115,55,1,t2.png,t4.png,2,0.059078,19,Male,2020-10-19_23h04.04.615,torte-q,2020.1.3,Win32,60,13877,,,,,,,,,,,,,,,,,,,,,,,,,,,,,,,,,,,,,,,,,,,,
,,,,,,,,,,,,l,0.166515,Incorrect,0,116,116,92,1,t2.png,t3.png,1,0.909,19,Male,2020-10-19_23h04.04.615,torte-q,2020.1.3,Win32,60,13877,,,,,,,,,,,,,,,,,,,,,,,,,,,,,,,,,,,,,,,,,,,,
,,,,,,,,,,,,a,0.302425,Correct!,0,117,117,63,1,t2.png,t3.png,1,0.909,19,Male,2020-10-19_23h04.04.615,torte-q,2020.1.3,Win32,60,13877,,,,,,,,,,,,,,,,,,,,,,,,,,,,,,,,,,,,,,,,,,,,
,,,,,,,,,,,,a,0.115185,Incorrect,0,118,118,1,1,t2.png,t4.png,2,0.059078,19,Male,2020-10-19_23h04.04.615,torte-q,2020.1.3,Win32,60,13877,,,,,,,,,,,,,,,,,,,,,,,,,,,,,,,,,,,,,,,,,,,,
,,,,,,,,,,,,l,0.15438,Correct!,0,119,119,115,1,t2.png,t4.png,2,0.059078,19,Male,2020-10-19_23h04.04.615,torte-q,2020.1.3,Win32,60,13877,,,,,,,,,,,,,,,,,,,,,,,,,,,,,,,,,,,,,,,,,,,,
,,,,,,,,,,,,a,0.43222,Incorrect,,,,,,t1.png,t5.png,4,9.55E-11,19,Male,2020-10-19_23h04.04.615,torte-q,2020.1.3,Win32,60,13877,l,0.032755,space,8.836755,0,0,0,16,1,,,,,,,,,,,,,,,,,,,,,,,,,,,,,,,,,,,
,,,,,,,,,,,,a,0.64806,Correct!,,,,,,t5.png,t5.png,0,0.97829,19,Male,2020-10-19_23h04.04.615,torte-q,2020.1.3,Win32,60,13877,,,,,0,1,1,70,1,,,,,,,,,,,,,,,,,,,,,,,,,,,,,,,,,,,
,,,,,,,,,,,,l,0.43188,Correct!,,,,,,t1.png,t3.png,2,0.056466,19,Male,2020-10-19_23h04.04.615,torte-q,2020.1.3,Win32,60,13877,,,,,0,2,2,60,1,,,,,,,,,,,,,,,,,,,,,,,,,,,,,,,,,,,
,,,,,,,,,,,,a,0.703505,Correct!,,,,,,t3.png,t2.png,1,0.90855,19,Male,2020-10-19_23h04.04.615,torte-q,2020.1.3,Win32,60,13877,,,,,0,3,3,53,1,,,,,,,,,,,,,,,,,,,,,,,,,,,,,,,,,,,
,,,,,,,,,,,,a,0.667905,Incorrect,,,,,,t4.png,t2.png,2,0.0591,19,Male,2020-10-19_23h04.04.615,torte-q,2020.1.3,Win32,60,13877,,,,,0,4,4,36,1,,,,,,,,,,,,,,,,,,,,,,,,,,,,,,,,,,,
,,,,,,,,,,,,a,0.414795,Correct!,,,,,,t4.png,t4.png,0,0.98115,19,Male,2020-10-19_23h04.04.615,torte-q,2020.1.3,Win32,60,13877,,,,,0,5,5,80,1,,,,,,,,,,,,,,,,,,,,,,,,,,,,,,,,,,,
,,,,,,,,,,,,l,0.59858,Incorrect,,,,,,t2.png,t3.png,1,0.909,19,Male,2020-10-19_23h04.04.615,torte-q,2020.1.3,Win32,60,13877,,,,,0,6,6,74,1,,,,,,,,,,,,,,,,,,,,,,,,,,,,,,,,,,,
,,,,,,,,,,,,l,0.542195,Correct!,,,,,,t3.png,t5.png,2,0.056466,19,Male,2020-10-19_23h04.04.615,torte-q,2020.1.3,Win32,60,13877,,,,,0,7,7,6,1,,,,,,,,,,,,,,,,,,,,,,,,,,,,,,,,,,,
,,,,,,,,,,,,l,0.467105,Incorrect,,,,,,t3.png,t4.png,1,0.909,19,Male,2020-10-19_23h04.04.615,torte-q,2020.1.3,Win32,60,13877,,,,,0,8,8,106,1,,,,,,,,,,,,,,,,,,,,,,,,,,,,,,,,,,,
,,,,,,,,,,,,l,0.41622,Correct!,,,,,,t5.png,t3.png,2,0.056466,19,Male,2020-10-19_23h04.04.615,torte-q,2020.1.3,Win32,60,13877,,,,,0,9,9,114,1,,,,,,,,,,,,,,,,,,,,,,,,,,,,,,,,,,,
,,,,,,,,,,,,a,0.381675,Correct!,,,,,,t3.png,t2.png,1,0.90855,19,Male,2020-10-19_23h04.04.615,torte-q,2020.1.3,Win32,60,13877,,,,,0,10,10,18,1,,,,,,,,,,,,,,,,,,,,,,,,,,,,,,,,,,,
,,,,,,,,,,,,l,0.19764,Correct!,,,,,,t2.png,t5.png,3,0.0000131,19,Male,2020-10-19_23h04.04.615,torte-q,2020.1.3,Win32,60,13877,,,,,0,11,11,95,1,,,,,,,,,,,,,,,,,,,,,,,,,,,,,,,,,,,
,,,,,,,,,,,,a,0.181855,Incorrect,,,,,,t2.png,t4.png,2,0.059078,19,Male,2020-10-19_23h04.04.615,torte-q,2020.1.3,Win32,60,13877,,,,,0,12,12,11,1,,,,,,,,,,,,,,,,,,,,,,,,,,,,,,,,,,,
,,,,,,,,,,,,l,0.514425,Correct!,,,,,,t1.png,t5.png,4,9.55E-11,19,Male,2020-10-19_23h04.04.615,torte-q,2020.1.3,Win32,60,13877,,,,,0,13,13,55,1,,,,,,,,,,,,,,,,,,,,,,,,,,,,,,,,,,,
,,,,,,,,,,,,l,0.014655,Incorrect,,,,,,t2.png,t3.png,1,0.90855,19,Male,2020-10-19_23h04.04.615,torte-q,2020.1.3,Win32,60,13877,,,,,0,14,14,68,1,,,,,,,,,,,,,,,,,,,,,,,,,,,,,,,,,,,
,,,,,,,,,,,,l,0.166285,Incorrect,,,,,,t2.png,t2.png,0,0.98115,19,Male,2020-10-19_23h04.04.615,torte-q,2020.1.3,Win32,60,13877,,,,,0,15,15,57,1,,,,,,,,,,,,,,,,,,,,,,,,,,,,,,,,,,,
,,,,,,,,,,,,a,0.041325,Incorrect,,,,,,t3.png,t2.png,1,0.909,19,Male,2020-10-19_23h04.04.615,torte-q,2020.1.3,Win32,60,13877,,,,,0,16,16,23,1,,,,,,,,,,,,,,,,,,,,,,,,,,,,,,,,,,,
,,,,,,,,,,,,l,0.115795,Correct!,,,,,,t5.png,t2.png,3,0.0000131,19,Male,2020-10-19_23h04.04.615,torte-q,2020.1.3,Win32,60,13877,,,,,0,17,17,116,1,,,,,,,,,,,,,,,,,,,,,,,,,,,,,,,,,,,
,,,,,,,,,,,,l,0.04802,Correct!,,,,,,t5.png,t1.png,4,9.55E-11,19,Male,2020-10-19_23h04.04.615,torte-q,2020.1.3,Win32,60,13877,,,,,0,18,18,22,1,,,,,,,,,,,,,,,,,,,,,,,,,,,,,,,,,,,
,,,,,,,,,,,,l,0.965315,Correct!,,,,,,t3.png,t5.png,2,0.056466,19,Male,2020-10-19_23h04.04.615,torte-q,2020.1.3,Win32,60,13877,,,,,0,19,19,14,1,,,,,,,,,,,,,,,,,,,,,,,,,,,,,,,,,,,
,,,,,,,,,,,,a,0.354545,Incorrect,,,,,,t4.png,t1.png,3,0.0000131,19,Male,2020-10-19_23h04.04.615,torte-q,2020.1.3,Win32,60,13877,,,,,0,20,20,61,1,,,,,,,,,,,,,,,,,,,,,,,,,,,,,,,,,,,
,,,,,,,,,,,,l,1.433115,Incorrect,,,,,,t4.png,t4.png,0,0.98115,19,Male,2020-10-19_23h04.04.615,torte-q,2020.1.3,Win32,60,13877,,,,,0,21,21,79,1,,,,,,,,,,,,,,,,,,,,,,,,,,,,,,,,,,,
,,,,,,,,,,,,a,0.339965,Incorrect,,,,,,t4.png,t2.png,2,0.059078,19,Male,2020-10-19_23h04.04.615,torte-q,2020.1.3,Win32,60,13877,,,,,0,22,22,109,1,,,,,,,,,,,,,,,,,,,,,,,,,,,,,,,,,,,
,,,,,,,,,,,,l,0.56953,Incorrect,,,,,,t4.png,t5.png,1,0.9,19,Male,2020-10-19_23h04.04.615,torte-q,2020.1.3,Win32,60,13877,,,,,0,23,23,115,1,,,,,,,,,,,,,,,,,,,,,,,,,,,,,,,,,,,
,,,,,,,,,,,,a,0.50196,Incorrect,,,,,,t4.png,t1.png,3,0.0000131,19,Male,2020-10-19_23h04.04.615,torte-q,2020.1.3,Win32,60,13877,,,,,0,24,24,13,1,,,,,,,,,,,,,,,,,,,,,,,,,,,,,,,,,,,
,,,,,,,,,,,,l,0.28376,Correct!,,,,,,t5.png,t2.png,3,0.0000131,19,Male,2020-10-19_23h04.04.615,torte-q,2020.1.3,Win32,60,13877,,,,,0,25,25,51,1,,,,,,,,,,,,,,,,,,,,,,,,,,,,,,,,,,,
,,,,,,,,,,,,a,1.02327,Incorrect,,,,,,t1.png,t4.png,3,0.0000131,19,Male,2020-10-19_23h04.04.615,torte-q,2020.1.3,Win32,60,13877,,,,,0,26,26,81,1,,,,,,,,,,,,,,,,,,,,,,,,,,,,,,,,,,,
,,,,,,,,,,,,l,0.331605,Incorrect,,,,,,t4.png,t5.png,1,0.90025,19,Male,2020-10-19_23h04.04.615,torte-q,2020.1.3,Win32,60,13877,,,,,0,27,27,103,1,,,,,,,,,,,,,,,,,,,,,,,,,,,,,,,,,,,
,,,,,,,,,,,,a,0.29672,Incorrect,,,,,,t4.png,t2.png,2,0.059078,19,Male,2020-10-19_23h04.04.615,torte-q,2020.1.3,Win32,60,13877,,,,,0,28,28,88,1,,,,,,,,,,,,,,,,,,,,,,,,,,,,,,,,,,,
,,,,,,,,,,,,l,0.398905,Incorrect,,,,,,t3.png,t2.png,1,0.909,19,Male,2020-10-19_23h04.04.615,torte-q,2020.1.3,Win32,60,13877,,,,,0,29,29,3,1,,,,,,,,,,,,,,,,,,,,,,,,,,,,,,,,,,,
,,,,,,,,,,,,a,0.34716,Incorrect,,,,,,t1.png,t5.png,4,9.55E-11,19,Male,2020-10-19_23h04.04.615,torte-q,2020.1.3,Win32,60,13877,,,,,0,30,30,41,1,,,,,,,,,,,,,,,,,,,,,,,,,,,,,,,,,,,
,,,,,,,,,,,,l,0.371855,Correct!,,,,,,t1.png,t5.png,4,9.55E-11,19,Male,2020-10-19_23h04.04.615,torte-q,2020.1.3,Win32,60,13877,,,,,0,31,31,12,1,,,,,,,,,,,,,,,,,,,,,,,,,,,,,,,,,,,
,,,,,,,,,,,,a,0.180575,Correct!,,,,,,t1.png,t1.png,0,0.978,19,Male,2020-10-19_23h04.04.615,torte-q,2020.1.3,Win32,60,13877,,,,,0,32,32,54,1,,,,,,,,,,,,,,,,,,,,,,,,,,,,,,,,,,,
,,,,,,,,,,,,a,0.05198,Correct!,,,,,,t3.png,t4.png,1,0.90855,19,Male,2020-10-19_23h04.04.615,torte-q,2020.1.3,Win32,60,13877,,,,,0,33,33,84,1,,,,,,,,,,,,,,,,,,,,,,,,,,,,,,,,,,,
,,,,,,,,,,,,a,0.065015,Incorrect,,,,,,t5.png,t3.png,2,0.056466,19,Male,2020-10-19_23h04.04.615,torte-q,2020.1.3,Win32,60,13877,,,,,0,34,34,56,1,,,,,,,,,,,,,,,,,,,,,,,,,,,,,,,,,,,
,,,,,,,,,,,,a,0.317585,Incorrect,,,,,,t3.png,t1.png,2,0.0565,19,Male,2020-10-19_23h04.04.615,torte-q,2020.1.3,Win32,60,13877,,,,,0,35,35,31,1,,,,,,,,,,,,,,,,,,,,,,,,,,,,,,,,,,,
,,,,,,,,,,,,a,0.13082,Correct!,,,,,,t2.png,t1.png,1,0.90025,19,Male,2020-10-19_23h04.04.615,torte-q,2020.1.3,Win32,60,13877,,,,,0,36,36,19,1,,,,,,,,,,,,,,,,,,,,,,,,,,,,,,,,,,,
,,,,,,,,,,,,a,0.1854,Incorrect,,,,,,t3.png,t1.png,2,0.056466,19,Male,2020-10-19_23h04.04.615,torte-q,2020.1.3,Win32,60,13877,,,,,0,37,37,0,1,,,,,,,,,,,,,,,,,,,,,,,,,,,,,,,,,,,
,,,,,,,,,,,,a,0.08701,Incorrect,,,,,,t3.png,t5.png,2,0.0565,19,Male,2020-10-19_23h04.04.615,torte-q,2020.1.3,Win32,60,13877,,,,,0,38,38,83,1,,,,,,,,,,,,,,,,,,,,,,,,,,,,,,,,,,,
,,,,,,,,,,,,a,0.172535,Incorrect,,,,,,t1.png,t4.png,3,0.0000131,19,Male,2020-10-19_23h04.04.615,torte-q,2020.1.3,Win32,60,13877,,,,,0,39,39,50,1,,,,,,,,,,,,,,,,,,,,,,,,,,,,,,,,,,,
,,,,,,,,,,,,a,0.031255,Incorrect,,,,,,t3.png,t1.png,2,0.056466,19,Male,2020-10-19_23h04.04.615,torte-q,2020.1.3,Win32,60,13877,,,,,0,40,40,32,1,,,,,,,,,,,,,,,,,,,,,,,,,,,,,,,,,,,
,,,,,,,,,,,,a,0.268705,Correct!,,,,,,t2.png,t2.png,0,0.98115,19,Male,2020-10-19_23h04.04.615,torte-q,2020.1.3,Win32,60,13877,,,,,0,41,41,7,1,,,,,,,,,,,,,,,,,,,,,,,,,,,,,,,,,,,
,,,,,,,,,,,,a,0.168315,Incorrect,,,,,,t3.png,t1.png,2,0.056466,19,Male,2020-10-19_23h04.04.615,torte-q,2020.1.3,Win32,60,13877,,,,,0,42,42,29,1,,,,,,,,,,,,,,,,,,,,,,,,,,,,,,,,,,,
,,,,,,,,,,,,l,0.03667,Correct!,,,,,,t4.png,t5.png,1,0.90025,19,Male,2020-10-19_23h04.04.615,torte-q,2020.1.3,Win32,60,13877,,,,,0,43,43,47,1,,,,,,,,,,,,,,,,,,,,,,,,,,,,,,,,,,,
,,,,,,,,,,,,l,0.16603,Incorrect,,,,,,t4.png,t2.png,2,0.059078,19,Male,2020-10-19_23h04.04.615,torte-q,2020.1.3,Win32,60,13877,,,,,0,44,44,110,1,,,,,,,,,,,,,,,,,,,,,,,,,,,,,,,,,,,
,,,,,,,,,,,,l,0.12103,Correct!,,,,,,t2.png,t5.png,3,0.0000131,19,Male,2020-10-19_23h04.04.615,torte-q,2020.1.3,Win32,60,13877,,,,,0,45,45,66,1,,,,,,,,,,,,,,,,,,,,,,,,,,,,,,,,,,,
,,,,,,,,,,,,,,Too slow :(,,,,,,t2.png,t2.png,0,0.98115,19,Male,2020-10-19_23h04.04.615,torte-q,2020.1.3,Win32,60,13877,,,,,0,46,46,2,1,,,,,,,,,,,,,,,,,,,,,,,,,,,,,,,,,,,
,,,,,,,,,,,,a,0.315575,Correct!,,,,,,t5.png,t4.png,1,0.9,19,Male,2020-10-19_23h04.04.615,torte-q,2020.1.3,Win32,60,13877,,,,,0,47,47,76,1,,,,,,,,,,,,,,,,,,,,,,,,,,,,,,,,,,,
,,,,,,,,,,,,a,0.414735,Incorrect,,,,,,t5.png,t2.png,3,0.0000131,19,Male,2020-10-19_23h04.04.615,torte-q,2020.1.3,Win32,60,13877,,,,,0,48,48,98,1,,,,,,,,,,,,,,,,,,,,,,,,,,,,,,,,,,,
,,,,,,,,,,,,a,0.49894,Incorrect,,,,,,t1.png,t3.png,2,0.056466,19,Male,2020-10-19_23h04.04.615,torte-q,2020.1.3,Win32,60,13877,,,,,0,49,49,63,1,,,,,,,,,,,,,,,,,,,,,,,,,,,,,,,,,,,
,,,,,,,,,,,,a,0.431865,Incorrect,,,,,,t5.png,t3.png,2,0.0565,19,Male,2020-10-19_23h04.04.615,torte-q,2020.1.3,Win32,60,13877,,,,,0,50,50,39,1,,,,,,,,,,,,,,,,,,,,,,,,,,,,,,,,,,,
,,,,,,,,,,,,a,0.789515,Correct!,,,,,,t4.png,t3.png,1,0.90855,19,Male,2020-10-19_23h04.04.615,torte-q,2020.1.3,Win32,60,13877,,,,,0,51,51,75,1,,,,,,,,,,,,,,,,,,,,,,,,,,,,,,,,,,,
,,,,,,,,,,,,l,0.45871,Incorrect,,,,,,t1.png,t2.png,1,0.90025,19,Male,2020-10-19_23h04.04.615,torte-q,2020.1.3,Win32,60,13877,,,,,0,52,52,72,1,,,,,,,,,,,,,,,,,,,,,,,,,,,,,,,,,,,
,,,,,,,,,,,,a,0.45937,Correct!,,,,,,t4.png,t4.png,0,0.98115,19,Male,2020-10-19_23h04.04.615,torte-q,2020.1.3,Win32,60,13877,,,,,0,53,53,90,1,,,,,,,,,,,,,,,,,,,,,,,,,,,,,,,,,,,
,,,,,,,,,,,,l,0.97406,Correct!,,,,,,t1.png,t2.png,1,0.90025,19,Male,2020-10-19_23h04.04.615,torte-q,2020.1.3,Win32,60,13877,,,,,0,54,54,105,1,,,,,,,,,,,,,,,,,,,,,,,,,,,,,,,,,,,
,,,,,,,,,,,,l,0.449035,Correct!,,,,,,t2.png,t3.png,1,0.90855,19,Male,2020-10-19_23h04.04.615,torte-q,2020.1.3,Win32,60,13877,,,,,0,55,55,65,1,,,,,,,,,,,,,,,,,,,,,,,,,,,,,,,,,,,
,,,,,,,,,,,,a,0.49896,Correct!,,,,,,t4.png,t4.png,0,0.98115,19,Male,2020-10-19_23h04.04.615,torte-q,2020.1.3,Win32,60,13877,,,,,0,56,56,21,1,,,,,,,,,,,,,,,,,,,,,,,,,,,,,,,,,,,
,,,,,,,,,,,,l,0.265275,Correct!,,,,,,t2.png,t5.png,3,0.0000131,19,Male,2020-10-19_23h04.04.615,torte-q,2020.1.3,Win32,60,13877,,,,,0,57,57,104,1,,,,,,,,,,,,,,,,,,,,,,,,,,,,,,,,,,,
,,,,,,,,,,,,l,0.443135,Correct!,,,,,,t2.png,t3.png,1,0.90855,19,Male,2020-10-19_23h04.04.615,torte-q,2020.1.3,Win32,60,13877,,,,,0,58,58,111,1,,,,,,,,,,,,,,,,,,,,,,,,,,,,,,,,,,,
,,,,,,,,,,,,l,0.43513,Correct!,,,,,,t1.png,t3.png,2,0.056466,19,Male,2020-10-19_23h04.04.615,torte-q,2020.1.3,Win32,60,13877,,,,,0,59,59,99,1,,,,,,,,,,,,,,,,,,,,,,,,,,,,,,,,,,,
,,,,,,,,,,,,a,0.57324,Correct!,,,,,,t2.png,t1.png,1,0.9,19,Male,2020-10-19_23h04.04.615,torte-q,2020.1.3,Win32,60,13877,,,,,0,60,60,118,1,,,,,,,,,,,,,,,,,,,,,,,,,,,,,,,,,,,
,,,,,,,,,,,,l,0.43908,Correct!,,,,,,t2.png,t5.png,3,0.0000131,19,Male,2020-10-19_23h04.04.615,torte-q,2020.1.3,Win32,60,13877,,,,,0,61,61,40,1,,,,,,,,,,,,,,,,,,,,,,,,,,,,,,,,,,,
,,,,,,,,,,,,a,0.43201,Incorrect,,,,,,t5.png,t1.png,4,9.55E-11,19,Male,2020-10-19_23h04.04.615,torte-q,2020.1.3,Win32,60,13877,,,,,0,62,62,43,1,,,,,,,,,,,,,,,,,,,,,,,,,,,,,,,,,,,
,,,,,,,,,,,,l,0.38145,Incorrect,,,,,,t1.png,t1.png,0,0.97829,19,Male,2020-10-19_23h04.04.615,torte-q,2020.1.3,Win32,60,13877,,,,,0,63,63,67,1,,,,,,,,,,,,,,,,,,,,,,,,,,,,,,,,,,,
,,,,,,,,,,,,l,0.691025,Incorrect,,,,,,t1.png,t1.png,0,0.978,19,Male,2020-10-19_23h04.04.615,torte-q,2020.1.3,Win32,60,13877,,,,,0,64,64,28,1,,,,,,,,,,,,,,,,,,,,,,,,,,,,,,,,,,,
,,,,,,,,,,,,a,0.48113,Correct!,,,,,,t4.png,t5.png,1,0.90025,19,Male,2020-10-19_23h04.04.615,torte-q,2020.1.3,Win32,60,13877,,,,,0,65,65,113,1,,,,,,,,,,,,,,,,,,,,,,,,,,,,,,,,,,,
,,,,,,,,,,,,l,0.29931,Incorrect,,,,,,t4.png,t5.png,1,0.90025,19,Male,2020-10-19_23h04.04.615,torte-q,2020.1.3,Win32,60,13877,,,,,0,66,66,58,1,,,,,,,,,,,,,,,,,,,,,,,,,,,,,,,,,,,
,,,,,,,,,,,,a,0.317305,Correct!,,,,,,t5.png,t5.png,0,0.978,19,Male,2020-10-19_23h04.04.615,torte-q,2020.1.3,Win32,60,13877,,,,,0,67,67,117,1,,,,,,,,,,,,,,,,,,,,,,,,,,,,,,,,,,,
,,,,,,,,,,,,l,0.414845,Incorrect,,,,,,t4.png,t4.png,0,0.98115,19,Male,2020-10-19_23h04.04.615,torte-q,2020.1.3,Win32,60,13877,,,,,0,68,68,52,1,,,,,,,,,,,,,,,,,,,,,,,,,,,,,,,,,,,
,,,,,,,,,,,,l,0.117555,Correct!,,,,,,t1.png,t3.png,2,0.056466,19,Male,2020-10-19_23h04.04.615,torte-q,2020.1.3,Win32,60,13877,,,,,0,69,69,87,1,,,,,,,,,,,,,,,,,,,,,,,,,,,,,,,,,,,
,,,,,,,,,,,,l,0.064,Incorrect,,,,,,t1.png,t1.png,0,0.97829,19,Male,2020-10-19_23h04.04.615,torte-q,2020.1.3,Win32,60,13877,,,,,0,70,70,78,1,,,,,,,,,,,,,,,,,,,,,,,,,,,,,,,,,,,
,,,,,,,,,,,,l,0.04854,Incorrect,,,,,,t5.png,t5.png,0,0.97829,19,Male,2020-10-19_23h04.04.615,torte-q,2020.1.3,Win32,60,13877,,,,,0,71,71,94,1,,,,,,,,,,,,,,,,,,,,,,,,,,,,,,,,,,,
,,,,,,,,,,,,l,0.001935,Incorrect,,,,,,t1.png,t2.png,1,0.9,19,Male,2020-10-19_23h04.04.615,torte-q,2020.1.3,Win32,60,13877,,,,,0,72,72,1,1,,,,,,,,,,,,,,,,,,,,,,,,,,,,,,,,,,,
,,,,,,,,,,,,l,0.098885,Correct!,,,,,,t4.png,t1.png,3,0.0000131,19,Male,2020-10-19_23h04.04.615,torte-q,2020.1.3,Win32,60,13877,,,,,0,73,73,48,1,,,,,,,,,,,,,,,,,,,,,,,,,,,,,,,,,,,
,,,,,,,,,,,,l,0.101375,Correct!,,,,,,t4.png,t1.png,3,0.0000131,19,Male,2020-10-19_23h04.04.615,torte-q,2020.1.3,Win32,60,13877,,,,,0,74,74,42,1,,,,,,,,,,,,,,,,,,,,,,,,,,,,,,,,,,,
,,,,,,,,,,,,l,0.13168,Correct!,,,,,,t1.png,t4.png,3,0.0000131,19,Male,2020-10-19_23h04.04.615,torte-q,2020.1.3,Win32,60,13877,,,,,0,75,75,107,1,,,,,,,,,,,,,,,,,,,,,,,,,,,,,,,,,,,
,,,,,,,,,,,,a,0.115005,Incorrect,,,,,,t5.png,t2.png,3,0.0000131,19,Male,2020-10-19_23h04.04.615,torte-q,2020.1.3,Win32,60,13877,,,,,0,76,76,119,1,,,,,,,,,,,,,,,,,,,,,,,,,,,,,,,,,,,
,,,,,,,,,,,,a,0.081155,Incorrect,,,,,,t1.png,t5.png,4,9.55E-11,19,Male,2020-10-19_23h04.04.615,torte-q,2020.1.3,Win32,60,13877,,,,,0,77,77,85,1,,,,,,,,,,,,,,,,,,,,,,,,,,,,,,,,,,,
,,,,,,,,,,,,a,0.137525,Incorrect,,,,,,t2.png,t4.png,2,0.059078,19,Male,2020-10-19_23h04.04.615,torte-q,2020.1.3,Win32,60,13877,,,,,0,78,78,37,1,,,,,,,,,,,,,,,,,,,,,,,,,,,,,,,,,,,
,,,,,,,,,,,,a,0.581275,Correct!,,,,,,t5.png,t5.png,0,0.97829,19,Male,2020-10-19_23h04.04.615,torte-q,2020.1.3,Win32,60,13877,,,,,0,79,79,25,1,,,,,,,,,,,,,,,,,,,,,,,,,,,,,,,,,,,
,,,,,,,,,,,,a,0.118555,Correct!,,,,,,t2.png,t3.png,1,0.90855,19,Male,2020-10-19_23h04.04.615,torte-q,2020.1.3,Win32,60,13877,,,,,0,80,80,10,1,,,,,,,,,,,,,,,,,,,,,,,,,,,,,,,,,,,
,,,,,,,,,,,,a,0.00431,Correct!,,,,,,t5.png,t4.png,1,0.90025,19,Male,2020-10-19_23h04.04.615,torte-q,2020.1.3,Win32,60,13877,,,,,0,81,81,34,1,,,,,,,,,,,,,,,,,,,,,,,,,,,,,,,,,,,
,,,,,,,,,,,,l,0.650875,Correct!,,,,,,t4.png,t2.png,2,0.059078,19,Male,2020-10-19_23h04.04.615,torte-q,2020.1.3,Win32,60,13877,,,,,0,82,82,86,1,,,,,,,,,,,,,,,,,,,,,,,,,,,,,,,,,,,
,,,,,,,,,,,,l,0.666945,Correct!,,,,,,t3.png,t1.png,2,0.056466,19,Male,2020-10-19_23h04.04.615,torte-q,2020.1.3,Win32,60,13877,,,,,0,83,83,64,1,,,,,,,,,,,,,,,,,,,,,,,,,,,,,,,,,,,
,,,,,,,,,,,,l,0.48175,Correct!,,,,,,t1.png,t2.png,1,0.90025,19,Male,2020-10-19_23h04.04.615,torte-q,2020.1.3,Win32,60,13877,,,,,0,84,84,112,1,,,,,,,,,,,,,,,,,,,,,,,,,,,,,,,,,,,
,,,,,,,,,,,,l,1.648865,Incorrect,,,,,,t2.png,t2.png,0,0.981,19,Male,2020-10-19_23h04.04.615,torte-q,2020.1.3,Win32,60,13877,,,,,0,85,85,101,1,,,,,,,,,,,,,,,,,,,,,,,,,,,,,,,,,,,
,,,,,,,,,,,,l,0.60941,Incorrect,,,,,,t4.png,t3.png,1,0.909,19,Male,2020-10-19_23h04.04.615,torte-q,2020.1.3,Win32,60,13877,,,,,0,86,86,46,1,,,,,,,,,,,,,,,,,,,,,,,,,,,,,,,,,,,
,,,,,,,,,,,,l,0.7814,Incorrect,,,,,,t2.png,t1.png,1,0.90025,19,Male,2020-10-19_23h04.04.615,torte-q,2020.1.3,Win32,60,13877,,,,,0,87,87,5,1,,,,,,,,,,,,,,,,,,,,,,,,,,,,,,,,,,,
,,,,,,,,,,,,l,0.731,Incorrect,,,,,,t5.png,t4.png,1,0.9,19,Male,2020-10-19_23h04.04.615,torte-q,2020.1.3,Win32,60,13877,,,,,0,88,88,49,1,,,,,,,,,,,,,,,,,,,,,,,,,,,,,,,,,,,
,,,,,,,,,,,,l,0.13212,Correct!,,,,,,t4.png,t3.png,1,0.90855,19,Male,2020-10-19_23h04.04.615,torte-q,2020.1.3,Win32,60,13877,,,,,0,89,89,35,1,,,,,,,,,,,,,,,,,,,,,,,,,,,,,,,,,,,
,,,,,,,,,,,,l,0.201095,Correct!,,,,,,t5.png,t1.png,4,9.55E-11,19,Male,2020-10-19_23h04.04.615,torte-q,2020.1.3,Win32,60,13877,,,,,0,90,90,71,1,,,,,,,,,,,,,,,,,,,,,,,,,,,,,,,,,,,
,,,,,,,,,,,,,,Too slow :(,,,,,,t5.png,t1.png,4,9.55E-11,19,Male,2020-10-19_23h04.04.615,torte-q,2020.1.3,Win32,60,13877,,,,,0,91,91,100,1,,,,,,,,,,,,,,,,,,,,,,,,,,,,,,,,,,,
,,,,,,,,,,,,l,1.41669,Incorrect,,,,,,t5.png,t4.png,1,0.90025,19,Male,2020-10-19_23h04.04.615,torte-q,2020.1.3,Win32,60,13877,,,,,0,92,92,27,1,,,,,,,,,,,,,,,,,,,,,,,,,,,,,,,,,,,
,,,,,,,,,,,,l,0.732755,Correct!,,,,,,t5.png,t2.png,3,0.0000131,19,Male,2020-10-19_23h04.04.615,torte-q,2020.1.3,Win32,60,13877,,,,,0,93,93,91,1,,,,,,,,,,,,,,,,,,,,,,,,,,,,,,,,,,,
,,,,,,,,,,,,l,0.448395,Incorrect,,,,,,t3.png,t2.png,1,0.90855,19,Male,2020-10-19_23h04.04.615,torte-q,2020.1.3,Win32,60,13877,,,,,0,94,94,97,1,,,,,,,,,,,,,,,,,,,,,,,,,,,,,,,,,,,
,,,,,,,,,,,,l,0.08973,Correct!,,,,,,t1.png,t4.png,3,0.0000131,19,Male,2020-10-19_23h04.04.615,torte-q,2020.1.3,Win32,60,13877,,,,,0,95,95,17,1,,,,,,,,,,,,,,,,,,,,,,,,,,,,,,,,,,,
,,,,,,,,,,,,l,0.01903,Incorrect,,,,,,t4.png,t3.png,1,0.90855,19,Male,2020-10-19_23h04.04.615,torte-q,2020.1.3,Win32,60,13877,,,,,0,96,96,45,1,,,,,,,,,,,,,,,,,,,,,,,,,,,,,,,,,,,
,,,,,,,,,,,,l,0.15103,Incorrect,,,,,,t2.png,t1.png,1,0.90025,19,Male,2020-10-19_23h04.04.615,torte-q,2020.1.3,Win32,60,13877,,,,,0,97,97,4,1,,,,,,,,,,,,,,,,,,,,,,,,,,,,,,,,,,,
,,,,,,,,,,,,a,0.149175,Incorrect,,,,,,t2.png,t4.png,2,0.0591,19,Male,2020-10-19_23h04.04.615,torte-q,2020.1.3,Win32,60,13877,,,,,0,98,98,15,1,,,,,,,,,,,,,,,,,,,,,,,,,,,,,,,,,,,
,,,,,,,,,,,,l,0.00167,Incorrect,,,,,,t1.png,t1.png,0,0.97829,19,Male,2020-10-19_23h04.04.615,torte-q,2020.1.3,Win32,60,13877,,,,,0,99,99,9,1,,,,,,,,,,,,,,,,,,,,,,,,,,,,,,,,,,,
,,,,,,,,,,,,l,0.154165,Incorrect,,,,,,t2.png,t2.png,0,0.98115,19,Male,2020-10-19_23h04.04.615,torte-q,2020.1.3,Win32,60,13877,,,,,0,100,100,59,1,,,,,,,,,,,,,,,,,,,,,,,,,,,,,,,,,,,
,,,,,,,,,,,,a,0.215535,Correct!,,,,,,t3.png,t4.png,1,0.909,19,Male,2020-10-19_23h04.04.615,torte-q,2020.1.3,Win32,60,13877,,,,,0,101,101,89,1,,,,,,,,,,,,,,,,,,,,,,,,,,,,,,,,,,,
,,,,,,,,,,,,l,0.04903,Correct!,,,,,,t5.png,t3.png,2,0.056466,19,Male,2020-10-19_23h04.04.615,torte-q,2020.1.3,Win32,60,13877,,,,,0,102,102,38,1,,,,,,,,,,,,,,,,,,,,,,,,,,,,,,,,,,,
,,,,,,,,,,,,l,0.09961,Correct!,,,,,,t4.png,t1.png,3,0.0000131,19,Male,2020-10-19_23h04.04.615,torte-q,2020.1.3,Win32,60,13877,,,,,0,103,103,93,1,,,,,,,,,,,,,,,,,,,,,,,,,,,,,,,,,,,
,,,,,,,,,,,,l,0.06576,Correct!,,,,,,t2.png,t4.png,2,0.059078,19,Male,2020-10-19_23h04.04.615,torte-q,2020.1.3,Win32,60,13877,,,,,0,104,104,24,1,,,,,,,,,,,,,,,,,,,,,,,,,,,,,,,,,,,
,,,,,,,,,,,,l,0.054695,Correct!,,,,,,t3.png,t5.png,2,0.056466,19,Male,2020-10-19_23h04.04.615,torte-q,2020.1.3,Win32,60,13877,,,,,0,105,105,44,1,,,,,,,,,,,,,,,,,,,,,,,,,,,,,,,,,,,
,,,,,,,,,,,,l,0.08172,Incorrect,,,,,,t3.png,t4.png,1,0.909,19,Male,2020-10-19_23h04.04.615,torte-q,2020.1.3,Win32,60,13877,,,,,0,106,106,82,1,,,,,,,,,,,,,,,,,,,,,,,,,,,,,,,,,,,
,,,,,,,,,,,,a,0.04906,Incorrect,,,,,,t3.png,t5.png,2,0.0565,19,Male,2020-10-19_23h04.04.615,torte-q,2020.1.3,Win32,60,13877,,,,,0,107,107,30,1,,,,,,,,,,,,,,,,,,,,,,,,,,,,,,,,,,,
,,,,,,,,,,,,l,0.082455,Incorrect,,,,,,t3.png,t4.png,1,0.90855,19,Male,2020-10-19_23h04.04.615,torte-q,2020.1.3,Win32,60,13877,,,,,0,108,108,96,1,,,,,,,,,,,,,,,,,,,,,,,,,,,,,,,,,,,
,,,,,,,,,,,,a,0.092035,Correct!,,,,,,t5.png,t4.png,1,0.90025,19,Male,2020-10-19_23h04.04.615,torte-q,2020.1.3,Win32,60,13877,,,,,0,109,109,26,1,,,,,,,,,,,,,,,,,,,,,,,,,,,,,,,,,,,
,,,,,,,,,,,,a,0.19921,Correct!,,,,,,t1.png,t2.png,1,0.90025,19,Male,2020-10-19_23h04.04.615,torte-q,2020.1.3,Win32,60,13877,,,,,0,110,110,33,1,,,,,,,,,,,,,,,,,,,,,,,,,,,,,,,,,,,
,,,,,,,,,,,,a,0.03248,Incorrect,,,,,,t1.png,t3.png,2,0.056466,19,Male,2020-10-19_23h04.04.615,torte-q,2020.1.3,Win32,60,13877,,,,,0,111,111,69,1,,,,,,,,,,,,,,,,,,,,,,,,,,,,,,,,,,,
,,,,,,,,,,,,a,0.13198,Incorrect,,,,,,t5.png,t1.png,4,9.55E-11,19,Male,2020-10-19_23h04.04.615,torte-q,2020.1.3,Win32,60,13877,,,,,0,112,112,102,1,,,,,,,,,,,,,,,,,,,,,,,,,,,,,,,,,,,
,,,,,,,,,,,,l,0.199625,Incorrect,,,,,,t5.png,t5.png,0,0.97829,19,Male,2020-10-19_23h04.04.615,torte-q,2020.1.3,Win32,60,13877,,,,,0,113,113,73,1,,,,,,,,,,,,,,,,,,,,,,,,,,,,,,,,,,,
,,,,,,,,,,,,a,0.052225,Incorrect,,,,,,t2.png,t4.png,2,0.059078,19,Male,2020-10-19_23h04.04.615,torte-q,2020.1.3,Win32,60,13877,,,,,0,114,114,77,1,,,,,,,,,,,,,,,,,,,,,,,,,,,,,,,,,,,
,,,,,,,,,,,,l,0.348035,Correct!,,,,,,t2.png,t5.png,3,0.0000131,19,Male,2020-10-19_23h04.04.615,torte-q,2020.1.3,Win32,60,13877,,,,,0,115,115,8,1,,,,,,,,,,,,,,,,,,,,,,,,,,,,,,,,,,,
,,,,,,,,,,,,a,0.455545,Correct!,,,,,,t4.png,t3.png,1,0.909,19,Male,2020-10-19_23h04.04.615,torte-q,2020.1.3,Win32,60,13877,,,,,0,116,116,20,1,,,,,,,,,,,,,,,,,,,,,,,,,,,,,,,,,,,
,,,,,,,,,,,,l,0.04968,Correct!,,,,,,t5.png,t3.png,2,0.056466,19,Male,2020-10-19_23h04.04.615,torte-q,2020.1.3,Win32,60,13877,,,,,0,117,117,108,1,,,,,,,,,,,,,,,,,,,,,,,,,,,,,,,,,,,
,,,,,,,,,,,,l,0.13172,Incorrect,,,,,,t2.png,t1.png,1,0.90025,19,Male,2020-10-19_23h04.04.615,torte-q,2020.1.3,Win32,60,13877,,,,,0,118,118,62,1,,,,,,,,,,,,,,,,,,,,,,,,,,,,,,,,,,,
,,,,,,,,,,,,l,0.08762,Correct!,,,,,,t1.png,t4.png,3,0.0000131,19,Male,2020-10-19_23h04.04.615,torte-q,2020.1.3,Win32,60,13877,,,,,0,119,119,92,1,,,,,,,,,,,,,,,,,,,,,,,,,,,,,,,,,,,
,,,,,,,,,,,,l,1.21182,Incorrect,,,,,,t4.png,t4.png,0,0.98115,19,Male,2020-10-19_23h04.04.615,torte-q,2020.1.3,Win32,60,13877,space,3.093325,,,,,,,,space,9.055775,space,19.072175,0,0,0,52,1,,,,,,,,,,,,,,,,,,,,,,,,,,
,,,,,,,,,,,,l,0.433715,Incorrect,,,,,,t2.png,t3.png,1,0.90855,19,Male,2020-10-19_23h04.04.615,torte-q,2020.1.3,Win32,60,13877,,,,,,,,,,,,,,0,1,1,68,1,,,,,,,,,,,,,,,,,,,,,,,,,,
,,,,,,,,,,,,a,0.66833,Incorrect,,,,,,t4.png,t2.png,2,0.059078,19,Male,2020-10-19_23h04.04.615,torte-q,2020.1.3,Win32,60,13877,,,,,,,,,,,,,,0,2,2,86,1,,,,,,,,,,,,,,,,,,,,,,,,,,
,,,,,,,,,,,,a,0.468045,Correct!,,,,,,t1.png,t1.png,0,0.978,19,Male,2020-10-19_23h04.04.615,torte-q,2020.1.3,Win32,60,13877,,,,,,,,,,,,,,0,3,3,54,1,,,,,,,,,,,,,,,,,,,,,,,,,,
,,,,,,,,,,,,a,0.311135,Correct!,,,,,,t4.png,t4.png,0,0.98115,19,Male,2020-10-19_23h04.04.615,torte-q,2020.1.3,Win32,60,13877,,,,,,,,,,,,,,0,4,4,80,1,,,,,,,,,,,,,,,,,,,,,,,,,,
,,,,,,,,,,,,a,0.151815,Incorrect,,,,,,t4.png,t1.png,3,0.0000131,19,Male,2020-10-19_23h04.04.615,torte-q,2020.1.3,Win32,60,13877,,,,,,,,,,,,,,0,5,5,13,1,,,,,,,,,,,,,,,,,,,,,,,,,,
,,,,,,,,,,,,a,0.167795,Correct!,,,,,,t4.png,t5.png,1,0.90025,19,Male,2020-10-19_23h04.04.615,torte-q,2020.1.3,Win32,60,13877,,,,,,,,,,,,,,0,6,6,113,1,,,,,,,,,,,,,,,,,,,,,,,,,,
,,,,,,,,,,,,l,0.319435,Incorrect,,,,,,t2.png,t1.png,1,0.90025,19,Male,2020-10-19_23h04.04.615,torte-q,2020.1.3,Win32,60,13877,,,,,,,,,,,,,,0,7,7,62,1,,,,,,,,,,,,,,,,,,,,,,,,,,
,,,,,,,,,,,,l,0.18963,Incorrect,,,,,,t1.png,t1.png,0,0.97829,19,Male,2020-10-19_23h04.04.615,torte-q,2020.1.3,Win32,60,13877,,,,,,,,,,,,,,0,8,8,67,1,,,,,,,,,,,,,,,,,,,,,,,,,,
,,,,,,,,,,,,l,0.13423,Correct!,,,,,,t3.png,t2.png,1,0.90855,19,Male,2020-10-19_23h04.04.615,torte-q,2020.1.3,Win32,60,13877,,,,,,,,,,,,,,0,9,9,53,1,,,,,,,,,,,,,,,,,,,,,,,,,,
,,,,,,,,,,,,l,0.317145,Incorrect,,,,,,t3.png,t2.png,1,0.909,19,Male,2020-10-19_23h04.04.615,torte-q,2020.1.3,Win32,60,13877,,,,,,,,,,,,,,0,10,10,3,1,,,,,,,,,,,,,,,,,,,,,,,,,,
,,,,,,,,,,,,l,0.26856,Correct!,,,,,,t5.png,t3.png,2,0.056466,19,Male,2020-10-19_23h04.04.615,torte-q,2020.1.3,Win32,60,13877,,,,,,,,,,,,,,0,11,11,38,1,,,,,,,,,,,,,,,,,,,,,,,,,,
,,,,,,,,,,,,a,0.24372,Incorrect,,,,,,t5.png,t1.png,4,9.55E-11,19,Male,2020-10-19_23h04.04.615,torte-q,2020.1.3,Win32,60,13877,,,,,,,,,,,,,,0,12,12,71,1,,,,,,,,,,,,,,,,,,,,,,,,,,
,,,,,,,,,,,,l,0.18931,Correct!,,,,,,t1.png,t5.png,4,9.55E-11,19,Male,2020-10-19_23h04.04.615,torte-q,2020.1.3,Win32,60,13877,,,,,,,,,,,,,,0,13,13,41,1,,,,,,,,,,,,,,,,,,,,,,,,,,
,,,,,,,,,,,,a,0.001355,Correct!,,,,,,t4.png,t5.png,1,0.90025,19,Male,2020-10-19_23h04.04.615,torte-q,2020.1.3,Win32,60,13877,,,,,,,,,,,,,,0,14,14,58,1,,,,,,,,,,,,,,,,,,,,,,,,,,
,,,,,,,,,,,,a,0.218,Incorrect,,,,,,t3.png,t1.png,2,0.056466,19,Male,2020-10-19_23h04.04.615,torte-q,2020.1.3,Win32,60,13877,,,,,,,,,,,,,,0,15,15,29,1,,,,,,,,,,,,,,,,,,,,,,,,,,
,,,,,,,,,,,,a,0.30803,Incorrect,,,,,,t3.png,t1.png,2,0.056466,19,Male,2020-10-19_23h04.04.615,torte-q,2020.1.3,Win32,60,13877,,,,,,,,,,,,,,0,16,16,64,1,,,,,,,,,,,,,,,,,,,,,,,,,,
,,,,,,,,,,,,l,0.20963,Correct!,,,,,,t2.png,t4.png,2,0.059078,19,Male,2020-10-19_23h04.04.615,torte-q,2020.1.3,Win32,60,13877,,,,,,,,,,,,,,0,17,17,77,1,,,,,,,,,,,,,,,,,,,,,,,,,,
,,,,,,,,,,,,l,0.47008,Correct!,,,,,,t1.png,t3.png,2,0.056466,19,Male,2020-10-19_23h04.04.615,torte-q,2020.1.3,Win32,60,13877,,,,,,,,,,,,,,0,18,18,63,1,,,,,,,,,,,,,,,,,,,,,,,,,,
,,,,,,,,,,,,l,0.01786,Correct!,,,,,,t2.png,t4.png,2,0.059078,19,Male,2020-10-19_23h04.04.615,torte-q,2020.1.3,Win32,60,13877,,,,,,,,,,,,,,0,19,19,37,1,,,,,,,,,,,,,,,,,,,,,,,,,,
,,,,,,,,,,,,l,0.00154,Incorrect,,,,,,t1.png,t1.png,0,0.97829,19,Male,2020-10-19_23h04.04.615,torte-q,2020.1.3,Win32,60,13877,,,,,,,,,,,,,,0,20,20,78,1,,,,,,,,,,,,,,,,,,,,,,,,,,
,,,,,,,,,,,,l,0.084935,Incorrect,,,,,,t3.png,t4.png,1,0.90855,19,Male,2020-10-19_23h04.04.615,torte-q,2020.1.3,Win32,60,13877,,,,,,,,,,,,,,0,21,21,96,1,,,,,,,,,,,,,,,,,,,,,,,,,,
,,,,,,,,,,,,l,0.18531,Incorrect,,,,,,t5.png,t4.png,1,0.90025,19,Male,2020-10-19_23h04.04.615,torte-q,2020.1.3,Win32,60,13877,,,,,,,,,,,,,,0,22,22,34,1,,,,,,,,,,,,,,,,,,,,,,,,,,
,,,,,,,,,,,,l,0.00156,Correct!,,,,,,t4.png,t2.png,2,0.059078,19,Male,2020-10-19_23h04.04.615,torte-q,2020.1.3,Win32,60,13877,,,,,,,,,,,,,,0,23,23,110,1,,,,,,,,,,,,,,,,,,,,,,,,,,
,,,,,,,,,,,,l,0.018295,Incorrect,,,,,,t2.png,t1.png,1,0.9,19,Male,2020-10-19_23h04.04.615,torte-q,2020.1.3,Win32,60,13877,,,,,,,,,,,,,,0,24,24,118,1,,,,,,,,,,,,,,,,,,,,,,,,,,
,,,,,,,,,,,,l,0.001645,Correct!,,,,,,t2.png,t4.png,2,0.0591,19,Male,2020-10-19_23h04.04.615,torte-q,2020.1.3,Win32,60,13877,,,,,,,,,,,,,,0,25,25,15,1,,,,,,,,,,,,,,,,,,,,,,,,,,
,,,,,,,,,,,,l,0.05168,Correct!,,,,,,t4.png,t1.png,3,0.0000131,19,Male,2020-10-19_23h04.04.615,torte-q,2020.1.3,Win32,60,13877,,,,,,,,,,,,,,0,26,26,61,1,,,,,,,,,,,,,,,,,,,,,,,,,,
,,,,,,,,,,,,l,0.05338,Incorrect,,,,,,t4.png,t3.png,1,0.90855,19,Male,2020-10-19_23h04.04.615,torte-q,2020.1.3,Win32,60,13877,,,,,,,,,,,,,,0,27,27,75,1,,,,,,,,,,,,,,,,,,,,,,,,,,
,,,,,,,,,,,,l,0.13551,Correct!,,,,,,t1.png,t4.png,3,0.0000131,19,Male,2020-10-19_23h04.04.615,torte-q,2020.1.3,Win32,60,13877,,,,,,,,,,,,,,0,28,28,50,1,,,,,,,,,,,,,,,,,,,,,,,,,,
,,,,,,,,,,,,a,0.418045,Correct!,,,,,,t4.png,t3.png,1,0.90855,19,Male,2020-10-19_23h04.04.615,torte-q,2020.1.3,Win32,60,13877,,,,,,,,,,,,,,0,29,29,45,1,,,,,,,,,,,,,,,,,,,,,,,,,,
,,,,,,,,,,,,a,0.184785,Correct!,,,,,,t3.png,t2.png,1,0.909,19,Male,2020-10-19_23h04.04.615,torte-q,2020.1.3,Win32,60,13877,,,,,,,,,,,,,,0,30,30,23,1,,,,,,,,,,,,,,,,,,,,,,,,,,
,,,,,,,,,,,,a,0.11765,Correct!,,,,,,t2.png,t2.png,0,0.98115,19,Male,2020-10-19_23h04.04.615,torte-q,2020.1.3,Win32,60,13877,,,,,,,,,,,,,,0,31,31,57,1,,,,,,,,,,,,,,,,,,,,,,,,,,
,,,,,,,,,,,,a,0.140965,Incorrect,,,,,,t5.png,t1.png,4,9.55E-11,19,Male,2020-10-19_23h04.04.615,torte-q,2020.1.3,Win32,60,13877,,,,,,,,,,,,,,0,32,32,22,1,,,,,,,,,,,,,,,,,,,,,,,,,,
,,,,,,,,,,,,a,0.43469,Incorrect,,,,,,t2.png,t5.png,3,0.0000131,19,Male,2020-10-19_23h04.04.615,torte-q,2020.1.3,Win32,60,13877,,,,,,,,,,,,,,0,33,33,66,1,,,,,,,,,,,,,,,,,,,,,,,,,,
,,,,,,,,,,,,a,0.03481,Incorrect,,,,,,t1.png,t2.png,1,0.90025,19,Male,2020-10-19_23h04.04.615,torte-q,2020.1.3,Win32,60,13877,,,,,,,,,,,,,,0,34,34,33,1,,,,,,,,,,,,,,,,,,,,,,,,,,
,,,,,,,,,,,,a,0.18464,Incorrect,,,,,,t1.png,t4.png,3,0.0000131,19,Male,2020-10-19_23h04.04.615,torte-q,2020.1.3,Win32,60,13877,,,,,,,,,,,,,,0,35,35,17,1,,,,,,,,,,,,,,,,,,,,,,,,,,
,,,,,,,,,,,,a,0.023745,Incorrect,,,,,,t1.png,t4.png,3,0.0000131,19,Male,2020-10-19_23h04.04.615,torte-q,2020.1.3,Win32,60,13877,,,,,,,,,,,,,,0,36,36,107,1,,,,,,,,,,,,,,,,,,,,,,,,,,
,,,,,,,,,,,,a,0.069505,Incorrect,,,,,,t5.png,t1.png,4,9.55E-11,19,Male,2020-10-19_23h04.04.615,torte-q,2020.1.3,Win32,60,13877,,,,,,,,,,,,,,0,37,37,100,1,,,,,,,,,,,,,,,,,,,,,,,,,,
,,,,,,,,,,,,l,0.18491,Correct!,,,,,,t5.png,t1.png,4,9.55E-11,19,Male,2020-10-19_23h04.04.615,torte-q,2020.1.3,Win32,60,13877,,,,,,,,,,,,,,0,38,38,102,1,,,,,,,,,,,,,,,,,,,,,,,,,,
,,,,,,,,,,,,l,0.034355,Incorrect,,,,,,t5.png,t5.png,0,0.97829,19,Male,2020-10-19_23h04.04.615,torte-q,2020.1.3,Win32,60,13877,,,,,,,,,,,,,,0,39,39,73,1,,,,,,,,,,,,,,,,,,,,,,,,,,
,,,,,,,,,,,,l,0.134605,Correct!,,,,,,t1.png,t5.png,4,9.55E-11,19,Male,2020-10-19_23h04.04.615,torte-q,2020.1.3,Win32,60,13877,,,,,,,,,,,,,,0,40,40,55,1,,,,,,,,,,,,,,,,,,,,,,,,,,
,,,,,,,,,,,,l,0.15163,Incorrect,,,,,,t2.png,t2.png,0,0.98115,19,Male,2020-10-19_23h04.04.615,torte-q,2020.1.3,Win32,60,13877,,,,,,,,,,,,,,0,41,41,59,1,,,,,,,,,,,,,,,,,,,,,,,,,,
,,,,,,,,,,,,l,0.034955,Incorrect,,,,,,t5.png,t5.png,0,0.97829,19,Male,2020-10-19_23h04.04.615,torte-q,2020.1.3,Win32,60,13877,,,,,,,,,,,,,,0,42,42,25,1,,,,,,,,,,,,,,,,,,,,,,,,,,
,,,,,,,,,,,,l,0.001415,Correct!,,,,,,t5.png,t2.png,3,0.0000131,19,Male,2020-10-19_23h04.04.615,torte-q,2020.1.3,Win32,60,13877,,,,,,,,,,,,,,0,43,43,116,1,,,,,,,,,,,,,,,,,,,,,,,,,,
,,,,,,,,,,,,l,0.090545,Correct!,,,,,,t5.png,t1.png,4,9.55E-11,19,Male,2020-10-19_23h04.04.615,torte-q,2020.1.3,Win32,60,13877,,,,,,,,,,,,,,0,44,44,43,1,,,,,,,,,,,,,,,,,,,,,,,,,,
,,,,,,,,,,,,l,0.25347,Correct!,,,,,,t5.png,t2.png,3,0.0000131,19,Male,2020-10-19_23h04.04.615,torte-q,2020.1.3,Win32,60,13877,,,,,,,,,,,,,,0,45,45,51,1,,,,,,,,,,,,,,,,,,,,,,,,,,
,,,,,,,,,,,,a,0.134485,Incorrect,,,,,,t1.png,t3.png,2,0.056466,19,Male,2020-10-19_23h04.04.615,torte-q,2020.1.3,Win32,60,13877,,,,,,,,,,,,,,0,46,46,69,1,,,,,,,,,,,,,,,,,,,,,,,,,,
,,,,,,,,,,,,a,0.03455,Correct!,,,,,,t1.png,t2.png,1,0.90025,19,Male,2020-10-19_23h04.04.615,torte-q,2020.1.3,Win32,60,13877,,,,,,,,,,,,,,0,47,47,72,1,,,,,,,,,,,,,,,,,,,,,,,,,,
,,,,,,,,,,,,l,0.001505,Incorrect,,,,,,t3.png,t2.png,1,0.90855,19,Male,2020-10-19_23h04.04.615,torte-q,2020.1.3,Win32,60,13877,,,,,,,,,,,,,,0,48,48,97,1,,,,,,,,,,,,,,,,,,,,,,,,,,
,,,,,,,,,,,,l,0.066425,Correct!,,,,,,t1.png,t4.png,3,0.0000131,19,Male,2020-10-19_23h04.04.615,torte-q,2020.1.3,Win32,60,13877,,,,,,,,,,,,,,0,49,49,81,1,,,,,,,,,,,,,,,,,,,,,,,,,,
,,,,,,,,,,,,l,0.06903,Correct!,,,,,,t1.png,t5.png,4,9.55E-11,19,Male,2020-10-19_23h04.04.615,torte-q,2020.1.3,Win32,60,13877,,,,,,,,,,,,,,0,50,50,12,1,,,,,,,,,,,,,,,,,,,,,,,,,,
,,,,,,,,,,,,a,0.023165,Correct!,,,,,,t5.png,t5.png,0,0.97829,19,Male,2020-10-19_23h04.04.615,torte-q,2020.1.3,Win32,60,13877,,,,,,,,,,,,,,0,51,51,94,1,,,,,,,,,,,,,,,,,,,,,,,,,,
,,,,,,,,,,,,a,0.029475,Correct!,,,,,,t2.png,t2.png,0,0.981,19,Male,2020-10-19_23h04.04.615,torte-q,2020.1.3,Win32,60,13877,,,,,,,,,,,,,,0,52,52,101,1,,,,,,,,,,,,,,,,,,,,,,,,,,
,,,,,,,,,,,,l,0.0856,Incorrect,,,,,,t2.png,t1.png,1,0.90025,19,Male,2020-10-19_23h04.04.615,torte-q,2020.1.3,Win32,60,13877,,,,,,,,,,,,,,0,53,53,4,1,,,,,,,,,,,,,,,,,,,,,,,,,,
,,,,,,,,,,,,l,0.19714,Correct!,,,,,,t3.png,t1.png,2,0.0565,19,Male,2020-10-19_23h04.04.615,torte-q,2020.1.3,Win32,60,13877,,,,,,,,,,,,,,0,54,54,31,1,,,,,,,,,,,,,,,,,,,,,,,,,,
,,,,,,,,,,,,l,0.1182,Correct!,,,,,,t2.png,t5.png,3,0.0000131,19,Male,2020-10-19_23h04.04.615,torte-q,2020.1.3,Win32,60,13877,,,,,,,,,,,,,,0,55,55,40,1,,,,,,,,,,,,,,,,,,,,,,,,,,
,,,,,,,,,,,,a,0.05284,Correct!,,,,,,t2.png,t2.png,0,0.98115,19,Male,2020-10-19_23h04.04.615,torte-q,2020.1.3,Win32,60,13877,,,,,,,,,,,,,,0,56,56,2,1,,,,,,,,,,,,,,,,,,,,,,,,,,
,,,,,,,,,,,,a,0.13761,Correct!,,,,,,t3.png,t4.png,1,0.909,19,Male,2020-10-19_23h04.04.615,torte-q,2020.1.3,Win32,60,13877,,,,,,,,,,,,,,0,57,57,106,1,,,,,,,,,,,,,,,,,,,,,,,,,,
,,,,,,,,,,,,a,0.231595,Incorrect,,,,,,t4.png,t5.png,1,0.9,19,Male,2020-10-19_23h04.04.615,torte-q,2020.1.3,Win32,60,13877,,,,,,,,,,,,,,0,58,58,115,1,,,,,,,,,,,,,,,,,,,,,,,,,,
,,,,,,,,,,,,a,0.465135,Incorrect,,,,,,t5.png,t2.png,3,0.0000131,19,Male,2020-10-19_23h04.04.615,torte-q,2020.1.3,Win32,60,13877,,,,,,,,,,,,,,0,59,59,119,1,,,,,,,,,,,,,,,,,,,,,,,,,,
,,,,,,,,,,,,a,0.29937,Correct!,,,,,,t4.png,t3.png,1,0.909,19,Male,2020-10-19_23h04.04.615,torte-q,2020.1.3,Win32,60,13877,,,,,,,,,,,,,,0,60,60,20,1,,,,,,,,,,,,,,,,,,,,,,,,,,
,,,,,,,,,,,,a,0.41709,Correct!,,,,,,t4.png,t4.png,0,0.98115,19,Male,2020-10-19_23h04.04.615,torte-q,2020.1.3,Win32,60,13877,,,,,,,,,,,,,,0,61,61,79,1,,,,,,,,,,,,,,,,,,,,,,,,,,
,,,,,,,,,,,,a,0.40009,Incorrect,,,,,,t3.png,t1.png,2,0.056466,19,Male,2020-10-19_23h04.04.615,torte-q,2020.1.3,Win32,60,13877,,,,,,,,,,,,,,0,62,62,0,1,,,,,,,,,,,,,,,,,,,,,,,,,,
,,,,,,,,,,,,a,0.249135,Incorrect,,,,,,t5.png,t4.png,1,0.90025,19,Male,2020-10-19_23h04.04.615,torte-q,2020.1.3,Win32,60,13877,,,,,,,,,,,,,,0,63,63,27,1,,,,,,,,,,,,,,,,,,,,,,,,,,
,,,,,,,,,,,,a,0.316405,Incorrect,,,,,,t4.png,t1.png,3,0.0000131,19,Male,2020-10-19_23h04.04.615,torte-q,2020.1.3,Win32,60,13877,,,,,,,,,,,,,,0,64,64,93,1,,,,,,,,,,,,,,,,,,,,,,,,,,
,,,,,,,,,,,,a,0.287645,Correct!,,,,,,t4.png,t5.png,1,0.90025,19,Male,2020-10-19_23h04.04.615,torte-q,2020.1.3,Win32,60,13877,,,,,,,,,,,,,,0,65,65,103,1,,,,,,,,,,,,,,,,,,,,,,,,,,
,,,,,,,,,,,,a,0.28989,Incorrect,,,,,,t3.png,t4.png,1,0.909,19,Male,2020-10-19_23h04.04.615,torte-q,2020.1.3,Win32,60,13877,,,,,,,,,,,,,,0,66,66,89,1,,,,,,,,,,,,,,,,,,,,,,,,,,
,,,,,,,,,,,,a,0.316895,Incorrect,,,,,,t4.png,t1.png,3,0.0000131,19,Male,2020-10-19_23h04.04.615,torte-q,2020.1.3,Win32,60,13877,,,,,,,,,,,,,,0,67,67,48,1,,,,,,,,,,,,,,,,,,,,,,,,,,
,,,,,,,,,,,,a,0.23314,Correct!,,,,,,t2.png,t1.png,1,0.90025,19,Male,2020-10-19_23h04.04.615,torte-q,2020.1.3,Win32,60,13877,,,,,,,,,,,,,,0,68,68,19,1,,,,,,,,,,,,,,,,,,,,,,,,,,
,,,,,,,,,,,,a,0.58131,Incorrect,,,,,,t3.png,t5.png,2,0.0565,19,Male,2020-10-19_23h04.04.615,torte-q,2020.1.3,Win32,60,13877,,,,,,,,,,,,,,0,69,69,30,1,,,,,,,,,,,,,,,,,,,,,,,,,,
,,,,,,,,,,,,l,0.13069,Incorrect,,,,,,t4.png,t4.png,0,0.98115,19,Male,2020-10-19_23h04.04.615,torte-q,2020.1.3,Win32,60,13877,,,,,,,,,,,,,,0,70,70,21,1,,,,,,,,,,,,,,,,,,,,,,,,,,
,,,,,,,,,,,,l,0.28325,Correct!,,,,,,t3.png,t5.png,2,0.056466,19,Male,2020-10-19_23h04.04.615,torte-q,2020.1.3,Win32,60,13877,,,,,,,,,,,,,,0,71,71,14,1,,,,,,,,,,,,,,,,,,,,,,,,,,
,,,,,,,,,,,,l,0.583165,Incorrect,,,,,,t1.png,t2.png,1,0.90025,19,Male,2020-10-19_23h04.04.615,torte-q,2020.1.3,Win32,60,13877,,,,,,,,,,,,,,0,72,72,105,1,,,,,,,,,,,,,,,,,,,,,,,,,,
,,,,,,,,,,,,l,0.48119,Incorrect,,,,,,t2.png,t3.png,1,0.90855,19,Male,2020-10-19_23h04.04.615,torte-q,2020.1.3,Win32,60,13877,,,,,,,,,,,,,,0,73,73,111,1,,,,,,,,,,,,,,,,,,,,,,,,,,
,,,,,,,,,,,,l,0.51641,Correct!,,,,,,t5.png,t3.png,2,0.056466,19,Male,2020-10-19_23h04.04.615,torte-q,2020.1.3,Win32,60,13877,,,,,,,,,,,,,,0,74,74,108,1,,,,,,,,,,,,,,,,,,,,,,,,,,
,,,,,,,,,,,,l,0.67076,Correct!,,,,,,t5.png,t2.png,3,0.0000131,19,Male,2020-10-19_23h04.04.615,torte-q,2020.1.3,Win32,60,13877,,,,,,,,,,,,,,0,75,75,98,1,,,,,,,,,,,,,,,,,,,,,,,,,,
,,,,,,,,,,,,l,0.349935,Incorrect,,,,,,t2.png,t3.png,1,0.90855,19,Male,2020-10-19_23h04.04.615,torte-q,2020.1.3,Win32,60,13877,,,,,,,,,,,,,,0,76,76,65,1,,,,,,,,,,,,,,,,,,,,,,,,,,
,,,,,,,,,,,,a,0.48354,Incorrect,,,,,,t5.png,t3.png,2,0.0565,19,Male,2020-10-19_23h04.04.615,torte-q,2020.1.3,Win32,60,13877,,,,,,,,,,,,,,0,77,77,39,1,,,,,,,,,,,,,,,,,,,,,,,,,,
,,,,,,,,,,,,l,0.251065,Incorrect,,,,,,t5.png,t4.png,1,0.90025,19,Male,2020-10-19_23h04.04.615,torte-q,2020.1.3,Win32,60,13877,,,,,,,,,,,,,,0,78,78,26,1,,,,,,,,,,,,,,,,,,,,,,,,,,
,,,,,,,,,,,,l,0.48937,Incorrect,,,,,,t2.png,t3.png,1,0.90855,19,Male,2020-10-19_23h04.04.615,torte-q,2020.1.3,Win32,60,13877,,,,,,,,,,,,,,0,79,79,10,1,,,,,,,,,,,,,,,,,,,,,,,,,,
,,,,,,,,,,,,a,0.21481,Correct!,,,,,,t1.png,t2.png,1,0.90025,19,Male,2020-10-19_23h04.04.615,torte-q,2020.1.3,Win32,60,13877,,,,,,,,,,,,,,0,80,80,112,1,,,,,,,,,,,,,,,,,,,,,,,,,,
,,,,,,,,,,,,l,0.432745,Correct!,,,,,,t5.png,t3.png,2,0.056466,19,Male,2020-10-19_23h04.04.615,torte-q,2020.1.3,Win32,60,13877,,,,,,,,,,,,,,0,81,81,114,1,,,,,,,,,,,,,,,,,,,,,,,,,,
,,,,,,,,,,,,a,0.19746,Correct!,,,,,,t5.png,t5.png,0,0.97829,19,Male,2020-10-19_23h04.04.615,torte-q,2020.1.3,Win32,60,13877,,,,,,,,,,,,,,0,82,82,70,1,,,,,,,,,,,,,,,,,,,,,,,,,,
,,,,,,,,,,,,l,0.26401,Correct!,,,,,,t5.png,t3.png,2,0.056466,19,Male,2020-10-19_23h04.04.615,torte-q,2020.1.3,Win32,60,13877,,,,,,,,,,,,,,0,83,83,56,1,,,,,,,,,,,,,,,,,,,,,,,,,,
,,,,,,,,,,,,a,0.290165,Incorrect,,,,,,t4.png,t2.png,2,0.0591,19,Male,2020-10-19_23h04.04.615,torte-q,2020.1.3,Win32,60,13877,,,,,,,,,,,,,,0,84,84,36,1,,,,,,,,,,,,,,,,,,,,,,,,,,
,,,,,,,,,,,,l,0.287,Incorrect,,,,,,t2.png,t1.png,1,0.90025,19,Male,2020-10-19_23h04.04.615,torte-q,2020.1.3,Win32,60,13877,,,,,,,,,,,,,,0,85,85,5,1,,,,,,,,,,,,,,,,,,,,,,,,,,
,,,,,,,,,,,,a,0.28317,Correct!,,,,,,t5.png,t4.png,1,0.9,19,Male,2020-10-19_23h04.04.615,torte-q,2020.1.3,Win32,60,13877,,,,,,,,,,,,,,0,86,86,76,1,,,,,,,,,,,,,,,,,,,,,,,,,,
,,,,,,,,,,,,l,0.191325,Correct!,,,,,,t1.png,t5.png,4,9.55E-11,19,Male,2020-10-19_23h04.04.615,torte-q,2020.1.3,Win32,60,13877,,,,,,,,,,,,,,0,87,87,16,1,,,,,,,,,,,,,,,,,,,,,,,,,,
,,,,,,,,,,,,a,0.166385,Incorrect,,,,,,t1.png,t3.png,2,0.056466,19,Male,2020-10-19_23h04.04.615,torte-q,2020.1.3,Win32,60,13877,,,,,,,,,,,,,,0,88,88,99,1,,,,,,,,,,,,,,,,,,,,,,,,,,
,,,,,,,,,,,,l,0.256875,Correct!,,,,,,t3.png,t1.png,2,0.056466,19,Male,2020-10-19_23h04.04.615,torte-q,2020.1.3,Win32,60,13877,,,,,,,,,,,,,,0,89,89,32,1,,,,,,,,,,,,,,,,,,,,,,,,,,
,,,,,,,,,,,,a,0.28345,Correct!,,,,,,t2.png,t4.png,2,0.059078,19,Male,2020-10-19_23h04.04.615,torte-q,2020.1.3,Win32,60,13877,,,,,,,,,,,,,,0,90,90,11,1,,,,,,,,,,,,,,,,,,,,,,,,,,
,,,,,,,,,,,,l,0.332565,Incorrect,,,,,,t1.png,t1.png,0,0.978,19,Male,2020-10-19_23h04.04.615,torte-q,2020.1.3,Win32,60,13877,,,,,,,,,,,,,,0,91,91,28,1,,,,,,,,,,,,,,,,,,,,,,,,,,
,,,,,,,,,,,,a,0.22369,Incorrect,,,,,,t2.png,t5.png,3,0.0000131,19,Male,2020-10-19_23h04.04.615,torte-q,2020.1.3,Win32,60,13877,,,,,,,,,,,,,,0,92,92,95,1,,,,,,,,,,,,,,,,,,,,,,,,,,
,,,,,,,,,,,,l,0.278345,Incorrect,,,,,,t2.png,t2.png,0,0.98115,19,Male,2020-10-19_23h04.04.615,torte-q,2020.1.3,Win32,60,13877,,,,,,,,,,,,,,0,93,93,7,1,,,,,,,,,,,,,,,,,,,,,,,,,,
,,,,,,,,,,,,a,0.780075,Incorrect,,,,,,t1.png,t4.png,3,0.0000131,19,Male,2020-10-19_23h04.04.615,torte-q,2020.1.3,Win32,60,13877,,,,,,,,,,,,,,0,94,94,92,1,,,,,,,,,,,,,,,,,,,,,,,,,,
,,,,,,,,,,,,l,0.583455,Correct!,,,,,,t2.png,t5.png,3,0.0000131,19,Male,2020-10-19_23h04.04.615,torte-q,2020.1.3,Win32,60,13877,,,,,,,,,,,,,,0,95,95,8,1,,,,,,,,,,,,,,,,,,,,,,,,,,
,,,,,,,,,,,,a,0.515235,Correct!,,,,,,t4.png,t3.png,1,0.90855,19,Male,2020-10-19_23h04.04.615,torte-q,2020.1.3,Win32,60,13877,,,,,,,,,,,,,,0,96,96,35,1,,,,,,,,,,,,,,,,,,,,,,,,,,
,,,,,,,,,,,,l,0.357265,Correct!,,,,,,t3.png,t5.png,2,0.0565,19,Male,2020-10-19_23h04.04.615,torte-q,2020.1.3,Win32,60,13877,,,,,,,,,,,,,,0,97,97,83,1,,,,,,,,,,,,,,,,,,,,,,,,,,
,,,,,,,,,,,,a,0.4148,Correct!,,,,,,t4.png,t5.png,1,0.90025,19,Male,2020-10-19_23h04.04.615,torte-q,2020.1.3,Win32,60,13877,,,,,,,,,,,,,,0,98,98,47,1,,,,,,,,,,,,,,,,,,,,,,,,,,
,,,,,,,,,,,,a,0.761425,Incorrect,,,,,,t3.png,t5.png,2,0.056466,19,Male,2020-10-19_23h04.04.615,torte-q,2020.1.3,Win32,60,13877,,,,,,,,,,,,,,0,99,99,44,1,,,,,,,,,,,,,,,,,,,,,,,,,,
,,,,,,,,,,,,a,0.315935,Incorrect,,,,,,t2.png,t5.png,3,0.0000131,19,Male,2020-10-19_23h04.04.615,torte-q,2020.1.3,Win32,60,13877,,,,,,,,,,,,,,0,100,100,104,1,,,,,,,,,,,,,,,,,,,,,,,,,,
,,,,,,,,,,,,a,0.633575,Correct!,,,,,,t3.png,t4.png,1,0.90855,19,Male,2020-10-19_23h04.04.615,torte-q,2020.1.3,Win32,60,13877,,,,,,,,,,,,,,0,101,101,84,1,,,,,,,,,,,,,,,,,,,,,,,,,,
,,,,,,,,,,,,a,1.432015,Correct!,,,,,,t4.png,t3.png,1,0.909,19,Male,2020-10-19_23h04.04.615,torte-q,2020.1.3,Win32,60,13877,,,,,,,,,,,,,,0,102,102,46,1,,,,,,,,,,,,,,,,,,,,,,,,,,
,,,,,,,,,,,,a,0.24836,Correct!,,,,,,t3.png,t4.png,1,0.909,19,Male,2020-10-19_23h04.04.615,torte-q,2020.1.3,Win32,60,13877,,,,,,,,,,,,,,0,103,103,82,1,,,,,,,,,,,,,,,,,,,,,,,,,,
,,,,,,,,,,,,a,0.00126,Incorrect,,,,,,t1.png,t2.png,1,0.9,19,Male,2020-10-19_23h04.04.615,torte-q,2020.1.3,Win32,60,13877,,,,,,,,,,,,,,0,104,104,1,1,,,,,,,,,,,,,,,,,,,,,,,,,,
,,,,,,,,,,,,a,0.23595,Incorrect,,,,,,t2.png,t3.png,1,0.909,19,Male,2020-10-19_23h04.04.615,torte-q,2020.1.3,Win32,60,13877,,,,,,,,,,,,,,0,105,105,74,1,,,,,,,,,,,,,,,,,,,,,,,,,,
,,,,,,,,,,,,a,1.55056,Incorrect,,,,,,t1.png,t5.png,4,9.55E-11,19,Male,2020-10-19_23h04.04.615,torte-q,2020.1.3,Win32,60,13877,,,,,,,,,,,,,,0,106,106,85,1,,,,,,,,,,,,,,,,,,,,,,,,,,
,,,,,,,,,,,,a,1.616205,Incorrect,,,,,,t5.png,t2.png,3,0.0000131,19,Male,2020-10-19_23h04.04.615,torte-q,2020.1.3,Win32,60,13877,,,,,,,,,,,,,,0,107,107,91,1,,,,,,,,,,,,,,,,,,,,,,,,,,
,,,,,,,,,,,,l,0.01887,Correct!,,,,,,t1.png,t3.png,2,0.056466,19,Male,2020-10-19_23h04.04.615,torte-q,2020.1.3,Win32,60,13877,,,,,,,,,,,,,,0,108,108,60,1,,,,,,,,,,,,,,,,,,,,,,,,,,
,,,,,,,,,,,,l,0.0678,Incorrect,,,,,,t5.png,t4.png,1,0.9,19,Male,2020-10-19_23h04.04.615,torte-q,2020.1.3,Win32,60,13877,,,,,,,,,,,,,,0,109,109,49,1,,,,,,,,,,,,,,,,,,,,,,,,,,
,,,,,,,,,,,,l,0.08372,Correct!,,,,,,t4.png,t2.png,2,0.059078,19,Male,2020-10-19_23h04.04.615,torte-q,2020.1.3,Win32,60,13877,,,,,,,,,,,,,,0,110,110,109,1,,,,,,,,,,,,,,,,,,,,,,,,,,
,,,,,,,,,,,,l,0.300685,Correct!,,,,,,t4.png,t2.png,2,0.059078,19,Male,2020-10-19_23h04.04.615,torte-q,2020.1.3,Win32,60,13877,,,,,,,,,,,,,,0,111,111,88,1,,,,,,,,,,,,,,,,,,,,,,,,,,
,,,,,,,,,,,,l,0.066255,Incorrect,,,,,,t5.png,t5.png,0,0.978,19,Male,2020-10-19_23h04.04.615,torte-q,2020.1.3,Win32,60,13877,,,,,,,,,,,,,,0,112,112,117,1,,,,,,,,,,,,,,,,,,,,,,,,,,
,,,,,,,,,,,,l,0.186735,Correct!,,,,,,t2.png,t4.png,2,0.059078,19,Male,2020-10-19_23h04.04.615,torte-q,2020.1.3,Win32,60,13877,,,,,,,,,,,,,,0,113,113,24,1,,,,,,,,,,,,,,,,,,,,,,,,,,
,,,,,,,,,,,,l,0.020745,Incorrect,,,,,,t4.png,t4.png,0,0.98115,19,Male,2020-10-19_23h04.04.615,torte-q,2020.1.3,Win32,60,13877,,,,,,,,,,,,,,0,114,114,90,1,,,,,,,,,,,,,,,,,,,,,,,,,,
,,,,,,,,,,,,a,0.44949,Correct!,,,,,,t1.png,t1.png,0,0.97829,19,Male,2020-10-19_23h04.04.615,torte-q,2020.1.3,Win32,60,13877,,,,,,,,,,,,,,0,115,115,9,1,,,,,,,,,,,,,,,,,,,,,,,,,,
,,,,,,,,,,,,a,0.31618,Incorrect,,,,,,t4.png,t1.png,3,0.0000131,19,Male,2020-10-19_23h04.04.615,torte-q,2020.1.3,Win32,60,13877,,,,,,,,,,,,,,0,116,116,42,1,,,,,,,,,,,,,,,,,,,,,,,,,,
,,,,,,,,,,,,a,0.032785,Incorrect,,,,,,t3.png,t5.png,2,0.056466,19,Male,2020-10-19_23h04.04.615,torte-q,2020.1.3,Win32,60,13877,,,,,,,,,,,,,,0,117,117,6,1,,,,,,,,,,,,,,,,,,,,,,,,,,
,,,,,,,,,,,,a,0.003875,Incorrect,,,,,,t1.png,t3.png,2,0.056466,19,Male,2020-10-19_23h04.04.615,torte-q,2020.1.3,Win32,60,13877,,,,,,,,,,,,,,0,118,118,87,1,,,,,,,,,,,,,,,,,,,,,,,,,,
,,,,,,,,,,,,a,0.061775,Correct!,,,,,,t3.png,t2.png,1,0.90855,19,Male,2020-10-19_23h04.04.615,torte-q,2020.1.3,Win32,60,13877,,,,,,,,,,,,,,0,119,119,18,1,,,,,,,,,,,,,,,,,,,,,,,,,,
,,,,,,,,,,,,,,,,,,,,,,,,19,Male,2020-10-19_23h04.04.615,torte-q,2020.1.3,Win32,60,13877,a,0.167955,,,,,,,,,,,,,,,,,6.000000153,16.810685,-53.99998254,-108.0000139,1,0,0,s6,-31.99998188,101.3333053,1,0,0,t1,100.6666887,-108.6666806,1,0,0,proceed,space,90.88658,space,0.65101,space,0.48464
