key_resp_8.keys,key_resp_8.rt,key_resp_9.keys,key_resp_9.rt,key_resp_10.keys,key_resp_10.rt,key_resp_11.keys,key_resp_11.rt,key_resp_2.keys,key_resp_2.rt,key_resp_3.keys,key_resp_3.rt,key_resp.keys,Feedback,train.thisRepN,train.thisTrialN,train.thisN,train.thisIndex,train.ran,torta_sx,torta_dx,difference,probability,age,gender,date,expName,psychopyVersion,OS,frameRate,participant,key_resp.rt,key_resp_15.keys,key_resp_15.rt,key_resp_6.keys,key_resp_6.rt,test1.thisRepN,test1.thisTrialN,test1.thisN,test1.thisIndex,test1.ran,key_resp_16.keys,key_resp_16.rt,key_resp_7.keys,key_resp_7.rt,test2.thisRepN,test2.thisTrialN,test2.thisN,test2.thisIndex,test2.ran,rating.response,rating.rt,mouse.x,mouse.y,mouse.leftButton,mouse.midButton,mouse.rightButton,mouse.clicked_name,mouse_2.x,mouse_2.y,mouse_2.leftButton,mouse_2.midButton,mouse_2.rightButton,mouse_2.clicked_name,mouse_3.x,mouse_3.y,mouse_3.leftButton,mouse_3.midButton,mouse_3.rightButton,mouse_3.clicked_name,key_resp_12.keys,key_resp_12.rt,key_resp_13.keys,key_resp_13.rt,key_resp_14.keys,key_resp_14.rt
space,1.87736,space,0.712745,space,4.430905,space,8.102655,space,5.832615,space,49.302895,,Too slow :(,0,0,0,93,1,t2.png,t4.png,2,0.059078,19,female,2020-10-17_15h15.40.160,torte-q,2020.1.3,Win32,60,13905,,,,,,,,,,,,,,,,,,,,,,,,,,,,,,,,,,,,,,,,,,,,,
,,,,,,,,,,,,,Too slow :(,0,1,1,83,1,t3.png,t1.png,2,0.056466,19,female,2020-10-17_15h15.40.160,torte-q,2020.1.3,Win32,60,13905,,,,,,,,,,,,,,,,,,,,,,,,,,,,,,,,,,,,,,,,,,,,,
,,,,,,,,,,,,l,Correct!,0,2,2,15,1,t3.png,t2.png,1,0.90855,19,female,2020-10-17_15h15.40.160,torte-q,2020.1.3,Win32,60,13905,0.830695,,,,,,,,,,,,,,,,,,,,,,,,,,,,,,,,,,,,,,,,,,,,
,,,,,,,,,,,,a,Incorrect,0,3,3,19,1,t4.png,t2.png,2,0.059078,19,female,2020-10-17_15h15.40.160,torte-q,2020.1.3,Win32,60,13905,0.59509,,,,,,,,,,,,,,,,,,,,,,,,,,,,,,,,,,,,,,,,,,,,
,,,,,,,,,,,,l,Correct!,0,4,4,1,1,t2.png,t4.png,2,0.059078,19,female,2020-10-17_15h15.40.160,torte-q,2020.1.3,Win32,60,13905,1.26264,,,,,,,,,,,,,,,,,,,,,,,,,,,,,,,,,,,,,,,,,,,,
,,,,,,,,,,,,l,Correct!,0,5,5,52,1,t2.png,t4.png,2,0.059078,19,female,2020-10-17_15h15.40.160,torte-q,2020.1.3,Win32,60,13905,1.648735,,,,,,,,,,,,,,,,,,,,,,,,,,,,,,,,,,,,,,,,,,,,
,,,,,,,,,,,,a,Correct!,0,6,6,81,1,t1.png,t1.png,0,0.97829,19,female,2020-10-17_15h15.40.160,torte-q,2020.1.3,Win32,60,13905,1.70312,,,,,,,,,,,,,,,,,,,,,,,,,,,,,,,,,,,,,,,,,,,,
,,,,,,,,,,,,a,Correct!,0,7,7,75,1,t1.png,t1.png,0,0.97829,19,female,2020-10-17_15h15.40.160,torte-q,2020.1.3,Win32,60,13905,1.134535,,,,,,,,,,,,,,,,,,,,,,,,,,,,,,,,,,,,,,,,,,,,
,,,,,,,,,,,,l,Correct!,0,8,8,54,1,t1.png,t5.png,4,9.55E-11,19,female,2020-10-17_15h15.40.160,torte-q,2020.1.3,Win32,60,13905,1.399135,,,,,,,,,,,,,,,,,,,,,,,,,,,,,,,,,,,,,,,,,,,,
,,,,,,,,,,,,l,Correct!,0,9,9,88,1,t3.png,t1.png,2,0.056466,19,female,2020-10-17_15h15.40.160,torte-q,2020.1.3,Win32,60,13905,1.437535,,,,,,,,,,,,,,,,,,,,,,,,,,,,,,,,,,,,,,,,,,,,
,,,,,,,,,,,,l,Correct!,0,10,10,35,1,t1.png,t4.png,3,0.0000131,19,female,2020-10-17_15h15.40.160,torte-q,2020.1.3,Win32,60,13905,1.263395,,,,,,,,,,,,,,,,,,,,,,,,,,,,,,,,,,,,,,,,,,,,
,,,,,,,,,,,,l,Correct!,0,11,11,119,1,t1.png,t5.png,4,9.55E-11,19,female,2020-10-17_15h15.40.160,torte-q,2020.1.3,Win32,60,13905,1.11801,,,,,,,,,,,,,,,,,,,,,,,,,,,,,,,,,,,,,,,,,,,,
,,,,,,,,,,,,l,Correct!,0,12,12,102,1,t4.png,t2.png,2,0.059078,19,female,2020-10-17_15h15.40.160,torte-q,2020.1.3,Win32,60,13905,0.84743,,,,,,,,,,,,,,,,,,,,,,,,,,,,,,,,,,,,,,,,,,,,
,,,,,,,,,,,,l,Incorrect,0,13,13,45,1,t3.png,t2.png,1,0.90855,19,female,2020-10-17_15h15.40.160,torte-q,2020.1.3,Win32,60,13905,0.85792,,,,,,,,,,,,,,,,,,,,,,,,,,,,,,,,,,,,,,,,,,,,
,,,,,,,,,,,,l,Incorrect,0,14,14,49,1,t4.png,t5.png,1,0.9,19,female,2020-10-17_15h15.40.160,torte-q,2020.1.3,Win32,60,13905,1.83075,,,,,,,,,,,,,,,,,,,,,,,,,,,,,,,,,,,,,,,,,,,,
,,,,,,,,,,,,a,Correct!,0,15,15,13,1,t5.png,t5.png,0,0.97829,19,female,2020-10-17_15h15.40.160,torte-q,2020.1.3,Win32,60,13905,1.185855,,,,,,,,,,,,,,,,,,,,,,,,,,,,,,,,,,,,,,,,,,,,
,,,,,,,,,,,,a,Incorrect,0,16,16,87,1,t5.png,t1.png,4,9.55E-11,19,female,2020-10-17_15h15.40.160,torte-q,2020.1.3,Win32,60,13905,1.795805,,,,,,,,,,,,,,,,,,,,,,,,,,,,,,,,,,,,,,,,,,,,
,,,,,,,,,,,,a,Correct!,0,17,17,112,1,t1.png,t1.png,0,0.97829,19,female,2020-10-17_15h15.40.160,torte-q,2020.1.3,Win32,60,13905,1.31519,,,,,,,,,,,,,,,,,,,,,,,,,,,,,,,,,,,,,,,,,,,,
,,,,,,,,,,,,l,Correct!,0,18,18,68,1,t1.png,t4.png,3,0.0000131,19,female,2020-10-17_15h15.40.160,torte-q,2020.1.3,Win32,60,13905,1.10101,,,,,,,,,,,,,,,,,,,,,,,,,,,,,,,,,,,,,,,,,,,,
,,,,,,,,,,,,a,Incorrect,0,19,19,47,1,t4.png,t2.png,2,0.059078,19,female,2020-10-17_15h15.40.160,torte-q,2020.1.3,Win32,60,13905,1.634215,,,,,,,,,,,,,,,,,,,,,,,,,,,,,,,,,,,,,,,,,,,,
,,,,,,,,,,,,l,Correct!,0,20,20,80,1,t1.png,t4.png,3,0.0000131,19,female,2020-10-17_15h15.40.160,torte-q,2020.1.3,Win32,60,13905,1.513195,,,,,,,,,,,,,,,,,,,,,,,,,,,,,,,,,,,,,,,,,,,,
,,,,,,,,,,,,l,Incorrect,0,21,21,110,1,t4.png,t5.png,1,0.90025,19,female,2020-10-17_15h15.40.160,torte-q,2020.1.3,Win32,60,13905,1.635455,,,,,,,,,,,,,,,,,,,,,,,,,,,,,,,,,,,,,,,,,,,,
,,,,,,,,,,,,a,Incorrect,0,22,22,73,1,t4.png,t2.png,2,0.059078,19,female,2020-10-17_15h15.40.160,torte-q,2020.1.3,Win32,60,13905,1.11333,,,,,,,,,,,,,,,,,,,,,,,,,,,,,,,,,,,,,,,,,,,,
,,,,,,,,,,,,l,Correct!,0,23,23,57,1,t2.png,t4.png,2,0.059078,19,female,2020-10-17_15h15.40.160,torte-q,2020.1.3,Win32,60,13905,0.856615,,,,,,,,,,,,,,,,,,,,,,,,,,,,,,,,,,,,,,,,,,,,
,,,,,,,,,,,,a,Correct!,0,24,24,77,1,t1.png,t1.png,0,0.97829,19,female,2020-10-17_15h15.40.160,torte-q,2020.1.3,Win32,60,13905,0.7466,,,,,,,,,,,,,,,,,,,,,,,,,,,,,,,,,,,,,,,,,,,,
,,,,,,,,,,,,l,Correct!,0,25,25,31,1,t1.png,t5.png,4,9.55E-11,19,female,2020-10-17_15h15.40.160,torte-q,2020.1.3,Win32,60,13905,1.005665,,,,,,,,,,,,,,,,,,,,,,,,,,,,,,,,,,,,,,,,,,,,
,,,,,,,,,,,,a,Incorrect,0,26,26,82,1,t5.png,t1.png,4,9.55E-11,19,female,2020-10-17_15h15.40.160,torte-q,2020.1.3,Win32,60,13905,1.091125,,,,,,,,,,,,,,,,,,,,,,,,,,,,,,,,,,,,,,,,,,,,
,,,,,,,,,,,,l,Correct!,0,27,27,24,1,t4.png,t2.png,2,0.059078,19,female,2020-10-17_15h15.40.160,torte-q,2020.1.3,Win32,60,13905,0.947265,,,,,,,,,,,,,,,,,,,,,,,,,,,,,,,,,,,,,,,,,,,,
,,,,,,,,,,,,a,Incorrect,0,28,28,89,1,t1.png,t4.png,3,0.0000131,19,female,2020-10-17_15h15.40.160,torte-q,2020.1.3,Win32,60,13905,0.622875,,,,,,,,,,,,,,,,,,,,,,,,,,,,,,,,,,,,,,,,,,,,
,,,,,,,,,,,,l,Incorrect,0,29,29,66,1,t4.png,t5.png,1,0.9,19,female,2020-10-17_15h15.40.160,torte-q,2020.1.3,Win32,60,13905,0.783935,,,,,,,,,,,,,,,,,,,,,,,,,,,,,,,,,,,,,,,,,,,,
,,,,,,,,,,,,a,Correct!,0,30,30,65,1,t4.png,t5.png,1,0.90025,19,female,2020-10-17_15h15.40.160,torte-q,2020.1.3,Win32,60,13905,1.238485,,,,,,,,,,,,,,,,,,,,,,,,,,,,,,,,,,,,,,,,,,,,
,,,,,,,,,,,,l,Incorrect,0,31,31,71,1,t5.png,t5.png,0,0.97829,19,female,2020-10-17_15h15.40.160,torte-q,2020.1.3,Win32,60,13905,1.102835,,,,,,,,,,,,,,,,,,,,,,,,,,,,,,,,,,,,,,,,,,,,
,,,,,,,,,,,,a,Incorrect,0,32,32,30,1,t3.png,t1.png,2,0.056466,19,female,2020-10-17_15h15.40.160,torte-q,2020.1.3,Win32,60,13905,1.00757,,,,,,,,,,,,,,,,,,,,,,,,,,,,,,,,,,,,,,,,,,,,
,,,,,,,,,,,,l,Incorrect,0,33,33,32,1,t4.png,t5.png,1,0.90025,19,female,2020-10-17_15h15.40.160,torte-q,2020.1.3,Win32,60,13905,0.94789,,,,,,,,,,,,,,,,,,,,,,,,,,,,,,,,,,,,,,,,,,,,
,,,,,,,,,,,,a,Incorrect,0,34,34,50,1,t5.png,t1.png,4,9.55E-11,19,female,2020-10-17_15h15.40.160,torte-q,2020.1.3,Win32,60,13905,1.59765,,,,,,,,,,,,,,,,,,,,,,,,,,,,,,,,,,,,,,,,,,,,
,,,,,,,,,,,,a,Correct!,0,35,35,96,1,t1.png,t1.png,0,0.97829,19,female,2020-10-17_15h15.40.160,torte-q,2020.1.3,Win32,60,13905,1.246455,,,,,,,,,,,,,,,,,,,,,,,,,,,,,,,,,,,,,,,,,,,,
,,,,,,,,,,,,l,Incorrect,0,36,36,41,1,t3.png,t2.png,1,0.90855,19,female,2020-10-17_15h15.40.160,torte-q,2020.1.3,Win32,60,13905,1.006495,,,,,,,,,,,,,,,,,,,,,,,,,,,,,,,,,,,,,,,,,,,,
,,,,,,,,,,,,a,Incorrect,0,37,37,44,1,t2.png,t3.png,1,0.909,19,female,2020-10-17_15h15.40.160,torte-q,2020.1.3,Win32,60,13905,0.43101,,,,,,,,,,,,,,,,,,,,,,,,,,,,,,,,,,,,,,,,,,,,
,,,,,,,,,,,,l,Incorrect,0,38,38,48,1,t5.png,t5.png,0,0.97829,19,female,2020-10-17_15h15.40.160,torte-q,2020.1.3,Win32,60,13905,1.092285,,,,,,,,,,,,,,,,,,,,,,,,,,,,,,,,,,,,,,,,,,,,
,,,,,,,,,,,,a,Correct!,0,39,39,39,1,t3.png,t2.png,1,0.90855,19,female,2020-10-17_15h15.40.160,torte-q,2020.1.3,Win32,60,13905,0.806635,,,,,,,,,,,,,,,,,,,,,,,,,,,,,,,,,,,,,,,,,,,,
,,,,,,,,,,,,l,Incorrect,0,40,40,10,1,t2.png,t3.png,1,0.90855,19,female,2020-10-17_15h15.40.160,torte-q,2020.1.3,Win32,60,13905,1.380585,,,,,,,,,,,,,,,,,,,,,,,,,,,,,,,,,,,,,,,,,,,,
,,,,,,,,,,,,l,Correct!,0,41,41,4,1,t1.png,t5.png,4,9.55E-11,19,female,2020-10-17_15h15.40.160,torte-q,2020.1.3,Win32,60,13905,1.14765,,,,,,,,,,,,,,,,,,,,,,,,,,,,,,,,,,,,,,,,,,,,
,,,,,,,,,,,,a,Incorrect,0,42,42,117,1,t1.png,t5.png,4,9.55E-11,19,female,2020-10-17_15h15.40.160,torte-q,2020.1.3,Win32,60,13905,0.997525,,,,,,,,,,,,,,,,,,,,,,,,,,,,,,,,,,,,,,,,,,,,
,,,,,,,,,,,,a,Incorrect,0,43,43,115,1,t2.png,t4.png,2,0.059078,19,female,2020-10-17_15h15.40.160,torte-q,2020.1.3,Win32,60,13905,2.16342,,,,,,,,,,,,,,,,,,,,,,,,,,,,,,,,,,,,,,,,,,,,
,,,,,,,,,,,,l,Correct!,0,44,44,3,1,t1.png,t5.png,4,9.55E-11,19,female,2020-10-17_15h15.40.160,torte-q,2020.1.3,Win32,60,13905,0.690995,,,,,,,,,,,,,,,,,,,,,,,,,,,,,,,,,,,,,,,,,,,,
,,,,,,,,,,,,l,Correct!,0,45,45,72,1,t4.png,t2.png,2,0.059078,19,female,2020-10-17_15h15.40.160,torte-q,2020.1.3,Win32,60,13905,1.463385,,,,,,,,,,,,,,,,,,,,,,,,,,,,,,,,,,,,,,,,,,,,
,,,,,,,,,,,,l,Correct!,0,46,46,69,1,t4.png,t2.png,2,0.059078,19,female,2020-10-17_15h15.40.160,torte-q,2020.1.3,Win32,60,13905,0.954255,,,,,,,,,,,,,,,,,,,,,,,,,,,,,,,,,,,,,,,,,,,,
,,,,,,,,,,,,a,Correct!,0,47,47,59,1,t5.png,t4.png,1,0.9,19,female,2020-10-17_15h15.40.160,torte-q,2020.1.3,Win32,60,13905,1.297125,,,,,,,,,,,,,,,,,,,,,,,,,,,,,,,,,,,,,,,,,,,,
,,,,,,,,,,,,l,Correct!,0,48,48,27,1,t3.png,t1.png,2,0.0565,19,female,2020-10-17_15h15.40.160,torte-q,2020.1.3,Win32,60,13905,0.635045,,,,,,,,,,,,,,,,,,,,,,,,,,,,,,,,,,,,,,,,,,,,
,,,,,,,,,,,,a,Correct!,0,49,49,74,1,t5.png,t4.png,1,0.9,19,female,2020-10-17_15h15.40.160,torte-q,2020.1.3,Win32,60,13905,0.90204,,,,,,,,,,,,,,,,,,,,,,,,,,,,,,,,,,,,,,,,,,,,
,,,,,,,,,,,,l,Incorrect,0,50,50,9,1,t4.png,t5.png,1,0.9,19,female,2020-10-17_15h15.40.160,torte-q,2020.1.3,Win32,60,13905,1.129975,,,,,,,,,,,,,,,,,,,,,,,,,,,,,,,,,,,,,,,,,,,,
,,,,,,,,,,,,a,Correct!,0,51,51,7,1,t4.png,t5.png,1,0.90025,19,female,2020-10-17_15h15.40.160,torte-q,2020.1.3,Win32,60,13905,0.86309,,,,,,,,,,,,,,,,,,,,,,,,,,,,,,,,,,,,,,,,,,,,
,,,,,,,,,,,,l,Correct!,0,52,52,84,1,t1.png,t1.png,0,0.97829,19,female,2020-10-17_15h15.40.160,torte-q,2020.1.3,Win32,60,13905,0.75256,,,,,,,,,,,,,,,,,,,,,,,,,,,,,,,,,,,,,,,,,,,,
,,,,,,,,,,,,a,Correct!,0,53,53,16,1,t5.png,t4.png,1,0.9,19,female,2020-10-17_15h15.40.160,torte-q,2020.1.3,Win32,60,13905,0.896765,,,,,,,,,,,,,,,,,,,,,,,,,,,,,,,,,,,,,,,,,,,,
,,,,,,,,,,,,l,Correct!,0,54,54,12,1,t5.png,t1.png,4,9.55E-11,19,female,2020-10-17_15h15.40.160,torte-q,2020.1.3,Win32,60,13905,1.1143,,,,,,,,,,,,,,,,,,,,,,,,,,,,,,,,,,,,,,,,,,,,
,,,,,,,,,,,,l,Correct!,0,55,55,40,1,t1.png,t5.png,4,9.55E-11,19,female,2020-10-17_15h15.40.160,torte-q,2020.1.3,Win32,60,13905,1.279245,,,,,,,,,,,,,,,,,,,,,,,,,,,,,,,,,,,,,,,,,,,,
,,,,,,,,,,,,a,Correct!,0,56,56,113,1,t5.png,t4.png,1,0.9,19,female,2020-10-17_15h15.40.160,torte-q,2020.1.3,Win32,60,13905,1.08714,,,,,,,,,,,,,,,,,,,,,,,,,,,,,,,,,,,,,,,,,,,,
,,,,,,,,,,,,l,Correct!,0,57,57,94,1,t5.png,t1.png,4,9.55E-11,19,female,2020-10-17_15h15.40.160,torte-q,2020.1.3,Win32,60,13905,1.08018,,,,,,,,,,,,,,,,,,,,,,,,,,,,,,,,,,,,,,,,,,,,
,,,,,,,,,,,,a,Incorrect,0,58,58,26,1,t4.png,t2.png,2,0.0591,19,female,2020-10-17_15h15.40.160,torte-q,2020.1.3,Win32,60,13905,0.85067,,,,,,,,,,,,,,,,,,,,,,,,,,,,,,,,,,,,,,,,,,,,
,,,,,,,,,,,,l,Correct!,0,59,59,17,1,t1.png,t4.png,3,0.0000131,19,female,2020-10-17_15h15.40.160,torte-q,2020.1.3,Win32,60,13905,0.881695,,,,,,,,,,,,,,,,,,,,,,,,,,,,,,,,,,,,,,,,,,,,
,,,,,,,,,,,,a,Incorrect,0,60,60,33,1,t5.png,t1.png,4,9.55E-11,19,female,2020-10-17_15h15.40.160,torte-q,2020.1.3,Win32,60,13905,1.684995,,,,,,,,,,,,,,,,,,,,,,,,,,,,,,,,,,,,,,,,,,,,
,,,,,,,,,,,,a,Incorrect,0,61,61,108,1,t5.png,t1.png,4,9.55E-11,19,female,2020-10-17_15h15.40.160,torte-q,2020.1.3,Win32,60,13905,1.152545,,,,,,,,,,,,,,,,,,,,,,,,,,,,,,,,,,,,,,,,,,,,
,,,,,,,,,,,,l,Correct!,0,62,62,99,1,t1.png,t5.png,4,9.55E-11,19,female,2020-10-17_15h15.40.160,torte-q,2020.1.3,Win32,60,13905,0.68074,,,,,,,,,,,,,,,,,,,,,,,,,,,,,,,,,,,,,,,,,,,,
,,,,,,,,,,,,a,Correct!,0,63,63,114,1,t2.png,t3.png,1,0.90855,19,female,2020-10-17_15h15.40.160,torte-q,2020.1.3,Win32,60,13905,0.802025,,,,,,,,,,,,,,,,,,,,,,,,,,,,,,,,,,,,,,,,,,,,
,,,,,,,,,,,,l,Incorrect,0,64,64,42,1,t5.png,t4.png,1,0.90025,19,female,2020-10-17_15h15.40.160,torte-q,2020.1.3,Win32,60,13905,0.900475,,,,,,,,,,,,,,,,,,,,,,,,,,,,,,,,,,,,,,,,,,,,
,,,,,,,,,,,,a,Incorrect,0,65,65,51,1,t3.png,t1.png,2,0.056466,19,female,2020-10-17_15h15.40.160,torte-q,2020.1.3,Win32,60,13905,0.765835,,,,,,,,,,,,,,,,,,,,,,,,,,,,,,,,,,,,,,,,,,,,
,,,,,,,,,,,,l,Incorrect,0,66,66,116,1,t5.png,t4.png,1,0.90025,19,female,2020-10-17_15h15.40.160,torte-q,2020.1.3,Win32,60,13905,1.52102,,,,,,,,,,,,,,,,,,,,,,,,,,,,,,,,,,,,,,,,,,,,
,,,,,,,,,,,,a,Incorrect,0,67,67,86,1,t3.png,t1.png,2,0.056466,19,female,2020-10-17_15h15.40.160,torte-q,2020.1.3,Win32,60,13905,0.686285,,,,,,,,,,,,,,,,,,,,,,,,,,,,,,,,,,,,,,,,,,,,
,,,,,,,,,,,,l,Incorrect,0,68,68,95,1,t1.png,t1.png,0,0.978,19,female,2020-10-17_15h15.40.160,torte-q,2020.1.3,Win32,60,13905,1.184405,,,,,,,,,,,,,,,,,,,,,,,,,,,,,,,,,,,,,,,,,,,,
,,,,,,,,,,,,a,Correct!,0,69,69,106,1,t2.png,t3.png,1,0.90855,19,female,2020-10-17_15h15.40.160,torte-q,2020.1.3,Win32,60,13905,0.71402,,,,,,,,,,,,,,,,,,,,,,,,,,,,,,,,,,,,,,,,,,,,
,,,,,,,,,,,,l,Correct!,0,70,70,37,1,t1.png,t4.png,3,0.0000131,19,female,2020-10-17_15h15.40.160,torte-q,2020.1.3,Win32,60,13905,0.97914,,,,,,,,,,,,,,,,,,,,,,,,,,,,,,,,,,,,,,,,,,,,
,,,,,,,,,,,,a,Correct!,0,71,71,2,1,t3.png,t2.png,1,0.90855,19,female,2020-10-17_15h15.40.160,torte-q,2020.1.3,Win32,60,13905,1.819675,,,,,,,,,,,,,,,,,,,,,,,,,,,,,,,,,,,,,,,,,,,,
,,,,,,,,,,,,a,Correct!,0,72,72,76,1,t3.png,t2.png,1,0.90855,19,female,2020-10-17_15h15.40.160,torte-q,2020.1.3,Win32,60,13905,1.39485,,,,,,,,,,,,,,,,,,,,,,,,,,,,,,,,,,,,,,,,,,,,
,,,,,,,,,,,,a,Correct!,0,73,73,104,1,t2.png,t3.png,1,0.90855,19,female,2020-10-17_15h15.40.160,torte-q,2020.1.3,Win32,60,13905,1.797615,,,,,,,,,,,,,,,,,,,,,,,,,,,,,,,,,,,,,,,,,,,,
,,,,,,,,,,,,l,Correct!,0,74,74,56,1,t5.png,t1.png,4,9.55E-11,19,female,2020-10-17_15h15.40.160,torte-q,2020.1.3,Win32,60,13905,0.851915,,,,,,,,,,,,,,,,,,,,,,,,,,,,,,,,,,,,,,,,,,,,
,,,,,,,,,,,,a,Incorrect,0,75,75,61,1,t1.png,t4.png,3,0.0000131,19,female,2020-10-17_15h15.40.160,torte-q,2020.1.3,Win32,60,13905,1.981125,,,,,,,,,,,,,,,,,,,,,,,,,,,,,,,,,,,,,,,,,,,,
,,,,,,,,,,,,a,Incorrect,0,76,76,38,1,t3.png,t1.png,2,0.056466,19,female,2020-10-17_15h15.40.160,torte-q,2020.1.3,Win32,60,13905,1.25231,,,,,,,,,,,,,,,,,,,,,,,,,,,,,,,,,,,,,,,,,,,,
,,,,,,,,,,,,l,Correct!,0,77,77,103,1,t3.png,t1.png,2,0.056466,19,female,2020-10-17_15h15.40.160,torte-q,2020.1.3,Win32,60,13905,0.7363,,,,,,,,,,,,,,,,,,,,,,,,,,,,,,,,,,,,,,,,,,,,
,,,,,,,,,,,,l,Correct!,0,78,78,111,1,t5.png,t1.png,4,9.55E-11,19,female,2020-10-17_15h15.40.160,torte-q,2020.1.3,Win32,60,13905,1.40108,,,,,,,,,,,,,,,,,,,,,,,,,,,,,,,,,,,,,,,,,,,,
,,,,,,,,,,,,a,Correct!,0,79,79,79,1,t3.png,t2.png,1,0.909,19,female,2020-10-17_15h15.40.160,torte-q,2020.1.3,Win32,60,13905,1.397905,,,,,,,,,,,,,,,,,,,,,,,,,,,,,,,,,,,,,,,,,,,,
,,,,,,,,,,,,l,Correct!,0,80,80,60,1,t2.png,t4.png,2,0.059078,19,female,2020-10-17_15h15.40.160,torte-q,2020.1.3,Win32,60,13905,1.866055,,,,,,,,,,,,,,,,,,,,,,,,,,,,,,,,,,,,,,,,,,,,
,,,,,,,,,,,,a,Correct!,0,81,81,29,1,t5.png,t5.png,0,0.97829,19,female,2020-10-17_15h15.40.160,torte-q,2020.1.3,Win32,60,13905,0.89091,,,,,,,,,,,,,,,,,,,,,,,,,,,,,,,,,,,,,,,,,,,,
,,,,,,,,,,,,a,Correct!,0,82,82,109,1,t5.png,t5.png,0,0.97829,19,female,2020-10-17_15h15.40.160,torte-q,2020.1.3,Win32,60,13905,0.93442,,,,,,,,,,,,,,,,,,,,,,,,,,,,,,,,,,,,,,,,,,,,
,,,,,,,,,,,,l,Incorrect,0,83,83,34,1,t5.png,t4.png,1,0.9,19,female,2020-10-17_15h15.40.160,torte-q,2020.1.3,Win32,60,13905,1.114645,,,,,,,,,,,,,,,,,,,,,,,,,,,,,,,,,,,,,,,,,,,,
,,,,,,,,,,,,a,Correct!,0,84,84,92,1,t2.png,t3.png,1,0.909,19,female,2020-10-17_15h15.40.160,torte-q,2020.1.3,Win32,60,13905,0.920195,,,,,,,,,,,,,,,,,,,,,,,,,,,,,,,,,,,,,,,,,,,,
,,,,,,,,,,,,a,Incorrect,0,85,85,5,1,t2.png,t4.png,2,0.059078,19,female,2020-10-17_15h15.40.160,torte-q,2020.1.3,Win32,60,13905,1.095405,,,,,,,,,,,,,,,,,,,,,,,,,,,,,,,,,,,,,,,,,,,,
,,,,,,,,,,,,a,Correct!,0,86,86,97,1,t5.png,t5.png,0,0.97829,19,female,2020-10-17_15h15.40.160,torte-q,2020.1.3,Win32,60,13905,1.70482,,,,,,,,,,,,,,,,,,,,,,,,,,,,,,,,,,,,,,,,,,,,
,,,,,,,,,,,,l,Incorrect,0,87,87,20,1,t2.png,t3.png,1,0.90855,19,female,2020-10-17_15h15.40.160,torte-q,2020.1.3,Win32,60,13905,0.75213,,,,,,,,,,,,,,,,,,,,,,,,,,,,,,,,,,,,,,,,,,,,
,,,,,,,,,,,,a,Correct!,0,88,88,25,1,t5.png,t5.png,0,0.97829,19,female,2020-10-17_15h15.40.160,torte-q,2020.1.3,Win32,60,13905,0.936905,,,,,,,,,,,,,,,,,,,,,,,,,,,,,,,,,,,,,,,,,,,,
,,,,,,,,,,,,a,Incorrect,0,89,89,67,1,t1.png,t5.png,4,9.55E-11,19,female,2020-10-17_15h15.40.160,torte-q,2020.1.3,Win32,60,13905,1.05194,,,,,,,,,,,,,,,,,,,,,,,,,,,,,,,,,,,,,,,,,,,,
,,,,,,,,,,,,l,Incorrect,0,90,90,100,1,t4.png,t5.png,1,0.90025,19,female,2020-10-17_15h15.40.160,torte-q,2020.1.3,Win32,60,13905,1.314005,,,,,,,,,,,,,,,,,,,,,,,,,,,,,,,,,,,,,,,,,,,,
,,,,,,,,,,,,a,Correct!,0,91,91,85,1,t3.png,t2.png,1,0.90855,19,female,2020-10-17_15h15.40.160,torte-q,2020.1.3,Win32,60,13905,0.513555,,,,,,,,,,,,,,,,,,,,,,,,,,,,,,,,,,,,,,,,,,,,
,,,,,,,,,,,,a,Correct!,0,92,92,23,1,t5.png,t4.png,1,0.90025,19,female,2020-10-17_15h15.40.160,torte-q,2020.1.3,Win32,60,13905,1.721065,,,,,,,,,,,,,,,,,,,,,,,,,,,,,,,,,,,,,,,,,,,,
,,,,,,,,,,,,a,Correct!,0,93,93,63,1,t2.png,t3.png,1,0.909,19,female,2020-10-17_15h15.40.160,torte-q,2020.1.3,Win32,60,13905,1.46408,,,,,,,,,,,,,,,,,,,,,,,,,,,,,,,,,,,,,,,,,,,,
,,,,,,,,,,,,l,Correct!,0,94,94,11,1,t1.png,t4.png,3,0.0000131,19,female,2020-10-17_15h15.40.160,torte-q,2020.1.3,Win32,60,13905,1.540125,,,,,,,,,,,,,,,,,,,,,,,,,,,,,,,,,,,,,,,,,,,,
,,,,,,,,,,,,a,Correct!,0,95,95,118,1,t5.png,t5.png,0,0.978,19,female,2020-10-17_15h15.40.160,torte-q,2020.1.3,Win32,60,13905,0.858125,,,,,,,,,,,,,,,,,,,,,,,,,,,,,,,,,,,,,,,,,,,,
,,,,,,,,,,,,a,Correct!,0,96,96,22,1,t2.png,t3.png,1,0.90855,19,female,2020-10-17_15h15.40.160,torte-q,2020.1.3,Win32,60,13905,1.413455,,,,,,,,,,,,,,,,,,,,,,,,,,,,,,,,,,,,,,,,,,,,
,,,,,,,,,,,,l,Correct!,0,97,97,14,1,t2.png,t4.png,2,0.059078,19,female,2020-10-17_15h15.40.160,torte-q,2020.1.3,Win32,60,13905,0.899155,,,,,,,,,,,,,,,,,,,,,,,,,,,,,,,,,,,,,,,,,,,,
,,,,,,,,,,,,a,Incorrect,0,98,98,53,1,t3.png,t1.png,2,0.056466,19,female,2020-10-17_15h15.40.160,torte-q,2020.1.3,Win32,60,13905,0.846605,,,,,,,,,,,,,,,,,,,,,,,,,,,,,,,,,,,,,,,,,,,,
,,,,,,,,,,,,l,Correct!,0,99,99,0,1,t5.png,t1.png,4,9.55E-11,19,female,2020-10-17_15h15.40.160,torte-q,2020.1.3,Win32,60,13905,1.205175,,,,,,,,,,,,,,,,,,,,,,,,,,,,,,,,,,,,,,,,,,,,
,,,,,,,,,,,,a,Incorrect,0,100,100,91,1,t1.png,t4.png,3,0.0000131,19,female,2020-10-17_15h15.40.160,torte-q,2020.1.3,Win32,60,13905,1.74591,,,,,,,,,,,,,,,,,,,,,,,,,,,,,,,,,,,,,,,,,,,,
,,,,,,,,,,,,l,Incorrect,0,101,101,101,1,t4.png,t5.png,1,0.90025,19,female,2020-10-17_15h15.40.160,torte-q,2020.1.3,Win32,60,13905,1.31381,,,,,,,,,,,,,,,,,,,,,,,,,,,,,,,,,,,,,,,,,,,,
,,,,,,,,,,,,a,Correct!,0,102,102,21,1,t5.png,t4.png,1,0.90025,19,female,2020-10-17_15h15.40.160,torte-q,2020.1.3,Win32,60,13905,0.62227,,,,,,,,,,,,,,,,,,,,,,,,,,,,,,,,,,,,,,,,,,,,
,,,,,,,,,,,,a,Correct!,0,103,103,62,1,t5.png,t5.png,0,0.978,19,female,2020-10-17_15h15.40.160,torte-q,2020.1.3,Win32,60,13905,0.816885,,,,,,,,,,,,,,,,,,,,,,,,,,,,,,,,,,,,,,,,,,,,
,,,,,,,,,,,,l,Incorrect,0,104,104,18,1,t4.png,t5.png,1,0.90025,19,female,2020-10-17_15h15.40.160,torte-q,2020.1.3,Win32,60,13905,1.646135,,,,,,,,,,,,,,,,,,,,,,,,,,,,,,,,,,,,,,,,,,,,
,,,,,,,,,,,,a,Incorrect,0,105,105,98,1,t2.png,t4.png,2,0.0591,19,female,2020-10-17_15h15.40.160,torte-q,2020.1.3,Win32,60,13905,0.65637,,,,,,,,,,,,,,,,,,,,,,,,,,,,,,,,,,,,,,,,,,,,
,,,,,,,,,,,,l,Correct!,0,106,106,43,1,t4.png,t2.png,2,0.059078,19,female,2020-10-17_15h15.40.160,torte-q,2020.1.3,Win32,60,13905,1.11563,,,,,,,,,,,,,,,,,,,,,,,,,,,,,,,,,,,,,,,,,,,,
,,,,,,,,,,,,a,Correct!,0,107,107,64,1,t1.png,t1.png,0,0.978,19,female,2020-10-17_15h15.40.160,torte-q,2020.1.3,Win32,60,13905,1.114315,,,,,,,,,,,,,,,,,,,,,,,,,,,,,,,,,,,,,,,,,,,,
,,,,,,,,,,,,a,Incorrect,0,108,108,90,1,t1.png,t5.png,4,9.55E-11,19,female,2020-10-17_15h15.40.160,torte-q,2020.1.3,Win32,60,13905,2.24642,,,,,,,,,,,,,,,,,,,,,,,,,,,,,,,,,,,,,,,,,,,,
,,,,,,,,,,,,a,Correct!,0,109,109,78,1,t1.png,t1.png,0,0.978,19,female,2020-10-17_15h15.40.160,torte-q,2020.1.3,Win32,60,13905,1.750465,,,,,,,,,,,,,,,,,,,,,,,,,,,,,,,,,,,,,,,,,,,,
,,,,,,,,,,,,l,Correct!,0,110,110,46,1,t4.png,t2.png,2,0.059078,19,female,2020-10-17_15h15.40.160,torte-q,2020.1.3,Win32,60,13905,0.79829,,,,,,,,,,,,,,,,,,,,,,,,,,,,,,,,,,,,,,,,,,,,
,,,,,,,,,,,,l,Incorrect,0,111,111,58,1,t5.png,t4.png,1,0.90025,19,female,2020-10-17_15h15.40.160,torte-q,2020.1.3,Win32,60,13905,1.613475,,,,,,,,,,,,,,,,,,,,,,,,,,,,,,,,,,,,,,,,,,,,
,,,,,,,,,,,,a,Incorrect,0,112,112,55,1,t2.png,t4.png,2,0.059078,19,female,2020-10-17_15h15.40.160,torte-q,2020.1.3,Win32,60,13905,0.780205,,,,,,,,,,,,,,,,,,,,,,,,,,,,,,,,,,,,,,,,,,,,
,,,,,,,,,,,,l,Correct!,0,113,113,6,1,t1.png,t4.png,3,0.0000131,19,female,2020-10-17_15h15.40.160,torte-q,2020.1.3,Win32,60,13905,1.186185,,,,,,,,,,,,,,,,,,,,,,,,,,,,,,,,,,,,,,,,,,,,
,,,,,,,,,,,,a,Correct!,0,114,114,70,1,t5.png,t5.png,0,0.978,19,female,2020-10-17_15h15.40.160,torte-q,2020.1.3,Win32,60,13905,0.77784,,,,,,,,,,,,,,,,,,,,,,,,,,,,,,,,,,,,,,,,,,,,
,,,,,,,,,,,,a,Incorrect,0,115,115,36,1,t3.png,t1.png,2,0.0565,19,female,2020-10-17_15h15.40.160,torte-q,2020.1.3,Win32,60,13905,0.924235,,,,,,,,,,,,,,,,,,,,,,,,,,,,,,,,,,,,,,,,,,,,
,,,,,,,,,,,,a,Correct!,0,116,116,107,1,t1.png,t1.png,0,0.978,19,female,2020-10-17_15h15.40.160,torte-q,2020.1.3,Win32,60,13905,1.04517,,,,,,,,,,,,,,,,,,,,,,,,,,,,,,,,,,,,,,,,,,,,
,,,,,,,,,,,,a,Correct!,0,117,117,8,1,t3.png,t2.png,1,0.90855,19,female,2020-10-17_15h15.40.160,torte-q,2020.1.3,Win32,60,13905,1.857805,,,,,,,,,,,,,,,,,,,,,,,,,,,,,,,,,,,,,,,,,,,,
,,,,,,,,,,,,l,Incorrect,0,118,118,105,1,t3.png,t2.png,1,0.90855,19,female,2020-10-17_15h15.40.160,torte-q,2020.1.3,Win32,60,13905,0.959255,,,,,,,,,,,,,,,,,,,,,,,,,,,,,,,,,,,,,,,,,,,,
,,,,,,,,,,,,a,Correct!,0,119,119,28,1,t2.png,t3.png,1,0.909,19,female,2020-10-17_15h15.40.160,torte-q,2020.1.3,Win32,60,13905,1.98576,,,,,,,,,,,,,,,,,,,,,,,,,,,,,,,,,,,,,,,,,,,,
,,,,,,,,,,,,a,Incorrect,,,,,,t2.png,t5.png,3,0.0000131,19,female,2020-10-17_15h15.40.160,torte-q,2020.1.3,Win32,60,13905,0.76942,space,2.784155,space,37.430705,0,0,0,95,1,,,,,,,,,,,,,,,,,,,,,,,,,,,,,,,,,,,
,,,,,,,,,,,,a,Correct!,,,,,,t5.png,t5.png,0,0.97829,19,female,2020-10-17_15h15.40.160,torte-q,2020.1.3,Win32,60,13905,2.13043,,,,,0,1,1,94,1,,,,,,,,,,,,,,,,,,,,,,,,,,,,,,,,,,,
,,,,,,,,,,,,l,Correct!,,,,,,t5.png,t4.png,1,0.90025,19,female,2020-10-17_15h15.40.160,torte-q,2020.1.3,Win32,60,13905,1.01269,,,,,0,2,2,34,1,,,,,,,,,,,,,,,,,,,,,,,,,,,,,,,,,,,
,,,,,,,,,,,,a,Incorrect,,,,,,t1.png,t4.png,3,0.0000131,19,female,2020-10-17_15h15.40.160,torte-q,2020.1.3,Win32,60,13905,1.79953,,,,,0,3,3,17,1,,,,,,,,,,,,,,,,,,,,,,,,,,,,,,,,,,,
,,,,,,,,,,,,l,Correct!,,,,,,t5.png,t2.png,3,0.0000131,19,female,2020-10-17_15h15.40.160,torte-q,2020.1.3,Win32,60,13905,1.266255,,,,,0,4,4,91,1,,,,,,,,,,,,,,,,,,,,,,,,,,,,,,,,,,,
,,,,,,,,,,,,a,Incorrect,,,,,,t3.png,t5.png,2,0.056466,19,female,2020-10-17_15h15.40.160,torte-q,2020.1.3,Win32,60,13905,1.99635,,,,,0,5,5,6,1,,,,,,,,,,,,,,,,,,,,,,,,,,,,,,,,,,,
,,,,,,,,,,,,a,Correct!,,,,,,t5.png,t4.png,1,0.9,19,female,2020-10-17_15h15.40.160,torte-q,2020.1.3,Win32,60,13905,1.846515,,,,,0,6,6,49,1,,,,,,,,,,,,,,,,,,,,,,,,,,,,,,,,,,,
,,,,,,,,,,,,a,Correct!,,,,,,t2.png,t2.png,0,0.98115,19,female,2020-10-17_15h15.40.160,torte-q,2020.1.3,Win32,60,13905,1.67995,,,,,0,7,7,59,1,,,,,,,,,,,,,,,,,,,,,,,,,,,,,,,,,,,
,,,,,,,,,,,,a,Incorrect,,,,,,t4.png,t4.png,0,0.98115,19,female,2020-10-17_15h15.40.160,torte-q,2020.1.3,Win32,60,13905,2.02273,,,,,0,8,8,80,1,,,,,,,,,,,,,,,,,,,,,,,,,,,,,,,,,,,
,,,,,,,,,,,,l,Correct!,,,,,,t3.png,t1.png,2,0.056466,19,female,2020-10-17_15h15.40.160,torte-q,2020.1.3,Win32,60,13905,1.430125,,,,,0,9,9,29,1,,,,,,,,,,,,,,,,,,,,,,,,,,,,,,,,,,,
,,,,,,,,,,,,l,Incorrect,,,,,,t3.png,t2.png,1,0.90855,19,female,2020-10-17_15h15.40.160,torte-q,2020.1.3,Win32,60,13905,1.229115,,,,,0,10,10,53,1,,,,,,,,,,,,,,,,,,,,,,,,,,,,,,,,,,,
,,,,,,,,,,,,a,Correct!,,,,,,t1.png,t2.png,1,0.90025,19,female,2020-10-17_15h15.40.160,torte-q,2020.1.3,Win32,60,13905,1.004785,,,,,0,11,11,33,1,,,,,,,,,,,,,,,,,,,,,,,,,,,,,,,,,,,
,,,,,,,,,,,,l,Incorrect,,,,,,t4.png,t3.png,1,0.909,19,female,2020-10-17_15h15.40.160,torte-q,2020.1.3,Win32,60,13905,1.397195,,,,,0,12,12,20,1,,,,,,,,,,,,,,,,,,,,,,,,,,,,,,,,,,,
,,,,,,,,,,,,,Too slow :(,,,,,,t4.png,t5.png,1,0.90025,19,female,2020-10-17_15h15.40.160,torte-q,2020.1.3,Win32,60,13905,,,,,,0,13,13,113,1,,,,,,,,,,,,,,,,,,,,,,,,,,,,,,,,,,,
,,,,,,,,,,,,a,Incorrect,,,,,,t5.png,t2.png,3,0.0000131,19,female,2020-10-17_15h15.40.160,torte-q,2020.1.3,Win32,60,13905,0.921355,,,,,0,14,14,116,1,,,,,,,,,,,,,,,,,,,,,,,,,,,,,,,,,,,
,,,,,,,,,,,,l,Correct!,,,,,,t5.png,t3.png,2,0.056466,19,female,2020-10-17_15h15.40.160,torte-q,2020.1.3,Win32,60,13905,1.21309,,,,,0,15,15,38,1,,,,,,,,,,,,,,,,,,,,,,,,,,,,,,,,,,,
,,,,,,,,,,,,a,Incorrect,,,,,,t5.png,t2.png,3,0.0000131,19,female,2020-10-17_15h15.40.160,torte-q,2020.1.3,Win32,60,13905,1.75038,,,,,0,16,16,119,1,,,,,,,,,,,,,,,,,,,,,,,,,,,,,,,,,,,
,,,,,,,,,,,,l,Incorrect,,,,,,t3.png,t2.png,1,0.909,19,female,2020-10-17_15h15.40.160,torte-q,2020.1.3,Win32,60,13905,1.117125,,,,,0,17,17,3,1,,,,,,,,,,,,,,,,,,,,,,,,,,,,,,,,,,,
,,,,,,,,,,,,l,Correct!,,,,,,t1.png,t5.png,4,9.55E-11,19,female,2020-10-17_15h15.40.160,torte-q,2020.1.3,Win32,60,13905,1.73839,,,,,0,18,18,85,1,,,,,,,,,,,,,,,,,,,,,,,,,,,,,,,,,,,
,,,,,,,,,,,,l,Correct!,,,,,,t1.png,t3.png,2,0.056466,19,female,2020-10-17_15h15.40.160,torte-q,2020.1.3,Win32,60,13905,1.46834,,,,,0,19,19,63,1,,,,,,,,,,,,,,,,,,,,,,,,,,,,,,,,,,,
,,,,,,,,,,,,a,Correct!,,,,,,t4.png,t5.png,1,0.90025,19,female,2020-10-17_15h15.40.160,torte-q,2020.1.3,Win32,60,13905,1.14653,,,,,0,20,20,103,1,,,,,,,,,,,,,,,,,,,,,,,,,,,,,,,,,,,
,,,,,,,,,,,,l,Incorrect,,,,,,t4.png,t3.png,1,0.90855,19,female,2020-10-17_15h15.40.160,torte-q,2020.1.3,Win32,60,13905,0.41681,,,,,0,21,21,35,1,,,,,,,,,,,,,,,,,,,,,,,,,,,,,,,,,,,
,,,,,,,,,,,,a,Incorrect,,,,,,t5.png,t2.png,3,0.0000131,19,female,2020-10-17_15h15.40.160,torte-q,2020.1.3,Win32,60,13905,0.61748,,,,,0,22,22,51,1,,,,,,,,,,,,,,,,,,,,,,,,,,,,,,,,,,,
,,,,,,,,,,,,l,Incorrect,,,,,,t1.png,t2.png,1,0.9,19,female,2020-10-17_15h15.40.160,torte-q,2020.1.3,Win32,60,13905,1.030385,,,,,0,23,23,1,1,,,,,,,,,,,,,,,,,,,,,,,,,,,,,,,,,,,
,,,,,,,,,,,,a,Incorrect,,,,,,t4.png,t1.png,3,0.0000131,19,female,2020-10-17_15h15.40.160,torte-q,2020.1.3,Win32,60,13905,1.279065,,,,,0,24,24,48,1,,,,,,,,,,,,,,,,,,,,,,,,,,,,,,,,,,,
,,,,,,,,,,,,l,Correct!,,,,,,t3.png,t5.png,2,0.056466,19,female,2020-10-17_15h15.40.160,torte-q,2020.1.3,Win32,60,13905,1.18124,,,,,0,25,25,14,1,,,,,,,,,,,,,,,,,,,,,,,,,,,,,,,,,,,
,,,,,,,,,,,,a,Correct!,,,,,,t3.png,t4.png,1,0.90855,19,female,2020-10-17_15h15.40.160,torte-q,2020.1.3,Win32,60,13905,1.24404,,,,,0,26,26,84,1,,,,,,,,,,,,,,,,,,,,,,,,,,,,,,,,,,,
,,,,,,,,,,,,l,Incorrect,,,,,,t4.png,t5.png,1,0.9,19,female,2020-10-17_15h15.40.160,torte-q,2020.1.3,Win32,60,13905,1.21295,,,,,0,27,27,115,1,,,,,,,,,,,,,,,,,,,,,,,,,,,,,,,,,,,
,,,,,,,,,,,,a,Incorrect,,,,,,t4.png,t1.png,3,0.0000131,19,female,2020-10-17_15h15.40.160,torte-q,2020.1.3,Win32,60,13905,1.56312,,,,,0,28,28,42,1,,,,,,,,,,,,,,,,,,,,,,,,,,,,,,,,,,,
,,,,,,,,,,,,l,Incorrect,,,,,,t4.png,t3.png,1,0.909,19,female,2020-10-17_15h15.40.160,torte-q,2020.1.3,Win32,60,13905,1.116705,,,,,0,29,29,46,1,,,,,,,,,,,,,,,,,,,,,,,,,,,,,,,,,,,
,,,,,,,,,,,,a,Correct!,,,,,,t3.png,t2.png,1,0.909,19,female,2020-10-17_15h15.40.160,torte-q,2020.1.3,Win32,60,13905,1.48126,,,,,0,30,30,23,1,,,,,,,,,,,,,,,,,,,,,,,,,,,,,,,,,,,
,,,,,,,,,,,,l,Incorrect,,,,,,t2.png,t2.png,0,0.98115,19,female,2020-10-17_15h15.40.160,torte-q,2020.1.3,Win32,60,13905,0.948785,,,,,0,31,31,7,1,,,,,,,,,,,,,,,,,,,,,,,,,,,,,,,,,,,
,,,,,,,,,,,,a,Incorrect,,,,,,t3.png,t1.png,2,0.0565,19,female,2020-10-17_15h15.40.160,torte-q,2020.1.3,Win32,60,13905,1.88034,,,,,0,32,32,31,1,,,,,,,,,,,,,,,,,,,,,,,,,,,,,,,,,,,
,,,,,,,,,,,,l,Incorrect,,,,,,t4.png,t4.png,0,0.98115,19,female,2020-10-17_15h15.40.160,torte-q,2020.1.3,Win32,60,13905,1.41428,,,,,0,33,33,21,1,,,,,,,,,,,,,,,,,,,,,,,,,,,,,,,,,,,
,,,,,,,,,,,,a,Correct!,,,,,,t4.png,t3.png,1,0.90855,19,female,2020-10-17_15h15.40.160,torte-q,2020.1.3,Win32,60,13905,1.21666,,,,,0,34,34,75,1,,,,,,,,,,,,,,,,,,,,,,,,,,,,,,,,,,,
,,,,,,,,,,,,a,Correct!,,,,,,t1.png,t1.png,0,0.978,19,female,2020-10-17_15h15.40.160,torte-q,2020.1.3,Win32,60,13905,1.182975,,,,,0,35,35,54,1,,,,,,,,,,,,,,,,,,,,,,,,,,,,,,,,,,,
,,,,,,,,,,,,l,Correct!,,,,,,t1.png,t4.png,3,0.0000131,19,female,2020-10-17_15h15.40.160,torte-q,2020.1.3,Win32,60,13905,1.005505,,,,,0,36,36,107,1,,,,,,,,,,,,,,,,,,,,,,,,,,,,,,,,,,,
,,,,,,,,,,,,a,Incorrect,,,,,,t2.png,t5.png,3,0.0000131,19,female,2020-10-17_15h15.40.160,torte-q,2020.1.3,Win32,60,13905,0.88367,,,,,0,37,37,104,1,,,,,,,,,,,,,,,,,,,,,,,,,,,,,,,,,,,
,,,,,,,,,,,,l,Incorrect,,,,,,t2.png,t1.png,1,0.90025,19,female,2020-10-17_15h15.40.160,torte-q,2020.1.3,Win32,60,13905,0.784065,,,,,0,38,38,5,1,,,,,,,,,,,,,,,,,,,,,,,,,,,,,,,,,,,
,,,,,,,,,,,,a,Incorrect,,,,,,t3.png,t1.png,2,0.056466,19,female,2020-10-17_15h15.40.160,torte-q,2020.1.3,Win32,60,13905,0.702165,,,,,0,39,39,64,1,,,,,,,,,,,,,,,,,,,,,,,,,,,,,,,,,,,
,,,,,,,,,,,,l,Incorrect,,,,,,t2.png,t1.png,1,0.90025,19,female,2020-10-17_15h15.40.160,torte-q,2020.1.3,Win32,60,13905,1.004495,,,,,0,40,40,4,1,,,,,,,,,,,,,,,,,,,,,,,,,,,,,,,,,,,
,,,,,,,,,,,,a,Correct!,,,,,,t5.png,t5.png,0,0.97829,19,female,2020-10-17_15h15.40.160,torte-q,2020.1.3,Win32,60,13905,1.08122,,,,,0,41,41,73,1,,,,,,,,,,,,,,,,,,,,,,,,,,,,,,,,,,,
,,,,,,,,,,,,l,Incorrect,,,,,,t2.png,t1.png,1,0.9,19,female,2020-10-17_15h15.40.160,torte-q,2020.1.3,Win32,60,13905,1.113675,,,,,0,42,42,118,1,,,,,,,,,,,,,,,,,,,,,,,,,,,,,,,,,,,
,,,,,,,,,,,,a,Incorrect,,,,,,t5.png,t3.png,2,0.056466,19,female,2020-10-17_15h15.40.160,torte-q,2020.1.3,Win32,60,13905,0.89302,,,,,0,43,43,108,1,,,,,,,,,,,,,,,,,,,,,,,,,,,,,,,,,,,
,,,,,,,,,,,,l,Incorrect,,,,,,t4.png,t5.png,1,0.90025,19,female,2020-10-17_15h15.40.160,torte-q,2020.1.3,Win32,60,13905,0.59693,,,,,0,44,44,47,1,,,,,,,,,,,,,,,,,,,,,,,,,,,,,,,,,,,
,,,,,,,,,,,,a,Incorrect,,,,,,t4.png,t1.png,3,0.0000131,19,female,2020-10-17_15h15.40.160,torte-q,2020.1.3,Win32,60,13905,0.754695,,,,,0,45,45,61,1,,,,,,,,,,,,,,,,,,,,,,,,,,,,,,,,,,,
,,,,,,,,,,,,a,Incorrect,,,,,,t4.png,t1.png,3,0.0000131,19,female,2020-10-17_15h15.40.160,torte-q,2020.1.3,Win32,60,13905,0.98211,,,,,0,46,46,13,1,,,,,,,,,,,,,,,,,,,,,,,,,,,,,,,,,,,
,,,,,,,,,,,,l,Correct!,,,,,,t1.png,t3.png,2,0.056466,19,female,2020-10-17_15h15.40.160,torte-q,2020.1.3,Win32,60,13905,1.32883,,,,,0,47,47,99,1,,,,,,,,,,,,,,,,,,,,,,,,,,,,,,,,,,,
,,,,,,,,,,,,a,Correct!,,,,,,t4.png,t4.png,0,0.98115,19,female,2020-10-17_15h15.40.160,torte-q,2020.1.3,Win32,60,13905,1.33499,,,,,0,48,48,90,1,,,,,,,,,,,,,,,,,,,,,,,,,,,,,,,,,,,
,,,,,,,,,,,,a,Correct!,,,,,,t1.png,t1.png,0,0.978,19,female,2020-10-17_15h15.40.160,torte-q,2020.1.3,Win32,60,13905,1.39101,,,,,0,49,49,28,1,,,,,,,,,,,,,,,,,,,,,,,,,,,,,,,,,,,
,,,,,,,,,,,,l,Incorrect,,,,,,t3.png,t4.png,1,0.909,19,female,2020-10-17_15h15.40.160,torte-q,2020.1.3,Win32,60,13905,0.965105,,,,,0,50,50,82,1,,,,,,,,,,,,,,,,,,,,,,,,,,,,,,,,,,,
,,,,,,,,,,,,a,Incorrect,,,,,,t5.png,t1.png,4,9.55E-11,19,female,2020-10-17_15h15.40.160,torte-q,2020.1.3,Win32,60,13905,0.44848,,,,,0,51,51,102,1,,,,,,,,,,,,,,,,,,,,,,,,,,,,,,,,,,,
,,,,,,,,,,,,a,Correct!,,,,,,t4.png,t3.png,1,0.90855,19,female,2020-10-17_15h15.40.160,torte-q,2020.1.3,Win32,60,13905,1.32401,,,,,0,52,52,45,1,,,,,,,,,,,,,,,,,,,,,,,,,,,,,,,,,,,
,,,,,,,,,,,,l,Correct!,,,,,,t5.png,t3.png,2,0.0565,19,female,2020-10-17_15h15.40.160,torte-q,2020.1.3,Win32,60,13905,1.039025,,,,,0,53,53,39,1,,,,,,,,,,,,,,,,,,,,,,,,,,,,,,,,,,,
,,,,,,,,,,,,l,Correct!,,,,,,t1.png,t5.png,4,9.55E-11,19,female,2020-10-17_15h15.40.160,torte-q,2020.1.3,Win32,60,13905,1.170565,,,,,0,54,54,55,1,,,,,,,,,,,,,,,,,,,,,,,,,,,,,,,,,,,
,,,,,,,,,,,,a,Correct!,,,,,,t5.png,t5.png,0,0.97829,19,female,2020-10-17_15h15.40.160,torte-q,2020.1.3,Win32,60,13905,1.105395,,,,,0,55,55,70,1,,,,,,,,,,,,,,,,,,,,,,,,,,,,,,,,,,,
,,,,,,,,,,,,l,Incorrect,,,,,,t2.png,t4.png,2,0.0591,19,female,2020-10-17_15h15.40.160,torte-q,2020.1.3,Win32,60,13905,0.866615,,,,,0,56,56,15,1,,,,,,,,,,,,,,,,,,,,,,,,,,,,,,,,,,,
,,,,,,,,,,,,a,Incorrect,,,,,,t2.png,t5.png,3,0.0000131,19,female,2020-10-17_15h15.40.160,torte-q,2020.1.3,Win32,60,13905,0.84054,,,,,0,57,57,40,1,,,,,,,,,,,,,,,,,,,,,,,,,,,,,,,,,,,
,,,,,,,,,,,,a,Correct!,,,,,,t5.png,t5.png,0,0.978,19,female,2020-10-17_15h15.40.160,torte-q,2020.1.3,Win32,60,13905,1.812235,,,,,0,58,58,117,1,,,,,,,,,,,,,,,,,,,,,,,,,,,,,,,,,,,
,,,,,,,,,,,,l,Incorrect,,,,,,t2.png,t3.png,1,0.90855,19,female,2020-10-17_15h15.40.160,torte-q,2020.1.3,Win32,60,13905,0.91504,,,,,0,59,59,111,1,,,,,,,,,,,,,,,,,,,,,,,,,,,,,,,,,,,
,,,,,,,,,,,,a,Correct!,,,,,,t1.png,t1.png,0,0.97829,19,female,2020-10-17_15h15.40.160,torte-q,2020.1.3,Win32,60,13905,0.854895,,,,,0,60,60,9,1,,,,,,,,,,,,,,,,,,,,,,,,,,,,,,,,,,,
,,,,,,,,,,,,l,Incorrect,,,,,,t2.png,t1.png,1,0.90025,19,female,2020-10-17_15h15.40.160,torte-q,2020.1.3,Win32,60,13905,0.847775,,,,,0,61,61,19,1,,,,,,,,,,,,,,,,,,,,,,,,,,,,,,,,,,,
,,,,,,,,,,,,a,Correct!,,,,,,t3.png,t4.png,1,0.90855,19,female,2020-10-17_15h15.40.160,torte-q,2020.1.3,Win32,60,13905,1.064385,,,,,0,62,62,96,1,,,,,,,,,,,,,,,,,,,,,,,,,,,,,,,,,,,
,,,,,,,,,,,,l,Correct!,,,,,,t2.png,t4.png,2,0.059078,19,female,2020-10-17_15h15.40.160,torte-q,2020.1.3,Win32,60,13905,0.85619,,,,,0,63,63,77,1,,,,,,,,,,,,,,,,,,,,,,,,,,,,,,,,,,,
,,,,,,,,,,,,a,Incorrect,,,,,,t3.png,t2.png,1,0.90855,19,female,2020-10-17_15h15.40.160,torte-q,2020.1.3,Win32,60,13905,0.41956,,,,,0,64,64,18,1,,,,,,,,,,,,,,,,,,,,,,,,,,,,,,,,,,,
,,,,,,,,,,,,l,Correct!,,,,,,t2.png,t4.png,2,0.059078,19,female,2020-10-17_15h15.40.160,torte-q,2020.1.3,Win32,60,13905,0.833735,,,,,0,65,65,37,1,,,,,,,,,,,,,,,,,,,,,,,,,,,,,,,,,,,
,,,,,,,,,,,,a,Correct!,,,,,,t4.png,t5.png,1,0.90025,19,female,2020-10-17_15h15.40.160,torte-q,2020.1.3,Win32,60,13905,0.37552,,,,,0,66,66,58,1,,,,,,,,,,,,,,,,,,,,,,,,,,,,,,,,,,,
,,,,,,,,,,,,l,Correct!,,,,,,t1.png,t5.png,4,9.55E-11,19,female,2020-10-17_15h15.40.160,torte-q,2020.1.3,Win32,60,13905,1.13958,,,,,0,67,67,16,1,,,,,,,,,,,,,,,,,,,,,,,,,,,,,,,,,,,
,,,,,,,,,,,,a,Correct!,,,,,,t2.png,t1.png,1,0.90025,19,female,2020-10-17_15h15.40.160,torte-q,2020.1.3,Win32,60,13905,1.1471,,,,,0,68,68,62,1,,,,,,,,,,,,,,,,,,,,,,,,,,,,,,,,,,,
,,,,,,,,,,,,l,Incorrect,,,,,,t5.png,t4.png,1,0.9,19,female,2020-10-17_15h15.40.160,torte-q,2020.1.3,Win32,60,13905,0.91906,,,,,0,69,69,76,1,,,,,,,,,,,,,,,,,,,,,,,,,,,,,,,,,,,
,,,,,,,,,,,,l,Correct!,,,,,,t1.png,t4.png,3,0.0000131,19,female,2020-10-17_15h15.40.160,torte-q,2020.1.3,Win32,60,13905,1.985005,,,,,0,70,70,81,1,,,,,,,,,,,,,,,,,,,,,,,,,,,,,,,,,,,
,,,,,,,,,,,,a,Incorrect,,,,,,t5.png,t2.png,3,0.0000131,19,female,2020-10-17_15h15.40.160,torte-q,2020.1.3,Win32,60,13905,0.95224,,,,,0,71,71,98,1,,,,,,,,,,,,,,,,,,,,,,,,,,,,,,,,,,,
,,,,,,,,,,,,a,Incorrect,,,,,,t4.png,t1.png,3,0.0000131,19,female,2020-10-17_15h15.40.160,torte-q,2020.1.3,Win32,60,13905,0.935355,,,,,0,72,72,93,1,,,,,,,,,,,,,,,,,,,,,,,,,,,,,,,,,,,
,,,,,,,,,,,,a,Incorrect,,,,,,t2.png,t4.png,2,0.059078,19,female,2020-10-17_15h15.40.160,torte-q,2020.1.3,Win32,60,13905,0.75015,,,,,0,73,73,11,1,,,,,,,,,,,,,,,,,,,,,,,,,,,,,,,,,,,
,,,,,,,,,,,,l,Correct!,,,,,,t2.png,t4.png,2,0.059078,19,female,2020-10-17_15h15.40.160,torte-q,2020.1.3,Win32,60,13905,0.682375,,,,,0,74,74,24,1,,,,,,,,,,,,,,,,,,,,,,,,,,,,,,,,,,,
,,,,,,,,,,,,a,Correct!,,,,,,t2.png,t3.png,1,0.90855,19,female,2020-10-17_15h15.40.160,torte-q,2020.1.3,Win32,60,13905,0.43041,,,,,0,75,75,10,1,,,,,,,,,,,,,,,,,,,,,,,,,,,,,,,,,,,
,,,,,,,,,,,,l,Correct!,,,,,,t5.png,t1.png,4,9.55E-11,19,female,2020-10-17_15h15.40.160,torte-q,2020.1.3,Win32,60,13905,0.597425,,,,,0,76,76,43,1,,,,,,,,,,,,,,,,,,,,,,,,,,,,,,,,,,,
,,,,,,,,,,,,a,Correct!,,,,,,t1.png,t2.png,1,0.90025,19,female,2020-10-17_15h15.40.160,torte-q,2020.1.3,Win32,60,13905,0.404075,,,,,0,77,77,105,1,,,,,,,,,,,,,,,,,,,,,,,,,,,,,,,,,,,
,,,,,,,,,,,,l,Correct!,,,,,,t1.png,t5.png,4,9.55E-11,19,female,2020-10-17_15h15.40.160,torte-q,2020.1.3,Win32,60,13905,0.49866,,,,,0,78,78,12,1,,,,,,,,,,,,,,,,,,,,,,,,,,,,,,,,,,,
,,,,,,,,,,,,a,Correct!,,,,,,t2.png,t2.png,0,0.981,19,female,2020-10-17_15h15.40.160,torte-q,2020.1.3,Win32,60,13905,0.96967,,,,,0,79,79,101,1,,,,,,,,,,,,,,,,,,,,,,,,,,,,,,,,,,,
,,,,,,,,,,,,l,Correct!,,,,,,t1.png,t3.png,2,0.056466,19,female,2020-10-17_15h15.40.160,torte-q,2020.1.3,Win32,60,13905,1.440325,,,,,0,80,80,60,1,,,,,,,,,,,,,,,,,,,,,,,,,,,,,,,,,,,
,,,,,,,,,,,,l,Correct!,,,,,,t2.png,t5.png,3,0.0000131,19,female,2020-10-17_15h15.40.160,torte-q,2020.1.3,Win32,60,13905,1.431285,,,,,0,81,81,66,1,,,,,,,,,,,,,,,,,,,,,,,,,,,,,,,,,,,
,,,,,,,,,,,,a,Incorrect,,,,,,t5.png,t1.png,4,9.55E-11,19,female,2020-10-17_15h15.40.160,torte-q,2020.1.3,Win32,60,13905,1.074375,,,,,0,82,82,71,1,,,,,,,,,,,,,,,,,,,,,,,,,,,,,,,,,,,
,,,,,,,,,,,,a,Incorrect,,,,,,t5.png,t1.png,4,9.55E-11,19,female,2020-10-17_15h15.40.160,torte-q,2020.1.3,Win32,60,13905,1.00286,,,,,0,83,83,100,1,,,,,,,,,,,,,,,,,,,,,,,,,,,,,,,,,,,
,,,,,,,,,,,,l,Correct!,,,,,,t5.png,t3.png,2,0.056466,19,female,2020-10-17_15h15.40.160,torte-q,2020.1.3,Win32,60,13905,0.97146,,,,,0,84,84,56,1,,,,,,,,,,,,,,,,,,,,,,,,,,,,,,,,,,,
,,,,,,,,,,,,a,Incorrect,,,,,,t3.png,t4.png,1,0.909,19,female,2020-10-17_15h15.40.160,torte-q,2020.1.3,Win32,60,13905,1.1635,,,,,0,85,85,89,1,,,,,,,,,,,,,,,,,,,,,,,,,,,,,,,,,,,
,,,,,,,,,,,,a,Correct!,,,,,,t1.png,t1.png,0,0.97829,19,female,2020-10-17_15h15.40.160,torte-q,2020.1.3,Win32,60,13905,0.977165,,,,,0,86,86,78,1,,,,,,,,,,,,,,,,,,,,,,,,,,,,,,,,,,,
,,,,,,,,,,,,l,Correct!,,,,,,t4.png,t2.png,2,0.0591,19,female,2020-10-17_15h15.40.160,torte-q,2020.1.3,Win32,60,13905,0.84778,,,,,0,87,87,36,1,,,,,,,,,,,,,,,,,,,,,,,,,,,,,,,,,,,
,,,,,,,,,,,,a,Correct!,,,,,,t2.png,t2.png,0,0.98115,19,female,2020-10-17_15h15.40.160,torte-q,2020.1.3,Win32,60,13905,0.928825,,,,,0,88,88,2,1,,,,,,,,,,,,,,,,,,,,,,,,,,,,,,,,,,,
,,,,,,,,,,,,a,Correct!,,,,,,t5.png,t5.png,0,0.97829,19,female,2020-10-17_15h15.40.160,torte-q,2020.1.3,Win32,60,13905,1.53314,,,,,0,89,89,25,1,,,,,,,,,,,,,,,,,,,,,,,,,,,,,,,,,,,
,,,,,,,,,,,,l,Incorrect,,,,,,t4.png,t4.png,0,0.98115,19,female,2020-10-17_15h15.40.160,torte-q,2020.1.3,Win32,60,13905,0.846685,,,,,0,90,90,52,1,,,,,,,,,,,,,,,,,,,,,,,,,,,,,,,,,,,
,,,,,,,,,,,,l,Correct!,,,,,,t1.png,t4.png,3,0.0000131,19,female,2020-10-17_15h15.40.160,torte-q,2020.1.3,Win32,60,13905,0.82213,,,,,0,91,91,92,1,,,,,,,,,,,,,,,,,,,,,,,,,,,,,,,,,,,
,,,,,,,,,,,,l,Correct!,,,,,,t1.png,t3.png,2,0.056466,19,female,2020-10-17_15h15.40.160,torte-q,2020.1.3,Win32,60,13905,0.703485,,,,,0,92,92,69,1,,,,,,,,,,,,,,,,,,,,,,,,,,,,,,,,,,,
,,,,,,,,,,,,a,Incorrect,,,,,,t4.png,t2.png,2,0.059078,19,female,2020-10-17_15h15.40.160,torte-q,2020.1.3,Win32,60,13905,0.77269,,,,,0,93,93,109,1,,,,,,,,,,,,,,,,,,,,,,,,,,,,,,,,,,,
,,,,,,,,,,,,l,Incorrect,,,,,,t5.png,t4.png,1,0.90025,19,female,2020-10-17_15h15.40.160,torte-q,2020.1.3,Win32,60,13905,0.402905,,,,,0,94,94,26,1,,,,,,,,,,,,,,,,,,,,,,,,,,,,,,,,,,,
,,,,,,,,,,,,a,Correct!,,,,,,t2.png,t3.png,1,0.909,19,female,2020-10-17_15h15.40.160,torte-q,2020.1.3,Win32,60,13905,0.38358,,,,,0,95,95,74,1,,,,,,,,,,,,,,,,,,,,,,,,,,,,,,,,,,,
,,,,,,,,,,,,a,Incorrect,,,,,,t3.png,t1.png,2,0.056466,19,female,2020-10-17_15h15.40.160,torte-q,2020.1.3,Win32,60,13905,1.10669,,,,,0,96,96,32,1,,,,,,,,,,,,,,,,,,,,,,,,,,,,,,,,,,,
,,,,,,,,,,,,a,Correct!,,,,,,t3.png,t4.png,1,0.909,19,female,2020-10-17_15h15.40.160,torte-q,2020.1.3,Win32,60,13905,0.69157,,,,,0,97,97,106,1,,,,,,,,,,,,,,,,,,,,,,,,,,,,,,,,,,,
,,,,,,,,,,,,l,Correct!,,,,,,t4.png,t2.png,2,0.059078,19,female,2020-10-17_15h15.40.160,torte-q,2020.1.3,Win32,60,13905,0.665955,,,,,0,98,98,88,1,,,,,,,,,,,,,,,,,,,,,,,,,,,,,,,,,,,
,,,,,,,,,,,,a,Incorrect,,,,,,t3.png,t5.png,2,0.056466,19,female,2020-10-17_15h15.40.160,torte-q,2020.1.3,Win32,60,13905,0.02225,,,,,0,99,99,44,1,,,,,,,,,,,,,,,,,,,,,,,,,,,,,,,,,,,
,,,,,,,,,,,,l,Correct!,,,,,,t3.png,t5.png,2,0.0565,19,female,2020-10-17_15h15.40.160,torte-q,2020.1.3,Win32,60,13905,0.636305,,,,,0,100,100,83,1,,,,,,,,,,,,,,,,,,,,,,,,,,,,,,,,,,,
,,,,,,,,,,,,a,Correct!,,,,,,t3.png,t2.png,1,0.90855,19,female,2020-10-17_15h15.40.160,torte-q,2020.1.3,Win32,60,13905,1.229675,,,,,0,101,101,97,1,,,,,,,,,,,,,,,,,,,,,,,,,,,,,,,,,,,
,,,,,,,,,,,,l,Correct!,,,,,,t3.png,t5.png,2,0.0565,19,female,2020-10-17_15h15.40.160,torte-q,2020.1.3,Win32,60,13905,0.648425,,,,,0,102,102,30,1,,,,,,,,,,,,,,,,,,,,,,,,,,,,,,,,,,,
,,,,,,,,,,,,l,Correct!,,,,,,t1.png,t4.png,3,0.0000131,19,female,2020-10-17_15h15.40.160,torte-q,2020.1.3,Win32,60,13905,0.73026,,,,,0,103,103,50,1,,,,,,,,,,,,,,,,,,,,,,,,,,,,,,,,,,,
,,,,,,,,,,,,l,Incorrect,,,,,,t2.png,t2.png,0,0.98115,19,female,2020-10-17_15h15.40.160,torte-q,2020.1.3,Win32,60,13905,1.62759,,,,,0,104,104,57,1,,,,,,,,,,,,,,,,,,,,,,,,,,,,,,,,,,,
,,,,,,,,,,,,a,Correct!,,,,,,t1.png,t1.png,0,0.97829,19,female,2020-10-17_15h15.40.160,torte-q,2020.1.3,Win32,60,13905,0.848315,,,,,0,105,105,67,1,,,,,,,,,,,,,,,,,,,,,,,,,,,,,,,,,,,
,,,,,,,,,,,,a,Incorrect,,,,,,t4.png,t2.png,2,0.059078,19,female,2020-10-17_15h15.40.160,torte-q,2020.1.3,Win32,60,13905,1.39787,,,,,0,106,106,86,1,,,,,,,,,,,,,,,,,,,,,,,,,,,,,,,,,,,
,,,,,,,,,,,,l,Incorrect,,,,,,t2.png,t3.png,1,0.90855,19,female,2020-10-17_15h15.40.160,torte-q,2020.1.3,Win32,60,13905,1.43528,,,,,0,107,107,68,1,,,,,,,,,,,,,,,,,,,,,,,,,,,,,,,,,,,
,,,,,,,,,,,,a,Incorrect,,,,,,t5.png,t3.png,2,0.056466,19,female,2020-10-17_15h15.40.160,torte-q,2020.1.3,Win32,60,13905,1.181915,,,,,0,108,108,114,1,,,,,,,,,,,,,,,,,,,,,,,,,,,,,,,,,,,
,,,,,,,,,,,,l,Incorrect,,,,,,t1.png,t2.png,1,0.90025,19,female,2020-10-17_15h15.40.160,torte-q,2020.1.3,Win32,60,13905,1.75764,,,,,0,109,109,72,1,,,,,,,,,,,,,,,,,,,,,,,,,,,,,,,,,,,
,,,,,,,,,,,,l,Correct!,,,,,,t2.png,t5.png,3,0.0000131,19,female,2020-10-17_15h15.40.160,torte-q,2020.1.3,Win32,60,13905,1.162895,,,,,0,110,110,8,1,,,,,,,,,,,,,,,,,,,,,,,,,,,,,,,,,,,
,,,,,,,,,,,,a,Incorrect,,,,,,t1.png,t3.png,2,0.056466,19,female,2020-10-17_15h15.40.160,torte-q,2020.1.3,Win32,60,13905,0.888305,,,,,0,111,111,87,1,,,,,,,,,,,,,,,,,,,,,,,,,,,,,,,,,,,
,,,,,,,,,,,,l,Correct!,,,,,,t1.png,t5.png,4,9.55E-11,19,female,2020-10-17_15h15.40.160,torte-q,2020.1.3,Win32,60,13905,0.89071,,,,,0,112,112,41,1,,,,,,,,,,,,,,,,,,,,,,,,,,,,,,,,,,,
,,,,,,,,,,,,a,Incorrect,,,,,,t5.png,t1.png,4,9.55E-11,19,female,2020-10-17_15h15.40.160,torte-q,2020.1.3,Win32,60,13905,0.647815,,,,,0,113,113,22,1,,,,,,,,,,,,,,,,,,,,,,,,,,,,,,,,,,,
,,,,,,,,,,,,a,Incorrect,,,,,,t3.png,t1.png,2,0.056466,19,female,2020-10-17_15h15.40.160,torte-q,2020.1.3,Win32,60,13905,0.730975,,,,,0,114,114,0,1,,,,,,,,,,,,,,,,,,,,,,,,,,,,,,,,,,,
,,,,,,,,,,,,l,Incorrect,,,,,,t2.png,t3.png,1,0.90855,19,female,2020-10-17_15h15.40.160,torte-q,2020.1.3,Win32,60,13905,0.89396,,,,,0,115,115,65,1,,,,,,,,,,,,,,,,,,,,,,,,,,,,,,,,,,,
,,,,,,,,,,,,a,Correct!,,,,,,t5.png,t4.png,1,0.90025,19,female,2020-10-17_15h15.40.160,torte-q,2020.1.3,Win32,60,13905,0.953525,,,,,0,116,116,27,1,,,,,,,,,,,,,,,,,,,,,,,,,,,,,,,,,,,
,,,,,,,,,,,,l,Correct!,,,,,,t4.png,t2.png,2,0.059078,19,female,2020-10-17_15h15.40.160,torte-q,2020.1.3,Win32,60,13905,0.72988,,,,,0,117,117,110,1,,,,,,,,,,,,,,,,,,,,,,,,,,,,,,,,,,,
,,,,,,,,,,,,l,Incorrect,,,,,,t1.png,t2.png,1,0.90025,19,female,2020-10-17_15h15.40.160,torte-q,2020.1.3,Win32,60,13905,1.099315,,,,,0,118,118,112,1,,,,,,,,,,,,,,,,,,,,,,,,,,,,,,,,,,,
,,,,,,,,,,,,a,Correct!,,,,,,t4.png,t4.png,0,0.98115,19,female,2020-10-17_15h15.40.160,torte-q,2020.1.3,Win32,60,13905,1.446595,,,,,0,119,119,79,1,,,,,,,,,,,,,,,,,,,,,,,,,,,,,,,,,,,
,,,,,,,,,,,,,Too slow :(,,,,,,t2.png,t3.png,1,0.90855,19,female,2020-10-17_15h15.40.160,torte-q,2020.1.3,Win32,60,13905,,space,4.05024,,,,,,,,space,22.83982,space,12.64681,0,0,0,111,1,,,,,,,,,,,,,,,,,,,,,,,,,,
,,,,,,,,,,,,a,Correct!,,,,,,t3.png,t2.png,1,0.90855,19,female,2020-10-17_15h15.40.160,torte-q,2020.1.3,Win32,60,13905,1.3537,,,,,,,,,,,,,,0,1,1,97,1,,,,,,,,,,,,,,,,,,,,,,,,,,
,,,,,,,,,,,,,Too slow :(,,,,,,t1.png,t2.png,1,0.90025,19,female,2020-10-17_15h15.40.160,torte-q,2020.1.3,Win32,60,13905,,,,,,,,,,,,,,,0,2,2,33,1,,,,,,,,,,,,,,,,,,,,,,,,,,
,,,,,,,,,,,,l,Incorrect,,,,,,t2.png,t3.png,1,0.90855,19,female,2020-10-17_15h15.40.160,torte-q,2020.1.3,Win32,60,13905,1.532605,,,,,,,,,,,,,,0,3,3,68,1,,,,,,,,,,,,,,,,,,,,,,,,,,
,,,,,,,,,,,,a,Correct!,,,,,,t1.png,t1.png,0,0.97829,19,female,2020-10-17_15h15.40.160,torte-q,2020.1.3,Win32,60,13905,0.9812,,,,,,,,,,,,,,0,4,4,78,1,,,,,,,,,,,,,,,,,,,,,,,,,,
,,,,,,,,,,,,a,Incorrect,,,,,,t3.png,t1.png,2,0.056466,19,female,2020-10-17_15h15.40.160,torte-q,2020.1.3,Win32,60,13905,1.45426,,,,,,,,,,,,,,0,5,5,0,1,,,,,,,,,,,,,,,,,,,,,,,,,,
,,,,,,,,,,,,l,Correct!,,,,,,t5.png,t2.png,3,0.0000131,19,female,2020-10-17_15h15.40.160,torte-q,2020.1.3,Win32,60,13905,2.10168,,,,,,,,,,,,,,0,6,6,91,1,,,,,,,,,,,,,,,,,,,,,,,,,,
,,,,,,,,,,,,a,Incorrect,,,,,,t5.png,t1.png,4,9.55E-11,19,female,2020-10-17_15h15.40.160,torte-q,2020.1.3,Win32,60,13905,0.914985,,,,,,,,,,,,,,0,7,7,22,1,,,,,,,,,,,,,,,,,,,,,,,,,,
,,,,,,,,,,,,a,Incorrect,,,,,,t3.png,t1.png,2,0.0565,19,female,2020-10-17_15h15.40.160,torte-q,2020.1.3,Win32,60,13905,0.86402,,,,,,,,,,,,,,0,8,8,31,1,,,,,,,,,,,,,,,,,,,,,,,,,,
,,,,,,,,,,,,a,Incorrect,,,,,,t5.png,t3.png,2,0.0565,19,female,2020-10-17_15h15.40.160,torte-q,2020.1.3,Win32,60,13905,1.254105,,,,,,,,,,,,,,0,9,9,39,1,,,,,,,,,,,,,,,,,,,,,,,,,,
,,,,,,,,,,,,l,Correct!,,,,,,t1.png,t5.png,4,9.55E-11,19,female,2020-10-17_15h15.40.160,torte-q,2020.1.3,Win32,60,13905,1.83166,,,,,,,,,,,,,,0,10,10,41,1,,,,,,,,,,,,,,,,,,,,,,,,,,
,,,,,,,,,,,,,Too slow :(,,,,,,t3.png,t1.png,2,0.056466,19,female,2020-10-17_15h15.40.160,torte-q,2020.1.3,Win32,60,13905,,,,,,,,,,,,,,,0,11,11,29,1,,,,,,,,,,,,,,,,,,,,,,,,,,
,,,,,,,,,,,,a,Incorrect,,,,,,t4.png,t1.png,3,0.0000131,19,female,2020-10-17_15h15.40.160,torte-q,2020.1.3,Win32,60,13905,2.13567,,,,,,,,,,,,,,0,12,12,42,1,,,,,,,,,,,,,,,,,,,,,,,,,,
,,,,,,,,,,,,a,Correct!,,,,,,t4.png,t3.png,1,0.909,19,female,2020-10-17_15h15.40.160,torte-q,2020.1.3,Win32,60,13905,1.263965,,,,,,,,,,,,,,0,13,13,46,1,,,,,,,,,,,,,,,,,,,,,,,,,,
,,,,,,,,,,,,a,Incorrect,,,,,,t5.png,t2.png,3,0.0000131,19,female,2020-10-17_15h15.40.160,torte-q,2020.1.3,Win32,60,13905,1.69967,,,,,,,,,,,,,,0,14,14,116,1,,,,,,,,,,,,,,,,,,,,,,,,,,
,,,,,,,,,,,,l,Correct!,,,,,,t3.png,t5.png,2,0.0565,19,female,2020-10-17_15h15.40.160,torte-q,2020.1.3,Win32,60,13905,1.048075,,,,,,,,,,,,,,0,15,15,83,1,,,,,,,,,,,,,,,,,,,,,,,,,,
,,,,,,,,,,,,a,Incorrect,,,,,,t3.png,t1.png,2,0.056466,19,female,2020-10-17_15h15.40.160,torte-q,2020.1.3,Win32,60,13905,1.453335,,,,,,,,,,,,,,0,16,16,64,1,,,,,,,,,,,,,,,,,,,,,,,,,,
,,,,,,,,,,,,l,Incorrect,,,,,,t1.png,t2.png,1,0.9,19,female,2020-10-17_15h15.40.160,torte-q,2020.1.3,Win32,60,13905,1.52996,,,,,,,,,,,,,,0,17,17,1,1,,,,,,,,,,,,,,,,,,,,,,,,,,
,,,,,,,,,,,,a,Correct!,,,,,,t1.png,t1.png,0,0.978,19,female,2020-10-17_15h15.40.160,torte-q,2020.1.3,Win32,60,13905,0.798585,,,,,,,,,,,,,,0,18,18,28,1,,,,,,,,,,,,,,,,,,,,,,,,,,
,,,,,,,,,,,,a,Correct!,,,,,,t5.png,t3.png,2,0.056466,19,female,2020-10-17_15h15.40.160,torte-q,2020.1.3,Win32,60,13905,2.29096,,,,,,,,,,,,,,0,19,19,56,1,,,,,,,,,,,,,,,,,,,,,,,,,,
,,,,,,,,,,,,a,Incorrect,,,,,,t5.png,t3.png,2,0.056466,19,female,2020-10-17_15h15.40.160,torte-q,2020.1.3,Win32,60,13905,0.73805,,,,,,,,,,,,,,0,20,20,114,1,,,,,,,,,,,,,,,,,,,,,,,,,,
,,,,,,,,,,,,a,Incorrect,,,,,,t4.png,t2.png,2,0.059078,19,female,2020-10-17_15h15.40.160,torte-q,2020.1.3,Win32,60,13905,0.68148,,,,,,,,,,,,,,0,21,21,88,1,,,,,,,,,,,,,,,,,,,,,,,,,,
,,,,,,,,,,,,l,Incorrect,,,,,,t1.png,t1.png,0,0.97829,19,female,2020-10-17_15h15.40.160,torte-q,2020.1.3,Win32,60,13905,0.48342,,,,,,,,,,,,,,0,22,22,67,1,,,,,,,,,,,,,,,,,,,,,,,,,,
,,,,,,,,,,,,a,Incorrect,,,,,,t5.png,t1.png,4,9.55E-11,19,female,2020-10-17_15h15.40.160,torte-q,2020.1.3,Win32,60,13905,0.39739,,,,,,,,,,,,,,0,23,23,102,1,,,,,,,,,,,,,,,,,,,,,,,,,,
,,,,,,,,,,,,l,Correct!,,,,,,t2.png,t5.png,3,0.0000131,19,female,2020-10-17_15h15.40.160,torte-q,2020.1.3,Win32,60,13905,0.83083,,,,,,,,,,,,,,0,24,24,95,1,,,,,,,,,,,,,,,,,,,,,,,,,,
,,,,,,,,,,,,a,Correct!,,,,,,t4.png,t4.png,0,0.98115,19,female,2020-10-17_15h15.40.160,torte-q,2020.1.3,Win32,60,13905,0.563085,,,,,,,,,,,,,,0,25,25,80,1,,,,,,,,,,,,,,,,,,,,,,,,,,
,,,,,,,,,,,,l,Incorrect,,,,,,t1.png,t2.png,1,0.90025,19,female,2020-10-17_15h15.40.160,torte-q,2020.1.3,Win32,60,13905,1.25831,,,,,,,,,,,,,,0,26,26,112,1,,,,,,,,,,,,,,,,,,,,,,,,,,
,,,,,,,,,,,,a,Incorrect,,,,,,t2.png,t5.png,3,0.0000131,19,female,2020-10-17_15h15.40.160,torte-q,2020.1.3,Win32,60,13905,0.75261,,,,,,,,,,,,,,0,27,27,104,1,,,,,,,,,,,,,,,,,,,,,,,,,,
,,,,,,,,,,,,l,Correct!,,,,,,t3.png,t5.png,2,0.0565,19,female,2020-10-17_15h15.40.160,torte-q,2020.1.3,Win32,60,13905,0.882555,,,,,,,,,,,,,,0,28,28,30,1,,,,,,,,,,,,,,,,,,,,,,,,,,
,,,,,,,,,,,,l,Correct!,,,,,,t2.png,t5.png,3,0.0000131,19,female,2020-10-17_15h15.40.160,torte-q,2020.1.3,Win32,60,13905,0.98449,,,,,,,,,,,,,,0,29,29,8,1,,,,,,,,,,,,,,,,,,,,,,,,,,
,,,,,,,,,,,,a,Correct!,,,,,,t1.png,t1.png,0,0.97829,19,female,2020-10-17_15h15.40.160,torte-q,2020.1.3,Win32,60,13905,0.73403,,,,,,,,,,,,,,0,30,30,9,1,,,,,,,,,,,,,,,,,,,,,,,,,,
,,,,,,,,,,,,l,Incorrect,,,,,,t5.png,t5.png,0,0.97829,19,female,2020-10-17_15h15.40.160,torte-q,2020.1.3,Win32,60,13905,1.197495,,,,,,,,,,,,,,0,31,31,70,1,,,,,,,,,,,,,,,,,,,,,,,,,,
,,,,,,,,,,,,a,Incorrect,,,,,,t1.png,t4.png,3,0.0000131,19,female,2020-10-17_15h15.40.160,torte-q,2020.1.3,Win32,60,13905,0.99785,,,,,,,,,,,,,,0,32,32,17,1,,,,,,,,,,,,,,,,,,,,,,,,,,
,,,,,,,,,,,,l,Incorrect,,,,,,t5.png,t4.png,1,0.90025,19,female,2020-10-17_15h15.40.160,torte-q,2020.1.3,Win32,60,13905,0.146895,,,,,,,,,,,,,,0,33,33,26,1,,,,,,,,,,,,,,,,,,,,,,,,,,
,,,,,,,,,,,,a,Incorrect,,,,,,t3.png,t4.png,1,0.909,19,female,2020-10-17_15h15.40.160,torte-q,2020.1.3,Win32,60,13905,0.49613,,,,,,,,,,,,,,0,34,34,82,1,,,,,,,,,,,,,,,,,,,,,,,,,,
,,,,,,,,,,,,l,Correct!,,,,,,t4.png,t5.png,1,0.90025,19,female,2020-10-17_15h15.40.160,torte-q,2020.1.3,Win32,60,13905,0.94264,,,,,,,,,,,,,,0,35,35,47,1,,,,,,,,,,,,,,,,,,,,,,,,,,
,,,,,,,,,,,,a,Correct!,,,,,,t5.png,t5.png,0,0.97829,19,female,2020-10-17_15h15.40.160,torte-q,2020.1.3,Win32,60,13905,0.74734,,,,,,,,,,,,,,0,36,36,94,1,,,,,,,,,,,,,,,,,,,,,,,,,,
,,,,,,,,,,,,l,Correct!,,,,,,t1.png,t4.png,3,0.0000131,19,female,2020-10-17_15h15.40.160,torte-q,2020.1.3,Win32,60,13905,0.555165,,,,,,,,,,,,,,0,37,37,107,1,,,,,,,,,,,,,,,,,,,,,,,,,,
,,,,,,,,,,,,a,Incorrect,,,,,,t4.png,t2.png,2,0.059078,19,female,2020-10-17_15h15.40.160,torte-q,2020.1.3,Win32,60,13905,0.654755,,,,,,,,,,,,,,0,38,38,110,1,,,,,,,,,,,,,,,,,,,,,,,,,,
,,,,,,,,,,,,l,Correct!,,,,,,t1.png,t5.png,4,9.55E-11,19,female,2020-10-17_15h15.40.160,torte-q,2020.1.3,Win32,60,13905,0.53165,,,,,,,,,,,,,,0,39,39,16,1,,,,,,,,,,,,,,,,,,,,,,,,,,
,,,,,,,,,,,,a,Correct!,,,,,,t2.png,t3.png,1,0.90855,19,female,2020-10-17_15h15.40.160,torte-q,2020.1.3,Win32,60,13905,0.63719,,,,,,,,,,,,,,0,40,40,10,1,,,,,,,,,,,,,,,,,,,,,,,,,,
,,,,,,,,,,,,a,Correct!,,,,,,t2.png,t1.png,1,0.90025,19,female,2020-10-17_15h15.40.160,torte-q,2020.1.3,Win32,60,13905,1.170095,,,,,,,,,,,,,,0,41,41,19,1,,,,,,,,,,,,,,,,,,,,,,,,,,
,,,,,,,,,,,,a,Correct!,,,,,,t4.png,t5.png,1,0.90025,19,female,2020-10-17_15h15.40.160,torte-q,2020.1.3,Win32,60,13905,1.114145,,,,,,,,,,,,,,0,42,42,103,1,,,,,,,,,,,,,,,,,,,,,,,,,,
,,,,,,,,,,,,l,Correct!,,,,,,t4.png,t1.png,3,0.0000131,19,female,2020-10-17_15h15.40.160,torte-q,2020.1.3,Win32,60,13905,2.019695,,,,,,,,,,,,,,0,43,43,13,1,,,,,,,,,,,,,,,,,,,,,,,,,,
,,,,,,,,,,,,a,Correct!,,,,,,t4.png,t3.png,1,0.90855,19,female,2020-10-17_15h15.40.160,torte-q,2020.1.3,Win32,60,13905,0.432105,,,,,,,,,,,,,,0,44,44,45,1,,,,,,,,,,,,,,,,,,,,,,,,,,
,,,,,,,,,,,,a,Correct!,,,,,,t5.png,t5.png,0,0.978,19,female,2020-10-17_15h15.40.160,torte-q,2020.1.3,Win32,60,13905,0.95273,,,,,,,,,,,,,,0,45,45,117,1,,,,,,,,,,,,,,,,,,,,,,,,,,
,,,,,,,,,,,,l,Correct!,,,,,,t3.png,t2.png,1,0.909,19,female,2020-10-17_15h15.40.160,torte-q,2020.1.3,Win32,60,13905,0.91924,,,,,,,,,,,,,,0,46,46,23,1,,,,,,,,,,,,,,,,,,,,,,,,,,
,,,,,,,,,,,,l,Incorrect,,,,,,t3.png,t2.png,1,0.909,19,female,2020-10-17_15h15.40.160,torte-q,2020.1.3,Win32,60,13905,1.630095,,,,,,,,,,,,,,0,47,47,3,1,,,,,,,,,,,,,,,,,,,,,,,,,,
,,,,,,,,,,,,a,Correct!,,,,,,t5.png,t5.png,0,0.97829,19,female,2020-10-17_15h15.40.160,torte-q,2020.1.3,Win32,60,13905,0.826145,,,,,,,,,,,,,,0,48,48,73,1,,,,,,,,,,,,,,,,,,,,,,,,,,
,,,,,,,,,,,,l,Correct!,,,,,,t1.png,t5.png,4,9.55E-11,19,female,2020-10-17_15h15.40.160,torte-q,2020.1.3,Win32,60,13905,0.98013,,,,,,,,,,,,,,0,49,49,85,1,,,,,,,,,,,,,,,,,,,,,,,,,,
,,,,,,,,,,,,l,Incorrect,,,,,,t1.png,t3.png,2,0.056466,19,female,2020-10-17_15h15.40.160,torte-q,2020.1.3,Win32,60,13905,0.97989,,,,,,,,,,,,,,0,50,50,99,1,,,,,,,,,,,,,,,,,,,,,,,,,,
,,,,,,,,,,,,a,Incorrect,,,,,,t2.png,t4.png,2,0.059078,19,female,2020-10-17_15h15.40.160,torte-q,2020.1.3,Win32,60,13905,0.89761,,,,,,,,,,,,,,0,51,51,77,1,,,,,,,,,,,,,,,,,,,,,,,,,,
,,,,,,,,,,,,l,Correct!,,,,,,t2.png,t4.png,2,0.0591,19,female,2020-10-17_15h15.40.160,torte-q,2020.1.3,Win32,60,13905,0.55436,,,,,,,,,,,,,,0,52,52,15,1,,,,,,,,,,,,,,,,,,,,,,,,,,
,,,,,,,,,,,,l,Correct!,,,,,,t1.png,t3.png,2,0.056466,19,female,2020-10-17_15h15.40.160,torte-q,2020.1.3,Win32,60,13905,1.13112,,,,,,,,,,,,,,0,53,53,69,1,,,,,,,,,,,,,,,,,,,,,,,,,,
,,,,,,,,,,,,l,Correct!,,,,,,t1.png,t5.png,4,9.55E-11,19,female,2020-10-17_15h15.40.160,torte-q,2020.1.3,Win32,60,13905,0.299305,,,,,,,,,,,,,,0,54,54,12,1,,,,,,,,,,,,,,,,,,,,,,,,,,
,,,,,,,,,,,,l,Correct!,,,,,,t2.png,t4.png,2,0.059078,19,female,2020-10-17_15h15.40.160,torte-q,2020.1.3,Win32,60,13905,0.974475,,,,,,,,,,,,,,0,55,55,37,1,,,,,,,,,,,,,,,,,,,,,,,,,,
,,,,,,,,,,,,a,Incorrect,,,,,,t5.png,t1.png,4,9.55E-11,19,female,2020-10-17_15h15.40.160,torte-q,2020.1.3,Win32,60,13905,0.73546,,,,,,,,,,,,,,0,56,56,71,1,,,,,,,,,,,,,,,,,,,,,,,,,,
,,,,,,,,,,,,a,Correct!,,,,,,t4.png,t3.png,1,0.90855,19,female,2020-10-17_15h15.40.160,torte-q,2020.1.3,Win32,60,13905,2.08049,,,,,,,,,,,,,,0,57,57,75,1,,,,,,,,,,,,,,,,,,,,,,,,,,
,,,,,,,,,,,,a,Correct!,,,,,,t5.png,t4.png,1,0.9,19,female,2020-10-17_15h15.40.160,torte-q,2020.1.3,Win32,60,13905,0.782395,,,,,,,,,,,,,,0,58,58,49,1,,,,,,,,,,,,,,,,,,,,,,,,,,
,,,,,,,,,,,,l,Incorrect,,,,,,t2.png,t2.png,0,0.98115,19,female,2020-10-17_15h15.40.160,torte-q,2020.1.3,Win32,60,13905,1.489825,,,,,,,,,,,,,,0,59,59,2,1,,,,,,,,,,,,,,,,,,,,,,,,,,
,,,,,,,,,,,,a,Correct!,,,,,,t2.png,t1.png,1,0.90025,19,female,2020-10-17_15h15.40.160,torte-q,2020.1.3,Win32,60,13905,1.47989,,,,,,,,,,,,,,0,60,60,62,1,,,,,,,,,,,,,,,,,,,,,,,,,,
,,,,,,,,,,,,l,Incorrect,,,,,,t3.png,t5.png,2,0.056466,19,female,2020-10-17_15h15.40.160,torte-q,2020.1.3,Win32,60,13905,0.88127,,,,,,,,,,,,,,0,61,61,14,1,,,,,,,,,,,,,,,,,,,,,,,,,,
,,,,,,,,,,,,l,Correct!,,,,,,t2.png,t5.png,3,0.0000131,19,female,2020-10-17_15h15.40.160,torte-q,2020.1.3,Win32,60,13905,0.95599,,,,,,,,,,,,,,0,62,62,66,1,,,,,,,,,,,,,,,,,,,,,,,,,,
,,,,,,,,,,,,a,Incorrect,,,,,,t4.png,t1.png,3,0.0000131,19,female,2020-10-17_15h15.40.160,torte-q,2020.1.3,Win32,60,13905,0.98088,,,,,,,,,,,,,,0,63,63,93,1,,,,,,,,,,,,,,,,,,,,,,,,,,
,,,,,,,,,,,,l,Correct!,,,,,,t2.png,t3.png,1,0.90855,19,female,2020-10-17_15h15.40.160,torte-q,2020.1.3,Win32,60,13905,1.000115,,,,,,,,,,,,,,0,64,64,65,1,,,,,,,,,,,,,,,,,,,,,,,,,,
,,,,,,,,,,,,a,Correct!,,,,,,t4.png,t3.png,1,0.909,19,female,2020-10-17_15h15.40.160,torte-q,2020.1.3,Win32,60,13905,0.6729,,,,,,,,,,,,,,0,65,65,20,1,,,,,,,,,,,,,,,,,,,,,,,,,,
,,,,,,,,,,,,l,Incorrect,,,,,,t2.png,t2.png,0,0.98115,19,female,2020-10-17_15h15.40.160,torte-q,2020.1.3,Win32,60,13905,1.556275,,,,,,,,,,,,,,0,66,66,7,1,,,,,,,,,,,,,,,,,,,,,,,,,,
,,,,,,,,,,,,a,Incorrect,,,,,,t5.png,t2.png,3,0.0000131,19,female,2020-10-17_15h15.40.160,torte-q,2020.1.3,Win32,60,13905,0.7745,,,,,,,,,,,,,,0,67,67,119,1,,,,,,,,,,,,,,,,,,,,,,,,,,
,,,,,,,,,,,,l,Incorrect,,,,,,t2.png,t3.png,1,0.909,19,female,2020-10-17_15h15.40.160,torte-q,2020.1.3,Win32,60,13905,0.833235,,,,,,,,,,,,,,0,68,68,74,1,,,,,,,,,,,,,,,,,,,,,,,,,,
,,,,,,,,,,,,a,Incorrect,,,,,,t4.png,t3.png,1,0.90855,19,female,2020-10-17_15h15.40.160,torte-q,2020.1.3,Win32,60,13905,0.56523,,,,,,,,,,,,,,0,69,69,35,1,,,,,,,,,,,,,,,,,,,,,,,,,,
,,,,,,,,,,,,l,Correct!,,,,,,t2.png,t4.png,2,0.059078,19,female,2020-10-17_15h15.40.160,torte-q,2020.1.3,Win32,60,13905,0.71903,,,,,,,,,,,,,,0,70,70,11,1,,,,,,,,,,,,,,,,,,,,,,,,,,
,,,,,,,,,,,,a,Incorrect,,,,,,t2.png,t4.png,2,0.059078,19,female,2020-10-17_15h15.40.160,torte-q,2020.1.3,Win32,60,13905,0.767255,,,,,,,,,,,,,,0,71,71,24,1,,,,,,,,,,,,,,,,,,,,,,,,,,
,,,,,,,,,,,,a,Incorrect,,,,,,t4.png,t2.png,2,0.059078,19,female,2020-10-17_15h15.40.160,torte-q,2020.1.3,Win32,60,13905,1.300705,,,,,,,,,,,,,,0,72,72,86,1,,,,,,,,,,,,,,,,,,,,,,,,,,
,,,,,,,,,,,,a,Correct!,,,,,,t2.png,t1.png,1,0.90025,19,female,2020-10-17_15h15.40.160,torte-q,2020.1.3,Win32,60,13905,2.182675,,,,,,,,,,,,,,0,73,73,4,1,,,,,,,,,,,,,,,,,,,,,,,,,,
,,,,,,,,,,,,a,Correct!,,,,,,t1.png,t1.png,0,0.978,19,female,2020-10-17_15h15.40.160,torte-q,2020.1.3,Win32,60,13905,1.21407,,,,,,,,,,,,,,0,74,74,54,1,,,,,,,,,,,,,,,,,,,,,,,,,,
,,,,,,,,,,,,a,Correct!,,,,,,t4.png,t5.png,1,0.9,19,female,2020-10-17_15h15.40.160,torte-q,2020.1.3,Win32,60,13905,1.624115,,,,,,,,,,,,,,0,75,75,115,1,,,,,,,,,,,,,,,,,,,,,,,,,,
,,,,,,,,,,,,a,Incorrect,,,,,,t5.png,t1.png,4,9.55E-11,19,female,2020-10-17_15h15.40.160,torte-q,2020.1.3,Win32,60,13905,2.416235,,,,,,,,,,,,,,0,76,76,43,1,,,,,,,,,,,,,,,,,,,,,,,,,,
,,,,,,,,,,,,l,Correct!,,,,,,t1.png,t4.png,3,0.0000131,19,female,2020-10-17_15h15.40.160,torte-q,2020.1.3,Win32,60,13905,2.10421,,,,,,,,,,,,,,0,77,77,92,1,,,,,,,,,,,,,,,,,,,,,,,,,,
,,,,,,,,,,,,a,Correct!,,,,,,t5.png,t5.png,0,0.97829,19,female,2020-10-17_15h15.40.160,torte-q,2020.1.3,Win32,60,13905,0.779215,,,,,,,,,,,,,,0,78,78,25,1,,,,,,,,,,,,,,,,,,,,,,,,,,
,,,,,,,,,,,,a,Incorrect,,,,,,t5.png,t2.png,3,0.0000131,19,female,2020-10-17_15h15.40.160,torte-q,2020.1.3,Win32,60,13905,1.08414,,,,,,,,,,,,,,0,79,79,98,1,,,,,,,,,,,,,,,,,,,,,,,,,,
,,,,,,,,,,,,a,Incorrect,,,,,,t5.png,t1.png,4,9.55E-11,19,female,2020-10-17_15h15.40.160,torte-q,2020.1.3,Win32,60,13905,1.448125,,,,,,,,,,,,,,0,80,80,100,1,,,,,,,,,,,,,,,,,,,,,,,,,,
,,,,,,,,,,,,a,Correct!,,,,,,t4.png,t4.png,0,0.98115,19,female,2020-10-17_15h15.40.160,torte-q,2020.1.3,Win32,60,13905,1.730175,,,,,,,,,,,,,,0,81,81,90,1,,,,,,,,,,,,,,,,,,,,,,,,,,
,,,,,,,,,,,,l,Correct!,,,,,,t3.png,t4.png,1,0.909,19,female,2020-10-17_15h15.40.160,torte-q,2020.1.3,Win32,60,13905,0.75298,,,,,,,,,,,,,,0,82,82,106,1,,,,,,,,,,,,,,,,,,,,,,,,,,
,,,,,,,,,,,,a,Incorrect,,,,,,t1.png,t3.png,2,0.056466,19,female,2020-10-17_15h15.40.160,torte-q,2020.1.3,Win32,60,13905,0.69804,,,,,,,,,,,,,,0,83,83,63,1,,,,,,,,,,,,,,,,,,,,,,,,,,
,,,,,,,,,,,,l,Incorrect,,,,,,t2.png,t2.png,0,0.981,19,female,2020-10-17_15h15.40.160,torte-q,2020.1.3,Win32,60,13905,0.792565,,,,,,,,,,,,,,0,84,84,101,1,,,,,,,,,,,,,,,,,,,,,,,,,,
,,,,,,,,,,,,a,Incorrect,,,,,,t1.png,t3.png,2,0.056466,19,female,2020-10-17_15h15.40.160,torte-q,2020.1.3,Win32,60,13905,0.963125,,,,,,,,,,,,,,0,85,85,87,1,,,,,,,,,,,,,,,,,,,,,,,,,,
,,,,,,,,,,,,,Too slow :(,,,,,,t1.png,t4.png,3,0.0000131,19,female,2020-10-17_15h15.40.160,torte-q,2020.1.3,Win32,60,13905,,,,,,,,,,,,,,,0,86,86,50,1,,,,,,,,,,,,,,,,,,,,,,,,,,
,,,,,,,,,,,,l,Incorrect,,,,,,t4.png,t5.png,1,0.90025,19,female,2020-10-17_15h15.40.160,torte-q,2020.1.3,Win32,60,13905,0.8556,,,,,,,,,,,,,,0,87,87,58,1,,,,,,,,,,,,,,,,,,,,,,,,,,
,,,,,,,,,,,,l,Correct!,,,,,,t1.png,t3.png,2,0.056466,19,female,2020-10-17_15h15.40.160,torte-q,2020.1.3,Win32,60,13905,0.771595,,,,,,,,,,,,,,0,88,88,60,1,,,,,,,,,,,,,,,,,,,,,,,,,,
,,,,,,,,,,,,a,Correct!,,,,,,t4.png,t4.png,0,0.98115,19,female,2020-10-17_15h15.40.160,torte-q,2020.1.3,Win32,60,13905,1.288295,,,,,,,,,,,,,,0,89,89,21,1,,,,,,,,,,,,,,,,,,,,,,,,,,
,,,,,,,,,,,,a,Incorrect,,,,,,t5.png,t3.png,2,0.056466,19,female,2020-10-17_15h15.40.160,torte-q,2020.1.3,Win32,60,13905,0.74407,,,,,,,,,,,,,,0,90,90,38,1,,,,,,,,,,,,,,,,,,,,,,,,,,
,,,,,,,,,,,,l,Incorrect,,,,,,t1.png,t2.png,1,0.90025,19,female,2020-10-17_15h15.40.160,torte-q,2020.1.3,Win32,60,13905,1.01377,,,,,,,,,,,,,,0,91,91,72,1,,,,,,,,,,,,,,,,,,,,,,,,,,
,,,,,,,,,,,,a,Correct!,,,,,,t3.png,t2.png,1,0.90855,19,female,2020-10-17_15h15.40.160,torte-q,2020.1.3,Win32,60,13905,0.680925,,,,,,,,,,,,,,0,92,92,53,1,,,,,,,,,,,,,,,,,,,,,,,,,,
,,,,,,,,,,,,l,Incorrect,,,,,,t3.png,t4.png,1,0.90855,19,female,2020-10-17_15h15.40.160,torte-q,2020.1.3,Win32,60,13905,1.36365,,,,,,,,,,,,,,0,93,93,84,1,,,,,,,,,,,,,,,,,,,,,,,,,,
,,,,,,,,,,,,l,Correct!,,,,,,t3.png,t5.png,2,0.056466,19,female,2020-10-17_15h15.40.160,torte-q,2020.1.3,Win32,60,13905,0.814595,,,,,,,,,,,,,,0,94,94,6,1,,,,,,,,,,,,,,,,,,,,,,,,,,
,,,,,,,,,,,,a,Correct!,,,,,,t5.png,t4.png,1,0.90025,19,female,2020-10-17_15h15.40.160,torte-q,2020.1.3,Win32,60,13905,0.63617,,,,,,,,,,,,,,0,95,95,34,1,,,,,,,,,,,,,,,,,,,,,,,,,,
,,,,,,,,,,,,l,Incorrect,,,,,,t2.png,t2.png,0,0.98115,19,female,2020-10-17_15h15.40.160,torte-q,2020.1.3,Win32,60,13905,1.33116,,,,,,,,,,,,,,0,96,96,57,1,,,,,,,,,,,,,,,,,,,,,,,,,,
,,,,,,,,,,,,l,Incorrect,,,,,,t3.png,t4.png,1,0.909,19,female,2020-10-17_15h15.40.160,torte-q,2020.1.3,Win32,60,13905,0.79804,,,,,,,,,,,,,,0,97,97,89,1,,,,,,,,,,,,,,,,,,,,,,,,,,
,,,,,,,,,,,,l,Incorrect,,,,,,t1.png,t2.png,1,0.90025,19,female,2020-10-17_15h15.40.160,torte-q,2020.1.3,Win32,60,13905,0.714915,,,,,,,,,,,,,,0,98,98,105,1,,,,,,,,,,,,,,,,,,,,,,,,,,
,,,,,,,,,,,,l,Incorrect,,,,,,t2.png,t2.png,0,0.98115,19,female,2020-10-17_15h15.40.160,torte-q,2020.1.3,Win32,60,13905,0.7219,,,,,,,,,,,,,,0,99,99,59,1,,,,,,,,,,,,,,,,,,,,,,,,,,
,,,,,,,,,,,,a,Incorrect,,,,,,t4.png,t1.png,3,0.0000131,19,female,2020-10-17_15h15.40.160,torte-q,2020.1.3,Win32,60,13905,0.70119,,,,,,,,,,,,,,0,100,100,48,1,,,,,,,,,,,,,,,,,,,,,,,,,,
,,,,,,,,,,,,a,Correct!,,,,,,t4.png,t2.png,2,0.0591,19,female,2020-10-17_15h15.40.160,torte-q,2020.1.3,Win32,60,13905,1.082465,,,,,,,,,,,,,,0,101,101,36,1,,,,,,,,,,,,,,,,,,,,,,,,,,
,,,,,,,,,,,,a,Incorrect,,,,,,t3.png,t1.png,2,0.056466,19,female,2020-10-17_15h15.40.160,torte-q,2020.1.3,Win32,60,13905,1.029155,,,,,,,,,,,,,,0,102,102,32,1,,,,,,,,,,,,,,,,,,,,,,,,,,
,,,,,,,,,,,,a,Incorrect,,,,,,t4.png,t1.png,3,0.0000131,19,female,2020-10-17_15h15.40.160,torte-q,2020.1.3,Win32,60,13905,0.73041,,,,,,,,,,,,,,0,103,103,61,1,,,,,,,,,,,,,,,,,,,,,,,,,,
,,,,,,,,,,,,l,Correct!,,,,,,t1.png,t4.png,3,0.0000131,19,female,2020-10-17_15h15.40.160,torte-q,2020.1.3,Win32,60,13905,1.14381,,,,,,,,,,,,,,0,104,104,81,1,,,,,,,,,,,,,,,,,,,,,,,,,,
,,,,,,,,,,,,l,Incorrect,,,,,,t3.png,t4.png,1,0.90855,19,female,2020-10-17_15h15.40.160,torte-q,2020.1.3,Win32,60,13905,1.195835,,,,,,,,,,,,,,0,105,105,96,1,,,,,,,,,,,,,,,,,,,,,,,,,,
,,,,,,,,,,,,l,Incorrect,,,,,,t4.png,t4.png,0,0.98115,19,female,2020-10-17_15h15.40.160,torte-q,2020.1.3,Win32,60,13905,0.765145,,,,,,,,,,,,,,0,106,106,52,1,,,,,,,,,,,,,,,,,,,,,,,,,,
,,,,,,,,,,,,a,Correct!,,,,,,t5.png,t4.png,1,0.90025,19,female,2020-10-17_15h15.40.160,torte-q,2020.1.3,Win32,60,13905,0.79738,,,,,,,,,,,,,,0,107,107,27,1,,,,,,,,,,,,,,,,,,,,,,,,,,
,,,,,,,,,,,,a,Correct!,,,,,,t4.png,t4.png,0,0.98115,19,female,2020-10-17_15h15.40.160,torte-q,2020.1.3,Win32,60,13905,0.821815,,,,,,,,,,,,,,0,108,108,79,1,,,,,,,,,,,,,,,,,,,,,,,,,,
,,,,,,,,,,,,a,Incorrect,,,,,,t4.png,t2.png,2,0.059078,19,female,2020-10-17_15h15.40.160,torte-q,2020.1.3,Win32,60,13905,1.423085,,,,,,,,,,,,,,0,109,109,109,1,,,,,,,,,,,,,,,,,,,,,,,,,,
,,,,,,,,,,,,l,Correct!,,,,,,t3.png,t5.png,2,0.056466,19,female,2020-10-17_15h15.40.160,torte-q,2020.1.3,Win32,60,13905,1.053675,,,,,,,,,,,,,,0,110,110,44,1,,,,,,,,,,,,,,,,,,,,,,,,,,
,,,,,,,,,,,,a,Correct!,,,,,,t4.png,t5.png,1,0.90025,19,female,2020-10-17_15h15.40.160,torte-q,2020.1.3,Win32,60,13905,0.581605,,,,,,,,,,,,,,0,111,111,113,1,,,,,,,,,,,,,,,,,,,,,,,,,,
,,,,,,,,,,,,a,Incorrect,,,,,,t5.png,t2.png,3,0.0000131,19,female,2020-10-17_15h15.40.160,torte-q,2020.1.3,Win32,60,13905,1.603135,,,,,,,,,,,,,,0,112,112,51,1,,,,,,,,,,,,,,,,,,,,,,,,,,
,,,,,,,,,,,,l,Correct!,,,,,,t2.png,t5.png,3,0.0000131,19,female,2020-10-17_15h15.40.160,torte-q,2020.1.3,Win32,60,13905,0.638705,,,,,,,,,,,,,,0,113,113,40,1,,,,,,,,,,,,,,,,,,,,,,,,,,
,,,,,,,,,,,,l,Incorrect,,,,,,t2.png,t1.png,1,0.90025,19,female,2020-10-17_15h15.40.160,torte-q,2020.1.3,Win32,60,13905,0.51655,,,,,,,,,,,,,,0,114,114,5,1,,,,,,,,,,,,,,,,,,,,,,,,,,
,,,,,,,,,,,,a,Correct!,,,,,,t5.png,t4.png,1,0.9,19,female,2020-10-17_15h15.40.160,torte-q,2020.1.3,Win32,60,13905,0.6498,,,,,,,,,,,,,,0,115,115,76,1,,,,,,,,,,,,,,,,,,,,,,,,,,
,,,,,,,,,,,,a,Correct!,,,,,,t3.png,t2.png,1,0.90855,19,female,2020-10-17_15h15.40.160,torte-q,2020.1.3,Win32,60,13905,1.114625,,,,,,,,,,,,,,0,116,116,18,1,,,,,,,,,,,,,,,,,,,,,,,,,,
,,,,,,,,,,,,a,Correct!,,,,,,t2.png,t1.png,1,0.9,19,female,2020-10-17_15h15.40.160,torte-q,2020.1.3,Win32,60,13905,0.6978,,,,,,,,,,,,,,0,117,117,118,1,,,,,,,,,,,,,,,,,,,,,,,,,,
,,,,,,,,,,,,a,Correct!,,,,,,t5.png,t3.png,2,0.056466,19,female,2020-10-17_15h15.40.160,torte-q,2020.1.3,Win32,60,13905,0.90826,,,,,,,,,,,,,,0,118,118,108,1,,,,,,,,,,,,,,,,,,,,,,,,,,
,,,,,,,,,,,,l,Correct!,,,,,,t1.png,t5.png,4,9.55E-11,19,female,2020-10-17_15h15.40.160,torte-q,2020.1.3,Win32,60,13905,0.6943,,,,,,,,,,,,,,0,119,119,55,1,,,,,,,,,,,,,,,,,,,,,,,,,,
,,,,,,,,,,,,,,,,,,,,,,,19,female,2020-10-17_15h15.40.160,torte-q,2020.1.3,Win32,60,13905,,space,2.369595,,,,,,,,,,,,,,,,,3.49,24.948635,17,-116,1,0,0,s6,32,26,1,0,0,t2,287,-100,1,0,0,proceed,space,26.026045,space,11.979355,space,5.208925
