key_resp_8.keys,key_resp_8.rt,key_resp_9.keys,key_resp_9.rt,key_resp_10.keys,key_resp_10.rt,key_resp_11.keys,key_resp_11.rt,key_resp_2.keys,key_resp_2.rt,key_resp_3.keys,key_resp_3.rt,key_resp.keys,Feedback,train.thisRepN,train.thisTrialN,train.thisN,train.thisIndex,train.ran,torta_sx,torta_dx,difference,probability,age,gender,date,expName,psychopyVersion,OS,frameRate,participant,key_resp.rt,key_resp_15.keys,key_resp_15.rt,key_resp_6.keys,key_resp_6.rt,test1.thisRepN,test1.thisTrialN,test1.thisN,test1.thisIndex,test1.ran,key_resp_16.keys,key_resp_16.rt,key_resp_7.keys,key_resp_7.rt,test2.thisRepN,test2.thisTrialN,test2.thisN,test2.thisIndex,test2.ran,rating.response,rating.rt,mouse.x,mouse.y,mouse.leftButton,mouse.midButton,mouse.rightButton,mouse.clicked_name,mouse_2.x,mouse_2.y,mouse_2.leftButton,mouse_2.midButton,mouse_2.rightButton,mouse_2.clicked_name,mouse_3.x,mouse_3.y,mouse_3.leftButton,mouse_3.midButton,mouse_3.rightButton,mouse_3.clicked_name,key_resp_12.keys,key_resp_12.rt,key_resp_13.keys,key_resp_13.rt,key_resp_14.keys,key_resp_14.rt
space,29.949335,space,4.38049,space,1.605285,space,5.474255,space,13.71702,space,24.995295,,Too slow :(,0,0,0,106,1,t2.png,t3.png,1,0.90855,19,female,2020-11-09_17h58.05.596,torte-q,2020.1.3,Win32,60,13966,,,,,,,,,,,,,,,,,,,,,,,,,,,,,,,,,,,,,,,,,,,,,
,,,,,,,,,,,,l,Incorrect,0,1,1,66,1,t4.png,t5.png,1,0.9,19,female,2020-11-09_17h58.05.596,torte-q,2020.1.3,Win32,60,13966,1.19874,,,,,,,,,,,,,,,,,,,,,,,,,,,,,,,,,,,,,,,,,,,,
,,,,,,,,,,,,a,Correct!,0,2,2,42,1,t5.png,t4.png,1,0.90025,19,female,2020-11-09_17h58.05.596,torte-q,2020.1.3,Win32,60,13966,1.08934,,,,,,,,,,,,,,,,,,,,,,,,,,,,,,,,,,,,,,,,,,,,
,,,,,,,,,,,,a,Correct!,0,3,3,109,1,t5.png,t5.png,0,0.97829,19,female,2020-11-09_17h58.05.596,torte-q,2020.1.3,Win32,60,13966,0.839105,,,,,,,,,,,,,,,,,,,,,,,,,,,,,,,,,,,,,,,,,,,,
,,,,,,,,,,,,a,Correct!,0,4,4,79,1,t3.png,t2.png,1,0.909,19,female,2020-11-09_17h58.05.596,torte-q,2020.1.3,Win32,60,13966,1.119165,,,,,,,,,,,,,,,,,,,,,,,,,,,,,,,,,,,,,,,,,,,,
,,,,,,,,,,,,a,Correct!,0,5,5,16,1,t5.png,t4.png,1,0.9,19,female,2020-11-09_17h58.05.596,torte-q,2020.1.3,Win32,60,13966,0.88484,,,,,,,,,,,,,,,,,,,,,,,,,,,,,,,,,,,,,,,,,,,,
,,,,,,,,,,,,a,Incorrect,0,6,6,26,1,t4.png,t2.png,2,0.0591,19,female,2020-11-09_17h58.05.596,torte-q,2020.1.3,Win32,60,13966,0.900285,,,,,,,,,,,,,,,,,,,,,,,,,,,,,,,,,,,,,,,,,,,,
,,,,,,,,,,,,l,Correct!,0,7,7,4,1,t1.png,t5.png,4,9.55E-11,19,female,2020-11-09_17h58.05.596,torte-q,2020.1.3,Win32,60,13966,1.11773,,,,,,,,,,,,,,,,,,,,,,,,,,,,,,,,,,,,,,,,,,,,
,,,,,,,,,,,,l,Correct!,0,8,8,61,1,t1.png,t4.png,3,0.0000131,19,female,2020-11-09_17h58.05.596,torte-q,2020.1.3,Win32,60,13966,1.26863,,,,,,,,,,,,,,,,,,,,,,,,,,,,,,,,,,,,,,,,,,,,
,,,,,,,,,,,,a,Correct!,0,9,9,15,1,t3.png,t2.png,1,0.90855,19,female,2020-11-09_17h58.05.596,torte-q,2020.1.3,Win32,60,13966,0.968965,,,,,,,,,,,,,,,,,,,,,,,,,,,,,,,,,,,,,,,,,,,,
,,,,,,,,,,,,l,Correct!,0,10,10,55,1,t2.png,t4.png,2,0.059078,19,female,2020-11-09_17h58.05.596,torte-q,2020.1.3,Win32,60,13966,0.90247,,,,,,,,,,,,,,,,,,,,,,,,,,,,,,,,,,,,,,,,,,,,
,,,,,,,,,,,,l,Correct!,0,11,11,32,1,t4.png,t5.png,1,0.90025,19,female,2020-11-09_17h58.05.596,torte-q,2020.1.3,Win32,60,13966,0.88458,,,,,,,,,,,,,,,,,,,,,,,,,,,,,,,,,,,,,,,,,,,,
,,,,,,,,,,,,a,Incorrect,0,12,12,102,1,t4.png,t2.png,2,0.059078,19,female,2020-11-09_17h58.05.596,torte-q,2020.1.3,Win32,60,13966,0.68544,,,,,,,,,,,,,,,,,,,,,,,,,,,,,,,,,,,,,,,,,,,,
,,,,,,,,,,,,l,Incorrect,0,13,13,44,1,t2.png,t3.png,1,0.909,19,female,2020-11-09_17h58.05.596,torte-q,2020.1.3,Win32,60,13966,0.80283,,,,,,,,,,,,,,,,,,,,,,,,,,,,,,,,,,,,,,,,,,,,
,,,,,,,,,,,,l,Correct!,0,14,14,91,1,t1.png,t4.png,3,0.0000131,19,female,2020-11-09_17h58.05.596,torte-q,2020.1.3,Win32,60,13966,1.00243,,,,,,,,,,,,,,,,,,,,,,,,,,,,,,,,,,,,,,,,,,,,
,,,,,,,,,,,,a,Incorrect,0,15,15,24,1,t4.png,t2.png,2,0.059078,19,female,2020-11-09_17h58.05.596,torte-q,2020.1.3,Win32,60,13966,0.8355,,,,,,,,,,,,,,,,,,,,,,,,,,,,,,,,,,,,,,,,,,,,
,,,,,,,,,,,,l,Correct!,0,16,16,5,1,t2.png,t4.png,2,0.059078,19,female,2020-11-09_17h58.05.596,torte-q,2020.1.3,Win32,60,13966,0.93567,,,,,,,,,,,,,,,,,,,,,,,,,,,,,,,,,,,,,,,,,,,,
,,,,,,,,,,,,l,Correct!,0,17,17,17,1,t1.png,t4.png,3,0.0000131,19,female,2020-11-09_17h58.05.596,torte-q,2020.1.3,Win32,60,13966,2.14748,,,,,,,,,,,,,,,,,,,,,,,,,,,,,,,,,,,,,,,,,,,,
,,,,,,,,,,,,l,Incorrect,0,18,18,13,1,t5.png,t5.png,0,0.97829,19,female,2020-11-09_17h58.05.596,torte-q,2020.1.3,Win32,60,13966,1.468675,,,,,,,,,,,,,,,,,,,,,,,,,,,,,,,,,,,,,,,,,,,,
,,,,,,,,,,,,a,Correct!,0,19,19,2,1,t3.png,t2.png,1,0.90855,19,female,2020-11-09_17h58.05.596,torte-q,2020.1.3,Win32,60,13966,0.935615,,,,,,,,,,,,,,,,,,,,,,,,,,,,,,,,,,,,,,,,,,,,
,,,,,,,,,,,,a,Incorrect,0,20,20,12,1,t5.png,t1.png,4,9.55E-11,19,female,2020-11-09_17h58.05.596,torte-q,2020.1.3,Win32,60,13966,0.735575,,,,,,,,,,,,,,,,,,,,,,,,,,,,,,,,,,,,,,,,,,,,
,,,,,,,,,,,,l,Incorrect,0,21,21,81,1,t1.png,t1.png,0,0.97829,19,female,2020-11-09_17h58.05.596,torte-q,2020.1.3,Win32,60,13966,1.10267,,,,,,,,,,,,,,,,,,,,,,,,,,,,,,,,,,,,,,,,,,,,
,,,,,,,,,,,,a,Correct!,0,22,22,58,1,t5.png,t4.png,1,0.90025,19,female,2020-11-09_17h58.05.596,torte-q,2020.1.3,Win32,60,13966,1.519615,,,,,,,,,,,,,,,,,,,,,,,,,,,,,,,,,,,,,,,,,,,,
,,,,,,,,,,,,,Too slow :(,0,23,23,90,1,t1.png,t5.png,4,9.55E-11,19,female,2020-11-09_17h58.05.596,torte-q,2020.1.3,Win32,60,13966,,,,,,,,,,,,,,,,,,,,,,,,,,,,,,,,,,,,,,,,,,,,,
,,,,,,,,,,,,a,Correct!,0,24,24,76,1,t3.png,t2.png,1,0.90855,19,female,2020-11-09_17h58.05.596,torte-q,2020.1.3,Win32,60,13966,0.920625,,,,,,,,,,,,,,,,,,,,,,,,,,,,,,,,,,,,,,,,,,,,
,,,,,,,,,,,,a,Correct!,0,25,25,62,1,t5.png,t5.png,0,0.978,19,female,2020-11-09_17h58.05.596,torte-q,2020.1.3,Win32,60,13966,2.152275,,,,,,,,,,,,,,,,,,,,,,,,,,,,,,,,,,,,,,,,,,,,
,,,,,,,,,,,,a,Correct!,0,26,26,29,1,t5.png,t5.png,0,0.97829,19,female,2020-11-09_17h58.05.596,torte-q,2020.1.3,Win32,60,13966,0.849555,,,,,,,,,,,,,,,,,,,,,,,,,,,,,,,,,,,,,,,,,,,,
,,,,,,,,,,,,a,Incorrect,0,27,27,33,1,t5.png,t1.png,4,9.55E-11,19,female,2020-11-09_17h58.05.596,torte-q,2020.1.3,Win32,60,13966,0.783925,,,,,,,,,,,,,,,,,,,,,,,,,,,,,,,,,,,,,,,,,,,,
,,,,,,,,,,,,l,Incorrect,0,28,28,85,1,t3.png,t2.png,1,0.90855,19,female,2020-11-09_17h58.05.596,torte-q,2020.1.3,Win32,60,13966,1.035935,,,,,,,,,,,,,,,,,,,,,,,,,,,,,,,,,,,,,,,,,,,,
,,,,,,,,,,,,a,Incorrect,0,29,29,35,1,t1.png,t4.png,3,0.0000131,19,female,2020-11-09_17h58.05.596,torte-q,2020.1.3,Win32,60,13966,1.036755,,,,,,,,,,,,,,,,,,,,,,,,,,,,,,,,,,,,,,,,,,,,
,,,,,,,,,,,,l,Incorrect,0,30,30,113,1,t5.png,t4.png,1,0.9,19,female,2020-11-09_17h58.05.596,torte-q,2020.1.3,Win32,60,13966,1.252725,,,,,,,,,,,,,,,,,,,,,,,,,,,,,,,,,,,,,,,,,,,,
,,,,,,,,,,,,a,Incorrect,0,31,31,72,1,t4.png,t2.png,2,0.059078,19,female,2020-11-09_17h58.05.596,torte-q,2020.1.3,Win32,60,13966,0.734855,,,,,,,,,,,,,,,,,,,,,,,,,,,,,,,,,,,,,,,,,,,,
,,,,,,,,,,,,l,Correct!,0,32,32,0,1,t5.png,t1.png,4,9.55E-11,19,female,2020-11-09_17h58.05.596,torte-q,2020.1.3,Win32,60,13966,1.03569,,,,,,,,,,,,,,,,,,,,,,,,,,,,,,,,,,,,,,,,,,,,
,,,,,,,,,,,,l,Incorrect,0,33,33,114,1,t2.png,t3.png,1,0.90855,19,female,2020-11-09_17h58.05.596,torte-q,2020.1.3,Win32,60,13966,0.978595,,,,,,,,,,,,,,,,,,,,,,,,,,,,,,,,,,,,,,,,,,,,
,,,,,,,,,,,,a,Incorrect,0,34,34,117,1,t1.png,t5.png,4,9.55E-11,19,female,2020-11-09_17h58.05.596,torte-q,2020.1.3,Win32,60,13966,1.91835,,,,,,,,,,,,,,,,,,,,,,,,,,,,,,,,,,,,,,,,,,,,
,,,,,,,,,,,,a,Incorrect,0,35,35,73,1,t4.png,t2.png,2,0.059078,19,female,2020-11-09_17h58.05.596,torte-q,2020.1.3,Win32,60,13966,0.57307,,,,,,,,,,,,,,,,,,,,,,,,,,,,,,,,,,,,,,,,,,,,
,,,,,,,,,,,,l,Incorrect,0,36,36,49,1,t4.png,t5.png,1,0.9,19,female,2020-11-09_17h58.05.596,torte-q,2020.1.3,Win32,60,13966,0.74088,,,,,,,,,,,,,,,,,,,,,,,,,,,,,,,,,,,,,,,,,,,,
,,,,,,,,,,,,a,Correct!,0,37,37,21,1,t5.png,t4.png,1,0.90025,19,female,2020-11-09_17h58.05.596,torte-q,2020.1.3,Win32,60,13966,0.61848,,,,,,,,,,,,,,,,,,,,,,,,,,,,,,,,,,,,,,,,,,,,
,,,,,,,,,,,,a,Correct!,0,38,38,74,1,t5.png,t4.png,1,0.9,19,female,2020-11-09_17h58.05.596,torte-q,2020.1.3,Win32,60,13966,0.887355,,,,,,,,,,,,,,,,,,,,,,,,,,,,,,,,,,,,,,,,,,,,
,,,,,,,,,,,,a,Incorrect,0,39,39,87,1,t5.png,t1.png,4,9.55E-11,19,female,2020-11-09_17h58.05.596,torte-q,2020.1.3,Win32,60,13966,0.501235,,,,,,,,,,,,,,,,,,,,,,,,,,,,,,,,,,,,,,,,,,,,
,,,,,,,,,,,,l,Incorrect,0,40,40,110,1,t4.png,t5.png,1,0.90025,19,female,2020-11-09_17h58.05.596,torte-q,2020.1.3,Win32,60,13966,0.919765,,,,,,,,,,,,,,,,,,,,,,,,,,,,,,,,,,,,,,,,,,,,
,,,,,,,,,,,,l,Correct!,0,41,41,40,1,t1.png,t5.png,4,9.55E-11,19,female,2020-11-09_17h58.05.596,torte-q,2020.1.3,Win32,60,13966,0.718875,,,,,,,,,,,,,,,,,,,,,,,,,,,,,,,,,,,,,,,,,,,,
,,,,,,,,,,,,l,Incorrect,0,42,42,22,1,t2.png,t3.png,1,0.90855,19,female,2020-11-09_17h58.05.596,torte-q,2020.1.3,Win32,60,13966,0.60264,,,,,,,,,,,,,,,,,,,,,,,,,,,,,,,,,,,,,,,,,,,,
,,,,,,,,,,,,l,Correct!,0,43,43,98,1,t2.png,t4.png,2,0.0591,19,female,2020-11-09_17h58.05.596,torte-q,2020.1.3,Win32,60,13966,0.92657,,,,,,,,,,,,,,,,,,,,,,,,,,,,,,,,,,,,,,,,,,,,
,,,,,,,,,,,,l,Incorrect,0,44,44,9,1,t4.png,t5.png,1,0.9,19,female,2020-11-09_17h58.05.596,torte-q,2020.1.3,Win32,60,13966,0.86893,,,,,,,,,,,,,,,,,,,,,,,,,,,,,,,,,,,,,,,,,,,,
,,,,,,,,,,,,a,Incorrect,0,45,45,56,1,t5.png,t1.png,4,9.55E-11,19,female,2020-11-09_17h58.05.596,torte-q,2020.1.3,Win32,60,13966,0.535515,,,,,,,,,,,,,,,,,,,,,,,,,,,,,,,,,,,,,,,,,,,,
,,,,,,,,,,,,l,Incorrect,0,46,46,65,1,t4.png,t5.png,1,0.90025,19,female,2020-11-09_17h58.05.596,torte-q,2020.1.3,Win32,60,13966,0.80087,,,,,,,,,,,,,,,,,,,,,,,,,,,,,,,,,,,,,,,,,,,,
,,,,,,,,,,,,a,Incorrect,0,47,47,53,1,t3.png,t1.png,2,0.056466,19,female,2020-11-09_17h58.05.596,torte-q,2020.1.3,Win32,60,13966,1.03633,,,,,,,,,,,,,,,,,,,,,,,,,,,,,,,,,,,,,,,,,,,,
,,,,,,,,,,,,l,Correct!,0,48,48,60,1,t2.png,t4.png,2,0.059078,19,female,2020-11-09_17h58.05.596,torte-q,2020.1.3,Win32,60,13966,0.70722,,,,,,,,,,,,,,,,,,,,,,,,,,,,,,,,,,,,,,,,,,,,
,,,,,,,,,,,,l,Incorrect,0,49,49,41,1,t3.png,t2.png,1,0.90855,19,female,2020-11-09_17h58.05.596,torte-q,2020.1.3,Win32,60,13966,1.419595,,,,,,,,,,,,,,,,,,,,,,,,,,,,,,,,,,,,,,,,,,,,
,,,,,,,,,,,,a,Incorrect,0,50,50,30,1,t3.png,t1.png,2,0.056466,19,female,2020-11-09_17h58.05.596,torte-q,2020.1.3,Win32,60,13966,1.28191,,,,,,,,,,,,,,,,,,,,,,,,,,,,,,,,,,,,,,,,,,,,
,,,,,,,,,,,,l,Incorrect,0,51,51,104,1,t2.png,t3.png,1,0.90855,19,female,2020-11-09_17h58.05.596,torte-q,2020.1.3,Win32,60,13966,1.820525,,,,,,,,,,,,,,,,,,,,,,,,,,,,,,,,,,,,,,,,,,,,
,,,,,,,,,,,,a,Incorrect,0,52,52,111,1,t5.png,t1.png,4,9.55E-11,19,female,2020-11-09_17h58.05.596,torte-q,2020.1.3,Win32,60,13966,0.575705,,,,,,,,,,,,,,,,,,,,,,,,,,,,,,,,,,,,,,,,,,,,
,,,,,,,,,,,,l,Incorrect,0,53,53,28,1,t2.png,t3.png,1,0.909,19,female,2020-11-09_17h58.05.596,torte-q,2020.1.3,Win32,60,13966,0.369795,,,,,,,,,,,,,,,,,,,,,,,,,,,,,,,,,,,,,,,,,,,,
,,,,,,,,,,,,l,Correct!,0,54,54,1,1,t2.png,t4.png,2,0.059078,19,female,2020-11-09_17h58.05.596,torte-q,2020.1.3,Win32,60,13966,1.152845,,,,,,,,,,,,,,,,,,,,,,,,,,,,,,,,,,,,,,,,,,,,
,,,,,,,,,,,,a,Correct!,0,55,55,8,1,t3.png,t2.png,1,0.90855,19,female,2020-11-09_17h58.05.596,torte-q,2020.1.3,Win32,60,13966,0.554535,,,,,,,,,,,,,,,,,,,,,,,,,,,,,,,,,,,,,,,,,,,,
,,,,,,,,,,,,l,Incorrect,0,56,56,20,1,t2.png,t3.png,1,0.90855,19,female,2020-11-09_17h58.05.596,torte-q,2020.1.3,Win32,60,13966,1.02375,,,,,,,,,,,,,,,,,,,,,,,,,,,,,,,,,,,,,,,,,,,,
,,,,,,,,,,,,a,Incorrect,0,57,57,89,1,t1.png,t4.png,3,0.0000131,19,female,2020-11-09_17h58.05.596,torte-q,2020.1.3,Win32,60,13966,1.11972,,,,,,,,,,,,,,,,,,,,,,,,,,,,,,,,,,,,,,,,,,,,
,,,,,,,,,,,,a,Correct!,0,58,58,77,1,t1.png,t1.png,0,0.97829,19,female,2020-11-09_17h58.05.596,torte-q,2020.1.3,Win32,60,13966,2.30999,,,,,,,,,,,,,,,,,,,,,,,,,,,,,,,,,,,,,,,,,,,,
,,,,,,,,,,,,l,Correct!,0,59,59,119,1,t1.png,t5.png,4,9.55E-11,19,female,2020-11-09_17h58.05.596,torte-q,2020.1.3,Win32,60,13966,0.786995,,,,,,,,,,,,,,,,,,,,,,,,,,,,,,,,,,,,,,,,,,,,
,,,,,,,,,,,,l,Correct!,0,60,60,93,1,t2.png,t4.png,2,0.059078,19,female,2020-11-09_17h58.05.596,torte-q,2020.1.3,Win32,60,13966,1.653475,,,,,,,,,,,,,,,,,,,,,,,,,,,,,,,,,,,,,,,,,,,,
,,,,,,,,,,,,l,Correct!,0,61,61,68,1,t1.png,t4.png,3,0.0000131,19,female,2020-11-09_17h58.05.596,torte-q,2020.1.3,Win32,60,13966,1.336125,,,,,,,,,,,,,,,,,,,,,,,,,,,,,,,,,,,,,,,,,,,,
,,,,,,,,,,,,a,Incorrect,0,62,62,86,1,t3.png,t1.png,2,0.056466,19,female,2020-11-09_17h58.05.596,torte-q,2020.1.3,Win32,60,13966,0.562105,,,,,,,,,,,,,,,,,,,,,,,,,,,,,,,,,,,,,,,,,,,,
,,,,,,,,,,,,l,Correct!,0,63,63,105,1,t3.png,t2.png,1,0.90855,19,female,2020-11-09_17h58.05.596,torte-q,2020.1.3,Win32,60,13966,0.78905,,,,,,,,,,,,,,,,,,,,,,,,,,,,,,,,,,,,,,,,,,,,
,,,,,,,,,,,,a,Correct!,0,64,64,34,1,t5.png,t4.png,1,0.9,19,female,2020-11-09_17h58.05.596,torte-q,2020.1.3,Win32,60,13966,1.4963,,,,,,,,,,,,,,,,,,,,,,,,,,,,,,,,,,,,,,,,,,,,
,,,,,,,,,,,,l,Correct!,0,65,65,92,1,t2.png,t3.png,1,0.909,19,female,2020-11-09_17h58.05.596,torte-q,2020.1.3,Win32,60,13966,1.369515,,,,,,,,,,,,,,,,,,,,,,,,,,,,,,,,,,,,,,,,,,,,
,,,,,,,,,,,,a,Incorrect,0,66,66,14,1,t2.png,t4.png,2,0.059078,19,female,2020-11-09_17h58.05.596,torte-q,2020.1.3,Win32,60,13966,1.25261,,,,,,,,,,,,,,,,,,,,,,,,,,,,,,,,,,,,,,,,,,,,
,,,,,,,,,,,,l,Correct!,0,67,67,37,1,t1.png,t4.png,3,0.0000131,19,female,2020-11-09_17h58.05.596,torte-q,2020.1.3,Win32,60,13966,0.614885,,,,,,,,,,,,,,,,,,,,,,,,,,,,,,,,,,,,,,,,,,,,
,,,,,,,,,,,,l,Correct!,0,68,68,57,1,t2.png,t4.png,2,0.059078,19,female,2020-11-09_17h58.05.596,torte-q,2020.1.3,Win32,60,13966,0.619215,,,,,,,,,,,,,,,,,,,,,,,,,,,,,,,,,,,,,,,,,,,,
,,,,,,,,,,,,a,Incorrect,0,69,69,27,1,t3.png,t1.png,2,0.0565,19,female,2020-11-09_17h58.05.596,torte-q,2020.1.3,Win32,60,13966,0.851915,,,,,,,,,,,,,,,,,,,,,,,,,,,,,,,,,,,,,,,,,,,,
,,,,,,,,,,,,a,Correct!,0,70,70,78,1,t1.png,t1.png,0,0.978,19,female,2020-11-09_17h58.05.596,torte-q,2020.1.3,Win32,60,13966,1.08587,,,,,,,,,,,,,,,,,,,,,,,,,,,,,,,,,,,,,,,,,,,,
,,,,,,,,,,,,l,Correct!,0,71,71,75,1,t1.png,t1.png,0,0.97829,19,female,2020-11-09_17h58.05.596,torte-q,2020.1.3,Win32,60,13966,1.414455,,,,,,,,,,,,,,,,,,,,,,,,,,,,,,,,,,,,,,,,,,,,
,,,,,,,,,,,,a,Correct!,0,72,72,96,1,t1.png,t1.png,0,0.97829,19,female,2020-11-09_17h58.05.596,torte-q,2020.1.3,Win32,60,13966,1.302215,,,,,,,,,,,,,,,,,,,,,,,,,,,,,,,,,,,,,,,,,,,,
,,,,,,,,,,,,a,Incorrect,0,73,73,46,1,t4.png,t2.png,2,0.059078,19,female,2020-11-09_17h58.05.596,torte-q,2020.1.3,Win32,60,13966,1.09309,,,,,,,,,,,,,,,,,,,,,,,,,,,,,,,,,,,,,,,,,,,,
,,,,,,,,,,,,l,Correct!,0,74,74,19,1,t4.png,t2.png,2,0.059078,19,female,2020-11-09_17h58.05.596,torte-q,2020.1.3,Win32,60,13966,1.339305,,,,,,,,,,,,,,,,,,,,,,,,,,,,,,,,,,,,,,,,,,,,
,,,,,,,,,,,,l,Incorrect,0,75,75,116,1,t5.png,t4.png,1,0.90025,19,female,2020-11-09_17h58.05.596,torte-q,2020.1.3,Win32,60,13966,1.18597,,,,,,,,,,,,,,,,,,,,,,,,,,,,,,,,,,,,,,,,,,,,
,,,,,,,,,,,,l,Correct!,0,76,76,80,1,t1.png,t4.png,3,0.0000131,19,female,2020-11-09_17h58.05.596,torte-q,2020.1.3,Win32,60,13966,0.852095,,,,,,,,,,,,,,,,,,,,,,,,,,,,,,,,,,,,,,,,,,,,
,,,,,,,,,,,,l,Correct!,0,77,77,115,1,t2.png,t4.png,2,0.059078,19,female,2020-11-09_17h58.05.596,torte-q,2020.1.3,Win32,60,13966,0.651915,,,,,,,,,,,,,,,,,,,,,,,,,,,,,,,,,,,,,,,,,,,,
,,,,,,,,,,,,a,Correct!,0,78,78,101,1,t4.png,t5.png,1,0.90025,19,female,2020-11-09_17h58.05.596,torte-q,2020.1.3,Win32,60,13966,0.886945,,,,,,,,,,,,,,,,,,,,,,,,,,,,,,,,,,,,,,,,,,,,
,,,,,,,,,,,,a,Incorrect,0,79,79,43,1,t4.png,t2.png,2,0.059078,19,female,2020-11-09_17h58.05.596,torte-q,2020.1.3,Win32,60,13966,0.65197,,,,,,,,,,,,,,,,,,,,,,,,,,,,,,,,,,,,,,,,,,,,
,,,,,,,,,,,,a,Correct!,0,80,80,97,1,t5.png,t5.png,0,0.97829,19,female,2020-11-09_17h58.05.596,torte-q,2020.1.3,Win32,60,13966,0.68557,,,,,,,,,,,,,,,,,,,,,,,,,,,,,,,,,,,,,,,,,,,,
,,,,,,,,,,,,a,Correct!,0,81,81,103,1,t3.png,t1.png,2,0.056466,19,female,2020-11-09_17h58.05.596,torte-q,2020.1.3,Win32,60,13966,0.601635,,,,,,,,,,,,,,,,,,,,,,,,,,,,,,,,,,,,,,,,,,,,
,,,,,,,,,,,,a,Incorrect,0,82,82,69,1,t4.png,t2.png,2,0.059078,19,female,2020-11-09_17h58.05.596,torte-q,2020.1.3,Win32,60,13966,0.485225,,,,,,,,,,,,,,,,,,,,,,,,,,,,,,,,,,,,,,,,,,,,
,,,,,,,,,,,,l,Correct!,0,83,83,54,1,t1.png,t5.png,4,9.55E-11,19,female,2020-11-09_17h58.05.596,torte-q,2020.1.3,Win32,60,13966,0.605725,,,,,,,,,,,,,,,,,,,,,,,,,,,,,,,,,,,,,,,,,,,,
,,,,,,,,,,,,a,Incorrect,0,84,84,50,1,t5.png,t1.png,4,9.55E-11,19,female,2020-11-09_17h58.05.596,torte-q,2020.1.3,Win32,60,13966,0.53953,,,,,,,,,,,,,,,,,,,,,,,,,,,,,,,,,,,,,,,,,,,,
,,,,,,,,,,,,a,Incorrect,0,85,85,82,1,t5.png,t1.png,4,9.55E-11,19,female,2020-11-09_17h58.05.596,torte-q,2020.1.3,Win32,60,13966,0.63556,,,,,,,,,,,,,,,,,,,,,,,,,,,,,,,,,,,,,,,,,,,,
,,,,,,,,,,,,l,Correct!,0,86,86,99,1,t1.png,t5.png,4,9.55E-11,19,female,2020-11-09_17h58.05.596,torte-q,2020.1.3,Win32,60,13966,0.61858,,,,,,,,,,,,,,,,,,,,,,,,,,,,,,,,,,,,,,,,,,,,
,,,,,,,,,,,,l,Incorrect,0,87,87,112,1,t1.png,t1.png,0,0.97829,19,female,2020-11-09_17h58.05.596,torte-q,2020.1.3,Win32,60,13966,0.802055,,,,,,,,,,,,,,,,,,,,,,,,,,,,,,,,,,,,,,,,,,,,
,,,,,,,,,,,,l,Incorrect,0,88,88,95,1,t1.png,t1.png,0,0.978,19,female,2020-11-09_17h58.05.596,torte-q,2020.1.3,Win32,60,13966,0.47331,,,,,,,,,,,,,,,,,,,,,,,,,,,,,,,,,,,,,,,,,,,,
,,,,,,,,,,,,a,Incorrect,0,89,89,6,1,t1.png,t4.png,3,0.0000131,19,female,2020-11-09_17h58.05.596,torte-q,2020.1.3,Win32,60,13966,0.82501,,,,,,,,,,,,,,,,,,,,,,,,,,,,,,,,,,,,,,,,,,,,
,,,,,,,,,,,,a,Correct!,0,90,90,59,1,t5.png,t4.png,1,0.9,19,female,2020-11-09_17h58.05.596,torte-q,2020.1.3,Win32,60,13966,0.70083,,,,,,,,,,,,,,,,,,,,,,,,,,,,,,,,,,,,,,,,,,,,
,,,,,,,,,,,,l,Incorrect,0,91,91,7,1,t4.png,t5.png,1,0.90025,19,female,2020-11-09_17h58.05.596,torte-q,2020.1.3,Win32,60,13966,0.78518,,,,,,,,,,,,,,,,,,,,,,,,,,,,,,,,,,,,,,,,,,,,
,,,,,,,,,,,,a,Correct!,0,92,92,100,1,t4.png,t5.png,1,0.90025,19,female,2020-11-09_17h58.05.596,torte-q,2020.1.3,Win32,60,13966,0.568465,,,,,,,,,,,,,,,,,,,,,,,,,,,,,,,,,,,,,,,,,,,,
,,,,,,,,,,,,l,Correct!,0,93,93,47,1,t4.png,t2.png,2,0.059078,19,female,2020-11-09_17h58.05.596,torte-q,2020.1.3,Win32,60,13966,0.663515,,,,,,,,,,,,,,,,,,,,,,,,,,,,,,,,,,,,,,,,,,,,
,,,,,,,,,,,,a,Correct!,0,94,94,64,1,t1.png,t1.png,0,0.978,19,female,2020-11-09_17h58.05.596,torte-q,2020.1.3,Win32,60,13966,0.88556,,,,,,,,,,,,,,,,,,,,,,,,,,,,,,,,,,,,,,,,,,,,
,,,,,,,,,,,,a,Incorrect,0,95,95,11,1,t1.png,t4.png,3,0.0000131,19,female,2020-11-09_17h58.05.596,torte-q,2020.1.3,Win32,60,13966,0.519665,,,,,,,,,,,,,,,,,,,,,,,,,,,,,,,,,,,,,,,,,,,,
,,,,,,,,,,,,a,Correct!,0,96,96,23,1,t5.png,t4.png,1,0.90025,19,female,2020-11-09_17h58.05.596,torte-q,2020.1.3,Win32,60,13966,0.636955,,,,,,,,,,,,,,,,,,,,,,,,,,,,,,,,,,,,,,,,,,,,
,,,,,,,,,,,,a,Incorrect,0,97,97,36,1,t3.png,t1.png,2,0.0565,19,female,2020-11-09_17h58.05.596,torte-q,2020.1.3,Win32,60,13966,0.702165,,,,,,,,,,,,,,,,,,,,,,,,,,,,,,,,,,,,,,,,,,,,
,,,,,,,,,,,,l,Incorrect,0,98,98,63,1,t2.png,t3.png,1,0.909,19,female,2020-11-09_17h58.05.596,torte-q,2020.1.3,Win32,60,13966,0.718605,,,,,,,,,,,,,,,,,,,,,,,,,,,,,,,,,,,,,,,,,,,,
,,,,,,,,,,,,a,Incorrect,0,99,99,94,1,t5.png,t1.png,4,9.55E-11,19,female,2020-11-09_17h58.05.596,torte-q,2020.1.3,Win32,60,13966,0.651995,,,,,,,,,,,,,,,,,,,,,,,,,,,,,,,,,,,,,,,,,,,,
,,,,,,,,,,,,l,Correct!,0,100,100,67,1,t1.png,t5.png,4,9.55E-11,19,female,2020-11-09_17h58.05.596,torte-q,2020.1.3,Win32,60,13966,0.66703,,,,,,,,,,,,,,,,,,,,,,,,,,,,,,,,,,,,,,,,,,,,
,,,,,,,,,,,,l,Correct!,0,101,101,31,1,t1.png,t5.png,4,9.55E-11,19,female,2020-11-09_17h58.05.596,torte-q,2020.1.3,Win32,60,13966,0.49876,,,,,,,,,,,,,,,,,,,,,,,,,,,,,,,,,,,,,,,,,,,,
,,,,,,,,,,,,l,Incorrect,0,102,102,18,1,t4.png,t5.png,1,0.90025,19,female,2020-11-09_17h58.05.596,torte-q,2020.1.3,Win32,60,13966,0.61882,,,,,,,,,,,,,,,,,,,,,,,,,,,,,,,,,,,,,,,,,,,,
,,,,,,,,,,,,a,Incorrect,0,103,103,108,1,t5.png,t1.png,4,9.55E-11,19,female,2020-11-09_17h58.05.596,torte-q,2020.1.3,Win32,60,13966,0.552015,,,,,,,,,,,,,,,,,,,,,,,,,,,,,,,,,,,,,,,,,,,,
,,,,,,,,,,,,l,Correct!,0,104,104,38,1,t3.png,t1.png,2,0.056466,19,female,2020-11-09_17h58.05.596,torte-q,2020.1.3,Win32,60,13966,1.352605,,,,,,,,,,,,,,,,,,,,,,,,,,,,,,,,,,,,,,,,,,,,
,,,,,,,,,,,,l,Incorrect,0,105,105,39,1,t3.png,t2.png,1,0.90855,19,female,2020-11-09_17h58.05.596,torte-q,2020.1.3,Win32,60,13966,0.785435,,,,,,,,,,,,,,,,,,,,,,,,,,,,,,,,,,,,,,,,,,,,
,,,,,,,,,,,,a,Correct!,0,106,106,71,1,t5.png,t5.png,0,0.97829,19,female,2020-11-09_17h58.05.596,torte-q,2020.1.3,Win32,60,13966,0.90236,,,,,,,,,,,,,,,,,,,,,,,,,,,,,,,,,,,,,,,,,,,,
,,,,,,,,,,,,a,Incorrect,0,107,107,52,1,t2.png,t4.png,2,0.059078,19,female,2020-11-09_17h58.05.596,torte-q,2020.1.3,Win32,60,13966,1.201975,,,,,,,,,,,,,,,,,,,,,,,,,,,,,,,,,,,,,,,,,,,,
,,,,,,,,,,,,a,Incorrect,0,108,108,88,1,t3.png,t1.png,2,0.056466,19,female,2020-11-09_17h58.05.596,torte-q,2020.1.3,Win32,60,13966,0.56853,,,,,,,,,,,,,,,,,,,,,,,,,,,,,,,,,,,,,,,,,,,,
,,,,,,,,,,,,l,Incorrect,0,109,109,48,1,t5.png,t5.png,0,0.97829,19,female,2020-11-09_17h58.05.596,torte-q,2020.1.3,Win32,60,13966,0.285015,,,,,,,,,,,,,,,,,,,,,,,,,,,,,,,,,,,,,,,,,,,,
,,,,,,,,,,,,a,Incorrect,0,110,110,51,1,t3.png,t1.png,2,0.056466,19,female,2020-11-09_17h58.05.596,torte-q,2020.1.3,Win32,60,13966,0.483285,,,,,,,,,,,,,,,,,,,,,,,,,,,,,,,,,,,,,,,,,,,,
,,,,,,,,,,,,l,Incorrect,0,111,111,107,1,t1.png,t1.png,0,0.978,19,female,2020-11-09_17h58.05.596,torte-q,2020.1.3,Win32,60,13966,0.56836,,,,,,,,,,,,,,,,,,,,,,,,,,,,,,,,,,,,,,,,,,,,
,,,,,,,,,,,,a,Correct!,0,112,112,25,1,t5.png,t5.png,0,0.97829,19,female,2020-11-09_17h58.05.596,torte-q,2020.1.3,Win32,60,13966,0.902385,,,,,,,,,,,,,,,,,,,,,,,,,,,,,,,,,,,,,,,,,,,,
,,,,,,,,,,,,a,Correct!,0,113,113,84,1,t1.png,t1.png,0,0.97829,19,female,2020-11-09_17h58.05.596,torte-q,2020.1.3,Win32,60,13966,0.66887,,,,,,,,,,,,,,,,,,,,,,,,,,,,,,,,,,,,,,,,,,,,
,,,,,,,,,,,,a,Correct!,0,114,114,10,1,t2.png,t3.png,1,0.90855,19,female,2020-11-09_17h58.05.596,torte-q,2020.1.3,Win32,60,13966,0.451635,,,,,,,,,,,,,,,,,,,,,,,,,,,,,,,,,,,,,,,,,,,,
,,,,,,,,,,,,l,Correct!,0,115,115,83,1,t3.png,t1.png,2,0.056466,19,female,2020-11-09_17h58.05.596,torte-q,2020.1.3,Win32,60,13966,0.835505,,,,,,,,,,,,,,,,,,,,,,,,,,,,,,,,,,,,,,,,,,,,
,,,,,,,,,,,,a,Correct!,0,116,116,70,1,t5.png,t5.png,0,0.978,19,female,2020-11-09_17h58.05.596,torte-q,2020.1.3,Win32,60,13966,0.750785,,,,,,,,,,,,,,,,,,,,,,,,,,,,,,,,,,,,,,,,,,,,
,,,,,,,,,,,,a,Correct!,0,117,117,118,1,t5.png,t5.png,0,0.978,19,female,2020-11-09_17h58.05.596,torte-q,2020.1.3,Win32,60,13966,0.5014,,,,,,,,,,,,,,,,,,,,,,,,,,,,,,,,,,,,,,,,,,,,
,,,,,,,,,,,,a,Incorrect,0,118,118,3,1,t1.png,t5.png,4,9.55E-11,19,female,2020-11-09_17h58.05.596,torte-q,2020.1.3,Win32,60,13966,0.61826,,,,,,,,,,,,,,,,,,,,,,,,,,,,,,,,,,,,,,,,,,,,
,,,,,,,,,,,,a,Correct!,0,119,119,45,1,t3.png,t2.png,1,0.90855,19,female,2020-11-09_17h58.05.596,torte-q,2020.1.3,Win32,60,13966,0.79547,,,,,,,,,,,,,,,,,,,,,,,,,,,,,,,,,,,,,,,,,,,,
,,,,,,,,,,,,a,Correct!,,,,,,t5.png,t5.png,0,0.97829,19,female,2020-11-09_17h58.05.596,torte-q,2020.1.3,Win32,60,13966,0.900925,space,1.342605,space,7.355575,0,0,0,25,1,,,,,,,,,,,,,,,,,,,,,,,,,,,,,,,,,,,
,,,,,,,,,,,,a,Incorrect,,,,,,t5.png,t1.png,4,9.55E-11,19,female,2020-11-09_17h58.05.596,torte-q,2020.1.3,Win32,60,13966,1.941195,,,,,0,1,1,100,1,,,,,,,,,,,,,,,,,,,,,,,,,,,,,,,,,,,
,,,,,,,,,,,,l,Correct!,,,,,,t3.png,t5.png,2,0.056466,19,female,2020-11-09_17h58.05.596,torte-q,2020.1.3,Win32,60,13966,1.119105,,,,,0,2,2,14,1,,,,,,,,,,,,,,,,,,,,,,,,,,,,,,,,,,,
,,,,,,,,,,,,l,Correct!,,,,,,t4.png,t1.png,3,0.0000131,19,female,2020-11-09_17h58.05.596,torte-q,2020.1.3,Win32,60,13966,1.152345,,,,,0,3,3,61,1,,,,,,,,,,,,,,,,,,,,,,,,,,,,,,,,,,,
,,,,,,,,,,,,l,Incorrect,,,,,,t1.png,t2.png,1,0.90025,19,female,2020-11-09_17h58.05.596,torte-q,2020.1.3,Win32,60,13966,0.960645,,,,,0,4,4,105,1,,,,,,,,,,,,,,,,,,,,,,,,,,,,,,,,,,,
,,,,,,,,,,,,l,Incorrect,,,,,,t1.png,t2.png,1,0.90025,19,female,2020-11-09_17h58.05.596,torte-q,2020.1.3,Win32,60,13966,1.502905,,,,,0,5,5,72,1,,,,,,,,,,,,,,,,,,,,,,,,,,,,,,,,,,,
,,,,,,,,,,,,l,Correct!,,,,,,t2.png,t5.png,3,0.0000131,19,female,2020-11-09_17h58.05.596,torte-q,2020.1.3,Win32,60,13966,0.902385,,,,,0,6,6,95,1,,,,,,,,,,,,,,,,,,,,,,,,,,,,,,,,,,,
,,,,,,,,,,,,a,Correct!,,,,,,t2.png,t3.png,1,0.90855,19,female,2020-11-09_17h58.05.596,torte-q,2020.1.3,Win32,60,13966,2.15495,,,,,0,7,7,65,1,,,,,,,,,,,,,,,,,,,,,,,,,,,,,,,,,,,
,,,,,,,,,,,,a,Incorrect,,,,,,t3.png,t1.png,2,0.0565,19,female,2020-11-09_17h58.05.596,torte-q,2020.1.3,Win32,60,13966,0.651875,,,,,0,8,8,31,1,,,,,,,,,,,,,,,,,,,,,,,,,,,,,,,,,,,
,,,,,,,,,,,,a,Correct!,,,,,,t1.png,t1.png,0,0.978,19,female,2020-11-09_17h58.05.596,torte-q,2020.1.3,Win32,60,13966,0.935765,,,,,0,9,9,54,1,,,,,,,,,,,,,,,,,,,,,,,,,,,,,,,,,,,
,,,,,,,,,,,,a,Incorrect,,,,,,t2.png,t1.png,1,0.9,19,female,2020-11-09_17h58.05.596,torte-q,2020.1.3,Win32,60,13966,0.935785,,,,,0,10,10,118,1,,,,,,,,,,,,,,,,,,,,,,,,,,,,,,,,,,,
,,,,,,,,,,,,l,Correct!,,,,,,t1.png,t3.png,2,0.056466,19,female,2020-11-09_17h58.05.596,torte-q,2020.1.3,Win32,60,13966,0.68406,,,,,0,11,11,87,1,,,,,,,,,,,,,,,,,,,,,,,,,,,,,,,,,,,
,,,,,,,,,,,,l,Correct!,,,,,,t3.png,t5.png,2,0.0565,19,female,2020-11-09_17h58.05.596,torte-q,2020.1.3,Win32,60,13966,0.701975,,,,,0,12,12,83,1,,,,,,,,,,,,,,,,,,,,,,,,,,,,,,,,,,,
,,,,,,,,,,,,a,Correct!,,,,,,t1.png,t1.png,0,0.978,19,female,2020-11-09_17h58.05.596,torte-q,2020.1.3,Win32,60,13966,0.835595,,,,,0,13,13,28,1,,,,,,,,,,,,,,,,,,,,,,,,,,,,,,,,,,,
,,,,,,,,,,,,l,Incorrect,,,,,,t4.png,t5.png,1,0.90025,19,female,2020-11-09_17h58.05.596,torte-q,2020.1.3,Win32,60,13966,1.08604,,,,,0,14,14,58,1,,,,,,,,,,,,,,,,,,,,,,,,,,,,,,,,,,,
,,,,,,,,,,,,l,Correct!,,,,,,t1.png,t4.png,3,0.0000131,19,female,2020-11-09_17h58.05.596,torte-q,2020.1.3,Win32,60,13966,1.71145,,,,,0,15,15,50,1,,,,,,,,,,,,,,,,,,,,,,,,,,,,,,,,,,,
,,,,,,,,,,,,a,Correct!,,,,,,t2.png,t3.png,1,0.909,19,female,2020-11-09_17h58.05.596,torte-q,2020.1.3,Win32,60,13966,1.20291,,,,,0,16,16,74,1,,,,,,,,,,,,,,,,,,,,,,,,,,,,,,,,,,,
,,,,,,,,,,,,l,Incorrect,,,,,,t3.png,t4.png,1,0.909,19,female,2020-11-09_17h58.05.596,torte-q,2020.1.3,Win32,60,13966,0.71669,,,,,0,17,17,82,1,,,,,,,,,,,,,,,,,,,,,,,,,,,,,,,,,,,
,,,,,,,,,,,,l,Correct!,,,,,,t1.png,t5.png,4,9.55E-11,19,female,2020-11-09_17h58.05.596,torte-q,2020.1.3,Win32,60,13966,0.82761,,,,,0,18,18,12,1,,,,,,,,,,,,,,,,,,,,,,,,,,,,,,,,,,,
,,,,,,,,,,,,a,Correct!,,,,,,t2.png,t2.png,0,0.981,19,female,2020-11-09_17h58.05.596,torte-q,2020.1.3,Win32,60,13966,1.07475,,,,,0,19,19,101,1,,,,,,,,,,,,,,,,,,,,,,,,,,,,,,,,,,,
,,,,,,,,,,,,l,Incorrect,,,,,,t1.png,t1.png,0,0.97829,19,female,2020-11-09_17h58.05.596,torte-q,2020.1.3,Win32,60,13966,1.367475,,,,,0,20,20,9,1,,,,,,,,,,,,,,,,,,,,,,,,,,,,,,,,,,,
,,,,,,,,,,,,a,Incorrect,,,,,,t5.png,t2.png,3,0.0000131,19,female,2020-11-09_17h58.05.596,torte-q,2020.1.3,Win32,60,13966,1.68478,,,,,0,21,21,98,1,,,,,,,,,,,,,,,,,,,,,,,,,,,,,,,,,,,
,,,,,,,,,,,,l,Correct!,,,,,,t1.png,t3.png,2,0.056466,19,female,2020-11-09_17h58.05.596,torte-q,2020.1.3,Win32,60,13966,0.76866,,,,,0,22,22,69,1,,,,,,,,,,,,,,,,,,,,,,,,,,,,,,,,,,,
,,,,,,,,,,,,a,Correct!,,,,,,t4.png,t3.png,1,0.909,19,female,2020-11-09_17h58.05.596,torte-q,2020.1.3,Win32,60,13966,0.75217,,,,,0,23,23,46,1,,,,,,,,,,,,,,,,,,,,,,,,,,,,,,,,,,,
,,,,,,,,,,,,l,Incorrect,,,,,,t2.png,t3.png,1,0.90855,19,female,2020-11-09_17h58.05.596,torte-q,2020.1.3,Win32,60,13966,0.835675,,,,,0,24,24,10,1,,,,,,,,,,,,,,,,,,,,,,,,,,,,,,,,,,,
,,,,,,,,,,,,l,Incorrect,,,,,,t3.png,t2.png,1,0.90855,19,female,2020-11-09_17h58.05.596,torte-q,2020.1.3,Win32,60,13966,1.20259,,,,,0,25,25,18,1,,,,,,,,,,,,,,,,,,,,,,,,,,,,,,,,,,,
,,,,,,,,,,,,l,Correct!,,,,,,t2.png,t4.png,2,0.059078,19,female,2020-11-09_17h58.05.596,torte-q,2020.1.3,Win32,60,13966,0.553165,,,,,0,26,26,11,1,,,,,,,,,,,,,,,,,,,,,,,,,,,,,,,,,,,
,,,,,,,,,,,,a,Incorrect,,,,,,t4.png,t1.png,3,0.0000131,19,female,2020-11-09_17h58.05.596,torte-q,2020.1.3,Win32,60,13966,0.601945,,,,,0,27,27,93,1,,,,,,,,,,,,,,,,,,,,,,,,,,,,,,,,,,,
,,,,,,,,,,,,l,Incorrect,,,,,,t5.png,t5.png,0,0.97829,19,female,2020-11-09_17h58.05.596,torte-q,2020.1.3,Win32,60,13966,0.651965,,,,,0,28,28,70,1,,,,,,,,,,,,,,,,,,,,,,,,,,,,,,,,,,,
,,,,,,,,,,,,a,Correct!,,,,,,t4.png,t4.png,0,0.98115,19,female,2020-11-09_17h58.05.596,torte-q,2020.1.3,Win32,60,13966,0.78489,,,,,0,29,29,79,1,,,,,,,,,,,,,,,,,,,,,,,,,,,,,,,,,,,
,,,,,,,,,,,,a,Incorrect,,,,,,t3.png,t2.png,1,0.90855,19,female,2020-11-09_17h58.05.596,torte-q,2020.1.3,Win32,60,13966,0.9004,,,,,0,30,30,97,1,,,,,,,,,,,,,,,,,,,,,,,,,,,,,,,,,,,
,,,,,,,,,,,,a,Incorrect,,,,,,t3.png,t1.png,2,0.056466,19,female,2020-11-09_17h58.05.596,torte-q,2020.1.3,Win32,60,13966,1.603425,,,,,0,31,31,0,1,,,,,,,,,,,,,,,,,,,,,,,,,,,,,,,,,,,
,,,,,,,,,,,,a,Incorrect,,,,,,t4.png,t2.png,2,0.059078,19,female,2020-11-09_17h58.05.596,torte-q,2020.1.3,Win32,60,13966,1.019055,,,,,0,32,32,110,1,,,,,,,,,,,,,,,,,,,,,,,,,,,,,,,,,,,
,,,,,,,,,,,,l,Correct!,,,,,,t5.png,t1.png,4,9.55E-11,19,female,2020-11-09_17h58.05.596,torte-q,2020.1.3,Win32,60,13966,0.78575,,,,,0,33,33,43,1,,,,,,,,,,,,,,,,,,,,,,,,,,,,,,,,,,,
,,,,,,,,,,,,l,Incorrect,,,,,,t3.png,t2.png,1,0.909,19,female,2020-11-09_17h58.05.596,torte-q,2020.1.3,Win32,60,13966,0.802035,,,,,0,34,34,23,1,,,,,,,,,,,,,,,,,,,,,,,,,,,,,,,,,,,
,,,,,,,,,,,,l,Correct!,,,,,,t2.png,t5.png,3,0.0000131,19,female,2020-11-09_17h58.05.596,torte-q,2020.1.3,Win32,60,13966,1.217955,,,,,0,35,35,40,1,,,,,,,,,,,,,,,,,,,,,,,,,,,,,,,,,,,
,,,,,,,,,,,,a,Correct!,,,,,,t3.png,t2.png,1,0.90855,19,female,2020-11-09_17h58.05.596,torte-q,2020.1.3,Win32,60,13966,1.25408,,,,,0,36,36,53,1,,,,,,,,,,,,,,,,,,,,,,,,,,,,,,,,,,,
,,,,,,,,,,,,l,Incorrect,,,,,,t4.png,t3.png,1,0.90855,19,female,2020-11-09_17h58.05.596,torte-q,2020.1.3,Win32,60,13966,1.019045,,,,,0,37,37,35,1,,,,,,,,,,,,,,,,,,,,,,,,,,,,,,,,,,,
,,,,,,,,,,,,l,Incorrect,,,,,,t4.png,t4.png,0,0.98115,19,female,2020-11-09_17h58.05.596,torte-q,2020.1.3,Win32,60,13966,0.969275,,,,,0,38,38,80,1,,,,,,,,,,,,,,,,,,,,,,,,,,,,,,,,,,,
,,,,,,,,,,,,l,Correct!,,,,,,t2.png,t4.png,2,0.059078,19,female,2020-11-09_17h58.05.596,torte-q,2020.1.3,Win32,60,13966,0.7353,,,,,0,39,39,77,1,,,,,,,,,,,,,,,,,,,,,,,,,,,,,,,,,,,
,,,,,,,,,,,,a,Incorrect,,,,,,t5.png,t3.png,2,0.056466,19,female,2020-11-09_17h58.05.596,torte-q,2020.1.3,Win32,60,13966,0.669285,,,,,0,40,40,38,1,,,,,,,,,,,,,,,,,,,,,,,,,,,,,,,,,,,
,,,,,,,,,,,,l,Incorrect,,,,,,t1.png,t2.png,1,0.90025,19,female,2020-11-09_17h58.05.596,torte-q,2020.1.3,Win32,60,13966,1.03546,,,,,0,41,41,112,1,,,,,,,,,,,,,,,,,,,,,,,,,,,,,,,,,,,
,,,,,,,,,,,,a,Correct!,,,,,,t5.png,t5.png,0,0.97829,19,female,2020-11-09_17h58.05.596,torte-q,2020.1.3,Win32,60,13966,0.65263,,,,,0,42,42,94,1,,,,,,,,,,,,,,,,,,,,,,,,,,,,,,,,,,,
,,,,,,,,,,,,a,Correct!,,,,,,t2.png,t2.png,0,0.98115,19,female,2020-11-09_17h58.05.596,torte-q,2020.1.3,Win32,60,13966,0.6917,,,,,0,43,43,59,1,,,,,,,,,,,,,,,,,,,,,,,,,,,,,,,,,,,
,,,,,,,,,,,,l,Correct!,,,,,,t1.png,t4.png,3,0.0000131,19,female,2020-11-09_17h58.05.596,torte-q,2020.1.3,Win32,60,13966,0.88815,,,,,0,44,44,107,1,,,,,,,,,,,,,,,,,,,,,,,,,,,,,,,,,,,
,,,,,,,,,,,,l,Correct!,,,,,,t2.png,t5.png,3,0.0000131,19,female,2020-11-09_17h58.05.596,torte-q,2020.1.3,Win32,60,13966,0.764225,,,,,0,45,45,66,1,,,,,,,,,,,,,,,,,,,,,,,,,,,,,,,,,,,
,,,,,,,,,,,,a,Correct!,,,,,,t3.png,t2.png,1,0.909,19,female,2020-11-09_17h58.05.596,torte-q,2020.1.3,Win32,60,13966,1.061745,,,,,0,46,46,3,1,,,,,,,,,,,,,,,,,,,,,,,,,,,,,,,,,,,
,,,,,,,,,,,,a,Incorrect,,,,,,t5.png,t4.png,1,0.90025,19,female,2020-11-09_17h58.05.596,torte-q,2020.1.3,Win32,60,13966,0.97008,,,,,0,47,47,26,1,,,,,,,,,,,,,,,,,,,,,,,,,,,,,,,,,,,
,,,,,,,,,,,,l,Correct!,,,,,,t3.png,t5.png,2,0.056466,19,female,2020-11-09_17h58.05.596,torte-q,2020.1.3,Win32,60,13966,0.935815,,,,,0,48,48,44,1,,,,,,,,,,,,,,,,,,,,,,,,,,,,,,,,,,,
,,,,,,,,,,,,l,Incorrect,,,,,,t1.png,t3.png,2,0.056466,19,female,2020-11-09_17h58.05.596,torte-q,2020.1.3,Win32,60,13966,0.935605,,,,,0,49,49,63,1,,,,,,,,,,,,,,,,,,,,,,,,,,,,,,,,,,,
,,,,,,,,,,,,a,Correct!,,,,,,t5.png,t4.png,1,0.9,19,female,2020-11-09_17h58.05.596,torte-q,2020.1.3,Win32,60,13966,1.302695,,,,,0,50,50,76,1,,,,,,,,,,,,,,,,,,,,,,,,,,,,,,,,,,,
,,,,,,,,,,,,a,Correct!,,,,,,t2.png,t2.png,0,0.98115,19,female,2020-11-09_17h58.05.596,torte-q,2020.1.3,Win32,60,13966,0.68543,,,,,0,51,51,7,1,,,,,,,,,,,,,,,,,,,,,,,,,,,,,,,,,,,
,,,,,,,,,,,,a,Correct!,,,,,,t2.png,t2.png,0,0.98115,19,female,2020-11-09_17h58.05.596,torte-q,2020.1.3,Win32,60,13966,0.586345,,,,,0,52,52,2,1,,,,,,,,,,,,,,,,,,,,,,,,,,,,,,,,,,,
,,,,,,,,,,,,l,Incorrect,,,,,,t2.png,t2.png,0,0.98115,19,female,2020-11-09_17h58.05.596,torte-q,2020.1.3,Win32,60,13966,0.451835,,,,,0,53,53,57,1,,,,,,,,,,,,,,,,,,,,,,,,,,,,,,,,,,,
,,,,,,,,,,,,l,Incorrect,,,,,,t3.png,t4.png,1,0.909,19,female,2020-11-09_17h58.05.596,torte-q,2020.1.3,Win32,60,13966,0.868925,,,,,0,54,54,106,1,,,,,,,,,,,,,,,,,,,,,,,,,,,,,,,,,,,
,,,,,,,,,,,,a,Correct!,,,,,,t5.png,t5.png,0,0.97829,19,female,2020-11-09_17h58.05.596,torte-q,2020.1.3,Win32,60,13966,0.735525,,,,,0,55,55,73,1,,,,,,,,,,,,,,,,,,,,,,,,,,,,,,,,,,,
,,,,,,,,,,,,a,Incorrect,,,,,,t4.png,t1.png,3,0.0000131,19,female,2020-11-09_17h58.05.596,torte-q,2020.1.3,Win32,60,13966,0.584785,,,,,0,56,56,42,1,,,,,,,,,,,,,,,,,,,,,,,,,,,,,,,,,,,
,,,,,,,,,,,,l,Incorrect,,,,,,t1.png,t2.png,1,0.9,19,female,2020-11-09_17h58.05.596,torte-q,2020.1.3,Win32,60,13966,0.56903,,,,,0,57,57,1,1,,,,,,,,,,,,,,,,,,,,,,,,,,,,,,,,,,,
,,,,,,,,,,,,a,Correct!,,,,,,t5.png,t4.png,1,0.90025,19,female,2020-11-09_17h58.05.596,torte-q,2020.1.3,Win32,60,13966,1.018935,,,,,0,58,58,27,1,,,,,,,,,,,,,,,,,,,,,,,,,,,,,,,,,,,
,,,,,,,,,,,,a,Correct!,,,,,,t4.png,t4.png,0,0.98115,19,female,2020-11-09_17h58.05.596,torte-q,2020.1.3,Win32,60,13966,0.818435,,,,,0,59,59,52,1,,,,,,,,,,,,,,,,,,,,,,,,,,,,,,,,,,,
,,,,,,,,,,,,l,Incorrect,,,,,,t1.png,t1.png,0,0.97829,19,female,2020-11-09_17h58.05.596,torte-q,2020.1.3,Win32,60,13966,0.80213,,,,,0,60,60,78,1,,,,,,,,,,,,,,,,,,,,,,,,,,,,,,,,,,,
,,,,,,,,,,,,l,Correct!,,,,,,t3.png,t5.png,2,0.0565,19,female,2020-11-09_17h58.05.596,torte-q,2020.1.3,Win32,60,13966,0.652285,,,,,0,61,61,30,1,,,,,,,,,,,,,,,,,,,,,,,,,,,,,,,,,,,
,,,,,,,,,,,,l,Incorrect,,,,,,t4.png,t5.png,1,0.90025,19,female,2020-11-09_17h58.05.596,torte-q,2020.1.3,Win32,60,13966,0.91882,,,,,0,62,62,103,1,,,,,,,,,,,,,,,,,,,,,,,,,,,,,,,,,,,
,,,,,,,,,,,,a,Correct!,,,,,,t3.png,t1.png,2,0.056466,19,female,2020-11-09_17h58.05.596,torte-q,2020.1.3,Win32,60,13966,0.60193,,,,,0,63,63,29,1,,,,,,,,,,,,,,,,,,,,,,,,,,,,,,,,,,,
,,,,,,,,,,,,l,Correct!,,,,,,t5.png,t3.png,2,0.056466,19,female,2020-11-09_17h58.05.596,torte-q,2020.1.3,Win32,60,13966,0.75209,,,,,0,64,64,56,1,,,,,,,,,,,,,,,,,,,,,,,,,,,,,,,,,,,
,,,,,,,,,,,,a,Correct!,,,,,,t4.png,t3.png,1,0.90855,19,female,2020-11-09_17h58.05.596,torte-q,2020.1.3,Win32,60,13966,0.585195,,,,,0,65,65,75,1,,,,,,,,,,,,,,,,,,,,,,,,,,,,,,,,,,,
,,,,,,,,,,,,l,Correct!,,,,,,t5.png,t1.png,4,9.55E-11,19,female,2020-11-09_17h58.05.596,torte-q,2020.1.3,Win32,60,13966,0.90233,,,,,0,66,66,22,1,,,,,,,,,,,,,,,,,,,,,,,,,,,,,,,,,,,
,,,,,,,,,,,,l,Incorrect,,,,,,t2.png,t3.png,1,0.90855,19,female,2020-11-09_17h58.05.596,torte-q,2020.1.3,Win32,60,13966,0.71879,,,,,0,67,67,111,1,,,,,,,,,,,,,,,,,,,,,,,,,,,,,,,,,,,
,,,,,,,,,,,,a,Incorrect,,,,,,t5.png,t3.png,2,0.056466,19,female,2020-11-09_17h58.05.596,torte-q,2020.1.3,Win32,60,13966,0.551905,,,,,0,68,68,108,1,,,,,,,,,,,,,,,,,,,,,,,,,,,,,,,,,,,
,,,,,,,,,,,,l,Correct!,,,,,,t1.png,t4.png,3,0.0000131,19,female,2020-11-09_17h58.05.596,torte-q,2020.1.3,Win32,60,13966,0.585215,,,,,0,69,69,92,1,,,,,,,,,,,,,,,,,,,,,,,,,,,,,,,,,,,
,,,,,,,,,,,,a,Correct!,,,,,,t2.png,t1.png,1,0.90025,19,female,2020-11-09_17h58.05.596,torte-q,2020.1.3,Win32,60,13966,0.88551,,,,,0,70,70,4,1,,,,,,,,,,,,,,,,,,,,,,,,,,,,,,,,,,,
,,,,,,,,,,,,l,Correct!,,,,,,t1.png,t5.png,4,9.55E-11,19,female,2020-11-09_17h58.05.596,torte-q,2020.1.3,Win32,60,13966,0.60208,,,,,0,71,71,85,1,,,,,,,,,,,,,,,,,,,,,,,,,,,,,,,,,,,
,,,,,,,,,,,,l,Correct!,,,,,,t2.png,t5.png,3,0.0000131,19,female,2020-11-09_17h58.05.596,torte-q,2020.1.3,Win32,60,13966,0.568595,,,,,0,72,72,8,1,,,,,,,,,,,,,,,,,,,,,,,,,,,,,,,,,,,
,,,,,,,,,,,,a,Incorrect,,,,,,t4.png,t2.png,2,0.059078,19,female,2020-11-09_17h58.05.596,torte-q,2020.1.3,Win32,60,13966,0.568595,,,,,0,73,73,109,1,,,,,,,,,,,,,,,,,,,,,,,,,,,,,,,,,,,
,,,,,,,,,,,,l,Incorrect,,,,,,t2.png,t1.png,1,0.90025,19,female,2020-11-09_17h58.05.596,torte-q,2020.1.3,Win32,60,13966,0.950935,,,,,0,74,74,5,1,,,,,,,,,,,,,,,,,,,,,,,,,,,,,,,,,,,
,,,,,,,,,,,,a,Incorrect,,,,,,t4.png,t1.png,3,0.0000131,19,female,2020-11-09_17h58.05.596,torte-q,2020.1.3,Win32,60,13966,0.960965,,,,,0,75,75,48,1,,,,,,,,,,,,,,,,,,,,,,,,,,,,,,,,,,,
,,,,,,,,,,,,l,Correct!,,,,,,t2.png,t4.png,2,0.059078,19,female,2020-11-09_17h58.05.596,torte-q,2020.1.3,Win32,60,13966,0.753755,,,,,0,76,76,37,1,,,,,,,,,,,,,,,,,,,,,,,,,,,,,,,,,,,
,,,,,,,,,,,,l,Correct!,,,,,,t1.png,t4.png,3,0.0000131,19,female,2020-11-09_17h58.05.596,torte-q,2020.1.3,Win32,60,13966,0.618545,,,,,0,77,77,81,1,,,,,,,,,,,,,,,,,,,,,,,,,,,,,,,,,,,
,,,,,,,,,,,,l,Correct!,,,,,,t1.png,t4.png,3,0.0000131,19,female,2020-11-09_17h58.05.596,torte-q,2020.1.3,Win32,60,13966,1.019275,,,,,0,78,78,17,1,,,,,,,,,,,,,,,,,,,,,,,,,,,,,,,,,,,
,,,,,,,,,,,,a,Incorrect,,,,,,t4.png,t1.png,3,0.0000131,19,female,2020-11-09_17h58.05.596,torte-q,2020.1.3,Win32,60,13966,0.702005,,,,,0,79,79,13,1,,,,,,,,,,,,,,,,,,,,,,,,,,,,,,,,,,,
,,,,,,,,,,,,l,Correct!,,,,,,t4.png,t2.png,2,0.059078,19,female,2020-11-09_17h58.05.596,torte-q,2020.1.3,Win32,60,13966,0.63531,,,,,0,80,80,88,1,,,,,,,,,,,,,,,,,,,,,,,,,,,,,,,,,,,
,,,,,,,,,,,,a,Correct!,,,,,,t4.png,t4.png,0,0.98115,19,female,2020-11-09_17h58.05.596,torte-q,2020.1.3,Win32,60,13966,0.866805,,,,,0,81,81,90,1,,,,,,,,,,,,,,,,,,,,,,,,,,,,,,,,,,,
,,,,,,,,,,,,a,Incorrect,,,,,,t5.png,t3.png,2,0.056466,19,female,2020-11-09_17h58.05.596,torte-q,2020.1.3,Win32,60,13966,1.06743,,,,,0,82,82,114,1,,,,,,,,,,,,,,,,,,,,,,,,,,,,,,,,,,,
,,,,,,,,,,,,l,Correct!,,,,,,t4.png,t5.png,1,0.9,19,female,2020-11-09_17h58.05.596,torte-q,2020.1.3,Win32,60,13966,0.62395,,,,,0,83,83,115,1,,,,,,,,,,,,,,,,,,,,,,,,,,,,,,,,,,,
,,,,,,,,,,,,a,Correct!,,,,,,t2.png,t3.png,1,0.90855,19,female,2020-11-09_17h58.05.596,torte-q,2020.1.3,Win32,60,13966,0.822815,,,,,0,84,84,68,1,,,,,,,,,,,,,,,,,,,,,,,,,,,,,,,,,,,
,,,,,,,,,,,,l,Incorrect,,,,,,t3.png,t4.png,1,0.909,19,female,2020-11-09_17h58.05.596,torte-q,2020.1.3,Win32,60,13966,0.73537,,,,,0,85,85,89,1,,,,,,,,,,,,,,,,,,,,,,,,,,,,,,,,,,,
,,,,,,,,,,,,l,Correct!,,,,,,t3.png,t1.png,2,0.056466,19,female,2020-11-09_17h58.05.596,torte-q,2020.1.3,Win32,60,13966,1.352855,,,,,0,86,86,32,1,,,,,,,,,,,,,,,,,,,,,,,,,,,,,,,,,,,
,,,,,,,,,,,,a,Correct!,,,,,,t2.png,t1.png,1,0.90025,19,female,2020-11-09_17h58.05.596,torte-q,2020.1.3,Win32,60,13966,0.68479,,,,,0,87,87,19,1,,,,,,,,,,,,,,,,,,,,,,,,,,,,,,,,,,,
,,,,,,,,,,,,l,Correct!,,,,,,t2.png,t5.png,3,0.0000131,19,female,2020-11-09_17h58.05.596,torte-q,2020.1.3,Win32,60,13966,0.66799,,,,,0,88,88,104,1,,,,,,,,,,,,,,,,,,,,,,,,,,,,,,,,,,,
,,,,,,,,,,,,l,Incorrect,,,,,,t4.png,t3.png,1,0.909,19,female,2020-11-09_17h58.05.596,torte-q,2020.1.3,Win32,60,13966,1.035725,,,,,0,89,89,20,1,,,,,,,,,,,,,,,,,,,,,,,,,,,,,,,,,,,
,,,,,,,,,,,,a,Incorrect,,,,,,t5.png,t1.png,4,9.55E-11,19,female,2020-11-09_17h58.05.596,torte-q,2020.1.3,Win32,60,13966,0.55679,,,,,0,90,90,102,1,,,,,,,,,,,,,,,,,,,,,,,,,,,,,,,,,,,
,,,,,,,,,,,,l,Incorrect,,,,,,t3.png,t4.png,1,0.90855,19,female,2020-11-09_17h58.05.596,torte-q,2020.1.3,Win32,60,13966,1.308045,,,,,0,91,91,84,1,,,,,,,,,,,,,,,,,,,,,,,,,,,,,,,,,,,
,,,,,,,,,,,,l,Correct!,,,,,,t5.png,t1.png,4,9.55E-11,19,female,2020-11-09_17h58.05.596,torte-q,2020.1.3,Win32,60,13966,1.05245,,,,,0,92,92,71,1,,,,,,,,,,,,,,,,,,,,,,,,,,,,,,,,,,,
,,,,,,,,,,,,a,Incorrect,,,,,,t5.png,t2.png,3,0.0000131,19,female,2020-11-09_17h58.05.596,torte-q,2020.1.3,Win32,60,13966,0.78529,,,,,0,93,93,51,1,,,,,,,,,,,,,,,,,,,,,,,,,,,,,,,,,,,
,,,,,,,,,,,,l,Correct!,,,,,,t4.png,t5.png,1,0.90025,19,female,2020-11-09_17h58.05.596,torte-q,2020.1.3,Win32,60,13966,1.269235,,,,,0,94,94,113,1,,,,,,,,,,,,,,,,,,,,,,,,,,,,,,,,,,,
,,,,,,,,,,,,l,Incorrect,,,,,,t4.png,t5.png,1,0.90025,19,female,2020-11-09_17h58.05.596,torte-q,2020.1.3,Win32,60,13966,0.68549,,,,,0,95,95,47,1,,,,,,,,,,,,,,,,,,,,,,,,,,,,,,,,,,,
,,,,,,,,,,,,a,Incorrect,,,,,,t1.png,t5.png,4,9.55E-11,19,female,2020-11-09_17h58.05.596,torte-q,2020.1.3,Win32,60,13966,1.352775,,,,,0,96,96,55,1,,,,,,,,,,,,,,,,,,,,,,,,,,,,,,,,,,,
,,,,,,,,,,,,a,Correct!,,,,,,t1.png,t1.png,0,0.97829,19,female,2020-11-09_17h58.05.596,torte-q,2020.1.3,Win32,60,13966,1.019055,,,,,0,97,97,67,1,,,,,,,,,,,,,,,,,,,,,,,,,,,,,,,,,,,
,,,,,,,,,,,,l,Correct!,,,,,,t5.png,t2.png,3,0.0000131,19,female,2020-11-09_17h58.05.596,torte-q,2020.1.3,Win32,60,13966,0.97524,,,,,0,98,98,116,1,,,,,,,,,,,,,,,,,,,,,,,,,,,,,,,,,,,
,,,,,,,,,,,,a,Incorrect,,,,,,t5.png,t4.png,1,0.90025,19,female,2020-11-09_17h58.05.596,torte-q,2020.1.3,Win32,60,13966,0.927695,,,,,0,99,99,34,1,,,,,,,,,,,,,,,,,,,,,,,,,,,,,,,,,,,
,,,,,,,,,,,,a,Correct!,,,,,,t5.png,t4.png,1,0.9,19,female,2020-11-09_17h58.05.596,torte-q,2020.1.3,Win32,60,13966,1.219255,,,,,0,100,100,49,1,,,,,,,,,,,,,,,,,,,,,,,,,,,,,,,,,,,
,,,,,,,,,,,,l,Correct!,,,,,,t3.png,t1.png,2,0.056466,19,female,2020-11-09_17h58.05.596,torte-q,2020.1.3,Win32,60,13966,0.651955,,,,,0,101,101,64,1,,,,,,,,,,,,,,,,,,,,,,,,,,,,,,,,,,,
,,,,,,,,,,,,a,Correct!,,,,,,t4.png,t3.png,1,0.90855,19,female,2020-11-09_17h58.05.596,torte-q,2020.1.3,Win32,60,13966,0.86893,,,,,0,102,102,45,1,,,,,,,,,,,,,,,,,,,,,,,,,,,,,,,,,,,
,,,,,,,,,,,,l,Incorrect,,,,,,t3.png,t4.png,1,0.90855,19,female,2020-11-09_17h58.05.596,torte-q,2020.1.3,Win32,60,13966,0.65086,,,,,0,103,103,96,1,,,,,,,,,,,,,,,,,,,,,,,,,,,,,,,,,,,
,,,,,,,,,,,,a,Incorrect,,,,,,t5.png,t2.png,3,0.0000131,19,female,2020-11-09_17h58.05.596,torte-q,2020.1.3,Win32,60,13966,0.669085,,,,,0,104,104,91,1,,,,,,,,,,,,,,,,,,,,,,,,,,,,,,,,,,,
,,,,,,,,,,,,l,Correct!,,,,,,t4.png,t2.png,2,0.0591,19,female,2020-11-09_17h58.05.596,torte-q,2020.1.3,Win32,60,13966,1.086065,,,,,0,105,105,36,1,,,,,,,,,,,,,,,,,,,,,,,,,,,,,,,,,,,
,,,,,,,,,,,,l,Correct!,,,,,,t2.png,t4.png,2,0.059078,19,female,2020-11-09_17h58.05.596,torte-q,2020.1.3,Win32,60,13966,0.65332,,,,,0,106,106,24,1,,,,,,,,,,,,,,,,,,,,,,,,,,,,,,,,,,,
,,,,,,,,,,,,a,Incorrect,,,,,,t5.png,t3.png,2,0.0565,19,female,2020-11-09_17h58.05.596,torte-q,2020.1.3,Win32,60,13966,1.08998,,,,,0,107,107,39,1,,,,,,,,,,,,,,,,,,,,,,,,,,,,,,,,,,,
,,,,,,,,,,,,l,Incorrect,,,,,,t2.png,t1.png,1,0.90025,19,female,2020-11-09_17h58.05.596,torte-q,2020.1.3,Win32,60,13966,0.68441,,,,,0,108,108,62,1,,,,,,,,,,,,,,,,,,,,,,,,,,,,,,,,,,,
,,,,,,,,,,,,a,Incorrect,,,,,,t5.png,t2.png,3,0.0000131,19,female,2020-11-09_17h58.05.596,torte-q,2020.1.3,Win32,60,13966,0.60174,,,,,0,109,109,119,1,,,,,,,,,,,,,,,,,,,,,,,,,,,,,,,,,,,
,,,,,,,,,,,,l,Correct!,,,,,,t1.png,t3.png,2,0.056466,19,female,2020-11-09_17h58.05.596,torte-q,2020.1.3,Win32,60,13966,0.54666,,,,,0,110,110,60,1,,,,,,,,,,,,,,,,,,,,,,,,,,,,,,,,,,,
,,,,,,,,,,,,l,Correct!,,,,,,t2.png,t4.png,2,0.0591,19,female,2020-11-09_17h58.05.596,torte-q,2020.1.3,Win32,60,13966,0.70859,,,,,0,111,111,15,1,,,,,,,,,,,,,,,,,,,,,,,,,,,,,,,,,,,
,,,,,,,,,,,,a,Correct!,,,,,,t5.png,t5.png,0,0.978,19,female,2020-11-09_17h58.05.596,torte-q,2020.1.3,Win32,60,13966,0.552165,,,,,0,112,112,117,1,,,,,,,,,,,,,,,,,,,,,,,,,,,,,,,,,,,
,,,,,,,,,,,,l,Correct!,,,,,,t3.png,t5.png,2,0.056466,19,female,2020-11-09_17h58.05.596,torte-q,2020.1.3,Win32,60,13966,0.75056,,,,,0,113,113,6,1,,,,,,,,,,,,,,,,,,,,,,,,,,,,,,,,,,,
,,,,,,,,,,,,a,Correct!,,,,,,t4.png,t4.png,0,0.98115,19,female,2020-11-09_17h58.05.596,torte-q,2020.1.3,Win32,60,13966,1.15143,,,,,0,114,114,21,1,,,,,,,,,,,,,,,,,,,,,,,,,,,,,,,,,,,
,,,,,,,,,,,,l,Correct!,,,,,,t1.png,t3.png,2,0.056466,19,female,2020-11-09_17h58.05.596,torte-q,2020.1.3,Win32,60,13966,0.953545,,,,,0,115,115,99,1,,,,,,,,,,,,,,,,,,,,,,,,,,,,,,,,,,,
,,,,,,,,,,,,l,Correct!,,,,,,t1.png,t5.png,4,9.55E-11,19,female,2020-11-09_17h58.05.596,torte-q,2020.1.3,Win32,60,13966,0.551965,,,,,0,116,116,16,1,,,,,,,,,,,,,,,,,,,,,,,,,,,,,,,,,,,
,,,,,,,,,,,,a,Incorrect,,,,,,t4.png,t2.png,2,0.059078,19,female,2020-11-09_17h58.05.596,torte-q,2020.1.3,Win32,60,13966,0.668965,,,,,0,117,117,86,1,,,,,,,,,,,,,,,,,,,,,,,,,,,,,,,,,,,
,,,,,,,,,,,,l,Correct!,,,,,,t1.png,t2.png,1,0.90025,19,female,2020-11-09_17h58.05.596,torte-q,2020.1.3,Win32,60,13966,0.50181,,,,,0,118,118,33,1,,,,,,,,,,,,,,,,,,,,,,,,,,,,,,,,,,,
,,,,,,,,,,,,l,Correct!,,,,,,t1.png,t5.png,4,9.55E-11,19,female,2020-11-09_17h58.05.596,torte-q,2020.1.3,Win32,60,13966,0.685245,,,,,0,119,119,41,1,,,,,,,,,,,,,,,,,,,,,,,,,,,,,,,,,,,
,,,,,,,,,,,,l,Correct!,,,,,,t2.png,t4.png,2,0.059078,19,female,2020-11-09_17h58.05.596,torte-q,2020.1.3,Win32,60,13966,1.058,space,2.30417,,,,,,,,space,7.806905,space,2.98434,0,0,0,24,1,,,,,,,,,,,,,,,,,,,,,,,,,,
,,,,,,,,,,,,l,Correct!,,,,,,t2.png,t4.png,2,0.059078,19,female,2020-11-09_17h58.05.596,torte-q,2020.1.3,Win32,60,13966,1.469435,,,,,,,,,,,,,,0,1,1,11,1,,,,,,,,,,,,,,,,,,,,,,,,,,
,,,,,,,,,,,,l,Correct!,,,,,,t4.png,t1.png,3,0.0000131,19,female,2020-11-09_17h58.05.596,torte-q,2020.1.3,Win32,60,13966,1.00237,,,,,,,,,,,,,,0,2,2,42,1,,,,,,,,,,,,,,,,,,,,,,,,,,
,,,,,,,,,,,,a,Correct!,,,,,,t5.png,t4.png,1,0.90025,19,female,2020-11-09_17h58.05.596,torte-q,2020.1.3,Win32,60,13966,0.93571,,,,,,,,,,,,,,0,3,3,26,1,,,,,,,,,,,,,,,,,,,,,,,,,,
,,,,,,,,,,,,l,Correct!,,,,,,t3.png,t5.png,2,0.056466,19,female,2020-11-09_17h58.05.596,torte-q,2020.1.3,Win32,60,13966,0.93575,,,,,,,,,,,,,,0,4,4,44,1,,,,,,,,,,,,,,,,,,,,,,,,,,
,,,,,,,,,,,,l,Correct!,,,,,,t1.png,t5.png,4,9.55E-11,19,female,2020-11-09_17h58.05.596,torte-q,2020.1.3,Win32,60,13966,0.95319,,,,,,,,,,,,,,0,5,5,41,1,,,,,,,,,,,,,,,,,,,,,,,,,,
,,,,,,,,,,,,a,Correct!,,,,,,t1.png,t1.png,0,0.97829,19,female,2020-11-09_17h58.05.596,torte-q,2020.1.3,Win32,60,13966,0.98604,,,,,,,,,,,,,,0,6,6,9,1,,,,,,,,,,,,,,,,,,,,,,,,,,
,,,,,,,,,,,,l,Correct!,,,,,,t1.png,t4.png,3,0.0000131,19,female,2020-11-09_17h58.05.596,torte-q,2020.1.3,Win32,60,13966,1.185585,,,,,,,,,,,,,,0,7,7,92,1,,,,,,,,,,,,,,,,,,,,,,,,,,
,,,,,,,,,,,,l,Correct!,,,,,,t5.png,t1.png,4,9.55E-11,19,female,2020-11-09_17h58.05.596,torte-q,2020.1.3,Win32,60,13966,1.486245,,,,,,,,,,,,,,0,8,8,102,1,,,,,,,,,,,,,,,,,,,,,,,,,,
,,,,,,,,,,,,a,Correct!,,,,,,t4.png,t4.png,0,0.98115,19,female,2020-11-09_17h58.05.596,torte-q,2020.1.3,Win32,60,13966,1.035225,,,,,,,,,,,,,,0,9,9,79,1,,,,,,,,,,,,,,,,,,,,,,,,,,
,,,,,,,,,,,,l,Correct!,,,,,,t1.png,t4.png,3,0.0000131,19,female,2020-11-09_17h58.05.596,torte-q,2020.1.3,Win32,60,13966,1.203265,,,,,,,,,,,,,,0,10,10,81,1,,,,,,,,,,,,,,,,,,,,,,,,,,
,,,,,,,,,,,,a,Incorrect,,,,,,t3.png,t1.png,2,0.056466,19,female,2020-11-09_17h58.05.596,torte-q,2020.1.3,Win32,60,13966,0.5687,,,,,,,,,,,,,,0,11,11,64,1,,,,,,,,,,,,,,,,,,,,,,,,,,
,,,,,,,,,,,,a,Correct!,,,,,,t5.png,t4.png,1,0.9,19,female,2020-11-09_17h58.05.596,torte-q,2020.1.3,Win32,60,13966,1.26856,,,,,,,,,,,,,,0,12,12,49,1,,,,,,,,,,,,,,,,,,,,,,,,,,
,,,,,,,,,,,,l,Correct!,,,,,,t1.png,t4.png,3,0.0000131,19,female,2020-11-09_17h58.05.596,torte-q,2020.1.3,Win32,60,13966,0.619245,,,,,,,,,,,,,,0,13,13,107,1,,,,,,,,,,,,,,,,,,,,,,,,,,
,,,,,,,,,,,,l,Correct!,,,,,,t2.png,t5.png,3,0.0000131,19,female,2020-11-09_17h58.05.596,torte-q,2020.1.3,Win32,60,13966,0.618605,,,,,,,,,,,,,,0,14,14,66,1,,,,,,,,,,,,,,,,,,,,,,,,,,
,,,,,,,,,,,,a,Correct!,,,,,,t3.png,t2.png,1,0.90855,19,female,2020-11-09_17h58.05.596,torte-q,2020.1.3,Win32,60,13966,0.585285,,,,,,,,,,,,,,0,15,15,97,1,,,,,,,,,,,,,,,,,,,,,,,,,,
,,,,,,,,,,,,l,Incorrect,,,,,,t1.png,t2.png,1,0.90025,19,female,2020-11-09_17h58.05.596,torte-q,2020.1.3,Win32,60,13966,0.61852,,,,,,,,,,,,,,0,16,16,112,1,,,,,,,,,,,,,,,,,,,,,,,,,,
,,,,,,,,,,,,l,Incorrect,,,,,,t4.png,t3.png,1,0.90855,19,female,2020-11-09_17h58.05.596,torte-q,2020.1.3,Win32,60,13966,1.18198,,,,,,,,,,,,,,0,17,17,75,1,,,,,,,,,,,,,,,,,,,,,,,,,,
,,,,,,,,,,,,a,Incorrect,,,,,,t5.png,t1.png,4,9.55E-11,19,female,2020-11-09_17h58.05.596,torte-q,2020.1.3,Win32,60,13966,0.653245,,,,,,,,,,,,,,0,18,18,71,1,,,,,,,,,,,,,,,,,,,,,,,,,,
,,,,,,,,,,,,l,Incorrect,,,,,,t5.png,t5.png,0,0.978,19,female,2020-11-09_17h58.05.596,torte-q,2020.1.3,Win32,60,13966,0.66864,,,,,,,,,,,,,,0,19,19,117,1,,,,,,,,,,,,,,,,,,,,,,,,,,
,,,,,,,,,,,,l,Correct!,,,,,,t1.png,t3.png,2,0.056466,19,female,2020-11-09_17h58.05.596,torte-q,2020.1.3,Win32,60,13966,0.68832,,,,,,,,,,,,,,0,20,20,60,1,,,,,,,,,,,,,,,,,,,,,,,,,,
,,,,,,,,,,,,l,Incorrect,,,,,,t3.png,t2.png,1,0.909,19,female,2020-11-09_17h58.05.596,torte-q,2020.1.3,Win32,60,13966,0.74069,,,,,,,,,,,,,,0,21,21,3,1,,,,,,,,,,,,,,,,,,,,,,,,,,
,,,,,,,,,,,,a,Incorrect,,,,,,t5.png,t1.png,4,9.55E-11,19,female,2020-11-09_17h58.05.596,torte-q,2020.1.3,Win32,60,13966,0.439755,,,,,,,,,,,,,,0,22,22,100,1,,,,,,,,,,,,,,,,,,,,,,,,,,
,,,,,,,,,,,,l,Incorrect,,,,,,t4.png,t3.png,1,0.90855,19,female,2020-11-09_17h58.05.596,torte-q,2020.1.3,Win32,60,13966,0.31825,,,,,,,,,,,,,,0,23,23,35,1,,,,,,,,,,,,,,,,,,,,,,,,,,
,,,,,,,,,,,,l,Incorrect,,,,,,t2.png,t4.png,2,0.059078,19,female,2020-11-09_17h58.05.596,torte-q,2020.1.3,Win32,60,13966,0.619175,,,,,,,,,,,,,,0,24,24,77,1,,,,,,,,,,,,,,,,,,,,,,,,,,
,,,,,,,,,,,,a,Correct!,,,,,,t4.png,t4.png,0,0.98115,19,female,2020-11-09_17h58.05.596,torte-q,2020.1.3,Win32,60,13966,0.8017,,,,,,,,,,,,,,0,25,25,52,1,,,,,,,,,,,,,,,,,,,,,,,,,,
,,,,,,,,,,,,l,Incorrect,,,,,,t1.png,t2.png,1,0.90025,19,female,2020-11-09_17h58.05.596,torte-q,2020.1.3,Win32,60,13966,0.501875,,,,,,,,,,,,,,0,26,26,72,1,,,,,,,,,,,,,,,,,,,,,,,,,,
,,,,,,,,,,,,a,Incorrect,,,,,,t5.png,t2.png,3,0.0000131,19,female,2020-11-09_17h58.05.596,torte-q,2020.1.3,Win32,60,13966,0.61874,,,,,,,,,,,,,,0,27,27,51,1,,,,,,,,,,,,,,,,,,,,,,,,,,
,,,,,,,,,,,,l,Incorrect,,,,,,t2.png,t2.png,0,0.981,19,female,2020-11-09_17h58.05.596,torte-q,2020.1.3,Win32,60,13966,0.54225,,,,,,,,,,,,,,0,28,28,101,1,,,,,,,,,,,,,,,,,,,,,,,,,,
,,,,,,,,,,,,a,Incorrect,,,,,,t4.png,t1.png,3,0.0000131,19,female,2020-11-09_17h58.05.596,torte-q,2020.1.3,Win32,60,13966,0.90216,,,,,,,,,,,,,,0,29,29,48,1,,,,,,,,,,,,,,,,,,,,,,,,,,
,,,,,,,,,,,,l,Incorrect,,,,,,t2.png,t2.png,0,0.98115,19,female,2020-11-09_17h58.05.596,torte-q,2020.1.3,Win32,60,13966,0.86888,,,,,,,,,,,,,,0,30,30,59,1,,,,,,,,,,,,,,,,,,,,,,,,,,
,,,,,,,,,,,,a,Incorrect,,,,,,t5.png,t2.png,3,0.0000131,19,female,2020-11-09_17h58.05.596,torte-q,2020.1.3,Win32,60,13966,0.63549,,,,,,,,,,,,,,0,31,31,119,1,,,,,,,,,,,,,,,,,,,,,,,,,,
,,,,,,,,,,,,a,Correct!,,,,,,t4.png,t4.png,0,0.98115,19,female,2020-11-09_17h58.05.596,torte-q,2020.1.3,Win32,60,13966,0.93631,,,,,,,,,,,,,,0,32,32,90,1,,,,,,,,,,,,,,,,,,,,,,,,,,
,,,,,,,,,,,,l,Correct!,,,,,,t2.png,t5.png,3,0.0000131,19,female,2020-11-09_17h58.05.596,torte-q,2020.1.3,Win32,60,13966,0.88616,,,,,,,,,,,,,,0,33,33,8,1,,,,,,,,,,,,,,,,,,,,,,,,,,
,,,,,,,,,,,,l,Incorrect,,,,,,t4.png,t3.png,1,0.90855,19,female,2020-11-09_17h58.05.596,torte-q,2020.1.3,Win32,60,13966,1.486665,,,,,,,,,,,,,,0,34,34,45,1,,,,,,,,,,,,,,,,,,,,,,,,,,
,,,,,,,,,,,,l,Correct!,,,,,,t1.png,t4.png,3,0.0000131,19,female,2020-11-09_17h58.05.596,torte-q,2020.1.3,Win32,60,13966,0.985985,,,,,,,,,,,,,,0,35,35,50,1,,,,,,,,,,,,,,,,,,,,,,,,,,
,,,,,,,,,,,,l,Incorrect,,,,,,t2.png,t3.png,1,0.90855,19,female,2020-11-09_17h58.05.596,torte-q,2020.1.3,Win32,60,13966,0.93602,,,,,,,,,,,,,,0,36,36,10,1,,,,,,,,,,,,,,,,,,,,,,,,,,
,,,,,,,,,,,,a,Incorrect,,,,,,t2.png,t3.png,1,0.909,19,female,2020-11-09_17h58.05.596,torte-q,2020.1.3,Win32,60,13966,0.86918,,,,,,,,,,,,,,0,37,37,74,1,,,,,,,,,,,,,,,,,,,,,,,,,,
,,,,,,,,,,,,a,Incorrect,,,,,,t5.png,t1.png,4,9.55E-11,19,female,2020-11-09_17h58.05.596,torte-q,2020.1.3,Win32,60,13966,0.65207,,,,,,,,,,,,,,0,38,38,43,1,,,,,,,,,,,,,,,,,,,,,,,,,,
,,,,,,,,,,,,l,Correct!,,,,,,t3.png,t5.png,2,0.056466,19,female,2020-11-09_17h58.05.596,torte-q,2020.1.3,Win32,60,13966,0.602075,,,,,,,,,,,,,,0,39,39,14,1,,,,,,,,,,,,,,,,,,,,,,,,,,
,,,,,,,,,,,,a,Incorrect,,,,,,t5.png,t1.png,4,9.55E-11,19,female,2020-11-09_17h58.05.596,torte-q,2020.1.3,Win32,60,13966,0.501645,,,,,,,,,,,,,,0,40,40,22,1,,,,,,,,,,,,,,,,,,,,,,,,,,
,,,,,,,,,,,,l,Incorrect,,,,,,t3.png,t4.png,1,0.909,19,female,2020-11-09_17h58.05.596,torte-q,2020.1.3,Win32,60,13966,0.602135,,,,,,,,,,,,,,0,41,41,89,1,,,,,,,,,,,,,,,,,,,,,,,,,,
,,,,,,,,,,,,l,Incorrect,,,,,,t2.png,t3.png,1,0.90855,19,female,2020-11-09_17h58.05.596,torte-q,2020.1.3,Win32,60,13966,0.929555,,,,,,,,,,,,,,0,42,42,65,1,,,,,,,,,,,,,,,,,,,,,,,,,,
,,,,,,,,,,,,l,Correct!,,,,,,t5.png,t2.png,3,0.0000131,19,female,2020-11-09_17h58.05.596,torte-q,2020.1.3,Win32,60,13966,0.685605,,,,,,,,,,,,,,0,43,43,98,1,,,,,,,,,,,,,,,,,,,,,,,,,,
,,,,,,,,,,,,a,Incorrect,,,,,,t4.png,t1.png,3,0.0000131,19,female,2020-11-09_17h58.05.596,torte-q,2020.1.3,Win32,60,13966,1.502965,,,,,,,,,,,,,,0,44,44,93,1,,,,,,,,,,,,,,,,,,,,,,,,,,
,,,,,,,,,,,,a,Incorrect,,,,,,t5.png,t3.png,2,0.056466,19,female,2020-11-09_17h58.05.596,torte-q,2020.1.3,Win32,60,13966,0.668675,,,,,,,,,,,,,,0,45,45,114,1,,,,,,,,,,,,,,,,,,,,,,,,,,
,,,,,,,,,,,,a,Correct!,,,,,,t1.png,t1.png,0,0.978,19,female,2020-11-09_17h58.05.596,torte-q,2020.1.3,Win32,60,13966,0.969205,,,,,,,,,,,,,,0,46,46,54,1,,,,,,,,,,,,,,,,,,,,,,,,,,
,,,,,,,,,,,,a,Correct!,,,,,,t1.png,t2.png,1,0.90025,19,female,2020-11-09_17h58.05.596,torte-q,2020.1.3,Win32,60,13966,0.318385,,,,,,,,,,,,,,0,47,47,105,1,,,,,,,,,,,,,,,,,,,,,,,,,,
,,,,,,,,,,,,l,Incorrect,,,,,,t2.png,t1.png,1,0.90025,19,female,2020-11-09_17h58.05.596,torte-q,2020.1.3,Win32,60,13966,0.36843,,,,,,,,,,,,,,0,48,48,62,1,,,,,,,,,,,,,,,,,,,,,,,,,,
,,,,,,,,,,,,a,Correct!,,,,,,t4.png,t4.png,0,0.98115,19,female,2020-11-09_17h58.05.596,torte-q,2020.1.3,Win32,60,13966,0.735405,,,,,,,,,,,,,,0,49,49,80,1,,,,,,,,,,,,,,,,,,,,,,,,,,
,,,,,,,,,,,,a,Correct!,,,,,,t5.png,t4.png,1,0.90025,19,female,2020-11-09_17h58.05.596,torte-q,2020.1.3,Win32,60,13966,0.71898,,,,,,,,,,,,,,0,50,50,27,1,,,,,,,,,,,,,,,,,,,,,,,,,,
,,,,,,,,,,,,a,Correct!,,,,,,t5.png,t5.png,0,0.97829,19,female,2020-11-09_17h58.05.596,torte-q,2020.1.3,Win32,60,13966,0.8186,,,,,,,,,,,,,,0,51,51,73,1,,,,,,,,,,,,,,,,,,,,,,,,,,
,,,,,,,,,,,,a,Incorrect,,,,,,t5.png,t3.png,2,0.056466,19,female,2020-11-09_17h58.05.596,torte-q,2020.1.3,Win32,60,13966,0.75075,,,,,,,,,,,,,,0,52,52,38,1,,,,,,,,,,,,,,,,,,,,,,,,,,
,,,,,,,,,,,,a,Correct!,,,,,,t4.png,t4.png,0,0.98115,19,female,2020-11-09_17h58.05.596,torte-q,2020.1.3,Win32,60,13966,0.88555,,,,,,,,,,,,,,0,53,53,21,1,,,,,,,,,,,,,,,,,,,,,,,,,,
,,,,,,,,,,,,l,Incorrect,,,,,,t4.png,t5.png,1,0.90025,19,female,2020-11-09_17h58.05.596,torte-q,2020.1.3,Win32,60,13966,0.668625,,,,,,,,,,,,,,0,54,54,103,1,,,,,,,,,,,,,,,,,,,,,,,,,,
,,,,,,,,,,,,a,Correct!,,,,,,t2.png,t1.png,1,0.90025,19,female,2020-11-09_17h58.05.596,torte-q,2020.1.3,Win32,60,13966,1.18592,,,,,,,,,,,,,,0,55,55,5,1,,,,,,,,,,,,,,,,,,,,,,,,,,
,,,,,,,,,,,,a,Incorrect,,,,,,t3.png,t1.png,2,0.0565,19,female,2020-11-09_17h58.05.596,torte-q,2020.1.3,Win32,60,13966,0.93749,,,,,,,,,,,,,,0,56,56,31,1,,,,,,,,,,,,,,,,,,,,,,,,,,
,,,,,,,,,,,,l,Incorrect,,,,,,t4.png,t2.png,2,0.059078,19,female,2020-11-09_17h58.05.596,torte-q,2020.1.3,Win32,60,13966,0.368745,,,,,,,,,,,,,,0,57,57,109,1,,,,,,,,,,,,,,,,,,,,,,,,,,
,,,,,,,,,,,,l,Correct!,,,,,,t3.png,t5.png,2,0.0565,19,female,2020-11-09_17h58.05.596,torte-q,2020.1.3,Win32,60,13966,0.850915,,,,,,,,,,,,,,0,58,58,83,1,,,,,,,,,,,,,,,,,,,,,,,,,,
,,,,,,,,,,,,l,Incorrect,,,,,,t3.png,t4.png,1,0.90855,19,female,2020-11-09_17h58.05.596,torte-q,2020.1.3,Win32,60,13966,0.61884,,,,,,,,,,,,,,0,59,59,84,1,,,,,,,,,,,,,,,,,,,,,,,,,,
,,,,,,,,,,,,a,Incorrect,,,,,,t5.png,t3.png,2,0.0565,19,female,2020-11-09_17h58.05.596,torte-q,2020.1.3,Win32,60,13966,0.61858,,,,,,,,,,,,,,0,60,60,39,1,,,,,,,,,,,,,,,,,,,,,,,,,,
,,,,,,,,,,,,a,Correct!,,,,,,t4.png,t3.png,1,0.909,19,female,2020-11-09_17h58.05.596,torte-q,2020.1.3,Win32,60,13966,0.81828,,,,,,,,,,,,,,0,61,61,46,1,,,,,,,,,,,,,,,,,,,,,,,,,,
,,,,,,,,,,,,l,Correct!,,,,,,t1.png,t5.png,4,9.55E-11,19,female,2020-11-09_17h58.05.596,torte-q,2020.1.3,Win32,60,13966,0.76935,,,,,,,,,,,,,,0,62,62,85,1,,,,,,,,,,,,,,,,,,,,,,,,,,
,,,,,,,,,,,,l,Incorrect,,,,,,t3.png,t2.png,1,0.90855,19,female,2020-11-09_17h58.05.596,torte-q,2020.1.3,Win32,60,13966,0.685405,,,,,,,,,,,,,,0,63,63,53,1,,,,,,,,,,,,,,,,,,,,,,,,,,
,,,,,,,,,,,,l,Correct!,,,,,,t2.png,t5.png,3,0.0000131,19,female,2020-11-09_17h58.05.596,torte-q,2020.1.3,Win32,60,13966,0.56798,,,,,,,,,,,,,,0,64,64,95,1,,,,,,,,,,,,,,,,,,,,,,,,,,
,,,,,,,,,,,,a,Correct!,,,,,,t4.png,t5.png,1,0.90025,19,female,2020-11-09_17h58.05.596,torte-q,2020.1.3,Win32,60,13966,1.103115,,,,,,,,,,,,,,0,65,65,58,1,,,,,,,,,,,,,,,,,,,,,,,,,,
,,,,,,,,,,,,l,Incorrect,,,,,,t5.png,t5.png,0,0.97829,19,female,2020-11-09_17h58.05.596,torte-q,2020.1.3,Win32,60,13966,0.51851,,,,,,,,,,,,,,0,66,66,94,1,,,,,,,,,,,,,,,,,,,,,,,,,,
,,,,,,,,,,,,l,Correct!,,,,,,t1.png,t3.png,2,0.056466,19,female,2020-11-09_17h58.05.596,torte-q,2020.1.3,Win32,60,13966,1.20579,,,,,,,,,,,,,,0,67,67,69,1,,,,,,,,,,,,,,,,,,,,,,,,,,
,,,,,,,,,,,,a,Correct!,,,,,,t5.png,t3.png,2,0.056466,19,female,2020-11-09_17h58.05.596,torte-q,2020.1.3,Win32,60,13966,0.83581,,,,,,,,,,,,,,0,68,68,56,1,,,,,,,,,,,,,,,,,,,,,,,,,,
,,,,,,,,,,,,l,Correct!,,,,,,t5.png,t2.png,3,0.0000131,19,female,2020-11-09_17h58.05.596,torte-q,2020.1.3,Win32,60,13966,0.507215,,,,,,,,,,,,,,0,69,69,116,1,,,,,,,,,,,,,,,,,,,,,,,,,,
,,,,,,,,,,,,l,Incorrect,,,,,,t3.png,t4.png,1,0.909,19,female,2020-11-09_17h58.05.596,torte-q,2020.1.3,Win32,60,13966,0.61857,,,,,,,,,,,,,,0,70,70,106,1,,,,,,,,,,,,,,,,,,,,,,,,,,
,,,,,,,,,,,,l,Correct!,,,,,,t5.png,t2.png,3,0.0000131,19,female,2020-11-09_17h58.05.596,torte-q,2020.1.3,Win32,60,13966,0.50174,,,,,,,,,,,,,,0,71,71,91,1,,,,,,,,,,,,,,,,,,,,,,,,,,
,,,,,,,,,,,,l,Correct!,,,,,,t4.png,t2.png,2,0.059078,19,female,2020-11-09_17h58.05.596,torte-q,2020.1.3,Win32,60,13966,0.38497,,,,,,,,,,,,,,0,72,72,86,1,,,,,,,,,,,,,,,,,,,,,,,,,,
,,,,,,,,,,,,l,Correct!,,,,,,t1.png,t5.png,4,9.55E-11,19,female,2020-11-09_17h58.05.596,torte-q,2020.1.3,Win32,60,13966,0.56864,,,,,,,,,,,,,,0,73,73,55,1,,,,,,,,,,,,,,,,,,,,,,,,,,
,,,,,,,,,,,,a,Correct!,,,,,,t2.png,t1.png,1,0.90025,19,female,2020-11-09_17h58.05.596,torte-q,2020.1.3,Win32,60,13966,0.568435,,,,,,,,,,,,,,0,74,74,19,1,,,,,,,,,,,,,,,,,,,,,,,,,,
,,,,,,,,,,,,l,Incorrect,,,,,,t3.png,t4.png,1,0.909,19,female,2020-11-09_17h58.05.596,torte-q,2020.1.3,Win32,60,13966,0.735735,,,,,,,,,,,,,,0,75,75,82,1,,,,,,,,,,,,,,,,,,,,,,,,,,
,,,,,,,,,,,,a,Incorrect,,,,,,t3.png,t1.png,2,0.056466,19,female,2020-11-09_17h58.05.596,torte-q,2020.1.3,Win32,60,13966,0.60201,,,,,,,,,,,,,,0,76,76,29,1,,,,,,,,,,,,,,,,,,,,,,,,,,
,,,,,,,,,,,,l,Correct!,,,,,,t3.png,t5.png,2,0.056466,19,female,2020-11-09_17h58.05.596,torte-q,2020.1.3,Win32,60,13966,0.61715,,,,,,,,,,,,,,0,77,77,6,1,,,,,,,,,,,,,,,,,,,,,,,,,,
,,,,,,,,,,,,l,Correct!,,,,,,t2.png,t3.png,1,0.90855,19,female,2020-11-09_17h58.05.596,torte-q,2020.1.3,Win32,60,13966,0.501805,,,,,,,,,,,,,,0,78,78,68,1,,,,,,,,,,,,,,,,,,,,,,,,,,
,,,,,,,,,,,,l,Correct!,,,,,,t1.png,t3.png,2,0.056466,19,female,2020-11-09_17h58.05.596,torte-q,2020.1.3,Win32,60,13966,0.50228,,,,,,,,,,,,,,0,79,79,99,1,,,,,,,,,,,,,,,,,,,,,,,,,,
,,,,,,,,,,,,l,Correct!,,,,,,t1.png,t3.png,2,0.056466,19,female,2020-11-09_17h58.05.596,torte-q,2020.1.3,Win32,60,13966,0.507125,,,,,,,,,,,,,,0,80,80,63,1,,,,,,,,,,,,,,,,,,,,,,,,,,
,,,,,,,,,,,,a,Correct!,,,,,,t2.png,t2.png,0,0.98115,19,female,2020-11-09_17h58.05.596,torte-q,2020.1.3,Win32,60,13966,0.727815,,,,,,,,,,,,,,0,81,81,2,1,,,,,,,,,,,,,,,,,,,,,,,,,,
,,,,,,,,,,,,l,Incorrect,,,,,,t4.png,t5.png,1,0.90025,19,female,2020-11-09_17h58.05.596,torte-q,2020.1.3,Win32,60,13966,0.60207,,,,,,,,,,,,,,0,82,82,47,1,,,,,,,,,,,,,,,,,,,,,,,,,,
,,,,,,,,,,,,a,Incorrect,,,,,,t4.png,t1.png,3,0.0000131,19,female,2020-11-09_17h58.05.596,torte-q,2020.1.3,Win32,60,13966,0.41829,,,,,,,,,,,,,,0,83,83,61,1,,,,,,,,,,,,,,,,,,,,,,,,,,
,,,,,,,,,,,,a,Incorrect,,,,,,t4.png,t1.png,3,0.0000131,19,female,2020-11-09_17h58.05.596,torte-q,2020.1.3,Win32,60,13966,0.71857,,,,,,,,,,,,,,0,84,84,13,1,,,,,,,,,,,,,,,,,,,,,,,,,,
,,,,,,,,,,,,l,Correct!,,,,,,t2.png,t4.png,2,0.0591,19,female,2020-11-09_17h58.05.596,torte-q,2020.1.3,Win32,60,13966,0.552415,,,,,,,,,,,,,,0,85,85,15,1,,,,,,,,,,,,,,,,,,,,,,,,,,
,,,,,,,,,,,,a,Incorrect,,,,,,t4.png,t2.png,2,0.0591,19,female,2020-11-09_17h58.05.596,torte-q,2020.1.3,Win32,60,13966,0.50207,,,,,,,,,,,,,,0,86,86,36,1,,,,,,,,,,,,,,,,,,,,,,,,,,
,,,,,,,,,,,,l,Correct!,,,,,,t2.png,t4.png,2,0.059078,19,female,2020-11-09_17h58.05.596,torte-q,2020.1.3,Win32,60,13966,0.65079,,,,,,,,,,,,,,0,87,87,37,1,,,,,,,,,,,,,,,,,,,,,,,,,,
,,,,,,,,,,,,l,Correct!,,,,,,t2.png,t5.png,3,0.0000131,19,female,2020-11-09_17h58.05.596,torte-q,2020.1.3,Win32,60,13966,1.186195,,,,,,,,,,,,,,0,88,88,104,1,,,,,,,,,,,,,,,,,,,,,,,,,,
,,,,,,,,,,,,l,Correct!,,,,,,t1.png,t5.png,4,9.55E-11,19,female,2020-11-09_17h58.05.596,torte-q,2020.1.3,Win32,60,13966,0.70271,,,,,,,,,,,,,,0,89,89,16,1,,,,,,,,,,,,,,,,,,,,,,,,,,
,,,,,,,,,,,,a,Correct!,,,,,,t1.png,t1.png,0,0.97829,19,female,2020-11-09_17h58.05.596,torte-q,2020.1.3,Win32,60,13966,0.635315,,,,,,,,,,,,,,0,90,90,67,1,,,,,,,,,,,,,,,,,,,,,,,,,,
,,,,,,,,,,,,a,Incorrect,,,,,,t1.png,t5.png,4,9.55E-11,19,female,2020-11-09_17h58.05.596,torte-q,2020.1.3,Win32,60,13966,0.35193,,,,,,,,,,,,,,0,91,91,12,1,,,,,,,,,,,,,,,,,,,,,,,,,,
,,,,,,,,,,,,l,Correct!,,,,,,t5.png,t3.png,2,0.056466,19,female,2020-11-09_17h58.05.596,torte-q,2020.1.3,Win32,60,13966,0.40185,,,,,,,,,,,,,,0,92,92,108,1,,,,,,,,,,,,,,,,,,,,,,,,,,
,,,,,,,,,,,,a,Correct!,,,,,,t1.png,t1.png,0,0.97829,19,female,2020-11-09_17h58.05.596,torte-q,2020.1.3,Win32,60,13966,0.78552,,,,,,,,,,,,,,0,93,93,78,1,,,,,,,,,,,,,,,,,,,,,,,,,,
,,,,,,,,,,,,a,Correct!,,,,,,t2.png,t2.png,0,0.98115,19,female,2020-11-09_17h58.05.596,torte-q,2020.1.3,Win32,60,13966,0.43532,,,,,,,,,,,,,,0,94,94,57,1,,,,,,,,,,,,,,,,,,,,,,,,,,
,,,,,,,,,,,,l,Incorrect,,,,,,t3.png,t2.png,1,0.909,19,female,2020-11-09_17h58.05.596,torte-q,2020.1.3,Win32,60,13966,0.817665,,,,,,,,,,,,,,0,95,95,23,1,,,,,,,,,,,,,,,,,,,,,,,,,,
,,,,,,,,,,,,a,Incorrect,,,,,,t3.png,t5.png,2,0.0565,19,female,2020-11-09_17h58.05.596,torte-q,2020.1.3,Win32,60,13966,0.43502,,,,,,,,,,,,,,0,96,96,30,1,,,,,,,,,,,,,,,,,,,,,,,,,,
,,,,,,,,,,,,l,Incorrect,,,,,,t4.png,t5.png,1,0.9,19,female,2020-11-09_17h58.05.596,torte-q,2020.1.3,Win32,60,13966,0.70199,,,,,,,,,,,,,,0,97,97,115,1,,,,,,,,,,,,,,,,,,,,,,,,,,
,,,,,,,,,,,,a,Correct!,,,,,,t2.png,t1.png,1,0.9,19,female,2020-11-09_17h58.05.596,torte-q,2020.1.3,Win32,60,13966,0.482155,,,,,,,,,,,,,,0,98,98,118,1,,,,,,,,,,,,,,,,,,,,,,,,,,
,,,,,,,,,,,,a,Incorrect,,,,,,t4.png,t2.png,2,0.059078,19,female,2020-11-09_17h58.05.596,torte-q,2020.1.3,Win32,60,13966,0.485195,,,,,,,,,,,,,,0,99,99,88,1,,,,,,,,,,,,,,,,,,,,,,,,,,
,,,,,,,,,,,,l,Incorrect,,,,,,t3.png,t4.png,1,0.90855,19,female,2020-11-09_17h58.05.596,torte-q,2020.1.3,Win32,60,13966,0.66883,,,,,,,,,,,,,,0,100,100,96,1,,,,,,,,,,,,,,,,,,,,,,,,,,
,,,,,,,,,,,,l,Correct!,,,,,,t1.png,t4.png,3,0.0000131,19,female,2020-11-09_17h58.05.596,torte-q,2020.1.3,Win32,60,13966,0.58411,,,,,,,,,,,,,,0,101,101,17,1,,,,,,,,,,,,,,,,,,,,,,,,,,
,,,,,,,,,,,,l,Incorrect,,,,,,t2.png,t3.png,1,0.90855,19,female,2020-11-09_17h58.05.596,torte-q,2020.1.3,Win32,60,13966,1.002475,,,,,,,,,,,,,,0,102,102,111,1,,,,,,,,,,,,,,,,,,,,,,,,,,
,,,,,,,,,,,,a,Correct!,,,,,,t2.png,t2.png,0,0.98115,19,female,2020-11-09_17h58.05.596,torte-q,2020.1.3,Win32,60,13966,0.56851,,,,,,,,,,,,,,0,103,103,7,1,,,,,,,,,,,,,,,,,,,,,,,,,,
,,,,,,,,,,,,l,Incorrect,,,,,,t4.png,t5.png,1,0.90025,19,female,2020-11-09_17h58.05.596,torte-q,2020.1.3,Win32,60,13966,0.61738,,,,,,,,,,,,,,0,104,104,113,1,,,,,,,,,,,,,,,,,,,,,,,,,,
,,,,,,,,,,,,l,Incorrect,,,,,,t1.png,t1.png,0,0.978,19,female,2020-11-09_17h58.05.596,torte-q,2020.1.3,Win32,60,13966,0.818655,,,,,,,,,,,,,,0,105,105,28,1,,,,,,,,,,,,,,,,,,,,,,,,,,
,,,,,,,,,,,,l,Incorrect,,,,,,t1.png,t2.png,1,0.90025,19,female,2020-11-09_17h58.05.596,torte-q,2020.1.3,Win32,60,13966,0.602185,,,,,,,,,,,,,,0,106,106,33,1,,,,,,,,,,,,,,,,,,,,,,,,,,
,,,,,,,,,,,,l,Correct!,,,,,,t2.png,t5.png,3,0.0000131,19,female,2020-11-09_17h58.05.596,torte-q,2020.1.3,Win32,60,13966,0.618845,,,,,,,,,,,,,,0,107,107,40,1,,,,,,,,,,,,,,,,,,,,,,,,,,
,,,,,,,,,,,,a,Incorrect,,,,,,t3.png,t1.png,2,0.056466,19,female,2020-11-09_17h58.05.596,torte-q,2020.1.3,Win32,60,13966,0.501755,,,,,,,,,,,,,,0,108,108,32,1,,,,,,,,,,,,,,,,,,,,,,,,,,
,,,,,,,,,,,,a,Incorrect,,,,,,t3.png,t1.png,2,0.056466,19,female,2020-11-09_17h58.05.596,torte-q,2020.1.3,Win32,60,13966,0.6179,,,,,,,,,,,,,,0,109,109,0,1,,,,,,,,,,,,,,,,,,,,,,,,,,
,,,,,,,,,,,,l,Incorrect,,,,,,t1.png,t2.png,1,0.9,19,female,2020-11-09_17h58.05.596,torte-q,2020.1.3,Win32,60,13966,0.61859,,,,,,,,,,,,,,0,110,110,1,1,,,,,,,,,,,,,,,,,,,,,,,,,,
,,,,,,,,,,,,a,Correct!,,,,,,t3.png,t2.png,1,0.90855,19,female,2020-11-09_17h58.05.596,torte-q,2020.1.3,Win32,60,13966,0.65626,,,,,,,,,,,,,,0,111,111,18,1,,,,,,,,,,,,,,,,,,,,,,,,,,
,,,,,,,,,,,,a,Correct!,,,,,,t5.png,t5.png,0,0.97829,19,female,2020-11-09_17h58.05.596,torte-q,2020.1.3,Win32,60,13966,0.71367,,,,,,,,,,,,,,0,112,112,70,1,,,,,,,,,,,,,,,,,,,,,,,,,,
,,,,,,,,,,,,a,Correct!,,,,,,t5.png,t4.png,1,0.9,19,female,2020-11-09_17h58.05.596,torte-q,2020.1.3,Win32,60,13966,0.852335,,,,,,,,,,,,,,0,113,113,76,1,,,,,,,,,,,,,,,,,,,,,,,,,,
,,,,,,,,,,,,l,Incorrect,,,,,,t5.png,t4.png,1,0.90025,19,female,2020-11-09_17h58.05.596,torte-q,2020.1.3,Win32,60,13966,0.58668,,,,,,,,,,,,,,0,114,114,34,1,,,,,,,,,,,,,,,,,,,,,,,,,,
,,,,,,,,,,,,a,Correct!,,,,,,t4.png,t3.png,1,0.909,19,female,2020-11-09_17h58.05.596,torte-q,2020.1.3,Win32,60,13966,0.63545,,,,,,,,,,,,,,0,115,115,20,1,,,,,,,,,,,,,,,,,,,,,,,,,,
,,,,,,,,,,,,a,Correct!,,,,,,t5.png,t5.png,0,0.97829,19,female,2020-11-09_17h58.05.596,torte-q,2020.1.3,Win32,60,13966,1.019125,,,,,,,,,,,,,,0,116,116,25,1,,,,,,,,,,,,,,,,,,,,,,,,,,
,,,,,,,,,,,,l,Correct!,,,,,,t1.png,t3.png,2,0.056466,19,female,2020-11-09_17h58.05.596,torte-q,2020.1.3,Win32,60,13966,0.551845,,,,,,,,,,,,,,0,117,117,87,1,,,,,,,,,,,,,,,,,,,,,,,,,,
,,,,,,,,,,,,a,Incorrect,,,,,,t4.png,t2.png,2,0.059078,19,female,2020-11-09_17h58.05.596,torte-q,2020.1.3,Win32,60,13966,0.535795,,,,,,,,,,,,,,0,118,118,110,1,,,,,,,,,,,,,,,,,,,,,,,,,,
,,,,,,,,,,,,a,Correct!,,,,,,t2.png,t1.png,1,0.90025,19,female,2020-11-09_17h58.05.596,torte-q,2020.1.3,Win32,60,13966,0.85321,,,,,,,,,,,,,,0,119,119,4,1,,,,,,,,,,,,,,,,,,,,,,,,,,
,,,,,,,,,,,,,,,,,,,,,,,19,female,2020-11-09_17h58.05.596,torte-q,2020.1.3,Win32,60,13966,,space,0.98962,,,,,,,,,,,,,,,,,5.02,9.515125,-258,57,1,0,0,s3,-256,80,1,0,0,t1,125,-101,1,0,0,proceed,space,25.11226,space,0.853485,space,0.4309
