key_resp_8.keys,key_resp_8.rt,key_resp_9.keys,key_resp_9.rt,key_resp_10.keys,key_resp_10.rt,key_resp_11.keys,key_resp_11.rt,key_resp_2.keys,key_resp_2.rt,key_resp_3.keys,key_resp_3.rt,key_resp.keys,key_resp.rt,Feedback,train.thisRepN,train.thisTrialN,train.thisN,train.thisIndex,train.ran,torta_sx,torta_dx,difference,probability,age,gender,date,expName,psychopyVersion,OS,frameRate,participant,key_resp_15.keys,key_resp_15.rt,key_resp_6.keys,key_resp_6.rt,test1.thisRepN,test1.thisTrialN,test1.thisN,test1.thisIndex,test1.ran,key_resp_16.keys,key_resp_16.rt,key_resp_7.keys,key_resp_7.rt,test2.thisRepN,test2.thisTrialN,test2.thisN,test2.thisIndex,test2.ran,rating.response,rating.rt,mouse.x,mouse.y,mouse.leftButton,mouse.midButton,mouse.rightButton,mouse.clicked_name,mouse_2.x,mouse_2.y,mouse_2.leftButton,mouse_2.midButton,mouse_2.rightButton,mouse_2.clicked_name,mouse_3.x,mouse_3.y,mouse_3.leftButton,mouse_3.midButton,mouse_3.rightButton,mouse_3.clicked_name,key_resp_12.keys,key_resp_12.rt,key_resp_13.keys,key_resp_13.rt,key_resp_14.keys,key_resp_14.rt
space,0.75311,space,0.44575,space,0.375485,space,0.27728,space,18.178665,space,95.4416,l,2.25159,Incorrect,0,0,0,63,1,t2.png,t3.png,1,0.909,19,female,2020-11-09_11h49.33.998,torte-q,2020.1.3,Win32,60,13983,,,,,,,,,,,,,,,,,,,,,,,,,,,,,,,,,,,,,,,,,,,,
,,,,,,,,,,,,,,Too slow :(,0,1,1,77,1,t1.png,t1.png,0,0.97829,19,female,2020-11-09_11h49.33.998,torte-q,2020.1.3,Win32,60,13983,,,,,,,,,,,,,,,,,,,,,,,,,,,,,,,,,,,,,,,,,,,,
,,,,,,,,,,,,a,1.90868,Incorrect,0,2,2,65,1,t4.png,t5.png,1,0.90025,19,female,2020-11-09_11h49.33.998,torte-q,2020.1.3,Win32,60,13983,,,,,,,,,,,,,,,,,,,,,,,,,,,,,,,,,,,,,,,,,,,,
,,,,,,,,,,,,l,2.231995,Correct!,0,3,3,44,1,t2.png,t3.png,1,0.909,19,female,2020-11-09_11h49.33.998,torte-q,2020.1.3,Win32,60,13983,,,,,,,,,,,,,,,,,,,,,,,,,,,,,,,,,,,,,,,,,,,,
,,,,,,,,,,,,l,1.52803,Incorrect,0,4,4,20,1,t2.png,t3.png,1,0.90855,19,female,2020-11-09_11h49.33.998,torte-q,2020.1.3,Win32,60,13983,,,,,,,,,,,,,,,,,,,,,,,,,,,,,,,,,,,,,,,,,,,,
,,,,,,,,,,,,,,Too slow :(,0,5,5,85,1,t3.png,t2.png,1,0.90855,19,female,2020-11-09_11h49.33.998,torte-q,2020.1.3,Win32,60,13983,,,,,,,,,,,,,,,,,,,,,,,,,,,,,,,,,,,,,,,,,,,,
,,,,,,,,,,,,a,0.63981,Incorrect,0,6,6,86,1,t3.png,t1.png,2,0.056466,19,female,2020-11-09_11h49.33.998,torte-q,2020.1.3,Win32,60,13983,,,,,,,,,,,,,,,,,,,,,,,,,,,,,,,,,,,,,,,,,,,,
,,,,,,,,,,,,l,1.64706,Incorrect,0,7,7,28,1,t2.png,t3.png,1,0.909,19,female,2020-11-09_11h49.33.998,torte-q,2020.1.3,Win32,60,13983,,,,,,,,,,,,,,,,,,,,,,,,,,,,,,,,,,,,,,,,,,,,
,,,,,,,,,,,,,,Too slow :(,0,8,8,88,1,t3.png,t1.png,2,0.056466,19,female,2020-11-09_11h49.33.998,torte-q,2020.1.3,Win32,60,13983,,,,,,,,,,,,,,,,,,,,,,,,,,,,,,,,,,,,,,,,,,,,
,,,,,,,,,,,,l,1.11513,Correct!,0,9,9,103,1,t3.png,t1.png,2,0.056466,19,female,2020-11-09_11h49.33.998,torte-q,2020.1.3,Win32,60,13983,,,,,,,,,,,,,,,,,,,,,,,,,,,,,,,,,,,,,,,,,,,,
,,,,,,,,,,,,l,1.663625,Incorrect,0,10,10,71,1,t5.png,t5.png,0,0.97829,19,female,2020-11-09_11h49.33.998,torte-q,2020.1.3,Win32,60,13983,,,,,,,,,,,,,,,,,,,,,,,,,,,,,,,,,,,,,,,,,,,,
,,,,,,,,,,,,a,1.6031,Correct!,0,11,11,49,1,t4.png,t5.png,1,0.9,19,female,2020-11-09_11h49.33.998,torte-q,2020.1.3,Win32,60,13983,,,,,,,,,,,,,,,,,,,,,,,,,,,,,,,,,,,,,,,,,,,,
,,,,,,,,,,,,l,0.49825,Correct!,0,12,12,37,1,t1.png,t4.png,3,0.0000131,19,female,2020-11-09_11h49.33.998,torte-q,2020.1.3,Win32,60,13983,,,,,,,,,,,,,,,,,,,,,,,,,,,,,,,,,,,,,,,,,,,,
,,,,,,,,,,,,a,0.501515,Incorrect,0,13,13,55,1,t2.png,t4.png,2,0.059078,19,female,2020-11-09_11h49.33.998,torte-q,2020.1.3,Win32,60,13983,,,,,,,,,,,,,,,,,,,,,,,,,,,,,,,,,,,,,,,,,,,,
,,,,,,,,,,,,l,0.95599,Incorrect,0,14,14,76,1,t3.png,t2.png,1,0.90855,19,female,2020-11-09_11h49.33.998,torte-q,2020.1.3,Win32,60,13983,,,,,,,,,,,,,,,,,,,,,,,,,,,,,,,,,,,,,,,,,,,,
,,,,,,,,,,,,l,2.27921,Incorrect,0,15,15,113,1,t5.png,t4.png,1,0.9,19,female,2020-11-09_11h49.33.998,torte-q,2020.1.3,Win32,60,13983,,,,,,,,,,,,,,,,,,,,,,,,,,,,,,,,,,,,,,,,,,,,
,,,,,,,,,,,,l,1.89571,Incorrect,0,16,16,13,1,t5.png,t5.png,0,0.97829,19,female,2020-11-09_11h49.33.998,torte-q,2020.1.3,Win32,60,13983,,,,,,,,,,,,,,,,,,,,,,,,,,,,,,,,,,,,,,,,,,,,
,,,,,,,,,,,,a,1.56295,Correct!,0,17,17,101,1,t4.png,t5.png,1,0.90025,19,female,2020-11-09_11h49.33.998,torte-q,2020.1.3,Win32,60,13983,,,,,,,,,,,,,,,,,,,,,,,,,,,,,,,,,,,,,,,,,,,,
,,,,,,,,,,,,a,1.1547,Correct!,0,18,18,45,1,t3.png,t2.png,1,0.90855,19,female,2020-11-09_11h49.33.998,torte-q,2020.1.3,Win32,60,13983,,,,,,,,,,,,,,,,,,,,,,,,,,,,,,,,,,,,,,,,,,,,
,,,,,,,,,,,,a,1.514255,Correct!,0,19,19,116,1,t5.png,t4.png,1,0.90025,19,female,2020-11-09_11h49.33.998,torte-q,2020.1.3,Win32,60,13983,,,,,,,,,,,,,,,,,,,,,,,,,,,,,,,,,,,,,,,,,,,,
,,,,,,,,,,,,a,1.271895,Correct!,0,20,20,2,1,t3.png,t2.png,1,0.90855,19,female,2020-11-09_11h49.33.998,torte-q,2020.1.3,Win32,60,13983,,,,,,,,,,,,,,,,,,,,,,,,,,,,,,,,,,,,,,,,,,,,
,,,,,,,,,,,,a,1.52354,Correct!,0,21,21,16,1,t5.png,t4.png,1,0.9,19,female,2020-11-09_11h49.33.998,torte-q,2020.1.3,Win32,60,13983,,,,,,,,,,,,,,,,,,,,,,,,,,,,,,,,,,,,,,,,,,,,
,,,,,,,,,,,,l,1.98029,Incorrect,0,22,22,109,1,t5.png,t5.png,0,0.97829,19,female,2020-11-09_11h49.33.998,torte-q,2020.1.3,Win32,60,13983,,,,,,,,,,,,,,,,,,,,,,,,,,,,,,,,,,,,,,,,,,,,
,,,,,,,,,,,,a,1.306885,Correct!,0,23,23,25,1,t5.png,t5.png,0,0.97829,19,female,2020-11-09_11h49.33.998,torte-q,2020.1.3,Win32,60,13983,,,,,,,,,,,,,,,,,,,,,,,,,,,,,,,,,,,,,,,,,,,,
,,,,,,,,,,,,a,1.156175,Correct!,0,24,24,84,1,t1.png,t1.png,0,0.97829,19,female,2020-11-09_11h49.33.998,torte-q,2020.1.3,Win32,60,13983,,,,,,,,,,,,,,,,,,,,,,,,,,,,,,,,,,,,,,,,,,,,
,,,,,,,,,,,,,,Too slow :(,0,25,25,32,1,t4.png,t5.png,1,0.90025,19,female,2020-11-09_11h49.33.998,torte-q,2020.1.3,Win32,60,13983,,,,,,,,,,,,,,,,,,,,,,,,,,,,,,,,,,,,,,,,,,,,
,,,,,,,,,,,,,,Too slow :(,0,26,26,48,1,t5.png,t5.png,0,0.97829,19,female,2020-11-09_11h49.33.998,torte-q,2020.1.3,Win32,60,13983,,,,,,,,,,,,,,,,,,,,,,,,,,,,,,,,,,,,,,,,,,,,
,,,,,,,,,,,,l,1.22994,Correct!,0,27,27,17,1,t1.png,t4.png,3,0.0000131,19,female,2020-11-09_11h49.33.998,torte-q,2020.1.3,Win32,60,13983,,,,,,,,,,,,,,,,,,,,,,,,,,,,,,,,,,,,,,,,,,,,
,,,,,,,,,,,,l,1.90402,Correct!,0,28,28,3,1,t1.png,t5.png,4,9.55E-11,19,female,2020-11-09_11h49.33.998,torte-q,2020.1.3,Win32,60,13983,,,,,,,,,,,,,,,,,,,,,,,,,,,,,,,,,,,,,,,,,,,,
,,,,,,,,,,,,l,1.50302,Correct!,0,29,29,82,1,t5.png,t1.png,4,9.55E-11,19,female,2020-11-09_11h49.33.998,torte-q,2020.1.3,Win32,60,13983,,,,,,,,,,,,,,,,,,,,,,,,,,,,,,,,,,,,,,,,,,,,
,,,,,,,,,,,,l,1.51301,Correct!,0,30,30,117,1,t1.png,t5.png,4,9.55E-11,19,female,2020-11-09_11h49.33.998,torte-q,2020.1.3,Win32,60,13983,,,,,,,,,,,,,,,,,,,,,,,,,,,,,,,,,,,,,,,,,,,,
,,,,,,,,,,,,a,1.431195,Correct!,0,31,31,74,1,t5.png,t4.png,1,0.9,19,female,2020-11-09_11h49.33.998,torte-q,2020.1.3,Win32,60,13983,,,,,,,,,,,,,,,,,,,,,,,,,,,,,,,,,,,,,,,,,,,,
,,,,,,,,,,,,a,1.797715,Correct!,0,32,32,70,1,t5.png,t5.png,0,0.978,19,female,2020-11-09_11h49.33.998,torte-q,2020.1.3,Win32,60,13983,,,,,,,,,,,,,,,,,,,,,,,,,,,,,,,,,,,,,,,,,,,,
,,,,,,,,,,,,l,2.13008,Incorrect,0,33,33,18,1,t4.png,t5.png,1,0.90025,19,female,2020-11-09_11h49.33.998,torte-q,2020.1.3,Win32,60,13983,,,,,,,,,,,,,,,,,,,,,,,,,,,,,,,,,,,,,,,,,,,,
,,,,,,,,,,,,a,1.92025,Correct!,0,34,34,58,1,t5.png,t4.png,1,0.90025,19,female,2020-11-09_11h49.33.998,torte-q,2020.1.3,Win32,60,13983,,,,,,,,,,,,,,,,,,,,,,,,,,,,,,,,,,,,,,,,,,,,
,,,,,,,,,,,,l,1.315115,Correct!,0,35,35,38,1,t3.png,t1.png,2,0.056466,19,female,2020-11-09_11h49.33.998,torte-q,2020.1.3,Win32,60,13983,,,,,,,,,,,,,,,,,,,,,,,,,,,,,,,,,,,,,,,,,,,,
,,,,,,,,,,,,l,1.95663,Correct!,0,36,36,19,1,t4.png,t2.png,2,0.059078,19,female,2020-11-09_11h49.33.998,torte-q,2020.1.3,Win32,60,13983,,,,,,,,,,,,,,,,,,,,,,,,,,,,,,,,,,,,,,,,,,,,
,,,,,,,,,,,,l,1.863925,Correct!,0,37,37,30,1,t3.png,t1.png,2,0.056466,19,female,2020-11-09_11h49.33.998,torte-q,2020.1.3,Win32,60,13983,,,,,,,,,,,,,,,,,,,,,,,,,,,,,,,,,,,,,,,,,,,,
,,,,,,,,,,,,a,1.96282,Correct!,0,38,38,79,1,t3.png,t2.png,1,0.909,19,female,2020-11-09_11h49.33.998,torte-q,2020.1.3,Win32,60,13983,,,,,,,,,,,,,,,,,,,,,,,,,,,,,,,,,,,,,,,,,,,,
,,,,,,,,,,,,,,Too slow :(,0,39,39,60,1,t2.png,t4.png,2,0.059078,19,female,2020-11-09_11h49.33.998,torte-q,2020.1.3,Win32,60,13983,,,,,,,,,,,,,,,,,,,,,,,,,,,,,,,,,,,,,,,,,,,,
,,,,,,,,,,,,,,Too slow :(,0,40,40,35,1,t1.png,t4.png,3,0.0000131,19,female,2020-11-09_11h49.33.998,torte-q,2020.1.3,Win32,60,13983,,,,,,,,,,,,,,,,,,,,,,,,,,,,,,,,,,,,,,,,,,,,
,,,,,,,,,,,,a,2.04624,Incorrect,0,41,41,104,1,t2.png,t3.png,1,0.90855,19,female,2020-11-09_11h49.33.998,torte-q,2020.1.3,Win32,60,13983,,,,,,,,,,,,,,,,,,,,,,,,,,,,,,,,,,,,,,,,,,,,
,,,,,,,,,,,,a,1.997105,Correct!,0,42,42,78,1,t1.png,t1.png,0,0.978,19,female,2020-11-09_11h49.33.998,torte-q,2020.1.3,Win32,60,13983,,,,,,,,,,,,,,,,,,,,,,,,,,,,,,,,,,,,,,,,,,,,
,,,,,,,,,,,,,,Too slow :(,0,43,43,5,1,t2.png,t4.png,2,0.059078,19,female,2020-11-09_11h49.33.998,torte-q,2020.1.3,Win32,60,13983,,,,,,,,,,,,,,,,,,,,,,,,,,,,,,,,,,,,,,,,,,,,
,,,,,,,,,,,,a,0.85539,Correct!,0,44,44,107,1,t1.png,t1.png,0,0.978,19,female,2020-11-09_11h49.33.998,torte-q,2020.1.3,Win32,60,13983,,,,,,,,,,,,,,,,,,,,,,,,,,,,,,,,,,,,,,,,,,,,
,,,,,,,,,,,,l,1.033325,Correct!,0,45,45,91,1,t1.png,t4.png,3,0.0000131,19,female,2020-11-09_11h49.33.998,torte-q,2020.1.3,Win32,60,13983,,,,,,,,,,,,,,,,,,,,,,,,,,,,,,,,,,,,,,,,,,,,
,,,,,,,,,,,,,,Too slow :(,0,46,46,41,1,t3.png,t2.png,1,0.90855,19,female,2020-11-09_11h49.33.998,torte-q,2020.1.3,Win32,60,13983,,,,,,,,,,,,,,,,,,,,,,,,,,,,,,,,,,,,,,,,,,,,
,,,,,,,,,,,,l,0.89766,Correct!,0,47,47,40,1,t1.png,t5.png,4,9.55E-11,19,female,2020-11-09_11h49.33.998,torte-q,2020.1.3,Win32,60,13983,,,,,,,,,,,,,,,,,,,,,,,,,,,,,,,,,,,,,,,,,,,,
,,,,,,,,,,,,,,Too slow :(,0,48,48,99,1,t1.png,t5.png,4,9.55E-11,19,female,2020-11-09_11h49.33.998,torte-q,2020.1.3,Win32,60,13983,,,,,,,,,,,,,,,,,,,,,,,,,,,,,,,,,,,,,,,,,,,,
,,,,,,,,,,,,l,1.080905,Correct!,0,49,49,0,1,t5.png,t1.png,4,9.55E-11,19,female,2020-11-09_11h49.33.998,torte-q,2020.1.3,Win32,60,13983,,,,,,,,,,,,,,,,,,,,,,,,,,,,,,,,,,,,,,,,,,,,
,,,,,,,,,,,,l,1.133415,Correct!,0,50,50,67,1,t1.png,t5.png,4,9.55E-11,19,female,2020-11-09_11h49.33.998,torte-q,2020.1.3,Win32,60,13983,,,,,,,,,,,,,,,,,,,,,,,,,,,,,,,,,,,,,,,,,,,,
,,,,,,,,,,,,l,1.205445,Correct!,0,51,51,90,1,t1.png,t5.png,4,9.55E-11,19,female,2020-11-09_11h49.33.998,torte-q,2020.1.3,Win32,60,13983,,,,,,,,,,,,,,,,,,,,,,,,,,,,,,,,,,,,,,,,,,,,
,,,,,,,,,,,,l,1.81356,Correct!,0,52,52,108,1,t5.png,t1.png,4,9.55E-11,19,female,2020-11-09_11h49.33.998,torte-q,2020.1.3,Win32,60,13983,,,,,,,,,,,,,,,,,,,,,,,,,,,,,,,,,,,,,,,,,,,,
,,,,,,,,,,,,l,1.267655,Correct!,0,53,53,47,1,t4.png,t2.png,2,0.059078,19,female,2020-11-09_11h49.33.998,torte-q,2020.1.3,Win32,60,13983,,,,,,,,,,,,,,,,,,,,,,,,,,,,,,,,,,,,,,,,,,,,
,,,,,,,,,,,,l,1.95736,Correct!,0,54,54,1,1,t2.png,t4.png,2,0.059078,19,female,2020-11-09_11h49.33.998,torte-q,2020.1.3,Win32,60,13983,,,,,,,,,,,,,,,,,,,,,,,,,,,,,,,,,,,,,,,,,,,,
,,,,,,,,,,,,l,1.08122,Correct!,0,55,55,80,1,t1.png,t4.png,3,0.0000131,19,female,2020-11-09_11h49.33.998,torte-q,2020.1.3,Win32,60,13983,,,,,,,,,,,,,,,,,,,,,,,,,,,,,,,,,,,,,,,,,,,,
,,,,,,,,,,,,a,0.828535,Correct!,0,56,56,62,1,t5.png,t5.png,0,0.978,19,female,2020-11-09_11h49.33.998,torte-q,2020.1.3,Win32,60,13983,,,,,,,,,,,,,,,,,,,,,,,,,,,,,,,,,,,,,,,,,,,,
,,,,,,,,,,,,a,0.83639,Correct!,0,57,57,29,1,t5.png,t5.png,0,0.97829,19,female,2020-11-09_11h49.33.998,torte-q,2020.1.3,Win32,60,13983,,,,,,,,,,,,,,,,,,,,,,,,,,,,,,,,,,,,,,,,,,,,
,,,,,,,,,,,,a,2.100905,Incorrect,0,58,58,9,1,t4.png,t5.png,1,0.9,19,female,2020-11-09_11h49.33.998,torte-q,2020.1.3,Win32,60,13983,,,,,,,,,,,,,,,,,,,,,,,,,,,,,,,,,,,,,,,,,,,,
,,,,,,,,,,,,a,1.617055,Correct!,0,59,59,112,1,t1.png,t1.png,0,0.97829,19,female,2020-11-09_11h49.33.998,torte-q,2020.1.3,Win32,60,13983,,,,,,,,,,,,,,,,,,,,,,,,,,,,,,,,,,,,,,,,,,,,
,,,,,,,,,,,,l,1.2636,Correct!,0,60,60,46,1,t4.png,t2.png,2,0.059078,19,female,2020-11-09_11h49.33.998,torte-q,2020.1.3,Win32,60,13983,,,,,,,,,,,,,,,,,,,,,,,,,,,,,,,,,,,,,,,,,,,,
,,,,,,,,,,,,,,Too slow :(,0,61,61,68,1,t1.png,t4.png,3,0.0000131,19,female,2020-11-09_11h49.33.998,torte-q,2020.1.3,Win32,60,13983,,,,,,,,,,,,,,,,,,,,,,,,,,,,,,,,,,,,,,,,,,,,
,,,,,,,,,,,,l,1.085375,Correct!,0,62,62,73,1,t4.png,t2.png,2,0.059078,19,female,2020-11-09_11h49.33.998,torte-q,2020.1.3,Win32,60,13983,,,,,,,,,,,,,,,,,,,,,,,,,,,,,,,,,,,,,,,,,,,,
,,,,,,,,,,,,l,1.04651,Correct!,0,63,63,14,1,t2.png,t4.png,2,0.059078,19,female,2020-11-09_11h49.33.998,torte-q,2020.1.3,Win32,60,13983,,,,,,,,,,,,,,,,,,,,,,,,,,,,,,,,,,,,,,,,,,,,
,,,,,,,,,,,,l,0.988435,Correct!,0,64,64,31,1,t1.png,t5.png,4,9.55E-11,19,female,2020-11-09_11h49.33.998,torte-q,2020.1.3,Win32,60,13983,,,,,,,,,,,,,,,,,,,,,,,,,,,,,,,,,,,,,,,,,,,,
,,,,,,,,,,,,l,1.1804,Correct!,0,65,65,94,1,t5.png,t1.png,4,9.55E-11,19,female,2020-11-09_11h49.33.998,torte-q,2020.1.3,Win32,60,13983,,,,,,,,,,,,,,,,,,,,,,,,,,,,,,,,,,,,,,,,,,,,
,,,,,,,,,,,,a,1.71275,Correct!,0,66,66,59,1,t5.png,t4.png,1,0.9,19,female,2020-11-09_11h49.33.998,torte-q,2020.1.3,Win32,60,13983,,,,,,,,,,,,,,,,,,,,,,,,,,,,,,,,,,,,,,,,,,,,
,,,,,,,,,,,,a,0.796045,Correct!,0,67,67,15,1,t3.png,t2.png,1,0.90855,19,female,2020-11-09_11h49.33.998,torte-q,2020.1.3,Win32,60,13983,,,,,,,,,,,,,,,,,,,,,,,,,,,,,,,,,,,,,,,,,,,,
,,,,,,,,,,,,a,2.016325,Incorrect,0,68,68,43,1,t4.png,t2.png,2,0.059078,19,female,2020-11-09_11h49.33.998,torte-q,2020.1.3,Win32,60,13983,,,,,,,,,,,,,,,,,,,,,,,,,,,,,,,,,,,,,,,,,,,,
,,,,,,,,,,,,a,1.187355,Correct!,0,69,69,106,1,t2.png,t3.png,1,0.90855,19,female,2020-11-09_11h49.33.998,torte-q,2020.1.3,Win32,60,13983,,,,,,,,,,,,,,,,,,,,,,,,,,,,,,,,,,,,,,,,,,,,
,,,,,,,,,,,,a,1.23107,Incorrect,0,70,70,97,1,t5.png,t5.png,0,0.97829,19,female,2020-11-09_11h49.33.998,torte-q,2020.1.3,Win32,60,13983,,,,,,,,,,,,,,,,,,,,,,,,,,,,,,,,,,,,,,,,,,,,
,,,,,,,,,,,,,,Too slow :(,0,71,71,8,1,t3.png,t2.png,1,0.90855,19,female,2020-11-09_11h49.33.998,torte-q,2020.1.3,Win32,60,13983,,,,,,,,,,,,,,,,,,,,,,,,,,,,,,,,,,,,,,,,,,,,
,,,,,,,,,,,,a,1.421525,Correct!,0,72,72,7,1,t4.png,t5.png,1,0.90025,19,female,2020-11-09_11h49.33.998,torte-q,2020.1.3,Win32,60,13983,,,,,,,,,,,,,,,,,,,,,,,,,,,,,,,,,,,,,,,,,,,,
,,,,,,,,,,,,l,0.93122,Correct!,0,73,73,89,1,t1.png,t4.png,3,0.0000131,19,female,2020-11-09_11h49.33.998,torte-q,2020.1.3,Win32,60,13983,,,,,,,,,,,,,,,,,,,,,,,,,,,,,,,,,,,,,,,,,,,,
,,,,,,,,,,,,a,1.51424,Incorrect,0,74,74,6,1,t1.png,t4.png,3,0.0000131,19,female,2020-11-09_11h49.33.998,torte-q,2020.1.3,Win32,60,13983,,,,,,,,,,,,,,,,,,,,,,,,,,,,,,,,,,,,,,,,,,,,
,,,,,,,,,,,,a,1.280325,Correct!,0,75,75,110,1,t4.png,t5.png,1,0.90025,19,female,2020-11-09_11h49.33.998,torte-q,2020.1.3,Win32,60,13983,,,,,,,,,,,,,,,,,,,,,,,,,,,,,,,,,,,,,,,,,,,,
,,,,,,,,,,,,l,1.654765,Correct!,0,76,76,53,1,t3.png,t1.png,2,0.056466,19,female,2020-11-09_11h49.33.998,torte-q,2020.1.3,Win32,60,13983,,,,,,,,,,,,,,,,,,,,,,,,,,,,,,,,,,,,,,,,,,,,
,,,,,,,,,,,,a,0.954285,Incorrect,0,77,77,69,1,t4.png,t2.png,2,0.059078,19,female,2020-11-09_11h49.33.998,torte-q,2020.1.3,Win32,60,13983,,,,,,,,,,,,,,,,,,,,,,,,,,,,,,,,,,,,,,,,,,,,
,,,,,,,,,,,,a,0.99784,Correct!,0,78,78,118,1,t5.png,t5.png,0,0.978,19,female,2020-11-09_11h49.33.998,torte-q,2020.1.3,Win32,60,13983,,,,,,,,,,,,,,,,,,,,,,,,,,,,,,,,,,,,,,,,,,,,
,,,,,,,,,,,,a,1.19084,Correct!,0,79,79,23,1,t5.png,t4.png,1,0.90025,19,female,2020-11-09_11h49.33.998,torte-q,2020.1.3,Win32,60,13983,,,,,,,,,,,,,,,,,,,,,,,,,,,,,,,,,,,,,,,,,,,,
,,,,,,,,,,,,l,0.86871,Correct!,0,80,80,24,1,t4.png,t2.png,2,0.059078,19,female,2020-11-09_11h49.33.998,torte-q,2020.1.3,Win32,60,13983,,,,,,,,,,,,,,,,,,,,,,,,,,,,,,,,,,,,,,,,,,,,
,,,,,,,,,,,,a,0.81503,Correct!,0,81,81,22,1,t2.png,t3.png,1,0.90855,19,female,2020-11-09_11h49.33.998,torte-q,2020.1.3,Win32,60,13983,,,,,,,,,,,,,,,,,,,,,,,,,,,,,,,,,,,,,,,,,,,,
,,,,,,,,,,,,l,1.472855,Correct!,0,82,82,4,1,t1.png,t5.png,4,9.55E-11,19,female,2020-11-09_11h49.33.998,torte-q,2020.1.3,Win32,60,13983,,,,,,,,,,,,,,,,,,,,,,,,,,,,,,,,,,,,,,,,,,,,
,,,,,,,,,,,,l,0.9221,Correct!,0,83,83,57,1,t2.png,t4.png,2,0.059078,19,female,2020-11-09_11h49.33.998,torte-q,2020.1.3,Win32,60,13983,,,,,,,,,,,,,,,,,,,,,,,,,,,,,,,,,,,,,,,,,,,,
,,,,,,,,,,,,a,0.91268,Correct!,0,84,84,21,1,t5.png,t4.png,1,0.90025,19,female,2020-11-09_11h49.33.998,torte-q,2020.1.3,Win32,60,13983,,,,,,,,,,,,,,,,,,,,,,,,,,,,,,,,,,,,,,,,,,,,
,,,,,,,,,,,,l,1.18032,Correct!,0,85,85,111,1,t5.png,t1.png,4,9.55E-11,19,female,2020-11-09_11h49.33.998,torte-q,2020.1.3,Win32,60,13983,,,,,,,,,,,,,,,,,,,,,,,,,,,,,,,,,,,,,,,,,,,,
,,,,,,,,,,,,l,1.34756,Correct!,0,86,86,93,1,t2.png,t4.png,2,0.059078,19,female,2020-11-09_11h49.33.998,torte-q,2020.1.3,Win32,60,13983,,,,,,,,,,,,,,,,,,,,,,,,,,,,,,,,,,,,,,,,,,,,
,,,,,,,,,,,,a,1.19943,Correct!,0,87,87,42,1,t5.png,t4.png,1,0.90025,19,female,2020-11-09_11h49.33.998,torte-q,2020.1.3,Win32,60,13983,,,,,,,,,,,,,,,,,,,,,,,,,,,,,,,,,,,,,,,,,,,,
,,,,,,,,,,,,a,1.617405,Correct!,0,88,88,10,1,t2.png,t3.png,1,0.90855,19,female,2020-11-09_11h49.33.998,torte-q,2020.1.3,Win32,60,13983,,,,,,,,,,,,,,,,,,,,,,,,,,,,,,,,,,,,,,,,,,,,
,,,,,,,,,,,,a,0.980955,Correct!,0,89,89,34,1,t5.png,t4.png,1,0.9,19,female,2020-11-09_11h49.33.998,torte-q,2020.1.3,Win32,60,13983,,,,,,,,,,,,,,,,,,,,,,,,,,,,,,,,,,,,,,,,,,,,
,,,,,,,,,,,,l,0.772705,Correct!,0,90,90,50,1,t5.png,t1.png,4,9.55E-11,19,female,2020-11-09_11h49.33.998,torte-q,2020.1.3,Win32,60,13983,,,,,,,,,,,,,,,,,,,,,,,,,,,,,,,,,,,,,,,,,,,,
,,,,,,,,,,,,l,1.07987,Correct!,0,91,91,102,1,t4.png,t2.png,2,0.059078,19,female,2020-11-09_11h49.33.998,torte-q,2020.1.3,Win32,60,13983,,,,,,,,,,,,,,,,,,,,,,,,,,,,,,,,,,,,,,,,,,,,
,,,,,,,,,,,,l,1.181735,Correct!,0,92,92,87,1,t5.png,t1.png,4,9.55E-11,19,female,2020-11-09_11h49.33.998,torte-q,2020.1.3,Win32,60,13983,,,,,,,,,,,,,,,,,,,,,,,,,,,,,,,,,,,,,,,,,,,,
,,,,,,,,,,,,l,1.207005,Correct!,0,93,93,26,1,t4.png,t2.png,2,0.0591,19,female,2020-11-09_11h49.33.998,torte-q,2020.1.3,Win32,60,13983,,,,,,,,,,,,,,,,,,,,,,,,,,,,,,,,,,,,,,,,,,,,
,,,,,,,,,,,,l,2.2498,Correct!,0,94,94,52,1,t2.png,t4.png,2,0.059078,19,female,2020-11-09_11h49.33.998,torte-q,2020.1.3,Win32,60,13983,,,,,,,,,,,,,,,,,,,,,,,,,,,,,,,,,,,,,,,,,,,,
,,,,,,,,,,,,l,1.230155,Correct!,0,95,95,115,1,t2.png,t4.png,2,0.059078,19,female,2020-11-09_11h49.33.998,torte-q,2020.1.3,Win32,60,13983,,,,,,,,,,,,,,,,,,,,,,,,,,,,,,,,,,,,,,,,,,,,
,,,,,,,,,,,,l,2.313435,Correct!,0,96,96,92,1,t2.png,t3.png,1,0.909,19,female,2020-11-09_11h49.33.998,torte-q,2020.1.3,Win32,60,13983,,,,,,,,,,,,,,,,,,,,,,,,,,,,,,,,,,,,,,,,,,,,
,,,,,,,,,,,,l,2.28058,Incorrect,0,97,97,66,1,t4.png,t5.png,1,0.9,19,female,2020-11-09_11h49.33.998,torte-q,2020.1.3,Win32,60,13983,,,,,,,,,,,,,,,,,,,,,,,,,,,,,,,,,,,,,,,,,,,,
,,,,,,,,,,,,l,1.69701,Correct!,0,98,98,33,1,t5.png,t1.png,4,9.55E-11,19,female,2020-11-09_11h49.33.998,torte-q,2020.1.3,Win32,60,13983,,,,,,,,,,,,,,,,,,,,,,,,,,,,,,,,,,,,,,,,,,,,
,,,,,,,,,,,,a,1.647045,Incorrect,0,99,99,36,1,t3.png,t1.png,2,0.0565,19,female,2020-11-09_11h49.33.998,torte-q,2020.1.3,Win32,60,13983,,,,,,,,,,,,,,,,,,,,,,,,,,,,,,,,,,,,,,,,,,,,
,,,,,,,,,,,,a,1.87354,Correct!,0,100,100,114,1,t2.png,t3.png,1,0.90855,19,female,2020-11-09_11h49.33.998,torte-q,2020.1.3,Win32,60,13983,,,,,,,,,,,,,,,,,,,,,,,,,,,,,,,,,,,,,,,,,,,,
,,,,,,,,,,,,l,2.262145,Correct!,0,101,101,119,1,t1.png,t5.png,4,9.55E-11,19,female,2020-11-09_11h49.33.998,torte-q,2020.1.3,Win32,60,13983,,,,,,,,,,,,,,,,,,,,,,,,,,,,,,,,,,,,,,,,,,,,
,,,,,,,,,,,,a,0.051615,Incorrect,0,102,102,61,1,t1.png,t4.png,3,0.0000131,19,female,2020-11-09_11h49.33.998,torte-q,2020.1.3,Win32,60,13983,,,,,,,,,,,,,,,,,,,,,,,,,,,,,,,,,,,,,,,,,,,,
,,,,,,,,,,,,l,1.30208,Correct!,0,103,103,27,1,t3.png,t1.png,2,0.0565,19,female,2020-11-09_11h49.33.998,torte-q,2020.1.3,Win32,60,13983,,,,,,,,,,,,,,,,,,,,,,,,,,,,,,,,,,,,,,,,,,,,
,,,,,,,,,,,,l,1.16622,Incorrect,0,104,104,64,1,t1.png,t1.png,0,0.978,19,female,2020-11-09_11h49.33.998,torte-q,2020.1.3,Win32,60,13983,,,,,,,,,,,,,,,,,,,,,,,,,,,,,,,,,,,,,,,,,,,,
,,,,,,,,,,,,a,0.98462,Incorrect,0,105,105,96,1,t1.png,t1.png,0,0.97829,19,female,2020-11-09_11h49.33.998,torte-q,2020.1.3,Win32,60,13983,,,,,,,,,,,,,,,,,,,,,,,,,,,,,,,,,,,,,,,,,,,,
,,,,,,,,,,,,,,Too slow :(,0,106,106,72,1,t4.png,t2.png,2,0.059078,19,female,2020-11-09_11h49.33.998,torte-q,2020.1.3,Win32,60,13983,,,,,,,,,,,,,,,,,,,,,,,,,,,,,,,,,,,,,,,,,,,,
,,,,,,,,,,,,a,0.91401,Correct!,0,107,107,105,1,t3.png,t2.png,1,0.90855,19,female,2020-11-09_11h49.33.998,torte-q,2020.1.3,Win32,60,13983,,,,,,,,,,,,,,,,,,,,,,,,,,,,,,,,,,,,,,,,,,,,
,,,,,,,,,,,,l,0.964775,Correct!,0,108,108,12,1,t5.png,t1.png,4,9.55E-11,19,female,2020-11-09_11h49.33.998,torte-q,2020.1.3,Win32,60,13983,,,,,,,,,,,,,,,,,,,,,,,,,,,,,,,,,,,,,,,,,,,,
,,,,,,,,,,,,a,1.21955,Correct!,0,109,109,81,1,t1.png,t1.png,0,0.97829,19,female,2020-11-09_11h49.33.998,torte-q,2020.1.3,Win32,60,13983,,,,,,,,,,,,,,,,,,,,,,,,,,,,,,,,,,,,,,,,,,,,
,,,,,,,,,,,,a,1.070975,Correct!,0,110,110,100,1,t4.png,t5.png,1,0.90025,19,female,2020-11-09_11h49.33.998,torte-q,2020.1.3,Win32,60,13983,,,,,,,,,,,,,,,,,,,,,,,,,,,,,,,,,,,,,,,,,,,,
,,,,,,,,,,,,l,0.82403,Correct!,0,111,111,11,1,t1.png,t4.png,3,0.0000131,19,female,2020-11-09_11h49.33.998,torte-q,2020.1.3,Win32,60,13983,,,,,,,,,,,,,,,,,,,,,,,,,,,,,,,,,,,,,,,,,,,,
,,,,,,,,,,,,a,1.16422,Incorrect,0,112,112,51,1,t3.png,t1.png,2,0.056466,19,female,2020-11-09_11h49.33.998,torte-q,2020.1.3,Win32,60,13983,,,,,,,,,,,,,,,,,,,,,,,,,,,,,,,,,,,,,,,,,,,,
,,,,,,,,,,,,a,1.098995,Correct!,0,113,113,39,1,t3.png,t2.png,1,0.90855,19,female,2020-11-09_11h49.33.998,torte-q,2020.1.3,Win32,60,13983,,,,,,,,,,,,,,,,,,,,,,,,,,,,,,,,,,,,,,,,,,,,
,,,,,,,,,,,,l,0.91383,Correct!,0,114,114,98,1,t2.png,t4.png,2,0.0591,19,female,2020-11-09_11h49.33.998,torte-q,2020.1.3,Win32,60,13983,,,,,,,,,,,,,,,,,,,,,,,,,,,,,,,,,,,,,,,,,,,,
,,,,,,,,,,,,a,0.80625,Correct!,0,115,115,95,1,t1.png,t1.png,0,0.978,19,female,2020-11-09_11h49.33.998,torte-q,2020.1.3,Win32,60,13983,,,,,,,,,,,,,,,,,,,,,,,,,,,,,,,,,,,,,,,,,,,,
,,,,,,,,,,,,a,0.88132,Correct!,0,116,116,75,1,t1.png,t1.png,0,0.97829,19,female,2020-11-09_11h49.33.998,torte-q,2020.1.3,Win32,60,13983,,,,,,,,,,,,,,,,,,,,,,,,,,,,,,,,,,,,,,,,,,,,
,,,,,,,,,,,,l,0.612765,Correct!,0,117,117,56,1,t5.png,t1.png,4,9.55E-11,19,female,2020-11-09_11h49.33.998,torte-q,2020.1.3,Win32,60,13983,,,,,,,,,,,,,,,,,,,,,,,,,,,,,,,,,,,,,,,,,,,,
,,,,,,,,,,,,l,1.33631,Correct!,0,118,118,54,1,t1.png,t5.png,4,9.55E-11,19,female,2020-11-09_11h49.33.998,torte-q,2020.1.3,Win32,60,13983,,,,,,,,,,,,,,,,,,,,,,,,,,,,,,,,,,,,,,,,,,,,
,,,,,,,,,,,,l,1.42342,Correct!,0,119,119,83,1,t3.png,t1.png,2,0.056466,19,female,2020-11-09_11h49.33.998,torte-q,2020.1.3,Win32,60,13983,,,,,,,,,,,,,,,,,,,,,,,,,,,,,,,,,,,,,,,,,,,,
,,,,,,,,,,,,l,0.781445,Correct!,,,,,,t2.png,t4.png,2,0.059078,19,female,2020-11-09_11h49.33.998,torte-q,2020.1.3,Win32,60,13983,space,2.668005,space,8.7745,0,0,0,11,1,,,,,,,,,,,,,,,,,,,,,,,,,,,,,,,,,,,
,,,,,,,,,,,,l,0.813675,Correct!,,,,,,t5.png,t1.png,4,9.55E-11,19,female,2020-11-09_11h49.33.998,torte-q,2020.1.3,Win32,60,13983,,,,,0,1,1,22,1,,,,,,,,,,,,,,,,,,,,,,,,,,,,,,,,,,,
,,,,,,,,,,,,a,0.731225,Correct!,,,,,,t5.png,t5.png,0,0.97829,19,female,2020-11-09_11h49.33.998,torte-q,2020.1.3,Win32,60,13983,,,,,0,2,2,94,1,,,,,,,,,,,,,,,,,,,,,,,,,,,,,,,,,,,
,,,,,,,,,,,,l,0.73044,Correct!,,,,,,t4.png,t1.png,3,0.0000131,19,female,2020-11-09_11h49.33.998,torte-q,2020.1.3,Win32,60,13983,,,,,0,3,3,48,1,,,,,,,,,,,,,,,,,,,,,,,,,,,,,,,,,,,
,,,,,,,,,,,,l,0.866835,Correct!,,,,,,t5.png,t3.png,2,0.056466,19,female,2020-11-09_11h49.33.998,torte-q,2020.1.3,Win32,60,13983,,,,,0,4,4,38,1,,,,,,,,,,,,,,,,,,,,,,,,,,,,,,,,,,,
,,,,,,,,,,,,a,0.781365,Correct!,,,,,,t3.png,t2.png,1,0.90855,19,female,2020-11-09_11h49.33.998,torte-q,2020.1.3,Win32,60,13983,,,,,0,5,5,97,1,,,,,,,,,,,,,,,,,,,,,,,,,,,,,,,,,,,
,,,,,,,,,,,,l,0.831705,Correct!,,,,,,t4.png,t1.png,3,0.0000131,19,female,2020-11-09_11h49.33.998,torte-q,2020.1.3,Win32,60,13983,,,,,0,6,6,61,1,,,,,,,,,,,,,,,,,,,,,,,,,,,,,,,,,,,
,,,,,,,,,,,,a,1.98076,Correct!,,,,,,t4.png,t5.png,1,0.90025,19,female,2020-11-09_11h49.33.998,torte-q,2020.1.3,Win32,60,13983,,,,,0,7,7,103,1,,,,,,,,,,,,,,,,,,,,,,,,,,,,,,,,,,,
,,,,,,,,,,,,a,0.847425,Correct!,,,,,,t5.png,t5.png,0,0.97829,19,female,2020-11-09_11h49.33.998,torte-q,2020.1.3,Win32,60,13983,,,,,0,8,8,73,1,,,,,,,,,,,,,,,,,,,,,,,,,,,,,,,,,,,
,,,,,,,,,,,,l,0.68448,Correct!,,,,,,t2.png,t5.png,3,0.0000131,19,female,2020-11-09_11h49.33.998,torte-q,2020.1.3,Win32,60,13983,,,,,0,9,9,40,1,,,,,,,,,,,,,,,,,,,,,,,,,,,,,,,,,,,
,,,,,,,,,,,,l,0.99146,Correct!,,,,,,t5.png,t3.png,2,0.056466,19,female,2020-11-09_11h49.33.998,torte-q,2020.1.3,Win32,60,13983,,,,,0,10,10,56,1,,,,,,,,,,,,,,,,,,,,,,,,,,,,,,,,,,,
,,,,,,,,,,,,l,0.797825,Correct!,,,,,,t3.png,t5.png,2,0.056466,19,female,2020-11-09_11h49.33.998,torte-q,2020.1.3,Win32,60,13983,,,,,0,11,11,14,1,,,,,,,,,,,,,,,,,,,,,,,,,,,,,,,,,,,
,,,,,,,,,,,,l,0.884525,Correct!,,,,,,t2.png,t4.png,2,0.0591,19,female,2020-11-09_11h49.33.998,torte-q,2020.1.3,Win32,60,13983,,,,,0,12,12,15,1,,,,,,,,,,,,,,,,,,,,,,,,,,,,,,,,,,,
,,,,,,,,,,,,a,0.9006,Correct!,,,,,,t4.png,t4.png,0,0.98115,19,female,2020-11-09_11h49.33.998,torte-q,2020.1.3,Win32,60,13983,,,,,0,13,13,80,1,,,,,,,,,,,,,,,,,,,,,,,,,,,,,,,,,,,
,,,,,,,,,,,,l,1.04647,Correct!,,,,,,t2.png,t5.png,3,0.0000131,19,female,2020-11-09_11h49.33.998,torte-q,2020.1.3,Win32,60,13983,,,,,0,14,14,95,1,,,,,,,,,,,,,,,,,,,,,,,,,,,,,,,,,,,
,,,,,,,,,,,,a,0.78292,Correct!,,,,,,t2.png,t1.png,1,0.9,19,female,2020-11-09_11h49.33.998,torte-q,2020.1.3,Win32,60,13983,,,,,0,15,15,118,1,,,,,,,,,,,,,,,,,,,,,,,,,,,,,,,,,,,
,,,,,,,,,,,,a,0.68557,Correct!,,,,,,t1.png,t1.png,0,0.978,19,female,2020-11-09_11h49.33.998,torte-q,2020.1.3,Win32,60,13983,,,,,0,16,16,28,1,,,,,,,,,,,,,,,,,,,,,,,,,,,,,,,,,,,
,,,,,,,,,,,,l,0.71416,Correct!,,,,,,t1.png,t4.png,3,0.0000131,19,female,2020-11-09_11h49.33.998,torte-q,2020.1.3,Win32,60,13983,,,,,0,17,17,50,1,,,,,,,,,,,,,,,,,,,,,,,,,,,,,,,,,,,
,,,,,,,,,,,,l,0.989815,Correct!,,,,,,t1.png,t3.png,2,0.056466,19,female,2020-11-09_11h49.33.998,torte-q,2020.1.3,Win32,60,13983,,,,,0,18,18,63,1,,,,,,,,,,,,,,,,,,,,,,,,,,,,,,,,,,,
,,,,,,,,,,,,a,0.95359,Incorrect,,,,,,t3.png,t1.png,2,0.056466,19,female,2020-11-09_11h49.33.998,torte-q,2020.1.3,Win32,60,13983,,,,,0,19,19,32,1,,,,,,,,,,,,,,,,,,,,,,,,,,,,,,,,,,,
,,,,,,,,,,,,l,1.253565,Correct!,,,,,,t5.png,t3.png,2,0.0565,19,female,2020-11-09_11h49.33.998,torte-q,2020.1.3,Win32,60,13983,,,,,0,20,20,39,1,,,,,,,,,,,,,,,,,,,,,,,,,,,,,,,,,,,
,,,,,,,,,,,,l,0.987,Correct!,,,,,,t5.png,t2.png,3,0.0000131,19,female,2020-11-09_11h49.33.998,torte-q,2020.1.3,Win32,60,13983,,,,,0,21,21,98,1,,,,,,,,,,,,,,,,,,,,,,,,,,,,,,,,,,,
,,,,,,,,,,,,a,1.030165,Correct!,,,,,,t3.png,t4.png,1,0.909,19,female,2020-11-09_11h49.33.998,torte-q,2020.1.3,Win32,60,13983,,,,,0,22,22,82,1,,,,,,,,,,,,,,,,,,,,,,,,,,,,,,,,,,,
,,,,,,,,,,,,a,1.049065,Correct!,,,,,,t5.png,t4.png,1,0.9,19,female,2020-11-09_11h49.33.998,torte-q,2020.1.3,Win32,60,13983,,,,,0,23,23,76,1,,,,,,,,,,,,,,,,,,,,,,,,,,,,,,,,,,,
,,,,,,,,,,,,a,1.0535,Correct!,,,,,,t5.png,t5.png,0,0.97829,19,female,2020-11-09_11h49.33.998,torte-q,2020.1.3,Win32,60,13983,,,,,0,24,24,70,1,,,,,,,,,,,,,,,,,,,,,,,,,,,,,,,,,,,
,,,,,,,,,,,,l,0.85189,Correct!,,,,,,t4.png,t1.png,3,0.0000131,19,female,2020-11-09_11h49.33.998,torte-q,2020.1.3,Win32,60,13983,,,,,0,25,25,42,1,,,,,,,,,,,,,,,,,,,,,,,,,,,,,,,,,,,
,,,,,,,,,,,,l,0.88,Correct!,,,,,,t1.png,t5.png,4,9.55E-11,19,female,2020-11-09_11h49.33.998,torte-q,2020.1.3,Win32,60,13983,,,,,0,26,26,55,1,,,,,,,,,,,,,,,,,,,,,,,,,,,,,,,,,,,
,,,,,,,,,,,,l,1.098475,Incorrect,,,,,,t1.png,t2.png,1,0.9,19,female,2020-11-09_11h49.33.998,torte-q,2020.1.3,Win32,60,13983,,,,,0,27,27,1,1,,,,,,,,,,,,,,,,,,,,,,,,,,,,,,,,,,,
,,,,,,,,,,,,l,1.21534,Correct!,,,,,,t5.png,t3.png,2,0.056466,19,female,2020-11-09_11h49.33.998,torte-q,2020.1.3,Win32,60,13983,,,,,0,28,28,114,1,,,,,,,,,,,,,,,,,,,,,,,,,,,,,,,,,,,
,,,,,,,,,,,,l,1.096855,Correct!,,,,,,t2.png,t4.png,2,0.059078,19,female,2020-11-09_11h49.33.998,torte-q,2020.1.3,Win32,60,13983,,,,,0,29,29,77,1,,,,,,,,,,,,,,,,,,,,,,,,,,,,,,,,,,,
,,,,,,,,,,,,a,0.913495,Correct!,,,,,,t3.png,t4.png,1,0.90855,19,female,2020-11-09_11h49.33.998,torte-q,2020.1.3,Win32,60,13983,,,,,0,30,30,84,1,,,,,,,,,,,,,,,,,,,,,,,,,,,,,,,,,,,
,,,,,,,,,,,,a,1.030735,Correct!,,,,,,t1.png,t1.png,0,0.97829,19,female,2020-11-09_11h49.33.998,torte-q,2020.1.3,Win32,60,13983,,,,,0,31,31,67,1,,,,,,,,,,,,,,,,,,,,,,,,,,,,,,,,,,,
,,,,,,,,,,,,l,0.87351,Correct!,,,,,,t3.png,t1.png,2,0.056466,19,female,2020-11-09_11h49.33.998,torte-q,2020.1.3,Win32,60,13983,,,,,0,32,32,0,1,,,,,,,,,,,,,,,,,,,,,,,,,,,,,,,,,,,
,,,,,,,,,,,,l,1.047205,Correct!,,,,,,t2.png,t5.png,3,0.0000131,19,female,2020-11-09_11h49.33.998,torte-q,2020.1.3,Win32,60,13983,,,,,0,33,33,66,1,,,,,,,,,,,,,,,,,,,,,,,,,,,,,,,,,,,
,,,,,,,,,,,,a,1.090065,Correct!,,,,,,t2.png,t3.png,1,0.90855,19,female,2020-11-09_11h49.33.998,torte-q,2020.1.3,Win32,60,13983,,,,,0,34,34,68,1,,,,,,,,,,,,,,,,,,,,,,,,,,,,,,,,,,,
,,,,,,,,,,,,a,0.90221,Correct!,,,,,,t2.png,t3.png,1,0.90855,19,female,2020-11-09_11h49.33.998,torte-q,2020.1.3,Win32,60,13983,,,,,0,35,35,111,1,,,,,,,,,,,,,,,,,,,,,,,,,,,,,,,,,,,
,,,,,,,,,,,,l,1.463285,Correct!,,,,,,t1.png,t3.png,2,0.056466,19,female,2020-11-09_11h49.33.998,torte-q,2020.1.3,Win32,60,13983,,,,,0,36,36,60,1,,,,,,,,,,,,,,,,,,,,,,,,,,,,,,,,,,,
,,,,,,,,,,,,l,1.38451,Correct!,,,,,,t1.png,t4.png,3,0.0000131,19,female,2020-11-09_11h49.33.998,torte-q,2020.1.3,Win32,60,13983,,,,,0,37,37,17,1,,,,,,,,,,,,,,,,,,,,,,,,,,,,,,,,,,,
,,,,,,,,,,,,a,0.889565,Correct!,,,,,,t4.png,t4.png,0,0.98115,19,female,2020-11-09_11h49.33.998,torte-q,2020.1.3,Win32,60,13983,,,,,0,38,38,90,1,,,,,,,,,,,,,,,,,,,,,,,,,,,,,,,,,,,
,,,,,,,,,,,,a,0.947175,Correct!,,,,,,t4.png,t3.png,1,0.909,19,female,2020-11-09_11h49.33.998,torte-q,2020.1.3,Win32,60,13983,,,,,0,39,39,20,1,,,,,,,,,,,,,,,,,,,,,,,,,,,,,,,,,,,
,,,,,,,,,,,,l,1.012975,Incorrect,,,,,,t1.png,t2.png,1,0.90025,19,female,2020-11-09_11h49.33.998,torte-q,2020.1.3,Win32,60,13983,,,,,0,40,40,33,1,,,,,,,,,,,,,,,,,,,,,,,,,,,,,,,,,,,
,,,,,,,,,,,,l,0.847225,Correct!,,,,,,t5.png,t3.png,2,0.056466,19,female,2020-11-09_11h49.33.998,torte-q,2020.1.3,Win32,60,13983,,,,,0,41,41,108,1,,,,,,,,,,,,,,,,,,,,,,,,,,,,,,,,,,,
,,,,,,,,,,,,l,1.17288,Incorrect,,,,,,t4.png,t5.png,1,0.90025,19,female,2020-11-09_11h49.33.998,torte-q,2020.1.3,Win32,60,13983,,,,,0,42,42,47,1,,,,,,,,,,,,,,,,,,,,,,,,,,,,,,,,,,,
,,,,,,,,,,,,a,1.063565,Correct!,,,,,,t2.png,t2.png,0,0.98115,19,female,2020-11-09_11h49.33.998,torte-q,2020.1.3,Win32,60,13983,,,,,0,43,43,2,1,,,,,,,,,,,,,,,,,,,,,,,,,,,,,,,,,,,
,,,,,,,,,,,,l,0.980985,Correct!,,,,,,t3.png,t5.png,2,0.0565,19,female,2020-11-09_11h49.33.998,torte-q,2020.1.3,Win32,60,13983,,,,,0,44,44,83,1,,,,,,,,,,,,,,,,,,,,,,,,,,,,,,,,,,,
,,,,,,,,,,,,l,0.89877,Correct!,,,,,,t2.png,t5.png,3,0.0000131,19,female,2020-11-09_11h49.33.998,torte-q,2020.1.3,Win32,60,13983,,,,,0,45,45,104,1,,,,,,,,,,,,,,,,,,,,,,,,,,,,,,,,,,,
,,,,,,,,,,,,a,0.896895,Correct!,,,,,,t4.png,t3.png,1,0.90855,19,female,2020-11-09_11h49.33.998,torte-q,2020.1.3,Win32,60,13983,,,,,0,46,46,75,1,,,,,,,,,,,,,,,,,,,,,,,,,,,,,,,,,,,
,,,,,,,,,,,,a,0.747265,Correct!,,,,,,t5.png,t5.png,0,0.978,19,female,2020-11-09_11h49.33.998,torte-q,2020.1.3,Win32,60,13983,,,,,0,47,47,117,1,,,,,,,,,,,,,,,,,,,,,,,,,,,,,,,,,,,
,,,,,,,,,,,,a,1.5128,Correct!,,,,,,t2.png,t1.png,1,0.90025,19,female,2020-11-09_11h49.33.998,torte-q,2020.1.3,Win32,60,13983,,,,,0,48,48,4,1,,,,,,,,,,,,,,,,,,,,,,,,,,,,,,,,,,,
,,,,,,,,,,,,a,0.9656,Correct!,,,,,,t3.png,t4.png,1,0.909,19,female,2020-11-09_11h49.33.998,torte-q,2020.1.3,Win32,60,13983,,,,,0,49,49,89,1,,,,,,,,,,,,,,,,,,,,,,,,,,,,,,,,,,,
,,,,,,,,,,,,l,1.096625,Correct!,,,,,,t4.png,t2.png,2,0.059078,19,female,2020-11-09_11h49.33.998,torte-q,2020.1.3,Win32,60,13983,,,,,0,50,50,110,1,,,,,,,,,,,,,,,,,,,,,,,,,,,,,,,,,,,
,,,,,,,,,,,,a,1.031365,Correct!,,,,,,t2.png,t2.png,0,0.98115,19,female,2020-11-09_11h49.33.998,torte-q,2020.1.3,Win32,60,13983,,,,,0,51,51,7,1,,,,,,,,,,,,,,,,,,,,,,,,,,,,,,,,,,,
,,,,,,,,,,,,a,1.456635,Correct!,,,,,,t3.png,t2.png,1,0.90855,19,female,2020-11-09_11h49.33.998,torte-q,2020.1.3,Win32,60,13983,,,,,0,52,52,53,1,,,,,,,,,,,,,,,,,,,,,,,,,,,,,,,,,,,
,,,,,,,,,,,,l,1.362645,Correct!,,,,,,t4.png,t2.png,2,0.059078,19,female,2020-11-09_11h49.33.998,torte-q,2020.1.3,Win32,60,13983,,,,,0,53,53,86,1,,,,,,,,,,,,,,,,,,,,,,,,,,,,,,,,,,,
,,,,,,,,,,,,l,1.02992,Correct!,,,,,,t3.png,t1.png,2,0.056466,19,female,2020-11-09_11h49.33.998,torte-q,2020.1.3,Win32,60,13983,,,,,0,54,54,29,1,,,,,,,,,,,,,,,,,,,,,,,,,,,,,,,,,,,
,,,,,,,,,,,,a,0.756755,Correct!,,,,,,t4.png,t3.png,1,0.909,19,female,2020-11-09_11h49.33.998,torte-q,2020.1.3,Win32,60,13983,,,,,0,55,55,46,1,,,,,,,,,,,,,,,,,,,,,,,,,,,,,,,,,,,
,,,,,,,,,,,,l,0.732895,Correct!,,,,,,t5.png,t2.png,3,0.0000131,19,female,2020-11-09_11h49.33.998,torte-q,2020.1.3,Win32,60,13983,,,,,0,56,56,51,1,,,,,,,,,,,,,,,,,,,,,,,,,,,,,,,,,,,
,,,,,,,,,,,,a,0.67011,Correct!,,,,,,t3.png,t2.png,1,0.909,19,female,2020-11-09_11h49.33.998,torte-q,2020.1.3,Win32,60,13983,,,,,0,57,57,3,1,,,,,,,,,,,,,,,,,,,,,,,,,,,,,,,,,,,
,,,,,,,,,,,,l,1.10347,Correct!,,,,,,t1.png,t4.png,3,0.0000131,19,female,2020-11-09_11h49.33.998,torte-q,2020.1.3,Win32,60,13983,,,,,0,58,58,107,1,,,,,,,,,,,,,,,,,,,,,,,,,,,,,,,,,,,
,,,,,,,,,,,,a,0.91444,Correct!,,,,,,t5.png,t4.png,1,0.90025,19,female,2020-11-09_11h49.33.998,torte-q,2020.1.3,Win32,60,13983,,,,,0,59,59,26,1,,,,,,,,,,,,,,,,,,,,,,,,,,,,,,,,,,,
,,,,,,,,,,,,l,0.880965,Correct!,,,,,,t4.png,t2.png,2,0.059078,19,female,2020-11-09_11h49.33.998,torte-q,2020.1.3,Win32,60,13983,,,,,0,60,60,109,1,,,,,,,,,,,,,,,,,,,,,,,,,,,,,,,,,,,
,,,,,,,,,,,,l,1.152885,Incorrect,,,,,,t4.png,t5.png,1,0.90025,19,female,2020-11-09_11h49.33.998,torte-q,2020.1.3,Win32,60,13983,,,,,0,61,61,58,1,,,,,,,,,,,,,,,,,,,,,,,,,,,,,,,,,,,
,,,,,,,,,,,,l,0.74713,Correct!,,,,,,t3.png,t1.png,2,0.056466,19,female,2020-11-09_11h49.33.998,torte-q,2020.1.3,Win32,60,13983,,,,,0,62,62,64,1,,,,,,,,,,,,,,,,,,,,,,,,,,,,,,,,,,,
,,,,,,,,,,,,a,0.931025,Correct!,,,,,,t2.png,t3.png,1,0.90855,19,female,2020-11-09_11h49.33.998,torte-q,2020.1.3,Win32,60,13983,,,,,0,63,63,65,1,,,,,,,,,,,,,,,,,,,,,,,,,,,,,,,,,,,
,,,,,,,,,,,,l,1.02747,Correct!,,,,,,t4.png,t1.png,3,0.0000131,19,female,2020-11-09_11h49.33.998,torte-q,2020.1.3,Win32,60,13983,,,,,0,64,64,93,1,,,,,,,,,,,,,,,,,,,,,,,,,,,,,,,,,,,
,,,,,,,,,,,,l,1.00963,Incorrect,,,,,,t2.png,t4.png,2,0.059078,19,female,2020-11-09_11h49.33.998,torte-q,2020.1.3,Win32,60,13983,,,,,0,65,65,24,1,,,,,,,,,,,,,,,,,,,,,,,,,,,,,,,,,,,
,,,,,,,,,,,,l,1.12581,Correct!,,,,,,t5.png,t1.png,4,9.55E-11,19,female,2020-11-09_11h49.33.998,torte-q,2020.1.3,Win32,60,13983,,,,,0,66,66,71,1,,,,,,,,,,,,,,,,,,,,,,,,,,,,,,,,,,,
,,,,,,,,,,,,a,1.733,Correct!,,,,,,t2.png,t3.png,1,0.90855,19,female,2020-11-09_11h49.33.998,torte-q,2020.1.3,Win32,60,13983,,,,,0,67,67,10,1,,,,,,,,,,,,,,,,,,,,,,,,,,,,,,,,,,,
,,,,,,,,,,,,l,0.8401,Correct!,,,,,,t3.png,t1.png,2,0.0565,19,female,2020-11-09_11h49.33.998,torte-q,2020.1.3,Win32,60,13983,,,,,0,68,68,31,1,,,,,,,,,,,,,,,,,,,,,,,,,,,,,,,,,,,
,,,,,,,,,,,,l,1.201245,Correct!,,,,,,t1.png,t3.png,2,0.056466,19,female,2020-11-09_11h49.33.998,torte-q,2020.1.3,Win32,60,13983,,,,,0,69,69,99,1,,,,,,,,,,,,,,,,,,,,,,,,,,,,,,,,,,,
,,,,,,,,,,,,a,0.95655,Correct!,,,,,,t4.png,t4.png,0,0.98115,19,female,2020-11-09_11h49.33.998,torte-q,2020.1.3,Win32,60,13983,,,,,0,70,70,21,1,,,,,,,,,,,,,,,,,,,,,,,,,,,,,,,,,,,
,,,,,,,,,,,,a,0.984615,Correct!,,,,,,t1.png,t2.png,1,0.90025,19,female,2020-11-09_11h49.33.998,torte-q,2020.1.3,Win32,60,13983,,,,,0,71,71,72,1,,,,,,,,,,,,,,,,,,,,,,,,,,,,,,,,,,,
,,,,,,,,,,,,l,1.13908,Correct!,,,,,,t1.png,t3.png,2,0.056466,19,female,2020-11-09_11h49.33.998,torte-q,2020.1.3,Win32,60,13983,,,,,0,72,72,87,1,,,,,,,,,,,,,,,,,,,,,,,,,,,,,,,,,,,
,,,,,,,,,,,,l,1.67057,Correct!,,,,,,t1.png,t4.png,3,0.0000131,19,female,2020-11-09_11h49.33.998,torte-q,2020.1.3,Win32,60,13983,,,,,0,73,73,81,1,,,,,,,,,,,,,,,,,,,,,,,,,,,,,,,,,,,
,,,,,,,,,,,,a,1.46425,Correct!,,,,,,t5.png,t5.png,0,0.97829,19,female,2020-11-09_11h49.33.998,torte-q,2020.1.3,Win32,60,13983,,,,,0,74,74,25,1,,,,,,,,,,,,,,,,,,,,,,,,,,,,,,,,,,,
,,,,,,,,,,,,a,1.77929,Correct!,,,,,,t2.png,t3.png,1,0.909,19,female,2020-11-09_11h49.33.998,torte-q,2020.1.3,Win32,60,13983,,,,,0,75,75,74,1,,,,,,,,,,,,,,,,,,,,,,,,,,,,,,,,,,,
,,,,,,,,,,,,l,1.238255,Incorrect,,,,,,t4.png,t4.png,0,0.98115,19,female,2020-11-09_11h49.33.998,torte-q,2020.1.3,Win32,60,13983,,,,,0,76,76,79,1,,,,,,,,,,,,,,,,,,,,,,,,,,,,,,,,,,,
,,,,,,,,,,,,l,1.830275,Correct!,,,,,,t1.png,t5.png,4,9.55E-11,19,female,2020-11-09_11h49.33.998,torte-q,2020.1.3,Win32,60,13983,,,,,0,77,77,85,1,,,,,,,,,,,,,,,,,,,,,,,,,,,,,,,,,,,
,,,,,,,,,,,,l,1.696495,Correct!,,,,,,t5.png,t1.png,4,9.55E-11,19,female,2020-11-09_11h49.33.998,torte-q,2020.1.3,Win32,60,13983,,,,,0,78,78,43,1,,,,,,,,,,,,,,,,,,,,,,,,,,,,,,,,,,,
,,,,,,,,,,,,a,1.15062,Correct!,,,,,,t1.png,t2.png,1,0.90025,19,female,2020-11-09_11h49.33.998,torte-q,2020.1.3,Win32,60,13983,,,,,0,79,79,112,1,,,,,,,,,,,,,,,,,,,,,,,,,,,,,,,,,,,
,,,,,,,,,,,,l,1.013215,Correct!,,,,,,t5.png,t1.png,4,9.55E-11,19,female,2020-11-09_11h49.33.998,torte-q,2020.1.3,Win32,60,13983,,,,,0,80,80,100,1,,,,,,,,,,,,,,,,,,,,,,,,,,,,,,,,,,,
,,,,,,,,,,,,a,0.969835,Correct!,,,,,,t2.png,t2.png,0,0.981,19,female,2020-11-09_11h49.33.998,torte-q,2020.1.3,Win32,60,13983,,,,,0,81,81,101,1,,,,,,,,,,,,,,,,,,,,,,,,,,,,,,,,,,,
,,,,,,,,,,,,a,0.846195,Correct!,,,,,,t1.png,t1.png,0,0.97829,19,female,2020-11-09_11h49.33.998,torte-q,2020.1.3,Win32,60,13983,,,,,0,82,82,78,1,,,,,,,,,,,,,,,,,,,,,,,,,,,,,,,,,,,
,,,,,,,,,,,,a,0.93124,Correct!,,,,,,t5.png,t4.png,1,0.90025,19,female,2020-11-09_11h49.33.998,torte-q,2020.1.3,Win32,60,13983,,,,,0,83,83,34,1,,,,,,,,,,,,,,,,,,,,,,,,,,,,,,,,,,,
,,,,,,,,,,,,l,2.166085,Correct!,,,,,,t3.png,t5.png,2,0.056466,19,female,2020-11-09_11h49.33.998,torte-q,2020.1.3,Win32,60,13983,,,,,0,84,84,44,1,,,,,,,,,,,,,,,,,,,,,,,,,,,,,,,,,,,
,,,,,,,,,,,,a,1.00586,Correct!,,,,,,t3.png,t2.png,1,0.909,19,female,2020-11-09_11h49.33.998,torte-q,2020.1.3,Win32,60,13983,,,,,0,85,85,23,1,,,,,,,,,,,,,,,,,,,,,,,,,,,,,,,,,,,
,,,,,,,,,,,,a,1.35332,Incorrect,,,,,,t4.png,t3.png,1,0.90855,19,female,2020-11-09_11h49.33.998,torte-q,2020.1.3,Win32,60,13983,,,,,0,86,86,35,1,,,,,,,,,,,,,,,,,,,,,,,,,,,,,,,,,,,
,,,,,,,,,,,,l,0.77348,Correct!,,,,,,t5.png,t2.png,3,0.0000131,19,female,2020-11-09_11h49.33.998,torte-q,2020.1.3,Win32,60,13983,,,,,0,87,87,91,1,,,,,,,,,,,,,,,,,,,,,,,,,,,,,,,,,,,
,,,,,,,,,,,,a,0.915965,Correct!,,,,,,t3.png,t4.png,1,0.90855,19,female,2020-11-09_11h49.33.998,torte-q,2020.1.3,Win32,60,13983,,,,,0,88,88,96,1,,,,,,,,,,,,,,,,,,,,,,,,,,,,,,,,,,,
,,,,,,,,,,,,a,0.88407,Correct!,,,,,,t1.png,t1.png,0,0.978,19,female,2020-11-09_11h49.33.998,torte-q,2020.1.3,Win32,60,13983,,,,,0,89,89,54,1,,,,,,,,,,,,,,,,,,,,,,,,,,,,,,,,,,,
,,,,,,,,,,,,a,0.934345,Correct!,,,,,,t2.png,t1.png,1,0.90025,19,female,2020-11-09_11h49.33.998,torte-q,2020.1.3,Win32,60,13983,,,,,0,90,90,62,1,,,,,,,,,,,,,,,,,,,,,,,,,,,,,,,,,,,
,,,,,,,,,,,,a,1.07288,Correct!,,,,,,t4.png,t5.png,1,0.90025,19,female,2020-11-09_11h49.33.998,torte-q,2020.1.3,Win32,60,13983,,,,,0,91,91,113,1,,,,,,,,,,,,,,,,,,,,,,,,,,,,,,,,,,,
,,,,,,,,,,,,a,0.879815,Correct!,,,,,,t1.png,t1.png,0,0.97829,19,female,2020-11-09_11h49.33.998,torte-q,2020.1.3,Win32,60,13983,,,,,0,92,92,9,1,,,,,,,,,,,,,,,,,,,,,,,,,,,,,,,,,,,
,,,,,,,,,,,,l,1.05223,Correct!,,,,,,t4.png,t2.png,2,0.059078,19,female,2020-11-09_11h49.33.998,torte-q,2020.1.3,Win32,60,13983,,,,,0,93,93,88,1,,,,,,,,,,,,,,,,,,,,,,,,,,,,,,,,,,,
,,,,,,,,,,,,l,1.713795,Correct!,,,,,,t5.png,t1.png,4,9.55E-11,19,female,2020-11-09_11h49.33.998,torte-q,2020.1.3,Win32,60,13983,,,,,0,94,94,102,1,,,,,,,,,,,,,,,,,,,,,,,,,,,,,,,,,,,
,,,,,,,,,,,,a,0.997095,Incorrect,,,,,,t5.png,t4.png,1,0.9,19,female,2020-11-09_11h49.33.998,torte-q,2020.1.3,Win32,60,13983,,,,,0,95,95,49,1,,,,,,,,,,,,,,,,,,,,,,,,,,,,,,,,,,,
,,,,,,,,,,,,l,1.7533,Correct!,,,,,,t1.png,t4.png,3,0.0000131,19,female,2020-11-09_11h49.33.998,torte-q,2020.1.3,Win32,60,13983,,,,,0,96,96,92,1,,,,,,,,,,,,,,,,,,,,,,,,,,,,,,,,,,,
,,,,,,,,,,,,a,1.713365,Correct!,,,,,,t2.png,t1.png,1,0.90025,19,female,2020-11-09_11h49.33.998,torte-q,2020.1.3,Win32,60,13983,,,,,0,97,97,5,1,,,,,,,,,,,,,,,,,,,,,,,,,,,,,,,,,,,
,,,,,,,,,,,,l,2.25208,Correct!,,,,,,t1.png,t5.png,4,9.55E-11,19,female,2020-11-09_11h49.33.998,torte-q,2020.1.3,Win32,60,13983,,,,,0,98,98,16,1,,,,,,,,,,,,,,,,,,,,,,,,,,,,,,,,,,,
,,,,,,,,,,,,l,1.336075,Correct!,,,,,,t4.png,t2.png,2,0.0591,19,female,2020-11-09_11h49.33.998,torte-q,2020.1.3,Win32,60,13983,,,,,0,99,99,36,1,,,,,,,,,,,,,,,,,,,,,,,,,,,,,,,,,,,
,,,,,,,,,,,,l,1.06499,Correct!,,,,,,t1.png,t3.png,2,0.056466,19,female,2020-11-09_11h49.33.998,torte-q,2020.1.3,Win32,60,13983,,,,,0,100,100,69,1,,,,,,,,,,,,,,,,,,,,,,,,,,,,,,,,,,,
,,,,,,,,,,,,a,0.93843,Correct!,,,,,,t4.png,t5.png,1,0.9,19,female,2020-11-09_11h49.33.998,torte-q,2020.1.3,Win32,60,13983,,,,,0,101,101,115,1,,,,,,,,,,,,,,,,,,,,,,,,,,,,,,,,,,,
,,,,,,,,,,,,l,0.91746,Correct!,,,,,,t1.png,t5.png,4,9.55E-11,19,female,2020-11-09_11h49.33.998,torte-q,2020.1.3,Win32,60,13983,,,,,0,102,102,12,1,,,,,,,,,,,,,,,,,,,,,,,,,,,,,,,,,,,
,,,,,,,,,,,,l,1.26447,Correct!,,,,,,t5.png,t2.png,3,0.0000131,19,female,2020-11-09_11h49.33.998,torte-q,2020.1.3,Win32,60,13983,,,,,0,103,103,116,1,,,,,,,,,,,,,,,,,,,,,,,,,,,,,,,,,,,
,,,,,,,,,,,,l,1.368035,Correct!,,,,,,t5.png,t2.png,3,0.0000131,19,female,2020-11-09_11h49.33.998,torte-q,2020.1.3,Win32,60,13983,,,,,0,104,104,119,1,,,,,,,,,,,,,,,,,,,,,,,,,,,,,,,,,,,
,,,,,,,,,,,,l,0.99771,Correct!,,,,,,t4.png,t1.png,3,0.0000131,19,female,2020-11-09_11h49.33.998,torte-q,2020.1.3,Win32,60,13983,,,,,0,105,105,13,1,,,,,,,,,,,,,,,,,,,,,,,,,,,,,,,,,,,
,,,,,,,,,,,,a,1.420645,Correct!,,,,,,t4.png,t3.png,1,0.90855,19,female,2020-11-09_11h49.33.998,torte-q,2020.1.3,Win32,60,13983,,,,,0,106,106,45,1,,,,,,,,,,,,,,,,,,,,,,,,,,,,,,,,,,,
,,,,,,,,,,,,a,1.84926,Correct!,,,,,,t4.png,t4.png,0,0.98115,19,female,2020-11-09_11h49.33.998,torte-q,2020.1.3,Win32,60,13983,,,,,0,107,107,52,1,,,,,,,,,,,,,,,,,,,,,,,,,,,,,,,,,,,
,,,,,,,,,,,,a,1.037995,Correct!,,,,,,t2.png,t2.png,0,0.98115,19,female,2020-11-09_11h49.33.998,torte-q,2020.1.3,Win32,60,13983,,,,,0,108,108,57,1,,,,,,,,,,,,,,,,,,,,,,,,,,,,,,,,,,,
,,,,,,,,,,,,a,1.178565,Correct!,,,,,,t5.png,t4.png,1,0.90025,19,female,2020-11-09_11h49.33.998,torte-q,2020.1.3,Win32,60,13983,,,,,0,109,109,27,1,,,,,,,,,,,,,,,,,,,,,,,,,,,,,,,,,,,
,,,,,,,,,,,,l,2.212065,Incorrect,,,,,,t2.png,t4.png,2,0.059078,19,female,2020-11-09_11h49.33.998,torte-q,2020.1.3,Win32,60,13983,,,,,0,110,110,37,1,,,,,,,,,,,,,,,,,,,,,,,,,,,,,,,,,,,
,,,,,,,,,,,,l,1.189205,Correct!,,,,,,t1.png,t5.png,4,9.55E-11,19,female,2020-11-09_11h49.33.998,torte-q,2020.1.3,Win32,60,13983,,,,,0,111,111,41,1,,,,,,,,,,,,,,,,,,,,,,,,,,,,,,,,,,,
,,,,,,,,,,,,l,1.03106,Correct!,,,,,,t2.png,t5.png,3,0.0000131,19,female,2020-11-09_11h49.33.998,torte-q,2020.1.3,Win32,60,13983,,,,,0,112,112,8,1,,,,,,,,,,,,,,,,,,,,,,,,,,,,,,,,,,,
,,,,,,,,,,,,a,2.173745,Correct!,,,,,,t3.png,t4.png,1,0.909,19,female,2020-11-09_11h49.33.998,torte-q,2020.1.3,Win32,60,13983,,,,,0,113,113,106,1,,,,,,,,,,,,,,,,,,,,,,,,,,,,,,,,,,,
,,,,,,,,,,,,l,0.935125,Correct!,,,,,,t3.png,t5.png,2,0.0565,19,female,2020-11-09_11h49.33.998,torte-q,2020.1.3,Win32,60,13983,,,,,0,114,114,30,1,,,,,,,,,,,,,,,,,,,,,,,,,,,,,,,,,,,
,,,,,,,,,,,,a,1.02079,Correct!,,,,,,t2.png,t2.png,0,0.98115,19,female,2020-11-09_11h49.33.998,torte-q,2020.1.3,Win32,60,13983,,,,,0,115,115,59,1,,,,,,,,,,,,,,,,,,,,,,,,,,,,,,,,,,,
,,,,,,,,,,,,l,1.463505,Correct!,,,,,,t3.png,t5.png,2,0.056466,19,female,2020-11-09_11h49.33.998,torte-q,2020.1.3,Win32,60,13983,,,,,0,116,116,6,1,,,,,,,,,,,,,,,,,,,,,,,,,,,,,,,,,,,
,,,,,,,,,,,,a,1.92066,Incorrect,,,,,,t2.png,t1.png,1,0.90025,19,female,2020-11-09_11h49.33.998,torte-q,2020.1.3,Win32,60,13983,,,,,0,117,117,19,1,,,,,,,,,,,,,,,,,,,,,,,,,,,,,,,,,,,
,,,,,,,,,,,,a,0.995815,Incorrect,,,,,,t3.png,t2.png,1,0.90855,19,female,2020-11-09_11h49.33.998,torte-q,2020.1.3,Win32,60,13983,,,,,0,118,118,18,1,,,,,,,,,,,,,,,,,,,,,,,,,,,,,,,,,,,
,,,,,,,,,,,,a,1.719155,Correct!,,,,,,t1.png,t2.png,1,0.90025,19,female,2020-11-09_11h49.33.998,torte-q,2020.1.3,Win32,60,13983,,,,,0,119,119,105,1,,,,,,,,,,,,,,,,,,,,,,,,,,,,,,,,,,,
,,,,,,,,,,,,a,0.92967,Correct!,,,,,,t3.png,t2.png,1,0.90855,19,female,2020-11-09_11h49.33.998,torte-q,2020.1.3,Win32,60,13983,space,7.152685,,,,,,,,N/A,45.176145,space,8.18393,0,0,0,53,1,,,,,,,,,,,,,,,,,,,,,,,,,,
,,,,,,,,,,,,l,0.818365,Correct!,,,,,,t2.png,t4.png,2,0.059078,19,female,2020-11-09_11h49.33.998,torte-q,2020.1.3,Win32,60,13983,,,,,,,,,,,,,,0,1,1,77,1,,,,,,,,,,,,,,,,,,,,,,,,,,
,,,,,,,,,,,,l,0.86607,Correct!,,,,,,t5.png,t1.png,4,9.55E-11,19,female,2020-11-09_11h49.33.998,torte-q,2020.1.3,Win32,60,13983,,,,,,,,,,,,,,0,2,2,43,1,,,,,,,,,,,,,,,,,,,,,,,,,,
,,,,,,,,,,,,a,0.830325,Correct!,,,,,,t1.png,t2.png,1,0.9,19,female,2020-11-09_11h49.33.998,torte-q,2020.1.3,Win32,60,13983,,,,,,,,,,,,,,0,3,3,1,1,,,,,,,,,,,,,,,,,,,,,,,,,,
,,,,,,,,,,,,a,0.980525,Correct!,,,,,,t2.png,t3.png,1,0.90855,19,female,2020-11-09_11h49.33.998,torte-q,2020.1.3,Win32,60,13983,,,,,,,,,,,,,,0,4,4,65,1,,,,,,,,,,,,,,,,,,,,,,,,,,
,,,,,,,,,,,,l,1.076865,Incorrect,,,,,,t1.png,t1.png,0,0.97829,19,female,2020-11-09_11h49.33.998,torte-q,2020.1.3,Win32,60,13983,,,,,,,,,,,,,,0,5,5,78,1,,,,,,,,,,,,,,,,,,,,,,,,,,
,,,,,,,,,,,,a,0.83022,Correct!,,,,,,t2.png,t3.png,1,0.90855,19,female,2020-11-09_11h49.33.998,torte-q,2020.1.3,Win32,60,13983,,,,,,,,,,,,,,0,6,6,111,1,,,,,,,,,,,,,,,,,,,,,,,,,,
,,,,,,,,,,,,l,0.930565,Correct!,,,,,,t1.png,t5.png,4,9.55E-11,19,female,2020-11-09_11h49.33.998,torte-q,2020.1.3,Win32,60,13983,,,,,,,,,,,,,,0,7,7,55,1,,,,,,,,,,,,,,,,,,,,,,,,,,
,,,,,,,,,,,,l,0.81752,Correct!,,,,,,t4.png,t2.png,2,0.059078,19,female,2020-11-09_11h49.33.998,torte-q,2020.1.3,Win32,60,13983,,,,,,,,,,,,,,0,8,8,110,1,,,,,,,,,,,,,,,,,,,,,,,,,,
,,,,,,,,,,,,l,1.31907,Correct!,,,,,,t1.png,t5.png,4,9.55E-11,19,female,2020-11-09_11h49.33.998,torte-q,2020.1.3,Win32,60,13983,,,,,,,,,,,,,,0,9,9,41,1,,,,,,,,,,,,,,,,,,,,,,,,,,
,,,,,,,,,,,,l,0.98433,Correct!,,,,,,t2.png,t4.png,2,0.059078,19,female,2020-11-09_11h49.33.998,torte-q,2020.1.3,Win32,60,13983,,,,,,,,,,,,,,0,10,10,11,1,,,,,,,,,,,,,,,,,,,,,,,,,,
,,,,,,,,,,,,a,0.848685,Correct!,,,,,,t2.png,t3.png,1,0.909,19,female,2020-11-09_11h49.33.998,torte-q,2020.1.3,Win32,60,13983,,,,,,,,,,,,,,0,11,11,74,1,,,,,,,,,,,,,,,,,,,,,,,,,,
,,,,,,,,,,,,l,1.365445,Correct!,,,,,,t3.png,t1.png,2,0.056466,19,female,2020-11-09_11h49.33.998,torte-q,2020.1.3,Win32,60,13983,,,,,,,,,,,,,,0,12,12,29,1,,,,,,,,,,,,,,,,,,,,,,,,,,
,,,,,,,,,,,,a,1.05008,Correct!,,,,,,t1.png,t1.png,0,0.978,19,female,2020-11-09_11h49.33.998,torte-q,2020.1.3,Win32,60,13983,,,,,,,,,,,,,,0,13,13,54,1,,,,,,,,,,,,,,,,,,,,,,,,,,
,,,,,,,,,,,,l,0.9135,Incorrect,,,,,,t3.png,t1.png,2,0.056466,19,female,2020-11-09_11h49.33.998,torte-q,2020.1.3,Win32,60,13983,,,,,,,,,,,,,,0,14,14,32,1,,,,,,,,,,,,,,,,,,,,,,,,,,
,,,,,,,,,,,,l,1.583625,Correct!,,,,,,t2.png,t5.png,3,0.0000131,19,female,2020-11-09_11h49.33.998,torte-q,2020.1.3,Win32,60,13983,,,,,,,,,,,,,,0,15,15,66,1,,,,,,,,,,,,,,,,,,,,,,,,,,
,,,,,,,,,,,,l,1.031395,Correct!,,,,,,t3.png,t5.png,2,0.0565,19,female,2020-11-09_11h49.33.998,torte-q,2020.1.3,Win32,60,13983,,,,,,,,,,,,,,0,16,16,83,1,,,,,,,,,,,,,,,,,,,,,,,,,,
,,,,,,,,,,,,l,0.89802,Correct!,,,,,,t2.png,t4.png,2,0.059078,19,female,2020-11-09_11h49.33.998,torte-q,2020.1.3,Win32,60,13983,,,,,,,,,,,,,,0,17,17,24,1,,,,,,,,,,,,,,,,,,,,,,,,,,
,,,,,,,,,,,,l,0.784205,Correct!,,,,,,t4.png,t2.png,2,0.059078,19,female,2020-11-09_11h49.33.998,torte-q,2020.1.3,Win32,60,13983,,,,,,,,,,,,,,0,18,18,109,1,,,,,,,,,,,,,,,,,,,,,,,,,,
,,,,,,,,,,,,a,0.881225,Correct!,,,,,,t5.png,t4.png,1,0.90025,19,female,2020-11-09_11h49.33.998,torte-q,2020.1.3,Win32,60,13983,,,,,,,,,,,,,,0,19,19,34,1,,,,,,,,,,,,,,,,,,,,,,,,,,
,,,,,,,,,,,,l,1.216035,Correct!,,,,,,t4.png,t2.png,2,0.059078,19,female,2020-11-09_11h49.33.998,torte-q,2020.1.3,Win32,60,13983,,,,,,,,,,,,,,0,20,20,88,1,,,,,,,,,,,,,,,,,,,,,,,,,,
,,,,,,,,,,,,a,0.847405,Correct!,,,,,,t4.png,t4.png,0,0.98115,19,female,2020-11-09_11h49.33.998,torte-q,2020.1.3,Win32,60,13983,,,,,,,,,,,,,,0,21,21,79,1,,,,,,,,,,,,,,,,,,,,,,,,,,
,,,,,,,,,,,,a,0.98862,Correct!,,,,,,t2.png,t1.png,1,0.90025,19,female,2020-11-09_11h49.33.998,torte-q,2020.1.3,Win32,60,13983,,,,,,,,,,,,,,0,22,22,19,1,,,,,,,,,,,,,,,,,,,,,,,,,,
,,,,,,,,,,,,a,1.436435,Correct!,,,,,,t4.png,t4.png,0,0.98115,19,female,2020-11-09_11h49.33.998,torte-q,2020.1.3,Win32,60,13983,,,,,,,,,,,,,,0,23,23,80,1,,,,,,,,,,,,,,,,,,,,,,,,,,
,,,,,,,,,,,,l,0.918775,Correct!,,,,,,t5.png,t3.png,2,0.056466,19,female,2020-11-09_11h49.33.998,torte-q,2020.1.3,Win32,60,13983,,,,,,,,,,,,,,0,24,24,56,1,,,,,,,,,,,,,,,,,,,,,,,,,,
,,,,,,,,,,,,l,0.88876,Correct!,,,,,,t3.png,t1.png,2,0.0565,19,female,2020-11-09_11h49.33.998,torte-q,2020.1.3,Win32,60,13983,,,,,,,,,,,,,,0,25,25,31,1,,,,,,,,,,,,,,,,,,,,,,,,,,
,,,,,,,,,,,,a,0.869115,Correct!,,,,,,t2.png,t3.png,1,0.90855,19,female,2020-11-09_11h49.33.998,torte-q,2020.1.3,Win32,60,13983,,,,,,,,,,,,,,0,26,26,68,1,,,,,,,,,,,,,,,,,,,,,,,,,,
,,,,,,,,,,,,l,1.100785,Correct!,,,,,,t3.png,t5.png,2,0.056466,19,female,2020-11-09_11h49.33.998,torte-q,2020.1.3,Win32,60,13983,,,,,,,,,,,,,,0,27,27,6,1,,,,,,,,,,,,,,,,,,,,,,,,,,
,,,,,,,,,,,,a,1.17374,Correct!,,,,,,t4.png,t5.png,1,0.90025,19,female,2020-11-09_11h49.33.998,torte-q,2020.1.3,Win32,60,13983,,,,,,,,,,,,,,0,28,28,113,1,,,,,,,,,,,,,,,,,,,,,,,,,,
,,,,,,,,,,,,a,0.804845,Correct!,,,,,,t1.png,t2.png,1,0.90025,19,female,2020-11-09_11h49.33.998,torte-q,2020.1.3,Win32,60,13983,,,,,,,,,,,,,,0,29,29,105,1,,,,,,,,,,,,,,,,,,,,,,,,,,
,,,,,,,,,,,,l,1.34771,Incorrect,,,,,,t3.png,t4.png,1,0.90855,19,female,2020-11-09_11h49.33.998,torte-q,2020.1.3,Win32,60,13983,,,,,,,,,,,,,,0,30,30,84,1,,,,,,,,,,,,,,,,,,,,,,,,,,
,,,,,,,,,,,,l,1.364885,Correct!,,,,,,t1.png,t5.png,4,9.55E-11,19,female,2020-11-09_11h49.33.998,torte-q,2020.1.3,Win32,60,13983,,,,,,,,,,,,,,0,31,31,12,1,,,,,,,,,,,,,,,,,,,,,,,,,,
,,,,,,,,,,,,l,1.856085,Correct!,,,,,,t1.png,t4.png,3,0.0000131,19,female,2020-11-09_11h49.33.998,torte-q,2020.1.3,Win32,60,13983,,,,,,,,,,,,,,0,32,32,81,1,,,,,,,,,,,,,,,,,,,,,,,,,,
,,,,,,,,,,,,l,1.7012,Correct!,,,,,,t4.png,t1.png,3,0.0000131,19,female,2020-11-09_11h49.33.998,torte-q,2020.1.3,Win32,60,13983,,,,,,,,,,,,,,0,33,33,61,1,,,,,,,,,,,,,,,,,,,,,,,,,,
,,,,,,,,,,,,a,1.00031,Correct!,,,,,,t5.png,t5.png,0,0.97829,19,female,2020-11-09_11h49.33.998,torte-q,2020.1.3,Win32,60,13983,,,,,,,,,,,,,,0,34,34,94,1,,,,,,,,,,,,,,,,,,,,,,,,,,
,,,,,,,,,,,,a,0.75767,Correct!,,,,,,t5.png,t4.png,1,0.90025,19,female,2020-11-09_11h49.33.998,torte-q,2020.1.3,Win32,60,13983,,,,,,,,,,,,,,0,35,35,27,1,,,,,,,,,,,,,,,,,,,,,,,,,,
,,,,,,,,,,,,a,1.38088,Correct!,,,,,,t2.png,t2.png,0,0.98115,19,female,2020-11-09_11h49.33.998,torte-q,2020.1.3,Win32,60,13983,,,,,,,,,,,,,,0,36,36,7,1,,,,,,,,,,,,,,,,,,,,,,,,,,
,,,,,,,,,,,,a,0.79656,Correct!,,,,,,t2.png,t1.png,1,0.90025,19,female,2020-11-09_11h49.33.998,torte-q,2020.1.3,Win32,60,13983,,,,,,,,,,,,,,0,37,37,5,1,,,,,,,,,,,,,,,,,,,,,,,,,,
,,,,,,,,,,,,l,0.964655,Correct!,,,,,,t4.png,t1.png,3,0.0000131,19,female,2020-11-09_11h49.33.998,torte-q,2020.1.3,Win32,60,13983,,,,,,,,,,,,,,0,38,38,93,1,,,,,,,,,,,,,,,,,,,,,,,,,,
,,,,,,,,,,,,l,1.096695,Correct!,,,,,,t5.png,t2.png,3,0.0000131,19,female,2020-11-09_11h49.33.998,torte-q,2020.1.3,Win32,60,13983,,,,,,,,,,,,,,0,39,39,98,1,,,,,,,,,,,,,,,,,,,,,,,,,,
,,,,,,,,,,,,l,1.05534,Correct!,,,,,,t1.png,t5.png,4,9.55E-11,19,female,2020-11-09_11h49.33.998,torte-q,2020.1.3,Win32,60,13983,,,,,,,,,,,,,,0,40,40,85,1,,,,,,,,,,,,,,,,,,,,,,,,,,
,,,,,,,,,,,,l,0.90166,Correct!,,,,,,t5.png,t2.png,3,0.0000131,19,female,2020-11-09_11h49.33.998,torte-q,2020.1.3,Win32,60,13983,,,,,,,,,,,,,,0,41,41,116,1,,,,,,,,,,,,,,,,,,,,,,,,,,
,,,,,,,,,,,,a,1.298975,Correct!,,,,,,t3.png,t4.png,1,0.909,19,female,2020-11-09_11h49.33.998,torte-q,2020.1.3,Win32,60,13983,,,,,,,,,,,,,,0,42,42,89,1,,,,,,,,,,,,,,,,,,,,,,,,,,
,,,,,,,,,,,,a,1.13547,Correct!,,,,,,t3.png,t4.png,1,0.90855,19,female,2020-11-09_11h49.33.998,torte-q,2020.1.3,Win32,60,13983,,,,,,,,,,,,,,0,43,43,96,1,,,,,,,,,,,,,,,,,,,,,,,,,,
,,,,,,,,,,,,a,0.85163,Correct!,,,,,,t3.png,t4.png,1,0.909,19,female,2020-11-09_11h49.33.998,torte-q,2020.1.3,Win32,60,13983,,,,,,,,,,,,,,0,44,44,82,1,,,,,,,,,,,,,,,,,,,,,,,,,,
,,,,,,,,,,,,a,0.949465,Correct!,,,,,,t5.png,t5.png,0,0.97829,19,female,2020-11-09_11h49.33.998,torte-q,2020.1.3,Win32,60,13983,,,,,,,,,,,,,,0,45,45,70,1,,,,,,,,,,,,,,,,,,,,,,,,,,
,,,,,,,,,,,,a,0.905005,Correct!,,,,,,t3.png,t2.png,1,0.909,19,female,2020-11-09_11h49.33.998,torte-q,2020.1.3,Win32,60,13983,,,,,,,,,,,,,,0,46,46,3,1,,,,,,,,,,,,,,,,,,,,,,,,,,
,,,,,,,,,,,,a,1.06449,Correct!,,,,,,t2.png,t1.png,1,0.90025,19,female,2020-11-09_11h49.33.998,torte-q,2020.1.3,Win32,60,13983,,,,,,,,,,,,,,0,47,47,4,1,,,,,,,,,,,,,,,,,,,,,,,,,,
,,,,,,,,,,,,a,0.79683,Correct!,,,,,,t4.png,t5.png,1,0.9,19,female,2020-11-09_11h49.33.998,torte-q,2020.1.3,Win32,60,13983,,,,,,,,,,,,,,0,48,48,115,1,,,,,,,,,,,,,,,,,,,,,,,,,,
,,,,,,,,,,,,l,1.404685,Correct!,,,,,,t3.png,t5.png,2,0.056466,19,female,2020-11-09_11h49.33.998,torte-q,2020.1.3,Win32,60,13983,,,,,,,,,,,,,,0,49,49,14,1,,,,,,,,,,,,,,,,,,,,,,,,,,
,,,,,,,,,,,,l,0.995925,Correct!,,,,,,t2.png,t4.png,2,0.059078,19,female,2020-11-09_11h49.33.998,torte-q,2020.1.3,Win32,60,13983,,,,,,,,,,,,,,0,50,50,37,1,,,,,,,,,,,,,,,,,,,,,,,,,,
,,,,,,,,,,,,a,1.051315,Correct!,,,,,,t4.png,t4.png,0,0.98115,19,female,2020-11-09_11h49.33.998,torte-q,2020.1.3,Win32,60,13983,,,,,,,,,,,,,,0,51,51,21,1,,,,,,,,,,,,,,,,,,,,,,,,,,
,,,,,,,,,,,,l,2.078185,Correct!,,,,,,t5.png,t3.png,2,0.056466,19,female,2020-11-09_11h49.33.998,torte-q,2020.1.3,Win32,60,13983,,,,,,,,,,,,,,0,52,52,108,1,,,,,,,,,,,,,,,,,,,,,,,,,,
,,,,,,,,,,,,l,1.17165,Correct!,,,,,,t1.png,t3.png,2,0.056466,19,female,2020-11-09_11h49.33.998,torte-q,2020.1.3,Win32,60,13983,,,,,,,,,,,,,,0,53,53,99,1,,,,,,,,,,,,,,,,,,,,,,,,,,
,,,,,,,,,,,,l,0.991815,Correct!,,,,,,t5.png,t1.png,4,9.55E-11,19,female,2020-11-09_11h49.33.998,torte-q,2020.1.3,Win32,60,13983,,,,,,,,,,,,,,0,54,54,22,1,,,,,,,,,,,,,,,,,,,,,,,,,,
,,,,,,,,,,,,a,0.996955,Correct!,,,,,,t1.png,t2.png,1,0.90025,19,female,2020-11-09_11h49.33.998,torte-q,2020.1.3,Win32,60,13983,,,,,,,,,,,,,,0,55,55,33,1,,,,,,,,,,,,,,,,,,,,,,,,,,
,,,,,,,,,,,,l,0.96296,Incorrect,,,,,,t1.png,t3.png,2,0.056466,19,female,2020-11-09_11h49.33.998,torte-q,2020.1.3,Win32,60,13983,,,,,,,,,,,,,,0,56,56,63,1,,,,,,,,,,,,,,,,,,,,,,,,,,
,,,,,,,,,,,,l,1.275545,Correct!,,,,,,t1.png,t4.png,3,0.0000131,19,female,2020-11-09_11h49.33.998,torte-q,2020.1.3,Win32,60,13983,,,,,,,,,,,,,,0,57,57,92,1,,,,,,,,,,,,,,,,,,,,,,,,,,
,,,,,,,,,,,,a,0.917905,Correct!,,,,,,t2.png,t2.png,0,0.98115,19,female,2020-11-09_11h49.33.998,torte-q,2020.1.3,Win32,60,13983,,,,,,,,,,,,,,0,58,58,59,1,,,,,,,,,,,,,,,,,,,,,,,,,,
,,,,,,,,,,,,l,1.036895,Incorrect,,,,,,t5.png,t5.png,0,0.978,19,female,2020-11-09_11h49.33.998,torte-q,2020.1.3,Win32,60,13983,,,,,,,,,,,,,,0,59,59,117,1,,,,,,,,,,,,,,,,,,,,,,,,,,
,,,,,,,,,,,,l,0.88666,Correct!,,,,,,t2.png,t5.png,3,0.0000131,19,female,2020-11-09_11h49.33.998,torte-q,2020.1.3,Win32,60,13983,,,,,,,,,,,,,,0,60,60,8,1,,,,,,,,,,,,,,,,,,,,,,,,,,
,,,,,,,,,,,,l,1.12209,Correct!,,,,,,t1.png,t4.png,3,0.0000131,19,female,2020-11-09_11h49.33.998,torte-q,2020.1.3,Win32,60,13983,,,,,,,,,,,,,,0,61,61,50,1,,,,,,,,,,,,,,,,,,,,,,,,,,
,,,,,,,,,,,,l,1.062175,Correct!,,,,,,t5.png,t3.png,2,0.056466,19,female,2020-11-09_11h49.33.998,torte-q,2020.1.3,Win32,60,13983,,,,,,,,,,,,,,0,62,62,114,1,,,,,,,,,,,,,,,,,,,,,,,,,,
,,,,,,,,,,,,a,1.01936,Correct!,,,,,,t4.png,t3.png,1,0.909,19,female,2020-11-09_11h49.33.998,torte-q,2020.1.3,Win32,60,13983,,,,,,,,,,,,,,0,63,63,20,1,,,,,,,,,,,,,,,,,,,,,,,,,,
,,,,,,,,,,,,a,0.768505,Incorrect,,,,,,t4.png,t3.png,1,0.909,19,female,2020-11-09_11h49.33.998,torte-q,2020.1.3,Win32,60,13983,,,,,,,,,,,,,,0,64,64,46,1,,,,,,,,,,,,,,,,,,,,,,,,,,
,,,,,,,,,,,,l,0.95351,Correct!,,,,,,t5.png,t2.png,3,0.0000131,19,female,2020-11-09_11h49.33.998,torte-q,2020.1.3,Win32,60,13983,,,,,,,,,,,,,,0,65,65,91,1,,,,,,,,,,,,,,,,,,,,,,,,,,
,,,,,,,,,,,,l,0.87269,Correct!,,,,,,t5.png,t1.png,4,9.55E-11,19,female,2020-11-09_11h49.33.998,torte-q,2020.1.3,Win32,60,13983,,,,,,,,,,,,,,0,66,66,71,1,,,,,,,,,,,,,,,,,,,,,,,,,,
,,,,,,,,,,,,a,0.768005,Correct!,,,,,,t4.png,t4.png,0,0.98115,19,female,2020-11-09_11h49.33.998,torte-q,2020.1.3,Win32,60,13983,,,,,,,,,,,,,,0,67,67,52,1,,,,,,,,,,,,,,,,,,,,,,,,,,
,,,,,,,,,,,,a,0.833395,Incorrect,,,,,,t2.png,t1.png,1,0.90025,19,female,2020-11-09_11h49.33.998,torte-q,2020.1.3,Win32,60,13983,,,,,,,,,,,,,,0,68,68,62,1,,,,,,,,,,,,,,,,,,,,,,,,,,
,,,,,,,,,,,,a,0.735055,Correct!,,,,,,t4.png,t4.png,0,0.98115,19,female,2020-11-09_11h49.33.998,torte-q,2020.1.3,Win32,60,13983,,,,,,,,,,,,,,0,69,69,90,1,,,,,,,,,,,,,,,,,,,,,,,,,,
,,,,,,,,,,,,a,0.77023,Correct!,,,,,,t4.png,t3.png,1,0.90855,19,female,2020-11-09_11h49.33.998,torte-q,2020.1.3,Win32,60,13983,,,,,,,,,,,,,,0,70,70,75,1,,,,,,,,,,,,,,,,,,,,,,,,,,
,,,,,,,,,,,,l,0.82841,Correct!,,,,,,t2.png,t5.png,3,0.0000131,19,female,2020-11-09_11h49.33.998,torte-q,2020.1.3,Win32,60,13983,,,,,,,,,,,,,,0,71,71,40,1,,,,,,,,,,,,,,,,,,,,,,,,,,
,,,,,,,,,,,,a,1.305595,Correct!,,,,,,t4.png,t5.png,1,0.90025,19,female,2020-11-09_11h49.33.998,torte-q,2020.1.3,Win32,60,13983,,,,,,,,,,,,,,0,72,72,103,1,,,,,,,,,,,,,,,,,,,,,,,,,,
,,,,,,,,,,,,a,1.05409,Correct!,,,,,,t2.png,t2.png,0,0.98115,19,female,2020-11-09_11h49.33.998,torte-q,2020.1.3,Win32,60,13983,,,,,,,,,,,,,,0,73,73,57,1,,,,,,,,,,,,,,,,,,,,,,,,,,
,,,,,,,,,,,,l,1.019135,Correct!,,,,,,t3.png,t1.png,2,0.056466,19,female,2020-11-09_11h49.33.998,torte-q,2020.1.3,Win32,60,13983,,,,,,,,,,,,,,0,74,74,64,1,,,,,,,,,,,,,,,,,,,,,,,,,,
,,,,,,,,,,,,l,0.890705,Correct!,,,,,,t5.png,t2.png,3,0.0000131,19,female,2020-11-09_11h49.33.998,torte-q,2020.1.3,Win32,60,13983,,,,,,,,,,,,,,0,75,75,119,1,,,,,,,,,,,,,,,,,,,,,,,,,,
,,,,,,,,,,,,a,1.14207,Correct!,,,,,,t1.png,t1.png,0,0.97829,19,female,2020-11-09_11h49.33.998,torte-q,2020.1.3,Win32,60,13983,,,,,,,,,,,,,,0,76,76,67,1,,,,,,,,,,,,,,,,,,,,,,,,,,
,,,,,,,,,,,,l,0.77036,Correct!,,,,,,t4.png,t1.png,3,0.0000131,19,female,2020-11-09_11h49.33.998,torte-q,2020.1.3,Win32,60,13983,,,,,,,,,,,,,,0,77,77,48,1,,,,,,,,,,,,,,,,,,,,,,,,,,
,,,,,,,,,,,,a,1.002725,Correct!,,,,,,t2.png,t3.png,1,0.90855,19,female,2020-11-09_11h49.33.998,torte-q,2020.1.3,Win32,60,13983,,,,,,,,,,,,,,0,78,78,10,1,,,,,,,,,,,,,,,,,,,,,,,,,,
,,,,,,,,,,,,a,1.054965,Correct!,,,,,,t5.png,t4.png,1,0.9,19,female,2020-11-09_11h49.33.998,torte-q,2020.1.3,Win32,60,13983,,,,,,,,,,,,,,0,79,79,76,1,,,,,,,,,,,,,,,,,,,,,,,,,,
,,,,,,,,,,,,l,0.894265,Correct!,,,,,,t1.png,t4.png,3,0.0000131,19,female,2020-11-09_11h49.33.998,torte-q,2020.1.3,Win32,60,13983,,,,,,,,,,,,,,0,80,80,107,1,,,,,,,,,,,,,,,,,,,,,,,,,,
,,,,,,,,,,,,a,1.238785,Correct!,,,,,,t2.png,t1.png,1,0.9,19,female,2020-11-09_11h49.33.998,torte-q,2020.1.3,Win32,60,13983,,,,,,,,,,,,,,0,81,81,118,1,,,,,,,,,,,,,,,,,,,,,,,,,,
,,,,,,,,,,,,l,0.819255,Correct!,,,,,,t2.png,t5.png,3,0.0000131,19,female,2020-11-09_11h49.33.998,torte-q,2020.1.3,Win32,60,13983,,,,,,,,,,,,,,0,82,82,104,1,,,,,,,,,,,,,,,,,,,,,,,,,,
,,,,,,,,,,,,l,1.257675,Correct!,,,,,,t4.png,t3.png,1,0.90855,19,female,2020-11-09_11h49.33.998,torte-q,2020.1.3,Win32,60,13983,,,,,,,,,,,,,,0,83,83,45,1,,,,,,,,,,,,,,,,,,,,,,,,,,
,,,,,,,,,,,,a,0.775675,Correct!,,,,,,t5.png,t5.png,0,0.97829,19,female,2020-11-09_11h49.33.998,torte-q,2020.1.3,Win32,60,13983,,,,,,,,,,,,,,0,84,84,73,1,,,,,,,,,,,,,,,,,,,,,,,,,,
,,,,,,,,,,,,a,0.817855,Correct!,,,,,,t4.png,t5.png,1,0.90025,19,female,2020-11-09_11h49.33.998,torte-q,2020.1.3,Win32,60,13983,,,,,,,,,,,,,,0,85,85,47,1,,,,,,,,,,,,,,,,,,,,,,,,,,
,,,,,,,,,,,,a,0.79426,Correct!,,,,,,t5.png,t4.png,1,0.90025,19,female,2020-11-09_11h49.33.998,torte-q,2020.1.3,Win32,60,13983,,,,,,,,,,,,,,0,86,86,26,1,,,,,,,,,,,,,,,,,,,,,,,,,,
,,,,,,,,,,,,a,0.904575,Correct!,,,,,,t1.png,t2.png,1,0.90025,19,female,2020-11-09_11h49.33.998,torte-q,2020.1.3,Win32,60,13983,,,,,,,,,,,,,,0,87,87,72,1,,,,,,,,,,,,,,,,,,,,,,,,,,
,,,,,,,,,,,,l,0.93348,Correct!,,,,,,t1.png,t4.png,3,0.0000131,19,female,2020-11-09_11h49.33.998,torte-q,2020.1.3,Win32,60,13983,,,,,,,,,,,,,,0,88,88,17,1,,,,,,,,,,,,,,,,,,,,,,,,,,
,,,,,,,,,,,,l,0.970095,Correct!,,,,,,t3.png,t5.png,2,0.0565,19,female,2020-11-09_11h49.33.998,torte-q,2020.1.3,Win32,60,13983,,,,,,,,,,,,,,0,89,89,30,1,,,,,,,,,,,,,,,,,,,,,,,,,,
,,,,,,,,,,,,l,1.668105,Correct!,,,,,,t4.png,t2.png,2,0.0591,19,female,2020-11-09_11h49.33.998,torte-q,2020.1.3,Win32,60,13983,,,,,,,,,,,,,,0,90,90,36,1,,,,,,,,,,,,,,,,,,,,,,,,,,
,,,,,,,,,,,,l,0.72331,Correct!,,,,,,t5.png,t1.png,4,9.55E-11,19,female,2020-11-09_11h49.33.998,torte-q,2020.1.3,Win32,60,13983,,,,,,,,,,,,,,0,91,91,102,1,,,,,,,,,,,,,,,,,,,,,,,,,,
,,,,,,,,,,,,a,0.78604,Correct!,,,,,,t1.png,t2.png,1,0.90025,19,female,2020-11-09_11h49.33.998,torte-q,2020.1.3,Win32,60,13983,,,,,,,,,,,,,,0,92,92,112,1,,,,,,,,,,,,,,,,,,,,,,,,,,
,,,,,,,,,,,,l,1.419575,Incorrect,,,,,,t5.png,t3.png,2,0.056466,19,female,2020-11-09_11h49.33.998,torte-q,2020.1.3,Win32,60,13983,,,,,,,,,,,,,,0,93,93,38,1,,,,,,,,,,,,,,,,,,,,,,,,,,
,,,,,,,,,,,,l,0.708735,Correct!,,,,,,t5.png,t2.png,3,0.0000131,19,female,2020-11-09_11h49.33.998,torte-q,2020.1.3,Win32,60,13983,,,,,,,,,,,,,,0,94,94,51,1,,,,,,,,,,,,,,,,,,,,,,,,,,
,,,,,,,,,,,,l,0.75705,Correct!,,,,,,t3.png,t5.png,2,0.056466,19,female,2020-11-09_11h49.33.998,torte-q,2020.1.3,Win32,60,13983,,,,,,,,,,,,,,0,95,95,44,1,,,,,,,,,,,,,,,,,,,,,,,,,,
,,,,,,,,,,,,a,1.036115,Incorrect,,,,,,t1.png,t3.png,2,0.056466,19,female,2020-11-09_11h49.33.998,torte-q,2020.1.3,Win32,60,13983,,,,,,,,,,,,,,0,96,96,69,1,,,,,,,,,,,,,,,,,,,,,,,,,,
,,,,,,,,,,,,l,1.000655,Correct!,,,,,,t1.png,t3.png,2,0.056466,19,female,2020-11-09_11h49.33.998,torte-q,2020.1.3,Win32,60,13983,,,,,,,,,,,,,,0,97,97,87,1,,,,,,,,,,,,,,,,,,,,,,,,,,
,,,,,,,,,,,,a,1.43355,Correct!,,,,,,t3.png,t2.png,1,0.90855,19,female,2020-11-09_11h49.33.998,torte-q,2020.1.3,Win32,60,13983,,,,,,,,,,,,,,0,98,98,97,1,,,,,,,,,,,,,,,,,,,,,,,,,,
,,,,,,,,,,,,l,0.843595,Correct!,,,,,,t2.png,t4.png,2,0.0591,19,female,2020-11-09_11h49.33.998,torte-q,2020.1.3,Win32,60,13983,,,,,,,,,,,,,,0,99,99,15,1,,,,,,,,,,,,,,,,,,,,,,,,,,
,,,,,,,,,,,,l,0.80444,Correct!,,,,,,t5.png,t1.png,4,9.55E-11,19,female,2020-11-09_11h49.33.998,torte-q,2020.1.3,Win32,60,13983,,,,,,,,,,,,,,0,100,100,100,1,,,,,,,,,,,,,,,,,,,,,,,,,,
,,,,,,,,,,,,a,0.987455,Correct!,,,,,,t2.png,t2.png,0,0.981,19,female,2020-11-09_11h49.33.998,torte-q,2020.1.3,Win32,60,13983,,,,,,,,,,,,,,0,101,101,101,1,,,,,,,,,,,,,,,,,,,,,,,,,,
,,,,,,,,,,,,a,0.806465,Correct!,,,,,,t1.png,t1.png,0,0.97829,19,female,2020-11-09_11h49.33.998,torte-q,2020.1.3,Win32,60,13983,,,,,,,,,,,,,,0,102,102,9,1,,,,,,,,,,,,,,,,,,,,,,,,,,
,,,,,,,,,,,,l,0.72335,Correct!,,,,,,t4.png,t1.png,3,0.0000131,19,female,2020-11-09_11h49.33.998,torte-q,2020.1.3,Win32,60,13983,,,,,,,,,,,,,,0,103,103,13,1,,,,,,,,,,,,,,,,,,,,,,,,,,
,,,,,,,,,,,,a,0.98717,Correct!,,,,,,t4.png,t5.png,1,0.90025,19,female,2020-11-09_11h49.33.998,torte-q,2020.1.3,Win32,60,13983,,,,,,,,,,,,,,0,104,104,58,1,,,,,,,,,,,,,,,,,,,,,,,,,,
,,,,,,,,,,,,a,0.855525,Correct!,,,,,,t5.png,t4.png,1,0.9,19,female,2020-11-09_11h49.33.998,torte-q,2020.1.3,Win32,60,13983,,,,,,,,,,,,,,0,105,105,49,1,,,,,,,,,,,,,,,,,,,,,,,,,,
,,,,,,,,,,,,l,1.202565,Correct!,,,,,,t4.png,t2.png,2,0.059078,19,female,2020-11-09_11h49.33.998,torte-q,2020.1.3,Win32,60,13983,,,,,,,,,,,,,,0,106,106,86,1,,,,,,,,,,,,,,,,,,,,,,,,,,
,,,,,,,,,,,,l,0.752155,Correct!,,,,,,t1.png,t5.png,4,9.55E-11,19,female,2020-11-09_11h49.33.998,torte-q,2020.1.3,Win32,60,13983,,,,,,,,,,,,,,0,107,107,16,1,,,,,,,,,,,,,,,,,,,,,,,,,,
,,,,,,,,,,,,a,1.00352,Correct!,,,,,,t5.png,t5.png,0,0.97829,19,female,2020-11-09_11h49.33.998,torte-q,2020.1.3,Win32,60,13983,,,,,,,,,,,,,,0,108,108,25,1,,,,,,,,,,,,,,,,,,,,,,,,,,
,,,,,,,,,,,,a,0.970145,Correct!,,,,,,t3.png,t2.png,1,0.909,19,female,2020-11-09_11h49.33.998,torte-q,2020.1.3,Win32,60,13983,,,,,,,,,,,,,,0,109,109,23,1,,,,,,,,,,,,,,,,,,,,,,,,,,
,,,,,,,,,,,,l,0.74375,Correct!,,,,,,t2.png,t5.png,3,0.0000131,19,female,2020-11-09_11h49.33.998,torte-q,2020.1.3,Win32,60,13983,,,,,,,,,,,,,,0,110,110,95,1,,,,,,,,,,,,,,,,,,,,,,,,,,
,,,,,,,,,,,,a,0.9366,Correct!,,,,,,t3.png,t2.png,1,0.90855,19,female,2020-11-09_11h49.33.998,torte-q,2020.1.3,Win32,60,13983,,,,,,,,,,,,,,0,111,111,18,1,,,,,,,,,,,,,,,,,,,,,,,,,,
,,,,,,,,,,,,a,0.784245,Correct!,,,,,,t2.png,t2.png,0,0.98115,19,female,2020-11-09_11h49.33.998,torte-q,2020.1.3,Win32,60,13983,,,,,,,,,,,,,,0,112,112,2,1,,,,,,,,,,,,,,,,,,,,,,,,,,
,,,,,,,,,,,,a,1.008055,Incorrect,,,,,,t1.png,t3.png,2,0.056466,19,female,2020-11-09_11h49.33.998,torte-q,2020.1.3,Win32,60,13983,,,,,,,,,,,,,,0,113,113,60,1,,,,,,,,,,,,,,,,,,,,,,,,,,
,,,,,,,,,,,,l,0.753665,Correct!,,,,,,t3.png,t1.png,2,0.056466,19,female,2020-11-09_11h49.33.998,torte-q,2020.1.3,Win32,60,13983,,,,,,,,,,,,,,0,114,114,0,1,,,,,,,,,,,,,,,,,,,,,,,,,,
,,,,,,,,,,,,l,1.339005,Correct!,,,,,,t5.png,t3.png,2,0.0565,19,female,2020-11-09_11h49.33.998,torte-q,2020.1.3,Win32,60,13983,,,,,,,,,,,,,,0,115,115,39,1,,,,,,,,,,,,,,,,,,,,,,,,,,
,,,,,,,,,,,,a,1.55799,Incorrect,,,,,,t1.png,t1.png,0,0.978,19,female,2020-11-09_11h49.33.998,torte-q,2020.1.3,Win32,60,13983,,,,,,,,,,,,,,0,116,116,28,1,,,,,,,,,,,,,,,,,,,,,,,,,,
,,,,,,,,,,,,l,0.71813,Correct!,,,,,,t4.png,t1.png,3,0.0000131,19,female,2020-11-09_11h49.33.998,torte-q,2020.1.3,Win32,60,13983,,,,,,,,,,,,,,0,117,117,42,1,,,,,,,,,,,,,,,,,,,,,,,,,,
,,,,,,,,,,,,l,1.418675,Incorrect,,,,,,t3.png,t4.png,1,0.909,19,female,2020-11-09_11h49.33.998,torte-q,2020.1.3,Win32,60,13983,,,,,,,,,,,,,,0,118,118,106,1,,,,,,,,,,,,,,,,,,,,,,,,,,
,,,,,,,,,,,,a,0.755615,Correct!,,,,,,t4.png,t3.png,1,0.90855,19,female,2020-11-09_11h49.33.998,torte-q,2020.1.3,Win32,60,13983,,,,,,,,,,,,,,0,119,119,35,1,,,,,,,,,,,,,,,,,,,,,,,,,,
,,,,,,,,,,,,,,,,,,,,,,,,19,female,2020-11-09_11h49.33.998,torte-q,2020.1.3,Win32,60,13983,space,2.370635,,,,,,,,,,,,,,,,,4.99,8.617705,231.3333593,174.6666611,1,0,0,s1,172.6666909,90.66665864,1,0,0,t1,187.333358,-93.33334684,1,0,0,proceed,space,42.37029,space,4.786725,space,2.827355
