key_resp_8.keys,key_resp_8.rt,key_resp_9.keys,key_resp_9.rt,key_resp_10.keys,key_resp_10.rt,key_resp_11.keys,key_resp_11.rt,key_resp_2.keys,key_resp_2.rt,key_resp_3.keys,key_resp_3.rt,key_resp.keys,key_resp.rt,Feedback,train.thisRepN,train.thisTrialN,train.thisN,train.thisIndex,train.ran,torta_sx,torta_dx,difference,probability,age,gender,date,expName,psychopyVersion,OS,frameRate,participant,key_resp_15.keys,key_resp_15.rt,key_resp_6.keys,key_resp_6.rt,test1.thisRepN,test1.thisTrialN,test1.thisN,test1.thisIndex,test1.ran,key_resp_16.keys,key_resp_16.rt,key_resp_7.keys,key_resp_7.rt,test2.thisRepN,test2.thisTrialN,test2.thisN,test2.thisIndex,test2.ran,rating.response,rating.rt,mouse.x,mouse.y,mouse.leftButton,mouse.midButton,mouse.rightButton,mouse.clicked_name,mouse_2.x,mouse_2.y,mouse_2.leftButton,mouse_2.midButton,mouse_2.rightButton,mouse_2.clicked_name,mouse_3.x,mouse_3.y,mouse_3.leftButton,mouse_3.midButton,mouse_3.rightButton,mouse_3.clicked_name,key_resp_12.keys,key_resp_12.rt,key_resp_13.keys,key_resp_13.rt,key_resp_14.keys,key_resp_14.rt
space,49.59305,space,3.74828,space,0.256645,space,4.479025,space,3.0198,space,88.02104,a,0.92005,Correct!,0,0,0,59,1,t5.png,t4.png,1,0.9,20,Male,2020-10-20_18h11.19.861,torte-q,2020.1.3,Win32,60,14000,,,,,,,,,,,,,,,,,,,,,,,,,,,,,,,,,,,,,,,,,,,,
,,,,,,,,,,,,a,0.768245,Incorrect,0,1,1,0,1,t5.png,t1.png,4,9.55E-11,20,Male,2020-10-20_18h11.19.861,torte-q,2020.1.3,Win32,60,14000,,,,,,,,,,,,,,,,,,,,,,,,,,,,,,,,,,,,,,,,,,,,
,,,,,,,,,,,,a,1.623855,Correct!,0,2,2,118,1,t5.png,t5.png,0,0.978,20,Male,2020-10-20_18h11.19.861,torte-q,2020.1.3,Win32,60,14000,,,,,,,,,,,,,,,,,,,,,,,,,,,,,,,,,,,,,,,,,,,,
,,,,,,,,,,,,l,1.19044,Incorrect,0,3,3,10,1,t2.png,t3.png,1,0.90855,20,Male,2020-10-20_18h11.19.861,torte-q,2020.1.3,Win32,60,14000,,,,,,,,,,,,,,,,,,,,,,,,,,,,,,,,,,,,,,,,,,,,
,,,,,,,,,,,,a,1.395405,Correct!,0,4,4,28,1,t2.png,t3.png,1,0.909,20,Male,2020-10-20_18h11.19.861,torte-q,2020.1.3,Win32,60,14000,,,,,,,,,,,,,,,,,,,,,,,,,,,,,,,,,,,,,,,,,,,,
,,,,,,,,,,,,l,1.22161,Incorrect,0,5,5,79,1,t3.png,t2.png,1,0.909,20,Male,2020-10-20_18h11.19.861,torte-q,2020.1.3,Win32,60,14000,,,,,,,,,,,,,,,,,,,,,,,,,,,,,,,,,,,,,,,,,,,,
,,,,,,,,,,,,a,1.353985,Incorrect,0,6,6,35,1,t1.png,t4.png,3,0.0000131,20,Male,2020-10-20_18h11.19.861,torte-q,2020.1.3,Win32,60,14000,,,,,,,,,,,,,,,,,,,,,,,,,,,,,,,,,,,,,,,,,,,,
,,,,,,,,,,,,a,2.17203,Incorrect,0,7,7,98,1,t2.png,t4.png,2,0.0591,20,Male,2020-10-20_18h11.19.861,torte-q,2020.1.3,Win32,60,14000,,,,,,,,,,,,,,,,,,,,,,,,,,,,,,,,,,,,,,,,,,,,
,,,,,,,,,,,,l,1.830765,Correct!,0,8,8,119,1,t1.png,t5.png,4,9.55E-11,20,Male,2020-10-20_18h11.19.861,torte-q,2020.1.3,Win32,60,14000,,,,,,,,,,,,,,,,,,,,,,,,,,,,,,,,,,,,,,,,,,,,
,,,,,,,,,,,,,,Too slow :(,0,9,9,60,1,t2.png,t4.png,2,0.059078,20,Male,2020-10-20_18h11.19.861,torte-q,2020.1.3,Win32,60,14000,,,,,,,,,,,,,,,,,,,,,,,,,,,,,,,,,,,,,,,,,,,,
,,,,,,,,,,,,l,2.15215,Correct!,0,10,10,6,1,t1.png,t4.png,3,0.0000131,20,Male,2020-10-20_18h11.19.861,torte-q,2020.1.3,Win32,60,14000,,,,,,,,,,,,,,,,,,,,,,,,,,,,,,,,,,,,,,,,,,,,
,,,,,,,,,,,,l,1.281825,Incorrect,0,11,11,78,1,t1.png,t1.png,0,0.978,20,Male,2020-10-20_18h11.19.861,torte-q,2020.1.3,Win32,60,14000,,,,,,,,,,,,,,,,,,,,,,,,,,,,,,,,,,,,,,,,,,,,
,,,,,,,,,,,,l,2.065,Correct!,0,12,12,33,1,t5.png,t1.png,4,9.55E-11,20,Male,2020-10-20_18h11.19.861,torte-q,2020.1.3,Win32,60,14000,,,,,,,,,,,,,,,,,,,,,,,,,,,,,,,,,,,,,,,,,,,,
,,,,,,,,,,,,a,1.92331,Incorrect,0,13,13,51,1,t3.png,t1.png,2,0.056466,20,Male,2020-10-20_18h11.19.861,torte-q,2020.1.3,Win32,60,14000,,,,,,,,,,,,,,,,,,,,,,,,,,,,,,,,,,,,,,,,,,,,
,,,,,,,,,,,,l,1.940085,Correct!,0,14,14,50,1,t5.png,t1.png,4,9.55E-11,20,Male,2020-10-20_18h11.19.861,torte-q,2020.1.3,Win32,60,14000,,,,,,,,,,,,,,,,,,,,,,,,,,,,,,,,,,,,,,,,,,,,
,,,,,,,,,,,,l,1.75648,Incorrect,0,15,15,2,1,t3.png,t2.png,1,0.90855,20,Male,2020-10-20_18h11.19.861,torte-q,2020.1.3,Win32,60,14000,,,,,,,,,,,,,,,,,,,,,,,,,,,,,,,,,,,,,,,,,,,,
,,,,,,,,,,,,l,1.321345,Incorrect,0,16,16,112,1,t1.png,t1.png,0,0.97829,20,Male,2020-10-20_18h11.19.861,torte-q,2020.1.3,Win32,60,14000,,,,,,,,,,,,,,,,,,,,,,,,,,,,,,,,,,,,,,,,,,,,
,,,,,,,,,,,,a,1.889915,Incorrect,0,17,17,36,1,t3.png,t1.png,2,0.0565,20,Male,2020-10-20_18h11.19.861,torte-q,2020.1.3,Win32,60,14000,,,,,,,,,,,,,,,,,,,,,,,,,,,,,,,,,,,,,,,,,,,,
,,,,,,,,,,,,l,1.68203,Incorrect,0,18,18,100,1,t4.png,t5.png,1,0.90025,20,Male,2020-10-20_18h11.19.861,torte-q,2020.1.3,Win32,60,14000,,,,,,,,,,,,,,,,,,,,,,,,,,,,,,,,,,,,,,,,,,,,
,,,,,,,,,,,,a,2.15516,Incorrect,0,19,19,102,1,t4.png,t2.png,2,0.059078,20,Male,2020-10-20_18h11.19.861,torte-q,2020.1.3,Win32,60,14000,,,,,,,,,,,,,,,,,,,,,,,,,,,,,,,,,,,,,,,,,,,,
,,,,,,,,,,,,a,1.633775,Correct!,0,20,20,76,1,t3.png,t2.png,1,0.90855,20,Male,2020-10-20_18h11.19.861,torte-q,2020.1.3,Win32,60,14000,,,,,,,,,,,,,,,,,,,,,,,,,,,,,,,,,,,,,,,,,,,,
,,,,,,,,,,,,a,1.10361,Correct!,0,21,21,41,1,t3.png,t2.png,1,0.90855,20,Male,2020-10-20_18h11.19.861,torte-q,2020.1.3,Win32,60,14000,,,,,,,,,,,,,,,,,,,,,,,,,,,,,,,,,,,,,,,,,,,,
,,,,,,,,,,,,l,1.617155,Correct!,0,22,22,12,1,t5.png,t1.png,4,9.55E-11,20,Male,2020-10-20_18h11.19.861,torte-q,2020.1.3,Win32,60,14000,,,,,,,,,,,,,,,,,,,,,,,,,,,,,,,,,,,,,,,,,,,,
,,,,,,,,,,,,a,1.41554,Correct!,0,23,23,73,1,t4.png,t2.png,2,0.059078,20,Male,2020-10-20_18h11.19.861,torte-q,2020.1.3,Win32,60,14000,,,,,,,,,,,,,,,,,,,,,,,,,,,,,,,,,,,,,,,,,,,,
,,,,,,,,,,,,l,1.356995,Correct!,0,24,24,30,1,t3.png,t1.png,2,0.056466,20,Male,2020-10-20_18h11.19.861,torte-q,2020.1.3,Win32,60,14000,,,,,,,,,,,,,,,,,,,,,,,,,,,,,,,,,,,,,,,,,,,,
,,,,,,,,,,,,l,1.19989,Incorrect,0,25,25,81,1,t1.png,t1.png,0,0.97829,20,Male,2020-10-20_18h11.19.861,torte-q,2020.1.3,Win32,60,14000,,,,,,,,,,,,,,,,,,,,,,,,,,,,,,,,,,,,,,,,,,,,
,,,,,,,,,,,,l,1.298675,Correct!,0,26,26,17,1,t1.png,t4.png,3,0.0000131,20,Male,2020-10-20_18h11.19.861,torte-q,2020.1.3,Win32,60,14000,,,,,,,,,,,,,,,,,,,,,,,,,,,,,,,,,,,,,,,,,,,,
,,,,,,,,,,,,a,1.534,Incorrect,0,27,27,34,1,t5.png,t4.png,1,0.9,20,Male,2020-10-20_18h11.19.861,torte-q,2020.1.3,Win32,60,14000,,,,,,,,,,,,,,,,,,,,,,,,,,,,,,,,,,,,,,,,,,,,
,,,,,,,,,,,,l,1.61807,Correct!,0,28,28,40,1,t1.png,t5.png,4,9.55E-11,20,Male,2020-10-20_18h11.19.861,torte-q,2020.1.3,Win32,60,14000,,,,,,,,,,,,,,,,,,,,,,,,,,,,,,,,,,,,,,,,,,,,
,,,,,,,,,,,,a,2.206645,Incorrect,0,29,29,38,1,t3.png,t1.png,2,0.056466,20,Male,2020-10-20_18h11.19.861,torte-q,2020.1.3,Win32,60,14000,,,,,,,,,,,,,,,,,,,,,,,,,,,,,,,,,,,,,,,,,,,,
,,,,,,,,,,,,l,1.515045,Correct!,0,30,30,91,1,t1.png,t4.png,3,0.0000131,20,Male,2020-10-20_18h11.19.861,torte-q,2020.1.3,Win32,60,14000,,,,,,,,,,,,,,,,,,,,,,,,,,,,,,,,,,,,,,,,,,,,
,,,,,,,,,,,,a,1.970555,Incorrect,0,31,31,99,1,t1.png,t5.png,4,9.55E-11,20,Male,2020-10-20_18h11.19.861,torte-q,2020.1.3,Win32,60,14000,,,,,,,,,,,,,,,,,,,,,,,,,,,,,,,,,,,,,,,,,,,,
,,,,,,,,,,,,l,2.158605,Incorrect,0,32,32,109,1,t5.png,t5.png,0,0.97829,20,Male,2020-10-20_18h11.19.861,torte-q,2020.1.3,Win32,60,14000,,,,,,,,,,,,,,,,,,,,,,,,,,,,,,,,,,,,,,,,,,,,
,,,,,,,,,,,,a,0.96124,Incorrect,0,33,33,5,1,t2.png,t4.png,2,0.059078,20,Male,2020-10-20_18h11.19.861,torte-q,2020.1.3,Win32,60,14000,,,,,,,,,,,,,,,,,,,,,,,,,,,,,,,,,,,,,,,,,,,,
,,,,,,,,,,,,l,0.770055,Incorrect,0,34,34,107,1,t1.png,t1.png,0,0.978,20,Male,2020-10-20_18h11.19.861,torte-q,2020.1.3,Win32,60,14000,,,,,,,,,,,,,,,,,,,,,,,,,,,,,,,,,,,,,,,,,,,,
,,,,,,,,,,,,a,1.201445,Correct!,0,35,35,77,1,t1.png,t1.png,0,0.97829,20,Male,2020-10-20_18h11.19.861,torte-q,2020.1.3,Win32,60,14000,,,,,,,,,,,,,,,,,,,,,,,,,,,,,,,,,,,,,,,,,,,,
,,,,,,,,,,,,l,2.15427,Incorrect,0,36,36,97,1,t5.png,t5.png,0,0.97829,20,Male,2020-10-20_18h11.19.861,torte-q,2020.1.3,Win32,60,14000,,,,,,,,,,,,,,,,,,,,,,,,,,,,,,,,,,,,,,,,,,,,
,,,,,,,,,,,,a,1.766255,Incorrect,0,37,37,94,1,t5.png,t1.png,4,9.55E-11,20,Male,2020-10-20_18h11.19.861,torte-q,2020.1.3,Win32,60,14000,,,,,,,,,,,,,,,,,,,,,,,,,,,,,,,,,,,,,,,,,,,,
,,,,,,,,,,,,a,1.119515,Incorrect,0,38,38,67,1,t1.png,t5.png,4,9.55E-11,20,Male,2020-10-20_18h11.19.861,torte-q,2020.1.3,Win32,60,14000,,,,,,,,,,,,,,,,,,,,,,,,,,,,,,,,,,,,,,,,,,,,
,,,,,,,,,,,,l,0.791825,Correct!,0,39,39,14,1,t2.png,t4.png,2,0.059078,20,Male,2020-10-20_18h11.19.861,torte-q,2020.1.3,Win32,60,14000,,,,,,,,,,,,,,,,,,,,,,,,,,,,,,,,,,,,,,,,,,,,
,,,,,,,,,,,,l,0.97502,Incorrect,0,40,40,85,1,t3.png,t2.png,1,0.90855,20,Male,2020-10-20_18h11.19.861,torte-q,2020.1.3,Win32,60,14000,,,,,,,,,,,,,,,,,,,,,,,,,,,,,,,,,,,,,,,,,,,,
,,,,,,,,,,,,a,0.745305,Correct!,0,41,41,70,1,t5.png,t5.png,0,0.978,20,Male,2020-10-20_18h11.19.861,torte-q,2020.1.3,Win32,60,14000,,,,,,,,,,,,,,,,,,,,,,,,,,,,,,,,,,,,,,,,,,,,
,,,,,,,,,,,,l,1.737515,Incorrect,0,42,42,66,1,t4.png,t5.png,1,0.9,20,Male,2020-10-20_18h11.19.861,torte-q,2020.1.3,Win32,60,14000,,,,,,,,,,,,,,,,,,,,,,,,,,,,,,,,,,,,,,,,,,,,
,,,,,,,,,,,,l,2.143985,Incorrect,0,43,43,44,1,t2.png,t3.png,1,0.909,20,Male,2020-10-20_18h11.19.861,torte-q,2020.1.3,Win32,60,14000,,,,,,,,,,,,,,,,,,,,,,,,,,,,,,,,,,,,,,,,,,,,
,,,,,,,,,,,,a,1.063205,Correct!,0,44,44,92,1,t2.png,t3.png,1,0.909,20,Male,2020-10-20_18h11.19.861,torte-q,2020.1.3,Win32,60,14000,,,,,,,,,,,,,,,,,,,,,,,,,,,,,,,,,,,,,,,,,,,,
,,,,,,,,,,,,l,2.034445,Incorrect,0,45,45,15,1,t3.png,t2.png,1,0.90855,20,Male,2020-10-20_18h11.19.861,torte-q,2020.1.3,Win32,60,14000,,,,,,,,,,,,,,,,,,,,,,,,,,,,,,,,,,,,,,,,,,,,
,,,,,,,,,,,,l,1.589175,Correct!,0,46,46,3,1,t1.png,t5.png,4,9.55E-11,20,Male,2020-10-20_18h11.19.861,torte-q,2020.1.3,Win32,60,14000,,,,,,,,,,,,,,,,,,,,,,,,,,,,,,,,,,,,,,,,,,,,
,,,,,,,,,,,,l,1.81973,Correct!,0,47,47,24,1,t4.png,t2.png,2,0.059078,20,Male,2020-10-20_18h11.19.861,torte-q,2020.1.3,Win32,60,14000,,,,,,,,,,,,,,,,,,,,,,,,,,,,,,,,,,,,,,,,,,,,
,,,,,,,,,,,,l,1.18362,Incorrect,0,48,48,95,1,t1.png,t1.png,0,0.978,20,Male,2020-10-20_18h11.19.861,torte-q,2020.1.3,Win32,60,14000,,,,,,,,,,,,,,,,,,,,,,,,,,,,,,,,,,,,,,,,,,,,
,,,,,,,,,,,,l,1.931355,Incorrect,0,49,49,101,1,t4.png,t5.png,1,0.90025,20,Male,2020-10-20_18h11.19.861,torte-q,2020.1.3,Win32,60,14000,,,,,,,,,,,,,,,,,,,,,,,,,,,,,,,,,,,,,,,,,,,,
,,,,,,,,,,,,a,1.788375,Incorrect,0,50,50,117,1,t1.png,t5.png,4,9.55E-11,20,Male,2020-10-20_18h11.19.861,torte-q,2020.1.3,Win32,60,14000,,,,,,,,,,,,,,,,,,,,,,,,,,,,,,,,,,,,,,,,,,,,
,,,,,,,,,,,,l,1.76532,Incorrect,0,51,51,23,1,t5.png,t4.png,1,0.90025,20,Male,2020-10-20_18h11.19.861,torte-q,2020.1.3,Win32,60,14000,,,,,,,,,,,,,,,,,,,,,,,,,,,,,,,,,,,,,,,,,,,,
,,,,,,,,,,,,l,1.53738,Correct!,0,52,52,53,1,t3.png,t1.png,2,0.056466,20,Male,2020-10-20_18h11.19.861,torte-q,2020.1.3,Win32,60,14000,,,,,,,,,,,,,,,,,,,,,,,,,,,,,,,,,,,,,,,,,,,,
,,,,,,,,,,,,a,1.47997,Correct!,0,53,53,114,1,t2.png,t3.png,1,0.90855,20,Male,2020-10-20_18h11.19.861,torte-q,2020.1.3,Win32,60,14000,,,,,,,,,,,,,,,,,,,,,,,,,,,,,,,,,,,,,,,,,,,,
,,,,,,,,,,,,a,1.221655,Correct!,0,54,54,96,1,t1.png,t1.png,0,0.97829,20,Male,2020-10-20_18h11.19.861,torte-q,2020.1.3,Win32,60,14000,,,,,,,,,,,,,,,,,,,,,,,,,,,,,,,,,,,,,,,,,,,,
,,,,,,,,,,,,a,1.621585,Correct!,0,55,55,74,1,t5.png,t4.png,1,0.9,20,Male,2020-10-20_18h11.19.861,torte-q,2020.1.3,Win32,60,14000,,,,,,,,,,,,,,,,,,,,,,,,,,,,,,,,,,,,,,,,,,,,
,,,,,,,,,,,,l,1.5777,Correct!,0,56,56,47,1,t4.png,t2.png,2,0.059078,20,Male,2020-10-20_18h11.19.861,torte-q,2020.1.3,Win32,60,14000,,,,,,,,,,,,,,,,,,,,,,,,,,,,,,,,,,,,,,,,,,,,
,,,,,,,,,,,,a,1.342635,Incorrect,0,57,57,4,1,t1.png,t5.png,4,9.55E-11,20,Male,2020-10-20_18h11.19.861,torte-q,2020.1.3,Win32,60,14000,,,,,,,,,,,,,,,,,,,,,,,,,,,,,,,,,,,,,,,,,,,,
,,,,,,,,,,,,l,1.13439,Correct!,0,58,58,11,1,t1.png,t4.png,3,0.0000131,20,Male,2020-10-20_18h11.19.861,torte-q,2020.1.3,Win32,60,14000,,,,,,,,,,,,,,,,,,,,,,,,,,,,,,,,,,,,,,,,,,,,
,,,,,,,,,,,,a,1.449645,Correct!,0,59,59,18,1,t4.png,t5.png,1,0.90025,20,Male,2020-10-20_18h11.19.861,torte-q,2020.1.3,Win32,60,14000,,,,,,,,,,,,,,,,,,,,,,,,,,,,,,,,,,,,,,,,,,,,
,,,,,,,,,,,,l,1.352735,Correct!,0,60,60,37,1,t1.png,t4.png,3,0.0000131,20,Male,2020-10-20_18h11.19.861,torte-q,2020.1.3,Win32,60,14000,,,,,,,,,,,,,,,,,,,,,,,,,,,,,,,,,,,,,,,,,,,,
,,,,,,,,,,,,l,2.066635,Incorrect,0,61,61,16,1,t5.png,t4.png,1,0.9,20,Male,2020-10-20_18h11.19.861,torte-q,2020.1.3,Win32,60,14000,,,,,,,,,,,,,,,,,,,,,,,,,,,,,,,,,,,,,,,,,,,,
,,,,,,,,,,,,a,1.058705,Correct!,0,62,62,64,1,t1.png,t1.png,0,0.978,20,Male,2020-10-20_18h11.19.861,torte-q,2020.1.3,Win32,60,14000,,,,,,,,,,,,,,,,,,,,,,,,,,,,,,,,,,,,,,,,,,,,
,,,,,,,,,,,,a,1.22332,Incorrect,0,63,63,82,1,t5.png,t1.png,4,9.55E-11,20,Male,2020-10-20_18h11.19.861,torte-q,2020.1.3,Win32,60,14000,,,,,,,,,,,,,,,,,,,,,,,,,,,,,,,,,,,,,,,,,,,,
,,,,,,,,,,,,l,0.756405,Correct!,0,64,64,72,1,t4.png,t2.png,2,0.059078,20,Male,2020-10-20_18h11.19.861,torte-q,2020.1.3,Win32,60,14000,,,,,,,,,,,,,,,,,,,,,,,,,,,,,,,,,,,,,,,,,,,,
,,,,,,,,,,,,a,0.91894,Correct!,0,65,65,62,1,t5.png,t5.png,0,0.978,20,Male,2020-10-20_18h11.19.861,torte-q,2020.1.3,Win32,60,14000,,,,,,,,,,,,,,,,,,,,,,,,,,,,,,,,,,,,,,,,,,,,
,,,,,,,,,,,,l,1.534075,Incorrect,0,66,66,88,1,t3.png,t1.png,2,0.056466,20,Male,2020-10-20_18h11.19.861,torte-q,2020.1.3,Win32,60,14000,,,,,,,,,,,,,,,,,,,,,,,,,,,,,,,,,,,,,,,,,,,,
,,,,,,,,,,,,a,0.800065,Incorrect,0,67,67,86,1,t3.png,t1.png,2,0.056466,20,Male,2020-10-20_18h11.19.861,torte-q,2020.1.3,Win32,60,14000,,,,,,,,,,,,,,,,,,,,,,,,,,,,,,,,,,,,,,,,,,,,
,,,,,,,,,,,,l,0.25647,Correct!,0,68,68,19,1,t4.png,t2.png,2,0.059078,20,Male,2020-10-20_18h11.19.861,torte-q,2020.1.3,Win32,60,14000,,,,,,,,,,,,,,,,,,,,,,,,,,,,,,,,,,,,,,,,,,,,
,,,,,,,,,,,,l,1.17044,Correct!,0,69,69,63,1,t2.png,t3.png,1,0.909,20,Male,2020-10-20_18h11.19.861,torte-q,2020.1.3,Win32,60,14000,,,,,,,,,,,,,,,,,,,,,,,,,,,,,,,,,,,,,,,,,,,,
,,,,,,,,,,,,a,0.915445,Incorrect,0,70,70,26,1,t4.png,t2.png,2,0.0591,20,Male,2020-10-20_18h11.19.861,torte-q,2020.1.3,Win32,60,14000,,,,,,,,,,,,,,,,,,,,,,,,,,,,,,,,,,,,,,,,,,,,
,,,,,,,,,,,,l,1.499015,Incorrect,0,71,71,49,1,t4.png,t5.png,1,0.9,20,Male,2020-10-20_18h11.19.861,torte-q,2020.1.3,Win32,60,14000,,,,,,,,,,,,,,,,,,,,,,,,,,,,,,,,,,,,,,,,,,,,
,,,,,,,,,,,,l,2.26581,Incorrect,0,72,72,58,1,t5.png,t4.png,1,0.90025,20,Male,2020-10-20_18h11.19.861,torte-q,2020.1.3,Win32,60,14000,,,,,,,,,,,,,,,,,,,,,,,,,,,,,,,,,,,,,,,,,,,,
,,,,,,,,,,,,a,1.23252,Correct!,0,73,73,8,1,t3.png,t2.png,1,0.90855,20,Male,2020-10-20_18h11.19.861,torte-q,2020.1.3,Win32,60,14000,,,,,,,,,,,,,,,,,,,,,,,,,,,,,,,,,,,,,,,,,,,,
,,,,,,,,,,,,l,1.565775,Correct!,0,74,74,27,1,t3.png,t1.png,2,0.0565,20,Male,2020-10-20_18h11.19.861,torte-q,2020.1.3,Win32,60,14000,,,,,,,,,,,,,,,,,,,,,,,,,,,,,,,,,,,,,,,,,,,,
,,,,,,,,,,,,a,1.48321,Correct!,0,75,75,13,1,t5.png,t5.png,0,0.97829,20,Male,2020-10-20_18h11.19.861,torte-q,2020.1.3,Win32,60,14000,,,,,,,,,,,,,,,,,,,,,,,,,,,,,,,,,,,,,,,,,,,,
,,,,,,,,,,,,l,1.67768,Incorrect,0,76,76,32,1,t4.png,t5.png,1,0.90025,20,Male,2020-10-20_18h11.19.861,torte-q,2020.1.3,Win32,60,14000,,,,,,,,,,,,,,,,,,,,,,,,,,,,,,,,,,,,,,,,,,,,
,,,,,,,,,,,,l,1.563505,Incorrect,0,77,77,105,1,t3.png,t2.png,1,0.90855,20,Male,2020-10-20_18h11.19.861,torte-q,2020.1.3,Win32,60,14000,,,,,,,,,,,,,,,,,,,,,,,,,,,,,,,,,,,,,,,,,,,,
,,,,,,,,,,,,l,1.370565,Correct!,0,78,78,68,1,t1.png,t4.png,3,0.0000131,20,Male,2020-10-20_18h11.19.861,torte-q,2020.1.3,Win32,60,14000,,,,,,,,,,,,,,,,,,,,,,,,,,,,,,,,,,,,,,,,,,,,
,,,,,,,,,,,,a,0.934955,Incorrect,0,79,79,87,1,t5.png,t1.png,4,9.55E-11,20,Male,2020-10-20_18h11.19.861,torte-q,2020.1.3,Win32,60,14000,,,,,,,,,,,,,,,,,,,,,,,,,,,,,,,,,,,,,,,,,,,,
,,,,,,,,,,,,l,1.261385,Correct!,0,80,80,1,1,t2.png,t4.png,2,0.059078,20,Male,2020-10-20_18h11.19.861,torte-q,2020.1.3,Win32,60,14000,,,,,,,,,,,,,,,,,,,,,,,,,,,,,,,,,,,,,,,,,,,,
,,,,,,,,,,,,l,2.17017,Correct!,0,81,81,52,1,t2.png,t4.png,2,0.059078,20,Male,2020-10-20_18h11.19.861,torte-q,2020.1.3,Win32,60,14000,,,,,,,,,,,,,,,,,,,,,,,,,,,,,,,,,,,,,,,,,,,,
,,,,,,,,,,,,a,1.68901,Incorrect,0,82,82,108,1,t5.png,t1.png,4,9.55E-11,20,Male,2020-10-20_18h11.19.861,torte-q,2020.1.3,Win32,60,14000,,,,,,,,,,,,,,,,,,,,,,,,,,,,,,,,,,,,,,,,,,,,
,,,,,,,,,,,,,,Too slow :(,0,83,83,83,1,t3.png,t1.png,2,0.056466,20,Male,2020-10-20_18h11.19.861,torte-q,2020.1.3,Win32,60,14000,,,,,,,,,,,,,,,,,,,,,,,,,,,,,,,,,,,,,,,,,,,,
,,,,,,,,,,,,l,1.83441,Correct!,0,84,84,55,1,t2.png,t4.png,2,0.059078,20,Male,2020-10-20_18h11.19.861,torte-q,2020.1.3,Win32,60,14000,,,,,,,,,,,,,,,,,,,,,,,,,,,,,,,,,,,,,,,,,,,,
,,,,,,,,,,,,l,2.023605,Correct!,0,85,85,7,1,t4.png,t5.png,1,0.90025,20,Male,2020-10-20_18h11.19.861,torte-q,2020.1.3,Win32,60,14000,,,,,,,,,,,,,,,,,,,,,,,,,,,,,,,,,,,,,,,,,,,,
,,,,,,,,,,,,l,1.2611,Incorrect,0,86,86,20,1,t2.png,t3.png,1,0.90855,20,Male,2020-10-20_18h11.19.861,torte-q,2020.1.3,Win32,60,14000,,,,,,,,,,,,,,,,,,,,,,,,,,,,,,,,,,,,,,,,,,,,
,,,,,,,,,,,,a,0.05589,Correct!,0,87,87,22,1,t2.png,t3.png,1,0.90855,20,Male,2020-10-20_18h11.19.861,torte-q,2020.1.3,Win32,60,14000,,,,,,,,,,,,,,,,,,,,,,,,,,,,,,,,,,,,,,,,,,,,
,,,,,,,,,,,,l,1.288815,Incorrect,0,88,88,71,1,t5.png,t5.png,0,0.97829,20,Male,2020-10-20_18h11.19.861,torte-q,2020.1.3,Win32,60,14000,,,,,,,,,,,,,,,,,,,,,,,,,,,,,,,,,,,,,,,,,,,,
,,,,,,,,,,,,a,0.92085,Incorrect,0,89,89,110,1,t4.png,t5.png,1,0.90025,20,Male,2020-10-20_18h11.19.861,torte-q,2020.1.3,Win32,60,14000,,,,,,,,,,,,,,,,,,,,,,,,,,,,,,,,,,,,,,,,,,,,
,,,,,,,,,,,,a,1.03854,Correct!,0,90,90,75,1,t1.png,t1.png,0,0.97829,20,Male,2020-10-20_18h11.19.861,torte-q,2020.1.3,Win32,60,14000,,,,,,,,,,,,,,,,,,,,,,,,,,,,,,,,,,,,,,,,,,,,
,,,,,,,,,,,,a,1.549965,Correct!,0,91,91,25,1,t5.png,t5.png,0,0.97829,20,Male,2020-10-20_18h11.19.861,torte-q,2020.1.3,Win32,60,14000,,,,,,,,,,,,,,,,,,,,,,,,,,,,,,,,,,,,,,,,,,,,
,,,,,,,,,,,,a,0.83245,Correct!,0,92,92,48,1,t5.png,t5.png,0,0.97829,20,Male,2020-10-20_18h11.19.861,torte-q,2020.1.3,Win32,60,14000,,,,,,,,,,,,,,,,,,,,,,,,,,,,,,,,,,,,,,,,,,,,
,,,,,,,,,,,,l,1.242535,Correct!,0,93,93,90,1,t1.png,t5.png,4,9.55E-11,20,Male,2020-10-20_18h11.19.861,torte-q,2020.1.3,Win32,60,14000,,,,,,,,,,,,,,,,,,,,,,,,,,,,,,,,,,,,,,,,,,,,
,,,,,,,,,,,,l,1.164135,Incorrect,0,94,94,106,1,t2.png,t3.png,1,0.90855,20,Male,2020-10-20_18h11.19.861,torte-q,2020.1.3,Win32,60,14000,,,,,,,,,,,,,,,,,,,,,,,,,,,,,,,,,,,,,,,,,,,,
,,,,,,,,,,,,a,0.365945,Correct!,0,95,95,45,1,t3.png,t2.png,1,0.90855,20,Male,2020-10-20_18h11.19.861,torte-q,2020.1.3,Win32,60,14000,,,,,,,,,,,,,,,,,,,,,,,,,,,,,,,,,,,,,,,,,,,,
,,,,,,,,,,,,l,1.182635,Incorrect,0,96,96,65,1,t4.png,t5.png,1,0.90025,20,Male,2020-10-20_18h11.19.861,torte-q,2020.1.3,Win32,60,14000,,,,,,,,,,,,,,,,,,,,,,,,,,,,,,,,,,,,,,,,,,,,
,,,,,,,,,,,,a,0.55238,Correct!,0,97,97,21,1,t5.png,t4.png,1,0.90025,20,Male,2020-10-20_18h11.19.861,torte-q,2020.1.3,Win32,60,14000,,,,,,,,,,,,,,,,,,,,,,,,,,,,,,,,,,,,,,,,,,,,
,,,,,,,,,,,,l,1.80023,Correct!,0,98,98,69,1,t4.png,t2.png,2,0.059078,20,Male,2020-10-20_18h11.19.861,torte-q,2020.1.3,Win32,60,14000,,,,,,,,,,,,,,,,,,,,,,,,,,,,,,,,,,,,,,,,,,,,
,,,,,,,,,,,,a,0.96687,Correct!,0,99,99,84,1,t1.png,t1.png,0,0.97829,20,Male,2020-10-20_18h11.19.861,torte-q,2020.1.3,Win32,60,14000,,,,,,,,,,,,,,,,,,,,,,,,,,,,,,,,,,,,,,,,,,,,
,,,,,,,,,,,,l,1.8776,Correct!,0,100,100,31,1,t1.png,t5.png,4,9.55E-11,20,Male,2020-10-20_18h11.19.861,torte-q,2020.1.3,Win32,60,14000,,,,,,,,,,,,,,,,,,,,,,,,,,,,,,,,,,,,,,,,,,,,
,,,,,,,,,,,,l,0.74352,Correct!,0,101,101,103,1,t3.png,t1.png,2,0.056466,20,Male,2020-10-20_18h11.19.861,torte-q,2020.1.3,Win32,60,14000,,,,,,,,,,,,,,,,,,,,,,,,,,,,,,,,,,,,,,,,,,,,
,,,,,,,,,,,,a,0.808505,Correct!,0,102,102,29,1,t5.png,t5.png,0,0.97829,20,Male,2020-10-20_18h11.19.861,torte-q,2020.1.3,Win32,60,14000,,,,,,,,,,,,,,,,,,,,,,,,,,,,,,,,,,,,,,,,,,,,
,,,,,,,,,,,,l,1.071035,Correct!,0,103,103,93,1,t2.png,t4.png,2,0.059078,20,Male,2020-10-20_18h11.19.861,torte-q,2020.1.3,Win32,60,14000,,,,,,,,,,,,,,,,,,,,,,,,,,,,,,,,,,,,,,,,,,,,
,,,,,,,,,,,,l,0.70155,Correct!,0,104,104,57,1,t2.png,t4.png,2,0.059078,20,Male,2020-10-20_18h11.19.861,torte-q,2020.1.3,Win32,60,14000,,,,,,,,,,,,,,,,,,,,,,,,,,,,,,,,,,,,,,,,,,,,
,,,,,,,,,,,,l,0.793465,Incorrect,0,105,105,104,1,t2.png,t3.png,1,0.90855,20,Male,2020-10-20_18h11.19.861,torte-q,2020.1.3,Win32,60,14000,,,,,,,,,,,,,,,,,,,,,,,,,,,,,,,,,,,,,,,,,,,,
,,,,,,,,,,,,a,1.182775,Incorrect,0,106,106,46,1,t4.png,t2.png,2,0.059078,20,Male,2020-10-20_18h11.19.861,torte-q,2020.1.3,Win32,60,14000,,,,,,,,,,,,,,,,,,,,,,,,,,,,,,,,,,,,,,,,,,,,
,,,,,,,,,,,,l,1.500235,Incorrect,0,107,107,39,1,t3.png,t2.png,1,0.90855,20,Male,2020-10-20_18h11.19.861,torte-q,2020.1.3,Win32,60,14000,,,,,,,,,,,,,,,,,,,,,,,,,,,,,,,,,,,,,,,,,,,,
,,,,,,,,,,,,a,0.864905,Correct!,0,108,108,116,1,t5.png,t4.png,1,0.90025,20,Male,2020-10-20_18h11.19.861,torte-q,2020.1.3,Win32,60,14000,,,,,,,,,,,,,,,,,,,,,,,,,,,,,,,,,,,,,,,,,,,,
,,,,,,,,,,,,l,1.61593,Correct!,0,109,109,54,1,t1.png,t5.png,4,9.55E-11,20,Male,2020-10-20_18h11.19.861,torte-q,2020.1.3,Win32,60,14000,,,,,,,,,,,,,,,,,,,,,,,,,,,,,,,,,,,,,,,,,,,,
,,,,,,,,,,,,a,1.282115,Incorrect,0,110,110,115,1,t2.png,t4.png,2,0.059078,20,Male,2020-10-20_18h11.19.861,torte-q,2020.1.3,Win32,60,14000,,,,,,,,,,,,,,,,,,,,,,,,,,,,,,,,,,,,,,,,,,,,
,,,,,,,,,,,,a,1.403745,Correct!,0,111,111,42,1,t5.png,t4.png,1,0.90025,20,Male,2020-10-20_18h11.19.861,torte-q,2020.1.3,Win32,60,14000,,,,,,,,,,,,,,,,,,,,,,,,,,,,,,,,,,,,,,,,,,,,
,,,,,,,,,,,,l,1.184195,Correct!,0,112,112,89,1,t1.png,t4.png,3,0.0000131,20,Male,2020-10-20_18h11.19.861,torte-q,2020.1.3,Win32,60,14000,,,,,,,,,,,,,,,,,,,,,,,,,,,,,,,,,,,,,,,,,,,,
,,,,,,,,,,,,l,1.154355,Correct!,0,113,113,80,1,t1.png,t4.png,3,0.0000131,20,Male,2020-10-20_18h11.19.861,torte-q,2020.1.3,Win32,60,14000,,,,,,,,,,,,,,,,,,,,,,,,,,,,,,,,,,,,,,,,,,,,
,,,,,,,,,,,,a,1.32292,Incorrect,0,114,114,111,1,t5.png,t1.png,4,9.55E-11,20,Male,2020-10-20_18h11.19.861,torte-q,2020.1.3,Win32,60,14000,,,,,,,,,,,,,,,,,,,,,,,,,,,,,,,,,,,,,,,,,,,,
,,,,,,,,,,,,l,1.70905,Correct!,0,115,115,56,1,t5.png,t1.png,4,9.55E-11,20,Male,2020-10-20_18h11.19.861,torte-q,2020.1.3,Win32,60,14000,,,,,,,,,,,,,,,,,,,,,,,,,,,,,,,,,,,,,,,,,,,,
,,,,,,,,,,,,l,1.001515,Correct!,0,116,116,43,1,t4.png,t2.png,2,0.059078,20,Male,2020-10-20_18h11.19.861,torte-q,2020.1.3,Win32,60,14000,,,,,,,,,,,,,,,,,,,,,,,,,,,,,,,,,,,,,,,,,,,,
,,,,,,,,,,,,a,1.171385,Incorrect,0,117,117,113,1,t5.png,t4.png,1,0.9,20,Male,2020-10-20_18h11.19.861,torte-q,2020.1.3,Win32,60,14000,,,,,,,,,,,,,,,,,,,,,,,,,,,,,,,,,,,,,,,,,,,,
,,,,,,,,,,,,l,1.141045,Incorrect,0,118,118,9,1,t4.png,t5.png,1,0.9,20,Male,2020-10-20_18h11.19.861,torte-q,2020.1.3,Win32,60,14000,,,,,,,,,,,,,,,,,,,,,,,,,,,,,,,,,,,,,,,,,,,,
,,,,,,,,,,,,l,0.840895,Correct!,0,119,119,61,1,t1.png,t4.png,3,0.0000131,20,Male,2020-10-20_18h11.19.861,torte-q,2020.1.3,Win32,60,14000,,,,,,,,,,,,,,,,,,,,,,,,,,,,,,,,,,,,,,,,,,,,
,,,,,,,,,,,,l,1.13468,Correct!,,,,,,t2.png,t5.png,3,0.0000131,20,Male,2020-10-20_18h11.19.861,torte-q,2020.1.3,Win32,60,14000,m,2.64594,space,3.801505,0,0,0,66,1,,,,,,,,,,,,,,,,,,,,,,,,,,,,,,,,,,,
,,,,,,,,,,,,a,0.947585,Incorrect,,,,,,t5.png,t3.png,2,0.056466,20,Male,2020-10-20_18h11.19.861,torte-q,2020.1.3,Win32,60,14000,,,,,0,1,1,114,1,,,,,,,,,,,,,,,,,,,,,,,,,,,,,,,,,,,
,,,,,,,,,,,,a,1.087205,Correct!,,,,,,t4.png,t3.png,1,0.909,20,Male,2020-10-20_18h11.19.861,torte-q,2020.1.3,Win32,60,14000,,,,,0,2,2,46,1,,,,,,,,,,,,,,,,,,,,,,,,,,,,,,,,,,,
,,,,,,,,,,,,a,0.87376,Correct!,,,,,,t5.png,t4.png,1,0.9,20,Male,2020-10-20_18h11.19.861,torte-q,2020.1.3,Win32,60,14000,,,,,0,3,3,76,1,,,,,,,,,,,,,,,,,,,,,,,,,,,,,,,,,,,
,,,,,,,,,,,,a,1.71524,Correct!,,,,,,t4.png,t3.png,1,0.90855,20,Male,2020-10-20_18h11.19.861,torte-q,2020.1.3,Win32,60,14000,,,,,0,4,4,45,1,,,,,,,,,,,,,,,,,,,,,,,,,,,,,,,,,,,
,,,,,,,,,,,,l,0.932215,Correct!,,,,,,t3.png,t1.png,2,0.056466,20,Male,2020-10-20_18h11.19.861,torte-q,2020.1.3,Win32,60,14000,,,,,0,5,5,29,1,,,,,,,,,,,,,,,,,,,,,,,,,,,,,,,,,,,
,,,,,,,,,,,,l,0.78935,Correct!,,,,,,t5.png,t2.png,3,0.0000131,20,Male,2020-10-20_18h11.19.861,torte-q,2020.1.3,Win32,60,14000,,,,,0,6,6,119,1,,,,,,,,,,,,,,,,,,,,,,,,,,,,,,,,,,,
,,,,,,,,,,,,a,0.825195,Correct!,,,,,,t1.png,t1.png,0,0.97829,20,Male,2020-10-20_18h11.19.861,torte-q,2020.1.3,Win32,60,14000,,,,,0,7,7,9,1,,,,,,,,,,,,,,,,,,,,,,,,,,,,,,,,,,,
,,,,,,,,,,,,a,1.54993,Correct!,,,,,,t3.png,t4.png,1,0.909,20,Male,2020-10-20_18h11.19.861,torte-q,2020.1.3,Win32,60,14000,,,,,0,8,8,106,1,,,,,,,,,,,,,,,,,,,,,,,,,,,,,,,,,,,
,,,,,,,,,,,,a,0.798845,Correct!,,,,,,t4.png,t5.png,1,0.90025,20,Male,2020-10-20_18h11.19.861,torte-q,2020.1.3,Win32,60,14000,,,,,0,9,9,103,1,,,,,,,,,,,,,,,,,,,,,,,,,,,,,,,,,,,
,,,,,,,,,,,,l,1.1332,Correct!,,,,,,t5.png,t2.png,3,0.0000131,20,Male,2020-10-20_18h11.19.861,torte-q,2020.1.3,Win32,60,14000,,,,,0,10,10,116,1,,,,,,,,,,,,,,,,,,,,,,,,,,,,,,,,,,,
,,,,,,,,,,,,l,1.21673,Correct!,,,,,,t4.png,t1.png,3,0.0000131,20,Male,2020-10-20_18h11.19.861,torte-q,2020.1.3,Win32,60,14000,,,,,0,11,11,61,1,,,,,,,,,,,,,,,,,,,,,,,,,,,,,,,,,,,
,,,,,,,,,,,,l,1.97563,Incorrect,,,,,,t5.png,t4.png,1,0.90025,20,Male,2020-10-20_18h11.19.861,torte-q,2020.1.3,Win32,60,14000,,,,,0,12,12,34,1,,,,,,,,,,,,,,,,,,,,,,,,,,,,,,,,,,,
,,,,,,,,,,,,a,1.438835,Incorrect,,,,,,t4.png,t2.png,2,0.059078,20,Male,2020-10-20_18h11.19.861,torte-q,2020.1.3,Win32,60,14000,,,,,0,13,13,110,1,,,,,,,,,,,,,,,,,,,,,,,,,,,,,,,,,,,
,,,,,,,,,,,,l,0.98334,Incorrect,,,,,,t1.png,t2.png,1,0.9,20,Male,2020-10-20_18h11.19.861,torte-q,2020.1.3,Win32,60,14000,,,,,0,14,14,1,1,,,,,,,,,,,,,,,,,,,,,,,,,,,,,,,,,,,
,,,,,,,,,,,,l,1.96811,Incorrect,,,,,,t4.png,t5.png,1,0.9,20,Male,2020-10-20_18h11.19.861,torte-q,2020.1.3,Win32,60,14000,,,,,0,15,15,115,1,,,,,,,,,,,,,,,,,,,,,,,,,,,,,,,,,,,
,,,,,,,,,,,,a,2.057345,Correct!,,,,,,t2.png,t1.png,1,0.90025,20,Male,2020-10-20_18h11.19.861,torte-q,2020.1.3,Win32,60,14000,,,,,0,16,16,62,1,,,,,,,,,,,,,,,,,,,,,,,,,,,,,,,,,,,
,,,,,,,,,,,,l,1.2556,Correct!,,,,,,t1.png,t5.png,4,9.55E-11,20,Male,2020-10-20_18h11.19.861,torte-q,2020.1.3,Win32,60,14000,,,,,0,17,17,85,1,,,,,,,,,,,,,,,,,,,,,,,,,,,,,,,,,,,
,,,,,,,,,,,,a,1.53458,Correct!,,,,,,t5.png,t5.png,0,0.97829,20,Male,2020-10-20_18h11.19.861,torte-q,2020.1.3,Win32,60,14000,,,,,0,18,18,94,1,,,,,,,,,,,,,,,,,,,,,,,,,,,,,,,,,,,
,,,,,,,,,,,,a,1.114995,Correct!,,,,,,t4.png,t4.png,0,0.98115,20,Male,2020-10-20_18h11.19.861,torte-q,2020.1.3,Win32,60,14000,,,,,0,19,19,21,1,,,,,,,,,,,,,,,,,,,,,,,,,,,,,,,,,,,
,,,,,,,,,,,,l,0.854975,Correct!,,,,,,t1.png,t3.png,2,0.056466,20,Male,2020-10-20_18h11.19.861,torte-q,2020.1.3,Win32,60,14000,,,,,0,20,20,99,1,,,,,,,,,,,,,,,,,,,,,,,,,,,,,,,,,,,
,,,,,,,,,,,,l,0.978275,Incorrect,,,,,,t3.png,t2.png,1,0.909,20,Male,2020-10-20_18h11.19.861,torte-q,2020.1.3,Win32,60,14000,,,,,0,21,21,23,1,,,,,,,,,,,,,,,,,,,,,,,,,,,,,,,,,,,
,,,,,,,,,,,,l,1.271265,Incorrect,,,,,,t3.png,t2.png,1,0.90855,20,Male,2020-10-20_18h11.19.861,torte-q,2020.1.3,Win32,60,14000,,,,,0,22,22,97,1,,,,,,,,,,,,,,,,,,,,,,,,,,,,,,,,,,,
,,,,,,,,,,,,l,1.84523,Incorrect,,,,,,t1.png,t2.png,1,0.90025,20,Male,2020-10-20_18h11.19.861,torte-q,2020.1.3,Win32,60,14000,,,,,0,23,23,105,1,,,,,,,,,,,,,,,,,,,,,,,,,,,,,,,,,,,
,,,,,,,,,,,,a,0.810035,Incorrect,,,,,,t3.png,t5.png,2,0.0565,20,Male,2020-10-20_18h11.19.861,torte-q,2020.1.3,Win32,60,14000,,,,,0,24,24,83,1,,,,,,,,,,,,,,,,,,,,,,,,,,,,,,,,,,,
,,,,,,,,,,,,a,0.68205,Correct!,,,,,,t1.png,t1.png,0,0.97829,20,Male,2020-10-20_18h11.19.861,torte-q,2020.1.3,Win32,60,14000,,,,,0,25,25,67,1,,,,,,,,,,,,,,,,,,,,,,,,,,,,,,,,,,,
,,,,,,,,,,,,a,1.12644,Correct!,,,,,,t2.png,t2.png,0,0.981,20,Male,2020-10-20_18h11.19.861,torte-q,2020.1.3,Win32,60,14000,,,,,0,26,26,101,1,,,,,,,,,,,,,,,,,,,,,,,,,,,,,,,,,,,
,,,,,,,,,,,,l,1.384675,Correct!,,,,,,t3.png,t1.png,2,0.056466,20,Male,2020-10-20_18h11.19.861,torte-q,2020.1.3,Win32,60,14000,,,,,0,27,27,32,1,,,,,,,,,,,,,,,,,,,,,,,,,,,,,,,,,,,
,,,,,,,,,,,,a,0.71557,Correct!,,,,,,t4.png,t4.png,0,0.98115,20,Male,2020-10-20_18h11.19.861,torte-q,2020.1.3,Win32,60,14000,,,,,0,28,28,52,1,,,,,,,,,,,,,,,,,,,,,,,,,,,,,,,,,,,
,,,,,,,,,,,,l,1.37077,Incorrect,,,,,,t3.png,t4.png,1,0.90855,20,Male,2020-10-20_18h11.19.861,torte-q,2020.1.3,Win32,60,14000,,,,,0,29,29,84,1,,,,,,,,,,,,,,,,,,,,,,,,,,,,,,,,,,,
,,,,,,,,,,,,l,1.07085,Incorrect,,,,,,t2.png,t1.png,1,0.9,20,Male,2020-10-20_18h11.19.861,torte-q,2020.1.3,Win32,60,14000,,,,,0,30,30,118,1,,,,,,,,,,,,,,,,,,,,,,,,,,,,,,,,,,,
,,,,,,,,,,,,l,1.463115,Correct!,,,,,,t1.png,t3.png,2,0.056466,20,Male,2020-10-20_18h11.19.861,torte-q,2020.1.3,Win32,60,14000,,,,,0,31,31,87,1,,,,,,,,,,,,,,,,,,,,,,,,,,,,,,,,,,,
,,,,,,,,,,,,a,0.088075,Incorrect,,,,,,t5.png,t1.png,4,9.55E-11,20,Male,2020-10-20_18h11.19.861,torte-q,2020.1.3,Win32,60,14000,,,,,0,32,32,102,1,,,,,,,,,,,,,,,,,,,,,,,,,,,,,,,,,,,
,,,,,,,,,,,,l,1.52231,Incorrect,,,,,,t4.png,t2.png,2,0.059078,20,Male,2020-10-20_18h11.19.861,torte-q,2020.1.3,Win32,60,14000,,,,,0,33,33,88,1,,,,,,,,,,,,,,,,,,,,,,,,,,,,,,,,,,,
,,,,,,,,,,,,l,0.95546,Correct!,,,,,,t1.png,t5.png,4,9.55E-11,20,Male,2020-10-20_18h11.19.861,torte-q,2020.1.3,Win32,60,14000,,,,,0,34,34,55,1,,,,,,,,,,,,,,,,,,,,,,,,,,,,,,,,,,,
,,,,,,,,,,,,a,1.21901,Incorrect,,,,,,t5.png,t2.png,3,0.0000131,20,Male,2020-10-20_18h11.19.861,torte-q,2020.1.3,Win32,60,14000,,,,,0,35,35,51,1,,,,,,,,,,,,,,,,,,,,,,,,,,,,,,,,,,,
,,,,,,,,,,,,l,1.735195,Correct!,,,,,,t3.png,t5.png,2,0.056466,20,Male,2020-10-20_18h11.19.861,torte-q,2020.1.3,Win32,60,14000,,,,,0,36,36,44,1,,,,,,,,,,,,,,,,,,,,,,,,,,,,,,,,,,,
,,,,,,,,,,,,a,0.960795,Incorrect,,,,,,t2.png,t4.png,2,0.059078,20,Male,2020-10-20_18h11.19.861,torte-q,2020.1.3,Win32,60,14000,,,,,0,37,37,37,1,,,,,,,,,,,,,,,,,,,,,,,,,,,,,,,,,,,
,,,,,,,,,,,,a,1.258145,Correct!,,,,,,t2.png,t2.png,0,0.98115,20,Male,2020-10-20_18h11.19.861,torte-q,2020.1.3,Win32,60,14000,,,,,0,38,38,57,1,,,,,,,,,,,,,,,,,,,,,,,,,,,,,,,,,,,
,,,,,,,,,,,,l,1.337465,Incorrect,,,,,,t5.png,t4.png,1,0.9,20,Male,2020-10-20_18h11.19.861,torte-q,2020.1.3,Win32,60,14000,,,,,0,39,39,49,1,,,,,,,,,,,,,,,,,,,,,,,,,,,,,,,,,,,
,,,,,,,,,,,,l,1.191985,Incorrect,,,,,,t2.png,t1.png,1,0.90025,20,Male,2020-10-20_18h11.19.861,torte-q,2020.1.3,Win32,60,14000,,,,,0,40,40,4,1,,,,,,,,,,,,,,,,,,,,,,,,,,,,,,,,,,,
,,,,,,,,,,,,l,0.77494,Correct!,,,,,,t5.png,t1.png,4,9.55E-11,20,Male,2020-10-20_18h11.19.861,torte-q,2020.1.3,Win32,60,14000,,,,,0,41,41,22,1,,,,,,,,,,,,,,,,,,,,,,,,,,,,,,,,,,,
,,,,,,,,,,,,l,0.72064,Correct!,,,,,,t2.png,t5.png,3,0.0000131,20,Male,2020-10-20_18h11.19.861,torte-q,2020.1.3,Win32,60,14000,,,,,0,42,42,104,1,,,,,,,,,,,,,,,,,,,,,,,,,,,,,,,,,,,
,,,,,,,,,,,,l,1.1354,Correct!,,,,,,t1.png,t3.png,2,0.056466,20,Male,2020-10-20_18h11.19.861,torte-q,2020.1.3,Win32,60,14000,,,,,0,43,43,69,1,,,,,,,,,,,,,,,,,,,,,,,,,,,,,,,,,,,
,,,,,,,,,,,,l,1.941475,Incorrect,,,,,,t2.png,t3.png,1,0.909,20,Male,2020-10-20_18h11.19.861,torte-q,2020.1.3,Win32,60,14000,,,,,0,44,44,74,1,,,,,,,,,,,,,,,,,,,,,,,,,,,,,,,,,,,
,,,,,,,,,,,,a,0.832035,Correct!,,,,,,t5.png,t5.png,0,0.978,20,Male,2020-10-20_18h11.19.861,torte-q,2020.1.3,Win32,60,14000,,,,,0,45,45,117,1,,,,,,,,,,,,,,,,,,,,,,,,,,,,,,,,,,,
,,,,,,,,,,,,a,0.77265,Incorrect,,,,,,t4.png,t1.png,3,0.0000131,20,Male,2020-10-20_18h11.19.861,torte-q,2020.1.3,Win32,60,14000,,,,,0,46,46,13,1,,,,,,,,,,,,,,,,,,,,,,,,,,,,,,,,,,,
,,,,,,,,,,,,a,1.056865,Correct!,,,,,,t2.png,t2.png,0,0.98115,20,Male,2020-10-20_18h11.19.861,torte-q,2020.1.3,Win32,60,14000,,,,,0,47,47,7,1,,,,,,,,,,,,,,,,,,,,,,,,,,,,,,,,,,,
,,,,,,,,,,,,l,0.87577,Correct!,,,,,,t4.png,t2.png,2,0.0591,20,Male,2020-10-20_18h11.19.861,torte-q,2020.1.3,Win32,60,14000,,,,,0,48,48,36,1,,,,,,,,,,,,,,,,,,,,,,,,,,,,,,,,,,,
,,,,,,,,,,,,l,0.76837,Correct!,,,,,,t3.png,t1.png,2,0.0565,20,Male,2020-10-20_18h11.19.861,torte-q,2020.1.3,Win32,60,14000,,,,,0,49,49,31,1,,,,,,,,,,,,,,,,,,,,,,,,,,,,,,,,,,,
,,,,,,,,,,,,l,0.766075,Correct!,,,,,,t3.png,t1.png,2,0.056466,20,Male,2020-10-20_18h11.19.861,torte-q,2020.1.3,Win32,60,14000,,,,,0,50,50,0,1,,,,,,,,,,,,,,,,,,,,,,,,,,,,,,,,,,,
,,,,,,,,,,,,a,1.132655,Correct!,,,,,,t3.png,t4.png,1,0.90855,20,Male,2020-10-20_18h11.19.861,torte-q,2020.1.3,Win32,60,14000,,,,,0,51,51,96,1,,,,,,,,,,,,,,,,,,,,,,,,,,,,,,,,,,,
,,,,,,,,,,,,l,0.78248,Correct!,,,,,,t1.png,t4.png,3,0.0000131,20,Male,2020-10-20_18h11.19.861,torte-q,2020.1.3,Win32,60,14000,,,,,0,52,52,107,1,,,,,,,,,,,,,,,,,,,,,,,,,,,,,,,,,,,
,,,,,,,,,,,,a,1.03798,Correct!,,,,,,t5.png,t4.png,1,0.90025,20,Male,2020-10-20_18h11.19.861,torte-q,2020.1.3,Win32,60,14000,,,,,0,53,53,27,1,,,,,,,,,,,,,,,,,,,,,,,,,,,,,,,,,,,
,,,,,,,,,,,,a,1.11568,Correct!,,,,,,t4.png,t5.png,1,0.90025,20,Male,2020-10-20_18h11.19.861,torte-q,2020.1.3,Win32,60,14000,,,,,0,54,54,113,1,,,,,,,,,,,,,,,,,,,,,,,,,,,,,,,,,,,
,,,,,,,,,,,,a,1.120455,Correct!,,,,,,t4.png,t4.png,0,0.98115,20,Male,2020-10-20_18h11.19.861,torte-q,2020.1.3,Win32,60,14000,,,,,0,55,55,79,1,,,,,,,,,,,,,,,,,,,,,,,,,,,,,,,,,,,
,,,,,,,,,,,,l,0.87226,Correct!,,,,,,t5.png,t3.png,2,0.056466,20,Male,2020-10-20_18h11.19.861,torte-q,2020.1.3,Win32,60,14000,,,,,0,56,56,38,1,,,,,,,,,,,,,,,,,,,,,,,,,,,,,,,,,,,
,,,,,,,,,,,,l,0.893,Incorrect,,,,,,t2.png,t2.png,0,0.98115,20,Male,2020-10-20_18h11.19.861,torte-q,2020.1.3,Win32,60,14000,,,,,0,57,57,59,1,,,,,,,,,,,,,,,,,,,,,,,,,,,,,,,,,,,
,,,,,,,,,,,,l,0.834715,Correct!,,,,,,t2.png,t4.png,2,0.059078,20,Male,2020-10-20_18h11.19.861,torte-q,2020.1.3,Win32,60,14000,,,,,0,58,58,11,1,,,,,,,,,,,,,,,,,,,,,,,,,,,,,,,,,,,
,,,,,,,,,,,,l,1.054,Incorrect,,,,,,t1.png,t2.png,1,0.90025,20,Male,2020-10-20_18h11.19.861,torte-q,2020.1.3,Win32,60,14000,,,,,0,59,59,112,1,,,,,,,,,,,,,,,,,,,,,,,,,,,,,,,,,,,
,,,,,,,,,,,,l,1.73633,Correct!,,,,,,t1.png,t3.png,2,0.056466,20,Male,2020-10-20_18h11.19.861,torte-q,2020.1.3,Win32,60,14000,,,,,0,60,60,63,1,,,,,,,,,,,,,,,,,,,,,,,,,,,,,,,,,,,
,,,,,,,,,,,,a,1.077145,Incorrect,,,,,,t4.png,t1.png,3,0.0000131,20,Male,2020-10-20_18h11.19.861,torte-q,2020.1.3,Win32,60,14000,,,,,0,61,61,48,1,,,,,,,,,,,,,,,,,,,,,,,,,,,,,,,,,,,
,,,,,,,,,,,,l,1.00178,Correct!,,,,,,t5.png,t1.png,4,9.55E-11,20,Male,2020-10-20_18h11.19.861,torte-q,2020.1.3,Win32,60,14000,,,,,0,62,62,100,1,,,,,,,,,,,,,,,,,,,,,,,,,,,,,,,,,,,
,,,,,,,,,,,,a,1.071625,Correct!,,,,,,t2.png,t2.png,0,0.98115,20,Male,2020-10-20_18h11.19.861,torte-q,2020.1.3,Win32,60,14000,,,,,0,63,63,2,1,,,,,,,,,,,,,,,,,,,,,,,,,,,,,,,,,,,
,,,,,,,,,,,,l,1.354765,Correct!,,,,,,t1.png,t4.png,3,0.0000131,20,Male,2020-10-20_18h11.19.861,torte-q,2020.1.3,Win32,60,14000,,,,,0,64,64,92,1,,,,,,,,,,,,,,,,,,,,,,,,,,,,,,,,,,,
,,,,,,,,,,,,l,1.55143,Correct!,,,,,,t2.png,t5.png,3,0.0000131,20,Male,2020-10-20_18h11.19.861,torte-q,2020.1.3,Win32,60,14000,,,,,0,65,65,8,1,,,,,,,,,,,,,,,,,,,,,,,,,,,,,,,,,,,
,,,,,,,,,,,,l,1.92052,Correct!,,,,,,t1.png,t5.png,4,9.55E-11,20,Male,2020-10-20_18h11.19.861,torte-q,2020.1.3,Win32,60,14000,,,,,0,66,66,12,1,,,,,,,,,,,,,,,,,,,,,,,,,,,,,,,,,,,
,,,,,,,,,,,,a,1.16716,Correct!,,,,,,t1.png,t2.png,1,0.90025,20,Male,2020-10-20_18h11.19.861,torte-q,2020.1.3,Win32,60,14000,,,,,0,67,67,72,1,,,,,,,,,,,,,,,,,,,,,,,,,,,,,,,,,,,
,,,,,,,,,,,,a,2.294355,Correct!,,,,,,t4.png,t3.png,1,0.909,20,Male,2020-10-20_18h11.19.861,torte-q,2020.1.3,Win32,60,14000,,,,,0,68,68,20,1,,,,,,,,,,,,,,,,,,,,,,,,,,,,,,,,,,,
,,,,,,,,,,,,a,1.10412,Correct!,,,,,,t5.png,t5.png,0,0.97829,20,Male,2020-10-20_18h11.19.861,torte-q,2020.1.3,Win32,60,14000,,,,,0,69,69,73,1,,,,,,,,,,,,,,,,,,,,,,,,,,,,,,,,,,,
,,,,,,,,,,,,l,0.988055,Correct!,,,,,,t2.png,t4.png,2,0.059078,20,Male,2020-10-20_18h11.19.861,torte-q,2020.1.3,Win32,60,14000,,,,,0,70,70,24,1,,,,,,,,,,,,,,,,,,,,,,,,,,,,,,,,,,,
,,,,,,,,,,,,a,0.83624,Incorrect,,,,,,t1.png,t3.png,2,0.056466,20,Male,2020-10-20_18h11.19.861,torte-q,2020.1.3,Win32,60,14000,,,,,0,71,71,60,1,,,,,,,,,,,,,,,,,,,,,,,,,,,,,,,,,,,
,,,,,,,,,,,,l,0.990895,Correct!,,,,,,t2.png,t5.png,3,0.0000131,20,Male,2020-10-20_18h11.19.861,torte-q,2020.1.3,Win32,60,14000,,,,,0,72,72,95,1,,,,,,,,,,,,,,,,,,,,,,,,,,,,,,,,,,,
,,,,,,,,,,,,a,0.871315,Incorrect,,,,,,t3.png,t5.png,2,0.056466,20,Male,2020-10-20_18h11.19.861,torte-q,2020.1.3,Win32,60,14000,,,,,0,73,73,6,1,,,,,,,,,,,,,,,,,,,,,,,,,,,,,,,,,,,
,,,,,,,,,,,,l,1.188595,Correct!,,,,,,t4.png,t5.png,1,0.90025,20,Male,2020-10-20_18h11.19.861,torte-q,2020.1.3,Win32,60,14000,,,,,0,74,74,47,1,,,,,,,,,,,,,,,,,,,,,,,,,,,,,,,,,,,
,,,,,,,,,,,,a,0.84045,Correct!,,,,,,t4.png,t4.png,0,0.98115,20,Male,2020-10-20_18h11.19.861,torte-q,2020.1.3,Win32,60,14000,,,,,0,75,75,80,1,,,,,,,,,,,,,,,,,,,,,,,,,,,,,,,,,,,
,,,,,,,,,,,,l,0.82402,Incorrect,,,,,,t3.png,t2.png,1,0.909,20,Male,2020-10-20_18h11.19.861,torte-q,2020.1.3,Win32,60,14000,,,,,0,76,76,3,1,,,,,,,,,,,,,,,,,,,,,,,,,,,,,,,,,,,
,,,,,,,,,,,,l,1.00514,Correct!,,,,,,t5.png,t3.png,2,0.0565,20,Male,2020-10-20_18h11.19.861,torte-q,2020.1.3,Win32,60,14000,,,,,0,77,77,39,1,,,,,,,,,,,,,,,,,,,,,,,,,,,,,,,,,,,
,,,,,,,,,,,,a,0.954515,Correct!,,,,,,t5.png,t5.png,0,0.97829,20,Male,2020-10-20_18h11.19.861,torte-q,2020.1.3,Win32,60,14000,,,,,0,78,78,70,1,,,,,,,,,,,,,,,,,,,,,,,,,,,,,,,,,,,
,,,,,,,,,,,,l,1.032585,Correct!,,,,,,t3.png,t5.png,2,0.0565,20,Male,2020-10-20_18h11.19.861,torte-q,2020.1.3,Win32,60,14000,,,,,0,79,79,30,1,,,,,,,,,,,,,,,,,,,,,,,,,,,,,,,,,,,
,,,,,,,,,,,,a,0.987285,Correct!,,,,,,t2.png,t1.png,1,0.90025,20,Male,2020-10-20_18h11.19.861,torte-q,2020.1.3,Win32,60,14000,,,,,0,80,80,19,1,,,,,,,,,,,,,,,,,,,,,,,,,,,,,,,,,,,
,,,,,,,,,,,,l,0.89626,Correct!,,,,,,t2.png,t5.png,3,0.0000131,20,Male,2020-10-20_18h11.19.861,torte-q,2020.1.3,Win32,60,14000,,,,,0,81,81,40,1,,,,,,,,,,,,,,,,,,,,,,,,,,,,,,,,,,,
,,,,,,,,,,,,l,0.95622,Correct!,,,,,,t3.png,t1.png,2,0.056466,20,Male,2020-10-20_18h11.19.861,torte-q,2020.1.3,Win32,60,14000,,,,,0,82,82,64,1,,,,,,,,,,,,,,,,,,,,,,,,,,,,,,,,,,,
,,,,,,,,,,,,a,1.051545,Correct!,,,,,,t1.png,t1.png,0,0.978,20,Male,2020-10-20_18h11.19.861,torte-q,2020.1.3,Win32,60,14000,,,,,0,83,83,54,1,,,,,,,,,,,,,,,,,,,,,,,,,,,,,,,,,,,
,,,,,,,,,,,,l,1.63838,Incorrect,,,,,,t2.png,t3.png,1,0.90855,20,Male,2020-10-20_18h11.19.861,torte-q,2020.1.3,Win32,60,14000,,,,,0,84,84,65,1,,,,,,,,,,,,,,,,,,,,,,,,,,,,,,,,,,,
,,,,,,,,,,,,a,1.058935,Correct!,,,,,,t3.png,t2.png,1,0.90855,20,Male,2020-10-20_18h11.19.861,torte-q,2020.1.3,Win32,60,14000,,,,,0,85,85,53,1,,,,,,,,,,,,,,,,,,,,,,,,,,,,,,,,,,,
,,,,,,,,,,,,l,1.441615,Correct!,,,,,,t5.png,t1.png,4,9.55E-11,20,Male,2020-10-20_18h11.19.861,torte-q,2020.1.3,Win32,60,14000,,,,,0,86,86,43,1,,,,,,,,,,,,,,,,,,,,,,,,,,,,,,,,,,,
,,,,,,,,,,,,l,1.283875,Correct!,,,,,,t2.png,t4.png,2,0.0591,20,Male,2020-10-20_18h11.19.861,torte-q,2020.1.3,Win32,60,14000,,,,,0,87,87,15,1,,,,,,,,,,,,,,,,,,,,,,,,,,,,,,,,,,,
,,,,,,,,,,,,a,1.115055,Correct!,,,,,,t4.png,t3.png,1,0.90855,20,Male,2020-10-20_18h11.19.861,torte-q,2020.1.3,Win32,60,14000,,,,,0,88,88,35,1,,,,,,,,,,,,,,,,,,,,,,,,,,,,,,,,,,,
,,,,,,,,,,,,a,1.09911,Correct!,,,,,,t4.png,t4.png,0,0.98115,20,Male,2020-10-20_18h11.19.861,torte-q,2020.1.3,Win32,60,14000,,,,,0,89,89,90,1,,,,,,,,,,,,,,,,,,,,,,,,,,,,,,,,,,,
,,,,,,,,,,,,l,0.765465,Correct!,,,,,,t5.png,t2.png,3,0.0000131,20,Male,2020-10-20_18h11.19.861,torte-q,2020.1.3,Win32,60,14000,,,,,0,90,90,91,1,,,,,,,,,,,,,,,,,,,,,,,,,,,,,,,,,,,
,,,,,,,,,,,,a,1.12734,Incorrect,,,,,,t5.png,t2.png,3,0.0000131,20,Male,2020-10-20_18h11.19.861,torte-q,2020.1.3,Win32,60,14000,,,,,0,91,91,98,1,,,,,,,,,,,,,,,,,,,,,,,,,,,,,,,,,,,
,,,,,,,,,,,,a,0.73045,Correct!,,,,,,t1.png,t1.png,0,0.978,20,Male,2020-10-20_18h11.19.861,torte-q,2020.1.3,Win32,60,14000,,,,,0,92,92,28,1,,,,,,,,,,,,,,,,,,,,,,,,,,,,,,,,,,,
,,,,,,,,,,,,l,1.113005,Incorrect,,,,,,t2.png,t3.png,1,0.90855,20,Male,2020-10-20_18h11.19.861,torte-q,2020.1.3,Win32,60,14000,,,,,0,93,93,68,1,,,,,,,,,,,,,,,,,,,,,,,,,,,,,,,,,,,
,,,,,,,,,,,,a,1.49735,Correct!,,,,,,t2.png,t3.png,1,0.90855,20,Male,2020-10-20_18h11.19.861,torte-q,2020.1.3,Win32,60,14000,,,,,0,94,94,111,1,,,,,,,,,,,,,,,,,,,,,,,,,,,,,,,,,,,
,,,,,,,,,,,,a,1.018615,Incorrect,,,,,,t1.png,t4.png,3,0.0000131,20,Male,2020-10-20_18h11.19.861,torte-q,2020.1.3,Win32,60,14000,,,,,0,95,95,50,1,,,,,,,,,,,,,,,,,,,,,,,,,,,,,,,,,,,
,,,,,,,,,,,,a,0.72731,Correct!,,,,,,t4.png,t3.png,1,0.90855,20,Male,2020-10-20_18h11.19.861,torte-q,2020.1.3,Win32,60,14000,,,,,0,96,96,75,1,,,,,,,,,,,,,,,,,,,,,,,,,,,,,,,,,,,
,,,,,,,,,,,,l,1.587,Correct!,,,,,,t1.png,t5.png,4,9.55E-11,20,Male,2020-10-20_18h11.19.861,torte-q,2020.1.3,Win32,60,14000,,,,,0,97,97,16,1,,,,,,,,,,,,,,,,,,,,,,,,,,,,,,,,,,,
,,,,,,,,,,,,l,1.77744,Incorrect,,,,,,t4.png,t5.png,1,0.90025,20,Male,2020-10-20_18h11.19.861,torte-q,2020.1.3,Win32,60,14000,,,,,0,98,98,58,1,,,,,,,,,,,,,,,,,,,,,,,,,,,,,,,,,,,
,,,,,,,,,,,,l,1.828625,Correct!,,,,,,t5.png,t3.png,2,0.056466,20,Male,2020-10-20_18h11.19.861,torte-q,2020.1.3,Win32,60,14000,,,,,0,99,99,108,1,,,,,,,,,,,,,,,,,,,,,,,,,,,,,,,,,,,
,,,,,,,,,,,,a,1.65411,Correct!,,,,,,t5.png,t5.png,0,0.97829,20,Male,2020-10-20_18h11.19.861,torte-q,2020.1.3,Win32,60,14000,,,,,0,100,100,25,1,,,,,,,,,,,,,,,,,,,,,,,,,,,,,,,,,,,
,,,,,,,,,,,,l,1.407875,Correct!,,,,,,t2.png,t4.png,2,0.059078,20,Male,2020-10-20_18h11.19.861,torte-q,2020.1.3,Win32,60,14000,,,,,0,101,101,77,1,,,,,,,,,,,,,,,,,,,,,,,,,,,,,,,,,,,
,,,,,,,,,,,,l,1.167925,Correct!,,,,,,t1.png,t5.png,4,9.55E-11,20,Male,2020-10-20_18h11.19.861,torte-q,2020.1.3,Win32,60,14000,,,,,0,102,102,41,1,,,,,,,,,,,,,,,,,,,,,,,,,,,,,,,,,,,
,,,,,,,,,,,,a,1.62936,Correct!,,,,,,t1.png,t2.png,1,0.90025,20,Male,2020-10-20_18h11.19.861,torte-q,2020.1.3,Win32,60,14000,,,,,0,103,103,33,1,,,,,,,,,,,,,,,,,,,,,,,,,,,,,,,,,,,
,,,,,,,,,,,,a,1.779885,Incorrect,,,,,,t3.png,t5.png,2,0.056466,20,Male,2020-10-20_18h11.19.861,torte-q,2020.1.3,Win32,60,14000,,,,,0,104,104,14,1,,,,,,,,,,,,,,,,,,,,,,,,,,,,,,,,,,,
,,,,,,,,,,,,a,0.703865,Correct!,,,,,,t1.png,t1.png,0,0.97829,20,Male,2020-10-20_18h11.19.861,torte-q,2020.1.3,Win32,60,14000,,,,,0,105,105,78,1,,,,,,,,,,,,,,,,,,,,,,,,,,,,,,,,,,,
,,,,,,,,,,,,l,1.46495,Incorrect,,,,,,t3.png,t2.png,1,0.90855,20,Male,2020-10-20_18h11.19.861,torte-q,2020.1.3,Win32,60,14000,,,,,0,106,106,18,1,,,,,,,,,,,,,,,,,,,,,,,,,,,,,,,,,,,
,,,,,,,,,,,,a,0.738095,Correct!,,,,,,t3.png,t4.png,1,0.909,20,Male,2020-10-20_18h11.19.861,torte-q,2020.1.3,Win32,60,14000,,,,,0,107,107,82,1,,,,,,,,,,,,,,,,,,,,,,,,,,,,,,,,,,,
,,,,,,,,,,,,a,1.013405,Incorrect,,,,,,t1.png,t4.png,3,0.0000131,20,Male,2020-10-20_18h11.19.861,torte-q,2020.1.3,Win32,60,14000,,,,,0,108,108,17,1,,,,,,,,,,,,,,,,,,,,,,,,,,,,,,,,,,,
,,,,,,,,,,,,l,1.35448,Correct!,,,,,,t4.png,t1.png,3,0.0000131,20,Male,2020-10-20_18h11.19.861,torte-q,2020.1.3,Win32,60,14000,,,,,0,109,109,93,1,,,,,,,,,,,,,,,,,,,,,,,,,,,,,,,,,,,
,,,,,,,,,,,,l,0.62985,Incorrect,,,,,,t2.png,t1.png,1,0.90025,20,Male,2020-10-20_18h11.19.861,torte-q,2020.1.3,Win32,60,14000,,,,,0,110,110,5,1,,,,,,,,,,,,,,,,,,,,,,,,,,,,,,,,,,,
,,,,,,,,,,,,a,0.68835,Correct!,,,,,,t5.png,t4.png,1,0.90025,20,Male,2020-10-20_18h11.19.861,torte-q,2020.1.3,Win32,60,14000,,,,,0,111,111,26,1,,,,,,,,,,,,,,,,,,,,,,,,,,,,,,,,,,,
,,,,,,,,,,,,l,0.91304,Correct!,,,,,,t5.png,t1.png,4,9.55E-11,20,Male,2020-10-20_18h11.19.861,torte-q,2020.1.3,Win32,60,14000,,,,,0,112,112,71,1,,,,,,,,,,,,,,,,,,,,,,,,,,,,,,,,,,,
,,,,,,,,,,,,l,0.720235,Correct!,,,,,,t4.png,t2.png,2,0.059078,20,Male,2020-10-20_18h11.19.861,torte-q,2020.1.3,Win32,60,14000,,,,,0,113,113,109,1,,,,,,,,,,,,,,,,,,,,,,,,,,,,,,,,,,,
,,,,,,,,,,,,a,1.3714,Incorrect,,,,,,t5.png,t3.png,2,0.056466,20,Male,2020-10-20_18h11.19.861,torte-q,2020.1.3,Win32,60,14000,,,,,0,114,114,56,1,,,,,,,,,,,,,,,,,,,,,,,,,,,,,,,,,,,
,,,,,,,,,,,,l,0.98757,Incorrect,,,,,,t2.png,t3.png,1,0.90855,20,Male,2020-10-20_18h11.19.861,torte-q,2020.1.3,Win32,60,14000,,,,,0,115,115,10,1,,,,,,,,,,,,,,,,,,,,,,,,,,,,,,,,,,,
,,,,,,,,,,,,a,1.089515,Correct!,,,,,,t3.png,t4.png,1,0.909,20,Male,2020-10-20_18h11.19.861,torte-q,2020.1.3,Win32,60,14000,,,,,0,116,116,89,1,,,,,,,,,,,,,,,,,,,,,,,,,,,,,,,,,,,
,,,,,,,,,,,,a,0.87245,Incorrect,,,,,,t4.png,t2.png,2,0.059078,20,Male,2020-10-20_18h11.19.861,torte-q,2020.1.3,Win32,60,14000,,,,,0,117,117,86,1,,,,,,,,,,,,,,,,,,,,,,,,,,,,,,,,,,,
,,,,,,,,,,,,a,0.61677,Incorrect,,,,,,t4.png,t1.png,3,0.0000131,20,Male,2020-10-20_18h11.19.861,torte-q,2020.1.3,Win32,60,14000,,,,,0,118,118,42,1,,,,,,,,,,,,,,,,,,,,,,,,,,,,,,,,,,,
,,,,,,,,,,,,l,0.229645,Correct!,,,,,,t1.png,t4.png,3,0.0000131,20,Male,2020-10-20_18h11.19.861,torte-q,2020.1.3,Win32,60,14000,,,,,0,119,119,81,1,,,,,,,,,,,,,,,,,,,,,,,,,,,,,,,,,,,
,,,,,,,,,,,,l,1.41173,Incorrect,,,,,,t3.png,t2.png,1,0.90855,20,Male,2020-10-20_18h11.19.861,torte-q,2020.1.3,Win32,60,14000,space,8.85931,,,,,,,,space,43.97158,space,3.29948,0,0,0,53,1,,,,,,,,,,,,,,,,,,,,,,,,,,
,,,,,,,,,,,,a,1.286095,Correct!,,,,,,t5.png,t4.png,1,0.9,20,Male,2020-10-20_18h11.19.861,torte-q,2020.1.3,Win32,60,14000,,,,,,,,,,,,,,0,1,1,76,1,,,,,,,,,,,,,,,,,,,,,,,,,,
,,,,,,,,,,,,l,1.249785,Incorrect,,,,,,t5.png,t4.png,1,0.9,20,Male,2020-10-20_18h11.19.861,torte-q,2020.1.3,Win32,60,14000,,,,,,,,,,,,,,0,2,2,49,1,,,,,,,,,,,,,,,,,,,,,,,,,,
,,,,,,,,,,,,a,2.03635,Incorrect,,,,,,t5.png,t1.png,4,9.55E-11,20,Male,2020-10-20_18h11.19.861,torte-q,2020.1.3,Win32,60,14000,,,,,,,,,,,,,,0,3,3,22,1,,,,,,,,,,,,,,,,,,,,,,,,,,
,,,,,,,,,,,,l,1.22279,Correct!,,,,,,t5.png,t2.png,3,0.0000131,20,Male,2020-10-20_18h11.19.861,torte-q,2020.1.3,Win32,60,14000,,,,,,,,,,,,,,0,4,4,119,1,,,,,,,,,,,,,,,,,,,,,,,,,,
,,,,,,,,,,,,a,2.051715,Incorrect,,,,,,t4.png,t2.png,2,0.059078,20,Male,2020-10-20_18h11.19.861,torte-q,2020.1.3,Win32,60,14000,,,,,,,,,,,,,,0,5,5,110,1,,,,,,,,,,,,,,,,,,,,,,,,,,
,,,,,,,,,,,,a,0.071485,Correct!,,,,,,t4.png,t3.png,1,0.90855,20,Male,2020-10-20_18h11.19.861,torte-q,2020.1.3,Win32,60,14000,,,,,,,,,,,,,,0,6,6,35,1,,,,,,,,,,,,,,,,,,,,,,,,,,
,,,,,,,,,,,,a,1.568575,Correct!,,,,,,t3.png,t4.png,1,0.909,20,Male,2020-10-20_18h11.19.861,torte-q,2020.1.3,Win32,60,14000,,,,,,,,,,,,,,0,7,7,82,1,,,,,,,,,,,,,,,,,,,,,,,,,,
,,,,,,,,,,,,l,1.781495,Correct!,,,,,,t2.png,t5.png,3,0.0000131,20,Male,2020-10-20_18h11.19.861,torte-q,2020.1.3,Win32,60,14000,,,,,,,,,,,,,,0,8,8,8,1,,,,,,,,,,,,,,,,,,,,,,,,,,
,,,,,,,,,,,,l,2.01485,Correct!,,,,,,t3.png,t1.png,2,0.056466,20,Male,2020-10-20_18h11.19.861,torte-q,2020.1.3,Win32,60,14000,,,,,,,,,,,,,,0,9,9,0,1,,,,,,,,,,,,,,,,,,,,,,,,,,
,,,,,,,,,,,,a,1.77842,Correct!,,,,,,t3.png,t4.png,1,0.909,20,Male,2020-10-20_18h11.19.861,torte-q,2020.1.3,Win32,60,14000,,,,,,,,,,,,,,0,10,10,89,1,,,,,,,,,,,,,,,,,,,,,,,,,,
,,,,,,,,,,,,l,0.90445,Incorrect,,,,,,t2.png,t3.png,1,0.90855,20,Male,2020-10-20_18h11.19.861,torte-q,2020.1.3,Win32,60,14000,,,,,,,,,,,,,,0,11,11,111,1,,,,,,,,,,,,,,,,,,,,,,,,,,
,,,,,,,,,,,,a,1.31676,Correct!,,,,,,t5.png,t5.png,0,0.97829,20,Male,2020-10-20_18h11.19.861,torte-q,2020.1.3,Win32,60,14000,,,,,,,,,,,,,,0,12,12,73,1,,,,,,,,,,,,,,,,,,,,,,,,,,
,,,,,,,,,,,,l,1.64985,Correct!,,,,,,t1.png,t3.png,2,0.056466,20,Male,2020-10-20_18h11.19.861,torte-q,2020.1.3,Win32,60,14000,,,,,,,,,,,,,,0,13,13,99,1,,,,,,,,,,,,,,,,,,,,,,,,,,
,,,,,,,,,,,,l,1.814795,Incorrect,,,,,,t3.png,t4.png,1,0.90855,20,Male,2020-10-20_18h11.19.861,torte-q,2020.1.3,Win32,60,14000,,,,,,,,,,,,,,0,14,14,84,1,,,,,,,,,,,,,,,,,,,,,,,,,,
,,,,,,,,,,,,a,1.88208,Correct!,,,,,,t1.png,t2.png,1,0.90025,20,Male,2020-10-20_18h11.19.861,torte-q,2020.1.3,Win32,60,14000,,,,,,,,,,,,,,0,15,15,112,1,,,,,,,,,,,,,,,,,,,,,,,,,,
,,,,,,,,,,,,a,1.75416,Correct!,,,,,,t3.png,t4.png,1,0.909,20,Male,2020-10-20_18h11.19.861,torte-q,2020.1.3,Win32,60,14000,,,,,,,,,,,,,,0,16,16,106,1,,,,,,,,,,,,,,,,,,,,,,,,,,
,,,,,,,,,,,,a,1.21637,Correct!,,,,,,t2.png,t2.png,0,0.98115,20,Male,2020-10-20_18h11.19.861,torte-q,2020.1.3,Win32,60,14000,,,,,,,,,,,,,,0,17,17,2,1,,,,,,,,,,,,,,,,,,,,,,,,,,
,,,,,,,,,,,,l,1.40841,Incorrect,,,,,,t1.png,t2.png,1,0.90025,20,Male,2020-10-20_18h11.19.861,torte-q,2020.1.3,Win32,60,14000,,,,,,,,,,,,,,0,18,18,105,1,,,,,,,,,,,,,,,,,,,,,,,,,,
,,,,,,,,,,,,a,2.07197,Correct!,,,,,,t2.png,t4.png,2,0.059078,20,Male,2020-10-20_18h11.19.861,torte-q,2020.1.3,Win32,60,14000,,,,,,,,,,,,,,0,19,19,11,1,,,,,,,,,,,,,,,,,,,,,,,,,,
,,,,,,,,,,,,l,1.90945,Correct!,,,,,,t3.png,t5.png,2,0.056466,20,Male,2020-10-20_18h11.19.861,torte-q,2020.1.3,Win32,60,14000,,,,,,,,,,,,,,0,20,20,14,1,,,,,,,,,,,,,,,,,,,,,,,,,,
,,,,,,,,,,,,a,1.68521,Incorrect,,,,,,t4.png,t1.png,3,0.0000131,20,Male,2020-10-20_18h11.19.861,torte-q,2020.1.3,Win32,60,14000,,,,,,,,,,,,,,0,21,21,13,1,,,,,,,,,,,,,,,,,,,,,,,,,,
,,,,,,,,,,,,l,1.785985,Correct!,,,,,,t1.png,t4.png,3,0.0000131,20,Male,2020-10-20_18h11.19.861,torte-q,2020.1.3,Win32,60,14000,,,,,,,,,,,,,,0,22,22,92,1,,,,,,,,,,,,,,,,,,,,,,,,,,
,,,,,,,,,,,,a,2.40194,Correct!,,,,,,t2.png,t1.png,1,0.90025,20,Male,2020-10-20_18h11.19.861,torte-q,2020.1.3,Win32,60,14000,,,,,,,,,,,,,,0,23,23,19,1,,,,,,,,,,,,,,,,,,,,,,,,,,
,,,,,,,,,,,,l,1.43558,Incorrect,,,,,,t2.png,t1.png,1,0.90025,20,Male,2020-10-20_18h11.19.861,torte-q,2020.1.3,Win32,60,14000,,,,,,,,,,,,,,0,24,24,62,1,,,,,,,,,,,,,,,,,,,,,,,,,,
,,,,,,,,,,,,l,1.52555,Incorrect,,,,,,t3.png,t2.png,1,0.90855,20,Male,2020-10-20_18h11.19.861,torte-q,2020.1.3,Win32,60,14000,,,,,,,,,,,,,,0,25,25,18,1,,,,,,,,,,,,,,,,,,,,,,,,,,
,,,,,,,,,,,,a,0.97157,Correct!,,,,,,t5.png,t5.png,0,0.97829,20,Male,2020-10-20_18h11.19.861,torte-q,2020.1.3,Win32,60,14000,,,,,,,,,,,,,,0,26,26,94,1,,,,,,,,,,,,,,,,,,,,,,,,,,
,,,,,,,,,,,,l,1.34967,Correct!,,,,,,t5.png,t1.png,4,9.55E-11,20,Male,2020-10-20_18h11.19.861,torte-q,2020.1.3,Win32,60,14000,,,,,,,,,,,,,,0,27,27,102,1,,,,,,,,,,,,,,,,,,,,,,,,,,
,,,,,,,,,,,,a,1.568505,Correct!,,,,,,t4.png,t4.png,0,0.98115,20,Male,2020-10-20_18h11.19.861,torte-q,2020.1.3,Win32,60,14000,,,,,,,,,,,,,,0,28,28,79,1,,,,,,,,,,,,,,,,,,,,,,,,,,
,,,,,,,,,,,,l,1.000175,Incorrect,,,,,,t2.png,t3.png,1,0.90855,20,Male,2020-10-20_18h11.19.861,torte-q,2020.1.3,Win32,60,14000,,,,,,,,,,,,,,0,29,29,68,1,,,,,,,,,,,,,,,,,,,,,,,,,,
,,,,,,,,,,,,a,1.23342,Correct!,,,,,,t1.png,t1.png,0,0.978,20,Male,2020-10-20_18h11.19.861,torte-q,2020.1.3,Win32,60,14000,,,,,,,,,,,,,,0,30,30,54,1,,,,,,,,,,,,,,,,,,,,,,,,,,
,,,,,,,,,,,,l,1.671965,Correct!,,,,,,t2.png,t4.png,2,0.059078,20,Male,2020-10-20_18h11.19.861,torte-q,2020.1.3,Win32,60,14000,,,,,,,,,,,,,,0,31,31,24,1,,,,,,,,,,,,,,,,,,,,,,,,,,
,,,,,,,,,,,,a,2.30501,Correct!,,,,,,t4.png,t3.png,1,0.90855,20,Male,2020-10-20_18h11.19.861,torte-q,2020.1.3,Win32,60,14000,,,,,,,,,,,,,,0,32,32,75,1,,,,,,,,,,,,,,,,,,,,,,,,,,
,,,,,,,,,,,,,,Too slow :(,,,,,,t4.png,t1.png,3,0.0000131,20,Male,2020-10-20_18h11.19.861,torte-q,2020.1.3,Win32,60,14000,,,,,,,,,,,,,,0,33,33,42,1,,,,,,,,,,,,,,,,,,,,,,,,,,
,,,,,,,,,,,,a,1.28232,Correct!,,,,,,t4.png,t4.png,0,0.98115,20,Male,2020-10-20_18h11.19.861,torte-q,2020.1.3,Win32,60,14000,,,,,,,,,,,,,,0,34,34,90,1,,,,,,,,,,,,,,,,,,,,,,,,,,
,,,,,,,,,,,,l,0.717315,Correct!,,,,,,t2.png,t5.png,3,0.0000131,20,Male,2020-10-20_18h11.19.861,torte-q,2020.1.3,Win32,60,14000,,,,,,,,,,,,,,0,35,35,66,1,,,,,,,,,,,,,,,,,,,,,,,,,,
,,,,,,,,,,,,a,2.397755,Correct!,,,,,,t2.png,t1.png,1,0.9,20,Male,2020-10-20_18h11.19.861,torte-q,2020.1.3,Win32,60,14000,,,,,,,,,,,,,,0,36,36,118,1,,,,,,,,,,,,,,,,,,,,,,,,,,
,,,,,,,,,,,,l,0.67387,Correct!,,,,,,t1.png,t4.png,3,0.0000131,20,Male,2020-10-20_18h11.19.861,torte-q,2020.1.3,Win32,60,14000,,,,,,,,,,,,,,0,37,37,107,1,,,,,,,,,,,,,,,,,,,,,,,,,,
,,,,,,,,,,,,l,0.890035,Correct!,,,,,,t1.png,t3.png,2,0.056466,20,Male,2020-10-20_18h11.19.861,torte-q,2020.1.3,Win32,60,14000,,,,,,,,,,,,,,0,38,38,69,1,,,,,,,,,,,,,,,,,,,,,,,,,,
,,,,,,,,,,,,a,1.042225,Incorrect,,,,,,t5.png,t1.png,4,9.55E-11,20,Male,2020-10-20_18h11.19.861,torte-q,2020.1.3,Win32,60,14000,,,,,,,,,,,,,,0,39,39,71,1,,,,,,,,,,,,,,,,,,,,,,,,,,
,,,,,,,,,,,,l,1.253345,Incorrect,,,,,,t2.png,t3.png,1,0.909,20,Male,2020-10-20_18h11.19.861,torte-q,2020.1.3,Win32,60,14000,,,,,,,,,,,,,,0,40,40,74,1,,,,,,,,,,,,,,,,,,,,,,,,,,
,,,,,,,,,,,,a,0.789755,Correct!,,,,,,t4.png,t3.png,1,0.909,20,Male,2020-10-20_18h11.19.861,torte-q,2020.1.3,Win32,60,14000,,,,,,,,,,,,,,0,41,41,46,1,,,,,,,,,,,,,,,,,,,,,,,,,,
,,,,,,,,,,,,l,0.818785,Correct!,,,,,,t4.png,t1.png,3,0.0000131,20,Male,2020-10-20_18h11.19.861,torte-q,2020.1.3,Win32,60,14000,,,,,,,,,,,,,,0,42,42,48,1,,,,,,,,,,,,,,,,,,,,,,,,,,
,,,,,,,,,,,,l,0.5488,Incorrect,,,,,,t2.png,t3.png,1,0.90855,20,Male,2020-10-20_18h11.19.861,torte-q,2020.1.3,Win32,60,14000,,,,,,,,,,,,,,0,43,43,10,1,,,,,,,,,,,,,,,,,,,,,,,,,,
,,,,,,,,,,,,a,0.990555,Incorrect,,,,,,t3.png,t5.png,2,0.0565,20,Male,2020-10-20_18h11.19.861,torte-q,2020.1.3,Win32,60,14000,,,,,,,,,,,,,,0,44,44,30,1,,,,,,,,,,,,,,,,,,,,,,,,,,
,,,,,,,,,,,,l,0.33188,Correct!,,,,,,t3.png,t5.png,2,0.056466,20,Male,2020-10-20_18h11.19.861,torte-q,2020.1.3,Win32,60,14000,,,,,,,,,,,,,,0,45,45,6,1,,,,,,,,,,,,,,,,,,,,,,,,,,
,,,,,,,,,,,,l,1.37523,Correct!,,,,,,t2.png,t5.png,3,0.0000131,20,Male,2020-10-20_18h11.19.861,torte-q,2020.1.3,Win32,60,14000,,,,,,,,,,,,,,0,46,46,104,1,,,,,,,,,,,,,,,,,,,,,,,,,,
,,,,,,,,,,,,l,2.081335,Correct!,,,,,,t1.png,t4.png,3,0.0000131,20,Male,2020-10-20_18h11.19.861,torte-q,2020.1.3,Win32,60,14000,,,,,,,,,,,,,,0,47,47,50,1,,,,,,,,,,,,,,,,,,,,,,,,,,
,,,,,,,,,,,,a,1.492635,Correct!,,,,,,t5.png,t3.png,2,0.056466,20,Male,2020-10-20_18h11.19.861,torte-q,2020.1.3,Win32,60,14000,,,,,,,,,,,,,,0,48,48,108,1,,,,,,,,,,,,,,,,,,,,,,,,,,
,,,,,,,,,,,,l,1.457755,Incorrect,,,,,,t2.png,t3.png,1,0.90855,20,Male,2020-10-20_18h11.19.861,torte-q,2020.1.3,Win32,60,14000,,,,,,,,,,,,,,0,49,49,65,1,,,,,,,,,,,,,,,,,,,,,,,,,,
,,,,,,,,,,,,l,1.670495,Incorrect,,,,,,t4.png,t5.png,1,0.90025,20,Male,2020-10-20_18h11.19.861,torte-q,2020.1.3,Win32,60,14000,,,,,,,,,,,,,,0,50,50,58,1,,,,,,,,,,,,,,,,,,,,,,,,,,
,,,,,,,,,,,,a,0.460825,Correct!,,,,,,t1.png,t1.png,0,0.978,20,Male,2020-10-20_18h11.19.861,torte-q,2020.1.3,Win32,60,14000,,,,,,,,,,,,,,0,51,51,28,1,,,,,,,,,,,,,,,,,,,,,,,,,,
,,,,,,,,,,,,a,1.808605,Incorrect,,,,,,t5.png,t3.png,2,0.056466,20,Male,2020-10-20_18h11.19.861,torte-q,2020.1.3,Win32,60,14000,,,,,,,,,,,,,,0,52,52,38,1,,,,,,,,,,,,,,,,,,,,,,,,,,
,,,,,,,,,,,,a,2.40137,Incorrect,,,,,,t2.png,t1.png,1,0.90025,20,Male,2020-10-20_18h11.19.861,torte-q,2020.1.3,Win32,60,14000,,,,,,,,,,,,,,0,53,53,4,1,,,,,,,,,,,,,,,,,,,,,,,,,,
,,,,,,,,,,,,a,1.075715,Incorrect,,,,,,t5.png,t3.png,2,0.056466,20,Male,2020-10-20_18h11.19.861,torte-q,2020.1.3,Win32,60,14000,,,,,,,,,,,,,,0,54,54,114,1,,,,,,,,,,,,,,,,,,,,,,,,,,
,,,,,,,,,,,,l,1.082085,Correct!,,,,,,t2.png,t5.png,3,0.0000131,20,Male,2020-10-20_18h11.19.861,torte-q,2020.1.3,Win32,60,14000,,,,,,,,,,,,,,0,55,55,95,1,,,,,,,,,,,,,,,,,,,,,,,,,,
,,,,,,,,,,,,l,0.851965,Correct!,,,,,,t3.png,t5.png,2,0.0565,20,Male,2020-10-20_18h11.19.861,torte-q,2020.1.3,Win32,60,14000,,,,,,,,,,,,,,0,56,56,83,1,,,,,,,,,,,,,,,,,,,,,,,,,,
,,,,,,,,,,,,a,1.48208,Incorrect,,,,,,t1.png,t5.png,4,9.55E-11,20,Male,2020-10-20_18h11.19.861,torte-q,2020.1.3,Win32,60,14000,,,,,,,,,,,,,,0,57,57,12,1,,,,,,,,,,,,,,,,,,,,,,,,,,
,,,,,,,,,,,,l,1.295,Incorrect,,,,,,t4.png,t5.png,1,0.90025,20,Male,2020-10-20_18h11.19.861,torte-q,2020.1.3,Win32,60,14000,,,,,,,,,,,,,,0,58,58,113,1,,,,,,,,,,,,,,,,,,,,,,,,,,
,,,,,,,,,,,,a,1.801475,Incorrect,,,,,,t2.png,t4.png,2,0.059078,20,Male,2020-10-20_18h11.19.861,torte-q,2020.1.3,Win32,60,14000,,,,,,,,,,,,,,0,59,59,77,1,,,,,,,,,,,,,,,,,,,,,,,,,,
,,,,,,,,,,,,a,0.737765,Correct!,,,,,,t1.png,t1.png,0,0.97829,20,Male,2020-10-20_18h11.19.861,torte-q,2020.1.3,Win32,60,14000,,,,,,,,,,,,,,0,60,60,9,1,,,,,,,,,,,,,,,,,,,,,,,,,,
,,,,,,,,,,,,l,2.05149,Correct!,,,,,,t1.png,t4.png,3,0.0000131,20,Male,2020-10-20_18h11.19.861,torte-q,2020.1.3,Win32,60,14000,,,,,,,,,,,,,,0,61,61,81,1,,,,,,,,,,,,,,,,,,,,,,,,,,
,,,,,,,,,,,,l,1.90631,Correct!,,,,,,t4.png,t1.png,3,0.0000131,20,Male,2020-10-20_18h11.19.861,torte-q,2020.1.3,Win32,60,14000,,,,,,,,,,,,,,0,62,62,61,1,,,,,,,,,,,,,,,,,,,,,,,,,,
,,,,,,,,,,,,a,0.97137,Incorrect,,,,,,t3.png,t1.png,2,0.056466,20,Male,2020-10-20_18h11.19.861,torte-q,2020.1.3,Win32,60,14000,,,,,,,,,,,,,,0,63,63,29,1,,,,,,,,,,,,,,,,,,,,,,,,,,
,,,,,,,,,,,,a,1.018025,Incorrect,,,,,,t5.png,t3.png,2,0.0565,20,Male,2020-10-20_18h11.19.861,torte-q,2020.1.3,Win32,60,14000,,,,,,,,,,,,,,0,64,64,39,1,,,,,,,,,,,,,,,,,,,,,,,,,,
,,,,,,,,,,,,l,1.72313,Incorrect,,,,,,t5.png,t5.png,0,0.978,20,Male,2020-10-20_18h11.19.861,torte-q,2020.1.3,Win32,60,14000,,,,,,,,,,,,,,0,65,65,117,1,,,,,,,,,,,,,,,,,,,,,,,,,,
,,,,,,,,,,,,a,2.25825,Incorrect,,,,,,t2.png,t4.png,2,0.059078,20,Male,2020-10-20_18h11.19.861,torte-q,2020.1.3,Win32,60,14000,,,,,,,,,,,,,,0,66,66,37,1,,,,,,,,,,,,,,,,,,,,,,,,,,
,,,,,,,,,,,,l,2.082195,Incorrect,,,,,,t4.png,t2.png,2,0.059078,20,Male,2020-10-20_18h11.19.861,torte-q,2020.1.3,Win32,60,14000,,,,,,,,,,,,,,0,67,67,88,1,,,,,,,,,,,,,,,,,,,,,,,,,,
,,,,,,,,,,,,a,1.43748,Correct!,,,,,,t1.png,t2.png,1,0.9,20,Male,2020-10-20_18h11.19.861,torte-q,2020.1.3,Win32,60,14000,,,,,,,,,,,,,,0,68,68,1,1,,,,,,,,,,,,,,,,,,,,,,,,,,
,,,,,,,,,,,,l,1.43152,Incorrect,,,,,,t5.png,t4.png,1,0.90025,20,Male,2020-10-20_18h11.19.861,torte-q,2020.1.3,Win32,60,14000,,,,,,,,,,,,,,0,69,69,26,1,,,,,,,,,,,,,,,,,,,,,,,,,,
,,,,,,,,,,,,a,1.53234,Correct!,,,,,,t3.png,t2.png,1,0.90855,20,Male,2020-10-20_18h11.19.861,torte-q,2020.1.3,Win32,60,14000,,,,,,,,,,,,,,0,70,70,97,1,,,,,,,,,,,,,,,,,,,,,,,,,,
,,,,,,,,,,,,l,0.97318,Correct!,,,,,,t1.png,t4.png,3,0.0000131,20,Male,2020-10-20_18h11.19.861,torte-q,2020.1.3,Win32,60,14000,,,,,,,,,,,,,,0,71,71,17,1,,,,,,,,,,,,,,,,,,,,,,,,,,
,,,,,,,,,,,,a,2.20089,Correct!,,,,,,t5.png,t4.png,1,0.90025,20,Male,2020-10-20_18h11.19.861,torte-q,2020.1.3,Win32,60,14000,,,,,,,,,,,,,,0,72,72,34,1,,,,,,,,,,,,,,,,,,,,,,,,,,
,,,,,,,,,,,,,,Too slow :(,,,,,,t4.png,t2.png,2,0.059078,20,Male,2020-10-20_18h11.19.861,torte-q,2020.1.3,Win32,60,14000,,,,,,,,,,,,,,0,73,73,86,1,,,,,,,,,,,,,,,,,,,,,,,,,,
,,,,,,,,,,,,l,1.668855,Incorrect,,,,,,t5.png,t5.png,0,0.97829,20,Male,2020-10-20_18h11.19.861,torte-q,2020.1.3,Win32,60,14000,,,,,,,,,,,,,,0,74,74,25,1,,,,,,,,,,,,,,,,,,,,,,,,,,
,,,,,,,,,,,,a,2.05812,Incorrect,,,,,,t4.png,t2.png,2,0.059078,20,Male,2020-10-20_18h11.19.861,torte-q,2020.1.3,Win32,60,14000,,,,,,,,,,,,,,0,75,75,109,1,,,,,,,,,,,,,,,,,,,,,,,,,,
,,,,,,,,,,,,a,1.5386,Incorrect,,,,,,t5.png,t3.png,2,0.056466,20,Male,2020-10-20_18h11.19.861,torte-q,2020.1.3,Win32,60,14000,,,,,,,,,,,,,,0,76,76,56,1,,,,,,,,,,,,,,,,,,,,,,,,,,
,,,,,,,,,,,,a,0.872285,Correct!,,,,,,t1.png,t1.png,0,0.97829,20,Male,2020-10-20_18h11.19.861,torte-q,2020.1.3,Win32,60,14000,,,,,,,,,,,,,,0,77,77,78,1,,,,,,,,,,,,,,,,,,,,,,,,,,
,,,,,,,,,,,,,,Too slow :(,,,,,,t5.png,t2.png,3,0.0000131,20,Male,2020-10-20_18h11.19.861,torte-q,2020.1.3,Win32,60,14000,,,,,,,,,,,,,,0,78,78,91,1,,,,,,,,,,,,,,,,,,,,,,,,,,
,,,,,,,,,,,,a,1.651345,Incorrect,,,,,,t1.png,t5.png,4,9.55E-11,20,Male,2020-10-20_18h11.19.861,torte-q,2020.1.3,Win32,60,14000,,,,,,,,,,,,,,0,79,79,41,1,,,,,,,,,,,,,,,,,,,,,,,,,,
,,,,,,,,,,,,a,1.38533,Incorrect,,,,,,t2.png,t4.png,2,0.0591,20,Male,2020-10-20_18h11.19.861,torte-q,2020.1.3,Win32,60,14000,,,,,,,,,,,,,,0,80,80,15,1,,,,,,,,,,,,,,,,,,,,,,,,,,
,,,,,,,,,,,,a,1.6903,Incorrect,,,,,,t4.png,t1.png,3,0.0000131,20,Male,2020-10-20_18h11.19.861,torte-q,2020.1.3,Win32,60,14000,,,,,,,,,,,,,,0,81,81,93,1,,,,,,,,,,,,,,,,,,,,,,,,,,
,,,,,,,,,,,,a,0.804325,Incorrect,,,,,,t1.png,t3.png,2,0.056466,20,Male,2020-10-20_18h11.19.861,torte-q,2020.1.3,Win32,60,14000,,,,,,,,,,,,,,0,82,82,60,1,,,,,,,,,,,,,,,,,,,,,,,,,,
,,,,,,,,,,,,l,0.80328,Incorrect,,,,,,t4.png,t5.png,1,0.90025,20,Male,2020-10-20_18h11.19.861,torte-q,2020.1.3,Win32,60,14000,,,,,,,,,,,,,,0,83,83,47,1,,,,,,,,,,,,,,,,,,,,,,,,,,
,,,,,,,,,,,,a,0.737655,Correct!,,,,,,t2.png,t2.png,0,0.98115,20,Male,2020-10-20_18h11.19.861,torte-q,2020.1.3,Win32,60,14000,,,,,,,,,,,,,,0,84,84,7,1,,,,,,,,,,,,,,,,,,,,,,,,,,
,,,,,,,,,,,,a,1.41604,Incorrect,,,,,,t2.png,t1.png,1,0.90025,20,Male,2020-10-20_18h11.19.861,torte-q,2020.1.3,Win32,60,14000,,,,,,,,,,,,,,0,85,85,5,1,,,,,,,,,,,,,,,,,,,,,,,,,,
,,,,,,,,,,,,a,0.756205,Correct!,,,,,,t2.png,t2.png,0,0.98115,20,Male,2020-10-20_18h11.19.861,torte-q,2020.1.3,Win32,60,14000,,,,,,,,,,,,,,0,86,86,57,1,,,,,,,,,,,,,,,,,,,,,,,,,,
,,,,,,,,,,,,l,0.898135,Correct!,,,,,,t1.png,t5.png,4,9.55E-11,20,Male,2020-10-20_18h11.19.861,torte-q,2020.1.3,Win32,60,14000,,,,,,,,,,,,,,0,87,87,16,1,,,,,,,,,,,,,,,,,,,,,,,,,,
,,,,,,,,,,,,a,1.119965,Incorrect,,,,,,t4.png,t2.png,2,0.0591,20,Male,2020-10-20_18h11.19.861,torte-q,2020.1.3,Win32,60,14000,,,,,,,,,,,,,,0,88,88,36,1,,,,,,,,,,,,,,,,,,,,,,,,,,
,,,,,,,,,,,,a,2.123045,Correct!,,,,,,t4.png,t4.png,0,0.98115,20,Male,2020-10-20_18h11.19.861,torte-q,2020.1.3,Win32,60,14000,,,,,,,,,,,,,,0,89,89,21,1,,,,,,,,,,,,,,,,,,,,,,,,,,
,,,,,,,,,,,,a,0.850615,Correct!,,,,,,t4.png,t4.png,0,0.98115,20,Male,2020-10-20_18h11.19.861,torte-q,2020.1.3,Win32,60,14000,,,,,,,,,,,,,,0,90,90,80,1,,,,,,,,,,,,,,,,,,,,,,,,,,
,,,,,,,,,,,,l,1.54921,Incorrect,,,,,,t4.png,t5.png,1,0.9,20,Male,2020-10-20_18h11.19.861,torte-q,2020.1.3,Win32,60,14000,,,,,,,,,,,,,,0,91,91,115,1,,,,,,,,,,,,,,,,,,,,,,,,,,
,,,,,,,,,,,,a,1.300895,Correct!,,,,,,t3.png,t2.png,1,0.909,20,Male,2020-10-20_18h11.19.861,torte-q,2020.1.3,Win32,60,14000,,,,,,,,,,,,,,0,92,92,23,1,,,,,,,,,,,,,,,,,,,,,,,,,,
,,,,,,,,,,,,a,0.862335,Incorrect,,,,,,t5.png,t2.png,3,0.0000131,20,Male,2020-10-20_18h11.19.861,torte-q,2020.1.3,Win32,60,14000,,,,,,,,,,,,,,0,93,93,51,1,,,,,,,,,,,,,,,,,,,,,,,,,,
,,,,,,,,,,,,a,2.2996,Correct!,,,,,,t3.png,t4.png,1,0.90855,20,Male,2020-10-20_18h11.19.861,torte-q,2020.1.3,Win32,60,14000,,,,,,,,,,,,,,0,94,94,96,1,,,,,,,,,,,,,,,,,,,,,,,,,,
,,,,,,,,,,,,a,0.67447,Correct!,,,,,,t1.png,t2.png,1,0.90025,20,Male,2020-10-20_18h11.19.861,torte-q,2020.1.3,Win32,60,14000,,,,,,,,,,,,,,0,95,95,72,1,,,,,,,,,,,,,,,,,,,,,,,,,,
,,,,,,,,,,,,a,0.885405,Incorrect,,,,,,t3.png,t1.png,2,0.056466,20,Male,2020-10-20_18h11.19.861,torte-q,2020.1.3,Win32,60,14000,,,,,,,,,,,,,,0,96,96,64,1,,,,,,,,,,,,,,,,,,,,,,,,,,
,,,,,,,,,,,,l,0.875035,Correct!,,,,,,t5.png,t1.png,4,9.55E-11,20,Male,2020-10-20_18h11.19.861,torte-q,2020.1.3,Win32,60,14000,,,,,,,,,,,,,,0,97,97,100,1,,,,,,,,,,,,,,,,,,,,,,,,,,
,,,,,,,,,,,,a,1.347275,Incorrect,,,,,,t2.png,t5.png,3,0.0000131,20,Male,2020-10-20_18h11.19.861,torte-q,2020.1.3,Win32,60,14000,,,,,,,,,,,,,,0,98,98,40,1,,,,,,,,,,,,,,,,,,,,,,,,,,
,,,,,,,,,,,,a,2.31619,Correct!,,,,,,t3.png,t1.png,2,0.0565,20,Male,2020-10-20_18h11.19.861,torte-q,2020.1.3,Win32,60,14000,,,,,,,,,,,,,,0,99,99,31,1,,,,,,,,,,,,,,,,,,,,,,,,,,
,,,,,,,,,,,,a,0.820695,Incorrect,,,,,,t5.png,t1.png,4,9.55E-11,20,Male,2020-10-20_18h11.19.861,torte-q,2020.1.3,Win32,60,14000,,,,,,,,,,,,,,0,100,100,43,1,,,,,,,,,,,,,,,,,,,,,,,,,,
,,,,,,,,,,,,l,0.932825,Correct!,,,,,,t1.png,t5.png,4,9.55E-11,20,Male,2020-10-20_18h11.19.861,torte-q,2020.1.3,Win32,60,14000,,,,,,,,,,,,,,0,101,101,55,1,,,,,,,,,,,,,,,,,,,,,,,,,,
,,,,,,,,,,,,l,1.49727,Correct!,,,,,,t3.png,t5.png,2,0.056466,20,Male,2020-10-20_18h11.19.861,torte-q,2020.1.3,Win32,60,14000,,,,,,,,,,,,,,0,102,102,44,1,,,,,,,,,,,,,,,,,,,,,,,,,,
,,,,,,,,,,,,l,0.608,Correct!,,,,,,t1.png,t3.png,2,0.056466,20,Male,2020-10-20_18h11.19.861,torte-q,2020.1.3,Win32,60,14000,,,,,,,,,,,,,,0,103,103,87,1,,,,,,,,,,,,,,,,,,,,,,,,,,
,,,,,,,,,,,,a,1.10345,Correct!,,,,,,t5.png,t5.png,0,0.97829,20,Male,2020-10-20_18h11.19.861,torte-q,2020.1.3,Win32,60,14000,,,,,,,,,,,,,,0,104,104,70,1,,,,,,,,,,,,,,,,,,,,,,,,,,
,,,,,,,,,,,,l,0.87765,Correct!,,,,,,t1.png,t3.png,2,0.056466,20,Male,2020-10-20_18h11.19.861,torte-q,2020.1.3,Win32,60,14000,,,,,,,,,,,,,,0,105,105,63,1,,,,,,,,,,,,,,,,,,,,,,,,,,
,,,,,,,,,,,,a,0.748965,Correct!,,,,,,t5.png,t4.png,1,0.90025,20,Male,2020-10-20_18h11.19.861,torte-q,2020.1.3,Win32,60,14000,,,,,,,,,,,,,,0,106,106,27,1,,,,,,,,,,,,,,,,,,,,,,,,,,
,,,,,,,,,,,,a,1.087175,Incorrect,,,,,,t3.png,t1.png,2,0.056466,20,Male,2020-10-20_18h11.19.861,torte-q,2020.1.3,Win32,60,14000,,,,,,,,,,,,,,0,107,107,32,1,,,,,,,,,,,,,,,,,,,,,,,,,,
,,,,,,,,,,,,l,1.216765,Correct!,,,,,,t5.png,t2.png,3,0.0000131,20,Male,2020-10-20_18h11.19.861,torte-q,2020.1.3,Win32,60,14000,,,,,,,,,,,,,,0,108,108,116,1,,,,,,,,,,,,,,,,,,,,,,,,,,
,,,,,,,,,,,,a,0.98265,Incorrect,,,,,,t5.png,t2.png,3,0.0000131,20,Male,2020-10-20_18h11.19.861,torte-q,2020.1.3,Win32,60,14000,,,,,,,,,,,,,,0,109,109,98,1,,,,,,,,,,,,,,,,,,,,,,,,,,
,,,,,,,,,,,,l,0.46626,Incorrect,,,,,,t1.png,t1.png,0,0.97829,20,Male,2020-10-20_18h11.19.861,torte-q,2020.1.3,Win32,60,14000,,,,,,,,,,,,,,0,110,110,67,1,,,,,,,,,,,,,,,,,,,,,,,,,,
,,,,,,,,,,,,a,0.968145,Correct!,,,,,,t2.png,t2.png,0,0.98115,20,Male,2020-10-20_18h11.19.861,torte-q,2020.1.3,Win32,60,14000,,,,,,,,,,,,,,0,111,111,59,1,,,,,,,,,,,,,,,,,,,,,,,,,,
,,,,,,,,,,,,l,0.90748,Incorrect,,,,,,t4.png,t5.png,1,0.90025,20,Male,2020-10-20_18h11.19.861,torte-q,2020.1.3,Win32,60,14000,,,,,,,,,,,,,,0,112,112,103,1,,,,,,,,,,,,,,,,,,,,,,,,,,
,,,,,,,,,,,,a,1.25992,Incorrect,,,,,,t1.png,t5.png,4,9.55E-11,20,Male,2020-10-20_18h11.19.861,torte-q,2020.1.3,Win32,60,14000,,,,,,,,,,,,,,0,113,113,85,1,,,,,,,,,,,,,,,,,,,,,,,,,,
,,,,,,,,,,,,l,1.921605,Incorrect,,,,,,t3.png,t2.png,1,0.909,20,Male,2020-10-20_18h11.19.861,torte-q,2020.1.3,Win32,60,14000,,,,,,,,,,,,,,0,114,114,3,1,,,,,,,,,,,,,,,,,,,,,,,,,,
,,,,,,,,,,,,,,Too slow :(,,,,,,t4.png,t3.png,1,0.90855,20,Male,2020-10-20_18h11.19.861,torte-q,2020.1.3,Win32,60,14000,,,,,,,,,,,,,,0,115,115,45,1,,,,,,,,,,,,,,,,,,,,,,,,,,
,,,,,,,,,,,,a,0.888645,Correct!,,,,,,t2.png,t2.png,0,0.981,20,Male,2020-10-20_18h11.19.861,torte-q,2020.1.3,Win32,60,14000,,,,,,,,,,,,,,0,116,116,101,1,,,,,,,,,,,,,,,,,,,,,,,,,,
,,,,,,,,,,,,a,0.8258,Correct!,,,,,,t1.png,t2.png,1,0.90025,20,Male,2020-10-20_18h11.19.861,torte-q,2020.1.3,Win32,60,14000,,,,,,,,,,,,,,0,117,117,33,1,,,,,,,,,,,,,,,,,,,,,,,,,,
,,,,,,,,,,,,a,1.80162,Correct!,,,,,,t4.png,t3.png,1,0.909,20,Male,2020-10-20_18h11.19.861,torte-q,2020.1.3,Win32,60,14000,,,,,,,,,,,,,,0,118,118,20,1,,,,,,,,,,,,,,,,,,,,,,,,,,
,,,,,,,,,,,,,,Too slow :(,,,,,,t4.png,t4.png,0,0.98115,20,Male,2020-10-20_18h11.19.861,torte-q,2020.1.3,Win32,60,14000,,,,,,,,,,,,,,0,119,119,52,1,,,,,,,,,,,,,,,,,,,,,,,,,,
,,,,,,,,,,,,,,,,,,,,,,,,20,Male,2020-10-20_18h11.19.861,torte-q,2020.1.3,Win32,60,14000,space,1.094115,,,,,,,,,,,,,,,,,5.9575,5.617865,150,193,1,0,0,s1,103,-102,1,0,0,t4,204,-108,1,0,0,proceed,space,6.915175,space,1.28156,space,0.468185
