key_resp_8.keys,key_resp_8.rt,key_resp_9.keys,key_resp_9.rt,key_resp_10.keys,key_resp_10.rt,key_resp_11.keys,key_resp_11.rt,key_resp_2.keys,key_resp_2.rt,key_resp_3.keys,key_resp_3.rt,key_resp.keys,Feedback,train.thisRepN,train.thisTrialN,train.thisN,train.thisIndex,train.ran,torta_sx,torta_dx,difference,probability,age,gender,date,expName,psychopyVersion,OS,frameRate,participant,key_resp.rt,key_resp_15.keys,key_resp_15.rt,key_resp_6.keys,key_resp_6.rt,test1.thisRepN,test1.thisTrialN,test1.thisN,test1.thisIndex,test1.ran,key_resp_16.keys,key_resp_16.rt,key_resp_7.keys,key_resp_7.rt,test2.thisRepN,test2.thisTrialN,test2.thisN,test2.thisIndex,test2.ran,rating.response,rating.rt,mouse.x,mouse.y,mouse.leftButton,mouse.midButton,mouse.rightButton,mouse.clicked_name,mouse_2.x,mouse_2.y,mouse_2.leftButton,mouse_2.midButton,mouse_2.rightButton,mouse_2.clicked_name,mouse_3.x,mouse_3.y,mouse_3.leftButton,mouse_3.midButton,mouse_3.rightButton,mouse_3.clicked_name,key_resp_12.keys,key_resp_12.rt,key_resp_13.keys,key_resp_13.rt,key_resp_14.keys,key_resp_14.rt
space,40.39692,space,27.122765,space,7.53138,space,4.30342,space,7.337655,space,27.66131,,Too slow :(,0,0,0,42,1,t5.png,t4.png,1,0.90025,18,Female,2020-11-14_16h36.57.117,torte-q,2020.1.3,Win32,60,14036,,,,,,,,,,,,,,,,,,,,,,,,,,,,,,,,,,,,,,,,,,,,,
,,,,,,,,,,,,l,Incorrect,0,1,1,92,1,t2.png,t3.png,1,0.909,18,Female,2020-11-14_16h36.57.117,torte-q,2020.1.3,Win32,60,14036,0.618455,,,,,,,,,,,,,,,,,,,,,,,,,,,,,,,,,,,,,,,,,,,,
,,,,,,,,,,,,l,Correct!,0,2,2,0,1,t5.png,t1.png,4,9.55E-11,18,Female,2020-11-14_16h36.57.117,torte-q,2020.1.3,Win32,60,14036,0.763625,,,,,,,,,,,,,,,,,,,,,,,,,,,,,,,,,,,,,,,,,,,,
,,,,,,,,,,,,l,Incorrect,0,3,3,16,1,t5.png,t4.png,1,0.9,18,Female,2020-11-14_16h36.57.117,torte-q,2020.1.3,Win32,60,14036,2.36493,,,,,,,,,,,,,,,,,,,,,,,,,,,,,,,,,,,,,,,,,,,,
,,,,,,,,,,,,a,Correct!,0,4,4,8,1,t3.png,t2.png,1,0.90855,18,Female,2020-11-14_16h36.57.117,torte-q,2020.1.3,Win32,60,14036,0.848625,,,,,,,,,,,,,,,,,,,,,,,,,,,,,,,,,,,,,,,,,,,,
,,,,,,,,,,,,l,Correct!,0,5,5,119,1,t1.png,t5.png,4,9.55E-11,18,Female,2020-11-14_16h36.57.117,torte-q,2020.1.3,Win32,60,14036,1.13795,,,,,,,,,,,,,,,,,,,,,,,,,,,,,,,,,,,,,,,,,,,,
,,,,,,,,,,,,a,Correct!,0,6,6,2,1,t3.png,t2.png,1,0.90855,18,Female,2020-11-14_16h36.57.117,torte-q,2020.1.3,Win32,60,14036,0.714645,,,,,,,,,,,,,,,,,,,,,,,,,,,,,,,,,,,,,,,,,,,,
,,,,,,,,,,,,l,Correct!,0,7,7,90,1,t1.png,t5.png,4,9.55E-11,18,Female,2020-11-14_16h36.57.117,torte-q,2020.1.3,Win32,60,14036,0.44098,,,,,,,,,,,,,,,,,,,,,,,,,,,,,,,,,,,,,,,,,,,,
,,,,,,,,,,,,l,Correct!,0,8,8,35,1,t1.png,t4.png,3,0.0000131,18,Female,2020-11-14_16h36.57.117,torte-q,2020.1.3,Win32,60,14036,0.52213,,,,,,,,,,,,,,,,,,,,,,,,,,,,,,,,,,,,,,,,,,,,
,,,,,,,,,,,,l,Incorrect,0,9,9,95,1,t1.png,t1.png,0,0.978,18,Female,2020-11-14_16h36.57.117,torte-q,2020.1.3,Win32,60,14036,1.03182,,,,,,,,,,,,,,,,,,,,,,,,,,,,,,,,,,,,,,,,,,,,
,,,,,,,,,,,,l,Incorrect,0,10,10,109,1,t5.png,t5.png,0,0.97829,18,Female,2020-11-14_16h36.57.117,torte-q,2020.1.3,Win32,60,14036,0.63408,,,,,,,,,,,,,,,,,,,,,,,,,,,,,,,,,,,,,,,,,,,,
,,,,,,,,,,,,l,Correct!,0,11,11,93,1,t2.png,t4.png,2,0.059078,18,Female,2020-11-14_16h36.57.117,torte-q,2020.1.3,Win32,60,14036,0.714455,,,,,,,,,,,,,,,,,,,,,,,,,,,,,,,,,,,,,,,,,,,,
,,,,,,,,,,,,l,Incorrect,0,12,12,114,1,t2.png,t3.png,1,0.90855,18,Female,2020-11-14_16h36.57.117,torte-q,2020.1.3,Win32,60,14036,0.688535,,,,,,,,,,,,,,,,,,,,,,,,,,,,,,,,,,,,,,,,,,,,
,,,,,,,,,,,,a,Incorrect,0,13,13,12,1,t5.png,t1.png,4,9.55E-11,18,Female,2020-11-14_16h36.57.117,torte-q,2020.1.3,Win32,60,14036,0.41509,,,,,,,,,,,,,,,,,,,,,,,,,,,,,,,,,,,,,,,,,,,,
,,,,,,,,,,,,a,Correct!,0,14,14,77,1,t1.png,t1.png,0,0.97829,18,Female,2020-11-14_16h36.57.117,torte-q,2020.1.3,Win32,60,14036,0.383805,,,,,,,,,,,,,,,,,,,,,,,,,,,,,,,,,,,,,,,,,,,,
,,,,,,,,,,,,l,Correct!,0,15,15,54,1,t1.png,t5.png,4,9.55E-11,18,Female,2020-11-14_16h36.57.117,torte-q,2020.1.3,Win32,60,14036,0.54194,,,,,,,,,,,,,,,,,,,,,,,,,,,,,,,,,,,,,,,,,,,,
,,,,,,,,,,,,l,Incorrect,0,16,16,44,1,t2.png,t3.png,1,0.909,18,Female,2020-11-14_16h36.57.117,torte-q,2020.1.3,Win32,60,14036,0.522415,,,,,,,,,,,,,,,,,,,,,,,,,,,,,,,,,,,,,,,,,,,,
,,,,,,,,,,,,a,Incorrect,0,17,17,56,1,t5.png,t1.png,4,9.55E-11,18,Female,2020-11-14_16h36.57.117,torte-q,2020.1.3,Win32,60,14036,0.456495,,,,,,,,,,,,,,,,,,,,,,,,,,,,,,,,,,,,,,,,,,,,
,,,,,,,,,,,,l,Correct!,0,18,18,57,1,t2.png,t4.png,2,0.059078,18,Female,2020-11-14_16h36.57.117,torte-q,2020.1.3,Win32,60,14036,0.610855,,,,,,,,,,,,,,,,,,,,,,,,,,,,,,,,,,,,,,,,,,,,
,,,,,,,,,,,,l,Incorrect,0,19,19,32,1,t4.png,t5.png,1,0.90025,18,Female,2020-11-14_16h36.57.117,torte-q,2020.1.3,Win32,60,14036,0.442065,,,,,,,,,,,,,,,,,,,,,,,,,,,,,,,,,,,,,,,,,,,,
,,,,,,,,,,,,a,Correct!,0,20,20,113,1,t5.png,t4.png,1,0.9,18,Female,2020-11-14_16h36.57.117,torte-q,2020.1.3,Win32,60,14036,1.25697,,,,,,,,,,,,,,,,,,,,,,,,,,,,,,,,,,,,,,,,,,,,
,,,,,,,,,,,,l,Correct!,0,21,21,6,1,t1.png,t4.png,3,0.0000131,18,Female,2020-11-14_16h36.57.117,torte-q,2020.1.3,Win32,60,14036,0.578695,,,,,,,,,,,,,,,,,,,,,,,,,,,,,,,,,,,,,,,,,,,,
,,,,,,,,,,,,a,Incorrect,0,22,22,19,1,t4.png,t2.png,2,0.059078,18,Female,2020-11-14_16h36.57.117,torte-q,2020.1.3,Win32,60,14036,0.5665,,,,,,,,,,,,,,,,,,,,,,,,,,,,,,,,,,,,,,,,,,,,
,,,,,,,,,,,,l,Correct!,0,23,23,68,1,t1.png,t4.png,3,0.0000131,18,Female,2020-11-14_16h36.57.117,torte-q,2020.1.3,Win32,60,14036,0.56837,,,,,,,,,,,,,,,,,,,,,,,,,,,,,,,,,,,,,,,,,,,,
,,,,,,,,,,,,a,Correct!,0,24,24,76,1,t3.png,t2.png,1,0.90855,18,Female,2020-11-14_16h36.57.117,torte-q,2020.1.3,Win32,60,14036,0.613155,,,,,,,,,,,,,,,,,,,,,,,,,,,,,,,,,,,,,,,,,,,,
,,,,,,,,,,,,a,Incorrect,0,25,25,88,1,t3.png,t1.png,2,0.056466,18,Female,2020-11-14_16h36.57.117,torte-q,2020.1.3,Win32,60,14036,0.53936,,,,,,,,,,,,,,,,,,,,,,,,,,,,,,,,,,,,,,,,,,,,
,,,,,,,,,,,,l,Incorrect,0,26,26,101,1,t4.png,t5.png,1,0.90025,18,Female,2020-11-14_16h36.57.117,torte-q,2020.1.3,Win32,60,14036,0.78673,,,,,,,,,,,,,,,,,,,,,,,,,,,,,,,,,,,,,,,,,,,,
,,,,,,,,,,,,l,Incorrect,0,27,27,20,1,t2.png,t3.png,1,0.90855,18,Female,2020-11-14_16h36.57.117,torte-q,2020.1.3,Win32,60,14036,0.569875,,,,,,,,,,,,,,,,,,,,,,,,,,,,,,,,,,,,,,,,,,,,
,,,,,,,,,,,,a,Incorrect,0,28,28,30,1,t3.png,t1.png,2,0.056466,18,Female,2020-11-14_16h36.57.117,torte-q,2020.1.3,Win32,60,14036,0.68462,,,,,,,,,,,,,,,,,,,,,,,,,,,,,,,,,,,,,,,,,,,,
,,,,,,,,,,,,a,Incorrect,0,29,29,50,1,t5.png,t1.png,4,9.55E-11,18,Female,2020-11-14_16h36.57.117,torte-q,2020.1.3,Win32,60,14036,0.610735,,,,,,,,,,,,,,,,,,,,,,,,,,,,,,,,,,,,,,,,,,,,
,,,,,,,,,,,,a,Correct!,0,30,30,75,1,t1.png,t1.png,0,0.97829,18,Female,2020-11-14_16h36.57.117,torte-q,2020.1.3,Win32,60,14036,0.528985,,,,,,,,,,,,,,,,,,,,,,,,,,,,,,,,,,,,,,,,,,,,
,,,,,,,,,,,,a,Correct!,0,31,31,105,1,t3.png,t2.png,1,0.90855,18,Female,2020-11-14_16h36.57.117,torte-q,2020.1.3,Win32,60,14036,0.615835,,,,,,,,,,,,,,,,,,,,,,,,,,,,,,,,,,,,,,,,,,,,
,,,,,,,,,,,,l,Incorrect,0,32,32,18,1,t4.png,t5.png,1,0.90025,18,Female,2020-11-14_16h36.57.117,torte-q,2020.1.3,Win32,60,14036,0.586465,,,,,,,,,,,,,,,,,,,,,,,,,,,,,,,,,,,,,,,,,,,,
,,,,,,,,,,,,a,Correct!,0,33,33,64,1,t1.png,t1.png,0,0.978,18,Female,2020-11-14_16h36.57.117,torte-q,2020.1.3,Win32,60,14036,0.51692,,,,,,,,,,,,,,,,,,,,,,,,,,,,,,,,,,,,,,,,,,,,
,,,,,,,,,,,,a,Incorrect,0,34,34,53,1,t3.png,t1.png,2,0.056466,18,Female,2020-11-14_16h36.57.117,torte-q,2020.1.3,Win32,60,14036,0.458045,,,,,,,,,,,,,,,,,,,,,,,,,,,,,,,,,,,,,,,,,,,,
,,,,,,,,,,,,a,Incorrect,0,35,35,11,1,t1.png,t4.png,3,0.0000131,18,Female,2020-11-14_16h36.57.117,torte-q,2020.1.3,Win32,60,14036,0.865125,,,,,,,,,,,,,,,,,,,,,,,,,,,,,,,,,,,,,,,,,,,,
,,,,,,,,,,,,l,Correct!,0,36,36,55,1,t2.png,t4.png,2,0.059078,18,Female,2020-11-14_16h36.57.117,torte-q,2020.1.3,Win32,60,14036,0.597975,,,,,,,,,,,,,,,,,,,,,,,,,,,,,,,,,,,,,,,,,,,,
,,,,,,,,,,,,a,Correct!,0,37,37,84,1,t1.png,t1.png,0,0.97829,18,Female,2020-11-14_16h36.57.117,torte-q,2020.1.3,Win32,60,14036,0.76838,,,,,,,,,,,,,,,,,,,,,,,,,,,,,,,,,,,,,,,,,,,,
,,,,,,,,,,,,l,Correct!,0,38,38,117,1,t1.png,t5.png,4,9.55E-11,18,Female,2020-11-14_16h36.57.117,torte-q,2020.1.3,Win32,60,14036,0.63839,,,,,,,,,,,,,,,,,,,,,,,,,,,,,,,,,,,,,,,,,,,,
,,,,,,,,,,,,a,Incorrect,0,39,39,36,1,t3.png,t1.png,2,0.0565,18,Female,2020-11-14_16h36.57.117,torte-q,2020.1.3,Win32,60,14036,0.77501,,,,,,,,,,,,,,,,,,,,,,,,,,,,,,,,,,,,,,,,,,,,
,,,,,,,,,,,,a,Correct!,0,40,40,15,1,t3.png,t2.png,1,0.90855,18,Female,2020-11-14_16h36.57.117,torte-q,2020.1.3,Win32,60,14036,0.840525,,,,,,,,,,,,,,,,,,,,,,,,,,,,,,,,,,,,,,,,,,,,
,,,,,,,,,,,,a,Incorrect,0,41,41,110,1,t4.png,t5.png,1,0.90025,18,Female,2020-11-14_16h36.57.117,torte-q,2020.1.3,Win32,60,14036,0.73066,,,,,,,,,,,,,,,,,,,,,,,,,,,,,,,,,,,,,,,,,,,,
,,,,,,,,,,,,a,Incorrect,0,42,42,51,1,t3.png,t1.png,2,0.056466,18,Female,2020-11-14_16h36.57.117,torte-q,2020.1.3,Win32,60,14036,0.66023,,,,,,,,,,,,,,,,,,,,,,,,,,,,,,,,,,,,,,,,,,,,
,,,,,,,,,,,,l,Incorrect,0,43,43,29,1,t5.png,t5.png,0,0.97829,18,Female,2020-11-14_16h36.57.117,torte-q,2020.1.3,Win32,60,14036,0.531165,,,,,,,,,,,,,,,,,,,,,,,,,,,,,,,,,,,,,,,,,,,,
,,,,,,,,,,,,a,Incorrect,0,44,44,108,1,t5.png,t1.png,4,9.55E-11,18,Female,2020-11-14_16h36.57.117,torte-q,2020.1.3,Win32,60,14036,0.95145,,,,,,,,,,,,,,,,,,,,,,,,,,,,,,,,,,,,,,,,,,,,
,,,,,,,,,,,,a,Correct!,0,45,45,48,1,t5.png,t5.png,0,0.97829,18,Female,2020-11-14_16h36.57.117,torte-q,2020.1.3,Win32,60,14036,0.56754,,,,,,,,,,,,,,,,,,,,,,,,,,,,,,,,,,,,,,,,,,,,
,,,,,,,,,,,,a,Correct!,0,46,46,74,1,t5.png,t4.png,1,0.9,18,Female,2020-11-14_16h36.57.117,torte-q,2020.1.3,Win32,60,14036,0.733075,,,,,,,,,,,,,,,,,,,,,,,,,,,,,,,,,,,,,,,,,,,,
,,,,,,,,,,,,l,Incorrect,0,47,47,22,1,t2.png,t3.png,1,0.90855,18,Female,2020-11-14_16h36.57.117,torte-q,2020.1.3,Win32,60,14036,0.72025,,,,,,,,,,,,,,,,,,,,,,,,,,,,,,,,,,,,,,,,,,,,
,,,,,,,,,,,,l,Incorrect,0,48,48,25,1,t5.png,t5.png,0,0.97829,18,Female,2020-11-14_16h36.57.117,torte-q,2020.1.3,Win32,60,14036,0.754845,,,,,,,,,,,,,,,,,,,,,,,,,,,,,,,,,,,,,,,,,,,,
,,,,,,,,,,,,l,Correct!,0,49,49,5,1,t2.png,t4.png,2,0.059078,18,Female,2020-11-14_16h36.57.117,torte-q,2020.1.3,Win32,60,14036,0.385945,,,,,,,,,,,,,,,,,,,,,,,,,,,,,,,,,,,,,,,,,,,,
,,,,,,,,,,,,l,Correct!,0,50,50,91,1,t1.png,t4.png,3,0.0000131,18,Female,2020-11-14_16h36.57.117,torte-q,2020.1.3,Win32,60,14036,0.46473,,,,,,,,,,,,,,,,,,,,,,,,,,,,,,,,,,,,,,,,,,,,
,,,,,,,,,,,,a,Correct!,0,51,51,39,1,t3.png,t2.png,1,0.90855,18,Female,2020-11-14_16h36.57.117,torte-q,2020.1.3,Win32,60,14036,0.75311,,,,,,,,,,,,,,,,,,,,,,,,,,,,,,,,,,,,,,,,,,,,
,,,,,,,,,,,,l,Incorrect,0,52,52,60,1,t2.png,t4.png,2,0.059078,18,Female,2020-11-14_16h36.57.117,torte-q,2020.1.3,Win32,60,14036,0.94101,,,,,,,,,,,,,,,,,,,,,,,,,,,,,,,,,,,,,,,,,,,,
,,,,,,,,,,,,l,Correct!,0,53,53,73,1,t4.png,t2.png,2,0.059078,18,Female,2020-11-14_16h36.57.117,torte-q,2020.1.3,Win32,60,14036,0.773185,,,,,,,,,,,,,,,,,,,,,,,,,,,,,,,,,,,,,,,,,,,,
,,,,,,,,,,,,l,Incorrect,0,54,54,107,1,t1.png,t1.png,0,0.978,18,Female,2020-11-14_16h36.57.117,torte-q,2020.1.3,Win32,60,14036,0.782795,,,,,,,,,,,,,,,,,,,,,,,,,,,,,,,,,,,,,,,,,,,,
,,,,,,,,,,,,a,Incorrect,0,55,55,86,1,t3.png,t1.png,2,0.056466,18,Female,2020-11-14_16h36.57.117,torte-q,2020.1.3,Win32,60,14036,0.515665,,,,,,,,,,,,,,,,,,,,,,,,,,,,,,,,,,,,,,,,,,,,
,,,,,,,,,,,,l,Incorrect,0,56,56,13,1,t5.png,t5.png,0,0.97829,18,Female,2020-11-14_16h36.57.117,torte-q,2020.1.3,Win32,60,14036,0.883275,,,,,,,,,,,,,,,,,,,,,,,,,,,,,,,,,,,,,,,,,,,,
,,,,,,,,,,,,l,Incorrect,0,57,57,96,1,t1.png,t1.png,0,0.97829,18,Female,2020-11-14_16h36.57.117,torte-q,2020.1.3,Win32,60,14036,0.573845,,,,,,,,,,,,,,,,,,,,,,,,,,,,,,,,,,,,,,,,,,,,
,,,,,,,,,,,,l,Correct!,0,58,58,103,1,t3.png,t1.png,2,0.056466,18,Female,2020-11-14_16h36.57.117,torte-q,2020.1.3,Win32,60,14036,0.73678,,,,,,,,,,,,,,,,,,,,,,,,,,,,,,,,,,,,,,,,,,,,
,,,,,,,,,,,,a,Incorrect,0,59,59,72,1,t4.png,t2.png,2,0.059078,18,Female,2020-11-14_16h36.57.117,torte-q,2020.1.3,Win32,60,14036,0.982385,,,,,,,,,,,,,,,,,,,,,,,,,,,,,,,,,,,,,,,,,,,,
,,,,,,,,,,,,a,Correct!,0,60,60,78,1,t1.png,t1.png,0,0.978,18,Female,2020-11-14_16h36.57.117,torte-q,2020.1.3,Win32,60,14036,0.59202,,,,,,,,,,,,,,,,,,,,,,,,,,,,,,,,,,,,,,,,,,,,
,,,,,,,,,,,,l,Correct!,0,61,61,52,1,t2.png,t4.png,2,0.059078,18,Female,2020-11-14_16h36.57.117,torte-q,2020.1.3,Win32,60,14036,0.55753,,,,,,,,,,,,,,,,,,,,,,,,,,,,,,,,,,,,,,,,,,,,
,,,,,,,,,,,,l,Correct!,0,62,62,115,1,t2.png,t4.png,2,0.059078,18,Female,2020-11-14_16h36.57.117,torte-q,2020.1.3,Win32,60,14036,0.484415,,,,,,,,,,,,,,,,,,,,,,,,,,,,,,,,,,,,,,,,,,,,
,,,,,,,,,,,,a,Incorrect,0,63,63,26,1,t4.png,t2.png,2,0.0591,18,Female,2020-11-14_16h36.57.117,torte-q,2020.1.3,Win32,60,14036,0.56526,,,,,,,,,,,,,,,,,,,,,,,,,,,,,,,,,,,,,,,,,,,,
,,,,,,,,,,,,a,Correct!,0,64,64,34,1,t5.png,t4.png,1,0.9,18,Female,2020-11-14_16h36.57.117,torte-q,2020.1.3,Win32,60,14036,1.23177,,,,,,,,,,,,,,,,,,,,,,,,,,,,,,,,,,,,,,,,,,,,
,,,,,,,,,,,,a,Correct!,0,65,65,97,1,t5.png,t5.png,0,0.97829,18,Female,2020-11-14_16h36.57.117,torte-q,2020.1.3,Win32,60,14036,0.57979,,,,,,,,,,,,,,,,,,,,,,,,,,,,,,,,,,,,,,,,,,,,
,,,,,,,,,,,,a,Correct!,0,66,66,71,1,t5.png,t5.png,0,0.97829,18,Female,2020-11-14_16h36.57.117,torte-q,2020.1.3,Win32,60,14036,0.68156,,,,,,,,,,,,,,,,,,,,,,,,,,,,,,,,,,,,,,,,,,,,
,,,,,,,,,,,,l,Incorrect,0,67,67,58,1,t5.png,t4.png,1,0.90025,18,Female,2020-11-14_16h36.57.117,torte-q,2020.1.3,Win32,60,14036,0.30585,,,,,,,,,,,,,,,,,,,,,,,,,,,,,,,,,,,,,,,,,,,,
,,,,,,,,,,,,l,Incorrect,0,68,68,9,1,t4.png,t5.png,1,0.9,18,Female,2020-11-14_16h36.57.117,torte-q,2020.1.3,Win32,60,14036,0.63969,,,,,,,,,,,,,,,,,,,,,,,,,,,,,,,,,,,,,,,,,,,,
,,,,,,,,,,,,a,Correct!,0,69,69,62,1,t5.png,t5.png,0,0.978,18,Female,2020-11-14_16h36.57.117,torte-q,2020.1.3,Win32,60,14036,0.575,,,,,,,,,,,,,,,,,,,,,,,,,,,,,,,,,,,,,,,,,,,,
,,,,,,,,,,,,l,Correct!,0,70,70,37,1,t1.png,t4.png,3,0.0000131,18,Female,2020-11-14_16h36.57.117,torte-q,2020.1.3,Win32,60,14036,0.77316,,,,,,,,,,,,,,,,,,,,,,,,,,,,,,,,,,,,,,,,,,,,
,,,,,,,,,,,,a,Incorrect,0,71,71,87,1,t5.png,t1.png,4,9.55E-11,18,Female,2020-11-14_16h36.57.117,torte-q,2020.1.3,Win32,60,14036,0.988655,,,,,,,,,,,,,,,,,,,,,,,,,,,,,,,,,,,,,,,,,,,,
,,,,,,,,,,,,a,Incorrect,0,72,72,38,1,t3.png,t1.png,2,0.056466,18,Female,2020-11-14_16h36.57.117,torte-q,2020.1.3,Win32,60,14036,0.933805,,,,,,,,,,,,,,,,,,,,,,,,,,,,,,,,,,,,,,,,,,,,
,,,,,,,,,,,,a,Correct!,0,73,73,85,1,t3.png,t2.png,1,0.90855,18,Female,2020-11-14_16h36.57.117,torte-q,2020.1.3,Win32,60,14036,0.660865,,,,,,,,,,,,,,,,,,,,,,,,,,,,,,,,,,,,,,,,,,,,
,,,,,,,,,,,,a,Correct!,0,74,74,81,1,t1.png,t1.png,0,0.97829,18,Female,2020-11-14_16h36.57.117,torte-q,2020.1.3,Win32,60,14036,0.97147,,,,,,,,,,,,,,,,,,,,,,,,,,,,,,,,,,,,,,,,,,,,
,,,,,,,,,,,,a,Incorrect,0,75,75,33,1,t5.png,t1.png,4,9.55E-11,18,Female,2020-11-14_16h36.57.117,torte-q,2020.1.3,Win32,60,14036,0.903195,,,,,,,,,,,,,,,,,,,,,,,,,,,,,,,,,,,,,,,,,,,,
,,,,,,,,,,,,a,Correct!,0,76,76,118,1,t5.png,t5.png,0,0.978,18,Female,2020-11-14_16h36.57.117,torte-q,2020.1.3,Win32,60,14036,0.835715,,,,,,,,,,,,,,,,,,,,,,,,,,,,,,,,,,,,,,,,,,,,
,,,,,,,,,,,,a,Incorrect,0,77,77,43,1,t4.png,t2.png,2,0.059078,18,Female,2020-11-14_16h36.57.117,torte-q,2020.1.3,Win32,60,14036,0.554115,,,,,,,,,,,,,,,,,,,,,,,,,,,,,,,,,,,,,,,,,,,,
,,,,,,,,,,,,a,Correct!,0,78,78,70,1,t5.png,t5.png,0,0.978,18,Female,2020-11-14_16h36.57.117,torte-q,2020.1.3,Win32,60,14036,0.30355,,,,,,,,,,,,,,,,,,,,,,,,,,,,,,,,,,,,,,,,,,,,
,,,,,,,,,,,,a,Correct!,0,79,79,23,1,t5.png,t4.png,1,0.90025,18,Female,2020-11-14_16h36.57.117,torte-q,2020.1.3,Win32,60,14036,0.633095,,,,,,,,,,,,,,,,,,,,,,,,,,,,,,,,,,,,,,,,,,,,
,,,,,,,,,,,,l,Correct!,0,80,80,89,1,t1.png,t4.png,3,0.0000131,18,Female,2020-11-14_16h36.57.117,torte-q,2020.1.3,Win32,60,14036,0.35301,,,,,,,,,,,,,,,,,,,,,,,,,,,,,,,,,,,,,,,,,,,,
,,,,,,,,,,,,l,Correct!,0,81,81,1,1,t2.png,t4.png,2,0.059078,18,Female,2020-11-14_16h36.57.117,torte-q,2020.1.3,Win32,60,14036,0.264925,,,,,,,,,,,,,,,,,,,,,,,,,,,,,,,,,,,,,,,,,,,,
,,,,,,,,,,,,l,Correct!,0,82,82,67,1,t1.png,t5.png,4,9.55E-11,18,Female,2020-11-14_16h36.57.117,torte-q,2020.1.3,Win32,60,14036,0.764485,,,,,,,,,,,,,,,,,,,,,,,,,,,,,,,,,,,,,,,,,,,,
,,,,,,,,,,,,a,Correct!,0,83,83,66,1,t4.png,t5.png,1,0.9,18,Female,2020-11-14_16h36.57.117,torte-q,2020.1.3,Win32,60,14036,0.574545,,,,,,,,,,,,,,,,,,,,,,,,,,,,,,,,,,,,,,,,,,,,
,,,,,,,,,,,,a,Correct!,0,84,84,116,1,t5.png,t4.png,1,0.90025,18,Female,2020-11-14_16h36.57.117,torte-q,2020.1.3,Win32,60,14036,1.431415,,,,,,,,,,,,,,,,,,,,,,,,,,,,,,,,,,,,,,,,,,,,
,,,,,,,,,,,,l,Correct!,0,85,85,4,1,t1.png,t5.png,4,9.55E-11,18,Female,2020-11-14_16h36.57.117,torte-q,2020.1.3,Win32,60,14036,0.468535,,,,,,,,,,,,,,,,,,,,,,,,,,,,,,,,,,,,,,,,,,,,
,,,,,,,,,,,,l,Correct!,0,86,86,83,1,t3.png,t1.png,2,0.056466,18,Female,2020-11-14_16h36.57.117,torte-q,2020.1.3,Win32,60,14036,0.995815,,,,,,,,,,,,,,,,,,,,,,,,,,,,,,,,,,,,,,,,,,,,
,,,,,,,,,,,,a,Correct!,0,87,87,21,1,t5.png,t4.png,1,0.90025,18,Female,2020-11-14_16h36.57.117,torte-q,2020.1.3,Win32,60,14036,0.666665,,,,,,,,,,,,,,,,,,,,,,,,,,,,,,,,,,,,,,,,,,,,
,,,,,,,,,,,,l,Incorrect,0,88,88,49,1,t4.png,t5.png,1,0.9,18,Female,2020-11-14_16h36.57.117,torte-q,2020.1.3,Win32,60,14036,0.587875,,,,,,,,,,,,,,,,,,,,,,,,,,,,,,,,,,,,,,,,,,,,
,,,,,,,,,,,,a,Incorrect,0,89,89,111,1,t5.png,t1.png,4,9.55E-11,18,Female,2020-11-14_16h36.57.117,torte-q,2020.1.3,Win32,60,14036,0.881245,,,,,,,,,,,,,,,,,,,,,,,,,,,,,,,,,,,,,,,,,,,,
,,,,,,,,,,,,a,Correct!,0,90,90,104,1,t2.png,t3.png,1,0.90855,18,Female,2020-11-14_16h36.57.117,torte-q,2020.1.3,Win32,60,14036,1.15329,,,,,,,,,,,,,,,,,,,,,,,,,,,,,,,,,,,,,,,,,,,,
,,,,,,,,,,,,l,Correct!,0,91,91,14,1,t2.png,t4.png,2,0.059078,18,Female,2020-11-14_16h36.57.117,torte-q,2020.1.3,Win32,60,14036,0.715175,,,,,,,,,,,,,,,,,,,,,,,,,,,,,,,,,,,,,,,,,,,,
,,,,,,,,,,,,a,Correct!,0,92,92,45,1,t3.png,t2.png,1,0.90855,18,Female,2020-11-14_16h36.57.117,torte-q,2020.1.3,Win32,60,14036,1.06844,,,,,,,,,,,,,,,,,,,,,,,,,,,,,,,,,,,,,,,,,,,,
,,,,,,,,,,,,l,Incorrect,0,93,93,63,1,t2.png,t3.png,1,0.909,18,Female,2020-11-14_16h36.57.117,torte-q,2020.1.3,Win32,60,14036,0.58741,,,,,,,,,,,,,,,,,,,,,,,,,,,,,,,,,,,,,,,,,,,,
,,,,,,,,,,,,l,Correct!,0,94,94,31,1,t1.png,t5.png,4,9.55E-11,18,Female,2020-11-14_16h36.57.117,torte-q,2020.1.3,Win32,60,14036,0.255265,,,,,,,,,,,,,,,,,,,,,,,,,,,,,,,,,,,,,,,,,,,,
,,,,,,,,,,,,l,Correct!,0,95,95,46,1,t4.png,t2.png,2,0.059078,18,Female,2020-11-14_16h36.57.117,torte-q,2020.1.3,Win32,60,14036,0.242015,,,,,,,,,,,,,,,,,,,,,,,,,,,,,,,,,,,,,,,,,,,,
,,,,,,,,,,,,a,Correct!,0,96,96,7,1,t4.png,t5.png,1,0.90025,18,Female,2020-11-14_16h36.57.117,torte-q,2020.1.3,Win32,60,14036,0.285585,,,,,,,,,,,,,,,,,,,,,,,,,,,,,,,,,,,,,,,,,,,,
,,,,,,,,,,,,l,Correct!,0,97,97,80,1,t1.png,t4.png,3,0.0000131,18,Female,2020-11-14_16h36.57.117,torte-q,2020.1.3,Win32,60,14036,0.198475,,,,,,,,,,,,,,,,,,,,,,,,,,,,,,,,,,,,,,,,,,,,
,,,,,,,,,,,,a,Correct!,0,98,98,106,1,t2.png,t3.png,1,0.90855,18,Female,2020-11-14_16h36.57.117,torte-q,2020.1.3,Win32,60,14036,0.17637,,,,,,,,,,,,,,,,,,,,,,,,,,,,,,,,,,,,,,,,,,,,
,,,,,,,,,,,,l,Incorrect,0,99,99,10,1,t2.png,t3.png,1,0.90855,18,Female,2020-11-14_16h36.57.117,torte-q,2020.1.3,Win32,60,14036,0.32034,,,,,,,,,,,,,,,,,,,,,,,,,,,,,,,,,,,,,,,,,,,,
,,,,,,,,,,,,a,Incorrect,0,100,100,98,1,t2.png,t4.png,2,0.0591,18,Female,2020-11-14_16h36.57.117,torte-q,2020.1.3,Win32,60,14036,0.241925,,,,,,,,,,,,,,,,,,,,,,,,,,,,,,,,,,,,,,,,,,,,
,,,,,,,,,,,,a,Correct!,0,101,101,79,1,t3.png,t2.png,1,0.909,18,Female,2020-11-14_16h36.57.117,torte-q,2020.1.3,Win32,60,14036,0.23228,,,,,,,,,,,,,,,,,,,,,,,,,,,,,,,,,,,,,,,,,,,,
,,,,,,,,,,,,a,Correct!,0,102,102,112,1,t1.png,t1.png,0,0.97829,18,Female,2020-11-14_16h36.57.117,torte-q,2020.1.3,Win32,60,14036,0.30182,,,,,,,,,,,,,,,,,,,,,,,,,,,,,,,,,,,,,,,,,,,,
,,,,,,,,,,,,l,Correct!,0,103,103,17,1,t1.png,t4.png,3,0.0000131,18,Female,2020-11-14_16h36.57.117,torte-q,2020.1.3,Win32,60,14036,0.29889,,,,,,,,,,,,,,,,,,,,,,,,,,,,,,,,,,,,,,,,,,,,
,,,,,,,,,,,,l,Incorrect,0,104,104,100,1,t4.png,t5.png,1,0.90025,18,Female,2020-11-14_16h36.57.117,torte-q,2020.1.3,Win32,60,14036,0.206745,,,,,,,,,,,,,,,,,,,,,,,,,,,,,,,,,,,,,,,,,,,,
,,,,,,,,,,,,a,Incorrect,0,105,105,69,1,t4.png,t2.png,2,0.059078,18,Female,2020-11-14_16h36.57.117,torte-q,2020.1.3,Win32,60,14036,0.26567,,,,,,,,,,,,,,,,,,,,,,,,,,,,,,,,,,,,,,,,,,,,
,,,,,,,,,,,,a,Incorrect,0,106,106,3,1,t1.png,t5.png,4,9.55E-11,18,Female,2020-11-14_16h36.57.117,torte-q,2020.1.3,Win32,60,14036,0.20718,,,,,,,,,,,,,,,,,,,,,,,,,,,,,,,,,,,,,,,,,,,,
,,,,,,,,,,,,a,Incorrect,0,107,107,40,1,t1.png,t5.png,4,9.55E-11,18,Female,2020-11-14_16h36.57.117,torte-q,2020.1.3,Win32,60,14036,0.335585,,,,,,,,,,,,,,,,,,,,,,,,,,,,,,,,,,,,,,,,,,,,
,,,,,,,,,,,,a,Correct!,0,108,108,102,1,t4.png,t2.png,2,0.059078,18,Female,2020-11-14_16h36.57.117,torte-q,2020.1.3,Win32,60,14036,0.386925,,,,,,,,,,,,,,,,,,,,,,,,,,,,,,,,,,,,,,,,,,,,
,,,,,,,,,,,,a,Incorrect,0,109,109,27,1,t3.png,t1.png,2,0.0565,18,Female,2020-11-14_16h36.57.117,torte-q,2020.1.3,Win32,60,14036,0.76325,,,,,,,,,,,,,,,,,,,,,,,,,,,,,,,,,,,,,,,,,,,,
,,,,,,,,,,,,l,Incorrect,0,110,110,28,1,t2.png,t3.png,1,0.909,18,Female,2020-11-14_16h36.57.117,torte-q,2020.1.3,Win32,60,14036,0.482925,,,,,,,,,,,,,,,,,,,,,,,,,,,,,,,,,,,,,,,,,,,,
,,,,,,,,,,,,a,Incorrect,0,111,111,82,1,t5.png,t1.png,4,9.55E-11,18,Female,2020-11-14_16h36.57.117,torte-q,2020.1.3,Win32,60,14036,0.48603,,,,,,,,,,,,,,,,,,,,,,,,,,,,,,,,,,,,,,,,,,,,
,,,,,,,,,,,,l,Incorrect,0,112,112,65,1,t4.png,t5.png,1,0.90025,18,Female,2020-11-14_16h36.57.117,torte-q,2020.1.3,Win32,60,14036,0.48177,,,,,,,,,,,,,,,,,,,,,,,,,,,,,,,,,,,,,,,,,,,,
,,,,,,,,,,,,l,Correct!,0,113,113,24,1,t4.png,t2.png,2,0.059078,18,Female,2020-11-14_16h36.57.117,torte-q,2020.1.3,Win32,60,14036,0.2709,,,,,,,,,,,,,,,,,,,,,,,,,,,,,,,,,,,,,,,,,,,,
,,,,,,,,,,,,a,Incorrect,0,114,114,94,1,t5.png,t1.png,4,9.55E-11,18,Female,2020-11-14_16h36.57.117,torte-q,2020.1.3,Win32,60,14036,0.234755,,,,,,,,,,,,,,,,,,,,,,,,,,,,,,,,,,,,,,,,,,,,
,,,,,,,,,,,,l,Correct!,0,115,115,47,1,t4.png,t2.png,2,0.059078,18,Female,2020-11-14_16h36.57.117,torte-q,2020.1.3,Win32,60,14036,0.025555,,,,,,,,,,,,,,,,,,,,,,,,,,,,,,,,,,,,,,,,,,,,
,,,,,,,,,,,,a,Incorrect,0,116,116,59,1,t5.png,t4.png,1,0.9,18,Female,2020-11-14_16h36.57.117,torte-q,2020.1.3,Win32,60,14036,0.04899,,,,,,,,,,,,,,,,,,,,,,,,,,,,,,,,,,,,,,,,,,,,
,,,,,,,,,,,,a,Incorrect,0,117,117,99,1,t1.png,t5.png,4,9.55E-11,18,Female,2020-11-14_16h36.57.117,torte-q,2020.1.3,Win32,60,14036,0.48128,,,,,,,,,,,,,,,,,,,,,,,,,,,,,,,,,,,,,,,,,,,,
,,,,,,,,,,,,a,Incorrect,0,118,118,61,1,t1.png,t4.png,3,0.0000131,18,Female,2020-11-14_16h36.57.117,torte-q,2020.1.3,Win32,60,14036,0.21754,,,,,,,,,,,,,,,,,,,,,,,,,,,,,,,,,,,,,,,,,,,,
,,,,,,,,,,,,a,Correct!,0,119,119,41,1,t3.png,t2.png,1,0.90855,18,Female,2020-11-14_16h36.57.117,torte-q,2020.1.3,Win32,60,14036,0.52235,,,,,,,,,,,,,,,,,,,,,,,,,,,,,,,,,,,,,,,,,,,,
,,,,,,,,,,,,l,Incorrect,,,,,,t1.png,t3.png,2,0.056466,18,Female,2020-11-14_16h36.57.117,torte-q,2020.1.3,Win32,60,14036,0.48279,space,2.047465,space,14.07118,0,0,0,87,1,,,,,,,,,,,,,,,,,,,,,,,,,,,,,,,,,,,
,,,,,,,,,,,,l,Correct!,,,,,,t2.png,t5.png,3,0.0000131,18,Female,2020-11-14_16h36.57.117,torte-q,2020.1.3,Win32,60,14036,0.637575,,,,,0,1,1,40,1,,,,,,,,,,,,,,,,,,,,,,,,,,,,,,,,,,,
,,,,,,,,,,,,a,Incorrect,,,,,,t5.png,t1.png,4,9.55E-11,18,Female,2020-11-14_16h36.57.117,torte-q,2020.1.3,Win32,60,14036,0.51471,,,,,0,2,2,102,1,,,,,,,,,,,,,,,,,,,,,,,,,,,,,,,,,,,
,,,,,,,,,,,,a,Correct!,,,,,,t2.png,t1.png,1,0.90025,18,Female,2020-11-14_16h36.57.117,torte-q,2020.1.3,Win32,60,14036,0.5507,,,,,0,3,3,4,1,,,,,,,,,,,,,,,,,,,,,,,,,,,,,,,,,,,
,,,,,,,,,,,,a,Correct!,,,,,,t5.png,t5.png,0,0.978,18,Female,2020-11-14_16h36.57.117,torte-q,2020.1.3,Win32,60,14036,0.515135,,,,,0,4,4,117,1,,,,,,,,,,,,,,,,,,,,,,,,,,,,,,,,,,,
,,,,,,,,,,,,l,Incorrect,,,,,,t4.png,t4.png,0,0.98115,18,Female,2020-11-14_16h36.57.117,torte-q,2020.1.3,Win32,60,14036,0.634505,,,,,0,5,5,90,1,,,,,,,,,,,,,,,,,,,,,,,,,,,,,,,,,,,
,,,,,,,,,,,,l,Incorrect,,,,,,t1.png,t1.png,0,0.978,18,Female,2020-11-14_16h36.57.117,torte-q,2020.1.3,Win32,60,14036,0.339925,,,,,0,6,6,28,1,,,,,,,,,,,,,,,,,,,,,,,,,,,,,,,,,,,
,,,,,,,,,,,,l,Incorrect,,,,,,t1.png,t2.png,1,0.90025,18,Female,2020-11-14_16h36.57.117,torte-q,2020.1.3,Win32,60,14036,0.35197,,,,,0,7,7,105,1,,,,,,,,,,,,,,,,,,,,,,,,,,,,,,,,,,,
,,,,,,,,,,,,a,Incorrect,,,,,,t3.png,t5.png,2,0.0565,18,Female,2020-11-14_16h36.57.117,torte-q,2020.1.3,Win32,60,14036,0.39069,,,,,0,8,8,30,1,,,,,,,,,,,,,,,,,,,,,,,,,,,,,,,,,,,
,,,,,,,,,,,,l,Correct!,,,,,,t5.png,t2.png,3,0.0000131,18,Female,2020-11-14_16h36.57.117,torte-q,2020.1.3,Win32,60,14036,0.23997,,,,,0,9,9,119,1,,,,,,,,,,,,,,,,,,,,,,,,,,,,,,,,,,,
,,,,,,,,,,,,l,Correct!,,,,,,t5.png,t1.png,4,9.55E-11,18,Female,2020-11-14_16h36.57.117,torte-q,2020.1.3,Win32,60,14036,0.37243,,,,,0,10,10,43,1,,,,,,,,,,,,,,,,,,,,,,,,,,,,,,,,,,,
,,,,,,,,,,,,a,Correct!,,,,,,t3.png,t2.png,1,0.909,18,Female,2020-11-14_16h36.57.117,torte-q,2020.1.3,Win32,60,14036,0.563495,,,,,0,11,11,23,1,,,,,,,,,,,,,,,,,,,,,,,,,,,,,,,,,,,
,,,,,,,,,,,,a,Correct!,,,,,,t3.png,t2.png,1,0.90855,18,Female,2020-11-14_16h36.57.117,torte-q,2020.1.3,Win32,60,14036,0.42965,,,,,0,12,12,53,1,,,,,,,,,,,,,,,,,,,,,,,,,,,,,,,,,,,
,,,,,,,,,,,,a,Incorrect,,,,,,t4.png,t1.png,3,0.0000131,18,Female,2020-11-14_16h36.57.117,torte-q,2020.1.3,Win32,60,14036,0.47415,,,,,0,13,13,48,1,,,,,,,,,,,,,,,,,,,,,,,,,,,,,,,,,,,
,,,,,,,,,,,,l,Correct!,,,,,,t1.png,t4.png,3,0.0000131,18,Female,2020-11-14_16h36.57.117,torte-q,2020.1.3,Win32,60,14036,0.432285,,,,,0,14,14,50,1,,,,,,,,,,,,,,,,,,,,,,,,,,,,,,,,,,,
,,,,,,,,,,,,l,Incorrect,,,,,,t1.png,t1.png,0,0.97829,18,Female,2020-11-14_16h36.57.117,torte-q,2020.1.3,Win32,60,14036,0.2858,,,,,0,15,15,67,1,,,,,,,,,,,,,,,,,,,,,,,,,,,,,,,,,,,
,,,,,,,,,,,,a,Correct!,,,,,,t1.png,t2.png,1,0.90025,18,Female,2020-11-14_16h36.57.117,torte-q,2020.1.3,Win32,60,14036,0.399285,,,,,0,16,16,72,1,,,,,,,,,,,,,,,,,,,,,,,,,,,,,,,,,,,
,,,,,,,,,,,,a,Correct!,,,,,,t5.png,t5.png,0,0.97829,18,Female,2020-11-14_16h36.57.117,torte-q,2020.1.3,Win32,60,14036,0.349445,,,,,0,17,17,25,1,,,,,,,,,,,,,,,,,,,,,,,,,,,,,,,,,,,
,,,,,,,,,,,,l,Correct!,,,,,,t1.png,t4.png,3,0.0000131,18,Female,2020-11-14_16h36.57.117,torte-q,2020.1.3,Win32,60,14036,0.484315,,,,,0,18,18,17,1,,,,,,,,,,,,,,,,,,,,,,,,,,,,,,,,,,,
,,,,,,,,,,,,l,Incorrect,,,,,,t5.png,t5.png,0,0.97829,18,Female,2020-11-14_16h36.57.117,torte-q,2020.1.3,Win32,60,14036,0.338255,,,,,0,19,19,70,1,,,,,,,,,,,,,,,,,,,,,,,,,,,,,,,,,,,
,,,,,,,,,,,,a,Correct!,,,,,,t2.png,t1.png,1,0.90025,18,Female,2020-11-14_16h36.57.117,torte-q,2020.1.3,Win32,60,14036,0.41486,,,,,0,20,20,62,1,,,,,,,,,,,,,,,,,,,,,,,,,,,,,,,,,,,
,,,,,,,,,,,,l,Correct!,,,,,,t5.png,t3.png,2,0.056466,18,Female,2020-11-14_16h36.57.117,torte-q,2020.1.3,Win32,60,14036,0.265235,,,,,0,21,21,38,1,,,,,,,,,,,,,,,,,,,,,,,,,,,,,,,,,,,
,,,,,,,,,,,,a,Correct!,,,,,,t4.png,t5.png,1,0.90025,18,Female,2020-11-14_16h36.57.117,torte-q,2020.1.3,Win32,60,14036,0.905505,,,,,0,22,22,113,1,,,,,,,,,,,,,,,,,,,,,,,,,,,,,,,,,,,
,,,,,,,,,,,,a,Correct!,,,,,,t4.png,t2.png,2,0.059078,18,Female,2020-11-14_16h36.57.117,torte-q,2020.1.3,Win32,60,14036,0.415605,,,,,0,23,23,88,1,,,,,,,,,,,,,,,,,,,,,,,,,,,,,,,,,,,
,,,,,,,,,,,,l,Correct!,,,,,,t2.png,t5.png,3,0.0000131,18,Female,2020-11-14_16h36.57.117,torte-q,2020.1.3,Win32,60,14036,0.45636,,,,,0,24,24,104,1,,,,,,,,,,,,,,,,,,,,,,,,,,,,,,,,,,,
,,,,,,,,,,,,a,Incorrect,,,,,,t4.png,t1.png,3,0.0000131,18,Female,2020-11-14_16h36.57.117,torte-q,2020.1.3,Win32,60,14036,0.36557,,,,,0,25,25,13,1,,,,,,,,,,,,,,,,,,,,,,,,,,,,,,,,,,,
,,,,,,,,,,,,l,Correct!,,,,,,t1.png,t4.png,3,0.0000131,18,Female,2020-11-14_16h36.57.117,torte-q,2020.1.3,Win32,60,14036,0.42123,,,,,0,26,26,107,1,,,,,,,,,,,,,,,,,,,,,,,,,,,,,,,,,,,
,,,,,,,,,,,,a,Incorrect,,,,,,t5.png,t3.png,2,0.056466,18,Female,2020-11-14_16h36.57.117,torte-q,2020.1.3,Win32,60,14036,0.369085,,,,,0,27,27,108,1,,,,,,,,,,,,,,,,,,,,,,,,,,,,,,,,,,,
,,,,,,,,,,,,l,Incorrect,,,,,,t3.png,t4.png,1,0.90855,18,Female,2020-11-14_16h36.57.117,torte-q,2020.1.3,Win32,60,14036,0.336325,,,,,0,28,28,96,1,,,,,,,,,,,,,,,,,,,,,,,,,,,,,,,,,,,
,,,,,,,,,,,,l,Correct!,,,,,,t2.png,t1.png,1,0.90025,18,Female,2020-11-14_16h36.57.117,torte-q,2020.1.3,Win32,60,14036,0.381635,,,,,0,29,29,19,1,,,,,,,,,,,,,,,,,,,,,,,,,,,,,,,,,,,
,,,,,,,,,,,,a,Correct!,,,,,,t5.png,t5.png,0,0.97829,18,Female,2020-11-14_16h36.57.117,torte-q,2020.1.3,Win32,60,14036,0.398435,,,,,0,30,30,73,1,,,,,,,,,,,,,,,,,,,,,,,,,,,,,,,,,,,
,,,,,,,,,,,,a,Incorrect,,,,,,t4.png,t2.png,2,0.059078,18,Female,2020-11-14_16h36.57.117,torte-q,2020.1.3,Win32,60,14036,0.28764,,,,,0,31,31,109,1,,,,,,,,,,,,,,,,,,,,,,,,,,,,,,,,,,,
,,,,,,,,,,,,l,Incorrect,,,,,,t2.png,t3.png,1,0.909,18,Female,2020-11-14_16h36.57.117,torte-q,2020.1.3,Win32,60,14036,0.38965,,,,,0,32,32,74,1,,,,,,,,,,,,,,,,,,,,,,,,,,,,,,,,,,,
,,,,,,,,,,,,l,Incorrect,,,,,,t2.png,t1.png,1,0.90025,18,Female,2020-11-14_16h36.57.117,torte-q,2020.1.3,Win32,60,14036,0.308975,,,,,0,33,33,5,1,,,,,,,,,,,,,,,,,,,,,,,,,,,,,,,,,,,
,,,,,,,,,,,,l,Correct!,,,,,,t1.png,t5.png,4,9.55E-11,18,Female,2020-11-14_16h36.57.117,torte-q,2020.1.3,Win32,60,14036,0.455195,,,,,0,34,34,12,1,,,,,,,,,,,,,,,,,,,,,,,,,,,,,,,,,,,
,,,,,,,,,,,,l,Incorrect,,,,,,t2.png,t3.png,1,0.90855,18,Female,2020-11-14_16h36.57.117,torte-q,2020.1.3,Win32,60,14036,0.55516,,,,,0,35,35,10,1,,,,,,,,,,,,,,,,,,,,,,,,,,,,,,,,,,,
,,,,,,,,,,,,a,Incorrect,,,,,,t4.png,t2.png,2,0.059078,18,Female,2020-11-14_16h36.57.117,torte-q,2020.1.3,Win32,60,14036,0.3482,,,,,0,36,36,86,1,,,,,,,,,,,,,,,,,,,,,,,,,,,,,,,,,,,
,,,,,,,,,,,,l,Incorrect,,,,,,t2.png,t1.png,1,0.9,18,Female,2020-11-14_16h36.57.117,torte-q,2020.1.3,Win32,60,14036,0.334395,,,,,0,37,37,118,1,,,,,,,,,,,,,,,,,,,,,,,,,,,,,,,,,,,
,,,,,,,,,,,,l,Incorrect,,,,,,t2.png,t3.png,1,0.90855,18,Female,2020-11-14_16h36.57.117,torte-q,2020.1.3,Win32,60,14036,0.39875,,,,,0,38,38,68,1,,,,,,,,,,,,,,,,,,,,,,,,,,,,,,,,,,,
,,,,,,,,,,,,a,Correct!,,,,,,t4.png,t5.png,1,0.9,18,Female,2020-11-14_16h36.57.117,torte-q,2020.1.3,Win32,60,14036,0.415125,,,,,0,39,39,115,1,,,,,,,,,,,,,,,,,,,,,,,,,,,,,,,,,,,
,,,,,,,,,,,,a,Correct!,,,,,,t5.png,t4.png,1,0.90025,18,Female,2020-11-14_16h36.57.117,torte-q,2020.1.3,Win32,60,14036,0.5646,,,,,0,40,40,34,1,,,,,,,,,,,,,,,,,,,,,,,,,,,,,,,,,,,
,,,,,,,,,,,,a,Incorrect,,,,,,t3.png,t1.png,2,0.0565,18,Female,2020-11-14_16h36.57.117,torte-q,2020.1.3,Win32,60,14036,0.588705,,,,,0,41,41,31,1,,,,,,,,,,,,,,,,,,,,,,,,,,,,,,,,,,,
,,,,,,,,,,,,l,Incorrect,,,,,,t1.png,t1.png,0,0.97829,18,Female,2020-11-14_16h36.57.117,torte-q,2020.1.3,Win32,60,14036,0.481935,,,,,0,42,42,78,1,,,,,,,,,,,,,,,,,,,,,,,,,,,,,,,,,,,
,,,,,,,,,,,,l,Correct!,,,,,,t1.png,t4.png,3,0.0000131,18,Female,2020-11-14_16h36.57.117,torte-q,2020.1.3,Win32,60,14036,0.365225,,,,,0,43,43,92,1,,,,,,,,,,,,,,,,,,,,,,,,,,,,,,,,,,,
,,,,,,,,,,,,a,Incorrect,,,,,,t5.png,t1.png,4,9.55E-11,18,Female,2020-11-14_16h36.57.117,torte-q,2020.1.3,Win32,60,14036,0.40209,,,,,0,44,44,100,1,,,,,,,,,,,,,,,,,,,,,,,,,,,,,,,,,,,
,,,,,,,,,,,,a,Correct!,,,,,,t5.png,t4.png,1,0.9,18,Female,2020-11-14_16h36.57.117,torte-q,2020.1.3,Win32,60,14036,0.25421,,,,,0,45,45,76,1,,,,,,,,,,,,,,,,,,,,,,,,,,,,,,,,,,,
,,,,,,,,,,,,a,Correct!,,,,,,t5.png,t4.png,1,0.9,18,Female,2020-11-14_16h36.57.117,torte-q,2020.1.3,Win32,60,14036,0.551305,,,,,0,46,46,49,1,,,,,,,,,,,,,,,,,,,,,,,,,,,,,,,,,,,
,,,,,,,,,,,,a,Correct!,,,,,,t4.png,t4.png,0,0.98115,18,Female,2020-11-14_16h36.57.117,torte-q,2020.1.3,Win32,60,14036,0.351125,,,,,0,47,47,52,1,,,,,,,,,,,,,,,,,,,,,,,,,,,,,,,,,,,
,,,,,,,,,,,,l,Correct!,,,,,,t1.png,t4.png,3,0.0000131,18,Female,2020-11-14_16h36.57.117,torte-q,2020.1.3,Win32,60,14036,0.449075,,,,,0,48,48,81,1,,,,,,,,,,,,,,,,,,,,,,,,,,,,,,,,,,,
,,,,,,,,,,,,a,Incorrect,,,,,,t5.png,t2.png,3,0.0000131,18,Female,2020-11-14_16h36.57.117,torte-q,2020.1.3,Win32,60,14036,0.481805,,,,,0,49,49,51,1,,,,,,,,,,,,,,,,,,,,,,,,,,,,,,,,,,,
,,,,,,,,,,,,a,Correct!,,,,,,t3.png,t2.png,1,0.90855,18,Female,2020-11-14_16h36.57.117,torte-q,2020.1.3,Win32,60,14036,0.419175,,,,,0,50,50,97,1,,,,,,,,,,,,,,,,,,,,,,,,,,,,,,,,,,,
,,,,,,,,,,,,l,Correct!,,,,,,t2.png,t5.png,3,0.0000131,18,Female,2020-11-14_16h36.57.117,torte-q,2020.1.3,Win32,60,14036,0.460255,,,,,0,51,51,8,1,,,,,,,,,,,,,,,,,,,,,,,,,,,,,,,,,,,
,,,,,,,,,,,,a,Correct!,,,,,,t4.png,t3.png,1,0.90855,18,Female,2020-11-14_16h36.57.117,torte-q,2020.1.3,Win32,60,14036,0.448735,,,,,0,52,52,75,1,,,,,,,,,,,,,,,,,,,,,,,,,,,,,,,,,,,
,,,,,,,,,,,,a,Incorrect,,,,,,t4.png,t1.png,3,0.0000131,18,Female,2020-11-14_16h36.57.117,torte-q,2020.1.3,Win32,60,14036,0.371765,,,,,0,53,53,42,1,,,,,,,,,,,,,,,,,,,,,,,,,,,,,,,,,,,
,,,,,,,,,,,,l,Correct!,,,,,,t1.png,t5.png,4,9.55E-11,18,Female,2020-11-14_16h36.57.117,torte-q,2020.1.3,Win32,60,14036,0.35509,,,,,0,54,54,55,1,,,,,,,,,,,,,,,,,,,,,,,,,,,,,,,,,,,
,,,,,,,,,,,,l,Correct!,,,,,,t2.png,t4.png,2,0.059078,18,Female,2020-11-14_16h36.57.117,torte-q,2020.1.3,Win32,60,14036,0.449175,,,,,0,55,55,77,1,,,,,,,,,,,,,,,,,,,,,,,,,,,,,,,,,,,
,,,,,,,,,,,,l,Correct!,,,,,,t1.png,t3.png,2,0.056466,18,Female,2020-11-14_16h36.57.117,torte-q,2020.1.3,Win32,60,14036,0.500665,,,,,0,56,56,99,1,,,,,,,,,,,,,,,,,,,,,,,,,,,,,,,,,,,
,,,,,,,,,,,,a,Correct!,,,,,,t1.png,t1.png,0,0.97829,18,Female,2020-11-14_16h36.57.117,torte-q,2020.1.3,Win32,60,14036,0.375035,,,,,0,57,57,9,1,,,,,,,,,,,,,,,,,,,,,,,,,,,,,,,,,,,
,,,,,,,,,,,,a,Incorrect,,,,,,t3.png,t1.png,2,0.056466,18,Female,2020-11-14_16h36.57.117,torte-q,2020.1.3,Win32,60,14036,0.400115,,,,,0,58,58,29,1,,,,,,,,,,,,,,,,,,,,,,,,,,,,,,,,,,,
,,,,,,,,,,,,a,Correct!,,,,,,t5.png,t5.png,0,0.97829,18,Female,2020-11-14_16h36.57.117,torte-q,2020.1.3,Win32,60,14036,0.38762,,,,,0,59,59,94,1,,,,,,,,,,,,,,,,,,,,,,,,,,,,,,,,,,,
,,,,,,,,,,,,a,Correct!,,,,,,t4.png,t4.png,0,0.98115,18,Female,2020-11-14_16h36.57.117,torte-q,2020.1.3,Win32,60,14036,0.239475,,,,,0,60,60,80,1,,,,,,,,,,,,,,,,,,,,,,,,,,,,,,,,,,,
,,,,,,,,,,,,a,Incorrect,,,,,,t3.png,t1.png,2,0.056466,18,Female,2020-11-14_16h36.57.117,torte-q,2020.1.3,Win32,60,14036,0.305295,,,,,0,61,61,32,1,,,,,,,,,,,,,,,,,,,,,,,,,,,,,,,,,,,
,,,,,,,,,,,,l,Incorrect,,,,,,t3.png,t4.png,1,0.909,18,Female,2020-11-14_16h36.57.117,torte-q,2020.1.3,Win32,60,14036,0.38204,,,,,0,62,62,106,1,,,,,,,,,,,,,,,,,,,,,,,,,,,,,,,,,,,
,,,,,,,,,,,,l,Correct!,,,,,,t3.png,t1.png,2,0.056466,18,Female,2020-11-14_16h36.57.117,torte-q,2020.1.3,Win32,60,14036,0.235715,,,,,0,63,63,64,1,,,,,,,,,,,,,,,,,,,,,,,,,,,,,,,,,,,
,,,,,,,,,,,,l,Incorrect,,,,,,t4.png,t3.png,1,0.909,18,Female,2020-11-14_16h36.57.117,torte-q,2020.1.3,Win32,60,14036,0.24001,,,,,0,64,64,46,1,,,,,,,,,,,,,,,,,,,,,,,,,,,,,,,,,,,
,,,,,,,,,,,,l,Correct!,,,,,,t1.png,t3.png,2,0.056466,18,Female,2020-11-14_16h36.57.117,torte-q,2020.1.3,Win32,60,14036,0.38662,,,,,0,65,65,69,1,,,,,,,,,,,,,,,,,,,,,,,,,,,,,,,,,,,
,,,,,,,,,,,,l,Correct!,,,,,,t1.png,t3.png,2,0.056466,18,Female,2020-11-14_16h36.57.117,torte-q,2020.1.3,Win32,60,14036,0.251755,,,,,0,66,66,60,1,,,,,,,,,,,,,,,,,,,,,,,,,,,,,,,,,,,
,,,,,,,,,,,,l,Correct!,,,,,,t5.png,t3.png,2,0.056466,18,Female,2020-11-14_16h36.57.117,torte-q,2020.1.3,Win32,60,14036,0.27211,,,,,0,67,67,56,1,,,,,,,,,,,,,,,,,,,,,,,,,,,,,,,,,,,
,,,,,,,,,,,,l,Incorrect,,,,,,t1.png,t2.png,1,0.9,18,Female,2020-11-14_16h36.57.117,torte-q,2020.1.3,Win32,60,14036,0.33555,,,,,0,68,68,1,1,,,,,,,,,,,,,,,,,,,,,,,,,,,,,,,,,,,
,,,,,,,,,,,,l,Correct!,,,,,,t1.png,t5.png,4,9.55E-11,18,Female,2020-11-14_16h36.57.117,torte-q,2020.1.3,Win32,60,14036,0.27109,,,,,0,69,69,85,1,,,,,,,,,,,,,,,,,,,,,,,,,,,,,,,,,,,
,,,,,,,,,,,,l,Incorrect,,,,,,t4.png,t5.png,1,0.90025,18,Female,2020-11-14_16h36.57.117,torte-q,2020.1.3,Win32,60,14036,0.290005,,,,,0,70,70,47,1,,,,,,,,,,,,,,,,,,,,,,,,,,,,,,,,,,,
,,,,,,,,,,,,a,Incorrect,,,,,,t5.png,t2.png,3,0.0000131,18,Female,2020-11-14_16h36.57.117,torte-q,2020.1.3,Win32,60,14036,0.45365,,,,,0,71,71,116,1,,,,,,,,,,,,,,,,,,,,,,,,,,,,,,,,,,,
,,,,,,,,,,,,l,Incorrect,,,,,,t2.png,t3.png,1,0.90855,18,Female,2020-11-14_16h36.57.117,torte-q,2020.1.3,Win32,60,14036,0.41183,,,,,0,72,72,111,1,,,,,,,,,,,,,,,,,,,,,,,,,,,,,,,,,,,
,,,,,,,,,,,,a,Incorrect,,,,,,t3.png,t1.png,2,0.056466,18,Female,2020-11-14_16h36.57.117,torte-q,2020.1.3,Win32,60,14036,0.36545,,,,,0,73,73,0,1,,,,,,,,,,,,,,,,,,,,,,,,,,,,,,,,,,,
,,,,,,,,,,,,l,Incorrect,,,,,,t4.png,t5.png,1,0.90025,18,Female,2020-11-14_16h36.57.117,torte-q,2020.1.3,Win32,60,14036,0.86928,,,,,0,74,74,58,1,,,,,,,,,,,,,,,,,,,,,,,,,,,,,,,,,,,
,,,,,,,,,,,,l,Incorrect,,,,,,t2.png,t2.png,0,0.98115,18,Female,2020-11-14_16h36.57.117,torte-q,2020.1.3,Win32,60,14036,0.436515,,,,,0,75,75,2,1,,,,,,,,,,,,,,,,,,,,,,,,,,,,,,,,,,,
,,,,,,,,,,,,l,Correct!,,,,,,t2.png,t4.png,2,0.059078,18,Female,2020-11-14_16h36.57.117,torte-q,2020.1.3,Win32,60,14036,0.370695,,,,,0,76,76,24,1,,,,,,,,,,,,,,,,,,,,,,,,,,,,,,,,,,,
,,,,,,,,,,,,a,Incorrect,,,,,,t4.png,t2.png,2,0.0591,18,Female,2020-11-14_16h36.57.117,torte-q,2020.1.3,Win32,60,14036,0.340935,,,,,0,77,77,36,1,,,,,,,,,,,,,,,,,,,,,,,,,,,,,,,,,,,
,,,,,,,,,,,,a,Correct!,,,,,,t5.png,t4.png,1,0.90025,18,Female,2020-11-14_16h36.57.117,torte-q,2020.1.3,Win32,60,14036,0.335955,,,,,0,78,78,27,1,,,,,,,,,,,,,,,,,,,,,,,,,,,,,,,,,,,
,,,,,,,,,,,,l,Incorrect,,,,,,t1.png,t2.png,1,0.90025,18,Female,2020-11-14_16h36.57.117,torte-q,2020.1.3,Win32,60,14036,0.390675,,,,,0,79,79,33,1,,,,,,,,,,,,,,,,,,,,,,,,,,,,,,,,,,,
,,,,,,,,,,,,a,Incorrect,,,,,,t5.png,t1.png,4,9.55E-11,18,Female,2020-11-14_16h36.57.117,torte-q,2020.1.3,Win32,60,14036,0.515775,,,,,0,80,80,22,1,,,,,,,,,,,,,,,,,,,,,,,,,,,,,,,,,,,
,,,,,,,,,,,,a,Incorrect,,,,,,t5.png,t1.png,4,9.55E-11,18,Female,2020-11-14_16h36.57.117,torte-q,2020.1.3,Win32,60,14036,0.381115,,,,,0,81,81,71,1,,,,,,,,,,,,,,,,,,,,,,,,,,,,,,,,,,,
,,,,,,,,,,,,l,Incorrect,,,,,,t2.png,t2.png,0,0.98115,18,Female,2020-11-14_16h36.57.117,torte-q,2020.1.3,Win32,60,14036,0.35478,,,,,0,82,82,7,1,,,,,,,,,,,,,,,,,,,,,,,,,,,,,,,,,,,
,,,,,,,,,,,,a,Incorrect,,,,,,t5.png,t2.png,3,0.0000131,18,Female,2020-11-14_16h36.57.117,torte-q,2020.1.3,Win32,60,14036,0.35392,,,,,0,83,83,91,1,,,,,,,,,,,,,,,,,,,,,,,,,,,,,,,,,,,
,,,,,,,,,,,,a,Correct!,,,,,,t4.png,t3.png,1,0.90855,18,Female,2020-11-14_16h36.57.117,torte-q,2020.1.3,Win32,60,14036,0.252905,,,,,0,84,84,35,1,,,,,,,,,,,,,,,,,,,,,,,,,,,,,,,,,,,
,,,,,,,,,,,,a,Correct!,,,,,,t4.png,t4.png,0,0.98115,18,Female,2020-11-14_16h36.57.117,torte-q,2020.1.3,Win32,60,14036,0.236255,,,,,0,85,85,79,1,,,,,,,,,,,,,,,,,,,,,,,,,,,,,,,,,,,
,,,,,,,,,,,,a,Incorrect,,,,,,t5.png,t3.png,2,0.056466,18,Female,2020-11-14_16h36.57.117,torte-q,2020.1.3,Win32,60,14036,0.50098,,,,,0,86,86,114,1,,,,,,,,,,,,,,,,,,,,,,,,,,,,,,,,,,,
,,,,,,,,,,,,l,Correct!,,,,,,t1.png,t5.png,4,9.55E-11,18,Female,2020-11-14_16h36.57.117,torte-q,2020.1.3,Win32,60,14036,0.43523,,,,,0,87,87,41,1,,,,,,,,,,,,,,,,,,,,,,,,,,,,,,,,,,,
,,,,,,,,,,,,l,Correct!,,,,,,t2.png,t4.png,2,0.059078,18,Female,2020-11-14_16h36.57.117,torte-q,2020.1.3,Win32,60,14036,0.39668,,,,,0,88,88,11,1,,,,,,,,,,,,,,,,,,,,,,,,,,,,,,,,,,,
,,,,,,,,,,,,a,Incorrect,,,,,,t4.png,t1.png,3,0.0000131,18,Female,2020-11-14_16h36.57.117,torte-q,2020.1.3,Win32,60,14036,0.51542,,,,,0,89,89,61,1,,,,,,,,,,,,,,,,,,,,,,,,,,,,,,,,,,,
,,,,,,,,,,,,a,Incorrect,,,,,,t4.png,t1.png,3,0.0000131,18,Female,2020-11-14_16h36.57.117,torte-q,2020.1.3,Win32,60,14036,0.292705,,,,,0,90,90,93,1,,,,,,,,,,,,,,,,,,,,,,,,,,,,,,,,,,,
,,,,,,,,,,,,l,Correct!,,,,,,t3.png,t5.png,2,0.056466,18,Female,2020-11-14_16h36.57.117,torte-q,2020.1.3,Win32,60,14036,0.30949,,,,,0,91,91,6,1,,,,,,,,,,,,,,,,,,,,,,,,,,,,,,,,,,,
,,,,,,,,,,,,l,Correct!,,,,,,t2.png,t5.png,3,0.0000131,18,Female,2020-11-14_16h36.57.117,torte-q,2020.1.3,Win32,60,14036,0.405745,,,,,0,92,92,66,1,,,,,,,,,,,,,,,,,,,,,,,,,,,,,,,,,,,
,,,,,,,,,,,,l,Correct!,,,,,,t3.png,t5.png,2,0.056466,18,Female,2020-11-14_16h36.57.117,torte-q,2020.1.3,Win32,60,14036,0.36905,,,,,0,93,93,14,1,,,,,,,,,,,,,,,,,,,,,,,,,,,,,,,,,,,
,,,,,,,,,,,,a,Incorrect,,,,,,t5.png,t3.png,2,0.0565,18,Female,2020-11-14_16h36.57.117,torte-q,2020.1.3,Win32,60,14036,0.423095,,,,,0,94,94,39,1,,,,,,,,,,,,,,,,,,,,,,,,,,,,,,,,,,,
,,,,,,,,,,,,l,Incorrect,,,,,,t1.png,t1.png,0,0.978,18,Female,2020-11-14_16h36.57.117,torte-q,2020.1.3,Win32,60,14036,0.3691,,,,,0,95,95,54,1,,,,,,,,,,,,,,,,,,,,,,,,,,,,,,,,,,,
,,,,,,,,,,,,a,Correct!,,,,,,t4.png,t5.png,1,0.90025,18,Female,2020-11-14_16h36.57.117,torte-q,2020.1.3,Win32,60,14036,0.189235,,,,,0,96,96,103,1,,,,,,,,,,,,,,,,,,,,,,,,,,,,,,,,,,,
,,,,,,,,,,,,a,Incorrect,,,,,,t4.png,t2.png,2,0.059078,18,Female,2020-11-14_16h36.57.117,torte-q,2020.1.3,Win32,60,14036,0.22059,,,,,0,97,97,110,1,,,,,,,,,,,,,,,,,,,,,,,,,,,,,,,,,,,
,,,,,,,,,,,,l,Correct!,,,,,,t1.png,t5.png,4,9.55E-11,18,Female,2020-11-14_16h36.57.117,torte-q,2020.1.3,Win32,60,14036,0.34907,,,,,0,98,98,16,1,,,,,,,,,,,,,,,,,,,,,,,,,,,,,,,,,,,
,,,,,,,,,,,,a,Correct!,,,,,,t2.png,t2.png,0,0.98115,18,Female,2020-11-14_16h36.57.117,torte-q,2020.1.3,Win32,60,14036,0.598625,,,,,0,99,99,57,1,,,,,,,,,,,,,,,,,,,,,,,,,,,,,,,,,,,
,,,,,,,,,,,,a,Incorrect,,,,,,t5.png,t2.png,3,0.0000131,18,Female,2020-11-14_16h36.57.117,torte-q,2020.1.3,Win32,60,14036,0.30138,,,,,0,100,100,98,1,,,,,,,,,,,,,,,,,,,,,,,,,,,,,,,,,,,
,,,,,,,,,,,,a,Correct!,,,,,,t4.png,t3.png,1,0.909,18,Female,2020-11-14_16h36.57.117,torte-q,2020.1.3,Win32,60,14036,0.25108,,,,,0,101,101,20,1,,,,,,,,,,,,,,,,,,,,,,,,,,,,,,,,,,,
,,,,,,,,,,,,l,Incorrect,,,,,,t2.png,t2.png,0,0.98115,18,Female,2020-11-14_16h36.57.117,torte-q,2020.1.3,Win32,60,14036,0.548885,,,,,0,102,102,59,1,,,,,,,,,,,,,,,,,,,,,,,,,,,,,,,,,,,
,,,,,,,,,,,,a,Correct!,,,,,,t5.png,t4.png,1,0.90025,18,Female,2020-11-14_16h36.57.117,torte-q,2020.1.3,Win32,60,14036,0.43201,,,,,0,103,103,26,1,,,,,,,,,,,,,,,,,,,,,,,,,,,,,,,,,,,
,,,,,,,,,,,,l,Incorrect,,,,,,t4.png,t4.png,0,0.98115,18,Female,2020-11-14_16h36.57.117,torte-q,2020.1.3,Win32,60,14036,0.304255,,,,,0,104,104,21,1,,,,,,,,,,,,,,,,,,,,,,,,,,,,,,,,,,,
,,,,,,,,,,,,l,Correct!,,,,,,t2.png,t4.png,2,0.0591,18,Female,2020-11-14_16h36.57.117,torte-q,2020.1.3,Win32,60,14036,0.290335,,,,,0,105,105,15,1,,,,,,,,,,,,,,,,,,,,,,,,,,,,,,,,,,,
,,,,,,,,,,,,a,Correct!,,,,,,t3.png,t2.png,1,0.909,18,Female,2020-11-14_16h36.57.117,torte-q,2020.1.3,Win32,60,14036,0.30611,,,,,0,106,106,3,1,,,,,,,,,,,,,,,,,,,,,,,,,,,,,,,,,,,
,,,,,,,,,,,,l,Correct!,,,,,,t3.png,t5.png,2,0.056466,18,Female,2020-11-14_16h36.57.117,torte-q,2020.1.3,Win32,60,14036,0.265275,,,,,0,107,107,44,1,,,,,,,,,,,,,,,,,,,,,,,,,,,,,,,,,,,
,,,,,,,,,,,,l,Correct!,,,,,,t1.png,t3.png,2,0.056466,18,Female,2020-11-14_16h36.57.117,torte-q,2020.1.3,Win32,60,14036,0.388625,,,,,0,108,108,63,1,,,,,,,,,,,,,,,,,,,,,,,,,,,,,,,,,,,
,,,,,,,,,,,,l,Incorrect,,,,,,t2.png,t3.png,1,0.90855,18,Female,2020-11-14_16h36.57.117,torte-q,2020.1.3,Win32,60,14036,0.292495,,,,,0,109,109,65,1,,,,,,,,,,,,,,,,,,,,,,,,,,,,,,,,,,,
,,,,,,,,,,,,l,Incorrect,,,,,,t2.png,t2.png,0,0.981,18,Female,2020-11-14_16h36.57.117,torte-q,2020.1.3,Win32,60,14036,0.532745,,,,,0,110,110,101,1,,,,,,,,,,,,,,,,,,,,,,,,,,,,,,,,,,,
,,,,,,,,,,,,l,Incorrect,,,,,,t3.png,t4.png,1,0.90855,18,Female,2020-11-14_16h36.57.117,torte-q,2020.1.3,Win32,60,14036,0.215685,,,,,0,111,111,84,1,,,,,,,,,,,,,,,,,,,,,,,,,,,,,,,,,,,
,,,,,,,,,,,,l,Correct!,,,,,,t3.png,t5.png,2,0.0565,18,Female,2020-11-14_16h36.57.117,torte-q,2020.1.3,Win32,60,14036,0.30724,,,,,0,112,112,83,1,,,,,,,,,,,,,,,,,,,,,,,,,,,,,,,,,,,
,,,,,,,,,,,,l,Incorrect,,,,,,t4.png,t3.png,1,0.90855,18,Female,2020-11-14_16h36.57.117,torte-q,2020.1.3,Win32,60,14036,0.241865,,,,,0,113,113,45,1,,,,,,,,,,,,,,,,,,,,,,,,,,,,,,,,,,,
,,,,,,,,,,,,l,Incorrect,,,,,,t3.png,t4.png,1,0.909,18,Female,2020-11-14_16h36.57.117,torte-q,2020.1.3,Win32,60,14036,0.27473,,,,,0,114,114,82,1,,,,,,,,,,,,,,,,,,,,,,,,,,,,,,,,,,,
,,,,,,,,,,,,l,Correct!,,,,,,t2.png,t5.png,3,0.0000131,18,Female,2020-11-14_16h36.57.117,torte-q,2020.1.3,Win32,60,14036,0.351475,,,,,0,115,115,95,1,,,,,,,,,,,,,,,,,,,,,,,,,,,,,,,,,,,
,,,,,,,,,,,,l,Incorrect,,,,,,t1.png,t2.png,1,0.90025,18,Female,2020-11-14_16h36.57.117,torte-q,2020.1.3,Win32,60,14036,0.299945,,,,,0,116,116,112,1,,,,,,,,,,,,,,,,,,,,,,,,,,,,,,,,,,,
,,,,,,,,,,,,l,Correct!,,,,,,t2.png,t4.png,2,0.059078,18,Female,2020-11-14_16h36.57.117,torte-q,2020.1.3,Win32,60,14036,0.28845,,,,,0,117,117,37,1,,,,,,,,,,,,,,,,,,,,,,,,,,,,,,,,,,,
,,,,,,,,,,,,l,Incorrect,,,,,,t3.png,t4.png,1,0.909,18,Female,2020-11-14_16h36.57.117,torte-q,2020.1.3,Win32,60,14036,0.222185,,,,,0,118,118,89,1,,,,,,,,,,,,,,,,,,,,,,,,,,,,,,,,,,,
,,,,,,,,,,,,l,Correct!,,,,,,t3.png,t2.png,1,0.90855,18,Female,2020-11-14_16h36.57.117,torte-q,2020.1.3,Win32,60,14036,0.386585,,,,,0,119,119,18,1,,,,,,,,,,,,,,,,,,,,,,,,,,,,,,,,,,,
,,,,,,,,,,,,a,Incorrect,,,,,,t4.png,t2.png,2,0.059078,18,Female,2020-11-14_16h36.57.117,torte-q,2020.1.3,Win32,60,14036,1.27473,space,4.85763,,,,,,,,space,21.464065,space,10.69034,0,0,0,88,1,,,,,,,,,,,,,,,,,,,,,,,,,,
,,,,,,,,,,,,l,Correct!,,,,,,t1.png,t3.png,2,0.056466,18,Female,2020-11-14_16h36.57.117,torte-q,2020.1.3,Win32,60,14036,0.571555,,,,,,,,,,,,,,0,1,1,87,1,,,,,,,,,,,,,,,,,,,,,,,,,,
,,,,,,,,,,,,a,Incorrect,,,,,,t4.png,t1.png,3,0.0000131,18,Female,2020-11-14_16h36.57.117,torte-q,2020.1.3,Win32,60,14036,0.41552,,,,,,,,,,,,,,0,2,2,93,1,,,,,,,,,,,,,,,,,,,,,,,,,,
,,,,,,,,,,,,a,Incorrect,,,,,,t4.png,t2.png,2,0.059078,18,Female,2020-11-14_16h36.57.117,torte-q,2020.1.3,Win32,60,14036,0.23725,,,,,,,,,,,,,,0,3,3,110,1,,,,,,,,,,,,,,,,,,,,,,,,,,
,,,,,,,,,,,,a,Incorrect,,,,,,t1.png,t4.png,3,0.0000131,18,Female,2020-11-14_16h36.57.117,torte-q,2020.1.3,Win32,60,14036,0.245535,,,,,,,,,,,,,,0,4,4,107,1,,,,,,,,,,,,,,,,,,,,,,,,,,
,,,,,,,,,,,,l,Correct!,,,,,,t1.png,t5.png,4,9.55E-11,18,Female,2020-11-14_16h36.57.117,torte-q,2020.1.3,Win32,60,14036,0.182285,,,,,,,,,,,,,,0,5,5,12,1,,,,,,,,,,,,,,,,,,,,,,,,,,
,,,,,,,,,,,,l,Correct!,,,,,,t1.png,t3.png,2,0.056466,18,Female,2020-11-14_16h36.57.117,torte-q,2020.1.3,Win32,60,14036,0.252995,,,,,,,,,,,,,,0,6,6,60,1,,,,,,,,,,,,,,,,,,,,,,,,,,
,,,,,,,,,,,,l,Incorrect,,,,,,t4.png,t5.png,1,0.90025,18,Female,2020-11-14_16h36.57.117,torte-q,2020.1.3,Win32,60,14036,0.673445,,,,,,,,,,,,,,0,7,7,113,1,,,,,,,,,,,,,,,,,,,,,,,,,,
,,,,,,,,,,,,a,Incorrect,,,,,,t3.png,t1.png,2,0.056466,18,Female,2020-11-14_16h36.57.117,torte-q,2020.1.3,Win32,60,14036,0.356615,,,,,,,,,,,,,,0,8,8,29,1,,,,,,,,,,,,,,,,,,,,,,,,,,
,,,,,,,,,,,,l,Incorrect,,,,,,t5.png,t4.png,1,0.90025,18,Female,2020-11-14_16h36.57.117,torte-q,2020.1.3,Win32,60,14036,0.475455,,,,,,,,,,,,,,0,9,9,26,1,,,,,,,,,,,,,,,,,,,,,,,,,,
,,,,,,,,,,,,l,Incorrect,,,,,,t4.png,t5.png,1,0.90025,18,Female,2020-11-14_16h36.57.117,torte-q,2020.1.3,Win32,60,14036,0.332865,,,,,,,,,,,,,,0,10,10,47,1,,,,,,,,,,,,,,,,,,,,,,,,,,
,,,,,,,,,,,,a,Correct!,,,,,,t3.png,t2.png,1,0.90855,18,Female,2020-11-14_16h36.57.117,torte-q,2020.1.3,Win32,60,14036,0.44359,,,,,,,,,,,,,,0,11,11,18,1,,,,,,,,,,,,,,,,,,,,,,,,,,
,,,,,,,,,,,,l,Correct!,,,,,,t3.png,t5.png,2,0.056466,18,Female,2020-11-14_16h36.57.117,torte-q,2020.1.3,Win32,60,14036,0.354285,,,,,,,,,,,,,,0,12,12,6,1,,,,,,,,,,,,,,,,,,,,,,,,,,
,,,,,,,,,,,,l,Correct!,,,,,,t2.png,t5.png,3,0.0000131,18,Female,2020-11-14_16h36.57.117,torte-q,2020.1.3,Win32,60,14036,0.389495,,,,,,,,,,,,,,0,13,13,66,1,,,,,,,,,,,,,,,,,,,,,,,,,,
,,,,,,,,,,,,l,Correct!,,,,,,t2.png,t4.png,2,0.059078,18,Female,2020-11-14_16h36.57.117,torte-q,2020.1.3,Win32,60,14036,0.520345,,,,,,,,,,,,,,0,14,14,11,1,,,,,,,,,,,,,,,,,,,,,,,,,,
,,,,,,,,,,,,a,Correct!,,,,,,t3.png,t2.png,1,0.90855,18,Female,2020-11-14_16h36.57.117,torte-q,2020.1.3,Win32,60,14036,0.653125,,,,,,,,,,,,,,0,15,15,53,1,,,,,,,,,,,,,,,,,,,,,,,,,,
,,,,,,,,,,,,l,Incorrect,,,,,,t3.png,t4.png,1,0.909,18,Female,2020-11-14_16h36.57.117,torte-q,2020.1.3,Win32,60,14036,0.415395,,,,,,,,,,,,,,0,16,16,82,1,,,,,,,,,,,,,,,,,,,,,,,,,,
,,,,,,,,,,,,l,Incorrect,,,,,,t2.png,t1.png,1,0.90025,18,Female,2020-11-14_16h36.57.117,torte-q,2020.1.3,Win32,60,14036,0.77028,,,,,,,,,,,,,,0,17,17,62,1,,,,,,,,,,,,,,,,,,,,,,,,,,
,,,,,,,,,,,,l,Incorrect,,,,,,t2.png,t1.png,1,0.90025,18,Female,2020-11-14_16h36.57.117,torte-q,2020.1.3,Win32,60,14036,0.419145,,,,,,,,,,,,,,0,18,18,5,1,,,,,,,,,,,,,,,,,,,,,,,,,,
,,,,,,,,,,,,l,Correct!,,,,,,t4.png,t1.png,3,0.0000131,18,Female,2020-11-14_16h36.57.117,torte-q,2020.1.3,Win32,60,14036,0.499655,,,,,,,,,,,,,,0,19,19,13,1,,,,,,,,,,,,,,,,,,,,,,,,,,
,,,,,,,,,,,,l,Correct!,,,,,,t1.png,t3.png,2,0.056466,18,Female,2020-11-14_16h36.57.117,torte-q,2020.1.3,Win32,60,14036,0.567595,,,,,,,,,,,,,,0,20,20,69,1,,,,,,,,,,,,,,,,,,,,,,,,,,
,,,,,,,,,,,,a,Incorrect,,,,,,t5.png,t1.png,4,9.55E-11,18,Female,2020-11-14_16h36.57.117,torte-q,2020.1.3,Win32,60,14036,0.442205,,,,,,,,,,,,,,0,21,21,100,1,,,,,,,,,,,,,,,,,,,,,,,,,,
,,,,,,,,,,,,l,Correct!,,,,,,t2.png,t4.png,2,0.059078,18,Female,2020-11-14_16h36.57.117,torte-q,2020.1.3,Win32,60,14036,0.417395,,,,,,,,,,,,,,0,22,22,37,1,,,,,,,,,,,,,,,,,,,,,,,,,,
,,,,,,,,,,,,a,Incorrect,,,,,,t5.png,t2.png,3,0.0000131,18,Female,2020-11-14_16h36.57.117,torte-q,2020.1.3,Win32,60,14036,0.301715,,,,,,,,,,,,,,0,23,23,116,1,,,,,,,,,,,,,,,,,,,,,,,,,,
,,,,,,,,,,,,l,Correct!,,,,,,t2.png,t5.png,3,0.0000131,18,Female,2020-11-14_16h36.57.117,torte-q,2020.1.3,Win32,60,14036,0.44371,,,,,,,,,,,,,,0,24,24,95,1,,,,,,,,,,,,,,,,,,,,,,,,,,
,,,,,,,,,,,,l,Incorrect,,,,,,t3.png,t4.png,1,0.909,18,Female,2020-11-14_16h36.57.117,torte-q,2020.1.3,Win32,60,14036,0.398275,,,,,,,,,,,,,,0,25,25,106,1,,,,,,,,,,,,,,,,,,,,,,,,,,
,,,,,,,,,,,,l,Incorrect,,,,,,t1.png,t3.png,2,0.056466,18,Female,2020-11-14_16h36.57.117,torte-q,2020.1.3,Win32,60,14036,0.33987,,,,,,,,,,,,,,0,26,26,63,1,,,,,,,,,,,,,,,,,,,,,,,,,,
,,,,,,,,,,,,l,Correct!,,,,,,t2.png,t4.png,2,0.059078,18,Female,2020-11-14_16h36.57.117,torte-q,2020.1.3,Win32,60,14036,0.331105,,,,,,,,,,,,,,0,27,27,77,1,,,,,,,,,,,,,,,,,,,,,,,,,,
,,,,,,,,,,,,l,Correct!,,,,,,t3.png,t5.png,2,0.0565,18,Female,2020-11-14_16h36.57.117,torte-q,2020.1.3,Win32,60,14036,0.33565,,,,,,,,,,,,,,0,28,28,30,1,,,,,,,,,,,,,,,,,,,,,,,,,,
,,,,,,,,,,,,l,Correct!,,,,,,t5.png,t3.png,2,0.056466,18,Female,2020-11-14_16h36.57.117,torte-q,2020.1.3,Win32,60,14036,0.43203,,,,,,,,,,,,,,0,29,29,38,1,,,,,,,,,,,,,,,,,,,,,,,,,,
,,,,,,,,,,,,a,Incorrect,,,,,,t5.png,t1.png,4,9.55E-11,18,Female,2020-11-14_16h36.57.117,torte-q,2020.1.3,Win32,60,14036,0.36561,,,,,,,,,,,,,,0,30,30,102,1,,,,,,,,,,,,,,,,,,,,,,,,,,
,,,,,,,,,,,,l,Correct!,,,,,,t2.png,t5.png,3,0.0000131,18,Female,2020-11-14_16h36.57.117,torte-q,2020.1.3,Win32,60,14036,0.435705,,,,,,,,,,,,,,0,31,31,104,1,,,,,,,,,,,,,,,,,,,,,,,,,,
,,,,,,,,,,,,l,Incorrect,,,,,,t5.png,t5.png,0,0.97829,18,Female,2020-11-14_16h36.57.117,torte-q,2020.1.3,Win32,60,14036,0.315455,,,,,,,,,,,,,,0,32,32,70,1,,,,,,,,,,,,,,,,,,,,,,,,,,
,,,,,,,,,,,,a,Correct!,,,,,,t4.png,t5.png,1,0.9,18,Female,2020-11-14_16h36.57.117,torte-q,2020.1.3,Win32,60,14036,0.419375,,,,,,,,,,,,,,0,33,33,115,1,,,,,,,,,,,,,,,,,,,,,,,,,,
,,,,,,,,,,,,a,Correct!,,,,,,t4.png,t4.png,0,0.98115,18,Female,2020-11-14_16h36.57.117,torte-q,2020.1.3,Win32,60,14036,0.55437,,,,,,,,,,,,,,0,34,34,52,1,,,,,,,,,,,,,,,,,,,,,,,,,,
,,,,,,,,,,,,l,Incorrect,,,,,,t5.png,t4.png,1,0.9,18,Female,2020-11-14_16h36.57.117,torte-q,2020.1.3,Win32,60,14036,0.291575,,,,,,,,,,,,,,0,35,35,49,1,,,,,,,,,,,,,,,,,,,,,,,,,,
,,,,,,,,,,,,l,Incorrect,,,,,,t2.png,t2.png,0,0.98115,18,Female,2020-11-14_16h36.57.117,torte-q,2020.1.3,Win32,60,14036,1.2686,,,,,,,,,,,,,,0,36,36,59,1,,,,,,,,,,,,,,,,,,,,,,,,,,
,,,,,,,,,,,,a,Correct!,,,,,,t4.png,t4.png,0,0.98115,18,Female,2020-11-14_16h36.57.117,torte-q,2020.1.3,Win32,60,14036,0.332915,,,,,,,,,,,,,,0,37,37,21,1,,,,,,,,,,,,,,,,,,,,,,,,,,
,,,,,,,,,,,,l,Incorrect,,,,,,t1.png,t1.png,0,0.978,18,Female,2020-11-14_16h36.57.117,torte-q,2020.1.3,Win32,60,14036,0.449545,,,,,,,,,,,,,,0,38,38,54,1,,,,,,,,,,,,,,,,,,,,,,,,,,
,,,,,,,,,,,,a,Correct!,,,,,,t5.png,t5.png,0,0.97829,18,Female,2020-11-14_16h36.57.117,torte-q,2020.1.3,Win32,60,14036,0.17566,,,,,,,,,,,,,,0,39,39,25,1,,,,,,,,,,,,,,,,,,,,,,,,,,
,,,,,,,,,,,,l,Incorrect,,,,,,t3.png,t2.png,1,0.909,18,Female,2020-11-14_16h36.57.117,torte-q,2020.1.3,Win32,60,14036,0.3019,,,,,,,,,,,,,,0,40,40,3,1,,,,,,,,,,,,,,,,,,,,,,,,,,
,,,,,,,,,,,,l,Correct!,,,,,,t2.png,t5.png,3,0.0000131,18,Female,2020-11-14_16h36.57.117,torte-q,2020.1.3,Win32,60,14036,0.340175,,,,,,,,,,,,,,0,41,41,40,1,,,,,,,,,,,,,,,,,,,,,,,,,,
,,,,,,,,,,,,l,Correct!,,,,,,t2.png,t5.png,3,0.0000131,18,Female,2020-11-14_16h36.57.117,torte-q,2020.1.3,Win32,60,14036,0.3902,,,,,,,,,,,,,,0,42,42,8,1,,,,,,,,,,,,,,,,,,,,,,,,,,
,,,,,,,,,,,,a,Incorrect,,,,,,t5.png,t2.png,3,0.0000131,18,Female,2020-11-14_16h36.57.117,torte-q,2020.1.3,Win32,60,14036,0.350925,,,,,,,,,,,,,,0,43,43,51,1,,,,,,,,,,,,,,,,,,,,,,,,,,
,,,,,,,,,,,,a,Correct!,,,,,,t4.png,t4.png,0,0.98115,18,Female,2020-11-14_16h36.57.117,torte-q,2020.1.3,Win32,60,14036,0.29857,,,,,,,,,,,,,,0,44,44,80,1,,,,,,,,,,,,,,,,,,,,,,,,,,
,,,,,,,,,,,,l,Incorrect,,,,,,t1.png,t1.png,0,0.978,18,Female,2020-11-14_16h36.57.117,torte-q,2020.1.3,Win32,60,14036,0.46814,,,,,,,,,,,,,,0,45,45,28,1,,,,,,,,,,,,,,,,,,,,,,,,,,
,,,,,,,,,,,,l,Incorrect,,,,,,t4.png,t4.png,0,0.98115,18,Female,2020-11-14_16h36.57.117,torte-q,2020.1.3,Win32,60,14036,0.27353,,,,,,,,,,,,,,0,46,46,79,1,,,,,,,,,,,,,,,,,,,,,,,,,,
,,,,,,,,,,,,l,Incorrect,,,,,,t5.png,t5.png,0,0.97829,18,Female,2020-11-14_16h36.57.117,torte-q,2020.1.3,Win32,60,14036,0.481785,,,,,,,,,,,,,,0,47,47,73,1,,,,,,,,,,,,,,,,,,,,,,,,,,
,,,,,,,,,,,,a,Incorrect,,,,,,t5.png,t2.png,3,0.0000131,18,Female,2020-11-14_16h36.57.117,torte-q,2020.1.3,Win32,60,14036,0.70453,,,,,,,,,,,,,,0,48,48,98,1,,,,,,,,,,,,,,,,,,,,,,,,,,
,,,,,,,,,,,,a,Incorrect,,,,,,t4.png,t1.png,3,0.0000131,18,Female,2020-11-14_16h36.57.117,torte-q,2020.1.3,Win32,60,14036,0.315675,,,,,,,,,,,,,,0,49,49,61,1,,,,,,,,,,,,,,,,,,,,,,,,,,
,,,,,,,,,,,,l,Correct!,,,,,,t1.png,t5.png,4,9.55E-11,18,Female,2020-11-14_16h36.57.117,torte-q,2020.1.3,Win32,60,14036,0.309065,,,,,,,,,,,,,,0,50,50,16,1,,,,,,,,,,,,,,,,,,,,,,,,,,
,,,,,,,,,,,,l,Correct!,,,,,,t1.png,t5.png,4,9.55E-11,18,Female,2020-11-14_16h36.57.117,torte-q,2020.1.3,Win32,60,14036,0.217275,,,,,,,,,,,,,,0,51,51,85,1,,,,,,,,,,,,,,,,,,,,,,,,,,
,,,,,,,,,,,,a,Correct!,,,,,,t4.png,t3.png,1,0.90855,18,Female,2020-11-14_16h36.57.117,torte-q,2020.1.3,Win32,60,14036,0.39067,,,,,,,,,,,,,,0,52,52,75,1,,,,,,,,,,,,,,,,,,,,,,,,,,
,,,,,,,,,,,,a,Incorrect,,,,,,t5.png,t3.png,2,0.056466,18,Female,2020-11-14_16h36.57.117,torte-q,2020.1.3,Win32,60,14036,0.175095,,,,,,,,,,,,,,0,53,53,114,1,,,,,,,,,,,,,,,,,,,,,,,,,,
,,,,,,,,,,,,l,Correct!,,,,,,t4.png,t2.png,2,0.059078,18,Female,2020-11-14_16h36.57.117,torte-q,2020.1.3,Win32,60,14036,0.236835,,,,,,,,,,,,,,0,54,54,86,1,,,,,,,,,,,,,,,,,,,,,,,,,,
,,,,,,,,,,,,l,Correct!,,,,,,t1.png,t3.png,2,0.056466,18,Female,2020-11-14_16h36.57.117,torte-q,2020.1.3,Win32,60,14036,0.41577,,,,,,,,,,,,,,0,55,55,99,1,,,,,,,,,,,,,,,,,,,,,,,,,,
,,,,,,,,,,,,a,Incorrect,,,,,,t4.png,t1.png,3,0.0000131,18,Female,2020-11-14_16h36.57.117,torte-q,2020.1.3,Win32,60,14036,0.39906,,,,,,,,,,,,,,0,56,56,48,1,,,,,,,,,,,,,,,,,,,,,,,,,,
,,,,,,,,,,,,a,Incorrect,,,,,,t5.png,t1.png,4,9.55E-11,18,Female,2020-11-14_16h36.57.117,torte-q,2020.1.3,Win32,60,14036,0.29869,,,,,,,,,,,,,,0,57,57,71,1,,,,,,,,,,,,,,,,,,,,,,,,,,
,,,,,,,,,,,,l,Correct!,,,,,,t1.png,t4.png,3,0.0000131,18,Female,2020-11-14_16h36.57.117,torte-q,2020.1.3,Win32,60,14036,0.355905,,,,,,,,,,,,,,0,58,58,17,1,,,,,,,,,,,,,,,,,,,,,,,,,,
,,,,,,,,,,,,l,Correct!,,,,,,t2.png,t3.png,1,0.90855,18,Female,2020-11-14_16h36.57.117,torte-q,2020.1.3,Win32,60,14036,0.216175,,,,,,,,,,,,,,0,59,59,10,1,,,,,,,,,,,,,,,,,,,,,,,,,,
,,,,,,,,,,,,a,Incorrect,,,,,,t5.png,t3.png,2,0.0565,18,Female,2020-11-14_16h36.57.117,torte-q,2020.1.3,Win32,60,14036,0.365285,,,,,,,,,,,,,,0,60,60,39,1,,,,,,,,,,,,,,,,,,,,,,,,,,
,,,,,,,,,,,,a,Incorrect,,,,,,t5.png,t3.png,2,0.056466,18,Female,2020-11-14_16h36.57.117,torte-q,2020.1.3,Win32,60,14036,0.203045,,,,,,,,,,,,,,0,61,61,56,1,,,,,,,,,,,,,,,,,,,,,,,,,,
,,,,,,,,,,,,l,Incorrect,,,,,,t2.png,t2.png,0,0.981,18,Female,2020-11-14_16h36.57.117,torte-q,2020.1.3,Win32,60,14036,0.25934,,,,,,,,,,,,,,0,62,62,101,1,,,,,,,,,,,,,,,,,,,,,,,,,,
,,,,,,,,,,,,l,Correct!,,,,,,t3.png,t1.png,2,0.0565,18,Female,2020-11-14_16h36.57.117,torte-q,2020.1.3,Win32,60,14036,0.20843,,,,,,,,,,,,,,0,63,63,31,1,,,,,,,,,,,,,,,,,,,,,,,,,,
,,,,,,,,,,,,a,Correct!,,,,,,t1.png,t1.png,0,0.97829,18,Female,2020-11-14_16h36.57.117,torte-q,2020.1.3,Win32,60,14036,0.38188,,,,,,,,,,,,,,0,64,64,67,1,,,,,,,,,,,,,,,,,,,,,,,,,,
,,,,,,,,,,,,a,Correct!,,,,,,t3.png,t4.png,1,0.90855,18,Female,2020-11-14_16h36.57.117,torte-q,2020.1.3,Win32,60,14036,0.17169,,,,,,,,,,,,,,0,65,65,84,1,,,,,,,,,,,,,,,,,,,,,,,,,,
,,,,,,,,,,,,l,Incorrect,,,,,,t2.png,t2.png,0,0.98115,18,Female,2020-11-14_16h36.57.117,torte-q,2020.1.3,Win32,60,14036,0.41893,,,,,,,,,,,,,,0,66,66,7,1,,,,,,,,,,,,,,,,,,,,,,,,,,
,,,,,,,,,,,,a,Incorrect,,,,,,t5.png,t2.png,3,0.0000131,18,Female,2020-11-14_16h36.57.117,torte-q,2020.1.3,Win32,60,14036,0.35775,,,,,,,,,,,,,,0,67,67,119,1,,,,,,,,,,,,,,,,,,,,,,,,,,
,,,,,,,,,,,,l,Correct!,,,,,,t3.png,t1.png,2,0.056466,18,Female,2020-11-14_16h36.57.117,torte-q,2020.1.3,Win32,60,14036,0.315615,,,,,,,,,,,,,,0,68,68,0,1,,,,,,,,,,,,,,,,,,,,,,,,,,
,,,,,,,,,,,,a,Incorrect,,,,,,t3.png,t1.png,2,0.056466,18,Female,2020-11-14_16h36.57.117,torte-q,2020.1.3,Win32,60,14036,0.38214,,,,,,,,,,,,,,0,69,69,32,1,,,,,,,,,,,,,,,,,,,,,,,,,,
,,,,,,,,,,,,a,Incorrect,,,,,,t3.png,t1.png,2,0.056466,18,Female,2020-11-14_16h36.57.117,torte-q,2020.1.3,Win32,60,14036,0.322435,,,,,,,,,,,,,,0,70,70,64,1,,,,,,,,,,,,,,,,,,,,,,,,,,
,,,,,,,,,,,,l,Incorrect,,,,,,t1.png,t2.png,1,0.90025,18,Female,2020-11-14_16h36.57.117,torte-q,2020.1.3,Win32,60,14036,0.39937,,,,,,,,,,,,,,0,71,71,72,1,,,,,,,,,,,,,,,,,,,,,,,,,,
,,,,,,,,,,,,l,Incorrect,,,,,,t5.png,t4.png,1,0.90025,18,Female,2020-11-14_16h36.57.117,torte-q,2020.1.3,Win32,60,14036,0.215395,,,,,,,,,,,,,,0,72,72,27,1,,,,,,,,,,,,,,,,,,,,,,,,,,
,,,,,,,,,,,,a,Correct!,,,,,,t2.png,t1.png,1,0.90025,18,Female,2020-11-14_16h36.57.117,torte-q,2020.1.3,Win32,60,14036,0.38254,,,,,,,,,,,,,,0,73,73,4,1,,,,,,,,,,,,,,,,,,,,,,,,,,
,,,,,,,,,,,,a,Incorrect,,,,,,t3.png,t5.png,2,0.056466,18,Female,2020-11-14_16h36.57.117,torte-q,2020.1.3,Win32,60,14036,0.17249,,,,,,,,,,,,,,0,74,74,14,1,,,,,,,,,,,,,,,,,,,,,,,,,,
,,,,,,,,,,,,a,Correct!,,,,,,t2.png,t1.png,1,0.90025,18,Female,2020-11-14_16h36.57.117,torte-q,2020.1.3,Win32,60,14036,0.433835,,,,,,,,,,,,,,0,75,75,19,1,,,,,,,,,,,,,,,,,,,,,,,,,,
,,,,,,,,,,,,l,Correct!,,,,,,t1.png,t4.png,3,0.0000131,18,Female,2020-11-14_16h36.57.117,torte-q,2020.1.3,Win32,60,14036,0.33551,,,,,,,,,,,,,,0,76,76,50,1,,,,,,,,,,,,,,,,,,,,,,,,,,
,,,,,,,,,,,,a,Correct!,,,,,,t4.png,t5.png,1,0.90025,18,Female,2020-11-14_16h36.57.117,torte-q,2020.1.3,Win32,60,14036,0.348305,,,,,,,,,,,,,,0,77,77,103,1,,,,,,,,,,,,,,,,,,,,,,,,,,
,,,,,,,,,,,,a,Incorrect,,,,,,t4.png,t3.png,1,0.909,18,Female,2020-11-14_16h36.57.117,torte-q,2020.1.3,Win32,60,14036,0.5044,,,,,,,,,,,,,,0,78,78,20,1,,,,,,,,,,,,,,,,,,,,,,,,,,
,,,,,,,,,,,,l,Incorrect,,,,,,t5.png,t5.png,0,0.97829,18,Female,2020-11-14_16h36.57.117,torte-q,2020.1.3,Win32,60,14036,0.435575,,,,,,,,,,,,,,0,79,79,94,1,,,,,,,,,,,,,,,,,,,,,,,,,,
,,,,,,,,,,,,l,Correct!,,,,,,t2.png,t4.png,2,0.059078,18,Female,2020-11-14_16h36.57.117,torte-q,2020.1.3,Win32,60,14036,0.306525,,,,,,,,,,,,,,0,80,80,24,1,,,,,,,,,,,,,,,,,,,,,,,,,,
,,,,,,,,,,,,a,Incorrect,,,,,,t2.png,t4.png,2,0.0591,18,Female,2020-11-14_16h36.57.117,torte-q,2020.1.3,Win32,60,14036,0.289255,,,,,,,,,,,,,,0,81,81,15,1,,,,,,,,,,,,,,,,,,,,,,,,,,
,,,,,,,,,,,,l,Incorrect,,,,,,t2.png,t3.png,1,0.90855,18,Female,2020-11-14_16h36.57.117,torte-q,2020.1.3,Win32,60,14036,0.395215,,,,,,,,,,,,,,0,82,82,65,1,,,,,,,,,,,,,,,,,,,,,,,,,,
,,,,,,,,,,,,l,Incorrect,,,,,,t1.png,t2.png,1,0.90025,18,Female,2020-11-14_16h36.57.117,torte-q,2020.1.3,Win32,60,14036,0.231915,,,,,,,,,,,,,,0,83,83,112,1,,,,,,,,,,,,,,,,,,,,,,,,,,
,,,,,,,,,,,,l,Correct!,,,,,,t4.png,t1.png,3,0.0000131,18,Female,2020-11-14_16h36.57.117,torte-q,2020.1.3,Win32,60,14036,0.266855,,,,,,,,,,,,,,0,84,84,42,1,,,,,,,,,,,,,,,,,,,,,,,,,,
,,,,,,,,,,,,l,Correct!,,,,,,t1.png,t4.png,3,0.0000131,18,Female,2020-11-14_16h36.57.117,torte-q,2020.1.3,Win32,60,14036,0.304095,,,,,,,,,,,,,,0,85,85,81,1,,,,,,,,,,,,,,,,,,,,,,,,,,
,,,,,,,,,,,,a,Correct!,,,,,,t4.png,t3.png,1,0.90855,18,Female,2020-11-14_16h36.57.117,torte-q,2020.1.3,Win32,60,14036,0.3513,,,,,,,,,,,,,,0,86,86,45,1,,,,,,,,,,,,,,,,,,,,,,,,,,
,,,,,,,,,,,,l,Incorrect,,,,,,t1.png,t2.png,1,0.9,18,Female,2020-11-14_16h36.57.117,torte-q,2020.1.3,Win32,60,14036,0.38202,,,,,,,,,,,,,,0,87,87,1,1,,,,,,,,,,,,,,,,,,,,,,,,,,
,,,,,,,,,,,,a,Correct!,,,,,,t4.png,t3.png,1,0.90855,18,Female,2020-11-14_16h36.57.117,torte-q,2020.1.3,Win32,60,14036,0.369345,,,,,,,,,,,,,,0,88,88,35,1,,,,,,,,,,,,,,,,,,,,,,,,,,
,,,,,,,,,,,,l,Incorrect,,,,,,t2.png,t3.png,1,0.909,18,Female,2020-11-14_16h36.57.117,torte-q,2020.1.3,Win32,60,14036,0.481705,,,,,,,,,,,,,,0,89,89,74,1,,,,,,,,,,,,,,,,,,,,,,,,,,
,,,,,,,,,,,,a,Incorrect,,,,,,t5.png,t1.png,4,9.55E-11,18,Female,2020-11-14_16h36.57.117,torte-q,2020.1.3,Win32,60,14036,0.365395,,,,,,,,,,,,,,0,90,90,22,1,,,,,,,,,,,,,,,,,,,,,,,,,,
,,,,,,,,,,,,l,Incorrect,,,,,,t1.png,t1.png,0,0.97829,18,Female,2020-11-14_16h36.57.117,torte-q,2020.1.3,Win32,60,14036,0.199,,,,,,,,,,,,,,0,91,91,9,1,,,,,,,,,,,,,,,,,,,,,,,,,,
,,,,,,,,,,,,a,Incorrect,,,,,,t4.png,t2.png,2,0.059078,18,Female,2020-11-14_16h36.57.117,torte-q,2020.1.3,Win32,60,14036,0.331965,,,,,,,,,,,,,,0,92,92,109,1,,,,,,,,,,,,,,,,,,,,,,,,,,
,,,,,,,,,,,,a,Incorrect,,,,,,t3.png,t5.png,2,0.056466,18,Female,2020-11-14_16h36.57.117,torte-q,2020.1.3,Win32,60,14036,0.385565,,,,,,,,,,,,,,0,93,93,44,1,,,,,,,,,,,,,,,,,,,,,,,,,,
,,,,,,,,,,,,a,Correct!,,,,,,t5.png,t5.png,0,0.978,18,Female,2020-11-14_16h36.57.117,torte-q,2020.1.3,Win32,60,14036,0.83029,,,,,,,,,,,,,,0,94,94,117,1,,,,,,,,,,,,,,,,,,,,,,,,,,
,,,,,,,,,,,,l,Correct!,,,,,,t3.png,t5.png,2,0.0565,18,Female,2020-11-14_16h36.57.117,torte-q,2020.1.3,Win32,60,14036,0.499605,,,,,,,,,,,,,,0,95,95,83,1,,,,,,,,,,,,,,,,,,,,,,,,,,
,,,,,,,,,,,,l,Correct!,,,,,,t1.png,t5.png,4,9.55E-11,18,Female,2020-11-14_16h36.57.117,torte-q,2020.1.3,Win32,60,14036,0.398425,,,,,,,,,,,,,,0,96,96,41,1,,,,,,,,,,,,,,,,,,,,,,,,,,
,,,,,,,,,,,,a,Correct!,,,,,,t1.png,t1.png,0,0.97829,18,Female,2020-11-14_16h36.57.117,torte-q,2020.1.3,Win32,60,14036,0.882445,,,,,,,,,,,,,,0,97,97,78,1,,,,,,,,,,,,,,,,,,,,,,,,,,
,,,,,,,,,,,,a,Correct!,,,,,,t4.png,t3.png,1,0.909,18,Female,2020-11-14_16h36.57.117,torte-q,2020.1.3,Win32,60,14036,0.4738,,,,,,,,,,,,,,0,98,98,46,1,,,,,,,,,,,,,,,,,,,,,,,,,,
,,,,,,,,,,,,l,Incorrect,,,,,,t4.png,t4.png,0,0.98115,18,Female,2020-11-14_16h36.57.117,torte-q,2020.1.3,Win32,60,14036,0.30041,,,,,,,,,,,,,,0,99,99,90,1,,,,,,,,,,,,,,,,,,,,,,,,,,
,,,,,,,,,,,,l,Incorrect,,,,,,t3.png,t4.png,1,0.909,18,Female,2020-11-14_16h36.57.117,torte-q,2020.1.3,Win32,60,14036,0.336885,,,,,,,,,,,,,,0,100,100,89,1,,,,,,,,,,,,,,,,,,,,,,,,,,
,,,,,,,,,,,,a,Correct!,,,,,,t2.png,t1.png,1,0.9,18,Female,2020-11-14_16h36.57.117,torte-q,2020.1.3,Win32,60,14036,0.7059,,,,,,,,,,,,,,0,101,101,118,1,,,,,,,,,,,,,,,,,,,,,,,,,,
,,,,,,,,,,,,l,Incorrect,,,,,,t1.png,t2.png,1,0.90025,18,Female,2020-11-14_16h36.57.117,torte-q,2020.1.3,Win32,60,14036,0.351405,,,,,,,,,,,,,,0,102,102,33,1,,,,,,,,,,,,,,,,,,,,,,,,,,
,,,,,,,,,,,,l,Incorrect,,,,,,t2.png,t3.png,1,0.90855,18,Female,2020-11-14_16h36.57.117,torte-q,2020.1.3,Win32,60,14036,0.46695,,,,,,,,,,,,,,0,103,103,68,1,,,,,,,,,,,,,,,,,,,,,,,,,,
,,,,,,,,,,,,a,Correct!,,,,,,t3.png,t2.png,1,0.909,18,Female,2020-11-14_16h36.57.117,torte-q,2020.1.3,Win32,60,14036,0.515745,,,,,,,,,,,,,,0,104,104,23,1,,,,,,,,,,,,,,,,,,,,,,,,,,
,,,,,,,,,,,,a,Incorrect,,,,,,t5.png,t1.png,4,9.55E-11,18,Female,2020-11-14_16h36.57.117,torte-q,2020.1.3,Win32,60,14036,0.40987,,,,,,,,,,,,,,0,105,105,43,1,,,,,,,,,,,,,,,,,,,,,,,,,,
,,,,,,,,,,,,l,Incorrect,,,,,,t2.png,t2.png,0,0.98115,18,Female,2020-11-14_16h36.57.117,torte-q,2020.1.3,Win32,60,14036,0.34904,,,,,,,,,,,,,,0,106,106,57,1,,,,,,,,,,,,,,,,,,,,,,,,,,
,,,,,,,,,,,,a,Correct!,,,,,,t4.png,t2.png,2,0.0591,18,Female,2020-11-14_16h36.57.117,torte-q,2020.1.3,Win32,60,14036,0.36633,,,,,,,,,,,,,,0,107,107,36,1,,,,,,,,,,,,,,,,,,,,,,,,,,
,,,,,,,,,,,,a,Correct!,,,,,,t5.png,t4.png,1,0.9,18,Female,2020-11-14_16h36.57.117,torte-q,2020.1.3,Win32,60,14036,1.26532,,,,,,,,,,,,,,0,108,108,76,1,,,,,,,,,,,,,,,,,,,,,,,,,,
,,,,,,,,,,,,l,Incorrect,,,,,,t2.png,t2.png,0,0.98115,18,Female,2020-11-14_16h36.57.117,torte-q,2020.1.3,Win32,60,14036,0.401335,,,,,,,,,,,,,,0,109,109,2,1,,,,,,,,,,,,,,,,,,,,,,,,,,
,,,,,,,,,,,,a,Incorrect,,,,,,t5.png,t2.png,3,0.0000131,18,Female,2020-11-14_16h36.57.117,torte-q,2020.1.3,Win32,60,14036,0.465735,,,,,,,,,,,,,,0,110,110,91,1,,,,,,,,,,,,,,,,,,,,,,,,,,
,,,,,,,,,,,,l,Correct!,,,,,,t1.png,t5.png,4,9.55E-11,18,Female,2020-11-14_16h36.57.117,torte-q,2020.1.3,Win32,60,14036,0.335895,,,,,,,,,,,,,,0,111,111,55,1,,,,,,,,,,,,,,,,,,,,,,,,,,
,,,,,,,,,,,,l,Incorrect,,,,,,t4.png,t5.png,1,0.90025,18,Female,2020-11-14_16h36.57.117,torte-q,2020.1.3,Win32,60,14036,0.870175,,,,,,,,,,,,,,0,112,112,58,1,,,,,,,,,,,,,,,,,,,,,,,,,,
,,,,,,,,,,,,l,Incorrect,,,,,,t3.png,t4.png,1,0.90855,18,Female,2020-11-14_16h36.57.117,torte-q,2020.1.3,Win32,60,14036,0.40656,,,,,,,,,,,,,,0,113,113,96,1,,,,,,,,,,,,,,,,,,,,,,,,,,
,,,,,,,,,,,,l,Incorrect,,,,,,t2.png,t3.png,1,0.90855,18,Female,2020-11-14_16h36.57.117,torte-q,2020.1.3,Win32,60,14036,0.34498,,,,,,,,,,,,,,0,114,114,111,1,,,,,,,,,,,,,,,,,,,,,,,,,,
,,,,,,,,,,,,a,Incorrect,,,,,,t5.png,t3.png,2,0.056466,18,Female,2020-11-14_16h36.57.117,torte-q,2020.1.3,Win32,60,14036,0.37916,,,,,,,,,,,,,,0,115,115,108,1,,,,,,,,,,,,,,,,,,,,,,,,,,
,,,,,,,,,,,,l,Correct!,,,,,,t1.png,t4.png,3,0.0000131,18,Female,2020-11-14_16h36.57.117,torte-q,2020.1.3,Win32,60,14036,0.25735,,,,,,,,,,,,,,0,116,116,92,1,,,,,,,,,,,,,,,,,,,,,,,,,,
,,,,,,,,,,,,l,Incorrect,,,,,,t3.png,t2.png,1,0.90855,18,Female,2020-11-14_16h36.57.117,torte-q,2020.1.3,Win32,60,14036,0.359805,,,,,,,,,,,,,,0,117,117,97,1,,,,,,,,,,,,,,,,,,,,,,,,,,
,,,,,,,,,,,,l,Incorrect,,,,,,t1.png,t2.png,1,0.90025,18,Female,2020-11-14_16h36.57.117,torte-q,2020.1.3,Win32,60,14036,0.499325,,,,,,,,,,,,,,0,118,118,105,1,,,,,,,,,,,,,,,,,,,,,,,,,,
,,,,,,,,,,,,a,Correct!,,,,,,t5.png,t4.png,1,0.90025,18,Female,2020-11-14_16h36.57.117,torte-q,2020.1.3,Win32,60,14036,1.599405,,,,,,,,,,,,,,0,119,119,34,1,,,,,,,,,,,,,,,,,,,,,,,,,,
,,,,,,,,,,,,,,,,,,,,,,,18,Female,2020-11-14_16h36.57.117,torte-q,2020.1.3,Win32,60,14036,,space,1.402175,,,,,,,,,,,,,,,,,6.981999817,5.469745,244.0000151,-120.0000082,1,0,0,s6,79.20001262,43.99999422,1,0,0,t2,364.0000169,-100.8000079,1,0,0,proceed,space,20.033995,space,5.17942,space,1.003055
