key_resp_8.keys,key_resp_8.rt,key_resp_9.keys,key_resp_9.rt,key_resp_10.keys,key_resp_10.rt,key_resp_11.keys,key_resp_11.rt,key_resp_2.keys,key_resp_2.rt,key_resp_3.keys,key_resp_3.rt,key_resp.keys,Feedback,train.thisRepN,train.thisTrialN,train.thisN,train.thisIndex,train.ran,torta_sx,torta_dx,difference,probability,age,gender,date,expName,psychopyVersion,OS,frameRate,participant,key_resp.rt,key_resp_15.keys,key_resp_15.rt,key_resp_6.keys,key_resp_6.rt,test1.thisRepN,test1.thisTrialN,test1.thisN,test1.thisIndex,test1.ran,key_resp_16.keys,key_resp_16.rt,key_resp_7.keys,key_resp_7.rt,test2.thisRepN,test2.thisTrialN,test2.thisN,test2.thisIndex,test2.ran,rating.response,rating.rt,mouse.x,mouse.y,mouse.leftButton,mouse.midButton,mouse.rightButton,mouse.clicked_name,mouse_2.x,mouse_2.y,mouse_2.leftButton,mouse_2.midButton,mouse_2.rightButton,mouse_2.clicked_name,mouse_3.x,mouse_3.y,mouse_3.leftButton,mouse_3.midButton,mouse_3.rightButton,mouse_3.clicked_name,key_resp_12.keys,key_resp_12.rt,key_resp_13.keys,key_resp_13.rt,key_resp_14.keys,key_resp_14.rt
space,40.493555,space,9.73586,space,7.092385,space,9.84071,space,14.25244,space,29.79524,,Too slow :(,0,0,0,75,1,t1.png,t1.png,0,0.97829,20,Female,2020-11-18_20h10.38.787,torte-q,2020.1.3,Win32,60,14047,,,,,,,,,,,,,,,,,,,,,,,,,,,,,,,,,,,,,,,,,,,,,
,,,,,,,,,,,,l,Correct!,0,1,1,115,1,t2.png,t4.png,2,0.059078,20,Female,2020-11-18_20h10.38.787,torte-q,2020.1.3,Win32,60,14047,1.467655,,,,,,,,,,,,,,,,,,,,,,,,,,,,,,,,,,,,,,,,,,,,
,,,,,,,,,,,,a,Incorrect,0,2,2,50,1,t5.png,t1.png,4,9.55E-11,20,Female,2020-11-18_20h10.38.787,torte-q,2020.1.3,Win32,60,14047,0.7847,,,,,,,,,,,,,,,,,,,,,,,,,,,,,,,,,,,,,,,,,,,,
,,,,,,,,,,,,a,Incorrect,0,3,3,33,1,t5.png,t1.png,4,9.55E-11,20,Female,2020-11-18_20h10.38.787,torte-q,2020.1.3,Win32,60,14047,0.63537,,,,,,,,,,,,,,,,,,,,,,,,,,,,,,,,,,,,,,,,,,,,
,,,,,,,,,,,,l,Incorrect,0,4,4,81,1,t1.png,t1.png,0,0.97829,20,Female,2020-11-18_20h10.38.787,torte-q,2020.1.3,Win32,60,14047,1.96764,,,,,,,,,,,,,,,,,,,,,,,,,,,,,,,,,,,,,,,,,,,,
,,,,,,,,,,,,,Too slow :(,0,5,5,113,1,t5.png,t4.png,1,0.9,20,Female,2020-11-18_20h10.38.787,torte-q,2020.1.3,Win32,60,14047,,,,,,,,,,,,,,,,,,,,,,,,,,,,,,,,,,,,,,,,,,,,,
,,,,,,,,,,,,l,Incorrect,0,6,6,20,1,t2.png,t3.png,1,0.90855,20,Female,2020-11-18_20h10.38.787,torte-q,2020.1.3,Win32,60,14047,1.20035,,,,,,,,,,,,,,,,,,,,,,,,,,,,,,,,,,,,,,,,,,,,
,,,,,,,,,,,,,Too slow :(,0,7,7,46,1,t4.png,t2.png,2,0.059078,20,Female,2020-11-18_20h10.38.787,torte-q,2020.1.3,Win32,60,14047,,,,,,,,,,,,,,,,,,,,,,,,,,,,,,,,,,,,,,,,,,,,,
,,,,,,,,,,,,a,Correct!,0,8,8,104,1,t2.png,t3.png,1,0.90855,20,Female,2020-11-18_20h10.38.787,torte-q,2020.1.3,Win32,60,14047,0.809385,,,,,,,,,,,,,,,,,,,,,,,,,,,,,,,,,,,,,,,,,,,,
,,,,,,,,,,,,l,Correct!,0,9,9,0,1,t5.png,t1.png,4,9.55E-11,20,Female,2020-11-18_20h10.38.787,torte-q,2020.1.3,Win32,60,14047,2.44345,,,,,,,,,,,,,,,,,,,,,,,,,,,,,,,,,,,,,,,,,,,,
,,,,,,,,,,,,l,Incorrect,0,10,10,74,1,t5.png,t4.png,1,0.9,20,Female,2020-11-18_20h10.38.787,torte-q,2020.1.3,Win32,60,14047,1.94393,,,,,,,,,,,,,,,,,,,,,,,,,,,,,,,,,,,,,,,,,,,,
,,,,,,,,,,,,a,Correct!,0,11,11,10,1,t2.png,t3.png,1,0.90855,20,Female,2020-11-18_20h10.38.787,torte-q,2020.1.3,Win32,60,14047,2.06832,,,,,,,,,,,,,,,,,,,,,,,,,,,,,,,,,,,,,,,,,,,,
,,,,,,,,,,,,l,Incorrect,0,12,12,112,1,t1.png,t1.png,0,0.97829,20,Female,2020-11-18_20h10.38.787,torte-q,2020.1.3,Win32,60,14047,2.01713,,,,,,,,,,,,,,,,,,,,,,,,,,,,,,,,,,,,,,,,,,,,
,,,,,,,,,,,,a,Correct!,0,13,13,21,1,t5.png,t4.png,1,0.90025,20,Female,2020-11-18_20h10.38.787,torte-q,2020.1.3,Win32,60,14047,1.68763,,,,,,,,,,,,,,,,,,,,,,,,,,,,,,,,,,,,,,,,,,,,
,,,,,,,,,,,,l,Correct!,0,14,14,51,1,t3.png,t1.png,2,0.056466,20,Female,2020-11-18_20h10.38.787,torte-q,2020.1.3,Win32,60,14047,1.72091,,,,,,,,,,,,,,,,,,,,,,,,,,,,,,,,,,,,,,,,,,,,
,,,,,,,,,,,,a,Correct!,0,15,15,39,1,t3.png,t2.png,1,0.90855,20,Female,2020-11-18_20h10.38.787,torte-q,2020.1.3,Win32,60,14047,1.55258,,,,,,,,,,,,,,,,,,,,,,,,,,,,,,,,,,,,,,,,,,,,
,,,,,,,,,,,,l,Incorrect,0,16,16,34,1,t5.png,t4.png,1,0.9,20,Female,2020-11-18_20h10.38.787,torte-q,2020.1.3,Win32,60,14047,1.400165,,,,,,,,,,,,,,,,,,,,,,,,,,,,,,,,,,,,,,,,,,,,
,,,,,,,,,,,,l,Incorrect,0,17,17,77,1,t1.png,t1.png,0,0.97829,20,Female,2020-11-18_20h10.38.787,torte-q,2020.1.3,Win32,60,14047,1.154835,,,,,,,,,,,,,,,,,,,,,,,,,,,,,,,,,,,,,,,,,,,,
,,,,,,,,,,,,a,Correct!,0,18,18,114,1,t2.png,t3.png,1,0.90855,20,Female,2020-11-18_20h10.38.787,torte-q,2020.1.3,Win32,60,14047,0.645175,,,,,,,,,,,,,,,,,,,,,,,,,,,,,,,,,,,,,,,,,,,,
,,,,,,,,,,,,,Too slow :(,0,19,19,70,1,t5.png,t5.png,0,0.978,20,Female,2020-11-18_20h10.38.787,torte-q,2020.1.3,Win32,60,14047,,,,,,,,,,,,,,,,,,,,,,,,,,,,,,,,,,,,,,,,,,,,,
,,,,,,,,,,,,l,Correct!,0,20,20,83,1,t3.png,t1.png,2,0.056466,20,Female,2020-11-18_20h10.38.787,torte-q,2020.1.3,Win32,60,14047,0.634025,,,,,,,,,,,,,,,,,,,,,,,,,,,,,,,,,,,,,,,,,,,,
,,,,,,,,,,,,l,Incorrect,0,21,21,63,1,t2.png,t3.png,1,0.909,20,Female,2020-11-18_20h10.38.787,torte-q,2020.1.3,Win32,60,14047,0.30774,,,,,,,,,,,,,,,,,,,,,,,,,,,,,,,,,,,,,,,,,,,,
,,,,,,,,,,,,a,Correct!,0,22,22,65,1,t4.png,t5.png,1,0.90025,20,Female,2020-11-18_20h10.38.787,torte-q,2020.1.3,Win32,60,14047,0.334745,,,,,,,,,,,,,,,,,,,,,,,,,,,,,,,,,,,,,,,,,,,,
,,,,,,,,,,,,a,Correct!,0,23,23,96,1,t1.png,t1.png,0,0.97829,20,Female,2020-11-18_20h10.38.787,torte-q,2020.1.3,Win32,60,14047,0.74151,,,,,,,,,,,,,,,,,,,,,,,,,,,,,,,,,,,,,,,,,,,,
,,,,,,,,,,,,l,Correct!,0,24,24,40,1,t1.png,t5.png,4,9.55E-11,20,Female,2020-11-18_20h10.38.787,torte-q,2020.1.3,Win32,60,14047,0.540795,,,,,,,,,,,,,,,,,,,,,,,,,,,,,,,,,,,,,,,,,,,,
,,,,,,,,,,,,l,Correct!,0,25,25,7,1,t4.png,t5.png,1,0.90025,20,Female,2020-11-18_20h10.38.787,torte-q,2020.1.3,Win32,60,14047,0.42544,,,,,,,,,,,,,,,,,,,,,,,,,,,,,,,,,,,,,,,,,,,,
,,,,,,,,,,,,a,Incorrect,0,26,26,5,1,t2.png,t4.png,2,0.059078,20,Female,2020-11-18_20h10.38.787,torte-q,2020.1.3,Win32,60,14047,0.33447,,,,,,,,,,,,,,,,,,,,,,,,,,,,,,,,,,,,,,,,,,,,
,,,,,,,,,,,,l,Incorrect,0,27,27,45,1,t3.png,t2.png,1,0.90855,20,Female,2020-11-18_20h10.38.787,torte-q,2020.1.3,Win32,60,14047,0.3601,,,,,,,,,,,,,,,,,,,,,,,,,,,,,,,,,,,,,,,,,,,,
,,,,,,,,,,,,a,Incorrect,0,28,28,93,1,t2.png,t4.png,2,0.059078,20,Female,2020-11-18_20h10.38.787,torte-q,2020.1.3,Win32,60,14047,0.4726,,,,,,,,,,,,,,,,,,,,,,,,,,,,,,,,,,,,,,,,,,,,
,,,,,,,,,,,,l,Incorrect,0,29,29,116,1,t5.png,t4.png,1,0.90025,20,Female,2020-11-18_20h10.38.787,torte-q,2020.1.3,Win32,60,14047,0.29389,,,,,,,,,,,,,,,,,,,,,,,,,,,,,,,,,,,,,,,,,,,,
,,,,,,,,,,,,l,Correct!,0,30,30,82,1,t5.png,t1.png,4,9.55E-11,20,Female,2020-11-18_20h10.38.787,torte-q,2020.1.3,Win32,60,14047,0.28026,,,,,,,,,,,,,,,,,,,,,,,,,,,,,,,,,,,,,,,,,,,,
,,,,,,,,,,,,l,Correct!,0,31,31,35,1,t1.png,t4.png,3,0.0000131,20,Female,2020-11-18_20h10.38.787,torte-q,2020.1.3,Win32,60,14047,0.2359,,,,,,,,,,,,,,,,,,,,,,,,,,,,,,,,,,,,,,,,,,,,
,,,,,,,,,,,,l,Incorrect,0,32,32,109,1,t5.png,t5.png,0,0.97829,20,Female,2020-11-18_20h10.38.787,torte-q,2020.1.3,Win32,60,14047,0.289235,,,,,,,,,,,,,,,,,,,,,,,,,,,,,,,,,,,,,,,,,,,,
,,,,,,,,,,,,a,Incorrect,0,33,33,12,1,t5.png,t1.png,4,9.55E-11,20,Female,2020-11-18_20h10.38.787,torte-q,2020.1.3,Win32,60,14047,0.255555,,,,,,,,,,,,,,,,,,,,,,,,,,,,,,,,,,,,,,,,,,,,
,,,,,,,,,,,,l,Correct!,0,34,34,88,1,t3.png,t1.png,2,0.056466,20,Female,2020-11-18_20h10.38.787,torte-q,2020.1.3,Win32,60,14047,0.233995,,,,,,,,,,,,,,,,,,,,,,,,,,,,,,,,,,,,,,,,,,,,
,,,,,,,,,,,,l,Incorrect,0,35,35,106,1,t2.png,t3.png,1,0.90855,20,Female,2020-11-18_20h10.38.787,torte-q,2020.1.3,Win32,60,14047,0.31965,,,,,,,,,,,,,,,,,,,,,,,,,,,,,,,,,,,,,,,,,,,,
,,,,,,,,,,,,a,Incorrect,0,36,36,36,1,t3.png,t1.png,2,0.0565,20,Female,2020-11-18_20h10.38.787,torte-q,2020.1.3,Win32,60,14047,0.268165,,,,,,,,,,,,,,,,,,,,,,,,,,,,,,,,,,,,,,,,,,,,
,,,,,,,,,,,,l,Incorrect,0,37,37,92,1,t2.png,t3.png,1,0.909,20,Female,2020-11-18_20h10.38.787,torte-q,2020.1.3,Win32,60,14047,0.307055,,,,,,,,,,,,,,,,,,,,,,,,,,,,,,,,,,,,,,,,,,,,
,,,,,,,,,,,,a,Incorrect,0,38,38,89,1,t1.png,t4.png,3,0.0000131,20,Female,2020-11-18_20h10.38.787,torte-q,2020.1.3,Win32,60,14047,0.309565,,,,,,,,,,,,,,,,,,,,,,,,,,,,,,,,,,,,,,,,,,,,
,,,,,,,,,,,,a,Incorrect,0,39,39,80,1,t1.png,t4.png,3,0.0000131,20,Female,2020-11-18_20h10.38.787,torte-q,2020.1.3,Win32,60,14047,0.25836,,,,,,,,,,,,,,,,,,,,,,,,,,,,,,,,,,,,,,,,,,,,
,,,,,,,,,,,,l,Incorrect,0,40,40,26,1,t4.png,t2.png,2,0.0591,20,Female,2020-11-18_20h10.38.787,torte-q,2020.1.3,Win32,60,14047,0.36825,,,,,,,,,,,,,,,,,,,,,,,,,,,,,,,,,,,,,,,,,,,,
,,,,,,,,,,,,a,Incorrect,0,41,41,117,1,t1.png,t5.png,4,9.55E-11,20,Female,2020-11-18_20h10.38.787,torte-q,2020.1.3,Win32,60,14047,0.301665,,,,,,,,,,,,,,,,,,,,,,,,,,,,,,,,,,,,,,,,,,,,
,,,,,,,,,,,,l,Correct!,0,42,42,23,1,t5.png,t4.png,1,0.90025,20,Female,2020-11-18_20h10.38.787,torte-q,2020.1.3,Win32,60,14047,0.40895,,,,,,,,,,,,,,,,,,,,,,,,,,,,,,,,,,,,,,,,,,,,
,,,,,,,,,,,,l,Incorrect,0,43,43,16,1,t5.png,t4.png,1,0.9,20,Female,2020-11-18_20h10.38.787,torte-q,2020.1.3,Win32,60,14047,0.45242,,,,,,,,,,,,,,,,,,,,,,,,,,,,,,,,,,,,,,,,,,,,
,,,,,,,,,,,,a,Correct!,0,44,44,25,1,t5.png,t5.png,0,0.97829,20,Female,2020-11-18_20h10.38.787,torte-q,2020.1.3,Win32,60,14047,0.235665,,,,,,,,,,,,,,,,,,,,,,,,,,,,,,,,,,,,,,,,,,,,
,,,,,,,,,,,,a,Incorrect,0,45,45,53,1,t3.png,t1.png,2,0.056466,20,Female,2020-11-18_20h10.38.787,torte-q,2020.1.3,Win32,60,14047,0.401655,,,,,,,,,,,,,,,,,,,,,,,,,,,,,,,,,,,,,,,,,,,,
,,,,,,,,,,,,l,Incorrect,0,46,46,62,1,t5.png,t5.png,0,0.978,20,Female,2020-11-18_20h10.38.787,torte-q,2020.1.3,Win32,60,14047,0.307995,,,,,,,,,,,,,,,,,,,,,,,,,,,,,,,,,,,,,,,,,,,,
,,,,,,,,,,,,a,Incorrect,0,47,47,68,1,t1.png,t4.png,3,0.0000131,20,Female,2020-11-18_20h10.38.787,torte-q,2020.1.3,Win32,60,14047,0.27178,,,,,,,,,,,,,,,,,,,,,,,,,,,,,,,,,,,,,,,,,,,,
,,,,,,,,,,,,l,Correct!,0,48,48,76,1,t3.png,t2.png,1,0.90855,20,Female,2020-11-18_20h10.38.787,torte-q,2020.1.3,Win32,60,14047,0.201635,,,,,,,,,,,,,,,,,,,,,,,,,,,,,,,,,,,,,,,,,,,,
,,,,,,,,,,,,l,Incorrect,0,49,49,22,1,t2.png,t3.png,1,0.90855,20,Female,2020-11-18_20h10.38.787,torte-q,2020.1.3,Win32,60,14047,0.432265,,,,,,,,,,,,,,,,,,,,,,,,,,,,,,,,,,,,,,,,,,,,
,,,,,,,,,,,,l,Correct!,0,50,50,11,1,t1.png,t4.png,3,0.0000131,20,Female,2020-11-18_20h10.38.787,torte-q,2020.1.3,Win32,60,14047,0.43258,,,,,,,,,,,,,,,,,,,,,,,,,,,,,,,,,,,,,,,,,,,,
,,,,,,,,,,,,l,Correct!,0,51,51,99,1,t1.png,t5.png,4,9.55E-11,20,Female,2020-11-18_20h10.38.787,torte-q,2020.1.3,Win32,60,14047,1.100845,,,,,,,,,,,,,,,,,,,,,,,,,,,,,,,,,,,,,,,,,,,,
,,,,,,,,,,,,a,Correct!,0,52,52,28,1,t2.png,t3.png,1,0.909,20,Female,2020-11-18_20h10.38.787,torte-q,2020.1.3,Win32,60,14047,2.3591,,,,,,,,,,,,,,,,,,,,,,,,,,,,,,,,,,,,,,,,,,,,
,,,,,,,,,,,,a,Correct!,0,53,53,100,1,t4.png,t5.png,1,0.90025,20,Female,2020-11-18_20h10.38.787,torte-q,2020.1.3,Win32,60,14047,2.154635,,,,,,,,,,,,,,,,,,,,,,,,,,,,,,,,,,,,,,,,,,,,
,,,,,,,,,,,,l,Correct!,0,54,54,24,1,t4.png,t2.png,2,0.059078,20,Female,2020-11-18_20h10.38.787,torte-q,2020.1.3,Win32,60,14047,1.531505,,,,,,,,,,,,,,,,,,,,,,,,,,,,,,,,,,,,,,,,,,,,
,,,,,,,,,,,,a,Incorrect,0,55,55,103,1,t3.png,t1.png,2,0.056466,20,Female,2020-11-18_20h10.38.787,torte-q,2020.1.3,Win32,60,14047,1.67313,,,,,,,,,,,,,,,,,,,,,,,,,,,,,,,,,,,,,,,,,,,,
,,,,,,,,,,,,a,Correct!,0,56,56,95,1,t1.png,t1.png,0,0.978,20,Female,2020-11-18_20h10.38.787,torte-q,2020.1.3,Win32,60,14047,0.946225,,,,,,,,,,,,,,,,,,,,,,,,,,,,,,,,,,,,,,,,,,,,
,,,,,,,,,,,,l,Incorrect,0,57,57,41,1,t3.png,t2.png,1,0.90855,20,Female,2020-11-18_20h10.38.787,torte-q,2020.1.3,Win32,60,14047,1.1487,,,,,,,,,,,,,,,,,,,,,,,,,,,,,,,,,,,,,,,,,,,,
,,,,,,,,,,,,a,Incorrect,0,58,58,1,1,t2.png,t4.png,2,0.059078,20,Female,2020-11-18_20h10.38.787,torte-q,2020.1.3,Win32,60,14047,0.304095,,,,,,,,,,,,,,,,,,,,,,,,,,,,,,,,,,,,,,,,,,,,
,,,,,,,,,,,,l,Incorrect,0,59,59,64,1,t1.png,t1.png,0,0.978,20,Female,2020-11-18_20h10.38.787,torte-q,2020.1.3,Win32,60,14047,0.291565,,,,,,,,,,,,,,,,,,,,,,,,,,,,,,,,,,,,,,,,,,,,
,,,,,,,,,,,,a,Incorrect,0,60,60,6,1,t1.png,t4.png,3,0.0000131,20,Female,2020-11-18_20h10.38.787,torte-q,2020.1.3,Win32,60,14047,0.35939,,,,,,,,,,,,,,,,,,,,,,,,,,,,,,,,,,,,,,,,,,,,
,,,,,,,,,,,,l,Correct!,0,61,61,52,1,t2.png,t4.png,2,0.059078,20,Female,2020-11-18_20h10.38.787,torte-q,2020.1.3,Win32,60,14047,0.550125,,,,,,,,,,,,,,,,,,,,,,,,,,,,,,,,,,,,,,,,,,,,
,,,,,,,,,,,,a,Incorrect,0,62,62,37,1,t1.png,t4.png,3,0.0000131,20,Female,2020-11-18_20h10.38.787,torte-q,2020.1.3,Win32,60,14047,2.049135,,,,,,,,,,,,,,,,,,,,,,,,,,,,,,,,,,,,,,,,,,,,
,,,,,,,,,,,,l,Correct!,0,63,63,14,1,t2.png,t4.png,2,0.059078,20,Female,2020-11-18_20h10.38.787,torte-q,2020.1.3,Win32,60,14047,0.618885,,,,,,,,,,,,,,,,,,,,,,,,,,,,,,,,,,,,,,,,,,,,
,,,,,,,,,,,,l,Incorrect,0,64,64,71,1,t5.png,t5.png,0,0.97829,20,Female,2020-11-18_20h10.38.787,torte-q,2020.1.3,Win32,60,14047,1.30671,,,,,,,,,,,,,,,,,,,,,,,,,,,,,,,,,,,,,,,,,,,,
,,,,,,,,,,,,a,Incorrect,0,65,65,42,1,t5.png,t4.png,1,0.90025,20,Female,2020-11-18_20h10.38.787,torte-q,2020.1.3,Win32,60,14047,0.282625,,,,,,,,,,,,,,,,,,,,,,,,,,,,,,,,,,,,,,,,,,,,
,,,,,,,,,,,,l,Correct!,0,66,66,90,1,t1.png,t5.png,4,9.55E-11,20,Female,2020-11-18_20h10.38.787,torte-q,2020.1.3,Win32,60,14047,0.304755,,,,,,,,,,,,,,,,,,,,,,,,,,,,,,,,,,,,,,,,,,,,
,,,,,,,,,,,,l,Incorrect,0,67,67,85,1,t3.png,t2.png,1,0.90855,20,Female,2020-11-18_20h10.38.787,torte-q,2020.1.3,Win32,60,14047,0.302115,,,,,,,,,,,,,,,,,,,,,,,,,,,,,,,,,,,,,,,,,,,,
,,,,,,,,,,,,a,Incorrect,0,68,68,3,1,t1.png,t5.png,4,9.55E-11,20,Female,2020-11-18_20h10.38.787,torte-q,2020.1.3,Win32,60,14047,0.36805,,,,,,,,,,,,,,,,,,,,,,,,,,,,,,,,,,,,,,,,,,,,
,,,,,,,,,,,,l,Correct!,0,69,69,43,1,t4.png,t2.png,2,0.059078,20,Female,2020-11-18_20h10.38.787,torte-q,2020.1.3,Win32,60,14047,0.60456,,,,,,,,,,,,,,,,,,,,,,,,,,,,,,,,,,,,,,,,,,,,
,,,,,,,,,,,,a,Incorrect,0,70,70,67,1,t1.png,t5.png,4,9.55E-11,20,Female,2020-11-18_20h10.38.787,torte-q,2020.1.3,Win32,60,14047,0.250525,,,,,,,,,,,,,,,,,,,,,,,,,,,,,,,,,,,,,,,,,,,,
,,,,,,,,,,,,a,Correct!,0,71,71,18,1,t4.png,t5.png,1,0.90025,20,Female,2020-11-18_20h10.38.787,torte-q,2020.1.3,Win32,60,14047,0.254005,,,,,,,,,,,,,,,,,,,,,,,,,,,,,,,,,,,,,,,,,,,,
,,,,,,,,,,,,l,Correct!,0,72,72,73,1,t4.png,t2.png,2,0.059078,20,Female,2020-11-18_20h10.38.787,torte-q,2020.1.3,Win32,60,14047,0.257915,,,,,,,,,,,,,,,,,,,,,,,,,,,,,,,,,,,,,,,,,,,,
,,,,,,,,,,,,l,Incorrect,0,73,73,8,1,t3.png,t2.png,1,0.90855,20,Female,2020-11-18_20h10.38.787,torte-q,2020.1.3,Win32,60,14047,0.226975,,,,,,,,,,,,,,,,,,,,,,,,,,,,,,,,,,,,,,,,,,,,
,,,,,,,,,,,,a,Incorrect,0,74,74,98,1,t2.png,t4.png,2,0.0591,20,Female,2020-11-18_20h10.38.787,torte-q,2020.1.3,Win32,60,14047,0.24102,,,,,,,,,,,,,,,,,,,,,,,,,,,,,,,,,,,,,,,,,,,,
,,,,,,,,,,,,l,Correct!,0,75,75,111,1,t5.png,t1.png,4,9.55E-11,20,Female,2020-11-18_20h10.38.787,torte-q,2020.1.3,Win32,60,14047,0.25087,,,,,,,,,,,,,,,,,,,,,,,,,,,,,,,,,,,,,,,,,,,,
,,,,,,,,,,,,a,Incorrect,0,76,76,87,1,t5.png,t1.png,4,9.55E-11,20,Female,2020-11-18_20h10.38.787,torte-q,2020.1.3,Win32,60,14047,0.265205,,,,,,,,,,,,,,,,,,,,,,,,,,,,,,,,,,,,,,,,,,,,
,,,,,,,,,,,,l,Incorrect,0,77,77,101,1,t4.png,t5.png,1,0.90025,20,Female,2020-11-18_20h10.38.787,torte-q,2020.1.3,Win32,60,14047,0.249085,,,,,,,,,,,,,,,,,,,,,,,,,,,,,,,,,,,,,,,,,,,,
,,,,,,,,,,,,a,Correct!,0,78,78,13,1,t5.png,t5.png,0,0.97829,20,Female,2020-11-18_20h10.38.787,torte-q,2020.1.3,Win32,60,14047,0.232285,,,,,,,,,,,,,,,,,,,,,,,,,,,,,,,,,,,,,,,,,,,,
,,,,,,,,,,,,l,Incorrect,0,79,79,79,1,t3.png,t2.png,1,0.909,20,Female,2020-11-18_20h10.38.787,torte-q,2020.1.3,Win32,60,14047,0.21648,,,,,,,,,,,,,,,,,,,,,,,,,,,,,,,,,,,,,,,,,,,,
,,,,,,,,,,,,l,Incorrect,0,80,80,66,1,t4.png,t5.png,1,0.9,20,Female,2020-11-18_20h10.38.787,torte-q,2020.1.3,Win32,60,14047,0.282135,,,,,,,,,,,,,,,,,,,,,,,,,,,,,,,,,,,,,,,,,,,,
,,,,,,,,,,,,a,Correct!,0,81,81,48,1,t5.png,t5.png,0,0.97829,20,Female,2020-11-18_20h10.38.787,torte-q,2020.1.3,Win32,60,14047,0.28335,,,,,,,,,,,,,,,,,,,,,,,,,,,,,,,,,,,,,,,,,,,,
,,,,,,,,,,,,a,Incorrect,0,82,82,19,1,t4.png,t2.png,2,0.059078,20,Female,2020-11-18_20h10.38.787,torte-q,2020.1.3,Win32,60,14047,0.333795,,,,,,,,,,,,,,,,,,,,,,,,,,,,,,,,,,,,,,,,,,,,
,,,,,,,,,,,,l,Incorrect,0,83,83,2,1,t3.png,t2.png,1,0.90855,20,Female,2020-11-18_20h10.38.787,torte-q,2020.1.3,Win32,60,14047,0.141395,,,,,,,,,,,,,,,,,,,,,,,,,,,,,,,,,,,,,,,,,,,,
,,,,,,,,,,,,a,Incorrect,0,84,84,47,1,t4.png,t2.png,2,0.059078,20,Female,2020-11-18_20h10.38.787,torte-q,2020.1.3,Win32,60,14047,0.25311,,,,,,,,,,,,,,,,,,,,,,,,,,,,,,,,,,,,,,,,,,,,
,,,,,,,,,,,,l,Correct!,0,85,85,49,1,t4.png,t5.png,1,0.9,20,Female,2020-11-18_20h10.38.787,torte-q,2020.1.3,Win32,60,14047,0.44871,,,,,,,,,,,,,,,,,,,,,,,,,,,,,,,,,,,,,,,,,,,,
,,,,,,,,,,,,l,Correct!,0,86,86,30,1,t3.png,t1.png,2,0.056466,20,Female,2020-11-18_20h10.38.787,torte-q,2020.1.3,Win32,60,14047,0.306845,,,,,,,,,,,,,,,,,,,,,,,,,,,,,,,,,,,,,,,,,,,,
,,,,,,,,,,,,l,Correct!,0,87,87,61,1,t1.png,t4.png,3,0.0000131,20,Female,2020-11-18_20h10.38.787,torte-q,2020.1.3,Win32,60,14047,0.272785,,,,,,,,,,,,,,,,,,,,,,,,,,,,,,,,,,,,,,,,,,,,
,,,,,,,,,,,,a,Correct!,0,88,88,107,1,t1.png,t1.png,0,0.978,20,Female,2020-11-18_20h10.38.787,torte-q,2020.1.3,Win32,60,14047,0.23424,,,,,,,,,,,,,,,,,,,,,,,,,,,,,,,,,,,,,,,,,,,,
,,,,,,,,,,,,l,Incorrect,0,89,89,97,1,t5.png,t5.png,0,0.97829,20,Female,2020-11-18_20h10.38.787,torte-q,2020.1.3,Win32,60,14047,0.29197,,,,,,,,,,,,,,,,,,,,,,,,,,,,,,,,,,,,,,,,,,,,
,,,,,,,,,,,,a,Incorrect,0,90,90,57,1,t2.png,t4.png,2,0.059078,20,Female,2020-11-18_20h10.38.787,torte-q,2020.1.3,Win32,60,14047,0.200535,,,,,,,,,,,,,,,,,,,,,,,,,,,,,,,,,,,,,,,,,,,,
,,,,,,,,,,,,l,Incorrect,0,91,91,118,1,t5.png,t5.png,0,0.978,20,Female,2020-11-18_20h10.38.787,torte-q,2020.1.3,Win32,60,14047,0.81931,,,,,,,,,,,,,,,,,,,,,,,,,,,,,,,,,,,,,,,,,,,,
,,,,,,,,,,,,a,Incorrect,0,92,92,72,1,t4.png,t2.png,2,0.059078,20,Female,2020-11-18_20h10.38.787,torte-q,2020.1.3,Win32,60,14047,0.28401,,,,,,,,,,,,,,,,,,,,,,,,,,,,,,,,,,,,,,,,,,,,
,,,,,,,,,,,,l,Incorrect,0,93,93,78,1,t1.png,t1.png,0,0.978,20,Female,2020-11-18_20h10.38.787,torte-q,2020.1.3,Win32,60,14047,0.001125,,,,,,,,,,,,,,,,,,,,,,,,,,,,,,,,,,,,,,,,,,,,
,,,,,,,,,,,,l,Correct!,0,94,94,55,1,t2.png,t4.png,2,0.059078,20,Female,2020-11-18_20h10.38.787,torte-q,2020.1.3,Win32,60,14047,0.26765,,,,,,,,,,,,,,,,,,,,,,,,,,,,,,,,,,,,,,,,,,,,
,,,,,,,,,,,,l,Incorrect,0,95,95,44,1,t2.png,t3.png,1,0.909,20,Female,2020-11-18_20h10.38.787,torte-q,2020.1.3,Win32,60,14047,0.28331,,,,,,,,,,,,,,,,,,,,,,,,,,,,,,,,,,,,,,,,,,,,
,,,,,,,,,,,,a,Incorrect,0,96,96,94,1,t5.png,t1.png,4,9.55E-11,20,Female,2020-11-18_20h10.38.787,torte-q,2020.1.3,Win32,60,14047,0.255835,,,,,,,,,,,,,,,,,,,,,,,,,,,,,,,,,,,,,,,,,,,,
,,,,,,,,,,,,l,Correct!,0,97,97,69,1,t4.png,t2.png,2,0.059078,20,Female,2020-11-18_20h10.38.787,torte-q,2020.1.3,Win32,60,14047,0.236,,,,,,,,,,,,,,,,,,,,,,,,,,,,,,,,,,,,,,,,,,,,
,,,,,,,,,,,,l,Correct!,0,98,98,38,1,t3.png,t1.png,2,0.056466,20,Female,2020-11-18_20h10.38.787,torte-q,2020.1.3,Win32,60,14047,0.254115,,,,,,,,,,,,,,,,,,,,,,,,,,,,,,,,,,,,,,,,,,,,
,,,,,,,,,,,,l,Correct!,0,99,99,60,1,t2.png,t4.png,2,0.059078,20,Female,2020-11-18_20h10.38.787,torte-q,2020.1.3,Win32,60,14047,0.251955,,,,,,,,,,,,,,,,,,,,,,,,,,,,,,,,,,,,,,,,,,,,
,,,,,,,,,,,,l,Correct!,0,100,100,4,1,t1.png,t5.png,4,9.55E-11,20,Female,2020-11-18_20h10.38.787,torte-q,2020.1.3,Win32,60,14047,0.13321,,,,,,,,,,,,,,,,,,,,,,,,,,,,,,,,,,,,,,,,,,,,
,,,,,,,,,,,,l,Incorrect,0,101,101,32,1,t4.png,t5.png,1,0.90025,20,Female,2020-11-18_20h10.38.787,torte-q,2020.1.3,Win32,60,14047,0.284565,,,,,,,,,,,,,,,,,,,,,,,,,,,,,,,,,,,,,,,,,,,,
,,,,,,,,,,,,a,Correct!,0,102,102,105,1,t3.png,t2.png,1,0.90855,20,Female,2020-11-18_20h10.38.787,torte-q,2020.1.3,Win32,60,14047,0.61714,,,,,,,,,,,,,,,,,,,,,,,,,,,,,,,,,,,,,,,,,,,,
,,,,,,,,,,,,a,Incorrect,0,103,103,102,1,t4.png,t2.png,2,0.059078,20,Female,2020-11-18_20h10.38.787,torte-q,2020.1.3,Win32,60,14047,0.241265,,,,,,,,,,,,,,,,,,,,,,,,,,,,,,,,,,,,,,,,,,,,
,,,,,,,,,,,,l,Correct!,0,104,104,119,1,t1.png,t5.png,4,9.55E-11,20,Female,2020-11-18_20h10.38.787,torte-q,2020.1.3,Win32,60,14047,0.35066,,,,,,,,,,,,,,,,,,,,,,,,,,,,,,,,,,,,,,,,,,,,
,,,,,,,,,,,,a,Incorrect,0,105,105,27,1,t3.png,t1.png,2,0.0565,20,Female,2020-11-18_20h10.38.787,torte-q,2020.1.3,Win32,60,14047,1.166285,,,,,,,,,,,,,,,,,,,,,,,,,,,,,,,,,,,,,,,,,,,,
,,,,,,,,,,,,l,Correct!,0,106,106,91,1,t1.png,t4.png,3,0.0000131,20,Female,2020-11-18_20h10.38.787,torte-q,2020.1.3,Win32,60,14047,0.401685,,,,,,,,,,,,,,,,,,,,,,,,,,,,,,,,,,,,,,,,,,,,
,,,,,,,,,,,,l,Incorrect,0,107,107,15,1,t3.png,t2.png,1,0.90855,20,Female,2020-11-18_20h10.38.787,torte-q,2020.1.3,Win32,60,14047,0.24083,,,,,,,,,,,,,,,,,,,,,,,,,,,,,,,,,,,,,,,,,,,,
,,,,,,,,,,,,a,Correct!,0,108,108,58,1,t5.png,t4.png,1,0.90025,20,Female,2020-11-18_20h10.38.787,torte-q,2020.1.3,Win32,60,14047,0.24939,,,,,,,,,,,,,,,,,,,,,,,,,,,,,,,,,,,,,,,,,,,,
,,,,,,,,,,,,a,Incorrect,0,109,109,108,1,t5.png,t1.png,4,9.55E-11,20,Female,2020-11-18_20h10.38.787,torte-q,2020.1.3,Win32,60,14047,0.265865,,,,,,,,,,,,,,,,,,,,,,,,,,,,,,,,,,,,,,,,,,,,
,,,,,,,,,,,,l,Incorrect,0,110,110,110,1,t4.png,t5.png,1,0.90025,20,Female,2020-11-18_20h10.38.787,torte-q,2020.1.3,Win32,60,14047,0.38464,,,,,,,,,,,,,,,,,,,,,,,,,,,,,,,,,,,,,,,,,,,,
,,,,,,,,,,,,a,Incorrect,0,111,111,54,1,t1.png,t5.png,4,9.55E-11,20,Female,2020-11-18_20h10.38.787,torte-q,2020.1.3,Win32,60,14047,0.841475,,,,,,,,,,,,,,,,,,,,,,,,,,,,,,,,,,,,,,,,,,,,
,,,,,,,,,,,,l,Correct!,0,112,112,56,1,t5.png,t1.png,4,9.55E-11,20,Female,2020-11-18_20h10.38.787,torte-q,2020.1.3,Win32,60,14047,0.40515,,,,,,,,,,,,,,,,,,,,,,,,,,,,,,,,,,,,,,,,,,,,
,,,,,,,,,,,,l,Correct!,0,113,113,86,1,t3.png,t1.png,2,0.056466,20,Female,2020-11-18_20h10.38.787,torte-q,2020.1.3,Win32,60,14047,0.335145,,,,,,,,,,,,,,,,,,,,,,,,,,,,,,,,,,,,,,,,,,,,
,,,,,,,,,,,,l,Incorrect,0,114,114,59,1,t5.png,t4.png,1,0.9,20,Female,2020-11-18_20h10.38.787,torte-q,2020.1.3,Win32,60,14047,0.39829,,,,,,,,,,,,,,,,,,,,,,,,,,,,,,,,,,,,,,,,,,,,
,,,,,,,,,,,,a,Correct!,0,115,115,84,1,t1.png,t1.png,0,0.97829,20,Female,2020-11-18_20h10.38.787,torte-q,2020.1.3,Win32,60,14047,0.22089,,,,,,,,,,,,,,,,,,,,,,,,,,,,,,,,,,,,,,,,,,,,
,,,,,,,,,,,,a,Incorrect,0,116,116,31,1,t1.png,t5.png,4,9.55E-11,20,Female,2020-11-18_20h10.38.787,torte-q,2020.1.3,Win32,60,14047,0.19886,,,,,,,,,,,,,,,,,,,,,,,,,,,,,,,,,,,,,,,,,,,,
,,,,,,,,,,,,l,Incorrect,0,117,117,9,1,t4.png,t5.png,1,0.9,20,Female,2020-11-18_20h10.38.787,torte-q,2020.1.3,Win32,60,14047,0.301355,,,,,,,,,,,,,,,,,,,,,,,,,,,,,,,,,,,,,,,,,,,,
,,,,,,,,,,,,l,Incorrect,0,118,118,29,1,t5.png,t5.png,0,0.97829,20,Female,2020-11-18_20h10.38.787,torte-q,2020.1.3,Win32,60,14047,0.256255,,,,,,,,,,,,,,,,,,,,,,,,,,,,,,,,,,,,,,,,,,,,
,,,,,,,,,,,,l,Correct!,0,119,119,17,1,t1.png,t4.png,3,0.0000131,20,Female,2020-11-18_20h10.38.787,torte-q,2020.1.3,Win32,60,14047,0.2921,,,,,,,,,,,,,,,,,,,,,,,,,,,,,,,,,,,,,,,,,,,,
,,,,,,,,,,,,l,Correct!,,,,,,t3.png,t5.png,2,0.056466,20,Female,2020-11-18_20h10.38.787,torte-q,2020.1.3,Win32,60,14047,0.950755,space,31.061725,space,101.045015,0,0,0,6,1,,,,,,,,,,,,,,,,,,,,,,,,,,,,,,,,,,,
,,,,,,,,,,,,a,Correct!,,,,,,t1.png,t2.png,1,0.9,20,Female,2020-11-18_20h10.38.787,torte-q,2020.1.3,Win32,60,14047,0.284885,,,,,0,1,1,1,1,,,,,,,,,,,,,,,,,,,,,,,,,,,,,,,,,,,
,,,,,,,,,,,,l,Correct!,,,,,,t5.png,t1.png,4,9.55E-11,20,Female,2020-11-18_20h10.38.787,torte-q,2020.1.3,Win32,60,14047,0.209325,,,,,0,2,2,71,1,,,,,,,,,,,,,,,,,,,,,,,,,,,,,,,,,,,
,,,,,,,,,,,,l,Incorrect,,,,,,t1.png,t2.png,1,0.90025,20,Female,2020-11-18_20h10.38.787,torte-q,2020.1.3,Win32,60,14047,0.27192,,,,,0,3,3,112,1,,,,,,,,,,,,,,,,,,,,,,,,,,,,,,,,,,,
,,,,,,,,,,,,a,Correct!,,,,,,t3.png,t2.png,1,0.90855,20,Female,2020-11-18_20h10.38.787,torte-q,2020.1.3,Win32,60,14047,0.520875,,,,,0,4,4,97,1,,,,,,,,,,,,,,,,,,,,,,,,,,,,,,,,,,,
,,,,,,,,,,,,a,Incorrect,,,,,,t3.png,t1.png,2,0.056466,20,Female,2020-11-18_20h10.38.787,torte-q,2020.1.3,Win32,60,14047,0.46765,,,,,0,5,5,64,1,,,,,,,,,,,,,,,,,,,,,,,,,,,,,,,,,,,
,,,,,,,,,,,,l,Correct!,,,,,,t1.png,t3.png,2,0.056466,20,Female,2020-11-18_20h10.38.787,torte-q,2020.1.3,Win32,60,14047,0.451205,,,,,0,6,6,87,1,,,,,,,,,,,,,,,,,,,,,,,,,,,,,,,,,,,
,,,,,,,,,,,,l,Incorrect,,,,,,t4.png,t4.png,0,0.98115,20,Female,2020-11-18_20h10.38.787,torte-q,2020.1.3,Win32,60,14047,1.21292,,,,,0,7,7,79,1,,,,,,,,,,,,,,,,,,,,,,,,,,,,,,,,,,,
,,,,,,,,,,,,l,Correct!,,,,,,t2.png,t4.png,2,0.059078,20,Female,2020-11-18_20h10.38.787,torte-q,2020.1.3,Win32,60,14047,0.574995,,,,,0,8,8,37,1,,,,,,,,,,,,,,,,,,,,,,,,,,,,,,,,,,,
,,,,,,,,,,,,a,Correct!,,,,,,t3.png,t2.png,1,0.90855,20,Female,2020-11-18_20h10.38.787,torte-q,2020.1.3,Win32,60,14047,0.71684,,,,,0,9,9,53,1,,,,,,,,,,,,,,,,,,,,,,,,,,,,,,,,,,,
,,,,,,,,,,,,a,Correct!,,,,,,t5.png,t5.png,0,0.97829,20,Female,2020-11-18_20h10.38.787,torte-q,2020.1.3,Win32,60,14047,0.43749,,,,,0,10,10,70,1,,,,,,,,,,,,,,,,,,,,,,,,,,,,,,,,,,,
,,,,,,,,,,,,a,Incorrect,,,,,,t5.png,t1.png,4,9.55E-11,20,Female,2020-11-18_20h10.38.787,torte-q,2020.1.3,Win32,60,14047,0.46696,,,,,0,11,11,100,1,,,,,,,,,,,,,,,,,,,,,,,,,,,,,,,,,,,
,,,,,,,,,,,,a,Correct!,,,,,,t3.png,t2.png,1,0.909,20,Female,2020-11-18_20h10.38.787,torte-q,2020.1.3,Win32,60,14047,0.63433,,,,,0,12,12,23,1,,,,,,,,,,,,,,,,,,,,,,,,,,,,,,,,,,,
,,,,,,,,,,,,l,Correct!,,,,,,t1.png,t4.png,3,0.0000131,20,Female,2020-11-18_20h10.38.787,torte-q,2020.1.3,Win32,60,14047,0.87704,,,,,0,13,13,17,1,,,,,,,,,,,,,,,,,,,,,,,,,,,,,,,,,,,
,,,,,,,,,,,,l,Correct!,,,,,,t3.png,t4.png,1,0.909,20,Female,2020-11-18_20h10.38.787,torte-q,2020.1.3,Win32,60,14047,0.750355,,,,,0,14,14,106,1,,,,,,,,,,,,,,,,,,,,,,,,,,,,,,,,,,,
,,,,,,,,,,,,a,Incorrect,,,,,,t4.png,t1.png,3,0.0000131,20,Female,2020-11-18_20h10.38.787,torte-q,2020.1.3,Win32,60,14047,0.585235,,,,,0,15,15,42,1,,,,,,,,,,,,,,,,,,,,,,,,,,,,,,,,,,,
,,,,,,,,,,,,a,Correct!,,,,,,t4.png,t3.png,1,0.90855,20,Female,2020-11-18_20h10.38.787,torte-q,2020.1.3,Win32,60,14047,0.60823,,,,,0,16,16,75,1,,,,,,,,,,,,,,,,,,,,,,,,,,,,,,,,,,,
,,,,,,,,,,,,a,Correct!,,,,,,t5.png,t4.png,1,0.9,20,Female,2020-11-18_20h10.38.787,torte-q,2020.1.3,Win32,60,14047,0.65203,,,,,0,17,17,49,1,,,,,,,,,,,,,,,,,,,,,,,,,,,,,,,,,,,
,,,,,,,,,,,,a,Correct!,,,,,,t4.png,t4.png,0,0.98115,20,Female,2020-11-18_20h10.38.787,torte-q,2020.1.3,Win32,60,14047,0.58461,,,,,0,18,18,80,1,,,,,,,,,,,,,,,,,,,,,,,,,,,,,,,,,,,
,,,,,,,,,,,,a,Incorrect,,,,,,t5.png,t1.png,4,9.55E-11,20,Female,2020-11-18_20h10.38.787,torte-q,2020.1.3,Win32,60,14047,0.57145,,,,,0,19,19,43,1,,,,,,,,,,,,,,,,,,,,,,,,,,,,,,,,,,,
,,,,,,,,,,,,l,Incorrect,,,,,,t4.png,t4.png,0,0.98115,20,Female,2020-11-18_20h10.38.787,torte-q,2020.1.3,Win32,60,14047,0.88599,,,,,0,20,20,52,1,,,,,,,,,,,,,,,,,,,,,,,,,,,,,,,,,,,
,,,,,,,,,,,,l,Incorrect,,,,,,t5.png,t5.png,0,0.97829,20,Female,2020-11-18_20h10.38.787,torte-q,2020.1.3,Win32,60,14047,0.64015,,,,,0,21,21,73,1,,,,,,,,,,,,,,,,,,,,,,,,,,,,,,,,,,,
,,,,,,,,,,,,a,Correct!,,,,,,t4.png,t5.png,1,0.90025,20,Female,2020-11-18_20h10.38.787,torte-q,2020.1.3,Win32,60,14047,1.1892,,,,,0,22,22,47,1,,,,,,,,,,,,,,,,,,,,,,,,,,,,,,,,,,,
,,,,,,,,,,,,l,Incorrect,,,,,,t3.png,t4.png,1,0.909,20,Female,2020-11-18_20h10.38.787,torte-q,2020.1.3,Win32,60,14047,0.819675,,,,,0,23,23,82,1,,,,,,,,,,,,,,,,,,,,,,,,,,,,,,,,,,,
,,,,,,,,,,,,l,Incorrect,,,,,,t5.png,t5.png,0,0.978,20,Female,2020-11-18_20h10.38.787,torte-q,2020.1.3,Win32,60,14047,0.76761,,,,,0,24,24,117,1,,,,,,,,,,,,,,,,,,,,,,,,,,,,,,,,,,,
,,,,,,,,,,,,a,Incorrect,,,,,,t4.png,t2.png,2,0.0591,20,Female,2020-11-18_20h10.38.787,torte-q,2020.1.3,Win32,60,14047,0.601525,,,,,0,25,25,36,1,,,,,,,,,,,,,,,,,,,,,,,,,,,,,,,,,,,
,,,,,,,,,,,,l,Incorrect,,,,,,t4.png,t5.png,1,0.90025,20,Female,2020-11-18_20h10.38.787,torte-q,2020.1.3,Win32,60,14047,1.084565,,,,,0,26,26,58,1,,,,,,,,,,,,,,,,,,,,,,,,,,,,,,,,,,,
,,,,,,,,,,,,l,Incorrect,,,,,,t2.png,t3.png,1,0.90855,20,Female,2020-11-18_20h10.38.787,torte-q,2020.1.3,Win32,60,14047,1.384875,,,,,0,27,27,111,1,,,,,,,,,,,,,,,,,,,,,,,,,,,,,,,,,,,
,,,,,,,,,,,,l,Correct!,,,,,,t1.png,t5.png,4,9.55E-11,20,Female,2020-11-18_20h10.38.787,torte-q,2020.1.3,Win32,60,14047,0.679855,,,,,0,28,28,55,1,,,,,,,,,,,,,,,,,,,,,,,,,,,,,,,,,,,
,,,,,,,,,,,,l,Incorrect,,,,,,t4.png,t4.png,0,0.98115,20,Female,2020-11-18_20h10.38.787,torte-q,2020.1.3,Win32,60,14047,1.01993,,,,,0,29,29,90,1,,,,,,,,,,,,,,,,,,,,,,,,,,,,,,,,,,,
,,,,,,,,,,,,a,Correct!,,,,,,t2.png,t2.png,0,0.98115,20,Female,2020-11-18_20h10.38.787,torte-q,2020.1.3,Win32,60,14047,1.117295,,,,,0,30,30,57,1,,,,,,,,,,,,,,,,,,,,,,,,,,,,,,,,,,,
,,,,,,,,,,,,a,Correct!,,,,,,t2.png,t1.png,1,0.90025,20,Female,2020-11-18_20h10.38.787,torte-q,2020.1.3,Win32,60,14047,0.643345,,,,,0,31,31,5,1,,,,,,,,,,,,,,,,,,,,,,,,,,,,,,,,,,,
,,,,,,,,,,,,l,Correct!,,,,,,t1.png,t5.png,4,9.55E-11,20,Female,2020-11-18_20h10.38.787,torte-q,2020.1.3,Win32,60,14047,0.42656,,,,,0,32,32,85,1,,,,,,,,,,,,,,,,,,,,,,,,,,,,,,,,,,,
,,,,,,,,,,,,a,Incorrect,,,,,,t4.png,t2.png,2,0.059078,20,Female,2020-11-18_20h10.38.787,torte-q,2020.1.3,Win32,60,14047,0.567805,,,,,0,33,33,109,1,,,,,,,,,,,,,,,,,,,,,,,,,,,,,,,,,,,
,,,,,,,,,,,,l,Correct!,,,,,,t2.png,t4.png,2,0.059078,20,Female,2020-11-18_20h10.38.787,torte-q,2020.1.3,Win32,60,14047,0.485745,,,,,0,34,34,77,1,,,,,,,,,,,,,,,,,,,,,,,,,,,,,,,,,,,
,,,,,,,,,,,,a,Incorrect,,,,,,t4.png,t2.png,2,0.059078,20,Female,2020-11-18_20h10.38.787,torte-q,2020.1.3,Win32,60,14047,0.467745,,,,,0,35,35,88,1,,,,,,,,,,,,,,,,,,,,,,,,,,,,,,,,,,,
,,,,,,,,,,,,l,Correct!,,,,,,t1.png,t3.png,2,0.056466,20,Female,2020-11-18_20h10.38.787,torte-q,2020.1.3,Win32,60,14047,0.48311,,,,,0,36,36,99,1,,,,,,,,,,,,,,,,,,,,,,,,,,,,,,,,,,,
,,,,,,,,,,,,l,Incorrect,,,,,,t1.png,t2.png,1,0.90025,20,Female,2020-11-18_20h10.38.787,torte-q,2020.1.3,Win32,60,14047,0.671905,,,,,0,37,37,33,1,,,,,,,,,,,,,,,,,,,,,,,,,,,,,,,,,,,
,,,,,,,,,,,,l,Correct!,,,,,,t2.png,t3.png,1,0.90855,20,Female,2020-11-18_20h10.38.787,torte-q,2020.1.3,Win32,60,14047,0.616775,,,,,0,38,38,10,1,,,,,,,,,,,,,,,,,,,,,,,,,,,,,,,,,,,
,,,,,,,,,,,,a,Incorrect,,,,,,t4.png,t1.png,3,0.0000131,20,Female,2020-11-18_20h10.38.787,torte-q,2020.1.3,Win32,60,14047,0.46831,,,,,0,39,39,93,1,,,,,,,,,,,,,,,,,,,,,,,,,,,,,,,,,,,
,,,,,,,,,,,,a,Incorrect,,,,,,t4.png,t2.png,2,0.059078,20,Female,2020-11-18_20h10.38.787,torte-q,2020.1.3,Win32,60,14047,0.45692,,,,,0,40,40,86,1,,,,,,,,,,,,,,,,,,,,,,,,,,,,,,,,,,,
,,,,,,,,,,,,a,Incorrect,,,,,,t5.png,t2.png,3,0.0000131,20,Female,2020-11-18_20h10.38.787,torte-q,2020.1.3,Win32,60,14047,0.535,,,,,0,41,41,116,1,,,,,,,,,,,,,,,,,,,,,,,,,,,,,,,,,,,
,,,,,,,,,,,,l,Correct!,,,,,,t2.png,t5.png,3,0.0000131,20,Female,2020-11-18_20h10.38.787,torte-q,2020.1.3,Win32,60,14047,0.44498,,,,,0,42,42,95,1,,,,,,,,,,,,,,,,,,,,,,,,,,,,,,,,,,,
,,,,,,,,,,,,a,Correct!,,,,,,t2.png,t2.png,0,0.98115,20,Female,2020-11-18_20h10.38.787,torte-q,2020.1.3,Win32,60,14047,0.46069,,,,,0,43,43,59,1,,,,,,,,,,,,,,,,,,,,,,,,,,,,,,,,,,,
,,,,,,,,,,,,l,Incorrect,,,,,,t1.png,t2.png,1,0.90025,20,Female,2020-11-18_20h10.38.787,torte-q,2020.1.3,Win32,60,14047,1.049635,,,,,0,44,44,72,1,,,,,,,,,,,,,,,,,,,,,,,,,,,,,,,,,,,
,,,,,,,,,,,,l,Incorrect,,,,,,t5.png,t4.png,1,0.90025,20,Female,2020-11-18_20h10.38.787,torte-q,2020.1.3,Win32,60,14047,0.75122,,,,,0,45,45,26,1,,,,,,,,,,,,,,,,,,,,,,,,,,,,,,,,,,,
,,,,,,,,,,,,a,Correct!,,,,,,t2.png,t1.png,1,0.9,20,Female,2020-11-18_20h10.38.787,torte-q,2020.1.3,Win32,60,14047,0.601575,,,,,0,46,46,118,1,,,,,,,,,,,,,,,,,,,,,,,,,,,,,,,,,,,
,,,,,,,,,,,,a,Correct!,,,,,,t4.png,t3.png,1,0.909,20,Female,2020-11-18_20h10.38.787,torte-q,2020.1.3,Win32,60,14047,0.501555,,,,,0,47,47,20,1,,,,,,,,,,,,,,,,,,,,,,,,,,,,,,,,,,,
,,,,,,,,,,,,a,Incorrect,,,,,,t5.png,t3.png,2,0.056466,20,Female,2020-11-18_20h10.38.787,torte-q,2020.1.3,Win32,60,14047,0.48326,,,,,0,48,48,114,1,,,,,,,,,,,,,,,,,,,,,,,,,,,,,,,,,,,
,,,,,,,,,,,,l,Incorrect,,,,,,t1.png,t1.png,0,0.97829,20,Female,2020-11-18_20h10.38.787,torte-q,2020.1.3,Win32,60,14047,0.668345,,,,,0,49,49,9,1,,,,,,,,,,,,,,,,,,,,,,,,,,,,,,,,,,,
,,,,,,,,,,,,l,Incorrect,,,,,,t2.png,t3.png,1,0.90855,20,Female,2020-11-18_20h10.38.787,torte-q,2020.1.3,Win32,60,14047,0.90534,,,,,0,50,50,65,1,,,,,,,,,,,,,,,,,,,,,,,,,,,,,,,,,,,
,,,,,,,,,,,,a,Correct!,,,,,,t4.png,t4.png,0,0.98115,20,Female,2020-11-18_20h10.38.787,torte-q,2020.1.3,Win32,60,14047,1.222515,,,,,0,51,51,21,1,,,,,,,,,,,,,,,,,,,,,,,,,,,,,,,,,,,
,,,,,,,,,,,,l,Correct!,,,,,,t2.png,t5.png,3,0.0000131,20,Female,2020-11-18_20h10.38.787,torte-q,2020.1.3,Win32,60,14047,0.726435,,,,,0,52,52,8,1,,,,,,,,,,,,,,,,,,,,,,,,,,,,,,,,,,,
,,,,,,,,,,,,a,Correct!,,,,,,t3.png,t2.png,1,0.90855,20,Female,2020-11-18_20h10.38.787,torte-q,2020.1.3,Win32,60,14047,0.7684,,,,,0,53,53,18,1,,,,,,,,,,,,,,,,,,,,,,,,,,,,,,,,,,,
,,,,,,,,,,,,l,Incorrect,,,,,,t4.png,t5.png,1,0.9,20,Female,2020-11-18_20h10.38.787,torte-q,2020.1.3,Win32,60,14047,0.935945,,,,,0,54,54,115,1,,,,,,,,,,,,,,,,,,,,,,,,,,,,,,,,,,,
,,,,,,,,,,,,a,Correct!,,,,,,t5.png,t4.png,1,0.90025,20,Female,2020-11-18_20h10.38.787,torte-q,2020.1.3,Win32,60,14047,1.067965,,,,,0,55,55,27,1,,,,,,,,,,,,,,,,,,,,,,,,,,,,,,,,,,,
,,,,,,,,,,,,a,Incorrect,,,,,,t5.png,t4.png,1,0.90025,20,Female,2020-11-18_20h10.38.787,torte-q,2020.1.3,Win32,60,14047,1.096435,,,,,0,56,56,34,1,,,,,,,,,,,,,,,,,,,,,,,,,,,,,,,,,,,
,,,,,,,,,,,,a,Correct!,,,,,,t2.png,t1.png,1,0.90025,20,Female,2020-11-18_20h10.38.787,torte-q,2020.1.3,Win32,60,14047,0.69724,,,,,0,57,57,19,1,,,,,,,,,,,,,,,,,,,,,,,,,,,,,,,,,,,
,,,,,,,,,,,,a,Incorrect,,,,,,t5.png,t3.png,2,0.0565,20,Female,2020-11-18_20h10.38.787,torte-q,2020.1.3,Win32,60,14047,0.56849,,,,,0,58,58,39,1,,,,,,,,,,,,,,,,,,,,,,,,,,,,,,,,,,,
,,,,,,,,,,,,a,Incorrect,,,,,,t5.png,t2.png,3,0.0000131,20,Female,2020-11-18_20h10.38.787,torte-q,2020.1.3,Win32,60,14047,0.777665,,,,,0,59,59,98,1,,,,,,,,,,,,,,,,,,,,,,,,,,,,,,,,,,,
,,,,,,,,,,,,a,Correct!,,,,,,t4.png,t3.png,1,0.90855,20,Female,2020-11-18_20h10.38.787,torte-q,2020.1.3,Win32,60,14047,0.926025,,,,,0,60,60,45,1,,,,,,,,,,,,,,,,,,,,,,,,,,,,,,,,,,,
,,,,,,,,,,,,l,Incorrect,,,,,,t3.png,t5.png,2,0.056466,20,Female,2020-11-18_20h10.38.787,torte-q,2020.1.3,Win32,60,14047,0.75126,,,,,0,61,61,44,1,,,,,,,,,,,,,,,,,,,,,,,,,,,,,,,,,,,
,,,,,,,,,,,,l,Correct!,,,,,,t1.png,t5.png,4,9.55E-11,20,Female,2020-11-18_20h10.38.787,torte-q,2020.1.3,Win32,60,14047,0.43472,,,,,0,62,62,41,1,,,,,,,,,,,,,,,,,,,,,,,,,,,,,,,,,,,
,,,,,,,,,,,,a,Correct!,,,,,,t3.png,t2.png,1,0.909,20,Female,2020-11-18_20h10.38.787,torte-q,2020.1.3,Win32,60,14047,1.00563,,,,,0,63,63,3,1,,,,,,,,,,,,,,,,,,,,,,,,,,,,,,,,,,,
,,,,,,,,,,,,l,Correct!,,,,,,t1.png,t3.png,2,0.056466,20,Female,2020-11-18_20h10.38.787,torte-q,2020.1.3,Win32,60,14047,0.501895,,,,,0,64,64,69,1,,,,,,,,,,,,,,,,,,,,,,,,,,,,,,,,,,,
,,,,,,,,,,,,a,Correct!,,,,,,t4.png,t3.png,1,0.90855,20,Female,2020-11-18_20h10.38.787,torte-q,2020.1.3,Win32,60,14047,0.86839,,,,,0,65,65,35,1,,,,,,,,,,,,,,,,,,,,,,,,,,,,,,,,,,,
,,,,,,,,,,,,l,Correct!,,,,,,t1.png,t4.png,3,0.0000131,20,Female,2020-11-18_20h10.38.787,torte-q,2020.1.3,Win32,60,14047,0.608155,,,,,0,66,66,107,1,,,,,,,,,,,,,,,,,,,,,,,,,,,,,,,,,,,
,,,,,,,,,,,,l,Correct!,,,,,,t2.png,t5.png,3,0.0000131,20,Female,2020-11-18_20h10.38.787,torte-q,2020.1.3,Win32,60,14047,0.41794,,,,,0,67,67,40,1,,,,,,,,,,,,,,,,,,,,,,,,,,,,,,,,,,,
,,,,,,,,,,,,l,Correct!,,,,,,t2.png,t5.png,3,0.0000131,20,Female,2020-11-18_20h10.38.787,torte-q,2020.1.3,Win32,60,14047,0.46701,,,,,0,68,68,104,1,,,,,,,,,,,,,,,,,,,,,,,,,,,,,,,,,,,
,,,,,,,,,,,,l,Incorrect,,,,,,t3.png,t4.png,1,0.909,20,Female,2020-11-18_20h10.38.787,torte-q,2020.1.3,Win32,60,14047,0.472265,,,,,0,69,69,89,1,,,,,,,,,,,,,,,,,,,,,,,,,,,,,,,,,,,
,,,,,,,,,,,,a,Incorrect,,,,,,t5.png,t2.png,3,0.0000131,20,Female,2020-11-18_20h10.38.787,torte-q,2020.1.3,Win32,60,14047,0.46751,,,,,0,70,70,91,1,,,,,,,,,,,,,,,,,,,,,,,,,,,,,,,,,,,
,,,,,,,,,,,,a,Correct!,,,,,,t2.png,t1.png,1,0.90025,20,Female,2020-11-18_20h10.38.787,torte-q,2020.1.3,Win32,60,14047,0.506305,,,,,0,71,71,4,1,,,,,,,,,,,,,,,,,,,,,,,,,,,,,,,,,,,
,,,,,,,,,,,,l,Incorrect,,,,,,t1.png,t1.png,0,0.97829,20,Female,2020-11-18_20h10.38.787,torte-q,2020.1.3,Win32,60,14047,0.78492,,,,,0,72,72,78,1,,,,,,,,,,,,,,,,,,,,,,,,,,,,,,,,,,,
,,,,,,,,,,,,a,Correct!,,,,,,t5.png,t4.png,1,0.9,20,Female,2020-11-18_20h10.38.787,torte-q,2020.1.3,Win32,60,14047,0.95694,,,,,0,73,73,76,1,,,,,,,,,,,,,,,,,,,,,,,,,,,,,,,,,,,
,,,,,,,,,,,,a,Incorrect,,,,,,t3.png,t1.png,2,0.056466,20,Female,2020-11-18_20h10.38.787,torte-q,2020.1.3,Win32,60,14047,0.626155,,,,,0,74,74,32,1,,,,,,,,,,,,,,,,,,,,,,,,,,,,,,,,,,,
,,,,,,,,,,,,a,Incorrect,,,,,,t5.png,t1.png,4,9.55E-11,20,Female,2020-11-18_20h10.38.787,torte-q,2020.1.3,Win32,60,14047,0.40106,,,,,0,75,75,22,1,,,,,,,,,,,,,,,,,,,,,,,,,,,,,,,,,,,
,,,,,,,,,,,,a,Incorrect,,,,,,t5.png,t1.png,4,9.55E-11,20,Female,2020-11-18_20h10.38.787,torte-q,2020.1.3,Win32,60,14047,0.3344,,,,,0,76,76,102,1,,,,,,,,,,,,,,,,,,,,,,,,,,,,,,,,,,,
,,,,,,,,,,,,l,Incorrect,,,,,,t1.png,t1.png,0,0.978,20,Female,2020-11-18_20h10.38.787,torte-q,2020.1.3,Win32,60,14047,0.88262,,,,,0,77,77,54,1,,,,,,,,,,,,,,,,,,,,,,,,,,,,,,,,,,,
,,,,,,,,,,,,a,Correct!,,,,,,t5.png,t5.png,0,0.97829,20,Female,2020-11-18_20h10.38.787,torte-q,2020.1.3,Win32,60,14047,0.416145,,,,,0,78,78,94,1,,,,,,,,,,,,,,,,,,,,,,,,,,,,,,,,,,,
,,,,,,,,,,,,l,Incorrect,,,,,,t2.png,t3.png,1,0.909,20,Female,2020-11-18_20h10.38.787,torte-q,2020.1.3,Win32,60,14047,0.82527,,,,,0,79,79,74,1,,,,,,,,,,,,,,,,,,,,,,,,,,,,,,,,,,,
,,,,,,,,,,,,l,Correct!,,,,,,t1.png,t3.png,2,0.056466,20,Female,2020-11-18_20h10.38.787,torte-q,2020.1.3,Win32,60,14047,0.58443,,,,,0,80,80,63,1,,,,,,,,,,,,,,,,,,,,,,,,,,,,,,,,,,,
,,,,,,,,,,,,l,Incorrect,,,,,,t4.png,t5.png,1,0.90025,20,Female,2020-11-18_20h10.38.787,torte-q,2020.1.3,Win32,60,14047,0.84004,,,,,0,81,81,113,1,,,,,,,,,,,,,,,,,,,,,,,,,,,,,,,,,,,
,,,,,,,,,,,,l,Incorrect,,,,,,t2.png,t3.png,1,0.90855,20,Female,2020-11-18_20h10.38.787,torte-q,2020.1.3,Win32,60,14047,0.62632,,,,,0,82,82,68,1,,,,,,,,,,,,,,,,,,,,,,,,,,,,,,,,,,,
,,,,,,,,,,,,l,Correct!,,,,,,t1.png,t2.png,1,0.90025,20,Female,2020-11-18_20h10.38.787,torte-q,2020.1.3,Win32,60,14047,1.917865,,,,,0,83,83,105,1,,,,,,,,,,,,,,,,,,,,,,,,,,,,,,,,,,,
,,,,,,,,,,,,l,Correct!,,,,,,t1.png,t4.png,3,0.0000131,20,Female,2020-11-18_20h10.38.787,torte-q,2020.1.3,Win32,60,14047,0.509915,,,,,0,84,84,92,1,,,,,,,,,,,,,,,,,,,,,,,,,,,,,,,,,,,
,,,,,,,,,,,,l,Incorrect,,,,,,t2.png,t2.png,0,0.981,20,Female,2020-11-18_20h10.38.787,torte-q,2020.1.3,Win32,60,14047,0.665355,,,,,0,85,85,101,1,,,,,,,,,,,,,,,,,,,,,,,,,,,,,,,,,,,
,,,,,,,,,,,,l,Correct!,,,,,,t2.png,t4.png,2,0.0591,20,Female,2020-11-18_20h10.38.787,torte-q,2020.1.3,Win32,60,14047,0.550325,,,,,0,86,86,15,1,,,,,,,,,,,,,,,,,,,,,,,,,,,,,,,,,,,
,,,,,,,,,,,,a,Incorrect,,,,,,t5.png,t3.png,2,0.056466,20,Female,2020-11-18_20h10.38.787,torte-q,2020.1.3,Win32,60,14047,0.454365,,,,,0,87,87,38,1,,,,,,,,,,,,,,,,,,,,,,,,,,,,,,,,,,,
,,,,,,,,,,,,l,Correct!,,,,,,t2.png,t4.png,2,0.059078,20,Female,2020-11-18_20h10.38.787,torte-q,2020.1.3,Win32,60,14047,0.63392,,,,,0,88,88,24,1,,,,,,,,,,,,,,,,,,,,,,,,,,,,,,,,,,,
,,,,,,,,,,,,a,Correct!,,,,,,t2.png,t1.png,1,0.90025,20,Female,2020-11-18_20h10.38.787,torte-q,2020.1.3,Win32,60,14047,0.59892,,,,,0,89,89,62,1,,,,,,,,,,,,,,,,,,,,,,,,,,,,,,,,,,,
,,,,,,,,,,,,l,Incorrect,,,,,,t4.png,t5.png,1,0.90025,20,Female,2020-11-18_20h10.38.787,torte-q,2020.1.3,Win32,60,14047,0.415165,,,,,0,90,90,103,1,,,,,,,,,,,,,,,,,,,,,,,,,,,,,,,,,,,
,,,,,,,,,,,,a,Incorrect,,,,,,t4.png,t1.png,3,0.0000131,20,Female,2020-11-18_20h10.38.787,torte-q,2020.1.3,Win32,60,14047,0.503675,,,,,0,91,91,48,1,,,,,,,,,,,,,,,,,,,,,,,,,,,,,,,,,,,
,,,,,,,,,,,,l,Correct!,,,,,,t1.png,t5.png,4,9.55E-11,20,Female,2020-11-18_20h10.38.787,torte-q,2020.1.3,Win32,60,14047,0.367835,,,,,0,92,92,12,1,,,,,,,,,,,,,,,,,,,,,,,,,,,,,,,,,,,
,,,,,,,,,,,,l,Correct!,,,,,,t3.png,t4.png,1,0.90855,20,Female,2020-11-18_20h10.38.787,torte-q,2020.1.3,Win32,60,14047,0.74794,,,,,0,93,93,96,1,,,,,,,,,,,,,,,,,,,,,,,,,,,,,,,,,,,
,,,,,,,,,,,,a,Incorrect,,,,,,t5.png,t2.png,3,0.0000131,20,Female,2020-11-18_20h10.38.787,torte-q,2020.1.3,Win32,60,14047,0.41648,,,,,0,94,94,51,1,,,,,,,,,,,,,,,,,,,,,,,,,,,,,,,,,,,
,,,,,,,,,,,,l,Correct!,,,,,,t1.png,t3.png,2,0.056466,20,Female,2020-11-18_20h10.38.787,torte-q,2020.1.3,Win32,60,14047,0.401265,,,,,0,95,95,60,1,,,,,,,,,,,,,,,,,,,,,,,,,,,,,,,,,,,
,,,,,,,,,,,,l,Incorrect,,,,,,t1.png,t1.png,0,0.978,20,Female,2020-11-18_20h10.38.787,torte-q,2020.1.3,Win32,60,14047,0.814055,,,,,0,96,96,28,1,,,,,,,,,,,,,,,,,,,,,,,,,,,,,,,,,,,
,,,,,,,,,,,,l,Correct!,,,,,,t1.png,t5.png,4,9.55E-11,20,Female,2020-11-18_20h10.38.787,torte-q,2020.1.3,Win32,60,14047,0.59746,,,,,0,97,97,16,1,,,,,,,,,,,,,,,,,,,,,,,,,,,,,,,,,,,
,,,,,,,,,,,,a,Incorrect,,,,,,t3.png,t1.png,2,0.056466,20,Female,2020-11-18_20h10.38.787,torte-q,2020.1.3,Win32,60,14047,0.433275,,,,,0,98,98,0,1,,,,,,,,,,,,,,,,,,,,,,,,,,,,,,,,,,,
,,,,,,,,,,,,l,Correct!,,,,,,t2.png,t4.png,2,0.059078,20,Female,2020-11-18_20h10.38.787,torte-q,2020.1.3,Win32,60,14047,0.400085,,,,,0,99,99,11,1,,,,,,,,,,,,,,,,,,,,,,,,,,,,,,,,,,,
,,,,,,,,,,,,l,Correct!,,,,,,t1.png,t4.png,3,0.0000131,20,Female,2020-11-18_20h10.38.787,torte-q,2020.1.3,Win32,60,14047,0.372825,,,,,0,100,100,81,1,,,,,,,,,,,,,,,,,,,,,,,,,,,,,,,,,,,
,,,,,,,,,,,,a,Incorrect,,,,,,t5.png,t3.png,2,0.056466,20,Female,2020-11-18_20h10.38.787,torte-q,2020.1.3,Win32,60,14047,0.46717,,,,,0,101,101,108,1,,,,,,,,,,,,,,,,,,,,,,,,,,,,,,,,,,,
,,,,,,,,,,,,l,Incorrect,,,,,,t3.png,t4.png,1,0.90855,20,Female,2020-11-18_20h10.38.787,torte-q,2020.1.3,Win32,60,14047,0.91481,,,,,0,102,102,84,1,,,,,,,,,,,,,,,,,,,,,,,,,,,,,,,,,,,
,,,,,,,,,,,,a,Incorrect,,,,,,t5.png,t3.png,2,0.056466,20,Female,2020-11-18_20h10.38.787,torte-q,2020.1.3,Win32,60,14047,0.384715,,,,,0,103,103,56,1,,,,,,,,,,,,,,,,,,,,,,,,,,,,,,,,,,,
,,,,,,,,,,,,a,Incorrect,,,,,,t4.png,t1.png,3,0.0000131,20,Female,2020-11-18_20h10.38.787,torte-q,2020.1.3,Win32,60,14047,0.522085,,,,,0,104,104,13,1,,,,,,,,,,,,,,,,,,,,,,,,,,,,,,,,,,,
,,,,,,,,,,,,l,Incorrect,,,,,,t2.png,t2.png,0,0.98115,20,Female,2020-11-18_20h10.38.787,torte-q,2020.1.3,Win32,60,14047,0.45764,,,,,0,105,105,2,1,,,,,,,,,,,,,,,,,,,,,,,,,,,,,,,,,,,
,,,,,,,,,,,,l,Correct!,,,,,,t3.png,t5.png,2,0.0565,20,Female,2020-11-18_20h10.38.787,torte-q,2020.1.3,Win32,60,14047,0.57592,,,,,0,106,106,83,1,,,,,,,,,,,,,,,,,,,,,,,,,,,,,,,,,,,
,,,,,,,,,,,,a,Incorrect,,,,,,t5.png,t2.png,3,0.0000131,20,Female,2020-11-18_20h10.38.787,torte-q,2020.1.3,Win32,60,14047,0.400165,,,,,0,107,107,119,1,,,,,,,,,,,,,,,,,,,,,,,,,,,,,,,,,,,
,,,,,,,,,,,,a,Incorrect,,,,,,t4.png,t2.png,2,0.059078,20,Female,2020-11-18_20h10.38.787,torte-q,2020.1.3,Win32,60,14047,0.358615,,,,,0,108,108,110,1,,,,,,,,,,,,,,,,,,,,,,,,,,,,,,,,,,,
,,,,,,,,,,,,a,Incorrect,,,,,,t3.png,t1.png,2,0.0565,20,Female,2020-11-18_20h10.38.787,torte-q,2020.1.3,Win32,60,14047,0.633405,,,,,0,109,109,31,1,,,,,,,,,,,,,,,,,,,,,,,,,,,,,,,,,,,
,,,,,,,,,,,,a,Incorrect,,,,,,t4.png,t1.png,3,0.0000131,20,Female,2020-11-18_20h10.38.787,torte-q,2020.1.3,Win32,60,14047,0.48038,,,,,0,110,110,61,1,,,,,,,,,,,,,,,,,,,,,,,,,,,,,,,,,,,
,,,,,,,,,,,,l,Correct!,,,,,,t3.png,t5.png,2,0.0565,20,Female,2020-11-18_20h10.38.787,torte-q,2020.1.3,Win32,60,14047,0.700475,,,,,0,111,111,30,1,,,,,,,,,,,,,,,,,,,,,,,,,,,,,,,,,,,
,,,,,,,,,,,,l,Incorrect,,,,,,t5.png,t5.png,0,0.97829,20,Female,2020-11-18_20h10.38.787,torte-q,2020.1.3,Win32,60,14047,0.456105,,,,,0,112,112,25,1,,,,,,,,,,,,,,,,,,,,,,,,,,,,,,,,,,,
,,,,,,,,,,,,l,Incorrect,,,,,,t1.png,t1.png,0,0.97829,20,Female,2020-11-18_20h10.38.787,torte-q,2020.1.3,Win32,60,14047,0.65115,,,,,0,113,113,67,1,,,,,,,,,,,,,,,,,,,,,,,,,,,,,,,,,,,
,,,,,,,,,,,,a,Correct!,,,,,,t2.png,t2.png,0,0.98115,20,Female,2020-11-18_20h10.38.787,torte-q,2020.1.3,Win32,60,14047,0.65035,,,,,0,114,114,7,1,,,,,,,,,,,,,,,,,,,,,,,,,,,,,,,,,,,
,,,,,,,,,,,,a,Correct!,,,,,,t4.png,t3.png,1,0.909,20,Female,2020-11-18_20h10.38.787,torte-q,2020.1.3,Win32,60,14047,0.45452,,,,,0,115,115,46,1,,,,,,,,,,,,,,,,,,,,,,,,,,,,,,,,,,,
,,,,,,,,,,,,l,Correct!,,,,,,t3.png,t5.png,2,0.056466,20,Female,2020-11-18_20h10.38.787,torte-q,2020.1.3,Win32,60,14047,0.46684,,,,,0,116,116,14,1,,,,,,,,,,,,,,,,,,,,,,,,,,,,,,,,,,,
,,,,,,,,,,,,a,Incorrect,,,,,,t3.png,t1.png,2,0.056466,20,Female,2020-11-18_20h10.38.787,torte-q,2020.1.3,Win32,60,14047,0.40039,,,,,0,117,117,29,1,,,,,,,,,,,,,,,,,,,,,,,,,,,,,,,,,,,
,,,,,,,,,,,,l,Correct!,,,,,,t1.png,t4.png,3,0.0000131,20,Female,2020-11-18_20h10.38.787,torte-q,2020.1.3,Win32,60,14047,0.46549,,,,,0,118,118,50,1,,,,,,,,,,,,,,,,,,,,,,,,,,,,,,,,,,,
,,,,,,,,,,,,l,Correct!,,,,,,t2.png,t5.png,3,0.0000131,20,Female,2020-11-18_20h10.38.787,torte-q,2020.1.3,Win32,60,14047,0.514415,,,,,0,119,119,66,1,,,,,,,,,,,,,,,,,,,,,,,,,,,,,,,,,,,
,,,,,,,,,,,,l,Correct!,,,,,,t1.png,t4.png,3,0.0000131,20,Female,2020-11-18_20h10.38.787,torte-q,2020.1.3,Win32,60,14047,0.52481,space,6.345255,,,,,,,,space,14.117535,space,0.49651,0,0,0,107,1,,,,,,,,,,,,,,,,,,,,,,,,,,
,,,,,,,,,,,,l,Correct!,,,,,,t2.png,t4.png,2,0.059078,20,Female,2020-11-18_20h10.38.787,torte-q,2020.1.3,Win32,60,14047,0.48654,,,,,,,,,,,,,,0,1,1,37,1,,,,,,,,,,,,,,,,,,,,,,,,,,
,,,,,,,,,,,,l,Correct!,,,,,,t2.png,t5.png,3,0.0000131,20,Female,2020-11-18_20h10.38.787,torte-q,2020.1.3,Win32,60,14047,0.43387,,,,,,,,,,,,,,0,2,2,95,1,,,,,,,,,,,,,,,,,,,,,,,,,,
,,,,,,,,,,,,a,Incorrect,,,,,,t3.png,t1.png,2,0.056466,20,Female,2020-11-18_20h10.38.787,torte-q,2020.1.3,Win32,60,14047,0.433185,,,,,,,,,,,,,,0,3,3,32,1,,,,,,,,,,,,,,,,,,,,,,,,,,
,,,,,,,,,,,,l,Correct!,,,,,,t1.png,t3.png,2,0.056466,20,Female,2020-11-18_20h10.38.787,torte-q,2020.1.3,Win32,60,14047,0.38365,,,,,,,,,,,,,,0,4,4,69,1,,,,,,,,,,,,,,,,,,,,,,,,,,
,,,,,,,,,,,,l,Correct!,,,,,,t1.png,t4.png,3,0.0000131,20,Female,2020-11-18_20h10.38.787,torte-q,2020.1.3,Win32,60,14047,0.327705,,,,,,,,,,,,,,0,5,5,17,1,,,,,,,,,,,,,,,,,,,,,,,,,,
,,,,,,,,,,,,a,Correct!,,,,,,t2.png,t1.png,1,0.90025,20,Female,2020-11-18_20h10.38.787,torte-q,2020.1.3,Win32,60,14047,0.415505,,,,,,,,,,,,,,0,6,6,19,1,,,,,,,,,,,,,,,,,,,,,,,,,,
,,,,,,,,,,,,a,Incorrect,,,,,,t5.png,t2.png,3,0.0000131,20,Female,2020-11-18_20h10.38.787,torte-q,2020.1.3,Win32,60,14047,0.371165,,,,,,,,,,,,,,0,7,7,119,1,,,,,,,,,,,,,,,,,,,,,,,,,,
,,,,,,,,,,,,l,Incorrect,,,,,,t5.png,t5.png,0,0.97829,20,Female,2020-11-18_20h10.38.787,torte-q,2020.1.3,Win32,60,14047,0.63326,,,,,,,,,,,,,,0,8,8,73,1,,,,,,,,,,,,,,,,,,,,,,,,,,
,,,,,,,,,,,,a,Incorrect,,,,,,t2.png,t1.png,1,0.90025,20,Female,2020-11-18_20h10.38.787,torte-q,2020.1.3,Win32,60,14047,0.5336,,,,,,,,,,,,,,0,9,9,4,1,,,,,,,,,,,,,,,,,,,,,,,,,,
,,,,,,,,,,,,a,Correct!,,,,,,t5.png,t4.png,1,0.90025,20,Female,2020-11-18_20h10.38.787,torte-q,2020.1.3,Win32,60,14047,0.366485,,,,,,,,,,,,,,0,10,10,34,1,,,,,,,,,,,,,,,,,,,,,,,,,,
,,,,,,,,,,,,a,Correct!,,,,,,t3.png,t2.png,1,0.90855,20,Female,2020-11-18_20h10.38.787,torte-q,2020.1.3,Win32,60,14047,0.373125,,,,,,,,,,,,,,0,11,11,97,1,,,,,,,,,,,,,,,,,,,,,,,,,,
,,,,,,,,,,,,a,Correct!,,,,,,t4.png,t4.png,0,0.98115,20,Female,2020-11-18_20h10.38.787,torte-q,2020.1.3,Win32,60,14047,0.40058,,,,,,,,,,,,,,0,12,12,52,1,,,,,,,,,,,,,,,,,,,,,,,,,,
,,,,,,,,,,,,l,Incorrect,,,,,,t2.png,t2.png,0,0.98115,20,Female,2020-11-18_20h10.38.787,torte-q,2020.1.3,Win32,60,14047,0.73428,,,,,,,,,,,,,,0,13,13,59,1,,,,,,,,,,,,,,,,,,,,,,,,,,
,,,,,,,,,,,,a,Incorrect,,,,,,t4.png,t1.png,3,0.0000131,20,Female,2020-11-18_20h10.38.787,torte-q,2020.1.3,Win32,60,14047,0.41695,,,,,,,,,,,,,,0,14,14,42,1,,,,,,,,,,,,,,,,,,,,,,,,,,
,,,,,,,,,,,,a,Incorrect,,,,,,t4.png,t1.png,3,0.0000131,20,Female,2020-11-18_20h10.38.787,torte-q,2020.1.3,Win32,60,14047,0.38319,,,,,,,,,,,,,,0,15,15,13,1,,,,,,,,,,,,,,,,,,,,,,,,,,
,,,,,,,,,,,,a,Incorrect,,,,,,t4.png,t2.png,2,0.059078,20,Female,2020-11-18_20h10.38.787,torte-q,2020.1.3,Win32,60,14047,0.33295,,,,,,,,,,,,,,0,16,16,88,1,,,,,,,,,,,,,,,,,,,,,,,,,,
,,,,,,,,,,,,a,Incorrect,,,,,,t4.png,t3.png,1,0.90855,20,Female,2020-11-18_20h10.38.787,torte-q,2020.1.3,Win32,60,14047,0.30296,,,,,,,,,,,,,,0,17,17,45,1,,,,,,,,,,,,,,,,,,,,,,,,,,
,,,,,,,,,,,,a,Incorrect,,,,,,t5.png,t1.png,4,9.55E-11,20,Female,2020-11-18_20h10.38.787,torte-q,2020.1.3,Win32,60,14047,0.359885,,,,,,,,,,,,,,0,18,18,71,1,,,,,,,,,,,,,,,,,,,,,,,,,,
,,,,,,,,,,,,a,Incorrect,,,,,,t3.png,t1.png,2,0.0565,20,Female,2020-11-18_20h10.38.787,torte-q,2020.1.3,Win32,60,14047,0.51642,,,,,,,,,,,,,,0,19,19,31,1,,,,,,,,,,,,,,,,,,,,,,,,,,
,,,,,,,,,,,,l,Correct!,,,,,,t2.png,t5.png,3,0.0000131,20,Female,2020-11-18_20h10.38.787,torte-q,2020.1.3,Win32,60,14047,0.38268,,,,,,,,,,,,,,0,20,20,104,1,,,,,,,,,,,,,,,,,,,,,,,,,,
,,,,,,,,,,,,l,Correct!,,,,,,t3.png,t5.png,2,0.056466,20,Female,2020-11-18_20h10.38.787,torte-q,2020.1.3,Win32,60,14047,0.634835,,,,,,,,,,,,,,0,21,21,14,1,,,,,,,,,,,,,,,,,,,,,,,,,,
,,,,,,,,,,,,l,Incorrect,,,,,,t5.png,t5.png,0,0.97829,20,Female,2020-11-18_20h10.38.787,torte-q,2020.1.3,Win32,60,14047,0.950165,,,,,,,,,,,,,,0,22,22,25,1,,,,,,,,,,,,,,,,,,,,,,,,,,
,,,,,,,,,,,,a,Correct!,,,,,,t3.png,t1.png,2,0.056466,20,Female,2020-11-18_20h10.38.787,torte-q,2020.1.3,Win32,60,14047,0.37393,,,,,,,,,,,,,,0,23,23,29,1,,,,,,,,,,,,,,,,,,,,,,,,,,
,,,,,,,,,,,,a,Correct!,,,,,,t4.png,t3.png,1,0.909,20,Female,2020-11-18_20h10.38.787,torte-q,2020.1.3,Win32,60,14047,0.83165,,,,,,,,,,,,,,0,24,24,46,1,,,,,,,,,,,,,,,,,,,,,,,,,,
,,,,,,,,,,,,l,Correct!,,,,,,t2.png,t4.png,2,0.059078,20,Female,2020-11-18_20h10.38.787,torte-q,2020.1.3,Win32,60,14047,0.99606,,,,,,,,,,,,,,0,25,25,77,1,,,,,,,,,,,,,,,,,,,,,,,,,,
,,,,,,,,,,,,l,Correct!,,,,,,t1.png,t5.png,4,9.55E-11,20,Female,2020-11-18_20h10.38.787,torte-q,2020.1.3,Win32,60,14047,0.510735,,,,,,,,,,,,,,0,26,26,55,1,,,,,,,,,,,,,,,,,,,,,,,,,,
,,,,,,,,,,,,l,Correct!,,,,,,t1.png,t3.png,2,0.056466,20,Female,2020-11-18_20h10.38.787,torte-q,2020.1.3,Win32,60,14047,0.850425,,,,,,,,,,,,,,0,27,27,60,1,,,,,,,,,,,,,,,,,,,,,,,,,,
,,,,,,,,,,,,a,Correct!,,,,,,t5.png,t3.png,2,0.056466,20,Female,2020-11-18_20h10.38.787,torte-q,2020.1.3,Win32,60,14047,0.52325,,,,,,,,,,,,,,0,28,28,38,1,,,,,,,,,,,,,,,,,,,,,,,,,,
,,,,,,,,,,,,a,Correct!,,,,,,t5.png,t5.png,0,0.97829,20,Female,2020-11-18_20h10.38.787,torte-q,2020.1.3,Win32,60,14047,0.399795,,,,,,,,,,,,,,0,29,29,94,1,,,,,,,,,,,,,,,,,,,,,,,,,,
,,,,,,,,,,,,a,Correct!,,,,,,t2.png,t1.png,1,0.9,20,Female,2020-11-18_20h10.38.787,torte-q,2020.1.3,Win32,60,14047,0.47272,,,,,,,,,,,,,,0,30,30,118,1,,,,,,,,,,,,,,,,,,,,,,,,,,
,,,,,,,,,,,,l,Correct!,,,,,,t1.png,t5.png,4,9.55E-11,20,Female,2020-11-18_20h10.38.787,torte-q,2020.1.3,Win32,60,14047,0.500145,,,,,,,,,,,,,,0,31,31,12,1,,,,,,,,,,,,,,,,,,,,,,,,,,
,,,,,,,,,,,,a,Correct!,,,,,,t4.png,t4.png,0,0.98115,20,Female,2020-11-18_20h10.38.787,torte-q,2020.1.3,Win32,60,14047,0.433775,,,,,,,,,,,,,,0,32,32,90,1,,,,,,,,,,,,,,,,,,,,,,,,,,
,,,,,,,,,,,,a,Incorrect,,,,,,t4.png,t1.png,3,0.0000131,20,Female,2020-11-18_20h10.38.787,torte-q,2020.1.3,Win32,60,14047,0.39951,,,,,,,,,,,,,,0,33,33,48,1,,,,,,,,,,,,,,,,,,,,,,,,,,
,,,,,,,,,,,,l,Correct!,,,,,,t2.png,t5.png,3,0.0000131,20,Female,2020-11-18_20h10.38.787,torte-q,2020.1.3,Win32,60,14047,0.416655,,,,,,,,,,,,,,0,34,34,66,1,,,,,,,,,,,,,,,,,,,,,,,,,,
,,,,,,,,,,,,a,Correct!,,,,,,t2.png,t2.png,0,0.98115,20,Female,2020-11-18_20h10.38.787,torte-q,2020.1.3,Win32,60,14047,0.502795,,,,,,,,,,,,,,0,35,35,2,1,,,,,,,,,,,,,,,,,,,,,,,,,,
,,,,,,,,,,,,l,Correct!,,,,,,t2.png,t4.png,2,0.059078,20,Female,2020-11-18_20h10.38.787,torte-q,2020.1.3,Win32,60,14047,0.466275,,,,,,,,,,,,,,0,36,36,24,1,,,,,,,,,,,,,,,,,,,,,,,,,,
,,,,,,,,,,,,l,Incorrect,,,,,,t1.png,t2.png,1,0.90025,20,Female,2020-11-18_20h10.38.787,torte-q,2020.1.3,Win32,60,14047,0.61632,,,,,,,,,,,,,,0,37,37,33,1,,,,,,,,,,,,,,,,,,,,,,,,,,
,,,,,,,,,,,,a,Incorrect,,,,,,t5.png,t1.png,4,9.55E-11,20,Female,2020-11-18_20h10.38.787,torte-q,2020.1.3,Win32,60,14047,0.43325,,,,,,,,,,,,,,0,38,38,43,1,,,,,,,,,,,,,,,,,,,,,,,,,,
,,,,,,,,,,,,a,Correct!,,,,,,t4.png,t3.png,1,0.90855,20,Female,2020-11-18_20h10.38.787,torte-q,2020.1.3,Win32,60,14047,0.73401,,,,,,,,,,,,,,0,39,39,35,1,,,,,,,,,,,,,,,,,,,,,,,,,,
,,,,,,,,,,,,a,Incorrect,,,,,,t5.png,t1.png,4,9.55E-11,20,Female,2020-11-18_20h10.38.787,torte-q,2020.1.3,Win32,60,14047,0.383515,,,,,,,,,,,,,,0,40,40,22,1,,,,,,,,,,,,,,,,,,,,,,,,,,
,,,,,,,,,,,,a,Incorrect,,,,,,t5.png,t3.png,2,0.0565,20,Female,2020-11-18_20h10.38.787,torte-q,2020.1.3,Win32,60,14047,0.48666,,,,,,,,,,,,,,0,41,41,39,1,,,,,,,,,,,,,,,,,,,,,,,,,,
,,,,,,,,,,,,a,Incorrect,,,,,,t3.png,t2.png,1,0.90855,20,Female,2020-11-18_20h10.38.787,torte-q,2020.1.3,Win32,60,14047,0.331865,,,,,,,,,,,,,,0,42,42,18,1,,,,,,,,,,,,,,,,,,,,,,,,,,
,,,,,,,,,,,,a,Correct!,,,,,,t3.png,t2.png,1,0.909,20,Female,2020-11-18_20h10.38.787,torte-q,2020.1.3,Win32,60,14047,0.28919,,,,,,,,,,,,,,0,43,43,23,1,,,,,,,,,,,,,,,,,,,,,,,,,,
,,,,,,,,,,,,a,Incorrect,,,,,,t4.png,t2.png,2,0.059078,20,Female,2020-11-18_20h10.38.787,torte-q,2020.1.3,Win32,60,14047,0.31667,,,,,,,,,,,,,,0,44,44,109,1,,,,,,,,,,,,,,,,,,,,,,,,,,
,,,,,,,,,,,,l,Correct!,,,,,,t1.png,t5.png,4,9.55E-11,20,Female,2020-11-18_20h10.38.787,torte-q,2020.1.3,Win32,60,14047,0.64966,,,,,,,,,,,,,,0,45,45,16,1,,,,,,,,,,,,,,,,,,,,,,,,,,
,,,,,,,,,,,,l,Correct!,,,,,,t3.png,t5.png,2,0.0565,20,Female,2020-11-18_20h10.38.787,torte-q,2020.1.3,Win32,60,14047,0.601155,,,,,,,,,,,,,,0,46,46,30,1,,,,,,,,,,,,,,,,,,,,,,,,,,
,,,,,,,,,,,,l,Correct!,,,,,,t1.png,t3.png,2,0.056466,20,Female,2020-11-18_20h10.38.787,torte-q,2020.1.3,Win32,60,14047,0.46793,,,,,,,,,,,,,,0,47,47,87,1,,,,,,,,,,,,,,,,,,,,,,,,,,
,,,,,,,,,,,,a,Incorrect,,,,,,t5.png,t2.png,3,0.0000131,20,Female,2020-11-18_20h10.38.787,torte-q,2020.1.3,Win32,60,14047,0.419575,,,,,,,,,,,,,,0,48,48,91,1,,,,,,,,,,,,,,,,,,,,,,,,,,
,,,,,,,,,,,,l,Correct!,,,,,,t1.png,t2.png,1,0.90025,20,Female,2020-11-18_20h10.38.787,torte-q,2020.1.3,Win32,60,14047,0.481805,,,,,,,,,,,,,,0,49,49,72,1,,,,,,,,,,,,,,,,,,,,,,,,,,
,,,,,,,,,,,,l,Incorrect,,,,,,t3.png,t4.png,1,0.90855,20,Female,2020-11-18_20h10.38.787,torte-q,2020.1.3,Win32,60,14047,0.64957,,,,,,,,,,,,,,0,50,50,96,1,,,,,,,,,,,,,,,,,,,,,,,,,,
,,,,,,,,,,,,l,Incorrect,,,,,,t1.png,t1.png,0,0.97829,20,Female,2020-11-18_20h10.38.787,torte-q,2020.1.3,Win32,60,14047,0.719085,,,,,,,,,,,,,,0,51,51,78,1,,,,,,,,,,,,,,,,,,,,,,,,,,
,,,,,,,,,,,,a,Correct!,,,,,,t2.png,t1.png,1,0.90025,20,Female,2020-11-18_20h10.38.787,torte-q,2020.1.3,Win32,60,14047,0.452515,,,,,,,,,,,,,,0,52,52,5,1,,,,,,,,,,,,,,,,,,,,,,,,,,
,,,,,,,,,,,,l,Incorrect,,,,,,t2.png,t3.png,1,0.90855,20,Female,2020-11-18_20h10.38.787,torte-q,2020.1.3,Win32,60,14047,0.60473,,,,,,,,,,,,,,0,53,53,65,1,,,,,,,,,,,,,,,,,,,,,,,,,,
,,,,,,,,,,,,l,Incorrect,,,,,,t2.png,t3.png,1,0.90855,20,Female,2020-11-18_20h10.38.787,torte-q,2020.1.3,Win32,60,14047,0.655375,,,,,,,,,,,,,,0,54,54,68,1,,,,,,,,,,,,,,,,,,,,,,,,,,
,,,,,,,,,,,,l,Correct!,,,,,,t1.png,t5.png,4,9.55E-11,20,Female,2020-11-18_20h10.38.787,torte-q,2020.1.3,Win32,60,14047,0.453455,,,,,,,,,,,,,,0,55,55,41,1,,,,,,,,,,,,,,,,,,,,,,,,,,
,,,,,,,,,,,,l,Incorrect,,,,,,t1.png,t2.png,1,0.90025,20,Female,2020-11-18_20h10.38.787,torte-q,2020.1.3,Win32,60,14047,0.600715,,,,,,,,,,,,,,0,56,56,105,1,,,,,,,,,,,,,,,,,,,,,,,,,,
,,,,,,,,,,,,a,Incorrect,,,,,,t5.png,t2.png,3,0.0000131,20,Female,2020-11-18_20h10.38.787,torte-q,2020.1.3,Win32,60,14047,0.465245,,,,,,,,,,,,,,0,57,57,51,1,,,,,,,,,,,,,,,,,,,,,,,,,,
,,,,,,,,,,,,l,Incorrect,,,,,,t2.png,t3.png,1,0.90855,20,Female,2020-11-18_20h10.38.787,torte-q,2020.1.3,Win32,60,14047,0.66659,,,,,,,,,,,,,,0,58,58,10,1,,,,,,,,,,,,,,,,,,,,,,,,,,
,,,,,,,,,,,,a,Correct!,,,,,,t3.png,t2.png,1,0.909,20,Female,2020-11-18_20h10.38.787,torte-q,2020.1.3,Win32,60,14047,0.758485,,,,,,,,,,,,,,0,59,59,3,1,,,,,,,,,,,,,,,,,,,,,,,,,,
,,,,,,,,,,,,a,Incorrect,,,,,,t5.png,t2.png,3,0.0000131,20,Female,2020-11-18_20h10.38.787,torte-q,2020.1.3,Win32,60,14047,0.464805,,,,,,,,,,,,,,0,60,60,116,1,,,,,,,,,,,,,,,,,,,,,,,,,,
,,,,,,,,,,,,l,Correct!,,,,,,t1.png,t4.png,3,0.0000131,20,Female,2020-11-18_20h10.38.787,torte-q,2020.1.3,Win32,60,14047,0.90017,,,,,,,,,,,,,,0,61,61,92,1,,,,,,,,,,,,,,,,,,,,,,,,,,
,,,,,,,,,,,,l,Correct!,,,,,,t1.png,t4.png,3,0.0000131,20,Female,2020-11-18_20h10.38.787,torte-q,2020.1.3,Win32,60,14047,0.37731,,,,,,,,,,,,,,0,62,62,50,1,,,,,,,,,,,,,,,,,,,,,,,,,,
,,,,,,,,,,,,l,Correct!,,,,,,t1.png,t5.png,4,9.55E-11,20,Female,2020-11-18_20h10.38.787,torte-q,2020.1.3,Win32,60,14047,0.34988,,,,,,,,,,,,,,0,63,63,85,1,,,,,,,,,,,,,,,,,,,,,,,,,,
,,,,,,,,,,,,l,Incorrect,,,,,,t2.png,t2.png,0,0.98115,20,Female,2020-11-18_20h10.38.787,torte-q,2020.1.3,Win32,60,14047,0.354215,,,,,,,,,,,,,,0,64,64,57,1,,,,,,,,,,,,,,,,,,,,,,,,,,
,,,,,,,,,,,,l,Correct!,,,,,,t3.png,t5.png,2,0.056466,20,Female,2020-11-18_20h10.38.787,torte-q,2020.1.3,Win32,60,14047,0.349405,,,,,,,,,,,,,,0,65,65,44,1,,,,,,,,,,,,,,,,,,,,,,,,,,
,,,,,,,,,,,,l,Correct!,,,,,,t2.png,t4.png,2,0.059078,20,Female,2020-11-18_20h10.38.787,torte-q,2020.1.3,Win32,60,14047,0.60467,,,,,,,,,,,,,,0,66,66,11,1,,,,,,,,,,,,,,,,,,,,,,,,,,
,,,,,,,,,,,,l,Correct!,,,,,,t2.png,t5.png,3,0.0000131,20,Female,2020-11-18_20h10.38.787,torte-q,2020.1.3,Win32,60,14047,0.451215,,,,,,,,,,,,,,0,67,67,8,1,,,,,,,,,,,,,,,,,,,,,,,,,,
,,,,,,,,,,,,l,Incorrect,,,,,,t5.png,t4.png,1,0.90025,20,Female,2020-11-18_20h10.38.787,torte-q,2020.1.3,Win32,60,14047,0.933915,,,,,,,,,,,,,,0,68,68,26,1,,,,,,,,,,,,,,,,,,,,,,,,,,
,,,,,,,,,,,,l,Incorrect,,,,,,t4.png,t5.png,1,0.90025,20,Female,2020-11-18_20h10.38.787,torte-q,2020.1.3,Win32,60,14047,0.767965,,,,,,,,,,,,,,0,69,69,58,1,,,,,,,,,,,,,,,,,,,,,,,,,,
,,,,,,,,,,,,a,Correct!,,,,,,t2.png,t1.png,1,0.90025,20,Female,2020-11-18_20h10.38.787,torte-q,2020.1.3,Win32,60,14047,0.69982,,,,,,,,,,,,,,0,70,70,62,1,,,,,,,,,,,,,,,,,,,,,,,,,,
,,,,,,,,,,,,a,Correct!,,,,,,t5.png,t4.png,1,0.90025,20,Female,2020-11-18_20h10.38.787,torte-q,2020.1.3,Win32,60,14047,0.981185,,,,,,,,,,,,,,0,71,71,27,1,,,,,,,,,,,,,,,,,,,,,,,,,,
,,,,,,,,,,,,l,Incorrect,,,,,,t3.png,t4.png,1,0.909,20,Female,2020-11-18_20h10.38.787,torte-q,2020.1.3,Win32,60,14047,0.574895,,,,,,,,,,,,,,0,72,72,106,1,,,,,,,,,,,,,,,,,,,,,,,,,,
,,,,,,,,,,,,l,Incorrect,,,,,,t3.png,t4.png,1,0.90855,20,Female,2020-11-18_20h10.38.787,torte-q,2020.1.3,Win32,60,14047,0.707875,,,,,,,,,,,,,,0,73,73,84,1,,,,,,,,,,,,,,,,,,,,,,,,,,
,,,,,,,,,,,,l,Correct!,,,,,,t3.png,t5.png,2,0.0565,20,Female,2020-11-18_20h10.38.787,torte-q,2020.1.3,Win32,60,14047,0.66586,,,,,,,,,,,,,,0,74,74,83,1,,,,,,,,,,,,,,,,,,,,,,,,,,
,,,,,,,,,,,,l,Correct!,,,,,,t2.png,t4.png,2,0.0591,20,Female,2020-11-18_20h10.38.787,torte-q,2020.1.3,Win32,60,14047,0.96951,,,,,,,,,,,,,,0,75,75,15,1,,,,,,,,,,,,,,,,,,,,,,,,,,
,,,,,,,,,,,,a,Incorrect,,,,,,t4.png,t2.png,2,0.0591,20,Female,2020-11-18_20h10.38.787,torte-q,2020.1.3,Win32,60,14047,0.45436,,,,,,,,,,,,,,0,76,76,36,1,,,,,,,,,,,,,,,,,,,,,,,,,,
,,,,,,,,,,,,l,Incorrect,,,,,,t5.png,t5.png,0,0.97829,20,Female,2020-11-18_20h10.38.787,torte-q,2020.1.3,Win32,60,14047,0.99181,,,,,,,,,,,,,,0,77,77,70,1,,,,,,,,,,,,,,,,,,,,,,,,,,
,,,,,,,,,,,,a,Correct!,,,,,,t4.png,t3.png,1,0.909,20,Female,2020-11-18_20h10.38.787,torte-q,2020.1.3,Win32,60,14047,0.493475,,,,,,,,,,,,,,0,78,78,20,1,,,,,,,,,,,,,,,,,,,,,,,,,,
,,,,,,,,,,,,a,Incorrect,,,,,,t5.png,t1.png,4,9.55E-11,20,Female,2020-11-18_20h10.38.787,torte-q,2020.1.3,Win32,60,14047,0.43353,,,,,,,,,,,,,,0,79,79,100,1,,,,,,,,,,,,,,,,,,,,,,,,,,
,,,,,,,,,,,,l,Incorrect,,,,,,t4.png,t5.png,1,0.90025,20,Female,2020-11-18_20h10.38.787,torte-q,2020.1.3,Win32,60,14047,0.72513,,,,,,,,,,,,,,0,80,80,103,1,,,,,,,,,,,,,,,,,,,,,,,,,,
,,,,,,,,,,,,l,Correct!,,,,,,t1.png,t3.png,2,0.056466,20,Female,2020-11-18_20h10.38.787,torte-q,2020.1.3,Win32,60,14047,0.71777,,,,,,,,,,,,,,0,81,81,99,1,,,,,,,,,,,,,,,,,,,,,,,,,,
,,,,,,,,,,,,l,Incorrect,,,,,,t4.png,t4.png,0,0.98115,20,Female,2020-11-18_20h10.38.787,torte-q,2020.1.3,Win32,60,14047,0.974065,,,,,,,,,,,,,,0,82,82,21,1,,,,,,,,,,,,,,,,,,,,,,,,,,
,,,,,,,,,,,,l,Incorrect,,,,,,t4.png,t4.png,0,0.98115,20,Female,2020-11-18_20h10.38.787,torte-q,2020.1.3,Win32,60,14047,0.472675,,,,,,,,,,,,,,0,83,83,79,1,,,,,,,,,,,,,,,,,,,,,,,,,,
,,,,,,,,,,,,a,Correct!,,,,,,t5.png,t4.png,1,0.9,20,Female,2020-11-18_20h10.38.787,torte-q,2020.1.3,Win32,60,14047,0.7359,,,,,,,,,,,,,,0,84,84,49,1,,,,,,,,,,,,,,,,,,,,,,,,,,
,,,,,,,,,,,,a,Incorrect,,,,,,t4.png,t1.png,3,0.0000131,20,Female,2020-11-18_20h10.38.787,torte-q,2020.1.3,Win32,60,14047,0.45827,,,,,,,,,,,,,,0,85,85,61,1,,,,,,,,,,,,,,,,,,,,,,,,,,
,,,,,,,,,,,,a,Incorrect,,,,,,t5.png,t3.png,2,0.056466,20,Female,2020-11-18_20h10.38.787,torte-q,2020.1.3,Win32,60,14047,0.507875,,,,,,,,,,,,,,0,86,86,108,1,,,,,,,,,,,,,,,,,,,,,,,,,,
,,,,,,,,,,,,a,Incorrect,,,,,,t5.png,t3.png,2,0.056466,20,Female,2020-11-18_20h10.38.787,torte-q,2020.1.3,Win32,60,14047,0.397075,,,,,,,,,,,,,,0,87,87,56,1,,,,,,,,,,,,,,,,,,,,,,,,,,
,,,,,,,,,,,,l,Incorrect,,,,,,t4.png,t4.png,0,0.98115,20,Female,2020-11-18_20h10.38.787,torte-q,2020.1.3,Win32,60,14047,2.31567,,,,,,,,,,,,,,0,88,88,80,1,,,,,,,,,,,,,,,,,,,,,,,,,,
,,,,,,,,,,,,l,Incorrect,,,,,,t4.png,t5.png,1,0.90025,20,Female,2020-11-18_20h10.38.787,torte-q,2020.1.3,Win32,60,14047,0.715685,,,,,,,,,,,,,,0,89,89,113,1,,,,,,,,,,,,,,,,,,,,,,,,,,
,,,,,,,,,,,,a,Incorrect,,,,,,t5.png,t2.png,3,0.0000131,20,Female,2020-11-18_20h10.38.787,torte-q,2020.1.3,Win32,60,14047,0.52627,,,,,,,,,,,,,,0,90,90,98,1,,,,,,,,,,,,,,,,,,,,,,,,,,
,,,,,,,,,,,,l,Incorrect,,,,,,t1.png,t1.png,0,0.97829,20,Female,2020-11-18_20h10.38.787,torte-q,2020.1.3,Win32,60,14047,0.648955,,,,,,,,,,,,,,0,91,91,67,1,,,,,,,,,,,,,,,,,,,,,,,,,,
,,,,,,,,,,,,l,Incorrect,,,,,,t3.png,t4.png,1,0.909,20,Female,2020-11-18_20h10.38.787,torte-q,2020.1.3,Win32,60,14047,0.631685,,,,,,,,,,,,,,0,92,92,89,1,,,,,,,,,,,,,,,,,,,,,,,,,,
,,,,,,,,,,,,l,Incorrect,,,,,,t1.png,t1.png,0,0.978,20,Female,2020-11-18_20h10.38.787,torte-q,2020.1.3,Win32,60,14047,0.68181,,,,,,,,,,,,,,0,93,93,28,1,,,,,,,,,,,,,,,,,,,,,,,,,,
,,,,,,,,,,,,a,Correct!,,,,,,t3.png,t2.png,1,0.90855,20,Female,2020-11-18_20h10.38.787,torte-q,2020.1.3,Win32,60,14047,0.59986,,,,,,,,,,,,,,0,94,94,53,1,,,,,,,,,,,,,,,,,,,,,,,,,,
,,,,,,,,,,,,l,Correct!,,,,,,t3.png,t4.png,1,0.909,20,Female,2020-11-18_20h10.38.787,torte-q,2020.1.3,Win32,60,14047,0.566555,,,,,,,,,,,,,,0,95,95,82,1,,,,,,,,,,,,,,,,,,,,,,,,,,
,,,,,,,,,,,,a,Correct!,,,,,,t5.png,t4.png,1,0.9,20,Female,2020-11-18_20h10.38.787,torte-q,2020.1.3,Win32,60,14047,0.999395,,,,,,,,,,,,,,0,96,96,76,1,,,,,,,,,,,,,,,,,,,,,,,,,,
,,,,,,,,,,,,a,Incorrect,,,,,,t4.png,t3.png,1,0.90855,20,Female,2020-11-18_20h10.38.787,torte-q,2020.1.3,Win32,60,14047,0.43552,,,,,,,,,,,,,,0,97,97,75,1,,,,,,,,,,,,,,,,,,,,,,,,,,
,,,,,,,,,,,,l,Incorrect,,,,,,t1.png,t1.png,0,0.97829,20,Female,2020-11-18_20h10.38.787,torte-q,2020.1.3,Win32,60,14047,0.614825,,,,,,,,,,,,,,0,98,98,9,1,,,,,,,,,,,,,,,,,,,,,,,,,,
,,,,,,,,,,,,l,Correct!,,,,,,t2.png,t5.png,3,0.0000131,20,Female,2020-11-18_20h10.38.787,torte-q,2020.1.3,Win32,60,14047,0.53953,,,,,,,,,,,,,,0,99,99,40,1,,,,,,,,,,,,,,,,,,,,,,,,,,
,,,,,,,,,,,,a,Correct!,,,,,,t3.png,t1.png,2,0.056466,20,Female,2020-11-18_20h10.38.787,torte-q,2020.1.3,Win32,60,14047,0.465515,,,,,,,,,,,,,,0,100,100,64,1,,,,,,,,,,,,,,,,,,,,,,,,,,
,,,,,,,,,,,,l,Incorrect,,,,,,t1.png,t1.png,0,0.978,20,Female,2020-11-18_20h10.38.787,torte-q,2020.1.3,Win32,60,14047,0.65295,,,,,,,,,,,,,,0,101,101,54,1,,,,,,,,,,,,,,,,,,,,,,,,,,
,,,,,,,,,,,,l,Incorrect,,,,,,t2.png,t3.png,1,0.90855,20,Female,2020-11-18_20h10.38.787,torte-q,2020.1.3,Win32,60,14047,0.460485,,,,,,,,,,,,,,0,102,102,111,1,,,,,,,,,,,,,,,,,,,,,,,,,,
,,,,,,,,,,,,a,Incorrect,,,,,,t4.png,t2.png,2,0.059078,20,Female,2020-11-18_20h10.38.787,torte-q,2020.1.3,Win32,60,14047,0.38854,,,,,,,,,,,,,,0,103,103,86,1,,,,,,,,,,,,,,,,,,,,,,,,,,
,,,,,,,,,,,,l,Correct!,,,,,,t1.png,t3.png,2,0.056466,20,Female,2020-11-18_20h10.38.787,torte-q,2020.1.3,Win32,60,14047,0.48307,,,,,,,,,,,,,,0,104,104,63,1,,,,,,,,,,,,,,,,,,,,,,,,,,
,,,,,,,,,,,,l,Incorrect,,,,,,t1.png,t2.png,1,0.90025,20,Female,2020-11-18_20h10.38.787,torte-q,2020.1.3,Win32,60,14047,0.551345,,,,,,,,,,,,,,0,105,105,112,1,,,,,,,,,,,,,,,,,,,,,,,,,,
,,,,,,,,,,,,a,Incorrect,,,,,,t4.png,t2.png,2,0.059078,20,Female,2020-11-18_20h10.38.787,torte-q,2020.1.3,Win32,60,14047,0.503135,,,,,,,,,,,,,,0,106,106,110,1,,,,,,,,,,,,,,,,,,,,,,,,,,
,,,,,,,,,,,,a,Correct!,,,,,,t4.png,t5.png,1,0.9,20,Female,2020-11-18_20h10.38.787,torte-q,2020.1.3,Win32,60,14047,0.722685,,,,,,,,,,,,,,0,107,107,115,1,,,,,,,,,,,,,,,,,,,,,,,,,,
,,,,,,,,,,,,a,Incorrect,,,,,,t5.png,t3.png,2,0.056466,20,Female,2020-11-18_20h10.38.787,torte-q,2020.1.3,Win32,60,14047,0.44019,,,,,,,,,,,,,,0,108,108,114,1,,,,,,,,,,,,,,,,,,,,,,,,,,
,,,,,,,,,,,,a,Correct!,,,,,,t5.png,t5.png,0,0.978,20,Female,2020-11-18_20h10.38.787,torte-q,2020.1.3,Win32,60,14047,0.37567,,,,,,,,,,,,,,0,109,109,117,1,,,,,,,,,,,,,,,,,,,,,,,,,,
,,,,,,,,,,,,l,Correct!,,,,,,t3.png,t5.png,2,0.056466,20,Female,2020-11-18_20h10.38.787,torte-q,2020.1.3,Win32,60,14047,0.54117,,,,,,,,,,,,,,0,110,110,6,1,,,,,,,,,,,,,,,,,,,,,,,,,,
,,,,,,,,,,,,a,Incorrect,,,,,,t5.png,t1.png,4,9.55E-11,20,Female,2020-11-18_20h10.38.787,torte-q,2020.1.3,Win32,60,14047,0.352635,,,,,,,,,,,,,,0,111,111,102,1,,,,,,,,,,,,,,,,,,,,,,,,,,
,,,,,,,,,,,,a,Correct!,,,,,,t2.png,t2.png,0,0.98115,20,Female,2020-11-18_20h10.38.787,torte-q,2020.1.3,Win32,60,14047,1.20688,,,,,,,,,,,,,,0,112,112,7,1,,,,,,,,,,,,,,,,,,,,,,,,,,
,,,,,,,,,,,,a,Incorrect,,,,,,t4.png,t1.png,3,0.0000131,20,Female,2020-11-18_20h10.38.787,torte-q,2020.1.3,Win32,60,14047,0.432935,,,,,,,,,,,,,,0,113,113,93,1,,,,,,,,,,,,,,,,,,,,,,,,,,
,,,,,,,,,,,,a,Correct!,,,,,,t2.png,t2.png,0,0.981,20,Female,2020-11-18_20h10.38.787,torte-q,2020.1.3,Win32,60,14047,0.81583,,,,,,,,,,,,,,0,114,114,101,1,,,,,,,,,,,,,,,,,,,,,,,,,,
,,,,,,,,,,,,a,Incorrect,,,,,,t3.png,t1.png,2,0.056466,20,Female,2020-11-18_20h10.38.787,torte-q,2020.1.3,Win32,60,14047,0.420825,,,,,,,,,,,,,,0,115,115,0,1,,,,,,,,,,,,,,,,,,,,,,,,,,
,,,,,,,,,,,,l,Incorrect,,,,,,t1.png,t2.png,1,0.9,20,Female,2020-11-18_20h10.38.787,torte-q,2020.1.3,Win32,60,14047,0.65133,,,,,,,,,,,,,,0,116,116,1,1,,,,,,,,,,,,,,,,,,,,,,,,,,
,,,,,,,,,,,,l,Incorrect,,,,,,t2.png,t3.png,1,0.909,20,Female,2020-11-18_20h10.38.787,torte-q,2020.1.3,Win32,60,14047,0.54127,,,,,,,,,,,,,,0,117,117,74,1,,,,,,,,,,,,,,,,,,,,,,,,,,
,,,,,,,,,,,,l,Incorrect,,,,,,t4.png,t5.png,1,0.90025,20,Female,2020-11-18_20h10.38.787,torte-q,2020.1.3,Win32,60,14047,0.853635,,,,,,,,,,,,,,0,118,118,47,1,,,,,,,,,,,,,,,,,,,,,,,,,,
,,,,,,,,,,,,l,Correct!,,,,,,t1.png,t4.png,3,0.0000131,20,Female,2020-11-18_20h10.38.787,torte-q,2020.1.3,Win32,60,14047,0.455615,,,,,,,,,,,,,,0,119,119,81,1,,,,,,,,,,,,,,,,,,,,,,,,,,
,,,,,,,,,,,,,,,,,,,,,,,20,Female,2020-11-18_20h10.38.787,torte-q,2020.1.3,Win32,60,14047,,space,1.17039,,,,,,,,,,,,,,,,,1.954000092,5.89698,83.20001268,63.99999452,1,0,0,s3,44.0000121,35.9999941,1,0,0,t2,260.0000153,-97.60005672,1,0,0,proceed,space,16.221205,space,7.230605,space,0.847815
