key_resp_8.keys,key_resp_8.rt,key_resp_9.keys,key_resp_9.rt,key_resp_10.keys,key_resp_10.rt,key_resp_11.keys,key_resp_11.rt,key_resp_2.keys,key_resp_2.rt,key_resp_3.keys,key_resp_3.rt,key_resp.keys,Feedback,train.thisRepN,train.thisTrialN,train.thisN,train.thisIndex,train.ran,torta_sx,torta_dx,difference,probability,age,gender,date,expName,psychopyVersion,OS,frameRate,participant,key_resp.rt,key_resp_15.keys,key_resp_15.rt,key_resp_6.keys,key_resp_6.rt,test1.thisRepN,test1.thisTrialN,test1.thisN,test1.thisIndex,test1.ran,key_resp_4.keys,key_resp_4.rt,key_resp_5.keys,back1.thisRepN,back1.thisTrialN,back1.thisN,back1.thisIndex,back1.ran,letter,key_resp_5.rt,back2.thisRepN,back2.thisTrialN,back2.thisN,back2.thisIndex,back2.ran,back3.thisRepN,back3.thisTrialN,back3.thisN,back3.thisIndex,back3.ran,back4.thisRepN,back4.thisTrialN,back4.thisN,back4.thisIndex,back4.ran,key_resp_7.keys,key_resp_7.rt,test2.thisRepN,test2.thisTrialN,test2.thisN,test2.thisIndex,test2.ran,mouse.x,mouse.y,mouse.leftButton,mouse.midButton,mouse.rightButton,mouse.clicked_name,mouse_2.x,mouse_2.y,mouse_2.leftButton,mouse_2.midButton,mouse_2.rightButton,mouse_2.clicked_name,mouse_3.x,mouse_3.y,mouse_3.leftButton,mouse_3.midButton,mouse_3.rightButton,mouse_3.clicked_name,key_resp_12.keys,key_resp_12.rt,key_resp_13.keys,key_resp_13.rt,key_resp_14.keys,key_resp_14.rt
space,35.12691,space,2.482755,space,6.169035,space,3.21591,space,21.85307,space,40.074175,,Too slow :(,0,0,0,102,1,t4.png,t2.png,2,0.059078,21,female,2020-09-28_13h19.17.225,torte-2b,2020.1.3,Win32,60,12430,,,,,,,,,,,,,,,,,,,,,,,,,,,,,,,,,,,,,,,,,,,,,,,,,,,,,,,,,,,,,,,,,,
,,,,,,,,,,,,a,Incorrect,0,1,1,33,1,t5.png,t1.png,4,9.55E-11,21,female,2020-09-28_13h19.17.225,torte-2b,2020.1.3,Win32,60,12430,0.97788,,,,,,,,,,,,,,,,,,,,,,,,,,,,,,,,,,,,,,,,,,,,,,,,,,,,,,,,,,,,,,,,,
,,,,,,,,,,,,l,Incorrect,0,2,2,2,1,t3.png,t2.png,1,0.90855,21,female,2020-09-28_13h19.17.225,torte-2b,2020.1.3,Win32,60,12430,0.96582,,,,,,,,,,,,,,,,,,,,,,,,,,,,,,,,,,,,,,,,,,,,,,,,,,,,,,,,,,,,,,,,,
,,,,,,,,,,,,l,Incorrect,0,3,3,112,1,t1.png,t1.png,0,0.97829,21,female,2020-09-28_13h19.17.225,torte-2b,2020.1.3,Win32,60,12430,0.899725,,,,,,,,,,,,,,,,,,,,,,,,,,,,,,,,,,,,,,,,,,,,,,,,,,,,,,,,,,,,,,,,,
,,,,,,,,,,,,l,Correct!,0,4,4,99,1,t1.png,t5.png,4,9.55E-11,21,female,2020-09-28_13h19.17.225,torte-2b,2020.1.3,Win32,60,12430,2.111525,,,,,,,,,,,,,,,,,,,,,,,,,,,,,,,,,,,,,,,,,,,,,,,,,,,,,,,,,,,,,,,,,
,,,,,,,,,,,,l,Incorrect,0,5,5,114,1,t2.png,t3.png,1,0.90855,21,female,2020-09-28_13h19.17.225,torte-2b,2020.1.3,Win32,60,12430,1.7266,,,,,,,,,,,,,,,,,,,,,,,,,,,,,,,,,,,,,,,,,,,,,,,,,,,,,,,,,,,,,,,,,
,,,,,,,,,,,,a,Correct!,0,6,6,110,1,t4.png,t5.png,1,0.90025,21,female,2020-09-28_13h19.17.225,torte-2b,2020.1.3,Win32,60,12430,1.675675,,,,,,,,,,,,,,,,,,,,,,,,,,,,,,,,,,,,,,,,,,,,,,,,,,,,,,,,,,,,,,,,,
,,,,,,,,,,,,a,Incorrect,0,7,7,30,1,t3.png,t1.png,2,0.056466,21,female,2020-09-28_13h19.17.225,torte-2b,2020.1.3,Win32,60,12430,1.14291,,,,,,,,,,,,,,,,,,,,,,,,,,,,,,,,,,,,,,,,,,,,,,,,,,,,,,,,,,,,,,,,,
,,,,,,,,,,,,l,Correct!,0,8,8,38,1,t3.png,t1.png,2,0.056466,21,female,2020-09-28_13h19.17.225,torte-2b,2020.1.3,Win32,60,12430,1.00263,,,,,,,,,,,,,,,,,,,,,,,,,,,,,,,,,,,,,,,,,,,,,,,,,,,,,,,,,,,,,,,,,
,,,,,,,,,,,,a,Correct!,0,9,9,47,1,t4.png,t2.png,2,0.059078,21,female,2020-09-28_13h19.17.225,torte-2b,2020.1.3,Win32,60,12430,0.87123,,,,,,,,,,,,,,,,,,,,,,,,,,,,,,,,,,,,,,,,,,,,,,,,,,,,,,,,,,,,,,,,,
,,,,,,,,,,,,a,Incorrect,0,10,10,14,1,t2.png,t4.png,2,0.059078,21,female,2020-09-28_13h19.17.225,torte-2b,2020.1.3,Win32,60,12430,1.12341,,,,,,,,,,,,,,,,,,,,,,,,,,,,,,,,,,,,,,,,,,,,,,,,,,,,,,,,,,,,,,,,,
,,,,,,,,,,,,l,Correct!,0,11,11,94,1,t5.png,t1.png,4,9.55E-11,21,female,2020-09-28_13h19.17.225,torte-2b,2020.1.3,Win32,60,12430,1.113645,,,,,,,,,,,,,,,,,,,,,,,,,,,,,,,,,,,,,,,,,,,,,,,,,,,,,,,,,,,,,,,,,
,,,,,,,,,,,,l,Incorrect,0,12,12,115,1,t2.png,t4.png,2,0.059078,21,female,2020-09-28_13h19.17.225,torte-2b,2020.1.3,Win32,60,12430,1.284435,,,,,,,,,,,,,,,,,,,,,,,,,,,,,,,,,,,,,,,,,,,,,,,,,,,,,,,,,,,,,,,,,
,,,,,,,,,,,,l,Incorrect,0,13,13,70,1,t5.png,t5.png,0,0.978,21,female,2020-09-28_13h19.17.225,torte-2b,2020.1.3,Win32,60,12430,2.1538,,,,,,,,,,,,,,,,,,,,,,,,,,,,,,,,,,,,,,,,,,,,,,,,,,,,,,,,,,,,,,,,,
,,,,,,,,,,,,a,Correct!,0,14,14,42,1,t5.png,t4.png,1,0.90025,21,female,2020-09-28_13h19.17.225,torte-2b,2020.1.3,Win32,60,12430,1.69065,,,,,,,,,,,,,,,,,,,,,,,,,,,,,,,,,,,,,,,,,,,,,,,,,,,,,,,,,,,,,,,,,
,,,,,,,,,,,,l,Correct!,0,15,15,86,1,t3.png,t1.png,2,0.056466,21,female,2020-09-28_13h19.17.225,torte-2b,2020.1.3,Win32,60,12430,2.432545,,,,,,,,,,,,,,,,,,,,,,,,,,,,,,,,,,,,,,,,,,,,,,,,,,,,,,,,,,,,,,,,,
,,,,,,,,,,,,,Too slow :(,0,16,16,35,1,t1.png,t4.png,3,0.0000131,21,female,2020-09-28_13h19.17.225,torte-2b,2020.1.3,Win32,60,12430,,,,,,,,,,,,,,,,,,,,,,,,,,,,,,,,,,,,,,,,,,,,,,,,,,,,,,,,,,,,,,,,,,
,,,,,,,,,,,,a,Incorrect,0,17,17,24,1,t4.png,t2.png,2,0.059078,21,female,2020-09-28_13h19.17.225,torte-2b,2020.1.3,Win32,60,12430,0.857475,,,,,,,,,,,,,,,,,,,,,,,,,,,,,,,,,,,,,,,,,,,,,,,,,,,,,,,,,,,,,,,,,
,,,,,,,,,,,,l,Incorrect,0,18,18,77,1,t1.png,t1.png,0,0.97829,21,female,2020-09-28_13h19.17.225,torte-2b,2020.1.3,Win32,60,12430,1.12185,,,,,,,,,,,,,,,,,,,,,,,,,,,,,,,,,,,,,,,,,,,,,,,,,,,,,,,,,,,,,,,,,
,,,,,,,,,,,,a,Incorrect,0,19,19,89,1,t1.png,t4.png,3,0.0000131,21,female,2020-09-28_13h19.17.225,torte-2b,2020.1.3,Win32,60,12430,1.290185,,,,,,,,,,,,,,,,,,,,,,,,,,,,,,,,,,,,,,,,,,,,,,,,,,,,,,,,,,,,,,,,,
,,,,,,,,,,,,a,Correct!,0,20,20,9,1,t4.png,t5.png,1,0.9,21,female,2020-09-28_13h19.17.225,torte-2b,2020.1.3,Win32,60,12430,1.31884,,,,,,,,,,,,,,,,,,,,,,,,,,,,,,,,,,,,,,,,,,,,,,,,,,,,,,,,,,,,,,,,,
,,,,,,,,,,,,a,Correct!,0,21,21,71,1,t5.png,t5.png,0,0.97829,21,female,2020-09-28_13h19.17.225,torte-2b,2020.1.3,Win32,60,12430,0.697125,,,,,,,,,,,,,,,,,,,,,,,,,,,,,,,,,,,,,,,,,,,,,,,,,,,,,,,,,,,,,,,,,
,,,,,,,,,,,,a,Correct!,0,22,22,116,1,t5.png,t4.png,1,0.90025,21,female,2020-09-28_13h19.17.225,torte-2b,2020.1.3,Win32,60,12430,1.92597,,,,,,,,,,,,,,,,,,,,,,,,,,,,,,,,,,,,,,,,,,,,,,,,,,,,,,,,,,,,,,,,,
,,,,,,,,,,,,a,Correct!,0,23,23,76,1,t3.png,t2.png,1,0.90855,21,female,2020-09-28_13h19.17.225,torte-2b,2020.1.3,Win32,60,12430,1.87279,,,,,,,,,,,,,,,,,,,,,,,,,,,,,,,,,,,,,,,,,,,,,,,,,,,,,,,,,,,,,,,,,
,,,,,,,,,,,,l,Incorrect,0,24,24,95,1,t1.png,t1.png,0,0.978,21,female,2020-09-28_13h19.17.225,torte-2b,2020.1.3,Win32,60,12430,0.10063,,,,,,,,,,,,,,,,,,,,,,,,,,,,,,,,,,,,,,,,,,,,,,,,,,,,,,,,,,,,,,,,,
,,,,,,,,,,,,,Too slow :(,0,25,25,29,1,t5.png,t5.png,0,0.97829,21,female,2020-09-28_13h19.17.225,torte-2b,2020.1.3,Win32,60,12430,,,,,,,,,,,,,,,,,,,,,,,,,,,,,,,,,,,,,,,,,,,,,,,,,,,,,,,,,,,,,,,,,,
,,,,,,,,,,,,,Too slow :(,0,26,26,85,1,t3.png,t2.png,1,0.90855,21,female,2020-09-28_13h19.17.225,torte-2b,2020.1.3,Win32,60,12430,,,,,,,,,,,,,,,,,,,,,,,,,,,,,,,,,,,,,,,,,,,,,,,,,,,,,,,,,,,,,,,,,,
,,,,,,,,,,,,l,Correct!,0,27,27,27,1,t3.png,t1.png,2,0.0565,21,female,2020-09-28_13h19.17.225,torte-2b,2020.1.3,Win32,60,12430,0.815015,,,,,,,,,,,,,,,,,,,,,,,,,,,,,,,,,,,,,,,,,,,,,,,,,,,,,,,,,,,,,,,,,
,,,,,,,,,,,,l,Incorrect,0,28,28,41,1,t3.png,t2.png,1,0.90855,21,female,2020-09-28_13h19.17.225,torte-2b,2020.1.3,Win32,60,12430,0.776765,,,,,,,,,,,,,,,,,,,,,,,,,,,,,,,,,,,,,,,,,,,,,,,,,,,,,,,,,,,,,,,,,
,,,,,,,,,,,,l,Correct!,0,29,29,69,1,t4.png,t2.png,2,0.059078,21,female,2020-09-28_13h19.17.225,torte-2b,2020.1.3,Win32,60,12430,0.47367,,,,,,,,,,,,,,,,,,,,,,,,,,,,,,,,,,,,,,,,,,,,,,,,,,,,,,,,,,,,,,,,,
,,,,,,,,,,,,l,Correct!,0,30,30,1,1,t2.png,t4.png,2,0.059078,21,female,2020-09-28_13h19.17.225,torte-2b,2020.1.3,Win32,60,12430,1.091195,,,,,,,,,,,,,,,,,,,,,,,,,,,,,,,,,,,,,,,,,,,,,,,,,,,,,,,,,,,,,,,,,
,,,,,,,,,,,,l,Correct!,0,31,31,17,1,t1.png,t4.png,3,0.0000131,21,female,2020-09-28_13h19.17.225,torte-2b,2020.1.3,Win32,60,12430,1.56081,,,,,,,,,,,,,,,,,,,,,,,,,,,,,,,,,,,,,,,,,,,,,,,,,,,,,,,,,,,,,,,,,
,,,,,,,,,,,,l,Incorrect,0,32,32,20,1,t2.png,t3.png,1,0.90855,21,female,2020-09-28_13h19.17.225,torte-2b,2020.1.3,Win32,60,12430,0.53164,,,,,,,,,,,,,,,,,,,,,,,,,,,,,,,,,,,,,,,,,,,,,,,,,,,,,,,,,,,,,,,,,
,,,,,,,,,,,,l,Correct!,0,33,33,93,1,t2.png,t4.png,2,0.059078,21,female,2020-09-28_13h19.17.225,torte-2b,2020.1.3,Win32,60,12430,0.891255,,,,,,,,,,,,,,,,,,,,,,,,,,,,,,,,,,,,,,,,,,,,,,,,,,,,,,,,,,,,,,,,,
,,,,,,,,,,,,l,Correct!,0,34,34,12,1,t5.png,t1.png,4,9.55E-11,21,female,2020-09-28_13h19.17.225,torte-2b,2020.1.3,Win32,60,12430,0.48553,,,,,,,,,,,,,,,,,,,,,,,,,,,,,,,,,,,,,,,,,,,,,,,,,,,,,,,,,,,,,,,,,
,,,,,,,,,,,,l,Correct!,0,35,35,11,1,t1.png,t4.png,3,0.0000131,21,female,2020-09-28_13h19.17.225,torte-2b,2020.1.3,Win32,60,12430,0.05102,,,,,,,,,,,,,,,,,,,,,,,,,,,,,,,,,,,,,,,,,,,,,,,,,,,,,,,,,,,,,,,,,
,,,,,,,,,,,,a,Correct!,0,36,36,15,1,t3.png,t2.png,1,0.90855,21,female,2020-09-28_13h19.17.225,torte-2b,2020.1.3,Win32,60,12430,0.652845,,,,,,,,,,,,,,,,,,,,,,,,,,,,,,,,,,,,,,,,,,,,,,,,,,,,,,,,,,,,,,,,,
,,,,,,,,,,,,l,Correct!,0,37,37,31,1,t1.png,t5.png,4,9.55E-11,21,female,2020-09-28_13h19.17.225,torte-2b,2020.1.3,Win32,60,12430,0.875025,,,,,,,,,,,,,,,,,,,,,,,,,,,,,,,,,,,,,,,,,,,,,,,,,,,,,,,,,,,,,,,,,
,,,,,,,,,,,,l,Correct!,0,38,38,6,1,t1.png,t4.png,3,0.0000131,21,female,2020-09-28_13h19.17.225,torte-2b,2020.1.3,Win32,60,12430,0.791545,,,,,,,,,,,,,,,,,,,,,,,,,,,,,,,,,,,,,,,,,,,,,,,,,,,,,,,,,,,,,,,,,
,,,,,,,,,,,,a,Incorrect,0,39,39,88,1,t3.png,t1.png,2,0.056466,21,female,2020-09-28_13h19.17.225,torte-2b,2020.1.3,Win32,60,12430,0.825605,,,,,,,,,,,,,,,,,,,,,,,,,,,,,,,,,,,,,,,,,,,,,,,,,,,,,,,,,,,,,,,,,
,,,,,,,,,,,,l,Correct!,0,40,40,67,1,t1.png,t5.png,4,9.55E-11,21,female,2020-09-28_13h19.17.225,torte-2b,2020.1.3,Win32,60,12430,0.607105,,,,,,,,,,,,,,,,,,,,,,,,,,,,,,,,,,,,,,,,,,,,,,,,,,,,,,,,,,,,,,,,,
,,,,,,,,,,,,l,Incorrect,0,41,41,78,1,t1.png,t1.png,0,0.978,21,female,2020-09-28_13h19.17.225,torte-2b,2020.1.3,Win32,60,12430,0.417825,,,,,,,,,,,,,,,,,,,,,,,,,,,,,,,,,,,,,,,,,,,,,,,,,,,,,,,,,,,,,,,,,
,,,,,,,,,,,,a,Incorrect,0,42,42,73,1,t4.png,t2.png,2,0.059078,21,female,2020-09-28_13h19.17.225,torte-2b,2020.1.3,Win32,60,12430,0.35906,,,,,,,,,,,,,,,,,,,,,,,,,,,,,,,,,,,,,,,,,,,,,,,,,,,,,,,,,,,,,,,,,
,,,,,,,,,,,,l,Incorrect,0,43,43,34,1,t5.png,t4.png,1,0.9,21,female,2020-09-28_13h19.17.225,torte-2b,2020.1.3,Win32,60,12430,0.580075,,,,,,,,,,,,,,,,,,,,,,,,,,,,,,,,,,,,,,,,,,,,,,,,,,,,,,,,,,,,,,,,,
,,,,,,,,,,,,l,Incorrect,0,44,44,118,1,t5.png,t5.png,0,0.978,21,female,2020-09-28_13h19.17.225,torte-2b,2020.1.3,Win32,60,12430,1.1995,,,,,,,,,,,,,,,,,,,,,,,,,,,,,,,,,,,,,,,,,,,,,,,,,,,,,,,,,,,,,,,,,
,,,,,,,,,,,,l,Correct!,0,45,45,82,1,t5.png,t1.png,4,9.55E-11,21,female,2020-09-28_13h19.17.225,torte-2b,2020.1.3,Win32,60,12430,0.448135,,,,,,,,,,,,,,,,,,,,,,,,,,,,,,,,,,,,,,,,,,,,,,,,,,,,,,,,,,,,,,,,,
,,,,,,,,,,,,a,Correct!,0,46,46,105,1,t3.png,t2.png,1,0.90855,21,female,2020-09-28_13h19.17.225,torte-2b,2020.1.3,Win32,60,12430,0.764555,,,,,,,,,,,,,,,,,,,,,,,,,,,,,,,,,,,,,,,,,,,,,,,,,,,,,,,,,,,,,,,,,
,,,,,,,,,,,,l,Incorrect,0,47,47,62,1,t5.png,t5.png,0,0.978,21,female,2020-09-28_13h19.17.225,torte-2b,2020.1.3,Win32,60,12430,0.433275,,,,,,,,,,,,,,,,,,,,,,,,,,,,,,,,,,,,,,,,,,,,,,,,,,,,,,,,,,,,,,,,,
,,,,,,,,,,,,l,Incorrect,0,48,48,28,1,t2.png,t3.png,1,0.909,21,female,2020-09-28_13h19.17.225,torte-2b,2020.1.3,Win32,60,12430,0.652205,,,,,,,,,,,,,,,,,,,,,,,,,,,,,,,,,,,,,,,,,,,,,,,,,,,,,,,,,,,,,,,,,
,,,,,,,,,,,,a,Incorrect,0,49,49,43,1,t4.png,t2.png,2,0.059078,21,female,2020-09-28_13h19.17.225,torte-2b,2020.1.3,Win32,60,12430,0.335115,,,,,,,,,,,,,,,,,,,,,,,,,,,,,,,,,,,,,,,,,,,,,,,,,,,,,,,,,,,,,,,,,
,,,,,,,,,,,,l,Incorrect,0,50,50,109,1,t5.png,t5.png,0,0.97829,21,female,2020-09-28_13h19.17.225,torte-2b,2020.1.3,Win32,60,12430,0.456,,,,,,,,,,,,,,,,,,,,,,,,,,,,,,,,,,,,,,,,,,,,,,,,,,,,,,,,,,,,,,,,,
,,,,,,,,,,,,l,Incorrect,0,51,51,22,1,t2.png,t3.png,1,0.90855,21,female,2020-09-28_13h19.17.225,torte-2b,2020.1.3,Win32,60,12430,0.39821,,,,,,,,,,,,,,,,,,,,,,,,,,,,,,,,,,,,,,,,,,,,,,,,,,,,,,,,,,,,,,,,,
,,,,,,,,,,,,l,Correct!,0,52,52,119,1,t1.png,t5.png,4,9.55E-11,21,female,2020-09-28_13h19.17.225,torte-2b,2020.1.3,Win32,60,12430,0.50991,,,,,,,,,,,,,,,,,,,,,,,,,,,,,,,,,,,,,,,,,,,,,,,,,,,,,,,,,,,,,,,,,
,,,,,,,,,,,,l,Incorrect,0,53,53,39,1,t3.png,t2.png,1,0.90855,21,female,2020-09-28_13h19.17.225,torte-2b,2020.1.3,Win32,60,12430,0.565685,,,,,,,,,,,,,,,,,,,,,,,,,,,,,,,,,,,,,,,,,,,,,,,,,,,,,,,,,,,,,,,,,
,,,,,,,,,,,,a,Incorrect,0,54,54,90,1,t1.png,t5.png,4,9.55E-11,21,female,2020-09-28_13h19.17.225,torte-2b,2020.1.3,Win32,60,12430,0.588195,,,,,,,,,,,,,,,,,,,,,,,,,,,,,,,,,,,,,,,,,,,,,,,,,,,,,,,,,,,,,,,,,
,,,,,,,,,,,,a,Correct!,0,55,55,63,1,t2.png,t3.png,1,0.909,21,female,2020-09-28_13h19.17.225,torte-2b,2020.1.3,Win32,60,12430,0.47126,,,,,,,,,,,,,,,,,,,,,,,,,,,,,,,,,,,,,,,,,,,,,,,,,,,,,,,,,,,,,,,,,
,,,,,,,,,,,,a,Correct!,0,56,56,101,1,t4.png,t5.png,1,0.90025,21,female,2020-09-28_13h19.17.225,torte-2b,2020.1.3,Win32,60,12430,0.433165,,,,,,,,,,,,,,,,,,,,,,,,,,,,,,,,,,,,,,,,,,,,,,,,,,,,,,,,,,,,,,,,,
,,,,,,,,,,,,a,Correct!,0,57,57,100,1,t4.png,t5.png,1,0.90025,21,female,2020-09-28_13h19.17.225,torte-2b,2020.1.3,Win32,60,12430,0.55228,,,,,,,,,,,,,,,,,,,,,,,,,,,,,,,,,,,,,,,,,,,,,,,,,,,,,,,,,,,,,,,,,
,,,,,,,,,,,,l,Correct!,0,58,58,87,1,t5.png,t1.png,4,9.55E-11,21,female,2020-09-28_13h19.17.225,torte-2b,2020.1.3,Win32,60,12430,0.682085,,,,,,,,,,,,,,,,,,,,,,,,,,,,,,,,,,,,,,,,,,,,,,,,,,,,,,,,,,,,,,,,,
,,,,,,,,,,,,l,Incorrect,0,59,59,96,1,t1.png,t1.png,0,0.97829,21,female,2020-09-28_13h19.17.225,torte-2b,2020.1.3,Win32,60,12430,2.436265,,,,,,,,,,,,,,,,,,,,,,,,,,,,,,,,,,,,,,,,,,,,,,,,,,,,,,,,,,,,,,,,,
,,,,,,,,,,,,l,Correct!,0,60,60,52,1,t2.png,t4.png,2,0.059078,21,female,2020-09-28_13h19.17.225,torte-2b,2020.1.3,Win32,60,12430,0.465935,,,,,,,,,,,,,,,,,,,,,,,,,,,,,,,,,,,,,,,,,,,,,,,,,,,,,,,,,,,,,,,,,
,,,,,,,,,,,,l,Incorrect,0,61,61,23,1,t5.png,t4.png,1,0.90025,21,female,2020-09-28_13h19.17.225,torte-2b,2020.1.3,Win32,60,12430,0.56747,,,,,,,,,,,,,,,,,,,,,,,,,,,,,,,,,,,,,,,,,,,,,,,,,,,,,,,,,,,,,,,,,
,,,,,,,,,,,,a,Correct!,0,62,62,44,1,t2.png,t3.png,1,0.909,21,female,2020-09-28_13h19.17.225,torte-2b,2020.1.3,Win32,60,12430,1.25909,,,,,,,,,,,,,,,,,,,,,,,,,,,,,,,,,,,,,,,,,,,,,,,,,,,,,,,,,,,,,,,,,
,,,,,,,,,,,,l,Correct!,0,63,63,61,1,t1.png,t4.png,3,0.0000131,21,female,2020-09-28_13h19.17.225,torte-2b,2020.1.3,Win32,60,12430,0.55217,,,,,,,,,,,,,,,,,,,,,,,,,,,,,,,,,,,,,,,,,,,,,,,,,,,,,,,,,,,,,,,,,
,,,,,,,,,,,,l,Correct!,0,64,64,68,1,t1.png,t4.png,3,0.0000131,21,female,2020-09-28_13h19.17.225,torte-2b,2020.1.3,Win32,60,12430,1.708775,,,,,,,,,,,,,,,,,,,,,,,,,,,,,,,,,,,,,,,,,,,,,,,,,,,,,,,,,,,,,,,,,
,,,,,,,,,,,,l,Correct!,0,65,65,111,1,t5.png,t1.png,4,9.55E-11,21,female,2020-09-28_13h19.17.225,torte-2b,2020.1.3,Win32,60,12430,0.24776,,,,,,,,,,,,,,,,,,,,,,,,,,,,,,,,,,,,,,,,,,,,,,,,,,,,,,,,,,,,,,,,,
,,,,,,,,,,,,l,Correct!,0,66,66,51,1,t3.png,t1.png,2,0.056466,21,female,2020-09-28_13h19.17.225,torte-2b,2020.1.3,Win32,60,12430,0.55544,,,,,,,,,,,,,,,,,,,,,,,,,,,,,,,,,,,,,,,,,,,,,,,,,,,,,,,,,,,,,,,,,
,,,,,,,,,,,,l,Correct!,0,67,67,26,1,t4.png,t2.png,2,0.0591,21,female,2020-09-28_13h19.17.225,torte-2b,2020.1.3,Win32,60,12430,0.334015,,,,,,,,,,,,,,,,,,,,,,,,,,,,,,,,,,,,,,,,,,,,,,,,,,,,,,,,,,,,,,,,,
,,,,,,,,,,,,a,Incorrect,0,68,68,74,1,t5.png,t4.png,1,0.9,21,female,2020-09-28_13h19.17.225,torte-2b,2020.1.3,Win32,60,12430,0.493855,,,,,,,,,,,,,,,,,,,,,,,,,,,,,,,,,,,,,,,,,,,,,,,,,,,,,,,,,,,,,,,,,
,,,,,,,,,,,,a,Incorrect,0,69,69,56,1,t5.png,t1.png,4,9.55E-11,21,female,2020-09-28_13h19.17.225,torte-2b,2020.1.3,Win32,60,12430,0.167565,,,,,,,,,,,,,,,,,,,,,,,,,,,,,,,,,,,,,,,,,,,,,,,,,,,,,,,,,,,,,,,,,
,,,,,,,,,,,,l,Incorrect,0,70,70,92,1,t2.png,t3.png,1,0.909,21,female,2020-09-28_13h19.17.225,torte-2b,2020.1.3,Win32,60,12430,0.3708,,,,,,,,,,,,,,,,,,,,,,,,,,,,,,,,,,,,,,,,,,,,,,,,,,,,,,,,,,,,,,,,,
,,,,,,,,,,,,l,Incorrect,0,71,71,107,1,t1.png,t1.png,0,0.978,21,female,2020-09-28_13h19.17.225,torte-2b,2020.1.3,Win32,60,12430,1.96529,,,,,,,,,,,,,,,,,,,,,,,,,,,,,,,,,,,,,,,,,,,,,,,,,,,,,,,,,,,,,,,,,
,,,,,,,,,,,,a,Correct!,0,72,72,25,1,t5.png,t5.png,0,0.97829,21,female,2020-09-28_13h19.17.225,torte-2b,2020.1.3,Win32,60,12430,0.58381,,,,,,,,,,,,,,,,,,,,,,,,,,,,,,,,,,,,,,,,,,,,,,,,,,,,,,,,,,,,,,,,,
,,,,,,,,,,,,l,Incorrect,0,73,73,58,1,t5.png,t4.png,1,0.90025,21,female,2020-09-28_13h19.17.225,torte-2b,2020.1.3,Win32,60,12430,0.4346,,,,,,,,,,,,,,,,,,,,,,,,,,,,,,,,,,,,,,,,,,,,,,,,,,,,,,,,,,,,,,,,,
,,,,,,,,,,,,l,Correct!,0,74,74,32,1,t4.png,t5.png,1,0.90025,21,female,2020-09-28_13h19.17.225,torte-2b,2020.1.3,Win32,60,12430,0.95,,,,,,,,,,,,,,,,,,,,,,,,,,,,,,,,,,,,,,,,,,,,,,,,,,,,,,,,,,,,,,,,,
,,,,,,,,,,,,l,Incorrect,0,75,75,113,1,t5.png,t4.png,1,0.9,21,female,2020-09-28_13h19.17.225,torte-2b,2020.1.3,Win32,60,12430,0.638525,,,,,,,,,,,,,,,,,,,,,,,,,,,,,,,,,,,,,,,,,,,,,,,,,,,,,,,,,,,,,,,,,
,,,,,,,,,,,,a,Correct!,0,76,76,13,1,t5.png,t5.png,0,0.97829,21,female,2020-09-28_13h19.17.225,torte-2b,2020.1.3,Win32,60,12430,0.50893,,,,,,,,,,,,,,,,,,,,,,,,,,,,,,,,,,,,,,,,,,,,,,,,,,,,,,,,,,,,,,,,,
,,,,,,,,,,,,a,Correct!,0,77,77,104,1,t2.png,t3.png,1,0.90855,21,female,2020-09-28_13h19.17.225,torte-2b,2020.1.3,Win32,60,12430,0.38249,,,,,,,,,,,,,,,,,,,,,,,,,,,,,,,,,,,,,,,,,,,,,,,,,,,,,,,,,,,,,,,,,
,,,,,,,,,,,,l,Incorrect,0,78,78,97,1,t5.png,t5.png,0,0.97829,21,female,2020-09-28_13h19.17.225,torte-2b,2020.1.3,Win32,60,12430,0.519975,,,,,,,,,,,,,,,,,,,,,,,,,,,,,,,,,,,,,,,,,,,,,,,,,,,,,,,,,,,,,,,,,
,,,,,,,,,,,,a,Incorrect,0,79,79,4,1,t1.png,t5.png,4,9.55E-11,21,female,2020-09-28_13h19.17.225,torte-2b,2020.1.3,Win32,60,12430,0.49725,,,,,,,,,,,,,,,,,,,,,,,,,,,,,,,,,,,,,,,,,,,,,,,,,,,,,,,,,,,,,,,,,
,,,,,,,,,,,,l,Correct!,0,80,80,19,1,t4.png,t2.png,2,0.059078,21,female,2020-09-28_13h19.17.225,torte-2b,2020.1.3,Win32,60,12430,0.40169,,,,,,,,,,,,,,,,,,,,,,,,,,,,,,,,,,,,,,,,,,,,,,,,,,,,,,,,,,,,,,,,,
,,,,,,,,,,,,l,Correct!,0,81,81,54,1,t1.png,t5.png,4,9.55E-11,21,female,2020-09-28_13h19.17.225,torte-2b,2020.1.3,Win32,60,12430,0.599055,,,,,,,,,,,,,,,,,,,,,,,,,,,,,,,,,,,,,,,,,,,,,,,,,,,,,,,,,,,,,,,,,
,,,,,,,,,,,,l,Correct!,0,82,82,80,1,t1.png,t4.png,3,0.0000131,21,female,2020-09-28_13h19.17.225,torte-2b,2020.1.3,Win32,60,12430,0.776845,,,,,,,,,,,,,,,,,,,,,,,,,,,,,,,,,,,,,,,,,,,,,,,,,,,,,,,,,,,,,,,,,
,,,,,,,,,,,,l,Correct!,0,83,83,40,1,t1.png,t5.png,4,9.55E-11,21,female,2020-09-28_13h19.17.225,torte-2b,2020.1.3,Win32,60,12430,0.561725,,,,,,,,,,,,,,,,,,,,,,,,,,,,,,,,,,,,,,,,,,,,,,,,,,,,,,,,,,,,,,,,,
,,,,,,,,,,,,l,Incorrect,0,84,84,84,1,t1.png,t1.png,0,0.97829,21,female,2020-09-28_13h19.17.225,torte-2b,2020.1.3,Win32,60,12430,0.444365,,,,,,,,,,,,,,,,,,,,,,,,,,,,,,,,,,,,,,,,,,,,,,,,,,,,,,,,,,,,,,,,,
,,,,,,,,,,,,a,Correct!,0,85,85,8,1,t3.png,t2.png,1,0.90855,21,female,2020-09-28_13h19.17.225,torte-2b,2020.1.3,Win32,60,12430,0.44874,,,,,,,,,,,,,,,,,,,,,,,,,,,,,,,,,,,,,,,,,,,,,,,,,,,,,,,,,,,,,,,,,
,,,,,,,,,,,,l,Incorrect,0,86,86,81,1,t1.png,t1.png,0,0.97829,21,female,2020-09-28_13h19.17.225,torte-2b,2020.1.3,Win32,60,12430,0.604625,,,,,,,,,,,,,,,,,,,,,,,,,,,,,,,,,,,,,,,,,,,,,,,,,,,,,,,,,,,,,,,,,
,,,,,,,,,,,,a,Incorrect,0,87,87,53,1,t3.png,t1.png,2,0.056466,21,female,2020-09-28_13h19.17.225,torte-2b,2020.1.3,Win32,60,12430,0.49969,,,,,,,,,,,,,,,,,,,,,,,,,,,,,,,,,,,,,,,,,,,,,,,,,,,,,,,,,,,,,,,,,
,,,,,,,,,,,,l,Correct!,0,88,88,98,1,t2.png,t4.png,2,0.0591,21,female,2020-09-28_13h19.17.225,torte-2b,2020.1.3,Win32,60,12430,2.054715,,,,,,,,,,,,,,,,,,,,,,,,,,,,,,,,,,,,,,,,,,,,,,,,,,,,,,,,,,,,,,,,,
,,,,,,,,,,,,l,Incorrect,0,89,89,18,1,t4.png,t5.png,1,0.90025,21,female,2020-09-28_13h19.17.225,torte-2b,2020.1.3,Win32,60,12430,0.58193,,,,,,,,,,,,,,,,,,,,,,,,,,,,,,,,,,,,,,,,,,,,,,,,,,,,,,,,,,,,,,,,,
,,,,,,,,,,,,a,Incorrect,0,90,90,49,1,t4.png,t5.png,1,0.9,21,female,2020-09-28_13h19.17.225,torte-2b,2020.1.3,Win32,60,12430,0.741035,,,,,,,,,,,,,,,,,,,,,,,,,,,,,,,,,,,,,,,,,,,,,,,,,,,,,,,,,,,,,,,,,
,,,,,,,,,,,,l,Incorrect,0,91,91,65,1,t4.png,t5.png,1,0.90025,21,female,2020-09-28_13h19.17.225,torte-2b,2020.1.3,Win32,60,12430,0.52671,,,,,,,,,,,,,,,,,,,,,,,,,,,,,,,,,,,,,,,,,,,,,,,,,,,,,,,,,,,,,,,,,
,,,,,,,,,,,,l,Incorrect,0,92,92,66,1,t4.png,t5.png,1,0.9,21,female,2020-09-28_13h19.17.225,torte-2b,2020.1.3,Win32,60,12430,0.48787,,,,,,,,,,,,,,,,,,,,,,,,,,,,,,,,,,,,,,,,,,,,,,,,,,,,,,,,,,,,,,,,,
,,,,,,,,,,,,a,Incorrect,0,93,93,55,1,t2.png,t4.png,2,0.059078,21,female,2020-09-28_13h19.17.225,torte-2b,2020.1.3,Win32,60,12430,0.52177,,,,,,,,,,,,,,,,,,,,,,,,,,,,,,,,,,,,,,,,,,,,,,,,,,,,,,,,,,,,,,,,,
,,,,,,,,,,,,l,Incorrect,0,94,94,7,1,t4.png,t5.png,1,0.90025,21,female,2020-09-28_13h19.17.225,torte-2b,2020.1.3,Win32,60,12430,0.41565,,,,,,,,,,,,,,,,,,,,,,,,,,,,,,,,,,,,,,,,,,,,,,,,,,,,,,,,,,,,,,,,,
,,,,,,,,,,,,l,Correct!,0,95,95,50,1,t5.png,t1.png,4,9.55E-11,21,female,2020-09-28_13h19.17.225,torte-2b,2020.1.3,Win32,60,12430,0.59424,,,,,,,,,,,,,,,,,,,,,,,,,,,,,,,,,,,,,,,,,,,,,,,,,,,,,,,,,,,,,,,,,
,,,,,,,,,,,,l,Correct!,0,96,96,5,1,t2.png,t4.png,2,0.059078,21,female,2020-09-28_13h19.17.225,torte-2b,2020.1.3,Win32,60,12430,0.529415,,,,,,,,,,,,,,,,,,,,,,,,,,,,,,,,,,,,,,,,,,,,,,,,,,,,,,,,,,,,,,,,,
,,,,,,,,,,,,l,Incorrect,0,97,97,64,1,t1.png,t1.png,0,0.978,21,female,2020-09-28_13h19.17.225,torte-2b,2020.1.3,Win32,60,12430,0.602385,,,,,,,,,,,,,,,,,,,,,,,,,,,,,,,,,,,,,,,,,,,,,,,,,,,,,,,,,,,,,,,,,
,,,,,,,,,,,,a,Incorrect,0,98,98,103,1,t3.png,t1.png,2,0.056466,21,female,2020-09-28_13h19.17.225,torte-2b,2020.1.3,Win32,60,12430,0.62585,,,,,,,,,,,,,,,,,,,,,,,,,,,,,,,,,,,,,,,,,,,,,,,,,,,,,,,,,,,,,,,,,
,,,,,,,,,,,,l,Correct!,0,99,99,83,1,t3.png,t1.png,2,0.056466,21,female,2020-09-28_13h19.17.225,torte-2b,2020.1.3,Win32,60,12430,0.81641,,,,,,,,,,,,,,,,,,,,,,,,,,,,,,,,,,,,,,,,,,,,,,,,,,,,,,,,,,,,,,,,,
,,,,,,,,,,,,l,Correct!,0,100,100,60,1,t2.png,t4.png,2,0.059078,21,female,2020-09-28_13h19.17.225,torte-2b,2020.1.3,Win32,60,12430,0.48309,,,,,,,,,,,,,,,,,,,,,,,,,,,,,,,,,,,,,,,,,,,,,,,,,,,,,,,,,,,,,,,,,
,,,,,,,,,,,,l,Incorrect,0,101,101,75,1,t1.png,t1.png,0,0.97829,21,female,2020-09-28_13h19.17.225,torte-2b,2020.1.3,Win32,60,12430,0.70218,,,,,,,,,,,,,,,,,,,,,,,,,,,,,,,,,,,,,,,,,,,,,,,,,,,,,,,,,,,,,,,,,
,,,,,,,,,,,,l,Incorrect,0,102,102,79,1,t3.png,t2.png,1,0.909,21,female,2020-09-28_13h19.17.225,torte-2b,2020.1.3,Win32,60,12430,0.51789,,,,,,,,,,,,,,,,,,,,,,,,,,,,,,,,,,,,,,,,,,,,,,,,,,,,,,,,,,,,,,,,,
,,,,,,,,,,,,l,Correct!,0,103,103,57,1,t2.png,t4.png,2,0.059078,21,female,2020-09-28_13h19.17.225,torte-2b,2020.1.3,Win32,60,12430,0.722975,,,,,,,,,,,,,,,,,,,,,,,,,,,,,,,,,,,,,,,,,,,,,,,,,,,,,,,,,,,,,,,,,
,,,,,,,,,,,,a,Incorrect,0,104,104,91,1,t1.png,t4.png,3,0.0000131,21,female,2020-09-28_13h19.17.225,torte-2b,2020.1.3,Win32,60,12430,0.40308,,,,,,,,,,,,,,,,,,,,,,,,,,,,,,,,,,,,,,,,,,,,,,,,,,,,,,,,,,,,,,,,,
,,,,,,,,,,,,l,Correct!,0,105,105,45,1,t3.png,t2.png,1,0.90855,21,female,2020-09-28_13h19.17.225,torte-2b,2020.1.3,Win32,60,12430,0.33927,,,,,,,,,,,,,,,,,,,,,,,,,,,,,,,,,,,,,,,,,,,,,,,,,,,,,,,,,,,,,,,,,
,,,,,,,,,,,,l,Correct!,0,106,106,21,1,t5.png,t4.png,1,0.90025,21,female,2020-09-28_13h19.17.225,torte-2b,2020.1.3,Win32,60,12430,0.44768,,,,,,,,,,,,,,,,,,,,,,,,,,,,,,,,,,,,,,,,,,,,,,,,,,,,,,,,,,,,,,,,,
,,,,,,,,,,,,a,Correct!,0,107,107,106,1,t2.png,t3.png,1,0.90855,21,female,2020-09-28_13h19.17.225,torte-2b,2020.1.3,Win32,60,12430,0.85358,,,,,,,,,,,,,,,,,,,,,,,,,,,,,,,,,,,,,,,,,,,,,,,,,,,,,,,,,,,,,,,,,
,,,,,,,,,,,,l,Incorrect,0,108,108,10,1,t2.png,t3.png,1,0.90855,21,female,2020-09-28_13h19.17.225,torte-2b,2020.1.3,Win32,60,12430,0.924355,,,,,,,,,,,,,,,,,,,,,,,,,,,,,,,,,,,,,,,,,,,,,,,,,,,,,,,,,,,,,,,,,
,,,,,,,,,,,,l,Correct!,0,109,109,117,1,t1.png,t5.png,4,9.55E-11,21,female,2020-09-28_13h19.17.225,torte-2b,2020.1.3,Win32,60,12430,0.75852,,,,,,,,,,,,,,,,,,,,,,,,,,,,,,,,,,,,,,,,,,,,,,,,,,,,,,,,,,,,,,,,,
,,,,,,,,,,,,l,Incorrect,0,110,110,48,1,t5.png,t5.png,0,0.97829,21,female,2020-09-28_13h19.17.225,torte-2b,2020.1.3,Win32,60,12430,0.565405,,,,,,,,,,,,,,,,,,,,,,,,,,,,,,,,,,,,,,,,,,,,,,,,,,,,,,,,,,,,,,,,,
,,,,,,,,,,,,a,Incorrect,0,111,111,46,1,t4.png,t2.png,2,0.059078,21,female,2020-09-28_13h19.17.225,torte-2b,2020.1.3,Win32,60,12430,0.652015,,,,,,,,,,,,,,,,,,,,,,,,,,,,,,,,,,,,,,,,,,,,,,,,,,,,,,,,,,,,,,,,,
,,,,,,,,,,,,l,Correct!,0,112,112,3,1,t1.png,t5.png,4,9.55E-11,21,female,2020-09-28_13h19.17.225,torte-2b,2020.1.3,Win32,60,12430,0.8017,,,,,,,,,,,,,,,,,,,,,,,,,,,,,,,,,,,,,,,,,,,,,,,,,,,,,,,,,,,,,,,,,
,,,,,,,,,,,,l,Correct!,0,113,113,37,1,t1.png,t4.png,3,0.0000131,21,female,2020-09-28_13h19.17.225,torte-2b,2020.1.3,Win32,60,12430,0.393595,,,,,,,,,,,,,,,,,,,,,,,,,,,,,,,,,,,,,,,,,,,,,,,,,,,,,,,,,,,,,,,,,
,,,,,,,,,,,,l,Correct!,0,114,114,72,1,t4.png,t2.png,2,0.059078,21,female,2020-09-28_13h19.17.225,torte-2b,2020.1.3,Win32,60,12430,0.093665,,,,,,,,,,,,,,,,,,,,,,,,,,,,,,,,,,,,,,,,,,,,,,,,,,,,,,,,,,,,,,,,,
,,,,,,,,,,,,l,Correct!,0,115,115,108,1,t5.png,t1.png,4,9.55E-11,21,female,2020-09-28_13h19.17.225,torte-2b,2020.1.3,Win32,60,12430,0.653665,,,,,,,,,,,,,,,,,,,,,,,,,,,,,,,,,,,,,,,,,,,,,,,,,,,,,,,,,,,,,,,,,
,,,,,,,,,,,,a,Incorrect,0,116,116,36,1,t3.png,t1.png,2,0.0565,21,female,2020-09-28_13h19.17.225,torte-2b,2020.1.3,Win32,60,12430,0.65685,,,,,,,,,,,,,,,,,,,,,,,,,,,,,,,,,,,,,,,,,,,,,,,,,,,,,,,,,,,,,,,,,
,,,,,,,,,,,,l,Correct!,0,117,117,0,1,t5.png,t1.png,4,9.55E-11,21,female,2020-09-28_13h19.17.225,torte-2b,2020.1.3,Win32,60,12430,0.517925,,,,,,,,,,,,,,,,,,,,,,,,,,,,,,,,,,,,,,,,,,,,,,,,,,,,,,,,,,,,,,,,,
,,,,,,,,,,,,l,Incorrect,0,118,118,59,1,t5.png,t4.png,1,0.9,21,female,2020-09-28_13h19.17.225,torte-2b,2020.1.3,Win32,60,12430,0.519145,,,,,,,,,,,,,,,,,,,,,,,,,,,,,,,,,,,,,,,,,,,,,,,,,,,,,,,,,,,,,,,,,
,,,,,,,,,,,,a,Correct!,0,119,119,16,1,t5.png,t4.png,1,0.9,21,female,2020-09-28_13h19.17.225,torte-2b,2020.1.3,Win32,60,12430,0.42361,,,,,,,,,,,,,,,,,,,,,,,,,,,,,,,,,,,,,,,,,,,,,,,,,,,,,,,,,,,,,,,,,
,,,,,,,,,,,,a,Correct!,,,,,,t4.png,t3.png,1,0.909,21,female,2020-09-28_13h19.17.225,torte-2b,2020.1.3,Win32,60,12430,1.398195,space,178.46921,space,11.98613,0,0,0,20,1,,,,,,,,,,,,,,,,,,,,,,,,,,,,,,,,,,,,,,,,,,,,,,,,,,,,,,,,
,,,,,,,,,,,,l,Correct!,,,,,,t2.png,t4.png,2,0.059078,21,female,2020-09-28_13h19.17.225,torte-2b,2020.1.3,Win32,60,12430,1.44868,,,,,0,1,1,37,1,,,,,,,,,,,,,,,,,,,,,,,,,,,,,,,,,,,,,,,,,,,,,,,,,,,,,,,,
,,,,,,,,,,,,l,Incorrect,,,,,,t3.png,t4.png,1,0.909,21,female,2020-09-28_13h19.17.225,torte-2b,2020.1.3,Win32,60,12430,0.965325,,,,,0,2,2,89,1,,,,,,,,,,,,,,,,,,,,,,,,,,,,,,,,,,,,,,,,,,,,,,,,,,,,,,,,
,,,,,,,,,,,,a,Incorrect,,,,,,t4.png,t1.png,3,0.0000131,21,female,2020-09-28_13h19.17.225,torte-2b,2020.1.3,Win32,60,12430,0.774785,,,,,0,3,3,42,1,,,,,,,,,,,,,,,,,,,,,,,,,,,,,,,,,,,,,,,,,,,,,,,,,,,,,,,,
,,,,,,,,,,,,l,Incorrect,,,,,,t2.png,t3.png,1,0.90855,21,female,2020-09-28_13h19.17.225,torte-2b,2020.1.3,Win32,60,12430,1.36807,,,,,0,4,4,68,1,,,,,,,,,,,,,,,,,,,,,,,,,,,,,,,,,,,,,,,,,,,,,,,,,,,,,,,,
,,,,,,,,,,,,l,Incorrect,,,,,,t2.png,t2.png,0,0.981,21,female,2020-09-28_13h19.17.225,torte-2b,2020.1.3,Win32,60,12430,0.87343,,,,,0,5,5,101,1,,,,,,,,,,,,,,,,,,,,,,,,,,,,,,,,,,,,,,,,,,,,,,,,,,,,,,,,
,,,,,,,,,,,,a,Correct!,,,,,,t5.png,t5.png,0,0.97829,21,female,2020-09-28_13h19.17.225,torte-2b,2020.1.3,Win32,60,12430,0.901865,,,,,0,6,6,94,1,,,,,,,,,,,,,,,,,,,,,,,,,,,,,,,,,,,,,,,,,,,,,,,,,,,,,,,,
,,,,,,,,,,,,l,Correct!,,,,,,t5.png,t1.png,4,9.55E-11,21,female,2020-09-28_13h19.17.225,torte-2b,2020.1.3,Win32,60,12430,0.95289,,,,,0,7,7,102,1,,,,,,,,,,,,,,,,,,,,,,,,,,,,,,,,,,,,,,,,,,,,,,,,,,,,,,,,
,,,,,,,,,,,,l,Correct!,,,,,,t4.png,t1.png,3,0.0000131,21,female,2020-09-28_13h19.17.225,torte-2b,2020.1.3,Win32,60,12430,1.931825,,,,,0,8,8,13,1,,,,,,,,,,,,,,,,,,,,,,,,,,,,,,,,,,,,,,,,,,,,,,,,,,,,,,,,
,,,,,,,,,,,,a,Incorrect,,,,,,t5.png,t3.png,2,0.056466,21,female,2020-09-28_13h19.17.225,torte-2b,2020.1.3,Win32,60,12430,0.872985,,,,,0,9,9,108,1,,,,,,,,,,,,,,,,,,,,,,,,,,,,,,,,,,,,,,,,,,,,,,,,,,,,,,,,
,,,,,,,,,,,,a,Incorrect,,,,,,t1.png,t5.png,4,9.55E-11,21,female,2020-09-28_13h19.17.225,torte-2b,2020.1.3,Win32,60,12430,1.155755,,,,,0,10,10,41,1,,,,,,,,,,,,,,,,,,,,,,,,,,,,,,,,,,,,,,,,,,,,,,,,,,,,,,,,
,,,,,,,,,,,,a,Incorrect,,,,,,t5.png,t2.png,3,0.0000131,21,female,2020-09-28_13h19.17.225,torte-2b,2020.1.3,Win32,60,12430,0.810865,,,,,0,11,11,116,1,,,,,,,,,,,,,,,,,,,,,,,,,,,,,,,,,,,,,,,,,,,,,,,,,,,,,,,,
,,,,,,,,,,,,l,Incorrect,,,,,,t2.png,t1.png,1,0.90025,21,female,2020-09-28_13h19.17.225,torte-2b,2020.1.3,Win32,60,12430,0.598335,,,,,0,12,12,19,1,,,,,,,,,,,,,,,,,,,,,,,,,,,,,,,,,,,,,,,,,,,,,,,,,,,,,,,,
,,,,,,,,,,,,l,Incorrect,,,,,,t2.png,t1.png,1,0.9,21,female,2020-09-28_13h19.17.225,torte-2b,2020.1.3,Win32,60,12430,0.594355,,,,,0,13,13,118,1,,,,,,,,,,,,,,,,,,,,,,,,,,,,,,,,,,,,,,,,,,,,,,,,,,,,,,,,
,,,,,,,,,,,,a,Correct!,,,,,,t4.png,t5.png,1,0.9,21,female,2020-09-28_13h19.17.225,torte-2b,2020.1.3,Win32,60,12430,0.78658,,,,,0,14,14,115,1,,,,,,,,,,,,,,,,,,,,,,,,,,,,,,,,,,,,,,,,,,,,,,,,,,,,,,,,
,,,,,,,,,,,,a,Correct!,,,,,,t4.png,t3.png,1,0.90855,21,female,2020-09-28_13h19.17.225,torte-2b,2020.1.3,Win32,60,12430,0.91785,,,,,0,15,15,35,1,,,,,,,,,,,,,,,,,,,,,,,,,,,,,,,,,,,,,,,,,,,,,,,,,,,,,,,,
,,,,,,,,,,,,a,Incorrect,,,,,,t3.png,t5.png,2,0.056466,21,female,2020-09-28_13h19.17.225,torte-2b,2020.1.3,Win32,60,12430,1.421445,,,,,0,16,16,44,1,,,,,,,,,,,,,,,,,,,,,,,,,,,,,,,,,,,,,,,,,,,,,,,,,,,,,,,,
,,,,,,,,,,,,l,Correct!,,,,,,t1.png,t4.png,3,0.0000131,21,female,2020-09-28_13h19.17.225,torte-2b,2020.1.3,Win32,60,12430,1.120905,,,,,0,17,17,81,1,,,,,,,,,,,,,,,,,,,,,,,,,,,,,,,,,,,,,,,,,,,,,,,,,,,,,,,,
,,,,,,,,,,,,l,Incorrect,,,,,,t2.png,t1.png,1,0.90025,21,female,2020-09-28_13h19.17.225,torte-2b,2020.1.3,Win32,60,12430,1.00653,,,,,0,18,18,4,1,,,,,,,,,,,,,,,,,,,,,,,,,,,,,,,,,,,,,,,,,,,,,,,,,,,,,,,,
,,,,,,,,,,,,a,Incorrect,,,,,,t4.png,t2.png,2,0.059078,21,female,2020-09-28_13h19.17.225,torte-2b,2020.1.3,Win32,60,12430,0.773805,,,,,0,19,19,86,1,,,,,,,,,,,,,,,,,,,,,,,,,,,,,,,,,,,,,,,,,,,,,,,,,,,,,,,,
,,,,,,,,,,,,l,Incorrect,,,,,,t1.png,t1.png,0,0.97829,21,female,2020-09-28_13h19.17.225,torte-2b,2020.1.3,Win32,60,12430,0.801905,,,,,0,20,20,67,1,,,,,,,,,,,,,,,,,,,,,,,,,,,,,,,,,,,,,,,,,,,,,,,,,,,,,,,,
,,,,,,,,,,,,a,Incorrect,,,,,,t5.png,t3.png,2,0.056466,21,female,2020-09-28_13h19.17.225,torte-2b,2020.1.3,Win32,60,12430,0.899125,,,,,0,21,21,56,1,,,,,,,,,,,,,,,,,,,,,,,,,,,,,,,,,,,,,,,,,,,,,,,,,,,,,,,,
,,,,,,,,,,,,l,Correct!,,,,,,t1.png,t5.png,4,9.55E-11,21,female,2020-09-28_13h19.17.225,torte-2b,2020.1.3,Win32,60,12430,1.400165,,,,,0,22,22,85,1,,,,,,,,,,,,,,,,,,,,,,,,,,,,,,,,,,,,,,,,,,,,,,,,,,,,,,,,
,,,,,,,,,,,,l,Incorrect,,,,,,t5.png,t5.png,0,0.97829,21,female,2020-09-28_13h19.17.225,torte-2b,2020.1.3,Win32,60,12430,0.893445,,,,,0,23,23,25,1,,,,,,,,,,,,,,,,,,,,,,,,,,,,,,,,,,,,,,,,,,,,,,,,,,,,,,,,
,,,,,,,,,,,,a,Correct!,,,,,,t5.png,t4.png,1,0.90025,21,female,2020-09-28_13h19.17.225,torte-2b,2020.1.3,Win32,60,12430,0.60702,,,,,0,24,24,26,1,,,,,,,,,,,,,,,,,,,,,,,,,,,,,,,,,,,,,,,,,,,,,,,,,,,,,,,,
,,,,,,,,,,,,a,Correct!,,,,,,t4.png,t3.png,1,0.909,21,female,2020-09-28_13h19.17.225,torte-2b,2020.1.3,Win32,60,12430,1.02184,,,,,0,25,25,46,1,,,,,,,,,,,,,,,,,,,,,,,,,,,,,,,,,,,,,,,,,,,,,,,,,,,,,,,,
,,,,,,,,,,,,a,Correct!,,,,,,t4.png,t4.png,0,0.98115,21,female,2020-09-28_13h19.17.225,torte-2b,2020.1.3,Win32,60,12430,1.308785,,,,,0,26,26,52,1,,,,,,,,,,,,,,,,,,,,,,,,,,,,,,,,,,,,,,,,,,,,,,,,,,,,,,,,
,,,,,,,,,,,,l,Correct!,,,,,,t1.png,t3.png,2,0.056466,21,female,2020-09-28_13h19.17.225,torte-2b,2020.1.3,Win32,60,12430,0.84144,,,,,0,27,27,87,1,,,,,,,,,,,,,,,,,,,,,,,,,,,,,,,,,,,,,,,,,,,,,,,,,,,,,,,,
,,,,,,,,,,,,a,Incorrect,,,,,,t5.png,t2.png,3,0.0000131,21,female,2020-09-28_13h19.17.225,torte-2b,2020.1.3,Win32,60,12430,0.731635,,,,,0,28,28,98,1,,,,,,,,,,,,,,,,,,,,,,,,,,,,,,,,,,,,,,,,,,,,,,,,,,,,,,,,
,,,,,,,,,,,,l,Incorrect,,,,,,t1.png,t2.png,1,0.90025,21,female,2020-09-28_13h19.17.225,torte-2b,2020.1.3,Win32,60,12430,0.74013,,,,,0,29,29,112,1,,,,,,,,,,,,,,,,,,,,,,,,,,,,,,,,,,,,,,,,,,,,,,,,,,,,,,,,
,,,,,,,,,,,,a,Correct!,,,,,,t4.png,t5.png,1,0.90025,21,female,2020-09-28_13h19.17.225,torte-2b,2020.1.3,Win32,60,12430,0.721035,,,,,0,30,30,47,1,,,,,,,,,,,,,,,,,,,,,,,,,,,,,,,,,,,,,,,,,,,,,,,,,,,,,,,,
,,,,,,,,,,,,l,Incorrect,,,,,,t1.png,t1.png,0,0.97829,21,female,2020-09-28_13h19.17.225,torte-2b,2020.1.3,Win32,60,12430,0.83568,,,,,0,31,31,9,1,,,,,,,,,,,,,,,,,,,,,,,,,,,,,,,,,,,,,,,,,,,,,,,,,,,,,,,,
,,,,,,,,,,,,l,Incorrect,,,,,,t1.png,t1.png,0,0.978,21,female,2020-09-28_13h19.17.225,torte-2b,2020.1.3,Win32,60,12430,0.686205,,,,,0,32,32,54,1,,,,,,,,,,,,,,,,,,,,,,,,,,,,,,,,,,,,,,,,,,,,,,,,,,,,,,,,
,,,,,,,,,,,,a,Incorrect,,,,,,t5.png,t2.png,3,0.0000131,21,female,2020-09-28_13h19.17.225,torte-2b,2020.1.3,Win32,60,12430,1.036715,,,,,0,33,33,119,1,,,,,,,,,,,,,,,,,,,,,,,,,,,,,,,,,,,,,,,,,,,,,,,,,,,,,,,,
,,,,,,,,,,,,a,Incorrect,,,,,,t5.png,t3.png,2,0.056466,21,female,2020-09-28_13h19.17.225,torte-2b,2020.1.3,Win32,60,12430,1.46587,,,,,0,34,34,38,1,,,,,,,,,,,,,,,,,,,,,,,,,,,,,,,,,,,,,,,,,,,,,,,,,,,,,,,,
,,,,,,,,,,,,l,Incorrect,,,,,,t3.png,t2.png,1,0.90855,21,female,2020-09-28_13h19.17.225,torte-2b,2020.1.3,Win32,60,12430,0.678805,,,,,0,35,35,18,1,,,,,,,,,,,,,,,,,,,,,,,,,,,,,,,,,,,,,,,,,,,,,,,,,,,,,,,,
,,,,,,,,,,,,a,Incorrect,,,,,,t2.png,t4.png,2,0.059078,21,female,2020-09-28_13h19.17.225,torte-2b,2020.1.3,Win32,60,12430,0.77232,,,,,0,36,36,24,1,,,,,,,,,,,,,,,,,,,,,,,,,,,,,,,,,,,,,,,,,,,,,,,,,,,,,,,,
,,,,,,,,,,,,a,Correct!,,,,,,t4.png,t4.png,0,0.98115,21,female,2020-09-28_13h19.17.225,torte-2b,2020.1.3,Win32,60,12430,0.92996,,,,,0,37,37,90,1,,,,,,,,,,,,,,,,,,,,,,,,,,,,,,,,,,,,,,,,,,,,,,,,,,,,,,,,
,,,,,,,,,,,,l,Correct!,,,,,,t2.png,t4.png,2,0.059078,21,female,2020-09-28_13h19.17.225,torte-2b,2020.1.3,Win32,60,12430,0.78327,,,,,0,38,38,11,1,,,,,,,,,,,,,,,,,,,,,,,,,,,,,,,,,,,,,,,,,,,,,,,,,,,,,,,,
,,,,,,,,,,,,l,Correct!,,,,,,t1.png,t3.png,2,0.056466,21,female,2020-09-28_13h19.17.225,torte-2b,2020.1.3,Win32,60,12430,0.61292,,,,,0,39,39,60,1,,,,,,,,,,,,,,,,,,,,,,,,,,,,,,,,,,,,,,,,,,,,,,,,,,,,,,,,
,,,,,,,,,,,,l,Correct!,,,,,,t1.png,t5.png,4,9.55E-11,21,female,2020-09-28_13h19.17.225,torte-2b,2020.1.3,Win32,60,12430,1.14686,,,,,0,40,40,12,1,,,,,,,,,,,,,,,,,,,,,,,,,,,,,,,,,,,,,,,,,,,,,,,,,,,,,,,,
,,,,,,,,,,,,a,Correct!,,,,,,t5.png,t5.png,0,0.97829,21,female,2020-09-28_13h19.17.225,torte-2b,2020.1.3,Win32,60,12430,0.65179,,,,,0,41,41,73,1,,,,,,,,,,,,,,,,,,,,,,,,,,,,,,,,,,,,,,,,,,,,,,,,,,,,,,,,
,,,,,,,,,,,,a,Incorrect,,,,,,t3.png,t5.png,2,0.056466,21,female,2020-09-28_13h19.17.225,torte-2b,2020.1.3,Win32,60,12430,0.78118,,,,,0,42,42,14,1,,,,,,,,,,,,,,,,,,,,,,,,,,,,,,,,,,,,,,,,,,,,,,,,,,,,,,,,
,,,,,,,,,,,,a,Correct!,,,,,,t4.png,t5.png,1,0.90025,21,female,2020-09-28_13h19.17.225,torte-2b,2020.1.3,Win32,60,12430,0.609275,,,,,0,43,43,103,1,,,,,,,,,,,,,,,,,,,,,,,,,,,,,,,,,,,,,,,,,,,,,,,,,,,,,,,,
,,,,,,,,,,,,l,Incorrect,,,,,,t2.png,t3.png,1,0.909,21,female,2020-09-28_13h19.17.225,torte-2b,2020.1.3,Win32,60,12430,0.849085,,,,,0,44,44,74,1,,,,,,,,,,,,,,,,,,,,,,,,,,,,,,,,,,,,,,,,,,,,,,,,,,,,,,,,
,,,,,,,,,,,,a,Incorrect,,,,,,t4.png,t1.png,3,0.0000131,21,female,2020-09-28_13h19.17.225,torte-2b,2020.1.3,Win32,60,12430,1.33512,,,,,0,45,45,61,1,,,,,,,,,,,,,,,,,,,,,,,,,,,,,,,,,,,,,,,,,,,,,,,,,,,,,,,,
,,,,,,,,,,,,l,Correct!,,,,,,t1.png,t4.png,3,0.0000131,21,female,2020-09-28_13h19.17.225,torte-2b,2020.1.3,Win32,60,12430,0.83431,,,,,0,46,46,92,1,,,,,,,,,,,,,,,,,,,,,,,,,,,,,,,,,,,,,,,,,,,,,,,,,,,,,,,,
,,,,,,,,,,,,a,Correct!,,,,,,t3.png,t4.png,1,0.90855,21,female,2020-09-28_13h19.17.225,torte-2b,2020.1.3,Win32,60,12430,0.899905,,,,,0,47,47,96,1,,,,,,,,,,,,,,,,,,,,,,,,,,,,,,,,,,,,,,,,,,,,,,,,,,,,,,,,
,,,,,,,,,,,,l,Incorrect,,,,,,t4.png,t5.png,1,0.90025,21,female,2020-09-28_13h19.17.225,torte-2b,2020.1.3,Win32,60,12430,0.954205,,,,,0,48,48,58,1,,,,,,,,,,,,,,,,,,,,,,,,,,,,,,,,,,,,,,,,,,,,,,,,,,,,,,,,
,,,,,,,,,,,,a,Incorrect,,,,,,t3.png,t1.png,2,0.0565,21,female,2020-09-28_13h19.17.225,torte-2b,2020.1.3,Win32,60,12430,0.74228,,,,,0,49,49,31,1,,,,,,,,,,,,,,,,,,,,,,,,,,,,,,,,,,,,,,,,,,,,,,,,,,,,,,,,
,,,,,,,,,,,,a,Incorrect,,,,,,t2.png,t5.png,3,0.0000131,21,female,2020-09-28_13h19.17.225,torte-2b,2020.1.3,Win32,60,12430,1.173995,,,,,0,50,50,104,1,,,,,,,,,,,,,,,,,,,,,,,,,,,,,,,,,,,,,,,,,,,,,,,,,,,,,,,,
,,,,,,,,,,,,a,Correct!,,,,,,t4.png,t3.png,1,0.90855,21,female,2020-09-28_13h19.17.225,torte-2b,2020.1.3,Win32,60,12430,0.714805,,,,,0,51,51,45,1,,,,,,,,,,,,,,,,,,,,,,,,,,,,,,,,,,,,,,,,,,,,,,,,,,,,,,,,
,,,,,,,,,,,,a,Incorrect,,,,,,t4.png,t2.png,2,0.059078,21,female,2020-09-28_13h19.17.225,torte-2b,2020.1.3,Win32,60,12430,1.01804,,,,,0,52,52,88,1,,,,,,,,,,,,,,,,,,,,,,,,,,,,,,,,,,,,,,,,,,,,,,,,,,,,,,,,
,,,,,,,,,,,,a,Incorrect,,,,,,t3.png,t5.png,2,0.056466,21,female,2020-09-28_13h19.17.225,torte-2b,2020.1.3,Win32,60,12430,0.998545,,,,,0,53,53,6,1,,,,,,,,,,,,,,,,,,,,,,,,,,,,,,,,,,,,,,,,,,,,,,,,,,,,,,,,
,,,,,,,,,,,,l,Correct!,,,,,,t5.png,t3.png,2,0.0565,21,female,2020-09-28_13h19.17.225,torte-2b,2020.1.3,Win32,60,12430,0.768435,,,,,0,54,54,39,1,,,,,,,,,,,,,,,,,,,,,,,,,,,,,,,,,,,,,,,,,,,,,,,,,,,,,,,,
,,,,,,,,,,,,l,Correct!,,,,,,t5.png,t1.png,4,9.55E-11,21,female,2020-09-28_13h19.17.225,torte-2b,2020.1.3,Win32,60,12430,1.38487,,,,,0,55,55,71,1,,,,,,,,,,,,,,,,,,,,,,,,,,,,,,,,,,,,,,,,,,,,,,,,,,,,,,,,
,,,,,,,,,,,,a,Incorrect,,,,,,t1.png,t5.png,4,9.55E-11,21,female,2020-09-28_13h19.17.225,torte-2b,2020.1.3,Win32,60,12430,0.855,,,,,0,56,56,55,1,,,,,,,,,,,,,,,,,,,,,,,,,,,,,,,,,,,,,,,,,,,,,,,,,,,,,,,,
,,,,,,,,,,,,l,Incorrect,,,,,,t1.png,t2.png,1,0.90025,21,female,2020-09-28_13h19.17.225,torte-2b,2020.1.3,Win32,60,12430,1.442335,,,,,0,57,57,33,1,,,,,,,,,,,,,,,,,,,,,,,,,,,,,,,,,,,,,,,,,,,,,,,,,,,,,,,,
,,,,,,,,,,,,l,Incorrect,,,,,,t1.png,t1.png,0,0.978,21,female,2020-09-28_13h19.17.225,torte-2b,2020.1.3,Win32,60,12430,1.11365,,,,,0,58,58,28,1,,,,,,,,,,,,,,,,,,,,,,,,,,,,,,,,,,,,,,,,,,,,,,,,,,,,,,,,
,,,,,,,,,,,,l,Correct!,,,,,,t1.png,t3.png,2,0.056466,21,female,2020-09-28_13h19.17.225,torte-2b,2020.1.3,Win32,60,12430,0.86857,,,,,0,59,59,69,1,,,,,,,,,,,,,,,,,,,,,,,,,,,,,,,,,,,,,,,,,,,,,,,,,,,,,,,,
,,,,,,,,,,,,l,Correct!,,,,,,t2.png,t3.png,1,0.90855,21,female,2020-09-28_13h19.17.225,torte-2b,2020.1.3,Win32,60,12430,0.849285,,,,,0,60,60,10,1,,,,,,,,,,,,,,,,,,,,,,,,,,,,,,,,,,,,,,,,,,,,,,,,,,,,,,,,
,,,,,,,,,,,,a,Correct!,,,,,,t3.png,t2.png,1,0.909,21,female,2020-09-28_13h19.17.225,torte-2b,2020.1.3,Win32,60,12430,0.571935,,,,,0,61,61,23,1,,,,,,,,,,,,,,,,,,,,,,,,,,,,,,,,,,,,,,,,,,,,,,,,,,,,,,,,
,,,,,,,,,,,,a,Incorrect,,,,,,t2.png,t5.png,3,0.0000131,21,female,2020-09-28_13h19.17.225,torte-2b,2020.1.3,Win32,60,12430,0.868135,,,,,0,62,62,8,1,,,,,,,,,,,,,,,,,,,,,,,,,,,,,,,,,,,,,,,,,,,,,,,,,,,,,,,,
,,,,,,,,,,,,a,Correct!,,,,,,t2.png,t2.png,0,0.98115,21,female,2020-09-28_13h19.17.225,torte-2b,2020.1.3,Win32,60,12430,0.716745,,,,,0,63,63,2,1,,,,,,,,,,,,,,,,,,,,,,,,,,,,,,,,,,,,,,,,,,,,,,,,,,,,,,,,
,,,,,,,,,,,,l,Incorrect,,,,,,t2.png,t1.png,1,0.90025,21,female,2020-09-28_13h19.17.225,torte-2b,2020.1.3,Win32,60,12430,0.54437,,,,,0,64,64,5,1,,,,,,,,,,,,,,,,,,,,,,,,,,,,,,,,,,,,,,,,,,,,,,,,,,,,,,,,
,,,,,,,,,,,,a,Incorrect,,,,,,t5.png,t2.png,3,0.0000131,21,female,2020-09-28_13h19.17.225,torte-2b,2020.1.3,Win32,60,12430,0.89949,,,,,0,65,65,91,1,,,,,,,,,,,,,,,,,,,,,,,,,,,,,,,,,,,,,,,,,,,,,,,,,,,,,,,,
,,,,,,,,,,,,a,Correct!,,,,,,t4.png,t4.png,0,0.98115,21,female,2020-09-28_13h19.17.225,torte-2b,2020.1.3,Win32,60,12430,0.68789,,,,,0,66,66,21,1,,,,,,,,,,,,,,,,,,,,,,,,,,,,,,,,,,,,,,,,,,,,,,,,,,,,,,,,
,,,,,,,,,,,,a,Correct!,,,,,,t2.png,t3.png,1,0.90855,21,female,2020-09-28_13h19.17.225,torte-2b,2020.1.3,Win32,60,12430,0.861375,,,,,0,67,67,65,1,,,,,,,,,,,,,,,,,,,,,,,,,,,,,,,,,,,,,,,,,,,,,,,,,,,,,,,,
,,,,,,,,,,,,l,Correct!,,,,,,t4.png,t1.png,3,0.0000131,21,female,2020-09-28_13h19.17.225,torte-2b,2020.1.3,Win32,60,12430,0.98242,,,,,0,68,68,48,1,,,,,,,,,,,,,,,,,,,,,,,,,,,,,,,,,,,,,,,,,,,,,,,,,,,,,,,,
,,,,,,,,,,,,l,Incorrect,,,,,,t1.png,t2.png,1,0.90025,21,female,2020-09-28_13h19.17.225,torte-2b,2020.1.3,Win32,60,12430,0.702815,,,,,0,69,69,105,1,,,,,,,,,,,,,,,,,,,,,,,,,,,,,,,,,,,,,,,,,,,,,,,,,,,,,,,,
,,,,,,,,,,,,a,Incorrect,,,,,,t1.png,t4.png,3,0.0000131,21,female,2020-09-28_13h19.17.225,torte-2b,2020.1.3,Win32,60,12430,0.895345,,,,,0,70,70,107,1,,,,,,,,,,,,,,,,,,,,,,,,,,,,,,,,,,,,,,,,,,,,,,,,,,,,,,,,
,,,,,,,,,,,,l,Correct!,,,,,,t5.png,t1.png,4,9.55E-11,21,female,2020-09-28_13h19.17.225,torte-2b,2020.1.3,Win32,60,12430,0.953745,,,,,0,71,71,100,1,,,,,,,,,,,,,,,,,,,,,,,,,,,,,,,,,,,,,,,,,,,,,,,,,,,,,,,,
,,,,,,,,,,,,l,Correct!,,,,,,t1.png,t5.png,4,9.55E-11,21,female,2020-09-28_13h19.17.225,torte-2b,2020.1.3,Win32,60,12430,1.18626,,,,,0,72,72,16,1,,,,,,,,,,,,,,,,,,,,,,,,,,,,,,,,,,,,,,,,,,,,,,,,,,,,,,,,
,,,,,,,,,,,,a,Incorrect,,,,,,t5.png,t1.png,4,9.55E-11,21,female,2020-09-28_13h19.17.225,torte-2b,2020.1.3,Win32,60,12430,0.95582,,,,,0,73,73,43,1,,,,,,,,,,,,,,,,,,,,,,,,,,,,,,,,,,,,,,,,,,,,,,,,,,,,,,,,
,,,,,,,,,,,,a,Incorrect,,,,,,t4.png,t2.png,2,0.059078,21,female,2020-09-28_13h19.17.225,torte-2b,2020.1.3,Win32,60,12430,1.61258,,,,,0,74,74,110,1,,,,,,,,,,,,,,,,,,,,,,,,,,,,,,,,,,,,,,,,,,,,,,,,,,,,,,,,
,,,,,,,,,,,,a,Incorrect,,,,,,t3.png,t5.png,2,0.0565,21,female,2020-09-28_13h19.17.225,torte-2b,2020.1.3,Win32,60,12430,1.68067,,,,,0,75,75,30,1,,,,,,,,,,,,,,,,,,,,,,,,,,,,,,,,,,,,,,,,,,,,,,,,,,,,,,,,
,,,,,,,,,,,,a,Incorrect,,,,,,t5.png,t2.png,3,0.0000131,21,female,2020-09-28_13h19.17.225,torte-2b,2020.1.3,Win32,60,12430,1.2241,,,,,0,76,76,51,1,,,,,,,,,,,,,,,,,,,,,,,,,,,,,,,,,,,,,,,,,,,,,,,,,,,,,,,,
,,,,,,,,,,,,l,Correct!,,,,,,t1.png,t3.png,2,0.056466,21,female,2020-09-28_13h19.17.225,torte-2b,2020.1.3,Win32,60,12430,0.979045,,,,,0,77,77,99,1,,,,,,,,,,,,,,,,,,,,,,,,,,,,,,,,,,,,,,,,,,,,,,,,,,,,,,,,
,,,,,,,,,,,,a,Incorrect,,,,,,t3.png,t4.png,1,0.909,21,female,2020-09-28_13h19.17.225,torte-2b,2020.1.3,Win32,60,12430,1.51988,,,,,0,78,78,106,1,,,,,,,,,,,,,,,,,,,,,,,,,,,,,,,,,,,,,,,,,,,,,,,,,,,,,,,,
,,,,,,,,,,,,l,Incorrect,,,,,,t1.png,t1.png,0,0.97829,21,female,2020-09-28_13h19.17.225,torte-2b,2020.1.3,Win32,60,12430,0.80418,,,,,0,79,79,78,1,,,,,,,,,,,,,,,,,,,,,,,,,,,,,,,,,,,,,,,,,,,,,,,,,,,,,,,,
,,,,,,,,,,,,a,Incorrect,,,,,,t4.png,t2.png,2,0.0591,21,female,2020-09-28_13h19.17.225,torte-2b,2020.1.3,Win32,60,12430,1.22504,,,,,0,80,80,36,1,,,,,,,,,,,,,,,,,,,,,,,,,,,,,,,,,,,,,,,,,,,,,,,,,,,,,,,,
,,,,,,,,,,,,l,Incorrect,,,,,,t2.png,t2.png,0,0.98115,21,female,2020-09-28_13h19.17.225,torte-2b,2020.1.3,Win32,60,12430,1.04121,,,,,0,81,81,7,1,,,,,,,,,,,,,,,,,,,,,,,,,,,,,,,,,,,,,,,,,,,,,,,,,,,,,,,,
,,,,,,,,,,,,l,Incorrect,,,,,,t2.png,t3.png,1,0.90855,21,female,2020-09-28_13h19.17.225,torte-2b,2020.1.3,Win32,60,12430,1.269035,,,,,0,82,82,111,1,,,,,,,,,,,,,,,,,,,,,,,,,,,,,,,,,,,,,,,,,,,,,,,,,,,,,,,,
,,,,,,,,,,,,a,Correct!,,,,,,t5.png,t5.png,0,0.978,21,female,2020-09-28_13h19.17.225,torte-2b,2020.1.3,Win32,60,12430,1.131275,,,,,0,83,83,117,1,,,,,,,,,,,,,,,,,,,,,,,,,,,,,,,,,,,,,,,,,,,,,,,,,,,,,,,,
,,,,,,,,,,,,a,Correct!,,,,,,t5.png,t4.png,1,0.90025,21,female,2020-09-28_13h19.17.225,torte-2b,2020.1.3,Win32,60,12430,1.034,,,,,0,84,84,27,1,,,,,,,,,,,,,,,,,,,,,,,,,,,,,,,,,,,,,,,,,,,,,,,,,,,,,,,,
,,,,,,,,,,,,l,Incorrect,,,,,,t2.png,t2.png,0,0.98115,21,female,2020-09-28_13h19.17.225,torte-2b,2020.1.3,Win32,60,12430,2.089555,,,,,0,85,85,57,1,,,,,,,,,,,,,,,,,,,,,,,,,,,,,,,,,,,,,,,,,,,,,,,,,,,,,,,,
,,,,,,,,,,,,l,Correct!,,,,,,t2.png,t1.png,1,0.90025,21,female,2020-09-28_13h19.17.225,torte-2b,2020.1.3,Win32,60,12430,1.17471,,,,,0,86,86,62,1,,,,,,,,,,,,,,,,,,,,,,,,,,,,,,,,,,,,,,,,,,,,,,,,,,,,,,,,
,,,,,,,,,,,,l,Correct!,,,,,,t5.png,t3.png,2,0.056466,21,female,2020-09-28_13h19.17.225,torte-2b,2020.1.3,Win32,60,12430,2.237665,,,,,0,87,87,114,1,,,,,,,,,,,,,,,,,,,,,,,,,,,,,,,,,,,,,,,,,,,,,,,,,,,,,,,,
,,,,,,,,,,,,l,Correct!,,,,,,t3.png,t1.png,2,0.056466,21,female,2020-09-28_13h19.17.225,torte-2b,2020.1.3,Win32,60,12430,1.187855,,,,,0,88,88,0,1,,,,,,,,,,,,,,,,,,,,,,,,,,,,,,,,,,,,,,,,,,,,,,,,,,,,,,,,
,,,,,,,,,,,,l,Correct!,,,,,,t3.png,t5.png,2,0.0565,21,female,2020-09-28_13h19.17.225,torte-2b,2020.1.3,Win32,60,12430,1.47875,,,,,0,89,89,83,1,,,,,,,,,,,,,,,,,,,,,,,,,,,,,,,,,,,,,,,,,,,,,,,,,,,,,,,,
,,,,,,,,,,,,l,Correct!,,,,,,t5.png,t1.png,4,9.55E-11,21,female,2020-09-28_13h19.17.225,torte-2b,2020.1.3,Win32,60,12430,1.280685,,,,,0,90,90,22,1,,,,,,,,,,,,,,,,,,,,,,,,,,,,,,,,,,,,,,,,,,,,,,,,,,,,,,,,
,,,,,,,,,,,,l,Incorrect,,,,,,t1.png,t2.png,1,0.9,21,female,2020-09-28_13h19.17.225,torte-2b,2020.1.3,Win32,60,12430,1.06749,,,,,0,91,91,1,1,,,,,,,,,,,,,,,,,,,,,,,,,,,,,,,,,,,,,,,,,,,,,,,,,,,,,,,,
,,,,,,,,,,,,l,Correct!,,,,,,t2.png,t5.png,3,0.0000131,21,female,2020-09-28_13h19.17.225,torte-2b,2020.1.3,Win32,60,12430,1.7549,,,,,0,92,92,40,1,,,,,,,,,,,,,,,,,,,,,,,,,,,,,,,,,,,,,,,,,,,,,,,,,,,,,,,,
,,,,,,,,,,,,l,Incorrect,,,,,,t3.png,t2.png,1,0.90855,21,female,2020-09-28_13h19.17.225,torte-2b,2020.1.3,Win32,60,12430,1.269805,,,,,0,93,93,97,1,,,,,,,,,,,,,,,,,,,,,,,,,,,,,,,,,,,,,,,,,,,,,,,,,,,,,,,,
,,,,,,,,,,,,l,Correct!,,,,,,t2.png,t5.png,3,0.0000131,21,female,2020-09-28_13h19.17.225,torte-2b,2020.1.3,Win32,60,12430,1.53064,,,,,0,94,94,95,1,,,,,,,,,,,,,,,,,,,,,,,,,,,,,,,,,,,,,,,,,,,,,,,,,,,,,,,,
,,,,,,,,,,,,,Too slow :(,,,,,,t5.png,t4.png,1,0.9,21,female,2020-09-28_13h19.17.225,torte-2b,2020.1.3,Win32,60,12430,,,,,,0,95,95,49,1,,,,,,,,,,,,,,,,,,,,,,,,,,,,,,,,,,,,,,,,,,,,,,,,,,,,,,,,
,,,,,,,,,,,,l,Incorrect,,,,,,t4.png,t3.png,1,0.90855,21,female,2020-09-28_13h19.17.225,torte-2b,2020.1.3,Win32,60,12430,1.107475,,,,,0,96,96,75,1,,,,,,,,,,,,,,,,,,,,,,,,,,,,,,,,,,,,,,,,,,,,,,,,,,,,,,,,
,,,,,,,,,,,,l,Incorrect,,,,,,t3.png,t1.png,2,0.056466,21,female,2020-09-28_13h19.17.225,torte-2b,2020.1.3,Win32,60,12430,0.903865,,,,,0,97,97,29,1,,,,,,,,,,,,,,,,,,,,,,,,,,,,,,,,,,,,,,,,,,,,,,,,,,,,,,,,
,,,,,,,,,,,,a,Correct!,,,,,,t4.png,t5.png,1,0.90025,21,female,2020-09-28_13h19.17.225,torte-2b,2020.1.3,Win32,60,12430,0.5501,,,,,0,98,98,113,1,,,,,,,,,,,,,,,,,,,,,,,,,,,,,,,,,,,,,,,,,,,,,,,,,,,,,,,,
,,,,,,,,,,,,a,Incorrect,,,,,,t2.png,t5.png,3,0.0000131,21,female,2020-09-28_13h19.17.225,torte-2b,2020.1.3,Win32,60,12430,1.91674,,,,,0,99,99,66,1,,,,,,,,,,,,,,,,,,,,,,,,,,,,,,,,,,,,,,,,,,,,,,,,,,,,,,,,
,,,,,,,,,,,,a,Incorrect,,,,,,t2.png,t4.png,2,0.0591,21,female,2020-09-28_13h19.17.225,torte-2b,2020.1.3,Win32,60,12430,1.45862,,,,,0,100,100,15,1,,,,,,,,,,,,,,,,,,,,,,,,,,,,,,,,,,,,,,,,,,,,,,,,,,,,,,,,
,,,,,,,,,,,,l,Correct!,,,,,,t1.png,t3.png,2,0.056466,21,female,2020-09-28_13h19.17.225,torte-2b,2020.1.3,Win32,60,12430,1.21254,,,,,0,101,101,63,1,,,,,,,,,,,,,,,,,,,,,,,,,,,,,,,,,,,,,,,,,,,,,,,,,,,,,,,,
,,,,,,,,,,,,,Too slow :(,,,,,,t2.png,t2.png,0,0.98115,21,female,2020-09-28_13h19.17.225,torte-2b,2020.1.3,Win32,60,12430,,,,,,0,102,102,59,1,,,,,,,,,,,,,,,,,,,,,,,,,,,,,,,,,,,,,,,,,,,,,,,,,,,,,,,,
,,,,,,,,,,,,l,Correct!,,,,,,t4.png,t2.png,2,0.059078,21,female,2020-09-28_13h19.17.225,torte-2b,2020.1.3,Win32,60,12430,1.25073,,,,,0,103,103,109,1,,,,,,,,,,,,,,,,,,,,,,,,,,,,,,,,,,,,,,,,,,,,,,,,,,,,,,,,
,,,,,,,,,,,,a,Incorrect,,,,,,t1.png,t4.png,3,0.0000131,21,female,2020-09-28_13h19.17.225,torte-2b,2020.1.3,Win32,60,12430,0.603735,,,,,0,104,104,50,1,,,,,,,,,,,,,,,,,,,,,,,,,,,,,,,,,,,,,,,,,,,,,,,,,,,,,,,,
,,,,,,,,,,,,l,Incorrect,,,,,,t3.png,t2.png,1,0.909,21,female,2020-09-28_13h19.17.225,torte-2b,2020.1.3,Win32,60,12430,1.18353,,,,,0,105,105,3,1,,,,,,,,,,,,,,,,,,,,,,,,,,,,,,,,,,,,,,,,,,,,,,,,,,,,,,,,
,,,,,,,,,,,,a,Correct!,,,,,,t3.png,t4.png,1,0.90855,21,female,2020-09-28_13h19.17.225,torte-2b,2020.1.3,Win32,60,12430,1.31965,,,,,0,106,106,84,1,,,,,,,,,,,,,,,,,,,,,,,,,,,,,,,,,,,,,,,,,,,,,,,,,,,,,,,,
,,,,,,,,,,,,a,Incorrect,,,,,,t2.png,t4.png,2,0.059078,21,female,2020-09-28_13h19.17.225,torte-2b,2020.1.3,Win32,60,12430,1.716935,,,,,0,107,107,77,1,,,,,,,,,,,,,,,,,,,,,,,,,,,,,,,,,,,,,,,,,,,,,,,,,,,,,,,,
,,,,,,,,,,,,a,Correct!,,,,,,t5.png,t4.png,1,0.9,21,female,2020-09-28_13h19.17.225,torte-2b,2020.1.3,Win32,60,12430,1.083025,,,,,0,108,108,76,1,,,,,,,,,,,,,,,,,,,,,,,,,,,,,,,,,,,,,,,,,,,,,,,,,,,,,,,,
,,,,,,,,,,,,l,Correct!,,,,,,t3.png,t1.png,2,0.056466,21,female,2020-09-28_13h19.17.225,torte-2b,2020.1.3,Win32,60,12430,0.930485,,,,,0,109,109,32,1,,,,,,,,,,,,,,,,,,,,,,,,,,,,,,,,,,,,,,,,,,,,,,,,,,,,,,,,
,,,,,,,,,,,,a,Correct!,,,,,,t4.png,t4.png,0,0.98115,21,female,2020-09-28_13h19.17.225,torte-2b,2020.1.3,Win32,60,12430,1.063715,,,,,0,110,110,80,1,,,,,,,,,,,,,,,,,,,,,,,,,,,,,,,,,,,,,,,,,,,,,,,,,,,,,,,,
,,,,,,,,,,,,l,Correct!,,,,,,t3.png,t1.png,2,0.056466,21,female,2020-09-28_13h19.17.225,torte-2b,2020.1.3,Win32,60,12430,1.12671,,,,,0,111,111,64,1,,,,,,,,,,,,,,,,,,,,,,,,,,,,,,,,,,,,,,,,,,,,,,,,,,,,,,,,
,,,,,,,,,,,,a,Incorrect,,,,,,t4.png,t1.png,3,0.0000131,21,female,2020-09-28_13h19.17.225,torte-2b,2020.1.3,Win32,60,12430,0.60644,,,,,0,112,112,93,1,,,,,,,,,,,,,,,,,,,,,,,,,,,,,,,,,,,,,,,,,,,,,,,,,,,,,,,,
,,,,,,,,,,,,a,Correct!,,,,,,t5.png,t4.png,1,0.90025,21,female,2020-09-28_13h19.17.225,torte-2b,2020.1.3,Win32,60,12430,0.63051,,,,,0,113,113,34,1,,,,,,,,,,,,,,,,,,,,,,,,,,,,,,,,,,,,,,,,,,,,,,,,,,,,,,,,
,,,,,,,,,,,,a,Correct!,,,,,,t3.png,t4.png,1,0.909,21,female,2020-09-28_13h19.17.225,torte-2b,2020.1.3,Win32,60,12430,2.11834,,,,,0,114,114,82,1,,,,,,,,,,,,,,,,,,,,,,,,,,,,,,,,,,,,,,,,,,,,,,,,,,,,,,,,
,,,,,,,,,,,,a,Correct!,,,,,,t5.png,t5.png,0,0.97829,21,female,2020-09-28_13h19.17.225,torte-2b,2020.1.3,Win32,60,12430,1.66933,,,,,0,115,115,70,1,,,,,,,,,,,,,,,,,,,,,,,,,,,,,,,,,,,,,,,,,,,,,,,,,,,,,,,,
,,,,,,,,,,,,l,Correct!,,,,,,t1.png,t4.png,3,0.0000131,21,female,2020-09-28_13h19.17.225,torte-2b,2020.1.3,Win32,60,12430,1.076935,,,,,0,116,116,17,1,,,,,,,,,,,,,,,,,,,,,,,,,,,,,,,,,,,,,,,,,,,,,,,,,,,,,,,,
,,,,,,,,,,,,a,Correct!,,,,,,t3.png,t2.png,1,0.90855,21,female,2020-09-28_13h19.17.225,torte-2b,2020.1.3,Win32,60,12430,1.83481,,,,,0,117,117,53,1,,,,,,,,,,,,,,,,,,,,,,,,,,,,,,,,,,,,,,,,,,,,,,,,,,,,,,,,
,,,,,,,,,,,,l,Incorrect,,,,,,t1.png,t2.png,1,0.90025,21,female,2020-09-28_13h19.17.225,torte-2b,2020.1.3,Win32,60,12430,1.031885,,,,,0,118,118,72,1,,,,,,,,,,,,,,,,,,,,,,,,,,,,,,,,,,,,,,,,,,,,,,,,,,,,,,,,
,,,,,,,,,,,,a,Correct!,,,,,,t4.png,t4.png,0,0.98115,21,female,2020-09-28_13h19.17.225,torte-2b,2020.1.3,Win32,60,12430,0.67425,,,,,0,119,119,79,1,,,,,,,,,,,,,,,,,,,,,,,,,,,,,,,,,,,,,,,,,,,,,,,,,,,,,,,,
,,,,,,,,,,,,,,,,,,,,,,,21,female,2020-09-28_13h19.17.225,torte-2b,2020.1.3,Win32,60,12430,,space,1.58255,,,,,,,,space,24.735565,,0,0,0,0,1,6,,,,,,,,,,,,,,,,,,,,,,,,,,,,,,,,,,,,,,,,,,,,,,,
,,,,,,,,,,,,,,,,,,,,,,,21,female,2020-09-28_13h19.17.225,torte-2b,2020.1.3,Win32,60,12430,,,,,,,,,,,,,,0,1,1,1,1,7,,,,,,,,,,,,,,,,,,,,,,,,,,,,,,,,,,,,,,,,,,,,,,,
,,,,,,,,,,,,,,,,,,,,,,,21,female,2020-09-28_13h19.17.225,torte-2b,2020.1.3,Win32,60,12430,,,,,,,,,,,,,space,0,2,2,2,1,6,0.48446,,,,,,,,,,,,,,,,,,,,,,,,,,,,,,,,,,,,,,,,,,,,,,
,,,,,,,,,,,,,,,,,,,,,,,21,female,2020-09-28_13h19.17.225,torte-2b,2020.1.3,Win32,60,12430,,,,,,,,,,,,,space,0,3,3,3,1,7,0.53138,,,,,,,,,,,,,,,,,,,,,,,,,,,,,,,,,,,,,,,,,,,,,,
,,,,,,,,,,,,,,,,,,,,,,,21,female,2020-09-28_13h19.17.225,torte-2b,2020.1.3,Win32,60,12430,,,,,,,,,,,,,,0,4,4,4,1,5,,,,,,,,,,,,,,,,,,,,,,,,,,,,,,,,,,,,,,,,,,,,,,,
,,,,,,,,,,,,,,,,,,,,,,,21,female,2020-09-28_13h19.17.225,torte-2b,2020.1.3,Win32,60,12430,,,,,,,,,,,,,space,0,5,5,5,1,7,0.47702,,,,,,,,,,,,,,,,,,,,,,,,,,,,,,,,,,,,,,,,,,,,,,
,,,,,,,,,,,,,,,,,,,,,,,21,female,2020-09-28_13h19.17.225,torte-2b,2020.1.3,Win32,60,12430,,,,,,,,,,,,,,0,6,6,6,1,2,,,,,,,,,,,,,,,,,,,,,,,,,,,,,,,,,,,,,,,,,,,,,,,
,,,,,,,,,,,,,,,,,,,,,,,21,female,2020-09-28_13h19.17.225,torte-2b,2020.1.3,Win32,60,12430,,,,,,,,,,,,,,0,7,7,7,1,4,,,,,,,,,,,,,,,,,,,,,,,,,,,,,,,,,,,,,,,,,,,,,,,
,,,,,,,,,,,,,,,,,,,,,,,21,female,2020-09-28_13h19.17.225,torte-2b,2020.1.3,Win32,60,12430,,,,,,,,,,,,,,0,8,8,8,1,7,,,,,,,,,,,,,,,,,,,,,,,,,,,,,,,,,,,,,,,,,,,,,,,
,,,,,,,,,,,,,,,,,,,,,,,21,female,2020-09-28_13h19.17.225,torte-2b,2020.1.3,Win32,60,12430,,,,,,,,,,,,,space,0,9,9,9,1,4,0.475325,,,,,,,,,,,,,,,,,,,,,,,,,,,,,,,,,,,,,,,,,,,,,,
,,,,,,,,,,,,,,,,,,,,,,,21,female,2020-09-28_13h19.17.225,torte-2b,2020.1.3,Win32,60,12430,,,,,,,,,,,,,space,0,10,10,10,1,7,0.692465,,,,,,,,,,,,,,,,,,,,,,,,,,,,,,,,,,,,,,,,,,,,,,
,,,,,,,,,,,,,,,,,,,,,,,21,female,2020-09-28_13h19.17.225,torte-2b,2020.1.3,Win32,60,12430,,,,,,,,,,,,,,0,11,11,11,1,7,,,,,,,,,,,,,,,,,,,,,,,,,,,,,,,,,,,,,,,,,,,,,,,
,,,,,,,,,,,,,,,,,,,,,,,21,female,2020-09-28_13h19.17.225,torte-2b,2020.1.3,Win32,60,12430,,,,,,,,,,,,,space,0,12,12,12,1,7,0.396505,,,,,,,,,,,,,,,,,,,,,,,,,,,,,,,,,,,,,,,,,,,,,,
,,,,,,,,,,,,,,,,,,,,,,,21,female,2020-09-28_13h19.17.225,torte-2b,2020.1.3,Win32,60,12430,,,,,,,,,,,,,,0,13,13,13,1,4,,,,,,,,,,,,,,,,,,,,,,,,,,,,,,,,,,,,,,,,,,,,,,,
,,,,,,,,,,,,,,,,,,,,,,,21,female,2020-09-28_13h19.17.225,torte-2b,2020.1.3,Win32,60,12430,,,,,,,,,,,,,,0,14,14,14,1,6,,,,,,,,,,,,,,,,,,,,,,,,,,,,,,,,,,,,,,,,,,,,,,,
,,,,,,,,,,,,,,,,,,,,,,,21,female,2020-09-28_13h19.17.225,torte-2b,2020.1.3,Win32,60,12430,,,,,,,,,,,,,space,0,15,15,15,1,4,0.3184,,,,,,,,,,,,,,,,,,,,,,,,,,,,,,,,,,,,,,,,,,,,,,
,,,,,,,,,,,,,,,,,,,,,,,21,female,2020-09-28_13h19.17.225,torte-2b,2020.1.3,Win32,60,12430,,,,,,,,,,,,,space,0,16,16,16,1,6,0.37937,,,,,,,,,,,,,,,,,,,,,,,,,,,,,,,,,,,,,,,,,,,,,,
,,,,,,,,,,,,,,,,,,,,,,,21,female,2020-09-28_13h19.17.225,torte-2b,2020.1.3,Win32,60,12430,,,,,,,,,,,,,,0,17,17,17,1,7,,,,,,,,,,,,,,,,,,,,,,,,,,,,,,,,,,,,,,,,,,,,,,,
,,,,,,,,,,,,,,,,,,,,,,,21,female,2020-09-28_13h19.17.225,torte-2b,2020.1.3,Win32,60,12430,,,,,,,,,,,,,space,0,18,18,18,1,6,0.431095,,,,,,,,,,,,,,,,,,,,,,,,,,,,,,,,,,,,,,,,,,,,,,
,,,,,,,,,,,,,,,,,,,,,,,21,female,2020-09-28_13h19.17.225,torte-2b,2020.1.3,Win32,60,12430,,,,,,,,,,,,,space,0,19,19,19,1,7,0.36075,,,,,,,,,,,,,,,,,,,,,,,,,,,,,,,,,,,,,,,,,,,,,,
,,,,,,,,,,,,,,,,,,,,,,,21,female,2020-09-28_13h19.17.225,torte-2b,2020.1.3,Win32,60,12430,,,,,,,,,,,,,,0,20,20,20,1,5,,,,,,,,,,,,,,,,,,,,,,,,,,,,,,,,,,,,,,,,,,,,,,,
,,,,,,,,,,,,,,,,,,,,,,,21,female,2020-09-28_13h19.17.225,torte-2b,2020.1.3,Win32,60,12430,,,,,,,,,,,,,,0,21,21,21,1,1,,,,,,,,,,,,,,,,,,,,,,,,,,,,,,,,,,,,,,,,,,,,,,,
,,,,,,,,,,,,,,,,,,,,,,,21,female,2020-09-28_13h19.17.225,torte-2b,2020.1.3,Win32,60,12430,,,,,,,,,,,,,,0,22,22,22,1,6,,,,,,,,,,,,,,,,,,,,,,,,,,,,,,,,,,,,,,,,,,,,,,,
,,,,,,,,,,,,,,,,,,,,,,,21,female,2020-09-28_13h19.17.225,torte-2b,2020.1.3,Win32,60,12430,,,,,,,,,,,,,space,0,23,23,23,1,1,0.41494,,,,,,,,,,,,,,,,,,,,,,,,,,,,,,,,,,,,,,,,,,,,,,
,,,,,,,,,,,,,,,,,,,,,,,21,female,2020-09-28_13h19.17.225,torte-2b,2020.1.3,Win32,60,12430,,,,,,,,,,,,,,0,24,24,24,1,5,,,,,,,,,,,,,,,,,,,,,,,,,,,,,,,,,,,,,,,,,,,,,,,
,,,,,,,,,,,,,,,,,,,,,,,21,female,2020-09-28_13h19.17.225,torte-2b,2020.1.3,Win32,60,12430,,,,,,,,,,,,,,0,25,25,25,1,6,,,,,,,,,,,,,,,,,,,,,,,,,,,,,,,,,,,,,,,,,,,,,,,
,,,,,,,,,,,,,,,,,,,,,,,21,female,2020-09-28_13h19.17.225,torte-2b,2020.1.3,Win32,60,12430,,,,,,,,,,,,,,0,26,26,26,1,6,,,,,,,,,,,,,,,,,,,,,,,,,,,,,,,,,,,,,,,,,,,,,,,
,,,,,,,,,,,,,,,,,,,,,,,21,female,2020-09-28_13h19.17.225,torte-2b,2020.1.3,Win32,60,12430,,,,,,,,,,,,,space,0,27,27,27,1,6,0.416415,,,,,,,,,,,,,,,,,,,,,,,,,,,,,,,,,,,,,,,,,,,,,,
,,,,,,,,,,,,,,,,,,,,,,,21,female,2020-09-28_13h19.17.225,torte-2b,2020.1.3,Win32,60,12430,,,,,,,,,,,,,,0,28,28,28,1,5,,,,,,,,,,,,,,,,,,,,,,,,,,,,,,,,,,,,,,,,,,,,,,,
,,,,,,,,,,,,,,,,,,,,,,,21,female,2020-09-28_13h19.17.225,torte-2b,2020.1.3,Win32,60,12430,,,,,,,,,,,,,,0,29,29,29,1,2,,,,,,,,,,,,,,,,,,,,,,,,,,,,,,,,,,,,,,,,,,,,,,,
,,,,,,,,,,,,,,,,,,,,,,,21,female,2020-09-28_13h19.17.225,torte-2b,2020.1.3,Win32,60,12430,,,,,,,,,,,,,space,0,30,30,30,1,5,0.393665,,,,,,,,,,,,,,,,,,,,,,,,,,,,,,,,,,,,,,,,,,,,,,
,,,,,,,,,,,,,,,,,,,,,,,21,female,2020-09-28_13h19.17.225,torte-2b,2020.1.3,Win32,60,12430,,,,,,,,,,,,,space,0,31,31,31,1,2,0.48624,,,,,,,,,,,,,,,,,,,,,,,,,,,,,,,,,,,,,,,,,,,,,,
,,,,,,,,,,,,,,,,,,,,,,,21,female,2020-09-28_13h19.17.225,torte-2b,2020.1.3,Win32,60,12430,,,,,,,,,,,,,space,0,32,32,32,1,5,0.80375,,,,,,,,,,,,,,,,,,,,,,,,,,,,,,,,,,,,,,,,,,,,,,
,,,,,,,,,,,,,,,,,,,,,,,21,female,2020-09-28_13h19.17.225,torte-2b,2020.1.3,Win32,60,12430,,,,,,,,,,,,,,0,33,33,33,1,1,,,,,,,,,,,,,,,,,,,,,,,,,,,,,,,,,,,,,,,,,,,,,,,
,,,,,,,,,,,,,,,,,,,,,,,21,female,2020-09-28_13h19.17.225,torte-2b,2020.1.3,Win32,60,12430,,,,,,,,,,,,,,0,34,34,34,1,1,,,,,,,,,,,,,,,,,,,,,,,,,,,,,,,,,,,,,,,,,,,,,,,
,,,,,,,,,,,,,,,,,,,,,,,21,female,2020-09-28_13h19.17.225,torte-2b,2020.1.3,Win32,60,12430,,,,,,,,,,,,,,,,,,,2,,0,0,0,0,1,,,,,,,,,,,,,,,,,,,,,,,,,,,,,,,,,,,,,,,,,
,,,,,,,,,,,,,,,,,,,,,,,21,female,2020-09-28_13h19.17.225,torte-2b,2020.1.3,Win32,60,12430,,,,,,,,,,,,,,,,,,,2,,0,1,1,1,1,,,,,,,,,,,,,,,,,,,,,,,,,,,,,,,,,,,,,,,,,
,,,,,,,,,,,,,,,,,,,,,,,21,female,2020-09-28_13h19.17.225,torte-2b,2020.1.3,Win32,60,12430,,,,,,,,,,,,,,,,,,,6,,0,2,2,2,1,,,,,,,,,,,,,,,,,,,,,,,,,,,,,,,,,,,,,,,,,
,,,,,,,,,,,,,,,,,,,,,,,21,female,2020-09-28_13h19.17.225,torte-2b,2020.1.3,Win32,60,12430,,,,,,,,,,,,,space,,,,,,2,0.437475,0,3,3,3,1,,,,,,,,,,,,,,,,,,,,,,,,,,,,,,,,,,,,,,,,,
,,,,,,,,,,,,,,,,,,,,,,,21,female,2020-09-28_13h19.17.225,torte-2b,2020.1.3,Win32,60,12430,,,,,,,,,,,,,space,,,,,,6,0.39718,0,4,4,4,1,,,,,,,,,,,,,,,,,,,,,,,,,,,,,,,,,,,,,,,,,
,,,,,,,,,,,,,,,,,,,,,,,21,female,2020-09-28_13h19.17.225,torte-2b,2020.1.3,Win32,60,12430,,,,,,,,,,,,,space,,,,,,2,0.515295,0,5,5,5,1,,,,,,,,,,,,,,,,,,,,,,,,,,,,,,,,,,,,,,,,,
,,,,,,,,,,,,,,,,,,,,,,,21,female,2020-09-28_13h19.17.225,torte-2b,2020.1.3,Win32,60,12430,,,,,,,,,,,,,,,,,,,7,,0,6,6,6,1,,,,,,,,,,,,,,,,,,,,,,,,,,,,,,,,,,,,,,,,,
,,,,,,,,,,,,,,,,,,,,,,,21,female,2020-09-28_13h19.17.225,torte-2b,2020.1.3,Win32,60,12430,,,,,,,,,,,,,space,,,,,,2,0.33726,0,7,7,7,1,,,,,,,,,,,,,,,,,,,,,,,,,,,,,,,,,,,,,,,,,
,,,,,,,,,,,,,,,,,,,,,,,21,female,2020-09-28_13h19.17.225,torte-2b,2020.1.3,Win32,60,12430,,,,,,,,,,,,,space,,,,,,7,0.46152,0,8,8,8,1,,,,,,,,,,,,,,,,,,,,,,,,,,,,,,,,,,,,,,,,,
,,,,,,,,,,,,,,,,,,,,,,,21,female,2020-09-28_13h19.17.225,torte-2b,2020.1.3,Win32,60,12430,,,,,,,,,,,,,space,,,,,,2,0.635615,0,9,9,9,1,,,,,,,,,,,,,,,,,,,,,,,,,,,,,,,,,,,,,,,,,
,,,,,,,,,,,,,,,,,,,,,,,21,female,2020-09-28_13h19.17.225,torte-2b,2020.1.3,Win32,60,12430,,,,,,,,,,,,,,,,,,,5,,0,10,10,10,1,,,,,,,,,,,,,,,,,,,,,,,,,,,,,,,,,,,,,,,,,
,,,,,,,,,,,,,,,,,,,,,,,21,female,2020-09-28_13h19.17.225,torte-2b,2020.1.3,Win32,60,12430,,,,,,,,,,,,,space,,,,,,4,0.34852,0,11,11,11,1,,,,,,,,,,,,,,,,,,,,,,,,,,,,,,,,,,,,,,,,,
,,,,,,,,,,,,,,,,,,,,,,,21,female,2020-09-28_13h19.17.225,torte-2b,2020.1.3,Win32,60,12430,,,,,,,,,,,,,space,,,,,,5,0.393285,0,12,12,12,1,,,,,,,,,,,,,,,,,,,,,,,,,,,,,,,,,,,,,,,,,
,,,,,,,,,,,,,,,,,,,,,,,21,female,2020-09-28_13h19.17.225,torte-2b,2020.1.3,Win32,60,12430,,,,,,,,,,,,,,,,,,,6,,0,13,13,13,1,,,,,,,,,,,,,,,,,,,,,,,,,,,,,,,,,,,,,,,,,
,,,,,,,,,,,,,,,,,,,,,,,21,female,2020-09-28_13h19.17.225,torte-2b,2020.1.3,Win32,60,12430,,,,,,,,,,,,,space,,,,,,5,0.64136,0,14,14,14,1,,,,,,,,,,,,,,,,,,,,,,,,,,,,,,,,,,,,,,,,,
,,,,,,,,,,,,,,,,,,,,,,,21,female,2020-09-28_13h19.17.225,torte-2b,2020.1.3,Win32,60,12430,,,,,,,,,,,,,,,,,,,4,,0,15,15,15,1,,,,,,,,,,,,,,,,,,,,,,,,,,,,,,,,,,,,,,,,,
,,,,,,,,,,,,,,,,,,,,,,,21,female,2020-09-28_13h19.17.225,torte-2b,2020.1.3,Win32,60,12430,,,,,,,,,,,,,space,,,,,,5,0.687015,0,16,16,16,1,,,,,,,,,,,,,,,,,,,,,,,,,,,,,,,,,,,,,,,,,
,,,,,,,,,,,,,,,,,,,,,,,21,female,2020-09-28_13h19.17.225,torte-2b,2020.1.3,Win32,60,12430,,,,,,,,,,,,,,,,,,,3,,0,17,17,17,1,,,,,,,,,,,,,,,,,,,,,,,,,,,,,,,,,,,,,,,,,
,,,,,,,,,,,,,,,,,,,,,,,21,female,2020-09-28_13h19.17.225,torte-2b,2020.1.3,Win32,60,12430,,,,,,,,,,,,,,,,,,,6,,0,18,18,18,1,,,,,,,,,,,,,,,,,,,,,,,,,,,,,,,,,,,,,,,,,
,,,,,,,,,,,,,,,,,,,,,,,21,female,2020-09-28_13h19.17.225,torte-2b,2020.1.3,Win32,60,12430,,,,,,,,,,,,,,,,,,,6,,0,19,19,19,1,,,,,,,,,,,,,,,,,,,,,,,,,,,,,,,,,,,,,,,,,
,,,,,,,,,,,,,,,,,,,,,,,21,female,2020-09-28_13h19.17.225,torte-2b,2020.1.3,Win32,60,12430,,,,,,,,,,,,,space,,,,,,6,0.480615,0,20,20,20,1,,,,,,,,,,,,,,,,,,,,,,,,,,,,,,,,,,,,,,,,,
,,,,,,,,,,,,,,,,,,,,,,,21,female,2020-09-28_13h19.17.225,torte-2b,2020.1.3,Win32,60,12430,,,,,,,,,,,,,,,,,,,4,,0,21,21,21,1,,,,,,,,,,,,,,,,,,,,,,,,,,,,,,,,,,,,,,,,,
,,,,,,,,,,,,,,,,,,,,,,,21,female,2020-09-28_13h19.17.225,torte-2b,2020.1.3,Win32,60,12430,,,,,,,,,,,,,space,,,,,,6,0.807385,0,22,22,22,1,,,,,,,,,,,,,,,,,,,,,,,,,,,,,,,,,,,,,,,,,
,,,,,,,,,,,,,,,,,,,,,,,21,female,2020-09-28_13h19.17.225,torte-2b,2020.1.3,Win32,60,12430,,,,,,,,,,,,,space,,,,,,4,0.735285,0,23,23,23,1,,,,,,,,,,,,,,,,,,,,,,,,,,,,,,,,,,,,,,,,,
,,,,,,,,,,,,,,,,,,,,,,,21,female,2020-09-28_13h19.17.225,torte-2b,2020.1.3,Win32,60,12430,,,,,,,,,,,,,space,,,,,,6,0.88214,0,24,24,24,1,,,,,,,,,,,,,,,,,,,,,,,,,,,,,,,,,,,,,,,,,
,,,,,,,,,,,,,,,,,,,,,,,21,female,2020-09-28_13h19.17.225,torte-2b,2020.1.3,Win32,60,12430,,,,,,,,,,,,,,,,,,,6,,0,25,25,25,1,,,,,,,,,,,,,,,,,,,,,,,,,,,,,,,,,,,,,,,,,
,,,,,,,,,,,,,,,,,,,,,,,21,female,2020-09-28_13h19.17.225,torte-2b,2020.1.3,Win32,60,12430,,,,,,,,,,,,,space,,,,,,7,0.576275,0,26,26,26,1,,,,,,,,,,,,,,,,,,,,,,,,,,,,,,,,,,,,,,,,,
,,,,,,,,,,,,,,,,,,,,,,,21,female,2020-09-28_13h19.17.225,torte-2b,2020.1.3,Win32,60,12430,,,,,,,,,,,,,,,,,,,1,,0,27,27,27,1,,,,,,,,,,,,,,,,,,,,,,,,,,,,,,,,,,,,,,,,,
,,,,,,,,,,,,,,,,,,,,,,,21,female,2020-09-28_13h19.17.225,torte-2b,2020.1.3,Win32,60,12430,,,,,,,,,,,,,space,,,,,,7,0.398825,0,28,28,28,1,,,,,,,,,,,,,,,,,,,,,,,,,,,,,,,,,,,,,,,,,
,,,,,,,,,,,,,,,,,,,,,,,21,female,2020-09-28_13h19.17.225,torte-2b,2020.1.3,Win32,60,12430,,,,,,,,,,,,,,,,,,,4,,0,29,29,29,1,,,,,,,,,,,,,,,,,,,,,,,,,,,,,,,,,,,,,,,,,
,,,,,,,,,,,,,,,,,,,,,,,21,female,2020-09-28_13h19.17.225,torte-2b,2020.1.3,Win32,60,12430,,,,,,,,,,,,,space,,,,,,7,0.764165,0,30,30,30,1,,,,,,,,,,,,,,,,,,,,,,,,,,,,,,,,,,,,,,,,,
,,,,,,,,,,,,,,,,,,,,,,,21,female,2020-09-28_13h19.17.225,torte-2b,2020.1.3,Win32,60,12430,,,,,,,,,,,,,,,,,,,3,,0,31,31,31,1,,,,,,,,,,,,,,,,,,,,,,,,,,,,,,,,,,,,,,,,,
,,,,,,,,,,,,,,,,,,,,,,,21,female,2020-09-28_13h19.17.225,torte-2b,2020.1.3,Win32,60,12430,,,,,,,,,,,,,,,,,,,2,,0,32,32,32,1,,,,,,,,,,,,,,,,,,,,,,,,,,,,,,,,,,,,,,,,,
,,,,,,,,,,,,,,,,,,,,,,,21,female,2020-09-28_13h19.17.225,torte-2b,2020.1.3,Win32,60,12430,,,,,,,,,,,,,,,,,,,6,,0,33,33,33,1,,,,,,,,,,,,,,,,,,,,,,,,,,,,,,,,,,,,,,,,,
,,,,,,,,,,,,,,,,,,,,,,,21,female,2020-09-28_13h19.17.225,torte-2b,2020.1.3,Win32,60,12430,,,,,,,,,,,,,,,,,,,3,,0,34,34,34,1,,,,,,,,,,,,,,,,,,,,,,,,,,,,,,,,,,,,,,,,,
,,,,,,,,,,,,,,,,,,,,,,,21,female,2020-09-28_13h19.17.225,torte-2b,2020.1.3,Win32,60,12430,,,,,,,,,,,,,,,,,,,7,,,,,,,0,0,0,0,1,,,,,,,,,,,,,,,,,,,,,,,,,,,,,,,,,,,,
,,,,,,,,,,,,,,,,,,,,,,,21,female,2020-09-28_13h19.17.225,torte-2b,2020.1.3,Win32,60,12430,,,,,,,,,,,,,,,,,,,5,,,,,,,0,1,1,1,1,,,,,,,,,,,,,,,,,,,,,,,,,,,,,,,,,,,,
,,,,,,,,,,,,,,,,,,,,,,,21,female,2020-09-28_13h19.17.225,torte-2b,2020.1.3,Win32,60,12430,,,,,,,,,,,,,,,,,,,4,,,,,,,0,2,2,2,1,,,,,,,,,,,,,,,,,,,,,,,,,,,,,,,,,,,,
,,,,,,,,,,,,,,,,,,,,,,,21,female,2020-09-28_13h19.17.225,torte-2b,2020.1.3,Win32,60,12430,,,,,,,,,,,,,,,,,,,5,,,,,,,0,3,3,3,1,,,,,,,,,,,,,,,,,,,,,,,,,,,,,,,,,,,,
,,,,,,,,,,,,,,,,,,,,,,,21,female,2020-09-28_13h19.17.225,torte-2b,2020.1.3,Win32,60,12430,,,,,,,,,,,,,,,,,,,6,,,,,,,0,4,4,4,1,,,,,,,,,,,,,,,,,,,,,,,,,,,,,,,,,,,,
,,,,,,,,,,,,,,,,,,,,,,,21,female,2020-09-28_13h19.17.225,torte-2b,2020.1.3,Win32,60,12430,,,,,,,,,,,,,,,,,,,5,,,,,,,0,5,5,5,1,,,,,,,,,,,,,,,,,,,,,,,,,,,,,,,,,,,,
,,,,,,,,,,,,,,,,,,,,,,,21,female,2020-09-28_13h19.17.225,torte-2b,2020.1.3,Win32,60,12430,,,,,,,,,,,,,,,,,,,3,,,,,,,0,6,6,6,1,,,,,,,,,,,,,,,,,,,,,,,,,,,,,,,,,,,,
,,,,,,,,,,,,,,,,,,,,,,,21,female,2020-09-28_13h19.17.225,torte-2b,2020.1.3,Win32,60,12430,,,,,,,,,,,,,,,,,,,4,,,,,,,0,7,7,7,1,,,,,,,,,,,,,,,,,,,,,,,,,,,,,,,,,,,,
,,,,,,,,,,,,,,,,,,,,,,,21,female,2020-09-28_13h19.17.225,torte-2b,2020.1.3,Win32,60,12430,,,,,,,,,,,,,,,,,,,3,,,,,,,0,8,8,8,1,,,,,,,,,,,,,,,,,,,,,,,,,,,,,,,,,,,,
,,,,,,,,,,,,,,,,,,,,,,,21,female,2020-09-28_13h19.17.225,torte-2b,2020.1.3,Win32,60,12430,,,,,,,,,,,,,,,,,,,1,,,,,,,0,9,9,9,1,,,,,,,,,,,,,,,,,,,,,,,,,,,,,,,,,,,,
,,,,,,,,,,,,,,,,,,,,,,,21,female,2020-09-28_13h19.17.225,torte-2b,2020.1.3,Win32,60,12430,,,,,,,,,,,,,,,,,,,2,,,,,,,0,10,10,10,1,,,,,,,,,,,,,,,,,,,,,,,,,,,,,,,,,,,,
,,,,,,,,,,,,,,,,,,,,,,,21,female,2020-09-28_13h19.17.225,torte-2b,2020.1.3,Win32,60,12430,,,,,,,,,,,,,space,,,,,,1,0.36237,,,,,,0,11,11,11,1,,,,,,,,,,,,,,,,,,,,,,,,,,,,,,,,,,,,
,,,,,,,,,,,,,,,,,,,,,,,21,female,2020-09-28_13h19.17.225,torte-2b,2020.1.3,Win32,60,12430,,,,,,,,,,,,,space,,,,,,2,0.46644,,,,,,0,12,12,12,1,,,,,,,,,,,,,,,,,,,,,,,,,,,,,,,,,,,,
,,,,,,,,,,,,,,,,,,,,,,,21,female,2020-09-28_13h19.17.225,torte-2b,2020.1.3,Win32,60,12430,,,,,,,,,,,,,space,,,,,,1,0.367895,,,,,,0,13,13,13,1,,,,,,,,,,,,,,,,,,,,,,,,,,,,,,,,,,,,
,,,,,,,,,,,,,,,,,,,,,,,21,female,2020-09-28_13h19.17.225,torte-2b,2020.1.3,Win32,60,12430,,,,,,,,,,,,,,,,,,,3,,,,,,,0,14,14,14,1,,,,,,,,,,,,,,,,,,,,,,,,,,,,,,,,,,,,
,,,,,,,,,,,,,,,,,,,,,,,21,female,2020-09-28_13h19.17.225,torte-2b,2020.1.3,Win32,60,12430,,,,,,,,,,,,,space,,,,,,1,0.398425,,,,,,0,15,15,15,1,,,,,,,,,,,,,,,,,,,,,,,,,,,,,,,,,,,,
,,,,,,,,,,,,,,,,,,,,,,,21,female,2020-09-28_13h19.17.225,torte-2b,2020.1.3,Win32,60,12430,,,,,,,,,,,,,,,,,,,7,,,,,,,0,16,16,16,1,,,,,,,,,,,,,,,,,,,,,,,,,,,,,,,,,,,,
,,,,,,,,,,,,,,,,,,,,,,,21,female,2020-09-28_13h19.17.225,torte-2b,2020.1.3,Win32,60,12430,,,,,,,,,,,,,,,,,,,7,,,,,,,0,17,17,17,1,,,,,,,,,,,,,,,,,,,,,,,,,,,,,,,,,,,,
,,,,,,,,,,,,,,,,,,,,,,,21,female,2020-09-28_13h19.17.225,torte-2b,2020.1.3,Win32,60,12430,,,,,,,,,,,,,,,,,,,4,,,,,,,0,18,18,18,1,,,,,,,,,,,,,,,,,,,,,,,,,,,,,,,,,,,,
,,,,,,,,,,,,,,,,,,,,,,,21,female,2020-09-28_13h19.17.225,torte-2b,2020.1.3,Win32,60,12430,,,,,,,,,,,,,space,,,,,,7,0.427275,,,,,,0,19,19,19,1,,,,,,,,,,,,,,,,,,,,,,,,,,,,,,,,,,,,
,,,,,,,,,,,,,,,,,,,,,,,21,female,2020-09-28_13h19.17.225,torte-2b,2020.1.3,Win32,60,12430,,,,,,,,,,,,,,,,,,,3,,,,,,,0,20,20,20,1,,,,,,,,,,,,,,,,,,,,,,,,,,,,,,,,,,,,
,,,,,,,,,,,,,,,,,,,,,,,21,female,2020-09-28_13h19.17.225,torte-2b,2020.1.3,Win32,60,12430,,,,,,,,,,,,,space,,,,,,7,0.459435,,,,,,0,21,21,21,1,,,,,,,,,,,,,,,,,,,,,,,,,,,,,,,,,,,,
,,,,,,,,,,,,,,,,,,,,,,,21,female,2020-09-28_13h19.17.225,torte-2b,2020.1.3,Win32,60,12430,,,,,,,,,,,,,space,,,,,,3,0.59697,,,,,,0,22,22,22,1,,,,,,,,,,,,,,,,,,,,,,,,,,,,,,,,,,,,
,,,,,,,,,,,,,,,,,,,,,,,21,female,2020-09-28_13h19.17.225,torte-2b,2020.1.3,Win32,60,12430,,,,,,,,,,,,,,,,,,,1,,,,,,,0,23,23,23,1,,,,,,,,,,,,,,,,,,,,,,,,,,,,,,,,,,,,
,,,,,,,,,,,,,,,,,,,,,,,21,female,2020-09-28_13h19.17.225,torte-2b,2020.1.3,Win32,60,12430,,,,,,,,,,,,,,,,,,,6,,,,,,,0,24,24,24,1,,,,,,,,,,,,,,,,,,,,,,,,,,,,,,,,,,,,
,,,,,,,,,,,,,,,,,,,,,,,21,female,2020-09-28_13h19.17.225,torte-2b,2020.1.3,Win32,60,12430,,,,,,,,,,,,,,,,,,,3,,,,,,,0,25,25,25,1,,,,,,,,,,,,,,,,,,,,,,,,,,,,,,,,,,,,
,,,,,,,,,,,,,,,,,,,,,,,21,female,2020-09-28_13h19.17.225,torte-2b,2020.1.3,Win32,60,12430,,,,,,,,,,,,,,,,,,,2,,,,,,,0,26,26,26,1,,,,,,,,,,,,,,,,,,,,,,,,,,,,,,,,,,,,
,,,,,,,,,,,,,,,,,,,,,,,21,female,2020-09-28_13h19.17.225,torte-2b,2020.1.3,Win32,60,12430,,,,,,,,,,,,,space,,,,,,3,0.418735,,,,,,0,27,27,27,1,,,,,,,,,,,,,,,,,,,,,,,,,,,,,,,,,,,,
,,,,,,,,,,,,,,,,,,,,,,,21,female,2020-09-28_13h19.17.225,torte-2b,2020.1.3,Win32,60,12430,,,,,,,,,,,,,,,,,,,1,,,,,,,0,28,28,28,1,,,,,,,,,,,,,,,,,,,,,,,,,,,,,,,,,,,,
,,,,,,,,,,,,,,,,,,,,,,,21,female,2020-09-28_13h19.17.225,torte-2b,2020.1.3,Win32,60,12430,,,,,,,,,,,,,space,,,,,,3,0.88379,,,,,,0,29,29,29,1,,,,,,,,,,,,,,,,,,,,,,,,,,,,,,,,,,,,
,,,,,,,,,,,,,,,,,,,,,,,21,female,2020-09-28_13h19.17.225,torte-2b,2020.1.3,Win32,60,12430,,,,,,,,,,,,,space,,,,,,1,0.69746,,,,,,0,30,30,30,1,,,,,,,,,,,,,,,,,,,,,,,,,,,,,,,,,,,,
,,,,,,,,,,,,,,,,,,,,,,,21,female,2020-09-28_13h19.17.225,torte-2b,2020.1.3,Win32,60,12430,,,,,,,,,,,,,,,,,,,7,,,,,,,0,31,31,31,1,,,,,,,,,,,,,,,,,,,,,,,,,,,,,,,,,,,,
,,,,,,,,,,,,,,,,,,,,,,,21,female,2020-09-28_13h19.17.225,torte-2b,2020.1.3,Win32,60,12430,,,,,,,,,,,,,,,,,,,5,,,,,,,0,32,32,32,1,,,,,,,,,,,,,,,,,,,,,,,,,,,,,,,,,,,,
,,,,,,,,,,,,,,,,,,,,,,,21,female,2020-09-28_13h19.17.225,torte-2b,2020.1.3,Win32,60,12430,,,,,,,,,,,,,space,,,,,,7,0.76548,,,,,,0,33,33,33,1,,,,,,,,,,,,,,,,,,,,,,,,,,,,,,,,,,,,
,,,,,,,,,,,,,,,,,,,,,,,21,female,2020-09-28_13h19.17.225,torte-2b,2020.1.3,Win32,60,12430,,,,,,,,,,,,,,,,,,,2,,,,,,,0,34,34,34,1,,,,,,,,,,,,,,,,,,,,,,,,,,,,,,,,,,,,
,,,,,,,,,,,,,,,,,,,,,,,21,female,2020-09-28_13h19.17.225,torte-2b,2020.1.3,Win32,60,12430,,,,,,,,,,,,,,,,,,,3,,,,,,,,,,,,0,0,0,0,1,,,,,,,,,,,,,,,,,,,,,,,,,,,,,,,
,,,,,,,,,,,,,,,,,,,,,,,21,female,2020-09-28_13h19.17.225,torte-2b,2020.1.3,Win32,60,12430,,,,,,,,,,,,,,,,,,,7,,,,,,,,,,,,0,1,1,1,1,,,,,,,,,,,,,,,,,,,,,,,,,,,,,,,
,,,,,,,,,,,,,,,,,,,,,,,21,female,2020-09-28_13h19.17.225,torte-2b,2020.1.3,Win32,60,12430,,,,,,,,,,,,,,,,,,,7,,,,,,,,,,,,0,2,2,2,1,,,,,,,,,,,,,,,,,,,,,,,,,,,,,,,
,,,,,,,,,,,,,,,,,,,,,,,21,female,2020-09-28_13h19.17.225,torte-2b,2020.1.3,Win32,60,12430,,,,,,,,,,,,,,,,,,,4,,,,,,,,,,,,0,3,3,3,1,,,,,,,,,,,,,,,,,,,,,,,,,,,,,,,
,,,,,,,,,,,,,,,,,,,,,,,21,female,2020-09-28_13h19.17.225,torte-2b,2020.1.3,Win32,60,12430,,,,,,,,,,,,,,,,,,,5,,,,,,,,,,,,0,4,4,4,1,,,,,,,,,,,,,,,,,,,,,,,,,,,,,,,
,,,,,,,,,,,,,,,,,,,,,,,21,female,2020-09-28_13h19.17.225,torte-2b,2020.1.3,Win32,60,12430,,,,,,,,,,,,,space,,,,,,4,0.621555,,,,,,,,,,,0,5,5,5,1,,,,,,,,,,,,,,,,,,,,,,,,,,,,,,,
,,,,,,,,,,,,,,,,,,,,,,,21,female,2020-09-28_13h19.17.225,torte-2b,2020.1.3,Win32,60,12430,,,,,,,,,,,,,,,,,,,2,,,,,,,,,,,,0,6,6,6,1,,,,,,,,,,,,,,,,,,,,,,,,,,,,,,,
,,,,,,,,,,,,,,,,,,,,,,,21,female,2020-09-28_13h19.17.225,torte-2b,2020.1.3,Win32,60,12430,,,,,,,,,,,,,space,,,,,,4,0.436515,,,,,,,,,,,0,7,7,7,1,,,,,,,,,,,,,,,,,,,,,,,,,,,,,,,
,,,,,,,,,,,,,,,,,,,,,,,21,female,2020-09-28_13h19.17.225,torte-2b,2020.1.3,Win32,60,12430,,,,,,,,,,,,,space,,,,,,2,0.442295,,,,,,,,,,,0,8,8,8,1,,,,,,,,,,,,,,,,,,,,,,,,,,,,,,,
,,,,,,,,,,,,,,,,,,,,,,,21,female,2020-09-28_13h19.17.225,torte-2b,2020.1.3,Win32,60,12430,,,,,,,,,,,,,,,,,,,2,,,,,,,,,,,,0,9,9,9,1,,,,,,,,,,,,,,,,,,,,,,,,,,,,,,,
,,,,,,,,,,,,,,,,,,,,,,,21,female,2020-09-28_13h19.17.225,torte-2b,2020.1.3,Win32,60,12430,,,,,,,,,,,,,,,,,,,6,,,,,,,,,,,,0,10,10,10,1,,,,,,,,,,,,,,,,,,,,,,,,,,,,,,,
,,,,,,,,,,,,,,,,,,,,,,,21,female,2020-09-28_13h19.17.225,torte-2b,2020.1.3,Win32,60,12430,,,,,,,,,,,,,space,,,,,,2,0.58392,,,,,,,,,,,0,11,11,11,1,,,,,,,,,,,,,,,,,,,,,,,,,,,,,,,
,,,,,,,,,,,,,,,,,,,,,,,21,female,2020-09-28_13h19.17.225,torte-2b,2020.1.3,Win32,60,12430,,,,,,,,,,,,,,,,,,,2,,,,,,,,,,,,0,12,12,12,1,,,,,,,,,,,,,,,,,,,,,,,,,,,,,,,
,,,,,,,,,,,,,,,,,,,,,,,21,female,2020-09-28_13h19.17.225,torte-2b,2020.1.3,Win32,60,12430,,,,,,,,,,,,,space,,,,,,2,0.453285,,,,,,,,,,,0,13,13,13,1,,,,,,,,,,,,,,,,,,,,,,,,,,,,,,,
,,,,,,,,,,,,,,,,,,,,,,,21,female,2020-09-28_13h19.17.225,torte-2b,2020.1.3,Win32,60,12430,,,,,,,,,,,,,space,,,,,,2,1.51219,,,,,,,,,,,0,14,14,14,1,,,,,,,,,,,,,,,,,,,,,,,,,,,,,,,
,,,,,,,,,,,,,,,,,,,,,,,21,female,2020-09-28_13h19.17.225,torte-2b,2020.1.3,Win32,60,12430,,,,,,,,,,,,,,,,,,,4,,,,,,,,,,,,0,15,15,15,1,,,,,,,,,,,,,,,,,,,,,,,,,,,,,,,
,,,,,,,,,,,,,,,,,,,,,,,21,female,2020-09-28_13h19.17.225,torte-2b,2020.1.3,Win32,60,12430,,,,,,,,,,,,,,,,,,,3,,,,,,,,,,,,0,16,16,16,1,,,,,,,,,,,,,,,,,,,,,,,,,,,,,,,
,,,,,,,,,,,,,,,,,,,,,,,21,female,2020-09-28_13h19.17.225,torte-2b,2020.1.3,Win32,60,12430,,,,,,,,,,,,,,,,,,,7,,,,,,,,,,,,0,17,17,17,1,,,,,,,,,,,,,,,,,,,,,,,,,,,,,,,
,,,,,,,,,,,,,,,,,,,,,,,21,female,2020-09-28_13h19.17.225,torte-2b,2020.1.3,Win32,60,12430,,,,,,,,,,,,,,,,,,,4,,,,,,,,,,,,0,18,18,18,1,,,,,,,,,,,,,,,,,,,,,,,,,,,,,,,
,,,,,,,,,,,,,,,,,,,,,,,21,female,2020-09-28_13h19.17.225,torte-2b,2020.1.3,Win32,60,12430,,,,,,,,,,,,,space,,,,,,7,1.00785,,,,,,,,,,,0,19,19,19,1,,,,,,,,,,,,,,,,,,,,,,,,,,,,,,,
,,,,,,,,,,,,,,,,,,,,,,,21,female,2020-09-28_13h19.17.225,torte-2b,2020.1.3,Win32,60,12430,,,,,,,,,,,,,,,,,,,7,,,,,,,,,,,,0,20,20,20,1,,,,,,,,,,,,,,,,,,,,,,,,,,,,,,,
,,,,,,,,,,,,,,,,,,,,,,,21,female,2020-09-28_13h19.17.225,torte-2b,2020.1.3,Win32,60,12430,,,,,,,,,,,,,space,,,,,,7,0.346775,,,,,,,,,,,0,21,21,21,1,,,,,,,,,,,,,,,,,,,,,,,,,,,,,,,
,,,,,,,,,,,,,,,,,,,,,,,21,female,2020-09-28_13h19.17.225,torte-2b,2020.1.3,Win32,60,12430,,,,,,,,,,,,,space,,,,,,7,0.583325,,,,,,,,,,,0,22,22,22,1,,,,,,,,,,,,,,,,,,,,,,,,,,,,,,,
,,,,,,,,,,,,,,,,,,,,,,,21,female,2020-09-28_13h19.17.225,torte-2b,2020.1.3,Win32,60,12430,,,,,,,,,,,,,,,,,,,1,,,,,,,,,,,,0,23,23,23,1,,,,,,,,,,,,,,,,,,,,,,,,,,,,,,,
,,,,,,,,,,,,,,,,,,,,,,,21,female,2020-09-28_13h19.17.225,torte-2b,2020.1.3,Win32,60,12430,,,,,,,,,,,,,space,,,,,,7,0.385425,,,,,,,,,,,0,24,24,24,1,,,,,,,,,,,,,,,,,,,,,,,,,,,,,,,
,,,,,,,,,,,,,,,,,,,,,,,21,female,2020-09-28_13h19.17.225,torte-2b,2020.1.3,Win32,60,12430,,,,,,,,,,,,,space,,,,,,1,0.4895,,,,,,,,,,,0,25,25,25,1,,,,,,,,,,,,,,,,,,,,,,,,,,,,,,,
,,,,,,,,,,,,,,,,,,,,,,,21,female,2020-09-28_13h19.17.225,torte-2b,2020.1.3,Win32,60,12430,,,,,,,,,,,,,space,,,,,,7,0.56985,,,,,,,,,,,0,26,26,26,1,,,,,,,,,,,,,,,,,,,,,,,,,,,,,,,
,,,,,,,,,,,,,,,,,,,,,,,21,female,2020-09-28_13h19.17.225,torte-2b,2020.1.3,Win32,60,12430,,,,,,,,,,,,,,,,,,,2,,,,,,,,,,,,0,27,27,27,1,,,,,,,,,,,,,,,,,,,,,,,,,,,,,,,
,,,,,,,,,,,,,,,,,,,,,,,21,female,2020-09-28_13h19.17.225,torte-2b,2020.1.3,Win32,60,12430,,,,,,,,,,,,,,,,,,,5,,,,,,,,,,,,0,28,28,28,1,,,,,,,,,,,,,,,,,,,,,,,,,,,,,,,
,,,,,,,,,,,,,,,,,,,,,,,21,female,2020-09-28_13h19.17.225,torte-2b,2020.1.3,Win32,60,12430,,,,,,,,,,,,,,,,,,,5,,,,,,,,,,,,0,29,29,29,1,,,,,,,,,,,,,,,,,,,,,,,,,,,,,,,
,,,,,,,,,,,,,,,,,,,,,,,21,female,2020-09-28_13h19.17.225,torte-2b,2020.1.3,Win32,60,12430,,,,,,,,,,,,,space,,,,,,5,0.439475,,,,,,,,,,,0,30,30,30,1,,,,,,,,,,,,,,,,,,,,,,,,,,,,,,,
,,,,,,,,,,,,,,,,,,,,,,,21,female,2020-09-28_13h19.17.225,torte-2b,2020.1.3,Win32,60,12430,,,,,,,,,,,,,,,,,,,1,,,,,,,,,,,,0,31,31,31,1,,,,,,,,,,,,,,,,,,,,,,,,,,,,,,,
,,,,,,,,,,,,,,,,,,,,,,,21,female,2020-09-28_13h19.17.225,torte-2b,2020.1.3,Win32,60,12430,,,,,,,,,,,,,space,,,,,,5,0.49648,,,,,,,,,,,0,32,32,32,1,,,,,,,,,,,,,,,,,,,,,,,,,,,,,,,
,,,,,,,,,,,,,,,,,,,,,,,21,female,2020-09-28_13h19.17.225,torte-2b,2020.1.3,Win32,60,12430,,,,,,,,,,,,,,,,,,,3,,,,,,,,,,,,0,33,33,33,1,,,,,,,,,,,,,,,,,,,,,,,,,,,,,,,
,,,,,,,,,,,,,,,,,,,,,,,21,female,2020-09-28_13h19.17.225,torte-2b,2020.1.3,Win32,60,12430,,,,,,,,,,,,,,,,,,,3,,,,,,,,,,,,0,34,34,34,1,,,,,,,,,,,,,,,,,,,,,,,,,,,,,,,
,,,,,,,,,,,,l,Incorrect,,,,,,t2.png,t1.png,1,0.90025,21,female,2020-09-28_13h19.17.225,torte-2b,2020.1.3,Win32,60,12430,1.308895,space,2.188475,,,,,,,,,,,,,,,,,,,,,,,,,,,,,,,,,space,5.72263,0,0,0,5,1,,,,,,,,,,,,,,,,,,,,,,,,
,,,,,,,,,,,,l,Correct!,,,,,,t1.png,t2.png,1,0.9,21,female,2020-09-28_13h19.17.225,torte-2b,2020.1.3,Win32,60,12430,0.949625,,,,,,,,,,,,,,,,,,,,,,,,,,,,,,,,,,,,,0,1,1,1,1,,,,,,,,,,,,,,,,,,,,,,,,
,,,,,,,,,,,,a,Incorrect,,,,,,t2.png,t5.png,3,0.0000131,21,female,2020-09-28_13h19.17.225,torte-2b,2020.1.3,Win32,60,12430,0.79106,,,,,,,,,,,,,,,,,,,,,,,,,,,,,,,,,,,,,0,2,2,95,1,,,,,,,,,,,,,,,,,,,,,,,,
,,,,,,,,,,,,l,Incorrect,,,,,,t2.png,t1.png,1,0.90025,21,female,2020-09-28_13h19.17.225,torte-2b,2020.1.3,Win32,60,12430,0.947265,,,,,,,,,,,,,,,,,,,,,,,,,,,,,,,,,,,,,0,3,3,19,1,,,,,,,,,,,,,,,,,,,,,,,,
,,,,,,,,,,,,a,Incorrect,,,,,,t4.png,t1.png,3,0.0000131,21,female,2020-09-28_13h19.17.225,torte-2b,2020.1.3,Win32,60,12430,0.685535,,,,,,,,,,,,,,,,,,,,,,,,,,,,,,,,,,,,,0,4,4,13,1,,,,,,,,,,,,,,,,,,,,,,,,
,,,,,,,,,,,,l,Incorrect,,,,,,t1.png,t1.png,0,0.978,21,female,2020-09-28_13h19.17.225,torte-2b,2020.1.3,Win32,60,12430,0.81495,,,,,,,,,,,,,,,,,,,,,,,,,,,,,,,,,,,,,0,5,5,54,1,,,,,,,,,,,,,,,,,,,,,,,,
,,,,,,,,,,,,a,Incorrect,,,,,,t5.png,t1.png,4,9.55E-11,21,female,2020-09-28_13h19.17.225,torte-2b,2020.1.3,Win32,60,12430,0.643595,,,,,,,,,,,,,,,,,,,,,,,,,,,,,,,,,,,,,0,6,6,100,1,,,,,,,,,,,,,,,,,,,,,,,,
,,,,,,,,,,,,a,Correct!,,,,,,t5.png,t4.png,1,0.9,21,female,2020-09-28_13h19.17.225,torte-2b,2020.1.3,Win32,60,12430,0.805145,,,,,,,,,,,,,,,,,,,,,,,,,,,,,,,,,,,,,0,7,7,49,1,,,,,,,,,,,,,,,,,,,,,,,,
,,,,,,,,,,,,l,Correct!,,,,,,t1.png,t3.png,2,0.056466,21,female,2020-09-28_13h19.17.225,torte-2b,2020.1.3,Win32,60,12430,0.80748,,,,,,,,,,,,,,,,,,,,,,,,,,,,,,,,,,,,,0,8,8,63,1,,,,,,,,,,,,,,,,,,,,,,,,
,,,,,,,,,,,,a,Correct!,,,,,,t5.png,t5.png,0,0.97829,21,female,2020-09-28_13h19.17.225,torte-2b,2020.1.3,Win32,60,12430,0.94004,,,,,,,,,,,,,,,,,,,,,,,,,,,,,,,,,,,,,0,9,9,25,1,,,,,,,,,,,,,,,,,,,,,,,,
,,,,,,,,,,,,a,Incorrect,,,,,,t1.png,t5.png,4,9.55E-11,21,female,2020-09-28_13h19.17.225,torte-2b,2020.1.3,Win32,60,12430,0.917155,,,,,,,,,,,,,,,,,,,,,,,,,,,,,,,,,,,,,0,10,10,12,1,,,,,,,,,,,,,,,,,,,,,,,,
,,,,,,,,,,,,l,Incorrect,,,,,,t2.png,t1.png,1,0.9,21,female,2020-09-28_13h19.17.225,torte-2b,2020.1.3,Win32,60,12430,0.73531,,,,,,,,,,,,,,,,,,,,,,,,,,,,,,,,,,,,,0,11,11,118,1,,,,,,,,,,,,,,,,,,,,,,,,
,,,,,,,,,,,,a,Incorrect,,,,,,t4.png,t1.png,3,0.0000131,21,female,2020-09-28_13h19.17.225,torte-2b,2020.1.3,Win32,60,12430,0.58959,,,,,,,,,,,,,,,,,,,,,,,,,,,,,,,,,,,,,0,12,12,48,1,,,,,,,,,,,,,,,,,,,,,,,,
,,,,,,,,,,,,l,Incorrect,,,,,,t3.png,t4.png,1,0.90855,21,female,2020-09-28_13h19.17.225,torte-2b,2020.1.3,Win32,60,12430,0.666535,,,,,,,,,,,,,,,,,,,,,,,,,,,,,,,,,,,,,0,13,13,84,1,,,,,,,,,,,,,,,,,,,,,,,,
,,,,,,,,,,,,a,Incorrect,,,,,,t5.png,t2.png,3,0.0000131,21,female,2020-09-28_13h19.17.225,torte-2b,2020.1.3,Win32,60,12430,0.767385,,,,,,,,,,,,,,,,,,,,,,,,,,,,,,,,,,,,,0,14,14,91,1,,,,,,,,,,,,,,,,,,,,,,,,
,,,,,,,,,,,,a,Incorrect,,,,,,t1.png,t4.png,3,0.0000131,21,female,2020-09-28_13h19.17.225,torte-2b,2020.1.3,Win32,60,12430,0.879185,,,,,,,,,,,,,,,,,,,,,,,,,,,,,,,,,,,,,0,15,15,92,1,,,,,,,,,,,,,,,,,,,,,,,,
,,,,,,,,,,,,a,Incorrect,,,,,,t5.png,t3.png,2,0.0565,21,female,2020-09-28_13h19.17.225,torte-2b,2020.1.3,Win32,60,12430,0.76463,,,,,,,,,,,,,,,,,,,,,,,,,,,,,,,,,,,,,0,16,16,39,1,,,,,,,,,,,,,,,,,,,,,,,,
,,,,,,,,,,,,a,Correct!,,,,,,t4.png,t4.png,0,0.98115,21,female,2020-09-28_13h19.17.225,torte-2b,2020.1.3,Win32,60,12430,0.584845,,,,,,,,,,,,,,,,,,,,,,,,,,,,,,,,,,,,,0,17,17,21,1,,,,,,,,,,,,,,,,,,,,,,,,
,,,,,,,,,,,,a,Incorrect,,,,,,t4.png,t2.png,2,0.059078,21,female,2020-09-28_13h19.17.225,torte-2b,2020.1.3,Win32,60,12430,1.00135,,,,,,,,,,,,,,,,,,,,,,,,,,,,,,,,,,,,,0,18,18,110,1,,,,,,,,,,,,,,,,,,,,,,,,
,,,,,,,,,,,,a,Incorrect,,,,,,t5.png,t3.png,2,0.056466,21,female,2020-09-28_13h19.17.225,torte-2b,2020.1.3,Win32,60,12430,0.58688,,,,,,,,,,,,,,,,,,,,,,,,,,,,,,,,,,,,,0,19,19,56,1,,,,,,,,,,,,,,,,,,,,,,,,
,,,,,,,,,,,,a,Correct!,,,,,,t5.png,t4.png,1,0.9,21,female,2020-09-28_13h19.17.225,torte-2b,2020.1.3,Win32,60,12430,0.85986,,,,,,,,,,,,,,,,,,,,,,,,,,,,,,,,,,,,,0,20,20,76,1,,,,,,,,,,,,,,,,,,,,,,,,
,,,,,,,,,,,,a,Incorrect,,,,,,t5.png,t3.png,2,0.056466,21,female,2020-09-28_13h19.17.225,torte-2b,2020.1.3,Win32,60,12430,0.89966,,,,,,,,,,,,,,,,,,,,,,,,,,,,,,,,,,,,,0,21,21,108,1,,,,,,,,,,,,,,,,,,,,,,,,
,,,,,,,,,,,,a,Correct!,,,,,,t3.png,t4.png,1,0.909,21,female,2020-09-28_13h19.17.225,torte-2b,2020.1.3,Win32,60,12430,0.892175,,,,,,,,,,,,,,,,,,,,,,,,,,,,,,,,,,,,,0,22,22,82,1,,,,,,,,,,,,,,,,,,,,,,,,
,,,,,,,,,,,,a,Incorrect,,,,,,t2.png,t4.png,2,0.059078,21,female,2020-09-28_13h19.17.225,torte-2b,2020.1.3,Win32,60,12430,1.43382,,,,,,,,,,,,,,,,,,,,,,,,,,,,,,,,,,,,,0,23,23,11,1,,,,,,,,,,,,,,,,,,,,,,,,
,,,,,,,,,,,,l,Incorrect,,,,,,t2.png,t2.png,0,0.981,21,female,2020-09-28_13h19.17.225,torte-2b,2020.1.3,Win32,60,12430,0.825135,,,,,,,,,,,,,,,,,,,,,,,,,,,,,,,,,,,,,0,24,24,101,1,,,,,,,,,,,,,,,,,,,,,,,,
,,,,,,,,,,,,a,Incorrect,,,,,,t4.png,t1.png,3,0.0000131,21,female,2020-09-28_13h19.17.225,torte-2b,2020.1.3,Win32,60,12430,1.641775,,,,,,,,,,,,,,,,,,,,,,,,,,,,,,,,,,,,,0,25,25,93,1,,,,,,,,,,,,,,,,,,,,,,,,
,,,,,,,,,,,,l,Incorrect,,,,,,t2.png,t2.png,0,0.98115,21,female,2020-09-28_13h19.17.225,torte-2b,2020.1.3,Win32,60,12430,0.866455,,,,,,,,,,,,,,,,,,,,,,,,,,,,,,,,,,,,,0,26,26,59,1,,,,,,,,,,,,,,,,,,,,,,,,
,,,,,,,,,,,,a,Correct!,,,,,,t4.png,t3.png,1,0.90855,21,female,2020-09-28_13h19.17.225,torte-2b,2020.1.3,Win32,60,12430,0.69656,,,,,,,,,,,,,,,,,,,,,,,,,,,,,,,,,,,,,0,27,27,75,1,,,,,,,,,,,,,,,,,,,,,,,,
,,,,,,,,,,,,l,Incorrect,,,,,,t3.png,t2.png,1,0.909,21,female,2020-09-28_13h19.17.225,torte-2b,2020.1.3,Win32,60,12430,0.998395,,,,,,,,,,,,,,,,,,,,,,,,,,,,,,,,,,,,,0,28,28,3,1,,,,,,,,,,,,,,,,,,,,,,,,
,,,,,,,,,,,,l,Correct!,,,,,,t1.png,t3.png,2,0.056466,21,female,2020-09-28_13h19.17.225,torte-2b,2020.1.3,Win32,60,12430,0.986695,,,,,,,,,,,,,,,,,,,,,,,,,,,,,,,,,,,,,0,29,29,87,1,,,,,,,,,,,,,,,,,,,,,,,,
,,,,,,,,,,,,l,Correct!,,,,,,t1.png,t3.png,2,0.056466,21,female,2020-09-28_13h19.17.225,torte-2b,2020.1.3,Win32,60,12430,0.993975,,,,,,,,,,,,,,,,,,,,,,,,,,,,,,,,,,,,,0,30,30,99,1,,,,,,,,,,,,,,,,,,,,,,,,
,,,,,,,,,,,,l,Correct!,,,,,,t1.png,t4.png,3,0.0000131,21,female,2020-09-28_13h19.17.225,torte-2b,2020.1.3,Win32,60,12430,1.06774,,,,,,,,,,,,,,,,,,,,,,,,,,,,,,,,,,,,,0,31,31,17,1,,,,,,,,,,,,,,,,,,,,,,,,
,,,,,,,,,,,,l,Correct!,,,,,,t2.png,t3.png,1,0.90855,21,female,2020-09-28_13h19.17.225,torte-2b,2020.1.3,Win32,60,12430,0.890245,,,,,,,,,,,,,,,,,,,,,,,,,,,,,,,,,,,,,0,32,32,68,1,,,,,,,,,,,,,,,,,,,,,,,,
,,,,,,,,,,,,l,Incorrect,,,,,,t2.png,t2.png,0,0.98115,21,female,2020-09-28_13h19.17.225,torte-2b,2020.1.3,Win32,60,12430,0.577925,,,,,,,,,,,,,,,,,,,,,,,,,,,,,,,,,,,,,0,33,33,57,1,,,,,,,,,,,,,,,,,,,,,,,,
,,,,,,,,,,,,a,Incorrect,,,,,,t5.png,t1.png,4,9.55E-11,21,female,2020-09-28_13h19.17.225,torte-2b,2020.1.3,Win32,60,12430,0.71587,,,,,,,,,,,,,,,,,,,,,,,,,,,,,,,,,,,,,0,34,34,71,1,,,,,,,,,,,,,,,,,,,,,,,,
,,,,,,,,,,,,a,Incorrect,,,,,,t2.png,t5.png,3,0.0000131,21,female,2020-09-28_13h19.17.225,torte-2b,2020.1.3,Win32,60,12430,0.799135,,,,,,,,,,,,,,,,,,,,,,,,,,,,,,,,,,,,,0,35,35,40,1,,,,,,,,,,,,,,,,,,,,,,,,
,,,,,,,,,,,,l,Incorrect,,,,,,t2.png,t3.png,1,0.90855,21,female,2020-09-28_13h19.17.225,torte-2b,2020.1.3,Win32,60,12430,1.09931,,,,,,,,,,,,,,,,,,,,,,,,,,,,,,,,,,,,,0,36,36,111,1,,,,,,,,,,,,,,,,,,,,,,,,
,,,,,,,,,,,,l,Correct!,,,,,,t1.png,t4.png,3,0.0000131,21,female,2020-09-28_13h19.17.225,torte-2b,2020.1.3,Win32,60,12430,1.798155,,,,,,,,,,,,,,,,,,,,,,,,,,,,,,,,,,,,,0,37,37,107,1,,,,,,,,,,,,,,,,,,,,,,,,
,,,,,,,,,,,,a,Correct!,,,,,,t4.png,t5.png,1,0.9,21,female,2020-09-28_13h19.17.225,torte-2b,2020.1.3,Win32,60,12430,0.94899,,,,,,,,,,,,,,,,,,,,,,,,,,,,,,,,,,,,,0,38,38,115,1,,,,,,,,,,,,,,,,,,,,,,,,
,,,,,,,,,,,,a,Incorrect,,,,,,t2.png,t5.png,3,0.0000131,21,female,2020-09-28_13h19.17.225,torte-2b,2020.1.3,Win32,60,12430,0.89907,,,,,,,,,,,,,,,,,,,,,,,,,,,,,,,,,,,,,0,39,39,8,1,,,,,,,,,,,,,,,,,,,,,,,,
,,,,,,,,,,,,a,Incorrect,,,,,,t1.png,t5.png,4,9.55E-11,21,female,2020-09-28_13h19.17.225,torte-2b,2020.1.3,Win32,60,12430,1.18204,,,,,,,,,,,,,,,,,,,,,,,,,,,,,,,,,,,,,0,40,40,41,1,,,,,,,,,,,,,,,,,,,,,,,,
,,,,,,,,,,,,a,Correct!,,,,,,t5.png,t5.png,0,0.97829,21,female,2020-09-28_13h19.17.225,torte-2b,2020.1.3,Win32,60,12430,0.615625,,,,,,,,,,,,,,,,,,,,,,,,,,,,,,,,,,,,,0,41,41,94,1,,,,,,,,,,,,,,,,,,,,,,,,
,,,,,,,,,,,,l,Correct!,,,,,,t3.png,t1.png,2,0.0565,21,female,2020-09-28_13h19.17.225,torte-2b,2020.1.3,Win32,60,12430,0.642295,,,,,,,,,,,,,,,,,,,,,,,,,,,,,,,,,,,,,0,42,42,31,1,,,,,,,,,,,,,,,,,,,,,,,,
,,,,,,,,,,,,a,Correct!,,,,,,t3.png,t4.png,1,0.90855,21,female,2020-09-28_13h19.17.225,torte-2b,2020.1.3,Win32,60,12430,0.69929,,,,,,,,,,,,,,,,,,,,,,,,,,,,,,,,,,,,,0,43,43,96,1,,,,,,,,,,,,,,,,,,,,,,,,
,,,,,,,,,,,,a,Correct!,,,,,,t4.png,t3.png,1,0.90855,21,female,2020-09-28_13h19.17.225,torte-2b,2020.1.3,Win32,60,12430,1.03214,,,,,,,,,,,,,,,,,,,,,,,,,,,,,,,,,,,,,0,44,44,35,1,,,,,,,,,,,,,,,,,,,,,,,,
,,,,,,,,,,,,l,Correct!,,,,,,t4.png,t1.png,3,0.0000131,21,female,2020-09-28_13h19.17.225,torte-2b,2020.1.3,Win32,60,12430,0.899065,,,,,,,,,,,,,,,,,,,,,,,,,,,,,,,,,,,,,0,45,45,61,1,,,,,,,,,,,,,,,,,,,,,,,,
,,,,,,,,,,,,l,Incorrect,,,,,,t1.png,t1.png,0,0.97829,21,female,2020-09-28_13h19.17.225,torte-2b,2020.1.3,Win32,60,12430,0.982635,,,,,,,,,,,,,,,,,,,,,,,,,,,,,,,,,,,,,0,46,46,67,1,,,,,,,,,,,,,,,,,,,,,,,,
,,,,,,,,,,,,a,Incorrect,,,,,,t2.png,t5.png,3,0.0000131,21,female,2020-09-28_13h19.17.225,torte-2b,2020.1.3,Win32,60,12430,0.96563,,,,,,,,,,,,,,,,,,,,,,,,,,,,,,,,,,,,,0,47,47,104,1,,,,,,,,,,,,,,,,,,,,,,,,
,,,,,,,,,,,,l,Incorrect,,,,,,t1.png,t1.png,0,0.978,21,female,2020-09-28_13h19.17.225,torte-2b,2020.1.3,Win32,60,12430,1.33206,,,,,,,,,,,,,,,,,,,,,,,,,,,,,,,,,,,,,0,48,48,28,1,,,,,,,,,,,,,,,,,,,,,,,,
,,,,,,,,,,,,a,Incorrect,,,,,,t5.png,t2.png,3,0.0000131,21,female,2020-09-28_13h19.17.225,torte-2b,2020.1.3,Win32,60,12430,0.64938,,,,,,,,,,,,,,,,,,,,,,,,,,,,,,,,,,,,,0,49,49,116,1,,,,,,,,,,,,,,,,,,,,,,,,
,,,,,,,,,,,,a,Incorrect,,,,,,t5.png,t3.png,2,0.056466,21,female,2020-09-28_13h19.17.225,torte-2b,2020.1.3,Win32,60,12430,0.582915,,,,,,,,,,,,,,,,,,,,,,,,,,,,,,,,,,,,,0,50,50,114,1,,,,,,,,,,,,,,,,,,,,,,,,
,,,,,,,,,,,,a,Incorrect,,,,,,t4.png,t3.png,1,0.909,21,female,2020-09-28_13h19.17.225,torte-2b,2020.1.3,Win32,60,12430,0.6993,,,,,,,,,,,,,,,,,,,,,,,,,,,,,,,,,,,,,0,51,51,20,1,,,,,,,,,,,,,,,,,,,,,,,,
,,,,,,,,,,,,a,Incorrect,,,,,,t4.png,t2.png,2,0.059078,21,female,2020-09-28_13h19.17.225,torte-2b,2020.1.3,Win32,60,12430,1.19867,,,,,,,,,,,,,,,,,,,,,,,,,,,,,,,,,,,,,0,52,52,88,1,,,,,,,,,,,,,,,,,,,,,,,,
,,,,,,,,,,,,l,Incorrect,,,,,,t2.png,t3.png,1,0.90855,21,female,2020-09-28_13h19.17.225,torte-2b,2020.1.3,Win32,60,12430,0.749205,,,,,,,,,,,,,,,,,,,,,,,,,,,,,,,,,,,,,0,53,53,10,1,,,,,,,,,,,,,,,,,,,,,,,,
,,,,,,,,,,,,l,Incorrect,,,,,,t3.png,t2.png,1,0.90855,21,female,2020-09-28_13h19.17.225,torte-2b,2020.1.3,Win32,60,12430,0.86561,,,,,,,,,,,,,,,,,,,,,,,,,,,,,,,,,,,,,0,54,54,53,1,,,,,,,,,,,,,,,,,,,,,,,,
,,,,,,,,,,,,a,Incorrect,,,,,,t2.png,t4.png,2,0.059078,21,female,2020-09-28_13h19.17.225,torte-2b,2020.1.3,Win32,60,12430,1.182175,,,,,,,,,,,,,,,,,,,,,,,,,,,,,,,,,,,,,0,55,55,77,1,,,,,,,,,,,,,,,,,,,,,,,,
,,,,,,,,,,,,l,Correct!,,,,,,t3.png,t1.png,2,0.056466,21,female,2020-09-28_13h19.17.225,torte-2b,2020.1.3,Win32,60,12430,0.71627,,,,,,,,,,,,,,,,,,,,,,,,,,,,,,,,,,,,,0,56,56,32,1,,,,,,,,,,,,,,,,,,,,,,,,
,,,,,,,,,,,,l,Correct!,,,,,,t1.png,t3.png,2,0.056466,21,female,2020-09-28_13h19.17.225,torte-2b,2020.1.3,Win32,60,12430,0.932475,,,,,,,,,,,,,,,,,,,,,,,,,,,,,,,,,,,,,0,57,57,69,1,,,,,,,,,,,,,,,,,,,,,,,,
,,,,,,,,,,,,a,Correct!,,,,,,t5.png,t4.png,1,0.90025,21,female,2020-09-28_13h19.17.225,torte-2b,2020.1.3,Win32,60,12430,1.0324,,,,,,,,,,,,,,,,,,,,,,,,,,,,,,,,,,,,,0,58,58,26,1,,,,,,,,,,,,,,,,,,,,,,,,
,,,,,,,,,,,,a,Correct!,,,,,,t3.png,t4.png,1,0.909,21,female,2020-09-28_13h19.17.225,torte-2b,2020.1.3,Win32,60,12430,0.699405,,,,,,,,,,,,,,,,,,,,,,,,,,,,,,,,,,,,,0,59,59,106,1,,,,,,,,,,,,,,,,,,,,,,,,
,,,,,,,,,,,,a,Correct!,,,,,,t5.png,t5.png,0,0.978,21,female,2020-09-28_13h19.17.225,torte-2b,2020.1.3,Win32,60,12430,0.86545,,,,,,,,,,,,,,,,,,,,,,,,,,,,,,,,,,,,,0,60,60,117,1,,,,,,,,,,,,,,,,,,,,,,,,
,,,,,,,,,,,,a,Correct!,,,,,,t4.png,t3.png,1,0.909,21,female,2020-09-28_13h19.17.225,torte-2b,2020.1.3,Win32,60,12430,0.666015,,,,,,,,,,,,,,,,,,,,,,,,,,,,,,,,,,,,,0,61,61,46,1,,,,,,,,,,,,,,,,,,,,,,,,
,,,,,,,,,,,,l,Incorrect,,,,,,t1.png,t2.png,1,0.90025,21,female,2020-09-28_13h19.17.225,torte-2b,2020.1.3,Win32,60,12430,0.73251,,,,,,,,,,,,,,,,,,,,,,,,,,,,,,,,,,,,,0,62,62,33,1,,,,,,,,,,,,,,,,,,,,,,,,
,,,,,,,,,,,,a,Incorrect,,,,,,t1.png,t5.png,4,9.55E-11,21,female,2020-09-28_13h19.17.225,torte-2b,2020.1.3,Win32,60,12430,0.832685,,,,,,,,,,,,,,,,,,,,,,,,,,,,,,,,,,,,,0,63,63,85,1,,,,,,,,,,,,,,,,,,,,,,,,
,,,,,,,,,,,,l,Incorrect,,,,,,t2.png,t2.png,0,0.98115,21,female,2020-09-28_13h19.17.225,torte-2b,2020.1.3,Win32,60,12430,0.715825,,,,,,,,,,,,,,,,,,,,,,,,,,,,,,,,,,,,,0,64,64,7,1,,,,,,,,,,,,,,,,,,,,,,,,
,,,,,,,,,,,,a,Incorrect,,,,,,t2.png,t4.png,2,0.059078,21,female,2020-09-28_13h19.17.225,torte-2b,2020.1.3,Win32,60,12430,1.032045,,,,,,,,,,,,,,,,,,,,,,,,,,,,,,,,,,,,,0,65,65,37,1,,,,,,,,,,,,,,,,,,,,,,,,
,,,,,,,,,,,,a,Correct!,,,,,,t5.png,t4.png,1,0.90025,21,female,2020-09-28_13h19.17.225,torte-2b,2020.1.3,Win32,60,12430,0.98246,,,,,,,,,,,,,,,,,,,,,,,,,,,,,,,,,,,,,0,66,66,34,1,,,,,,,,,,,,,,,,,,,,,,,,
,,,,,,,,,,,,a,Correct!,,,,,,t4.png,t4.png,0,0.98115,21,female,2020-09-28_13h19.17.225,torte-2b,2020.1.3,Win32,60,12430,0.81593,,,,,,,,,,,,,,,,,,,,,,,,,,,,,,,,,,,,,0,67,67,90,1,,,,,,,,,,,,,,,,,,,,,,,,
,,,,,,,,,,,,a,Incorrect,,,,,,t5.png,t2.png,3,0.0000131,21,female,2020-09-28_13h19.17.225,torte-2b,2020.1.3,Win32,60,12430,0.715695,,,,,,,,,,,,,,,,,,,,,,,,,,,,,,,,,,,,,0,68,68,119,1,,,,,,,,,,,,,,,,,,,,,,,,
,,,,,,,,,,,,l,Incorrect,,,,,,t2.png,t2.png,0,0.98115,21,female,2020-09-28_13h19.17.225,torte-2b,2020.1.3,Win32,60,12430,1.63149,,,,,,,,,,,,,,,,,,,,,,,,,,,,,,,,,,,,,0,69,69,2,1,,,,,,,,,,,,,,,,,,,,,,,,
,,,,,,,,,,,,a,Correct!,,,,,,t4.png,t5.png,1,0.90025,21,female,2020-09-28_13h19.17.225,torte-2b,2020.1.3,Win32,60,12430,1.18192,,,,,,,,,,,,,,,,,,,,,,,,,,,,,,,,,,,,,0,70,70,113,1,,,,,,,,,,,,,,,,,,,,,,,,
,,,,,,,,,,,,a,Correct!,,,,,,t5.png,t5.png,0,0.97829,21,female,2020-09-28_13h19.17.225,torte-2b,2020.1.3,Win32,60,12430,0.54965,,,,,,,,,,,,,,,,,,,,,,,,,,,,,,,,,,,,,0,71,71,73,1,,,,,,,,,,,,,,,,,,,,,,,,
,,,,,,,,,,,,a,Incorrect,,,,,,t3.png,t5.png,2,0.056466,21,female,2020-09-28_13h19.17.225,torte-2b,2020.1.3,Win32,60,12430,0.54898,,,,,,,,,,,,,,,,,,,,,,,,,,,,,,,,,,,,,0,72,72,14,1,,,,,,,,,,,,,,,,,,,,,,,,
,,,,,,,,,,,,a,Correct!,,,,,,t4.png,t5.png,1,0.90025,21,female,2020-09-28_13h19.17.225,torte-2b,2020.1.3,Win32,60,12430,0.566265,,,,,,,,,,,,,,,,,,,,,,,,,,,,,,,,,,,,,0,73,73,103,1,,,,,,,,,,,,,,,,,,,,,,,,
,,,,,,,,,,,,a,Correct!,,,,,,t4.png,t4.png,0,0.98115,21,female,2020-09-28_13h19.17.225,torte-2b,2020.1.3,Win32,60,12430,0.49951,,,,,,,,,,,,,,,,,,,,,,,,,,,,,,,,,,,,,0,74,74,52,1,,,,,,,,,,,,,,,,,,,,,,,,
,,,,,,,,,,,,l,Correct!,,,,,,t2.png,t1.png,1,0.90025,21,female,2020-09-28_13h19.17.225,torte-2b,2020.1.3,Win32,60,12430,0.981945,,,,,,,,,,,,,,,,,,,,,,,,,,,,,,,,,,,,,0,75,75,62,1,,,,,,,,,,,,,,,,,,,,,,,,
,,,,,,,,,,,,l,Correct!,,,,,,t3.png,t1.png,2,0.056466,21,female,2020-09-28_13h19.17.225,torte-2b,2020.1.3,Win32,60,12430,0.782525,,,,,,,,,,,,,,,,,,,,,,,,,,,,,,,,,,,,,0,76,76,0,1,,,,,,,,,,,,,,,,,,,,,,,,
,,,,,,,,,,,,a,Incorrect,,,,,,t3.png,t5.png,2,0.0565,21,female,2020-09-28_13h19.17.225,torte-2b,2020.1.3,Win32,60,12430,1.09883,,,,,,,,,,,,,,,,,,,,,,,,,,,,,,,,,,,,,0,77,77,83,1,,,,,,,,,,,,,,,,,,,,,,,,
,,,,,,,,,,,,l,Incorrect,,,,,,t1.png,t2.png,1,0.90025,21,female,2020-09-28_13h19.17.225,torte-2b,2020.1.3,Win32,60,12430,0.76598,,,,,,,,,,,,,,,,,,,,,,,,,,,,,,,,,,,,,0,78,78,72,1,,,,,,,,,,,,,,,,,,,,,,,,
,,,,,,,,,,,,a,Incorrect,,,,,,t3.png,t5.png,2,0.0565,21,female,2020-09-28_13h19.17.225,torte-2b,2020.1.3,Win32,60,12430,0.81527,,,,,,,,,,,,,,,,,,,,,,,,,,,,,,,,,,,,,0,79,79,30,1,,,,,,,,,,,,,,,,,,,,,,,,
,,,,,,,,,,,,a,Incorrect,,,,,,t2.png,t4.png,2,0.059078,21,female,2020-09-28_13h19.17.225,torte-2b,2020.1.3,Win32,60,12430,1.065635,,,,,,,,,,,,,,,,,,,,,,,,,,,,,,,,,,,,,0,80,80,24,1,,,,,,,,,,,,,,,,,,,,,,,,
,,,,,,,,,,,,a,Incorrect,,,,,,t3.png,t5.png,2,0.056466,21,female,2020-09-28_13h19.17.225,torte-2b,2020.1.3,Win32,60,12430,1.46485,,,,,,,,,,,,,,,,,,,,,,,,,,,,,,,,,,,,,0,81,81,6,1,,,,,,,,,,,,,,,,,,,,,,,,
,,,,,,,,,,,,a,Incorrect,,,,,,t2.png,t5.png,3,0.0000131,21,female,2020-09-28_13h19.17.225,torte-2b,2020.1.3,Win32,60,12430,0.83282,,,,,,,,,,,,,,,,,,,,,,,,,,,,,,,,,,,,,0,82,82,66,1,,,,,,,,,,,,,,,,,,,,,,,,
,,,,,,,,,,,,a,Incorrect,,,,,,t5.png,t1.png,4,9.55E-11,21,female,2020-09-28_13h19.17.225,torte-2b,2020.1.3,Win32,60,12430,0.765965,,,,,,,,,,,,,,,,,,,,,,,,,,,,,,,,,,,,,0,83,83,22,1,,,,,,,,,,,,,,,,,,,,,,,,
,,,,,,,,,,,,a,Incorrect,,,,,,t1.png,t5.png,4,9.55E-11,21,female,2020-09-28_13h19.17.225,torte-2b,2020.1.3,Win32,60,12430,0.79905,,,,,,,,,,,,,,,,,,,,,,,,,,,,,,,,,,,,,0,84,84,55,1,,,,,,,,,,,,,,,,,,,,,,,,
,,,,,,,,,,,,l,Incorrect,,,,,,t1.png,t1.png,0,0.97829,21,female,2020-09-28_13h19.17.225,torte-2b,2020.1.3,Win32,60,12430,2.19774,,,,,,,,,,,,,,,,,,,,,,,,,,,,,,,,,,,,,0,85,85,78,1,,,,,,,,,,,,,,,,,,,,,,,,
,,,,,,,,,,,,a,Incorrect,,,,,,t5.png,t3.png,2,0.056466,21,female,2020-09-28_13h19.17.225,torte-2b,2020.1.3,Win32,60,12430,0.881995,,,,,,,,,,,,,,,,,,,,,,,,,,,,,,,,,,,,,0,86,86,38,1,,,,,,,,,,,,,,,,,,,,,,,,
,,,,,,,,,,,,a,Incorrect,,,,,,t5.png,t1.png,4,9.55E-11,21,female,2020-09-28_13h19.17.225,torte-2b,2020.1.3,Win32,60,12430,1.198485,,,,,,,,,,,,,,,,,,,,,,,,,,,,,,,,,,,,,0,87,87,43,1,,,,,,,,,,,,,,,,,,,,,,,,
,,,,,,,,,,,,a,Incorrect,,,,,,t3.png,t5.png,2,0.056466,21,female,2020-09-28_13h19.17.225,torte-2b,2020.1.3,Win32,60,12430,0.782785,,,,,,,,,,,,,,,,,,,,,,,,,,,,,,,,,,,,,0,88,88,44,1,,,,,,,,,,,,,,,,,,,,,,,,
,,,,,,,,,,,,a,Incorrect,,,,,,t1.png,t5.png,4,9.55E-11,21,female,2020-09-28_13h19.17.225,torte-2b,2020.1.3,Win32,60,12430,1.24875,,,,,,,,,,,,,,,,,,,,,,,,,,,,,,,,,,,,,0,89,89,16,1,,,,,,,,,,,,,,,,,,,,,,,,
,,,,,,,,,,,,,Too slow :(,,,,,,t2.png,t1.png,1,0.90025,21,female,2020-09-28_13h19.17.225,torte-2b,2020.1.3,Win32,60,12430,,,,,,,,,,,,,,,,,,,,,,,,,,,,,,,,,,,,,,0,90,90,4,1,,,,,,,,,,,,,,,,,,,,,,,,
,,,,,,,,,,,,a,Correct!,,,,,,t4.png,t2.png,2,0.0591,21,female,2020-09-28_13h19.17.225,torte-2b,2020.1.3,Win32,60,12430,1.731615,,,,,,,,,,,,,,,,,,,,,,,,,,,,,,,,,,,,,0,91,91,36,1,,,,,,,,,,,,,,,,,,,,,,,,
,,,,,,,,,,,,l,Incorrect,,,,,,t3.png,t2.png,1,0.90855,21,female,2020-09-28_13h19.17.225,torte-2b,2020.1.3,Win32,60,12430,1.98129,,,,,,,,,,,,,,,,,,,,,,,,,,,,,,,,,,,,,0,92,92,18,1,,,,,,,,,,,,,,,,,,,,,,,,
,,,,,,,,,,,,l,Correct!,,,,,,t3.png,t2.png,1,0.90855,21,female,2020-09-28_13h19.17.225,torte-2b,2020.1.3,Win32,60,12430,1.3817,,,,,,,,,,,,,,,,,,,,,,,,,,,,,,,,,,,,,0,93,93,97,1,,,,,,,,,,,,,,,,,,,,,,,,
,,,,,,,,,,,,l,Correct!,,,,,,t2.png,t4.png,2,0.0591,21,female,2020-09-28_13h19.17.225,torte-2b,2020.1.3,Win32,60,12430,1.514985,,,,,,,,,,,,,,,,,,,,,,,,,,,,,,,,,,,,,0,94,94,15,1,,,,,,,,,,,,,,,,,,,,,,,,
,,,,,,,,,,,,l,Incorrect,,,,,,t1.png,t2.png,1,0.90025,21,female,2020-09-28_13h19.17.225,torte-2b,2020.1.3,Win32,60,12430,0.966075,,,,,,,,,,,,,,,,,,,,,,,,,,,,,,,,,,,,,0,95,95,112,1,,,,,,,,,,,,,,,,,,,,,,,,
,,,,,,,,,,,,l,Incorrect,,,,,,t1.png,t2.png,1,0.90025,21,female,2020-09-28_13h19.17.225,torte-2b,2020.1.3,Win32,60,12430,1.082095,,,,,,,,,,,,,,,,,,,,,,,,,,,,,,,,,,,,,0,96,96,105,1,,,,,,,,,,,,,,,,,,,,,,,,
,,,,,,,,,,,,a,Incorrect,,,,,,t5.png,t1.png,4,9.55E-11,21,female,2020-09-28_13h19.17.225,torte-2b,2020.1.3,Win32,60,12430,0.82003,,,,,,,,,,,,,,,,,,,,,,,,,,,,,,,,,,,,,0,97,97,102,1,,,,,,,,,,,,,,,,,,,,,,,,
,,,,,,,,,,,,a,Incorrect,,,,,,t4.png,t2.png,2,0.059078,21,female,2020-09-28_13h19.17.225,torte-2b,2020.1.3,Win32,60,12430,0.89912,,,,,,,,,,,,,,,,,,,,,,,,,,,,,,,,,,,,,0,98,98,109,1,,,,,,,,,,,,,,,,,,,,,,,,
,,,,,,,,,,,,l,Incorrect,,,,,,t1.png,t1.png,0,0.97829,21,female,2020-09-28_13h19.17.225,torte-2b,2020.1.3,Win32,60,12430,1.93126,,,,,,,,,,,,,,,,,,,,,,,,,,,,,,,,,,,,,0,99,99,9,1,,,,,,,,,,,,,,,,,,,,,,,,
,,,,,,,,,,,,a,Correct!,,,,,,t4.png,t4.png,0,0.98115,21,female,2020-09-28_13h19.17.225,torte-2b,2020.1.3,Win32,60,12430,0.649125,,,,,,,,,,,,,,,,,,,,,,,,,,,,,,,,,,,,,0,100,100,80,1,,,,,,,,,,,,,,,,,,,,,,,,
,,,,,,,,,,,,a,Incorrect,,,,,,t4.png,t2.png,2,0.059078,21,female,2020-09-28_13h19.17.225,torte-2b,2020.1.3,Win32,60,12430,1.02786,,,,,,,,,,,,,,,,,,,,,,,,,,,,,,,,,,,,,0,101,101,86,1,,,,,,,,,,,,,,,,,,,,,,,,
,,,,,,,,,,,,l,Incorrect,,,,,,t2.png,t3.png,1,0.909,21,female,2020-09-28_13h19.17.225,torte-2b,2020.1.3,Win32,60,12430,1.248395,,,,,,,,,,,,,,,,,,,,,,,,,,,,,,,,,,,,,0,102,102,74,1,,,,,,,,,,,,,,,,,,,,,,,,
,,,,,,,,,,,,a,Correct!,,,,,,t4.png,t4.png,0,0.98115,21,female,2020-09-28_13h19.17.225,torte-2b,2020.1.3,Win32,60,12430,0.63265,,,,,,,,,,,,,,,,,,,,,,,,,,,,,,,,,,,,,0,103,103,79,1,,,,,,,,,,,,,,,,,,,,,,,,
,,,,,,,,,,,,l,Correct!,,,,,,t1.png,t4.png,3,0.0000131,21,female,2020-09-28_13h19.17.225,torte-2b,2020.1.3,Win32,60,12430,1.331485,,,,,,,,,,,,,,,,,,,,,,,,,,,,,,,,,,,,,0,104,104,50,1,,,,,,,,,,,,,,,,,,,,,,,,
,,,,,,,,,,,,l,Correct!,,,,,,t1.png,t3.png,2,0.056466,21,female,2020-09-28_13h19.17.225,torte-2b,2020.1.3,Win32,60,12430,0.798875,,,,,,,,,,,,,,,,,,,,,,,,,,,,,,,,,,,,,0,105,105,60,1,,,,,,,,,,,,,,,,,,,,,,,,
,,,,,,,,,,,,l,Incorrect,,,,,,t2.png,t3.png,1,0.90855,21,female,2020-09-28_13h19.17.225,torte-2b,2020.1.3,Win32,60,12430,1.298705,,,,,,,,,,,,,,,,,,,,,,,,,,,,,,,,,,,,,0,106,106,65,1,,,,,,,,,,,,,,,,,,,,,,,,
,,,,,,,,,,,,a,Incorrect,,,,,,t5.png,t2.png,3,0.0000131,21,female,2020-09-28_13h19.17.225,torte-2b,2020.1.3,Win32,60,12430,0.749015,,,,,,,,,,,,,,,,,,,,,,,,,,,,,,,,,,,,,0,107,107,98,1,,,,,,,,,,,,,,,,,,,,,,,,
,,,,,,,,,,,,l,Correct!,,,,,,t3.png,t4.png,1,0.909,21,female,2020-09-28_13h19.17.225,torte-2b,2020.1.3,Win32,60,12430,1.299225,,,,,,,,,,,,,,,,,,,,,,,,,,,,,,,,,,,,,0,108,108,89,1,,,,,,,,,,,,,,,,,,,,,,,,
,,,,,,,,,,,,a,Incorrect,,,,,,t5.png,t2.png,3,0.0000131,21,female,2020-09-28_13h19.17.225,torte-2b,2020.1.3,Win32,60,12430,0.998955,,,,,,,,,,,,,,,,,,,,,,,,,,,,,,,,,,,,,0,109,109,51,1,,,,,,,,,,,,,,,,,,,,,,,,
,,,,,,,,,,,,a,Correct!,,,,,,t5.png,t5.png,0,0.97829,21,female,2020-09-28_13h19.17.225,torte-2b,2020.1.3,Win32,60,12430,0.832355,,,,,,,,,,,,,,,,,,,,,,,,,,,,,,,,,,,,,0,110,110,70,1,,,,,,,,,,,,,,,,,,,,,,,,
,,,,,,,,,,,,a,Correct!,,,,,,t4.png,t5.png,1,0.90025,21,female,2020-09-28_13h19.17.225,torte-2b,2020.1.3,Win32,60,12430,0.599275,,,,,,,,,,,,,,,,,,,,,,,,,,,,,,,,,,,,,0,111,111,58,1,,,,,,,,,,,,,,,,,,,,,,,,
,,,,,,,,,,,,l,Incorrect,,,,,,t3.png,t2.png,1,0.909,21,female,2020-09-28_13h19.17.225,torte-2b,2020.1.3,Win32,60,12430,0.81559,,,,,,,,,,,,,,,,,,,,,,,,,,,,,,,,,,,,,0,112,112,23,1,,,,,,,,,,,,,,,,,,,,,,,,
,,,,,,,,,,,,a,Correct!,,,,,,t5.png,t4.png,1,0.90025,21,female,2020-09-28_13h19.17.225,torte-2b,2020.1.3,Win32,60,12430,0.682715,,,,,,,,,,,,,,,,,,,,,,,,,,,,,,,,,,,,,0,113,113,27,1,,,,,,,,,,,,,,,,,,,,,,,,
,,,,,,,,,,,,l,Correct!,,,,,,t4.png,t1.png,3,0.0000131,21,female,2020-09-28_13h19.17.225,torte-2b,2020.1.3,Win32,60,12430,1.0158,,,,,,,,,,,,,,,,,,,,,,,,,,,,,,,,,,,,,0,114,114,42,1,,,,,,,,,,,,,,,,,,,,,,,,
,,,,,,,,,,,,a,Correct!,,,,,,t4.png,t3.png,1,0.90855,21,female,2020-09-28_13h19.17.225,torte-2b,2020.1.3,Win32,60,12430,1.31523,,,,,,,,,,,,,,,,,,,,,,,,,,,,,,,,,,,,,0,115,115,45,1,,,,,,,,,,,,,,,,,,,,,,,,
,,,,,,,,,,,,a,Correct!,,,,,,t4.png,t5.png,1,0.90025,21,female,2020-09-28_13h19.17.225,torte-2b,2020.1.3,Win32,60,12430,0.816265,,,,,,,,,,,,,,,,,,,,,,,,,,,,,,,,,,,,,0,116,116,47,1,,,,,,,,,,,,,,,,,,,,,,,,
,,,,,,,,,,,,l,Correct!,,,,,,t3.png,t1.png,2,0.056466,21,female,2020-09-28_13h19.17.225,torte-2b,2020.1.3,Win32,60,12430,0.98245,,,,,,,,,,,,,,,,,,,,,,,,,,,,,,,,,,,,,0,117,117,29,1,,,,,,,,,,,,,,,,,,,,,,,,
,,,,,,,,,,,,l,Correct!,,,,,,t1.png,t4.png,3,0.0000131,21,female,2020-09-28_13h19.17.225,torte-2b,2020.1.3,Win32,60,12430,1.46505,,,,,,,,,,,,,,,,,,,,,,,,,,,,,,,,,,,,,0,118,118,81,1,,,,,,,,,,,,,,,,,,,,,,,,
,,,,,,,,,,,,l,Correct!,,,,,,t3.png,t1.png,2,0.056466,21,female,2020-09-28_13h19.17.225,torte-2b,2020.1.3,Win32,60,12430,0.782535,,,,,,,,,,,,,,,,,,,,,,,,,,,,,,,,,,,,,0,119,119,64,1,,,,,,,,,,,,,,,,,,,,,,,,
,,,,,,,,,,,,,,,,,,,,,,,21,female,2020-09-28_13h19.17.225,torte-2b,2020.1.3,Win32,60,12430,,space,2.697715,,,,,,,,,,,,,,,,,,,,,,,,,,,,,,,,,,,,,,,,103,10,1,0,0,s4,102,29,1,0,0,t2,220,-97,1,0,0,proceed,space,1.17481,space,4.0069,space,1.57018
