key_resp_8.keys,key_resp_8.rt,key_resp_9.keys,key_resp_9.rt,key_resp_10.keys,key_resp_10.rt,key_resp_11.keys,key_resp_11.rt,key_resp_2.keys,key_resp_2.rt,key_resp_3.keys,key_resp_3.rt,key_resp.keys,Feedback,train.thisRepN,train.thisTrialN,train.thisN,train.thisIndex,train.ran,torta_sx,torta_dx,difference,probability,age,gender,date,expName,psychopyVersion,OS,frameRate,participant,key_resp.rt,key_resp_15.keys,key_resp_15.rt,key_resp_6.keys,key_resp_6.rt,test1.thisRepN,test1.thisTrialN,test1.thisN,test1.thisIndex,test1.ran,key_resp_4.keys,key_resp_4.rt,key_resp_5.keys,back1.thisRepN,back1.thisTrialN,back1.thisN,back1.thisIndex,back1.ran,letter,key_resp_5.rt,back2.thisRepN,back2.thisTrialN,back2.thisN,back2.thisIndex,back2.ran,back3.thisRepN,back3.thisTrialN,back3.thisN,back3.thisIndex,back3.ran,back4.thisRepN,back4.thisTrialN,back4.thisN,back4.thisIndex,back4.ran,key_resp_7.keys,key_resp_7.rt,test2.thisRepN,test2.thisTrialN,test2.thisN,test2.thisIndex,test2.ran,mouse.x,mouse.y,mouse.leftButton,mouse.midButton,mouse.rightButton,mouse.clicked_name,mouse_2.x,mouse_2.y,mouse_2.leftButton,mouse_2.midButton,mouse_2.rightButton,mouse_2.clicked_name,mouse_3.x,mouse_3.y,mouse_3.leftButton,mouse_3.midButton,mouse_3.rightButton,mouse_3.clicked_name,key_resp_12.keys,key_resp_12.rt,key_resp_13.keys,key_resp_13.rt,key_resp_14.keys,key_resp_14.rt
space,1.12463,space,2.166195,space,2.826685,space,1.549815,space,4.68574,space,35.507645,,Too slow :(,0,0,0,4,1,t1.png,t5.png,4,9.55E-11,20,female,2020-09-28_12h39.45.729,torte-2b,2020.1.3,Win32,60,12724,,,,,,,,,,,,,,,,,,,,,,,,,,,,,,,,,,,,,,,,,,,,,,,,,,,,,,,,,,,,,,,,,,
,,,,,,,,,,,,a,Incorrect,0,1,1,1,1,t2.png,t4.png,2,0.059078,20,female,2020-09-28_12h39.45.729,torte-2b,2020.1.3,Win32,60,12724,0.550225,,,,,,,,,,,,,,,,,,,,,,,,,,,,,,,,,,,,,,,,,,,,,,,,,,,,,,,,,,,,,,,,,
,,,,,,,,,,,,l,Incorrect,0,2,2,44,1,t2.png,t3.png,1,0.909,20,female,2020-09-28_12h39.45.729,torte-2b,2020.1.3,Win32,60,12724,0.280775,,,,,,,,,,,,,,,,,,,,,,,,,,,,,,,,,,,,,,,,,,,,,,,,,,,,,,,,,,,,,,,,,
,,,,,,,,,,,,l,Incorrect,0,3,3,85,1,t3.png,t2.png,1,0.90855,20,female,2020-09-28_12h39.45.729,torte-2b,2020.1.3,Win32,60,12724,0.323245,,,,,,,,,,,,,,,,,,,,,,,,,,,,,,,,,,,,,,,,,,,,,,,,,,,,,,,,,,,,,,,,,
,,,,,,,,,,,,l,Incorrect,0,4,4,18,1,t4.png,t5.png,1,0.90025,20,female,2020-09-28_12h39.45.729,torte-2b,2020.1.3,Win32,60,12724,1.01705,,,,,,,,,,,,,,,,,,,,,,,,,,,,,,,,,,,,,,,,,,,,,,,,,,,,,,,,,,,,,,,,,
,,,,,,,,,,,,a,Incorrect,0,5,5,50,1,t5.png,t1.png,4,9.55E-11,20,female,2020-09-28_12h39.45.729,torte-2b,2020.1.3,Win32,60,12724,0.265255,,,,,,,,,,,,,,,,,,,,,,,,,,,,,,,,,,,,,,,,,,,,,,,,,,,,,,,,,,,,,,,,,
,,,,,,,,,,,,a,Incorrect,0,6,6,90,1,t1.png,t5.png,4,9.55E-11,20,female,2020-09-28_12h39.45.729,torte-2b,2020.1.3,Win32,60,12724,0.25101,,,,,,,,,,,,,,,,,,,,,,,,,,,,,,,,,,,,,,,,,,,,,,,,,,,,,,,,,,,,,,,,,
,,,,,,,,,,,,a,Correct!,0,7,7,92,1,t2.png,t3.png,1,0.909,20,female,2020-09-28_12h39.45.729,torte-2b,2020.1.3,Win32,60,12724,0.265795,,,,,,,,,,,,,,,,,,,,,,,,,,,,,,,,,,,,,,,,,,,,,,,,,,,,,,,,,,,,,,,,,
,,,,,,,,,,,,a,Incorrect,0,8,8,60,1,t2.png,t4.png,2,0.059078,20,female,2020-09-28_12h39.45.729,torte-2b,2020.1.3,Win32,60,12724,0.496785,,,,,,,,,,,,,,,,,,,,,,,,,,,,,,,,,,,,,,,,,,,,,,,,,,,,,,,,,,,,,,,,,
,,,,,,,,,,,,l,Correct!,0,9,9,36,1,t3.png,t1.png,2,0.0565,20,female,2020-09-28_12h39.45.729,torte-2b,2020.1.3,Win32,60,12724,0.505715,,,,,,,,,,,,,,,,,,,,,,,,,,,,,,,,,,,,,,,,,,,,,,,,,,,,,,,,,,,,,,,,,
,,,,,,,,,,,,l,Incorrect,0,10,10,13,1,t5.png,t5.png,0,0.97829,20,female,2020-09-28_12h39.45.729,torte-2b,2020.1.3,Win32,60,12724,0.954735,,,,,,,,,,,,,,,,,,,,,,,,,,,,,,,,,,,,,,,,,,,,,,,,,,,,,,,,,,,,,,,,,
,,,,,,,,,,,,a,Incorrect,0,11,11,119,1,t1.png,t5.png,4,9.55E-11,20,female,2020-09-28_12h39.45.729,torte-2b,2020.1.3,Win32,60,12724,0.283105,,,,,,,,,,,,,,,,,,,,,,,,,,,,,,,,,,,,,,,,,,,,,,,,,,,,,,,,,,,,,,,,,
,,,,,,,,,,,,l,Correct!,0,12,12,46,1,t4.png,t2.png,2,0.059078,20,female,2020-09-28_12h39.45.729,torte-2b,2020.1.3,Win32,60,12724,0.475775,,,,,,,,,,,,,,,,,,,,,,,,,,,,,,,,,,,,,,,,,,,,,,,,,,,,,,,,,,,,,,,,,
,,,,,,,,,,,,a,Incorrect,0,13,13,80,1,t1.png,t4.png,3,0.0000131,20,female,2020-09-28_12h39.45.729,torte-2b,2020.1.3,Win32,60,12724,0.43936,,,,,,,,,,,,,,,,,,,,,,,,,,,,,,,,,,,,,,,,,,,,,,,,,,,,,,,,,,,,,,,,,
,,,,,,,,,,,,a,Incorrect,0,14,14,89,1,t1.png,t4.png,3,0.0000131,20,female,2020-09-28_12h39.45.729,torte-2b,2020.1.3,Win32,60,12724,0.405645,,,,,,,,,,,,,,,,,,,,,,,,,,,,,,,,,,,,,,,,,,,,,,,,,,,,,,,,,,,,,,,,,
,,,,,,,,,,,,l,Correct!,0,15,15,43,1,t4.png,t2.png,2,0.059078,20,female,2020-09-28_12h39.45.729,torte-2b,2020.1.3,Win32,60,12724,0.30538,,,,,,,,,,,,,,,,,,,,,,,,,,,,,,,,,,,,,,,,,,,,,,,,,,,,,,,,,,,,,,,,,
,,,,,,,,,,,,l,Correct!,0,16,16,41,1,t3.png,t2.png,1,0.90855,20,female,2020-09-28_12h39.45.729,torte-2b,2020.1.3,Win32,60,12724,0.88508,,,,,,,,,,,,,,,,,,,,,,,,,,,,,,,,,,,,,,,,,,,,,,,,,,,,,,,,,,,,,,,,,
,,,,,,,,,,,,a,Incorrect,0,17,17,6,1,t1.png,t4.png,3,0.0000131,20,female,2020-09-28_12h39.45.729,torte-2b,2020.1.3,Win32,60,12724,0.66606,,,,,,,,,,,,,,,,,,,,,,,,,,,,,,,,,,,,,,,,,,,,,,,,,,,,,,,,,,,,,,,,,
,,,,,,,,,,,,l,Incorrect,0,18,18,15,1,t3.png,t2.png,1,0.90855,20,female,2020-09-28_12h39.45.729,torte-2b,2020.1.3,Win32,60,12724,0.47412,,,,,,,,,,,,,,,,,,,,,,,,,,,,,,,,,,,,,,,,,,,,,,,,,,,,,,,,,,,,,,,,,
,,,,,,,,,,,,a,Correct!,0,19,19,48,1,t5.png,t5.png,0,0.97829,20,female,2020-09-28_12h39.45.729,torte-2b,2020.1.3,Win32,60,12724,0.48289,,,,,,,,,,,,,,,,,,,,,,,,,,,,,,,,,,,,,,,,,,,,,,,,,,,,,,,,,,,,,,,,,
,,,,,,,,,,,,a,Incorrect,0,20,20,35,1,t1.png,t4.png,3,0.0000131,20,female,2020-09-28_12h39.45.729,torte-2b,2020.1.3,Win32,60,12724,0.448135,,,,,,,,,,,,,,,,,,,,,,,,,,,,,,,,,,,,,,,,,,,,,,,,,,,,,,,,,,,,,,,,,
,,,,,,,,,,,,l,Incorrect,0,21,21,105,1,t3.png,t2.png,1,0.90855,20,female,2020-09-28_12h39.45.729,torte-2b,2020.1.3,Win32,60,12724,0.518535,,,,,,,,,,,,,,,,,,,,,,,,,,,,,,,,,,,,,,,,,,,,,,,,,,,,,,,,,,,,,,,,,
,,,,,,,,,,,,a,Incorrect,0,22,22,72,1,t4.png,t2.png,2,0.059078,20,female,2020-09-28_12h39.45.729,torte-2b,2020.1.3,Win32,60,12724,0.28383,,,,,,,,,,,,,,,,,,,,,,,,,,,,,,,,,,,,,,,,,,,,,,,,,,,,,,,,,,,,,,,,,
,,,,,,,,,,,,l,Correct!,0,23,23,0,1,t5.png,t1.png,4,9.55E-11,20,female,2020-09-28_12h39.45.729,torte-2b,2020.1.3,Win32,60,12724,0.44693,,,,,,,,,,,,,,,,,,,,,,,,,,,,,,,,,,,,,,,,,,,,,,,,,,,,,,,,,,,,,,,,,
,,,,,,,,,,,,a,Correct!,0,24,24,77,1,t1.png,t1.png,0,0.97829,20,female,2020-09-28_12h39.45.729,torte-2b,2020.1.3,Win32,60,12724,0.61389,,,,,,,,,,,,,,,,,,,,,,,,,,,,,,,,,,,,,,,,,,,,,,,,,,,,,,,,,,,,,,,,,
,,,,,,,,,,,,l,Incorrect,0,25,25,65,1,t4.png,t5.png,1,0.90025,20,female,2020-09-28_12h39.45.729,torte-2b,2020.1.3,Win32,60,12724,0.515265,,,,,,,,,,,,,,,,,,,,,,,,,,,,,,,,,,,,,,,,,,,,,,,,,,,,,,,,,,,,,,,,,
,,,,,,,,,,,,a,Correct!,0,26,26,20,1,t2.png,t3.png,1,0.90855,20,female,2020-09-28_12h39.45.729,torte-2b,2020.1.3,Win32,60,12724,0.150885,,,,,,,,,,,,,,,,,,,,,,,,,,,,,,,,,,,,,,,,,,,,,,,,,,,,,,,,,,,,,,,,,
,,,,,,,,,,,,a,Correct!,0,27,27,58,1,t5.png,t4.png,1,0.90025,20,female,2020-09-28_12h39.45.729,torte-2b,2020.1.3,Win32,60,12724,1.12967,,,,,,,,,,,,,,,,,,,,,,,,,,,,,,,,,,,,,,,,,,,,,,,,,,,,,,,,,,,,,,,,,
,,,,,,,,,,,,a,Incorrect,0,28,28,102,1,t4.png,t2.png,2,0.059078,20,female,2020-09-28_12h39.45.729,torte-2b,2020.1.3,Win32,60,12724,1.32945,,,,,,,,,,,,,,,,,,,,,,,,,,,,,,,,,,,,,,,,,,,,,,,,,,,,,,,,,,,,,,,,,
,,,,,,,,,,,,l,Correct!,0,29,29,61,1,t1.png,t4.png,3,0.0000131,20,female,2020-09-28_12h39.45.729,torte-2b,2020.1.3,Win32,60,12724,1.681145,,,,,,,,,,,,,,,,,,,,,,,,,,,,,,,,,,,,,,,,,,,,,,,,,,,,,,,,,,,,,,,,,
,,,,,,,,,,,,l,Incorrect,0,30,30,76,1,t3.png,t2.png,1,0.90855,20,female,2020-09-28_12h39.45.729,torte-2b,2020.1.3,Win32,60,12724,0.51661,,,,,,,,,,,,,,,,,,,,,,,,,,,,,,,,,,,,,,,,,,,,,,,,,,,,,,,,,,,,,,,,,
,,,,,,,,,,,,l,Correct!,0,31,31,40,1,t1.png,t5.png,4,9.55E-11,20,female,2020-09-28_12h39.45.729,torte-2b,2020.1.3,Win32,60,12724,0.671165,,,,,,,,,,,,,,,,,,,,,,,,,,,,,,,,,,,,,,,,,,,,,,,,,,,,,,,,,,,,,,,,,
,,,,,,,,,,,,a,Correct!,0,32,32,45,1,t3.png,t2.png,1,0.90855,20,female,2020-09-28_12h39.45.729,torte-2b,2020.1.3,Win32,60,12724,0.615005,,,,,,,,,,,,,,,,,,,,,,,,,,,,,,,,,,,,,,,,,,,,,,,,,,,,,,,,,,,,,,,,,
,,,,,,,,,,,,a,Correct!,0,33,33,7,1,t4.png,t5.png,1,0.90025,20,female,2020-09-28_12h39.45.729,torte-2b,2020.1.3,Win32,60,12724,0.607955,,,,,,,,,,,,,,,,,,,,,,,,,,,,,,,,,,,,,,,,,,,,,,,,,,,,,,,,,,,,,,,,,
,,,,,,,,,,,,l,Correct!,0,34,34,69,1,t4.png,t2.png,2,0.059078,20,female,2020-09-28_12h39.45.729,torte-2b,2020.1.3,Win32,60,12724,0.268245,,,,,,,,,,,,,,,,,,,,,,,,,,,,,,,,,,,,,,,,,,,,,,,,,,,,,,,,,,,,,,,,,
,,,,,,,,,,,,l,Correct!,0,35,35,27,1,t3.png,t1.png,2,0.0565,20,female,2020-09-28_12h39.45.729,torte-2b,2020.1.3,Win32,60,12724,0.380105,,,,,,,,,,,,,,,,,,,,,,,,,,,,,,,,,,,,,,,,,,,,,,,,,,,,,,,,,,,,,,,,,
,,,,,,,,,,,,a,Incorrect,0,36,36,82,1,t5.png,t1.png,4,9.55E-11,20,female,2020-09-28_12h39.45.729,torte-2b,2020.1.3,Win32,60,12724,0.767495,,,,,,,,,,,,,,,,,,,,,,,,,,,,,,,,,,,,,,,,,,,,,,,,,,,,,,,,,,,,,,,,,
,,,,,,,,,,,,a,Incorrect,0,37,37,87,1,t5.png,t1.png,4,9.55E-11,20,female,2020-09-28_12h39.45.729,torte-2b,2020.1.3,Win32,60,12724,0.66627,,,,,,,,,,,,,,,,,,,,,,,,,,,,,,,,,,,,,,,,,,,,,,,,,,,,,,,,,,,,,,,,,
,,,,,,,,,,,,l,Incorrect,0,38,38,66,1,t4.png,t5.png,1,0.9,20,female,2020-09-28_12h39.45.729,torte-2b,2020.1.3,Win32,60,12724,0.289325,,,,,,,,,,,,,,,,,,,,,,,,,,,,,,,,,,,,,,,,,,,,,,,,,,,,,,,,,,,,,,,,,
,,,,,,,,,,,,l,Incorrect,0,39,39,118,1,t5.png,t5.png,0,0.978,20,female,2020-09-28_12h39.45.729,torte-2b,2020.1.3,Win32,60,12724,0.319425,,,,,,,,,,,,,,,,,,,,,,,,,,,,,,,,,,,,,,,,,,,,,,,,,,,,,,,,,,,,,,,,,
,,,,,,,,,,,,l,Incorrect,0,40,40,114,1,t2.png,t3.png,1,0.90855,20,female,2020-09-28_12h39.45.729,torte-2b,2020.1.3,Win32,60,12724,0.34988,,,,,,,,,,,,,,,,,,,,,,,,,,,,,,,,,,,,,,,,,,,,,,,,,,,,,,,,,,,,,,,,,
,,,,,,,,,,,,a,Incorrect,0,41,41,73,1,t4.png,t2.png,2,0.059078,20,female,2020-09-28_12h39.45.729,torte-2b,2020.1.3,Win32,60,12724,0.28878,,,,,,,,,,,,,,,,,,,,,,,,,,,,,,,,,,,,,,,,,,,,,,,,,,,,,,,,,,,,,,,,,
,,,,,,,,,,,,a,Correct!,0,42,42,70,1,t5.png,t5.png,0,0.978,20,female,2020-09-28_12h39.45.729,torte-2b,2020.1.3,Win32,60,12724,0.287405,,,,,,,,,,,,,,,,,,,,,,,,,,,,,,,,,,,,,,,,,,,,,,,,,,,,,,,,,,,,,,,,,
,,,,,,,,,,,,a,Correct!,0,43,43,79,1,t3.png,t2.png,1,0.909,20,female,2020-09-28_12h39.45.729,torte-2b,2020.1.3,Win32,60,12724,0.30012,,,,,,,,,,,,,,,,,,,,,,,,,,,,,,,,,,,,,,,,,,,,,,,,,,,,,,,,,,,,,,,,,
,,,,,,,,,,,,a,Incorrect,0,44,44,37,1,t1.png,t4.png,3,0.0000131,20,female,2020-09-28_12h39.45.729,torte-2b,2020.1.3,Win32,60,12724,0.37626,,,,,,,,,,,,,,,,,,,,,,,,,,,,,,,,,,,,,,,,,,,,,,,,,,,,,,,,,,,,,,,,,
,,,,,,,,,,,,l,Correct!,0,45,45,108,1,t5.png,t1.png,4,9.55E-11,20,female,2020-09-28_12h39.45.729,torte-2b,2020.1.3,Win32,60,12724,0.38355,,,,,,,,,,,,,,,,,,,,,,,,,,,,,,,,,,,,,,,,,,,,,,,,,,,,,,,,,,,,,,,,,
,,,,,,,,,,,,l,Incorrect,0,46,46,29,1,t5.png,t5.png,0,0.97829,20,female,2020-09-28_12h39.45.729,torte-2b,2020.1.3,Win32,60,12724,0.5631,,,,,,,,,,,,,,,,,,,,,,,,,,,,,,,,,,,,,,,,,,,,,,,,,,,,,,,,,,,,,,,,,
,,,,,,,,,,,,l,Correct!,0,47,47,94,1,t5.png,t1.png,4,9.55E-11,20,female,2020-09-28_12h39.45.729,torte-2b,2020.1.3,Win32,60,12724,1.23283,,,,,,,,,,,,,,,,,,,,,,,,,,,,,,,,,,,,,,,,,,,,,,,,,,,,,,,,,,,,,,,,,
,,,,,,,,,,,,l,Incorrect,0,48,48,64,1,t1.png,t1.png,0,0.978,20,female,2020-09-28_12h39.45.729,torte-2b,2020.1.3,Win32,60,12724,0.99047,,,,,,,,,,,,,,,,,,,,,,,,,,,,,,,,,,,,,,,,,,,,,,,,,,,,,,,,,,,,,,,,,
,,,,,,,,,,,,a,Correct!,0,49,49,49,1,t4.png,t5.png,1,0.9,20,female,2020-09-28_12h39.45.729,torte-2b,2020.1.3,Win32,60,12724,0.2565,,,,,,,,,,,,,,,,,,,,,,,,,,,,,,,,,,,,,,,,,,,,,,,,,,,,,,,,,,,,,,,,,
,,,,,,,,,,,,l,Incorrect,0,50,50,112,1,t1.png,t1.png,0,0.97829,20,female,2020-09-28_12h39.45.729,torte-2b,2020.1.3,Win32,60,12724,0.28093,,,,,,,,,,,,,,,,,,,,,,,,,,,,,,,,,,,,,,,,,,,,,,,,,,,,,,,,,,,,,,,,,
,,,,,,,,,,,,l,Incorrect,0,51,51,34,1,t5.png,t4.png,1,0.9,20,female,2020-09-28_12h39.45.729,torte-2b,2020.1.3,Win32,60,12724,0.296415,,,,,,,,,,,,,,,,,,,,,,,,,,,,,,,,,,,,,,,,,,,,,,,,,,,,,,,,,,,,,,,,,
,,,,,,,,,,,,a,Incorrect,0,52,52,98,1,t2.png,t4.png,2,0.0591,20,female,2020-09-28_12h39.45.729,torte-2b,2020.1.3,Win32,60,12724,0.15018,,,,,,,,,,,,,,,,,,,,,,,,,,,,,,,,,,,,,,,,,,,,,,,,,,,,,,,,,,,,,,,,,
,,,,,,,,,,,,l,Incorrect,0,53,53,10,1,t2.png,t3.png,1,0.90855,20,female,2020-09-28_12h39.45.729,torte-2b,2020.1.3,Win32,60,12724,0.36367,,,,,,,,,,,,,,,,,,,,,,,,,,,,,,,,,,,,,,,,,,,,,,,,,,,,,,,,,,,,,,,,,
,,,,,,,,,,,,l,Incorrect,0,54,54,97,1,t5.png,t5.png,0,0.97829,20,female,2020-09-28_12h39.45.729,torte-2b,2020.1.3,Win32,60,12724,0.65196,,,,,,,,,,,,,,,,,,,,,,,,,,,,,,,,,,,,,,,,,,,,,,,,,,,,,,,,,,,,,,,,,
,,,,,,,,,,,,l,Incorrect,0,55,55,107,1,t1.png,t1.png,0,0.978,20,female,2020-09-28_12h39.45.729,torte-2b,2020.1.3,Win32,60,12724,0.536915,,,,,,,,,,,,,,,,,,,,,,,,,,,,,,,,,,,,,,,,,,,,,,,,,,,,,,,,,,,,,,,,,
,,,,,,,,,,,,l,Correct!,0,56,56,5,1,t2.png,t4.png,2,0.059078,20,female,2020-09-28_12h39.45.729,torte-2b,2020.1.3,Win32,60,12724,0.65842,,,,,,,,,,,,,,,,,,,,,,,,,,,,,,,,,,,,,,,,,,,,,,,,,,,,,,,,,,,,,,,,,
,,,,,,,,,,,,a,Incorrect,0,57,57,24,1,t4.png,t2.png,2,0.059078,20,female,2020-09-28_12h39.45.729,torte-2b,2020.1.3,Win32,60,12724,0.837675,,,,,,,,,,,,,,,,,,,,,,,,,,,,,,,,,,,,,,,,,,,,,,,,,,,,,,,,,,,,,,,,,
,,,,,,,,,,,,l,Incorrect,0,58,58,8,1,t3.png,t2.png,1,0.90855,20,female,2020-09-28_12h39.45.729,torte-2b,2020.1.3,Win32,60,12724,0.284235,,,,,,,,,,,,,,,,,,,,,,,,,,,,,,,,,,,,,,,,,,,,,,,,,,,,,,,,,,,,,,,,,
,,,,,,,,,,,,l,Incorrect,0,59,59,62,1,t5.png,t5.png,0,0.978,20,female,2020-09-28_12h39.45.729,torte-2b,2020.1.3,Win32,60,12724,0.325005,,,,,,,,,,,,,,,,,,,,,,,,,,,,,,,,,,,,,,,,,,,,,,,,,,,,,,,,,,,,,,,,,
,,,,,,,,,,,,l,Incorrect,0,60,60,25,1,t5.png,t5.png,0,0.97829,20,female,2020-09-28_12h39.45.729,torte-2b,2020.1.3,Win32,60,12724,0.281945,,,,,,,,,,,,,,,,,,,,,,,,,,,,,,,,,,,,,,,,,,,,,,,,,,,,,,,,,,,,,,,,,
,,,,,,,,,,,,l,Correct!,0,61,61,63,1,t2.png,t3.png,1,0.909,20,female,2020-09-28_12h39.45.729,torte-2b,2020.1.3,Win32,60,12724,0.075765,,,,,,,,,,,,,,,,,,,,,,,,,,,,,,,,,,,,,,,,,,,,,,,,,,,,,,,,,,,,,,,,,
,,,,,,,,,,,,l,Incorrect,0,62,62,84,1,t1.png,t1.png,0,0.97829,20,female,2020-09-28_12h39.45.729,torte-2b,2020.1.3,Win32,60,12724,0.296605,,,,,,,,,,,,,,,,,,,,,,,,,,,,,,,,,,,,,,,,,,,,,,,,,,,,,,,,,,,,,,,,,
,,,,,,,,,,,,a,Correct!,0,63,63,115,1,t2.png,t4.png,2,0.059078,20,female,2020-09-28_12h39.45.729,torte-2b,2020.1.3,Win32,60,12724,0.216255,,,,,,,,,,,,,,,,,,,,,,,,,,,,,,,,,,,,,,,,,,,,,,,,,,,,,,,,,,,,,,,,,
,,,,,,,,,,,,,Too slow :(,0,64,64,109,1,t5.png,t5.png,0,0.97829,20,female,2020-09-28_12h39.45.729,torte-2b,2020.1.3,Win32,60,12724,,,,,,,,,,,,,,,,,,,,,,,,,,,,,,,,,,,,,,,,,,,,,,,,,,,,,,,,,,,,,,,,,,
,,,,,,,,,,,,l,Correct!,0,65,65,11,1,t1.png,t4.png,3,0.0000131,20,female,2020-09-28_12h39.45.729,torte-2b,2020.1.3,Win32,60,12724,1.264455,,,,,,,,,,,,,,,,,,,,,,,,,,,,,,,,,,,,,,,,,,,,,,,,,,,,,,,,,,,,,,,,,
,,,,,,,,,,,,l,Correct!,0,66,66,86,1,t3.png,t1.png,2,0.056466,20,female,2020-09-28_12h39.45.729,torte-2b,2020.1.3,Win32,60,12724,1.164135,,,,,,,,,,,,,,,,,,,,,,,,,,,,,,,,,,,,,,,,,,,,,,,,,,,,,,,,,,,,,,,,,
,,,,,,,,,,,,,Too slow :(,0,67,67,23,1,t5.png,t4.png,1,0.90025,20,female,2020-09-28_12h39.45.729,torte-2b,2020.1.3,Win32,60,12724,,,,,,,,,,,,,,,,,,,,,,,,,,,,,,,,,,,,,,,,,,,,,,,,,,,,,,,,,,,,,,,,,,
,,,,,,,,,,,,,Too slow :(,0,68,68,83,1,t3.png,t1.png,2,0.056466,20,female,2020-09-28_12h39.45.729,torte-2b,2020.1.3,Win32,60,12724,,,,,,,,,,,,,,,,,,,,,,,,,,,,,,,,,,,,,,,,,,,,,,,,,,,,,,,,,,,,,,,,,,
,,,,,,,,,,,,a,Incorrect,0,69,69,53,1,t3.png,t1.png,2,0.056466,20,female,2020-09-28_12h39.45.729,torte-2b,2020.1.3,Win32,60,12724,0.28714,,,,,,,,,,,,,,,,,,,,,,,,,,,,,,,,,,,,,,,,,,,,,,,,,,,,,,,,,,,,,,,,,
,,,,,,,,,,,,l,Correct!,0,70,70,68,1,t1.png,t4.png,3,0.0000131,20,female,2020-09-28_12h39.45.729,torte-2b,2020.1.3,Win32,60,12724,0.66386,,,,,,,,,,,,,,,,,,,,,,,,,,,,,,,,,,,,,,,,,,,,,,,,,,,,,,,,,,,,,,,,,
,,,,,,,,,,,,a,Incorrect,0,71,71,88,1,t3.png,t1.png,2,0.056466,20,female,2020-09-28_12h39.45.729,torte-2b,2020.1.3,Win32,60,12724,0.82983,,,,,,,,,,,,,,,,,,,,,,,,,,,,,,,,,,,,,,,,,,,,,,,,,,,,,,,,,,,,,,,,,
,,,,,,,,,,,,l,Incorrect,0,72,72,104,1,t2.png,t3.png,1,0.90855,20,female,2020-09-28_12h39.45.729,torte-2b,2020.1.3,Win32,60,12724,0.731655,,,,,,,,,,,,,,,,,,,,,,,,,,,,,,,,,,,,,,,,,,,,,,,,,,,,,,,,,,,,,,,,,
,,,,,,,,,,,,a,Incorrect,0,73,73,51,1,t3.png,t1.png,2,0.056466,20,female,2020-09-28_12h39.45.729,torte-2b,2020.1.3,Win32,60,12724,0.57291,,,,,,,,,,,,,,,,,,,,,,,,,,,,,,,,,,,,,,,,,,,,,,,,,,,,,,,,,,,,,,,,,
,,,,,,,,,,,,l,Incorrect,0,74,74,106,1,t2.png,t3.png,1,0.90855,20,female,2020-09-28_12h39.45.729,torte-2b,2020.1.3,Win32,60,12724,0.390805,,,,,,,,,,,,,,,,,,,,,,,,,,,,,,,,,,,,,,,,,,,,,,,,,,,,,,,,,,,,,,,,,
,,,,,,,,,,,,l,Correct!,0,75,75,47,1,t4.png,t2.png,2,0.059078,20,female,2020-09-28_12h39.45.729,torte-2b,2020.1.3,Win32,60,12724,1.52885,,,,,,,,,,,,,,,,,,,,,,,,,,,,,,,,,,,,,,,,,,,,,,,,,,,,,,,,,,,,,,,,,
,,,,,,,,,,,,a,Correct!,0,76,76,96,1,t1.png,t1.png,0,0.97829,20,female,2020-09-28_12h39.45.729,torte-2b,2020.1.3,Win32,60,12724,1.345975,,,,,,,,,,,,,,,,,,,,,,,,,,,,,,,,,,,,,,,,,,,,,,,,,,,,,,,,,,,,,,,,,
,,,,,,,,,,,,a,Correct!,0,77,77,2,1,t3.png,t2.png,1,0.90855,20,female,2020-09-28_12h39.45.729,torte-2b,2020.1.3,Win32,60,12724,1.11711,,,,,,,,,,,,,,,,,,,,,,,,,,,,,,,,,,,,,,,,,,,,,,,,,,,,,,,,,,,,,,,,,
,,,,,,,,,,,,a,Incorrect,0,78,78,55,1,t2.png,t4.png,2,0.059078,20,female,2020-09-28_12h39.45.729,torte-2b,2020.1.3,Win32,60,12724,1.196595,,,,,,,,,,,,,,,,,,,,,,,,,,,,,,,,,,,,,,,,,,,,,,,,,,,,,,,,,,,,,,,,,
,,,,,,,,,,,,l,Incorrect,0,79,79,16,1,t5.png,t4.png,1,0.9,20,female,2020-09-28_12h39.45.729,torte-2b,2020.1.3,Win32,60,12724,1.34983,,,,,,,,,,,,,,,,,,,,,,,,,,,,,,,,,,,,,,,,,,,,,,,,,,,,,,,,,,,,,,,,,
,,,,,,,,,,,,a,Correct!,0,80,80,32,1,t4.png,t5.png,1,0.90025,20,female,2020-09-28_12h39.45.729,torte-2b,2020.1.3,Win32,60,12724,1.02248,,,,,,,,,,,,,,,,,,,,,,,,,,,,,,,,,,,,,,,,,,,,,,,,,,,,,,,,,,,,,,,,,
,,,,,,,,,,,,l,Incorrect,0,81,81,59,1,t5.png,t4.png,1,0.9,20,female,2020-09-28_12h39.45.729,torte-2b,2020.1.3,Win32,60,12724,1.073025,,,,,,,,,,,,,,,,,,,,,,,,,,,,,,,,,,,,,,,,,,,,,,,,,,,,,,,,,,,,,,,,,
,,,,,,,,,,,,a,Incorrect,0,82,82,28,1,t2.png,t3.png,1,0.909,20,female,2020-09-28_12h39.45.729,torte-2b,2020.1.3,Win32,60,12724,1.589935,,,,,,,,,,,,,,,,,,,,,,,,,,,,,,,,,,,,,,,,,,,,,,,,,,,,,,,,,,,,,,,,,
,,,,,,,,,,,,l,Correct!,0,83,83,103,1,t3.png,t1.png,2,0.056466,20,female,2020-09-28_12h39.45.729,torte-2b,2020.1.3,Win32,60,12724,1.281835,,,,,,,,,,,,,,,,,,,,,,,,,,,,,,,,,,,,,,,,,,,,,,,,,,,,,,,,,,,,,,,,,
,,,,,,,,,,,,a,Incorrect,0,84,84,54,1,t1.png,t5.png,4,9.55E-11,20,female,2020-09-28_12h39.45.729,torte-2b,2020.1.3,Win32,60,12724,1.4353,,,,,,,,,,,,,,,,,,,,,,,,,,,,,,,,,,,,,,,,,,,,,,,,,,,,,,,,,,,,,,,,,
,,,,,,,,,,,,l,Incorrect,0,85,85,81,1,t1.png,t1.png,0,0.97829,20,female,2020-09-28_12h39.45.729,torte-2b,2020.1.3,Win32,60,12724,1.00214,,,,,,,,,,,,,,,,,,,,,,,,,,,,,,,,,,,,,,,,,,,,,,,,,,,,,,,,,,,,,,,,,
,,,,,,,,,,,,a,Correct!,0,86,86,39,1,t3.png,t2.png,1,0.90855,20,female,2020-09-28_12h39.45.729,torte-2b,2020.1.3,Win32,60,12724,0.691925,,,,,,,,,,,,,,,,,,,,,,,,,,,,,,,,,,,,,,,,,,,,,,,,,,,,,,,,,,,,,,,,,
,,,,,,,,,,,,l,Correct!,0,87,87,67,1,t1.png,t5.png,4,9.55E-11,20,female,2020-09-28_12h39.45.729,torte-2b,2020.1.3,Win32,60,12724,0.766345,,,,,,,,,,,,,,,,,,,,,,,,,,,,,,,,,,,,,,,,,,,,,,,,,,,,,,,,,,,,,,,,,
,,,,,,,,,,,,l,Incorrect,0,88,88,101,1,t4.png,t5.png,1,0.90025,20,female,2020-09-28_12h39.45.729,torte-2b,2020.1.3,Win32,60,12724,0.95304,,,,,,,,,,,,,,,,,,,,,,,,,,,,,,,,,,,,,,,,,,,,,,,,,,,,,,,,,,,,,,,,,
,,,,,,,,,,,,l,Correct!,0,89,89,12,1,t5.png,t1.png,4,9.55E-11,20,female,2020-09-28_12h39.45.729,torte-2b,2020.1.3,Win32,60,12724,1.045985,,,,,,,,,,,,,,,,,,,,,,,,,,,,,,,,,,,,,,,,,,,,,,,,,,,,,,,,,,,,,,,,,
,,,,,,,,,,,,l,Correct!,0,90,90,56,1,t5.png,t1.png,4,9.55E-11,20,female,2020-09-28_12h39.45.729,torte-2b,2020.1.3,Win32,60,12724,0.501365,,,,,,,,,,,,,,,,,,,,,,,,,,,,,,,,,,,,,,,,,,,,,,,,,,,,,,,,,,,,,,,,,
,,,,,,,,,,,,a,Incorrect,0,91,91,17,1,t1.png,t4.png,3,0.0000131,20,female,2020-09-28_12h39.45.729,torte-2b,2020.1.3,Win32,60,12724,0.98343,,,,,,,,,,,,,,,,,,,,,,,,,,,,,,,,,,,,,,,,,,,,,,,,,,,,,,,,,,,,,,,,,
,,,,,,,,,,,,a,Correct!,0,92,92,75,1,t1.png,t1.png,0,0.97829,20,female,2020-09-28_12h39.45.729,torte-2b,2020.1.3,Win32,60,12724,0.920155,,,,,,,,,,,,,,,,,,,,,,,,,,,,,,,,,,,,,,,,,,,,,,,,,,,,,,,,,,,,,,,,,
,,,,,,,,,,,,a,Correct!,0,93,93,100,1,t4.png,t5.png,1,0.90025,20,female,2020-09-28_12h39.45.729,torte-2b,2020.1.3,Win32,60,12724,2.140015,,,,,,,,,,,,,,,,,,,,,,,,,,,,,,,,,,,,,,,,,,,,,,,,,,,,,,,,,,,,,,,,,
,,,,,,,,,,,,l,Correct!,0,94,94,117,1,t1.png,t5.png,4,9.55E-11,20,female,2020-09-28_12h39.45.729,torte-2b,2020.1.3,Win32,60,12724,0.47371,,,,,,,,,,,,,,,,,,,,,,,,,,,,,,,,,,,,,,,,,,,,,,,,,,,,,,,,,,,,,,,,,
,,,,,,,,,,,,a,Incorrect,0,95,95,26,1,t4.png,t2.png,2,0.0591,20,female,2020-09-28_12h39.45.729,torte-2b,2020.1.3,Win32,60,12724,0.48973,,,,,,,,,,,,,,,,,,,,,,,,,,,,,,,,,,,,,,,,,,,,,,,,,,,,,,,,,,,,,,,,,
,,,,,,,,,,,,l,Incorrect,0,96,96,21,1,t5.png,t4.png,1,0.90025,20,female,2020-09-28_12h39.45.729,torte-2b,2020.1.3,Win32,60,12724,0.330085,,,,,,,,,,,,,,,,,,,,,,,,,,,,,,,,,,,,,,,,,,,,,,,,,,,,,,,,,,,,,,,,,
,,,,,,,,,,,,a,Incorrect,0,97,97,91,1,t1.png,t4.png,3,0.0000131,20,female,2020-09-28_12h39.45.729,torte-2b,2020.1.3,Win32,60,12724,0.4687,,,,,,,,,,,,,,,,,,,,,,,,,,,,,,,,,,,,,,,,,,,,,,,,,,,,,,,,,,,,,,,,,
,,,,,,,,,,,,l,Correct!,0,98,98,113,1,t5.png,t4.png,1,0.9,20,female,2020-09-28_12h39.45.729,torte-2b,2020.1.3,Win32,60,12724,0.65457,,,,,,,,,,,,,,,,,,,,,,,,,,,,,,,,,,,,,,,,,,,,,,,,,,,,,,,,,,,,,,,,,
,,,,,,,,,,,,l,Correct!,0,99,99,93,1,t2.png,t4.png,2,0.059078,20,female,2020-09-28_12h39.45.729,torte-2b,2020.1.3,Win32,60,12724,0.680245,,,,,,,,,,,,,,,,,,,,,,,,,,,,,,,,,,,,,,,,,,,,,,,,,,,,,,,,,,,,,,,,,
,,,,,,,,,,,,l,Correct!,0,100,100,31,1,t1.png,t5.png,4,9.55E-11,20,female,2020-09-28_12h39.45.729,torte-2b,2020.1.3,Win32,60,12724,0.705865,,,,,,,,,,,,,,,,,,,,,,,,,,,,,,,,,,,,,,,,,,,,,,,,,,,,,,,,,,,,,,,,,
,,,,,,,,,,,,l,Correct!,0,101,101,52,1,t2.png,t4.png,2,0.059078,20,female,2020-09-28_12h39.45.729,torte-2b,2020.1.3,Win32,60,12724,0.799845,,,,,,,,,,,,,,,,,,,,,,,,,,,,,,,,,,,,,,,,,,,,,,,,,,,,,,,,,,,,,,,,,
,,,,,,,,,,,,l,Incorrect,0,102,102,78,1,t1.png,t1.png,0,0.978,20,female,2020-09-28_12h39.45.729,torte-2b,2020.1.3,Win32,60,12724,1.16617,,,,,,,,,,,,,,,,,,,,,,,,,,,,,,,,,,,,,,,,,,,,,,,,,,,,,,,,,,,,,,,,,
,,,,,,,,,,,,a,Correct!,0,103,103,74,1,t5.png,t4.png,1,0.9,20,female,2020-09-28_12h39.45.729,torte-2b,2020.1.3,Win32,60,12724,1.479145,,,,,,,,,,,,,,,,,,,,,,,,,,,,,,,,,,,,,,,,,,,,,,,,,,,,,,,,,,,,,,,,,
,,,,,,,,,,,,a,Correct!,0,104,104,71,1,t5.png,t5.png,0,0.97829,20,female,2020-09-28_12h39.45.729,torte-2b,2020.1.3,Win32,60,12724,0.897035,,,,,,,,,,,,,,,,,,,,,,,,,,,,,,,,,,,,,,,,,,,,,,,,,,,,,,,,,,,,,,,,,
,,,,,,,,,,,,l,Incorrect,0,105,105,22,1,t2.png,t3.png,1,0.90855,20,female,2020-09-28_12h39.45.729,torte-2b,2020.1.3,Win32,60,12724,1.14154,,,,,,,,,,,,,,,,,,,,,,,,,,,,,,,,,,,,,,,,,,,,,,,,,,,,,,,,,,,,,,,,,
,,,,,,,,,,,,l,Correct!,0,106,106,14,1,t2.png,t4.png,2,0.059078,20,female,2020-09-28_12h39.45.729,torte-2b,2020.1.3,Win32,60,12724,0.938955,,,,,,,,,,,,,,,,,,,,,,,,,,,,,,,,,,,,,,,,,,,,,,,,,,,,,,,,,,,,,,,,,
,,,,,,,,,,,,l,Correct!,0,107,107,38,1,t3.png,t1.png,2,0.056466,20,female,2020-09-28_12h39.45.729,torte-2b,2020.1.3,Win32,60,12724,0.60806,,,,,,,,,,,,,,,,,,,,,,,,,,,,,,,,,,,,,,,,,,,,,,,,,,,,,,,,,,,,,,,,,
,,,,,,,,,,,,l,Correct!,0,108,108,30,1,t3.png,t1.png,2,0.056466,20,female,2020-09-28_12h39.45.729,torte-2b,2020.1.3,Win32,60,12724,0.68966,,,,,,,,,,,,,,,,,,,,,,,,,,,,,,,,,,,,,,,,,,,,,,,,,,,,,,,,,,,,,,,,,
,,,,,,,,,,,,a,Incorrect,0,109,109,33,1,t5.png,t1.png,4,9.55E-11,20,female,2020-09-28_12h39.45.729,torte-2b,2020.1.3,Win32,60,12724,0.75464,,,,,,,,,,,,,,,,,,,,,,,,,,,,,,,,,,,,,,,,,,,,,,,,,,,,,,,,,,,,,,,,,
,,,,,,,,,,,,l,Correct!,0,110,110,19,1,t4.png,t2.png,2,0.059078,20,female,2020-09-28_12h39.45.729,torte-2b,2020.1.3,Win32,60,12724,0.78607,,,,,,,,,,,,,,,,,,,,,,,,,,,,,,,,,,,,,,,,,,,,,,,,,,,,,,,,,,,,,,,,,
,,,,,,,,,,,,l,Correct!,0,111,111,110,1,t4.png,t5.png,1,0.90025,20,female,2020-09-28_12h39.45.729,torte-2b,2020.1.3,Win32,60,12724,0.821365,,,,,,,,,,,,,,,,,,,,,,,,,,,,,,,,,,,,,,,,,,,,,,,,,,,,,,,,,,,,,,,,,
,,,,,,,,,,,,l,Correct!,0,112,112,99,1,t1.png,t5.png,4,9.55E-11,20,female,2020-09-28_12h39.45.729,torte-2b,2020.1.3,Win32,60,12724,0.686485,,,,,,,,,,,,,,,,,,,,,,,,,,,,,,,,,,,,,,,,,,,,,,,,,,,,,,,,,,,,,,,,,
,,,,,,,,,,,,l,Incorrect,0,113,113,95,1,t1.png,t1.png,0,0.978,20,female,2020-09-28_12h39.45.729,torte-2b,2020.1.3,Win32,60,12724,0.95255,,,,,,,,,,,,,,,,,,,,,,,,,,,,,,,,,,,,,,,,,,,,,,,,,,,,,,,,,,,,,,,,,
,,,,,,,,,,,,a,Correct!,0,114,114,116,1,t5.png,t4.png,1,0.90025,20,female,2020-09-28_12h39.45.729,torte-2b,2020.1.3,Win32,60,12724,1.34903,,,,,,,,,,,,,,,,,,,,,,,,,,,,,,,,,,,,,,,,,,,,,,,,,,,,,,,,,,,,,,,,,
,,,,,,,,,,,,,Too slow :(,0,115,115,3,1,t1.png,t5.png,4,9.55E-11,20,female,2020-09-28_12h39.45.729,torte-2b,2020.1.3,Win32,60,12724,,,,,,,,,,,,,,,,,,,,,,,,,,,,,,,,,,,,,,,,,,,,,,,,,,,,,,,,,,,,,,,,,,
,,,,,,,,,,,,l,Correct!,0,116,116,9,1,t4.png,t5.png,1,0.9,20,female,2020-09-28_12h39.45.729,torte-2b,2020.1.3,Win32,60,12724,0.28761,,,,,,,,,,,,,,,,,,,,,,,,,,,,,,,,,,,,,,,,,,,,,,,,,,,,,,,,,,,,,,,,,
,,,,,,,,,,,,l,Correct!,0,117,117,111,1,t5.png,t1.png,4,9.55E-11,20,female,2020-09-28_12h39.45.729,torte-2b,2020.1.3,Win32,60,12724,1.41288,,,,,,,,,,,,,,,,,,,,,,,,,,,,,,,,,,,,,,,,,,,,,,,,,,,,,,,,,,,,,,,,,
,,,,,,,,,,,,a,Correct!,0,118,118,42,1,t5.png,t4.png,1,0.90025,20,female,2020-09-28_12h39.45.729,torte-2b,2020.1.3,Win32,60,12724,1.281625,,,,,,,,,,,,,,,,,,,,,,,,,,,,,,,,,,,,,,,,,,,,,,,,,,,,,,,,,,,,,,,,,
,,,,,,,,,,,,a,Incorrect,0,119,119,57,1,t2.png,t4.png,2,0.059078,20,female,2020-09-28_12h39.45.729,torte-2b,2020.1.3,Win32,60,12724,0.546745,,,,,,,,,,,,,,,,,,,,,,,,,,,,,,,,,,,,,,,,,,,,,,,,,,,,,,,,,,,,,,,,,
,,,,,,,,,,,,l,Correct!,,,,,,t1.png,t4.png,3,0.0000131,20,female,2020-09-28_12h39.45.729,torte-2b,2020.1.3,Win32,60,12724,0.339815,space,2.15161,space,13.273805,0,0,0,107,1,,,,,,,,,,,,,,,,,,,,,,,,,,,,,,,,,,,,,,,,,,,,,,,,,,,,,,,,
,,,,,,,,,,,,l,Incorrect,,,,,,t3.png,t4.png,1,0.90855,20,female,2020-09-28_12h39.45.729,torte-2b,2020.1.3,Win32,60,12724,0.374075,,,,,0,1,1,96,1,,,,,,,,,,,,,,,,,,,,,,,,,,,,,,,,,,,,,,,,,,,,,,,,,,,,,,,,
,,,,,,,,,,,,a,Correct!,,,,,,t4.png,t3.png,1,0.90855,20,female,2020-09-28_12h39.45.729,torte-2b,2020.1.3,Win32,60,12724,0.7047,,,,,0,2,2,75,1,,,,,,,,,,,,,,,,,,,,,,,,,,,,,,,,,,,,,,,,,,,,,,,,,,,,,,,,
,,,,,,,,,,,,l,Incorrect,,,,,,t2.png,t1.png,1,0.90025,20,female,2020-09-28_12h39.45.729,torte-2b,2020.1.3,Win32,60,12724,0.282595,,,,,0,3,3,5,1,,,,,,,,,,,,,,,,,,,,,,,,,,,,,,,,,,,,,,,,,,,,,,,,,,,,,,,,
,,,,,,,,,,,,l,Correct!,,,,,,t1.png,t3.png,2,0.056466,20,female,2020-09-28_12h39.45.729,torte-2b,2020.1.3,Win32,60,12724,0.431615,,,,,0,4,4,60,1,,,,,,,,,,,,,,,,,,,,,,,,,,,,,,,,,,,,,,,,,,,,,,,,,,,,,,,,
,,,,,,,,,,,,l,Incorrect,,,,,,t1.png,t3.png,2,0.056466,20,female,2020-09-28_12h39.45.729,torte-2b,2020.1.3,Win32,60,12724,0.40148,,,,,0,5,5,63,1,,,,,,,,,,,,,,,,,,,,,,,,,,,,,,,,,,,,,,,,,,,,,,,,,,,,,,,,
,,,,,,,,,,,,l,Incorrect,,,,,,t5.png,t3.png,2,0.056466,20,female,2020-09-28_12h39.45.729,torte-2b,2020.1.3,Win32,60,12724,0.316215,,,,,0,6,6,38,1,,,,,,,,,,,,,,,,,,,,,,,,,,,,,,,,,,,,,,,,,,,,,,,,,,,,,,,,
,,,,,,,,,,,,a,Incorrect,,,,,,t2.png,t4.png,2,0.0591,20,female,2020-09-28_12h39.45.729,torte-2b,2020.1.3,Win32,60,12724,0.4477,,,,,0,7,7,15,1,,,,,,,,,,,,,,,,,,,,,,,,,,,,,,,,,,,,,,,,,,,,,,,,,,,,,,,,
,,,,,,,,,,,,a,Correct!,,,,,,t2.png,t1.png,1,0.90025,20,female,2020-09-28_12h39.45.729,torte-2b,2020.1.3,Win32,60,12724,0.267885,,,,,0,8,8,62,1,,,,,,,,,,,,,,,,,,,,,,,,,,,,,,,,,,,,,,,,,,,,,,,,,,,,,,,,
,,,,,,,,,,,,a,Incorrect,,,,,,t5.png,t2.png,3,0.0000131,20,female,2020-09-28_12h39.45.729,torte-2b,2020.1.3,Win32,60,12724,0.29584,,,,,0,9,9,51,1,,,,,,,,,,,,,,,,,,,,,,,,,,,,,,,,,,,,,,,,,,,,,,,,,,,,,,,,
,,,,,,,,,,,,l,Correct!,,,,,,t2.png,t5.png,3,0.0000131,20,female,2020-09-28_12h39.45.729,torte-2b,2020.1.3,Win32,60,12724,0.28021,,,,,0,10,10,104,1,,,,,,,,,,,,,,,,,,,,,,,,,,,,,,,,,,,,,,,,,,,,,,,,,,,,,,,,
,,,,,,,,,,,,a,Incorrect,,,,,,t2.png,t5.png,3,0.0000131,20,female,2020-09-28_12h39.45.729,torte-2b,2020.1.3,Win32,60,12724,0.23523,,,,,0,11,11,40,1,,,,,,,,,,,,,,,,,,,,,,,,,,,,,,,,,,,,,,,,,,,,,,,,,,,,,,,,
,,,,,,,,,,,,a,Correct!,,,,,,t4.png,t4.png,0,0.98115,20,female,2020-09-28_12h39.45.729,torte-2b,2020.1.3,Win32,60,12724,0.26921,,,,,0,12,12,79,1,,,,,,,,,,,,,,,,,,,,,,,,,,,,,,,,,,,,,,,,,,,,,,,,,,,,,,,,
,,,,,,,,,,,,a,Correct!,,,,,,t2.png,t3.png,1,0.909,20,female,2020-09-28_12h39.45.729,torte-2b,2020.1.3,Win32,60,12724,0.300205,,,,,0,13,13,74,1,,,,,,,,,,,,,,,,,,,,,,,,,,,,,,,,,,,,,,,,,,,,,,,,,,,,,,,,
,,,,,,,,,,,,l,Correct!,,,,,,t4.png,t1.png,3,0.0000131,20,female,2020-09-28_12h39.45.729,torte-2b,2020.1.3,Win32,60,12724,0.33597,,,,,0,14,14,42,1,,,,,,,,,,,,,,,,,,,,,,,,,,,,,,,,,,,,,,,,,,,,,,,,,,,,,,,,
,,,,,,,,,,,,l,Incorrect,,,,,,t4.png,t3.png,1,0.909,20,female,2020-09-28_12h39.45.729,torte-2b,2020.1.3,Win32,60,12724,0.38294,,,,,0,15,15,46,1,,,,,,,,,,,,,,,,,,,,,,,,,,,,,,,,,,,,,,,,,,,,,,,,,,,,,,,,
,,,,,,,,,,,,l,Incorrect,,,,,,t2.png,t1.png,1,0.9,20,female,2020-09-28_12h39.45.729,torte-2b,2020.1.3,Win32,60,12724,0.298855,,,,,0,16,16,118,1,,,,,,,,,,,,,,,,,,,,,,,,,,,,,,,,,,,,,,,,,,,,,,,,,,,,,,,,
,,,,,,,,,,,,a,Incorrect,,,,,,t1.png,t3.png,2,0.056466,20,female,2020-09-28_12h39.45.729,torte-2b,2020.1.3,Win32,60,12724,0.249645,,,,,0,17,17,87,1,,,,,,,,,,,,,,,,,,,,,,,,,,,,,,,,,,,,,,,,,,,,,,,,,,,,,,,,
,,,,,,,,,,,,a,Incorrect,,,,,,t3.png,t5.png,2,0.056466,20,female,2020-09-28_12h39.45.729,torte-2b,2020.1.3,Win32,60,12724,0.29764,,,,,0,18,18,6,1,,,,,,,,,,,,,,,,,,,,,,,,,,,,,,,,,,,,,,,,,,,,,,,,,,,,,,,,
,,,,,,,,,,,,a,Incorrect,,,,,,t2.png,t4.png,2,0.059078,20,female,2020-09-28_12h39.45.729,torte-2b,2020.1.3,Win32,60,12724,0.308125,,,,,0,19,19,11,1,,,,,,,,,,,,,,,,,,,,,,,,,,,,,,,,,,,,,,,,,,,,,,,,,,,,,,,,
,,,,,,,,,,,,a,Incorrect,,,,,,t4.png,t2.png,2,0.059078,20,female,2020-09-28_12h39.45.729,torte-2b,2020.1.3,Win32,60,12724,0.7659,,,,,0,20,20,88,1,,,,,,,,,,,,,,,,,,,,,,,,,,,,,,,,,,,,,,,,,,,,,,,,,,,,,,,,
,,,,,,,,,,,,a,Incorrect,,,,,,t1.png,t4.png,3,0.0000131,20,female,2020-09-28_12h39.45.729,torte-2b,2020.1.3,Win32,60,12724,0.1728,,,,,0,21,21,50,1,,,,,,,,,,,,,,,,,,,,,,,,,,,,,,,,,,,,,,,,,,,,,,,,,,,,,,,,
,,,,,,,,,,,,l,Incorrect,,,,,,t5.png,t4.png,1,0.9,20,female,2020-09-28_12h39.45.729,torte-2b,2020.1.3,Win32,60,12724,0.285045,,,,,0,22,22,49,1,,,,,,,,,,,,,,,,,,,,,,,,,,,,,,,,,,,,,,,,,,,,,,,,,,,,,,,,
,,,,,,,,,,,,l,Correct!,,,,,,t5.png,t3.png,2,0.056466,20,female,2020-09-28_12h39.45.729,torte-2b,2020.1.3,Win32,60,12724,0.33742,,,,,0,23,23,108,1,,,,,,,,,,,,,,,,,,,,,,,,,,,,,,,,,,,,,,,,,,,,,,,,,,,,,,,,
,,,,,,,,,,,,l,Incorrect,,,,,,t1.png,t1.png,0,0.978,20,female,2020-09-28_12h39.45.729,torte-2b,2020.1.3,Win32,60,12724,0.501895,,,,,0,24,24,54,1,,,,,,,,,,,,,,,,,,,,,,,,,,,,,,,,,,,,,,,,,,,,,,,,,,,,,,,,
,,,,,,,,,,,,l,Correct!,,,,,,t3.png,t1.png,2,0.056466,20,female,2020-09-28_12h39.45.729,torte-2b,2020.1.3,Win32,60,12724,0.685055,,,,,0,25,25,64,1,,,,,,,,,,,,,,,,,,,,,,,,,,,,,,,,,,,,,,,,,,,,,,,,,,,,,,,,
,,,,,,,,,,,,a,Correct!,,,,,,t4.png,t5.png,1,0.90025,20,female,2020-09-28_12h39.45.729,torte-2b,2020.1.3,Win32,60,12724,0.346525,,,,,0,26,26,47,1,,,,,,,,,,,,,,,,,,,,,,,,,,,,,,,,,,,,,,,,,,,,,,,,,,,,,,,,
,,,,,,,,,,,,l,Correct!,,,,,,t4.png,t2.png,2,0.0591,20,female,2020-09-28_12h39.45.729,torte-2b,2020.1.3,Win32,60,12724,0.39268,,,,,0,27,27,36,1,,,,,,,,,,,,,,,,,,,,,,,,,,,,,,,,,,,,,,,,,,,,,,,,,,,,,,,,
,,,,,,,,,,,,a,Correct!,,,,,,t4.png,t5.png,1,0.9,20,female,2020-09-28_12h39.45.729,torte-2b,2020.1.3,Win32,60,12724,0.30676,,,,,0,28,28,115,1,,,,,,,,,,,,,,,,,,,,,,,,,,,,,,,,,,,,,,,,,,,,,,,,,,,,,,,,
,,,,,,,,,,,,l,Correct!,,,,,,t1.png,t5.png,4,9.55E-11,20,female,2020-09-28_12h39.45.729,torte-2b,2020.1.3,Win32,60,12724,0.61389,,,,,0,29,29,85,1,,,,,,,,,,,,,,,,,,,,,,,,,,,,,,,,,,,,,,,,,,,,,,,,,,,,,,,,
,,,,,,,,,,,,a,Incorrect,,,,,,t1.png,t5.png,4,9.55E-11,20,female,2020-09-28_12h39.45.729,torte-2b,2020.1.3,Win32,60,12724,0.26566,,,,,0,30,30,55,1,,,,,,,,,,,,,,,,,,,,,,,,,,,,,,,,,,,,,,,,,,,,,,,,,,,,,,,,
,,,,,,,,,,,,l,Correct!,,,,,,t5.png,t2.png,3,0.0000131,20,female,2020-09-28_12h39.45.729,torte-2b,2020.1.3,Win32,60,12724,0.88253,,,,,0,31,31,116,1,,,,,,,,,,,,,,,,,,,,,,,,,,,,,,,,,,,,,,,,,,,,,,,,,,,,,,,,
,,,,,,,,,,,,a,Incorrect,,,,,,t4.png,t1.png,3,0.0000131,20,female,2020-09-28_12h39.45.729,torte-2b,2020.1.3,Win32,60,12724,0.39053,,,,,0,32,32,48,1,,,,,,,,,,,,,,,,,,,,,,,,,,,,,,,,,,,,,,,,,,,,,,,,,,,,,,,,
,,,,,,,,,,,,a,Correct!,,,,,,t5.png,t5.png,0,0.97829,20,female,2020-09-28_12h39.45.729,torte-2b,2020.1.3,Win32,60,12724,0.321545,,,,,0,33,33,73,1,,,,,,,,,,,,,,,,,,,,,,,,,,,,,,,,,,,,,,,,,,,,,,,,,,,,,,,,
,,,,,,,,,,,,a,Incorrect,,,,,,t3.png,t1.png,2,0.056466,20,female,2020-09-28_12h39.45.729,torte-2b,2020.1.3,Win32,60,12724,0.09836,,,,,0,34,34,32,1,,,,,,,,,,,,,,,,,,,,,,,,,,,,,,,,,,,,,,,,,,,,,,,,,,,,,,,,
,,,,,,,,,,,,a,Incorrect,,,,,,t4.png,t2.png,2,0.059078,20,female,2020-09-28_12h39.45.729,torte-2b,2020.1.3,Win32,60,12724,0.381995,,,,,0,35,35,109,1,,,,,,,,,,,,,,,,,,,,,,,,,,,,,,,,,,,,,,,,,,,,,,,,,,,,,,,,
,,,,,,,,,,,,a,Correct!,,,,,,t3.png,t4.png,1,0.90855,20,female,2020-09-28_12h39.45.729,torte-2b,2020.1.3,Win32,60,12724,0.42547,,,,,0,36,36,84,1,,,,,,,,,,,,,,,,,,,,,,,,,,,,,,,,,,,,,,,,,,,,,,,,,,,,,,,,
,,,,,,,,,,,,a,Incorrect,,,,,,t5.png,t3.png,2,0.0565,20,female,2020-09-28_12h39.45.729,torte-2b,2020.1.3,Win32,60,12724,0.33011,,,,,0,37,37,39,1,,,,,,,,,,,,,,,,,,,,,,,,,,,,,,,,,,,,,,,,,,,,,,,,,,,,,,,,
,,,,,,,,,,,,a,Incorrect,,,,,,t3.png,t2.png,1,0.909,20,female,2020-09-28_12h39.45.729,torte-2b,2020.1.3,Win32,60,12724,0.290825,,,,,0,38,38,23,1,,,,,,,,,,,,,,,,,,,,,,,,,,,,,,,,,,,,,,,,,,,,,,,,,,,,,,,,
,,,,,,,,,,,,l,Incorrect,,,,,,t1.png,t1.png,0,0.978,20,female,2020-09-28_12h39.45.729,torte-2b,2020.1.3,Win32,60,12724,0.667335,,,,,0,39,39,28,1,,,,,,,,,,,,,,,,,,,,,,,,,,,,,,,,,,,,,,,,,,,,,,,,,,,,,,,,
,,,,,,,,,,,,l,Incorrect,,,,,,t2.png,t2.png,0,0.98115,20,female,2020-09-28_12h39.45.729,torte-2b,2020.1.3,Win32,60,12724,1.143905,,,,,0,40,40,59,1,,,,,,,,,,,,,,,,,,,,,,,,,,,,,,,,,,,,,,,,,,,,,,,,,,,,,,,,
,,,,,,,,,,,,a,Correct!,,,,,,t4.png,t3.png,1,0.909,20,female,2020-09-28_12h39.45.729,torte-2b,2020.1.3,Win32,60,12724,0.29414,,,,,0,41,41,20,1,,,,,,,,,,,,,,,,,,,,,,,,,,,,,,,,,,,,,,,,,,,,,,,,,,,,,,,,
,,,,,,,,,,,,l,Incorrect,,,,,,t1.png,t1.png,0,0.97829,20,female,2020-09-28_12h39.45.729,torte-2b,2020.1.3,Win32,60,12724,0.351485,,,,,0,42,42,67,1,,,,,,,,,,,,,,,,,,,,,,,,,,,,,,,,,,,,,,,,,,,,,,,,,,,,,,,,
,,,,,,,,,,,,l,Correct!,,,,,,t2.png,t4.png,2,0.059078,20,female,2020-09-28_12h39.45.729,torte-2b,2020.1.3,Win32,60,12724,0.668,,,,,0,43,43,77,1,,,,,,,,,,,,,,,,,,,,,,,,,,,,,,,,,,,,,,,,,,,,,,,,,,,,,,,,
,,,,,,,,,,,,l,Incorrect,,,,,,t2.png,t2.png,0,0.98115,20,female,2020-09-28_12h39.45.729,torte-2b,2020.1.3,Win32,60,12724,0.411025,,,,,0,44,44,2,1,,,,,,,,,,,,,,,,,,,,,,,,,,,,,,,,,,,,,,,,,,,,,,,,,,,,,,,,
,,,,,,,,,,,,l,Incorrect,,,,,,t3.png,t4.png,1,0.909,20,female,2020-09-28_12h39.45.729,torte-2b,2020.1.3,Win32,60,12724,1.14108,,,,,0,45,45,89,1,,,,,,,,,,,,,,,,,,,,,,,,,,,,,,,,,,,,,,,,,,,,,,,,,,,,,,,,
,,,,,,,,,,,,l,Incorrect,,,,,,t5.png,t5.png,0,0.978,20,female,2020-09-28_12h39.45.729,torte-2b,2020.1.3,Win32,60,12724,1.057005,,,,,0,46,46,117,1,,,,,,,,,,,,,,,,,,,,,,,,,,,,,,,,,,,,,,,,,,,,,,,,,,,,,,,,
,,,,,,,,,,,,a,Correct!,,,,,,t5.png,t4.png,1,0.90025,20,female,2020-09-28_12h39.45.729,torte-2b,2020.1.3,Win32,60,12724,1.61771,,,,,0,47,47,26,1,,,,,,,,,,,,,,,,,,,,,,,,,,,,,,,,,,,,,,,,,,,,,,,,,,,,,,,,
,,,,,,,,,,,,,Too slow :(,,,,,,t4.png,t4.png,0,0.98115,20,female,2020-09-28_12h39.45.729,torte-2b,2020.1.3,Win32,60,12724,,,,,,0,48,48,21,1,,,,,,,,,,,,,,,,,,,,,,,,,,,,,,,,,,,,,,,,,,,,,,,,,,,,,,,,
,,,,,,,,,,,,,Too slow :(,,,,,,t3.png,t2.png,1,0.90855,20,female,2020-09-28_12h39.45.729,torte-2b,2020.1.3,Win32,60,12724,,,,,,0,49,49,53,1,,,,,,,,,,,,,,,,,,,,,,,,,,,,,,,,,,,,,,,,,,,,,,,,,,,,,,,,
,,,,,,,,,,,,,Too slow :(,,,,,,t1.png,t3.png,2,0.056466,20,female,2020-09-28_12h39.45.729,torte-2b,2020.1.3,Win32,60,12724,,,,,,0,50,50,99,1,,,,,,,,,,,,,,,,,,,,,,,,,,,,,,,,,,,,,,,,,,,,,,,,,,,,,,,,
,,,,,,,,,,,,,Too slow :(,,,,,,t3.png,t5.png,2,0.0565,20,female,2020-09-28_12h39.45.729,torte-2b,2020.1.3,Win32,60,12724,,,,,,0,51,51,30,1,,,,,,,,,,,,,,,,,,,,,,,,,,,,,,,,,,,,,,,,,,,,,,,,,,,,,,,,
,,,,,,,,,,,,l,Incorrect,,,,,,t2.png,t2.png,0,0.98115,20,female,2020-09-28_12h39.45.729,torte-2b,2020.1.3,Win32,60,12724,0.35927,,,,,0,52,52,57,1,,,,,,,,,,,,,,,,,,,,,,,,,,,,,,,,,,,,,,,,,,,,,,,,,,,,,,,,
,,,,,,,,,,,,,Too slow :(,,,,,,t5.png,t4.png,1,0.90025,20,female,2020-09-28_12h39.45.729,torte-2b,2020.1.3,Win32,60,12724,,,,,,0,53,53,34,1,,,,,,,,,,,,,,,,,,,,,,,,,,,,,,,,,,,,,,,,,,,,,,,,,,,,,,,,
,,,,,,,,,,,,,Too slow :(,,,,,,t2.png,t1.png,1,0.90025,20,female,2020-09-28_12h39.45.729,torte-2b,2020.1.3,Win32,60,12724,,,,,,0,54,54,4,1,,,,,,,,,,,,,,,,,,,,,,,,,,,,,,,,,,,,,,,,,,,,,,,,,,,,,,,,
,,,,,,,,,,,,,Too slow :(,,,,,,t1.png,t2.png,1,0.9,20,female,2020-09-28_12h39.45.729,torte-2b,2020.1.3,Win32,60,12724,,,,,,0,55,55,1,1,,,,,,,,,,,,,,,,,,,,,,,,,,,,,,,,,,,,,,,,,,,,,,,,,,,,,,,,
,,,,,,,,,,,,,Too slow :(,,,,,,t5.png,t4.png,1,0.90025,20,female,2020-09-28_12h39.45.729,torte-2b,2020.1.3,Win32,60,12724,,,,,,0,56,56,27,1,,,,,,,,,,,,,,,,,,,,,,,,,,,,,,,,,,,,,,,,,,,,,,,,,,,,,,,,
,,,,,,,,,,,,,Too slow :(,,,,,,t5.png,t1.png,4,9.55E-11,20,female,2020-09-28_12h39.45.729,torte-2b,2020.1.3,Win32,60,12724,,,,,,0,57,57,43,1,,,,,,,,,,,,,,,,,,,,,,,,,,,,,,,,,,,,,,,,,,,,,,,,,,,,,,,,
,,,,,,,,,,,,,Too slow :(,,,,,,t1.png,t2.png,1,0.90025,20,female,2020-09-28_12h39.45.729,torte-2b,2020.1.3,Win32,60,12724,,,,,,0,58,58,105,1,,,,,,,,,,,,,,,,,,,,,,,,,,,,,,,,,,,,,,,,,,,,,,,,,,,,,,,,
,,,,,,,,,,,,,Too slow :(,,,,,,t4.png,t5.png,1,0.90025,20,female,2020-09-28_12h39.45.729,torte-2b,2020.1.3,Win32,60,12724,,,,,,0,59,59,58,1,,,,,,,,,,,,,,,,,,,,,,,,,,,,,,,,,,,,,,,,,,,,,,,,,,,,,,,,
,,,,,,,,,,,,,Too slow :(,,,,,,t2.png,t2.png,0,0.98115,20,female,2020-09-28_12h39.45.729,torte-2b,2020.1.3,Win32,60,12724,,,,,,0,60,60,7,1,,,,,,,,,,,,,,,,,,,,,,,,,,,,,,,,,,,,,,,,,,,,,,,,,,,,,,,,
,,,,,,,,,,,,,Too slow :(,,,,,,t4.png,t4.png,0,0.98115,20,female,2020-09-28_12h39.45.729,torte-2b,2020.1.3,Win32,60,12724,,,,,,0,61,61,80,1,,,,,,,,,,,,,,,,,,,,,,,,,,,,,,,,,,,,,,,,,,,,,,,,,,,,,,,,
,,,,,,,,,,,,,Too slow :(,,,,,,t4.png,t4.png,0,0.98115,20,female,2020-09-28_12h39.45.729,torte-2b,2020.1.3,Win32,60,12724,,,,,,0,62,62,52,1,,,,,,,,,,,,,,,,,,,,,,,,,,,,,,,,,,,,,,,,,,,,,,,,,,,,,,,,
,,,,,,,,,,,,l,Correct!,,,,,,t3.png,t1.png,2,0.056466,20,female,2020-09-28_12h39.45.729,torte-2b,2020.1.3,Win32,60,12724,0.26726,,,,,0,63,63,0,1,,,,,,,,,,,,,,,,,,,,,,,,,,,,,,,,,,,,,,,,,,,,,,,,,,,,,,,,
,,,,,,,,,,,,l,Correct!,,,,,,t1.png,t4.png,3,0.0000131,20,female,2020-09-28_12h39.45.729,torte-2b,2020.1.3,Win32,60,12724,0.288485,,,,,0,64,64,81,1,,,,,,,,,,,,,,,,,,,,,,,,,,,,,,,,,,,,,,,,,,,,,,,,,,,,,,,,
,,,,,,,,,,,,a,Incorrect,,,,,,t2.png,t4.png,2,0.059078,20,female,2020-09-28_12h39.45.729,torte-2b,2020.1.3,Win32,60,12724,0.340175,,,,,0,65,65,24,1,,,,,,,,,,,,,,,,,,,,,,,,,,,,,,,,,,,,,,,,,,,,,,,,,,,,,,,,
,,,,,,,,,,,,a,Correct!,,,,,,t1.png,t1.png,0,0.97829,20,female,2020-09-28_12h39.45.729,torte-2b,2020.1.3,Win32,60,12724,0.31843,,,,,0,66,66,9,1,,,,,,,,,,,,,,,,,,,,,,,,,,,,,,,,,,,,,,,,,,,,,,,,,,,,,,,,
,,,,,,,,,,,,l,Correct!,,,,,,t2.png,t4.png,2,0.059078,20,female,2020-09-28_12h39.45.729,torte-2b,2020.1.3,Win32,60,12724,0.284455,,,,,0,67,67,37,1,,,,,,,,,,,,,,,,,,,,,,,,,,,,,,,,,,,,,,,,,,,,,,,,,,,,,,,,
,,,,,,,,,,,,l,Correct!,,,,,,t1.png,t5.png,4,9.55E-11,20,female,2020-09-28_12h39.45.729,torte-2b,2020.1.3,Win32,60,12724,0.424615,,,,,0,68,68,12,1,,,,,,,,,,,,,,,,,,,,,,,,,,,,,,,,,,,,,,,,,,,,,,,,,,,,,,,,
,,,,,,,,,,,,l,Incorrect,,,,,,t2.png,t3.png,1,0.90855,20,female,2020-09-28_12h39.45.729,torte-2b,2020.1.3,Win32,60,12724,0.38974,,,,,0,69,69,10,1,,,,,,,,,,,,,,,,,,,,,,,,,,,,,,,,,,,,,,,,,,,,,,,,,,,,,,,,
,,,,,,,,,,,,l,Correct!,,,,,,t2.png,t5.png,3,0.0000131,20,female,2020-09-28_12h39.45.729,torte-2b,2020.1.3,Win32,60,12724,0.63419,,,,,0,70,70,8,1,,,,,,,,,,,,,,,,,,,,,,,,,,,,,,,,,,,,,,,,,,,,,,,,,,,,,,,,
,,,,,,,,,,,,a,Correct!,,,,,,t3.png,t4.png,1,0.909,20,female,2020-09-28_12h39.45.729,torte-2b,2020.1.3,Win32,60,12724,0.20131,,,,,0,71,71,82,1,,,,,,,,,,,,,,,,,,,,,,,,,,,,,,,,,,,,,,,,,,,,,,,,,,,,,,,,
,,,,,,,,,,,,l,Correct!,,,,,,t4.png,t1.png,3,0.0000131,20,female,2020-09-28_12h39.45.729,torte-2b,2020.1.3,Win32,60,12724,0.595155,,,,,0,72,72,61,1,,,,,,,,,,,,,,,,,,,,,,,,,,,,,,,,,,,,,,,,,,,,,,,,,,,,,,,,
,,,,,,,,,,,,a,Correct!,,,,,,t3.png,t2.png,1,0.90855,20,female,2020-09-28_12h39.45.729,torte-2b,2020.1.3,Win32,60,12724,0.500385,,,,,0,73,73,97,1,,,,,,,,,,,,,,,,,,,,,,,,,,,,,,,,,,,,,,,,,,,,,,,,,,,,,,,,
,,,,,,,,,,,,l,Correct!,,,,,,t4.png,t1.png,3,0.0000131,20,female,2020-09-28_12h39.45.729,torte-2b,2020.1.3,Win32,60,12724,1.333195,,,,,0,74,74,93,1,,,,,,,,,,,,,,,,,,,,,,,,,,,,,,,,,,,,,,,,,,,,,,,,,,,,,,,,
,,,,,,,,,,,,a,Incorrect,,,,,,t4.png,t2.png,2,0.059078,20,female,2020-09-28_12h39.45.729,torte-2b,2020.1.3,Win32,60,12724,0.984025,,,,,0,75,75,110,1,,,,,,,,,,,,,,,,,,,,,,,,,,,,,,,,,,,,,,,,,,,,,,,,,,,,,,,,
,,,,,,,,,,,,a,Incorrect,,,,,,t1.png,t5.png,4,9.55E-11,20,female,2020-09-28_12h39.45.729,torte-2b,2020.1.3,Win32,60,12724,0.317855,,,,,0,76,76,41,1,,,,,,,,,,,,,,,,,,,,,,,,,,,,,,,,,,,,,,,,,,,,,,,,,,,,,,,,
,,,,,,,,,,,,a,Correct!,,,,,,t4.png,t5.png,1,0.90025,20,female,2020-09-28_12h39.45.729,torte-2b,2020.1.3,Win32,60,12724,0.36787,,,,,0,77,77,103,1,,,,,,,,,,,,,,,,,,,,,,,,,,,,,,,,,,,,,,,,,,,,,,,,,,,,,,,,
,,,,,,,,,,,,a,Incorrect,,,,,,t5.png,t2.png,3,0.0000131,20,female,2020-09-28_12h39.45.729,torte-2b,2020.1.3,Win32,60,12724,0.197005,,,,,0,78,78,98,1,,,,,,,,,,,,,,,,,,,,,,,,,,,,,,,,,,,,,,,,,,,,,,,,,,,,,,,,
,,,,,,,,,,,,a,Incorrect,,,,,,t3.png,t5.png,2,0.056466,20,female,2020-09-28_12h39.45.729,torte-2b,2020.1.3,Win32,60,12724,0.62916,,,,,0,79,79,14,1,,,,,,,,,,,,,,,,,,,,,,,,,,,,,,,,,,,,,,,,,,,,,,,,,,,,,,,,
,,,,,,,,,,,,l,Incorrect,,,,,,t5.png,t4.png,1,0.9,20,female,2020-09-28_12h39.45.729,torte-2b,2020.1.3,Win32,60,12724,0.388625,,,,,0,80,80,76,1,,,,,,,,,,,,,,,,,,,,,,,,,,,,,,,,,,,,,,,,,,,,,,,,,,,,,,,,
,,,,,,,,,,,,l,Correct!,,,,,,t3.png,t5.png,2,0.0565,20,female,2020-09-28_12h39.45.729,torte-2b,2020.1.3,Win32,60,12724,1.4638,,,,,0,81,81,83,1,,,,,,,,,,,,,,,,,,,,,,,,,,,,,,,,,,,,,,,,,,,,,,,,,,,,,,,,
,,,,,,,,,,,,l,Correct!,,,,,,t3.png,t1.png,2,0.0565,20,female,2020-09-28_12h39.45.729,torte-2b,2020.1.3,Win32,60,12724,1.056775,,,,,0,82,82,31,1,,,,,,,,,,,,,,,,,,,,,,,,,,,,,,,,,,,,,,,,,,,,,,,,,,,,,,,,
,,,,,,,,,,,,l,Incorrect,,,,,,t3.png,t5.png,2,0.056466,20,female,2020-09-28_12h39.45.729,torte-2b,2020.1.3,Win32,60,12724,1.024145,,,,,0,83,83,44,1,,,,,,,,,,,,,,,,,,,,,,,,,,,,,,,,,,,,,,,,,,,,,,,,,,,,,,,,
,,,,,,,,,,,,a,Correct!,,,,,,t3.png,t2.png,1,0.909,20,female,2020-09-28_12h39.45.729,torte-2b,2020.1.3,Win32,60,12724,0.12041,,,,,0,84,84,3,1,,,,,,,,,,,,,,,,,,,,,,,,,,,,,,,,,,,,,,,,,,,,,,,,,,,,,,,,
,,,,,,,,,,,,a,Correct!,,,,,,t4.png,t5.png,1,0.90025,20,female,2020-09-28_12h39.45.729,torte-2b,2020.1.3,Win32,60,12724,0.38117,,,,,0,85,85,113,1,,,,,,,,,,,,,,,,,,,,,,,,,,,,,,,,,,,,,,,,,,,,,,,,,,,,,,,,
,,,,,,,,,,,,l,Incorrect,,,,,,t1.png,t2.png,1,0.90025,20,female,2020-09-28_12h39.45.729,torte-2b,2020.1.3,Win32,60,12724,0.32993,,,,,0,86,86,33,1,,,,,,,,,,,,,,,,,,,,,,,,,,,,,,,,,,,,,,,,,,,,,,,,,,,,,,,,
,,,,,,,,,,,,l,Correct!,,,,,,t4.png,t2.png,2,0.059078,20,female,2020-09-28_12h39.45.729,torte-2b,2020.1.3,Win32,60,12724,0.30665,,,,,0,87,87,86,1,,,,,,,,,,,,,,,,,,,,,,,,,,,,,,,,,,,,,,,,,,,,,,,,,,,,,,,,
,,,,,,,,,,,,l,Correct!,,,,,,t2.png,t5.png,3,0.0000131,20,female,2020-09-28_12h39.45.729,torte-2b,2020.1.3,Win32,60,12724,0.16866,,,,,0,88,88,66,1,,,,,,,,,,,,,,,,,,,,,,,,,,,,,,,,,,,,,,,,,,,,,,,,,,,,,,,,
,,,,,,,,,,,,l,Incorrect,,,,,,t2.png,t3.png,1,0.90855,20,female,2020-09-28_12h39.45.729,torte-2b,2020.1.3,Win32,60,12724,0.24778,,,,,0,89,89,68,1,,,,,,,,,,,,,,,,,,,,,,,,,,,,,,,,,,,,,,,,,,,,,,,,,,,,,,,,
,,,,,,,,,,,,l,Correct!,,,,,,t5.png,t1.png,4,9.55E-11,20,female,2020-09-28_12h39.45.729,torte-2b,2020.1.3,Win32,60,12724,1.91725,,,,,0,90,90,100,1,,,,,,,,,,,,,,,,,,,,,,,,,,,,,,,,,,,,,,,,,,,,,,,,,,,,,,,,
,,,,,,,,,,,,l,Incorrect,,,,,,t1.png,t2.png,1,0.90025,20,female,2020-09-28_12h39.45.729,torte-2b,2020.1.3,Win32,60,12724,1.432095,,,,,0,91,91,112,1,,,,,,,,,,,,,,,,,,,,,,,,,,,,,,,,,,,,,,,,,,,,,,,,,,,,,,,,
,,,,,,,,,,,,a,Correct!,,,,,,t2.png,t1.png,1,0.90025,20,female,2020-09-28_12h39.45.729,torte-2b,2020.1.3,Win32,60,12724,0.883795,,,,,0,92,92,19,1,,,,,,,,,,,,,,,,,,,,,,,,,,,,,,,,,,,,,,,,,,,,,,,,,,,,,,,,
,,,,,,,,,,,,a,Correct!,,,,,,t3.png,t1.png,2,0.056466,20,female,2020-09-28_12h39.45.729,torte-2b,2020.1.3,Win32,60,12724,0.35066,,,,,0,93,93,29,1,,,,,,,,,,,,,,,,,,,,,,,,,,,,,,,,,,,,,,,,,,,,,,,,,,,,,,,,
,,,,,,,,,,,,l,Correct!,,,,,,t5.png,t1.png,4,9.55E-11,20,female,2020-09-28_12h39.45.729,torte-2b,2020.1.3,Win32,60,12724,0.709925,,,,,0,94,94,102,1,,,,,,,,,,,,,,,,,,,,,,,,,,,,,,,,,,,,,,,,,,,,,,,,,,,,,,,,
,,,,,,,,,,,,,Too slow :(,,,,,,t5.png,t5.png,0,0.97829,20,female,2020-09-28_12h39.45.729,torte-2b,2020.1.3,Win32,60,12724,,,,,,0,95,95,70,1,,,,,,,,,,,,,,,,,,,,,,,,,,,,,,,,,,,,,,,,,,,,,,,,,,,,,,,,
,,,,,,,,,,,,,Too slow :(,,,,,,t1.png,t2.png,1,0.90025,20,female,2020-09-28_12h39.45.729,torte-2b,2020.1.3,Win32,60,12724,,,,,,0,96,96,72,1,,,,,,,,,,,,,,,,,,,,,,,,,,,,,,,,,,,,,,,,,,,,,,,,,,,,,,,,
,,,,,,,,,,,,,Too slow :(,,,,,,t1.png,t4.png,3,0.0000131,20,female,2020-09-28_12h39.45.729,torte-2b,2020.1.3,Win32,60,12724,,,,,,0,97,97,17,1,,,,,,,,,,,,,,,,,,,,,,,,,,,,,,,,,,,,,,,,,,,,,,,,,,,,,,,,
,,,,,,,,,,,,,Too slow :(,,,,,,t4.png,t4.png,0,0.98115,20,female,2020-09-28_12h39.45.729,torte-2b,2020.1.3,Win32,60,12724,,,,,,0,98,98,90,1,,,,,,,,,,,,,,,,,,,,,,,,,,,,,,,,,,,,,,,,,,,,,,,,,,,,,,,,
,,,,,,,,,,,,l,Correct!,,,,,,t2.png,t3.png,1,0.90855,20,female,2020-09-28_12h39.45.729,torte-2b,2020.1.3,Win32,60,12724,0.90632,,,,,0,99,99,65,1,,,,,,,,,,,,,,,,,,,,,,,,,,,,,,,,,,,,,,,,,,,,,,,,,,,,,,,,
,,,,,,,,,,,,a,Incorrect,,,,,,t5.png,t3.png,2,0.056466,20,female,2020-09-28_12h39.45.729,torte-2b,2020.1.3,Win32,60,12724,1.074625,,,,,0,100,100,114,1,,,,,,,,,,,,,,,,,,,,,,,,,,,,,,,,,,,,,,,,,,,,,,,,,,,,,,,,
,,,,,,,,,,,,l,Incorrect,,,,,,t1.png,t1.png,0,0.97829,20,female,2020-09-28_12h39.45.729,torte-2b,2020.1.3,Win32,60,12724,2.435685,,,,,0,101,101,78,1,,,,,,,,,,,,,,,,,,,,,,,,,,,,,,,,,,,,,,,,,,,,,,,,,,,,,,,,
,,,,,,,,,,,,a,Correct!,,,,,,t4.png,t3.png,1,0.90855,20,female,2020-09-28_12h39.45.729,torte-2b,2020.1.3,Win32,60,12724,0.791575,,,,,0,102,102,45,1,,,,,,,,,,,,,,,,,,,,,,,,,,,,,,,,,,,,,,,,,,,,,,,,,,,,,,,,
,,,,,,,,,,,,l,Incorrect,,,,,,t4.png,t3.png,1,0.90855,20,female,2020-09-28_12h39.45.729,torte-2b,2020.1.3,Win32,60,12724,2.249065,,,,,0,103,103,35,1,,,,,,,,,,,,,,,,,,,,,,,,,,,,,,,,,,,,,,,,,,,,,,,,,,,,,,,,
,,,,,,,,,,,,a,Incorrect,,,,,,t1.png,t3.png,2,0.056466,20,female,2020-09-28_12h39.45.729,torte-2b,2020.1.3,Win32,60,12724,1.734475,,,,,0,104,104,69,1,,,,,,,,,,,,,,,,,,,,,,,,,,,,,,,,,,,,,,,,,,,,,,,,,,,,,,,,
,,,,,,,,,,,,,Too slow :(,,,,,,t3.png,t4.png,1,0.909,20,female,2020-09-28_12h39.45.729,torte-2b,2020.1.3,Win32,60,12724,,,,,,0,105,105,106,1,,,,,,,,,,,,,,,,,,,,,,,,,,,,,,,,,,,,,,,,,,,,,,,,,,,,,,,,
,,,,,,,,,,,,,Too slow :(,,,,,,t5.png,t5.png,0,0.97829,20,female,2020-09-28_12h39.45.729,torte-2b,2020.1.3,Win32,60,12724,,,,,,0,106,106,94,1,,,,,,,,,,,,,,,,,,,,,,,,,,,,,,,,,,,,,,,,,,,,,,,,,,,,,,,,
,,,,,,,,,,,,a,Incorrect,,,,,,t1.png,t4.png,3,0.0000131,20,female,2020-09-28_12h39.45.729,torte-2b,2020.1.3,Win32,60,12724,0.620785,,,,,0,107,107,92,1,,,,,,,,,,,,,,,,,,,,,,,,,,,,,,,,,,,,,,,,,,,,,,,,,,,,,,,,
,,,,,,,,,,,,a,Correct!,,,,,,t3.png,t2.png,1,0.90855,20,female,2020-09-28_12h39.45.729,torte-2b,2020.1.3,Win32,60,12724,0.952425,,,,,0,108,108,18,1,,,,,,,,,,,,,,,,,,,,,,,,,,,,,,,,,,,,,,,,,,,,,,,,,,,,,,,,
,,,,,,,,,,,,a,Incorrect,,,,,,t4.png,t1.png,3,0.0000131,20,female,2020-09-28_12h39.45.729,torte-2b,2020.1.3,Win32,60,12724,1.59896,,,,,0,109,109,13,1,,,,,,,,,,,,,,,,,,,,,,,,,,,,,,,,,,,,,,,,,,,,,,,,,,,,,,,,
,,,,,,,,,,,,l,Incorrect,,,,,,t2.png,t3.png,1,0.90855,20,female,2020-09-28_12h39.45.729,torte-2b,2020.1.3,Win32,60,12724,1.170445,,,,,0,110,110,111,1,,,,,,,,,,,,,,,,,,,,,,,,,,,,,,,,,,,,,,,,,,,,,,,,,,,,,,,,
,,,,,,,,,,,,,Too slow :(,,,,,,t5.png,t1.png,4,9.55E-11,20,female,2020-09-28_12h39.45.729,torte-2b,2020.1.3,Win32,60,12724,,,,,,0,111,111,71,1,,,,,,,,,,,,,,,,,,,,,,,,,,,,,,,,,,,,,,,,,,,,,,,,,,,,,,,,
,,,,,,,,,,,,l,Correct!,,,,,,t5.png,t2.png,3,0.0000131,20,female,2020-09-28_12h39.45.729,torte-2b,2020.1.3,Win32,60,12724,0.284045,,,,,0,112,112,119,1,,,,,,,,,,,,,,,,,,,,,,,,,,,,,,,,,,,,,,,,,,,,,,,,,,,,,,,,
,,,,,,,,,,,,l,Correct!,,,,,,t5.png,t3.png,2,0.056466,20,female,2020-09-28_12h39.45.729,torte-2b,2020.1.3,Win32,60,12724,1.49148,,,,,0,113,113,56,1,,,,,,,,,,,,,,,,,,,,,,,,,,,,,,,,,,,,,,,,,,,,,,,,,,,,,,,,
,,,,,,,,,,,,a,Incorrect,,,,,,t5.png,t2.png,3,0.0000131,20,female,2020-09-28_12h39.45.729,torte-2b,2020.1.3,Win32,60,12724,0.80624,,,,,0,114,114,91,1,,,,,,,,,,,,,,,,,,,,,,,,,,,,,,,,,,,,,,,,,,,,,,,,,,,,,,,,
,,,,,,,,,,,,l,Incorrect,,,,,,t5.png,t5.png,0,0.97829,20,female,2020-09-28_12h39.45.729,torte-2b,2020.1.3,Win32,60,12724,1.90522,,,,,0,115,115,25,1,,,,,,,,,,,,,,,,,,,,,,,,,,,,,,,,,,,,,,,,,,,,,,,,,,,,,,,,
,,,,,,,,,,,,a,Correct!,,,,,,t2.png,t2.png,0,0.981,20,female,2020-09-28_12h39.45.729,torte-2b,2020.1.3,Win32,60,12724,0.72723,,,,,0,116,116,101,1,,,,,,,,,,,,,,,,,,,,,,,,,,,,,,,,,,,,,,,,,,,,,,,,,,,,,,,,
,,,,,,,,,,,,l,Correct!,,,,,,t1.png,t5.png,4,9.55E-11,20,female,2020-09-28_12h39.45.729,torte-2b,2020.1.3,Win32,60,12724,0.36797,,,,,0,117,117,16,1,,,,,,,,,,,,,,,,,,,,,,,,,,,,,,,,,,,,,,,,,,,,,,,,,,,,,,,,
,,,,,,,,,,,,l,Correct!,,,,,,t5.png,t1.png,4,9.55E-11,20,female,2020-09-28_12h39.45.729,torte-2b,2020.1.3,Win32,60,12724,0.87531,,,,,0,118,118,22,1,,,,,,,,,,,,,,,,,,,,,,,,,,,,,,,,,,,,,,,,,,,,,,,,,,,,,,,,
,,,,,,,,,,,,l,Correct!,,,,,,t2.png,t5.png,3,0.0000131,20,female,2020-09-28_12h39.45.729,torte-2b,2020.1.3,Win32,60,12724,0.35921,,,,,0,119,119,95,1,,,,,,,,,,,,,,,,,,,,,,,,,,,,,,,,,,,,,,,,,,,,,,,,,,,,,,,,
,,,,,,,,,,,,,,,,,,,,,,,20,female,2020-09-28_12h39.45.729,torte-2b,2020.1.3,Win32,60,12724,,space,1.30727,,,,,,,,space,17.334855,,0,0,0,0,1,6,,,,,,,,,,,,,,,,,,,,,,,,,,,,,,,,,,,,,,,,,,,,,,,
,,,,,,,,,,,,,,,,,,,,,,,20,female,2020-09-28_12h39.45.729,torte-2b,2020.1.3,Win32,60,12724,,,,,,,,,,,,,,0,1,1,1,1,7,,,,,,,,,,,,,,,,,,,,,,,,,,,,,,,,,,,,,,,,,,,,,,,
,,,,,,,,,,,,,,,,,,,,,,,20,female,2020-09-28_12h39.45.729,torte-2b,2020.1.3,Win32,60,12724,,,,,,,,,,,,,space,0,2,2,2,1,6,0.28568,,,,,,,,,,,,,,,,,,,,,,,,,,,,,,,,,,,,,,,,,,,,,,
,,,,,,,,,,,,,,,,,,,,,,,20,female,2020-09-28_12h39.45.729,torte-2b,2020.1.3,Win32,60,12724,,,,,,,,,,,,,,0,3,3,3,1,7,,,,,,,,,,,,,,,,,,,,,,,,,,,,,,,,,,,,,,,,,,,,,,,
,,,,,,,,,,,,,,,,,,,,,,,20,female,2020-09-28_12h39.45.729,torte-2b,2020.1.3,Win32,60,12724,,,,,,,,,,,,,,0,4,4,4,1,5,,,,,,,,,,,,,,,,,,,,,,,,,,,,,,,,,,,,,,,,,,,,,,,
,,,,,,,,,,,,,,,,,,,,,,,20,female,2020-09-28_12h39.45.729,torte-2b,2020.1.3,Win32,60,12724,,,,,,,,,,,,,space,0,5,5,5,1,7,0.551145,,,,,,,,,,,,,,,,,,,,,,,,,,,,,,,,,,,,,,,,,,,,,,
,,,,,,,,,,,,,,,,,,,,,,,20,female,2020-09-28_12h39.45.729,torte-2b,2020.1.3,Win32,60,12724,,,,,,,,,,,,,space,0,6,6,6,1,2,0.26979,,,,,,,,,,,,,,,,,,,,,,,,,,,,,,,,,,,,,,,,,,,,,,
,,,,,,,,,,,,,,,,,,,,,,,20,female,2020-09-28_12h39.45.729,torte-2b,2020.1.3,Win32,60,12724,,,,,,,,,,,,,,0,7,7,7,1,4,,,,,,,,,,,,,,,,,,,,,,,,,,,,,,,,,,,,,,,,,,,,,,,
,,,,,,,,,,,,,,,,,,,,,,,20,female,2020-09-28_12h39.45.729,torte-2b,2020.1.3,Win32,60,12724,,,,,,,,,,,,,space,0,8,8,8,1,7,0.600895,,,,,,,,,,,,,,,,,,,,,,,,,,,,,,,,,,,,,,,,,,,,,,
,,,,,,,,,,,,,,,,,,,,,,,20,female,2020-09-28_12h39.45.729,torte-2b,2020.1.3,Win32,60,12724,,,,,,,,,,,,,space,0,9,9,9,1,4,0.5914,,,,,,,,,,,,,,,,,,,,,,,,,,,,,,,,,,,,,,,,,,,,,,
,,,,,,,,,,,,,,,,,,,,,,,20,female,2020-09-28_12h39.45.729,torte-2b,2020.1.3,Win32,60,12724,,,,,,,,,,,,,,0,10,10,10,1,7,,,,,,,,,,,,,,,,,,,,,,,,,,,,,,,,,,,,,,,,,,,,,,,
,,,,,,,,,,,,,,,,,,,,,,,20,female,2020-09-28_12h39.45.729,torte-2b,2020.1.3,Win32,60,12724,,,,,,,,,,,,,space,0,11,11,11,1,7,0.43958,,,,,,,,,,,,,,,,,,,,,,,,,,,,,,,,,,,,,,,,,,,,,,
,,,,,,,,,,,,,,,,,,,,,,,20,female,2020-09-28_12h39.45.729,torte-2b,2020.1.3,Win32,60,12724,,,,,,,,,,,,,space,0,12,12,12,1,7,0.382585,,,,,,,,,,,,,,,,,,,,,,,,,,,,,,,,,,,,,,,,,,,,,,
,,,,,,,,,,,,,,,,,,,,,,,20,female,2020-09-28_12h39.45.729,torte-2b,2020.1.3,Win32,60,12724,,,,,,,,,,,,,space,0,13,13,13,1,4,0.38246,,,,,,,,,,,,,,,,,,,,,,,,,,,,,,,,,,,,,,,,,,,,,,
,,,,,,,,,,,,,,,,,,,,,,,20,female,2020-09-28_12h39.45.729,torte-2b,2020.1.3,Win32,60,12724,,,,,,,,,,,,,space,0,14,14,14,1,6,1.74851,,,,,,,,,,,,,,,,,,,,,,,,,,,,,,,,,,,,,,,,,,,,,,
,,,,,,,,,,,,,,,,,,,,,,,20,female,2020-09-28_12h39.45.729,torte-2b,2020.1.3,Win32,60,12724,,,,,,,,,,,,,,0,15,15,15,1,4,,,,,,,,,,,,,,,,,,,,,,,,,,,,,,,,,,,,,,,,,,,,,,,
,,,,,,,,,,,,,,,,,,,,,,,20,female,2020-09-28_12h39.45.729,torte-2b,2020.1.3,Win32,60,12724,,,,,,,,,,,,,space,0,16,16,16,1,6,0.45269,,,,,,,,,,,,,,,,,,,,,,,,,,,,,,,,,,,,,,,,,,,,,,
,,,,,,,,,,,,,,,,,,,,,,,20,female,2020-09-28_12h39.45.729,torte-2b,2020.1.3,Win32,60,12724,,,,,,,,,,,,,space,0,17,17,17,1,7,0.15468,,,,,,,,,,,,,,,,,,,,,,,,,,,,,,,,,,,,,,,,,,,,,,
,,,,,,,,,,,,,,,,,,,,,,,20,female,2020-09-28_12h39.45.729,torte-2b,2020.1.3,Win32,60,12724,,,,,,,,,,,,,,0,18,18,18,1,6,,,,,,,,,,,,,,,,,,,,,,,,,,,,,,,,,,,,,,,,,,,,,,,
,,,,,,,,,,,,,,,,,,,,,,,20,female,2020-09-28_12h39.45.729,torte-2b,2020.1.3,Win32,60,12724,,,,,,,,,,,,,space,0,19,19,19,1,7,0.45525,,,,,,,,,,,,,,,,,,,,,,,,,,,,,,,,,,,,,,,,,,,,,,
,,,,,,,,,,,,,,,,,,,,,,,20,female,2020-09-28_12h39.45.729,torte-2b,2020.1.3,Win32,60,12724,,,,,,,,,,,,,,0,20,20,20,1,5,,,,,,,,,,,,,,,,,,,,,,,,,,,,,,,,,,,,,,,,,,,,,,,
,,,,,,,,,,,,,,,,,,,,,,,20,female,2020-09-28_12h39.45.729,torte-2b,2020.1.3,Win32,60,12724,,,,,,,,,,,,,,0,21,21,21,1,1,,,,,,,,,,,,,,,,,,,,,,,,,,,,,,,,,,,,,,,,,,,,,,,
,,,,,,,,,,,,,,,,,,,,,,,20,female,2020-09-28_12h39.45.729,torte-2b,2020.1.3,Win32,60,12724,,,,,,,,,,,,,space,0,22,22,22,1,6,0.759005,,,,,,,,,,,,,,,,,,,,,,,,,,,,,,,,,,,,,,,,,,,,,,
,,,,,,,,,,,,,,,,,,,,,,,20,female,2020-09-28_12h39.45.729,torte-2b,2020.1.3,Win32,60,12724,,,,,,,,,,,,,space,0,23,23,23,1,1,0.5996,,,,,,,,,,,,,,,,,,,,,,,,,,,,,,,,,,,,,,,,,,,,,,
,,,,,,,,,,,,,,,,,,,,,,,20,female,2020-09-28_12h39.45.729,torte-2b,2020.1.3,Win32,60,12724,,,,,,,,,,,,,space,0,24,24,24,1,5,0.649665,,,,,,,,,,,,,,,,,,,,,,,,,,,,,,,,,,,,,,,,,,,,,,
,,,,,,,,,,,,,,,,,,,,,,,20,female,2020-09-28_12h39.45.729,torte-2b,2020.1.3,Win32,60,12724,,,,,,,,,,,,,,0,25,25,25,1,6,,,,,,,,,,,,,,,,,,,,,,,,,,,,,,,,,,,,,,,,,,,,,,,
,,,,,,,,,,,,,,,,,,,,,,,20,female,2020-09-28_12h39.45.729,torte-2b,2020.1.3,Win32,60,12724,,,,,,,,,,,,,space,0,26,26,26,1,6,0.37118,,,,,,,,,,,,,,,,,,,,,,,,,,,,,,,,,,,,,,,,,,,,,,
,,,,,,,,,,,,,,,,,,,,,,,20,female,2020-09-28_12h39.45.729,torte-2b,2020.1.3,Win32,60,12724,,,,,,,,,,,,,space,0,27,27,27,1,6,0.406565,,,,,,,,,,,,,,,,,,,,,,,,,,,,,,,,,,,,,,,,,,,,,,
,,,,,,,,,,,,,,,,,,,,,,,20,female,2020-09-28_12h39.45.729,torte-2b,2020.1.3,Win32,60,12724,,,,,,,,,,,,,space,0,28,28,28,1,5,0.58867,,,,,,,,,,,,,,,,,,,,,,,,,,,,,,,,,,,,,,,,,,,,,,
,,,,,,,,,,,,,,,,,,,,,,,20,female,2020-09-28_12h39.45.729,torte-2b,2020.1.3,Win32,60,12724,,,,,,,,,,,,,space,0,29,29,29,1,2,0.37667,,,,,,,,,,,,,,,,,,,,,,,,,,,,,,,,,,,,,,,,,,,,,,
,,,,,,,,,,,,,,,,,,,,,,,20,female,2020-09-28_12h39.45.729,torte-2b,2020.1.3,Win32,60,12724,,,,,,,,,,,,,space,0,30,30,30,1,5,1.92931,,,,,,,,,,,,,,,,,,,,,,,,,,,,,,,,,,,,,,,,,,,,,,
,,,,,,,,,,,,,,,,,,,,,,,20,female,2020-09-28_12h39.45.729,torte-2b,2020.1.3,Win32,60,12724,,,,,,,,,,,,,space,0,31,31,31,1,2,1.70627,,,,,,,,,,,,,,,,,,,,,,,,,,,,,,,,,,,,,,,,,,,,,,
,,,,,,,,,,,,,,,,,,,,,,,20,female,2020-09-28_12h39.45.729,torte-2b,2020.1.3,Win32,60,12724,,,,,,,,,,,,,space,0,32,32,32,1,5,1.373445,,,,,,,,,,,,,,,,,,,,,,,,,,,,,,,,,,,,,,,,,,,,,,
,,,,,,,,,,,,,,,,,,,,,,,20,female,2020-09-28_12h39.45.729,torte-2b,2020.1.3,Win32,60,12724,,,,,,,,,,,,,space,0,33,33,33,1,1,0.2948,,,,,,,,,,,,,,,,,,,,,,,,,,,,,,,,,,,,,,,,,,,,,,
,,,,,,,,,,,,,,,,,,,,,,,20,female,2020-09-28_12h39.45.729,torte-2b,2020.1.3,Win32,60,12724,,,,,,,,,,,,,space,0,34,34,34,1,1,0.481425,,,,,,,,,,,,,,,,,,,,,,,,,,,,,,,,,,,,,,,,,,,,,,
,,,,,,,,,,,,,,,,,,,,,,,20,female,2020-09-28_12h39.45.729,torte-2b,2020.1.3,Win32,60,12724,,,,,,,,,,,,,,,,,,,2,,0,0,0,0,1,,,,,,,,,,,,,,,,,,,,,,,,,,,,,,,,,,,,,,,,,
,,,,,,,,,,,,,,,,,,,,,,,20,female,2020-09-28_12h39.45.729,torte-2b,2020.1.3,Win32,60,12724,,,,,,,,,,,,,,,,,,,2,,0,1,1,1,1,,,,,,,,,,,,,,,,,,,,,,,,,,,,,,,,,,,,,,,,,
,,,,,,,,,,,,,,,,,,,,,,,20,female,2020-09-28_12h39.45.729,torte-2b,2020.1.3,Win32,60,12724,,,,,,,,,,,,,space,,,,,,6,1.447465,0,2,2,2,1,,,,,,,,,,,,,,,,,,,,,,,,,,,,,,,,,,,,,,,,,
,,,,,,,,,,,,,,,,,,,,,,,20,female,2020-09-28_12h39.45.729,torte-2b,2020.1.3,Win32,60,12724,,,,,,,,,,,,,,,,,,,2,,0,3,3,3,1,,,,,,,,,,,,,,,,,,,,,,,,,,,,,,,,,,,,,,,,,
,,,,,,,,,,,,,,,,,,,,,,,20,female,2020-09-28_12h39.45.729,torte-2b,2020.1.3,Win32,60,12724,,,,,,,,,,,,,,,,,,,6,,0,4,4,4,1,,,,,,,,,,,,,,,,,,,,,,,,,,,,,,,,,,,,,,,,,
,,,,,,,,,,,,,,,,,,,,,,,20,female,2020-09-28_12h39.45.729,torte-2b,2020.1.3,Win32,60,12724,,,,,,,,,,,,,,,,,,,2,,0,5,5,5,1,,,,,,,,,,,,,,,,,,,,,,,,,,,,,,,,,,,,,,,,,
,,,,,,,,,,,,,,,,,,,,,,,20,female,2020-09-28_12h39.45.729,torte-2b,2020.1.3,Win32,60,12724,,,,,,,,,,,,,,,,,,,7,,0,6,6,6,1,,,,,,,,,,,,,,,,,,,,,,,,,,,,,,,,,,,,,,,,,
,,,,,,,,,,,,,,,,,,,,,,,20,female,2020-09-28_12h39.45.729,torte-2b,2020.1.3,Win32,60,12724,,,,,,,,,,,,,space,,,,,,2,0.452655,0,7,7,7,1,,,,,,,,,,,,,,,,,,,,,,,,,,,,,,,,,,,,,,,,,
,,,,,,,,,,,,,,,,,,,,,,,20,female,2020-09-28_12h39.45.729,torte-2b,2020.1.3,Win32,60,12724,,,,,,,,,,,,,,,,,,,7,,0,8,8,8,1,,,,,,,,,,,,,,,,,,,,,,,,,,,,,,,,,,,,,,,,,
,,,,,,,,,,,,,,,,,,,,,,,20,female,2020-09-28_12h39.45.729,torte-2b,2020.1.3,Win32,60,12724,,,,,,,,,,,,,,,,,,,2,,0,9,9,9,1,,,,,,,,,,,,,,,,,,,,,,,,,,,,,,,,,,,,,,,,,
,,,,,,,,,,,,,,,,,,,,,,,20,female,2020-09-28_12h39.45.729,torte-2b,2020.1.3,Win32,60,12724,,,,,,,,,,,,,,,,,,,5,,0,10,10,10,1,,,,,,,,,,,,,,,,,,,,,,,,,,,,,,,,,,,,,,,,,
,,,,,,,,,,,,,,,,,,,,,,,20,female,2020-09-28_12h39.45.729,torte-2b,2020.1.3,Win32,60,12724,,,,,,,,,,,,,space,,,,,,4,1.771585,0,11,11,11,1,,,,,,,,,,,,,,,,,,,,,,,,,,,,,,,,,,,,,,,,,
,,,,,,,,,,,,,,,,,,,,,,,20,female,2020-09-28_12h39.45.729,torte-2b,2020.1.3,Win32,60,12724,,,,,,,,,,,,,space,,,,,,5,1.581485,0,12,12,12,1,,,,,,,,,,,,,,,,,,,,,,,,,,,,,,,,,,,,,,,,,
,,,,,,,,,,,,,,,,,,,,,,,20,female,2020-09-28_12h39.45.729,torte-2b,2020.1.3,Win32,60,12724,,,,,,,,,,,,,,,,,,,6,,0,13,13,13,1,,,,,,,,,,,,,,,,,,,,,,,,,,,,,,,,,,,,,,,,,
,,,,,,,,,,,,,,,,,,,,,,,20,female,2020-09-28_12h39.45.729,torte-2b,2020.1.3,Win32,60,12724,,,,,,,,,,,,,space,,,,,,5,0.36459,0,14,14,14,1,,,,,,,,,,,,,,,,,,,,,,,,,,,,,,,,,,,,,,,,,
,,,,,,,,,,,,,,,,,,,,,,,20,female,2020-09-28_12h39.45.729,torte-2b,2020.1.3,Win32,60,12724,,,,,,,,,,,,,space,,,,,,4,0.547295,0,15,15,15,1,,,,,,,,,,,,,,,,,,,,,,,,,,,,,,,,,,,,,,,,,
,,,,,,,,,,,,,,,,,,,,,,,20,female,2020-09-28_12h39.45.729,torte-2b,2020.1.3,Win32,60,12724,,,,,,,,,,,,,space,,,,,,5,0.26483,0,16,16,16,1,,,,,,,,,,,,,,,,,,,,,,,,,,,,,,,,,,,,,,,,,
,,,,,,,,,,,,,,,,,,,,,,,20,female,2020-09-28_12h39.45.729,torte-2b,2020.1.3,Win32,60,12724,,,,,,,,,,,,,space,,,,,,3,0.26451,0,17,17,17,1,,,,,,,,,,,,,,,,,,,,,,,,,,,,,,,,,,,,,,,,,
,,,,,,,,,,,,,,,,,,,,,,,20,female,2020-09-28_12h39.45.729,torte-2b,2020.1.3,Win32,60,12724,,,,,,,,,,,,,space,,,,,,6,0.50742,0,18,18,18,1,,,,,,,,,,,,,,,,,,,,,,,,,,,,,,,,,,,,,,,,,
,,,,,,,,,,,,,,,,,,,,,,,20,female,2020-09-28_12h39.45.729,torte-2b,2020.1.3,Win32,60,12724,,,,,,,,,,,,,space,,,,,,6,1.106705,0,19,19,19,1,,,,,,,,,,,,,,,,,,,,,,,,,,,,,,,,,,,,,,,,,
,,,,,,,,,,,,,,,,,,,,,,,20,female,2020-09-28_12h39.45.729,torte-2b,2020.1.3,Win32,60,12724,,,,,,,,,,,,,space,,,,,,6,0.83439,0,20,20,20,1,,,,,,,,,,,,,,,,,,,,,,,,,,,,,,,,,,,,,,,,,
,,,,,,,,,,,,,,,,,,,,,,,20,female,2020-09-28_12h39.45.729,torte-2b,2020.1.3,Win32,60,12724,,,,,,,,,,,,,space,,,,,,4,1.697325,0,21,21,21,1,,,,,,,,,,,,,,,,,,,,,,,,,,,,,,,,,,,,,,,,,
,,,,,,,,,,,,,,,,,,,,,,,20,female,2020-09-28_12h39.45.729,torte-2b,2020.1.3,Win32,60,12724,,,,,,,,,,,,,,,,,,,6,,0,22,22,22,1,,,,,,,,,,,,,,,,,,,,,,,,,,,,,,,,,,,,,,,,,
,,,,,,,,,,,,,,,,,,,,,,,20,female,2020-09-28_12h39.45.729,torte-2b,2020.1.3,Win32,60,12724,,,,,,,,,,,,,space,,,,,,4,0.557055,0,23,23,23,1,,,,,,,,,,,,,,,,,,,,,,,,,,,,,,,,,,,,,,,,,
,,,,,,,,,,,,,,,,,,,,,,,20,female,2020-09-28_12h39.45.729,torte-2b,2020.1.3,Win32,60,12724,,,,,,,,,,,,,space,,,,,,6,0.822115,0,24,24,24,1,,,,,,,,,,,,,,,,,,,,,,,,,,,,,,,,,,,,,,,,,
,,,,,,,,,,,,,,,,,,,,,,,20,female,2020-09-28_12h39.45.729,torte-2b,2020.1.3,Win32,60,12724,,,,,,,,,,,,,,,,,,,6,,0,25,25,25,1,,,,,,,,,,,,,,,,,,,,,,,,,,,,,,,,,,,,,,,,,
,,,,,,,,,,,,,,,,,,,,,,,20,female,2020-09-28_12h39.45.729,torte-2b,2020.1.3,Win32,60,12724,,,,,,,,,,,,,,,,,,,7,,0,26,26,26,1,,,,,,,,,,,,,,,,,,,,,,,,,,,,,,,,,,,,,,,,,
,,,,,,,,,,,,,,,,,,,,,,,20,female,2020-09-28_12h39.45.729,torte-2b,2020.1.3,Win32,60,12724,,,,,,,,,,,,,space,,,,,,1,0.154885,0,27,27,27,1,,,,,,,,,,,,,,,,,,,,,,,,,,,,,,,,,,,,,,,,,
,,,,,,,,,,,,,,,,,,,,,,,20,female,2020-09-28_12h39.45.729,torte-2b,2020.1.3,Win32,60,12724,,,,,,,,,,,,,,,,,,,7,,0,28,28,28,1,,,,,,,,,,,,,,,,,,,,,,,,,,,,,,,,,,,,,,,,,
,,,,,,,,,,,,,,,,,,,,,,,20,female,2020-09-28_12h39.45.729,torte-2b,2020.1.3,Win32,60,12724,,,,,,,,,,,,,,,,,,,4,,0,29,29,29,1,,,,,,,,,,,,,,,,,,,,,,,,,,,,,,,,,,,,,,,,,
,,,,,,,,,,,,,,,,,,,,,,,20,female,2020-09-28_12h39.45.729,torte-2b,2020.1.3,Win32,60,12724,,,,,,,,,,,,,space,,,,,,7,0.330965,0,30,30,30,1,,,,,,,,,,,,,,,,,,,,,,,,,,,,,,,,,,,,,,,,,
,,,,,,,,,,,,,,,,,,,,,,,20,female,2020-09-28_12h39.45.729,torte-2b,2020.1.3,Win32,60,12724,,,,,,,,,,,,,,,,,,,3,,0,31,31,31,1,,,,,,,,,,,,,,,,,,,,,,,,,,,,,,,,,,,,,,,,,
,,,,,,,,,,,,,,,,,,,,,,,20,female,2020-09-28_12h39.45.729,torte-2b,2020.1.3,Win32,60,12724,,,,,,,,,,,,,,,,,,,2,,0,32,32,32,1,,,,,,,,,,,,,,,,,,,,,,,,,,,,,,,,,,,,,,,,,
,,,,,,,,,,,,,,,,,,,,,,,20,female,2020-09-28_12h39.45.729,torte-2b,2020.1.3,Win32,60,12724,,,,,,,,,,,,,,,,,,,6,,0,33,33,33,1,,,,,,,,,,,,,,,,,,,,,,,,,,,,,,,,,,,,,,,,,
,,,,,,,,,,,,,,,,,,,,,,,20,female,2020-09-28_12h39.45.729,torte-2b,2020.1.3,Win32,60,12724,,,,,,,,,,,,,,,,,,,3,,0,34,34,34,1,,,,,,,,,,,,,,,,,,,,,,,,,,,,,,,,,,,,,,,,,
,,,,,,,,,,,,,,,,,,,,,,,20,female,2020-09-28_12h39.45.729,torte-2b,2020.1.3,Win32,60,12724,,,,,,,,,,,,,,,,,,,7,,,,,,,0,0,0,0,1,,,,,,,,,,,,,,,,,,,,,,,,,,,,,,,,,,,,
,,,,,,,,,,,,,,,,,,,,,,,20,female,2020-09-28_12h39.45.729,torte-2b,2020.1.3,Win32,60,12724,,,,,,,,,,,,,,,,,,,5,,,,,,,0,1,1,1,1,,,,,,,,,,,,,,,,,,,,,,,,,,,,,,,,,,,,
,,,,,,,,,,,,,,,,,,,,,,,20,female,2020-09-28_12h39.45.729,torte-2b,2020.1.3,Win32,60,12724,,,,,,,,,,,,,,,,,,,4,,,,,,,0,2,2,2,1,,,,,,,,,,,,,,,,,,,,,,,,,,,,,,,,,,,,
,,,,,,,,,,,,,,,,,,,,,,,20,female,2020-09-28_12h39.45.729,torte-2b,2020.1.3,Win32,60,12724,,,,,,,,,,,,,,,,,,,5,,,,,,,0,3,3,3,1,,,,,,,,,,,,,,,,,,,,,,,,,,,,,,,,,,,,
,,,,,,,,,,,,,,,,,,,,,,,20,female,2020-09-28_12h39.45.729,torte-2b,2020.1.3,Win32,60,12724,,,,,,,,,,,,,,,,,,,6,,,,,,,0,4,4,4,1,,,,,,,,,,,,,,,,,,,,,,,,,,,,,,,,,,,,
,,,,,,,,,,,,,,,,,,,,,,,20,female,2020-09-28_12h39.45.729,torte-2b,2020.1.3,Win32,60,12724,,,,,,,,,,,,,,,,,,,5,,,,,,,0,5,5,5,1,,,,,,,,,,,,,,,,,,,,,,,,,,,,,,,,,,,,
,,,,,,,,,,,,,,,,,,,,,,,20,female,2020-09-28_12h39.45.729,torte-2b,2020.1.3,Win32,60,12724,,,,,,,,,,,,,,,,,,,3,,,,,,,0,6,6,6,1,,,,,,,,,,,,,,,,,,,,,,,,,,,,,,,,,,,,
,,,,,,,,,,,,,,,,,,,,,,,20,female,2020-09-28_12h39.45.729,torte-2b,2020.1.3,Win32,60,12724,,,,,,,,,,,,,,,,,,,4,,,,,,,0,7,7,7,1,,,,,,,,,,,,,,,,,,,,,,,,,,,,,,,,,,,,
,,,,,,,,,,,,,,,,,,,,,,,20,female,2020-09-28_12h39.45.729,torte-2b,2020.1.3,Win32,60,12724,,,,,,,,,,,,,space,,,,,,3,1.904445,,,,,,0,8,8,8,1,,,,,,,,,,,,,,,,,,,,,,,,,,,,,,,,,,,,
,,,,,,,,,,,,,,,,,,,,,,,20,female,2020-09-28_12h39.45.729,torte-2b,2020.1.3,Win32,60,12724,,,,,,,,,,,,,space,,,,,,1,1.39998,,,,,,0,9,9,9,1,,,,,,,,,,,,,,,,,,,,,,,,,,,,,,,,,,,,
,,,,,,,,,,,,,,,,,,,,,,,20,female,2020-09-28_12h39.45.729,torte-2b,2020.1.3,Win32,60,12724,,,,,,,,,,,,,,,,,,,2,,,,,,,0,10,10,10,1,,,,,,,,,,,,,,,,,,,,,,,,,,,,,,,,,,,,
,,,,,,,,,,,,,,,,,,,,,,,20,female,2020-09-28_12h39.45.729,torte-2b,2020.1.3,Win32,60,12724,,,,,,,,,,,,,space,,,,,,1,0.35103,,,,,,0,11,11,11,1,,,,,,,,,,,,,,,,,,,,,,,,,,,,,,,,,,,,
,,,,,,,,,,,,,,,,,,,,,,,20,female,2020-09-28_12h39.45.729,torte-2b,2020.1.3,Win32,60,12724,,,,,,,,,,,,,space,,,,,,2,1.699705,,,,,,0,12,12,12,1,,,,,,,,,,,,,,,,,,,,,,,,,,,,,,,,,,,,
,,,,,,,,,,,,,,,,,,,,,,,20,female,2020-09-28_12h39.45.729,torte-2b,2020.1.3,Win32,60,12724,,,,,,,,,,,,,,,,,,,1,,,,,,,0,13,13,13,1,,,,,,,,,,,,,,,,,,,,,,,,,,,,,,,,,,,,
,,,,,,,,,,,,,,,,,,,,,,,20,female,2020-09-28_12h39.45.729,torte-2b,2020.1.3,Win32,60,12724,,,,,,,,,,,,,space,,,,,,3,0.784005,,,,,,0,14,14,14,1,,,,,,,,,,,,,,,,,,,,,,,,,,,,,,,,,,,,
,,,,,,,,,,,,,,,,,,,,,,,20,female,2020-09-28_12h39.45.729,torte-2b,2020.1.3,Win32,60,12724,,,,,,,,,,,,,space,,,,,,1,0.7013,,,,,,0,15,15,15,1,,,,,,,,,,,,,,,,,,,,,,,,,,,,,,,,,,,,
,,,,,,,,,,,,,,,,,,,,,,,20,female,2020-09-28_12h39.45.729,torte-2b,2020.1.3,Win32,60,12724,,,,,,,,,,,,,space,,,,,,7,0.640665,,,,,,0,16,16,16,1,,,,,,,,,,,,,,,,,,,,,,,,,,,,,,,,,,,,
,,,,,,,,,,,,,,,,,,,,,,,20,female,2020-09-28_12h39.45.729,torte-2b,2020.1.3,Win32,60,12724,,,,,,,,,,,,,,,,,,,7,,,,,,,0,17,17,17,1,,,,,,,,,,,,,,,,,,,,,,,,,,,,,,,,,,,,
,,,,,,,,,,,,,,,,,,,,,,,20,female,2020-09-28_12h39.45.729,torte-2b,2020.1.3,Win32,60,12724,,,,,,,,,,,,,space,,,,,,4,0.351155,,,,,,0,18,18,18,1,,,,,,,,,,,,,,,,,,,,,,,,,,,,,,,,,,,,
,,,,,,,,,,,,,,,,,,,,,,,20,female,2020-09-28_12h39.45.729,torte-2b,2020.1.3,Win32,60,12724,,,,,,,,,,,,,space,,,,,,7,1.28323,,,,,,0,19,19,19,1,,,,,,,,,,,,,,,,,,,,,,,,,,,,,,,,,,,,
,,,,,,,,,,,,,,,,,,,,,,,20,female,2020-09-28_12h39.45.729,torte-2b,2020.1.3,Win32,60,12724,,,,,,,,,,,,,,,,,,,3,,,,,,,0,20,20,20,1,,,,,,,,,,,,,,,,,,,,,,,,,,,,,,,,,,,,
,,,,,,,,,,,,,,,,,,,,,,,20,female,2020-09-28_12h39.45.729,torte-2b,2020.1.3,Win32,60,12724,,,,,,,,,,,,,,,,,,,7,,,,,,,0,21,21,21,1,,,,,,,,,,,,,,,,,,,,,,,,,,,,,,,,,,,,
,,,,,,,,,,,,,,,,,,,,,,,20,female,2020-09-28_12h39.45.729,torte-2b,2020.1.3,Win32,60,12724,,,,,,,,,,,,,space,,,,,,3,0.00133,,,,,,0,22,22,22,1,,,,,,,,,,,,,,,,,,,,,,,,,,,,,,,,,,,,
,,,,,,,,,,,,,,,,,,,,,,,20,female,2020-09-28_12h39.45.729,torte-2b,2020.1.3,Win32,60,12724,,,,,,,,,,,,,space,,,,,,1,1.89996,,,,,,0,23,23,23,1,,,,,,,,,,,,,,,,,,,,,,,,,,,,,,,,,,,,
,,,,,,,,,,,,,,,,,,,,,,,20,female,2020-09-28_12h39.45.729,torte-2b,2020.1.3,Win32,60,12724,,,,,,,,,,,,,,,,,,,6,,,,,,,0,24,24,24,1,,,,,,,,,,,,,,,,,,,,,,,,,,,,,,,,,,,,
,,,,,,,,,,,,,,,,,,,,,,,20,female,2020-09-28_12h39.45.729,torte-2b,2020.1.3,Win32,60,12724,,,,,,,,,,,,,,,,,,,3,,,,,,,0,25,25,25,1,,,,,,,,,,,,,,,,,,,,,,,,,,,,,,,,,,,,
,,,,,,,,,,,,,,,,,,,,,,,20,female,2020-09-28_12h39.45.729,torte-2b,2020.1.3,Win32,60,12724,,,,,,,,,,,,,space,,,,,,2,0.737925,,,,,,0,26,26,26,1,,,,,,,,,,,,,,,,,,,,,,,,,,,,,,,,,,,,
,,,,,,,,,,,,,,,,,,,,,,,20,female,2020-09-28_12h39.45.729,torte-2b,2020.1.3,Win32,60,12724,,,,,,,,,,,,,,,,,,,3,,,,,,,0,27,27,27,1,,,,,,,,,,,,,,,,,,,,,,,,,,,,,,,,,,,,
,,,,,,,,,,,,,,,,,,,,,,,20,female,2020-09-28_12h39.45.729,torte-2b,2020.1.3,Win32,60,12724,,,,,,,,,,,,,,,,,,,1,,,,,,,0,28,28,28,1,,,,,,,,,,,,,,,,,,,,,,,,,,,,,,,,,,,,
,,,,,,,,,,,,,,,,,,,,,,,20,female,2020-09-28_12h39.45.729,torte-2b,2020.1.3,Win32,60,12724,,,,,,,,,,,,,space,,,,,,3,0.901985,,,,,,0,29,29,29,1,,,,,,,,,,,,,,,,,,,,,,,,,,,,,,,,,,,,
,,,,,,,,,,,,,,,,,,,,,,,20,female,2020-09-28_12h39.45.729,torte-2b,2020.1.3,Win32,60,12724,,,,,,,,,,,,,,,,,,,1,,,,,,,0,30,30,30,1,,,,,,,,,,,,,,,,,,,,,,,,,,,,,,,,,,,,
,,,,,,,,,,,,,,,,,,,,,,,20,female,2020-09-28_12h39.45.729,torte-2b,2020.1.3,Win32,60,12724,,,,,,,,,,,,,,,,,,,7,,,,,,,0,31,31,31,1,,,,,,,,,,,,,,,,,,,,,,,,,,,,,,,,,,,,
,,,,,,,,,,,,,,,,,,,,,,,20,female,2020-09-28_12h39.45.729,torte-2b,2020.1.3,Win32,60,12724,,,,,,,,,,,,,space,,,,,,5,0.15116,,,,,,0,32,32,32,1,,,,,,,,,,,,,,,,,,,,,,,,,,,,,,,,,,,,
,,,,,,,,,,,,,,,,,,,,,,,20,female,2020-09-28_12h39.45.729,torte-2b,2020.1.3,Win32,60,12724,,,,,,,,,,,,,,,,,,,7,,,,,,,0,33,33,33,1,,,,,,,,,,,,,,,,,,,,,,,,,,,,,,,,,,,,
,,,,,,,,,,,,,,,,,,,,,,,20,female,2020-09-28_12h39.45.729,torte-2b,2020.1.3,Win32,60,12724,,,,,,,,,,,,,,,,,,,2,,,,,,,0,34,34,34,1,,,,,,,,,,,,,,,,,,,,,,,,,,,,,,,,,,,,
,,,,,,,,,,,,,,,,,,,,,,,20,female,2020-09-28_12h39.45.729,torte-2b,2020.1.3,Win32,60,12724,,,,,,,,,,,,,,,,,,,3,,,,,,,,,,,,0,0,0,0,1,,,,,,,,,,,,,,,,,,,,,,,,,,,,,,,
,,,,,,,,,,,,,,,,,,,,,,,20,female,2020-09-28_12h39.45.729,torte-2b,2020.1.3,Win32,60,12724,,,,,,,,,,,,,,,,,,,7,,,,,,,,,,,,0,1,1,1,1,,,,,,,,,,,,,,,,,,,,,,,,,,,,,,,
,,,,,,,,,,,,,,,,,,,,,,,20,female,2020-09-28_12h39.45.729,torte-2b,2020.1.3,Win32,60,12724,,,,,,,,,,,,,,,,,,,7,,,,,,,,,,,,0,2,2,2,1,,,,,,,,,,,,,,,,,,,,,,,,,,,,,,,
,,,,,,,,,,,,,,,,,,,,,,,20,female,2020-09-28_12h39.45.729,torte-2b,2020.1.3,Win32,60,12724,,,,,,,,,,,,,space,,,,,,4,1.29973,,,,,,,,,,,0,3,3,3,1,,,,,,,,,,,,,,,,,,,,,,,,,,,,,,,
,,,,,,,,,,,,,,,,,,,,,,,20,female,2020-09-28_12h39.45.729,torte-2b,2020.1.3,Win32,60,12724,,,,,,,,,,,,,space,,,,,,5,0.15813,,,,,,,,,,,0,4,4,4,1,,,,,,,,,,,,,,,,,,,,,,,,,,,,,,,
,,,,,,,,,,,,,,,,,,,,,,,20,female,2020-09-28_12h39.45.729,torte-2b,2020.1.3,Win32,60,12724,,,,,,,,,,,,,,,,,,,4,,,,,,,,,,,,0,5,5,5,1,,,,,,,,,,,,,,,,,,,,,,,,,,,,,,,
,,,,,,,,,,,,,,,,,,,,,,,20,female,2020-09-28_12h39.45.729,torte-2b,2020.1.3,Win32,60,12724,,,,,,,,,,,,,,,,,,,2,,,,,,,,,,,,0,6,6,6,1,,,,,,,,,,,,,,,,,,,,,,,,,,,,,,,
,,,,,,,,,,,,,,,,,,,,,,,20,female,2020-09-28_12h39.45.729,torte-2b,2020.1.3,Win32,60,12724,,,,,,,,,,,,,,,,,,,4,,,,,,,,,,,,0,7,7,7,1,,,,,,,,,,,,,,,,,,,,,,,,,,,,,,,
,,,,,,,,,,,,,,,,,,,,,,,20,female,2020-09-28_12h39.45.729,torte-2b,2020.1.3,Win32,60,12724,,,,,,,,,,,,,,,,,,,2,,,,,,,,,,,,0,8,8,8,1,,,,,,,,,,,,,,,,,,,,,,,,,,,,,,,
,,,,,,,,,,,,,,,,,,,,,,,20,female,2020-09-28_12h39.45.729,torte-2b,2020.1.3,Win32,60,12724,,,,,,,,,,,,,,,,,,,2,,,,,,,,,,,,0,9,9,9,1,,,,,,,,,,,,,,,,,,,,,,,,,,,,,,,
,,,,,,,,,,,,,,,,,,,,,,,20,female,2020-09-28_12h39.45.729,torte-2b,2020.1.3,Win32,60,12724,,,,,,,,,,,,,,,,,,,6,,,,,,,,,,,,0,10,10,10,1,,,,,,,,,,,,,,,,,,,,,,,,,,,,,,,
,,,,,,,,,,,,,,,,,,,,,,,20,female,2020-09-28_12h39.45.729,torte-2b,2020.1.3,Win32,60,12724,,,,,,,,,,,,,space,,,,,,2,1.452705,,,,,,,,,,,0,11,11,11,1,,,,,,,,,,,,,,,,,,,,,,,,,,,,,,,
,,,,,,,,,,,,,,,,,,,,,,,20,female,2020-09-28_12h39.45.729,torte-2b,2020.1.3,Win32,60,12724,,,,,,,,,,,,,space,,,,,,2,0.135145,,,,,,,,,,,0,12,12,12,1,,,,,,,,,,,,,,,,,,,,,,,,,,,,,,,
,,,,,,,,,,,,,,,,,,,,,,,20,female,2020-09-28_12h39.45.729,torte-2b,2020.1.3,Win32,60,12724,,,,,,,,,,,,,,,,,,,2,,,,,,,,,,,,0,13,13,13,1,,,,,,,,,,,,,,,,,,,,,,,,,,,,,,,
,,,,,,,,,,,,,,,,,,,,,,,20,female,2020-09-28_12h39.45.729,torte-2b,2020.1.3,Win32,60,12724,,,,,,,,,,,,,,,,,,,2,,,,,,,,,,,,0,14,14,14,1,,,,,,,,,,,,,,,,,,,,,,,,,,,,,,,
,,,,,,,,,,,,,,,,,,,,,,,20,female,2020-09-28_12h39.45.729,torte-2b,2020.1.3,Win32,60,12724,,,,,,,,,,,,,space,,,,,,4,0.20469,,,,,,,,,,,0,15,15,15,1,,,,,,,,,,,,,,,,,,,,,,,,,,,,,,,
,,,,,,,,,,,,,,,,,,,,,,,20,female,2020-09-28_12h39.45.729,torte-2b,2020.1.3,Win32,60,12724,,,,,,,,,,,,,,,,,,,3,,,,,,,,,,,,0,16,16,16,1,,,,,,,,,,,,,,,,,,,,,,,,,,,,,,,
,,,,,,,,,,,,,,,,,,,,,,,20,female,2020-09-28_12h39.45.729,torte-2b,2020.1.3,Win32,60,12724,,,,,,,,,,,,,,,,,,,7,,,,,,,,,,,,0,17,17,17,1,,,,,,,,,,,,,,,,,,,,,,,,,,,,,,,
,,,,,,,,,,,,,,,,,,,,,,,20,female,2020-09-28_12h39.45.729,torte-2b,2020.1.3,Win32,60,12724,,,,,,,,,,,,,space,,,,,,4,0.051315,,,,,,,,,,,0,18,18,18,1,,,,,,,,,,,,,,,,,,,,,,,,,,,,,,,
,,,,,,,,,,,,,,,,,,,,,,,20,female,2020-09-28_12h39.45.729,torte-2b,2020.1.3,Win32,60,12724,,,,,,,,,,,,,space,,,,,,7,0.368485,,,,,,,,,,,0,19,19,19,1,,,,,,,,,,,,,,,,,,,,,,,,,,,,,,,
,,,,,,,,,,,,,,,,,,,,,,,20,female,2020-09-28_12h39.45.729,torte-2b,2020.1.3,Win32,60,12724,,,,,,,,,,,,,,,,,,,7,,,,,,,,,,,,0,20,20,20,1,,,,,,,,,,,,,,,,,,,,,,,,,,,,,,,
,,,,,,,,,,,,,,,,,,,,,,,20,female,2020-09-28_12h39.45.729,torte-2b,2020.1.3,Win32,60,12724,,,,,,,,,,,,,,,,,,,7,,,,,,,,,,,,0,21,21,21,1,,,,,,,,,,,,,,,,,,,,,,,,,,,,,,,
,,,,,,,,,,,,,,,,,,,,,,,20,female,2020-09-28_12h39.45.729,torte-2b,2020.1.3,Win32,60,12724,,,,,,,,,,,,,,,,,,,7,,,,,,,,,,,,0,22,22,22,1,,,,,,,,,,,,,,,,,,,,,,,,,,,,,,,
,,,,,,,,,,,,,,,,,,,,,,,20,female,2020-09-28_12h39.45.729,torte-2b,2020.1.3,Win32,60,12724,,,,,,,,,,,,,,,,,,,1,,,,,,,,,,,,0,23,23,23,1,,,,,,,,,,,,,,,,,,,,,,,,,,,,,,,
,,,,,,,,,,,,,,,,,,,,,,,20,female,2020-09-28_12h39.45.729,torte-2b,2020.1.3,Win32,60,12724,,,,,,,,,,,,,space,,,,,,7,0.19708,,,,,,,,,,,0,24,24,24,1,,,,,,,,,,,,,,,,,,,,,,,,,,,,,,,
,,,,,,,,,,,,,,,,,,,,,,,20,female,2020-09-28_12h39.45.729,torte-2b,2020.1.3,Win32,60,12724,,,,,,,,,,,,,space,,,,,,1,0.929765,,,,,,,,,,,0,25,25,25,1,,,,,,,,,,,,,,,,,,,,,,,,,,,,,,,
,,,,,,,,,,,,,,,,,,,,,,,20,female,2020-09-28_12h39.45.729,torte-2b,2020.1.3,Win32,60,12724,,,,,,,,,,,,,space,,,,,,7,0.7868,,,,,,,,,,,0,26,26,26,1,,,,,,,,,,,,,,,,,,,,,,,,,,,,,,,
,,,,,,,,,,,,,,,,,,,,,,,20,female,2020-09-28_12h39.45.729,torte-2b,2020.1.3,Win32,60,12724,,,,,,,,,,,,,,,,,,,2,,,,,,,,,,,,0,27,27,27,1,,,,,,,,,,,,,,,,,,,,,,,,,,,,,,,
,,,,,,,,,,,,,,,,,,,,,,,20,female,2020-09-28_12h39.45.729,torte-2b,2020.1.3,Win32,60,12724,,,,,,,,,,,,,,,,,,,5,,,,,,,,,,,,0,28,28,28,1,,,,,,,,,,,,,,,,,,,,,,,,,,,,,,,
,,,,,,,,,,,,,,,,,,,,,,,20,female,2020-09-28_12h39.45.729,torte-2b,2020.1.3,Win32,60,12724,,,,,,,,,,,,,,,,,,,5,,,,,,,,,,,,0,29,29,29,1,,,,,,,,,,,,,,,,,,,,,,,,,,,,,,,
,,,,,,,,,,,,,,,,,,,,,,,20,female,2020-09-28_12h39.45.729,torte-2b,2020.1.3,Win32,60,12724,,,,,,,,,,,,,space,,,,,,5,0.538185,,,,,,,,,,,0,30,30,30,1,,,,,,,,,,,,,,,,,,,,,,,,,,,,,,,
,,,,,,,,,,,,,,,,,,,,,,,20,female,2020-09-28_12h39.45.729,torte-2b,2020.1.3,Win32,60,12724,,,,,,,,,,,,,,,,,,,1,,,,,,,,,,,,0,31,31,31,1,,,,,,,,,,,,,,,,,,,,,,,,,,,,,,,
,,,,,,,,,,,,,,,,,,,,,,,20,female,2020-09-28_12h39.45.729,torte-2b,2020.1.3,Win32,60,12724,,,,,,,,,,,,,space,,,,,,5,0.37145,,,,,,,,,,,0,32,32,32,1,,,,,,,,,,,,,,,,,,,,,,,,,,,,,,,
,,,,,,,,,,,,,,,,,,,,,,,20,female,2020-09-28_12h39.45.729,torte-2b,2020.1.3,Win32,60,12724,,,,,,,,,,,,,,,,,,,3,,,,,,,,,,,,0,33,33,33,1,,,,,,,,,,,,,,,,,,,,,,,,,,,,,,,
,,,,,,,,,,,,,,,,,,,,,,,20,female,2020-09-28_12h39.45.729,torte-2b,2020.1.3,Win32,60,12724,,,,,,,,,,,,,space,,,,,,3,0.520355,,,,,,,,,,,0,34,34,34,1,,,,,,,,,,,,,,,,,,,,,,,,,,,,,,,
,,,,,,,,,,,,a,Correct!,,,,,,t5.png,t5.png,0,0.97829,20,female,2020-09-28_12h39.45.729,torte-2b,2020.1.3,Win32,60,12724,0.88134,space,1.233005,,,,,,,,,,,,,,,,,,,,,,,,,,,,,,,,,space,3.93093,0,0,0,25,1,,,,,,,,,,,,,,,,,,,,,,,,
,,,,,,,,,,,,l,Correct!,,,,,,t1.png,t5.png,4,9.55E-11,20,female,2020-09-28_12h39.45.729,torte-2b,2020.1.3,Win32,60,12724,0.38123,,,,,,,,,,,,,,,,,,,,,,,,,,,,,,,,,,,,,0,1,1,85,1,,,,,,,,,,,,,,,,,,,,,,,,
,,,,,,,,,,,,a,Incorrect,,,,,,t4.png,t1.png,3,0.0000131,20,female,2020-09-28_12h39.45.729,torte-2b,2020.1.3,Win32,60,12724,0.330495,,,,,,,,,,,,,,,,,,,,,,,,,,,,,,,,,,,,,0,2,2,48,1,,,,,,,,,,,,,,,,,,,,,,,,
,,,,,,,,,,,,a,Incorrect,,,,,,t3.png,t5.png,2,0.056466,20,female,2020-09-28_12h39.45.729,torte-2b,2020.1.3,Win32,60,12724,0.300955,,,,,,,,,,,,,,,,,,,,,,,,,,,,,,,,,,,,,0,3,3,14,1,,,,,,,,,,,,,,,,,,,,,,,,
,,,,,,,,,,,,l,Correct!,,,,,,t1.png,t4.png,3,0.0000131,20,female,2020-09-28_12h39.45.729,torte-2b,2020.1.3,Win32,60,12724,0.407055,,,,,,,,,,,,,,,,,,,,,,,,,,,,,,,,,,,,,0,4,4,92,1,,,,,,,,,,,,,,,,,,,,,,,,
,,,,,,,,,,,,l,Correct!,,,,,,t5.png,t2.png,3,0.0000131,20,female,2020-09-28_12h39.45.729,torte-2b,2020.1.3,Win32,60,12724,0.280445,,,,,,,,,,,,,,,,,,,,,,,,,,,,,,,,,,,,,0,5,5,116,1,,,,,,,,,,,,,,,,,,,,,,,,
,,,,,,,,,,,,l,Incorrect,,,,,,t4.png,t3.png,1,0.90855,20,female,2020-09-28_12h39.45.729,torte-2b,2020.1.3,Win32,60,12724,1.780435,,,,,,,,,,,,,,,,,,,,,,,,,,,,,,,,,,,,,0,6,6,75,1,,,,,,,,,,,,,,,,,,,,,,,,
,,,,,,,,,,,,a,Correct!,,,,,,t2.png,t3.png,1,0.90855,20,female,2020-09-28_12h39.45.729,torte-2b,2020.1.3,Win32,60,12724,1.113095,,,,,,,,,,,,,,,,,,,,,,,,,,,,,,,,,,,,,0,7,7,68,1,,,,,,,,,,,,,,,,,,,,,,,,
,,,,,,,,,,,,a,Correct!,,,,,,t2.png,t2.png,0,0.98115,20,female,2020-09-28_12h39.45.729,torte-2b,2020.1.3,Win32,60,12724,0.931045,,,,,,,,,,,,,,,,,,,,,,,,,,,,,,,,,,,,,0,8,8,2,1,,,,,,,,,,,,,,,,,,,,,,,,
,,,,,,,,,,,,l,Incorrect,,,,,,t4.png,t4.png,0,0.98115,20,female,2020-09-28_12h39.45.729,torte-2b,2020.1.3,Win32,60,12724,0.730255,,,,,,,,,,,,,,,,,,,,,,,,,,,,,,,,,,,,,0,9,9,21,1,,,,,,,,,,,,,,,,,,,,,,,,
,,,,,,,,,,,,a,Incorrect,,,,,,t2.png,t5.png,3,0.0000131,20,female,2020-09-28_12h39.45.729,torte-2b,2020.1.3,Win32,60,12724,1.42339,,,,,,,,,,,,,,,,,,,,,,,,,,,,,,,,,,,,,0,10,10,95,1,,,,,,,,,,,,,,,,,,,,,,,,
,,,,,,,,,,,,,Too slow :(,,,,,,t4.png,t5.png,1,0.90025,20,female,2020-09-28_12h39.45.729,torte-2b,2020.1.3,Win32,60,12724,,,,,,,,,,,,,,,,,,,,,,,,,,,,,,,,,,,,,,0,11,11,58,1,,,,,,,,,,,,,,,,,,,,,,,,
,,,,,,,,,,,,a,Correct!,,,,,,t3.png,t2.png,1,0.90855,20,female,2020-09-28_12h39.45.729,torte-2b,2020.1.3,Win32,60,12724,1.998385,,,,,,,,,,,,,,,,,,,,,,,,,,,,,,,,,,,,,0,12,12,18,1,,,,,,,,,,,,,,,,,,,,,,,,
,,,,,,,,,,,,a,Incorrect,,,,,,t1.png,t4.png,3,0.0000131,20,female,2020-09-28_12h39.45.729,torte-2b,2020.1.3,Win32,60,12724,1.818565,,,,,,,,,,,,,,,,,,,,,,,,,,,,,,,,,,,,,0,13,13,81,1,,,,,,,,,,,,,,,,,,,,,,,,
,,,,,,,,,,,,l,Incorrect,,,,,,t3.png,t4.png,1,0.90855,20,female,2020-09-28_12h39.45.729,torte-2b,2020.1.3,Win32,60,12724,0.80113,,,,,,,,,,,,,,,,,,,,,,,,,,,,,,,,,,,,,0,14,14,96,1,,,,,,,,,,,,,,,,,,,,,,,,
,,,,,,,,,,,,l,Incorrect,,,,,,t1.png,t2.png,1,0.90025,20,female,2020-09-28_12h39.45.729,torte-2b,2020.1.3,Win32,60,12724,0.5122,,,,,,,,,,,,,,,,,,,,,,,,,,,,,,,,,,,,,0,15,15,112,1,,,,,,,,,,,,,,,,,,,,,,,,
,,,,,,,,,,,,l,Correct!,,,,,,t1.png,t3.png,2,0.056466,20,female,2020-09-28_12h39.45.729,torte-2b,2020.1.3,Win32,60,12724,0.46475,,,,,,,,,,,,,,,,,,,,,,,,,,,,,,,,,,,,,0,16,16,63,1,,,,,,,,,,,,,,,,,,,,,,,,
,,,,,,,,,,,,l,Incorrect,,,,,,t4.png,t5.png,1,0.90025,20,female,2020-09-28_12h39.45.729,torte-2b,2020.1.3,Win32,60,12724,0.332985,,,,,,,,,,,,,,,,,,,,,,,,,,,,,,,,,,,,,0,17,17,47,1,,,,,,,,,,,,,,,,,,,,,,,,
,,,,,,,,,,,,a,Correct!,,,,,,t5.png,t5.png,0,0.97829,20,female,2020-09-28_12h39.45.729,torte-2b,2020.1.3,Win32,60,12724,0.38709,,,,,,,,,,,,,,,,,,,,,,,,,,,,,,,,,,,,,0,18,18,94,1,,,,,,,,,,,,,,,,,,,,,,,,
,,,,,,,,,,,,a,Correct!,,,,,,t5.png,t5.png,0,0.97829,20,female,2020-09-28_12h39.45.729,torte-2b,2020.1.3,Win32,60,12724,0.40726,,,,,,,,,,,,,,,,,,,,,,,,,,,,,,,,,,,,,0,19,19,70,1,,,,,,,,,,,,,,,,,,,,,,,,
,,,,,,,,,,,,a,Incorrect,,,,,,t5.png,t3.png,2,0.056466,20,female,2020-09-28_12h39.45.729,torte-2b,2020.1.3,Win32,60,12724,0.575815,,,,,,,,,,,,,,,,,,,,,,,,,,,,,,,,,,,,,0,20,20,114,1,,,,,,,,,,,,,,,,,,,,,,,,
,,,,,,,,,,,,a,Incorrect,,,,,,t2.png,t5.png,3,0.0000131,20,female,2020-09-28_12h39.45.729,torte-2b,2020.1.3,Win32,60,12724,0.58327,,,,,,,,,,,,,,,,,,,,,,,,,,,,,,,,,,,,,0,21,21,104,1,,,,,,,,,,,,,,,,,,,,,,,,
,,,,,,,,,,,,,Too slow :(,,,,,,t1.png,t4.png,3,0.0000131,20,female,2020-09-28_12h39.45.729,torte-2b,2020.1.3,Win32,60,12724,,,,,,,,,,,,,,,,,,,,,,,,,,,,,,,,,,,,,,0,22,22,107,1,,,,,,,,,,,,,,,,,,,,,,,,
,,,,,,,,,,,,,Too slow :(,,,,,,t1.png,t2.png,1,0.90025,20,female,2020-09-28_12h39.45.729,torte-2b,2020.1.3,Win32,60,12724,,,,,,,,,,,,,,,,,,,,,,,,,,,,,,,,,,,,,,0,23,23,72,1,,,,,,,,,,,,,,,,,,,,,,,,
,,,,,,,,,,,,l,Incorrect,,,,,,t3.png,t4.png,1,0.909,20,female,2020-09-28_12h39.45.729,torte-2b,2020.1.3,Win32,60,12724,0.33428,,,,,,,,,,,,,,,,,,,,,,,,,,,,,,,,,,,,,0,24,24,82,1,,,,,,,,,,,,,,,,,,,,,,,,
,,,,,,,,,,,,l,Correct!,,,,,,t3.png,t1.png,2,0.056466,20,female,2020-09-28_12h39.45.729,torte-2b,2020.1.3,Win32,60,12724,0.50146,,,,,,,,,,,,,,,,,,,,,,,,,,,,,,,,,,,,,0,25,25,29,1,,,,,,,,,,,,,,,,,,,,,,,,
,,,,,,,,,,,,l,Correct!,,,,,,t2.png,t4.png,2,0.059078,20,female,2020-09-28_12h39.45.729,torte-2b,2020.1.3,Win32,60,12724,0.384185,,,,,,,,,,,,,,,,,,,,,,,,,,,,,,,,,,,,,0,26,26,11,1,,,,,,,,,,,,,,,,,,,,,,,,
,,,,,,,,,,,,l,Correct!,,,,,,t3.png,t2.png,1,0.90855,20,female,2020-09-28_12h39.45.729,torte-2b,2020.1.3,Win32,60,12724,0.294515,,,,,,,,,,,,,,,,,,,,,,,,,,,,,,,,,,,,,0,27,27,53,1,,,,,,,,,,,,,,,,,,,,,,,,
,,,,,,,,,,,,,Too slow :(,,,,,,t5.png,t1.png,4,9.55E-11,20,female,2020-09-28_12h39.45.729,torte-2b,2020.1.3,Win32,60,12724,,,,,,,,,,,,,,,,,,,,,,,,,,,,,,,,,,,,,,0,28,28,100,1,,,,,,,,,,,,,,,,,,,,,,,,
,,,,,,,,,,,,,Too slow :(,,,,,,t3.png,t2.png,1,0.909,20,female,2020-09-28_12h39.45.729,torte-2b,2020.1.3,Win32,60,12724,,,,,,,,,,,,,,,,,,,,,,,,,,,,,,,,,,,,,,0,29,29,3,1,,,,,,,,,,,,,,,,,,,,,,,,
,,,,,,,,,,,,l,Correct!,,,,,,t2.png,t1.png,1,0.9,20,female,2020-09-28_12h39.45.729,torte-2b,2020.1.3,Win32,60,12724,0.264825,,,,,,,,,,,,,,,,,,,,,,,,,,,,,,,,,,,,,0,30,30,118,1,,,,,,,,,,,,,,,,,,,,,,,,
,,,,,,,,,,,,a,Correct!,,,,,,t1.png,t3.png,2,0.056466,20,female,2020-09-28_12h39.45.729,torte-2b,2020.1.3,Win32,60,12724,0.288435,,,,,,,,,,,,,,,,,,,,,,,,,,,,,,,,,,,,,0,31,31,87,1,,,,,,,,,,,,,,,,,,,,,,,,
,,,,,,,,,,,,a,Correct!,,,,,,t2.png,t1.png,1,0.90025,20,female,2020-09-28_12h39.45.729,torte-2b,2020.1.3,Win32,60,12724,0.28718,,,,,,,,,,,,,,,,,,,,,,,,,,,,,,,,,,,,,0,32,32,5,1,,,,,,,,,,,,,,,,,,,,,,,,
,,,,,,,,,,,,a,Incorrect,,,,,,t2.png,t4.png,2,0.059078,20,female,2020-09-28_12h39.45.729,torte-2b,2020.1.3,Win32,60,12724,0.33354,,,,,,,,,,,,,,,,,,,,,,,,,,,,,,,,,,,,,0,33,33,37,1,,,,,,,,,,,,,,,,,,,,,,,,
,,,,,,,,,,,,a,Incorrect,,,,,,t5.png,t2.png,3,0.0000131,20,female,2020-09-28_12h39.45.729,torte-2b,2020.1.3,Win32,60,12724,0.583575,,,,,,,,,,,,,,,,,,,,,,,,,,,,,,,,,,,,,0,34,34,119,1,,,,,,,,,,,,,,,,,,,,,,,,
,,,,,,,,,,,,a,Incorrect,,,,,,t5.png,t3.png,2,0.056466,20,female,2020-09-28_12h39.45.729,torte-2b,2020.1.3,Win32,60,12724,0.32869,,,,,,,,,,,,,,,,,,,,,,,,,,,,,,,,,,,,,0,35,35,108,1,,,,,,,,,,,,,,,,,,,,,,,,
,,,,,,,,,,,,a,Incorrect,,,,,,t5.png,t4.png,1,0.90025,20,female,2020-09-28_12h39.45.729,torte-2b,2020.1.3,Win32,60,12724,0.29214,,,,,,,,,,,,,,,,,,,,,,,,,,,,,,,,,,,,,0,36,36,34,1,,,,,,,,,,,,,,,,,,,,,,,,
,,,,,,,,,,,,l,Correct!,,,,,,t4.png,t2.png,2,0.059078,20,female,2020-09-28_12h39.45.729,torte-2b,2020.1.3,Win32,60,12724,0.39632,,,,,,,,,,,,,,,,,,,,,,,,,,,,,,,,,,,,,0,37,37,86,1,,,,,,,,,,,,,,,,,,,,,,,,
,,,,,,,,,,,,l,Correct!,,,,,,t2.png,t3.png,1,0.90855,20,female,2020-09-28_12h39.45.729,torte-2b,2020.1.3,Win32,60,12724,0.471345,,,,,,,,,,,,,,,,,,,,,,,,,,,,,,,,,,,,,0,38,38,111,1,,,,,,,,,,,,,,,,,,,,,,,,
,,,,,,,,,,,,l,Correct!,,,,,,t5.png,t1.png,4,9.55E-11,20,female,2020-09-28_12h39.45.729,torte-2b,2020.1.3,Win32,60,12724,0.33865,,,,,,,,,,,,,,,,,,,,,,,,,,,,,,,,,,,,,0,39,39,71,1,,,,,,,,,,,,,,,,,,,,,,,,
,,,,,,,,,,,,l,Incorrect,,,,,,t2.png,t1.png,1,0.90025,20,female,2020-09-28_12h39.45.729,torte-2b,2020.1.3,Win32,60,12724,0.437795,,,,,,,,,,,,,,,,,,,,,,,,,,,,,,,,,,,,,0,40,40,19,1,,,,,,,,,,,,,,,,,,,,,,,,
,,,,,,,,,,,,a,Correct!,,,,,,t3.png,t2.png,1,0.909,20,female,2020-09-28_12h39.45.729,torte-2b,2020.1.3,Win32,60,12724,0.851705,,,,,,,,,,,,,,,,,,,,,,,,,,,,,,,,,,,,,0,41,41,23,1,,,,,,,,,,,,,,,,,,,,,,,,
,,,,,,,,,,,,a,Correct!,,,,,,t1.png,t1.png,0,0.978,20,female,2020-09-28_12h39.45.729,torte-2b,2020.1.3,Win32,60,12724,0.530715,,,,,,,,,,,,,,,,,,,,,,,,,,,,,,,,,,,,,0,42,42,54,1,,,,,,,,,,,,,,,,,,,,,,,,
,,,,,,,,,,,,l,Incorrect,,,,,,t5.png,t4.png,1,0.90025,20,female,2020-09-28_12h39.45.729,torte-2b,2020.1.3,Win32,60,12724,0.6732,,,,,,,,,,,,,,,,,,,,,,,,,,,,,,,,,,,,,0,43,43,27,1,,,,,,,,,,,,,,,,,,,,,,,,
,,,,,,,,,,,,a,Correct!,,,,,,t3.png,t5.png,2,0.0565,20,female,2020-09-28_12h39.45.729,torte-2b,2020.1.3,Win32,60,12724,0.364815,,,,,,,,,,,,,,,,,,,,,,,,,,,,,,,,,,,,,0,44,44,83,1,,,,,,,,,,,,,,,,,,,,,,,,
,,,,,,,,,,,,a,Incorrect,,,,,,t5.png,t3.png,2,0.0565,20,female,2020-09-28_12h39.45.729,torte-2b,2020.1.3,Win32,60,12724,0.326735,,,,,,,,,,,,,,,,,,,,,,,,,,,,,,,,,,,,,0,45,45,39,1,,,,,,,,,,,,,,,,,,,,,,,,
,,,,,,,,,,,,l,Correct!,,,,,,t5.png,t2.png,3,0.0000131,20,female,2020-09-28_12h39.45.729,torte-2b,2020.1.3,Win32,60,12724,0.6002,,,,,,,,,,,,,,,,,,,,,,,,,,,,,,,,,,,,,0,46,46,91,1,,,,,,,,,,,,,,,,,,,,,,,,
,,,,,,,,,,,,l,Correct!,,,,,,t4.png,t2.png,2,0.059078,20,female,2020-09-28_12h39.45.729,torte-2b,2020.1.3,Win32,60,12724,0.658705,,,,,,,,,,,,,,,,,,,,,,,,,,,,,,,,,,,,,0,47,47,88,1,,,,,,,,,,,,,,,,,,,,,,,,
,,,,,,,,,,,,l,Correct!,,,,,,t2.png,t5.png,3,0.0000131,20,female,2020-09-28_12h39.45.729,torte-2b,2020.1.3,Win32,60,12724,0.309605,,,,,,,,,,,,,,,,,,,,,,,,,,,,,,,,,,,,,0,48,48,40,1,,,,,,,,,,,,,,,,,,,,,,,,
,,,,,,,,,,,,a,Correct!,,,,,,t4.png,t3.png,1,0.90855,20,female,2020-09-28_12h39.45.729,torte-2b,2020.1.3,Win32,60,12724,0.32212,,,,,,,,,,,,,,,,,,,,,,,,,,,,,,,,,,,,,0,49,49,45,1,,,,,,,,,,,,,,,,,,,,,,,,
,,,,,,,,,,,,a,Correct!,,,,,,t4.png,t3.png,1,0.90855,20,female,2020-09-28_12h39.45.729,torte-2b,2020.1.3,Win32,60,12724,0.57398,,,,,,,,,,,,,,,,,,,,,,,,,,,,,,,,,,,,,0,50,50,35,1,,,,,,,,,,,,,,,,,,,,,,,,
,,,,,,,,,,,,a,Incorrect,,,,,,t4.png,t2.png,2,0.059078,20,female,2020-09-28_12h39.45.729,torte-2b,2020.1.3,Win32,60,12724,0.68961,,,,,,,,,,,,,,,,,,,,,,,,,,,,,,,,,,,,,0,51,51,110,1,,,,,,,,,,,,,,,,,,,,,,,,
,,,,,,,,,,,,l,Correct!,,,,,,t5.png,t3.png,2,0.056466,20,female,2020-09-28_12h39.45.729,torte-2b,2020.1.3,Win32,60,12724,0.37326,,,,,,,,,,,,,,,,,,,,,,,,,,,,,,,,,,,,,0,52,52,56,1,,,,,,,,,,,,,,,,,,,,,,,,
,,,,,,,,,,,,l,Correct!,,,,,,t4.png,t2.png,2,0.0591,20,female,2020-09-28_12h39.45.729,torte-2b,2020.1.3,Win32,60,12724,0.559065,,,,,,,,,,,,,,,,,,,,,,,,,,,,,,,,,,,,,0,53,53,36,1,,,,,,,,,,,,,,,,,,,,,,,,
,,,,,,,,,,,,,Too slow :(,,,,,,t2.png,t5.png,3,0.0000131,20,female,2020-09-28_12h39.45.729,torte-2b,2020.1.3,Win32,60,12724,,,,,,,,,,,,,,,,,,,,,,,,,,,,,,,,,,,,,,0,54,54,66,1,,,,,,,,,,,,,,,,,,,,,,,,
,,,,,,,,,,,,a,Correct!,,,,,,t2.png,t1.png,1,0.90025,20,female,2020-09-28_12h39.45.729,torte-2b,2020.1.3,Win32,60,12724,0.97426,,,,,,,,,,,,,,,,,,,,,,,,,,,,,,,,,,,,,0,55,55,4,1,,,,,,,,,,,,,,,,,,,,,,,,
,,,,,,,,,,,,l,Correct!,,,,,,t4.png,t1.png,3,0.0000131,20,female,2020-09-28_12h39.45.729,torte-2b,2020.1.3,Win32,60,12724,0.16488,,,,,,,,,,,,,,,,,,,,,,,,,,,,,,,,,,,,,0,56,56,42,1,,,,,,,,,,,,,,,,,,,,,,,,
,,,,,,,,,,,,a,Correct!,,,,,,t3.png,t4.png,1,0.909,20,female,2020-09-28_12h39.45.729,torte-2b,2020.1.3,Win32,60,12724,1.36728,,,,,,,,,,,,,,,,,,,,,,,,,,,,,,,,,,,,,0,57,57,106,1,,,,,,,,,,,,,,,,,,,,,,,,
,,,,,,,,,,,,a,Incorrect,,,,,,t3.png,t5.png,2,0.056466,20,female,2020-09-28_12h39.45.729,torte-2b,2020.1.3,Win32,60,12724,0.33132,,,,,,,,,,,,,,,,,,,,,,,,,,,,,,,,,,,,,0,58,58,6,1,,,,,,,,,,,,,,,,,,,,,,,,
,,,,,,,,,,,,a,Incorrect,,,,,,t3.png,t4.png,1,0.909,20,female,2020-09-28_12h39.45.729,torte-2b,2020.1.3,Win32,60,12724,0.14712,,,,,,,,,,,,,,,,,,,,,,,,,,,,,,,,,,,,,0,59,59,89,1,,,,,,,,,,,,,,,,,,,,,,,,
,,,,,,,,,,,,a,Correct!,,,,,,t1.png,t2.png,1,0.90025,20,female,2020-09-28_12h39.45.729,torte-2b,2020.1.3,Win32,60,12724,0.700985,,,,,,,,,,,,,,,,,,,,,,,,,,,,,,,,,,,,,0,60,60,105,1,,,,,,,,,,,,,,,,,,,,,,,,
,,,,,,,,,,,,a,Correct!,,,,,,t2.png,t1.png,1,0.90025,20,female,2020-09-28_12h39.45.729,torte-2b,2020.1.3,Win32,60,12724,0.53174,,,,,,,,,,,,,,,,,,,,,,,,,,,,,,,,,,,,,0,61,61,62,1,,,,,,,,,,,,,,,,,,,,,,,,
,,,,,,,,,,,,l,Incorrect,,,,,,t4.png,t4.png,0,0.98115,20,female,2020-09-28_12h39.45.729,torte-2b,2020.1.3,Win32,60,12724,0.3742,,,,,,,,,,,,,,,,,,,,,,,,,,,,,,,,,,,,,0,62,62,90,1,,,,,,,,,,,,,,,,,,,,,,,,
,,,,,,,,,,,,l,Correct!,,,,,,t1.png,t4.png,3,0.0000131,20,female,2020-09-28_12h39.45.729,torte-2b,2020.1.3,Win32,60,12724,0.52414,,,,,,,,,,,,,,,,,,,,,,,,,,,,,,,,,,,,,0,63,63,17,1,,,,,,,,,,,,,,,,,,,,,,,,
,,,,,,,,,,,,l,Correct!,,,,,,t5.png,t4.png,1,0.9,20,female,2020-09-28_12h39.45.729,torte-2b,2020.1.3,Win32,60,12724,0.52288,,,,,,,,,,,,,,,,,,,,,,,,,,,,,,,,,,,,,0,64,64,76,1,,,,,,,,,,,,,,,,,,,,,,,,
,,,,,,,,,,,,l,Correct!,,,,,,t2.png,t5.png,3,0.0000131,20,female,2020-09-28_12h39.45.729,torte-2b,2020.1.3,Win32,60,12724,0.40278,,,,,,,,,,,,,,,,,,,,,,,,,,,,,,,,,,,,,0,65,65,8,1,,,,,,,,,,,,,,,,,,,,,,,,
,,,,,,,,,,,,l,Correct!,,,,,,t3.png,t5.png,2,0.056466,20,female,2020-09-28_12h39.45.729,torte-2b,2020.1.3,Win32,60,12724,0.36504,,,,,,,,,,,,,,,,,,,,,,,,,,,,,,,,,,,,,0,66,66,44,1,,,,,,,,,,,,,,,,,,,,,,,,
,,,,,,,,,,,,l,Correct!,,,,,,t5.png,t2.png,3,0.0000131,20,female,2020-09-28_12h39.45.729,torte-2b,2020.1.3,Win32,60,12724,0.400395,,,,,,,,,,,,,,,,,,,,,,,,,,,,,,,,,,,,,0,67,67,51,1,,,,,,,,,,,,,,,,,,,,,,,,
,,,,,,,,,,,,a,Correct!,,,,,,t1.png,t1.png,0,0.978,20,female,2020-09-28_12h39.45.729,torte-2b,2020.1.3,Win32,60,12724,0.174485,,,,,,,,,,,,,,,,,,,,,,,,,,,,,,,,,,,,,0,68,68,28,1,,,,,,,,,,,,,,,,,,,,,,,,
,,,,,,,,,,,,a,Correct!,,,,,,t1.png,t1.png,0,0.97829,20,female,2020-09-28_12h39.45.729,torte-2b,2020.1.3,Win32,60,12724,0.37246,,,,,,,,,,,,,,,,,,,,,,,,,,,,,,,,,,,,,0,69,69,78,1,,,,,,,,,,,,,,,,,,,,,,,,
,,,,,,,,,,,,l,Incorrect,,,,,,t2.png,t2.png,0,0.98115,20,female,2020-09-28_12h39.45.729,torte-2b,2020.1.3,Win32,60,12724,0.355215,,,,,,,,,,,,,,,,,,,,,,,,,,,,,,,,,,,,,0,70,70,7,1,,,,,,,,,,,,,,,,,,,,,,,,
,,,,,,,,,,,,l,Correct!,,,,,,t3.png,t1.png,2,0.0565,20,female,2020-09-28_12h39.45.729,torte-2b,2020.1.3,Win32,60,12724,0.759575,,,,,,,,,,,,,,,,,,,,,,,,,,,,,,,,,,,,,0,71,71,31,1,,,,,,,,,,,,,,,,,,,,,,,,
,,,,,,,,,,,,a,Correct!,,,,,,t5.png,t4.png,1,0.9,20,female,2020-09-28_12h39.45.729,torte-2b,2020.1.3,Win32,60,12724,0.422585,,,,,,,,,,,,,,,,,,,,,,,,,,,,,,,,,,,,,0,72,72,49,1,,,,,,,,,,,,,,,,,,,,,,,,
,,,,,,,,,,,,a,Incorrect,,,,,,t4.png,t2.png,2,0.059078,20,female,2020-09-28_12h39.45.729,torte-2b,2020.1.3,Win32,60,12724,0.5811,,,,,,,,,,,,,,,,,,,,,,,,,,,,,,,,,,,,,0,73,73,109,1,,,,,,,,,,,,,,,,,,,,,,,,
,,,,,,,,,,,,,Too slow :(,,,,,,t2.png,t3.png,1,0.90855,20,female,2020-09-28_12h39.45.729,torte-2b,2020.1.3,Win32,60,12724,,,,,,,,,,,,,,,,,,,,,,,,,,,,,,,,,,,,,,0,74,74,65,1,,,,,,,,,,,,,,,,,,,,,,,,
,,,,,,,,,,,,a,Correct!,,,,,,t2.png,t2.png,0,0.98115,20,female,2020-09-28_12h39.45.729,torte-2b,2020.1.3,Win32,60,12724,0.83099,,,,,,,,,,,,,,,,,,,,,,,,,,,,,,,,,,,,,0,75,75,57,1,,,,,,,,,,,,,,,,,,,,,,,,
,,,,,,,,,,,,l,Correct!,,,,,,t1.png,t5.png,4,9.55E-11,20,female,2020-09-28_12h39.45.729,torte-2b,2020.1.3,Win32,60,12724,1.319335,,,,,,,,,,,,,,,,,,,,,,,,,,,,,,,,,,,,,0,76,76,16,1,,,,,,,,,,,,,,,,,,,,,,,,
,,,,,,,,,,,,l,Correct!,,,,,,t4.png,t1.png,3,0.0000131,20,female,2020-09-28_12h39.45.729,torte-2b,2020.1.3,Win32,60,12724,0.30189,,,,,,,,,,,,,,,,,,,,,,,,,,,,,,,,,,,,,0,77,77,93,1,,,,,,,,,,,,,,,,,,,,,,,,
,,,,,,,,,,,,a,Incorrect,,,,,,t1.png,t5.png,4,9.55E-11,20,female,2020-09-28_12h39.45.729,torte-2b,2020.1.3,Win32,60,12724,0.370885,,,,,,,,,,,,,,,,,,,,,,,,,,,,,,,,,,,,,0,78,78,55,1,,,,,,,,,,,,,,,,,,,,,,,,
,,,,,,,,,,,,l,Incorrect,,,,,,t4.png,t3.png,1,0.909,20,female,2020-09-28_12h39.45.729,torte-2b,2020.1.3,Win32,60,12724,0.99008,,,,,,,,,,,,,,,,,,,,,,,,,,,,,,,,,,,,,0,79,79,46,1,,,,,,,,,,,,,,,,,,,,,,,,
,,,,,,,,,,,,l,Correct!,,,,,,t1.png,t3.png,2,0.056466,20,female,2020-09-28_12h39.45.729,torte-2b,2020.1.3,Win32,60,12724,0.40815,,,,,,,,,,,,,,,,,,,,,,,,,,,,,,,,,,,,,0,80,80,69,1,,,,,,,,,,,,,,,,,,,,,,,,
,,,,,,,,,,,,l,Correct!,,,,,,t1.png,t5.png,4,9.55E-11,20,female,2020-09-28_12h39.45.729,torte-2b,2020.1.3,Win32,60,12724,0.38454,,,,,,,,,,,,,,,,,,,,,,,,,,,,,,,,,,,,,0,81,81,41,1,,,,,,,,,,,,,,,,,,,,,,,,
,,,,,,,,,,,,a,Incorrect,,,,,,t2.png,t4.png,2,0.0591,20,female,2020-09-28_12h39.45.729,torte-2b,2020.1.3,Win32,60,12724,0.327255,,,,,,,,,,,,,,,,,,,,,,,,,,,,,,,,,,,,,0,82,82,15,1,,,,,,,,,,,,,,,,,,,,,,,,
,,,,,,,,,,,,a,Incorrect,,,,,,t4.png,t1.png,3,0.0000131,20,female,2020-09-28_12h39.45.729,torte-2b,2020.1.3,Win32,60,12724,0.2735,,,,,,,,,,,,,,,,,,,,,,,,,,,,,,,,,,,,,0,83,83,13,1,,,,,,,,,,,,,,,,,,,,,,,,
,,,,,,,,,,,,a,Incorrect,,,,,,t4.png,t1.png,3,0.0000131,20,female,2020-09-28_12h39.45.729,torte-2b,2020.1.3,Win32,60,12724,0.329665,,,,,,,,,,,,,,,,,,,,,,,,,,,,,,,,,,,,,0,84,84,61,1,,,,,,,,,,,,,,,,,,,,,,,,
,,,,,,,,,,,,l,Incorrect,,,,,,t4.png,t3.png,1,0.909,20,female,2020-09-28_12h39.45.729,torte-2b,2020.1.3,Win32,60,12724,0.35095,,,,,,,,,,,,,,,,,,,,,,,,,,,,,,,,,,,,,0,85,85,20,1,,,,,,,,,,,,,,,,,,,,,,,,
,,,,,,,,,,,,l,Incorrect,,,,,,t3.png,t2.png,1,0.90855,20,female,2020-09-28_12h39.45.729,torte-2b,2020.1.3,Win32,60,12724,0.566965,,,,,,,,,,,,,,,,,,,,,,,,,,,,,,,,,,,,,0,86,86,97,1,,,,,,,,,,,,,,,,,,,,,,,,
,,,,,,,,,,,,a,Correct!,,,,,,t4.png,t5.png,1,0.9,20,female,2020-09-28_12h39.45.729,torte-2b,2020.1.3,Win32,60,12724,0.515025,,,,,,,,,,,,,,,,,,,,,,,,,,,,,,,,,,,,,0,87,87,115,1,,,,,,,,,,,,,,,,,,,,,,,,
,,,,,,,,,,,,l,Correct!,,,,,,t1.png,t3.png,2,0.056466,20,female,2020-09-28_12h39.45.729,torte-2b,2020.1.3,Win32,60,12724,0.341855,,,,,,,,,,,,,,,,,,,,,,,,,,,,,,,,,,,,,0,88,88,99,1,,,,,,,,,,,,,,,,,,,,,,,,
,,,,,,,,,,,,l,Correct!,,,,,,t5.png,t1.png,4,9.55E-11,20,female,2020-09-28_12h39.45.729,torte-2b,2020.1.3,Win32,60,12724,0.334815,,,,,,,,,,,,,,,,,,,,,,,,,,,,,,,,,,,,,0,89,89,102,1,,,,,,,,,,,,,,,,,,,,,,,,
,,,,,,,,,,,,l,Incorrect,,,,,,t1.png,t1.png,0,0.97829,20,female,2020-09-28_12h39.45.729,torte-2b,2020.1.3,Win32,60,12724,0.902055,,,,,,,,,,,,,,,,,,,,,,,,,,,,,,,,,,,,,0,90,90,67,1,,,,,,,,,,,,,,,,,,,,,,,,
,,,,,,,,,,,,a,Correct!,,,,,,t4.png,t5.png,1,0.90025,20,female,2020-09-28_12h39.45.729,torte-2b,2020.1.3,Win32,60,12724,0.600375,,,,,,,,,,,,,,,,,,,,,,,,,,,,,,,,,,,,,0,91,91,103,1,,,,,,,,,,,,,,,,,,,,,,,,
,,,,,,,,,,,,a,Correct!,,,,,,t5.png,t4.png,1,0.90025,20,female,2020-09-28_12h39.45.729,torte-2b,2020.1.3,Win32,60,12724,0.03487,,,,,,,,,,,,,,,,,,,,,,,,,,,,,,,,,,,,,0,92,92,26,1,,,,,,,,,,,,,,,,,,,,,,,,
,,,,,,,,,,,,l,Correct!,,,,,,t1.png,t4.png,3,0.0000131,20,female,2020-09-28_12h39.45.729,torte-2b,2020.1.3,Win32,60,12724,0.80053,,,,,,,,,,,,,,,,,,,,,,,,,,,,,,,,,,,,,0,93,93,50,1,,,,,,,,,,,,,,,,,,,,,,,,
,,,,,,,,,,,,a,Correct!,,,,,,t5.png,t5.png,0,0.978,20,female,2020-09-28_12h39.45.729,torte-2b,2020.1.3,Win32,60,12724,0.294025,,,,,,,,,,,,,,,,,,,,,,,,,,,,,,,,,,,,,0,94,94,117,1,,,,,,,,,,,,,,,,,,,,,,,,
,,,,,,,,,,,,a,Correct!,,,,,,t4.png,t4.png,0,0.98115,20,female,2020-09-28_12h39.45.729,torte-2b,2020.1.3,Win32,60,12724,0.13446,,,,,,,,,,,,,,,,,,,,,,,,,,,,,,,,,,,,,0,95,95,79,1,,,,,,,,,,,,,,,,,,,,,,,,
,,,,,,,,,,,,,Too slow :(,,,,,,t1.png,t2.png,1,0.9,20,female,2020-09-28_12h39.45.729,torte-2b,2020.1.3,Win32,60,12724,,,,,,,,,,,,,,,,,,,,,,,,,,,,,,,,,,,,,,0,96,96,1,1,,,,,,,,,,,,,,,,,,,,,,,,
,,,,,,,,,,,,,Too slow :(,,,,,,t2.png,t3.png,1,0.90855,20,female,2020-09-28_12h39.45.729,torte-2b,2020.1.3,Win32,60,12724,,,,,,,,,,,,,,,,,,,,,,,,,,,,,,,,,,,,,,0,97,97,10,1,,,,,,,,,,,,,,,,,,,,,,,,
,,,,,,,,,,,,l,Correct!,,,,,,t3.png,t1.png,2,0.056466,20,female,2020-09-28_12h39.45.729,torte-2b,2020.1.3,Win32,60,12724,1.75,,,,,,,,,,,,,,,,,,,,,,,,,,,,,,,,,,,,,0,98,98,0,1,,,,,,,,,,,,,,,,,,,,,,,,
,,,,,,,,,,,,a,Correct!,,,,,,t3.png,t4.png,1,0.90855,20,female,2020-09-28_12h39.45.729,torte-2b,2020.1.3,Win32,60,12724,0.740565,,,,,,,,,,,,,,,,,,,,,,,,,,,,,,,,,,,,,0,99,99,84,1,,,,,,,,,,,,,,,,,,,,,,,,
,,,,,,,,,,,,a,Correct!,,,,,,t5.png,t5.png,0,0.97829,20,female,2020-09-28_12h39.45.729,torte-2b,2020.1.3,Win32,60,12724,2.199285,,,,,,,,,,,,,,,,,,,,,,,,,,,,,,,,,,,,,0,100,100,73,1,,,,,,,,,,,,,,,,,,,,,,,,
,,,,,,,,,,,,a,Incorrect,,,,,,t3.png,t5.png,2,0.0565,20,female,2020-09-28_12h39.45.729,torte-2b,2020.1.3,Win32,60,12724,1.31755,,,,,,,,,,,,,,,,,,,,,,,,,,,,,,,,,,,,,0,101,101,30,1,,,,,,,,,,,,,,,,,,,,,,,,
,,,,,,,,,,,,a,Correct!,,,,,,t2.png,t2.png,0,0.981,20,female,2020-09-28_12h39.45.729,torte-2b,2020.1.3,Win32,60,12724,0.717305,,,,,,,,,,,,,,,,,,,,,,,,,,,,,,,,,,,,,0,102,102,101,1,,,,,,,,,,,,,,,,,,,,,,,,
,,,,,,,,,,,,l,Correct!,,,,,,t5.png,t1.png,4,9.55E-11,20,female,2020-09-28_12h39.45.729,torte-2b,2020.1.3,Win32,60,12724,0.60086,,,,,,,,,,,,,,,,,,,,,,,,,,,,,,,,,,,,,0,103,103,22,1,,,,,,,,,,,,,,,,,,,,,,,,
,,,,,,,,,,,,l,Correct!,,,,,,t1.png,t3.png,2,0.056466,20,female,2020-09-28_12h39.45.729,torte-2b,2020.1.3,Win32,60,12724,0.954445,,,,,,,,,,,,,,,,,,,,,,,,,,,,,,,,,,,,,0,104,104,60,1,,,,,,,,,,,,,,,,,,,,,,,,
,,,,,,,,,,,,a,Incorrect,,,,,,t2.png,t4.png,2,0.059078,20,female,2020-09-28_12h39.45.729,torte-2b,2020.1.3,Win32,60,12724,0.31826,,,,,,,,,,,,,,,,,,,,,,,,,,,,,,,,,,,,,0,105,105,24,1,,,,,,,,,,,,,,,,,,,,,,,,
,,,,,,,,,,,,a,Incorrect,,,,,,t3.png,t1.png,2,0.056466,20,female,2020-09-28_12h39.45.729,torte-2b,2020.1.3,Win32,60,12724,0.377155,,,,,,,,,,,,,,,,,,,,,,,,,,,,,,,,,,,,,0,106,106,32,1,,,,,,,,,,,,,,,,,,,,,,,,
,,,,,,,,,,,,a,Incorrect,,,,,,t5.png,t3.png,2,0.056466,20,female,2020-09-28_12h39.45.729,torte-2b,2020.1.3,Win32,60,12724,0.367935,,,,,,,,,,,,,,,,,,,,,,,,,,,,,,,,,,,,,0,107,107,38,1,,,,,,,,,,,,,,,,,,,,,,,,
,,,,,,,,,,,,a,Incorrect,,,,,,t1.png,t5.png,4,9.55E-11,20,female,2020-09-28_12h39.45.729,torte-2b,2020.1.3,Win32,60,12724,2.18362,,,,,,,,,,,,,,,,,,,,,,,,,,,,,,,,,,,,,0,108,108,12,1,,,,,,,,,,,,,,,,,,,,,,,,
,,,,,,,,,,,,a,Correct!,,,,,,t3.png,t1.png,2,0.056466,20,female,2020-09-28_12h39.45.729,torte-2b,2020.1.3,Win32,60,12724,1.965855,,,,,,,,,,,,,,,,,,,,,,,,,,,,,,,,,,,,,0,109,109,64,1,,,,,,,,,,,,,,,,,,,,,,,,
,,,,,,,,,,,,a,Incorrect,,,,,,t2.png,t4.png,2,0.059078,20,female,2020-09-28_12h39.45.729,torte-2b,2020.1.3,Win32,60,12724,1.066665,,,,,,,,,,,,,,,,,,,,,,,,,,,,,,,,,,,,,0,110,110,77,1,,,,,,,,,,,,,,,,,,,,,,,,
,,,,,,,,,,,,a,Correct!,,,,,,t1.png,t1.png,0,0.97829,20,female,2020-09-28_12h39.45.729,torte-2b,2020.1.3,Win32,60,12724,1.94917,,,,,,,,,,,,,,,,,,,,,,,,,,,,,,,,,,,,,0,111,111,9,1,,,,,,,,,,,,,,,,,,,,,,,,
,,,,,,,,,,,,l,Incorrect,,,,,,t4.png,t4.png,0,0.98115,20,female,2020-09-28_12h39.45.729,torte-2b,2020.1.3,Win32,60,12724,0.30858,,,,,,,,,,,,,,,,,,,,,,,,,,,,,,,,,,,,,0,112,112,52,1,,,,,,,,,,,,,,,,,,,,,,,,
,,,,,,,,,,,,l,Correct!,,,,,,t4.png,t5.png,1,0.90025,20,female,2020-09-28_12h39.45.729,torte-2b,2020.1.3,Win32,60,12724,0.871895,,,,,,,,,,,,,,,,,,,,,,,,,,,,,,,,,,,,,0,113,113,113,1,,,,,,,,,,,,,,,,,,,,,,,,
,,,,,,,,,,,,a,Incorrect,,,,,,t5.png,t1.png,4,9.55E-11,20,female,2020-09-28_12h39.45.729,torte-2b,2020.1.3,Win32,60,12724,0.39555,,,,,,,,,,,,,,,,,,,,,,,,,,,,,,,,,,,,,0,114,114,43,1,,,,,,,,,,,,,,,,,,,,,,,,
,,,,,,,,,,,,l,Incorrect,,,,,,t1.png,t2.png,1,0.90025,20,female,2020-09-28_12h39.45.729,torte-2b,2020.1.3,Win32,60,12724,1.816685,,,,,,,,,,,,,,,,,,,,,,,,,,,,,,,,,,,,,0,115,115,33,1,,,,,,,,,,,,,,,,,,,,,,,,
,,,,,,,,,,,,l,Incorrect,,,,,,t2.png,t2.png,0,0.98115,20,female,2020-09-28_12h39.45.729,torte-2b,2020.1.3,Win32,60,12724,1.649455,,,,,,,,,,,,,,,,,,,,,,,,,,,,,,,,,,,,,0,116,116,59,1,,,,,,,,,,,,,,,,,,,,,,,,
,,,,,,,,,,,,l,Incorrect,,,,,,t4.png,t4.png,0,0.98115,20,female,2020-09-28_12h39.45.729,torte-2b,2020.1.3,Win32,60,12724,0.75571,,,,,,,,,,,,,,,,,,,,,,,,,,,,,,,,,,,,,0,117,117,80,1,,,,,,,,,,,,,,,,,,,,,,,,
,,,,,,,,,,,,l,Incorrect,,,,,,t2.png,t3.png,1,0.909,20,female,2020-09-28_12h39.45.729,torte-2b,2020.1.3,Win32,60,12724,0.122635,,,,,,,,,,,,,,,,,,,,,,,,,,,,,,,,,,,,,0,118,118,74,1,,,,,,,,,,,,,,,,,,,,,,,,
,,,,,,,,,,,,l,Correct!,,,,,,t5.png,t2.png,3,0.0000131,20,female,2020-09-28_12h39.45.729,torte-2b,2020.1.3,Win32,60,12724,0.101665,,,,,,,,,,,,,,,,,,,,,,,,,,,,,,,,,,,,,0,119,119,98,1,,,,,,,,,,,,,,,,,,,,,,,,
,,,,,,,,,,,,,,,,,,,,,,,20,female,2020-09-28_12h39.45.729,torte-2b,2020.1.3,Win32,60,12724,,l,1.16686,,,,,,,,,,,,,,,,,,,,,,,,,,,,,,,,,,,,,,,,-91.99998993,-134.1000565,1,0,0,s6,-8.799988687,20.29999462,1,0,0,t2,293.6000158,-104.5000072,1,0,0,proceed,space,15.28931,space,0.732615,space,0.978685
