key_resp_8.keys,key_resp_8.rt,key_resp_9.keys,key_resp_9.rt,key_resp_10.keys,key_resp_10.rt,key_resp_11.keys,key_resp_11.rt,key_resp_2.keys,key_resp_2.rt,key_resp_3.keys,key_resp_3.rt,key_resp.keys,key_resp.rt,Feedback,train.thisRepN,train.thisTrialN,train.thisN,train.thisIndex,train.ran,torta_sx,torta_dx,difference,probability,age,gender,date,expName,psychopyVersion,OS,frameRate,participant,key_resp_15.keys,key_resp_15.rt,key_resp_6.keys,key_resp_6.rt,test1.thisRepN,test1.thisTrialN,test1.thisN,test1.thisIndex,test1.ran,key_resp_4.keys,key_resp_4.rt,key_resp_5.keys,back1.thisRepN,back1.thisTrialN,back1.thisN,back1.thisIndex,back1.ran,letter,key_resp_5.rt,back2.thisRepN,back2.thisTrialN,back2.thisN,back2.thisIndex,back2.ran,back3.thisRepN,back3.thisTrialN,back3.thisN,back3.thisIndex,back3.ran,back4.thisRepN,back4.thisTrialN,back4.thisN,back4.thisIndex,back4.ran,key_resp_7.keys,key_resp_7.rt,test2.thisRepN,test2.thisTrialN,test2.thisN,test2.thisIndex,test2.ran,mouse.x,mouse.y,mouse.leftButton,mouse.midButton,mouse.rightButton,mouse.clicked_name,mouse_2.x,mouse_2.y,mouse_2.leftButton,mouse_2.midButton,mouse_2.rightButton,mouse_2.clicked_name,mouse_3.x,mouse_3.y,mouse_3.leftButton,mouse_3.midButton,mouse_3.rightButton,mouse_3.clicked_name,key_resp_12.keys,key_resp_12.rt,key_resp_13.keys,key_resp_13.rt,key_resp_14.keys,key_resp_14.rt
space,2.176,space,0.795,space,1.795,space,0.014,space,9.294,space,21.433,a,1.769,Incorrect,0,0,0,14,1,t2.png,t4.png,2,0.059078,21,female ,2020-09-04_23h13.54.988,torte-2b,2020.1.3,MacIntel,60,12727,,,,,,,,,,,,,,,,,,,,,,,,,,,,,,,,,,,,,,,,,,,,,,,,,,,,,,,,,,,,,,,,,
,,,,,,,,,,,,l,1.431,Correct!,0,1,1,11,1,t1.png,t4.png,3,0.0000131,21,female ,2020-09-04_23h13.54.988,torte-2b,2020.1.3,MacIntel,60,12727,,,,,,,,,,,,,,,,,,,,,,,,,,,,,,,,,,,,,,,,,,,,,,,,,,,,,,,,,,,,,,,,,
,,,,,,,,,,,,a,0.537,Correct!,0,2,2,106,1,t2.png,t3.png,1,0.90855,21,female ,2020-09-04_23h13.54.988,torte-2b,2020.1.3,MacIntel,60,12727,,,,,,,,,,,,,,,,,,,,,,,,,,,,,,,,,,,,,,,,,,,,,,,,,,,,,,,,,,,,,,,,,
,,,,,,,,,,,,a,0.681,Incorrect,0,3,3,26,1,t4.png,t2.png,2,0.0591,21,female ,2020-09-04_23h13.54.988,torte-2b,2020.1.3,MacIntel,60,12727,,,,,,,,,,,,,,,,,,,,,,,,,,,,,,,,,,,,,,,,,,,,,,,,,,,,,,,,,,,,,,,,,
,,,,,,,,,,,,l,0.973,Correct!,0,4,4,102,1,t4.png,t2.png,2,0.059078,21,female ,2020-09-04_23h13.54.988,torte-2b,2020.1.3,MacIntel,60,12727,,,,,,,,,,,,,,,,,,,,,,,,,,,,,,,,,,,,,,,,,,,,,,,,,,,,,,,,,,,,,,,,,
,,,,,,,,,,,,a,0.948,Correct!,0,5,5,2,1,t3.png,t2.png,1,0.90855,21,female ,2020-09-04_23h13.54.988,torte-2b,2020.1.3,MacIntel,60,12727,,,,,,,,,,,,,,,,,,,,,,,,,,,,,,,,,,,,,,,,,,,,,,,,,,,,,,,,,,,,,,,,,
,,,,,,,,,,,,l,0.854,Correct!,0,6,6,38,1,t3.png,t1.png,2,0.056466,21,female ,2020-09-04_23h13.54.988,torte-2b,2020.1.3,MacIntel,60,12727,,,,,,,,,,,,,,,,,,,,,,,,,,,,,,,,,,,,,,,,,,,,,,,,,,,,,,,,,,,,,,,,,
,,,,,,,,,,,,a,0.613,Correct!,0,7,7,42,1,t5.png,t4.png,1,0.90025,21,female ,2020-09-04_23h13.54.988,torte-2b,2020.1.3,MacIntel,60,12727,,,,,,,,,,,,,,,,,,,,,,,,,,,,,,,,,,,,,,,,,,,,,,,,,,,,,,,,,,,,,,,,,
,,,,,,,,,,,,l,0.587,Incorrect,0,8,8,71,1,t5.png,t5.png,0,0.97829,21,female ,2020-09-04_23h13.54.988,torte-2b,2020.1.3,MacIntel,60,12727,,,,,,,,,,,,,,,,,,,,,,,,,,,,,,,,,,,,,,,,,,,,,,,,,,,,,,,,,,,,,,,,,
,,,,,,,,,,,,l,0.706,Correct!,0,9,9,90,1,t1.png,t5.png,4,9.55E-11,21,female ,2020-09-04_23h13.54.988,torte-2b,2020.1.3,MacIntel,60,12727,,,,,,,,,,,,,,,,,,,,,,,,,,,,,,,,,,,,,,,,,,,,,,,,,,,,,,,,,,,,,,,,,
,,,,,,,,,,,,a,0.491,Incorrect,0,10,10,50,1,t5.png,t1.png,4,9.55E-11,21,female ,2020-09-04_23h13.54.988,torte-2b,2020.1.3,MacIntel,60,12727,,,,,,,,,,,,,,,,,,,,,,,,,,,,,,,,,,,,,,,,,,,,,,,,,,,,,,,,,,,,,,,,,
,,,,,,,,,,,,l,0.484,Correct!,0,11,11,89,1,t1.png,t4.png,3,0.0000131,21,female ,2020-09-04_23h13.54.988,torte-2b,2020.1.3,MacIntel,60,12727,,,,,,,,,,,,,,,,,,,,,,,,,,,,,,,,,,,,,,,,,,,,,,,,,,,,,,,,,,,,,,,,,
,,,,,,,,,,,,l,0.354,Incorrect,0,12,12,13,1,t5.png,t5.png,0,0.97829,21,female ,2020-09-04_23h13.54.988,torte-2b,2020.1.3,MacIntel,60,12727,,,,,,,,,,,,,,,,,,,,,,,,,,,,,,,,,,,,,,,,,,,,,,,,,,,,,,,,,,,,,,,,,
,,,,,,,,,,,,a,0.403,Incorrect,0,13,13,1,1,t2.png,t4.png,2,0.059078,21,female ,2020-09-04_23h13.54.988,torte-2b,2020.1.3,MacIntel,60,12727,,,,,,,,,,,,,,,,,,,,,,,,,,,,,,,,,,,,,,,,,,,,,,,,,,,,,,,,,,,,,,,,,
,,,,,,,,,,,,l,0.714,Incorrect,0,14,14,97,1,t5.png,t5.png,0,0.97829,21,female ,2020-09-04_23h13.54.988,torte-2b,2020.1.3,MacIntel,60,12727,,,,,,,,,,,,,,,,,,,,,,,,,,,,,,,,,,,,,,,,,,,,,,,,,,,,,,,,,,,,,,,,,
,,,,,,,,,,,,l,0.987,Incorrect,0,15,15,23,1,t5.png,t4.png,1,0.90025,21,female ,2020-09-04_23h13.54.988,torte-2b,2020.1.3,MacIntel,60,12727,,,,,,,,,,,,,,,,,,,,,,,,,,,,,,,,,,,,,,,,,,,,,,,,,,,,,,,,,,,,,,,,,
,,,,,,,,,,,,a,0.617,Incorrect,0,16,16,33,1,t5.png,t1.png,4,9.55E-11,21,female ,2020-09-04_23h13.54.988,torte-2b,2020.1.3,MacIntel,60,12727,,,,,,,,,,,,,,,,,,,,,,,,,,,,,,,,,,,,,,,,,,,,,,,,,,,,,,,,,,,,,,,,,
,,,,,,,,,,,,l,0.432,Incorrect,0,17,17,21,1,t5.png,t4.png,1,0.90025,21,female ,2020-09-04_23h13.54.988,torte-2b,2020.1.3,MacIntel,60,12727,,,,,,,,,,,,,,,,,,,,,,,,,,,,,,,,,,,,,,,,,,,,,,,,,,,,,,,,,,,,,,,,,
,,,,,,,,,,,,a,0.357,Correct!,0,18,18,10,1,t2.png,t3.png,1,0.90855,21,female ,2020-09-04_23h13.54.988,torte-2b,2020.1.3,MacIntel,60,12727,,,,,,,,,,,,,,,,,,,,,,,,,,,,,,,,,,,,,,,,,,,,,,,,,,,,,,,,,,,,,,,,,
,,,,,,,,,,,,a,0.816,Incorrect,0,19,19,3,1,t1.png,t5.png,4,9.55E-11,21,female ,2020-09-04_23h13.54.988,torte-2b,2020.1.3,MacIntel,60,12727,,,,,,,,,,,,,,,,,,,,,,,,,,,,,,,,,,,,,,,,,,,,,,,,,,,,,,,,,,,,,,,,,
,,,,,,,,,,,,l,0.748,Correct!,0,20,20,47,1,t4.png,t2.png,2,0.059078,21,female ,2020-09-04_23h13.54.988,torte-2b,2020.1.3,MacIntel,60,12727,,,,,,,,,,,,,,,,,,,,,,,,,,,,,,,,,,,,,,,,,,,,,,,,,,,,,,,,,,,,,,,,,
,,,,,,,,,,,,a,1.316,Correct!,0,21,21,84,1,t1.png,t1.png,0,0.97829,21,female ,2020-09-04_23h13.54.988,torte-2b,2020.1.3,MacIntel,60,12727,,,,,,,,,,,,,,,,,,,,,,,,,,,,,,,,,,,,,,,,,,,,,,,,,,,,,,,,,,,,,,,,,
,,,,,,,,,,,,l,0.92,Incorrect,0,22,22,34,1,t5.png,t4.png,1,0.9,21,female ,2020-09-04_23h13.54.988,torte-2b,2020.1.3,MacIntel,60,12727,,,,,,,,,,,,,,,,,,,,,,,,,,,,,,,,,,,,,,,,,,,,,,,,,,,,,,,,,,,,,,,,,
,,,,,,,,,,,,a,0.57,Incorrect,0,23,23,37,1,t1.png,t4.png,3,0.0000131,21,female ,2020-09-04_23h13.54.988,torte-2b,2020.1.3,MacIntel,60,12727,,,,,,,,,,,,,,,,,,,,,,,,,,,,,,,,,,,,,,,,,,,,,,,,,,,,,,,,,,,,,,,,,
,,,,,,,,,,,,l,0.273,Correct!,0,24,24,35,1,t1.png,t4.png,3,0.0000131,21,female ,2020-09-04_23h13.54.988,torte-2b,2020.1.3,MacIntel,60,12727,,,,,,,,,,,,,,,,,,,,,,,,,,,,,,,,,,,,,,,,,,,,,,,,,,,,,,,,,,,,,,,,,
,,,,,,,,,,,,a,0.266,Incorrect,0,25,25,31,1,t1.png,t5.png,4,9.55E-11,21,female ,2020-09-04_23h13.54.988,torte-2b,2020.1.3,MacIntel,60,12727,,,,,,,,,,,,,,,,,,,,,,,,,,,,,,,,,,,,,,,,,,,,,,,,,,,,,,,,,,,,,,,,,
,,,,,,,,,,,,l,0.515,Correct!,0,26,26,60,1,t2.png,t4.png,2,0.059078,21,female ,2020-09-04_23h13.54.988,torte-2b,2020.1.3,MacIntel,60,12727,,,,,,,,,,,,,,,,,,,,,,,,,,,,,,,,,,,,,,,,,,,,,,,,,,,,,,,,,,,,,,,,,
,,,,,,,,,,,,a,0.671,Correct!,0,27,27,96,1,t1.png,t1.png,0,0.97829,21,female ,2020-09-04_23h13.54.988,torte-2b,2020.1.3,MacIntel,60,12727,,,,,,,,,,,,,,,,,,,,,,,,,,,,,,,,,,,,,,,,,,,,,,,,,,,,,,,,,,,,,,,,,
,,,,,,,,,,,,l,0.466,Correct!,0,28,28,83,1,t3.png,t1.png,2,0.056466,21,female ,2020-09-04_23h13.54.988,torte-2b,2020.1.3,MacIntel,60,12727,,,,,,,,,,,,,,,,,,,,,,,,,,,,,,,,,,,,,,,,,,,,,,,,,,,,,,,,,,,,,,,,,
,,,,,,,,,,,,l,0.466,Correct!,0,29,29,52,1,t2.png,t4.png,2,0.059078,21,female ,2020-09-04_23h13.54.988,torte-2b,2020.1.3,MacIntel,60,12727,,,,,,,,,,,,,,,,,,,,,,,,,,,,,,,,,,,,,,,,,,,,,,,,,,,,,,,,,,,,,,,,,
,,,,,,,,,,,,a,0.658,Correct!,0,30,30,39,1,t3.png,t2.png,1,0.90855,21,female ,2020-09-04_23h13.54.988,torte-2b,2020.1.3,MacIntel,60,12727,,,,,,,,,,,,,,,,,,,,,,,,,,,,,,,,,,,,,,,,,,,,,,,,,,,,,,,,,,,,,,,,,
,,,,,,,,,,,,a,0.833,Incorrect,0,31,31,94,1,t5.png,t1.png,4,9.55E-11,21,female ,2020-09-04_23h13.54.988,torte-2b,2020.1.3,MacIntel,60,12727,,,,,,,,,,,,,,,,,,,,,,,,,,,,,,,,,,,,,,,,,,,,,,,,,,,,,,,,,,,,,,,,,
,,,,,,,,,,,,l,2.2,Incorrect,0,32,32,74,1,t5.png,t4.png,1,0.9,21,female ,2020-09-04_23h13.54.988,torte-2b,2020.1.3,MacIntel,60,12727,,,,,,,,,,,,,,,,,,,,,,,,,,,,,,,,,,,,,,,,,,,,,,,,,,,,,,,,,,,,,,,,,
,,,,,,,,,,,,a,0.27,Incorrect,0,33,33,25,1,t5.png,t5.png,0,0.97829,21,female ,2020-09-04_23h13.54.988,torte-2b,2020.1.3,MacIntel,60,12727,,,,,,,,,,,,,,,,,,,,,,,,,,,,,,,,,,,,,,,,,,,,,,,,,,,,,,,,,,,,,,,,,
,,,,,,,,,,,,l,0.316,Incorrect,0,34,34,95,1,t1.png,t1.png,0,0.978,21,female ,2020-09-04_23h13.54.988,torte-2b,2020.1.3,MacIntel,60,12727,,,,,,,,,,,,,,,,,,,,,,,,,,,,,,,,,,,,,,,,,,,,,,,,,,,,,,,,,,,,,,,,,
,,,,,,,,,,,,a,0.641,Correct!,0,35,35,16,1,t5.png,t4.png,1,0.9,21,female ,2020-09-04_23h13.54.988,torte-2b,2020.1.3,MacIntel,60,12727,,,,,,,,,,,,,,,,,,,,,,,,,,,,,,,,,,,,,,,,,,,,,,,,,,,,,,,,,,,,,,,,,
,,,,,,,,,,,,l,0.305,Correct!,0,36,36,87,1,t5.png,t1.png,4,9.55E-11,21,female ,2020-09-04_23h13.54.988,torte-2b,2020.1.3,MacIntel,60,12727,,,,,,,,,,,,,,,,,,,,,,,,,,,,,,,,,,,,,,,,,,,,,,,,,,,,,,,,,,,,,,,,,
,,,,,,,,,,,,a,0.2,Incorrect,0,37,37,73,1,t4.png,t2.png,2,0.059078,21,female ,2020-09-04_23h13.54.988,torte-2b,2020.1.3,MacIntel,60,12727,,,,,,,,,,,,,,,,,,,,,,,,,,,,,,,,,,,,,,,,,,,,,,,,,,,,,,,,,,,,,,,,,
,,,,,,,,,,,,l,0.336,Incorrect,0,38,38,77,1,t1.png,t1.png,0,0.97829,21,female ,2020-09-04_23h13.54.988,torte-2b,2020.1.3,MacIntel,60,12727,,,,,,,,,,,,,,,,,,,,,,,,,,,,,,,,,,,,,,,,,,,,,,,,,,,,,,,,,,,,,,,,,
,,,,,,,,,,,,a,0.368,Correct!,0,39,39,104,1,t2.png,t3.png,1,0.90855,21,female ,2020-09-04_23h13.54.988,torte-2b,2020.1.3,MacIntel,60,12727,,,,,,,,,,,,,,,,,,,,,,,,,,,,,,,,,,,,,,,,,,,,,,,,,,,,,,,,,,,,,,,,,
,,,,,,,,,,,,a,0.35,Incorrect,0,40,40,5,1,t2.png,t4.png,2,0.059078,21,female ,2020-09-04_23h13.54.988,torte-2b,2020.1.3,MacIntel,60,12727,,,,,,,,,,,,,,,,,,,,,,,,,,,,,,,,,,,,,,,,,,,,,,,,,,,,,,,,,,,,,,,,,
,,,,,,,,,,,,l,0.249,Correct!,0,41,41,24,1,t4.png,t2.png,2,0.059078,21,female ,2020-09-04_23h13.54.988,torte-2b,2020.1.3,MacIntel,60,12727,,,,,,,,,,,,,,,,,,,,,,,,,,,,,,,,,,,,,,,,,,,,,,,,,,,,,,,,,,,,,,,,,
,,,,,,,,,,,,a,0.501,Correct!,0,42,42,114,1,t2.png,t3.png,1,0.90855,21,female ,2020-09-04_23h13.54.988,torte-2b,2020.1.3,MacIntel,60,12727,,,,,,,,,,,,,,,,,,,,,,,,,,,,,,,,,,,,,,,,,,,,,,,,,,,,,,,,,,,,,,,,,
,,,,,,,,,,,,l,0.235,Incorrect,0,43,43,78,1,t1.png,t1.png,0,0.978,21,female ,2020-09-04_23h13.54.988,torte-2b,2020.1.3,MacIntel,60,12727,,,,,,,,,,,,,,,,,,,,,,,,,,,,,,,,,,,,,,,,,,,,,,,,,,,,,,,,,,,,,,,,,
,,,,,,,,,,,,l,0.304,Incorrect,0,44,44,75,1,t1.png,t1.png,0,0.97829,21,female ,2020-09-04_23h13.54.988,torte-2b,2020.1.3,MacIntel,60,12727,,,,,,,,,,,,,,,,,,,,,,,,,,,,,,,,,,,,,,,,,,,,,,,,,,,,,,,,,,,,,,,,,
,,,,,,,,,,,,a,0.3,Correct!,0,45,45,100,1,t4.png,t5.png,1,0.90025,21,female ,2020-09-04_23h13.54.988,torte-2b,2020.1.3,MacIntel,60,12727,,,,,,,,,,,,,,,,,,,,,,,,,,,,,,,,,,,,,,,,,,,,,,,,,,,,,,,,,,,,,,,,,
,,,,,,,,,,,,l,0.52,Incorrect,0,46,46,49,1,t4.png,t5.png,1,0.9,21,female ,2020-09-04_23h13.54.988,torte-2b,2020.1.3,MacIntel,60,12727,,,,,,,,,,,,,,,,,,,,,,,,,,,,,,,,,,,,,,,,,,,,,,,,,,,,,,,,,,,,,,,,,
,,,,,,,,,,,,a,0.721,Correct!,0,47,47,41,1,t3.png,t2.png,1,0.90855,21,female ,2020-09-04_23h13.54.988,torte-2b,2020.1.3,MacIntel,60,12727,,,,,,,,,,,,,,,,,,,,,,,,,,,,,,,,,,,,,,,,,,,,,,,,,,,,,,,,,,,,,,,,,
,,,,,,,,,,,,l,0.968,Correct!,0,48,48,0,1,t5.png,t1.png,4,9.55E-11,21,female ,2020-09-04_23h13.54.988,torte-2b,2020.1.3,MacIntel,60,12727,,,,,,,,,,,,,,,,,,,,,,,,,,,,,,,,,,,,,,,,,,,,,,,,,,,,,,,,,,,,,,,,,
,,,,,,,,,,,,l,1.299,Incorrect,0,49,49,112,1,t1.png,t1.png,0,0.97829,21,female ,2020-09-04_23h13.54.988,torte-2b,2020.1.3,MacIntel,60,12727,,,,,,,,,,,,,,,,,,,,,,,,,,,,,,,,,,,,,,,,,,,,,,,,,,,,,,,,,,,,,,,,,
,,,,,,,,,,,,a,0.632,Incorrect,0,50,50,54,1,t1.png,t5.png,4,9.55E-11,21,female ,2020-09-04_23h13.54.988,torte-2b,2020.1.3,MacIntel,60,12727,,,,,,,,,,,,,,,,,,,,,,,,,,,,,,,,,,,,,,,,,,,,,,,,,,,,,,,,,,,,,,,,,
,,,,,,,,,,,,l,0.515,Correct!,0,51,51,110,1,t4.png,t5.png,1,0.90025,21,female ,2020-09-04_23h13.54.988,torte-2b,2020.1.3,MacIntel,60,12727,,,,,,,,,,,,,,,,,,,,,,,,,,,,,,,,,,,,,,,,,,,,,,,,,,,,,,,,,,,,,,,,,
,,,,,,,,,,,,l,0.419,Incorrect,0,52,52,45,1,t3.png,t2.png,1,0.90855,21,female ,2020-09-04_23h13.54.988,torte-2b,2020.1.3,MacIntel,60,12727,,,,,,,,,,,,,,,,,,,,,,,,,,,,,,,,,,,,,,,,,,,,,,,,,,,,,,,,,,,,,,,,,
,,,,,,,,,,,,a,0.623,Correct!,0,53,53,32,1,t4.png,t5.png,1,0.90025,21,female ,2020-09-04_23h13.54.988,torte-2b,2020.1.3,MacIntel,60,12727,,,,,,,,,,,,,,,,,,,,,,,,,,,,,,,,,,,,,,,,,,,,,,,,,,,,,,,,,,,,,,,,,
,,,,,,,,,,,,a,0.249,Incorrect,0,54,54,46,1,t4.png,t2.png,2,0.059078,21,female ,2020-09-04_23h13.54.988,torte-2b,2020.1.3,MacIntel,60,12727,,,,,,,,,,,,,,,,,,,,,,,,,,,,,,,,,,,,,,,,,,,,,,,,,,,,,,,,,,,,,,,,,
,,,,,,,,,,,,l,0.374,Incorrect,0,55,55,115,1,t2.png,t4.png,2,0.059078,21,female ,2020-09-04_23h13.54.988,torte-2b,2020.1.3,MacIntel,60,12727,,,,,,,,,,,,,,,,,,,,,,,,,,,,,,,,,,,,,,,,,,,,,,,,,,,,,,,,,,,,,,,,,
,,,,,,,,,,,,a,0.654,Incorrect,0,56,56,27,1,t3.png,t1.png,2,0.0565,21,female ,2020-09-04_23h13.54.988,torte-2b,2020.1.3,MacIntel,60,12727,,,,,,,,,,,,,,,,,,,,,,,,,,,,,,,,,,,,,,,,,,,,,,,,,,,,,,,,,,,,,,,,,
,,,,,,,,,,,,l,0.592,Incorrect,0,57,57,101,1,t4.png,t5.png,1,0.90025,21,female ,2020-09-04_23h13.54.988,torte-2b,2020.1.3,MacIntel,60,12727,,,,,,,,,,,,,,,,,,,,,,,,,,,,,,,,,,,,,,,,,,,,,,,,,,,,,,,,,,,,,,,,,
,,,,,,,,,,,,a,0.455,Incorrect,0,58,58,91,1,t1.png,t4.png,3,0.0000131,21,female ,2020-09-04_23h13.54.988,torte-2b,2020.1.3,MacIntel,60,12727,,,,,,,,,,,,,,,,,,,,,,,,,,,,,,,,,,,,,,,,,,,,,,,,,,,,,,,,,,,,,,,,,
,,,,,,,,,,,,l,0.432,Correct!,0,59,59,43,1,t4.png,t2.png,2,0.059078,21,female ,2020-09-04_23h13.54.988,torte-2b,2020.1.3,MacIntel,60,12727,,,,,,,,,,,,,,,,,,,,,,,,,,,,,,,,,,,,,,,,,,,,,,,,,,,,,,,,,,,,,,,,,
,,,,,,,,,,,,a,0.389,Incorrect,0,60,60,19,1,t4.png,t2.png,2,0.059078,21,female ,2020-09-04_23h13.54.988,torte-2b,2020.1.3,MacIntel,60,12727,,,,,,,,,,,,,,,,,,,,,,,,,,,,,,,,,,,,,,,,,,,,,,,,,,,,,,,,,,,,,,,,,
,,,,,,,,,,,,l,0.434,Correct!,0,61,61,55,1,t2.png,t4.png,2,0.059078,21,female ,2020-09-04_23h13.54.988,torte-2b,2020.1.3,MacIntel,60,12727,,,,,,,,,,,,,,,,,,,,,,,,,,,,,,,,,,,,,,,,,,,,,,,,,,,,,,,,,,,,,,,,,
,,,,,,,,,,,,a,0.384,Correct!,0,62,62,9,1,t4.png,t5.png,1,0.9,21,female ,2020-09-04_23h13.54.988,torte-2b,2020.1.3,MacIntel,60,12727,,,,,,,,,,,,,,,,,,,,,,,,,,,,,,,,,,,,,,,,,,,,,,,,,,,,,,,,,,,,,,,,,
,,,,,,,,,,,,l,0.443,Correct!,0,63,63,67,1,t1.png,t5.png,4,9.55E-11,21,female ,2020-09-04_23h13.54.988,torte-2b,2020.1.3,MacIntel,60,12727,,,,,,,,,,,,,,,,,,,,,,,,,,,,,,,,,,,,,,,,,,,,,,,,,,,,,,,,,,,,,,,,,
,,,,,,,,,,,,a,0.439,Incorrect,0,64,64,20,1,t2.png,t3.png,1,0.90855,21,female ,2020-09-04_23h13.54.988,torte-2b,2020.1.3,MacIntel,60,12727,,,,,,,,,,,,,,,,,,,,,,,,,,,,,,,,,,,,,,,,,,,,,,,,,,,,,,,,,,,,,,,,,
,,,,,,,,,,,,l,0.474,Correct!,0,65,65,93,1,t2.png,t4.png,2,0.059078,21,female ,2020-09-04_23h13.54.988,torte-2b,2020.1.3,MacIntel,60,12727,,,,,,,,,,,,,,,,,,,,,,,,,,,,,,,,,,,,,,,,,,,,,,,,,,,,,,,,,,,,,,,,,
,,,,,,,,,,,,a,0.339,Correct!,0,66,66,29,1,t5.png,t5.png,0,0.97829,21,female ,2020-09-04_23h13.54.988,torte-2b,2020.1.3,MacIntel,60,12727,,,,,,,,,,,,,,,,,,,,,,,,,,,,,,,,,,,,,,,,,,,,,,,,,,,,,,,,,,,,,,,,,
,,,,,,,,,,,,l,0.421,Correct!,0,67,67,108,1,t5.png,t1.png,4,9.55E-11,21,female ,2020-09-04_23h13.54.988,torte-2b,2020.1.3,MacIntel,60,12727,,,,,,,,,,,,,,,,,,,,,,,,,,,,,,,,,,,,,,,,,,,,,,,,,,,,,,,,,,,,,,,,,
,,,,,,,,,,,,a,0.372,Incorrect,0,68,68,98,1,t2.png,t4.png,2,0.0591,21,female ,2020-09-04_23h13.54.988,torte-2b,2020.1.3,MacIntel,60,12727,,,,,,,,,,,,,,,,,,,,,,,,,,,,,,,,,,,,,,,,,,,,,,,,,,,,,,,,,,,,,,,,,
,,,,,,,,,,,,l,0.381,Incorrect,0,69,69,70,1,t5.png,t5.png,0,0.978,21,female ,2020-09-04_23h13.54.988,torte-2b,2020.1.3,MacIntel,60,12727,,,,,,,,,,,,,,,,,,,,,,,,,,,,,,,,,,,,,,,,,,,,,,,,,,,,,,,,,,,,,,,,,
,,,,,,,,,,,,a,0.398,Incorrect,0,70,70,6,1,t1.png,t4.png,3,0.0000131,21,female ,2020-09-04_23h13.54.988,torte-2b,2020.1.3,MacIntel,60,12727,,,,,,,,,,,,,,,,,,,,,,,,,,,,,,,,,,,,,,,,,,,,,,,,,,,,,,,,,,,,,,,,,
,,,,,,,,,,,,a,0.332,Incorrect,0,71,71,56,1,t5.png,t1.png,4,9.55E-11,21,female ,2020-09-04_23h13.54.988,torte-2b,2020.1.3,MacIntel,60,12727,,,,,,,,,,,,,,,,,,,,,,,,,,,,,,,,,,,,,,,,,,,,,,,,,,,,,,,,,,,,,,,,,
,,,,,,,,,,,,a,1.021,Correct!,0,72,72,116,1,t5.png,t4.png,1,0.90025,21,female ,2020-09-04_23h13.54.988,torte-2b,2020.1.3,MacIntel,60,12727,,,,,,,,,,,,,,,,,,,,,,,,,,,,,,,,,,,,,,,,,,,,,,,,,,,,,,,,,,,,,,,,,
,,,,,,,,,,,,l,0.381,Incorrect,0,73,73,8,1,t3.png,t2.png,1,0.90855,21,female ,2020-09-04_23h13.54.988,torte-2b,2020.1.3,MacIntel,60,12727,,,,,,,,,,,,,,,,,,,,,,,,,,,,,,,,,,,,,,,,,,,,,,,,,,,,,,,,,,,,,,,,,
,,,,,,,,,,,,a,0.965,Correct!,0,74,74,22,1,t2.png,t3.png,1,0.90855,21,female ,2020-09-04_23h13.54.988,torte-2b,2020.1.3,MacIntel,60,12727,,,,,,,,,,,,,,,,,,,,,,,,,,,,,,,,,,,,,,,,,,,,,,,,,,,,,,,,,,,,,,,,,
,,,,,,,,,,,,l,0.616,Correct!,0,75,75,86,1,t3.png,t1.png,2,0.056466,21,female ,2020-09-04_23h13.54.988,torte-2b,2020.1.3,MacIntel,60,12727,,,,,,,,,,,,,,,,,,,,,,,,,,,,,,,,,,,,,,,,,,,,,,,,,,,,,,,,,,,,,,,,,
,,,,,,,,,,,,a,0.467,Incorrect,0,76,76,80,1,t1.png,t4.png,3,0.0000131,21,female ,2020-09-04_23h13.54.988,torte-2b,2020.1.3,MacIntel,60,12727,,,,,,,,,,,,,,,,,,,,,,,,,,,,,,,,,,,,,,,,,,,,,,,,,,,,,,,,,,,,,,,,,
,,,,,,,,,,,,l,0.538,Correct!,0,77,77,17,1,t1.png,t4.png,3,0.0000131,21,female ,2020-09-04_23h13.54.988,torte-2b,2020.1.3,MacIntel,60,12727,,,,,,,,,,,,,,,,,,,,,,,,,,,,,,,,,,,,,,,,,,,,,,,,,,,,,,,,,,,,,,,,,
,,,,,,,,,,,,l,0.5,Incorrect,0,78,78,64,1,t1.png,t1.png,0,0.978,21,female ,2020-09-04_23h13.54.988,torte-2b,2020.1.3,MacIntel,60,12727,,,,,,,,,,,,,,,,,,,,,,,,,,,,,,,,,,,,,,,,,,,,,,,,,,,,,,,,,,,,,,,,,
,,,,,,,,,,,,a,0.681,Correct!,0,79,79,58,1,t5.png,t4.png,1,0.90025,21,female ,2020-09-04_23h13.54.988,torte-2b,2020.1.3,MacIntel,60,12727,,,,,,,,,,,,,,,,,,,,,,,,,,,,,,,,,,,,,,,,,,,,,,,,,,,,,,,,,,,,,,,,,
,,,,,,,,,,,,l,0.534,Correct!,0,80,80,30,1,t3.png,t1.png,2,0.056466,21,female ,2020-09-04_23h13.54.988,torte-2b,2020.1.3,MacIntel,60,12727,,,,,,,,,,,,,,,,,,,,,,,,,,,,,,,,,,,,,,,,,,,,,,,,,,,,,,,,,,,,,,,,,
,,,,,,,,,,,,a,0.47,Correct!,0,81,81,118,1,t5.png,t5.png,0,0.978,21,female ,2020-09-04_23h13.54.988,torte-2b,2020.1.3,MacIntel,60,12727,,,,,,,,,,,,,,,,,,,,,,,,,,,,,,,,,,,,,,,,,,,,,,,,,,,,,,,,,,,,,,,,,
,,,,,,,,,,,,l,0.324,Incorrect,0,82,82,92,1,t2.png,t3.png,1,0.909,21,female ,2020-09-04_23h13.54.988,torte-2b,2020.1.3,MacIntel,60,12727,,,,,,,,,,,,,,,,,,,,,,,,,,,,,,,,,,,,,,,,,,,,,,,,,,,,,,,,,,,,,,,,,
,,,,,,,,,,,,a,0.187,Correct!,0,83,83,81,1,t1.png,t1.png,0,0.97829,21,female ,2020-09-04_23h13.54.988,torte-2b,2020.1.3,MacIntel,60,12727,,,,,,,,,,,,,,,,,,,,,,,,,,,,,,,,,,,,,,,,,,,,,,,,,,,,,,,,,,,,,,,,,
,,,,,,,,,,,,l,1.023,Incorrect,0,84,84,18,1,t4.png,t5.png,1,0.90025,21,female ,2020-09-04_23h13.54.988,torte-2b,2020.1.3,MacIntel,60,12727,,,,,,,,,,,,,,,,,,,,,,,,,,,,,,,,,,,,,,,,,,,,,,,,,,,,,,,,,,,,,,,,,
,,,,,,,,,,,,l,0.157,Correct!,0,85,85,117,1,t1.png,t5.png,4,9.55E-11,21,female ,2020-09-04_23h13.54.988,torte-2b,2020.1.3,MacIntel,60,12727,,,,,,,,,,,,,,,,,,,,,,,,,,,,,,,,,,,,,,,,,,,,,,,,,,,,,,,,,,,,,,,,,
,,,,,,,,,,,,l,0.439,Incorrect,0,86,86,66,1,t4.png,t5.png,1,0.9,21,female ,2020-09-04_23h13.54.988,torte-2b,2020.1.3,MacIntel,60,12727,,,,,,,,,,,,,,,,,,,,,,,,,,,,,,,,,,,,,,,,,,,,,,,,,,,,,,,,,,,,,,,,,
,,,,,,,,,,,,l,0.287,Correct!,0,87,87,69,1,t4.png,t2.png,2,0.059078,21,female ,2020-09-04_23h13.54.988,torte-2b,2020.1.3,MacIntel,60,12727,,,,,,,,,,,,,,,,,,,,,,,,,,,,,,,,,,,,,,,,,,,,,,,,,,,,,,,,,,,,,,,,,
,,,,,,,,,,,,a,2.315,Correct!,0,88,88,7,1,t4.png,t5.png,1,0.90025,21,female ,2020-09-04_23h13.54.988,torte-2b,2020.1.3,MacIntel,60,12727,,,,,,,,,,,,,,,,,,,,,,,,,,,,,,,,,,,,,,,,,,,,,,,,,,,,,,,,,,,,,,,,,
,,,,,,,,,,,,l,0.399,Correct!,0,89,89,57,1,t2.png,t4.png,2,0.059078,21,female ,2020-09-04_23h13.54.988,torte-2b,2020.1.3,MacIntel,60,12727,,,,,,,,,,,,,,,,,,,,,,,,,,,,,,,,,,,,,,,,,,,,,,,,,,,,,,,,,,,,,,,,,
,,,,,,,,,,,,a,0.551,Incorrect,0,90,90,12,1,t5.png,t1.png,4,9.55E-11,21,female ,2020-09-04_23h13.54.988,torte-2b,2020.1.3,MacIntel,60,12727,,,,,,,,,,,,,,,,,,,,,,,,,,,,,,,,,,,,,,,,,,,,,,,,,,,,,,,,,,,,,,,,,
,,,,,,,,,,,,l,0.406,Incorrect,0,91,91,15,1,t3.png,t2.png,1,0.90855,21,female ,2020-09-04_23h13.54.988,torte-2b,2020.1.3,MacIntel,60,12727,,,,,,,,,,,,,,,,,,,,,,,,,,,,,,,,,,,,,,,,,,,,,,,,,,,,,,,,,,,,,,,,,
,,,,,,,,,,,,a,0.549,Incorrect,0,92,92,68,1,t1.png,t4.png,3,0.0000131,21,female ,2020-09-04_23h13.54.988,torte-2b,2020.1.3,MacIntel,60,12727,,,,,,,,,,,,,,,,,,,,,,,,,,,,,,,,,,,,,,,,,,,,,,,,,,,,,,,,,,,,,,,,,
,,,,,,,,,,,,l,0.415,Incorrect,0,93,93,107,1,t1.png,t1.png,0,0.978,21,female ,2020-09-04_23h13.54.988,torte-2b,2020.1.3,MacIntel,60,12727,,,,,,,,,,,,,,,,,,,,,,,,,,,,,,,,,,,,,,,,,,,,,,,,,,,,,,,,,,,,,,,,,
,,,,,,,,,,,,a,0.082,Incorrect,0,94,94,88,1,t3.png,t1.png,2,0.056466,21,female ,2020-09-04_23h13.54.988,torte-2b,2020.1.3,MacIntel,60,12727,,,,,,,,,,,,,,,,,,,,,,,,,,,,,,,,,,,,,,,,,,,,,,,,,,,,,,,,,,,,,,,,,
,,,,,,,,,,,,l,0.358,Correct!,0,95,95,28,1,t2.png,t3.png,1,0.909,21,female ,2020-09-04_23h13.54.988,torte-2b,2020.1.3,MacIntel,60,12727,,,,,,,,,,,,,,,,,,,,,,,,,,,,,,,,,,,,,,,,,,,,,,,,,,,,,,,,,,,,,,,,,
,,,,,,,,,,,,a,0.417,Correct!,0,96,96,113,1,t5.png,t4.png,1,0.9,21,female ,2020-09-04_23h13.54.988,torte-2b,2020.1.3,MacIntel,60,12727,,,,,,,,,,,,,,,,,,,,,,,,,,,,,,,,,,,,,,,,,,,,,,,,,,,,,,,,,,,,,,,,,
,,,,,,,,,,,,a,0.967,Incorrect,0,97,97,103,1,t3.png,t1.png,2,0.056466,21,female ,2020-09-04_23h13.54.988,torte-2b,2020.1.3,MacIntel,60,12727,,,,,,,,,,,,,,,,,,,,,,,,,,,,,,,,,,,,,,,,,,,,,,,,,,,,,,,,,,,,,,,,,
,,,,,,,,,,,,l,0.322,Correct!,0,98,98,40,1,t1.png,t5.png,4,9.55E-11,21,female ,2020-09-04_23h13.54.988,torte-2b,2020.1.3,MacIntel,60,12727,,,,,,,,,,,,,,,,,,,,,,,,,,,,,,,,,,,,,,,,,,,,,,,,,,,,,,,,,,,,,,,,,
,,,,,,,,,,,,a,0.266,Correct!,0,99,99,85,1,t3.png,t2.png,1,0.90855,21,female ,2020-09-04_23h13.54.988,torte-2b,2020.1.3,MacIntel,60,12727,,,,,,,,,,,,,,,,,,,,,,,,,,,,,,,,,,,,,,,,,,,,,,,,,,,,,,,,,,,,,,,,,
,,,,,,,,,,,,a,0.865,Correct!,0,100,100,59,1,t5.png,t4.png,1,0.9,21,female ,2020-09-04_23h13.54.988,torte-2b,2020.1.3,MacIntel,60,12727,,,,,,,,,,,,,,,,,,,,,,,,,,,,,,,,,,,,,,,,,,,,,,,,,,,,,,,,,,,,,,,,,
,,,,,,,,,,,,a,0.721,Incorrect,0,101,101,105,1,t3.png,t2.png,1,0.90855,21,female ,2020-09-04_23h13.54.988,torte-2b,2020.1.3,MacIntel,60,12727,,,,,,,,,,,,,,,,,,,,,,,,,,,,,,,,,,,,,,,,,,,,,,,,,,,,,,,,,,,,,,,,,
,,,,,,,,,,,,l,0.404,Correct!,0,102,102,4,1,t1.png,t5.png,4,9.55E-11,21,female ,2020-09-04_23h13.54.988,torte-2b,2020.1.3,MacIntel,60,12727,,,,,,,,,,,,,,,,,,,,,,,,,,,,,,,,,,,,,,,,,,,,,,,,,,,,,,,,,,,,,,,,,
,,,,,,,,,,,,a,0.404,Correct!,0,103,103,109,1,t5.png,t5.png,0,0.97829,21,female ,2020-09-04_23h13.54.988,torte-2b,2020.1.3,MacIntel,60,12727,,,,,,,,,,,,,,,,,,,,,,,,,,,,,,,,,,,,,,,,,,,,,,,,,,,,,,,,,,,,,,,,,
,,,,,,,,,,,,l,0.982,Incorrect,0,104,104,44,1,t2.png,t3.png,1,0.909,21,female ,2020-09-04_23h13.54.988,torte-2b,2020.1.3,MacIntel,60,12727,,,,,,,,,,,,,,,,,,,,,,,,,,,,,,,,,,,,,,,,,,,,,,,,,,,,,,,,,,,,,,,,,
,,,,,,,,,,,,a,1.016,Incorrect,0,105,105,51,1,t3.png,t1.png,2,0.056466,21,female ,2020-09-04_23h13.54.988,torte-2b,2020.1.3,MacIntel,60,12727,,,,,,,,,,,,,,,,,,,,,,,,,,,,,,,,,,,,,,,,,,,,,,,,,,,,,,,,,,,,,,,,,
,,,,,,,,,,,,a,0.799,Correct!,0,106,106,48,1,t5.png,t5.png,0,0.97829,21,female ,2020-09-04_23h13.54.988,torte-2b,2020.1.3,MacIntel,60,12727,,,,,,,,,,,,,,,,,,,,,,,,,,,,,,,,,,,,,,,,,,,,,,,,,,,,,,,,,,,,,,,,,
,,,,,,,,,,,,l,0.82,Incorrect,0,107,107,76,1,t3.png,t2.png,1,0.90855,21,female ,2020-09-04_23h13.54.988,torte-2b,2020.1.3,MacIntel,60,12727,,,,,,,,,,,,,,,,,,,,,,,,,,,,,,,,,,,,,,,,,,,,,,,,,,,,,,,,,,,,,,,,,
,,,,,,,,,,,,a,1.165,Correct!,0,108,108,63,1,t2.png,t3.png,1,0.909,21,female ,2020-09-04_23h13.54.988,torte-2b,2020.1.3,MacIntel,60,12727,,,,,,,,,,,,,,,,,,,,,,,,,,,,,,,,,,,,,,,,,,,,,,,,,,,,,,,,,,,,,,,,,
,,,,,,,,,,,,a,0.707,Incorrect,0,109,109,82,1,t5.png,t1.png,4,9.55E-11,21,female ,2020-09-04_23h13.54.988,torte-2b,2020.1.3,MacIntel,60,12727,,,,,,,,,,,,,,,,,,,,,,,,,,,,,,,,,,,,,,,,,,,,,,,,,,,,,,,,,,,,,,,,,
,,,,,,,,,,,,l,1.064,Correct!,0,110,110,72,1,t4.png,t2.png,2,0.059078,21,female ,2020-09-04_23h13.54.988,torte-2b,2020.1.3,MacIntel,60,12727,,,,,,,,,,,,,,,,,,,,,,,,,,,,,,,,,,,,,,,,,,,,,,,,,,,,,,,,,,,,,,,,,
,,,,,,,,,,,,a,0.367,Incorrect,0,111,111,111,1,t5.png,t1.png,4,9.55E-11,21,female ,2020-09-04_23h13.54.988,torte-2b,2020.1.3,MacIntel,60,12727,,,,,,,,,,,,,,,,,,,,,,,,,,,,,,,,,,,,,,,,,,,,,,,,,,,,,,,,,,,,,,,,,
,,,,,,,,,,,,l,0.9,Correct!,0,112,112,119,1,t1.png,t5.png,4,9.55E-11,21,female ,2020-09-04_23h13.54.988,torte-2b,2020.1.3,MacIntel,60,12727,,,,,,,,,,,,,,,,,,,,,,,,,,,,,,,,,,,,,,,,,,,,,,,,,,,,,,,,,,,,,,,,,
,,,,,,,,,,,,a,0.5,Incorrect,0,113,113,36,1,t3.png,t1.png,2,0.0565,21,female ,2020-09-04_23h13.54.988,torte-2b,2020.1.3,MacIntel,60,12727,,,,,,,,,,,,,,,,,,,,,,,,,,,,,,,,,,,,,,,,,,,,,,,,,,,,,,,,,,,,,,,,,
,,,,,,,,,,,,l,0.343,Incorrect,0,114,114,62,1,t5.png,t5.png,0,0.978,21,female ,2020-09-04_23h13.54.988,torte-2b,2020.1.3,MacIntel,60,12727,,,,,,,,,,,,,,,,,,,,,,,,,,,,,,,,,,,,,,,,,,,,,,,,,,,,,,,,,,,,,,,,,
,,,,,,,,,,,,a,0.456,Incorrect,0,115,115,61,1,t1.png,t4.png,3,0.0000131,21,female ,2020-09-04_23h13.54.988,torte-2b,2020.1.3,MacIntel,60,12727,,,,,,,,,,,,,,,,,,,,,,,,,,,,,,,,,,,,,,,,,,,,,,,,,,,,,,,,,,,,,,,,,
,,,,,,,,,,,,l,0.287,Correct!,0,116,116,65,1,t4.png,t5.png,1,0.90025,21,female ,2020-09-04_23h13.54.988,torte-2b,2020.1.3,MacIntel,60,12727,,,,,,,,,,,,,,,,,,,,,,,,,,,,,,,,,,,,,,,,,,,,,,,,,,,,,,,,,,,,,,,,,
,,,,,,,,,,,,a,0.417,Incorrect,0,117,117,53,1,t3.png,t1.png,2,0.056466,21,female ,2020-09-04_23h13.54.988,torte-2b,2020.1.3,MacIntel,60,12727,,,,,,,,,,,,,,,,,,,,,,,,,,,,,,,,,,,,,,,,,,,,,,,,,,,,,,,,,,,,,,,,,
,,,,,,,,,,,,l,0.481,Correct!,0,118,118,99,1,t1.png,t5.png,4,9.55E-11,21,female ,2020-09-04_23h13.54.988,torte-2b,2020.1.3,MacIntel,60,12727,,,,,,,,,,,,,,,,,,,,,,,,,,,,,,,,,,,,,,,,,,,,,,,,,,,,,,,,,,,,,,,,,
,,,,,,,,,,,,a,0.716,Incorrect,0,119,119,79,1,t3.png,t2.png,1,0.909,21,female ,2020-09-04_23h13.54.988,torte-2b,2020.1.3,MacIntel,60,12727,,,,,,,,,,,,,,,,,,,,,,,,,,,,,,,,,,,,,,,,,,,,,,,,,,,,,,,,,,,,,,,,,
,,,,,,,,,,,,a,0.649,Correct!,,,,,,t2.png,t2.png,0,0.98115,21,female ,2020-09-04_23h13.54.988,torte-2b,2020.1.3,MacIntel,60,12727,space,1.919,space,19.84,0,0,0,59,1,,,,,,,,,,,,,,,,,,,,,,,,,,,,,,,,,,,,,,,,,,,,,,,,,,,,,,,,
,,,,,,,,,,,,a,0.532,Correct!,,,,,,t3.png,t4.png,1,0.90855,21,female ,2020-09-04_23h13.54.988,torte-2b,2020.1.3,MacIntel,60,12727,,,,,0,1,1,96,1,,,,,,,,,,,,,,,,,,,,,,,,,,,,,,,,,,,,,,,,,,,,,,,,,,,,,,,,
,,,,,,,,,,,,l,0.359,Incorrect,,,,,,t2.png,t3.png,1,0.909,21,female ,2020-09-04_23h13.54.988,torte-2b,2020.1.3,MacIntel,60,12727,,,,,0,2,2,74,1,,,,,,,,,,,,,,,,,,,,,,,,,,,,,,,,,,,,,,,,,,,,,,,,,,,,,,,,
,,,,,,,,,,,,a,0.166,Incorrect,,,,,,t4.png,t2.png,2,0.0591,21,female ,2020-09-04_23h13.54.988,torte-2b,2020.1.3,MacIntel,60,12727,,,,,0,3,3,36,1,,,,,,,,,,,,,,,,,,,,,,,,,,,,,,,,,,,,,,,,,,,,,,,,,,,,,,,,
,,,,,,,,,,,,l,0.265,Correct!,,,,,,t5.png,t2.png,3,0.0000131,21,female ,2020-09-04_23h13.54.988,torte-2b,2020.1.3,MacIntel,60,12727,,,,,0,4,4,91,1,,,,,,,,,,,,,,,,,,,,,,,,,,,,,,,,,,,,,,,,,,,,,,,,,,,,,,,,
,,,,,,,,,,,,a,1.007,Incorrect,,,,,,t1.png,t4.png,3,0.0000131,21,female ,2020-09-04_23h13.54.988,torte-2b,2020.1.3,MacIntel,60,12727,,,,,0,5,5,81,1,,,,,,,,,,,,,,,,,,,,,,,,,,,,,,,,,,,,,,,,,,,,,,,,,,,,,,,,
,,,,,,,,,,,,l,0.673,Correct!,,,,,,t3.png,t5.png,2,0.056466,21,female ,2020-09-04_23h13.54.988,torte-2b,2020.1.3,MacIntel,60,12727,,,,,0,6,6,6,1,,,,,,,,,,,,,,,,,,,,,,,,,,,,,,,,,,,,,,,,,,,,,,,,,,,,,,,,
,,,,,,,,,,,,l,1.753,Correct!,,,,,,t3.png,t1.png,2,0.056466,21,female ,2020-09-04_23h13.54.988,torte-2b,2020.1.3,MacIntel,60,12727,,,,,0,7,7,29,1,,,,,,,,,,,,,,,,,,,,,,,,,,,,,,,,,,,,,,,,,,,,,,,,,,,,,,,,
,,,,,,,,,,,,a,0.605,Incorrect,,,,,,t1.png,t5.png,4,9.55E-11,21,female ,2020-09-04_23h13.54.988,torte-2b,2020.1.3,MacIntel,60,12727,,,,,0,8,8,41,1,,,,,,,,,,,,,,,,,,,,,,,,,,,,,,,,,,,,,,,,,,,,,,,,,,,,,,,,
,,,,,,,,,,,,l,0.489,Incorrect,,,,,,t2.png,t1.png,1,0.90025,21,female ,2020-09-04_23h13.54.988,torte-2b,2020.1.3,MacIntel,60,12727,,,,,0,9,9,4,1,,,,,,,,,,,,,,,,,,,,,,,,,,,,,,,,,,,,,,,,,,,,,,,,,,,,,,,,
,,,,,,,,,,,,a,0.599,Correct!,,,,,,t4.png,t3.png,1,0.90855,21,female ,2020-09-04_23h13.54.988,torte-2b,2020.1.3,MacIntel,60,12727,,,,,0,10,10,45,1,,,,,,,,,,,,,,,,,,,,,,,,,,,,,,,,,,,,,,,,,,,,,,,,,,,,,,,,
,,,,,,,,,,,,l,0.354,Correct!,,,,,,t4.png,t1.png,3,0.0000131,21,female ,2020-09-04_23h13.54.988,torte-2b,2020.1.3,MacIntel,60,12727,,,,,0,11,11,13,1,,,,,,,,,,,,,,,,,,,,,,,,,,,,,,,,,,,,,,,,,,,,,,,,,,,,,,,,
,,,,,,,,,,,,a,0.215,Correct!,,,,,,t2.png,t2.png,0,0.981,21,female ,2020-09-04_23h13.54.988,torte-2b,2020.1.3,MacIntel,60,12727,,,,,0,12,12,101,1,,,,,,,,,,,,,,,,,,,,,,,,,,,,,,,,,,,,,,,,,,,,,,,,,,,,,,,,
,,,,,,,,,,,,l,0.372,Incorrect,,,,,,t1.png,t2.png,1,0.90025,21,female ,2020-09-04_23h13.54.988,torte-2b,2020.1.3,MacIntel,60,12727,,,,,0,13,13,105,1,,,,,,,,,,,,,,,,,,,,,,,,,,,,,,,,,,,,,,,,,,,,,,,,,,,,,,,,
,,,,,,,,,,,,a,0.3,Correct!,,,,,,t3.png,t2.png,1,0.909,21,female ,2020-09-04_23h13.54.988,torte-2b,2020.1.3,MacIntel,60,12727,,,,,0,14,14,3,1,,,,,,,,,,,,,,,,,,,,,,,,,,,,,,,,,,,,,,,,,,,,,,,,,,,,,,,,
,,,,,,,,,,,,a,0.232,Correct!,,,,,,t4.png,t4.png,0,0.98115,21,female ,2020-09-04_23h13.54.988,torte-2b,2020.1.3,MacIntel,60,12727,,,,,0,15,15,90,1,,,,,,,,,,,,,,,,,,,,,,,,,,,,,,,,,,,,,,,,,,,,,,,,,,,,,,,,
,,,,,,,,,,,,l,0.371,Correct!,,,,,,t5.png,t2.png,3,0.0000131,21,female ,2020-09-04_23h13.54.988,torte-2b,2020.1.3,MacIntel,60,12727,,,,,0,16,16,51,1,,,,,,,,,,,,,,,,,,,,,,,,,,,,,,,,,,,,,,,,,,,,,,,,,,,,,,,,
,,,,,,,,,,,,a,0.274,Incorrect,,,,,,t4.png,t1.png,3,0.0000131,21,female ,2020-09-04_23h13.54.988,torte-2b,2020.1.3,MacIntel,60,12727,,,,,0,17,17,61,1,,,,,,,,,,,,,,,,,,,,,,,,,,,,,,,,,,,,,,,,,,,,,,,,,,,,,,,,
,,,,,,,,,,,,l,0.518,Correct!,,,,,,t2.png,t4.png,2,0.059078,21,female ,2020-09-04_23h13.54.988,torte-2b,2020.1.3,MacIntel,60,12727,,,,,0,18,18,24,1,,,,,,,,,,,,,,,,,,,,,,,,,,,,,,,,,,,,,,,,,,,,,,,,,,,,,,,,
,,,,,,,,,,,,l,0.693,Correct!,,,,,,t5.png,t3.png,2,0.056466,21,female ,2020-09-04_23h13.54.988,torte-2b,2020.1.3,MacIntel,60,12727,,,,,0,19,19,108,1,,,,,,,,,,,,,,,,,,,,,,,,,,,,,,,,,,,,,,,,,,,,,,,,,,,,,,,,
,,,,,,,,,,,,a,0.323,Incorrect,,,,,,t1.png,t5.png,4,9.55E-11,21,female ,2020-09-04_23h13.54.988,torte-2b,2020.1.3,MacIntel,60,12727,,,,,0,20,20,16,1,,,,,,,,,,,,,,,,,,,,,,,,,,,,,,,,,,,,,,,,,,,,,,,,,,,,,,,,
,,,,,,,,,,,,a,0.389,Correct!,,,,,,t3.png,t2.png,1,0.90855,21,female ,2020-09-04_23h13.54.988,torte-2b,2020.1.3,MacIntel,60,12727,,,,,0,21,21,97,1,,,,,,,,,,,,,,,,,,,,,,,,,,,,,,,,,,,,,,,,,,,,,,,,,,,,,,,,
,,,,,,,,,,,,l,0.332,Correct!,,,,,,t5.png,t1.png,4,9.55E-11,21,female ,2020-09-04_23h13.54.988,torte-2b,2020.1.3,MacIntel,60,12727,,,,,0,22,22,100,1,,,,,,,,,,,,,,,,,,,,,,,,,,,,,,,,,,,,,,,,,,,,,,,,,,,,,,,,
,,,,,,,,,,,,a,0.453,Incorrect,,,,,,t2.png,t4.png,2,0.059078,21,female ,2020-09-04_23h13.54.988,torte-2b,2020.1.3,MacIntel,60,12727,,,,,0,23,23,37,1,,,,,,,,,,,,,,,,,,,,,,,,,,,,,,,,,,,,,,,,,,,,,,,,,,,,,,,,
,,,,,,,,,,,,l,0.441,Incorrect,,,,,,t2.png,t3.png,1,0.90855,21,female ,2020-09-04_23h13.54.988,torte-2b,2020.1.3,MacIntel,60,12727,,,,,0,24,24,111,1,,,,,,,,,,,,,,,,,,,,,,,,,,,,,,,,,,,,,,,,,,,,,,,,,,,,,,,,
,,,,,,,,,,,,a,0.383,Incorrect,,,,,,t2.png,t4.png,2,0.059078,21,female ,2020-09-04_23h13.54.988,torte-2b,2020.1.3,MacIntel,60,12727,,,,,0,25,25,77,1,,,,,,,,,,,,,,,,,,,,,,,,,,,,,,,,,,,,,,,,,,,,,,,,,,,,,,,,
,,,,,,,,,,,,a,0.398,Incorrect,,,,,,t1.png,t3.png,2,0.056466,21,female ,2020-09-04_23h13.54.988,torte-2b,2020.1.3,MacIntel,60,12727,,,,,0,26,26,99,1,,,,,,,,,,,,,,,,,,,,,,,,,,,,,,,,,,,,,,,,,,,,,,,,,,,,,,,,
,,,,,,,,,,,,a,0.447,Incorrect,,,,,,t5.png,t3.png,2,0.056466,21,female ,2020-09-04_23h13.54.988,torte-2b,2020.1.3,MacIntel,60,12727,,,,,0,27,27,114,1,,,,,,,,,,,,,,,,,,,,,,,,,,,,,,,,,,,,,,,,,,,,,,,,,,,,,,,,
,,,,,,,,,,,,l,0.071,Incorrect,,,,,,t4.png,t4.png,0,0.98115,21,female ,2020-09-04_23h13.54.988,torte-2b,2020.1.3,MacIntel,60,12727,,,,,0,28,28,79,1,,,,,,,,,,,,,,,,,,,,,,,,,,,,,,,,,,,,,,,,,,,,,,,,,,,,,,,,
,,,,,,,,,,,,a,0.459,Correct!,,,,,,t2.png,t2.png,0,0.98115,21,female ,2020-09-04_23h13.54.988,torte-2b,2020.1.3,MacIntel,60,12727,,,,,0,29,29,57,1,,,,,,,,,,,,,,,,,,,,,,,,,,,,,,,,,,,,,,,,,,,,,,,,,,,,,,,,
,,,,,,,,,,,,l,0.704,Correct!,,,,,,t4.png,t2.png,2,0.059078,21,female ,2020-09-04_23h13.54.988,torte-2b,2020.1.3,MacIntel,60,12727,,,,,0,30,30,86,1,,,,,,,,,,,,,,,,,,,,,,,,,,,,,,,,,,,,,,,,,,,,,,,,,,,,,,,,
,,,,,,,,,,,,a,0.525,Correct!,,,,,,t5.png,t5.png,0,0.97829,21,female ,2020-09-04_23h13.54.988,torte-2b,2020.1.3,MacIntel,60,12727,,,,,0,31,31,94,1,,,,,,,,,,,,,,,,,,,,,,,,,,,,,,,,,,,,,,,,,,,,,,,,,,,,,,,,
,,,,,,,,,,,,a,0.625,Correct!,,,,,,t3.png,t4.png,1,0.90855,21,female ,2020-09-04_23h13.54.988,torte-2b,2020.1.3,MacIntel,60,12727,,,,,0,32,32,84,1,,,,,,,,,,,,,,,,,,,,,,,,,,,,,,,,,,,,,,,,,,,,,,,,,,,,,,,,
,,,,,,,,,,,,a,0.583,Incorrect,,,,,,t4.png,t3.png,1,0.909,21,female ,2020-09-04_23h13.54.988,torte-2b,2020.1.3,MacIntel,60,12727,,,,,0,33,33,46,1,,,,,,,,,,,,,,,,,,,,,,,,,,,,,,,,,,,,,,,,,,,,,,,,,,,,,,,,
,,,,,,,,,,,,l,0.683,Incorrect,,,,,,t4.png,t3.png,1,0.90855,21,female ,2020-09-04_23h13.54.988,torte-2b,2020.1.3,MacIntel,60,12727,,,,,0,34,34,35,1,,,,,,,,,,,,,,,,,,,,,,,,,,,,,,,,,,,,,,,,,,,,,,,,,,,,,,,,
,,,,,,,,,,,,l,0.858,Correct!,,,,,,t3.png,t1.png,2,0.056466,21,female ,2020-09-04_23h13.54.988,torte-2b,2020.1.3,MacIntel,60,12727,,,,,0,35,35,0,1,,,,,,,,,,,,,,,,,,,,,,,,,,,,,,,,,,,,,,,,,,,,,,,,,,,,,,,,
,,,,,,,,,,,,a,0.491,Correct!,,,,,,t2.png,t1.png,1,0.90025,21,female ,2020-09-04_23h13.54.988,torte-2b,2020.1.3,MacIntel,60,12727,,,,,0,36,36,5,1,,,,,,,,,,,,,,,,,,,,,,,,,,,,,,,,,,,,,,,,,,,,,,,,,,,,,,,,
,,,,,,,,,,,,l,0.317,Incorrect,,,,,,t2.png,t2.png,0,0.98115,21,female ,2020-09-04_23h13.54.988,torte-2b,2020.1.3,MacIntel,60,12727,,,,,0,37,37,2,1,,,,,,,,,,,,,,,,,,,,,,,,,,,,,,,,,,,,,,,,,,,,,,,,,,,,,,,,
,,,,,,,,,,,,a,0.565,Correct!,,,,,,t4.png,t5.png,1,0.90025,21,female ,2020-09-04_23h13.54.988,torte-2b,2020.1.3,MacIntel,60,12727,,,,,0,38,38,58,1,,,,,,,,,,,,,,,,,,,,,,,,,,,,,,,,,,,,,,,,,,,,,,,,,,,,,,,,
,,,,,,,,,,,,l,0.401,Incorrect,,,,,,t3.png,t4.png,1,0.909,21,female ,2020-09-04_23h13.54.988,torte-2b,2020.1.3,MacIntel,60,12727,,,,,0,39,39,82,1,,,,,,,,,,,,,,,,,,,,,,,,,,,,,,,,,,,,,,,,,,,,,,,,,,,,,,,,
,,,,,,,,,,,,a,0.917,Correct!,,,,,,t1.png,t1.png,0,0.978,21,female ,2020-09-04_23h13.54.988,torte-2b,2020.1.3,MacIntel,60,12727,,,,,0,40,40,28,1,,,,,,,,,,,,,,,,,,,,,,,,,,,,,,,,,,,,,,,,,,,,,,,,,,,,,,,,
,,,,,,,,,,,,l,1.216,Incorrect,,,,,,t3.png,t2.png,1,0.909,21,female ,2020-09-04_23h13.54.988,torte-2b,2020.1.3,MacIntel,60,12727,,,,,0,41,41,23,1,,,,,,,,,,,,,,,,,,,,,,,,,,,,,,,,,,,,,,,,,,,,,,,,,,,,,,,,
,,,,,,,,,,,,a,0.949,Incorrect,,,,,,t5.png,t3.png,2,0.056466,21,female ,2020-09-04_23h13.54.988,torte-2b,2020.1.3,MacIntel,60,12727,,,,,0,42,42,38,1,,,,,,,,,,,,,,,,,,,,,,,,,,,,,,,,,,,,,,,,,,,,,,,,,,,,,,,,
,,,,,,,,,,,,a,0.491,Incorrect,,,,,,t4.png,t3.png,1,0.90855,21,female ,2020-09-04_23h13.54.988,torte-2b,2020.1.3,MacIntel,60,12727,,,,,0,43,43,75,1,,,,,,,,,,,,,,,,,,,,,,,,,,,,,,,,,,,,,,,,,,,,,,,,,,,,,,,,
,,,,,,,,,,,,a,0.465,Incorrect,,,,,,t4.png,t2.png,2,0.059078,21,female ,2020-09-04_23h13.54.988,torte-2b,2020.1.3,MacIntel,60,12727,,,,,0,44,44,110,1,,,,,,,,,,,,,,,,,,,,,,,,,,,,,,,,,,,,,,,,,,,,,,,,,,,,,,,,
,,,,,,,,,,,,a,0.949,Incorrect,,,,,,t2.png,t5.png,3,0.0000131,21,female ,2020-09-04_23h13.54.988,torte-2b,2020.1.3,MacIntel,60,12727,,,,,0,45,45,104,1,,,,,,,,,,,,,,,,,,,,,,,,,,,,,,,,,,,,,,,,,,,,,,,,,,,,,,,,
,,,,,,,,,,,,l,0.432,Correct!,,,,,,t1.png,t5.png,4,9.55E-11,21,female ,2020-09-04_23h13.54.988,torte-2b,2020.1.3,MacIntel,60,12727,,,,,0,46,46,55,1,,,,,,,,,,,,,,,,,,,,,,,,,,,,,,,,,,,,,,,,,,,,,,,,,,,,,,,,
,,,,,,,,,,,,a,0.225,Incorrect,,,,,,t3.png,t1.png,2,0.056466,21,female ,2020-09-04_23h13.54.988,torte-2b,2020.1.3,MacIntel,60,12727,,,,,0,47,47,32,1,,,,,,,,,,,,,,,,,,,,,,,,,,,,,,,,,,,,,,,,,,,,,,,,,,,,,,,,
,,,,,,,,,,,,a,0.483,Correct!,,,,,,t5.png,t4.png,1,0.90025,21,female ,2020-09-04_23h13.54.988,torte-2b,2020.1.3,MacIntel,60,12727,,,,,0,48,48,26,1,,,,,,,,,,,,,,,,,,,,,,,,,,,,,,,,,,,,,,,,,,,,,,,,,,,,,,,,
,,,,,,,,,,,,,,Too slow :(,,,,,,t1.png,t5.png,4,9.55E-11,21,female ,2020-09-04_23h13.54.988,torte-2b,2020.1.3,MacIntel,60,12727,,,,,0,49,49,85,1,,,,,,,,,,,,,,,,,,,,,,,,,,,,,,,,,,,,,,,,,,,,,,,,,,,,,,,,
,,,,,,,,,,,,l,0.421,Correct!,,,,,,t5.png,t2.png,3,0.0000131,21,female ,2020-09-04_23h13.54.988,torte-2b,2020.1.3,MacIntel,60,12727,,,,,0,50,50,98,1,,,,,,,,,,,,,,,,,,,,,,,,,,,,,,,,,,,,,,,,,,,,,,,,,,,,,,,,
,,,,,,,,,,,,a,0.55,Correct!,,,,,,t3.png,t2.png,1,0.90855,21,female ,2020-09-04_23h13.54.988,torte-2b,2020.1.3,MacIntel,60,12727,,,,,0,51,51,53,1,,,,,,,,,,,,,,,,,,,,,,,,,,,,,,,,,,,,,,,,,,,,,,,,,,,,,,,,
,,,,,,,,,,,,a,1.9,Incorrect,,,,,,t4.png,t1.png,3,0.0000131,21,female ,2020-09-04_23h13.54.988,torte-2b,2020.1.3,MacIntel,60,12727,,,,,0,52,52,93,1,,,,,,,,,,,,,,,,,,,,,,,,,,,,,,,,,,,,,,,,,,,,,,,,,,,,,,,,
,,,,,,,,,,,,,,Too slow :(,,,,,,t5.png,t5.png,0,0.97829,21,female ,2020-09-04_23h13.54.988,torte-2b,2020.1.3,MacIntel,60,12727,,,,,0,53,53,73,1,,,,,,,,,,,,,,,,,,,,,,,,,,,,,,,,,,,,,,,,,,,,,,,,,,,,,,,,
,,,,,,,,,,,,,,Too slow :(,,,,,,t2.png,t1.png,1,0.90025,21,female ,2020-09-04_23h13.54.988,torte-2b,2020.1.3,MacIntel,60,12727,,,,,0,54,54,62,1,,,,,,,,,,,,,,,,,,,,,,,,,,,,,,,,,,,,,,,,,,,,,,,,,,,,,,,,
,,,,,,,,,,,,l,0.29,Incorrect,,,,,,t2.png,t2.png,0,0.98115,21,female ,2020-09-04_23h13.54.988,torte-2b,2020.1.3,MacIntel,60,12727,,,,,0,55,55,7,1,,,,,,,,,,,,,,,,,,,,,,,,,,,,,,,,,,,,,,,,,,,,,,,,,,,,,,,,
,,,,,,,,,,,,a,1.441,Incorrect,,,,,,t1.png,t3.png,2,0.056466,21,female ,2020-09-04_23h13.54.988,torte-2b,2020.1.3,MacIntel,60,12727,,,,,0,56,56,60,1,,,,,,,,,,,,,,,,,,,,,,,,,,,,,,,,,,,,,,,,,,,,,,,,,,,,,,,,
,,,,,,,,,,,,a,0.691,Correct!,,,,,,t5.png,t4.png,1,0.9,21,female ,2020-09-04_23h13.54.988,torte-2b,2020.1.3,MacIntel,60,12727,,,,,0,57,57,76,1,,,,,,,,,,,,,,,,,,,,,,,,,,,,,,,,,,,,,,,,,,,,,,,,,,,,,,,,
,,,,,,,,,,,,a,1.032,Correct!,,,,,,t2.png,t1.png,1,0.90025,21,female ,2020-09-04_23h13.54.988,torte-2b,2020.1.3,MacIntel,60,12727,,,,,0,58,58,19,1,,,,,,,,,,,,,,,,,,,,,,,,,,,,,,,,,,,,,,,,,,,,,,,,,,,,,,,,
,,,,,,,,,,,,l,0.582,Incorrect,,,,,,t1.png,t2.png,1,0.90025,21,female ,2020-09-04_23h13.54.988,torte-2b,2020.1.3,MacIntel,60,12727,,,,,0,59,59,72,1,,,,,,,,,,,,,,,,,,,,,,,,,,,,,,,,,,,,,,,,,,,,,,,,,,,,,,,,
,,,,,,,,,,,,a,0.817,Correct!,,,,,,t3.png,t2.png,1,0.90855,21,female ,2020-09-04_23h13.54.988,torte-2b,2020.1.3,MacIntel,60,12727,,,,,0,60,60,18,1,,,,,,,,,,,,,,,,,,,,,,,,,,,,,,,,,,,,,,,,,,,,,,,,,,,,,,,,
,,,,,,,,,,,,a,0.899,Correct!,,,,,,t4.png,t5.png,1,0.90025,21,female ,2020-09-04_23h13.54.988,torte-2b,2020.1.3,MacIntel,60,12727,,,,,0,61,61,47,1,,,,,,,,,,,,,,,,,,,,,,,,,,,,,,,,,,,,,,,,,,,,,,,,,,,,,,,,
,,,,,,,,,,,,l,0.449,Correct!,,,,,,t5.png,t3.png,2,0.056466,21,female ,2020-09-04_23h13.54.988,torte-2b,2020.1.3,MacIntel,60,12727,,,,,0,62,62,56,1,,,,,,,,,,,,,,,,,,,,,,,,,,,,,,,,,,,,,,,,,,,,,,,,,,,,,,,,
,,,,,,,,,,,,a,0.651,Correct!,,,,,,t4.png,t4.png,0,0.98115,21,female ,2020-09-04_23h13.54.988,torte-2b,2020.1.3,MacIntel,60,12727,,,,,0,63,63,21,1,,,,,,,,,,,,,,,,,,,,,,,,,,,,,,,,,,,,,,,,,,,,,,,,,,,,,,,,
,,,,,,,,,,,,a,0.417,Correct!,,,,,,t1.png,t2.png,1,0.90025,21,female ,2020-09-04_23h13.54.988,torte-2b,2020.1.3,MacIntel,60,12727,,,,,0,64,64,112,1,,,,,,,,,,,,,,,,,,,,,,,,,,,,,,,,,,,,,,,,,,,,,,,,,,,,,,,,
,,,,,,,,,,,,l,0.306,Incorrect,,,,,,t5.png,t4.png,1,0.90025,21,female ,2020-09-04_23h13.54.988,torte-2b,2020.1.3,MacIntel,60,12727,,,,,0,65,65,34,1,,,,,,,,,,,,,,,,,,,,,,,,,,,,,,,,,,,,,,,,,,,,,,,,,,,,,,,,
,,,,,,,,,,,,a,0.458,Incorrect,,,,,,t3.png,t5.png,2,0.056466,21,female ,2020-09-04_23h13.54.988,torte-2b,2020.1.3,MacIntel,60,12727,,,,,0,66,66,44,1,,,,,,,,,,,,,,,,,,,,,,,,,,,,,,,,,,,,,,,,,,,,,,,,,,,,,,,,
,,,,,,,,,,,,l,0.423,Correct!,,,,,,t1.png,t4.png,3,0.0000131,21,female ,2020-09-04_23h13.54.988,torte-2b,2020.1.3,MacIntel,60,12727,,,,,0,67,67,92,1,,,,,,,,,,,,,,,,,,,,,,,,,,,,,,,,,,,,,,,,,,,,,,,,,,,,,,,,
,,,,,,,,,,,,a,0.799,Incorrect,,,,,,t3.png,t5.png,2,0.0565,21,female ,2020-09-04_23h13.54.988,torte-2b,2020.1.3,MacIntel,60,12727,,,,,0,68,68,83,1,,,,,,,,,,,,,,,,,,,,,,,,,,,,,,,,,,,,,,,,,,,,,,,,,,,,,,,,
,,,,,,,,,,,,l,0.19,Correct!,,,,,,t4.png,t2.png,2,0.059078,21,female ,2020-09-04_23h13.54.988,torte-2b,2020.1.3,MacIntel,60,12727,,,,,0,69,69,109,1,,,,,,,,,,,,,,,,,,,,,,,,,,,,,,,,,,,,,,,,,,,,,,,,,,,,,,,,
,,,,,,,,,,,,a,0.373,Correct!,,,,,,t1.png,t1.png,0,0.978,21,female ,2020-09-04_23h13.54.988,torte-2b,2020.1.3,MacIntel,60,12727,,,,,0,70,70,54,1,,,,,,,,,,,,,,,,,,,,,,,,,,,,,,,,,,,,,,,,,,,,,,,,,,,,,,,,
,,,,,,,,,,,,l,0.422,Incorrect,,,,,,t5.png,t4.png,1,0.9,21,female ,2020-09-04_23h13.54.988,torte-2b,2020.1.3,MacIntel,60,12727,,,,,0,71,71,49,1,,,,,,,,,,,,,,,,,,,,,,,,,,,,,,,,,,,,,,,,,,,,,,,,,,,,,,,,
,,,,,,,,,,,,a,0.291,Incorrect,,,,,,t5.png,t1.png,4,9.55E-11,21,female ,2020-09-04_23h13.54.988,torte-2b,2020.1.3,MacIntel,60,12727,,,,,0,72,72,43,1,,,,,,,,,,,,,,,,,,,,,,,,,,,,,,,,,,,,,,,,,,,,,,,,,,,,,,,,
,,,,,,,,,,,,l,0.215,Correct!,,,,,,t1.png,t3.png,2,0.056466,21,female ,2020-09-04_23h13.54.988,torte-2b,2020.1.3,MacIntel,60,12727,,,,,0,73,73,87,1,,,,,,,,,,,,,,,,,,,,,,,,,,,,,,,,,,,,,,,,,,,,,,,,,,,,,,,,
,,,,,,,,,,,,a,0.115,Correct!,,,,,,t1.png,t2.png,1,0.90025,21,female ,2020-09-04_23h13.54.988,torte-2b,2020.1.3,MacIntel,60,12727,,,,,0,74,74,33,1,,,,,,,,,,,,,,,,,,,,,,,,,,,,,,,,,,,,,,,,,,,,,,,,,,,,,,,,
,,,,,,,,,,,,a,0.275,Incorrect,,,,,,t1.png,t4.png,3,0.0000131,21,female ,2020-09-04_23h13.54.988,torte-2b,2020.1.3,MacIntel,60,12727,,,,,0,75,75,50,1,,,,,,,,,,,,,,,,,,,,,,,,,,,,,,,,,,,,,,,,,,,,,,,,,,,,,,,,
,,,,,,,,,,,,l,0.32,Incorrect,,,,,,t4.png,t5.png,1,0.90025,21,female ,2020-09-04_23h13.54.988,torte-2b,2020.1.3,MacIntel,60,12727,,,,,0,76,76,113,1,,,,,,,,,,,,,,,,,,,,,,,,,,,,,,,,,,,,,,,,,,,,,,,,,,,,,,,,
,,,,,,,,,,,,a,0.466,Incorrect,,,,,,t1.png,t5.png,4,9.55E-11,21,female ,2020-09-04_23h13.54.988,torte-2b,2020.1.3,MacIntel,60,12727,,,,,0,77,77,12,1,,,,,,,,,,,,,,,,,,,,,,,,,,,,,,,,,,,,,,,,,,,,,,,,,,,,,,,,
,,,,,,,,,,,,l,0.386,Incorrect,,,,,,t5.png,t5.png,0,0.97829,21,female ,2020-09-04_23h13.54.988,torte-2b,2020.1.3,MacIntel,60,12727,,,,,0,78,78,25,1,,,,,,,,,,,,,,,,,,,,,,,,,,,,,,,,,,,,,,,,,,,,,,,,,,,,,,,,
,,,,,,,,,,,,a,0.516,Correct!,,,,,,t2.png,t3.png,1,0.90855,21,female ,2020-09-04_23h13.54.988,torte-2b,2020.1.3,MacIntel,60,12727,,,,,0,79,79,65,1,,,,,,,,,,,,,,,,,,,,,,,,,,,,,,,,,,,,,,,,,,,,,,,,,,,,,,,,
,,,,,,,,,,,,a,1.432,Incorrect,,,,,,t2.png,t5.png,3,0.0000131,21,female ,2020-09-04_23h13.54.988,torte-2b,2020.1.3,MacIntel,60,12727,,,,,0,80,80,66,1,,,,,,,,,,,,,,,,,,,,,,,,,,,,,,,,,,,,,,,,,,,,,,,,,,,,,,,,
,,,,,,,,,,,,l,0.521,Incorrect,,,,,,t4.png,t5.png,1,0.9,21,female ,2020-09-04_23h13.54.988,torte-2b,2020.1.3,MacIntel,60,12727,,,,,0,81,81,115,1,,,,,,,,,,,,,,,,,,,,,,,,,,,,,,,,,,,,,,,,,,,,,,,,,,,,,,,,
,,,,,,,,,,,,a,0.425,Incorrect,,,,,,t3.png,t5.png,2,0.0565,21,female ,2020-09-04_23h13.54.988,torte-2b,2020.1.3,MacIntel,60,12727,,,,,0,82,82,30,1,,,,,,,,,,,,,,,,,,,,,,,,,,,,,,,,,,,,,,,,,,,,,,,,,,,,,,,,
,,,,,,,,,,,,l,0.305,Correct!,,,,,,t4.png,t1.png,3,0.0000131,21,female ,2020-09-04_23h13.54.988,torte-2b,2020.1.3,MacIntel,60,12727,,,,,0,83,83,48,1,,,,,,,,,,,,,,,,,,,,,,,,,,,,,,,,,,,,,,,,,,,,,,,,,,,,,,,,
,,,,,,,,,,,,a,0.455,Correct!,,,,,,t5.png,t4.png,1,0.90025,21,female ,2020-09-04_23h13.54.988,torte-2b,2020.1.3,MacIntel,60,12727,,,,,0,84,84,27,1,,,,,,,,,,,,,,,,,,,,,,,,,,,,,,,,,,,,,,,,,,,,,,,,,,,,,,,,
,,,,,,,,,,,,l,0.407,Correct!,,,,,,t2.png,t5.png,3,0.0000131,21,female ,2020-09-04_23h13.54.988,torte-2b,2020.1.3,MacIntel,60,12727,,,,,0,85,85,40,1,,,,,,,,,,,,,,,,,,,,,,,,,,,,,,,,,,,,,,,,,,,,,,,,,,,,,,,,
,,,,,,,,,,,,a,0.688,Incorrect,,,,,,t3.png,t1.png,2,0.056466,21,female ,2020-09-04_23h13.54.988,torte-2b,2020.1.3,MacIntel,60,12727,,,,,0,86,86,64,1,,,,,,,,,,,,,,,,,,,,,,,,,,,,,,,,,,,,,,,,,,,,,,,,,,,,,,,,
,,,,,,,,,,,,a,0.499,Incorrect,,,,,,t5.png,t1.png,4,9.55E-11,21,female ,2020-09-04_23h13.54.988,torte-2b,2020.1.3,MacIntel,60,12727,,,,,0,87,87,22,1,,,,,,,,,,,,,,,,,,,,,,,,,,,,,,,,,,,,,,,,,,,,,,,,,,,,,,,,
,,,,,,,,,,,,l,0.538,Correct!,,,,,,t5.png,t2.png,3,0.0000131,21,female ,2020-09-04_23h13.54.988,torte-2b,2020.1.3,MacIntel,60,12727,,,,,0,88,88,116,1,,,,,,,,,,,,,,,,,,,,,,,,,,,,,,,,,,,,,,,,,,,,,,,,,,,,,,,,
,,,,,,,,,,,,l,0.632,Incorrect,,,,,,t2.png,t3.png,1,0.90855,21,female ,2020-09-04_23h13.54.988,torte-2b,2020.1.3,MacIntel,60,12727,,,,,0,89,89,10,1,,,,,,,,,,,,,,,,,,,,,,,,,,,,,,,,,,,,,,,,,,,,,,,,,,,,,,,,
,,,,,,,,,,,,a,0.466,Incorrect,,,,,,t1.png,t3.png,2,0.056466,21,female ,2020-09-04_23h13.54.988,torte-2b,2020.1.3,MacIntel,60,12727,,,,,0,90,90,63,1,,,,,,,,,,,,,,,,,,,,,,,,,,,,,,,,,,,,,,,,,,,,,,,,,,,,,,,,
,,,,,,,,,,,,l,0.554,Incorrect,,,,,,t3.png,t4.png,1,0.909,21,female ,2020-09-04_23h13.54.988,torte-2b,2020.1.3,MacIntel,60,12727,,,,,0,91,91,106,1,,,,,,,,,,,,,,,,,,,,,,,,,,,,,,,,,,,,,,,,,,,,,,,,,,,,,,,,
,,,,,,,,,,,,l,0.466,Correct!,,,,,,t2.png,t4.png,2,0.059078,21,female ,2020-09-04_23h13.54.988,torte-2b,2020.1.3,MacIntel,60,12727,,,,,0,92,92,11,1,,,,,,,,,,,,,,,,,,,,,,,,,,,,,,,,,,,,,,,,,,,,,,,,,,,,,,,,
,,,,,,,,,,,,l,0.706,Correct!,,,,,,t4.png,t1.png,3,0.0000131,21,female ,2020-09-04_23h13.54.988,torte-2b,2020.1.3,MacIntel,60,12727,,,,,0,93,93,42,1,,,,,,,,,,,,,,,,,,,,,,,,,,,,,,,,,,,,,,,,,,,,,,,,,,,,,,,,
,,,,,,,,,,,,a,0.883,Correct!,,,,,,t1.png,t1.png,0,0.97829,21,female ,2020-09-04_23h13.54.988,torte-2b,2020.1.3,MacIntel,60,12727,,,,,0,94,94,78,1,,,,,,,,,,,,,,,,,,,,,,,,,,,,,,,,,,,,,,,,,,,,,,,,,,,,,,,,
,,,,,,,,,,,,a,0.649,Incorrect,,,,,,t5.png,t1.png,4,9.55E-11,21,female ,2020-09-04_23h13.54.988,torte-2b,2020.1.3,MacIntel,60,12727,,,,,0,95,95,102,1,,,,,,,,,,,,,,,,,,,,,,,,,,,,,,,,,,,,,,,,,,,,,,,,,,,,,,,,
,,,,,,,,,,,,l,0.4,Correct!,,,,,,t1.png,t3.png,2,0.056466,21,female ,2020-09-04_23h13.54.988,torte-2b,2020.1.3,MacIntel,60,12727,,,,,0,96,96,69,1,,,,,,,,,,,,,,,,,,,,,,,,,,,,,,,,,,,,,,,,,,,,,,,,,,,,,,,,
,,,,,,,,,,,,a,0.398,Incorrect,,,,,,t5.png,t2.png,3,0.0000131,21,female ,2020-09-04_23h13.54.988,torte-2b,2020.1.3,MacIntel,60,12727,,,,,0,97,97,119,1,,,,,,,,,,,,,,,,,,,,,,,,,,,,,,,,,,,,,,,,,,,,,,,,,,,,,,,,
,,,,,,,,,,,,l,0.499,Incorrect,,,,,,t4.png,t3.png,1,0.909,21,female ,2020-09-04_23h13.54.988,torte-2b,2020.1.3,MacIntel,60,12727,,,,,0,98,98,20,1,,,,,,,,,,,,,,,,,,,,,,,,,,,,,,,,,,,,,,,,,,,,,,,,,,,,,,,,
,,,,,,,,,,,,l,0.468,Correct!,,,,,,t5.png,t3.png,2,0.0565,21,female ,2020-09-04_23h13.54.988,torte-2b,2020.1.3,MacIntel,60,12727,,,,,0,99,99,39,1,,,,,,,,,,,,,,,,,,,,,,,,,,,,,,,,,,,,,,,,,,,,,,,,,,,,,,,,
,,,,,,,,,,,,l,0.322,Incorrect,,,,,,t1.png,t1.png,0,0.97829,21,female ,2020-09-04_23h13.54.988,torte-2b,2020.1.3,MacIntel,60,12727,,,,,0,100,100,9,1,,,,,,,,,,,,,,,,,,,,,,,,,,,,,,,,,,,,,,,,,,,,,,,,,,,,,,,,
,,,,,,,,,,,,a,0.29,Incorrect,,,,,,t5.png,t1.png,4,9.55E-11,21,female ,2020-09-04_23h13.54.988,torte-2b,2020.1.3,MacIntel,60,12727,,,,,0,101,101,71,1,,,,,,,,,,,,,,,,,,,,,,,,,,,,,,,,,,,,,,,,,,,,,,,,,,,,,,,,
,,,,,,,,,,,,l,0.333,Correct!,,,,,,t4.png,t2.png,2,0.059078,21,female ,2020-09-04_23h13.54.988,torte-2b,2020.1.3,MacIntel,60,12727,,,,,0,102,102,88,1,,,,,,,,,,,,,,,,,,,,,,,,,,,,,,,,,,,,,,,,,,,,,,,,,,,,,,,,
,,,,,,,,,,,,a,0.399,Correct!,,,,,,t4.png,t4.png,0,0.98115,21,female ,2020-09-04_23h13.54.988,torte-2b,2020.1.3,MacIntel,60,12727,,,,,0,103,103,80,1,,,,,,,,,,,,,,,,,,,,,,,,,,,,,,,,,,,,,,,,,,,,,,,,,,,,,,,,
,,,,,,,,,,,,l,0.367,Incorrect,,,,,,t1.png,t1.png,0,0.97829,21,female ,2020-09-04_23h13.54.988,torte-2b,2020.1.3,MacIntel,60,12727,,,,,0,104,104,67,1,,,,,,,,,,,,,,,,,,,,,,,,,,,,,,,,,,,,,,,,,,,,,,,,,,,,,,,,
,,,,,,,,,,,,a,1.066,Incorrect,,,,,,t2.png,t5.png,3,0.0000131,21,female ,2020-09-04_23h13.54.988,torte-2b,2020.1.3,MacIntel,60,12727,,,,,0,105,105,8,1,,,,,,,,,,,,,,,,,,,,,,,,,,,,,,,,,,,,,,,,,,,,,,,,,,,,,,,,
,,,,,,,,,,,,a,0.599,Correct!,,,,,,t3.png,t4.png,1,0.909,21,female ,2020-09-04_23h13.54.988,torte-2b,2020.1.3,MacIntel,60,12727,,,,,0,106,106,89,1,,,,,,,,,,,,,,,,,,,,,,,,,,,,,,,,,,,,,,,,,,,,,,,,,,,,,,,,
,,,,,,,,,,,,a,0.515,Correct!,,,,,,t2.png,t3.png,1,0.90855,21,female ,2020-09-04_23h13.54.988,torte-2b,2020.1.3,MacIntel,60,12727,,,,,0,107,107,68,1,,,,,,,,,,,,,,,,,,,,,,,,,,,,,,,,,,,,,,,,,,,,,,,,,,,,,,,,
,,,,,,,,,,,,l,0.366,Correct!,,,,,,t3.png,t5.png,2,0.056466,21,female ,2020-09-04_23h13.54.988,torte-2b,2020.1.3,MacIntel,60,12727,,,,,0,108,108,14,1,,,,,,,,,,,,,,,,,,,,,,,,,,,,,,,,,,,,,,,,,,,,,,,,,,,,,,,,
,,,,,,,,,,,,a,0.366,Incorrect,,,,,,t1.png,t4.png,3,0.0000131,21,female ,2020-09-04_23h13.54.988,torte-2b,2020.1.3,MacIntel,60,12727,,,,,0,109,109,107,1,,,,,,,,,,,,,,,,,,,,,,,,,,,,,,,,,,,,,,,,,,,,,,,,,,,,,,,,
,,,,,,,,,,,,l,0.333,Incorrect,,,,,,t5.png,t5.png,0,0.978,21,female ,2020-09-04_23h13.54.988,torte-2b,2020.1.3,MacIntel,60,12727,,,,,0,110,110,117,1,,,,,,,,,,,,,,,,,,,,,,,,,,,,,,,,,,,,,,,,,,,,,,,,,,,,,,,,
,,,,,,,,,,,,a,0.366,Incorrect,,,,,,t2.png,t4.png,2,0.0591,21,female ,2020-09-04_23h13.54.988,torte-2b,2020.1.3,MacIntel,60,12727,,,,,0,111,111,15,1,,,,,,,,,,,,,,,,,,,,,,,,,,,,,,,,,,,,,,,,,,,,,,,,,,,,,,,,
,,,,,,,,,,,,l,0.432,Correct!,,,,,,t3.png,t1.png,2,0.0565,21,female ,2020-09-04_23h13.54.988,torte-2b,2020.1.3,MacIntel,60,12727,,,,,0,112,112,31,1,,,,,,,,,,,,,,,,,,,,,,,,,,,,,,,,,,,,,,,,,,,,,,,,,,,,,,,,
,,,,,,,,,,,,a,0.47,Incorrect,,,,,,t1.png,t4.png,3,0.0000131,21,female ,2020-09-04_23h13.54.988,torte-2b,2020.1.3,MacIntel,60,12727,,,,,0,113,113,17,1,,,,,,,,,,,,,,,,,,,,,,,,,,,,,,,,,,,,,,,,,,,,,,,,,,,,,,,,
,,,,,,,,,,,,l,0.356,Incorrect,,,,,,t5.png,t5.png,0,0.97829,21,female ,2020-09-04_23h13.54.988,torte-2b,2020.1.3,MacIntel,60,12727,,,,,0,114,114,70,1,,,,,,,,,,,,,,,,,,,,,,,,,,,,,,,,,,,,,,,,,,,,,,,,,,,,,,,,
,,,,,,,,,,,,a,0.34,Correct!,,,,,,t4.png,t4.png,0,0.98115,21,female ,2020-09-04_23h13.54.988,torte-2b,2020.1.3,MacIntel,60,12727,,,,,0,115,115,52,1,,,,,,,,,,,,,,,,,,,,,,,,,,,,,,,,,,,,,,,,,,,,,,,,,,,,,,,,
,,,,,,,,,,,,l,0.599,Correct!,,,,,,t2.png,t5.png,3,0.0000131,21,female ,2020-09-04_23h13.54.988,torte-2b,2020.1.3,MacIntel,60,12727,,,,,0,116,116,95,1,,,,,,,,,,,,,,,,,,,,,,,,,,,,,,,,,,,,,,,,,,,,,,,,,,,,,,,,
,,,,,,,,,,,,a,0.349,Correct!,,,,,,t1.png,t2.png,1,0.9,21,female ,2020-09-04_23h13.54.988,torte-2b,2020.1.3,MacIntel,60,12727,,,,,0,117,117,1,1,,,,,,,,,,,,,,,,,,,,,,,,,,,,,,,,,,,,,,,,,,,,,,,,,,,,,,,,
,,,,,,,,,,,,a,0.522,Correct!,,,,,,t2.png,t1.png,1,0.9,21,female ,2020-09-04_23h13.54.988,torte-2b,2020.1.3,MacIntel,60,12727,,,,,0,118,118,118,1,,,,,,,,,,,,,,,,,,,,,,,,,,,,,,,,,,,,,,,,,,,,,,,,,,,,,,,,
,,,,,,,,,,,,l,0.365,Incorrect,,,,,,t4.png,t5.png,1,0.90025,21,female ,2020-09-04_23h13.54.988,torte-2b,2020.1.3,MacIntel,60,12727,,,,,0,119,119,103,1,,,,,,,,,,,,,,,,,,,,,,,,,,,,,,,,,,,,,,,,,,,,,,,,,,,,,,,,
,,,,,,,,,,,,,,,,,,,,,,,,21,female ,2020-09-04_23h13.54.988,torte-2b,2020.1.3,MacIntel,60,12727,space,1.75,,,,,,,,space,14.4,,0,0,0,0,1,6,,,,,,,,,,,,,,,,,,,,,,,,,,,,,,,,,,,,,,,,,,,,,,,
,,,,,,,,,,,,,,,,,,,,,,,,21,female ,2020-09-04_23h13.54.988,torte-2b,2020.1.3,MacIntel,60,12727,,,,,,,,,,,,space,0,1,1,1,1,7,0.034,,,,,,,,,,,,,,,,,,,,,,,,,,,,,,,,,,,,,,,,,,,,,,
,,,,,,,,,,,,,,,,,,,,,,,,21,female ,2020-09-04_23h13.54.988,torte-2b,2020.1.3,MacIntel,60,12727,,,,,,,,,,,,space,0,2,2,2,1,6,0.351,,,,,,,,,,,,,,,,,,,,,,,,,,,,,,,,,,,,,,,,,,,,,,
,,,,,,,,,,,,,,,,,,,,,,,,21,female ,2020-09-04_23h13.54.988,torte-2b,2020.1.3,MacIntel,60,12727,,,,,,,,,,,,,0,3,3,3,1,7,,,,,,,,,,,,,,,,,,,,,,,,,,,,,,,,,,,,,,,,,,,,,,,
,,,,,,,,,,,,,,,,,,,,,,,,21,female ,2020-09-04_23h13.54.988,torte-2b,2020.1.3,MacIntel,60,12727,,,,,,,,,,,,,0,4,4,4,1,5,,,,,,,,,,,,,,,,,,,,,,,,,,,,,,,,,,,,,,,,,,,,,,,
,,,,,,,,,,,,,,,,,,,,,,,,21,female ,2020-09-04_23h13.54.988,torte-2b,2020.1.3,MacIntel,60,12727,,,,,,,,,,,,space,0,5,5,5,1,7,0.514,,,,,,,,,,,,,,,,,,,,,,,,,,,,,,,,,,,,,,,,,,,,,,
,,,,,,,,,,,,,,,,,,,,,,,,21,female ,2020-09-04_23h13.54.988,torte-2b,2020.1.3,MacIntel,60,12727,,,,,,,,,,,,,0,6,6,6,1,2,,,,,,,,,,,,,,,,,,,,,,,,,,,,,,,,,,,,,,,,,,,,,,,
,,,,,,,,,,,,,,,,,,,,,,,,21,female ,2020-09-04_23h13.54.988,torte-2b,2020.1.3,MacIntel,60,12727,,,,,,,,,,,,,0,7,7,7,1,4,,,,,,,,,,,,,,,,,,,,,,,,,,,,,,,,,,,,,,,,,,,,,,,
,,,,,,,,,,,,,,,,,,,,,,,,21,female ,2020-09-04_23h13.54.988,torte-2b,2020.1.3,MacIntel,60,12727,,,,,,,,,,,,space,0,8,8,8,1,7,0.47,,,,,,,,,,,,,,,,,,,,,,,,,,,,,,,,,,,,,,,,,,,,,,
,,,,,,,,,,,,,,,,,,,,,,,,21,female ,2020-09-04_23h13.54.988,torte-2b,2020.1.3,MacIntel,60,12727,,,,,,,,,,,,,0,9,9,9,1,4,,,,,,,,,,,,,,,,,,,,,,,,,,,,,,,,,,,,,,,,,,,,,,,
,,,,,,,,,,,,,,,,,,,,,,,,21,female ,2020-09-04_23h13.54.988,torte-2b,2020.1.3,MacIntel,60,12727,,,,,,,,,,,,space,0,10,10,10,1,7,0.464,,,,,,,,,,,,,,,,,,,,,,,,,,,,,,,,,,,,,,,,,,,,,,
,,,,,,,,,,,,,,,,,,,,,,,,21,female ,2020-09-04_23h13.54.988,torte-2b,2020.1.3,MacIntel,60,12727,,,,,,,,,,,,,0,11,11,11,1,7,,,,,,,,,,,,,,,,,,,,,,,,,,,,,,,,,,,,,,,,,,,,,,,
,,,,,,,,,,,,,,,,,,,,,,,,21,female ,2020-09-04_23h13.54.988,torte-2b,2020.1.3,MacIntel,60,12727,,,,,,,,,,,,,0,12,12,12,1,7,,,,,,,,,,,,,,,,,,,,,,,,,,,,,,,,,,,,,,,,,,,,,,,
,,,,,,,,,,,,,,,,,,,,,,,,21,female ,2020-09-04_23h13.54.988,torte-2b,2020.1.3,MacIntel,60,12727,,,,,,,,,,,,,0,13,13,13,1,4,,,,,,,,,,,,,,,,,,,,,,,,,,,,,,,,,,,,,,,,,,,,,,,
,,,,,,,,,,,,,,,,,,,,,,,,21,female ,2020-09-04_23h13.54.988,torte-2b,2020.1.3,MacIntel,60,12727,,,,,,,,,,,,,0,14,14,14,1,6,,,,,,,,,,,,,,,,,,,,,,,,,,,,,,,,,,,,,,,,,,,,,,,
,,,,,,,,,,,,,,,,,,,,,,,,21,female ,2020-09-04_23h13.54.988,torte-2b,2020.1.3,MacIntel,60,12727,,,,,,,,,,,,space,0,15,15,15,1,4,0.312,,,,,,,,,,,,,,,,,,,,,,,,,,,,,,,,,,,,,,,,,,,,,,
,,,,,,,,,,,,,,,,,,,,,,,,21,female ,2020-09-04_23h13.54.988,torte-2b,2020.1.3,MacIntel,60,12727,,,,,,,,,,,,,0,16,16,16,1,6,,,,,,,,,,,,,,,,,,,,,,,,,,,,,,,,,,,,,,,,,,,,,,,
,,,,,,,,,,,,,,,,,,,,,,,,21,female ,2020-09-04_23h13.54.988,torte-2b,2020.1.3,MacIntel,60,12727,,,,,,,,,,,,,0,17,17,17,1,7,,,,,,,,,,,,,,,,,,,,,,,,,,,,,,,,,,,,,,,,,,,,,,,
,,,,,,,,,,,,,,,,,,,,,,,,21,female ,2020-09-04_23h13.54.988,torte-2b,2020.1.3,MacIntel,60,12727,,,,,,,,,,,,space,0,18,18,18,1,6,0.347,,,,,,,,,,,,,,,,,,,,,,,,,,,,,,,,,,,,,,,,,,,,,,
,,,,,,,,,,,,,,,,,,,,,,,,21,female ,2020-09-04_23h13.54.988,torte-2b,2020.1.3,MacIntel,60,12727,,,,,,,,,,,,,0,19,19,19,1,7,,,,,,,,,,,,,,,,,,,,,,,,,,,,,,,,,,,,,,,,,,,,,,,
,,,,,,,,,,,,,,,,,,,,,,,,21,female ,2020-09-04_23h13.54.988,torte-2b,2020.1.3,MacIntel,60,12727,,,,,,,,,,,,,0,20,20,20,1,5,,,,,,,,,,,,,,,,,,,,,,,,,,,,,,,,,,,,,,,,,,,,,,,
,,,,,,,,,,,,,,,,,,,,,,,,21,female ,2020-09-04_23h13.54.988,torte-2b,2020.1.3,MacIntel,60,12727,,,,,,,,,,,,,0,21,21,21,1,1,,,,,,,,,,,,,,,,,,,,,,,,,,,,,,,,,,,,,,,,,,,,,,,
,,,,,,,,,,,,,,,,,,,,,,,,21,female ,2020-09-04_23h13.54.988,torte-2b,2020.1.3,MacIntel,60,12727,,,,,,,,,,,,,0,22,22,22,1,6,,,,,,,,,,,,,,,,,,,,,,,,,,,,,,,,,,,,,,,,,,,,,,,
,,,,,,,,,,,,,,,,,,,,,,,,21,female ,2020-09-04_23h13.54.988,torte-2b,2020.1.3,MacIntel,60,12727,,,,,,,,,,,,space,0,23,23,23,1,1,0.33,,,,,,,,,,,,,,,,,,,,,,,,,,,,,,,,,,,,,,,,,,,,,,
,,,,,,,,,,,,,,,,,,,,,,,,21,female ,2020-09-04_23h13.54.988,torte-2b,2020.1.3,MacIntel,60,12727,,,,,,,,,,,,,0,24,24,24,1,5,,,,,,,,,,,,,,,,,,,,,,,,,,,,,,,,,,,,,,,,,,,,,,,
,,,,,,,,,,,,,,,,,,,,,,,,21,female ,2020-09-04_23h13.54.988,torte-2b,2020.1.3,MacIntel,60,12727,,,,,,,,,,,,space,0,25,25,25,1,6,0.52,,,,,,,,,,,,,,,,,,,,,,,,,,,,,,,,,,,,,,,,,,,,,,
,,,,,,,,,,,,,,,,,,,,,,,,21,female ,2020-09-04_23h13.54.988,torte-2b,2020.1.3,MacIntel,60,12727,,,,,,,,,,,,,0,26,26,26,1,6,,,,,,,,,,,,,,,,,,,,,,,,,,,,,,,,,,,,,,,,,,,,,,,
,,,,,,,,,,,,,,,,,,,,,,,,21,female ,2020-09-04_23h13.54.988,torte-2b,2020.1.3,MacIntel,60,12727,,,,,,,,,,,,space,0,27,27,27,1,6,0.546,,,,,,,,,,,,,,,,,,,,,,,,,,,,,,,,,,,,,,,,,,,,,,
,,,,,,,,,,,,,,,,,,,,,,,,21,female ,2020-09-04_23h13.54.988,torte-2b,2020.1.3,MacIntel,60,12727,,,,,,,,,,,,,0,28,28,28,1,5,,,,,,,,,,,,,,,,,,,,,,,,,,,,,,,,,,,,,,,,,,,,,,,
,,,,,,,,,,,,,,,,,,,,,,,,21,female ,2020-09-04_23h13.54.988,torte-2b,2020.1.3,MacIntel,60,12727,,,,,,,,,,,,,0,29,29,29,1,2,,,,,,,,,,,,,,,,,,,,,,,,,,,,,,,,,,,,,,,,,,,,,,,
,,,,,,,,,,,,,,,,,,,,,,,,21,female ,2020-09-04_23h13.54.988,torte-2b,2020.1.3,MacIntel,60,12727,,,,,,,,,,,,space,0,30,30,30,1,5,0.32,,,,,,,,,,,,,,,,,,,,,,,,,,,,,,,,,,,,,,,,,,,,,,
,,,,,,,,,,,,,,,,,,,,,,,,21,female ,2020-09-04_23h13.54.988,torte-2b,2020.1.3,MacIntel,60,12727,,,,,,,,,,,,,0,31,31,31,1,2,,,,,,,,,,,,,,,,,,,,,,,,,,,,,,,,,,,,,,,,,,,,,,,
,,,,,,,,,,,,,,,,,,,,,,,,21,female ,2020-09-04_23h13.54.988,torte-2b,2020.1.3,MacIntel,60,12727,,,,,,,,,,,,space,0,32,32,32,1,5,0.937,,,,,,,,,,,,,,,,,,,,,,,,,,,,,,,,,,,,,,,,,,,,,,
,,,,,,,,,,,,,,,,,,,,,,,,21,female ,2020-09-04_23h13.54.988,torte-2b,2020.1.3,MacIntel,60,12727,,,,,,,,,,,,,0,33,33,33,1,1,,,,,,,,,,,,,,,,,,,,,,,,,,,,,,,,,,,,,,,,,,,,,,,
,,,,,,,,,,,,,,,,,,,,,,,,21,female ,2020-09-04_23h13.54.988,torte-2b,2020.1.3,MacIntel,60,12727,,,,,,,,,,,,space,0,34,34,34,1,1,0.548,,,,,,,,,,,,,,,,,,,,,,,,,,,,,,,,,,,,,,,,,,,,,,
,,,,,,,,,,,,,,,,,,,,,,,,21,female ,2020-09-04_23h13.54.988,torte-2b,2020.1.3,MacIntel,60,12727,,,,,,,,,,,,,,,,,,2,,0,0,0,0,1,,,,,,,,,,,,,,,,,,,,,,,,,,,,,,,,,,,,,,,,,
,,,,,,,,,,,,,,,,,,,,,,,,21,female ,2020-09-04_23h13.54.988,torte-2b,2020.1.3,MacIntel,60,12727,,,,,,,,,,,,space,,,,,,2,1.886,0,1,1,1,1,,,,,,,,,,,,,,,,,,,,,,,,,,,,,,,,,,,,,,,,,
,,,,,,,,,,,,,,,,,,,,,,,,21,female ,2020-09-04_23h13.54.988,torte-2b,2020.1.3,MacIntel,60,12727,,,,,,,,,,,,,,,,,,6,,0,2,2,2,1,,,,,,,,,,,,,,,,,,,,,,,,,,,,,,,,,,,,,,,,,
,,,,,,,,,,,,,,,,,,,,,,,,21,female ,2020-09-04_23h13.54.988,torte-2b,2020.1.3,MacIntel,60,12727,,,,,,,,,,,,space,,,,,,2,1.019,0,3,3,3,1,,,,,,,,,,,,,,,,,,,,,,,,,,,,,,,,,,,,,,,,,
,,,,,,,,,,,,,,,,,,,,,,,,21,female ,2020-09-04_23h13.54.988,torte-2b,2020.1.3,MacIntel,60,12727,,,,,,,,,,,,,,,,,,6,,0,4,4,4,1,,,,,,,,,,,,,,,,,,,,,,,,,,,,,,,,,,,,,,,,,
,,,,,,,,,,,,,,,,,,,,,,,,21,female ,2020-09-04_23h13.54.988,torte-2b,2020.1.3,MacIntel,60,12727,,,,,,,,,,,,space,,,,,,2,0.353,0,5,5,5,1,,,,,,,,,,,,,,,,,,,,,,,,,,,,,,,,,,,,,,,,,
,,,,,,,,,,,,,,,,,,,,,,,,21,female ,2020-09-04_23h13.54.988,torte-2b,2020.1.3,MacIntel,60,12727,,,,,,,,,,,,,,,,,,7,,0,6,6,6,1,,,,,,,,,,,,,,,,,,,,,,,,,,,,,,,,,,,,,,,,,
,,,,,,,,,,,,,,,,,,,,,,,,21,female ,2020-09-04_23h13.54.988,torte-2b,2020.1.3,MacIntel,60,12727,,,,,,,,,,,,space,,,,,,2,0.354,0,7,7,7,1,,,,,,,,,,,,,,,,,,,,,,,,,,,,,,,,,,,,,,,,,
,,,,,,,,,,,,,,,,,,,,,,,,21,female ,2020-09-04_23h13.54.988,torte-2b,2020.1.3,MacIntel,60,12727,,,,,,,,,,,,space,,,,,,7,0.4,0,8,8,8,1,,,,,,,,,,,,,,,,,,,,,,,,,,,,,,,,,,,,,,,,,
,,,,,,,,,,,,,,,,,,,,,,,,21,female ,2020-09-04_23h13.54.988,torte-2b,2020.1.3,MacIntel,60,12727,,,,,,,,,,,,space,,,,,,2,0.803,0,9,9,9,1,,,,,,,,,,,,,,,,,,,,,,,,,,,,,,,,,,,,,,,,,
,,,,,,,,,,,,,,,,,,,,,,,,21,female ,2020-09-04_23h13.54.988,torte-2b,2020.1.3,MacIntel,60,12727,,,,,,,,,,,,,,,,,,5,,0,10,10,10,1,,,,,,,,,,,,,,,,,,,,,,,,,,,,,,,,,,,,,,,,,
,,,,,,,,,,,,,,,,,,,,,,,,21,female ,2020-09-04_23h13.54.988,torte-2b,2020.1.3,MacIntel,60,12727,,,,,,,,,,,,,,,,,,4,,0,11,11,11,1,,,,,,,,,,,,,,,,,,,,,,,,,,,,,,,,,,,,,,,,,
,,,,,,,,,,,,,,,,,,,,,,,,21,female ,2020-09-04_23h13.54.988,torte-2b,2020.1.3,MacIntel,60,12727,,,,,,,,,,,,space,,,,,,5,0.298,0,12,12,12,1,,,,,,,,,,,,,,,,,,,,,,,,,,,,,,,,,,,,,,,,,
,,,,,,,,,,,,,,,,,,,,,,,,21,female ,2020-09-04_23h13.54.988,torte-2b,2020.1.3,MacIntel,60,12727,,,,,,,,,,,,space,,,,,,6,0.721,0,13,13,13,1,,,,,,,,,,,,,,,,,,,,,,,,,,,,,,,,,,,,,,,,,
,,,,,,,,,,,,,,,,,,,,,,,,21,female ,2020-09-04_23h13.54.988,torte-2b,2020.1.3,MacIntel,60,12727,,,,,,,,,,,,space,,,,,,5,0.529,0,14,14,14,1,,,,,,,,,,,,,,,,,,,,,,,,,,,,,,,,,,,,,,,,,
,,,,,,,,,,,,,,,,,,,,,,,,21,female ,2020-09-04_23h13.54.988,torte-2b,2020.1.3,MacIntel,60,12727,,,,,,,,,,,,,,,,,,4,,0,15,15,15,1,,,,,,,,,,,,,,,,,,,,,,,,,,,,,,,,,,,,,,,,,
,,,,,,,,,,,,,,,,,,,,,,,,21,female ,2020-09-04_23h13.54.988,torte-2b,2020.1.3,MacIntel,60,12727,,,,,,,,,,,,space,,,,,,5,0.364,0,16,16,16,1,,,,,,,,,,,,,,,,,,,,,,,,,,,,,,,,,,,,,,,,,
,,,,,,,,,,,,,,,,,,,,,,,,21,female ,2020-09-04_23h13.54.988,torte-2b,2020.1.3,MacIntel,60,12727,,,,,,,,,,,,,,,,,,3,,0,17,17,17,1,,,,,,,,,,,,,,,,,,,,,,,,,,,,,,,,,,,,,,,,,
,,,,,,,,,,,,,,,,,,,,,,,,21,female ,2020-09-04_23h13.54.988,torte-2b,2020.1.3,MacIntel,60,12727,,,,,,,,,,,,,,,,,,6,,0,18,18,18,1,,,,,,,,,,,,,,,,,,,,,,,,,,,,,,,,,,,,,,,,,
,,,,,,,,,,,,,,,,,,,,,,,,21,female ,2020-09-04_23h13.54.988,torte-2b,2020.1.3,MacIntel,60,12727,,,,,,,,,,,,,,,,,,6,,0,19,19,19,1,,,,,,,,,,,,,,,,,,,,,,,,,,,,,,,,,,,,,,,,,
,,,,,,,,,,,,,,,,,,,,,,,,21,female ,2020-09-04_23h13.54.988,torte-2b,2020.1.3,MacIntel,60,12727,,,,,,,,,,,,space,,,,,,6,0.63,0,20,20,20,1,,,,,,,,,,,,,,,,,,,,,,,,,,,,,,,,,,,,,,,,,
,,,,,,,,,,,,,,,,,,,,,,,,21,female ,2020-09-04_23h13.54.988,torte-2b,2020.1.3,MacIntel,60,12727,,,,,,,,,,,,,,,,,,4,,0,21,21,21,1,,,,,,,,,,,,,,,,,,,,,,,,,,,,,,,,,,,,,,,,,
,,,,,,,,,,,,,,,,,,,,,,,,21,female ,2020-09-04_23h13.54.988,torte-2b,2020.1.3,MacIntel,60,12727,,,,,,,,,,,,space,,,,,,6,0.322,0,22,22,22,1,,,,,,,,,,,,,,,,,,,,,,,,,,,,,,,,,,,,,,,,,
,,,,,,,,,,,,,,,,,,,,,,,,21,female ,2020-09-04_23h13.54.988,torte-2b,2020.1.3,MacIntel,60,12727,,,,,,,,,,,,,,,,,,4,,0,23,23,23,1,,,,,,,,,,,,,,,,,,,,,,,,,,,,,,,,,,,,,,,,,
,,,,,,,,,,,,,,,,,,,,,,,,21,female ,2020-09-04_23h13.54.988,torte-2b,2020.1.3,MacIntel,60,12727,,,,,,,,,,,,,,,,,,6,,0,24,24,24,1,,,,,,,,,,,,,,,,,,,,,,,,,,,,,,,,,,,,,,,,,
,,,,,,,,,,,,,,,,,,,,,,,,21,female ,2020-09-04_23h13.54.988,torte-2b,2020.1.3,MacIntel,60,12727,,,,,,,,,,,,space,,,,,,6,0.405,0,25,25,25,1,,,,,,,,,,,,,,,,,,,,,,,,,,,,,,,,,,,,,,,,,
,,,,,,,,,,,,,,,,,,,,,,,,21,female ,2020-09-04_23h13.54.988,torte-2b,2020.1.3,MacIntel,60,12727,,,,,,,,,,,,,,,,,,7,,0,26,26,26,1,,,,,,,,,,,,,,,,,,,,,,,,,,,,,,,,,,,,,,,,,
,,,,,,,,,,,,,,,,,,,,,,,,21,female ,2020-09-04_23h13.54.988,torte-2b,2020.1.3,MacIntel,60,12727,,,,,,,,,,,,space,,,,,,1,0.487,0,27,27,27,1,,,,,,,,,,,,,,,,,,,,,,,,,,,,,,,,,,,,,,,,,
,,,,,,,,,,,,,,,,,,,,,,,,21,female ,2020-09-04_23h13.54.988,torte-2b,2020.1.3,MacIntel,60,12727,,,,,,,,,,,,,,,,,,7,,0,28,28,28,1,,,,,,,,,,,,,,,,,,,,,,,,,,,,,,,,,,,,,,,,,
,,,,,,,,,,,,,,,,,,,,,,,,21,female ,2020-09-04_23h13.54.988,torte-2b,2020.1.3,MacIntel,60,12727,,,,,,,,,,,,,,,,,,4,,0,29,29,29,1,,,,,,,,,,,,,,,,,,,,,,,,,,,,,,,,,,,,,,,,,
,,,,,,,,,,,,,,,,,,,,,,,,21,female ,2020-09-04_23h13.54.988,torte-2b,2020.1.3,MacIntel,60,12727,,,,,,,,,,,,,,,,,,7,,0,30,30,30,1,,,,,,,,,,,,,,,,,,,,,,,,,,,,,,,,,,,,,,,,,
,,,,,,,,,,,,,,,,,,,,,,,,21,female ,2020-09-04_23h13.54.988,torte-2b,2020.1.3,MacIntel,60,12727,,,,,,,,,,,,,,,,,,3,,0,31,31,31,1,,,,,,,,,,,,,,,,,,,,,,,,,,,,,,,,,,,,,,,,,
,,,,,,,,,,,,,,,,,,,,,,,,21,female ,2020-09-04_23h13.54.988,torte-2b,2020.1.3,MacIntel,60,12727,,,,,,,,,,,,,,,,,,2,,0,32,32,32,1,,,,,,,,,,,,,,,,,,,,,,,,,,,,,,,,,,,,,,,,,
,,,,,,,,,,,,,,,,,,,,,,,,21,female ,2020-09-04_23h13.54.988,torte-2b,2020.1.3,MacIntel,60,12727,,,,,,,,,,,,,,,,,,6,,0,33,33,33,1,,,,,,,,,,,,,,,,,,,,,,,,,,,,,,,,,,,,,,,,,
,,,,,,,,,,,,,,,,,,,,,,,,21,female ,2020-09-04_23h13.54.988,torte-2b,2020.1.3,MacIntel,60,12727,,,,,,,,,,,,,,,,,,3,,0,34,34,34,1,,,,,,,,,,,,,,,,,,,,,,,,,,,,,,,,,,,,,,,,,
,,,,,,,,,,,,,,,,,,,,,,,,21,female ,2020-09-04_23h13.54.988,torte-2b,2020.1.3,MacIntel,60,12727,,,,,,,,,,,,,,,,,,7,,,,,,,0,0,0,0,1,,,,,,,,,,,,,,,,,,,,,,,,,,,,,,,,,,,,
,,,,,,,,,,,,,,,,,,,,,,,,21,female ,2020-09-04_23h13.54.988,torte-2b,2020.1.3,MacIntel,60,12727,,,,,,,,,,,,,,,,,,5,,,,,,,0,1,1,1,1,,,,,,,,,,,,,,,,,,,,,,,,,,,,,,,,,,,,
,,,,,,,,,,,,,,,,,,,,,,,,21,female ,2020-09-04_23h13.54.988,torte-2b,2020.1.3,MacIntel,60,12727,,,,,,,,,,,,,,,,,,4,,,,,,,0,2,2,2,1,,,,,,,,,,,,,,,,,,,,,,,,,,,,,,,,,,,,
,,,,,,,,,,,,,,,,,,,,,,,,21,female ,2020-09-04_23h13.54.988,torte-2b,2020.1.3,MacIntel,60,12727,,,,,,,,,,,,space,,,,,,5,0.364,,,,,,0,3,3,3,1,,,,,,,,,,,,,,,,,,,,,,,,,,,,,,,,,,,,
,,,,,,,,,,,,,,,,,,,,,,,,21,female ,2020-09-04_23h13.54.988,torte-2b,2020.1.3,MacIntel,60,12727,,,,,,,,,,,,,,,,,,6,,,,,,,0,4,4,4,1,,,,,,,,,,,,,,,,,,,,,,,,,,,,,,,,,,,,
,,,,,,,,,,,,,,,,,,,,,,,,21,female ,2020-09-04_23h13.54.988,torte-2b,2020.1.3,MacIntel,60,12727,,,,,,,,,,,,,,,,,,5,,,,,,,0,5,5,5,1,,,,,,,,,,,,,,,,,,,,,,,,,,,,,,,,,,,,
,,,,,,,,,,,,,,,,,,,,,,,,21,female ,2020-09-04_23h13.54.988,torte-2b,2020.1.3,MacIntel,60,12727,,,,,,,,,,,,,,,,,,3,,,,,,,0,6,6,6,1,,,,,,,,,,,,,,,,,,,,,,,,,,,,,,,,,,,,
,,,,,,,,,,,,,,,,,,,,,,,,21,female ,2020-09-04_23h13.54.988,torte-2b,2020.1.3,MacIntel,60,12727,,,,,,,,,,,,,,,,,,4,,,,,,,0,7,7,7,1,,,,,,,,,,,,,,,,,,,,,,,,,,,,,,,,,,,,
,,,,,,,,,,,,,,,,,,,,,,,,21,female ,2020-09-04_23h13.54.988,torte-2b,2020.1.3,MacIntel,60,12727,,,,,,,,,,,,space,,,,,,3,1.93,,,,,,0,8,8,8,1,,,,,,,,,,,,,,,,,,,,,,,,,,,,,,,,,,,,
,,,,,,,,,,,,,,,,,,,,,,,,21,female ,2020-09-04_23h13.54.988,torte-2b,2020.1.3,MacIntel,60,12727,,,,,,,,,,,,,,,,,,1,,,,,,,0,9,9,9,1,,,,,,,,,,,,,,,,,,,,,,,,,,,,,,,,,,,,
,,,,,,,,,,,,,,,,,,,,,,,,21,female ,2020-09-04_23h13.54.988,torte-2b,2020.1.3,MacIntel,60,12727,,,,,,,,,,,,,,,,,,2,,,,,,,0,10,10,10,1,,,,,,,,,,,,,,,,,,,,,,,,,,,,,,,,,,,,
,,,,,,,,,,,,,,,,,,,,,,,,21,female ,2020-09-04_23h13.54.988,torte-2b,2020.1.3,MacIntel,60,12727,,,,,,,,,,,,space,,,,,,1,0.422,,,,,,0,11,11,11,1,,,,,,,,,,,,,,,,,,,,,,,,,,,,,,,,,,,,
,,,,,,,,,,,,,,,,,,,,,,,,21,female ,2020-09-04_23h13.54.988,torte-2b,2020.1.3,MacIntel,60,12727,,,,,,,,,,,,,,,,,,2,,,,,,,0,12,12,12,1,,,,,,,,,,,,,,,,,,,,,,,,,,,,,,,,,,,,
,,,,,,,,,,,,,,,,,,,,,,,,21,female ,2020-09-04_23h13.54.988,torte-2b,2020.1.3,MacIntel,60,12727,,,,,,,,,,,,space,,,,,,1,0.403,,,,,,0,13,13,13,1,,,,,,,,,,,,,,,,,,,,,,,,,,,,,,,,,,,,
,,,,,,,,,,,,,,,,,,,,,,,,21,female ,2020-09-04_23h13.54.988,torte-2b,2020.1.3,MacIntel,60,12727,,,,,,,,,,,,,,,,,,3,,,,,,,0,14,14,14,1,,,,,,,,,,,,,,,,,,,,,,,,,,,,,,,,,,,,
,,,,,,,,,,,,,,,,,,,,,,,,21,female ,2020-09-04_23h13.54.988,torte-2b,2020.1.3,MacIntel,60,12727,,,,,,,,,,,,space,,,,,,1,0,,,,,,0,15,15,15,1,,,,,,,,,,,,,,,,,,,,,,,,,,,,,,,,,,,,
,,,,,,,,,,,,,,,,,,,,,,,,21,female ,2020-09-04_23h13.54.988,torte-2b,2020.1.3,MacIntel,60,12727,,,,,,,,,,,,,,,,,,7,,,,,,,0,16,16,16,1,,,,,,,,,,,,,,,,,,,,,,,,,,,,,,,,,,,,
,,,,,,,,,,,,,,,,,,,,,,,,21,female ,2020-09-04_23h13.54.988,torte-2b,2020.1.3,MacIntel,60,12727,,,,,,,,,,,,,,,,,,7,,,,,,,0,17,17,17,1,,,,,,,,,,,,,,,,,,,,,,,,,,,,,,,,,,,,
,,,,,,,,,,,,,,,,,,,,,,,,21,female ,2020-09-04_23h13.54.988,torte-2b,2020.1.3,MacIntel,60,12727,,,,,,,,,,,,,,,,,,4,,,,,,,0,18,18,18,1,,,,,,,,,,,,,,,,,,,,,,,,,,,,,,,,,,,,
,,,,,,,,,,,,,,,,,,,,,,,,21,female ,2020-09-04_23h13.54.988,torte-2b,2020.1.3,MacIntel,60,12727,,,,,,,,,,,,,,,,,,7,,,,,,,0,19,19,19,1,,,,,,,,,,,,,,,,,,,,,,,,,,,,,,,,,,,,
,,,,,,,,,,,,,,,,,,,,,,,,21,female ,2020-09-04_23h13.54.988,torte-2b,2020.1.3,MacIntel,60,12727,,,,,,,,,,,,,,,,,,3,,,,,,,0,20,20,20,1,,,,,,,,,,,,,,,,,,,,,,,,,,,,,,,,,,,,
,,,,,,,,,,,,,,,,,,,,,,,,21,female ,2020-09-04_23h13.54.988,torte-2b,2020.1.3,MacIntel,60,12727,,,,,,,,,,,,,,,,,,7,,,,,,,0,21,21,21,1,,,,,,,,,,,,,,,,,,,,,,,,,,,,,,,,,,,,
,,,,,,,,,,,,,,,,,,,,,,,,21,female ,2020-09-04_23h13.54.988,torte-2b,2020.1.3,MacIntel,60,12727,,,,,,,,,,,,space,,,,,,3,0.647,,,,,,0,22,22,22,1,,,,,,,,,,,,,,,,,,,,,,,,,,,,,,,,,,,,
,,,,,,,,,,,,,,,,,,,,,,,,21,female ,2020-09-04_23h13.54.988,torte-2b,2020.1.3,MacIntel,60,12727,,,,,,,,,,,,,,,,,,1,,,,,,,0,23,23,23,1,,,,,,,,,,,,,,,,,,,,,,,,,,,,,,,,,,,,
,,,,,,,,,,,,,,,,,,,,,,,,21,female ,2020-09-04_23h13.54.988,torte-2b,2020.1.3,MacIntel,60,12727,,,,,,,,,,,,space,,,,,,6,0.481,,,,,,0,24,24,24,1,,,,,,,,,,,,,,,,,,,,,,,,,,,,,,,,,,,,
,,,,,,,,,,,,,,,,,,,,,,,,21,female ,2020-09-04_23h13.54.988,torte-2b,2020.1.3,MacIntel,60,12727,,,,,,,,,,,,,,,,,,3,,,,,,,0,25,25,25,1,,,,,,,,,,,,,,,,,,,,,,,,,,,,,,,,,,,,
,,,,,,,,,,,,,,,,,,,,,,,,21,female ,2020-09-04_23h13.54.988,torte-2b,2020.1.3,MacIntel,60,12727,,,,,,,,,,,,,,,,,,2,,,,,,,0,26,26,26,1,,,,,,,,,,,,,,,,,,,,,,,,,,,,,,,,,,,,
,,,,,,,,,,,,,,,,,,,,,,,,21,female ,2020-09-04_23h13.54.988,torte-2b,2020.1.3,MacIntel,60,12727,,,,,,,,,,,,space,,,,,,3,0.719,,,,,,0,27,27,27,1,,,,,,,,,,,,,,,,,,,,,,,,,,,,,,,,,,,,
,,,,,,,,,,,,,,,,,,,,,,,,21,female ,2020-09-04_23h13.54.988,torte-2b,2020.1.3,MacIntel,60,12727,,,,,,,,,,,,,,,,,,1,,,,,,,0,28,28,28,1,,,,,,,,,,,,,,,,,,,,,,,,,,,,,,,,,,,,
,,,,,,,,,,,,,,,,,,,,,,,,21,female ,2020-09-04_23h13.54.988,torte-2b,2020.1.3,MacIntel,60,12727,,,,,,,,,,,,space,,,,,,3,1.404,,,,,,0,29,29,29,1,,,,,,,,,,,,,,,,,,,,,,,,,,,,,,,,,,,,
,,,,,,,,,,,,,,,,,,,,,,,,21,female ,2020-09-04_23h13.54.988,torte-2b,2020.1.3,MacIntel,60,12727,,,,,,,,,,,,,,,,,,1,,,,,,,0,30,30,30,1,,,,,,,,,,,,,,,,,,,,,,,,,,,,,,,,,,,,
,,,,,,,,,,,,,,,,,,,,,,,,21,female ,2020-09-04_23h13.54.988,torte-2b,2020.1.3,MacIntel,60,12727,,,,,,,,,,,,space,,,,,,7,1.113,,,,,,0,31,31,31,1,,,,,,,,,,,,,,,,,,,,,,,,,,,,,,,,,,,,
,,,,,,,,,,,,,,,,,,,,,,,,21,female ,2020-09-04_23h13.54.988,torte-2b,2020.1.3,MacIntel,60,12727,,,,,,,,,,,,,,,,,,5,,,,,,,0,32,32,32,1,,,,,,,,,,,,,,,,,,,,,,,,,,,,,,,,,,,,
,,,,,,,,,,,,,,,,,,,,,,,,21,female ,2020-09-04_23h13.54.988,torte-2b,2020.1.3,MacIntel,60,12727,,,,,,,,,,,,space,,,,,,7,0.31,,,,,,0,33,33,33,1,,,,,,,,,,,,,,,,,,,,,,,,,,,,,,,,,,,,
,,,,,,,,,,,,,,,,,,,,,,,,21,female ,2020-09-04_23h13.54.988,torte-2b,2020.1.3,MacIntel,60,12727,,,,,,,,,,,,,,,,,,2,,,,,,,0,34,34,34,1,,,,,,,,,,,,,,,,,,,,,,,,,,,,,,,,,,,,
,,,,,,,,,,,,,,,,,,,,,,,,21,female ,2020-09-04_23h13.54.988,torte-2b,2020.1.3,MacIntel,60,12727,,,,,,,,,,,,,,,,,,3,,,,,,,,,,,,0,0,0,0,1,,,,,,,,,,,,,,,,,,,,,,,,,,,,,,,
,,,,,,,,,,,,,,,,,,,,,,,,21,female ,2020-09-04_23h13.54.988,torte-2b,2020.1.3,MacIntel,60,12727,,,,,,,,,,,,,,,,,,7,,,,,,,,,,,,0,1,1,1,1,,,,,,,,,,,,,,,,,,,,,,,,,,,,,,,
,,,,,,,,,,,,,,,,,,,,,,,,21,female ,2020-09-04_23h13.54.988,torte-2b,2020.1.3,MacIntel,60,12727,,,,,,,,,,,,,,,,,,7,,,,,,,,,,,,0,2,2,2,1,,,,,,,,,,,,,,,,,,,,,,,,,,,,,,,
,,,,,,,,,,,,,,,,,,,,,,,,21,female ,2020-09-04_23h13.54.988,torte-2b,2020.1.3,MacIntel,60,12727,,,,,,,,,,,,,,,,,,4,,,,,,,,,,,,0,3,3,3,1,,,,,,,,,,,,,,,,,,,,,,,,,,,,,,,
,,,,,,,,,,,,,,,,,,,,,,,,21,female ,2020-09-04_23h13.54.988,torte-2b,2020.1.3,MacIntel,60,12727,,,,,,,,,,,,,,,,,,5,,,,,,,,,,,,0,4,4,4,1,,,,,,,,,,,,,,,,,,,,,,,,,,,,,,,
,,,,,,,,,,,,,,,,,,,,,,,,21,female ,2020-09-04_23h13.54.988,torte-2b,2020.1.3,MacIntel,60,12727,,,,,,,,,,,,space,,,,,,4,0.969,,,,,,,,,,,0,5,5,5,1,,,,,,,,,,,,,,,,,,,,,,,,,,,,,,,
,,,,,,,,,,,,,,,,,,,,,,,,21,female ,2020-09-04_23h13.54.988,torte-2b,2020.1.3,MacIntel,60,12727,,,,,,,,,,,,,,,,,,2,,,,,,,,,,,,0,6,6,6,1,,,,,,,,,,,,,,,,,,,,,,,,,,,,,,,
,,,,,,,,,,,,,,,,,,,,,,,,21,female ,2020-09-04_23h13.54.988,torte-2b,2020.1.3,MacIntel,60,12727,,,,,,,,,,,,space,,,,,,4,0.67,,,,,,,,,,,0,7,7,7,1,,,,,,,,,,,,,,,,,,,,,,,,,,,,,,,
,,,,,,,,,,,,,,,,,,,,,,,,21,female ,2020-09-04_23h13.54.988,torte-2b,2020.1.3,MacIntel,60,12727,,,,,,,,,,,,space,,,,,,2,0.603,,,,,,,,,,,0,8,8,8,1,,,,,,,,,,,,,,,,,,,,,,,,,,,,,,,
,,,,,,,,,,,,,,,,,,,,,,,,21,female ,2020-09-04_23h13.54.988,torte-2b,2020.1.3,MacIntel,60,12727,,,,,,,,,,,,,,,,,,2,,,,,,,,,,,,0,9,9,9,1,,,,,,,,,,,,,,,,,,,,,,,,,,,,,,,
,,,,,,,,,,,,,,,,,,,,,,,,21,female ,2020-09-04_23h13.54.988,torte-2b,2020.1.3,MacIntel,60,12727,,,,,,,,,,,,,,,,,,6,,,,,,,,,,,,0,10,10,10,1,,,,,,,,,,,,,,,,,,,,,,,,,,,,,,,
,,,,,,,,,,,,,,,,,,,,,,,,21,female ,2020-09-04_23h13.54.988,torte-2b,2020.1.3,MacIntel,60,12727,,,,,,,,,,,,space,,,,,,2,0.387,,,,,,,,,,,0,11,11,11,1,,,,,,,,,,,,,,,,,,,,,,,,,,,,,,,
,,,,,,,,,,,,,,,,,,,,,,,,21,female ,2020-09-04_23h13.54.988,torte-2b,2020.1.3,MacIntel,60,12727,,,,,,,,,,,,,,,,,,2,,,,,,,,,,,,0,12,12,12,1,,,,,,,,,,,,,,,,,,,,,,,,,,,,,,,
,,,,,,,,,,,,,,,,,,,,,,,,21,female ,2020-09-04_23h13.54.988,torte-2b,2020.1.3,MacIntel,60,12727,,,,,,,,,,,,space,,,,,,2,0.464,,,,,,,,,,,0,13,13,13,1,,,,,,,,,,,,,,,,,,,,,,,,,,,,,,,
,,,,,,,,,,,,,,,,,,,,,,,,21,female ,2020-09-04_23h13.54.988,torte-2b,2020.1.3,MacIntel,60,12727,,,,,,,,,,,,space,,,,,,2,0.631,,,,,,,,,,,0,14,14,14,1,,,,,,,,,,,,,,,,,,,,,,,,,,,,,,,
,,,,,,,,,,,,,,,,,,,,,,,,21,female ,2020-09-04_23h13.54.988,torte-2b,2020.1.3,MacIntel,60,12727,,,,,,,,,,,,,,,,,,4,,,,,,,,,,,,0,15,15,15,1,,,,,,,,,,,,,,,,,,,,,,,,,,,,,,,
,,,,,,,,,,,,,,,,,,,,,,,,21,female ,2020-09-04_23h13.54.988,torte-2b,2020.1.3,MacIntel,60,12727,,,,,,,,,,,,,,,,,,3,,,,,,,,,,,,0,16,16,16,1,,,,,,,,,,,,,,,,,,,,,,,,,,,,,,,
,,,,,,,,,,,,,,,,,,,,,,,,21,female ,2020-09-04_23h13.54.988,torte-2b,2020.1.3,MacIntel,60,12727,,,,,,,,,,,,,,,,,,7,,,,,,,,,,,,0,17,17,17,1,,,,,,,,,,,,,,,,,,,,,,,,,,,,,,,
,,,,,,,,,,,,,,,,,,,,,,,,21,female ,2020-09-04_23h13.54.988,torte-2b,2020.1.3,MacIntel,60,12727,,,,,,,,,,,,,,,,,,4,,,,,,,,,,,,0,18,18,18,1,,,,,,,,,,,,,,,,,,,,,,,,,,,,,,,
,,,,,,,,,,,,,,,,,,,,,,,,21,female ,2020-09-04_23h13.54.988,torte-2b,2020.1.3,MacIntel,60,12727,,,,,,,,,,,,space,,,,,,7,1.168,,,,,,,,,,,0,19,19,19,1,,,,,,,,,,,,,,,,,,,,,,,,,,,,,,,
,,,,,,,,,,,,,,,,,,,,,,,,21,female ,2020-09-04_23h13.54.988,torte-2b,2020.1.3,MacIntel,60,12727,,,,,,,,,,,,,,,,,,7,,,,,,,,,,,,0,20,20,20,1,,,,,,,,,,,,,,,,,,,,,,,,,,,,,,,
,,,,,,,,,,,,,,,,,,,,,,,,21,female ,2020-09-04_23h13.54.988,torte-2b,2020.1.3,MacIntel,60,12727,,,,,,,,,,,,space,,,,,,7,0.42,,,,,,,,,,,0,21,21,21,1,,,,,,,,,,,,,,,,,,,,,,,,,,,,,,,
,,,,,,,,,,,,,,,,,,,,,,,,21,female ,2020-09-04_23h13.54.988,torte-2b,2020.1.3,MacIntel,60,12727,,,,,,,,,,,,,,,,,,7,,,,,,,,,,,,0,22,22,22,1,,,,,,,,,,,,,,,,,,,,,,,,,,,,,,,
,,,,,,,,,,,,,,,,,,,,,,,,21,female ,2020-09-04_23h13.54.988,torte-2b,2020.1.3,MacIntel,60,12727,,,,,,,,,,,,,,,,,,1,,,,,,,,,,,,0,23,23,23,1,,,,,,,,,,,,,,,,,,,,,,,,,,,,,,,
,,,,,,,,,,,,,,,,,,,,,,,,21,female ,2020-09-04_23h13.54.988,torte-2b,2020.1.3,MacIntel,60,12727,,,,,,,,,,,,space,,,,,,7,0.521,,,,,,,,,,,0,24,24,24,1,,,,,,,,,,,,,,,,,,,,,,,,,,,,,,,
,,,,,,,,,,,,,,,,,,,,,,,,21,female ,2020-09-04_23h13.54.988,torte-2b,2020.1.3,MacIntel,60,12727,,,,,,,,,,,,,,,,,,1,,,,,,,,,,,,0,25,25,25,1,,,,,,,,,,,,,,,,,,,,,,,,,,,,,,,
,,,,,,,,,,,,,,,,,,,,,,,,21,female ,2020-09-04_23h13.54.988,torte-2b,2020.1.3,MacIntel,60,12727,,,,,,,,,,,,space,,,,,,7,1.347,,,,,,,,,,,0,26,26,26,1,,,,,,,,,,,,,,,,,,,,,,,,,,,,,,,
,,,,,,,,,,,,,,,,,,,,,,,,21,female ,2020-09-04_23h13.54.988,torte-2b,2020.1.3,MacIntel,60,12727,,,,,,,,,,,,space,,,,,,2,1.137,,,,,,,,,,,0,27,27,27,1,,,,,,,,,,,,,,,,,,,,,,,,,,,,,,,
,,,,,,,,,,,,,,,,,,,,,,,,21,female ,2020-09-04_23h13.54.988,torte-2b,2020.1.3,MacIntel,60,12727,,,,,,,,,,,,,,,,,,5,,,,,,,,,,,,0,28,28,28,1,,,,,,,,,,,,,,,,,,,,,,,,,,,,,,,
,,,,,,,,,,,,,,,,,,,,,,,,21,female ,2020-09-04_23h13.54.988,torte-2b,2020.1.3,MacIntel,60,12727,,,,,,,,,,,,,,,,,,5,,,,,,,,,,,,0,29,29,29,1,,,,,,,,,,,,,,,,,,,,,,,,,,,,,,,
,,,,,,,,,,,,,,,,,,,,,,,,21,female ,2020-09-04_23h13.54.988,torte-2b,2020.1.3,MacIntel,60,12727,,,,,,,,,,,,space,,,,,,5,0.015,,,,,,,,,,,0,30,30,30,1,,,,,,,,,,,,,,,,,,,,,,,,,,,,,,,
,,,,,,,,,,,,,,,,,,,,,,,,21,female ,2020-09-04_23h13.54.988,torte-2b,2020.1.3,MacIntel,60,12727,,,,,,,,,,,,,,,,,,1,,,,,,,,,,,,0,31,31,31,1,,,,,,,,,,,,,,,,,,,,,,,,,,,,,,,
,,,,,,,,,,,,,,,,,,,,,,,,21,female ,2020-09-04_23h13.54.988,torte-2b,2020.1.3,MacIntel,60,12727,,,,,,,,,,,,space,,,,,,5,0.164,,,,,,,,,,,0,32,32,32,1,,,,,,,,,,,,,,,,,,,,,,,,,,,,,,,
,,,,,,,,,,,,,,,,,,,,,,,,21,female ,2020-09-04_23h13.54.988,torte-2b,2020.1.3,MacIntel,60,12727,,,,,,,,,,,,space,,,,,,3,1.769,,,,,,,,,,,0,33,33,33,1,,,,,,,,,,,,,,,,,,,,,,,,,,,,,,,
,,,,,,,,,,,,,,,,,,,,,,,,21,female ,2020-09-04_23h13.54.988,torte-2b,2020.1.3,MacIntel,60,12727,,,,,,,,,,,,,,,,,,3,,,,,,,,,,,,0,34,34,34,1,,,,,,,,,,,,,,,,,,,,,,,,,,,,,,,
,,,,,,,,,,,,a,0.898,Incorrect,,,,,,t2.png,t4.png,2,0.059078,21,female ,2020-09-04_23h13.54.988,torte-2b,2020.1.3,MacIntel,60,12727,space,1.765,,,,,,,,,,,,,,,,,,,,,,,,,,,,,,,,,space,14.551,0,0,0,24,1,,,,,,,,,,,,,,,,,,,,,,,,
,,,,,,,,,,,,l,0.455,Correct!,,,,,,t2.png,t5.png,3,0.0000131,21,female ,2020-09-04_23h13.54.988,torte-2b,2020.1.3,MacIntel,60,12727,,,,,,,,,,,,,,,,,,,,,,,,,,,,,,,,,,,,,0,1,1,95,1,,,,,,,,,,,,,,,,,,,,,,,,
,,,,,,,,,,,,a,0.365,Incorrect,,,,,,t3.png,t1.png,2,0.056466,21,female ,2020-09-04_23h13.54.988,torte-2b,2020.1.3,MacIntel,60,12727,,,,,,,,,,,,,,,,,,,,,,,,,,,,,,,,,,,,,0,2,2,32,1,,,,,,,,,,,,,,,,,,,,,,,,
,,,,,,,,,,,,a,1.205,Correct!,,,,,,t1.png,t2.png,1,0.90025,21,female ,2020-09-04_23h13.54.988,torte-2b,2020.1.3,MacIntel,60,12727,,,,,,,,,,,,,,,,,,,,,,,,,,,,,,,,,,,,,0,3,3,105,1,,,,,,,,,,,,,,,,,,,,,,,,
,,,,,,,,,,,,a,1.655,Correct!,,,,,,t5.png,t5.png,0,0.97829,21,female ,2020-09-04_23h13.54.988,torte-2b,2020.1.3,MacIntel,60,12727,,,,,,,,,,,,,,,,,,,,,,,,,,,,,,,,,,,,,0,4,4,73,1,,,,,,,,,,,,,,,,,,,,,,,,
,,,,,,,,,,,,l,0.282,Correct!,,,,,,t3.png,t1.png,2,0.056466,21,female ,2020-09-04_23h13.54.988,torte-2b,2020.1.3,MacIntel,60,12727,,,,,,,,,,,,,,,,,,,,,,,,,,,,,,,,,,,,,0,5,5,64,1,,,,,,,,,,,,,,,,,,,,,,,,
,,,,,,,,,,,,a,0.289,Incorrect,,,,,,t1.png,t5.png,4,9.55E-11,21,female ,2020-09-04_23h13.54.988,torte-2b,2020.1.3,MacIntel,60,12727,,,,,,,,,,,,,,,,,,,,,,,,,,,,,,,,,,,,,0,6,6,16,1,,,,,,,,,,,,,,,,,,,,,,,,
,,,,,,,,,,,,l,0.474,Incorrect,,,,,,t2.png,t3.png,1,0.909,21,female ,2020-09-04_23h13.54.988,torte-2b,2020.1.3,MacIntel,60,12727,,,,,,,,,,,,,,,,,,,,,,,,,,,,,,,,,,,,,0,7,7,74,1,,,,,,,,,,,,,,,,,,,,,,,,
,,,,,,,,,,,,a,0.308,Incorrect,,,,,,t5.png,t3.png,2,0.056466,21,female ,2020-09-04_23h13.54.988,torte-2b,2020.1.3,MacIntel,60,12727,,,,,,,,,,,,,,,,,,,,,,,,,,,,,,,,,,,,,0,8,8,108,1,,,,,,,,,,,,,,,,,,,,,,,,
,,,,,,,,,,,,l,0.368,Incorrect,,,,,,t5.png,t4.png,1,0.9,21,female ,2020-09-04_23h13.54.988,torte-2b,2020.1.3,MacIntel,60,12727,,,,,,,,,,,,,,,,,,,,,,,,,,,,,,,,,,,,,0,9,9,76,1,,,,,,,,,,,,,,,,,,,,,,,,
,,,,,,,,,,,,a,0.317,Correct!,,,,,,t5.png,t4.png,1,0.90025,21,female ,2020-09-04_23h13.54.988,torte-2b,2020.1.3,MacIntel,60,12727,,,,,,,,,,,,,,,,,,,,,,,,,,,,,,,,,,,,,0,10,10,26,1,,,,,,,,,,,,,,,,,,,,,,,,
,,,,,,,,,,,,a,0.233,Incorrect,,,,,,t5.png,t1.png,4,9.55E-11,21,female ,2020-09-04_23h13.54.988,torte-2b,2020.1.3,MacIntel,60,12727,,,,,,,,,,,,,,,,,,,,,,,,,,,,,,,,,,,,,0,11,11,43,1,,,,,,,,,,,,,,,,,,,,,,,,
,,,,,,,,,,,,l,0.282,Correct!,,,,,,t3.png,t1.png,2,0.0565,21,female ,2020-09-04_23h13.54.988,torte-2b,2020.1.3,MacIntel,60,12727,,,,,,,,,,,,,,,,,,,,,,,,,,,,,,,,,,,,,0,12,12,31,1,,,,,,,,,,,,,,,,,,,,,,,,
,,,,,,,,,,,,a,0.358,Incorrect,,,,,,t4.png,t1.png,3,0.0000131,21,female ,2020-09-04_23h13.54.988,torte-2b,2020.1.3,MacIntel,60,12727,,,,,,,,,,,,,,,,,,,,,,,,,,,,,,,,,,,,,0,13,13,42,1,,,,,,,,,,,,,,,,,,,,,,,,
,,,,,,,,,,,,l,0.266,Incorrect,,,,,,t4.png,t4.png,0,0.98115,21,female ,2020-09-04_23h13.54.988,torte-2b,2020.1.3,MacIntel,60,12727,,,,,,,,,,,,,,,,,,,,,,,,,,,,,,,,,,,,,0,14,14,80,1,,,,,,,,,,,,,,,,,,,,,,,,
,,,,,,,,,,,,l,0.232,Incorrect,,,,,,t1.png,t1.png,0,0.97829,21,female ,2020-09-04_23h13.54.988,torte-2b,2020.1.3,MacIntel,60,12727,,,,,,,,,,,,,,,,,,,,,,,,,,,,,,,,,,,,,0,15,15,78,1,,,,,,,,,,,,,,,,,,,,,,,,
,,,,,,,,,,,,a,0.469,Incorrect,,,,,,t4.png,t1.png,3,0.0000131,21,female ,2020-09-04_23h13.54.988,torte-2b,2020.1.3,MacIntel,60,12727,,,,,,,,,,,,,,,,,,,,,,,,,,,,,,,,,,,,,0,16,16,93,1,,,,,,,,,,,,,,,,,,,,,,,,
,,,,,,,,,,,,l,0.814,Correct!,,,,,,t1.png,t5.png,4,9.55E-11,21,female ,2020-09-04_23h13.54.988,torte-2b,2020.1.3,MacIntel,60,12727,,,,,,,,,,,,,,,,,,,,,,,,,,,,,,,,,,,,,0,17,17,12,1,,,,,,,,,,,,,,,,,,,,,,,,
,,,,,,,,,,,,a,0.258,Incorrect,,,,,,t1.png,t4.png,3,0.0000131,21,female ,2020-09-04_23h13.54.988,torte-2b,2020.1.3,MacIntel,60,12727,,,,,,,,,,,,,,,,,,,,,,,,,,,,,,,,,,,,,0,18,18,17,1,,,,,,,,,,,,,,,,,,,,,,,,
,,,,,,,,,,,,l,0.39,Correct!,,,,,,t1.png,t4.png,3,0.0000131,21,female ,2020-09-04_23h13.54.988,torte-2b,2020.1.3,MacIntel,60,12727,,,,,,,,,,,,,,,,,,,,,,,,,,,,,,,,,,,,,0,19,19,50,1,,,,,,,,,,,,,,,,,,,,,,,,
,,,,,,,,,,,,a,0.242,Correct!,,,,,,t5.png,t4.png,1,0.90025,21,female ,2020-09-04_23h13.54.988,torte-2b,2020.1.3,MacIntel,60,12727,,,,,,,,,,,,,,,,,,,,,,,,,,,,,,,,,,,,,0,20,20,34,1,,,,,,,,,,,,,,,,,,,,,,,,
,,,,,,,,,,,,l,0.288,Correct!,,,,,,t4.png,t2.png,2,0.0591,21,female ,2020-09-04_23h13.54.988,torte-2b,2020.1.3,MacIntel,60,12727,,,,,,,,,,,,,,,,,,,,,,,,,,,,,,,,,,,,,0,21,21,36,1,,,,,,,,,,,,,,,,,,,,,,,,
,,,,,,,,,,,,a,0.483,Correct!,,,,,,t2.png,t2.png,0,0.98115,21,female ,2020-09-04_23h13.54.988,torte-2b,2020.1.3,MacIntel,60,12727,,,,,,,,,,,,,,,,,,,,,,,,,,,,,,,,,,,,,0,22,22,7,1,,,,,,,,,,,,,,,,,,,,,,,,
,,,,,,,,,,,,a,0.7,Incorrect,,,,,,t5.png,t2.png,3,0.0000131,21,female ,2020-09-04_23h13.54.988,torte-2b,2020.1.3,MacIntel,60,12727,,,,,,,,,,,,,,,,,,,,,,,,,,,,,,,,,,,,,0,23,23,91,1,,,,,,,,,,,,,,,,,,,,,,,,
,,,,,,,,,,,,l,0.699,Correct!,,,,,,t2.png,t4.png,2,0.059078,21,female ,2020-09-04_23h13.54.988,torte-2b,2020.1.3,MacIntel,60,12727,,,,,,,,,,,,,,,,,,,,,,,,,,,,,,,,,,,,,0,24,24,37,1,,,,,,,,,,,,,,,,,,,,,,,,
,,,,,,,,,,,,a,0.539,Correct!,,,,,,t5.png,t4.png,1,0.9,21,female ,2020-09-04_23h13.54.988,torte-2b,2020.1.3,MacIntel,60,12727,,,,,,,,,,,,,,,,,,,,,,,,,,,,,,,,,,,,,0,25,25,49,1,,,,,,,,,,,,,,,,,,,,,,,,
,,,,,,,,,,,,l,0.256,Incorrect,,,,,,t2.png,t3.png,1,0.90855,21,female ,2020-09-04_23h13.54.988,torte-2b,2020.1.3,MacIntel,60,12727,,,,,,,,,,,,,,,,,,,,,,,,,,,,,,,,,,,,,0,26,26,65,1,,,,,,,,,,,,,,,,,,,,,,,,
,,,,,,,,,,,,a,0.298,Incorrect,,,,,,t4.png,t2.png,2,0.059078,21,female ,2020-09-04_23h13.54.988,torte-2b,2020.1.3,MacIntel,60,12727,,,,,,,,,,,,,,,,,,,,,,,,,,,,,,,,,,,,,0,27,27,110,1,,,,,,,,,,,,,,,,,,,,,,,,
,,,,,,,,,,,,l,0.257,Incorrect,,,,,,t3.png,t2.png,1,0.90855,21,female ,2020-09-04_23h13.54.988,torte-2b,2020.1.3,MacIntel,60,12727,,,,,,,,,,,,,,,,,,,,,,,,,,,,,,,,,,,,,0,28,28,53,1,,,,,,,,,,,,,,,,,,,,,,,,
,,,,,,,,,,,,l,0.748,Correct!,,,,,,t3.png,t5.png,2,0.056466,21,female ,2020-09-04_23h13.54.988,torte-2b,2020.1.3,MacIntel,60,12727,,,,,,,,,,,,,,,,,,,,,,,,,,,,,,,,,,,,,0,29,29,14,1,,,,,,,,,,,,,,,,,,,,,,,,
,,,,,,,,,,,,a,0.034,Correct!,,,,,,t2.png,t1.png,1,0.90025,21,female ,2020-09-04_23h13.54.988,torte-2b,2020.1.3,MacIntel,60,12727,,,,,,,,,,,,,,,,,,,,,,,,,,,,,,,,,,,,,0,30,30,62,1,,,,,,,,,,,,,,,,,,,,,,,,
,,,,,,,,,,,,l,0.367,Correct!,,,,,,t5.png,t1.png,4,9.55E-11,21,female ,2020-09-04_23h13.54.988,torte-2b,2020.1.3,MacIntel,60,12727,,,,,,,,,,,,,,,,,,,,,,,,,,,,,,,,,,,,,0,31,31,102,1,,,,,,,,,,,,,,,,,,,,,,,,
,,,,,,,,,,,,a,0.254,Incorrect,,,,,,t4.png,t1.png,3,0.0000131,21,female ,2020-09-04_23h13.54.988,torte-2b,2020.1.3,MacIntel,60,12727,,,,,,,,,,,,,,,,,,,,,,,,,,,,,,,,,,,,,0,32,32,48,1,,,,,,,,,,,,,,,,,,,,,,,,
,,,,,,,,,,,,l,0.371,Correct!,,,,,,t5.png,t2.png,3,0.0000131,21,female ,2020-09-04_23h13.54.988,torte-2b,2020.1.3,MacIntel,60,12727,,,,,,,,,,,,,,,,,,,,,,,,,,,,,,,,,,,,,0,33,33,98,1,,,,,,,,,,,,,,,,,,,,,,,,
,,,,,,,,,,,,a,0.316,Incorrect,,,,,,t5.png,t2.png,3,0.0000131,21,female ,2020-09-04_23h13.54.988,torte-2b,2020.1.3,MacIntel,60,12727,,,,,,,,,,,,,,,,,,,,,,,,,,,,,,,,,,,,,0,34,34,51,1,,,,,,,,,,,,,,,,,,,,,,,,
,,,,,,,,,,,,l,0.516,Incorrect,,,,,,t5.png,t5.png,0,0.97829,21,female ,2020-09-04_23h13.54.988,torte-2b,2020.1.3,MacIntel,60,12727,,,,,,,,,,,,,,,,,,,,,,,,,,,,,,,,,,,,,0,35,35,25,1,,,,,,,,,,,,,,,,,,,,,,,,
,,,,,,,,,,,,a,0.332,Correct!,,,,,,t4.png,t3.png,1,0.90855,21,female ,2020-09-04_23h13.54.988,torte-2b,2020.1.3,MacIntel,60,12727,,,,,,,,,,,,,,,,,,,,,,,,,,,,,,,,,,,,,0,36,36,35,1,,,,,,,,,,,,,,,,,,,,,,,,
,,,,,,,,,,,,l,0.308,Correct!,,,,,,t4.png,t3.png,1,0.909,21,female ,2020-09-04_23h13.54.988,torte-2b,2020.1.3,MacIntel,60,12727,,,,,,,,,,,,,,,,,,,,,,,,,,,,,,,,,,,,,0,37,37,46,1,,,,,,,,,,,,,,,,,,,,,,,,
,,,,,,,,,,,,l,0.383,Correct!,,,,,,t4.png,t2.png,2,0.059078,21,female ,2020-09-04_23h13.54.988,torte-2b,2020.1.3,MacIntel,60,12727,,,,,,,,,,,,,,,,,,,,,,,,,,,,,,,,,,,,,0,38,38,109,1,,,,,,,,,,,,,,,,,,,,,,,,
,,,,,,,,,,,,a,0.066,Correct!,,,,,,t4.png,t3.png,1,0.90855,21,female ,2020-09-04_23h13.54.988,torte-2b,2020.1.3,MacIntel,60,12727,,,,,,,,,,,,,,,,,,,,,,,,,,,,,,,,,,,,,0,39,39,45,1,,,,,,,,,,,,,,,,,,,,,,,,
,,,,,,,,,,,,l,0.172,Incorrect,,,,,,t2.png,t2.png,0,0.98115,21,female ,2020-09-04_23h13.54.988,torte-2b,2020.1.3,MacIntel,60,12727,,,,,,,,,,,,,,,,,,,,,,,,,,,,,,,,,,,,,0,40,40,2,1,,,,,,,,,,,,,,,,,,,,,,,,
,,,,,,,,,,,,a,0.207,Correct!,,,,,,t4.png,t5.png,1,0.9,21,female ,2020-09-04_23h13.54.988,torte-2b,2020.1.3,MacIntel,60,12727,,,,,,,,,,,,,,,,,,,,,,,,,,,,,,,,,,,,,0,41,41,115,1,,,,,,,,,,,,,,,,,,,,,,,,
,,,,,,,,,,,,l,0.524,Correct!,,,,,,t2.png,t5.png,3,0.0000131,21,female ,2020-09-04_23h13.54.988,torte-2b,2020.1.3,MacIntel,60,12727,,,,,,,,,,,,,,,,,,,,,,,,,,,,,,,,,,,,,0,42,42,104,1,,,,,,,,,,,,,,,,,,,,,,,,
,,,,,,,,,,,,a,0.855,Correct!,,,,,,t5.png,t5.png,0,0.97829,21,female ,2020-09-04_23h13.54.988,torte-2b,2020.1.3,MacIntel,60,12727,,,,,,,,,,,,,,,,,,,,,,,,,,,,,,,,,,,,,0,43,43,70,1,,,,,,,,,,,,,,,,,,,,,,,,
,,,,,,,,,,,,l,0.293,Incorrect,,,,,,t2.png,t4.png,2,0.059078,21,female ,2020-09-04_23h13.54.988,torte-2b,2020.1.3,MacIntel,60,12727,,,,,,,,,,,,,,,,,,,,,,,,,,,,,,,,,,,,,0,44,44,11,1,,,,,,,,,,,,,,,,,,,,,,,,
,,,,,,,,,,,,a,0.616,Correct!,,,,,,t1.png,t1.png,0,0.978,21,female ,2020-09-04_23h13.54.988,torte-2b,2020.1.3,MacIntel,60,12727,,,,,,,,,,,,,,,,,,,,,,,,,,,,,,,,,,,,,0,45,45,54,1,,,,,,,,,,,,,,,,,,,,,,,,
,,,,,,,,,,,,l,1.118,Correct!,,,,,,t1.png,t3.png,2,0.056466,21,female ,2020-09-04_23h13.54.988,torte-2b,2020.1.3,MacIntel,60,12727,,,,,,,,,,,,,,,,,,,,,,,,,,,,,,,,,,,,,0,46,46,99,1,,,,,,,,,,,,,,,,,,,,,,,,
,,,,,,,,,,,,l,0.515,Incorrect,,,,,,t2.png,t1.png,1,0.9,21,female ,2020-09-04_23h13.54.988,torte-2b,2020.1.3,MacIntel,60,12727,,,,,,,,,,,,,,,,,,,,,,,,,,,,,,,,,,,,,0,47,47,118,1,,,,,,,,,,,,,,,,,,,,,,,,
,,,,,,,,,,,,a,0.025,Correct!,,,,,,t2.png,t2.png,0,0.98115,21,female ,2020-09-04_23h13.54.988,torte-2b,2020.1.3,MacIntel,60,12727,,,,,,,,,,,,,,,,,,,,,,,,,,,,,,,,,,,,,0,48,48,59,1,,,,,,,,,,,,,,,,,,,,,,,,
,,,,,,,,,,,,l,0.299,Incorrect,,,,,,t4.png,t5.png,1,0.90025,21,female ,2020-09-04_23h13.54.988,torte-2b,2020.1.3,MacIntel,60,12727,,,,,,,,,,,,,,,,,,,,,,,,,,,,,,,,,,,,,0,49,49,103,1,,,,,,,,,,,,,,,,,,,,,,,,
,,,,,,,,,,,,a,0.555,Correct!,,,,,,t2.png,t3.png,1,0.90855,21,female ,2020-09-04_23h13.54.988,torte-2b,2020.1.3,MacIntel,60,12727,,,,,,,,,,,,,,,,,,,,,,,,,,,,,,,,,,,,,0,50,50,68,1,,,,,,,,,,,,,,,,,,,,,,,,
,,,,,,,,,,,,l,0.634,Correct!,,,,,,t3.png,t1.png,2,0.056466,21,female ,2020-09-04_23h13.54.988,torte-2b,2020.1.3,MacIntel,60,12727,,,,,,,,,,,,,,,,,,,,,,,,,,,,,,,,,,,,,0,51,51,29,1,,,,,,,,,,,,,,,,,,,,,,,,
,,,,,,,,,,,,a,0.389,Correct!,,,,,,t1.png,t2.png,1,0.90025,21,female ,2020-09-04_23h13.54.988,torte-2b,2020.1.3,MacIntel,60,12727,,,,,,,,,,,,,,,,,,,,,,,,,,,,,,,,,,,,,0,52,52,33,1,,,,,,,,,,,,,,,,,,,,,,,,
,,,,,,,,,,,,a,0.5,Incorrect,,,,,,t1.png,t5.png,4,9.55E-11,21,female ,2020-09-04_23h13.54.988,torte-2b,2020.1.3,MacIntel,60,12727,,,,,,,,,,,,,,,,,,,,,,,,,,,,,,,,,,,,,0,53,53,85,1,,,,,,,,,,,,,,,,,,,,,,,,
,,,,,,,,,,,,l,0.566,Correct!,,,,,,t1.png,t5.png,4,9.55E-11,21,female ,2020-09-04_23h13.54.988,torte-2b,2020.1.3,MacIntel,60,12727,,,,,,,,,,,,,,,,,,,,,,,,,,,,,,,,,,,,,0,54,54,41,1,,,,,,,,,,,,,,,,,,,,,,,,
,,,,,,,,,,,,a,0.45,Incorrect,,,,,,t5.png,t1.png,4,9.55E-11,21,female ,2020-09-04_23h13.54.988,torte-2b,2020.1.3,MacIntel,60,12727,,,,,,,,,,,,,,,,,,,,,,,,,,,,,,,,,,,,,0,55,55,22,1,,,,,,,,,,,,,,,,,,,,,,,,
,,,,,,,,,,,,l,0.315,Incorrect,,,,,,t4.png,t4.png,0,0.98115,21,female ,2020-09-04_23h13.54.988,torte-2b,2020.1.3,MacIntel,60,12727,,,,,,,,,,,,,,,,,,,,,,,,,,,,,,,,,,,,,0,56,56,21,1,,,,,,,,,,,,,,,,,,,,,,,,
,,,,,,,,,,,,a,0.432,Incorrect,,,,,,t1.png,t3.png,2,0.056466,21,female ,2020-09-04_23h13.54.988,torte-2b,2020.1.3,MacIntel,60,12727,,,,,,,,,,,,,,,,,,,,,,,,,,,,,,,,,,,,,0,57,57,87,1,,,,,,,,,,,,,,,,,,,,,,,,
,,,,,,,,,,,,l,0.417,Incorrect,,,,,,t3.png,t4.png,1,0.909,21,female ,2020-09-04_23h13.54.988,torte-2b,2020.1.3,MacIntel,60,12727,,,,,,,,,,,,,,,,,,,,,,,,,,,,,,,,,,,,,0,58,58,106,1,,,,,,,,,,,,,,,,,,,,,,,,
,,,,,,,,,,,,a,0.333,Correct!,,,,,,t4.png,t3.png,1,0.909,21,female ,2020-09-04_23h13.54.988,torte-2b,2020.1.3,MacIntel,60,12727,,,,,,,,,,,,,,,,,,,,,,,,,,,,,,,,,,,,,0,59,59,20,1,,,,,,,,,,,,,,,,,,,,,,,,
,,,,,,,,,,,,l,0.704,Correct!,,,,,,t2.png,t4.png,2,0.0591,21,female ,2020-09-04_23h13.54.988,torte-2b,2020.1.3,MacIntel,60,12727,,,,,,,,,,,,,,,,,,,,,,,,,,,,,,,,,,,,,0,60,60,15,1,,,,,,,,,,,,,,,,,,,,,,,,
,,,,,,,,,,,,a,0.517,Incorrect,,,,,,t1.png,t4.png,3,0.0000131,21,female ,2020-09-04_23h13.54.988,torte-2b,2020.1.3,MacIntel,60,12727,,,,,,,,,,,,,,,,,,,,,,,,,,,,,,,,,,,,,0,61,61,92,1,,,,,,,,,,,,,,,,,,,,,,,,
,,,,,,,,,,,,,,Too slow :(,,,,,,t5.png,t3.png,2,0.056466,21,female ,2020-09-04_23h13.54.988,torte-2b,2020.1.3,MacIntel,60,12727,,,,,,,,,,,,,,,,,,,,,,,,,,,,,,,,,,,,,0,62,62,56,1,,,,,,,,,,,,,,,,,,,,,,,,
,,,,,,,,,,,,a,0.217,Correct!,,,,,,t4.png,t4.png,0,0.98115,21,female ,2020-09-04_23h13.54.988,torte-2b,2020.1.3,MacIntel,60,12727,,,,,,,,,,,,,,,,,,,,,,,,,,,,,,,,,,,,,0,63,63,79,1,,,,,,,,,,,,,,,,,,,,,,,,
,,,,,,,,,,,,l,2.402,Correct!,,,,,,t2.png,t5.png,3,0.0000131,21,female ,2020-09-04_23h13.54.988,torte-2b,2020.1.3,MacIntel,60,12727,,,,,,,,,,,,,,,,,,,,,,,,,,,,,,,,,,,,,0,64,64,8,1,,,,,,,,,,,,,,,,,,,,,,,,
,,,,,,,,,,,,l,0.467,Correct!,,,,,,t5.png,t2.png,3,0.0000131,21,female ,2020-09-04_23h13.54.988,torte-2b,2020.1.3,MacIntel,60,12727,,,,,,,,,,,,,,,,,,,,,,,,,,,,,,,,,,,,,0,65,65,119,1,,,,,,,,,,,,,,,,,,,,,,,,
,,,,,,,,,,,,a,0.468,Correct!,,,,,,t1.png,t1.png,0,0.97829,21,female ,2020-09-04_23h13.54.988,torte-2b,2020.1.3,MacIntel,60,12727,,,,,,,,,,,,,,,,,,,,,,,,,,,,,,,,,,,,,0,66,66,9,1,,,,,,,,,,,,,,,,,,,,,,,,
,,,,,,,,,,,,l,1.668,Incorrect,,,,,,t5.png,t4.png,1,0.90025,21,female ,2020-09-04_23h13.54.988,torte-2b,2020.1.3,MacIntel,60,12727,,,,,,,,,,,,,,,,,,,,,,,,,,,,,,,,,,,,,0,67,67,27,1,,,,,,,,,,,,,,,,,,,,,,,,
,,,,,,,,,,,,l,0.866,Incorrect,,,,,,t4.png,t3.png,1,0.90855,21,female ,2020-09-04_23h13.54.988,torte-2b,2020.1.3,MacIntel,60,12727,,,,,,,,,,,,,,,,,,,,,,,,,,,,,,,,,,,,,0,68,68,75,1,,,,,,,,,,,,,,,,,,,,,,,,
,,,,,,,,,,,,a,1.339,Correct!,,,,,,t2.png,t2.png,0,0.98115,21,female ,2020-09-04_23h13.54.988,torte-2b,2020.1.3,MacIntel,60,12727,,,,,,,,,,,,,,,,,,,,,,,,,,,,,,,,,,,,,0,69,69,57,1,,,,,,,,,,,,,,,,,,,,,,,,
,,,,,,,,,,,,l,0.667,Correct!,,,,,,t1.png,t4.png,3,0.0000131,21,female ,2020-09-04_23h13.54.988,torte-2b,2020.1.3,MacIntel,60,12727,,,,,,,,,,,,,,,,,,,,,,,,,,,,,,,,,,,,,0,70,70,81,1,,,,,,,,,,,,,,,,,,,,,,,,
,,,,,,,,,,,,a,0.356,Incorrect,,,,,,t5.png,t3.png,2,0.0565,21,female ,2020-09-04_23h13.54.988,torte-2b,2020.1.3,MacIntel,60,12727,,,,,,,,,,,,,,,,,,,,,,,,,,,,,,,,,,,,,0,71,71,39,1,,,,,,,,,,,,,,,,,,,,,,,,
,,,,,,,,,,,,a,0.473,Correct!,,,,,,t1.png,t2.png,1,0.90025,21,female ,2020-09-04_23h13.54.988,torte-2b,2020.1.3,MacIntel,60,12727,,,,,,,,,,,,,,,,,,,,,,,,,,,,,,,,,,,,,0,72,72,72,1,,,,,,,,,,,,,,,,,,,,,,,,
,,,,,,,,,,,,l,0.739,Correct!,,,,,,t1.png,t4.png,3,0.0000131,21,female ,2020-09-04_23h13.54.988,torte-2b,2020.1.3,MacIntel,60,12727,,,,,,,,,,,,,,,,,,,,,,,,,,,,,,,,,,,,,0,73,73,107,1,,,,,,,,,,,,,,,,,,,,,,,,
,,,,,,,,,,,,a,0.587,Incorrect,,,,,,t5.png,t1.png,4,9.55E-11,21,female ,2020-09-04_23h13.54.988,torte-2b,2020.1.3,MacIntel,60,12727,,,,,,,,,,,,,,,,,,,,,,,,,,,,,,,,,,,,,0,74,74,71,1,,,,,,,,,,,,,,,,,,,,,,,,
,,,,,,,,,,,,l,0.421,Incorrect,,,,,,t3.png,t4.png,1,0.90855,21,female ,2020-09-04_23h13.54.988,torte-2b,2020.1.3,MacIntel,60,12727,,,,,,,,,,,,,,,,,,,,,,,,,,,,,,,,,,,,,0,75,75,96,1,,,,,,,,,,,,,,,,,,,,,,,,
,,,,,,,,,,,,a,0.416,Incorrect,,,,,,t2.png,t5.png,3,0.0000131,21,female ,2020-09-04_23h13.54.988,torte-2b,2020.1.3,MacIntel,60,12727,,,,,,,,,,,,,,,,,,,,,,,,,,,,,,,,,,,,,0,76,76,40,1,,,,,,,,,,,,,,,,,,,,,,,,
,,,,,,,,,,,,l,0.64,Incorrect,,,,,,t3.png,t2.png,1,0.909,21,female ,2020-09-04_23h13.54.988,torte-2b,2020.1.3,MacIntel,60,12727,,,,,,,,,,,,,,,,,,,,,,,,,,,,,,,,,,,,,0,77,77,3,1,,,,,,,,,,,,,,,,,,,,,,,,
,,,,,,,,,,,,a,0.516,Correct!,,,,,,t3.png,t2.png,1,0.909,21,female ,2020-09-04_23h13.54.988,torte-2b,2020.1.3,MacIntel,60,12727,,,,,,,,,,,,,,,,,,,,,,,,,,,,,,,,,,,,,0,78,78,23,1,,,,,,,,,,,,,,,,,,,,,,,,
,,,,,,,,,,,,,,Too slow :(,,,,,,t1.png,t1.png,0,0.978,21,female ,2020-09-04_23h13.54.988,torte-2b,2020.1.3,MacIntel,60,12727,,,,,,,,,,,,,,,,,,,,,,,,,,,,,,,,,,,,,0,79,79,28,1,,,,,,,,,,,,,,,,,,,,,,,,
,,,,,,,,,,,,a,0.317,Correct!,,,,,,t4.png,t5.png,1,0.90025,21,female ,2020-09-04_23h13.54.988,torte-2b,2020.1.3,MacIntel,60,12727,,,,,,,,,,,,,,,,,,,,,,,,,,,,,,,,,,,,,0,80,80,47,1,,,,,,,,,,,,,,,,,,,,,,,,
,,,,,,,,,,,,l,1.966,Correct!,,,,,,t1.png,t3.png,2,0.056466,21,female ,2020-09-04_23h13.54.988,torte-2b,2020.1.3,MacIntel,60,12727,,,,,,,,,,,,,,,,,,,,,,,,,,,,,,,,,,,,,0,81,81,63,1,,,,,,,,,,,,,,,,,,,,,,,,
,,,,,,,,,,,,a,0.782,Incorrect,,,,,,t4.png,t1.png,3,0.0000131,21,female ,2020-09-04_23h13.54.988,torte-2b,2020.1.3,MacIntel,60,12727,,,,,,,,,,,,,,,,,,,,,,,,,,,,,,,,,,,,,0,82,82,13,1,,,,,,,,,,,,,,,,,,,,,,,,
,,,,,,,,,,,,a,1.339,Correct!,,,,,,t4.png,t5.png,1,0.90025,21,female ,2020-09-04_23h13.54.988,torte-2b,2020.1.3,MacIntel,60,12727,,,,,,,,,,,,,,,,,,,,,,,,,,,,,,,,,,,,,0,83,83,113,1,,,,,,,,,,,,,,,,,,,,,,,,
,,,,,,,,,,,,a,0.538,Correct!,,,,,,t3.png,t2.png,1,0.90855,21,female ,2020-09-04_23h13.54.988,torte-2b,2020.1.3,MacIntel,60,12727,,,,,,,,,,,,,,,,,,,,,,,,,,,,,,,,,,,,,0,84,84,18,1,,,,,,,,,,,,,,,,,,,,,,,,
,,,,,,,,,,,,l,0.418,Incorrect,,,,,,t2.png,t3.png,1,0.90855,21,female ,2020-09-04_23h13.54.988,torte-2b,2020.1.3,MacIntel,60,12727,,,,,,,,,,,,,,,,,,,,,,,,,,,,,,,,,,,,,0,85,85,10,1,,,,,,,,,,,,,,,,,,,,,,,,
,,,,,,,,,,,,a,0.466,Incorrect,,,,,,t3.png,t5.png,2,0.056466,21,female ,2020-09-04_23h13.54.988,torte-2b,2020.1.3,MacIntel,60,12727,,,,,,,,,,,,,,,,,,,,,,,,,,,,,,,,,,,,,0,86,86,44,1,,,,,,,,,,,,,,,,,,,,,,,,
,,,,,,,,,,,,l,0.365,Incorrect,,,,,,t1.png,t3.png,2,0.056466,21,female ,2020-09-04_23h13.54.988,torte-2b,2020.1.3,MacIntel,60,12727,,,,,,,,,,,,,,,,,,,,,,,,,,,,,,,,,,,,,0,87,87,60,1,,,,,,,,,,,,,,,,,,,,,,,,
,,,,,,,,,,,,a,0.283,Correct!,,,,,,t1.png,t2.png,1,0.9,21,female ,2020-09-04_23h13.54.988,torte-2b,2020.1.3,MacIntel,60,12727,,,,,,,,,,,,,,,,,,,,,,,,,,,,,,,,,,,,,0,88,88,1,1,,,,,,,,,,,,,,,,,,,,,,,,
,,,,,,,,,,,,l,0.55,Incorrect,,,,,,t3.png,t5.png,2,0.0565,21,female ,2020-09-04_23h13.54.988,torte-2b,2020.1.3,MacIntel,60,12727,,,,,,,,,,,,,,,,,,,,,,,,,,,,,,,,,,,,,0,89,89,30,1,,,,,,,,,,,,,,,,,,,,,,,,
,,,,,,,,,,,,a,0.289,Incorrect,,,,,,t3.png,t5.png,2,0.0565,21,female ,2020-09-04_23h13.54.988,torte-2b,2020.1.3,MacIntel,60,12727,,,,,,,,,,,,,,,,,,,,,,,,,,,,,,,,,,,,,0,90,90,83,1,,,,,,,,,,,,,,,,,,,,,,,,
,,,,,,,,,,,,l,0.652,Correct!,,,,,,t5.png,t1.png,4,9.55E-11,21,female ,2020-09-04_23h13.54.988,torte-2b,2020.1.3,MacIntel,60,12727,,,,,,,,,,,,,,,,,,,,,,,,,,,,,,,,,,,,,0,91,91,100,1,,,,,,,,,,,,,,,,,,,,,,,,
,,,,,,,,,,,,a,0.356,Incorrect,,,,,,t3.png,t5.png,2,0.056466,21,female ,2020-09-04_23h13.54.988,torte-2b,2020.1.3,MacIntel,60,12727,,,,,,,,,,,,,,,,,,,,,,,,,,,,,,,,,,,,,0,92,92,6,1,,,,,,,,,,,,,,,,,,,,,,,,
,,,,,,,,,,,,l,0.666,Incorrect,,,,,,t5.png,t5.png,0,0.978,21,female ,2020-09-04_23h13.54.988,torte-2b,2020.1.3,MacIntel,60,12727,,,,,,,,,,,,,,,,,,,,,,,,,,,,,,,,,,,,,0,93,93,117,1,,,,,,,,,,,,,,,,,,,,,,,,
,,,,,,,,,,,,a,0.605,Incorrect,,,,,,t2.png,t5.png,3,0.0000131,21,female ,2020-09-04_23h13.54.988,torte-2b,2020.1.3,MacIntel,60,12727,,,,,,,,,,,,,,,,,,,,,,,,,,,,,,,,,,,,,0,94,94,66,1,,,,,,,,,,,,,,,,,,,,,,,,
,,,,,,,,,,,,l,0.5,Incorrect,,,,,,t5.png,t5.png,0,0.97829,21,female ,2020-09-04_23h13.54.988,torte-2b,2020.1.3,MacIntel,60,12727,,,,,,,,,,,,,,,,,,,,,,,,,,,,,,,,,,,,,0,95,95,94,1,,,,,,,,,,,,,,,,,,,,,,,,
,,,,,,,,,,,,a,0.454,Incorrect,,,,,,t4.png,t2.png,2,0.059078,21,female ,2020-09-04_23h13.54.988,torte-2b,2020.1.3,MacIntel,60,12727,,,,,,,,,,,,,,,,,,,,,,,,,,,,,,,,,,,,,0,96,96,88,1,,,,,,,,,,,,,,,,,,,,,,,,
,,,,,,,,,,,,l,0.524,Incorrect,,,,,,t2.png,t3.png,1,0.90855,21,female ,2020-09-04_23h13.54.988,torte-2b,2020.1.3,MacIntel,60,12727,,,,,,,,,,,,,,,,,,,,,,,,,,,,,,,,,,,,,0,97,97,111,1,,,,,,,,,,,,,,,,,,,,,,,,
,,,,,,,,,,,,a,0.357,Correct!,,,,,,t3.png,t2.png,1,0.90855,21,female ,2020-09-04_23h13.54.988,torte-2b,2020.1.3,MacIntel,60,12727,,,,,,,,,,,,,,,,,,,,,,,,,,,,,,,,,,,,,0,98,98,97,1,,,,,,,,,,,,,,,,,,,,,,,,
,,,,,,,,,,,,l,0.383,Incorrect,,,,,,t4.png,t4.png,0,0.98115,21,female ,2020-09-04_23h13.54.988,torte-2b,2020.1.3,MacIntel,60,12727,,,,,,,,,,,,,,,,,,,,,,,,,,,,,,,,,,,,,0,99,99,52,1,,,,,,,,,,,,,,,,,,,,,,,,
,,,,,,,,,,,,a,0.348,Correct!,,,,,,t4.png,t5.png,1,0.90025,21,female ,2020-09-04_23h13.54.988,torte-2b,2020.1.3,MacIntel,60,12727,,,,,,,,,,,,,,,,,,,,,,,,,,,,,,,,,,,,,0,100,100,58,1,,,,,,,,,,,,,,,,,,,,,,,,
,,,,,,,,,,,,l,0.568,Incorrect,,,,,,t2.png,t1.png,1,0.90025,21,female ,2020-09-04_23h13.54.988,torte-2b,2020.1.3,MacIntel,60,12727,,,,,,,,,,,,,,,,,,,,,,,,,,,,,,,,,,,,,0,101,101,19,1,,,,,,,,,,,,,,,,,,,,,,,,
,,,,,,,,,,,,a,0.306,Incorrect,,,,,,t5.png,t2.png,3,0.0000131,21,female ,2020-09-04_23h13.54.988,torte-2b,2020.1.3,MacIntel,60,12727,,,,,,,,,,,,,,,,,,,,,,,,,,,,,,,,,,,,,0,102,102,116,1,,,,,,,,,,,,,,,,,,,,,,,,
,,,,,,,,,,,,l,0.32,Correct!,,,,,,t3.png,t1.png,2,0.056466,21,female ,2020-09-04_23h13.54.988,torte-2b,2020.1.3,MacIntel,60,12727,,,,,,,,,,,,,,,,,,,,,,,,,,,,,,,,,,,,,0,103,103,0,1,,,,,,,,,,,,,,,,,,,,,,,,
,,,,,,,,,,,,a,0.227,Correct!,,,,,,t3.png,t4.png,1,0.909,21,female ,2020-09-04_23h13.54.988,torte-2b,2020.1.3,MacIntel,60,12727,,,,,,,,,,,,,,,,,,,,,,,,,,,,,,,,,,,,,0,104,104,82,1,,,,,,,,,,,,,,,,,,,,,,,,
,,,,,,,,,,,,l,0.407,Incorrect,,,,,,t2.png,t4.png,2,0.059078,21,female ,2020-09-04_23h13.54.988,torte-2b,2020.1.3,MacIntel,60,12727,,,,,,,,,,,,,,,,,,,,,,,,,,,,,,,,,,,,,0,105,105,77,1,,,,,,,,,,,,,,,,,,,,,,,,
,,,,,,,,,,,,a,0.355,Correct!,,,,,,t2.png,t1.png,1,0.90025,21,female ,2020-09-04_23h13.54.988,torte-2b,2020.1.3,MacIntel,60,12727,,,,,,,,,,,,,,,,,,,,,,,,,,,,,,,,,,,,,0,106,106,4,1,,,,,,,,,,,,,,,,,,,,,,,,
,,,,,,,,,,,,l,0.398,Incorrect,,,,,,t2.png,t2.png,0,0.981,21,female ,2020-09-04_23h13.54.988,torte-2b,2020.1.3,MacIntel,60,12727,,,,,,,,,,,,,,,,,,,,,,,,,,,,,,,,,,,,,0,107,107,101,1,,,,,,,,,,,,,,,,,,,,,,,,
,,,,,,,,,,,,l,0.758,Incorrect,,,,,,t1.png,t2.png,1,0.90025,21,female ,2020-09-04_23h13.54.988,torte-2b,2020.1.3,MacIntel,60,12727,,,,,,,,,,,,,,,,,,,,,,,,,,,,,,,,,,,,,0,108,108,112,1,,,,,,,,,,,,,,,,,,,,,,,,
,,,,,,,,,,,,l,0.389,Correct!,,,,,,t4.png,t2.png,2,0.059078,21,female ,2020-09-04_23h13.54.988,torte-2b,2020.1.3,MacIntel,60,12727,,,,,,,,,,,,,,,,,,,,,,,,,,,,,,,,,,,,,0,109,109,86,1,,,,,,,,,,,,,,,,,,,,,,,,
,,,,,,,,,,,,a,0.137,Correct!,,,,,,t2.png,t1.png,1,0.90025,21,female ,2020-09-04_23h13.54.988,torte-2b,2020.1.3,MacIntel,60,12727,,,,,,,,,,,,,,,,,,,,,,,,,,,,,,,,,,,,,0,110,110,5,1,,,,,,,,,,,,,,,,,,,,,,,,
,,,,,,,,,,,,l,0.249,Correct!,,,,,,t5.png,t3.png,2,0.056466,21,female ,2020-09-04_23h13.54.988,torte-2b,2020.1.3,MacIntel,60,12727,,,,,,,,,,,,,,,,,,,,,,,,,,,,,,,,,,,,,0,111,111,114,1,,,,,,,,,,,,,,,,,,,,,,,,
,,,,,,,,,,,,a,0.337,Correct!,,,,,,t1.png,t1.png,0,0.97829,21,female ,2020-09-04_23h13.54.988,torte-2b,2020.1.3,MacIntel,60,12727,,,,,,,,,,,,,,,,,,,,,,,,,,,,,,,,,,,,,0,112,112,67,1,,,,,,,,,,,,,,,,,,,,,,,,
,,,,,,,,,,,,l,0.049,Correct!,,,,,,t4.png,t1.png,3,0.0000131,21,female ,2020-09-04_23h13.54.988,torte-2b,2020.1.3,MacIntel,60,12727,,,,,,,,,,,,,,,,,,,,,,,,,,,,,,,,,,,,,0,113,113,61,1,,,,,,,,,,,,,,,,,,,,,,,,
,,,,,,,,,,,,a,0.482,Incorrect,,,,,,t1.png,t5.png,4,9.55E-11,21,female ,2020-09-04_23h13.54.988,torte-2b,2020.1.3,MacIntel,60,12727,,,,,,,,,,,,,,,,,,,,,,,,,,,,,,,,,,,,,0,114,114,55,1,,,,,,,,,,,,,,,,,,,,,,,,
,,,,,,,,,,,,l,1.049,Correct!,,,,,,t5.png,t3.png,2,0.056466,21,female ,2020-09-04_23h13.54.988,torte-2b,2020.1.3,MacIntel,60,12727,,,,,,,,,,,,,,,,,,,,,,,,,,,,,,,,,,,,,0,115,115,38,1,,,,,,,,,,,,,,,,,,,,,,,,
,,,,,,,,,,,,l,0.365,Incorrect,,,,,,t4.png,t4.png,0,0.98115,21,female ,2020-09-04_23h13.54.988,torte-2b,2020.1.3,MacIntel,60,12727,,,,,,,,,,,,,,,,,,,,,,,,,,,,,,,,,,,,,0,116,116,90,1,,,,,,,,,,,,,,,,,,,,,,,,
,,,,,,,,,,,,l,0.399,Correct!,,,,,,t1.png,t3.png,2,0.056466,21,female ,2020-09-04_23h13.54.988,torte-2b,2020.1.3,MacIntel,60,12727,,,,,,,,,,,,,,,,,,,,,,,,,,,,,,,,,,,,,0,117,117,69,1,,,,,,,,,,,,,,,,,,,,,,,,
,,,,,,,,,,,,l,0.449,Incorrect,,,,,,t3.png,t4.png,1,0.909,21,female ,2020-09-04_23h13.54.988,torte-2b,2020.1.3,MacIntel,60,12727,,,,,,,,,,,,,,,,,,,,,,,,,,,,,,,,,,,,,0,118,118,89,1,,,,,,,,,,,,,,,,,,,,,,,,
,,,,,,,,,,,,a,0.448,Correct!,,,,,,t3.png,t4.png,1,0.90855,21,female ,2020-09-04_23h13.54.988,torte-2b,2020.1.3,MacIntel,60,12727,,,,,,,,,,,,,,,,,,,,,,,,,,,,,,,,,,,,,0,119,119,84,1,,,,,,,,,,,,,,,,,,,,,,,,
,,,,,,,,,,,,,,,,,,,,,,,,21,female ,2020-09-04_23h13.54.988,torte-2b,2020.1.3,MacIntel,60,12727,space,1.273,,,,,,,,,,,,,,,,,,,,,,,,,,,,,,,,,,,,,,,,-141,187,1,0,0,s1,-24,-41,1,0,0,t3,144,-99,1,0,0,proceed,space,1.08,space,4.646,space,0.003
