key_resp_8.keys,key_resp_8.rt,key_resp_9.keys,key_resp_9.rt,key_resp_10.keys,key_resp_10.rt,key_resp_11.keys,key_resp_11.rt,key_resp_2.keys,key_resp_2.rt,key_resp_3.keys,key_resp_3.rt,key_resp.keys,Feedback,train.thisRepN,train.thisTrialN,train.thisN,train.thisIndex,train.ran,torta_sx,torta_dx,difference,probability,age,gender,date,expName,psychopyVersion,OS,frameRate,participant,key_resp.rt,key_resp_15.keys,key_resp_15.rt,key_resp_6.keys,key_resp_6.rt,test1.thisRepN,test1.thisTrialN,test1.thisN,test1.thisIndex,test1.ran,key_resp_4.keys,key_resp_4.rt,key_resp_5.keys,back1.thisRepN,back1.thisTrialN,back1.thisN,back1.thisIndex,back1.ran,letter,key_resp_5.rt,back2.thisRepN,back2.thisTrialN,back2.thisN,back2.thisIndex,back2.ran,back3.thisRepN,back3.thisTrialN,back3.thisN,back3.thisIndex,back3.ran,back4.thisRepN,back4.thisTrialN,back4.thisN,back4.thisIndex,back4.ran,key_resp_7.keys,key_resp_7.rt,test2.thisRepN,test2.thisTrialN,test2.thisN,test2.thisIndex,test2.ran,mouse.x,mouse.y,mouse.leftButton,mouse.midButton,mouse.rightButton,mouse.clicked_name,mouse_2.x,mouse_2.y,mouse_2.leftButton,mouse_2.midButton,mouse_2.rightButton,mouse_2.clicked_name,mouse_3.x,mouse_3.y,mouse_3.leftButton,mouse_3.midButton,mouse_3.rightButton,mouse_3.clicked_name,key_resp_12.keys,key_resp_12.rt,key_resp_13.keys,key_resp_13.rt,key_resp_14.keys,key_resp_14.rt
space,27.795765,space,15.831185,space,4.356955,space,6.337025,space,14.249895,space,31.26516,,Too slow :(,0,0,0,45,1,t3.png,t2.png,1,0.90855,21,Male,2020-11-24_15h52.49.226,torte-2b,2020.1.3,Win32,60,12812,,,,,,,,,,,,,,,,,,,,,,,,,,,,,,,,,,,,,,,,,,,,,,,,,,,,,,,,,,,,,,,,,,
,,,,,,,,,,,,l,Incorrect,0,1,1,77,1,t1.png,t1.png,0,0.97829,21,Male,2020-11-24_15h52.49.226,torte-2b,2020.1.3,Win32,60,12812,0.781,,,,,,,,,,,,,,,,,,,,,,,,,,,,,,,,,,,,,,,,,,,,,,,,,,,,,,,,,,,,,,,,,
,,,,,,,,,,,,l,Incorrect,0,2,2,76,1,t3.png,t2.png,1,0.90855,21,Male,2020-11-24_15h52.49.226,torte-2b,2020.1.3,Win32,60,12812,0.62095,,,,,,,,,,,,,,,,,,,,,,,,,,,,,,,,,,,,,,,,,,,,,,,,,,,,,,,,,,,,,,,,,
,,,,,,,,,,,,l,Correct!,0,3,3,17,1,t1.png,t4.png,3,0.0000131,21,Male,2020-11-24_15h52.49.226,torte-2b,2020.1.3,Win32,60,12812,0.53791,,,,,,,,,,,,,,,,,,,,,,,,,,,,,,,,,,,,,,,,,,,,,,,,,,,,,,,,,,,,,,,,,
,,,,,,,,,,,,l,Incorrect,0,4,4,109,1,t5.png,t5.png,0,0.97829,21,Male,2020-11-24_15h52.49.226,torte-2b,2020.1.3,Win32,60,12812,1.13055,,,,,,,,,,,,,,,,,,,,,,,,,,,,,,,,,,,,,,,,,,,,,,,,,,,,,,,,,,,,,,,,,
,,,,,,,,,,,,l,Correct!,0,5,5,115,1,t2.png,t4.png,2,0.059078,21,Male,2020-11-24_15h52.49.226,torte-2b,2020.1.3,Win32,60,12812,0.79934,,,,,,,,,,,,,,,,,,,,,,,,,,,,,,,,,,,,,,,,,,,,,,,,,,,,,,,,,,,,,,,,,
,,,,,,,,,,,,l,Incorrect,0,6,6,100,1,t4.png,t5.png,1,0.90025,21,Male,2020-11-24_15h52.49.226,torte-2b,2020.1.3,Win32,60,12812,0.871975,,,,,,,,,,,,,,,,,,,,,,,,,,,,,,,,,,,,,,,,,,,,,,,,,,,,,,,,,,,,,,,,,
,,,,,,,,,,,,l,Incorrect,0,7,7,106,1,t2.png,t3.png,1,0.90855,21,Male,2020-11-24_15h52.49.226,torte-2b,2020.1.3,Win32,60,12812,1.06382,,,,,,,,,,,,,,,,,,,,,,,,,,,,,,,,,,,,,,,,,,,,,,,,,,,,,,,,,,,,,,,,,
,,,,,,,,,,,,a,Incorrect,0,8,8,56,1,t5.png,t1.png,4,9.55E-11,21,Male,2020-11-24_15h52.49.226,torte-2b,2020.1.3,Win32,60,12812,0.634125,,,,,,,,,,,,,,,,,,,,,,,,,,,,,,,,,,,,,,,,,,,,,,,,,,,,,,,,,,,,,,,,,
,,,,,,,,,,,,a,Correct!,0,9,9,112,1,t1.png,t1.png,0,0.97829,21,Male,2020-11-24_15h52.49.226,torte-2b,2020.1.3,Win32,60,12812,0.869465,,,,,,,,,,,,,,,,,,,,,,,,,,,,,,,,,,,,,,,,,,,,,,,,,,,,,,,,,,,,,,,,,
,,,,,,,,,,,,a,Incorrect,0,10,10,6,1,t1.png,t4.png,3,0.0000131,21,Male,2020-11-24_15h52.49.226,torte-2b,2020.1.3,Win32,60,12812,1.01741,,,,,,,,,,,,,,,,,,,,,,,,,,,,,,,,,,,,,,,,,,,,,,,,,,,,,,,,,,,,,,,,,
,,,,,,,,,,,,l,Incorrect,0,11,11,7,1,t4.png,t5.png,1,0.90025,21,Male,2020-11-24_15h52.49.226,torte-2b,2020.1.3,Win32,60,12812,0.873105,,,,,,,,,,,,,,,,,,,,,,,,,,,,,,,,,,,,,,,,,,,,,,,,,,,,,,,,,,,,,,,,,
,,,,,,,,,,,,l,Correct!,0,12,12,54,1,t1.png,t5.png,4,9.55E-11,21,Male,2020-11-24_15h52.49.226,torte-2b,2020.1.3,Win32,60,12812,1.4841,,,,,,,,,,,,,,,,,,,,,,,,,,,,,,,,,,,,,,,,,,,,,,,,,,,,,,,,,,,,,,,,,
,,,,,,,,,,,,l,Correct!,0,13,13,61,1,t1.png,t4.png,3,0.0000131,21,Male,2020-11-24_15h52.49.226,torte-2b,2020.1.3,Win32,60,12812,0.988135,,,,,,,,,,,,,,,,,,,,,,,,,,,,,,,,,,,,,,,,,,,,,,,,,,,,,,,,,,,,,,,,,
,,,,,,,,,,,,a,Incorrect,0,14,14,82,1,t5.png,t1.png,4,9.55E-11,21,Male,2020-11-24_15h52.49.226,torte-2b,2020.1.3,Win32,60,12812,0.751805,,,,,,,,,,,,,,,,,,,,,,,,,,,,,,,,,,,,,,,,,,,,,,,,,,,,,,,,,,,,,,,,,
,,,,,,,,,,,,a,Correct!,0,15,15,118,1,t5.png,t5.png,0,0.978,21,Male,2020-11-24_15h52.49.226,torte-2b,2020.1.3,Win32,60,12812,1.016665,,,,,,,,,,,,,,,,,,,,,,,,,,,,,,,,,,,,,,,,,,,,,,,,,,,,,,,,,,,,,,,,,
,,,,,,,,,,,,a,Incorrect,0,16,16,26,1,t4.png,t2.png,2,0.0591,21,Male,2020-11-24_15h52.49.226,torte-2b,2020.1.3,Win32,60,12812,0.939045,,,,,,,,,,,,,,,,,,,,,,,,,,,,,,,,,,,,,,,,,,,,,,,,,,,,,,,,,,,,,,,,,
,,,,,,,,,,,,l,Incorrect,0,17,17,32,1,t4.png,t5.png,1,0.90025,21,Male,2020-11-24_15h52.49.226,torte-2b,2020.1.3,Win32,60,12812,0.8586,,,,,,,,,,,,,,,,,,,,,,,,,,,,,,,,,,,,,,,,,,,,,,,,,,,,,,,,,,,,,,,,,
,,,,,,,,,,,,l,Correct!,0,18,18,38,1,t3.png,t1.png,2,0.056466,21,Male,2020-11-24_15h52.49.226,torte-2b,2020.1.3,Win32,60,12812,0.96313,,,,,,,,,,,,,,,,,,,,,,,,,,,,,,,,,,,,,,,,,,,,,,,,,,,,,,,,,,,,,,,,,
,,,,,,,,,,,,l,Incorrect,0,19,19,84,1,t1.png,t1.png,0,0.97829,21,Male,2020-11-24_15h52.49.226,torte-2b,2020.1.3,Win32,60,12812,0.773005,,,,,,,,,,,,,,,,,,,,,,,,,,,,,,,,,,,,,,,,,,,,,,,,,,,,,,,,,,,,,,,,,
,,,,,,,,,,,,l,Correct!,0,20,20,31,1,t1.png,t5.png,4,9.55E-11,21,Male,2020-11-24_15h52.49.226,torte-2b,2020.1.3,Win32,60,12812,1.059975,,,,,,,,,,,,,,,,,,,,,,,,,,,,,,,,,,,,,,,,,,,,,,,,,,,,,,,,,,,,,,,,,
,,,,,,,,,,,,a,Incorrect,0,21,21,44,1,t2.png,t3.png,1,0.909,21,Male,2020-11-24_15h52.49.226,torte-2b,2020.1.3,Win32,60,12812,1.07035,,,,,,,,,,,,,,,,,,,,,,,,,,,,,,,,,,,,,,,,,,,,,,,,,,,,,,,,,,,,,,,,,
,,,,,,,,,,,,l,Incorrect,0,22,22,107,1,t1.png,t1.png,0,0.978,21,Male,2020-11-24_15h52.49.226,torte-2b,2020.1.3,Win32,60,12812,0.77723,,,,,,,,,,,,,,,,,,,,,,,,,,,,,,,,,,,,,,,,,,,,,,,,,,,,,,,,,,,,,,,,,
,,,,,,,,,,,,l,Incorrect,0,23,23,41,1,t3.png,t2.png,1,0.90855,21,Male,2020-11-24_15h52.49.226,torte-2b,2020.1.3,Win32,60,12812,1.01619,,,,,,,,,,,,,,,,,,,,,,,,,,,,,,,,,,,,,,,,,,,,,,,,,,,,,,,,,,,,,,,,,
,,,,,,,,,,,,a,Correct!,0,24,24,75,1,t1.png,t1.png,0,0.97829,21,Male,2020-11-24_15h52.49.226,torte-2b,2020.1.3,Win32,60,12812,1.27315,,,,,,,,,,,,,,,,,,,,,,,,,,,,,,,,,,,,,,,,,,,,,,,,,,,,,,,,,,,,,,,,,
,,,,,,,,,,,,a,Incorrect,0,25,25,113,1,t5.png,t4.png,1,0.9,21,Male,2020-11-24_15h52.49.226,torte-2b,2020.1.3,Win32,60,12812,2.093575,,,,,,,,,,,,,,,,,,,,,,,,,,,,,,,,,,,,,,,,,,,,,,,,,,,,,,,,,,,,,,,,,
,,,,,,,,,,,,a,Incorrect,0,26,26,80,1,t1.png,t4.png,3,0.0000131,21,Male,2020-11-24_15h52.49.226,torte-2b,2020.1.3,Win32,60,12812,1.228825,,,,,,,,,,,,,,,,,,,,,,,,,,,,,,,,,,,,,,,,,,,,,,,,,,,,,,,,,,,,,,,,,
,,,,,,,,,,,,l,Correct!,0,27,27,103,1,t3.png,t1.png,2,0.056466,21,Male,2020-11-24_15h52.49.226,torte-2b,2020.1.3,Win32,60,12812,1.681405,,,,,,,,,,,,,,,,,,,,,,,,,,,,,,,,,,,,,,,,,,,,,,,,,,,,,,,,,,,,,,,,,
,,,,,,,,,,,,l,Correct!,0,28,28,98,1,t2.png,t4.png,2,0.0591,21,Male,2020-11-24_15h52.49.226,torte-2b,2020.1.3,Win32,60,12812,0.977095,,,,,,,,,,,,,,,,,,,,,,,,,,,,,,,,,,,,,,,,,,,,,,,,,,,,,,,,,,,,,,,,,
,,,,,,,,,,,,l,Incorrect,0,29,29,114,1,t2.png,t3.png,1,0.90855,21,Male,2020-11-24_15h52.49.226,torte-2b,2020.1.3,Win32,60,12812,1.91352,,,,,,,,,,,,,,,,,,,,,,,,,,,,,,,,,,,,,,,,,,,,,,,,,,,,,,,,,,,,,,,,,
,,,,,,,,,,,,l,Correct!,0,30,30,94,1,t5.png,t1.png,4,9.55E-11,21,Male,2020-11-24_15h52.49.226,torte-2b,2020.1.3,Win32,60,12812,1.2746,,,,,,,,,,,,,,,,,,,,,,,,,,,,,,,,,,,,,,,,,,,,,,,,,,,,,,,,,,,,,,,,,
,,,,,,,,,,,,a,Correct!,0,31,31,62,1,t5.png,t5.png,0,0.978,21,Male,2020-11-24_15h52.49.226,torte-2b,2020.1.3,Win32,60,12812,1.156185,,,,,,,,,,,,,,,,,,,,,,,,,,,,,,,,,,,,,,,,,,,,,,,,,,,,,,,,,,,,,,,,,
,,,,,,,,,,,,a,Correct!,0,32,32,96,1,t1.png,t1.png,0,0.97829,21,Male,2020-11-24_15h52.49.226,torte-2b,2020.1.3,Win32,60,12812,1.41289,,,,,,,,,,,,,,,,,,,,,,,,,,,,,,,,,,,,,,,,,,,,,,,,,,,,,,,,,,,,,,,,,
,,,,,,,,,,,,a,Incorrect,0,33,33,81,1,t1.png,t1.png,0,0.97829,21,Male,2020-11-24_15h52.49.226,torte-2b,2020.1.3,Win32,60,12812,0.821015,,,,,,,,,,,,,,,,,,,,,,,,,,,,,,,,,,,,,,,,,,,,,,,,,,,,,,,,,,,,,,,,,
,,,,,,,,,,,,a,Correct!,0,34,34,64,1,t1.png,t1.png,0,0.978,21,Male,2020-11-24_15h52.49.226,torte-2b,2020.1.3,Win32,60,12812,0.58995,,,,,,,,,,,,,,,,,,,,,,,,,,,,,,,,,,,,,,,,,,,,,,,,,,,,,,,,,,,,,,,,,
,,,,,,,,,,,,l,Correct!,0,35,35,57,1,t2.png,t4.png,2,0.059078,21,Male,2020-11-24_15h52.49.226,torte-2b,2020.1.3,Win32,60,12812,1.220515,,,,,,,,,,,,,,,,,,,,,,,,,,,,,,,,,,,,,,,,,,,,,,,,,,,,,,,,,,,,,,,,,
,,,,,,,,,,,,l,Correct!,0,36,36,50,1,t5.png,t1.png,4,9.55E-11,21,Male,2020-11-24_15h52.49.226,torte-2b,2020.1.3,Win32,60,12812,1.464,,,,,,,,,,,,,,,,,,,,,,,,,,,,,,,,,,,,,,,,,,,,,,,,,,,,,,,,,,,,,,,,,
,,,,,,,,,,,,l,Incorrect,0,37,37,58,1,t5.png,t4.png,1,0.90025,21,Male,2020-11-24_15h52.49.226,torte-2b,2020.1.3,Win32,60,12812,1.75621,,,,,,,,,,,,,,,,,,,,,,,,,,,,,,,,,,,,,,,,,,,,,,,,,,,,,,,,,,,,,,,,,
,,,,,,,,,,,,a,Correct!,0,38,38,104,1,t2.png,t3.png,1,0.90855,21,Male,2020-11-24_15h52.49.226,torte-2b,2020.1.3,Win32,60,12812,1.60873,,,,,,,,,,,,,,,,,,,,,,,,,,,,,,,,,,,,,,,,,,,,,,,,,,,,,,,,,,,,,,,,,
,,,,,,,,,,,,a,Incorrect,0,39,39,69,1,t4.png,t2.png,2,0.059078,21,Male,2020-11-24_15h52.49.226,torte-2b,2020.1.3,Win32,60,12812,1.35116,,,,,,,,,,,,,,,,,,,,,,,,,,,,,,,,,,,,,,,,,,,,,,,,,,,,,,,,,,,,,,,,,
,,,,,,,,,,,,a,Incorrect,0,40,40,93,1,t2.png,t4.png,2,0.059078,21,Male,2020-11-24_15h52.49.226,torte-2b,2020.1.3,Win32,60,12812,1.500525,,,,,,,,,,,,,,,,,,,,,,,,,,,,,,,,,,,,,,,,,,,,,,,,,,,,,,,,,,,,,,,,,
,,,,,,,,,,,,a,Incorrect,0,41,41,11,1,t1.png,t4.png,3,0.0000131,21,Male,2020-11-24_15h52.49.226,torte-2b,2020.1.3,Win32,60,12812,1.564075,,,,,,,,,,,,,,,,,,,,,,,,,,,,,,,,,,,,,,,,,,,,,,,,,,,,,,,,,,,,,,,,,
,,,,,,,,,,,,a,Correct!,0,42,42,71,1,t5.png,t5.png,0,0.97829,21,Male,2020-11-24_15h52.49.226,torte-2b,2020.1.3,Win32,60,12812,1.216985,,,,,,,,,,,,,,,,,,,,,,,,,,,,,,,,,,,,,,,,,,,,,,,,,,,,,,,,,,,,,,,,,
,,,,,,,,,,,,l,Correct!,0,43,43,51,1,t3.png,t1.png,2,0.056466,21,Male,2020-11-24_15h52.49.226,torte-2b,2020.1.3,Win32,60,12812,0.870005,,,,,,,,,,,,,,,,,,,,,,,,,,,,,,,,,,,,,,,,,,,,,,,,,,,,,,,,,,,,,,,,,
,,,,,,,,,,,,a,Correct!,0,44,44,95,1,t1.png,t1.png,0,0.978,21,Male,2020-11-24_15h52.49.226,torte-2b,2020.1.3,Win32,60,12812,1.22763,,,,,,,,,,,,,,,,,,,,,,,,,,,,,,,,,,,,,,,,,,,,,,,,,,,,,,,,,,,,,,,,,
,,,,,,,,,,,,a,Incorrect,0,45,45,87,1,t5.png,t1.png,4,9.55E-11,21,Male,2020-11-24_15h52.49.226,torte-2b,2020.1.3,Win32,60,12812,1.35535,,,,,,,,,,,,,,,,,,,,,,,,,,,,,,,,,,,,,,,,,,,,,,,,,,,,,,,,,,,,,,,,,
,,,,,,,,,,,,a,Incorrect,0,46,46,68,1,t1.png,t4.png,3,0.0000131,21,Male,2020-11-24_15h52.49.226,torte-2b,2020.1.3,Win32,60,12812,1.385395,,,,,,,,,,,,,,,,,,,,,,,,,,,,,,,,,,,,,,,,,,,,,,,,,,,,,,,,,,,,,,,,,
,,,,,,,,,,,,l,Correct!,0,47,47,5,1,t2.png,t4.png,2,0.059078,21,Male,2020-11-24_15h52.49.226,torte-2b,2020.1.3,Win32,60,12812,1.41727,,,,,,,,,,,,,,,,,,,,,,,,,,,,,,,,,,,,,,,,,,,,,,,,,,,,,,,,,,,,,,,,,
,,,,,,,,,,,,l,Correct!,0,48,48,117,1,t1.png,t5.png,4,9.55E-11,21,Male,2020-11-24_15h52.49.226,torte-2b,2020.1.3,Win32,60,12812,1.019125,,,,,,,,,,,,,,,,,,,,,,,,,,,,,,,,,,,,,,,,,,,,,,,,,,,,,,,,,,,,,,,,,
,,,,,,,,,,,,l,Incorrect,0,49,49,9,1,t4.png,t5.png,1,0.9,21,Male,2020-11-24_15h52.49.226,torte-2b,2020.1.3,Win32,60,12812,1.13684,,,,,,,,,,,,,,,,,,,,,,,,,,,,,,,,,,,,,,,,,,,,,,,,,,,,,,,,,,,,,,,,,
,,,,,,,,,,,,l,Correct!,0,50,50,24,1,t4.png,t2.png,2,0.059078,21,Male,2020-11-24_15h52.49.226,torte-2b,2020.1.3,Win32,60,12812,1.234535,,,,,,,,,,,,,,,,,,,,,,,,,,,,,,,,,,,,,,,,,,,,,,,,,,,,,,,,,,,,,,,,,
,,,,,,,,,,,,a,Correct!,0,51,51,13,1,t5.png,t5.png,0,0.97829,21,Male,2020-11-24_15h52.49.226,torte-2b,2020.1.3,Win32,60,12812,0.808525,,,,,,,,,,,,,,,,,,,,,,,,,,,,,,,,,,,,,,,,,,,,,,,,,,,,,,,,,,,,,,,,,
,,,,,,,,,,,,a,Incorrect,0,52,52,37,1,t1.png,t4.png,3,0.0000131,21,Male,2020-11-24_15h52.49.226,torte-2b,2020.1.3,Win32,60,12812,1.038935,,,,,,,,,,,,,,,,,,,,,,,,,,,,,,,,,,,,,,,,,,,,,,,,,,,,,,,,,,,,,,,,,
,,,,,,,,,,,,a,Correct!,0,53,53,10,1,t2.png,t3.png,1,0.90855,21,Male,2020-11-24_15h52.49.226,torte-2b,2020.1.3,Win32,60,12812,0.90497,,,,,,,,,,,,,,,,,,,,,,,,,,,,,,,,,,,,,,,,,,,,,,,,,,,,,,,,,,,,,,,,,
,,,,,,,,,,,,a,Correct!,0,54,54,101,1,t4.png,t5.png,1,0.90025,21,Male,2020-11-24_15h52.49.226,torte-2b,2020.1.3,Win32,60,12812,2.09302,,,,,,,,,,,,,,,,,,,,,,,,,,,,,,,,,,,,,,,,,,,,,,,,,,,,,,,,,,,,,,,,,
,,,,,,,,,,,,l,Incorrect,0,55,55,116,1,t5.png,t4.png,1,0.90025,21,Male,2020-11-24_15h52.49.226,torte-2b,2020.1.3,Win32,60,12812,2.196285,,,,,,,,,,,,,,,,,,,,,,,,,,,,,,,,,,,,,,,,,,,,,,,,,,,,,,,,,,,,,,,,,
,,,,,,,,,,,,a,Incorrect,0,56,56,12,1,t5.png,t1.png,4,9.55E-11,21,Male,2020-11-24_15h52.49.226,torte-2b,2020.1.3,Win32,60,12812,1.17642,,,,,,,,,,,,,,,,,,,,,,,,,,,,,,,,,,,,,,,,,,,,,,,,,,,,,,,,,,,,,,,,,
,,,,,,,,,,,,a,Incorrect,0,57,57,19,1,t4.png,t2.png,2,0.059078,21,Male,2020-11-24_15h52.49.226,torte-2b,2020.1.3,Win32,60,12812,1.12225,,,,,,,,,,,,,,,,,,,,,,,,,,,,,,,,,,,,,,,,,,,,,,,,,,,,,,,,,,,,,,,,,
,,,,,,,,,,,,l,Incorrect,0,58,58,85,1,t3.png,t2.png,1,0.90855,21,Male,2020-11-24_15h52.49.226,torte-2b,2020.1.3,Win32,60,12812,1.12994,,,,,,,,,,,,,,,,,,,,,,,,,,,,,,,,,,,,,,,,,,,,,,,,,,,,,,,,,,,,,,,,,
,,,,,,,,,,,,a,Correct!,0,59,59,74,1,t5.png,t4.png,1,0.9,21,Male,2020-11-24_15h52.49.226,torte-2b,2020.1.3,Win32,60,12812,1.623865,,,,,,,,,,,,,,,,,,,,,,,,,,,,,,,,,,,,,,,,,,,,,,,,,,,,,,,,,,,,,,,,,
,,,,,,,,,,,,a,Correct!,0,60,60,16,1,t5.png,t4.png,1,0.9,21,Male,2020-11-24_15h52.49.226,torte-2b,2020.1.3,Win32,60,12812,0.66608,,,,,,,,,,,,,,,,,,,,,,,,,,,,,,,,,,,,,,,,,,,,,,,,,,,,,,,,,,,,,,,,,
,,,,,,,,,,,,l,Correct!,0,61,61,60,1,t2.png,t4.png,2,0.059078,21,Male,2020-11-24_15h52.49.226,torte-2b,2020.1.3,Win32,60,12812,1.178995,,,,,,,,,,,,,,,,,,,,,,,,,,,,,,,,,,,,,,,,,,,,,,,,,,,,,,,,,,,,,,,,,
,,,,,,,,,,,,l,Correct!,0,62,62,1,1,t2.png,t4.png,2,0.059078,21,Male,2020-11-24_15h52.49.226,torte-2b,2020.1.3,Win32,60,12812,0.54032,,,,,,,,,,,,,,,,,,,,,,,,,,,,,,,,,,,,,,,,,,,,,,,,,,,,,,,,,,,,,,,,,
,,,,,,,,,,,,a,Correct!,0,63,63,15,1,t3.png,t2.png,1,0.90855,21,Male,2020-11-24_15h52.49.226,torte-2b,2020.1.3,Win32,60,12812,1.10991,,,,,,,,,,,,,,,,,,,,,,,,,,,,,,,,,,,,,,,,,,,,,,,,,,,,,,,,,,,,,,,,,
,,,,,,,,,,,,l,Correct!,0,64,64,83,1,t3.png,t1.png,2,0.056466,21,Male,2020-11-24_15h52.49.226,torte-2b,2020.1.3,Win32,60,12812,1.347765,,,,,,,,,,,,,,,,,,,,,,,,,,,,,,,,,,,,,,,,,,,,,,,,,,,,,,,,,,,,,,,,,
,,,,,,,,,,,,a,Correct!,0,65,65,2,1,t3.png,t2.png,1,0.90855,21,Male,2020-11-24_15h52.49.226,torte-2b,2020.1.3,Win32,60,12812,0.4701,,,,,,,,,,,,,,,,,,,,,,,,,,,,,,,,,,,,,,,,,,,,,,,,,,,,,,,,,,,,,,,,,
,,,,,,,,,,,,l,Correct!,0,66,66,91,1,t1.png,t4.png,3,0.0000131,21,Male,2020-11-24_15h52.49.226,torte-2b,2020.1.3,Win32,60,12812,0.62117,,,,,,,,,,,,,,,,,,,,,,,,,,,,,,,,,,,,,,,,,,,,,,,,,,,,,,,,,,,,,,,,,
,,,,,,,,,,,,l,Incorrect,0,67,67,63,1,t2.png,t3.png,1,0.909,21,Male,2020-11-24_15h52.49.226,torte-2b,2020.1.3,Win32,60,12812,1.012935,,,,,,,,,,,,,,,,,,,,,,,,,,,,,,,,,,,,,,,,,,,,,,,,,,,,,,,,,,,,,,,,,
,,,,,,,,,,,,l,Correct!,0,68,68,89,1,t1.png,t4.png,3,0.0000131,21,Male,2020-11-24_15h52.49.226,torte-2b,2020.1.3,Win32,60,12812,0.625385,,,,,,,,,,,,,,,,,,,,,,,,,,,,,,,,,,,,,,,,,,,,,,,,,,,,,,,,,,,,,,,,,
,,,,,,,,,,,,a,Correct!,0,69,69,28,1,t2.png,t3.png,1,0.909,21,Male,2020-11-24_15h52.49.226,torte-2b,2020.1.3,Win32,60,12812,0.59951,,,,,,,,,,,,,,,,,,,,,,,,,,,,,,,,,,,,,,,,,,,,,,,,,,,,,,,,,,,,,,,,,
,,,,,,,,,,,,a,Incorrect,0,70,70,55,1,t2.png,t4.png,2,0.059078,21,Male,2020-11-24_15h52.49.226,torte-2b,2020.1.3,Win32,60,12812,0.71597,,,,,,,,,,,,,,,,,,,,,,,,,,,,,,,,,,,,,,,,,,,,,,,,,,,,,,,,,,,,,,,,,
,,,,,,,,,,,,l,Correct!,0,71,71,0,1,t5.png,t1.png,4,9.55E-11,21,Male,2020-11-24_15h52.49.226,torte-2b,2020.1.3,Win32,60,12812,1.05612,,,,,,,,,,,,,,,,,,,,,,,,,,,,,,,,,,,,,,,,,,,,,,,,,,,,,,,,,,,,,,,,,
,,,,,,,,,,,,l,Correct!,0,72,72,53,1,t3.png,t1.png,2,0.056466,21,Male,2020-11-24_15h52.49.226,torte-2b,2020.1.3,Win32,60,12812,0.60469,,,,,,,,,,,,,,,,,,,,,,,,,,,,,,,,,,,,,,,,,,,,,,,,,,,,,,,,,,,,,,,,,
,,,,,,,,,,,,l,Incorrect,0,73,73,78,1,t1.png,t1.png,0,0.978,21,Male,2020-11-24_15h52.49.226,torte-2b,2020.1.3,Win32,60,12812,0.761875,,,,,,,,,,,,,,,,,,,,,,,,,,,,,,,,,,,,,,,,,,,,,,,,,,,,,,,,,,,,,,,,,
,,,,,,,,,,,,l,Correct!,0,74,74,111,1,t5.png,t1.png,4,9.55E-11,21,Male,2020-11-24_15h52.49.226,torte-2b,2020.1.3,Win32,60,12812,0.73894,,,,,,,,,,,,,,,,,,,,,,,,,,,,,,,,,,,,,,,,,,,,,,,,,,,,,,,,,,,,,,,,,
,,,,,,,,,,,,a,Incorrect,0,75,75,90,1,t1.png,t5.png,4,9.55E-11,21,Male,2020-11-24_15h52.49.226,torte-2b,2020.1.3,Win32,60,12812,0.835135,,,,,,,,,,,,,,,,,,,,,,,,,,,,,,,,,,,,,,,,,,,,,,,,,,,,,,,,,,,,,,,,,
,,,,,,,,,,,,a,Correct!,0,76,76,20,1,t2.png,t3.png,1,0.90855,21,Male,2020-11-24_15h52.49.226,torte-2b,2020.1.3,Win32,60,12812,0.671535,,,,,,,,,,,,,,,,,,,,,,,,,,,,,,,,,,,,,,,,,,,,,,,,,,,,,,,,,,,,,,,,,
,,,,,,,,,,,,l,Correct!,0,77,77,27,1,t3.png,t1.png,2,0.0565,21,Male,2020-11-24_15h52.49.226,torte-2b,2020.1.3,Win32,60,12812,0.59177,,,,,,,,,,,,,,,,,,,,,,,,,,,,,,,,,,,,,,,,,,,,,,,,,,,,,,,,,,,,,,,,,
,,,,,,,,,,,,a,Incorrect,0,78,78,86,1,t3.png,t1.png,2,0.056466,21,Male,2020-11-24_15h52.49.226,torte-2b,2020.1.3,Win32,60,12812,0.33347,,,,,,,,,,,,,,,,,,,,,,,,,,,,,,,,,,,,,,,,,,,,,,,,,,,,,,,,,,,,,,,,,
,,,,,,,,,,,,a,Correct!,0,79,79,65,1,t4.png,t5.png,1,0.90025,21,Male,2020-11-24_15h52.49.226,torte-2b,2020.1.3,Win32,60,12812,0.63342,,,,,,,,,,,,,,,,,,,,,,,,,,,,,,,,,,,,,,,,,,,,,,,,,,,,,,,,,,,,,,,,,
,,,,,,,,,,,,l,Correct!,0,80,80,72,1,t4.png,t2.png,2,0.059078,21,Male,2020-11-24_15h52.49.226,torte-2b,2020.1.3,Win32,60,12812,0.46449,,,,,,,,,,,,,,,,,,,,,,,,,,,,,,,,,,,,,,,,,,,,,,,,,,,,,,,,,,,,,,,,,
,,,,,,,,,,,,a,Incorrect,0,81,81,47,1,t4.png,t2.png,2,0.059078,21,Male,2020-11-24_15h52.49.226,torte-2b,2020.1.3,Win32,60,12812,0.326185,,,,,,,,,,,,,,,,,,,,,,,,,,,,,,,,,,,,,,,,,,,,,,,,,,,,,,,,,,,,,,,,,
,,,,,,,,,,,,a,Correct!,0,82,82,97,1,t5.png,t5.png,0,0.97829,21,Male,2020-11-24_15h52.49.226,torte-2b,2020.1.3,Win32,60,12812,1.202155,,,,,,,,,,,,,,,,,,,,,,,,,,,,,,,,,,,,,,,,,,,,,,,,,,,,,,,,,,,,,,,,,
,,,,,,,,,,,,l,Correct!,0,83,83,40,1,t1.png,t5.png,4,9.55E-11,21,Male,2020-11-24_15h52.49.226,torte-2b,2020.1.3,Win32,60,12812,0.842455,,,,,,,,,,,,,,,,,,,,,,,,,,,,,,,,,,,,,,,,,,,,,,,,,,,,,,,,,,,,,,,,,
,,,,,,,,,,,,a,Correct!,0,84,84,29,1,t5.png,t5.png,0,0.97829,21,Male,2020-11-24_15h52.49.226,torte-2b,2020.1.3,Win32,60,12812,0.4865,,,,,,,,,,,,,,,,,,,,,,,,,,,,,,,,,,,,,,,,,,,,,,,,,,,,,,,,,,,,,,,,,
,,,,,,,,,,,,a,Incorrect,0,85,85,102,1,t4.png,t2.png,2,0.059078,21,Male,2020-11-24_15h52.49.226,torte-2b,2020.1.3,Win32,60,12812,0.510195,,,,,,,,,,,,,,,,,,,,,,,,,,,,,,,,,,,,,,,,,,,,,,,,,,,,,,,,,,,,,,,,,
,,,,,,,,,,,,l,Correct!,0,86,86,108,1,t5.png,t1.png,4,9.55E-11,21,Male,2020-11-24_15h52.49.226,torte-2b,2020.1.3,Win32,60,12812,0.58231,,,,,,,,,,,,,,,,,,,,,,,,,,,,,,,,,,,,,,,,,,,,,,,,,,,,,,,,,,,,,,,,,
,,,,,,,,,,,,a,Incorrect,0,87,87,67,1,t1.png,t5.png,4,9.55E-11,21,Male,2020-11-24_15h52.49.226,torte-2b,2020.1.3,Win32,60,12812,0.85028,,,,,,,,,,,,,,,,,,,,,,,,,,,,,,,,,,,,,,,,,,,,,,,,,,,,,,,,,,,,,,,,,
,,,,,,,,,,,,a,Incorrect,0,88,88,46,1,t4.png,t2.png,2,0.059078,21,Male,2020-11-24_15h52.49.226,torte-2b,2020.1.3,Win32,60,12812,0.655685,,,,,,,,,,,,,,,,,,,,,,,,,,,,,,,,,,,,,,,,,,,,,,,,,,,,,,,,,,,,,,,,,
,,,,,,,,,,,,l,Correct!,0,89,89,73,1,t4.png,t2.png,2,0.059078,21,Male,2020-11-24_15h52.49.226,torte-2b,2020.1.3,Win32,60,12812,0.665995,,,,,,,,,,,,,,,,,,,,,,,,,,,,,,,,,,,,,,,,,,,,,,,,,,,,,,,,,,,,,,,,,
,,,,,,,,,,,,l,Correct!,0,90,90,33,1,t5.png,t1.png,4,9.55E-11,21,Male,2020-11-24_15h52.49.226,torte-2b,2020.1.3,Win32,60,12812,0.746685,,,,,,,,,,,,,,,,,,,,,,,,,,,,,,,,,,,,,,,,,,,,,,,,,,,,,,,,,,,,,,,,,
,,,,,,,,,,,,a,Incorrect,0,91,91,30,1,t3.png,t1.png,2,0.056466,21,Male,2020-11-24_15h52.49.226,torte-2b,2020.1.3,Win32,60,12812,1.03732,,,,,,,,,,,,,,,,,,,,,,,,,,,,,,,,,,,,,,,,,,,,,,,,,,,,,,,,,,,,,,,,,
,,,,,,,,,,,,l,Correct!,0,92,92,48,1,t5.png,t5.png,0,0.97829,21,Male,2020-11-24_15h52.49.226,torte-2b,2020.1.3,Win32,60,12812,1.35932,,,,,,,,,,,,,,,,,,,,,,,,,,,,,,,,,,,,,,,,,,,,,,,,,,,,,,,,,,,,,,,,,
,,,,,,,,,,,,l,Incorrect,0,93,93,25,1,t5.png,t5.png,0,0.97829,21,Male,2020-11-24_15h52.49.226,torte-2b,2020.1.3,Win32,60,12812,0.65344,,,,,,,,,,,,,,,,,,,,,,,,,,,,,,,,,,,,,,,,,,,,,,,,,,,,,,,,,,,,,,,,,
,,,,,,,,,,,,a,Correct!,0,94,94,105,1,t3.png,t2.png,1,0.90855,21,Male,2020-11-24_15h52.49.226,torte-2b,2020.1.3,Win32,60,12812,0.29056,,,,,,,,,,,,,,,,,,,,,,,,,,,,,,,,,,,,,,,,,,,,,,,,,,,,,,,,,,,,,,,,,
,,,,,,,,,,,,a,Incorrect,0,95,95,59,1,t5.png,t4.png,1,0.9,21,Male,2020-11-24_15h52.49.226,torte-2b,2020.1.3,Win32,60,12812,0.280965,,,,,,,,,,,,,,,,,,,,,,,,,,,,,,,,,,,,,,,,,,,,,,,,,,,,,,,,,,,,,,,,,
,,,,,,,,,,,,a,Correct!,0,96,96,66,1,t4.png,t5.png,1,0.9,21,Male,2020-11-24_15h52.49.226,torte-2b,2020.1.3,Win32,60,12812,0.330855,,,,,,,,,,,,,,,,,,,,,,,,,,,,,,,,,,,,,,,,,,,,,,,,,,,,,,,,,,,,,,,,,
,,,,,,,,,,,,a,Correct!,0,97,97,110,1,t4.png,t5.png,1,0.90025,21,Male,2020-11-24_15h52.49.226,torte-2b,2020.1.3,Win32,60,12812,1.01,,,,,,,,,,,,,,,,,,,,,,,,,,,,,,,,,,,,,,,,,,,,,,,,,,,,,,,,,,,,,,,,,
,,,,,,,,,,,,a,Correct!,0,98,98,23,1,t5.png,t4.png,1,0.90025,21,Male,2020-11-24_15h52.49.226,torte-2b,2020.1.3,Win32,60,12812,1.23792,,,,,,,,,,,,,,,,,,,,,,,,,,,,,,,,,,,,,,,,,,,,,,,,,,,,,,,,,,,,,,,,,
,,,,,,,,,,,,l,Incorrect,0,99,99,22,1,t2.png,t3.png,1,0.90855,21,Male,2020-11-24_15h52.49.226,torte-2b,2020.1.3,Win32,60,12812,1.16211,,,,,,,,,,,,,,,,,,,,,,,,,,,,,,,,,,,,,,,,,,,,,,,,,,,,,,,,,,,,,,,,,
,,,,,,,,,,,,l,Correct!,0,100,100,49,1,t4.png,t5.png,1,0.9,21,Male,2020-11-24_15h52.49.226,torte-2b,2020.1.3,Win32,60,12812,1.120135,,,,,,,,,,,,,,,,,,,,,,,,,,,,,,,,,,,,,,,,,,,,,,,,,,,,,,,,,,,,,,,,,
,,,,,,,,,,,,a,Correct!,0,101,101,18,1,t4.png,t5.png,1,0.90025,21,Male,2020-11-24_15h52.49.226,torte-2b,2020.1.3,Win32,60,12812,1.00316,,,,,,,,,,,,,,,,,,,,,,,,,,,,,,,,,,,,,,,,,,,,,,,,,,,,,,,,,,,,,,,,,
,,,,,,,,,,,,l,Correct!,0,102,102,119,1,t1.png,t5.png,4,9.55E-11,21,Male,2020-11-24_15h52.49.226,torte-2b,2020.1.3,Win32,60,12812,0.96822,,,,,,,,,,,,,,,,,,,,,,,,,,,,,,,,,,,,,,,,,,,,,,,,,,,,,,,,,,,,,,,,,
,,,,,,,,,,,,a,Incorrect,0,103,103,43,1,t4.png,t2.png,2,0.059078,21,Male,2020-11-24_15h52.49.226,torte-2b,2020.1.3,Win32,60,12812,0.348645,,,,,,,,,,,,,,,,,,,,,,,,,,,,,,,,,,,,,,,,,,,,,,,,,,,,,,,,,,,,,,,,,
,,,,,,,,,,,,l,Incorrect,0,104,104,8,1,t3.png,t2.png,1,0.90855,21,Male,2020-11-24_15h52.49.226,torte-2b,2020.1.3,Win32,60,12812,1.55248,,,,,,,,,,,,,,,,,,,,,,,,,,,,,,,,,,,,,,,,,,,,,,,,,,,,,,,,,,,,,,,,,
,,,,,,,,,,,,a,Incorrect,0,105,105,4,1,t1.png,t5.png,4,9.55E-11,21,Male,2020-11-24_15h52.49.226,torte-2b,2020.1.3,Win32,60,12812,0.22823,,,,,,,,,,,,,,,,,,,,,,,,,,,,,,,,,,,,,,,,,,,,,,,,,,,,,,,,,,,,,,,,,
,,,,,,,,,,,,l,Correct!,0,106,106,99,1,t1.png,t5.png,4,9.55E-11,21,Male,2020-11-24_15h52.49.226,torte-2b,2020.1.3,Win32,60,12812,0.8307,,,,,,,,,,,,,,,,,,,,,,,,,,,,,,,,,,,,,,,,,,,,,,,,,,,,,,,,,,,,,,,,,
,,,,,,,,,,,,l,Incorrect,0,107,107,79,1,t3.png,t2.png,1,0.909,21,Male,2020-11-24_15h52.49.226,torte-2b,2020.1.3,Win32,60,12812,0.85529,,,,,,,,,,,,,,,,,,,,,,,,,,,,,,,,,,,,,,,,,,,,,,,,,,,,,,,,,,,,,,,,,
,,,,,,,,,,,,l,Incorrect,0,108,108,34,1,t5.png,t4.png,1,0.9,21,Male,2020-11-24_15h52.49.226,torte-2b,2020.1.3,Win32,60,12812,0.80598,,,,,,,,,,,,,,,,,,,,,,,,,,,,,,,,,,,,,,,,,,,,,,,,,,,,,,,,,,,,,,,,,
,,,,,,,,,,,,a,Incorrect,0,109,109,42,1,t5.png,t4.png,1,0.90025,21,Male,2020-11-24_15h52.49.226,torte-2b,2020.1.3,Win32,60,12812,0.70182,,,,,,,,,,,,,,,,,,,,,,,,,,,,,,,,,,,,,,,,,,,,,,,,,,,,,,,,,,,,,,,,,
,,,,,,,,,,,,l,Incorrect,0,110,110,92,1,t2.png,t3.png,1,0.909,21,Male,2020-11-24_15h52.49.226,torte-2b,2020.1.3,Win32,60,12812,0.7142,,,,,,,,,,,,,,,,,,,,,,,,,,,,,,,,,,,,,,,,,,,,,,,,,,,,,,,,,,,,,,,,,
,,,,,,,,,,,,l,Incorrect,0,111,111,14,1,t2.png,t4.png,2,0.059078,21,Male,2020-11-24_15h52.49.226,torte-2b,2020.1.3,Win32,60,12812,0.950205,,,,,,,,,,,,,,,,,,,,,,,,,,,,,,,,,,,,,,,,,,,,,,,,,,,,,,,,,,,,,,,,,
,,,,,,,,,,,,a,Correct!,0,112,112,70,1,t5.png,t5.png,0,0.978,21,Male,2020-11-24_15h52.49.226,torte-2b,2020.1.3,Win32,60,12812,0.963605,,,,,,,,,,,,,,,,,,,,,,,,,,,,,,,,,,,,,,,,,,,,,,,,,,,,,,,,,,,,,,,,,
,,,,,,,,,,,,a,Correct!,0,113,113,21,1,t5.png,t4.png,1,0.90025,21,Male,2020-11-24_15h52.49.226,torte-2b,2020.1.3,Win32,60,12812,0.636075,,,,,,,,,,,,,,,,,,,,,,,,,,,,,,,,,,,,,,,,,,,,,,,,,,,,,,,,,,,,,,,,,
,,,,,,,,,,,,a,Incorrect,0,114,114,3,1,t1.png,t5.png,4,9.55E-11,21,Male,2020-11-24_15h52.49.226,torte-2b,2020.1.3,Win32,60,12812,1.13263,,,,,,,,,,,,,,,,,,,,,,,,,,,,,,,,,,,,,,,,,,,,,,,,,,,,,,,,,,,,,,,,,
,,,,,,,,,,,,l,Correct!,0,115,115,35,1,t1.png,t4.png,3,0.0000131,21,Male,2020-11-24_15h52.49.226,torte-2b,2020.1.3,Win32,60,12812,1.445305,,,,,,,,,,,,,,,,,,,,,,,,,,,,,,,,,,,,,,,,,,,,,,,,,,,,,,,,,,,,,,,,,
,,,,,,,,,,,,l,Correct!,0,116,116,52,1,t2.png,t4.png,2,0.059078,21,Male,2020-11-24_15h52.49.226,torte-2b,2020.1.3,Win32,60,12812,1.56367,,,,,,,,,,,,,,,,,,,,,,,,,,,,,,,,,,,,,,,,,,,,,,,,,,,,,,,,,,,,,,,,,
,,,,,,,,,,,,l,Incorrect,0,117,117,88,1,t3.png,t1.png,2,0.056466,21,Male,2020-11-24_15h52.49.226,torte-2b,2020.1.3,Win32,60,12812,1.32533,,,,,,,,,,,,,,,,,,,,,,,,,,,,,,,,,,,,,,,,,,,,,,,,,,,,,,,,,,,,,,,,,
,,,,,,,,,,,,a,Correct!,0,118,118,39,1,t3.png,t2.png,1,0.90855,21,Male,2020-11-24_15h52.49.226,torte-2b,2020.1.3,Win32,60,12812,1.07859,,,,,,,,,,,,,,,,,,,,,,,,,,,,,,,,,,,,,,,,,,,,,,,,,,,,,,,,,,,,,,,,,
,,,,,,,,,,,,l,Correct!,0,119,119,36,1,t3.png,t1.png,2,0.0565,21,Male,2020-11-24_15h52.49.226,torte-2b,2020.1.3,Win32,60,12812,1.417685,,,,,,,,,,,,,,,,,,,,,,,,,,,,,,,,,,,,,,,,,,,,,,,,,,,,,,,,,,,,,,,,,
,,,,,,,,,,,,l,Correct!,,,,,,t3.png,t4.png,1,0.90855,21,Male,2020-11-24_15h52.49.226,torte-2b,2020.1.3,Win32,60,12812,1.70201,l,1.51976,a,72.31391,0,0,0,84,1,,,,,,,,,,,,,,,,,,,,,,,,,,,,,,,,,,,,,,,,,,,,,,,,,,,,,,,,
,,,,,,,,,,,,a,Incorrect,,,,,,t1.png,t3.png,2,0.056466,21,Male,2020-11-24_15h52.49.226,torte-2b,2020.1.3,Win32,60,12812,1.14954,,,,,0,1,1,60,1,,,,,,,,,,,,,,,,,,,,,,,,,,,,,,,,,,,,,,,,,,,,,,,,,,,,,,,,
,,,,,,,,,,,,a,Incorrect,,,,,,t5.png,t3.png,2,0.056466,21,Male,2020-11-24_15h52.49.226,torte-2b,2020.1.3,Win32,60,12812,0.86809,,,,,0,2,2,108,1,,,,,,,,,,,,,,,,,,,,,,,,,,,,,,,,,,,,,,,,,,,,,,,,,,,,,,,,
,,,,,,,,,,,,a,Correct!,,,,,,t4.png,t3.png,1,0.90855,21,Male,2020-11-24_15h52.49.226,torte-2b,2020.1.3,Win32,60,12812,0.87009,,,,,0,3,3,75,1,,,,,,,,,,,,,,,,,,,,,,,,,,,,,,,,,,,,,,,,,,,,,,,,,,,,,,,,
,,,,,,,,,,,,l,Incorrect,,,,,,t2.png,t3.png,1,0.90855,21,Male,2020-11-24_15h52.49.226,torte-2b,2020.1.3,Win32,60,12812,0.82563,,,,,0,4,4,65,1,,,,,,,,,,,,,,,,,,,,,,,,,,,,,,,,,,,,,,,,,,,,,,,,,,,,,,,,
,,,,,,,,,,,,l,Correct!,,,,,,t3.png,t5.png,2,0.056466,21,Male,2020-11-24_15h52.49.226,torte-2b,2020.1.3,Win32,60,12812,0.771425,,,,,0,5,5,44,1,,,,,,,,,,,,,,,,,,,,,,,,,,,,,,,,,,,,,,,,,,,,,,,,,,,,,,,,
,,,,,,,,,,,,a,Correct!,,,,,,t4.png,t5.png,1,0.9,21,Male,2020-11-24_15h52.49.226,torte-2b,2020.1.3,Win32,60,12812,0.81217,,,,,0,6,6,115,1,,,,,,,,,,,,,,,,,,,,,,,,,,,,,,,,,,,,,,,,,,,,,,,,,,,,,,,,
,,,,,,,,,,,,a,Correct!,,,,,,t1.png,t1.png,0,0.97829,21,Male,2020-11-24_15h52.49.226,torte-2b,2020.1.3,Win32,60,12812,0.888515,,,,,0,7,7,9,1,,,,,,,,,,,,,,,,,,,,,,,,,,,,,,,,,,,,,,,,,,,,,,,,,,,,,,,,
,,,,,,,,,,,,l,Correct!,,,,,,t1.png,t5.png,4,9.55E-11,21,Male,2020-11-24_15h52.49.226,torte-2b,2020.1.3,Win32,60,12812,0.893335,,,,,0,8,8,16,1,,,,,,,,,,,,,,,,,,,,,,,,,,,,,,,,,,,,,,,,,,,,,,,,,,,,,,,,
,,,,,,,,,,,,l,Incorrect,,,,,,t4.png,t4.png,0,0.98115,21,Male,2020-11-24_15h52.49.226,torte-2b,2020.1.3,Win32,60,12812,1.1481,,,,,0,9,9,52,1,,,,,,,,,,,,,,,,,,,,,,,,,,,,,,,,,,,,,,,,,,,,,,,,,,,,,,,,
,,,,,,,,,,,,a,Correct!,,,,,,t5.png,t5.png,0,0.97829,21,Male,2020-11-24_15h52.49.226,torte-2b,2020.1.3,Win32,60,12812,0.79863,,,,,0,10,10,25,1,,,,,,,,,,,,,,,,,,,,,,,,,,,,,,,,,,,,,,,,,,,,,,,,,,,,,,,,
,,,,,,,,,,,,a,Correct!,,,,,,t1.png,t1.png,0,0.978,21,Male,2020-11-24_15h52.49.226,torte-2b,2020.1.3,Win32,60,12812,0.684645,,,,,0,11,11,54,1,,,,,,,,,,,,,,,,,,,,,,,,,,,,,,,,,,,,,,,,,,,,,,,,,,,,,,,,
,,,,,,,,,,,,l,Correct!,,,,,,t1.png,t4.png,3,0.0000131,21,Male,2020-11-24_15h52.49.226,torte-2b,2020.1.3,Win32,60,12812,1.59813,,,,,0,12,12,17,1,,,,,,,,,,,,,,,,,,,,,,,,,,,,,,,,,,,,,,,,,,,,,,,,,,,,,,,,
,,,,,,,,,,,,a,Incorrect,,,,,,t2.png,t4.png,2,0.0591,21,Male,2020-11-24_15h52.49.226,torte-2b,2020.1.3,Win32,60,12812,1.02717,,,,,0,13,13,15,1,,,,,,,,,,,,,,,,,,,,,,,,,,,,,,,,,,,,,,,,,,,,,,,,,,,,,,,,
,,,,,,,,,,,,a,Correct!,,,,,,t4.png,t4.png,0,0.98115,21,Male,2020-11-24_15h52.49.226,torte-2b,2020.1.3,Win32,60,12812,1.371715,,,,,0,14,14,90,1,,,,,,,,,,,,,,,,,,,,,,,,,,,,,,,,,,,,,,,,,,,,,,,,,,,,,,,,
,,,,,,,,,,,,a,Incorrect,,,,,,t2.png,t4.png,2,0.059078,21,Male,2020-11-24_15h52.49.226,torte-2b,2020.1.3,Win32,60,12812,0.884005,,,,,0,15,15,24,1,,,,,,,,,,,,,,,,,,,,,,,,,,,,,,,,,,,,,,,,,,,,,,,,,,,,,,,,
,,,,,,,,,,,,l,Correct!,,,,,,t1.png,t4.png,3,0.0000131,21,Male,2020-11-24_15h52.49.226,torte-2b,2020.1.3,Win32,60,12812,1.236355,,,,,0,16,16,107,1,,,,,,,,,,,,,,,,,,,,,,,,,,,,,,,,,,,,,,,,,,,,,,,,,,,,,,,,
,,,,,,,,,,,,l,Correct!,,,,,,t3.png,t5.png,2,0.0565,21,Male,2020-11-24_15h52.49.226,torte-2b,2020.1.3,Win32,60,12812,0.87537,,,,,0,17,17,30,1,,,,,,,,,,,,,,,,,,,,,,,,,,,,,,,,,,,,,,,,,,,,,,,,,,,,,,,,
,,,,,,,,,,,,a,Correct!,,,,,,t5.png,t4.png,1,0.90025,21,Male,2020-11-24_15h52.49.226,torte-2b,2020.1.3,Win32,60,12812,0.9209,,,,,0,18,18,34,1,,,,,,,,,,,,,,,,,,,,,,,,,,,,,,,,,,,,,,,,,,,,,,,,,,,,,,,,
,,,,,,,,,,,,l,Correct!,,,,,,t3.png,t1.png,2,0.056466,21,Male,2020-11-24_15h52.49.226,torte-2b,2020.1.3,Win32,60,12812,1.228315,,,,,0,19,19,64,1,,,,,,,,,,,,,,,,,,,,,,,,,,,,,,,,,,,,,,,,,,,,,,,,,,,,,,,,
,,,,,,,,,,,,l,Correct!,,,,,,t3.png,t1.png,2,0.056466,21,Male,2020-11-24_15h52.49.226,torte-2b,2020.1.3,Win32,60,12812,0.699435,,,,,0,20,20,29,1,,,,,,,,,,,,,,,,,,,,,,,,,,,,,,,,,,,,,,,,,,,,,,,,,,,,,,,,
,,,,,,,,,,,,a,Correct!,,,,,,t2.png,t4.png,2,0.059078,21,Male,2020-11-24_15h52.49.226,torte-2b,2020.1.3,Win32,60,12812,0.68688,,,,,0,21,21,11,1,,,,,,,,,,,,,,,,,,,,,,,,,,,,,,,,,,,,,,,,,,,,,,,,,,,,,,,,
,,,,,,,,,,,,l,Correct!,,,,,,t4.png,t2.png,2,0.0591,21,Male,2020-11-24_15h52.49.226,torte-2b,2020.1.3,Win32,60,12812,0.698515,,,,,0,22,22,36,1,,,,,,,,,,,,,,,,,,,,,,,,,,,,,,,,,,,,,,,,,,,,,,,,,,,,,,,,
,,,,,,,,,,,,a,Incorrect,,,,,,t2.png,t5.png,3,0.0000131,21,Male,2020-11-24_15h52.49.226,torte-2b,2020.1.3,Win32,60,12812,0.58951,,,,,0,23,23,8,1,,,,,,,,,,,,,,,,,,,,,,,,,,,,,,,,,,,,,,,,,,,,,,,,,,,,,,,,
,,,,,,,,,,,,l,Correct!,,,,,,t5.png,t1.png,4,9.55E-11,21,Male,2020-11-24_15h52.49.226,torte-2b,2020.1.3,Win32,60,12812,0.575475,,,,,0,24,24,102,1,,,,,,,,,,,,,,,,,,,,,,,,,,,,,,,,,,,,,,,,,,,,,,,,,,,,,,,,
,,,,,,,,,,,,l,Correct!,,,,,,t2.png,t5.png,3,0.0000131,21,Male,2020-11-24_15h52.49.226,torte-2b,2020.1.3,Win32,60,12812,0.679835,,,,,0,25,25,95,1,,,,,,,,,,,,,,,,,,,,,,,,,,,,,,,,,,,,,,,,,,,,,,,,,,,,,,,,
,,,,,,,,,,,,l,Incorrect,,,,,,t3.png,t4.png,1,0.90855,21,Male,2020-11-24_15h52.49.226,torte-2b,2020.1.3,Win32,60,12812,0.652935,,,,,0,26,26,96,1,,,,,,,,,,,,,,,,,,,,,,,,,,,,,,,,,,,,,,,,,,,,,,,,,,,,,,,,
,,,,,,,,,,,,a,Incorrect,,,,,,t4.png,t2.png,2,0.059078,21,Male,2020-11-24_15h52.49.226,torte-2b,2020.1.3,Win32,60,12812,0.646485,,,,,0,27,27,86,1,,,,,,,,,,,,,,,,,,,,,,,,,,,,,,,,,,,,,,,,,,,,,,,,,,,,,,,,
,,,,,,,,,,,,a,Incorrect,,,,,,t5.png,t3.png,2,0.056466,21,Male,2020-11-24_15h52.49.226,torte-2b,2020.1.3,Win32,60,12812,1.09388,,,,,0,28,28,114,1,,,,,,,,,,,,,,,,,,,,,,,,,,,,,,,,,,,,,,,,,,,,,,,,,,,,,,,,
,,,,,,,,,,,,l,Correct!,,,,,,t2.png,t3.png,1,0.90855,21,Male,2020-11-24_15h52.49.226,torte-2b,2020.1.3,Win32,60,12812,0.679665,,,,,0,29,29,111,1,,,,,,,,,,,,,,,,,,,,,,,,,,,,,,,,,,,,,,,,,,,,,,,,,,,,,,,,
,,,,,,,,,,,,a,Incorrect,,,,,,t5.png,t1.png,4,9.55E-11,21,Male,2020-11-24_15h52.49.226,torte-2b,2020.1.3,Win32,60,12812,0.59974,,,,,0,30,30,71,1,,,,,,,,,,,,,,,,,,,,,,,,,,,,,,,,,,,,,,,,,,,,,,,,,,,,,,,,
,,,,,,,,,,,,a,Correct!,,,,,,t4.png,t5.png,1,0.90025,21,Male,2020-11-24_15h52.49.226,torte-2b,2020.1.3,Win32,60,12812,0.64054,,,,,0,31,31,113,1,,,,,,,,,,,,,,,,,,,,,,,,,,,,,,,,,,,,,,,,,,,,,,,,,,,,,,,,
,,,,,,,,,,,,l,Incorrect,,,,,,t1.png,t2.png,1,0.90025,21,Male,2020-11-24_15h52.49.226,torte-2b,2020.1.3,Win32,60,12812,1.15273,,,,,0,32,32,112,1,,,,,,,,,,,,,,,,,,,,,,,,,,,,,,,,,,,,,,,,,,,,,,,,,,,,,,,,
,,,,,,,,,,,,a,Correct!,,,,,,t5.png,t5.png,0,0.97829,21,Male,2020-11-24_15h52.49.226,torte-2b,2020.1.3,Win32,60,12812,1.013165,,,,,0,33,33,73,1,,,,,,,,,,,,,,,,,,,,,,,,,,,,,,,,,,,,,,,,,,,,,,,,,,,,,,,,
,,,,,,,,,,,,a,Correct!,,,,,,t4.png,t3.png,1,0.909,21,Male,2020-11-24_15h52.49.226,torte-2b,2020.1.3,Win32,60,12812,0.91018,,,,,0,34,34,46,1,,,,,,,,,,,,,,,,,,,,,,,,,,,,,,,,,,,,,,,,,,,,,,,,,,,,,,,,
,,,,,,,,,,,,l,Incorrect,,,,,,t2.png,t3.png,1,0.90855,21,Male,2020-11-24_15h52.49.226,torte-2b,2020.1.3,Win32,60,12812,0.593275,,,,,0,35,35,10,1,,,,,,,,,,,,,,,,,,,,,,,,,,,,,,,,,,,,,,,,,,,,,,,,,,,,,,,,
,,,,,,,,,,,,a,Correct!,,,,,,t1.png,t3.png,2,0.056466,21,Male,2020-11-24_15h52.49.226,torte-2b,2020.1.3,Win32,60,12812,0.22513,,,,,0,36,36,87,1,,,,,,,,,,,,,,,,,,,,,,,,,,,,,,,,,,,,,,,,,,,,,,,,,,,,,,,,
,,,,,,,,,,,,a,Incorrect,,,,,,t5.png,t2.png,3,0.0000131,21,Male,2020-11-24_15h52.49.226,torte-2b,2020.1.3,Win32,60,12812,0.71449,,,,,0,37,37,116,1,,,,,,,,,,,,,,,,,,,,,,,,,,,,,,,,,,,,,,,,,,,,,,,,,,,,,,,,
,,,,,,,,,,,,l,Incorrect,,,,,,t4.png,t4.png,0,0.98115,21,Male,2020-11-24_15h52.49.226,torte-2b,2020.1.3,Win32,60,12812,0.555515,,,,,0,38,38,80,1,,,,,,,,,,,,,,,,,,,,,,,,,,,,,,,,,,,,,,,,,,,,,,,,,,,,,,,,
,,,,,,,,,,,,a,Incorrect,,,,,,t1.png,t5.png,4,9.55E-11,21,Male,2020-11-24_15h52.49.226,torte-2b,2020.1.3,Win32,60,12812,0.55275,,,,,0,39,39,12,1,,,,,,,,,,,,,,,,,,,,,,,,,,,,,,,,,,,,,,,,,,,,,,,,,,,,,,,,
,,,,,,,,,,,,a,Incorrect,,,,,,t5.png,t2.png,3,0.0000131,21,Male,2020-11-24_15h52.49.226,torte-2b,2020.1.3,Win32,60,12812,0.60475,,,,,0,40,40,119,1,,,,,,,,,,,,,,,,,,,,,,,,,,,,,,,,,,,,,,,,,,,,,,,,,,,,,,,,
,,,,,,,,,,,,l,Correct!,,,,,,t2.png,t5.png,3,0.0000131,21,Male,2020-11-24_15h52.49.226,torte-2b,2020.1.3,Win32,60,12812,0.53863,,,,,0,41,41,40,1,,,,,,,,,,,,,,,,,,,,,,,,,,,,,,,,,,,,,,,,,,,,,,,,,,,,,,,,
,,,,,,,,,,,,l,Incorrect,,,,,,t2.png,t3.png,1,0.909,21,Male,2020-11-24_15h52.49.226,torte-2b,2020.1.3,Win32,60,12812,0.483005,,,,,0,42,42,74,1,,,,,,,,,,,,,,,,,,,,,,,,,,,,,,,,,,,,,,,,,,,,,,,,,,,,,,,,
,,,,,,,,,,,,a,Correct!,,,,,,t2.png,t3.png,1,0.90855,21,Male,2020-11-24_15h52.49.226,torte-2b,2020.1.3,Win32,60,12812,0.49563,,,,,0,43,43,68,1,,,,,,,,,,,,,,,,,,,,,,,,,,,,,,,,,,,,,,,,,,,,,,,,,,,,,,,,
,,,,,,,,,,,,l,Correct!,,,,,,t2.png,t4.png,2,0.059078,21,Male,2020-11-24_15h52.49.226,torte-2b,2020.1.3,Win32,60,12812,0.579335,,,,,0,44,44,77,1,,,,,,,,,,,,,,,,,,,,,,,,,,,,,,,,,,,,,,,,,,,,,,,,,,,,,,,,
,,,,,,,,,,,,l,Incorrect,,,,,,t3.png,t4.png,1,0.909,21,Male,2020-11-24_15h52.49.226,torte-2b,2020.1.3,Win32,60,12812,1.0394,,,,,0,45,45,89,1,,,,,,,,,,,,,,,,,,,,,,,,,,,,,,,,,,,,,,,,,,,,,,,,,,,,,,,,
,,,,,,,,,,,,l,Correct!,,,,,,t2.png,t5.png,3,0.0000131,21,Male,2020-11-24_15h52.49.226,torte-2b,2020.1.3,Win32,60,12812,0.71069,,,,,0,46,46,66,1,,,,,,,,,,,,,,,,,,,,,,,,,,,,,,,,,,,,,,,,,,,,,,,,,,,,,,,,
,,,,,,,,,,,,a,Incorrect,,,,,,t1.png,t1.png,0,0.97829,21,Male,2020-11-24_15h52.49.226,torte-2b,2020.1.3,Win32,60,12812,0.729705,,,,,0,47,47,67,1,,,,,,,,,,,,,,,,,,,,,,,,,,,,,,,,,,,,,,,,,,,,,,,,,,,,,,,,
,,,,,,,,,,,,a,Correct!,,,,,,t1.png,t2.png,1,0.90025,21,Male,2020-11-24_15h52.49.226,torte-2b,2020.1.3,Win32,60,12812,0.86118,,,,,0,48,48,105,1,,,,,,,,,,,,,,,,,,,,,,,,,,,,,,,,,,,,,,,,,,,,,,,,,,,,,,,,
,,,,,,,,,,,,l,Incorrect,,,,,,t2.png,t2.png,0,0.98115,21,Male,2020-11-24_15h52.49.226,torte-2b,2020.1.3,Win32,60,12812,0.909005,,,,,0,49,49,2,1,,,,,,,,,,,,,,,,,,,,,,,,,,,,,,,,,,,,,,,,,,,,,,,,,,,,,,,,
,,,,,,,,,,,,a,Incorrect,,,,,,t5.png,t1.png,4,9.55E-11,21,Male,2020-11-24_15h52.49.226,torte-2b,2020.1.3,Win32,60,12812,0.43832,,,,,0,50,50,22,1,,,,,,,,,,,,,,,,,,,,,,,,,,,,,,,,,,,,,,,,,,,,,,,,,,,,,,,,
,,,,,,,,,,,,l,Correct!,,,,,,t4.png,t1.png,3,0.0000131,21,Male,2020-11-24_15h52.49.226,torte-2b,2020.1.3,Win32,60,12812,0.66742,,,,,0,51,51,61,1,,,,,,,,,,,,,,,,,,,,,,,,,,,,,,,,,,,,,,,,,,,,,,,,,,,,,,,,
,,,,,,,,,,,,l,Correct!,,,,,,t5.png,t1.png,4,9.55E-11,21,Male,2020-11-24_15h52.49.226,torte-2b,2020.1.3,Win32,60,12812,0.647765,,,,,0,52,52,43,1,,,,,,,,,,,,,,,,,,,,,,,,,,,,,,,,,,,,,,,,,,,,,,,,,,,,,,,,
,,,,,,,,,,,,l,Correct!,,,,,,t5.png,t3.png,2,0.056466,21,Male,2020-11-24_15h52.49.226,torte-2b,2020.1.3,Win32,60,12812,1.01438,,,,,0,53,53,38,1,,,,,,,,,,,,,,,,,,,,,,,,,,,,,,,,,,,,,,,,,,,,,,,,,,,,,,,,
,,,,,,,,,,,,a,Incorrect,,,,,,t5.png,t2.png,3,0.0000131,21,Male,2020-11-24_15h52.49.226,torte-2b,2020.1.3,Win32,60,12812,0.68117,,,,,0,54,54,91,1,,,,,,,,,,,,,,,,,,,,,,,,,,,,,,,,,,,,,,,,,,,,,,,,,,,,,,,,
,,,,,,,,,,,,l,Correct!,,,,,,t1.png,t4.png,3,0.0000131,21,Male,2020-11-24_15h52.49.226,torte-2b,2020.1.3,Win32,60,12812,0.709385,,,,,0,55,55,50,1,,,,,,,,,,,,,,,,,,,,,,,,,,,,,,,,,,,,,,,,,,,,,,,,,,,,,,,,
,,,,,,,,,,,,a,Incorrect,,,,,,t5.png,t3.png,2,0.056466,21,Male,2020-11-24_15h52.49.226,torte-2b,2020.1.3,Win32,60,12812,0.631595,,,,,0,56,56,56,1,,,,,,,,,,,,,,,,,,,,,,,,,,,,,,,,,,,,,,,,,,,,,,,,,,,,,,,,
,,,,,,,,,,,,l,Incorrect,,,,,,t2.png,t1.png,1,0.90025,21,Male,2020-11-24_15h52.49.226,torte-2b,2020.1.3,Win32,60,12812,1.438065,,,,,0,57,57,5,1,,,,,,,,,,,,,,,,,,,,,,,,,,,,,,,,,,,,,,,,,,,,,,,,,,,,,,,,
,,,,,,,,,,,,l,Correct!,,,,,,t4.png,t1.png,3,0.0000131,21,Male,2020-11-24_15h52.49.226,torte-2b,2020.1.3,Win32,60,12812,0.87243,,,,,0,58,58,93,1,,,,,,,,,,,,,,,,,,,,,,,,,,,,,,,,,,,,,,,,,,,,,,,,,,,,,,,,
,,,,,,,,,,,,a,Correct!,,,,,,t5.png,t5.png,0,0.97829,21,Male,2020-11-24_15h52.49.226,torte-2b,2020.1.3,Win32,60,12812,0.54066,,,,,0,59,59,94,1,,,,,,,,,,,,,,,,,,,,,,,,,,,,,,,,,,,,,,,,,,,,,,,,,,,,,,,,
,,,,,,,,,,,,a,Incorrect,,,,,,t5.png,t5.png,0,0.978,21,Male,2020-11-24_15h52.49.226,torte-2b,2020.1.3,Win32,60,12812,0.73994,,,,,0,60,60,117,1,,,,,,,,,,,,,,,,,,,,,,,,,,,,,,,,,,,,,,,,,,,,,,,,,,,,,,,,
,,,,,,,,,,,,a,Incorrect,,,,,,t1.png,t3.png,2,0.056466,21,Male,2020-11-24_15h52.49.226,torte-2b,2020.1.3,Win32,60,12812,0.933755,,,,,0,61,61,63,1,,,,,,,,,,,,,,,,,,,,,,,,,,,,,,,,,,,,,,,,,,,,,,,,,,,,,,,,
,,,,,,,,,,,,a,Correct!,,,,,,t4.png,t3.png,1,0.90855,21,Male,2020-11-24_15h52.49.226,torte-2b,2020.1.3,Win32,60,12812,0.55866,,,,,0,62,62,35,1,,,,,,,,,,,,,,,,,,,,,,,,,,,,,,,,,,,,,,,,,,,,,,,,,,,,,,,,
,,,,,,,,,,,,a,Correct!,,,,,,t4.png,t4.png,0,0.98115,21,Male,2020-11-24_15h52.49.226,torte-2b,2020.1.3,Win32,60,12812,0.728405,,,,,0,63,63,79,1,,,,,,,,,,,,,,,,,,,,,,,,,,,,,,,,,,,,,,,,,,,,,,,,,,,,,,,,
,,,,,,,,,,,,l,Incorrect,,,,,,t3.png,t1.png,2,0.056466,21,Male,2020-11-24_15h52.49.226,torte-2b,2020.1.3,Win32,60,12812,0.87919,,,,,0,64,64,32,1,,,,,,,,,,,,,,,,,,,,,,,,,,,,,,,,,,,,,,,,,,,,,,,,,,,,,,,,
,,,,,,,,,,,,a,Incorrect,,,,,,t3.png,t2.png,1,0.909,21,Male,2020-11-24_15h52.49.226,torte-2b,2020.1.3,Win32,60,12812,0.823675,,,,,0,65,65,3,1,,,,,,,,,,,,,,,,,,,,,,,,,,,,,,,,,,,,,,,,,,,,,,,,,,,,,,,,
,,,,,,,,,,,,a,Correct!,,,,,,t1.png,t1.png,0,0.97829,21,Male,2020-11-24_15h52.49.226,torte-2b,2020.1.3,Win32,60,12812,1.01044,,,,,0,66,66,78,1,,,,,,,,,,,,,,,,,,,,,,,,,,,,,,,,,,,,,,,,,,,,,,,,,,,,,,,,
,,,,,,,,,,,,a,Incorrect,,,,,,t4.png,t1.png,3,0.0000131,21,Male,2020-11-24_15h52.49.226,torte-2b,2020.1.3,Win32,60,12812,0.70242,,,,,0,67,67,42,1,,,,,,,,,,,,,,,,,,,,,,,,,,,,,,,,,,,,,,,,,,,,,,,,,,,,,,,,
,,,,,,,,,,,,l,Correct!,,,,,,t4.png,t1.png,3,0.0000131,21,Male,2020-11-24_15h52.49.226,torte-2b,2020.1.3,Win32,60,12812,0.67785,,,,,0,68,68,48,1,,,,,,,,,,,,,,,,,,,,,,,,,,,,,,,,,,,,,,,,,,,,,,,,,,,,,,,,
,,,,,,,,,,,,a,Correct!,,,,,,t2.png,t2.png,0,0.981,21,Male,2020-11-24_15h52.49.226,torte-2b,2020.1.3,Win32,60,12812,0.964825,,,,,0,69,69,101,1,,,,,,,,,,,,,,,,,,,,,,,,,,,,,,,,,,,,,,,,,,,,,,,,,,,,,,,,
,,,,,,,,,,,,a,Incorrect,,,,,,t4.png,t5.png,1,0.90025,21,Male,2020-11-24_15h52.49.226,torte-2b,2020.1.3,Win32,60,12812,1.164285,,,,,0,70,70,58,1,,,,,,,,,,,,,,,,,,,,,,,,,,,,,,,,,,,,,,,,,,,,,,,,,,,,,,,,
,,,,,,,,,,,,l,Correct!,,,,,,t1.png,t5.png,4,9.55E-11,21,Male,2020-11-24_15h52.49.226,torte-2b,2020.1.3,Win32,60,12812,1.210415,,,,,0,71,71,41,1,,,,,,,,,,,,,,,,,,,,,,,,,,,,,,,,,,,,,,,,,,,,,,,,,,,,,,,,
,,,,,,,,,,,,a,Correct!,,,,,,t4.png,t3.png,1,0.909,21,Male,2020-11-24_15h52.49.226,torte-2b,2020.1.3,Win32,60,12812,0.640295,,,,,0,72,72,20,1,,,,,,,,,,,,,,,,,,,,,,,,,,,,,,,,,,,,,,,,,,,,,,,,,,,,,,,,
,,,,,,,,,,,,a,Incorrect,,,,,,t4.png,t2.png,2,0.059078,21,Male,2020-11-24_15h52.49.226,torte-2b,2020.1.3,Win32,60,12812,0.71798,,,,,0,73,73,110,1,,,,,,,,,,,,,,,,,,,,,,,,,,,,,,,,,,,,,,,,,,,,,,,,,,,,,,,,
,,,,,,,,,,,,a,Incorrect,,,,,,t4.png,t2.png,2,0.059078,21,Male,2020-11-24_15h52.49.226,torte-2b,2020.1.3,Win32,60,12812,0.483475,,,,,0,74,74,88,1,,,,,,,,,,,,,,,,,,,,,,,,,,,,,,,,,,,,,,,,,,,,,,,,,,,,,,,,
,,,,,,,,,,,,l,Incorrect,,,,,,t2.png,t2.png,0,0.98115,21,Male,2020-11-24_15h52.49.226,torte-2b,2020.1.3,Win32,60,12812,0.38882,,,,,0,75,75,57,1,,,,,,,,,,,,,,,,,,,,,,,,,,,,,,,,,,,,,,,,,,,,,,,,,,,,,,,,
,,,,,,,,,,,,l,Incorrect,,,,,,t3.png,t2.png,1,0.90855,21,Male,2020-11-24_15h52.49.226,torte-2b,2020.1.3,Win32,60,12812,1.18083,,,,,0,76,76,53,1,,,,,,,,,,,,,,,,,,,,,,,,,,,,,,,,,,,,,,,,,,,,,,,,,,,,,,,,
,,,,,,,,,,,,l,Incorrect,,,,,,t3.png,t4.png,1,0.909,21,Male,2020-11-24_15h52.49.226,torte-2b,2020.1.3,Win32,60,12812,0.660765,,,,,0,77,77,106,1,,,,,,,,,,,,,,,,,,,,,,,,,,,,,,,,,,,,,,,,,,,,,,,,,,,,,,,,
,,,,,,,,,,,,a,Correct!,,,,,,t1.png,t2.png,1,0.9,21,Male,2020-11-24_15h52.49.226,torte-2b,2020.1.3,Win32,60,12812,0.74228,,,,,0,78,78,1,1,,,,,,,,,,,,,,,,,,,,,,,,,,,,,,,,,,,,,,,,,,,,,,,,,,,,,,,,
,,,,,,,,,,,,l,Incorrect,,,,,,t3.png,t2.png,1,0.90855,21,Male,2020-11-24_15h52.49.226,torte-2b,2020.1.3,Win32,60,12812,0.635715,,,,,0,79,79,18,1,,,,,,,,,,,,,,,,,,,,,,,,,,,,,,,,,,,,,,,,,,,,,,,,,,,,,,,,
,,,,,,,,,,,,a,Incorrect,,,,,,t3.png,t5.png,2,0.056466,21,Male,2020-11-24_15h52.49.226,torte-2b,2020.1.3,Win32,60,12812,0.538875,,,,,0,80,80,6,1,,,,,,,,,,,,,,,,,,,,,,,,,,,,,,,,,,,,,,,,,,,,,,,,,,,,,,,,
,,,,,,,,,,,,a,Correct!,,,,,,t3.png,t2.png,1,0.909,21,Male,2020-11-24_15h52.49.226,torte-2b,2020.1.3,Win32,60,12812,0.37443,,,,,0,81,81,23,1,,,,,,,,,,,,,,,,,,,,,,,,,,,,,,,,,,,,,,,,,,,,,,,,,,,,,,,,
,,,,,,,,,,,,a,Incorrect,,,,,,t1.png,t3.png,2,0.056466,21,Male,2020-11-24_15h52.49.226,torte-2b,2020.1.3,Win32,60,12812,0.314755,,,,,0,82,82,99,1,,,,,,,,,,,,,,,,,,,,,,,,,,,,,,,,,,,,,,,,,,,,,,,,,,,,,,,,
,,,,,,,,,,,,a,Incorrect,,,,,,t1.png,t5.png,4,9.55E-11,21,Male,2020-11-24_15h52.49.226,torte-2b,2020.1.3,Win32,60,12812,0.550765,,,,,0,83,83,55,1,,,,,,,,,,,,,,,,,,,,,,,,,,,,,,,,,,,,,,,,,,,,,,,,,,,,,,,,
,,,,,,,,,,,,a,Correct!,,,,,,t1.png,t1.png,0,0.978,21,Male,2020-11-24_15h52.49.226,torte-2b,2020.1.3,Win32,60,12812,0.647005,,,,,0,84,84,28,1,,,,,,,,,,,,,,,,,,,,,,,,,,,,,,,,,,,,,,,,,,,,,,,,,,,,,,,,
,,,,,,,,,,,,l,Incorrect,,,,,,t5.png,t4.png,1,0.90025,21,Male,2020-11-24_15h52.49.226,torte-2b,2020.1.3,Win32,60,12812,0.429635,,,,,0,85,85,27,1,,,,,,,,,,,,,,,,,,,,,,,,,,,,,,,,,,,,,,,,,,,,,,,,,,,,,,,,
,,,,,,,,,,,,l,Correct!,,,,,,t3.png,t1.png,2,0.056466,21,Male,2020-11-24_15h52.49.226,torte-2b,2020.1.3,Win32,60,12812,0.31983,,,,,0,86,86,0,1,,,,,,,,,,,,,,,,,,,,,,,,,,,,,,,,,,,,,,,,,,,,,,,,,,,,,,,,
,,,,,,,,,,,,a,Correct!,,,,,,t2.png,t1.png,1,0.90025,21,Male,2020-11-24_15h52.49.226,torte-2b,2020.1.3,Win32,60,12812,0.41453,,,,,0,87,87,62,1,,,,,,,,,,,,,,,,,,,,,,,,,,,,,,,,,,,,,,,,,,,,,,,,,,,,,,,,
,,,,,,,,,,,,l,Incorrect,,,,,,t5.png,t5.png,0,0.97829,21,Male,2020-11-24_15h52.49.226,torte-2b,2020.1.3,Win32,60,12812,0.37984,,,,,0,88,88,70,1,,,,,,,,,,,,,,,,,,,,,,,,,,,,,,,,,,,,,,,,,,,,,,,,,,,,,,,,
,,,,,,,,,,,,a,Incorrect,,,,,,t4.png,t2.png,2,0.059078,21,Male,2020-11-24_15h52.49.226,torte-2b,2020.1.3,Win32,60,12812,0.816745,,,,,0,89,89,109,1,,,,,,,,,,,,,,,,,,,,,,,,,,,,,,,,,,,,,,,,,,,,,,,,,,,,,,,,
,,,,,,,,,,,,a,Correct!,,,,,,t5.png,t4.png,1,0.90025,21,Male,2020-11-24_15h52.49.226,torte-2b,2020.1.3,Win32,60,12812,0.545045,,,,,0,90,90,26,1,,,,,,,,,,,,,,,,,,,,,,,,,,,,,,,,,,,,,,,,,,,,,,,,,,,,,,,,
,,,,,,,,,,,,a,Correct!,,,,,,t1.png,t2.png,1,0.90025,21,Male,2020-11-24_15h52.49.226,torte-2b,2020.1.3,Win32,60,12812,0.631795,,,,,0,91,91,72,1,,,,,,,,,,,,,,,,,,,,,,,,,,,,,,,,,,,,,,,,,,,,,,,,,,,,,,,,
,,,,,,,,,,,,l,Correct!,,,,,,t3.png,t5.png,2,0.0565,21,Male,2020-11-24_15h52.49.226,torte-2b,2020.1.3,Win32,60,12812,0.602235,,,,,0,92,92,83,1,,,,,,,,,,,,,,,,,,,,,,,,,,,,,,,,,,,,,,,,,,,,,,,,,,,,,,,,
,,,,,,,,,,,,l,Incorrect,,,,,,t2.png,t2.png,0,0.98115,21,Male,2020-11-24_15h52.49.226,torte-2b,2020.1.3,Win32,60,12812,0.516005,,,,,0,93,93,7,1,,,,,,,,,,,,,,,,,,,,,,,,,,,,,,,,,,,,,,,,,,,,,,,,,,,,,,,,
,,,,,,,,,,,,a,Incorrect,,,,,,t5.png,t2.png,3,0.0000131,21,Male,2020-11-24_15h52.49.226,torte-2b,2020.1.3,Win32,60,12812,0.599065,,,,,0,94,94,51,1,,,,,,,,,,,,,,,,,,,,,,,,,,,,,,,,,,,,,,,,,,,,,,,,,,,,,,,,
,,,,,,,,,,,,l,Incorrect,,,,,,t2.png,t1.png,1,0.90025,21,Male,2020-11-24_15h52.49.226,torte-2b,2020.1.3,Win32,60,12812,0.75831,,,,,0,95,95,19,1,,,,,,,,,,,,,,,,,,,,,,,,,,,,,,,,,,,,,,,,,,,,,,,,,,,,,,,,
,,,,,,,,,,,,l,Correct!,,,,,,t3.png,t1.png,2,0.0565,21,Male,2020-11-24_15h52.49.226,torte-2b,2020.1.3,Win32,60,12812,0.48179,,,,,0,96,96,31,1,,,,,,,,,,,,,,,,,,,,,,,,,,,,,,,,,,,,,,,,,,,,,,,,,,,,,,,,
,,,,,,,,,,,,a,Incorrect,,,,,,t2.png,t5.png,3,0.0000131,21,Male,2020-11-24_15h52.49.226,torte-2b,2020.1.3,Win32,60,12812,0.50413,,,,,0,97,97,104,1,,,,,,,,,,,,,,,,,,,,,,,,,,,,,,,,,,,,,,,,,,,,,,,,,,,,,,,,
,,,,,,,,,,,,a,Incorrect,,,,,,t2.png,t4.png,2,0.059078,21,Male,2020-11-24_15h52.49.226,torte-2b,2020.1.3,Win32,60,12812,0.555525,,,,,0,98,98,37,1,,,,,,,,,,,,,,,,,,,,,,,,,,,,,,,,,,,,,,,,,,,,,,,,,,,,,,,,
,,,,,,,,,,,,a,Correct!,,,,,,t5.png,t4.png,1,0.9,21,Male,2020-11-24_15h52.49.226,torte-2b,2020.1.3,Win32,60,12812,0.676455,,,,,0,99,99,49,1,,,,,,,,,,,,,,,,,,,,,,,,,,,,,,,,,,,,,,,,,,,,,,,,,,,,,,,,
,,,,,,,,,,,,a,Incorrect,,,,,,t5.png,t1.png,4,9.55E-11,21,Male,2020-11-24_15h52.49.226,torte-2b,2020.1.3,Win32,60,12812,0.61547,,,,,0,100,100,100,1,,,,,,,,,,,,,,,,,,,,,,,,,,,,,,,,,,,,,,,,,,,,,,,,,,,,,,,,
,,,,,,,,,,,,l,Correct!,,,,,,t4.png,t1.png,3,0.0000131,21,Male,2020-11-24_15h52.49.226,torte-2b,2020.1.3,Win32,60,12812,0.501015,,,,,0,101,101,13,1,,,,,,,,,,,,,,,,,,,,,,,,,,,,,,,,,,,,,,,,,,,,,,,,,,,,,,,,
,,,,,,,,,,,,a,Incorrect,,,,,,t5.png,t4.png,1,0.9,21,Male,2020-11-24_15h52.49.226,torte-2b,2020.1.3,Win32,60,12812,1.16262,,,,,0,102,102,76,1,,,,,,,,,,,,,,,,,,,,,,,,,,,,,,,,,,,,,,,,,,,,,,,,,,,,,,,,
,,,,,,,,,,,,l,Incorrect,,,,,,t2.png,t2.png,0,0.98115,21,Male,2020-11-24_15h52.49.226,torte-2b,2020.1.3,Win32,60,12812,0.86268,,,,,0,103,103,59,1,,,,,,,,,,,,,,,,,,,,,,,,,,,,,,,,,,,,,,,,,,,,,,,,,,,,,,,,
,,,,,,,,,,,,a,Correct!,,,,,,t2.png,t1.png,1,0.9,21,Male,2020-11-24_15h52.49.226,torte-2b,2020.1.3,Win32,60,12812,0.94915,,,,,0,104,104,118,1,,,,,,,,,,,,,,,,,,,,,,,,,,,,,,,,,,,,,,,,,,,,,,,,,,,,,,,,
,,,,,,,,,,,,a,Correct!,,,,,,t4.png,t4.png,0,0.98115,21,Male,2020-11-24_15h52.49.226,torte-2b,2020.1.3,Win32,60,12812,0.77297,,,,,0,105,105,21,1,,,,,,,,,,,,,,,,,,,,,,,,,,,,,,,,,,,,,,,,,,,,,,,,,,,,,,,,
,,,,,,,,,,,,a,Correct!,,,,,,t4.png,t5.png,1,0.90025,21,Male,2020-11-24_15h52.49.226,torte-2b,2020.1.3,Win32,60,12812,0.542955,,,,,0,106,106,103,1,,,,,,,,,,,,,,,,,,,,,,,,,,,,,,,,,,,,,,,,,,,,,,,,,,,,,,,,
,,,,,,,,,,,,l,Correct!,,,,,,t1.png,t4.png,3,0.0000131,21,Male,2020-11-24_15h52.49.226,torte-2b,2020.1.3,Win32,60,12812,0.388165,,,,,0,107,107,81,1,,,,,,,,,,,,,,,,,,,,,,,,,,,,,,,,,,,,,,,,,,,,,,,,,,,,,,,,
,,,,,,,,,,,,l,Correct!,,,,,,t2.png,t1.png,1,0.90025,21,Male,2020-11-24_15h52.49.226,torte-2b,2020.1.3,Win32,60,12812,0.309665,,,,,0,108,108,4,1,,,,,,,,,,,,,,,,,,,,,,,,,,,,,,,,,,,,,,,,,,,,,,,,,,,,,,,,
,,,,,,,,,,,,l,Correct!,,,,,,t5.png,t2.png,3,0.0000131,21,Male,2020-11-24_15h52.49.226,torte-2b,2020.1.3,Win32,60,12812,0.68884,,,,,0,109,109,98,1,,,,,,,,,,,,,,,,,,,,,,,,,,,,,,,,,,,,,,,,,,,,,,,,,,,,,,,,
,,,,,,,,,,,,a,Incorrect,,,,,,t3.png,t4.png,1,0.909,21,Male,2020-11-24_15h52.49.226,torte-2b,2020.1.3,Win32,60,12812,0.60209,,,,,0,110,110,82,1,,,,,,,,,,,,,,,,,,,,,,,,,,,,,,,,,,,,,,,,,,,,,,,,,,,,,,,,
,,,,,,,,,,,,l,Correct!,,,,,,t1.png,t5.png,4,9.55E-11,21,Male,2020-11-24_15h52.49.226,torte-2b,2020.1.3,Win32,60,12812,0.565645,,,,,0,111,111,85,1,,,,,,,,,,,,,,,,,,,,,,,,,,,,,,,,,,,,,,,,,,,,,,,,,,,,,,,,
,,,,,,,,,,,,l,Incorrect,,,,,,t4.png,t5.png,1,0.90025,21,Male,2020-11-24_15h52.49.226,torte-2b,2020.1.3,Win32,60,12812,0.852135,,,,,0,112,112,47,1,,,,,,,,,,,,,,,,,,,,,,,,,,,,,,,,,,,,,,,,,,,,,,,,,,,,,,,,
,,,,,,,,,,,,l,Correct!,,,,,,t3.png,t5.png,2,0.056466,21,Male,2020-11-24_15h52.49.226,torte-2b,2020.1.3,Win32,60,12812,0.53609,,,,,0,113,113,14,1,,,,,,,,,,,,,,,,,,,,,,,,,,,,,,,,,,,,,,,,,,,,,,,,,,,,,,,,
,,,,,,,,,,,,l,Incorrect,,,,,,t3.png,t2.png,1,0.90855,21,Male,2020-11-24_15h52.49.226,torte-2b,2020.1.3,Win32,60,12812,0.406115,,,,,0,114,114,97,1,,,,,,,,,,,,,,,,,,,,,,,,,,,,,,,,,,,,,,,,,,,,,,,,,,,,,,,,
,,,,,,,,,,,,a,Incorrect,,,,,,t1.png,t3.png,2,0.056466,21,Male,2020-11-24_15h52.49.226,torte-2b,2020.1.3,Win32,60,12812,0.284065,,,,,0,115,115,69,1,,,,,,,,,,,,,,,,,,,,,,,,,,,,,,,,,,,,,,,,,,,,,,,,,,,,,,,,
,,,,,,,,,,,,l,Incorrect,,,,,,t1.png,t2.png,1,0.90025,21,Male,2020-11-24_15h52.49.226,torte-2b,2020.1.3,Win32,60,12812,0.20068,,,,,0,116,116,33,1,,,,,,,,,,,,,,,,,,,,,,,,,,,,,,,,,,,,,,,,,,,,,,,,,,,,,,,,
,,,,,,,,,,,,a,Correct!,,,,,,t4.png,t3.png,1,0.90855,21,Male,2020-11-24_15h52.49.226,torte-2b,2020.1.3,Win32,60,12812,0.2469,,,,,0,117,117,45,1,,,,,,,,,,,,,,,,,,,,,,,,,,,,,,,,,,,,,,,,,,,,,,,,,,,,,,,,
,,,,,,,,,,,,l,Correct!,,,,,,t1.png,t4.png,3,0.0000131,21,Male,2020-11-24_15h52.49.226,torte-2b,2020.1.3,Win32,60,12812,0.87449,,,,,0,118,118,92,1,,,,,,,,,,,,,,,,,,,,,,,,,,,,,,,,,,,,,,,,,,,,,,,,,,,,,,,,
,,,,,,,,,,,,a,Incorrect,,,,,,t5.png,t3.png,2,0.0565,21,Male,2020-11-24_15h52.49.226,torte-2b,2020.1.3,Win32,60,12812,0.770615,,,,,0,119,119,39,1,,,,,,,,,,,,,,,,,,,,,,,,,,,,,,,,,,,,,,,,,,,,,,,,,,,,,,,,
,,,,,,,,,,,,,,,,,,,,,,,21,Male,2020-11-24_15h52.49.226,torte-2b,2020.1.3,Win32,60,12812,,l,1.15992,,,,,,,,space,40.58337,,0,0,0,0,1,6,,,,,,,,,,,,,,,,,,,,,,,,,,,,,,,,,,,,,,,,,,,,,,,
,,,,,,,,,,,,,,,,,,,,,,,21,Male,2020-11-24_15h52.49.226,torte-2b,2020.1.3,Win32,60,12812,,,,,,,,,,,,,,0,1,1,1,1,7,,,,,,,,,,,,,,,,,,,,,,,,,,,,,,,,,,,,,,,,,,,,,,,
,,,,,,,,,,,,,,,,,,,,,,,21,Male,2020-11-24_15h52.49.226,torte-2b,2020.1.3,Win32,60,12812,,,,,,,,,,,,,space,0,2,2,2,1,6,0.37444,,,,,,,,,,,,,,,,,,,,,,,,,,,,,,,,,,,,,,,,,,,,,,
,,,,,,,,,,,,,,,,,,,,,,,21,Male,2020-11-24_15h52.49.226,torte-2b,2020.1.3,Win32,60,12812,,,,,,,,,,,,,space,0,3,3,3,1,7,0.539725,,,,,,,,,,,,,,,,,,,,,,,,,,,,,,,,,,,,,,,,,,,,,,
,,,,,,,,,,,,,,,,,,,,,,,21,Male,2020-11-24_15h52.49.226,torte-2b,2020.1.3,Win32,60,12812,,,,,,,,,,,,,,0,4,4,4,1,5,,,,,,,,,,,,,,,,,,,,,,,,,,,,,,,,,,,,,,,,,,,,,,,
,,,,,,,,,,,,,,,,,,,,,,,21,Male,2020-11-24_15h52.49.226,torte-2b,2020.1.3,Win32,60,12812,,,,,,,,,,,,,,0,5,5,5,1,7,,,,,,,,,,,,,,,,,,,,,,,,,,,,,,,,,,,,,,,,,,,,,,,
,,,,,,,,,,,,,,,,,,,,,,,21,Male,2020-11-24_15h52.49.226,torte-2b,2020.1.3,Win32,60,12812,,,,,,,,,,,,,,0,6,6,6,1,2,,,,,,,,,,,,,,,,,,,,,,,,,,,,,,,,,,,,,,,,,,,,,,,
,,,,,,,,,,,,,,,,,,,,,,,21,Male,2020-11-24_15h52.49.226,torte-2b,2020.1.3,Win32,60,12812,,,,,,,,,,,,,,0,7,7,7,1,4,,,,,,,,,,,,,,,,,,,,,,,,,,,,,,,,,,,,,,,,,,,,,,,
,,,,,,,,,,,,,,,,,,,,,,,21,Male,2020-11-24_15h52.49.226,torte-2b,2020.1.3,Win32,60,12812,,,,,,,,,,,,,,0,8,8,8,1,7,,,,,,,,,,,,,,,,,,,,,,,,,,,,,,,,,,,,,,,,,,,,,,,
,,,,,,,,,,,,,,,,,,,,,,,21,Male,2020-11-24_15h52.49.226,torte-2b,2020.1.3,Win32,60,12812,,,,,,,,,,,,,space,0,9,9,9,1,4,0.30489,,,,,,,,,,,,,,,,,,,,,,,,,,,,,,,,,,,,,,,,,,,,,,
,,,,,,,,,,,,,,,,,,,,,,,21,Male,2020-11-24_15h52.49.226,torte-2b,2020.1.3,Win32,60,12812,,,,,,,,,,,,,space,0,10,10,10,1,7,0.37434,,,,,,,,,,,,,,,,,,,,,,,,,,,,,,,,,,,,,,,,,,,,,,
,,,,,,,,,,,,,,,,,,,,,,,21,Male,2020-11-24_15h52.49.226,torte-2b,2020.1.3,Win32,60,12812,,,,,,,,,,,,,space,0,11,11,11,1,7,0.78427,,,,,,,,,,,,,,,,,,,,,,,,,,,,,,,,,,,,,,,,,,,,,,
,,,,,,,,,,,,,,,,,,,,,,,21,Male,2020-11-24_15h52.49.226,torte-2b,2020.1.3,Win32,60,12812,,,,,,,,,,,,,space,0,12,12,12,1,7,0.905985,,,,,,,,,,,,,,,,,,,,,,,,,,,,,,,,,,,,,,,,,,,,,,
,,,,,,,,,,,,,,,,,,,,,,,21,Male,2020-11-24_15h52.49.226,torte-2b,2020.1.3,Win32,60,12812,,,,,,,,,,,,,,0,13,13,13,1,4,,,,,,,,,,,,,,,,,,,,,,,,,,,,,,,,,,,,,,,,,,,,,,,
,,,,,,,,,,,,,,,,,,,,,,,21,Male,2020-11-24_15h52.49.226,torte-2b,2020.1.3,Win32,60,12812,,,,,,,,,,,,,,0,14,14,14,1,6,,,,,,,,,,,,,,,,,,,,,,,,,,,,,,,,,,,,,,,,,,,,,,,
,,,,,,,,,,,,,,,,,,,,,,,21,Male,2020-11-24_15h52.49.226,torte-2b,2020.1.3,Win32,60,12812,,,,,,,,,,,,,space,0,15,15,15,1,4,0.69101,,,,,,,,,,,,,,,,,,,,,,,,,,,,,,,,,,,,,,,,,,,,,,
,,,,,,,,,,,,,,,,,,,,,,,21,Male,2020-11-24_15h52.49.226,torte-2b,2020.1.3,Win32,60,12812,,,,,,,,,,,,,space,0,16,16,16,1,6,0.416095,,,,,,,,,,,,,,,,,,,,,,,,,,,,,,,,,,,,,,,,,,,,,,
,,,,,,,,,,,,,,,,,,,,,,,21,Male,2020-11-24_15h52.49.226,torte-2b,2020.1.3,Win32,60,12812,,,,,,,,,,,,,space,0,17,17,17,1,7,0.439185,,,,,,,,,,,,,,,,,,,,,,,,,,,,,,,,,,,,,,,,,,,,,,
,,,,,,,,,,,,,,,,,,,,,,,21,Male,2020-11-24_15h52.49.226,torte-2b,2020.1.3,Win32,60,12812,,,,,,,,,,,,,space,0,18,18,18,1,6,0.453355,,,,,,,,,,,,,,,,,,,,,,,,,,,,,,,,,,,,,,,,,,,,,,
,,,,,,,,,,,,,,,,,,,,,,,21,Male,2020-11-24_15h52.49.226,torte-2b,2020.1.3,Win32,60,12812,,,,,,,,,,,,,space,0,19,19,19,1,7,0.895855,,,,,,,,,,,,,,,,,,,,,,,,,,,,,,,,,,,,,,,,,,,,,,
,,,,,,,,,,,,,,,,,,,,,,,21,Male,2020-11-24_15h52.49.226,torte-2b,2020.1.3,Win32,60,12812,,,,,,,,,,,,,,0,20,20,20,1,5,,,,,,,,,,,,,,,,,,,,,,,,,,,,,,,,,,,,,,,,,,,,,,,
,,,,,,,,,,,,,,,,,,,,,,,21,Male,2020-11-24_15h52.49.226,torte-2b,2020.1.3,Win32,60,12812,,,,,,,,,,,,,,0,21,21,21,1,1,,,,,,,,,,,,,,,,,,,,,,,,,,,,,,,,,,,,,,,,,,,,,,,
,,,,,,,,,,,,,,,,,,,,,,,21,Male,2020-11-24_15h52.49.226,torte-2b,2020.1.3,Win32,60,12812,,,,,,,,,,,,,,0,22,22,22,1,6,,,,,,,,,,,,,,,,,,,,,,,,,,,,,,,,,,,,,,,,,,,,,,,
,,,,,,,,,,,,,,,,,,,,,,,21,Male,2020-11-24_15h52.49.226,torte-2b,2020.1.3,Win32,60,12812,,,,,,,,,,,,,space,0,23,23,23,1,1,0.58275,,,,,,,,,,,,,,,,,,,,,,,,,,,,,,,,,,,,,,,,,,,,,,
,,,,,,,,,,,,,,,,,,,,,,,21,Male,2020-11-24_15h52.49.226,torte-2b,2020.1.3,Win32,60,12812,,,,,,,,,,,,,,0,24,24,24,1,5,,,,,,,,,,,,,,,,,,,,,,,,,,,,,,,,,,,,,,,,,,,,,,,
,,,,,,,,,,,,,,,,,,,,,,,21,Male,2020-11-24_15h52.49.226,torte-2b,2020.1.3,Win32,60,12812,,,,,,,,,,,,,,0,25,25,25,1,6,,,,,,,,,,,,,,,,,,,,,,,,,,,,,,,,,,,,,,,,,,,,,,,
,,,,,,,,,,,,,,,,,,,,,,,21,Male,2020-11-24_15h52.49.226,torte-2b,2020.1.3,Win32,60,12812,,,,,,,,,,,,,,0,26,26,26,1,6,,,,,,,,,,,,,,,,,,,,,,,,,,,,,,,,,,,,,,,,,,,,,,,
,,,,,,,,,,,,,,,,,,,,,,,21,Male,2020-11-24_15h52.49.226,torte-2b,2020.1.3,Win32,60,12812,,,,,,,,,,,,,space,0,27,27,27,1,6,0.751525,,,,,,,,,,,,,,,,,,,,,,,,,,,,,,,,,,,,,,,,,,,,,,
,,,,,,,,,,,,,,,,,,,,,,,21,Male,2020-11-24_15h52.49.226,torte-2b,2020.1.3,Win32,60,12812,,,,,,,,,,,,,,0,28,28,28,1,5,,,,,,,,,,,,,,,,,,,,,,,,,,,,,,,,,,,,,,,,,,,,,,,
,,,,,,,,,,,,,,,,,,,,,,,21,Male,2020-11-24_15h52.49.226,torte-2b,2020.1.3,Win32,60,12812,,,,,,,,,,,,,,0,29,29,29,1,2,,,,,,,,,,,,,,,,,,,,,,,,,,,,,,,,,,,,,,,,,,,,,,,
,,,,,,,,,,,,,,,,,,,,,,,21,Male,2020-11-24_15h52.49.226,torte-2b,2020.1.3,Win32,60,12812,,,,,,,,,,,,,space,0,30,30,30,1,5,0.335695,,,,,,,,,,,,,,,,,,,,,,,,,,,,,,,,,,,,,,,,,,,,,,
,,,,,,,,,,,,,,,,,,,,,,,21,Male,2020-11-24_15h52.49.226,torte-2b,2020.1.3,Win32,60,12812,,,,,,,,,,,,,space,0,31,31,31,1,2,0.54942,,,,,,,,,,,,,,,,,,,,,,,,,,,,,,,,,,,,,,,,,,,,,,
,,,,,,,,,,,,,,,,,,,,,,,21,Male,2020-11-24_15h52.49.226,torte-2b,2020.1.3,Win32,60,12812,,,,,,,,,,,,,space,0,32,32,32,1,5,0.367555,,,,,,,,,,,,,,,,,,,,,,,,,,,,,,,,,,,,,,,,,,,,,,
,,,,,,,,,,,,,,,,,,,,,,,21,Male,2020-11-24_15h52.49.226,torte-2b,2020.1.3,Win32,60,12812,,,,,,,,,,,,,,0,33,33,33,1,1,,,,,,,,,,,,,,,,,,,,,,,,,,,,,,,,,,,,,,,,,,,,,,,
,,,,,,,,,,,,,,,,,,,,,,,21,Male,2020-11-24_15h52.49.226,torte-2b,2020.1.3,Win32,60,12812,,,,,,,,,,,,,,0,34,34,34,1,1,,,,,,,,,,,,,,,,,,,,,,,,,,,,,,,,,,,,,,,,,,,,,,,
,,,,,,,,,,,,,,,,,,,,,,,21,Male,2020-11-24_15h52.49.226,torte-2b,2020.1.3,Win32,60,12812,,,,,,,,,,,,,,,,,,,2,,0,0,0,0,1,,,,,,,,,,,,,,,,,,,,,,,,,,,,,,,,,,,,,,,,,
,,,,,,,,,,,,,,,,,,,,,,,21,Male,2020-11-24_15h52.49.226,torte-2b,2020.1.3,Win32,60,12812,,,,,,,,,,,,,,,,,,,2,,0,1,1,1,1,,,,,,,,,,,,,,,,,,,,,,,,,,,,,,,,,,,,,,,,,
,,,,,,,,,,,,,,,,,,,,,,,21,Male,2020-11-24_15h52.49.226,torte-2b,2020.1.3,Win32,60,12812,,,,,,,,,,,,,,,,,,,6,,0,2,2,2,1,,,,,,,,,,,,,,,,,,,,,,,,,,,,,,,,,,,,,,,,,
,,,,,,,,,,,,,,,,,,,,,,,21,Male,2020-11-24_15h52.49.226,torte-2b,2020.1.3,Win32,60,12812,,,,,,,,,,,,,space,,,,,,2,0.63159,0,3,3,3,1,,,,,,,,,,,,,,,,,,,,,,,,,,,,,,,,,,,,,,,,,
,,,,,,,,,,,,,,,,,,,,,,,21,Male,2020-11-24_15h52.49.226,torte-2b,2020.1.3,Win32,60,12812,,,,,,,,,,,,,space,,,,,,6,0.348435,0,4,4,4,1,,,,,,,,,,,,,,,,,,,,,,,,,,,,,,,,,,,,,,,,,
,,,,,,,,,,,,,,,,,,,,,,,21,Male,2020-11-24_15h52.49.226,torte-2b,2020.1.3,Win32,60,12812,,,,,,,,,,,,,space,,,,,,2,0.490035,0,5,5,5,1,,,,,,,,,,,,,,,,,,,,,,,,,,,,,,,,,,,,,,,,,
,,,,,,,,,,,,,,,,,,,,,,,21,Male,2020-11-24_15h52.49.226,torte-2b,2020.1.3,Win32,60,12812,,,,,,,,,,,,,,,,,,,7,,0,6,6,6,1,,,,,,,,,,,,,,,,,,,,,,,,,,,,,,,,,,,,,,,,,
,,,,,,,,,,,,,,,,,,,,,,,21,Male,2020-11-24_15h52.49.226,torte-2b,2020.1.3,Win32,60,12812,,,,,,,,,,,,,space,,,,,,2,0.451295,0,7,7,7,1,,,,,,,,,,,,,,,,,,,,,,,,,,,,,,,,,,,,,,,,,
,,,,,,,,,,,,,,,,,,,,,,,21,Male,2020-11-24_15h52.49.226,torte-2b,2020.1.3,Win32,60,12812,,,,,,,,,,,,,space,,,,,,7,0.58638,0,8,8,8,1,,,,,,,,,,,,,,,,,,,,,,,,,,,,,,,,,,,,,,,,,
,,,,,,,,,,,,,,,,,,,,,,,21,Male,2020-11-24_15h52.49.226,torte-2b,2020.1.3,Win32,60,12812,,,,,,,,,,,,,space,,,,,,2,1.18421,0,9,9,9,1,,,,,,,,,,,,,,,,,,,,,,,,,,,,,,,,,,,,,,,,,
,,,,,,,,,,,,,,,,,,,,,,,21,Male,2020-11-24_15h52.49.226,torte-2b,2020.1.3,Win32,60,12812,,,,,,,,,,,,,,,,,,,5,,0,10,10,10,1,,,,,,,,,,,,,,,,,,,,,,,,,,,,,,,,,,,,,,,,,
,,,,,,,,,,,,,,,,,,,,,,,21,Male,2020-11-24_15h52.49.226,torte-2b,2020.1.3,Win32,60,12812,,,,,,,,,,,,,,,,,,,4,,0,11,11,11,1,,,,,,,,,,,,,,,,,,,,,,,,,,,,,,,,,,,,,,,,,
,,,,,,,,,,,,,,,,,,,,,,,21,Male,2020-11-24_15h52.49.226,torte-2b,2020.1.3,Win32,60,12812,,,,,,,,,,,,,space,,,,,,5,0.35604,0,12,12,12,1,,,,,,,,,,,,,,,,,,,,,,,,,,,,,,,,,,,,,,,,,
,,,,,,,,,,,,,,,,,,,,,,,21,Male,2020-11-24_15h52.49.226,torte-2b,2020.1.3,Win32,60,12812,,,,,,,,,,,,,,,,,,,6,,0,13,13,13,1,,,,,,,,,,,,,,,,,,,,,,,,,,,,,,,,,,,,,,,,,
,,,,,,,,,,,,,,,,,,,,,,,21,Male,2020-11-24_15h52.49.226,torte-2b,2020.1.3,Win32,60,12812,,,,,,,,,,,,,space,,,,,,5,0.376105,0,14,14,14,1,,,,,,,,,,,,,,,,,,,,,,,,,,,,,,,,,,,,,,,,,
,,,,,,,,,,,,,,,,,,,,,,,21,Male,2020-11-24_15h52.49.226,torte-2b,2020.1.3,Win32,60,12812,,,,,,,,,,,,,,,,,,,4,,0,15,15,15,1,,,,,,,,,,,,,,,,,,,,,,,,,,,,,,,,,,,,,,,,,
,,,,,,,,,,,,,,,,,,,,,,,21,Male,2020-11-24_15h52.49.226,torte-2b,2020.1.3,Win32,60,12812,,,,,,,,,,,,,space,,,,,,5,0.74297,0,16,16,16,1,,,,,,,,,,,,,,,,,,,,,,,,,,,,,,,,,,,,,,,,,
,,,,,,,,,,,,,,,,,,,,,,,21,Male,2020-11-24_15h52.49.226,torte-2b,2020.1.3,Win32,60,12812,,,,,,,,,,,,,,,,,,,3,,0,17,17,17,1,,,,,,,,,,,,,,,,,,,,,,,,,,,,,,,,,,,,,,,,,
,,,,,,,,,,,,,,,,,,,,,,,21,Male,2020-11-24_15h52.49.226,torte-2b,2020.1.3,Win32,60,12812,,,,,,,,,,,,,space,,,,,,6,0.454495,0,18,18,18,1,,,,,,,,,,,,,,,,,,,,,,,,,,,,,,,,,,,,,,,,,
,,,,,,,,,,,,,,,,,,,,,,,21,Male,2020-11-24_15h52.49.226,torte-2b,2020.1.3,Win32,60,12812,,,,,,,,,,,,,,,,,,,6,,0,19,19,19,1,,,,,,,,,,,,,,,,,,,,,,,,,,,,,,,,,,,,,,,,,
,,,,,,,,,,,,,,,,,,,,,,,21,Male,2020-11-24_15h52.49.226,torte-2b,2020.1.3,Win32,60,12812,,,,,,,,,,,,,space,,,,,,6,0.49959,0,20,20,20,1,,,,,,,,,,,,,,,,,,,,,,,,,,,,,,,,,,,,,,,,,
,,,,,,,,,,,,,,,,,,,,,,,21,Male,2020-11-24_15h52.49.226,torte-2b,2020.1.3,Win32,60,12812,,,,,,,,,,,,,,,,,,,4,,0,21,21,21,1,,,,,,,,,,,,,,,,,,,,,,,,,,,,,,,,,,,,,,,,,
,,,,,,,,,,,,,,,,,,,,,,,21,Male,2020-11-24_15h52.49.226,torte-2b,2020.1.3,Win32,60,12812,,,,,,,,,,,,,space,,,,,,6,0.574265,0,22,22,22,1,,,,,,,,,,,,,,,,,,,,,,,,,,,,,,,,,,,,,,,,,
,,,,,,,,,,,,,,,,,,,,,,,21,Male,2020-11-24_15h52.49.226,torte-2b,2020.1.3,Win32,60,12812,,,,,,,,,,,,,,,,,,,4,,0,23,23,23,1,,,,,,,,,,,,,,,,,,,,,,,,,,,,,,,,,,,,,,,,,
,,,,,,,,,,,,,,,,,,,,,,,21,Male,2020-11-24_15h52.49.226,torte-2b,2020.1.3,Win32,60,12812,,,,,,,,,,,,,,,,,,,6,,0,24,24,24,1,,,,,,,,,,,,,,,,,,,,,,,,,,,,,,,,,,,,,,,,,
,,,,,,,,,,,,,,,,,,,,,,,21,Male,2020-11-24_15h52.49.226,torte-2b,2020.1.3,Win32,60,12812,,,,,,,,,,,,,,,,,,,6,,0,25,25,25,1,,,,,,,,,,,,,,,,,,,,,,,,,,,,,,,,,,,,,,,,,
,,,,,,,,,,,,,,,,,,,,,,,21,Male,2020-11-24_15h52.49.226,torte-2b,2020.1.3,Win32,60,12812,,,,,,,,,,,,,,,,,,,7,,0,26,26,26,1,,,,,,,,,,,,,,,,,,,,,,,,,,,,,,,,,,,,,,,,,
,,,,,,,,,,,,,,,,,,,,,,,21,Male,2020-11-24_15h52.49.226,torte-2b,2020.1.3,Win32,60,12812,,,,,,,,,,,,,,,,,,,1,,0,27,27,27,1,,,,,,,,,,,,,,,,,,,,,,,,,,,,,,,,,,,,,,,,,
,,,,,,,,,,,,,,,,,,,,,,,21,Male,2020-11-24_15h52.49.226,torte-2b,2020.1.3,Win32,60,12812,,,,,,,,,,,,,space,,,,,,7,0.388735,0,28,28,28,1,,,,,,,,,,,,,,,,,,,,,,,,,,,,,,,,,,,,,,,,,
,,,,,,,,,,,,,,,,,,,,,,,21,Male,2020-11-24_15h52.49.226,torte-2b,2020.1.3,Win32,60,12812,,,,,,,,,,,,,,,,,,,4,,0,29,29,29,1,,,,,,,,,,,,,,,,,,,,,,,,,,,,,,,,,,,,,,,,,
,,,,,,,,,,,,,,,,,,,,,,,21,Male,2020-11-24_15h52.49.226,torte-2b,2020.1.3,Win32,60,12812,,,,,,,,,,,,,space,,,,,,7,0.35678,0,30,30,30,1,,,,,,,,,,,,,,,,,,,,,,,,,,,,,,,,,,,,,,,,,
,,,,,,,,,,,,,,,,,,,,,,,21,Male,2020-11-24_15h52.49.226,torte-2b,2020.1.3,Win32,60,12812,,,,,,,,,,,,,,,,,,,3,,0,31,31,31,1,,,,,,,,,,,,,,,,,,,,,,,,,,,,,,,,,,,,,,,,,
,,,,,,,,,,,,,,,,,,,,,,,21,Male,2020-11-24_15h52.49.226,torte-2b,2020.1.3,Win32,60,12812,,,,,,,,,,,,,,,,,,,2,,0,32,32,32,1,,,,,,,,,,,,,,,,,,,,,,,,,,,,,,,,,,,,,,,,,
,,,,,,,,,,,,,,,,,,,,,,,21,Male,2020-11-24_15h52.49.226,torte-2b,2020.1.3,Win32,60,12812,,,,,,,,,,,,,,,,,,,6,,0,33,33,33,1,,,,,,,,,,,,,,,,,,,,,,,,,,,,,,,,,,,,,,,,,
,,,,,,,,,,,,,,,,,,,,,,,21,Male,2020-11-24_15h52.49.226,torte-2b,2020.1.3,Win32,60,12812,,,,,,,,,,,,,,,,,,,3,,0,34,34,34,1,,,,,,,,,,,,,,,,,,,,,,,,,,,,,,,,,,,,,,,,,
,,,,,,,,,,,,,,,,,,,,,,,21,Male,2020-11-24_15h52.49.226,torte-2b,2020.1.3,Win32,60,12812,,,,,,,,,,,,,,,,,,,7,,,,,,,0,0,0,0,1,,,,,,,,,,,,,,,,,,,,,,,,,,,,,,,,,,,,
,,,,,,,,,,,,,,,,,,,,,,,21,Male,2020-11-24_15h52.49.226,torte-2b,2020.1.3,Win32,60,12812,,,,,,,,,,,,,,,,,,,5,,,,,,,0,1,1,1,1,,,,,,,,,,,,,,,,,,,,,,,,,,,,,,,,,,,,
,,,,,,,,,,,,,,,,,,,,,,,21,Male,2020-11-24_15h52.49.226,torte-2b,2020.1.3,Win32,60,12812,,,,,,,,,,,,,,,,,,,4,,,,,,,0,2,2,2,1,,,,,,,,,,,,,,,,,,,,,,,,,,,,,,,,,,,,
,,,,,,,,,,,,,,,,,,,,,,,21,Male,2020-11-24_15h52.49.226,torte-2b,2020.1.3,Win32,60,12812,,,,,,,,,,,,,space,,,,,,5,0.57253,,,,,,0,3,3,3,1,,,,,,,,,,,,,,,,,,,,,,,,,,,,,,,,,,,,
,,,,,,,,,,,,,,,,,,,,,,,21,Male,2020-11-24_15h52.49.226,torte-2b,2020.1.3,Win32,60,12812,,,,,,,,,,,,,,,,,,,6,,,,,,,0,4,4,4,1,,,,,,,,,,,,,,,,,,,,,,,,,,,,,,,,,,,,
,,,,,,,,,,,,,,,,,,,,,,,21,Male,2020-11-24_15h52.49.226,torte-2b,2020.1.3,Win32,60,12812,,,,,,,,,,,,,space,,,,,,5,0.38012,,,,,,0,5,5,5,1,,,,,,,,,,,,,,,,,,,,,,,,,,,,,,,,,,,,
,,,,,,,,,,,,,,,,,,,,,,,21,Male,2020-11-24_15h52.49.226,torte-2b,2020.1.3,Win32,60,12812,,,,,,,,,,,,,,,,,,,3,,,,,,,0,6,6,6,1,,,,,,,,,,,,,,,,,,,,,,,,,,,,,,,,,,,,
,,,,,,,,,,,,,,,,,,,,,,,21,Male,2020-11-24_15h52.49.226,torte-2b,2020.1.3,Win32,60,12812,,,,,,,,,,,,,,,,,,,4,,,,,,,0,7,7,7,1,,,,,,,,,,,,,,,,,,,,,,,,,,,,,,,,,,,,
,,,,,,,,,,,,,,,,,,,,,,,21,Male,2020-11-24_15h52.49.226,torte-2b,2020.1.3,Win32,60,12812,,,,,,,,,,,,,space,,,,,,3,0.48682,,,,,,0,8,8,8,1,,,,,,,,,,,,,,,,,,,,,,,,,,,,,,,,,,,,
,,,,,,,,,,,,,,,,,,,,,,,21,Male,2020-11-24_15h52.49.226,torte-2b,2020.1.3,Win32,60,12812,,,,,,,,,,,,,,,,,,,1,,,,,,,0,9,9,9,1,,,,,,,,,,,,,,,,,,,,,,,,,,,,,,,,,,,,
,,,,,,,,,,,,,,,,,,,,,,,21,Male,2020-11-24_15h52.49.226,torte-2b,2020.1.3,Win32,60,12812,,,,,,,,,,,,,,,,,,,2,,,,,,,0,10,10,10,1,,,,,,,,,,,,,,,,,,,,,,,,,,,,,,,,,,,,
,,,,,,,,,,,,,,,,,,,,,,,21,Male,2020-11-24_15h52.49.226,torte-2b,2020.1.3,Win32,60,12812,,,,,,,,,,,,,space,,,,,,1,0.66392,,,,,,0,11,11,11,1,,,,,,,,,,,,,,,,,,,,,,,,,,,,,,,,,,,,
,,,,,,,,,,,,,,,,,,,,,,,21,Male,2020-11-24_15h52.49.226,torte-2b,2020.1.3,Win32,60,12812,,,,,,,,,,,,,space,,,,,,2,0.945275,,,,,,0,12,12,12,1,,,,,,,,,,,,,,,,,,,,,,,,,,,,,,,,,,,,
,,,,,,,,,,,,,,,,,,,,,,,21,Male,2020-11-24_15h52.49.226,torte-2b,2020.1.3,Win32,60,12812,,,,,,,,,,,,,space,,,,,,1,1.08743,,,,,,0,13,13,13,1,,,,,,,,,,,,,,,,,,,,,,,,,,,,,,,,,,,,
,,,,,,,,,,,,,,,,,,,,,,,21,Male,2020-11-24_15h52.49.226,torte-2b,2020.1.3,Win32,60,12812,,,,,,,,,,,,,,,,,,,3,,,,,,,0,14,14,14,1,,,,,,,,,,,,,,,,,,,,,,,,,,,,,,,,,,,,
,,,,,,,,,,,,,,,,,,,,,,,21,Male,2020-11-24_15h52.49.226,torte-2b,2020.1.3,Win32,60,12812,,,,,,,,,,,,,space,,,,,,1,0.52087,,,,,,0,15,15,15,1,,,,,,,,,,,,,,,,,,,,,,,,,,,,,,,,,,,,
,,,,,,,,,,,,,,,,,,,,,,,21,Male,2020-11-24_15h52.49.226,torte-2b,2020.1.3,Win32,60,12812,,,,,,,,,,,,,,,,,,,7,,,,,,,0,16,16,16,1,,,,,,,,,,,,,,,,,,,,,,,,,,,,,,,,,,,,
,,,,,,,,,,,,,,,,,,,,,,,21,Male,2020-11-24_15h52.49.226,torte-2b,2020.1.3,Win32,60,12812,,,,,,,,,,,,,,,,,,,7,,,,,,,0,17,17,17,1,,,,,,,,,,,,,,,,,,,,,,,,,,,,,,,,,,,,
,,,,,,,,,,,,,,,,,,,,,,,21,Male,2020-11-24_15h52.49.226,torte-2b,2020.1.3,Win32,60,12812,,,,,,,,,,,,,,,,,,,4,,,,,,,0,18,18,18,1,,,,,,,,,,,,,,,,,,,,,,,,,,,,,,,,,,,,
,,,,,,,,,,,,,,,,,,,,,,,21,Male,2020-11-24_15h52.49.226,torte-2b,2020.1.3,Win32,60,12812,,,,,,,,,,,,,space,,,,,,7,0.55201,,,,,,0,19,19,19,1,,,,,,,,,,,,,,,,,,,,,,,,,,,,,,,,,,,,
,,,,,,,,,,,,,,,,,,,,,,,21,Male,2020-11-24_15h52.49.226,torte-2b,2020.1.3,Win32,60,12812,,,,,,,,,,,,,,,,,,,3,,,,,,,0,20,20,20,1,,,,,,,,,,,,,,,,,,,,,,,,,,,,,,,,,,,,
,,,,,,,,,,,,,,,,,,,,,,,21,Male,2020-11-24_15h52.49.226,torte-2b,2020.1.3,Win32,60,12812,,,,,,,,,,,,,space,,,,,,7,0.58334,,,,,,0,21,21,21,1,,,,,,,,,,,,,,,,,,,,,,,,,,,,,,,,,,,,
,,,,,,,,,,,,,,,,,,,,,,,21,Male,2020-11-24_15h52.49.226,torte-2b,2020.1.3,Win32,60,12812,,,,,,,,,,,,,space,,,,,,3,0.393565,,,,,,0,22,22,22,1,,,,,,,,,,,,,,,,,,,,,,,,,,,,,,,,,,,,
,,,,,,,,,,,,,,,,,,,,,,,21,Male,2020-11-24_15h52.49.226,torte-2b,2020.1.3,Win32,60,12812,,,,,,,,,,,,,,,,,,,1,,,,,,,0,23,23,23,1,,,,,,,,,,,,,,,,,,,,,,,,,,,,,,,,,,,,
,,,,,,,,,,,,,,,,,,,,,,,21,Male,2020-11-24_15h52.49.226,torte-2b,2020.1.3,Win32,60,12812,,,,,,,,,,,,,,,,,,,6,,,,,,,0,24,24,24,1,,,,,,,,,,,,,,,,,,,,,,,,,,,,,,,,,,,,
,,,,,,,,,,,,,,,,,,,,,,,21,Male,2020-11-24_15h52.49.226,torte-2b,2020.1.3,Win32,60,12812,,,,,,,,,,,,,,,,,,,3,,,,,,,0,25,25,25,1,,,,,,,,,,,,,,,,,,,,,,,,,,,,,,,,,,,,
,,,,,,,,,,,,,,,,,,,,,,,21,Male,2020-11-24_15h52.49.226,torte-2b,2020.1.3,Win32,60,12812,,,,,,,,,,,,,,,,,,,2,,,,,,,0,26,26,26,1,,,,,,,,,,,,,,,,,,,,,,,,,,,,,,,,,,,,
,,,,,,,,,,,,,,,,,,,,,,,21,Male,2020-11-24_15h52.49.226,torte-2b,2020.1.3,Win32,60,12812,,,,,,,,,,,,,space,,,,,,3,0.255085,,,,,,0,27,27,27,1,,,,,,,,,,,,,,,,,,,,,,,,,,,,,,,,,,,,
,,,,,,,,,,,,,,,,,,,,,,,21,Male,2020-11-24_15h52.49.226,torte-2b,2020.1.3,Win32,60,12812,,,,,,,,,,,,,,,,,,,1,,,,,,,0,28,28,28,1,,,,,,,,,,,,,,,,,,,,,,,,,,,,,,,,,,,,
,,,,,,,,,,,,,,,,,,,,,,,21,Male,2020-11-24_15h52.49.226,torte-2b,2020.1.3,Win32,60,12812,,,,,,,,,,,,,,,,,,,3,,,,,,,0,29,29,29,1,,,,,,,,,,,,,,,,,,,,,,,,,,,,,,,,,,,,
,,,,,,,,,,,,,,,,,,,,,,,21,Male,2020-11-24_15h52.49.226,torte-2b,2020.1.3,Win32,60,12812,,,,,,,,,,,,,space,,,,,,1,0.593485,,,,,,0,30,30,30,1,,,,,,,,,,,,,,,,,,,,,,,,,,,,,,,,,,,,
,,,,,,,,,,,,,,,,,,,,,,,21,Male,2020-11-24_15h52.49.226,torte-2b,2020.1.3,Win32,60,12812,,,,,,,,,,,,,,,,,,,7,,,,,,,0,31,31,31,1,,,,,,,,,,,,,,,,,,,,,,,,,,,,,,,,,,,,
,,,,,,,,,,,,,,,,,,,,,,,21,Male,2020-11-24_15h52.49.226,torte-2b,2020.1.3,Win32,60,12812,,,,,,,,,,,,,,,,,,,5,,,,,,,0,32,32,32,1,,,,,,,,,,,,,,,,,,,,,,,,,,,,,,,,,,,,
,,,,,,,,,,,,,,,,,,,,,,,21,Male,2020-11-24_15h52.49.226,torte-2b,2020.1.3,Win32,60,12812,,,,,,,,,,,,,space,,,,,,7,0.830555,,,,,,0,33,33,33,1,,,,,,,,,,,,,,,,,,,,,,,,,,,,,,,,,,,,
,,,,,,,,,,,,,,,,,,,,,,,21,Male,2020-11-24_15h52.49.226,torte-2b,2020.1.3,Win32,60,12812,,,,,,,,,,,,,,,,,,,2,,,,,,,0,34,34,34,1,,,,,,,,,,,,,,,,,,,,,,,,,,,,,,,,,,,,
,,,,,,,,,,,,,,,,,,,,,,,21,Male,2020-11-24_15h52.49.226,torte-2b,2020.1.3,Win32,60,12812,,,,,,,,,,,,,,,,,,,3,,,,,,,,,,,,0,0,0,0,1,,,,,,,,,,,,,,,,,,,,,,,,,,,,,,,
,,,,,,,,,,,,,,,,,,,,,,,21,Male,2020-11-24_15h52.49.226,torte-2b,2020.1.3,Win32,60,12812,,,,,,,,,,,,,,,,,,,7,,,,,,,,,,,,0,1,1,1,1,,,,,,,,,,,,,,,,,,,,,,,,,,,,,,,
,,,,,,,,,,,,,,,,,,,,,,,21,Male,2020-11-24_15h52.49.226,torte-2b,2020.1.3,Win32,60,12812,,,,,,,,,,,,,,,,,,,7,,,,,,,,,,,,0,2,2,2,1,,,,,,,,,,,,,,,,,,,,,,,,,,,,,,,
,,,,,,,,,,,,,,,,,,,,,,,21,Male,2020-11-24_15h52.49.226,torte-2b,2020.1.3,Win32,60,12812,,,,,,,,,,,,,,,,,,,4,,,,,,,,,,,,0,3,3,3,1,,,,,,,,,,,,,,,,,,,,,,,,,,,,,,,
,,,,,,,,,,,,,,,,,,,,,,,21,Male,2020-11-24_15h52.49.226,torte-2b,2020.1.3,Win32,60,12812,,,,,,,,,,,,,,,,,,,5,,,,,,,,,,,,0,4,4,4,1,,,,,,,,,,,,,,,,,,,,,,,,,,,,,,,
,,,,,,,,,,,,,,,,,,,,,,,21,Male,2020-11-24_15h52.49.226,torte-2b,2020.1.3,Win32,60,12812,,,,,,,,,,,,,space,,,,,,4,0.438985,,,,,,,,,,,0,5,5,5,1,,,,,,,,,,,,,,,,,,,,,,,,,,,,,,,
,,,,,,,,,,,,,,,,,,,,,,,21,Male,2020-11-24_15h52.49.226,torte-2b,2020.1.3,Win32,60,12812,,,,,,,,,,,,,,,,,,,2,,,,,,,,,,,,0,6,6,6,1,,,,,,,,,,,,,,,,,,,,,,,,,,,,,,,
,,,,,,,,,,,,,,,,,,,,,,,21,Male,2020-11-24_15h52.49.226,torte-2b,2020.1.3,Win32,60,12812,,,,,,,,,,,,,space,,,,,,4,0.374335,,,,,,,,,,,0,7,7,7,1,,,,,,,,,,,,,,,,,,,,,,,,,,,,,,,
,,,,,,,,,,,,,,,,,,,,,,,21,Male,2020-11-24_15h52.49.226,torte-2b,2020.1.3,Win32,60,12812,,,,,,,,,,,,,space,,,,,,2,1.21687,,,,,,,,,,,0,8,8,8,1,,,,,,,,,,,,,,,,,,,,,,,,,,,,,,,
,,,,,,,,,,,,,,,,,,,,,,,21,Male,2020-11-24_15h52.49.226,torte-2b,2020.1.3,Win32,60,12812,,,,,,,,,,,,,space,,,,,,2,1.331585,,,,,,,,,,,0,9,9,9,1,,,,,,,,,,,,,,,,,,,,,,,,,,,,,,,
,,,,,,,,,,,,,,,,,,,,,,,21,Male,2020-11-24_15h52.49.226,torte-2b,2020.1.3,Win32,60,12812,,,,,,,,,,,,,,,,,,,6,,,,,,,,,,,,0,10,10,10,1,,,,,,,,,,,,,,,,,,,,,,,,,,,,,,,
,,,,,,,,,,,,,,,,,,,,,,,21,Male,2020-11-24_15h52.49.226,torte-2b,2020.1.3,Win32,60,12812,,,,,,,,,,,,,space,,,,,,2,0.61303,,,,,,,,,,,0,11,11,11,1,,,,,,,,,,,,,,,,,,,,,,,,,,,,,,,
,,,,,,,,,,,,,,,,,,,,,,,21,Male,2020-11-24_15h52.49.226,torte-2b,2020.1.3,Win32,60,12812,,,,,,,,,,,,,,,,,,,2,,,,,,,,,,,,0,12,12,12,1,,,,,,,,,,,,,,,,,,,,,,,,,,,,,,,
,,,,,,,,,,,,,,,,,,,,,,,21,Male,2020-11-24_15h52.49.226,torte-2b,2020.1.3,Win32,60,12812,,,,,,,,,,,,,space,,,,,,2,0.40433,,,,,,,,,,,0,13,13,13,1,,,,,,,,,,,,,,,,,,,,,,,,,,,,,,,
,,,,,,,,,,,,,,,,,,,,,,,21,Male,2020-11-24_15h52.49.226,torte-2b,2020.1.3,Win32,60,12812,,,,,,,,,,,,,space,,,,,,2,0.69935,,,,,,,,,,,0,14,14,14,1,,,,,,,,,,,,,,,,,,,,,,,,,,,,,,,
,,,,,,,,,,,,,,,,,,,,,,,21,Male,2020-11-24_15h52.49.226,torte-2b,2020.1.3,Win32,60,12812,,,,,,,,,,,,,,,,,,,4,,,,,,,,,,,,0,15,15,15,1,,,,,,,,,,,,,,,,,,,,,,,,,,,,,,,
,,,,,,,,,,,,,,,,,,,,,,,21,Male,2020-11-24_15h52.49.226,torte-2b,2020.1.3,Win32,60,12812,,,,,,,,,,,,,,,,,,,3,,,,,,,,,,,,0,16,16,16,1,,,,,,,,,,,,,,,,,,,,,,,,,,,,,,,
,,,,,,,,,,,,,,,,,,,,,,,21,Male,2020-11-24_15h52.49.226,torte-2b,2020.1.3,Win32,60,12812,,,,,,,,,,,,,,,,,,,7,,,,,,,,,,,,0,17,17,17,1,,,,,,,,,,,,,,,,,,,,,,,,,,,,,,,
,,,,,,,,,,,,,,,,,,,,,,,21,Male,2020-11-24_15h52.49.226,torte-2b,2020.1.3,Win32,60,12812,,,,,,,,,,,,,,,,,,,4,,,,,,,,,,,,0,18,18,18,1,,,,,,,,,,,,,,,,,,,,,,,,,,,,,,,
,,,,,,,,,,,,,,,,,,,,,,,21,Male,2020-11-24_15h52.49.226,torte-2b,2020.1.3,Win32,60,12812,,,,,,,,,,,,,space,,,,,,7,0.62494,,,,,,,,,,,0,19,19,19,1,,,,,,,,,,,,,,,,,,,,,,,,,,,,,,,
,,,,,,,,,,,,,,,,,,,,,,,21,Male,2020-11-24_15h52.49.226,torte-2b,2020.1.3,Win32,60,12812,,,,,,,,,,,,,,,,,,,7,,,,,,,,,,,,0,20,20,20,1,,,,,,,,,,,,,,,,,,,,,,,,,,,,,,,
,,,,,,,,,,,,,,,,,,,,,,,21,Male,2020-11-24_15h52.49.226,torte-2b,2020.1.3,Win32,60,12812,,,,,,,,,,,,,space,,,,,,7,1.07635,,,,,,,,,,,0,21,21,21,1,,,,,,,,,,,,,,,,,,,,,,,,,,,,,,,
,,,,,,,,,,,,,,,,,,,,,,,21,Male,2020-11-24_15h52.49.226,torte-2b,2020.1.3,Win32,60,12812,,,,,,,,,,,,,space,,,,,,7,0.715045,,,,,,,,,,,0,22,22,22,1,,,,,,,,,,,,,,,,,,,,,,,,,,,,,,,
,,,,,,,,,,,,,,,,,,,,,,,21,Male,2020-11-24_15h52.49.226,torte-2b,2020.1.3,Win32,60,12812,,,,,,,,,,,,,,,,,,,1,,,,,,,,,,,,0,23,23,23,1,,,,,,,,,,,,,,,,,,,,,,,,,,,,,,,
,,,,,,,,,,,,,,,,,,,,,,,21,Male,2020-11-24_15h52.49.226,torte-2b,2020.1.3,Win32,60,12812,,,,,,,,,,,,,,,,,,,7,,,,,,,,,,,,0,24,24,24,1,,,,,,,,,,,,,,,,,,,,,,,,,,,,,,,
,,,,,,,,,,,,,,,,,,,,,,,21,Male,2020-11-24_15h52.49.226,torte-2b,2020.1.3,Win32,60,12812,,,,,,,,,,,,,space,,,,,,1,0.36395,,,,,,,,,,,0,25,25,25,1,,,,,,,,,,,,,,,,,,,,,,,,,,,,,,,
,,,,,,,,,,,,,,,,,,,,,,,21,Male,2020-11-24_15h52.49.226,torte-2b,2020.1.3,Win32,60,12812,,,,,,,,,,,,,space,,,,,,7,0.6855,,,,,,,,,,,0,26,26,26,1,,,,,,,,,,,,,,,,,,,,,,,,,,,,,,,
,,,,,,,,,,,,,,,,,,,,,,,21,Male,2020-11-24_15h52.49.226,torte-2b,2020.1.3,Win32,60,12812,,,,,,,,,,,,,,,,,,,2,,,,,,,,,,,,0,27,27,27,1,,,,,,,,,,,,,,,,,,,,,,,,,,,,,,,
,,,,,,,,,,,,,,,,,,,,,,,21,Male,2020-11-24_15h52.49.226,torte-2b,2020.1.3,Win32,60,12812,,,,,,,,,,,,,,,,,,,5,,,,,,,,,,,,0,28,28,28,1,,,,,,,,,,,,,,,,,,,,,,,,,,,,,,,
,,,,,,,,,,,,,,,,,,,,,,,21,Male,2020-11-24_15h52.49.226,torte-2b,2020.1.3,Win32,60,12812,,,,,,,,,,,,,,,,,,,5,,,,,,,,,,,,0,29,29,29,1,,,,,,,,,,,,,,,,,,,,,,,,,,,,,,,
,,,,,,,,,,,,,,,,,,,,,,,21,Male,2020-11-24_15h52.49.226,torte-2b,2020.1.3,Win32,60,12812,,,,,,,,,,,,,space,,,,,,5,0.496085,,,,,,,,,,,0,30,30,30,1,,,,,,,,,,,,,,,,,,,,,,,,,,,,,,,
,,,,,,,,,,,,,,,,,,,,,,,21,Male,2020-11-24_15h52.49.226,torte-2b,2020.1.3,Win32,60,12812,,,,,,,,,,,,,,,,,,,1,,,,,,,,,,,,0,31,31,31,1,,,,,,,,,,,,,,,,,,,,,,,,,,,,,,,
,,,,,,,,,,,,,,,,,,,,,,,21,Male,2020-11-24_15h52.49.226,torte-2b,2020.1.3,Win32,60,12812,,,,,,,,,,,,,space,,,,,,5,0.44783,,,,,,,,,,,0,32,32,32,1,,,,,,,,,,,,,,,,,,,,,,,,,,,,,,,
,,,,,,,,,,,,,,,,,,,,,,,21,Male,2020-11-24_15h52.49.226,torte-2b,2020.1.3,Win32,60,12812,,,,,,,,,,,,,,,,,,,3,,,,,,,,,,,,0,33,33,33,1,,,,,,,,,,,,,,,,,,,,,,,,,,,,,,,
,,,,,,,,,,,,,,,,,,,,,,,21,Male,2020-11-24_15h52.49.226,torte-2b,2020.1.3,Win32,60,12812,,,,,,,,,,,,,,,,,,,3,,,,,,,,,,,,0,34,34,34,1,,,,,,,,,,,,,,,,,,,,,,,,,,,,,,,
,,,,,,,,,,,,a,Incorrect,,,,,,t3.png,t2.png,1,0.90855,21,Male,2020-11-24_15h52.49.226,torte-2b,2020.1.3,Win32,60,12812,0.670525,space,0.79719,,,,,,,,,,,,,,,,,,,,,,,,,,,,,,,,,space,5.58126,0,0,0,18,1,,,,,,,,,,,,,,,,,,,,,,,,
,,,,,,,,,,,,a,Correct!,,,,,,t4.png,t3.png,1,0.90855,21,Male,2020-11-24_15h52.49.226,torte-2b,2020.1.3,Win32,60,12812,0.57699,,,,,,,,,,,,,,,,,,,,,,,,,,,,,,,,,,,,,0,1,1,75,1,,,,,,,,,,,,,,,,,,,,,,,,
,,,,,,,,,,,,a,Correct!,,,,,,t3.png,t2.png,1,0.90855,21,Male,2020-11-24_15h52.49.226,torte-2b,2020.1.3,Win32,60,12812,0.64139,,,,,,,,,,,,,,,,,,,,,,,,,,,,,,,,,,,,,0,2,2,97,1,,,,,,,,,,,,,,,,,,,,,,,,
,,,,,,,,,,,,l,Incorrect,,,,,,t5.png,t5.png,0,0.978,21,Male,2020-11-24_15h52.49.226,torte-2b,2020.1.3,Win32,60,12812,0.76596,,,,,,,,,,,,,,,,,,,,,,,,,,,,,,,,,,,,,0,3,3,117,1,,,,,,,,,,,,,,,,,,,,,,,,
,,,,,,,,,,,,a,Incorrect,,,,,,t4.png,t2.png,2,0.059078,21,Male,2020-11-24_15h52.49.226,torte-2b,2020.1.3,Win32,60,12812,0.668235,,,,,,,,,,,,,,,,,,,,,,,,,,,,,,,,,,,,,0,4,4,86,1,,,,,,,,,,,,,,,,,,,,,,,,
,,,,,,,,,,,,l,Incorrect,,,,,,t2.png,t3.png,1,0.90855,21,Male,2020-11-24_15h52.49.226,torte-2b,2020.1.3,Win32,60,12812,0.632665,,,,,,,,,,,,,,,,,,,,,,,,,,,,,,,,,,,,,0,5,5,65,1,,,,,,,,,,,,,,,,,,,,,,,,
,,,,,,,,,,,,a,Incorrect,,,,,,t5.png,t1.png,4,9.55E-11,21,Male,2020-11-24_15h52.49.226,torte-2b,2020.1.3,Win32,60,12812,0.869525,,,,,,,,,,,,,,,,,,,,,,,,,,,,,,,,,,,,,0,6,6,100,1,,,,,,,,,,,,,,,,,,,,,,,,
,,,,,,,,,,,,a,Correct!,,,,,,t4.png,t3.png,1,0.90855,21,Male,2020-11-24_15h52.49.226,torte-2b,2020.1.3,Win32,60,12812,0.6341,,,,,,,,,,,,,,,,,,,,,,,,,,,,,,,,,,,,,0,7,7,35,1,,,,,,,,,,,,,,,,,,,,,,,,
,,,,,,,,,,,,a,Incorrect,,,,,,t1.png,t5.png,4,9.55E-11,21,Male,2020-11-24_15h52.49.226,torte-2b,2020.1.3,Win32,60,12812,0.69879,,,,,,,,,,,,,,,,,,,,,,,,,,,,,,,,,,,,,0,8,8,12,1,,,,,,,,,,,,,,,,,,,,,,,,
,,,,,,,,,,,,l,Correct!,,,,,,t1.png,t5.png,4,9.55E-11,21,Male,2020-11-24_15h52.49.226,torte-2b,2020.1.3,Win32,60,12812,0.497805,,,,,,,,,,,,,,,,,,,,,,,,,,,,,,,,,,,,,0,9,9,41,1,,,,,,,,,,,,,,,,,,,,,,,,
,,,,,,,,,,,,a,Correct!,,,,,,t1.png,t1.png,0,0.97829,21,Male,2020-11-24_15h52.49.226,torte-2b,2020.1.3,Win32,60,12812,0.536605,,,,,,,,,,,,,,,,,,,,,,,,,,,,,,,,,,,,,0,10,10,78,1,,,,,,,,,,,,,,,,,,,,,,,,
,,,,,,,,,,,,a,Correct!,,,,,,t1.png,t1.png,0,0.97829,21,Male,2020-11-24_15h52.49.226,torte-2b,2020.1.3,Win32,60,12812,0.401335,,,,,,,,,,,,,,,,,,,,,,,,,,,,,,,,,,,,,0,11,11,67,1,,,,,,,,,,,,,,,,,,,,,,,,
,,,,,,,,,,,,l,Incorrect,,,,,,t2.png,t3.png,1,0.90855,21,Male,2020-11-24_15h52.49.226,torte-2b,2020.1.3,Win32,60,12812,0.76752,,,,,,,,,,,,,,,,,,,,,,,,,,,,,,,,,,,,,0,12,12,68,1,,,,,,,,,,,,,,,,,,,,,,,,
,,,,,,,,,,,,a,Incorrect,,,,,,t2.png,t5.png,3,0.0000131,21,Male,2020-11-24_15h52.49.226,torte-2b,2020.1.3,Win32,60,12812,0.8283,,,,,,,,,,,,,,,,,,,,,,,,,,,,,,,,,,,,,0,13,13,95,1,,,,,,,,,,,,,,,,,,,,,,,,
,,,,,,,,,,,,l,Correct!,,,,,,t4.png,t1.png,3,0.0000131,21,Male,2020-11-24_15h52.49.226,torte-2b,2020.1.3,Win32,60,12812,0.67183,,,,,,,,,,,,,,,,,,,,,,,,,,,,,,,,,,,,,0,14,14,93,1,,,,,,,,,,,,,,,,,,,,,,,,
,,,,,,,,,,,,a,Incorrect,,,,,,t1.png,t4.png,3,0.0000131,21,Male,2020-11-24_15h52.49.226,torte-2b,2020.1.3,Win32,60,12812,0.43254,,,,,,,,,,,,,,,,,,,,,,,,,,,,,,,,,,,,,0,15,15,17,1,,,,,,,,,,,,,,,,,,,,,,,,
,,,,,,,,,,,,a,Incorrect,,,,,,t1.png,t3.png,2,0.056466,21,Male,2020-11-24_15h52.49.226,torte-2b,2020.1.3,Win32,60,12812,0.294425,,,,,,,,,,,,,,,,,,,,,,,,,,,,,,,,,,,,,0,16,16,69,1,,,,,,,,,,,,,,,,,,,,,,,,
,,,,,,,,,,,,l,Correct!,,,,,,t3.png,t5.png,2,0.056466,21,Male,2020-11-24_15h52.49.226,torte-2b,2020.1.3,Win32,60,12812,0.339415,,,,,,,,,,,,,,,,,,,,,,,,,,,,,,,,,,,,,0,17,17,44,1,,,,,,,,,,,,,,,,,,,,,,,,
,,,,,,,,,,,,a,Incorrect,,,,,,t5.png,t1.png,4,9.55E-11,21,Male,2020-11-24_15h52.49.226,torte-2b,2020.1.3,Win32,60,12812,0.77214,,,,,,,,,,,,,,,,,,,,,,,,,,,,,,,,,,,,,0,18,18,71,1,,,,,,,,,,,,,,,,,,,,,,,,
,,,,,,,,,,,,l,Correct!,,,,,,t5.png,t3.png,2,0.056466,21,Male,2020-11-24_15h52.49.226,torte-2b,2020.1.3,Win32,60,12812,0.690145,,,,,,,,,,,,,,,,,,,,,,,,,,,,,,,,,,,,,0,19,19,114,1,,,,,,,,,,,,,,,,,,,,,,,,
,,,,,,,,,,,,a,Incorrect,,,,,,t1.png,t3.png,2,0.056466,21,Male,2020-11-24_15h52.49.226,torte-2b,2020.1.3,Win32,60,12812,0.758075,,,,,,,,,,,,,,,,,,,,,,,,,,,,,,,,,,,,,0,20,20,63,1,,,,,,,,,,,,,,,,,,,,,,,,
,,,,,,,,,,,,a,Correct!,,,,,,t4.png,t3.png,1,0.909,21,Male,2020-11-24_15h52.49.226,torte-2b,2020.1.3,Win32,60,12812,1.041775,,,,,,,,,,,,,,,,,,,,,,,,,,,,,,,,,,,,,0,21,21,20,1,,,,,,,,,,,,,,,,,,,,,,,,
,,,,,,,,,,,,l,Incorrect,,,,,,t4.png,t4.png,0,0.98115,21,Male,2020-11-24_15h52.49.226,torte-2b,2020.1.3,Win32,60,12812,0.792535,,,,,,,,,,,,,,,,,,,,,,,,,,,,,,,,,,,,,0,22,22,21,1,,,,,,,,,,,,,,,,,,,,,,,,
,,,,,,,,,,,,a,Incorrect,,,,,,t3.png,t1.png,2,0.056466,21,Male,2020-11-24_15h52.49.226,torte-2b,2020.1.3,Win32,60,12812,0.34159,,,,,,,,,,,,,,,,,,,,,,,,,,,,,,,,,,,,,0,23,23,29,1,,,,,,,,,,,,,,,,,,,,,,,,
,,,,,,,,,,,,a,Correct!,,,,,,t5.png,t5.png,0,0.97829,21,Male,2020-11-24_15h52.49.226,torte-2b,2020.1.3,Win32,60,12812,0.75774,,,,,,,,,,,,,,,,,,,,,,,,,,,,,,,,,,,,,0,24,24,94,1,,,,,,,,,,,,,,,,,,,,,,,,
,,,,,,,,,,,,l,Incorrect,,,,,,t1.png,t2.png,1,0.90025,21,Male,2020-11-24_15h52.49.226,torte-2b,2020.1.3,Win32,60,12812,0.789635,,,,,,,,,,,,,,,,,,,,,,,,,,,,,,,,,,,,,0,25,25,105,1,,,,,,,,,,,,,,,,,,,,,,,,
,,,,,,,,,,,,a,Incorrect,,,,,,t1.png,t4.png,3,0.0000131,21,Male,2020-11-24_15h52.49.226,torte-2b,2020.1.3,Win32,60,12812,0.757735,,,,,,,,,,,,,,,,,,,,,,,,,,,,,,,,,,,,,0,26,26,107,1,,,,,,,,,,,,,,,,,,,,,,,,
,,,,,,,,,,,,a,Correct!,,,,,,t5.png,t5.png,0,0.97829,21,Male,2020-11-24_15h52.49.226,torte-2b,2020.1.3,Win32,60,12812,0.624225,,,,,,,,,,,,,,,,,,,,,,,,,,,,,,,,,,,,,0,27,27,25,1,,,,,,,,,,,,,,,,,,,,,,,,
,,,,,,,,,,,,a,Correct!,,,,,,t2.png,t1.png,1,0.90025,21,Male,2020-11-24_15h52.49.226,torte-2b,2020.1.3,Win32,60,12812,0.75766,,,,,,,,,,,,,,,,,,,,,,,,,,,,,,,,,,,,,0,28,28,4,1,,,,,,,,,,,,,,,,,,,,,,,,
,,,,,,,,,,,,l,Incorrect,,,,,,t5.png,t4.png,1,0.90025,21,Male,2020-11-24_15h52.49.226,torte-2b,2020.1.3,Win32,60,12812,0.763645,,,,,,,,,,,,,,,,,,,,,,,,,,,,,,,,,,,,,0,29,29,27,1,,,,,,,,,,,,,,,,,,,,,,,,
,,,,,,,,,,,,a,Incorrect,,,,,,t5.png,t3.png,2,0.056466,21,Male,2020-11-24_15h52.49.226,torte-2b,2020.1.3,Win32,60,12812,0.7723,,,,,,,,,,,,,,,,,,,,,,,,,,,,,,,,,,,,,0,30,30,108,1,,,,,,,,,,,,,,,,,,,,,,,,
,,,,,,,,,,,,l,Incorrect,,,,,,t1.png,t2.png,1,0.90025,21,Male,2020-11-24_15h52.49.226,torte-2b,2020.1.3,Win32,60,12812,0.99,,,,,,,,,,,,,,,,,,,,,,,,,,,,,,,,,,,,,0,31,31,72,1,,,,,,,,,,,,,,,,,,,,,,,,
,,,,,,,,,,,,a,Incorrect,,,,,,t2.png,t4.png,2,0.059078,21,Male,2020-11-24_15h52.49.226,torte-2b,2020.1.3,Win32,60,12812,0.57271,,,,,,,,,,,,,,,,,,,,,,,,,,,,,,,,,,,,,0,32,32,77,1,,,,,,,,,,,,,,,,,,,,,,,,
,,,,,,,,,,,,a,Incorrect,,,,,,t2.png,t4.png,2,0.059078,21,Male,2020-11-24_15h52.49.226,torte-2b,2020.1.3,Win32,60,12812,0.541155,,,,,,,,,,,,,,,,,,,,,,,,,,,,,,,,,,,,,0,33,33,24,1,,,,,,,,,,,,,,,,,,,,,,,,
,,,,,,,,,,,,a,Incorrect,,,,,,t1.png,t5.png,4,9.55E-11,21,Male,2020-11-24_15h52.49.226,torte-2b,2020.1.3,Win32,60,12812,0.5859,,,,,,,,,,,,,,,,,,,,,,,,,,,,,,,,,,,,,0,34,34,16,1,,,,,,,,,,,,,,,,,,,,,,,,
,,,,,,,,,,,,a,Correct!,,,,,,t5.png,t4.png,1,0.9,21,Male,2020-11-24_15h52.49.226,torte-2b,2020.1.3,Win32,60,12812,0.58336,,,,,,,,,,,,,,,,,,,,,,,,,,,,,,,,,,,,,0,35,35,49,1,,,,,,,,,,,,,,,,,,,,,,,,
,,,,,,,,,,,,l,Incorrect,,,,,,t2.png,t2.png,0,0.98115,21,Male,2020-11-24_15h52.49.226,torte-2b,2020.1.3,Win32,60,12812,0.496495,,,,,,,,,,,,,,,,,,,,,,,,,,,,,,,,,,,,,0,36,36,59,1,,,,,,,,,,,,,,,,,,,,,,,,
,,,,,,,,,,,,a,Correct!,,,,,,t1.png,t1.png,0,0.978,21,Male,2020-11-24_15h52.49.226,torte-2b,2020.1.3,Win32,60,12812,0.62031,,,,,,,,,,,,,,,,,,,,,,,,,,,,,,,,,,,,,0,37,37,28,1,,,,,,,,,,,,,,,,,,,,,,,,
,,,,,,,,,,,,a,Correct!,,,,,,t4.png,t4.png,0,0.98115,21,Male,2020-11-24_15h52.49.226,torte-2b,2020.1.3,Win32,60,12812,0.67604,,,,,,,,,,,,,,,,,,,,,,,,,,,,,,,,,,,,,0,38,38,90,1,,,,,,,,,,,,,,,,,,,,,,,,
,,,,,,,,,,,,l,Incorrect,,,,,,t1.png,t2.png,1,0.90025,21,Male,2020-11-24_15h52.49.226,torte-2b,2020.1.3,Win32,60,12812,0.945865,,,,,,,,,,,,,,,,,,,,,,,,,,,,,,,,,,,,,0,39,39,112,1,,,,,,,,,,,,,,,,,,,,,,,,
,,,,,,,,,,,,a,Incorrect,,,,,,t1.png,t4.png,3,0.0000131,21,Male,2020-11-24_15h52.49.226,torte-2b,2020.1.3,Win32,60,12812,0.5781,,,,,,,,,,,,,,,,,,,,,,,,,,,,,,,,,,,,,0,40,40,92,1,,,,,,,,,,,,,,,,,,,,,,,,
,,,,,,,,,,,,a,Incorrect,,,,,,t3.png,t1.png,2,0.0565,21,Male,2020-11-24_15h52.49.226,torte-2b,2020.1.3,Win32,60,12812,0.87833,,,,,,,,,,,,,,,,,,,,,,,,,,,,,,,,,,,,,0,41,41,31,1,,,,,,,,,,,,,,,,,,,,,,,,
,,,,,,,,,,,,l,Correct!,,,,,,t5.png,t1.png,4,9.55E-11,21,Male,2020-11-24_15h52.49.226,torte-2b,2020.1.3,Win32,60,12812,0.362985,,,,,,,,,,,,,,,,,,,,,,,,,,,,,,,,,,,,,0,42,42,43,1,,,,,,,,,,,,,,,,,,,,,,,,
,,,,,,,,,,,,l,Correct!,,,,,,t1.png,t5.png,4,9.55E-11,21,Male,2020-11-24_15h52.49.226,torte-2b,2020.1.3,Win32,60,12812,0.523905,,,,,,,,,,,,,,,,,,,,,,,,,,,,,,,,,,,,,0,43,43,55,1,,,,,,,,,,,,,,,,,,,,,,,,
,,,,,,,,,,,,l,Correct!,,,,,,t4.png,t5.png,1,0.90025,21,Male,2020-11-24_15h52.49.226,torte-2b,2020.1.3,Win32,60,12812,0.558415,,,,,,,,,,,,,,,,,,,,,,,,,,,,,,,,,,,,,0,44,44,103,1,,,,,,,,,,,,,,,,,,,,,,,,
,,,,,,,,,,,,l,Correct!,,,,,,t2.png,t5.png,3,0.0000131,21,Male,2020-11-24_15h52.49.226,torte-2b,2020.1.3,Win32,60,12812,0.779465,,,,,,,,,,,,,,,,,,,,,,,,,,,,,,,,,,,,,0,45,45,104,1,,,,,,,,,,,,,,,,,,,,,,,,
,,,,,,,,,,,,a,Incorrect,,,,,,t1.png,t3.png,2,0.056466,21,Male,2020-11-24_15h52.49.226,torte-2b,2020.1.3,Win32,60,12812,0.698305,,,,,,,,,,,,,,,,,,,,,,,,,,,,,,,,,,,,,0,46,46,87,1,,,,,,,,,,,,,,,,,,,,,,,,
,,,,,,,,,,,,a,Correct!,,,,,,t4.png,t3.png,1,0.909,21,Male,2020-11-24_15h52.49.226,torte-2b,2020.1.3,Win32,60,12812,0.520505,,,,,,,,,,,,,,,,,,,,,,,,,,,,,,,,,,,,,0,47,47,46,1,,,,,,,,,,,,,,,,,,,,,,,,
,,,,,,,,,,,,l,Correct!,,,,,,t3.png,t5.png,2,0.0565,21,Male,2020-11-24_15h52.49.226,torte-2b,2020.1.3,Win32,60,12812,0.333855,,,,,,,,,,,,,,,,,,,,,,,,,,,,,,,,,,,,,0,48,48,83,1,,,,,,,,,,,,,,,,,,,,,,,,
,,,,,,,,,,,,a,Correct!,,,,,,t1.png,t1.png,0,0.97829,21,Male,2020-11-24_15h52.49.226,torte-2b,2020.1.3,Win32,60,12812,0.53977,,,,,,,,,,,,,,,,,,,,,,,,,,,,,,,,,,,,,0,49,49,9,1,,,,,,,,,,,,,,,,,,,,,,,,
,,,,,,,,,,,,a,Incorrect,,,,,,t3.png,t4.png,1,0.909,21,Male,2020-11-24_15h52.49.226,torte-2b,2020.1.3,Win32,60,12812,0.480795,,,,,,,,,,,,,,,,,,,,,,,,,,,,,,,,,,,,,0,50,50,82,1,,,,,,,,,,,,,,,,,,,,,,,,
,,,,,,,,,,,,l,Correct!,,,,,,t5.png,t2.png,3,0.0000131,21,Male,2020-11-24_15h52.49.226,torte-2b,2020.1.3,Win32,60,12812,0.302215,,,,,,,,,,,,,,,,,,,,,,,,,,,,,,,,,,,,,0,51,51,91,1,,,,,,,,,,,,,,,,,,,,,,,,
,,,,,,,,,,,,a,Incorrect,,,,,,t3.png,t1.png,2,0.056466,21,Male,2020-11-24_15h52.49.226,torte-2b,2020.1.3,Win32,60,12812,0.79229,,,,,,,,,,,,,,,,,,,,,,,,,,,,,,,,,,,,,0,52,52,64,1,,,,,,,,,,,,,,,,,,,,,,,,
,,,,,,,,,,,,l,Incorrect,,,,,,t2.png,t3.png,1,0.909,21,Male,2020-11-24_15h52.49.226,torte-2b,2020.1.3,Win32,60,12812,0.31597,,,,,,,,,,,,,,,,,,,,,,,,,,,,,,,,,,,,,0,53,53,74,1,,,,,,,,,,,,,,,,,,,,,,,,
,,,,,,,,,,,,l,Incorrect,,,,,,t4.png,t5.png,1,0.90025,21,Male,2020-11-24_15h52.49.226,torte-2b,2020.1.3,Win32,60,12812,0.44686,,,,,,,,,,,,,,,,,,,,,,,,,,,,,,,,,,,,,0,54,54,58,1,,,,,,,,,,,,,,,,,,,,,,,,
,,,,,,,,,,,,l,Correct!,,,,,,t3.png,t1.png,2,0.056466,21,Male,2020-11-24_15h52.49.226,torte-2b,2020.1.3,Win32,60,12812,0.41378,,,,,,,,,,,,,,,,,,,,,,,,,,,,,,,,,,,,,0,55,55,32,1,,,,,,,,,,,,,,,,,,,,,,,,
,,,,,,,,,,,,a,Incorrect,,,,,,t5.png,t2.png,3,0.0000131,21,Male,2020-11-24_15h52.49.226,torte-2b,2020.1.3,Win32,60,12812,0.488605,,,,,,,,,,,,,,,,,,,,,,,,,,,,,,,,,,,,,0,56,56,51,1,,,,,,,,,,,,,,,,,,,,,,,,
,,,,,,,,,,,,a,Correct!,,,,,,t4.png,t4.png,0,0.98115,21,Male,2020-11-24_15h52.49.226,torte-2b,2020.1.3,Win32,60,12812,0.718925,,,,,,,,,,,,,,,,,,,,,,,,,,,,,,,,,,,,,0,57,57,80,1,,,,,,,,,,,,,,,,,,,,,,,,
,,,,,,,,,,,,a,Incorrect,,,,,,t5.png,t1.png,4,9.55E-11,21,Male,2020-11-24_15h52.49.226,torte-2b,2020.1.3,Win32,60,12812,0.49265,,,,,,,,,,,,,,,,,,,,,,,,,,,,,,,,,,,,,0,58,58,22,1,,,,,,,,,,,,,,,,,,,,,,,,
,,,,,,,,,,,,a,Correct!,,,,,,t3.png,t4.png,1,0.909,21,Male,2020-11-24_15h52.49.226,torte-2b,2020.1.3,Win32,60,12812,0.496635,,,,,,,,,,,,,,,,,,,,,,,,,,,,,,,,,,,,,0,59,59,106,1,,,,,,,,,,,,,,,,,,,,,,,,
,,,,,,,,,,,,l,Correct!,,,,,,t2.png,t5.png,3,0.0000131,21,Male,2020-11-24_15h52.49.226,torte-2b,2020.1.3,Win32,60,12812,0.530895,,,,,,,,,,,,,,,,,,,,,,,,,,,,,,,,,,,,,0,60,60,66,1,,,,,,,,,,,,,,,,,,,,,,,,
,,,,,,,,,,,,l,Correct!,,,,,,t4.png,t2.png,2,0.0591,21,Male,2020-11-24_15h52.49.226,torte-2b,2020.1.3,Win32,60,12812,0.531725,,,,,,,,,,,,,,,,,,,,,,,,,,,,,,,,,,,,,0,61,61,36,1,,,,,,,,,,,,,,,,,,,,,,,,
,,,,,,,,,,,,l,Correct!,,,,,,t1.png,t4.png,3,0.0000131,21,Male,2020-11-24_15h52.49.226,torte-2b,2020.1.3,Win32,60,12812,0.500735,,,,,,,,,,,,,,,,,,,,,,,,,,,,,,,,,,,,,0,62,62,50,1,,,,,,,,,,,,,,,,,,,,,,,,
,,,,,,,,,,,,a,Incorrect,,,,,,t5.png,t2.png,3,0.0000131,21,Male,2020-11-24_15h52.49.226,torte-2b,2020.1.3,Win32,60,12812,0.820415,,,,,,,,,,,,,,,,,,,,,,,,,,,,,,,,,,,,,0,63,63,116,1,,,,,,,,,,,,,,,,,,,,,,,,
,,,,,,,,,,,,l,Correct!,,,,,,t2.png,t4.png,2,0.059078,21,Male,2020-11-24_15h52.49.226,torte-2b,2020.1.3,Win32,60,12812,0.655855,,,,,,,,,,,,,,,,,,,,,,,,,,,,,,,,,,,,,0,64,64,37,1,,,,,,,,,,,,,,,,,,,,,,,,
,,,,,,,,,,,,a,Correct!,,,,,,t4.png,t2.png,2,0.059078,21,Male,2020-11-24_15h52.49.226,torte-2b,2020.1.3,Win32,60,12812,0.33437,,,,,,,,,,,,,,,,,,,,,,,,,,,,,,,,,,,,,0,65,65,109,1,,,,,,,,,,,,,,,,,,,,,,,,
,,,,,,,,,,,,a,Incorrect,,,,,,t4.png,t2.png,2,0.059078,21,Male,2020-11-24_15h52.49.226,torte-2b,2020.1.3,Win32,60,12812,0.26184,,,,,,,,,,,,,,,,,,,,,,,,,,,,,,,,,,,,,0,66,66,88,1,,,,,,,,,,,,,,,,,,,,,,,,
,,,,,,,,,,,,a,Correct!,,,,,,t2.png,t2.png,0,0.98115,21,Male,2020-11-24_15h52.49.226,torte-2b,2020.1.3,Win32,60,12812,0.3762,,,,,,,,,,,,,,,,,,,,,,,,,,,,,,,,,,,,,0,67,67,57,1,,,,,,,,,,,,,,,,,,,,,,,,
,,,,,,,,,,,,l,Incorrect,,,,,,t3.png,t4.png,1,0.90855,21,Male,2020-11-24_15h52.49.226,torte-2b,2020.1.3,Win32,60,12812,0.47057,,,,,,,,,,,,,,,,,,,,,,,,,,,,,,,,,,,,,0,68,68,84,1,,,,,,,,,,,,,,,,,,,,,,,,
,,,,,,,,,,,,a,Correct!,,,,,,t3.png,t4.png,1,0.90855,21,Male,2020-11-24_15h52.49.226,torte-2b,2020.1.3,Win32,60,12812,0.381765,,,,,,,,,,,,,,,,,,,,,,,,,,,,,,,,,,,,,0,69,69,96,1,,,,,,,,,,,,,,,,,,,,,,,,
,,,,,,,,,,,,l,Correct!,,,,,,t2.png,t5.png,3,0.0000131,21,Male,2020-11-24_15h52.49.226,torte-2b,2020.1.3,Win32,60,12812,0.793905,,,,,,,,,,,,,,,,,,,,,,,,,,,,,,,,,,,,,0,70,70,8,1,,,,,,,,,,,,,,,,,,,,,,,,
,,,,,,,,,,,,a,Incorrect,,,,,,t5.png,t2.png,3,0.0000131,21,Male,2020-11-24_15h52.49.226,torte-2b,2020.1.3,Win32,60,12812,0.573465,,,,,,,,,,,,,,,,,,,,,,,,,,,,,,,,,,,,,0,71,71,119,1,,,,,,,,,,,,,,,,,,,,,,,,
,,,,,,,,,,,,l,Correct!,,,,,,t3.png,t5.png,2,0.0565,21,Male,2020-11-24_15h52.49.226,torte-2b,2020.1.3,Win32,60,12812,0.776945,,,,,,,,,,,,,,,,,,,,,,,,,,,,,,,,,,,,,0,72,72,30,1,,,,,,,,,,,,,,,,,,,,,,,,
,,,,,,,,,,,,a,Incorrect,,,,,,t5.png,t1.png,4,9.55E-11,21,Male,2020-11-24_15h52.49.226,torte-2b,2020.1.3,Win32,60,12812,0.4475,,,,,,,,,,,,,,,,,,,,,,,,,,,,,,,,,,,,,0,73,73,102,1,,,,,,,,,,,,,,,,,,,,,,,,
,,,,,,,,,,,,a,Correct!,,,,,,t4.png,t5.png,1,0.9,21,Male,2020-11-24_15h52.49.226,torte-2b,2020.1.3,Win32,60,12812,0.86014,,,,,,,,,,,,,,,,,,,,,,,,,,,,,,,,,,,,,0,74,74,115,1,,,,,,,,,,,,,,,,,,,,,,,,
,,,,,,,,,,,,l,Incorrect,,,,,,t1.png,t2.png,1,0.90025,21,Male,2020-11-24_15h52.49.226,torte-2b,2020.1.3,Win32,60,12812,0.4323,,,,,,,,,,,,,,,,,,,,,,,,,,,,,,,,,,,,,0,75,75,33,1,,,,,,,,,,,,,,,,,,,,,,,,
,,,,,,,,,,,,a,Correct!,,,,,,t4.png,t5.png,1,0.90025,21,Male,2020-11-24_15h52.49.226,torte-2b,2020.1.3,Win32,60,12812,0.30851,,,,,,,,,,,,,,,,,,,,,,,,,,,,,,,,,,,,,0,76,76,47,1,,,,,,,,,,,,,,,,,,,,,,,,
,,,,,,,,,,,,a,Incorrect,,,,,,t5.png,t2.png,3,0.0000131,21,Male,2020-11-24_15h52.49.226,torte-2b,2020.1.3,Win32,60,12812,0.307635,,,,,,,,,,,,,,,,,,,,,,,,,,,,,,,,,,,,,0,77,77,98,1,,,,,,,,,,,,,,,,,,,,,,,,
,,,,,,,,,,,,a,Correct!,,,,,,t4.png,t4.png,0,0.98115,21,Male,2020-11-24_15h52.49.226,torte-2b,2020.1.3,Win32,60,12812,0.410665,,,,,,,,,,,,,,,,,,,,,,,,,,,,,,,,,,,,,0,78,78,79,1,,,,,,,,,,,,,,,,,,,,,,,,
,,,,,,,,,,,,a,Incorrect,,,,,,t5.png,t3.png,2,0.056466,21,Male,2020-11-24_15h52.49.226,torte-2b,2020.1.3,Win32,60,12812,0.52158,,,,,,,,,,,,,,,,,,,,,,,,,,,,,,,,,,,,,0,79,79,38,1,,,,,,,,,,,,,,,,,,,,,,,,
,,,,,,,,,,,,a,Incorrect,,,,,,t1.png,t3.png,2,0.056466,21,Male,2020-11-24_15h52.49.226,torte-2b,2020.1.3,Win32,60,12812,0.28162,,,,,,,,,,,,,,,,,,,,,,,,,,,,,,,,,,,,,0,80,80,99,1,,,,,,,,,,,,,,,,,,,,,,,,
,,,,,,,,,,,,a,Incorrect,,,,,,t3.png,t2.png,1,0.909,21,Male,2020-11-24_15h52.49.226,torte-2b,2020.1.3,Win32,60,12812,0.42593,,,,,,,,,,,,,,,,,,,,,,,,,,,,,,,,,,,,,0,81,81,23,1,,,,,,,,,,,,,,,,,,,,,,,,
,,,,,,,,,,,,l,Correct!,,,,,,t2.png,t4.png,2,0.0591,21,Male,2020-11-24_15h52.49.226,torte-2b,2020.1.3,Win32,60,12812,0.32964,,,,,,,,,,,,,,,,,,,,,,,,,,,,,,,,,,,,,0,82,82,15,1,,,,,,,,,,,,,,,,,,,,,,,,
,,,,,,,,,,,,l,Incorrect,,,,,,t4.png,t4.png,0,0.98115,21,Male,2020-11-24_15h52.49.226,torte-2b,2020.1.3,Win32,60,12812,0.231945,,,,,,,,,,,,,,,,,,,,,,,,,,,,,,,,,,,,,0,83,83,52,1,,,,,,,,,,,,,,,,,,,,,,,,
,,,,,,,,,,,,l,Incorrect,,,,,,t5.png,t4.png,1,0.90025,21,Male,2020-11-24_15h52.49.226,torte-2b,2020.1.3,Win32,60,12812,0.179635,,,,,,,,,,,,,,,,,,,,,,,,,,,,,,,,,,,,,0,84,84,26,1,,,,,,,,,,,,,,,,,,,,,,,,
,,,,,,,,,,,,a,Correct!,,,,,,t5.png,t5.png,0,0.97829,21,Male,2020-11-24_15h52.49.226,torte-2b,2020.1.3,Win32,60,12812,0.10672,,,,,,,,,,,,,,,,,,,,,,,,,,,,,,,,,,,,,0,85,85,70,1,,,,,,,,,,,,,,,,,,,,,,,,
,,,,,,,,,,,,l,Correct!,,,,,,t2.png,t5.png,3,0.0000131,21,Male,2020-11-24_15h52.49.226,torte-2b,2020.1.3,Win32,60,12812,0.19933,,,,,,,,,,,,,,,,,,,,,,,,,,,,,,,,,,,,,0,86,86,40,1,,,,,,,,,,,,,,,,,,,,,,,,
,,,,,,,,,,,,a,Correct!,,,,,,t5.png,t4.png,1,0.90025,21,Male,2020-11-24_15h52.49.226,torte-2b,2020.1.3,Win32,60,12812,0.38295,,,,,,,,,,,,,,,,,,,,,,,,,,,,,,,,,,,,,0,87,87,34,1,,,,,,,,,,,,,,,,,,,,,,,,
,,,,,,,,,,,,l,Correct!,,,,,,t3.png,t1.png,2,0.056466,21,Male,2020-11-24_15h52.49.226,torte-2b,2020.1.3,Win32,60,12812,0.660125,,,,,,,,,,,,,,,,,,,,,,,,,,,,,,,,,,,,,0,88,88,0,1,,,,,,,,,,,,,,,,,,,,,,,,
,,,,,,,,,,,,a,Correct!,,,,,,t2.png,t1.png,1,0.9,21,Male,2020-11-24_15h52.49.226,torte-2b,2020.1.3,Win32,60,12812,0.59328,,,,,,,,,,,,,,,,,,,,,,,,,,,,,,,,,,,,,0,89,89,118,1,,,,,,,,,,,,,,,,,,,,,,,,
,,,,,,,,,,,,a,Incorrect,,,,,,t1.png,t5.png,4,9.55E-11,21,Male,2020-11-24_15h52.49.226,torte-2b,2020.1.3,Win32,60,12812,0.531405,,,,,,,,,,,,,,,,,,,,,,,,,,,,,,,,,,,,,0,90,90,85,1,,,,,,,,,,,,,,,,,,,,,,,,
,,,,,,,,,,,,a,Incorrect,,,,,,t3.png,t5.png,2,0.056466,21,Male,2020-11-24_15h52.49.226,torte-2b,2020.1.3,Win32,60,12812,0.692615,,,,,,,,,,,,,,,,,,,,,,,,,,,,,,,,,,,,,0,91,91,14,1,,,,,,,,,,,,,,,,,,,,,,,,
,,,,,,,,,,,,l,Correct!,,,,,,t1.png,t4.png,3,0.0000131,21,Male,2020-11-24_15h52.49.226,torte-2b,2020.1.3,Win32,60,12812,0.44324,,,,,,,,,,,,,,,,,,,,,,,,,,,,,,,,,,,,,0,92,92,81,1,,,,,,,,,,,,,,,,,,,,,,,,
,,,,,,,,,,,,l,Incorrect,,,,,,t4.png,t3.png,1,0.90855,21,Male,2020-11-24_15h52.49.226,torte-2b,2020.1.3,Win32,60,12812,0.32187,,,,,,,,,,,,,,,,,,,,,,,,,,,,,,,,,,,,,0,93,93,45,1,,,,,,,,,,,,,,,,,,,,,,,,
,,,,,,,,,,,,a,Incorrect,,,,,,t4.png,t1.png,3,0.0000131,21,Male,2020-11-24_15h52.49.226,torte-2b,2020.1.3,Win32,60,12812,0.750085,,,,,,,,,,,,,,,,,,,,,,,,,,,,,,,,,,,,,0,94,94,42,1,,,,,,,,,,,,,,,,,,,,,,,,
,,,,,,,,,,,,l,Incorrect,,,,,,t2.png,t3.png,1,0.90855,21,Male,2020-11-24_15h52.49.226,torte-2b,2020.1.3,Win32,60,12812,0.380915,,,,,,,,,,,,,,,,,,,,,,,,,,,,,,,,,,,,,0,95,95,111,1,,,,,,,,,,,,,,,,,,,,,,,,
,,,,,,,,,,,,l,Incorrect,,,,,,t2.png,t1.png,1,0.90025,21,Male,2020-11-24_15h52.49.226,torte-2b,2020.1.3,Win32,60,12812,0.652105,,,,,,,,,,,,,,,,,,,,,,,,,,,,,,,,,,,,,0,96,96,19,1,,,,,,,,,,,,,,,,,,,,,,,,
,,,,,,,,,,,,l,Incorrect,,,,,,t3.png,t2.png,1,0.909,21,Male,2020-11-24_15h52.49.226,torte-2b,2020.1.3,Win32,60,12812,1.209,,,,,,,,,,,,,,,,,,,,,,,,,,,,,,,,,,,,,0,97,97,3,1,,,,,,,,,,,,,,,,,,,,,,,,
,,,,,,,,,,,,a,Incorrect,,,,,,t4.png,t2.png,2,0.059078,21,Male,2020-11-24_15h52.49.226,torte-2b,2020.1.3,Win32,60,12812,1.0037,,,,,,,,,,,,,,,,,,,,,,,,,,,,,,,,,,,,,0,98,98,110,1,,,,,,,,,,,,,,,,,,,,,,,,
,,,,,,,,,,,,l,Correct!,,,,,,t2.png,t1.png,1,0.90025,21,Male,2020-11-24_15h52.49.226,torte-2b,2020.1.3,Win32,60,12812,0.58033,,,,,,,,,,,,,,,,,,,,,,,,,,,,,,,,,,,,,0,99,99,62,1,,,,,,,,,,,,,,,,,,,,,,,,
,,,,,,,,,,,,a,Incorrect,,,,,,t4.png,t1.png,3,0.0000131,21,Male,2020-11-24_15h52.49.226,torte-2b,2020.1.3,Win32,60,12812,1.12467,,,,,,,,,,,,,,,,,,,,,,,,,,,,,,,,,,,,,0,100,100,13,1,,,,,,,,,,,,,,,,,,,,,,,,
,,,,,,,,,,,,a,Correct!,,,,,,t1.png,t2.png,1,0.9,21,Male,2020-11-24_15h52.49.226,torte-2b,2020.1.3,Win32,60,12812,1.215225,,,,,,,,,,,,,,,,,,,,,,,,,,,,,,,,,,,,,0,101,101,1,1,,,,,,,,,,,,,,,,,,,,,,,,
,,,,,,,,,,,,a,Correct!,,,,,,t5.png,t3.png,2,0.056466,21,Male,2020-11-24_15h52.49.226,torte-2b,2020.1.3,Win32,60,12812,1.76829,,,,,,,,,,,,,,,,,,,,,,,,,,,,,,,,,,,,,0,102,102,56,1,,,,,,,,,,,,,,,,,,,,,,,,
,,,,,,,,,,,,l,Correct!,,,,,,t1.png,t3.png,2,0.056466,21,Male,2020-11-24_15h52.49.226,torte-2b,2020.1.3,Win32,60,12812,0.77702,,,,,,,,,,,,,,,,,,,,,,,,,,,,,,,,,,,,,0,103,103,60,1,,,,,,,,,,,,,,,,,,,,,,,,
,,,,,,,,,,,,a,Correct!,,,,,,t2.png,t1.png,1,0.90025,21,Male,2020-11-24_15h52.49.226,torte-2b,2020.1.3,Win32,60,12812,0.35501,,,,,,,,,,,,,,,,,,,,,,,,,,,,,,,,,,,,,0,104,104,5,1,,,,,,,,,,,,,,,,,,,,,,,,
,,,,,,,,,,,,a,Correct!,,,,,,t1.png,t1.png,0,0.978,21,Male,2020-11-24_15h52.49.226,torte-2b,2020.1.3,Win32,60,12812,1.022395,,,,,,,,,,,,,,,,,,,,,,,,,,,,,,,,,,,,,0,105,105,54,1,,,,,,,,,,,,,,,,,,,,,,,,
,,,,,,,,,,,,a,Correct!,,,,,,t2.png,t2.png,0,0.98115,21,Male,2020-11-24_15h52.49.226,torte-2b,2020.1.3,Win32,60,12812,0.258135,,,,,,,,,,,,,,,,,,,,,,,,,,,,,,,,,,,,,0,106,106,7,1,,,,,,,,,,,,,,,,,,,,,,,,
,,,,,,,,,,,,a,Incorrect,,,,,,t2.png,t4.png,2,0.059078,21,Male,2020-11-24_15h52.49.226,torte-2b,2020.1.3,Win32,60,12812,0.4712,,,,,,,,,,,,,,,,,,,,,,,,,,,,,,,,,,,,,0,107,107,11,1,,,,,,,,,,,,,,,,,,,,,,,,
,,,,,,,,,,,,l,Correct!,,,,,,t3.png,t5.png,2,0.056466,21,Male,2020-11-24_15h52.49.226,torte-2b,2020.1.3,Win32,60,12812,0.38928,,,,,,,,,,,,,,,,,,,,,,,,,,,,,,,,,,,,,0,108,108,6,1,,,,,,,,,,,,,,,,,,,,,,,,
,,,,,,,,,,,,a,Correct!,,,,,,t5.png,t5.png,0,0.97829,21,Male,2020-11-24_15h52.49.226,torte-2b,2020.1.3,Win32,60,12812,0.077225,,,,,,,,,,,,,,,,,,,,,,,,,,,,,,,,,,,,,0,109,109,73,1,,,,,,,,,,,,,,,,,,,,,,,,
,,,,,,,,,,,,a,Correct!,,,,,,t2.png,t3.png,1,0.90855,21,Male,2020-11-24_15h52.49.226,torte-2b,2020.1.3,Win32,60,12812,0.44547,,,,,,,,,,,,,,,,,,,,,,,,,,,,,,,,,,,,,0,110,110,10,1,,,,,,,,,,,,,,,,,,,,,,,,
,,,,,,,,,,,,l,Incorrect,,,,,,t2.png,t2.png,0,0.981,21,Male,2020-11-24_15h52.49.226,torte-2b,2020.1.3,Win32,60,12812,1.16599,,,,,,,,,,,,,,,,,,,,,,,,,,,,,,,,,,,,,0,111,111,101,1,,,,,,,,,,,,,,,,,,,,,,,,
,,,,,,,,,,,,a,Correct!,,,,,,t5.png,t4.png,1,0.9,21,Male,2020-11-24_15h52.49.226,torte-2b,2020.1.3,Win32,60,12812,0.665205,,,,,,,,,,,,,,,,,,,,,,,,,,,,,,,,,,,,,0,112,112,76,1,,,,,,,,,,,,,,,,,,,,,,,,
,,,,,,,,,,,,l,Correct!,,,,,,t2.png,t2.png,0,0.98115,21,Male,2020-11-24_15h52.49.226,torte-2b,2020.1.3,Win32,60,12812,1.22867,,,,,,,,,,,,,,,,,,,,,,,,,,,,,,,,,,,,,0,113,113,2,1,,,,,,,,,,,,,,,,,,,,,,,,
,,,,,,,,,,,,l,Correct!,,,,,,t3.png,t2.png,1,0.90855,21,Male,2020-11-24_15h52.49.226,torte-2b,2020.1.3,Win32,60,12812,0.94001,,,,,,,,,,,,,,,,,,,,,,,,,,,,,,,,,,,,,0,114,114,53,1,,,,,,,,,,,,,,,,,,,,,,,,
,,,,,,,,,,,,a,Incorrect,,,,,,t4.png,t1.png,3,0.0000131,21,Male,2020-11-24_15h52.49.226,torte-2b,2020.1.3,Win32,60,12812,0.84696,,,,,,,,,,,,,,,,,,,,,,,,,,,,,,,,,,,,,0,115,115,61,1,,,,,,,,,,,,,,,,,,,,,,,,
,,,,,,,,,,,,l,Correct!,,,,,,t4.png,t1.png,3,0.0000131,21,Male,2020-11-24_15h52.49.226,torte-2b,2020.1.3,Win32,60,12812,1.0128,,,,,,,,,,,,,,,,,,,,,,,,,,,,,,,,,,,,,0,116,116,48,1,,,,,,,,,,,,,,,,,,,,,,,,
,,,,,,,,,,,,a,Correct!,,,,,,t3.png,t4.png,1,0.909,21,Male,2020-11-24_15h52.49.226,torte-2b,2020.1.3,Win32,60,12812,0.77775,,,,,,,,,,,,,,,,,,,,,,,,,,,,,,,,,,,,,0,117,117,89,1,,,,,,,,,,,,,,,,,,,,,,,,
,,,,,,,,,,,,a,Incorrect,,,,,,t4.png,t5.png,1,0.90025,21,Male,2020-11-24_15h52.49.226,torte-2b,2020.1.3,Win32,60,12812,0.561685,,,,,,,,,,,,,,,,,,,,,,,,,,,,,,,,,,,,,0,118,118,113,1,,,,,,,,,,,,,,,,,,,,,,,,
,,,,,,,,,,,,l,Correct!,,,,,,t5.png,t3.png,2,0.0565,21,Male,2020-11-24_15h52.49.226,torte-2b,2020.1.3,Win32,60,12812,0.59923,,,,,,,,,,,,,,,,,,,,,,,,,,,,,,,,,,,,,0,119,119,39,1,,,,,,,,,,,,,,,,,,,,,,,,
,,,,,,,,,,,,,,,,,,,,,,,21,Male,2020-11-24_15h52.49.226,torte-2b,2020.1.3,Win32,60,12812,,space,0.954165,,,,,,,,,,,,,,,,,,,,,,,,,,,,,,,,,,,,,,,,256,-183,1,0,0,s7,233,102,1,0,0,t1,282,-96,1,0,0,proceed,space,19.33257,space,7.15959,space,1.30576
