key_resp_8.keys,key_resp_8.rt,key_resp_9.keys,key_resp_9.rt,key_resp_10.keys,key_resp_10.rt,key_resp_11.keys,key_resp_11.rt,key_resp_2.keys,key_resp_2.rt,key_resp_3.keys,key_resp_3.rt,key_resp.keys,key_resp.rt,Feedback,train.thisRepN,train.thisTrialN,train.thisN,train.thisIndex,train.ran,torta_sx,torta_dx,difference,probability,age,gender,date,expName,psychopyVersion,OS,frameRate,participant,key_resp_15.keys,key_resp_15.rt,key_resp_6.keys,key_resp_6.rt,test1.thisRepN,test1.thisTrialN,test1.thisN,test1.thisIndex,test1.ran,key_resp_4.keys,key_resp_4.rt,key_resp_5.keys,back1.thisRepN,back1.thisTrialN,back1.thisN,back1.thisIndex,back1.ran,letter,key_resp_5.rt,back2.thisRepN,back2.thisTrialN,back2.thisN,back2.thisIndex,back2.ran,back3.thisRepN,back3.thisTrialN,back3.thisN,back3.thisIndex,back3.ran,back4.thisRepN,back4.thisTrialN,back4.thisN,back4.thisIndex,back4.ran,key_resp_7.keys,key_resp_7.rt,test2.thisRepN,test2.thisTrialN,test2.thisN,test2.thisIndex,test2.ran,mouse.x,mouse.y,mouse.leftButton,mouse.midButton,mouse.rightButton,mouse.clicked_name,mouse_2.x,mouse_2.y,mouse_2.leftButton,mouse_2.midButton,mouse_2.rightButton,mouse_2.clicked_name,mouse_3.x,mouse_3.y,mouse_3.leftButton,mouse_3.midButton,mouse_3.rightButton,mouse_3.clicked_name,key_resp_12.keys,key_resp_12.rt,key_resp_13.keys,key_resp_13.rt,key_resp_14.keys,key_resp_14.rt
space,10.317155,space,0.952735,space,2.1852,space,3.066875,space,18.32139,space,32.34943,a,1.012525,Correct!,0,0,0,59,1,t5.png,t4.png,1,0.9,21,female,2020-09-14_10h52.29.353,torte-2b,2020.1.3,Win32,60,12842,,,,,,,,,,,,,,,,,,,,,,,,,,,,,,,,,,,,,,,,,,,,,,,,,,,,,,,,,,,,,,,,,
,,,,,,,,,,,,l,0.811345,Correct!,0,1,1,31,1,t1.png,t5.png,4,9.55E-11,21,female,2020-09-14_10h52.29.353,torte-2b,2020.1.3,Win32,60,12842,,,,,,,,,,,,,,,,,,,,,,,,,,,,,,,,,,,,,,,,,,,,,,,,,,,,,,,,,,,,,,,,,
,,,,,,,,,,,,a,0.877225,Correct!,0,2,2,58,1,t5.png,t4.png,1,0.90025,21,female,2020-09-14_10h52.29.353,torte-2b,2020.1.3,Win32,60,12842,,,,,,,,,,,,,,,,,,,,,,,,,,,,,,,,,,,,,,,,,,,,,,,,,,,,,,,,,,,,,,,,,
,,,,,,,,,,,,l,0.750695,Incorrect,0,3,3,32,1,t4.png,t5.png,1,0.90025,21,female,2020-09-14_10h52.29.353,torte-2b,2020.1.3,Win32,60,12842,,,,,,,,,,,,,,,,,,,,,,,,,,,,,,,,,,,,,,,,,,,,,,,,,,,,,,,,,,,,,,,,,
,,,,,,,,,,,,a,0.562735,Incorrect,0,4,4,82,1,t5.png,t1.png,4,9.55E-11,21,female,2020-09-14_10h52.29.353,torte-2b,2020.1.3,Win32,60,12842,,,,,,,,,,,,,,,,,,,,,,,,,,,,,,,,,,,,,,,,,,,,,,,,,,,,,,,,,,,,,,,,,
,,,,,,,,,,,,a,1.36511,Correct!,0,5,5,106,1,t2.png,t3.png,1,0.90855,21,female,2020-09-14_10h52.29.353,torte-2b,2020.1.3,Win32,60,12842,,,,,,,,,,,,,,,,,,,,,,,,,,,,,,,,,,,,,,,,,,,,,,,,,,,,,,,,,,,,,,,,,
,,,,,,,,,,,,a,0.710055,Incorrect,0,6,6,5,1,t2.png,t4.png,2,0.059078,21,female,2020-09-14_10h52.29.353,torte-2b,2020.1.3,Win32,60,12842,,,,,,,,,,,,,,,,,,,,,,,,,,,,,,,,,,,,,,,,,,,,,,,,,,,,,,,,,,,,,,,,,
,,,,,,,,,,,,a,0.96045,Correct!,0,7,7,44,1,t2.png,t3.png,1,0.909,21,female,2020-09-14_10h52.29.353,torte-2b,2020.1.3,Win32,60,12842,,,,,,,,,,,,,,,,,,,,,,,,,,,,,,,,,,,,,,,,,,,,,,,,,,,,,,,,,,,,,,,,,
,,,,,,,,,,,,l,0.972115,Correct!,0,8,8,1,1,t2.png,t4.png,2,0.059078,21,female,2020-09-14_10h52.29.353,torte-2b,2020.1.3,Win32,60,12842,,,,,,,,,,,,,,,,,,,,,,,,,,,,,,,,,,,,,,,,,,,,,,,,,,,,,,,,,,,,,,,,,
,,,,,,,,,,,,l,0.97138,Correct!,0,9,9,6,1,t1.png,t4.png,3,0.0000131,21,female,2020-09-14_10h52.29.353,torte-2b,2020.1.3,Win32,60,12842,,,,,,,,,,,,,,,,,,,,,,,,,,,,,,,,,,,,,,,,,,,,,,,,,,,,,,,,,,,,,,,,,
,,,,,,,,,,,,l,0.884305,Correct!,0,10,10,37,1,t1.png,t4.png,3,0.0000131,21,female,2020-09-14_10h52.29.353,torte-2b,2020.1.3,Win32,60,12842,,,,,,,,,,,,,,,,,,,,,,,,,,,,,,,,,,,,,,,,,,,,,,,,,,,,,,,,,,,,,,,,,
,,,,,,,,,,,,a,0.793505,Incorrect,0,11,11,43,1,t4.png,t2.png,2,0.059078,21,female,2020-09-14_10h52.29.353,torte-2b,2020.1.3,Win32,60,12842,,,,,,,,,,,,,,,,,,,,,,,,,,,,,,,,,,,,,,,,,,,,,,,,,,,,,,,,,,,,,,,,,
,,,,,,,,,,,,a,0.93914,Incorrect,0,12,12,108,1,t5.png,t1.png,4,9.55E-11,21,female,2020-09-14_10h52.29.353,torte-2b,2020.1.3,Win32,60,12842,,,,,,,,,,,,,,,,,,,,,,,,,,,,,,,,,,,,,,,,,,,,,,,,,,,,,,,,,,,,,,,,,
,,,,,,,,,,,,l,1.269175,Incorrect,0,13,13,42,1,t5.png,t4.png,1,0.90025,21,female,2020-09-14_10h52.29.353,torte-2b,2020.1.3,Win32,60,12842,,,,,,,,,,,,,,,,,,,,,,,,,,,,,,,,,,,,,,,,,,,,,,,,,,,,,,,,,,,,,,,,,
,,,,,,,,,,,,l,0.816675,Incorrect,0,14,14,20,1,t2.png,t3.png,1,0.90855,21,female,2020-09-14_10h52.29.353,torte-2b,2020.1.3,Win32,60,12842,,,,,,,,,,,,,,,,,,,,,,,,,,,,,,,,,,,,,,,,,,,,,,,,,,,,,,,,,,,,,,,,,
,,,,,,,,,,,,a,0.98274,Correct!,0,15,15,79,1,t3.png,t2.png,1,0.909,21,female,2020-09-14_10h52.29.353,torte-2b,2020.1.3,Win32,60,12842,,,,,,,,,,,,,,,,,,,,,,,,,,,,,,,,,,,,,,,,,,,,,,,,,,,,,,,,,,,,,,,,,
,,,,,,,,,,,,a,0.659555,Incorrect,0,16,16,53,1,t3.png,t1.png,2,0.056466,21,female,2020-09-14_10h52.29.353,torte-2b,2020.1.3,Win32,60,12842,,,,,,,,,,,,,,,,,,,,,,,,,,,,,,,,,,,,,,,,,,,,,,,,,,,,,,,,,,,,,,,,,
,,,,,,,,,,,,l,1.177595,Incorrect,0,17,17,114,1,t2.png,t3.png,1,0.90855,21,female,2020-09-14_10h52.29.353,torte-2b,2020.1.3,Win32,60,12842,,,,,,,,,,,,,,,,,,,,,,,,,,,,,,,,,,,,,,,,,,,,,,,,,,,,,,,,,,,,,,,,,
,,,,,,,,,,,,a,0.68631,Incorrect,0,18,18,50,1,t5.png,t1.png,4,9.55E-11,21,female,2020-09-14_10h52.29.353,torte-2b,2020.1.3,Win32,60,12842,,,,,,,,,,,,,,,,,,,,,,,,,,,,,,,,,,,,,,,,,,,,,,,,,,,,,,,,,,,,,,,,,
,,,,,,,,,,,,a,1.428975,Incorrect,0,19,19,67,1,t1.png,t5.png,4,9.55E-11,21,female,2020-09-14_10h52.29.353,torte-2b,2020.1.3,Win32,60,12842,,,,,,,,,,,,,,,,,,,,,,,,,,,,,,,,,,,,,,,,,,,,,,,,,,,,,,,,,,,,,,,,,
,,,,,,,,,,,,l,0.767895,Correct!,0,20,20,104,1,t2.png,t3.png,1,0.90855,21,female,2020-09-14_10h52.29.353,torte-2b,2020.1.3,Win32,60,12842,,,,,,,,,,,,,,,,,,,,,,,,,,,,,,,,,,,,,,,,,,,,,,,,,,,,,,,,,,,,,,,,,
,,,,,,,,,,,,a,1.35027,Incorrect,0,21,21,103,1,t3.png,t1.png,2,0.056466,21,female,2020-09-14_10h52.29.353,torte-2b,2020.1.3,Win32,60,12842,,,,,,,,,,,,,,,,,,,,,,,,,,,,,,,,,,,,,,,,,,,,,,,,,,,,,,,,,,,,,,,,,
,,,,,,,,,,,,l,1.70318,Correct!,0,22,22,61,1,t1.png,t4.png,3,0.0000131,21,female,2020-09-14_10h52.29.353,torte-2b,2020.1.3,Win32,60,12842,,,,,,,,,,,,,,,,,,,,,,,,,,,,,,,,,,,,,,,,,,,,,,,,,,,,,,,,,,,,,,,,,
,,,,,,,,,,,,a,1.101935,Correct!,0,23,23,65,1,t4.png,t5.png,1,0.90025,21,female,2020-09-14_10h52.29.353,torte-2b,2020.1.3,Win32,60,12842,,,,,,,,,,,,,,,,,,,,,,,,,,,,,,,,,,,,,,,,,,,,,,,,,,,,,,,,,,,,,,,,,
,,,,,,,,,,,,a,2.11647,Correct!,0,24,24,97,1,t5.png,t5.png,0,0.97829,21,female,2020-09-14_10h52.29.353,torte-2b,2020.1.3,Win32,60,12842,,,,,,,,,,,,,,,,,,,,,,,,,,,,,,,,,,,,,,,,,,,,,,,,,,,,,,,,,,,,,,,,,
,,,,,,,,,,,,l,2.224515,Correct!,0,25,25,55,1,t2.png,t4.png,2,0.059078,21,female,2020-09-14_10h52.29.353,torte-2b,2020.1.3,Win32,60,12842,,,,,,,,,,,,,,,,,,,,,,,,,,,,,,,,,,,,,,,,,,,,,,,,,,,,,,,,,,,,,,,,,
,,,,,,,,,,,,l,1.28264,Incorrect,0,26,26,2,1,t3.png,t2.png,1,0.90855,21,female,2020-09-14_10h52.29.353,torte-2b,2020.1.3,Win32,60,12842,,,,,,,,,,,,,,,,,,,,,,,,,,,,,,,,,,,,,,,,,,,,,,,,,,,,,,,,,,,,,,,,,
,,,,,,,,,,,,a,0.516135,Incorrect,0,27,27,24,1,t4.png,t2.png,2,0.059078,21,female,2020-09-14_10h52.29.353,torte-2b,2020.1.3,Win32,60,12842,,,,,,,,,,,,,,,,,,,,,,,,,,,,,,,,,,,,,,,,,,,,,,,,,,,,,,,,,,,,,,,,,
,,,,,,,,,,,,l,1.34994,Incorrect,0,28,28,112,1,t1.png,t1.png,0,0.97829,21,female,2020-09-14_10h52.29.353,torte-2b,2020.1.3,Win32,60,12842,,,,,,,,,,,,,,,,,,,,,,,,,,,,,,,,,,,,,,,,,,,,,,,,,,,,,,,,,,,,,,,,,
,,,,,,,,,,,,a,0.716645,Correct!,0,29,29,46,1,t4.png,t2.png,2,0.059078,21,female,2020-09-14_10h52.29.353,torte-2b,2020.1.3,Win32,60,12842,,,,,,,,,,,,,,,,,,,,,,,,,,,,,,,,,,,,,,,,,,,,,,,,,,,,,,,,,,,,,,,,,
,,,,,,,,,,,,a,1.77042,Correct!,0,30,30,92,1,t2.png,t3.png,1,0.909,21,female,2020-09-14_10h52.29.353,torte-2b,2020.1.3,Win32,60,12842,,,,,,,,,,,,,,,,,,,,,,,,,,,,,,,,,,,,,,,,,,,,,,,,,,,,,,,,,,,,,,,,,
,,,,,,,,,,,,l,1.00141,Incorrect,0,31,31,100,1,t4.png,t5.png,1,0.90025,21,female,2020-09-14_10h52.29.353,torte-2b,2020.1.3,Win32,60,12842,,,,,,,,,,,,,,,,,,,,,,,,,,,,,,,,,,,,,,,,,,,,,,,,,,,,,,,,,,,,,,,,,
,,,,,,,,,,,,a,0.656905,Correct!,0,32,32,83,1,t3.png,t1.png,2,0.056466,21,female,2020-09-14_10h52.29.353,torte-2b,2020.1.3,Win32,60,12842,,,,,,,,,,,,,,,,,,,,,,,,,,,,,,,,,,,,,,,,,,,,,,,,,,,,,,,,,,,,,,,,,
,,,,,,,,,,,,l,1.777245,Incorrect,0,33,33,49,1,t4.png,t5.png,1,0.9,21,female,2020-09-14_10h52.29.353,torte-2b,2020.1.3,Win32,60,12842,,,,,,,,,,,,,,,,,,,,,,,,,,,,,,,,,,,,,,,,,,,,,,,,,,,,,,,,,,,,,,,,,
,,,,,,,,,,,,a,1.297245,Correct!,0,34,34,64,1,t1.png,t1.png,0,0.978,21,female,2020-09-14_10h52.29.353,torte-2b,2020.1.3,Win32,60,12842,,,,,,,,,,,,,,,,,,,,,,,,,,,,,,,,,,,,,,,,,,,,,,,,,,,,,,,,,,,,,,,,,
,,,,,,,,,,,,a,0.70357,Incorrect,0,35,35,36,1,t3.png,t1.png,2,0.0565,21,female,2020-09-14_10h52.29.353,torte-2b,2020.1.3,Win32,60,12842,,,,,,,,,,,,,,,,,,,,,,,,,,,,,,,,,,,,,,,,,,,,,,,,,,,,,,,,,,,,,,,,,
,,,,,,,,,,,,a,0.86951,Correct!,0,36,36,22,1,t2.png,t3.png,1,0.90855,21,female,2020-09-14_10h52.29.353,torte-2b,2020.1.3,Win32,60,12842,,,,,,,,,,,,,,,,,,,,,,,,,,,,,,,,,,,,,,,,,,,,,,,,,,,,,,,,,,,,,,,,,
,,,,,,,,,,,,l,0.32734,Incorrect,0,37,37,62,1,t5.png,t5.png,0,0.978,21,female,2020-09-14_10h52.29.353,torte-2b,2020.1.3,Win32,60,12842,,,,,,,,,,,,,,,,,,,,,,,,,,,,,,,,,,,,,,,,,,,,,,,,,,,,,,,,,,,,,,,,,
,,,,,,,,,,,,l,0.80111,Correct!,0,38,38,115,1,t2.png,t4.png,2,0.059078,21,female,2020-09-14_10h52.29.353,torte-2b,2020.1.3,Win32,60,12842,,,,,,,,,,,,,,,,,,,,,,,,,,,,,,,,,,,,,,,,,,,,,,,,,,,,,,,,,,,,,,,,,
,,,,,,,,,,,,l,1.52053,Correct!,0,39,39,35,1,t1.png,t4.png,3,0.0000131,21,female,2020-09-14_10h52.29.353,torte-2b,2020.1.3,Win32,60,12842,,,,,,,,,,,,,,,,,,,,,,,,,,,,,,,,,,,,,,,,,,,,,,,,,,,,,,,,,,,,,,,,,
,,,,,,,,,,,,a,1.036535,Incorrect,0,40,40,88,1,t3.png,t1.png,2,0.056466,21,female,2020-09-14_10h52.29.353,torte-2b,2020.1.3,Win32,60,12842,,,,,,,,,,,,,,,,,,,,,,,,,,,,,,,,,,,,,,,,,,,,,,,,,,,,,,,,,,,,,,,,,
,,,,,,,,,,,,l,0.90103,Correct!,0,41,41,93,1,t2.png,t4.png,2,0.059078,21,female,2020-09-14_10h52.29.353,torte-2b,2020.1.3,Win32,60,12842,,,,,,,,,,,,,,,,,,,,,,,,,,,,,,,,,,,,,,,,,,,,,,,,,,,,,,,,,,,,,,,,,
,,,,,,,,,,,,a,0.284225,Correct!,0,42,42,116,1,t5.png,t4.png,1,0.90025,21,female,2020-09-14_10h52.29.353,torte-2b,2020.1.3,Win32,60,12842,,,,,,,,,,,,,,,,,,,,,,,,,,,,,,,,,,,,,,,,,,,,,,,,,,,,,,,,,,,,,,,,,
,,,,,,,,,,,,a,0.257535,Correct!,0,43,43,109,1,t5.png,t5.png,0,0.97829,21,female,2020-09-14_10h52.29.353,torte-2b,2020.1.3,Win32,60,12842,,,,,,,,,,,,,,,,,,,,,,,,,,,,,,,,,,,,,,,,,,,,,,,,,,,,,,,,,,,,,,,,,
,,,,,,,,,,,,a,0.31795,Correct!,0,44,44,13,1,t5.png,t5.png,0,0.97829,21,female,2020-09-14_10h52.29.353,torte-2b,2020.1.3,Win32,60,12842,,,,,,,,,,,,,,,,,,,,,,,,,,,,,,,,,,,,,,,,,,,,,,,,,,,,,,,,,,,,,,,,,
,,,,,,,,,,,,l,0.42206,Correct!,0,45,45,51,1,t3.png,t1.png,2,0.056466,21,female,2020-09-14_10h52.29.353,torte-2b,2020.1.3,Win32,60,12842,,,,,,,,,,,,,,,,,,,,,,,,,,,,,,,,,,,,,,,,,,,,,,,,,,,,,,,,,,,,,,,,,
,,,,,,,,,,,,l,0.51685,Incorrect,0,46,46,81,1,t1.png,t1.png,0,0.97829,21,female,2020-09-14_10h52.29.353,torte-2b,2020.1.3,Win32,60,12842,,,,,,,,,,,,,,,,,,,,,,,,,,,,,,,,,,,,,,,,,,,,,,,,,,,,,,,,,,,,,,,,,
,,,,,,,,,,,,a,0.27504,Incorrect,0,47,47,38,1,t3.png,t1.png,2,0.056466,21,female,2020-09-14_10h52.29.353,torte-2b,2020.1.3,Win32,60,12842,,,,,,,,,,,,,,,,,,,,,,,,,,,,,,,,,,,,,,,,,,,,,,,,,,,,,,,,,,,,,,,,,
,,,,,,,,,,,,a,0.599785,Correct!,0,48,48,113,1,t5.png,t4.png,1,0.9,21,female,2020-09-14_10h52.29.353,torte-2b,2020.1.3,Win32,60,12842,,,,,,,,,,,,,,,,,,,,,,,,,,,,,,,,,,,,,,,,,,,,,,,,,,,,,,,,,,,,,,,,,
,,,,,,,,,,,,a,0.55645,Incorrect,0,49,49,111,1,t5.png,t1.png,4,9.55E-11,21,female,2020-09-14_10h52.29.353,torte-2b,2020.1.3,Win32,60,12842,,,,,,,,,,,,,,,,,,,,,,,,,,,,,,,,,,,,,,,,,,,,,,,,,,,,,,,,,,,,,,,,,
,,,,,,,,,,,,l,0.417,Incorrect,0,50,50,84,1,t1.png,t1.png,0,0.97829,21,female,2020-09-14_10h52.29.353,torte-2b,2020.1.3,Win32,60,12842,,,,,,,,,,,,,,,,,,,,,,,,,,,,,,,,,,,,,,,,,,,,,,,,,,,,,,,,,,,,,,,,,
,,,,,,,,,,,,a,0.271395,Correct!,0,51,51,21,1,t5.png,t4.png,1,0.90025,21,female,2020-09-14_10h52.29.353,torte-2b,2020.1.3,Win32,60,12842,,,,,,,,,,,,,,,,,,,,,,,,,,,,,,,,,,,,,,,,,,,,,,,,,,,,,,,,,,,,,,,,,
,,,,,,,,,,,,a,0.27001,Incorrect,0,52,52,11,1,t1.png,t4.png,3,0.0000131,21,female,2020-09-14_10h52.29.353,torte-2b,2020.1.3,Win32,60,12842,,,,,,,,,,,,,,,,,,,,,,,,,,,,,,,,,,,,,,,,,,,,,,,,,,,,,,,,,,,,,,,,,
,,,,,,,,,,,,a,0.319075,Correct!,0,53,53,39,1,t3.png,t2.png,1,0.90855,21,female,2020-09-14_10h52.29.353,torte-2b,2020.1.3,Win32,60,12842,,,,,,,,,,,,,,,,,,,,,,,,,,,,,,,,,,,,,,,,,,,,,,,,,,,,,,,,,,,,,,,,,
,,,,,,,,,,,,a,0.334425,Correct!,0,54,54,29,1,t5.png,t5.png,0,0.97829,21,female,2020-09-14_10h52.29.353,torte-2b,2020.1.3,Win32,60,12842,,,,,,,,,,,,,,,,,,,,,,,,,,,,,,,,,,,,,,,,,,,,,,,,,,,,,,,,,,,,,,,,,
,,,,,,,,,,,,a,0.339685,Incorrect,0,55,55,69,1,t4.png,t2.png,2,0.059078,21,female,2020-09-14_10h52.29.353,torte-2b,2020.1.3,Win32,60,12842,,,,,,,,,,,,,,,,,,,,,,,,,,,,,,,,,,,,,,,,,,,,,,,,,,,,,,,,,,,,,,,,,
,,,,,,,,,,,,l,0.327225,Correct!,0,56,56,17,1,t1.png,t4.png,3,0.0000131,21,female,2020-09-14_10h52.29.353,torte-2b,2020.1.3,Win32,60,12842,,,,,,,,,,,,,,,,,,,,,,,,,,,,,,,,,,,,,,,,,,,,,,,,,,,,,,,,,,,,,,,,,
,,,,,,,,,,,,l,0.46678,Correct!,0,57,57,4,1,t1.png,t5.png,4,9.55E-11,21,female,2020-09-14_10h52.29.353,torte-2b,2020.1.3,Win32,60,12842,,,,,,,,,,,,,,,,,,,,,,,,,,,,,,,,,,,,,,,,,,,,,,,,,,,,,,,,,,,,,,,,,
,,,,,,,,,,,,l,0.507035,Incorrect,0,58,58,28,1,t2.png,t3.png,1,0.909,21,female,2020-09-14_10h52.29.353,torte-2b,2020.1.3,Win32,60,12842,,,,,,,,,,,,,,,,,,,,,,,,,,,,,,,,,,,,,,,,,,,,,,,,,,,,,,,,,,,,,,,,,
,,,,,,,,,,,,a,0.443035,Incorrect,0,59,59,12,1,t5.png,t1.png,4,9.55E-11,21,female,2020-09-14_10h52.29.353,torte-2b,2020.1.3,Win32,60,12842,,,,,,,,,,,,,,,,,,,,,,,,,,,,,,,,,,,,,,,,,,,,,,,,,,,,,,,,,,,,,,,,,
,,,,,,,,,,,,l,0.41114,Incorrect,0,60,60,41,1,t3.png,t2.png,1,0.90855,21,female,2020-09-14_10h52.29.353,torte-2b,2020.1.3,Win32,60,12842,,,,,,,,,,,,,,,,,,,,,,,,,,,,,,,,,,,,,,,,,,,,,,,,,,,,,,,,,,,,,,,,,
,,,,,,,,,,,,l,1.75041,Correct!,0,61,61,99,1,t1.png,t5.png,4,9.55E-11,21,female,2020-09-14_10h52.29.353,torte-2b,2020.1.3,Win32,60,12842,,,,,,,,,,,,,,,,,,,,,,,,,,,,,,,,,,,,,,,,,,,,,,,,,,,,,,,,,,,,,,,,,
,,,,,,,,,,,,l,1.320875,Incorrect,0,62,62,71,1,t5.png,t5.png,0,0.97829,21,female,2020-09-14_10h52.29.353,torte-2b,2020.1.3,Win32,60,12842,,,,,,,,,,,,,,,,,,,,,,,,,,,,,,,,,,,,,,,,,,,,,,,,,,,,,,,,,,,,,,,,,
,,,,,,,,,,,,a,0.300135,Correct!,0,63,63,25,1,t5.png,t5.png,0,0.97829,21,female,2020-09-14_10h52.29.353,torte-2b,2020.1.3,Win32,60,12842,,,,,,,,,,,,,,,,,,,,,,,,,,,,,,,,,,,,,,,,,,,,,,,,,,,,,,,,,,,,,,,,,
,,,,,,,,,,,,a,0.47365,Incorrect,0,64,64,73,1,t4.png,t2.png,2,0.059078,21,female,2020-09-14_10h52.29.353,torte-2b,2020.1.3,Win32,60,12842,,,,,,,,,,,,,,,,,,,,,,,,,,,,,,,,,,,,,,,,,,,,,,,,,,,,,,,,,,,,,,,,,
,,,,,,,,,,,,l,0.5283,Incorrect,0,65,65,110,1,t4.png,t5.png,1,0.90025,21,female,2020-09-14_10h52.29.353,torte-2b,2020.1.3,Win32,60,12842,,,,,,,,,,,,,,,,,,,,,,,,,,,,,,,,,,,,,,,,,,,,,,,,,,,,,,,,,,,,,,,,,
,,,,,,,,,,,,a,0.416615,Incorrect,0,66,66,33,1,t5.png,t1.png,4,9.55E-11,21,female,2020-09-14_10h52.29.353,torte-2b,2020.1.3,Win32,60,12842,,,,,,,,,,,,,,,,,,,,,,,,,,,,,,,,,,,,,,,,,,,,,,,,,,,,,,,,,,,,,,,,,
,,,,,,,,,,,,a,0.80471,Correct!,0,67,67,85,1,t3.png,t2.png,1,0.90855,21,female,2020-09-14_10h52.29.353,torte-2b,2020.1.3,Win32,60,12842,,,,,,,,,,,,,,,,,,,,,,,,,,,,,,,,,,,,,,,,,,,,,,,,,,,,,,,,,,,,,,,,,
,,,,,,,,,,,,a,0.40843,Correct!,0,68,68,45,1,t3.png,t2.png,1,0.90855,21,female,2020-09-14_10h52.29.353,torte-2b,2020.1.3,Win32,60,12842,,,,,,,,,,,,,,,,,,,,,,,,,,,,,,,,,,,,,,,,,,,,,,,,,,,,,,,,,,,,,,,,,
,,,,,,,,,,,,a,0.302025,Correct!,0,69,69,118,1,t5.png,t5.png,0,0.978,21,female,2020-09-14_10h52.29.353,torte-2b,2020.1.3,Win32,60,12842,,,,,,,,,,,,,,,,,,,,,,,,,,,,,,,,,,,,,,,,,,,,,,,,,,,,,,,,,,,,,,,,,
,,,,,,,,,,,,a,0.53577,Correct!,0,70,70,74,1,t5.png,t4.png,1,0.9,21,female,2020-09-14_10h52.29.353,torte-2b,2020.1.3,Win32,60,12842,,,,,,,,,,,,,,,,,,,,,,,,,,,,,,,,,,,,,,,,,,,,,,,,,,,,,,,,,,,,,,,,,
,,,,,,,,,,,,l,0.81092,Incorrect,0,71,71,66,1,t4.png,t5.png,1,0.9,21,female,2020-09-14_10h52.29.353,torte-2b,2020.1.3,Win32,60,12842,,,,,,,,,,,,,,,,,,,,,,,,,,,,,,,,,,,,,,,,,,,,,,,,,,,,,,,,,,,,,,,,,
,,,,,,,,,,,,a,0.300345,Incorrect,0,72,72,60,1,t2.png,t4.png,2,0.059078,21,female,2020-09-14_10h52.29.353,torte-2b,2020.1.3,Win32,60,12842,,,,,,,,,,,,,,,,,,,,,,,,,,,,,,,,,,,,,,,,,,,,,,,,,,,,,,,,,,,,,,,,,
,,,,,,,,,,,,a,0.76655,Incorrect,0,73,73,26,1,t4.png,t2.png,2,0.0591,21,female,2020-09-14_10h52.29.353,torte-2b,2020.1.3,Win32,60,12842,,,,,,,,,,,,,,,,,,,,,,,,,,,,,,,,,,,,,,,,,,,,,,,,,,,,,,,,,,,,,,,,,
,,,,,,,,,,,,l,0.566355,Correct!,0,74,74,119,1,t1.png,t5.png,4,9.55E-11,21,female,2020-09-14_10h52.29.353,torte-2b,2020.1.3,Win32,60,12842,,,,,,,,,,,,,,,,,,,,,,,,,,,,,,,,,,,,,,,,,,,,,,,,,,,,,,,,,,,,,,,,,
,,,,,,,,,,,,l,0.53328,Correct!,0,75,75,9,1,t4.png,t5.png,1,0.9,21,female,2020-09-14_10h52.29.353,torte-2b,2020.1.3,Win32,60,12842,,,,,,,,,,,,,,,,,,,,,,,,,,,,,,,,,,,,,,,,,,,,,,,,,,,,,,,,,,,,,,,,,
,,,,,,,,,,,,l,0.96913,Incorrect,0,76,76,96,1,t1.png,t1.png,0,0.97829,21,female,2020-09-14_10h52.29.353,torte-2b,2020.1.3,Win32,60,12842,,,,,,,,,,,,,,,,,,,,,,,,,,,,,,,,,,,,,,,,,,,,,,,,,,,,,,,,,,,,,,,,,
,,,,,,,,,,,,l,0.72995,Incorrect,0,77,77,101,1,t4.png,t5.png,1,0.90025,21,female,2020-09-14_10h52.29.353,torte-2b,2020.1.3,Win32,60,12842,,,,,,,,,,,,,,,,,,,,,,,,,,,,,,,,,,,,,,,,,,,,,,,,,,,,,,,,,,,,,,,,,
,,,,,,,,,,,,l,0.55653,Incorrect,0,78,78,7,1,t4.png,t5.png,1,0.90025,21,female,2020-09-14_10h52.29.353,torte-2b,2020.1.3,Win32,60,12842,,,,,,,,,,,,,,,,,,,,,,,,,,,,,,,,,,,,,,,,,,,,,,,,,,,,,,,,,,,,,,,,,
,,,,,,,,,,,,a,0.58318,Incorrect,0,79,79,19,1,t4.png,t2.png,2,0.059078,21,female,2020-09-14_10h52.29.353,torte-2b,2020.1.3,Win32,60,12842,,,,,,,,,,,,,,,,,,,,,,,,,,,,,,,,,,,,,,,,,,,,,,,,,,,,,,,,,,,,,,,,,
,,,,,,,,,,,,l,0.578525,Correct!,0,80,80,52,1,t2.png,t4.png,2,0.059078,21,female,2020-09-14_10h52.29.353,torte-2b,2020.1.3,Win32,60,12842,,,,,,,,,,,,,,,,,,,,,,,,,,,,,,,,,,,,,,,,,,,,,,,,,,,,,,,,,,,,,,,,,
,,,,,,,,,,,,l,0.98316,Incorrect,0,81,81,75,1,t1.png,t1.png,0,0.97829,21,female,2020-09-14_10h52.29.353,torte-2b,2020.1.3,Win32,60,12842,,,,,,,,,,,,,,,,,,,,,,,,,,,,,,,,,,,,,,,,,,,,,,,,,,,,,,,,,,,,,,,,,
,,,,,,,,,,,,a,0.577335,Correct!,0,82,82,18,1,t4.png,t5.png,1,0.90025,21,female,2020-09-14_10h52.29.353,torte-2b,2020.1.3,Win32,60,12842,,,,,,,,,,,,,,,,,,,,,,,,,,,,,,,,,,,,,,,,,,,,,,,,,,,,,,,,,,,,,,,,,
,,,,,,,,,,,,a,0.605485,Correct!,0,83,83,48,1,t5.png,t5.png,0,0.97829,21,female,2020-09-14_10h52.29.353,torte-2b,2020.1.3,Win32,60,12842,,,,,,,,,,,,,,,,,,,,,,,,,,,,,,,,,,,,,,,,,,,,,,,,,,,,,,,,,,,,,,,,,
,,,,,,,,,,,,,,Too slow :(,0,84,84,107,1,t1.png,t1.png,0,0.978,21,female,2020-09-14_10h52.29.353,torte-2b,2020.1.3,Win32,60,12842,,,,,,,,,,,,,,,,,,,,,,,,,,,,,,,,,,,,,,,,,,,,,,,,,,,,,,,,,,,,,,,,,
,,,,,,,,,,,,l,0.321295,Correct!,0,85,85,68,1,t1.png,t4.png,3,0.0000131,21,female,2020-09-14_10h52.29.353,torte-2b,2020.1.3,Win32,60,12842,,,,,,,,,,,,,,,,,,,,,,,,,,,,,,,,,,,,,,,,,,,,,,,,,,,,,,,,,,,,,,,,,
,,,,,,,,,,,,l,0.34303,Incorrect,0,86,86,95,1,t1.png,t1.png,0,0.978,21,female,2020-09-14_10h52.29.353,torte-2b,2020.1.3,Win32,60,12842,,,,,,,,,,,,,,,,,,,,,,,,,,,,,,,,,,,,,,,,,,,,,,,,,,,,,,,,,,,,,,,,,
,,,,,,,,,,,,a,0.5586,Correct!,0,87,87,8,1,t3.png,t2.png,1,0.90855,21,female,2020-09-14_10h52.29.353,torte-2b,2020.1.3,Win32,60,12842,,,,,,,,,,,,,,,,,,,,,,,,,,,,,,,,,,,,,,,,,,,,,,,,,,,,,,,,,,,,,,,,,
,,,,,,,,,,,,l,0.41732,Correct!,0,88,88,57,1,t2.png,t4.png,2,0.059078,21,female,2020-09-14_10h52.29.353,torte-2b,2020.1.3,Win32,60,12842,,,,,,,,,,,,,,,,,,,,,,,,,,,,,,,,,,,,,,,,,,,,,,,,,,,,,,,,,,,,,,,,,
,,,,,,,,,,,,a,0.525715,Correct!,0,89,89,16,1,t5.png,t4.png,1,0.9,21,female,2020-09-14_10h52.29.353,torte-2b,2020.1.3,Win32,60,12842,,,,,,,,,,,,,,,,,,,,,,,,,,,,,,,,,,,,,,,,,,,,,,,,,,,,,,,,,,,,,,,,,
,,,,,,,,,,,,a,0.66873,Correct!,0,90,90,76,1,t3.png,t2.png,1,0.90855,21,female,2020-09-14_10h52.29.353,torte-2b,2020.1.3,Win32,60,12842,,,,,,,,,,,,,,,,,,,,,,,,,,,,,,,,,,,,,,,,,,,,,,,,,,,,,,,,,,,,,,,,,
,,,,,,,,,,,,a,0.56608,Incorrect,0,91,91,86,1,t3.png,t1.png,2,0.056466,21,female,2020-09-14_10h52.29.353,torte-2b,2020.1.3,Win32,60,12842,,,,,,,,,,,,,,,,,,,,,,,,,,,,,,,,,,,,,,,,,,,,,,,,,,,,,,,,,,,,,,,,,
,,,,,,,,,,,,a,0.84141,Incorrect,0,92,92,90,1,t1.png,t5.png,4,9.55E-11,21,female,2020-09-14_10h52.29.353,torte-2b,2020.1.3,Win32,60,12842,,,,,,,,,,,,,,,,,,,,,,,,,,,,,,,,,,,,,,,,,,,,,,,,,,,,,,,,,,,,,,,,,
,,,,,,,,,,,,l,0.612345,Incorrect,0,93,93,10,1,t2.png,t3.png,1,0.90855,21,female,2020-09-14_10h52.29.353,torte-2b,2020.1.3,Win32,60,12842,,,,,,,,,,,,,,,,,,,,,,,,,,,,,,,,,,,,,,,,,,,,,,,,,,,,,,,,,,,,,,,,,
,,,,,,,,,,,,l,0.54998,Correct!,0,94,94,54,1,t1.png,t5.png,4,9.55E-11,21,female,2020-09-14_10h52.29.353,torte-2b,2020.1.3,Win32,60,12842,,,,,,,,,,,,,,,,,,,,,,,,,,,,,,,,,,,,,,,,,,,,,,,,,,,,,,,,,,,,,,,,,
,,,,,,,,,,,,l,1.033265,Incorrect,0,95,95,34,1,t5.png,t4.png,1,0.9,21,female,2020-09-14_10h52.29.353,torte-2b,2020.1.3,Win32,60,12842,,,,,,,,,,,,,,,,,,,,,,,,,,,,,,,,,,,,,,,,,,,,,,,,,,,,,,,,,,,,,,,,,
,,,,,,,,,,,,a,1.042905,Incorrect,0,96,96,102,1,t4.png,t2.png,2,0.059078,21,female,2020-09-14_10h52.29.353,torte-2b,2020.1.3,Win32,60,12842,,,,,,,,,,,,,,,,,,,,,,,,,,,,,,,,,,,,,,,,,,,,,,,,,,,,,,,,,,,,,,,,,
,,,,,,,,,,,,a,0.700805,Incorrect,0,97,97,30,1,t3.png,t1.png,2,0.056466,21,female,2020-09-14_10h52.29.353,torte-2b,2020.1.3,Win32,60,12842,,,,,,,,,,,,,,,,,,,,,,,,,,,,,,,,,,,,,,,,,,,,,,,,,,,,,,,,,,,,,,,,,
,,,,,,,,,,,,l,1.02755,Correct!,0,98,98,47,1,t4.png,t2.png,2,0.059078,21,female,2020-09-14_10h52.29.353,torte-2b,2020.1.3,Win32,60,12842,,,,,,,,,,,,,,,,,,,,,,,,,,,,,,,,,,,,,,,,,,,,,,,,,,,,,,,,,,,,,,,,,
,,,,,,,,,,,,a,0.8997,Incorrect,0,99,99,23,1,t5.png,t4.png,1,0.90025,21,female,2020-09-14_10h52.29.353,torte-2b,2020.1.3,Win32,60,12842,,,,,,,,,,,,,,,,,,,,,,,,,,,,,,,,,,,,,,,,,,,,,,,,,,,,,,,,,,,,,,,,,
,,,,,,,,,,,,a,0.9259,Incorrect,0,100,100,40,1,t1.png,t5.png,4,9.55E-11,21,female,2020-09-14_10h52.29.353,torte-2b,2020.1.3,Win32,60,12842,,,,,,,,,,,,,,,,,,,,,,,,,,,,,,,,,,,,,,,,,,,,,,,,,,,,,,,,,,,,,,,,,
,,,,,,,,,,,,a,0.62311,Correct!,0,101,101,105,1,t3.png,t2.png,1,0.90855,21,female,2020-09-14_10h52.29.353,torte-2b,2020.1.3,Win32,60,12842,,,,,,,,,,,,,,,,,,,,,,,,,,,,,,,,,,,,,,,,,,,,,,,,,,,,,,,,,,,,,,,,,
,,,,,,,,,,,,l,1.100495,Incorrect,0,102,102,78,1,t1.png,t1.png,0,0.978,21,female,2020-09-14_10h52.29.353,torte-2b,2020.1.3,Win32,60,12842,,,,,,,,,,,,,,,,,,,,,,,,,,,,,,,,,,,,,,,,,,,,,,,,,,,,,,,,,,,,,,,,,
,,,,,,,,,,,,a,1.687235,Correct!,0,103,103,77,1,t1.png,t1.png,0,0.97829,21,female,2020-09-14_10h52.29.353,torte-2b,2020.1.3,Win32,60,12842,,,,,,,,,,,,,,,,,,,,,,,,,,,,,,,,,,,,,,,,,,,,,,,,,,,,,,,,,,,,,,,,,
,,,,,,,,,,,,a,0.67088,Incorrect,0,104,104,27,1,t3.png,t1.png,2,0.0565,21,female,2020-09-14_10h52.29.353,torte-2b,2020.1.3,Win32,60,12842,,,,,,,,,,,,,,,,,,,,,,,,,,,,,,,,,,,,,,,,,,,,,,,,,,,,,,,,,,,,,,,,,
,,,,,,,,,,,,a,0.84344,Correct!,0,105,105,63,1,t2.png,t3.png,1,0.909,21,female,2020-09-14_10h52.29.353,torte-2b,2020.1.3,Win32,60,12842,,,,,,,,,,,,,,,,,,,,,,,,,,,,,,,,,,,,,,,,,,,,,,,,,,,,,,,,,,,,,,,,,
,,,,,,,,,,,,l,0.80238,Correct!,0,106,106,0,1,t5.png,t1.png,4,9.55E-11,21,female,2020-09-14_10h52.29.353,torte-2b,2020.1.3,Win32,60,12842,,,,,,,,,,,,,,,,,,,,,,,,,,,,,,,,,,,,,,,,,,,,,,,,,,,,,,,,,,,,,,,,,
,,,,,,,,,,,,l,0.851705,Incorrect,0,107,107,15,1,t3.png,t2.png,1,0.90855,21,female,2020-09-14_10h52.29.353,torte-2b,2020.1.3,Win32,60,12842,,,,,,,,,,,,,,,,,,,,,,,,,,,,,,,,,,,,,,,,,,,,,,,,,,,,,,,,,,,,,,,,,
,,,,,,,,,,,,l,1.401355,Correct!,0,108,108,117,1,t1.png,t5.png,4,9.55E-11,21,female,2020-09-14_10h52.29.353,torte-2b,2020.1.3,Win32,60,12842,,,,,,,,,,,,,,,,,,,,,,,,,,,,,,,,,,,,,,,,,,,,,,,,,,,,,,,,,,,,,,,,,
,,,,,,,,,,,,l,0.652125,Correct!,0,109,109,80,1,t1.png,t4.png,3,0.0000131,21,female,2020-09-14_10h52.29.353,torte-2b,2020.1.3,Win32,60,12842,,,,,,,,,,,,,,,,,,,,,,,,,,,,,,,,,,,,,,,,,,,,,,,,,,,,,,,,,,,,,,,,,
,,,,,,,,,,,,l,0.51953,Correct!,0,110,110,91,1,t1.png,t4.png,3,0.0000131,21,female,2020-09-14_10h52.29.353,torte-2b,2020.1.3,Win32,60,12842,,,,,,,,,,,,,,,,,,,,,,,,,,,,,,,,,,,,,,,,,,,,,,,,,,,,,,,,,,,,,,,,,
,,,,,,,,,,,,a,0.715475,Incorrect,0,111,111,87,1,t5.png,t1.png,4,9.55E-11,21,female,2020-09-14_10h52.29.353,torte-2b,2020.1.3,Win32,60,12842,,,,,,,,,,,,,,,,,,,,,,,,,,,,,,,,,,,,,,,,,,,,,,,,,,,,,,,,,,,,,,,,,
,,,,,,,,,,,,a,0.559795,Incorrect,0,112,112,94,1,t5.png,t1.png,4,9.55E-11,21,female,2020-09-14_10h52.29.353,torte-2b,2020.1.3,Win32,60,12842,,,,,,,,,,,,,,,,,,,,,,,,,,,,,,,,,,,,,,,,,,,,,,,,,,,,,,,,,,,,,,,,,
,,,,,,,,,,,,a,0.979745,Incorrect,0,113,113,72,1,t4.png,t2.png,2,0.059078,21,female,2020-09-14_10h52.29.353,torte-2b,2020.1.3,Win32,60,12842,,,,,,,,,,,,,,,,,,,,,,,,,,,,,,,,,,,,,,,,,,,,,,,,,,,,,,,,,,,,,,,,,
,,,,,,,,,,,,a,0.39524,Incorrect,0,114,114,56,1,t5.png,t1.png,4,9.55E-11,21,female,2020-09-14_10h52.29.353,torte-2b,2020.1.3,Win32,60,12842,,,,,,,,,,,,,,,,,,,,,,,,,,,,,,,,,,,,,,,,,,,,,,,,,,,,,,,,,,,,,,,,,
,,,,,,,,,,,,l,0.27804,Correct!,0,115,115,14,1,t2.png,t4.png,2,0.059078,21,female,2020-09-14_10h52.29.353,torte-2b,2020.1.3,Win32,60,12842,,,,,,,,,,,,,,,,,,,,,,,,,,,,,,,,,,,,,,,,,,,,,,,,,,,,,,,,,,,,,,,,,
,,,,,,,,,,,,l,0.50468,Correct!,0,116,116,98,1,t2.png,t4.png,2,0.0591,21,female,2020-09-14_10h52.29.353,torte-2b,2020.1.3,Win32,60,12842,,,,,,,,,,,,,,,,,,,,,,,,,,,,,,,,,,,,,,,,,,,,,,,,,,,,,,,,,,,,,,,,,
,,,,,,,,,,,,l,2.05096,Incorrect,0,117,117,70,1,t5.png,t5.png,0,0.978,21,female,2020-09-14_10h52.29.353,torte-2b,2020.1.3,Win32,60,12842,,,,,,,,,,,,,,,,,,,,,,,,,,,,,,,,,,,,,,,,,,,,,,,,,,,,,,,,,,,,,,,,,
,,,,,,,,,,,,l,0.65977,Correct!,0,118,118,89,1,t1.png,t4.png,3,0.0000131,21,female,2020-09-14_10h52.29.353,torte-2b,2020.1.3,Win32,60,12842,,,,,,,,,,,,,,,,,,,,,,,,,,,,,,,,,,,,,,,,,,,,,,,,,,,,,,,,,,,,,,,,,
,,,,,,,,,,,,l,0.47694,Correct!,0,119,119,3,1,t1.png,t5.png,4,9.55E-11,21,female,2020-09-14_10h52.29.353,torte-2b,2020.1.3,Win32,60,12842,,,,,,,,,,,,,,,,,,,,,,,,,,,,,,,,,,,,,,,,,,,,,,,,,,,,,,,,,,,,,,,,,
,,,,,,,,,,,,a,1.44623,Correct!,,,,,,t1.png,t1.png,0,0.97829,21,female,2020-09-14_10h52.29.353,torte-2b,2020.1.3,Win32,60,12842,space,1.578115,space,21.18971,0,0,0,9,1,,,,,,,,,,,,,,,,,,,,,,,,,,,,,,,,,,,,,,,,,,,,,,,,,,,,,,,,
,,,,,,,,,,,,a,0.463475,Correct!,,,,,,t3.png,t4.png,1,0.909,21,female,2020-09-14_10h52.29.353,torte-2b,2020.1.3,Win32,60,12842,,,,,0,1,1,89,1,,,,,,,,,,,,,,,,,,,,,,,,,,,,,,,,,,,,,,,,,,,,,,,,,,,,,,,,
,,,,,,,,,,,,a,0.85581,Correct!,,,,,,t4.png,t4.png,0,0.98115,21,female,2020-09-14_10h52.29.353,torte-2b,2020.1.3,Win32,60,12842,,,,,0,2,2,90,1,,,,,,,,,,,,,,,,,,,,,,,,,,,,,,,,,,,,,,,,,,,,,,,,,,,,,,,,
,,,,,,,,,,,,l,0.78316,Incorrect,,,,,,t2.png,t3.png,1,0.909,21,female,2020-09-14_10h52.29.353,torte-2b,2020.1.3,Win32,60,12842,,,,,0,3,3,74,1,,,,,,,,,,,,,,,,,,,,,,,,,,,,,,,,,,,,,,,,,,,,,,,,,,,,,,,,
,,,,,,,,,,,,a,0.490995,Incorrect,,,,,,t3.png,t1.png,2,0.0565,21,female,2020-09-14_10h52.29.353,torte-2b,2020.1.3,Win32,60,12842,,,,,0,4,4,31,1,,,,,,,,,,,,,,,,,,,,,,,,,,,,,,,,,,,,,,,,,,,,,,,,,,,,,,,,
,,,,,,,,,,,,l,0.626675,Correct!,,,,,,t1.png,t4.png,3,0.0000131,21,female,2020-09-14_10h52.29.353,torte-2b,2020.1.3,Win32,60,12842,,,,,0,5,5,92,1,,,,,,,,,,,,,,,,,,,,,,,,,,,,,,,,,,,,,,,,,,,,,,,,,,,,,,,,
,,,,,,,,,,,,a,0.635755,Incorrect,,,,,,t5.png,t2.png,3,0.0000131,21,female,2020-09-14_10h52.29.353,torte-2b,2020.1.3,Win32,60,12842,,,,,0,6,6,116,1,,,,,,,,,,,,,,,,,,,,,,,,,,,,,,,,,,,,,,,,,,,,,,,,,,,,,,,,
,,,,,,,,,,,,a,1.73318,Correct!,,,,,,t5.png,t4.png,1,0.9,21,female,2020-09-14_10h52.29.353,torte-2b,2020.1.3,Win32,60,12842,,,,,0,7,7,76,1,,,,,,,,,,,,,,,,,,,,,,,,,,,,,,,,,,,,,,,,,,,,,,,,,,,,,,,,
,,,,,,,,,,,,l,0.785295,Correct!,,,,,,t3.png,t5.png,2,0.056466,21,female,2020-09-14_10h52.29.353,torte-2b,2020.1.3,Win32,60,12842,,,,,0,8,8,44,1,,,,,,,,,,,,,,,,,,,,,,,,,,,,,,,,,,,,,,,,,,,,,,,,,,,,,,,,
,,,,,,,,,,,,a,0.51709,Incorrect,,,,,,t5.png,t3.png,2,0.056466,21,female,2020-09-14_10h52.29.353,torte-2b,2020.1.3,Win32,60,12842,,,,,0,9,9,38,1,,,,,,,,,,,,,,,,,,,,,,,,,,,,,,,,,,,,,,,,,,,,,,,,,,,,,,,,
,,,,,,,,,,,,a,0.473835,Incorrect,,,,,,t3.png,t1.png,2,0.056466,21,female,2020-09-14_10h52.29.353,torte-2b,2020.1.3,Win32,60,12842,,,,,0,10,10,64,1,,,,,,,,,,,,,,,,,,,,,,,,,,,,,,,,,,,,,,,,,,,,,,,,,,,,,,,,
,,,,,,,,,,,,a,0.950125,Correct!,,,,,,t5.png,t4.png,1,0.90025,21,female,2020-09-14_10h52.29.353,torte-2b,2020.1.3,Win32,60,12842,,,,,0,11,11,34,1,,,,,,,,,,,,,,,,,,,,,,,,,,,,,,,,,,,,,,,,,,,,,,,,,,,,,,,,
,,,,,,,,,,,,l,0.886095,Incorrect,,,,,,t1.png,t1.png,0,0.97829,21,female,2020-09-14_10h52.29.353,torte-2b,2020.1.3,Win32,60,12842,,,,,0,12,12,67,1,,,,,,,,,,,,,,,,,,,,,,,,,,,,,,,,,,,,,,,,,,,,,,,,,,,,,,,,
,,,,,,,,,,,,a,0.55661,Incorrect,,,,,,t3.png,t5.png,2,0.056466,21,female,2020-09-14_10h52.29.353,torte-2b,2020.1.3,Win32,60,12842,,,,,0,13,13,6,1,,,,,,,,,,,,,,,,,,,,,,,,,,,,,,,,,,,,,,,,,,,,,,,,,,,,,,,,
,,,,,,,,,,,,a,0.529955,Incorrect,,,,,,t4.png,t1.png,3,0.0000131,21,female,2020-09-14_10h52.29.353,torte-2b,2020.1.3,Win32,60,12842,,,,,0,14,14,48,1,,,,,,,,,,,,,,,,,,,,,,,,,,,,,,,,,,,,,,,,,,,,,,,,,,,,,,,,
,,,,,,,,,,,,l,0.7535,Incorrect,,,,,,t2.png,t3.png,1,0.90855,21,female,2020-09-14_10h52.29.353,torte-2b,2020.1.3,Win32,60,12842,,,,,0,15,15,68,1,,,,,,,,,,,,,,,,,,,,,,,,,,,,,,,,,,,,,,,,,,,,,,,,,,,,,,,,
,,,,,,,,,,,,l,0.44987,Correct!,,,,,,t1.png,t4.png,3,0.0000131,21,female,2020-09-14_10h52.29.353,torte-2b,2020.1.3,Win32,60,12842,,,,,0,16,16,50,1,,,,,,,,,,,,,,,,,,,,,,,,,,,,,,,,,,,,,,,,,,,,,,,,,,,,,,,,
,,,,,,,,,,,,l,0.657835,Correct!,,,,,,t1.png,t3.png,2,0.056466,21,female,2020-09-14_10h52.29.353,torte-2b,2020.1.3,Win32,60,12842,,,,,0,17,17,99,1,,,,,,,,,,,,,,,,,,,,,,,,,,,,,,,,,,,,,,,,,,,,,,,,,,,,,,,,
,,,,,,,,,,,,a,0.43532,Correct!,,,,,,t4.png,t4.png,0,0.98115,21,female,2020-09-14_10h52.29.353,torte-2b,2020.1.3,Win32,60,12842,,,,,0,18,18,21,1,,,,,,,,,,,,,,,,,,,,,,,,,,,,,,,,,,,,,,,,,,,,,,,,,,,,,,,,
,,,,,,,,,,,,a,0.83514,Correct!,,,,,,t4.png,t3.png,1,0.90855,21,female,2020-09-14_10h52.29.353,torte-2b,2020.1.3,Win32,60,12842,,,,,0,19,19,35,1,,,,,,,,,,,,,,,,,,,,,,,,,,,,,,,,,,,,,,,,,,,,,,,,,,,,,,,,
,,,,,,,,,,,,l,1.350795,Incorrect,,,,,,t5.png,t5.png,0,0.978,21,female,2020-09-14_10h52.29.353,torte-2b,2020.1.3,Win32,60,12842,,,,,0,20,20,117,1,,,,,,,,,,,,,,,,,,,,,,,,,,,,,,,,,,,,,,,,,,,,,,,,,,,,,,,,
,,,,,,,,,,,,a,1.368135,Correct!,,,,,,t4.png,t4.png,0,0.98115,21,female,2020-09-14_10h52.29.353,torte-2b,2020.1.3,Win32,60,12842,,,,,0,21,21,52,1,,,,,,,,,,,,,,,,,,,,,,,,,,,,,,,,,,,,,,,,,,,,,,,,,,,,,,,,
,,,,,,,,,,,,l,1.057905,Incorrect,,,,,,t4.png,t5.png,1,0.90025,21,female,2020-09-14_10h52.29.353,torte-2b,2020.1.3,Win32,60,12842,,,,,0,22,22,103,1,,,,,,,,,,,,,,,,,,,,,,,,,,,,,,,,,,,,,,,,,,,,,,,,,,,,,,,,
,,,,,,,,,,,,a,0.877645,Correct!,,,,,,t2.png,t1.png,1,0.9,21,female,2020-09-14_10h52.29.353,torte-2b,2020.1.3,Win32,60,12842,,,,,0,23,23,118,1,,,,,,,,,,,,,,,,,,,,,,,,,,,,,,,,,,,,,,,,,,,,,,,,,,,,,,,,
,,,,,,,,,,,,l,0.973875,Incorrect,,,,,,t2.png,t3.png,1,0.90855,21,female,2020-09-14_10h52.29.353,torte-2b,2020.1.3,Win32,60,12842,,,,,0,24,24,111,1,,,,,,,,,,,,,,,,,,,,,,,,,,,,,,,,,,,,,,,,,,,,,,,,,,,,,,,,
,,,,,,,,,,,,l,0.51728,Correct!,,,,,,t2.png,t4.png,2,0.059078,21,female,2020-09-14_10h52.29.353,torte-2b,2020.1.3,Win32,60,12842,,,,,0,25,25,24,1,,,,,,,,,,,,,,,,,,,,,,,,,,,,,,,,,,,,,,,,,,,,,,,,,,,,,,,,
,,,,,,,,,,,,l,0.58342,Correct!,,,,,,t2.png,t5.png,3,0.0000131,21,female,2020-09-14_10h52.29.353,torte-2b,2020.1.3,Win32,60,12842,,,,,0,26,26,40,1,,,,,,,,,,,,,,,,,,,,,,,,,,,,,,,,,,,,,,,,,,,,,,,,,,,,,,,,
,,,,,,,,,,,,l,0.38375,Correct!,,,,,,t1.png,t5.png,4,9.55E-11,21,female,2020-09-14_10h52.29.353,torte-2b,2020.1.3,Win32,60,12842,,,,,0,27,27,55,1,,,,,,,,,,,,,,,,,,,,,,,,,,,,,,,,,,,,,,,,,,,,,,,,,,,,,,,,
,,,,,,,,,,,,l,1.050755,Incorrect,,,,,,t2.png,t2.png,0,0.98115,21,female,2020-09-14_10h52.29.353,torte-2b,2020.1.3,Win32,60,12842,,,,,0,28,28,7,1,,,,,,,,,,,,,,,,,,,,,,,,,,,,,,,,,,,,,,,,,,,,,,,,,,,,,,,,
,,,,,,,,,,,,a,1.58259,Correct!,,,,,,t5.png,t4.png,1,0.90025,21,female,2020-09-14_10h52.29.353,torte-2b,2020.1.3,Win32,60,12842,,,,,0,29,29,26,1,,,,,,,,,,,,,,,,,,,,,,,,,,,,,,,,,,,,,,,,,,,,,,,,,,,,,,,,
,,,,,,,,,,,,l,0.891775,Incorrect,,,,,,t1.png,t2.png,1,0.9,21,female,2020-09-14_10h52.29.353,torte-2b,2020.1.3,Win32,60,12842,,,,,0,30,30,1,1,,,,,,,,,,,,,,,,,,,,,,,,,,,,,,,,,,,,,,,,,,,,,,,,,,,,,,,,
,,,,,,,,,,,,l,0.99274,Incorrect,,,,,,t2.png,t2.png,0,0.981,21,female,2020-09-14_10h52.29.353,torte-2b,2020.1.3,Win32,60,12842,,,,,0,31,31,101,1,,,,,,,,,,,,,,,,,,,,,,,,,,,,,,,,,,,,,,,,,,,,,,,,,,,,,,,,
,,,,,,,,,,,,l,0.569555,Correct!,,,,,,t2.png,t4.png,2,0.059078,21,female,2020-09-14_10h52.29.353,torte-2b,2020.1.3,Win32,60,12842,,,,,0,32,32,77,1,,,,,,,,,,,,,,,,,,,,,,,,,,,,,,,,,,,,,,,,,,,,,,,,,,,,,,,,
,,,,,,,,,,,,l,0.805455,Incorrect,,,,,,t2.png,t2.png,0,0.98115,21,female,2020-09-14_10h52.29.353,torte-2b,2020.1.3,Win32,60,12842,,,,,0,33,33,59,1,,,,,,,,,,,,,,,,,,,,,,,,,,,,,,,,,,,,,,,,,,,,,,,,,,,,,,,,
,,,,,,,,,,,,l,1.053555,Incorrect,,,,,,t1.png,t1.png,0,0.978,21,female,2020-09-14_10h52.29.353,torte-2b,2020.1.3,Win32,60,12842,,,,,0,34,34,54,1,,,,,,,,,,,,,,,,,,,,,,,,,,,,,,,,,,,,,,,,,,,,,,,,,,,,,,,,
,,,,,,,,,,,,l,1.42041,Correct!,,,,,,t4.png,t5.png,1,0.90025,21,female,2020-09-14_10h52.29.353,torte-2b,2020.1.3,Win32,60,12842,,,,,0,35,35,58,1,,,,,,,,,,,,,,,,,,,,,,,,,,,,,,,,,,,,,,,,,,,,,,,,,,,,,,,,
,,,,,,,,,,,,l,0.65904,Correct!,,,,,,t1.png,t5.png,4,9.55E-11,21,female,2020-09-14_10h52.29.353,torte-2b,2020.1.3,Win32,60,12842,,,,,0,36,36,41,1,,,,,,,,,,,,,,,,,,,,,,,,,,,,,,,,,,,,,,,,,,,,,,,,,,,,,,,,
,,,,,,,,,,,,l,0.289185,Incorrect,,,,,,t5.png,t5.png,0,0.97829,21,female,2020-09-14_10h52.29.353,torte-2b,2020.1.3,Win32,60,12842,,,,,0,37,37,25,1,,,,,,,,,,,,,,,,,,,,,,,,,,,,,,,,,,,,,,,,,,,,,,,,,,,,,,,,
,,,,,,,,,,,,a,0.493455,Incorrect,,,,,,t4.png,t2.png,2,0.0591,21,female,2020-09-14_10h52.29.353,torte-2b,2020.1.3,Win32,60,12842,,,,,0,38,38,36,1,,,,,,,,,,,,,,,,,,,,,,,,,,,,,,,,,,,,,,,,,,,,,,,,,,,,,,,,
,,,,,,,,,,,,l,0.401865,Correct!,,,,,,t1.png,t4.png,3,0.0000131,21,female,2020-09-14_10h52.29.353,torte-2b,2020.1.3,Win32,60,12842,,,,,0,39,39,81,1,,,,,,,,,,,,,,,,,,,,,,,,,,,,,,,,,,,,,,,,,,,,,,,,,,,,,,,,
,,,,,,,,,,,,a,0.37083,Incorrect,,,,,,t3.png,t1.png,2,0.056466,21,female,2020-09-14_10h52.29.353,torte-2b,2020.1.3,Win32,60,12842,,,,,0,40,40,29,1,,,,,,,,,,,,,,,,,,,,,,,,,,,,,,,,,,,,,,,,,,,,,,,,,,,,,,,,
,,,,,,,,,,,,l,0.38849,Incorrect,,,,,,t3.png,t2.png,1,0.909,21,female,2020-09-14_10h52.29.353,torte-2b,2020.1.3,Win32,60,12842,,,,,0,41,41,23,1,,,,,,,,,,,,,,,,,,,,,,,,,,,,,,,,,,,,,,,,,,,,,,,,,,,,,,,,
,,,,,,,,,,,,a,0.403605,Incorrect,,,,,,t5.png,t1.png,4,9.55E-11,21,female,2020-09-14_10h52.29.353,torte-2b,2020.1.3,Win32,60,12842,,,,,0,42,42,43,1,,,,,,,,,,,,,,,,,,,,,,,,,,,,,,,,,,,,,,,,,,,,,,,,,,,,,,,,
,,,,,,,,,,,,a,0.601615,Correct!,,,,,,t5.png,t4.png,1,0.9,21,female,2020-09-14_10h52.29.353,torte-2b,2020.1.3,Win32,60,12842,,,,,0,43,43,49,1,,,,,,,,,,,,,,,,,,,,,,,,,,,,,,,,,,,,,,,,,,,,,,,,,,,,,,,,
,,,,,,,,,,,,l,0.62631,Correct!,,,,,,t2.png,t5.png,3,0.0000131,21,female,2020-09-14_10h52.29.353,torte-2b,2020.1.3,Win32,60,12842,,,,,0,44,44,8,1,,,,,,,,,,,,,,,,,,,,,,,,,,,,,,,,,,,,,,,,,,,,,,,,,,,,,,,,
,,,,,,,,,,,,l,0.499875,Correct!,,,,,,t1.png,t4.png,3,0.0000131,21,female,2020-09-14_10h52.29.353,torte-2b,2020.1.3,Win32,60,12842,,,,,0,45,45,17,1,,,,,,,,,,,,,,,,,,,,,,,,,,,,,,,,,,,,,,,,,,,,,,,,,,,,,,,,
,,,,,,,,,,,,l,1.237235,Incorrect,,,,,,t2.png,t2.png,0,0.98115,21,female,2020-09-14_10h52.29.353,torte-2b,2020.1.3,Win32,60,12842,,,,,0,46,46,2,1,,,,,,,,,,,,,,,,,,,,,,,,,,,,,,,,,,,,,,,,,,,,,,,,,,,,,,,,
,,,,,,,,,,,,l,1.454655,Incorrect,,,,,,t2.png,t3.png,1,0.90855,21,female,2020-09-14_10h52.29.353,torte-2b,2020.1.3,Win32,60,12842,,,,,0,47,47,65,1,,,,,,,,,,,,,,,,,,,,,,,,,,,,,,,,,,,,,,,,,,,,,,,,,,,,,,,,
,,,,,,,,,,,,l,0.59442,Incorrect,,,,,,t2.png,t3.png,1,0.90855,21,female,2020-09-14_10h52.29.353,torte-2b,2020.1.3,Win32,60,12842,,,,,0,48,48,10,1,,,,,,,,,,,,,,,,,,,,,,,,,,,,,,,,,,,,,,,,,,,,,,,,,,,,,,,,
,,,,,,,,,,,,l,0.91817,Incorrect,,,,,,t1.png,t1.png,0,0.978,21,female,2020-09-14_10h52.29.353,torte-2b,2020.1.3,Win32,60,12842,,,,,0,49,49,28,1,,,,,,,,,,,,,,,,,,,,,,,,,,,,,,,,,,,,,,,,,,,,,,,,,,,,,,,,
,,,,,,,,,,,,l,1.23714,Incorrect,,,,,,t5.png,t5.png,0,0.97829,21,female,2020-09-14_10h52.29.353,torte-2b,2020.1.3,Win32,60,12842,,,,,0,50,50,73,1,,,,,,,,,,,,,,,,,,,,,,,,,,,,,,,,,,,,,,,,,,,,,,,,,,,,,,,,
,,,,,,,,,,,,l,0.97731,Incorrect,,,,,,t1.png,t2.png,1,0.90025,21,female,2020-09-14_10h52.29.353,torte-2b,2020.1.3,Win32,60,12842,,,,,0,51,51,72,1,,,,,,,,,,,,,,,,,,,,,,,,,,,,,,,,,,,,,,,,,,,,,,,,,,,,,,,,
,,,,,,,,,,,,l,0.71658,Incorrect,,,,,,t5.png,t5.png,0,0.97829,21,female,2020-09-14_10h52.29.353,torte-2b,2020.1.3,Win32,60,12842,,,,,0,52,52,94,1,,,,,,,,,,,,,,,,,,,,,,,,,,,,,,,,,,,,,,,,,,,,,,,,,,,,,,,,
,,,,,,,,,,,,l,0.673725,Incorrect,,,,,,t1.png,t1.png,0,0.97829,21,female,2020-09-14_10h52.29.353,torte-2b,2020.1.3,Win32,60,12842,,,,,0,53,53,78,1,,,,,,,,,,,,,,,,,,,,,,,,,,,,,,,,,,,,,,,,,,,,,,,,,,,,,,,,
,,,,,,,,,,,,l,1.536645,Incorrect,,,,,,t4.png,t5.png,1,0.90025,21,female,2020-09-14_10h52.29.353,torte-2b,2020.1.3,Win32,60,12842,,,,,0,54,54,113,1,,,,,,,,,,,,,,,,,,,,,,,,,,,,,,,,,,,,,,,,,,,,,,,,,,,,,,,,
,,,,,,,,,,,,a,0.558325,Incorrect,,,,,,t4.png,t2.png,2,0.059078,21,female,2020-09-14_10h52.29.353,torte-2b,2020.1.3,Win32,60,12842,,,,,0,55,55,109,1,,,,,,,,,,,,,,,,,,,,,,,,,,,,,,,,,,,,,,,,,,,,,,,,,,,,,,,,
,,,,,,,,,,,,l,0.558085,Correct!,,,,,,t2.png,t4.png,2,0.059078,21,female,2020-09-14_10h52.29.353,torte-2b,2020.1.3,Win32,60,12842,,,,,0,56,56,37,1,,,,,,,,,,,,,,,,,,,,,,,,,,,,,,,,,,,,,,,,,,,,,,,,,,,,,,,,
,,,,,,,,,,,,l,1.174075,Incorrect,,,,,,t1.png,t2.png,1,0.90025,21,female,2020-09-14_10h52.29.353,torte-2b,2020.1.3,Win32,60,12842,,,,,0,57,57,112,1,,,,,,,,,,,,,,,,,,,,,,,,,,,,,,,,,,,,,,,,,,,,,,,,,,,,,,,,
,,,,,,,,,,,,l,0.78296,Correct!,,,,,,t3.png,t5.png,2,0.0565,21,female,2020-09-14_10h52.29.353,torte-2b,2020.1.3,Win32,60,12842,,,,,0,58,58,30,1,,,,,,,,,,,,,,,,,,,,,,,,,,,,,,,,,,,,,,,,,,,,,,,,,,,,,,,,
,,,,,,,,,,,,l,0.56753,Correct!,,,,,,t2.png,t4.png,2,0.0591,21,female,2020-09-14_10h52.29.353,torte-2b,2020.1.3,Win32,60,12842,,,,,0,59,59,15,1,,,,,,,,,,,,,,,,,,,,,,,,,,,,,,,,,,,,,,,,,,,,,,,,,,,,,,,,
,,,,,,,,,,,,a,0.72923,Incorrect,,,,,,t5.png,t3.png,2,0.0565,21,female,2020-09-14_10h52.29.353,torte-2b,2020.1.3,Win32,60,12842,,,,,0,60,60,39,1,,,,,,,,,,,,,,,,,,,,,,,,,,,,,,,,,,,,,,,,,,,,,,,,,,,,,,,,
,,,,,,,,,,,,l,0.53649,Correct!,,,,,,t1.png,t5.png,4,9.55E-11,21,female,2020-09-14_10h52.29.353,torte-2b,2020.1.3,Win32,60,12842,,,,,0,61,61,85,1,,,,,,,,,,,,,,,,,,,,,,,,,,,,,,,,,,,,,,,,,,,,,,,,,,,,,,,,
,,,,,,,,,,,,l,0.96704,Incorrect,,,,,,t5.png,t5.png,0,0.97829,21,female,2020-09-14_10h52.29.353,torte-2b,2020.1.3,Win32,60,12842,,,,,0,62,62,70,1,,,,,,,,,,,,,,,,,,,,,,,,,,,,,,,,,,,,,,,,,,,,,,,,,,,,,,,,
,,,,,,,,,,,,a,0.559635,Incorrect,,,,,,t4.png,t1.png,3,0.0000131,21,female,2020-09-14_10h52.29.353,torte-2b,2020.1.3,Win32,60,12842,,,,,0,63,63,61,1,,,,,,,,,,,,,,,,,,,,,,,,,,,,,,,,,,,,,,,,,,,,,,,,,,,,,,,,
,,,,,,,,,,,,a,0.666205,Incorrect,,,,,,t3.png,t1.png,2,0.056466,21,female,2020-09-14_10h52.29.353,torte-2b,2020.1.3,Win32,60,12842,,,,,0,64,64,32,1,,,,,,,,,,,,,,,,,,,,,,,,,,,,,,,,,,,,,,,,,,,,,,,,,,,,,,,,
,,,,,,,,,,,,a,0.787365,Correct!,,,,,,t3.png,t2.png,1,0.909,21,female,2020-09-14_10h52.29.353,torte-2b,2020.1.3,Win32,60,12842,,,,,0,65,65,3,1,,,,,,,,,,,,,,,,,,,,,,,,,,,,,,,,,,,,,,,,,,,,,,,,,,,,,,,,
,,,,,,,,,,,,a,0.645215,Incorrect,,,,,,t5.png,t1.png,4,9.55E-11,21,female,2020-09-14_10h52.29.353,torte-2b,2020.1.3,Win32,60,12842,,,,,0,66,66,71,1,,,,,,,,,,,,,,,,,,,,,,,,,,,,,,,,,,,,,,,,,,,,,,,,,,,,,,,,
,,,,,,,,,,,,a,0.52764,Incorrect,,,,,,t5.png,t3.png,2,0.056466,21,female,2020-09-14_10h52.29.353,torte-2b,2020.1.3,Win32,60,12842,,,,,0,67,67,56,1,,,,,,,,,,,,,,,,,,,,,,,,,,,,,,,,,,,,,,,,,,,,,,,,,,,,,,,,
,,,,,,,,,,,,l,0.46954,Correct!,,,,,,t2.png,t5.png,3,0.0000131,21,female,2020-09-14_10h52.29.353,torte-2b,2020.1.3,Win32,60,12842,,,,,0,68,68,66,1,,,,,,,,,,,,,,,,,,,,,,,,,,,,,,,,,,,,,,,,,,,,,,,,,,,,,,,,
,,,,,,,,,,,,a,0.341195,Correct!,,,,,,t3.png,t4.png,1,0.90855,21,female,2020-09-14_10h52.29.353,torte-2b,2020.1.3,Win32,60,12842,,,,,0,69,69,84,1,,,,,,,,,,,,,,,,,,,,,,,,,,,,,,,,,,,,,,,,,,,,,,,,,,,,,,,,
,,,,,,,,,,,,a,0.78569,Incorrect,,,,,,t5.png,t1.png,4,9.55E-11,21,female,2020-09-14_10h52.29.353,torte-2b,2020.1.3,Win32,60,12842,,,,,0,70,70,22,1,,,,,,,,,,,,,,,,,,,,,,,,,,,,,,,,,,,,,,,,,,,,,,,,,,,,,,,,
,,,,,,,,,,,,a,0.646785,Correct!,,,,,,t2.png,t1.png,1,0.90025,21,female,2020-09-14_10h52.29.353,torte-2b,2020.1.3,Win32,60,12842,,,,,0,71,71,5,1,,,,,,,,,,,,,,,,,,,,,,,,,,,,,,,,,,,,,,,,,,,,,,,,,,,,,,,,
,,,,,,,,,,,,a,0.537075,Correct!,,,,,,t5.png,t3.png,2,0.056466,21,female,2020-09-14_10h52.29.353,torte-2b,2020.1.3,Win32,60,12842,,,,,0,72,72,108,1,,,,,,,,,,,,,,,,,,,,,,,,,,,,,,,,,,,,,,,,,,,,,,,,,,,,,,,,
,,,,,,,,,,,,l,0.59601,Correct!,,,,,,t1.png,t4.png,3,0.0000131,21,female,2020-09-14_10h52.29.353,torte-2b,2020.1.3,Win32,60,12842,,,,,0,73,73,107,1,,,,,,,,,,,,,,,,,,,,,,,,,,,,,,,,,,,,,,,,,,,,,,,,,,,,,,,,
,,,,,,,,,,,,l,0.382905,Correct!,,,,,,t1.png,t5.png,4,9.55E-11,21,female,2020-09-14_10h52.29.353,torte-2b,2020.1.3,Win32,60,12842,,,,,0,74,74,12,1,,,,,,,,,,,,,,,,,,,,,,,,,,,,,,,,,,,,,,,,,,,,,,,,,,,,,,,,
,,,,,,,,,,,,a,0.568855,Incorrect,,,,,,t4.png,t1.png,3,0.0000131,21,female,2020-09-14_10h52.29.353,torte-2b,2020.1.3,Win32,60,12842,,,,,0,75,75,13,1,,,,,,,,,,,,,,,,,,,,,,,,,,,,,,,,,,,,,,,,,,,,,,,,,,,,,,,,
,,,,,,,,,,,,a,0.489275,Correct!,,,,,,t3.png,t2.png,1,0.90855,21,female,2020-09-14_10h52.29.353,torte-2b,2020.1.3,Win32,60,12842,,,,,0,76,76,18,1,,,,,,,,,,,,,,,,,,,,,,,,,,,,,,,,,,,,,,,,,,,,,,,,,,,,,,,,
,,,,,,,,,,,,l,0.48756,Correct!,,,,,,t2.png,t5.png,3,0.0000131,21,female,2020-09-14_10h52.29.353,torte-2b,2020.1.3,Win32,60,12842,,,,,0,77,77,95,1,,,,,,,,,,,,,,,,,,,,,,,,,,,,,,,,,,,,,,,,,,,,,,,,,,,,,,,,
,,,,,,,,,,,,l,0.50803,Incorrect,,,,,,t1.png,t2.png,1,0.90025,21,female,2020-09-14_10h52.29.353,torte-2b,2020.1.3,Win32,60,12842,,,,,0,78,78,33,1,,,,,,,,,,,,,,,,,,,,,,,,,,,,,,,,,,,,,,,,,,,,,,,,,,,,,,,,
,,,,,,,,,,,,l,0.31587,Correct!,,,,,,t5.png,t2.png,3,0.0000131,21,female,2020-09-14_10h52.29.353,torte-2b,2020.1.3,Win32,60,12842,,,,,0,79,79,119,1,,,,,,,,,,,,,,,,,,,,,,,,,,,,,,,,,,,,,,,,,,,,,,,,,,,,,,,,
,,,,,,,,,,,,a,0.506795,Correct!,,,,,,t4.png,t3.png,1,0.90855,21,female,2020-09-14_10h52.29.353,torte-2b,2020.1.3,Win32,60,12842,,,,,0,80,80,75,1,,,,,,,,,,,,,,,,,,,,,,,,,,,,,,,,,,,,,,,,,,,,,,,,,,,,,,,,
,,,,,,,,,,,,l,0.434205,Correct!,,,,,,t1.png,t3.png,2,0.056466,21,female,2020-09-14_10h52.29.353,torte-2b,2020.1.3,Win32,60,12842,,,,,0,81,81,69,1,,,,,,,,,,,,,,,,,,,,,,,,,,,,,,,,,,,,,,,,,,,,,,,,,,,,,,,,
,,,,,,,,,,,,a,0.532965,Correct!,,,,,,t5.png,t4.png,1,0.90025,21,female,2020-09-14_10h52.29.353,torte-2b,2020.1.3,Win32,60,12842,,,,,0,82,82,27,1,,,,,,,,,,,,,,,,,,,,,,,,,,,,,,,,,,,,,,,,,,,,,,,,,,,,,,,,
,,,,,,,,,,,,a,0.442735,Incorrect,,,,,,t5.png,t2.png,3,0.0000131,21,female,2020-09-14_10h52.29.353,torte-2b,2020.1.3,Win32,60,12842,,,,,0,83,83,51,1,,,,,,,,,,,,,,,,,,,,,,,,,,,,,,,,,,,,,,,,,,,,,,,,,,,,,,,,
,,,,,,,,,,,,a,0.54442,Incorrect,,,,,,t4.png,t1.png,3,0.0000131,21,female,2020-09-14_10h52.29.353,torte-2b,2020.1.3,Win32,60,12842,,,,,0,84,84,93,1,,,,,,,,,,,,,,,,,,,,,,,,,,,,,,,,,,,,,,,,,,,,,,,,,,,,,,,,
,,,,,,,,,,,,a,0.54062,Incorrect,,,,,,t4.png,t1.png,3,0.0000131,21,female,2020-09-14_10h52.29.353,torte-2b,2020.1.3,Win32,60,12842,,,,,0,85,85,42,1,,,,,,,,,,,,,,,,,,,,,,,,,,,,,,,,,,,,,,,,,,,,,,,,,,,,,,,,
,,,,,,,,,,,,l,1.038385,Incorrect,,,,,,t2.png,t2.png,0,0.98115,21,female,2020-09-14_10h52.29.353,torte-2b,2020.1.3,Win32,60,12842,,,,,0,86,86,57,1,,,,,,,,,,,,,,,,,,,,,,,,,,,,,,,,,,,,,,,,,,,,,,,,,,,,,,,,
,,,,,,,,,,,,a,0.452545,Incorrect,,,,,,t5.png,t1.png,4,9.55E-11,21,female,2020-09-14_10h52.29.353,torte-2b,2020.1.3,Win32,60,12842,,,,,0,87,87,100,1,,,,,,,,,,,,,,,,,,,,,,,,,,,,,,,,,,,,,,,,,,,,,,,,,,,,,,,,
,,,,,,,,,,,,l,0.541315,Correct!,,,,,,t2.png,t5.png,3,0.0000131,21,female,2020-09-14_10h52.29.353,torte-2b,2020.1.3,Win32,60,12842,,,,,0,88,88,104,1,,,,,,,,,,,,,,,,,,,,,,,,,,,,,,,,,,,,,,,,,,,,,,,,,,,,,,,,
,,,,,,,,,,,,l,0.500655,Incorrect,,,,,,t3.png,t4.png,1,0.909,21,female,2020-09-14_10h52.29.353,torte-2b,2020.1.3,Win32,60,12842,,,,,0,89,89,106,1,,,,,,,,,,,,,,,,,,,,,,,,,,,,,,,,,,,,,,,,,,,,,,,,,,,,,,,,
,,,,,,,,,,,,l,0.26673,Incorrect,,,,,,t3.png,t2.png,1,0.90855,21,female,2020-09-14_10h52.29.353,torte-2b,2020.1.3,Win32,60,12842,,,,,0,90,90,97,1,,,,,,,,,,,,,,,,,,,,,,,,,,,,,,,,,,,,,,,,,,,,,,,,,,,,,,,,
,,,,,,,,,,,,a,0.635845,Incorrect,,,,,,t5.png,t1.png,4,9.55E-11,21,female,2020-09-14_10h52.29.353,torte-2b,2020.1.3,Win32,60,12842,,,,,0,91,91,102,1,,,,,,,,,,,,,,,,,,,,,,,,,,,,,,,,,,,,,,,,,,,,,,,,,,,,,,,,
,,,,,,,,,,,,a,0.78539,Incorrect,,,,,,t4.png,t2.png,2,0.059078,21,female,2020-09-14_10h52.29.353,torte-2b,2020.1.3,Win32,60,12842,,,,,0,92,92,86,1,,,,,,,,,,,,,,,,,,,,,,,,,,,,,,,,,,,,,,,,,,,,,,,,,,,,,,,,
,,,,,,,,,,,,a,0.65785,Incorrect,,,,,,t4.png,t2.png,2,0.059078,21,female,2020-09-14_10h52.29.353,torte-2b,2020.1.3,Win32,60,12842,,,,,0,93,93,110,1,,,,,,,,,,,,,,,,,,,,,,,,,,,,,,,,,,,,,,,,,,,,,,,,,,,,,,,,
,,,,,,,,,,,,a,0.978505,Correct!,,,,,,t2.png,t1.png,1,0.90025,21,female,2020-09-14_10h52.29.353,torte-2b,2020.1.3,Win32,60,12842,,,,,0,94,94,4,1,,,,,,,,,,,,,,,,,,,,,,,,,,,,,,,,,,,,,,,,,,,,,,,,,,,,,,,,
,,,,,,,,,,,,l,0.59263,Incorrect,,,,,,t1.png,t2.png,1,0.90025,21,female,2020-09-14_10h52.29.353,torte-2b,2020.1.3,Win32,60,12842,,,,,0,95,95,105,1,,,,,,,,,,,,,,,,,,,,,,,,,,,,,,,,,,,,,,,,,,,,,,,,,,,,,,,,
,,,,,,,,,,,,l,0.75418,Correct!,,,,,,t1.png,t5.png,4,9.55E-11,21,female,2020-09-14_10h52.29.353,torte-2b,2020.1.3,Win32,60,12842,,,,,0,96,96,16,1,,,,,,,,,,,,,,,,,,,,,,,,,,,,,,,,,,,,,,,,,,,,,,,,,,,,,,,,
,,,,,,,,,,,,a,0.90835,Correct!,,,,,,t3.png,t2.png,1,0.90855,21,female,2020-09-14_10h52.29.353,torte-2b,2020.1.3,Win32,60,12842,,,,,0,97,97,53,1,,,,,,,,,,,,,,,,,,,,,,,,,,,,,,,,,,,,,,,,,,,,,,,,,,,,,,,,
,,,,,,,,,,,,a,0.750695,Correct!,,,,,,t2.png,t1.png,1,0.90025,21,female,2020-09-14_10h52.29.353,torte-2b,2020.1.3,Win32,60,12842,,,,,0,98,98,62,1,,,,,,,,,,,,,,,,,,,,,,,,,,,,,,,,,,,,,,,,,,,,,,,,,,,,,,,,
,,,,,,,,,,,,l,0.889935,Incorrect,,,,,,t4.png,t5.png,1,0.90025,21,female,2020-09-14_10h52.29.353,torte-2b,2020.1.3,Win32,60,12842,,,,,0,99,99,47,1,,,,,,,,,,,,,,,,,,,,,,,,,,,,,,,,,,,,,,,,,,,,,,,,,,,,,,,,
,,,,,,,,,,,,l,0.75894,Incorrect,,,,,,t3.png,t4.png,1,0.909,21,female,2020-09-14_10h52.29.353,torte-2b,2020.1.3,Win32,60,12842,,,,,0,100,100,82,1,,,,,,,,,,,,,,,,,,,,,,,,,,,,,,,,,,,,,,,,,,,,,,,,,,,,,,,,
,,,,,,,,,,,,l,0.80803,Correct!,,,,,,t3.png,t5.png,2,0.0565,21,female,2020-09-14_10h52.29.353,torte-2b,2020.1.3,Win32,60,12842,,,,,0,101,101,83,1,,,,,,,,,,,,,,,,,,,,,,,,,,,,,,,,,,,,,,,,,,,,,,,,,,,,,,,,
,,,,,,,,,,,,l,0.584345,Correct!,,,,,,t4.png,t4.png,0,0.98115,21,female,2020-09-14_10h52.29.353,torte-2b,2020.1.3,Win32,60,12842,,,,,0,102,102,79,1,,,,,,,,,,,,,,,,,,,,,,,,,,,,,,,,,,,,,,,,,,,,,,,,,,,,,,,,
,,,,,,,,,,,,a,0.45069,Incorrect,,,,,,t3.png,t1.png,2,0.056466,21,female,2020-09-14_10h52.29.353,torte-2b,2020.1.3,Win32,60,12842,,,,,0,103,103,0,1,,,,,,,,,,,,,,,,,,,,,,,,,,,,,,,,,,,,,,,,,,,,,,,,,,,,,,,,
,,,,,,,,,,,,l,0.59482,Correct!,,,,,,t2.png,t4.png,2,0.059078,21,female,2020-09-14_10h52.29.353,torte-2b,2020.1.3,Win32,60,12842,,,,,0,104,104,11,1,,,,,,,,,,,,,,,,,,,,,,,,,,,,,,,,,,,,,,,,,,,,,,,,,,,,,,,,
,,,,,,,,,,,,l,0.54176,Correct!,,,,,,t1.png,t3.png,2,0.056466,21,female,2020-09-14_10h52.29.353,torte-2b,2020.1.3,Win32,60,12842,,,,,0,105,105,87,1,,,,,,,,,,,,,,,,,,,,,,,,,,,,,,,,,,,,,,,,,,,,,,,,,,,,,,,,
,,,,,,,,,,,,l,0.605525,Correct!,,,,,,t3.png,t5.png,2,0.056466,21,female,2020-09-14_10h52.29.353,torte-2b,2020.1.3,Win32,60,12842,,,,,0,106,106,14,1,,,,,,,,,,,,,,,,,,,,,,,,,,,,,,,,,,,,,,,,,,,,,,,,,,,,,,,,
,,,,,,,,,,,,a,0.88665,Correct!,,,,,,t4.png,t3.png,1,0.909,21,female,2020-09-14_10h52.29.353,torte-2b,2020.1.3,Win32,60,12842,,,,,0,107,107,20,1,,,,,,,,,,,,,,,,,,,,,,,,,,,,,,,,,,,,,,,,,,,,,,,,,,,,,,,,
,,,,,,,,,,,,l,0.49637,Incorrect,,,,,,t3.png,t4.png,1,0.90855,21,female,2020-09-14_10h52.29.353,torte-2b,2020.1.3,Win32,60,12842,,,,,0,108,108,96,1,,,,,,,,,,,,,,,,,,,,,,,,,,,,,,,,,,,,,,,,,,,,,,,,,,,,,,,,
,,,,,,,,,,,,a,0.512175,Incorrect,,,,,,t5.png,t2.png,3,0.0000131,21,female,2020-09-14_10h52.29.353,torte-2b,2020.1.3,Win32,60,12842,,,,,0,109,109,98,1,,,,,,,,,,,,,,,,,,,,,,,,,,,,,,,,,,,,,,,,,,,,,,,,,,,,,,,,
,,,,,,,,,,,,l,0.800195,Incorrect,,,,,,t4.png,t4.png,0,0.98115,21,female,2020-09-14_10h52.29.353,torte-2b,2020.1.3,Win32,60,12842,,,,,0,110,110,80,1,,,,,,,,,,,,,,,,,,,,,,,,,,,,,,,,,,,,,,,,,,,,,,,,,,,,,,,,
,,,,,,,,,,,,a,0.535475,Incorrect,,,,,,t4.png,t2.png,2,0.059078,21,female,2020-09-14_10h52.29.353,torte-2b,2020.1.3,Win32,60,12842,,,,,0,111,111,88,1,,,,,,,,,,,,,,,,,,,,,,,,,,,,,,,,,,,,,,,,,,,,,,,,,,,,,,,,
,,,,,,,,,,,,a,0.623055,Correct!,,,,,,t2.png,t1.png,1,0.90025,21,female,2020-09-14_10h52.29.353,torte-2b,2020.1.3,Win32,60,12842,,,,,0,112,112,19,1,,,,,,,,,,,,,,,,,,,,,,,,,,,,,,,,,,,,,,,,,,,,,,,,,,,,,,,,
,,,,,,,,,,,,l,0.7773,Correct!,,,,,,t4.png,t5.png,1,0.9,21,female,2020-09-14_10h52.29.353,torte-2b,2020.1.3,Win32,60,12842,,,,,0,113,113,115,1,,,,,,,,,,,,,,,,,,,,,,,,,,,,,,,,,,,,,,,,,,,,,,,,,,,,,,,,
,,,,,,,,,,,,l,0.54498,Correct!,,,,,,t1.png,t3.png,2,0.056466,21,female,2020-09-14_10h52.29.353,torte-2b,2020.1.3,Win32,60,12842,,,,,0,114,114,60,1,,,,,,,,,,,,,,,,,,,,,,,,,,,,,,,,,,,,,,,,,,,,,,,,,,,,,,,,
,,,,,,,,,,,,a,0.754345,Incorrect,,,,,,t5.png,t3.png,2,0.056466,21,female,2020-09-14_10h52.29.353,torte-2b,2020.1.3,Win32,60,12842,,,,,0,115,115,114,1,,,,,,,,,,,,,,,,,,,,,,,,,,,,,,,,,,,,,,,,,,,,,,,,,,,,,,,,
,,,,,,,,,,,,a,1.14141,Correct!,,,,,,t4.png,t3.png,1,0.90855,21,female,2020-09-14_10h52.29.353,torte-2b,2020.1.3,Win32,60,12842,,,,,0,116,116,45,1,,,,,,,,,,,,,,,,,,,,,,,,,,,,,,,,,,,,,,,,,,,,,,,,,,,,,,,,
,,,,,,,,,,,,l,0.654595,Correct!,,,,,,t1.png,t3.png,2,0.056466,21,female,2020-09-14_10h52.29.353,torte-2b,2020.1.3,Win32,60,12842,,,,,0,117,117,63,1,,,,,,,,,,,,,,,,,,,,,,,,,,,,,,,,,,,,,,,,,,,,,,,,,,,,,,,,
,,,,,,,,,,,,a,0.55,Incorrect,,,,,,t5.png,t2.png,3,0.0000131,21,female,2020-09-14_10h52.29.353,torte-2b,2020.1.3,Win32,60,12842,,,,,0,118,118,91,1,,,,,,,,,,,,,,,,,,,,,,,,,,,,,,,,,,,,,,,,,,,,,,,,,,,,,,,,
,,,,,,,,,,,,a,0.554875,Correct!,,,,,,t4.png,t3.png,1,0.909,21,female,2020-09-14_10h52.29.353,torte-2b,2020.1.3,Win32,60,12842,,,,,0,119,119,46,1,,,,,,,,,,,,,,,,,,,,,,,,,,,,,,,,,,,,,,,,,,,,,,,,,,,,,,,,
,,,,,,,,,,,,,,,,,,,,,,,,21,female,2020-09-14_10h52.29.353,torte-2b,2020.1.3,Win32,60,12842,space,2.01869,,,,,,,,space,41.36455,,0,0,0,0,1,6,,,,,,,,,,,,,,,,,,,,,,,,,,,,,,,,,,,,,,,,,,,,,,,
,,,,,,,,,,,,,,,,,,,,,,,,21,female,2020-09-14_10h52.29.353,torte-2b,2020.1.3,Win32,60,12842,,,,,,,,,,,,,0,1,1,1,1,7,,,,,,,,,,,,,,,,,,,,,,,,,,,,,,,,,,,,,,,,,,,,,,,
,,,,,,,,,,,,,,,,,,,,,,,,21,female,2020-09-14_10h52.29.353,torte-2b,2020.1.3,Win32,60,12842,,,,,,,,,,,,space,0,2,2,2,1,6,0.37465,,,,,,,,,,,,,,,,,,,,,,,,,,,,,,,,,,,,,,,,,,,,,,
,,,,,,,,,,,,,,,,,,,,,,,,21,female,2020-09-14_10h52.29.353,torte-2b,2020.1.3,Win32,60,12842,,,,,,,,,,,,space,0,3,3,3,1,7,1.01691,,,,,,,,,,,,,,,,,,,,,,,,,,,,,,,,,,,,,,,,,,,,,,
,,,,,,,,,,,,,,,,,,,,,,,,21,female,2020-09-14_10h52.29.353,torte-2b,2020.1.3,Win32,60,12842,,,,,,,,,,,,,0,4,4,4,1,5,,,,,,,,,,,,,,,,,,,,,,,,,,,,,,,,,,,,,,,,,,,,,,,
,,,,,,,,,,,,,,,,,,,,,,,,21,female,2020-09-14_10h52.29.353,torte-2b,2020.1.3,Win32,60,12842,,,,,,,,,,,,space,0,5,5,5,1,7,0.377835,,,,,,,,,,,,,,,,,,,,,,,,,,,,,,,,,,,,,,,,,,,,,,
,,,,,,,,,,,,,,,,,,,,,,,,21,female,2020-09-14_10h52.29.353,torte-2b,2020.1.3,Win32,60,12842,,,,,,,,,,,,,0,6,6,6,1,2,,,,,,,,,,,,,,,,,,,,,,,,,,,,,,,,,,,,,,,,,,,,,,,
,,,,,,,,,,,,,,,,,,,,,,,,21,female,2020-09-14_10h52.29.353,torte-2b,2020.1.3,Win32,60,12842,,,,,,,,,,,,,0,7,7,7,1,4,,,,,,,,,,,,,,,,,,,,,,,,,,,,,,,,,,,,,,,,,,,,,,,
,,,,,,,,,,,,,,,,,,,,,,,,21,female,2020-09-14_10h52.29.353,torte-2b,2020.1.3,Win32,60,12842,,,,,,,,,,,,,0,8,8,8,1,7,,,,,,,,,,,,,,,,,,,,,,,,,,,,,,,,,,,,,,,,,,,,,,,
,,,,,,,,,,,,,,,,,,,,,,,,21,female,2020-09-14_10h52.29.353,torte-2b,2020.1.3,Win32,60,12842,,,,,,,,,,,,space,0,9,9,9,1,4,0.42355,,,,,,,,,,,,,,,,,,,,,,,,,,,,,,,,,,,,,,,,,,,,,,
,,,,,,,,,,,,,,,,,,,,,,,,21,female,2020-09-14_10h52.29.353,torte-2b,2020.1.3,Win32,60,12842,,,,,,,,,,,,space,0,10,10,10,1,7,0.90414,,,,,,,,,,,,,,,,,,,,,,,,,,,,,,,,,,,,,,,,,,,,,,
,,,,,,,,,,,,,,,,,,,,,,,,21,female,2020-09-14_10h52.29.353,torte-2b,2020.1.3,Win32,60,12842,,,,,,,,,,,,space,0,11,11,11,1,7,0.444655,,,,,,,,,,,,,,,,,,,,,,,,,,,,,,,,,,,,,,,,,,,,,,
,,,,,,,,,,,,,,,,,,,,,,,,21,female,2020-09-14_10h52.29.353,torte-2b,2020.1.3,Win32,60,12842,,,,,,,,,,,,space,0,12,12,12,1,7,0.41301,,,,,,,,,,,,,,,,,,,,,,,,,,,,,,,,,,,,,,,,,,,,,,
,,,,,,,,,,,,,,,,,,,,,,,,21,female,2020-09-14_10h52.29.353,torte-2b,2020.1.3,Win32,60,12842,,,,,,,,,,,,space,0,13,13,13,1,4,0.64356,,,,,,,,,,,,,,,,,,,,,,,,,,,,,,,,,,,,,,,,,,,,,,
,,,,,,,,,,,,,,,,,,,,,,,,21,female,2020-09-14_10h52.29.353,torte-2b,2020.1.3,Win32,60,12842,,,,,,,,,,,,,0,14,14,14,1,6,,,,,,,,,,,,,,,,,,,,,,,,,,,,,,,,,,,,,,,,,,,,,,,
,,,,,,,,,,,,,,,,,,,,,,,,21,female,2020-09-14_10h52.29.353,torte-2b,2020.1.3,Win32,60,12842,,,,,,,,,,,,space,0,15,15,15,1,4,0.404825,,,,,,,,,,,,,,,,,,,,,,,,,,,,,,,,,,,,,,,,,,,,,,
,,,,,,,,,,,,,,,,,,,,,,,,21,female,2020-09-14_10h52.29.353,torte-2b,2020.1.3,Win32,60,12842,,,,,,,,,,,,space,0,16,16,16,1,6,0.390875,,,,,,,,,,,,,,,,,,,,,,,,,,,,,,,,,,,,,,,,,,,,,,
,,,,,,,,,,,,,,,,,,,,,,,,21,female,2020-09-14_10h52.29.353,torte-2b,2020.1.3,Win32,60,12842,,,,,,,,,,,,,0,17,17,17,1,7,,,,,,,,,,,,,,,,,,,,,,,,,,,,,,,,,,,,,,,,,,,,,,,
,,,,,,,,,,,,,,,,,,,,,,,,21,female,2020-09-14_10h52.29.353,torte-2b,2020.1.3,Win32,60,12842,,,,,,,,,,,,space,0,18,18,18,1,6,0.72795,,,,,,,,,,,,,,,,,,,,,,,,,,,,,,,,,,,,,,,,,,,,,,
,,,,,,,,,,,,,,,,,,,,,,,,21,female,2020-09-14_10h52.29.353,torte-2b,2020.1.3,Win32,60,12842,,,,,,,,,,,,space,0,19,19,19,1,7,0.79181,,,,,,,,,,,,,,,,,,,,,,,,,,,,,,,,,,,,,,,,,,,,,,
,,,,,,,,,,,,,,,,,,,,,,,,21,female,2020-09-14_10h52.29.353,torte-2b,2020.1.3,Win32,60,12842,,,,,,,,,,,,,0,20,20,20,1,5,,,,,,,,,,,,,,,,,,,,,,,,,,,,,,,,,,,,,,,,,,,,,,,
,,,,,,,,,,,,,,,,,,,,,,,,21,female,2020-09-14_10h52.29.353,torte-2b,2020.1.3,Win32,60,12842,,,,,,,,,,,,,0,21,21,21,1,1,,,,,,,,,,,,,,,,,,,,,,,,,,,,,,,,,,,,,,,,,,,,,,,
,,,,,,,,,,,,,,,,,,,,,,,,21,female,2020-09-14_10h52.29.353,torte-2b,2020.1.3,Win32,60,12842,,,,,,,,,,,,,0,22,22,22,1,6,,,,,,,,,,,,,,,,,,,,,,,,,,,,,,,,,,,,,,,,,,,,,,,
,,,,,,,,,,,,,,,,,,,,,,,,21,female,2020-09-14_10h52.29.353,torte-2b,2020.1.3,Win32,60,12842,,,,,,,,,,,,space,0,23,23,23,1,1,0.65962,,,,,,,,,,,,,,,,,,,,,,,,,,,,,,,,,,,,,,,,,,,,,,
,,,,,,,,,,,,,,,,,,,,,,,,21,female,2020-09-14_10h52.29.353,torte-2b,2020.1.3,Win32,60,12842,,,,,,,,,,,,,0,24,24,24,1,5,,,,,,,,,,,,,,,,,,,,,,,,,,,,,,,,,,,,,,,,,,,,,,,
,,,,,,,,,,,,,,,,,,,,,,,,21,female,2020-09-14_10h52.29.353,torte-2b,2020.1.3,Win32,60,12842,,,,,,,,,,,,space,0,25,25,25,1,6,0.47628,,,,,,,,,,,,,,,,,,,,,,,,,,,,,,,,,,,,,,,,,,,,,,
,,,,,,,,,,,,,,,,,,,,,,,,21,female,2020-09-14_10h52.29.353,torte-2b,2020.1.3,Win32,60,12842,,,,,,,,,,,,,0,26,26,26,1,6,,,,,,,,,,,,,,,,,,,,,,,,,,,,,,,,,,,,,,,,,,,,,,,
,,,,,,,,,,,,,,,,,,,,,,,,21,female,2020-09-14_10h52.29.353,torte-2b,2020.1.3,Win32,60,12842,,,,,,,,,,,,space,0,27,27,27,1,6,0.37917,,,,,,,,,,,,,,,,,,,,,,,,,,,,,,,,,,,,,,,,,,,,,,
,,,,,,,,,,,,,,,,,,,,,,,,21,female,2020-09-14_10h52.29.353,torte-2b,2020.1.3,Win32,60,12842,,,,,,,,,,,,,0,28,28,28,1,5,,,,,,,,,,,,,,,,,,,,,,,,,,,,,,,,,,,,,,,,,,,,,,,
,,,,,,,,,,,,,,,,,,,,,,,,21,female,2020-09-14_10h52.29.353,torte-2b,2020.1.3,Win32,60,12842,,,,,,,,,,,,,0,29,29,29,1,2,,,,,,,,,,,,,,,,,,,,,,,,,,,,,,,,,,,,,,,,,,,,,,,
,,,,,,,,,,,,,,,,,,,,,,,,21,female,2020-09-14_10h52.29.353,torte-2b,2020.1.3,Win32,60,12842,,,,,,,,,,,,space,0,30,30,30,1,5,0.36645,,,,,,,,,,,,,,,,,,,,,,,,,,,,,,,,,,,,,,,,,,,,,,
,,,,,,,,,,,,,,,,,,,,,,,,21,female,2020-09-14_10h52.29.353,torte-2b,2020.1.3,Win32,60,12842,,,,,,,,,,,,space,0,31,31,31,1,2,0.591665,,,,,,,,,,,,,,,,,,,,,,,,,,,,,,,,,,,,,,,,,,,,,,
,,,,,,,,,,,,,,,,,,,,,,,,21,female,2020-09-14_10h52.29.353,torte-2b,2020.1.3,Win32,60,12842,,,,,,,,,,,,space,0,32,32,32,1,5,0.567895,,,,,,,,,,,,,,,,,,,,,,,,,,,,,,,,,,,,,,,,,,,,,,
,,,,,,,,,,,,,,,,,,,,,,,,21,female,2020-09-14_10h52.29.353,torte-2b,2020.1.3,Win32,60,12842,,,,,,,,,,,,,0,33,33,33,1,1,,,,,,,,,,,,,,,,,,,,,,,,,,,,,,,,,,,,,,,,,,,,,,,
,,,,,,,,,,,,,,,,,,,,,,,,21,female,2020-09-14_10h52.29.353,torte-2b,2020.1.3,Win32,60,12842,,,,,,,,,,,,,0,34,34,34,1,1,,,,,,,,,,,,,,,,,,,,,,,,,,,,,,,,,,,,,,,,,,,,,,,
,,,,,,,,,,,,,,,,,,,,,,,,21,female,2020-09-14_10h52.29.353,torte-2b,2020.1.3,Win32,60,12842,,,,,,,,,,,,,,,,,,2,,0,0,0,0,1,,,,,,,,,,,,,,,,,,,,,,,,,,,,,,,,,,,,,,,,,
,,,,,,,,,,,,,,,,,,,,,,,,21,female,2020-09-14_10h52.29.353,torte-2b,2020.1.3,Win32,60,12842,,,,,,,,,,,,,,,,,,2,,0,1,1,1,1,,,,,,,,,,,,,,,,,,,,,,,,,,,,,,,,,,,,,,,,,
,,,,,,,,,,,,,,,,,,,,,,,,21,female,2020-09-14_10h52.29.353,torte-2b,2020.1.3,Win32,60,12842,,,,,,,,,,,,,,,,,,6,,0,2,2,2,1,,,,,,,,,,,,,,,,,,,,,,,,,,,,,,,,,,,,,,,,,
,,,,,,,,,,,,,,,,,,,,,,,,21,female,2020-09-14_10h52.29.353,torte-2b,2020.1.3,Win32,60,12842,,,,,,,,,,,,space,,,,,,2,0.586525,0,3,3,3,1,,,,,,,,,,,,,,,,,,,,,,,,,,,,,,,,,,,,,,,,,
,,,,,,,,,,,,,,,,,,,,,,,,21,female,2020-09-14_10h52.29.353,torte-2b,2020.1.3,Win32,60,12842,,,,,,,,,,,,space,,,,,,6,0.60136,0,4,4,4,1,,,,,,,,,,,,,,,,,,,,,,,,,,,,,,,,,,,,,,,,,
,,,,,,,,,,,,,,,,,,,,,,,,21,female,2020-09-14_10h52.29.353,torte-2b,2020.1.3,Win32,60,12842,,,,,,,,,,,,space,,,,,,2,0.53754,0,5,5,5,1,,,,,,,,,,,,,,,,,,,,,,,,,,,,,,,,,,,,,,,,,
,,,,,,,,,,,,,,,,,,,,,,,,21,female,2020-09-14_10h52.29.353,torte-2b,2020.1.3,Win32,60,12842,,,,,,,,,,,,,,,,,,7,,0,6,6,6,1,,,,,,,,,,,,,,,,,,,,,,,,,,,,,,,,,,,,,,,,,
,,,,,,,,,,,,,,,,,,,,,,,,21,female,2020-09-14_10h52.29.353,torte-2b,2020.1.3,Win32,60,12842,,,,,,,,,,,,space,,,,,,2,0.33931,0,7,7,7,1,,,,,,,,,,,,,,,,,,,,,,,,,,,,,,,,,,,,,,,,,
,,,,,,,,,,,,,,,,,,,,,,,,21,female,2020-09-14_10h52.29.353,torte-2b,2020.1.3,Win32,60,12842,,,,,,,,,,,,space,,,,,,7,0.6049,0,8,8,8,1,,,,,,,,,,,,,,,,,,,,,,,,,,,,,,,,,,,,,,,,,
,,,,,,,,,,,,,,,,,,,,,,,,21,female,2020-09-14_10h52.29.353,torte-2b,2020.1.3,Win32,60,12842,,,,,,,,,,,,space,,,,,,2,0.425855,0,9,9,9,1,,,,,,,,,,,,,,,,,,,,,,,,,,,,,,,,,,,,,,,,,
,,,,,,,,,,,,,,,,,,,,,,,,21,female,2020-09-14_10h52.29.353,torte-2b,2020.1.3,Win32,60,12842,,,,,,,,,,,,,,,,,,5,,0,10,10,10,1,,,,,,,,,,,,,,,,,,,,,,,,,,,,,,,,,,,,,,,,,
,,,,,,,,,,,,,,,,,,,,,,,,21,female,2020-09-14_10h52.29.353,torte-2b,2020.1.3,Win32,60,12842,,,,,,,,,,,,,,,,,,4,,0,11,11,11,1,,,,,,,,,,,,,,,,,,,,,,,,,,,,,,,,,,,,,,,,,
,,,,,,,,,,,,,,,,,,,,,,,,21,female,2020-09-14_10h52.29.353,torte-2b,2020.1.3,Win32,60,12842,,,,,,,,,,,,space,,,,,,5,0.421325,0,12,12,12,1,,,,,,,,,,,,,,,,,,,,,,,,,,,,,,,,,,,,,,,,,
,,,,,,,,,,,,,,,,,,,,,,,,21,female,2020-09-14_10h52.29.353,torte-2b,2020.1.3,Win32,60,12842,,,,,,,,,,,,,,,,,,6,,0,13,13,13,1,,,,,,,,,,,,,,,,,,,,,,,,,,,,,,,,,,,,,,,,,
,,,,,,,,,,,,,,,,,,,,,,,,21,female,2020-09-14_10h52.29.353,torte-2b,2020.1.3,Win32,60,12842,,,,,,,,,,,,space,,,,,,5,0.28598,0,14,14,14,1,,,,,,,,,,,,,,,,,,,,,,,,,,,,,,,,,,,,,,,,,
,,,,,,,,,,,,,,,,,,,,,,,,21,female,2020-09-14_10h52.29.353,torte-2b,2020.1.3,Win32,60,12842,,,,,,,,,,,,,,,,,,4,,0,15,15,15,1,,,,,,,,,,,,,,,,,,,,,,,,,,,,,,,,,,,,,,,,,
,,,,,,,,,,,,,,,,,,,,,,,,21,female,2020-09-14_10h52.29.353,torte-2b,2020.1.3,Win32,60,12842,,,,,,,,,,,,space,,,,,,5,0.466355,0,16,16,16,1,,,,,,,,,,,,,,,,,,,,,,,,,,,,,,,,,,,,,,,,,
,,,,,,,,,,,,,,,,,,,,,,,,21,female,2020-09-14_10h52.29.353,torte-2b,2020.1.3,Win32,60,12842,,,,,,,,,,,,,,,,,,3,,0,17,17,17,1,,,,,,,,,,,,,,,,,,,,,,,,,,,,,,,,,,,,,,,,,
,,,,,,,,,,,,,,,,,,,,,,,,21,female,2020-09-14_10h52.29.353,torte-2b,2020.1.3,Win32,60,12842,,,,,,,,,,,,,,,,,,6,,0,18,18,18,1,,,,,,,,,,,,,,,,,,,,,,,,,,,,,,,,,,,,,,,,,
,,,,,,,,,,,,,,,,,,,,,,,,21,female,2020-09-14_10h52.29.353,torte-2b,2020.1.3,Win32,60,12842,,,,,,,,,,,,space,,,,,,6,0.657785,0,19,19,19,1,,,,,,,,,,,,,,,,,,,,,,,,,,,,,,,,,,,,,,,,,
,,,,,,,,,,,,,,,,,,,,,,,,21,female,2020-09-14_10h52.29.353,torte-2b,2020.1.3,Win32,60,12842,,,,,,,,,,,,space,,,,,,6,0.50701,0,20,20,20,1,,,,,,,,,,,,,,,,,,,,,,,,,,,,,,,,,,,,,,,,,
,,,,,,,,,,,,,,,,,,,,,,,,21,female,2020-09-14_10h52.29.353,torte-2b,2020.1.3,Win32,60,12842,,,,,,,,,,,,,,,,,,4,,0,21,21,21,1,,,,,,,,,,,,,,,,,,,,,,,,,,,,,,,,,,,,,,,,,
,,,,,,,,,,,,,,,,,,,,,,,,21,female,2020-09-14_10h52.29.353,torte-2b,2020.1.3,Win32,60,12842,,,,,,,,,,,,space,,,,,,6,0.357405,0,22,22,22,1,,,,,,,,,,,,,,,,,,,,,,,,,,,,,,,,,,,,,,,,,
,,,,,,,,,,,,,,,,,,,,,,,,21,female,2020-09-14_10h52.29.353,torte-2b,2020.1.3,Win32,60,12842,,,,,,,,,,,,space,,,,,,4,0.871515,0,23,23,23,1,,,,,,,,,,,,,,,,,,,,,,,,,,,,,,,,,,,,,,,,,
,,,,,,,,,,,,,,,,,,,,,,,,21,female,2020-09-14_10h52.29.353,torte-2b,2020.1.3,Win32,60,12842,,,,,,,,,,,,,,,,,,6,,0,24,24,24,1,,,,,,,,,,,,,,,,,,,,,,,,,,,,,,,,,,,,,,,,,
,,,,,,,,,,,,,,,,,,,,,,,,21,female,2020-09-14_10h52.29.353,torte-2b,2020.1.3,Win32,60,12842,,,,,,,,,,,,space,,,,,,6,0.67546,0,25,25,25,1,,,,,,,,,,,,,,,,,,,,,,,,,,,,,,,,,,,,,,,,,
,,,,,,,,,,,,,,,,,,,,,,,,21,female,2020-09-14_10h52.29.353,torte-2b,2020.1.3,Win32,60,12842,,,,,,,,,,,,,,,,,,7,,0,26,26,26,1,,,,,,,,,,,,,,,,,,,,,,,,,,,,,,,,,,,,,,,,,
,,,,,,,,,,,,,,,,,,,,,,,,21,female,2020-09-14_10h52.29.353,torte-2b,2020.1.3,Win32,60,12842,,,,,,,,,,,,,,,,,,1,,0,27,27,27,1,,,,,,,,,,,,,,,,,,,,,,,,,,,,,,,,,,,,,,,,,
,,,,,,,,,,,,,,,,,,,,,,,,21,female,2020-09-14_10h52.29.353,torte-2b,2020.1.3,Win32,60,12842,,,,,,,,,,,,space,,,,,,7,0.58448,0,28,28,28,1,,,,,,,,,,,,,,,,,,,,,,,,,,,,,,,,,,,,,,,,,
,,,,,,,,,,,,,,,,,,,,,,,,21,female,2020-09-14_10h52.29.353,torte-2b,2020.1.3,Win32,60,12842,,,,,,,,,,,,,,,,,,4,,0,29,29,29,1,,,,,,,,,,,,,,,,,,,,,,,,,,,,,,,,,,,,,,,,,
,,,,,,,,,,,,,,,,,,,,,,,,21,female,2020-09-14_10h52.29.353,torte-2b,2020.1.3,Win32,60,12842,,,,,,,,,,,,,,,,,,7,,0,30,30,30,1,,,,,,,,,,,,,,,,,,,,,,,,,,,,,,,,,,,,,,,,,
,,,,,,,,,,,,,,,,,,,,,,,,21,female,2020-09-14_10h52.29.353,torte-2b,2020.1.3,Win32,60,12842,,,,,,,,,,,,,,,,,,3,,0,31,31,31,1,,,,,,,,,,,,,,,,,,,,,,,,,,,,,,,,,,,,,,,,,
,,,,,,,,,,,,,,,,,,,,,,,,21,female,2020-09-14_10h52.29.353,torte-2b,2020.1.3,Win32,60,12842,,,,,,,,,,,,,,,,,,2,,0,32,32,32,1,,,,,,,,,,,,,,,,,,,,,,,,,,,,,,,,,,,,,,,,,
,,,,,,,,,,,,,,,,,,,,,,,,21,female,2020-09-14_10h52.29.353,torte-2b,2020.1.3,Win32,60,12842,,,,,,,,,,,,,,,,,,6,,0,33,33,33,1,,,,,,,,,,,,,,,,,,,,,,,,,,,,,,,,,,,,,,,,,
,,,,,,,,,,,,,,,,,,,,,,,,21,female,2020-09-14_10h52.29.353,torte-2b,2020.1.3,Win32,60,12842,,,,,,,,,,,,space,,,,,,3,0.454285,0,34,34,34,1,,,,,,,,,,,,,,,,,,,,,,,,,,,,,,,,,,,,,,,,,
,,,,,,,,,,,,,,,,,,,,,,,,21,female,2020-09-14_10h52.29.353,torte-2b,2020.1.3,Win32,60,12842,,,,,,,,,,,,,,,,,,7,,,,,,,0,0,0,0,1,,,,,,,,,,,,,,,,,,,,,,,,,,,,,,,,,,,,
,,,,,,,,,,,,,,,,,,,,,,,,21,female,2020-09-14_10h52.29.353,torte-2b,2020.1.3,Win32,60,12842,,,,,,,,,,,,,,,,,,5,,,,,,,0,1,1,1,1,,,,,,,,,,,,,,,,,,,,,,,,,,,,,,,,,,,,
,,,,,,,,,,,,,,,,,,,,,,,,21,female,2020-09-14_10h52.29.353,torte-2b,2020.1.3,Win32,60,12842,,,,,,,,,,,,,,,,,,4,,,,,,,0,2,2,2,1,,,,,,,,,,,,,,,,,,,,,,,,,,,,,,,,,,,,
,,,,,,,,,,,,,,,,,,,,,,,,21,female,2020-09-14_10h52.29.353,torte-2b,2020.1.3,Win32,60,12842,,,,,,,,,,,,space,,,,,,5,0.370305,,,,,,0,3,3,3,1,,,,,,,,,,,,,,,,,,,,,,,,,,,,,,,,,,,,
,,,,,,,,,,,,,,,,,,,,,,,,21,female,2020-09-14_10h52.29.353,torte-2b,2020.1.3,Win32,60,12842,,,,,,,,,,,,,,,,,,6,,,,,,,0,4,4,4,1,,,,,,,,,,,,,,,,,,,,,,,,,,,,,,,,,,,,
,,,,,,,,,,,,,,,,,,,,,,,,21,female,2020-09-14_10h52.29.353,torte-2b,2020.1.3,Win32,60,12842,,,,,,,,,,,,,,,,,,5,,,,,,,0,5,5,5,1,,,,,,,,,,,,,,,,,,,,,,,,,,,,,,,,,,,,
,,,,,,,,,,,,,,,,,,,,,,,,21,female,2020-09-14_10h52.29.353,torte-2b,2020.1.3,Win32,60,12842,,,,,,,,,,,,,,,,,,3,,,,,,,0,6,6,6,1,,,,,,,,,,,,,,,,,,,,,,,,,,,,,,,,,,,,
,,,,,,,,,,,,,,,,,,,,,,,,21,female,2020-09-14_10h52.29.353,torte-2b,2020.1.3,Win32,60,12842,,,,,,,,,,,,,,,,,,4,,,,,,,0,7,7,7,1,,,,,,,,,,,,,,,,,,,,,,,,,,,,,,,,,,,,
,,,,,,,,,,,,,,,,,,,,,,,,21,female,2020-09-14_10h52.29.353,torte-2b,2020.1.3,Win32,60,12842,,,,,,,,,,,,space,,,,,,3,0.34979,,,,,,0,8,8,8,1,,,,,,,,,,,,,,,,,,,,,,,,,,,,,,,,,,,,
,,,,,,,,,,,,,,,,,,,,,,,,21,female,2020-09-14_10h52.29.353,torte-2b,2020.1.3,Win32,60,12842,,,,,,,,,,,,,,,,,,1,,,,,,,0,9,9,9,1,,,,,,,,,,,,,,,,,,,,,,,,,,,,,,,,,,,,
,,,,,,,,,,,,,,,,,,,,,,,,21,female,2020-09-14_10h52.29.353,torte-2b,2020.1.3,Win32,60,12842,,,,,,,,,,,,,,,,,,2,,,,,,,0,10,10,10,1,,,,,,,,,,,,,,,,,,,,,,,,,,,,,,,,,,,,
,,,,,,,,,,,,,,,,,,,,,,,,21,female,2020-09-14_10h52.29.353,torte-2b,2020.1.3,Win32,60,12842,,,,,,,,,,,,space,,,,,,1,0.52182,,,,,,0,11,11,11,1,,,,,,,,,,,,,,,,,,,,,,,,,,,,,,,,,,,,
,,,,,,,,,,,,,,,,,,,,,,,,21,female,2020-09-14_10h52.29.353,torte-2b,2020.1.3,Win32,60,12842,,,,,,,,,,,,space,,,,,,2,0.841995,,,,,,0,12,12,12,1,,,,,,,,,,,,,,,,,,,,,,,,,,,,,,,,,,,,
,,,,,,,,,,,,,,,,,,,,,,,,21,female,2020-09-14_10h52.29.353,torte-2b,2020.1.3,Win32,60,12842,,,,,,,,,,,,,,,,,,1,,,,,,,0,13,13,13,1,,,,,,,,,,,,,,,,,,,,,,,,,,,,,,,,,,,,
,,,,,,,,,,,,,,,,,,,,,,,,21,female,2020-09-14_10h52.29.353,torte-2b,2020.1.3,Win32,60,12842,,,,,,,,,,,,,,,,,,3,,,,,,,0,14,14,14,1,,,,,,,,,,,,,,,,,,,,,,,,,,,,,,,,,,,,
,,,,,,,,,,,,,,,,,,,,,,,,21,female,2020-09-14_10h52.29.353,torte-2b,2020.1.3,Win32,60,12842,,,,,,,,,,,,space,,,,,,1,0.346345,,,,,,0,15,15,15,1,,,,,,,,,,,,,,,,,,,,,,,,,,,,,,,,,,,,
,,,,,,,,,,,,,,,,,,,,,,,,21,female,2020-09-14_10h52.29.353,torte-2b,2020.1.3,Win32,60,12842,,,,,,,,,,,,,,,,,,7,,,,,,,0,16,16,16,1,,,,,,,,,,,,,,,,,,,,,,,,,,,,,,,,,,,,
,,,,,,,,,,,,,,,,,,,,,,,,21,female,2020-09-14_10h52.29.353,torte-2b,2020.1.3,Win32,60,12842,,,,,,,,,,,,,,,,,,7,,,,,,,0,17,17,17,1,,,,,,,,,,,,,,,,,,,,,,,,,,,,,,,,,,,,
,,,,,,,,,,,,,,,,,,,,,,,,21,female,2020-09-14_10h52.29.353,torte-2b,2020.1.3,Win32,60,12842,,,,,,,,,,,,,,,,,,4,,,,,,,0,18,18,18,1,,,,,,,,,,,,,,,,,,,,,,,,,,,,,,,,,,,,
,,,,,,,,,,,,,,,,,,,,,,,,21,female,2020-09-14_10h52.29.353,torte-2b,2020.1.3,Win32,60,12842,,,,,,,,,,,,space,,,,,,7,0.37653,,,,,,0,19,19,19,1,,,,,,,,,,,,,,,,,,,,,,,,,,,,,,,,,,,,
,,,,,,,,,,,,,,,,,,,,,,,,21,female,2020-09-14_10h52.29.353,torte-2b,2020.1.3,Win32,60,12842,,,,,,,,,,,,,,,,,,3,,,,,,,0,20,20,20,1,,,,,,,,,,,,,,,,,,,,,,,,,,,,,,,,,,,,
,,,,,,,,,,,,,,,,,,,,,,,,21,female,2020-09-14_10h52.29.353,torte-2b,2020.1.3,Win32,60,12842,,,,,,,,,,,,space,,,,,,7,0.387415,,,,,,0,21,21,21,1,,,,,,,,,,,,,,,,,,,,,,,,,,,,,,,,,,,,
,,,,,,,,,,,,,,,,,,,,,,,,21,female,2020-09-14_10h52.29.353,torte-2b,2020.1.3,Win32,60,12842,,,,,,,,,,,,space,,,,,,3,0.55073,,,,,,0,22,22,22,1,,,,,,,,,,,,,,,,,,,,,,,,,,,,,,,,,,,,
,,,,,,,,,,,,,,,,,,,,,,,,21,female,2020-09-14_10h52.29.353,torte-2b,2020.1.3,Win32,60,12842,,,,,,,,,,,,,,,,,,1,,,,,,,0,23,23,23,1,,,,,,,,,,,,,,,,,,,,,,,,,,,,,,,,,,,,
,,,,,,,,,,,,,,,,,,,,,,,,21,female,2020-09-14_10h52.29.353,torte-2b,2020.1.3,Win32,60,12842,,,,,,,,,,,,,,,,,,6,,,,,,,0,24,24,24,1,,,,,,,,,,,,,,,,,,,,,,,,,,,,,,,,,,,,
,,,,,,,,,,,,,,,,,,,,,,,,21,female,2020-09-14_10h52.29.353,torte-2b,2020.1.3,Win32,60,12842,,,,,,,,,,,,,,,,,,3,,,,,,,0,25,25,25,1,,,,,,,,,,,,,,,,,,,,,,,,,,,,,,,,,,,,
,,,,,,,,,,,,,,,,,,,,,,,,21,female,2020-09-14_10h52.29.353,torte-2b,2020.1.3,Win32,60,12842,,,,,,,,,,,,,,,,,,2,,,,,,,0,26,26,26,1,,,,,,,,,,,,,,,,,,,,,,,,,,,,,,,,,,,,
,,,,,,,,,,,,,,,,,,,,,,,,21,female,2020-09-14_10h52.29.353,torte-2b,2020.1.3,Win32,60,12842,,,,,,,,,,,,space,,,,,,3,0.511525,,,,,,0,27,27,27,1,,,,,,,,,,,,,,,,,,,,,,,,,,,,,,,,,,,,
,,,,,,,,,,,,,,,,,,,,,,,,21,female,2020-09-14_10h52.29.353,torte-2b,2020.1.3,Win32,60,12842,,,,,,,,,,,,,,,,,,1,,,,,,,0,28,28,28,1,,,,,,,,,,,,,,,,,,,,,,,,,,,,,,,,,,,,
,,,,,,,,,,,,,,,,,,,,,,,,21,female,2020-09-14_10h52.29.353,torte-2b,2020.1.3,Win32,60,12842,,,,,,,,,,,,space,,,,,,3,0.48867,,,,,,0,29,29,29,1,,,,,,,,,,,,,,,,,,,,,,,,,,,,,,,,,,,,
,,,,,,,,,,,,,,,,,,,,,,,,21,female,2020-09-14_10h52.29.353,torte-2b,2020.1.3,Win32,60,12842,,,,,,,,,,,,,,,,,,1,,,,,,,0,30,30,30,1,,,,,,,,,,,,,,,,,,,,,,,,,,,,,,,,,,,,
,,,,,,,,,,,,,,,,,,,,,,,,21,female,2020-09-14_10h52.29.353,torte-2b,2020.1.3,Win32,60,12842,,,,,,,,,,,,,,,,,,7,,,,,,,0,31,31,31,1,,,,,,,,,,,,,,,,,,,,,,,,,,,,,,,,,,,,
,,,,,,,,,,,,,,,,,,,,,,,,21,female,2020-09-14_10h52.29.353,torte-2b,2020.1.3,Win32,60,12842,,,,,,,,,,,,,,,,,,5,,,,,,,0,32,32,32,1,,,,,,,,,,,,,,,,,,,,,,,,,,,,,,,,,,,,
,,,,,,,,,,,,,,,,,,,,,,,,21,female,2020-09-14_10h52.29.353,torte-2b,2020.1.3,Win32,60,12842,,,,,,,,,,,,space,,,,,,7,0.634875,,,,,,0,33,33,33,1,,,,,,,,,,,,,,,,,,,,,,,,,,,,,,,,,,,,
,,,,,,,,,,,,,,,,,,,,,,,,21,female,2020-09-14_10h52.29.353,torte-2b,2020.1.3,Win32,60,12842,,,,,,,,,,,,,,,,,,2,,,,,,,0,34,34,34,1,,,,,,,,,,,,,,,,,,,,,,,,,,,,,,,,,,,,
,,,,,,,,,,,,,,,,,,,,,,,,21,female,2020-09-14_10h52.29.353,torte-2b,2020.1.3,Win32,60,12842,,,,,,,,,,,,,,,,,,3,,,,,,,,,,,,0,0,0,0,1,,,,,,,,,,,,,,,,,,,,,,,,,,,,,,,
,,,,,,,,,,,,,,,,,,,,,,,,21,female,2020-09-14_10h52.29.353,torte-2b,2020.1.3,Win32,60,12842,,,,,,,,,,,,,,,,,,7,,,,,,,,,,,,0,1,1,1,1,,,,,,,,,,,,,,,,,,,,,,,,,,,,,,,
,,,,,,,,,,,,,,,,,,,,,,,,21,female,2020-09-14_10h52.29.353,torte-2b,2020.1.3,Win32,60,12842,,,,,,,,,,,,,,,,,,7,,,,,,,,,,,,0,2,2,2,1,,,,,,,,,,,,,,,,,,,,,,,,,,,,,,,
,,,,,,,,,,,,,,,,,,,,,,,,21,female,2020-09-14_10h52.29.353,torte-2b,2020.1.3,Win32,60,12842,,,,,,,,,,,,,,,,,,4,,,,,,,,,,,,0,3,3,3,1,,,,,,,,,,,,,,,,,,,,,,,,,,,,,,,
,,,,,,,,,,,,,,,,,,,,,,,,21,female,2020-09-14_10h52.29.353,torte-2b,2020.1.3,Win32,60,12842,,,,,,,,,,,,,,,,,,5,,,,,,,,,,,,0,4,4,4,1,,,,,,,,,,,,,,,,,,,,,,,,,,,,,,,
,,,,,,,,,,,,,,,,,,,,,,,,21,female,2020-09-14_10h52.29.353,torte-2b,2020.1.3,Win32,60,12842,,,,,,,,,,,,space,,,,,,4,0.43271,,,,,,,,,,,0,5,5,5,1,,,,,,,,,,,,,,,,,,,,,,,,,,,,,,,
,,,,,,,,,,,,,,,,,,,,,,,,21,female,2020-09-14_10h52.29.353,torte-2b,2020.1.3,Win32,60,12842,,,,,,,,,,,,,,,,,,2,,,,,,,,,,,,0,6,6,6,1,,,,,,,,,,,,,,,,,,,,,,,,,,,,,,,
,,,,,,,,,,,,,,,,,,,,,,,,21,female,2020-09-14_10h52.29.353,torte-2b,2020.1.3,Win32,60,12842,,,,,,,,,,,,space,,,,,,4,1.21618,,,,,,,,,,,0,7,7,7,1,,,,,,,,,,,,,,,,,,,,,,,,,,,,,,,
,,,,,,,,,,,,,,,,,,,,,,,,21,female,2020-09-14_10h52.29.353,torte-2b,2020.1.3,Win32,60,12842,,,,,,,,,,,,space,,,,,,2,0.69277,,,,,,,,,,,0,8,8,8,1,,,,,,,,,,,,,,,,,,,,,,,,,,,,,,,
,,,,,,,,,,,,,,,,,,,,,,,,21,female,2020-09-14_10h52.29.353,torte-2b,2020.1.3,Win32,60,12842,,,,,,,,,,,,space,,,,,,2,0.44262,,,,,,,,,,,0,9,9,9,1,,,,,,,,,,,,,,,,,,,,,,,,,,,,,,,
,,,,,,,,,,,,,,,,,,,,,,,,21,female,2020-09-14_10h52.29.353,torte-2b,2020.1.3,Win32,60,12842,,,,,,,,,,,,,,,,,,6,,,,,,,,,,,,0,10,10,10,1,,,,,,,,,,,,,,,,,,,,,,,,,,,,,,,
,,,,,,,,,,,,,,,,,,,,,,,,21,female,2020-09-14_10h52.29.353,torte-2b,2020.1.3,Win32,60,12842,,,,,,,,,,,,space,,,,,,2,0.632805,,,,,,,,,,,0,11,11,11,1,,,,,,,,,,,,,,,,,,,,,,,,,,,,,,,
,,,,,,,,,,,,,,,,,,,,,,,,21,female,2020-09-14_10h52.29.353,torte-2b,2020.1.3,Win32,60,12842,,,,,,,,,,,,space,,,,,,2,0.603565,,,,,,,,,,,0,12,12,12,1,,,,,,,,,,,,,,,,,,,,,,,,,,,,,,,
,,,,,,,,,,,,,,,,,,,,,,,,21,female,2020-09-14_10h52.29.353,torte-2b,2020.1.3,Win32,60,12842,,,,,,,,,,,,space,,,,,,2,1.244045,,,,,,,,,,,0,13,13,13,1,,,,,,,,,,,,,,,,,,,,,,,,,,,,,,,
,,,,,,,,,,,,,,,,,,,,,,,,21,female,2020-09-14_10h52.29.353,torte-2b,2020.1.3,Win32,60,12842,,,,,,,,,,,,space,,,,,,2,0.9349,,,,,,,,,,,0,14,14,14,1,,,,,,,,,,,,,,,,,,,,,,,,,,,,,,,
,,,,,,,,,,,,,,,,,,,,,,,,21,female,2020-09-14_10h52.29.353,torte-2b,2020.1.3,Win32,60,12842,,,,,,,,,,,,,,,,,,4,,,,,,,,,,,,0,15,15,15,1,,,,,,,,,,,,,,,,,,,,,,,,,,,,,,,
,,,,,,,,,,,,,,,,,,,,,,,,21,female,2020-09-14_10h52.29.353,torte-2b,2020.1.3,Win32,60,12842,,,,,,,,,,,,,,,,,,3,,,,,,,,,,,,0,16,16,16,1,,,,,,,,,,,,,,,,,,,,,,,,,,,,,,,
,,,,,,,,,,,,,,,,,,,,,,,,21,female,2020-09-14_10h52.29.353,torte-2b,2020.1.3,Win32,60,12842,,,,,,,,,,,,,,,,,,7,,,,,,,,,,,,0,17,17,17,1,,,,,,,,,,,,,,,,,,,,,,,,,,,,,,,
,,,,,,,,,,,,,,,,,,,,,,,,21,female,2020-09-14_10h52.29.353,torte-2b,2020.1.3,Win32,60,12842,,,,,,,,,,,,,,,,,,4,,,,,,,,,,,,0,18,18,18,1,,,,,,,,,,,,,,,,,,,,,,,,,,,,,,,
,,,,,,,,,,,,,,,,,,,,,,,,21,female,2020-09-14_10h52.29.353,torte-2b,2020.1.3,Win32,60,12842,,,,,,,,,,,,space,,,,,,7,0.38586,,,,,,,,,,,0,19,19,19,1,,,,,,,,,,,,,,,,,,,,,,,,,,,,,,,
,,,,,,,,,,,,,,,,,,,,,,,,21,female,2020-09-14_10h52.29.353,torte-2b,2020.1.3,Win32,60,12842,,,,,,,,,,,,,,,,,,7,,,,,,,,,,,,0,20,20,20,1,,,,,,,,,,,,,,,,,,,,,,,,,,,,,,,
,,,,,,,,,,,,,,,,,,,,,,,,21,female,2020-09-14_10h52.29.353,torte-2b,2020.1.3,Win32,60,12842,,,,,,,,,,,,,,,,,,7,,,,,,,,,,,,0,21,21,21,1,,,,,,,,,,,,,,,,,,,,,,,,,,,,,,,
,,,,,,,,,,,,,,,,,,,,,,,,21,female,2020-09-14_10h52.29.353,torte-2b,2020.1.3,Win32,60,12842,,,,,,,,,,,,space,,,,,,7,0.36649,,,,,,,,,,,0,22,22,22,1,,,,,,,,,,,,,,,,,,,,,,,,,,,,,,,
,,,,,,,,,,,,,,,,,,,,,,,,21,female,2020-09-14_10h52.29.353,torte-2b,2020.1.3,Win32,60,12842,,,,,,,,,,,,,,,,,,1,,,,,,,,,,,,0,23,23,23,1,,,,,,,,,,,,,,,,,,,,,,,,,,,,,,,
,,,,,,,,,,,,,,,,,,,,,,,,21,female,2020-09-14_10h52.29.353,torte-2b,2020.1.3,Win32,60,12842,,,,,,,,,,,,space,,,,,,7,0.468925,,,,,,,,,,,0,24,24,24,1,,,,,,,,,,,,,,,,,,,,,,,,,,,,,,,
,,,,,,,,,,,,,,,,,,,,,,,,21,female,2020-09-14_10h52.29.353,torte-2b,2020.1.3,Win32,60,12842,,,,,,,,,,,,space,,,,,,1,0.382915,,,,,,,,,,,0,25,25,25,1,,,,,,,,,,,,,,,,,,,,,,,,,,,,,,,
,,,,,,,,,,,,,,,,,,,,,,,,21,female,2020-09-14_10h52.29.353,torte-2b,2020.1.3,Win32,60,12842,,,,,,,,,,,,space,,,,,,7,0.42108,,,,,,,,,,,0,26,26,26,1,,,,,,,,,,,,,,,,,,,,,,,,,,,,,,,
,,,,,,,,,,,,,,,,,,,,,,,,21,female,2020-09-14_10h52.29.353,torte-2b,2020.1.3,Win32,60,12842,,,,,,,,,,,,,,,,,,2,,,,,,,,,,,,0,27,27,27,1,,,,,,,,,,,,,,,,,,,,,,,,,,,,,,,
,,,,,,,,,,,,,,,,,,,,,,,,21,female,2020-09-14_10h52.29.353,torte-2b,2020.1.3,Win32,60,12842,,,,,,,,,,,,,,,,,,5,,,,,,,,,,,,0,28,28,28,1,,,,,,,,,,,,,,,,,,,,,,,,,,,,,,,
,,,,,,,,,,,,,,,,,,,,,,,,21,female,2020-09-14_10h52.29.353,torte-2b,2020.1.3,Win32,60,12842,,,,,,,,,,,,,,,,,,5,,,,,,,,,,,,0,29,29,29,1,,,,,,,,,,,,,,,,,,,,,,,,,,,,,,,
,,,,,,,,,,,,,,,,,,,,,,,,21,female,2020-09-14_10h52.29.353,torte-2b,2020.1.3,Win32,60,12842,,,,,,,,,,,,space,,,,,,5,0.443805,,,,,,,,,,,0,30,30,30,1,,,,,,,,,,,,,,,,,,,,,,,,,,,,,,,
,,,,,,,,,,,,,,,,,,,,,,,,21,female,2020-09-14_10h52.29.353,torte-2b,2020.1.3,Win32,60,12842,,,,,,,,,,,,,,,,,,1,,,,,,,,,,,,0,31,31,31,1,,,,,,,,,,,,,,,,,,,,,,,,,,,,,,,
,,,,,,,,,,,,,,,,,,,,,,,,21,female,2020-09-14_10h52.29.353,torte-2b,2020.1.3,Win32,60,12842,,,,,,,,,,,,space,,,,,,5,0.5167,,,,,,,,,,,0,32,32,32,1,,,,,,,,,,,,,,,,,,,,,,,,,,,,,,,
,,,,,,,,,,,,,,,,,,,,,,,,21,female,2020-09-14_10h52.29.353,torte-2b,2020.1.3,Win32,60,12842,,,,,,,,,,,,,,,,,,3,,,,,,,,,,,,0,33,33,33,1,,,,,,,,,,,,,,,,,,,,,,,,,,,,,,,
,,,,,,,,,,,,,,,,,,,,,,,,21,female,2020-09-14_10h52.29.353,torte-2b,2020.1.3,Win32,60,12842,,,,,,,,,,,,,,,,,,3,,,,,,,,,,,,0,34,34,34,1,,,,,,,,,,,,,,,,,,,,,,,,,,,,,,,
,,,,,,,,,,,,a,1.440605,Incorrect,,,,,,t5.png,t1.png,4,9.55E-11,21,female,2020-09-14_10h52.29.353,torte-2b,2020.1.3,Win32,60,12842,space,1.917195,,,,,,,,,,,,,,,,,,,,,,,,,,,,,,,,,space,11.16193,0,0,0,100,1,,,,,,,,,,,,,,,,,,,,,,,,
,,,,,,,,,,,,a,2.37598,Incorrect,,,,,,t4.png,t1.png,3,0.0000131,21,female,2020-09-14_10h52.29.353,torte-2b,2020.1.3,Win32,60,12842,,,,,,,,,,,,,,,,,,,,,,,,,,,,,,,,,,,,,0,1,1,93,1,,,,,,,,,,,,,,,,,,,,,,,,
,,,,,,,,,,,,a,1.487085,Incorrect,,,,,,t3.png,t1.png,2,0.0565,21,female,2020-09-14_10h52.29.353,torte-2b,2020.1.3,Win32,60,12842,,,,,,,,,,,,,,,,,,,,,,,,,,,,,,,,,,,,,0,2,2,31,1,,,,,,,,,,,,,,,,,,,,,,,,
,,,,,,,,,,,,a,1.08316,Incorrect,,,,,,t5.png,t2.png,3,0.0000131,21,female,2020-09-14_10h52.29.353,torte-2b,2020.1.3,Win32,60,12842,,,,,,,,,,,,,,,,,,,,,,,,,,,,,,,,,,,,,0,3,3,91,1,,,,,,,,,,,,,,,,,,,,,,,,
,,,,,,,,,,,,l,0.80178,Correct!,,,,,,t2.png,t4.png,2,0.059078,21,female,2020-09-14_10h52.29.353,torte-2b,2020.1.3,Win32,60,12842,,,,,,,,,,,,,,,,,,,,,,,,,,,,,,,,,,,,,0,4,4,11,1,,,,,,,,,,,,,,,,,,,,,,,,
,,,,,,,,,,,,a,1.753355,Correct!,,,,,,t2.png,t1.png,1,0.90025,21,female,2020-09-14_10h52.29.353,torte-2b,2020.1.3,Win32,60,12842,,,,,,,,,,,,,,,,,,,,,,,,,,,,,,,,,,,,,0,5,5,62,1,,,,,,,,,,,,,,,,,,,,,,,,
,,,,,,,,,,,,a,1.53833,Incorrect,,,,,,t4.png,t2.png,2,0.0591,21,female,2020-09-14_10h52.29.353,torte-2b,2020.1.3,Win32,60,12842,,,,,,,,,,,,,,,,,,,,,,,,,,,,,,,,,,,,,0,6,6,36,1,,,,,,,,,,,,,,,,,,,,,,,,
,,,,,,,,,,,,l,0.519395,Correct!,,,,,,t1.png,t5.png,4,9.55E-11,21,female,2020-09-14_10h52.29.353,torte-2b,2020.1.3,Win32,60,12842,,,,,,,,,,,,,,,,,,,,,,,,,,,,,,,,,,,,,0,7,7,55,1,,,,,,,,,,,,,,,,,,,,,,,,
,,,,,,,,,,,,l,0.335545,Incorrect,,,,,,t5.png,t4.png,1,0.9,21,female,2020-09-14_10h52.29.353,torte-2b,2020.1.3,Win32,60,12842,,,,,,,,,,,,,,,,,,,,,,,,,,,,,,,,,,,,,0,8,8,49,1,,,,,,,,,,,,,,,,,,,,,,,,
,,,,,,,,,,,,a,0.292335,Incorrect,,,,,,t1.png,t4.png,3,0.0000131,21,female,2020-09-14_10h52.29.353,torte-2b,2020.1.3,Win32,60,12842,,,,,,,,,,,,,,,,,,,,,,,,,,,,,,,,,,,,,0,9,9,92,1,,,,,,,,,,,,,,,,,,,,,,,,
,,,,,,,,,,,,a,0.321685,Incorrect,,,,,,t5.png,t1.png,4,9.55E-11,21,female,2020-09-14_10h52.29.353,torte-2b,2020.1.3,Win32,60,12842,,,,,,,,,,,,,,,,,,,,,,,,,,,,,,,,,,,,,0,10,10,43,1,,,,,,,,,,,,,,,,,,,,,,,,
,,,,,,,,,,,,l,0.333605,Incorrect,,,,,,t3.png,t4.png,1,0.909,21,female,2020-09-14_10h52.29.353,torte-2b,2020.1.3,Win32,60,12842,,,,,,,,,,,,,,,,,,,,,,,,,,,,,,,,,,,,,0,11,11,106,1,,,,,,,,,,,,,,,,,,,,,,,,
,,,,,,,,,,,,l,0.294315,Correct!,,,,,,t4.png,t3.png,1,0.909,21,female,2020-09-14_10h52.29.353,torte-2b,2020.1.3,Win32,60,12842,,,,,,,,,,,,,,,,,,,,,,,,,,,,,,,,,,,,,0,12,12,20,1,,,,,,,,,,,,,,,,,,,,,,,,
,,,,,,,,,,,,a,0.27692,Incorrect,,,,,,t3.png,t5.png,2,0.0565,21,female,2020-09-14_10h52.29.353,torte-2b,2020.1.3,Win32,60,12842,,,,,,,,,,,,,,,,,,,,,,,,,,,,,,,,,,,,,0,13,13,30,1,,,,,,,,,,,,,,,,,,,,,,,,
,,,,,,,,,,,,a,0.55192,Incorrect,,,,,,t4.png,t2.png,2,0.059078,21,female,2020-09-14_10h52.29.353,torte-2b,2020.1.3,Win32,60,12842,,,,,,,,,,,,,,,,,,,,,,,,,,,,,,,,,,,,,0,14,14,88,1,,,,,,,,,,,,,,,,,,,,,,,,
,,,,,,,,,,,,a,0.66823,Incorrect,,,,,,t5.png,t3.png,2,0.056466,21,female,2020-09-14_10h52.29.353,torte-2b,2020.1.3,Win32,60,12842,,,,,,,,,,,,,,,,,,,,,,,,,,,,,,,,,,,,,0,15,15,38,1,,,,,,,,,,,,,,,,,,,,,,,,
,,,,,,,,,,,,l,0.840255,Incorrect,,,,,,t2.png,t2.png,0,0.981,21,female,2020-09-14_10h52.29.353,torte-2b,2020.1.3,Win32,60,12842,,,,,,,,,,,,,,,,,,,,,,,,,,,,,,,,,,,,,0,16,16,101,1,,,,,,,,,,,,,,,,,,,,,,,,
,,,,,,,,,,,,l,0.383495,Correct!,,,,,,t1.png,t4.png,3,0.0000131,21,female,2020-09-14_10h52.29.353,torte-2b,2020.1.3,Win32,60,12842,,,,,,,,,,,,,,,,,,,,,,,,,,,,,,,,,,,,,0,17,17,81,1,,,,,,,,,,,,,,,,,,,,,,,,
,,,,,,,,,,,,a,0.55178,Correct!,,,,,,t3.png,t2.png,1,0.90855,21,female,2020-09-14_10h52.29.353,torte-2b,2020.1.3,Win32,60,12842,,,,,,,,,,,,,,,,,,,,,,,,,,,,,,,,,,,,,0,18,18,53,1,,,,,,,,,,,,,,,,,,,,,,,,
,,,,,,,,,,,,l,0.516645,Incorrect,,,,,,t3.png,t4.png,1,0.909,21,female,2020-09-14_10h52.29.353,torte-2b,2020.1.3,Win32,60,12842,,,,,,,,,,,,,,,,,,,,,,,,,,,,,,,,,,,,,0,19,19,89,1,,,,,,,,,,,,,,,,,,,,,,,,
,,,,,,,,,,,,a,0.5756,Incorrect,,,,,,t5.png,t4.png,1,0.9,21,female,2020-09-14_10h52.29.353,torte-2b,2020.1.3,Win32,60,12842,,,,,,,,,,,,,,,,,,,,,,,,,,,,,,,,,,,,,0,20,20,76,1,,,,,,,,,,,,,,,,,,,,,,,,
,,,,,,,,,,,,l,0.531,Correct!,,,,,,t3.png,t5.png,2,0.056466,21,female,2020-09-14_10h52.29.353,torte-2b,2020.1.3,Win32,60,12842,,,,,,,,,,,,,,,,,,,,,,,,,,,,,,,,,,,,,0,21,21,6,1,,,,,,,,,,,,,,,,,,,,,,,,
,,,,,,,,,,,,l,0.574115,Incorrect,,,,,,t1.png,t2.png,1,0.90025,21,female,2020-09-14_10h52.29.353,torte-2b,2020.1.3,Win32,60,12842,,,,,,,,,,,,,,,,,,,,,,,,,,,,,,,,,,,,,0,22,22,112,1,,,,,,,,,,,,,,,,,,,,,,,,
,,,,,,,,,,,,a,0.51669,Incorrect,,,,,,t5.png,t2.png,3,0.0000131,21,female,2020-09-14_10h52.29.353,torte-2b,2020.1.3,Win32,60,12842,,,,,,,,,,,,,,,,,,,,,,,,,,,,,,,,,,,,,0,23,23,51,1,,,,,,,,,,,,,,,,,,,,,,,,
,,,,,,,,,,,,l,0.650695,Incorrect,,,,,,t1.png,t1.png,0,0.978,21,female,2020-09-14_10h52.29.353,torte-2b,2020.1.3,Win32,60,12842,,,,,,,,,,,,,,,,,,,,,,,,,,,,,,,,,,,,,0,24,24,28,1,,,,,,,,,,,,,,,,,,,,,,,,
,,,,,,,,,,,,a,0.37248,Incorrect,,,,,,t4.png,t1.png,3,0.0000131,21,female,2020-09-14_10h52.29.353,torte-2b,2020.1.3,Win32,60,12842,,,,,,,,,,,,,,,,,,,,,,,,,,,,,,,,,,,,,0,25,25,13,1,,,,,,,,,,,,,,,,,,,,,,,,
,,,,,,,,,,,,a,0.795085,Correct!,,,,,,t4.png,t3.png,1,0.909,21,female,2020-09-14_10h52.29.353,torte-2b,2020.1.3,Win32,60,12842,,,,,,,,,,,,,,,,,,,,,,,,,,,,,,,,,,,,,0,26,26,46,1,,,,,,,,,,,,,,,,,,,,,,,,
,,,,,,,,,,,,l,1.235895,Incorrect,,,,,,t4.png,t4.png,0,0.98115,21,female,2020-09-14_10h52.29.353,torte-2b,2020.1.3,Win32,60,12842,,,,,,,,,,,,,,,,,,,,,,,,,,,,,,,,,,,,,0,27,27,79,1,,,,,,,,,,,,,,,,,,,,,,,,
,,,,,,,,,,,,l,0.62918,Correct!,,,,,,t1.png,t5.png,4,9.55E-11,21,female,2020-09-14_10h52.29.353,torte-2b,2020.1.3,Win32,60,12842,,,,,,,,,,,,,,,,,,,,,,,,,,,,,,,,,,,,,0,28,28,12,1,,,,,,,,,,,,,,,,,,,,,,,,
,,,,,,,,,,,,a,0.600245,Correct!,,,,,,t2.png,t1.png,1,0.90025,21,female,2020-09-14_10h52.29.353,torte-2b,2020.1.3,Win32,60,12842,,,,,,,,,,,,,,,,,,,,,,,,,,,,,,,,,,,,,0,29,29,19,1,,,,,,,,,,,,,,,,,,,,,,,,
,,,,,,,,,,,,a,0.45026,Incorrect,,,,,,t4.png,t1.png,3,0.0000131,21,female,2020-09-14_10h52.29.353,torte-2b,2020.1.3,Win32,60,12842,,,,,,,,,,,,,,,,,,,,,,,,,,,,,,,,,,,,,0,30,30,48,1,,,,,,,,,,,,,,,,,,,,,,,,
,,,,,,,,,,,,a,0.730725,Correct!,,,,,,t2.png,t1.png,1,0.9,21,female,2020-09-14_10h52.29.353,torte-2b,2020.1.3,Win32,60,12842,,,,,,,,,,,,,,,,,,,,,,,,,,,,,,,,,,,,,0,31,31,118,1,,,,,,,,,,,,,,,,,,,,,,,,
,,,,,,,,,,,,l,0.486155,Correct!,,,,,,t2.png,t5.png,3,0.0000131,21,female,2020-09-14_10h52.29.353,torte-2b,2020.1.3,Win32,60,12842,,,,,,,,,,,,,,,,,,,,,,,,,,,,,,,,,,,,,0,32,32,95,1,,,,,,,,,,,,,,,,,,,,,,,,
,,,,,,,,,,,,a,0.57339,Incorrect,,,,,,t3.png,t1.png,2,0.056466,21,female,2020-09-14_10h52.29.353,torte-2b,2020.1.3,Win32,60,12842,,,,,,,,,,,,,,,,,,,,,,,,,,,,,,,,,,,,,0,33,33,32,1,,,,,,,,,,,,,,,,,,,,,,,,
,,,,,,,,,,,,l,0.602175,Correct!,,,,,,t4.png,t5.png,1,0.90025,21,female,2020-09-14_10h52.29.353,torte-2b,2020.1.3,Win32,60,12842,,,,,,,,,,,,,,,,,,,,,,,,,,,,,,,,,,,,,0,34,34,58,1,,,,,,,,,,,,,,,,,,,,,,,,
,,,,,,,,,,,,l,0.56614,Incorrect,,,,,,t5.png,t5.png,0,0.97829,21,female,2020-09-14_10h52.29.353,torte-2b,2020.1.3,Win32,60,12842,,,,,,,,,,,,,,,,,,,,,,,,,,,,,,,,,,,,,0,35,35,94,1,,,,,,,,,,,,,,,,,,,,,,,,
,,,,,,,,,,,,l,0.85708,Incorrect,,,,,,t4.png,t4.png,0,0.98115,21,female,2020-09-14_10h52.29.353,torte-2b,2020.1.3,Win32,60,12842,,,,,,,,,,,,,,,,,,,,,,,,,,,,,,,,,,,,,0,36,36,80,1,,,,,,,,,,,,,,,,,,,,,,,,
,,,,,,,,,,,,l,0.62642,Correct!,,,,,,t2.png,t5.png,3,0.0000131,21,female,2020-09-14_10h52.29.353,torte-2b,2020.1.3,Win32,60,12842,,,,,,,,,,,,,,,,,,,,,,,,,,,,,,,,,,,,,0,37,37,66,1,,,,,,,,,,,,,,,,,,,,,,,,
,,,,,,,,,,,,l,0.46845,Correct!,,,,,,t2.png,t4.png,2,0.059078,21,female,2020-09-14_10h52.29.353,torte-2b,2020.1.3,Win32,60,12842,,,,,,,,,,,,,,,,,,,,,,,,,,,,,,,,,,,,,0,38,38,24,1,,,,,,,,,,,,,,,,,,,,,,,,
,,,,,,,,,,,,a,0.47796,Correct!,,,,,,t4.png,t3.png,1,0.90855,21,female,2020-09-14_10h52.29.353,torte-2b,2020.1.3,Win32,60,12842,,,,,,,,,,,,,,,,,,,,,,,,,,,,,,,,,,,,,0,39,39,35,1,,,,,,,,,,,,,,,,,,,,,,,,
,,,,,,,,,,,,a,0.56131,Incorrect,,,,,,t3.png,t1.png,2,0.056466,21,female,2020-09-14_10h52.29.353,torte-2b,2020.1.3,Win32,60,12842,,,,,,,,,,,,,,,,,,,,,,,,,,,,,,,,,,,,,0,40,40,29,1,,,,,,,,,,,,,,,,,,,,,,,,
,,,,,,,,,,,,a,0.449645,Incorrect,,,,,,t4.png,t2.png,2,0.059078,21,female,2020-09-14_10h52.29.353,torte-2b,2020.1.3,Win32,60,12842,,,,,,,,,,,,,,,,,,,,,,,,,,,,,,,,,,,,,0,41,41,110,1,,,,,,,,,,,,,,,,,,,,,,,,
,,,,,,,,,,,,l,0.518325,Incorrect,,,,,,t2.png,t3.png,1,0.90855,21,female,2020-09-14_10h52.29.353,torte-2b,2020.1.3,Win32,60,12842,,,,,,,,,,,,,,,,,,,,,,,,,,,,,,,,,,,,,0,42,42,111,1,,,,,,,,,,,,,,,,,,,,,,,,
,,,,,,,,,,,,l,0.94016,Incorrect,,,,,,t2.png,t2.png,0,0.98115,21,female,2020-09-14_10h52.29.353,torte-2b,2020.1.3,Win32,60,12842,,,,,,,,,,,,,,,,,,,,,,,,,,,,,,,,,,,,,0,43,43,7,1,,,,,,,,,,,,,,,,,,,,,,,,
,,,,,,,,,,,,a,0.691875,Incorrect,,,,,,t5.png,t1.png,4,9.55E-11,21,female,2020-09-14_10h52.29.353,torte-2b,2020.1.3,Win32,60,12842,,,,,,,,,,,,,,,,,,,,,,,,,,,,,,,,,,,,,0,44,44,102,1,,,,,,,,,,,,,,,,,,,,,,,,
,,,,,,,,,,,,l,0.951895,Correct!,,,,,,t5.png,t2.png,3,0.0000131,21,female,2020-09-14_10h52.29.353,torte-2b,2020.1.3,Win32,60,12842,,,,,,,,,,,,,,,,,,,,,,,,,,,,,,,,,,,,,0,45,45,98,1,,,,,,,,,,,,,,,,,,,,,,,,
,,,,,,,,,,,,a,0.350215,Correct!,,,,,,t5.png,t4.png,1,0.90025,21,female,2020-09-14_10h52.29.353,torte-2b,2020.1.3,Win32,60,12842,,,,,,,,,,,,,,,,,,,,,,,,,,,,,,,,,,,,,0,46,46,27,1,,,,,,,,,,,,,,,,,,,,,,,,
,,,,,,,,,,,,l,0.566785,Correct!,,,,,,t1.png,t3.png,2,0.056466,21,female,2020-09-14_10h52.29.353,torte-2b,2020.1.3,Win32,60,12842,,,,,,,,,,,,,,,,,,,,,,,,,,,,,,,,,,,,,0,47,47,99,1,,,,,,,,,,,,,,,,,,,,,,,,
,,,,,,,,,,,,l,0.568985,Incorrect,,,,,,t3.png,t4.png,1,0.909,21,female,2020-09-14_10h52.29.353,torte-2b,2020.1.3,Win32,60,12842,,,,,,,,,,,,,,,,,,,,,,,,,,,,,,,,,,,,,0,48,48,82,1,,,,,,,,,,,,,,,,,,,,,,,,
,,,,,,,,,,,,l,0.643015,Correct!,,,,,,t4.png,t5.png,1,0.90025,21,female,2020-09-14_10h52.29.353,torte-2b,2020.1.3,Win32,60,12842,,,,,,,,,,,,,,,,,,,,,,,,,,,,,,,,,,,,,0,49,49,113,1,,,,,,,,,,,,,,,,,,,,,,,,
,,,,,,,,,,,,l,0.71918,Incorrect,,,,,,t1.png,t1.png,0,0.97829,21,female,2020-09-14_10h52.29.353,torte-2b,2020.1.3,Win32,60,12842,,,,,,,,,,,,,,,,,,,,,,,,,,,,,,,,,,,,,0,50,50,78,1,,,,,,,,,,,,,,,,,,,,,,,,
,,,,,,,,,,,,l,1.2974,Incorrect,,,,,,t4.png,t4.png,0,0.98115,21,female,2020-09-14_10h52.29.353,torte-2b,2020.1.3,Win32,60,12842,,,,,,,,,,,,,,,,,,,,,,,,,,,,,,,,,,,,,0,51,51,52,1,,,,,,,,,,,,,,,,,,,,,,,,
,,,,,,,,,,,,a,0.75528,Correct!,,,,,,t2.png,t1.png,1,0.90025,21,female,2020-09-14_10h52.29.353,torte-2b,2020.1.3,Win32,60,12842,,,,,,,,,,,,,,,,,,,,,,,,,,,,,,,,,,,,,0,52,52,4,1,,,,,,,,,,,,,,,,,,,,,,,,
,,,,,,,,,,,,l,0.684075,Correct!,,,,,,t2.png,t3.png,1,0.909,21,female,2020-09-14_10h52.29.353,torte-2b,2020.1.3,Win32,60,12842,,,,,,,,,,,,,,,,,,,,,,,,,,,,,,,,,,,,,0,53,53,74,1,,,,,,,,,,,,,,,,,,,,,,,,
,,,,,,,,,,,,l,0.570915,Correct!,,,,,,t2.png,t5.png,3,0.0000131,21,female,2020-09-14_10h52.29.353,torte-2b,2020.1.3,Win32,60,12842,,,,,,,,,,,,,,,,,,,,,,,,,,,,,,,,,,,,,0,54,54,8,1,,,,,,,,,,,,,,,,,,,,,,,,
,,,,,,,,,,,,l,0.728245,Correct!,,,,,,t1.png,t3.png,2,0.056466,21,female,2020-09-14_10h52.29.353,torte-2b,2020.1.3,Win32,60,12842,,,,,,,,,,,,,,,,,,,,,,,,,,,,,,,,,,,,,0,55,55,69,1,,,,,,,,,,,,,,,,,,,,,,,,
,,,,,,,,,,,,l,0.56821,Correct!,,,,,,t2.png,t4.png,2,0.059078,21,female,2020-09-14_10h52.29.353,torte-2b,2020.1.3,Win32,60,12842,,,,,,,,,,,,,,,,,,,,,,,,,,,,,,,,,,,,,0,56,56,77,1,,,,,,,,,,,,,,,,,,,,,,,,
,,,,,,,,,,,,l,0.45968,Incorrect,,,,,,t3.png,t4.png,1,0.90855,21,female,2020-09-14_10h52.29.353,torte-2b,2020.1.3,Win32,60,12842,,,,,,,,,,,,,,,,,,,,,,,,,,,,,,,,,,,,,0,57,57,96,1,,,,,,,,,,,,,,,,,,,,,,,,
,,,,,,,,,,,,l,0.524265,Correct!,,,,,,t3.png,t5.png,2,0.056466,21,female,2020-09-14_10h52.29.353,torte-2b,2020.1.3,Win32,60,12842,,,,,,,,,,,,,,,,,,,,,,,,,,,,,,,,,,,,,0,58,58,14,1,,,,,,,,,,,,,,,,,,,,,,,,
,,,,,,,,,,,,a,1.11821,Correct!,,,,,,t5.png,t4.png,1,0.90025,21,female,2020-09-14_10h52.29.353,torte-2b,2020.1.3,Win32,60,12842,,,,,,,,,,,,,,,,,,,,,,,,,,,,,,,,,,,,,0,59,59,26,1,,,,,,,,,,,,,,,,,,,,,,,,
,,,,,,,,,,,,a,0.51651,Incorrect,,,,,,t5.png,t3.png,2,0.056466,21,female,2020-09-14_10h52.29.353,torte-2b,2020.1.3,Win32,60,12842,,,,,,,,,,,,,,,,,,,,,,,,,,,,,,,,,,,,,0,60,60,114,1,,,,,,,,,,,,,,,,,,,,,,,,
,,,,,,,,,,,,l,1.027915,Incorrect,,,,,,t2.png,t2.png,0,0.98115,21,female,2020-09-14_10h52.29.353,torte-2b,2020.1.3,Win32,60,12842,,,,,,,,,,,,,,,,,,,,,,,,,,,,,,,,,,,,,0,61,61,59,1,,,,,,,,,,,,,,,,,,,,,,,,
,,,,,,,,,,,,l,0.56795,Incorrect,,,,,,t2.png,t3.png,1,0.90855,21,female,2020-09-14_10h52.29.353,torte-2b,2020.1.3,Win32,60,12842,,,,,,,,,,,,,,,,,,,,,,,,,,,,,,,,,,,,,0,62,62,65,1,,,,,,,,,,,,,,,,,,,,,,,,
,,,,,,,,,,,,l,0.599915,Correct!,,,,,,t1.png,t3.png,2,0.056466,21,female,2020-09-14_10h52.29.353,torte-2b,2020.1.3,Win32,60,12842,,,,,,,,,,,,,,,,,,,,,,,,,,,,,,,,,,,,,0,63,63,63,1,,,,,,,,,,,,,,,,,,,,,,,,
,,,,,,,,,,,,l,0.706335,Incorrect,,,,,,t2.png,t2.png,0,0.98115,21,female,2020-09-14_10h52.29.353,torte-2b,2020.1.3,Win32,60,12842,,,,,,,,,,,,,,,,,,,,,,,,,,,,,,,,,,,,,0,64,64,2,1,,,,,,,,,,,,,,,,,,,,,,,,
,,,,,,,,,,,,l,0.60823,Correct!,,,,,,t2.png,t4.png,2,0.0591,21,female,2020-09-14_10h52.29.353,torte-2b,2020.1.3,Win32,60,12842,,,,,,,,,,,,,,,,,,,,,,,,,,,,,,,,,,,,,0,65,65,15,1,,,,,,,,,,,,,,,,,,,,,,,,
,,,,,,,,,,,,l,0.318815,Correct!,,,,,,t1.png,t4.png,3,0.0000131,21,female,2020-09-14_10h52.29.353,torte-2b,2020.1.3,Win32,60,12842,,,,,,,,,,,,,,,,,,,,,,,,,,,,,,,,,,,,,0,66,66,107,1,,,,,,,,,,,,,,,,,,,,,,,,
,,,,,,,,,,,,l,0.712495,Incorrect,,,,,,t4.png,t5.png,1,0.90025,21,female,2020-09-14_10h52.29.353,torte-2b,2020.1.3,Win32,60,12842,,,,,,,,,,,,,,,,,,,,,,,,,,,,,,,,,,,,,0,67,67,47,1,,,,,,,,,,,,,,,,,,,,,,,,
,,,,,,,,,,,,l,1.4164,Incorrect,,,,,,t4.png,t4.png,0,0.98115,21,female,2020-09-14_10h52.29.353,torte-2b,2020.1.3,Win32,60,12842,,,,,,,,,,,,,,,,,,,,,,,,,,,,,,,,,,,,,0,68,68,90,1,,,,,,,,,,,,,,,,,,,,,,,,
,,,,,,,,,,,,a,1.07497,Correct!,,,,,,t5.png,t4.png,1,0.90025,21,female,2020-09-14_10h52.29.353,torte-2b,2020.1.3,Win32,60,12842,,,,,,,,,,,,,,,,,,,,,,,,,,,,,,,,,,,,,0,69,69,34,1,,,,,,,,,,,,,,,,,,,,,,,,
,,,,,,,,,,,,l,1.649,Incorrect,,,,,,t4.png,t4.png,0,0.98115,21,female,2020-09-14_10h52.29.353,torte-2b,2020.1.3,Win32,60,12842,,,,,,,,,,,,,,,,,,,,,,,,,,,,,,,,,,,,,0,70,70,21,1,,,,,,,,,,,,,,,,,,,,,,,,
,,,,,,,,,,,,a,1.00915,Correct!,,,,,,t4.png,t3.png,1,0.90855,21,female,2020-09-14_10h52.29.353,torte-2b,2020.1.3,Win32,60,12842,,,,,,,,,,,,,,,,,,,,,,,,,,,,,,,,,,,,,0,71,71,75,1,,,,,,,,,,,,,,,,,,,,,,,,
,,,,,,,,,,,,l,0.46646,Correct!,,,,,,t1.png,t4.png,3,0.0000131,21,female,2020-09-14_10h52.29.353,torte-2b,2020.1.3,Win32,60,12842,,,,,,,,,,,,,,,,,,,,,,,,,,,,,,,,,,,,,0,72,72,17,1,,,,,,,,,,,,,,,,,,,,,,,,
,,,,,,,,,,,,l,0.445225,Correct!,,,,,,t1.png,t5.png,4,9.55E-11,21,female,2020-09-14_10h52.29.353,torte-2b,2020.1.3,Win32,60,12842,,,,,,,,,,,,,,,,,,,,,,,,,,,,,,,,,,,,,0,73,73,41,1,,,,,,,,,,,,,,,,,,,,,,,,
,,,,,,,,,,,,a,0.242405,Correct!,,,,,,t4.png,t3.png,1,0.90855,21,female,2020-09-14_10h52.29.353,torte-2b,2020.1.3,Win32,60,12842,,,,,,,,,,,,,,,,,,,,,,,,,,,,,,,,,,,,,0,74,74,45,1,,,,,,,,,,,,,,,,,,,,,,,,
,,,,,,,,,,,,l,1.07527,Incorrect,,,,,,t2.png,t3.png,1,0.90855,21,female,2020-09-14_10h52.29.353,torte-2b,2020.1.3,Win32,60,12842,,,,,,,,,,,,,,,,,,,,,,,,,,,,,,,,,,,,,0,75,75,68,1,,,,,,,,,,,,,,,,,,,,,,,,
,,,,,,,,,,,,a,0.57729,Correct!,,,,,,t5.png,t5.png,0,0.978,21,female,2020-09-14_10h52.29.353,torte-2b,2020.1.3,Win32,60,12842,,,,,,,,,,,,,,,,,,,,,,,,,,,,,,,,,,,,,0,76,76,117,1,,,,,,,,,,,,,,,,,,,,,,,,
,,,,,,,,,,,,a,0.268945,Correct!,,,,,,t1.png,t1.png,0,0.978,21,female,2020-09-14_10h52.29.353,torte-2b,2020.1.3,Win32,60,12842,,,,,,,,,,,,,,,,,,,,,,,,,,,,,,,,,,,,,0,77,77,54,1,,,,,,,,,,,,,,,,,,,,,,,,
,,,,,,,,,,,,l,0.643805,Correct!,,,,,,t1.png,t5.png,4,9.55E-11,21,female,2020-09-14_10h52.29.353,torte-2b,2020.1.3,Win32,60,12842,,,,,,,,,,,,,,,,,,,,,,,,,,,,,,,,,,,,,0,78,78,16,1,,,,,,,,,,,,,,,,,,,,,,,,
,,,,,,,,,,,,l,0.316825,Incorrect,,,,,,t3.png,t2.png,1,0.909,21,female,2020-09-14_10h52.29.353,torte-2b,2020.1.3,Win32,60,12842,,,,,,,,,,,,,,,,,,,,,,,,,,,,,,,,,,,,,0,79,79,3,1,,,,,,,,,,,,,,,,,,,,,,,,
,,,,,,,,,,,,l,0.72373,Correct!,,,,,,t2.png,t4.png,2,0.059078,21,female,2020-09-14_10h52.29.353,torte-2b,2020.1.3,Win32,60,12842,,,,,,,,,,,,,,,,,,,,,,,,,,,,,,,,,,,,,0,80,80,37,1,,,,,,,,,,,,,,,,,,,,,,,,
,,,,,,,,,,,,l,0.77509,Incorrect,,,,,,t1.png,t1.png,0,0.97829,21,female,2020-09-14_10h52.29.353,torte-2b,2020.1.3,Win32,60,12842,,,,,,,,,,,,,,,,,,,,,,,,,,,,,,,,,,,,,0,81,81,67,1,,,,,,,,,,,,,,,,,,,,,,,,
,,,,,,,,,,,,a,0.493865,Incorrect,,,,,,t4.png,t1.png,3,0.0000131,21,female,2020-09-14_10h52.29.353,torte-2b,2020.1.3,Win32,60,12842,,,,,,,,,,,,,,,,,,,,,,,,,,,,,,,,,,,,,0,82,82,42,1,,,,,,,,,,,,,,,,,,,,,,,,
,,,,,,,,,,,,a,0.956115,Incorrect,,,,,,t5.png,t3.png,2,0.056466,21,female,2020-09-14_10h52.29.353,torte-2b,2020.1.3,Win32,60,12842,,,,,,,,,,,,,,,,,,,,,,,,,,,,,,,,,,,,,0,83,83,56,1,,,,,,,,,,,,,,,,,,,,,,,,
,,,,,,,,,,,,a,0.40171,Incorrect,,,,,,t5.png,t3.png,2,0.056466,21,female,2020-09-14_10h52.29.353,torte-2b,2020.1.3,Win32,60,12842,,,,,,,,,,,,,,,,,,,,,,,,,,,,,,,,,,,,,0,84,84,108,1,,,,,,,,,,,,,,,,,,,,,,,,
,,,,,,,,,,,,a,2.25309,Correct!,,,,,,t5.png,t5.png,0,0.97829,21,female,2020-09-14_10h52.29.353,torte-2b,2020.1.3,Win32,60,12842,,,,,,,,,,,,,,,,,,,,,,,,,,,,,,,,,,,,,0,85,85,25,1,,,,,,,,,,,,,,,,,,,,,,,,
,,,,,,,,,,,,l,0.423055,Correct!,,,,,,t3.png,t1.png,2,0.056466,21,female,2020-09-14_10h52.29.353,torte-2b,2020.1.3,Win32,60,12842,,,,,,,,,,,,,,,,,,,,,,,,,,,,,,,,,,,,,0,86,86,64,1,,,,,,,,,,,,,,,,,,,,,,,,
,,,,,,,,,,,,a,0.46813,Incorrect,,,,,,t5.png,t2.png,3,0.0000131,21,female,2020-09-14_10h52.29.353,torte-2b,2020.1.3,Win32,60,12842,,,,,,,,,,,,,,,,,,,,,,,,,,,,,,,,,,,,,0,87,87,119,1,,,,,,,,,,,,,,,,,,,,,,,,
,,,,,,,,,,,,a,0.783405,Correct!,,,,,,t5.png,t5.png,0,0.97829,21,female,2020-09-14_10h52.29.353,torte-2b,2020.1.3,Win32,60,12842,,,,,,,,,,,,,,,,,,,,,,,,,,,,,,,,,,,,,0,88,88,70,1,,,,,,,,,,,,,,,,,,,,,,,,
,,,,,,,,,,,,a,0.534025,Incorrect,,,,,,t4.png,t2.png,2,0.059078,21,female,2020-09-14_10h52.29.353,torte-2b,2020.1.3,Win32,60,12842,,,,,,,,,,,,,,,,,,,,,,,,,,,,,,,,,,,,,0,89,89,109,1,,,,,,,,,,,,,,,,,,,,,,,,
,,,,,,,,,,,,l,1.243235,Incorrect,,,,,,t1.png,t2.png,1,0.90025,21,female,2020-09-14_10h52.29.353,torte-2b,2020.1.3,Win32,60,12842,,,,,,,,,,,,,,,,,,,,,,,,,,,,,,,,,,,,,0,90,90,72,1,,,,,,,,,,,,,,,,,,,,,,,,
,,,,,,,,,,,,a,1.40018,Correct!,,,,,,t1.png,t1.png,0,0.97829,21,female,2020-09-14_10h52.29.353,torte-2b,2020.1.3,Win32,60,12842,,,,,,,,,,,,,,,,,,,,,,,,,,,,,,,,,,,,,0,91,91,9,1,,,,,,,,,,,,,,,,,,,,,,,,
,,,,,,,,,,,,a,0.58329,Incorrect,,,,,,t4.png,t2.png,2,0.059078,21,female,2020-09-14_10h52.29.353,torte-2b,2020.1.3,Win32,60,12842,,,,,,,,,,,,,,,,,,,,,,,,,,,,,,,,,,,,,0,92,92,86,1,,,,,,,,,,,,,,,,,,,,,,,,
,,,,,,,,,,,,a,0.82032,Correct!,,,,,,t3.png,t2.png,1,0.90855,21,female,2020-09-14_10h52.29.353,torte-2b,2020.1.3,Win32,60,12842,,,,,,,,,,,,,,,,,,,,,,,,,,,,,,,,,,,,,0,93,93,18,1,,,,,,,,,,,,,,,,,,,,,,,,
,,,,,,,,,,,,l,0.740615,Correct!,,,,,,t1.png,t4.png,3,0.0000131,21,female,2020-09-14_10h52.29.353,torte-2b,2020.1.3,Win32,60,12842,,,,,,,,,,,,,,,,,,,,,,,,,,,,,,,,,,,,,0,94,94,50,1,,,,,,,,,,,,,,,,,,,,,,,,
,,,,,,,,,,,,l,0.87728,Incorrect,,,,,,t2.png,t3.png,1,0.90855,21,female,2020-09-14_10h52.29.353,torte-2b,2020.1.3,Win32,60,12842,,,,,,,,,,,,,,,,,,,,,,,,,,,,,,,,,,,,,0,95,95,10,1,,,,,,,,,,,,,,,,,,,,,,,,
,,,,,,,,,,,,l,0.613565,Correct!,,,,,,t4.png,t5.png,1,0.90025,21,female,2020-09-14_10h52.29.353,torte-2b,2020.1.3,Win32,60,12842,,,,,,,,,,,,,,,,,,,,,,,,,,,,,,,,,,,,,0,96,96,103,1,,,,,,,,,,,,,,,,,,,,,,,,
,,,,,,,,,,,,l,0.619685,Correct!,,,,,,t1.png,t3.png,2,0.056466,21,female,2020-09-14_10h52.29.353,torte-2b,2020.1.3,Win32,60,12842,,,,,,,,,,,,,,,,,,,,,,,,,,,,,,,,,,,,,0,97,97,87,1,,,,,,,,,,,,,,,,,,,,,,,,
,,,,,,,,,,,,l,0.76948,Correct!,,,,,,t4.png,t5.png,1,0.9,21,female,2020-09-14_10h52.29.353,torte-2b,2020.1.3,Win32,60,12842,,,,,,,,,,,,,,,,,,,,,,,,,,,,,,,,,,,,,0,98,98,115,1,,,,,,,,,,,,,,,,,,,,,,,,
,,,,,,,,,,,,l,0.7201,Correct!,,,,,,t1.png,t3.png,2,0.056466,21,female,2020-09-14_10h52.29.353,torte-2b,2020.1.3,Win32,60,12842,,,,,,,,,,,,,,,,,,,,,,,,,,,,,,,,,,,,,0,99,99,60,1,,,,,,,,,,,,,,,,,,,,,,,,
,,,,,,,,,,,,a,0.76977,Incorrect,,,,,,t5.png,t3.png,2,0.0565,21,female,2020-09-14_10h52.29.353,torte-2b,2020.1.3,Win32,60,12842,,,,,,,,,,,,,,,,,,,,,,,,,,,,,,,,,,,,,0,100,100,39,1,,,,,,,,,,,,,,,,,,,,,,,,
,,,,,,,,,,,,a,0.7676,Correct!,,,,,,t2.png,t1.png,1,0.90025,21,female,2020-09-14_10h52.29.353,torte-2b,2020.1.3,Win32,60,12842,,,,,,,,,,,,,,,,,,,,,,,,,,,,,,,,,,,,,0,101,101,5,1,,,,,,,,,,,,,,,,,,,,,,,,
,,,,,,,,,,,,a,0.614645,Correct!,,,,,,t3.png,t2.png,1,0.909,21,female,2020-09-14_10h52.29.353,torte-2b,2020.1.3,Win32,60,12842,,,,,,,,,,,,,,,,,,,,,,,,,,,,,,,,,,,,,0,102,102,23,1,,,,,,,,,,,,,,,,,,,,,,,,
,,,,,,,,,,,,l,0.57194,Correct!,,,,,,t2.png,t5.png,3,0.0000131,21,female,2020-09-14_10h52.29.353,torte-2b,2020.1.3,Win32,60,12842,,,,,,,,,,,,,,,,,,,,,,,,,,,,,,,,,,,,,0,103,103,104,1,,,,,,,,,,,,,,,,,,,,,,,,
,,,,,,,,,,,,l,0.633285,Incorrect,,,,,,t1.png,t2.png,1,0.90025,21,female,2020-09-14_10h52.29.353,torte-2b,2020.1.3,Win32,60,12842,,,,,,,,,,,,,,,,,,,,,,,,,,,,,,,,,,,,,0,104,104,105,1,,,,,,,,,,,,,,,,,,,,,,,,
,,,,,,,,,,,,a,0.685835,Incorrect,,,,,,t5.png,t2.png,3,0.0000131,21,female,2020-09-14_10h52.29.353,torte-2b,2020.1.3,Win32,60,12842,,,,,,,,,,,,,,,,,,,,,,,,,,,,,,,,,,,,,0,105,105,116,1,,,,,,,,,,,,,,,,,,,,,,,,
,,,,,,,,,,,,a,0.50019,Incorrect,,,,,,t5.png,t1.png,4,9.55E-11,21,female,2020-09-14_10h52.29.353,torte-2b,2020.1.3,Win32,60,12842,,,,,,,,,,,,,,,,,,,,,,,,,,,,,,,,,,,,,0,106,106,71,1,,,,,,,,,,,,,,,,,,,,,,,,
,,,,,,,,,,,,a,0.485175,Incorrect,,,,,,t5.png,t1.png,4,9.55E-11,21,female,2020-09-14_10h52.29.353,torte-2b,2020.1.3,Win32,60,12842,,,,,,,,,,,,,,,,,,,,,,,,,,,,,,,,,,,,,0,107,107,22,1,,,,,,,,,,,,,,,,,,,,,,,,
,,,,,,,,,,,,l,0.506235,Correct!,,,,,,t2.png,t5.png,3,0.0000131,21,female,2020-09-14_10h52.29.353,torte-2b,2020.1.3,Win32,60,12842,,,,,,,,,,,,,,,,,,,,,,,,,,,,,,,,,,,,,0,108,108,40,1,,,,,,,,,,,,,,,,,,,,,,,,
,,,,,,,,,,,,l,0.550045,Incorrect,,,,,,t1.png,t2.png,1,0.9,21,female,2020-09-14_10h52.29.353,torte-2b,2020.1.3,Win32,60,12842,,,,,,,,,,,,,,,,,,,,,,,,,,,,,,,,,,,,,0,109,109,1,1,,,,,,,,,,,,,,,,,,,,,,,,
,,,,,,,,,,,,a,0.70023,Correct!,,,,,,t3.png,t2.png,1,0.90855,21,female,2020-09-14_10h52.29.353,torte-2b,2020.1.3,Win32,60,12842,,,,,,,,,,,,,,,,,,,,,,,,,,,,,,,,,,,,,0,110,110,97,1,,,,,,,,,,,,,,,,,,,,,,,,
,,,,,,,,,,,,a,0.58299,Incorrect,,,,,,t4.png,t1.png,3,0.0000131,21,female,2020-09-14_10h52.29.353,torte-2b,2020.1.3,Win32,60,12842,,,,,,,,,,,,,,,,,,,,,,,,,,,,,,,,,,,,,0,111,111,61,1,,,,,,,,,,,,,,,,,,,,,,,,
,,,,,,,,,,,,l,2.17517,Incorrect,,,,,,t5.png,t5.png,0,0.97829,21,female,2020-09-14_10h52.29.353,torte-2b,2020.1.3,Win32,60,12842,,,,,,,,,,,,,,,,,,,,,,,,,,,,,,,,,,,,,0,112,112,73,1,,,,,,,,,,,,,,,,,,,,,,,,
,,,,,,,,,,,,l,0.467565,Correct!,,,,,,t1.png,t5.png,4,9.55E-11,21,female,2020-09-14_10h52.29.353,torte-2b,2020.1.3,Win32,60,12842,,,,,,,,,,,,,,,,,,,,,,,,,,,,,,,,,,,,,0,113,113,85,1,,,,,,,,,,,,,,,,,,,,,,,,
,,,,,,,,,,,,l,0.575375,Correct!,,,,,,t3.png,t5.png,2,0.0565,21,female,2020-09-14_10h52.29.353,torte-2b,2020.1.3,Win32,60,12842,,,,,,,,,,,,,,,,,,,,,,,,,,,,,,,,,,,,,0,114,114,83,1,,,,,,,,,,,,,,,,,,,,,,,,
,,,,,,,,,,,,l,0.73876,Incorrect,,,,,,t1.png,t2.png,1,0.90025,21,female,2020-09-14_10h52.29.353,torte-2b,2020.1.3,Win32,60,12842,,,,,,,,,,,,,,,,,,,,,,,,,,,,,,,,,,,,,0,115,115,33,1,,,,,,,,,,,,,,,,,,,,,,,,
,,,,,,,,,,,,l,0.583155,Incorrect,,,,,,t3.png,t4.png,1,0.90855,21,female,2020-09-14_10h52.29.353,torte-2b,2020.1.3,Win32,60,12842,,,,,,,,,,,,,,,,,,,,,,,,,,,,,,,,,,,,,0,116,116,84,1,,,,,,,,,,,,,,,,,,,,,,,,
,,,,,,,,,,,,a,0.68337,Incorrect,,,,,,t3.png,t1.png,2,0.056466,21,female,2020-09-14_10h52.29.353,torte-2b,2020.1.3,Win32,60,12842,,,,,,,,,,,,,,,,,,,,,,,,,,,,,,,,,,,,,0,117,117,0,1,,,,,,,,,,,,,,,,,,,,,,,,
,,,,,,,,,,,,l,0.511295,Correct!,,,,,,t3.png,t5.png,2,0.056466,21,female,2020-09-14_10h52.29.353,torte-2b,2020.1.3,Win32,60,12842,,,,,,,,,,,,,,,,,,,,,,,,,,,,,,,,,,,,,0,118,118,44,1,,,,,,,,,,,,,,,,,,,,,,,,
,,,,,,,,,,,,l,1.12485,Incorrect,,,,,,t2.png,t2.png,0,0.98115,21,female,2020-09-14_10h52.29.353,torte-2b,2020.1.3,Win32,60,12842,,,,,,,,,,,,,,,,,,,,,,,,,,,,,,,,,,,,,0,119,119,57,1,,,,,,,,,,,,,,,,,,,,,,,,
,,,,,,,,,,,,,,,,,,,,,,,,21,female,2020-09-14_10h52.29.353,torte-2b,2020.1.3,Win32,60,12842,space,1.467225,,,,,,,,,,,,,,,,,,,,,,,,,,,,,,,,,,,,,,,,-44,57,1,0,0,s3,-27,38,1,0,0,t2,130,-101,1,0,0,proceed,space,1.066575,space,16.556265,space,4.106755
