key_resp_8.keys,key_resp_8.rt,key_resp_9.keys,key_resp_9.rt,key_resp_10.keys,key_resp_10.rt,key_resp_11.keys,key_resp_11.rt,key_resp_2.keys,key_resp_2.rt,key_resp_3.keys,key_resp_3.rt,key_resp.keys,key_resp.rt,Feedback,train.thisRepN,train.thisTrialN,train.thisN,train.thisIndex,train.ran,torta_sx,torta_dx,difference,probability,age,gender,date,expName,psychopyVersion,OS,frameRate,participant,key_resp_15.keys,key_resp_15.rt,key_resp_6.keys,key_resp_6.rt,test1.thisRepN,test1.thisTrialN,test1.thisN,test1.thisIndex,test1.ran,key_resp_4.keys,key_resp_4.rt,key_resp_5.keys,key_resp_5.rt,back1.thisRepN,back1.thisTrialN,back1.thisN,back1.thisIndex,back1.ran,letter,back2.thisRepN,back2.thisTrialN,back2.thisN,back2.thisIndex,back2.ran,back3.thisRepN,back3.thisTrialN,back3.thisN,back3.thisIndex,back3.ran,back4.thisRepN,back4.thisTrialN,back4.thisN,back4.thisIndex,back4.ran,key_resp_7.keys,key_resp_7.rt,test2.thisRepN,test2.thisTrialN,test2.thisN,test2.thisIndex,test2.ran,mouse.x,mouse.y,mouse.leftButton,mouse.midButton,mouse.rightButton,mouse.clicked_name,mouse_2.x,mouse_2.y,mouse_2.leftButton,mouse_2.midButton,mouse_2.rightButton,mouse_2.clicked_name,mouse_3.x,mouse_3.y,mouse_3.leftButton,mouse_3.midButton,mouse_3.rightButton,mouse_3.clicked_name,key_resp_12.keys,key_resp_12.rt,key_resp_13.keys,key_resp_13.rt,key_resp_14.keys,key_resp_14.rt
space,1.996955,space,0.625405,space,2.28322,space,0.70138,space,7.3058,space,18.800915,l,2.31752,Correct!,0,0,0,119,1,t1.png,t5.png,4,9.55E-11,20,female,2020-11-24_12h27.44.349,torte-2b,2020.1.3,MacIntel,60,13189,,,,,,,,,,,,,,,,,,,,,,,,,,,,,,,,,,,,,,,,,,,,,,,,,,,,,,,,,,,,,,,,,
,,,,,,,,,,,,l,1.31761,Incorrect,0,1,1,101,1,t4.png,t5.png,1,0.90025,20,female,2020-11-24_12h27.44.349,torte-2b,2020.1.3,MacIntel,60,13189,,,,,,,,,,,,,,,,,,,,,,,,,,,,,,,,,,,,,,,,,,,,,,,,,,,,,,,,,,,,,,,,,
,,,,,,,,,,,,,,Too slow :(,0,2,2,13,1,t5.png,t5.png,0,0.97829,20,female,2020-11-24_12h27.44.349,torte-2b,2020.1.3,MacIntel,60,13189,,,,,,,,,,,,,,,,,,,,,,,,,,,,,,,,,,,,,,,,,,,,,,,,,,,,,,,,,,,,,,,,,
,,,,,,,,,,,,l,1.32628,Correct!,0,3,3,1,1,t2.png,t4.png,2,0.059078,20,female,2020-11-24_12h27.44.349,torte-2b,2020.1.3,MacIntel,60,13189,,,,,,,,,,,,,,,,,,,,,,,,,,,,,,,,,,,,,,,,,,,,,,,,,,,,,,,,,,,,,,,,,
,,,,,,,,,,,,l,1.783445,Incorrect,0,4,4,63,1,t2.png,t3.png,1,0.909,20,female,2020-11-24_12h27.44.349,torte-2b,2020.1.3,MacIntel,60,13189,,,,,,,,,,,,,,,,,,,,,,,,,,,,,,,,,,,,,,,,,,,,,,,,,,,,,,,,,,,,,,,,,
,,,,,,,,,,,,l,1.86752,Correct!,0,5,5,52,1,t2.png,t4.png,2,0.059078,20,female,2020-11-24_12h27.44.349,torte-2b,2020.1.3,MacIntel,60,13189,,,,,,,,,,,,,,,,,,,,,,,,,,,,,,,,,,,,,,,,,,,,,,,,,,,,,,,,,,,,,,,,,
,,,,,,,,,,,,,,Too slow :(,0,6,6,82,1,t5.png,t1.png,4,9.55E-11,20,female,2020-11-24_12h27.44.349,torte-2b,2020.1.3,MacIntel,60,13189,,,,,,,,,,,,,,,,,,,,,,,,,,,,,,,,,,,,,,,,,,,,,,,,,,,,,,,,,,,,,,,,,
,,,,,,,,,,,,l,0.635285,Incorrect,0,7,7,110,1,t4.png,t5.png,1,0.90025,20,female,2020-11-24_12h27.44.349,torte-2b,2020.1.3,MacIntel,60,13189,,,,,,,,,,,,,,,,,,,,,,,,,,,,,,,,,,,,,,,,,,,,,,,,,,,,,,,,,,,,,,,,,
,,,,,,,,,,,,a,0.68731,Correct!,0,8,8,74,1,t5.png,t4.png,1,0.9,20,female,2020-11-24_12h27.44.349,torte-2b,2020.1.3,MacIntel,60,13189,,,,,,,,,,,,,,,,,,,,,,,,,,,,,,,,,,,,,,,,,,,,,,,,,,,,,,,,,,,,,,,,,
,,,,,,,,,,,,l,0.901995,Correct!,0,9,9,17,1,t1.png,t4.png,3,0.0000131,20,female,2020-11-24_12h27.44.349,torte-2b,2020.1.3,MacIntel,60,13189,,,,,,,,,,,,,,,,,,,,,,,,,,,,,,,,,,,,,,,,,,,,,,,,,,,,,,,,,,,,,,,,,
,,,,,,,,,,,,a,1.18741,Correct!,0,10,10,109,1,t5.png,t5.png,0,0.97829,20,female,2020-11-24_12h27.44.349,torte-2b,2020.1.3,MacIntel,60,13189,,,,,,,,,,,,,,,,,,,,,,,,,,,,,,,,,,,,,,,,,,,,,,,,,,,,,,,,,,,,,,,,,
,,,,,,,,,,,,l,0.87139,Correct!,0,11,11,57,1,t2.png,t4.png,2,0.059078,20,female,2020-11-24_12h27.44.349,torte-2b,2020.1.3,MacIntel,60,13189,,,,,,,,,,,,,,,,,,,,,,,,,,,,,,,,,,,,,,,,,,,,,,,,,,,,,,,,,,,,,,,,,
,,,,,,,,,,,,a,0.88784,Incorrect,0,12,12,56,1,t5.png,t1.png,4,9.55E-11,20,female,2020-11-24_12h27.44.349,torte-2b,2020.1.3,MacIntel,60,13189,,,,,,,,,,,,,,,,,,,,,,,,,,,,,,,,,,,,,,,,,,,,,,,,,,,,,,,,,,,,,,,,,
,,,,,,,,,,,,l,1.085595,Correct!,0,13,13,32,1,t4.png,t5.png,1,0.90025,20,female,2020-11-24_12h27.44.349,torte-2b,2020.1.3,MacIntel,60,13189,,,,,,,,,,,,,,,,,,,,,,,,,,,,,,,,,,,,,,,,,,,,,,,,,,,,,,,,,,,,,,,,,
,,,,,,,,,,,,a,0.80465,Correct!,0,14,14,25,1,t5.png,t5.png,0,0.97829,20,female,2020-11-24_12h27.44.349,torte-2b,2020.1.3,MacIntel,60,13189,,,,,,,,,,,,,,,,,,,,,,,,,,,,,,,,,,,,,,,,,,,,,,,,,,,,,,,,,,,,,,,,,
,,,,,,,,,,,,a,1.104165,Correct!,0,15,15,22,1,t2.png,t3.png,1,0.90855,20,female,2020-11-24_12h27.44.349,torte-2b,2020.1.3,MacIntel,60,13189,,,,,,,,,,,,,,,,,,,,,,,,,,,,,,,,,,,,,,,,,,,,,,,,,,,,,,,,,,,,,,,,,
,,,,,,,,,,,,l,1.017585,Correct!,0,16,16,11,1,t1.png,t4.png,3,0.0000131,20,female,2020-11-24_12h27.44.349,torte-2b,2020.1.3,MacIntel,60,13189,,,,,,,,,,,,,,,,,,,,,,,,,,,,,,,,,,,,,,,,,,,,,,,,,,,,,,,,,,,,,,,,,
,,,,,,,,,,,,l,1.468115,Incorrect,0,17,17,10,1,t2.png,t3.png,1,0.90855,20,female,2020-11-24_12h27.44.349,torte-2b,2020.1.3,MacIntel,60,13189,,,,,,,,,,,,,,,,,,,,,,,,,,,,,,,,,,,,,,,,,,,,,,,,,,,,,,,,,,,,,,,,,
,,,,,,,,,,,,a,0.986535,Correct!,0,18,18,114,1,t2.png,t3.png,1,0.90855,20,female,2020-11-24_12h27.44.349,torte-2b,2020.1.3,MacIntel,60,13189,,,,,,,,,,,,,,,,,,,,,,,,,,,,,,,,,,,,,,,,,,,,,,,,,,,,,,,,,,,,,,,,,
,,,,,,,,,,,,l,0.766885,Correct!,0,19,19,89,1,t1.png,t4.png,3,0.0000131,20,female,2020-11-24_12h27.44.349,torte-2b,2020.1.3,MacIntel,60,13189,,,,,,,,,,,,,,,,,,,,,,,,,,,,,,,,,,,,,,,,,,,,,,,,,,,,,,,,,,,,,,,,,
,,,,,,,,,,,,a,0.782685,Incorrect,0,20,20,102,1,t4.png,t2.png,2,0.059078,20,female,2020-11-24_12h27.44.349,torte-2b,2020.1.3,MacIntel,60,13189,,,,,,,,,,,,,,,,,,,,,,,,,,,,,,,,,,,,,,,,,,,,,,,,,,,,,,,,,,,,,,,,,
,,,,,,,,,,,,l,0.96772,Incorrect,0,21,21,48,1,t5.png,t5.png,0,0.97829,20,female,2020-11-24_12h27.44.349,torte-2b,2020.1.3,MacIntel,60,13189,,,,,,,,,,,,,,,,,,,,,,,,,,,,,,,,,,,,,,,,,,,,,,,,,,,,,,,,,,,,,,,,,
,,,,,,,,,,,,a,0.61724,Correct!,0,22,22,98,1,t2.png,t4.png,2,0.0591,20,female,2020-11-24_12h27.44.349,torte-2b,2020.1.3,MacIntel,60,13189,,,,,,,,,,,,,,,,,,,,,,,,,,,,,,,,,,,,,,,,,,,,,,,,,,,,,,,,,,,,,,,,,
,,,,,,,,,,,,l,0.816995,Correct!,0,23,23,90,1,t1.png,t5.png,4,9.55E-11,20,female,2020-11-24_12h27.44.349,torte-2b,2020.1.3,MacIntel,60,13189,,,,,,,,,,,,,,,,,,,,,,,,,,,,,,,,,,,,,,,,,,,,,,,,,,,,,,,,,,,,,,,,,
,,,,,,,,,,,,a,0.75019,Correct!,0,24,24,92,1,t2.png,t3.png,1,0.909,20,female,2020-11-24_12h27.44.349,torte-2b,2020.1.3,MacIntel,60,13189,,,,,,,,,,,,,,,,,,,,,,,,,,,,,,,,,,,,,,,,,,,,,,,,,,,,,,,,,,,,,,,,,
,,,,,,,,,,,,l,1.73459,Incorrect,0,25,25,105,1,t3.png,t2.png,1,0.90855,20,female,2020-11-24_12h27.44.349,torte-2b,2020.1.3,MacIntel,60,13189,,,,,,,,,,,,,,,,,,,,,,,,,,,,,,,,,,,,,,,,,,,,,,,,,,,,,,,,,,,,,,,,,
,,,,,,,,,,,,a,0.88347,Incorrect,0,26,26,47,1,t4.png,t2.png,2,0.059078,20,female,2020-11-24_12h27.44.349,torte-2b,2020.1.3,MacIntel,60,13189,,,,,,,,,,,,,,,,,,,,,,,,,,,,,,,,,,,,,,,,,,,,,,,,,,,,,,,,,,,,,,,,,
,,,,,,,,,,,,l,0.620515,Correct!,0,27,27,36,1,t3.png,t1.png,2,0.0565,20,female,2020-11-24_12h27.44.349,torte-2b,2020.1.3,MacIntel,60,13189,,,,,,,,,,,,,,,,,,,,,,,,,,,,,,,,,,,,,,,,,,,,,,,,,,,,,,,,,,,,,,,,,
,,,,,,,,,,,,a,1.37088,Correct!,0,28,28,58,1,t5.png,t4.png,1,0.90025,20,female,2020-11-24_12h27.44.349,torte-2b,2020.1.3,MacIntel,60,13189,,,,,,,,,,,,,,,,,,,,,,,,,,,,,,,,,,,,,,,,,,,,,,,,,,,,,,,,,,,,,,,,,
,,,,,,,,,,,,l,1.183525,Correct!,0,29,29,51,1,t3.png,t1.png,2,0.056466,20,female,2020-11-24_12h27.44.349,torte-2b,2020.1.3,MacIntel,60,13189,,,,,,,,,,,,,,,,,,,,,,,,,,,,,,,,,,,,,,,,,,,,,,,,,,,,,,,,,,,,,,,,,
,,,,,,,,,,,,a,0.717,Correct!,0,30,30,62,1,t5.png,t5.png,0,0.978,20,female,2020-11-24_12h27.44.349,torte-2b,2020.1.3,MacIntel,60,13189,,,,,,,,,,,,,,,,,,,,,,,,,,,,,,,,,,,,,,,,,,,,,,,,,,,,,,,,,,,,,,,,,
,,,,,,,,,,,,a,1.16768,Correct!,0,31,31,65,1,t4.png,t5.png,1,0.90025,20,female,2020-11-24_12h27.44.349,torte-2b,2020.1.3,MacIntel,60,13189,,,,,,,,,,,,,,,,,,,,,,,,,,,,,,,,,,,,,,,,,,,,,,,,,,,,,,,,,,,,,,,,,
,,,,,,,,,,,,l,0.717205,Incorrect,0,32,32,106,1,t2.png,t3.png,1,0.90855,20,female,2020-11-24_12h27.44.349,torte-2b,2020.1.3,MacIntel,60,13189,,,,,,,,,,,,,,,,,,,,,,,,,,,,,,,,,,,,,,,,,,,,,,,,,,,,,,,,,,,,,,,,,
,,,,,,,,,,,,a,0.96599,Correct!,0,33,33,28,1,t2.png,t3.png,1,0.909,20,female,2020-11-24_12h27.44.349,torte-2b,2020.1.3,MacIntel,60,13189,,,,,,,,,,,,,,,,,,,,,,,,,,,,,,,,,,,,,,,,,,,,,,,,,,,,,,,,,,,,,,,,,
,,,,,,,,,,,,l,0.62221,Correct!,0,34,34,117,1,t1.png,t5.png,4,9.55E-11,20,female,2020-11-24_12h27.44.349,torte-2b,2020.1.3,MacIntel,60,13189,,,,,,,,,,,,,,,,,,,,,,,,,,,,,,,,,,,,,,,,,,,,,,,,,,,,,,,,,,,,,,,,,
,,,,,,,,,,,,a,0.686375,Incorrect,0,35,35,4,1,t1.png,t5.png,4,9.55E-11,20,female,2020-11-24_12h27.44.349,torte-2b,2020.1.3,MacIntel,60,13189,,,,,,,,,,,,,,,,,,,,,,,,,,,,,,,,,,,,,,,,,,,,,,,,,,,,,,,,,,,,,,,,,
,,,,,,,,,,,,l,0.46891,Correct!,0,36,36,60,1,t2.png,t4.png,2,0.059078,20,female,2020-11-24_12h27.44.349,torte-2b,2020.1.3,MacIntel,60,13189,,,,,,,,,,,,,,,,,,,,,,,,,,,,,,,,,,,,,,,,,,,,,,,,,,,,,,,,,,,,,,,,,
,,,,,,,,,,,,l,1.36968,Correct!,0,37,37,24,1,t4.png,t2.png,2,0.059078,20,female,2020-11-24_12h27.44.349,torte-2b,2020.1.3,MacIntel,60,13189,,,,,,,,,,,,,,,,,,,,,,,,,,,,,,,,,,,,,,,,,,,,,,,,,,,,,,,,,,,,,,,,,
,,,,,,,,,,,,l,1.15547,Incorrect,0,38,38,18,1,t4.png,t5.png,1,0.90025,20,female,2020-11-24_12h27.44.349,torte-2b,2020.1.3,MacIntel,60,13189,,,,,,,,,,,,,,,,,,,,,,,,,,,,,,,,,,,,,,,,,,,,,,,,,,,,,,,,,,,,,,,,,
,,,,,,,,,,,,a,0.649565,Correct!,0,39,39,16,1,t5.png,t4.png,1,0.9,20,female,2020-11-24_12h27.44.349,torte-2b,2020.1.3,MacIntel,60,13189,,,,,,,,,,,,,,,,,,,,,,,,,,,,,,,,,,,,,,,,,,,,,,,,,,,,,,,,,,,,,,,,,
,,,,,,,,,,,,l,0.43504,Incorrect,0,40,40,78,1,t1.png,t1.png,0,0.978,20,female,2020-11-24_12h27.44.349,torte-2b,2020.1.3,MacIntel,60,13189,,,,,,,,,,,,,,,,,,,,,,,,,,,,,,,,,,,,,,,,,,,,,,,,,,,,,,,,,,,,,,,,,
,,,,,,,,,,,,a,0.565035,Incorrect,0,41,41,14,1,t2.png,t4.png,2,0.059078,20,female,2020-11-24_12h27.44.349,torte-2b,2020.1.3,MacIntel,60,13189,,,,,,,,,,,,,,,,,,,,,,,,,,,,,,,,,,,,,,,,,,,,,,,,,,,,,,,,,,,,,,,,,
,,,,,,,,,,,,l,0.451345,Incorrect,0,42,42,39,1,t3.png,t2.png,1,0.90855,20,female,2020-11-24_12h27.44.349,torte-2b,2020.1.3,MacIntel,60,13189,,,,,,,,,,,,,,,,,,,,,,,,,,,,,,,,,,,,,,,,,,,,,,,,,,,,,,,,,,,,,,,,,
,,,,,,,,,,,,a,0.570095,Incorrect,0,43,43,111,1,t5.png,t1.png,4,9.55E-11,20,female,2020-11-24_12h27.44.349,torte-2b,2020.1.3,MacIntel,60,13189,,,,,,,,,,,,,,,,,,,,,,,,,,,,,,,,,,,,,,,,,,,,,,,,,,,,,,,,,,,,,,,,,
,,,,,,,,,,,,l,0.499205,Correct!,0,44,44,53,1,t3.png,t1.png,2,0.056466,20,female,2020-11-24_12h27.44.349,torte-2b,2020.1.3,MacIntel,60,13189,,,,,,,,,,,,,,,,,,,,,,,,,,,,,,,,,,,,,,,,,,,,,,,,,,,,,,,,,,,,,,,,,
,,,,,,,,,,,,l,0.46704,Incorrect,0,45,45,20,1,t2.png,t3.png,1,0.90855,20,female,2020-11-24_12h27.44.349,torte-2b,2020.1.3,MacIntel,60,13189,,,,,,,,,,,,,,,,,,,,,,,,,,,,,,,,,,,,,,,,,,,,,,,,,,,,,,,,,,,,,,,,,
,,,,,,,,,,,,a,0.615775,Correct!,0,46,46,116,1,t5.png,t4.png,1,0.90025,20,female,2020-11-24_12h27.44.349,torte-2b,2020.1.3,MacIntel,60,13189,,,,,,,,,,,,,,,,,,,,,,,,,,,,,,,,,,,,,,,,,,,,,,,,,,,,,,,,,,,,,,,,,
,,,,,,,,,,,,l,0.784355,Correct!,0,47,47,61,1,t1.png,t4.png,3,0.0000131,20,female,2020-11-24_12h27.44.349,torte-2b,2020.1.3,MacIntel,60,13189,,,,,,,,,,,,,,,,,,,,,,,,,,,,,,,,,,,,,,,,,,,,,,,,,,,,,,,,,,,,,,,,,
,,,,,,,,,,,,l,2.04985,Correct!,0,48,48,55,1,t2.png,t4.png,2,0.059078,20,female,2020-11-24_12h27.44.349,torte-2b,2020.1.3,MacIntel,60,13189,,,,,,,,,,,,,,,,,,,,,,,,,,,,,,,,,,,,,,,,,,,,,,,,,,,,,,,,,,,,,,,,,
,,,,,,,,,,,,a,1.03285,Correct!,0,49,49,34,1,t5.png,t4.png,1,0.9,20,female,2020-11-24_12h27.44.349,torte-2b,2020.1.3,MacIntel,60,13189,,,,,,,,,,,,,,,,,,,,,,,,,,,,,,,,,,,,,,,,,,,,,,,,,,,,,,,,,,,,,,,,,
,,,,,,,,,,,,a,2.334465,Correct!,0,50,50,79,1,t3.png,t2.png,1,0.909,20,female,2020-11-24_12h27.44.349,torte-2b,2020.1.3,MacIntel,60,13189,,,,,,,,,,,,,,,,,,,,,,,,,,,,,,,,,,,,,,,,,,,,,,,,,,,,,,,,,,,,,,,,,
,,,,,,,,,,,,l,0.984335,Correct!,0,51,51,31,1,t1.png,t5.png,4,9.55E-11,20,female,2020-11-24_12h27.44.349,torte-2b,2020.1.3,MacIntel,60,13189,,,,,,,,,,,,,,,,,,,,,,,,,,,,,,,,,,,,,,,,,,,,,,,,,,,,,,,,,,,,,,,,,
,,,,,,,,,,,,a,1.353125,Correct!,0,52,52,96,1,t1.png,t1.png,0,0.97829,20,female,2020-11-24_12h27.44.349,torte-2b,2020.1.3,MacIntel,60,13189,,,,,,,,,,,,,,,,,,,,,,,,,,,,,,,,,,,,,,,,,,,,,,,,,,,,,,,,,,,,,,,,,
,,,,,,,,,,,,l,2.168625,Correct!,0,53,53,67,1,t1.png,t5.png,4,9.55E-11,20,female,2020-11-24_12h27.44.349,torte-2b,2020.1.3,MacIntel,60,13189,,,,,,,,,,,,,,,,,,,,,,,,,,,,,,,,,,,,,,,,,,,,,,,,,,,,,,,,,,,,,,,,,
,,,,,,,,,,,,a,1.08593,Correct!,0,54,54,70,1,t5.png,t5.png,0,0.978,20,female,2020-11-24_12h27.44.349,torte-2b,2020.1.3,MacIntel,60,13189,,,,,,,,,,,,,,,,,,,,,,,,,,,,,,,,,,,,,,,,,,,,,,,,,,,,,,,,,,,,,,,,,
,,,,,,,,,,,,l,0.568045,Correct!,0,55,55,5,1,t2.png,t4.png,2,0.059078,20,female,2020-11-24_12h27.44.349,torte-2b,2020.1.3,MacIntel,60,13189,,,,,,,,,,,,,,,,,,,,,,,,,,,,,,,,,,,,,,,,,,,,,,,,,,,,,,,,,,,,,,,,,
,,,,,,,,,,,,a,0.88386,Correct!,0,56,56,21,1,t5.png,t4.png,1,0.90025,20,female,2020-11-24_12h27.44.349,torte-2b,2020.1.3,MacIntel,60,13189,,,,,,,,,,,,,,,,,,,,,,,,,,,,,,,,,,,,,,,,,,,,,,,,,,,,,,,,,,,,,,,,,
,,,,,,,,,,,,a,0.984295,Incorrect,0,57,57,99,1,t1.png,t5.png,4,9.55E-11,20,female,2020-11-24_12h27.44.349,torte-2b,2020.1.3,MacIntel,60,13189,,,,,,,,,,,,,,,,,,,,,,,,,,,,,,,,,,,,,,,,,,,,,,,,,,,,,,,,,,,,,,,,,
,,,,,,,,,,,,l,2.000825,Correct!,0,58,58,69,1,t4.png,t2.png,2,0.059078,20,female,2020-11-24_12h27.44.349,torte-2b,2020.1.3,MacIntel,60,13189,,,,,,,,,,,,,,,,,,,,,,,,,,,,,,,,,,,,,,,,,,,,,,,,,,,,,,,,,,,,,,,,,
,,,,,,,,,,,,,,Too slow :(,0,59,59,26,1,t4.png,t2.png,2,0.0591,20,female,2020-11-24_12h27.44.349,torte-2b,2020.1.3,MacIntel,60,13189,,,,,,,,,,,,,,,,,,,,,,,,,,,,,,,,,,,,,,,,,,,,,,,,,,,,,,,,,,,,,,,,,
,,,,,,,,,,,,a,1.00251,Incorrect,0,60,60,12,1,t5.png,t1.png,4,9.55E-11,20,female,2020-11-24_12h27.44.349,torte-2b,2020.1.3,MacIntel,60,13189,,,,,,,,,,,,,,,,,,,,,,,,,,,,,,,,,,,,,,,,,,,,,,,,,,,,,,,,,,,,,,,,,
,,,,,,,,,,,,l,0.500325,Incorrect,0,61,61,2,1,t3.png,t2.png,1,0.90855,20,female,2020-11-24_12h27.44.349,torte-2b,2020.1.3,MacIntel,60,13189,,,,,,,,,,,,,,,,,,,,,,,,,,,,,,,,,,,,,,,,,,,,,,,,,,,,,,,,,,,,,,,,,
,,,,,,,,,,,,a,0.501155,Incorrect,0,62,62,91,1,t1.png,t4.png,3,0.0000131,20,female,2020-11-24_12h27.44.349,torte-2b,2020.1.3,MacIntel,60,13189,,,,,,,,,,,,,,,,,,,,,,,,,,,,,,,,,,,,,,,,,,,,,,,,,,,,,,,,,,,,,,,,,
,,,,,,,,,,,,l,0.35548,Correct!,0,63,63,40,1,t1.png,t5.png,4,9.55E-11,20,female,2020-11-24_12h27.44.349,torte-2b,2020.1.3,MacIntel,60,13189,,,,,,,,,,,,,,,,,,,,,,,,,,,,,,,,,,,,,,,,,,,,,,,,,,,,,,,,,,,,,,,,,
,,,,,,,,,,,,l,0.665625,Incorrect,0,64,64,71,1,t5.png,t5.png,0,0.97829,20,female,2020-11-24_12h27.44.349,torte-2b,2020.1.3,MacIntel,60,13189,,,,,,,,,,,,,,,,,,,,,,,,,,,,,,,,,,,,,,,,,,,,,,,,,,,,,,,,,,,,,,,,,
,,,,,,,,,,,,a,0.95236,Incorrect,0,65,65,7,1,t4.png,t5.png,1,0.90025,20,female,2020-11-24_12h27.44.349,torte-2b,2020.1.3,MacIntel,60,13189,,,,,,,,,,,,,,,,,,,,,,,,,,,,,,,,,,,,,,,,,,,,,,,,,,,,,,,,,,,,,,,,,
,,,,,,,,,,,,l,0.602865,Correct!,0,66,66,80,1,t1.png,t4.png,3,0.0000131,20,female,2020-11-24_12h27.44.349,torte-2b,2020.1.3,MacIntel,60,13189,,,,,,,,,,,,,,,,,,,,,,,,,,,,,,,,,,,,,,,,,,,,,,,,,,,,,,,,,,,,,,,,,
,,,,,,,,,,,,a,1.98415,Incorrect,0,67,67,29,1,t5.png,t5.png,0,0.97829,20,female,2020-11-24_12h27.44.349,torte-2b,2020.1.3,MacIntel,60,13189,,,,,,,,,,,,,,,,,,,,,,,,,,,,,,,,,,,,,,,,,,,,,,,,,,,,,,,,,,,,,,,,,
,,,,,,,,,,,,l,0.652325,Incorrect,0,68,68,23,1,t5.png,t4.png,1,0.90025,20,female,2020-11-24_12h27.44.349,torte-2b,2020.1.3,MacIntel,60,13189,,,,,,,,,,,,,,,,,,,,,,,,,,,,,,,,,,,,,,,,,,,,,,,,,,,,,,,,,,,,,,,,,
,,,,,,,,,,,,l,0.350635,Incorrect,0,69,69,42,1,t5.png,t4.png,1,0.90025,20,female,2020-11-24_12h27.44.349,torte-2b,2020.1.3,MacIntel,60,13189,,,,,,,,,,,,,,,,,,,,,,,,,,,,,,,,,,,,,,,,,,,,,,,,,,,,,,,,,,,,,,,,,
,,,,,,,,,,,,l,1.084995,Correct!,0,70,70,93,1,t2.png,t4.png,2,0.059078,20,female,2020-11-24_12h27.44.349,torte-2b,2020.1.3,MacIntel,60,13189,,,,,,,,,,,,,,,,,,,,,,,,,,,,,,,,,,,,,,,,,,,,,,,,,,,,,,,,,,,,,,,,,
,,,,,,,,,,,,a,1.290935,Correct!,0,71,71,104,1,t2.png,t3.png,1,0.90855,20,female,2020-11-24_12h27.44.349,torte-2b,2020.1.3,MacIntel,60,13189,,,,,,,,,,,,,,,,,,,,,,,,,,,,,,,,,,,,,,,,,,,,,,,,,,,,,,,,,,,,,,,,,
,,,,,,,,,,,,a,0.42161,Correct!,0,72,72,113,1,t5.png,t4.png,1,0.9,20,female,2020-11-24_12h27.44.349,torte-2b,2020.1.3,MacIntel,60,13189,,,,,,,,,,,,,,,,,,,,,,,,,,,,,,,,,,,,,,,,,,,,,,,,,,,,,,,,,,,,,,,,,
,,,,,,,,,,,,l,0.67231,Correct!,0,73,73,6,1,t1.png,t4.png,3,0.0000131,20,female,2020-11-24_12h27.44.349,torte-2b,2020.1.3,MacIntel,60,13189,,,,,,,,,,,,,,,,,,,,,,,,,,,,,,,,,,,,,,,,,,,,,,,,,,,,,,,,,,,,,,,,,
,,,,,,,,,,,,l,0.621075,Correct!,0,74,74,68,1,t1.png,t4.png,3,0.0000131,20,female,2020-11-24_12h27.44.349,torte-2b,2020.1.3,MacIntel,60,13189,,,,,,,,,,,,,,,,,,,,,,,,,,,,,,,,,,,,,,,,,,,,,,,,,,,,,,,,,,,,,,,,,
,,,,,,,,,,,,l,0.652945,Incorrect,0,75,75,118,1,t5.png,t5.png,0,0.978,20,female,2020-11-24_12h27.44.349,torte-2b,2020.1.3,MacIntel,60,13189,,,,,,,,,,,,,,,,,,,,,,,,,,,,,,,,,,,,,,,,,,,,,,,,,,,,,,,,,,,,,,,,,
,,,,,,,,,,,,a,0.53437,Incorrect,0,76,76,108,1,t5.png,t1.png,4,9.55E-11,20,female,2020-11-24_12h27.44.349,torte-2b,2020.1.3,MacIntel,60,13189,,,,,,,,,,,,,,,,,,,,,,,,,,,,,,,,,,,,,,,,,,,,,,,,,,,,,,,,,,,,,,,,,
,,,,,,,,,,,,l,0.616345,Incorrect,0,77,77,95,1,t1.png,t1.png,0,0.978,20,female,2020-11-24_12h27.44.349,torte-2b,2020.1.3,MacIntel,60,13189,,,,,,,,,,,,,,,,,,,,,,,,,,,,,,,,,,,,,,,,,,,,,,,,,,,,,,,,,,,,,,,,,
,,,,,,,,,,,,a,0.962525,Incorrect,0,78,78,46,1,t4.png,t2.png,2,0.059078,20,female,2020-11-24_12h27.44.349,torte-2b,2020.1.3,MacIntel,60,13189,,,,,,,,,,,,,,,,,,,,,,,,,,,,,,,,,,,,,,,,,,,,,,,,,,,,,,,,,,,,,,,,,
,,,,,,,,,,,,l,0.61839,Correct!,0,79,79,3,1,t1.png,t5.png,4,9.55E-11,20,female,2020-11-24_12h27.44.349,torte-2b,2020.1.3,MacIntel,60,13189,,,,,,,,,,,,,,,,,,,,,,,,,,,,,,,,,,,,,,,,,,,,,,,,,,,,,,,,,,,,,,,,,
,,,,,,,,,,,,l,0.75071,Correct!,0,80,80,33,1,t5.png,t1.png,4,9.55E-11,20,female,2020-11-24_12h27.44.349,torte-2b,2020.1.3,MacIntel,60,13189,,,,,,,,,,,,,,,,,,,,,,,,,,,,,,,,,,,,,,,,,,,,,,,,,,,,,,,,,,,,,,,,,
,,,,,,,,,,,,l,0.91648,Incorrect,0,81,81,30,1,t3.png,t1.png,2,0.056466,20,female,2020-11-24_12h27.44.349,torte-2b,2020.1.3,MacIntel,60,13189,,,,,,,,,,,,,,,,,,,,,,,,,,,,,,,,,,,,,,,,,,,,,,,,,,,,,,,,,,,,,,,,,
,,,,,,,,,,,,l,0.736155,Incorrect,0,82,82,66,1,t4.png,t5.png,1,0.9,20,female,2020-11-24_12h27.44.349,torte-2b,2020.1.3,MacIntel,60,13189,,,,,,,,,,,,,,,,,,,,,,,,,,,,,,,,,,,,,,,,,,,,,,,,,,,,,,,,,,,,,,,,,
,,,,,,,,,,,,l,0.573585,Correct!,0,83,83,73,1,t4.png,t2.png,2,0.059078,20,female,2020-11-24_12h27.44.349,torte-2b,2020.1.3,MacIntel,60,13189,,,,,,,,,,,,,,,,,,,,,,,,,,,,,,,,,,,,,,,,,,,,,,,,,,,,,,,,,,,,,,,,,
,,,,,,,,,,,,a,0.91782,Correct!,0,84,84,72,1,t4.png,t2.png,2,0.059078,20,female,2020-11-24_12h27.44.349,torte-2b,2020.1.3,MacIntel,60,13189,,,,,,,,,,,,,,,,,,,,,,,,,,,,,,,,,,,,,,,,,,,,,,,,,,,,,,,,,,,,,,,,,
,,,,,,,,,,,,l,0.553095,Correct!,0,85,85,54,1,t1.png,t5.png,4,9.55E-11,20,female,2020-11-24_12h27.44.349,torte-2b,2020.1.3,MacIntel,60,13189,,,,,,,,,,,,,,,,,,,,,,,,,,,,,,,,,,,,,,,,,,,,,,,,,,,,,,,,,,,,,,,,,
,,,,,,,,,,,,l,0.599105,Correct!,0,86,86,115,1,t2.png,t4.png,2,0.059078,20,female,2020-11-24_12h27.44.349,torte-2b,2020.1.3,MacIntel,60,13189,,,,,,,,,,,,,,,,,,,,,,,,,,,,,,,,,,,,,,,,,,,,,,,,,,,,,,,,,,,,,,,,,
,,,,,,,,,,,,l,0.420375,Correct!,0,87,87,0,1,t5.png,t1.png,4,9.55E-11,20,female,2020-11-24_12h27.44.349,torte-2b,2020.1.3,MacIntel,60,13189,,,,,,,,,,,,,,,,,,,,,,,,,,,,,,,,,,,,,,,,,,,,,,,,,,,,,,,,,,,,,,,,,
,,,,,,,,,,,,,,Too slow :(,0,88,88,84,1,t1.png,t1.png,0,0.97829,20,female,2020-11-24_12h27.44.349,torte-2b,2020.1.3,MacIntel,60,13189,,,,,,,,,,,,,,,,,,,,,,,,,,,,,,,,,,,,,,,,,,,,,,,,,,,,,,,,,,,,,,,,,
,,,,,,,,,,,,a,1.066545,Correct!,0,89,89,15,1,t3.png,t2.png,1,0.90855,20,female,2020-11-24_12h27.44.349,torte-2b,2020.1.3,MacIntel,60,13189,,,,,,,,,,,,,,,,,,,,,,,,,,,,,,,,,,,,,,,,,,,,,,,,,,,,,,,,,,,,,,,,,
,,,,,,,,,,,,a,0.96557,Incorrect,0,90,90,50,1,t5.png,t1.png,4,9.55E-11,20,female,2020-11-24_12h27.44.349,torte-2b,2020.1.3,MacIntel,60,13189,,,,,,,,,,,,,,,,,,,,,,,,,,,,,,,,,,,,,,,,,,,,,,,,,,,,,,,,,,,,,,,,,
,,,,,,,,,,,,a,0.918395,Correct!,0,91,91,97,1,t5.png,t5.png,0,0.97829,20,female,2020-11-24_12h27.44.349,torte-2b,2020.1.3,MacIntel,60,13189,,,,,,,,,,,,,,,,,,,,,,,,,,,,,,,,,,,,,,,,,,,,,,,,,,,,,,,,,,,,,,,,,
,,,,,,,,,,,,a,0.88494,Correct!,0,92,92,107,1,t1.png,t1.png,0,0.978,20,female,2020-11-24_12h27.44.349,torte-2b,2020.1.3,MacIntel,60,13189,,,,,,,,,,,,,,,,,,,,,,,,,,,,,,,,,,,,,,,,,,,,,,,,,,,,,,,,,,,,,,,,,
,,,,,,,,,,,,l,0.90563,Incorrect,0,93,93,44,1,t2.png,t3.png,1,0.909,20,female,2020-11-24_12h27.44.349,torte-2b,2020.1.3,MacIntel,60,13189,,,,,,,,,,,,,,,,,,,,,,,,,,,,,,,,,,,,,,,,,,,,,,,,,,,,,,,,,,,,,,,,,
,,,,,,,,,,,,a,0.567835,Incorrect,0,94,94,38,1,t3.png,t1.png,2,0.056466,20,female,2020-11-24_12h27.44.349,torte-2b,2020.1.3,MacIntel,60,13189,,,,,,,,,,,,,,,,,,,,,,,,,,,,,,,,,,,,,,,,,,,,,,,,,,,,,,,,,,,,,,,,,
,,,,,,,,,,,,l,0.551125,Incorrect,0,95,95,41,1,t3.png,t2.png,1,0.90855,20,female,2020-11-24_12h27.44.349,torte-2b,2020.1.3,MacIntel,60,13189,,,,,,,,,,,,,,,,,,,,,,,,,,,,,,,,,,,,,,,,,,,,,,,,,,,,,,,,,,,,,,,,,
,,,,,,,,,,,,l,0.00062,Correct!,0,96,96,94,1,t5.png,t1.png,4,9.55E-11,20,female,2020-11-24_12h27.44.349,torte-2b,2020.1.3,MacIntel,60,13189,,,,,,,,,,,,,,,,,,,,,,,,,,,,,,,,,,,,,,,,,,,,,,,,,,,,,,,,,,,,,,,,,
,,,,,,,,,,,,l,0.735385,Incorrect,0,97,97,76,1,t3.png,t2.png,1,0.90855,20,female,2020-11-24_12h27.44.349,torte-2b,2020.1.3,MacIntel,60,13189,,,,,,,,,,,,,,,,,,,,,,,,,,,,,,,,,,,,,,,,,,,,,,,,,,,,,,,,,,,,,,,,,
,,,,,,,,,,,,a,0.602875,Correct!,0,98,98,112,1,t1.png,t1.png,0,0.97829,20,female,2020-11-24_12h27.44.349,torte-2b,2020.1.3,MacIntel,60,13189,,,,,,,,,,,,,,,,,,,,,,,,,,,,,,,,,,,,,,,,,,,,,,,,,,,,,,,,,,,,,,,,,
,,,,,,,,,,,,a,0.84924,Correct!,0,99,99,75,1,t1.png,t1.png,0,0.97829,20,female,2020-11-24_12h27.44.349,torte-2b,2020.1.3,MacIntel,60,13189,,,,,,,,,,,,,,,,,,,,,,,,,,,,,,,,,,,,,,,,,,,,,,,,,,,,,,,,,,,,,,,,,
,,,,,,,,,,,,a,1.20174,Correct!,0,100,100,8,1,t3.png,t2.png,1,0.90855,20,female,2020-11-24_12h27.44.349,torte-2b,2020.1.3,MacIntel,60,13189,,,,,,,,,,,,,,,,,,,,,,,,,,,,,,,,,,,,,,,,,,,,,,,,,,,,,,,,,,,,,,,,,
,,,,,,,,,,,,a,0.86816,Correct!,0,101,101,64,1,t1.png,t1.png,0,0.978,20,female,2020-11-24_12h27.44.349,torte-2b,2020.1.3,MacIntel,60,13189,,,,,,,,,,,,,,,,,,,,,,,,,,,,,,,,,,,,,,,,,,,,,,,,,,,,,,,,,,,,,,,,,
,,,,,,,,,,,,a,1.318155,Incorrect,0,102,102,43,1,t4.png,t2.png,2,0.059078,20,female,2020-11-24_12h27.44.349,torte-2b,2020.1.3,MacIntel,60,13189,,,,,,,,,,,,,,,,,,,,,,,,,,,,,,,,,,,,,,,,,,,,,,,,,,,,,,,,,,,,,,,,,
,,,,,,,,,,,,l,0.984255,Correct!,0,103,103,37,1,t1.png,t4.png,3,0.0000131,20,female,2020-11-24_12h27.44.349,torte-2b,2020.1.3,MacIntel,60,13189,,,,,,,,,,,,,,,,,,,,,,,,,,,,,,,,,,,,,,,,,,,,,,,,,,,,,,,,,,,,,,,,,
,,,,,,,,,,,,a,0.869035,Correct!,0,104,104,103,1,t3.png,t1.png,2,0.056466,20,female,2020-11-24_12h27.44.349,torte-2b,2020.1.3,MacIntel,60,13189,,,,,,,,,,,,,,,,,,,,,,,,,,,,,,,,,,,,,,,,,,,,,,,,,,,,,,,,,,,,,,,,,
,,,,,,,,,,,,a,0.83501,Incorrect,0,105,105,27,1,t3.png,t1.png,2,0.0565,20,female,2020-11-24_12h27.44.349,torte-2b,2020.1.3,MacIntel,60,13189,,,,,,,,,,,,,,,,,,,,,,,,,,,,,,,,,,,,,,,,,,,,,,,,,,,,,,,,,,,,,,,,,
,,,,,,,,,,,,a,1.00149,Correct!,0,106,106,81,1,t1.png,t1.png,0,0.97829,20,female,2020-11-24_12h27.44.349,torte-2b,2020.1.3,MacIntel,60,13189,,,,,,,,,,,,,,,,,,,,,,,,,,,,,,,,,,,,,,,,,,,,,,,,,,,,,,,,,,,,,,,,,
,,,,,,,,,,,,l,1.23409,Incorrect,0,107,107,49,1,t4.png,t5.png,1,0.9,20,female,2020-11-24_12h27.44.349,torte-2b,2020.1.3,MacIntel,60,13189,,,,,,,,,,,,,,,,,,,,,,,,,,,,,,,,,,,,,,,,,,,,,,,,,,,,,,,,,,,,,,,,,
,,,,,,,,,,,,l,0.58426,Incorrect,0,108,108,100,1,t4.png,t5.png,1,0.90025,20,female,2020-11-24_12h27.44.349,torte-2b,2020.1.3,MacIntel,60,13189,,,,,,,,,,,,,,,,,,,,,,,,,,,,,,,,,,,,,,,,,,,,,,,,,,,,,,,,,,,,,,,,,
,,,,,,,,,,,,l,1.10118,Incorrect,0,109,109,77,1,t1.png,t1.png,0,0.97829,20,female,2020-11-24_12h27.44.349,torte-2b,2020.1.3,MacIntel,60,13189,,,,,,,,,,,,,,,,,,,,,,,,,,,,,,,,,,,,,,,,,,,,,,,,,,,,,,,,,,,,,,,,,
,,,,,,,,,,,,l,1.004475,Correct!,0,110,110,35,1,t1.png,t4.png,3,0.0000131,20,female,2020-11-24_12h27.44.349,torte-2b,2020.1.3,MacIntel,60,13189,,,,,,,,,,,,,,,,,,,,,,,,,,,,,,,,,,,,,,,,,,,,,,,,,,,,,,,,,,,,,,,,,
,,,,,,,,,,,,a,1.050985,Correct!,0,111,111,45,1,t3.png,t2.png,1,0.90855,20,female,2020-11-24_12h27.44.349,torte-2b,2020.1.3,MacIntel,60,13189,,,,,,,,,,,,,,,,,,,,,,,,,,,,,,,,,,,,,,,,,,,,,,,,,,,,,,,,,,,,,,,,,
,,,,,,,,,,,,a,0.752615,Incorrect,0,112,112,87,1,t5.png,t1.png,4,9.55E-11,20,female,2020-11-24_12h27.44.349,torte-2b,2020.1.3,MacIntel,60,13189,,,,,,,,,,,,,,,,,,,,,,,,,,,,,,,,,,,,,,,,,,,,,,,,,,,,,,,,,,,,,,,,,
,,,,,,,,,,,,a,0.687275,Correct!,0,113,113,85,1,t3.png,t2.png,1,0.90855,20,female,2020-11-24_12h27.44.349,torte-2b,2020.1.3,MacIntel,60,13189,,,,,,,,,,,,,,,,,,,,,,,,,,,,,,,,,,,,,,,,,,,,,,,,,,,,,,,,,,,,,,,,,
,,,,,,,,,,,,a,0.63289,Incorrect,0,114,114,83,1,t3.png,t1.png,2,0.056466,20,female,2020-11-24_12h27.44.349,torte-2b,2020.1.3,MacIntel,60,13189,,,,,,,,,,,,,,,,,,,,,,,,,,,,,,,,,,,,,,,,,,,,,,,,,,,,,,,,,,,,,,,,,
,,,,,,,,,,,,a,0.70308,Incorrect,0,115,115,86,1,t3.png,t1.png,2,0.056466,20,female,2020-11-24_12h27.44.349,torte-2b,2020.1.3,MacIntel,60,13189,,,,,,,,,,,,,,,,,,,,,,,,,,,,,,,,,,,,,,,,,,,,,,,,,,,,,,,,,,,,,,,,,
,,,,,,,,,,,,a,0.75353,Correct!,0,116,116,59,1,t5.png,t4.png,1,0.9,20,female,2020-11-24_12h27.44.349,torte-2b,2020.1.3,MacIntel,60,13189,,,,,,,,,,,,,,,,,,,,,,,,,,,,,,,,,,,,,,,,,,,,,,,,,,,,,,,,,,,,,,,,,
,,,,,,,,,,,,a,0.585235,Incorrect,0,117,117,19,1,t4.png,t2.png,2,0.059078,20,female,2020-11-24_12h27.44.349,torte-2b,2020.1.3,MacIntel,60,13189,,,,,,,,,,,,,,,,,,,,,,,,,,,,,,,,,,,,,,,,,,,,,,,,,,,,,,,,,,,,,,,,,
,,,,,,,,,,,,a,0.53336,Correct!,0,118,118,9,1,t4.png,t5.png,1,0.9,20,female,2020-11-24_12h27.44.349,torte-2b,2020.1.3,MacIntel,60,13189,,,,,,,,,,,,,,,,,,,,,,,,,,,,,,,,,,,,,,,,,,,,,,,,,,,,,,,,,,,,,,,,,
,,,,,,,,,,,,a,0.682575,Incorrect,0,119,119,88,1,t3.png,t1.png,2,0.056466,20,female,2020-11-24_12h27.44.349,torte-2b,2020.1.3,MacIntel,60,13189,,,,,,,,,,,,,,,,,,,,,,,,,,,,,,,,,,,,,,,,,,,,,,,,,,,,,,,,,,,,,,,,,
,,,,,,,,,,,,a,0.00061,Incorrect,,,,,,t1.png,t4.png,3,0.0000131,20,female,2020-11-24_12h27.44.349,torte-2b,2020.1.3,MacIntel,60,13189,space,2.684645,space,3.73511,0,0,0,92,1,,,,,,,,,,,,,,,,,,,,,,,,,,,,,,,,,,,,,,,,,,,,,,,,,,,,,,,,
,,,,,,,,,,,,a,1.44825,Incorrect,,,,,,t5.png,t2.png,3,0.0000131,20,female,2020-11-24_12h27.44.349,torte-2b,2020.1.3,MacIntel,60,13189,,,,,0,1,1,51,1,,,,,,,,,,,,,,,,,,,,,,,,,,,,,,,,,,,,,,,,,,,,,,,,,,,,,,,,
,,,,,,,,,,,,l,0.97062,Correct!,,,,,,t3.png,t5.png,2,0.0565,20,female,2020-11-24_12h27.44.349,torte-2b,2020.1.3,MacIntel,60,13189,,,,,0,2,2,83,1,,,,,,,,,,,,,,,,,,,,,,,,,,,,,,,,,,,,,,,,,,,,,,,,,,,,,,,,
,,,,,,,,,,,,a,0.917755,Incorrect,,,,,,t2.png,t4.png,2,0.059078,20,female,2020-11-24_12h27.44.349,torte-2b,2020.1.3,MacIntel,60,13189,,,,,0,3,3,37,1,,,,,,,,,,,,,,,,,,,,,,,,,,,,,,,,,,,,,,,,,,,,,,,,,,,,,,,,
,,,,,,,,,,,,l,0.534905,Correct!,,,,,,t5.png,t1.png,4,9.55E-11,20,female,2020-11-24_12h27.44.349,torte-2b,2020.1.3,MacIntel,60,13189,,,,,0,4,4,22,1,,,,,,,,,,,,,,,,,,,,,,,,,,,,,,,,,,,,,,,,,,,,,,,,,,,,,,,,
,,,,,,,,,,,,a,0.94971,Correct!,,,,,,t1.png,t1.png,0,0.97829,20,female,2020-11-24_12h27.44.349,torte-2b,2020.1.3,MacIntel,60,13189,,,,,0,5,5,78,1,,,,,,,,,,,,,,,,,,,,,,,,,,,,,,,,,,,,,,,,,,,,,,,,,,,,,,,,
,,,,,,,,,,,,a,1.26768,Correct!,,,,,,t4.png,t4.png,0,0.98115,20,female,2020-11-24_12h27.44.349,torte-2b,2020.1.3,MacIntel,60,13189,,,,,0,6,6,21,1,,,,,,,,,,,,,,,,,,,,,,,,,,,,,,,,,,,,,,,,,,,,,,,,,,,,,,,,
,,,,,,,,,,,,l,0.9044,Correct!,,,,,,t1.png,t3.png,2,0.056466,20,female,2020-11-24_12h27.44.349,torte-2b,2020.1.3,MacIntel,60,13189,,,,,0,7,7,99,1,,,,,,,,,,,,,,,,,,,,,,,,,,,,,,,,,,,,,,,,,,,,,,,,,,,,,,,,
,,,,,,,,,,,,l,1.054635,Correct!,,,,,,t1.png,t4.png,3,0.0000131,20,female,2020-11-24_12h27.44.349,torte-2b,2020.1.3,MacIntel,60,13189,,,,,0,8,8,50,1,,,,,,,,,,,,,,,,,,,,,,,,,,,,,,,,,,,,,,,,,,,,,,,,,,,,,,,,
,,,,,,,,,,,,l,1.04991,Correct!,,,,,,t1.png,t3.png,2,0.056466,20,female,2020-11-24_12h27.44.349,torte-2b,2020.1.3,MacIntel,60,13189,,,,,0,9,9,60,1,,,,,,,,,,,,,,,,,,,,,,,,,,,,,,,,,,,,,,,,,,,,,,,,,,,,,,,,
,,,,,,,,,,,,a,0.683855,Incorrect,,,,,,t3.png,t1.png,2,0.056466,20,female,2020-11-24_12h27.44.349,torte-2b,2020.1.3,MacIntel,60,13189,,,,,0,10,10,29,1,,,,,,,,,,,,,,,,,,,,,,,,,,,,,,,,,,,,,,,,,,,,,,,,,,,,,,,,
,,,,,,,,,,,,l,0.500615,Incorrect,,,,,,t3.png,t4.png,1,0.90855,20,female,2020-11-24_12h27.44.349,torte-2b,2020.1.3,MacIntel,60,13189,,,,,0,11,11,96,1,,,,,,,,,,,,,,,,,,,,,,,,,,,,,,,,,,,,,,,,,,,,,,,,,,,,,,,,
,,,,,,,,,,,,l,0.85133,Correct!,,,,,,t2.png,t4.png,2,0.0591,20,female,2020-11-24_12h27.44.349,torte-2b,2020.1.3,MacIntel,60,13189,,,,,0,12,12,15,1,,,,,,,,,,,,,,,,,,,,,,,,,,,,,,,,,,,,,,,,,,,,,,,,,,,,,,,,
,,,,,,,,,,,,l,0.68374,Incorrect,,,,,,t1.png,t1.png,0,0.97829,20,female,2020-11-24_12h27.44.349,torte-2b,2020.1.3,MacIntel,60,13189,,,,,0,13,13,9,1,,,,,,,,,,,,,,,,,,,,,,,,,,,,,,,,,,,,,,,,,,,,,,,,,,,,,,,,
,,,,,,,,,,,,a,0.75618,Correct!,,,,,,t5.png,t5.png,0,0.97829,20,female,2020-11-24_12h27.44.349,torte-2b,2020.1.3,MacIntel,60,13189,,,,,0,14,14,73,1,,,,,,,,,,,,,,,,,,,,,,,,,,,,,,,,,,,,,,,,,,,,,,,,,,,,,,,,
,,,,,,,,,,,,a,1.02134,Correct!,,,,,,t4.png,t3.png,1,0.90855,20,female,2020-11-24_12h27.44.349,torte-2b,2020.1.3,MacIntel,60,13189,,,,,0,15,15,35,1,,,,,,,,,,,,,,,,,,,,,,,,,,,,,,,,,,,,,,,,,,,,,,,,,,,,,,,,
,,,,,,,,,,,,a,0.61764,Correct!,,,,,,t5.png,t4.png,1,0.9,20,female,2020-11-24_12h27.44.349,torte-2b,2020.1.3,MacIntel,60,13189,,,,,0,16,16,76,1,,,,,,,,,,,,,,,,,,,,,,,,,,,,,,,,,,,,,,,,,,,,,,,,,,,,,,,,
,,,,,,,,,,,,l,0.703145,Correct!,,,,,,t1.png,t5.png,4,9.55E-11,20,female,2020-11-24_12h27.44.349,torte-2b,2020.1.3,MacIntel,60,13189,,,,,0,17,17,16,1,,,,,,,,,,,,,,,,,,,,,,,,,,,,,,,,,,,,,,,,,,,,,,,,,,,,,,,,
,,,,,,,,,,,,a,0.68451,Incorrect,,,,,,t4.png,t1.png,3,0.0000131,20,female,2020-11-24_12h27.44.349,torte-2b,2020.1.3,MacIntel,60,13189,,,,,0,18,18,42,1,,,,,,,,,,,,,,,,,,,,,,,,,,,,,,,,,,,,,,,,,,,,,,,,,,,,,,,,
,,,,,,,,,,,,a,0.63377,Incorrect,,,,,,t4.png,t1.png,3,0.0000131,20,female,2020-11-24_12h27.44.349,torte-2b,2020.1.3,MacIntel,60,13189,,,,,0,19,19,93,1,,,,,,,,,,,,,,,,,,,,,,,,,,,,,,,,,,,,,,,,,,,,,,,,,,,,,,,,
,,,,,,,,,,,,a,1.3524,Correct!,,,,,,t2.png,t2.png,0,0.981,20,female,2020-11-24_12h27.44.349,torte-2b,2020.1.3,MacIntel,60,13189,,,,,0,20,20,101,1,,,,,,,,,,,,,,,,,,,,,,,,,,,,,,,,,,,,,,,,,,,,,,,,,,,,,,,,
,,,,,,,,,,,,a,0.65149,Incorrect,,,,,,t2.png,t4.png,2,0.059078,20,female,2020-11-24_12h27.44.349,torte-2b,2020.1.3,MacIntel,60,13189,,,,,0,21,21,24,1,,,,,,,,,,,,,,,,,,,,,,,,,,,,,,,,,,,,,,,,,,,,,,,,,,,,,,,,
,,,,,,,,,,,,a,0.683235,Incorrect,,,,,,t5.png,t3.png,2,0.056466,20,female,2020-11-24_12h27.44.349,torte-2b,2020.1.3,MacIntel,60,13189,,,,,0,22,22,114,1,,,,,,,,,,,,,,,,,,,,,,,,,,,,,,,,,,,,,,,,,,,,,,,,,,,,,,,,
,,,,,,,,,,,,l,0.68398,Correct!,,,,,,t1.png,t4.png,3,0.0000131,20,female,2020-11-24_12h27.44.349,torte-2b,2020.1.3,MacIntel,60,13189,,,,,0,23,23,107,1,,,,,,,,,,,,,,,,,,,,,,,,,,,,,,,,,,,,,,,,,,,,,,,,,,,,,,,,
,,,,,,,,,,,,a,0.58388,Correct!,,,,,,t4.png,t3.png,1,0.90855,20,female,2020-11-24_12h27.44.349,torte-2b,2020.1.3,MacIntel,60,13189,,,,,0,24,24,45,1,,,,,,,,,,,,,,,,,,,,,,,,,,,,,,,,,,,,,,,,,,,,,,,,,,,,,,,,
,,,,,,,,,,,,l,0.335375,Incorrect,,,,,,t3.png,t4.png,1,0.909,20,female,2020-11-24_12h27.44.349,torte-2b,2020.1.3,MacIntel,60,13189,,,,,0,25,25,106,1,,,,,,,,,,,,,,,,,,,,,,,,,,,,,,,,,,,,,,,,,,,,,,,,,,,,,,,,
,,,,,,,,,,,,a,0.617925,Correct!,,,,,,t5.png,t4.png,1,0.90025,20,female,2020-11-24_12h27.44.349,torte-2b,2020.1.3,MacIntel,60,13189,,,,,0,26,26,34,1,,,,,,,,,,,,,,,,,,,,,,,,,,,,,,,,,,,,,,,,,,,,,,,,,,,,,,,,
,,,,,,,,,,,,l,0.700515,Incorrect,,,,,,t2.png,t3.png,1,0.90855,20,female,2020-11-24_12h27.44.349,torte-2b,2020.1.3,MacIntel,60,13189,,,,,0,27,27,65,1,,,,,,,,,,,,,,,,,,,,,,,,,,,,,,,,,,,,,,,,,,,,,,,,,,,,,,,,
,,,,,,,,,,,,l,1.118995,Incorrect,,,,,,t2.png,t3.png,1,0.90855,20,female,2020-11-24_12h27.44.349,torte-2b,2020.1.3,MacIntel,60,13189,,,,,0,28,28,10,1,,,,,,,,,,,,,,,,,,,,,,,,,,,,,,,,,,,,,,,,,,,,,,,,,,,,,,,,
,,,,,,,,,,,,a,1.013415,Correct!,,,,,,t1.png,t1.png,0,0.978,20,female,2020-11-24_12h27.44.349,torte-2b,2020.1.3,MacIntel,60,13189,,,,,0,29,29,28,1,,,,,,,,,,,,,,,,,,,,,,,,,,,,,,,,,,,,,,,,,,,,,,,,,,,,,,,,
,,,,,,,,,,,,a,0.735375,Correct!,,,,,,t4.png,t5.png,1,0.90025,20,female,2020-11-24_12h27.44.349,torte-2b,2020.1.3,MacIntel,60,13189,,,,,0,30,30,47,1,,,,,,,,,,,,,,,,,,,,,,,,,,,,,,,,,,,,,,,,,,,,,,,,,,,,,,,,
,,,,,,,,,,,,l,0.55421,Correct!,,,,,,t1.png,t4.png,3,0.0000131,20,female,2020-11-24_12h27.44.349,torte-2b,2020.1.3,MacIntel,60,13189,,,,,0,31,31,17,1,,,,,,,,,,,,,,,,,,,,,,,,,,,,,,,,,,,,,,,,,,,,,,,,,,,,,,,,
,,,,,,,,,,,,l,0.667675,Incorrect,,,,,,t3.png,t5.png,2,0.056466,20,female,2020-11-24_12h27.44.349,torte-2b,2020.1.3,MacIntel,60,13189,,,,,0,32,32,14,1,,,,,,,,,,,,,,,,,,,,,,,,,,,,,,,,,,,,,,,,,,,,,,,,,,,,,,,,
,,,,,,,,,,,,l,0.649805,Correct!,,,,,,t1.png,t3.png,2,0.056466,20,female,2020-11-24_12h27.44.349,torte-2b,2020.1.3,MacIntel,60,13189,,,,,0,33,33,63,1,,,,,,,,,,,,,,,,,,,,,,,,,,,,,,,,,,,,,,,,,,,,,,,,,,,,,,,,
,,,,,,,,,,,,l,0.534275,Correct!,,,,,,t1.png,t5.png,4,9.55E-11,20,female,2020-11-24_12h27.44.349,torte-2b,2020.1.3,MacIntel,60,13189,,,,,0,34,34,55,1,,,,,,,,,,,,,,,,,,,,,,,,,,,,,,,,,,,,,,,,,,,,,,,,,,,,,,,,
,,,,,,,,,,,,l,0.600755,Correct!,,,,,,t3.png,t5.png,2,0.0565,20,female,2020-11-24_12h27.44.349,torte-2b,2020.1.3,MacIntel,60,13189,,,,,0,35,35,30,1,,,,,,,,,,,,,,,,,,,,,,,,,,,,,,,,,,,,,,,,,,,,,,,,,,,,,,,,
,,,,,,,,,,,,l,0.4679,Correct!,,,,,,t5.png,t2.png,3,0.0000131,20,female,2020-11-24_12h27.44.349,torte-2b,2020.1.3,MacIntel,60,13189,,,,,0,36,36,116,1,,,,,,,,,,,,,,,,,,,,,,,,,,,,,,,,,,,,,,,,,,,,,,,,,,,,,,,,
,,,,,,,,,,,,a,0.734975,Incorrect,,,,,,t4.png,t5.png,1,0.90025,20,female,2020-11-24_12h27.44.349,torte-2b,2020.1.3,MacIntel,60,13189,,,,,0,37,37,103,1,,,,,,,,,,,,,,,,,,,,,,,,,,,,,,,,,,,,,,,,,,,,,,,,,,,,,,,,
,,,,,,,,,,,,l,0.801795,Correct!,,,,,,t2.png,t4.png,2,0.059078,20,female,2020-11-24_12h27.44.349,torte-2b,2020.1.3,MacIntel,60,13189,,,,,0,38,38,77,1,,,,,,,,,,,,,,,,,,,,,,,,,,,,,,,,,,,,,,,,,,,,,,,,,,,,,,,,
,,,,,,,,,,,,,,Too slow :(,,,,,,t1.png,t2.png,1,0.9,20,female,2020-11-24_12h27.44.349,torte-2b,2020.1.3,MacIntel,60,13189,,,,,0,39,39,1,1,,,,,,,,,,,,,,,,,,,,,,,,,,,,,,,,,,,,,,,,,,,,,,,,,,,,,,,,
,,,,,,,,,,,,a,0.585475,Correct!,,,,,,t4.png,t4.png,0,0.98115,20,female,2020-11-24_12h27.44.349,torte-2b,2020.1.3,MacIntel,60,13189,,,,,0,40,40,80,1,,,,,,,,,,,,,,,,,,,,,,,,,,,,,,,,,,,,,,,,,,,,,,,,,,,,,,,,
,,,,,,,,,,,,l,0.75369,Incorrect,,,,,,t1.png,t2.png,1,0.90025,20,female,2020-11-24_12h27.44.349,torte-2b,2020.1.3,MacIntel,60,13189,,,,,0,41,41,112,1,,,,,,,,,,,,,,,,,,,,,,,,,,,,,,,,,,,,,,,,,,,,,,,,,,,,,,,,
,,,,,,,,,,,,a,0.63299,Correct!,,,,,,t4.png,t4.png,0,0.98115,20,female,2020-11-24_12h27.44.349,torte-2b,2020.1.3,MacIntel,60,13189,,,,,0,42,42,79,1,,,,,,,,,,,,,,,,,,,,,,,,,,,,,,,,,,,,,,,,,,,,,,,,,,,,,,,,
,,,,,,,,,,,,a,2.239885,Incorrect,,,,,,t5.png,t3.png,2,0.056466,20,female,2020-11-24_12h27.44.349,torte-2b,2020.1.3,MacIntel,60,13189,,,,,0,43,43,108,1,,,,,,,,,,,,,,,,,,,,,,,,,,,,,,,,,,,,,,,,,,,,,,,,,,,,,,,,
,,,,,,,,,,,,a,0.76759,Correct!,,,,,,t4.png,t3.png,1,0.909,20,female,2020-11-24_12h27.44.349,torte-2b,2020.1.3,MacIntel,60,13189,,,,,0,44,44,20,1,,,,,,,,,,,,,,,,,,,,,,,,,,,,,,,,,,,,,,,,,,,,,,,,,,,,,,,,
,,,,,,,,,,,,a,1.05216,Correct!,,,,,,t5.png,t5.png,0,0.97829,20,female,2020-11-24_12h27.44.349,torte-2b,2020.1.3,MacIntel,60,13189,,,,,0,45,45,70,1,,,,,,,,,,,,,,,,,,,,,,,,,,,,,,,,,,,,,,,,,,,,,,,,,,,,,,,,
,,,,,,,,,,,,l,0.550935,Correct!,,,,,,t2.png,t5.png,3,0.0000131,20,female,2020-11-24_12h27.44.349,torte-2b,2020.1.3,MacIntel,60,13189,,,,,0,46,46,8,1,,,,,,,,,,,,,,,,,,,,,,,,,,,,,,,,,,,,,,,,,,,,,,,,,,,,,,,,
,,,,,,,,,,,,a,0.766945,Correct!,,,,,,t3.png,t2.png,1,0.90855,20,female,2020-11-24_12h27.44.349,torte-2b,2020.1.3,MacIntel,60,13189,,,,,0,47,47,18,1,,,,,,,,,,,,,,,,,,,,,,,,,,,,,,,,,,,,,,,,,,,,,,,,,,,,,,,,
,,,,,,,,,,,,a,1.001005,Correct!,,,,,,t2.png,t1.png,1,0.90025,20,female,2020-11-24_12h27.44.349,torte-2b,2020.1.3,MacIntel,60,13189,,,,,0,48,48,62,1,,,,,,,,,,,,,,,,,,,,,,,,,,,,,,,,,,,,,,,,,,,,,,,,,,,,,,,,
,,,,,,,,,,,,a,0.98415,Incorrect,,,,,,t4.png,t2.png,2,0.0591,20,female,2020-11-24_12h27.44.349,torte-2b,2020.1.3,MacIntel,60,13189,,,,,0,49,49,36,1,,,,,,,,,,,,,,,,,,,,,,,,,,,,,,,,,,,,,,,,,,,,,,,,,,,,,,,,
,,,,,,,,,,,,a,1.06717,Correct!,,,,,,t2.png,t2.png,0,0.98115,20,female,2020-11-24_12h27.44.349,torte-2b,2020.1.3,MacIntel,60,13189,,,,,0,50,50,57,1,,,,,,,,,,,,,,,,,,,,,,,,,,,,,,,,,,,,,,,,,,,,,,,,,,,,,,,,
,,,,,,,,,,,,l,0.669335,Correct!,,,,,,t2.png,t5.png,3,0.0000131,20,female,2020-11-24_12h27.44.349,torte-2b,2020.1.3,MacIntel,60,13189,,,,,0,51,51,104,1,,,,,,,,,,,,,,,,,,,,,,,,,,,,,,,,,,,,,,,,,,,,,,,,,,,,,,,,
,,,,,,,,,,,,l,0.737445,Incorrect,,,,,,t2.png,t2.png,0,0.98115,20,female,2020-11-24_12h27.44.349,torte-2b,2020.1.3,MacIntel,60,13189,,,,,0,52,52,2,1,,,,,,,,,,,,,,,,,,,,,,,,,,,,,,,,,,,,,,,,,,,,,,,,,,,,,,,,
,,,,,,,,,,,,l,0.656285,Incorrect,,,,,,t3.png,t4.png,1,0.909,20,female,2020-11-24_12h27.44.349,torte-2b,2020.1.3,MacIntel,60,13189,,,,,0,53,53,89,1,,,,,,,,,,,,,,,,,,,,,,,,,,,,,,,,,,,,,,,,,,,,,,,,,,,,,,,,
,,,,,,,,,,,,a,0.850985,Incorrect,,,,,,t4.png,t2.png,2,0.059078,20,female,2020-11-24_12h27.44.349,torte-2b,2020.1.3,MacIntel,60,13189,,,,,0,54,54,88,1,,,,,,,,,,,,,,,,,,,,,,,,,,,,,,,,,,,,,,,,,,,,,,,,,,,,,,,,
,,,,,,,,,,,,a,1.018465,Correct!,,,,,,t4.png,t4.png,0,0.98115,20,female,2020-11-24_12h27.44.349,torte-2b,2020.1.3,MacIntel,60,13189,,,,,0,55,55,52,1,,,,,,,,,,,,,,,,,,,,,,,,,,,,,,,,,,,,,,,,,,,,,,,,,,,,,,,,
,,,,,,,,,,,,a,0.69983,Incorrect,,,,,,t5.png,t1.png,4,9.55E-11,20,female,2020-11-24_12h27.44.349,torte-2b,2020.1.3,MacIntel,60,13189,,,,,0,56,56,43,1,,,,,,,,,,,,,,,,,,,,,,,,,,,,,,,,,,,,,,,,,,,,,,,,,,,,,,,,
,,,,,,,,,,,,a,1.08516,Incorrect,,,,,,t5.png,t3.png,2,0.056466,20,female,2020-11-24_12h27.44.349,torte-2b,2020.1.3,MacIntel,60,13189,,,,,0,57,57,56,1,,,,,,,,,,,,,,,,,,,,,,,,,,,,,,,,,,,,,,,,,,,,,,,,,,,,,,,,
,,,,,,,,,,,,l,0.783375,Correct!,,,,,,t3.png,t5.png,2,0.056466,20,female,2020-11-24_12h27.44.349,torte-2b,2020.1.3,MacIntel,60,13189,,,,,0,58,58,6,1,,,,,,,,,,,,,,,,,,,,,,,,,,,,,,,,,,,,,,,,,,,,,,,,,,,,,,,,
,,,,,,,,,,,,l,1.767125,Incorrect,,,,,,t4.png,t5.png,1,0.9,20,female,2020-11-24_12h27.44.349,torte-2b,2020.1.3,MacIntel,60,13189,,,,,0,59,59,115,1,,,,,,,,,,,,,,,,,,,,,,,,,,,,,,,,,,,,,,,,,,,,,,,,,,,,,,,,
,,,,,,,,,,,,a,0.75505,Incorrect,,,,,,t4.png,t1.png,3,0.0000131,20,female,2020-11-24_12h27.44.349,torte-2b,2020.1.3,MacIntel,60,13189,,,,,0,60,60,48,1,,,,,,,,,,,,,,,,,,,,,,,,,,,,,,,,,,,,,,,,,,,,,,,,,,,,,,,,
,,,,,,,,,,,,a,0.63472,Incorrect,,,,,,t5.png,t3.png,2,0.056466,20,female,2020-11-24_12h27.44.349,torte-2b,2020.1.3,MacIntel,60,13189,,,,,0,61,61,38,1,,,,,,,,,,,,,,,,,,,,,,,,,,,,,,,,,,,,,,,,,,,,,,,,,,,,,,,,
,,,,,,,,,,,,l,0.58339,Correct!,,,,,,t1.png,t3.png,2,0.056466,20,female,2020-11-24_12h27.44.349,torte-2b,2020.1.3,MacIntel,60,13189,,,,,0,62,62,87,1,,,,,,,,,,,,,,,,,,,,,,,,,,,,,,,,,,,,,,,,,,,,,,,,,,,,,,,,
,,,,,,,,,,,,l,0.718015,Correct!,,,,,,t2.png,t5.png,3,0.0000131,20,female,2020-11-24_12h27.44.349,torte-2b,2020.1.3,MacIntel,60,13189,,,,,0,63,63,40,1,,,,,,,,,,,,,,,,,,,,,,,,,,,,,,,,,,,,,,,,,,,,,,,,,,,,,,,,
,,,,,,,,,,,,a,0.75076,Incorrect,,,,,,t5.png,t2.png,3,0.0000131,20,female,2020-11-24_12h27.44.349,torte-2b,2020.1.3,MacIntel,60,13189,,,,,0,64,64,91,1,,,,,,,,,,,,,,,,,,,,,,,,,,,,,,,,,,,,,,,,,,,,,,,,,,,,,,,,
,,,,,,,,,,,,a,0.851085,Incorrect,,,,,,t4.png,t2.png,2,0.059078,20,female,2020-11-24_12h27.44.349,torte-2b,2020.1.3,MacIntel,60,13189,,,,,0,65,65,86,1,,,,,,,,,,,,,,,,,,,,,,,,,,,,,,,,,,,,,,,,,,,,,,,,,,,,,,,,
,,,,,,,,,,,,a,0.801405,Incorrect,,,,,,t4.png,t1.png,3,0.0000131,20,female,2020-11-24_12h27.44.349,torte-2b,2020.1.3,MacIntel,60,13189,,,,,0,66,66,13,1,,,,,,,,,,,,,,,,,,,,,,,,,,,,,,,,,,,,,,,,,,,,,,,,,,,,,,,,
,,,,,,,,,,,,a,0.667295,Correct!,,,,,,t3.png,t2.png,1,0.909,20,female,2020-11-24_12h27.44.349,torte-2b,2020.1.3,MacIntel,60,13189,,,,,0,67,67,23,1,,,,,,,,,,,,,,,,,,,,,,,,,,,,,,,,,,,,,,,,,,,,,,,,,,,,,,,,
,,,,,,,,,,,,a,1.11794,Correct!,,,,,,t4.png,t3.png,1,0.909,20,female,2020-11-24_12h27.44.349,torte-2b,2020.1.3,MacIntel,60,13189,,,,,0,68,68,46,1,,,,,,,,,,,,,,,,,,,,,,,,,,,,,,,,,,,,,,,,,,,,,,,,,,,,,,,,
,,,,,,,,,,,,a,0.61732,Incorrect,,,,,,t2.png,t1.png,1,0.90025,20,female,2020-11-24_12h27.44.349,torte-2b,2020.1.3,MacIntel,60,13189,,,,,0,69,69,4,1,,,,,,,,,,,,,,,,,,,,,,,,,,,,,,,,,,,,,,,,,,,,,,,,,,,,,,,,
,,,,,,,,,,,,a,0.6507,Incorrect,,,,,,t4.png,t2.png,2,0.059078,20,female,2020-11-24_12h27.44.349,torte-2b,2020.1.3,MacIntel,60,13189,,,,,0,70,70,110,1,,,,,,,,,,,,,,,,,,,,,,,,,,,,,,,,,,,,,,,,,,,,,,,,,,,,,,,,
,,,,,,,,,,,,a,0.91875,Correct!,,,,,,t3.png,t4.png,1,0.909,20,female,2020-11-24_12h27.44.349,torte-2b,2020.1.3,MacIntel,60,13189,,,,,0,71,71,82,1,,,,,,,,,,,,,,,,,,,,,,,,,,,,,,,,,,,,,,,,,,,,,,,,,,,,,,,,
,,,,,,,,,,,,l,0.56775,Correct!,,,,,,t1.png,t3.png,2,0.056466,20,female,2020-11-24_12h27.44.349,torte-2b,2020.1.3,MacIntel,60,13189,,,,,0,72,72,69,1,,,,,,,,,,,,,,,,,,,,,,,,,,,,,,,,,,,,,,,,,,,,,,,,,,,,,,,,
,,,,,,,,,,,,a,0.587005,Incorrect,,,,,,t3.png,t1.png,2,0.056466,20,female,2020-11-24_12h27.44.349,torte-2b,2020.1.3,MacIntel,60,13189,,,,,0,73,73,64,1,,,,,,,,,,,,,,,,,,,,,,,,,,,,,,,,,,,,,,,,,,,,,,,,,,,,,,,,
,,,,,,,,,,,,l,0.60488,Incorrect,,,,,,t2.png,t2.png,0,0.98115,20,female,2020-11-24_12h27.44.349,torte-2b,2020.1.3,MacIntel,60,13189,,,,,0,74,74,59,1,,,,,,,,,,,,,,,,,,,,,,,,,,,,,,,,,,,,,,,,,,,,,,,,,,,,,,,,
,,,,,,,,,,,,l,0.701965,Correct!,,,,,,t1.png,t5.png,4,9.55E-11,20,female,2020-11-24_12h27.44.349,torte-2b,2020.1.3,MacIntel,60,13189,,,,,0,75,75,85,1,,,,,,,,,,,,,,,,,,,,,,,,,,,,,,,,,,,,,,,,,,,,,,,,,,,,,,,,
,,,,,,,,,,,,a,0.61716,Incorrect,,,,,,t3.png,t1.png,2,0.056466,20,female,2020-11-24_12h27.44.349,torte-2b,2020.1.3,MacIntel,60,13189,,,,,0,76,76,32,1,,,,,,,,,,,,,,,,,,,,,,,,,,,,,,,,,,,,,,,,,,,,,,,,,,,,,,,,
,,,,,,,,,,,,l,0.583845,Incorrect,,,,,,t1.png,t2.png,1,0.90025,20,female,2020-11-24_12h27.44.349,torte-2b,2020.1.3,MacIntel,60,13189,,,,,0,77,77,105,1,,,,,,,,,,,,,,,,,,,,,,,,,,,,,,,,,,,,,,,,,,,,,,,,,,,,,,,,
,,,,,,,,,,,,l,1.900405,Incorrect,,,,,,t4.png,t4.png,0,0.98115,20,female,2020-11-24_12h27.44.349,torte-2b,2020.1.3,MacIntel,60,13189,,,,,0,78,78,90,1,,,,,,,,,,,,,,,,,,,,,,,,,,,,,,,,,,,,,,,,,,,,,,,,,,,,,,,,
,,,,,,,,,,,,l,0.6178,Correct!,,,,,,t1.png,t5.png,4,9.55E-11,20,female,2020-11-24_12h27.44.349,torte-2b,2020.1.3,MacIntel,60,13189,,,,,0,79,79,12,1,,,,,,,,,,,,,,,,,,,,,,,,,,,,,,,,,,,,,,,,,,,,,,,,,,,,,,,,
,,,,,,,,,,,,l,0.673925,Incorrect,,,,,,t4.png,t5.png,1,0.90025,20,female,2020-11-24_12h27.44.349,torte-2b,2020.1.3,MacIntel,60,13189,,,,,0,80,80,113,1,,,,,,,,,,,,,,,,,,,,,,,,,,,,,,,,,,,,,,,,,,,,,,,,,,,,,,,,
,,,,,,,,,,,,l,0.717345,Incorrect,,,,,,t1.png,t2.png,1,0.90025,20,female,2020-11-24_12h27.44.349,torte-2b,2020.1.3,MacIntel,60,13189,,,,,0,81,81,33,1,,,,,,,,,,,,,,,,,,,,,,,,,,,,,,,,,,,,,,,,,,,,,,,,,,,,,,,,
,,,,,,,,,,,,a,0.77192,Correct!,,,,,,t5.png,t4.png,1,0.9,20,female,2020-11-24_12h27.44.349,torte-2b,2020.1.3,MacIntel,60,13189,,,,,0,82,82,49,1,,,,,,,,,,,,,,,,,,,,,,,,,,,,,,,,,,,,,,,,,,,,,,,,,,,,,,,,
,,,,,,,,,,,,l,0.499835,Correct!,,,,,,t2.png,t5.png,3,0.0000131,20,female,2020-11-24_12h27.44.349,torte-2b,2020.1.3,MacIntel,60,13189,,,,,0,83,83,66,1,,,,,,,,,,,,,,,,,,,,,,,,,,,,,,,,,,,,,,,,,,,,,,,,,,,,,,,,
,,,,,,,,,,,,l,0.57071,Correct!,,,,,,t1.png,t5.png,4,9.55E-11,20,female,2020-11-24_12h27.44.349,torte-2b,2020.1.3,MacIntel,60,13189,,,,,0,84,84,41,1,,,,,,,,,,,,,,,,,,,,,,,,,,,,,,,,,,,,,,,,,,,,,,,,,,,,,,,,
,,,,,,,,,,,,l,0.450075,Incorrect,,,,,,t3.png,t2.png,1,0.909,20,female,2020-11-24_12h27.44.349,torte-2b,2020.1.3,MacIntel,60,13189,,,,,0,85,85,3,1,,,,,,,,,,,,,,,,,,,,,,,,,,,,,,,,,,,,,,,,,,,,,,,,,,,,,,,,
,,,,,,,,,,,,a,0.58437,Incorrect,,,,,,t5.png,t1.png,4,9.55E-11,20,female,2020-11-24_12h27.44.349,torte-2b,2020.1.3,MacIntel,60,13189,,,,,0,86,86,102,1,,,,,,,,,,,,,,,,,,,,,,,,,,,,,,,,,,,,,,,,,,,,,,,,,,,,,,,,
,,,,,,,,,,,,a,1.601145,Correct!,,,,,,t2.png,t1.png,1,0.9,20,female,2020-11-24_12h27.44.349,torte-2b,2020.1.3,MacIntel,60,13189,,,,,0,87,87,118,1,,,,,,,,,,,,,,,,,,,,,,,,,,,,,,,,,,,,,,,,,,,,,,,,,,,,,,,,
,,,,,,,,,,,,a,0.651385,Incorrect,,,,,,t5.png,t2.png,3,0.0000131,20,female,2020-11-24_12h27.44.349,torte-2b,2020.1.3,MacIntel,60,13189,,,,,0,88,88,119,1,,,,,,,,,,,,,,,,,,,,,,,,,,,,,,,,,,,,,,,,,,,,,,,,,,,,,,,,
,,,,,,,,,,,,l,1.699585,Correct!,,,,,,t4.png,t5.png,1,0.90025,20,female,2020-11-24_12h27.44.349,torte-2b,2020.1.3,MacIntel,60,13189,,,,,0,89,89,58,1,,,,,,,,,,,,,,,,,,,,,,,,,,,,,,,,,,,,,,,,,,,,,,,,,,,,,,,,
,,,,,,,,,,,,a,0.769525,Incorrect,,,,,,t3.png,t1.png,2,0.0565,20,female,2020-11-24_12h27.44.349,torte-2b,2020.1.3,MacIntel,60,13189,,,,,0,90,90,31,1,,,,,,,,,,,,,,,,,,,,,,,,,,,,,,,,,,,,,,,,,,,,,,,,,,,,,,,,
,,,,,,,,,,,,a,0.719085,Incorrect,,,,,,t5.png,t1.png,4,9.55E-11,20,female,2020-11-24_12h27.44.349,torte-2b,2020.1.3,MacIntel,60,13189,,,,,0,91,91,100,1,,,,,,,,,,,,,,,,,,,,,,,,,,,,,,,,,,,,,,,,,,,,,,,,,,,,,,,,
,,,,,,,,,,,,l,0.56671,Correct!,,,,,,t2.png,t4.png,2,0.059078,20,female,2020-11-24_12h27.44.349,torte-2b,2020.1.3,MacIntel,60,13189,,,,,0,92,92,11,1,,,,,,,,,,,,,,,,,,,,,,,,,,,,,,,,,,,,,,,,,,,,,,,,,,,,,,,,
,,,,,,,,,,,,a,1.134065,Correct!,,,,,,t1.png,t1.png,0,0.97829,20,female,2020-11-24_12h27.44.349,torte-2b,2020.1.3,MacIntel,60,13189,,,,,0,93,93,67,1,,,,,,,,,,,,,,,,,,,,,,,,,,,,,,,,,,,,,,,,,,,,,,,,,,,,,,,,
,,,,,,,,,,,,l,0.69973,Incorrect,,,,,,t2.png,t3.png,1,0.909,20,female,2020-11-24_12h27.44.349,torte-2b,2020.1.3,MacIntel,60,13189,,,,,0,94,94,74,1,,,,,,,,,,,,,,,,,,,,,,,,,,,,,,,,,,,,,,,,,,,,,,,,,,,,,,,,
,,,,,,,,,,,,a,0.619915,Incorrect,,,,,,t4.png,t2.png,2,0.059078,20,female,2020-11-24_12h27.44.349,torte-2b,2020.1.3,MacIntel,60,13189,,,,,0,95,95,109,1,,,,,,,,,,,,,,,,,,,,,,,,,,,,,,,,,,,,,,,,,,,,,,,,,,,,,,,,
,,,,,,,,,,,,a,0.88515,Correct!,,,,,,t5.png,t4.png,1,0.90025,20,female,2020-11-24_12h27.44.349,torte-2b,2020.1.3,MacIntel,60,13189,,,,,0,96,96,27,1,,,,,,,,,,,,,,,,,,,,,,,,,,,,,,,,,,,,,,,,,,,,,,,,,,,,,,,,
,,,,,,,,,,,,l,0.650815,Correct!,,,,,,t1.png,t4.png,3,0.0000131,20,female,2020-11-24_12h27.44.349,torte-2b,2020.1.3,MacIntel,60,13189,,,,,0,97,97,81,1,,,,,,,,,,,,,,,,,,,,,,,,,,,,,,,,,,,,,,,,,,,,,,,,,,,,,,,,
,,,,,,,,,,,,a,0.73334,Correct!,,,,,,t5.png,t4.png,1,0.90025,20,female,2020-11-24_12h27.44.349,torte-2b,2020.1.3,MacIntel,60,13189,,,,,0,98,98,26,1,,,,,,,,,,,,,,,,,,,,,,,,,,,,,,,,,,,,,,,,,,,,,,,,,,,,,,,,
,,,,,,,,,,,,l,0.584095,Incorrect,,,,,,t3.png,t4.png,1,0.90855,20,female,2020-11-24_12h27.44.349,torte-2b,2020.1.3,MacIntel,60,13189,,,,,0,99,99,84,1,,,,,,,,,,,,,,,,,,,,,,,,,,,,,,,,,,,,,,,,,,,,,,,,,,,,,,,,
,,,,,,,,,,,,l,0.901135,Correct!,,,,,,t3.png,t5.png,2,0.056466,20,female,2020-11-24_12h27.44.349,torte-2b,2020.1.3,MacIntel,60,13189,,,,,0,100,100,44,1,,,,,,,,,,,,,,,,,,,,,,,,,,,,,,,,,,,,,,,,,,,,,,,,,,,,,,,,
,,,,,,,,,,,,a,2.302215,Correct!,,,,,,t5.png,t5.png,0,0.978,20,female,2020-11-24_12h27.44.349,torte-2b,2020.1.3,MacIntel,60,13189,,,,,0,101,101,117,1,,,,,,,,,,,,,,,,,,,,,,,,,,,,,,,,,,,,,,,,,,,,,,,,,,,,,,,,
,,,,,,,,,,,,a,0.61809,Incorrect,,,,,,t4.png,t1.png,3,0.0000131,20,female,2020-11-24_12h27.44.349,torte-2b,2020.1.3,MacIntel,60,13189,,,,,0,102,102,61,1,,,,,,,,,,,,,,,,,,,,,,,,,,,,,,,,,,,,,,,,,,,,,,,,,,,,,,,,
,,,,,,,,,,,,a,1.016495,Correct!,,,,,,t3.png,t2.png,1,0.90855,20,female,2020-11-24_12h27.44.349,torte-2b,2020.1.3,MacIntel,60,13189,,,,,0,103,103,53,1,,,,,,,,,,,,,,,,,,,,,,,,,,,,,,,,,,,,,,,,,,,,,,,,,,,,,,,,
,,,,,,,,,,,,a,0.80311,Correct!,,,,,,t5.png,t5.png,0,0.97829,20,female,2020-11-24_12h27.44.349,torte-2b,2020.1.3,MacIntel,60,13189,,,,,0,104,104,25,1,,,,,,,,,,,,,,,,,,,,,,,,,,,,,,,,,,,,,,,,,,,,,,,,,,,,,,,,
,,,,,,,,,,,,a,0.65015,Incorrect,,,,,,t5.png,t3.png,2,0.0565,20,female,2020-11-24_12h27.44.349,torte-2b,2020.1.3,MacIntel,60,13189,,,,,0,105,105,39,1,,,,,,,,,,,,,,,,,,,,,,,,,,,,,,,,,,,,,,,,,,,,,,,,,,,,,,,,
,,,,,,,,,,,,l,0.734935,Incorrect,,,,,,t2.png,t3.png,1,0.90855,20,female,2020-11-24_12h27.44.349,torte-2b,2020.1.3,MacIntel,60,13189,,,,,0,106,106,111,1,,,,,,,,,,,,,,,,,,,,,,,,,,,,,,,,,,,,,,,,,,,,,,,,,,,,,,,,
,,,,,,,,,,,,a,0.51832,Correct!,,,,,,t4.png,t3.png,1,0.90855,20,female,2020-11-24_12h27.44.349,torte-2b,2020.1.3,MacIntel,60,13189,,,,,0,107,107,75,1,,,,,,,,,,,,,,,,,,,,,,,,,,,,,,,,,,,,,,,,,,,,,,,,,,,,,,,,
,,,,,,,,,,,,l,0.79987,Incorrect,,,,,,t1.png,t2.png,1,0.90025,20,female,2020-11-24_12h27.44.349,torte-2b,2020.1.3,MacIntel,60,13189,,,,,0,108,108,72,1,,,,,,,,,,,,,,,,,,,,,,,,,,,,,,,,,,,,,,,,,,,,,,,,,,,,,,,,
,,,,,,,,,,,,a,1.401875,Correct!,,,,,,t1.png,t1.png,0,0.978,20,female,2020-11-24_12h27.44.349,torte-2b,2020.1.3,MacIntel,60,13189,,,,,0,109,109,54,1,,,,,,,,,,,,,,,,,,,,,,,,,,,,,,,,,,,,,,,,,,,,,,,,,,,,,,,,
,,,,,,,,,,,,a,0.731775,Correct!,,,,,,t3.png,t2.png,1,0.90855,20,female,2020-11-24_12h27.44.349,torte-2b,2020.1.3,MacIntel,60,13189,,,,,0,110,110,97,1,,,,,,,,,,,,,,,,,,,,,,,,,,,,,,,,,,,,,,,,,,,,,,,,,,,,,,,,
,,,,,,,,,,,,a,0.755635,Correct!,,,,,,t2.png,t1.png,1,0.90025,20,female,2020-11-24_12h27.44.349,torte-2b,2020.1.3,MacIntel,60,13189,,,,,0,111,111,5,1,,,,,,,,,,,,,,,,,,,,,,,,,,,,,,,,,,,,,,,,,,,,,,,,,,,,,,,,
,,,,,,,,,,,,a,0.70289,Correct!,,,,,,t5.png,t5.png,0,0.97829,20,female,2020-11-24_12h27.44.349,torte-2b,2020.1.3,MacIntel,60,13189,,,,,0,112,112,94,1,,,,,,,,,,,,,,,,,,,,,,,,,,,,,,,,,,,,,,,,,,,,,,,,,,,,,,,,
,,,,,,,,,,,,a,0.4163,Incorrect,,,,,,t5.png,t1.png,4,9.55E-11,20,female,2020-11-24_12h27.44.349,torte-2b,2020.1.3,MacIntel,60,13189,,,,,0,113,113,71,1,,,,,,,,,,,,,,,,,,,,,,,,,,,,,,,,,,,,,,,,,,,,,,,,,,,,,,,,
,,,,,,,,,,,,a,0.83399,Correct!,,,,,,t2.png,t3.png,1,0.90855,20,female,2020-11-24_12h27.44.349,torte-2b,2020.1.3,MacIntel,60,13189,,,,,0,114,114,68,1,,,,,,,,,,,,,,,,,,,,,,,,,,,,,,,,,,,,,,,,,,,,,,,,,,,,,,,,
,,,,,,,,,,,,a,1.400325,Correct!,,,,,,t2.png,t2.png,0,0.98115,20,female,2020-11-24_12h27.44.349,torte-2b,2020.1.3,MacIntel,60,13189,,,,,0,115,115,7,1,,,,,,,,,,,,,,,,,,,,,,,,,,,,,,,,,,,,,,,,,,,,,,,,,,,,,,,,
,,,,,,,,,,,,a,0.636605,Incorrect,,,,,,t3.png,t1.png,2,0.056466,20,female,2020-11-24_12h27.44.349,torte-2b,2020.1.3,MacIntel,60,13189,,,,,0,116,116,0,1,,,,,,,,,,,,,,,,,,,,,,,,,,,,,,,,,,,,,,,,,,,,,,,,,,,,,,,,
,,,,,,,,,,,,a,0.750475,Correct!,,,,,,t2.png,t1.png,1,0.90025,20,female,2020-11-24_12h27.44.349,torte-2b,2020.1.3,MacIntel,60,13189,,,,,0,117,117,19,1,,,,,,,,,,,,,,,,,,,,,,,,,,,,,,,,,,,,,,,,,,,,,,,,,,,,,,,,
,,,,,,,,,,,,a,0.402825,Incorrect,,,,,,t5.png,t2.png,3,0.0000131,20,female,2020-11-24_12h27.44.349,torte-2b,2020.1.3,MacIntel,60,13189,,,,,0,118,118,98,1,,,,,,,,,,,,,,,,,,,,,,,,,,,,,,,,,,,,,,,,,,,,,,,,,,,,,,,,
,,,,,,,,,,,,l,1.268125,Correct!,,,,,,t2.png,t5.png,3,0.0000131,20,female,2020-11-24_12h27.44.349,torte-2b,2020.1.3,MacIntel,60,13189,,,,,0,119,119,95,1,,,,,,,,,,,,,,,,,,,,,,,,,,,,,,,,,,,,,,,,,,,,,,,,,,,,,,,,
,,,,,,,,,,,,,,,,,,,,,,,,20,female,2020-11-24_12h27.44.349,torte-2b,2020.1.3,MacIntel,60,13189,space,1.821055,,,,,,,,space,0.881545,space,0.662845,0,0,0,0,1,6,,,,,,,,,,,,,,,,,,,,,,,,,,,,,,,,,,,,,,,,,,,,,,
,,,,,,,,,,,,,,,,,,,,,,,,20,female,2020-11-24_12h27.44.349,torte-2b,2020.1.3,MacIntel,60,13189,,,,,,,,,,,,,,0,1,1,1,1,7,,,,,,,,,,,,,,,,,,,,,,,,,,,,,,,,,,,,,,,,,,,,,,
,,,,,,,,,,,,,,,,,,,,,,,,20,female,2020-11-24_12h27.44.349,torte-2b,2020.1.3,MacIntel,60,13189,,,,,,,,,,,,,,0,2,2,2,1,6,,,,,,,,,,,,,,,,,,,,,,,,,,,,,,,,,,,,,,,,,,,,,,
,,,,,,,,,,,,,,,,,,,,,,,,20,female,2020-11-24_12h27.44.349,torte-2b,2020.1.3,MacIntel,60,13189,,,,,,,,,,,,,,0,3,3,3,1,7,,,,,,,,,,,,,,,,,,,,,,,,,,,,,,,,,,,,,,,,,,,,,,
,,,,,,,,,,,,,,,,,,,,,,,,20,female,2020-11-24_12h27.44.349,torte-2b,2020.1.3,MacIntel,60,13189,,,,,,,,,,,,,,0,4,4,4,1,5,,,,,,,,,,,,,,,,,,,,,,,,,,,,,,,,,,,,,,,,,,,,,,
,,,,,,,,,,,,,,,,,,,,,,,,20,female,2020-11-24_12h27.44.349,torte-2b,2020.1.3,MacIntel,60,13189,,,,,,,,,,,,,,0,5,5,5,1,7,,,,,,,,,,,,,,,,,,,,,,,,,,,,,,,,,,,,,,,,,,,,,,
,,,,,,,,,,,,,,,,,,,,,,,,20,female,2020-11-24_12h27.44.349,torte-2b,2020.1.3,MacIntel,60,13189,,,,,,,,,,,,,,0,6,6,6,1,2,,,,,,,,,,,,,,,,,,,,,,,,,,,,,,,,,,,,,,,,,,,,,,
,,,,,,,,,,,,,,,,,,,,,,,,20,female,2020-11-24_12h27.44.349,torte-2b,2020.1.3,MacIntel,60,13189,,,,,,,,,,,,,,0,7,7,7,1,4,,,,,,,,,,,,,,,,,,,,,,,,,,,,,,,,,,,,,,,,,,,,,,
,,,,,,,,,,,,,,,,,,,,,,,,20,female,2020-11-24_12h27.44.349,torte-2b,2020.1.3,MacIntel,60,13189,,,,,,,,,,,,,,0,8,8,8,1,7,,,,,,,,,,,,,,,,,,,,,,,,,,,,,,,,,,,,,,,,,,,,,,
,,,,,,,,,,,,,,,,,,,,,,,,20,female,2020-11-24_12h27.44.349,torte-2b,2020.1.3,MacIntel,60,13189,,,,,,,,,,,,,,0,9,9,9,1,4,,,,,,,,,,,,,,,,,,,,,,,,,,,,,,,,,,,,,,,,,,,,,,
,,,,,,,,,,,,,,,,,,,,,,,,20,female,2020-11-24_12h27.44.349,torte-2b,2020.1.3,MacIntel,60,13189,,,,,,,,,,,,,,0,10,10,10,1,7,,,,,,,,,,,,,,,,,,,,,,,,,,,,,,,,,,,,,,,,,,,,,,
,,,,,,,,,,,,,,,,,,,,,,,,20,female,2020-11-24_12h27.44.349,torte-2b,2020.1.3,MacIntel,60,13189,,,,,,,,,,,,,,0,11,11,11,1,7,,,,,,,,,,,,,,,,,,,,,,,,,,,,,,,,,,,,,,,,,,,,,,
,,,,,,,,,,,,,,,,,,,,,,,,20,female,2020-11-24_12h27.44.349,torte-2b,2020.1.3,MacIntel,60,13189,,,,,,,,,,,,space,0.06853,0,12,12,12,1,7,,,,,,,,,,,,,,,,,,,,,,,,,,,,,,,,,,,,,,,,,,,,,,
,,,,,,,,,,,,,,,,,,,,,,,,20,female,2020-11-24_12h27.44.349,torte-2b,2020.1.3,MacIntel,60,13189,,,,,,,,,,,,,,0,13,13,13,1,4,,,,,,,,,,,,,,,,,,,,,,,,,,,,,,,,,,,,,,,,,,,,,,
,,,,,,,,,,,,,,,,,,,,,,,,20,female,2020-11-24_12h27.44.349,torte-2b,2020.1.3,MacIntel,60,13189,,,,,,,,,,,,,,0,14,14,14,1,6,,,,,,,,,,,,,,,,,,,,,,,,,,,,,,,,,,,,,,,,,,,,,,
,,,,,,,,,,,,,,,,,,,,,,,,20,female,2020-11-24_12h27.44.349,torte-2b,2020.1.3,MacIntel,60,13189,,,,,,,,,,,,,,0,15,15,15,1,4,,,,,,,,,,,,,,,,,,,,,,,,,,,,,,,,,,,,,,,,,,,,,,
,,,,,,,,,,,,,,,,,,,,,,,,20,female,2020-11-24_12h27.44.349,torte-2b,2020.1.3,MacIntel,60,13189,,,,,,,,,,,,,,0,16,16,16,1,6,,,,,,,,,,,,,,,,,,,,,,,,,,,,,,,,,,,,,,,,,,,,,,
,,,,,,,,,,,,,,,,,,,,,,,,20,female,2020-11-24_12h27.44.349,torte-2b,2020.1.3,MacIntel,60,13189,,,,,,,,,,,,,,0,17,17,17,1,7,,,,,,,,,,,,,,,,,,,,,,,,,,,,,,,,,,,,,,,,,,,,,,
,,,,,,,,,,,,,,,,,,,,,,,,20,female,2020-11-24_12h27.44.349,torte-2b,2020.1.3,MacIntel,60,13189,,,,,,,,,,,,,,0,18,18,18,1,6,,,,,,,,,,,,,,,,,,,,,,,,,,,,,,,,,,,,,,,,,,,,,,
,,,,,,,,,,,,,,,,,,,,,,,,20,female,2020-11-24_12h27.44.349,torte-2b,2020.1.3,MacIntel,60,13189,,,,,,,,,,,,,,0,19,19,19,1,7,,,,,,,,,,,,,,,,,,,,,,,,,,,,,,,,,,,,,,,,,,,,,,
,,,,,,,,,,,,,,,,,,,,,,,,20,female,2020-11-24_12h27.44.349,torte-2b,2020.1.3,MacIntel,60,13189,,,,,,,,,,,,,,0,20,20,20,1,5,,,,,,,,,,,,,,,,,,,,,,,,,,,,,,,,,,,,,,,,,,,,,,
,,,,,,,,,,,,,,,,,,,,,,,,20,female,2020-11-24_12h27.44.349,torte-2b,2020.1.3,MacIntel,60,13189,,,,,,,,,,,,,,0,21,21,21,1,1,,,,,,,,,,,,,,,,,,,,,,,,,,,,,,,,,,,,,,,,,,,,,,
,,,,,,,,,,,,,,,,,,,,,,,,20,female,2020-11-24_12h27.44.349,torte-2b,2020.1.3,MacIntel,60,13189,,,,,,,,,,,,,,0,22,22,22,1,6,,,,,,,,,,,,,,,,,,,,,,,,,,,,,,,,,,,,,,,,,,,,,,
,,,,,,,,,,,,,,,,,,,,,,,,20,female,2020-11-24_12h27.44.349,torte-2b,2020.1.3,MacIntel,60,13189,,,,,,,,,,,,,,0,23,23,23,1,1,,,,,,,,,,,,,,,,,,,,,,,,,,,,,,,,,,,,,,,,,,,,,,
,,,,,,,,,,,,,,,,,,,,,,,,20,female,2020-11-24_12h27.44.349,torte-2b,2020.1.3,MacIntel,60,13189,,,,,,,,,,,,,,0,24,24,24,1,5,,,,,,,,,,,,,,,,,,,,,,,,,,,,,,,,,,,,,,,,,,,,,,
,,,,,,,,,,,,,,,,,,,,,,,,20,female,2020-11-24_12h27.44.349,torte-2b,2020.1.3,MacIntel,60,13189,,,,,,,,,,,,,,0,25,25,25,1,6,,,,,,,,,,,,,,,,,,,,,,,,,,,,,,,,,,,,,,,,,,,,,,
,,,,,,,,,,,,,,,,,,,,,,,,20,female,2020-11-24_12h27.44.349,torte-2b,2020.1.3,MacIntel,60,13189,,,,,,,,,,,,,,0,26,26,26,1,6,,,,,,,,,,,,,,,,,,,,,,,,,,,,,,,,,,,,,,,,,,,,,,
,,,,,,,,,,,,,,,,,,,,,,,,20,female,2020-11-24_12h27.44.349,torte-2b,2020.1.3,MacIntel,60,13189,,,,,,,,,,,,,,0,27,27,27,1,6,,,,,,,,,,,,,,,,,,,,,,,,,,,,,,,,,,,,,,,,,,,,,,
,,,,,,,,,,,,,,,,,,,,,,,,20,female,2020-11-24_12h27.44.349,torte-2b,2020.1.3,MacIntel,60,13189,,,,,,,,,,,,,,0,28,28,28,1,5,,,,,,,,,,,,,,,,,,,,,,,,,,,,,,,,,,,,,,,,,,,,,,
,,,,,,,,,,,,,,,,,,,,,,,,20,female,2020-11-24_12h27.44.349,torte-2b,2020.1.3,MacIntel,60,13189,,,,,,,,,,,,,,0,29,29,29,1,2,,,,,,,,,,,,,,,,,,,,,,,,,,,,,,,,,,,,,,,,,,,,,,
,,,,,,,,,,,,,,,,,,,,,,,,20,female,2020-11-24_12h27.44.349,torte-2b,2020.1.3,MacIntel,60,13189,,,,,,,,,,,,,,0,30,30,30,1,5,,,,,,,,,,,,,,,,,,,,,,,,,,,,,,,,,,,,,,,,,,,,,,
,,,,,,,,,,,,,,,,,,,,,,,,20,female,2020-11-24_12h27.44.349,torte-2b,2020.1.3,MacIntel,60,13189,,,,,,,,,,,,,,0,31,31,31,1,2,,,,,,,,,,,,,,,,,,,,,,,,,,,,,,,,,,,,,,,,,,,,,,
,,,,,,,,,,,,,,,,,,,,,,,,20,female,2020-11-24_12h27.44.349,torte-2b,2020.1.3,MacIntel,60,13189,,,,,,,,,,,,,,0,32,32,32,1,5,,,,,,,,,,,,,,,,,,,,,,,,,,,,,,,,,,,,,,,,,,,,,,
,,,,,,,,,,,,,,,,,,,,,,,,20,female,2020-11-24_12h27.44.349,torte-2b,2020.1.3,MacIntel,60,13189,,,,,,,,,,,,,,0,33,33,33,1,1,,,,,,,,,,,,,,,,,,,,,,,,,,,,,,,,,,,,,,,,,,,,,,
,,,,,,,,,,,,,,,,,,,,,,,,20,female,2020-11-24_12h27.44.349,torte-2b,2020.1.3,MacIntel,60,13189,,,,,,,,,,,,,,0,34,34,34,1,1,,,,,,,,,,,,,,,,,,,,,,,,,,,,,,,,,,,,,,,,,,,,,,
,,,,,,,,,,,,,,,,,,,,,,,,20,female,2020-11-24_12h27.44.349,torte-2b,2020.1.3,MacIntel,60,13189,,,,,,,,,,,,,,,,,,,2,0,0,0,0,1,,,,,,,,,,,,,,,,,,,,,,,,,,,,,,,,,,,,,,,,,
,,,,,,,,,,,,,,,,,,,,,,,,20,female,2020-11-24_12h27.44.349,torte-2b,2020.1.3,MacIntel,60,13189,,,,,,,,,,,,,,,,,,,2,0,1,1,1,1,,,,,,,,,,,,,,,,,,,,,,,,,,,,,,,,,,,,,,,,,
,,,,,,,,,,,,,,,,,,,,,,,,20,female,2020-11-24_12h27.44.349,torte-2b,2020.1.3,MacIntel,60,13189,,,,,,,,,,,,,,,,,,,6,0,2,2,2,1,,,,,,,,,,,,,,,,,,,,,,,,,,,,,,,,,,,,,,,,,
,,,,,,,,,,,,,,,,,,,,,,,,20,female,2020-11-24_12h27.44.349,torte-2b,2020.1.3,MacIntel,60,13189,,,,,,,,,,,,,,,,,,,2,0,3,3,3,1,,,,,,,,,,,,,,,,,,,,,,,,,,,,,,,,,,,,,,,,,
,,,,,,,,,,,,,,,,,,,,,,,,20,female,2020-11-24_12h27.44.349,torte-2b,2020.1.3,MacIntel,60,13189,,,,,,,,,,,,,,,,,,,6,0,4,4,4,1,,,,,,,,,,,,,,,,,,,,,,,,,,,,,,,,,,,,,,,,,
,,,,,,,,,,,,,,,,,,,,,,,,20,female,2020-11-24_12h27.44.349,torte-2b,2020.1.3,MacIntel,60,13189,,,,,,,,,,,,,,,,,,,2,0,5,5,5,1,,,,,,,,,,,,,,,,,,,,,,,,,,,,,,,,,,,,,,,,,
,,,,,,,,,,,,,,,,,,,,,,,,20,female,2020-11-24_12h27.44.349,torte-2b,2020.1.3,MacIntel,60,13189,,,,,,,,,,,,,,,,,,,7,0,6,6,6,1,,,,,,,,,,,,,,,,,,,,,,,,,,,,,,,,,,,,,,,,,
,,,,,,,,,,,,,,,,,,,,,,,,20,female,2020-11-24_12h27.44.349,torte-2b,2020.1.3,MacIntel,60,13189,,,,,,,,,,,,,,,,,,,2,0,7,7,7,1,,,,,,,,,,,,,,,,,,,,,,,,,,,,,,,,,,,,,,,,,
,,,,,,,,,,,,,,,,,,,,,,,,20,female,2020-11-24_12h27.44.349,torte-2b,2020.1.3,MacIntel,60,13189,,,,,,,,,,,,,,,,,,,7,0,8,8,8,1,,,,,,,,,,,,,,,,,,,,,,,,,,,,,,,,,,,,,,,,,
,,,,,,,,,,,,,,,,,,,,,,,,20,female,2020-11-24_12h27.44.349,torte-2b,2020.1.3,MacIntel,60,13189,,,,,,,,,,,,,,,,,,,2,0,9,9,9,1,,,,,,,,,,,,,,,,,,,,,,,,,,,,,,,,,,,,,,,,,
,,,,,,,,,,,,,,,,,,,,,,,,20,female,2020-11-24_12h27.44.349,torte-2b,2020.1.3,MacIntel,60,13189,,,,,,,,,,,,,,,,,,,5,0,10,10,10,1,,,,,,,,,,,,,,,,,,,,,,,,,,,,,,,,,,,,,,,,,
,,,,,,,,,,,,,,,,,,,,,,,,20,female,2020-11-24_12h27.44.349,torte-2b,2020.1.3,MacIntel,60,13189,,,,,,,,,,,,,,,,,,,4,0,11,11,11,1,,,,,,,,,,,,,,,,,,,,,,,,,,,,,,,,,,,,,,,,,
,,,,,,,,,,,,,,,,,,,,,,,,20,female,2020-11-24_12h27.44.349,torte-2b,2020.1.3,MacIntel,60,13189,,,,,,,,,,,,,,,,,,,5,0,12,12,12,1,,,,,,,,,,,,,,,,,,,,,,,,,,,,,,,,,,,,,,,,,
,,,,,,,,,,,,,,,,,,,,,,,,20,female,2020-11-24_12h27.44.349,torte-2b,2020.1.3,MacIntel,60,13189,,,,,,,,,,,,,,,,,,,6,0,13,13,13,1,,,,,,,,,,,,,,,,,,,,,,,,,,,,,,,,,,,,,,,,,
,,,,,,,,,,,,,,,,,,,,,,,,20,female,2020-11-24_12h27.44.349,torte-2b,2020.1.3,MacIntel,60,13189,,,,,,,,,,,,,,,,,,,5,0,14,14,14,1,,,,,,,,,,,,,,,,,,,,,,,,,,,,,,,,,,,,,,,,,
,,,,,,,,,,,,,,,,,,,,,,,,20,female,2020-11-24_12h27.44.349,torte-2b,2020.1.3,MacIntel,60,13189,,,,,,,,,,,,,,,,,,,4,0,15,15,15,1,,,,,,,,,,,,,,,,,,,,,,,,,,,,,,,,,,,,,,,,,
,,,,,,,,,,,,,,,,,,,,,,,,20,female,2020-11-24_12h27.44.349,torte-2b,2020.1.3,MacIntel,60,13189,,,,,,,,,,,,,,,,,,,5,0,16,16,16,1,,,,,,,,,,,,,,,,,,,,,,,,,,,,,,,,,,,,,,,,,
,,,,,,,,,,,,,,,,,,,,,,,,20,female,2020-11-24_12h27.44.349,torte-2b,2020.1.3,MacIntel,60,13189,,,,,,,,,,,,,,,,,,,3,0,17,17,17,1,,,,,,,,,,,,,,,,,,,,,,,,,,,,,,,,,,,,,,,,,
,,,,,,,,,,,,,,,,,,,,,,,,20,female,2020-11-24_12h27.44.349,torte-2b,2020.1.3,MacIntel,60,13189,,,,,,,,,,,,,,,,,,,6,0,18,18,18,1,,,,,,,,,,,,,,,,,,,,,,,,,,,,,,,,,,,,,,,,,
,,,,,,,,,,,,,,,,,,,,,,,,20,female,2020-11-24_12h27.44.349,torte-2b,2020.1.3,MacIntel,60,13189,,,,,,,,,,,,,,,,,,,6,0,19,19,19,1,,,,,,,,,,,,,,,,,,,,,,,,,,,,,,,,,,,,,,,,,
,,,,,,,,,,,,,,,,,,,,,,,,20,female,2020-11-24_12h27.44.349,torte-2b,2020.1.3,MacIntel,60,13189,,,,,,,,,,,,,,,,,,,6,0,20,20,20,1,,,,,,,,,,,,,,,,,,,,,,,,,,,,,,,,,,,,,,,,,
,,,,,,,,,,,,,,,,,,,,,,,,20,female,2020-11-24_12h27.44.349,torte-2b,2020.1.3,MacIntel,60,13189,,,,,,,,,,,,,,,,,,,4,0,21,21,21,1,,,,,,,,,,,,,,,,,,,,,,,,,,,,,,,,,,,,,,,,,
,,,,,,,,,,,,,,,,,,,,,,,,20,female,2020-11-24_12h27.44.349,torte-2b,2020.1.3,MacIntel,60,13189,,,,,,,,,,,,,,,,,,,6,0,22,22,22,1,,,,,,,,,,,,,,,,,,,,,,,,,,,,,,,,,,,,,,,,,
,,,,,,,,,,,,,,,,,,,,,,,,20,female,2020-11-24_12h27.44.349,torte-2b,2020.1.3,MacIntel,60,13189,,,,,,,,,,,,,,,,,,,4,0,23,23,23,1,,,,,,,,,,,,,,,,,,,,,,,,,,,,,,,,,,,,,,,,,
,,,,,,,,,,,,,,,,,,,,,,,,20,female,2020-11-24_12h27.44.349,torte-2b,2020.1.3,MacIntel,60,13189,,,,,,,,,,,,,,,,,,,6,0,24,24,24,1,,,,,,,,,,,,,,,,,,,,,,,,,,,,,,,,,,,,,,,,,
,,,,,,,,,,,,,,,,,,,,,,,,20,female,2020-11-24_12h27.44.349,torte-2b,2020.1.3,MacIntel,60,13189,,,,,,,,,,,,,,,,,,,6,0,25,25,25,1,,,,,,,,,,,,,,,,,,,,,,,,,,,,,,,,,,,,,,,,,
,,,,,,,,,,,,,,,,,,,,,,,,20,female,2020-11-24_12h27.44.349,torte-2b,2020.1.3,MacIntel,60,13189,,,,,,,,,,,,,,,,,,,7,0,26,26,26,1,,,,,,,,,,,,,,,,,,,,,,,,,,,,,,,,,,,,,,,,,
,,,,,,,,,,,,,,,,,,,,,,,,20,female,2020-11-24_12h27.44.349,torte-2b,2020.1.3,MacIntel,60,13189,,,,,,,,,,,,,,,,,,,1,0,27,27,27,1,,,,,,,,,,,,,,,,,,,,,,,,,,,,,,,,,,,,,,,,,
,,,,,,,,,,,,,,,,,,,,,,,,20,female,2020-11-24_12h27.44.349,torte-2b,2020.1.3,MacIntel,60,13189,,,,,,,,,,,,,,,,,,,7,0,28,28,28,1,,,,,,,,,,,,,,,,,,,,,,,,,,,,,,,,,,,,,,,,,
,,,,,,,,,,,,,,,,,,,,,,,,20,female,2020-11-24_12h27.44.349,torte-2b,2020.1.3,MacIntel,60,13189,,,,,,,,,,,,,,,,,,,4,0,29,29,29,1,,,,,,,,,,,,,,,,,,,,,,,,,,,,,,,,,,,,,,,,,
,,,,,,,,,,,,,,,,,,,,,,,,20,female,2020-11-24_12h27.44.349,torte-2b,2020.1.3,MacIntel,60,13189,,,,,,,,,,,,,,,,,,,7,0,30,30,30,1,,,,,,,,,,,,,,,,,,,,,,,,,,,,,,,,,,,,,,,,,
,,,,,,,,,,,,,,,,,,,,,,,,20,female,2020-11-24_12h27.44.349,torte-2b,2020.1.3,MacIntel,60,13189,,,,,,,,,,,,,,,,,,,3,0,31,31,31,1,,,,,,,,,,,,,,,,,,,,,,,,,,,,,,,,,,,,,,,,,
,,,,,,,,,,,,,,,,,,,,,,,,20,female,2020-11-24_12h27.44.349,torte-2b,2020.1.3,MacIntel,60,13189,,,,,,,,,,,,,,,,,,,2,0,32,32,32,1,,,,,,,,,,,,,,,,,,,,,,,,,,,,,,,,,,,,,,,,,
,,,,,,,,,,,,,,,,,,,,,,,,20,female,2020-11-24_12h27.44.349,torte-2b,2020.1.3,MacIntel,60,13189,,,,,,,,,,,,,,,,,,,6,0,33,33,33,1,,,,,,,,,,,,,,,,,,,,,,,,,,,,,,,,,,,,,,,,,
,,,,,,,,,,,,,,,,,,,,,,,,20,female,2020-11-24_12h27.44.349,torte-2b,2020.1.3,MacIntel,60,13189,,,,,,,,,,,,,,,,,,,3,0,34,34,34,1,,,,,,,,,,,,,,,,,,,,,,,,,,,,,,,,,,,,,,,,,
,,,,,,,,,,,,,,,,,,,,,,,,20,female,2020-11-24_12h27.44.349,torte-2b,2020.1.3,MacIntel,60,13189,,,,,,,,,,,,,,,,,,,7,,,,,,0,0,0,0,1,,,,,,,,,,,,,,,,,,,,,,,,,,,,,,,,,,,,
,,,,,,,,,,,,,,,,,,,,,,,,20,female,2020-11-24_12h27.44.349,torte-2b,2020.1.3,MacIntel,60,13189,,,,,,,,,,,,,,,,,,,5,,,,,,0,1,1,1,1,,,,,,,,,,,,,,,,,,,,,,,,,,,,,,,,,,,,
,,,,,,,,,,,,,,,,,,,,,,,,20,female,2020-11-24_12h27.44.349,torte-2b,2020.1.3,MacIntel,60,13189,,,,,,,,,,,,,,,,,,,4,,,,,,0,2,2,2,1,,,,,,,,,,,,,,,,,,,,,,,,,,,,,,,,,,,,
,,,,,,,,,,,,,,,,,,,,,,,,20,female,2020-11-24_12h27.44.349,torte-2b,2020.1.3,MacIntel,60,13189,,,,,,,,,,,,,,,,,,,5,,,,,,0,3,3,3,1,,,,,,,,,,,,,,,,,,,,,,,,,,,,,,,,,,,,
,,,,,,,,,,,,,,,,,,,,,,,,20,female,2020-11-24_12h27.44.349,torte-2b,2020.1.3,MacIntel,60,13189,,,,,,,,,,,,,,,,,,,6,,,,,,0,4,4,4,1,,,,,,,,,,,,,,,,,,,,,,,,,,,,,,,,,,,,
,,,,,,,,,,,,,,,,,,,,,,,,20,female,2020-11-24_12h27.44.349,torte-2b,2020.1.3,MacIntel,60,13189,,,,,,,,,,,,,,,,,,,5,,,,,,0,5,5,5,1,,,,,,,,,,,,,,,,,,,,,,,,,,,,,,,,,,,,
,,,,,,,,,,,,,,,,,,,,,,,,20,female,2020-11-24_12h27.44.349,torte-2b,2020.1.3,MacIntel,60,13189,,,,,,,,,,,,,,,,,,,3,,,,,,0,6,6,6,1,,,,,,,,,,,,,,,,,,,,,,,,,,,,,,,,,,,,
,,,,,,,,,,,,,,,,,,,,,,,,20,female,2020-11-24_12h27.44.349,torte-2b,2020.1.3,MacIntel,60,13189,,,,,,,,,,,,,,,,,,,4,,,,,,0,7,7,7,1,,,,,,,,,,,,,,,,,,,,,,,,,,,,,,,,,,,,
,,,,,,,,,,,,,,,,,,,,,,,,20,female,2020-11-24_12h27.44.349,torte-2b,2020.1.3,MacIntel,60,13189,,,,,,,,,,,,,,,,,,,3,,,,,,0,8,8,8,1,,,,,,,,,,,,,,,,,,,,,,,,,,,,,,,,,,,,
,,,,,,,,,,,,,,,,,,,,,,,,20,female,2020-11-24_12h27.44.349,torte-2b,2020.1.3,MacIntel,60,13189,,,,,,,,,,,,,,,,,,,1,,,,,,0,9,9,9,1,,,,,,,,,,,,,,,,,,,,,,,,,,,,,,,,,,,,
,,,,,,,,,,,,,,,,,,,,,,,,20,female,2020-11-24_12h27.44.349,torte-2b,2020.1.3,MacIntel,60,13189,,,,,,,,,,,,,,,,,,,2,,,,,,0,10,10,10,1,,,,,,,,,,,,,,,,,,,,,,,,,,,,,,,,,,,,
,,,,,,,,,,,,,,,,,,,,,,,,20,female,2020-11-24_12h27.44.349,torte-2b,2020.1.3,MacIntel,60,13189,,,,,,,,,,,,,,,,,,,1,,,,,,0,11,11,11,1,,,,,,,,,,,,,,,,,,,,,,,,,,,,,,,,,,,,
,,,,,,,,,,,,,,,,,,,,,,,,20,female,2020-11-24_12h27.44.349,torte-2b,2020.1.3,MacIntel,60,13189,,,,,,,,,,,,,,,,,,,2,,,,,,0,12,12,12,1,,,,,,,,,,,,,,,,,,,,,,,,,,,,,,,,,,,,
,,,,,,,,,,,,,,,,,,,,,,,,20,female,2020-11-24_12h27.44.349,torte-2b,2020.1.3,MacIntel,60,13189,,,,,,,,,,,,,,,,,,,1,,,,,,0,13,13,13,1,,,,,,,,,,,,,,,,,,,,,,,,,,,,,,,,,,,,
,,,,,,,,,,,,,,,,,,,,,,,,20,female,2020-11-24_12h27.44.349,torte-2b,2020.1.3,MacIntel,60,13189,,,,,,,,,,,,,,,,,,,3,,,,,,0,14,14,14,1,,,,,,,,,,,,,,,,,,,,,,,,,,,,,,,,,,,,
,,,,,,,,,,,,,,,,,,,,,,,,20,female,2020-11-24_12h27.44.349,torte-2b,2020.1.3,MacIntel,60,13189,,,,,,,,,,,,,,,,,,,1,,,,,,0,15,15,15,1,,,,,,,,,,,,,,,,,,,,,,,,,,,,,,,,,,,,
,,,,,,,,,,,,,,,,,,,,,,,,20,female,2020-11-24_12h27.44.349,torte-2b,2020.1.3,MacIntel,60,13189,,,,,,,,,,,,,,,,,,,7,,,,,,0,16,16,16,1,,,,,,,,,,,,,,,,,,,,,,,,,,,,,,,,,,,,
,,,,,,,,,,,,,,,,,,,,,,,,20,female,2020-11-24_12h27.44.349,torte-2b,2020.1.3,MacIntel,60,13189,,,,,,,,,,,,,,,,,,,7,,,,,,0,17,17,17,1,,,,,,,,,,,,,,,,,,,,,,,,,,,,,,,,,,,,
,,,,,,,,,,,,,,,,,,,,,,,,20,female,2020-11-24_12h27.44.349,torte-2b,2020.1.3,MacIntel,60,13189,,,,,,,,,,,,,,,,,,,4,,,,,,0,18,18,18,1,,,,,,,,,,,,,,,,,,,,,,,,,,,,,,,,,,,,
,,,,,,,,,,,,,,,,,,,,,,,,20,female,2020-11-24_12h27.44.349,torte-2b,2020.1.3,MacIntel,60,13189,,,,,,,,,,,,,,,,,,,7,,,,,,0,19,19,19,1,,,,,,,,,,,,,,,,,,,,,,,,,,,,,,,,,,,,
,,,,,,,,,,,,,,,,,,,,,,,,20,female,2020-11-24_12h27.44.349,torte-2b,2020.1.3,MacIntel,60,13189,,,,,,,,,,,,,,,,,,,3,,,,,,0,20,20,20,1,,,,,,,,,,,,,,,,,,,,,,,,,,,,,,,,,,,,
,,,,,,,,,,,,,,,,,,,,,,,,20,female,2020-11-24_12h27.44.349,torte-2b,2020.1.3,MacIntel,60,13189,,,,,,,,,,,,,,,,,,,7,,,,,,0,21,21,21,1,,,,,,,,,,,,,,,,,,,,,,,,,,,,,,,,,,,,
,,,,,,,,,,,,,,,,,,,,,,,,20,female,2020-11-24_12h27.44.349,torte-2b,2020.1.3,MacIntel,60,13189,,,,,,,,,,,,,,,,,,,3,,,,,,0,22,22,22,1,,,,,,,,,,,,,,,,,,,,,,,,,,,,,,,,,,,,
,,,,,,,,,,,,,,,,,,,,,,,,20,female,2020-11-24_12h27.44.349,torte-2b,2020.1.3,MacIntel,60,13189,,,,,,,,,,,,,,,,,,,1,,,,,,0,23,23,23,1,,,,,,,,,,,,,,,,,,,,,,,,,,,,,,,,,,,,
,,,,,,,,,,,,,,,,,,,,,,,,20,female,2020-11-24_12h27.44.349,torte-2b,2020.1.3,MacIntel,60,13189,,,,,,,,,,,,,,,,,,,6,,,,,,0,24,24,24,1,,,,,,,,,,,,,,,,,,,,,,,,,,,,,,,,,,,,
,,,,,,,,,,,,,,,,,,,,,,,,20,female,2020-11-24_12h27.44.349,torte-2b,2020.1.3,MacIntel,60,13189,,,,,,,,,,,,,,,,,,,3,,,,,,0,25,25,25,1,,,,,,,,,,,,,,,,,,,,,,,,,,,,,,,,,,,,
,,,,,,,,,,,,,,,,,,,,,,,,20,female,2020-11-24_12h27.44.349,torte-2b,2020.1.3,MacIntel,60,13189,,,,,,,,,,,,,,,,,,,2,,,,,,0,26,26,26,1,,,,,,,,,,,,,,,,,,,,,,,,,,,,,,,,,,,,
,,,,,,,,,,,,,,,,,,,,,,,,20,female,2020-11-24_12h27.44.349,torte-2b,2020.1.3,MacIntel,60,13189,,,,,,,,,,,,,,,,,,,3,,,,,,0,27,27,27,1,,,,,,,,,,,,,,,,,,,,,,,,,,,,,,,,,,,,
,,,,,,,,,,,,,,,,,,,,,,,,20,female,2020-11-24_12h27.44.349,torte-2b,2020.1.3,MacIntel,60,13189,,,,,,,,,,,,,,,,,,,1,,,,,,0,28,28,28,1,,,,,,,,,,,,,,,,,,,,,,,,,,,,,,,,,,,,
,,,,,,,,,,,,,,,,,,,,,,,,20,female,2020-11-24_12h27.44.349,torte-2b,2020.1.3,MacIntel,60,13189,,,,,,,,,,,,,,,,,,,3,,,,,,0,29,29,29,1,,,,,,,,,,,,,,,,,,,,,,,,,,,,,,,,,,,,
,,,,,,,,,,,,,,,,,,,,,,,,20,female,2020-11-24_12h27.44.349,torte-2b,2020.1.3,MacIntel,60,13189,,,,,,,,,,,,,,,,,,,1,,,,,,0,30,30,30,1,,,,,,,,,,,,,,,,,,,,,,,,,,,,,,,,,,,,
,,,,,,,,,,,,,,,,,,,,,,,,20,female,2020-11-24_12h27.44.349,torte-2b,2020.1.3,MacIntel,60,13189,,,,,,,,,,,,,,,,,,,7,,,,,,0,31,31,31,1,,,,,,,,,,,,,,,,,,,,,,,,,,,,,,,,,,,,
,,,,,,,,,,,,,,,,,,,,,,,,20,female,2020-11-24_12h27.44.349,torte-2b,2020.1.3,MacIntel,60,13189,,,,,,,,,,,,,,,,,,,5,,,,,,0,32,32,32,1,,,,,,,,,,,,,,,,,,,,,,,,,,,,,,,,,,,,
,,,,,,,,,,,,,,,,,,,,,,,,20,female,2020-11-24_12h27.44.349,torte-2b,2020.1.3,MacIntel,60,13189,,,,,,,,,,,,,,,,,,,7,,,,,,0,33,33,33,1,,,,,,,,,,,,,,,,,,,,,,,,,,,,,,,,,,,,
,,,,,,,,,,,,,,,,,,,,,,,,20,female,2020-11-24_12h27.44.349,torte-2b,2020.1.3,MacIntel,60,13189,,,,,,,,,,,,,,,,,,,2,,,,,,0,34,34,34,1,,,,,,,,,,,,,,,,,,,,,,,,,,,,,,,,,,,,
,,,,,,,,,,,,,,,,,,,,,,,,20,female,2020-11-24_12h27.44.349,torte-2b,2020.1.3,MacIntel,60,13189,,,,,,,,,,,,,,,,,,,3,,,,,,,,,,,0,0,0,0,1,,,,,,,,,,,,,,,,,,,,,,,,,,,,,,,
,,,,,,,,,,,,,,,,,,,,,,,,20,female,2020-11-24_12h27.44.349,torte-2b,2020.1.3,MacIntel,60,13189,,,,,,,,,,,,,,,,,,,7,,,,,,,,,,,0,1,1,1,1,,,,,,,,,,,,,,,,,,,,,,,,,,,,,,,
,,,,,,,,,,,,,,,,,,,,,,,,20,female,2020-11-24_12h27.44.349,torte-2b,2020.1.3,MacIntel,60,13189,,,,,,,,,,,,,,,,,,,7,,,,,,,,,,,0,2,2,2,1,,,,,,,,,,,,,,,,,,,,,,,,,,,,,,,
,,,,,,,,,,,,,,,,,,,,,,,,20,female,2020-11-24_12h27.44.349,torte-2b,2020.1.3,MacIntel,60,13189,,,,,,,,,,,,,,,,,,,4,,,,,,,,,,,0,3,3,3,1,,,,,,,,,,,,,,,,,,,,,,,,,,,,,,,
,,,,,,,,,,,,,,,,,,,,,,,,20,female,2020-11-24_12h27.44.349,torte-2b,2020.1.3,MacIntel,60,13189,,,,,,,,,,,,,,,,,,,5,,,,,,,,,,,0,4,4,4,1,,,,,,,,,,,,,,,,,,,,,,,,,,,,,,,
,,,,,,,,,,,,,,,,,,,,,,,,20,female,2020-11-24_12h27.44.349,torte-2b,2020.1.3,MacIntel,60,13189,,,,,,,,,,,,,,,,,,,4,,,,,,,,,,,0,5,5,5,1,,,,,,,,,,,,,,,,,,,,,,,,,,,,,,,
,,,,,,,,,,,,,,,,,,,,,,,,20,female,2020-11-24_12h27.44.349,torte-2b,2020.1.3,MacIntel,60,13189,,,,,,,,,,,,,,,,,,,2,,,,,,,,,,,0,6,6,6,1,,,,,,,,,,,,,,,,,,,,,,,,,,,,,,,
,,,,,,,,,,,,,,,,,,,,,,,,20,female,2020-11-24_12h27.44.349,torte-2b,2020.1.3,MacIntel,60,13189,,,,,,,,,,,,,,,,,,,4,,,,,,,,,,,0,7,7,7,1,,,,,,,,,,,,,,,,,,,,,,,,,,,,,,,
,,,,,,,,,,,,,,,,,,,,,,,,20,female,2020-11-24_12h27.44.349,torte-2b,2020.1.3,MacIntel,60,13189,,,,,,,,,,,,,,,,,,,2,,,,,,,,,,,0,8,8,8,1,,,,,,,,,,,,,,,,,,,,,,,,,,,,,,,
,,,,,,,,,,,,,,,,,,,,,,,,20,female,2020-11-24_12h27.44.349,torte-2b,2020.1.3,MacIntel,60,13189,,,,,,,,,,,,,,,,,,,2,,,,,,,,,,,0,9,9,9,1,,,,,,,,,,,,,,,,,,,,,,,,,,,,,,,
,,,,,,,,,,,,,,,,,,,,,,,,20,female,2020-11-24_12h27.44.349,torte-2b,2020.1.3,MacIntel,60,13189,,,,,,,,,,,,,,,,,,,6,,,,,,,,,,,0,10,10,10,1,,,,,,,,,,,,,,,,,,,,,,,,,,,,,,,
,,,,,,,,,,,,,,,,,,,,,,,,20,female,2020-11-24_12h27.44.349,torte-2b,2020.1.3,MacIntel,60,13189,,,,,,,,,,,,,,,,,,,2,,,,,,,,,,,0,11,11,11,1,,,,,,,,,,,,,,,,,,,,,,,,,,,,,,,
,,,,,,,,,,,,,,,,,,,,,,,,20,female,2020-11-24_12h27.44.349,torte-2b,2020.1.3,MacIntel,60,13189,,,,,,,,,,,,,,,,,,,2,,,,,,,,,,,0,12,12,12,1,,,,,,,,,,,,,,,,,,,,,,,,,,,,,,,
,,,,,,,,,,,,,,,,,,,,,,,,20,female,2020-11-24_12h27.44.349,torte-2b,2020.1.3,MacIntel,60,13189,,,,,,,,,,,,,,,,,,,2,,,,,,,,,,,0,13,13,13,1,,,,,,,,,,,,,,,,,,,,,,,,,,,,,,,
,,,,,,,,,,,,,,,,,,,,,,,,20,female,2020-11-24_12h27.44.349,torte-2b,2020.1.3,MacIntel,60,13189,,,,,,,,,,,,,,,,,,,2,,,,,,,,,,,0,14,14,14,1,,,,,,,,,,,,,,,,,,,,,,,,,,,,,,,
,,,,,,,,,,,,,,,,,,,,,,,,20,female,2020-11-24_12h27.44.349,torte-2b,2020.1.3,MacIntel,60,13189,,,,,,,,,,,,,,,,,,,4,,,,,,,,,,,0,15,15,15,1,,,,,,,,,,,,,,,,,,,,,,,,,,,,,,,
,,,,,,,,,,,,,,,,,,,,,,,,20,female,2020-11-24_12h27.44.349,torte-2b,2020.1.3,MacIntel,60,13189,,,,,,,,,,,,,,,,,,,3,,,,,,,,,,,0,16,16,16,1,,,,,,,,,,,,,,,,,,,,,,,,,,,,,,,
,,,,,,,,,,,,,,,,,,,,,,,,20,female,2020-11-24_12h27.44.349,torte-2b,2020.1.3,MacIntel,60,13189,,,,,,,,,,,,,,,,,,,7,,,,,,,,,,,0,17,17,17,1,,,,,,,,,,,,,,,,,,,,,,,,,,,,,,,
,,,,,,,,,,,,,,,,,,,,,,,,20,female,2020-11-24_12h27.44.349,torte-2b,2020.1.3,MacIntel,60,13189,,,,,,,,,,,,,,,,,,,4,,,,,,,,,,,0,18,18,18,1,,,,,,,,,,,,,,,,,,,,,,,,,,,,,,,
,,,,,,,,,,,,,,,,,,,,,,,,20,female,2020-11-24_12h27.44.349,torte-2b,2020.1.3,MacIntel,60,13189,,,,,,,,,,,,,,,,,,,7,,,,,,,,,,,0,19,19,19,1,,,,,,,,,,,,,,,,,,,,,,,,,,,,,,,
,,,,,,,,,,,,,,,,,,,,,,,,20,female,2020-11-24_12h27.44.349,torte-2b,2020.1.3,MacIntel,60,13189,,,,,,,,,,,,,,,,,,,7,,,,,,,,,,,0,20,20,20,1,,,,,,,,,,,,,,,,,,,,,,,,,,,,,,,
,,,,,,,,,,,,,,,,,,,,,,,,20,female,2020-11-24_12h27.44.349,torte-2b,2020.1.3,MacIntel,60,13189,,,,,,,,,,,,,,,,,,,7,,,,,,,,,,,0,21,21,21,1,,,,,,,,,,,,,,,,,,,,,,,,,,,,,,,
,,,,,,,,,,,,,,,,,,,,,,,,20,female,2020-11-24_12h27.44.349,torte-2b,2020.1.3,MacIntel,60,13189,,,,,,,,,,,,,,,,,,,7,,,,,,,,,,,0,22,22,22,1,,,,,,,,,,,,,,,,,,,,,,,,,,,,,,,
,,,,,,,,,,,,,,,,,,,,,,,,20,female,2020-11-24_12h27.44.349,torte-2b,2020.1.3,MacIntel,60,13189,,,,,,,,,,,,,,,,,,,1,,,,,,,,,,,0,23,23,23,1,,,,,,,,,,,,,,,,,,,,,,,,,,,,,,,
,,,,,,,,,,,,,,,,,,,,,,,,20,female,2020-11-24_12h27.44.349,torte-2b,2020.1.3,MacIntel,60,13189,,,,,,,,,,,,,,,,,,,7,,,,,,,,,,,0,24,24,24,1,,,,,,,,,,,,,,,,,,,,,,,,,,,,,,,
,,,,,,,,,,,,,,,,,,,,,,,,20,female,2020-11-24_12h27.44.349,torte-2b,2020.1.3,MacIntel,60,13189,,,,,,,,,,,,,,,,,,,1,,,,,,,,,,,0,25,25,25,1,,,,,,,,,,,,,,,,,,,,,,,,,,,,,,,
,,,,,,,,,,,,,,,,,,,,,,,,20,female,2020-11-24_12h27.44.349,torte-2b,2020.1.3,MacIntel,60,13189,,,,,,,,,,,,,,,,,,,7,,,,,,,,,,,0,26,26,26,1,,,,,,,,,,,,,,,,,,,,,,,,,,,,,,,
,,,,,,,,,,,,,,,,,,,,,,,,20,female,2020-11-24_12h27.44.349,torte-2b,2020.1.3,MacIntel,60,13189,,,,,,,,,,,,,,,,,,,2,,,,,,,,,,,0,27,27,27,1,,,,,,,,,,,,,,,,,,,,,,,,,,,,,,,
,,,,,,,,,,,,,,,,,,,,,,,,20,female,2020-11-24_12h27.44.349,torte-2b,2020.1.3,MacIntel,60,13189,,,,,,,,,,,,,,,,,,,5,,,,,,,,,,,0,28,28,28,1,,,,,,,,,,,,,,,,,,,,,,,,,,,,,,,
,,,,,,,,,,,,,,,,,,,,,,,,20,female,2020-11-24_12h27.44.349,torte-2b,2020.1.3,MacIntel,60,13189,,,,,,,,,,,,,,,,,,,5,,,,,,,,,,,0,29,29,29,1,,,,,,,,,,,,,,,,,,,,,,,,,,,,,,,
,,,,,,,,,,,,,,,,,,,,,,,,20,female,2020-11-24_12h27.44.349,torte-2b,2020.1.3,MacIntel,60,13189,,,,,,,,,,,,,,,,,,,5,,,,,,,,,,,0,30,30,30,1,,,,,,,,,,,,,,,,,,,,,,,,,,,,,,,
,,,,,,,,,,,,,,,,,,,,,,,,20,female,2020-11-24_12h27.44.349,torte-2b,2020.1.3,MacIntel,60,13189,,,,,,,,,,,,,,,,,,,1,,,,,,,,,,,0,31,31,31,1,,,,,,,,,,,,,,,,,,,,,,,,,,,,,,,
,,,,,,,,,,,,,,,,,,,,,,,,20,female,2020-11-24_12h27.44.349,torte-2b,2020.1.3,MacIntel,60,13189,,,,,,,,,,,,,,,,,,,5,,,,,,,,,,,0,32,32,32,1,,,,,,,,,,,,,,,,,,,,,,,,,,,,,,,
,,,,,,,,,,,,,,,,,,,,,,,,20,female,2020-11-24_12h27.44.349,torte-2b,2020.1.3,MacIntel,60,13189,,,,,,,,,,,,,,,,,,,3,,,,,,,,,,,0,33,33,33,1,,,,,,,,,,,,,,,,,,,,,,,,,,,,,,,
,,,,,,,,,,,,,,,,,,,,,,,,20,female,2020-11-24_12h27.44.349,torte-2b,2020.1.3,MacIntel,60,13189,,,,,,,,,,,,,,,,,,,3,,,,,,,,,,,0,34,34,34,1,,,,,,,,,,,,,,,,,,,,,,,,,,,,,,,
,,,,,,,,,,,,a,1.286575,Incorrect,,,,,,t5.png,t1.png,4,9.55E-11,20,female,2020-11-24_12h27.44.349,torte-2b,2020.1.3,MacIntel,60,13189,space,2.30518,,,,,,,,,,,,,,,,,,,,,,,,,,,,,,,,,space,1.61827,0,0,0,102,1,,,,,,,,,,,,,,,,,,,,,,,,
,,,,,,,,,,,,l,1.102585,Incorrect,,,,,,t1.png,t2.png,1,0.90025,20,female,2020-11-24_12h27.44.349,torte-2b,2020.1.3,MacIntel,60,13189,,,,,,,,,,,,,,,,,,,,,,,,,,,,,,,,,,,,,0,1,1,72,1,,,,,,,,,,,,,,,,,,,,,,,,
,,,,,,,,,,,,a,0.4688,Incorrect,,,,,,t2.png,t5.png,3,0.0000131,20,female,2020-11-24_12h27.44.349,torte-2b,2020.1.3,MacIntel,60,13189,,,,,,,,,,,,,,,,,,,,,,,,,,,,,,,,,,,,,0,2,2,95,1,,,,,,,,,,,,,,,,,,,,,,,,
,,,,,,,,,,,,a,1.01986,Incorrect,,,,,,t2.png,t4.png,2,0.059078,20,female,2020-11-24_12h27.44.349,torte-2b,2020.1.3,MacIntel,60,13189,,,,,,,,,,,,,,,,,,,,,,,,,,,,,,,,,,,,,0,3,3,11,1,,,,,,,,,,,,,,,,,,,,,,,,
,,,,,,,,,,,,a,0.784935,Correct!,,,,,,t2.png,t1.png,1,0.90025,20,female,2020-11-24_12h27.44.349,torte-2b,2020.1.3,MacIntel,60,13189,,,,,,,,,,,,,,,,,,,,,,,,,,,,,,,,,,,,,0,4,4,62,1,,,,,,,,,,,,,,,,,,,,,,,,
,,,,,,,,,,,,a,0.66844,Incorrect,,,,,,t5.png,t3.png,2,0.056466,20,female,2020-11-24_12h27.44.349,torte-2b,2020.1.3,MacIntel,60,13189,,,,,,,,,,,,,,,,,,,,,,,,,,,,,,,,,,,,,0,5,5,114,1,,,,,,,,,,,,,,,,,,,,,,,,
,,,,,,,,,,,,l,0.5843,Incorrect,,,,,,t4.png,t5.png,1,0.90025,20,female,2020-11-24_12h27.44.349,torte-2b,2020.1.3,MacIntel,60,13189,,,,,,,,,,,,,,,,,,,,,,,,,,,,,,,,,,,,,0,6,6,113,1,,,,,,,,,,,,,,,,,,,,,,,,
,,,,,,,,,,,,l,0.634855,Correct!,,,,,,t2.png,t5.png,3,0.0000131,20,female,2020-11-24_12h27.44.349,torte-2b,2020.1.3,MacIntel,60,13189,,,,,,,,,,,,,,,,,,,,,,,,,,,,,,,,,,,,,0,7,7,8,1,,,,,,,,,,,,,,,,,,,,,,,,
,,,,,,,,,,,,a,0.5845,Incorrect,,,,,,t4.png,t1.png,3,0.0000131,20,female,2020-11-24_12h27.44.349,torte-2b,2020.1.3,MacIntel,60,13189,,,,,,,,,,,,,,,,,,,,,,,,,,,,,,,,,,,,,0,8,8,93,1,,,,,,,,,,,,,,,,,,,,,,,,
,,,,,,,,,,,,a,0.884595,Correct!,,,,,,t4.png,t3.png,1,0.909,20,female,2020-11-24_12h27.44.349,torte-2b,2020.1.3,MacIntel,60,13189,,,,,,,,,,,,,,,,,,,,,,,,,,,,,,,,,,,,,0,9,9,46,1,,,,,,,,,,,,,,,,,,,,,,,,
,,,,,,,,,,,,a,0.606495,Correct!,,,,,,t5.png,t4.png,1,0.90025,20,female,2020-11-24_12h27.44.349,torte-2b,2020.1.3,MacIntel,60,13189,,,,,,,,,,,,,,,,,,,,,,,,,,,,,,,,,,,,,0,10,10,26,1,,,,,,,,,,,,,,,,,,,,,,,,
,,,,,,,,,,,,l,0.699975,Incorrect,,,,,,t5.png,t4.png,1,0.90025,20,female,2020-11-24_12h27.44.349,torte-2b,2020.1.3,MacIntel,60,13189,,,,,,,,,,,,,,,,,,,,,,,,,,,,,,,,,,,,,0,11,11,27,1,,,,,,,,,,,,,,,,,,,,,,,,
,,,,,,,,,,,,l,0.933415,Correct!,,,,,,t3.png,t5.png,2,0.0565,20,female,2020-11-24_12h27.44.349,torte-2b,2020.1.3,MacIntel,60,13189,,,,,,,,,,,,,,,,,,,,,,,,,,,,,,,,,,,,,0,12,12,83,1,,,,,,,,,,,,,,,,,,,,,,,,
,,,,,,,,,,,,l,0.66782,Correct!,,,,,,t1.png,t3.png,2,0.056466,20,female,2020-11-24_12h27.44.349,torte-2b,2020.1.3,MacIntel,60,13189,,,,,,,,,,,,,,,,,,,,,,,,,,,,,,,,,,,,,0,13,13,99,1,,,,,,,,,,,,,,,,,,,,,,,,
,,,,,,,,,,,,l,0.68338,Correct!,,,,,,t1.png,t4.png,3,0.0000131,20,female,2020-11-24_12h27.44.349,torte-2b,2020.1.3,MacIntel,60,13189,,,,,,,,,,,,,,,,,,,,,,,,,,,,,,,,,,,,,0,14,14,92,1,,,,,,,,,,,,,,,,,,,,,,,,
,,,,,,,,,,,,a,0.59979,Incorrect,,,,,,t5.png,t3.png,2,0.056466,20,female,2020-11-24_12h27.44.349,torte-2b,2020.1.3,MacIntel,60,13189,,,,,,,,,,,,,,,,,,,,,,,,,,,,,,,,,,,,,0,15,15,56,1,,,,,,,,,,,,,,,,,,,,,,,,
,,,,,,,,,,,,l,0.672165,Incorrect,,,,,,t4.png,t5.png,1,0.90025,20,female,2020-11-24_12h27.44.349,torte-2b,2020.1.3,MacIntel,60,13189,,,,,,,,,,,,,,,,,,,,,,,,,,,,,,,,,,,,,0,16,16,58,1,,,,,,,,,,,,,,,,,,,,,,,,
,,,,,,,,,,,,a,0.7005,Correct!,,,,,,t2.png,t2.png,0,0.981,20,female,2020-11-24_12h27.44.349,torte-2b,2020.1.3,MacIntel,60,13189,,,,,,,,,,,,,,,,,,,,,,,,,,,,,,,,,,,,,0,17,17,101,1,,,,,,,,,,,,,,,,,,,,,,,,
,,,,,,,,,,,,l,0.43521,Correct!,,,,,,t2.png,t4.png,2,0.059078,20,female,2020-11-24_12h27.44.349,torte-2b,2020.1.3,MacIntel,60,13189,,,,,,,,,,,,,,,,,,,,,,,,,,,,,,,,,,,,,0,18,18,77,1,,,,,,,,,,,,,,,,,,,,,,,,
,,,,,,,,,,,,a,1.020795,Correct!,,,,,,t3.png,t4.png,1,0.90855,20,female,2020-11-24_12h27.44.349,torte-2b,2020.1.3,MacIntel,60,13189,,,,,,,,,,,,,,,,,,,,,,,,,,,,,,,,,,,,,0,19,19,96,1,,,,,,,,,,,,,,,,,,,,,,,,
,,,,,,,,,,,,l,0.567685,Incorrect,,,,,,t3.png,t2.png,1,0.90855,20,female,2020-11-24_12h27.44.349,torte-2b,2020.1.3,MacIntel,60,13189,,,,,,,,,,,,,,,,,,,,,,,,,,,,,,,,,,,,,0,20,20,97,1,,,,,,,,,,,,,,,,,,,,,,,,
,,,,,,,,,,,,l,0.55576,Incorrect,,,,,,t3.png,t4.png,1,0.909,20,female,2020-11-24_12h27.44.349,torte-2b,2020.1.3,MacIntel,60,13189,,,,,,,,,,,,,,,,,,,,,,,,,,,,,,,,,,,,,0,21,21,89,1,,,,,,,,,,,,,,,,,,,,,,,,
,,,,,,,,,,,,l,0.568345,Incorrect,,,,,,t2.png,t2.png,0,0.98115,20,female,2020-11-24_12h27.44.349,torte-2b,2020.1.3,MacIntel,60,13189,,,,,,,,,,,,,,,,,,,,,,,,,,,,,,,,,,,,,0,22,22,59,1,,,,,,,,,,,,,,,,,,,,,,,,
,,,,,,,,,,,,l,0.45126,Correct!,,,,,,t1.png,t3.png,2,0.056466,20,female,2020-11-24_12h27.44.349,torte-2b,2020.1.3,MacIntel,60,13189,,,,,,,,,,,,,,,,,,,,,,,,,,,,,,,,,,,,,0,23,23,63,1,,,,,,,,,,,,,,,,,,,,,,,,
,,,,,,,,,,,,l,0.31783,Correct!,,,,,,t1.png,t4.png,3,0.0000131,20,female,2020-11-24_12h27.44.349,torte-2b,2020.1.3,MacIntel,60,13189,,,,,,,,,,,,,,,,,,,,,,,,,,,,,,,,,,,,,0,24,24,17,1,,,,,,,,,,,,,,,,,,,,,,,,
,,,,,,,,,,,,l,0.71863,Incorrect,,,,,,t2.png,t1.png,1,0.9,20,female,2020-11-24_12h27.44.349,torte-2b,2020.1.3,MacIntel,60,13189,,,,,,,,,,,,,,,,,,,,,,,,,,,,,,,,,,,,,0,25,25,118,1,,,,,,,,,,,,,,,,,,,,,,,,
,,,,,,,,,,,,l,0.43471,Incorrect,,,,,,t2.png,t3.png,1,0.90855,20,female,2020-11-24_12h27.44.349,torte-2b,2020.1.3,MacIntel,60,13189,,,,,,,,,,,,,,,,,,,,,,,,,,,,,,,,,,,,,0,26,26,68,1,,,,,,,,,,,,,,,,,,,,,,,,
,,,,,,,,,,,,a,0.688695,Incorrect,,,,,,t5.png,t2.png,3,0.0000131,20,female,2020-11-24_12h27.44.349,torte-2b,2020.1.3,MacIntel,60,13189,,,,,,,,,,,,,,,,,,,,,,,,,,,,,,,,,,,,,0,27,27,51,1,,,,,,,,,,,,,,,,,,,,,,,,
,,,,,,,,,,,,l,0.46974,Correct!,,,,,,t1.png,t3.png,2,0.056466,20,female,2020-11-24_12h27.44.349,torte-2b,2020.1.3,MacIntel,60,13189,,,,,,,,,,,,,,,,,,,,,,,,,,,,,,,,,,,,,0,28,28,87,1,,,,,,,,,,,,,,,,,,,,,,,,
,,,,,,,,,,,,l,0.517965,Incorrect,,,,,,t3.png,t4.png,1,0.90855,20,female,2020-11-24_12h27.44.349,torte-2b,2020.1.3,MacIntel,60,13189,,,,,,,,,,,,,,,,,,,,,,,,,,,,,,,,,,,,,0,29,29,84,1,,,,,,,,,,,,,,,,,,,,,,,,
,,,,,,,,,,,,l,0.901315,Incorrect,,,,,,t5.png,t5.png,0,0.97829,20,female,2020-11-24_12h27.44.349,torte-2b,2020.1.3,MacIntel,60,13189,,,,,,,,,,,,,,,,,,,,,,,,,,,,,,,,,,,,,0,30,30,73,1,,,,,,,,,,,,,,,,,,,,,,,,
,,,,,,,,,,,,l,1.43647,Incorrect,,,,,,t4.png,t3.png,1,0.909,20,female,2020-11-24_12h27.44.349,torte-2b,2020.1.3,MacIntel,60,13189,,,,,,,,,,,,,,,,,,,,,,,,,,,,,,,,,,,,,0,31,31,20,1,,,,,,,,,,,,,,,,,,,,,,,,
,,,,,,,,,,,,l,0.68493,Correct!,,,,,,t4.png,t5.png,1,0.90025,20,female,2020-11-24_12h27.44.349,torte-2b,2020.1.3,MacIntel,60,13189,,,,,,,,,,,,,,,,,,,,,,,,,,,,,,,,,,,,,0,32,32,47,1,,,,,,,,,,,,,,,,,,,,,,,,
,,,,,,,,,,,,l,0.37109,Incorrect,,,,,,t5.png,t5.png,0,0.978,20,female,2020-11-24_12h27.44.349,torte-2b,2020.1.3,MacIntel,60,13189,,,,,,,,,,,,,,,,,,,,,,,,,,,,,,,,,,,,,0,33,33,117,1,,,,,,,,,,,,,,,,,,,,,,,,
,,,,,,,,,,,,a,0.702345,Incorrect,,,,,,t4.png,t1.png,3,0.0000131,20,female,2020-11-24_12h27.44.349,torte-2b,2020.1.3,MacIntel,60,13189,,,,,,,,,,,,,,,,,,,,,,,,,,,,,,,,,,,,,0,34,34,48,1,,,,,,,,,,,,,,,,,,,,,,,,
,,,,,,,,,,,,l,0.91585,Incorrect,,,,,,t4.png,t3.png,1,0.90855,20,female,2020-11-24_12h27.44.349,torte-2b,2020.1.3,MacIntel,60,13189,,,,,,,,,,,,,,,,,,,,,,,,,,,,,,,,,,,,,0,35,35,35,1,,,,,,,,,,,,,,,,,,,,,,,,
,,,,,,,,,,,,l,1.118095,Incorrect,,,,,,t2.png,t2.png,0,0.98115,20,female,2020-11-24_12h27.44.349,torte-2b,2020.1.3,MacIntel,60,13189,,,,,,,,,,,,,,,,,,,,,,,,,,,,,,,,,,,,,0,36,36,2,1,,,,,,,,,,,,,,,,,,,,,,,,
,,,,,,,,,,,,a,0.718135,Incorrect,,,,,,t3.png,t1.png,2,0.056466,20,female,2020-11-24_12h27.44.349,torte-2b,2020.1.3,MacIntel,60,13189,,,,,,,,,,,,,,,,,,,,,,,,,,,,,,,,,,,,,0,37,37,0,1,,,,,,,,,,,,,,,,,,,,,,,,
,,,,,,,,,,,,l,0.386275,Incorrect,,,,,,t3.png,t2.png,1,0.909,20,female,2020-11-24_12h27.44.349,torte-2b,2020.1.3,MacIntel,60,13189,,,,,,,,,,,,,,,,,,,,,,,,,,,,,,,,,,,,,0,38,38,3,1,,,,,,,,,,,,,,,,,,,,,,,,
,,,,,,,,,,,,a,0.36707,Incorrect,,,,,,t3.png,t1.png,2,0.056466,20,female,2020-11-24_12h27.44.349,torte-2b,2020.1.3,MacIntel,60,13189,,,,,,,,,,,,,,,,,,,,,,,,,,,,,,,,,,,,,0,39,39,64,1,,,,,,,,,,,,,,,,,,,,,,,,
,,,,,,,,,,,,l,0.335215,Correct!,,,,,,t5.png,t3.png,2,0.0565,20,female,2020-11-24_12h27.44.349,torte-2b,2020.1.3,MacIntel,60,13189,,,,,,,,,,,,,,,,,,,,,,,,,,,,,,,,,,,,,0,40,40,39,1,,,,,,,,,,,,,,,,,,,,,,,,
,,,,,,,,,,,,a,0.350175,Correct!,,,,,,t2.png,t1.png,1,0.90025,20,female,2020-11-24_12h27.44.349,torte-2b,2020.1.3,MacIntel,60,13189,,,,,,,,,,,,,,,,,,,,,,,,,,,,,,,,,,,,,0,41,41,5,1,,,,,,,,,,,,,,,,,,,,,,,,
,,,,,,,,,,,,l,0.28349,Incorrect,,,,,,t1.png,t1.png,0,0.97829,20,female,2020-11-24_12h27.44.349,torte-2b,2020.1.3,MacIntel,60,13189,,,,,,,,,,,,,,,,,,,,,,,,,,,,,,,,,,,,,0,42,42,9,1,,,,,,,,,,,,,,,,,,,,,,,,
,,,,,,,,,,,,l,0.66778,Incorrect,,,,,,t2.png,t3.png,1,0.90855,20,female,2020-11-24_12h27.44.349,torte-2b,2020.1.3,MacIntel,60,13189,,,,,,,,,,,,,,,,,,,,,,,,,,,,,,,,,,,,,0,43,43,10,1,,,,,,,,,,,,,,,,,,,,,,,,
,,,,,,,,,,,,l,0.63707,Incorrect,,,,,,t1.png,t2.png,1,0.90025,20,female,2020-11-24_12h27.44.349,torte-2b,2020.1.3,MacIntel,60,13189,,,,,,,,,,,,,,,,,,,,,,,,,,,,,,,,,,,,,0,44,44,33,1,,,,,,,,,,,,,,,,,,,,,,,,
,,,,,,,,,,,,l,0.43459,Correct!,,,,,,t5.png,t2.png,3,0.0000131,20,female,2020-11-24_12h27.44.349,torte-2b,2020.1.3,MacIntel,60,13189,,,,,,,,,,,,,,,,,,,,,,,,,,,,,,,,,,,,,0,45,45,98,1,,,,,,,,,,,,,,,,,,,,,,,,
,,,,,,,,,,,,a,0.62064,Correct!,,,,,,t5.png,t4.png,1,0.90025,20,female,2020-11-24_12h27.44.349,torte-2b,2020.1.3,MacIntel,60,13189,,,,,,,,,,,,,,,,,,,,,,,,,,,,,,,,,,,,,0,46,46,34,1,,,,,,,,,,,,,,,,,,,,,,,,
,,,,,,,,,,,,l,0.400795,Correct!,,,,,,t2.png,t4.png,2,0.059078,20,female,2020-11-24_12h27.44.349,torte-2b,2020.1.3,MacIntel,60,13189,,,,,,,,,,,,,,,,,,,,,,,,,,,,,,,,,,,,,0,47,47,37,1,,,,,,,,,,,,,,,,,,,,,,,,
,,,,,,,,,,,,a,0.60164,Correct!,,,,,,t5.png,t3.png,2,0.056466,20,female,2020-11-24_12h27.44.349,torte-2b,2020.1.3,MacIntel,60,13189,,,,,,,,,,,,,,,,,,,,,,,,,,,,,,,,,,,,,0,48,48,108,1,,,,,,,,,,,,,,,,,,,,,,,,
,,,,,,,,,,,,l,0.322075,Incorrect,,,,,,t4.png,t3.png,1,0.90855,20,female,2020-11-24_12h27.44.349,torte-2b,2020.1.3,MacIntel,60,13189,,,,,,,,,,,,,,,,,,,,,,,,,,,,,,,,,,,,,0,49,49,45,1,,,,,,,,,,,,,,,,,,,,,,,,
,,,,,,,,,,,,a,0.36719,Correct!,,,,,,t4.png,t4.png,0,0.98115,20,female,2020-11-24_12h27.44.349,torte-2b,2020.1.3,MacIntel,60,13189,,,,,,,,,,,,,,,,,,,,,,,,,,,,,,,,,,,,,0,50,50,80,1,,,,,,,,,,,,,,,,,,,,,,,,
,,,,,,,,,,,,l,0.28523,Correct!,,,,,,t5.png,t2.png,3,0.0000131,20,female,2020-11-24_12h27.44.349,torte-2b,2020.1.3,MacIntel,60,13189,,,,,,,,,,,,,,,,,,,,,,,,,,,,,,,,,,,,,0,51,51,116,1,,,,,,,,,,,,,,,,,,,,,,,,
,,,,,,,,,,,,a,0.36678,Correct!,,,,,,t4.png,t4.png,0,0.98115,20,female,2020-11-24_12h27.44.349,torte-2b,2020.1.3,MacIntel,60,13189,,,,,,,,,,,,,,,,,,,,,,,,,,,,,,,,,,,,,0,52,52,90,1,,,,,,,,,,,,,,,,,,,,,,,,
,,,,,,,,,,,,l,0.64972,Incorrect,,,,,,t5.png,t5.png,0,0.97829,20,female,2020-11-24_12h27.44.349,torte-2b,2020.1.3,MacIntel,60,13189,,,,,,,,,,,,,,,,,,,,,,,,,,,,,,,,,,,,,0,53,53,70,1,,,,,,,,,,,,,,,,,,,,,,,,
,,,,,,,,,,,,l,0.65051,Incorrect,,,,,,t1.png,t2.png,1,0.90025,20,female,2020-11-24_12h27.44.349,torte-2b,2020.1.3,MacIntel,60,13189,,,,,,,,,,,,,,,,,,,,,,,,,,,,,,,,,,,,,0,54,54,105,1,,,,,,,,,,,,,,,,,,,,,,,,
,,,,,,,,,,,,a,0.567735,Incorrect,,,,,,t4.png,t2.png,2,0.059078,20,female,2020-11-24_12h27.44.349,torte-2b,2020.1.3,MacIntel,60,13189,,,,,,,,,,,,,,,,,,,,,,,,,,,,,,,,,,,,,0,55,55,88,1,,,,,,,,,,,,,,,,,,,,,,,,
,,,,,,,,,,,,l,0.36911,Correct!,,,,,,t2.png,t4.png,2,0.059078,20,female,2020-11-24_12h27.44.349,torte-2b,2020.1.3,MacIntel,60,13189,,,,,,,,,,,,,,,,,,,,,,,,,,,,,,,,,,,,,0,56,56,24,1,,,,,,,,,,,,,,,,,,,,,,,,
,,,,,,,,,,,,l,0.584485,Incorrect,,,,,,t1.png,t3.png,2,0.056466,20,female,2020-11-24_12h27.44.349,torte-2b,2020.1.3,MacIntel,60,13189,,,,,,,,,,,,,,,,,,,,,,,,,,,,,,,,,,,,,0,57,57,60,1,,,,,,,,,,,,,,,,,,,,,,,,
,,,,,,,,,,,,l,0.566995,Correct!,,,,,,t3.png,t5.png,2,0.056466,20,female,2020-11-24_12h27.44.349,torte-2b,2020.1.3,MacIntel,60,13189,,,,,,,,,,,,,,,,,,,,,,,,,,,,,,,,,,,,,0,58,58,6,1,,,,,,,,,,,,,,,,,,,,,,,,
,,,,,,,,,,,,l,0.78506,Incorrect,,,,,,t2.png,t2.png,0,0.98115,20,female,2020-11-24_12h27.44.349,torte-2b,2020.1.3,MacIntel,60,13189,,,,,,,,,,,,,,,,,,,,,,,,,,,,,,,,,,,,,0,59,59,7,1,,,,,,,,,,,,,,,,,,,,,,,,
,,,,,,,,,,,,l,0.80164,Incorrect,,,,,,t2.png,t1.png,1,0.90025,20,female,2020-11-24_12h27.44.349,torte-2b,2020.1.3,MacIntel,60,13189,,,,,,,,,,,,,,,,,,,,,,,,,,,,,,,,,,,,,0,60,60,19,1,,,,,,,,,,,,,,,,,,,,,,,,
,,,,,,,,,,,,l,0.71709,Incorrect,,,,,,t3.png,t4.png,1,0.909,20,female,2020-11-24_12h27.44.349,torte-2b,2020.1.3,MacIntel,60,13189,,,,,,,,,,,,,,,,,,,,,,,,,,,,,,,,,,,,,0,61,61,106,1,,,,,,,,,,,,,,,,,,,,,,,,
,,,,,,,,,,,,l,0.487315,Correct!,,,,,,t3.png,t5.png,2,0.056466,20,female,2020-11-24_12h27.44.349,torte-2b,2020.1.3,MacIntel,60,13189,,,,,,,,,,,,,,,,,,,,,,,,,,,,,,,,,,,,,0,62,62,44,1,,,,,,,,,,,,,,,,,,,,,,,,
,,,,,,,,,,,,l,0.518825,Correct!,,,,,,t1.png,t5.png,4,9.55E-11,20,female,2020-11-24_12h27.44.349,torte-2b,2020.1.3,MacIntel,60,13189,,,,,,,,,,,,,,,,,,,,,,,,,,,,,,,,,,,,,0,63,63,85,1,,,,,,,,,,,,,,,,,,,,,,,,
,,,,,,,,,,,,l,0.420745,Incorrect,,,,,,t1.png,t1.png,0,0.97829,20,female,2020-11-24_12h27.44.349,torte-2b,2020.1.3,MacIntel,60,13189,,,,,,,,,,,,,,,,,,,,,,,,,,,,,,,,,,,,,0,64,64,78,1,,,,,,,,,,,,,,,,,,,,,,,,
,,,,,,,,,,,,a,0.38632,Incorrect,,,,,,t5.png,t1.png,4,9.55E-11,20,female,2020-11-24_12h27.44.349,torte-2b,2020.1.3,MacIntel,60,13189,,,,,,,,,,,,,,,,,,,,,,,,,,,,,,,,,,,,,0,65,65,100,1,,,,,,,,,,,,,,,,,,,,,,,,
,,,,,,,,,,,,a,0.76974,Correct!,,,,,,t4.png,t3.png,1,0.90855,20,female,2020-11-24_12h27.44.349,torte-2b,2020.1.3,MacIntel,60,13189,,,,,,,,,,,,,,,,,,,,,,,,,,,,,,,,,,,,,0,66,66,75,1,,,,,,,,,,,,,,,,,,,,,,,,
,,,,,,,,,,,,a,0.753335,Incorrect,,,,,,t3.png,t1.png,2,0.056466,20,female,2020-11-24_12h27.44.349,torte-2b,2020.1.3,MacIntel,60,13189,,,,,,,,,,,,,,,,,,,,,,,,,,,,,,,,,,,,,0,67,67,29,1,,,,,,,,,,,,,,,,,,,,,,,,
,,,,,,,,,,,,a,0.90104,Incorrect,,,,,,t4.png,t2.png,2,0.059078,20,female,2020-11-24_12h27.44.349,torte-2b,2020.1.3,MacIntel,60,13189,,,,,,,,,,,,,,,,,,,,,,,,,,,,,,,,,,,,,0,68,68,109,1,,,,,,,,,,,,,,,,,,,,,,,,
,,,,,,,,,,,,l,0.68391,Correct!,,,,,,t1.png,t3.png,2,0.056466,20,female,2020-11-24_12h27.44.349,torte-2b,2020.1.3,MacIntel,60,13189,,,,,,,,,,,,,,,,,,,,,,,,,,,,,,,,,,,,,0,69,69,69,1,,,,,,,,,,,,,,,,,,,,,,,,
,,,,,,,,,,,,l,0.56734,Correct!,,,,,,t1.png,t5.png,4,9.55E-11,20,female,2020-11-24_12h27.44.349,torte-2b,2020.1.3,MacIntel,60,13189,,,,,,,,,,,,,,,,,,,,,,,,,,,,,,,,,,,,,0,70,70,55,1,,,,,,,,,,,,,,,,,,,,,,,,
,,,,,,,,,,,,a,0.667375,Correct!,,,,,,t3.png,t2.png,1,0.90855,20,female,2020-11-24_12h27.44.349,torte-2b,2020.1.3,MacIntel,60,13189,,,,,,,,,,,,,,,,,,,,,,,,,,,,,,,,,,,,,0,71,71,18,1,,,,,,,,,,,,,,,,,,,,,,,,
,,,,,,,,,,,,l,0.283515,Correct!,,,,,,t2.png,t3.png,1,0.90855,20,female,2020-11-24_12h27.44.349,torte-2b,2020.1.3,MacIntel,60,13189,,,,,,,,,,,,,,,,,,,,,,,,,,,,,,,,,,,,,0,72,72,65,1,,,,,,,,,,,,,,,,,,,,,,,,
,,,,,,,,,,,,l,0.66589,Correct!,,,,,,t1.png,t2.png,1,0.90025,20,female,2020-11-24_12h27.44.349,torte-2b,2020.1.3,MacIntel,60,13189,,,,,,,,,,,,,,,,,,,,,,,,,,,,,,,,,,,,,0,73,73,112,1,,,,,,,,,,,,,,,,,,,,,,,,
,,,,,,,,,,,,l,0.63426,Incorrect,,,,,,t5.png,t5.png,0,0.97829,20,female,2020-11-24_12h27.44.349,torte-2b,2020.1.3,MacIntel,60,13189,,,,,,,,,,,,,,,,,,,,,,,,,,,,,,,,,,,,,0,74,74,94,1,,,,,,,,,,,,,,,,,,,,,,,,
,,,,,,,,,,,,a,0.583965,Incorrect,,,,,,t5.png,t1.png,4,9.55E-11,20,female,2020-11-24_12h27.44.349,torte-2b,2020.1.3,MacIntel,60,13189,,,,,,,,,,,,,,,,,,,,,,,,,,,,,,,,,,,,,0,75,75,22,1,,,,,,,,,,,,,,,,,,,,,,,,
,,,,,,,,,,,,a,0.934945,Correct!,,,,,,t1.png,t1.png,0,0.978,20,female,2020-11-24_12h27.44.349,torte-2b,2020.1.3,MacIntel,60,13189,,,,,,,,,,,,,,,,,,,,,,,,,,,,,,,,,,,,,0,76,76,54,1,,,,,,,,,,,,,,,,,,,,,,,,
,,,,,,,,,,,,l,1.434635,Incorrect,,,,,,t2.png,t3.png,1,0.90855,20,female,2020-11-24_12h27.44.349,torte-2b,2020.1.3,MacIntel,60,13189,,,,,,,,,,,,,,,,,,,,,,,,,,,,,,,,,,,,,0,77,77,111,1,,,,,,,,,,,,,,,,,,,,,,,,
,,,,,,,,,,,,a,0.650815,Correct!,,,,,,t5.png,t4.png,1,0.9,20,female,2020-11-24_12h27.44.349,torte-2b,2020.1.3,MacIntel,60,13189,,,,,,,,,,,,,,,,,,,,,,,,,,,,,,,,,,,,,0,78,78,49,1,,,,,,,,,,,,,,,,,,,,,,,,
,,,,,,,,,,,,l,0.65105,Correct!,,,,,,t2.png,t5.png,3,0.0000131,20,female,2020-11-24_12h27.44.349,torte-2b,2020.1.3,MacIntel,60,13189,,,,,,,,,,,,,,,,,,,,,,,,,,,,,,,,,,,,,0,79,79,66,1,,,,,,,,,,,,,,,,,,,,,,,,
,,,,,,,,,,,,a,0.950255,Correct!,,,,,,t1.png,t1.png,0,0.97829,20,female,2020-11-24_12h27.44.349,torte-2b,2020.1.3,MacIntel,60,13189,,,,,,,,,,,,,,,,,,,,,,,,,,,,,,,,,,,,,0,80,80,67,1,,,,,,,,,,,,,,,,,,,,,,,,
,,,,,,,,,,,,l,0.66824,Correct!,,,,,,t2.png,t5.png,3,0.0000131,20,female,2020-11-24_12h27.44.349,torte-2b,2020.1.3,MacIntel,60,13189,,,,,,,,,,,,,,,,,,,,,,,,,,,,,,,,,,,,,0,81,81,104,1,,,,,,,,,,,,,,,,,,,,,,,,
,,,,,,,,,,,,a,0.60154,Incorrect,,,,,,t4.png,t1.png,3,0.0000131,20,female,2020-11-24_12h27.44.349,torte-2b,2020.1.3,MacIntel,60,13189,,,,,,,,,,,,,,,,,,,,,,,,,,,,,,,,,,,,,0,82,82,13,1,,,,,,,,,,,,,,,,,,,,,,,,
,,,,,,,,,,,,a,0.616975,Incorrect,,,,,,t5.png,t2.png,3,0.0000131,20,female,2020-11-24_12h27.44.349,torte-2b,2020.1.3,MacIntel,60,13189,,,,,,,,,,,,,,,,,,,,,,,,,,,,,,,,,,,,,0,83,83,119,1,,,,,,,,,,,,,,,,,,,,,,,,
,,,,,,,,,,,,l,0.63423,Incorrect,,,,,,t2.png,t3.png,1,0.909,20,female,2020-11-24_12h27.44.349,torte-2b,2020.1.3,MacIntel,60,13189,,,,,,,,,,,,,,,,,,,,,,,,,,,,,,,,,,,,,0,84,84,74,1,,,,,,,,,,,,,,,,,,,,,,,,
,,,,,,,,,,,,l,0.851735,Incorrect,,,,,,t3.png,t4.png,1,0.909,20,female,2020-11-24_12h27.44.349,torte-2b,2020.1.3,MacIntel,60,13189,,,,,,,,,,,,,,,,,,,,,,,,,,,,,,,,,,,,,0,85,85,82,1,,,,,,,,,,,,,,,,,,,,,,,,
,,,,,,,,,,,,a,0.68366,Incorrect,,,,,,t5.png,t2.png,3,0.0000131,20,female,2020-11-24_12h27.44.349,torte-2b,2020.1.3,MacIntel,60,13189,,,,,,,,,,,,,,,,,,,,,,,,,,,,,,,,,,,,,0,86,86,91,1,,,,,,,,,,,,,,,,,,,,,,,,
,,,,,,,,,,,,l,0.60135,Correct!,,,,,,t1.png,t5.png,4,9.55E-11,20,female,2020-11-24_12h27.44.349,torte-2b,2020.1.3,MacIntel,60,13189,,,,,,,,,,,,,,,,,,,,,,,,,,,,,,,,,,,,,0,87,87,16,1,,,,,,,,,,,,,,,,,,,,,,,,
,,,,,,,,,,,,a,0.68348,Incorrect,,,,,,t1.png,t4.png,3,0.0000131,20,female,2020-11-24_12h27.44.349,torte-2b,2020.1.3,MacIntel,60,13189,,,,,,,,,,,,,,,,,,,,,,,,,,,,,,,,,,,,,0,88,88,81,1,,,,,,,,,,,,,,,,,,,,,,,,
,,,,,,,,,,,,a,0.90053,Correct!,,,,,,t5.png,t4.png,1,0.9,20,female,2020-11-24_12h27.44.349,torte-2b,2020.1.3,MacIntel,60,13189,,,,,,,,,,,,,,,,,,,,,,,,,,,,,,,,,,,,,0,89,89,76,1,,,,,,,,,,,,,,,,,,,,,,,,
,,,,,,,,,,,,a,0.43414,Incorrect,,,,,,t2.png,t4.png,2,0.0591,20,female,2020-11-24_12h27.44.349,torte-2b,2020.1.3,MacIntel,60,13189,,,,,,,,,,,,,,,,,,,,,,,,,,,,,,,,,,,,,0,90,90,15,1,,,,,,,,,,,,,,,,,,,,,,,,
,,,,,,,,,,,,a,1.03515,Correct!,,,,,,t2.png,t2.png,0,0.98115,20,female,2020-11-24_12h27.44.349,torte-2b,2020.1.3,MacIntel,60,13189,,,,,,,,,,,,,,,,,,,,,,,,,,,,,,,,,,,,,0,91,91,57,1,,,,,,,,,,,,,,,,,,,,,,,,
,,,,,,,,,,,,a,0.718155,Incorrect,,,,,,t5.png,t1.png,4,9.55E-11,20,female,2020-11-24_12h27.44.349,torte-2b,2020.1.3,MacIntel,60,13189,,,,,,,,,,,,,,,,,,,,,,,,,,,,,,,,,,,,,0,92,92,43,1,,,,,,,,,,,,,,,,,,,,,,,,
,,,,,,,,,,,,l,1.183675,Correct!,,,,,,t1.png,t5.png,4,9.55E-11,20,female,2020-11-24_12h27.44.349,torte-2b,2020.1.3,MacIntel,60,13189,,,,,,,,,,,,,,,,,,,,,,,,,,,,,,,,,,,,,0,93,93,12,1,,,,,,,,,,,,,,,,,,,,,,,,
,,,,,,,,,,,,a,0.784845,Correct!,,,,,,t4.png,t2.png,2,0.0591,20,female,2020-11-24_12h27.44.349,torte-2b,2020.1.3,MacIntel,60,13189,,,,,,,,,,,,,,,,,,,,,,,,,,,,,,,,,,,,,0,94,94,36,1,,,,,,,,,,,,,,,,,,,,,,,,
,,,,,,,,,,,,a,0.66929,Incorrect,,,,,,t5.png,t1.png,4,9.55E-11,20,female,2020-11-24_12h27.44.349,torte-2b,2020.1.3,MacIntel,60,13189,,,,,,,,,,,,,,,,,,,,,,,,,,,,,,,,,,,,,0,95,95,71,1,,,,,,,,,,,,,,,,,,,,,,,,
,,,,,,,,,,,,a,0.68476,Incorrect,,,,,,t4.png,t1.png,3,0.0000131,20,female,2020-11-24_12h27.44.349,torte-2b,2020.1.3,MacIntel,60,13189,,,,,,,,,,,,,,,,,,,,,,,,,,,,,,,,,,,,,0,96,96,61,1,,,,,,,,,,,,,,,,,,,,,,,,
,,,,,,,,,,,,l,0.701105,Incorrect,,,,,,t4.png,t5.png,1,0.9,20,female,2020-11-24_12h27.44.349,torte-2b,2020.1.3,MacIntel,60,13189,,,,,,,,,,,,,,,,,,,,,,,,,,,,,,,,,,,,,0,97,97,115,1,,,,,,,,,,,,,,,,,,,,,,,,
,,,,,,,,,,,,a,0.70359,Correct!,,,,,,t2.png,t1.png,1,0.90025,20,female,2020-11-24_12h27.44.349,torte-2b,2020.1.3,MacIntel,60,13189,,,,,,,,,,,,,,,,,,,,,,,,,,,,,,,,,,,,,0,98,98,4,1,,,,,,,,,,,,,,,,,,,,,,,,
,,,,,,,,,,,,a,0.700855,Correct!,,,,,,t4.png,t4.png,0,0.98115,20,female,2020-11-24_12h27.44.349,torte-2b,2020.1.3,MacIntel,60,13189,,,,,,,,,,,,,,,,,,,,,,,,,,,,,,,,,,,,,0,99,99,21,1,,,,,,,,,,,,,,,,,,,,,,,,
,,,,,,,,,,,,l,0.787085,Correct!,,,,,,t1.png,t4.png,3,0.0000131,20,female,2020-11-24_12h27.44.349,torte-2b,2020.1.3,MacIntel,60,13189,,,,,,,,,,,,,,,,,,,,,,,,,,,,,,,,,,,,,0,100,100,107,1,,,,,,,,,,,,,,,,,,,,,,,,
,,,,,,,,,,,,a,0.683375,Incorrect,,,,,,t3.png,t1.png,2,0.056466,20,female,2020-11-24_12h27.44.349,torte-2b,2020.1.3,MacIntel,60,13189,,,,,,,,,,,,,,,,,,,,,,,,,,,,,,,,,,,,,0,101,101,32,1,,,,,,,,,,,,,,,,,,,,,,,,
,,,,,,,,,,,,a,0.649735,Incorrect,,,,,,t4.png,t1.png,3,0.0000131,20,female,2020-11-24_12h27.44.349,torte-2b,2020.1.3,MacIntel,60,13189,,,,,,,,,,,,,,,,,,,,,,,,,,,,,,,,,,,,,0,102,102,42,1,,,,,,,,,,,,,,,,,,,,,,,,
,,,,,,,,,,,,a,0.903525,Incorrect,,,,,,t1.png,t1.png,0,0.978,20,female,2020-11-24_12h27.44.349,torte-2b,2020.1.3,MacIntel,60,13189,,,,,,,,,,,,,,,,,,,,,,,,,,,,,,,,,,,,,0,103,103,28,1,,,,,,,,,,,,,,,,,,,,,,,,
,,,,,,,,,,,,a,0.68372,Correct!,,,,,,t4.png,t4.png,0,0.98115,20,female,2020-11-24_12h27.44.349,torte-2b,2020.1.3,MacIntel,60,13189,,,,,,,,,,,,,,,,,,,,,,,,,,,,,,,,,,,,,0,104,104,79,1,,,,,,,,,,,,,,,,,,,,,,,,
,,,,,,,,,,,,a,0.800735,Correct!,,,,,,t5.png,t5.png,0,0.97829,20,female,2020-11-24_12h27.44.349,torte-2b,2020.1.3,MacIntel,60,13189,,,,,,,,,,,,,,,,,,,,,,,,,,,,,,,,,,,,,0,105,105,25,1,,,,,,,,,,,,,,,,,,,,,,,,
,,,,,,,,,,,,l,0.96894,Correct!,,,,,,t3.png,t5.png,2,0.056466,20,female,2020-11-24_12h27.44.349,torte-2b,2020.1.3,MacIntel,60,13189,,,,,,,,,,,,,,,,,,,,,,,,,,,,,,,,,,,,,0,106,106,14,1,,,,,,,,,,,,,,,,,,,,,,,,
,,,,,,,,,,,,a,0.68448,Correct!,,,,,,t3.png,t2.png,1,0.909,20,female,2020-11-24_12h27.44.349,torte-2b,2020.1.3,MacIntel,60,13189,,,,,,,,,,,,,,,,,,,,,,,,,,,,,,,,,,,,,0,107,107,23,1,,,,,,,,,,,,,,,,,,,,,,,,
,,,,,,,,,,,,a,0.718415,Correct!,,,,,,t3.png,t2.png,1,0.90855,20,female,2020-11-24_12h27.44.349,torte-2b,2020.1.3,MacIntel,60,13189,,,,,,,,,,,,,,,,,,,,,,,,,,,,,,,,,,,,,0,108,108,53,1,,,,,,,,,,,,,,,,,,,,,,,,
,,,,,,,,,,,,a,0.66898,Incorrect,,,,,,t4.png,t2.png,2,0.059078,20,female,2020-11-24_12h27.44.349,torte-2b,2020.1.3,MacIntel,60,13189,,,,,,,,,,,,,,,,,,,,,,,,,,,,,,,,,,,,,0,109,109,110,1,,,,,,,,,,,,,,,,,,,,,,,,
,,,,,,,,,,,,l,0.800305,Correct!,,,,,,t3.png,t5.png,2,0.0565,20,female,2020-11-24_12h27.44.349,torte-2b,2020.1.3,MacIntel,60,13189,,,,,,,,,,,,,,,,,,,,,,,,,,,,,,,,,,,,,0,110,110,30,1,,,,,,,,,,,,,,,,,,,,,,,,
,,,,,,,,,,,,a,0.636045,Correct!,,,,,,t4.png,t4.png,0,0.98115,20,female,2020-11-24_12h27.44.349,torte-2b,2020.1.3,MacIntel,60,13189,,,,,,,,,,,,,,,,,,,,,,,,,,,,,,,,,,,,,0,111,111,52,1,,,,,,,,,,,,,,,,,,,,,,,,
,,,,,,,,,,,,a,0.43392,Correct!,,,,,,t4.png,t2.png,2,0.059078,20,female,2020-11-24_12h27.44.349,torte-2b,2020.1.3,MacIntel,60,13189,,,,,,,,,,,,,,,,,,,,,,,,,,,,,,,,,,,,,0,112,112,86,1,,,,,,,,,,,,,,,,,,,,,,,,
,,,,,,,,,,,,a,0.79067,Incorrect,,,,,,t3.png,t1.png,2,0.0565,20,female,2020-11-24_12h27.44.349,torte-2b,2020.1.3,MacIntel,60,13189,,,,,,,,,,,,,,,,,,,,,,,,,,,,,,,,,,,,,0,113,113,31,1,,,,,,,,,,,,,,,,,,,,,,,,
,,,,,,,,,,,,a,0.91718,Incorrect,,,,,,t1.png,t2.png,1,0.9,20,female,2020-11-24_12h27.44.349,torte-2b,2020.1.3,MacIntel,60,13189,,,,,,,,,,,,,,,,,,,,,,,,,,,,,,,,,,,,,0,114,114,1,1,,,,,,,,,,,,,,,,,,,,,,,,
,,,,,,,,,,,,a,0.61683,Incorrect,,,,,,t1.png,t4.png,3,0.0000131,20,female,2020-11-24_12h27.44.349,torte-2b,2020.1.3,MacIntel,60,13189,,,,,,,,,,,,,,,,,,,,,,,,,,,,,,,,,,,,,0,115,115,50,1,,,,,,,,,,,,,,,,,,,,,,,,
,,,,,,,,,,,,l,0.41945,Correct!,,,,,,t1.png,t5.png,4,9.55E-11,20,female,2020-11-24_12h27.44.349,torte-2b,2020.1.3,MacIntel,60,13189,,,,,,,,,,,,,,,,,,,,,,,,,,,,,,,,,,,,,0,116,116,41,1,,,,,,,,,,,,,,,,,,,,,,,,
,,,,,,,,,,,,a,0.517185,Incorrect,,,,,,t5.png,t3.png,2,0.056466,20,female,2020-11-24_12h27.44.349,torte-2b,2020.1.3,MacIntel,60,13189,,,,,,,,,,,,,,,,,,,,,,,,,,,,,,,,,,,,,0,117,117,38,1,,,,,,,,,,,,,,,,,,,,,,,,
,,,,,,,,,,,,l,0.539305,Correct!,,,,,,t2.png,t5.png,3,0.0000131,20,female,2020-11-24_12h27.44.349,torte-2b,2020.1.3,MacIntel,60,13189,,,,,,,,,,,,,,,,,,,,,,,,,,,,,,,,,,,,,0,118,118,40,1,,,,,,,,,,,,,,,,,,,,,,,,
,,,,,,,,,,,,a,0.551445,Correct!,,,,,,t4.png,t5.png,1,0.90025,20,female,2020-11-24_12h27.44.349,torte-2b,2020.1.3,MacIntel,60,13189,,,,,,,,,,,,,,,,,,,,,,,,,,,,,,,,,,,,,0,119,119,103,1,,,,,,,,,,,,,,,,,,,,,,,,
,,,,,,,,,,,,,,,,,,,,,,,,20,female,2020-11-24_12h27.44.349,torte-2b,2020.1.3,MacIntel,60,13189,l,1.133035,,,,,,,,,,,,,,,,,,,,,,,,,,,,,,,,,,,,,,,,113.8270874,175.0854187,1,0,0,s1,80.42523193,86.70257568,1,0,0,t1,175.9936523,-94.20239258,1,0,0,proceed,space,0.5169,space,0.667955,space,0.26989
