key_resp_8.keys,key_resp_8.rt,key_resp_9.keys,key_resp_9.rt,key_resp_10.keys,key_resp_10.rt,key_resp_11.keys,key_resp_11.rt,key_resp_2.keys,key_resp_2.rt,key_resp_3.keys,key_resp_3.rt,key_resp.keys,Feedback,train.thisRepN,train.thisTrialN,train.thisN,train.thisIndex,train.ran,torta_sx,torta_dx,difference,probability,age,gender,date,expName,psychopyVersion,OS,frameRate,participant,key_resp.rt,key_resp_15.keys,key_resp_15.rt,key_resp_6.keys,key_resp_6.rt,test1.thisRepN,test1.thisTrialN,test1.thisN,test1.thisIndex,test1.ran,key_resp_4.keys,key_resp_4.rt,key_resp_5.keys,back1.thisRepN,back1.thisTrialN,back1.thisN,back1.thisIndex,back1.ran,letter,key_resp_5.rt,back2.thisRepN,back2.thisTrialN,back2.thisN,back2.thisIndex,back2.ran,back3.thisRepN,back3.thisTrialN,back3.thisN,back3.thisIndex,back3.ran,back4.thisRepN,back4.thisTrialN,back4.thisN,back4.thisIndex,back4.ran,key_resp_7.keys,key_resp_7.rt,test2.thisRepN,test2.thisTrialN,test2.thisN,test2.thisIndex,test2.ran,mouse.x,mouse.y,mouse.leftButton,mouse.midButton,mouse.rightButton,mouse.clicked_name,mouse_2.x,mouse_2.y,mouse_2.leftButton,mouse_2.midButton,mouse_2.rightButton,mouse_2.clicked_name,mouse_3.x,mouse_3.y,mouse_3.leftButton,mouse_3.midButton,mouse_3.rightButton,mouse_3.clicked_name,key_resp_12.keys,key_resp_12.rt,key_resp_13.keys,key_resp_13.rt,key_resp_14.keys,key_resp_14.rt
space,697.93098,space,2.56308,space,0.83456,space,3.132595,space,7.501385,space,13.22081,,Too slow :(,0,0,0,44,1,t2.png,t3.png,1,0.909,19,female,2020-09-05_18h38.29.761,torte-2b,2020.1.3,MacIntel,60,13196,,,,,,,,,,,,,,,,,,,,,,,,,,,,,,,,,,,,,,,,,,,,,,,,,,,,,,,,,,,,,,,,,,
,,,,,,,,,,,,a,Incorrect,0,1,1,45,1,t3.png,t2.png,1,0.90855,19,female,2020-09-05_18h38.29.761,torte-2b,2020.1.3,MacIntel,60,13196,0.03546,,,,,,,,,,,,,,,,,,,,,,,,,,,,,,,,,,,,,,,,,,,,,,,,,,,,,,,,,,,,,,,,,
,,,,,,,,,,,,l,Incorrect,0,2,2,22,1,t2.png,t3.png,1,0.90855,19,female,2020-09-05_18h38.29.761,torte-2b,2020.1.3,MacIntel,60,13196,1.10106,,,,,,,,,,,,,,,,,,,,,,,,,,,,,,,,,,,,,,,,,,,,,,,,,,,,,,,,,,,,,,,,,
,,,,,,,,,,,,l,Correct!,0,3,3,57,1,t2.png,t4.png,2,0.059078,19,female,2020-09-05_18h38.29.761,torte-2b,2020.1.3,MacIntel,60,13196,2.384255,,,,,,,,,,,,,,,,,,,,,,,,,,,,,,,,,,,,,,,,,,,,,,,,,,,,,,,,,,,,,,,,,
,,,,,,,,,,,,a,Correct!,0,4,4,13,1,t5.png,t5.png,0,0.97829,19,female,2020-09-05_18h38.29.761,torte-2b,2020.1.3,MacIntel,60,13196,2.317245,,,,,,,,,,,,,,,,,,,,,,,,,,,,,,,,,,,,,,,,,,,,,,,,,,,,,,,,,,,,,,,,,
,,,,,,,,,,,,a,Incorrect,0,5,5,72,1,t4.png,t2.png,2,0.059078,19,female,2020-09-05_18h38.29.761,torte-2b,2020.1.3,MacIntel,60,13196,1.38433,,,,,,,,,,,,,,,,,,,,,,,,,,,,,,,,,,,,,,,,,,,,,,,,,,,,,,,,,,,,,,,,,
,,,,,,,,,,,,l,Incorrect,0,6,6,106,1,t2.png,t3.png,1,0.90855,19,female,2020-09-05_18h38.29.761,torte-2b,2020.1.3,MacIntel,60,13196,1.553955,,,,,,,,,,,,,,,,,,,,,,,,,,,,,,,,,,,,,,,,,,,,,,,,,,,,,,,,,,,,,,,,,
,,,,,,,,,,,,a,Incorrect,0,7,7,19,1,t4.png,t2.png,2,0.059078,19,female,2020-09-05_18h38.29.761,torte-2b,2020.1.3,MacIntel,60,13196,1.117365,,,,,,,,,,,,,,,,,,,,,,,,,,,,,,,,,,,,,,,,,,,,,,,,,,,,,,,,,,,,,,,,,
,,,,,,,,,,,,a,Incorrect,0,8,8,26,1,t4.png,t2.png,2,0.0591,19,female,2020-09-05_18h38.29.761,torte-2b,2020.1.3,MacIntel,60,13196,0.34987,,,,,,,,,,,,,,,,,,,,,,,,,,,,,,,,,,,,,,,,,,,,,,,,,,,,,,,,,,,,,,,,,
,,,,,,,,,,,,l,Correct!,0,9,9,63,1,t2.png,t3.png,1,0.909,19,female,2020-09-05_18h38.29.761,torte-2b,2020.1.3,MacIntel,60,13196,0.285155,,,,,,,,,,,,,,,,,,,,,,,,,,,,,,,,,,,,,,,,,,,,,,,,,,,,,,,,,,,,,,,,,
,,,,,,,,,,,,,Too slow :(,0,10,10,99,1,t1.png,t5.png,4,9.55E-11,19,female,2020-09-05_18h38.29.761,torte-2b,2020.1.3,MacIntel,60,13196,,,,,,,,,,,,,,,,,,,,,,,,,,,,,,,,,,,,,,,,,,,,,,,,,,,,,,,,,,,,,,,,,,
,,,,,,,,,,,,a,Correct!,0,11,11,39,1,t3.png,t2.png,1,0.90855,19,female,2020-09-05_18h38.29.761,torte-2b,2020.1.3,MacIntel,60,13196,1.436785,,,,,,,,,,,,,,,,,,,,,,,,,,,,,,,,,,,,,,,,,,,,,,,,,,,,,,,,,,,,,,,,,
,,,,,,,,,,,,l,Correct!,0,12,12,53,1,t3.png,t1.png,2,0.056466,19,female,2020-09-05_18h38.29.761,torte-2b,2020.1.3,MacIntel,60,13196,1.729005,,,,,,,,,,,,,,,,,,,,,,,,,,,,,,,,,,,,,,,,,,,,,,,,,,,,,,,,,,,,,,,,,
,,,,,,,,,,,,l,Incorrect,0,13,13,71,1,t5.png,t5.png,0,0.97829,19,female,2020-09-05_18h38.29.761,torte-2b,2020.1.3,MacIntel,60,13196,1.314325,,,,,,,,,,,,,,,,,,,,,,,,,,,,,,,,,,,,,,,,,,,,,,,,,,,,,,,,,,,,,,,,,
,,,,,,,,,,,,l,Correct!,0,14,14,36,1,t3.png,t1.png,2,0.0565,19,female,2020-09-05_18h38.29.761,torte-2b,2020.1.3,MacIntel,60,13196,1.80057,,,,,,,,,,,,,,,,,,,,,,,,,,,,,,,,,,,,,,,,,,,,,,,,,,,,,,,,,,,,,,,,,
,,,,,,,,,,,,l,Correct!,0,15,15,117,1,t1.png,t5.png,4,9.55E-11,19,female,2020-09-05_18h38.29.761,torte-2b,2020.1.3,MacIntel,60,13196,1.54953,,,,,,,,,,,,,,,,,,,,,,,,,,,,,,,,,,,,,,,,,,,,,,,,,,,,,,,,,,,,,,,,,
,,,,,,,,,,,,l,Correct!,0,16,16,40,1,t1.png,t5.png,4,9.55E-11,19,female,2020-09-05_18h38.29.761,torte-2b,2020.1.3,MacIntel,60,13196,0.901155,,,,,,,,,,,,,,,,,,,,,,,,,,,,,,,,,,,,,,,,,,,,,,,,,,,,,,,,,,,,,,,,,
,,,,,,,,,,,,a,Incorrect,0,17,17,87,1,t5.png,t1.png,4,9.55E-11,19,female,2020-09-05_18h38.29.761,torte-2b,2020.1.3,MacIntel,60,13196,0.768635,,,,,,,,,,,,,,,,,,,,,,,,,,,,,,,,,,,,,,,,,,,,,,,,,,,,,,,,,,,,,,,,,
,,,,,,,,,,,,l,Incorrect,0,18,18,29,1,t5.png,t5.png,0,0.97829,19,female,2020-09-05_18h38.29.761,torte-2b,2020.1.3,MacIntel,60,13196,0.736635,,,,,,,,,,,,,,,,,,,,,,,,,,,,,,,,,,,,,,,,,,,,,,,,,,,,,,,,,,,,,,,,,
,,,,,,,,,,,,l,Correct!,0,19,19,86,1,t3.png,t1.png,2,0.056466,19,female,2020-09-05_18h38.29.761,torte-2b,2020.1.3,MacIntel,60,13196,0.81683,,,,,,,,,,,,,,,,,,,,,,,,,,,,,,,,,,,,,,,,,,,,,,,,,,,,,,,,,,,,,,,,,
,,,,,,,,,,,,a,Correct!,0,20,20,110,1,t4.png,t5.png,1,0.90025,19,female,2020-09-05_18h38.29.761,torte-2b,2020.1.3,MacIntel,60,13196,0.265995,,,,,,,,,,,,,,,,,,,,,,,,,,,,,,,,,,,,,,,,,,,,,,,,,,,,,,,,,,,,,,,,,
,,,,,,,,,,,,a,Incorrect,0,21,21,80,1,t1.png,t4.png,3,0.0000131,19,female,2020-09-05_18h38.29.761,torte-2b,2020.1.3,MacIntel,60,13196,0.30087,,,,,,,,,,,,,,,,,,,,,,,,,,,,,,,,,,,,,,,,,,,,,,,,,,,,,,,,,,,,,,,,,
,,,,,,,,,,,,l,Incorrect,0,22,22,112,1,t1.png,t1.png,0,0.97829,19,female,2020-09-05_18h38.29.761,torte-2b,2020.1.3,MacIntel,60,13196,0.267945,,,,,,,,,,,,,,,,,,,,,,,,,,,,,,,,,,,,,,,,,,,,,,,,,,,,,,,,,,,,,,,,,
,,,,,,,,,,,,a,Correct!,0,23,23,16,1,t5.png,t4.png,1,0.9,19,female,2020-09-05_18h38.29.761,torte-2b,2020.1.3,MacIntel,60,13196,0.3189,,,,,,,,,,,,,,,,,,,,,,,,,,,,,,,,,,,,,,,,,,,,,,,,,,,,,,,,,,,,,,,,,
,,,,,,,,,,,,a,Correct!,0,24,24,70,1,t5.png,t5.png,0,0.978,19,female,2020-09-05_18h38.29.761,torte-2b,2020.1.3,MacIntel,60,13196,0.38545,,,,,,,,,,,,,,,,,,,,,,,,,,,,,,,,,,,,,,,,,,,,,,,,,,,,,,,,,,,,,,,,,
,,,,,,,,,,,,a,Incorrect,0,25,25,48,1,t5.png,t5.png,0,0.97829,19,female,2020-09-05_18h38.29.761,torte-2b,2020.1.3,MacIntel,60,13196,0.400575,,,,,,,,,,,,,,,,,,,,,,,,,,,,,,,,,,,,,,,,,,,,,,,,,,,,,,,,,,,,,,,,,
,,,,,,,,,,,,l,Incorrect,0,26,26,78,1,t1.png,t1.png,0,0.978,19,female,2020-09-05_18h38.29.761,torte-2b,2020.1.3,MacIntel,60,13196,0.412305,,,,,,,,,,,,,,,,,,,,,,,,,,,,,,,,,,,,,,,,,,,,,,,,,,,,,,,,,,,,,,,,,
,,,,,,,,,,,,a,Correct!,0,27,27,65,1,t4.png,t5.png,1,0.90025,19,female,2020-09-05_18h38.29.761,torte-2b,2020.1.3,MacIntel,60,13196,0.234465,,,,,,,,,,,,,,,,,,,,,,,,,,,,,,,,,,,,,,,,,,,,,,,,,,,,,,,,,,,,,,,,,
,,,,,,,,,,,,a,Correct!,0,28,28,64,1,t1.png,t1.png,0,0.978,19,female,2020-09-05_18h38.29.761,torte-2b,2020.1.3,MacIntel,60,13196,0.419095,,,,,,,,,,,,,,,,,,,,,,,,,,,,,,,,,,,,,,,,,,,,,,,,,,,,,,,,,,,,,,,,,
,,,,,,,,,,,,a,Correct!,0,29,29,15,1,t3.png,t2.png,1,0.90855,19,female,2020-09-05_18h38.29.761,torte-2b,2020.1.3,MacIntel,60,13196,0.317815,,,,,,,,,,,,,,,,,,,,,,,,,,,,,,,,,,,,,,,,,,,,,,,,,,,,,,,,,,,,,,,,,
,,,,,,,,,,,,a,Correct!,0,30,30,97,1,t5.png,t5.png,0,0.97829,19,female,2020-09-05_18h38.29.761,torte-2b,2020.1.3,MacIntel,60,13196,0.635385,,,,,,,,,,,,,,,,,,,,,,,,,,,,,,,,,,,,,,,,,,,,,,,,,,,,,,,,,,,,,,,,,
,,,,,,,,,,,,a,Incorrect,0,31,31,30,1,t3.png,t1.png,2,0.056466,19,female,2020-09-05_18h38.29.761,torte-2b,2020.1.3,MacIntel,60,13196,0.69777,,,,,,,,,,,,,,,,,,,,,,,,,,,,,,,,,,,,,,,,,,,,,,,,,,,,,,,,,,,,,,,,,
,,,,,,,,,,,,l,Correct!,0,32,32,93,1,t2.png,t4.png,2,0.059078,19,female,2020-09-05_18h38.29.761,torte-2b,2020.1.3,MacIntel,60,13196,0.35067,,,,,,,,,,,,,,,,,,,,,,,,,,,,,,,,,,,,,,,,,,,,,,,,,,,,,,,,,,,,,,,,,
,,,,,,,,,,,,l,Correct!,0,33,33,119,1,t1.png,t5.png,4,9.55E-11,19,female,2020-09-05_18h38.29.761,torte-2b,2020.1.3,MacIntel,60,13196,0.300595,,,,,,,,,,,,,,,,,,,,,,,,,,,,,,,,,,,,,,,,,,,,,,,,,,,,,,,,,,,,,,,,,
,,,,,,,,,,,,l,Incorrect,0,34,34,75,1,t1.png,t1.png,0,0.97829,19,female,2020-09-05_18h38.29.761,torte-2b,2020.1.3,MacIntel,60,13196,0.30151,,,,,,,,,,,,,,,,,,,,,,,,,,,,,,,,,,,,,,,,,,,,,,,,,,,,,,,,,,,,,,,,,
,,,,,,,,,,,,l,Correct!,0,35,35,67,1,t1.png,t5.png,4,9.55E-11,19,female,2020-09-05_18h38.29.761,torte-2b,2020.1.3,MacIntel,60,13196,0.41729,,,,,,,,,,,,,,,,,,,,,,,,,,,,,,,,,,,,,,,,,,,,,,,,,,,,,,,,,,,,,,,,,
,,,,,,,,,,,,a,Incorrect,0,36,36,0,1,t5.png,t1.png,4,9.55E-11,19,female,2020-09-05_18h38.29.761,torte-2b,2020.1.3,MacIntel,60,13196,0.285965,,,,,,,,,,,,,,,,,,,,,,,,,,,,,,,,,,,,,,,,,,,,,,,,,,,,,,,,,,,,,,,,,
,,,,,,,,,,,,a,Correct!,0,37,37,114,1,t2.png,t3.png,1,0.90855,19,female,2020-09-05_18h38.29.761,torte-2b,2020.1.3,MacIntel,60,13196,0.29903,,,,,,,,,,,,,,,,,,,,,,,,,,,,,,,,,,,,,,,,,,,,,,,,,,,,,,,,,,,,,,,,,
,,,,,,,,,,,,l,Correct!,0,38,38,88,1,t3.png,t1.png,2,0.056466,19,female,2020-09-05_18h38.29.761,torte-2b,2020.1.3,MacIntel,60,13196,0.616525,,,,,,,,,,,,,,,,,,,,,,,,,,,,,,,,,,,,,,,,,,,,,,,,,,,,,,,,,,,,,,,,,
,,,,,,,,,,,,a,Incorrect,0,39,39,115,1,t2.png,t4.png,2,0.059078,19,female,2020-09-05_18h38.29.761,torte-2b,2020.1.3,MacIntel,60,13196,0.26277,,,,,,,,,,,,,,,,,,,,,,,,,,,,,,,,,,,,,,,,,,,,,,,,,,,,,,,,,,,,,,,,,
,,,,,,,,,,,,l,Incorrect,0,40,40,42,1,t5.png,t4.png,1,0.90025,19,female,2020-09-05_18h38.29.761,torte-2b,2020.1.3,MacIntel,60,13196,0.470405,,,,,,,,,,,,,,,,,,,,,,,,,,,,,,,,,,,,,,,,,,,,,,,,,,,,,,,,,,,,,,,,,
,,,,,,,,,,,,a,Correct!,0,41,41,25,1,t5.png,t5.png,0,0.97829,19,female,2020-09-05_18h38.29.761,torte-2b,2020.1.3,MacIntel,60,13196,0.851785,,,,,,,,,,,,,,,,,,,,,,,,,,,,,,,,,,,,,,,,,,,,,,,,,,,,,,,,,,,,,,,,,
,,,,,,,,,,,,a,Correct!,0,42,42,62,1,t5.png,t5.png,0,0.978,19,female,2020-09-05_18h38.29.761,torte-2b,2020.1.3,MacIntel,60,13196,0.41591,,,,,,,,,,,,,,,,,,,,,,,,,,,,,,,,,,,,,,,,,,,,,,,,,,,,,,,,,,,,,,,,,
,,,,,,,,,,,,a,Incorrect,0,43,43,6,1,t1.png,t4.png,3,0.0000131,19,female,2020-09-05_18h38.29.761,torte-2b,2020.1.3,MacIntel,60,13196,0.517435,,,,,,,,,,,,,,,,,,,,,,,,,,,,,,,,,,,,,,,,,,,,,,,,,,,,,,,,,,,,,,,,,
,,,,,,,,,,,,a,Incorrect,0,44,44,60,1,t2.png,t4.png,2,0.059078,19,female,2020-09-05_18h38.29.761,torte-2b,2020.1.3,MacIntel,60,13196,1.581735,,,,,,,,,,,,,,,,,,,,,,,,,,,,,,,,,,,,,,,,,,,,,,,,,,,,,,,,,,,,,,,,,
,,,,,,,,,,,,,Too slow :(,0,45,45,2,1,t3.png,t2.png,1,0.90855,19,female,2020-09-05_18h38.29.761,torte-2b,2020.1.3,MacIntel,60,13196,,,,,,,,,,,,,,,,,,,,,,,,,,,,,,,,,,,,,,,,,,,,,,,,,,,,,,,,,,,,,,,,,,
,,,,,,,,,,,,,Too slow :(,0,46,46,5,1,t2.png,t4.png,2,0.059078,19,female,2020-09-05_18h38.29.761,torte-2b,2020.1.3,MacIntel,60,13196,,,,,,,,,,,,,,,,,,,,,,,,,,,,,,,,,,,,,,,,,,,,,,,,,,,,,,,,,,,,,,,,,,
,,,,,,,,,,,,a,Incorrect,0,47,47,82,1,t5.png,t1.png,4,9.55E-11,19,female,2020-09-05_18h38.29.761,torte-2b,2020.1.3,MacIntel,60,13196,1.15113,,,,,,,,,,,,,,,,,,,,,,,,,,,,,,,,,,,,,,,,,,,,,,,,,,,,,,,,,,,,,,,,,
,,,,,,,,,,,,l,Correct!,0,48,48,37,1,t1.png,t4.png,3,0.0000131,19,female,2020-09-05_18h38.29.761,torte-2b,2020.1.3,MacIntel,60,13196,0.264265,,,,,,,,,,,,,,,,,,,,,,,,,,,,,,,,,,,,,,,,,,,,,,,,,,,,,,,,,,,,,,,,,
,,,,,,,,,,,,l,Correct!,0,49,49,46,1,t4.png,t2.png,2,0.059078,19,female,2020-09-05_18h38.29.761,torte-2b,2020.1.3,MacIntel,60,13196,0.40111,,,,,,,,,,,,,,,,,,,,,,,,,,,,,,,,,,,,,,,,,,,,,,,,,,,,,,,,,,,,,,,,,
,,,,,,,,,,,,l,Correct!,0,50,50,33,1,t5.png,t1.png,4,9.55E-11,19,female,2020-09-05_18h38.29.761,torte-2b,2020.1.3,MacIntel,60,13196,0.36989,,,,,,,,,,,,,,,,,,,,,,,,,,,,,,,,,,,,,,,,,,,,,,,,,,,,,,,,,,,,,,,,,
,,,,,,,,,,,,l,Incorrect,0,51,51,116,1,t5.png,t4.png,1,0.90025,19,female,2020-09-05_18h38.29.761,torte-2b,2020.1.3,MacIntel,60,13196,0.252945,,,,,,,,,,,,,,,,,,,,,,,,,,,,,,,,,,,,,,,,,,,,,,,,,,,,,,,,,,,,,,,,,
,,,,,,,,,,,,l,Correct!,0,52,52,103,1,t3.png,t1.png,2,0.056466,19,female,2020-09-05_18h38.29.761,torte-2b,2020.1.3,MacIntel,60,13196,0.31675,,,,,,,,,,,,,,,,,,,,,,,,,,,,,,,,,,,,,,,,,,,,,,,,,,,,,,,,,,,,,,,,,
,,,,,,,,,,,,l,Incorrect,0,53,53,107,1,t1.png,t1.png,0,0.978,19,female,2020-09-05_18h38.29.761,torte-2b,2020.1.3,MacIntel,60,13196,0.585045,,,,,,,,,,,,,,,,,,,,,,,,,,,,,,,,,,,,,,,,,,,,,,,,,,,,,,,,,,,,,,,,,
,,,,,,,,,,,,l,Correct!,0,54,54,31,1,t1.png,t5.png,4,9.55E-11,19,female,2020-09-05_18h38.29.761,torte-2b,2020.1.3,MacIntel,60,13196,0.383775,,,,,,,,,,,,,,,,,,,,,,,,,,,,,,,,,,,,,,,,,,,,,,,,,,,,,,,,,,,,,,,,,
,,,,,,,,,,,,a,Incorrect,0,55,55,91,1,t1.png,t4.png,3,0.0000131,19,female,2020-09-05_18h38.29.761,torte-2b,2020.1.3,MacIntel,60,13196,0.334705,,,,,,,,,,,,,,,,,,,,,,,,,,,,,,,,,,,,,,,,,,,,,,,,,,,,,,,,,,,,,,,,,
,,,,,,,,,,,,a,Correct!,0,56,56,32,1,t4.png,t5.png,1,0.90025,19,female,2020-09-05_18h38.29.761,torte-2b,2020.1.3,MacIntel,60,13196,0.418655,,,,,,,,,,,,,,,,,,,,,,,,,,,,,,,,,,,,,,,,,,,,,,,,,,,,,,,,,,,,,,,,,
,,,,,,,,,,,,l,Incorrect,0,57,57,105,1,t3.png,t2.png,1,0.90855,19,female,2020-09-05_18h38.29.761,torte-2b,2020.1.3,MacIntel,60,13196,0.30225,,,,,,,,,,,,,,,,,,,,,,,,,,,,,,,,,,,,,,,,,,,,,,,,,,,,,,,,,,,,,,,,,
,,,,,,,,,,,,a,Correct!,0,58,58,76,1,t3.png,t2.png,1,0.90855,19,female,2020-09-05_18h38.29.761,torte-2b,2020.1.3,MacIntel,60,13196,0.169675,,,,,,,,,,,,,,,,,,,,,,,,,,,,,,,,,,,,,,,,,,,,,,,,,,,,,,,,,,,,,,,,,
,,,,,,,,,,,,a,Incorrect,0,59,59,14,1,t2.png,t4.png,2,0.059078,19,female,2020-09-05_18h38.29.761,torte-2b,2020.1.3,MacIntel,60,13196,0.22623,,,,,,,,,,,,,,,,,,,,,,,,,,,,,,,,,,,,,,,,,,,,,,,,,,,,,,,,,,,,,,,,,
,,,,,,,,,,,,a,Correct!,0,60,60,104,1,t2.png,t3.png,1,0.90855,19,female,2020-09-05_18h38.29.761,torte-2b,2020.1.3,MacIntel,60,13196,0.284935,,,,,,,,,,,,,,,,,,,,,,,,,,,,,,,,,,,,,,,,,,,,,,,,,,,,,,,,,,,,,,,,,
,,,,,,,,,,,,a,Incorrect,0,61,61,102,1,t4.png,t2.png,2,0.059078,19,female,2020-09-05_18h38.29.761,torte-2b,2020.1.3,MacIntel,60,13196,0.415785,,,,,,,,,,,,,,,,,,,,,,,,,,,,,,,,,,,,,,,,,,,,,,,,,,,,,,,,,,,,,,,,,
,,,,,,,,,,,,l,Incorrect,0,62,62,28,1,t2.png,t3.png,1,0.909,19,female,2020-09-05_18h38.29.761,torte-2b,2020.1.3,MacIntel,60,13196,0.379875,,,,,,,,,,,,,,,,,,,,,,,,,,,,,,,,,,,,,,,,,,,,,,,,,,,,,,,,,,,,,,,,,
,,,,,,,,,,,,a,Correct!,0,63,63,66,1,t4.png,t5.png,1,0.9,19,female,2020-09-05_18h38.29.761,torte-2b,2020.1.3,MacIntel,60,13196,0.268535,,,,,,,,,,,,,,,,,,,,,,,,,,,,,,,,,,,,,,,,,,,,,,,,,,,,,,,,,,,,,,,,,
,,,,,,,,,,,,l,Incorrect,0,64,64,92,1,t2.png,t3.png,1,0.909,19,female,2020-09-05_18h38.29.761,torte-2b,2020.1.3,MacIntel,60,13196,0.302295,,,,,,,,,,,,,,,,,,,,,,,,,,,,,,,,,,,,,,,,,,,,,,,,,,,,,,,,,,,,,,,,,
,,,,,,,,,,,,a,Correct!,0,65,65,20,1,t2.png,t3.png,1,0.90855,19,female,2020-09-05_18h38.29.761,torte-2b,2020.1.3,MacIntel,60,13196,0.28692,,,,,,,,,,,,,,,,,,,,,,,,,,,,,,,,,,,,,,,,,,,,,,,,,,,,,,,,,,,,,,,,,
,,,,,,,,,,,,a,Incorrect,0,66,66,3,1,t1.png,t5.png,4,9.55E-11,19,female,2020-09-05_18h38.29.761,torte-2b,2020.1.3,MacIntel,60,13196,1.718095,,,,,,,,,,,,,,,,,,,,,,,,,,,,,,,,,,,,,,,,,,,,,,,,,,,,,,,,,,,,,,,,,
,,,,,,,,,,,,a,Incorrect,0,67,67,94,1,t5.png,t1.png,4,9.55E-11,19,female,2020-09-05_18h38.29.761,torte-2b,2020.1.3,MacIntel,60,13196,0.73463,,,,,,,,,,,,,,,,,,,,,,,,,,,,,,,,,,,,,,,,,,,,,,,,,,,,,,,,,,,,,,,,,
,,,,,,,,,,,,a,Incorrect,0,68,68,83,1,t3.png,t1.png,2,0.056466,19,female,2020-09-05_18h38.29.761,torte-2b,2020.1.3,MacIntel,60,13196,0.90239,,,,,,,,,,,,,,,,,,,,,,,,,,,,,,,,,,,,,,,,,,,,,,,,,,,,,,,,,,,,,,,,,
,,,,,,,,,,,,l,Incorrect,0,69,69,95,1,t1.png,t1.png,0,0.978,19,female,2020-09-05_18h38.29.761,torte-2b,2020.1.3,MacIntel,60,13196,0.68349,,,,,,,,,,,,,,,,,,,,,,,,,,,,,,,,,,,,,,,,,,,,,,,,,,,,,,,,,,,,,,,,,
,,,,,,,,,,,,a,Correct!,0,70,70,74,1,t5.png,t4.png,1,0.9,19,female,2020-09-05_18h38.29.761,torte-2b,2020.1.3,MacIntel,60,13196,0.817425,,,,,,,,,,,,,,,,,,,,,,,,,,,,,,,,,,,,,,,,,,,,,,,,,,,,,,,,,,,,,,,,,
,,,,,,,,,,,,l,Incorrect,0,71,71,96,1,t1.png,t1.png,0,0.97829,19,female,2020-09-05_18h38.29.761,torte-2b,2020.1.3,MacIntel,60,13196,0.552805,,,,,,,,,,,,,,,,,,,,,,,,,,,,,,,,,,,,,,,,,,,,,,,,,,,,,,,,,,,,,,,,,
,,,,,,,,,,,,a,Incorrect,0,72,72,43,1,t4.png,t2.png,2,0.059078,19,female,2020-09-05_18h38.29.761,torte-2b,2020.1.3,MacIntel,60,13196,0.38589,,,,,,,,,,,,,,,,,,,,,,,,,,,,,,,,,,,,,,,,,,,,,,,,,,,,,,,,,,,,,,,,,
,,,,,,,,,,,,a,Incorrect,0,73,73,56,1,t5.png,t1.png,4,9.55E-11,19,female,2020-09-05_18h38.29.761,torte-2b,2020.1.3,MacIntel,60,13196,0.98515,,,,,,,,,,,,,,,,,,,,,,,,,,,,,,,,,,,,,,,,,,,,,,,,,,,,,,,,,,,,,,,,,
,,,,,,,,,,,,l,Incorrect,0,74,74,21,1,t5.png,t4.png,1,0.90025,19,female,2020-09-05_18h38.29.761,torte-2b,2020.1.3,MacIntel,60,13196,1.71521,,,,,,,,,,,,,,,,,,,,,,,,,,,,,,,,,,,,,,,,,,,,,,,,,,,,,,,,,,,,,,,,,
,,,,,,,,,,,,l,Incorrect,0,75,75,85,1,t3.png,t2.png,1,0.90855,19,female,2020-09-05_18h38.29.761,torte-2b,2020.1.3,MacIntel,60,13196,0.41769,,,,,,,,,,,,,,,,,,,,,,,,,,,,,,,,,,,,,,,,,,,,,,,,,,,,,,,,,,,,,,,,,
,,,,,,,,,,,,a,Correct!,0,76,76,81,1,t1.png,t1.png,0,0.97829,19,female,2020-09-05_18h38.29.761,torte-2b,2020.1.3,MacIntel,60,13196,0.23411,,,,,,,,,,,,,,,,,,,,,,,,,,,,,,,,,,,,,,,,,,,,,,,,,,,,,,,,,,,,,,,,,
,,,,,,,,,,,,a,Incorrect,0,77,77,12,1,t5.png,t1.png,4,9.55E-11,19,female,2020-09-05_18h38.29.761,torte-2b,2020.1.3,MacIntel,60,13196,0.23385,,,,,,,,,,,,,,,,,,,,,,,,,,,,,,,,,,,,,,,,,,,,,,,,,,,,,,,,,,,,,,,,,
,,,,,,,,,,,,a,Incorrect,0,78,78,50,1,t5.png,t1.png,4,9.55E-11,19,female,2020-09-05_18h38.29.761,torte-2b,2020.1.3,MacIntel,60,13196,0.199875,,,,,,,,,,,,,,,,,,,,,,,,,,,,,,,,,,,,,,,,,,,,,,,,,,,,,,,,,,,,,,,,,
,,,,,,,,,,,,l,Incorrect,0,79,79,100,1,t4.png,t5.png,1,0.90025,19,female,2020-09-05_18h38.29.761,torte-2b,2020.1.3,MacIntel,60,13196,0.31481,,,,,,,,,,,,,,,,,,,,,,,,,,,,,,,,,,,,,,,,,,,,,,,,,,,,,,,,,,,,,,,,,
,,,,,,,,,,,,a,Incorrect,0,80,80,17,1,t1.png,t4.png,3,0.0000131,19,female,2020-09-05_18h38.29.761,torte-2b,2020.1.3,MacIntel,60,13196,0.63439,,,,,,,,,,,,,,,,,,,,,,,,,,,,,,,,,,,,,,,,,,,,,,,,,,,,,,,,,,,,,,,,,
,,,,,,,,,,,,l,Correct!,0,81,81,52,1,t2.png,t4.png,2,0.059078,19,female,2020-09-05_18h38.29.761,torte-2b,2020.1.3,MacIntel,60,13196,0.152155,,,,,,,,,,,,,,,,,,,,,,,,,,,,,,,,,,,,,,,,,,,,,,,,,,,,,,,,,,,,,,,,,
,,,,,,,,,,,,a,Correct!,0,82,82,69,1,t4.png,t2.png,2,0.059078,19,female,2020-09-05_18h38.29.761,torte-2b,2020.1.3,MacIntel,60,13196,0.26835,,,,,,,,,,,,,,,,,,,,,,,,,,,,,,,,,,,,,,,,,,,,,,,,,,,,,,,,,,,,,,,,,
,,,,,,,,,,,,l,Correct!,0,83,83,90,1,t1.png,t5.png,4,9.55E-11,19,female,2020-09-05_18h38.29.761,torte-2b,2020.1.3,MacIntel,60,13196,0.984575,,,,,,,,,,,,,,,,,,,,,,,,,,,,,,,,,,,,,,,,,,,,,,,,,,,,,,,,,,,,,,,,,
,,,,,,,,,,,,a,Correct!,0,84,84,7,1,t4.png,t5.png,1,0.90025,19,female,2020-09-05_18h38.29.761,torte-2b,2020.1.3,MacIntel,60,13196,1.00119,,,,,,,,,,,,,,,,,,,,,,,,,,,,,,,,,,,,,,,,,,,,,,,,,,,,,,,,,,,,,,,,,
,,,,,,,,,,,,l,Incorrect,0,85,85,118,1,t5.png,t5.png,0,0.978,19,female,2020-09-05_18h38.29.761,torte-2b,2020.1.3,MacIntel,60,13196,0.400335,,,,,,,,,,,,,,,,,,,,,,,,,,,,,,,,,,,,,,,,,,,,,,,,,,,,,,,,,,,,,,,,,
,,,,,,,,,,,,a,Correct!,0,86,86,8,1,t3.png,t2.png,1,0.90855,19,female,2020-09-05_18h38.29.761,torte-2b,2020.1.3,MacIntel,60,13196,0.26473,,,,,,,,,,,,,,,,,,,,,,,,,,,,,,,,,,,,,,,,,,,,,,,,,,,,,,,,,,,,,,,,,
,,,,,,,,,,,,a,Incorrect,0,87,87,24,1,t4.png,t2.png,2,0.059078,19,female,2020-09-05_18h38.29.761,torte-2b,2020.1.3,MacIntel,60,13196,0.050165,,,,,,,,,,,,,,,,,,,,,,,,,,,,,,,,,,,,,,,,,,,,,,,,,,,,,,,,,,,,,,,,,
,,,,,,,,,,,,a,Incorrect,0,88,88,111,1,t5.png,t1.png,4,9.55E-11,19,female,2020-09-05_18h38.29.761,torte-2b,2020.1.3,MacIntel,60,13196,0.45398,,,,,,,,,,,,,,,,,,,,,,,,,,,,,,,,,,,,,,,,,,,,,,,,,,,,,,,,,,,,,,,,,
,,,,,,,,,,,,a,Incorrect,0,89,89,1,1,t2.png,t4.png,2,0.059078,19,female,2020-09-05_18h38.29.761,torte-2b,2020.1.3,MacIntel,60,13196,0.618595,,,,,,,,,,,,,,,,,,,,,,,,,,,,,,,,,,,,,,,,,,,,,,,,,,,,,,,,,,,,,,,,,
,,,,,,,,,,,,a,Incorrect,0,90,90,98,1,t2.png,t4.png,2,0.0591,19,female,2020-09-05_18h38.29.761,torte-2b,2020.1.3,MacIntel,60,13196,0.401205,,,,,,,,,,,,,,,,,,,,,,,,,,,,,,,,,,,,,,,,,,,,,,,,,,,,,,,,,,,,,,,,,
,,,,,,,,,,,,l,Incorrect,0,91,91,109,1,t5.png,t5.png,0,0.97829,19,female,2020-09-05_18h38.29.761,torte-2b,2020.1.3,MacIntel,60,13196,1.31633,,,,,,,,,,,,,,,,,,,,,,,,,,,,,,,,,,,,,,,,,,,,,,,,,,,,,,,,,,,,,,,,,
,,,,,,,,,,,,a,Correct!,0,92,92,27,1,t3.png,t1.png,2,0.0565,19,female,2020-09-05_18h38.29.761,torte-2b,2020.1.3,MacIntel,60,13196,0.385035,,,,,,,,,,,,,,,,,,,,,,,,,,,,,,,,,,,,,,,,,,,,,,,,,,,,,,,,,,,,,,,,,
,,,,,,,,,,,,a,Correct!,0,93,93,18,1,t4.png,t5.png,1,0.90025,19,female,2020-09-05_18h38.29.761,torte-2b,2020.1.3,MacIntel,60,13196,0.451155,,,,,,,,,,,,,,,,,,,,,,,,,,,,,,,,,,,,,,,,,,,,,,,,,,,,,,,,,,,,,,,,,
,,,,,,,,,,,,a,Incorrect,0,94,94,35,1,t1.png,t4.png,3,0.0000131,19,female,2020-09-05_18h38.29.761,torte-2b,2020.1.3,MacIntel,60,13196,0.55115,,,,,,,,,,,,,,,,,,,,,,,,,,,,,,,,,,,,,,,,,,,,,,,,,,,,,,,,,,,,,,,,,
,,,,,,,,,,,,l,Incorrect,0,95,95,41,1,t3.png,t2.png,1,0.90855,19,female,2020-09-05_18h38.29.761,torte-2b,2020.1.3,MacIntel,60,13196,0.71762,,,,,,,,,,,,,,,,,,,,,,,,,,,,,,,,,,,,,,,,,,,,,,,,,,,,,,,,,,,,,,,,,
,,,,,,,,,,,,a,Correct!,0,96,96,84,1,t1.png,t1.png,0,0.97829,19,female,2020-09-05_18h38.29.761,torte-2b,2020.1.3,MacIntel,60,13196,0.16543,,,,,,,,,,,,,,,,,,,,,,,,,,,,,,,,,,,,,,,,,,,,,,,,,,,,,,,,,,,,,,,,,
,,,,,,,,,,,,l,Correct!,0,97,97,47,1,t4.png,t2.png,2,0.059078,19,female,2020-09-05_18h38.29.761,torte-2b,2020.1.3,MacIntel,60,13196,0.318465,,,,,,,,,,,,,,,,,,,,,,,,,,,,,,,,,,,,,,,,,,,,,,,,,,,,,,,,,,,,,,,,,
,,,,,,,,,,,,a,Correct!,0,98,98,77,1,t1.png,t1.png,0,0.97829,19,female,2020-09-05_18h38.29.761,torte-2b,2020.1.3,MacIntel,60,13196,0.58554,,,,,,,,,,,,,,,,,,,,,,,,,,,,,,,,,,,,,,,,,,,,,,,,,,,,,,,,,,,,,,,,,
,,,,,,,,,,,,a,Incorrect,0,99,99,101,1,t4.png,t5.png,1,0.90025,19,female,2020-09-05_18h38.29.761,torte-2b,2020.1.3,MacIntel,60,13196,0.45178,,,,,,,,,,,,,,,,,,,,,,,,,,,,,,,,,,,,,,,,,,,,,,,,,,,,,,,,,,,,,,,,,
,,,,,,,,,,,,l,Incorrect,0,100,100,59,1,t5.png,t4.png,1,0.9,19,female,2020-09-05_18h38.29.761,torte-2b,2020.1.3,MacIntel,60,13196,0.383225,,,,,,,,,,,,,,,,,,,,,,,,,,,,,,,,,,,,,,,,,,,,,,,,,,,,,,,,,,,,,,,,,
,,,,,,,,,,,,a,Incorrect,0,101,101,11,1,t1.png,t4.png,3,0.0000131,19,female,2020-09-05_18h38.29.761,torte-2b,2020.1.3,MacIntel,60,13196,0.33382,,,,,,,,,,,,,,,,,,,,,,,,,,,,,,,,,,,,,,,,,,,,,,,,,,,,,,,,,,,,,,,,,
,,,,,,,,,,,,a,Correct!,0,102,102,34,1,t5.png,t4.png,1,0.9,19,female,2020-09-05_18h38.29.761,torte-2b,2020.1.3,MacIntel,60,13196,0.334075,,,,,,,,,,,,,,,,,,,,,,,,,,,,,,,,,,,,,,,,,,,,,,,,,,,,,,,,,,,,,,,,,
,,,,,,,,,,,,a,Incorrect,0,103,103,113,1,t5.png,t4.png,1,0.9,19,female,2020-09-05_18h38.29.761,torte-2b,2020.1.3,MacIntel,60,13196,1.119455,,,,,,,,,,,,,,,,,,,,,,,,,,,,,,,,,,,,,,,,,,,,,,,,,,,,,,,,,,,,,,,,,
,,,,,,,,,,,,l,Correct!,0,104,104,68,1,t1.png,t4.png,3,0.0000131,19,female,2020-09-05_18h38.29.761,torte-2b,2020.1.3,MacIntel,60,13196,0.433395,,,,,,,,,,,,,,,,,,,,,,,,,,,,,,,,,,,,,,,,,,,,,,,,,,,,,,,,,,,,,,,,,
,,,,,,,,,,,,l,Correct!,0,105,105,4,1,t1.png,t5.png,4,9.55E-11,19,female,2020-09-05_18h38.29.761,torte-2b,2020.1.3,MacIntel,60,13196,0.466785,,,,,,,,,,,,,,,,,,,,,,,,,,,,,,,,,,,,,,,,,,,,,,,,,,,,,,,,,,,,,,,,,
,,,,,,,,,,,,l,Incorrect,0,106,106,79,1,t3.png,t2.png,1,0.909,19,female,2020-09-05_18h38.29.761,torte-2b,2020.1.3,MacIntel,60,13196,0.454015,,,,,,,,,,,,,,,,,,,,,,,,,,,,,,,,,,,,,,,,,,,,,,,,,,,,,,,,,,,,,,,,,
,,,,,,,,,,,,a,Incorrect,0,107,107,61,1,t1.png,t4.png,3,0.0000131,19,female,2020-09-05_18h38.29.761,torte-2b,2020.1.3,MacIntel,60,13196,0.279685,,,,,,,,,,,,,,,,,,,,,,,,,,,,,,,,,,,,,,,,,,,,,,,,,,,,,,,,,,,,,,,,,
,,,,,,,,,,,,a,Incorrect,0,108,108,55,1,t2.png,t4.png,2,0.059078,19,female,2020-09-05_18h38.29.761,torte-2b,2020.1.3,MacIntel,60,13196,0.37716,,,,,,,,,,,,,,,,,,,,,,,,,,,,,,,,,,,,,,,,,,,,,,,,,,,,,,,,,,,,,,,,,
,,,,,,,,,,,,l,Incorrect,0,109,109,10,1,t2.png,t3.png,1,0.90855,19,female,2020-09-05_18h38.29.761,torte-2b,2020.1.3,MacIntel,60,13196,0.35068,,,,,,,,,,,,,,,,,,,,,,,,,,,,,,,,,,,,,,,,,,,,,,,,,,,,,,,,,,,,,,,,,
,,,,,,,,,,,,a,Incorrect,0,110,110,89,1,t1.png,t4.png,3,0.0000131,19,female,2020-09-05_18h38.29.761,torte-2b,2020.1.3,MacIntel,60,13196,0.216255,,,,,,,,,,,,,,,,,,,,,,,,,,,,,,,,,,,,,,,,,,,,,,,,,,,,,,,,,,,,,,,,,
,,,,,,,,,,,,a,Incorrect,0,111,111,38,1,t3.png,t1.png,2,0.056466,19,female,2020-09-05_18h38.29.761,torte-2b,2020.1.3,MacIntel,60,13196,0.41805,,,,,,,,,,,,,,,,,,,,,,,,,,,,,,,,,,,,,,,,,,,,,,,,,,,,,,,,,,,,,,,,,
,,,,,,,,,,,,l,Incorrect,0,112,112,58,1,t5.png,t4.png,1,0.90025,19,female,2020-09-05_18h38.29.761,torte-2b,2020.1.3,MacIntel,60,13196,0.31765,,,,,,,,,,,,,,,,,,,,,,,,,,,,,,,,,,,,,,,,,,,,,,,,,,,,,,,,,,,,,,,,,
,,,,,,,,,,,,a,Incorrect,0,113,113,23,1,t5.png,t4.png,1,0.90025,19,female,2020-09-05_18h38.29.761,torte-2b,2020.1.3,MacIntel,60,13196,0.716665,,,,,,,,,,,,,,,,,,,,,,,,,,,,,,,,,,,,,,,,,,,,,,,,,,,,,,,,,,,,,,,,,
,,,,,,,,,,,,a,Correct!,0,114,114,49,1,t4.png,t5.png,1,0.9,19,female,2020-09-05_18h38.29.761,torte-2b,2020.1.3,MacIntel,60,13196,0.919735,,,,,,,,,,,,,,,,,,,,,,,,,,,,,,,,,,,,,,,,,,,,,,,,,,,,,,,,,,,,,,,,,
,,,,,,,,,,,,l,Correct!,0,115,115,73,1,t4.png,t2.png,2,0.059078,19,female,2020-09-05_18h38.29.761,torte-2b,2020.1.3,MacIntel,60,13196,0.351865,,,,,,,,,,,,,,,,,,,,,,,,,,,,,,,,,,,,,,,,,,,,,,,,,,,,,,,,,,,,,,,,,
,,,,,,,,,,,,a,Correct!,0,116,116,9,1,t4.png,t5.png,1,0.9,19,female,2020-09-05_18h38.29.761,torte-2b,2020.1.3,MacIntel,60,13196,0.419205,,,,,,,,,,,,,,,,,,,,,,,,,,,,,,,,,,,,,,,,,,,,,,,,,,,,,,,,,,,,,,,,,
,,,,,,,,,,,,l,Correct!,0,117,117,108,1,t5.png,t1.png,4,9.55E-11,19,female,2020-09-05_18h38.29.761,torte-2b,2020.1.3,MacIntel,60,13196,0.483575,,,,,,,,,,,,,,,,,,,,,,,,,,,,,,,,,,,,,,,,,,,,,,,,,,,,,,,,,,,,,,,,,
,,,,,,,,,,,,l,Correct!,0,118,118,51,1,t3.png,t1.png,2,0.056466,19,female,2020-09-05_18h38.29.761,torte-2b,2020.1.3,MacIntel,60,13196,0.334195,,,,,,,,,,,,,,,,,,,,,,,,,,,,,,,,,,,,,,,,,,,,,,,,,,,,,,,,,,,,,,,,,
,,,,,,,,,,,,l,Correct!,0,119,119,54,1,t1.png,t5.png,4,9.55E-11,19,female,2020-09-05_18h38.29.761,torte-2b,2020.1.3,MacIntel,60,13196,0.330155,,,,,,,,,,,,,,,,,,,,,,,,,,,,,,,,,,,,,,,,,,,,,,,,,,,,,,,,,,,,,,,,,
,,,,,,,,,,,,a,Correct!,,,,,,t2.png,t3.png,1,0.909,19,female,2020-09-05_18h38.29.761,torte-2b,2020.1.3,MacIntel,60,13196,1.800775,space,1.183235,space,38.4513,0,0,0,74,1,,,,,,,,,,,,,,,,,,,,,,,,,,,,,,,,,,,,,,,,,,,,,,,,,,,,,,,,
,,,,,,,,,,,,a,Correct!,,,,,,t5.png,t4.png,1,0.9,19,female,2020-09-05_18h38.29.761,torte-2b,2020.1.3,MacIntel,60,13196,1.597395,,,,,0,1,1,76,1,,,,,,,,,,,,,,,,,,,,,,,,,,,,,,,,,,,,,,,,,,,,,,,,,,,,,,,,
,,,,,,,,,,,,l,Incorrect,,,,,,t4.png,t4.png,0,0.98115,19,female,2020-09-05_18h38.29.761,torte-2b,2020.1.3,MacIntel,60,13196,2.267375,,,,,0,2,2,21,1,,,,,,,,,,,,,,,,,,,,,,,,,,,,,,,,,,,,,,,,,,,,,,,,,,,,,,,,
,,,,,,,,,,,,l,Correct!,,,,,,t1.png,t3.png,2,0.056466,19,female,2020-09-05_18h38.29.761,torte-2b,2020.1.3,MacIntel,60,13196,2.35031,,,,,0,3,3,69,1,,,,,,,,,,,,,,,,,,,,,,,,,,,,,,,,,,,,,,,,,,,,,,,,,,,,,,,,
,,,,,,,,,,,,a,Incorrect,,,,,,t2.png,t5.png,3,0.0000131,19,female,2020-09-05_18h38.29.761,torte-2b,2020.1.3,MacIntel,60,13196,0.91635,,,,,0,4,4,8,1,,,,,,,,,,,,,,,,,,,,,,,,,,,,,,,,,,,,,,,,,,,,,,,,,,,,,,,,
,,,,,,,,,,,,a,Incorrect,,,,,,t2.png,t5.png,3,0.0000131,19,female,2020-09-05_18h38.29.761,torte-2b,2020.1.3,MacIntel,60,13196,1.734615,,,,,0,5,5,40,1,,,,,,,,,,,,,,,,,,,,,,,,,,,,,,,,,,,,,,,,,,,,,,,,,,,,,,,,
,,,,,,,,,,,,a,Correct!,,,,,,t3.png,t2.png,1,0.90855,19,female,2020-09-05_18h38.29.761,torte-2b,2020.1.3,MacIntel,60,13196,2.267255,,,,,0,6,6,53,1,,,,,,,,,,,,,,,,,,,,,,,,,,,,,,,,,,,,,,,,,,,,,,,,,,,,,,,,
,,,,,,,,,,,,a,Incorrect,,,,,,t5.png,t2.png,3,0.0000131,19,female,2020-09-05_18h38.29.761,torte-2b,2020.1.3,MacIntel,60,13196,0.56812,,,,,0,7,7,98,1,,,,,,,,,,,,,,,,,,,,,,,,,,,,,,,,,,,,,,,,,,,,,,,,,,,,,,,,
,,,,,,,,,,,,l,Correct!,,,,,,t1.png,t3.png,2,0.056466,19,female,2020-09-05_18h38.29.761,torte-2b,2020.1.3,MacIntel,60,13196,0.633545,,,,,0,8,8,60,1,,,,,,,,,,,,,,,,,,,,,,,,,,,,,,,,,,,,,,,,,,,,,,,,,,,,,,,,
,,,,,,,,,,,,a,Incorrect,,,,,,t2.png,t4.png,2,0.059078,19,female,2020-09-05_18h38.29.761,torte-2b,2020.1.3,MacIntel,60,13196,0.95099,,,,,0,9,9,37,1,,,,,,,,,,,,,,,,,,,,,,,,,,,,,,,,,,,,,,,,,,,,,,,,,,,,,,,,
,,,,,,,,,,,,a,Correct!,,,,,,t3.png,t4.png,1,0.90855,19,female,2020-09-05_18h38.29.761,torte-2b,2020.1.3,MacIntel,60,13196,0.71874,,,,,0,10,10,96,1,,,,,,,,,,,,,,,,,,,,,,,,,,,,,,,,,,,,,,,,,,,,,,,,,,,,,,,,
,,,,,,,,,,,,l,Incorrect,,,,,,t1.png,t1.png,0,0.97829,19,female,2020-09-05_18h38.29.761,torte-2b,2020.1.3,MacIntel,60,13196,0.59789,,,,,0,11,11,78,1,,,,,,,,,,,,,,,,,,,,,,,,,,,,,,,,,,,,,,,,,,,,,,,,,,,,,,,,
,,,,,,,,,,,,a,Correct!,,,,,,t3.png,t4.png,1,0.909,19,female,2020-09-05_18h38.29.761,torte-2b,2020.1.3,MacIntel,60,13196,0.601375,,,,,0,12,12,89,1,,,,,,,,,,,,,,,,,,,,,,,,,,,,,,,,,,,,,,,,,,,,,,,,,,,,,,,,
,,,,,,,,,,,,l,Incorrect,,,,,,t1.png,t2.png,1,0.90025,19,female,2020-09-05_18h38.29.761,torte-2b,2020.1.3,MacIntel,60,13196,0.56342,,,,,0,13,13,112,1,,,,,,,,,,,,,,,,,,,,,,,,,,,,,,,,,,,,,,,,,,,,,,,,,,,,,,,,
,,,,,,,,,,,,a,Correct!,,,,,,t5.png,t4.png,1,0.90025,19,female,2020-09-05_18h38.29.761,torte-2b,2020.1.3,MacIntel,60,13196,0.71343,,,,,0,14,14,27,1,,,,,,,,,,,,,,,,,,,,,,,,,,,,,,,,,,,,,,,,,,,,,,,,,,,,,,,,
,,,,,,,,,,,,a,Incorrect,,,,,,t3.png,t5.png,2,0.0565,19,female,2020-09-05_18h38.29.761,torte-2b,2020.1.3,MacIntel,60,13196,0.700035,,,,,0,15,15,30,1,,,,,,,,,,,,,,,,,,,,,,,,,,,,,,,,,,,,,,,,,,,,,,,,,,,,,,,,
,,,,,,,,,,,,a,Incorrect,,,,,,t5.png,t3.png,2,0.056466,19,female,2020-09-05_18h38.29.761,torte-2b,2020.1.3,MacIntel,60,13196,0.34958,,,,,0,16,16,56,1,,,,,,,,,,,,,,,,,,,,,,,,,,,,,,,,,,,,,,,,,,,,,,,,,,,,,,,,
,,,,,,,,,,,,a,Correct!,,,,,,t5.png,t4.png,1,0.90025,19,female,2020-09-05_18h38.29.761,torte-2b,2020.1.3,MacIntel,60,13196,0.633795,,,,,0,17,17,26,1,,,,,,,,,,,,,,,,,,,,,,,,,,,,,,,,,,,,,,,,,,,,,,,,,,,,,,,,
,,,,,,,,,,,,l,Correct!,,,,,,t5.png,t1.png,4,9.55E-11,19,female,2020-09-05_18h38.29.761,torte-2b,2020.1.3,MacIntel,60,13196,0.932265,,,,,0,18,18,100,1,,,,,,,,,,,,,,,,,,,,,,,,,,,,,,,,,,,,,,,,,,,,,,,,,,,,,,,,
,,,,,,,,,,,,a,Correct!,,,,,,t1.png,t1.png,0,0.978,19,female,2020-09-05_18h38.29.761,torte-2b,2020.1.3,MacIntel,60,13196,0.385145,,,,,0,19,19,54,1,,,,,,,,,,,,,,,,,,,,,,,,,,,,,,,,,,,,,,,,,,,,,,,,,,,,,,,,
,,,,,,,,,,,,l,Correct!,,,,,,t4.png,t1.png,3,0.0000131,19,female,2020-09-05_18h38.29.761,torte-2b,2020.1.3,MacIntel,60,13196,0.61744,,,,,0,20,20,42,1,,,,,,,,,,,,,,,,,,,,,,,,,,,,,,,,,,,,,,,,,,,,,,,,,,,,,,,,
,,,,,,,,,,,,a,Correct!,,,,,,t5.png,t5.png,0,0.978,19,female,2020-09-05_18h38.29.761,torte-2b,2020.1.3,MacIntel,60,13196,0.638165,,,,,0,21,21,117,1,,,,,,,,,,,,,,,,,,,,,,,,,,,,,,,,,,,,,,,,,,,,,,,,,,,,,,,,
,,,,,,,,,,,,l,Correct!,,,,,,t2.png,t5.png,3,0.0000131,19,female,2020-09-05_18h38.29.761,torte-2b,2020.1.3,MacIntel,60,13196,1.15099,,,,,0,22,22,66,1,,,,,,,,,,,,,,,,,,,,,,,,,,,,,,,,,,,,,,,,,,,,,,,,,,,,,,,,
,,,,,,,,,,,,a,Correct!,,,,,,t5.png,t4.png,1,0.90025,19,female,2020-09-05_18h38.29.761,torte-2b,2020.1.3,MacIntel,60,13196,1.10534,,,,,0,23,23,34,1,,,,,,,,,,,,,,,,,,,,,,,,,,,,,,,,,,,,,,,,,,,,,,,,,,,,,,,,
,,,,,,,,,,,,,Too slow :(,,,,,,t2.png,t1.png,1,0.90025,19,female,2020-09-05_18h38.29.761,torte-2b,2020.1.3,MacIntel,60,13196,,,,,,0,24,24,19,1,,,,,,,,,,,,,,,,,,,,,,,,,,,,,,,,,,,,,,,,,,,,,,,,,,,,,,,,
,,,,,,,,,,,,,Too slow :(,,,,,,t5.png,t2.png,3,0.0000131,19,female,2020-09-05_18h38.29.761,torte-2b,2020.1.3,MacIntel,60,13196,,,,,,0,25,25,51,1,,,,,,,,,,,,,,,,,,,,,,,,,,,,,,,,,,,,,,,,,,,,,,,,,,,,,,,,
,,,,,,,,,,,,,Too slow :(,,,,,,t3.png,t5.png,2,0.056466,19,female,2020-09-05_18h38.29.761,torte-2b,2020.1.3,MacIntel,60,13196,,,,,,0,26,26,6,1,,,,,,,,,,,,,,,,,,,,,,,,,,,,,,,,,,,,,,,,,,,,,,,,,,,,,,,,
,,,,,,,,,,,,a,Incorrect,,,,,,t5.png,t3.png,2,0.0565,19,female,2020-09-05_18h38.29.761,torte-2b,2020.1.3,MacIntel,60,13196,0.2202,,,,,0,27,27,39,1,,,,,,,,,,,,,,,,,,,,,,,,,,,,,,,,,,,,,,,,,,,,,,,,,,,,,,,,
,,,,,,,,,,,,a,Incorrect,,,,,,t3.png,t1.png,2,0.056466,19,female,2020-09-05_18h38.29.761,torte-2b,2020.1.3,MacIntel,60,13196,0.300895,,,,,0,28,28,29,1,,,,,,,,,,,,,,,,,,,,,,,,,,,,,,,,,,,,,,,,,,,,,,,,,,,,,,,,
,,,,,,,,,,,,a,Correct!,,,,,,t5.png,t5.png,0,0.97829,19,female,2020-09-05_18h38.29.761,torte-2b,2020.1.3,MacIntel,60,13196,0.492555,,,,,0,29,29,94,1,,,,,,,,,,,,,,,,,,,,,,,,,,,,,,,,,,,,,,,,,,,,,,,,,,,,,,,,
,,,,,,,,,,,,a,Correct!,,,,,,t2.png,t3.png,1,0.90855,19,female,2020-09-05_18h38.29.761,torte-2b,2020.1.3,MacIntel,60,13196,0.898795,,,,,0,30,30,111,1,,,,,,,,,,,,,,,,,,,,,,,,,,,,,,,,,,,,,,,,,,,,,,,,,,,,,,,,
,,,,,,,,,,,,,Too slow :(,,,,,,t4.png,t3.png,1,0.909,19,female,2020-09-05_18h38.29.761,torte-2b,2020.1.3,MacIntel,60,13196,,,,,,0,31,31,46,1,,,,,,,,,,,,,,,,,,,,,,,,,,,,,,,,,,,,,,,,,,,,,,,,,,,,,,,,
,,,,,,,,,,,,,Too slow :(,,,,,,t3.png,t1.png,2,0.056466,19,female,2020-09-05_18h38.29.761,torte-2b,2020.1.3,MacIntel,60,13196,,,,,,0,32,32,0,1,,,,,,,,,,,,,,,,,,,,,,,,,,,,,,,,,,,,,,,,,,,,,,,,,,,,,,,,
,,,,,,,,,,,,,Too slow :(,,,,,,t2.png,t4.png,2,0.059078,19,female,2020-09-05_18h38.29.761,torte-2b,2020.1.3,MacIntel,60,13196,,,,,,0,33,33,11,1,,,,,,,,,,,,,,,,,,,,,,,,,,,,,,,,,,,,,,,,,,,,,,,,,,,,,,,,
,,,,,,,,,,,,,Too slow :(,,,,,,t1.png,t3.png,2,0.056466,19,female,2020-09-05_18h38.29.761,torte-2b,2020.1.3,MacIntel,60,13196,,,,,,0,34,34,87,1,,,,,,,,,,,,,,,,,,,,,,,,,,,,,,,,,,,,,,,,,,,,,,,,,,,,,,,,
,,,,,,,,,,,,,Too slow :(,,,,,,t1.png,t4.png,3,0.0000131,19,female,2020-09-05_18h38.29.761,torte-2b,2020.1.3,MacIntel,60,13196,,,,,,0,35,35,92,1,,,,,,,,,,,,,,,,,,,,,,,,,,,,,,,,,,,,,,,,,,,,,,,,,,,,,,,,
,,,,,,,,,,,,,Too slow :(,,,,,,t1.png,t1.png,0,0.97829,19,female,2020-09-05_18h38.29.761,torte-2b,2020.1.3,MacIntel,60,13196,,,,,,0,36,36,9,1,,,,,,,,,,,,,,,,,,,,,,,,,,,,,,,,,,,,,,,,,,,,,,,,,,,,,,,,
,,,,,,,,,,,,a,Incorrect,,,,,,t2.png,t4.png,2,0.0591,19,female,2020-09-05_18h38.29.761,torte-2b,2020.1.3,MacIntel,60,13196,0.061495,,,,,0,37,37,15,1,,,,,,,,,,,,,,,,,,,,,,,,,,,,,,,,,,,,,,,,,,,,,,,,,,,,,,,,
,,,,,,,,,,,,a,Correct!,,,,,,t4.png,t3.png,1,0.90855,19,female,2020-09-05_18h38.29.761,torte-2b,2020.1.3,MacIntel,60,13196,0.424355,,,,,0,38,38,75,1,,,,,,,,,,,,,,,,,,,,,,,,,,,,,,,,,,,,,,,,,,,,,,,,,,,,,,,,
,,,,,,,,,,,,l,Incorrect,,,,,,t2.png,t2.png,0,0.98115,19,female,2020-09-05_18h38.29.761,torte-2b,2020.1.3,MacIntel,60,13196,1.08905,,,,,0,39,39,2,1,,,,,,,,,,,,,,,,,,,,,,,,,,,,,,,,,,,,,,,,,,,,,,,,,,,,,,,,
,,,,,,,,,,,,a,Correct!,,,,,,t4.png,t3.png,1,0.909,19,female,2020-09-05_18h38.29.761,torte-2b,2020.1.3,MacIntel,60,13196,0.54101,,,,,0,40,40,20,1,,,,,,,,,,,,,,,,,,,,,,,,,,,,,,,,,,,,,,,,,,,,,,,,,,,,,,,,
,,,,,,,,,,,,l,Incorrect,,,,,,t1.png,t2.png,1,0.90025,19,female,2020-09-05_18h38.29.761,torte-2b,2020.1.3,MacIntel,60,13196,0.4992,,,,,0,41,41,33,1,,,,,,,,,,,,,,,,,,,,,,,,,,,,,,,,,,,,,,,,,,,,,,,,,,,,,,,,
,,,,,,,,,,,,a,Correct!,,,,,,t3.png,t2.png,1,0.90855,19,female,2020-09-05_18h38.29.761,torte-2b,2020.1.3,MacIntel,60,13196,0.344135,,,,,0,42,42,18,1,,,,,,,,,,,,,,,,,,,,,,,,,,,,,,,,,,,,,,,,,,,,,,,,,,,,,,,,
,,,,,,,,,,,,a,Incorrect,,,,,,t4.png,t2.png,2,0.0591,19,female,2020-09-05_18h38.29.761,torte-2b,2020.1.3,MacIntel,60,13196,0.533675,,,,,0,43,43,36,1,,,,,,,,,,,,,,,,,,,,,,,,,,,,,,,,,,,,,,,,,,,,,,,,,,,,,,,,
,,,,,,,,,,,,,Too slow :(,,,,,,t2.png,t2.png,0,0.981,19,female,2020-09-05_18h38.29.761,torte-2b,2020.1.3,MacIntel,60,13196,,,,,,0,44,44,101,1,,,,,,,,,,,,,,,,,,,,,,,,,,,,,,,,,,,,,,,,,,,,,,,,,,,,,,,,
,,,,,,,,,,,,,Too slow :(,,,,,,t4.png,t2.png,2,0.059078,19,female,2020-09-05_18h38.29.761,torte-2b,2020.1.3,MacIntel,60,13196,,,,,,0,45,45,86,1,,,,,,,,,,,,,,,,,,,,,,,,,,,,,,,,,,,,,,,,,,,,,,,,,,,,,,,,
,,,,,,,,,,,,a,Correct!,,,,,,t4.png,t4.png,0,0.98115,19,female,2020-09-05_18h38.29.761,torte-2b,2020.1.3,MacIntel,60,13196,2.63032,,,,,0,46,46,79,1,,,,,,,,,,,,,,,,,,,,,,,,,,,,,,,,,,,,,,,,,,,,,,,,,,,,,,,,
,,,,,,,,,,,,a,Correct!,,,,,,t5.png,t4.png,1,0.9,19,female,2020-09-05_18h38.29.761,torte-2b,2020.1.3,MacIntel,60,13196,0.436015,,,,,0,47,47,49,1,,,,,,,,,,,,,,,,,,,,,,,,,,,,,,,,,,,,,,,,,,,,,,,,,,,,,,,,
,,,,,,,,,,,,a,Correct!,,,,,,t5.png,t5.png,0,0.97829,19,female,2020-09-05_18h38.29.761,torte-2b,2020.1.3,MacIntel,60,13196,0.315445,,,,,0,48,48,25,1,,,,,,,,,,,,,,,,,,,,,,,,,,,,,,,,,,,,,,,,,,,,,,,,,,,,,,,,
,,,,,,,,,,,,a,Correct!,,,,,,t2.png,t1.png,1,0.90025,19,female,2020-09-05_18h38.29.761,torte-2b,2020.1.3,MacIntel,60,13196,0.314205,,,,,0,49,49,62,1,,,,,,,,,,,,,,,,,,,,,,,,,,,,,,,,,,,,,,,,,,,,,,,,,,,,,,,,
,,,,,,,,,,,,a,Correct!,,,,,,t5.png,t5.png,0,0.97829,19,female,2020-09-05_18h38.29.761,torte-2b,2020.1.3,MacIntel,60,13196,0.410555,,,,,0,50,50,70,1,,,,,,,,,,,,,,,,,,,,,,,,,,,,,,,,,,,,,,,,,,,,,,,,,,,,,,,,
,,,,,,,,,,,,a,Correct!,,,,,,t4.png,t5.png,1,0.90025,19,female,2020-09-05_18h38.29.761,torte-2b,2020.1.3,MacIntel,60,13196,0.666445,,,,,0,51,51,47,1,,,,,,,,,,,,,,,,,,,,,,,,,,,,,,,,,,,,,,,,,,,,,,,,,,,,,,,,
,,,,,,,,,,,,l,Incorrect,,,,,,t3.png,t2.png,1,0.909,19,female,2020-09-05_18h38.29.761,torte-2b,2020.1.3,MacIntel,60,13196,0.73701,,,,,0,52,52,23,1,,,,,,,,,,,,,,,,,,,,,,,,,,,,,,,,,,,,,,,,,,,,,,,,,,,,,,,,
,,,,,,,,,,,,a,Correct!,,,,,,t2.png,t3.png,1,0.90855,19,female,2020-09-05_18h38.29.761,torte-2b,2020.1.3,MacIntel,60,13196,0.263055,,,,,0,53,53,68,1,,,,,,,,,,,,,,,,,,,,,,,,,,,,,,,,,,,,,,,,,,,,,,,,,,,,,,,,
,,,,,,,,,,,,a,Incorrect,,,,,,t5.png,t1.png,4,9.55E-11,19,female,2020-09-05_18h38.29.761,torte-2b,2020.1.3,MacIntel,60,13196,0.650705,,,,,0,54,54,102,1,,,,,,,,,,,,,,,,,,,,,,,,,,,,,,,,,,,,,,,,,,,,,,,,,,,,,,,,
,,,,,,,,,,,,l,Correct!,,,,,,t2.png,t4.png,2,0.059078,19,female,2020-09-05_18h38.29.761,torte-2b,2020.1.3,MacIntel,60,13196,1.03556,,,,,0,55,55,77,1,,,,,,,,,,,,,,,,,,,,,,,,,,,,,,,,,,,,,,,,,,,,,,,,,,,,,,,,
,,,,,,,,,,,,a,Incorrect,,,,,,t5.png,t1.png,4,9.55E-11,19,female,2020-09-05_18h38.29.761,torte-2b,2020.1.3,MacIntel,60,13196,0.31722,,,,,0,56,56,43,1,,,,,,,,,,,,,,,,,,,,,,,,,,,,,,,,,,,,,,,,,,,,,,,,,,,,,,,,
,,,,,,,,,,,,l,Incorrect,,,,,,t4.png,t5.png,1,0.90025,19,female,2020-09-05_18h38.29.761,torte-2b,2020.1.3,MacIntel,60,13196,0.517315,,,,,0,57,57,113,1,,,,,,,,,,,,,,,,,,,,,,,,,,,,,,,,,,,,,,,,,,,,,,,,,,,,,,,,
,,,,,,,,,,,,,Too slow :(,,,,,,t4.png,t4.png,0,0.98115,19,female,2020-09-05_18h38.29.761,torte-2b,2020.1.3,MacIntel,60,13196,,,,,,0,58,58,80,1,,,,,,,,,,,,,,,,,,,,,,,,,,,,,,,,,,,,,,,,,,,,,,,,,,,,,,,,
,,,,,,,,,,,,a,Incorrect,,,,,,t3.png,t1.png,2,0.056466,19,female,2020-09-05_18h38.29.761,torte-2b,2020.1.3,MacIntel,60,13196,1.68627,,,,,0,59,59,32,1,,,,,,,,,,,,,,,,,,,,,,,,,,,,,,,,,,,,,,,,,,,,,,,,,,,,,,,,
,,,,,,,,,,,,a,Incorrect,,,,,,t5.png,t2.png,3,0.0000131,19,female,2020-09-05_18h38.29.761,torte-2b,2020.1.3,MacIntel,60,13196,1.03351,,,,,0,60,60,116,1,,,,,,,,,,,,,,,,,,,,,,,,,,,,,,,,,,,,,,,,,,,,,,,,,,,,,,,,
,,,,,,,,,,,,a,Correct!,,,,,,t2.png,t2.png,0,0.98115,19,female,2020-09-05_18h38.29.761,torte-2b,2020.1.3,MacIntel,60,13196,1.262975,,,,,0,61,61,57,1,,,,,,,,,,,,,,,,,,,,,,,,,,,,,,,,,,,,,,,,,,,,,,,,,,,,,,,,
,,,,,,,,,,,,l,Correct!,,,,,,t3.png,t5.png,2,0.056466,19,female,2020-09-05_18h38.29.761,torte-2b,2020.1.3,MacIntel,60,13196,0.719485,,,,,0,62,62,14,1,,,,,,,,,,,,,,,,,,,,,,,,,,,,,,,,,,,,,,,,,,,,,,,,,,,,,,,,
,,,,,,,,,,,,a,Correct!,,,,,,t5.png,t5.png,0,0.97829,19,female,2020-09-05_18h38.29.761,torte-2b,2020.1.3,MacIntel,60,13196,0.363345,,,,,0,63,63,73,1,,,,,,,,,,,,,,,,,,,,,,,,,,,,,,,,,,,,,,,,,,,,,,,,,,,,,,,,
,,,,,,,,,,,,l,Correct!,,,,,,t2.png,t5.png,3,0.0000131,19,female,2020-09-05_18h38.29.761,torte-2b,2020.1.3,MacIntel,60,13196,1.236575,,,,,0,64,64,95,1,,,,,,,,,,,,,,,,,,,,,,,,,,,,,,,,,,,,,,,,,,,,,,,,,,,,,,,,
,,,,,,,,,,,,l,Correct!,,,,,,t5.png,t3.png,2,0.056466,19,female,2020-09-05_18h38.29.761,torte-2b,2020.1.3,MacIntel,60,13196,1.39973,,,,,0,65,65,114,1,,,,,,,,,,,,,,,,,,,,,,,,,,,,,,,,,,,,,,,,,,,,,,,,,,,,,,,,
,,,,,,,,,,,,l,Incorrect,,,,,,t1.png,t2.png,1,0.90025,19,female,2020-09-05_18h38.29.761,torte-2b,2020.1.3,MacIntel,60,13196,1.05206,,,,,0,66,66,72,1,,,,,,,,,,,,,,,,,,,,,,,,,,,,,,,,,,,,,,,,,,,,,,,,,,,,,,,,
,,,,,,,,,,,,l,Correct!,,,,,,t1.png,t4.png,3,0.0000131,19,female,2020-09-05_18h38.29.761,torte-2b,2020.1.3,MacIntel,60,13196,0.93581,,,,,0,67,67,107,1,,,,,,,,,,,,,,,,,,,,,,,,,,,,,,,,,,,,,,,,,,,,,,,,,,,,,,,,
,,,,,,,,,,,,a,Incorrect,,,,,,t5.png,t2.png,3,0.0000131,19,female,2020-09-05_18h38.29.761,torte-2b,2020.1.3,MacIntel,60,13196,1.30081,,,,,0,68,68,119,1,,,,,,,,,,,,,,,,,,,,,,,,,,,,,,,,,,,,,,,,,,,,,,,,,,,,,,,,
,,,,,,,,,,,,l,Correct!,,,,,,t1.png,t4.png,3,0.0000131,19,female,2020-09-05_18h38.29.761,torte-2b,2020.1.3,MacIntel,60,13196,1.468965,,,,,0,69,69,17,1,,,,,,,,,,,,,,,,,,,,,,,,,,,,,,,,,,,,,,,,,,,,,,,,,,,,,,,,
,,,,,,,,,,,,l,Correct!,,,,,,t1.png,t5.png,4,9.55E-11,19,female,2020-09-05_18h38.29.761,torte-2b,2020.1.3,MacIntel,60,13196,1.767695,,,,,0,70,70,41,1,,,,,,,,,,,,,,,,,,,,,,,,,,,,,,,,,,,,,,,,,,,,,,,,,,,,,,,,
,,,,,,,,,,,,a,Incorrect,,,,,,t4.png,t2.png,2,0.059078,19,female,2020-09-05_18h38.29.761,torte-2b,2020.1.3,MacIntel,60,13196,1.33353,,,,,0,71,71,109,1,,,,,,,,,,,,,,,,,,,,,,,,,,,,,,,,,,,,,,,,,,,,,,,,,,,,,,,,
,,,,,,,,,,,,a,Incorrect,,,,,,t5.png,t2.png,3,0.0000131,19,female,2020-09-05_18h38.29.761,torte-2b,2020.1.3,MacIntel,60,13196,1.268355,,,,,0,72,72,91,1,,,,,,,,,,,,,,,,,,,,,,,,,,,,,,,,,,,,,,,,,,,,,,,,,,,,,,,,
,,,,,,,,,,,,l,Incorrect,,,,,,t2.png,t1.png,1,0.90025,19,female,2020-09-05_18h38.29.761,torte-2b,2020.1.3,MacIntel,60,13196,1.300965,,,,,0,73,73,4,1,,,,,,,,,,,,,,,,,,,,,,,,,,,,,,,,,,,,,,,,,,,,,,,,,,,,,,,,
,,,,,,,,,,,,a,Incorrect,,,,,,t3.png,t5.png,2,0.0565,19,female,2020-09-05_18h38.29.761,torte-2b,2020.1.3,MacIntel,60,13196,1.18598,,,,,0,74,74,83,1,,,,,,,,,,,,,,,,,,,,,,,,,,,,,,,,,,,,,,,,,,,,,,,,,,,,,,,,
,,,,,,,,,,,,a,Incorrect,,,,,,t4.png,t2.png,2,0.059078,19,female,2020-09-05_18h38.29.761,torte-2b,2020.1.3,MacIntel,60,13196,0.499255,,,,,0,75,75,110,1,,,,,,,,,,,,,,,,,,,,,,,,,,,,,,,,,,,,,,,,,,,,,,,,,,,,,,,,
,,,,,,,,,,,,l,Correct!,,,,,,t1.png,t4.png,3,0.0000131,19,female,2020-09-05_18h38.29.761,torte-2b,2020.1.3,MacIntel,60,13196,0.718135,,,,,0,76,76,50,1,,,,,,,,,,,,,,,,,,,,,,,,,,,,,,,,,,,,,,,,,,,,,,,,,,,,,,,,
,,,,,,,,,,,,a,Correct!,,,,,,t4.png,t3.png,1,0.90855,19,female,2020-09-05_18h38.29.761,torte-2b,2020.1.3,MacIntel,60,13196,0.98523,,,,,0,77,77,45,1,,,,,,,,,,,,,,,,,,,,,,,,,,,,,,,,,,,,,,,,,,,,,,,,,,,,,,,,
,,,,,,,,,,,,l,Incorrect,,,,,,t1.png,t1.png,0,0.97829,19,female,2020-09-05_18h38.29.761,torte-2b,2020.1.3,MacIntel,60,13196,0.585325,,,,,0,78,78,67,1,,,,,,,,,,,,,,,,,,,,,,,,,,,,,,,,,,,,,,,,,,,,,,,,,,,,,,,,
,,,,,,,,,,,,a,Correct!,,,,,,t3.png,t2.png,1,0.909,19,female,2020-09-05_18h38.29.761,torte-2b,2020.1.3,MacIntel,60,13196,0.452295,,,,,0,79,79,3,1,,,,,,,,,,,,,,,,,,,,,,,,,,,,,,,,,,,,,,,,,,,,,,,,,,,,,,,,
,,,,,,,,,,,,a,Incorrect,,,,,,t5.png,t3.png,2,0.056466,19,female,2020-09-05_18h38.29.761,torte-2b,2020.1.3,MacIntel,60,13196,0.53423,,,,,0,80,80,108,1,,,,,,,,,,,,,,,,,,,,,,,,,,,,,,,,,,,,,,,,,,,,,,,,,,,,,,,,
,,,,,,,,,,,,a,Incorrect,,,,,,t1.png,t4.png,3,0.0000131,19,female,2020-09-05_18h38.29.761,torte-2b,2020.1.3,MacIntel,60,13196,0.733885,,,,,0,81,81,81,1,,,,,,,,,,,,,,,,,,,,,,,,,,,,,,,,,,,,,,,,,,,,,,,,,,,,,,,,
,,,,,,,,,,,,l,Correct!,,,,,,t1.png,t3.png,2,0.056466,19,female,2020-09-05_18h38.29.761,torte-2b,2020.1.3,MacIntel,60,13196,0.53592,,,,,0,82,82,63,1,,,,,,,,,,,,,,,,,,,,,,,,,,,,,,,,,,,,,,,,,,,,,,,,,,,,,,,,
,,,,,,,,,,,,a,Correct!,,,,,,t3.png,t4.png,1,0.909,19,female,2020-09-05_18h38.29.761,torte-2b,2020.1.3,MacIntel,60,13196,1.250505,,,,,0,83,83,106,1,,,,,,,,,,,,,,,,,,,,,,,,,,,,,,,,,,,,,,,,,,,,,,,,,,,,,,,,
,,,,,,,,,,,,l,Correct!,,,,,,t3.png,t5.png,2,0.056466,19,female,2020-09-05_18h38.29.761,torte-2b,2020.1.3,MacIntel,60,13196,0.45116,,,,,0,84,84,44,1,,,,,,,,,,,,,,,,,,,,,,,,,,,,,,,,,,,,,,,,,,,,,,,,,,,,,,,,
,,,,,,,,,,,,a,Incorrect,,,,,,t4.png,t1.png,3,0.0000131,19,female,2020-09-05_18h38.29.761,torte-2b,2020.1.3,MacIntel,60,13196,0.267915,,,,,0,85,85,93,1,,,,,,,,,,,,,,,,,,,,,,,,,,,,,,,,,,,,,,,,,,,,,,,,,,,,,,,,
,,,,,,,,,,,,l,Incorrect,,,,,,t4.png,t3.png,1,0.90855,19,female,2020-09-05_18h38.29.761,torte-2b,2020.1.3,MacIntel,60,13196,1.24677,,,,,0,86,86,35,1,,,,,,,,,,,,,,,,,,,,,,,,,,,,,,,,,,,,,,,,,,,,,,,,,,,,,,,,
,,,,,,,,,,,,a,Correct!,,,,,,t2.png,t3.png,1,0.90855,19,female,2020-09-05_18h38.29.761,torte-2b,2020.1.3,MacIntel,60,13196,0.8049,,,,,0,87,87,10,1,,,,,,,,,,,,,,,,,,,,,,,,,,,,,,,,,,,,,,,,,,,,,,,,,,,,,,,,
,,,,,,,,,,,,l,Incorrect,,,,,,t1.png,t1.png,0,0.978,19,female,2020-09-05_18h38.29.761,torte-2b,2020.1.3,MacIntel,60,13196,0.63464,,,,,0,88,88,28,1,,,,,,,,,,,,,,,,,,,,,,,,,,,,,,,,,,,,,,,,,,,,,,,,,,,,,,,,
,,,,,,,,,,,,a,Incorrect,,,,,,t2.png,t5.png,3,0.0000131,19,female,2020-09-05_18h38.29.761,torte-2b,2020.1.3,MacIntel,60,13196,0.217395,,,,,0,89,89,104,1,,,,,,,,,,,,,,,,,,,,,,,,,,,,,,,,,,,,,,,,,,,,,,,,,,,,,,,,
,,,,,,,,,,,,a,Incorrect,,,,,,t5.png,t1.png,4,9.55E-11,19,female,2020-09-05_18h38.29.761,torte-2b,2020.1.3,MacIntel,60,13196,0.379825,,,,,0,90,90,22,1,,,,,,,,,,,,,,,,,,,,,,,,,,,,,,,,,,,,,,,,,,,,,,,,,,,,,,,,
,,,,,,,,,,,,a,Correct!,,,,,,t4.png,t5.png,1,0.9,19,female,2020-09-05_18h38.29.761,torte-2b,2020.1.3,MacIntel,60,13196,0.734105,,,,,0,91,91,115,1,,,,,,,,,,,,,,,,,,,,,,,,,,,,,,,,,,,,,,,,,,,,,,,,,,,,,,,,
,,,,,,,,,,,,l,Correct!,,,,,,t1.png,t5.png,4,9.55E-11,19,female,2020-09-05_18h38.29.761,torte-2b,2020.1.3,MacIntel,60,13196,0.983785,,,,,0,92,92,16,1,,,,,,,,,,,,,,,,,,,,,,,,,,,,,,,,,,,,,,,,,,,,,,,,,,,,,,,,
,,,,,,,,,,,,a,Incorrect,,,,,,t3.png,t1.png,2,0.056466,19,female,2020-09-05_18h38.29.761,torte-2b,2020.1.3,MacIntel,60,13196,0.316395,,,,,0,93,93,64,1,,,,,,,,,,,,,,,,,,,,,,,,,,,,,,,,,,,,,,,,,,,,,,,,,,,,,,,,
,,,,,,,,,,,,l,Correct!,,,,,,t1.png,t5.png,4,9.55E-11,19,female,2020-09-05_18h38.29.761,torte-2b,2020.1.3,MacIntel,60,13196,0.618865,,,,,0,94,94,85,1,,,,,,,,,,,,,,,,,,,,,,,,,,,,,,,,,,,,,,,,,,,,,,,,,,,,,,,,
,,,,,,,,,,,,a,Correct!,,,,,,t3.png,t4.png,1,0.90855,19,female,2020-09-05_18h38.29.761,torte-2b,2020.1.3,MacIntel,60,13196,0.854785,,,,,0,95,95,84,1,,,,,,,,,,,,,,,,,,,,,,,,,,,,,,,,,,,,,,,,,,,,,,,,,,,,,,,,
,,,,,,,,,,,,l,Correct!,,,,,,t1.png,t5.png,4,9.55E-11,19,female,2020-09-05_18h38.29.761,torte-2b,2020.1.3,MacIntel,60,13196,1.034235,,,,,0,96,96,12,1,,,,,,,,,,,,,,,,,,,,,,,,,,,,,,,,,,,,,,,,,,,,,,,,,,,,,,,,
,,,,,,,,,,,,a,Incorrect,,,,,,t5.png,t3.png,2,0.056466,19,female,2020-09-05_18h38.29.761,torte-2b,2020.1.3,MacIntel,60,13196,1.667765,,,,,0,97,97,38,1,,,,,,,,,,,,,,,,,,,,,,,,,,,,,,,,,,,,,,,,,,,,,,,,,,,,,,,,
,,,,,,,,,,,,l,Incorrect,,,,,,t4.png,t5.png,1,0.90025,19,female,2020-09-05_18h38.29.761,torte-2b,2020.1.3,MacIntel,60,13196,1.399505,,,,,0,98,98,58,1,,,,,,,,,,,,,,,,,,,,,,,,,,,,,,,,,,,,,,,,,,,,,,,,,,,,,,,,
,,,,,,,,,,,,a,Incorrect,,,,,,t4.png,t2.png,2,0.059078,19,female,2020-09-05_18h38.29.761,torte-2b,2020.1.3,MacIntel,60,13196,0.4006,,,,,0,99,99,88,1,,,,,,,,,,,,,,,,,,,,,,,,,,,,,,,,,,,,,,,,,,,,,,,,,,,,,,,,
,,,,,,,,,,,,l,Correct!,,,,,,t2.png,t4.png,2,0.059078,19,female,2020-09-05_18h38.29.761,torte-2b,2020.1.3,MacIntel,60,13196,0.56743,,,,,0,100,100,24,1,,,,,,,,,,,,,,,,,,,,,,,,,,,,,,,,,,,,,,,,,,,,,,,,,,,,,,,,
,,,,,,,,,,,,a,Incorrect,,,,,,t4.png,t1.png,3,0.0000131,19,female,2020-09-05_18h38.29.761,torte-2b,2020.1.3,MacIntel,60,13196,0.835675,,,,,0,101,101,61,1,,,,,,,,,,,,,,,,,,,,,,,,,,,,,,,,,,,,,,,,,,,,,,,,,,,,,,,,
,,,,,,,,,,,,a,Correct!,,,,,,t3.png,t4.png,1,0.909,19,female,2020-09-05_18h38.29.761,torte-2b,2020.1.3,MacIntel,60,13196,1.550275,,,,,0,102,102,82,1,,,,,,,,,,,,,,,,,,,,,,,,,,,,,,,,,,,,,,,,,,,,,,,,,,,,,,,,
,,,,,,,,,,,,a,Incorrect,,,,,,t2.png,t1.png,1,0.9,19,female,2020-09-05_18h38.29.761,torte-2b,2020.1.3,MacIntel,60,13196,1.184745,,,,,0,103,103,118,1,,,,,,,,,,,,,,,,,,,,,,,,,,,,,,,,,,,,,,,,,,,,,,,,,,,,,,,,
,,,,,,,,,,,,l,Correct!,,,,,,t2.png,t2.png,0,0.98115,19,female,2020-09-05_18h38.29.761,torte-2b,2020.1.3,MacIntel,60,13196,1.051035,,,,,0,104,104,7,1,,,,,,,,,,,,,,,,,,,,,,,,,,,,,,,,,,,,,,,,,,,,,,,,,,,,,,,,
,,,,,,,,,,,,a,Correct!,,,,,,t4.png,t4.png,0,0.98115,19,female,2020-09-05_18h38.29.761,torte-2b,2020.1.3,MacIntel,60,13196,0.53432,,,,,0,105,105,52,1,,,,,,,,,,,,,,,,,,,,,,,,,,,,,,,,,,,,,,,,,,,,,,,,,,,,,,,,
,,,,,,,,,,,,l,Correct!,,,,,,t2.png,t1.png,1,0.90025,19,female,2020-09-05_18h38.29.761,torte-2b,2020.1.3,MacIntel,60,13196,0.770205,,,,,0,106,106,5,1,,,,,,,,,,,,,,,,,,,,,,,,,,,,,,,,,,,,,,,,,,,,,,,,,,,,,,,,
,,,,,,,,,,,,a,Incorrect,,,,,,t3.png,t1.png,2,0.0565,19,female,2020-09-05_18h38.29.761,torte-2b,2020.1.3,MacIntel,60,13196,1.049955,,,,,0,107,107,31,1,,,,,,,,,,,,,,,,,,,,,,,,,,,,,,,,,,,,,,,,,,,,,,,,,,,,,,,,
,,,,,,,,,,,,l,Incorrect,,,,,,t1.png,t2.png,1,0.9,19,female,2020-09-05_18h38.29.761,torte-2b,2020.1.3,MacIntel,60,13196,1.584465,,,,,0,108,108,1,1,,,,,,,,,,,,,,,,,,,,,,,,,,,,,,,,,,,,,,,,,,,,,,,,,,,,,,,,
,,,,,,,,,,,,a,Incorrect,,,,,,t4.png,t5.png,1,0.90025,19,female,2020-09-05_18h38.29.761,torte-2b,2020.1.3,MacIntel,60,13196,0.33396,,,,,0,109,109,103,1,,,,,,,,,,,,,,,,,,,,,,,,,,,,,,,,,,,,,,,,,,,,,,,,,,,,,,,,
,,,,,,,,,,,,a,Incorrect,,,,,,t1.png,t3.png,2,0.056466,19,female,2020-09-05_18h38.29.761,torte-2b,2020.1.3,MacIntel,60,13196,0.32959,,,,,0,110,110,99,1,,,,,,,,,,,,,,,,,,,,,,,,,,,,,,,,,,,,,,,,,,,,,,,,,,,,,,,,
,,,,,,,,,,,,a,Incorrect,,,,,,t4.png,t1.png,3,0.0000131,19,female,2020-09-05_18h38.29.761,torte-2b,2020.1.3,MacIntel,60,13196,0.43651,,,,,0,111,111,48,1,,,,,,,,,,,,,,,,,,,,,,,,,,,,,,,,,,,,,,,,,,,,,,,,,,,,,,,,
,,,,,,,,,,,,l,Correct!,,,,,,t1.png,t5.png,4,9.55E-11,19,female,2020-09-05_18h38.29.761,torte-2b,2020.1.3,MacIntel,60,13196,0.318225,,,,,0,112,112,55,1,,,,,,,,,,,,,,,,,,,,,,,,,,,,,,,,,,,,,,,,,,,,,,,,,,,,,,,,
,,,,,,,,,,,,a,Correct!,,,,,,t1.png,t2.png,1,0.90025,19,female,2020-09-05_18h38.29.761,torte-2b,2020.1.3,MacIntel,60,13196,0.8854,,,,,0,113,113,105,1,,,,,,,,,,,,,,,,,,,,,,,,,,,,,,,,,,,,,,,,,,,,,,,,,,,,,,,,
,,,,,,,,,,,,a,Incorrect,,,,,,t5.png,t1.png,4,9.55E-11,19,female,2020-09-05_18h38.29.761,torte-2b,2020.1.3,MacIntel,60,13196,1.03372,,,,,0,114,114,71,1,,,,,,,,,,,,,,,,,,,,,,,,,,,,,,,,,,,,,,,,,,,,,,,,,,,,,,,,
,,,,,,,,,,,,a,Correct!,,,,,,t4.png,t4.png,0,0.98115,19,female,2020-09-05_18h38.29.761,torte-2b,2020.1.3,MacIntel,60,13196,1.436055,,,,,0,115,115,90,1,,,,,,,,,,,,,,,,,,,,,,,,,,,,,,,,,,,,,,,,,,,,,,,,,,,,,,,,
,,,,,,,,,,,,l,Correct!,,,,,,t2.png,t3.png,1,0.90855,19,female,2020-09-05_18h38.29.761,torte-2b,2020.1.3,MacIntel,60,13196,1.750765,,,,,0,116,116,65,1,,,,,,,,,,,,,,,,,,,,,,,,,,,,,,,,,,,,,,,,,,,,,,,,,,,,,,,,
,,,,,,,,,,,,a,Incorrect,,,,,,t4.png,t1.png,3,0.0000131,19,female,2020-09-05_18h38.29.761,torte-2b,2020.1.3,MacIntel,60,13196,0.78781,,,,,0,117,117,13,1,,,,,,,,,,,,,,,,,,,,,,,,,,,,,,,,,,,,,,,,,,,,,,,,,,,,,,,,
,,,,,,,,,,,,a,Correct!,,,,,,t3.png,t2.png,1,0.90855,19,female,2020-09-05_18h38.29.761,torte-2b,2020.1.3,MacIntel,60,13196,0.58399,,,,,0,118,118,97,1,,,,,,,,,,,,,,,,,,,,,,,,,,,,,,,,,,,,,,,,,,,,,,,,,,,,,,,,
,,,,,,,,,,,,l,Incorrect,,,,,,t2.png,t2.png,0,0.98115,19,female,2020-09-05_18h38.29.761,torte-2b,2020.1.3,MacIntel,60,13196,0.916745,,,,,0,119,119,59,1,,,,,,,,,,,,,,,,,,,,,,,,,,,,,,,,,,,,,,,,,,,,,,,,,,,,,,,,
,,,,,,,,,,,,,,,,,,,,,,,19,female,2020-09-05_18h38.29.761,torte-2b,2020.1.3,MacIntel,60,13196,,space,1.146535,,,,,,,,space,25.74873,,0,0,0,0,1,6,,,,,,,,,,,,,,,,,,,,,,,,,,,,,,,,,,,,,,,,,,,,,,,
,,,,,,,,,,,,,,,,,,,,,,,19,female,2020-09-05_18h38.29.761,torte-2b,2020.1.3,MacIntel,60,13196,,,,,,,,,,,,,,0,1,1,1,1,7,,,,,,,,,,,,,,,,,,,,,,,,,,,,,,,,,,,,,,,,,,,,,,,
,,,,,,,,,,,,,,,,,,,,,,,19,female,2020-09-05_18h38.29.761,torte-2b,2020.1.3,MacIntel,60,13196,,,,,,,,,,,,,space,0,2,2,2,1,6,0.35093,,,,,,,,,,,,,,,,,,,,,,,,,,,,,,,,,,,,,,,,,,,,,,
,,,,,,,,,,,,,,,,,,,,,,,19,female,2020-09-05_18h38.29.761,torte-2b,2020.1.3,MacIntel,60,13196,,,,,,,,,,,,,,0,3,3,3,1,7,,,,,,,,,,,,,,,,,,,,,,,,,,,,,,,,,,,,,,,,,,,,,,,
,,,,,,,,,,,,,,,,,,,,,,,19,female,2020-09-05_18h38.29.761,torte-2b,2020.1.3,MacIntel,60,13196,,,,,,,,,,,,,,0,4,4,4,1,5,,,,,,,,,,,,,,,,,,,,,,,,,,,,,,,,,,,,,,,,,,,,,,,
,,,,,,,,,,,,,,,,,,,,,,,19,female,2020-09-05_18h38.29.761,torte-2b,2020.1.3,MacIntel,60,13196,,,,,,,,,,,,,space,0,5,5,5,1,7,0.417795,,,,,,,,,,,,,,,,,,,,,,,,,,,,,,,,,,,,,,,,,,,,,,
,,,,,,,,,,,,,,,,,,,,,,,19,female,2020-09-05_18h38.29.761,torte-2b,2020.1.3,MacIntel,60,13196,,,,,,,,,,,,,,0,6,6,6,1,2,,,,,,,,,,,,,,,,,,,,,,,,,,,,,,,,,,,,,,,,,,,,,,,
,,,,,,,,,,,,,,,,,,,,,,,19,female,2020-09-05_18h38.29.761,torte-2b,2020.1.3,MacIntel,60,13196,,,,,,,,,,,,,,0,7,7,7,1,4,,,,,,,,,,,,,,,,,,,,,,,,,,,,,,,,,,,,,,,,,,,,,,,
,,,,,,,,,,,,,,,,,,,,,,,19,female,2020-09-05_18h38.29.761,torte-2b,2020.1.3,MacIntel,60,13196,,,,,,,,,,,,,,0,8,8,8,1,7,,,,,,,,,,,,,,,,,,,,,,,,,,,,,,,,,,,,,,,,,,,,,,,
,,,,,,,,,,,,,,,,,,,,,,,19,female,2020-09-05_18h38.29.761,torte-2b,2020.1.3,MacIntel,60,13196,,,,,,,,,,,,,space,0,9,9,9,1,4,0.453145,,,,,,,,,,,,,,,,,,,,,,,,,,,,,,,,,,,,,,,,,,,,,,
,,,,,,,,,,,,,,,,,,,,,,,19,female,2020-09-05_18h38.29.761,torte-2b,2020.1.3,MacIntel,60,13196,,,,,,,,,,,,,,0,10,10,10,1,7,,,,,,,,,,,,,,,,,,,,,,,,,,,,,,,,,,,,,,,,,,,,,,,
,,,,,,,,,,,,,,,,,,,,,,,19,female,2020-09-05_18h38.29.761,torte-2b,2020.1.3,MacIntel,60,13196,,,,,,,,,,,,,space,0,11,11,11,1,7,0.218085,,,,,,,,,,,,,,,,,,,,,,,,,,,,,,,,,,,,,,,,,,,,,,
,,,,,,,,,,,,,,,,,,,,,,,19,female,2020-09-05_18h38.29.761,torte-2b,2020.1.3,MacIntel,60,13196,,,,,,,,,,,,,space,0,12,12,12,1,7,0.384355,,,,,,,,,,,,,,,,,,,,,,,,,,,,,,,,,,,,,,,,,,,,,,
,,,,,,,,,,,,,,,,,,,,,,,19,female,2020-09-05_18h38.29.761,torte-2b,2020.1.3,MacIntel,60,13196,,,,,,,,,,,,,space,0,13,13,13,1,4,0.53403,,,,,,,,,,,,,,,,,,,,,,,,,,,,,,,,,,,,,,,,,,,,,,
,,,,,,,,,,,,,,,,,,,,,,,19,female,2020-09-05_18h38.29.761,torte-2b,2020.1.3,MacIntel,60,13196,,,,,,,,,,,,,,0,14,14,14,1,6,,,,,,,,,,,,,,,,,,,,,,,,,,,,,,,,,,,,,,,,,,,,,,,
,,,,,,,,,,,,,,,,,,,,,,,19,female,2020-09-05_18h38.29.761,torte-2b,2020.1.3,MacIntel,60,13196,,,,,,,,,,,,,space,0,15,15,15,1,4,0.42935,,,,,,,,,,,,,,,,,,,,,,,,,,,,,,,,,,,,,,,,,,,,,,
,,,,,,,,,,,,,,,,,,,,,,,19,female,2020-09-05_18h38.29.761,torte-2b,2020.1.3,MacIntel,60,13196,,,,,,,,,,,,,,0,16,16,16,1,6,,,,,,,,,,,,,,,,,,,,,,,,,,,,,,,,,,,,,,,,,,,,,,,
,,,,,,,,,,,,,,,,,,,,,,,19,female,2020-09-05_18h38.29.761,torte-2b,2020.1.3,MacIntel,60,13196,,,,,,,,,,,,,,0,17,17,17,1,7,,,,,,,,,,,,,,,,,,,,,,,,,,,,,,,,,,,,,,,,,,,,,,,
,,,,,,,,,,,,,,,,,,,,,,,19,female,2020-09-05_18h38.29.761,torte-2b,2020.1.3,MacIntel,60,13196,,,,,,,,,,,,,space,0,18,18,18,1,6,0.730105,,,,,,,,,,,,,,,,,,,,,,,,,,,,,,,,,,,,,,,,,,,,,,
,,,,,,,,,,,,,,,,,,,,,,,19,female,2020-09-05_18h38.29.761,torte-2b,2020.1.3,MacIntel,60,13196,,,,,,,,,,,,,,0,19,19,19,1,7,,,,,,,,,,,,,,,,,,,,,,,,,,,,,,,,,,,,,,,,,,,,,,,
,,,,,,,,,,,,,,,,,,,,,,,19,female,2020-09-05_18h38.29.761,torte-2b,2020.1.3,MacIntel,60,13196,,,,,,,,,,,,,,0,20,20,20,1,5,,,,,,,,,,,,,,,,,,,,,,,,,,,,,,,,,,,,,,,,,,,,,,,
,,,,,,,,,,,,,,,,,,,,,,,19,female,2020-09-05_18h38.29.761,torte-2b,2020.1.3,MacIntel,60,13196,,,,,,,,,,,,,,0,21,21,21,1,1,,,,,,,,,,,,,,,,,,,,,,,,,,,,,,,,,,,,,,,,,,,,,,,
,,,,,,,,,,,,,,,,,,,,,,,19,female,2020-09-05_18h38.29.761,torte-2b,2020.1.3,MacIntel,60,13196,,,,,,,,,,,,,,0,22,22,22,1,6,,,,,,,,,,,,,,,,,,,,,,,,,,,,,,,,,,,,,,,,,,,,,,,
,,,,,,,,,,,,,,,,,,,,,,,19,female,2020-09-05_18h38.29.761,torte-2b,2020.1.3,MacIntel,60,13196,,,,,,,,,,,,,space,0,23,23,23,1,1,0.4463,,,,,,,,,,,,,,,,,,,,,,,,,,,,,,,,,,,,,,,,,,,,,,
,,,,,,,,,,,,,,,,,,,,,,,19,female,2020-09-05_18h38.29.761,torte-2b,2020.1.3,MacIntel,60,13196,,,,,,,,,,,,,,0,24,24,24,1,5,,,,,,,,,,,,,,,,,,,,,,,,,,,,,,,,,,,,,,,,,,,,,,,
,,,,,,,,,,,,,,,,,,,,,,,19,female,2020-09-05_18h38.29.761,torte-2b,2020.1.3,MacIntel,60,13196,,,,,,,,,,,,,,0,25,25,25,1,6,,,,,,,,,,,,,,,,,,,,,,,,,,,,,,,,,,,,,,,,,,,,,,,
,,,,,,,,,,,,,,,,,,,,,,,19,female,2020-09-05_18h38.29.761,torte-2b,2020.1.3,MacIntel,60,13196,,,,,,,,,,,,,space,0,26,26,26,1,6,0.832965,,,,,,,,,,,,,,,,,,,,,,,,,,,,,,,,,,,,,,,,,,,,,,
,,,,,,,,,,,,,,,,,,,,,,,19,female,2020-09-05_18h38.29.761,torte-2b,2020.1.3,MacIntel,60,13196,,,,,,,,,,,,,,0,27,27,27,1,6,,,,,,,,,,,,,,,,,,,,,,,,,,,,,,,,,,,,,,,,,,,,,,,
,,,,,,,,,,,,,,,,,,,,,,,19,female,2020-09-05_18h38.29.761,torte-2b,2020.1.3,MacIntel,60,13196,,,,,,,,,,,,,,0,28,28,28,1,5,,,,,,,,,,,,,,,,,,,,,,,,,,,,,,,,,,,,,,,,,,,,,,,
,,,,,,,,,,,,,,,,,,,,,,,19,female,2020-09-05_18h38.29.761,torte-2b,2020.1.3,MacIntel,60,13196,,,,,,,,,,,,,,0,29,29,29,1,2,,,,,,,,,,,,,,,,,,,,,,,,,,,,,,,,,,,,,,,,,,,,,,,
,,,,,,,,,,,,,,,,,,,,,,,19,female,2020-09-05_18h38.29.761,torte-2b,2020.1.3,MacIntel,60,13196,,,,,,,,,,,,,space,0,30,30,30,1,5,0.38347,,,,,,,,,,,,,,,,,,,,,,,,,,,,,,,,,,,,,,,,,,,,,,
,,,,,,,,,,,,,,,,,,,,,,,19,female,2020-09-05_18h38.29.761,torte-2b,2020.1.3,MacIntel,60,13196,,,,,,,,,,,,,space,0,31,31,31,1,2,0.30078,,,,,,,,,,,,,,,,,,,,,,,,,,,,,,,,,,,,,,,,,,,,,,
,,,,,,,,,,,,,,,,,,,,,,,19,female,2020-09-05_18h38.29.761,torte-2b,2020.1.3,MacIntel,60,13196,,,,,,,,,,,,,,0,32,32,32,1,5,,,,,,,,,,,,,,,,,,,,,,,,,,,,,,,,,,,,,,,,,,,,,,,
,,,,,,,,,,,,,,,,,,,,,,,19,female,2020-09-05_18h38.29.761,torte-2b,2020.1.3,MacIntel,60,13196,,,,,,,,,,,,,,0,33,33,33,1,1,,,,,,,,,,,,,,,,,,,,,,,,,,,,,,,,,,,,,,,,,,,,,,,
,,,,,,,,,,,,,,,,,,,,,,,19,female,2020-09-05_18h38.29.761,torte-2b,2020.1.3,MacIntel,60,13196,,,,,,,,,,,,,space,0,34,34,34,1,1,0.95119,,,,,,,,,,,,,,,,,,,,,,,,,,,,,,,,,,,,,,,,,,,,,,
,,,,,,,,,,,,,,,,,,,,,,,19,female,2020-09-05_18h38.29.761,torte-2b,2020.1.3,MacIntel,60,13196,,,,,,,,,,,,,,,,,,,2,,0,0,0,0,1,,,,,,,,,,,,,,,,,,,,,,,,,,,,,,,,,,,,,,,,,
,,,,,,,,,,,,,,,,,,,,,,,19,female,2020-09-05_18h38.29.761,torte-2b,2020.1.3,MacIntel,60,13196,,,,,,,,,,,,,,,,,,,2,,0,1,1,1,1,,,,,,,,,,,,,,,,,,,,,,,,,,,,,,,,,,,,,,,,,
,,,,,,,,,,,,,,,,,,,,,,,19,female,2020-09-05_18h38.29.761,torte-2b,2020.1.3,MacIntel,60,13196,,,,,,,,,,,,,,,,,,,6,,0,2,2,2,1,,,,,,,,,,,,,,,,,,,,,,,,,,,,,,,,,,,,,,,,,
,,,,,,,,,,,,,,,,,,,,,,,19,female,2020-09-05_18h38.29.761,torte-2b,2020.1.3,MacIntel,60,13196,,,,,,,,,,,,,space,,,,,,2,0.352985,0,3,3,3,1,,,,,,,,,,,,,,,,,,,,,,,,,,,,,,,,,,,,,,,,,
,,,,,,,,,,,,,,,,,,,,,,,19,female,2020-09-05_18h38.29.761,torte-2b,2020.1.3,MacIntel,60,13196,,,,,,,,,,,,,space,,,,,,6,0.852585,0,4,4,4,1,,,,,,,,,,,,,,,,,,,,,,,,,,,,,,,,,,,,,,,,,
,,,,,,,,,,,,,,,,,,,,,,,19,female,2020-09-05_18h38.29.761,torte-2b,2020.1.3,MacIntel,60,13196,,,,,,,,,,,,,space,,,,,,2,1.535045,0,5,5,5,1,,,,,,,,,,,,,,,,,,,,,,,,,,,,,,,,,,,,,,,,,
,,,,,,,,,,,,,,,,,,,,,,,19,female,2020-09-05_18h38.29.761,torte-2b,2020.1.3,MacIntel,60,13196,,,,,,,,,,,,,,,,,,,7,,0,6,6,6,1,,,,,,,,,,,,,,,,,,,,,,,,,,,,,,,,,,,,,,,,,
,,,,,,,,,,,,,,,,,,,,,,,19,female,2020-09-05_18h38.29.761,torte-2b,2020.1.3,MacIntel,60,13196,,,,,,,,,,,,,space,,,,,,2,0.601345,0,7,7,7,1,,,,,,,,,,,,,,,,,,,,,,,,,,,,,,,,,,,,,,,,,
,,,,,,,,,,,,,,,,,,,,,,,19,female,2020-09-05_18h38.29.761,torte-2b,2020.1.3,MacIntel,60,13196,,,,,,,,,,,,,space,,,,,,7,0.701865,0,8,8,8,1,,,,,,,,,,,,,,,,,,,,,,,,,,,,,,,,,,,,,,,,,
,,,,,,,,,,,,,,,,,,,,,,,19,female,2020-09-05_18h38.29.761,torte-2b,2020.1.3,MacIntel,60,13196,,,,,,,,,,,,,space,,,,,,2,0.73494,0,9,9,9,1,,,,,,,,,,,,,,,,,,,,,,,,,,,,,,,,,,,,,,,,,
,,,,,,,,,,,,,,,,,,,,,,,19,female,2020-09-05_18h38.29.761,torte-2b,2020.1.3,MacIntel,60,13196,,,,,,,,,,,,,,,,,,,5,,0,10,10,10,1,,,,,,,,,,,,,,,,,,,,,,,,,,,,,,,,,,,,,,,,,
,,,,,,,,,,,,,,,,,,,,,,,19,female,2020-09-05_18h38.29.761,torte-2b,2020.1.3,MacIntel,60,13196,,,,,,,,,,,,,,,,,,,4,,0,11,11,11,1,,,,,,,,,,,,,,,,,,,,,,,,,,,,,,,,,,,,,,,,,
,,,,,,,,,,,,,,,,,,,,,,,19,female,2020-09-05_18h38.29.761,torte-2b,2020.1.3,MacIntel,60,13196,,,,,,,,,,,,,space,,,,,,5,0.40041,0,12,12,12,1,,,,,,,,,,,,,,,,,,,,,,,,,,,,,,,,,,,,,,,,,
,,,,,,,,,,,,,,,,,,,,,,,19,female,2020-09-05_18h38.29.761,torte-2b,2020.1.3,MacIntel,60,13196,,,,,,,,,,,,,,,,,,,6,,0,13,13,13,1,,,,,,,,,,,,,,,,,,,,,,,,,,,,,,,,,,,,,,,,,
,,,,,,,,,,,,,,,,,,,,,,,19,female,2020-09-05_18h38.29.761,torte-2b,2020.1.3,MacIntel,60,13196,,,,,,,,,,,,,space,,,,,,5,0.335305,0,14,14,14,1,,,,,,,,,,,,,,,,,,,,,,,,,,,,,,,,,,,,,,,,,
,,,,,,,,,,,,,,,,,,,,,,,19,female,2020-09-05_18h38.29.761,torte-2b,2020.1.3,MacIntel,60,13196,,,,,,,,,,,,,,,,,,,4,,0,15,15,15,1,,,,,,,,,,,,,,,,,,,,,,,,,,,,,,,,,,,,,,,,,
,,,,,,,,,,,,,,,,,,,,,,,19,female,2020-09-05_18h38.29.761,torte-2b,2020.1.3,MacIntel,60,13196,,,,,,,,,,,,,space,,,,,,5,0.36819,0,16,16,16,1,,,,,,,,,,,,,,,,,,,,,,,,,,,,,,,,,,,,,,,,,
,,,,,,,,,,,,,,,,,,,,,,,19,female,2020-09-05_18h38.29.761,torte-2b,2020.1.3,MacIntel,60,13196,,,,,,,,,,,,,,,,,,,3,,0,17,17,17,1,,,,,,,,,,,,,,,,,,,,,,,,,,,,,,,,,,,,,,,,,
,,,,,,,,,,,,,,,,,,,,,,,19,female,2020-09-05_18h38.29.761,torte-2b,2020.1.3,MacIntel,60,13196,,,,,,,,,,,,,,,,,,,6,,0,18,18,18,1,,,,,,,,,,,,,,,,,,,,,,,,,,,,,,,,,,,,,,,,,
,,,,,,,,,,,,,,,,,,,,,,,19,female,2020-09-05_18h38.29.761,torte-2b,2020.1.3,MacIntel,60,13196,,,,,,,,,,,,,,,,,,,6,,0,19,19,19,1,,,,,,,,,,,,,,,,,,,,,,,,,,,,,,,,,,,,,,,,,
,,,,,,,,,,,,,,,,,,,,,,,19,female,2020-09-05_18h38.29.761,torte-2b,2020.1.3,MacIntel,60,13196,,,,,,,,,,,,,space,,,,,,6,0.83576,0,20,20,20,1,,,,,,,,,,,,,,,,,,,,,,,,,,,,,,,,,,,,,,,,,
,,,,,,,,,,,,,,,,,,,,,,,19,female,2020-09-05_18h38.29.761,torte-2b,2020.1.3,MacIntel,60,13196,,,,,,,,,,,,,,,,,,,4,,0,21,21,21,1,,,,,,,,,,,,,,,,,,,,,,,,,,,,,,,,,,,,,,,,,
,,,,,,,,,,,,,,,,,,,,,,,19,female,2020-09-05_18h38.29.761,torte-2b,2020.1.3,MacIntel,60,13196,,,,,,,,,,,,,space,,,,,,6,0.81379,0,22,22,22,1,,,,,,,,,,,,,,,,,,,,,,,,,,,,,,,,,,,,,,,,,
,,,,,,,,,,,,,,,,,,,,,,,19,female,2020-09-05_18h38.29.761,torte-2b,2020.1.3,MacIntel,60,13196,,,,,,,,,,,,,,,,,,,4,,0,23,23,23,1,,,,,,,,,,,,,,,,,,,,,,,,,,,,,,,,,,,,,,,,,
,,,,,,,,,,,,,,,,,,,,,,,19,female,2020-09-05_18h38.29.761,torte-2b,2020.1.3,MacIntel,60,13196,,,,,,,,,,,,,space,,,,,,6,0.4858,0,24,24,24,1,,,,,,,,,,,,,,,,,,,,,,,,,,,,,,,,,,,,,,,,,
,,,,,,,,,,,,,,,,,,,,,,,19,female,2020-09-05_18h38.29.761,torte-2b,2020.1.3,MacIntel,60,13196,,,,,,,,,,,,,space,,,,,,6,0.836195,0,25,25,25,1,,,,,,,,,,,,,,,,,,,,,,,,,,,,,,,,,,,,,,,,,
,,,,,,,,,,,,,,,,,,,,,,,19,female,2020-09-05_18h38.29.761,torte-2b,2020.1.3,MacIntel,60,13196,,,,,,,,,,,,,,,,,,,7,,0,26,26,26,1,,,,,,,,,,,,,,,,,,,,,,,,,,,,,,,,,,,,,,,,,
,,,,,,,,,,,,,,,,,,,,,,,19,female,2020-09-05_18h38.29.761,torte-2b,2020.1.3,MacIntel,60,13196,,,,,,,,,,,,,,,,,,,1,,0,27,27,27,1,,,,,,,,,,,,,,,,,,,,,,,,,,,,,,,,,,,,,,,,,
,,,,,,,,,,,,,,,,,,,,,,,19,female,2020-09-05_18h38.29.761,torte-2b,2020.1.3,MacIntel,60,13196,,,,,,,,,,,,,space,,,,,,7,1.03434,0,28,28,28,1,,,,,,,,,,,,,,,,,,,,,,,,,,,,,,,,,,,,,,,,,
,,,,,,,,,,,,,,,,,,,,,,,19,female,2020-09-05_18h38.29.761,torte-2b,2020.1.3,MacIntel,60,13196,,,,,,,,,,,,,,,,,,,4,,0,29,29,29,1,,,,,,,,,,,,,,,,,,,,,,,,,,,,,,,,,,,,,,,,,
,,,,,,,,,,,,,,,,,,,,,,,19,female,2020-09-05_18h38.29.761,torte-2b,2020.1.3,MacIntel,60,13196,,,,,,,,,,,,,,,,,,,7,,0,30,30,30,1,,,,,,,,,,,,,,,,,,,,,,,,,,,,,,,,,,,,,,,,,
,,,,,,,,,,,,,,,,,,,,,,,19,female,2020-09-05_18h38.29.761,torte-2b,2020.1.3,MacIntel,60,13196,,,,,,,,,,,,,space,,,,,,3,0.052195,0,31,31,31,1,,,,,,,,,,,,,,,,,,,,,,,,,,,,,,,,,,,,,,,,,
,,,,,,,,,,,,,,,,,,,,,,,19,female,2020-09-05_18h38.29.761,torte-2b,2020.1.3,MacIntel,60,13196,,,,,,,,,,,,,,,,,,,2,,0,32,32,32,1,,,,,,,,,,,,,,,,,,,,,,,,,,,,,,,,,,,,,,,,,
,,,,,,,,,,,,,,,,,,,,,,,19,female,2020-09-05_18h38.29.761,torte-2b,2020.1.3,MacIntel,60,13196,,,,,,,,,,,,,,,,,,,6,,0,33,33,33,1,,,,,,,,,,,,,,,,,,,,,,,,,,,,,,,,,,,,,,,,,
,,,,,,,,,,,,,,,,,,,,,,,19,female,2020-09-05_18h38.29.761,torte-2b,2020.1.3,MacIntel,60,13196,,,,,,,,,,,,,space,,,,,,3,0.869245,0,34,34,34,1,,,,,,,,,,,,,,,,,,,,,,,,,,,,,,,,,,,,,,,,,
,,,,,,,,,,,,,,,,,,,,,,,19,female,2020-09-05_18h38.29.761,torte-2b,2020.1.3,MacIntel,60,13196,,,,,,,,,,,,,,,,,,,7,,,,,,,0,0,0,0,1,,,,,,,,,,,,,,,,,,,,,,,,,,,,,,,,,,,,
,,,,,,,,,,,,,,,,,,,,,,,19,female,2020-09-05_18h38.29.761,torte-2b,2020.1.3,MacIntel,60,13196,,,,,,,,,,,,,,,,,,,5,,,,,,,0,1,1,1,1,,,,,,,,,,,,,,,,,,,,,,,,,,,,,,,,,,,,
,,,,,,,,,,,,,,,,,,,,,,,19,female,2020-09-05_18h38.29.761,torte-2b,2020.1.3,MacIntel,60,13196,,,,,,,,,,,,,,,,,,,4,,,,,,,0,2,2,2,1,,,,,,,,,,,,,,,,,,,,,,,,,,,,,,,,,,,,
,,,,,,,,,,,,,,,,,,,,,,,19,female,2020-09-05_18h38.29.761,torte-2b,2020.1.3,MacIntel,60,13196,,,,,,,,,,,,,space,,,,,,5,0.45191,,,,,,0,3,3,3,1,,,,,,,,,,,,,,,,,,,,,,,,,,,,,,,,,,,,
,,,,,,,,,,,,,,,,,,,,,,,19,female,2020-09-05_18h38.29.761,torte-2b,2020.1.3,MacIntel,60,13196,,,,,,,,,,,,,,,,,,,6,,,,,,,0,4,4,4,1,,,,,,,,,,,,,,,,,,,,,,,,,,,,,,,,,,,,
,,,,,,,,,,,,,,,,,,,,,,,19,female,2020-09-05_18h38.29.761,torte-2b,2020.1.3,MacIntel,60,13196,,,,,,,,,,,,,,,,,,,5,,,,,,,0,5,5,5,1,,,,,,,,,,,,,,,,,,,,,,,,,,,,,,,,,,,,
,,,,,,,,,,,,,,,,,,,,,,,19,female,2020-09-05_18h38.29.761,torte-2b,2020.1.3,MacIntel,60,13196,,,,,,,,,,,,,,,,,,,3,,,,,,,0,6,6,6,1,,,,,,,,,,,,,,,,,,,,,,,,,,,,,,,,,,,,
,,,,,,,,,,,,,,,,,,,,,,,19,female,2020-09-05_18h38.29.761,torte-2b,2020.1.3,MacIntel,60,13196,,,,,,,,,,,,,,,,,,,4,,,,,,,0,7,7,7,1,,,,,,,,,,,,,,,,,,,,,,,,,,,,,,,,,,,,
,,,,,,,,,,,,,,,,,,,,,,,19,female,2020-09-05_18h38.29.761,torte-2b,2020.1.3,MacIntel,60,13196,,,,,,,,,,,,,,,,,,,3,,,,,,,0,8,8,8,1,,,,,,,,,,,,,,,,,,,,,,,,,,,,,,,,,,,,
,,,,,,,,,,,,,,,,,,,,,,,19,female,2020-09-05_18h38.29.761,torte-2b,2020.1.3,MacIntel,60,13196,,,,,,,,,,,,,,,,,,,1,,,,,,,0,9,9,9,1,,,,,,,,,,,,,,,,,,,,,,,,,,,,,,,,,,,,
,,,,,,,,,,,,,,,,,,,,,,,19,female,2020-09-05_18h38.29.761,torte-2b,2020.1.3,MacIntel,60,13196,,,,,,,,,,,,,,,,,,,2,,,,,,,0,10,10,10,1,,,,,,,,,,,,,,,,,,,,,,,,,,,,,,,,,,,,
,,,,,,,,,,,,,,,,,,,,,,,19,female,2020-09-05_18h38.29.761,torte-2b,2020.1.3,MacIntel,60,13196,,,,,,,,,,,,,space,,,,,,1,0.90178,,,,,,0,11,11,11,1,,,,,,,,,,,,,,,,,,,,,,,,,,,,,,,,,,,,
,,,,,,,,,,,,,,,,,,,,,,,19,female,2020-09-05_18h38.29.761,torte-2b,2020.1.3,MacIntel,60,13196,,,,,,,,,,,,,space,,,,,,2,0.85189,,,,,,0,12,12,12,1,,,,,,,,,,,,,,,,,,,,,,,,,,,,,,,,,,,,
,,,,,,,,,,,,,,,,,,,,,,,19,female,2020-09-05_18h38.29.761,torte-2b,2020.1.3,MacIntel,60,13196,,,,,,,,,,,,,space,,,,,,1,0.93464,,,,,,0,13,13,13,1,,,,,,,,,,,,,,,,,,,,,,,,,,,,,,,,,,,,
,,,,,,,,,,,,,,,,,,,,,,,19,female,2020-09-05_18h38.29.761,torte-2b,2020.1.3,MacIntel,60,13196,,,,,,,,,,,,,,,,,,,3,,,,,,,0,14,14,14,1,,,,,,,,,,,,,,,,,,,,,,,,,,,,,,,,,,,,
,,,,,,,,,,,,,,,,,,,,,,,19,female,2020-09-05_18h38.29.761,torte-2b,2020.1.3,MacIntel,60,13196,,,,,,,,,,,,,space,,,,,,1,0.96735,,,,,,0,15,15,15,1,,,,,,,,,,,,,,,,,,,,,,,,,,,,,,,,,,,,
,,,,,,,,,,,,,,,,,,,,,,,19,female,2020-09-05_18h38.29.761,torte-2b,2020.1.3,MacIntel,60,13196,,,,,,,,,,,,,,,,,,,7,,,,,,,0,16,16,16,1,,,,,,,,,,,,,,,,,,,,,,,,,,,,,,,,,,,,
,,,,,,,,,,,,,,,,,,,,,,,19,female,2020-09-05_18h38.29.761,torte-2b,2020.1.3,MacIntel,60,13196,,,,,,,,,,,,,,,,,,,7,,,,,,,0,17,17,17,1,,,,,,,,,,,,,,,,,,,,,,,,,,,,,,,,,,,,
,,,,,,,,,,,,,,,,,,,,,,,19,female,2020-09-05_18h38.29.761,torte-2b,2020.1.3,MacIntel,60,13196,,,,,,,,,,,,,,,,,,,4,,,,,,,0,18,18,18,1,,,,,,,,,,,,,,,,,,,,,,,,,,,,,,,,,,,,
,,,,,,,,,,,,,,,,,,,,,,,19,female,2020-09-05_18h38.29.761,torte-2b,2020.1.3,MacIntel,60,13196,,,,,,,,,,,,,space,,,,,,7,0.884455,,,,,,0,19,19,19,1,,,,,,,,,,,,,,,,,,,,,,,,,,,,,,,,,,,,
,,,,,,,,,,,,,,,,,,,,,,,19,female,2020-09-05_18h38.29.761,torte-2b,2020.1.3,MacIntel,60,13196,,,,,,,,,,,,,,,,,,,3,,,,,,,0,20,20,20,1,,,,,,,,,,,,,,,,,,,,,,,,,,,,,,,,,,,,
,,,,,,,,,,,,,,,,,,,,,,,19,female,2020-09-05_18h38.29.761,torte-2b,2020.1.3,MacIntel,60,13196,,,,,,,,,,,,,space,,,,,,7,0.834985,,,,,,0,21,21,21,1,,,,,,,,,,,,,,,,,,,,,,,,,,,,,,,,,,,,
,,,,,,,,,,,,,,,,,,,,,,,19,female,2020-09-05_18h38.29.761,torte-2b,2020.1.3,MacIntel,60,13196,,,,,,,,,,,,,,,,,,,3,,,,,,,0,22,22,22,1,,,,,,,,,,,,,,,,,,,,,,,,,,,,,,,,,,,,
,,,,,,,,,,,,,,,,,,,,,,,19,female,2020-09-05_18h38.29.761,torte-2b,2020.1.3,MacIntel,60,13196,,,,,,,,,,,,,,,,,,,1,,,,,,,0,23,23,23,1,,,,,,,,,,,,,,,,,,,,,,,,,,,,,,,,,,,,
,,,,,,,,,,,,,,,,,,,,,,,19,female,2020-09-05_18h38.29.761,torte-2b,2020.1.3,MacIntel,60,13196,,,,,,,,,,,,,,,,,,,6,,,,,,,0,24,24,24,1,,,,,,,,,,,,,,,,,,,,,,,,,,,,,,,,,,,,
,,,,,,,,,,,,,,,,,,,,,,,19,female,2020-09-05_18h38.29.761,torte-2b,2020.1.3,MacIntel,60,13196,,,,,,,,,,,,,,,,,,,3,,,,,,,0,25,25,25,1,,,,,,,,,,,,,,,,,,,,,,,,,,,,,,,,,,,,
,,,,,,,,,,,,,,,,,,,,,,,19,female,2020-09-05_18h38.29.761,torte-2b,2020.1.3,MacIntel,60,13196,,,,,,,,,,,,,,,,,,,2,,,,,,,0,26,26,26,1,,,,,,,,,,,,,,,,,,,,,,,,,,,,,,,,,,,,
,,,,,,,,,,,,,,,,,,,,,,,19,female,2020-09-05_18h38.29.761,torte-2b,2020.1.3,MacIntel,60,13196,,,,,,,,,,,,,,,,,,,3,,,,,,,0,27,27,27,1,,,,,,,,,,,,,,,,,,,,,,,,,,,,,,,,,,,,
,,,,,,,,,,,,,,,,,,,,,,,19,female,2020-09-05_18h38.29.761,torte-2b,2020.1.3,MacIntel,60,13196,,,,,,,,,,,,,,,,,,,1,,,,,,,0,28,28,28,1,,,,,,,,,,,,,,,,,,,,,,,,,,,,,,,,,,,,
,,,,,,,,,,,,,,,,,,,,,,,19,female,2020-09-05_18h38.29.761,torte-2b,2020.1.3,MacIntel,60,13196,,,,,,,,,,,,,,,,,,,3,,,,,,,0,29,29,29,1,,,,,,,,,,,,,,,,,,,,,,,,,,,,,,,,,,,,
,,,,,,,,,,,,,,,,,,,,,,,19,female,2020-09-05_18h38.29.761,torte-2b,2020.1.3,MacIntel,60,13196,,,,,,,,,,,,,,,,,,,1,,,,,,,0,30,30,30,1,,,,,,,,,,,,,,,,,,,,,,,,,,,,,,,,,,,,
,,,,,,,,,,,,,,,,,,,,,,,19,female,2020-09-05_18h38.29.761,torte-2b,2020.1.3,MacIntel,60,13196,,,,,,,,,,,,,,,,,,,7,,,,,,,0,31,31,31,1,,,,,,,,,,,,,,,,,,,,,,,,,,,,,,,,,,,,
,,,,,,,,,,,,,,,,,,,,,,,19,female,2020-09-05_18h38.29.761,torte-2b,2020.1.3,MacIntel,60,13196,,,,,,,,,,,,,,,,,,,5,,,,,,,0,32,32,32,1,,,,,,,,,,,,,,,,,,,,,,,,,,,,,,,,,,,,
,,,,,,,,,,,,,,,,,,,,,,,19,female,2020-09-05_18h38.29.761,torte-2b,2020.1.3,MacIntel,60,13196,,,,,,,,,,,,,,,,,,,7,,,,,,,0,33,33,33,1,,,,,,,,,,,,,,,,,,,,,,,,,,,,,,,,,,,,
,,,,,,,,,,,,,,,,,,,,,,,19,female,2020-09-05_18h38.29.761,torte-2b,2020.1.3,MacIntel,60,13196,,,,,,,,,,,,,,,,,,,2,,,,,,,0,34,34,34,1,,,,,,,,,,,,,,,,,,,,,,,,,,,,,,,,,,,,
,,,,,,,,,,,,,,,,,,,,,,,19,female,2020-09-05_18h38.29.761,torte-2b,2020.1.3,MacIntel,60,13196,,,,,,,,,,,,,,,,,,,3,,,,,,,,,,,,0,0,0,0,1,,,,,,,,,,,,,,,,,,,,,,,,,,,,,,,
,,,,,,,,,,,,,,,,,,,,,,,19,female,2020-09-05_18h38.29.761,torte-2b,2020.1.3,MacIntel,60,13196,,,,,,,,,,,,,,,,,,,7,,,,,,,,,,,,0,1,1,1,1,,,,,,,,,,,,,,,,,,,,,,,,,,,,,,,
,,,,,,,,,,,,,,,,,,,,,,,19,female,2020-09-05_18h38.29.761,torte-2b,2020.1.3,MacIntel,60,13196,,,,,,,,,,,,,space,,,,,,7,0.636585,,,,,,,,,,,0,2,2,2,1,,,,,,,,,,,,,,,,,,,,,,,,,,,,,,,
,,,,,,,,,,,,,,,,,,,,,,,19,female,2020-09-05_18h38.29.761,torte-2b,2020.1.3,MacIntel,60,13196,,,,,,,,,,,,,,,,,,,4,,,,,,,,,,,,0,3,3,3,1,,,,,,,,,,,,,,,,,,,,,,,,,,,,,,,
,,,,,,,,,,,,,,,,,,,,,,,19,female,2020-09-05_18h38.29.761,torte-2b,2020.1.3,MacIntel,60,13196,,,,,,,,,,,,,,,,,,,5,,,,,,,,,,,,0,4,4,4,1,,,,,,,,,,,,,,,,,,,,,,,,,,,,,,,
,,,,,,,,,,,,,,,,,,,,,,,19,female,2020-09-05_18h38.29.761,torte-2b,2020.1.3,MacIntel,60,13196,,,,,,,,,,,,,space,,,,,,4,0.399155,,,,,,,,,,,0,5,5,5,1,,,,,,,,,,,,,,,,,,,,,,,,,,,,,,,
,,,,,,,,,,,,,,,,,,,,,,,19,female,2020-09-05_18h38.29.761,torte-2b,2020.1.3,MacIntel,60,13196,,,,,,,,,,,,,,,,,,,2,,,,,,,,,,,,0,6,6,6,1,,,,,,,,,,,,,,,,,,,,,,,,,,,,,,,
,,,,,,,,,,,,,,,,,,,,,,,19,female,2020-09-05_18h38.29.761,torte-2b,2020.1.3,MacIntel,60,13196,,,,,,,,,,,,,space,,,,,,4,0.70095,,,,,,,,,,,0,7,7,7,1,,,,,,,,,,,,,,,,,,,,,,,,,,,,,,,
,,,,,,,,,,,,,,,,,,,,,,,19,female,2020-09-05_18h38.29.761,torte-2b,2020.1.3,MacIntel,60,13196,,,,,,,,,,,,,space,,,,,,2,0.83401,,,,,,,,,,,0,8,8,8,1,,,,,,,,,,,,,,,,,,,,,,,,,,,,,,,
,,,,,,,,,,,,,,,,,,,,,,,19,female,2020-09-05_18h38.29.761,torte-2b,2020.1.3,MacIntel,60,13196,,,,,,,,,,,,,,,,,,,2,,,,,,,,,,,,0,9,9,9,1,,,,,,,,,,,,,,,,,,,,,,,,,,,,,,,
,,,,,,,,,,,,,,,,,,,,,,,19,female,2020-09-05_18h38.29.761,torte-2b,2020.1.3,MacIntel,60,13196,,,,,,,,,,,,,,,,,,,6,,,,,,,,,,,,0,10,10,10,1,,,,,,,,,,,,,,,,,,,,,,,,,,,,,,,
,,,,,,,,,,,,,,,,,,,,,,,19,female,2020-09-05_18h38.29.761,torte-2b,2020.1.3,MacIntel,60,13196,,,,,,,,,,,,,,,,,,,2,,,,,,,,,,,,0,11,11,11,1,,,,,,,,,,,,,,,,,,,,,,,,,,,,,,,
,,,,,,,,,,,,,,,,,,,,,,,19,female,2020-09-05_18h38.29.761,torte-2b,2020.1.3,MacIntel,60,13196,,,,,,,,,,,,,,,,,,,2,,,,,,,,,,,,0,12,12,12,1,,,,,,,,,,,,,,,,,,,,,,,,,,,,,,,
,,,,,,,,,,,,,,,,,,,,,,,19,female,2020-09-05_18h38.29.761,torte-2b,2020.1.3,MacIntel,60,13196,,,,,,,,,,,,,space,,,,,,2,0.817195,,,,,,,,,,,0,13,13,13,1,,,,,,,,,,,,,,,,,,,,,,,,,,,,,,,
,,,,,,,,,,,,,,,,,,,,,,,19,female,2020-09-05_18h38.29.761,torte-2b,2020.1.3,MacIntel,60,13196,,,,,,,,,,,,,,,,,,,2,,,,,,,,,,,,0,14,14,14,1,,,,,,,,,,,,,,,,,,,,,,,,,,,,,,,
,,,,,,,,,,,,,,,,,,,,,,,19,female,2020-09-05_18h38.29.761,torte-2b,2020.1.3,MacIntel,60,13196,,,,,,,,,,,,,,,,,,,4,,,,,,,,,,,,0,15,15,15,1,,,,,,,,,,,,,,,,,,,,,,,,,,,,,,,
,,,,,,,,,,,,,,,,,,,,,,,19,female,2020-09-05_18h38.29.761,torte-2b,2020.1.3,MacIntel,60,13196,,,,,,,,,,,,,,,,,,,3,,,,,,,,,,,,0,16,16,16,1,,,,,,,,,,,,,,,,,,,,,,,,,,,,,,,
,,,,,,,,,,,,,,,,,,,,,,,19,female,2020-09-05_18h38.29.761,torte-2b,2020.1.3,MacIntel,60,13196,,,,,,,,,,,,,,,,,,,7,,,,,,,,,,,,0,17,17,17,1,,,,,,,,,,,,,,,,,,,,,,,,,,,,,,,
,,,,,,,,,,,,,,,,,,,,,,,19,female,2020-09-05_18h38.29.761,torte-2b,2020.1.3,MacIntel,60,13196,,,,,,,,,,,,,space,,,,,,4,0.40201,,,,,,,,,,,0,18,18,18,1,,,,,,,,,,,,,,,,,,,,,,,,,,,,,,,
,,,,,,,,,,,,,,,,,,,,,,,19,female,2020-09-05_18h38.29.761,torte-2b,2020.1.3,MacIntel,60,13196,,,,,,,,,,,,,,,,,,,7,,,,,,,,,,,,0,19,19,19,1,,,,,,,,,,,,,,,,,,,,,,,,,,,,,,,
,,,,,,,,,,,,,,,,,,,,,,,19,female,2020-09-05_18h38.29.761,torte-2b,2020.1.3,MacIntel,60,13196,,,,,,,,,,,,,,,,,,,7,,,,,,,,,,,,0,20,20,20,1,,,,,,,,,,,,,,,,,,,,,,,,,,,,,,,
,,,,,,,,,,,,,,,,,,,,,,,19,female,2020-09-05_18h38.29.761,torte-2b,2020.1.3,MacIntel,60,13196,,,,,,,,,,,,,,,,,,,7,,,,,,,,,,,,0,21,21,21,1,,,,,,,,,,,,,,,,,,,,,,,,,,,,,,,
,,,,,,,,,,,,,,,,,,,,,,,19,female,2020-09-05_18h38.29.761,torte-2b,2020.1.3,MacIntel,60,13196,,,,,,,,,,,,,,,,,,,7,,,,,,,,,,,,0,22,22,22,1,,,,,,,,,,,,,,,,,,,,,,,,,,,,,,,
,,,,,,,,,,,,,,,,,,,,,,,19,female,2020-09-05_18h38.29.761,torte-2b,2020.1.3,MacIntel,60,13196,,,,,,,,,,,,,,,,,,,1,,,,,,,,,,,,0,23,23,23,1,,,,,,,,,,,,,,,,,,,,,,,,,,,,,,,
,,,,,,,,,,,,,,,,,,,,,,,19,female,2020-09-05_18h38.29.761,torte-2b,2020.1.3,MacIntel,60,13196,,,,,,,,,,,,,,,,,,,7,,,,,,,,,,,,0,24,24,24,1,,,,,,,,,,,,,,,,,,,,,,,,,,,,,,,
,,,,,,,,,,,,,,,,,,,,,,,19,female,2020-09-05_18h38.29.761,torte-2b,2020.1.3,MacIntel,60,13196,,,,,,,,,,,,,,,,,,,1,,,,,,,,,,,,0,25,25,25,1,,,,,,,,,,,,,,,,,,,,,,,,,,,,,,,
,,,,,,,,,,,,,,,,,,,,,,,19,female,2020-09-05_18h38.29.761,torte-2b,2020.1.3,MacIntel,60,13196,,,,,,,,,,,,,,,,,,,7,,,,,,,,,,,,0,26,26,26,1,,,,,,,,,,,,,,,,,,,,,,,,,,,,,,,
,,,,,,,,,,,,,,,,,,,,,,,19,female,2020-09-05_18h38.29.761,torte-2b,2020.1.3,MacIntel,60,13196,,,,,,,,,,,,,,,,,,,2,,,,,,,,,,,,0,27,27,27,1,,,,,,,,,,,,,,,,,,,,,,,,,,,,,,,
,,,,,,,,,,,,,,,,,,,,,,,19,female,2020-09-05_18h38.29.761,torte-2b,2020.1.3,MacIntel,60,13196,,,,,,,,,,,,,,,,,,,5,,,,,,,,,,,,0,28,28,28,1,,,,,,,,,,,,,,,,,,,,,,,,,,,,,,,
,,,,,,,,,,,,,,,,,,,,,,,19,female,2020-09-05_18h38.29.761,torte-2b,2020.1.3,MacIntel,60,13196,,,,,,,,,,,,,,,,,,,5,,,,,,,,,,,,0,29,29,29,1,,,,,,,,,,,,,,,,,,,,,,,,,,,,,,,
,,,,,,,,,,,,,,,,,,,,,,,19,female,2020-09-05_18h38.29.761,torte-2b,2020.1.3,MacIntel,60,13196,,,,,,,,,,,,,,,,,,,5,,,,,,,,,,,,0,30,30,30,1,,,,,,,,,,,,,,,,,,,,,,,,,,,,,,,
,,,,,,,,,,,,,,,,,,,,,,,19,female,2020-09-05_18h38.29.761,torte-2b,2020.1.3,MacIntel,60,13196,,,,,,,,,,,,,,,,,,,1,,,,,,,,,,,,0,31,31,31,1,,,,,,,,,,,,,,,,,,,,,,,,,,,,,,,
,,,,,,,,,,,,,,,,,,,,,,,19,female,2020-09-05_18h38.29.761,torte-2b,2020.1.3,MacIntel,60,13196,,,,,,,,,,,,,,,,,,,5,,,,,,,,,,,,0,32,32,32,1,,,,,,,,,,,,,,,,,,,,,,,,,,,,,,,
,,,,,,,,,,,,,,,,,,,,,,,19,female,2020-09-05_18h38.29.761,torte-2b,2020.1.3,MacIntel,60,13196,,,,,,,,,,,,,,,,,,,3,,,,,,,,,,,,0,33,33,33,1,,,,,,,,,,,,,,,,,,,,,,,,,,,,,,,
,,,,,,,,,,,,,,,,,,,,,,,19,female,2020-09-05_18h38.29.761,torte-2b,2020.1.3,MacIntel,60,13196,,,,,,,,,,,,,,,,,,,3,,,,,,,,,,,,0,34,34,34,1,,,,,,,,,,,,,,,,,,,,,,,,,,,,,,,
,,,,,,,,,,,,a,Incorrect,,,,,,t5.png,t3.png,2,0.056466,19,female,2020-09-05_18h38.29.761,torte-2b,2020.1.3,MacIntel,60,13196,1.36735,space,1.220055,,,,,,,,,,,,,,,,,,,,,,,,,,,,,,,,,space,7.622555,0,0,0,114,1,,,,,,,,,,,,,,,,,,,,,,,,
,,,,,,,,,,,,l,Incorrect,,,,,,t2.png,t2.png,0,0.98115,19,female,2020-09-05_18h38.29.761,torte-2b,2020.1.3,MacIntel,60,13196,1.11776,,,,,,,,,,,,,,,,,,,,,,,,,,,,,,,,,,,,,0,1,1,7,1,,,,,,,,,,,,,,,,,,,,,,,,
,,,,,,,,,,,,a,Incorrect,,,,,,t4.png,t1.png,3,0.0000131,19,female,2020-09-05_18h38.29.761,torte-2b,2020.1.3,MacIntel,60,13196,0.50671,,,,,,,,,,,,,,,,,,,,,,,,,,,,,,,,,,,,,0,2,2,93,1,,,,,,,,,,,,,,,,,,,,,,,,
,,,,,,,,,,,,a,Incorrect,,,,,,t5.png,t1.png,4,9.55E-11,19,female,2020-09-05_18h38.29.761,torte-2b,2020.1.3,MacIntel,60,13196,0.446225,,,,,,,,,,,,,,,,,,,,,,,,,,,,,,,,,,,,,0,3,3,71,1,,,,,,,,,,,,,,,,,,,,,,,,
,,,,,,,,,,,,a,Incorrect,,,,,,t5.png,t3.png,2,0.056466,19,female,2020-09-05_18h38.29.761,torte-2b,2020.1.3,MacIntel,60,13196,0.517345,,,,,,,,,,,,,,,,,,,,,,,,,,,,,,,,,,,,,0,4,4,56,1,,,,,,,,,,,,,,,,,,,,,,,,
,,,,,,,,,,,,l,Correct!,,,,,,t2.png,t1.png,1,0.9,19,female,2020-09-05_18h38.29.761,torte-2b,2020.1.3,MacIntel,60,13196,0.71947,,,,,,,,,,,,,,,,,,,,,,,,,,,,,,,,,,,,,0,5,5,118,1,,,,,,,,,,,,,,,,,,,,,,,,
,,,,,,,,,,,,a,Incorrect,,,,,,t4.png,t1.png,3,0.0000131,19,female,2020-09-05_18h38.29.761,torte-2b,2020.1.3,MacIntel,60,13196,0.88492,,,,,,,,,,,,,,,,,,,,,,,,,,,,,,,,,,,,,0,6,6,61,1,,,,,,,,,,,,,,,,,,,,,,,,
,,,,,,,,,,,,a,Incorrect,,,,,,t1.png,t3.png,2,0.056466,19,female,2020-09-05_18h38.29.761,torte-2b,2020.1.3,MacIntel,60,13196,0.616595,,,,,,,,,,,,,,,,,,,,,,,,,,,,,,,,,,,,,0,7,7,63,1,,,,,,,,,,,,,,,,,,,,,,,,
,,,,,,,,,,,,l,Incorrect,,,,,,t1.png,t1.png,0,0.97829,19,female,2020-09-05_18h38.29.761,torte-2b,2020.1.3,MacIntel,60,13196,0.64597,,,,,,,,,,,,,,,,,,,,,,,,,,,,,,,,,,,,,0,8,8,78,1,,,,,,,,,,,,,,,,,,,,,,,,
,,,,,,,,,,,,a,Correct!,,,,,,t4.png,t4.png,0,0.98115,19,female,2020-09-05_18h38.29.761,torte-2b,2020.1.3,MacIntel,60,13196,0.636985,,,,,,,,,,,,,,,,,,,,,,,,,,,,,,,,,,,,,0,9,9,21,1,,,,,,,,,,,,,,,,,,,,,,,,
,,,,,,,,,,,,l,Incorrect,,,,,,t3.png,t4.png,1,0.909,19,female,2020-09-05_18h38.29.761,torte-2b,2020.1.3,MacIntel,60,13196,0.58756,,,,,,,,,,,,,,,,,,,,,,,,,,,,,,,,,,,,,0,10,10,89,1,,,,,,,,,,,,,,,,,,,,,,,,
,,,,,,,,,,,,,Too slow :(,,,,,,t1.png,t3.png,2,0.056466,19,female,2020-09-05_18h38.29.761,torte-2b,2020.1.3,MacIntel,60,13196,,,,,,,,,,,,,,,,,,,,,,,,,,,,,,,,,,,,,,0,11,11,60,1,,,,,,,,,,,,,,,,,,,,,,,,
,,,,,,,,,,,,l,Correct!,,,,,,t1.png,t3.png,2,0.056466,19,female,2020-09-05_18h38.29.761,torte-2b,2020.1.3,MacIntel,60,13196,2.362875,,,,,,,,,,,,,,,,,,,,,,,,,,,,,,,,,,,,,0,12,12,87,1,,,,,,,,,,,,,,,,,,,,,,,,
,,,,,,,,,,,,a,Correct!,,,,,,t2.png,t3.png,1,0.90855,19,female,2020-09-05_18h38.29.761,torte-2b,2020.1.3,MacIntel,60,13196,1.219155,,,,,,,,,,,,,,,,,,,,,,,,,,,,,,,,,,,,,0,13,13,10,1,,,,,,,,,,,,,,,,,,,,,,,,
,,,,,,,,,,,,l,Incorrect,,,,,,t4.png,t4.png,0,0.98115,19,female,2020-09-05_18h38.29.761,torte-2b,2020.1.3,MacIntel,60,13196,1.21923,,,,,,,,,,,,,,,,,,,,,,,,,,,,,,,,,,,,,0,14,14,90,1,,,,,,,,,,,,,,,,,,,,,,,,
,,,,,,,,,,,,,Too slow :(,,,,,,t2.png,t4.png,2,0.059078,19,female,2020-09-05_18h38.29.761,torte-2b,2020.1.3,MacIntel,60,13196,,,,,,,,,,,,,,,,,,,,,,,,,,,,,,,,,,,,,,0,15,15,24,1,,,,,,,,,,,,,,,,,,,,,,,,
,,,,,,,,,,,,l,Incorrect,,,,,,t5.png,t5.png,0,0.978,19,female,2020-09-05_18h38.29.761,torte-2b,2020.1.3,MacIntel,60,13196,1.703795,,,,,,,,,,,,,,,,,,,,,,,,,,,,,,,,,,,,,0,16,16,117,1,,,,,,,,,,,,,,,,,,,,,,,,
,,,,,,,,,,,,,Too slow :(,,,,,,t4.png,t3.png,1,0.909,19,female,2020-09-05_18h38.29.761,torte-2b,2020.1.3,MacIntel,60,13196,,,,,,,,,,,,,,,,,,,,,,,,,,,,,,,,,,,,,,0,17,17,20,1,,,,,,,,,,,,,,,,,,,,,,,,
,,,,,,,,,,,,l,Incorrect,,,,,,t1.png,t1.png,0,0.97829,19,female,2020-09-05_18h38.29.761,torte-2b,2020.1.3,MacIntel,60,13196,0.30028,,,,,,,,,,,,,,,,,,,,,,,,,,,,,,,,,,,,,0,18,18,9,1,,,,,,,,,,,,,,,,,,,,,,,,
,,,,,,,,,,,,a,Correct!,,,,,,t5.png,t5.png,0,0.97829,19,female,2020-09-05_18h38.29.761,torte-2b,2020.1.3,MacIntel,60,13196,0.335315,,,,,,,,,,,,,,,,,,,,,,,,,,,,,,,,,,,,,0,19,19,70,1,,,,,,,,,,,,,,,,,,,,,,,,
,,,,,,,,,,,,a,Incorrect,,,,,,t2.png,t5.png,3,0.0000131,19,female,2020-09-05_18h38.29.761,torte-2b,2020.1.3,MacIntel,60,13196,1.285715,,,,,,,,,,,,,,,,,,,,,,,,,,,,,,,,,,,,,0,20,20,40,1,,,,,,,,,,,,,,,,,,,,,,,,
,,,,,,,,,,,,l,Incorrect,,,,,,t5.png,t5.png,0,0.97829,19,female,2020-09-05_18h38.29.761,torte-2b,2020.1.3,MacIntel,60,13196,1.333515,,,,,,,,,,,,,,,,,,,,,,,,,,,,,,,,,,,,,0,21,21,25,1,,,,,,,,,,,,,,,,,,,,,,,,
,,,,,,,,,,,,a,Correct!,,,,,,t5.png,t5.png,0,0.97829,19,female,2020-09-05_18h38.29.761,torte-2b,2020.1.3,MacIntel,60,13196,2.21332,,,,,,,,,,,,,,,,,,,,,,,,,,,,,,,,,,,,,0,22,22,94,1,,,,,,,,,,,,,,,,,,,,,,,,
,,,,,,,,,,,,a,Correct!,,,,,,t1.png,t1.png,0,0.978,19,female,2020-09-05_18h38.29.761,torte-2b,2020.1.3,MacIntel,60,13196,1.686885,,,,,,,,,,,,,,,,,,,,,,,,,,,,,,,,,,,,,0,23,23,28,1,,,,,,,,,,,,,,,,,,,,,,,,
,,,,,,,,,,,,l,Incorrect,,,,,,t3.png,t2.png,1,0.90855,19,female,2020-09-05_18h38.29.761,torte-2b,2020.1.3,MacIntel,60,13196,0.771605,,,,,,,,,,,,,,,,,,,,,,,,,,,,,,,,,,,,,0,24,24,97,1,,,,,,,,,,,,,,,,,,,,,,,,
,,,,,,,,,,,,a,Correct!,,,,,,t5.png,t4.png,1,0.90025,19,female,2020-09-05_18h38.29.761,torte-2b,2020.1.3,MacIntel,60,13196,0.884405,,,,,,,,,,,,,,,,,,,,,,,,,,,,,,,,,,,,,0,25,25,34,1,,,,,,,,,,,,,,,,,,,,,,,,
,,,,,,,,,,,,l,Incorrect,,,,,,t3.png,t2.png,1,0.90855,19,female,2020-09-05_18h38.29.761,torte-2b,2020.1.3,MacIntel,60,13196,0.58583,,,,,,,,,,,,,,,,,,,,,,,,,,,,,,,,,,,,,0,26,26,53,1,,,,,,,,,,,,,,,,,,,,,,,,
,,,,,,,,,,,,a,Incorrect,,,,,,t1.png,t4.png,3,0.0000131,19,female,2020-09-05_18h38.29.761,torte-2b,2020.1.3,MacIntel,60,13196,0.75123,,,,,,,,,,,,,,,,,,,,,,,,,,,,,,,,,,,,,0,27,27,81,1,,,,,,,,,,,,,,,,,,,,,,,,
,,,,,,,,,,,,a,Correct!,,,,,,t2.png,t2.png,0,0.98115,19,female,2020-09-05_18h38.29.761,torte-2b,2020.1.3,MacIntel,60,13196,1.76817,,,,,,,,,,,,,,,,,,,,,,,,,,,,,,,,,,,,,0,28,28,59,1,,,,,,,,,,,,,,,,,,,,,,,,
,,,,,,,,,,,,a,Incorrect,,,,,,t5.png,t2.png,3,0.0000131,19,female,2020-09-05_18h38.29.761,torte-2b,2020.1.3,MacIntel,60,13196,2.05629,,,,,,,,,,,,,,,,,,,,,,,,,,,,,,,,,,,,,0,29,29,119,1,,,,,,,,,,,,,,,,,,,,,,,,
,,,,,,,,,,,,,Too slow :(,,,,,,t1.png,t5.png,4,9.55E-11,19,female,2020-09-05_18h38.29.761,torte-2b,2020.1.3,MacIntel,60,13196,,,,,,,,,,,,,,,,,,,,,,,,,,,,,,,,,,,,,,0,30,30,85,1,,,,,,,,,,,,,,,,,,,,,,,,
,,,,,,,,,,,,a,Correct!,,,,,,t2.png,t3.png,1,0.909,19,female,2020-09-05_18h38.29.761,torte-2b,2020.1.3,MacIntel,60,13196,2.39891,,,,,,,,,,,,,,,,,,,,,,,,,,,,,,,,,,,,,0,31,31,74,1,,,,,,,,,,,,,,,,,,,,,,,,
,,,,,,,,,,,,l,Correct!,,,,,,t2.png,t4.png,2,0.059078,19,female,2020-09-05_18h38.29.761,torte-2b,2020.1.3,MacIntel,60,13196,0.89722,,,,,,,,,,,,,,,,,,,,,,,,,,,,,,,,,,,,,0,32,32,11,1,,,,,,,,,,,,,,,,,,,,,,,,
,,,,,,,,,,,,l,Incorrect,,,,,,t1.png,t2.png,1,0.9,19,female,2020-09-05_18h38.29.761,torte-2b,2020.1.3,MacIntel,60,13196,1.155765,,,,,,,,,,,,,,,,,,,,,,,,,,,,,,,,,,,,,0,33,33,1,1,,,,,,,,,,,,,,,,,,,,,,,,
,,,,,,,,,,,,a,Incorrect,,,,,,t5.png,t2.png,3,0.0000131,19,female,2020-09-05_18h38.29.761,torte-2b,2020.1.3,MacIntel,60,13196,0.617635,,,,,,,,,,,,,,,,,,,,,,,,,,,,,,,,,,,,,0,34,34,51,1,,,,,,,,,,,,,,,,,,,,,,,,
,,,,,,,,,,,,a,Incorrect,,,,,,t3.png,t5.png,2,0.0565,19,female,2020-09-05_18h38.29.761,torte-2b,2020.1.3,MacIntel,60,13196,1.45196,,,,,,,,,,,,,,,,,,,,,,,,,,,,,,,,,,,,,0,35,35,30,1,,,,,,,,,,,,,,,,,,,,,,,,
,,,,,,,,,,,,l,Correct!,,,,,,t1.png,t3.png,2,0.056466,19,female,2020-09-05_18h38.29.761,torte-2b,2020.1.3,MacIntel,60,13196,0.88515,,,,,,,,,,,,,,,,,,,,,,,,,,,,,,,,,,,,,0,36,36,99,1,,,,,,,,,,,,,,,,,,,,,,,,
,,,,,,,,,,,,a,Incorrect,,,,,,t5.png,t1.png,4,9.55E-11,19,female,2020-09-05_18h38.29.761,torte-2b,2020.1.3,MacIntel,60,13196,1.20084,,,,,,,,,,,,,,,,,,,,,,,,,,,,,,,,,,,,,0,37,37,43,1,,,,,,,,,,,,,,,,,,,,,,,,
,,,,,,,,,,,,l,Correct!,,,,,,t1.png,t3.png,2,0.056466,19,female,2020-09-05_18h38.29.761,torte-2b,2020.1.3,MacIntel,60,13196,1.100745,,,,,,,,,,,,,,,,,,,,,,,,,,,,,,,,,,,,,0,38,38,69,1,,,,,,,,,,,,,,,,,,,,,,,,
,,,,,,,,,,,,a,Correct!,,,,,,t4.png,t3.png,1,0.90855,19,female,2020-09-05_18h38.29.761,torte-2b,2020.1.3,MacIntel,60,13196,1.151245,,,,,,,,,,,,,,,,,,,,,,,,,,,,,,,,,,,,,0,39,39,35,1,,,,,,,,,,,,,,,,,,,,,,,,
,,,,,,,,,,,,a,Incorrect,,,,,,t5.png,t1.png,4,9.55E-11,19,female,2020-09-05_18h38.29.761,torte-2b,2020.1.3,MacIntel,60,13196,1.351675,,,,,,,,,,,,,,,,,,,,,,,,,,,,,,,,,,,,,0,40,40,102,1,,,,,,,,,,,,,,,,,,,,,,,,
,,,,,,,,,,,,l,Incorrect,,,,,,t1.png,t2.png,1,0.90025,19,female,2020-09-05_18h38.29.761,torte-2b,2020.1.3,MacIntel,60,13196,1.75359,,,,,,,,,,,,,,,,,,,,,,,,,,,,,,,,,,,,,0,41,41,33,1,,,,,,,,,,,,,,,,,,,,,,,,
,,,,,,,,,,,,a,Correct!,,,,,,t4.png,t3.png,1,0.90855,19,female,2020-09-05_18h38.29.761,torte-2b,2020.1.3,MacIntel,60,13196,0.56741,,,,,,,,,,,,,,,,,,,,,,,,,,,,,,,,,,,,,0,42,42,75,1,,,,,,,,,,,,,,,,,,,,,,,,
,,,,,,,,,,,,a,Correct!,,,,,,t4.png,t5.png,1,0.90025,19,female,2020-09-05_18h38.29.761,torte-2b,2020.1.3,MacIntel,60,13196,1.651395,,,,,,,,,,,,,,,,,,,,,,,,,,,,,,,,,,,,,0,43,43,103,1,,,,,,,,,,,,,,,,,,,,,,,,
,,,,,,,,,,,,a,Incorrect,,,,,,t4.png,t2.png,2,0.059078,19,female,2020-09-05_18h38.29.761,torte-2b,2020.1.3,MacIntel,60,13196,1.882555,,,,,,,,,,,,,,,,,,,,,,,,,,,,,,,,,,,,,0,44,44,109,1,,,,,,,,,,,,,,,,,,,,,,,,
,,,,,,,,,,,,l,Incorrect,,,,,,t5.png,t4.png,1,0.9,19,female,2020-09-05_18h38.29.761,torte-2b,2020.1.3,MacIntel,60,13196,2.11871,,,,,,,,,,,,,,,,,,,,,,,,,,,,,,,,,,,,,0,45,45,49,1,,,,,,,,,,,,,,,,,,,,,,,,
,,,,,,,,,,,,a,Incorrect,,,,,,t1.png,t5.png,4,9.55E-11,19,female,2020-09-05_18h38.29.761,torte-2b,2020.1.3,MacIntel,60,13196,2.269,,,,,,,,,,,,,,,,,,,,,,,,,,,,,,,,,,,,,0,46,46,41,1,,,,,,,,,,,,,,,,,,,,,,,,
,,,,,,,,,,,,a,Incorrect,,,,,,t5.png,t1.png,4,9.55E-11,19,female,2020-09-05_18h38.29.761,torte-2b,2020.1.3,MacIntel,60,13196,0.78304,,,,,,,,,,,,,,,,,,,,,,,,,,,,,,,,,,,,,0,47,47,22,1,,,,,,,,,,,,,,,,,,,,,,,,
,,,,,,,,,,,,a,Correct!,,,,,,t5.png,t5.png,0,0.97829,19,female,2020-09-05_18h38.29.761,torte-2b,2020.1.3,MacIntel,60,13196,1.051425,,,,,,,,,,,,,,,,,,,,,,,,,,,,,,,,,,,,,0,48,48,73,1,,,,,,,,,,,,,,,,,,,,,,,,
,,,,,,,,,,,,l,Correct!,,,,,,t2.png,t5.png,3,0.0000131,19,female,2020-09-05_18h38.29.761,torte-2b,2020.1.3,MacIntel,60,13196,2.38354,,,,,,,,,,,,,,,,,,,,,,,,,,,,,,,,,,,,,0,49,49,8,1,,,,,,,,,,,,,,,,,,,,,,,,
,,,,,,,,,,,,a,Correct!,,,,,,t4.png,t2.png,2,0.0591,19,female,2020-09-05_18h38.29.761,torte-2b,2020.1.3,MacIntel,60,13196,1.73294,,,,,,,,,,,,,,,,,,,,,,,,,,,,,,,,,,,,,0,50,50,36,1,,,,,,,,,,,,,,,,,,,,,,,,
,,,,,,,,,,,,a,Incorrect,,,,,,t4.png,t1.png,3,0.0000131,19,female,2020-09-05_18h38.29.761,torte-2b,2020.1.3,MacIntel,60,13196,0.68703,,,,,,,,,,,,,,,,,,,,,,,,,,,,,,,,,,,,,0,51,51,48,1,,,,,,,,,,,,,,,,,,,,,,,,
,,,,,,,,,,,,l,Incorrect,,,,,,t2.png,t1.png,1,0.90025,19,female,2020-09-05_18h38.29.761,torte-2b,2020.1.3,MacIntel,60,13196,2.100115,,,,,,,,,,,,,,,,,,,,,,,,,,,,,,,,,,,,,0,52,52,62,1,,,,,,,,,,,,,,,,,,,,,,,,
,,,,,,,,,,,,a,Correct!,,,,,,t1.png,t2.png,1,0.90025,19,female,2020-09-05_18h38.29.761,torte-2b,2020.1.3,MacIntel,60,13196,1.31723,,,,,,,,,,,,,,,,,,,,,,,,,,,,,,,,,,,,,0,53,53,105,1,,,,,,,,,,,,,,,,,,,,,,,,
,,,,,,,,,,,,l,Incorrect,,,,,,t4.png,t4.png,0,0.98115,19,female,2020-09-05_18h38.29.761,torte-2b,2020.1.3,MacIntel,60,13196,2.069005,,,,,,,,,,,,,,,,,,,,,,,,,,,,,,,,,,,,,0,54,54,80,1,,,,,,,,,,,,,,,,,,,,,,,,
,,,,,,,,,,,,a,Incorrect,,,,,,t5.png,t3.png,2,0.056466,19,female,2020-09-05_18h38.29.761,torte-2b,2020.1.3,MacIntel,60,13196,0.69957,,,,,,,,,,,,,,,,,,,,,,,,,,,,,,,,,,,,,0,55,55,38,1,,,,,,,,,,,,,,,,,,,,,,,,
,,,,,,,,,,,,a,Correct!,,,,,,t2.png,t3.png,1,0.90855,19,female,2020-09-05_18h38.29.761,torte-2b,2020.1.3,MacIntel,60,13196,0.80125,,,,,,,,,,,,,,,,,,,,,,,,,,,,,,,,,,,,,0,56,56,111,1,,,,,,,,,,,,,,,,,,,,,,,,
,,,,,,,,,,,,a,Incorrect,,,,,,t4.png,t1.png,3,0.0000131,19,female,2020-09-05_18h38.29.761,torte-2b,2020.1.3,MacIntel,60,13196,1.64659,,,,,,,,,,,,,,,,,,,,,,,,,,,,,,,,,,,,,0,57,57,42,1,,,,,,,,,,,,,,,,,,,,,,,,
,,,,,,,,,,,,a,Correct!,,,,,,t5.png,t4.png,1,0.90025,19,female,2020-09-05_18h38.29.761,torte-2b,2020.1.3,MacIntel,60,13196,1.834035,,,,,,,,,,,,,,,,,,,,,,,,,,,,,,,,,,,,,0,58,58,26,1,,,,,,,,,,,,,,,,,,,,,,,,
,,,,,,,,,,,,l,Incorrect,,,,,,t1.png,t2.png,1,0.90025,19,female,2020-09-05_18h38.29.761,torte-2b,2020.1.3,MacIntel,60,13196,1.714495,,,,,,,,,,,,,,,,,,,,,,,,,,,,,,,,,,,,,0,59,59,112,1,,,,,,,,,,,,,,,,,,,,,,,,
,,,,,,,,,,,,a,Incorrect,,,,,,t3.png,t1.png,2,0.056466,19,female,2020-09-05_18h38.29.761,torte-2b,2020.1.3,MacIntel,60,13196,1.55173,,,,,,,,,,,,,,,,,,,,,,,,,,,,,,,,,,,,,0,60,60,0,1,,,,,,,,,,,,,,,,,,,,,,,,
,,,,,,,,,,,,l,Correct!,,,,,,t1.png,t5.png,4,9.55E-11,19,female,2020-09-05_18h38.29.761,torte-2b,2020.1.3,MacIntel,60,13196,1.312565,,,,,,,,,,,,,,,,,,,,,,,,,,,,,,,,,,,,,0,61,61,16,1,,,,,,,,,,,,,,,,,,,,,,,,
,,,,,,,,,,,,a,Incorrect,,,,,,t4.png,t1.png,3,0.0000131,19,female,2020-09-05_18h38.29.761,torte-2b,2020.1.3,MacIntel,60,13196,1.50058,,,,,,,,,,,,,,,,,,,,,,,,,,,,,,,,,,,,,0,62,62,13,1,,,,,,,,,,,,,,,,,,,,,,,,
,,,,,,,,,,,,,Too slow :(,,,,,,t4.png,t2.png,2,0.059078,19,female,2020-09-05_18h38.29.761,torte-2b,2020.1.3,MacIntel,60,13196,,,,,,,,,,,,,,,,,,,,,,,,,,,,,,,,,,,,,,0,63,63,86,1,,,,,,,,,,,,,,,,,,,,,,,,
,,,,,,,,,,,,a,Incorrect,,,,,,t5.png,t1.png,4,9.55E-11,19,female,2020-09-05_18h38.29.761,torte-2b,2020.1.3,MacIntel,60,13196,0.53798,,,,,,,,,,,,,,,,,,,,,,,,,,,,,,,,,,,,,0,64,64,100,1,,,,,,,,,,,,,,,,,,,,,,,,
,,,,,,,,,,,,l,Incorrect,,,,,,t2.png,t2.png,0,0.981,19,female,2020-09-05_18h38.29.761,torte-2b,2020.1.3,MacIntel,60,13196,1.400755,,,,,,,,,,,,,,,,,,,,,,,,,,,,,,,,,,,,,0,65,65,101,1,,,,,,,,,,,,,,,,,,,,,,,,
,,,,,,,,,,,,l,Incorrect,,,,,,t3.png,t5.png,2,0.056466,19,female,2020-09-05_18h38.29.761,torte-2b,2020.1.3,MacIntel,60,13196,1.333255,,,,,,,,,,,,,,,,,,,,,,,,,,,,,,,,,,,,,0,66,66,6,1,,,,,,,,,,,,,,,,,,,,,,,,
,,,,,,,,,,,,,Too slow :(,,,,,,t4.png,t3.png,1,0.909,19,female,2020-09-05_18h38.29.761,torte-2b,2020.1.3,MacIntel,60,13196,,,,,,,,,,,,,,,,,,,,,,,,,,,,,,,,,,,,,,0,67,67,46,1,,,,,,,,,,,,,,,,,,,,,,,,
,,,,,,,,,,,,a,Incorrect,,,,,,t1.png,t4.png,3,0.0000131,19,female,2020-09-05_18h38.29.761,torte-2b,2020.1.3,MacIntel,60,13196,0.267175,,,,,,,,,,,,,,,,,,,,,,,,,,,,,,,,,,,,,0,68,68,92,1,,,,,,,,,,,,,,,,,,,,,,,,
,,,,,,,,,,,,,Too slow :(,,,,,,t4.png,t3.png,1,0.90855,19,female,2020-09-05_18h38.29.761,torte-2b,2020.1.3,MacIntel,60,13196,,,,,,,,,,,,,,,,,,,,,,,,,,,,,,,,,,,,,,0,69,69,45,1,,,,,,,,,,,,,,,,,,,,,,,,
,,,,,,,,,,,,a,Incorrect,,,,,,t3.png,t1.png,2,0.056466,19,female,2020-09-05_18h38.29.761,torte-2b,2020.1.3,MacIntel,60,13196,0.30091,,,,,,,,,,,,,,,,,,,,,,,,,,,,,,,,,,,,,0,70,70,29,1,,,,,,,,,,,,,,,,,,,,,,,,
,,,,,,,,,,,,a,Incorrect,,,,,,t5.png,t4.png,1,0.90025,19,female,2020-09-05_18h38.29.761,torte-2b,2020.1.3,MacIntel,60,13196,0.362715,,,,,,,,,,,,,,,,,,,,,,,,,,,,,,,,,,,,,0,71,71,27,1,,,,,,,,,,,,,,,,,,,,,,,,
,,,,,,,,,,,,a,Correct!,,,,,,t4.png,t5.png,1,0.90025,19,female,2020-09-05_18h38.29.761,torte-2b,2020.1.3,MacIntel,60,13196,0.36568,,,,,,,,,,,,,,,,,,,,,,,,,,,,,,,,,,,,,0,72,72,58,1,,,,,,,,,,,,,,,,,,,,,,,,
,,,,,,,,,,,,l,Correct!,,,,,,t2.png,t4.png,2,0.0591,19,female,2020-09-05_18h38.29.761,torte-2b,2020.1.3,MacIntel,60,13196,0.65199,,,,,,,,,,,,,,,,,,,,,,,,,,,,,,,,,,,,,0,73,73,15,1,,,,,,,,,,,,,,,,,,,,,,,,
,,,,,,,,,,,,a,Incorrect,,,,,,t3.png,t5.png,2,0.056466,19,female,2020-09-05_18h38.29.761,torte-2b,2020.1.3,MacIntel,60,13196,0.68176,,,,,,,,,,,,,,,,,,,,,,,,,,,,,,,,,,,,,0,74,74,14,1,,,,,,,,,,,,,,,,,,,,,,,,
,,,,,,,,,,,,l,Correct!,,,,,,t2.png,t4.png,2,0.059078,19,female,2020-09-05_18h38.29.761,torte-2b,2020.1.3,MacIntel,60,13196,0.552325,,,,,,,,,,,,,,,,,,,,,,,,,,,,,,,,,,,,,0,75,75,77,1,,,,,,,,,,,,,,,,,,,,,,,,
,,,,,,,,,,,,a,Incorrect,,,,,,t5.png,t2.png,3,0.0000131,19,female,2020-09-05_18h38.29.761,torte-2b,2020.1.3,MacIntel,60,13196,0.579495,,,,,,,,,,,,,,,,,,,,,,,,,,,,,,,,,,,,,0,76,76,98,1,,,,,,,,,,,,,,,,,,,,,,,,
,,,,,,,,,,,,l,Correct!,,,,,,t2.png,t5.png,3,0.0000131,19,female,2020-09-05_18h38.29.761,torte-2b,2020.1.3,MacIntel,60,13196,1.05301,,,,,,,,,,,,,,,,,,,,,,,,,,,,,,,,,,,,,0,77,77,104,1,,,,,,,,,,,,,,,,,,,,,,,,
,,,,,,,,,,,,a,Correct!,,,,,,t5.png,t4.png,1,0.9,19,female,2020-09-05_18h38.29.761,torte-2b,2020.1.3,MacIntel,60,13196,0.46203,,,,,,,,,,,,,,,,,,,,,,,,,,,,,,,,,,,,,0,78,78,76,1,,,,,,,,,,,,,,,,,,,,,,,,
,,,,,,,,,,,,l,Incorrect,,,,,,t2.png,t2.png,0,0.98115,19,female,2020-09-05_18h38.29.761,torte-2b,2020.1.3,MacIntel,60,13196,0.79625,,,,,,,,,,,,,,,,,,,,,,,,,,,,,,,,,,,,,0,79,79,2,1,,,,,,,,,,,,,,,,,,,,,,,,
,,,,,,,,,,,,a,Incorrect,,,,,,t5.png,t2.png,3,0.0000131,19,female,2020-09-05_18h38.29.761,torte-2b,2020.1.3,MacIntel,60,13196,0.59689,,,,,,,,,,,,,,,,,,,,,,,,,,,,,,,,,,,,,0,80,80,91,1,,,,,,,,,,,,,,,,,,,,,,,,
,,,,,,,,,,,,l,Incorrect,,,,,,t2.png,t3.png,1,0.90855,19,female,2020-09-05_18h38.29.761,torte-2b,2020.1.3,MacIntel,60,13196,0.882735,,,,,,,,,,,,,,,,,,,,,,,,,,,,,,,,,,,,,0,81,81,65,1,,,,,,,,,,,,,,,,,,,,,,,,
,,,,,,,,,,,,a,Correct!,,,,,,t4.png,t5.png,1,0.90025,19,female,2020-09-05_18h38.29.761,torte-2b,2020.1.3,MacIntel,60,13196,0.58462,,,,,,,,,,,,,,,,,,,,,,,,,,,,,,,,,,,,,0,82,82,47,1,,,,,,,,,,,,,,,,,,,,,,,,
,,,,,,,,,,,,l,Incorrect,,,,,,t2.png,t1.png,1,0.90025,19,female,2020-09-05_18h38.29.761,torte-2b,2020.1.3,MacIntel,60,13196,1.13485,,,,,,,,,,,,,,,,,,,,,,,,,,,,,,,,,,,,,0,83,83,4,1,,,,,,,,,,,,,,,,,,,,,,,,
,,,,,,,,,,,,a,Incorrect,,,,,,t2.png,t5.png,3,0.0000131,19,female,2020-09-05_18h38.29.761,torte-2b,2020.1.3,MacIntel,60,13196,1.1847,,,,,,,,,,,,,,,,,,,,,,,,,,,,,,,,,,,,,0,84,84,95,1,,,,,,,,,,,,,,,,,,,,,,,,
,,,,,,,,,,,,l,Incorrect,,,,,,t4.png,t4.png,0,0.98115,19,female,2020-09-05_18h38.29.761,torte-2b,2020.1.3,MacIntel,60,13196,0.834505,,,,,,,,,,,,,,,,,,,,,,,,,,,,,,,,,,,,,0,85,85,79,1,,,,,,,,,,,,,,,,,,,,,,,,
,,,,,,,,,,,,a,Correct!,,,,,,t4.png,t4.png,0,0.98115,19,female,2020-09-05_18h38.29.761,torte-2b,2020.1.3,MacIntel,60,13196,0.75114,,,,,,,,,,,,,,,,,,,,,,,,,,,,,,,,,,,,,0,86,86,52,1,,,,,,,,,,,,,,,,,,,,,,,,
,,,,,,,,,,,,l,Incorrect,,,,,,t1.png,t1.png,0,0.978,19,female,2020-09-05_18h38.29.761,torte-2b,2020.1.3,MacIntel,60,13196,1.584565,,,,,,,,,,,,,,,,,,,,,,,,,,,,,,,,,,,,,0,87,87,54,1,,,,,,,,,,,,,,,,,,,,,,,,
,,,,,,,,,,,,a,Incorrect,,,,,,t4.png,t2.png,2,0.059078,19,female,2020-09-05_18h38.29.761,torte-2b,2020.1.3,MacIntel,60,13196,1.135025,,,,,,,,,,,,,,,,,,,,,,,,,,,,,,,,,,,,,0,88,88,110,1,,,,,,,,,,,,,,,,,,,,,,,,
,,,,,,,,,,,,a,Correct!,,,,,,t4.png,t5.png,1,0.9,19,female,2020-09-05_18h38.29.761,torte-2b,2020.1.3,MacIntel,60,13196,1.068845,,,,,,,,,,,,,,,,,,,,,,,,,,,,,,,,,,,,,0,89,89,115,1,,,,,,,,,,,,,,,,,,,,,,,,
,,,,,,,,,,,,a,Correct!,,,,,,t1.png,t1.png,0,0.97829,19,female,2020-09-05_18h38.29.761,torte-2b,2020.1.3,MacIntel,60,13196,0.61815,,,,,,,,,,,,,,,,,,,,,,,,,,,,,,,,,,,,,0,90,90,67,1,,,,,,,,,,,,,,,,,,,,,,,,
,,,,,,,,,,,,l,Correct!,,,,,,t2.png,t5.png,3,0.0000131,19,female,2020-09-05_18h38.29.761,torte-2b,2020.1.3,MacIntel,60,13196,0.90251,,,,,,,,,,,,,,,,,,,,,,,,,,,,,,,,,,,,,0,91,91,66,1,,,,,,,,,,,,,,,,,,,,,,,,
,,,,,,,,,,,,a,Incorrect,,,,,,t3.png,t2.png,1,0.909,19,female,2020-09-05_18h38.29.761,torte-2b,2020.1.3,MacIntel,60,13196,1.235105,,,,,,,,,,,,,,,,,,,,,,,,,,,,,,,,,,,,,0,92,92,3,1,,,,,,,,,,,,,,,,,,,,,,,,
,,,,,,,,,,,,l,Correct!,,,,,,t1.png,t5.png,4,9.55E-11,19,female,2020-09-05_18h38.29.761,torte-2b,2020.1.3,MacIntel,60,13196,0.56388,,,,,,,,,,,,,,,,,,,,,,,,,,,,,,,,,,,,,0,93,93,12,1,,,,,,,,,,,,,,,,,,,,,,,,
,,,,,,,,,,,,a,Incorrect,,,,,,t4.png,t2.png,2,0.059078,19,female,2020-09-05_18h38.29.761,torte-2b,2020.1.3,MacIntel,60,13196,0.95159,,,,,,,,,,,,,,,,,,,,,,,,,,,,,,,,,,,,,0,94,94,88,1,,,,,,,,,,,,,,,,,,,,,,,,
,,,,,,,,,,,,l,Correct!,,,,,,t3.png,t1.png,2,0.0565,19,female,2020-09-05_18h38.29.761,torte-2b,2020.1.3,MacIntel,60,13196,0.817935,,,,,,,,,,,,,,,,,,,,,,,,,,,,,,,,,,,,,0,95,95,31,1,,,,,,,,,,,,,,,,,,,,,,,,
,,,,,,,,,,,,a,Incorrect,,,,,,t1.png,t4.png,3,0.0000131,19,female,2020-09-05_18h38.29.761,torte-2b,2020.1.3,MacIntel,60,13196,0.6183,,,,,,,,,,,,,,,,,,,,,,,,,,,,,,,,,,,,,0,96,96,50,1,,,,,,,,,,,,,,,,,,,,,,,,
,,,,,,,,,,,,l,Correct!,,,,,,t1.png,t4.png,3,0.0000131,19,female,2020-09-05_18h38.29.761,torte-2b,2020.1.3,MacIntel,60,13196,0.446335,,,,,,,,,,,,,,,,,,,,,,,,,,,,,,,,,,,,,0,97,97,17,1,,,,,,,,,,,,,,,,,,,,,,,,
,,,,,,,,,,,,a,Correct!,,,,,,t2.png,t1.png,1,0.90025,19,female,2020-09-05_18h38.29.761,torte-2b,2020.1.3,MacIntel,60,13196,1.037175,,,,,,,,,,,,,,,,,,,,,,,,,,,,,,,,,,,,,0,98,98,5,1,,,,,,,,,,,,,,,,,,,,,,,,
,,,,,,,,,,,,l,Correct!,,,,,,t3.png,t4.png,1,0.909,19,female,2020-09-05_18h38.29.761,torte-2b,2020.1.3,MacIntel,60,13196,0.4975,,,,,,,,,,,,,,,,,,,,,,,,,,,,,,,,,,,,,0,99,99,82,1,,,,,,,,,,,,,,,,,,,,,,,,
,,,,,,,,,,,,l,Incorrect,,,,,,t3.png,t4.png,1,0.90855,19,female,2020-09-05_18h38.29.761,torte-2b,2020.1.3,MacIntel,60,13196,0.66852,,,,,,,,,,,,,,,,,,,,,,,,,,,,,,,,,,,,,0,100,100,84,1,,,,,,,,,,,,,,,,,,,,,,,,
,,,,,,,,,,,,a,Correct!,,,,,,t3.png,t2.png,1,0.90855,19,female,2020-09-05_18h38.29.761,torte-2b,2020.1.3,MacIntel,60,13196,0.41843,,,,,,,,,,,,,,,,,,,,,,,,,,,,,,,,,,,,,0,101,101,18,1,,,,,,,,,,,,,,,,,,,,,,,,
,,,,,,,,,,,,a,Correct!,,,,,,t3.png,t4.png,1,0.90855,19,female,2020-09-05_18h38.29.761,torte-2b,2020.1.3,MacIntel,60,13196,0.78498,,,,,,,,,,,,,,,,,,,,,,,,,,,,,,,,,,,,,0,102,102,96,1,,,,,,,,,,,,,,,,,,,,,,,,
,,,,,,,,,,,,a,Incorrect,,,,,,t5.png,t3.png,2,0.056466,19,female,2020-09-05_18h38.29.761,torte-2b,2020.1.3,MacIntel,60,13196,0.40111,,,,,,,,,,,,,,,,,,,,,,,,,,,,,,,,,,,,,0,103,103,108,1,,,,,,,,,,,,,,,,,,,,,,,,
,,,,,,,,,,,,l,Incorrect,,,,,,t2.png,t3.png,1,0.90855,19,female,2020-09-05_18h38.29.761,torte-2b,2020.1.3,MacIntel,60,13196,0.89895,,,,,,,,,,,,,,,,,,,,,,,,,,,,,,,,,,,,,0,104,104,68,1,,,,,,,,,,,,,,,,,,,,,,,,
,,,,,,,,,,,,a,Incorrect,,,,,,t5.png,t2.png,3,0.0000131,19,female,2020-09-05_18h38.29.761,torte-2b,2020.1.3,MacIntel,60,13196,0.56694,,,,,,,,,,,,,,,,,,,,,,,,,,,,,,,,,,,,,0,105,105,116,1,,,,,,,,,,,,,,,,,,,,,,,,
,,,,,,,,,,,,l,Incorrect,,,,,,t1.png,t2.png,1,0.90025,19,female,2020-09-05_18h38.29.761,torte-2b,2020.1.3,MacIntel,60,13196,0.48396,,,,,,,,,,,,,,,,,,,,,,,,,,,,,,,,,,,,,0,106,106,72,1,,,,,,,,,,,,,,,,,,,,,,,,
,,,,,,,,,,,,l,Correct!,,,,,,t1.png,t4.png,3,0.0000131,19,female,2020-09-05_18h38.29.761,torte-2b,2020.1.3,MacIntel,60,13196,1.318305,,,,,,,,,,,,,,,,,,,,,,,,,,,,,,,,,,,,,0,107,107,107,1,,,,,,,,,,,,,,,,,,,,,,,,
,,,,,,,,,,,,a,Incorrect,,,,,,t5.png,t3.png,2,0.0565,19,female,2020-09-05_18h38.29.761,torte-2b,2020.1.3,MacIntel,60,13196,0.45129,,,,,,,,,,,,,,,,,,,,,,,,,,,,,,,,,,,,,0,108,108,39,1,,,,,,,,,,,,,,,,,,,,,,,,
,,,,,,,,,,,,l,Correct!,,,,,,t3.png,t5.png,2,0.056466,19,female,2020-09-05_18h38.29.761,torte-2b,2020.1.3,MacIntel,60,13196,0.484465,,,,,,,,,,,,,,,,,,,,,,,,,,,,,,,,,,,,,0,109,109,44,1,,,,,,,,,,,,,,,,,,,,,,,,
,,,,,,,,,,,,a,Correct!,,,,,,t2.png,t1.png,1,0.90025,19,female,2020-09-05_18h38.29.761,torte-2b,2020.1.3,MacIntel,60,13196,1.33458,,,,,,,,,,,,,,,,,,,,,,,,,,,,,,,,,,,,,0,110,110,19,1,,,,,,,,,,,,,,,,,,,,,,,,
,,,,,,,,,,,,l,Correct!,,,,,,t2.png,t4.png,2,0.059078,19,female,2020-09-05_18h38.29.761,torte-2b,2020.1.3,MacIntel,60,13196,1.18482,,,,,,,,,,,,,,,,,,,,,,,,,,,,,,,,,,,,,0,111,111,37,1,,,,,,,,,,,,,,,,,,,,,,,,
,,,,,,,,,,,,a,Correct!,,,,,,t3.png,t2.png,1,0.909,19,female,2020-09-05_18h38.29.761,torte-2b,2020.1.3,MacIntel,60,13196,1.64945,,,,,,,,,,,,,,,,,,,,,,,,,,,,,,,,,,,,,0,112,112,23,1,,,,,,,,,,,,,,,,,,,,,,,,
,,,,,,,,,,,,a,Incorrect,,,,,,t3.png,t1.png,2,0.056466,19,female,2020-09-05_18h38.29.761,torte-2b,2020.1.3,MacIntel,60,13196,0.7511,,,,,,,,,,,,,,,,,,,,,,,,,,,,,,,,,,,,,0,113,113,32,1,,,,,,,,,,,,,,,,,,,,,,,,
,,,,,,,,,,,,a,Incorrect,,,,,,t3.png,t1.png,2,0.056466,19,female,2020-09-05_18h38.29.761,torte-2b,2020.1.3,MacIntel,60,13196,1.896025,,,,,,,,,,,,,,,,,,,,,,,,,,,,,,,,,,,,,0,114,114,64,1,,,,,,,,,,,,,,,,,,,,,,,,
,,,,,,,,,,,,,Too slow :(,,,,,,t3.png,t4.png,1,0.909,19,female,2020-09-05_18h38.29.761,torte-2b,2020.1.3,MacIntel,60,13196,,,,,,,,,,,,,,,,,,,,,,,,,,,,,,,,,,,,,,0,115,115,106,1,,,,,,,,,,,,,,,,,,,,,,,,
,,,,,,,,,,,,l,Incorrect,,,,,,t4.png,t5.png,1,0.90025,19,female,2020-09-05_18h38.29.761,torte-2b,2020.1.3,MacIntel,60,13196,0.417655,,,,,,,,,,,,,,,,,,,,,,,,,,,,,,,,,,,,,0,116,116,113,1,,,,,,,,,,,,,,,,,,,,,,,,
,,,,,,,,,,,,a,Correct!,,,,,,t2.png,t2.png,0,0.98115,19,female,2020-09-05_18h38.29.761,torte-2b,2020.1.3,MacIntel,60,13196,2.43409,,,,,,,,,,,,,,,,,,,,,,,,,,,,,,,,,,,,,0,117,117,57,1,,,,,,,,,,,,,,,,,,,,,,,,
,,,,,,,,,,,,l,Correct!,,,,,,t3.png,t5.png,2,0.0565,19,female,2020-09-05_18h38.29.761,torte-2b,2020.1.3,MacIntel,60,13196,1.234275,,,,,,,,,,,,,,,,,,,,,,,,,,,,,,,,,,,,,0,118,118,83,1,,,,,,,,,,,,,,,,,,,,,,,,
,,,,,,,,,,,,l,Correct!,,,,,,t1.png,t5.png,4,9.55E-11,19,female,2020-09-05_18h38.29.761,torte-2b,2020.1.3,MacIntel,60,13196,1.99989,,,,,,,,,,,,,,,,,,,,,,,,,,,,,,,,,,,,,0,119,119,55,1,,,,,,,,,,,,,,,,,,,,,,,,
,,,,,,,,,,,,,,,,,,,,,,,19,female,2020-09-05_18h38.29.761,torte-2b,2020.1.3,MacIntel,60,13196,,space,1.051705,,,,,,,,,,,,,,,,,,,,,,,,,,,,,,,,,,,,,,,,32.1875,116.7421875,1,0,0,s2,-12.234375,-96.5,1,0,0,t4,157.4804688,-96.86328125,1,0,0,proceed,space,0.900305,space,0.999995,space,0.34768
