key_resp_8.keys,key_resp_8.rt,key_resp_9.keys,key_resp_9.rt,key_resp_10.keys,key_resp_10.rt,key_resp_11.keys,key_resp_11.rt,key_resp_2.keys,key_resp_2.rt,key_resp_3.keys,key_resp_3.rt,key_resp.keys,Feedback,train.thisRepN,train.thisTrialN,train.thisN,train.thisIndex,train.ran,torta_sx,torta_dx,difference,probability,age,gender,date,expName,psychopyVersion,OS,frameRate,participant,key_resp.rt,key_resp_15.keys,key_resp_15.rt,key_resp_6.keys,key_resp_6.rt,test1.thisRepN,test1.thisTrialN,test1.thisN,test1.thisIndex,test1.ran,key_resp_4.keys,key_resp_4.rt,key_resp_5.keys,back1.thisRepN,back1.thisTrialN,back1.thisN,back1.thisIndex,back1.ran,letter,key_resp_5.rt,back2.thisRepN,back2.thisTrialN,back2.thisN,back2.thisIndex,back2.ran,back3.thisRepN,back3.thisTrialN,back3.thisN,back3.thisIndex,back3.ran,back4.thisRepN,back4.thisTrialN,back4.thisN,back4.thisIndex,back4.ran,key_resp_7.keys,key_resp_7.rt,test2.thisRepN,test2.thisTrialN,test2.thisN,test2.thisIndex,test2.ran,mouse.x,mouse.y,mouse.leftButton,mouse.midButton,mouse.rightButton,mouse.clicked_name,mouse_2.x,mouse_2.y,mouse_2.leftButton,mouse_2.midButton,mouse_2.rightButton,mouse_2.clicked_name,mouse_3.x,mouse_3.y,mouse_3.leftButton,mouse_3.midButton,mouse_3.rightButton,mouse_3.clicked_name,key_resp_12.keys,key_resp_12.rt,key_resp_13.keys,key_resp_13.rt,key_resp_14.keys,key_resp_14.rt
space,104.05973,space,43.992035,space,8.23777,space,5.973515,space,56.318255,space,227.888935,,Too slow :(,0,0,0,92,1,t2.png,t3.png,1,0.909,19,Male,2020-09-28_11h51.21.022,torte-2b,2020.1.3,Win32,60,13192,,,,,,,,,,,,,,,,,,,,,,,,,,,,,,,,,,,,,,,,,,,,,,,,,,,,,,,,,,,,,,,,,,
,,,,,,,,,,,,a,Incorrect,0,1,1,108,1,t5.png,t1.png,4,9.55E-11,19,Male,2020-09-28_11h51.21.022,torte-2b,2020.1.3,Win32,60,13192,1.361215,,,,,,,,,,,,,,,,,,,,,,,,,,,,,,,,,,,,,,,,,,,,,,,,,,,,,,,,,,,,,,,,,
,,,,,,,,,,,,a,Correct!,0,2,2,109,1,t5.png,t5.png,0,0.97829,19,Male,2020-09-28_11h51.21.022,torte-2b,2020.1.3,Win32,60,13192,2.378375,,,,,,,,,,,,,,,,,,,,,,,,,,,,,,,,,,,,,,,,,,,,,,,,,,,,,,,,,,,,,,,,,
,,,,,,,,,,,,l,Incorrect,0,3,3,84,1,t1.png,t1.png,0,0.97829,19,Male,2020-09-28_11h51.21.022,torte-2b,2020.1.3,Win32,60,13192,2.163805,,,,,,,,,,,,,,,,,,,,,,,,,,,,,,,,,,,,,,,,,,,,,,,,,,,,,,,,,,,,,,,,,
,,,,,,,,,,,,l,Correct!,0,4,4,83,1,t3.png,t1.png,2,0.056466,19,Male,2020-09-28_11h51.21.022,torte-2b,2020.1.3,Win32,60,13192,1.813975,,,,,,,,,,,,,,,,,,,,,,,,,,,,,,,,,,,,,,,,,,,,,,,,,,,,,,,,,,,,,,,,,
,,,,,,,,,,,,l,Incorrect,0,5,5,95,1,t1.png,t1.png,0,0.978,19,Male,2020-09-28_11h51.21.022,torte-2b,2020.1.3,Win32,60,13192,1.11361,,,,,,,,,,,,,,,,,,,,,,,,,,,,,,,,,,,,,,,,,,,,,,,,,,,,,,,,,,,,,,,,,
,,,,,,,,,,,,,Too slow :(,0,6,6,42,1,t5.png,t4.png,1,0.90025,19,Male,2020-09-28_11h51.21.022,torte-2b,2020.1.3,Win32,60,13192,,,,,,,,,,,,,,,,,,,,,,,,,,,,,,,,,,,,,,,,,,,,,,,,,,,,,,,,,,,,,,,,,,
,,,,,,,,,,,,l,Correct!,0,7,7,50,1,t5.png,t1.png,4,9.55E-11,19,Male,2020-09-28_11h51.21.022,torte-2b,2020.1.3,Win32,60,13192,1.330585,,,,,,,,,,,,,,,,,,,,,,,,,,,,,,,,,,,,,,,,,,,,,,,,,,,,,,,,,,,,,,,,,
,,,,,,,,,,,,a,Correct!,0,8,8,62,1,t5.png,t5.png,0,0.978,19,Male,2020-09-28_11h51.21.022,torte-2b,2020.1.3,Win32,60,13192,1.580645,,,,,,,,,,,,,,,,,,,,,,,,,,,,,,,,,,,,,,,,,,,,,,,,,,,,,,,,,,,,,,,,,
,,,,,,,,,,,,a,Incorrect,0,9,9,11,1,t1.png,t4.png,3,0.0000131,19,Male,2020-09-28_11h51.21.022,torte-2b,2020.1.3,Win32,60,13192,1.064275,,,,,,,,,,,,,,,,,,,,,,,,,,,,,,,,,,,,,,,,,,,,,,,,,,,,,,,,,,,,,,,,,
,,,,,,,,,,,,l,Correct!,0,10,10,33,1,t5.png,t1.png,4,9.55E-11,19,Male,2020-09-28_11h51.21.022,torte-2b,2020.1.3,Win32,60,13192,2.25197,,,,,,,,,,,,,,,,,,,,,,,,,,,,,,,,,,,,,,,,,,,,,,,,,,,,,,,,,,,,,,,,,
,,,,,,,,,,,,a,Incorrect,0,11,11,88,1,t3.png,t1.png,2,0.056466,19,Male,2020-09-28_11h51.21.022,torte-2b,2020.1.3,Win32,60,13192,2.016825,,,,,,,,,,,,,,,,,,,,,,,,,,,,,,,,,,,,,,,,,,,,,,,,,,,,,,,,,,,,,,,,,
,,,,,,,,,,,,l,Correct!,0,12,12,72,1,t4.png,t2.png,2,0.059078,19,Male,2020-09-28_11h51.21.022,torte-2b,2020.1.3,Win32,60,13192,2.066345,,,,,,,,,,,,,,,,,,,,,,,,,,,,,,,,,,,,,,,,,,,,,,,,,,,,,,,,,,,,,,,,,
,,,,,,,,,,,,l,Incorrect,0,13,13,8,1,t3.png,t2.png,1,0.90855,19,Male,2020-09-28_11h51.21.022,torte-2b,2020.1.3,Win32,60,13192,1.83546,,,,,,,,,,,,,,,,,,,,,,,,,,,,,,,,,,,,,,,,,,,,,,,,,,,,,,,,,,,,,,,,,
,,,,,,,,,,,,,Too slow :(,0,14,14,71,1,t5.png,t5.png,0,0.97829,19,Male,2020-09-28_11h51.21.022,torte-2b,2020.1.3,Win32,60,13192,,,,,,,,,,,,,,,,,,,,,,,,,,,,,,,,,,,,,,,,,,,,,,,,,,,,,,,,,,,,,,,,,,
,,,,,,,,,,,,a,Correct!,0,15,15,22,1,t2.png,t3.png,1,0.90855,19,Male,2020-09-28_11h51.21.022,torte-2b,2020.1.3,Win32,60,13192,1.6338,,,,,,,,,,,,,,,,,,,,,,,,,,,,,,,,,,,,,,,,,,,,,,,,,,,,,,,,,,,,,,,,,
,,,,,,,,,,,,a,Incorrect,0,16,16,89,1,t1.png,t4.png,3,0.0000131,19,Male,2020-09-28_11h51.21.022,torte-2b,2020.1.3,Win32,60,13192,1.399955,,,,,,,,,,,,,,,,,,,,,,,,,,,,,,,,,,,,,,,,,,,,,,,,,,,,,,,,,,,,,,,,,
,,,,,,,,,,,,,Too slow :(,0,17,17,57,1,t2.png,t4.png,2,0.059078,19,Male,2020-09-28_11h51.21.022,torte-2b,2020.1.3,Win32,60,13192,,,,,,,,,,,,,,,,,,,,,,,,,,,,,,,,,,,,,,,,,,,,,,,,,,,,,,,,,,,,,,,,,,
,,,,,,,,,,,,a,Incorrect,0,18,18,55,1,t2.png,t4.png,2,0.059078,19,Male,2020-09-28_11h51.21.022,torte-2b,2020.1.3,Win32,60,13192,0.98018,,,,,,,,,,,,,,,,,,,,,,,,,,,,,,,,,,,,,,,,,,,,,,,,,,,,,,,,,,,,,,,,,
,,,,,,,,,,,,a,Incorrect,0,19,19,91,1,t1.png,t4.png,3,0.0000131,19,Male,2020-09-28_11h51.21.022,torte-2b,2020.1.3,Win32,60,13192,1.731325,,,,,,,,,,,,,,,,,,,,,,,,,,,,,,,,,,,,,,,,,,,,,,,,,,,,,,,,,,,,,,,,,
,,,,,,,,,,,,l,Correct!,0,20,20,116,1,t5.png,t4.png,1,0.90025,19,Male,2020-09-28_11h51.21.022,torte-2b,2020.1.3,Win32,60,13192,0.847955,,,,,,,,,,,,,,,,,,,,,,,,,,,,,,,,,,,,,,,,,,,,,,,,,,,,,,,,,,,,,,,,,
,,,,,,,,,,,,a,Correct!,0,21,21,44,1,t2.png,t3.png,1,0.909,19,Male,2020-09-28_11h51.21.022,torte-2b,2020.1.3,Win32,60,13192,1.90412,,,,,,,,,,,,,,,,,,,,,,,,,,,,,,,,,,,,,,,,,,,,,,,,,,,,,,,,,,,,,,,,,
,,,,,,,,,,,,a,Correct!,0,22,22,20,1,t2.png,t3.png,1,0.90855,19,Male,2020-09-28_11h51.21.022,torte-2b,2020.1.3,Win32,60,13192,1.1558,,,,,,,,,,,,,,,,,,,,,,,,,,,,,,,,,,,,,,,,,,,,,,,,,,,,,,,,,,,,,,,,,
,,,,,,,,,,,,l,Incorrect,0,23,23,96,1,t1.png,t1.png,0,0.97829,19,Male,2020-09-28_11h51.21.022,torte-2b,2020.1.3,Win32,60,13192,0.981365,,,,,,,,,,,,,,,,,,,,,,,,,,,,,,,,,,,,,,,,,,,,,,,,,,,,,,,,,,,,,,,,,
,,,,,,,,,,,,l,Incorrect,0,24,24,74,1,t5.png,t4.png,1,0.9,19,Male,2020-09-28_11h51.21.022,torte-2b,2020.1.3,Win32,60,13192,1.935915,,,,,,,,,,,,,,,,,,,,,,,,,,,,,,,,,,,,,,,,,,,,,,,,,,,,,,,,,,,,,,,,,
,,,,,,,,,,,,a,Incorrect,0,25,25,67,1,t1.png,t5.png,4,9.55E-11,19,Male,2020-09-28_11h51.21.022,torte-2b,2020.1.3,Win32,60,13192,1.516095,,,,,,,,,,,,,,,,,,,,,,,,,,,,,,,,,,,,,,,,,,,,,,,,,,,,,,,,,,,,,,,,,
,,,,,,,,,,,,l,Incorrect,0,26,26,23,1,t5.png,t4.png,1,0.90025,19,Male,2020-09-28_11h51.21.022,torte-2b,2020.1.3,Win32,60,13192,1.564565,,,,,,,,,,,,,,,,,,,,,,,,,,,,,,,,,,,,,,,,,,,,,,,,,,,,,,,,,,,,,,,,,
,,,,,,,,,,,,a,Correct!,0,27,27,41,1,t3.png,t2.png,1,0.90855,19,Male,2020-09-28_11h51.21.022,torte-2b,2020.1.3,Win32,60,13192,1.8365,,,,,,,,,,,,,,,,,,,,,,,,,,,,,,,,,,,,,,,,,,,,,,,,,,,,,,,,,,,,,,,,,
,,,,,,,,,,,,l,Correct!,0,28,28,12,1,t5.png,t1.png,4,9.55E-11,19,Male,2020-09-28_11h51.21.022,torte-2b,2020.1.3,Win32,60,13192,1.699905,,,,,,,,,,,,,,,,,,,,,,,,,,,,,,,,,,,,,,,,,,,,,,,,,,,,,,,,,,,,,,,,,
,,,,,,,,,,,,a,Incorrect,0,29,29,53,1,t3.png,t1.png,2,0.056466,19,Male,2020-09-28_11h51.21.022,torte-2b,2020.1.3,Win32,60,13192,2.31882,,,,,,,,,,,,,,,,,,,,,,,,,,,,,,,,,,,,,,,,,,,,,,,,,,,,,,,,,,,,,,,,,
,,,,,,,,,,,,,Too slow :(,0,30,30,104,1,t2.png,t3.png,1,0.90855,19,Male,2020-09-28_11h51.21.022,torte-2b,2020.1.3,Win32,60,13192,,,,,,,,,,,,,,,,,,,,,,,,,,,,,,,,,,,,,,,,,,,,,,,,,,,,,,,,,,,,,,,,,,
,,,,,,,,,,,,l,Correct!,0,31,31,24,1,t4.png,t2.png,2,0.059078,19,Male,2020-09-28_11h51.21.022,torte-2b,2020.1.3,Win32,60,13192,2.11291,,,,,,,,,,,,,,,,,,,,,,,,,,,,,,,,,,,,,,,,,,,,,,,,,,,,,,,,,,,,,,,,,
,,,,,,,,,,,,a,Correct!,0,32,32,2,1,t3.png,t2.png,1,0.90855,19,Male,2020-09-28_11h51.21.022,torte-2b,2020.1.3,Win32,60,13192,1.05628,,,,,,,,,,,,,,,,,,,,,,,,,,,,,,,,,,,,,,,,,,,,,,,,,,,,,,,,,,,,,,,,,
,,,,,,,,,,,,,Too slow :(,0,33,33,16,1,t5.png,t4.png,1,0.9,19,Male,2020-09-28_11h51.21.022,torte-2b,2020.1.3,Win32,60,13192,,,,,,,,,,,,,,,,,,,,,,,,,,,,,,,,,,,,,,,,,,,,,,,,,,,,,,,,,,,,,,,,,,
,,,,,,,,,,,,l,Incorrect,0,34,34,18,1,t4.png,t5.png,1,0.90025,19,Male,2020-09-28_11h51.21.022,torte-2b,2020.1.3,Win32,60,13192,0.16563,,,,,,,,,,,,,,,,,,,,,,,,,,,,,,,,,,,,,,,,,,,,,,,,,,,,,,,,,,,,,,,,,
,,,,,,,,,,,,a,Incorrect,0,35,35,31,1,t1.png,t5.png,4,9.55E-11,19,Male,2020-09-28_11h51.21.022,torte-2b,2020.1.3,Win32,60,13192,1.38343,,,,,,,,,,,,,,,,,,,,,,,,,,,,,,,,,,,,,,,,,,,,,,,,,,,,,,,,,,,,,,,,,
,,,,,,,,,,,,l,Correct!,0,36,36,90,1,t1.png,t5.png,4,9.55E-11,19,Male,2020-09-28_11h51.21.022,torte-2b,2020.1.3,Win32,60,13192,2.094465,,,,,,,,,,,,,,,,,,,,,,,,,,,,,,,,,,,,,,,,,,,,,,,,,,,,,,,,,,,,,,,,,
,,,,,,,,,,,,a,Correct!,0,37,37,76,1,t3.png,t2.png,1,0.90855,19,Male,2020-09-28_11h51.21.022,torte-2b,2020.1.3,Win32,60,13192,1.08156,,,,,,,,,,,,,,,,,,,,,,,,,,,,,,,,,,,,,,,,,,,,,,,,,,,,,,,,,,,,,,,,,
,,,,,,,,,,,,l,Correct!,0,38,38,6,1,t1.png,t4.png,3,0.0000131,19,Male,2020-09-28_11h51.21.022,torte-2b,2020.1.3,Win32,60,13192,1.680425,,,,,,,,,,,,,,,,,,,,,,,,,,,,,,,,,,,,,,,,,,,,,,,,,,,,,,,,,,,,,,,,,
,,,,,,,,,,,,l,Incorrect,0,39,39,77,1,t1.png,t1.png,0,0.97829,19,Male,2020-09-28_11h51.21.022,torte-2b,2020.1.3,Win32,60,13192,1.48736,,,,,,,,,,,,,,,,,,,,,,,,,,,,,,,,,,,,,,,,,,,,,,,,,,,,,,,,,,,,,,,,,
,,,,,,,,,,,,a,Incorrect,0,40,40,54,1,t1.png,t5.png,4,9.55E-11,19,Male,2020-09-28_11h51.21.022,torte-2b,2020.1.3,Win32,60,13192,1.4852,,,,,,,,,,,,,,,,,,,,,,,,,,,,,,,,,,,,,,,,,,,,,,,,,,,,,,,,,,,,,,,,,
,,,,,,,,,,,,l,Correct!,0,41,41,0,1,t5.png,t1.png,4,9.55E-11,19,Male,2020-09-28_11h51.21.022,torte-2b,2020.1.3,Win32,60,13192,0.91403,,,,,,,,,,,,,,,,,,,,,,,,,,,,,,,,,,,,,,,,,,,,,,,,,,,,,,,,,,,,,,,,,
,,,,,,,,,,,,l,Incorrect,0,42,42,34,1,t5.png,t4.png,1,0.9,19,Male,2020-09-28_11h51.21.022,torte-2b,2020.1.3,Win32,60,13192,1.30182,,,,,,,,,,,,,,,,,,,,,,,,,,,,,,,,,,,,,,,,,,,,,,,,,,,,,,,,,,,,,,,,,
,,,,,,,,,,,,,Too slow :(,0,43,43,117,1,t1.png,t5.png,4,9.55E-11,19,Male,2020-09-28_11h51.21.022,torte-2b,2020.1.3,Win32,60,13192,,,,,,,,,,,,,,,,,,,,,,,,,,,,,,,,,,,,,,,,,,,,,,,,,,,,,,,,,,,,,,,,,,
,,,,,,,,,,,,l,Incorrect,0,44,44,75,1,t1.png,t1.png,0,0.97829,19,Male,2020-09-28_11h51.21.022,torte-2b,2020.1.3,Win32,60,13192,0.90258,,,,,,,,,,,,,,,,,,,,,,,,,,,,,,,,,,,,,,,,,,,,,,,,,,,,,,,,,,,,,,,,,
,,,,,,,,,,,,a,Incorrect,0,45,45,86,1,t3.png,t1.png,2,0.056466,19,Male,2020-09-28_11h51.21.022,torte-2b,2020.1.3,Win32,60,13192,1.512675,,,,,,,,,,,,,,,,,,,,,,,,,,,,,,,,,,,,,,,,,,,,,,,,,,,,,,,,,,,,,,,,,
,,,,,,,,,,,,,Too slow :(,0,46,46,101,1,t4.png,t5.png,1,0.90025,19,Male,2020-09-28_11h51.21.022,torte-2b,2020.1.3,Win32,60,13192,,,,,,,,,,,,,,,,,,,,,,,,,,,,,,,,,,,,,,,,,,,,,,,,,,,,,,,,,,,,,,,,,,
,,,,,,,,,,,,l,Incorrect,0,47,47,25,1,t5.png,t5.png,0,0.97829,19,Male,2020-09-28_11h51.21.022,torte-2b,2020.1.3,Win32,60,13192,2.184435,,,,,,,,,,,,,,,,,,,,,,,,,,,,,,,,,,,,,,,,,,,,,,,,,,,,,,,,,,,,,,,,,
,,,,,,,,,,,,a,Correct!,0,48,48,58,1,t5.png,t4.png,1,0.90025,19,Male,2020-09-28_11h51.21.022,torte-2b,2020.1.3,Win32,60,13192,1.250405,,,,,,,,,,,,,,,,,,,,,,,,,,,,,,,,,,,,,,,,,,,,,,,,,,,,,,,,,,,,,,,,,
,,,,,,,,,,,,l,Correct!,0,49,49,43,1,t4.png,t2.png,2,0.059078,19,Male,2020-09-28_11h51.21.022,torte-2b,2020.1.3,Win32,60,13192,1.68729,,,,,,,,,,,,,,,,,,,,,,,,,,,,,,,,,,,,,,,,,,,,,,,,,,,,,,,,,,,,,,,,,
,,,,,,,,,,,,l,Incorrect,0,50,50,65,1,t4.png,t5.png,1,0.90025,19,Male,2020-09-28_11h51.21.022,torte-2b,2020.1.3,Win32,60,13192,2.096245,,,,,,,,,,,,,,,,,,,,,,,,,,,,,,,,,,,,,,,,,,,,,,,,,,,,,,,,,,,,,,,,,
,,,,,,,,,,,,a,Correct!,0,51,51,81,1,t1.png,t1.png,0,0.97829,19,Male,2020-09-28_11h51.21.022,torte-2b,2020.1.3,Win32,60,13192,1.8946,,,,,,,,,,,,,,,,,,,,,,,,,,,,,,,,,,,,,,,,,,,,,,,,,,,,,,,,,,,,,,,,,
,,,,,,,,,,,,l,Incorrect,0,52,52,106,1,t2.png,t3.png,1,0.90855,19,Male,2020-09-28_11h51.21.022,torte-2b,2020.1.3,Win32,60,13192,2.428535,,,,,,,,,,,,,,,,,,,,,,,,,,,,,,,,,,,,,,,,,,,,,,,,,,,,,,,,,,,,,,,,,
,,,,,,,,,,,,a,Correct!,0,53,53,15,1,t3.png,t2.png,1,0.90855,19,Male,2020-09-28_11h51.21.022,torte-2b,2020.1.3,Win32,60,13192,2.435985,,,,,,,,,,,,,,,,,,,,,,,,,,,,,,,,,,,,,,,,,,,,,,,,,,,,,,,,,,,,,,,,,
,,,,,,,,,,,,l,Incorrect,0,54,54,21,1,t5.png,t4.png,1,0.90025,19,Male,2020-09-28_11h51.21.022,torte-2b,2020.1.3,Win32,60,13192,2.23163,,,,,,,,,,,,,,,,,,,,,,,,,,,,,,,,,,,,,,,,,,,,,,,,,,,,,,,,,,,,,,,,,
,,,,,,,,,,,,a,Incorrect,0,55,55,40,1,t1.png,t5.png,4,9.55E-11,19,Male,2020-09-28_11h51.21.022,torte-2b,2020.1.3,Win32,60,13192,2.3188,,,,,,,,,,,,,,,,,,,,,,,,,,,,,,,,,,,,,,,,,,,,,,,,,,,,,,,,,,,,,,,,,
,,,,,,,,,,,,l,Correct!,0,56,56,3,1,t1.png,t5.png,4,9.55E-11,19,Male,2020-09-28_11h51.21.022,torte-2b,2020.1.3,Win32,60,13192,1.23281,,,,,,,,,,,,,,,,,,,,,,,,,,,,,,,,,,,,,,,,,,,,,,,,,,,,,,,,,,,,,,,,,
,,,,,,,,,,,,a,Correct!,0,57,57,110,1,t4.png,t5.png,1,0.90025,19,Male,2020-09-28_11h51.21.022,torte-2b,2020.1.3,Win32,60,13192,2.1954,,,,,,,,,,,,,,,,,,,,,,,,,,,,,,,,,,,,,,,,,,,,,,,,,,,,,,,,,,,,,,,,,
,,,,,,,,,,,,a,Incorrect,0,58,58,79,1,t3.png,t2.png,1,0.909,19,Male,2020-09-28_11h51.21.022,torte-2b,2020.1.3,Win32,60,13192,1.13543,,,,,,,,,,,,,,,,,,,,,,,,,,,,,,,,,,,,,,,,,,,,,,,,,,,,,,,,,,,,,,,,,
,,,,,,,,,,,,l,Correct!,0,59,59,80,1,t1.png,t4.png,3,0.0000131,19,Male,2020-09-28_11h51.21.022,torte-2b,2020.1.3,Win32,60,13192,1.51624,,,,,,,,,,,,,,,,,,,,,,,,,,,,,,,,,,,,,,,,,,,,,,,,,,,,,,,,,,,,,,,,,
,,,,,,,,,,,,l,Correct!,0,60,60,68,1,t1.png,t4.png,3,0.0000131,19,Male,2020-09-28_11h51.21.022,torte-2b,2020.1.3,Win32,60,13192,1.447285,,,,,,,,,,,,,,,,,,,,,,,,,,,,,,,,,,,,,,,,,,,,,,,,,,,,,,,,,,,,,,,,,
,,,,,,,,,,,,a,Correct!,0,61,61,66,1,t4.png,t5.png,1,0.9,19,Male,2020-09-28_11h51.21.022,torte-2b,2020.1.3,Win32,60,13192,1.579895,,,,,,,,,,,,,,,,,,,,,,,,,,,,,,,,,,,,,,,,,,,,,,,,,,,,,,,,,,,,,,,,,
,,,,,,,,,,,,l,Incorrect,0,62,62,29,1,t5.png,t5.png,0,0.97829,19,Male,2020-09-28_11h51.21.022,torte-2b,2020.1.3,Win32,60,13192,1.9032,,,,,,,,,,,,,,,,,,,,,,,,,,,,,,,,,,,,,,,,,,,,,,,,,,,,,,,,,,,,,,,,,
,,,,,,,,,,,,l,Correct!,0,63,63,14,1,t2.png,t4.png,2,0.059078,19,Male,2020-09-28_11h51.21.022,torte-2b,2020.1.3,Win32,60,13192,1.1966,,,,,,,,,,,,,,,,,,,,,,,,,,,,,,,,,,,,,,,,,,,,,,,,,,,,,,,,,,,,,,,,,
,,,,,,,,,,,,a,Correct!,0,64,64,64,1,t1.png,t1.png,0,0.978,19,Male,2020-09-28_11h51.21.022,torte-2b,2020.1.3,Win32,60,13192,1.37193,,,,,,,,,,,,,,,,,,,,,,,,,,,,,,,,,,,,,,,,,,,,,,,,,,,,,,,,,,,,,,,,,
,,,,,,,,,,,,a,Incorrect,0,65,65,103,1,t3.png,t1.png,2,0.056466,19,Male,2020-09-28_11h51.21.022,torte-2b,2020.1.3,Win32,60,13192,1.53996,,,,,,,,,,,,,,,,,,,,,,,,,,,,,,,,,,,,,,,,,,,,,,,,,,,,,,,,,,,,,,,,,
,,,,,,,,,,,,l,Incorrect,0,66,66,118,1,t5.png,t5.png,0,0.978,19,Male,2020-09-28_11h51.21.022,torte-2b,2020.1.3,Win32,60,13192,1.57753,,,,,,,,,,,,,,,,,,,,,,,,,,,,,,,,,,,,,,,,,,,,,,,,,,,,,,,,,,,,,,,,,
,,,,,,,,,,,,l,Correct!,0,67,67,26,1,t4.png,t2.png,2,0.0591,19,Male,2020-09-28_11h51.21.022,torte-2b,2020.1.3,Win32,60,13192,1.651335,,,,,,,,,,,,,,,,,,,,,,,,,,,,,,,,,,,,,,,,,,,,,,,,,,,,,,,,,,,,,,,,,
,,,,,,,,,,,,l,Incorrect,0,68,68,107,1,t1.png,t1.png,0,0.978,19,Male,2020-09-28_11h51.21.022,torte-2b,2020.1.3,Win32,60,13192,1.614625,,,,,,,,,,,,,,,,,,,,,,,,,,,,,,,,,,,,,,,,,,,,,,,,,,,,,,,,,,,,,,,,,
,,,,,,,,,,,,a,Correct!,0,69,69,13,1,t5.png,t5.png,0,0.97829,19,Male,2020-09-28_11h51.21.022,torte-2b,2020.1.3,Win32,60,13192,1.36328,,,,,,,,,,,,,,,,,,,,,,,,,,,,,,,,,,,,,,,,,,,,,,,,,,,,,,,,,,,,,,,,,
,,,,,,,,,,,,,Too slow :(,0,70,70,46,1,t4.png,t2.png,2,0.059078,19,Male,2020-09-28_11h51.21.022,torte-2b,2020.1.3,Win32,60,13192,,,,,,,,,,,,,,,,,,,,,,,,,,,,,,,,,,,,,,,,,,,,,,,,,,,,,,,,,,,,,,,,,,
,,,,,,,,,,,,l,Correct!,0,71,71,94,1,t5.png,t1.png,4,9.55E-11,19,Male,2020-09-28_11h51.21.022,torte-2b,2020.1.3,Win32,60,13192,2.33448,,,,,,,,,,,,,,,,,,,,,,,,,,,,,,,,,,,,,,,,,,,,,,,,,,,,,,,,,,,,,,,,,
,,,,,,,,,,,,a,Correct!,0,72,72,85,1,t3.png,t2.png,1,0.90855,19,Male,2020-09-28_11h51.21.022,torte-2b,2020.1.3,Win32,60,13192,1.386295,,,,,,,,,,,,,,,,,,,,,,,,,,,,,,,,,,,,,,,,,,,,,,,,,,,,,,,,,,,,,,,,,
,,,,,,,,,,,,,Too slow :(,0,73,73,17,1,t1.png,t4.png,3,0.0000131,19,Male,2020-09-28_11h51.21.022,torte-2b,2020.1.3,Win32,60,13192,,,,,,,,,,,,,,,,,,,,,,,,,,,,,,,,,,,,,,,,,,,,,,,,,,,,,,,,,,,,,,,,,,
,,,,,,,,,,,,a,Correct!,0,74,74,45,1,t3.png,t2.png,1,0.90855,19,Male,2020-09-28_11h51.21.022,torte-2b,2020.1.3,Win32,60,13192,2.19659,,,,,,,,,,,,,,,,,,,,,,,,,,,,,,,,,,,,,,,,,,,,,,,,,,,,,,,,,,,,,,,,,
,,,,,,,,,,,,a,Correct!,0,75,75,63,1,t2.png,t3.png,1,0.909,19,Male,2020-09-28_11h51.21.022,torte-2b,2020.1.3,Win32,60,13192,1.347485,,,,,,,,,,,,,,,,,,,,,,,,,,,,,,,,,,,,,,,,,,,,,,,,,,,,,,,,,,,,,,,,,
,,,,,,,,,,,,l,Correct!,0,76,76,36,1,t3.png,t1.png,2,0.0565,19,Male,2020-09-28_11h51.21.022,torte-2b,2020.1.3,Win32,60,13192,1.63544,,,,,,,,,,,,,,,,,,,,,,,,,,,,,,,,,,,,,,,,,,,,,,,,,,,,,,,,,,,,,,,,,
,,,,,,,,,,,,,Too slow :(,0,77,77,59,1,t5.png,t4.png,1,0.9,19,Male,2020-09-28_11h51.21.022,torte-2b,2020.1.3,Win32,60,13192,,,,,,,,,,,,,,,,,,,,,,,,,,,,,,,,,,,,,,,,,,,,,,,,,,,,,,,,,,,,,,,,,,
,,,,,,,,,,,,l,Incorrect,0,78,78,112,1,t1.png,t1.png,0,0.97829,19,Male,2020-09-28_11h51.21.022,torte-2b,2020.1.3,Win32,60,13192,1.1534,,,,,,,,,,,,,,,,,,,,,,,,,,,,,,,,,,,,,,,,,,,,,,,,,,,,,,,,,,,,,,,,,
,,,,,,,,,,,,l,Correct!,0,79,79,19,1,t4.png,t2.png,2,0.059078,19,Male,2020-09-28_11h51.21.022,torte-2b,2020.1.3,Win32,60,13192,2.193395,,,,,,,,,,,,,,,,,,,,,,,,,,,,,,,,,,,,,,,,,,,,,,,,,,,,,,,,,,,,,,,,,
,,,,,,,,,,,,a,Incorrect,0,80,80,37,1,t1.png,t4.png,3,0.0000131,19,Male,2020-09-28_11h51.21.022,torte-2b,2020.1.3,Win32,60,13192,1.48171,,,,,,,,,,,,,,,,,,,,,,,,,,,,,,,,,,,,,,,,,,,,,,,,,,,,,,,,,,,,,,,,,
,,,,,,,,,,,,a,Incorrect,0,81,81,32,1,t4.png,t5.png,1,0.90025,19,Male,2020-09-28_11h51.21.022,torte-2b,2020.1.3,Win32,60,13192,2.02863,,,,,,,,,,,,,,,,,,,,,,,,,,,,,,,,,,,,,,,,,,,,,,,,,,,,,,,,,,,,,,,,,
,,,,,,,,,,,,a,Incorrect,0,82,82,47,1,t4.png,t2.png,2,0.059078,19,Male,2020-09-28_11h51.21.022,torte-2b,2020.1.3,Win32,60,13192,1.81579,,,,,,,,,,,,,,,,,,,,,,,,,,,,,,,,,,,,,,,,,,,,,,,,,,,,,,,,,,,,,,,,,
,,,,,,,,,,,,l,Correct!,0,83,83,1,1,t2.png,t4.png,2,0.059078,19,Male,2020-09-28_11h51.21.022,torte-2b,2020.1.3,Win32,60,13192,1.33771,,,,,,,,,,,,,,,,,,,,,,,,,,,,,,,,,,,,,,,,,,,,,,,,,,,,,,,,,,,,,,,,,
,,,,,,,,,,,,a,Correct!,0,84,84,100,1,t4.png,t5.png,1,0.90025,19,Male,2020-09-28_11h51.21.022,torte-2b,2020.1.3,Win32,60,13192,1.91277,,,,,,,,,,,,,,,,,,,,,,,,,,,,,,,,,,,,,,,,,,,,,,,,,,,,,,,,,,,,,,,,,
,,,,,,,,,,,,l,Correct!,0,85,85,119,1,t1.png,t5.png,4,9.55E-11,19,Male,2020-09-28_11h51.21.022,torte-2b,2020.1.3,Win32,60,13192,1.363255,,,,,,,,,,,,,,,,,,,,,,,,,,,,,,,,,,,,,,,,,,,,,,,,,,,,,,,,,,,,,,,,,
,,,,,,,,,,,,l,Correct!,0,86,86,73,1,t4.png,t2.png,2,0.059078,19,Male,2020-09-28_11h51.21.022,torte-2b,2020.1.3,Win32,60,13192,1.278785,,,,,,,,,,,,,,,,,,,,,,,,,,,,,,,,,,,,,,,,,,,,,,,,,,,,,,,,,,,,,,,,,
,,,,,,,,,,,,a,Correct!,0,87,87,48,1,t5.png,t5.png,0,0.97829,19,Male,2020-09-28_11h51.21.022,torte-2b,2020.1.3,Win32,60,13192,1.86337,,,,,,,,,,,,,,,,,,,,,,,,,,,,,,,,,,,,,,,,,,,,,,,,,,,,,,,,,,,,,,,,,
,,,,,,,,,,,,l,Correct!,0,88,88,98,1,t2.png,t4.png,2,0.0591,19,Male,2020-09-28_11h51.21.022,torte-2b,2020.1.3,Win32,60,13192,1.36552,,,,,,,,,,,,,,,,,,,,,,,,,,,,,,,,,,,,,,,,,,,,,,,,,,,,,,,,,,,,,,,,,
,,,,,,,,,,,,l,Incorrect,0,89,89,49,1,t4.png,t5.png,1,0.9,19,Male,2020-09-28_11h51.21.022,torte-2b,2020.1.3,Win32,60,13192,1.66419,,,,,,,,,,,,,,,,,,,,,,,,,,,,,,,,,,,,,,,,,,,,,,,,,,,,,,,,,,,,,,,,,
,,,,,,,,,,,,l,Incorrect,0,90,90,97,1,t5.png,t5.png,0,0.97829,19,Male,2020-09-28_11h51.21.022,torte-2b,2020.1.3,Win32,60,13192,2.062045,,,,,,,,,,,,,,,,,,,,,,,,,,,,,,,,,,,,,,,,,,,,,,,,,,,,,,,,,,,,,,,,,
,,,,,,,,,,,,l,Correct!,0,91,91,60,1,t2.png,t4.png,2,0.059078,19,Male,2020-09-28_11h51.21.022,torte-2b,2020.1.3,Win32,60,13192,1.612725,,,,,,,,,,,,,,,,,,,,,,,,,,,,,,,,,,,,,,,,,,,,,,,,,,,,,,,,,,,,,,,,,
,,,,,,,,,,,,a,Incorrect,0,92,92,30,1,t3.png,t1.png,2,0.056466,19,Male,2020-09-28_11h51.21.022,torte-2b,2020.1.3,Win32,60,13192,2.26559,,,,,,,,,,,,,,,,,,,,,,,,,,,,,,,,,,,,,,,,,,,,,,,,,,,,,,,,,,,,,,,,,
,,,,,,,,,,,,l,Correct!,0,93,93,93,1,t2.png,t4.png,2,0.059078,19,Male,2020-09-28_11h51.21.022,torte-2b,2020.1.3,Win32,60,13192,1.21802,,,,,,,,,,,,,,,,,,,,,,,,,,,,,,,,,,,,,,,,,,,,,,,,,,,,,,,,,,,,,,,,,
,,,,,,,,,,,,a,Incorrect,0,94,94,61,1,t1.png,t4.png,3,0.0000131,19,Male,2020-09-28_11h51.21.022,torte-2b,2020.1.3,Win32,60,13192,1.132875,,,,,,,,,,,,,,,,,,,,,,,,,,,,,,,,,,,,,,,,,,,,,,,,,,,,,,,,,,,,,,,,,
,,,,,,,,,,,,a,Correct!,0,95,95,10,1,t2.png,t3.png,1,0.90855,19,Male,2020-09-28_11h51.21.022,torte-2b,2020.1.3,Win32,60,13192,2.228375,,,,,,,,,,,,,,,,,,,,,,,,,,,,,,,,,,,,,,,,,,,,,,,,,,,,,,,,,,,,,,,,,
,,,,,,,,,,,,a,Correct!,0,96,96,113,1,t5.png,t4.png,1,0.9,19,Male,2020-09-28_11h51.21.022,torte-2b,2020.1.3,Win32,60,13192,1.44963,,,,,,,,,,,,,,,,,,,,,,,,,,,,,,,,,,,,,,,,,,,,,,,,,,,,,,,,,,,,,,,,,
,,,,,,,,,,,,a,Correct!,0,97,97,114,1,t2.png,t3.png,1,0.90855,19,Male,2020-09-28_11h51.21.022,torte-2b,2020.1.3,Win32,60,13192,1.030035,,,,,,,,,,,,,,,,,,,,,,,,,,,,,,,,,,,,,,,,,,,,,,,,,,,,,,,,,,,,,,,,,
,,,,,,,,,,,,a,Correct!,0,98,98,7,1,t4.png,t5.png,1,0.90025,19,Male,2020-09-28_11h51.21.022,torte-2b,2020.1.3,Win32,60,13192,1.100655,,,,,,,,,,,,,,,,,,,,,,,,,,,,,,,,,,,,,,,,,,,,,,,,,,,,,,,,,,,,,,,,,
,,,,,,,,,,,,l,Correct!,0,99,99,51,1,t3.png,t1.png,2,0.056466,19,Male,2020-09-28_11h51.21.022,torte-2b,2020.1.3,Win32,60,13192,1.057685,,,,,,,,,,,,,,,,,,,,,,,,,,,,,,,,,,,,,,,,,,,,,,,,,,,,,,,,,,,,,,,,,
,,,,,,,,,,,,a,Correct!,0,100,100,70,1,t5.png,t5.png,0,0.978,19,Male,2020-09-28_11h51.21.022,torte-2b,2020.1.3,Win32,60,13192,1.71216,,,,,,,,,,,,,,,,,,,,,,,,,,,,,,,,,,,,,,,,,,,,,,,,,,,,,,,,,,,,,,,,,
,,,,,,,,,,,,l,Correct!,0,101,101,27,1,t3.png,t1.png,2,0.0565,19,Male,2020-09-28_11h51.21.022,torte-2b,2020.1.3,Win32,60,13192,1.12904,,,,,,,,,,,,,,,,,,,,,,,,,,,,,,,,,,,,,,,,,,,,,,,,,,,,,,,,,,,,,,,,,
,,,,,,,,,,,,a,Correct!,0,102,102,28,1,t2.png,t3.png,1,0.909,19,Male,2020-09-28_11h51.21.022,torte-2b,2020.1.3,Win32,60,13192,0.85684,,,,,,,,,,,,,,,,,,,,,,,,,,,,,,,,,,,,,,,,,,,,,,,,,,,,,,,,,,,,,,,,,
,,,,,,,,,,,,a,Incorrect,0,103,103,5,1,t2.png,t4.png,2,0.059078,19,Male,2020-09-28_11h51.21.022,torte-2b,2020.1.3,Win32,60,13192,1.467815,,,,,,,,,,,,,,,,,,,,,,,,,,,,,,,,,,,,,,,,,,,,,,,,,,,,,,,,,,,,,,,,,
,,,,,,,,,,,,a,Incorrect,0,104,104,9,1,t4.png,t5.png,1,0.9,19,Male,2020-09-28_11h51.21.022,torte-2b,2020.1.3,Win32,60,13192,1.43416,,,,,,,,,,,,,,,,,,,,,,,,,,,,,,,,,,,,,,,,,,,,,,,,,,,,,,,,,,,,,,,,,
,,,,,,,,,,,,l,Incorrect,0,105,105,39,1,t3.png,t2.png,1,0.90855,19,Male,2020-09-28_11h51.21.022,torte-2b,2020.1.3,Win32,60,13192,0.91744,,,,,,,,,,,,,,,,,,,,,,,,,,,,,,,,,,,,,,,,,,,,,,,,,,,,,,,,,,,,,,,,,
,,,,,,,,,,,,l,Correct!,0,106,106,111,1,t5.png,t1.png,4,9.55E-11,19,Male,2020-09-28_11h51.21.022,torte-2b,2020.1.3,Win32,60,13192,1.13109,,,,,,,,,,,,,,,,,,,,,,,,,,,,,,,,,,,,,,,,,,,,,,,,,,,,,,,,,,,,,,,,,
,,,,,,,,,,,,l,Correct!,0,107,107,82,1,t5.png,t1.png,4,9.55E-11,19,Male,2020-09-28_11h51.21.022,torte-2b,2020.1.3,Win32,60,13192,0.91756,,,,,,,,,,,,,,,,,,,,,,,,,,,,,,,,,,,,,,,,,,,,,,,,,,,,,,,,,,,,,,,,,
,,,,,,,,,,,,l,Correct!,0,108,108,87,1,t5.png,t1.png,4,9.55E-11,19,Male,2020-09-28_11h51.21.022,torte-2b,2020.1.3,Win32,60,13192,1.384895,,,,,,,,,,,,,,,,,,,,,,,,,,,,,,,,,,,,,,,,,,,,,,,,,,,,,,,,,,,,,,,,,
,,,,,,,,,,,,l,Correct!,0,109,109,38,1,t3.png,t1.png,2,0.056466,19,Male,2020-09-28_11h51.21.022,torte-2b,2020.1.3,Win32,60,13192,1.15188,,,,,,,,,,,,,,,,,,,,,,,,,,,,,,,,,,,,,,,,,,,,,,,,,,,,,,,,,,,,,,,,,
,,,,,,,,,,,,l,Correct!,0,110,110,56,1,t5.png,t1.png,4,9.55E-11,19,Male,2020-09-28_11h51.21.022,torte-2b,2020.1.3,Win32,60,13192,0.851415,,,,,,,,,,,,,,,,,,,,,,,,,,,,,,,,,,,,,,,,,,,,,,,,,,,,,,,,,,,,,,,,,
,,,,,,,,,,,,l,Correct!,0,111,111,35,1,t1.png,t4.png,3,0.0000131,19,Male,2020-09-28_11h51.21.022,torte-2b,2020.1.3,Win32,60,13192,1.529715,,,,,,,,,,,,,,,,,,,,,,,,,,,,,,,,,,,,,,,,,,,,,,,,,,,,,,,,,,,,,,,,,
,,,,,,,,,,,,l,Correct!,0,112,112,52,1,t2.png,t4.png,2,0.059078,19,Male,2020-09-28_11h51.21.022,torte-2b,2020.1.3,Win32,60,13192,1.713085,,,,,,,,,,,,,,,,,,,,,,,,,,,,,,,,,,,,,,,,,,,,,,,,,,,,,,,,,,,,,,,,,
,,,,,,,,,,,,l,Correct!,0,113,113,115,1,t2.png,t4.png,2,0.059078,19,Male,2020-09-28_11h51.21.022,torte-2b,2020.1.3,Win32,60,13192,0.963195,,,,,,,,,,,,,,,,,,,,,,,,,,,,,,,,,,,,,,,,,,,,,,,,,,,,,,,,,,,,,,,,,
,,,,,,,,,,,,a,Correct!,0,114,114,105,1,t3.png,t2.png,1,0.90855,19,Male,2020-09-28_11h51.21.022,torte-2b,2020.1.3,Win32,60,13192,0.86916,,,,,,,,,,,,,,,,,,,,,,,,,,,,,,,,,,,,,,,,,,,,,,,,,,,,,,,,,,,,,,,,,
,,,,,,,,,,,,l,Correct!,0,115,115,4,1,t1.png,t5.png,4,9.55E-11,19,Male,2020-09-28_11h51.21.022,torte-2b,2020.1.3,Win32,60,13192,1.056355,,,,,,,,,,,,,,,,,,,,,,,,,,,,,,,,,,,,,,,,,,,,,,,,,,,,,,,,,,,,,,,,,
,,,,,,,,,,,,l,Correct!,0,116,116,99,1,t1.png,t5.png,4,9.55E-11,19,Male,2020-09-28_11h51.21.022,torte-2b,2020.1.3,Win32,60,13192,0.831255,,,,,,,,,,,,,,,,,,,,,,,,,,,,,,,,,,,,,,,,,,,,,,,,,,,,,,,,,,,,,,,,,
,,,,,,,,,,,,l,Correct!,0,117,117,69,1,t4.png,t2.png,2,0.059078,19,Male,2020-09-28_11h51.21.022,torte-2b,2020.1.3,Win32,60,13192,1.2497,,,,,,,,,,,,,,,,,,,,,,,,,,,,,,,,,,,,,,,,,,,,,,,,,,,,,,,,,,,,,,,,,
,,,,,,,,,,,,l,Incorrect,0,118,118,78,1,t1.png,t1.png,0,0.978,19,Male,2020-09-28_11h51.21.022,torte-2b,2020.1.3,Win32,60,13192,1.795995,,,,,,,,,,,,,,,,,,,,,,,,,,,,,,,,,,,,,,,,,,,,,,,,,,,,,,,,,,,,,,,,,
,,,,,,,,,,,,l,Correct!,0,119,119,102,1,t4.png,t2.png,2,0.059078,19,Male,2020-09-28_11h51.21.022,torte-2b,2020.1.3,Win32,60,13192,1.837385,,,,,,,,,,,,,,,,,,,,,,,,,,,,,,,,,,,,,,,,,,,,,,,,,,,,,,,,,,,,,,,,,
,,,,,,,,,,,,l,Correct!,,,,,,t1.png,t3.png,2,0.056466,19,Male,2020-09-28_11h51.21.022,torte-2b,2020.1.3,Win32,60,13192,1.162855,space,1.770705,space,0.692295,0,0,0,60,1,,,,,,,,,,,,,,,,,,,,,,,,,,,,,,,,,,,,,,,,,,,,,,,,,,,,,,,,
,,,,,,,,,,,,a,Correct!,,,,,,t4.png,t5.png,1,0.90025,19,Male,2020-09-28_11h51.21.022,torte-2b,2020.1.3,Win32,60,13192,1.35733,,,,,0,1,1,47,1,,,,,,,,,,,,,,,,,,,,,,,,,,,,,,,,,,,,,,,,,,,,,,,,,,,,,,,,
,,,,,,,,,,,,a,Correct!,,,,,,t3.png,t4.png,1,0.90855,19,Male,2020-09-28_11h51.21.022,torte-2b,2020.1.3,Win32,60,13192,1.555805,,,,,0,2,2,84,1,,,,,,,,,,,,,,,,,,,,,,,,,,,,,,,,,,,,,,,,,,,,,,,,,,,,,,,,
,,,,,,,,,,,,a,Incorrect,,,,,,t2.png,t1.png,1,0.9,19,Male,2020-09-28_11h51.21.022,torte-2b,2020.1.3,Win32,60,13192,1.50257,,,,,0,3,3,118,1,,,,,,,,,,,,,,,,,,,,,,,,,,,,,,,,,,,,,,,,,,,,,,,,,,,,,,,,
,,,,,,,,,,,,l,Correct!,,,,,,t3.png,t1.png,2,0.056466,19,Male,2020-09-28_11h51.21.022,torte-2b,2020.1.3,Win32,60,13192,0.997355,,,,,0,4,4,0,1,,,,,,,,,,,,,,,,,,,,,,,,,,,,,,,,,,,,,,,,,,,,,,,,,,,,,,,,
,,,,,,,,,,,,a,Incorrect,,,,,,t2.png,t5.png,3,0.0000131,19,Male,2020-09-28_11h51.21.022,torte-2b,2020.1.3,Win32,60,13192,1.945225,,,,,0,5,5,95,1,,,,,,,,,,,,,,,,,,,,,,,,,,,,,,,,,,,,,,,,,,,,,,,,,,,,,,,,
,,,,,,,,,,,,a,Correct!,,,,,,t1.png,t1.png,0,0.978,19,Male,2020-09-28_11h51.21.022,torte-2b,2020.1.3,Win32,60,13192,1.29588,,,,,0,6,6,54,1,,,,,,,,,,,,,,,,,,,,,,,,,,,,,,,,,,,,,,,,,,,,,,,,,,,,,,,,
,,,,,,,,,,,,a,Incorrect,,,,,,t5.png,t3.png,2,0.056466,19,Male,2020-09-28_11h51.21.022,torte-2b,2020.1.3,Win32,60,13192,1.56327,,,,,0,7,7,114,1,,,,,,,,,,,,,,,,,,,,,,,,,,,,,,,,,,,,,,,,,,,,,,,,,,,,,,,,
,,,,,,,,,,,,l,Correct!,,,,,,t5.png,t1.png,4,9.55E-11,19,Male,2020-09-28_11h51.21.022,torte-2b,2020.1.3,Win32,60,13192,0.880165,,,,,0,8,8,71,1,,,,,,,,,,,,,,,,,,,,,,,,,,,,,,,,,,,,,,,,,,,,,,,,,,,,,,,,
,,,,,,,,,,,,a,Correct!,,,,,,t1.png,t1.png,0,0.97829,19,Male,2020-09-28_11h51.21.022,torte-2b,2020.1.3,Win32,60,13192,0.8482,,,,,0,9,9,67,1,,,,,,,,,,,,,,,,,,,,,,,,,,,,,,,,,,,,,,,,,,,,,,,,,,,,,,,,
,,,,,,,,,,,,a,Correct!,,,,,,t1.png,t2.png,1,0.90025,19,Male,2020-09-28_11h51.21.022,torte-2b,2020.1.3,Win32,60,13192,1.50262,,,,,0,10,10,33,1,,,,,,,,,,,,,,,,,,,,,,,,,,,,,,,,,,,,,,,,,,,,,,,,,,,,,,,,
,,,,,,,,,,,,l,Correct!,,,,,,t5.png,t1.png,4,9.55E-11,19,Male,2020-09-28_11h51.21.022,torte-2b,2020.1.3,Win32,60,13192,0.938235,,,,,0,11,11,22,1,,,,,,,,,,,,,,,,,,,,,,,,,,,,,,,,,,,,,,,,,,,,,,,,,,,,,,,,
,,,,,,,,,,,,a,Correct!,,,,,,t1.png,t2.png,1,0.90025,19,Male,2020-09-28_11h51.21.022,torte-2b,2020.1.3,Win32,60,13192,1.317505,,,,,0,12,12,105,1,,,,,,,,,,,,,,,,,,,,,,,,,,,,,,,,,,,,,,,,,,,,,,,,,,,,,,,,
,,,,,,,,,,,,l,Correct!,,,,,,t4.png,t2.png,2,0.059078,19,Male,2020-09-28_11h51.21.022,torte-2b,2020.1.3,Win32,60,13192,1.15079,,,,,0,13,13,88,1,,,,,,,,,,,,,,,,,,,,,,,,,,,,,,,,,,,,,,,,,,,,,,,,,,,,,,,,
,,,,,,,,,,,,a,Correct!,,,,,,t4.png,t5.png,1,0.90025,19,Male,2020-09-28_11h51.21.022,torte-2b,2020.1.3,Win32,60,13192,1.214595,,,,,0,14,14,103,1,,,,,,,,,,,,,,,,,,,,,,,,,,,,,,,,,,,,,,,,,,,,,,,,,,,,,,,,
,,,,,,,,,,,,l,Incorrect,,,,,,t2.png,t2.png,0,0.98115,19,Male,2020-09-28_11h51.21.022,torte-2b,2020.1.3,Win32,60,13192,1.26809,,,,,0,15,15,2,1,,,,,,,,,,,,,,,,,,,,,,,,,,,,,,,,,,,,,,,,,,,,,,,,,,,,,,,,
,,,,,,,,,,,,a,Correct!,,,,,,t3.png,t2.png,1,0.90855,19,Male,2020-09-28_11h51.21.022,torte-2b,2020.1.3,Win32,60,13192,0.97587,,,,,0,16,16,18,1,,,,,,,,,,,,,,,,,,,,,,,,,,,,,,,,,,,,,,,,,,,,,,,,,,,,,,,,
,,,,,,,,,,,,a,Correct!,,,,,,t5.png,t5.png,0,0.97829,19,Male,2020-09-28_11h51.21.022,torte-2b,2020.1.3,Win32,60,13192,2.181965,,,,,0,17,17,94,1,,,,,,,,,,,,,,,,,,,,,,,,,,,,,,,,,,,,,,,,,,,,,,,,,,,,,,,,
,,,,,,,,,,,,a,Correct!,,,,,,t3.png,t4.png,1,0.909,19,Male,2020-09-28_11h51.21.022,torte-2b,2020.1.3,Win32,60,13192,1.84744,,,,,0,18,18,89,1,,,,,,,,,,,,,,,,,,,,,,,,,,,,,,,,,,,,,,,,,,,,,,,,,,,,,,,,
,,,,,,,,,,,,a,Incorrect,,,,,,t1.png,t4.png,3,0.0000131,19,Male,2020-09-28_11h51.21.022,torte-2b,2020.1.3,Win32,60,13192,1.39613,,,,,0,19,19,92,1,,,,,,,,,,,,,,,,,,,,,,,,,,,,,,,,,,,,,,,,,,,,,,,,,,,,,,,,
,,,,,,,,,,,,a,Correct!,,,,,,t2.png,t3.png,1,0.90855,19,Male,2020-09-28_11h51.21.022,torte-2b,2020.1.3,Win32,60,13192,1.071685,,,,,0,20,20,111,1,,,,,,,,,,,,,,,,,,,,,,,,,,,,,,,,,,,,,,,,,,,,,,,,,,,,,,,,
,,,,,,,,,,,,a,Incorrect,,,,,,t2.png,t1.png,1,0.90025,19,Male,2020-09-28_11h51.21.022,torte-2b,2020.1.3,Win32,60,13192,1.013335,,,,,0,21,21,5,1,,,,,,,,,,,,,,,,,,,,,,,,,,,,,,,,,,,,,,,,,,,,,,,,,,,,,,,,
,,,,,,,,,,,,l,Correct!,,,,,,t4.png,t2.png,2,0.059078,19,Male,2020-09-28_11h51.21.022,torte-2b,2020.1.3,Win32,60,13192,1.063865,,,,,0,22,22,86,1,,,,,,,,,,,,,,,,,,,,,,,,,,,,,,,,,,,,,,,,,,,,,,,,,,,,,,,,
,,,,,,,,,,,,a,Correct!,,,,,,t2.png,t1.png,1,0.90025,19,Male,2020-09-28_11h51.21.022,torte-2b,2020.1.3,Win32,60,13192,1.11364,,,,,0,23,23,19,1,,,,,,,,,,,,,,,,,,,,,,,,,,,,,,,,,,,,,,,,,,,,,,,,,,,,,,,,
,,,,,,,,,,,,a,Correct!,,,,,,t3.png,t4.png,1,0.90855,19,Male,2020-09-28_11h51.21.022,torte-2b,2020.1.3,Win32,60,13192,1.51657,,,,,0,24,24,96,1,,,,,,,,,,,,,,,,,,,,,,,,,,,,,,,,,,,,,,,,,,,,,,,,,,,,,,,,
,,,,,,,,,,,,a,Incorrect,,,,,,t2.png,t3.png,1,0.90855,19,Male,2020-09-28_11h51.21.022,torte-2b,2020.1.3,Win32,60,13192,1.304505,,,,,0,25,25,10,1,,,,,,,,,,,,,,,,,,,,,,,,,,,,,,,,,,,,,,,,,,,,,,,,,,,,,,,,
,,,,,,,,,,,,a,Correct!,,,,,,t4.png,t5.png,1,0.90025,19,Male,2020-09-28_11h51.21.022,torte-2b,2020.1.3,Win32,60,13192,2.04436,,,,,0,26,26,58,1,,,,,,,,,,,,,,,,,,,,,,,,,,,,,,,,,,,,,,,,,,,,,,,,,,,,,,,,
,,,,,,,,,,,,l,Correct!,,,,,,t2.png,t4.png,2,0.059078,19,Male,2020-09-28_11h51.21.022,torte-2b,2020.1.3,Win32,60,13192,1.13924,,,,,0,27,27,24,1,,,,,,,,,,,,,,,,,,,,,,,,,,,,,,,,,,,,,,,,,,,,,,,,,,,,,,,,
,,,,,,,,,,,,a,Correct!,,,,,,t3.png,t2.png,1,0.909,19,Male,2020-09-28_11h51.21.022,torte-2b,2020.1.3,Win32,60,13192,0.996625,,,,,0,28,28,23,1,,,,,,,,,,,,,,,,,,,,,,,,,,,,,,,,,,,,,,,,,,,,,,,,,,,,,,,,
,,,,,,,,,,,,a,Correct!,,,,,,t4.png,t5.png,1,0.90025,19,Male,2020-09-28_11h51.21.022,torte-2b,2020.1.3,Win32,60,13192,2.01229,,,,,0,29,29,113,1,,,,,,,,,,,,,,,,,,,,,,,,,,,,,,,,,,,,,,,,,,,,,,,,,,,,,,,,
,,,,,,,,,,,,a,Correct!,,,,,,t3.png,t2.png,1,0.90855,19,Male,2020-09-28_11h51.21.022,torte-2b,2020.1.3,Win32,60,13192,1.23527,,,,,0,30,30,97,1,,,,,,,,,,,,,,,,,,,,,,,,,,,,,,,,,,,,,,,,,,,,,,,,,,,,,,,,
,,,,,,,,,,,,a,Incorrect,,,,,,t4.png,t1.png,3,0.0000131,19,Male,2020-09-28_11h51.21.022,torte-2b,2020.1.3,Win32,60,13192,1.619255,,,,,0,31,31,13,1,,,,,,,,,,,,,,,,,,,,,,,,,,,,,,,,,,,,,,,,,,,,,,,,,,,,,,,,
,,,,,,,,,,,,a,Correct!,,,,,,t2.png,t1.png,1,0.90025,19,Male,2020-09-28_11h51.21.022,torte-2b,2020.1.3,Win32,60,13192,0.99731,,,,,0,32,32,62,1,,,,,,,,,,,,,,,,,,,,,,,,,,,,,,,,,,,,,,,,,,,,,,,,,,,,,,,,
,,,,,,,,,,,,a,Correct!,,,,,,t1.png,t1.png,0,0.97829,19,Male,2020-09-28_11h51.21.022,torte-2b,2020.1.3,Win32,60,13192,1.10425,,,,,0,33,33,78,1,,,,,,,,,,,,,,,,,,,,,,,,,,,,,,,,,,,,,,,,,,,,,,,,,,,,,,,,
,,,,,,,,,,,,a,Incorrect,,,,,,t1.png,t2.png,1,0.9,19,Male,2020-09-28_11h51.21.022,torte-2b,2020.1.3,Win32,60,13192,1.097265,,,,,0,34,34,1,1,,,,,,,,,,,,,,,,,,,,,,,,,,,,,,,,,,,,,,,,,,,,,,,,,,,,,,,,
,,,,,,,,,,,,a,Incorrect,,,,,,t5.png,t3.png,2,0.056466,19,Male,2020-09-28_11h51.21.022,torte-2b,2020.1.3,Win32,60,13192,1.213305,,,,,0,35,35,108,1,,,,,,,,,,,,,,,,,,,,,,,,,,,,,,,,,,,,,,,,,,,,,,,,,,,,,,,,
,,,,,,,,,,,,l,Correct!,,,,,,t2.png,t4.png,2,0.0591,19,Male,2020-09-28_11h51.21.022,torte-2b,2020.1.3,Win32,60,13192,1.267985,,,,,0,36,36,15,1,,,,,,,,,,,,,,,,,,,,,,,,,,,,,,,,,,,,,,,,,,,,,,,,,,,,,,,,
,,,,,,,,,,,,l,Correct!,,,,,,t1.png,t5.png,4,9.55E-11,19,Male,2020-09-28_11h51.21.022,torte-2b,2020.1.3,Win32,60,13192,0.897685,,,,,0,37,37,16,1,,,,,,,,,,,,,,,,,,,,,,,,,,,,,,,,,,,,,,,,,,,,,,,,,,,,,,,,
,,,,,,,,,,,,a,Correct!,,,,,,t2.png,t1.png,1,0.90025,19,Male,2020-09-28_11h51.21.022,torte-2b,2020.1.3,Win32,60,13192,0.96844,,,,,0,38,38,4,1,,,,,,,,,,,,,,,,,,,,,,,,,,,,,,,,,,,,,,,,,,,,,,,,,,,,,,,,
,,,,,,,,,,,,l,Correct!,,,,,,t5.png,t1.png,4,9.55E-11,19,Male,2020-09-28_11h51.21.022,torte-2b,2020.1.3,Win32,60,13192,0.86433,,,,,0,39,39,102,1,,,,,,,,,,,,,,,,,,,,,,,,,,,,,,,,,,,,,,,,,,,,,,,,,,,,,,,,
,,,,,,,,,,,,l,Correct!,,,,,,t1.png,t5.png,4,9.55E-11,19,Male,2020-09-28_11h51.21.022,torte-2b,2020.1.3,Win32,60,13192,0.822175,,,,,0,40,40,85,1,,,,,,,,,,,,,,,,,,,,,,,,,,,,,,,,,,,,,,,,,,,,,,,,,,,,,,,,
,,,,,,,,,,,,a,Correct!,,,,,,t4.png,t3.png,1,0.90855,19,Male,2020-09-28_11h51.21.022,torte-2b,2020.1.3,Win32,60,13192,2.311505,,,,,0,41,41,75,1,,,,,,,,,,,,,,,,,,,,,,,,,,,,,,,,,,,,,,,,,,,,,,,,,,,,,,,,
,,,,,,,,,,,,l,Correct!,,,,,,t3.png,t1.png,2,0.056466,19,Male,2020-09-28_11h51.21.022,torte-2b,2020.1.3,Win32,60,13192,0.85188,,,,,0,42,42,29,1,,,,,,,,,,,,,,,,,,,,,,,,,,,,,,,,,,,,,,,,,,,,,,,,,,,,,,,,
,,,,,,,,,,,,a,Incorrect,,,,,,t5.png,t2.png,3,0.0000131,19,Male,2020-09-28_11h51.21.022,torte-2b,2020.1.3,Win32,60,13192,1.65453,,,,,0,43,43,98,1,,,,,,,,,,,,,,,,,,,,,,,,,,,,,,,,,,,,,,,,,,,,,,,,,,,,,,,,
,,,,,,,,,,,,l,Correct!,,,,,,t4.png,t2.png,2,0.0591,19,Male,2020-09-28_11h51.21.022,torte-2b,2020.1.3,Win32,60,13192,0.984505,,,,,0,44,44,36,1,,,,,,,,,,,,,,,,,,,,,,,,,,,,,,,,,,,,,,,,,,,,,,,,,,,,,,,,
,,,,,,,,,,,,a,Incorrect,,,,,,t2.png,t5.png,3,0.0000131,19,Male,2020-09-28_11h51.21.022,torte-2b,2020.1.3,Win32,60,13192,1.371415,,,,,0,45,45,8,1,,,,,,,,,,,,,,,,,,,,,,,,,,,,,,,,,,,,,,,,,,,,,,,,,,,,,,,,
,,,,,,,,,,,,l,Incorrect,,,,,,t4.png,t4.png,0,0.98115,19,Male,2020-09-28_11h51.21.022,torte-2b,2020.1.3,Win32,60,13192,2.36156,,,,,0,46,46,90,1,,,,,,,,,,,,,,,,,,,,,,,,,,,,,,,,,,,,,,,,,,,,,,,,,,,,,,,,
,,,,,,,,,,,,l,Incorrect,,,,,,t2.png,t2.png,0,0.98115,19,Male,2020-09-28_11h51.21.022,torte-2b,2020.1.3,Win32,60,13192,1.103985,,,,,0,47,47,59,1,,,,,,,,,,,,,,,,,,,,,,,,,,,,,,,,,,,,,,,,,,,,,,,,,,,,,,,,
,,,,,,,,,,,,a,Incorrect,,,,,,t4.png,t1.png,3,0.0000131,19,Male,2020-09-28_11h51.21.022,torte-2b,2020.1.3,Win32,60,13192,0.955465,,,,,0,48,48,48,1,,,,,,,,,,,,,,,,,,,,,,,,,,,,,,,,,,,,,,,,,,,,,,,,,,,,,,,,
,,,,,,,,,,,,a,Incorrect,,,,,,t1.png,t3.png,2,0.056466,19,Male,2020-09-28_11h51.21.022,torte-2b,2020.1.3,Win32,60,13192,1.014925,,,,,0,49,49,99,1,,,,,,,,,,,,,,,,,,,,,,,,,,,,,,,,,,,,,,,,,,,,,,,,,,,,,,,,
,,,,,,,,,,,,a,Correct!,,,,,,t2.png,t3.png,1,0.90855,19,Male,2020-09-28_11h51.21.022,torte-2b,2020.1.3,Win32,60,13192,1.2947,,,,,0,50,50,68,1,,,,,,,,,,,,,,,,,,,,,,,,,,,,,,,,,,,,,,,,,,,,,,,,,,,,,,,,
,,,,,,,,,,,,l,Incorrect,,,,,,t4.png,t4.png,0,0.98115,19,Male,2020-09-28_11h51.21.022,torte-2b,2020.1.3,Win32,60,13192,1.367305,,,,,0,51,51,79,1,,,,,,,,,,,,,,,,,,,,,,,,,,,,,,,,,,,,,,,,,,,,,,,,,,,,,,,,
,,,,,,,,,,,,l,Correct!,,,,,,t1.png,t3.png,2,0.056466,19,Male,2020-09-28_11h51.21.022,torte-2b,2020.1.3,Win32,60,13192,1.40367,,,,,0,52,52,69,1,,,,,,,,,,,,,,,,,,,,,,,,,,,,,,,,,,,,,,,,,,,,,,,,,,,,,,,,
,,,,,,,,,,,,l,Incorrect,,,,,,t2.png,t2.png,0,0.98115,19,Male,2020-09-28_11h51.21.022,torte-2b,2020.1.3,Win32,60,13192,1.41272,,,,,0,53,53,57,1,,,,,,,,,,,,,,,,,,,,,,,,,,,,,,,,,,,,,,,,,,,,,,,,,,,,,,,,
,,,,,,,,,,,,l,Correct!,,,,,,t3.png,t1.png,2,0.056466,19,Male,2020-09-28_11h51.21.022,torte-2b,2020.1.3,Win32,60,13192,1.44602,,,,,0,54,54,32,1,,,,,,,,,,,,,,,,,,,,,,,,,,,,,,,,,,,,,,,,,,,,,,,,,,,,,,,,
,,,,,,,,,,,,l,Correct!,,,,,,t4.png,t2.png,2,0.059078,19,Male,2020-09-28_11h51.21.022,torte-2b,2020.1.3,Win32,60,13192,1.41401,,,,,0,55,55,109,1,,,,,,,,,,,,,,,,,,,,,,,,,,,,,,,,,,,,,,,,,,,,,,,,,,,,,,,,
,,,,,,,,,,,,a,Incorrect,,,,,,t1.png,t4.png,3,0.0000131,19,Male,2020-09-28_11h51.21.022,torte-2b,2020.1.3,Win32,60,13192,1.479655,,,,,0,56,56,50,1,,,,,,,,,,,,,,,,,,,,,,,,,,,,,,,,,,,,,,,,,,,,,,,,,,,,,,,,
,,,,,,,,,,,,a,Correct!,,,,,,t5.png,t4.png,1,0.90025,19,Male,2020-09-28_11h51.21.022,torte-2b,2020.1.3,Win32,60,13192,2.28507,,,,,0,57,57,34,1,,,,,,,,,,,,,,,,,,,,,,,,,,,,,,,,,,,,,,,,,,,,,,,,,,,,,,,,
,,,,,,,,,,,,l,Correct!,,,,,,t1.png,t5.png,4,9.55E-11,19,Male,2020-09-28_11h51.21.022,torte-2b,2020.1.3,Win32,60,13192,1.197575,,,,,0,58,58,12,1,,,,,,,,,,,,,,,,,,,,,,,,,,,,,,,,,,,,,,,,,,,,,,,,,,,,,,,,
,,,,,,,,,,,,l,Correct!,,,,,,t3.png,t1.png,2,0.0565,19,Male,2020-09-28_11h51.21.022,torte-2b,2020.1.3,Win32,60,13192,0.814105,,,,,0,59,59,31,1,,,,,,,,,,,,,,,,,,,,,,,,,,,,,,,,,,,,,,,,,,,,,,,,,,,,,,,,
,,,,,,,,,,,,a,Incorrect,,,,,,t3.png,t5.png,2,0.056466,19,Male,2020-09-28_11h51.21.022,torte-2b,2020.1.3,Win32,60,13192,1.379335,,,,,0,60,60,14,1,,,,,,,,,,,,,,,,,,,,,,,,,,,,,,,,,,,,,,,,,,,,,,,,,,,,,,,,
,,,,,,,,,,,,l,Incorrect,,,,,,t5.png,t5.png,0,0.97829,19,Male,2020-09-28_11h51.21.022,torte-2b,2020.1.3,Win32,60,13192,1.7782,,,,,0,61,61,73,1,,,,,,,,,,,,,,,,,,,,,,,,,,,,,,,,,,,,,,,,,,,,,,,,,,,,,,,,
,,,,,,,,,,,,a,Incorrect,,,,,,t1.png,t2.png,1,0.90025,19,Male,2020-09-28_11h51.21.022,torte-2b,2020.1.3,Win32,60,13192,2.178455,,,,,0,62,62,112,1,,,,,,,,,,,,,,,,,,,,,,,,,,,,,,,,,,,,,,,,,,,,,,,,,,,,,,,,
,,,,,,,,,,,,a,Correct!,,,,,,t4.png,t3.png,1,0.90855,19,Male,2020-09-28_11h51.21.022,torte-2b,2020.1.3,Win32,60,13192,1.94617,,,,,0,63,63,35,1,,,,,,,,,,,,,,,,,,,,,,,,,,,,,,,,,,,,,,,,,,,,,,,,,,,,,,,,
,,,,,,,,,,,,a,Incorrect,,,,,,t3.png,t5.png,2,0.056466,19,Male,2020-09-28_11h51.21.022,torte-2b,2020.1.3,Win32,60,13192,0.52108,,,,,0,64,64,44,1,,,,,,,,,,,,,,,,,,,,,,,,,,,,,,,,,,,,,,,,,,,,,,,,,,,,,,,,
,,,,,,,,,,,,l,Correct!,,,,,,t2.png,t4.png,2,0.059078,19,Male,2020-09-28_11h51.21.022,torte-2b,2020.1.3,Win32,60,13192,1.18495,,,,,0,65,65,37,1,,,,,,,,,,,,,,,,,,,,,,,,,,,,,,,,,,,,,,,,,,,,,,,,,,,,,,,,
,,,,,,,,,,,,a,Correct!,,,,,,t3.png,t2.png,1,0.909,19,Male,2020-09-28_11h51.21.022,torte-2b,2020.1.3,Win32,60,13192,1.43202,,,,,0,66,66,3,1,,,,,,,,,,,,,,,,,,,,,,,,,,,,,,,,,,,,,,,,,,,,,,,,,,,,,,,,
,,,,,,,,,,,,,Too slow :(,,,,,,t4.png,t3.png,1,0.90855,19,Male,2020-09-28_11h51.21.022,torte-2b,2020.1.3,Win32,60,13192,,,,,,0,67,67,45,1,,,,,,,,,,,,,,,,,,,,,,,,,,,,,,,,,,,,,,,,,,,,,,,,,,,,,,,,
,,,,,,,,,,,,a,Correct!,,,,,,t5.png,t5.png,0,0.97829,19,Male,2020-09-28_11h51.21.022,torte-2b,2020.1.3,Win32,60,13192,2.41149,,,,,0,68,68,25,1,,,,,,,,,,,,,,,,,,,,,,,,,,,,,,,,,,,,,,,,,,,,,,,,,,,,,,,,
,,,,,,,,,,,,l,Correct!,,,,,,t5.png,t1.png,4,9.55E-11,19,Male,2020-09-28_11h51.21.022,torte-2b,2020.1.3,Win32,60,13192,1.29644,,,,,0,69,69,100,1,,,,,,,,,,,,,,,,,,,,,,,,,,,,,,,,,,,,,,,,,,,,,,,,,,,,,,,,
,,,,,,,,,,,,a,Incorrect,,,,,,t2.png,t4.png,2,0.059078,19,Male,2020-09-28_11h51.21.022,torte-2b,2020.1.3,Win32,60,13192,1.152035,,,,,0,70,70,77,1,,,,,,,,,,,,,,,,,,,,,,,,,,,,,,,,,,,,,,,,,,,,,,,,,,,,,,,,
,,,,,,,,,,,,a,Correct!,,,,,,t3.png,t5.png,2,0.0565,19,Male,2020-09-28_11h51.21.022,torte-2b,2020.1.3,Win32,60,13192,1.76402,,,,,0,71,71,83,1,,,,,,,,,,,,,,,,,,,,,,,,,,,,,,,,,,,,,,,,,,,,,,,,,,,,,,,,
,,,,,,,,,,,,a,Correct!,,,,,,t1.png,t1.png,0,0.97829,19,Male,2020-09-28_11h51.21.022,torte-2b,2020.1.3,Win32,60,13192,1.599245,,,,,0,72,72,9,1,,,,,,,,,,,,,,,,,,,,,,,,,,,,,,,,,,,,,,,,,,,,,,,,,,,,,,,,
,,,,,,,,,,,,l,Incorrect,,,,,,t2.png,t2.png,0,0.98115,19,Male,2020-09-28_11h51.21.022,torte-2b,2020.1.3,Win32,60,13192,1.33365,,,,,0,73,73,7,1,,,,,,,,,,,,,,,,,,,,,,,,,,,,,,,,,,,,,,,,,,,,,,,,,,,,,,,,
,,,,,,,,,,,,l,Correct!,,,,,,t2.png,t4.png,2,0.059078,19,Male,2020-09-28_11h51.21.022,torte-2b,2020.1.3,Win32,60,13192,1.013585,,,,,0,74,74,11,1,,,,,,,,,,,,,,,,,,,,,,,,,,,,,,,,,,,,,,,,,,,,,,,,,,,,,,,,
,,,,,,,,,,,,a,Incorrect,,,,,,t3.png,t1.png,2,0.056466,19,Male,2020-09-28_11h51.21.022,torte-2b,2020.1.3,Win32,60,13192,1.717395,,,,,0,75,75,64,1,,,,,,,,,,,,,,,,,,,,,,,,,,,,,,,,,,,,,,,,,,,,,,,,,,,,,,,,
,,,,,,,,,,,,a,Correct!,,,,,,t4.png,t4.png,0,0.98115,19,Male,2020-09-28_11h51.21.022,torte-2b,2020.1.3,Win32,60,13192,1.23174,,,,,0,76,76,80,1,,,,,,,,,,,,,,,,,,,,,,,,,,,,,,,,,,,,,,,,,,,,,,,,,,,,,,,,
,,,,,,,,,,,,a,Correct!,,,,,,t2.png,t3.png,1,0.90855,19,Male,2020-09-28_11h51.21.022,torte-2b,2020.1.3,Win32,60,13192,1.71303,,,,,0,77,77,65,1,,,,,,,,,,,,,,,,,,,,,,,,,,,,,,,,,,,,,,,,,,,,,,,,,,,,,,,,
,,,,,,,,,,,,l,Incorrect,,,,,,t4.png,t4.png,0,0.98115,19,Male,2020-09-28_11h51.21.022,torte-2b,2020.1.3,Win32,60,13192,1.006795,,,,,0,78,78,21,1,,,,,,,,,,,,,,,,,,,,,,,,,,,,,,,,,,,,,,,,,,,,,,,,,,,,,,,,
,,,,,,,,,,,,a,Incorrect,,,,,,t4.png,t1.png,3,0.0000131,19,Male,2020-09-28_11h51.21.022,torte-2b,2020.1.3,Win32,60,13192,1.63757,,,,,0,79,79,61,1,,,,,,,,,,,,,,,,,,,,,,,,,,,,,,,,,,,,,,,,,,,,,,,,,,,,,,,,
,,,,,,,,,,,,a,Correct!,,,,,,t3.png,t2.png,1,0.90855,19,Male,2020-09-28_11h51.21.022,torte-2b,2020.1.3,Win32,60,13192,1.064315,,,,,0,80,80,53,1,,,,,,,,,,,,,,,,,,,,,,,,,,,,,,,,,,,,,,,,,,,,,,,,,,,,,,,,
,,,,,,,,,,,,a,Correct!,,,,,,t5.png,t4.png,1,0.90025,19,Male,2020-09-28_11h51.21.022,torte-2b,2020.1.3,Win32,60,13192,1.4994,,,,,0,81,81,26,1,,,,,,,,,,,,,,,,,,,,,,,,,,,,,,,,,,,,,,,,,,,,,,,,,,,,,,,,
,,,,,,,,,,,,a,Incorrect,,,,,,t5.png,t3.png,2,0.056466,19,Male,2020-09-28_11h51.21.022,torte-2b,2020.1.3,Win32,60,13192,1.304615,,,,,0,82,82,56,1,,,,,,,,,,,,,,,,,,,,,,,,,,,,,,,,,,,,,,,,,,,,,,,,,,,,,,,,
,,,,,,,,,,,,a,Incorrect,,,,,,t3.png,t5.png,2,0.056466,19,Male,2020-09-28_11h51.21.022,torte-2b,2020.1.3,Win32,60,13192,1.28701,,,,,0,83,83,6,1,,,,,,,,,,,,,,,,,,,,,,,,,,,,,,,,,,,,,,,,,,,,,,,,,,,,,,,,
,,,,,,,,,,,,a,Incorrect,,,,,,t1.png,t4.png,3,0.0000131,19,Male,2020-09-28_11h51.21.022,torte-2b,2020.1.3,Win32,60,13192,1.193715,,,,,0,84,84,17,1,,,,,,,,,,,,,,,,,,,,,,,,,,,,,,,,,,,,,,,,,,,,,,,,,,,,,,,,
,,,,,,,,,,,,a,Incorrect,,,,,,t5.png,t2.png,3,0.0000131,19,Male,2020-09-28_11h51.21.022,torte-2b,2020.1.3,Win32,60,13192,1.02517,,,,,0,85,85,51,1,,,,,,,,,,,,,,,,,,,,,,,,,,,,,,,,,,,,,,,,,,,,,,,,,,,,,,,,
,,,,,,,,,,,,a,Correct!,,,,,,t5.png,t4.png,1,0.9,19,Male,2020-09-28_11h51.21.022,torte-2b,2020.1.3,Win32,60,13192,2.049475,,,,,0,86,86,49,1,,,,,,,,,,,,,,,,,,,,,,,,,,,,,,,,,,,,,,,,,,,,,,,,,,,,,,,,
,,,,,,,,,,,,a,Correct!,,,,,,t4.png,t5.png,1,0.9,19,Male,2020-09-28_11h51.21.022,torte-2b,2020.1.3,Win32,60,13192,1.752055,,,,,0,87,87,115,1,,,,,,,,,,,,,,,,,,,,,,,,,,,,,,,,,,,,,,,,,,,,,,,,,,,,,,,,
,,,,,,,,,,,,a,Incorrect,,,,,,t1.png,t2.png,1,0.90025,19,Male,2020-09-28_11h51.21.022,torte-2b,2020.1.3,Win32,60,13192,1.01415,,,,,0,88,88,72,1,,,,,,,,,,,,,,,,,,,,,,,,,,,,,,,,,,,,,,,,,,,,,,,,,,,,,,,,
,,,,,,,,,,,,a,Incorrect,,,,,,t1.png,t4.png,3,0.0000131,19,Male,2020-09-28_11h51.21.022,torte-2b,2020.1.3,Win32,60,13192,1.413275,,,,,0,89,89,81,1,,,,,,,,,,,,,,,,,,,,,,,,,,,,,,,,,,,,,,,,,,,,,,,,,,,,,,,,
,,,,,,,,,,,,a,Incorrect,,,,,,t2.png,t5.png,3,0.0000131,19,Male,2020-09-28_11h51.21.022,torte-2b,2020.1.3,Win32,60,13192,1.35931,,,,,0,90,90,104,1,,,,,,,,,,,,,,,,,,,,,,,,,,,,,,,,,,,,,,,,,,,,,,,,,,,,,,,,
,,,,,,,,,,,,a,Incorrect,,,,,,t5.png,t3.png,2,0.056466,19,Male,2020-09-28_11h51.21.022,torte-2b,2020.1.3,Win32,60,13192,1.128765,,,,,0,91,91,38,1,,,,,,,,,,,,,,,,,,,,,,,,,,,,,,,,,,,,,,,,,,,,,,,,,,,,,,,,
,,,,,,,,,,,,l,Correct!,,,,,,t1.png,t3.png,2,0.056466,19,Male,2020-09-28_11h51.21.022,torte-2b,2020.1.3,Win32,60,13192,0.924425,,,,,0,92,92,63,1,,,,,,,,,,,,,,,,,,,,,,,,,,,,,,,,,,,,,,,,,,,,,,,,,,,,,,,,
,,,,,,,,,,,,a,Incorrect,,,,,,t1.png,t5.png,4,9.55E-11,19,Male,2020-09-28_11h51.21.022,torte-2b,2020.1.3,Win32,60,13192,0.914935,,,,,0,93,93,41,1,,,,,,,,,,,,,,,,,,,,,,,,,,,,,,,,,,,,,,,,,,,,,,,,,,,,,,,,
,,,,,,,,,,,,a,Correct!,,,,,,t3.png,t4.png,1,0.909,19,Male,2020-09-28_11h51.21.022,torte-2b,2020.1.3,Win32,60,13192,1.264085,,,,,0,94,94,82,1,,,,,,,,,,,,,,,,,,,,,,,,,,,,,,,,,,,,,,,,,,,,,,,,,,,,,,,,
,,,,,,,,,,,,a,Correct!,,,,,,t5.png,t4.png,1,0.90025,19,Male,2020-09-28_11h51.21.022,torte-2b,2020.1.3,Win32,60,13192,1.164305,,,,,0,95,95,27,1,,,,,,,,,,,,,,,,,,,,,,,,,,,,,,,,,,,,,,,,,,,,,,,,,,,,,,,,
,,,,,,,,,,,,a,Correct!,,,,,,t5.png,t4.png,1,0.9,19,Male,2020-09-28_11h51.21.022,torte-2b,2020.1.3,Win32,60,13192,0.99771,,,,,0,96,96,76,1,,,,,,,,,,,,,,,,,,,,,,,,,,,,,,,,,,,,,,,,,,,,,,,,,,,,,,,,
,,,,,,,,,,,,l,Correct!,,,,,,t5.png,t2.png,3,0.0000131,19,Male,2020-09-28_11h51.21.022,torte-2b,2020.1.3,Win32,60,13192,1.95075,,,,,0,97,97,119,1,,,,,,,,,,,,,,,,,,,,,,,,,,,,,,,,,,,,,,,,,,,,,,,,,,,,,,,,
,,,,,,,,,,,,a,Incorrect,,,,,,t1.png,t4.png,3,0.0000131,19,Male,2020-09-28_11h51.21.022,torte-2b,2020.1.3,Win32,60,13192,1.71651,,,,,0,98,98,107,1,,,,,,,,,,,,,,,,,,,,,,,,,,,,,,,,,,,,,,,,,,,,,,,,,,,,,,,,
,,,,,,,,,,,,l,Correct!,,,,,,t1.png,t3.png,2,0.056466,19,Male,2020-09-28_11h51.21.022,torte-2b,2020.1.3,Win32,60,13192,1.495675,,,,,0,99,99,87,1,,,,,,,,,,,,,,,,,,,,,,,,,,,,,,,,,,,,,,,,,,,,,,,,,,,,,,,,
,,,,,,,,,,,,a,Correct!,,,,,,t3.png,t4.png,1,0.909,19,Male,2020-09-28_11h51.21.022,torte-2b,2020.1.3,Win32,60,13192,1.2896,,,,,0,100,100,106,1,,,,,,,,,,,,,,,,,,,,,,,,,,,,,,,,,,,,,,,,,,,,,,,,,,,,,,,,
,,,,,,,,,,,,l,Correct!,,,,,,t2.png,t2.png,0,0.981,19,Male,2020-09-28_11h51.21.022,torte-2b,2020.1.3,Win32,60,13192,1.015645,,,,,0,101,101,101,1,,,,,,,,,,,,,,,,,,,,,,,,,,,,,,,,,,,,,,,,,,,,,,,,,,,,,,,,
,,,,,,,,,,,,l,Correct!,,,,,,t5.png,t1.png,4,9.55E-11,19,Male,2020-09-28_11h51.21.022,torte-2b,2020.1.3,Win32,60,13192,1.135605,,,,,0,102,102,43,1,,,,,,,,,,,,,,,,,,,,,,,,,,,,,,,,,,,,,,,,,,,,,,,,,,,,,,,,
,,,,,,,,,,,,a,Incorrect,,,,,,t5.png,t2.png,3,0.0000131,19,Male,2020-09-28_11h51.21.022,torte-2b,2020.1.3,Win32,60,13192,1.212795,,,,,0,103,103,91,1,,,,,,,,,,,,,,,,,,,,,,,,,,,,,,,,,,,,,,,,,,,,,,,,,,,,,,,,
,,,,,,,,,,,,a,Correct!,,,,,,t5.png,t5.png,0,0.97829,19,Male,2020-09-28_11h51.21.022,torte-2b,2020.1.3,Win32,60,13192,1.8311,,,,,0,104,104,70,1,,,,,,,,,,,,,,,,,,,,,,,,,,,,,,,,,,,,,,,,,,,,,,,,,,,,,,,,
,,,,,,,,,,,,l,Correct!,,,,,,t4.png,t2.png,2,0.059078,19,Male,2020-09-28_11h51.21.022,torte-2b,2020.1.3,Win32,60,13192,0.947665,,,,,0,105,105,110,1,,,,,,,,,,,,,,,,,,,,,,,,,,,,,,,,,,,,,,,,,,,,,,,,,,,,,,,,
,,,,,,,,,,,,a,Correct!,,,,,,t4.png,t4.png,0,0.98115,19,Male,2020-09-28_11h51.21.022,torte-2b,2020.1.3,Win32,60,13192,0.8627,,,,,0,106,106,52,1,,,,,,,,,,,,,,,,,,,,,,,,,,,,,,,,,,,,,,,,,,,,,,,,,,,,,,,,
,,,,,,,,,,,,l,Correct!,,,,,,t5.png,t2.png,3,0.0000131,19,Male,2020-09-28_11h51.21.022,torte-2b,2020.1.3,Win32,60,13192,1.17118,,,,,0,107,107,116,1,,,,,,,,,,,,,,,,,,,,,,,,,,,,,,,,,,,,,,,,,,,,,,,,,,,,,,,,
,,,,,,,,,,,,a,Incorrect,,,,,,t2.png,t5.png,3,0.0000131,19,Male,2020-09-28_11h51.21.022,torte-2b,2020.1.3,Win32,60,13192,1.30211,,,,,0,108,108,66,1,,,,,,,,,,,,,,,,,,,,,,,,,,,,,,,,,,,,,,,,,,,,,,,,,,,,,,,,
,,,,,,,,,,,,a,Incorrect,,,,,,t4.png,t1.png,3,0.0000131,19,Male,2020-09-28_11h51.21.022,torte-2b,2020.1.3,Win32,60,13192,1.59612,,,,,0,109,109,93,1,,,,,,,,,,,,,,,,,,,,,,,,,,,,,,,,,,,,,,,,,,,,,,,,,,,,,,,,
,,,,,,,,,,,,a,Correct!,,,,,,t2.png,t3.png,1,0.909,19,Male,2020-09-28_11h51.21.022,torte-2b,2020.1.3,Win32,60,13192,1.9029,,,,,0,110,110,74,1,,,,,,,,,,,,,,,,,,,,,,,,,,,,,,,,,,,,,,,,,,,,,,,,,,,,,,,,
,,,,,,,,,,,,a,Correct!,,,,,,t4.png,t3.png,1,0.909,19,Male,2020-09-28_11h51.21.022,torte-2b,2020.1.3,Win32,60,13192,1.105625,,,,,0,111,111,20,1,,,,,,,,,,,,,,,,,,,,,,,,,,,,,,,,,,,,,,,,,,,,,,,,,,,,,,,,
,,,,,,,,,,,,a,Incorrect,,,,,,t5.png,t3.png,2,0.0565,19,Male,2020-09-28_11h51.21.022,torte-2b,2020.1.3,Win32,60,13192,1.23147,,,,,0,112,112,39,1,,,,,,,,,,,,,,,,,,,,,,,,,,,,,,,,,,,,,,,,,,,,,,,,,,,,,,,,
,,,,,,,,,,,,a,Correct!,,,,,,t5.png,t5.png,0,0.978,19,Male,2020-09-28_11h51.21.022,torte-2b,2020.1.3,Win32,60,13192,1.24566,,,,,0,113,113,117,1,,,,,,,,,,,,,,,,,,,,,,,,,,,,,,,,,,,,,,,,,,,,,,,,,,,,,,,,
,,,,,,,,,,,,l,Incorrect,,,,,,t1.png,t1.png,0,0.978,19,Male,2020-09-28_11h51.21.022,torte-2b,2020.1.3,Win32,60,13192,1.373785,,,,,0,114,114,28,1,,,,,,,,,,,,,,,,,,,,,,,,,,,,,,,,,,,,,,,,,,,,,,,,,,,,,,,,
,,,,,,,,,,,,l,Correct!,,,,,,t1.png,t5.png,4,9.55E-11,19,Male,2020-09-28_11h51.21.022,torte-2b,2020.1.3,Win32,60,13192,1.155415,,,,,0,115,115,55,1,,,,,,,,,,,,,,,,,,,,,,,,,,,,,,,,,,,,,,,,,,,,,,,,,,,,,,,,
,,,,,,,,,,,,a,Incorrect,,,,,,t4.png,t1.png,3,0.0000131,19,Male,2020-09-28_11h51.21.022,torte-2b,2020.1.3,Win32,60,13192,2.41151,,,,,0,116,116,42,1,,,,,,,,,,,,,,,,,,,,,,,,,,,,,,,,,,,,,,,,,,,,,,,,,,,,,,,,
,,,,,,,,,,,,a,Correct!,,,,,,t4.png,t3.png,1,0.909,19,Male,2020-09-28_11h51.21.022,torte-2b,2020.1.3,Win32,60,13192,1.2509,,,,,0,117,117,46,1,,,,,,,,,,,,,,,,,,,,,,,,,,,,,,,,,,,,,,,,,,,,,,,,,,,,,,,,
,,,,,,,,,,,,a,Incorrect,,,,,,t2.png,t5.png,3,0.0000131,19,Male,2020-09-28_11h51.21.022,torte-2b,2020.1.3,Win32,60,13192,1.1806,,,,,0,118,118,40,1,,,,,,,,,,,,,,,,,,,,,,,,,,,,,,,,,,,,,,,,,,,,,,,,,,,,,,,,
,,,,,,,,,,,,a,Incorrect,,,,,,t3.png,t5.png,2,0.0565,19,Male,2020-09-28_11h51.21.022,torte-2b,2020.1.3,Win32,60,13192,1.30321,,,,,0,119,119,30,1,,,,,,,,,,,,,,,,,,,,,,,,,,,,,,,,,,,,,,,,,,,,,,,,,,,,,,,,
,,,,,,,,,,,,,,,,,,,,,,,19,Male,2020-09-28_11h51.21.022,torte-2b,2020.1.3,Win32,60,13192,,space,6.706875,,,,,,,,space,275.345655,,0,0,0,0,1,6,,,,,,,,,,,,,,,,,,,,,,,,,,,,,,,,,,,,,,,,,,,,,,,
,,,,,,,,,,,,,,,,,,,,,,,19,Male,2020-09-28_11h51.21.022,torte-2b,2020.1.3,Win32,60,13192,,,,,,,,,,,,,,0,1,1,1,1,7,,,,,,,,,,,,,,,,,,,,,,,,,,,,,,,,,,,,,,,,,,,,,,,
,,,,,,,,,,,,,,,,,,,,,,,19,Male,2020-09-28_11h51.21.022,torte-2b,2020.1.3,Win32,60,13192,,,,,,,,,,,,,,0,2,2,2,1,6,,,,,,,,,,,,,,,,,,,,,,,,,,,,,,,,,,,,,,,,,,,,,,,
,,,,,,,,,,,,,,,,,,,,,,,19,Male,2020-09-28_11h51.21.022,torte-2b,2020.1.3,Win32,60,13192,,,,,,,,,,,,,,0,3,3,3,1,7,,,,,,,,,,,,,,,,,,,,,,,,,,,,,,,,,,,,,,,,,,,,,,,
,,,,,,,,,,,,,,,,,,,,,,,19,Male,2020-09-28_11h51.21.022,torte-2b,2020.1.3,Win32,60,13192,,,,,,,,,,,,,,0,4,4,4,1,5,,,,,,,,,,,,,,,,,,,,,,,,,,,,,,,,,,,,,,,,,,,,,,,
,,,,,,,,,,,,,,,,,,,,,,,19,Male,2020-09-28_11h51.21.022,torte-2b,2020.1.3,Win32,60,13192,,,,,,,,,,,,,,0,5,5,5,1,7,,,,,,,,,,,,,,,,,,,,,,,,,,,,,,,,,,,,,,,,,,,,,,,
,,,,,,,,,,,,,,,,,,,,,,,19,Male,2020-09-28_11h51.21.022,torte-2b,2020.1.3,Win32,60,13192,,,,,,,,,,,,,,0,6,6,6,1,2,,,,,,,,,,,,,,,,,,,,,,,,,,,,,,,,,,,,,,,,,,,,,,,
,,,,,,,,,,,,,,,,,,,,,,,19,Male,2020-09-28_11h51.21.022,torte-2b,2020.1.3,Win32,60,13192,,,,,,,,,,,,,,0,7,7,7,1,4,,,,,,,,,,,,,,,,,,,,,,,,,,,,,,,,,,,,,,,,,,,,,,,
,,,,,,,,,,,,,,,,,,,,,,,19,Male,2020-09-28_11h51.21.022,torte-2b,2020.1.3,Win32,60,13192,,,,,,,,,,,,,space,0,8,8,8,1,7,0.604585,,,,,,,,,,,,,,,,,,,,,,,,,,,,,,,,,,,,,,,,,,,,,,
,,,,,,,,,,,,,,,,,,,,,,,19,Male,2020-09-28_11h51.21.022,torte-2b,2020.1.3,Win32,60,13192,,,,,,,,,,,,,space,0,9,9,9,1,4,1.06675,,,,,,,,,,,,,,,,,,,,,,,,,,,,,,,,,,,,,,,,,,,,,,
,,,,,,,,,,,,,,,,,,,,,,,19,Male,2020-09-28_11h51.21.022,torte-2b,2020.1.3,Win32,60,13192,,,,,,,,,,,,,space,0,10,10,10,1,7,0.751305,,,,,,,,,,,,,,,,,,,,,,,,,,,,,,,,,,,,,,,,,,,,,,
,,,,,,,,,,,,,,,,,,,,,,,19,Male,2020-09-28_11h51.21.022,torte-2b,2020.1.3,Win32,60,13192,,,,,,,,,,,,,,0,11,11,11,1,7,,,,,,,,,,,,,,,,,,,,,,,,,,,,,,,,,,,,,,,,,,,,,,,
,,,,,,,,,,,,,,,,,,,,,,,19,Male,2020-09-28_11h51.21.022,torte-2b,2020.1.3,Win32,60,13192,,,,,,,,,,,,,,0,12,12,12,1,7,,,,,,,,,,,,,,,,,,,,,,,,,,,,,,,,,,,,,,,,,,,,,,,
,,,,,,,,,,,,,,,,,,,,,,,19,Male,2020-09-28_11h51.21.022,torte-2b,2020.1.3,Win32,60,13192,,,,,,,,,,,,,space,0,13,13,13,1,4,0.56955,,,,,,,,,,,,,,,,,,,,,,,,,,,,,,,,,,,,,,,,,,,,,,
,,,,,,,,,,,,,,,,,,,,,,,19,Male,2020-09-28_11h51.21.022,torte-2b,2020.1.3,Win32,60,13192,,,,,,,,,,,,,space,0,14,14,14,1,6,1.212715,,,,,,,,,,,,,,,,,,,,,,,,,,,,,,,,,,,,,,,,,,,,,,
,,,,,,,,,,,,,,,,,,,,,,,19,Male,2020-09-28_11h51.21.022,torte-2b,2020.1.3,Win32,60,13192,,,,,,,,,,,,,,0,15,15,15,1,4,,,,,,,,,,,,,,,,,,,,,,,,,,,,,,,,,,,,,,,,,,,,,,,
,,,,,,,,,,,,,,,,,,,,,,,19,Male,2020-09-28_11h51.21.022,torte-2b,2020.1.3,Win32,60,13192,,,,,,,,,,,,,,0,16,16,16,1,6,,,,,,,,,,,,,,,,,,,,,,,,,,,,,,,,,,,,,,,,,,,,,,,
,,,,,,,,,,,,,,,,,,,,,,,19,Male,2020-09-28_11h51.21.022,torte-2b,2020.1.3,Win32,60,13192,,,,,,,,,,,,,space,0,17,17,17,1,7,0.61353,,,,,,,,,,,,,,,,,,,,,,,,,,,,,,,,,,,,,,,,,,,,,,
,,,,,,,,,,,,,,,,,,,,,,,19,Male,2020-09-28_11h51.21.022,torte-2b,2020.1.3,Win32,60,13192,,,,,,,,,,,,,,0,18,18,18,1,6,,,,,,,,,,,,,,,,,,,,,,,,,,,,,,,,,,,,,,,,,,,,,,,
,,,,,,,,,,,,,,,,,,,,,,,19,Male,2020-09-28_11h51.21.022,torte-2b,2020.1.3,Win32,60,13192,,,,,,,,,,,,,space,0,19,19,19,1,7,1.14526,,,,,,,,,,,,,,,,,,,,,,,,,,,,,,,,,,,,,,,,,,,,,,
,,,,,,,,,,,,,,,,,,,,,,,19,Male,2020-09-28_11h51.21.022,torte-2b,2020.1.3,Win32,60,13192,,,,,,,,,,,,,,0,20,20,20,1,5,,,,,,,,,,,,,,,,,,,,,,,,,,,,,,,,,,,,,,,,,,,,,,,
,,,,,,,,,,,,,,,,,,,,,,,19,Male,2020-09-28_11h51.21.022,torte-2b,2020.1.3,Win32,60,13192,,,,,,,,,,,,,,0,21,21,21,1,1,,,,,,,,,,,,,,,,,,,,,,,,,,,,,,,,,,,,,,,,,,,,,,,
,,,,,,,,,,,,,,,,,,,,,,,19,Male,2020-09-28_11h51.21.022,torte-2b,2020.1.3,Win32,60,13192,,,,,,,,,,,,,space,0,22,22,22,1,6,0.59573,,,,,,,,,,,,,,,,,,,,,,,,,,,,,,,,,,,,,,,,,,,,,,
,,,,,,,,,,,,,,,,,,,,,,,19,Male,2020-09-28_11h51.21.022,torte-2b,2020.1.3,Win32,60,13192,,,,,,,,,,,,,,0,23,23,23,1,1,,,,,,,,,,,,,,,,,,,,,,,,,,,,,,,,,,,,,,,,,,,,,,,
,,,,,,,,,,,,,,,,,,,,,,,19,Male,2020-09-28_11h51.21.022,torte-2b,2020.1.3,Win32,60,13192,,,,,,,,,,,,,,0,24,24,24,1,5,,,,,,,,,,,,,,,,,,,,,,,,,,,,,,,,,,,,,,,,,,,,,,,
,,,,,,,,,,,,,,,,,,,,,,,19,Male,2020-09-28_11h51.21.022,torte-2b,2020.1.3,Win32,60,13192,,,,,,,,,,,,,,0,25,25,25,1,6,,,,,,,,,,,,,,,,,,,,,,,,,,,,,,,,,,,,,,,,,,,,,,,
,,,,,,,,,,,,,,,,,,,,,,,19,Male,2020-09-28_11h51.21.022,torte-2b,2020.1.3,Win32,60,13192,,,,,,,,,,,,,space,0,26,26,26,1,6,0.749585,,,,,,,,,,,,,,,,,,,,,,,,,,,,,,,,,,,,,,,,,,,,,,
,,,,,,,,,,,,,,,,,,,,,,,19,Male,2020-09-28_11h51.21.022,torte-2b,2020.1.3,Win32,60,13192,,,,,,,,,,,,,,0,27,27,27,1,6,,,,,,,,,,,,,,,,,,,,,,,,,,,,,,,,,,,,,,,,,,,,,,,
,,,,,,,,,,,,,,,,,,,,,,,19,Male,2020-09-28_11h51.21.022,torte-2b,2020.1.3,Win32,60,13192,,,,,,,,,,,,,,0,28,28,28,1,5,,,,,,,,,,,,,,,,,,,,,,,,,,,,,,,,,,,,,,,,,,,,,,,
,,,,,,,,,,,,,,,,,,,,,,,19,Male,2020-09-28_11h51.21.022,torte-2b,2020.1.3,Win32,60,13192,,,,,,,,,,,,,,0,29,29,29,1,2,,,,,,,,,,,,,,,,,,,,,,,,,,,,,,,,,,,,,,,,,,,,,,,
,,,,,,,,,,,,,,,,,,,,,,,19,Male,2020-09-28_11h51.21.022,torte-2b,2020.1.3,Win32,60,13192,,,,,,,,,,,,,,0,30,30,30,1,5,,,,,,,,,,,,,,,,,,,,,,,,,,,,,,,,,,,,,,,,,,,,,,,
,,,,,,,,,,,,,,,,,,,,,,,19,Male,2020-09-28_11h51.21.022,torte-2b,2020.1.3,Win32,60,13192,,,,,,,,,,,,,,0,31,31,31,1,2,,,,,,,,,,,,,,,,,,,,,,,,,,,,,,,,,,,,,,,,,,,,,,,
,,,,,,,,,,,,,,,,,,,,,,,19,Male,2020-09-28_11h51.21.022,torte-2b,2020.1.3,Win32,60,13192,,,,,,,,,,,,,space,0,32,32,32,1,5,0.582795,,,,,,,,,,,,,,,,,,,,,,,,,,,,,,,,,,,,,,,,,,,,,,
,,,,,,,,,,,,,,,,,,,,,,,19,Male,2020-09-28_11h51.21.022,torte-2b,2020.1.3,Win32,60,13192,,,,,,,,,,,,,space,0,33,33,33,1,1,0.78055,,,,,,,,,,,,,,,,,,,,,,,,,,,,,,,,,,,,,,,,,,,,,,
,,,,,,,,,,,,,,,,,,,,,,,19,Male,2020-09-28_11h51.21.022,torte-2b,2020.1.3,Win32,60,13192,,,,,,,,,,,,,,0,34,34,34,1,1,,,,,,,,,,,,,,,,,,,,,,,,,,,,,,,,,,,,,,,,,,,,,,,
,,,,,,,,,,,,,,,,,,,,,,,19,Male,2020-09-28_11h51.21.022,torte-2b,2020.1.3,Win32,60,13192,,,,,,,,,,,,,,,,,,,2,,0,0,0,0,1,,,,,,,,,,,,,,,,,,,,,,,,,,,,,,,,,,,,,,,,,
,,,,,,,,,,,,,,,,,,,,,,,19,Male,2020-09-28_11h51.21.022,torte-2b,2020.1.3,Win32,60,13192,,,,,,,,,,,,,,,,,,,2,,0,1,1,1,1,,,,,,,,,,,,,,,,,,,,,,,,,,,,,,,,,,,,,,,,,
,,,,,,,,,,,,,,,,,,,,,,,19,Male,2020-09-28_11h51.21.022,torte-2b,2020.1.3,Win32,60,13192,,,,,,,,,,,,,,,,,,,6,,0,2,2,2,1,,,,,,,,,,,,,,,,,,,,,,,,,,,,,,,,,,,,,,,,,
,,,,,,,,,,,,,,,,,,,,,,,19,Male,2020-09-28_11h51.21.022,torte-2b,2020.1.3,Win32,60,13192,,,,,,,,,,,,,space,,,,,,2,0.567625,0,3,3,3,1,,,,,,,,,,,,,,,,,,,,,,,,,,,,,,,,,,,,,,,,,
,,,,,,,,,,,,,,,,,,,,,,,19,Male,2020-09-28_11h51.21.022,torte-2b,2020.1.3,Win32,60,13192,,,,,,,,,,,,,,,,,,,6,,0,4,4,4,1,,,,,,,,,,,,,,,,,,,,,,,,,,,,,,,,,,,,,,,,,
,,,,,,,,,,,,,,,,,,,,,,,19,Male,2020-09-28_11h51.21.022,torte-2b,2020.1.3,Win32,60,13192,,,,,,,,,,,,,,,,,,,2,,0,5,5,5,1,,,,,,,,,,,,,,,,,,,,,,,,,,,,,,,,,,,,,,,,,
,,,,,,,,,,,,,,,,,,,,,,,19,Male,2020-09-28_11h51.21.022,torte-2b,2020.1.3,Win32,60,13192,,,,,,,,,,,,,,,,,,,7,,0,6,6,6,1,,,,,,,,,,,,,,,,,,,,,,,,,,,,,,,,,,,,,,,,,
,,,,,,,,,,,,,,,,,,,,,,,19,Male,2020-09-28_11h51.21.022,torte-2b,2020.1.3,Win32,60,13192,,,,,,,,,,,,,space,,,,,,2,0.48749,0,7,7,7,1,,,,,,,,,,,,,,,,,,,,,,,,,,,,,,,,,,,,,,,,,
,,,,,,,,,,,,,,,,,,,,,,,19,Male,2020-09-28_11h51.21.022,torte-2b,2020.1.3,Win32,60,13192,,,,,,,,,,,,,,,,,,,7,,0,8,8,8,1,,,,,,,,,,,,,,,,,,,,,,,,,,,,,,,,,,,,,,,,,
,,,,,,,,,,,,,,,,,,,,,,,19,Male,2020-09-28_11h51.21.022,torte-2b,2020.1.3,Win32,60,13192,,,,,,,,,,,,,,,,,,,2,,0,9,9,9,1,,,,,,,,,,,,,,,,,,,,,,,,,,,,,,,,,,,,,,,,,
,,,,,,,,,,,,,,,,,,,,,,,19,Male,2020-09-28_11h51.21.022,torte-2b,2020.1.3,Win32,60,13192,,,,,,,,,,,,,space,,,,,,5,0.86303,0,10,10,10,1,,,,,,,,,,,,,,,,,,,,,,,,,,,,,,,,,,,,,,,,,
,,,,,,,,,,,,,,,,,,,,,,,19,Male,2020-09-28_11h51.21.022,torte-2b,2020.1.3,Win32,60,13192,,,,,,,,,,,,,,,,,,,4,,0,11,11,11,1,,,,,,,,,,,,,,,,,,,,,,,,,,,,,,,,,,,,,,,,,
,,,,,,,,,,,,,,,,,,,,,,,19,Male,2020-09-28_11h51.21.022,torte-2b,2020.1.3,Win32,60,13192,,,,,,,,,,,,,,,,,,,5,,0,12,12,12,1,,,,,,,,,,,,,,,,,,,,,,,,,,,,,,,,,,,,,,,,,
,,,,,,,,,,,,,,,,,,,,,,,19,Male,2020-09-28_11h51.21.022,torte-2b,2020.1.3,Win32,60,13192,,,,,,,,,,,,,space,,,,,,6,1.28414,0,13,13,13,1,,,,,,,,,,,,,,,,,,,,,,,,,,,,,,,,,,,,,,,,,
,,,,,,,,,,,,,,,,,,,,,,,19,Male,2020-09-28_11h51.21.022,torte-2b,2020.1.3,Win32,60,13192,,,,,,,,,,,,,,,,,,,5,,0,14,14,14,1,,,,,,,,,,,,,,,,,,,,,,,,,,,,,,,,,,,,,,,,,
,,,,,,,,,,,,,,,,,,,,,,,19,Male,2020-09-28_11h51.21.022,torte-2b,2020.1.3,Win32,60,13192,,,,,,,,,,,,,,,,,,,4,,0,15,15,15,1,,,,,,,,,,,,,,,,,,,,,,,,,,,,,,,,,,,,,,,,,
,,,,,,,,,,,,,,,,,,,,,,,19,Male,2020-09-28_11h51.21.022,torte-2b,2020.1.3,Win32,60,13192,,,,,,,,,,,,,space,,,,,,5,0.737375,0,16,16,16,1,,,,,,,,,,,,,,,,,,,,,,,,,,,,,,,,,,,,,,,,,
,,,,,,,,,,,,,,,,,,,,,,,19,Male,2020-09-28_11h51.21.022,torte-2b,2020.1.3,Win32,60,13192,,,,,,,,,,,,,,,,,,,3,,0,17,17,17,1,,,,,,,,,,,,,,,,,,,,,,,,,,,,,,,,,,,,,,,,,
,,,,,,,,,,,,,,,,,,,,,,,19,Male,2020-09-28_11h51.21.022,torte-2b,2020.1.3,Win32,60,13192,,,,,,,,,,,,,,,,,,,6,,0,18,18,18,1,,,,,,,,,,,,,,,,,,,,,,,,,,,,,,,,,,,,,,,,,
,,,,,,,,,,,,,,,,,,,,,,,19,Male,2020-09-28_11h51.21.022,torte-2b,2020.1.3,Win32,60,13192,,,,,,,,,,,,,,,,,,,6,,0,19,19,19,1,,,,,,,,,,,,,,,,,,,,,,,,,,,,,,,,,,,,,,,,,
,,,,,,,,,,,,,,,,,,,,,,,19,Male,2020-09-28_11h51.21.022,torte-2b,2020.1.3,Win32,60,13192,,,,,,,,,,,,,space,,,,,,6,0.063435,0,20,20,20,1,,,,,,,,,,,,,,,,,,,,,,,,,,,,,,,,,,,,,,,,,
,,,,,,,,,,,,,,,,,,,,,,,19,Male,2020-09-28_11h51.21.022,torte-2b,2020.1.3,Win32,60,13192,,,,,,,,,,,,,space,,,,,,4,1.005645,0,21,21,21,1,,,,,,,,,,,,,,,,,,,,,,,,,,,,,,,,,,,,,,,,,
,,,,,,,,,,,,,,,,,,,,,,,19,Male,2020-09-28_11h51.21.022,torte-2b,2020.1.3,Win32,60,13192,,,,,,,,,,,,,,,,,,,6,,0,22,22,22,1,,,,,,,,,,,,,,,,,,,,,,,,,,,,,,,,,,,,,,,,,
,,,,,,,,,,,,,,,,,,,,,,,19,Male,2020-09-28_11h51.21.022,torte-2b,2020.1.3,Win32,60,13192,,,,,,,,,,,,,,,,,,,4,,0,23,23,23,1,,,,,,,,,,,,,,,,,,,,,,,,,,,,,,,,,,,,,,,,,
,,,,,,,,,,,,,,,,,,,,,,,19,Male,2020-09-28_11h51.21.022,torte-2b,2020.1.3,Win32,60,13192,,,,,,,,,,,,,space,,,,,,6,1.19504,0,24,24,24,1,,,,,,,,,,,,,,,,,,,,,,,,,,,,,,,,,,,,,,,,,
,,,,,,,,,,,,,,,,,,,,,,,19,Male,2020-09-28_11h51.21.022,torte-2b,2020.1.3,Win32,60,13192,,,,,,,,,,,,,,,,,,,6,,0,25,25,25,1,,,,,,,,,,,,,,,,,,,,,,,,,,,,,,,,,,,,,,,,,
,,,,,,,,,,,,,,,,,,,,,,,19,Male,2020-09-28_11h51.21.022,torte-2b,2020.1.3,Win32,60,13192,,,,,,,,,,,,,,,,,,,7,,0,26,26,26,1,,,,,,,,,,,,,,,,,,,,,,,,,,,,,,,,,,,,,,,,,
,,,,,,,,,,,,,,,,,,,,,,,19,Male,2020-09-28_11h51.21.022,torte-2b,2020.1.3,Win32,60,13192,,,,,,,,,,,,,space,,,,,,1,1.01221,0,27,27,27,1,,,,,,,,,,,,,,,,,,,,,,,,,,,,,,,,,,,,,,,,,
,,,,,,,,,,,,,,,,,,,,,,,19,Male,2020-09-28_11h51.21.022,torte-2b,2020.1.3,Win32,60,13192,,,,,,,,,,,,,,,,,,,7,,0,28,28,28,1,,,,,,,,,,,,,,,,,,,,,,,,,,,,,,,,,,,,,,,,,
,,,,,,,,,,,,,,,,,,,,,,,19,Male,2020-09-28_11h51.21.022,torte-2b,2020.1.3,Win32,60,13192,,,,,,,,,,,,,,,,,,,4,,0,29,29,29,1,,,,,,,,,,,,,,,,,,,,,,,,,,,,,,,,,,,,,,,,,
,,,,,,,,,,,,,,,,,,,,,,,19,Male,2020-09-28_11h51.21.022,torte-2b,2020.1.3,Win32,60,13192,,,,,,,,,,,,,space,,,,,,7,1.014745,0,30,30,30,1,,,,,,,,,,,,,,,,,,,,,,,,,,,,,,,,,,,,,,,,,
,,,,,,,,,,,,,,,,,,,,,,,19,Male,2020-09-28_11h51.21.022,torte-2b,2020.1.3,Win32,60,13192,,,,,,,,,,,,,space,,,,,,3,1.59634,0,31,31,31,1,,,,,,,,,,,,,,,,,,,,,,,,,,,,,,,,,,,,,,,,,
,,,,,,,,,,,,,,,,,,,,,,,19,Male,2020-09-28_11h51.21.022,torte-2b,2020.1.3,Win32,60,13192,,,,,,,,,,,,,,,,,,,2,,0,32,32,32,1,,,,,,,,,,,,,,,,,,,,,,,,,,,,,,,,,,,,,,,,,
,,,,,,,,,,,,,,,,,,,,,,,19,Male,2020-09-28_11h51.21.022,torte-2b,2020.1.3,Win32,60,13192,,,,,,,,,,,,,,,,,,,6,,0,33,33,33,1,,,,,,,,,,,,,,,,,,,,,,,,,,,,,,,,,,,,,,,,,
,,,,,,,,,,,,,,,,,,,,,,,19,Male,2020-09-28_11h51.21.022,torte-2b,2020.1.3,Win32,60,13192,,,,,,,,,,,,,space,,,,,,3,0.302995,0,34,34,34,1,,,,,,,,,,,,,,,,,,,,,,,,,,,,,,,,,,,,,,,,,
,,,,,,,,,,,,,,,,,,,,,,,19,Male,2020-09-28_11h51.21.022,torte-2b,2020.1.3,Win32,60,13192,,,,,,,,,,,,,,,,,,,7,,,,,,,0,0,0,0,1,,,,,,,,,,,,,,,,,,,,,,,,,,,,,,,,,,,,
,,,,,,,,,,,,,,,,,,,,,,,19,Male,2020-09-28_11h51.21.022,torte-2b,2020.1.3,Win32,60,13192,,,,,,,,,,,,,,,,,,,5,,,,,,,0,1,1,1,1,,,,,,,,,,,,,,,,,,,,,,,,,,,,,,,,,,,,
,,,,,,,,,,,,,,,,,,,,,,,19,Male,2020-09-28_11h51.21.022,torte-2b,2020.1.3,Win32,60,13192,,,,,,,,,,,,,,,,,,,4,,,,,,,0,2,2,2,1,,,,,,,,,,,,,,,,,,,,,,,,,,,,,,,,,,,,
,,,,,,,,,,,,,,,,,,,,,,,19,Male,2020-09-28_11h51.21.022,torte-2b,2020.1.3,Win32,60,13192,,,,,,,,,,,,,,,,,,,5,,,,,,,0,3,3,3,1,,,,,,,,,,,,,,,,,,,,,,,,,,,,,,,,,,,,
,,,,,,,,,,,,,,,,,,,,,,,19,Male,2020-09-28_11h51.21.022,torte-2b,2020.1.3,Win32,60,13192,,,,,,,,,,,,,,,,,,,6,,,,,,,0,4,4,4,1,,,,,,,,,,,,,,,,,,,,,,,,,,,,,,,,,,,,
,,,,,,,,,,,,,,,,,,,,,,,19,Male,2020-09-28_11h51.21.022,torte-2b,2020.1.3,Win32,60,13192,,,,,,,,,,,,,,,,,,,5,,,,,,,0,5,5,5,1,,,,,,,,,,,,,,,,,,,,,,,,,,,,,,,,,,,,
,,,,,,,,,,,,,,,,,,,,,,,19,Male,2020-09-28_11h51.21.022,torte-2b,2020.1.3,Win32,60,13192,,,,,,,,,,,,,,,,,,,3,,,,,,,0,6,6,6,1,,,,,,,,,,,,,,,,,,,,,,,,,,,,,,,,,,,,
,,,,,,,,,,,,,,,,,,,,,,,19,Male,2020-09-28_11h51.21.022,torte-2b,2020.1.3,Win32,60,13192,,,,,,,,,,,,,space,,,,,,4,0.97903,,,,,,0,7,7,7,1,,,,,,,,,,,,,,,,,,,,,,,,,,,,,,,,,,,,
,,,,,,,,,,,,,,,,,,,,,,,19,Male,2020-09-28_11h51.21.022,torte-2b,2020.1.3,Win32,60,13192,,,,,,,,,,,,,,,,,,,3,,,,,,,0,8,8,8,1,,,,,,,,,,,,,,,,,,,,,,,,,,,,,,,,,,,,
,,,,,,,,,,,,,,,,,,,,,,,19,Male,2020-09-28_11h51.21.022,torte-2b,2020.1.3,Win32,60,13192,,,,,,,,,,,,,,,,,,,1,,,,,,,0,9,9,9,1,,,,,,,,,,,,,,,,,,,,,,,,,,,,,,,,,,,,
,,,,,,,,,,,,,,,,,,,,,,,19,Male,2020-09-28_11h51.21.022,torte-2b,2020.1.3,Win32,60,13192,,,,,,,,,,,,,,,,,,,2,,,,,,,0,10,10,10,1,,,,,,,,,,,,,,,,,,,,,,,,,,,,,,,,,,,,
,,,,,,,,,,,,,,,,,,,,,,,19,Male,2020-09-28_11h51.21.022,torte-2b,2020.1.3,Win32,60,13192,,,,,,,,,,,,,space,,,,,,1,1.250565,,,,,,0,11,11,11,1,,,,,,,,,,,,,,,,,,,,,,,,,,,,,,,,,,,,
,,,,,,,,,,,,,,,,,,,,,,,19,Male,2020-09-28_11h51.21.022,torte-2b,2020.1.3,Win32,60,13192,,,,,,,,,,,,,space,,,,,,2,1.020745,,,,,,0,12,12,12,1,,,,,,,,,,,,,,,,,,,,,,,,,,,,,,,,,,,,
,,,,,,,,,,,,,,,,,,,,,,,19,Male,2020-09-28_11h51.21.022,torte-2b,2020.1.3,Win32,60,13192,,,,,,,,,,,,,,,,,,,1,,,,,,,0,13,13,13,1,,,,,,,,,,,,,,,,,,,,,,,,,,,,,,,,,,,,
,,,,,,,,,,,,,,,,,,,,,,,19,Male,2020-09-28_11h51.21.022,torte-2b,2020.1.3,Win32,60,13192,,,,,,,,,,,,,,,,,,,3,,,,,,,0,14,14,14,1,,,,,,,,,,,,,,,,,,,,,,,,,,,,,,,,,,,,
,,,,,,,,,,,,,,,,,,,,,,,19,Male,2020-09-28_11h51.21.022,torte-2b,2020.1.3,Win32,60,13192,,,,,,,,,,,,,,,,,,,1,,,,,,,0,15,15,15,1,,,,,,,,,,,,,,,,,,,,,,,,,,,,,,,,,,,,
,,,,,,,,,,,,,,,,,,,,,,,19,Male,2020-09-28_11h51.21.022,torte-2b,2020.1.3,Win32,60,13192,,,,,,,,,,,,,space,,,,,,7,0.61352,,,,,,0,16,16,16,1,,,,,,,,,,,,,,,,,,,,,,,,,,,,,,,,,,,,
,,,,,,,,,,,,,,,,,,,,,,,19,Male,2020-09-28_11h51.21.022,torte-2b,2020.1.3,Win32,60,13192,,,,,,,,,,,,,,,,,,,7,,,,,,,0,17,17,17,1,,,,,,,,,,,,,,,,,,,,,,,,,,,,,,,,,,,,
,,,,,,,,,,,,,,,,,,,,,,,19,Male,2020-09-28_11h51.21.022,torte-2b,2020.1.3,Win32,60,13192,,,,,,,,,,,,,,,,,,,4,,,,,,,0,18,18,18,1,,,,,,,,,,,,,,,,,,,,,,,,,,,,,,,,,,,,
,,,,,,,,,,,,,,,,,,,,,,,19,Male,2020-09-28_11h51.21.022,torte-2b,2020.1.3,Win32,60,13192,,,,,,,,,,,,,space,,,,,,7,0.895965,,,,,,0,19,19,19,1,,,,,,,,,,,,,,,,,,,,,,,,,,,,,,,,,,,,
,,,,,,,,,,,,,,,,,,,,,,,19,Male,2020-09-28_11h51.21.022,torte-2b,2020.1.3,Win32,60,13192,,,,,,,,,,,,,space,,,,,,3,0.834105,,,,,,0,20,20,20,1,,,,,,,,,,,,,,,,,,,,,,,,,,,,,,,,,,,,
,,,,,,,,,,,,,,,,,,,,,,,19,Male,2020-09-28_11h51.21.022,torte-2b,2020.1.3,Win32,60,13192,,,,,,,,,,,,,,,,,,,7,,,,,,,0,21,21,21,1,,,,,,,,,,,,,,,,,,,,,,,,,,,,,,,,,,,,
,,,,,,,,,,,,,,,,,,,,,,,19,Male,2020-09-28_11h51.21.022,torte-2b,2020.1.3,Win32,60,13192,,,,,,,,,,,,,,,,,,,3,,,,,,,0,22,22,22,1,,,,,,,,,,,,,,,,,,,,,,,,,,,,,,,,,,,,
,,,,,,,,,,,,,,,,,,,,,,,19,Male,2020-09-28_11h51.21.022,torte-2b,2020.1.3,Win32,60,13192,,,,,,,,,,,,,space,,,,,,1,0.719045,,,,,,0,23,23,23,1,,,,,,,,,,,,,,,,,,,,,,,,,,,,,,,,,,,,
,,,,,,,,,,,,,,,,,,,,,,,19,Male,2020-09-28_11h51.21.022,torte-2b,2020.1.3,Win32,60,13192,,,,,,,,,,,,,space,,,,,,6,1.161925,,,,,,0,24,24,24,1,,,,,,,,,,,,,,,,,,,,,,,,,,,,,,,,,,,,
,,,,,,,,,,,,,,,,,,,,,,,19,Male,2020-09-28_11h51.21.022,torte-2b,2020.1.3,Win32,60,13192,,,,,,,,,,,,,,,,,,,3,,,,,,,0,25,25,25,1,,,,,,,,,,,,,,,,,,,,,,,,,,,,,,,,,,,,
,,,,,,,,,,,,,,,,,,,,,,,19,Male,2020-09-28_11h51.21.022,torte-2b,2020.1.3,Win32,60,13192,,,,,,,,,,,,,,,,,,,2,,,,,,,0,26,26,26,1,,,,,,,,,,,,,,,,,,,,,,,,,,,,,,,,,,,,
,,,,,,,,,,,,,,,,,,,,,,,19,Male,2020-09-28_11h51.21.022,torte-2b,2020.1.3,Win32,60,13192,,,,,,,,,,,,,space,,,,,,3,0.387595,,,,,,0,27,27,27,1,,,,,,,,,,,,,,,,,,,,,,,,,,,,,,,,,,,,
,,,,,,,,,,,,,,,,,,,,,,,19,Male,2020-09-28_11h51.21.022,torte-2b,2020.1.3,Win32,60,13192,,,,,,,,,,,,,,,,,,,1,,,,,,,0,28,28,28,1,,,,,,,,,,,,,,,,,,,,,,,,,,,,,,,,,,,,
,,,,,,,,,,,,,,,,,,,,,,,19,Male,2020-09-28_11h51.21.022,torte-2b,2020.1.3,Win32,60,13192,,,,,,,,,,,,,,,,,,,3,,,,,,,0,29,29,29,1,,,,,,,,,,,,,,,,,,,,,,,,,,,,,,,,,,,,
,,,,,,,,,,,,,,,,,,,,,,,19,Male,2020-09-28_11h51.21.022,torte-2b,2020.1.3,Win32,60,13192,,,,,,,,,,,,,space,,,,,,1,0.84513,,,,,,0,30,30,30,1,,,,,,,,,,,,,,,,,,,,,,,,,,,,,,,,,,,,
,,,,,,,,,,,,,,,,,,,,,,,19,Male,2020-09-28_11h51.21.022,torte-2b,2020.1.3,Win32,60,13192,,,,,,,,,,,,,,,,,,,7,,,,,,,0,31,31,31,1,,,,,,,,,,,,,,,,,,,,,,,,,,,,,,,,,,,,
,,,,,,,,,,,,,,,,,,,,,,,19,Male,2020-09-28_11h51.21.022,torte-2b,2020.1.3,Win32,60,13192,,,,,,,,,,,,,space,,,,,,5,1.527655,,,,,,0,32,32,32,1,,,,,,,,,,,,,,,,,,,,,,,,,,,,,,,,,,,,
,,,,,,,,,,,,,,,,,,,,,,,19,Male,2020-09-28_11h51.21.022,torte-2b,2020.1.3,Win32,60,13192,,,,,,,,,,,,,,,,,,,7,,,,,,,0,33,33,33,1,,,,,,,,,,,,,,,,,,,,,,,,,,,,,,,,,,,,
,,,,,,,,,,,,,,,,,,,,,,,19,Male,2020-09-28_11h51.21.022,torte-2b,2020.1.3,Win32,60,13192,,,,,,,,,,,,,,,,,,,2,,,,,,,0,34,34,34,1,,,,,,,,,,,,,,,,,,,,,,,,,,,,,,,,,,,,
,,,,,,,,,,,,,,,,,,,,,,,19,Male,2020-09-28_11h51.21.022,torte-2b,2020.1.3,Win32,60,13192,,,,,,,,,,,,,,,,,,,3,,,,,,,,,,,,0,0,0,0,1,,,,,,,,,,,,,,,,,,,,,,,,,,,,,,,
,,,,,,,,,,,,,,,,,,,,,,,19,Male,2020-09-28_11h51.21.022,torte-2b,2020.1.3,Win32,60,13192,,,,,,,,,,,,,,,,,,,7,,,,,,,,,,,,0,1,1,1,1,,,,,,,,,,,,,,,,,,,,,,,,,,,,,,,
,,,,,,,,,,,,,,,,,,,,,,,19,Male,2020-09-28_11h51.21.022,torte-2b,2020.1.3,Win32,60,13192,,,,,,,,,,,,,,,,,,,7,,,,,,,,,,,,0,2,2,2,1,,,,,,,,,,,,,,,,,,,,,,,,,,,,,,,
,,,,,,,,,,,,,,,,,,,,,,,19,Male,2020-09-28_11h51.21.022,torte-2b,2020.1.3,Win32,60,13192,,,,,,,,,,,,,,,,,,,4,,,,,,,,,,,,0,3,3,3,1,,,,,,,,,,,,,,,,,,,,,,,,,,,,,,,
,,,,,,,,,,,,,,,,,,,,,,,19,Male,2020-09-28_11h51.21.022,torte-2b,2020.1.3,Win32,60,13192,,,,,,,,,,,,,,,,,,,5,,,,,,,,,,,,0,4,4,4,1,,,,,,,,,,,,,,,,,,,,,,,,,,,,,,,
,,,,,,,,,,,,,,,,,,,,,,,19,Male,2020-09-28_11h51.21.022,torte-2b,2020.1.3,Win32,60,13192,,,,,,,,,,,,,,,,,,,4,,,,,,,,,,,,0,5,5,5,1,,,,,,,,,,,,,,,,,,,,,,,,,,,,,,,
,,,,,,,,,,,,,,,,,,,,,,,19,Male,2020-09-28_11h51.21.022,torte-2b,2020.1.3,Win32,60,13192,,,,,,,,,,,,,,,,,,,2,,,,,,,,,,,,0,6,6,6,1,,,,,,,,,,,,,,,,,,,,,,,,,,,,,,,
,,,,,,,,,,,,,,,,,,,,,,,19,Male,2020-09-28_11h51.21.022,torte-2b,2020.1.3,Win32,60,13192,,,,,,,,,,,,,space,,,,,,4,1.464365,,,,,,,,,,,0,7,7,7,1,,,,,,,,,,,,,,,,,,,,,,,,,,,,,,,
,,,,,,,,,,,,,,,,,,,,,,,19,Male,2020-09-28_11h51.21.022,torte-2b,2020.1.3,Win32,60,13192,,,,,,,,,,,,,,,,,,,2,,,,,,,,,,,,0,8,8,8,1,,,,,,,,,,,,,,,,,,,,,,,,,,,,,,,
,,,,,,,,,,,,,,,,,,,,,,,19,Male,2020-09-28_11h51.21.022,torte-2b,2020.1.3,Win32,60,13192,,,,,,,,,,,,,space,,,,,,2,0.634015,,,,,,,,,,,0,9,9,9,1,,,,,,,,,,,,,,,,,,,,,,,,,,,,,,,
,,,,,,,,,,,,,,,,,,,,,,,19,Male,2020-09-28_11h51.21.022,torte-2b,2020.1.3,Win32,60,13192,,,,,,,,,,,,,,,,,,,6,,,,,,,,,,,,0,10,10,10,1,,,,,,,,,,,,,,,,,,,,,,,,,,,,,,,
,,,,,,,,,,,,,,,,,,,,,,,19,Male,2020-09-28_11h51.21.022,torte-2b,2020.1.3,Win32,60,13192,,,,,,,,,,,,,,,,,,,2,,,,,,,,,,,,0,11,11,11,1,,,,,,,,,,,,,,,,,,,,,,,,,,,,,,,
,,,,,,,,,,,,,,,,,,,,,,,19,Male,2020-09-28_11h51.21.022,torte-2b,2020.1.3,Win32,60,13192,,,,,,,,,,,,,space,,,,,,2,0.879385,,,,,,,,,,,0,12,12,12,1,,,,,,,,,,,,,,,,,,,,,,,,,,,,,,,
,,,,,,,,,,,,,,,,,,,,,,,19,Male,2020-09-28_11h51.21.022,torte-2b,2020.1.3,Win32,60,13192,,,,,,,,,,,,,,,,,,,2,,,,,,,,,,,,0,13,13,13,1,,,,,,,,,,,,,,,,,,,,,,,,,,,,,,,
,,,,,,,,,,,,,,,,,,,,,,,19,Male,2020-09-28_11h51.21.022,torte-2b,2020.1.3,Win32,60,13192,,,,,,,,,,,,,,,,,,,2,,,,,,,,,,,,0,14,14,14,1,,,,,,,,,,,,,,,,,,,,,,,,,,,,,,,
,,,,,,,,,,,,,,,,,,,,,,,19,Male,2020-09-28_11h51.21.022,torte-2b,2020.1.3,Win32,60,13192,,,,,,,,,,,,,,,,,,,4,,,,,,,,,,,,0,15,15,15,1,,,,,,,,,,,,,,,,,,,,,,,,,,,,,,,
,,,,,,,,,,,,,,,,,,,,,,,19,Male,2020-09-28_11h51.21.022,torte-2b,2020.1.3,Win32,60,13192,,,,,,,,,,,,,,,,,,,3,,,,,,,,,,,,0,16,16,16,1,,,,,,,,,,,,,,,,,,,,,,,,,,,,,,,
,,,,,,,,,,,,,,,,,,,,,,,19,Male,2020-09-28_11h51.21.022,torte-2b,2020.1.3,Win32,60,13192,,,,,,,,,,,,,space,,,,,,7,1.04936,,,,,,,,,,,0,17,17,17,1,,,,,,,,,,,,,,,,,,,,,,,,,,,,,,,
,,,,,,,,,,,,,,,,,,,,,,,19,Male,2020-09-28_11h51.21.022,torte-2b,2020.1.3,Win32,60,13192,,,,,,,,,,,,,space,,,,,,4,1.75859,,,,,,,,,,,0,18,18,18,1,,,,,,,,,,,,,,,,,,,,,,,,,,,,,,,
,,,,,,,,,,,,,,,,,,,,,,,19,Male,2020-09-28_11h51.21.022,torte-2b,2020.1.3,Win32,60,13192,,,,,,,,,,,,,,,,,,,7,,,,,,,,,,,,0,19,19,19,1,,,,,,,,,,,,,,,,,,,,,,,,,,,,,,,
,,,,,,,,,,,,,,,,,,,,,,,19,Male,2020-09-28_11h51.21.022,torte-2b,2020.1.3,Win32,60,13192,,,,,,,,,,,,,space,,,,,,7,1.21786,,,,,,,,,,,0,20,20,20,1,,,,,,,,,,,,,,,,,,,,,,,,,,,,,,,
,,,,,,,,,,,,,,,,,,,,,,,19,Male,2020-09-28_11h51.21.022,torte-2b,2020.1.3,Win32,60,13192,,,,,,,,,,,,,,,,,,,7,,,,,,,,,,,,0,21,21,21,1,,,,,,,,,,,,,,,,,,,,,,,,,,,,,,,
,,,,,,,,,,,,,,,,,,,,,,,19,Male,2020-09-28_11h51.21.022,torte-2b,2020.1.3,Win32,60,13192,,,,,,,,,,,,,,,,,,,7,,,,,,,,,,,,0,22,22,22,1,,,,,,,,,,,,,,,,,,,,,,,,,,,,,,,
,,,,,,,,,,,,,,,,,,,,,,,19,Male,2020-09-28_11h51.21.022,torte-2b,2020.1.3,Win32,60,13192,,,,,,,,,,,,,,,,,,,1,,,,,,,,,,,,0,23,23,23,1,,,,,,,,,,,,,,,,,,,,,,,,,,,,,,,
,,,,,,,,,,,,,,,,,,,,,,,19,Male,2020-09-28_11h51.21.022,torte-2b,2020.1.3,Win32,60,13192,,,,,,,,,,,,,space,,,,,,7,0.897955,,,,,,,,,,,0,24,24,24,1,,,,,,,,,,,,,,,,,,,,,,,,,,,,,,,
,,,,,,,,,,,,,,,,,,,,,,,19,Male,2020-09-28_11h51.21.022,torte-2b,2020.1.3,Win32,60,13192,,,,,,,,,,,,,,,,,,,1,,,,,,,,,,,,0,25,25,25,1,,,,,,,,,,,,,,,,,,,,,,,,,,,,,,,
,,,,,,,,,,,,,,,,,,,,,,,19,Male,2020-09-28_11h51.21.022,torte-2b,2020.1.3,Win32,60,13192,,,,,,,,,,,,,,,,,,,7,,,,,,,,,,,,0,26,26,26,1,,,,,,,,,,,,,,,,,,,,,,,,,,,,,,,
,,,,,,,,,,,,,,,,,,,,,,,19,Male,2020-09-28_11h51.21.022,torte-2b,2020.1.3,Win32,60,13192,,,,,,,,,,,,,,,,,,,2,,,,,,,,,,,,0,27,27,27,1,,,,,,,,,,,,,,,,,,,,,,,,,,,,,,,
,,,,,,,,,,,,,,,,,,,,,,,19,Male,2020-09-28_11h51.21.022,torte-2b,2020.1.3,Win32,60,13192,,,,,,,,,,,,,space,,,,,,5,1.52853,,,,,,,,,,,0,28,28,28,1,,,,,,,,,,,,,,,,,,,,,,,,,,,,,,,
,,,,,,,,,,,,,,,,,,,,,,,19,Male,2020-09-28_11h51.21.022,torte-2b,2020.1.3,Win32,60,13192,,,,,,,,,,,,,,,,,,,5,,,,,,,,,,,,0,29,29,29,1,,,,,,,,,,,,,,,,,,,,,,,,,,,,,,,
,,,,,,,,,,,,,,,,,,,,,,,19,Male,2020-09-28_11h51.21.022,torte-2b,2020.1.3,Win32,60,13192,,,,,,,,,,,,,,,,,,,5,,,,,,,,,,,,0,30,30,30,1,,,,,,,,,,,,,,,,,,,,,,,,,,,,,,,
,,,,,,,,,,,,,,,,,,,,,,,19,Male,2020-09-28_11h51.21.022,torte-2b,2020.1.3,Win32,60,13192,,,,,,,,,,,,,space,,,,,,1,0.616985,,,,,,,,,,,0,31,31,31,1,,,,,,,,,,,,,,,,,,,,,,,,,,,,,,,
,,,,,,,,,,,,,,,,,,,,,,,19,Male,2020-09-28_11h51.21.022,torte-2b,2020.1.3,Win32,60,13192,,,,,,,,,,,,,,,,,,,5,,,,,,,,,,,,0,32,32,32,1,,,,,,,,,,,,,,,,,,,,,,,,,,,,,,,
,,,,,,,,,,,,,,,,,,,,,,,19,Male,2020-09-28_11h51.21.022,torte-2b,2020.1.3,Win32,60,13192,,,,,,,,,,,,,space,,,,,,3,0.185975,,,,,,,,,,,0,33,33,33,1,,,,,,,,,,,,,,,,,,,,,,,,,,,,,,,
,,,,,,,,,,,,,,,,,,,,,,,19,Male,2020-09-28_11h51.21.022,torte-2b,2020.1.3,Win32,60,13192,,,,,,,,,,,,,,,,,,,3,,,,,,,,,,,,0,34,34,34,1,,,,,,,,,,,,,,,,,,,,,,,,,,,,,,,
,,,,,,,,,,,,,Too slow :(,,,,,,t4.png,t5.png,1,0.90025,19,Male,2020-09-28_11h51.21.022,torte-2b,2020.1.3,Win32,60,13192,,space,1.83074,,,,,,,,,,,,,,,,,,,,,,,,,,,,,,,,,space,9.51084,0,0,0,113,1,,,,,,,,,,,,,,,,,,,,,,,,
,,,,,,,,,,,,l,Correct!,,,,,,t2.png,t4.png,2,0.059078,19,Male,2020-09-28_11h51.21.022,torte-2b,2020.1.3,Win32,60,13192,1.985,,,,,,,,,,,,,,,,,,,,,,,,,,,,,,,,,,,,,0,1,1,37,1,,,,,,,,,,,,,,,,,,,,,,,,
,,,,,,,,,,,,a,Incorrect,,,,,,t2.png,t1.png,1,0.90025,19,Male,2020-09-28_11h51.21.022,torte-2b,2020.1.3,Win32,60,13192,1.21353,,,,,,,,,,,,,,,,,,,,,,,,,,,,,,,,,,,,,0,2,2,4,1,,,,,,,,,,,,,,,,,,,,,,,,
,,,,,,,,,,,,a,Incorrect,,,,,,t1.png,t4.png,3,0.0000131,19,Male,2020-09-28_11h51.21.022,torte-2b,2020.1.3,Win32,60,13192,1.429155,,,,,,,,,,,,,,,,,,,,,,,,,,,,,,,,,,,,,0,3,3,107,1,,,,,,,,,,,,,,,,,,,,,,,,
,,,,,,,,,,,,l,Correct!,,,,,,t2.png,t4.png,2,0.0591,19,Male,2020-09-28_11h51.21.022,torte-2b,2020.1.3,Win32,60,13192,1.885965,,,,,,,,,,,,,,,,,,,,,,,,,,,,,,,,,,,,,0,4,4,15,1,,,,,,,,,,,,,,,,,,,,,,,,
,,,,,,,,,,,,a,Incorrect,,,,,,t2.png,t5.png,3,0.0000131,19,Male,2020-09-28_11h51.21.022,torte-2b,2020.1.3,Win32,60,13192,2.32849,,,,,,,,,,,,,,,,,,,,,,,,,,,,,,,,,,,,,0,5,5,104,1,,,,,,,,,,,,,,,,,,,,,,,,
,,,,,,,,,,,,a,Correct!,,,,,,t4.png,t4.png,0,0.98115,19,Male,2020-09-28_11h51.21.022,torte-2b,2020.1.3,Win32,60,13192,1.484335,,,,,,,,,,,,,,,,,,,,,,,,,,,,,,,,,,,,,0,6,6,79,1,,,,,,,,,,,,,,,,,,,,,,,,
,,,,,,,,,,,,a,Incorrect,,,,,,t5.png,t2.png,3,0.0000131,19,Male,2020-09-28_11h51.21.022,torte-2b,2020.1.3,Win32,60,13192,1.812035,,,,,,,,,,,,,,,,,,,,,,,,,,,,,,,,,,,,,0,7,7,116,1,,,,,,,,,,,,,,,,,,,,,,,,
,,,,,,,,,,,,a,Correct!,,,,,,t3.png,t2.png,1,0.909,19,Male,2020-09-28_11h51.21.022,torte-2b,2020.1.3,Win32,60,13192,1.03404,,,,,,,,,,,,,,,,,,,,,,,,,,,,,,,,,,,,,0,8,8,3,1,,,,,,,,,,,,,,,,,,,,,,,,
,,,,,,,,,,,,l,Correct!,,,,,,t2.png,t4.png,2,0.059078,19,Male,2020-09-28_11h51.21.022,torte-2b,2020.1.3,Win32,60,13192,1.386905,,,,,,,,,,,,,,,,,,,,,,,,,,,,,,,,,,,,,0,9,9,24,1,,,,,,,,,,,,,,,,,,,,,,,,
,,,,,,,,,,,,,Too slow :(,,,,,,t1.png,t1.png,0,0.97829,19,Male,2020-09-28_11h51.21.022,torte-2b,2020.1.3,Win32,60,13192,,,,,,,,,,,,,,,,,,,,,,,,,,,,,,,,,,,,,,0,10,10,78,1,,,,,,,,,,,,,,,,,,,,,,,,
,,,,,,,,,,,,a,Incorrect,,,,,,t5.png,t2.png,3,0.0000131,19,Male,2020-09-28_11h51.21.022,torte-2b,2020.1.3,Win32,60,13192,1.615565,,,,,,,,,,,,,,,,,,,,,,,,,,,,,,,,,,,,,0,11,11,51,1,,,,,,,,,,,,,,,,,,,,,,,,
,,,,,,,,,,,,l,Correct!,,,,,,t3.png,t1.png,2,0.056466,19,Male,2020-09-28_11h51.21.022,torte-2b,2020.1.3,Win32,60,13192,1.79558,,,,,,,,,,,,,,,,,,,,,,,,,,,,,,,,,,,,,0,12,12,29,1,,,,,,,,,,,,,,,,,,,,,,,,
,,,,,,,,,,,,l,Correct!,,,,,,t4.png,t2.png,2,0.0591,19,Male,2020-09-28_11h51.21.022,torte-2b,2020.1.3,Win32,60,13192,2.432945,,,,,,,,,,,,,,,,,,,,,,,,,,,,,,,,,,,,,0,13,13,36,1,,,,,,,,,,,,,,,,,,,,,,,,
,,,,,,,,,,,,a,Correct!,,,,,,t4.png,t4.png,0,0.98115,19,Male,2020-09-28_11h51.21.022,torte-2b,2020.1.3,Win32,60,13192,1.53692,,,,,,,,,,,,,,,,,,,,,,,,,,,,,,,,,,,,,0,14,14,80,1,,,,,,,,,,,,,,,,,,,,,,,,
,,,,,,,,,,,,,Too slow :(,,,,,,t4.png,t5.png,1,0.90025,19,Male,2020-09-28_11h51.21.022,torte-2b,2020.1.3,Win32,60,13192,,,,,,,,,,,,,,,,,,,,,,,,,,,,,,,,,,,,,,0,15,15,103,1,,,,,,,,,,,,,,,,,,,,,,,,
,,,,,,,,,,,,a,Correct!,,,,,,t5.png,t4.png,1,0.9,19,Male,2020-09-28_11h51.21.022,torte-2b,2020.1.3,Win32,60,13192,2.250825,,,,,,,,,,,,,,,,,,,,,,,,,,,,,,,,,,,,,0,16,16,49,1,,,,,,,,,,,,,,,,,,,,,,,,
,,,,,,,,,,,,l,Correct!,,,,,,t3.png,t1.png,2,0.0565,19,Male,2020-09-28_11h51.21.022,torte-2b,2020.1.3,Win32,60,13192,1.080515,,,,,,,,,,,,,,,,,,,,,,,,,,,,,,,,,,,,,0,17,17,31,1,,,,,,,,,,,,,,,,,,,,,,,,
,,,,,,,,,,,,l,Correct!,,,,,,t1.png,t3.png,2,0.056466,19,Male,2020-09-28_11h51.21.022,torte-2b,2020.1.3,Win32,60,13192,2.23583,,,,,,,,,,,,,,,,,,,,,,,,,,,,,,,,,,,,,0,18,18,60,1,,,,,,,,,,,,,,,,,,,,,,,,
,,,,,,,,,,,,a,Correct!,,,,,,t4.png,t3.png,1,0.90855,19,Male,2020-09-28_11h51.21.022,torte-2b,2020.1.3,Win32,60,13192,1.48806,,,,,,,,,,,,,,,,,,,,,,,,,,,,,,,,,,,,,0,19,19,45,1,,,,,,,,,,,,,,,,,,,,,,,,
,,,,,,,,,,,,a,Correct!,,,,,,t1.png,t1.png,0,0.97829,19,Male,2020-09-28_11h51.21.022,torte-2b,2020.1.3,Win32,60,13192,1.732465,,,,,,,,,,,,,,,,,,,,,,,,,,,,,,,,,,,,,0,20,20,67,1,,,,,,,,,,,,,,,,,,,,,,,,
,,,,,,,,,,,,l,Correct!,,,,,,t4.png,t1.png,3,0.0000131,19,Male,2020-09-28_11h51.21.022,torte-2b,2020.1.3,Win32,60,13192,1.09132,,,,,,,,,,,,,,,,,,,,,,,,,,,,,,,,,,,,,0,21,21,61,1,,,,,,,,,,,,,,,,,,,,,,,,
,,,,,,,,,,,,a,Incorrect,,,,,,t3.png,t5.png,2,0.0565,19,Male,2020-09-28_11h51.21.022,torte-2b,2020.1.3,Win32,60,13192,1.566985,,,,,,,,,,,,,,,,,,,,,,,,,,,,,,,,,,,,,0,22,22,30,1,,,,,,,,,,,,,,,,,,,,,,,,
,,,,,,,,,,,,l,Correct!,,,,,,t5.png,t1.png,4,9.55E-11,19,Male,2020-09-28_11h51.21.022,torte-2b,2020.1.3,Win32,60,13192,0.9303,,,,,,,,,,,,,,,,,,,,,,,,,,,,,,,,,,,,,0,23,23,71,1,,,,,,,,,,,,,,,,,,,,,,,,
,,,,,,,,,,,,l,Correct!,,,,,,t1.png,t3.png,2,0.056466,19,Male,2020-09-28_11h51.21.022,torte-2b,2020.1.3,Win32,60,13192,1.371895,,,,,,,,,,,,,,,,,,,,,,,,,,,,,,,,,,,,,0,24,24,63,1,,,,,,,,,,,,,,,,,,,,,,,,
,,,,,,,,,,,,a,Correct!,,,,,,t3.png,t4.png,1,0.909,19,Male,2020-09-28_11h51.21.022,torte-2b,2020.1.3,Win32,60,13192,1.26397,,,,,,,,,,,,,,,,,,,,,,,,,,,,,,,,,,,,,0,25,25,82,1,,,,,,,,,,,,,,,,,,,,,,,,
,,,,,,,,,,,,a,Correct!,,,,,,t5.png,t5.png,0,0.97829,19,Male,2020-09-28_11h51.21.022,torte-2b,2020.1.3,Win32,60,13192,1.385175,,,,,,,,,,,,,,,,,,,,,,,,,,,,,,,,,,,,,0,26,26,70,1,,,,,,,,,,,,,,,,,,,,,,,,
,,,,,,,,,,,,a,Correct!,,,,,,t2.png,t3.png,1,0.90855,19,Male,2020-09-28_11h51.21.022,torte-2b,2020.1.3,Win32,60,13192,1.25478,,,,,,,,,,,,,,,,,,,,,,,,,,,,,,,,,,,,,0,27,27,68,1,,,,,,,,,,,,,,,,,,,,,,,,
,,,,,,,,,,,,a,Incorrect,,,,,,t2.png,t5.png,3,0.0000131,19,Male,2020-09-28_11h51.21.022,torte-2b,2020.1.3,Win32,60,13192,2.41659,,,,,,,,,,,,,,,,,,,,,,,,,,,,,,,,,,,,,0,28,28,40,1,,,,,,,,,,,,,,,,,,,,,,,,
,,,,,,,,,,,,a,Incorrect,,,,,,t1.png,t4.png,3,0.0000131,19,Male,2020-09-28_11h51.21.022,torte-2b,2020.1.3,Win32,60,13192,1.549885,,,,,,,,,,,,,,,,,,,,,,,,,,,,,,,,,,,,,0,29,29,50,1,,,,,,,,,,,,,,,,,,,,,,,,
,,,,,,,,,,,,a,Correct!,,,,,,t4.png,t5.png,1,0.90025,19,Male,2020-09-28_11h51.21.022,torte-2b,2020.1.3,Win32,60,13192,0.97977,,,,,,,,,,,,,,,,,,,,,,,,,,,,,,,,,,,,,0,30,30,58,1,,,,,,,,,,,,,,,,,,,,,,,,
,,,,,,,,,,,,l,Incorrect,,,,,,t1.png,t1.png,0,0.978,19,Male,2020-09-28_11h51.21.022,torte-2b,2020.1.3,Win32,60,13192,1.46374,,,,,,,,,,,,,,,,,,,,,,,,,,,,,,,,,,,,,0,31,31,28,1,,,,,,,,,,,,,,,,,,,,,,,,
,,,,,,,,,,,,a,Incorrect,,,,,,t1.png,t4.png,3,0.0000131,19,Male,2020-09-28_11h51.21.022,torte-2b,2020.1.3,Win32,60,13192,1.43401,,,,,,,,,,,,,,,,,,,,,,,,,,,,,,,,,,,,,0,32,32,92,1,,,,,,,,,,,,,,,,,,,,,,,,
,,,,,,,,,,,,a,Incorrect,,,,,,t5.png,t3.png,2,0.0565,19,Male,2020-09-28_11h51.21.022,torte-2b,2020.1.3,Win32,60,13192,1.00745,,,,,,,,,,,,,,,,,,,,,,,,,,,,,,,,,,,,,0,33,33,39,1,,,,,,,,,,,,,,,,,,,,,,,,
,,,,,,,,,,,,a,Incorrect,,,,,,t5.png,t2.png,3,0.0000131,19,Male,2020-09-28_11h51.21.022,torte-2b,2020.1.3,Win32,60,13192,1.24661,,,,,,,,,,,,,,,,,,,,,,,,,,,,,,,,,,,,,0,34,34,91,1,,,,,,,,,,,,,,,,,,,,,,,,
,,,,,,,,,,,,l,Correct!,,,,,,t1.png,t5.png,4,9.55E-11,19,Male,2020-09-28_11h51.21.022,torte-2b,2020.1.3,Win32,60,13192,1.999175,,,,,,,,,,,,,,,,,,,,,,,,,,,,,,,,,,,,,0,35,35,41,1,,,,,,,,,,,,,,,,,,,,,,,,
,,,,,,,,,,,,a,Correct!,,,,,,t2.png,t3.png,1,0.90855,19,Male,2020-09-28_11h51.21.022,torte-2b,2020.1.3,Win32,60,13192,1.487105,,,,,,,,,,,,,,,,,,,,,,,,,,,,,,,,,,,,,0,36,36,10,1,,,,,,,,,,,,,,,,,,,,,,,,
,,,,,,,,,,,,a,Incorrect,,,,,,t3.png,t5.png,2,0.056466,19,Male,2020-09-28_11h51.21.022,torte-2b,2020.1.3,Win32,60,13192,1.48341,,,,,,,,,,,,,,,,,,,,,,,,,,,,,,,,,,,,,0,37,37,6,1,,,,,,,,,,,,,,,,,,,,,,,,
,,,,,,,,,,,,l,Correct!,,,,,,t1.png,t3.png,2,0.056466,19,Male,2020-09-28_11h51.21.022,torte-2b,2020.1.3,Win32,60,13192,1.53218,,,,,,,,,,,,,,,,,,,,,,,,,,,,,,,,,,,,,0,38,38,99,1,,,,,,,,,,,,,,,,,,,,,,,,
,,,,,,,,,,,,a,Correct!,,,,,,t4.png,t3.png,1,0.909,19,Male,2020-09-28_11h51.21.022,torte-2b,2020.1.3,Win32,60,13192,1.518135,,,,,,,,,,,,,,,,,,,,,,,,,,,,,,,,,,,,,0,39,39,20,1,,,,,,,,,,,,,,,,,,,,,,,,
,,,,,,,,,,,,a,Incorrect,,,,,,t1.png,t4.png,3,0.0000131,19,Male,2020-09-28_11h51.21.022,torte-2b,2020.1.3,Win32,60,13192,1.21392,,,,,,,,,,,,,,,,,,,,,,,,,,,,,,,,,,,,,0,40,40,17,1,,,,,,,,,,,,,,,,,,,,,,,,
,,,,,,,,,,,,a,Correct!,,,,,,t5.png,t5.png,0,0.978,19,Male,2020-09-28_11h51.21.022,torte-2b,2020.1.3,Win32,60,13192,1.42178,,,,,,,,,,,,,,,,,,,,,,,,,,,,,,,,,,,,,0,41,41,117,1,,,,,,,,,,,,,,,,,,,,,,,,
,,,,,,,,,,,,a,Incorrect,,,,,,t4.png,t1.png,3,0.0000131,19,Male,2020-09-28_11h51.21.022,torte-2b,2020.1.3,Win32,60,13192,1.498375,,,,,,,,,,,,,,,,,,,,,,,,,,,,,,,,,,,,,0,42,42,93,1,,,,,,,,,,,,,,,,,,,,,,,,
,,,,,,,,,,,,a,Incorrect,,,,,,t2.png,t1.png,1,0.90025,19,Male,2020-09-28_11h51.21.022,torte-2b,2020.1.3,Win32,60,13192,1.48866,,,,,,,,,,,,,,,,,,,,,,,,,,,,,,,,,,,,,0,43,43,19,1,,,,,,,,,,,,,,,,,,,,,,,,
,,,,,,,,,,,,a,Correct!,,,,,,t3.png,t4.png,1,0.90855,19,Male,2020-09-28_11h51.21.022,torte-2b,2020.1.3,Win32,60,13192,2.252345,,,,,,,,,,,,,,,,,,,,,,,,,,,,,,,,,,,,,0,44,44,96,1,,,,,,,,,,,,,,,,,,,,,,,,
,,,,,,,,,,,,l,Correct!,,,,,,t4.png,t2.png,2,0.059078,19,Male,2020-09-28_11h51.21.022,torte-2b,2020.1.3,Win32,60,13192,2.263505,,,,,,,,,,,,,,,,,,,,,,,,,,,,,,,,,,,,,0,45,45,88,1,,,,,,,,,,,,,,,,,,,,,,,,
,,,,,,,,,,,,a,Correct!,,,,,,t2.png,t1.png,1,0.9,19,Male,2020-09-28_11h51.21.022,torte-2b,2020.1.3,Win32,60,13192,1.41302,,,,,,,,,,,,,,,,,,,,,,,,,,,,,,,,,,,,,0,46,46,118,1,,,,,,,,,,,,,,,,,,,,,,,,
,,,,,,,,,,,,l,Incorrect,,,,,,t2.png,t2.png,0,0.98115,19,Male,2020-09-28_11h51.21.022,torte-2b,2020.1.3,Win32,60,13192,1.3805,,,,,,,,,,,,,,,,,,,,,,,,,,,,,,,,,,,,,0,47,47,2,1,,,,,,,,,,,,,,,,,,,,,,,,
,,,,,,,,,,,,l,Correct!,,,,,,t5.png,t1.png,4,9.55E-11,19,Male,2020-09-28_11h51.21.022,torte-2b,2020.1.3,Win32,60,13192,1.564915,,,,,,,,,,,,,,,,,,,,,,,,,,,,,,,,,,,,,0,48,48,100,1,,,,,,,,,,,,,,,,,,,,,,,,
,,,,,,,,,,,,l,Correct!,,,,,,t4.png,t2.png,2,0.059078,19,Male,2020-09-28_11h51.21.022,torte-2b,2020.1.3,Win32,60,13192,1.730045,,,,,,,,,,,,,,,,,,,,,,,,,,,,,,,,,,,,,0,49,49,110,1,,,,,,,,,,,,,,,,,,,,,,,,
,,,,,,,,,,,,a,Correct!,,,,,,t5.png,t4.png,1,0.9,19,Male,2020-09-28_11h51.21.022,torte-2b,2020.1.3,Win32,60,13192,1.684105,,,,,,,,,,,,,,,,,,,,,,,,,,,,,,,,,,,,,0,50,50,76,1,,,,,,,,,,,,,,,,,,,,,,,,
,,,,,,,,,,,,a,Correct!,,,,,,t1.png,t2.png,1,0.90025,19,Male,2020-09-28_11h51.21.022,torte-2b,2020.1.3,Win32,60,13192,1.23992,,,,,,,,,,,,,,,,,,,,,,,,,,,,,,,,,,,,,0,51,51,112,1,,,,,,,,,,,,,,,,,,,,,,,,
,,,,,,,,,,,,l,Correct!,,,,,,t1.png,t5.png,4,9.55E-11,19,Male,2020-09-28_11h51.21.022,torte-2b,2020.1.3,Win32,60,13192,1.314435,,,,,,,,,,,,,,,,,,,,,,,,,,,,,,,,,,,,,0,52,52,55,1,,,,,,,,,,,,,,,,,,,,,,,,
,,,,,,,,,,,,l,Correct!,,,,,,t3.png,t1.png,2,0.056466,19,Male,2020-09-28_11h51.21.022,torte-2b,2020.1.3,Win32,60,13192,1.117865,,,,,,,,,,,,,,,,,,,,,,,,,,,,,,,,,,,,,0,53,53,64,1,,,,,,,,,,,,,,,,,,,,,,,,
,,,,,,,,,,,,a,Correct!,,,,,,t3.png,t4.png,1,0.909,19,Male,2020-09-28_11h51.21.022,torte-2b,2020.1.3,Win32,60,13192,1.54654,,,,,,,,,,,,,,,,,,,,,,,,,,,,,,,,,,,,,0,54,54,89,1,,,,,,,,,,,,,,,,,,,,,,,,
,,,,,,,,,,,,a,Correct!,,,,,,t3.png,t4.png,1,0.90855,19,Male,2020-09-28_11h51.21.022,torte-2b,2020.1.3,Win32,60,13192,1.43364,,,,,,,,,,,,,,,,,,,,,,,,,,,,,,,,,,,,,0,55,55,84,1,,,,,,,,,,,,,,,,,,,,,,,,
,,,,,,,,,,,,a,Correct!,,,,,,t3.png,t4.png,1,0.909,19,Male,2020-09-28_11h51.21.022,torte-2b,2020.1.3,Win32,60,13192,1.39509,,,,,,,,,,,,,,,,,,,,,,,,,,,,,,,,,,,,,0,56,56,106,1,,,,,,,,,,,,,,,,,,,,,,,,
,,,,,,,,,,,,a,Correct!,,,,,,t2.png,t3.png,1,0.90855,19,Male,2020-09-28_11h51.21.022,torte-2b,2020.1.3,Win32,60,13192,1.4319,,,,,,,,,,,,,,,,,,,,,,,,,,,,,,,,,,,,,0,57,57,111,1,,,,,,,,,,,,,,,,,,,,,,,,
,,,,,,,,,,,,a,Correct!,,,,,,t4.png,t5.png,1,0.90025,19,Male,2020-09-28_11h51.21.022,torte-2b,2020.1.3,Win32,60,13192,1.331305,,,,,,,,,,,,,,,,,,,,,,,,,,,,,,,,,,,,,0,58,58,47,1,,,,,,,,,,,,,,,,,,,,,,,,
,,,,,,,,,,,,l,Correct!,,,,,,t1.png,t3.png,2,0.056466,19,Male,2020-09-28_11h51.21.022,torte-2b,2020.1.3,Win32,60,13192,0.887465,,,,,,,,,,,,,,,,,,,,,,,,,,,,,,,,,,,,,0,59,59,87,1,,,,,,,,,,,,,,,,,,,,,,,,
,,,,,,,,,,,,a,Incorrect,,,,,,t3.png,t2.png,1,0.90855,19,Male,2020-09-28_11h51.21.022,torte-2b,2020.1.3,Win32,60,13192,1.08603,,,,,,,,,,,,,,,,,,,,,,,,,,,,,,,,,,,,,0,60,60,53,1,,,,,,,,,,,,,,,,,,,,,,,,
,,,,,,,,,,,,l,Correct!,,,,,,t3.png,t1.png,2,0.056466,19,Male,2020-09-28_11h51.21.022,torte-2b,2020.1.3,Win32,60,13192,0.9361,,,,,,,,,,,,,,,,,,,,,,,,,,,,,,,,,,,,,0,61,61,0,1,,,,,,,,,,,,,,,,,,,,,,,,
,,,,,,,,,,,,a,Correct!,,,,,,t5.png,t5.png,0,0.97829,19,Male,2020-09-28_11h51.21.022,torte-2b,2020.1.3,Win32,60,13192,1.12293,,,,,,,,,,,,,,,,,,,,,,,,,,,,,,,,,,,,,0,62,62,25,1,,,,,,,,,,,,,,,,,,,,,,,,
,,,,,,,,,,,,a,Correct!,,,,,,t1.png,t2.png,1,0.90025,19,Male,2020-09-28_11h51.21.022,torte-2b,2020.1.3,Win32,60,13192,1.05614,,,,,,,,,,,,,,,,,,,,,,,,,,,,,,,,,,,,,0,63,63,33,1,,,,,,,,,,,,,,,,,,,,,,,,
,,,,,,,,,,,,a,Correct!,,,,,,t3.png,t2.png,1,0.909,19,Male,2020-09-28_11h51.21.022,torte-2b,2020.1.3,Win32,60,13192,0.9902,,,,,,,,,,,,,,,,,,,,,,,,,,,,,,,,,,,,,0,64,64,23,1,,,,,,,,,,,,,,,,,,,,,,,,
,,,,,,,,,,,,a,Correct!,,,,,,t2.png,t3.png,1,0.90855,19,Male,2020-09-28_11h51.21.022,torte-2b,2020.1.3,Win32,60,13192,0.91833,,,,,,,,,,,,,,,,,,,,,,,,,,,,,,,,,,,,,0,65,65,65,1,,,,,,,,,,,,,,,,,,,,,,,,
,,,,,,,,,,,,a,Correct!,,,,,,t2.png,t1.png,1,0.90025,19,Male,2020-09-28_11h51.21.022,torte-2b,2020.1.3,Win32,60,13192,1.07234,,,,,,,,,,,,,,,,,,,,,,,,,,,,,,,,,,,,,0,66,66,5,1,,,,,,,,,,,,,,,,,,,,,,,,
,,,,,,,,,,,,a,Correct!,,,,,,t1.png,t2.png,1,0.9,19,Male,2020-09-28_11h51.21.022,torte-2b,2020.1.3,Win32,60,13192,0.88197,,,,,,,,,,,,,,,,,,,,,,,,,,,,,,,,,,,,,0,67,67,1,1,,,,,,,,,,,,,,,,,,,,,,,,
,,,,,,,,,,,,l,Correct!,,,,,,t2.png,t4.png,2,0.059078,19,Male,2020-09-28_11h51.21.022,torte-2b,2020.1.3,Win32,60,13192,1.3641,,,,,,,,,,,,,,,,,,,,,,,,,,,,,,,,,,,,,0,68,68,11,1,,,,,,,,,,,,,,,,,,,,,,,,
,,,,,,,,,,,,a,Incorrect,,,,,,t3.png,t5.png,2,0.056466,19,Male,2020-09-28_11h51.21.022,torte-2b,2020.1.3,Win32,60,13192,0.913405,,,,,,,,,,,,,,,,,,,,,,,,,,,,,,,,,,,,,0,69,69,14,1,,,,,,,,,,,,,,,,,,,,,,,,
,,,,,,,,,,,,a,Incorrect,,,,,,t5.png,t2.png,3,0.0000131,19,Male,2020-09-28_11h51.21.022,torte-2b,2020.1.3,Win32,60,13192,1.12419,,,,,,,,,,,,,,,,,,,,,,,,,,,,,,,,,,,,,0,70,70,98,1,,,,,,,,,,,,,,,,,,,,,,,,
,,,,,,,,,,,,a,Correct!,,,,,,t4.png,t4.png,0,0.98115,19,Male,2020-09-28_11h51.21.022,torte-2b,2020.1.3,Win32,60,13192,0.81823,,,,,,,,,,,,,,,,,,,,,,,,,,,,,,,,,,,,,0,71,71,21,1,,,,,,,,,,,,,,,,,,,,,,,,
,,,,,,,,,,,,l,Correct!,,,,,,t3.png,t1.png,2,0.056466,19,Male,2020-09-28_11h51.21.022,torte-2b,2020.1.3,Win32,60,13192,1.140545,,,,,,,,,,,,,,,,,,,,,,,,,,,,,,,,,,,,,0,72,72,32,1,,,,,,,,,,,,,,,,,,,,,,,,
,,,,,,,,,,,,l,Incorrect,,,,,,t2.png,t2.png,0,0.98115,19,Male,2020-09-28_11h51.21.022,torte-2b,2020.1.3,Win32,60,13192,0.84717,,,,,,,,,,,,,,,,,,,,,,,,,,,,,,,,,,,,,0,73,73,57,1,,,,,,,,,,,,,,,,,,,,,,,,
,,,,,,,,,,,,a,Incorrect,,,,,,t4.png,t4.png,0,0.98115,19,Male,2020-09-28_11h51.21.022,torte-2b,2020.1.3,Win32,60,13192,0.94027,,,,,,,,,,,,,,,,,,,,,,,,,,,,,,,,,,,,,0,74,74,52,1,,,,,,,,,,,,,,,,,,,,,,,,
,,,,,,,,,,,,a,Correct!,,,,,,t4.png,t3.png,1,0.90855,19,Male,2020-09-28_11h51.21.022,torte-2b,2020.1.3,Win32,60,13192,1.583055,,,,,,,,,,,,,,,,,,,,,,,,,,,,,,,,,,,,,0,75,75,75,1,,,,,,,,,,,,,,,,,,,,,,,,
,,,,,,,,,,,,l,Incorrect,,,,,,t5.png,t5.png,0,0.97829,19,Male,2020-09-28_11h51.21.022,torte-2b,2020.1.3,Win32,60,13192,2.400165,,,,,,,,,,,,,,,,,,,,,,,,,,,,,,,,,,,,,0,76,76,94,1,,,,,,,,,,,,,,,,,,,,,,,,
,,,,,,,,,,,,l,Correct!,,,,,,t1.png,t5.png,4,9.55E-11,19,Male,2020-09-28_11h51.21.022,torte-2b,2020.1.3,Win32,60,13192,1.030815,,,,,,,,,,,,,,,,,,,,,,,,,,,,,,,,,,,,,0,77,77,12,1,,,,,,,,,,,,,,,,,,,,,,,,
,,,,,,,,,,,,l,Correct!,,,,,,t1.png,t5.png,4,9.55E-11,19,Male,2020-09-28_11h51.21.022,torte-2b,2020.1.3,Win32,60,13192,0.96426,,,,,,,,,,,,,,,,,,,,,,,,,,,,,,,,,,,,,0,78,78,85,1,,,,,,,,,,,,,,,,,,,,,,,,
,,,,,,,,,,,,a,Incorrect,,,,,,t2.png,t5.png,3,0.0000131,19,Male,2020-09-28_11h51.21.022,torte-2b,2020.1.3,Win32,60,13192,1.000885,,,,,,,,,,,,,,,,,,,,,,,,,,,,,,,,,,,,,0,79,79,66,1,,,,,,,,,,,,,,,,,,,,,,,,
,,,,,,,,,,,,a,Correct!,,,,,,t4.png,t5.png,1,0.9,19,Male,2020-09-28_11h51.21.022,torte-2b,2020.1.3,Win32,60,13192,0.99745,,,,,,,,,,,,,,,,,,,,,,,,,,,,,,,,,,,,,0,80,80,115,1,,,,,,,,,,,,,,,,,,,,,,,,
,,,,,,,,,,,,a,Correct!,,,,,,t2.png,t1.png,1,0.90025,19,Male,2020-09-28_11h51.21.022,torte-2b,2020.1.3,Win32,60,13192,1.21743,,,,,,,,,,,,,,,,,,,,,,,,,,,,,,,,,,,,,0,81,81,62,1,,,,,,,,,,,,,,,,,,,,,,,,
,,,,,,,,,,,,l,Incorrect,,,,,,t1.png,t1.png,0,0.97829,19,Male,2020-09-28_11h51.21.022,torte-2b,2020.1.3,Win32,60,13192,1.11406,,,,,,,,,,,,,,,,,,,,,,,,,,,,,,,,,,,,,0,82,82,9,1,,,,,,,,,,,,,,,,,,,,,,,,
,,,,,,,,,,,,a,Correct!,,,,,,t5.png,t4.png,1,0.90025,19,Male,2020-09-28_11h51.21.022,torte-2b,2020.1.3,Win32,60,13192,0.91427,,,,,,,,,,,,,,,,,,,,,,,,,,,,,,,,,,,,,0,83,83,27,1,,,,,,,,,,,,,,,,,,,,,,,,
,,,,,,,,,,,,a,Correct!,,,,,,t3.png,t2.png,1,0.90855,19,Male,2020-09-28_11h51.21.022,torte-2b,2020.1.3,Win32,60,13192,2.134365,,,,,,,,,,,,,,,,,,,,,,,,,,,,,,,,,,,,,0,84,84,97,1,,,,,,,,,,,,,,,,,,,,,,,,
,,,,,,,,,,,,a,Correct!,,,,,,t5.png,t5.png,0,0.97829,19,Male,2020-09-28_11h51.21.022,torte-2b,2020.1.3,Win32,60,13192,0.748175,,,,,,,,,,,,,,,,,,,,,,,,,,,,,,,,,,,,,0,85,85,73,1,,,,,,,,,,,,,,,,,,,,,,,,
,,,,,,,,,,,,a,Incorrect,,,,,,t5.png,t3.png,2,0.056466,19,Male,2020-09-28_11h51.21.022,torte-2b,2020.1.3,Win32,60,13192,1.01418,,,,,,,,,,,,,,,,,,,,,,,,,,,,,,,,,,,,,0,86,86,114,1,,,,,,,,,,,,,,,,,,,,,,,,
,,,,,,,,,,,,l,Correct!,,,,,,t5.png,t1.png,4,9.55E-11,19,Male,2020-09-28_11h51.21.022,torte-2b,2020.1.3,Win32,60,13192,0.85131,,,,,,,,,,,,,,,,,,,,,,,,,,,,,,,,,,,,,0,87,87,22,1,,,,,,,,,,,,,,,,,,,,,,,,
,,,,,,,,,,,,a,Correct!,,,,,,t1.png,t2.png,1,0.90025,19,Male,2020-09-28_11h51.21.022,torte-2b,2020.1.3,Win32,60,13192,1.13132,,,,,,,,,,,,,,,,,,,,,,,,,,,,,,,,,,,,,0,88,88,72,1,,,,,,,,,,,,,,,,,,,,,,,,
,,,,,,,,,,,,a,Correct!,,,,,,t5.png,t4.png,1,0.90025,19,Male,2020-09-28_11h51.21.022,torte-2b,2020.1.3,Win32,60,13192,0.747345,,,,,,,,,,,,,,,,,,,,,,,,,,,,,,,,,,,,,0,89,89,34,1,,,,,,,,,,,,,,,,,,,,,,,,
,,,,,,,,,,,,l,Correct!,,,,,,t4.png,t2.png,2,0.059078,19,Male,2020-09-28_11h51.21.022,torte-2b,2020.1.3,Win32,60,13192,1.03423,,,,,,,,,,,,,,,,,,,,,,,,,,,,,,,,,,,,,0,90,90,86,1,,,,,,,,,,,,,,,,,,,,,,,,
,,,,,,,,,,,,l,Correct!,,,,,,t2.png,t4.png,2,0.059078,19,Male,2020-09-28_11h51.21.022,torte-2b,2020.1.3,Win32,60,13192,0.914115,,,,,,,,,,,,,,,,,,,,,,,,,,,,,,,,,,,,,0,91,91,77,1,,,,,,,,,,,,,,,,,,,,,,,,
,,,,,,,,,,,,l,Correct!,,,,,,t1.png,t3.png,2,0.056466,19,Male,2020-09-28_11h51.21.022,torte-2b,2020.1.3,Win32,60,13192,1.29879,,,,,,,,,,,,,,,,,,,,,,,,,,,,,,,,,,,,,0,92,92,69,1,,,,,,,,,,,,,,,,,,,,,,,,
,,,,,,,,,,,,a,Correct!,,,,,,t4.png,t3.png,1,0.90855,19,Male,2020-09-28_11h51.21.022,torte-2b,2020.1.3,Win32,60,13192,0.947845,,,,,,,,,,,,,,,,,,,,,,,,,,,,,,,,,,,,,0,93,93,35,1,,,,,,,,,,,,,,,,,,,,,,,,
,,,,,,,,,,,,l,Correct!,,,,,,t5.png,t1.png,4,9.55E-11,19,Male,2020-09-28_11h51.21.022,torte-2b,2020.1.3,Win32,60,13192,1.130235,,,,,,,,,,,,,,,,,,,,,,,,,,,,,,,,,,,,,0,94,94,43,1,,,,,,,,,,,,,,,,,,,,,,,,
,,,,,,,,,,,,a,Correct!,,,,,,t2.png,t2.png,0,0.98115,19,Male,2020-09-28_11h51.21.022,torte-2b,2020.1.3,Win32,60,13192,1.00004,,,,,,,,,,,,,,,,,,,,,,,,,,,,,,,,,,,,,0,95,95,7,1,,,,,,,,,,,,,,,,,,,,,,,,
,,,,,,,,,,,,a,Correct!,,,,,,t4.png,t3.png,1,0.909,19,Male,2020-09-28_11h51.21.022,torte-2b,2020.1.3,Win32,60,13192,2.05348,,,,,,,,,,,,,,,,,,,,,,,,,,,,,,,,,,,,,0,96,96,46,1,,,,,,,,,,,,,,,,,,,,,,,,
,,,,,,,,,,,,l,Correct!,,,,,,t4.png,t2.png,2,0.059078,19,Male,2020-09-28_11h51.21.022,torte-2b,2020.1.3,Win32,60,13192,0.824885,,,,,,,,,,,,,,,,,,,,,,,,,,,,,,,,,,,,,0,97,97,109,1,,,,,,,,,,,,,,,,,,,,,,,,
,,,,,,,,,,,,a,Incorrect,,,,,,t1.png,t4.png,3,0.0000131,19,Male,2020-09-28_11h51.21.022,torte-2b,2020.1.3,Win32,60,13192,2.450455,,,,,,,,,,,,,,,,,,,,,,,,,,,,,,,,,,,,,0,98,98,81,1,,,,,,,,,,,,,,,,,,,,,,,,
,,,,,,,,,,,,l,Correct!,,,,,,t1.png,t5.png,4,9.55E-11,19,Male,2020-09-28_11h51.21.022,torte-2b,2020.1.3,Win32,60,13192,0.74753,,,,,,,,,,,,,,,,,,,,,,,,,,,,,,,,,,,,,0,99,99,16,1,,,,,,,,,,,,,,,,,,,,,,,,
,,,,,,,,,,,,a,Correct!,,,,,,t3.png,t2.png,1,0.90855,19,Male,2020-09-28_11h51.21.022,torte-2b,2020.1.3,Win32,60,13192,1.464965,,,,,,,,,,,,,,,,,,,,,,,,,,,,,,,,,,,,,0,100,100,18,1,,,,,,,,,,,,,,,,,,,,,,,,
,,,,,,,,,,,,a,Incorrect,,,,,,t5.png,t3.png,2,0.056466,19,Male,2020-09-28_11h51.21.022,torte-2b,2020.1.3,Win32,60,13192,1.00093,,,,,,,,,,,,,,,,,,,,,,,,,,,,,,,,,,,,,0,101,101,56,1,,,,,,,,,,,,,,,,,,,,,,,,
,,,,,,,,,,,,l,Correct!,,,,,,t5.png,t2.png,3,0.0000131,19,Male,2020-09-28_11h51.21.022,torte-2b,2020.1.3,Win32,60,13192,0.93037,,,,,,,,,,,,,,,,,,,,,,,,,,,,,,,,,,,,,0,102,102,119,1,,,,,,,,,,,,,,,,,,,,,,,,
,,,,,,,,,,,,a,Correct!,,,,,,t4.png,t4.png,0,0.98115,19,Male,2020-09-28_11h51.21.022,torte-2b,2020.1.3,Win32,60,13192,2.01749,,,,,,,,,,,,,,,,,,,,,,,,,,,,,,,,,,,,,0,103,103,90,1,,,,,,,,,,,,,,,,,,,,,,,,
,,,,,,,,,,,,a,Incorrect,,,,,,t5.png,t3.png,2,0.056466,19,Male,2020-09-28_11h51.21.022,torte-2b,2020.1.3,Win32,60,13192,0.95295,,,,,,,,,,,,,,,,,,,,,,,,,,,,,,,,,,,,,0,104,104,108,1,,,,,,,,,,,,,,,,,,,,,,,,
,,,,,,,,,,,,a,Incorrect,,,,,,t4.png,t1.png,3,0.0000131,19,Male,2020-09-28_11h51.21.022,torte-2b,2020.1.3,Win32,60,13192,1.512855,,,,,,,,,,,,,,,,,,,,,,,,,,,,,,,,,,,,,0,105,105,13,1,,,,,,,,,,,,,,,,,,,,,,,,
,,,,,,,,,,,,a,Incorrect,,,,,,t3.png,t5.png,2,0.056466,19,Male,2020-09-28_11h51.21.022,torte-2b,2020.1.3,Win32,60,13192,0.982295,,,,,,,,,,,,,,,,,,,,,,,,,,,,,,,,,,,,,0,106,106,44,1,,,,,,,,,,,,,,,,,,,,,,,,
,,,,,,,,,,,,a,Incorrect,,,,,,t2.png,t5.png,3,0.0000131,19,Male,2020-09-28_11h51.21.022,torte-2b,2020.1.3,Win32,60,13192,1.25642,,,,,,,,,,,,,,,,,,,,,,,,,,,,,,,,,,,,,0,107,107,95,1,,,,,,,,,,,,,,,,,,,,,,,,
,,,,,,,,,,,,a,Incorrect,,,,,,t3.png,t5.png,2,0.0565,19,Male,2020-09-28_11h51.21.022,torte-2b,2020.1.3,Win32,60,13192,0.95205,,,,,,,,,,,,,,,,,,,,,,,,,,,,,,,,,,,,,0,108,108,83,1,,,,,,,,,,,,,,,,,,,,,,,,
,,,,,,,,,,,,l,Correct!,,,,,,t5.png,t1.png,4,9.55E-11,19,Male,2020-09-28_11h51.21.022,torte-2b,2020.1.3,Win32,60,13192,0.93552,,,,,,,,,,,,,,,,,,,,,,,,,,,,,,,,,,,,,0,109,109,102,1,,,,,,,,,,,,,,,,,,,,,,,,
,,,,,,,,,,,,a,Correct!,,,,,,t5.png,t4.png,1,0.90025,19,Male,2020-09-28_11h51.21.022,torte-2b,2020.1.3,Win32,60,13192,0.882085,,,,,,,,,,,,,,,,,,,,,,,,,,,,,,,,,,,,,0,110,110,26,1,,,,,,,,,,,,,,,,,,,,,,,,
,,,,,,,,,,,,a,Incorrect,,,,,,t5.png,t3.png,2,0.056466,19,Male,2020-09-28_11h51.21.022,torte-2b,2020.1.3,Win32,60,13192,1.113695,,,,,,,,,,,,,,,,,,,,,,,,,,,,,,,,,,,,,0,111,111,38,1,,,,,,,,,,,,,,,,,,,,,,,,
,,,,,,,,,,,,a,Correct!,,,,,,t2.png,t3.png,1,0.909,19,Male,2020-09-28_11h51.21.022,torte-2b,2020.1.3,Win32,60,13192,1.513535,,,,,,,,,,,,,,,,,,,,,,,,,,,,,,,,,,,,,0,112,112,74,1,,,,,,,,,,,,,,,,,,,,,,,,
,,,,,,,,,,,,l,Correct!,,,,,,t1.png,t1.png,0,0.978,19,Male,2020-09-28_11h51.21.022,torte-2b,2020.1.3,Win32,60,13192,1.551255,,,,,,,,,,,,,,,,,,,,,,,,,,,,,,,,,,,,,0,113,113,54,1,,,,,,,,,,,,,,,,,,,,,,,,
,,,,,,,,,,,,a,Correct!,,,,,,t1.png,t2.png,1,0.90025,19,Male,2020-09-28_11h51.21.022,torte-2b,2020.1.3,Win32,60,13192,1.34744,,,,,,,,,,,,,,,,,,,,,,,,,,,,,,,,,,,,,0,114,114,105,1,,,,,,,,,,,,,,,,,,,,,,,,
,,,,,,,,,,,,a,Incorrect,,,,,,t4.png,t1.png,3,0.0000131,19,Male,2020-09-28_11h51.21.022,torte-2b,2020.1.3,Win32,60,13192,1.188755,,,,,,,,,,,,,,,,,,,,,,,,,,,,,,,,,,,,,0,115,115,48,1,,,,,,,,,,,,,,,,,,,,,,,,
,,,,,,,,,,,,l,Incorrect,,,,,,t2.png,t2.png,0,0.98115,19,Male,2020-09-28_11h51.21.022,torte-2b,2020.1.3,Win32,60,13192,1.118455,,,,,,,,,,,,,,,,,,,,,,,,,,,,,,,,,,,,,0,116,116,59,1,,,,,,,,,,,,,,,,,,,,,,,,
,,,,,,,,,,,,l,Correct!,,,,,,t2.png,t5.png,3,0.0000131,19,Male,2020-09-28_11h51.21.022,torte-2b,2020.1.3,Win32,60,13192,1.381125,,,,,,,,,,,,,,,,,,,,,,,,,,,,,,,,,,,,,0,117,117,8,1,,,,,,,,,,,,,,,,,,,,,,,,
,,,,,,,,,,,,a,Incorrect,,,,,,t4.png,t1.png,3,0.0000131,19,Male,2020-09-28_11h51.21.022,torte-2b,2020.1.3,Win32,60,13192,1.06807,,,,,,,,,,,,,,,,,,,,,,,,,,,,,,,,,,,,,0,118,118,42,1,,,,,,,,,,,,,,,,,,,,,,,,
,,,,,,,,,,,,l,Correct!,,,,,,t2.png,t2.png,0,0.981,19,Male,2020-09-28_11h51.21.022,torte-2b,2020.1.3,Win32,60,13192,0.8647,,,,,,,,,,,,,,,,,,,,,,,,,,,,,,,,,,,,,0,119,119,101,1,,,,,,,,,,,,,,,,,,,,,,,,
,,,,,,,,,,,,,,,,,,,,,,,19,Male,2020-09-28_11h51.21.022,torte-2b,2020.1.3,Win32,60,13192,,space,1.59868,,,,,,,,,,,,,,,,,,,,,,,,,,,,,,,,,,,,,,,,-98.39994119,-58.40000731,1,0,0,s5,48.00001216,44.79999423,1,0,0,t2,204.8000145,-90.40000778,1,0,0,proceed,space,1.620085,space,0.4809,space,0.418905
