key_resp_8.keys,key_resp_8.rt,key_resp_9.keys,key_resp_9.rt,key_resp_10.keys,key_resp_10.rt,key_resp_11.keys,key_resp_11.rt,key_resp_2.keys,key_resp_2.rt,key_resp_3.keys,key_resp_3.rt,key_resp.keys,Feedback,train.thisRepN,train.thisTrialN,train.thisN,train.thisIndex,train.ran,torta_sx,torta_dx,difference,probability,age,gender,date,expName,psychopyVersion,OS,frameRate,participant,key_resp.rt,key_resp_15.keys,key_resp_15.rt,key_resp_6.keys,key_resp_6.rt,test1.thisRepN,test1.thisTrialN,test1.thisN,test1.thisIndex,test1.ran,key_resp_4.keys,key_resp_4.rt,key_resp_5.keys,back1.thisRepN,back1.thisTrialN,back1.thisN,back1.thisIndex,back1.ran,letter,key_resp_5.rt,back2.thisRepN,back2.thisTrialN,back2.thisN,back2.thisIndex,back2.ran,back3.thisRepN,back3.thisTrialN,back3.thisN,back3.thisIndex,back3.ran,back4.thisRepN,back4.thisTrialN,back4.thisN,back4.thisIndex,back4.ran,key_resp_7.keys,key_resp_7.rt,test2.thisRepN,test2.thisTrialN,test2.thisN,test2.thisIndex,test2.ran,mouse.x,mouse.y,mouse.leftButton,mouse.midButton,mouse.rightButton,mouse.clicked_name,mouse_2.x,mouse_2.y,mouse_2.leftButton,mouse_2.midButton,mouse_2.rightButton,mouse_2.clicked_name,mouse_3.x,mouse_3.y,mouse_3.leftButton,mouse_3.midButton,mouse_3.rightButton,mouse_3.clicked_name,key_resp_12.keys,key_resp_12.rt,key_resp_13.keys,key_resp_13.rt,key_resp_14.keys,key_resp_14.rt
space,4.491955,space,0.88417,space,2.61847,space,0.828005,space,94.426145,space,100.260435,,Too slow :(,0,0,0,38,1,t3.png,t1.png,2,0.056466,20,Female,2020-11-19_14h27.43.693,torte-2b,2020.1.3,Win32,60,13217,,,,,,,,,,,,,,,,,,,,,,,,,,,,,,,,,,,,,,,,,,,,,,,,,,,,,,,,,,,,,,,,,,
,,,,,,,,,,,,l,Correct!,0,1,1,37,1,t1.png,t4.png,3,0.0000131,20,Female,2020-11-19_14h27.43.693,torte-2b,2020.1.3,Win32,60,13217,1.41429,,,,,,,,,,,,,,,,,,,,,,,,,,,,,,,,,,,,,,,,,,,,,,,,,,,,,,,,,,,,,,,,,
,,,,,,,,,,,,l,Incorrect,0,2,2,44,1,t2.png,t3.png,1,0.909,20,Female,2020-11-19_14h27.43.693,torte-2b,2020.1.3,Win32,60,13217,1.38635,,,,,,,,,,,,,,,,,,,,,,,,,,,,,,,,,,,,,,,,,,,,,,,,,,,,,,,,,,,,,,,,,
,,,,,,,,,,,,l,Correct!,0,3,3,92,1,t2.png,t3.png,1,0.909,20,Female,2020-11-19_14h27.43.693,torte-2b,2020.1.3,Win32,60,13217,2.165745,,,,,,,,,,,,,,,,,,,,,,,,,,,,,,,,,,,,,,,,,,,,,,,,,,,,,,,,,,,,,,,,,
,,,,,,,,,,,,l,Correct!,0,4,4,65,1,t4.png,t5.png,1,0.90025,20,Female,2020-11-19_14h27.43.693,torte-2b,2020.1.3,Win32,60,13217,1.91523,,,,,,,,,,,,,,,,,,,,,,,,,,,,,,,,,,,,,,,,,,,,,,,,,,,,,,,,,,,,,,,,,
,,,,,,,,,,,,a,Incorrect,0,5,5,108,1,t5.png,t1.png,4,9.55E-11,20,Female,2020-11-19_14h27.43.693,torte-2b,2020.1.3,Win32,60,13217,0.749805,,,,,,,,,,,,,,,,,,,,,,,,,,,,,,,,,,,,,,,,,,,,,,,,,,,,,,,,,,,,,,,,,
,,,,,,,,,,,,a,Correct!,0,6,6,116,1,t5.png,t4.png,1,0.90025,20,Female,2020-11-19_14h27.43.693,torte-2b,2020.1.3,Win32,60,13217,1.481325,,,,,,,,,,,,,,,,,,,,,,,,,,,,,,,,,,,,,,,,,,,,,,,,,,,,,,,,,,,,,,,,,
,,,,,,,,,,,,l,Correct!,0,7,7,90,1,t1.png,t5.png,4,9.55E-11,20,Female,2020-11-19_14h27.43.693,torte-2b,2020.1.3,Win32,60,13217,0.90031,,,,,,,,,,,,,,,,,,,,,,,,,,,,,,,,,,,,,,,,,,,,,,,,,,,,,,,,,,,,,,,,,
,,,,,,,,,,,,a,Incorrect,0,8,8,53,1,t3.png,t1.png,2,0.056466,20,Female,2020-11-19_14h27.43.693,torte-2b,2020.1.3,Win32,60,13217,0.72556,,,,,,,,,,,,,,,,,,,,,,,,,,,,,,,,,,,,,,,,,,,,,,,,,,,,,,,,,,,,,,,,,
,,,,,,,,,,,,l,Correct!,0,9,9,115,1,t2.png,t4.png,2,0.059078,20,Female,2020-11-19_14h27.43.693,torte-2b,2020.1.3,Win32,60,13217,1.01586,,,,,,,,,,,,,,,,,,,,,,,,,,,,,,,,,,,,,,,,,,,,,,,,,,,,,,,,,,,,,,,,,
,,,,,,,,,,,,l,Correct!,0,10,10,35,1,t1.png,t4.png,3,0.0000131,20,Female,2020-11-19_14h27.43.693,torte-2b,2020.1.3,Win32,60,13217,1.04251,,,,,,,,,,,,,,,,,,,,,,,,,,,,,,,,,,,,,,,,,,,,,,,,,,,,,,,,,,,,,,,,,
,,,,,,,,,,,,l,Correct!,0,11,11,66,1,t4.png,t5.png,1,0.9,20,Female,2020-11-19_14h27.43.693,torte-2b,2020.1.3,Win32,60,13217,1.348305,,,,,,,,,,,,,,,,,,,,,,,,,,,,,,,,,,,,,,,,,,,,,,,,,,,,,,,,,,,,,,,,,
,,,,,,,,,,,,a,Correct!,0,12,12,75,1,t1.png,t1.png,0,0.97829,20,Female,2020-11-19_14h27.43.693,torte-2b,2020.1.3,Win32,60,13217,1.111035,,,,,,,,,,,,,,,,,,,,,,,,,,,,,,,,,,,,,,,,,,,,,,,,,,,,,,,,,,,,,,,,,
,,,,,,,,,,,,a,Incorrect,0,13,13,73,1,t4.png,t2.png,2,0.059078,20,Female,2020-11-19_14h27.43.693,torte-2b,2020.1.3,Win32,60,13217,0.748015,,,,,,,,,,,,,,,,,,,,,,,,,,,,,,,,,,,,,,,,,,,,,,,,,,,,,,,,,,,,,,,,,
,,,,,,,,,,,,l,Incorrect,0,14,14,48,1,t5.png,t5.png,0,0.97829,20,Female,2020-11-19_14h27.43.693,torte-2b,2020.1.3,Win32,60,13217,1.51914,,,,,,,,,,,,,,,,,,,,,,,,,,,,,,,,,,,,,,,,,,,,,,,,,,,,,,,,,,,,,,,,,
,,,,,,,,,,,,l,Correct!,0,15,15,67,1,t1.png,t5.png,4,9.55E-11,20,Female,2020-11-19_14h27.43.693,torte-2b,2020.1.3,Win32,60,13217,0.569485,,,,,,,,,,,,,,,,,,,,,,,,,,,,,,,,,,,,,,,,,,,,,,,,,,,,,,,,,,,,,,,,,
,,,,,,,,,,,,l,Incorrect,0,16,16,10,1,t2.png,t3.png,1,0.90855,20,Female,2020-11-19_14h27.43.693,torte-2b,2020.1.3,Win32,60,13217,0.94833,,,,,,,,,,,,,,,,,,,,,,,,,,,,,,,,,,,,,,,,,,,,,,,,,,,,,,,,,,,,,,,,,
,,,,,,,,,,,,a,Correct!,0,17,17,110,1,t4.png,t5.png,1,0.90025,20,Female,2020-11-19_14h27.43.693,torte-2b,2020.1.3,Win32,60,13217,0.957785,,,,,,,,,,,,,,,,,,,,,,,,,,,,,,,,,,,,,,,,,,,,,,,,,,,,,,,,,,,,,,,,,
,,,,,,,,,,,,l,Incorrect,0,18,18,9,1,t4.png,t5.png,1,0.9,20,Female,2020-11-19_14h27.43.693,torte-2b,2020.1.3,Win32,60,13217,0.94826,,,,,,,,,,,,,,,,,,,,,,,,,,,,,,,,,,,,,,,,,,,,,,,,,,,,,,,,,,,,,,,,,
,,,,,,,,,,,,a,Incorrect,0,19,19,103,1,t3.png,t1.png,2,0.056466,20,Female,2020-11-19_14h27.43.693,torte-2b,2020.1.3,Win32,60,13217,0.5386,,,,,,,,,,,,,,,,,,,,,,,,,,,,,,,,,,,,,,,,,,,,,,,,,,,,,,,,,,,,,,,,,
,,,,,,,,,,,,l,Incorrect,0,20,20,22,1,t2.png,t3.png,1,0.90855,20,Female,2020-11-19_14h27.43.693,torte-2b,2020.1.3,Win32,60,13217,0.870045,,,,,,,,,,,,,,,,,,,,,,,,,,,,,,,,,,,,,,,,,,,,,,,,,,,,,,,,,,,,,,,,,
,,,,,,,,,,,,a,Incorrect,0,21,21,0,1,t5.png,t1.png,4,9.55E-11,20,Female,2020-11-19_14h27.43.693,torte-2b,2020.1.3,Win32,60,13217,0.524225,,,,,,,,,,,,,,,,,,,,,,,,,,,,,,,,,,,,,,,,,,,,,,,,,,,,,,,,,,,,,,,,,
,,,,,,,,,,,,l,Incorrect,0,22,22,64,1,t1.png,t1.png,0,0.978,20,Female,2020-11-19_14h27.43.693,torte-2b,2020.1.3,Win32,60,13217,0.723515,,,,,,,,,,,,,,,,,,,,,,,,,,,,,,,,,,,,,,,,,,,,,,,,,,,,,,,,,,,,,,,,,
,,,,,,,,,,,,l,Correct!,0,23,23,1,1,t2.png,t4.png,2,0.059078,20,Female,2020-11-19_14h27.43.693,torte-2b,2020.1.3,Win32,60,13217,0.587375,,,,,,,,,,,,,,,,,,,,,,,,,,,,,,,,,,,,,,,,,,,,,,,,,,,,,,,,,,,,,,,,,
,,,,,,,,,,,,l,Correct!,0,24,24,54,1,t1.png,t5.png,4,9.55E-11,20,Female,2020-11-19_14h27.43.693,torte-2b,2020.1.3,Win32,60,13217,0.790115,,,,,,,,,,,,,,,,,,,,,,,,,,,,,,,,,,,,,,,,,,,,,,,,,,,,,,,,,,,,,,,,,
,,,,,,,,,,,,a,Incorrect,0,25,25,94,1,t5.png,t1.png,4,9.55E-11,20,Female,2020-11-19_14h27.43.693,torte-2b,2020.1.3,Win32,60,13217,0.75656,,,,,,,,,,,,,,,,,,,,,,,,,,,,,,,,,,,,,,,,,,,,,,,,,,,,,,,,,,,,,,,,,
,,,,,,,,,,,,l,Incorrect,0,26,26,114,1,t2.png,t3.png,1,0.90855,20,Female,2020-11-19_14h27.43.693,torte-2b,2020.1.3,Win32,60,13217,0.731495,,,,,,,,,,,,,,,,,,,,,,,,,,,,,,,,,,,,,,,,,,,,,,,,,,,,,,,,,,,,,,,,,
,,,,,,,,,,,,l,Correct!,0,27,27,117,1,t1.png,t5.png,4,9.55E-11,20,Female,2020-11-19_14h27.43.693,torte-2b,2020.1.3,Win32,60,13217,0.46479,,,,,,,,,,,,,,,,,,,,,,,,,,,,,,,,,,,,,,,,,,,,,,,,,,,,,,,,,,,,,,,,,
,,,,,,,,,,,,a,Correct!,0,28,28,45,1,t3.png,t2.png,1,0.90855,20,Female,2020-11-19_14h27.43.693,torte-2b,2020.1.3,Win32,60,13217,0.70481,,,,,,,,,,,,,,,,,,,,,,,,,,,,,,,,,,,,,,,,,,,,,,,,,,,,,,,,,,,,,,,,,
,,,,,,,,,,,,a,Incorrect,0,29,29,46,1,t4.png,t2.png,2,0.059078,20,Female,2020-11-19_14h27.43.693,torte-2b,2020.1.3,Win32,60,13217,1.015765,,,,,,,,,,,,,,,,,,,,,,,,,,,,,,,,,,,,,,,,,,,,,,,,,,,,,,,,,,,,,,,,,
,,,,,,,,,,,,l,Incorrect,0,30,30,18,1,t4.png,t5.png,1,0.90025,20,Female,2020-11-19_14h27.43.693,torte-2b,2020.1.3,Win32,60,13217,1.200385,,,,,,,,,,,,,,,,,,,,,,,,,,,,,,,,,,,,,,,,,,,,,,,,,,,,,,,,,,,,,,,,,
,,,,,,,,,,,,a,Correct!,0,31,31,96,1,t1.png,t1.png,0,0.97829,20,Female,2020-11-19_14h27.43.693,torte-2b,2020.1.3,Win32,60,13217,0.8984,,,,,,,,,,,,,,,,,,,,,,,,,,,,,,,,,,,,,,,,,,,,,,,,,,,,,,,,,,,,,,,,,
,,,,,,,,,,,,l,Correct!,0,32,32,31,1,t1.png,t5.png,4,9.55E-11,20,Female,2020-11-19_14h27.43.693,torte-2b,2020.1.3,Win32,60,13217,0.531095,,,,,,,,,,,,,,,,,,,,,,,,,,,,,,,,,,,,,,,,,,,,,,,,,,,,,,,,,,,,,,,,,
,,,,,,,,,,,,l,Incorrect,0,33,33,100,1,t4.png,t5.png,1,0.90025,20,Female,2020-11-19_14h27.43.693,torte-2b,2020.1.3,Win32,60,13217,1.557825,,,,,,,,,,,,,,,,,,,,,,,,,,,,,,,,,,,,,,,,,,,,,,,,,,,,,,,,,,,,,,,,,
,,,,,,,,,,,,l,Incorrect,0,34,34,28,1,t2.png,t3.png,1,0.909,20,Female,2020-11-19_14h27.43.693,torte-2b,2020.1.3,Win32,60,13217,0.79847,,,,,,,,,,,,,,,,,,,,,,,,,,,,,,,,,,,,,,,,,,,,,,,,,,,,,,,,,,,,,,,,,
,,,,,,,,,,,,l,Correct!,0,35,35,3,1,t1.png,t5.png,4,9.55E-11,20,Female,2020-11-19_14h27.43.693,torte-2b,2020.1.3,Win32,60,13217,0.502185,,,,,,,,,,,,,,,,,,,,,,,,,,,,,,,,,,,,,,,,,,,,,,,,,,,,,,,,,,,,,,,,,
,,,,,,,,,,,,a,Correct!,0,36,36,81,1,t1.png,t1.png,0,0.97829,20,Female,2020-11-19_14h27.43.693,torte-2b,2020.1.3,Win32,60,13217,0.85434,,,,,,,,,,,,,,,,,,,,,,,,,,,,,,,,,,,,,,,,,,,,,,,,,,,,,,,,,,,,,,,,,
,,,,,,,,,,,,l,Incorrect,0,37,37,7,1,t4.png,t5.png,1,0.90025,20,Female,2020-11-19_14h27.43.693,torte-2b,2020.1.3,Win32,60,13217,1.252335,,,,,,,,,,,,,,,,,,,,,,,,,,,,,,,,,,,,,,,,,,,,,,,,,,,,,,,,,,,,,,,,,
,,,,,,,,,,,,a,Correct!,0,38,38,69,1,t4.png,t2.png,2,0.059078,20,Female,2020-11-19_14h27.43.693,torte-2b,2020.1.3,Win32,60,13217,0.53231,,,,,,,,,,,,,,,,,,,,,,,,,,,,,,,,,,,,,,,,,,,,,,,,,,,,,,,,,,,,,,,,,
,,,,,,,,,,,,a,Incorrect,0,39,39,87,1,t5.png,t1.png,4,9.55E-11,20,Female,2020-11-19_14h27.43.693,torte-2b,2020.1.3,Win32,60,13217,0.576925,,,,,,,,,,,,,,,,,,,,,,,,,,,,,,,,,,,,,,,,,,,,,,,,,,,,,,,,,,,,,,,,,
,,,,,,,,,,,,l,Correct!,0,40,40,98,1,t2.png,t4.png,2,0.0591,20,Female,2020-11-19_14h27.43.693,torte-2b,2020.1.3,Win32,60,13217,0.477075,,,,,,,,,,,,,,,,,,,,,,,,,,,,,,,,,,,,,,,,,,,,,,,,,,,,,,,,,,,,,,,,,
,,,,,,,,,,,,a,Correct!,0,41,41,59,1,t5.png,t4.png,1,0.9,20,Female,2020-11-19_14h27.43.693,torte-2b,2020.1.3,Win32,60,13217,0.570465,,,,,,,,,,,,,,,,,,,,,,,,,,,,,,,,,,,,,,,,,,,,,,,,,,,,,,,,,,,,,,,,,
,,,,,,,,,,,,a,Incorrect,0,42,42,42,1,t5.png,t4.png,1,0.90025,20,Female,2020-11-19_14h27.43.693,torte-2b,2020.1.3,Win32,60,13217,1.16881,,,,,,,,,,,,,,,,,,,,,,,,,,,,,,,,,,,,,,,,,,,,,,,,,,,,,,,,,,,,,,,,,
,,,,,,,,,,,,l,Correct!,0,43,43,68,1,t1.png,t4.png,3,0.0000131,20,Female,2020-11-19_14h27.43.693,torte-2b,2020.1.3,Win32,60,13217,0.4987,,,,,,,,,,,,,,,,,,,,,,,,,,,,,,,,,,,,,,,,,,,,,,,,,,,,,,,,,,,,,,,,,
,,,,,,,,,,,,a,Correct!,0,44,44,105,1,t3.png,t2.png,1,0.90855,20,Female,2020-11-19_14h27.43.693,torte-2b,2020.1.3,Win32,60,13217,0.95292,,,,,,,,,,,,,,,,,,,,,,,,,,,,,,,,,,,,,,,,,,,,,,,,,,,,,,,,,,,,,,,,,
,,,,,,,,,,,,l,Correct!,0,45,45,118,1,t5.png,t5.png,0,0.978,20,Female,2020-11-19_14h27.43.693,torte-2b,2020.1.3,Win32,60,13217,0.882695,,,,,,,,,,,,,,,,,,,,,,,,,,,,,,,,,,,,,,,,,,,,,,,,,,,,,,,,,,,,,,,,,
,,,,,,,,,,,,a,Correct!,0,46,46,21,1,t5.png,t4.png,1,0.90025,20,Female,2020-11-19_14h27.43.693,torte-2b,2020.1.3,Win32,60,13217,1.02038,,,,,,,,,,,,,,,,,,,,,,,,,,,,,,,,,,,,,,,,,,,,,,,,,,,,,,,,,,,,,,,,,
,,,,,,,,,,,,l,Correct!,0,47,47,119,1,t1.png,t5.png,4,9.55E-11,20,Female,2020-11-19_14h27.43.693,torte-2b,2020.1.3,Win32,60,13217,0.474065,,,,,,,,,,,,,,,,,,,,,,,,,,,,,,,,,,,,,,,,,,,,,,,,,,,,,,,,,,,,,,,,,
,,,,,,,,,,,,l,Correct!,0,48,48,57,1,t2.png,t4.png,2,0.059078,20,Female,2020-11-19_14h27.43.693,torte-2b,2020.1.3,Win32,60,13217,0.523575,,,,,,,,,,,,,,,,,,,,,,,,,,,,,,,,,,,,,,,,,,,,,,,,,,,,,,,,,,,,,,,,,
,,,,,,,,,,,,a,Correct!,0,49,49,79,1,t3.png,t2.png,1,0.909,20,Female,2020-11-19_14h27.43.693,torte-2b,2020.1.3,Win32,60,13217,1.02154,,,,,,,,,,,,,,,,,,,,,,,,,,,,,,,,,,,,,,,,,,,,,,,,,,,,,,,,,,,,,,,,,
,,,,,,,,,,,,a,Correct!,0,50,50,74,1,t5.png,t4.png,1,0.9,20,Female,2020-11-19_14h27.43.693,torte-2b,2020.1.3,Win32,60,13217,0.805145,,,,,,,,,,,,,,,,,,,,,,,,,,,,,,,,,,,,,,,,,,,,,,,,,,,,,,,,,,,,,,,,,
,,,,,,,,,,,,a,Correct!,0,51,51,34,1,t5.png,t4.png,1,0.9,20,Female,2020-11-19_14h27.43.693,torte-2b,2020.1.3,Win32,60,13217,1.224205,,,,,,,,,,,,,,,,,,,,,,,,,,,,,,,,,,,,,,,,,,,,,,,,,,,,,,,,,,,,,,,,,
,,,,,,,,,,,,l,Correct!,0,52,52,11,1,t1.png,t4.png,3,0.0000131,20,Female,2020-11-19_14h27.43.693,torte-2b,2020.1.3,Win32,60,13217,0.46848,,,,,,,,,,,,,,,,,,,,,,,,,,,,,,,,,,,,,,,,,,,,,,,,,,,,,,,,,,,,,,,,,
,,,,,,,,,,,,l,Incorrect,0,53,53,49,1,t4.png,t5.png,1,0.9,20,Female,2020-11-19_14h27.43.693,torte-2b,2020.1.3,Win32,60,13217,0.81773,,,,,,,,,,,,,,,,,,,,,,,,,,,,,,,,,,,,,,,,,,,,,,,,,,,,,,,,,,,,,,,,,
,,,,,,,,,,,,a,Incorrect,0,54,54,83,1,t3.png,t1.png,2,0.056466,20,Female,2020-11-19_14h27.43.693,torte-2b,2020.1.3,Win32,60,13217,0.552905,,,,,,,,,,,,,,,,,,,,,,,,,,,,,,,,,,,,,,,,,,,,,,,,,,,,,,,,,,,,,,,,,
,,,,,,,,,,,,l,Incorrect,0,55,55,13,1,t5.png,t5.png,0,0.97829,20,Female,2020-11-19_14h27.43.693,torte-2b,2020.1.3,Win32,60,13217,0.78137,,,,,,,,,,,,,,,,,,,,,,,,,,,,,,,,,,,,,,,,,,,,,,,,,,,,,,,,,,,,,,,,,
,,,,,,,,,,,,a,Incorrect,0,56,56,27,1,t3.png,t1.png,2,0.0565,20,Female,2020-11-19_14h27.43.693,torte-2b,2020.1.3,Win32,60,13217,0.52547,,,,,,,,,,,,,,,,,,,,,,,,,,,,,,,,,,,,,,,,,,,,,,,,,,,,,,,,,,,,,,,,,
,,,,,,,,,,,,l,Incorrect,0,57,57,29,1,t5.png,t5.png,0,0.97829,20,Female,2020-11-19_14h27.43.693,torte-2b,2020.1.3,Win32,60,13217,0.77379,,,,,,,,,,,,,,,,,,,,,,,,,,,,,,,,,,,,,,,,,,,,,,,,,,,,,,,,,,,,,,,,,
,,,,,,,,,,,,a,Correct!,0,58,58,39,1,t3.png,t2.png,1,0.90855,20,Female,2020-11-19_14h27.43.693,torte-2b,2020.1.3,Win32,60,13217,0.881425,,,,,,,,,,,,,,,,,,,,,,,,,,,,,,,,,,,,,,,,,,,,,,,,,,,,,,,,,,,,,,,,,
,,,,,,,,,,,,l,Correct!,0,59,59,5,1,t2.png,t4.png,2,0.059078,20,Female,2020-11-19_14h27.43.693,torte-2b,2020.1.3,Win32,60,13217,1.09788,,,,,,,,,,,,,,,,,,,,,,,,,,,,,,,,,,,,,,,,,,,,,,,,,,,,,,,,,,,,,,,,,
,,,,,,,,,,,,a,Incorrect,0,60,60,56,1,t5.png,t1.png,4,9.55E-11,20,Female,2020-11-19_14h27.43.693,torte-2b,2020.1.3,Win32,60,13217,0.44114,,,,,,,,,,,,,,,,,,,,,,,,,,,,,,,,,,,,,,,,,,,,,,,,,,,,,,,,,,,,,,,,,
,,,,,,,,,,,,l,Correct!,0,61,61,80,1,t1.png,t4.png,3,0.0000131,20,Female,2020-11-19_14h27.43.693,torte-2b,2020.1.3,Win32,60,13217,0.449005,,,,,,,,,,,,,,,,,,,,,,,,,,,,,,,,,,,,,,,,,,,,,,,,,,,,,,,,,,,,,,,,,
,,,,,,,,,,,,l,Correct!,0,62,62,6,1,t1.png,t4.png,3,0.0000131,20,Female,2020-11-19_14h27.43.693,torte-2b,2020.1.3,Win32,60,13217,0.65428,,,,,,,,,,,,,,,,,,,,,,,,,,,,,,,,,,,,,,,,,,,,,,,,,,,,,,,,,,,,,,,,,
,,,,,,,,,,,,a,Correct!,0,63,63,25,1,t5.png,t5.png,0,0.97829,20,Female,2020-11-19_14h27.43.693,torte-2b,2020.1.3,Win32,60,13217,0.99777,,,,,,,,,,,,,,,,,,,,,,,,,,,,,,,,,,,,,,,,,,,,,,,,,,,,,,,,,,,,,,,,,
,,,,,,,,,,,,l,Incorrect,0,64,64,32,1,t4.png,t5.png,1,0.90025,20,Female,2020-11-19_14h27.43.693,torte-2b,2020.1.3,Win32,60,13217,0.451665,,,,,,,,,,,,,,,,,,,,,,,,,,,,,,,,,,,,,,,,,,,,,,,,,,,,,,,,,,,,,,,,,
,,,,,,,,,,,,l,Incorrect,0,65,65,106,1,t2.png,t3.png,1,0.90855,20,Female,2020-11-19_14h27.43.693,torte-2b,2020.1.3,Win32,60,13217,0.692005,,,,,,,,,,,,,,,,,,,,,,,,,,,,,,,,,,,,,,,,,,,,,,,,,,,,,,,,,,,,,,,,,
,,,,,,,,,,,,l,Incorrect,0,66,66,20,1,t2.png,t3.png,1,0.90855,20,Female,2020-11-19_14h27.43.693,torte-2b,2020.1.3,Win32,60,13217,0.943195,,,,,,,,,,,,,,,,,,,,,,,,,,,,,,,,,,,,,,,,,,,,,,,,,,,,,,,,,,,,,,,,,
,,,,,,,,,,,,l,Correct!,0,67,67,60,1,t2.png,t4.png,2,0.059078,20,Female,2020-11-19_14h27.43.693,torte-2b,2020.1.3,Win32,60,13217,0.75173,,,,,,,,,,,,,,,,,,,,,,,,,,,,,,,,,,,,,,,,,,,,,,,,,,,,,,,,,,,,,,,,,
,,,,,,,,,,,,l,Incorrect,0,68,68,112,1,t1.png,t1.png,0,0.97829,20,Female,2020-11-19_14h27.43.693,torte-2b,2020.1.3,Win32,60,13217,1.081375,,,,,,,,,,,,,,,,,,,,,,,,,,,,,,,,,,,,,,,,,,,,,,,,,,,,,,,,,,,,,,,,,
,,,,,,,,,,,,l,Incorrect,0,69,69,95,1,t1.png,t1.png,0,0.978,20,Female,2020-11-19_14h27.43.693,torte-2b,2020.1.3,Win32,60,13217,0.8217,,,,,,,,,,,,,,,,,,,,,,,,,,,,,,,,,,,,,,,,,,,,,,,,,,,,,,,,,,,,,,,,,
,,,,,,,,,,,,a,Incorrect,0,70,70,12,1,t5.png,t1.png,4,9.55E-11,20,Female,2020-11-19_14h27.43.693,torte-2b,2020.1.3,Win32,60,13217,2.2175,,,,,,,,,,,,,,,,,,,,,,,,,,,,,,,,,,,,,,,,,,,,,,,,,,,,,,,,,,,,,,,,,
,,,,,,,,,,,,l,Correct!,0,71,71,55,1,t2.png,t4.png,2,0.059078,20,Female,2020-11-19_14h27.43.693,torte-2b,2020.1.3,Win32,60,13217,0.560925,,,,,,,,,,,,,,,,,,,,,,,,,,,,,,,,,,,,,,,,,,,,,,,,,,,,,,,,,,,,,,,,,
,,,,,,,,,,,,a,Incorrect,0,72,72,26,1,t4.png,t2.png,2,0.0591,20,Female,2020-11-19_14h27.43.693,torte-2b,2020.1.3,Win32,60,13217,0.732415,,,,,,,,,,,,,,,,,,,,,,,,,,,,,,,,,,,,,,,,,,,,,,,,,,,,,,,,,,,,,,,,,
,,,,,,,,,,,,a,Incorrect,0,73,73,24,1,t4.png,t2.png,2,0.059078,20,Female,2020-11-19_14h27.43.693,torte-2b,2020.1.3,Win32,60,13217,1.15674,,,,,,,,,,,,,,,,,,,,,,,,,,,,,,,,,,,,,,,,,,,,,,,,,,,,,,,,,,,,,,,,,
,,,,,,,,,,,,l,Correct!,0,74,74,84,1,t1.png,t1.png,0,0.97829,20,Female,2020-11-19_14h27.43.693,torte-2b,2020.1.3,Win32,60,13217,0.47235,,,,,,,,,,,,,,,,,,,,,,,,,,,,,,,,,,,,,,,,,,,,,,,,,,,,,,,,,,,,,,,,,
,,,,,,,,,,,,a,Correct!,0,75,75,113,1,t5.png,t4.png,1,0.9,20,Female,2020-11-19_14h27.43.693,torte-2b,2020.1.3,Win32,60,13217,0.548775,,,,,,,,,,,,,,,,,,,,,,,,,,,,,,,,,,,,,,,,,,,,,,,,,,,,,,,,,,,,,,,,,
,,,,,,,,,,,,a,Incorrect,0,76,76,43,1,t4.png,t2.png,2,0.059078,20,Female,2020-11-19_14h27.43.693,torte-2b,2020.1.3,Win32,60,13217,0.548485,,,,,,,,,,,,,,,,,,,,,,,,,,,,,,,,,,,,,,,,,,,,,,,,,,,,,,,,,,,,,,,,,
,,,,,,,,,,,,l,Incorrect,0,77,77,58,1,t5.png,t4.png,1,0.90025,20,Female,2020-11-19_14h27.43.693,torte-2b,2020.1.3,Win32,60,13217,1.317075,,,,,,,,,,,,,,,,,,,,,,,,,,,,,,,,,,,,,,,,,,,,,,,,,,,,,,,,,,,,,,,,,
,,,,,,,,,,,,a,Incorrect,0,78,78,36,1,t3.png,t1.png,2,0.0565,20,Female,2020-11-19_14h27.43.693,torte-2b,2020.1.3,Win32,60,13217,0.622055,,,,,,,,,,,,,,,,,,,,,,,,,,,,,,,,,,,,,,,,,,,,,,,,,,,,,,,,,,,,,,,,,
,,,,,,,,,,,,l,Incorrect,0,79,79,97,1,t5.png,t5.png,0,0.97829,20,Female,2020-11-19_14h27.43.693,torte-2b,2020.1.3,Win32,60,13217,0.81569,,,,,,,,,,,,,,,,,,,,,,,,,,,,,,,,,,,,,,,,,,,,,,,,,,,,,,,,,,,,,,,,,
,,,,,,,,,,,,a,Correct!,0,80,80,15,1,t3.png,t2.png,1,0.90855,20,Female,2020-11-19_14h27.43.693,torte-2b,2020.1.3,Win32,60,13217,1.143215,,,,,,,,,,,,,,,,,,,,,,,,,,,,,,,,,,,,,,,,,,,,,,,,,,,,,,,,,,,,,,,,,
,,,,,,,,,,,,l,Correct!,0,81,81,61,1,t1.png,t4.png,3,0.0000131,20,Female,2020-11-19_14h27.43.693,torte-2b,2020.1.3,Win32,60,13217,1.116165,,,,,,,,,,,,,,,,,,,,,,,,,,,,,,,,,,,,,,,,,,,,,,,,,,,,,,,,,,,,,,,,,
,,,,,,,,,,,,l,Correct!,0,82,82,14,1,t2.png,t4.png,2,0.059078,20,Female,2020-11-19_14h27.43.693,torte-2b,2020.1.3,Win32,60,13217,0.622925,,,,,,,,,,,,,,,,,,,,,,,,,,,,,,,,,,,,,,,,,,,,,,,,,,,,,,,,,,,,,,,,,
,,,,,,,,,,,,a,Correct!,0,83,83,85,1,t3.png,t2.png,1,0.90855,20,Female,2020-11-19_14h27.43.693,torte-2b,2020.1.3,Win32,60,13217,0.831365,,,,,,,,,,,,,,,,,,,,,,,,,,,,,,,,,,,,,,,,,,,,,,,,,,,,,,,,,,,,,,,,,
,,,,,,,,,,,,l,Correct!,0,84,84,93,1,t2.png,t4.png,2,0.059078,20,Female,2020-11-19_14h27.43.693,torte-2b,2020.1.3,Win32,60,13217,0.65256,,,,,,,,,,,,,,,,,,,,,,,,,,,,,,,,,,,,,,,,,,,,,,,,,,,,,,,,,,,,,,,,,
,,,,,,,,,,,,l,Incorrect,0,85,85,62,1,t5.png,t5.png,0,0.978,20,Female,2020-11-19_14h27.43.693,torte-2b,2020.1.3,Win32,60,13217,0.90352,,,,,,,,,,,,,,,,,,,,,,,,,,,,,,,,,,,,,,,,,,,,,,,,,,,,,,,,,,,,,,,,,
,,,,,,,,,,,,a,Correct!,0,86,86,70,1,t5.png,t5.png,0,0.978,20,Female,2020-11-19_14h27.43.693,torte-2b,2020.1.3,Win32,60,13217,0.958555,,,,,,,,,,,,,,,,,,,,,,,,,,,,,,,,,,,,,,,,,,,,,,,,,,,,,,,,,,,,,,,,,
,,,,,,,,,,,,a,Correct!,0,87,87,78,1,t1.png,t1.png,0,0.978,20,Female,2020-11-19_14h27.43.693,torte-2b,2020.1.3,Win32,60,13217,0.823555,,,,,,,,,,,,,,,,,,,,,,,,,,,,,,,,,,,,,,,,,,,,,,,,,,,,,,,,,,,,,,,,,
,,,,,,,,,,,,l,Correct!,0,88,88,52,1,t2.png,t4.png,2,0.059078,20,Female,2020-11-19_14h27.43.693,torte-2b,2020.1.3,Win32,60,13217,0.77287,,,,,,,,,,,,,,,,,,,,,,,,,,,,,,,,,,,,,,,,,,,,,,,,,,,,,,,,,,,,,,,,,
,,,,,,,,,,,,a,Correct!,0,89,89,107,1,t1.png,t1.png,0,0.978,20,Female,2020-11-19_14h27.43.693,torte-2b,2020.1.3,Win32,60,13217,0.670715,,,,,,,,,,,,,,,,,,,,,,,,,,,,,,,,,,,,,,,,,,,,,,,,,,,,,,,,,,,,,,,,,
,,,,,,,,,,,,a,Correct!,0,90,90,16,1,t5.png,t4.png,1,0.9,20,Female,2020-11-19_14h27.43.693,torte-2b,2020.1.3,Win32,60,13217,0.83403,,,,,,,,,,,,,,,,,,,,,,,,,,,,,,,,,,,,,,,,,,,,,,,,,,,,,,,,,,,,,,,,,
,,,,,,,,,,,,a,Correct!,0,91,91,71,1,t5.png,t5.png,0,0.97829,20,Female,2020-11-19_14h27.43.693,torte-2b,2020.1.3,Win32,60,13217,0.63167,,,,,,,,,,,,,,,,,,,,,,,,,,,,,,,,,,,,,,,,,,,,,,,,,,,,,,,,,,,,,,,,,
,,,,,,,,,,,,l,Correct!,0,92,92,17,1,t1.png,t4.png,3,0.0000131,20,Female,2020-11-19_14h27.43.693,torte-2b,2020.1.3,Win32,60,13217,0.60005,,,,,,,,,,,,,,,,,,,,,,,,,,,,,,,,,,,,,,,,,,,,,,,,,,,,,,,,,,,,,,,,,
,,,,,,,,,,,,a,Incorrect,0,93,93,30,1,t3.png,t1.png,2,0.056466,20,Female,2020-11-19_14h27.43.693,torte-2b,2020.1.3,Win32,60,13217,0.56568,,,,,,,,,,,,,,,,,,,,,,,,,,,,,,,,,,,,,,,,,,,,,,,,,,,,,,,,,,,,,,,,,
,,,,,,,,,,,,l,Incorrect,0,94,94,63,1,t2.png,t3.png,1,0.909,20,Female,2020-11-19_14h27.43.693,torte-2b,2020.1.3,Win32,60,13217,0.65926,,,,,,,,,,,,,,,,,,,,,,,,,,,,,,,,,,,,,,,,,,,,,,,,,,,,,,,,,,,,,,,,,
,,,,,,,,,,,,l,Correct!,0,95,95,40,1,t1.png,t5.png,4,9.55E-11,20,Female,2020-11-19_14h27.43.693,torte-2b,2020.1.3,Win32,60,13217,0.805375,,,,,,,,,,,,,,,,,,,,,,,,,,,,,,,,,,,,,,,,,,,,,,,,,,,,,,,,,,,,,,,,,
,,,,,,,,,,,,a,Correct!,0,96,96,104,1,t2.png,t3.png,1,0.90855,20,Female,2020-11-19_14h27.43.693,torte-2b,2020.1.3,Win32,60,13217,1.567645,,,,,,,,,,,,,,,,,,,,,,,,,,,,,,,,,,,,,,,,,,,,,,,,,,,,,,,,,,,,,,,,,
,,,,,,,,,,,,a,Incorrect,0,97,97,33,1,t5.png,t1.png,4,9.55E-11,20,Female,2020-11-19_14h27.43.693,torte-2b,2020.1.3,Win32,60,13217,0.941295,,,,,,,,,,,,,,,,,,,,,,,,,,,,,,,,,,,,,,,,,,,,,,,,,,,,,,,,,,,,,,,,,
,,,,,,,,,,,,l,Correct!,0,98,98,72,1,t4.png,t2.png,2,0.059078,20,Female,2020-11-19_14h27.43.693,torte-2b,2020.1.3,Win32,60,13217,0.84294,,,,,,,,,,,,,,,,,,,,,,,,,,,,,,,,,,,,,,,,,,,,,,,,,,,,,,,,,,,,,,,,,
,,,,,,,,,,,,l,Incorrect,0,99,99,41,1,t3.png,t2.png,1,0.90855,20,Female,2020-11-19_14h27.43.693,torte-2b,2020.1.3,Win32,60,13217,0.53229,,,,,,,,,,,,,,,,,,,,,,,,,,,,,,,,,,,,,,,,,,,,,,,,,,,,,,,,,,,,,,,,,
,,,,,,,,,,,,a,Correct!,0,100,100,77,1,t1.png,t1.png,0,0.97829,20,Female,2020-11-19_14h27.43.693,torte-2b,2020.1.3,Win32,60,13217,0.77173,,,,,,,,,,,,,,,,,,,,,,,,,,,,,,,,,,,,,,,,,,,,,,,,,,,,,,,,,,,,,,,,,
,,,,,,,,,,,,,Too slow :(,0,101,101,91,1,t1.png,t4.png,3,0.0000131,20,Female,2020-11-19_14h27.43.693,torte-2b,2020.1.3,Win32,60,13217,,,,,,,,,,,,,,,,,,,,,,,,,,,,,,,,,,,,,,,,,,,,,,,,,,,,,,,,,,,,,,,,,,
,,,,,,,,,,,,a,Correct!,0,102,102,76,1,t3.png,t2.png,1,0.90855,20,Female,2020-11-19_14h27.43.693,torte-2b,2020.1.3,Win32,60,13217,0.60029,,,,,,,,,,,,,,,,,,,,,,,,,,,,,,,,,,,,,,,,,,,,,,,,,,,,,,,,,,,,,,,,,
,,,,,,,,,,,,a,Incorrect,0,103,103,19,1,t4.png,t2.png,2,0.059078,20,Female,2020-11-19_14h27.43.693,torte-2b,2020.1.3,Win32,60,13217,0.420375,,,,,,,,,,,,,,,,,,,,,,,,,,,,,,,,,,,,,,,,,,,,,,,,,,,,,,,,,,,,,,,,,
,,,,,,,,,,,,a,Correct!,0,104,104,47,1,t4.png,t2.png,2,0.059078,20,Female,2020-11-19_14h27.43.693,torte-2b,2020.1.3,Win32,60,13217,0.60487,,,,,,,,,,,,,,,,,,,,,,,,,,,,,,,,,,,,,,,,,,,,,,,,,,,,,,,,,,,,,,,,,
,,,,,,,,,,,,l,Correct!,0,105,105,89,1,t1.png,t4.png,3,0.0000131,20,Female,2020-11-19_14h27.43.693,torte-2b,2020.1.3,Win32,60,13217,0.584285,,,,,,,,,,,,,,,,,,,,,,,,,,,,,,,,,,,,,,,,,,,,,,,,,,,,,,,,,,,,,,,,,
,,,,,,,,,,,,l,Incorrect,0,106,106,8,1,t3.png,t2.png,1,0.90855,20,Female,2020-11-19_14h27.43.693,torte-2b,2020.1.3,Win32,60,13217,0.714545,,,,,,,,,,,,,,,,,,,,,,,,,,,,,,,,,,,,,,,,,,,,,,,,,,,,,,,,,,,,,,,,,
,,,,,,,,,,,,l,Correct!,0,107,107,4,1,t1.png,t5.png,4,9.55E-11,20,Female,2020-11-19_14h27.43.693,torte-2b,2020.1.3,Win32,60,13217,0.45309,,,,,,,,,,,,,,,,,,,,,,,,,,,,,,,,,,,,,,,,,,,,,,,,,,,,,,,,,,,,,,,,,
,,,,,,,,,,,,a,Incorrect,0,108,108,102,1,t4.png,t2.png,2,0.059078,20,Female,2020-11-19_14h27.43.693,torte-2b,2020.1.3,Win32,60,13217,0.6488,,,,,,,,,,,,,,,,,,,,,,,,,,,,,,,,,,,,,,,,,,,,,,,,,,,,,,,,,,,,,,,,,
,,,,,,,,,,,,l,Incorrect,0,109,109,101,1,t4.png,t5.png,1,0.90025,20,Female,2020-11-19_14h27.43.693,torte-2b,2020.1.3,Win32,60,13217,0.447885,,,,,,,,,,,,,,,,,,,,,,,,,,,,,,,,,,,,,,,,,,,,,,,,,,,,,,,,,,,,,,,,,
,,,,,,,,,,,,a,Correct!,0,110,110,109,1,t5.png,t5.png,0,0.97829,20,Female,2020-11-19_14h27.43.693,torte-2b,2020.1.3,Win32,60,13217,0.61111,,,,,,,,,,,,,,,,,,,,,,,,,,,,,,,,,,,,,,,,,,,,,,,,,,,,,,,,,,,,,,,,,
,,,,,,,,,,,,a,Correct!,0,111,111,2,1,t3.png,t2.png,1,0.90855,20,Female,2020-11-19_14h27.43.693,torte-2b,2020.1.3,Win32,60,13217,1.214185,,,,,,,,,,,,,,,,,,,,,,,,,,,,,,,,,,,,,,,,,,,,,,,,,,,,,,,,,,,,,,,,,
,,,,,,,,,,,,a,Incorrect,0,112,112,111,1,t5.png,t1.png,4,9.55E-11,20,Female,2020-11-19_14h27.43.693,torte-2b,2020.1.3,Win32,60,13217,0.52448,,,,,,,,,,,,,,,,,,,,,,,,,,,,,,,,,,,,,,,,,,,,,,,,,,,,,,,,,,,,,,,,,
,,,,,,,,,,,,l,Correct!,0,113,113,86,1,t3.png,t1.png,2,0.056466,20,Female,2020-11-19_14h27.43.693,torte-2b,2020.1.3,Win32,60,13217,0.549035,,,,,,,,,,,,,,,,,,,,,,,,,,,,,,,,,,,,,,,,,,,,,,,,,,,,,,,,,,,,,,,,,
,,,,,,,,,,,,l,Correct!,0,114,114,82,1,t5.png,t1.png,4,9.55E-11,20,Female,2020-11-19_14h27.43.693,torte-2b,2020.1.3,Win32,60,13217,0.829295,,,,,,,,,,,,,,,,,,,,,,,,,,,,,,,,,,,,,,,,,,,,,,,,,,,,,,,,,,,,,,,,,
,,,,,,,,,,,,l,Correct!,0,115,115,88,1,t3.png,t1.png,2,0.056466,20,Female,2020-11-19_14h27.43.693,torte-2b,2020.1.3,Win32,60,13217,0.533135,,,,,,,,,,,,,,,,,,,,,,,,,,,,,,,,,,,,,,,,,,,,,,,,,,,,,,,,,,,,,,,,,
,,,,,,,,,,,,l,Correct!,0,116,116,51,1,t3.png,t1.png,2,0.056466,20,Female,2020-11-19_14h27.43.693,torte-2b,2020.1.3,Win32,60,13217,0.653005,,,,,,,,,,,,,,,,,,,,,,,,,,,,,,,,,,,,,,,,,,,,,,,,,,,,,,,,,,,,,,,,,
,,,,,,,,,,,,a,Incorrect,0,117,117,99,1,t1.png,t5.png,4,9.55E-11,20,Female,2020-11-19_14h27.43.693,torte-2b,2020.1.3,Win32,60,13217,1.107315,,,,,,,,,,,,,,,,,,,,,,,,,,,,,,,,,,,,,,,,,,,,,,,,,,,,,,,,,,,,,,,,,
,,,,,,,,,,,,l,Incorrect,0,118,118,23,1,t5.png,t4.png,1,0.90025,20,Female,2020-11-19_14h27.43.693,torte-2b,2020.1.3,Win32,60,13217,0.58845,,,,,,,,,,,,,,,,,,,,,,,,,,,,,,,,,,,,,,,,,,,,,,,,,,,,,,,,,,,,,,,,,
,,,,,,,,,,,,a,Incorrect,0,119,119,50,1,t5.png,t1.png,4,9.55E-11,20,Female,2020-11-19_14h27.43.693,torte-2b,2020.1.3,Win32,60,13217,0.29059,,,,,,,,,,,,,,,,,,,,,,,,,,,,,,,,,,,,,,,,,,,,,,,,,,,,,,,,,,,,,,,,,
,,,,,,,,,,,,,Too slow :(,,,,,,t4.png,t1.png,3,0.0000131,20,Female,2020-11-19_14h27.43.693,torte-2b,2020.1.3,Win32,60,13217,,space,1417.397115,space,22.30176,0,0,0,13,1,,,,,,,,,,,,,,,,,,,,,,,,,,,,,,,,,,,,,,,,,,,,,,,,,,,,,,,,
,,,,,,,,,,,,l,Correct!,,,,,,t5.png,t1.png,4,9.55E-11,20,Female,2020-11-19_14h27.43.693,torte-2b,2020.1.3,Win32,60,13217,0.938415,,,,,0,1,1,102,1,,,,,,,,,,,,,,,,,,,,,,,,,,,,,,,,,,,,,,,,,,,,,,,,,,,,,,,,
,,,,,,,,,,,,,Too slow :(,,,,,,t5.png,t3.png,2,0.0565,20,Female,2020-11-19_14h27.43.693,torte-2b,2020.1.3,Win32,60,13217,,,,,,0,2,2,39,1,,,,,,,,,,,,,,,,,,,,,,,,,,,,,,,,,,,,,,,,,,,,,,,,,,,,,,,,
,,,,,,,,,,,,l,Correct!,,,,,,t1.png,t4.png,3,0.0000131,20,Female,2020-11-19_14h27.43.693,torte-2b,2020.1.3,Win32,60,13217,0.87071,,,,,0,3,3,81,1,,,,,,,,,,,,,,,,,,,,,,,,,,,,,,,,,,,,,,,,,,,,,,,,,,,,,,,,
,,,,,,,,,,,,l,Incorrect,,,,,,t5.png,t5.png,0,0.97829,20,Female,2020-11-19_14h27.43.693,torte-2b,2020.1.3,Win32,60,13217,1.920595,,,,,0,4,4,94,1,,,,,,,,,,,,,,,,,,,,,,,,,,,,,,,,,,,,,,,,,,,,,,,,,,,,,,,,
,,,,,,,,,,,,a,Incorrect,,,,,,t1.png,t3.png,2,0.056466,20,Female,2020-11-19_14h27.43.693,torte-2b,2020.1.3,Win32,60,13217,0.601245,,,,,0,5,5,87,1,,,,,,,,,,,,,,,,,,,,,,,,,,,,,,,,,,,,,,,,,,,,,,,,,,,,,,,,
,,,,,,,,,,,,a,Incorrect,,,,,,t5.png,t3.png,2,0.056466,20,Female,2020-11-19_14h27.43.693,torte-2b,2020.1.3,Win32,60,13217,0.577075,,,,,0,6,6,38,1,,,,,,,,,,,,,,,,,,,,,,,,,,,,,,,,,,,,,,,,,,,,,,,,,,,,,,,,
,,,,,,,,,,,,l,Incorrect,,,,,,t4.png,t4.png,0,0.98115,20,Female,2020-11-19_14h27.43.693,torte-2b,2020.1.3,Win32,60,13217,0.369825,,,,,0,7,7,80,1,,,,,,,,,,,,,,,,,,,,,,,,,,,,,,,,,,,,,,,,,,,,,,,,,,,,,,,,
,,,,,,,,,,,,a,Correct!,,,,,,t1.png,t1.png,0,0.978,20,Female,2020-11-19_14h27.43.693,torte-2b,2020.1.3,Win32,60,13217,0.2429,,,,,0,8,8,54,1,,,,,,,,,,,,,,,,,,,,,,,,,,,,,,,,,,,,,,,,,,,,,,,,,,,,,,,,
,,,,,,,,,,,,a,Correct!,,,,,,t4.png,t3.png,1,0.90855,20,Female,2020-11-19_14h27.43.693,torte-2b,2020.1.3,Win32,60,13217,0.71844,,,,,0,9,9,75,1,,,,,,,,,,,,,,,,,,,,,,,,,,,,,,,,,,,,,,,,,,,,,,,,,,,,,,,,
,,,,,,,,,,,,l,Correct!,,,,,,t2.png,t4.png,2,0.0591,20,Female,2020-11-19_14h27.43.693,torte-2b,2020.1.3,Win32,60,13217,0.653255,,,,,0,10,10,15,1,,,,,,,,,,,,,,,,,,,,,,,,,,,,,,,,,,,,,,,,,,,,,,,,,,,,,,,,
,,,,,,,,,,,,a,Incorrect,,,,,,t3.png,t1.png,2,0.056466,20,Female,2020-11-19_14h27.43.693,torte-2b,2020.1.3,Win32,60,13217,0.553875,,,,,0,11,11,29,1,,,,,,,,,,,,,,,,,,,,,,,,,,,,,,,,,,,,,,,,,,,,,,,,,,,,,,,,
,,,,,,,,,,,,a,Correct!,,,,,,t2.png,t1.png,1,0.90025,20,Female,2020-11-19_14h27.43.693,torte-2b,2020.1.3,Win32,60,13217,0.572805,,,,,0,12,12,5,1,,,,,,,,,,,,,,,,,,,,,,,,,,,,,,,,,,,,,,,,,,,,,,,,,,,,,,,,
,,,,,,,,,,,,l,Incorrect,,,,,,t1.png,t1.png,0,0.97829,20,Female,2020-11-19_14h27.43.693,torte-2b,2020.1.3,Win32,60,13217,0.587685,,,,,0,13,13,9,1,,,,,,,,,,,,,,,,,,,,,,,,,,,,,,,,,,,,,,,,,,,,,,,,,,,,,,,,
,,,,,,,,,,,,l,Incorrect,,,,,,t3.png,t4.png,1,0.909,20,Female,2020-11-19_14h27.43.693,torte-2b,2020.1.3,Win32,60,13217,0.78555,,,,,0,14,14,106,1,,,,,,,,,,,,,,,,,,,,,,,,,,,,,,,,,,,,,,,,,,,,,,,,,,,,,,,,
,,,,,,,,,,,,l,Correct!,,,,,,t1.png,t4.png,3,0.0000131,20,Female,2020-11-19_14h27.43.693,torte-2b,2020.1.3,Win32,60,13217,0.463215,,,,,0,15,15,17,1,,,,,,,,,,,,,,,,,,,,,,,,,,,,,,,,,,,,,,,,,,,,,,,,,,,,,,,,
,,,,,,,,,,,,l,Incorrect,,,,,,t4.png,t5.png,1,0.90025,20,Female,2020-11-19_14h27.43.693,torte-2b,2020.1.3,Win32,60,13217,0.59726,,,,,0,16,16,103,1,,,,,,,,,,,,,,,,,,,,,,,,,,,,,,,,,,,,,,,,,,,,,,,,,,,,,,,,
,,,,,,,,,,,,a,Incorrect,,,,,,t3.png,t1.png,2,0.056466,20,Female,2020-11-19_14h27.43.693,torte-2b,2020.1.3,Win32,60,13217,0.57756,,,,,0,17,17,32,1,,,,,,,,,,,,,,,,,,,,,,,,,,,,,,,,,,,,,,,,,,,,,,,,,,,,,,,,
,,,,,,,,,,,,a,Correct!,,,,,,t5.png,t4.png,1,0.90025,20,Female,2020-11-19_14h27.43.693,torte-2b,2020.1.3,Win32,60,13217,0.613005,,,,,0,18,18,27,1,,,,,,,,,,,,,,,,,,,,,,,,,,,,,,,,,,,,,,,,,,,,,,,,,,,,,,,,
,,,,,,,,,,,,l,Correct!,,,,,,t2.png,t5.png,3,0.0000131,20,Female,2020-11-19_14h27.43.693,torte-2b,2020.1.3,Win32,60,13217,0.511875,,,,,0,19,19,104,1,,,,,,,,,,,,,,,,,,,,,,,,,,,,,,,,,,,,,,,,,,,,,,,,,,,,,,,,
,,,,,,,,,,,,a,Correct!,,,,,,t5.png,t5.png,0,0.97829,20,Female,2020-11-19_14h27.43.693,torte-2b,2020.1.3,Win32,60,13217,0.620375,,,,,0,20,20,25,1,,,,,,,,,,,,,,,,,,,,,,,,,,,,,,,,,,,,,,,,,,,,,,,,,,,,,,,,
,,,,,,,,,,,,l,Incorrect,,,,,,t3.png,t5.png,2,0.056466,20,Female,2020-11-19_14h27.43.693,torte-2b,2020.1.3,Win32,60,13217,0.55224,,,,,0,21,21,14,1,,,,,,,,,,,,,,,,,,,,,,,,,,,,,,,,,,,,,,,,,,,,,,,,,,,,,,,,
,,,,,,,,,,,,l,Correct!,,,,,,t1.png,t5.png,4,9.55E-11,20,Female,2020-11-19_14h27.43.693,torte-2b,2020.1.3,Win32,60,13217,0.456165,,,,,0,22,22,55,1,,,,,,,,,,,,,,,,,,,,,,,,,,,,,,,,,,,,,,,,,,,,,,,,,,,,,,,,
,,,,,,,,,,,,a,Correct!,,,,,,t4.png,t3.png,1,0.909,20,Female,2020-11-19_14h27.43.693,torte-2b,2020.1.3,Win32,60,13217,0.544785,,,,,0,23,23,46,1,,,,,,,,,,,,,,,,,,,,,,,,,,,,,,,,,,,,,,,,,,,,,,,,,,,,,,,,
,,,,,,,,,,,,l,Correct!,,,,,,t1.png,t5.png,4,9.55E-11,20,Female,2020-11-19_14h27.43.693,torte-2b,2020.1.3,Win32,60,13217,0.3963,,,,,0,24,24,16,1,,,,,,,,,,,,,,,,,,,,,,,,,,,,,,,,,,,,,,,,,,,,,,,,,,,,,,,,
,,,,,,,,,,,,a,Incorrect,,,,,,t4.png,t2.png,2,0.0591,20,Female,2020-11-19_14h27.43.693,torte-2b,2020.1.3,Win32,60,13217,0.37647,,,,,0,25,25,36,1,,,,,,,,,,,,,,,,,,,,,,,,,,,,,,,,,,,,,,,,,,,,,,,,,,,,,,,,
,,,,,,,,,,,,l,Incorrect,,,,,,t2.png,t2.png,0,0.98115,20,Female,2020-11-19_14h27.43.693,torte-2b,2020.1.3,Win32,60,13217,0.568695,,,,,0,26,26,57,1,,,,,,,,,,,,,,,,,,,,,,,,,,,,,,,,,,,,,,,,,,,,,,,,,,,,,,,,
,,,,,,,,,,,,l,Correct!,,,,,,t1.png,t3.png,2,0.056466,20,Female,2020-11-19_14h27.43.693,torte-2b,2020.1.3,Win32,60,13217,0.45247,,,,,0,27,27,63,1,,,,,,,,,,,,,,,,,,,,,,,,,,,,,,,,,,,,,,,,,,,,,,,,,,,,,,,,
,,,,,,,,,,,,a,Correct!,,,,,,t3.png,t4.png,1,0.909,20,Female,2020-11-19_14h27.43.693,torte-2b,2020.1.3,Win32,60,13217,0.551925,,,,,0,28,28,82,1,,,,,,,,,,,,,,,,,,,,,,,,,,,,,,,,,,,,,,,,,,,,,,,,,,,,,,,,
,,,,,,,,,,,,l,Incorrect,,,,,,t4.png,t4.png,0,0.98115,20,Female,2020-11-19_14h27.43.693,torte-2b,2020.1.3,Win32,60,13217,0.32631,,,,,0,29,29,90,1,,,,,,,,,,,,,,,,,,,,,,,,,,,,,,,,,,,,,,,,,,,,,,,,,,,,,,,,
,,,,,,,,,,,,a,Incorrect,,,,,,t5.png,t1.png,4,9.55E-11,20,Female,2020-11-19_14h27.43.693,torte-2b,2020.1.3,Win32,60,13217,0.378015,,,,,0,30,30,71,1,,,,,,,,,,,,,,,,,,,,,,,,,,,,,,,,,,,,,,,,,,,,,,,,,,,,,,,,
,,,,,,,,,,,,l,Correct!,,,,,,t1.png,t5.png,4,9.55E-11,20,Female,2020-11-19_14h27.43.693,torte-2b,2020.1.3,Win32,60,13217,0.376165,,,,,0,31,31,85,1,,,,,,,,,,,,,,,,,,,,,,,,,,,,,,,,,,,,,,,,,,,,,,,,,,,,,,,,
,,,,,,,,,,,,a,Incorrect,,,,,,t4.png,t2.png,2,0.059078,20,Female,2020-11-19_14h27.43.693,torte-2b,2020.1.3,Win32,60,13217,0.393265,,,,,0,32,32,110,1,,,,,,,,,,,,,,,,,,,,,,,,,,,,,,,,,,,,,,,,,,,,,,,,,,,,,,,,
,,,,,,,,,,,,a,Incorrect,,,,,,t1.png,t5.png,4,9.55E-11,20,Female,2020-11-19_14h27.43.693,torte-2b,2020.1.3,Win32,60,13217,0.608285,,,,,0,33,33,41,1,,,,,,,,,,,,,,,,,,,,,,,,,,,,,,,,,,,,,,,,,,,,,,,,,,,,,,,,
,,,,,,,,,,,,a,Incorrect,,,,,,t4.png,t1.png,3,0.0000131,20,Female,2020-11-19_14h27.43.693,torte-2b,2020.1.3,Win32,60,13217,0.4855,,,,,0,34,34,93,1,,,,,,,,,,,,,,,,,,,,,,,,,,,,,,,,,,,,,,,,,,,,,,,,,,,,,,,,
,,,,,,,,,,,,a,Correct!,,,,,,t2.png,t1.png,1,0.90025,20,Female,2020-11-19_14h27.43.693,torte-2b,2020.1.3,Win32,60,13217,0.56888,,,,,0,35,35,62,1,,,,,,,,,,,,,,,,,,,,,,,,,,,,,,,,,,,,,,,,,,,,,,,,,,,,,,,,
,,,,,,,,,,,,l,Incorrect,,,,,,t4.png,t4.png,0,0.98115,20,Female,2020-11-19_14h27.43.693,torte-2b,2020.1.3,Win32,60,13217,0.59445,,,,,0,36,36,79,1,,,,,,,,,,,,,,,,,,,,,,,,,,,,,,,,,,,,,,,,,,,,,,,,,,,,,,,,
,,,,,,,,,,,,l,Incorrect,,,,,,t3.png,t2.png,1,0.909,20,Female,2020-11-19_14h27.43.693,torte-2b,2020.1.3,Win32,60,13217,0.65221,,,,,0,37,37,23,1,,,,,,,,,,,,,,,,,,,,,,,,,,,,,,,,,,,,,,,,,,,,,,,,,,,,,,,,
,,,,,,,,,,,,a,Correct!,,,,,,t2.png,t1.png,1,0.90025,20,Female,2020-11-19_14h27.43.693,torte-2b,2020.1.3,Win32,60,13217,0.544805,,,,,0,38,38,4,1,,,,,,,,,,,,,,,,,,,,,,,,,,,,,,,,,,,,,,,,,,,,,,,,,,,,,,,,
,,,,,,,,,,,,l,Correct!,,,,,,t2.png,t5.png,3,0.0000131,20,Female,2020-11-19_14h27.43.693,torte-2b,2020.1.3,Win32,60,13217,0.438995,,,,,0,39,39,8,1,,,,,,,,,,,,,,,,,,,,,,,,,,,,,,,,,,,,,,,,,,,,,,,,,,,,,,,,
,,,,,,,,,,,,l,Incorrect,,,,,,t4.png,t5.png,1,0.9,20,Female,2020-11-19_14h27.43.693,torte-2b,2020.1.3,Win32,60,13217,0.517945,,,,,0,40,40,115,1,,,,,,,,,,,,,,,,,,,,,,,,,,,,,,,,,,,,,,,,,,,,,,,,,,,,,,,,
,,,,,,,,,,,,l,Correct!,,,,,,t2.png,t4.png,2,0.059078,20,Female,2020-11-19_14h27.43.693,torte-2b,2020.1.3,Win32,60,13217,0.435665,,,,,0,41,41,77,1,,,,,,,,,,,,,,,,,,,,,,,,,,,,,,,,,,,,,,,,,,,,,,,,,,,,,,,,
,,,,,,,,,,,,a,Incorrect,,,,,,t3.png,t1.png,2,0.0565,20,Female,2020-11-19_14h27.43.693,torte-2b,2020.1.3,Win32,60,13217,0.518685,,,,,0,42,42,31,1,,,,,,,,,,,,,,,,,,,,,,,,,,,,,,,,,,,,,,,,,,,,,,,,,,,,,,,,
,,,,,,,,,,,,a,Correct!,,,,,,t3.png,t2.png,1,0.90855,20,Female,2020-11-19_14h27.43.693,torte-2b,2020.1.3,Win32,60,13217,0.55202,,,,,0,43,43,18,1,,,,,,,,,,,,,,,,,,,,,,,,,,,,,,,,,,,,,,,,,,,,,,,,,,,,,,,,
,,,,,,,,,,,,l,Incorrect,,,,,,t1.png,t2.png,1,0.90025,20,Female,2020-11-19_14h27.43.693,torte-2b,2020.1.3,Win32,60,13217,0.47984,,,,,0,44,44,105,1,,,,,,,,,,,,,,,,,,,,,,,,,,,,,,,,,,,,,,,,,,,,,,,,,,,,,,,,
,,,,,,,,,,,,a,Correct!,,,,,,t3.png,t2.png,1,0.909,20,Female,2020-11-19_14h27.43.693,torte-2b,2020.1.3,Win32,60,13217,0.57153,,,,,0,45,45,3,1,,,,,,,,,,,,,,,,,,,,,,,,,,,,,,,,,,,,,,,,,,,,,,,,,,,,,,,,
,,,,,,,,,,,,a,Correct!,,,,,,t5.png,t4.png,1,0.9,20,Female,2020-11-19_14h27.43.693,torte-2b,2020.1.3,Win32,60,13217,0.762985,,,,,0,46,46,49,1,,,,,,,,,,,,,,,,,,,,,,,,,,,,,,,,,,,,,,,,,,,,,,,,,,,,,,,,
,,,,,,,,,,,,a,Correct!,,,,,,t2.png,t1.png,1,0.90025,20,Female,2020-11-19_14h27.43.693,torte-2b,2020.1.3,Win32,60,13217,1.034885,,,,,0,47,47,19,1,,,,,,,,,,,,,,,,,,,,,,,,,,,,,,,,,,,,,,,,,,,,,,,,,,,,,,,,
,,,,,,,,,,,,l,Incorrect,,,,,,t2.png,t3.png,1,0.90855,20,Female,2020-11-19_14h27.43.693,torte-2b,2020.1.3,Win32,60,13217,0.56985,,,,,0,48,48,65,1,,,,,,,,,,,,,,,,,,,,,,,,,,,,,,,,,,,,,,,,,,,,,,,,,,,,,,,,
,,,,,,,,,,,,l,Incorrect,,,,,,t2.png,t2.png,0,0.98115,20,Female,2020-11-19_14h27.43.693,torte-2b,2020.1.3,Win32,60,13217,0.62659,,,,,0,49,49,59,1,,,,,,,,,,,,,,,,,,,,,,,,,,,,,,,,,,,,,,,,,,,,,,,,,,,,,,,,
,,,,,,,,,,,,l,Incorrect,,,,,,t1.png,t2.png,1,0.90025,20,Female,2020-11-19_14h27.43.693,torte-2b,2020.1.3,Win32,60,13217,0.538585,,,,,0,50,50,33,1,,,,,,,,,,,,,,,,,,,,,,,,,,,,,,,,,,,,,,,,,,,,,,,,,,,,,,,,
,,,,,,,,,,,,l,Incorrect,,,,,,t4.png,t5.png,1,0.90025,20,Female,2020-11-19_14h27.43.693,torte-2b,2020.1.3,Win32,60,13217,1.08769,,,,,0,51,51,47,1,,,,,,,,,,,,,,,,,,,,,,,,,,,,,,,,,,,,,,,,,,,,,,,,,,,,,,,,
,,,,,,,,,,,,l,Correct!,,,,,,t2.png,t4.png,2,0.059078,20,Female,2020-11-19_14h27.43.693,torte-2b,2020.1.3,Win32,60,13217,0.568,,,,,0,52,52,24,1,,,,,,,,,,,,,,,,,,,,,,,,,,,,,,,,,,,,,,,,,,,,,,,,,,,,,,,,
,,,,,,,,,,,,l,Correct!,,,,,,t1.png,t3.png,2,0.056466,20,Female,2020-11-19_14h27.43.693,torte-2b,2020.1.3,Win32,60,13217,0.575805,,,,,0,53,53,60,1,,,,,,,,,,,,,,,,,,,,,,,,,,,,,,,,,,,,,,,,,,,,,,,,,,,,,,,,
,,,,,,,,,,,,l,Correct!,,,,,,t2.png,t5.png,3,0.0000131,20,Female,2020-11-19_14h27.43.693,torte-2b,2020.1.3,Win32,60,13217,0.38678,,,,,0,54,54,66,1,,,,,,,,,,,,,,,,,,,,,,,,,,,,,,,,,,,,,,,,,,,,,,,,,,,,,,,,
,,,,,,,,,,,,a,Correct!,,,,,,t5.png,t4.png,1,0.90025,20,Female,2020-11-19_14h27.43.693,torte-2b,2020.1.3,Win32,60,13217,0.662805,,,,,0,55,55,34,1,,,,,,,,,,,,,,,,,,,,,,,,,,,,,,,,,,,,,,,,,,,,,,,,,,,,,,,,
,,,,,,,,,,,,l,Incorrect,,,,,,t1.png,t1.png,0,0.978,20,Female,2020-11-19_14h27.43.693,torte-2b,2020.1.3,Win32,60,13217,0.49088,,,,,0,56,56,28,1,,,,,,,,,,,,,,,,,,,,,,,,,,,,,,,,,,,,,,,,,,,,,,,,,,,,,,,,
,,,,,,,,,,,,l,Incorrect,,,,,,t1.png,t2.png,1,0.9,20,Female,2020-11-19_14h27.43.693,torte-2b,2020.1.3,Win32,60,13217,0.36936,,,,,0,57,57,1,1,,,,,,,,,,,,,,,,,,,,,,,,,,,,,,,,,,,,,,,,,,,,,,,,,,,,,,,,
,,,,,,,,,,,,a,Correct!,,,,,,t5.png,t5.png,0,0.978,20,Female,2020-11-19_14h27.43.693,torte-2b,2020.1.3,Win32,60,13217,0.459585,,,,,0,58,58,117,1,,,,,,,,,,,,,,,,,,,,,,,,,,,,,,,,,,,,,,,,,,,,,,,,,,,,,,,,
,,,,,,,,,,,,a,Incorrect,,,,,,t4.png,t1.png,3,0.0000131,20,Female,2020-11-19_14h27.43.693,torte-2b,2020.1.3,Win32,60,13217,0.55721,,,,,0,59,59,61,1,,,,,,,,,,,,,,,,,,,,,,,,,,,,,,,,,,,,,,,,,,,,,,,,,,,,,,,,
,,,,,,,,,,,,a,Incorrect,,,,,,t5.png,t1.png,4,9.55E-11,20,Female,2020-11-19_14h27.43.693,torte-2b,2020.1.3,Win32,60,13217,0.458685,,,,,0,60,60,22,1,,,,,,,,,,,,,,,,,,,,,,,,,,,,,,,,,,,,,,,,,,,,,,,,,,,,,,,,
,,,,,,,,,,,,a,Incorrect,,,,,,t4.png,t2.png,2,0.059078,20,Female,2020-11-19_14h27.43.693,torte-2b,2020.1.3,Win32,60,13217,0.471815,,,,,0,61,61,109,1,,,,,,,,,,,,,,,,,,,,,,,,,,,,,,,,,,,,,,,,,,,,,,,,,,,,,,,,
,,,,,,,,,,,,a,Incorrect,,,,,,t5.png,t2.png,3,0.0000131,20,Female,2020-11-19_14h27.43.693,torte-2b,2020.1.3,Win32,60,13217,0.452495,,,,,0,62,62,51,1,,,,,,,,,,,,,,,,,,,,,,,,,,,,,,,,,,,,,,,,,,,,,,,,,,,,,,,,
,,,,,,,,,,,,a,Incorrect,,,,,,t5.png,t1.png,4,9.55E-11,20,Female,2020-11-19_14h27.43.693,torte-2b,2020.1.3,Win32,60,13217,0.467895,,,,,0,63,63,43,1,,,,,,,,,,,,,,,,,,,,,,,,,,,,,,,,,,,,,,,,,,,,,,,,,,,,,,,,
,,,,,,,,,,,,l,Incorrect,,,,,,t2.png,t3.png,1,0.90855,20,Female,2020-11-19_14h27.43.693,torte-2b,2020.1.3,Win32,60,13217,0.39013,,,,,0,64,64,111,1,,,,,,,,,,,,,,,,,,,,,,,,,,,,,,,,,,,,,,,,,,,,,,,,,,,,,,,,
,,,,,,,,,,,,l,Incorrect,,,,,,t2.png,t3.png,1,0.909,20,Female,2020-11-19_14h27.43.693,torte-2b,2020.1.3,Win32,60,13217,0.49321,,,,,0,65,65,74,1,,,,,,,,,,,,,,,,,,,,,,,,,,,,,,,,,,,,,,,,,,,,,,,,,,,,,,,,
,,,,,,,,,,,,a,Correct!,,,,,,t3.png,t2.png,1,0.90855,20,Female,2020-11-19_14h27.43.693,torte-2b,2020.1.3,Win32,60,13217,0.53549,,,,,0,66,66,97,1,,,,,,,,,,,,,,,,,,,,,,,,,,,,,,,,,,,,,,,,,,,,,,,,,,,,,,,,
,,,,,,,,,,,,l,Incorrect,,,,,,t2.png,t2.png,0,0.981,20,Female,2020-11-19_14h27.43.693,torte-2b,2020.1.3,Win32,60,13217,0.66369,,,,,0,67,67,101,1,,,,,,,,,,,,,,,,,,,,,,,,,,,,,,,,,,,,,,,,,,,,,,,,,,,,,,,,
,,,,,,,,,,,,a,Correct!,,,,,,t2.png,t1.png,1,0.9,20,Female,2020-11-19_14h27.43.693,torte-2b,2020.1.3,Win32,60,13217,0.47764,,,,,0,68,68,118,1,,,,,,,,,,,,,,,,,,,,,,,,,,,,,,,,,,,,,,,,,,,,,,,,,,,,,,,,
,,,,,,,,,,,,l,Correct!,,,,,,t1.png,t4.png,3,0.0000131,20,Female,2020-11-19_14h27.43.693,torte-2b,2020.1.3,Win32,60,13217,0.42544,,,,,0,69,69,92,1,,,,,,,,,,,,,,,,,,,,,,,,,,,,,,,,,,,,,,,,,,,,,,,,,,,,,,,,
,,,,,,,,,,,,l,Correct!,,,,,,t1.png,t5.png,4,9.55E-11,20,Female,2020-11-19_14h27.43.693,torte-2b,2020.1.3,Win32,60,13217,0.435935,,,,,0,70,70,12,1,,,,,,,,,,,,,,,,,,,,,,,,,,,,,,,,,,,,,,,,,,,,,,,,,,,,,,,,
,,,,,,,,,,,,l,Correct!,,,,,,t3.png,t5.png,2,0.056466,20,Female,2020-11-19_14h27.43.693,torte-2b,2020.1.3,Win32,60,13217,0.4516,,,,,0,71,71,44,1,,,,,,,,,,,,,,,,,,,,,,,,,,,,,,,,,,,,,,,,,,,,,,,,,,,,,,,,
,,,,,,,,,,,,l,Incorrect,,,,,,t4.png,t5.png,1,0.90025,20,Female,2020-11-19_14h27.43.693,torte-2b,2020.1.3,Win32,60,13217,0.360515,,,,,0,72,72,58,1,,,,,,,,,,,,,,,,,,,,,,,,,,,,,,,,,,,,,,,,,,,,,,,,,,,,,,,,
,,,,,,,,,,,,l,Incorrect,,,,,,t1.png,t1.png,0,0.97829,20,Female,2020-11-19_14h27.43.693,torte-2b,2020.1.3,Win32,60,13217,0.43565,,,,,0,73,73,78,1,,,,,,,,,,,,,,,,,,,,,,,,,,,,,,,,,,,,,,,,,,,,,,,,,,,,,,,,
,,,,,,,,,,,,a,Correct!,,,,,,t4.png,t3.png,1,0.90855,20,Female,2020-11-19_14h27.43.693,torte-2b,2020.1.3,Win32,60,13217,0.507205,,,,,0,74,74,35,1,,,,,,,,,,,,,,,,,,,,,,,,,,,,,,,,,,,,,,,,,,,,,,,,,,,,,,,,
,,,,,,,,,,,,l,Correct!,,,,,,t2.png,t4.png,2,0.059078,20,Female,2020-11-19_14h27.43.693,torte-2b,2020.1.3,Win32,60,13217,0.47027,,,,,0,75,75,37,1,,,,,,,,,,,,,,,,,,,,,,,,,,,,,,,,,,,,,,,,,,,,,,,,,,,,,,,,
,,,,,,,,,,,,a,Incorrect,,,,,,t5.png,t3.png,2,0.056466,20,Female,2020-11-19_14h27.43.693,torte-2b,2020.1.3,Win32,60,13217,0.48716,,,,,0,76,76,108,1,,,,,,,,,,,,,,,,,,,,,,,,,,,,,,,,,,,,,,,,,,,,,,,,,,,,,,,,
,,,,,,,,,,,,l,Incorrect,,,,,,t5.png,t5.png,0,0.97829,20,Female,2020-11-19_14h27.43.693,torte-2b,2020.1.3,Win32,60,13217,0.568615,,,,,0,77,77,73,1,,,,,,,,,,,,,,,,,,,,,,,,,,,,,,,,,,,,,,,,,,,,,,,,,,,,,,,,
,,,,,,,,,,,,a,Incorrect,,,,,,t3.png,t1.png,2,0.056466,20,Female,2020-11-19_14h27.43.693,torte-2b,2020.1.3,Win32,60,13217,0.48047,,,,,0,78,78,64,1,,,,,,,,,,,,,,,,,,,,,,,,,,,,,,,,,,,,,,,,,,,,,,,,,,,,,,,,
,,,,,,,,,,,,l,Incorrect,,,,,,t4.png,t4.png,0,0.98115,20,Female,2020-11-19_14h27.43.693,torte-2b,2020.1.3,Win32,60,13217,0.513535,,,,,0,79,79,21,1,,,,,,,,,,,,,,,,,,,,,,,,,,,,,,,,,,,,,,,,,,,,,,,,,,,,,,,,
,,,,,,,,,,,,l,Incorrect,,,,,,t5.png,t5.png,0,0.97829,20,Female,2020-11-19_14h27.43.693,torte-2b,2020.1.3,Win32,60,13217,0.704515,,,,,0,80,80,70,1,,,,,,,,,,,,,,,,,,,,,,,,,,,,,,,,,,,,,,,,,,,,,,,,,,,,,,,,
,,,,,,,,,,,,a,Incorrect,,,,,,t5.png,t3.png,2,0.056466,20,Female,2020-11-19_14h27.43.693,torte-2b,2020.1.3,Win32,60,13217,0.83476,,,,,0,81,81,56,1,,,,,,,,,,,,,,,,,,,,,,,,,,,,,,,,,,,,,,,,,,,,,,,,,,,,,,,,
,,,,,,,,,,,,a,Incorrect,,,,,,t5.png,t2.png,3,0.0000131,20,Female,2020-11-19_14h27.43.693,torte-2b,2020.1.3,Win32,60,13217,0.55387,,,,,0,82,82,98,1,,,,,,,,,,,,,,,,,,,,,,,,,,,,,,,,,,,,,,,,,,,,,,,,,,,,,,,,
,,,,,,,,,,,,l,Correct!,,,,,,t3.png,t5.png,2,0.0565,20,Female,2020-11-19_14h27.43.693,torte-2b,2020.1.3,Win32,60,13217,0.676885,,,,,0,83,83,83,1,,,,,,,,,,,,,,,,,,,,,,,,,,,,,,,,,,,,,,,,,,,,,,,,,,,,,,,,
,,,,,,,,,,,,a,Correct!,,,,,,t5.png,t4.png,1,0.90025,20,Female,2020-11-19_14h27.43.693,torte-2b,2020.1.3,Win32,60,13217,1.03513,,,,,0,84,84,26,1,,,,,,,,,,,,,,,,,,,,,,,,,,,,,,,,,,,,,,,,,,,,,,,,,,,,,,,,
,,,,,,,,,,,,l,Incorrect,,,,,,t3.png,t4.png,1,0.90855,20,Female,2020-11-19_14h27.43.693,torte-2b,2020.1.3,Win32,60,13217,0.55229,,,,,0,85,85,84,1,,,,,,,,,,,,,,,,,,,,,,,,,,,,,,,,,,,,,,,,,,,,,,,,,,,,,,,,
,,,,,,,,,,,,l,Correct!,,,,,,t3.png,t5.png,2,0.056466,20,Female,2020-11-19_14h27.43.693,torte-2b,2020.1.3,Win32,60,13217,0.552195,,,,,0,86,86,6,1,,,,,,,,,,,,,,,,,,,,,,,,,,,,,,,,,,,,,,,,,,,,,,,,,,,,,,,,
,,,,,,,,,,,,a,Incorrect,,,,,,t5.png,t2.png,3,0.0000131,20,Female,2020-11-19_14h27.43.693,torte-2b,2020.1.3,Win32,60,13217,0.58611,,,,,0,87,87,91,1,,,,,,,,,,,,,,,,,,,,,,,,,,,,,,,,,,,,,,,,,,,,,,,,,,,,,,,,
,,,,,,,,,,,,a,Incorrect,,,,,,t5.png,t1.png,4,9.55E-11,20,Female,2020-11-19_14h27.43.693,torte-2b,2020.1.3,Win32,60,13217,0.51893,,,,,0,88,88,100,1,,,,,,,,,,,,,,,,,,,,,,,,,,,,,,,,,,,,,,,,,,,,,,,,,,,,,,,,
,,,,,,,,,,,,a,Incorrect,,,,,,t5.png,t2.png,3,0.0000131,20,Female,2020-11-19_14h27.43.693,torte-2b,2020.1.3,Win32,60,13217,0.559495,,,,,0,89,89,116,1,,,,,,,,,,,,,,,,,,,,,,,,,,,,,,,,,,,,,,,,,,,,,,,,,,,,,,,,
,,,,,,,,,,,,l,Correct!,,,,,,t2.png,t4.png,2,0.059078,20,Female,2020-11-19_14h27.43.693,torte-2b,2020.1.3,Win32,60,13217,0.485715,,,,,0,90,90,11,1,,,,,,,,,,,,,,,,,,,,,,,,,,,,,,,,,,,,,,,,,,,,,,,,,,,,,,,,
,,,,,,,,,,,,a,Incorrect,,,,,,t3.png,t1.png,2,0.056466,20,Female,2020-11-19_14h27.43.693,torte-2b,2020.1.3,Win32,60,13217,1.08846,,,,,0,91,91,0,1,,,,,,,,,,,,,,,,,,,,,,,,,,,,,,,,,,,,,,,,,,,,,,,,,,,,,,,,
,,,,,,,,,,,,l,Correct!,,,,,,t1.png,t3.png,2,0.056466,20,Female,2020-11-19_14h27.43.693,torte-2b,2020.1.3,Win32,60,13217,0.563305,,,,,0,92,92,99,1,,,,,,,,,,,,,,,,,,,,,,,,,,,,,,,,,,,,,,,,,,,,,,,,,,,,,,,,
,,,,,,,,,,,,l,Correct!,,,,,,t2.png,t5.png,3,0.0000131,20,Female,2020-11-19_14h27.43.693,torte-2b,2020.1.3,Win32,60,13217,0.46284,,,,,0,93,93,40,1,,,,,,,,,,,,,,,,,,,,,,,,,,,,,,,,,,,,,,,,,,,,,,,,,,,,,,,,
,,,,,,,,,,,,l,Incorrect,,,,,,t1.png,t2.png,1,0.90025,20,Female,2020-11-19_14h27.43.693,torte-2b,2020.1.3,Win32,60,13217,0.48456,,,,,0,94,94,72,1,,,,,,,,,,,,,,,,,,,,,,,,,,,,,,,,,,,,,,,,,,,,,,,,,,,,,,,,
,,,,,,,,,,,,a,Correct!,,,,,,t4.png,t3.png,1,0.90855,20,Female,2020-11-19_14h27.43.693,torte-2b,2020.1.3,Win32,60,13217,0.503295,,,,,0,95,95,45,1,,,,,,,,,,,,,,,,,,,,,,,,,,,,,,,,,,,,,,,,,,,,,,,,,,,,,,,,
,,,,,,,,,,,,a,Correct!,,,,,,t3.png,t2.png,1,0.90855,20,Female,2020-11-19_14h27.43.693,torte-2b,2020.1.3,Win32,60,13217,0.612365,,,,,0,96,96,53,1,,,,,,,,,,,,,,,,,,,,,,,,,,,,,,,,,,,,,,,,,,,,,,,,,,,,,,,,
,,,,,,,,,,,,a,Correct!,,,,,,t2.png,t2.png,0,0.98115,20,Female,2020-11-19_14h27.43.693,torte-2b,2020.1.3,Win32,60,13217,0.770355,,,,,0,97,97,7,1,,,,,,,,,,,,,,,,,,,,,,,,,,,,,,,,,,,,,,,,,,,,,,,,,,,,,,,,
,,,,,,,,,,,,a,Incorrect,,,,,,t5.png,t2.png,3,0.0000131,20,Female,2020-11-19_14h27.43.693,torte-2b,2020.1.3,Win32,60,13217,0.45261,,,,,0,98,98,119,1,,,,,,,,,,,,,,,,,,,,,,,,,,,,,,,,,,,,,,,,,,,,,,,,,,,,,,,,
,,,,,,,,,,,,a,Incorrect,,,,,,t4.png,t1.png,3,0.0000131,20,Female,2020-11-19_14h27.43.693,torte-2b,2020.1.3,Win32,60,13217,0.42212,,,,,0,99,99,48,1,,,,,,,,,,,,,,,,,,,,,,,,,,,,,,,,,,,,,,,,,,,,,,,,,,,,,,,,
,,,,,,,,,,,,a,Incorrect,,,,,,t4.png,t2.png,2,0.059078,20,Female,2020-11-19_14h27.43.693,torte-2b,2020.1.3,Win32,60,13217,1.135025,,,,,0,100,100,88,1,,,,,,,,,,,,,,,,,,,,,,,,,,,,,,,,,,,,,,,,,,,,,,,,,,,,,,,,
,,,,,,,,,,,,l,Correct!,,,,,,t1.png,t4.png,3,0.0000131,20,Female,2020-11-19_14h27.43.693,torte-2b,2020.1.3,Win32,60,13217,1.57331,,,,,0,101,101,50,1,,,,,,,,,,,,,,,,,,,,,,,,,,,,,,,,,,,,,,,,,,,,,,,,,,,,,,,,
,,,,,,,,,,,,l,Incorrect,,,,,,t3.png,t4.png,1,0.909,20,Female,2020-11-19_14h27.43.693,torte-2b,2020.1.3,Win32,60,13217,0.48597,,,,,0,102,102,89,1,,,,,,,,,,,,,,,,,,,,,,,,,,,,,,,,,,,,,,,,,,,,,,,,,,,,,,,,
,,,,,,,,,,,,l,Incorrect,,,,,,t5.png,t4.png,1,0.9,20,Female,2020-11-19_14h27.43.693,torte-2b,2020.1.3,Win32,60,13217,0.6262,,,,,0,103,103,76,1,,,,,,,,,,,,,,,,,,,,,,,,,,,,,,,,,,,,,,,,,,,,,,,,,,,,,,,,
,,,,,,,,,,,,l,Correct!,,,,,,t1.png,t3.png,2,0.056466,20,Female,2020-11-19_14h27.43.693,torte-2b,2020.1.3,Win32,60,13217,1.968205,,,,,0,104,104,69,1,,,,,,,,,,,,,,,,,,,,,,,,,,,,,,,,,,,,,,,,,,,,,,,,,,,,,,,,
,,,,,,,,,,,,l,Correct!,,,,,,t2.png,t5.png,3,0.0000131,20,Female,2020-11-19_14h27.43.693,torte-2b,2020.1.3,Win32,60,13217,1.167555,,,,,0,105,105,95,1,,,,,,,,,,,,,,,,,,,,,,,,,,,,,,,,,,,,,,,,,,,,,,,,,,,,,,,,
,,,,,,,,,,,,l,Incorrect,,,,,,t4.png,t4.png,0,0.98115,20,Female,2020-11-19_14h27.43.693,torte-2b,2020.1.3,Win32,60,13217,0.65158,,,,,0,106,106,52,1,,,,,,,,,,,,,,,,,,,,,,,,,,,,,,,,,,,,,,,,,,,,,,,,,,,,,,,,
,,,,,,,,,,,,l,Correct!,,,,,,t3.png,t5.png,2,0.0565,20,Female,2020-11-19_14h27.43.693,torte-2b,2020.1.3,Win32,60,13217,0.41905,,,,,0,107,107,30,1,,,,,,,,,,,,,,,,,,,,,,,,,,,,,,,,,,,,,,,,,,,,,,,,,,,,,,,,
,,,,,,,,,,,,a,Correct!,,,,,,t4.png,t3.png,1,0.909,20,Female,2020-11-19_14h27.43.693,torte-2b,2020.1.3,Win32,60,13217,0.79488,,,,,0,108,108,20,1,,,,,,,,,,,,,,,,,,,,,,,,,,,,,,,,,,,,,,,,,,,,,,,,,,,,,,,,
,,,,,,,,,,,,a,Correct!,,,,,,t2.png,t2.png,0,0.98115,20,Female,2020-11-19_14h27.43.693,torte-2b,2020.1.3,Win32,60,13217,1.185795,,,,,0,109,109,2,1,,,,,,,,,,,,,,,,,,,,,,,,,,,,,,,,,,,,,,,,,,,,,,,,,,,,,,,,
,,,,,,,,,,,,l,Correct!,,,,,,t1.png,t4.png,3,0.0000131,20,Female,2020-11-19_14h27.43.693,torte-2b,2020.1.3,Win32,60,13217,1.23595,,,,,0,110,110,107,1,,,,,,,,,,,,,,,,,,,,,,,,,,,,,,,,,,,,,,,,,,,,,,,,,,,,,,,,
,,,,,,,,,,,,a,Incorrect,,,,,,t4.png,t2.png,2,0.059078,20,Female,2020-11-19_14h27.43.693,torte-2b,2020.1.3,Win32,60,13217,0.535555,,,,,0,111,111,86,1,,,,,,,,,,,,,,,,,,,,,,,,,,,,,,,,,,,,,,,,,,,,,,,,,,,,,,,,
,,,,,,,,,,,,l,Incorrect,,,,,,t1.png,t2.png,1,0.90025,20,Female,2020-11-19_14h27.43.693,torte-2b,2020.1.3,Win32,60,13217,0.378785,,,,,0,112,112,112,1,,,,,,,,,,,,,,,,,,,,,,,,,,,,,,,,,,,,,,,,,,,,,,,,,,,,,,,,
,,,,,,,,,,,,l,Correct!,,,,,,t1.png,t1.png,0,0.97829,20,Female,2020-11-19_14h27.43.693,torte-2b,2020.1.3,Win32,60,13217,0.46101,,,,,0,113,113,67,1,,,,,,,,,,,,,,,,,,,,,,,,,,,,,,,,,,,,,,,,,,,,,,,,,,,,,,,,
,,,,,,,,,,,,l,Correct!,,,,,,t2.png,t3.png,1,0.90855,20,Female,2020-11-19_14h27.43.693,torte-2b,2020.1.3,Win32,60,13217,1.580505,,,,,0,114,114,68,1,,,,,,,,,,,,,,,,,,,,,,,,,,,,,,,,,,,,,,,,,,,,,,,,,,,,,,,,
,,,,,,,,,,,,l,Incorrect,,,,,,t2.png,t3.png,1,0.90855,20,Female,2020-11-19_14h27.43.693,torte-2b,2020.1.3,Win32,60,13217,0.918905,,,,,0,115,115,10,1,,,,,,,,,,,,,,,,,,,,,,,,,,,,,,,,,,,,,,,,,,,,,,,,,,,,,,,,
,,,,,,,,,,,,l,Incorrect,,,,,,t3.png,t4.png,1,0.90855,20,Female,2020-11-19_14h27.43.693,torte-2b,2020.1.3,Win32,60,13217,0.503625,,,,,0,116,116,96,1,,,,,,,,,,,,,,,,,,,,,,,,,,,,,,,,,,,,,,,,,,,,,,,,,,,,,,,,
,,,,,,,,,,,,a,Incorrect,,,,,,t4.png,t1.png,3,0.0000131,20,Female,2020-11-19_14h27.43.693,torte-2b,2020.1.3,Win32,60,13217,0.501435,,,,,0,117,117,42,1,,,,,,,,,,,,,,,,,,,,,,,,,,,,,,,,,,,,,,,,,,,,,,,,,,,,,,,,
,,,,,,,,,,,,l,Incorrect,,,,,,t4.png,t5.png,1,0.90025,20,Female,2020-11-19_14h27.43.693,torte-2b,2020.1.3,Win32,60,13217,0.553275,,,,,0,118,118,113,1,,,,,,,,,,,,,,,,,,,,,,,,,,,,,,,,,,,,,,,,,,,,,,,,,,,,,,,,
,,,,,,,,,,,,a,Incorrect,,,,,,t5.png,t3.png,2,0.056466,20,Female,2020-11-19_14h27.43.693,torte-2b,2020.1.3,Win32,60,13217,0.584985,,,,,0,119,119,114,1,,,,,,,,,,,,,,,,,,,,,,,,,,,,,,,,,,,,,,,,,,,,,,,,,,,,,,,,
,,,,,,,,,,,,,,,,,,,,,,,20,Female,2020-11-19_14h27.43.693,torte-2b,2020.1.3,Win32,60,13217,,space,2.719635,,,,,,,,space,41.41821,,0,0,0,0,1,6,,,,,,,,,,,,,,,,,,,,,,,,,,,,,,,,,,,,,,,,,,,,,,,
,,,,,,,,,,,,,,,,,,,,,,,20,Female,2020-11-19_14h27.43.693,torte-2b,2020.1.3,Win32,60,13217,,,,,,,,,,,,,,0,1,1,1,1,7,,,,,,,,,,,,,,,,,,,,,,,,,,,,,,,,,,,,,,,,,,,,,,,
,,,,,,,,,,,,,,,,,,,,,,,20,Female,2020-11-19_14h27.43.693,torte-2b,2020.1.3,Win32,60,13217,,,,,,,,,,,,,space,0,2,2,2,1,6,0.33707,,,,,,,,,,,,,,,,,,,,,,,,,,,,,,,,,,,,,,,,,,,,,,
,,,,,,,,,,,,,,,,,,,,,,,20,Female,2020-11-19_14h27.43.693,torte-2b,2020.1.3,Win32,60,13217,,,,,,,,,,,,,space,0,3,3,3,1,7,0.67612,,,,,,,,,,,,,,,,,,,,,,,,,,,,,,,,,,,,,,,,,,,,,,
,,,,,,,,,,,,,,,,,,,,,,,20,Female,2020-11-19_14h27.43.693,torte-2b,2020.1.3,Win32,60,13217,,,,,,,,,,,,,,0,4,4,4,1,5,,,,,,,,,,,,,,,,,,,,,,,,,,,,,,,,,,,,,,,,,,,,,,,
,,,,,,,,,,,,,,,,,,,,,,,20,Female,2020-11-19_14h27.43.693,torte-2b,2020.1.3,Win32,60,13217,,,,,,,,,,,,,space,0,5,5,5,1,7,0.369805,,,,,,,,,,,,,,,,,,,,,,,,,,,,,,,,,,,,,,,,,,,,,,
,,,,,,,,,,,,,,,,,,,,,,,20,Female,2020-11-19_14h27.43.693,torte-2b,2020.1.3,Win32,60,13217,,,,,,,,,,,,,,0,6,6,6,1,2,,,,,,,,,,,,,,,,,,,,,,,,,,,,,,,,,,,,,,,,,,,,,,,
,,,,,,,,,,,,,,,,,,,,,,,20,Female,2020-11-19_14h27.43.693,torte-2b,2020.1.3,Win32,60,13217,,,,,,,,,,,,,,0,7,7,7,1,4,,,,,,,,,,,,,,,,,,,,,,,,,,,,,,,,,,,,,,,,,,,,,,,
,,,,,,,,,,,,,,,,,,,,,,,20,Female,2020-11-19_14h27.43.693,torte-2b,2020.1.3,Win32,60,13217,,,,,,,,,,,,,,0,8,8,8,1,7,,,,,,,,,,,,,,,,,,,,,,,,,,,,,,,,,,,,,,,,,,,,,,,
,,,,,,,,,,,,,,,,,,,,,,,20,Female,2020-11-19_14h27.43.693,torte-2b,2020.1.3,Win32,60,13217,,,,,,,,,,,,,space,0,9,9,9,1,4,0.83551,,,,,,,,,,,,,,,,,,,,,,,,,,,,,,,,,,,,,,,,,,,,,,
,,,,,,,,,,,,,,,,,,,,,,,20,Female,2020-11-19_14h27.43.693,torte-2b,2020.1.3,Win32,60,13217,,,,,,,,,,,,,,0,10,10,10,1,7,,,,,,,,,,,,,,,,,,,,,,,,,,,,,,,,,,,,,,,,,,,,,,,
,,,,,,,,,,,,,,,,,,,,,,,20,Female,2020-11-19_14h27.43.693,torte-2b,2020.1.3,Win32,60,13217,,,,,,,,,,,,,,0,11,11,11,1,7,,,,,,,,,,,,,,,,,,,,,,,,,,,,,,,,,,,,,,,,,,,,,,,
,,,,,,,,,,,,,,,,,,,,,,,20,Female,2020-11-19_14h27.43.693,torte-2b,2020.1.3,Win32,60,13217,,,,,,,,,,,,,space,0,12,12,12,1,7,0.323445,,,,,,,,,,,,,,,,,,,,,,,,,,,,,,,,,,,,,,,,,,,,,,
,,,,,,,,,,,,,,,,,,,,,,,20,Female,2020-11-19_14h27.43.693,torte-2b,2020.1.3,Win32,60,13217,,,,,,,,,,,,,,0,13,13,13,1,4,,,,,,,,,,,,,,,,,,,,,,,,,,,,,,,,,,,,,,,,,,,,,,,
,,,,,,,,,,,,,,,,,,,,,,,20,Female,2020-11-19_14h27.43.693,torte-2b,2020.1.3,Win32,60,13217,,,,,,,,,,,,,,0,14,14,14,1,6,,,,,,,,,,,,,,,,,,,,,,,,,,,,,,,,,,,,,,,,,,,,,,,
,,,,,,,,,,,,,,,,,,,,,,,20,Female,2020-11-19_14h27.43.693,torte-2b,2020.1.3,Win32,60,13217,,,,,,,,,,,,,space,0,15,15,15,1,4,1.001865,,,,,,,,,,,,,,,,,,,,,,,,,,,,,,,,,,,,,,,,,,,,,,
,,,,,,,,,,,,,,,,,,,,,,,20,Female,2020-11-19_14h27.43.693,torte-2b,2020.1.3,Win32,60,13217,,,,,,,,,,,,,space,0,16,16,16,1,6,1.236385,,,,,,,,,,,,,,,,,,,,,,,,,,,,,,,,,,,,,,,,,,,,,,
,,,,,,,,,,,,,,,,,,,,,,,20,Female,2020-11-19_14h27.43.693,torte-2b,2020.1.3,Win32,60,13217,,,,,,,,,,,,,,0,17,17,17,1,7,,,,,,,,,,,,,,,,,,,,,,,,,,,,,,,,,,,,,,,,,,,,,,,
,,,,,,,,,,,,,,,,,,,,,,,20,Female,2020-11-19_14h27.43.693,torte-2b,2020.1.3,Win32,60,13217,,,,,,,,,,,,,space,0,18,18,18,1,6,0.471645,,,,,,,,,,,,,,,,,,,,,,,,,,,,,,,,,,,,,,,,,,,,,,
,,,,,,,,,,,,,,,,,,,,,,,20,Female,2020-11-19_14h27.43.693,torte-2b,2020.1.3,Win32,60,13217,,,,,,,,,,,,,space,0,19,19,19,1,7,0.51126,,,,,,,,,,,,,,,,,,,,,,,,,,,,,,,,,,,,,,,,,,,,,,
,,,,,,,,,,,,,,,,,,,,,,,20,Female,2020-11-19_14h27.43.693,torte-2b,2020.1.3,Win32,60,13217,,,,,,,,,,,,,,0,20,20,20,1,5,,,,,,,,,,,,,,,,,,,,,,,,,,,,,,,,,,,,,,,,,,,,,,,
,,,,,,,,,,,,,,,,,,,,,,,20,Female,2020-11-19_14h27.43.693,torte-2b,2020.1.3,Win32,60,13217,,,,,,,,,,,,,,0,21,21,21,1,1,,,,,,,,,,,,,,,,,,,,,,,,,,,,,,,,,,,,,,,,,,,,,,,
,,,,,,,,,,,,,,,,,,,,,,,20,Female,2020-11-19_14h27.43.693,torte-2b,2020.1.3,Win32,60,13217,,,,,,,,,,,,,,0,22,22,22,1,6,,,,,,,,,,,,,,,,,,,,,,,,,,,,,,,,,,,,,,,,,,,,,,,
,,,,,,,,,,,,,,,,,,,,,,,20,Female,2020-11-19_14h27.43.693,torte-2b,2020.1.3,Win32,60,13217,,,,,,,,,,,,,space,0,23,23,23,1,1,0.335035,,,,,,,,,,,,,,,,,,,,,,,,,,,,,,,,,,,,,,,,,,,,,,
,,,,,,,,,,,,,,,,,,,,,,,20,Female,2020-11-19_14h27.43.693,torte-2b,2020.1.3,Win32,60,13217,,,,,,,,,,,,,,0,24,24,24,1,5,,,,,,,,,,,,,,,,,,,,,,,,,,,,,,,,,,,,,,,,,,,,,,,
,,,,,,,,,,,,,,,,,,,,,,,20,Female,2020-11-19_14h27.43.693,torte-2b,2020.1.3,Win32,60,13217,,,,,,,,,,,,,,0,25,25,25,1,6,,,,,,,,,,,,,,,,,,,,,,,,,,,,,,,,,,,,,,,,,,,,,,,
,,,,,,,,,,,,,,,,,,,,,,,20,Female,2020-11-19_14h27.43.693,torte-2b,2020.1.3,Win32,60,13217,,,,,,,,,,,,,,0,26,26,26,1,6,,,,,,,,,,,,,,,,,,,,,,,,,,,,,,,,,,,,,,,,,,,,,,,
,,,,,,,,,,,,,,,,,,,,,,,20,Female,2020-11-19_14h27.43.693,torte-2b,2020.1.3,Win32,60,13217,,,,,,,,,,,,,space,0,27,27,27,1,6,0.27199,,,,,,,,,,,,,,,,,,,,,,,,,,,,,,,,,,,,,,,,,,,,,,
,,,,,,,,,,,,,,,,,,,,,,,20,Female,2020-11-19_14h27.43.693,torte-2b,2020.1.3,Win32,60,13217,,,,,,,,,,,,,space,0,28,28,28,1,5,0.5016,,,,,,,,,,,,,,,,,,,,,,,,,,,,,,,,,,,,,,,,,,,,,,
,,,,,,,,,,,,,,,,,,,,,,,20,Female,2020-11-19_14h27.43.693,torte-2b,2020.1.3,Win32,60,13217,,,,,,,,,,,,,,0,29,29,29,1,2,,,,,,,,,,,,,,,,,,,,,,,,,,,,,,,,,,,,,,,,,,,,,,,
,,,,,,,,,,,,,,,,,,,,,,,20,Female,2020-11-19_14h27.43.693,torte-2b,2020.1.3,Win32,60,13217,,,,,,,,,,,,,,0,30,30,30,1,5,,,,,,,,,,,,,,,,,,,,,,,,,,,,,,,,,,,,,,,,,,,,,,,
,,,,,,,,,,,,,,,,,,,,,,,20,Female,2020-11-19_14h27.43.693,torte-2b,2020.1.3,Win32,60,13217,,,,,,,,,,,,,space,0,31,31,31,1,2,0.25441,,,,,,,,,,,,,,,,,,,,,,,,,,,,,,,,,,,,,,,,,,,,,,
,,,,,,,,,,,,,,,,,,,,,,,20,Female,2020-11-19_14h27.43.693,torte-2b,2020.1.3,Win32,60,13217,,,,,,,,,,,,,space,0,32,32,32,1,5,0.51982,,,,,,,,,,,,,,,,,,,,,,,,,,,,,,,,,,,,,,,,,,,,,,
,,,,,,,,,,,,,,,,,,,,,,,20,Female,2020-11-19_14h27.43.693,torte-2b,2020.1.3,Win32,60,13217,,,,,,,,,,,,,,0,33,33,33,1,1,,,,,,,,,,,,,,,,,,,,,,,,,,,,,,,,,,,,,,,,,,,,,,,
,,,,,,,,,,,,,,,,,,,,,,,20,Female,2020-11-19_14h27.43.693,torte-2b,2020.1.3,Win32,60,13217,,,,,,,,,,,,,,0,34,34,34,1,1,,,,,,,,,,,,,,,,,,,,,,,,,,,,,,,,,,,,,,,,,,,,,,,
,,,,,,,,,,,,,,,,,,,,,,,20,Female,2020-11-19_14h27.43.693,torte-2b,2020.1.3,Win32,60,13217,,,,,,,,,,,,,,,,,,,2,,0,0,0,0,1,,,,,,,,,,,,,,,,,,,,,,,,,,,,,,,,,,,,,,,,,
,,,,,,,,,,,,,,,,,,,,,,,20,Female,2020-11-19_14h27.43.693,torte-2b,2020.1.3,Win32,60,13217,,,,,,,,,,,,,,,,,,,2,,0,1,1,1,1,,,,,,,,,,,,,,,,,,,,,,,,,,,,,,,,,,,,,,,,,
,,,,,,,,,,,,,,,,,,,,,,,20,Female,2020-11-19_14h27.43.693,torte-2b,2020.1.3,Win32,60,13217,,,,,,,,,,,,,,,,,,,6,,0,2,2,2,1,,,,,,,,,,,,,,,,,,,,,,,,,,,,,,,,,,,,,,,,,
,,,,,,,,,,,,,,,,,,,,,,,20,Female,2020-11-19_14h27.43.693,torte-2b,2020.1.3,Win32,60,13217,,,,,,,,,,,,,space,,,,,,2,0.30663,0,3,3,3,1,,,,,,,,,,,,,,,,,,,,,,,,,,,,,,,,,,,,,,,,,
,,,,,,,,,,,,,,,,,,,,,,,20,Female,2020-11-19_14h27.43.693,torte-2b,2020.1.3,Win32,60,13217,,,,,,,,,,,,,space,,,,,,6,0.834785,0,4,4,4,1,,,,,,,,,,,,,,,,,,,,,,,,,,,,,,,,,,,,,,,,,
,,,,,,,,,,,,,,,,,,,,,,,20,Female,2020-11-19_14h27.43.693,torte-2b,2020.1.3,Win32,60,13217,,,,,,,,,,,,,space,,,,,,2,0.433755,0,5,5,5,1,,,,,,,,,,,,,,,,,,,,,,,,,,,,,,,,,,,,,,,,,
,,,,,,,,,,,,,,,,,,,,,,,20,Female,2020-11-19_14h27.43.693,torte-2b,2020.1.3,Win32,60,13217,,,,,,,,,,,,,,,,,,,7,,0,6,6,6,1,,,,,,,,,,,,,,,,,,,,,,,,,,,,,,,,,,,,,,,,,
,,,,,,,,,,,,,,,,,,,,,,,20,Female,2020-11-19_14h27.43.693,torte-2b,2020.1.3,Win32,60,13217,,,,,,,,,,,,,space,,,,,,2,0.431775,0,7,7,7,1,,,,,,,,,,,,,,,,,,,,,,,,,,,,,,,,,,,,,,,,,
,,,,,,,,,,,,,,,,,,,,,,,20,Female,2020-11-19_14h27.43.693,torte-2b,2020.1.3,Win32,60,13217,,,,,,,,,,,,,space,,,,,,7,0.501595,0,8,8,8,1,,,,,,,,,,,,,,,,,,,,,,,,,,,,,,,,,,,,,,,,,
,,,,,,,,,,,,,,,,,,,,,,,20,Female,2020-11-19_14h27.43.693,torte-2b,2020.1.3,Win32,60,13217,,,,,,,,,,,,,,,,,,,2,,0,9,9,9,1,,,,,,,,,,,,,,,,,,,,,,,,,,,,,,,,,,,,,,,,,
,,,,,,,,,,,,,,,,,,,,,,,20,Female,2020-11-19_14h27.43.693,torte-2b,2020.1.3,Win32,60,13217,,,,,,,,,,,,,,,,,,,5,,0,10,10,10,1,,,,,,,,,,,,,,,,,,,,,,,,,,,,,,,,,,,,,,,,,
,,,,,,,,,,,,,,,,,,,,,,,20,Female,2020-11-19_14h27.43.693,torte-2b,2020.1.3,Win32,60,13217,,,,,,,,,,,,,,,,,,,4,,0,11,11,11,1,,,,,,,,,,,,,,,,,,,,,,,,,,,,,,,,,,,,,,,,,
,,,,,,,,,,,,,,,,,,,,,,,20,Female,2020-11-19_14h27.43.693,torte-2b,2020.1.3,Win32,60,13217,,,,,,,,,,,,,space,,,,,,5,0.55331,0,12,12,12,1,,,,,,,,,,,,,,,,,,,,,,,,,,,,,,,,,,,,,,,,,
,,,,,,,,,,,,,,,,,,,,,,,20,Female,2020-11-19_14h27.43.693,torte-2b,2020.1.3,Win32,60,13217,,,,,,,,,,,,,,,,,,,6,,0,13,13,13,1,,,,,,,,,,,,,,,,,,,,,,,,,,,,,,,,,,,,,,,,,
,,,,,,,,,,,,,,,,,,,,,,,20,Female,2020-11-19_14h27.43.693,torte-2b,2020.1.3,Win32,60,13217,,,,,,,,,,,,,space,,,,,,5,0.405555,0,14,14,14,1,,,,,,,,,,,,,,,,,,,,,,,,,,,,,,,,,,,,,,,,,
,,,,,,,,,,,,,,,,,,,,,,,20,Female,2020-11-19_14h27.43.693,torte-2b,2020.1.3,Win32,60,13217,,,,,,,,,,,,,,,,,,,4,,0,15,15,15,1,,,,,,,,,,,,,,,,,,,,,,,,,,,,,,,,,,,,,,,,,
,,,,,,,,,,,,,,,,,,,,,,,20,Female,2020-11-19_14h27.43.693,torte-2b,2020.1.3,Win32,60,13217,,,,,,,,,,,,,,,,,,,5,,0,16,16,16,1,,,,,,,,,,,,,,,,,,,,,,,,,,,,,,,,,,,,,,,,,
,,,,,,,,,,,,,,,,,,,,,,,20,Female,2020-11-19_14h27.43.693,torte-2b,2020.1.3,Win32,60,13217,,,,,,,,,,,,,,,,,,,3,,0,17,17,17,1,,,,,,,,,,,,,,,,,,,,,,,,,,,,,,,,,,,,,,,,,
,,,,,,,,,,,,,,,,,,,,,,,20,Female,2020-11-19_14h27.43.693,torte-2b,2020.1.3,Win32,60,13217,,,,,,,,,,,,,,,,,,,6,,0,18,18,18,1,,,,,,,,,,,,,,,,,,,,,,,,,,,,,,,,,,,,,,,,,
,,,,,,,,,,,,,,,,,,,,,,,20,Female,2020-11-19_14h27.43.693,torte-2b,2020.1.3,Win32,60,13217,,,,,,,,,,,,,,,,,,,6,,0,19,19,19,1,,,,,,,,,,,,,,,,,,,,,,,,,,,,,,,,,,,,,,,,,
,,,,,,,,,,,,,,,,,,,,,,,20,Female,2020-11-19_14h27.43.693,torte-2b,2020.1.3,Win32,60,13217,,,,,,,,,,,,,space,,,,,,6,0.346925,0,20,20,20,1,,,,,,,,,,,,,,,,,,,,,,,,,,,,,,,,,,,,,,,,,
,,,,,,,,,,,,,,,,,,,,,,,20,Female,2020-11-19_14h27.43.693,torte-2b,2020.1.3,Win32,60,13217,,,,,,,,,,,,,,,,,,,4,,0,21,21,21,1,,,,,,,,,,,,,,,,,,,,,,,,,,,,,,,,,,,,,,,,,
,,,,,,,,,,,,,,,,,,,,,,,20,Female,2020-11-19_14h27.43.693,torte-2b,2020.1.3,Win32,60,13217,,,,,,,,,,,,,space,,,,,,6,0.401535,0,22,22,22,1,,,,,,,,,,,,,,,,,,,,,,,,,,,,,,,,,,,,,,,,,
,,,,,,,,,,,,,,,,,,,,,,,20,Female,2020-11-19_14h27.43.693,torte-2b,2020.1.3,Win32,60,13217,,,,,,,,,,,,,space,,,,,,4,0.81562,0,23,23,23,1,,,,,,,,,,,,,,,,,,,,,,,,,,,,,,,,,,,,,,,,,
,,,,,,,,,,,,,,,,,,,,,,,20,Female,2020-11-19_14h27.43.693,torte-2b,2020.1.3,Win32,60,13217,,,,,,,,,,,,,space,,,,,,6,1.08128,0,24,24,24,1,,,,,,,,,,,,,,,,,,,,,,,,,,,,,,,,,,,,,,,,,
,,,,,,,,,,,,,,,,,,,,,,,20,Female,2020-11-19_14h27.43.693,torte-2b,2020.1.3,Win32,60,13217,,,,,,,,,,,,,,,,,,,6,,0,25,25,25,1,,,,,,,,,,,,,,,,,,,,,,,,,,,,,,,,,,,,,,,,,
,,,,,,,,,,,,,,,,,,,,,,,20,Female,2020-11-19_14h27.43.693,torte-2b,2020.1.3,Win32,60,13217,,,,,,,,,,,,,,,,,,,7,,0,26,26,26,1,,,,,,,,,,,,,,,,,,,,,,,,,,,,,,,,,,,,,,,,,
,,,,,,,,,,,,,,,,,,,,,,,20,Female,2020-11-19_14h27.43.693,torte-2b,2020.1.3,Win32,60,13217,,,,,,,,,,,,,,,,,,,1,,0,27,27,27,1,,,,,,,,,,,,,,,,,,,,,,,,,,,,,,,,,,,,,,,,,
,,,,,,,,,,,,,,,,,,,,,,,20,Female,2020-11-19_14h27.43.693,torte-2b,2020.1.3,Win32,60,13217,,,,,,,,,,,,,space,,,,,,7,0.4666,0,28,28,28,1,,,,,,,,,,,,,,,,,,,,,,,,,,,,,,,,,,,,,,,,,
,,,,,,,,,,,,,,,,,,,,,,,20,Female,2020-11-19_14h27.43.693,torte-2b,2020.1.3,Win32,60,13217,,,,,,,,,,,,,,,,,,,4,,0,29,29,29,1,,,,,,,,,,,,,,,,,,,,,,,,,,,,,,,,,,,,,,,,,
,,,,,,,,,,,,,,,,,,,,,,,20,Female,2020-11-19_14h27.43.693,torte-2b,2020.1.3,Win32,60,13217,,,,,,,,,,,,,space,,,,,,7,0.304125,0,30,30,30,1,,,,,,,,,,,,,,,,,,,,,,,,,,,,,,,,,,,,,,,,,
,,,,,,,,,,,,,,,,,,,,,,,20,Female,2020-11-19_14h27.43.693,torte-2b,2020.1.3,Win32,60,13217,,,,,,,,,,,,,,,,,,,3,,0,31,31,31,1,,,,,,,,,,,,,,,,,,,,,,,,,,,,,,,,,,,,,,,,,
,,,,,,,,,,,,,,,,,,,,,,,20,Female,2020-11-19_14h27.43.693,torte-2b,2020.1.3,Win32,60,13217,,,,,,,,,,,,,,,,,,,2,,0,32,32,32,1,,,,,,,,,,,,,,,,,,,,,,,,,,,,,,,,,,,,,,,,,
,,,,,,,,,,,,,,,,,,,,,,,20,Female,2020-11-19_14h27.43.693,torte-2b,2020.1.3,Win32,60,13217,,,,,,,,,,,,,,,,,,,6,,0,33,33,33,1,,,,,,,,,,,,,,,,,,,,,,,,,,,,,,,,,,,,,,,,,
,,,,,,,,,,,,,,,,,,,,,,,20,Female,2020-11-19_14h27.43.693,torte-2b,2020.1.3,Win32,60,13217,,,,,,,,,,,,,space,,,,,,3,0.88155,0,34,34,34,1,,,,,,,,,,,,,,,,,,,,,,,,,,,,,,,,,,,,,,,,,
,,,,,,,,,,,,,,,,,,,,,,,20,Female,2020-11-19_14h27.43.693,torte-2b,2020.1.3,Win32,60,13217,,,,,,,,,,,,,,,,,,,7,,,,,,,0,0,0,0,1,,,,,,,,,,,,,,,,,,,,,,,,,,,,,,,,,,,,
,,,,,,,,,,,,,,,,,,,,,,,20,Female,2020-11-19_14h27.43.693,torte-2b,2020.1.3,Win32,60,13217,,,,,,,,,,,,,,,,,,,5,,,,,,,0,1,1,1,1,,,,,,,,,,,,,,,,,,,,,,,,,,,,,,,,,,,,
,,,,,,,,,,,,,,,,,,,,,,,20,Female,2020-11-19_14h27.43.693,torte-2b,2020.1.3,Win32,60,13217,,,,,,,,,,,,,,,,,,,4,,,,,,,0,2,2,2,1,,,,,,,,,,,,,,,,,,,,,,,,,,,,,,,,,,,,
,,,,,,,,,,,,,,,,,,,,,,,20,Female,2020-11-19_14h27.43.693,torte-2b,2020.1.3,Win32,60,13217,,,,,,,,,,,,,space,,,,,,5,0.3013,,,,,,0,3,3,3,1,,,,,,,,,,,,,,,,,,,,,,,,,,,,,,,,,,,,
,,,,,,,,,,,,,,,,,,,,,,,20,Female,2020-11-19_14h27.43.693,torte-2b,2020.1.3,Win32,60,13217,,,,,,,,,,,,,,,,,,,6,,,,,,,0,4,4,4,1,,,,,,,,,,,,,,,,,,,,,,,,,,,,,,,,,,,,
,,,,,,,,,,,,,,,,,,,,,,,20,Female,2020-11-19_14h27.43.693,torte-2b,2020.1.3,Win32,60,13217,,,,,,,,,,,,,space,,,,,,5,0.268725,,,,,,0,5,5,5,1,,,,,,,,,,,,,,,,,,,,,,,,,,,,,,,,,,,,
,,,,,,,,,,,,,,,,,,,,,,,20,Female,2020-11-19_14h27.43.693,torte-2b,2020.1.3,Win32,60,13217,,,,,,,,,,,,,space,,,,,,3,0.89224,,,,,,0,6,6,6,1,,,,,,,,,,,,,,,,,,,,,,,,,,,,,,,,,,,,
,,,,,,,,,,,,,,,,,,,,,,,20,Female,2020-11-19_14h27.43.693,torte-2b,2020.1.3,Win32,60,13217,,,,,,,,,,,,,space,,,,,,4,0.45081,,,,,,0,7,7,7,1,,,,,,,,,,,,,,,,,,,,,,,,,,,,,,,,,,,,
,,,,,,,,,,,,,,,,,,,,,,,20,Female,2020-11-19_14h27.43.693,torte-2b,2020.1.3,Win32,60,13217,,,,,,,,,,,,,,,,,,,3,,,,,,,0,8,8,8,1,,,,,,,,,,,,,,,,,,,,,,,,,,,,,,,,,,,,
,,,,,,,,,,,,,,,,,,,,,,,20,Female,2020-11-19_14h27.43.693,torte-2b,2020.1.3,Win32,60,13217,,,,,,,,,,,,,space,,,,,,1,0.315535,,,,,,0,9,9,9,1,,,,,,,,,,,,,,,,,,,,,,,,,,,,,,,,,,,,
,,,,,,,,,,,,,,,,,,,,,,,20,Female,2020-11-19_14h27.43.693,torte-2b,2020.1.3,Win32,60,13217,,,,,,,,,,,,,,,,,,,2,,,,,,,0,10,10,10,1,,,,,,,,,,,,,,,,,,,,,,,,,,,,,,,,,,,,
,,,,,,,,,,,,,,,,,,,,,,,20,Female,2020-11-19_14h27.43.693,torte-2b,2020.1.3,Win32,60,13217,,,,,,,,,,,,,space,,,,,,1,0.786195,,,,,,0,11,11,11,1,,,,,,,,,,,,,,,,,,,,,,,,,,,,,,,,,,,,
,,,,,,,,,,,,,,,,,,,,,,,20,Female,2020-11-19_14h27.43.693,torte-2b,2020.1.3,Win32,60,13217,,,,,,,,,,,,,space,,,,,,2,0.9851,,,,,,0,12,12,12,1,,,,,,,,,,,,,,,,,,,,,,,,,,,,,,,,,,,,
,,,,,,,,,,,,,,,,,,,,,,,20,Female,2020-11-19_14h27.43.693,torte-2b,2020.1.3,Win32,60,13217,,,,,,,,,,,,,space,,,,,,1,1.25386,,,,,,0,13,13,13,1,,,,,,,,,,,,,,,,,,,,,,,,,,,,,,,,,,,,
,,,,,,,,,,,,,,,,,,,,,,,20,Female,2020-11-19_14h27.43.693,torte-2b,2020.1.3,Win32,60,13217,,,,,,,,,,,,,,,,,,,3,,,,,,,0,14,14,14,1,,,,,,,,,,,,,,,,,,,,,,,,,,,,,,,,,,,,
,,,,,,,,,,,,,,,,,,,,,,,20,Female,2020-11-19_14h27.43.693,torte-2b,2020.1.3,Win32,60,13217,,,,,,,,,,,,,,,,,,,1,,,,,,,0,15,15,15,1,,,,,,,,,,,,,,,,,,,,,,,,,,,,,,,,,,,,
,,,,,,,,,,,,,,,,,,,,,,,20,Female,2020-11-19_14h27.43.693,torte-2b,2020.1.3,Win32,60,13217,,,,,,,,,,,,,,,,,,,7,,,,,,,0,16,16,16,1,,,,,,,,,,,,,,,,,,,,,,,,,,,,,,,,,,,,
,,,,,,,,,,,,,,,,,,,,,,,20,Female,2020-11-19_14h27.43.693,torte-2b,2020.1.3,Win32,60,13217,,,,,,,,,,,,,space,,,,,,7,0.34811,,,,,,0,17,17,17,1,,,,,,,,,,,,,,,,,,,,,,,,,,,,,,,,,,,,
,,,,,,,,,,,,,,,,,,,,,,,20,Female,2020-11-19_14h27.43.693,torte-2b,2020.1.3,Win32,60,13217,,,,,,,,,,,,,,,,,,,4,,,,,,,0,18,18,18,1,,,,,,,,,,,,,,,,,,,,,,,,,,,,,,,,,,,,
,,,,,,,,,,,,,,,,,,,,,,,20,Female,2020-11-19_14h27.43.693,torte-2b,2020.1.3,Win32,60,13217,,,,,,,,,,,,,space,,,,,,7,0.483345,,,,,,0,19,19,19,1,,,,,,,,,,,,,,,,,,,,,,,,,,,,,,,,,,,,
,,,,,,,,,,,,,,,,,,,,,,,20,Female,2020-11-19_14h27.43.693,torte-2b,2020.1.3,Win32,60,13217,,,,,,,,,,,,,,,,,,,3,,,,,,,0,20,20,20,1,,,,,,,,,,,,,,,,,,,,,,,,,,,,,,,,,,,,
,,,,,,,,,,,,,,,,,,,,,,,20,Female,2020-11-19_14h27.43.693,torte-2b,2020.1.3,Win32,60,13217,,,,,,,,,,,,,,,,,,,7,,,,,,,0,21,21,21,1,,,,,,,,,,,,,,,,,,,,,,,,,,,,,,,,,,,,
,,,,,,,,,,,,,,,,,,,,,,,20,Female,2020-11-19_14h27.43.693,torte-2b,2020.1.3,Win32,60,13217,,,,,,,,,,,,,space,,,,,,3,0.37236,,,,,,0,22,22,22,1,,,,,,,,,,,,,,,,,,,,,,,,,,,,,,,,,,,,
,,,,,,,,,,,,,,,,,,,,,,,20,Female,2020-11-19_14h27.43.693,torte-2b,2020.1.3,Win32,60,13217,,,,,,,,,,,,,,,,,,,1,,,,,,,0,23,23,23,1,,,,,,,,,,,,,,,,,,,,,,,,,,,,,,,,,,,,
,,,,,,,,,,,,,,,,,,,,,,,20,Female,2020-11-19_14h27.43.693,torte-2b,2020.1.3,Win32,60,13217,,,,,,,,,,,,,,,,,,,6,,,,,,,0,24,24,24,1,,,,,,,,,,,,,,,,,,,,,,,,,,,,,,,,,,,,
,,,,,,,,,,,,,,,,,,,,,,,20,Female,2020-11-19_14h27.43.693,torte-2b,2020.1.3,Win32,60,13217,,,,,,,,,,,,,,,,,,,3,,,,,,,0,25,25,25,1,,,,,,,,,,,,,,,,,,,,,,,,,,,,,,,,,,,,
,,,,,,,,,,,,,,,,,,,,,,,20,Female,2020-11-19_14h27.43.693,torte-2b,2020.1.3,Win32,60,13217,,,,,,,,,,,,,,,,,,,2,,,,,,,0,26,26,26,1,,,,,,,,,,,,,,,,,,,,,,,,,,,,,,,,,,,,
,,,,,,,,,,,,,,,,,,,,,,,20,Female,2020-11-19_14h27.43.693,torte-2b,2020.1.3,Win32,60,13217,,,,,,,,,,,,,space,,,,,,3,1.147915,,,,,,0,27,27,27,1,,,,,,,,,,,,,,,,,,,,,,,,,,,,,,,,,,,,
,,,,,,,,,,,,,,,,,,,,,,,20,Female,2020-11-19_14h27.43.693,torte-2b,2020.1.3,Win32,60,13217,,,,,,,,,,,,,,,,,,,1,,,,,,,0,28,28,28,1,,,,,,,,,,,,,,,,,,,,,,,,,,,,,,,,,,,,
,,,,,,,,,,,,,,,,,,,,,,,20,Female,2020-11-19_14h27.43.693,torte-2b,2020.1.3,Win32,60,13217,,,,,,,,,,,,,space,,,,,,3,0.669805,,,,,,0,29,29,29,1,,,,,,,,,,,,,,,,,,,,,,,,,,,,,,,,,,,,
,,,,,,,,,,,,,,,,,,,,,,,20,Female,2020-11-19_14h27.43.693,torte-2b,2020.1.3,Win32,60,13217,,,,,,,,,,,,,,,,,,,1,,,,,,,0,30,30,30,1,,,,,,,,,,,,,,,,,,,,,,,,,,,,,,,,,,,,
,,,,,,,,,,,,,,,,,,,,,,,20,Female,2020-11-19_14h27.43.693,torte-2b,2020.1.3,Win32,60,13217,,,,,,,,,,,,,,,,,,,7,,,,,,,0,31,31,31,1,,,,,,,,,,,,,,,,,,,,,,,,,,,,,,,,,,,,
,,,,,,,,,,,,,,,,,,,,,,,20,Female,2020-11-19_14h27.43.693,torte-2b,2020.1.3,Win32,60,13217,,,,,,,,,,,,,,,,,,,5,,,,,,,0,32,32,32,1,,,,,,,,,,,,,,,,,,,,,,,,,,,,,,,,,,,,
,,,,,,,,,,,,,,,,,,,,,,,20,Female,2020-11-19_14h27.43.693,torte-2b,2020.1.3,Win32,60,13217,,,,,,,,,,,,,space,,,,,,7,0.481685,,,,,,0,33,33,33,1,,,,,,,,,,,,,,,,,,,,,,,,,,,,,,,,,,,,
,,,,,,,,,,,,,,,,,,,,,,,20,Female,2020-11-19_14h27.43.693,torte-2b,2020.1.3,Win32,60,13217,,,,,,,,,,,,,,,,,,,2,,,,,,,0,34,34,34,1,,,,,,,,,,,,,,,,,,,,,,,,,,,,,,,,,,,,
,,,,,,,,,,,,,,,,,,,,,,,20,Female,2020-11-19_14h27.43.693,torte-2b,2020.1.3,Win32,60,13217,,,,,,,,,,,,,,,,,,,3,,,,,,,,,,,,0,0,0,0,1,,,,,,,,,,,,,,,,,,,,,,,,,,,,,,,
,,,,,,,,,,,,,,,,,,,,,,,20,Female,2020-11-19_14h27.43.693,torte-2b,2020.1.3,Win32,60,13217,,,,,,,,,,,,,,,,,,,7,,,,,,,,,,,,0,1,1,1,1,,,,,,,,,,,,,,,,,,,,,,,,,,,,,,,
,,,,,,,,,,,,,,,,,,,,,,,20,Female,2020-11-19_14h27.43.693,torte-2b,2020.1.3,Win32,60,13217,,,,,,,,,,,,,,,,,,,7,,,,,,,,,,,,0,2,2,2,1,,,,,,,,,,,,,,,,,,,,,,,,,,,,,,,
,,,,,,,,,,,,,,,,,,,,,,,20,Female,2020-11-19_14h27.43.693,torte-2b,2020.1.3,Win32,60,13217,,,,,,,,,,,,,,,,,,,4,,,,,,,,,,,,0,3,3,3,1,,,,,,,,,,,,,,,,,,,,,,,,,,,,,,,
,,,,,,,,,,,,,,,,,,,,,,,20,Female,2020-11-19_14h27.43.693,torte-2b,2020.1.3,Win32,60,13217,,,,,,,,,,,,,,,,,,,5,,,,,,,,,,,,0,4,4,4,1,,,,,,,,,,,,,,,,,,,,,,,,,,,,,,,
,,,,,,,,,,,,,,,,,,,,,,,20,Female,2020-11-19_14h27.43.693,torte-2b,2020.1.3,Win32,60,13217,,,,,,,,,,,,,space,,,,,,4,1.238315,,,,,,,,,,,0,5,5,5,1,,,,,,,,,,,,,,,,,,,,,,,,,,,,,,,
,,,,,,,,,,,,,,,,,,,,,,,20,Female,2020-11-19_14h27.43.693,torte-2b,2020.1.3,Win32,60,13217,,,,,,,,,,,,,,,,,,,2,,,,,,,,,,,,0,6,6,6,1,,,,,,,,,,,,,,,,,,,,,,,,,,,,,,,
,,,,,,,,,,,,,,,,,,,,,,,20,Female,2020-11-19_14h27.43.693,torte-2b,2020.1.3,Win32,60,13217,,,,,,,,,,,,,space,,,,,,4,0.44974,,,,,,,,,,,0,7,7,7,1,,,,,,,,,,,,,,,,,,,,,,,,,,,,,,,
,,,,,,,,,,,,,,,,,,,,,,,20,Female,2020-11-19_14h27.43.693,torte-2b,2020.1.3,Win32,60,13217,,,,,,,,,,,,,space,,,,,,2,0.336625,,,,,,,,,,,0,8,8,8,1,,,,,,,,,,,,,,,,,,,,,,,,,,,,,,,
,,,,,,,,,,,,,,,,,,,,,,,20,Female,2020-11-19_14h27.43.693,torte-2b,2020.1.3,Win32,60,13217,,,,,,,,,,,,,space,,,,,,2,0.4972,,,,,,,,,,,0,9,9,9,1,,,,,,,,,,,,,,,,,,,,,,,,,,,,,,,
,,,,,,,,,,,,,,,,,,,,,,,20,Female,2020-11-19_14h27.43.693,torte-2b,2020.1.3,Win32,60,13217,,,,,,,,,,,,,,,,,,,6,,,,,,,,,,,,0,10,10,10,1,,,,,,,,,,,,,,,,,,,,,,,,,,,,,,,
,,,,,,,,,,,,,,,,,,,,,,,20,Female,2020-11-19_14h27.43.693,torte-2b,2020.1.3,Win32,60,13217,,,,,,,,,,,,,space,,,,,,2,0.630605,,,,,,,,,,,0,11,11,11,1,,,,,,,,,,,,,,,,,,,,,,,,,,,,,,,
,,,,,,,,,,,,,,,,,,,,,,,20,Female,2020-11-19_14h27.43.693,torte-2b,2020.1.3,Win32,60,13217,,,,,,,,,,,,,,,,,,,2,,,,,,,,,,,,0,12,12,12,1,,,,,,,,,,,,,,,,,,,,,,,,,,,,,,,
,,,,,,,,,,,,,,,,,,,,,,,20,Female,2020-11-19_14h27.43.693,torte-2b,2020.1.3,Win32,60,13217,,,,,,,,,,,,,space,,,,,,2,0.851545,,,,,,,,,,,0,13,13,13,1,,,,,,,,,,,,,,,,,,,,,,,,,,,,,,,
,,,,,,,,,,,,,,,,,,,,,,,20,Female,2020-11-19_14h27.43.693,torte-2b,2020.1.3,Win32,60,13217,,,,,,,,,,,,,space,,,,,,2,0.92522,,,,,,,,,,,0,14,14,14,1,,,,,,,,,,,,,,,,,,,,,,,,,,,,,,,
,,,,,,,,,,,,,,,,,,,,,,,20,Female,2020-11-19_14h27.43.693,torte-2b,2020.1.3,Win32,60,13217,,,,,,,,,,,,,,,,,,,4,,,,,,,,,,,,0,15,15,15,1,,,,,,,,,,,,,,,,,,,,,,,,,,,,,,,
,,,,,,,,,,,,,,,,,,,,,,,20,Female,2020-11-19_14h27.43.693,torte-2b,2020.1.3,Win32,60,13217,,,,,,,,,,,,,,,,,,,3,,,,,,,,,,,,0,16,16,16,1,,,,,,,,,,,,,,,,,,,,,,,,,,,,,,,
,,,,,,,,,,,,,,,,,,,,,,,20,Female,2020-11-19_14h27.43.693,torte-2b,2020.1.3,Win32,60,13217,,,,,,,,,,,,,,,,,,,7,,,,,,,,,,,,0,17,17,17,1,,,,,,,,,,,,,,,,,,,,,,,,,,,,,,,
,,,,,,,,,,,,,,,,,,,,,,,20,Female,2020-11-19_14h27.43.693,torte-2b,2020.1.3,Win32,60,13217,,,,,,,,,,,,,,,,,,,4,,,,,,,,,,,,0,18,18,18,1,,,,,,,,,,,,,,,,,,,,,,,,,,,,,,,
,,,,,,,,,,,,,,,,,,,,,,,20,Female,2020-11-19_14h27.43.693,torte-2b,2020.1.3,Win32,60,13217,,,,,,,,,,,,,space,,,,,,7,0.897345,,,,,,,,,,,0,19,19,19,1,,,,,,,,,,,,,,,,,,,,,,,,,,,,,,,
,,,,,,,,,,,,,,,,,,,,,,,20,Female,2020-11-19_14h27.43.693,torte-2b,2020.1.3,Win32,60,13217,,,,,,,,,,,,,space,,,,,,7,0.897875,,,,,,,,,,,0,20,20,20,1,,,,,,,,,,,,,,,,,,,,,,,,,,,,,,,
,,,,,,,,,,,,,,,,,,,,,,,20,Female,2020-11-19_14h27.43.693,torte-2b,2020.1.3,Win32,60,13217,,,,,,,,,,,,,space,,,,,,7,1.30117,,,,,,,,,,,0,21,21,21,1,,,,,,,,,,,,,,,,,,,,,,,,,,,,,,,
,,,,,,,,,,,,,,,,,,,,,,,20,Female,2020-11-19_14h27.43.693,torte-2b,2020.1.3,Win32,60,13217,,,,,,,,,,,,,,,,,,,7,,,,,,,,,,,,0,22,22,22,1,,,,,,,,,,,,,,,,,,,,,,,,,,,,,,,
,,,,,,,,,,,,,,,,,,,,,,,20,Female,2020-11-19_14h27.43.693,torte-2b,2020.1.3,Win32,60,13217,,,,,,,,,,,,,space,,,,,,1,0.373395,,,,,,,,,,,0,23,23,23,1,,,,,,,,,,,,,,,,,,,,,,,,,,,,,,,
,,,,,,,,,,,,,,,,,,,,,,,20,Female,2020-11-19_14h27.43.693,torte-2b,2020.1.3,Win32,60,13217,,,,,,,,,,,,,space,,,,,,7,1.31435,,,,,,,,,,,0,24,24,24,1,,,,,,,,,,,,,,,,,,,,,,,,,,,,,,,
,,,,,,,,,,,,,,,,,,,,,,,20,Female,2020-11-19_14h27.43.693,torte-2b,2020.1.3,Win32,60,13217,,,,,,,,,,,,,space,,,,,,1,0.72514,,,,,,,,,,,0,25,25,25,1,,,,,,,,,,,,,,,,,,,,,,,,,,,,,,,
,,,,,,,,,,,,,,,,,,,,,,,20,Female,2020-11-19_14h27.43.693,torte-2b,2020.1.3,Win32,60,13217,,,,,,,,,,,,,space,,,,,,7,0.647245,,,,,,,,,,,0,26,26,26,1,,,,,,,,,,,,,,,,,,,,,,,,,,,,,,,
,,,,,,,,,,,,,,,,,,,,,,,20,Female,2020-11-19_14h27.43.693,torte-2b,2020.1.3,Win32,60,13217,,,,,,,,,,,,,,,,,,,2,,,,,,,,,,,,0,27,27,27,1,,,,,,,,,,,,,,,,,,,,,,,,,,,,,,,
,,,,,,,,,,,,,,,,,,,,,,,20,Female,2020-11-19_14h27.43.693,torte-2b,2020.1.3,Win32,60,13217,,,,,,,,,,,,,,,,,,,5,,,,,,,,,,,,0,28,28,28,1,,,,,,,,,,,,,,,,,,,,,,,,,,,,,,,
,,,,,,,,,,,,,,,,,,,,,,,20,Female,2020-11-19_14h27.43.693,torte-2b,2020.1.3,Win32,60,13217,,,,,,,,,,,,,space,,,,,,5,0.755335,,,,,,,,,,,0,29,29,29,1,,,,,,,,,,,,,,,,,,,,,,,,,,,,,,,
,,,,,,,,,,,,,,,,,,,,,,,20,Female,2020-11-19_14h27.43.693,torte-2b,2020.1.3,Win32,60,13217,,,,,,,,,,,,,space,,,,,,5,0.477995,,,,,,,,,,,0,30,30,30,1,,,,,,,,,,,,,,,,,,,,,,,,,,,,,,,
,,,,,,,,,,,,,,,,,,,,,,,20,Female,2020-11-19_14h27.43.693,torte-2b,2020.1.3,Win32,60,13217,,,,,,,,,,,,,,,,,,,1,,,,,,,,,,,,0,31,31,31,1,,,,,,,,,,,,,,,,,,,,,,,,,,,,,,,
,,,,,,,,,,,,,,,,,,,,,,,20,Female,2020-11-19_14h27.43.693,torte-2b,2020.1.3,Win32,60,13217,,,,,,,,,,,,,space,,,,,,5,0.36841,,,,,,,,,,,0,32,32,32,1,,,,,,,,,,,,,,,,,,,,,,,,,,,,,,,
,,,,,,,,,,,,,,,,,,,,,,,20,Female,2020-11-19_14h27.43.693,torte-2b,2020.1.3,Win32,60,13217,,,,,,,,,,,,,,,,,,,3,,,,,,,,,,,,0,33,33,33,1,,,,,,,,,,,,,,,,,,,,,,,,,,,,,,,
,,,,,,,,,,,,,,,,,,,,,,,20,Female,2020-11-19_14h27.43.693,torte-2b,2020.1.3,Win32,60,13217,,,,,,,,,,,,,space,,,,,,3,0.26422,,,,,,,,,,,0,34,34,34,1,,,,,,,,,,,,,,,,,,,,,,,,,,,,,,,
,,,,,,,,,,,,,Too slow :(,,,,,,t1.png,t3.png,2,0.056466,20,Female,2020-11-19_14h27.43.693,torte-2b,2020.1.3,Win32,60,13217,,space,1.56847,,,,,,,,,,,,,,,,,,,,,,,,,,,,,,,,,space,647.387725,0,0,0,63,1,,,,,,,,,,,,,,,,,,,,,,,,
,,,,,,,,,,,,a,Incorrect,,,,,,t1.png,t5.png,4,9.55E-11,20,Female,2020-11-19_14h27.43.693,torte-2b,2020.1.3,Win32,60,13217,0.77528,,,,,,,,,,,,,,,,,,,,,,,,,,,,,,,,,,,,,0,1,1,55,1,,,,,,,,,,,,,,,,,,,,,,,,
,,,,,,,,,,,,l,Correct!,,,,,,t4.png,t1.png,3,0.0000131,20,Female,2020-11-19_14h27.43.693,torte-2b,2020.1.3,Win32,60,13217,1.40558,,,,,,,,,,,,,,,,,,,,,,,,,,,,,,,,,,,,,0,2,2,61,1,,,,,,,,,,,,,,,,,,,,,,,,
,,,,,,,,,,,,a,Incorrect,,,,,,t1.png,t5.png,4,9.55E-11,20,Female,2020-11-19_14h27.43.693,torte-2b,2020.1.3,Win32,60,13217,1.10222,,,,,,,,,,,,,,,,,,,,,,,,,,,,,,,,,,,,,0,3,3,12,1,,,,,,,,,,,,,,,,,,,,,,,,
,,,,,,,,,,,,l,Correct!,,,,,,t3.png,t1.png,2,0.056466,20,Female,2020-11-19_14h27.43.693,torte-2b,2020.1.3,Win32,60,13217,0.95884,,,,,,,,,,,,,,,,,,,,,,,,,,,,,,,,,,,,,0,4,4,64,1,,,,,,,,,,,,,,,,,,,,,,,,
,,,,,,,,,,,,l,Correct!,,,,,,t5.png,t2.png,3,0.0000131,20,Female,2020-11-19_14h27.43.693,torte-2b,2020.1.3,Win32,60,13217,1.2075,,,,,,,,,,,,,,,,,,,,,,,,,,,,,,,,,,,,,0,5,5,51,1,,,,,,,,,,,,,,,,,,,,,,,,
,,,,,,,,,,,,a,Incorrect,,,,,,t1.png,t5.png,4,9.55E-11,20,Female,2020-11-19_14h27.43.693,torte-2b,2020.1.3,Win32,60,13217,0.70312,,,,,,,,,,,,,,,,,,,,,,,,,,,,,,,,,,,,,0,6,6,16,1,,,,,,,,,,,,,,,,,,,,,,,,
,,,,,,,,,,,,l,Incorrect,,,,,,t1.png,t2.png,1,0.9,20,Female,2020-11-19_14h27.43.693,torte-2b,2020.1.3,Win32,60,13217,0.683035,,,,,,,,,,,,,,,,,,,,,,,,,,,,,,,,,,,,,0,7,7,1,1,,,,,,,,,,,,,,,,,,,,,,,,
,,,,,,,,,,,,l,Incorrect,,,,,,t2.png,t3.png,1,0.90855,20,Female,2020-11-19_14h27.43.693,torte-2b,2020.1.3,Win32,60,13217,0.55154,,,,,,,,,,,,,,,,,,,,,,,,,,,,,,,,,,,,,0,8,8,68,1,,,,,,,,,,,,,,,,,,,,,,,,
,,,,,,,,,,,,a,Incorrect,,,,,,t2.png,t4.png,2,0.059078,20,Female,2020-11-19_14h27.43.693,torte-2b,2020.1.3,Win32,60,13217,0.292435,,,,,,,,,,,,,,,,,,,,,,,,,,,,,,,,,,,,,0,9,9,11,1,,,,,,,,,,,,,,,,,,,,,,,,
,,,,,,,,,,,,l,Correct!,,,,,,t1.png,t4.png,3,0.0000131,20,Female,2020-11-19_14h27.43.693,torte-2b,2020.1.3,Win32,60,13217,0.409385,,,,,,,,,,,,,,,,,,,,,,,,,,,,,,,,,,,,,0,10,10,50,1,,,,,,,,,,,,,,,,,,,,,,,,
,,,,,,,,,,,,a,Correct!,,,,,,t1.png,t1.png,0,0.978,20,Female,2020-11-19_14h27.43.693,torte-2b,2020.1.3,Win32,60,13217,1.008595,,,,,,,,,,,,,,,,,,,,,,,,,,,,,,,,,,,,,0,11,11,28,1,,,,,,,,,,,,,,,,,,,,,,,,
,,,,,,,,,,,,l,Correct!,,,,,,t4.png,t2.png,2,0.059078,20,Female,2020-11-19_14h27.43.693,torte-2b,2020.1.3,Win32,60,13217,0.602845,,,,,,,,,,,,,,,,,,,,,,,,,,,,,,,,,,,,,0,12,12,110,1,,,,,,,,,,,,,,,,,,,,,,,,
,,,,,,,,,,,,l,Incorrect,,,,,,t2.png,t2.png,0,0.98115,20,Female,2020-11-19_14h27.43.693,torte-2b,2020.1.3,Win32,60,13217,1.007975,,,,,,,,,,,,,,,,,,,,,,,,,,,,,,,,,,,,,0,13,13,2,1,,,,,,,,,,,,,,,,,,,,,,,,
,,,,,,,,,,,,a,Correct!,,,,,,t1.png,t2.png,1,0.90025,20,Female,2020-11-19_14h27.43.693,torte-2b,2020.1.3,Win32,60,13217,0.49312,,,,,,,,,,,,,,,,,,,,,,,,,,,,,,,,,,,,,0,14,14,112,1,,,,,,,,,,,,,,,,,,,,,,,,
,,,,,,,,,,,,l,Incorrect,,,,,,t3.png,t2.png,1,0.90855,20,Female,2020-11-19_14h27.43.693,torte-2b,2020.1.3,Win32,60,13217,0.46542,,,,,,,,,,,,,,,,,,,,,,,,,,,,,,,,,,,,,0,15,15,18,1,,,,,,,,,,,,,,,,,,,,,,,,
,,,,,,,,,,,,a,Incorrect,,,,,,t1.png,t3.png,2,0.056466,20,Female,2020-11-19_14h27.43.693,torte-2b,2020.1.3,Win32,60,13217,0.65478,,,,,,,,,,,,,,,,,,,,,,,,,,,,,,,,,,,,,0,16,16,99,1,,,,,,,,,,,,,,,,,,,,,,,,
,,,,,,,,,,,,l,Correct!,,,,,,t5.png,t2.png,3,0.0000131,20,Female,2020-11-19_14h27.43.693,torte-2b,2020.1.3,Win32,60,13217,0.838735,,,,,,,,,,,,,,,,,,,,,,,,,,,,,,,,,,,,,0,17,17,91,1,,,,,,,,,,,,,,,,,,,,,,,,
,,,,,,,,,,,,a,Incorrect,,,,,,t2.png,t5.png,3,0.0000131,20,Female,2020-11-19_14h27.43.693,torte-2b,2020.1.3,Win32,60,13217,0.69074,,,,,,,,,,,,,,,,,,,,,,,,,,,,,,,,,,,,,0,18,18,40,1,,,,,,,,,,,,,,,,,,,,,,,,
,,,,,,,,,,,,l,Incorrect,,,,,,t3.png,t4.png,1,0.90855,20,Female,2020-11-19_14h27.43.693,torte-2b,2020.1.3,Win32,60,13217,0.48131,,,,,,,,,,,,,,,,,,,,,,,,,,,,,,,,,,,,,0,19,19,84,1,,,,,,,,,,,,,,,,,,,,,,,,
,,,,,,,,,,,,l,Correct!,,,,,,t2.png,t5.png,3,0.0000131,20,Female,2020-11-19_14h27.43.693,torte-2b,2020.1.3,Win32,60,13217,0.48406,,,,,,,,,,,,,,,,,,,,,,,,,,,,,,,,,,,,,0,20,20,66,1,,,,,,,,,,,,,,,,,,,,,,,,
,,,,,,,,,,,,a,Correct!,,,,,,t2.png,t1.png,1,0.90025,20,Female,2020-11-19_14h27.43.693,torte-2b,2020.1.3,Win32,60,13217,0.59808,,,,,,,,,,,,,,,,,,,,,,,,,,,,,,,,,,,,,0,21,21,19,1,,,,,,,,,,,,,,,,,,,,,,,,
,,,,,,,,,,,,l,Incorrect,,,,,,t5.png,t5.png,0,0.97829,20,Female,2020-11-19_14h27.43.693,torte-2b,2020.1.3,Win32,60,13217,0.587115,,,,,,,,,,,,,,,,,,,,,,,,,,,,,,,,,,,,,0,22,22,73,1,,,,,,,,,,,,,,,,,,,,,,,,
,,,,,,,,,,,,a,Correct!,,,,,,t5.png,t4.png,1,0.9,20,Female,2020-11-19_14h27.43.693,torte-2b,2020.1.3,Win32,60,13217,0.639075,,,,,,,,,,,,,,,,,,,,,,,,,,,,,,,,,,,,,0,23,23,76,1,,,,,,,,,,,,,,,,,,,,,,,,
,,,,,,,,,,,,l,Incorrect,,,,,,t3.png,t4.png,1,0.909,20,Female,2020-11-19_14h27.43.693,torte-2b,2020.1.3,Win32,60,13217,0.367685,,,,,,,,,,,,,,,,,,,,,,,,,,,,,,,,,,,,,0,24,24,106,1,,,,,,,,,,,,,,,,,,,,,,,,
,,,,,,,,,,,,a,Correct!,,,,,,t5.png,t5.png,0,0.97829,20,Female,2020-11-19_14h27.43.693,torte-2b,2020.1.3,Win32,60,13217,0.535075,,,,,,,,,,,,,,,,,,,,,,,,,,,,,,,,,,,,,0,25,25,70,1,,,,,,,,,,,,,,,,,,,,,,,,
,,,,,,,,,,,,l,Incorrect,,,,,,t2.png,t3.png,1,0.90855,20,Female,2020-11-19_14h27.43.693,torte-2b,2020.1.3,Win32,60,13217,0.766455,,,,,,,,,,,,,,,,,,,,,,,,,,,,,,,,,,,,,0,26,26,111,1,,,,,,,,,,,,,,,,,,,,,,,,
,,,,,,,,,,,,l,Correct!,,,,,,t1.png,t5.png,4,9.55E-11,20,Female,2020-11-19_14h27.43.693,torte-2b,2020.1.3,Win32,60,13217,0.60533,,,,,,,,,,,,,,,,,,,,,,,,,,,,,,,,,,,,,0,27,27,85,1,,,,,,,,,,,,,,,,,,,,,,,,
,,,,,,,,,,,,a,Incorrect,,,,,,t4.png,t1.png,3,0.0000131,20,Female,2020-11-19_14h27.43.693,torte-2b,2020.1.3,Win32,60,13217,0.463965,,,,,,,,,,,,,,,,,,,,,,,,,,,,,,,,,,,,,0,28,28,93,1,,,,,,,,,,,,,,,,,,,,,,,,
,,,,,,,,,,,,l,Incorrect,,,,,,t3.png,t4.png,1,0.909,20,Female,2020-11-19_14h27.43.693,torte-2b,2020.1.3,Win32,60,13217,0.465455,,,,,,,,,,,,,,,,,,,,,,,,,,,,,,,,,,,,,0,29,29,89,1,,,,,,,,,,,,,,,,,,,,,,,,
,,,,,,,,,,,,a,Incorrect,,,,,,t3.png,t1.png,2,0.056466,20,Female,2020-11-19_14h27.43.693,torte-2b,2020.1.3,Win32,60,13217,0.45015,,,,,,,,,,,,,,,,,,,,,,,,,,,,,,,,,,,,,0,30,30,29,1,,,,,,,,,,,,,,,,,,,,,,,,
,,,,,,,,,,,,a,Incorrect,,,,,,t4.png,t1.png,3,0.0000131,20,Female,2020-11-19_14h27.43.693,torte-2b,2020.1.3,Win32,60,13217,1.575345,,,,,,,,,,,,,,,,,,,,,,,,,,,,,,,,,,,,,0,31,31,13,1,,,,,,,,,,,,,,,,,,,,,,,,
,,,,,,,,,,,,l,Correct!,,,,,,t5.png,t4.png,1,0.90025,20,Female,2020-11-19_14h27.43.693,torte-2b,2020.1.3,Win32,60,13217,0.79006,,,,,,,,,,,,,,,,,,,,,,,,,,,,,,,,,,,,,0,32,32,27,1,,,,,,,,,,,,,,,,,,,,,,,,
,,,,,,,,,,,,a,Incorrect,,,,,,t4.png,t2.png,2,0.059078,20,Female,2020-11-19_14h27.43.693,torte-2b,2020.1.3,Win32,60,13217,0.49822,,,,,,,,,,,,,,,,,,,,,,,,,,,,,,,,,,,,,0,33,33,109,1,,,,,,,,,,,,,,,,,,,,,,,,
,,,,,,,,,,,,l,Correct!,,,,,,t3.png,t4.png,1,0.90855,20,Female,2020-11-19_14h27.43.693,torte-2b,2020.1.3,Win32,60,13217,0.44241,,,,,,,,,,,,,,,,,,,,,,,,,,,,,,,,,,,,,0,34,34,96,1,,,,,,,,,,,,,,,,,,,,,,,,
,,,,,,,,,,,,a,Correct!,,,,,,t2.png,t2.png,0,0.98115,20,Female,2020-11-19_14h27.43.693,torte-2b,2020.1.3,Win32,60,13217,0.69883,,,,,,,,,,,,,,,,,,,,,,,,,,,,,,,,,,,,,0,35,35,59,1,,,,,,,,,,,,,,,,,,,,,,,,
,,,,,,,,,,,,l,Correct!,,,,,,t5.png,t3.png,2,0.056466,20,Female,2020-11-19_14h27.43.693,torte-2b,2020.1.3,Win32,60,13217,0.703315,,,,,,,,,,,,,,,,,,,,,,,,,,,,,,,,,,,,,0,36,36,108,1,,,,,,,,,,,,,,,,,,,,,,,,
,,,,,,,,,,,,l,Incorrect,,,,,,t4.png,t3.png,1,0.909,20,Female,2020-11-19_14h27.43.693,torte-2b,2020.1.3,Win32,60,13217,0.77427,,,,,,,,,,,,,,,,,,,,,,,,,,,,,,,,,,,,,0,37,37,46,1,,,,,,,,,,,,,,,,,,,,,,,,
,,,,,,,,,,,,a,Incorrect,,,,,,t1.png,t3.png,2,0.056466,20,Female,2020-11-19_14h27.43.693,torte-2b,2020.1.3,Win32,60,13217,0.29006,,,,,,,,,,,,,,,,,,,,,,,,,,,,,,,,,,,,,0,38,38,60,1,,,,,,,,,,,,,,,,,,,,,,,,
,,,,,,,,,,,,l,Incorrect,,,,,,t5.png,t4.png,1,0.9,20,Female,2020-11-19_14h27.43.693,torte-2b,2020.1.3,Win32,60,13217,0.28515,,,,,,,,,,,,,,,,,,,,,,,,,,,,,,,,,,,,,0,39,39,49,1,,,,,,,,,,,,,,,,,,,,,,,,
,,,,,,,,,,,,a,Correct!,,,,,,t3.png,t2.png,1,0.909,20,Female,2020-11-19_14h27.43.693,torte-2b,2020.1.3,Win32,60,13217,0.32399,,,,,,,,,,,,,,,,,,,,,,,,,,,,,,,,,,,,,0,40,40,23,1,,,,,,,,,,,,,,,,,,,,,,,,
,,,,,,,,,,,,l,Incorrect,,,,,,t4.png,t5.png,1,0.90025,20,Female,2020-11-19_14h27.43.693,torte-2b,2020.1.3,Win32,60,13217,0.480975,,,,,,,,,,,,,,,,,,,,,,,,,,,,,,,,,,,,,0,41,41,47,1,,,,,,,,,,,,,,,,,,,,,,,,
,,,,,,,,,,,,l,Correct!,,,,,,t3.png,t5.png,2,0.056466,20,Female,2020-11-19_14h27.43.693,torte-2b,2020.1.3,Win32,60,13217,0.4139,,,,,,,,,,,,,,,,,,,,,,,,,,,,,,,,,,,,,0,42,42,44,1,,,,,,,,,,,,,,,,,,,,,,,,
,,,,,,,,,,,,l,Correct!,,,,,,t1.png,t4.png,3,0.0000131,20,Female,2020-11-19_14h27.43.693,torte-2b,2020.1.3,Win32,60,13217,0.42088,,,,,,,,,,,,,,,,,,,,,,,,,,,,,,,,,,,,,0,43,43,92,1,,,,,,,,,,,,,,,,,,,,,,,,
,,,,,,,,,,,,a,Incorrect,,,,,,t4.png,t1.png,3,0.0000131,20,Female,2020-11-19_14h27.43.693,torte-2b,2020.1.3,Win32,60,13217,0.44761,,,,,,,,,,,,,,,,,,,,,,,,,,,,,,,,,,,,,0,44,44,48,1,,,,,,,,,,,,,,,,,,,,,,,,
,,,,,,,,,,,,l,Incorrect,,,,,,t1.png,t1.png,0,0.978,20,Female,2020-11-19_14h27.43.693,torte-2b,2020.1.3,Win32,60,13217,0.365585,,,,,,,,,,,,,,,,,,,,,,,,,,,,,,,,,,,,,0,45,45,54,1,,,,,,,,,,,,,,,,,,,,,,,,
,,,,,,,,,,,,a,Incorrect,,,,,,t5.png,t2.png,3,0.0000131,20,Female,2020-11-19_14h27.43.693,torte-2b,2020.1.3,Win32,60,13217,0.315475,,,,,,,,,,,,,,,,,,,,,,,,,,,,,,,,,,,,,0,46,46,116,1,,,,,,,,,,,,,,,,,,,,,,,,
,,,,,,,,,,,,l,Correct!,,,,,,t1.png,t3.png,2,0.056466,20,Female,2020-11-19_14h27.43.693,torte-2b,2020.1.3,Win32,60,13217,0.481835,,,,,,,,,,,,,,,,,,,,,,,,,,,,,,,,,,,,,0,47,47,69,1,,,,,,,,,,,,,,,,,,,,,,,,
,,,,,,,,,,,,l,Correct!,,,,,,t1.png,t4.png,3,0.0000131,20,Female,2020-11-19_14h27.43.693,torte-2b,2020.1.3,Win32,60,13217,0.40615,,,,,,,,,,,,,,,,,,,,,,,,,,,,,,,,,,,,,0,48,48,107,1,,,,,,,,,,,,,,,,,,,,,,,,
,,,,,,,,,,,,l,Incorrect,,,,,,t1.png,t2.png,1,0.90025,20,Female,2020-11-19_14h27.43.693,torte-2b,2020.1.3,Win32,60,13217,0.41505,,,,,,,,,,,,,,,,,,,,,,,,,,,,,,,,,,,,,0,49,49,105,1,,,,,,,,,,,,,,,,,,,,,,,,
,,,,,,,,,,,,l,Correct!,,,,,,t2.png,t5.png,3,0.0000131,20,Female,2020-11-19_14h27.43.693,torte-2b,2020.1.3,Win32,60,13217,0.415495,,,,,,,,,,,,,,,,,,,,,,,,,,,,,,,,,,,,,0,50,50,8,1,,,,,,,,,,,,,,,,,,,,,,,,
,,,,,,,,,,,,a,Correct!,,,,,,t4.png,t4.png,0,0.98115,20,Female,2020-11-19_14h27.43.693,torte-2b,2020.1.3,Win32,60,13217,0.448985,,,,,,,,,,,,,,,,,,,,,,,,,,,,,,,,,,,,,0,51,51,21,1,,,,,,,,,,,,,,,,,,,,,,,,
,,,,,,,,,,,,l,Correct!,,,,,,t1.png,t1.png,0,0.97829,20,Female,2020-11-19_14h27.43.693,torte-2b,2020.1.3,Win32,60,13217,0.400405,,,,,,,,,,,,,,,,,,,,,,,,,,,,,,,,,,,,,0,52,52,9,1,,,,,,,,,,,,,,,,,,,,,,,,
,,,,,,,,,,,,l,Incorrect,,,,,,t4.png,t5.png,1,0.9,20,Female,2020-11-19_14h27.43.693,torte-2b,2020.1.3,Win32,60,13217,0.58136,,,,,,,,,,,,,,,,,,,,,,,,,,,,,,,,,,,,,0,53,53,115,1,,,,,,,,,,,,,,,,,,,,,,,,
,,,,,,,,,,,,a,Correct!,,,,,,t4.png,t3.png,1,0.90855,20,Female,2020-11-19_14h27.43.693,torte-2b,2020.1.3,Win32,60,13217,0.51477,,,,,,,,,,,,,,,,,,,,,,,,,,,,,,,,,,,,,0,54,54,75,1,,,,,,,,,,,,,,,,,,,,,,,,
,,,,,,,,,,,,l,Correct!,,,,,,t4.png,t2.png,2,0.059078,20,Female,2020-11-19_14h27.43.693,torte-2b,2020.1.3,Win32,60,13217,0.292885,,,,,,,,,,,,,,,,,,,,,,,,,,,,,,,,,,,,,0,55,55,86,1,,,,,,,,,,,,,,,,,,,,,,,,
,,,,,,,,,,,,a,Correct!,,,,,,t2.png,t3.png,1,0.90855,20,Female,2020-11-19_14h27.43.693,torte-2b,2020.1.3,Win32,60,13217,0.26695,,,,,,,,,,,,,,,,,,,,,,,,,,,,,,,,,,,,,0,56,56,10,1,,,,,,,,,,,,,,,,,,,,,,,,
,,,,,,,,,,,,l,Correct!,,,,,,t2.png,t4.png,2,0.059078,20,Female,2020-11-19_14h27.43.693,torte-2b,2020.1.3,Win32,60,13217,0.32601,,,,,,,,,,,,,,,,,,,,,,,,,,,,,,,,,,,,,0,57,57,37,1,,,,,,,,,,,,,,,,,,,,,,,,
,,,,,,,,,,,,a,Incorrect,,,,,,t3.png,t1.png,2,0.056466,20,Female,2020-11-19_14h27.43.693,torte-2b,2020.1.3,Win32,60,13217,0.484135,,,,,,,,,,,,,,,,,,,,,,,,,,,,,,,,,,,,,0,58,58,0,1,,,,,,,,,,,,,,,,,,,,,,,,
,,,,,,,,,,,,l,Incorrect,,,,,,t2.png,t2.png,0,0.98115,20,Female,2020-11-19_14h27.43.693,torte-2b,2020.1.3,Win32,60,13217,0.47651,,,,,,,,,,,,,,,,,,,,,,,,,,,,,,,,,,,,,0,59,59,57,1,,,,,,,,,,,,,,,,,,,,,,,,
,,,,,,,,,,,,a,Incorrect,,,,,,t5.png,t1.png,4,9.55E-11,20,Female,2020-11-19_14h27.43.693,torte-2b,2020.1.3,Win32,60,13217,0.58504,,,,,,,,,,,,,,,,,,,,,,,,,,,,,,,,,,,,,0,60,60,43,1,,,,,,,,,,,,,,,,,,,,,,,,
,,,,,,,,,,,,a,Incorrect,,,,,,t2.png,t1.png,1,0.90025,20,Female,2020-11-19_14h27.43.693,torte-2b,2020.1.3,Win32,60,13217,0.557705,,,,,,,,,,,,,,,,,,,,,,,,,,,,,,,,,,,,,0,61,61,5,1,,,,,,,,,,,,,,,,,,,,,,,,
,,,,,,,,,,,,l,Correct!,,,,,,t2.png,t4.png,2,0.059078,20,Female,2020-11-19_14h27.43.693,torte-2b,2020.1.3,Win32,60,13217,0.457905,,,,,,,,,,,,,,,,,,,,,,,,,,,,,,,,,,,,,0,62,62,77,1,,,,,,,,,,,,,,,,,,,,,,,,
,,,,,,,,,,,,l,Incorrect,,,,,,t1.png,t2.png,1,0.90025,20,Female,2020-11-19_14h27.43.693,torte-2b,2020.1.3,Win32,60,13217,0.381155,,,,,,,,,,,,,,,,,,,,,,,,,,,,,,,,,,,,,0,63,63,72,1,,,,,,,,,,,,,,,,,,,,,,,,
,,,,,,,,,,,,l,Incorrect,,,,,,t3.png,t5.png,2,0.056466,20,Female,2020-11-19_14h27.43.693,torte-2b,2020.1.3,Win32,60,13217,0.47132,,,,,,,,,,,,,,,,,,,,,,,,,,,,,,,,,,,,,0,64,64,14,1,,,,,,,,,,,,,,,,,,,,,,,,
,,,,,,,,,,,,a,Incorrect,,,,,,t2.png,t1.png,1,0.9,20,Female,2020-11-19_14h27.43.693,torte-2b,2020.1.3,Win32,60,13217,0.43513,,,,,,,,,,,,,,,,,,,,,,,,,,,,,,,,,,,,,0,65,65,118,1,,,,,,,,,,,,,,,,,,,,,,,,
,,,,,,,,,,,,a,Incorrect,,,,,,t3.png,t5.png,2,0.0565,20,Female,2020-11-19_14h27.43.693,torte-2b,2020.1.3,Win32,60,13217,0.549005,,,,,,,,,,,,,,,,,,,,,,,,,,,,,,,,,,,,,0,66,66,30,1,,,,,,,,,,,,,,,,,,,,,,,,
,,,,,,,,,,,,l,Correct!,,,,,,t2.png,t4.png,2,0.0591,20,Female,2020-11-19_14h27.43.693,torte-2b,2020.1.3,Win32,60,13217,0.381455,,,,,,,,,,,,,,,,,,,,,,,,,,,,,,,,,,,,,0,67,67,15,1,,,,,,,,,,,,,,,,,,,,,,,,
,,,,,,,,,,,,a,Incorrect,,,,,,t5.png,t1.png,4,9.55E-11,20,Female,2020-11-19_14h27.43.693,torte-2b,2020.1.3,Win32,60,13217,0.390535,,,,,,,,,,,,,,,,,,,,,,,,,,,,,,,,,,,,,0,68,68,102,1,,,,,,,,,,,,,,,,,,,,,,,,
,,,,,,,,,,,,l,Incorrect,,,,,,t2.png,t3.png,1,0.90855,20,Female,2020-11-19_14h27.43.693,torte-2b,2020.1.3,Win32,60,13217,0.36508,,,,,,,,,,,,,,,,,,,,,,,,,,,,,,,,,,,,,0,69,69,65,1,,,,,,,,,,,,,,,,,,,,,,,,
,,,,,,,,,,,,a,Correct!,,,,,,t4.png,t3.png,1,0.909,20,Female,2020-11-19_14h27.43.693,torte-2b,2020.1.3,Win32,60,13217,0.47259,,,,,,,,,,,,,,,,,,,,,,,,,,,,,,,,,,,,,0,70,70,20,1,,,,,,,,,,,,,,,,,,,,,,,,
,,,,,,,,,,,,l,Incorrect,,,,,,t2.png,t1.png,1,0.90025,20,Female,2020-11-19_14h27.43.693,torte-2b,2020.1.3,Win32,60,13217,0.43339,,,,,,,,,,,,,,,,,,,,,,,,,,,,,,,,,,,,,0,71,71,62,1,,,,,,,,,,,,,,,,,,,,,,,,
,,,,,,,,,,,,l,Incorrect,,,,,,t2.png,t2.png,0,0.98115,20,Female,2020-11-19_14h27.43.693,torte-2b,2020.1.3,Win32,60,13217,0.65871,,,,,,,,,,,,,,,,,,,,,,,,,,,,,,,,,,,,,0,72,72,7,1,,,,,,,,,,,,,,,,,,,,,,,,
,,,,,,,,,,,,l,Incorrect,,,,,,t1.png,t2.png,1,0.90025,20,Female,2020-11-19_14h27.43.693,torte-2b,2020.1.3,Win32,60,13217,0.465485,,,,,,,,,,,,,,,,,,,,,,,,,,,,,,,,,,,,,0,73,73,33,1,,,,,,,,,,,,,,,,,,,,,,,,
,,,,,,,,,,,,a,Correct!,,,,,,t2.png,t2.png,0,0.981,20,Female,2020-11-19_14h27.43.693,torte-2b,2020.1.3,Win32,60,13217,0.4689,,,,,,,,,,,,,,,,,,,,,,,,,,,,,,,,,,,,,0,74,74,101,1,,,,,,,,,,,,,,,,,,,,,,,,
,,,,,,,,,,,,l,Incorrect,,,,,,t4.png,t5.png,1,0.90025,20,Female,2020-11-19_14h27.43.693,torte-2b,2020.1.3,Win32,60,13217,0.61619,,,,,,,,,,,,,,,,,,,,,,,,,,,,,,,,,,,,,0,75,75,58,1,,,,,,,,,,,,,,,,,,,,,,,,
,,,,,,,,,,,,a,Correct!,,,,,,t3.png,t2.png,1,0.909,20,Female,2020-11-19_14h27.43.693,torte-2b,2020.1.3,Win32,60,13217,0.874785,,,,,,,,,,,,,,,,,,,,,,,,,,,,,,,,,,,,,0,76,76,3,1,,,,,,,,,,,,,,,,,,,,,,,,
,,,,,,,,,,,,l,Correct!,,,,,,t3.png,t5.png,2,0.056466,20,Female,2020-11-19_14h27.43.693,torte-2b,2020.1.3,Win32,60,13217,0.558495,,,,,,,,,,,,,,,,,,,,,,,,,,,,,,,,,,,,,0,77,77,6,1,,,,,,,,,,,,,,,,,,,,,,,,
,,,,,,,,,,,,a,Incorrect,,,,,,t5.png,t5.png,0,0.97829,20,Female,2020-11-19_14h27.43.693,torte-2b,2020.1.3,Win32,60,13217,0.674345,,,,,,,,,,,,,,,,,,,,,,,,,,,,,,,,,,,,,0,78,78,25,1,,,,,,,,,,,,,,,,,,,,,,,,
,,,,,,,,,,,,a,Correct!,,,,,,t4.png,t3.png,1,0.90855,20,Female,2020-11-19_14h27.43.693,torte-2b,2020.1.3,Win32,60,13217,0.94745,,,,,,,,,,,,,,,,,,,,,,,,,,,,,,,,,,,,,0,79,79,35,1,,,,,,,,,,,,,,,,,,,,,,,,
,,,,,,,,,,,,a,Incorrect,,,,,,t5.png,t3.png,2,0.056466,20,Female,2020-11-19_14h27.43.693,torte-2b,2020.1.3,Win32,60,13217,1.248535,,,,,,,,,,,,,,,,,,,,,,,,,,,,,,,,,,,,,0,80,80,38,1,,,,,,,,,,,,,,,,,,,,,,,,
,,,,,,,,,,,,l,Incorrect,,,,,,t4.png,t4.png,0,0.98115,20,Female,2020-11-19_14h27.43.693,torte-2b,2020.1.3,Win32,60,13217,0.73517,,,,,,,,,,,,,,,,,,,,,,,,,,,,,,,,,,,,,0,81,81,90,1,,,,,,,,,,,,,,,,,,,,,,,,
,,,,,,,,,,,,l,Incorrect,,,,,,t5.png,t4.png,1,0.90025,20,Female,2020-11-19_14h27.43.693,torte-2b,2020.1.3,Win32,60,13217,0.748535,,,,,,,,,,,,,,,,,,,,,,,,,,,,,,,,,,,,,0,82,82,26,1,,,,,,,,,,,,,,,,,,,,,,,,
,,,,,,,,,,,,a,Incorrect,,,,,,t5.png,t2.png,3,0.0000131,20,Female,2020-11-19_14h27.43.693,torte-2b,2020.1.3,Win32,60,13217,0.55178,,,,,,,,,,,,,,,,,,,,,,,,,,,,,,,,,,,,,0,83,83,98,1,,,,,,,,,,,,,,,,,,,,,,,,
,,,,,,,,,,,,l,Correct!,,,,,,t2.png,t4.png,2,0.059078,20,Female,2020-11-19_14h27.43.693,torte-2b,2020.1.3,Win32,60,13217,0.696385,,,,,,,,,,,,,,,,,,,,,,,,,,,,,,,,,,,,,0,84,84,24,1,,,,,,,,,,,,,,,,,,,,,,,,
,,,,,,,,,,,,a,Incorrect,,,,,,t5.png,t1.png,4,9.55E-11,20,Female,2020-11-19_14h27.43.693,torte-2b,2020.1.3,Win32,60,13217,0.55595,,,,,,,,,,,,,,,,,,,,,,,,,,,,,,,,,,,,,0,85,85,71,1,,,,,,,,,,,,,,,,,,,,,,,,
,,,,,,,,,,,,a,Correct!,,,,,,t5.png,t4.png,1,0.90025,20,Female,2020-11-19_14h27.43.693,torte-2b,2020.1.3,Win32,60,13217,0.69822,,,,,,,,,,,,,,,,,,,,,,,,,,,,,,,,,,,,,0,86,86,34,1,,,,,,,,,,,,,,,,,,,,,,,,
,,,,,,,,,,,,l,Correct!,,,,,,t5.png,t2.png,3,0.0000131,20,Female,2020-11-19_14h27.43.693,torte-2b,2020.1.3,Win32,60,13217,0.27264,,,,,,,,,,,,,,,,,,,,,,,,,,,,,,,,,,,,,0,87,87,119,1,,,,,,,,,,,,,,,,,,,,,,,,
,,,,,,,,,,,,l,Correct!,,,,,,t1.png,t3.png,2,0.056466,20,Female,2020-11-19_14h27.43.693,torte-2b,2020.1.3,Win32,60,13217,0.257,,,,,,,,,,,,,,,,,,,,,,,,,,,,,,,,,,,,,0,88,88,87,1,,,,,,,,,,,,,,,,,,,,,,,,
,,,,,,,,,,,,l,Correct!,,,,,,t1.png,t4.png,3,0.0000131,20,Female,2020-11-19_14h27.43.693,torte-2b,2020.1.3,Win32,60,13217,0.885765,,,,,,,,,,,,,,,,,,,,,,,,,,,,,,,,,,,,,0,89,89,17,1,,,,,,,,,,,,,,,,,,,,,,,,
,,,,,,,,,,,,a,Incorrect,,,,,,t5.png,t3.png,2,0.0565,20,Female,2020-11-19_14h27.43.693,torte-2b,2020.1.3,Win32,60,13217,0.268775,,,,,,,,,,,,,,,,,,,,,,,,,,,,,,,,,,,,,0,90,90,39,1,,,,,,,,,,,,,,,,,,,,,,,,
,,,,,,,,,,,,l,Correct!,,,,,,t5.png,t1.png,4,9.55E-11,20,Female,2020-11-19_14h27.43.693,torte-2b,2020.1.3,Win32,60,13217,0.42304,,,,,,,,,,,,,,,,,,,,,,,,,,,,,,,,,,,,,0,91,91,22,1,,,,,,,,,,,,,,,,,,,,,,,,
,,,,,,,,,,,,a,Correct!,,,,,,t3.png,t2.png,1,0.90855,20,Female,2020-11-19_14h27.43.693,torte-2b,2020.1.3,Win32,60,13217,0.53178,,,,,,,,,,,,,,,,,,,,,,,,,,,,,,,,,,,,,0,92,92,97,1,,,,,,,,,,,,,,,,,,,,,,,,
,,,,,,,,,,,,a,Correct!,,,,,,t4.png,t4.png,0,0.98115,20,Female,2020-11-19_14h27.43.693,torte-2b,2020.1.3,Win32,60,13217,0.33375,,,,,,,,,,,,,,,,,,,,,,,,,,,,,,,,,,,,,0,93,93,80,1,,,,,,,,,,,,,,,,,,,,,,,,
,,,,,,,,,,,,l,Correct!,,,,,,t1.png,t4.png,3,0.0000131,20,Female,2020-11-19_14h27.43.693,torte-2b,2020.1.3,Win32,60,13217,0.370845,,,,,,,,,,,,,,,,,,,,,,,,,,,,,,,,,,,,,0,94,94,81,1,,,,,,,,,,,,,,,,,,,,,,,,
,,,,,,,,,,,,l,Incorrect,,,,,,t4.png,t4.png,0,0.98115,20,Female,2020-11-19_14h27.43.693,torte-2b,2020.1.3,Win32,60,13217,0.526255,,,,,,,,,,,,,,,,,,,,,,,,,,,,,,,,,,,,,0,95,95,52,1,,,,,,,,,,,,,,,,,,,,,,,,
,,,,,,,,,,,,l,Correct!,,,,,,t2.png,t5.png,3,0.0000131,20,Female,2020-11-19_14h27.43.693,torte-2b,2020.1.3,Win32,60,13217,0.559715,,,,,,,,,,,,,,,,,,,,,,,,,,,,,,,,,,,,,0,96,96,104,1,,,,,,,,,,,,,,,,,,,,,,,,
,,,,,,,,,,,,l,Incorrect,,,,,,t1.png,t1.png,0,0.97829,20,Female,2020-11-19_14h27.43.693,torte-2b,2020.1.3,Win32,60,13217,0.6596,,,,,,,,,,,,,,,,,,,,,,,,,,,,,,,,,,,,,0,97,97,78,1,,,,,,,,,,,,,,,,,,,,,,,,
,,,,,,,,,,,,a,Correct!,,,,,,t3.png,t4.png,1,0.909,20,Female,2020-11-19_14h27.43.693,torte-2b,2020.1.3,Win32,60,13217,0.49068,,,,,,,,,,,,,,,,,,,,,,,,,,,,,,,,,,,,,0,98,98,82,1,,,,,,,,,,,,,,,,,,,,,,,,
,,,,,,,,,,,,l,Incorrect,,,,,,t5.png,t5.png,0,0.978,20,Female,2020-11-19_14h27.43.693,torte-2b,2020.1.3,Win32,60,13217,0.721585,,,,,,,,,,,,,,,,,,,,,,,,,,,,,,,,,,,,,0,99,99,117,1,,,,,,,,,,,,,,,,,,,,,,,,
,,,,,,,,,,,,a,Correct!,,,,,,t4.png,t3.png,1,0.90855,20,Female,2020-11-19_14h27.43.693,torte-2b,2020.1.3,Win32,60,13217,0.754135,,,,,,,,,,,,,,,,,,,,,,,,,,,,,,,,,,,,,0,100,100,45,1,,,,,,,,,,,,,,,,,,,,,,,,
,,,,,,,,,,,,a,Incorrect,,,,,,t5.png,t1.png,4,9.55E-11,20,Female,2020-11-19_14h27.43.693,torte-2b,2020.1.3,Win32,60,13217,0.465595,,,,,,,,,,,,,,,,,,,,,,,,,,,,,,,,,,,,,0,101,101,100,1,,,,,,,,,,,,,,,,,,,,,,,,
,,,,,,,,,,,,l,Correct!,,,,,,t3.png,t5.png,2,0.0565,20,Female,2020-11-19_14h27.43.693,torte-2b,2020.1.3,Win32,60,13217,0.284205,,,,,,,,,,,,,,,,,,,,,,,,,,,,,,,,,,,,,0,102,102,83,1,,,,,,,,,,,,,,,,,,,,,,,,
,,,,,,,,,,,,a,Incorrect,,,,,,t2.png,t5.png,3,0.0000131,20,Female,2020-11-19_14h27.43.693,torte-2b,2020.1.3,Win32,60,13217,0.4525,,,,,,,,,,,,,,,,,,,,,,,,,,,,,,,,,,,,,0,103,103,95,1,,,,,,,,,,,,,,,,,,,,,,,,
,,,,,,,,,,,,a,Incorrect,,,,,,t5.png,t3.png,2,0.056466,20,Female,2020-11-19_14h27.43.693,torte-2b,2020.1.3,Win32,60,13217,0.798975,,,,,,,,,,,,,,,,,,,,,,,,,,,,,,,,,,,,,0,104,104,56,1,,,,,,,,,,,,,,,,,,,,,,,,
,,,,,,,,,,,,l,Incorrect,,,,,,t1.png,t1.png,0,0.97829,20,Female,2020-11-19_14h27.43.693,torte-2b,2020.1.3,Win32,60,13217,0.265025,,,,,,,,,,,,,,,,,,,,,,,,,,,,,,,,,,,,,0,105,105,67,1,,,,,,,,,,,,,,,,,,,,,,,,
,,,,,,,,,,,,a,Incorrect,,,,,,t3.png,t1.png,2,0.0565,20,Female,2020-11-19_14h27.43.693,torte-2b,2020.1.3,Win32,60,13217,0.333695,,,,,,,,,,,,,,,,,,,,,,,,,,,,,,,,,,,,,0,106,106,31,1,,,,,,,,,,,,,,,,,,,,,,,,
,,,,,,,,,,,,l,Incorrect,,,,,,t2.png,t1.png,1,0.90025,20,Female,2020-11-19_14h27.43.693,torte-2b,2020.1.3,Win32,60,13217,0.38457,,,,,,,,,,,,,,,,,,,,,,,,,,,,,,,,,,,,,0,107,107,4,1,,,,,,,,,,,,,,,,,,,,,,,,
,,,,,,,,,,,,a,Incorrect,,,,,,t4.png,t1.png,3,0.0000131,20,Female,2020-11-19_14h27.43.693,torte-2b,2020.1.3,Win32,60,13217,0.404115,,,,,,,,,,,,,,,,,,,,,,,,,,,,,,,,,,,,,0,108,108,42,1,,,,,,,,,,,,,,,,,,,,,,,,
,,,,,,,,,,,,a,Incorrect,,,,,,t4.png,t2.png,2,0.0591,20,Female,2020-11-19_14h27.43.693,torte-2b,2020.1.3,Win32,60,13217,0.45386,,,,,,,,,,,,,,,,,,,,,,,,,,,,,,,,,,,,,0,109,109,36,1,,,,,,,,,,,,,,,,,,,,,,,,
,,,,,,,,,,,,a,Correct!,,,,,,t3.png,t2.png,1,0.90855,20,Female,2020-11-19_14h27.43.693,torte-2b,2020.1.3,Win32,60,13217,0.499115,,,,,,,,,,,,,,,,,,,,,,,,,,,,,,,,,,,,,0,110,110,53,1,,,,,,,,,,,,,,,,,,,,,,,,
,,,,,,,,,,,,l,Correct!,,,,,,t1.png,t5.png,4,9.55E-11,20,Female,2020-11-19_14h27.43.693,torte-2b,2020.1.3,Win32,60,13217,0.39742,,,,,,,,,,,,,,,,,,,,,,,,,,,,,,,,,,,,,0,111,111,41,1,,,,,,,,,,,,,,,,,,,,,,,,
,,,,,,,,,,,,l,Correct!,,,,,,t4.png,t5.png,1,0.90025,20,Female,2020-11-19_14h27.43.693,torte-2b,2020.1.3,Win32,60,13217,0.5016,,,,,,,,,,,,,,,,,,,,,,,,,,,,,,,,,,,,,0,112,112,113,1,,,,,,,,,,,,,,,,,,,,,,,,
,,,,,,,,,,,,a,Incorrect,,,,,,t3.png,t1.png,2,0.056466,20,Female,2020-11-19_14h27.43.693,torte-2b,2020.1.3,Win32,60,13217,0.52159,,,,,,,,,,,,,,,,,,,,,,,,,,,,,,,,,,,,,0,113,113,32,1,,,,,,,,,,,,,,,,,,,,,,,,
,,,,,,,,,,,,a,Incorrect,,,,,,t5.png,t3.png,2,0.056466,20,Female,2020-11-19_14h27.43.693,torte-2b,2020.1.3,Win32,60,13217,0.42,,,,,,,,,,,,,,,,,,,,,,,,,,,,,,,,,,,,,0,114,114,114,1,,,,,,,,,,,,,,,,,,,,,,,,
,,,,,,,,,,,,l,Incorrect,,,,,,t4.png,t5.png,1,0.90025,20,Female,2020-11-19_14h27.43.693,torte-2b,2020.1.3,Win32,60,13217,0.55687,,,,,,,,,,,,,,,,,,,,,,,,,,,,,,,,,,,,,0,115,115,103,1,,,,,,,,,,,,,,,,,,,,,,,,
,,,,,,,,,,,,l,Incorrect,,,,,,t5.png,t5.png,0,0.97829,20,Female,2020-11-19_14h27.43.693,torte-2b,2020.1.3,Win32,60,13217,0.734475,,,,,,,,,,,,,,,,,,,,,,,,,,,,,,,,,,,,,0,116,116,94,1,,,,,,,,,,,,,,,,,,,,,,,,
,,,,,,,,,,,,a,Correct!,,,,,,t2.png,t3.png,1,0.909,20,Female,2020-11-19_14h27.43.693,torte-2b,2020.1.3,Win32,60,13217,0.61446,,,,,,,,,,,,,,,,,,,,,,,,,,,,,,,,,,,,,0,117,117,74,1,,,,,,,,,,,,,,,,,,,,,,,,
,,,,,,,,,,,,a,Incorrect,,,,,,t4.png,t2.png,2,0.059078,20,Female,2020-11-19_14h27.43.693,torte-2b,2020.1.3,Win32,60,13217,0.4901,,,,,,,,,,,,,,,,,,,,,,,,,,,,,,,,,,,,,0,118,118,88,1,,,,,,,,,,,,,,,,,,,,,,,,
,,,,,,,,,,,,l,Incorrect,,,,,,t4.png,t4.png,0,0.98115,20,Female,2020-11-19_14h27.43.693,torte-2b,2020.1.3,Win32,60,13217,0.592395,,,,,,,,,,,,,,,,,,,,,,,,,,,,,,,,,,,,,0,119,119,79,1,,,,,,,,,,,,,,,,,,,,,,,,
,,,,,,,,,,,,,,,,,,,,,,,20,Female,2020-11-19_14h27.43.693,torte-2b,2020.1.3,Win32,60,13217,,space,2.537235,,,,,,,,,,,,,,,,,,,,,,,,,,,,,,,,,,,,,,,,223.3333591,57.999991,1,0,0,s3,202.6666918,30.66665685,1,0,0,t2,214.6666921,-90.6666801,1,0,0,proceed,space,0.181935,space,0.354375,space,0.32394
