key_resp_8.keys,key_resp_8.rt,key_resp_9.keys,key_resp_9.rt,key_resp_10.keys,key_resp_10.rt,key_resp_11.keys,key_resp_11.rt,key_resp_2.keys,key_resp_2.rt,key_resp_3.keys,key_resp_3.rt,key_resp.keys,Feedback,train.thisRepN,train.thisTrialN,train.thisN,train.thisIndex,train.ran,torta_sx,torta_dx,difference,probability,age,gender,date,expName,psychopyVersion,OS,frameRate,participant,key_resp.rt,key_resp_15.keys,key_resp_15.rt,key_resp_6.keys,key_resp_6.rt,test1.thisRepN,test1.thisTrialN,test1.thisN,test1.thisIndex,test1.ran,key_resp_4.keys,key_resp_4.rt,key_resp_5.keys,back1.thisRepN,back1.thisTrialN,back1.thisN,back1.thisIndex,back1.ran,letter,key_resp_5.rt,back2.thisRepN,back2.thisTrialN,back2.thisN,back2.thisIndex,back2.ran,back3.thisRepN,back3.thisTrialN,back3.thisN,back3.thisIndex,back3.ran,back4.thisRepN,back4.thisTrialN,back4.thisN,back4.thisIndex,back4.ran,key_resp_7.keys,key_resp_7.rt,test2.thisRepN,test2.thisTrialN,test2.thisN,test2.thisIndex,test2.ran,mouse.x,mouse.y,mouse.leftButton,mouse.midButton,mouse.rightButton,mouse.clicked_name,mouse_2.x,mouse_2.y,mouse_2.leftButton,mouse_2.midButton,mouse_2.rightButton,mouse_2.clicked_name,mouse_3.x,mouse_3.y,mouse_3.leftButton,mouse_3.midButton,mouse_3.rightButton,mouse_3.clicked_name,key_resp_12.keys,key_resp_12.rt,key_resp_13.keys,key_resp_13.rt,key_resp_14.keys,key_resp_14.rt
space,8.351745,space,12.37534,space,0.44921,space,0.154765,space,2.36122,space,38.036315,,Too slow :(,0,0,0,62,1,t1.png,t4.png,3,0.0000131,19,female,2020-08-24_16h59.37.462,torte-2b,2020.1.3,Win32,60,13214,,,,,,,,,,,,,,,,,,,,,,,,,,,,,,,,,,,,,,,,,,,,,,,,,,,,,,,,,,,,,,,,,,
,,,,,,,,,,,,a,Correct!,0,1,1,77,1,t3.png,t2.png,1,0.90855,19,female,2020-08-24_16h59.37.462,torte-2b,2020.1.3,Win32,60,13214,1.070355,,,,,,,,,,,,,,,,,,,,,,,,,,,,,,,,,,,,,,,,,,,,,,,,,,,,,,,,,,,,,,,,,
,,,,,,,,,,,,a,Correct!,0,2,2,33,1,t3.png,t2.png,1,0.90855,19,female,2020-08-24_16h59.37.462,torte-2b,2020.1.3,Win32,60,13214,0.945775,,,,,,,,,,,,,,,,,,,,,,,,,,,,,,,,,,,,,,,,,,,,,,,,,,,,,,,,,,,,,,,,,
,,,,,,,,,,,,l,Correct!,0,3,3,115,1,t2.png,t4.png,2,0.059078,19,female,2020-08-24_16h59.37.462,torte-2b,2020.1.3,Win32,60,13214,1.634635,,,,,,,,,,,,,,,,,,,,,,,,,,,,,,,,,,,,,,,,,,,,,,,,,,,,,,,,,,,,,,,,,
,,,,,,,,,,,,l,Correct!,0,4,4,108,1,t3.png,t1.png,2,0.056466,19,female,2020-08-24_16h59.37.462,torte-2b,2020.1.3,Win32,60,13214,1.239095,,,,,,,,,,,,,,,,,,,,,,,,,,,,,,,,,,,,,,,,,,,,,,,,,,,,,,,,,,,,,,,,,
,,,,,,,,,,,,a,Incorrect,0,5,5,43,1,t3.png,t1.png,2,0.056466,19,female,2020-08-24_16h59.37.462,torte-2b,2020.1.3,Win32,60,13214,1.056615,,,,,,,,,,,,,,,,,,,,,,,,,,,,,,,,,,,,,,,,,,,,,,,,,,,,,,,,,,,,,,,,,
,,,,,,,,,,,,a,Incorrect,0,6,6,10,1,t4.png,t1.png,3,0.059078,19,female,2020-08-24_16h59.37.462,torte-2b,2020.1.3,Win32,60,13214,0.776875,,,,,,,,,,,,,,,,,,,,,,,,,,,,,,,,,,,,,,,,,,,,,,,,,,,,,,,,,,,,,,,,,
,,,,,,,,,,,,a,Incorrect,0,7,7,34,1,t1.png,t5.png,4,9.55E-11,19,female,2020-08-24_16h59.37.462,torte-2b,2020.1.3,Win32,60,13214,0.590255,,,,,,,,,,,,,,,,,,,,,,,,,,,,,,,,,,,,,,,,,,,,,,,,,,,,,,,,,,,,,,,,,
,,,,,,,,,,,,a,Incorrect,0,8,8,39,1,t2.png,t4.png,2,0.059078,19,female,2020-08-24_16h59.37.462,torte-2b,2020.1.3,Win32,60,13214,0.55023,,,,,,,,,,,,,,,,,,,,,,,,,,,,,,,,,,,,,,,,,,,,,,,,,,,,,,,,,,,,,,,,,
,,,,,,,,,,,,a,Correct!,0,9,9,101,1,t5.png,t4.png,1,0.90025,19,female,2020-08-24_16h59.37.462,torte-2b,2020.1.3,Win32,60,13214,0.434015,,,,,,,,,,,,,,,,,,,,,,,,,,,,,,,,,,,,,,,,,,,,,,,,,,,,,,,,,,,,,,,,,
,,,,,,,,,,,,a,Correct!,0,10,10,5,1,t5.png,t5.png,0,0.97829,19,female,2020-08-24_16h59.37.462,torte-2b,2020.1.3,Win32,60,13214,1.157195,,,,,,,,,,,,,,,,,,,,,,,,,,,,,,,,,,,,,,,,,,,,,,,,,,,,,,,,,,,,,,,,,
,,,,,,,,,,,,l,Correct!,0,11,11,79,1,t1.png,t4.png,3,0.0000131,19,female,2020-08-24_16h59.37.462,torte-2b,2020.1.3,Win32,60,13214,1.1576,,,,,,,,,,,,,,,,,,,,,,,,,,,,,,,,,,,,,,,,,,,,,,,,,,,,,,,,,,,,,,,,,
,,,,,,,,,,,,a,Correct!,0,12,12,69,1,t5.png,t4.png,1,0.90025,19,female,2020-08-24_16h59.37.462,torte-2b,2020.1.3,Win32,60,13214,0.929065,,,,,,,,,,,,,,,,,,,,,,,,,,,,,,,,,,,,,,,,,,,,,,,,,,,,,,,,,,,,,,,,,
,,,,,,,,,,,,a,Correct!,0,13,13,42,1,t5.png,t5.png,0,0.97829,19,female,2020-08-24_16h59.37.462,torte-2b,2020.1.3,Win32,60,13214,0.912265,,,,,,,,,,,,,,,,,,,,,,,,,,,,,,,,,,,,,,,,,,,,,,,,,,,,,,,,,,,,,,,,,
,,,,,,,,,,,,a,Incorrect,0,14,14,92,1,t5.png,t1.png,4,9.55E-11,19,female,2020-08-24_16h59.37.462,torte-2b,2020.1.3,Win32,60,13214,0.920275,,,,,,,,,,,,,,,,,,,,,,,,,,,,,,,,,,,,,,,,,,,,,,,,,,,,,,,,,,,,,,,,,
,,,,,,,,,,,,l,Correct!,0,15,15,2,1,t3.png,t1.png,2,0.056466,19,female,2020-08-24_16h59.37.462,torte-2b,2020.1.3,Win32,60,13214,1.700885,,,,,,,,,,,,,,,,,,,,,,,,,,,,,,,,,,,,,,,,,,,,,,,,,,,,,,,,,,,,,,,,,
,,,,,,,,,,,,a,Correct!,0,16,16,109,1,t5.png,t5.png,0,0.97829,19,female,2020-08-24_16h59.37.462,torte-2b,2020.1.3,Win32,60,13214,0.76736,,,,,,,,,,,,,,,,,,,,,,,,,,,,,,,,,,,,,,,,,,,,,,,,,,,,,,,,,,,,,,,,,
,,,,,,,,,,,,a,Correct!,0,17,17,83,1,t3.png,t2.png,1,0.90855,19,female,2020-08-24_16h59.37.462,torte-2b,2020.1.3,Win32,60,13214,1.434295,,,,,,,,,,,,,,,,,,,,,,,,,,,,,,,,,,,,,,,,,,,,,,,,,,,,,,,,,,,,,,,,,
,,,,,,,,,,,,a,Correct!,0,18,18,116,1,t4.png,t5.png,1,0.90025,19,female,2020-08-24_16h59.37.462,torte-2b,2020.1.3,Win32,60,13214,0.68777,,,,,,,,,,,,,,,,,,,,,,,,,,,,,,,,,,,,,,,,,,,,,,,,,,,,,,,,,,,,,,,,,
,,,,,,,,,,,,a,Incorrect,0,19,19,103,1,t4.png,t1.png,3,0.059078,19,female,2020-08-24_16h59.37.462,torte-2b,2020.1.3,Win32,60,13214,0.83542,,,,,,,,,,,,,,,,,,,,,,,,,,,,,,,,,,,,,,,,,,,,,,,,,,,,,,,,,,,,,,,,,
,,,,,,,,,,,,a,Incorrect,0,20,20,100,1,t3.png,t2.png,1,0.90855,19,female,2020-08-24_16h59.37.462,torte-2b,2020.1.3,Win32,60,13214,0.88378,,,,,,,,,,,,,,,,,,,,,,,,,,,,,,,,,,,,,,,,,,,,,,,,,,,,,,,,,,,,,,,,,
,,,,,,,,,,,,l,Correct!,0,21,21,36,1,t1.png,t4.png,3,0.0000131,19,female,2020-08-24_16h59.37.462,torte-2b,2020.1.3,Win32,60,13214,0.784035,,,,,,,,,,,,,,,,,,,,,,,,,,,,,,,,,,,,,,,,,,,,,,,,,,,,,,,,,,,,,,,,,
,,,,,,,,,,,,l,Correct!,0,22,22,89,1,t1.png,t5.png,4,9.55E-11,19,female,2020-08-24_16h59.37.462,torte-2b,2020.1.3,Win32,60,13214,1.107445,,,,,,,,,,,,,,,,,,,,,,,,,,,,,,,,,,,,,,,,,,,,,,,,,,,,,,,,,,,,,,,,,
,,,,,,,,,,,,l,Correct!,0,23,23,26,1,t1.png,t5.png,4,9.55E-11,19,female,2020-08-24_16h59.37.462,torte-2b,2020.1.3,Win32,60,13214,1.150995,,,,,,,,,,,,,,,,,,,,,,,,,,,,,,,,,,,,,,,,,,,,,,,,,,,,,,,,,,,,,,,,,
,,,,,,,,,,,,a,Correct!,0,24,24,23,1,t4.png,t5.png,1,0.90025,19,female,2020-08-24_16h59.37.462,torte-2b,2020.1.3,Win32,60,13214,1.50128,,,,,,,,,,,,,,,,,,,,,,,,,,,,,,,,,,,,,,,,,,,,,,,,,,,,,,,,,,,,,,,,,
,,,,,,,,,,,,a,Correct!,0,25,25,65,1,t5.png,t5.png,0,0.97829,19,female,2020-08-24_16h59.37.462,torte-2b,2020.1.3,Win32,60,13214,0.727455,,,,,,,,,,,,,,,,,,,,,,,,,,,,,,,,,,,,,,,,,,,,,,,,,,,,,,,,,,,,,,,,,
,,,,,,,,,,,,l,Correct!,0,26,26,102,1,t2.png,t4.png,2,0.059078,19,female,2020-08-24_16h59.37.462,torte-2b,2020.1.3,Win32,60,13214,1.48535,,,,,,,,,,,,,,,,,,,,,,,,,,,,,,,,,,,,,,,,,,,,,,,,,,,,,,,,,,,,,,,,,
,,,,,,,,,,,,l,Correct!,0,27,27,105,1,t4.png,t1.png,3,0.059078,19,female,2020-08-24_16h59.37.462,torte-2b,2020.1.3,Win32,60,13214,1.052795,,,,,,,,,,,,,,,,,,,,,,,,,,,,,,,,,,,,,,,,,,,,,,,,,,,,,,,,,,,,,,,,,
,,,,,,,,,,,,l,Correct!,0,28,28,16,1,t1.png,t5.png,4,9.55E-11,19,female,2020-08-24_16h59.37.462,torte-2b,2020.1.3,Win32,60,13214,1.543145,,,,,,,,,,,,,,,,,,,,,,,,,,,,,,,,,,,,,,,,,,,,,,,,,,,,,,,,,,,,,,,,,
,,,,,,,,,,,,l,Correct!,0,29,29,96,1,t2.png,t4.png,2,0.059078,19,female,2020-08-24_16h59.37.462,torte-2b,2020.1.3,Win32,60,13214,2.18588,,,,,,,,,,,,,,,,,,,,,,,,,,,,,,,,,,,,,,,,,,,,,,,,,,,,,,,,,,,,,,,,,
,,,,,,,,,,,,a,Correct!,0,30,30,58,1,t4.png,t5.png,1,0.90025,19,female,2020-08-24_16h59.37.462,torte-2b,2020.1.3,Win32,60,13214,1.78544,,,,,,,,,,,,,,,,,,,,,,,,,,,,,,,,,,,,,,,,,,,,,,,,,,,,,,,,,,,,,,,,,
,,,,,,,,,,,,a,Correct!,0,31,31,71,1,t4.png,t5.png,1,0.90025,19,female,2020-08-24_16h59.37.462,torte-2b,2020.1.3,Win32,60,13214,1.91982,,,,,,,,,,,,,,,,,,,,,,,,,,,,,,,,,,,,,,,,,,,,,,,,,,,,,,,,,,,,,,,,,
,,,,,,,,,,,,a,Incorrect,0,32,32,57,1,t3.png,t1.png,2,0.056466,19,female,2020-08-24_16h59.37.462,torte-2b,2020.1.3,Win32,60,13214,1.818515,,,,,,,,,,,,,,,,,,,,,,,,,,,,,,,,,,,,,,,,,,,,,,,,,,,,,,,,,,,,,,,,,
,,,,,,,,,,,,l,Correct!,0,33,33,87,1,t5.png,t1.png,4,9.55E-11,19,female,2020-08-24_16h59.37.462,torte-2b,2020.1.3,Win32,60,13214,1.836455,,,,,,,,,,,,,,,,,,,,,,,,,,,,,,,,,,,,,,,,,,,,,,,,,,,,,,,,,,,,,,,,,
,,,,,,,,,,,,l,Correct!,0,34,34,82,1,t3.png,t1.png,2,0.056466,19,female,2020-08-24_16h59.37.462,torte-2b,2020.1.3,Win32,60,13214,1.47325,,,,,,,,,,,,,,,,,,,,,,,,,,,,,,,,,,,,,,,,,,,,,,,,,,,,,,,,,,,,,,,,,
,,,,,,,,,,,,l,Incorrect,0,35,35,15,1,t2.png,t3.png,1,0.90855,19,female,2020-08-24_16h59.37.462,torte-2b,2020.1.3,Win32,60,13214,1.71836,,,,,,,,,,,,,,,,,,,,,,,,,,,,,,,,,,,,,,,,,,,,,,,,,,,,,,,,,,,,,,,,,
,,,,,,,,,,,,l,Incorrect,0,36,36,60,1,t4.png,t5.png,1,0.90025,19,female,2020-08-24_16h59.37.462,torte-2b,2020.1.3,Win32,60,13214,1.49013,,,,,,,,,,,,,,,,,,,,,,,,,,,,,,,,,,,,,,,,,,,,,,,,,,,,,,,,,,,,,,,,,
,,,,,,,,,,,,l,Correct!,0,37,37,64,1,t5.png,t1.png,4,9.55E-11,19,female,2020-08-24_16h59.37.462,torte-2b,2020.1.3,Win32,60,13214,1.468245,,,,,,,,,,,,,,,,,,,,,,,,,,,,,,,,,,,,,,,,,,,,,,,,,,,,,,,,,,,,,,,,,
,,,,,,,,,,,,l,Correct!,0,38,38,59,1,t5.png,t1.png,4,9.55E-11,19,female,2020-08-24_16h59.37.462,torte-2b,2020.1.3,Win32,60,13214,1.11068,,,,,,,,,,,,,,,,,,,,,,,,,,,,,,,,,,,,,,,,,,,,,,,,,,,,,,,,,,,,,,,,,
,,,,,,,,,,,,l,Correct!,0,39,39,9,1,t1.png,t5.png,4,9.55E-11,19,female,2020-08-24_16h59.37.462,torte-2b,2020.1.3,Win32,60,13214,1.820845,,,,,,,,,,,,,,,,,,,,,,,,,,,,,,,,,,,,,,,,,,,,,,,,,,,,,,,,,,,,,,,,,
,,,,,,,,,,,,a,Incorrect,0,40,40,80,1,t4.png,t1.png,3,0.059078,19,female,2020-08-24_16h59.37.462,torte-2b,2020.1.3,Win32,60,13214,0.968035,,,,,,,,,,,,,,,,,,,,,,,,,,,,,,,,,,,,,,,,,,,,,,,,,,,,,,,,,,,,,,,,,
,,,,,,,,,,,,a,Incorrect,0,41,41,35,1,t1.png,t4.png,3,0.0000131,19,female,2020-08-24_16h59.37.462,torte-2b,2020.1.3,Win32,60,13214,1.46674,,,,,,,,,,,,,,,,,,,,,,,,,,,,,,,,,,,,,,,,,,,,,,,,,,,,,,,,,,,,,,,,,
,,,,,,,,,,,,a,Correct!,0,42,42,8,1,t5.png,t5.png,0,0.97829,19,female,2020-08-24_16h59.37.462,torte-2b,2020.1.3,Win32,60,13214,1.57896,,,,,,,,,,,,,,,,,,,,,,,,,,,,,,,,,,,,,,,,,,,,,,,,,,,,,,,,,,,,,,,,,
,,,,,,,,,,,,l,Correct!,0,43,43,13,1,t2.png,t4.png,2,0.059078,19,female,2020-08-24_16h59.37.462,torte-2b,2020.1.3,Win32,60,13214,1.467895,,,,,,,,,,,,,,,,,,,,,,,,,,,,,,,,,,,,,,,,,,,,,,,,,,,,,,,,,,,,,,,,,
,,,,,,,,,,,,l,Incorrect,0,44,44,46,1,t1.png,t1.png,0,0.97829,19,female,2020-08-24_16h59.37.462,torte-2b,2020.1.3,Win32,60,13214,1.13937,,,,,,,,,,,,,,,,,,,,,,,,,,,,,,,,,,,,,,,,,,,,,,,,,,,,,,,,,,,,,,,,,
,,,,,,,,,,,,a,Correct!,0,45,45,72,1,t5.png,t5.png,0,0.97829,19,female,2020-08-24_16h59.37.462,torte-2b,2020.1.3,Win32,60,13214,1.086285,,,,,,,,,,,,,,,,,,,,,,,,,,,,,,,,,,,,,,,,,,,,,,,,,,,,,,,,,,,,,,,,,
,,,,,,,,,,,,a,Correct!,0,46,46,12,1,t5.png,t5.png,0,0.97829,19,female,2020-08-24_16h59.37.462,torte-2b,2020.1.3,Win32,60,13214,0.89329,,,,,,,,,,,,,,,,,,,,,,,,,,,,,,,,,,,,,,,,,,,,,,,,,,,,,,,,,,,,,,,,,
,,,,,,,,,,,,l,Correct!,0,47,47,106,1,t4.png,t1.png,3,0.059078,19,female,2020-08-24_16h59.37.462,torte-2b,2020.1.3,Win32,60,13214,1.04063,,,,,,,,,,,,,,,,,,,,,,,,,,,,,,,,,,,,,,,,,,,,,,,,,,,,,,,,,,,,,,,,,
,,,,,,,,,,,,l,Correct!,0,48,48,76,1,t4.png,t1.png,3,0.059078,19,female,2020-08-24_16h59.37.462,torte-2b,2020.1.3,Win32,60,13214,0.83804,,,,,,,,,,,,,,,,,,,,,,,,,,,,,,,,,,,,,,,,,,,,,,,,,,,,,,,,,,,,,,,,,
,,,,,,,,,,,,l,Incorrect,0,49,49,91,1,t5.png,t4.png,1,0.90025,19,female,2020-08-24_16h59.37.462,torte-2b,2020.1.3,Win32,60,13214,1.368005,,,,,,,,,,,,,,,,,,,,,,,,,,,,,,,,,,,,,,,,,,,,,,,,,,,,,,,,,,,,,,,,,
,,,,,,,,,,,,a,Correct!,0,50,50,104,1,t4.png,t5.png,1,0.90025,19,female,2020-08-24_16h59.37.462,torte-2b,2020.1.3,Win32,60,13214,1.14247,,,,,,,,,,,,,,,,,,,,,,,,,,,,,,,,,,,,,,,,,,,,,,,,,,,,,,,,,,,,,,,,,
,,,,,,,,,,,,a,Correct!,0,51,51,119,1,t5.png,t4.png,1,0.90025,19,female,2020-08-24_16h59.37.462,torte-2b,2020.1.3,Win32,60,13214,1.25923,,,,,,,,,,,,,,,,,,,,,,,,,,,,,,,,,,,,,,,,,,,,,,,,,,,,,,,,,,,,,,,,,
,,,,,,,,,,,,l,Correct!,0,52,52,107,1,t1.png,t4.png,3,0.0000131,19,female,2020-08-24_16h59.37.462,torte-2b,2020.1.3,Win32,60,13214,0.859845,,,,,,,,,,,,,,,,,,,,,,,,,,,,,,,,,,,,,,,,,,,,,,,,,,,,,,,,,,,,,,,,,
,,,,,,,,,,,,l,Incorrect,0,53,53,29,1,t3.png,t2.png,1,0.90855,19,female,2020-08-24_16h59.37.462,torte-2b,2020.1.3,Win32,60,13214,2.00084,,,,,,,,,,,,,,,,,,,,,,,,,,,,,,,,,,,,,,,,,,,,,,,,,,,,,,,,,,,,,,,,,
,,,,,,,,,,,,a,Correct!,0,54,54,114,1,t5.png,t4.png,1,0.90025,19,female,2020-08-24_16h59.37.462,torte-2b,2020.1.3,Win32,60,13214,0.7039,,,,,,,,,,,,,,,,,,,,,,,,,,,,,,,,,,,,,,,,,,,,,,,,,,,,,,,,,,,,,,,,,
,,,,,,,,,,,,a,Correct!,0,55,55,7,1,t3.png,t2.png,1,0.90855,19,female,2020-08-24_16h59.37.462,torte-2b,2020.1.3,Win32,60,13214,2.02458,,,,,,,,,,,,,,,,,,,,,,,,,,,,,,,,,,,,,,,,,,,,,,,,,,,,,,,,,,,,,,,,,
,,,,,,,,,,,,a,Incorrect,0,56,56,95,1,t1.png,t4.png,3,0.0000131,19,female,2020-08-24_16h59.37.462,torte-2b,2020.1.3,Win32,60,13214,2.28865,,,,,,,,,,,,,,,,,,,,,,,,,,,,,,,,,,,,,,,,,,,,,,,,,,,,,,,,,,,,,,,,,
,,,,,,,,,,,,l,Correct!,0,57,57,50,1,t1.png,t5.png,4,9.55E-11,19,female,2020-08-24_16h59.37.462,torte-2b,2020.1.3,Win32,60,13214,1.085165,,,,,,,,,,,,,,,,,,,,,,,,,,,,,,,,,,,,,,,,,,,,,,,,,,,,,,,,,,,,,,,,,
,,,,,,,,,,,,l,Correct!,0,58,58,117,1,t2.png,t4.png,2,0.059078,19,female,2020-08-24_16h59.37.462,torte-2b,2020.1.3,Win32,60,13214,1.584865,,,,,,,,,,,,,,,,,,,,,,,,,,,,,,,,,,,,,,,,,,,,,,,,,,,,,,,,,,,,,,,,,
,,,,,,,,,,,,l,Correct!,0,59,59,113,1,t5.png,t1.png,4,9.55E-11,19,female,2020-08-24_16h59.37.462,torte-2b,2020.1.3,Win32,60,13214,1.119255,,,,,,,,,,,,,,,,,,,,,,,,,,,,,,,,,,,,,,,,,,,,,,,,,,,,,,,,,,,,,,,,,
,,,,,,,,,,,,l,Correct!,0,60,60,11,1,t1.png,t4.png,3,0.0000131,19,female,2020-08-24_16h59.37.462,torte-2b,2020.1.3,Win32,60,13214,1.65255,,,,,,,,,,,,,,,,,,,,,,,,,,,,,,,,,,,,,,,,,,,,,,,,,,,,,,,,,,,,,,,,,
,,,,,,,,,,,,a,Correct!,0,61,61,88,1,t1.png,t1.png,0,0.97829,19,female,2020-08-24_16h59.37.462,torte-2b,2020.1.3,Win32,60,13214,1.272835,,,,,,,,,,,,,,,,,,,,,,,,,,,,,,,,,,,,,,,,,,,,,,,,,,,,,,,,,,,,,,,,,
,,,,,,,,,,,,l,Correct!,0,62,62,63,1,t1.png,t5.png,4,9.55E-11,19,female,2020-08-24_16h59.37.462,torte-2b,2020.1.3,Win32,60,13214,1.27653,,,,,,,,,,,,,,,,,,,,,,,,,,,,,,,,,,,,,,,,,,,,,,,,,,,,,,,,,,,,,,,,,
,,,,,,,,,,,,a,Correct!,0,63,63,14,1,t2.png,t3.png,1,0.90855,19,female,2020-08-24_16h59.37.462,torte-2b,2020.1.3,Win32,60,13214,1.29059,,,,,,,,,,,,,,,,,,,,,,,,,,,,,,,,,,,,,,,,,,,,,,,,,,,,,,,,,,,,,,,,,
,,,,,,,,,,,,l,Incorrect,0,64,64,51,1,t4.png,t1.png,3,0.059078,19,female,2020-08-24_16h59.37.462,torte-2b,2020.1.3,Win32,60,13214,2.187645,,,,,,,,,,,,,,,,,,,,,,,,,,,,,,,,,,,,,,,,,,,,,,,,,,,,,,,,,,,,,,,,,
,,,,,,,,,,,,l,Correct!,0,65,65,68,1,t2.png,t4.png,2,0.059078,19,female,2020-08-24_16h59.37.462,torte-2b,2020.1.3,Win32,60,13214,1.434745,,,,,,,,,,,,,,,,,,,,,,,,,,,,,,,,,,,,,,,,,,,,,,,,,,,,,,,,,,,,,,,,,
,,,,,,,,,,,,a,Correct!,0,66,66,38,1,t1.png,t1.png,0,0.97829,19,female,2020-08-24_16h59.37.462,torte-2b,2020.1.3,Win32,60,13214,1.084045,,,,,,,,,,,,,,,,,,,,,,,,,,,,,,,,,,,,,,,,,,,,,,,,,,,,,,,,,,,,,,,,,
,,,,,,,,,,,,a,Correct!,0,67,67,85,1,t5.png,t4.png,1,0.90025,19,female,2020-08-24_16h59.37.462,torte-2b,2020.1.3,Win32,60,13214,1.418635,,,,,,,,,,,,,,,,,,,,,,,,,,,,,,,,,,,,,,,,,,,,,,,,,,,,,,,,,,,,,,,,,
,,,,,,,,,,,,l,Correct!,0,68,68,40,1,t2.png,t4.png,2,0.059078,19,female,2020-08-24_16h59.37.462,torte-2b,2020.1.3,Win32,60,13214,1.411875,,,,,,,,,,,,,,,,,,,,,,,,,,,,,,,,,,,,,,,,,,,,,,,,,,,,,,,,,,,,,,,,,
,,,,,,,,,,,,a,Correct!,0,69,69,24,1,t5.png,t5.png,0,0.97829,19,female,2020-08-24_16h59.37.462,torte-2b,2020.1.3,Win32,60,13214,0.971935,,,,,,,,,,,,,,,,,,,,,,,,,,,,,,,,,,,,,,,,,,,,,,,,,,,,,,,,,,,,,,,,,
,,,,,,,,,,,,a,Correct!,0,70,70,61,1,t1.png,t1.png,0,0.97829,19,female,2020-08-24_16h59.37.462,torte-2b,2020.1.3,Win32,60,13214,1.118095,,,,,,,,,,,,,,,,,,,,,,,,,,,,,,,,,,,,,,,,,,,,,,,,,,,,,,,,,,,,,,,,,
,,,,,,,,,,,,a,Correct!,0,71,71,86,1,t5.png,t4.png,1,0.90025,19,female,2020-08-24_16h59.37.462,torte-2b,2020.1.3,Win32,60,13214,1.351665,,,,,,,,,,,,,,,,,,,,,,,,,,,,,,,,,,,,,,,,,,,,,,,,,,,,,,,,,,,,,,,,,
,,,,,,,,,,,,l,Correct!,0,72,72,49,1,t5.png,t1.png,4,9.55E-11,19,female,2020-08-24_16h59.37.462,torte-2b,2020.1.3,Win32,60,13214,1.143435,,,,,,,,,,,,,,,,,,,,,,,,,,,,,,,,,,,,,,,,,,,,,,,,,,,,,,,,,,,,,,,,,
,,,,,,,,,,,,l,Incorrect,0,73,73,18,1,t2.png,t3.png,1,0.90855,19,female,2020-08-24_16h59.37.462,torte-2b,2020.1.3,Win32,60,13214,1.885065,,,,,,,,,,,,,,,,,,,,,,,,,,,,,,,,,,,,,,,,,,,,,,,,,,,,,,,,,,,,,,,,,
,,,,,,,,,,,,a,Correct!,0,74,74,97,1,t1.png,t1.png,0,0.97829,19,female,2020-08-24_16h59.37.462,torte-2b,2020.1.3,Win32,60,13214,1.13425,,,,,,,,,,,,,,,,,,,,,,,,,,,,,,,,,,,,,,,,,,,,,,,,,,,,,,,,,,,,,,,,,
,,,,,,,,,,,,a,Correct!,0,75,75,32,1,t3.png,t2.png,1,0.90855,19,female,2020-08-24_16h59.37.462,torte-2b,2020.1.3,Win32,60,13214,1.70719,,,,,,,,,,,,,,,,,,,,,,,,,,,,,,,,,,,,,,,,,,,,,,,,,,,,,,,,,,,,,,,,,
,,,,,,,,,,,,l,Correct!,0,76,76,118,1,t1.png,t5.png,4,9.55E-11,19,female,2020-08-24_16h59.37.462,torte-2b,2020.1.3,Win32,60,13214,1.118185,,,,,,,,,,,,,,,,,,,,,,,,,,,,,,,,,,,,,,,,,,,,,,,,,,,,,,,,,,,,,,,,,
,,,,,,,,,,,,,Too slow :(,0,77,77,17,1,t4.png,t1.png,3,0.059078,19,female,2020-08-24_16h59.37.462,torte-2b,2020.1.3,Win32,60,13214,,,,,,,,,,,,,,,,,,,,,,,,,,,,,,,,,,,,,,,,,,,,,,,,,,,,,,,,,,,,,,,,,,
,,,,,,,,,,,,a,Correct!,0,78,78,4,1,t3.png,t2.png,1,0.90855,19,female,2020-08-24_16h59.37.462,torte-2b,2020.1.3,Win32,60,13214,1.11804,,,,,,,,,,,,,,,,,,,,,,,,,,,,,,,,,,,,,,,,,,,,,,,,,,,,,,,,,,,,,,,,,
,,,,,,,,,,,,a,Correct!,0,79,79,67,1,t3.png,t2.png,1,0.90855,19,female,2020-08-24_16h59.37.462,torte-2b,2020.1.3,Win32,60,13214,0.80136,,,,,,,,,,,,,,,,,,,,,,,,,,,,,,,,,,,,,,,,,,,,,,,,,,,,,,,,,,,,,,,,,
,,,,,,,,,,,,a,Correct!,0,80,80,56,1,t2.png,t3.png,1,0.90855,19,female,2020-08-24_16h59.37.462,torte-2b,2020.1.3,Win32,60,13214,0.9421,,,,,,,,,,,,,,,,,,,,,,,,,,,,,,,,,,,,,,,,,,,,,,,,,,,,,,,,,,,,,,,,,
,,,,,,,,,,,,a,Correct!,0,81,81,21,1,t5.png,t4.png,1,0.90025,19,female,2020-08-24_16h59.37.462,torte-2b,2020.1.3,Win32,60,13214,0.90899,,,,,,,,,,,,,,,,,,,,,,,,,,,,,,,,,,,,,,,,,,,,,,,,,,,,,,,,,,,,,,,,,
,,,,,,,,,,,,l,Correct!,0,82,82,28,1,t1.png,t4.png,3,0.0000131,19,female,2020-08-24_16h59.37.462,torte-2b,2020.1.3,Win32,60,13214,0.870015,,,,,,,,,,,,,,,,,,,,,,,,,,,,,,,,,,,,,,,,,,,,,,,,,,,,,,,,,,,,,,,,,
,,,,,,,,,,,,a,Correct!,0,83,83,84,1,t2.png,t3.png,1,0.90855,19,female,2020-08-24_16h59.37.462,torte-2b,2020.1.3,Win32,60,13214,1.124,,,,,,,,,,,,,,,,,,,,,,,,,,,,,,,,,,,,,,,,,,,,,,,,,,,,,,,,,,,,,,,,,
,,,,,,,,,,,,a,Correct!,0,84,84,22,1,t5.png,t5.png,0,0.97829,19,female,2020-08-24_16h59.37.462,torte-2b,2020.1.3,Win32,60,13214,0.49132,,,,,,,,,,,,,,,,,,,,,,,,,,,,,,,,,,,,,,,,,,,,,,,,,,,,,,,,,,,,,,,,,
,,,,,,,,,,,,l,Correct!,0,85,85,37,1,t2.png,t4.png,2,0.059078,19,female,2020-08-24_16h59.37.462,torte-2b,2020.1.3,Win32,60,13214,1.152085,,,,,,,,,,,,,,,,,,,,,,,,,,,,,,,,,,,,,,,,,,,,,,,,,,,,,,,,,,,,,,,,,
,,,,,,,,,,,,l,Correct!,0,86,86,70,1,t1.png,t5.png,4,9.55E-11,19,female,2020-08-24_16h59.37.462,torte-2b,2020.1.3,Win32,60,13214,1.00386,,,,,,,,,,,,,,,,,,,,,,,,,,,,,,,,,,,,,,,,,,,,,,,,,,,,,,,,,,,,,,,,,
,,,,,,,,,,,,a,Correct!,0,87,87,47,1,t2.png,t3.png,1,0.90855,19,female,2020-08-24_16h59.37.462,torte-2b,2020.1.3,Win32,60,13214,0.92713,,,,,,,,,,,,,,,,,,,,,,,,,,,,,,,,,,,,,,,,,,,,,,,,,,,,,,,,,,,,,,,,,
,,,,,,,,,,,,a,Correct!,0,88,88,112,1,t5.png,t4.png,1,0.90025,19,female,2020-08-24_16h59.37.462,torte-2b,2020.1.3,Win32,60,13214,0.801245,,,,,,,,,,,,,,,,,,,,,,,,,,,,,,,,,,,,,,,,,,,,,,,,,,,,,,,,,,,,,,,,,
,,,,,,,,,,,,l,Correct!,0,89,89,98,1,t5.png,t1.png,4,9.55E-11,19,female,2020-08-24_16h59.37.462,torte-2b,2020.1.3,Win32,60,13214,0.991955,,,,,,,,,,,,,,,,,,,,,,,,,,,,,,,,,,,,,,,,,,,,,,,,,,,,,,,,,,,,,,,,,
,,,,,,,,,,,,a,Correct!,0,90,90,55,1,t1.png,t1.png,0,0.97829,19,female,2020-08-24_16h59.37.462,torte-2b,2020.1.3,Win32,60,13214,1.53957,,,,,,,,,,,,,,,,,,,,,,,,,,,,,,,,,,,,,,,,,,,,,,,,,,,,,,,,,,,,,,,,,
,,,,,,,,,,,,l,Correct!,0,91,91,99,1,t4.png,t1.png,3,0.059078,19,female,2020-08-24_16h59.37.462,torte-2b,2020.1.3,Win32,60,13214,1.48616,,,,,,,,,,,,,,,,,,,,,,,,,,,,,,,,,,,,,,,,,,,,,,,,,,,,,,,,,,,,,,,,,
,,,,,,,,,,,,l,Correct!,0,92,92,3,1,t4.png,t1.png,3,0.059078,19,female,2020-08-24_16h59.37.462,torte-2b,2020.1.3,Win32,60,13214,1.48636,,,,,,,,,,,,,,,,,,,,,,,,,,,,,,,,,,,,,,,,,,,,,,,,,,,,,,,,,,,,,,,,,
,,,,,,,,,,,,a,Correct!,0,93,93,25,1,t1.png,t1.png,0,0.97829,19,female,2020-08-24_16h59.37.462,torte-2b,2020.1.3,Win32,60,13214,0.74352,,,,,,,,,,,,,,,,,,,,,,,,,,,,,,,,,,,,,,,,,,,,,,,,,,,,,,,,,,,,,,,,,
,,,,,,,,,,,,l,Correct!,0,94,94,66,1,t5.png,t1.png,4,9.55E-11,19,female,2020-08-24_16h59.37.462,torte-2b,2020.1.3,Win32,60,13214,1.010805,,,,,,,,,,,,,,,,,,,,,,,,,,,,,,,,,,,,,,,,,,,,,,,,,,,,,,,,,,,,,,,,,
,,,,,,,,,,,,l,Correct!,0,95,95,44,1,t1.png,t4.png,3,0.0000131,19,female,2020-08-24_16h59.37.462,torte-2b,2020.1.3,Win32,60,13214,1.10198,,,,,,,,,,,,,,,,,,,,,,,,,,,,,,,,,,,,,,,,,,,,,,,,,,,,,,,,,,,,,,,,,
,,,,,,,,,,,,a,Correct!,0,96,96,53,1,t1.png,t1.png,0,0.97829,19,female,2020-08-24_16h59.37.462,torte-2b,2020.1.3,Win32,60,13214,1.041795,,,,,,,,,,,,,,,,,,,,,,,,,,,,,,,,,,,,,,,,,,,,,,,,,,,,,,,,,,,,,,,,,
,,,,,,,,,,,,a,Correct!,0,97,97,41,1,t4.png,t5.png,1,0.90025,19,female,2020-08-24_16h59.37.462,torte-2b,2020.1.3,Win32,60,13214,1.151355,,,,,,,,,,,,,,,,,,,,,,,,,,,,,,,,,,,,,,,,,,,,,,,,,,,,,,,,,,,,,,,,,
,,,,,,,,,,,,a,Correct!,0,98,98,30,1,t2.png,t3.png,1,0.90855,19,female,2020-08-24_16h59.37.462,torte-2b,2020.1.3,Win32,60,13214,1.789315,,,,,,,,,,,,,,,,,,,,,,,,,,,,,,,,,,,,,,,,,,,,,,,,,,,,,,,,,,,,,,,,,
,,,,,,,,,,,,a,Correct!,0,99,99,20,1,t5.png,t5.png,0,0.97829,19,female,2020-08-24_16h59.37.462,torte-2b,2020.1.3,Win32,60,13214,1.106275,,,,,,,,,,,,,,,,,,,,,,,,,,,,,,,,,,,,,,,,,,,,,,,,,,,,,,,,,,,,,,,,,
,,,,,,,,,,,,a,Correct!,0,100,100,111,1,t1.png,t1.png,0,0.97829,19,female,2020-08-24_16h59.37.462,torte-2b,2020.1.3,Win32,60,13214,0.80098,,,,,,,,,,,,,,,,,,,,,,,,,,,,,,,,,,,,,,,,,,,,,,,,,,,,,,,,,,,,,,,,,
,,,,,,,,,,,,a,Correct!,0,101,101,31,1,t1.png,t1.png,0,0.97829,19,female,2020-08-24_16h59.37.462,torte-2b,2020.1.3,Win32,60,13214,0.777345,,,,,,,,,,,,,,,,,,,,,,,,,,,,,,,,,,,,,,,,,,,,,,,,,,,,,,,,,,,,,,,,,
,,,,,,,,,,,,l,Correct!,0,102,102,78,1,t1.png,t4.png,3,0.0000131,19,female,2020-08-24_16h59.37.462,torte-2b,2020.1.3,Win32,60,13214,0.94123,,,,,,,,,,,,,,,,,,,,,,,,,,,,,,,,,,,,,,,,,,,,,,,,,,,,,,,,,,,,,,,,,
,,,,,,,,,,,,a,Incorrect,0,103,103,0,1,t3.png,t2.png,1,0.90855,19,female,2020-08-24_16h59.37.462,torte-2b,2020.1.3,Win32,60,13214,0.988955,,,,,,,,,,,,,,,,,,,,,,,,,,,,,,,,,,,,,,,,,,,,,,,,,,,,,,,,,,,,,,,,,
,,,,,,,,,,,,l,Correct!,0,104,104,54,1,t3.png,t1.png,2,0.056466,19,female,2020-08-24_16h59.37.462,torte-2b,2020.1.3,Win32,60,13214,1.20604,,,,,,,,,,,,,,,,,,,,,,,,,,,,,,,,,,,,,,,,,,,,,,,,,,,,,,,,,,,,,,,,,
,,,,,,,,,,,,l,Correct!,0,105,105,94,1,t3.png,t1.png,2,0.056466,19,female,2020-08-24_16h59.37.462,torte-2b,2020.1.3,Win32,60,13214,0.817665,,,,,,,,,,,,,,,,,,,,,,,,,,,,,,,,,,,,,,,,,,,,,,,,,,,,,,,,,,,,,,,,,
,,,,,,,,,,,,l,Incorrect,0,106,106,52,1,t2.png,t3.png,1,0.90855,19,female,2020-08-24_16h59.37.462,torte-2b,2020.1.3,Win32,60,13214,1.08436,,,,,,,,,,,,,,,,,,,,,,,,,,,,,,,,,,,,,,,,,,,,,,,,,,,,,,,,,,,,,,,,,
,,,,,,,,,,,,l,Correct!,0,107,107,1,1,t3.png,t1.png,2,0.056466,19,female,2020-08-24_16h59.37.462,torte-2b,2020.1.3,Win32,60,13214,1.38471,,,,,,,,,,,,,,,,,,,,,,,,,,,,,,,,,,,,,,,,,,,,,,,,,,,,,,,,,,,,,,,,,
,,,,,,,,,,,,l,Correct!,0,108,108,73,1,t3.png,t1.png,2,0.056466,19,female,2020-08-24_16h59.37.462,torte-2b,2020.1.3,Win32,60,13214,0.937995,,,,,,,,,,,,,,,,,,,,,,,,,,,,,,,,,,,,,,,,,,,,,,,,,,,,,,,,,,,,,,,,,
,,,,,,,,,,,,a,Incorrect,0,109,109,19,1,t2.png,t4.png,2,0.059078,19,female,2020-08-24_16h59.37.462,torte-2b,2020.1.3,Win32,60,13214,1.304955,,,,,,,,,,,,,,,,,,,,,,,,,,,,,,,,,,,,,,,,,,,,,,,,,,,,,,,,,,,,,,,,,
,,,,,,,,,,,,a,Correct!,0,110,110,45,1,t4.png,t5.png,1,0.90025,19,female,2020-08-24_16h59.37.462,torte-2b,2020.1.3,Win32,60,13214,0.52601,,,,,,,,,,,,,,,,,,,,,,,,,,,,,,,,,,,,,,,,,,,,,,,,,,,,,,,,,,,,,,,,,
,,,,,,,,,,,,a,Correct!,0,111,111,90,1,t4.png,t5.png,1,0.90025,19,female,2020-08-24_16h59.37.462,torte-2b,2020.1.3,Win32,60,13214,0.723175,,,,,,,,,,,,,,,,,,,,,,,,,,,,,,,,,,,,,,,,,,,,,,,,,,,,,,,,,,,,,,,,,
,,,,,,,,,,,,a,Incorrect,0,112,112,75,1,t2.png,t3.png,1,0.90855,19,female,2020-08-24_16h59.37.462,torte-2b,2020.1.3,Win32,60,13214,1.201225,,,,,,,,,,,,,,,,,,,,,,,,,,,,,,,,,,,,,,,,,,,,,,,,,,,,,,,,,,,,,,,,,
,,,,,,,,,,,,l,Correct!,0,113,113,81,1,t3.png,t1.png,2,0.056466,19,female,2020-08-24_16h59.37.462,torte-2b,2020.1.3,Win32,60,13214,1.11103,,,,,,,,,,,,,,,,,,,,,,,,,,,,,,,,,,,,,,,,,,,,,,,,,,,,,,,,,,,,,,,,,
,,,,,,,,,,,,l,Correct!,0,114,114,74,1,t5.png,t1.png,4,9.55E-11,19,female,2020-08-24_16h59.37.462,torte-2b,2020.1.3,Win32,60,13214,1.0175,,,,,,,,,,,,,,,,,,,,,,,,,,,,,,,,,,,,,,,,,,,,,,,,,,,,,,,,,,,,,,,,,
,,,,,,,,,,,,a,Correct!,0,115,115,110,1,t4.png,t5.png,1,0.90025,19,female,2020-08-24_16h59.37.462,torte-2b,2020.1.3,Win32,60,13214,0.805295,,,,,,,,,,,,,,,,,,,,,,,,,,,,,,,,,,,,,,,,,,,,,,,,,,,,,,,,,,,,,,,,,
,,,,,,,,,,,,a,Correct!,0,116,116,48,1,t2.png,t3.png,1,0.90855,19,female,2020-08-24_16h59.37.462,torte-2b,2020.1.3,Win32,60,13214,1.751475,,,,,,,,,,,,,,,,,,,,,,,,,,,,,,,,,,,,,,,,,,,,,,,,,,,,,,,,,,,,,,,,,
,,,,,,,,,,,,a,Correct!,0,117,117,93,1,t5.png,t4.png,1,0.90025,19,female,2020-08-24_16h59.37.462,torte-2b,2020.1.3,Win32,60,13214,0.790245,,,,,,,,,,,,,,,,,,,,,,,,,,,,,,,,,,,,,,,,,,,,,,,,,,,,,,,,,,,,,,,,,
,,,,,,,,,,,,l,Correct!,0,118,118,27,1,t1.png,t5.png,4,9.55E-11,19,female,2020-08-24_16h59.37.462,torte-2b,2020.1.3,Win32,60,13214,1.17753,,,,,,,,,,,,,,,,,,,,,,,,,,,,,,,,,,,,,,,,,,,,,,,,,,,,,,,,,,,,,,,,,
,,,,,,,,,,,,l,Correct!,0,119,119,6,1,t5.png,t1.png,4,9.55E-11,19,female,2020-08-24_16h59.37.462,torte-2b,2020.1.3,Win32,60,13214,1.10176,,,,,,,,,,,,,,,,,,,,,,,,,,,,,,,,,,,,,,,,,,,,,,,,,,,,,,,,,,,,,,,,,
,,,,,,,,,,,,a,Correct!,,,,,,t5.png,t4.png,1,0.90025,19,female,2020-08-24_16h59.37.462,torte-2b,2020.1.3,Win32,60,13214,1.58482,space,2.7143,space,18.89729,0,0,0,38,1,,,,,,,,,,,,,,,,,,,,,,,,,,,,,,,,,,,,,,,,,,,,,,,,,,,,,,,,
,,,,,,,,,,,,a,Incorrect,,,,,,t2.png,t5.png,3,0.0000131,19,female,2020-08-24_16h59.37.462,torte-2b,2020.1.3,Win32,60,13214,1.81131,,,,,0,1,1,46,1,,,,,,,,,,,,,,,,,,,,,,,,,,,,,,,,,,,,,,,,,,,,,,,,,,,,,,,,
,,,,,,,,,,,,l,Correct!,,,,,,t4.png,t1.png,3,0.0000131,19,female,2020-08-24_16h59.37.462,torte-2b,2020.1.3,Win32,60,13214,1.60624,,,,,0,2,2,76,1,,,,,,,,,,,,,,,,,,,,,,,,,,,,,,,,,,,,,,,,,,,,,,,,,,,,,,,,
,,,,,,,,,,,,a,Correct!,,,,,,t4.png,t4.png,0,0.98115,19,female,2020-08-24_16h59.37.462,torte-2b,2020.1.3,Win32,60,13214,1.27721,,,,,0,3,3,68,1,,,,,,,,,,,,,,,,,,,,,,,,,,,,,,,,,,,,,,,,,,,,,,,,,,,,,,,,
,,,,,,,,,,,,l,Correct!,,,,,,t2.png,t4.png,2,0.059078,19,female,2020-08-24_16h59.37.462,torte-2b,2020.1.3,Win32,60,13214,1.391915,,,,,0,4,4,67,1,,,,,,,,,,,,,,,,,,,,,,,,,,,,,,,,,,,,,,,,,,,,,,,,,,,,,,,,
,,,,,,,,,,,,l,Correct!,,,,,,t3.png,t1.png,2,0.0565,19,female,2020-08-24_16h59.37.462,torte-2b,2020.1.3,Win32,60,13214,1.35152,,,,,0,5,5,40,1,,,,,,,,,,,,,,,,,,,,,,,,,,,,,,,,,,,,,,,,,,,,,,,,,,,,,,,,
,,,,,,,,,,,,l,Incorrect,,,,,,t2.png,t1.png,1,0.90025,19,female,2020-08-24_16h59.37.462,torte-2b,2020.1.3,Win32,60,13214,1.19158,,,,,0,6,6,44,1,,,,,,,,,,,,,,,,,,,,,,,,,,,,,,,,,,,,,,,,,,,,,,,,,,,,,,,,
,,,,,,,,,,,,a,Incorrect,,,,,,t5.png,t2.png,3,0.0000131,19,female,2020-08-24_16h59.37.462,torte-2b,2020.1.3,Win32,60,13214,1.13474,,,,,0,7,7,82,1,,,,,,,,,,,,,,,,,,,,,,,,,,,,,,,,,,,,,,,,,,,,,,,,,,,,,,,,
,,,,,,,,,,,,a,Incorrect,,,,,,t3.png,t5.png,2,0.056466,19,female,2020-08-24_16h59.37.462,torte-2b,2020.1.3,Win32,60,13214,0.98724,,,,,0,8,8,78,1,,,,,,,,,,,,,,,,,,,,,,,,,,,,,,,,,,,,,,,,,,,,,,,,,,,,,,,,
,,,,,,,,,,,,l,Incorrect,,,,,,t2.png,t1.png,1,0.90025,19,female,2020-08-24_16h59.37.462,torte-2b,2020.1.3,Win32,60,13214,1.46822,,,,,0,9,9,105,1,,,,,,,,,,,,,,,,,,,,,,,,,,,,,,,,,,,,,,,,,,,,,,,,,,,,,,,,
,,,,,,,,,,,,l,Correct!,,,,,,t5.png,t1.png,4,9.55E-11,19,female,2020-08-24_16h59.37.462,torte-2b,2020.1.3,Win32,60,13214,1.13454,,,,,0,10,10,15,1,,,,,,,,,,,,,,,,,,,,,,,,,,,,,,,,,,,,,,,,,,,,,,,,,,,,,,,,
,,,,,,,,,,,,l,Incorrect,,,,,,t2.png,t1.png,1,0.90025,19,female,2020-08-24_16h59.37.462,torte-2b,2020.1.3,Win32,60,13214,1.771835,,,,,0,11,11,65,1,,,,,,,,,,,,,,,,,,,,,,,,,,,,,,,,,,,,,,,,,,,,,,,,,,,,,,,,
,,,,,,,,,,,,a,Incorrect,,,,,,t5.png,t2.png,3,0.0000131,19,female,2020-08-24_16h59.37.462,torte-2b,2020.1.3,Win32,60,13214,1.026955,,,,,0,12,12,66,1,,,,,,,,,,,,,,,,,,,,,,,,,,,,,,,,,,,,,,,,,,,,,,,,,,,,,,,,
,,,,,,,,,,,,a,Correct!,,,,,,t5.png,t4.png,1,0.90025,19,female,2020-08-24_16h59.37.462,torte-2b,2020.1.3,Win32,60,13214,0.76765,,,,,0,13,13,25,1,,,,,,,,,,,,,,,,,,,,,,,,,,,,,,,,,,,,,,,,,,,,,,,,,,,,,,,,
,,,,,,,,,,,,l,Correct!,,,,,,t1.png,t5.png,4,9.55E-11,19,female,2020-08-24_16h59.37.462,torte-2b,2020.1.3,Win32,60,13214,1.201745,,,,,0,14,14,3,1,,,,,,,,,,,,,,,,,,,,,,,,,,,,,,,,,,,,,,,,,,,,,,,,,,,,,,,,
,,,,,,,,,,,,a,Incorrect,,,,,,t3.png,t5.png,2,0.0565,19,female,2020-08-24_16h59.37.462,torte-2b,2020.1.3,Win32,60,13214,0.884445,,,,,0,15,15,71,1,,,,,,,,,,,,,,,,,,,,,,,,,,,,,,,,,,,,,,,,,,,,,,,,,,,,,,,,
,,,,,,,,,,,,l,Incorrect,,,,,,t1.png,t2.png,1,0.9,19,female,2020-08-24_16h59.37.462,torte-2b,2020.1.3,Win32,60,13214,1.43632,,,,,0,16,16,41,1,,,,,,,,,,,,,,,,,,,,,,,,,,,,,,,,,,,,,,,,,,,,,,,,,,,,,,,,
,,,,,,,,,,,,a,Correct!,,,,,,t3.png,t4.png,1,0.90855,19,female,2020-08-24_16h59.37.462,torte-2b,2020.1.3,Win32,60,13214,1.204415,,,,,0,17,17,103,1,,,,,,,,,,,,,,,,,,,,,,,,,,,,,,,,,,,,,,,,,,,,,,,,,,,,,,,,
,,,,,,,,,,,,a,Correct!,,,,,,t3.png,t4.png,1,0.90855,19,female,2020-08-24_16h59.37.462,torte-2b,2020.1.3,Win32,60,13214,1.005545,,,,,0,18,18,9,1,,,,,,,,,,,,,,,,,,,,,,,,,,,,,,,,,,,,,,,,,,,,,,,,,,,,,,,,
,,,,,,,,,,,,l,Correct!,,,,,,t2.png,t4.png,2,0.059078,19,female,2020-08-24_16h59.37.462,torte-2b,2020.1.3,Win32,60,13214,1.29104,,,,,0,19,19,53,1,,,,,,,,,,,,,,,,,,,,,,,,,,,,,,,,,,,,,,,,,,,,,,,,,,,,,,,,
,,,,,,,,,,,,l,Correct!,,,,,,t4.png,t1.png,3,0.059078,19,female,2020-08-24_16h59.37.462,torte-2b,2020.1.3,Win32,60,13214,1.55152,,,,,0,20,20,57,1,,,,,,,,,,,,,,,,,,,,,,,,,,,,,,,,,,,,,,,,,,,,,,,,,,,,,,,,
,,,,,,,,,,,,a,Correct!,,,,,,t4.png,t4.png,0,0.98115,19,female,2020-08-24_16h59.37.462,torte-2b,2020.1.3,Win32,60,13214,1.1008,,,,,0,21,21,88,1,,,,,,,,,,,,,,,,,,,,,,,,,,,,,,,,,,,,,,,,,,,,,,,,,,,,,,,,
,,,,,,,,,,,,a,Correct!,,,,,,t5.png,t5.png,0,0.978,19,female,2020-08-24_16h59.37.462,torte-2b,2020.1.3,Win32,60,13214,0.86773,,,,,0,22,22,51,1,,,,,,,,,,,,,,,,,,,,,,,,,,,,,,,,,,,,,,,,,,,,,,,,,,,,,,,,
,,,,,,,,,,,,l,Incorrect,,,,,,t1.png,t2.png,1,0.90025,19,female,2020-08-24_16h59.37.462,torte-2b,2020.1.3,Win32,60,13214,1.20097,,,,,0,23,23,6,1,,,,,,,,,,,,,,,,,,,,,,,,,,,,,,,,,,,,,,,,,,,,,,,,,,,,,,,,
,,,,,,,,,,,,a,Incorrect,,,,,,t5.png,t2.png,3,0.0000131,19,female,2020-08-24_16h59.37.462,torte-2b,2020.1.3,Win32,60,13214,1.53479,,,,,0,24,24,83,1,,,,,,,,,,,,,,,,,,,,,,,,,,,,,,,,,,,,,,,,,,,,,,,,,,,,,,,,
,,,,,,,,,,,,a,Incorrect,,,,,,t2.png,t5.png,3,0.0000131,19,female,2020-08-24_16h59.37.462,torte-2b,2020.1.3,Win32,60,13214,1.03937,,,,,0,25,25,39,1,,,,,,,,,,,,,,,,,,,,,,,,,,,,,,,,,,,,,,,,,,,,,,,,,,,,,,,,
,,,,,,,,,,,,l,Correct!,,,,,,t1.png,t4.png,3,0.0000131,19,female,2020-08-24_16h59.37.462,torte-2b,2020.1.3,Win32,60,13214,1.41809,,,,,0,26,26,23,1,,,,,,,,,,,,,,,,,,,,,,,,,,,,,,,,,,,,,,,,,,,,,,,,,,,,,,,,
,,,,,,,,,,,,l,Correct!,,,,,,t4.png,t1.png,3,0.059078,19,female,2020-08-24_16h59.37.462,torte-2b,2020.1.3,Win32,60,13214,1.241985,,,,,0,27,27,62,1,,,,,,,,,,,,,,,,,,,,,,,,,,,,,,,,,,,,,,,,,,,,,,,,,,,,,,,,
,,,,,,,,,,,,a,Correct!,,,,,,t3.png,t4.png,1,0.90855,19,female,2020-08-24_16h59.37.462,torte-2b,2020.1.3,Win32,60,13214,1.535205,,,,,0,28,28,111,1,,,,,,,,,,,,,,,,,,,,,,,,,,,,,,,,,,,,,,,,,,,,,,,,,,,,,,,,
,,,,,,,,,,,,a,Incorrect,,,,,,t3.png,t5.png,2,0.056466,19,female,2020-08-24_16h59.37.462,torte-2b,2020.1.3,Win32,60,13214,0.85068,,,,,0,29,29,60,1,,,,,,,,,,,,,,,,,,,,,,,,,,,,,,,,,,,,,,,,,,,,,,,,,,,,,,,,
,,,,,,,,,,,,l,Incorrect,,,,,,t3.png,t2.png,1,0.90855,19,female,2020-08-24_16h59.37.462,torte-2b,2020.1.3,Win32,60,13214,1.44131,,,,,0,30,30,94,1,,,,,,,,,,,,,,,,,,,,,,,,,,,,,,,,,,,,,,,,,,,,,,,,,,,,,,,,
,,,,,,,,,,,,l,Incorrect,,,,,,t2.png,t1.png,1,0.9,19,female,2020-08-24_16h59.37.462,torte-2b,2020.1.3,Win32,60,13214,1.18893,,,,,0,31,31,93,1,,,,,,,,,,,,,,,,,,,,,,,,,,,,,,,,,,,,,,,,,,,,,,,,,,,,,,,,
,,,,,,,,,,,,a,Correct!,,,,,,t4.png,t5.png,1,0.90025,19,female,2020-08-24_16h59.37.462,torte-2b,2020.1.3,Win32,60,13214,0.7367,,,,,0,32,32,33,1,,,,,,,,,,,,,,,,,,,,,,,,,,,,,,,,,,,,,,,,,,,,,,,,,,,,,,,,
,,,,,,,,,,,,l,Incorrect,,,,,,t2.png,t3.png,1,0.90855,19,female,2020-08-24_16h59.37.462,torte-2b,2020.1.3,Win32,60,13214,0.8853,,,,,0,33,33,113,1,,,,,,,,,,,,,,,,,,,,,,,,,,,,,,,,,,,,,,,,,,,,,,,,,,,,,,,,
,,,,,,,,,,,,a,Correct!,,,,,,t4.png,t4.png,0,0.98115,19,female,2020-08-24_16h59.37.462,torte-2b,2020.1.3,Win32,60,13214,1.41798,,,,,0,34,34,59,1,,,,,,,,,,,,,,,,,,,,,,,,,,,,,,,,,,,,,,,,,,,,,,,,,,,,,,,,
,,,,,,,,,,,,l,Correct!,,,,,,t1.png,t4.png,3,0.0000131,19,female,2020-08-24_16h59.37.462,torte-2b,2020.1.3,Win32,60,13214,1.68848,,,,,0,35,35,106,1,,,,,,,,,,,,,,,,,,,,,,,,,,,,,,,,,,,,,,,,,,,,,,,,,,,,,,,,
,,,,,,,,,,,,a,Correct!,,,,,,t2.png,t2.png,0,0.98115,19,female,2020-08-24_16h59.37.462,torte-2b,2020.1.3,Win32,60,13214,1.050875,,,,,0,36,36,7,1,,,,,,,,,,,,,,,,,,,,,,,,,,,,,,,,,,,,,,,,,,,,,,,,,,,,,,,,
,,,,,,,,,,,,a,Correct!,,,,,,t1.png,t1.png,0,0.97829,19,female,2020-08-24_16h59.37.462,torte-2b,2020.1.3,Win32,60,13214,0.921175,,,,,0,37,37,4,1,,,,,,,,,,,,,,,,,,,,,,,,,,,,,,,,,,,,,,,,,,,,,,,,,,,,,,,,
,,,,,,,,,,,,l,Correct!,,,,,,t5.png,t1.png,4,9.55E-11,19,female,2020-08-24_16h59.37.462,torte-2b,2020.1.3,Win32,60,13214,1.175365,,,,,0,38,38,117,1,,,,,,,,,,,,,,,,,,,,,,,,,,,,,,,,,,,,,,,,,,,,,,,,,,,,,,,,
,,,,,,,,,,,,a,Correct!,,,,,,t3.png,t2.png,1,0.90855,19,female,2020-08-24_16h59.37.462,torte-2b,2020.1.3,Win32,60,13214,1.24077,,,,,0,39,39,108,1,,,,,,,,,,,,,,,,,,,,,,,,,,,,,,,,,,,,,,,,,,,,,,,,,,,,,,,,
,,,,,,,,,,,,a,Incorrect,,,,,,t1.png,t3.png,2,0.056466,19,female,2020-08-24_16h59.37.462,torte-2b,2020.1.3,Win32,60,13214,1.50198,,,,,0,40,40,24,1,,,,,,,,,,,,,,,,,,,,,,,,,,,,,,,,,,,,,,,,,,,,,,,,,,,,,,,,
,,,,,,,,,,,,l,Correct!,,,,,,t1.png,t5.png,4,9.55E-11,19,female,2020-08-24_16h59.37.462,torte-2b,2020.1.3,Win32,60,13214,1.51017,,,,,0,41,41,20,1,,,,,,,,,,,,,,,,,,,,,,,,,,,,,,,,,,,,,,,,,,,,,,,,,,,,,,,,
,,,,,,,,,,,,a,Correct!,,,,,,t4.png,t4.png,0,0.98115,19,female,2020-08-24_16h59.37.462,torte-2b,2020.1.3,Win32,60,13214,1.15135,,,,,0,42,42,19,1,,,,,,,,,,,,,,,,,,,,,,,,,,,,,,,,,,,,,,,,,,,,,,,,,,,,,,,,
,,,,,,,,,,,,a,Correct!,,,,,,t4.png,t3.png,1,0.90855,19,female,2020-08-24_16h59.37.462,torte-2b,2020.1.3,Win32,60,13214,1.1181,,,,,0,43,43,11,1,,,,,,,,,,,,,,,,,,,,,,,,,,,,,,,,,,,,,,,,,,,,,,,,,,,,,,,,
,,,,,,,,,,,,a,Incorrect,,,,,,t5.png,t1.png,4,9.55E-11,19,female,2020-08-24_16h59.37.462,torte-2b,2020.1.3,Win32,60,13214,0.67152,,,,,0,44,44,101,1,,,,,,,,,,,,,,,,,,,,,,,,,,,,,,,,,,,,,,,,,,,,,,,,,,,,,,,,
,,,,,,,,,,,,a,Correct!,,,,,,t1.png,t1.png,0,0.978,19,female,2020-08-24_16h59.37.462,torte-2b,2020.1.3,Win32,60,13214,1.136365,,,,,0,45,45,22,1,,,,,,,,,,,,,,,,,,,,,,,,,,,,,,,,,,,,,,,,,,,,,,,,,,,,,,,,
,,,,,,,,,,,,l,Correct!,,,,,,t2.png,t4.png,2,0.059078,19,female,2020-08-24_16h59.37.462,torte-2b,2020.1.3,Win32,60,13214,1.273975,,,,,0,46,46,84,1,,,,,,,,,,,,,,,,,,,,,,,,,,,,,,,,,,,,,,,,,,,,,,,,,,,,,,,,
,,,,,,,,,,,,a,Correct!,,,,,,t4.png,t3.png,1,0.909,19,female,2020-08-24_16h59.37.462,torte-2b,2020.1.3,Win32,60,13214,1.389505,,,,,0,47,47,107,1,,,,,,,,,,,,,,,,,,,,,,,,,,,,,,,,,,,,,,,,,,,,,,,,,,,,,,,,
,,,,,,,,,,,,l,Correct!,,,,,,t5.png,t3.png,2,0.056466,19,female,2020-08-24_16h59.37.462,torte-2b,2020.1.3,Win32,60,13214,0.90727,,,,,0,48,48,26,1,,,,,,,,,,,,,,,,,,,,,,,,,,,,,,,,,,,,,,,,,,,,,,,,,,,,,,,,
,,,,,,,,,,,,a,Correct!,,,,,,t5.png,t5.png,0,0.97829,19,female,2020-08-24_16h59.37.462,torte-2b,2020.1.3,Win32,60,13214,1.251665,,,,,0,49,49,2,1,,,,,,,,,,,,,,,,,,,,,,,,,,,,,,,,,,,,,,,,,,,,,,,,,,,,,,,,
,,,,,,,,,,,,l,Correct!,,,,,,t4.png,t1.png,3,0.0000131,19,female,2020-08-24_16h59.37.462,torte-2b,2020.1.3,Win32,60,13214,1.15155,,,,,0,50,50,49,1,,,,,,,,,,,,,,,,,,,,,,,,,,,,,,,,,,,,,,,,,,,,,,,,,,,,,,,,
,,,,,,,,,,,,a,Incorrect,,,,,,t1.png,t3.png,2,0.0565,19,female,2020-08-24_16h59.37.462,torte-2b,2020.1.3,Win32,60,13214,1.774915,,,,,0,51,51,95,1,,,,,,,,,,,,,,,,,,,,,,,,,,,,,,,,,,,,,,,,,,,,,,,,,,,,,,,,
,,,,,,,,,,,,a,Correct!,,,,,,t5.png,t5.png,0,0.97829,19,female,2020-08-24_16h59.37.462,torte-2b,2020.1.3,Win32,60,13214,0.70081,,,,,0,52,52,77,1,,,,,,,,,,,,,,,,,,,,,,,,,,,,,,,,,,,,,,,,,,,,,,,,,,,,,,,,
,,,,,,,,,,,,a,Correct!,,,,,,t3.png,t2.png,1,0.90855,19,female,2020-08-24_16h59.37.462,torte-2b,2020.1.3,Win32,60,13214,2.10186,,,,,0,53,53,99,1,,,,,,,,,,,,,,,,,,,,,,,,,,,,,,,,,,,,,,,,,,,,,,,,,,,,,,,,
,,,,,,,,,,,,,Too slow :(,,,,,,t4.png,t1.png,3,0.059078,19,female,2020-08-24_16h59.37.462,torte-2b,2020.1.3,Win32,60,13214,,,,,,0,54,54,87,1,,,,,,,,,,,,,,,,,,,,,,,,,,,,,,,,,,,,,,,,,,,,,,,,,,,,,,,,
,,,,,,,,,,,,a,Incorrect,,,,,,t3.png,t5.png,2,0.056466,19,female,2020-08-24_16h59.37.462,torte-2b,2020.1.3,Win32,60,13214,1.70978,,,,,0,55,55,47,1,,,,,,,,,,,,,,,,,,,,,,,,,,,,,,,,,,,,,,,,,,,,,,,,,,,,,,,,
,,,,,,,,,,,,a,Correct!,,,,,,t2.png,t2.png,0,0.98115,19,female,2020-08-24_16h59.37.462,torte-2b,2020.1.3,Win32,60,13214,1.5017,,,,,0,56,56,112,1,,,,,,,,,,,,,,,,,,,,,,,,,,,,,,,,,,,,,,,,,,,,,,,,,,,,,,,,
,,,,,,,,,,,,l,Correct!,,,,,,t1.png,t5.png,4,9.55E-11,19,female,2020-08-24_16h59.37.462,torte-2b,2020.1.3,Win32,60,13214,1.225135,,,,,0,57,57,30,1,,,,,,,,,,,,,,,,,,,,,,,,,,,,,,,,,,,,,,,,,,,,,,,,,,,,,,,,
,,,,,,,,,,,,a,Incorrect,,,,,,t3.png,t1.png,2,0.0565,19,female,2020-08-24_16h59.37.462,torte-2b,2020.1.3,Win32,60,13214,1.58518,,,,,0,58,58,104,1,,,,,,,,,,,,,,,,,,,,,,,,,,,,,,,,,,,,,,,,,,,,,,,,,,,,,,,,
,,,,,,,,,,,,l,Correct!,,,,,,t1.png,t3.png,2,0.056466,19,female,2020-08-24_16h59.37.462,torte-2b,2020.1.3,Win32,60,13214,1.83818,,,,,0,59,59,32,1,,,,,,,,,,,,,,,,,,,,,,,,,,,,,,,,,,,,,,,,,,,,,,,,,,,,,,,,
,,,,,,,,,,,,a,Incorrect,,,,,,t3.png,t5.png,2,0.056466,19,female,2020-08-24_16h59.37.462,torte-2b,2020.1.3,Win32,60,13214,1.051285,,,,,0,60,60,45,1,,,,,,,,,,,,,,,,,,,,,,,,,,,,,,,,,,,,,,,,,,,,,,,,,,,,,,,,
,,,,,,,,,,,,a,Correct!,,,,,,t4.png,t5.png,1,0.90025,19,female,2020-08-24_16h59.37.462,torte-2b,2020.1.3,Win32,60,13214,1.677405,,,,,0,61,61,86,1,,,,,,,,,,,,,,,,,,,,,,,,,,,,,,,,,,,,,,,,,,,,,,,,,,,,,,,,
,,,,,,,,,,,,a,Correct!,,,,,,t4.png,t3.png,1,0.909,19,female,2020-08-24_16h59.37.462,torte-2b,2020.1.3,Win32,60,13214,1.504975,,,,,0,62,62,119,1,,,,,,,,,,,,,,,,,,,,,,,,,,,,,,,,,,,,,,,,,,,,,,,,,,,,,,,,
,,,,,,,,,,,,l,Incorrect,,,,,,t2.png,t1.png,1,0.9,19,female,2020-08-24_16h59.37.462,torte-2b,2020.1.3,Win32,60,13214,1.62638,,,,,0,63,63,100,1,,,,,,,,,,,,,,,,,,,,,,,,,,,,,,,,,,,,,,,,,,,,,,,,,,,,,,,,
,,,,,,,,,,,,a,Correct!,,,,,,t2.png,t3.png,1,0.90855,19,female,2020-08-24_16h59.37.462,torte-2b,2020.1.3,Win32,60,13214,1.80168,,,,,0,64,64,70,1,,,,,,,,,,,,,,,,,,,,,,,,,,,,,,,,,,,,,,,,,,,,,,,,,,,,,,,,
,,,,,,,,,,,,,Too slow :(,,,,,,t2.png,t2.png,0,0.981,19,female,2020-08-24_16h59.37.462,torte-2b,2020.1.3,Win32,60,13214,,,,,,0,65,65,98,1,,,,,,,,,,,,,,,,,,,,,,,,,,,,,,,,,,,,,,,,,,,,,,,,,,,,,,,,
,,,,,,,,,,,,a,Incorrect,,,,,,t5.png,t3.png,2,0.056466,19,female,2020-08-24_16h59.37.462,torte-2b,2020.1.3,Win32,60,13214,1.201675,,,,,0,66,66,80,1,,,,,,,,,,,,,,,,,,,,,,,,,,,,,,,,,,,,,,,,,,,,,,,,,,,,,,,,
,,,,,,,,,,,,a,Correct!,,,,,,t5.png,t4.png,1,0.9,19,female,2020-08-24_16h59.37.462,torte-2b,2020.1.3,Win32,60,13214,0.801495,,,,,0,67,67,92,1,,,,,,,,,,,,,,,,,,,,,,,,,,,,,,,,,,,,,,,,,,,,,,,,,,,,,,,,
,,,,,,,,,,,,a,Incorrect,,,,,,t4.png,t1.png,3,0.059078,19,female,2020-08-24_16h59.37.462,torte-2b,2020.1.3,Win32,60,13214,1.722545,,,,,0,68,68,75,1,,,,,,,,,,,,,,,,,,,,,,,,,,,,,,,,,,,,,,,,,,,,,,,,,,,,,,,,
,,,,,,,,,,,,l,Incorrect,,,,,,t2.png,t3.png,1,0.909,19,female,2020-08-24_16h59.37.462,torte-2b,2020.1.3,Win32,60,13214,1.93678,,,,,0,69,69,8,1,,,,,,,,,,,,,,,,,,,,,,,,,,,,,,,,,,,,,,,,,,,,,,,,,,,,,,,,
,,,,,,,,,,,,a,Correct!,,,,,,t4.png,t3.png,1,0.90855,19,female,2020-08-24_16h59.37.462,torte-2b,2020.1.3,Win32,60,13214,1.468035,,,,,0,70,70,29,1,,,,,,,,,,,,,,,,,,,,,,,,,,,,,,,,,,,,,,,,,,,,,,,,,,,,,,,,
,,,,,,,,,,,,a,Correct!,,,,,,t5.png,t4.png,1,0.9,19,female,2020-08-24_16h59.37.462,torte-2b,2020.1.3,Win32,60,13214,1.8191,,,,,0,71,71,55,1,,,,,,,,,,,,,,,,,,,,,,,,,,,,,,,,,,,,,,,,,,,,,,,,,,,,,,,,
,,,,,,,,,,,,,Too slow :(,,,,,,t3.png,t1.png,2,0.056466,19,female,2020-08-24_16h59.37.462,torte-2b,2020.1.3,Win32,60,13214,,,,,,0,72,72,72,1,,,,,,,,,,,,,,,,,,,,,,,,,,,,,,,,,,,,,,,,,,,,,,,,,,,,,,,,
,,,,,,,,,,,,l,Correct!,,,,,,t1.png,t2.png,1,0.90025,19,female,2020-08-24_16h59.37.462,torte-2b,2020.1.3,Win32,60,13214,2.04138,,,,,0,73,73,96,1,,,,,,,,,,,,,,,,,,,,,,,,,,,,,,,,,,,,,,,,,,,,,,,,,,,,,,,,
,,,,,,,,,,,,l,Correct!,,,,,,t5.png,t1.png,4,9.55E-11,19,female,2020-08-24_16h59.37.462,torte-2b,2020.1.3,Win32,60,13214,1.835235,,,,,0,74,74,89,1,,,,,,,,,,,,,,,,,,,,,,,,,,,,,,,,,,,,,,,,,,,,,,,,,,,,,,,,
,,,,,,,,,,,,a,Correct!,,,,,,t5.png,t5.png,0,0.97829,19,female,2020-08-24_16h59.37.462,torte-2b,2020.1.3,Win32,60,13214,1.08673,,,,,0,75,75,35,1,,,,,,,,,,,,,,,,,,,,,,,,,,,,,,,,,,,,,,,,,,,,,,,,,,,,,,,,
,,,,,,,,,,,,a,Incorrect,,,,,,t2.png,t5.png,3,0.0000131,19,female,2020-08-24_16h59.37.462,torte-2b,2020.1.3,Win32,60,13214,1.23508,,,,,0,76,76,54,1,,,,,,,,,,,,,,,,,,,,,,,,,,,,,,,,,,,,,,,,,,,,,,,,,,,,,,,,
,,,,,,,,,,,,l,Correct!,,,,,,t4.png,t1.png,3,0.0000131,19,female,2020-08-24_16h59.37.462,torte-2b,2020.1.3,Win32,60,13214,0.952705,,,,,0,77,77,28,1,,,,,,,,,,,,,,,,,,,,,,,,,,,,,,,,,,,,,,,,,,,,,,,,,,,,,,,,
,,,,,,,,,,,,l,Incorrect,,,,,,t1.png,t2.png,1,0.9,19,female,2020-08-24_16h59.37.462,torte-2b,2020.1.3,Win32,60,13214,0.725065,,,,,0,78,78,17,1,,,,,,,,,,,,,,,,,,,,,,,,,,,,,,,,,,,,,,,,,,,,,,,,,,,,,,,,
,,,,,,,,,,,,a,Correct!,,,,,,t3.png,t2.png,1,0.90855,19,female,2020-08-24_16h59.37.462,torte-2b,2020.1.3,Win32,60,13214,1.55139,,,,,0,79,79,0,1,,,,,,,,,,,,,,,,,,,,,,,,,,,,,,,,,,,,,,,,,,,,,,,,,,,,,,,,
,,,,,,,,,,,,a,Correct!,,,,,,t5.png,t3.png,2,0.056466,19,female,2020-08-24_16h59.37.462,torte-2b,2020.1.3,Win32,60,13214,1.0911,,,,,0,80,80,37,1,,,,,,,,,,,,,,,,,,,,,,,,,,,,,,,,,,,,,,,,,,,,,,,,,,,,,,,,
,,,,,,,,,,,,a,Correct!,,,,,,t4.png,t4.png,0,0.98115,19,female,2020-08-24_16h59.37.462,torte-2b,2020.1.3,Win32,60,13214,0.98481,,,,,0,81,81,52,1,,,,,,,,,,,,,,,,,,,,,,,,,,,,,,,,,,,,,,,,,,,,,,,,,,,,,,,,
,,,,,,,,,,,,l,Correct!,,,,,,t3.png,t1.png,2,0.056466,19,female,2020-08-24_16h59.37.462,torte-2b,2020.1.3,Win32,60,13214,0.960815,,,,,0,82,82,34,1,,,,,,,,,,,,,,,,,,,,,,,,,,,,,,,,,,,,,,,,,,,,,,,,,,,,,,,,
,,,,,,,,,,,,a,Correct!,,,,,,t4.png,t3.png,1,0.90855,19,female,2020-08-24_16h59.37.462,torte-2b,2020.1.3,Win32,60,13214,1.034705,,,,,0,83,83,56,1,,,,,,,,,,,,,,,,,,,,,,,,,,,,,,,,,,,,,,,,,,,,,,,,,,,,,,,,
,,,,,,,,,,,,a,Correct!,,,,,,t2.png,t2.png,0,0.98115,19,female,2020-08-24_16h59.37.462,torte-2b,2020.1.3,Win32,60,13214,1.04371,,,,,0,84,84,90,1,,,,,,,,,,,,,,,,,,,,,,,,,,,,,,,,,,,,,,,,,,,,,,,,,,,,,,,,
,,,,,,,,,,,,a,Correct!,,,,,,t3.png,t4.png,1,0.90855,19,female,2020-08-24_16h59.37.462,torte-2b,2020.1.3,Win32,60,13214,0.98481,,,,,0,85,85,5,1,,,,,,,,,,,,,,,,,,,,,,,,,,,,,,,,,,,,,,,,,,,,,,,,,,,,,,,,
,,,,,,,,,,,,l,Correct!,,,,,,t1.png,t5.png,4,9.55E-11,19,female,2020-08-24_16h59.37.462,torte-2b,2020.1.3,Win32,60,13214,1.23453,,,,,0,86,86,118,1,,,,,,,,,,,,,,,,,,,,,,,,,,,,,,,,,,,,,,,,,,,,,,,,,,,,,,,,
,,,,,,,,,,,,a,Incorrect,,,,,,t5.png,t3.png,2,0.056466,19,female,2020-08-24_16h59.37.462,torte-2b,2020.1.3,Win32,60,13214,1.235305,,,,,0,87,87,27,1,,,,,,,,,,,,,,,,,,,,,,,,,,,,,,,,,,,,,,,,,,,,,,,,,,,,,,,,
,,,,,,,,,,,,a,Correct!,,,,,,t3.png,t4.png,1,0.90855,19,female,2020-08-24_16h59.37.462,torte-2b,2020.1.3,Win32,60,13214,1.20049,,,,,0,88,88,58,1,,,,,,,,,,,,,,,,,,,,,,,,,,,,,,,,,,,,,,,,,,,,,,,,,,,,,,,,
,,,,,,,,,,,,a,Incorrect,,,,,,t5.png,t2.png,3,0.0000131,19,female,2020-08-24_16h59.37.462,torte-2b,2020.1.3,Win32,60,13214,0.900755,,,,,0,89,89,48,1,,,,,,,,,,,,,,,,,,,,,,,,,,,,,,,,,,,,,,,,,,,,,,,,,,,,,,,,
,,,,,,,,,,,,l,Correct!,,,,,,t2.png,t4.png,2,0.059078,19,female,2020-08-24_16h59.37.462,torte-2b,2020.1.3,Win32,60,13214,1.11756,,,,,0,90,90,97,1,,,,,,,,,,,,,,,,,,,,,,,,,,,,,,,,,,,,,,,,,,,,,,,,,,,,,,,,
,,,,,,,,,,,,a,Correct!,,,,,,t1.png,t1.png,0,0.978,19,female,2020-08-24_16h59.37.462,torte-2b,2020.1.3,Win32,60,13214,0.93304,,,,,0,91,91,13,1,,,,,,,,,,,,,,,,,,,,,,,,,,,,,,,,,,,,,,,,,,,,,,,,,,,,,,,,
,,,,,,,,,,,,a,Incorrect,,,,,,t4.png,t5.png,1,0.9,19,female,2020-08-24_16h59.37.462,torte-2b,2020.1.3,Win32,60,13214,0.6932,,,,,0,92,92,81,1,,,,,,,,,,,,,,,,,,,,,,,,,,,,,,,,,,,,,,,,,,,,,,,,,,,,,,,,
,,,,,,,,,,,,l,Correct!,,,,,,t1.png,t4.png,3,0.0000131,19,female,2020-08-24_16h59.37.462,torte-2b,2020.1.3,Win32,60,13214,1.071725,,,,,0,93,93,16,1,,,,,,,,,,,,,,,,,,,,,,,,,,,,,,,,,,,,,,,,,,,,,,,,,,,,,,,,
,,,,,,,,,,,,l,Correct!,,,,,,t4.png,t1.png,3,0.0000131,19,female,2020-08-24_16h59.37.462,torte-2b,2020.1.3,Win32,60,13214,2.068805,,,,,0,94,94,102,1,,,,,,,,,,,,,,,,,,,,,,,,,,,,,,,,,,,,,,,,,,,,,,,,,,,,,,,,
,,,,,,,,,,,,l,Correct!,,,,,,t4.png,t1.png,3,0.0000131,19,female,2020-08-24_16h59.37.462,torte-2b,2020.1.3,Win32,60,13214,0.784065,,,,,0,95,95,91,1,,,,,,,,,,,,,,,,,,,,,,,,,,,,,,,,,,,,,,,,,,,,,,,,,,,,,,,,
,,,,,,,,,,,,a,Correct!,,,,,,t5.png,t5.png,0,0.978,19,female,2020-08-24_16h59.37.462,torte-2b,2020.1.3,Win32,60,13214,0.80123,,,,,0,96,96,116,1,,,,,,,,,,,,,,,,,,,,,,,,,,,,,,,,,,,,,,,,,,,,,,,,,,,,,,,,
,,,,,,,,,,,,a,Correct!,,,,,,t1.png,t1.png,0,0.97829,19,female,2020-08-24_16h59.37.462,torte-2b,2020.1.3,Win32,60,13214,1.040685,,,,,0,97,97,110,1,,,,,,,,,,,,,,,,,,,,,,,,,,,,,,,,,,,,,,,,,,,,,,,,,,,,,,,,
,,,,,,,,,,,,a,Incorrect,,,,,,t5.png,t3.png,2,0.0565,19,female,2020-08-24_16h59.37.462,torte-2b,2020.1.3,Win32,60,13214,1.08524,,,,,0,98,98,50,1,,,,,,,,,,,,,,,,,,,,,,,,,,,,,,,,,,,,,,,,,,,,,,,,,,,,,,,,
,,,,,,,,,,,,a,Correct!,,,,,,t2.png,t2.png,0,0.98115,19,female,2020-08-24_16h59.37.462,torte-2b,2020.1.3,Win32,60,13214,0.884405,,,,,0,99,99,69,1,,,,,,,,,,,,,,,,,,,,,,,,,,,,,,,,,,,,,,,,,,,,,,,,,,,,,,,,
,,,,,,,,,,,,l,Correct!,,,,,,t4.png,t1.png,3,0.059078,19,female,2020-08-24_16h59.37.462,torte-2b,2020.1.3,Win32,60,13214,2.235725,,,,,0,100,100,73,1,,,,,,,,,,,,,,,,,,,,,,,,,,,,,,,,,,,,,,,,,,,,,,,,,,,,,,,,
,,,,,,,,,,,,l,Correct!,,,,,,t2.png,t4.png,2,0.059078,19,female,2020-08-24_16h59.37.462,torte-2b,2020.1.3,Win32,60,13214,1.23555,,,,,0,101,101,18,1,,,,,,,,,,,,,,,,,,,,,,,,,,,,,,,,,,,,,,,,,,,,,,,,,,,,,,,,
,,,,,,,,,,,,l,Incorrect,,,,,,t3.png,t2.png,1,0.90855,19,female,2020-08-24_16h59.37.462,torte-2b,2020.1.3,Win32,60,13214,2.168455,,,,,0,102,102,10,1,,,,,,,,,,,,,,,,,,,,,,,,,,,,,,,,,,,,,,,,,,,,,,,,,,,,,,,,
,,,,,,,,,,,,a,Correct!,,,,,,t4.png,t5.png,1,0.90025,19,female,2020-08-24_16h59.37.462,torte-2b,2020.1.3,Win32,60,13214,1.250105,,,,,0,103,103,63,1,,,,,,,,,,,,,,,,,,,,,,,,,,,,,,,,,,,,,,,,,,,,,,,,,,,,,,,,
,,,,,,,,,,,,l,Correct!,,,,,,t1.png,t3.png,2,0.0565,19,female,2020-08-24_16h59.37.462,torte-2b,2020.1.3,Win32,60,13214,1.056535,,,,,0,104,104,12,1,,,,,,,,,,,,,,,,,,,,,,,,,,,,,,,,,,,,,,,,,,,,,,,,,,,,,,,,
,,,,,,,,,,,,l,Correct!,,,,,,t5.png,t2.png,3,0.0000131,19,female,2020-08-24_16h59.37.462,torte-2b,2020.1.3,Win32,60,13214,1.16157,,,,,0,105,105,43,1,,,,,,,,,,,,,,,,,,,,,,,,,,,,,,,,,,,,,,,,,,,,,,,,,,,,,,,,
,,,,,,,,,,,,a,Incorrect,,,,,,t5.png,t4.png,1,0.90025,19,female,2020-08-24_16h59.37.462,torte-2b,2020.1.3,Win32,60,13214,1.05629,,,,,0,106,106,14,1,,,,,,,,,,,,,,,,,,,,,,,,,,,,,,,,,,,,,,,,,,,,,,,,,,,,,,,,
,,,,,,,,,,,,a,Correct!,,,,,,t1.png,t1.png,0,0.97829,19,female,2020-08-24_16h59.37.462,torte-2b,2020.1.3,Win32,60,13214,1.04161,,,,,0,107,107,114,1,,,,,,,,,,,,,,,,,,,,,,,,,,,,,,,,,,,,,,,,,,,,,,,,,,,,,,,,
,,,,,,,,,,,,l,Correct!,,,,,,t1.png,t4.png,3,0.0000131,19,female,2020-08-24_16h59.37.462,torte-2b,2020.1.3,Win32,60,13214,0.93874,,,,,0,108,108,36,1,,,,,,,,,,,,,,,,,,,,,,,,,,,,,,,,,,,,,,,,,,,,,,,,,,,,,,,,
,,,,,,,,,,,,l,Correct!,,,,,,t1.png,t4.png,3,0.0000131,19,female,2020-08-24_16h59.37.462,torte-2b,2020.1.3,Win32,60,13214,1.099885,,,,,0,109,109,74,1,,,,,,,,,,,,,,,,,,,,,,,,,,,,,,,,,,,,,,,,,,,,,,,,,,,,,,,,
,,,,,,,,,,,,l,Incorrect,,,,,,t2.png,t3.png,1,0.90855,19,female,2020-08-24_16h59.37.462,torte-2b,2020.1.3,Win32,60,13214,1.151355,,,,,0,110,110,79,1,,,,,,,,,,,,,,,,,,,,,,,,,,,,,,,,,,,,,,,,,,,,,,,,,,,,,,,,
,,,,,,,,,,,,l,Correct!,,,,,,t1.png,t3.png,2,0.0565,19,female,2020-08-24_16h59.37.462,torte-2b,2020.1.3,Win32,60,13214,0.69388,,,,,0,111,111,42,1,,,,,,,,,,,,,,,,,,,,,,,,,,,,,,,,,,,,,,,,,,,,,,,,,,,,,,,,
,,,,,,,,,,,,a,Incorrect,,,,,,t2.png,t5.png,3,0.0000131,19,female,2020-08-24_16h59.37.462,torte-2b,2020.1.3,Win32,60,13214,1.32233,,,,,0,112,112,115,1,,,,,,,,,,,,,,,,,,,,,,,,,,,,,,,,,,,,,,,,,,,,,,,,,,,,,,,,
,,,,,,,,,,,,l,Correct!,,,,,,t5.png,t1.png,4,9.55E-11,19,female,2020-08-24_16h59.37.462,torte-2b,2020.1.3,Win32,60,13214,1.136295,,,,,0,113,113,31,1,,,,,,,,,,,,,,,,,,,,,,,,,,,,,,,,,,,,,,,,,,,,,,,,,,,,,,,,
,,,,,,,,,,,,a,Incorrect,,,,,,t2.png,t5.png,3,0.0000131,19,female,2020-08-24_16h59.37.462,torte-2b,2020.1.3,Win32,60,13214,1.367645,,,,,0,114,114,85,1,,,,,,,,,,,,,,,,,,,,,,,,,,,,,,,,,,,,,,,,,,,,,,,,,,,,,,,,
,,,,,,,,,,,,l,Incorrect,,,,,,t2.png,t3.png,1,0.90855,19,female,2020-08-24_16h59.37.462,torte-2b,2020.1.3,Win32,60,13214,0.92049,,,,,0,115,115,64,1,,,,,,,,,,,,,,,,,,,,,,,,,,,,,,,,,,,,,,,,,,,,,,,,,,,,,,,,
,,,,,,,,,,,,l,Incorrect,,,,,,t1.png,t2.png,1,0.9,19,female,2020-08-24_16h59.37.462,torte-2b,2020.1.3,Win32,60,13214,1.30522,,,,,0,116,116,61,1,,,,,,,,,,,,,,,,,,,,,,,,,,,,,,,,,,,,,,,,,,,,,,,,,,,,,,,,
,,,,,,,,,,,,l,Incorrect,,,,,,t3.png,t1.png,2,0.056466,19,female,2020-08-24_16h59.37.462,torte-2b,2020.1.3,Win32,60,13214,0.87657,,,,,0,117,117,109,1,,,,,,,,,,,,,,,,,,,,,,,,,,,,,,,,,,,,,,,,,,,,,,,,,,,,,,,,
,,,,,,,,,,,,l,Correct!,,,,,,t1.png,t5.png,4,9.55E-11,19,female,2020-08-24_16h59.37.462,torte-2b,2020.1.3,Win32,60,13214,1.18462,,,,,0,118,118,1,1,,,,,,,,,,,,,,,,,,,,,,,,,,,,,,,,,,,,,,,,,,,,,,,,,,,,,,,,
,,,,,,,,,,,,a,Correct!,,,,,,t4.png,t5.png,1,0.90025,19,female,2020-08-24_16h59.37.462,torte-2b,2020.1.3,Win32,60,13214,1.094255,,,,,0,119,119,21,1,,,,,,,,,,,,,,,,,,,,,,,,,,,,,,,,,,,,,,,,,,,,,,,,,,,,,,,,
,,,,,,,,,,,,,,,,,,,,,,,19,female,2020-08-24_16h59.37.462,torte-2b,2020.1.3,Win32,60,13214,,space,1.68294,,,,,,,,space,39.698965,,0,0,0,0,1,6,,,,,,,,,,,,,,,,,,,,,,,,,,,,,,,,,,,,,,,,,,,,,,,
,,,,,,,,,,,,,,,,,,,,,,,19,female,2020-08-24_16h59.37.462,torte-2b,2020.1.3,Win32,60,13214,,,,,,,,,,,,,,0,1,1,1,1,7,,,,,,,,,,,,,,,,,,,,,,,,,,,,,,,,,,,,,,,,,,,,,,,
,,,,,,,,,,,,,,,,,,,,,,,19,female,2020-08-24_16h59.37.462,torte-2b,2020.1.3,Win32,60,13214,,,,,,,,,,,,,space,0,2,2,2,1,6,0.374285,,,,,,,,,,,,,,,,,,,,,,,,,,,,,,,,,,,,,,,,,,,,,,
,,,,,,,,,,,,,,,,,,,,,,,19,female,2020-08-24_16h59.37.462,torte-2b,2020.1.3,Win32,60,13214,,,,,,,,,,,,,space,0,3,3,3,1,7,0.5665,,,,,,,,,,,,,,,,,,,,,,,,,,,,,,,,,,,,,,,,,,,,,,
,,,,,,,,,,,,,,,,,,,,,,,19,female,2020-08-24_16h59.37.462,torte-2b,2020.1.3,Win32,60,13214,,,,,,,,,,,,,,0,4,4,4,1,5,,,,,,,,,,,,,,,,,,,,,,,,,,,,,,,,,,,,,,,,,,,,,,,
,,,,,,,,,,,,,,,,,,,,,,,19,female,2020-08-24_16h59.37.462,torte-2b,2020.1.3,Win32,60,13214,,,,,,,,,,,,,space,0,5,5,5,1,7,0.61072,,,,,,,,,,,,,,,,,,,,,,,,,,,,,,,,,,,,,,,,,,,,,,
,,,,,,,,,,,,,,,,,,,,,,,19,female,2020-08-24_16h59.37.462,torte-2b,2020.1.3,Win32,60,13214,,,,,,,,,,,,,,0,6,6,6,1,2,,,,,,,,,,,,,,,,,,,,,,,,,,,,,,,,,,,,,,,,,,,,,,,
,,,,,,,,,,,,,,,,,,,,,,,19,female,2020-08-24_16h59.37.462,torte-2b,2020.1.3,Win32,60,13214,,,,,,,,,,,,,,0,7,7,7,1,4,,,,,,,,,,,,,,,,,,,,,,,,,,,,,,,,,,,,,,,,,,,,,,,
,,,,,,,,,,,,,,,,,,,,,,,19,female,2020-08-24_16h59.37.462,torte-2b,2020.1.3,Win32,60,13214,,,,,,,,,,,,,space,0,8,8,8,1,7,0.676045,,,,,,,,,,,,,,,,,,,,,,,,,,,,,,,,,,,,,,,,,,,,,,
,,,,,,,,,,,,,,,,,,,,,,,19,female,2020-08-24_16h59.37.462,torte-2b,2020.1.3,Win32,60,13214,,,,,,,,,,,,,space,0,9,9,9,1,4,0.45484,,,,,,,,,,,,,,,,,,,,,,,,,,,,,,,,,,,,,,,,,,,,,,
,,,,,,,,,,,,,,,,,,,,,,,19,female,2020-08-24_16h59.37.462,torte-2b,2020.1.3,Win32,60,13214,,,,,,,,,,,,,space,0,10,10,10,1,7,1.654305,,,,,,,,,,,,,,,,,,,,,,,,,,,,,,,,,,,,,,,,,,,,,,
,,,,,,,,,,,,,,,,,,,,,,,19,female,2020-08-24_16h59.37.462,torte-2b,2020.1.3,Win32,60,13214,,,,,,,,,,,,,,0,11,11,11,1,7,,,,,,,,,,,,,,,,,,,,,,,,,,,,,,,,,,,,,,,,,,,,,,,
,,,,,,,,,,,,,,,,,,,,,,,19,female,2020-08-24_16h59.37.462,torte-2b,2020.1.3,Win32,60,13214,,,,,,,,,,,,,space,0,12,12,12,1,7,0.55048,,,,,,,,,,,,,,,,,,,,,,,,,,,,,,,,,,,,,,,,,,,,,,
,,,,,,,,,,,,,,,,,,,,,,,19,female,2020-08-24_16h59.37.462,torte-2b,2020.1.3,Win32,60,13214,,,,,,,,,,,,,,0,13,13,13,1,4,,,,,,,,,,,,,,,,,,,,,,,,,,,,,,,,,,,,,,,,,,,,,,,
,,,,,,,,,,,,,,,,,,,,,,,19,female,2020-08-24_16h59.37.462,torte-2b,2020.1.3,Win32,60,13214,,,,,,,,,,,,,,0,14,14,14,1,6,,,,,,,,,,,,,,,,,,,,,,,,,,,,,,,,,,,,,,,,,,,,,,,
,,,,,,,,,,,,,,,,,,,,,,,19,female,2020-08-24_16h59.37.462,torte-2b,2020.1.3,Win32,60,13214,,,,,,,,,,,,,space,0,15,15,15,1,4,0.37318,,,,,,,,,,,,,,,,,,,,,,,,,,,,,,,,,,,,,,,,,,,,,,
,,,,,,,,,,,,,,,,,,,,,,,19,female,2020-08-24_16h59.37.462,torte-2b,2020.1.3,Win32,60,13214,,,,,,,,,,,,,space,0,16,16,16,1,6,0.902485,,,,,,,,,,,,,,,,,,,,,,,,,,,,,,,,,,,,,,,,,,,,,,
,,,,,,,,,,,,,,,,,,,,,,,19,female,2020-08-24_16h59.37.462,torte-2b,2020.1.3,Win32,60,13214,,,,,,,,,,,,,,0,17,17,17,1,7,,,,,,,,,,,,,,,,,,,,,,,,,,,,,,,,,,,,,,,,,,,,,,,
,,,,,,,,,,,,,,,,,,,,,,,19,female,2020-08-24_16h59.37.462,torte-2b,2020.1.3,Win32,60,13214,,,,,,,,,,,,,space,0,18,18,18,1,6,0.409135,,,,,,,,,,,,,,,,,,,,,,,,,,,,,,,,,,,,,,,,,,,,,,
,,,,,,,,,,,,,,,,,,,,,,,19,female,2020-08-24_16h59.37.462,torte-2b,2020.1.3,Win32,60,13214,,,,,,,,,,,,,space,0,19,19,19,1,7,0.368055,,,,,,,,,,,,,,,,,,,,,,,,,,,,,,,,,,,,,,,,,,,,,,
,,,,,,,,,,,,,,,,,,,,,,,19,female,2020-08-24_16h59.37.462,torte-2b,2020.1.3,Win32,60,13214,,,,,,,,,,,,,,0,20,20,20,1,5,,,,,,,,,,,,,,,,,,,,,,,,,,,,,,,,,,,,,,,,,,,,,,,
,,,,,,,,,,,,,,,,,,,,,,,19,female,2020-08-24_16h59.37.462,torte-2b,2020.1.3,Win32,60,13214,,,,,,,,,,,,,,0,21,21,21,1,1,,,,,,,,,,,,,,,,,,,,,,,,,,,,,,,,,,,,,,,,,,,,,,,
,,,,,,,,,,,,,,,,,,,,,,,19,female,2020-08-24_16h59.37.462,torte-2b,2020.1.3,Win32,60,13214,,,,,,,,,,,,,space,0,22,22,22,1,6,0.566535,,,,,,,,,,,,,,,,,,,,,,,,,,,,,,,,,,,,,,,,,,,,,,
,,,,,,,,,,,,,,,,,,,,,,,19,female,2020-08-24_16h59.37.462,torte-2b,2020.1.3,Win32,60,13214,,,,,,,,,,,,,space,0,23,23,23,1,1,0.572165,,,,,,,,,,,,,,,,,,,,,,,,,,,,,,,,,,,,,,,,,,,,,,
,,,,,,,,,,,,,,,,,,,,,,,19,female,2020-08-24_16h59.37.462,torte-2b,2020.1.3,Win32,60,13214,,,,,,,,,,,,,,0,24,24,24,1,5,,,,,,,,,,,,,,,,,,,,,,,,,,,,,,,,,,,,,,,,,,,,,,,
,,,,,,,,,,,,,,,,,,,,,,,19,female,2020-08-24_16h59.37.462,torte-2b,2020.1.3,Win32,60,13214,,,,,,,,,,,,,space,0,25,25,25,1,6,0.526015,,,,,,,,,,,,,,,,,,,,,,,,,,,,,,,,,,,,,,,,,,,,,,
,,,,,,,,,,,,,,,,,,,,,,,19,female,2020-08-24_16h59.37.462,torte-2b,2020.1.3,Win32,60,13214,,,,,,,,,,,,,,0,26,26,26,1,6,,,,,,,,,,,,,,,,,,,,,,,,,,,,,,,,,,,,,,,,,,,,,,,
,,,,,,,,,,,,,,,,,,,,,,,19,female,2020-08-24_16h59.37.462,torte-2b,2020.1.3,Win32,60,13214,,,,,,,,,,,,,space,0,27,27,27,1,6,0.42491,,,,,,,,,,,,,,,,,,,,,,,,,,,,,,,,,,,,,,,,,,,,,,
,,,,,,,,,,,,,,,,,,,,,,,19,female,2020-08-24_16h59.37.462,torte-2b,2020.1.3,Win32,60,13214,,,,,,,,,,,,,,0,28,28,28,1,5,,,,,,,,,,,,,,,,,,,,,,,,,,,,,,,,,,,,,,,,,,,,,,,
,,,,,,,,,,,,,,,,,,,,,,,19,female,2020-08-24_16h59.37.462,torte-2b,2020.1.3,Win32,60,13214,,,,,,,,,,,,,,0,29,29,29,1,2,,,,,,,,,,,,,,,,,,,,,,,,,,,,,,,,,,,,,,,,,,,,,,,
,,,,,,,,,,,,,,,,,,,,,,,19,female,2020-08-24_16h59.37.462,torte-2b,2020.1.3,Win32,60,13214,,,,,,,,,,,,,space,0,30,30,30,1,5,0.299995,,,,,,,,,,,,,,,,,,,,,,,,,,,,,,,,,,,,,,,,,,,,,,
,,,,,,,,,,,,,,,,,,,,,,,19,female,2020-08-24_16h59.37.462,torte-2b,2020.1.3,Win32,60,13214,,,,,,,,,,,,,,0,31,31,31,1,2,,,,,,,,,,,,,,,,,,,,,,,,,,,,,,,,,,,,,,,,,,,,,,,
,,,,,,,,,,,,,,,,,,,,,,,19,female,2020-08-24_16h59.37.462,torte-2b,2020.1.3,Win32,60,13214,,,,,,,,,,,,,space,0,32,32,32,1,5,0.45725,,,,,,,,,,,,,,,,,,,,,,,,,,,,,,,,,,,,,,,,,,,,,,
,,,,,,,,,,,,,,,,,,,,,,,19,female,2020-08-24_16h59.37.462,torte-2b,2020.1.3,Win32,60,13214,,,,,,,,,,,,,,0,33,33,33,1,1,,,,,,,,,,,,,,,,,,,,,,,,,,,,,,,,,,,,,,,,,,,,,,,
,,,,,,,,,,,,,,,,,,,,,,,19,female,2020-08-24_16h59.37.462,torte-2b,2020.1.3,Win32,60,13214,,,,,,,,,,,,,space,0,34,34,34,1,1,0.604975,,,,,,,,,,,,,,,,,,,,,,,,,,,,,,,,,,,,,,,,,,,,,,
,,,,,,,,,,,,,,,,,,,,,,,19,female,2020-08-24_16h59.37.462,torte-2b,2020.1.3,Win32,60,13214,,,,,,,,,,,,,,,,,,,2,,0,0,0,0,1,,,,,,,,,,,,,,,,,,,,,,,,,,,,,,,,,,,,,,,,,
,,,,,,,,,,,,,,,,,,,,,,,19,female,2020-08-24_16h59.37.462,torte-2b,2020.1.3,Win32,60,13214,,,,,,,,,,,,,,,,,,,2,,0,1,1,1,1,,,,,,,,,,,,,,,,,,,,,,,,,,,,,,,,,,,,,,,,,
,,,,,,,,,,,,,,,,,,,,,,,19,female,2020-08-24_16h59.37.462,torte-2b,2020.1.3,Win32,60,13214,,,,,,,,,,,,,,,,,,,6,,0,2,2,2,1,,,,,,,,,,,,,,,,,,,,,,,,,,,,,,,,,,,,,,,,,
,,,,,,,,,,,,,,,,,,,,,,,19,female,2020-08-24_16h59.37.462,torte-2b,2020.1.3,Win32,60,13214,,,,,,,,,,,,,space,,,,,,2,0.30836,0,3,3,3,1,,,,,,,,,,,,,,,,,,,,,,,,,,,,,,,,,,,,,,,,,
,,,,,,,,,,,,,,,,,,,,,,,19,female,2020-08-24_16h59.37.462,torte-2b,2020.1.3,Win32,60,13214,,,,,,,,,,,,,space,,,,,,6,0.60061,0,4,4,4,1,,,,,,,,,,,,,,,,,,,,,,,,,,,,,,,,,,,,,,,,,
,,,,,,,,,,,,,,,,,,,,,,,19,female,2020-08-24_16h59.37.462,torte-2b,2020.1.3,Win32,60,13214,,,,,,,,,,,,,space,,,,,,2,0.925455,0,5,5,5,1,,,,,,,,,,,,,,,,,,,,,,,,,,,,,,,,,,,,,,,,,
,,,,,,,,,,,,,,,,,,,,,,,19,female,2020-08-24_16h59.37.462,torte-2b,2020.1.3,Win32,60,13214,,,,,,,,,,,,,,,,,,,7,,0,6,6,6,1,,,,,,,,,,,,,,,,,,,,,,,,,,,,,,,,,,,,,,,,,
,,,,,,,,,,,,,,,,,,,,,,,19,female,2020-08-24_16h59.37.462,torte-2b,2020.1.3,Win32,60,13214,,,,,,,,,,,,,space,,,,,,2,0.567285,0,7,7,7,1,,,,,,,,,,,,,,,,,,,,,,,,,,,,,,,,,,,,,,,,,
,,,,,,,,,,,,,,,,,,,,,,,19,female,2020-08-24_16h59.37.462,torte-2b,2020.1.3,Win32,60,13214,,,,,,,,,,,,,space,,,,,,7,0.616675,0,8,8,8,1,,,,,,,,,,,,,,,,,,,,,,,,,,,,,,,,,,,,,,,,,
,,,,,,,,,,,,,,,,,,,,,,,19,female,2020-08-24_16h59.37.462,torte-2b,2020.1.3,Win32,60,13214,,,,,,,,,,,,,,,,,,,2,,0,9,9,9,1,,,,,,,,,,,,,,,,,,,,,,,,,,,,,,,,,,,,,,,,,
,,,,,,,,,,,,,,,,,,,,,,,19,female,2020-08-24_16h59.37.462,torte-2b,2020.1.3,Win32,60,13214,,,,,,,,,,,,,,,,,,,5,,0,10,10,10,1,,,,,,,,,,,,,,,,,,,,,,,,,,,,,,,,,,,,,,,,,
,,,,,,,,,,,,,,,,,,,,,,,19,female,2020-08-24_16h59.37.462,torte-2b,2020.1.3,Win32,60,13214,,,,,,,,,,,,,,,,,,,4,,0,11,11,11,1,,,,,,,,,,,,,,,,,,,,,,,,,,,,,,,,,,,,,,,,,
,,,,,,,,,,,,,,,,,,,,,,,19,female,2020-08-24_16h59.37.462,torte-2b,2020.1.3,Win32,60,13214,,,,,,,,,,,,,space,,,,,,5,0.283935,0,12,12,12,1,,,,,,,,,,,,,,,,,,,,,,,,,,,,,,,,,,,,,,,,,
,,,,,,,,,,,,,,,,,,,,,,,19,female,2020-08-24_16h59.37.462,torte-2b,2020.1.3,Win32,60,13214,,,,,,,,,,,,,,,,,,,6,,0,13,13,13,1,,,,,,,,,,,,,,,,,,,,,,,,,,,,,,,,,,,,,,,,,
,,,,,,,,,,,,,,,,,,,,,,,19,female,2020-08-24_16h59.37.462,torte-2b,2020.1.3,Win32,60,13214,,,,,,,,,,,,,space,,,,,,5,0.51999,0,14,14,14,1,,,,,,,,,,,,,,,,,,,,,,,,,,,,,,,,,,,,,,,,,
,,,,,,,,,,,,,,,,,,,,,,,19,female,2020-08-24_16h59.37.462,torte-2b,2020.1.3,Win32,60,13214,,,,,,,,,,,,,,,,,,,4,,0,15,15,15,1,,,,,,,,,,,,,,,,,,,,,,,,,,,,,,,,,,,,,,,,,
,,,,,,,,,,,,,,,,,,,,,,,19,female,2020-08-24_16h59.37.462,torte-2b,2020.1.3,Win32,60,13214,,,,,,,,,,,,,space,,,,,,5,0.41713,0,16,16,16,1,,,,,,,,,,,,,,,,,,,,,,,,,,,,,,,,,,,,,,,,,
,,,,,,,,,,,,,,,,,,,,,,,19,female,2020-08-24_16h59.37.462,torte-2b,2020.1.3,Win32,60,13214,,,,,,,,,,,,,,,,,,,3,,0,17,17,17,1,,,,,,,,,,,,,,,,,,,,,,,,,,,,,,,,,,,,,,,,,
,,,,,,,,,,,,,,,,,,,,,,,19,female,2020-08-24_16h59.37.462,torte-2b,2020.1.3,Win32,60,13214,,,,,,,,,,,,,,,,,,,6,,0,18,18,18,1,,,,,,,,,,,,,,,,,,,,,,,,,,,,,,,,,,,,,,,,,
,,,,,,,,,,,,,,,,,,,,,,,19,female,2020-08-24_16h59.37.462,torte-2b,2020.1.3,Win32,60,13214,,,,,,,,,,,,,space,,,,,,6,0.592985,0,19,19,19,1,,,,,,,,,,,,,,,,,,,,,,,,,,,,,,,,,,,,,,,,,
,,,,,,,,,,,,,,,,,,,,,,,19,female,2020-08-24_16h59.37.462,torte-2b,2020.1.3,Win32,60,13214,,,,,,,,,,,,,space,,,,,,6,0.49134,0,20,20,20,1,,,,,,,,,,,,,,,,,,,,,,,,,,,,,,,,,,,,,,,,,
,,,,,,,,,,,,,,,,,,,,,,,19,female,2020-08-24_16h59.37.462,torte-2b,2020.1.3,Win32,60,13214,,,,,,,,,,,,,,,,,,,4,,0,21,21,21,1,,,,,,,,,,,,,,,,,,,,,,,,,,,,,,,,,,,,,,,,,
,,,,,,,,,,,,,,,,,,,,,,,19,female,2020-08-24_16h59.37.462,torte-2b,2020.1.3,Win32,60,13214,,,,,,,,,,,,,space,,,,,,6,0.37505,0,22,22,22,1,,,,,,,,,,,,,,,,,,,,,,,,,,,,,,,,,,,,,,,,,
,,,,,,,,,,,,,,,,,,,,,,,19,female,2020-08-24_16h59.37.462,torte-2b,2020.1.3,Win32,60,13214,,,,,,,,,,,,,space,,,,,,4,0.604145,0,23,23,23,1,,,,,,,,,,,,,,,,,,,,,,,,,,,,,,,,,,,,,,,,,
,,,,,,,,,,,,,,,,,,,,,,,19,female,2020-08-24_16h59.37.462,torte-2b,2020.1.3,Win32,60,13214,,,,,,,,,,,,,space,,,,,,6,0.96778,0,24,24,24,1,,,,,,,,,,,,,,,,,,,,,,,,,,,,,,,,,,,,,,,,,
,,,,,,,,,,,,,,,,,,,,,,,19,female,2020-08-24_16h59.37.462,torte-2b,2020.1.3,Win32,60,13214,,,,,,,,,,,,,,,,,,,6,,0,25,25,25,1,,,,,,,,,,,,,,,,,,,,,,,,,,,,,,,,,,,,,,,,,
,,,,,,,,,,,,,,,,,,,,,,,19,female,2020-08-24_16h59.37.462,torte-2b,2020.1.3,Win32,60,13214,,,,,,,,,,,,,,,,,,,7,,0,26,26,26,1,,,,,,,,,,,,,,,,,,,,,,,,,,,,,,,,,,,,,,,,,
,,,,,,,,,,,,,,,,,,,,,,,19,female,2020-08-24_16h59.37.462,torte-2b,2020.1.3,Win32,60,13214,,,,,,,,,,,,,,,,,,,1,,0,27,27,27,1,,,,,,,,,,,,,,,,,,,,,,,,,,,,,,,,,,,,,,,,,
,,,,,,,,,,,,,,,,,,,,,,,19,female,2020-08-24_16h59.37.462,torte-2b,2020.1.3,Win32,60,13214,,,,,,,,,,,,,space,,,,,,7,0.33703,0,28,28,28,1,,,,,,,,,,,,,,,,,,,,,,,,,,,,,,,,,,,,,,,,,
,,,,,,,,,,,,,,,,,,,,,,,19,female,2020-08-24_16h59.37.462,torte-2b,2020.1.3,Win32,60,13214,,,,,,,,,,,,,,,,,,,4,,0,29,29,29,1,,,,,,,,,,,,,,,,,,,,,,,,,,,,,,,,,,,,,,,,,
,,,,,,,,,,,,,,,,,,,,,,,19,female,2020-08-24_16h59.37.462,torte-2b,2020.1.3,Win32,60,13214,,,,,,,,,,,,,space,,,,,,7,0.95063,0,30,30,30,1,,,,,,,,,,,,,,,,,,,,,,,,,,,,,,,,,,,,,,,,,
,,,,,,,,,,,,,,,,,,,,,,,19,female,2020-08-24_16h59.37.462,torte-2b,2020.1.3,Win32,60,13214,,,,,,,,,,,,,,,,,,,3,,0,31,31,31,1,,,,,,,,,,,,,,,,,,,,,,,,,,,,,,,,,,,,,,,,,
,,,,,,,,,,,,,,,,,,,,,,,19,female,2020-08-24_16h59.37.462,torte-2b,2020.1.3,Win32,60,13214,,,,,,,,,,,,,,,,,,,2,,0,32,32,32,1,,,,,,,,,,,,,,,,,,,,,,,,,,,,,,,,,,,,,,,,,
,,,,,,,,,,,,,,,,,,,,,,,19,female,2020-08-24_16h59.37.462,torte-2b,2020.1.3,Win32,60,13214,,,,,,,,,,,,,,,,,,,6,,0,33,33,33,1,,,,,,,,,,,,,,,,,,,,,,,,,,,,,,,,,,,,,,,,,
,,,,,,,,,,,,,,,,,,,,,,,19,female,2020-08-24_16h59.37.462,torte-2b,2020.1.3,Win32,60,13214,,,,,,,,,,,,,space,,,,,,3,0.325445,0,34,34,34,1,,,,,,,,,,,,,,,,,,,,,,,,,,,,,,,,,,,,,,,,,
,,,,,,,,,,,,,,,,,,,,,,,19,female,2020-08-24_16h59.37.462,torte-2b,2020.1.3,Win32,60,13214,,,,,,,,,,,,,,,,,,,7,,,,,,,0,0,0,0,1,,,,,,,,,,,,,,,,,,,,,,,,,,,,,,,,,,,,
,,,,,,,,,,,,,,,,,,,,,,,19,female,2020-08-24_16h59.37.462,torte-2b,2020.1.3,Win32,60,13214,,,,,,,,,,,,,,,,,,,5,,,,,,,0,1,1,1,1,,,,,,,,,,,,,,,,,,,,,,,,,,,,,,,,,,,,
,,,,,,,,,,,,,,,,,,,,,,,19,female,2020-08-24_16h59.37.462,torte-2b,2020.1.3,Win32,60,13214,,,,,,,,,,,,,,,,,,,4,,,,,,,0,2,2,2,1,,,,,,,,,,,,,,,,,,,,,,,,,,,,,,,,,,,,
,,,,,,,,,,,,,,,,,,,,,,,19,female,2020-08-24_16h59.37.462,torte-2b,2020.1.3,Win32,60,13214,,,,,,,,,,,,,space,,,,,,5,0.340235,,,,,,0,3,3,3,1,,,,,,,,,,,,,,,,,,,,,,,,,,,,,,,,,,,,
,,,,,,,,,,,,,,,,,,,,,,,19,female,2020-08-24_16h59.37.462,torte-2b,2020.1.3,Win32,60,13214,,,,,,,,,,,,,,,,,,,6,,,,,,,0,4,4,4,1,,,,,,,,,,,,,,,,,,,,,,,,,,,,,,,,,,,,
,,,,,,,,,,,,,,,,,,,,,,,19,female,2020-08-24_16h59.37.462,torte-2b,2020.1.3,Win32,60,13214,,,,,,,,,,,,,space,,,,,,5,0.506945,,,,,,0,5,5,5,1,,,,,,,,,,,,,,,,,,,,,,,,,,,,,,,,,,,,
,,,,,,,,,,,,,,,,,,,,,,,19,female,2020-08-24_16h59.37.462,torte-2b,2020.1.3,Win32,60,13214,,,,,,,,,,,,,,,,,,,3,,,,,,,0,6,6,6,1,,,,,,,,,,,,,,,,,,,,,,,,,,,,,,,,,,,,
,,,,,,,,,,,,,,,,,,,,,,,19,female,2020-08-24_16h59.37.462,torte-2b,2020.1.3,Win32,60,13214,,,,,,,,,,,,,,,,,,,4,,,,,,,0,7,7,7,1,,,,,,,,,,,,,,,,,,,,,,,,,,,,,,,,,,,,
,,,,,,,,,,,,,,,,,,,,,,,19,female,2020-08-24_16h59.37.462,torte-2b,2020.1.3,Win32,60,13214,,,,,,,,,,,,,space,,,,,,3,0.4231,,,,,,0,8,8,8,1,,,,,,,,,,,,,,,,,,,,,,,,,,,,,,,,,,,,
,,,,,,,,,,,,,,,,,,,,,,,19,female,2020-08-24_16h59.37.462,torte-2b,2020.1.3,Win32,60,13214,,,,,,,,,,,,,,,,,,,1,,,,,,,0,9,9,9,1,,,,,,,,,,,,,,,,,,,,,,,,,,,,,,,,,,,,
,,,,,,,,,,,,,,,,,,,,,,,19,female,2020-08-24_16h59.37.462,torte-2b,2020.1.3,Win32,60,13214,,,,,,,,,,,,,,,,,,,2,,,,,,,0,10,10,10,1,,,,,,,,,,,,,,,,,,,,,,,,,,,,,,,,,,,,
,,,,,,,,,,,,,,,,,,,,,,,19,female,2020-08-24_16h59.37.462,torte-2b,2020.1.3,Win32,60,13214,,,,,,,,,,,,,space,,,,,,1,0.55902,,,,,,0,11,11,11,1,,,,,,,,,,,,,,,,,,,,,,,,,,,,,,,,,,,,
,,,,,,,,,,,,,,,,,,,,,,,19,female,2020-08-24_16h59.37.462,torte-2b,2020.1.3,Win32,60,13214,,,,,,,,,,,,,space,,,,,,2,0.65843,,,,,,0,12,12,12,1,,,,,,,,,,,,,,,,,,,,,,,,,,,,,,,,,,,,
,,,,,,,,,,,,,,,,,,,,,,,19,female,2020-08-24_16h59.37.462,torte-2b,2020.1.3,Win32,60,13214,,,,,,,,,,,,,space,,,,,,1,1.38612,,,,,,0,13,13,13,1,,,,,,,,,,,,,,,,,,,,,,,,,,,,,,,,,,,,
,,,,,,,,,,,,,,,,,,,,,,,19,female,2020-08-24_16h59.37.462,torte-2b,2020.1.3,Win32,60,13214,,,,,,,,,,,,,,,,,,,3,,,,,,,0,14,14,14,1,,,,,,,,,,,,,,,,,,,,,,,,,,,,,,,,,,,,
,,,,,,,,,,,,,,,,,,,,,,,19,female,2020-08-24_16h59.37.462,torte-2b,2020.1.3,Win32,60,13214,,,,,,,,,,,,,,,,,,,1,,,,,,,0,15,15,15,1,,,,,,,,,,,,,,,,,,,,,,,,,,,,,,,,,,,,
,,,,,,,,,,,,,,,,,,,,,,,19,female,2020-08-24_16h59.37.462,torte-2b,2020.1.3,Win32,60,13214,,,,,,,,,,,,,space,,,,,,7,0.452505,,,,,,0,16,16,16,1,,,,,,,,,,,,,,,,,,,,,,,,,,,,,,,,,,,,
,,,,,,,,,,,,,,,,,,,,,,,19,female,2020-08-24_16h59.37.462,torte-2b,2020.1.3,Win32,60,13214,,,,,,,,,,,,,,,,,,,7,,,,,,,0,17,17,17,1,,,,,,,,,,,,,,,,,,,,,,,,,,,,,,,,,,,,
,,,,,,,,,,,,,,,,,,,,,,,19,female,2020-08-24_16h59.37.462,torte-2b,2020.1.3,Win32,60,13214,,,,,,,,,,,,,,,,,,,4,,,,,,,0,18,18,18,1,,,,,,,,,,,,,,,,,,,,,,,,,,,,,,,,,,,,
,,,,,,,,,,,,,,,,,,,,,,,19,female,2020-08-24_16h59.37.462,torte-2b,2020.1.3,Win32,60,13214,,,,,,,,,,,,,space,,,,,,7,0.31703,,,,,,0,19,19,19,1,,,,,,,,,,,,,,,,,,,,,,,,,,,,,,,,,,,,
,,,,,,,,,,,,,,,,,,,,,,,19,female,2020-08-24_16h59.37.462,torte-2b,2020.1.3,Win32,60,13214,,,,,,,,,,,,,,,,,,,3,,,,,,,0,20,20,20,1,,,,,,,,,,,,,,,,,,,,,,,,,,,,,,,,,,,,
,,,,,,,,,,,,,,,,,,,,,,,19,female,2020-08-24_16h59.37.462,torte-2b,2020.1.3,Win32,60,13214,,,,,,,,,,,,,,,,,,,7,,,,,,,0,21,21,21,1,,,,,,,,,,,,,,,,,,,,,,,,,,,,,,,,,,,,
,,,,,,,,,,,,,,,,,,,,,,,19,female,2020-08-24_16h59.37.462,torte-2b,2020.1.3,Win32,60,13214,,,,,,,,,,,,,space,,,,,,3,0.667075,,,,,,0,22,22,22,1,,,,,,,,,,,,,,,,,,,,,,,,,,,,,,,,,,,,
,,,,,,,,,,,,,,,,,,,,,,,19,female,2020-08-24_16h59.37.462,torte-2b,2020.1.3,Win32,60,13214,,,,,,,,,,,,,,,,,,,1,,,,,,,0,23,23,23,1,,,,,,,,,,,,,,,,,,,,,,,,,,,,,,,,,,,,
,,,,,,,,,,,,,,,,,,,,,,,19,female,2020-08-24_16h59.37.462,torte-2b,2020.1.3,Win32,60,13214,,,,,,,,,,,,,,,,,,,6,,,,,,,0,24,24,24,1,,,,,,,,,,,,,,,,,,,,,,,,,,,,,,,,,,,,
,,,,,,,,,,,,,,,,,,,,,,,19,female,2020-08-24_16h59.37.462,torte-2b,2020.1.3,Win32,60,13214,,,,,,,,,,,,,,,,,,,3,,,,,,,0,25,25,25,1,,,,,,,,,,,,,,,,,,,,,,,,,,,,,,,,,,,,
,,,,,,,,,,,,,,,,,,,,,,,19,female,2020-08-24_16h59.37.462,torte-2b,2020.1.3,Win32,60,13214,,,,,,,,,,,,,,,,,,,2,,,,,,,0,26,26,26,1,,,,,,,,,,,,,,,,,,,,,,,,,,,,,,,,,,,,
,,,,,,,,,,,,,,,,,,,,,,,19,female,2020-08-24_16h59.37.462,torte-2b,2020.1.3,Win32,60,13214,,,,,,,,,,,,,space,,,,,,3,0.32428,,,,,,0,27,27,27,1,,,,,,,,,,,,,,,,,,,,,,,,,,,,,,,,,,,,
,,,,,,,,,,,,,,,,,,,,,,,19,female,2020-08-24_16h59.37.462,torte-2b,2020.1.3,Win32,60,13214,,,,,,,,,,,,,,,,,,,1,,,,,,,0,28,28,28,1,,,,,,,,,,,,,,,,,,,,,,,,,,,,,,,,,,,,
,,,,,,,,,,,,,,,,,,,,,,,19,female,2020-08-24_16h59.37.462,torte-2b,2020.1.3,Win32,60,13214,,,,,,,,,,,,,space,,,,,,3,0.43363,,,,,,0,29,29,29,1,,,,,,,,,,,,,,,,,,,,,,,,,,,,,,,,,,,,
,,,,,,,,,,,,,,,,,,,,,,,19,female,2020-08-24_16h59.37.462,torte-2b,2020.1.3,Win32,60,13214,,,,,,,,,,,,,space,,,,,,1,0.85699,,,,,,0,30,30,30,1,,,,,,,,,,,,,,,,,,,,,,,,,,,,,,,,,,,,
,,,,,,,,,,,,,,,,,,,,,,,19,female,2020-08-24_16h59.37.462,torte-2b,2020.1.3,Win32,60,13214,,,,,,,,,,,,,,,,,,,7,,,,,,,0,31,31,31,1,,,,,,,,,,,,,,,,,,,,,,,,,,,,,,,,,,,,
,,,,,,,,,,,,,,,,,,,,,,,19,female,2020-08-24_16h59.37.462,torte-2b,2020.1.3,Win32,60,13214,,,,,,,,,,,,,,,,,,,5,,,,,,,0,32,32,32,1,,,,,,,,,,,,,,,,,,,,,,,,,,,,,,,,,,,,
,,,,,,,,,,,,,,,,,,,,,,,19,female,2020-08-24_16h59.37.462,torte-2b,2020.1.3,Win32,60,13214,,,,,,,,,,,,,space,,,,,,7,0.333555,,,,,,0,33,33,33,1,,,,,,,,,,,,,,,,,,,,,,,,,,,,,,,,,,,,
,,,,,,,,,,,,,,,,,,,,,,,19,female,2020-08-24_16h59.37.462,torte-2b,2020.1.3,Win32,60,13214,,,,,,,,,,,,,,,,,,,2,,,,,,,0,34,34,34,1,,,,,,,,,,,,,,,,,,,,,,,,,,,,,,,,,,,,
,,,,,,,,,,,,,,,,,,,,,,,19,female,2020-08-24_16h59.37.462,torte-2b,2020.1.3,Win32,60,13214,,,,,,,,,,,,,,,,,,,3,,,,,,,,,,,,0,0,0,0,1,,,,,,,,,,,,,,,,,,,,,,,,,,,,,,,
,,,,,,,,,,,,,,,,,,,,,,,19,female,2020-08-24_16h59.37.462,torte-2b,2020.1.3,Win32,60,13214,,,,,,,,,,,,,,,,,,,7,,,,,,,,,,,,0,1,1,1,1,,,,,,,,,,,,,,,,,,,,,,,,,,,,,,,
,,,,,,,,,,,,,,,,,,,,,,,19,female,2020-08-24_16h59.37.462,torte-2b,2020.1.3,Win32,60,13214,,,,,,,,,,,,,,,,,,,7,,,,,,,,,,,,0,2,2,2,1,,,,,,,,,,,,,,,,,,,,,,,,,,,,,,,
,,,,,,,,,,,,,,,,,,,,,,,19,female,2020-08-24_16h59.37.462,torte-2b,2020.1.3,Win32,60,13214,,,,,,,,,,,,,,,,,,,4,,,,,,,,,,,,0,3,3,3,1,,,,,,,,,,,,,,,,,,,,,,,,,,,,,,,
,,,,,,,,,,,,,,,,,,,,,,,19,female,2020-08-24_16h59.37.462,torte-2b,2020.1.3,Win32,60,13214,,,,,,,,,,,,,,,,,,,5,,,,,,,,,,,,0,4,4,4,1,,,,,,,,,,,,,,,,,,,,,,,,,,,,,,,
,,,,,,,,,,,,,,,,,,,,,,,19,female,2020-08-24_16h59.37.462,torte-2b,2020.1.3,Win32,60,13214,,,,,,,,,,,,,space,,,,,,4,0.34368,,,,,,,,,,,0,5,5,5,1,,,,,,,,,,,,,,,,,,,,,,,,,,,,,,,
,,,,,,,,,,,,,,,,,,,,,,,19,female,2020-08-24_16h59.37.462,torte-2b,2020.1.3,Win32,60,13214,,,,,,,,,,,,,,,,,,,2,,,,,,,,,,,,0,6,6,6,1,,,,,,,,,,,,,,,,,,,,,,,,,,,,,,,
,,,,,,,,,,,,,,,,,,,,,,,19,female,2020-08-24_16h59.37.462,torte-2b,2020.1.3,Win32,60,13214,,,,,,,,,,,,,space,,,,,,4,0.69028,,,,,,,,,,,0,7,7,7,1,,,,,,,,,,,,,,,,,,,,,,,,,,,,,,,
,,,,,,,,,,,,,,,,,,,,,,,19,female,2020-08-24_16h59.37.462,torte-2b,2020.1.3,Win32,60,13214,,,,,,,,,,,,,space,,,,,,2,0.518965,,,,,,,,,,,0,8,8,8,1,,,,,,,,,,,,,,,,,,,,,,,,,,,,,,,
,,,,,,,,,,,,,,,,,,,,,,,19,female,2020-08-24_16h59.37.462,torte-2b,2020.1.3,Win32,60,13214,,,,,,,,,,,,,,,,,,,2,,,,,,,,,,,,0,9,9,9,1,,,,,,,,,,,,,,,,,,,,,,,,,,,,,,,
,,,,,,,,,,,,,,,,,,,,,,,19,female,2020-08-24_16h59.37.462,torte-2b,2020.1.3,Win32,60,13214,,,,,,,,,,,,,,,,,,,6,,,,,,,,,,,,0,10,10,10,1,,,,,,,,,,,,,,,,,,,,,,,,,,,,,,,
,,,,,,,,,,,,,,,,,,,,,,,19,female,2020-08-24_16h59.37.462,torte-2b,2020.1.3,Win32,60,13214,,,,,,,,,,,,,space,,,,,,2,0.324975,,,,,,,,,,,0,11,11,11,1,,,,,,,,,,,,,,,,,,,,,,,,,,,,,,,
,,,,,,,,,,,,,,,,,,,,,,,19,female,2020-08-24_16h59.37.462,torte-2b,2020.1.3,Win32,60,13214,,,,,,,,,,,,,,,,,,,2,,,,,,,,,,,,0,12,12,12,1,,,,,,,,,,,,,,,,,,,,,,,,,,,,,,,
,,,,,,,,,,,,,,,,,,,,,,,19,female,2020-08-24_16h59.37.462,torte-2b,2020.1.3,Win32,60,13214,,,,,,,,,,,,,space,,,,,,2,0.367015,,,,,,,,,,,0,13,13,13,1,,,,,,,,,,,,,,,,,,,,,,,,,,,,,,,
,,,,,,,,,,,,,,,,,,,,,,,19,female,2020-08-24_16h59.37.462,torte-2b,2020.1.3,Win32,60,13214,,,,,,,,,,,,,,,,,,,2,,,,,,,,,,,,0,14,14,14,1,,,,,,,,,,,,,,,,,,,,,,,,,,,,,,,
,,,,,,,,,,,,,,,,,,,,,,,19,female,2020-08-24_16h59.37.462,torte-2b,2020.1.3,Win32,60,13214,,,,,,,,,,,,,,,,,,,4,,,,,,,,,,,,0,15,15,15,1,,,,,,,,,,,,,,,,,,,,,,,,,,,,,,,
,,,,,,,,,,,,,,,,,,,,,,,19,female,2020-08-24_16h59.37.462,torte-2b,2020.1.3,Win32,60,13214,,,,,,,,,,,,,,,,,,,3,,,,,,,,,,,,0,16,16,16,1,,,,,,,,,,,,,,,,,,,,,,,,,,,,,,,
,,,,,,,,,,,,,,,,,,,,,,,19,female,2020-08-24_16h59.37.462,torte-2b,2020.1.3,Win32,60,13214,,,,,,,,,,,,,,,,,,,7,,,,,,,,,,,,0,17,17,17,1,,,,,,,,,,,,,,,,,,,,,,,,,,,,,,,
,,,,,,,,,,,,,,,,,,,,,,,19,female,2020-08-24_16h59.37.462,torte-2b,2020.1.3,Win32,60,13214,,,,,,,,,,,,,,,,,,,4,,,,,,,,,,,,0,18,18,18,1,,,,,,,,,,,,,,,,,,,,,,,,,,,,,,,
,,,,,,,,,,,,,,,,,,,,,,,19,female,2020-08-24_16h59.37.462,torte-2b,2020.1.3,Win32,60,13214,,,,,,,,,,,,,space,,,,,,7,0.67065,,,,,,,,,,,0,19,19,19,1,,,,,,,,,,,,,,,,,,,,,,,,,,,,,,,
,,,,,,,,,,,,,,,,,,,,,,,19,female,2020-08-24_16h59.37.462,torte-2b,2020.1.3,Win32,60,13214,,,,,,,,,,,,,,,,,,,7,,,,,,,,,,,,0,20,20,20,1,,,,,,,,,,,,,,,,,,,,,,,,,,,,,,,
,,,,,,,,,,,,,,,,,,,,,,,19,female,2020-08-24_16h59.37.462,torte-2b,2020.1.3,Win32,60,13214,,,,,,,,,,,,,space,,,,,,7,0.63358,,,,,,,,,,,0,21,21,21,1,,,,,,,,,,,,,,,,,,,,,,,,,,,,,,,
,,,,,,,,,,,,,,,,,,,,,,,19,female,2020-08-24_16h59.37.462,torte-2b,2020.1.3,Win32,60,13214,,,,,,,,,,,,,space,,,,,,7,0.63621,,,,,,,,,,,0,22,22,22,1,,,,,,,,,,,,,,,,,,,,,,,,,,,,,,,
,,,,,,,,,,,,,,,,,,,,,,,19,female,2020-08-24_16h59.37.462,torte-2b,2020.1.3,Win32,60,13214,,,,,,,,,,,,,,,,,,,1,,,,,,,,,,,,0,23,23,23,1,,,,,,,,,,,,,,,,,,,,,,,,,,,,,,,
,,,,,,,,,,,,,,,,,,,,,,,19,female,2020-08-24_16h59.37.462,torte-2b,2020.1.3,Win32,60,13214,,,,,,,,,,,,,space,,,,,,7,0.61689,,,,,,,,,,,0,24,24,24,1,,,,,,,,,,,,,,,,,,,,,,,,,,,,,,,
,,,,,,,,,,,,,,,,,,,,,,,19,female,2020-08-24_16h59.37.462,torte-2b,2020.1.3,Win32,60,13214,,,,,,,,,,,,,space,,,,,,1,0.867545,,,,,,,,,,,0,25,25,25,1,,,,,,,,,,,,,,,,,,,,,,,,,,,,,,,
,,,,,,,,,,,,,,,,,,,,,,,19,female,2020-08-24_16h59.37.462,torte-2b,2020.1.3,Win32,60,13214,,,,,,,,,,,,,,,,,,,7,,,,,,,,,,,,0,26,26,26,1,,,,,,,,,,,,,,,,,,,,,,,,,,,,,,,
,,,,,,,,,,,,,,,,,,,,,,,19,female,2020-08-24_16h59.37.462,torte-2b,2020.1.3,Win32,60,13214,,,,,,,,,,,,,,,,,,,2,,,,,,,,,,,,0,27,27,27,1,,,,,,,,,,,,,,,,,,,,,,,,,,,,,,,
,,,,,,,,,,,,,,,,,,,,,,,19,female,2020-08-24_16h59.37.462,torte-2b,2020.1.3,Win32,60,13214,,,,,,,,,,,,,,,,,,,5,,,,,,,,,,,,0,28,28,28,1,,,,,,,,,,,,,,,,,,,,,,,,,,,,,,,
,,,,,,,,,,,,,,,,,,,,,,,19,female,2020-08-24_16h59.37.462,torte-2b,2020.1.3,Win32,60,13214,,,,,,,,,,,,,space,,,,,,5,0.47361,,,,,,,,,,,0,29,29,29,1,,,,,,,,,,,,,,,,,,,,,,,,,,,,,,,
,,,,,,,,,,,,,,,,,,,,,,,19,female,2020-08-24_16h59.37.462,torte-2b,2020.1.3,Win32,60,13214,,,,,,,,,,,,,space,,,,,,5,0.291965,,,,,,,,,,,0,30,30,30,1,,,,,,,,,,,,,,,,,,,,,,,,,,,,,,,
,,,,,,,,,,,,,,,,,,,,,,,19,female,2020-08-24_16h59.37.462,torte-2b,2020.1.3,Win32,60,13214,,,,,,,,,,,,,,,,,,,1,,,,,,,,,,,,0,31,31,31,1,,,,,,,,,,,,,,,,,,,,,,,,,,,,,,,
,,,,,,,,,,,,,,,,,,,,,,,19,female,2020-08-24_16h59.37.462,torte-2b,2020.1.3,Win32,60,13214,,,,,,,,,,,,,space,,,,,,5,0.609205,,,,,,,,,,,0,32,32,32,1,,,,,,,,,,,,,,,,,,,,,,,,,,,,,,,
,,,,,,,,,,,,,,,,,,,,,,,19,female,2020-08-24_16h59.37.462,torte-2b,2020.1.3,Win32,60,13214,,,,,,,,,,,,,,,,,,,3,,,,,,,,,,,,0,33,33,33,1,,,,,,,,,,,,,,,,,,,,,,,,,,,,,,,
,,,,,,,,,,,,,,,,,,,,,,,19,female,2020-08-24_16h59.37.462,torte-2b,2020.1.3,Win32,60,13214,,,,,,,,,,,,,space,,,,,,3,0.857195,,,,,,,,,,,0,34,34,34,1,,,,,,,,,,,,,,,,,,,,,,,,,,,,,,,
,,,,,,,,,,,,a,Incorrect,,,,,,t2.png,t5.png,3,0.0000131,19,female,2020-08-24_16h59.37.462,torte-2b,2020.1.3,Win32,60,13214,0.93828,space,1.58531,,,,,,,,,,,,,,,,,,,,,,,,,,,,,,,,,space,7.79318,0,0,0,54,1,,,,,,,,,,,,,,,,,,,,,,,,
,,,,,,,,,,,,l,Incorrect,,,,,,t2.png,t1.png,1,0.90025,19,female,2020-08-24_16h59.37.462,torte-2b,2020.1.3,Win32,60,13214,0.85119,,,,,,,,,,,,,,,,,,,,,,,,,,,,,,,,,,,,,0,1,1,65,1,,,,,,,,,,,,,,,,,,,,,,,,
,,,,,,,,,,,,l,Correct!,,,,,,t1.png,t3.png,2,0.0565,19,female,2020-08-24_16h59.37.462,torte-2b,2020.1.3,Win32,60,13214,0.86802,,,,,,,,,,,,,,,,,,,,,,,,,,,,,,,,,,,,,0,2,2,12,1,,,,,,,,,,,,,,,,,,,,,,,,
,,,,,,,,,,,,a,Correct!,,,,,,t5.png,t4.png,1,0.9,19,female,2020-08-24_16h59.37.462,torte-2b,2020.1.3,Win32,60,13214,0.57073,,,,,,,,,,,,,,,,,,,,,,,,,,,,,,,,,,,,,0,3,3,55,1,,,,,,,,,,,,,,,,,,,,,,,,
,,,,,,,,,,,,l,Incorrect,,,,,,t2.png,t3.png,1,0.909,19,female,2020-08-24_16h59.37.462,torte-2b,2020.1.3,Win32,60,13214,1.050645,,,,,,,,,,,,,,,,,,,,,,,,,,,,,,,,,,,,,0,4,4,8,1,,,,,,,,,,,,,,,,,,,,,,,,
,,,,,,,,,,,,l,Incorrect,,,,,,t2.png,t3.png,1,0.90855,19,female,2020-08-24_16h59.37.462,torte-2b,2020.1.3,Win32,60,13214,0.934405,,,,,,,,,,,,,,,,,,,,,,,,,,,,,,,,,,,,,0,5,5,113,1,,,,,,,,,,,,,,,,,,,,,,,,
,,,,,,,,,,,,l,Incorrect,,,,,,t2.png,t3.png,1,0.90855,19,female,2020-08-24_16h59.37.462,torte-2b,2020.1.3,Win32,60,13214,0.717595,,,,,,,,,,,,,,,,,,,,,,,,,,,,,,,,,,,,,0,6,6,79,1,,,,,,,,,,,,,,,,,,,,,,,,
,,,,,,,,,,,,a,Incorrect,,,,,,t3.png,t5.png,2,0.0565,19,female,2020-08-24_16h59.37.462,torte-2b,2020.1.3,Win32,60,13214,1.141295,,,,,,,,,,,,,,,,,,,,,,,,,,,,,,,,,,,,,0,7,7,71,1,,,,,,,,,,,,,,,,,,,,,,,,
,,,,,,,,,,,,l,Correct!,,,,,,t4.png,t1.png,3,0.0000131,19,female,2020-08-24_16h59.37.462,torte-2b,2020.1.3,Win32,60,13214,0.96739,,,,,,,,,,,,,,,,,,,,,,,,,,,,,,,,,,,,,0,8,8,102,1,,,,,,,,,,,,,,,,,,,,,,,,
,,,,,,,,,,,,a,Correct!,,,,,,t4.png,t5.png,1,0.90025,19,female,2020-08-24_16h59.37.462,torte-2b,2020.1.3,Win32,60,13214,0.64136,,,,,,,,,,,,,,,,,,,,,,,,,,,,,,,,,,,,,0,9,9,63,1,,,,,,,,,,,,,,,,,,,,,,,,
,,,,,,,,,,,,l,Correct!,,,,,,t1.png,t5.png,4,9.55E-11,19,female,2020-08-24_16h59.37.462,torte-2b,2020.1.3,Win32,60,13214,1.022795,,,,,,,,,,,,,,,,,,,,,,,,,,,,,,,,,,,,,0,10,10,118,1,,,,,,,,,,,,,,,,,,,,,,,,
,,,,,,,,,,,,l,Correct!,,,,,,t3.png,t1.png,2,0.056466,19,female,2020-08-24_16h59.37.462,torte-2b,2020.1.3,Win32,60,13214,1.06066,,,,,,,,,,,,,,,,,,,,,,,,,,,,,,,,,,,,,0,11,11,72,1,,,,,,,,,,,,,,,,,,,,,,,,
,,,,,,,,,,,,l,Incorrect,,,,,,t1.png,t2.png,1,0.9,19,female,2020-08-24_16h59.37.462,torte-2b,2020.1.3,Win32,60,13214,1.755975,,,,,,,,,,,,,,,,,,,,,,,,,,,,,,,,,,,,,0,12,12,17,1,,,,,,,,,,,,,,,,,,,,,,,,
,,,,,,,,,,,,l,Correct!,,,,,,t5.png,t1.png,4,9.55E-11,19,female,2020-08-24_16h59.37.462,torte-2b,2020.1.3,Win32,60,13214,1.17687,,,,,,,,,,,,,,,,,,,,,,,,,,,,,,,,,,,,,0,13,13,101,1,,,,,,,,,,,,,,,,,,,,,,,,
,,,,,,,,,,,,a,Correct!,,,,,,t2.png,t2.png,0,0.981,19,female,2020-08-24_16h59.37.462,torte-2b,2020.1.3,Win32,60,13214,0.90112,,,,,,,,,,,,,,,,,,,,,,,,,,,,,,,,,,,,,0,14,14,98,1,,,,,,,,,,,,,,,,,,,,,,,,
,,,,,,,,,,,,a,Correct!,,,,,,t4.png,t3.png,1,0.909,19,female,2020-08-24_16h59.37.462,torte-2b,2020.1.3,Win32,60,13214,0.784475,,,,,,,,,,,,,,,,,,,,,,,,,,,,,,,,,,,,,0,15,15,119,1,,,,,,,,,,,,,,,,,,,,,,,,
,,,,,,,,,,,,l,Correct!,,,,,,t4.png,t1.png,3,0.0000131,19,female,2020-08-24_16h59.37.462,torte-2b,2020.1.3,Win32,60,13214,0.98774,,,,,,,,,,,,,,,,,,,,,,,,,,,,,,,,,,,,,0,16,16,91,1,,,,,,,,,,,,,,,,,,,,,,,,
,,,,,,,,,,,,a,Correct!,,,,,,t3.png,t4.png,1,0.90855,19,female,2020-08-24_16h59.37.462,torte-2b,2020.1.3,Win32,60,13214,0.817945,,,,,,,,,,,,,,,,,,,,,,,,,,,,,,,,,,,,,0,17,17,58,1,,,,,,,,,,,,,,,,,,,,,,,,
,,,,,,,,,,,,l,Incorrect,,,,,,t3.png,t2.png,1,0.90855,19,female,2020-08-24_16h59.37.462,torte-2b,2020.1.3,Win32,60,13214,0.925405,,,,,,,,,,,,,,,,,,,,,,,,,,,,,,,,,,,,,0,18,18,10,1,,,,,,,,,,,,,,,,,,,,,,,,
,,,,,,,,,,,,l,Correct!,,,,,,t4.png,t1.png,3,0.059078,19,female,2020-08-24_16h59.37.462,torte-2b,2020.1.3,Win32,60,13214,0.884175,,,,,,,,,,,,,,,,,,,,,,,,,,,,,,,,,,,,,0,19,19,75,1,,,,,,,,,,,,,,,,,,,,,,,,
,,,,,,,,,,,,l,Correct!,,,,,,t1.png,t4.png,3,0.0000131,19,female,2020-08-24_16h59.37.462,torte-2b,2020.1.3,Win32,60,13214,1.10124,,,,,,,,,,,,,,,,,,,,,,,,,,,,,,,,,,,,,0,20,20,74,1,,,,,,,,,,,,,,,,,,,,,,,,
,,,,,,,,,,,,a,Incorrect,,,,,,t4.png,t5.png,1,0.90025,19,female,2020-08-24_16h59.37.462,torte-2b,2020.1.3,Win32,60,13214,0.67335,,,,,,,,,,,,,,,,,,,,,,,,,,,,,,,,,,,,,0,21,21,21,1,,,,,,,,,,,,,,,,,,,,,,,,
,,,,,,,,,,,,a,Incorrect,,,,,,t4.png,t3.png,1,0.90855,19,female,2020-08-24_16h59.37.462,torte-2b,2020.1.3,Win32,60,13214,1.484635,,,,,,,,,,,,,,,,,,,,,,,,,,,,,,,,,,,,,0,22,22,29,1,,,,,,,,,,,,,,,,,,,,,,,,
,,,,,,,,,,,,a,Incorrect,,,,,,t5.png,t3.png,2,0.0565,19,female,2020-08-24_16h59.37.462,torte-2b,2020.1.3,Win32,60,13214,0.85603,,,,,,,,,,,,,,,,,,,,,,,,,,,,,,,,,,,,,0,23,23,50,1,,,,,,,,,,,,,,,,,,,,,,,,
,,,,,,,,,,,,l,Incorrect,,,,,,t1.png,t3.png,2,0.056466,19,female,2020-08-24_16h59.37.462,torte-2b,2020.1.3,Win32,60,13214,1.19131,,,,,,,,,,,,,,,,,,,,,,,,,,,,,,,,,,,,,0,24,24,24,1,,,,,,,,,,,,,,,,,,,,,,,,
,,,,,,,,,,,,l,Correct!,,,,,,t1.png,t5.png,4,9.55E-11,19,female,2020-08-24_16h59.37.462,torte-2b,2020.1.3,Win32,60,13214,1.42262,,,,,,,,,,,,,,,,,,,,,,,,,,,,,,,,,,,,,0,25,25,1,1,,,,,,,,,,,,,,,,,,,,,,,,
,,,,,,,,,,,,a,Incorrect,,,,,,t3.png,t5.png,2,0.056466,19,female,2020-08-24_16h59.37.462,torte-2b,2020.1.3,Win32,60,13214,1.05105,,,,,,,,,,,,,,,,,,,,,,,,,,,,,,,,,,,,,0,26,26,60,1,,,,,,,,,,,,,,,,,,,,,,,,
,,,,,,,,,,,,a,Correct!,,,,,,t4.png,t4.png,0,0.98115,19,female,2020-08-24_16h59.37.462,torte-2b,2020.1.3,Win32,60,13214,1.09234,,,,,,,,,,,,,,,,,,,,,,,,,,,,,,,,,,,,,0,27,27,68,1,,,,,,,,,,,,,,,,,,,,,,,,
,,,,,,,,,,,,a,Correct!,,,,,,t1.png,t1.png,0,0.97829,19,female,2020-08-24_16h59.37.462,torte-2b,2020.1.3,Win32,60,13214,1.02075,,,,,,,,,,,,,,,,,,,,,,,,,,,,,,,,,,,,,0,28,28,114,1,,,,,,,,,,,,,,,,,,,,,,,,
,,,,,,,,,,,,l,Correct!,,,,,,t2.png,t5.png,3,0.0000131,19,female,2020-08-24_16h59.37.462,torte-2b,2020.1.3,Win32,60,13214,1.068615,,,,,,,,,,,,,,,,,,,,,,,,,,,,,,,,,,,,,0,29,29,39,1,,,,,,,,,,,,,,,,,,,,,,,,
,,,,,,,,,,,,l,Correct!,,,,,,t1.png,t4.png,3,0.0000131,19,female,2020-08-24_16h59.37.462,torte-2b,2020.1.3,Win32,60,13214,1.32375,,,,,,,,,,,,,,,,,,,,,,,,,,,,,,,,,,,,,0,30,30,23,1,,,,,,,,,,,,,,,,,,,,,,,,
,,,,,,,,,,,,a,Correct!,,,,,,t2.png,t2.png,0,0.98115,19,female,2020-08-24_16h59.37.462,torte-2b,2020.1.3,Win32,60,13214,0.99186,,,,,,,,,,,,,,,,,,,,,,,,,,,,,,,,,,,,,0,31,31,7,1,,,,,,,,,,,,,,,,,,,,,,,,
,,,,,,,,,,,,l,Incorrect,,,,,,t3.png,t2.png,1,0.90855,19,female,2020-08-24_16h59.37.462,torte-2b,2020.1.3,Win32,60,13214,1.693305,,,,,,,,,,,,,,,,,,,,,,,,,,,,,,,,,,,,,0,32,32,108,1,,,,,,,,,,,,,,,,,,,,,,,,
,,,,,,,,,,,,l,Correct!,,,,,,t1.png,t4.png,3,0.0000131,19,female,2020-08-24_16h59.37.462,torte-2b,2020.1.3,Win32,60,13214,1.18491,,,,,,,,,,,,,,,,,,,,,,,,,,,,,,,,,,,,,0,33,33,16,1,,,,,,,,,,,,,,,,,,,,,,,,
,,,,,,,,,,,,a,Incorrect,,,,,,t5.png,t3.png,2,0.056466,19,female,2020-08-24_16h59.37.462,torte-2b,2020.1.3,Win32,60,13214,0.593055,,,,,,,,,,,,,,,,,,,,,,,,,,,,,,,,,,,,,0,34,34,26,1,,,,,,,,,,,,,,,,,,,,,,,,
,,,,,,,,,,,,a,Correct!,,,,,,t4.png,t5.png,1,0.9,19,female,2020-08-24_16h59.37.462,torte-2b,2020.1.3,Win32,60,13214,0.66797,,,,,,,,,,,,,,,,,,,,,,,,,,,,,,,,,,,,,0,35,35,81,1,,,,,,,,,,,,,,,,,,,,,,,,
,,,,,,,,,,,,l,Correct!,,,,,,t4.png,t1.png,3,0.059078,19,female,2020-08-24_16h59.37.462,torte-2b,2020.1.3,Win32,60,13214,0.9893,,,,,,,,,,,,,,,,,,,,,,,,,,,,,,,,,,,,,0,36,36,62,1,,,,,,,,,,,,,,,,,,,,,,,,
,,,,,,,,,,,,l,Correct!,,,,,,t5.png,t1.png,4,9.55E-11,19,female,2020-08-24_16h59.37.462,torte-2b,2020.1.3,Win32,60,13214,1.31132,,,,,,,,,,,,,,,,,,,,,,,,,,,,,,,,,,,,,0,37,37,15,1,,,,,,,,,,,,,,,,,,,,,,,,
,,,,,,,,,,,,a,Incorrect,,,,,,t5.png,t2.png,3,0.0000131,19,female,2020-08-24_16h59.37.462,torte-2b,2020.1.3,Win32,60,13214,0.86795,,,,,,,,,,,,,,,,,,,,,,,,,,,,,,,,,,,,,0,38,38,66,1,,,,,,,,,,,,,,,,,,,,,,,,
,,,,,,,,,,,,l,Correct!,,,,,,t3.png,t1.png,2,0.056466,19,female,2020-08-24_16h59.37.462,torte-2b,2020.1.3,Win32,60,13214,0.98464,,,,,,,,,,,,,,,,,,,,,,,,,,,,,,,,,,,,,0,39,39,34,1,,,,,,,,,,,,,,,,,,,,,,,,
,,,,,,,,,,,,a,Correct!,,,,,,t4.png,t4.png,0,0.98115,19,female,2020-08-24_16h59.37.462,torte-2b,2020.1.3,Win32,60,13214,1.070605,,,,,,,,,,,,,,,,,,,,,,,,,,,,,,,,,,,,,0,40,40,88,1,,,,,,,,,,,,,,,,,,,,,,,,
,,,,,,,,,,,,l,Incorrect,,,,,,t2.png,t1.png,1,0.90025,19,female,2020-08-24_16h59.37.462,torte-2b,2020.1.3,Win32,60,13214,0.653955,,,,,,,,,,,,,,,,,,,,,,,,,,,,,,,,,,,,,0,41,41,105,1,,,,,,,,,,,,,,,,,,,,,,,,
,,,,,,,,,,,,l,Correct!,,,,,,t1.png,t3.png,2,0.0565,19,female,2020-08-24_16h59.37.462,torte-2b,2020.1.3,Win32,60,13214,0.52697,,,,,,,,,,,,,,,,,,,,,,,,,,,,,,,,,,,,,0,42,42,95,1,,,,,,,,,,,,,,,,,,,,,,,,
,,,,,,,,,,,,l,Incorrect,,,,,,t1.png,t2.png,1,0.9,19,female,2020-08-24_16h59.37.462,torte-2b,2020.1.3,Win32,60,13214,0.6713,,,,,,,,,,,,,,,,,,,,,,,,,,,,,,,,,,,,,0,43,43,41,1,,,,,,,,,,,,,,,,,,,,,,,,
,,,,,,,,,,,,a,Correct!,,,,,,t5.png,t4.png,1,0.9,19,female,2020-08-24_16h59.37.462,torte-2b,2020.1.3,Win32,60,13214,0.850685,,,,,,,,,,,,,,,,,,,,,,,,,,,,,,,,,,,,,0,44,44,92,1,,,,,,,,,,,,,,,,,,,,,,,,
,,,,,,,,,,,,a,Correct!,,,,,,t2.png,t2.png,0,0.98115,19,female,2020-08-24_16h59.37.462,torte-2b,2020.1.3,Win32,60,13214,0.85253,,,,,,,,,,,,,,,,,,,,,,,,,,,,,,,,,,,,,0,45,45,112,1,,,,,,,,,,,,,,,,,,,,,,,,
,,,,,,,,,,,,l,Correct!,,,,,,t1.png,t4.png,3,0.0000131,19,female,2020-08-24_16h59.37.462,torte-2b,2020.1.3,Win32,60,13214,1.067745,,,,,,,,,,,,,,,,,,,,,,,,,,,,,,,,,,,,,0,46,46,36,1,,,,,,,,,,,,,,,,,,,,,,,,
,,,,,,,,,,,,a,Correct!,,,,,,t1.png,t1.png,0,0.978,19,female,2020-08-24_16h59.37.462,torte-2b,2020.1.3,Win32,60,13214,1.289015,,,,,,,,,,,,,,,,,,,,,,,,,,,,,,,,,,,,,0,47,47,13,1,,,,,,,,,,,,,,,,,,,,,,,,
,,,,,,,,,,,,a,Correct!,,,,,,t4.png,t4.png,0,0.98115,19,female,2020-08-24_16h59.37.462,torte-2b,2020.1.3,Win32,60,13214,0.93424,,,,,,,,,,,,,,,,,,,,,,,,,,,,,,,,,,,,,0,48,48,52,1,,,,,,,,,,,,,,,,,,,,,,,,
,,,,,,,,,,,,a,Correct!,,,,,,t1.png,t2.png,1,0.90025,19,female,2020-08-24_16h59.37.462,torte-2b,2020.1.3,Win32,60,13214,1.408665,,,,,,,,,,,,,,,,,,,,,,,,,,,,,,,,,,,,,0,49,49,6,1,,,,,,,,,,,,,,,,,,,,,,,,
,,,,,,,,,,,,l,Incorrect,,,,,,t2.png,t1.png,1,0.90025,19,female,2020-08-24_16h59.37.462,torte-2b,2020.1.3,Win32,60,13214,0.90331,,,,,,,,,,,,,,,,,,,,,,,,,,,,,,,,,,,,,0,50,50,44,1,,,,,,,,,,,,,,,,,,,,,,,,
,,,,,,,,,,,,l,Correct!,,,,,,t4.png,t1.png,3,0.0000131,19,female,2020-08-24_16h59.37.462,torte-2b,2020.1.3,Win32,60,13214,1.18539,,,,,,,,,,,,,,,,,,,,,,,,,,,,,,,,,,,,,0,51,51,28,1,,,,,,,,,,,,,,,,,,,,,,,,
,,,,,,,,,,,,l,Incorrect,,,,,,t2.png,t1.png,1,0.9,19,female,2020-08-24_16h59.37.462,torte-2b,2020.1.3,Win32,60,13214,0.96744,,,,,,,,,,,,,,,,,,,,,,,,,,,,,,,,,,,,,0,52,52,93,1,,,,,,,,,,,,,,,,,,,,,,,,
,,,,,,,,,,,,a,Correct!,,,,,,t5.png,t4.png,1,0.90025,19,female,2020-08-24_16h59.37.462,torte-2b,2020.1.3,Win32,60,13214,0.79995,,,,,,,,,,,,,,,,,,,,,,,,,,,,,,,,,,,,,0,53,53,14,1,,,,,,,,,,,,,,,,,,,,,,,,
,,,,,,,,,,,,a,Correct!,,,,,,t5.png,t5.png,0,0.978,19,female,2020-08-24_16h59.37.462,torte-2b,2020.1.3,Win32,60,13214,0.51803,,,,,,,,,,,,,,,,,,,,,,,,,,,,,,,,,,,,,0,54,54,116,1,,,,,,,,,,,,,,,,,,,,,,,,
,,,,,,,,,,,,a,Correct!,,,,,,t5.png,t5.png,0,0.978,19,female,2020-08-24_16h59.37.462,torte-2b,2020.1.3,Win32,60,13214,0.808155,,,,,,,,,,,,,,,,,,,,,,,,,,,,,,,,,,,,,0,55,55,51,1,,,,,,,,,,,,,,,,,,,,,,,,
,,,,,,,,,,,,l,Correct!,,,,,,t1.png,t4.png,3,0.0000131,19,female,2020-08-24_16h59.37.462,torte-2b,2020.1.3,Win32,60,13214,0.793735,,,,,,,,,,,,,,,,,,,,,,,,,,,,,,,,,,,,,0,56,56,106,1,,,,,,,,,,,,,,,,,,,,,,,,
,,,,,,,,,,,,a,Correct!,,,,,,t3.png,t2.png,1,0.90855,19,female,2020-08-24_16h59.37.462,torte-2b,2020.1.3,Win32,60,13214,0.934145,,,,,,,,,,,,,,,,,,,,,,,,,,,,,,,,,,,,,0,57,57,99,1,,,,,,,,,,,,,,,,,,,,,,,,
,,,,,,,,,,,,a,Incorrect,,,,,,t2.png,t4.png,2,0.059078,19,female,2020-08-24_16h59.37.462,torte-2b,2020.1.3,Win32,60,13214,0.39002,,,,,,,,,,,,,,,,,,,,,,,,,,,,,,,,,,,,,0,58,58,97,1,,,,,,,,,,,,,,,,,,,,,,,,
,,,,,,,,,,,,a,Incorrect,,,,,,t5.png,t3.png,2,0.056466,19,female,2020-08-24_16h59.37.462,torte-2b,2020.1.3,Win32,60,13214,0.488775,,,,,,,,,,,,,,,,,,,,,,,,,,,,,,,,,,,,,0,59,59,27,1,,,,,,,,,,,,,,,,,,,,,,,,
,,,,,,,,,,,,l,Correct!,,,,,,t2.png,t4.png,2,0.059078,19,female,2020-08-24_16h59.37.462,torte-2b,2020.1.3,Win32,60,13214,0.65085,,,,,,,,,,,,,,,,,,,,,,,,,,,,,,,,,,,,,0,60,60,53,1,,,,,,,,,,,,,,,,,,,,,,,,
,,,,,,,,,,,,l,Incorrect,,,,,,t2.png,t3.png,1,0.90855,19,female,2020-08-24_16h59.37.462,torte-2b,2020.1.3,Win32,60,13214,0.64233,,,,,,,,,,,,,,,,,,,,,,,,,,,,,,,,,,,,,0,61,61,70,1,,,,,,,,,,,,,,,,,,,,,,,,
,,,,,,,,,,,,a,Correct!,,,,,,t5.png,t4.png,1,0.90025,19,female,2020-08-24_16h59.37.462,torte-2b,2020.1.3,Win32,60,13214,0.58499,,,,,,,,,,,,,,,,,,,,,,,,,,,,,,,,,,,,,0,62,62,25,1,,,,,,,,,,,,,,,,,,,,,,,,
,,,,,,,,,,,,l,Incorrect,,,,,,t2.png,t1.png,1,0.9,19,female,2020-08-24_16h59.37.462,torte-2b,2020.1.3,Win32,60,13214,0.526445,,,,,,,,,,,,,,,,,,,,,,,,,,,,,,,,,,,,,0,63,63,100,1,,,,,,,,,,,,,,,,,,,,,,,,
,,,,,,,,,,,,l,Correct!,,,,,,t4.png,t1.png,3,0.0000131,19,female,2020-08-24_16h59.37.462,torte-2b,2020.1.3,Win32,60,13214,0.72151,,,,,,,,,,,,,,,,,,,,,,,,,,,,,,,,,,,,,0,64,64,76,1,,,,,,,,,,,,,,,,,,,,,,,,
,,,,,,,,,,,,a,Correct!,,,,,,t4.png,t3.png,1,0.90855,19,female,2020-08-24_16h59.37.462,torte-2b,2020.1.3,Win32,60,13214,0.909595,,,,,,,,,,,,,,,,,,,,,,,,,,,,,,,,,,,,,0,65,65,56,1,,,,,,,,,,,,,,,,,,,,,,,,
,,,,,,,,,,,,a,Correct!,,,,,,t3.png,t4.png,1,0.90855,19,female,2020-08-24_16h59.37.462,torte-2b,2020.1.3,Win32,60,13214,1.055565,,,,,,,,,,,,,,,,,,,,,,,,,,,,,,,,,,,,,0,66,66,9,1,,,,,,,,,,,,,,,,,,,,,,,,
,,,,,,,,,,,,a,Incorrect,,,,,,t3.png,t5.png,2,0.056466,19,female,2020-08-24_16h59.37.462,torte-2b,2020.1.3,Win32,60,13214,0.690465,,,,,,,,,,,,,,,,,,,,,,,,,,,,,,,,,,,,,0,67,67,47,1,,,,,,,,,,,,,,,,,,,,,,,,
,,,,,,,,,,,,l,Correct!,,,,,,t1.png,t3.png,2,0.056466,19,female,2020-08-24_16h59.37.462,torte-2b,2020.1.3,Win32,60,13214,0.75839,,,,,,,,,,,,,,,,,,,,,,,,,,,,,,,,,,,,,0,68,68,32,1,,,,,,,,,,,,,,,,,,,,,,,,
,,,,,,,,,,,,l,Correct!,,,,,,t1.png,t5.png,4,9.55E-11,19,female,2020-08-24_16h59.37.462,torte-2b,2020.1.3,Win32,60,13214,1.02055,,,,,,,,,,,,,,,,,,,,,,,,,,,,,,,,,,,,,0,69,69,3,1,,,,,,,,,,,,,,,,,,,,,,,,
,,,,,,,,,,,,l,Incorrect,,,,,,t1.png,t2.png,1,0.90025,19,female,2020-08-24_16h59.37.462,torte-2b,2020.1.3,Win32,60,13214,0.917185,,,,,,,,,,,,,,,,,,,,,,,,,,,,,,,,,,,,,0,70,70,96,1,,,,,,,,,,,,,,,,,,,,,,,,
,,,,,,,,,,,,a,Incorrect,,,,,,t1.png,t3.png,2,0.0565,19,female,2020-08-24_16h59.37.462,torte-2b,2020.1.3,Win32,60,13214,0.9536,,,,,,,,,,,,,,,,,,,,,,,,,,,,,,,,,,,,,0,71,71,42,1,,,,,,,,,,,,,,,,,,,,,,,,
,,,,,,,,,,,,a,Incorrect,,,,,,t5.png,t2.png,3,0.0000131,19,female,2020-08-24_16h59.37.462,torte-2b,2020.1.3,Win32,60,13214,0.76794,,,,,,,,,,,,,,,,,,,,,,,,,,,,,,,,,,,,,0,72,72,82,1,,,,,,,,,,,,,,,,,,,,,,,,
,,,,,,,,,,,,l,Correct!,,,,,,t2.png,t4.png,2,0.059078,19,female,2020-08-24_16h59.37.462,torte-2b,2020.1.3,Win32,60,13214,0.717465,,,,,,,,,,,,,,,,,,,,,,,,,,,,,,,,,,,,,0,73,73,84,1,,,,,,,,,,,,,,,,,,,,,,,,
,,,,,,,,,,,,l,Correct!,,,,,,t5.png,t1.png,4,9.55E-11,19,female,2020-08-24_16h59.37.462,torte-2b,2020.1.3,Win32,60,13214,1.622205,,,,,,,,,,,,,,,,,,,,,,,,,,,,,,,,,,,,,0,74,74,117,1,,,,,,,,,,,,,,,,,,,,,,,,
,,,,,,,,,,,,a,Incorrect,,,,,,t3.png,t2.png,1,0.90855,19,female,2020-08-24_16h59.37.462,torte-2b,2020.1.3,Win32,60,13214,0.750815,,,,,,,,,,,,,,,,,,,,,,,,,,,,,,,,,,,,,0,75,75,0,1,,,,,,,,,,,,,,,,,,,,,,,,
,,,,,,,,,,,,a,Incorrect,,,,,,t3.png,t4.png,1,0.90855,19,female,2020-08-24_16h59.37.462,torte-2b,2020.1.3,Win32,60,13214,0.734275,,,,,,,,,,,,,,,,,,,,,,,,,,,,,,,,,,,,,0,76,76,5,1,,,,,,,,,,,,,,,,,,,,,,,,
,,,,,,,,,,,,a,Correct!,,,,,,t5.png,t5.png,0,0.97829,19,female,2020-08-24_16h59.37.462,torte-2b,2020.1.3,Win32,60,13214,0.69051,,,,,,,,,,,,,,,,,,,,,,,,,,,,,,,,,,,,,0,77,77,35,1,,,,,,,,,,,,,,,,,,,,,,,,
,,,,,,,,,,,,a,Correct!,,,,,,t1.png,t1.png,0,0.97829,19,female,2020-08-24_16h59.37.462,torte-2b,2020.1.3,Win32,60,13214,1.35823,,,,,,,,,,,,,,,,,,,,,,,,,,,,,,,,,,,,,0,78,78,4,1,,,,,,,,,,,,,,,,,,,,,,,,
,,,,,,,,,,,,a,Correct!,,,,,,t2.png,t3.png,1,0.90855,19,female,2020-08-24_16h59.37.462,torte-2b,2020.1.3,Win32,60,13214,0.889745,,,,,,,,,,,,,,,,,,,,,,,,,,,,,,,,,,,,,0,79,79,64,1,,,,,,,,,,,,,,,,,,,,,,,,
,,,,,,,,,,,,a,Incorrect,,,,,,t5.png,t2.png,3,0.0000131,19,female,2020-08-24_16h59.37.462,torte-2b,2020.1.3,Win32,60,13214,0.80843,,,,,,,,,,,,,,,,,,,,,,,,,,,,,,,,,,,,,0,80,80,83,1,,,,,,,,,,,,,,,,,,,,,,,,
,,,,,,,,,,,,a,Incorrect,,,,,,t3.png,t1.png,2,0.056466,19,female,2020-08-24_16h59.37.462,torte-2b,2020.1.3,Win32,60,13214,1.45327,,,,,,,,,,,,,,,,,,,,,,,,,,,,,,,,,,,,,0,81,81,109,1,,,,,,,,,,,,,,,,,,,,,,,,
,,,,,,,,,,,,a,Correct!,,,,,,t4.png,t3.png,1,0.909,19,female,2020-08-24_16h59.37.462,torte-2b,2020.1.3,Win32,60,13214,0.624635,,,,,,,,,,,,,,,,,,,,,,,,,,,,,,,,,,,,,0,82,82,107,1,,,,,,,,,,,,,,,,,,,,,,,,
,,,,,,,,,,,,a,Incorrect,,,,,,t5.png,t2.png,3,0.0000131,19,female,2020-08-24_16h59.37.462,torte-2b,2020.1.3,Win32,60,13214,1.167865,,,,,,,,,,,,,,,,,,,,,,,,,,,,,,,,,,,,,0,83,83,43,1,,,,,,,,,,,,,,,,,,,,,,,,
,,,,,,,,,,,,a,Correct!,,,,,,t5.png,t4.png,1,0.90025,19,female,2020-08-24_16h59.37.462,torte-2b,2020.1.3,Win32,60,13214,0.90207,,,,,,,,,,,,,,,,,,,,,,,,,,,,,,,,,,,,,0,84,84,38,1,,,,,,,,,,,,,,,,,,,,,,,,
,,,,,,,,,,,,a,Correct!,,,,,,t4.png,t5.png,1,0.90025,19,female,2020-08-24_16h59.37.462,torte-2b,2020.1.3,Win32,60,13214,1.017795,,,,,,,,,,,,,,,,,,,,,,,,,,,,,,,,,,,,,0,85,85,86,1,,,,,,,,,,,,,,,,,,,,,,,,
,,,,,,,,,,,,a,Correct!,,,,,,t3.png,t5.png,2,0.056466,19,female,2020-08-24_16h59.37.462,torte-2b,2020.1.3,Win32,60,13214,1.11792,,,,,,,,,,,,,,,,,,,,,,,,,,,,,,,,,,,,,0,86,86,78,1,,,,,,,,,,,,,,,,,,,,,,,,
,,,,,,,,,,,,a,Correct!,,,,,,t4.png,t3.png,1,0.90855,19,female,2020-08-24_16h59.37.462,torte-2b,2020.1.3,Win32,60,13214,0.922985,,,,,,,,,,,,,,,,,,,,,,,,,,,,,,,,,,,,,0,87,87,11,1,,,,,,,,,,,,,,,,,,,,,,,,
,,,,,,,,,,,,a,Incorrect,,,,,,t5.png,t2.png,3,0.0000131,19,female,2020-08-24_16h59.37.462,torte-2b,2020.1.3,Win32,60,13214,0.634775,,,,,,,,,,,,,,,,,,,,,,,,,,,,,,,,,,,,,0,88,88,48,1,,,,,,,,,,,,,,,,,,,,,,,,
,,,,,,,,,,,,a,Incorrect,,,,,,t2.png,t5.png,3,0.0000131,19,female,2020-08-24_16h59.37.462,torte-2b,2020.1.3,Win32,60,13214,0.841715,,,,,,,,,,,,,,,,,,,,,,,,,,,,,,,,,,,,,0,89,89,46,1,,,,,,,,,,,,,,,,,,,,,,,,
,,,,,,,,,,,,a,Correct!,,,,,,t4.png,t4.png,0,0.98115,19,female,2020-08-24_16h59.37.462,torte-2b,2020.1.3,Win32,60,13214,0.71149,,,,,,,,,,,,,,,,,,,,,,,,,,,,,,,,,,,,,0,90,90,59,1,,,,,,,,,,,,,,,,,,,,,,,,
,,,,,,,,,,,,a,Correct!,,,,,,t4.png,t5.png,1,0.90025,19,female,2020-08-24_16h59.37.462,torte-2b,2020.1.3,Win32,60,13214,0.603305,,,,,,,,,,,,,,,,,,,,,,,,,,,,,,,,,,,,,0,91,91,33,1,,,,,,,,,,,,,,,,,,,,,,,,
,,,,,,,,,,,,l,Correct!,,,,,,t4.png,t1.png,3,0.059078,19,female,2020-08-24_16h59.37.462,torte-2b,2020.1.3,Win32,60,13214,0.825225,,,,,,,,,,,,,,,,,,,,,,,,,,,,,,,,,,,,,0,92,92,57,1,,,,,,,,,,,,,,,,,,,,,,,,
,,,,,,,,,,,,a,Incorrect,,,,,,t5.png,t3.png,2,0.056466,19,female,2020-08-24_16h59.37.462,torte-2b,2020.1.3,Win32,60,13214,0.95968,,,,,,,,,,,,,,,,,,,,,,,,,,,,,,,,,,,,,0,93,93,80,1,,,,,,,,,,,,,,,,,,,,,,,,
,,,,,,,,,,,,l,Correct!,,,,,,t4.png,t1.png,3,0.059078,19,female,2020-08-24_16h59.37.462,torte-2b,2020.1.3,Win32,60,13214,0.60261,,,,,,,,,,,,,,,,,,,,,,,,,,,,,,,,,,,,,0,94,94,87,1,,,,,,,,,,,,,,,,,,,,,,,,
,,,,,,,,,,,,a,Incorrect,,,,,,t2.png,t5.png,3,0.0000131,19,female,2020-08-24_16h59.37.462,torte-2b,2020.1.3,Win32,60,13214,0.81777,,,,,,,,,,,,,,,,,,,,,,,,,,,,,,,,,,,,,0,95,95,115,1,,,,,,,,,,,,,,,,,,,,,,,,
,,,,,,,,,,,,l,Correct!,,,,,,t2.png,t4.png,2,0.059078,19,female,2020-08-24_16h59.37.462,torte-2b,2020.1.3,Win32,60,13214,1.03436,,,,,,,,,,,,,,,,,,,,,,,,,,,,,,,,,,,,,0,96,96,67,1,,,,,,,,,,,,,,,,,,,,,,,,
,,,,,,,,,,,,a,Correct!,,,,,,t4.png,t4.png,0,0.98115,19,female,2020-08-24_16h59.37.462,torte-2b,2020.1.3,Win32,60,13214,0.74111,,,,,,,,,,,,,,,,,,,,,,,,,,,,,,,,,,,,,0,97,97,19,1,,,,,,,,,,,,,,,,,,,,,,,,
,,,,,,,,,,,,l,Correct!,,,,,,t3.png,t1.png,2,0.0565,19,female,2020-08-24_16h59.37.462,torte-2b,2020.1.3,Win32,60,13214,1.150475,,,,,,,,,,,,,,,,,,,,,,,,,,,,,,,,,,,,,0,98,98,104,1,,,,,,,,,,,,,,,,,,,,,,,,
,,,,,,,,,,,,l,Incorrect,,,,,,t1.png,t1.png,0,0.97829,19,female,2020-08-24_16h59.37.462,torte-2b,2020.1.3,Win32,60,13214,0.617055,,,,,,,,,,,,,,,,,,,,,,,,,,,,,,,,,,,,,0,99,99,110,1,,,,,,,,,,,,,,,,,,,,,,,,
,,,,,,,,,,,,l,Correct!,,,,,,t1.png,t5.png,4,9.55E-11,19,female,2020-08-24_16h59.37.462,torte-2b,2020.1.3,Win32,60,13214,1.10082,,,,,,,,,,,,,,,,,,,,,,,,,,,,,,,,,,,,,0,100,100,20,1,,,,,,,,,,,,,,,,,,,,,,,,
,,,,,,,,,,,,a,Incorrect,,,,,,t2.png,t4.png,2,0.059078,19,female,2020-08-24_16h59.37.462,torte-2b,2020.1.3,Win32,60,13214,1.00153,,,,,,,,,,,,,,,,,,,,,,,,,,,,,,,,,,,,,0,101,101,18,1,,,,,,,,,,,,,,,,,,,,,,,,
,,,,,,,,,,,,a,Incorrect,,,,,,t3.png,t5.png,2,0.056466,19,female,2020-08-24_16h59.37.462,torte-2b,2020.1.3,Win32,60,13214,1.95288,,,,,,,,,,,,,,,,,,,,,,,,,,,,,,,,,,,,,0,102,102,45,1,,,,,,,,,,,,,,,,,,,,,,,,
,,,,,,,,,,,,l,Correct!,,,,,,t4.png,t1.png,3,0.0000131,19,female,2020-08-24_16h59.37.462,torte-2b,2020.1.3,Win32,60,13214,1.5538,,,,,,,,,,,,,,,,,,,,,,,,,,,,,,,,,,,,,0,103,103,49,1,,,,,,,,,,,,,,,,,,,,,,,,
,,,,,,,,,,,,a,Correct!,,,,,,t1.png,t1.png,0,0.978,19,female,2020-08-24_16h59.37.462,torte-2b,2020.1.3,Win32,60,13214,0.834945,,,,,,,,,,,,,,,,,,,,,,,,,,,,,,,,,,,,,0,104,104,22,1,,,,,,,,,,,,,,,,,,,,,,,,
,,,,,,,,,,,,a,Correct!,,,,,,t2.png,t2.png,0,0.98115,19,female,2020-08-24_16h59.37.462,torte-2b,2020.1.3,Win32,60,13214,0.956875,,,,,,,,,,,,,,,,,,,,,,,,,,,,,,,,,,,,,0,105,105,69,1,,,,,,,,,,,,,,,,,,,,,,,,
,,,,,,,,,,,,a,Correct!,,,,,,t1.png,t2.png,1,0.9,19,female,2020-08-24_16h59.37.462,torte-2b,2020.1.3,Win32,60,13214,1.678125,,,,,,,,,,,,,,,,,,,,,,,,,,,,,,,,,,,,,0,106,106,61,1,,,,,,,,,,,,,,,,,,,,,,,,
,,,,,,,,,,,,a,Incorrect,,,,,,t3.png,t4.png,1,0.90855,19,female,2020-08-24_16h59.37.462,torte-2b,2020.1.3,Win32,60,13214,0.752605,,,,,,,,,,,,,,,,,,,,,,,,,,,,,,,,,,,,,0,107,107,111,1,,,,,,,,,,,,,,,,,,,,,,,,
,,,,,,,,,,,,l,Correct!,,,,,,t4.png,t1.png,3,0.059078,19,female,2020-08-24_16h59.37.462,torte-2b,2020.1.3,Win32,60,13214,0.8516,,,,,,,,,,,,,,,,,,,,,,,,,,,,,,,,,,,,,0,108,108,73,1,,,,,,,,,,,,,,,,,,,,,,,,
,,,,,,,,,,,,a,Incorrect,,,,,,t2.png,t5.png,3,0.0000131,19,female,2020-08-24_16h59.37.462,torte-2b,2020.1.3,Win32,60,13214,1.1346,,,,,,,,,,,,,,,,,,,,,,,,,,,,,,,,,,,,,0,109,109,85,1,,,,,,,,,,,,,,,,,,,,,,,,
,,,,,,,,,,,,a,Correct!,,,,,,t5.png,t5.png,0,0.97829,19,female,2020-08-24_16h59.37.462,torte-2b,2020.1.3,Win32,60,13214,0.667615,,,,,,,,,,,,,,,,,,,,,,,,,,,,,,,,,,,,,0,110,110,2,1,,,,,,,,,,,,,,,,,,,,,,,,
,,,,,,,,,,,,a,Correct!,,,,,,t3.png,t4.png,1,0.90855,19,female,2020-08-24_16h59.37.462,torte-2b,2020.1.3,Win32,60,13214,1.152985,,,,,,,,,,,,,,,,,,,,,,,,,,,,,,,,,,,,,0,111,111,103,1,,,,,,,,,,,,,,,,,,,,,,,,
,,,,,,,,,,,,l,Correct!,,,,,,t5.png,t1.png,4,9.55E-11,19,female,2020-08-24_16h59.37.462,torte-2b,2020.1.3,Win32,60,13214,0.63464,,,,,,,,,,,,,,,,,,,,,,,,,,,,,,,,,,,,,0,112,112,31,1,,,,,,,,,,,,,,,,,,,,,,,,
,,,,,,,,,,,,a,Correct!,,,,,,t2.png,t2.png,0,0.98115,19,female,2020-08-24_16h59.37.462,torte-2b,2020.1.3,Win32,60,13214,0.851125,,,,,,,,,,,,,,,,,,,,,,,,,,,,,,,,,,,,,0,113,113,90,1,,,,,,,,,,,,,,,,,,,,,,,,
,,,,,,,,,,,,l,Correct!,,,,,,t1.png,t5.png,4,9.55E-11,19,female,2020-08-24_16h59.37.462,torte-2b,2020.1.3,Win32,60,13214,1.128185,,,,,,,,,,,,,,,,,,,,,,,,,,,,,,,,,,,,,0,114,114,30,1,,,,,,,,,,,,,,,,,,,,,,,,
,,,,,,,,,,,,l,Correct!,,,,,,t3.png,t1.png,2,0.0565,19,female,2020-08-24_16h59.37.462,torte-2b,2020.1.3,Win32,60,13214,1.46816,,,,,,,,,,,,,,,,,,,,,,,,,,,,,,,,,,,,,0,115,115,40,1,,,,,,,,,,,,,,,,,,,,,,,,
,,,,,,,,,,,,l,Correct!,,,,,,t5.png,t1.png,4,9.55E-11,19,female,2020-08-24_16h59.37.462,torte-2b,2020.1.3,Win32,60,13214,1.14054,,,,,,,,,,,,,,,,,,,,,,,,,,,,,,,,,,,,,0,116,116,89,1,,,,,,,,,,,,,,,,,,,,,,,,
,,,,,,,,,,,,a,Correct!,,,,,,t5.png,t5.png,0,0.97829,19,female,2020-08-24_16h59.37.462,torte-2b,2020.1.3,Win32,60,13214,0.588835,,,,,,,,,,,,,,,,,,,,,,,,,,,,,,,,,,,,,0,117,117,77,1,,,,,,,,,,,,,,,,,,,,,,,,
,,,,,,,,,,,,l,Incorrect,,,,,,t3.png,t2.png,1,0.90855,19,female,2020-08-24_16h59.37.462,torte-2b,2020.1.3,Win32,60,13214,0.767515,,,,,,,,,,,,,,,,,,,,,,,,,,,,,,,,,,,,,0,118,118,94,1,,,,,,,,,,,,,,,,,,,,,,,,
,,,,,,,,,,,,a,Incorrect,,,,,,t5.png,t3.png,2,0.056466,19,female,2020-08-24_16h59.37.462,torte-2b,2020.1.3,Win32,60,13214,0.717345,,,,,,,,,,,,,,,,,,,,,,,,,,,,,,,,,,,,,0,119,119,37,1,,,,,,,,,,,,,,,,,,,,,,,,
,,,,,,,,,,,,,,,,,,,,,,,19,female,2020-08-24_16h59.37.462,torte-2b,2020.1.3,Win32,60,13214,,space,1.600455,,,,,,,,,,,,,,,,,,,,,,,,,,,,,,,,,,,,,,,,35.5,9,1,0,0,s4,19.5,88,1,0,0,t1,202,-98.5,1,0,0,proceed,return,7.661335,return,0.77782,return,0.322105
