key_resp_8.keys,key_resp_8.rt,key_resp_9.keys,key_resp_9.rt,key_resp_10.keys,key_resp_10.rt,key_resp_11.keys,key_resp_11.rt,key_resp_2.keys,key_resp_2.rt,key_resp_3.keys,key_resp_3.rt,key_resp.keys,Feedback,train.thisRepN,train.thisTrialN,train.thisN,train.thisIndex,train.ran,torta_sx,torta_dx,difference,probability,age,gender,date,expName,psychopyVersion,OS,frameRate,participant,key_resp.rt,key_resp_15.keys,key_resp_15.rt,key_resp_6.keys,key_resp_6.rt,test1.thisRepN,test1.thisTrialN,test1.thisN,test1.thisIndex,test1.ran,key_resp_4.keys,key_resp_4.rt,key_resp_5.keys,back1.thisRepN,back1.thisTrialN,back1.thisN,back1.thisIndex,back1.ran,letter,key_resp_5.rt,back2.thisRepN,back2.thisTrialN,back2.thisN,back2.thisIndex,back2.ran,back3.thisRepN,back3.thisTrialN,back3.thisN,back3.thisIndex,back3.ran,back4.thisRepN,back4.thisTrialN,back4.thisN,back4.thisIndex,back4.ran,key_resp_7.keys,key_resp_7.rt,test2.thisRepN,test2.thisTrialN,test2.thisN,test2.thisIndex,test2.ran,mouse.x,mouse.y,mouse.leftButton,mouse.midButton,mouse.rightButton,mouse.clicked_name,mouse_2.x,mouse_2.y,mouse_2.leftButton,mouse_2.midButton,mouse_2.rightButton,mouse_2.clicked_name,mouse_3.x,mouse_3.y,mouse_3.leftButton,mouse_3.midButton,mouse_3.rightButton,mouse_3.clicked_name,key_resp_12.keys,key_resp_12.rt,key_resp_13.keys,key_resp_13.rt,key_resp_14.keys,key_resp_14.rt
space,1.275,space,0.551,space,1.166,space,3.816,space,23.567,space,62.613,,Too slow :(,0,0,0,67,1,t3.png,t2.png,1,0.90855,19,female,2020-08-20_14h01.06.321,torte-2b,2020.1.3,MacIntel,60,13225,,,,,,,,,,,,,,,,,,,,,,,,,,,,,,,,,,,,,,,,,,,,,,,,,,,,,,,,,,,,,,,,,,
,,,,,,,,,,,,l,Correct!,0,1,1,63,1,t1.png,t5.png,4,9.55E-11,19,female,2020-08-20_14h01.06.321,torte-2b,2020.1.3,MacIntel,60,13225,0.891,,,,,,,,,,,,,,,,,,,,,,,,,,,,,,,,,,,,,,,,,,,,,,,,,,,,,,,,,,,,,,,,,
,,,,,,,,,,,,a,Incorrect,0,2,2,92,1,t5.png,t1.png,4,9.55E-11,19,female,2020-08-20_14h01.06.321,torte-2b,2020.1.3,MacIntel,60,13225,0.669,,,,,,,,,,,,,,,,,,,,,,,,,,,,,,,,,,,,,,,,,,,,,,,,,,,,,,,,,,,,,,,,,
,,,,,,,,,,,,a,Incorrect,0,3,3,10,1,t4.png,t1.png,3,0.059078,19,female,2020-08-20_14h01.06.321,torte-2b,2020.1.3,MacIntel,60,13225,0.767,,,,,,,,,,,,,,,,,,,,,,,,,,,,,,,,,,,,,,,,,,,,,,,,,,,,,,,,,,,,,,,,,
,,,,,,,,,,,,a,Correct!,0,4,4,65,1,t5.png,t5.png,0,0.97829,19,female,2020-08-20_14h01.06.321,torte-2b,2020.1.3,MacIntel,60,13225,0.868,,,,,,,,,,,,,,,,,,,,,,,,,,,,,,,,,,,,,,,,,,,,,,,,,,,,,,,,,,,,,,,,,
,,,,,,,,,,,,l,Correct!,0,5,5,39,1,t2.png,t4.png,2,0.059078,19,female,2020-08-20_14h01.06.321,torte-2b,2020.1.3,MacIntel,60,13225,0.687,,,,,,,,,,,,,,,,,,,,,,,,,,,,,,,,,,,,,,,,,,,,,,,,,,,,,,,,,,,,,,,,,
,,,,,,,,,,,,l,Incorrect,0,6,6,22,1,t5.png,t5.png,0,0.97829,19,female,2020-08-20_14h01.06.321,torte-2b,2020.1.3,MacIntel,60,13225,1.454,,,,,,,,,,,,,,,,,,,,,,,,,,,,,,,,,,,,,,,,,,,,,,,,,,,,,,,,,,,,,,,,,
,,,,,,,,,,,,a,Correct!,0,7,7,53,1,t1.png,t1.png,0,0.97829,19,female,2020-08-20_14h01.06.321,torte-2b,2020.1.3,MacIntel,60,13225,1.023,,,,,,,,,,,,,,,,,,,,,,,,,,,,,,,,,,,,,,,,,,,,,,,,,,,,,,,,,,,,,,,,,
,,,,,,,,,,,,a,Incorrect,0,8,8,6,1,t5.png,t1.png,4,9.55E-11,19,female,2020-08-20_14h01.06.321,torte-2b,2020.1.3,MacIntel,60,13225,0.692,,,,,,,,,,,,,,,,,,,,,,,,,,,,,,,,,,,,,,,,,,,,,,,,,,,,,,,,,,,,,,,,,
,,,,,,,,,,,,l,Incorrect,0,9,9,104,1,t4.png,t5.png,1,0.90025,19,female,2020-08-20_14h01.06.321,torte-2b,2020.1.3,MacIntel,60,13225,1.02,,,,,,,,,,,,,,,,,,,,,,,,,,,,,,,,,,,,,,,,,,,,,,,,,,,,,,,,,,,,,,,,,
,,,,,,,,,,,,a,Correct!,0,10,10,4,1,t3.png,t2.png,1,0.90855,19,female,2020-08-20_14h01.06.321,torte-2b,2020.1.3,MacIntel,60,13225,0.739,,,,,,,,,,,,,,,,,,,,,,,,,,,,,,,,,,,,,,,,,,,,,,,,,,,,,,,,,,,,,,,,,
,,,,,,,,,,,,a,Incorrect,0,11,11,80,1,t4.png,t1.png,3,0.059078,19,female,2020-08-20_14h01.06.321,torte-2b,2020.1.3,MacIntel,60,13225,0.621,,,,,,,,,,,,,,,,,,,,,,,,,,,,,,,,,,,,,,,,,,,,,,,,,,,,,,,,,,,,,,,,,
,,,,,,,,,,,,l,Correct!,0,12,12,59,1,t5.png,t1.png,4,9.55E-11,19,female,2020-08-20_14h01.06.321,torte-2b,2020.1.3,MacIntel,60,13225,1.259,,,,,,,,,,,,,,,,,,,,,,,,,,,,,,,,,,,,,,,,,,,,,,,,,,,,,,,,,,,,,,,,,
,,,,,,,,,,,,a,Incorrect,0,13,13,57,1,t3.png,t1.png,2,0.056466,19,female,2020-08-20_14h01.06.321,torte-2b,2020.1.3,MacIntel,60,13225,1.507,,,,,,,,,,,,,,,,,,,,,,,,,,,,,,,,,,,,,,,,,,,,,,,,,,,,,,,,,,,,,,,,,
,,,,,,,,,,,,l,Correct!,0,14,14,89,1,t1.png,t5.png,4,9.55E-11,19,female,2020-08-20_14h01.06.321,torte-2b,2020.1.3,MacIntel,60,13225,0.859,,,,,,,,,,,,,,,,,,,,,,,,,,,,,,,,,,,,,,,,,,,,,,,,,,,,,,,,,,,,,,,,,
,,,,,,,,,,,,l,Incorrect,0,15,15,88,1,t1.png,t1.png,0,0.97829,19,female,2020-08-20_14h01.06.321,torte-2b,2020.1.3,MacIntel,60,13225,2.224,,,,,,,,,,,,,,,,,,,,,,,,,,,,,,,,,,,,,,,,,,,,,,,,,,,,,,,,,,,,,,,,,
,,,,,,,,,,,,a,Incorrect,0,16,16,94,1,t3.png,t1.png,2,0.056466,19,female,2020-08-20_14h01.06.321,torte-2b,2020.1.3,MacIntel,60,13225,0.677,,,,,,,,,,,,,,,,,,,,,,,,,,,,,,,,,,,,,,,,,,,,,,,,,,,,,,,,,,,,,,,,,
,,,,,,,,,,,,a,Correct!,0,17,17,61,1,t1.png,t1.png,0,0.97829,19,female,2020-08-20_14h01.06.321,torte-2b,2020.1.3,MacIntel,60,13225,1.592,,,,,,,,,,,,,,,,,,,,,,,,,,,,,,,,,,,,,,,,,,,,,,,,,,,,,,,,,,,,,,,,,
,,,,,,,,,,,,l,Incorrect,0,18,18,7,1,t3.png,t2.png,1,0.90855,19,female,2020-08-20_14h01.06.321,torte-2b,2020.1.3,MacIntel,60,13225,1.011,,,,,,,,,,,,,,,,,,,,,,,,,,,,,,,,,,,,,,,,,,,,,,,,,,,,,,,,,,,,,,,,,
,,,,,,,,,,,,a,Correct!,0,19,19,114,1,t5.png,t4.png,1,0.90025,19,female,2020-08-20_14h01.06.321,torte-2b,2020.1.3,MacIntel,60,13225,0.655,,,,,,,,,,,,,,,,,,,,,,,,,,,,,,,,,,,,,,,,,,,,,,,,,,,,,,,,,,,,,,,,,
,,,,,,,,,,,,l,Incorrect,0,20,20,84,1,t2.png,t3.png,1,0.90855,19,female,2020-08-20_14h01.06.321,torte-2b,2020.1.3,MacIntel,60,13225,0.855,,,,,,,,,,,,,,,,,,,,,,,,,,,,,,,,,,,,,,,,,,,,,,,,,,,,,,,,,,,,,,,,,
,,,,,,,,,,,,a,Incorrect,0,21,21,64,1,t5.png,t1.png,4,9.55E-11,19,female,2020-08-20_14h01.06.321,torte-2b,2020.1.3,MacIntel,60,13225,0.525,,,,,,,,,,,,,,,,,,,,,,,,,,,,,,,,,,,,,,,,,,,,,,,,,,,,,,,,,,,,,,,,,
,,,,,,,,,,,,a,Incorrect,0,22,22,28,1,t1.png,t4.png,3,0.0000131,19,female,2020-08-20_14h01.06.321,torte-2b,2020.1.3,MacIntel,60,13225,1.713,,,,,,,,,,,,,,,,,,,,,,,,,,,,,,,,,,,,,,,,,,,,,,,,,,,,,,,,,,,,,,,,,
,,,,,,,,,,,,l,Correct!,0,23,23,51,1,t4.png,t1.png,3,0.059078,19,female,2020-08-20_14h01.06.321,torte-2b,2020.1.3,MacIntel,60,13225,2.252,,,,,,,,,,,,,,,,,,,,,,,,,,,,,,,,,,,,,,,,,,,,,,,,,,,,,,,,,,,,,,,,,
,,,,,,,,,,,,l,Correct!,0,24,24,70,1,t1.png,t5.png,4,9.55E-11,19,female,2020-08-20_14h01.06.321,torte-2b,2020.1.3,MacIntel,60,13225,0.744,,,,,,,,,,,,,,,,,,,,,,,,,,,,,,,,,,,,,,,,,,,,,,,,,,,,,,,,,,,,,,,,,
,,,,,,,,,,,,a,Correct!,0,25,25,5,1,t5.png,t5.png,0,0.97829,19,female,2020-08-20_14h01.06.321,torte-2b,2020.1.3,MacIntel,60,13225,1.03,,,,,,,,,,,,,,,,,,,,,,,,,,,,,,,,,,,,,,,,,,,,,,,,,,,,,,,,,,,,,,,,,
,,,,,,,,,,,,l,Incorrect,0,26,26,47,1,t2.png,t3.png,1,0.90855,19,female,2020-08-20_14h01.06.321,torte-2b,2020.1.3,MacIntel,60,13225,1.078,,,,,,,,,,,,,,,,,,,,,,,,,,,,,,,,,,,,,,,,,,,,,,,,,,,,,,,,,,,,,,,,,
,,,,,,,,,,,,a,Incorrect,0,27,27,113,1,t5.png,t1.png,4,9.55E-11,19,female,2020-08-20_14h01.06.321,torte-2b,2020.1.3,MacIntel,60,13225,0.945,,,,,,,,,,,,,,,,,,,,,,,,,,,,,,,,,,,,,,,,,,,,,,,,,,,,,,,,,,,,,,,,,
,,,,,,,,,,,,l,Incorrect,0,28,28,23,1,t4.png,t5.png,1,0.90025,19,female,2020-08-20_14h01.06.321,torte-2b,2020.1.3,MacIntel,60,13225,0.443,,,,,,,,,,,,,,,,,,,,,,,,,,,,,,,,,,,,,,,,,,,,,,,,,,,,,,,,,,,,,,,,,
,,,,,,,,,,,,l,Correct!,0,29,29,19,1,t2.png,t4.png,2,0.059078,19,female,2020-08-20_14h01.06.321,torte-2b,2020.1.3,MacIntel,60,13225,1.051,,,,,,,,,,,,,,,,,,,,,,,,,,,,,,,,,,,,,,,,,,,,,,,,,,,,,,,,,,,,,,,,,
,,,,,,,,,,,,a,Incorrect,0,30,30,3,1,t4.png,t1.png,3,0.059078,19,female,2020-08-20_14h01.06.321,torte-2b,2020.1.3,MacIntel,60,13225,1.64,,,,,,,,,,,,,,,,,,,,,,,,,,,,,,,,,,,,,,,,,,,,,,,,,,,,,,,,,,,,,,,,,
,,,,,,,,,,,,l,Incorrect,0,31,31,85,1,t5.png,t4.png,1,0.90025,19,female,2020-08-20_14h01.06.321,torte-2b,2020.1.3,MacIntel,60,13225,0.856,,,,,,,,,,,,,,,,,,,,,,,,,,,,,,,,,,,,,,,,,,,,,,,,,,,,,,,,,,,,,,,,,
,,,,,,,,,,,,a,Incorrect,0,32,32,115,1,t2.png,t4.png,2,0.059078,19,female,2020-08-20_14h01.06.321,torte-2b,2020.1.3,MacIntel,60,13225,0.878,,,,,,,,,,,,,,,,,,,,,,,,,,,,,,,,,,,,,,,,,,,,,,,,,,,,,,,,,,,,,,,,,
,,,,,,,,,,,,,Too slow :(,0,33,33,32,1,t3.png,t2.png,1,0.90855,19,female,2020-08-20_14h01.06.321,torte-2b,2020.1.3,MacIntel,60,13225,,,,,,,,,,,,,,,,,,,,,,,,,,,,,,,,,,,,,,,,,,,,,,,,,,,,,,,,,,,,,,,,,,
,,,,,,,,,,,,a,Correct!,0,34,34,116,1,t4.png,t5.png,1,0.90025,19,female,2020-08-20_14h01.06.321,torte-2b,2020.1.3,MacIntel,60,13225,2.099,,,,,,,,,,,,,,,,,,,,,,,,,,,,,,,,,,,,,,,,,,,,,,,,,,,,,,,,,,,,,,,,,
,,,,,,,,,,,,l,Correct!,0,35,35,1,1,t3.png,t1.png,2,0.056466,19,female,2020-08-20_14h01.06.321,torte-2b,2020.1.3,MacIntel,60,13225,1.021,,,,,,,,,,,,,,,,,,,,,,,,,,,,,,,,,,,,,,,,,,,,,,,,,,,,,,,,,,,,,,,,,
,,,,,,,,,,,,l,Correct!,0,36,36,40,1,t2.png,t4.png,2,0.059078,19,female,2020-08-20_14h01.06.321,torte-2b,2020.1.3,MacIntel,60,13225,2.325,,,,,,,,,,,,,,,,,,,,,,,,,,,,,,,,,,,,,,,,,,,,,,,,,,,,,,,,,,,,,,,,,
,,,,,,,,,,,,l,Correct!,0,37,37,76,1,t4.png,t1.png,3,0.059078,19,female,2020-08-20_14h01.06.321,torte-2b,2020.1.3,MacIntel,60,13225,1.289,,,,,,,,,,,,,,,,,,,,,,,,,,,,,,,,,,,,,,,,,,,,,,,,,,,,,,,,,,,,,,,,,
,,,,,,,,,,,,,Too slow :(,0,38,38,16,1,t1.png,t5.png,4,9.55E-11,19,female,2020-08-20_14h01.06.321,torte-2b,2020.1.3,MacIntel,60,13225,,,,,,,,,,,,,,,,,,,,,,,,,,,,,,,,,,,,,,,,,,,,,,,,,,,,,,,,,,,,,,,,,,
,,,,,,,,,,,,l,Correct!,0,39,39,62,1,t1.png,t4.png,3,0.0000131,19,female,2020-08-20_14h01.06.321,torte-2b,2020.1.3,MacIntel,60,13225,1.157,,,,,,,,,,,,,,,,,,,,,,,,,,,,,,,,,,,,,,,,,,,,,,,,,,,,,,,,,,,,,,,,,
,,,,,,,,,,,,l,Correct!,0,40,40,117,1,t2.png,t4.png,2,0.059078,19,female,2020-08-20_14h01.06.321,torte-2b,2020.1.3,MacIntel,60,13225,1.275,,,,,,,,,,,,,,,,,,,,,,,,,,,,,,,,,,,,,,,,,,,,,,,,,,,,,,,,,,,,,,,,,
,,,,,,,,,,,,l,Correct!,0,41,41,87,1,t5.png,t1.png,4,9.55E-11,19,female,2020-08-20_14h01.06.321,torte-2b,2020.1.3,MacIntel,60,13225,1.198,,,,,,,,,,,,,,,,,,,,,,,,,,,,,,,,,,,,,,,,,,,,,,,,,,,,,,,,,,,,,,,,,
,,,,,,,,,,,,a,Correct!,0,42,42,109,1,t5.png,t5.png,0,0.97829,19,female,2020-08-20_14h01.06.321,torte-2b,2020.1.3,MacIntel,60,13225,1.376,,,,,,,,,,,,,,,,,,,,,,,,,,,,,,,,,,,,,,,,,,,,,,,,,,,,,,,,,,,,,,,,,
,,,,,,,,,,,,l,Correct!,0,43,43,75,1,t2.png,t3.png,1,0.90855,19,female,2020-08-20_14h01.06.321,torte-2b,2020.1.3,MacIntel,60,13225,1.178,,,,,,,,,,,,,,,,,,,,,,,,,,,,,,,,,,,,,,,,,,,,,,,,,,,,,,,,,,,,,,,,,
,,,,,,,,,,,,a,Correct!,0,44,44,12,1,t5.png,t5.png,0,0.97829,19,female,2020-08-20_14h01.06.321,torte-2b,2020.1.3,MacIntel,60,13225,0.868,,,,,,,,,,,,,,,,,,,,,,,,,,,,,,,,,,,,,,,,,,,,,,,,,,,,,,,,,,,,,,,,,
,,,,,,,,,,,,l,Correct!,0,45,45,36,1,t1.png,t4.png,3,0.0000131,19,female,2020-08-20_14h01.06.321,torte-2b,2020.1.3,MacIntel,60,13225,1.581,,,,,,,,,,,,,,,,,,,,,,,,,,,,,,,,,,,,,,,,,,,,,,,,,,,,,,,,,,,,,,,,,
,,,,,,,,,,,,a,Correct!,0,46,46,69,1,t5.png,t4.png,1,0.90025,19,female,2020-08-20_14h01.06.321,torte-2b,2020.1.3,MacIntel,60,13225,1.073,,,,,,,,,,,,,,,,,,,,,,,,,,,,,,,,,,,,,,,,,,,,,,,,,,,,,,,,,,,,,,,,,
,,,,,,,,,,,,a,Correct!,0,47,47,8,1,t5.png,t5.png,0,0.97829,19,female,2020-08-20_14h01.06.321,torte-2b,2020.1.3,MacIntel,60,13225,0.906,,,,,,,,,,,,,,,,,,,,,,,,,,,,,,,,,,,,,,,,,,,,,,,,,,,,,,,,,,,,,,,,,
,,,,,,,,,,,,l,Correct!,0,48,48,105,1,t4.png,t1.png,3,0.059078,19,female,2020-08-20_14h01.06.321,torte-2b,2020.1.3,MacIntel,60,13225,0.746,,,,,,,,,,,,,,,,,,,,,,,,,,,,,,,,,,,,,,,,,,,,,,,,,,,,,,,,,,,,,,,,,
,,,,,,,,,,,,l,Correct!,0,49,49,27,1,t1.png,t5.png,4,9.55E-11,19,female,2020-08-20_14h01.06.321,torte-2b,2020.1.3,MacIntel,60,13225,0.818,,,,,,,,,,,,,,,,,,,,,,,,,,,,,,,,,,,,,,,,,,,,,,,,,,,,,,,,,,,,,,,,,
,,,,,,,,,,,,l,Incorrect,0,50,50,48,1,t2.png,t3.png,1,0.90855,19,female,2020-08-20_14h01.06.321,torte-2b,2020.1.3,MacIntel,60,13225,1.83,,,,,,,,,,,,,,,,,,,,,,,,,,,,,,,,,,,,,,,,,,,,,,,,,,,,,,,,,,,,,,,,,
,,,,,,,,,,,,l,Correct!,0,51,51,103,1,t4.png,t1.png,3,0.059078,19,female,2020-08-20_14h01.06.321,torte-2b,2020.1.3,MacIntel,60,13225,2.456,,,,,,,,,,,,,,,,,,,,,,,,,,,,,,,,,,,,,,,,,,,,,,,,,,,,,,,,,,,,,,,,,
,,,,,,,,,,,,a,Correct!,0,52,52,58,1,t4.png,t5.png,1,0.90025,19,female,2020-08-20_14h01.06.321,torte-2b,2020.1.3,MacIntel,60,13225,1.135,,,,,,,,,,,,,,,,,,,,,,,,,,,,,,,,,,,,,,,,,,,,,,,,,,,,,,,,,,,,,,,,,
,,,,,,,,,,,,l,Correct!,0,53,53,13,1,t2.png,t4.png,2,0.059078,19,female,2020-08-20_14h01.06.321,torte-2b,2020.1.3,MacIntel,60,13225,1.72,,,,,,,,,,,,,,,,,,,,,,,,,,,,,,,,,,,,,,,,,,,,,,,,,,,,,,,,,,,,,,,,,
,,,,,,,,,,,,a,Correct!,0,54,54,20,1,t5.png,t5.png,0,0.97829,19,female,2020-08-20_14h01.06.321,torte-2b,2020.1.3,MacIntel,60,13225,0.826,,,,,,,,,,,,,,,,,,,,,,,,,,,,,,,,,,,,,,,,,,,,,,,,,,,,,,,,,,,,,,,,,
,,,,,,,,,,,,l,Correct!,0,55,55,44,1,t1.png,t4.png,3,0.0000131,19,female,2020-08-20_14h01.06.321,torte-2b,2020.1.3,MacIntel,60,13225,1.207,,,,,,,,,,,,,,,,,,,,,,,,,,,,,,,,,,,,,,,,,,,,,,,,,,,,,,,,,,,,,,,,,
,,,,,,,,,,,,l,Correct!,0,56,56,43,1,t3.png,t1.png,2,0.056466,19,female,2020-08-20_14h01.06.321,torte-2b,2020.1.3,MacIntel,60,13225,1.03,,,,,,,,,,,,,,,,,,,,,,,,,,,,,,,,,,,,,,,,,,,,,,,,,,,,,,,,,,,,,,,,,
,,,,,,,,,,,,a,Correct!,0,57,57,45,1,t4.png,t5.png,1,0.90025,19,female,2020-08-20_14h01.06.321,torte-2b,2020.1.3,MacIntel,60,13225,1.549,,,,,,,,,,,,,,,,,,,,,,,,,,,,,,,,,,,,,,,,,,,,,,,,,,,,,,,,,,,,,,,,,
,,,,,,,,,,,,l,Correct!,0,58,58,95,1,t1.png,t4.png,3,0.0000131,19,female,2020-08-20_14h01.06.321,torte-2b,2020.1.3,MacIntel,60,13225,0.828,,,,,,,,,,,,,,,,,,,,,,,,,,,,,,,,,,,,,,,,,,,,,,,,,,,,,,,,,,,,,,,,,
,,,,,,,,,,,,l,Correct!,0,59,59,82,1,t3.png,t1.png,2,0.056466,19,female,2020-08-20_14h01.06.321,torte-2b,2020.1.3,MacIntel,60,13225,1.555,,,,,,,,,,,,,,,,,,,,,,,,,,,,,,,,,,,,,,,,,,,,,,,,,,,,,,,,,,,,,,,,,
,,,,,,,,,,,,l,Correct!,0,60,60,68,1,t2.png,t4.png,2,0.059078,19,female,2020-08-20_14h01.06.321,torte-2b,2020.1.3,MacIntel,60,13225,0.913,,,,,,,,,,,,,,,,,,,,,,,,,,,,,,,,,,,,,,,,,,,,,,,,,,,,,,,,,,,,,,,,,
,,,,,,,,,,,,a,Correct!,0,61,61,101,1,t5.png,t4.png,1,0.90025,19,female,2020-08-20_14h01.06.321,torte-2b,2020.1.3,MacIntel,60,13225,0.817,,,,,,,,,,,,,,,,,,,,,,,,,,,,,,,,,,,,,,,,,,,,,,,,,,,,,,,,,,,,,,,,,
,,,,,,,,,,,,l,Incorrect,0,62,62,46,1,t1.png,t1.png,0,0.97829,19,female,2020-08-20_14h01.06.321,torte-2b,2020.1.3,MacIntel,60,13225,1.168,,,,,,,,,,,,,,,,,,,,,,,,,,,,,,,,,,,,,,,,,,,,,,,,,,,,,,,,,,,,,,,,,
,,,,,,,,,,,,l,Correct!,0,63,63,37,1,t2.png,t4.png,2,0.059078,19,female,2020-08-20_14h01.06.321,torte-2b,2020.1.3,MacIntel,60,13225,1.779,,,,,,,,,,,,,,,,,,,,,,,,,,,,,,,,,,,,,,,,,,,,,,,,,,,,,,,,,,,,,,,,,
,,,,,,,,,,,,l,Correct!,0,64,64,96,1,t2.png,t4.png,2,0.059078,19,female,2020-08-20_14h01.06.321,torte-2b,2020.1.3,MacIntel,60,13225,1.414,,,,,,,,,,,,,,,,,,,,,,,,,,,,,,,,,,,,,,,,,,,,,,,,,,,,,,,,,,,,,,,,,
,,,,,,,,,,,,l,Incorrect,0,65,65,33,1,t3.png,t2.png,1,0.90855,19,female,2020-08-20_14h01.06.321,torte-2b,2020.1.3,MacIntel,60,13225,1.463,,,,,,,,,,,,,,,,,,,,,,,,,,,,,,,,,,,,,,,,,,,,,,,,,,,,,,,,,,,,,,,,,
,,,,,,,,,,,,l,Correct!,0,66,66,50,1,t1.png,t5.png,4,9.55E-11,19,female,2020-08-20_14h01.06.321,torte-2b,2020.1.3,MacIntel,60,13225,1.055,,,,,,,,,,,,,,,,,,,,,,,,,,,,,,,,,,,,,,,,,,,,,,,,,,,,,,,,,,,,,,,,,
,,,,,,,,,,,,l,Incorrect,0,67,67,29,1,t3.png,t2.png,1,0.90855,19,female,2020-08-20_14h01.06.321,torte-2b,2020.1.3,MacIntel,60,13225,1.364,,,,,,,,,,,,,,,,,,,,,,,,,,,,,,,,,,,,,,,,,,,,,,,,,,,,,,,,,,,,,,,,,
,,,,,,,,,,,,l,Correct!,0,68,68,74,1,t5.png,t1.png,4,9.55E-11,19,female,2020-08-20_14h01.06.321,torte-2b,2020.1.3,MacIntel,60,13225,1.026,,,,,,,,,,,,,,,,,,,,,,,,,,,,,,,,,,,,,,,,,,,,,,,,,,,,,,,,,,,,,,,,,
,,,,,,,,,,,,l,Correct!,0,69,69,54,1,t3.png,t1.png,2,0.056466,19,female,2020-08-20_14h01.06.321,torte-2b,2020.1.3,MacIntel,60,13225,1.731,,,,,,,,,,,,,,,,,,,,,,,,,,,,,,,,,,,,,,,,,,,,,,,,,,,,,,,,,,,,,,,,,
,,,,,,,,,,,,l,Correct!,0,70,70,66,1,t5.png,t1.png,4,9.55E-11,19,female,2020-08-20_14h01.06.321,torte-2b,2020.1.3,MacIntel,60,13225,0.795,,,,,,,,,,,,,,,,,,,,,,,,,,,,,,,,,,,,,,,,,,,,,,,,,,,,,,,,,,,,,,,,,
,,,,,,,,,,,,l,Incorrect,0,71,71,55,1,t1.png,t1.png,0,0.97829,19,female,2020-08-20_14h01.06.321,torte-2b,2020.1.3,MacIntel,60,13225,1.211,,,,,,,,,,,,,,,,,,,,,,,,,,,,,,,,,,,,,,,,,,,,,,,,,,,,,,,,,,,,,,,,,
,,,,,,,,,,,,l,Incorrect,0,72,72,112,1,t5.png,t4.png,1,0.90025,19,female,2020-08-20_14h01.06.321,torte-2b,2020.1.3,MacIntel,60,13225,0.894,,,,,,,,,,,,,,,,,,,,,,,,,,,,,,,,,,,,,,,,,,,,,,,,,,,,,,,,,,,,,,,,,
,,,,,,,,,,,,a,Correct!,0,73,73,86,1,t5.png,t4.png,1,0.90025,19,female,2020-08-20_14h01.06.321,torte-2b,2020.1.3,MacIntel,60,13225,0.628,,,,,,,,,,,,,,,,,,,,,,,,,,,,,,,,,,,,,,,,,,,,,,,,,,,,,,,,,,,,,,,,,
,,,,,,,,,,,,l,Correct!,0,74,74,118,1,t1.png,t5.png,4,9.55E-11,19,female,2020-08-20_14h01.06.321,torte-2b,2020.1.3,MacIntel,60,13225,0.826,,,,,,,,,,,,,,,,,,,,,,,,,,,,,,,,,,,,,,,,,,,,,,,,,,,,,,,,,,,,,,,,,
,,,,,,,,,,,,l,Incorrect,0,75,75,71,1,t4.png,t5.png,1,0.90025,19,female,2020-08-20_14h01.06.321,torte-2b,2020.1.3,MacIntel,60,13225,1.474,,,,,,,,,,,,,,,,,,,,,,,,,,,,,,,,,,,,,,,,,,,,,,,,,,,,,,,,,,,,,,,,,
,,,,,,,,,,,,l,Correct!,0,76,76,35,1,t1.png,t4.png,3,0.0000131,19,female,2020-08-20_14h01.06.321,torte-2b,2020.1.3,MacIntel,60,13225,0.801,,,,,,,,,,,,,,,,,,,,,,,,,,,,,,,,,,,,,,,,,,,,,,,,,,,,,,,,,,,,,,,,,
,,,,,,,,,,,,l,Correct!,0,77,77,9,1,t1.png,t5.png,4,9.55E-11,19,female,2020-08-20_14h01.06.321,torte-2b,2020.1.3,MacIntel,60,13225,1.275,,,,,,,,,,,,,,,,,,,,,,,,,,,,,,,,,,,,,,,,,,,,,,,,,,,,,,,,,,,,,,,,,
,,,,,,,,,,,,l,Incorrect,0,78,78,77,1,t3.png,t2.png,1,0.90855,19,female,2020-08-20_14h01.06.321,torte-2b,2020.1.3,MacIntel,60,13225,0.757,,,,,,,,,,,,,,,,,,,,,,,,,,,,,,,,,,,,,,,,,,,,,,,,,,,,,,,,,,,,,,,,,
,,,,,,,,,,,,a,Correct!,0,79,79,91,1,t5.png,t4.png,1,0.90025,19,female,2020-08-20_14h01.06.321,torte-2b,2020.1.3,MacIntel,60,13225,1.173,,,,,,,,,,,,,,,,,,,,,,,,,,,,,,,,,,,,,,,,,,,,,,,,,,,,,,,,,,,,,,,,,
,,,,,,,,,,,,a,Correct!,0,80,80,24,1,t5.png,t5.png,0,0.97829,19,female,2020-08-20_14h01.06.321,torte-2b,2020.1.3,MacIntel,60,13225,0.879,,,,,,,,,,,,,,,,,,,,,,,,,,,,,,,,,,,,,,,,,,,,,,,,,,,,,,,,,,,,,,,,,
,,,,,,,,,,,,l,Correct!,0,81,81,78,1,t1.png,t4.png,3,0.0000131,19,female,2020-08-20_14h01.06.321,torte-2b,2020.1.3,MacIntel,60,13225,0.855,,,,,,,,,,,,,,,,,,,,,,,,,,,,,,,,,,,,,,,,,,,,,,,,,,,,,,,,,,,,,,,,,
,,,,,,,,,,,,a,Correct!,0,82,82,0,1,t3.png,t2.png,1,0.90855,19,female,2020-08-20_14h01.06.321,torte-2b,2020.1.3,MacIntel,60,13225,1.58,,,,,,,,,,,,,,,,,,,,,,,,,,,,,,,,,,,,,,,,,,,,,,,,,,,,,,,,,,,,,,,,,
,,,,,,,,,,,,l,Correct!,0,83,83,11,1,t1.png,t4.png,3,0.0000131,19,female,2020-08-20_14h01.06.321,torte-2b,2020.1.3,MacIntel,60,13225,0.783,,,,,,,,,,,,,,,,,,,,,,,,,,,,,,,,,,,,,,,,,,,,,,,,,,,,,,,,,,,,,,,,,
,,,,,,,,,,,,a,Correct!,0,84,84,14,1,t2.png,t3.png,1,0.90855,19,female,2020-08-20_14h01.06.321,torte-2b,2020.1.3,MacIntel,60,13225,1.669,,,,,,,,,,,,,,,,,,,,,,,,,,,,,,,,,,,,,,,,,,,,,,,,,,,,,,,,,,,,,,,,,
,,,,,,,,,,,,l,Correct!,0,85,85,26,1,t1.png,t5.png,4,9.55E-11,19,female,2020-08-20_14h01.06.321,torte-2b,2020.1.3,MacIntel,60,13225,0.968,,,,,,,,,,,,,,,,,,,,,,,,,,,,,,,,,,,,,,,,,,,,,,,,,,,,,,,,,,,,,,,,,
,,,,,,,,,,,,a,Correct!,0,86,86,25,1,t1.png,t1.png,0,0.97829,19,female,2020-08-20_14h01.06.321,torte-2b,2020.1.3,MacIntel,60,13225,0.858,,,,,,,,,,,,,,,,,,,,,,,,,,,,,,,,,,,,,,,,,,,,,,,,,,,,,,,,,,,,,,,,,
,,,,,,,,,,,,a,Incorrect,0,87,87,18,1,t2.png,t3.png,1,0.90855,19,female,2020-08-20_14h01.06.321,torte-2b,2020.1.3,MacIntel,60,13225,0.567,,,,,,,,,,,,,,,,,,,,,,,,,,,,,,,,,,,,,,,,,,,,,,,,,,,,,,,,,,,,,,,,,
,,,,,,,,,,,,l,Correct!,0,88,88,99,1,t4.png,t1.png,3,0.059078,19,female,2020-08-20_14h01.06.321,torte-2b,2020.1.3,MacIntel,60,13225,1.26,,,,,,,,,,,,,,,,,,,,,,,,,,,,,,,,,,,,,,,,,,,,,,,,,,,,,,,,,,,,,,,,,
,,,,,,,,,,,,l,Correct!,0,89,89,98,1,t5.png,t1.png,4,9.55E-11,19,female,2020-08-20_14h01.06.321,torte-2b,2020.1.3,MacIntel,60,13225,0.918,,,,,,,,,,,,,,,,,,,,,,,,,,,,,,,,,,,,,,,,,,,,,,,,,,,,,,,,,,,,,,,,,
,,,,,,,,,,,,a,Incorrect,0,90,90,108,1,t3.png,t1.png,2,0.056466,19,female,2020-08-20_14h01.06.321,torte-2b,2020.1.3,MacIntel,60,13225,1.548,,,,,,,,,,,,,,,,,,,,,,,,,,,,,,,,,,,,,,,,,,,,,,,,,,,,,,,,,,,,,,,,,
,,,,,,,,,,,,l,Correct!,0,91,91,102,1,t2.png,t4.png,2,0.059078,19,female,2020-08-20_14h01.06.321,torte-2b,2020.1.3,MacIntel,60,13225,2.308,,,,,,,,,,,,,,,,,,,,,,,,,,,,,,,,,,,,,,,,,,,,,,,,,,,,,,,,,,,,,,,,,
,,,,,,,,,,,,a,Correct!,0,92,92,72,1,t5.png,t5.png,0,0.97829,19,female,2020-08-20_14h01.06.321,torte-2b,2020.1.3,MacIntel,60,13225,1.461,,,,,,,,,,,,,,,,,,,,,,,,,,,,,,,,,,,,,,,,,,,,,,,,,,,,,,,,,,,,,,,,,
,,,,,,,,,,,,a,Incorrect,0,93,93,49,1,t5.png,t1.png,4,9.55E-11,19,female,2020-08-20_14h01.06.321,torte-2b,2020.1.3,MacIntel,60,13225,1.101,,,,,,,,,,,,,,,,,,,,,,,,,,,,,,,,,,,,,,,,,,,,,,,,,,,,,,,,,,,,,,,,,
,,,,,,,,,,,,a,Correct!,0,94,94,111,1,t1.png,t1.png,0,0.97829,19,female,2020-08-20_14h01.06.321,torte-2b,2020.1.3,MacIntel,60,13225,1.062,,,,,,,,,,,,,,,,,,,,,,,,,,,,,,,,,,,,,,,,,,,,,,,,,,,,,,,,,,,,,,,,,
,,,,,,,,,,,,a,Correct!,0,95,95,83,1,t3.png,t2.png,1,0.90855,19,female,2020-08-20_14h01.06.321,torte-2b,2020.1.3,MacIntel,60,13225,1.283,,,,,,,,,,,,,,,,,,,,,,,,,,,,,,,,,,,,,,,,,,,,,,,,,,,,,,,,,,,,,,,,,
,,,,,,,,,,,,l,Incorrect,0,96,96,15,1,t2.png,t3.png,1,0.90855,19,female,2020-08-20_14h01.06.321,torte-2b,2020.1.3,MacIntel,60,13225,1.84,,,,,,,,,,,,,,,,,,,,,,,,,,,,,,,,,,,,,,,,,,,,,,,,,,,,,,,,,,,,,,,,,
,,,,,,,,,,,,a,Incorrect,0,97,97,30,1,t2.png,t3.png,1,0.90855,19,female,2020-08-20_14h01.06.321,torte-2b,2020.1.3,MacIntel,60,13225,0.934,,,,,,,,,,,,,,,,,,,,,,,,,,,,,,,,,,,,,,,,,,,,,,,,,,,,,,,,,,,,,,,,,
,,,,,,,,,,,,a,Correct!,0,98,98,97,1,t1.png,t1.png,0,0.97829,19,female,2020-08-20_14h01.06.321,torte-2b,2020.1.3,MacIntel,60,13225,1.965,,,,,,,,,,,,,,,,,,,,,,,,,,,,,,,,,,,,,,,,,,,,,,,,,,,,,,,,,,,,,,,,,
,,,,,,,,,,,,a,Correct!,0,99,99,56,1,t2.png,t3.png,1,0.90855,19,female,2020-08-20_14h01.06.321,torte-2b,2020.1.3,MacIntel,60,13225,1.527,,,,,,,,,,,,,,,,,,,,,,,,,,,,,,,,,,,,,,,,,,,,,,,,,,,,,,,,,,,,,,,,,
,,,,,,,,,,,,a,Correct!,0,100,100,42,1,t5.png,t5.png,0,0.97829,19,female,2020-08-20_14h01.06.321,torte-2b,2020.1.3,MacIntel,60,13225,0.88,,,,,,,,,,,,,,,,,,,,,,,,,,,,,,,,,,,,,,,,,,,,,,,,,,,,,,,,,,,,,,,,,
,,,,,,,,,,,,a,Correct!,0,101,101,21,1,t5.png,t4.png,1,0.90025,19,female,2020-08-20_14h01.06.321,torte-2b,2020.1.3,MacIntel,60,13225,1.371,,,,,,,,,,,,,,,,,,,,,,,,,,,,,,,,,,,,,,,,,,,,,,,,,,,,,,,,,,,,,,,,,
,,,,,,,,,,,,a,Correct!,0,102,102,119,1,t5.png,t4.png,1,0.90025,19,female,2020-08-20_14h01.06.321,torte-2b,2020.1.3,MacIntel,60,13225,1.703,,,,,,,,,,,,,,,,,,,,,,,,,,,,,,,,,,,,,,,,,,,,,,,,,,,,,,,,,,,,,,,,,
,,,,,,,,,,,,l,Correct!,0,103,103,73,1,t3.png,t1.png,2,0.056466,19,female,2020-08-20_14h01.06.321,torte-2b,2020.1.3,MacIntel,60,13225,1.498,,,,,,,,,,,,,,,,,,,,,,,,,,,,,,,,,,,,,,,,,,,,,,,,,,,,,,,,,,,,,,,,,
,,,,,,,,,,,,a,Incorrect,0,104,104,41,1,t4.png,t5.png,1,0.90025,19,female,2020-08-20_14h01.06.321,torte-2b,2020.1.3,MacIntel,60,13225,2.023,,,,,,,,,,,,,,,,,,,,,,,,,,,,,,,,,,,,,,,,,,,,,,,,,,,,,,,,,,,,,,,,,
,,,,,,,,,,,,l,Incorrect,0,105,105,110,1,t4.png,t5.png,1,0.90025,19,female,2020-08-20_14h01.06.321,torte-2b,2020.1.3,MacIntel,60,13225,0.817,,,,,,,,,,,,,,,,,,,,,,,,,,,,,,,,,,,,,,,,,,,,,,,,,,,,,,,,,,,,,,,,,
,,,,,,,,,,,,a,Correct!,0,106,106,93,1,t5.png,t4.png,1,0.90025,19,female,2020-08-20_14h01.06.321,torte-2b,2020.1.3,MacIntel,60,13225,1.276,,,,,,,,,,,,,,,,,,,,,,,,,,,,,,,,,,,,,,,,,,,,,,,,,,,,,,,,,,,,,,,,,
,,,,,,,,,,,,a,Incorrect,0,107,107,2,1,t3.png,t1.png,2,0.056466,19,female,2020-08-20_14h01.06.321,torte-2b,2020.1.3,MacIntel,60,13225,1.16,,,,,,,,,,,,,,,,,,,,,,,,,,,,,,,,,,,,,,,,,,,,,,,,,,,,,,,,,,,,,,,,,
,,,,,,,,,,,,l,Incorrect,0,108,108,100,1,t3.png,t2.png,1,0.90855,19,female,2020-08-20_14h01.06.321,torte-2b,2020.1.3,MacIntel,60,13225,0.805,,,,,,,,,,,,,,,,,,,,,,,,,,,,,,,,,,,,,,,,,,,,,,,,,,,,,,,,,,,,,,,,,
,,,,,,,,,,,,l,Correct!,0,109,109,107,1,t1.png,t4.png,3,0.0000131,19,female,2020-08-20_14h01.06.321,torte-2b,2020.1.3,MacIntel,60,13225,1.179,,,,,,,,,,,,,,,,,,,,,,,,,,,,,,,,,,,,,,,,,,,,,,,,,,,,,,,,,,,,,,,,,
,,,,,,,,,,,,a,Correct!,0,110,110,31,1,t1.png,t1.png,0,0.97829,19,female,2020-08-20_14h01.06.321,torte-2b,2020.1.3,MacIntel,60,13225,1.045,,,,,,,,,,,,,,,,,,,,,,,,,,,,,,,,,,,,,,,,,,,,,,,,,,,,,,,,,,,,,,,,,
,,,,,,,,,,,,l,Correct!,0,111,111,34,1,t1.png,t5.png,4,9.55E-11,19,female,2020-08-20_14h01.06.321,torte-2b,2020.1.3,MacIntel,60,13225,2.278,,,,,,,,,,,,,,,,,,,,,,,,,,,,,,,,,,,,,,,,,,,,,,,,,,,,,,,,,,,,,,,,,
,,,,,,,,,,,,l,Incorrect,0,112,112,106,1,t4.png,t1.png,3,0.059078,19,female,2020-08-20_14h01.06.321,torte-2b,2020.1.3,MacIntel,60,13225,1.206,,,,,,,,,,,,,,,,,,,,,,,,,,,,,,,,,,,,,,,,,,,,,,,,,,,,,,,,,,,,,,,,,
,,,,,,,,,,,,a,Correct!,0,113,113,90,1,t4.png,t5.png,1,0.90025,19,female,2020-08-20_14h01.06.321,torte-2b,2020.1.3,MacIntel,60,13225,0.955,,,,,,,,,,,,,,,,,,,,,,,,,,,,,,,,,,,,,,,,,,,,,,,,,,,,,,,,,,,,,,,,,
,,,,,,,,,,,,a,Incorrect,0,114,114,81,1,t3.png,t1.png,2,0.056466,19,female,2020-08-20_14h01.06.321,torte-2b,2020.1.3,MacIntel,60,13225,1.758,,,,,,,,,,,,,,,,,,,,,,,,,,,,,,,,,,,,,,,,,,,,,,,,,,,,,,,,,,,,,,,,,
,,,,,,,,,,,,l,Correct!,0,115,115,79,1,t1.png,t4.png,3,0.0000131,19,female,2020-08-20_14h01.06.321,torte-2b,2020.1.3,MacIntel,60,13225,0.696,,,,,,,,,,,,,,,,,,,,,,,,,,,,,,,,,,,,,,,,,,,,,,,,,,,,,,,,,,,,,,,,,
,,,,,,,,,,,,l,Incorrect,0,116,116,52,1,t2.png,t3.png,1,0.90855,19,female,2020-08-20_14h01.06.321,torte-2b,2020.1.3,MacIntel,60,13225,1.415,,,,,,,,,,,,,,,,,,,,,,,,,,,,,,,,,,,,,,,,,,,,,,,,,,,,,,,,,,,,,,,,,
,,,,,,,,,,,,l,Incorrect,0,117,117,17,1,t4.png,t1.png,3,0.059078,19,female,2020-08-20_14h01.06.321,torte-2b,2020.1.3,MacIntel,60,13225,0.939,,,,,,,,,,,,,,,,,,,,,,,,,,,,,,,,,,,,,,,,,,,,,,,,,,,,,,,,,,,,,,,,,
,,,,,,,,,,,,a,Correct!,0,118,118,60,1,t4.png,t5.png,1,0.90025,19,female,2020-08-20_14h01.06.321,torte-2b,2020.1.3,MacIntel,60,13225,0.918,,,,,,,,,,,,,,,,,,,,,,,,,,,,,,,,,,,,,,,,,,,,,,,,,,,,,,,,,,,,,,,,,
,,,,,,,,,,,,a,Correct!,0,119,119,38,1,t1.png,t1.png,0,0.97829,19,female,2020-08-20_14h01.06.321,torte-2b,2020.1.3,MacIntel,60,13225,1.035,,,,,,,,,,,,,,,,,,,,,,,,,,,,,,,,,,,,,,,,,,,,,,,,,,,,,,,,,,,,,,,,,
,,,,,,,,,,,,l,Correct!,,,,,,t1.png,t5.png,4,9.55E-11,19,female,2020-08-20_14h01.06.321,torte-2b,2020.1.3,MacIntel,60,13225,2.066,space,1.857,space,17.486,0,0,0,118,1,,,,,,,,,,,,,,,,,,,,,,,,,,,,,,,,,,,,,,,,,,,,,,,,,,,,,,,,
,,,,,,,,,,,,a,Correct!,,,,,,t3.png,t4.png,1,0.90855,19,female,2020-08-20_14h01.06.321,torte-2b,2020.1.3,MacIntel,60,13225,1.742,,,,,0,1,1,9,1,,,,,,,,,,,,,,,,,,,,,,,,,,,,,,,,,,,,,,,,,,,,,,,,,,,,,,,,
,,,,,,,,,,,,a,Incorrect,,,,,,t2.png,t4.png,2,0.059078,19,female,2020-08-20_14h01.06.321,torte-2b,2020.1.3,MacIntel,60,13225,1.457,,,,,0,2,2,84,1,,,,,,,,,,,,,,,,,,,,,,,,,,,,,,,,,,,,,,,,,,,,,,,,,,,,,,,,
,,,,,,,,,,,,a,Correct!,,,,,,t4.png,t4.png,0,0.98115,19,female,2020-08-20_14h01.06.321,torte-2b,2020.1.3,MacIntel,60,13225,0.922,,,,,0,3,3,68,1,,,,,,,,,,,,,,,,,,,,,,,,,,,,,,,,,,,,,,,,,,,,,,,,,,,,,,,,
,,,,,,,,,,,,a,Correct!,,,,,,t4.png,t5.png,1,0.9,19,female,2020-08-20_14h01.06.321,torte-2b,2020.1.3,MacIntel,60,13225,1.171,,,,,0,4,4,81,1,,,,,,,,,,,,,,,,,,,,,,,,,,,,,,,,,,,,,,,,,,,,,,,,,,,,,,,,
,,,,,,,,,,,,l,Incorrect,,,,,,t3.png,t2.png,1,0.90855,19,female,2020-08-20_14h01.06.321,torte-2b,2020.1.3,MacIntel,60,13225,1.807,,,,,0,5,5,108,1,,,,,,,,,,,,,,,,,,,,,,,,,,,,,,,,,,,,,,,,,,,,,,,,,,,,,,,,
,,,,,,,,,,,,l,Correct!,,,,,,t2.png,t5.png,3,0.0000131,19,female,2020-08-20_14h01.06.321,torte-2b,2020.1.3,MacIntel,60,13225,2.013,,,,,0,6,6,46,1,,,,,,,,,,,,,,,,,,,,,,,,,,,,,,,,,,,,,,,,,,,,,,,,,,,,,,,,
,,,,,,,,,,,,a,Correct!,,,,,,t1.png,t1.png,0,0.97829,19,female,2020-08-20_14h01.06.321,torte-2b,2020.1.3,MacIntel,60,13225,1.009,,,,,0,7,7,4,1,,,,,,,,,,,,,,,,,,,,,,,,,,,,,,,,,,,,,,,,,,,,,,,,,,,,,,,,
,,,,,,,,,,,,l,Correct!,,,,,,t4.png,t1.png,3,0.059078,19,female,2020-08-20_14h01.06.321,torte-2b,2020.1.3,MacIntel,60,13225,1.773,,,,,0,8,8,62,1,,,,,,,,,,,,,,,,,,,,,,,,,,,,,,,,,,,,,,,,,,,,,,,,,,,,,,,,
,,,,,,,,,,,,l,Correct!,,,,,,t1.png,t4.png,3,0.0000131,19,female,2020-08-20_14h01.06.321,torte-2b,2020.1.3,MacIntel,60,13225,1.822,,,,,0,9,9,23,1,,,,,,,,,,,,,,,,,,,,,,,,,,,,,,,,,,,,,,,,,,,,,,,,,,,,,,,,
,,,,,,,,,,,,l,Correct!,,,,,,t4.png,t1.png,3,0.059078,19,female,2020-08-20_14h01.06.321,torte-2b,2020.1.3,MacIntel,60,13225,1.519,,,,,0,10,10,73,1,,,,,,,,,,,,,,,,,,,,,,,,,,,,,,,,,,,,,,,,,,,,,,,,,,,,,,,,
,,,,,,,,,,,,l,Incorrect,,,,,,t1.png,t2.png,1,0.9,19,female,2020-08-20_14h01.06.321,torte-2b,2020.1.3,MacIntel,60,13225,1.143,,,,,0,11,11,17,1,,,,,,,,,,,,,,,,,,,,,,,,,,,,,,,,,,,,,,,,,,,,,,,,,,,,,,,,
,,,,,,,,,,,,l,Correct!,,,,,,t4.png,t1.png,3,0.059078,19,female,2020-08-20_14h01.06.321,torte-2b,2020.1.3,MacIntel,60,13225,1.015,,,,,0,12,12,75,1,,,,,,,,,,,,,,,,,,,,,,,,,,,,,,,,,,,,,,,,,,,,,,,,,,,,,,,,
,,,,,,,,,,,,a,Correct!,,,,,,t4.png,t5.png,1,0.90025,19,female,2020-08-20_14h01.06.321,torte-2b,2020.1.3,MacIntel,60,13225,1.911,,,,,0,13,13,86,1,,,,,,,,,,,,,,,,,,,,,,,,,,,,,,,,,,,,,,,,,,,,,,,,,,,,,,,,
,,,,,,,,,,,,l,Incorrect,,,,,,t1.png,t2.png,1,0.9,19,female,2020-08-20_14h01.06.321,torte-2b,2020.1.3,MacIntel,60,13225,2.108,,,,,0,14,14,41,1,,,,,,,,,,,,,,,,,,,,,,,,,,,,,,,,,,,,,,,,,,,,,,,,,,,,,,,,
,,,,,,,,,,,,l,Correct!,,,,,,t4.png,t1.png,3,0.0000131,19,female,2020-08-20_14h01.06.321,torte-2b,2020.1.3,MacIntel,60,13225,2.179,,,,,0,15,15,76,1,,,,,,,,,,,,,,,,,,,,,,,,,,,,,,,,,,,,,,,,,,,,,,,,,,,,,,,,
,,,,,,,,,,,,a,Incorrect,,,,,,t5.png,t3.png,2,0.0565,19,female,2020-08-20_14h01.06.321,torte-2b,2020.1.3,MacIntel,60,13225,1.341,,,,,0,16,16,50,1,,,,,,,,,,,,,,,,,,,,,,,,,,,,,,,,,,,,,,,,,,,,,,,,,,,,,,,,
,,,,,,,,,,,,a,Correct!,,,,,,t2.png,t2.png,0,0.98115,19,female,2020-08-20_14h01.06.321,torte-2b,2020.1.3,MacIntel,60,13225,2.175,,,,,0,17,17,69,1,,,,,,,,,,,,,,,,,,,,,,,,,,,,,,,,,,,,,,,,,,,,,,,,,,,,,,,,
,,,,,,,,,,,,a,Incorrect,,,,,,t2.png,t5.png,3,0.0000131,19,female,2020-08-20_14h01.06.321,torte-2b,2020.1.3,MacIntel,60,13225,1.643,,,,,0,18,18,115,1,,,,,,,,,,,,,,,,,,,,,,,,,,,,,,,,,,,,,,,,,,,,,,,,,,,,,,,,
,,,,,,,,,,,,l,Correct!,,,,,,t1.png,t3.png,2,0.056466,19,female,2020-08-20_14h01.06.321,torte-2b,2020.1.3,MacIntel,60,13225,1.456,,,,,0,19,19,24,1,,,,,,,,,,,,,,,,,,,,,,,,,,,,,,,,,,,,,,,,,,,,,,,,,,,,,,,,
,,,,,,,,,,,,l,Correct!,,,,,,t1.png,t5.png,4,9.55E-11,19,female,2020-08-20_14h01.06.321,torte-2b,2020.1.3,MacIntel,60,13225,1.13,,,,,0,20,20,30,1,,,,,,,,,,,,,,,,,,,,,,,,,,,,,,,,,,,,,,,,,,,,,,,,,,,,,,,,
,,,,,,,,,,,,l,Correct!,,,,,,t1.png,t4.png,3,0.0000131,19,female,2020-08-20_14h01.06.321,torte-2b,2020.1.3,MacIntel,60,13225,1.176,,,,,0,21,21,74,1,,,,,,,,,,,,,,,,,,,,,,,,,,,,,,,,,,,,,,,,,,,,,,,,,,,,,,,,
,,,,,,,,,,,,a,Incorrect,,,,,,t1.png,t3.png,2,0.056466,19,female,2020-08-20_14h01.06.321,torte-2b,2020.1.3,MacIntel,60,13225,2.215,,,,,0,22,22,32,1,,,,,,,,,,,,,,,,,,,,,,,,,,,,,,,,,,,,,,,,,,,,,,,,,,,,,,,,
,,,,,,,,,,,,a,Correct!,,,,,,t5.png,t5.png,0,0.97829,19,female,2020-08-20_14h01.06.321,torte-2b,2020.1.3,MacIntel,60,13225,0.871,,,,,0,23,23,2,1,,,,,,,,,,,,,,,,,,,,,,,,,,,,,,,,,,,,,,,,,,,,,,,,,,,,,,,,
,,,,,,,,,,,,a,Correct!,,,,,,t2.png,t3.png,1,0.90855,19,female,2020-08-20_14h01.06.321,torte-2b,2020.1.3,MacIntel,60,13225,2.377,,,,,0,24,24,70,1,,,,,,,,,,,,,,,,,,,,,,,,,,,,,,,,,,,,,,,,,,,,,,,,,,,,,,,,
,,,,,,,,,,,,l,Correct!,,,,,,t4.png,t1.png,3,0.0000131,19,female,2020-08-20_14h01.06.321,torte-2b,2020.1.3,MacIntel,60,13225,1.017,,,,,0,25,25,49,1,,,,,,,,,,,,,,,,,,,,,,,,,,,,,,,,,,,,,,,,,,,,,,,,,,,,,,,,
,,,,,,,,,,,,l,Correct!,,,,,,t1.png,t4.png,3,0.0000131,19,female,2020-08-20_14h01.06.321,torte-2b,2020.1.3,MacIntel,60,13225,1.874,,,,,0,26,26,106,1,,,,,,,,,,,,,,,,,,,,,,,,,,,,,,,,,,,,,,,,,,,,,,,,,,,,,,,,
,,,,,,,,,,,,l,Correct!,,,,,,t1.png,t5.png,4,9.55E-11,19,female,2020-08-20_14h01.06.321,torte-2b,2020.1.3,MacIntel,60,13225,1.9,,,,,0,27,27,3,1,,,,,,,,,,,,,,,,,,,,,,,,,,,,,,,,,,,,,,,,,,,,,,,,,,,,,,,,
,,,,,,,,,,,,a,Correct!,,,,,,t3.png,t2.png,1,0.90855,19,female,2020-08-20_14h01.06.321,torte-2b,2020.1.3,MacIntel,60,13225,1.907,,,,,0,28,28,10,1,,,,,,,,,,,,,,,,,,,,,,,,,,,,,,,,,,,,,,,,,,,,,,,,,,,,,,,,
,,,,,,,,,,,,l,Correct!,,,,,,t1.png,t3.png,2,0.0565,19,female,2020-08-20_14h01.06.321,torte-2b,2020.1.3,MacIntel,60,13225,2.352,,,,,0,29,29,12,1,,,,,,,,,,,,,,,,,,,,,,,,,,,,,,,,,,,,,,,,,,,,,,,,,,,,,,,,
,,,,,,,,,,,,l,Incorrect,,,,,,t4.png,t3.png,1,0.909,19,female,2020-08-20_14h01.06.321,torte-2b,2020.1.3,MacIntel,60,13225,1.958,,,,,0,30,30,119,1,,,,,,,,,,,,,,,,,,,,,,,,,,,,,,,,,,,,,,,,,,,,,,,,,,,,,,,,
,,,,,,,,,,,,l,Correct!,,,,,,t5.png,t1.png,4,9.55E-11,19,female,2020-08-20_14h01.06.321,torte-2b,2020.1.3,MacIntel,60,13225,1.256,,,,,0,31,31,101,1,,,,,,,,,,,,,,,,,,,,,,,,,,,,,,,,,,,,,,,,,,,,,,,,,,,,,,,,
,,,,,,,,,,,,l,Incorrect,,,,,,t3.png,t2.png,1,0.90855,19,female,2020-08-20_14h01.06.321,torte-2b,2020.1.3,MacIntel,60,13225,1.945,,,,,0,32,32,0,1,,,,,,,,,,,,,,,,,,,,,,,,,,,,,,,,,,,,,,,,,,,,,,,,,,,,,,,,
,,,,,,,,,,,,a,Correct!,,,,,,t5.png,t5.png,0,0.97829,19,female,2020-08-20_14h01.06.321,torte-2b,2020.1.3,MacIntel,60,13225,0.683,,,,,0,33,33,35,1,,,,,,,,,,,,,,,,,,,,,,,,,,,,,,,,,,,,,,,,,,,,,,,,,,,,,,,,
,,,,,,,,,,,,l,Correct!,,,,,,t4.png,t1.png,3,0.0000131,19,female,2020-08-20_14h01.06.321,torte-2b,2020.1.3,MacIntel,60,13225,0.889,,,,,0,34,34,91,1,,,,,,,,,,,,,,,,,,,,,,,,,,,,,,,,,,,,,,,,,,,,,,,,,,,,,,,,
,,,,,,,,,,,,l,Correct!,,,,,,t2.png,t4.png,2,0.059078,19,female,2020-08-20_14h01.06.321,torte-2b,2020.1.3,MacIntel,60,13225,1.703,,,,,0,35,35,53,1,,,,,,,,,,,,,,,,,,,,,,,,,,,,,,,,,,,,,,,,,,,,,,,,,,,,,,,,
,,,,,,,,,,,,a,Incorrect,,,,,,t3.png,t5.png,2,0.056466,19,female,2020-08-20_14h01.06.321,torte-2b,2020.1.3,MacIntel,60,13225,1.079,,,,,0,36,36,47,1,,,,,,,,,,,,,,,,,,,,,,,,,,,,,,,,,,,,,,,,,,,,,,,,,,,,,,,,
,,,,,,,,,,,,l,Correct!,,,,,,t1.png,t4.png,3,0.0000131,19,female,2020-08-20_14h01.06.321,torte-2b,2020.1.3,MacIntel,60,13225,1.368,,,,,0,37,37,16,1,,,,,,,,,,,,,,,,,,,,,,,,,,,,,,,,,,,,,,,,,,,,,,,,,,,,,,,,
,,,,,,,,,,,,l,Incorrect,,,,,,t2.png,t2.png,0,0.981,19,female,2020-08-20_14h01.06.321,torte-2b,2020.1.3,MacIntel,60,13225,1.824,,,,,0,38,38,98,1,,,,,,,,,,,,,,,,,,,,,,,,,,,,,,,,,,,,,,,,,,,,,,,,,,,,,,,,
,,,,,,,,,,,,l,Incorrect,,,,,,t4.png,t3.png,1,0.90855,19,female,2020-08-20_14h01.06.321,torte-2b,2020.1.3,MacIntel,60,13225,2.154,,,,,0,39,39,56,1,,,,,,,,,,,,,,,,,,,,,,,,,,,,,,,,,,,,,,,,,,,,,,,,,,,,,,,,
,,,,,,,,,,,,,Too slow :(,,,,,,t5.png,t4.png,1,0.90025,19,female,2020-08-20_14h01.06.321,torte-2b,2020.1.3,MacIntel,60,13225,,,,,,0,40,40,25,1,,,,,,,,,,,,,,,,,,,,,,,,,,,,,,,,,,,,,,,,,,,,,,,,,,,,,,,,
,,,,,,,,,,,,l,Incorrect,,,,,,t1.png,t2.png,1,0.90025,19,female,2020-08-20_14h01.06.321,torte-2b,2020.1.3,MacIntel,60,13225,0.994,,,,,0,41,41,6,1,,,,,,,,,,,,,,,,,,,,,,,,,,,,,,,,,,,,,,,,,,,,,,,,,,,,,,,,
,,,,,,,,,,,,a,Correct!,,,,,,t5.png,t4.png,1,0.90025,19,female,2020-08-20_14h01.06.321,torte-2b,2020.1.3,MacIntel,60,13225,1.256,,,,,0,42,42,14,1,,,,,,,,,,,,,,,,,,,,,,,,,,,,,,,,,,,,,,,,,,,,,,,,,,,,,,,,
,,,,,,,,,,,,a,Incorrect,,,,,,t5.png,t2.png,3,0.0000131,19,female,2020-08-20_14h01.06.321,torte-2b,2020.1.3,MacIntel,60,13225,2.138,,,,,0,43,43,48,1,,,,,,,,,,,,,,,,,,,,,,,,,,,,,,,,,,,,,,,,,,,,,,,,,,,,,,,,
,,,,,,,,,,,,a,Correct!,,,,,,t3.png,t4.png,1,0.90855,19,female,2020-08-20_14h01.06.321,torte-2b,2020.1.3,MacIntel,60,13225,1.791,,,,,0,44,44,111,1,,,,,,,,,,,,,,,,,,,,,,,,,,,,,,,,,,,,,,,,,,,,,,,,,,,,,,,,
,,,,,,,,,,,,a,Correct!,,,,,,t2.png,t2.png,0,0.98115,19,female,2020-08-20_14h01.06.321,torte-2b,2020.1.3,MacIntel,60,13225,1.911,,,,,0,45,45,7,1,,,,,,,,,,,,,,,,,,,,,,,,,,,,,,,,,,,,,,,,,,,,,,,,,,,,,,,,
,,,,,,,,,,,,l,Incorrect,,,,,,t1.png,t2.png,1,0.90025,19,female,2020-08-20_14h01.06.321,torte-2b,2020.1.3,MacIntel,60,13225,1.867,,,,,0,46,46,96,1,,,,,,,,,,,,,,,,,,,,,,,,,,,,,,,,,,,,,,,,,,,,,,,,,,,,,,,,
,,,,,,,,,,,,,Too slow :(,,,,,,t2.png,t3.png,1,0.90855,19,female,2020-08-20_14h01.06.321,torte-2b,2020.1.3,MacIntel,60,13225,,,,,,0,47,47,79,1,,,,,,,,,,,,,,,,,,,,,,,,,,,,,,,,,,,,,,,,,,,,,,,,,,,,,,,,
,,,,,,,,,,,,a,Correct!,,,,,,t4.png,t5.png,1,0.90025,19,female,2020-08-20_14h01.06.321,torte-2b,2020.1.3,MacIntel,60,13225,0.945,,,,,0,48,48,63,1,,,,,,,,,,,,,,,,,,,,,,,,,,,,,,,,,,,,,,,,,,,,,,,,,,,,,,,,
,,,,,,,,,,,,a,Incorrect,,,,,,t5.png,t2.png,3,0.0000131,19,female,2020-08-20_14h01.06.321,torte-2b,2020.1.3,MacIntel,60,13225,0.738,,,,,0,49,49,83,1,,,,,,,,,,,,,,,,,,,,,,,,,,,,,,,,,,,,,,,,,,,,,,,,,,,,,,,,
,,,,,,,,,,,,a,Correct!,,,,,,t5.png,t4.png,1,0.90025,19,female,2020-08-20_14h01.06.321,torte-2b,2020.1.3,MacIntel,60,13225,2.05,,,,,0,50,50,38,1,,,,,,,,,,,,,,,,,,,,,,,,,,,,,,,,,,,,,,,,,,,,,,,,,,,,,,,,
,,,,,,,,,,,,a,Correct!,,,,,,t5.png,t5.png,0,0.978,19,female,2020-08-20_14h01.06.321,torte-2b,2020.1.3,MacIntel,60,13225,0.438,,,,,0,51,51,116,1,,,,,,,,,,,,,,,,,,,,,,,,,,,,,,,,,,,,,,,,,,,,,,,,,,,,,,,,
,,,,,,,,,,,,l,Correct!,,,,,,t1.png,t5.png,4,9.55E-11,19,female,2020-08-20_14h01.06.321,torte-2b,2020.1.3,MacIntel,60,13225,1.252,,,,,0,52,52,1,1,,,,,,,,,,,,,,,,,,,,,,,,,,,,,,,,,,,,,,,,,,,,,,,,,,,,,,,,
,,,,,,,,,,,,l,Incorrect,,,,,,t2.png,t2.png,0,0.98115,19,female,2020-08-20_14h01.06.321,torte-2b,2020.1.3,MacIntel,60,13225,1.01,,,,,0,53,53,112,1,,,,,,,,,,,,,,,,,,,,,,,,,,,,,,,,,,,,,,,,,,,,,,,,,,,,,,,,
,,,,,,,,,,,,a,Correct!,,,,,,t5.png,t4.png,1,0.9,19,female,2020-08-20_14h01.06.321,torte-2b,2020.1.3,MacIntel,60,13225,1.707,,,,,0,54,54,55,1,,,,,,,,,,,,,,,,,,,,,,,,,,,,,,,,,,,,,,,,,,,,,,,,,,,,,,,,
,,,,,,,,,,,,l,Correct!,,,,,,t2.png,t5.png,3,0.0000131,19,female,2020-08-20_14h01.06.321,torte-2b,2020.1.3,MacIntel,60,13225,1.865,,,,,0,55,55,39,1,,,,,,,,,,,,,,,,,,,,,,,,,,,,,,,,,,,,,,,,,,,,,,,,,,,,,,,,
,,,,,,,,,,,,a,Correct!,,,,,,t1.png,t1.png,0,0.978,19,female,2020-08-20_14h01.06.321,torte-2b,2020.1.3,MacIntel,60,13225,1.497,,,,,0,56,56,13,1,,,,,,,,,,,,,,,,,,,,,,,,,,,,,,,,,,,,,,,,,,,,,,,,,,,,,,,,
,,,,,,,,,,,,a,Incorrect,,,,,,t5.png,t1.png,4,9.55E-11,19,female,2020-08-20_14h01.06.321,torte-2b,2020.1.3,MacIntel,60,13225,0.978,,,,,0,57,57,31,1,,,,,,,,,,,,,,,,,,,,,,,,,,,,,,,,,,,,,,,,,,,,,,,,,,,,,,,,
,,,,,,,,,,,,l,Correct!,,,,,,t3.png,t4.png,1,0.90855,19,female,2020-08-20_14h01.06.321,torte-2b,2020.1.3,MacIntel,60,13225,2.28,,,,,0,58,58,103,1,,,,,,,,,,,,,,,,,,,,,,,,,,,,,,,,,,,,,,,,,,,,,,,,,,,,,,,,
,,,,,,,,,,,,a,Incorrect,,,,,,t2.png,t5.png,3,0.0000131,19,female,2020-08-20_14h01.06.321,torte-2b,2020.1.3,MacIntel,60,13225,1.975,,,,,0,59,59,85,1,,,,,,,,,,,,,,,,,,,,,,,,,,,,,,,,,,,,,,,,,,,,,,,,,,,,,,,,
,,,,,,,,,,,,l,Correct!,,,,,,t2.png,t3.png,1,0.90855,19,female,2020-08-20_14h01.06.321,torte-2b,2020.1.3,MacIntel,60,13225,1.164,,,,,0,60,60,113,1,,,,,,,,,,,,,,,,,,,,,,,,,,,,,,,,,,,,,,,,,,,,,,,,,,,,,,,,
,,,,,,,,,,,,l,Correct!,,,,,,t1.png,t3.png,2,0.0565,19,female,2020-08-20_14h01.06.321,torte-2b,2020.1.3,MacIntel,60,13225,1.027,,,,,0,61,61,42,1,,,,,,,,,,,,,,,,,,,,,,,,,,,,,,,,,,,,,,,,,,,,,,,,,,,,,,,,
,,,,,,,,,,,,a,Incorrect,,,,,,t5.png,t2.png,3,0.0000131,19,female,2020-08-20_14h01.06.321,torte-2b,2020.1.3,MacIntel,60,13225,1.03,,,,,0,62,62,43,1,,,,,,,,,,,,,,,,,,,,,,,,,,,,,,,,,,,,,,,,,,,,,,,,,,,,,,,,
,,,,,,,,,,,,l,Correct!,,,,,,t2.png,t4.png,2,0.059078,19,female,2020-08-20_14h01.06.321,torte-2b,2020.1.3,MacIntel,60,13225,1.829,,,,,0,63,63,67,1,,,,,,,,,,,,,,,,,,,,,,,,,,,,,,,,,,,,,,,,,,,,,,,,,,,,,,,,
,,,,,,,,,,,,a,Incorrect,,,,,,t3.png,t1.png,2,0.056466,19,female,2020-08-20_14h01.06.321,torte-2b,2020.1.3,MacIntel,60,13225,2.315,,,,,0,64,64,109,1,,,,,,,,,,,,,,,,,,,,,,,,,,,,,,,,,,,,,,,,,,,,,,,,,,,,,,,,
,,,,,,,,,,,,l,Correct!,,,,,,t1.png,t4.png,3,0.0000131,19,female,2020-08-20_14h01.06.321,torte-2b,2020.1.3,MacIntel,60,13225,1.154,,,,,0,65,65,36,1,,,,,,,,,,,,,,,,,,,,,,,,,,,,,,,,,,,,,,,,,,,,,,,,,,,,,,,,
,,,,,,,,,,,,l,Correct!,,,,,,t2.png,t4.png,2,0.059078,19,female,2020-08-20_14h01.06.321,torte-2b,2020.1.3,MacIntel,60,13225,1.154,,,,,0,66,66,97,1,,,,,,,,,,,,,,,,,,,,,,,,,,,,,,,,,,,,,,,,,,,,,,,,,,,,,,,,
,,,,,,,,,,,,a,Incorrect,,,,,,t2.png,t5.png,3,0.0000131,19,female,2020-08-20_14h01.06.321,torte-2b,2020.1.3,MacIntel,60,13225,1.041,,,,,0,67,67,54,1,,,,,,,,,,,,,,,,,,,,,,,,,,,,,,,,,,,,,,,,,,,,,,,,,,,,,,,,
,,,,,,,,,,,,a,Correct!,,,,,,t5.png,t3.png,2,0.056466,19,female,2020-08-20_14h01.06.321,torte-2b,2020.1.3,MacIntel,60,13225,1.547,,,,,0,68,68,37,1,,,,,,,,,,,,,,,,,,,,,,,,,,,,,,,,,,,,,,,,,,,,,,,,,,,,,,,,
,,,,,,,,,,,,a,Correct!,,,,,,t5.png,t5.png,0,0.97829,19,female,2020-08-20_14h01.06.321,torte-2b,2020.1.3,MacIntel,60,13225,0.907,,,,,0,69,69,77,1,,,,,,,,,,,,,,,,,,,,,,,,,,,,,,,,,,,,,,,,,,,,,,,,,,,,,,,,
,,,,,,,,,,,,a,Incorrect,,,,,,t5.png,t3.png,2,0.056466,19,female,2020-08-20_14h01.06.321,torte-2b,2020.1.3,MacIntel,60,13225,1.831,,,,,0,70,70,80,1,,,,,,,,,,,,,,,,,,,,,,,,,,,,,,,,,,,,,,,,,,,,,,,,,,,,,,,,
,,,,,,,,,,,,a,Correct!,,,,,,t1.png,t1.png,0,0.97829,19,female,2020-08-20_14h01.06.321,torte-2b,2020.1.3,MacIntel,60,13225,1.112,,,,,0,71,71,110,1,,,,,,,,,,,,,,,,,,,,,,,,,,,,,,,,,,,,,,,,,,,,,,,,,,,,,,,,
,,,,,,,,,,,,l,Correct!,,,,,,t3.png,t1.png,2,0.056466,19,female,2020-08-20_14h01.06.321,torte-2b,2020.1.3,MacIntel,60,13225,1.674,,,,,0,72,72,34,1,,,,,,,,,,,,,,,,,,,,,,,,,,,,,,,,,,,,,,,,,,,,,,,,,,,,,,,,
,,,,,,,,,,,,a,Correct!,,,,,,t4.png,t3.png,1,0.90855,19,female,2020-08-20_14h01.06.321,torte-2b,2020.1.3,MacIntel,60,13225,2.324,,,,,0,73,73,11,1,,,,,,,,,,,,,,,,,,,,,,,,,,,,,,,,,,,,,,,,,,,,,,,,,,,,,,,,
,,,,,,,,,,,,l,Incorrect,,,,,,t3.png,t1.png,2,0.0565,19,female,2020-08-20_14h01.06.321,torte-2b,2020.1.3,MacIntel,60,13225,1.541,,,,,0,74,74,104,1,,,,,,,,,,,,,,,,,,,,,,,,,,,,,,,,,,,,,,,,,,,,,,,,,,,,,,,,
,,,,,,,,,,,,l,Incorrect,,,,,,t2.png,t1.png,1,0.9,19,female,2020-08-20_14h01.06.321,torte-2b,2020.1.3,MacIntel,60,13225,1.999,,,,,0,75,75,93,1,,,,,,,,,,,,,,,,,,,,,,,,,,,,,,,,,,,,,,,,,,,,,,,,,,,,,,,,
,,,,,,,,,,,,l,Incorrect,,,,,,t2.png,t2.png,0,0.98115,19,female,2020-08-20_14h01.06.321,torte-2b,2020.1.3,MacIntel,60,13225,0.796,,,,,0,76,76,90,1,,,,,,,,,,,,,,,,,,,,,,,,,,,,,,,,,,,,,,,,,,,,,,,,,,,,,,,,
,,,,,,,,,,,,a,Correct!,,,,,,t4.png,t3.png,1,0.909,19,female,2020-08-20_14h01.06.321,torte-2b,2020.1.3,MacIntel,60,13225,1.926,,,,,0,77,77,107,1,,,,,,,,,,,,,,,,,,,,,,,,,,,,,,,,,,,,,,,,,,,,,,,,,,,,,,,,
,,,,,,,,,,,,a,Incorrect,,,,,,t3.png,t5.png,2,0.056466,19,female,2020-08-20_14h01.06.321,torte-2b,2020.1.3,MacIntel,60,13225,2.376,,,,,0,78,78,78,1,,,,,,,,,,,,,,,,,,,,,,,,,,,,,,,,,,,,,,,,,,,,,,,,,,,,,,,,
,,,,,,,,,,,,a,Correct!,,,,,,t3.png,t4.png,1,0.90855,19,female,2020-08-20_14h01.06.321,torte-2b,2020.1.3,MacIntel,60,13225,1.268,,,,,0,79,79,5,1,,,,,,,,,,,,,,,,,,,,,,,,,,,,,,,,,,,,,,,,,,,,,,,,,,,,,,,,
,,,,,,,,,,,,a,Incorrect,,,,,,t5.png,t2.png,3,0.0000131,19,female,2020-08-20_14h01.06.321,torte-2b,2020.1.3,MacIntel,60,13225,1.946,,,,,0,80,80,82,1,,,,,,,,,,,,,,,,,,,,,,,,,,,,,,,,,,,,,,,,,,,,,,,,,,,,,,,,
,,,,,,,,,,,,l,Correct!,,,,,,t4.png,t1.png,3,0.0000131,19,female,2020-08-20_14h01.06.321,torte-2b,2020.1.3,MacIntel,60,13225,1.112,,,,,0,81,81,102,1,,,,,,,,,,,,,,,,,,,,,,,,,,,,,,,,,,,,,,,,,,,,,,,,,,,,,,,,
,,,,,,,,,,,,a,Incorrect,,,,,,t5.png,t3.png,2,0.056466,19,female,2020-08-20_14h01.06.321,torte-2b,2020.1.3,MacIntel,60,13225,1.169,,,,,0,82,82,27,1,,,,,,,,,,,,,,,,,,,,,,,,,,,,,,,,,,,,,,,,,,,,,,,,,,,,,,,,
,,,,,,,,,,,,l,Correct!,,,,,,t3.png,t1.png,2,0.0565,19,female,2020-08-20_14h01.06.321,torte-2b,2020.1.3,MacIntel,60,13225,0.867,,,,,0,83,83,40,1,,,,,,,,,,,,,,,,,,,,,,,,,,,,,,,,,,,,,,,,,,,,,,,,,,,,,,,,
,,,,,,,,,,,,l,Incorrect,,,,,,t3.png,t2.png,1,0.90855,19,female,2020-08-20_14h01.06.321,torte-2b,2020.1.3,MacIntel,60,13225,1.143,,,,,0,84,84,94,1,,,,,,,,,,,,,,,,,,,,,,,,,,,,,,,,,,,,,,,,,,,,,,,,,,,,,,,,
,,,,,,,,,,,,l,Correct!,,,,,,t5.png,t1.png,4,9.55E-11,19,female,2020-08-20_14h01.06.321,torte-2b,2020.1.3,MacIntel,60,13225,1.572,,,,,0,85,85,15,1,,,,,,,,,,,,,,,,,,,,,,,,,,,,,,,,,,,,,,,,,,,,,,,,,,,,,,,,
,,,,,,,,,,,,,Too slow :(,,,,,,t1.png,t5.png,4,9.55E-11,19,female,2020-08-20_14h01.06.321,torte-2b,2020.1.3,MacIntel,60,13225,,,,,,0,86,86,20,1,,,,,,,,,,,,,,,,,,,,,,,,,,,,,,,,,,,,,,,,,,,,,,,,,,,,,,,,
,,,,,,,,,,,,l,Incorrect,,,,,,t2.png,t1.png,1,0.90025,19,female,2020-08-20_14h01.06.321,torte-2b,2020.1.3,MacIntel,60,13225,2.05,,,,,0,87,87,44,1,,,,,,,,,,,,,,,,,,,,,,,,,,,,,,,,,,,,,,,,,,,,,,,,,,,,,,,,
,,,,,,,,,,,,a,Incorrect,,,,,,t3.png,t5.png,2,0.056466,19,female,2020-08-20_14h01.06.321,torte-2b,2020.1.3,MacIntel,60,13225,2.106,,,,,0,88,88,45,1,,,,,,,,,,,,,,,,,,,,,,,,,,,,,,,,,,,,,,,,,,,,,,,,,,,,,,,,
,,,,,,,,,,,,l,Incorrect,,,,,,t2.png,t3.png,1,0.90855,19,female,2020-08-20_14h01.06.321,torte-2b,2020.1.3,MacIntel,60,13225,1.012,,,,,0,89,89,64,1,,,,,,,,,,,,,,,,,,,,,,,,,,,,,,,,,,,,,,,,,,,,,,,,,,,,,,,,
,,,,,,,,,,,,l,Correct!,,,,,,t2.png,t4.png,2,0.059078,19,female,2020-08-20_14h01.06.321,torte-2b,2020.1.3,MacIntel,60,13225,1.587,,,,,0,90,90,18,1,,,,,,,,,,,,,,,,,,,,,,,,,,,,,,,,,,,,,,,,,,,,,,,,,,,,,,,,
,,,,,,,,,,,,l,Correct!,,,,,,t2.png,t3.png,1,0.909,19,female,2020-08-20_14h01.06.321,torte-2b,2020.1.3,MacIntel,60,13225,1.444,,,,,0,91,91,8,1,,,,,,,,,,,,,,,,,,,,,,,,,,,,,,,,,,,,,,,,,,,,,,,,,,,,,,,,
,,,,,,,,,,,,a,Incorrect,,,,,,t3.png,t5.png,2,0.0565,19,female,2020-08-20_14h01.06.321,torte-2b,2020.1.3,MacIntel,60,13225,1.24,,,,,0,92,92,71,1,,,,,,,,,,,,,,,,,,,,,,,,,,,,,,,,,,,,,,,,,,,,,,,,,,,,,,,,
,,,,,,,,,,,,l,Correct!,,,,,,t4.png,t1.png,3,0.059078,19,female,2020-08-20_14h01.06.321,torte-2b,2020.1.3,MacIntel,60,13225,1.01,,,,,0,93,93,57,1,,,,,,,,,,,,,,,,,,,,,,,,,,,,,,,,,,,,,,,,,,,,,,,,,,,,,,,,
,,,,,,,,,,,,l,Correct!,,,,,,t1.png,t3.png,2,0.0565,19,female,2020-08-20_14h01.06.321,torte-2b,2020.1.3,MacIntel,60,13225,1.084,,,,,0,94,94,95,1,,,,,,,,,,,,,,,,,,,,,,,,,,,,,,,,,,,,,,,,,,,,,,,,,,,,,,,,
,,,,,,,,,,,,a,Incorrect,,,,,,t5.png,t1.png,4,9.55E-11,19,female,2020-08-20_14h01.06.321,torte-2b,2020.1.3,MacIntel,60,13225,1.999,,,,,0,95,95,117,1,,,,,,,,,,,,,,,,,,,,,,,,,,,,,,,,,,,,,,,,,,,,,,,,,,,,,,,,
,,,,,,,,,,,,a,Incorrect,,,,,,t5.png,t3.png,2,0.056466,19,female,2020-08-20_14h01.06.321,torte-2b,2020.1.3,MacIntel,60,13225,1.585,,,,,0,96,96,26,1,,,,,,,,,,,,,,,,,,,,,,,,,,,,,,,,,,,,,,,,,,,,,,,,,,,,,,,,
,,,,,,,,,,,,a,Incorrect,,,,,,t3.png,t1.png,2,0.056466,19,female,2020-08-20_14h01.06.321,torte-2b,2020.1.3,MacIntel,60,13225,0.555,,,,,0,97,97,72,1,,,,,,,,,,,,,,,,,,,,,,,,,,,,,,,,,,,,,,,,,,,,,,,,,,,,,,,,
,,,,,,,,,,,,a,Correct!,,,,,,t4.png,t4.png,0,0.98115,19,female,2020-08-20_14h01.06.321,torte-2b,2020.1.3,MacIntel,60,13225,1.563,,,,,0,98,98,88,1,,,,,,,,,,,,,,,,,,,,,,,,,,,,,,,,,,,,,,,,,,,,,,,,,,,,,,,,
,,,,,,,,,,,,a,Correct!,,,,,,t4.png,t5.png,1,0.90025,19,female,2020-08-20_14h01.06.321,torte-2b,2020.1.3,MacIntel,60,13225,1.054,,,,,0,99,99,33,1,,,,,,,,,,,,,,,,,,,,,,,,,,,,,,,,,,,,,,,,,,,,,,,,,,,,,,,,
,,,,,,,,,,,,a,Correct!,,,,,,t4.png,t5.png,1,0.90025,19,female,2020-08-20_14h01.06.321,torte-2b,2020.1.3,MacIntel,60,13225,0.744,,,,,0,100,100,21,1,,,,,,,,,,,,,,,,,,,,,,,,,,,,,,,,,,,,,,,,,,,,,,,,,,,,,,,,
,,,,,,,,,,,,a,Correct!,,,,,,t5.png,t4.png,1,0.9,19,female,2020-08-20_14h01.06.321,torte-2b,2020.1.3,MacIntel,60,13225,0.517,,,,,0,101,101,92,1,,,,,,,,,,,,,,,,,,,,,,,,,,,,,,,,,,,,,,,,,,,,,,,,,,,,,,,,
,,,,,,,,,,,,a,Correct!,,,,,,t4.png,t4.png,0,0.98115,19,female,2020-08-20_14h01.06.321,torte-2b,2020.1.3,MacIntel,60,13225,0.573,,,,,0,102,102,52,1,,,,,,,,,,,,,,,,,,,,,,,,,,,,,,,,,,,,,,,,,,,,,,,,,,,,,,,,
,,,,,,,,,,,,a,Incorrect,,,,,,t3.png,t5.png,2,0.056466,19,female,2020-08-20_14h01.06.321,torte-2b,2020.1.3,MacIntel,60,13225,0.936,,,,,0,103,103,60,1,,,,,,,,,,,,,,,,,,,,,,,,,,,,,,,,,,,,,,,,,,,,,,,,,,,,,,,,
,,,,,,,,,,,,l,Correct!,,,,,,t5.png,t1.png,4,9.55E-11,19,female,2020-08-20_14h01.06.321,torte-2b,2020.1.3,MacIntel,60,13225,1.187,,,,,0,104,104,89,1,,,,,,,,,,,,,,,,,,,,,,,,,,,,,,,,,,,,,,,,,,,,,,,,,,,,,,,,
,,,,,,,,,,,,a,Correct!,,,,,,t4.png,t4.png,0,0.98115,19,female,2020-08-20_14h01.06.321,torte-2b,2020.1.3,MacIntel,60,13225,1.195,,,,,0,105,105,19,1,,,,,,,,,,,,,,,,,,,,,,,,,,,,,,,,,,,,,,,,,,,,,,,,,,,,,,,,
,,,,,,,,,,,,a,Correct!,,,,,,t2.png,t1.png,1,0.90025,19,female,2020-08-20_14h01.06.321,torte-2b,2020.1.3,MacIntel,60,13225,2.226,,,,,0,106,106,105,1,,,,,,,,,,,,,,,,,,,,,,,,,,,,,,,,,,,,,,,,,,,,,,,,,,,,,,,,
,,,,,,,,,,,,a,Correct!,,,,,,t5.png,t5.png,0,0.978,19,female,2020-08-20_14h01.06.321,torte-2b,2020.1.3,MacIntel,60,13225,0.901,,,,,0,107,107,51,1,,,,,,,,,,,,,,,,,,,,,,,,,,,,,,,,,,,,,,,,,,,,,,,,,,,,,,,,
,,,,,,,,,,,,l,Incorrect,,,,,,t2.png,t1.png,1,0.9,19,female,2020-08-20_14h01.06.321,torte-2b,2020.1.3,MacIntel,60,13225,0.896,,,,,0,108,108,100,1,,,,,,,,,,,,,,,,,,,,,,,,,,,,,,,,,,,,,,,,,,,,,,,,,,,,,,,,
,,,,,,,,,,,,a,Correct!,,,,,,t2.png,t1.png,1,0.90025,19,female,2020-08-20_14h01.06.321,torte-2b,2020.1.3,MacIntel,60,13225,2.062,,,,,0,109,109,65,1,,,,,,,,,,,,,,,,,,,,,,,,,,,,,,,,,,,,,,,,,,,,,,,,,,,,,,,,
,,,,,,,,,,,,a,Correct!,,,,,,t4.png,t3.png,1,0.90855,19,female,2020-08-20_14h01.06.321,torte-2b,2020.1.3,MacIntel,60,13225,2.363,,,,,0,110,110,29,1,,,,,,,,,,,,,,,,,,,,,,,,,,,,,,,,,,,,,,,,,,,,,,,,,,,,,,,,
,,,,,,,,,,,,,Too slow :(,,,,,,t5.png,t2.png,3,0.0000131,19,female,2020-08-20_14h01.06.321,torte-2b,2020.1.3,MacIntel,60,13225,,,,,,0,111,111,66,1,,,,,,,,,,,,,,,,,,,,,,,,,,,,,,,,,,,,,,,,,,,,,,,,,,,,,,,,
,,,,,,,,,,,,l,Correct!,,,,,,t4.png,t1.png,3,0.059078,19,female,2020-08-20_14h01.06.321,torte-2b,2020.1.3,MacIntel,60,13225,1.229,,,,,0,112,112,87,1,,,,,,,,,,,,,,,,,,,,,,,,,,,,,,,,,,,,,,,,,,,,,,,,,,,,,,,,
,,,,,,,,,,,,a,Incorrect,,,,,,t1.png,t1.png,0,0.978,19,female,2020-08-20_14h01.06.321,torte-2b,2020.1.3,MacIntel,60,13225,0.871,,,,,0,113,113,22,1,,,,,,,,,,,,,,,,,,,,,,,,,,,,,,,,,,,,,,,,,,,,,,,,,,,,,,,,
,,,,,,,,,,,,a,Correct!,,,,,,t3.png,t4.png,1,0.90855,19,female,2020-08-20_14h01.06.321,torte-2b,2020.1.3,MacIntel,60,13225,1.33,,,,,0,114,114,58,1,,,,,,,,,,,,,,,,,,,,,,,,,,,,,,,,,,,,,,,,,,,,,,,,,,,,,,,,
,,,,,,,,,,,,l,Incorrect,,,,,,t3.png,t2.png,1,0.90855,19,female,2020-08-20_14h01.06.321,torte-2b,2020.1.3,MacIntel,60,13225,0.951,,,,,0,115,115,99,1,,,,,,,,,,,,,,,,,,,,,,,,,,,,,,,,,,,,,,,,,,,,,,,,,,,,,,,,
,,,,,,,,,,,,a,Correct!,,,,,,t1.png,t1.png,0,0.97829,19,female,2020-08-20_14h01.06.321,torte-2b,2020.1.3,MacIntel,60,13225,0.934,,,,,0,116,116,114,1,,,,,,,,,,,,,,,,,,,,,,,,,,,,,,,,,,,,,,,,,,,,,,,,,,,,,,,,
,,,,,,,,,,,,,Too slow :(,,,,,,t4.png,t1.png,3,0.0000131,19,female,2020-08-20_14h01.06.321,torte-2b,2020.1.3,MacIntel,60,13225,,,,,,0,117,117,28,1,,,,,,,,,,,,,,,,,,,,,,,,,,,,,,,,,,,,,,,,,,,,,,,,,,,,,,,,
,,,,,,,,,,,,l,Incorrect,,,,,,t1.png,t2.png,1,0.9,19,female,2020-08-20_14h01.06.321,torte-2b,2020.1.3,MacIntel,60,13225,1.129,,,,,0,118,118,61,1,,,,,,,,,,,,,,,,,,,,,,,,,,,,,,,,,,,,,,,,,,,,,,,,,,,,,,,,
,,,,,,,,,,,,a,Correct!,,,,,,t4.png,t4.png,0,0.98115,19,female,2020-08-20_14h01.06.321,torte-2b,2020.1.3,MacIntel,60,13225,1.599,,,,,0,119,119,59,1,,,,,,,,,,,,,,,,,,,,,,,,,,,,,,,,,,,,,,,,,,,,,,,,,,,,,,,,
,,,,,,,,,,,,,,,,,,,,,,,19,female,2020-08-20_14h01.06.321,torte-2b,2020.1.3,MacIntel,60,13225,,space,1.847,,,,,,,,space,66.639,,0,0,0,0,1,6,,,,,,,,,,,,,,,,,,,,,,,,,,,,,,,,,,,,,,,,,,,,,,,
,,,,,,,,,,,,,,,,,,,,,,,19,female,2020-08-20_14h01.06.321,torte-2b,2020.1.3,MacIntel,60,13225,,,,,,,,,,,,,,0,1,1,1,1,7,,,,,,,,,,,,,,,,,,,,,,,,,,,,,,,,,,,,,,,,,,,,,,,
,,,,,,,,,,,,,,,,,,,,,,,19,female,2020-08-20_14h01.06.321,torte-2b,2020.1.3,MacIntel,60,13225,,,,,,,,,,,,,space,0,2,2,2,1,6,0.456,,,,,,,,,,,,,,,,,,,,,,,,,,,,,,,,,,,,,,,,,,,,,,
,,,,,,,,,,,,,,,,,,,,,,,19,female,2020-08-20_14h01.06.321,torte-2b,2020.1.3,MacIntel,60,13225,,,,,,,,,,,,,space,0,3,3,3,1,7,0.409,,,,,,,,,,,,,,,,,,,,,,,,,,,,,,,,,,,,,,,,,,,,,,
,,,,,,,,,,,,,,,,,,,,,,,19,female,2020-08-20_14h01.06.321,torte-2b,2020.1.3,MacIntel,60,13225,,,,,,,,,,,,,,0,4,4,4,1,5,,,,,,,,,,,,,,,,,,,,,,,,,,,,,,,,,,,,,,,,,,,,,,,
,,,,,,,,,,,,,,,,,,,,,,,19,female,2020-08-20_14h01.06.321,torte-2b,2020.1.3,MacIntel,60,13225,,,,,,,,,,,,,space,0,5,5,5,1,7,0.585,,,,,,,,,,,,,,,,,,,,,,,,,,,,,,,,,,,,,,,,,,,,,,
,,,,,,,,,,,,,,,,,,,,,,,19,female,2020-08-20_14h01.06.321,torte-2b,2020.1.3,MacIntel,60,13225,,,,,,,,,,,,,,0,6,6,6,1,2,,,,,,,,,,,,,,,,,,,,,,,,,,,,,,,,,,,,,,,,,,,,,,,
,,,,,,,,,,,,,,,,,,,,,,,19,female,2020-08-20_14h01.06.321,torte-2b,2020.1.3,MacIntel,60,13225,,,,,,,,,,,,,,0,7,7,7,1,4,,,,,,,,,,,,,,,,,,,,,,,,,,,,,,,,,,,,,,,,,,,,,,,
,,,,,,,,,,,,,,,,,,,,,,,19,female,2020-08-20_14h01.06.321,torte-2b,2020.1.3,MacIntel,60,13225,,,,,,,,,,,,,space,0,8,8,8,1,7,0.57,,,,,,,,,,,,,,,,,,,,,,,,,,,,,,,,,,,,,,,,,,,,,,
,,,,,,,,,,,,,,,,,,,,,,,19,female,2020-08-20_14h01.06.321,torte-2b,2020.1.3,MacIntel,60,13225,,,,,,,,,,,,,space,0,9,9,9,1,4,0.728,,,,,,,,,,,,,,,,,,,,,,,,,,,,,,,,,,,,,,,,,,,,,,
,,,,,,,,,,,,,,,,,,,,,,,19,female,2020-08-20_14h01.06.321,torte-2b,2020.1.3,MacIntel,60,13225,,,,,,,,,,,,,space,0,10,10,10,1,7,0.609,,,,,,,,,,,,,,,,,,,,,,,,,,,,,,,,,,,,,,,,,,,,,,
,,,,,,,,,,,,,,,,,,,,,,,19,female,2020-08-20_14h01.06.321,torte-2b,2020.1.3,MacIntel,60,13225,,,,,,,,,,,,,space,0,11,11,11,1,7,0.419,,,,,,,,,,,,,,,,,,,,,,,,,,,,,,,,,,,,,,,,,,,,,,
,,,,,,,,,,,,,,,,,,,,,,,19,female,2020-08-20_14h01.06.321,torte-2b,2020.1.3,MacIntel,60,13225,,,,,,,,,,,,,space,0,12,12,12,1,7,0.508,,,,,,,,,,,,,,,,,,,,,,,,,,,,,,,,,,,,,,,,,,,,,,
,,,,,,,,,,,,,,,,,,,,,,,19,female,2020-08-20_14h01.06.321,torte-2b,2020.1.3,MacIntel,60,13225,,,,,,,,,,,,,space,0,13,13,13,1,4,0.791,,,,,,,,,,,,,,,,,,,,,,,,,,,,,,,,,,,,,,,,,,,,,,
,,,,,,,,,,,,,,,,,,,,,,,19,female,2020-08-20_14h01.06.321,torte-2b,2020.1.3,MacIntel,60,13225,,,,,,,,,,,,,space,0,14,14,14,1,6,0.6,,,,,,,,,,,,,,,,,,,,,,,,,,,,,,,,,,,,,,,,,,,,,,
,,,,,,,,,,,,,,,,,,,,,,,19,female,2020-08-20_14h01.06.321,torte-2b,2020.1.3,MacIntel,60,13225,,,,,,,,,,,,,,0,15,15,15,1,4,,,,,,,,,,,,,,,,,,,,,,,,,,,,,,,,,,,,,,,,,,,,,,,
,,,,,,,,,,,,,,,,,,,,,,,19,female,2020-08-20_14h01.06.321,torte-2b,2020.1.3,MacIntel,60,13225,,,,,,,,,,,,,space,0,16,16,16,1,6,0.557,,,,,,,,,,,,,,,,,,,,,,,,,,,,,,,,,,,,,,,,,,,,,,
,,,,,,,,,,,,,,,,,,,,,,,19,female,2020-08-20_14h01.06.321,torte-2b,2020.1.3,MacIntel,60,13225,,,,,,,,,,,,,,0,17,17,17,1,7,,,,,,,,,,,,,,,,,,,,,,,,,,,,,,,,,,,,,,,,,,,,,,,
,,,,,,,,,,,,,,,,,,,,,,,19,female,2020-08-20_14h01.06.321,torte-2b,2020.1.3,MacIntel,60,13225,,,,,,,,,,,,,space,0,18,18,18,1,6,0.652,,,,,,,,,,,,,,,,,,,,,,,,,,,,,,,,,,,,,,,,,,,,,,
,,,,,,,,,,,,,,,,,,,,,,,19,female,2020-08-20_14h01.06.321,torte-2b,2020.1.3,MacIntel,60,13225,,,,,,,,,,,,,space,0,19,19,19,1,7,0.389,,,,,,,,,,,,,,,,,,,,,,,,,,,,,,,,,,,,,,,,,,,,,,
,,,,,,,,,,,,,,,,,,,,,,,19,female,2020-08-20_14h01.06.321,torte-2b,2020.1.3,MacIntel,60,13225,,,,,,,,,,,,,,0,20,20,20,1,5,,,,,,,,,,,,,,,,,,,,,,,,,,,,,,,,,,,,,,,,,,,,,,,
,,,,,,,,,,,,,,,,,,,,,,,19,female,2020-08-20_14h01.06.321,torte-2b,2020.1.3,MacIntel,60,13225,,,,,,,,,,,,,,0,21,21,21,1,1,,,,,,,,,,,,,,,,,,,,,,,,,,,,,,,,,,,,,,,,,,,,,,,
,,,,,,,,,,,,,,,,,,,,,,,19,female,2020-08-20_14h01.06.321,torte-2b,2020.1.3,MacIntel,60,13225,,,,,,,,,,,,,,0,22,22,22,1,6,,,,,,,,,,,,,,,,,,,,,,,,,,,,,,,,,,,,,,,,,,,,,,,
,,,,,,,,,,,,,,,,,,,,,,,19,female,2020-08-20_14h01.06.321,torte-2b,2020.1.3,MacIntel,60,13225,,,,,,,,,,,,,space,0,23,23,23,1,1,0.393,,,,,,,,,,,,,,,,,,,,,,,,,,,,,,,,,,,,,,,,,,,,,,
,,,,,,,,,,,,,,,,,,,,,,,19,female,2020-08-20_14h01.06.321,torte-2b,2020.1.3,MacIntel,60,13225,,,,,,,,,,,,,space,0,24,24,24,1,5,0.884,,,,,,,,,,,,,,,,,,,,,,,,,,,,,,,,,,,,,,,,,,,,,,
,,,,,,,,,,,,,,,,,,,,,,,19,female,2020-08-20_14h01.06.321,torte-2b,2020.1.3,MacIntel,60,13225,,,,,,,,,,,,,space,0,25,25,25,1,6,0.665,,,,,,,,,,,,,,,,,,,,,,,,,,,,,,,,,,,,,,,,,,,,,,
,,,,,,,,,,,,,,,,,,,,,,,19,female,2020-08-20_14h01.06.321,torte-2b,2020.1.3,MacIntel,60,13225,,,,,,,,,,,,,,0,26,26,26,1,6,,,,,,,,,,,,,,,,,,,,,,,,,,,,,,,,,,,,,,,,,,,,,,,
,,,,,,,,,,,,,,,,,,,,,,,19,female,2020-08-20_14h01.06.321,torte-2b,2020.1.3,MacIntel,60,13225,,,,,,,,,,,,,space,0,27,27,27,1,6,0.59,,,,,,,,,,,,,,,,,,,,,,,,,,,,,,,,,,,,,,,,,,,,,,
,,,,,,,,,,,,,,,,,,,,,,,19,female,2020-08-20_14h01.06.321,torte-2b,2020.1.3,MacIntel,60,13225,,,,,,,,,,,,,,0,28,28,28,1,5,,,,,,,,,,,,,,,,,,,,,,,,,,,,,,,,,,,,,,,,,,,,,,,
,,,,,,,,,,,,,,,,,,,,,,,19,female,2020-08-20_14h01.06.321,torte-2b,2020.1.3,MacIntel,60,13225,,,,,,,,,,,,,space,0,29,29,29,1,2,0.482,,,,,,,,,,,,,,,,,,,,,,,,,,,,,,,,,,,,,,,,,,,,,,
,,,,,,,,,,,,,,,,,,,,,,,19,female,2020-08-20_14h01.06.321,torte-2b,2020.1.3,MacIntel,60,13225,,,,,,,,,,,,,,0,30,30,30,1,5,,,,,,,,,,,,,,,,,,,,,,,,,,,,,,,,,,,,,,,,,,,,,,,
,,,,,,,,,,,,,,,,,,,,,,,19,female,2020-08-20_14h01.06.321,torte-2b,2020.1.3,MacIntel,60,13225,,,,,,,,,,,,,space,0,31,31,31,1,2,0.284,,,,,,,,,,,,,,,,,,,,,,,,,,,,,,,,,,,,,,,,,,,,,,
,,,,,,,,,,,,,,,,,,,,,,,19,female,2020-08-20_14h01.06.321,torte-2b,2020.1.3,MacIntel,60,13225,,,,,,,,,,,,,space,0,32,32,32,1,5,0.851,,,,,,,,,,,,,,,,,,,,,,,,,,,,,,,,,,,,,,,,,,,,,,
,,,,,,,,,,,,,,,,,,,,,,,19,female,2020-08-20_14h01.06.321,torte-2b,2020.1.3,MacIntel,60,13225,,,,,,,,,,,,,,0,33,33,33,1,1,,,,,,,,,,,,,,,,,,,,,,,,,,,,,,,,,,,,,,,,,,,,,,,
,,,,,,,,,,,,,,,,,,,,,,,19,female,2020-08-20_14h01.06.321,torte-2b,2020.1.3,MacIntel,60,13225,,,,,,,,,,,,,,0,34,34,34,1,1,,,,,,,,,,,,,,,,,,,,,,,,,,,,,,,,,,,,,,,,,,,,,,,
,,,,,,,,,,,,,,,,,,,,,,,19,female,2020-08-20_14h01.06.321,torte-2b,2020.1.3,MacIntel,60,13225,,,,,,,,,,,,,,,,,,,2,,0,0,0,0,1,,,,,,,,,,,,,,,,,,,,,,,,,,,,,,,,,,,,,,,,,
,,,,,,,,,,,,,,,,,,,,,,,19,female,2020-08-20_14h01.06.321,torte-2b,2020.1.3,MacIntel,60,13225,,,,,,,,,,,,,,,,,,,2,,0,1,1,1,1,,,,,,,,,,,,,,,,,,,,,,,,,,,,,,,,,,,,,,,,,
,,,,,,,,,,,,,,,,,,,,,,,19,female,2020-08-20_14h01.06.321,torte-2b,2020.1.3,MacIntel,60,13225,,,,,,,,,,,,,,,,,,,6,,0,2,2,2,1,,,,,,,,,,,,,,,,,,,,,,,,,,,,,,,,,,,,,,,,,
,,,,,,,,,,,,,,,,,,,,,,,19,female,2020-08-20_14h01.06.321,torte-2b,2020.1.3,MacIntel,60,13225,,,,,,,,,,,,,space,,,,,,2,0.424,0,3,3,3,1,,,,,,,,,,,,,,,,,,,,,,,,,,,,,,,,,,,,,,,,,
,,,,,,,,,,,,,,,,,,,,,,,19,female,2020-08-20_14h01.06.321,torte-2b,2020.1.3,MacIntel,60,13225,,,,,,,,,,,,,space,,,,,,6,0.626,0,4,4,4,1,,,,,,,,,,,,,,,,,,,,,,,,,,,,,,,,,,,,,,,,,
,,,,,,,,,,,,,,,,,,,,,,,19,female,2020-08-20_14h01.06.321,torte-2b,2020.1.3,MacIntel,60,13225,,,,,,,,,,,,,space,,,,,,2,0.876,0,5,5,5,1,,,,,,,,,,,,,,,,,,,,,,,,,,,,,,,,,,,,,,,,,
,,,,,,,,,,,,,,,,,,,,,,,19,female,2020-08-20_14h01.06.321,torte-2b,2020.1.3,MacIntel,60,13225,,,,,,,,,,,,,,,,,,,7,,0,6,6,6,1,,,,,,,,,,,,,,,,,,,,,,,,,,,,,,,,,,,,,,,,,
,,,,,,,,,,,,,,,,,,,,,,,19,female,2020-08-20_14h01.06.321,torte-2b,2020.1.3,MacIntel,60,13225,,,,,,,,,,,,,space,,,,,,2,0.568,0,7,7,7,1,,,,,,,,,,,,,,,,,,,,,,,,,,,,,,,,,,,,,,,,,
,,,,,,,,,,,,,,,,,,,,,,,19,female,2020-08-20_14h01.06.321,torte-2b,2020.1.3,MacIntel,60,13225,,,,,,,,,,,,,,,,,,,7,,0,8,8,8,1,,,,,,,,,,,,,,,,,,,,,,,,,,,,,,,,,,,,,,,,,
,,,,,,,,,,,,,,,,,,,,,,,19,female,2020-08-20_14h01.06.321,torte-2b,2020.1.3,MacIntel,60,13225,,,,,,,,,,,,,,,,,,,2,,0,9,9,9,1,,,,,,,,,,,,,,,,,,,,,,,,,,,,,,,,,,,,,,,,,
,,,,,,,,,,,,,,,,,,,,,,,19,female,2020-08-20_14h01.06.321,torte-2b,2020.1.3,MacIntel,60,13225,,,,,,,,,,,,,,,,,,,5,,0,10,10,10,1,,,,,,,,,,,,,,,,,,,,,,,,,,,,,,,,,,,,,,,,,
,,,,,,,,,,,,,,,,,,,,,,,19,female,2020-08-20_14h01.06.321,torte-2b,2020.1.3,MacIntel,60,13225,,,,,,,,,,,,,,,,,,,4,,0,11,11,11,1,,,,,,,,,,,,,,,,,,,,,,,,,,,,,,,,,,,,,,,,,
,,,,,,,,,,,,,,,,,,,,,,,19,female,2020-08-20_14h01.06.321,torte-2b,2020.1.3,MacIntel,60,13225,,,,,,,,,,,,,space,,,,,,5,0.667,0,12,12,12,1,,,,,,,,,,,,,,,,,,,,,,,,,,,,,,,,,,,,,,,,,
,,,,,,,,,,,,,,,,,,,,,,,19,female,2020-08-20_14h01.06.321,torte-2b,2020.1.3,MacIntel,60,13225,,,,,,,,,,,,,space,,,,,,6,0.626,0,13,13,13,1,,,,,,,,,,,,,,,,,,,,,,,,,,,,,,,,,,,,,,,,,
,,,,,,,,,,,,,,,,,,,,,,,19,female,2020-08-20_14h01.06.321,torte-2b,2020.1.3,MacIntel,60,13225,,,,,,,,,,,,,space,,,,,,5,0.581,0,14,14,14,1,,,,,,,,,,,,,,,,,,,,,,,,,,,,,,,,,,,,,,,,,
,,,,,,,,,,,,,,,,,,,,,,,19,female,2020-08-20_14h01.06.321,torte-2b,2020.1.3,MacIntel,60,13225,,,,,,,,,,,,,space,,,,,,4,0.953,0,15,15,15,1,,,,,,,,,,,,,,,,,,,,,,,,,,,,,,,,,,,,,,,,,
,,,,,,,,,,,,,,,,,,,,,,,19,female,2020-08-20_14h01.06.321,torte-2b,2020.1.3,MacIntel,60,13225,,,,,,,,,,,,,,,,,,,5,,0,16,16,16,1,,,,,,,,,,,,,,,,,,,,,,,,,,,,,,,,,,,,,,,,,
,,,,,,,,,,,,,,,,,,,,,,,19,female,2020-08-20_14h01.06.321,torte-2b,2020.1.3,MacIntel,60,13225,,,,,,,,,,,,,,,,,,,3,,0,17,17,17,1,,,,,,,,,,,,,,,,,,,,,,,,,,,,,,,,,,,,,,,,,
,,,,,,,,,,,,,,,,,,,,,,,19,female,2020-08-20_14h01.06.321,torte-2b,2020.1.3,MacIntel,60,13225,,,,,,,,,,,,,,,,,,,6,,0,18,18,18,1,,,,,,,,,,,,,,,,,,,,,,,,,,,,,,,,,,,,,,,,,
,,,,,,,,,,,,,,,,,,,,,,,19,female,2020-08-20_14h01.06.321,torte-2b,2020.1.3,MacIntel,60,13225,,,,,,,,,,,,,space,,,,,,6,0.855,0,19,19,19,1,,,,,,,,,,,,,,,,,,,,,,,,,,,,,,,,,,,,,,,,,
,,,,,,,,,,,,,,,,,,,,,,,19,female,2020-08-20_14h01.06.321,torte-2b,2020.1.3,MacIntel,60,13225,,,,,,,,,,,,,space,,,,,,6,0.712,0,20,20,20,1,,,,,,,,,,,,,,,,,,,,,,,,,,,,,,,,,,,,,,,,,
,,,,,,,,,,,,,,,,,,,,,,,19,female,2020-08-20_14h01.06.321,torte-2b,2020.1.3,MacIntel,60,13225,,,,,,,,,,,,,,,,,,,4,,0,21,21,21,1,,,,,,,,,,,,,,,,,,,,,,,,,,,,,,,,,,,,,,,,,
,,,,,,,,,,,,,,,,,,,,,,,19,female,2020-08-20_14h01.06.321,torte-2b,2020.1.3,MacIntel,60,13225,,,,,,,,,,,,,,,,,,,6,,0,22,22,22,1,,,,,,,,,,,,,,,,,,,,,,,,,,,,,,,,,,,,,,,,,
,,,,,,,,,,,,,,,,,,,,,,,19,female,2020-08-20_14h01.06.321,torte-2b,2020.1.3,MacIntel,60,13225,,,,,,,,,,,,,space,,,,,,4,0.54,0,23,23,23,1,,,,,,,,,,,,,,,,,,,,,,,,,,,,,,,,,,,,,,,,,
,,,,,,,,,,,,,,,,,,,,,,,19,female,2020-08-20_14h01.06.321,torte-2b,2020.1.3,MacIntel,60,13225,,,,,,,,,,,,,space,,,,,,6,0.387,0,24,24,24,1,,,,,,,,,,,,,,,,,,,,,,,,,,,,,,,,,,,,,,,,,
,,,,,,,,,,,,,,,,,,,,,,,19,female,2020-08-20_14h01.06.321,torte-2b,2020.1.3,MacIntel,60,13225,,,,,,,,,,,,,,,,,,,6,,0,25,25,25,1,,,,,,,,,,,,,,,,,,,,,,,,,,,,,,,,,,,,,,,,,
,,,,,,,,,,,,,,,,,,,,,,,19,female,2020-08-20_14h01.06.321,torte-2b,2020.1.3,MacIntel,60,13225,,,,,,,,,,,,,,,,,,,7,,0,26,26,26,1,,,,,,,,,,,,,,,,,,,,,,,,,,,,,,,,,,,,,,,,,
,,,,,,,,,,,,,,,,,,,,,,,19,female,2020-08-20_14h01.06.321,torte-2b,2020.1.3,MacIntel,60,13225,,,,,,,,,,,,,,,,,,,1,,0,27,27,27,1,,,,,,,,,,,,,,,,,,,,,,,,,,,,,,,,,,,,,,,,,
,,,,,,,,,,,,,,,,,,,,,,,19,female,2020-08-20_14h01.06.321,torte-2b,2020.1.3,MacIntel,60,13225,,,,,,,,,,,,,space,,,,,,7,0.519,0,28,28,28,1,,,,,,,,,,,,,,,,,,,,,,,,,,,,,,,,,,,,,,,,,
,,,,,,,,,,,,,,,,,,,,,,,19,female,2020-08-20_14h01.06.321,torte-2b,2020.1.3,MacIntel,60,13225,,,,,,,,,,,,,,,,,,,4,,0,29,29,29,1,,,,,,,,,,,,,,,,,,,,,,,,,,,,,,,,,,,,,,,,,
,,,,,,,,,,,,,,,,,,,,,,,19,female,2020-08-20_14h01.06.321,torte-2b,2020.1.3,MacIntel,60,13225,,,,,,,,,,,,,space,,,,,,7,1.086,0,30,30,30,1,,,,,,,,,,,,,,,,,,,,,,,,,,,,,,,,,,,,,,,,,
,,,,,,,,,,,,,,,,,,,,,,,19,female,2020-08-20_14h01.06.321,torte-2b,2020.1.3,MacIntel,60,13225,,,,,,,,,,,,,,,,,,,3,,0,31,31,31,1,,,,,,,,,,,,,,,,,,,,,,,,,,,,,,,,,,,,,,,,,
,,,,,,,,,,,,,,,,,,,,,,,19,female,2020-08-20_14h01.06.321,torte-2b,2020.1.3,MacIntel,60,13225,,,,,,,,,,,,,,,,,,,2,,0,32,32,32,1,,,,,,,,,,,,,,,,,,,,,,,,,,,,,,,,,,,,,,,,,
,,,,,,,,,,,,,,,,,,,,,,,19,female,2020-08-20_14h01.06.321,torte-2b,2020.1.3,MacIntel,60,13225,,,,,,,,,,,,,,,,,,,6,,0,33,33,33,1,,,,,,,,,,,,,,,,,,,,,,,,,,,,,,,,,,,,,,,,,
,,,,,,,,,,,,,,,,,,,,,,,19,female,2020-08-20_14h01.06.321,torte-2b,2020.1.3,MacIntel,60,13225,,,,,,,,,,,,,space,,,,,,3,0.418,0,34,34,34,1,,,,,,,,,,,,,,,,,,,,,,,,,,,,,,,,,,,,,,,,,
,,,,,,,,,,,,,,,,,,,,,,,19,female,2020-08-20_14h01.06.321,torte-2b,2020.1.3,MacIntel,60,13225,,,,,,,,,,,,,,,,,,,7,,,,,,,0,0,0,0,1,,,,,,,,,,,,,,,,,,,,,,,,,,,,,,,,,,,,
,,,,,,,,,,,,,,,,,,,,,,,19,female,2020-08-20_14h01.06.321,torte-2b,2020.1.3,MacIntel,60,13225,,,,,,,,,,,,,,,,,,,5,,,,,,,0,1,1,1,1,,,,,,,,,,,,,,,,,,,,,,,,,,,,,,,,,,,,
,,,,,,,,,,,,,,,,,,,,,,,19,female,2020-08-20_14h01.06.321,torte-2b,2020.1.3,MacIntel,60,13225,,,,,,,,,,,,,,,,,,,4,,,,,,,0,2,2,2,1,,,,,,,,,,,,,,,,,,,,,,,,,,,,,,,,,,,,
,,,,,,,,,,,,,,,,,,,,,,,19,female,2020-08-20_14h01.06.321,torte-2b,2020.1.3,MacIntel,60,13225,,,,,,,,,,,,,space,,,,,,5,0.62,,,,,,0,3,3,3,1,,,,,,,,,,,,,,,,,,,,,,,,,,,,,,,,,,,,
,,,,,,,,,,,,,,,,,,,,,,,19,female,2020-08-20_14h01.06.321,torte-2b,2020.1.3,MacIntel,60,13225,,,,,,,,,,,,,,,,,,,6,,,,,,,0,4,4,4,1,,,,,,,,,,,,,,,,,,,,,,,,,,,,,,,,,,,,
,,,,,,,,,,,,,,,,,,,,,,,19,female,2020-08-20_14h01.06.321,torte-2b,2020.1.3,MacIntel,60,13225,,,,,,,,,,,,,space,,,,,,5,0.633,,,,,,0,5,5,5,1,,,,,,,,,,,,,,,,,,,,,,,,,,,,,,,,,,,,
,,,,,,,,,,,,,,,,,,,,,,,19,female,2020-08-20_14h01.06.321,torte-2b,2020.1.3,MacIntel,60,13225,,,,,,,,,,,,,,,,,,,3,,,,,,,0,6,6,6,1,,,,,,,,,,,,,,,,,,,,,,,,,,,,,,,,,,,,
,,,,,,,,,,,,,,,,,,,,,,,19,female,2020-08-20_14h01.06.321,torte-2b,2020.1.3,MacIntel,60,13225,,,,,,,,,,,,,space,,,,,,4,0.242,,,,,,0,7,7,7,1,,,,,,,,,,,,,,,,,,,,,,,,,,,,,,,,,,,,
,,,,,,,,,,,,,,,,,,,,,,,19,female,2020-08-20_14h01.06.321,torte-2b,2020.1.3,MacIntel,60,13225,,,,,,,,,,,,,space,,,,,,3,0.608,,,,,,0,8,8,8,1,,,,,,,,,,,,,,,,,,,,,,,,,,,,,,,,,,,,
,,,,,,,,,,,,,,,,,,,,,,,19,female,2020-08-20_14h01.06.321,torte-2b,2020.1.3,MacIntel,60,13225,,,,,,,,,,,,,,,,,,,1,,,,,,,0,9,9,9,1,,,,,,,,,,,,,,,,,,,,,,,,,,,,,,,,,,,,
,,,,,,,,,,,,,,,,,,,,,,,19,female,2020-08-20_14h01.06.321,torte-2b,2020.1.3,MacIntel,60,13225,,,,,,,,,,,,,,,,,,,2,,,,,,,0,10,10,10,1,,,,,,,,,,,,,,,,,,,,,,,,,,,,,,,,,,,,
,,,,,,,,,,,,,,,,,,,,,,,19,female,2020-08-20_14h01.06.321,torte-2b,2020.1.3,MacIntel,60,13225,,,,,,,,,,,,,space,,,,,,1,0.41,,,,,,0,11,11,11,1,,,,,,,,,,,,,,,,,,,,,,,,,,,,,,,,,,,,
,,,,,,,,,,,,,,,,,,,,,,,19,female,2020-08-20_14h01.06.321,torte-2b,2020.1.3,MacIntel,60,13225,,,,,,,,,,,,,space,,,,,,2,0.41,,,,,,0,12,12,12,1,,,,,,,,,,,,,,,,,,,,,,,,,,,,,,,,,,,,
,,,,,,,,,,,,,,,,,,,,,,,19,female,2020-08-20_14h01.06.321,torte-2b,2020.1.3,MacIntel,60,13225,,,,,,,,,,,,,space,,,,,,1,0.598,,,,,,0,13,13,13,1,,,,,,,,,,,,,,,,,,,,,,,,,,,,,,,,,,,,
,,,,,,,,,,,,,,,,,,,,,,,19,female,2020-08-20_14h01.06.321,torte-2b,2020.1.3,MacIntel,60,13225,,,,,,,,,,,,,,,,,,,3,,,,,,,0,14,14,14,1,,,,,,,,,,,,,,,,,,,,,,,,,,,,,,,,,,,,
,,,,,,,,,,,,,,,,,,,,,,,19,female,2020-08-20_14h01.06.321,torte-2b,2020.1.3,MacIntel,60,13225,,,,,,,,,,,,,space,,,,,,1,0.442,,,,,,0,15,15,15,1,,,,,,,,,,,,,,,,,,,,,,,,,,,,,,,,,,,,
,,,,,,,,,,,,,,,,,,,,,,,19,female,2020-08-20_14h01.06.321,torte-2b,2020.1.3,MacIntel,60,13225,,,,,,,,,,,,,,,,,,,7,,,,,,,0,16,16,16,1,,,,,,,,,,,,,,,,,,,,,,,,,,,,,,,,,,,,
,,,,,,,,,,,,,,,,,,,,,,,19,female,2020-08-20_14h01.06.321,torte-2b,2020.1.3,MacIntel,60,13225,,,,,,,,,,,,,,,,,,,7,,,,,,,0,17,17,17,1,,,,,,,,,,,,,,,,,,,,,,,,,,,,,,,,,,,,
,,,,,,,,,,,,,,,,,,,,,,,19,female,2020-08-20_14h01.06.321,torte-2b,2020.1.3,MacIntel,60,13225,,,,,,,,,,,,,,,,,,,4,,,,,,,0,18,18,18,1,,,,,,,,,,,,,,,,,,,,,,,,,,,,,,,,,,,,
,,,,,,,,,,,,,,,,,,,,,,,19,female,2020-08-20_14h01.06.321,torte-2b,2020.1.3,MacIntel,60,13225,,,,,,,,,,,,,space,,,,,,7,0.419,,,,,,0,19,19,19,1,,,,,,,,,,,,,,,,,,,,,,,,,,,,,,,,,,,,
,,,,,,,,,,,,,,,,,,,,,,,19,female,2020-08-20_14h01.06.321,torte-2b,2020.1.3,MacIntel,60,13225,,,,,,,,,,,,,,,,,,,3,,,,,,,0,20,20,20,1,,,,,,,,,,,,,,,,,,,,,,,,,,,,,,,,,,,,
,,,,,,,,,,,,,,,,,,,,,,,19,female,2020-08-20_14h01.06.321,torte-2b,2020.1.3,MacIntel,60,13225,,,,,,,,,,,,,space,,,,,,7,0.434,,,,,,0,21,21,21,1,,,,,,,,,,,,,,,,,,,,,,,,,,,,,,,,,,,,
,,,,,,,,,,,,,,,,,,,,,,,19,female,2020-08-20_14h01.06.321,torte-2b,2020.1.3,MacIntel,60,13225,,,,,,,,,,,,,space,,,,,,3,0.388,,,,,,0,22,22,22,1,,,,,,,,,,,,,,,,,,,,,,,,,,,,,,,,,,,,
,,,,,,,,,,,,,,,,,,,,,,,19,female,2020-08-20_14h01.06.321,torte-2b,2020.1.3,MacIntel,60,13225,,,,,,,,,,,,,,,,,,,1,,,,,,,0,23,23,23,1,,,,,,,,,,,,,,,,,,,,,,,,,,,,,,,,,,,,
,,,,,,,,,,,,,,,,,,,,,,,19,female,2020-08-20_14h01.06.321,torte-2b,2020.1.3,MacIntel,60,13225,,,,,,,,,,,,,,,,,,,6,,,,,,,0,24,24,24,1,,,,,,,,,,,,,,,,,,,,,,,,,,,,,,,,,,,,
,,,,,,,,,,,,,,,,,,,,,,,19,female,2020-08-20_14h01.06.321,torte-2b,2020.1.3,MacIntel,60,13225,,,,,,,,,,,,,,,,,,,3,,,,,,,0,25,25,25,1,,,,,,,,,,,,,,,,,,,,,,,,,,,,,,,,,,,,
,,,,,,,,,,,,,,,,,,,,,,,19,female,2020-08-20_14h01.06.321,torte-2b,2020.1.3,MacIntel,60,13225,,,,,,,,,,,,,,,,,,,2,,,,,,,0,26,26,26,1,,,,,,,,,,,,,,,,,,,,,,,,,,,,,,,,,,,,
,,,,,,,,,,,,,,,,,,,,,,,19,female,2020-08-20_14h01.06.321,torte-2b,2020.1.3,MacIntel,60,13225,,,,,,,,,,,,,space,,,,,,3,0.299,,,,,,0,27,27,27,1,,,,,,,,,,,,,,,,,,,,,,,,,,,,,,,,,,,,
,,,,,,,,,,,,,,,,,,,,,,,19,female,2020-08-20_14h01.06.321,torte-2b,2020.1.3,MacIntel,60,13225,,,,,,,,,,,,,,,,,,,1,,,,,,,0,28,28,28,1,,,,,,,,,,,,,,,,,,,,,,,,,,,,,,,,,,,,
,,,,,,,,,,,,,,,,,,,,,,,19,female,2020-08-20_14h01.06.321,torte-2b,2020.1.3,MacIntel,60,13225,,,,,,,,,,,,,,,,,,,3,,,,,,,0,29,29,29,1,,,,,,,,,,,,,,,,,,,,,,,,,,,,,,,,,,,,
,,,,,,,,,,,,,,,,,,,,,,,19,female,2020-08-20_14h01.06.321,torte-2b,2020.1.3,MacIntel,60,13225,,,,,,,,,,,,,space,,,,,,1,0.553,,,,,,0,30,30,30,1,,,,,,,,,,,,,,,,,,,,,,,,,,,,,,,,,,,,
,,,,,,,,,,,,,,,,,,,,,,,19,female,2020-08-20_14h01.06.321,torte-2b,2020.1.3,MacIntel,60,13225,,,,,,,,,,,,,,,,,,,7,,,,,,,0,31,31,31,1,,,,,,,,,,,,,,,,,,,,,,,,,,,,,,,,,,,,
,,,,,,,,,,,,,,,,,,,,,,,19,female,2020-08-20_14h01.06.321,torte-2b,2020.1.3,MacIntel,60,13225,,,,,,,,,,,,,,,,,,,5,,,,,,,0,32,32,32,1,,,,,,,,,,,,,,,,,,,,,,,,,,,,,,,,,,,,
,,,,,,,,,,,,,,,,,,,,,,,19,female,2020-08-20_14h01.06.321,torte-2b,2020.1.3,MacIntel,60,13225,,,,,,,,,,,,,space,,,,,,7,0.371,,,,,,0,33,33,33,1,,,,,,,,,,,,,,,,,,,,,,,,,,,,,,,,,,,,
,,,,,,,,,,,,,,,,,,,,,,,19,female,2020-08-20_14h01.06.321,torte-2b,2020.1.3,MacIntel,60,13225,,,,,,,,,,,,,,,,,,,2,,,,,,,0,34,34,34,1,,,,,,,,,,,,,,,,,,,,,,,,,,,,,,,,,,,,
,,,,,,,,,,,,,,,,,,,,,,,19,female,2020-08-20_14h01.06.321,torte-2b,2020.1.3,MacIntel,60,13225,,,,,,,,,,,,,,,,,,,3,,,,,,,,,,,,0,0,0,0,1,,,,,,,,,,,,,,,,,,,,,,,,,,,,,,,
,,,,,,,,,,,,,,,,,,,,,,,19,female,2020-08-20_14h01.06.321,torte-2b,2020.1.3,MacIntel,60,13225,,,,,,,,,,,,,,,,,,,7,,,,,,,,,,,,0,1,1,1,1,,,,,,,,,,,,,,,,,,,,,,,,,,,,,,,
,,,,,,,,,,,,,,,,,,,,,,,19,female,2020-08-20_14h01.06.321,torte-2b,2020.1.3,MacIntel,60,13225,,,,,,,,,,,,,,,,,,,7,,,,,,,,,,,,0,2,2,2,1,,,,,,,,,,,,,,,,,,,,,,,,,,,,,,,
,,,,,,,,,,,,,,,,,,,,,,,19,female,2020-08-20_14h01.06.321,torte-2b,2020.1.3,MacIntel,60,13225,,,,,,,,,,,,,,,,,,,4,,,,,,,,,,,,0,3,3,3,1,,,,,,,,,,,,,,,,,,,,,,,,,,,,,,,
,,,,,,,,,,,,,,,,,,,,,,,19,female,2020-08-20_14h01.06.321,torte-2b,2020.1.3,MacIntel,60,13225,,,,,,,,,,,,,,,,,,,5,,,,,,,,,,,,0,4,4,4,1,,,,,,,,,,,,,,,,,,,,,,,,,,,,,,,
,,,,,,,,,,,,,,,,,,,,,,,19,female,2020-08-20_14h01.06.321,torte-2b,2020.1.3,MacIntel,60,13225,,,,,,,,,,,,,,,,,,,4,,,,,,,,,,,,0,5,5,5,1,,,,,,,,,,,,,,,,,,,,,,,,,,,,,,,
,,,,,,,,,,,,,,,,,,,,,,,19,female,2020-08-20_14h01.06.321,torte-2b,2020.1.3,MacIntel,60,13225,,,,,,,,,,,,,,,,,,,2,,,,,,,,,,,,0,6,6,6,1,,,,,,,,,,,,,,,,,,,,,,,,,,,,,,,
,,,,,,,,,,,,,,,,,,,,,,,19,female,2020-08-20_14h01.06.321,torte-2b,2020.1.3,MacIntel,60,13225,,,,,,,,,,,,,,,,,,,4,,,,,,,,,,,,0,7,7,7,1,,,,,,,,,,,,,,,,,,,,,,,,,,,,,,,
,,,,,,,,,,,,,,,,,,,,,,,19,female,2020-08-20_14h01.06.321,torte-2b,2020.1.3,MacIntel,60,13225,,,,,,,,,,,,,space,,,,,,2,1.312,,,,,,,,,,,0,8,8,8,1,,,,,,,,,,,,,,,,,,,,,,,,,,,,,,,
,,,,,,,,,,,,,,,,,,,,,,,19,female,2020-08-20_14h01.06.321,torte-2b,2020.1.3,MacIntel,60,13225,,,,,,,,,,,,,space,,,,,,2,0.84,,,,,,,,,,,0,9,9,9,1,,,,,,,,,,,,,,,,,,,,,,,,,,,,,,,
,,,,,,,,,,,,,,,,,,,,,,,19,female,2020-08-20_14h01.06.321,torte-2b,2020.1.3,MacIntel,60,13225,,,,,,,,,,,,,,,,,,,6,,,,,,,,,,,,0,10,10,10,1,,,,,,,,,,,,,,,,,,,,,,,,,,,,,,,
,,,,,,,,,,,,,,,,,,,,,,,19,female,2020-08-20_14h01.06.321,torte-2b,2020.1.3,MacIntel,60,13225,,,,,,,,,,,,,,,,,,,2,,,,,,,,,,,,0,11,11,11,1,,,,,,,,,,,,,,,,,,,,,,,,,,,,,,,
,,,,,,,,,,,,,,,,,,,,,,,19,female,2020-08-20_14h01.06.321,torte-2b,2020.1.3,MacIntel,60,13225,,,,,,,,,,,,,,,,,,,2,,,,,,,,,,,,0,12,12,12,1,,,,,,,,,,,,,,,,,,,,,,,,,,,,,,,
,,,,,,,,,,,,,,,,,,,,,,,19,female,2020-08-20_14h01.06.321,torte-2b,2020.1.3,MacIntel,60,13225,,,,,,,,,,,,,space,,,,,,2,0.728,,,,,,,,,,,0,13,13,13,1,,,,,,,,,,,,,,,,,,,,,,,,,,,,,,,
,,,,,,,,,,,,,,,,,,,,,,,19,female,2020-08-20_14h01.06.321,torte-2b,2020.1.3,MacIntel,60,13225,,,,,,,,,,,,,space,,,,,,2,1.161,,,,,,,,,,,0,14,14,14,1,,,,,,,,,,,,,,,,,,,,,,,,,,,,,,,
,,,,,,,,,,,,,,,,,,,,,,,19,female,2020-08-20_14h01.06.321,torte-2b,2020.1.3,MacIntel,60,13225,,,,,,,,,,,,,,,,,,,4,,,,,,,,,,,,0,15,15,15,1,,,,,,,,,,,,,,,,,,,,,,,,,,,,,,,
,,,,,,,,,,,,,,,,,,,,,,,19,female,2020-08-20_14h01.06.321,torte-2b,2020.1.3,MacIntel,60,13225,,,,,,,,,,,,,,,,,,,3,,,,,,,,,,,,0,16,16,16,1,,,,,,,,,,,,,,,,,,,,,,,,,,,,,,,
,,,,,,,,,,,,,,,,,,,,,,,19,female,2020-08-20_14h01.06.321,torte-2b,2020.1.3,MacIntel,60,13225,,,,,,,,,,,,,,,,,,,7,,,,,,,,,,,,0,17,17,17,1,,,,,,,,,,,,,,,,,,,,,,,,,,,,,,,
,,,,,,,,,,,,,,,,,,,,,,,19,female,2020-08-20_14h01.06.321,torte-2b,2020.1.3,MacIntel,60,13225,,,,,,,,,,,,,,,,,,,4,,,,,,,,,,,,0,18,18,18,1,,,,,,,,,,,,,,,,,,,,,,,,,,,,,,,
,,,,,,,,,,,,,,,,,,,,,,,19,female,2020-08-20_14h01.06.321,torte-2b,2020.1.3,MacIntel,60,13225,,,,,,,,,,,,,space,,,,,,7,0.382,,,,,,,,,,,0,19,19,19,1,,,,,,,,,,,,,,,,,,,,,,,,,,,,,,,
,,,,,,,,,,,,,,,,,,,,,,,19,female,2020-08-20_14h01.06.321,torte-2b,2020.1.3,MacIntel,60,13225,,,,,,,,,,,,,,,,,,,7,,,,,,,,,,,,0,20,20,20,1,,,,,,,,,,,,,,,,,,,,,,,,,,,,,,,
,,,,,,,,,,,,,,,,,,,,,,,19,female,2020-08-20_14h01.06.321,torte-2b,2020.1.3,MacIntel,60,13225,,,,,,,,,,,,,space,,,,,,7,0.827,,,,,,,,,,,0,21,21,21,1,,,,,,,,,,,,,,,,,,,,,,,,,,,,,,,
,,,,,,,,,,,,,,,,,,,,,,,19,female,2020-08-20_14h01.06.321,torte-2b,2020.1.3,MacIntel,60,13225,,,,,,,,,,,,,space,,,,,,7,0.77,,,,,,,,,,,0,22,22,22,1,,,,,,,,,,,,,,,,,,,,,,,,,,,,,,,
,,,,,,,,,,,,,,,,,,,,,,,19,female,2020-08-20_14h01.06.321,torte-2b,2020.1.3,MacIntel,60,13225,,,,,,,,,,,,,,,,,,,1,,,,,,,,,,,,0,23,23,23,1,,,,,,,,,,,,,,,,,,,,,,,,,,,,,,,
,,,,,,,,,,,,,,,,,,,,,,,19,female,2020-08-20_14h01.06.321,torte-2b,2020.1.3,MacIntel,60,13225,,,,,,,,,,,,,,,,,,,7,,,,,,,,,,,,0,24,24,24,1,,,,,,,,,,,,,,,,,,,,,,,,,,,,,,,
,,,,,,,,,,,,,,,,,,,,,,,19,female,2020-08-20_14h01.06.321,torte-2b,2020.1.3,MacIntel,60,13225,,,,,,,,,,,,,space,,,,,,1,0.388,,,,,,,,,,,0,25,25,25,1,,,,,,,,,,,,,,,,,,,,,,,,,,,,,,,
,,,,,,,,,,,,,,,,,,,,,,,19,female,2020-08-20_14h01.06.321,torte-2b,2020.1.3,MacIntel,60,13225,,,,,,,,,,,,,space,,,,,,7,0.393,,,,,,,,,,,0,26,26,26,1,,,,,,,,,,,,,,,,,,,,,,,,,,,,,,,
,,,,,,,,,,,,,,,,,,,,,,,19,female,2020-08-20_14h01.06.321,torte-2b,2020.1.3,MacIntel,60,13225,,,,,,,,,,,,,,,,,,,2,,,,,,,,,,,,0,27,27,27,1,,,,,,,,,,,,,,,,,,,,,,,,,,,,,,,
,,,,,,,,,,,,,,,,,,,,,,,19,female,2020-08-20_14h01.06.321,torte-2b,2020.1.3,MacIntel,60,13225,,,,,,,,,,,,,,,,,,,5,,,,,,,,,,,,0,28,28,28,1,,,,,,,,,,,,,,,,,,,,,,,,,,,,,,,
,,,,,,,,,,,,,,,,,,,,,,,19,female,2020-08-20_14h01.06.321,torte-2b,2020.1.3,MacIntel,60,13225,,,,,,,,,,,,,,,,,,,5,,,,,,,,,,,,0,29,29,29,1,,,,,,,,,,,,,,,,,,,,,,,,,,,,,,,
,,,,,,,,,,,,,,,,,,,,,,,19,female,2020-08-20_14h01.06.321,torte-2b,2020.1.3,MacIntel,60,13225,,,,,,,,,,,,,space,,,,,,5,0.368,,,,,,,,,,,0,30,30,30,1,,,,,,,,,,,,,,,,,,,,,,,,,,,,,,,
,,,,,,,,,,,,,,,,,,,,,,,19,female,2020-08-20_14h01.06.321,torte-2b,2020.1.3,MacIntel,60,13225,,,,,,,,,,,,,,,,,,,1,,,,,,,,,,,,0,31,31,31,1,,,,,,,,,,,,,,,,,,,,,,,,,,,,,,,
,,,,,,,,,,,,,,,,,,,,,,,19,female,2020-08-20_14h01.06.321,torte-2b,2020.1.3,MacIntel,60,13225,,,,,,,,,,,,,space,,,,,,5,0.524,,,,,,,,,,,0,32,32,32,1,,,,,,,,,,,,,,,,,,,,,,,,,,,,,,,
,,,,,,,,,,,,,,,,,,,,,,,19,female,2020-08-20_14h01.06.321,torte-2b,2020.1.3,MacIntel,60,13225,,,,,,,,,,,,,,,,,,,3,,,,,,,,,,,,0,33,33,33,1,,,,,,,,,,,,,,,,,,,,,,,,,,,,,,,
,,,,,,,,,,,,,,,,,,,,,,,19,female,2020-08-20_14h01.06.321,torte-2b,2020.1.3,MacIntel,60,13225,,,,,,,,,,,,,,,,,,,3,,,,,,,,,,,,0,34,34,34,1,,,,,,,,,,,,,,,,,,,,,,,,,,,,,,,
,,,,,,,,,,,,a,Incorrect,,,,,,t4.png,t1.png,3,0.0000131,19,female,2020-08-20_14h01.06.321,torte-2b,2020.1.3,MacIntel,60,13225,2.028,space,1.715,,,,,,,,,,,,,,,,,,,,,,,,,,,,,,,,,space,9.629,0,0,0,91,1,,,,,,,,,,,,,,,,,,,,,,,,
,,,,,,,,,,,,a,Incorrect,,,,,,t5.png,t3.png,2,0.056466,19,female,2020-08-20_14h01.06.321,torte-2b,2020.1.3,MacIntel,60,13225,1.173,,,,,,,,,,,,,,,,,,,,,,,,,,,,,,,,,,,,,0,1,1,27,1,,,,,,,,,,,,,,,,,,,,,,,,
,,,,,,,,,,,,l,Correct!,,,,,,t1.png,t3.png,2,0.056466,19,female,2020-08-20_14h01.06.321,torte-2b,2020.1.3,MacIntel,60,13225,0.739,,,,,,,,,,,,,,,,,,,,,,,,,,,,,,,,,,,,,0,2,2,24,1,,,,,,,,,,,,,,,,,,,,,,,,
,,,,,,,,,,,,l,Incorrect,,,,,,t2.png,t3.png,1,0.909,19,female,2020-08-20_14h01.06.321,torte-2b,2020.1.3,MacIntel,60,13225,1.176,,,,,,,,,,,,,,,,,,,,,,,,,,,,,,,,,,,,,0,3,3,8,1,,,,,,,,,,,,,,,,,,,,,,,,
,,,,,,,,,,,,l,Correct!,,,,,,t3.png,t4.png,1,0.90855,19,female,2020-08-20_14h01.06.321,torte-2b,2020.1.3,MacIntel,60,13225,1.229,,,,,,,,,,,,,,,,,,,,,,,,,,,,,,,,,,,,,0,4,4,58,1,,,,,,,,,,,,,,,,,,,,,,,,
,,,,,,,,,,,,a,Correct!,,,,,,t4.png,t3.png,1,0.909,19,female,2020-08-20_14h01.06.321,torte-2b,2020.1.3,MacIntel,60,13225,2.081,,,,,,,,,,,,,,,,,,,,,,,,,,,,,,,,,,,,,0,5,5,119,1,,,,,,,,,,,,,,,,,,,,,,,,
,,,,,,,,,,,,l,Correct!,,,,,,t4.png,t1.png,3,0.0000131,19,female,2020-08-20_14h01.06.321,torte-2b,2020.1.3,MacIntel,60,13225,1.863,,,,,,,,,,,,,,,,,,,,,,,,,,,,,,,,,,,,,0,6,6,102,1,,,,,,,,,,,,,,,,,,,,,,,,
,,,,,,,,,,,,a,Incorrect,,,,,,t2.png,t5.png,3,0.0000131,19,female,2020-08-20_14h01.06.321,torte-2b,2020.1.3,MacIntel,60,13225,1.582,,,,,,,,,,,,,,,,,,,,,,,,,,,,,,,,,,,,,0,7,7,39,1,,,,,,,,,,,,,,,,,,,,,,,,
,,,,,,,,,,,,a,Correct!,,,,,,t3.png,t4.png,1,0.90855,19,female,2020-08-20_14h01.06.321,torte-2b,2020.1.3,MacIntel,60,13225,1.694,,,,,,,,,,,,,,,,,,,,,,,,,,,,,,,,,,,,,0,8,8,111,1,,,,,,,,,,,,,,,,,,,,,,,,
,,,,,,,,,,,,l,Correct!,,,,,,t1.png,t5.png,4,9.55E-11,19,female,2020-08-20_14h01.06.321,torte-2b,2020.1.3,MacIntel,60,13225,0.992,,,,,,,,,,,,,,,,,,,,,,,,,,,,,,,,,,,,,0,9,9,3,1,,,,,,,,,,,,,,,,,,,,,,,,
,,,,,,,,,,,,l,Correct!,,,,,,t1.png,t5.png,4,9.55E-11,19,female,2020-08-20_14h01.06.321,torte-2b,2020.1.3,MacIntel,60,13225,0.727,,,,,,,,,,,,,,,,,,,,,,,,,,,,,,,,,,,,,0,10,10,30,1,,,,,,,,,,,,,,,,,,,,,,,,
,,,,,,,,,,,,l,Incorrect,,,,,,t2.png,t2.png,0,0.98115,19,female,2020-08-20_14h01.06.321,torte-2b,2020.1.3,MacIntel,60,13225,1.129,,,,,,,,,,,,,,,,,,,,,,,,,,,,,,,,,,,,,0,11,11,69,1,,,,,,,,,,,,,,,,,,,,,,,,
,,,,,,,,,,,,a,Incorrect,,,,,,t4.png,t5.png,1,0.90025,19,female,2020-08-20_14h01.06.321,torte-2b,2020.1.3,MacIntel,60,13225,0.703,,,,,,,,,,,,,,,,,,,,,,,,,,,,,,,,,,,,,0,12,12,21,1,,,,,,,,,,,,,,,,,,,,,,,,
,,,,,,,,,,,,l,Incorrect,,,,,,t2.png,t2.png,0,0.981,19,female,2020-08-20_14h01.06.321,torte-2b,2020.1.3,MacIntel,60,13225,0.846,,,,,,,,,,,,,,,,,,,,,,,,,,,,,,,,,,,,,0,13,13,98,1,,,,,,,,,,,,,,,,,,,,,,,,
,,,,,,,,,,,,a,Correct!,,,,,,t5.png,t5.png,0,0.978,19,female,2020-08-20_14h01.06.321,torte-2b,2020.1.3,MacIntel,60,13225,1.036,,,,,,,,,,,,,,,,,,,,,,,,,,,,,,,,,,,,,0,14,14,51,1,,,,,,,,,,,,,,,,,,,,,,,,
,,,,,,,,,,,,a,Incorrect,,,,,,t3.png,t5.png,2,0.056466,19,female,2020-08-20_14h01.06.321,torte-2b,2020.1.3,MacIntel,60,13225,2.355,,,,,,,,,,,,,,,,,,,,,,,,,,,,,,,,,,,,,0,15,15,47,1,,,,,,,,,,,,,,,,,,,,,,,,
,,,,,,,,,,,,l,Correct!,,,,,,t1.png,t3.png,2,0.0565,19,female,2020-08-20_14h01.06.321,torte-2b,2020.1.3,MacIntel,60,13225,2.257,,,,,,,,,,,,,,,,,,,,,,,,,,,,,,,,,,,,,0,16,16,42,1,,,,,,,,,,,,,,,,,,,,,,,,
,,,,,,,,,,,,a,Incorrect,,,,,,t2.png,t5.png,3,0.0000131,19,female,2020-08-20_14h01.06.321,torte-2b,2020.1.3,MacIntel,60,13225,1.673,,,,,,,,,,,,,,,,,,,,,,,,,,,,,,,,,,,,,0,17,17,85,1,,,,,,,,,,,,,,,,,,,,,,,,
,,,,,,,,,,,,a,Correct!,,,,,,t1.png,t1.png,0,0.978,19,female,2020-08-20_14h01.06.321,torte-2b,2020.1.3,MacIntel,60,13225,1.502,,,,,,,,,,,,,,,,,,,,,,,,,,,,,,,,,,,,,0,18,18,22,1,,,,,,,,,,,,,,,,,,,,,,,,
,,,,,,,,,,,,l,Correct!,,,,,,t2.png,t4.png,2,0.059078,19,female,2020-08-20_14h01.06.321,torte-2b,2020.1.3,MacIntel,60,13225,1.603,,,,,,,,,,,,,,,,,,,,,,,,,,,,,,,,,,,,,0,19,19,84,1,,,,,,,,,,,,,,,,,,,,,,,,
,,,,,,,,,,,,a,Correct!,,,,,,t5.png,t5.png,0,0.97829,19,female,2020-08-20_14h01.06.321,torte-2b,2020.1.3,MacIntel,60,13225,0.858,,,,,,,,,,,,,,,,,,,,,,,,,,,,,,,,,,,,,0,20,20,77,1,,,,,,,,,,,,,,,,,,,,,,,,
,,,,,,,,,,,,l,Correct!,,,,,,t4.png,t1.png,3,0.0000131,19,female,2020-08-20_14h01.06.321,torte-2b,2020.1.3,MacIntel,60,13225,1.519,,,,,,,,,,,,,,,,,,,,,,,,,,,,,,,,,,,,,0,21,21,28,1,,,,,,,,,,,,,,,,,,,,,,,,
,,,,,,,,,,,,a,Correct!,,,,,,t4.png,t4.png,0,0.98115,19,female,2020-08-20_14h01.06.321,torte-2b,2020.1.3,MacIntel,60,13225,0.846,,,,,,,,,,,,,,,,,,,,,,,,,,,,,,,,,,,,,0,22,22,52,1,,,,,,,,,,,,,,,,,,,,,,,,
,,,,,,,,,,,,a,Correct!,,,,,,t5.png,t4.png,1,0.90025,19,female,2020-08-20_14h01.06.321,torte-2b,2020.1.3,MacIntel,60,13225,0.947,,,,,,,,,,,,,,,,,,,,,,,,,,,,,,,,,,,,,0,23,23,25,1,,,,,,,,,,,,,,,,,,,,,,,,
,,,,,,,,,,,,a,Correct!,,,,,,t3.png,t4.png,1,0.90855,19,female,2020-08-20_14h01.06.321,torte-2b,2020.1.3,MacIntel,60,13225,1.255,,,,,,,,,,,,,,,,,,,,,,,,,,,,,,,,,,,,,0,24,24,103,1,,,,,,,,,,,,,,,,,,,,,,,,
,,,,,,,,,,,,a,Correct!,,,,,,t4.png,t3.png,1,0.909,19,female,2020-08-20_14h01.06.321,torte-2b,2020.1.3,MacIntel,60,13225,0.903,,,,,,,,,,,,,,,,,,,,,,,,,,,,,,,,,,,,,0,25,25,107,1,,,,,,,,,,,,,,,,,,,,,,,,
,,,,,,,,,,,,l,Incorrect,,,,,,t3.png,t2.png,1,0.90855,19,female,2020-08-20_14h01.06.321,torte-2b,2020.1.3,MacIntel,60,13225,0.985,,,,,,,,,,,,,,,,,,,,,,,,,,,,,,,,,,,,,0,26,26,0,1,,,,,,,,,,,,,,,,,,,,,,,,
,,,,,,,,,,,,l,Correct!,,,,,,t1.png,t4.png,3,0.0000131,19,female,2020-08-20_14h01.06.321,torte-2b,2020.1.3,MacIntel,60,13225,1.245,,,,,,,,,,,,,,,,,,,,,,,,,,,,,,,,,,,,,0,27,27,36,1,,,,,,,,,,,,,,,,,,,,,,,,
,,,,,,,,,,,,l,Correct!,,,,,,t1.png,t3.png,2,0.0565,19,female,2020-08-20_14h01.06.321,torte-2b,2020.1.3,MacIntel,60,13225,0.988,,,,,,,,,,,,,,,,,,,,,,,,,,,,,,,,,,,,,0,28,28,95,1,,,,,,,,,,,,,,,,,,,,,,,,
,,,,,,,,,,,,l,Correct!,,,,,,t1.png,t3.png,2,0.0565,19,female,2020-08-20_14h01.06.321,torte-2b,2020.1.3,MacIntel,60,13225,0.721,,,,,,,,,,,,,,,,,,,,,,,,,,,,,,,,,,,,,0,29,29,12,1,,,,,,,,,,,,,,,,,,,,,,,,
,,,,,,,,,,,,a,Correct!,,,,,,t4.png,t4.png,0,0.98115,19,female,2020-08-20_14h01.06.321,torte-2b,2020.1.3,MacIntel,60,13225,1.815,,,,,,,,,,,,,,,,,,,,,,,,,,,,,,,,,,,,,0,30,30,19,1,,,,,,,,,,,,,,,,,,,,,,,,
,,,,,,,,,,,,l,Incorrect,,,,,,t2.png,t3.png,1,0.90855,19,female,2020-08-20_14h01.06.321,torte-2b,2020.1.3,MacIntel,60,13225,1.653,,,,,,,,,,,,,,,,,,,,,,,,,,,,,,,,,,,,,0,31,31,79,1,,,,,,,,,,,,,,,,,,,,,,,,
,,,,,,,,,,,,l,Incorrect,,,,,,t3.png,t2.png,1,0.90855,19,female,2020-08-20_14h01.06.321,torte-2b,2020.1.3,MacIntel,60,13225,0.834,,,,,,,,,,,,,,,,,,,,,,,,,,,,,,,,,,,,,0,32,32,108,1,,,,,,,,,,,,,,,,,,,,,,,,
,,,,,,,,,,,,l,Incorrect,,,,,,t1.png,t2.png,1,0.90025,19,female,2020-08-20_14h01.06.321,torte-2b,2020.1.3,MacIntel,60,13225,1.313,,,,,,,,,,,,,,,,,,,,,,,,,,,,,,,,,,,,,0,33,33,6,1,,,,,,,,,,,,,,,,,,,,,,,,
,,,,,,,,,,,,a,Correct!,,,,,,t5.png,t4.png,1,0.9,19,female,2020-08-20_14h01.06.321,torte-2b,2020.1.3,MacIntel,60,13225,1.375,,,,,,,,,,,,,,,,,,,,,,,,,,,,,,,,,,,,,0,34,34,92,1,,,,,,,,,,,,,,,,,,,,,,,,
,,,,,,,,,,,,a,Correct!,,,,,,t3.png,t4.png,1,0.90855,19,female,2020-08-20_14h01.06.321,torte-2b,2020.1.3,MacIntel,60,13225,1.293,,,,,,,,,,,,,,,,,,,,,,,,,,,,,,,,,,,,,0,35,35,9,1,,,,,,,,,,,,,,,,,,,,,,,,
,,,,,,,,,,,,a,Correct!,,,,,,t4.png,t5.png,1,0.90025,19,female,2020-08-20_14h01.06.321,torte-2b,2020.1.3,MacIntel,60,13225,1.161,,,,,,,,,,,,,,,,,,,,,,,,,,,,,,,,,,,,,0,36,36,33,1,,,,,,,,,,,,,,,,,,,,,,,,
,,,,,,,,,,,,a,Correct!,,,,,,t5.png,t5.png,0,0.97829,19,female,2020-08-20_14h01.06.321,torte-2b,2020.1.3,MacIntel,60,13225,0.645,,,,,,,,,,,,,,,,,,,,,,,,,,,,,,,,,,,,,0,37,37,35,1,,,,,,,,,,,,,,,,,,,,,,,,
,,,,,,,,,,,,l,Correct!,,,,,,t4.png,t1.png,3,0.0000131,19,female,2020-08-20_14h01.06.321,torte-2b,2020.1.3,MacIntel,60,13225,1.546,,,,,,,,,,,,,,,,,,,,,,,,,,,,,,,,,,,,,0,38,38,76,1,,,,,,,,,,,,,,,,,,,,,,,,
,,,,,,,,,,,,a,Incorrect,,,,,,t5.png,t2.png,3,0.0000131,19,female,2020-08-20_14h01.06.321,torte-2b,2020.1.3,MacIntel,60,13225,1.405,,,,,,,,,,,,,,,,,,,,,,,,,,,,,,,,,,,,,0,39,39,48,1,,,,,,,,,,,,,,,,,,,,,,,,
,,,,,,,,,,,,a,Correct!,,,,,,t5.png,t5.png,0,0.978,19,female,2020-08-20_14h01.06.321,torte-2b,2020.1.3,MacIntel,60,13225,0.921,,,,,,,,,,,,,,,,,,,,,,,,,,,,,,,,,,,,,0,40,40,116,1,,,,,,,,,,,,,,,,,,,,,,,,
,,,,,,,,,,,,l,Incorrect,,,,,,t2.png,t3.png,1,0.90855,19,female,2020-08-20_14h01.06.321,torte-2b,2020.1.3,MacIntel,60,13225,2.239,,,,,,,,,,,,,,,,,,,,,,,,,,,,,,,,,,,,,0,41,41,113,1,,,,,,,,,,,,,,,,,,,,,,,,
,,,,,,,,,,,,l,Correct!,,,,,,t1.png,t3.png,2,0.056466,19,female,2020-08-20_14h01.06.321,torte-2b,2020.1.3,MacIntel,60,13225,2.467,,,,,,,,,,,,,,,,,,,,,,,,,,,,,,,,,,,,,0,42,42,32,1,,,,,,,,,,,,,,,,,,,,,,,,
,,,,,,,,,,,,l,Incorrect,,,,,,t3.png,t2.png,1,0.90855,19,female,2020-08-20_14h01.06.321,torte-2b,2020.1.3,MacIntel,60,13225,1.188,,,,,,,,,,,,,,,,,,,,,,,,,,,,,,,,,,,,,0,43,43,94,1,,,,,,,,,,,,,,,,,,,,,,,,
,,,,,,,,,,,,l,Correct!,,,,,,t3.png,t2.png,1,0.90855,19,female,2020-08-20_14h01.06.321,torte-2b,2020.1.3,MacIntel,60,13225,1.071,,,,,,,,,,,,,,,,,,,,,,,,,,,,,,,,,,,,,0,44,44,10,1,,,,,,,,,,,,,,,,,,,,,,,,
,,,,,,,,,,,,a,Incorrect,,,,,,t5.png,t2.png,3,0.0000131,19,female,2020-08-20_14h01.06.321,torte-2b,2020.1.3,MacIntel,60,13225,1.38,,,,,,,,,,,,,,,,,,,,,,,,,,,,,,,,,,,,,0,45,45,82,1,,,,,,,,,,,,,,,,,,,,,,,,
,,,,,,,,,,,,l,Correct!,,,,,,t2.png,t4.png,2,0.059078,19,female,2020-08-20_14h01.06.321,torte-2b,2020.1.3,MacIntel,60,13225,1.381,,,,,,,,,,,,,,,,,,,,,,,,,,,,,,,,,,,,,0,46,46,18,1,,,,,,,,,,,,,,,,,,,,,,,,
,,,,,,,,,,,,a,Incorrect,,,,,,t5.png,t5.png,0,0.97829,19,female,2020-08-20_14h01.06.321,torte-2b,2020.1.3,MacIntel,60,13225,1.085,,,,,,,,,,,,,,,,,,,,,,,,,,,,,,,,,,,,,0,47,47,2,1,,,,,,,,,,,,,,,,,,,,,,,,
,,,,,,,,,,,,a,Incorrect,,,,,,t5.png,t3.png,2,0.056466,19,female,2020-08-20_14h01.06.321,torte-2b,2020.1.3,MacIntel,60,13225,1.446,,,,,,,,,,,,,,,,,,,,,,,,,,,,,,,,,,,,,0,48,48,37,1,,,,,,,,,,,,,,,,,,,,,,,,
,,,,,,,,,,,,l,Incorrect,,,,,,t4.png,t5.png,1,0.90025,19,female,2020-08-20_14h01.06.321,torte-2b,2020.1.3,MacIntel,60,13225,2.447,,,,,,,,,,,,,,,,,,,,,,,,,,,,,,,,,,,,,0,49,49,86,1,,,,,,,,,,,,,,,,,,,,,,,,
,,,,,,,,,,,,,Too slow :(,,,,,,t2.png,t4.png,2,0.059078,19,female,2020-08-20_14h01.06.321,torte-2b,2020.1.3,MacIntel,60,13225,,,,,,,,,,,,,,,,,,,,,,,,,,,,,,,,,,,,,,0,50,50,53,1,,,,,,,,,,,,,,,,,,,,,,,,
,,,,,,,,,,,,,Too slow :(,,,,,,t3.png,t1.png,2,0.056466,19,female,2020-08-20_14h01.06.321,torte-2b,2020.1.3,MacIntel,60,13225,,,,,,,,,,,,,,,,,,,,,,,,,,,,,,,,,,,,,,0,51,51,109,1,,,,,,,,,,,,,,,,,,,,,,,,
,,,,,,,,,,,,l,Correct!,,,,,,t1.png,t4.png,3,0.0000131,19,female,2020-08-20_14h01.06.321,torte-2b,2020.1.3,MacIntel,60,13225,1.374,,,,,,,,,,,,,,,,,,,,,,,,,,,,,,,,,,,,,0,52,52,106,1,,,,,,,,,,,,,,,,,,,,,,,,
,,,,,,,,,,,,a,Correct!,,,,,,t3.png,t4.png,1,0.90855,19,female,2020-08-20_14h01.06.321,torte-2b,2020.1.3,MacIntel,60,13225,1.105,,,,,,,,,,,,,,,,,,,,,,,,,,,,,,,,,,,,,0,53,53,5,1,,,,,,,,,,,,,,,,,,,,,,,,
,,,,,,,,,,,,l,Correct!,,,,,,t3.png,t5.png,2,0.0565,19,female,2020-08-20_14h01.06.321,torte-2b,2020.1.3,MacIntel,60,13225,1.572,,,,,,,,,,,,,,,,,,,,,,,,,,,,,,,,,,,,,0,54,54,71,1,,,,,,,,,,,,,,,,,,,,,,,,
,,,,,,,,,,,,a,Correct!,,,,,,t4.png,t4.png,0,0.98115,19,female,2020-08-20_14h01.06.321,torte-2b,2020.1.3,MacIntel,60,13225,1.202,,,,,,,,,,,,,,,,,,,,,,,,,,,,,,,,,,,,,0,55,55,88,1,,,,,,,,,,,,,,,,,,,,,,,,
,,,,,,,,,,,,l,Correct!,,,,,,t4.png,t1.png,3,0.059078,19,female,2020-08-20_14h01.06.321,torte-2b,2020.1.3,MacIntel,60,13225,1.941,,,,,,,,,,,,,,,,,,,,,,,,,,,,,,,,,,,,,0,56,56,57,1,,,,,,,,,,,,,,,,,,,,,,,,
,,,,,,,,,,,,l,Correct!,,,,,,t1.png,t5.png,4,9.55E-11,19,female,2020-08-20_14h01.06.321,torte-2b,2020.1.3,MacIntel,60,13225,1.102,,,,,,,,,,,,,,,,,,,,,,,,,,,,,,,,,,,,,0,57,57,20,1,,,,,,,,,,,,,,,,,,,,,,,,
,,,,,,,,,,,,a,Correct!,,,,,,t2.png,t3.png,1,0.90855,19,female,2020-08-20_14h01.06.321,torte-2b,2020.1.3,MacIntel,60,13225,1.837,,,,,,,,,,,,,,,,,,,,,,,,,,,,,,,,,,,,,0,58,58,64,1,,,,,,,,,,,,,,,,,,,,,,,,
,,,,,,,,,,,,l,Correct!,,,,,,t3.png,t1.png,2,0.0565,19,female,2020-08-20_14h01.06.321,torte-2b,2020.1.3,MacIntel,60,13225,2.159,,,,,,,,,,,,,,,,,,,,,,,,,,,,,,,,,,,,,0,59,59,40,1,,,,,,,,,,,,,,,,,,,,,,,,
,,,,,,,,,,,,l,Correct!,,,,,,t5.png,t1.png,4,9.55E-11,19,female,2020-08-20_14h01.06.321,torte-2b,2020.1.3,MacIntel,60,13225,1.324,,,,,,,,,,,,,,,,,,,,,,,,,,,,,,,,,,,,,0,60,60,31,1,,,,,,,,,,,,,,,,,,,,,,,,
,,,,,,,,,,,,l,Incorrect,,,,,,t2.png,t2.png,0,0.98115,19,female,2020-08-20_14h01.06.321,torte-2b,2020.1.3,MacIntel,60,13225,0.734,,,,,,,,,,,,,,,,,,,,,,,,,,,,,,,,,,,,,0,61,61,112,1,,,,,,,,,,,,,,,,,,,,,,,,
,,,,,,,,,,,,a,Correct!,,,,,,t1.png,t1.png,0,0.97829,19,female,2020-08-20_14h01.06.321,torte-2b,2020.1.3,MacIntel,60,13225,0.961,,,,,,,,,,,,,,,,,,,,,,,,,,,,,,,,,,,,,0,62,62,110,1,,,,,,,,,,,,,,,,,,,,,,,,
,,,,,,,,,,,,,Too slow :(,,,,,,t5.png,t2.png,3,0.0000131,19,female,2020-08-20_14h01.06.321,torte-2b,2020.1.3,MacIntel,60,13225,,,,,,,,,,,,,,,,,,,,,,,,,,,,,,,,,,,,,,0,63,63,83,1,,,,,,,,,,,,,,,,,,,,,,,,
,,,,,,,,,,,,a,Incorrect,,,,,,t2.png,t4.png,2,0.059078,19,female,2020-08-20_14h01.06.321,torte-2b,2020.1.3,MacIntel,60,13225,0.777,,,,,,,,,,,,,,,,,,,,,,,,,,,,,,,,,,,,,0,64,64,97,1,,,,,,,,,,,,,,,,,,,,,,,,
,,,,,,,,,,,,l,Incorrect,,,,,,t4.png,t3.png,1,0.90855,19,female,2020-08-20_14h01.06.321,torte-2b,2020.1.3,MacIntel,60,13225,0.839,,,,,,,,,,,,,,,,,,,,,,,,,,,,,,,,,,,,,0,65,65,56,1,,,,,,,,,,,,,,,,,,,,,,,,
,,,,,,,,,,,,a,Incorrect,,,,,,t1.png,t4.png,3,0.0000131,19,female,2020-08-20_14h01.06.321,torte-2b,2020.1.3,MacIntel,60,13225,2.199,,,,,,,,,,,,,,,,,,,,,,,,,,,,,,,,,,,,,0,66,66,16,1,,,,,,,,,,,,,,,,,,,,,,,,
,,,,,,,,,,,,a,Correct!,,,,,,t4.png,t4.png,0,0.98115,19,female,2020-08-20_14h01.06.321,torte-2b,2020.1.3,MacIntel,60,13225,0.881,,,,,,,,,,,,,,,,,,,,,,,,,,,,,,,,,,,,,0,67,67,68,1,,,,,,,,,,,,,,,,,,,,,,,,
,,,,,,,,,,,,l,Correct!,,,,,,t1.png,t4.png,3,0.0000131,19,female,2020-08-20_14h01.06.321,torte-2b,2020.1.3,MacIntel,60,13225,1.653,,,,,,,,,,,,,,,,,,,,,,,,,,,,,,,,,,,,,0,68,68,74,1,,,,,,,,,,,,,,,,,,,,,,,,
,,,,,,,,,,,,l,Incorrect,,,,,,t2.png,t2.png,0,0.98115,19,female,2020-08-20_14h01.06.321,torte-2b,2020.1.3,MacIntel,60,13225,1.6,,,,,,,,,,,,,,,,,,,,,,,,,,,,,,,,,,,,,0,69,69,7,1,,,,,,,,,,,,,,,,,,,,,,,,
,,,,,,,,,,,,a,Correct!,,,,,,t1.png,t1.png,0,0.978,19,female,2020-08-20_14h01.06.321,torte-2b,2020.1.3,MacIntel,60,13225,1.346,,,,,,,,,,,,,,,,,,,,,,,,,,,,,,,,,,,,,0,70,70,13,1,,,,,,,,,,,,,,,,,,,,,,,,
,,,,,,,,,,,,l,Correct!,,,,,,t5.png,t1.png,4,9.55E-11,19,female,2020-08-20_14h01.06.321,torte-2b,2020.1.3,MacIntel,60,13225,1.123,,,,,,,,,,,,,,,,,,,,,,,,,,,,,,,,,,,,,0,71,71,117,1,,,,,,,,,,,,,,,,,,,,,,,,
,,,,,,,,,,,,l,Correct!,,,,,,t3.png,t1.png,2,0.056466,19,female,2020-08-20_14h01.06.321,torte-2b,2020.1.3,MacIntel,60,13225,1.854,,,,,,,,,,,,,,,,,,,,,,,,,,,,,,,,,,,,,0,72,72,34,1,,,,,,,,,,,,,,,,,,,,,,,,
,,,,,,,,,,,,a,Correct!,,,,,,t1.png,t2.png,1,0.9,19,female,2020-08-20_14h01.06.321,torte-2b,2020.1.3,MacIntel,60,13225,2.049,,,,,,,,,,,,,,,,,,,,,,,,,,,,,,,,,,,,,0,73,73,61,1,,,,,,,,,,,,,,,,,,,,,,,,
,,,,,,,,,,,,l,Correct!,,,,,,t2.png,t5.png,3,0.0000131,19,female,2020-08-20_14h01.06.321,torte-2b,2020.1.3,MacIntel,60,13225,1.107,,,,,,,,,,,,,,,,,,,,,,,,,,,,,,,,,,,,,0,74,74,115,1,,,,,,,,,,,,,,,,,,,,,,,,
,,,,,,,,,,,,,Too slow :(,,,,,,t4.png,t1.png,3,0.059078,19,female,2020-08-20_14h01.06.321,torte-2b,2020.1.3,MacIntel,60,13225,,,,,,,,,,,,,,,,,,,,,,,,,,,,,,,,,,,,,,0,75,75,75,1,,,,,,,,,,,,,,,,,,,,,,,,
,,,,,,,,,,,,a,Incorrect,,,,,,t5.png,t4.png,1,0.90025,19,female,2020-08-20_14h01.06.321,torte-2b,2020.1.3,MacIntel,60,13225,1.091,,,,,,,,,,,,,,,,,,,,,,,,,,,,,,,,,,,,,0,76,76,14,1,,,,,,,,,,,,,,,,,,,,,,,,
,,,,,,,,,,,,a,Correct!,,,,,,t1.png,t1.png,0,0.97829,19,female,2020-08-20_14h01.06.321,torte-2b,2020.1.3,MacIntel,60,13225,1.402,,,,,,,,,,,,,,,,,,,,,,,,,,,,,,,,,,,,,0,77,77,114,1,,,,,,,,,,,,,,,,,,,,,,,,
,,,,,,,,,,,,l,Correct!,,,,,,t4.png,t1.png,3,0.059078,19,female,2020-08-20_14h01.06.321,torte-2b,2020.1.3,MacIntel,60,13225,1.163,,,,,,,,,,,,,,,,,,,,,,,,,,,,,,,,,,,,,0,78,78,87,1,,,,,,,,,,,,,,,,,,,,,,,,
,,,,,,,,,,,,a,Incorrect,,,,,,t5.png,t3.png,2,0.056466,19,female,2020-08-20_14h01.06.321,torte-2b,2020.1.3,MacIntel,60,13225,1.196,,,,,,,,,,,,,,,,,,,,,,,,,,,,,,,,,,,,,0,79,79,80,1,,,,,,,,,,,,,,,,,,,,,,,,
,,,,,,,,,,,,l,Correct!,,,,,,t1.png,t4.png,3,0.0000131,19,female,2020-08-20_14h01.06.321,torte-2b,2020.1.3,MacIntel,60,13225,1.096,,,,,,,,,,,,,,,,,,,,,,,,,,,,,,,,,,,,,0,80,80,23,1,,,,,,,,,,,,,,,,,,,,,,,,
,,,,,,,,,,,,l,Incorrect,,,,,,t4.png,t1.png,3,0.059078,19,female,2020-08-20_14h01.06.321,torte-2b,2020.1.3,MacIntel,60,13225,1.843,,,,,,,,,,,,,,,,,,,,,,,,,,,,,,,,,,,,,0,81,81,73,1,,,,,,,,,,,,,,,,,,,,,,,,
,,,,,,,,,,,,a,Correct!,,,,,,t5.png,t4.png,1,0.90025,19,female,2020-08-20_14h01.06.321,torte-2b,2020.1.3,MacIntel,60,13225,1.292,,,,,,,,,,,,,,,,,,,,,,,,,,,,,,,,,,,,,0,82,82,38,1,,,,,,,,,,,,,,,,,,,,,,,,
,,,,,,,,,,,,l,Incorrect,,,,,,t2.png,t2.png,0,0.98115,19,female,2020-08-20_14h01.06.321,torte-2b,2020.1.3,MacIntel,60,13225,0.967,,,,,,,,,,,,,,,,,,,,,,,,,,,,,,,,,,,,,0,83,83,90,1,,,,,,,,,,,,,,,,,,,,,,,,
,,,,,,,,,,,,l,Correct!,,,,,,t4.png,t1.png,3,0.0000131,19,female,2020-08-20_14h01.06.321,torte-2b,2020.1.3,MacIntel,60,13225,1.303,,,,,,,,,,,,,,,,,,,,,,,,,,,,,,,,,,,,,0,84,84,49,1,,,,,,,,,,,,,,,,,,,,,,,,
,,,,,,,,,,,,a,Correct!,,,,,,t5.png,t4.png,1,0.9,19,female,2020-08-20_14h01.06.321,torte-2b,2020.1.3,MacIntel,60,13225,1.31,,,,,,,,,,,,,,,,,,,,,,,,,,,,,,,,,,,,,0,85,85,55,1,,,,,,,,,,,,,,,,,,,,,,,,
,,,,,,,,,,,,a,Incorrect,,,,,,t2.png,t5.png,3,0.0000131,19,female,2020-08-20_14h01.06.321,torte-2b,2020.1.3,MacIntel,60,13225,1.61,,,,,,,,,,,,,,,,,,,,,,,,,,,,,,,,,,,,,0,86,86,54,1,,,,,,,,,,,,,,,,,,,,,,,,
,,,,,,,,,,,,l,Incorrect,,,,,,t1.png,t2.png,1,0.9,19,female,2020-08-20_14h01.06.321,torte-2b,2020.1.3,MacIntel,60,13225,2.108,,,,,,,,,,,,,,,,,,,,,,,,,,,,,,,,,,,,,0,87,87,41,1,,,,,,,,,,,,,,,,,,,,,,,,
,,,,,,,,,,,,l,Correct!,,,,,,t2.png,t4.png,2,0.059078,19,female,2020-08-20_14h01.06.321,torte-2b,2020.1.3,MacIntel,60,13225,1.875,,,,,,,,,,,,,,,,,,,,,,,,,,,,,,,,,,,,,0,88,88,67,1,,,,,,,,,,,,,,,,,,,,,,,,
,,,,,,,,,,,,l,Correct!,,,,,,t5.png,t1.png,4,9.55E-11,19,female,2020-08-20_14h01.06.321,torte-2b,2020.1.3,MacIntel,60,13225,0.889,,,,,,,,,,,,,,,,,,,,,,,,,,,,,,,,,,,,,0,89,89,101,1,,,,,,,,,,,,,,,,,,,,,,,,
,,,,,,,,,,,,l,Correct!,,,,,,t5.png,t1.png,4,9.55E-11,19,female,2020-08-20_14h01.06.321,torte-2b,2020.1.3,MacIntel,60,13225,1.664,,,,,,,,,,,,,,,,,,,,,,,,,,,,,,,,,,,,,0,90,90,89,1,,,,,,,,,,,,,,,,,,,,,,,,
,,,,,,,,,,,,a,Incorrect,,,,,,t5.png,t3.png,2,0.0565,19,female,2020-08-20_14h01.06.321,torte-2b,2020.1.3,MacIntel,60,13225,0.951,,,,,,,,,,,,,,,,,,,,,,,,,,,,,,,,,,,,,0,91,91,50,1,,,,,,,,,,,,,,,,,,,,,,,,
,,,,,,,,,,,,,Too slow :(,,,,,,t2.png,t3.png,1,0.90855,19,female,2020-08-20_14h01.06.321,torte-2b,2020.1.3,MacIntel,60,13225,,,,,,,,,,,,,,,,,,,,,,,,,,,,,,,,,,,,,,0,92,92,70,1,,,,,,,,,,,,,,,,,,,,,,,,
,,,,,,,,,,,,l,Incorrect,,,,,,t2.png,t1.png,1,0.90025,19,female,2020-08-20_14h01.06.321,torte-2b,2020.1.3,MacIntel,60,13225,1.709,,,,,,,,,,,,,,,,,,,,,,,,,,,,,,,,,,,,,0,93,93,65,1,,,,,,,,,,,,,,,,,,,,,,,,
,,,,,,,,,,,,l,Incorrect,,,,,,t1.png,t2.png,1,0.9,19,female,2020-08-20_14h01.06.321,torte-2b,2020.1.3,MacIntel,60,13225,2.1,,,,,,,,,,,,,,,,,,,,,,,,,,,,,,,,,,,,,0,94,94,17,1,,,,,,,,,,,,,,,,,,,,,,,,
,,,,,,,,,,,,l,Incorrect,,,,,,t2.png,t1.png,1,0.9,19,female,2020-08-20_14h01.06.321,torte-2b,2020.1.3,MacIntel,60,13225,0.78,,,,,,,,,,,,,,,,,,,,,,,,,,,,,,,,,,,,,0,95,95,100,1,,,,,,,,,,,,,,,,,,,,,,,,
,,,,,,,,,,,,a,Correct!,,,,,,t4.png,t3.png,1,0.90855,19,female,2020-08-20_14h01.06.321,torte-2b,2020.1.3,MacIntel,60,13225,0.649,,,,,,,,,,,,,,,,,,,,,,,,,,,,,,,,,,,,,0,96,96,29,1,,,,,,,,,,,,,,,,,,,,,,,,
,,,,,,,,,,,,a,Incorrect,,,,,,t5.png,t2.png,3,0.0000131,19,female,2020-08-20_14h01.06.321,torte-2b,2020.1.3,MacIntel,60,13225,1.277,,,,,,,,,,,,,,,,,,,,,,,,,,,,,,,,,,,,,0,97,97,43,1,,,,,,,,,,,,,,,,,,,,,,,,
,,,,,,,,,,,,l,Incorrect,,,,,,t2.png,t1.png,1,0.90025,19,female,2020-08-20_14h01.06.321,torte-2b,2020.1.3,MacIntel,60,13225,0.909,,,,,,,,,,,,,,,,,,,,,,,,,,,,,,,,,,,,,0,98,98,105,1,,,,,,,,,,,,,,,,,,,,,,,,
,,,,,,,,,,,,a,Incorrect,,,,,,t1.png,t5.png,4,9.55E-11,19,female,2020-08-20_14h01.06.321,torte-2b,2020.1.3,MacIntel,60,13225,1.419,,,,,,,,,,,,,,,,,,,,,,,,,,,,,,,,,,,,,0,99,99,1,1,,,,,,,,,,,,,,,,,,,,,,,,
,,,,,,,,,,,,l,Correct!,,,,,,t1.png,t2.png,1,0.90025,19,female,2020-08-20_14h01.06.321,torte-2b,2020.1.3,MacIntel,60,13225,1.623,,,,,,,,,,,,,,,,,,,,,,,,,,,,,,,,,,,,,0,100,100,96,1,,,,,,,,,,,,,,,,,,,,,,,,
,,,,,,,,,,,,a,Correct!,,,,,,t4.png,t5.png,1,0.9,19,female,2020-08-20_14h01.06.321,torte-2b,2020.1.3,MacIntel,60,13225,1.69,,,,,,,,,,,,,,,,,,,,,,,,,,,,,,,,,,,,,0,101,101,81,1,,,,,,,,,,,,,,,,,,,,,,,,
,,,,,,,,,,,,a,Incorrect,,,,,,t3.png,t5.png,2,0.056466,19,female,2020-08-20_14h01.06.321,torte-2b,2020.1.3,MacIntel,60,13225,1.043,,,,,,,,,,,,,,,,,,,,,,,,,,,,,,,,,,,,,0,102,102,78,1,,,,,,,,,,,,,,,,,,,,,,,,
,,,,,,,,,,,,a,Incorrect,,,,,,t5.png,t3.png,2,0.056466,19,female,2020-08-20_14h01.06.321,torte-2b,2020.1.3,MacIntel,60,13225,0.651,,,,,,,,,,,,,,,,,,,,,,,,,,,,,,,,,,,,,0,103,103,26,1,,,,,,,,,,,,,,,,,,,,,,,,
,,,,,,,,,,,,l,Correct!,,,,,,t2.png,t1.png,1,0.9,19,female,2020-08-20_14h01.06.321,torte-2b,2020.1.3,MacIntel,60,13225,0.979,,,,,,,,,,,,,,,,,,,,,,,,,,,,,,,,,,,,,0,104,104,93,1,,,,,,,,,,,,,,,,,,,,,,,,
,,,,,,,,,,,,l,Correct!,,,,,,t5.png,t1.png,4,9.55E-11,19,female,2020-08-20_14h01.06.321,torte-2b,2020.1.3,MacIntel,60,13225,1.243,,,,,,,,,,,,,,,,,,,,,,,,,,,,,,,,,,,,,0,105,105,15,1,,,,,,,,,,,,,,,,,,,,,,,,
,,,,,,,,,,,,a,Incorrect,,,,,,t5.png,t2.png,3,0.0000131,19,female,2020-08-20_14h01.06.321,torte-2b,2020.1.3,MacIntel,60,13225,1.703,,,,,,,,,,,,,,,,,,,,,,,,,,,,,,,,,,,,,0,106,106,66,1,,,,,,,,,,,,,,,,,,,,,,,,
,,,,,,,,,,,,a,Correct!,,,,,,t1.png,t1.png,0,0.97829,19,female,2020-08-20_14h01.06.321,torte-2b,2020.1.3,MacIntel,60,13225,0.79,,,,,,,,,,,,,,,,,,,,,,,,,,,,,,,,,,,,,0,107,107,4,1,,,,,,,,,,,,,,,,,,,,,,,,
,,,,,,,,,,,,a,Correct!,,,,,,t4.png,t4.png,0,0.98115,19,female,2020-08-20_14h01.06.321,torte-2b,2020.1.3,MacIntel,60,13225,1.36,,,,,,,,,,,,,,,,,,,,,,,,,,,,,,,,,,,,,0,108,108,59,1,,,,,,,,,,,,,,,,,,,,,,,,
,,,,,,,,,,,,l,Correct!,,,,,,t3.png,t1.png,2,0.056466,19,female,2020-08-20_14h01.06.321,torte-2b,2020.1.3,MacIntel,60,13225,1.161,,,,,,,,,,,,,,,,,,,,,,,,,,,,,,,,,,,,,0,109,109,72,1,,,,,,,,,,,,,,,,,,,,,,,,
,,,,,,,,,,,,a,Incorrect,,,,,,t3.png,t5.png,2,0.056466,19,female,2020-08-20_14h01.06.321,torte-2b,2020.1.3,MacIntel,60,13225,0.995,,,,,,,,,,,,,,,,,,,,,,,,,,,,,,,,,,,,,0,110,110,45,1,,,,,,,,,,,,,,,,,,,,,,,,
,,,,,,,,,,,,l,Correct!,,,,,,t3.png,t1.png,2,0.0565,19,female,2020-08-20_14h01.06.321,torte-2b,2020.1.3,MacIntel,60,13225,1.055,,,,,,,,,,,,,,,,,,,,,,,,,,,,,,,,,,,,,0,111,111,104,1,,,,,,,,,,,,,,,,,,,,,,,,
,,,,,,,,,,,,a,Incorrect,,,,,,t3.png,t5.png,2,0.056466,19,female,2020-08-20_14h01.06.321,torte-2b,2020.1.3,MacIntel,60,13225,1.635,,,,,,,,,,,,,,,,,,,,,,,,,,,,,,,,,,,,,0,112,112,60,1,,,,,,,,,,,,,,,,,,,,,,,,
,,,,,,,,,,,,,Too slow :(,,,,,,t4.png,t3.png,1,0.90855,19,female,2020-08-20_14h01.06.321,torte-2b,2020.1.3,MacIntel,60,13225,,,,,,,,,,,,,,,,,,,,,,,,,,,,,,,,,,,,,,0,113,113,11,1,,,,,,,,,,,,,,,,,,,,,,,,
,,,,,,,,,,,,a,Incorrect,,,,,,t1.png,t5.png,4,9.55E-11,19,female,2020-08-20_14h01.06.321,torte-2b,2020.1.3,MacIntel,60,13225,2.199,,,,,,,,,,,,,,,,,,,,,,,,,,,,,,,,,,,,,0,114,114,118,1,,,,,,,,,,,,,,,,,,,,,,,,
,,,,,,,,,,,,a,Correct!,,,,,,t4.png,t5.png,1,0.90025,19,female,2020-08-20_14h01.06.321,torte-2b,2020.1.3,MacIntel,60,13225,1.224,,,,,,,,,,,,,,,,,,,,,,,,,,,,,,,,,,,,,0,115,115,63,1,,,,,,,,,,,,,,,,,,,,,,,,
,,,,,,,,,,,,l,Correct!,,,,,,t2.png,t5.png,3,0.0000131,19,female,2020-08-20_14h01.06.321,torte-2b,2020.1.3,MacIntel,60,13225,1.52,,,,,,,,,,,,,,,,,,,,,,,,,,,,,,,,,,,,,0,116,116,46,1,,,,,,,,,,,,,,,,,,,,,,,,
,,,,,,,,,,,,l,Incorrect,,,,,,t3.png,t2.png,1,0.90855,19,female,2020-08-20_14h01.06.321,torte-2b,2020.1.3,MacIntel,60,13225,2.018,,,,,,,,,,,,,,,,,,,,,,,,,,,,,,,,,,,,,0,117,117,99,1,,,,,,,,,,,,,,,,,,,,,,,,
,,,,,,,,,,,,l,Incorrect,,,,,,t2.png,t1.png,1,0.90025,19,female,2020-08-20_14h01.06.321,torte-2b,2020.1.3,MacIntel,60,13225,0.91,,,,,,,,,,,,,,,,,,,,,,,,,,,,,,,,,,,,,0,118,118,44,1,,,,,,,,,,,,,,,,,,,,,,,,
,,,,,,,,,,,,,Too slow :(,,,,,,t4.png,t1.png,3,0.059078,19,female,2020-08-20_14h01.06.321,torte-2b,2020.1.3,MacIntel,60,13225,,,,,,,,,,,,,,,,,,,,,,,,,,,,,,,,,,,,,,0,119,119,62,1,,,,,,,,,,,,,,,,,,,,,,,,
,,,,,,,,,,,,,,,,,,,,,,,19,female,2020-08-20_14h01.06.321,torte-2b,2020.1.3,MacIntel,60,13225,,space,1.884,,,,,,,,,,,,,,,,,,,,,,,,,,,,,,,,,,,,,,,,1,-5,1,0,0,s4,-95,23,1,0,0,t2,251,-108,1,0,0,proceed,space,22.117,space,0.611,space,0.375
