key_resp_8.keys,key_resp_8.rt,key_resp_9.keys,key_resp_9.rt,key_resp_10.keys,key_resp_10.rt,key_resp_11.keys,key_resp_11.rt,key_resp_2.keys,key_resp_2.rt,key_resp_3.keys,key_resp_3.rt,key_resp.keys,key_resp.rt,Feedback,train.thisRepN,train.thisTrialN,train.thisN,train.thisIndex,train.ran,torta_sx,torta_dx,difference,probability,age,gender,date,expName,psychopyVersion,OS,frameRate,participant,key_resp_15.keys,key_resp_15.rt,key_resp_6.keys,key_resp_6.rt,test1.thisRepN,test1.thisTrialN,test1.thisN,test1.thisIndex,test1.ran,key_resp_4.keys,key_resp_4.rt,key_resp_5.keys,back1.thisRepN,back1.thisTrialN,back1.thisN,back1.thisIndex,back1.ran,letter,key_resp_5.rt,back2.thisRepN,back2.thisTrialN,back2.thisN,back2.thisIndex,back2.ran,back3.thisRepN,back3.thisTrialN,back3.thisN,back3.thisIndex,back3.ran,back4.thisRepN,back4.thisTrialN,back4.thisN,back4.thisIndex,back4.ran,key_resp_7.keys,key_resp_7.rt,test2.thisRepN,test2.thisTrialN,test2.thisN,test2.thisIndex,test2.ran,mouse.x,mouse.y,mouse.leftButton,mouse.midButton,mouse.rightButton,mouse.clicked_name,mouse_2.x,mouse_2.y,mouse_2.leftButton,mouse_2.midButton,mouse_2.rightButton,mouse_2.clicked_name,mouse_3.x,mouse_3.y,mouse_3.leftButton,mouse_3.midButton,mouse_3.rightButton,mouse_3.clicked_name,key_resp_12.keys,key_resp_12.rt,key_resp_13.keys,key_resp_13.rt,key_resp_14.keys,key_resp_14.rt
space,13.794,space,5.222,space,0.482,space,5.855,space,18.389,space,58.85,a,0.786,Incorrect,0,0,0,50,1,t5.png,t1.png,4,9.55E-11,19,female,2020-09-27_16h38.56.360,torte-2b,2020.1.3,MacIntel,60,13237,,,,,,,,,,,,,,,,,,,,,,,,,,,,,,,,,,,,,,,,,,,,,,,,,,,,,,,,,,,,,,,,,
,,,,,,,,,,,,l,1.108,Incorrect,0,1,1,75,1,t1.png,t1.png,0,0.97829,19,female,2020-09-27_16h38.56.360,torte-2b,2020.1.3,MacIntel,60,13237,,,,,,,,,,,,,,,,,,,,,,,,,,,,,,,,,,,,,,,,,,,,,,,,,,,,,,,,,,,,,,,,,
,,,,,,,,,,,,l,1.202,Incorrect,0,2,2,65,1,t4.png,t5.png,1,0.90025,19,female,2020-09-27_16h38.56.360,torte-2b,2020.1.3,MacIntel,60,13237,,,,,,,,,,,,,,,,,,,,,,,,,,,,,,,,,,,,,,,,,,,,,,,,,,,,,,,,,,,,,,,,,
,,,,,,,,,,,,a,0.958,Correct!,0,3,3,101,1,t4.png,t5.png,1,0.90025,19,female,2020-09-27_16h38.56.360,torte-2b,2020.1.3,MacIntel,60,13237,,,,,,,,,,,,,,,,,,,,,,,,,,,,,,,,,,,,,,,,,,,,,,,,,,,,,,,,,,,,,,,,,
,,,,,,,,,,,,l,1.855,Correct!,0,4,4,43,1,t4.png,t2.png,2,0.059078,19,female,2020-09-27_16h38.56.360,torte-2b,2020.1.3,MacIntel,60,13237,,,,,,,,,,,,,,,,,,,,,,,,,,,,,,,,,,,,,,,,,,,,,,,,,,,,,,,,,,,,,,,,,
,,,,,,,,,,,,l,0.736,Correct!,0,5,5,72,1,t4.png,t2.png,2,0.059078,19,female,2020-09-27_16h38.56.360,torte-2b,2020.1.3,MacIntel,60,13237,,,,,,,,,,,,,,,,,,,,,,,,,,,,,,,,,,,,,,,,,,,,,,,,,,,,,,,,,,,,,,,,,
,,,,,,,,,,,,a,0.588,Incorrect,0,6,6,35,1,t1.png,t4.png,3,0.0000131,19,female,2020-09-27_16h38.56.360,torte-2b,2020.1.3,MacIntel,60,13237,,,,,,,,,,,,,,,,,,,,,,,,,,,,,,,,,,,,,,,,,,,,,,,,,,,,,,,,,,,,,,,,,
,,,,,,,,,,,,l,1.522,Correct!,0,7,7,61,1,t1.png,t4.png,3,0.0000131,19,female,2020-09-27_16h38.56.360,torte-2b,2020.1.3,MacIntel,60,13237,,,,,,,,,,,,,,,,,,,,,,,,,,,,,,,,,,,,,,,,,,,,,,,,,,,,,,,,,,,,,,,,,
,,,,,,,,,,,,a,1.717,Correct!,0,8,8,112,1,t1.png,t1.png,0,0.97829,19,female,2020-09-27_16h38.56.360,torte-2b,2020.1.3,MacIntel,60,13237,,,,,,,,,,,,,,,,,,,,,,,,,,,,,,,,,,,,,,,,,,,,,,,,,,,,,,,,,,,,,,,,,
,,,,,,,,,,,,a,1.159,Incorrect,0,9,9,4,1,t1.png,t5.png,4,9.55E-11,19,female,2020-09-27_16h38.56.360,torte-2b,2020.1.3,MacIntel,60,13237,,,,,,,,,,,,,,,,,,,,,,,,,,,,,,,,,,,,,,,,,,,,,,,,,,,,,,,,,,,,,,,,,
,,,,,,,,,,,,a,1.089,Correct!,0,10,10,110,1,t4.png,t5.png,1,0.90025,19,female,2020-09-27_16h38.56.360,torte-2b,2020.1.3,MacIntel,60,13237,,,,,,,,,,,,,,,,,,,,,,,,,,,,,,,,,,,,,,,,,,,,,,,,,,,,,,,,,,,,,,,,,
,,,,,,,,,,,,l,1.472,Correct!,0,11,11,88,1,t3.png,t1.png,2,0.056466,19,female,2020-09-27_16h38.56.360,torte-2b,2020.1.3,MacIntel,60,13237,,,,,,,,,,,,,,,,,,,,,,,,,,,,,,,,,,,,,,,,,,,,,,,,,,,,,,,,,,,,,,,,,
,,,,,,,,,,,,l,1.134,Incorrect,0,12,12,58,1,t5.png,t4.png,1,0.90025,19,female,2020-09-27_16h38.56.360,torte-2b,2020.1.3,MacIntel,60,13237,,,,,,,,,,,,,,,,,,,,,,,,,,,,,,,,,,,,,,,,,,,,,,,,,,,,,,,,,,,,,,,,,
,,,,,,,,,,,,a,0.798,Incorrect,0,13,13,93,1,t2.png,t4.png,2,0.059078,19,female,2020-09-27_16h38.56.360,torte-2b,2020.1.3,MacIntel,60,13237,,,,,,,,,,,,,,,,,,,,,,,,,,,,,,,,,,,,,,,,,,,,,,,,,,,,,,,,,,,,,,,,,
,,,,,,,,,,,,l,1.119,Correct!,0,14,14,94,1,t5.png,t1.png,4,9.55E-11,19,female,2020-09-27_16h38.56.360,torte-2b,2020.1.3,MacIntel,60,13237,,,,,,,,,,,,,,,,,,,,,,,,,,,,,,,,,,,,,,,,,,,,,,,,,,,,,,,,,,,,,,,,,
,,,,,,,,,,,,l,1.174,Incorrect,0,15,15,45,1,t3.png,t2.png,1,0.90855,19,female,2020-09-27_16h38.56.360,torte-2b,2020.1.3,MacIntel,60,13237,,,,,,,,,,,,,,,,,,,,,,,,,,,,,,,,,,,,,,,,,,,,,,,,,,,,,,,,,,,,,,,,,
,,,,,,,,,,,,l,1.119,Correct!,0,16,16,82,1,t5.png,t1.png,4,9.55E-11,19,female,2020-09-27_16h38.56.360,torte-2b,2020.1.3,MacIntel,60,13237,,,,,,,,,,,,,,,,,,,,,,,,,,,,,,,,,,,,,,,,,,,,,,,,,,,,,,,,,,,,,,,,,
,,,,,,,,,,,,a,1.135,Correct!,0,17,17,32,1,t4.png,t5.png,1,0.90025,19,female,2020-09-27_16h38.56.360,torte-2b,2020.1.3,MacIntel,60,13237,,,,,,,,,,,,,,,,,,,,,,,,,,,,,,,,,,,,,,,,,,,,,,,,,,,,,,,,,,,,,,,,,
,,,,,,,,,,,,l,0.835,Correct!,0,18,18,73,1,t4.png,t2.png,2,0.059078,19,female,2020-09-27_16h38.56.360,torte-2b,2020.1.3,MacIntel,60,13237,,,,,,,,,,,,,,,,,,,,,,,,,,,,,,,,,,,,,,,,,,,,,,,,,,,,,,,,,,,,,,,,,
,,,,,,,,,,,,a,0.732,Correct!,0,19,19,10,1,t2.png,t3.png,1,0.90855,19,female,2020-09-27_16h38.56.360,torte-2b,2020.1.3,MacIntel,60,13237,,,,,,,,,,,,,,,,,,,,,,,,,,,,,,,,,,,,,,,,,,,,,,,,,,,,,,,,,,,,,,,,,
,,,,,,,,,,,,a,0.701,Incorrect,0,20,20,98,1,t2.png,t4.png,2,0.0591,19,female,2020-09-27_16h38.56.360,torte-2b,2020.1.3,MacIntel,60,13237,,,,,,,,,,,,,,,,,,,,,,,,,,,,,,,,,,,,,,,,,,,,,,,,,,,,,,,,,,,,,,,,,
,,,,,,,,,,,,l,1.092,Correct!,0,21,21,8,1,t3.png,t2.png,1,0.90855,19,female,2020-09-27_16h38.56.360,torte-2b,2020.1.3,MacIntel,60,13237,,,,,,,,,,,,,,,,,,,,,,,,,,,,,,,,,,,,,,,,,,,,,,,,,,,,,,,,,,,,,,,,,
,,,,,,,,,,,,l,0.7,Incorrect,0,22,22,81,1,t1.png,t1.png,0,0.97829,19,female,2020-09-27_16h38.56.360,torte-2b,2020.1.3,MacIntel,60,13237,,,,,,,,,,,,,,,,,,,,,,,,,,,,,,,,,,,,,,,,,,,,,,,,,,,,,,,,,,,,,,,,,
,,,,,,,,,,,,a,1.404,Correct!,0,23,23,114,1,t2.png,t3.png,1,0.90855,19,female,2020-09-27_16h38.56.360,torte-2b,2020.1.3,MacIntel,60,13237,,,,,,,,,,,,,,,,,,,,,,,,,,,,,,,,,,,,,,,,,,,,,,,,,,,,,,,,,,,,,,,,,
,,,,,,,,,,,,l,1.132,Correct!,0,24,24,108,1,t5.png,t1.png,4,9.55E-11,19,female,2020-09-27_16h38.56.360,torte-2b,2020.1.3,MacIntel,60,13237,,,,,,,,,,,,,,,,,,,,,,,,,,,,,,,,,,,,,,,,,,,,,,,,,,,,,,,,,,,,,,,,,
,,,,,,,,,,,,a,1.552,Correct!,0,25,25,2,1,t3.png,t2.png,1,0.90855,19,female,2020-09-27_16h38.56.360,torte-2b,2020.1.3,MacIntel,60,13237,,,,,,,,,,,,,,,,,,,,,,,,,,,,,,,,,,,,,,,,,,,,,,,,,,,,,,,,,,,,,,,,,
,,,,,,,,,,,,l,1.027,Correct!,0,26,26,27,1,t3.png,t1.png,2,0.0565,19,female,2020-09-27_16h38.56.360,torte-2b,2020.1.3,MacIntel,60,13237,,,,,,,,,,,,,,,,,,,,,,,,,,,,,,,,,,,,,,,,,,,,,,,,,,,,,,,,,,,,,,,,,
,,,,,,,,,,,,l,1.11,Correct!,0,27,27,46,1,t4.png,t2.png,2,0.059078,19,female,2020-09-27_16h38.56.360,torte-2b,2020.1.3,MacIntel,60,13237,,,,,,,,,,,,,,,,,,,,,,,,,,,,,,,,,,,,,,,,,,,,,,,,,,,,,,,,,,,,,,,,,
,,,,,,,,,,,,a,1.326,Incorrect,0,28,28,17,1,t1.png,t4.png,3,0.0000131,19,female,2020-09-27_16h38.56.360,torte-2b,2020.1.3,MacIntel,60,13237,,,,,,,,,,,,,,,,,,,,,,,,,,,,,,,,,,,,,,,,,,,,,,,,,,,,,,,,,,,,,,,,,
,,,,,,,,,,,,l,1.023,Correct!,0,29,29,11,1,t1.png,t4.png,3,0.0000131,19,female,2020-09-27_16h38.56.360,torte-2b,2020.1.3,MacIntel,60,13237,,,,,,,,,,,,,,,,,,,,,,,,,,,,,,,,,,,,,,,,,,,,,,,,,,,,,,,,,,,,,,,,,
,,,,,,,,,,,,a,1.576,Correct!,0,30,30,20,1,t2.png,t3.png,1,0.90855,19,female,2020-09-27_16h38.56.360,torte-2b,2020.1.3,MacIntel,60,13237,,,,,,,,,,,,,,,,,,,,,,,,,,,,,,,,,,,,,,,,,,,,,,,,,,,,,,,,,,,,,,,,,
,,,,,,,,,,,,l,1.285,Correct!,0,31,31,111,1,t5.png,t1.png,4,9.55E-11,19,female,2020-09-27_16h38.56.360,torte-2b,2020.1.3,MacIntel,60,13237,,,,,,,,,,,,,,,,,,,,,,,,,,,,,,,,,,,,,,,,,,,,,,,,,,,,,,,,,,,,,,,,,
,,,,,,,,,,,,l,1.252,Incorrect,0,32,32,109,1,t5.png,t5.png,0,0.97829,19,female,2020-09-27_16h38.56.360,torte-2b,2020.1.3,MacIntel,60,13237,,,,,,,,,,,,,,,,,,,,,,,,,,,,,,,,,,,,,,,,,,,,,,,,,,,,,,,,,,,,,,,,,
,,,,,,,,,,,,l,1.502,Incorrect,0,33,33,49,1,t4.png,t5.png,1,0.9,19,female,2020-09-27_16h38.56.360,torte-2b,2020.1.3,MacIntel,60,13237,,,,,,,,,,,,,,,,,,,,,,,,,,,,,,,,,,,,,,,,,,,,,,,,,,,,,,,,,,,,,,,,,
,,,,,,,,,,,,a,0.938,Incorrect,0,34,34,99,1,t1.png,t5.png,4,9.55E-11,19,female,2020-09-27_16h38.56.360,torte-2b,2020.1.3,MacIntel,60,13237,,,,,,,,,,,,,,,,,,,,,,,,,,,,,,,,,,,,,,,,,,,,,,,,,,,,,,,,,,,,,,,,,
,,,,,,,,,,,,a,0.792,Incorrect,0,35,35,55,1,t2.png,t4.png,2,0.059078,19,female,2020-09-27_16h38.56.360,torte-2b,2020.1.3,MacIntel,60,13237,,,,,,,,,,,,,,,,,,,,,,,,,,,,,,,,,,,,,,,,,,,,,,,,,,,,,,,,,,,,,,,,,
,,,,,,,,,,,,a,0.892,Correct!,0,36,36,85,1,t3.png,t2.png,1,0.90855,19,female,2020-09-27_16h38.56.360,torte-2b,2020.1.3,MacIntel,60,13237,,,,,,,,,,,,,,,,,,,,,,,,,,,,,,,,,,,,,,,,,,,,,,,,,,,,,,,,,,,,,,,,,
,,,,,,,,,,,,l,0.992,Correct!,0,37,37,33,1,t5.png,t1.png,4,9.55E-11,19,female,2020-09-27_16h38.56.360,torte-2b,2020.1.3,MacIntel,60,13237,,,,,,,,,,,,,,,,,,,,,,,,,,,,,,,,,,,,,,,,,,,,,,,,,,,,,,,,,,,,,,,,,
,,,,,,,,,,,,l,1.249,Correct!,0,38,38,57,1,t2.png,t4.png,2,0.059078,19,female,2020-09-27_16h38.56.360,torte-2b,2020.1.3,MacIntel,60,13237,,,,,,,,,,,,,,,,,,,,,,,,,,,,,,,,,,,,,,,,,,,,,,,,,,,,,,,,,,,,,,,,,
,,,,,,,,,,,,a,0.951,Correct!,0,39,39,62,1,t5.png,t5.png,0,0.978,19,female,2020-09-27_16h38.56.360,torte-2b,2020.1.3,MacIntel,60,13237,,,,,,,,,,,,,,,,,,,,,,,,,,,,,,,,,,,,,,,,,,,,,,,,,,,,,,,,,,,,,,,,,
,,,,,,,,,,,,a,0.97,Correct!,0,40,40,64,1,t1.png,t1.png,0,0.978,19,female,2020-09-27_16h38.56.360,torte-2b,2020.1.3,MacIntel,60,13237,,,,,,,,,,,,,,,,,,,,,,,,,,,,,,,,,,,,,,,,,,,,,,,,,,,,,,,,,,,,,,,,,
,,,,,,,,,,,,l,1.843,Incorrect,0,41,41,28,1,t2.png,t3.png,1,0.909,19,female,2020-09-27_16h38.56.360,torte-2b,2020.1.3,MacIntel,60,13237,,,,,,,,,,,,,,,,,,,,,,,,,,,,,,,,,,,,,,,,,,,,,,,,,,,,,,,,,,,,,,,,,
,,,,,,,,,,,,a,1.444,Incorrect,0,42,42,70,1,t5.png,t5.png,0,0.978,19,female,2020-09-27_16h38.56.360,torte-2b,2020.1.3,MacIntel,60,13237,,,,,,,,,,,,,,,,,,,,,,,,,,,,,,,,,,,,,,,,,,,,,,,,,,,,,,,,,,,,,,,,,
,,,,,,,,,,,,l,0.89,Correct!,0,43,43,86,1,t3.png,t1.png,2,0.056466,19,female,2020-09-27_16h38.56.360,torte-2b,2020.1.3,MacIntel,60,13237,,,,,,,,,,,,,,,,,,,,,,,,,,,,,,,,,,,,,,,,,,,,,,,,,,,,,,,,,,,,,,,,,
,,,,,,,,,,,,l,0.968,Correct!,0,44,44,54,1,t1.png,t5.png,4,9.55E-11,19,female,2020-09-27_16h38.56.360,torte-2b,2020.1.3,MacIntel,60,13237,,,,,,,,,,,,,,,,,,,,,,,,,,,,,,,,,,,,,,,,,,,,,,,,,,,,,,,,,,,,,,,,,
,,,,,,,,,,,,a,1.227,Correct!,0,45,45,34,1,t5.png,t4.png,1,0.9,19,female,2020-09-27_16h38.56.360,torte-2b,2020.1.3,MacIntel,60,13237,,,,,,,,,,,,,,,,,,,,,,,,,,,,,,,,,,,,,,,,,,,,,,,,,,,,,,,,,,,,,,,,,
,,,,,,,,,,,,a,1.035,Incorrect,0,46,46,6,1,t1.png,t4.png,3,0.0000131,19,female,2020-09-27_16h38.56.360,torte-2b,2020.1.3,MacIntel,60,13237,,,,,,,,,,,,,,,,,,,,,,,,,,,,,,,,,,,,,,,,,,,,,,,,,,,,,,,,,,,,,,,,,
,,,,,,,,,,,,l,0.85,Correct!,0,47,47,68,1,t1.png,t4.png,3,0.0000131,19,female,2020-09-27_16h38.56.360,torte-2b,2020.1.3,MacIntel,60,13237,,,,,,,,,,,,,,,,,,,,,,,,,,,,,,,,,,,,,,,,,,,,,,,,,,,,,,,,,,,,,,,,,
,,,,,,,,,,,,a,1.298,Correct!,0,48,48,1,1,t2.png,t4.png,2,0.059078,19,female,2020-09-27_16h38.56.360,torte-2b,2020.1.3,MacIntel,60,13237,,,,,,,,,,,,,,,,,,,,,,,,,,,,,,,,,,,,,,,,,,,,,,,,,,,,,,,,,,,,,,,,,
,,,,,,,,,,,,a,1.094,Correct!,0,49,49,77,1,t1.png,t1.png,0,0.97829,19,female,2020-09-27_16h38.56.360,torte-2b,2020.1.3,MacIntel,60,13237,,,,,,,,,,,,,,,,,,,,,,,,,,,,,,,,,,,,,,,,,,,,,,,,,,,,,,,,,,,,,,,,,
,,,,,,,,,,,,l,0.894,Incorrect,0,50,50,97,1,t5.png,t5.png,0,0.97829,19,female,2020-09-27_16h38.56.360,torte-2b,2020.1.3,MacIntel,60,13237,,,,,,,,,,,,,,,,,,,,,,,,,,,,,,,,,,,,,,,,,,,,,,,,,,,,,,,,,,,,,,,,,
,,,,,,,,,,,,a,1.41,Correct!,0,51,51,116,1,t5.png,t4.png,1,0.90025,19,female,2020-09-27_16h38.56.360,torte-2b,2020.1.3,MacIntel,60,13237,,,,,,,,,,,,,,,,,,,,,,,,,,,,,,,,,,,,,,,,,,,,,,,,,,,,,,,,,,,,,,,,,
,,,,,,,,,,,,a,1.042,Correct!,0,52,52,74,1,t5.png,t4.png,1,0.9,19,female,2020-09-27_16h38.56.360,torte-2b,2020.1.3,MacIntel,60,13237,,,,,,,,,,,,,,,,,,,,,,,,,,,,,,,,,,,,,,,,,,,,,,,,,,,,,,,,,,,,,,,,,
,,,,,,,,,,,,a,1.137,Incorrect,0,53,53,23,1,t5.png,t4.png,1,0.90025,19,female,2020-09-27_16h38.56.360,torte-2b,2020.1.3,MacIntel,60,13237,,,,,,,,,,,,,,,,,,,,,,,,,,,,,,,,,,,,,,,,,,,,,,,,,,,,,,,,,,,,,,,,,
,,,,,,,,,,,,a,1.169,Incorrect,0,54,54,38,1,t3.png,t1.png,2,0.056466,19,female,2020-09-27_16h38.56.360,torte-2b,2020.1.3,MacIntel,60,13237,,,,,,,,,,,,,,,,,,,,,,,,,,,,,,,,,,,,,,,,,,,,,,,,,,,,,,,,,,,,,,,,,
,,,,,,,,,,,,l,0.841,Correct!,0,55,55,89,1,t1.png,t4.png,3,0.0000131,19,female,2020-09-27_16h38.56.360,torte-2b,2020.1.3,MacIntel,60,13237,,,,,,,,,,,,,,,,,,,,,,,,,,,,,,,,,,,,,,,,,,,,,,,,,,,,,,,,,,,,,,,,,
,,,,,,,,,,,,l,0.819,Incorrect,0,56,56,13,1,t5.png,t5.png,0,0.97829,19,female,2020-09-27_16h38.56.360,torte-2b,2020.1.3,MacIntel,60,13237,,,,,,,,,,,,,,,,,,,,,,,,,,,,,,,,,,,,,,,,,,,,,,,,,,,,,,,,,,,,,,,,,
,,,,,,,,,,,,l,0.909,Incorrect,0,57,57,15,1,t3.png,t2.png,1,0.90855,19,female,2020-09-27_16h38.56.360,torte-2b,2020.1.3,MacIntel,60,13237,,,,,,,,,,,,,,,,,,,,,,,,,,,,,,,,,,,,,,,,,,,,,,,,,,,,,,,,,,,,,,,,,
,,,,,,,,,,,,a,0.771,Correct!,0,58,58,39,1,t3.png,t2.png,1,0.90855,19,female,2020-09-27_16h38.56.360,torte-2b,2020.1.3,MacIntel,60,13237,,,,,,,,,,,,,,,,,,,,,,,,,,,,,,,,,,,,,,,,,,,,,,,,,,,,,,,,,,,,,,,,,
,,,,,,,,,,,,l,0.907,Incorrect,0,59,59,92,1,t2.png,t3.png,1,0.909,19,female,2020-09-27_16h38.56.360,torte-2b,2020.1.3,MacIntel,60,13237,,,,,,,,,,,,,,,,,,,,,,,,,,,,,,,,,,,,,,,,,,,,,,,,,,,,,,,,,,,,,,,,,
,,,,,,,,,,,,l,1.034,Correct!,0,60,60,5,1,t2.png,t4.png,2,0.059078,19,female,2020-09-27_16h38.56.360,torte-2b,2020.1.3,MacIntel,60,13237,,,,,,,,,,,,,,,,,,,,,,,,,,,,,,,,,,,,,,,,,,,,,,,,,,,,,,,,,,,,,,,,,
,,,,,,,,,,,,l,1.332,Correct!,0,61,61,37,1,t1.png,t4.png,3,0.0000131,19,female,2020-09-27_16h38.56.360,torte-2b,2020.1.3,MacIntel,60,13237,,,,,,,,,,,,,,,,,,,,,,,,,,,,,,,,,,,,,,,,,,,,,,,,,,,,,,,,,,,,,,,,,
,,,,,,,,,,,,a,1.049,Incorrect,0,62,62,69,1,t4.png,t2.png,2,0.059078,19,female,2020-09-27_16h38.56.360,torte-2b,2020.1.3,MacIntel,60,13237,,,,,,,,,,,,,,,,,,,,,,,,,,,,,,,,,,,,,,,,,,,,,,,,,,,,,,,,,,,,,,,,,
,,,,,,,,,,,,a,1.375,Incorrect,0,63,63,80,1,t1.png,t4.png,3,0.0000131,19,female,2020-09-27_16h38.56.360,torte-2b,2020.1.3,MacIntel,60,13237,,,,,,,,,,,,,,,,,,,,,,,,,,,,,,,,,,,,,,,,,,,,,,,,,,,,,,,,,,,,,,,,,
,,,,,,,,,,,,l,0.752,Incorrect,0,64,64,79,1,t3.png,t2.png,1,0.909,19,female,2020-09-27_16h38.56.360,torte-2b,2020.1.3,MacIntel,60,13237,,,,,,,,,,,,,,,,,,,,,,,,,,,,,,,,,,,,,,,,,,,,,,,,,,,,,,,,,,,,,,,,,
,,,,,,,,,,,,a,1.085,Correct!,0,65,65,78,1,t1.png,t1.png,0,0.978,19,female,2020-09-27_16h38.56.360,torte-2b,2020.1.3,MacIntel,60,13237,,,,,,,,,,,,,,,,,,,,,,,,,,,,,,,,,,,,,,,,,,,,,,,,,,,,,,,,,,,,,,,,,
,,,,,,,,,,,,a,1.134,Incorrect,0,66,66,52,1,t2.png,t4.png,2,0.059078,19,female,2020-09-27_16h38.56.360,torte-2b,2020.1.3,MacIntel,60,13237,,,,,,,,,,,,,,,,,,,,,,,,,,,,,,,,,,,,,,,,,,,,,,,,,,,,,,,,,,,,,,,,,
,,,,,,,,,,,,a,1.065,Incorrect,0,67,67,53,1,t3.png,t1.png,2,0.056466,19,female,2020-09-27_16h38.56.360,torte-2b,2020.1.3,MacIntel,60,13237,,,,,,,,,,,,,,,,,,,,,,,,,,,,,,,,,,,,,,,,,,,,,,,,,,,,,,,,,,,,,,,,,
,,,,,,,,,,,,l,1.177,Correct!,0,68,68,115,1,t2.png,t4.png,2,0.059078,19,female,2020-09-27_16h38.56.360,torte-2b,2020.1.3,MacIntel,60,13237,,,,,,,,,,,,,,,,,,,,,,,,,,,,,,,,,,,,,,,,,,,,,,,,,,,,,,,,,,,,,,,,,
,,,,,,,,,,,,l,1.009,Incorrect,0,69,69,25,1,t5.png,t5.png,0,0.97829,19,female,2020-09-27_16h38.56.360,torte-2b,2020.1.3,MacIntel,60,13237,,,,,,,,,,,,,,,,,,,,,,,,,,,,,,,,,,,,,,,,,,,,,,,,,,,,,,,,,,,,,,,,,
,,,,,,,,,,,,l,0.811,Incorrect,0,70,70,76,1,t3.png,t2.png,1,0.90855,19,female,2020-09-27_16h38.56.360,torte-2b,2020.1.3,MacIntel,60,13237,,,,,,,,,,,,,,,,,,,,,,,,,,,,,,,,,,,,,,,,,,,,,,,,,,,,,,,,,,,,,,,,,
,,,,,,,,,,,,a,1.534,Correct!,0,71,71,42,1,t5.png,t4.png,1,0.90025,19,female,2020-09-27_16h38.56.360,torte-2b,2020.1.3,MacIntel,60,13237,,,,,,,,,,,,,,,,,,,,,,,,,,,,,,,,,,,,,,,,,,,,,,,,,,,,,,,,,,,,,,,,,
,,,,,,,,,,,,a,1.265,Incorrect,0,72,72,90,1,t1.png,t5.png,4,9.55E-11,19,female,2020-09-27_16h38.56.360,torte-2b,2020.1.3,MacIntel,60,13237,,,,,,,,,,,,,,,,,,,,,,,,,,,,,,,,,,,,,,,,,,,,,,,,,,,,,,,,,,,,,,,,,
,,,,,,,,,,,,a,0.949,Correct!,0,73,73,59,1,t5.png,t4.png,1,0.9,19,female,2020-09-27_16h38.56.360,torte-2b,2020.1.3,MacIntel,60,13237,,,,,,,,,,,,,,,,,,,,,,,,,,,,,,,,,,,,,,,,,,,,,,,,,,,,,,,,,,,,,,,,,
,,,,,,,,,,,,l,0.956,Correct!,0,74,74,19,1,t4.png,t2.png,2,0.059078,19,female,2020-09-27_16h38.56.360,torte-2b,2020.1.3,MacIntel,60,13237,,,,,,,,,,,,,,,,,,,,,,,,,,,,,,,,,,,,,,,,,,,,,,,,,,,,,,,,,,,,,,,,,
,,,,,,,,,,,,l,1.158,Correct!,0,75,75,117,1,t1.png,t5.png,4,9.55E-11,19,female,2020-09-27_16h38.56.360,torte-2b,2020.1.3,MacIntel,60,13237,,,,,,,,,,,,,,,,,,,,,,,,,,,,,,,,,,,,,,,,,,,,,,,,,,,,,,,,,,,,,,,,,
,,,,,,,,,,,,a,1.293,Incorrect,0,76,76,24,1,t4.png,t2.png,2,0.059078,19,female,2020-09-27_16h38.56.360,torte-2b,2020.1.3,MacIntel,60,13237,,,,,,,,,,,,,,,,,,,,,,,,,,,,,,,,,,,,,,,,,,,,,,,,,,,,,,,,,,,,,,,,,
,,,,,,,,,,,,a,1.237,Correct!,0,77,77,9,1,t4.png,t5.png,1,0.9,19,female,2020-09-27_16h38.56.360,torte-2b,2020.1.3,MacIntel,60,13237,,,,,,,,,,,,,,,,,,,,,,,,,,,,,,,,,,,,,,,,,,,,,,,,,,,,,,,,,,,,,,,,,
,,,,,,,,,,,,l,1.028,Correct!,0,78,78,36,1,t3.png,t1.png,2,0.0565,19,female,2020-09-27_16h38.56.360,torte-2b,2020.1.3,MacIntel,60,13237,,,,,,,,,,,,,,,,,,,,,,,,,,,,,,,,,,,,,,,,,,,,,,,,,,,,,,,,,,,,,,,,,
,,,,,,,,,,,,a,0.757,Incorrect,0,79,79,67,1,t1.png,t5.png,4,9.55E-11,19,female,2020-09-27_16h38.56.360,torte-2b,2020.1.3,MacIntel,60,13237,,,,,,,,,,,,,,,,,,,,,,,,,,,,,,,,,,,,,,,,,,,,,,,,,,,,,,,,,,,,,,,,,
,,,,,,,,,,,,l,0.654,Correct!,0,80,80,91,1,t1.png,t4.png,3,0.0000131,19,female,2020-09-27_16h38.56.360,torte-2b,2020.1.3,MacIntel,60,13237,,,,,,,,,,,,,,,,,,,,,,,,,,,,,,,,,,,,,,,,,,,,,,,,,,,,,,,,,,,,,,,,,
,,,,,,,,,,,,l,1.165,Incorrect,0,81,81,21,1,t5.png,t4.png,1,0.90025,19,female,2020-09-27_16h38.56.360,torte-2b,2020.1.3,MacIntel,60,13237,,,,,,,,,,,,,,,,,,,,,,,,,,,,,,,,,,,,,,,,,,,,,,,,,,,,,,,,,,,,,,,,,
,,,,,,,,,,,,l,0.794,Incorrect,0,82,82,63,1,t2.png,t3.png,1,0.909,19,female,2020-09-27_16h38.56.360,torte-2b,2020.1.3,MacIntel,60,13237,,,,,,,,,,,,,,,,,,,,,,,,,,,,,,,,,,,,,,,,,,,,,,,,,,,,,,,,,,,,,,,,,
,,,,,,,,,,,,a,1.109,Correct!,0,83,83,118,1,t5.png,t5.png,0,0.978,19,female,2020-09-27_16h38.56.360,torte-2b,2020.1.3,MacIntel,60,13237,,,,,,,,,,,,,,,,,,,,,,,,,,,,,,,,,,,,,,,,,,,,,,,,,,,,,,,,,,,,,,,,,
,,,,,,,,,,,,a,1.459,Correct!,0,84,84,71,1,t5.png,t5.png,0,0.97829,19,female,2020-09-27_16h38.56.360,torte-2b,2020.1.3,MacIntel,60,13237,,,,,,,,,,,,,,,,,,,,,,,,,,,,,,,,,,,,,,,,,,,,,,,,,,,,,,,,,,,,,,,,,
,,,,,,,,,,,,a,1.049,Correct!,0,85,85,100,1,t4.png,t5.png,1,0.90025,19,female,2020-09-27_16h38.56.360,torte-2b,2020.1.3,MacIntel,60,13237,,,,,,,,,,,,,,,,,,,,,,,,,,,,,,,,,,,,,,,,,,,,,,,,,,,,,,,,,,,,,,,,,
,,,,,,,,,,,,l,1.056,Correct!,0,86,86,105,1,t3.png,t2.png,1,0.90855,19,female,2020-09-27_16h38.56.360,torte-2b,2020.1.3,MacIntel,60,13237,,,,,,,,,,,,,,,,,,,,,,,,,,,,,,,,,,,,,,,,,,,,,,,,,,,,,,,,,,,,,,,,,
,,,,,,,,,,,,l,1.042,Correct!,0,87,87,31,1,t1.png,t5.png,4,9.55E-11,19,female,2020-09-27_16h38.56.360,torte-2b,2020.1.3,MacIntel,60,13237,,,,,,,,,,,,,,,,,,,,,,,,,,,,,,,,,,,,,,,,,,,,,,,,,,,,,,,,,,,,,,,,,
,,,,,,,,,,,,l,0.94,Correct!,0,88,88,12,1,t5.png,t1.png,4,9.55E-11,19,female,2020-09-27_16h38.56.360,torte-2b,2020.1.3,MacIntel,60,13237,,,,,,,,,,,,,,,,,,,,,,,,,,,,,,,,,,,,,,,,,,,,,,,,,,,,,,,,,,,,,,,,,
,,,,,,,,,,,,l,0.953,Correct!,0,89,89,87,1,t5.png,t1.png,4,9.55E-11,19,female,2020-09-27_16h38.56.360,torte-2b,2020.1.3,MacIntel,60,13237,,,,,,,,,,,,,,,,,,,,,,,,,,,,,,,,,,,,,,,,,,,,,,,,,,,,,,,,,,,,,,,,,
,,,,,,,,,,,,l,0.777,Correct!,0,90,90,0,1,t5.png,t1.png,4,9.55E-11,19,female,2020-09-27_16h38.56.360,torte-2b,2020.1.3,MacIntel,60,13237,,,,,,,,,,,,,,,,,,,,,,,,,,,,,,,,,,,,,,,,,,,,,,,,,,,,,,,,,,,,,,,,,
,,,,,,,,,,,,a,1.017,Correct!,0,91,91,51,1,t3.png,t1.png,2,0.056466,19,female,2020-09-27_16h38.56.360,torte-2b,2020.1.3,MacIntel,60,13237,,,,,,,,,,,,,,,,,,,,,,,,,,,,,,,,,,,,,,,,,,,,,,,,,,,,,,,,,,,,,,,,,
,,,,,,,,,,,,l,1.333,Correct!,0,92,92,60,1,t2.png,t4.png,2,0.059078,19,female,2020-09-27_16h38.56.360,torte-2b,2020.1.3,MacIntel,60,13237,,,,,,,,,,,,,,,,,,,,,,,,,,,,,,,,,,,,,,,,,,,,,,,,,,,,,,,,,,,,,,,,,
,,,,,,,,,,,,a,1.09,Correct!,0,93,93,18,1,t4.png,t5.png,1,0.90025,19,female,2020-09-27_16h38.56.360,torte-2b,2020.1.3,MacIntel,60,13237,,,,,,,,,,,,,,,,,,,,,,,,,,,,,,,,,,,,,,,,,,,,,,,,,,,,,,,,,,,,,,,,,
,,,,,,,,,,,,a,1.19,Incorrect,0,94,94,26,1,t4.png,t2.png,2,0.0591,19,female,2020-09-27_16h38.56.360,torte-2b,2020.1.3,MacIntel,60,13237,,,,,,,,,,,,,,,,,,,,,,,,,,,,,,,,,,,,,,,,,,,,,,,,,,,,,,,,,,,,,,,,,
,,,,,,,,,,,,l,0.887,Incorrect,0,95,95,41,1,t3.png,t2.png,1,0.90855,19,female,2020-09-27_16h38.56.360,torte-2b,2020.1.3,MacIntel,60,13237,,,,,,,,,,,,,,,,,,,,,,,,,,,,,,,,,,,,,,,,,,,,,,,,,,,,,,,,,,,,,,,,,
,,,,,,,,,,,,l,0.831,Correct!,0,96,96,40,1,t1.png,t5.png,4,9.55E-11,19,female,2020-09-27_16h38.56.360,torte-2b,2020.1.3,MacIntel,60,13237,,,,,,,,,,,,,,,,,,,,,,,,,,,,,,,,,,,,,,,,,,,,,,,,,,,,,,,,,,,,,,,,,
,,,,,,,,,,,,a,0.908,Correct!,0,97,97,7,1,t4.png,t5.png,1,0.90025,19,female,2020-09-27_16h38.56.360,torte-2b,2020.1.3,MacIntel,60,13237,,,,,,,,,,,,,,,,,,,,,,,,,,,,,,,,,,,,,,,,,,,,,,,,,,,,,,,,,,,,,,,,,
,,,,,,,,,,,,l,0.837,Incorrect,0,98,98,107,1,t1.png,t1.png,0,0.978,19,female,2020-09-27_16h38.56.360,torte-2b,2020.1.3,MacIntel,60,13237,,,,,,,,,,,,,,,,,,,,,,,,,,,,,,,,,,,,,,,,,,,,,,,,,,,,,,,,,,,,,,,,,
,,,,,,,,,,,,l,1.4,Correct!,0,99,99,47,1,t4.png,t2.png,2,0.059078,19,female,2020-09-27_16h38.56.360,torte-2b,2020.1.3,MacIntel,60,13237,,,,,,,,,,,,,,,,,,,,,,,,,,,,,,,,,,,,,,,,,,,,,,,,,,,,,,,,,,,,,,,,,
,,,,,,,,,,,,a,0.903,Incorrect,0,100,100,83,1,t3.png,t1.png,2,0.056466,19,female,2020-09-27_16h38.56.360,torte-2b,2020.1.3,MacIntel,60,13237,,,,,,,,,,,,,,,,,,,,,,,,,,,,,,,,,,,,,,,,,,,,,,,,,,,,,,,,,,,,,,,,,
,,,,,,,,,,,,a,0.906,Correct!,0,101,101,22,1,t2.png,t3.png,1,0.90855,19,female,2020-09-27_16h38.56.360,torte-2b,2020.1.3,MacIntel,60,13237,,,,,,,,,,,,,,,,,,,,,,,,,,,,,,,,,,,,,,,,,,,,,,,,,,,,,,,,,,,,,,,,,
,,,,,,,,,,,,a,1.044,Correct!,0,102,102,96,1,t1.png,t1.png,0,0.97829,19,female,2020-09-27_16h38.56.360,torte-2b,2020.1.3,MacIntel,60,13237,,,,,,,,,,,,,,,,,,,,,,,,,,,,,,,,,,,,,,,,,,,,,,,,,,,,,,,,,,,,,,,,,
,,,,,,,,,,,,l,0.953,Correct!,0,103,103,30,1,t3.png,t1.png,2,0.056466,19,female,2020-09-27_16h38.56.360,torte-2b,2020.1.3,MacIntel,60,13237,,,,,,,,,,,,,,,,,,,,,,,,,,,,,,,,,,,,,,,,,,,,,,,,,,,,,,,,,,,,,,,,,
,,,,,,,,,,,,a,1.409,Correct!,0,104,104,48,1,t5.png,t5.png,0,0.97829,19,female,2020-09-27_16h38.56.360,torte-2b,2020.1.3,MacIntel,60,13237,,,,,,,,,,,,,,,,,,,,,,,,,,,,,,,,,,,,,,,,,,,,,,,,,,,,,,,,,,,,,,,,,
,,,,,,,,,,,,a,1.385,Correct!,0,105,105,106,1,t2.png,t3.png,1,0.90855,19,female,2020-09-27_16h38.56.360,torte-2b,2020.1.3,MacIntel,60,13237,,,,,,,,,,,,,,,,,,,,,,,,,,,,,,,,,,,,,,,,,,,,,,,,,,,,,,,,,,,,,,,,,
,,,,,,,,,,,,a,0.808,Correct!,0,106,106,104,1,t2.png,t3.png,1,0.90855,19,female,2020-09-27_16h38.56.360,torte-2b,2020.1.3,MacIntel,60,13237,,,,,,,,,,,,,,,,,,,,,,,,,,,,,,,,,,,,,,,,,,,,,,,,,,,,,,,,,,,,,,,,,
,,,,,,,,,,,,l,0.915,Correct!,0,107,107,56,1,t5.png,t1.png,4,9.55E-11,19,female,2020-09-27_16h38.56.360,torte-2b,2020.1.3,MacIntel,60,13237,,,,,,,,,,,,,,,,,,,,,,,,,,,,,,,,,,,,,,,,,,,,,,,,,,,,,,,,,,,,,,,,,
,,,,,,,,,,,,a,0.882,Correct!,0,108,108,16,1,t5.png,t4.png,1,0.9,19,female,2020-09-27_16h38.56.360,torte-2b,2020.1.3,MacIntel,60,13237,,,,,,,,,,,,,,,,,,,,,,,,,,,,,,,,,,,,,,,,,,,,,,,,,,,,,,,,,,,,,,,,,
,,,,,,,,,,,,a,0.753,Correct!,0,109,109,95,1,t1.png,t1.png,0,0.978,19,female,2020-09-27_16h38.56.360,torte-2b,2020.1.3,MacIntel,60,13237,,,,,,,,,,,,,,,,,,,,,,,,,,,,,,,,,,,,,,,,,,,,,,,,,,,,,,,,,,,,,,,,,
,,,,,,,,,,,,l,0.647,Incorrect,0,110,110,84,1,t1.png,t1.png,0,0.97829,19,female,2020-09-27_16h38.56.360,torte-2b,2020.1.3,MacIntel,60,13237,,,,,,,,,,,,,,,,,,,,,,,,,,,,,,,,,,,,,,,,,,,,,,,,,,,,,,,,,,,,,,,,,
,,,,,,,,,,,,l,0.959,Correct!,0,111,111,119,1,t1.png,t5.png,4,9.55E-11,19,female,2020-09-27_16h38.56.360,torte-2b,2020.1.3,MacIntel,60,13237,,,,,,,,,,,,,,,,,,,,,,,,,,,,,,,,,,,,,,,,,,,,,,,,,,,,,,,,,,,,,,,,,
,,,,,,,,,,,,a,1.299,Correct!,0,112,112,29,1,t5.png,t5.png,0,0.97829,19,female,2020-09-27_16h38.56.360,torte-2b,2020.1.3,MacIntel,60,13237,,,,,,,,,,,,,,,,,,,,,,,,,,,,,,,,,,,,,,,,,,,,,,,,,,,,,,,,,,,,,,,,,
,,,,,,,,,,,,a,1.159,Incorrect,0,113,113,102,1,t4.png,t2.png,2,0.059078,19,female,2020-09-27_16h38.56.360,torte-2b,2020.1.3,MacIntel,60,13237,,,,,,,,,,,,,,,,,,,,,,,,,,,,,,,,,,,,,,,,,,,,,,,,,,,,,,,,,,,,,,,,,
,,,,,,,,,,,,a,1.052,Correct!,0,114,114,44,1,t2.png,t3.png,1,0.909,19,female,2020-09-27_16h38.56.360,torte-2b,2020.1.3,MacIntel,60,13237,,,,,,,,,,,,,,,,,,,,,,,,,,,,,,,,,,,,,,,,,,,,,,,,,,,,,,,,,,,,,,,,,
,,,,,,,,,,,,l,0.748,Correct!,0,115,115,103,1,t3.png,t1.png,2,0.056466,19,female,2020-09-27_16h38.56.360,torte-2b,2020.1.3,MacIntel,60,13237,,,,,,,,,,,,,,,,,,,,,,,,,,,,,,,,,,,,,,,,,,,,,,,,,,,,,,,,,,,,,,,,,
,,,,,,,,,,,,l,0.824,Correct!,0,116,116,14,1,t2.png,t4.png,2,0.059078,19,female,2020-09-27_16h38.56.360,torte-2b,2020.1.3,MacIntel,60,13237,,,,,,,,,,,,,,,,,,,,,,,,,,,,,,,,,,,,,,,,,,,,,,,,,,,,,,,,,,,,,,,,,
,,,,,,,,,,,,a,0.988,Correct!,0,117,117,66,1,t4.png,t5.png,1,0.9,19,female,2020-09-27_16h38.56.360,torte-2b,2020.1.3,MacIntel,60,13237,,,,,,,,,,,,,,,,,,,,,,,,,,,,,,,,,,,,,,,,,,,,,,,,,,,,,,,,,,,,,,,,,
,,,,,,,,,,,,l,0.926,Incorrect,0,118,118,113,1,t5.png,t4.png,1,0.9,19,female,2020-09-27_16h38.56.360,torte-2b,2020.1.3,MacIntel,60,13237,,,,,,,,,,,,,,,,,,,,,,,,,,,,,,,,,,,,,,,,,,,,,,,,,,,,,,,,,,,,,,,,,
,,,,,,,,,,,,l,0.876,Correct!,0,119,119,3,1,t1.png,t5.png,4,9.55E-11,19,female,2020-09-27_16h38.56.360,torte-2b,2020.1.3,MacIntel,60,13237,,,,,,,,,,,,,,,,,,,,,,,,,,,,,,,,,,,,,,,,,,,,,,,,,,,,,,,,,,,,,,,,,
,,,,,,,,,,,,a,0.84,Correct!,,,,,,t2.png,t3.png,1,0.90855,19,female,2020-09-27_16h38.56.360,torte-2b,2020.1.3,MacIntel,60,13237,space,2.861,space,71.166,0,0,0,65,1,,,,,,,,,,,,,,,,,,,,,,,,,,,,,,,,,,,,,,,,,,,,,,,,,,,,,,,,
,,,,,,,,,,,,l,1.094,Correct!,,,,,,t1.png,t5.png,4,9.55E-11,19,female,2020-09-27_16h38.56.360,torte-2b,2020.1.3,MacIntel,60,13237,,,,,0,1,1,12,1,,,,,,,,,,,,,,,,,,,,,,,,,,,,,,,,,,,,,,,,,,,,,,,,,,,,,,,,
,,,,,,,,,,,,a,0.99,Correct!,,,,,,t4.png,t5.png,1,0.90025,19,female,2020-09-27_16h38.56.360,torte-2b,2020.1.3,MacIntel,60,13237,,,,,0,2,2,113,1,,,,,,,,,,,,,,,,,,,,,,,,,,,,,,,,,,,,,,,,,,,,,,,,,,,,,,,,
,,,,,,,,,,,,l,1.017,Incorrect,,,,,,t3.png,t2.png,1,0.909,19,female,2020-09-27_16h38.56.360,torte-2b,2020.1.3,MacIntel,60,13237,,,,,0,3,3,3,1,,,,,,,,,,,,,,,,,,,,,,,,,,,,,,,,,,,,,,,,,,,,,,,,,,,,,,,,
,,,,,,,,,,,,a,1.932,Incorrect,,,,,,t3.png,t5.png,2,0.056466,19,female,2020-09-27_16h38.56.360,torte-2b,2020.1.3,MacIntel,60,13237,,,,,0,4,4,6,1,,,,,,,,,,,,,,,,,,,,,,,,,,,,,,,,,,,,,,,,,,,,,,,,,,,,,,,,
,,,,,,,,,,,,a,0.828,Correct!,,,,,,t4.png,t3.png,1,0.909,19,female,2020-09-27_16h38.56.360,torte-2b,2020.1.3,MacIntel,60,13237,,,,,0,5,5,46,1,,,,,,,,,,,,,,,,,,,,,,,,,,,,,,,,,,,,,,,,,,,,,,,,,,,,,,,,
,,,,,,,,,,,,l,1.126,Correct!,,,,,,t2.png,t4.png,2,0.059078,19,female,2020-09-27_16h38.56.360,torte-2b,2020.1.3,MacIntel,60,13237,,,,,0,6,6,37,1,,,,,,,,,,,,,,,,,,,,,,,,,,,,,,,,,,,,,,,,,,,,,,,,,,,,,,,,
,,,,,,,,,,,,a,1.259,Correct!,,,,,,t5.png,t4.png,1,0.90025,19,female,2020-09-27_16h38.56.360,torte-2b,2020.1.3,MacIntel,60,13237,,,,,0,7,7,26,1,,,,,,,,,,,,,,,,,,,,,,,,,,,,,,,,,,,,,,,,,,,,,,,,,,,,,,,,
,,,,,,,,,,,,a,1.22,Incorrect,,,,,,t1.png,t4.png,3,0.0000131,19,female,2020-09-27_16h38.56.360,torte-2b,2020.1.3,MacIntel,60,13237,,,,,0,8,8,92,1,,,,,,,,,,,,,,,,,,,,,,,,,,,,,,,,,,,,,,,,,,,,,,,,,,,,,,,,
,,,,,,,,,,,,l,0.909,Correct!,,,,,,t2.png,t4.png,2,0.059078,19,female,2020-09-27_16h38.56.360,torte-2b,2020.1.3,MacIntel,60,13237,,,,,0,9,9,24,1,,,,,,,,,,,,,,,,,,,,,,,,,,,,,,,,,,,,,,,,,,,,,,,,,,,,,,,,
,,,,,,,,,,,,a,1.104,Correct!,,,,,,t2.png,t3.png,1,0.90855,19,female,2020-09-27_16h38.56.360,torte-2b,2020.1.3,MacIntel,60,13237,,,,,0,10,10,10,1,,,,,,,,,,,,,,,,,,,,,,,,,,,,,,,,,,,,,,,,,,,,,,,,,,,,,,,,
,,,,,,,,,,,,l,1.243,Incorrect,,,,,,t2.png,t1.png,1,0.90025,19,female,2020-09-27_16h38.56.360,torte-2b,2020.1.3,MacIntel,60,13237,,,,,0,11,11,5,1,,,,,,,,,,,,,,,,,,,,,,,,,,,,,,,,,,,,,,,,,,,,,,,,,,,,,,,,
,,,,,,,,,,,,a,1.252,Correct!,,,,,,t2.png,t2.png,0,0.98115,19,female,2020-09-27_16h38.56.360,torte-2b,2020.1.3,MacIntel,60,13237,,,,,0,12,12,7,1,,,,,,,,,,,,,,,,,,,,,,,,,,,,,,,,,,,,,,,,,,,,,,,,,,,,,,,,
,,,,,,,,,,,,a,1.019,Correct!,,,,,,t5.png,t5.png,0,0.97829,19,female,2020-09-27_16h38.56.360,torte-2b,2020.1.3,MacIntel,60,13237,,,,,0,13,13,94,1,,,,,,,,,,,,,,,,,,,,,,,,,,,,,,,,,,,,,,,,,,,,,,,,,,,,,,,,
,,,,,,,,,,,,a,0.691,Correct!,,,,,,t5.png,t5.png,0,0.97829,19,female,2020-09-27_16h38.56.360,torte-2b,2020.1.3,MacIntel,60,13237,,,,,0,14,14,70,1,,,,,,,,,,,,,,,,,,,,,,,,,,,,,,,,,,,,,,,,,,,,,,,,,,,,,,,,
,,,,,,,,,,,,l,0.981,Correct!,,,,,,t1.png,t4.png,3,0.0000131,19,female,2020-09-27_16h38.56.360,torte-2b,2020.1.3,MacIntel,60,13237,,,,,0,15,15,17,1,,,,,,,,,,,,,,,,,,,,,,,,,,,,,,,,,,,,,,,,,,,,,,,,,,,,,,,,
,,,,,,,,,,,,a,1.245,Incorrect,,,,,,t3.png,t1.png,2,0.056466,19,female,2020-09-27_16h38.56.360,torte-2b,2020.1.3,MacIntel,60,13237,,,,,0,16,16,29,1,,,,,,,,,,,,,,,,,,,,,,,,,,,,,,,,,,,,,,,,,,,,,,,,,,,,,,,,
,,,,,,,,,,,,a,1.14,Correct!,,,,,,t4.png,t4.png,0,0.98115,19,female,2020-09-27_16h38.56.360,torte-2b,2020.1.3,MacIntel,60,13237,,,,,0,17,17,90,1,,,,,,,,,,,,,,,,,,,,,,,,,,,,,,,,,,,,,,,,,,,,,,,,,,,,,,,,
,,,,,,,,,,,,l,0.927,Correct!,,,,,,t4.png,t1.png,3,0.0000131,19,female,2020-09-27_16h38.56.360,torte-2b,2020.1.3,MacIntel,60,13237,,,,,0,18,18,93,1,,,,,,,,,,,,,,,,,,,,,,,,,,,,,,,,,,,,,,,,,,,,,,,,,,,,,,,,
,,,,,,,,,,,,l,1.532,Correct!,,,,,,t2.png,t5.png,3,0.0000131,19,female,2020-09-27_16h38.56.360,torte-2b,2020.1.3,MacIntel,60,13237,,,,,0,19,19,104,1,,,,,,,,,,,,,,,,,,,,,,,,,,,,,,,,,,,,,,,,,,,,,,,,,,,,,,,,
,,,,,,,,,,,,a,1.209,Incorrect,,,,,,t4.png,t2.png,2,0.059078,19,female,2020-09-27_16h38.56.360,torte-2b,2020.1.3,MacIntel,60,13237,,,,,0,20,20,109,1,,,,,,,,,,,,,,,,,,,,,,,,,,,,,,,,,,,,,,,,,,,,,,,,,,,,,,,,
,,,,,,,,,,,,l,1.242,Incorrect,,,,,,t4.png,t3.png,1,0.90855,19,female,2020-09-27_16h38.56.360,torte-2b,2020.1.3,MacIntel,60,13237,,,,,0,21,21,45,1,,,,,,,,,,,,,,,,,,,,,,,,,,,,,,,,,,,,,,,,,,,,,,,,,,,,,,,,
,,,,,,,,,,,,l,1.035,Correct!,,,,,,t1.png,t5.png,4,9.55E-11,19,female,2020-09-27_16h38.56.360,torte-2b,2020.1.3,MacIntel,60,13237,,,,,0,22,22,85,1,,,,,,,,,,,,,,,,,,,,,,,,,,,,,,,,,,,,,,,,,,,,,,,,,,,,,,,,
,,,,,,,,,,,,a,1.935,Correct!,,,,,,t2.png,t1.png,1,0.90025,19,female,2020-09-27_16h38.56.360,torte-2b,2020.1.3,MacIntel,60,13237,,,,,0,23,23,62,1,,,,,,,,,,,,,,,,,,,,,,,,,,,,,,,,,,,,,,,,,,,,,,,,,,,,,,,,
,,,,,,,,,,,,l,1.325,Correct!,,,,,,t5.png,t2.png,3,0.0000131,19,female,2020-09-27_16h38.56.360,torte-2b,2020.1.3,MacIntel,60,13237,,,,,0,24,24,91,1,,,,,,,,,,,,,,,,,,,,,,,,,,,,,,,,,,,,,,,,,,,,,,,,,,,,,,,,
,,,,,,,,,,,,a,0.937,Incorrect,,,,,,t2.png,t5.png,3,0.0000131,19,female,2020-09-27_16h38.56.360,torte-2b,2020.1.3,MacIntel,60,13237,,,,,0,25,25,66,1,,,,,,,,,,,,,,,,,,,,,,,,,,,,,,,,,,,,,,,,,,,,,,,,,,,,,,,,
,,,,,,,,,,,,a,1.181,Incorrect,,,,,,t3.png,t5.png,2,0.056466,19,female,2020-09-27_16h38.56.360,torte-2b,2020.1.3,MacIntel,60,13237,,,,,0,26,26,14,1,,,,,,,,,,,,,,,,,,,,,,,,,,,,,,,,,,,,,,,,,,,,,,,,,,,,,,,,
,,,,,,,,,,,,a,1.202,Correct!,,,,,,t4.png,t3.png,1,0.90855,19,female,2020-09-27_16h38.56.360,torte-2b,2020.1.3,MacIntel,60,13237,,,,,0,27,27,75,1,,,,,,,,,,,,,,,,,,,,,,,,,,,,,,,,,,,,,,,,,,,,,,,,,,,,,,,,
,,,,,,,,,,,,l,1.066,Correct!,,,,,,t3.png,t2.png,1,0.909,19,female,2020-09-27_16h38.56.360,torte-2b,2020.1.3,MacIntel,60,13237,,,,,0,28,28,23,1,,,,,,,,,,,,,,,,,,,,,,,,,,,,,,,,,,,,,,,,,,,,,,,,,,,,,,,,
,,,,,,,,,,,,a,1.049,Correct!,,,,,,t1.png,t1.png,0,0.978,19,female,2020-09-27_16h38.56.360,torte-2b,2020.1.3,MacIntel,60,13237,,,,,0,29,29,54,1,,,,,,,,,,,,,,,,,,,,,,,,,,,,,,,,,,,,,,,,,,,,,,,,,,,,,,,,
,,,,,,,,,,,,a,0.978,Incorrect,,,,,,t4.png,t1.png,3,0.0000131,19,female,2020-09-27_16h38.56.360,torte-2b,2020.1.3,MacIntel,60,13237,,,,,0,30,30,48,1,,,,,,,,,,,,,,,,,,,,,,,,,,,,,,,,,,,,,,,,,,,,,,,,,,,,,,,,
,,,,,,,,,,,,a,1.158,Correct!,,,,,,t5.png,t5.png,0,0.978,19,female,2020-09-27_16h38.56.360,torte-2b,2020.1.3,MacIntel,60,13237,,,,,0,31,31,117,1,,,,,,,,,,,,,,,,,,,,,,,,,,,,,,,,,,,,,,,,,,,,,,,,,,,,,,,,
,,,,,,,,,,,,a,1.174,Incorrect,,,,,,t5.png,t4.png,1,0.90025,19,female,2020-09-27_16h38.56.360,torte-2b,2020.1.3,MacIntel,60,13237,,,,,0,32,32,34,1,,,,,,,,,,,,,,,,,,,,,,,,,,,,,,,,,,,,,,,,,,,,,,,,,,,,,,,,
,,,,,,,,,,,,l,0.935,Incorrect,,,,,,t3.png,t4.png,1,0.90855,19,female,2020-09-27_16h38.56.360,torte-2b,2020.1.3,MacIntel,60,13237,,,,,0,33,33,84,1,,,,,,,,,,,,,,,,,,,,,,,,,,,,,,,,,,,,,,,,,,,,,,,,,,,,,,,,
,,,,,,,,,,,,a,0.765,Incorrect,,,,,,t1.png,t3.png,2,0.056466,19,female,2020-09-27_16h38.56.360,torte-2b,2020.1.3,MacIntel,60,13237,,,,,0,34,34,69,1,,,,,,,,,,,,,,,,,,,,,,,,,,,,,,,,,,,,,,,,,,,,,,,,,,,,,,,,
,,,,,,,,,,,,a,1.072,Incorrect,,,,,,t4.png,t2.png,2,0.059078,19,female,2020-09-27_16h38.56.360,torte-2b,2020.1.3,MacIntel,60,13237,,,,,0,35,35,88,1,,,,,,,,,,,,,,,,,,,,,,,,,,,,,,,,,,,,,,,,,,,,,,,,,,,,,,,,
,,,,,,,,,,,,l,0.818,Correct!,,,,,,t2.png,t5.png,3,0.0000131,19,female,2020-09-27_16h38.56.360,torte-2b,2020.1.3,MacIntel,60,13237,,,,,0,36,36,8,1,,,,,,,,,,,,,,,,,,,,,,,,,,,,,,,,,,,,,,,,,,,,,,,,,,,,,,,,
,,,,,,,,,,,,l,0.831,Correct!,,,,,,t1.png,t5.png,4,9.55E-11,19,female,2020-09-27_16h38.56.360,torte-2b,2020.1.3,MacIntel,60,13237,,,,,0,37,37,16,1,,,,,,,,,,,,,,,,,,,,,,,,,,,,,,,,,,,,,,,,,,,,,,,,,,,,,,,,
,,,,,,,,,,,,a,0.741,Correct!,,,,,,t1.png,t1.png,0,0.97829,19,female,2020-09-27_16h38.56.360,torte-2b,2020.1.3,MacIntel,60,13237,,,,,0,38,38,9,1,,,,,,,,,,,,,,,,,,,,,,,,,,,,,,,,,,,,,,,,,,,,,,,,,,,,,,,,
,,,,,,,,,,,,l,0.842,Incorrect,,,,,,t2.png,t1.png,1,0.9,19,female,2020-09-27_16h38.56.360,torte-2b,2020.1.3,MacIntel,60,13237,,,,,0,39,39,118,1,,,,,,,,,,,,,,,,,,,,,,,,,,,,,,,,,,,,,,,,,,,,,,,,,,,,,,,,
,,,,,,,,,,,,l,0.753,Incorrect,,,,,,t2.png,t1.png,1,0.90025,19,female,2020-09-27_16h38.56.360,torte-2b,2020.1.3,MacIntel,60,13237,,,,,0,40,40,19,1,,,,,,,,,,,,,,,,,,,,,,,,,,,,,,,,,,,,,,,,,,,,,,,,,,,,,,,,
,,,,,,,,,,,,a,0.932,Correct!,,,,,,t2.png,t2.png,0,0.981,19,female,2020-09-27_16h38.56.360,torte-2b,2020.1.3,MacIntel,60,13237,,,,,0,41,41,101,1,,,,,,,,,,,,,,,,,,,,,,,,,,,,,,,,,,,,,,,,,,,,,,,,,,,,,,,,
,,,,,,,,,,,,a,1.004,Incorrect,,,,,,t5.png,t2.png,3,0.0000131,19,female,2020-09-27_16h38.56.360,torte-2b,2020.1.3,MacIntel,60,13237,,,,,0,42,42,116,1,,,,,,,,,,,,,,,,,,,,,,,,,,,,,,,,,,,,,,,,,,,,,,,,,,,,,,,,
,,,,,,,,,,,,l,1.227,Correct!,,,,,,t1.png,t3.png,2,0.056466,19,female,2020-09-27_16h38.56.360,torte-2b,2020.1.3,MacIntel,60,13237,,,,,0,43,43,60,1,,,,,,,,,,,,,,,,,,,,,,,,,,,,,,,,,,,,,,,,,,,,,,,,,,,,,,,,
,,,,,,,,,,,,a,0.854,Incorrect,,,,,,t4.png,t2.png,2,0.059078,19,female,2020-09-27_16h38.56.360,torte-2b,2020.1.3,MacIntel,60,13237,,,,,0,44,44,86,1,,,,,,,,,,,,,,,,,,,,,,,,,,,,,,,,,,,,,,,,,,,,,,,,,,,,,,,,
,,,,,,,,,,,,a,0.892,Correct!,,,,,,t5.png,t5.png,0,0.97829,19,female,2020-09-27_16h38.56.360,torte-2b,2020.1.3,MacIntel,60,13237,,,,,0,45,45,73,1,,,,,,,,,,,,,,,,,,,,,,,,,,,,,,,,,,,,,,,,,,,,,,,,,,,,,,,,
,,,,,,,,,,,,l,1.384,Incorrect,,,,,,t2.png,t2.png,0,0.98115,19,female,2020-09-27_16h38.56.360,torte-2b,2020.1.3,MacIntel,60,13237,,,,,0,46,46,59,1,,,,,,,,,,,,,,,,,,,,,,,,,,,,,,,,,,,,,,,,,,,,,,,,,,,,,,,,
,,,,,,,,,,,,a,0.932,Incorrect,,,,,,t2.png,t4.png,2,0.059078,19,female,2020-09-27_16h38.56.360,torte-2b,2020.1.3,MacIntel,60,13237,,,,,0,47,47,77,1,,,,,,,,,,,,,,,,,,,,,,,,,,,,,,,,,,,,,,,,,,,,,,,,,,,,,,,,
,,,,,,,,,,,,l,1.003,Incorrect,,,,,,t3.png,t2.png,1,0.90855,19,female,2020-09-27_16h38.56.360,torte-2b,2020.1.3,MacIntel,60,13237,,,,,0,48,48,18,1,,,,,,,,,,,,,,,,,,,,,,,,,,,,,,,,,,,,,,,,,,,,,,,,,,,,,,,,
,,,,,,,,,,,,a,0.776,Correct!,,,,,,t5.png,t5.png,0,0.97829,19,female,2020-09-27_16h38.56.360,torte-2b,2020.1.3,MacIntel,60,13237,,,,,0,49,49,25,1,,,,,,,,,,,,,,,,,,,,,,,,,,,,,,,,,,,,,,,,,,,,,,,,,,,,,,,,
,,,,,,,,,,,,l,1.268,Incorrect,,,,,,t3.png,t2.png,1,0.90855,19,female,2020-09-27_16h38.56.360,torte-2b,2020.1.3,MacIntel,60,13237,,,,,0,50,50,97,1,,,,,,,,,,,,,,,,,,,,,,,,,,,,,,,,,,,,,,,,,,,,,,,,,,,,,,,,
,,,,,,,,,,,,l,0.825,Incorrect,,,,,,t3.png,t2.png,1,0.90855,19,female,2020-09-27_16h38.56.360,torte-2b,2020.1.3,MacIntel,60,13237,,,,,0,51,51,53,1,,,,,,,,,,,,,,,,,,,,,,,,,,,,,,,,,,,,,,,,,,,,,,,,,,,,,,,,
,,,,,,,,,,,,l,1.115,Correct!,,,,,,t3.png,t1.png,2,0.056466,19,female,2020-09-27_16h38.56.360,torte-2b,2020.1.3,MacIntel,60,13237,,,,,0,52,52,32,1,,,,,,,,,,,,,,,,,,,,,,,,,,,,,,,,,,,,,,,,,,,,,,,,,,,,,,,,
,,,,,,,,,,,,l,0.84,Correct!,,,,,,t3.png,t4.png,1,0.909,19,female,2020-09-27_16h38.56.360,torte-2b,2020.1.3,MacIntel,60,13237,,,,,0,53,53,106,1,,,,,,,,,,,,,,,,,,,,,,,,,,,,,,,,,,,,,,,,,,,,,,,,,,,,,,,,
,,,,,,,,,,,,a,0.941,Incorrect,,,,,,t2.png,t5.png,3,0.0000131,19,female,2020-09-27_16h38.56.360,torte-2b,2020.1.3,MacIntel,60,13237,,,,,0,54,54,40,1,,,,,,,,,,,,,,,,,,,,,,,,,,,,,,,,,,,,,,,,,,,,,,,,,,,,,,,,
,,,,,,,,,,,,a,0.92,Incorrect,,,,,,t5.png,t1.png,4,9.55E-11,19,female,2020-09-27_16h38.56.360,torte-2b,2020.1.3,MacIntel,60,13237,,,,,0,55,55,22,1,,,,,,,,,,,,,,,,,,,,,,,,,,,,,,,,,,,,,,,,,,,,,,,,,,,,,,,,
,,,,,,,,,,,,a,0.876,Incorrect,,,,,,t4.png,t1.png,3,0.0000131,19,female,2020-09-27_16h38.56.360,torte-2b,2020.1.3,MacIntel,60,13237,,,,,0,56,56,13,1,,,,,,,,,,,,,,,,,,,,,,,,,,,,,,,,,,,,,,,,,,,,,,,,,,,,,,,,
,,,,,,,,,,,,l,0.939,Incorrect,,,,,,t2.png,t1.png,1,0.90025,19,female,2020-09-27_16h38.56.360,torte-2b,2020.1.3,MacIntel,60,13237,,,,,0,57,57,4,1,,,,,,,,,,,,,,,,,,,,,,,,,,,,,,,,,,,,,,,,,,,,,,,,,,,,,,,,
,,,,,,,,,,,,l,1.221,Correct!,,,,,,t5.png,t3.png,2,0.056466,19,female,2020-09-27_16h38.56.360,torte-2b,2020.1.3,MacIntel,60,13237,,,,,0,58,58,114,1,,,,,,,,,,,,,,,,,,,,,,,,,,,,,,,,,,,,,,,,,,,,,,,,,,,,,,,,
,,,,,,,,,,,,a,0.756,Correct!,,,,,,t1.png,t2.png,1,0.9,19,female,2020-09-27_16h38.56.360,torte-2b,2020.1.3,MacIntel,60,13237,,,,,0,59,59,1,1,,,,,,,,,,,,,,,,,,,,,,,,,,,,,,,,,,,,,,,,,,,,,,,,,,,,,,,,
,,,,,,,,,,,,l,0.951,Incorrect,,,,,,t3.png,t4.png,1,0.909,19,female,2020-09-27_16h38.56.360,torte-2b,2020.1.3,MacIntel,60,13237,,,,,0,60,60,82,1,,,,,,,,,,,,,,,,,,,,,,,,,,,,,,,,,,,,,,,,,,,,,,,,,,,,,,,,
,,,,,,,,,,,,l,1.286,Correct!,,,,,,t1.png,t4.png,3,0.0000131,19,female,2020-09-27_16h38.56.360,torte-2b,2020.1.3,MacIntel,60,13237,,,,,0,61,61,81,1,,,,,,,,,,,,,,,,,,,,,,,,,,,,,,,,,,,,,,,,,,,,,,,,,,,,,,,,
,,,,,,,,,,,,a,0.877,Correct!,,,,,,t1.png,t2.png,1,0.90025,19,female,2020-09-27_16h38.56.360,torte-2b,2020.1.3,MacIntel,60,13237,,,,,0,62,62,33,1,,,,,,,,,,,,,,,,,,,,,,,,,,,,,,,,,,,,,,,,,,,,,,,,,,,,,,,,
,,,,,,,,,,,,l,0.859,Correct!,,,,,,t3.png,t1.png,2,0.056466,19,female,2020-09-27_16h38.56.360,torte-2b,2020.1.3,MacIntel,60,13237,,,,,0,63,63,64,1,,,,,,,,,,,,,,,,,,,,,,,,,,,,,,,,,,,,,,,,,,,,,,,,,,,,,,,,
,,,,,,,,,,,,a,1.34,Correct!,,,,,,t3.png,t5.png,2,0.0565,19,female,2020-09-27_16h38.56.360,torte-2b,2020.1.3,MacIntel,60,13237,,,,,0,64,64,30,1,,,,,,,,,,,,,,,,,,,,,,,,,,,,,,,,,,,,,,,,,,,,,,,,,,,,,,,,
,,,,,,,,,,,,a,0.861,Correct!,,,,,,t2.png,t3.png,1,0.90855,19,female,2020-09-27_16h38.56.360,torte-2b,2020.1.3,MacIntel,60,13237,,,,,0,65,65,111,1,,,,,,,,,,,,,,,,,,,,,,,,,,,,,,,,,,,,,,,,,,,,,,,,,,,,,,,,
,,,,,,,,,,,,a,0.67,Incorrect,,,,,,t2.png,t3.png,1,0.90855,19,female,2020-09-27_16h38.56.360,torte-2b,2020.1.3,MacIntel,60,13237,,,,,0,66,66,68,1,,,,,,,,,,,,,,,,,,,,,,,,,,,,,,,,,,,,,,,,,,,,,,,,,,,,,,,,
,,,,,,,,,,,,l,0.858,Incorrect,,,,,,t1.png,t2.png,1,0.90025,19,female,2020-09-27_16h38.56.360,torte-2b,2020.1.3,MacIntel,60,13237,,,,,0,67,67,112,1,,,,,,,,,,,,,,,,,,,,,,,,,,,,,,,,,,,,,,,,,,,,,,,,,,,,,,,,
,,,,,,,,,,,,l,1.12,Incorrect,,,,,,t4.png,t3.png,1,0.90855,19,female,2020-09-27_16h38.56.360,torte-2b,2020.1.3,MacIntel,60,13237,,,,,0,68,68,35,1,,,,,,,,,,,,,,,,,,,,,,,,,,,,,,,,,,,,,,,,,,,,,,,,,,,,,,,,
,,,,,,,,,,,,a,0.667,Correct!,,,,,,t4.png,t4.png,0,0.98115,19,female,2020-09-27_16h38.56.360,torte-2b,2020.1.3,MacIntel,60,13237,,,,,0,69,69,79,1,,,,,,,,,,,,,,,,,,,,,,,,,,,,,,,,,,,,,,,,,,,,,,,,,,,,,,,,
,,,,,,,,,,,,a,0.543,Correct!,,,,,,t4.png,t4.png,0,0.98115,19,female,2020-09-27_16h38.56.360,torte-2b,2020.1.3,MacIntel,60,13237,,,,,0,70,70,21,1,,,,,,,,,,,,,,,,,,,,,,,,,,,,,,,,,,,,,,,,,,,,,,,,,,,,,,,,
,,,,,,,,,,,,a,0.962,Incorrect,,,,,,t2.png,t5.png,3,0.0000131,19,female,2020-09-27_16h38.56.360,torte-2b,2020.1.3,MacIntel,60,13237,,,,,0,71,71,95,1,,,,,,,,,,,,,,,,,,,,,,,,,,,,,,,,,,,,,,,,,,,,,,,,,,,,,,,,
,,,,,,,,,,,,l,1.126,Correct!,,,,,,t5.png,t2.png,3,0.0000131,19,female,2020-09-27_16h38.56.360,torte-2b,2020.1.3,MacIntel,60,13237,,,,,0,72,72,51,1,,,,,,,,,,,,,,,,,,,,,,,,,,,,,,,,,,,,,,,,,,,,,,,,,,,,,,,,
,,,,,,,,,,,,a,0.849,Correct!,,,,,,t4.png,t4.png,0,0.98115,19,female,2020-09-27_16h38.56.360,torte-2b,2020.1.3,MacIntel,60,13237,,,,,0,73,73,52,1,,,,,,,,,,,,,,,,,,,,,,,,,,,,,,,,,,,,,,,,,,,,,,,,,,,,,,,,
,,,,,,,,,,,,a,0.709,Correct!,,,,,,t4.png,t4.png,0,0.98115,19,female,2020-09-27_16h38.56.360,torte-2b,2020.1.3,MacIntel,60,13237,,,,,0,74,74,80,1,,,,,,,,,,,,,,,,,,,,,,,,,,,,,,,,,,,,,,,,,,,,,,,,,,,,,,,,
,,,,,,,,,,,,l,0.904,Correct!,,,,,,t1.png,t2.png,1,0.90025,19,female,2020-09-27_16h38.56.360,torte-2b,2020.1.3,MacIntel,60,13237,,,,,0,75,75,72,1,,,,,,,,,,,,,,,,,,,,,,,,,,,,,,,,,,,,,,,,,,,,,,,,,,,,,,,,
,,,,,,,,,,,,l,0.742,Incorrect,,,,,,t1.png,t1.png,0,0.97829,19,female,2020-09-27_16h38.56.360,torte-2b,2020.1.3,MacIntel,60,13237,,,,,0,76,76,67,1,,,,,,,,,,,,,,,,,,,,,,,,,,,,,,,,,,,,,,,,,,,,,,,,,,,,,,,,
,,,,,,,,,,,,l,0.741,Correct!,,,,,,t1.png,t5.png,4,9.55E-11,19,female,2020-09-27_16h38.56.360,torte-2b,2020.1.3,MacIntel,60,13237,,,,,0,77,77,41,1,,,,,,,,,,,,,,,,,,,,,,,,,,,,,,,,,,,,,,,,,,,,,,,,,,,,,,,,
,,,,,,,,,,,,a,0.909,Incorrect,,,,,,t1.png,t3.png,2,0.056466,19,female,2020-09-27_16h38.56.360,torte-2b,2020.1.3,MacIntel,60,13237,,,,,0,78,78,63,1,,,,,,,,,,,,,,,,,,,,,,,,,,,,,,,,,,,,,,,,,,,,,,,,,,,,,,,,
,,,,,,,,,,,,a,1.109,Incorrect,,,,,,t4.png,t1.png,3,0.0000131,19,female,2020-09-27_16h38.56.360,torte-2b,2020.1.3,MacIntel,60,13237,,,,,0,79,79,61,1,,,,,,,,,,,,,,,,,,,,,,,,,,,,,,,,,,,,,,,,,,,,,,,,,,,,,,,,
,,,,,,,,,,,,l,1.008,Correct!,,,,,,t3.png,t5.png,2,0.056466,19,female,2020-09-27_16h38.56.360,torte-2b,2020.1.3,MacIntel,60,13237,,,,,0,80,80,44,1,,,,,,,,,,,,,,,,,,,,,,,,,,,,,,,,,,,,,,,,,,,,,,,,,,,,,,,,
,,,,,,,,,,,,l,0.921,Correct!,,,,,,t1.png,t5.png,4,9.55E-11,19,female,2020-09-27_16h38.56.360,torte-2b,2020.1.3,MacIntel,60,13237,,,,,0,81,81,55,1,,,,,,,,,,,,,,,,,,,,,,,,,,,,,,,,,,,,,,,,,,,,,,,,,,,,,,,,
,,,,,,,,,,,,a,0.756,Correct!,,,,,,t1.png,t1.png,0,0.97829,19,female,2020-09-27_16h38.56.360,torte-2b,2020.1.3,MacIntel,60,13237,,,,,0,82,82,78,1,,,,,,,,,,,,,,,,,,,,,,,,,,,,,,,,,,,,,,,,,,,,,,,,,,,,,,,,
,,,,,,,,,,,,l,0.924,Correct!,,,,,,t5.png,t3.png,2,0.056466,19,female,2020-09-27_16h38.56.360,torte-2b,2020.1.3,MacIntel,60,13237,,,,,0,83,83,38,1,,,,,,,,,,,,,,,,,,,,,,,,,,,,,,,,,,,,,,,,,,,,,,,,,,,,,,,,
,,,,,,,,,,,,a,0.907,Incorrect,,,,,,t4.png,t2.png,2,0.0591,19,female,2020-09-27_16h38.56.360,torte-2b,2020.1.3,MacIntel,60,13237,,,,,0,84,84,36,1,,,,,,,,,,,,,,,,,,,,,,,,,,,,,,,,,,,,,,,,,,,,,,,,,,,,,,,,
,,,,,,,,,,,,a,0.661,Incorrect,,,,,,t4.png,t2.png,2,0.059078,19,female,2020-09-27_16h38.56.360,torte-2b,2020.1.3,MacIntel,60,13237,,,,,0,85,85,110,1,,,,,,,,,,,,,,,,,,,,,,,,,,,,,,,,,,,,,,,,,,,,,,,,,,,,,,,,
,,,,,,,,,,,,a,1.436,Incorrect,,,,,,t1.png,t4.png,3,0.0000131,19,female,2020-09-27_16h38.56.360,torte-2b,2020.1.3,MacIntel,60,13237,,,,,0,86,86,50,1,,,,,,,,,,,,,,,,,,,,,,,,,,,,,,,,,,,,,,,,,,,,,,,,,,,,,,,,
,,,,,,,,,,,,a,0.705,Incorrect,,,,,,t1.png,t4.png,3,0.0000131,19,female,2020-09-27_16h38.56.360,torte-2b,2020.1.3,MacIntel,60,13237,,,,,0,87,87,107,1,,,,,,,,,,,,,,,,,,,,,,,,,,,,,,,,,,,,,,,,,,,,,,,,,,,,,,,,
,,,,,,,,,,,,l,0.827,Correct!,,,,,,t5.png,t2.png,3,0.0000131,19,female,2020-09-27_16h38.56.360,torte-2b,2020.1.3,MacIntel,60,13237,,,,,0,88,88,119,1,,,,,,,,,,,,,,,,,,,,,,,,,,,,,,,,,,,,,,,,,,,,,,,,,,,,,,,,
,,,,,,,,,,,,l,0.954,Correct!,,,,,,t5.png,t1.png,4,9.55E-11,19,female,2020-09-27_16h38.56.360,torte-2b,2020.1.3,MacIntel,60,13237,,,,,0,89,89,71,1,,,,,,,,,,,,,,,,,,,,,,,,,,,,,,,,,,,,,,,,,,,,,,,,,,,,,,,,
,,,,,,,,,,,,a,0.825,Correct!,,,,,,t4.png,t5.png,1,0.90025,19,female,2020-09-27_16h38.56.360,torte-2b,2020.1.3,MacIntel,60,13237,,,,,0,90,90,47,1,,,,,,,,,,,,,,,,,,,,,,,,,,,,,,,,,,,,,,,,,,,,,,,,,,,,,,,,
,,,,,,,,,,,,a,1.143,Incorrect,,,,,,t4.png,t1.png,3,0.0000131,19,female,2020-09-27_16h38.56.360,torte-2b,2020.1.3,MacIntel,60,13237,,,,,0,91,91,42,1,,,,,,,,,,,,,,,,,,,,,,,,,,,,,,,,,,,,,,,,,,,,,,,,,,,,,,,,
,,,,,,,,,,,,a,0.965,Incorrect,,,,,,t1.png,t3.png,2,0.056466,19,female,2020-09-27_16h38.56.360,torte-2b,2020.1.3,MacIntel,60,13237,,,,,0,92,92,87,1,,,,,,,,,,,,,,,,,,,,,,,,,,,,,,,,,,,,,,,,,,,,,,,,,,,,,,,,
,,,,,,,,,,,,l,1.311,Incorrect,,,,,,t5.png,t4.png,1,0.9,19,female,2020-09-27_16h38.56.360,torte-2b,2020.1.3,MacIntel,60,13237,,,,,0,93,93,49,1,,,,,,,,,,,,,,,,,,,,,,,,,,,,,,,,,,,,,,,,,,,,,,,,,,,,,,,,
,,,,,,,,,,,,a,1.238,Correct!,,,,,,t3.png,t5.png,2,0.0565,19,female,2020-09-27_16h38.56.360,torte-2b,2020.1.3,MacIntel,60,13237,,,,,0,94,94,83,1,,,,,,,,,,,,,,,,,,,,,,,,,,,,,,,,,,,,,,,,,,,,,,,,,,,,,,,,
,,,,,,,,,,,,l,1.219,Correct!,,,,,,t5.png,t1.png,4,9.55E-11,19,female,2020-09-27_16h38.56.360,torte-2b,2020.1.3,MacIntel,60,13237,,,,,0,95,95,100,1,,,,,,,,,,,,,,,,,,,,,,,,,,,,,,,,,,,,,,,,,,,,,,,,,,,,,,,,
,,,,,,,,,,,,a,1.277,Correct!,,,,,,t2.png,t2.png,0,0.98115,19,female,2020-09-27_16h38.56.360,torte-2b,2020.1.3,MacIntel,60,13237,,,,,0,96,96,2,1,,,,,,,,,,,,,,,,,,,,,,,,,,,,,,,,,,,,,,,,,,,,,,,,,,,,,,,,
,,,,,,,,,,,,l,0.959,Incorrect,,,,,,t1.png,t1.png,0,0.978,19,female,2020-09-27_16h38.56.360,torte-2b,2020.1.3,MacIntel,60,13237,,,,,0,97,97,28,1,,,,,,,,,,,,,,,,,,,,,,,,,,,,,,,,,,,,,,,,,,,,,,,,,,,,,,,,
,,,,,,,,,,,,a,1.224,Correct!,,,,,,t2.png,t4.png,2,0.0591,19,female,2020-09-27_16h38.56.360,torte-2b,2020.1.3,MacIntel,60,13237,,,,,0,98,98,15,1,,,,,,,,,,,,,,,,,,,,,,,,,,,,,,,,,,,,,,,,,,,,,,,,,,,,,,,,
,,,,,,,,,,,,l,1.153,Correct!,,,,,,t5.png,t3.png,2,0.056466,19,female,2020-09-27_16h38.56.360,torte-2b,2020.1.3,MacIntel,60,13237,,,,,0,99,99,56,1,,,,,,,,,,,,,,,,,,,,,,,,,,,,,,,,,,,,,,,,,,,,,,,,,,,,,,,,
,,,,,,,,,,,,l,1.032,Correct!,,,,,,t5.png,t3.png,2,0.0565,19,female,2020-09-27_16h38.56.360,torte-2b,2020.1.3,MacIntel,60,13237,,,,,0,100,100,39,1,,,,,,,,,,,,,,,,,,,,,,,,,,,,,,,,,,,,,,,,,,,,,,,,,,,,,,,,
,,,,,,,,,,,,a,0.626,Correct!,,,,,,t2.png,t2.png,0,0.98115,19,female,2020-09-27_16h38.56.360,torte-2b,2020.1.3,MacIntel,60,13237,,,,,0,101,101,57,1,,,,,,,,,,,,,,,,,,,,,,,,,,,,,,,,,,,,,,,,,,,,,,,,,,,,,,,,
,,,,,,,,,,,,a,0.76,Incorrect,,,,,,t5.png,t1.png,4,9.55E-11,19,female,2020-09-27_16h38.56.360,torte-2b,2020.1.3,MacIntel,60,13237,,,,,0,102,102,43,1,,,,,,,,,,,,,,,,,,,,,,,,,,,,,,,,,,,,,,,,,,,,,,,,,,,,,,,,
,,,,,,,,,,,,l,0.736,Correct!,,,,,,t3.png,t1.png,2,0.0565,19,female,2020-09-27_16h38.56.360,torte-2b,2020.1.3,MacIntel,60,13237,,,,,0,103,103,31,1,,,,,,,,,,,,,,,,,,,,,,,,,,,,,,,,,,,,,,,,,,,,,,,,,,,,,,,,
,,,,,,,,,,,,l,0.694,Correct!,,,,,,t5.png,t1.png,4,9.55E-11,19,female,2020-09-27_16h38.56.360,torte-2b,2020.1.3,MacIntel,60,13237,,,,,0,104,104,102,1,,,,,,,,,,,,,,,,,,,,,,,,,,,,,,,,,,,,,,,,,,,,,,,,,,,,,,,,
,,,,,,,,,,,,l,0.916,Incorrect,,,,,,t3.png,t1.png,2,0.056466,19,female,2020-09-27_16h38.56.360,torte-2b,2020.1.3,MacIntel,60,13237,,,,,0,105,105,0,1,,,,,,,,,,,,,,,,,,,,,,,,,,,,,,,,,,,,,,,,,,,,,,,,,,,,,,,,
,,,,,,,,,,,,a,1.661,Incorrect,,,,,,t1.png,t3.png,2,0.056466,19,female,2020-09-27_16h38.56.360,torte-2b,2020.1.3,MacIntel,60,13237,,,,,0,106,106,99,1,,,,,,,,,,,,,,,,,,,,,,,,,,,,,,,,,,,,,,,,,,,,,,,,,,,,,,,,
,,,,,,,,,,,,l,0.942,Incorrect,,,,,,t5.png,t4.png,1,0.90025,19,female,2020-09-27_16h38.56.360,torte-2b,2020.1.3,MacIntel,60,13237,,,,,0,107,107,27,1,,,,,,,,,,,,,,,,,,,,,,,,,,,,,,,,,,,,,,,,,,,,,,,,,,,,,,,,
,,,,,,,,,,,,a,1.158,Correct!,,,,,,t4.png,t3.png,1,0.909,19,female,2020-09-27_16h38.56.360,torte-2b,2020.1.3,MacIntel,60,13237,,,,,0,108,108,20,1,,,,,,,,,,,,,,,,,,,,,,,,,,,,,,,,,,,,,,,,,,,,,,,,,,,,,,,,
,,,,,,,,,,,,a,0.911,Incorrect,,,,,,t5.png,t3.png,2,0.056466,19,female,2020-09-27_16h38.56.360,torte-2b,2020.1.3,MacIntel,60,13237,,,,,0,109,109,108,1,,,,,,,,,,,,,,,,,,,,,,,,,,,,,,,,,,,,,,,,,,,,,,,,,,,,,,,,
,,,,,,,,,,,,a,0.74,Correct!,,,,,,t5.png,t4.png,1,0.9,19,female,2020-09-27_16h38.56.360,torte-2b,2020.1.3,MacIntel,60,13237,,,,,0,110,110,76,1,,,,,,,,,,,,,,,,,,,,,,,,,,,,,,,,,,,,,,,,,,,,,,,,,,,,,,,,
,,,,,,,,,,,,l,0.787,Incorrect,,,,,,t3.png,t4.png,1,0.90855,19,female,2020-09-27_16h38.56.360,torte-2b,2020.1.3,MacIntel,60,13237,,,,,0,111,111,96,1,,,,,,,,,,,,,,,,,,,,,,,,,,,,,,,,,,,,,,,,,,,,,,,,,,,,,,,,
,,,,,,,,,,,,l,1.06,Correct!,,,,,,t2.png,t3.png,1,0.909,19,female,2020-09-27_16h38.56.360,torte-2b,2020.1.3,MacIntel,60,13237,,,,,0,112,112,74,1,,,,,,,,,,,,,,,,,,,,,,,,,,,,,,,,,,,,,,,,,,,,,,,,,,,,,,,,
,,,,,,,,,,,,a,0.702,Correct!,,,,,,t3.png,t4.png,1,0.909,19,female,2020-09-27_16h38.56.360,torte-2b,2020.1.3,MacIntel,60,13237,,,,,0,113,113,89,1,,,,,,,,,,,,,,,,,,,,,,,,,,,,,,,,,,,,,,,,,,,,,,,,,,,,,,,,
,,,,,,,,,,,,a,1.153,Incorrect,,,,,,t2.png,t4.png,2,0.059078,19,female,2020-09-27_16h38.56.360,torte-2b,2020.1.3,MacIntel,60,13237,,,,,0,114,114,11,1,,,,,,,,,,,,,,,,,,,,,,,,,,,,,,,,,,,,,,,,,,,,,,,,,,,,,,,,
,,,,,,,,,,,,a,1.044,Correct!,,,,,,t4.png,t5.png,1,0.90025,19,female,2020-09-27_16h38.56.360,torte-2b,2020.1.3,MacIntel,60,13237,,,,,0,115,115,103,1,,,,,,,,,,,,,,,,,,,,,,,,,,,,,,,,,,,,,,,,,,,,,,,,,,,,,,,,
,,,,,,,,,,,,l,0.834,Correct!,,,,,,t5.png,t2.png,3,0.0000131,19,female,2020-09-27_16h38.56.360,torte-2b,2020.1.3,MacIntel,60,13237,,,,,0,116,116,98,1,,,,,,,,,,,,,,,,,,,,,,,,,,,,,,,,,,,,,,,,,,,,,,,,,,,,,,,,
,,,,,,,,,,,,a,1.177,Correct!,,,,,,t4.png,t5.png,1,0.9,19,female,2020-09-27_16h38.56.360,torte-2b,2020.1.3,MacIntel,60,13237,,,,,0,117,117,115,1,,,,,,,,,,,,,,,,,,,,,,,,,,,,,,,,,,,,,,,,,,,,,,,,,,,,,,,,
,,,,,,,,,,,,l,0.886,Incorrect,,,,,,t1.png,t2.png,1,0.90025,19,female,2020-09-27_16h38.56.360,torte-2b,2020.1.3,MacIntel,60,13237,,,,,0,118,118,105,1,,,,,,,,,,,,,,,,,,,,,,,,,,,,,,,,,,,,,,,,,,,,,,,,,,,,,,,,
,,,,,,,,,,,,a,0.827,Correct!,,,,,,t4.png,t5.png,1,0.90025,19,female,2020-09-27_16h38.56.360,torte-2b,2020.1.3,MacIntel,60,13237,,,,,0,119,119,58,1,,,,,,,,,,,,,,,,,,,,,,,,,,,,,,,,,,,,,,,,,,,,,,,,,,,,,,,,
,,,,,,,,,,,,,,,,,,,,,,,,19,female,2020-09-27_16h38.56.360,torte-2b,2020.1.3,MacIntel,60,13237,space,1.611,,,,,,,,space,65.583,,0,0,0,0,1,6,,,,,,,,,,,,,,,,,,,,,,,,,,,,,,,,,,,,,,,,,,,,,,,
,,,,,,,,,,,,,,,,,,,,,,,,19,female,2020-09-27_16h38.56.360,torte-2b,2020.1.3,MacIntel,60,13237,,,,,,,,,,,,,0,1,1,1,1,7,,,,,,,,,,,,,,,,,,,,,,,,,,,,,,,,,,,,,,,,,,,,,,,
,,,,,,,,,,,,,,,,,,,,,,,,19,female,2020-09-27_16h38.56.360,torte-2b,2020.1.3,MacIntel,60,13237,,,,,,,,,,,,space,0,2,2,2,1,6,0.548,,,,,,,,,,,,,,,,,,,,,,,,,,,,,,,,,,,,,,,,,,,,,,
,,,,,,,,,,,,,,,,,,,,,,,,19,female,2020-09-27_16h38.56.360,torte-2b,2020.1.3,MacIntel,60,13237,,,,,,,,,,,,space,0,3,3,3,1,7,0.433,,,,,,,,,,,,,,,,,,,,,,,,,,,,,,,,,,,,,,,,,,,,,,
,,,,,,,,,,,,,,,,,,,,,,,,19,female,2020-09-27_16h38.56.360,torte-2b,2020.1.3,MacIntel,60,13237,,,,,,,,,,,,,0,4,4,4,1,5,,,,,,,,,,,,,,,,,,,,,,,,,,,,,,,,,,,,,,,,,,,,,,,
,,,,,,,,,,,,,,,,,,,,,,,,19,female,2020-09-27_16h38.56.360,torte-2b,2020.1.3,MacIntel,60,13237,,,,,,,,,,,,space,0,5,5,5,1,7,1.293,,,,,,,,,,,,,,,,,,,,,,,,,,,,,,,,,,,,,,,,,,,,,,
,,,,,,,,,,,,,,,,,,,,,,,,19,female,2020-09-27_16h38.56.360,torte-2b,2020.1.3,MacIntel,60,13237,,,,,,,,,,,,,0,6,6,6,1,2,,,,,,,,,,,,,,,,,,,,,,,,,,,,,,,,,,,,,,,,,,,,,,,
,,,,,,,,,,,,,,,,,,,,,,,,19,female,2020-09-27_16h38.56.360,torte-2b,2020.1.3,MacIntel,60,13237,,,,,,,,,,,,,0,7,7,7,1,4,,,,,,,,,,,,,,,,,,,,,,,,,,,,,,,,,,,,,,,,,,,,,,,
,,,,,,,,,,,,,,,,,,,,,,,,19,female,2020-09-27_16h38.56.360,torte-2b,2020.1.3,MacIntel,60,13237,,,,,,,,,,,,space,0,8,8,8,1,7,0.489,,,,,,,,,,,,,,,,,,,,,,,,,,,,,,,,,,,,,,,,,,,,,,
,,,,,,,,,,,,,,,,,,,,,,,,19,female,2020-09-27_16h38.56.360,torte-2b,2020.1.3,MacIntel,60,13237,,,,,,,,,,,,space,0,9,9,9,1,4,0.897,,,,,,,,,,,,,,,,,,,,,,,,,,,,,,,,,,,,,,,,,,,,,,
,,,,,,,,,,,,,,,,,,,,,,,,19,female,2020-09-27_16h38.56.360,torte-2b,2020.1.3,MacIntel,60,13237,,,,,,,,,,,,,0,10,10,10,1,7,,,,,,,,,,,,,,,,,,,,,,,,,,,,,,,,,,,,,,,,,,,,,,,
,,,,,,,,,,,,,,,,,,,,,,,,19,female,2020-09-27_16h38.56.360,torte-2b,2020.1.3,MacIntel,60,13237,,,,,,,,,,,,space,0,11,11,11,1,7,0.665,,,,,,,,,,,,,,,,,,,,,,,,,,,,,,,,,,,,,,,,,,,,,,
,,,,,,,,,,,,,,,,,,,,,,,,19,female,2020-09-27_16h38.56.360,torte-2b,2020.1.3,MacIntel,60,13237,,,,,,,,,,,,space,0,12,12,12,1,7,0.574,,,,,,,,,,,,,,,,,,,,,,,,,,,,,,,,,,,,,,,,,,,,,,
,,,,,,,,,,,,,,,,,,,,,,,,19,female,2020-09-27_16h38.56.360,torte-2b,2020.1.3,MacIntel,60,13237,,,,,,,,,,,,,0,13,13,13,1,4,,,,,,,,,,,,,,,,,,,,,,,,,,,,,,,,,,,,,,,,,,,,,,,
,,,,,,,,,,,,,,,,,,,,,,,,19,female,2020-09-27_16h38.56.360,torte-2b,2020.1.3,MacIntel,60,13237,,,,,,,,,,,,,0,14,14,14,1,6,,,,,,,,,,,,,,,,,,,,,,,,,,,,,,,,,,,,,,,,,,,,,,,
,,,,,,,,,,,,,,,,,,,,,,,,19,female,2020-09-27_16h38.56.360,torte-2b,2020.1.3,MacIntel,60,13237,,,,,,,,,,,,space,0,15,15,15,1,4,0.539,,,,,,,,,,,,,,,,,,,,,,,,,,,,,,,,,,,,,,,,,,,,,,
,,,,,,,,,,,,,,,,,,,,,,,,19,female,2020-09-27_16h38.56.360,torte-2b,2020.1.3,MacIntel,60,13237,,,,,,,,,,,,space,0,16,16,16,1,6,0.63,,,,,,,,,,,,,,,,,,,,,,,,,,,,,,,,,,,,,,,,,,,,,,
,,,,,,,,,,,,,,,,,,,,,,,,19,female,2020-09-27_16h38.56.360,torte-2b,2020.1.3,MacIntel,60,13237,,,,,,,,,,,,,0,17,17,17,1,7,,,,,,,,,,,,,,,,,,,,,,,,,,,,,,,,,,,,,,,,,,,,,,,
,,,,,,,,,,,,,,,,,,,,,,,,19,female,2020-09-27_16h38.56.360,torte-2b,2020.1.3,MacIntel,60,13237,,,,,,,,,,,,space,0,18,18,18,1,6,0.855,,,,,,,,,,,,,,,,,,,,,,,,,,,,,,,,,,,,,,,,,,,,,,
,,,,,,,,,,,,,,,,,,,,,,,,19,female,2020-09-27_16h38.56.360,torte-2b,2020.1.3,MacIntel,60,13237,,,,,,,,,,,,,0,19,19,19,1,7,,,,,,,,,,,,,,,,,,,,,,,,,,,,,,,,,,,,,,,,,,,,,,,
,,,,,,,,,,,,,,,,,,,,,,,,19,female,2020-09-27_16h38.56.360,torte-2b,2020.1.3,MacIntel,60,13237,,,,,,,,,,,,,0,20,20,20,1,5,,,,,,,,,,,,,,,,,,,,,,,,,,,,,,,,,,,,,,,,,,,,,,,
,,,,,,,,,,,,,,,,,,,,,,,,19,female,2020-09-27_16h38.56.360,torte-2b,2020.1.3,MacIntel,60,13237,,,,,,,,,,,,,0,21,21,21,1,1,,,,,,,,,,,,,,,,,,,,,,,,,,,,,,,,,,,,,,,,,,,,,,,
,,,,,,,,,,,,,,,,,,,,,,,,19,female,2020-09-27_16h38.56.360,torte-2b,2020.1.3,MacIntel,60,13237,,,,,,,,,,,,space,0,22,22,22,1,6,1.058,,,,,,,,,,,,,,,,,,,,,,,,,,,,,,,,,,,,,,,,,,,,,,
,,,,,,,,,,,,,,,,,,,,,,,,19,female,2020-09-27_16h38.56.360,torte-2b,2020.1.3,MacIntel,60,13237,,,,,,,,,,,,space,0,23,23,23,1,1,0.784,,,,,,,,,,,,,,,,,,,,,,,,,,,,,,,,,,,,,,,,,,,,,,
,,,,,,,,,,,,,,,,,,,,,,,,19,female,2020-09-27_16h38.56.360,torte-2b,2020.1.3,MacIntel,60,13237,,,,,,,,,,,,,0,24,24,24,1,5,,,,,,,,,,,,,,,,,,,,,,,,,,,,,,,,,,,,,,,,,,,,,,,
,,,,,,,,,,,,,,,,,,,,,,,,19,female,2020-09-27_16h38.56.360,torte-2b,2020.1.3,MacIntel,60,13237,,,,,,,,,,,,space,0,25,25,25,1,6,0.747,,,,,,,,,,,,,,,,,,,,,,,,,,,,,,,,,,,,,,,,,,,,,,
,,,,,,,,,,,,,,,,,,,,,,,,19,female,2020-09-27_16h38.56.360,torte-2b,2020.1.3,MacIntel,60,13237,,,,,,,,,,,,space,0,26,26,26,1,6,0.633,,,,,,,,,,,,,,,,,,,,,,,,,,,,,,,,,,,,,,,,,,,,,,
,,,,,,,,,,,,,,,,,,,,,,,,19,female,2020-09-27_16h38.56.360,torte-2b,2020.1.3,MacIntel,60,13237,,,,,,,,,,,,space,0,27,27,27,1,6,0.707,,,,,,,,,,,,,,,,,,,,,,,,,,,,,,,,,,,,,,,,,,,,,,
,,,,,,,,,,,,,,,,,,,,,,,,19,female,2020-09-27_16h38.56.360,torte-2b,2020.1.3,MacIntel,60,13237,,,,,,,,,,,,,0,28,28,28,1,5,,,,,,,,,,,,,,,,,,,,,,,,,,,,,,,,,,,,,,,,,,,,,,,
,,,,,,,,,,,,,,,,,,,,,,,,19,female,2020-09-27_16h38.56.360,torte-2b,2020.1.3,MacIntel,60,13237,,,,,,,,,,,,,0,29,29,29,1,2,,,,,,,,,,,,,,,,,,,,,,,,,,,,,,,,,,,,,,,,,,,,,,,
,,,,,,,,,,,,,,,,,,,,,,,,19,female,2020-09-27_16h38.56.360,torte-2b,2020.1.3,MacIntel,60,13237,,,,,,,,,,,,,0,30,30,30,1,5,,,,,,,,,,,,,,,,,,,,,,,,,,,,,,,,,,,,,,,,,,,,,,,
,,,,,,,,,,,,,,,,,,,,,,,,19,female,2020-09-27_16h38.56.360,torte-2b,2020.1.3,MacIntel,60,13237,,,,,,,,,,,,space,0,31,31,31,1,2,0.556,,,,,,,,,,,,,,,,,,,,,,,,,,,,,,,,,,,,,,,,,,,,,,
,,,,,,,,,,,,,,,,,,,,,,,,19,female,2020-09-27_16h38.56.360,torte-2b,2020.1.3,MacIntel,60,13237,,,,,,,,,,,,space,0,32,32,32,1,5,0.883,,,,,,,,,,,,,,,,,,,,,,,,,,,,,,,,,,,,,,,,,,,,,,
,,,,,,,,,,,,,,,,,,,,,,,,19,female,2020-09-27_16h38.56.360,torte-2b,2020.1.3,MacIntel,60,13237,,,,,,,,,,,,,0,33,33,33,1,1,,,,,,,,,,,,,,,,,,,,,,,,,,,,,,,,,,,,,,,,,,,,,,,
,,,,,,,,,,,,,,,,,,,,,,,,19,female,2020-09-27_16h38.56.360,torte-2b,2020.1.3,MacIntel,60,13237,,,,,,,,,,,,,0,34,34,34,1,1,,,,,,,,,,,,,,,,,,,,,,,,,,,,,,,,,,,,,,,,,,,,,,,
,,,,,,,,,,,,,,,,,,,,,,,,19,female,2020-09-27_16h38.56.360,torte-2b,2020.1.3,MacIntel,60,13237,,,,,,,,,,,,,,,,,,2,,0,0,0,0,1,,,,,,,,,,,,,,,,,,,,,,,,,,,,,,,,,,,,,,,,,
,,,,,,,,,,,,,,,,,,,,,,,,19,female,2020-09-27_16h38.56.360,torte-2b,2020.1.3,MacIntel,60,13237,,,,,,,,,,,,,,,,,,2,,0,1,1,1,1,,,,,,,,,,,,,,,,,,,,,,,,,,,,,,,,,,,,,,,,,
,,,,,,,,,,,,,,,,,,,,,,,,19,female,2020-09-27_16h38.56.360,torte-2b,2020.1.3,MacIntel,60,13237,,,,,,,,,,,,,,,,,,6,,0,2,2,2,1,,,,,,,,,,,,,,,,,,,,,,,,,,,,,,,,,,,,,,,,,
,,,,,,,,,,,,,,,,,,,,,,,,19,female,2020-09-27_16h38.56.360,torte-2b,2020.1.3,MacIntel,60,13237,,,,,,,,,,,,space,,,,,,2,0.638,0,3,3,3,1,,,,,,,,,,,,,,,,,,,,,,,,,,,,,,,,,,,,,,,,,
,,,,,,,,,,,,,,,,,,,,,,,,19,female,2020-09-27_16h38.56.360,torte-2b,2020.1.3,MacIntel,60,13237,,,,,,,,,,,,space,,,,,,6,0.651,0,4,4,4,1,,,,,,,,,,,,,,,,,,,,,,,,,,,,,,,,,,,,,,,,,
,,,,,,,,,,,,,,,,,,,,,,,,19,female,2020-09-27_16h38.56.360,torte-2b,2020.1.3,MacIntel,60,13237,,,,,,,,,,,,space,,,,,,2,0.61,0,5,5,5,1,,,,,,,,,,,,,,,,,,,,,,,,,,,,,,,,,,,,,,,,,
,,,,,,,,,,,,,,,,,,,,,,,,19,female,2020-09-27_16h38.56.360,torte-2b,2020.1.3,MacIntel,60,13237,,,,,,,,,,,,,,,,,,7,,0,6,6,6,1,,,,,,,,,,,,,,,,,,,,,,,,,,,,,,,,,,,,,,,,,
,,,,,,,,,,,,,,,,,,,,,,,,19,female,2020-09-27_16h38.56.360,torte-2b,2020.1.3,MacIntel,60,13237,,,,,,,,,,,,space,,,,,,2,0.691,0,7,7,7,1,,,,,,,,,,,,,,,,,,,,,,,,,,,,,,,,,,,,,,,,,
,,,,,,,,,,,,,,,,,,,,,,,,19,female,2020-09-27_16h38.56.360,torte-2b,2020.1.3,MacIntel,60,13237,,,,,,,,,,,,space,,,,,,7,0.726,0,8,8,8,1,,,,,,,,,,,,,,,,,,,,,,,,,,,,,,,,,,,,,,,,,
,,,,,,,,,,,,,,,,,,,,,,,,19,female,2020-09-27_16h38.56.360,torte-2b,2020.1.3,MacIntel,60,13237,,,,,,,,,,,,space,,,,,,2,0.935,0,9,9,9,1,,,,,,,,,,,,,,,,,,,,,,,,,,,,,,,,,,,,,,,,,
,,,,,,,,,,,,,,,,,,,,,,,,19,female,2020-09-27_16h38.56.360,torte-2b,2020.1.3,MacIntel,60,13237,,,,,,,,,,,,,,,,,,5,,0,10,10,10,1,,,,,,,,,,,,,,,,,,,,,,,,,,,,,,,,,,,,,,,,,
,,,,,,,,,,,,,,,,,,,,,,,,19,female,2020-09-27_16h38.56.360,torte-2b,2020.1.3,MacIntel,60,13237,,,,,,,,,,,,,,,,,,4,,0,11,11,11,1,,,,,,,,,,,,,,,,,,,,,,,,,,,,,,,,,,,,,,,,,
,,,,,,,,,,,,,,,,,,,,,,,,19,female,2020-09-27_16h38.56.360,torte-2b,2020.1.3,MacIntel,60,13237,,,,,,,,,,,,space,,,,,,5,0.747,0,12,12,12,1,,,,,,,,,,,,,,,,,,,,,,,,,,,,,,,,,,,,,,,,,
,,,,,,,,,,,,,,,,,,,,,,,,19,female,2020-09-27_16h38.56.360,torte-2b,2020.1.3,MacIntel,60,13237,,,,,,,,,,,,,,,,,,6,,0,13,13,13,1,,,,,,,,,,,,,,,,,,,,,,,,,,,,,,,,,,,,,,,,,
,,,,,,,,,,,,,,,,,,,,,,,,19,female,2020-09-27_16h38.56.360,torte-2b,2020.1.3,MacIntel,60,13237,,,,,,,,,,,,space,,,,,,5,0.571,0,14,14,14,1,,,,,,,,,,,,,,,,,,,,,,,,,,,,,,,,,,,,,,,,,
,,,,,,,,,,,,,,,,,,,,,,,,19,female,2020-09-27_16h38.56.360,torte-2b,2020.1.3,MacIntel,60,13237,,,,,,,,,,,,,,,,,,4,,0,15,15,15,1,,,,,,,,,,,,,,,,,,,,,,,,,,,,,,,,,,,,,,,,,
,,,,,,,,,,,,,,,,,,,,,,,,19,female,2020-09-27_16h38.56.360,torte-2b,2020.1.3,MacIntel,60,13237,,,,,,,,,,,,,,,,,,5,,0,16,16,16,1,,,,,,,,,,,,,,,,,,,,,,,,,,,,,,,,,,,,,,,,,
,,,,,,,,,,,,,,,,,,,,,,,,19,female,2020-09-27_16h38.56.360,torte-2b,2020.1.3,MacIntel,60,13237,,,,,,,,,,,,,,,,,,3,,0,17,17,17,1,,,,,,,,,,,,,,,,,,,,,,,,,,,,,,,,,,,,,,,,,
,,,,,,,,,,,,,,,,,,,,,,,,19,female,2020-09-27_16h38.56.360,torte-2b,2020.1.3,MacIntel,60,13237,,,,,,,,,,,,,,,,,,6,,0,18,18,18,1,,,,,,,,,,,,,,,,,,,,,,,,,,,,,,,,,,,,,,,,,
,,,,,,,,,,,,,,,,,,,,,,,,19,female,2020-09-27_16h38.56.360,torte-2b,2020.1.3,MacIntel,60,13237,,,,,,,,,,,,space,,,,,,6,0.968,0,19,19,19,1,,,,,,,,,,,,,,,,,,,,,,,,,,,,,,,,,,,,,,,,,
,,,,,,,,,,,,,,,,,,,,,,,,19,female,2020-09-27_16h38.56.360,torte-2b,2020.1.3,MacIntel,60,13237,,,,,,,,,,,,space,,,,,,6,0.749,0,20,20,20,1,,,,,,,,,,,,,,,,,,,,,,,,,,,,,,,,,,,,,,,,,
,,,,,,,,,,,,,,,,,,,,,,,,19,female,2020-09-27_16h38.56.360,torte-2b,2020.1.3,MacIntel,60,13237,,,,,,,,,,,,,,,,,,4,,0,21,21,21,1,,,,,,,,,,,,,,,,,,,,,,,,,,,,,,,,,,,,,,,,,
,,,,,,,,,,,,,,,,,,,,,,,,19,female,2020-09-27_16h38.56.360,torte-2b,2020.1.3,MacIntel,60,13237,,,,,,,,,,,,space,,,,,,6,0.658,0,22,22,22,1,,,,,,,,,,,,,,,,,,,,,,,,,,,,,,,,,,,,,,,,,
,,,,,,,,,,,,,,,,,,,,,,,,19,female,2020-09-27_16h38.56.360,torte-2b,2020.1.3,MacIntel,60,13237,,,,,,,,,,,,space,,,,,,4,0.388,0,23,23,23,1,,,,,,,,,,,,,,,,,,,,,,,,,,,,,,,,,,,,,,,,,
,,,,,,,,,,,,,,,,,,,,,,,,19,female,2020-09-27_16h38.56.360,torte-2b,2020.1.3,MacIntel,60,13237,,,,,,,,,,,,,,,,,,6,,0,24,24,24,1,,,,,,,,,,,,,,,,,,,,,,,,,,,,,,,,,,,,,,,,,
,,,,,,,,,,,,,,,,,,,,,,,,19,female,2020-09-27_16h38.56.360,torte-2b,2020.1.3,MacIntel,60,13237,,,,,,,,,,,,space,,,,,,6,0.742,0,25,25,25,1,,,,,,,,,,,,,,,,,,,,,,,,,,,,,,,,,,,,,,,,,
,,,,,,,,,,,,,,,,,,,,,,,,19,female,2020-09-27_16h38.56.360,torte-2b,2020.1.3,MacIntel,60,13237,,,,,,,,,,,,,,,,,,7,,0,26,26,26,1,,,,,,,,,,,,,,,,,,,,,,,,,,,,,,,,,,,,,,,,,
,,,,,,,,,,,,,,,,,,,,,,,,19,female,2020-09-27_16h38.56.360,torte-2b,2020.1.3,MacIntel,60,13237,,,,,,,,,,,,,,,,,,1,,0,27,27,27,1,,,,,,,,,,,,,,,,,,,,,,,,,,,,,,,,,,,,,,,,,
,,,,,,,,,,,,,,,,,,,,,,,,19,female,2020-09-27_16h38.56.360,torte-2b,2020.1.3,MacIntel,60,13237,,,,,,,,,,,,space,,,,,,7,1.385,0,28,28,28,1,,,,,,,,,,,,,,,,,,,,,,,,,,,,,,,,,,,,,,,,,
,,,,,,,,,,,,,,,,,,,,,,,,19,female,2020-09-27_16h38.56.360,torte-2b,2020.1.3,MacIntel,60,13237,,,,,,,,,,,,,,,,,,4,,0,29,29,29,1,,,,,,,,,,,,,,,,,,,,,,,,,,,,,,,,,,,,,,,,,
,,,,,,,,,,,,,,,,,,,,,,,,19,female,2020-09-27_16h38.56.360,torte-2b,2020.1.3,MacIntel,60,13237,,,,,,,,,,,,,,,,,,7,,0,30,30,30,1,,,,,,,,,,,,,,,,,,,,,,,,,,,,,,,,,,,,,,,,,
,,,,,,,,,,,,,,,,,,,,,,,,19,female,2020-09-27_16h38.56.360,torte-2b,2020.1.3,MacIntel,60,13237,,,,,,,,,,,,,,,,,,3,,0,31,31,31,1,,,,,,,,,,,,,,,,,,,,,,,,,,,,,,,,,,,,,,,,,
,,,,,,,,,,,,,,,,,,,,,,,,19,female,2020-09-27_16h38.56.360,torte-2b,2020.1.3,MacIntel,60,13237,,,,,,,,,,,,,,,,,,2,,0,32,32,32,1,,,,,,,,,,,,,,,,,,,,,,,,,,,,,,,,,,,,,,,,,
,,,,,,,,,,,,,,,,,,,,,,,,19,female,2020-09-27_16h38.56.360,torte-2b,2020.1.3,MacIntel,60,13237,,,,,,,,,,,,,,,,,,6,,0,33,33,33,1,,,,,,,,,,,,,,,,,,,,,,,,,,,,,,,,,,,,,,,,,
,,,,,,,,,,,,,,,,,,,,,,,,19,female,2020-09-27_16h38.56.360,torte-2b,2020.1.3,MacIntel,60,13237,,,,,,,,,,,,space,,,,,,3,0.527,0,34,34,34,1,,,,,,,,,,,,,,,,,,,,,,,,,,,,,,,,,,,,,,,,,
,,,,,,,,,,,,,,,,,,,,,,,,19,female,2020-09-27_16h38.56.360,torte-2b,2020.1.3,MacIntel,60,13237,,,,,,,,,,,,,,,,,,7,,,,,,,0,0,0,0,1,,,,,,,,,,,,,,,,,,,,,,,,,,,,,,,,,,,,
,,,,,,,,,,,,,,,,,,,,,,,,19,female,2020-09-27_16h38.56.360,torte-2b,2020.1.3,MacIntel,60,13237,,,,,,,,,,,,,,,,,,5,,,,,,,0,1,1,1,1,,,,,,,,,,,,,,,,,,,,,,,,,,,,,,,,,,,,
,,,,,,,,,,,,,,,,,,,,,,,,19,female,2020-09-27_16h38.56.360,torte-2b,2020.1.3,MacIntel,60,13237,,,,,,,,,,,,,,,,,,4,,,,,,,0,2,2,2,1,,,,,,,,,,,,,,,,,,,,,,,,,,,,,,,,,,,,
,,,,,,,,,,,,,,,,,,,,,,,,19,female,2020-09-27_16h38.56.360,torte-2b,2020.1.3,MacIntel,60,13237,,,,,,,,,,,,space,,,,,,5,0.689,,,,,,0,3,3,3,1,,,,,,,,,,,,,,,,,,,,,,,,,,,,,,,,,,,,
,,,,,,,,,,,,,,,,,,,,,,,,19,female,2020-09-27_16h38.56.360,torte-2b,2020.1.3,MacIntel,60,13237,,,,,,,,,,,,,,,,,,6,,,,,,,0,4,4,4,1,,,,,,,,,,,,,,,,,,,,,,,,,,,,,,,,,,,,
,,,,,,,,,,,,,,,,,,,,,,,,19,female,2020-09-27_16h38.56.360,torte-2b,2020.1.3,MacIntel,60,13237,,,,,,,,,,,,space,,,,,,5,0.418,,,,,,0,5,5,5,1,,,,,,,,,,,,,,,,,,,,,,,,,,,,,,,,,,,,
,,,,,,,,,,,,,,,,,,,,,,,,19,female,2020-09-27_16h38.56.360,torte-2b,2020.1.3,MacIntel,60,13237,,,,,,,,,,,,,,,,,,3,,,,,,,0,6,6,6,1,,,,,,,,,,,,,,,,,,,,,,,,,,,,,,,,,,,,
,,,,,,,,,,,,,,,,,,,,,,,,19,female,2020-09-27_16h38.56.360,torte-2b,2020.1.3,MacIntel,60,13237,,,,,,,,,,,,,,,,,,4,,,,,,,0,7,7,7,1,,,,,,,,,,,,,,,,,,,,,,,,,,,,,,,,,,,,
,,,,,,,,,,,,,,,,,,,,,,,,19,female,2020-09-27_16h38.56.360,torte-2b,2020.1.3,MacIntel,60,13237,,,,,,,,,,,,space,,,,,,3,0.398,,,,,,0,8,8,8,1,,,,,,,,,,,,,,,,,,,,,,,,,,,,,,,,,,,,
,,,,,,,,,,,,,,,,,,,,,,,,19,female,2020-09-27_16h38.56.360,torte-2b,2020.1.3,MacIntel,60,13237,,,,,,,,,,,,,,,,,,1,,,,,,,0,9,9,9,1,,,,,,,,,,,,,,,,,,,,,,,,,,,,,,,,,,,,
,,,,,,,,,,,,,,,,,,,,,,,,19,female,2020-09-27_16h38.56.360,torte-2b,2020.1.3,MacIntel,60,13237,,,,,,,,,,,,,,,,,,2,,,,,,,0,10,10,10,1,,,,,,,,,,,,,,,,,,,,,,,,,,,,,,,,,,,,
,,,,,,,,,,,,,,,,,,,,,,,,19,female,2020-09-27_16h38.56.360,torte-2b,2020.1.3,MacIntel,60,13237,,,,,,,,,,,,space,,,,,,1,0.382,,,,,,0,11,11,11,1,,,,,,,,,,,,,,,,,,,,,,,,,,,,,,,,,,,,
,,,,,,,,,,,,,,,,,,,,,,,,19,female,2020-09-27_16h38.56.360,torte-2b,2020.1.3,MacIntel,60,13237,,,,,,,,,,,,space,,,,,,2,1.048,,,,,,0,12,12,12,1,,,,,,,,,,,,,,,,,,,,,,,,,,,,,,,,,,,,
,,,,,,,,,,,,,,,,,,,,,,,,19,female,2020-09-27_16h38.56.360,torte-2b,2020.1.3,MacIntel,60,13237,,,,,,,,,,,,space,,,,,,1,0.825,,,,,,0,13,13,13,1,,,,,,,,,,,,,,,,,,,,,,,,,,,,,,,,,,,,
,,,,,,,,,,,,,,,,,,,,,,,,19,female,2020-09-27_16h38.56.360,torte-2b,2020.1.3,MacIntel,60,13237,,,,,,,,,,,,,,,,,,3,,,,,,,0,14,14,14,1,,,,,,,,,,,,,,,,,,,,,,,,,,,,,,,,,,,,
,,,,,,,,,,,,,,,,,,,,,,,,19,female,2020-09-27_16h38.56.360,torte-2b,2020.1.3,MacIntel,60,13237,,,,,,,,,,,,space,,,,,,1,0.512,,,,,,0,15,15,15,1,,,,,,,,,,,,,,,,,,,,,,,,,,,,,,,,,,,,
,,,,,,,,,,,,,,,,,,,,,,,,19,female,2020-09-27_16h38.56.360,torte-2b,2020.1.3,MacIntel,60,13237,,,,,,,,,,,,,,,,,,7,,,,,,,0,16,16,16,1,,,,,,,,,,,,,,,,,,,,,,,,,,,,,,,,,,,,
,,,,,,,,,,,,,,,,,,,,,,,,19,female,2020-09-27_16h38.56.360,torte-2b,2020.1.3,MacIntel,60,13237,,,,,,,,,,,,space,,,,,,7,0.684,,,,,,0,17,17,17,1,,,,,,,,,,,,,,,,,,,,,,,,,,,,,,,,,,,,
,,,,,,,,,,,,,,,,,,,,,,,,19,female,2020-09-27_16h38.56.360,torte-2b,2020.1.3,MacIntel,60,13237,,,,,,,,,,,,,,,,,,4,,,,,,,0,18,18,18,1,,,,,,,,,,,,,,,,,,,,,,,,,,,,,,,,,,,,
,,,,,,,,,,,,,,,,,,,,,,,,19,female,2020-09-27_16h38.56.360,torte-2b,2020.1.3,MacIntel,60,13237,,,,,,,,,,,,space,,,,,,7,0.664,,,,,,0,19,19,19,1,,,,,,,,,,,,,,,,,,,,,,,,,,,,,,,,,,,,
,,,,,,,,,,,,,,,,,,,,,,,,19,female,2020-09-27_16h38.56.360,torte-2b,2020.1.3,MacIntel,60,13237,,,,,,,,,,,,,,,,,,3,,,,,,,0,20,20,20,1,,,,,,,,,,,,,,,,,,,,,,,,,,,,,,,,,,,,
,,,,,,,,,,,,,,,,,,,,,,,,19,female,2020-09-27_16h38.56.360,torte-2b,2020.1.3,MacIntel,60,13237,,,,,,,,,,,,,,,,,,7,,,,,,,0,21,21,21,1,,,,,,,,,,,,,,,,,,,,,,,,,,,,,,,,,,,,
,,,,,,,,,,,,,,,,,,,,,,,,19,female,2020-09-27_16h38.56.360,torte-2b,2020.1.3,MacIntel,60,13237,,,,,,,,,,,,space,,,,,,3,0.599,,,,,,0,22,22,22,1,,,,,,,,,,,,,,,,,,,,,,,,,,,,,,,,,,,,
,,,,,,,,,,,,,,,,,,,,,,,,19,female,2020-09-27_16h38.56.360,torte-2b,2020.1.3,MacIntel,60,13237,,,,,,,,,,,,,,,,,,1,,,,,,,0,23,23,23,1,,,,,,,,,,,,,,,,,,,,,,,,,,,,,,,,,,,,
,,,,,,,,,,,,,,,,,,,,,,,,19,female,2020-09-27_16h38.56.360,torte-2b,2020.1.3,MacIntel,60,13237,,,,,,,,,,,,,,,,,,6,,,,,,,0,24,24,24,1,,,,,,,,,,,,,,,,,,,,,,,,,,,,,,,,,,,,
,,,,,,,,,,,,,,,,,,,,,,,,19,female,2020-09-27_16h38.56.360,torte-2b,2020.1.3,MacIntel,60,13237,,,,,,,,,,,,,,,,,,3,,,,,,,0,25,25,25,1,,,,,,,,,,,,,,,,,,,,,,,,,,,,,,,,,,,,
,,,,,,,,,,,,,,,,,,,,,,,,19,female,2020-09-27_16h38.56.360,torte-2b,2020.1.3,MacIntel,60,13237,,,,,,,,,,,,,,,,,,2,,,,,,,0,26,26,26,1,,,,,,,,,,,,,,,,,,,,,,,,,,,,,,,,,,,,
,,,,,,,,,,,,,,,,,,,,,,,,19,female,2020-09-27_16h38.56.360,torte-2b,2020.1.3,MacIntel,60,13237,,,,,,,,,,,,,,,,,,3,,,,,,,0,27,27,27,1,,,,,,,,,,,,,,,,,,,,,,,,,,,,,,,,,,,,
,,,,,,,,,,,,,,,,,,,,,,,,19,female,2020-09-27_16h38.56.360,torte-2b,2020.1.3,MacIntel,60,13237,,,,,,,,,,,,,,,,,,1,,,,,,,0,28,28,28,1,,,,,,,,,,,,,,,,,,,,,,,,,,,,,,,,,,,,
,,,,,,,,,,,,,,,,,,,,,,,,19,female,2020-09-27_16h38.56.360,torte-2b,2020.1.3,MacIntel,60,13237,,,,,,,,,,,,space,,,,,,3,0.702,,,,,,0,29,29,29,1,,,,,,,,,,,,,,,,,,,,,,,,,,,,,,,,,,,,
,,,,,,,,,,,,,,,,,,,,,,,,19,female,2020-09-27_16h38.56.360,torte-2b,2020.1.3,MacIntel,60,13237,,,,,,,,,,,,space,,,,,,1,0.549,,,,,,0,30,30,30,1,,,,,,,,,,,,,,,,,,,,,,,,,,,,,,,,,,,,
,,,,,,,,,,,,,,,,,,,,,,,,19,female,2020-09-27_16h38.56.360,torte-2b,2020.1.3,MacIntel,60,13237,,,,,,,,,,,,,,,,,,7,,,,,,,0,31,31,31,1,,,,,,,,,,,,,,,,,,,,,,,,,,,,,,,,,,,,
,,,,,,,,,,,,,,,,,,,,,,,,19,female,2020-09-27_16h38.56.360,torte-2b,2020.1.3,MacIntel,60,13237,,,,,,,,,,,,,,,,,,5,,,,,,,0,32,32,32,1,,,,,,,,,,,,,,,,,,,,,,,,,,,,,,,,,,,,
,,,,,,,,,,,,,,,,,,,,,,,,19,female,2020-09-27_16h38.56.360,torte-2b,2020.1.3,MacIntel,60,13237,,,,,,,,,,,,space,,,,,,7,0.541,,,,,,0,33,33,33,1,,,,,,,,,,,,,,,,,,,,,,,,,,,,,,,,,,,,
,,,,,,,,,,,,,,,,,,,,,,,,19,female,2020-09-27_16h38.56.360,torte-2b,2020.1.3,MacIntel,60,13237,,,,,,,,,,,,,,,,,,2,,,,,,,0,34,34,34,1,,,,,,,,,,,,,,,,,,,,,,,,,,,,,,,,,,,,
,,,,,,,,,,,,,,,,,,,,,,,,19,female,2020-09-27_16h38.56.360,torte-2b,2020.1.3,MacIntel,60,13237,,,,,,,,,,,,,,,,,,3,,,,,,,,,,,,0,0,0,0,1,,,,,,,,,,,,,,,,,,,,,,,,,,,,,,,
,,,,,,,,,,,,,,,,,,,,,,,,19,female,2020-09-27_16h38.56.360,torte-2b,2020.1.3,MacIntel,60,13237,,,,,,,,,,,,,,,,,,7,,,,,,,,,,,,0,1,1,1,1,,,,,,,,,,,,,,,,,,,,,,,,,,,,,,,
,,,,,,,,,,,,,,,,,,,,,,,,19,female,2020-09-27_16h38.56.360,torte-2b,2020.1.3,MacIntel,60,13237,,,,,,,,,,,,space,,,,,,7,0.603,,,,,,,,,,,0,2,2,2,1,,,,,,,,,,,,,,,,,,,,,,,,,,,,,,,
,,,,,,,,,,,,,,,,,,,,,,,,19,female,2020-09-27_16h38.56.360,torte-2b,2020.1.3,MacIntel,60,13237,,,,,,,,,,,,,,,,,,4,,,,,,,,,,,,0,3,3,3,1,,,,,,,,,,,,,,,,,,,,,,,,,,,,,,,
,,,,,,,,,,,,,,,,,,,,,,,,19,female,2020-09-27_16h38.56.360,torte-2b,2020.1.3,MacIntel,60,13237,,,,,,,,,,,,,,,,,,5,,,,,,,,,,,,0,4,4,4,1,,,,,,,,,,,,,,,,,,,,,,,,,,,,,,,
,,,,,,,,,,,,,,,,,,,,,,,,19,female,2020-09-27_16h38.56.360,torte-2b,2020.1.3,MacIntel,60,13237,,,,,,,,,,,,space,,,,,,4,0.58,,,,,,,,,,,0,5,5,5,1,,,,,,,,,,,,,,,,,,,,,,,,,,,,,,,
,,,,,,,,,,,,,,,,,,,,,,,,19,female,2020-09-27_16h38.56.360,torte-2b,2020.1.3,MacIntel,60,13237,,,,,,,,,,,,,,,,,,2,,,,,,,,,,,,0,6,6,6,1,,,,,,,,,,,,,,,,,,,,,,,,,,,,,,,
,,,,,,,,,,,,,,,,,,,,,,,,19,female,2020-09-27_16h38.56.360,torte-2b,2020.1.3,MacIntel,60,13237,,,,,,,,,,,,space,,,,,,4,0.791,,,,,,,,,,,0,7,7,7,1,,,,,,,,,,,,,,,,,,,,,,,,,,,,,,,
,,,,,,,,,,,,,,,,,,,,,,,,19,female,2020-09-27_16h38.56.360,torte-2b,2020.1.3,MacIntel,60,13237,,,,,,,,,,,,space,,,,,,2,0.57,,,,,,,,,,,0,8,8,8,1,,,,,,,,,,,,,,,,,,,,,,,,,,,,,,,
,,,,,,,,,,,,,,,,,,,,,,,,19,female,2020-09-27_16h38.56.360,torte-2b,2020.1.3,MacIntel,60,13237,,,,,,,,,,,,,,,,,,2,,,,,,,,,,,,0,9,9,9,1,,,,,,,,,,,,,,,,,,,,,,,,,,,,,,,
,,,,,,,,,,,,,,,,,,,,,,,,19,female,2020-09-27_16h38.56.360,torte-2b,2020.1.3,MacIntel,60,13237,,,,,,,,,,,,,,,,,,6,,,,,,,,,,,,0,10,10,10,1,,,,,,,,,,,,,,,,,,,,,,,,,,,,,,,
,,,,,,,,,,,,,,,,,,,,,,,,19,female,2020-09-27_16h38.56.360,torte-2b,2020.1.3,MacIntel,60,13237,,,,,,,,,,,,space,,,,,,2,0.692,,,,,,,,,,,0,11,11,11,1,,,,,,,,,,,,,,,,,,,,,,,,,,,,,,,
,,,,,,,,,,,,,,,,,,,,,,,,19,female,2020-09-27_16h38.56.360,torte-2b,2020.1.3,MacIntel,60,13237,,,,,,,,,,,,space,,,,,,2,1.164,,,,,,,,,,,0,12,12,12,1,,,,,,,,,,,,,,,,,,,,,,,,,,,,,,,
,,,,,,,,,,,,,,,,,,,,,,,,19,female,2020-09-27_16h38.56.360,torte-2b,2020.1.3,MacIntel,60,13237,,,,,,,,,,,,,,,,,,2,,,,,,,,,,,,0,13,13,13,1,,,,,,,,,,,,,,,,,,,,,,,,,,,,,,,
,,,,,,,,,,,,,,,,,,,,,,,,19,female,2020-09-27_16h38.56.360,torte-2b,2020.1.3,MacIntel,60,13237,,,,,,,,,,,,space,,,,,,2,0.618,,,,,,,,,,,0,14,14,14,1,,,,,,,,,,,,,,,,,,,,,,,,,,,,,,,
,,,,,,,,,,,,,,,,,,,,,,,,19,female,2020-09-27_16h38.56.360,torte-2b,2020.1.3,MacIntel,60,13237,,,,,,,,,,,,,,,,,,4,,,,,,,,,,,,0,15,15,15,1,,,,,,,,,,,,,,,,,,,,,,,,,,,,,,,
,,,,,,,,,,,,,,,,,,,,,,,,19,female,2020-09-27_16h38.56.360,torte-2b,2020.1.3,MacIntel,60,13237,,,,,,,,,,,,,,,,,,3,,,,,,,,,,,,0,16,16,16,1,,,,,,,,,,,,,,,,,,,,,,,,,,,,,,,
,,,,,,,,,,,,,,,,,,,,,,,,19,female,2020-09-27_16h38.56.360,torte-2b,2020.1.3,MacIntel,60,13237,,,,,,,,,,,,,,,,,,7,,,,,,,,,,,,0,17,17,17,1,,,,,,,,,,,,,,,,,,,,,,,,,,,,,,,
,,,,,,,,,,,,,,,,,,,,,,,,19,female,2020-09-27_16h38.56.360,torte-2b,2020.1.3,MacIntel,60,13237,,,,,,,,,,,,,,,,,,4,,,,,,,,,,,,0,18,18,18,1,,,,,,,,,,,,,,,,,,,,,,,,,,,,,,,
,,,,,,,,,,,,,,,,,,,,,,,,19,female,2020-09-27_16h38.56.360,torte-2b,2020.1.3,MacIntel,60,13237,,,,,,,,,,,,space,,,,,,7,0.713,,,,,,,,,,,0,19,19,19,1,,,,,,,,,,,,,,,,,,,,,,,,,,,,,,,
,,,,,,,,,,,,,,,,,,,,,,,,19,female,2020-09-27_16h38.56.360,torte-2b,2020.1.3,MacIntel,60,13237,,,,,,,,,,,,,,,,,,7,,,,,,,,,,,,0,20,20,20,1,,,,,,,,,,,,,,,,,,,,,,,,,,,,,,,
,,,,,,,,,,,,,,,,,,,,,,,,19,female,2020-09-27_16h38.56.360,torte-2b,2020.1.3,MacIntel,60,13237,,,,,,,,,,,,,,,,,,7,,,,,,,,,,,,0,21,21,21,1,,,,,,,,,,,,,,,,,,,,,,,,,,,,,,,
,,,,,,,,,,,,,,,,,,,,,,,,19,female,2020-09-27_16h38.56.360,torte-2b,2020.1.3,MacIntel,60,13237,,,,,,,,,,,,space,,,,,,7,0.399,,,,,,,,,,,0,22,22,22,1,,,,,,,,,,,,,,,,,,,,,,,,,,,,,,,
,,,,,,,,,,,,,,,,,,,,,,,,19,female,2020-09-27_16h38.56.360,torte-2b,2020.1.3,MacIntel,60,13237,,,,,,,,,,,,,,,,,,1,,,,,,,,,,,,0,23,23,23,1,,,,,,,,,,,,,,,,,,,,,,,,,,,,,,,
,,,,,,,,,,,,,,,,,,,,,,,,19,female,2020-09-27_16h38.56.360,torte-2b,2020.1.3,MacIntel,60,13237,,,,,,,,,,,,space,,,,,,7,0.447,,,,,,,,,,,0,24,24,24,1,,,,,,,,,,,,,,,,,,,,,,,,,,,,,,,
,,,,,,,,,,,,,,,,,,,,,,,,19,female,2020-09-27_16h38.56.360,torte-2b,2020.1.3,MacIntel,60,13237,,,,,,,,,,,,space,,,,,,1,0.835,,,,,,,,,,,0,25,25,25,1,,,,,,,,,,,,,,,,,,,,,,,,,,,,,,,
,,,,,,,,,,,,,,,,,,,,,,,,19,female,2020-09-27_16h38.56.360,torte-2b,2020.1.3,MacIntel,60,13237,,,,,,,,,,,,space,,,,,,7,0.638,,,,,,,,,,,0,26,26,26,1,,,,,,,,,,,,,,,,,,,,,,,,,,,,,,,
,,,,,,,,,,,,,,,,,,,,,,,,19,female,2020-09-27_16h38.56.360,torte-2b,2020.1.3,MacIntel,60,13237,,,,,,,,,,,,,,,,,,2,,,,,,,,,,,,0,27,27,27,1,,,,,,,,,,,,,,,,,,,,,,,,,,,,,,,
,,,,,,,,,,,,,,,,,,,,,,,,19,female,2020-09-27_16h38.56.360,torte-2b,2020.1.3,MacIntel,60,13237,,,,,,,,,,,,,,,,,,5,,,,,,,,,,,,0,28,28,28,1,,,,,,,,,,,,,,,,,,,,,,,,,,,,,,,
,,,,,,,,,,,,,,,,,,,,,,,,19,female,2020-09-27_16h38.56.360,torte-2b,2020.1.3,MacIntel,60,13237,,,,,,,,,,,,,,,,,,5,,,,,,,,,,,,0,29,29,29,1,,,,,,,,,,,,,,,,,,,,,,,,,,,,,,,
,,,,,,,,,,,,,,,,,,,,,,,,19,female,2020-09-27_16h38.56.360,torte-2b,2020.1.3,MacIntel,60,13237,,,,,,,,,,,,space,,,,,,5,0.64,,,,,,,,,,,0,30,30,30,1,,,,,,,,,,,,,,,,,,,,,,,,,,,,,,,
,,,,,,,,,,,,,,,,,,,,,,,,19,female,2020-09-27_16h38.56.360,torte-2b,2020.1.3,MacIntel,60,13237,,,,,,,,,,,,,,,,,,1,,,,,,,,,,,,0,31,31,31,1,,,,,,,,,,,,,,,,,,,,,,,,,,,,,,,
,,,,,,,,,,,,,,,,,,,,,,,,19,female,2020-09-27_16h38.56.360,torte-2b,2020.1.3,MacIntel,60,13237,,,,,,,,,,,,space,,,,,,5,1.457,,,,,,,,,,,0,32,32,32,1,,,,,,,,,,,,,,,,,,,,,,,,,,,,,,,
,,,,,,,,,,,,,,,,,,,,,,,,19,female,2020-09-27_16h38.56.360,torte-2b,2020.1.3,MacIntel,60,13237,,,,,,,,,,,,,,,,,,3,,,,,,,,,,,,0,33,33,33,1,,,,,,,,,,,,,,,,,,,,,,,,,,,,,,,
,,,,,,,,,,,,,,,,,,,,,,,,19,female,2020-09-27_16h38.56.360,torte-2b,2020.1.3,MacIntel,60,13237,,,,,,,,,,,,,,,,,,3,,,,,,,,,,,,0,34,34,34,1,,,,,,,,,,,,,,,,,,,,,,,,,,,,,,,
,,,,,,,,,,,,a,0.607,Incorrect,,,,,,t5.png,t3.png,2,0.056466,19,female,2020-09-27_16h38.56.360,torte-2b,2020.1.3,MacIntel,60,13237,space,1.686,,,,,,,,,,,,,,,,,,,,,,,,,,,,,,,,,l,25.557,0,0,0,56,1,,,,,,,,,,,,,,,,,,,,,,,,
,,,,,,,,,,,,a,0.598,Incorrect,,,,,,t5.png,t3.png,2,0.0565,19,female,2020-09-27_16h38.56.360,torte-2b,2020.1.3,MacIntel,60,13237,,,,,,,,,,,,,,,,,,,,,,,,,,,,,,,,,,,,,0,1,1,39,1,,,,,,,,,,,,,,,,,,,,,,,,
,,,,,,,,,,,,l,0.701,Correct!,,,,,,t3.png,t1.png,2,0.056466,19,female,2020-09-27_16h38.56.360,torte-2b,2020.1.3,MacIntel,60,13237,,,,,,,,,,,,,,,,,,,,,,,,,,,,,,,,,,,,,0,2,2,0,1,,,,,,,,,,,,,,,,,,,,,,,,
,,,,,,,,,,,,l,0.508,Correct!,,,,,,t5.png,t1.png,4,9.55E-11,19,female,2020-09-27_16h38.56.360,torte-2b,2020.1.3,MacIntel,60,13237,,,,,,,,,,,,,,,,,,,,,,,,,,,,,,,,,,,,,0,3,3,100,1,,,,,,,,,,,,,,,,,,,,,,,,
,,,,,,,,,,,,l,0.734,Correct!,,,,,,t5.png,t2.png,3,0.0000131,19,female,2020-09-27_16h38.56.360,torte-2b,2020.1.3,MacIntel,60,13237,,,,,,,,,,,,,,,,,,,,,,,,,,,,,,,,,,,,,0,4,4,98,1,,,,,,,,,,,,,,,,,,,,,,,,
,,,,,,,,,,,,a,0.592,Incorrect,,,,,,t4.png,t2.png,2,0.059078,19,female,2020-09-27_16h38.56.360,torte-2b,2020.1.3,MacIntel,60,13237,,,,,,,,,,,,,,,,,,,,,,,,,,,,,,,,,,,,,0,5,5,86,1,,,,,,,,,,,,,,,,,,,,,,,,
,,,,,,,,,,,,a,0.611,Correct!,,,,,,t4.png,t4.png,0,0.98115,19,female,2020-09-27_16h38.56.360,torte-2b,2020.1.3,MacIntel,60,13237,,,,,,,,,,,,,,,,,,,,,,,,,,,,,,,,,,,,,0,6,6,80,1,,,,,,,,,,,,,,,,,,,,,,,,
,,,,,,,,,,,,a,0.556,Incorrect,,,,,,t5.png,t2.png,3,0.0000131,19,female,2020-09-27_16h38.56.360,torte-2b,2020.1.3,MacIntel,60,13237,,,,,,,,,,,,,,,,,,,,,,,,,,,,,,,,,,,,,0,7,7,119,1,,,,,,,,,,,,,,,,,,,,,,,,
,,,,,,,,,,,,l,0.582,Correct!,,,,,,t1.png,t5.png,4,9.55E-11,19,female,2020-09-27_16h38.56.360,torte-2b,2020.1.3,MacIntel,60,13237,,,,,,,,,,,,,,,,,,,,,,,,,,,,,,,,,,,,,0,8,8,85,1,,,,,,,,,,,,,,,,,,,,,,,,
,,,,,,,,,,,,l,0.866,Incorrect,,,,,,t3.png,t4.png,1,0.909,19,female,2020-09-27_16h38.56.360,torte-2b,2020.1.3,MacIntel,60,13237,,,,,,,,,,,,,,,,,,,,,,,,,,,,,,,,,,,,,0,9,9,82,1,,,,,,,,,,,,,,,,,,,,,,,,
,,,,,,,,,,,,a,0.631,Correct!,,,,,,t2.png,t1.png,1,0.9,19,female,2020-09-27_16h38.56.360,torte-2b,2020.1.3,MacIntel,60,13237,,,,,,,,,,,,,,,,,,,,,,,,,,,,,,,,,,,,,0,10,10,118,1,,,,,,,,,,,,,,,,,,,,,,,,
,,,,,,,,,,,,a,0.593,Incorrect,,,,,,t2.png,t5.png,3,0.0000131,19,female,2020-09-27_16h38.56.360,torte-2b,2020.1.3,MacIntel,60,13237,,,,,,,,,,,,,,,,,,,,,,,,,,,,,,,,,,,,,0,11,11,95,1,,,,,,,,,,,,,,,,,,,,,,,,
,,,,,,,,,,,,l,0.588,Incorrect,,,,,,t5.png,t4.png,1,0.90025,19,female,2020-09-27_16h38.56.360,torte-2b,2020.1.3,MacIntel,60,13237,,,,,,,,,,,,,,,,,,,,,,,,,,,,,,,,,,,,,0,12,12,34,1,,,,,,,,,,,,,,,,,,,,,,,,
,,,,,,,,,,,,l,0.794,Correct!,,,,,,t2.png,t4.png,2,0.0591,19,female,2020-09-27_16h38.56.360,torte-2b,2020.1.3,MacIntel,60,13237,,,,,,,,,,,,,,,,,,,,,,,,,,,,,,,,,,,,,0,13,13,15,1,,,,,,,,,,,,,,,,,,,,,,,,
,,,,,,,,,,,,a,0.682,Incorrect,,,,,,t4.png,t1.png,3,0.0000131,19,female,2020-09-27_16h38.56.360,torte-2b,2020.1.3,MacIntel,60,13237,,,,,,,,,,,,,,,,,,,,,,,,,,,,,,,,,,,,,0,14,14,48,1,,,,,,,,,,,,,,,,,,,,,,,,
,,,,,,,,,,,,l,0.643,Incorrect,,,,,,t4.png,t4.png,0,0.98115,19,female,2020-09-27_16h38.56.360,torte-2b,2020.1.3,MacIntel,60,13237,,,,,,,,,,,,,,,,,,,,,,,,,,,,,,,,,,,,,0,15,15,90,1,,,,,,,,,,,,,,,,,,,,,,,,
,,,,,,,,,,,,l,0.749,Correct!,,,,,,t2.png,t4.png,2,0.059078,19,female,2020-09-27_16h38.56.360,torte-2b,2020.1.3,MacIntel,60,13237,,,,,,,,,,,,,,,,,,,,,,,,,,,,,,,,,,,,,0,16,16,77,1,,,,,,,,,,,,,,,,,,,,,,,,
,,,,,,,,,,,,l,1.017,Incorrect,,,,,,t4.png,t5.png,1,0.90025,19,female,2020-09-27_16h38.56.360,torte-2b,2020.1.3,MacIntel,60,13237,,,,,,,,,,,,,,,,,,,,,,,,,,,,,,,,,,,,,0,17,17,103,1,,,,,,,,,,,,,,,,,,,,,,,,
,,,,,,,,,,,,a,0.682,Incorrect,,,,,,t1.png,t3.png,2,0.056466,19,female,2020-09-27_16h38.56.360,torte-2b,2020.1.3,MacIntel,60,13237,,,,,,,,,,,,,,,,,,,,,,,,,,,,,,,,,,,,,0,18,18,60,1,,,,,,,,,,,,,,,,,,,,,,,,
,,,,,,,,,,,,a,0.602,Correct!,,,,,,t1.png,t2.png,1,0.90025,19,female,2020-09-27_16h38.56.360,torte-2b,2020.1.3,MacIntel,60,13237,,,,,,,,,,,,,,,,,,,,,,,,,,,,,,,,,,,,,0,19,19,105,1,,,,,,,,,,,,,,,,,,,,,,,,
,,,,,,,,,,,,a,0.823,Incorrect,,,,,,t1.png,t2.png,1,0.9,19,female,2020-09-27_16h38.56.360,torte-2b,2020.1.3,MacIntel,60,13237,,,,,,,,,,,,,,,,,,,,,,,,,,,,,,,,,,,,,0,20,20,1,1,,,,,,,,,,,,,,,,,,,,,,,,
,,,,,,,,,,,,l,0.79,Incorrect,,,,,,t2.png,t3.png,1,0.90855,19,female,2020-09-27_16h38.56.360,torte-2b,2020.1.3,MacIntel,60,13237,,,,,,,,,,,,,,,,,,,,,,,,,,,,,,,,,,,,,0,21,21,68,1,,,,,,,,,,,,,,,,,,,,,,,,
,,,,,,,,,,,,a,1.257,Incorrect,,,,,,t1.png,t3.png,2,0.056466,19,female,2020-09-27_16h38.56.360,torte-2b,2020.1.3,MacIntel,60,13237,,,,,,,,,,,,,,,,,,,,,,,,,,,,,,,,,,,,,0,22,22,99,1,,,,,,,,,,,,,,,,,,,,,,,,
,,,,,,,,,,,,a,0.893,Incorrect,,,,,,t1.png,t4.png,3,0.0000131,19,female,2020-09-27_16h38.56.360,torte-2b,2020.1.3,MacIntel,60,13237,,,,,,,,,,,,,,,,,,,,,,,,,,,,,,,,,,,,,0,23,23,81,1,,,,,,,,,,,,,,,,,,,,,,,,
,,,,,,,,,,,,l,1.059,Incorrect,,,,,,t4.png,t3.png,1,0.90855,19,female,2020-09-27_16h38.56.360,torte-2b,2020.1.3,MacIntel,60,13237,,,,,,,,,,,,,,,,,,,,,,,,,,,,,,,,,,,,,0,24,24,75,1,,,,,,,,,,,,,,,,,,,,,,,,
,,,,,,,,,,,,a,1.127,Incorrect,,,,,,t4.png,t1.png,3,0.0000131,19,female,2020-09-27_16h38.56.360,torte-2b,2020.1.3,MacIntel,60,13237,,,,,,,,,,,,,,,,,,,,,,,,,,,,,,,,,,,,,0,25,25,42,1,,,,,,,,,,,,,,,,,,,,,,,,
,,,,,,,,,,,,a,0.739,Incorrect,,,,,,t2.png,t5.png,3,0.0000131,19,female,2020-09-27_16h38.56.360,torte-2b,2020.1.3,MacIntel,60,13237,,,,,,,,,,,,,,,,,,,,,,,,,,,,,,,,,,,,,0,26,26,66,1,,,,,,,,,,,,,,,,,,,,,,,,
,,,,,,,,,,,,a,0.682,Correct!,,,,,,t4.png,t4.png,0,0.98115,19,female,2020-09-27_16h38.56.360,torte-2b,2020.1.3,MacIntel,60,13237,,,,,,,,,,,,,,,,,,,,,,,,,,,,,,,,,,,,,0,27,27,21,1,,,,,,,,,,,,,,,,,,,,,,,,
,,,,,,,,,,,,a,0.643,Incorrect,,,,,,t1.png,t4.png,3,0.0000131,19,female,2020-09-27_16h38.56.360,torte-2b,2020.1.3,MacIntel,60,13237,,,,,,,,,,,,,,,,,,,,,,,,,,,,,,,,,,,,,0,28,28,17,1,,,,,,,,,,,,,,,,,,,,,,,,
,,,,,,,,,,,,a,0.685,Incorrect,,,,,,t5.png,t3.png,2,0.056466,19,female,2020-09-27_16h38.56.360,torte-2b,2020.1.3,MacIntel,60,13237,,,,,,,,,,,,,,,,,,,,,,,,,,,,,,,,,,,,,0,29,29,114,1,,,,,,,,,,,,,,,,,,,,,,,,
,,,,,,,,,,,,l,0.923,Incorrect,,,,,,t2.png,t3.png,1,0.90855,19,female,2020-09-27_16h38.56.360,torte-2b,2020.1.3,MacIntel,60,13237,,,,,,,,,,,,,,,,,,,,,,,,,,,,,,,,,,,,,0,30,30,111,1,,,,,,,,,,,,,,,,,,,,,,,,
,,,,,,,,,,,,a,0.699,Correct!,,,,,,t4.png,t4.png,0,0.98115,19,female,2020-09-27_16h38.56.360,torte-2b,2020.1.3,MacIntel,60,13237,,,,,,,,,,,,,,,,,,,,,,,,,,,,,,,,,,,,,0,31,31,52,1,,,,,,,,,,,,,,,,,,,,,,,,
,,,,,,,,,,,,a,0.71,Correct!,,,,,,t4.png,t5.png,1,0.90025,19,female,2020-09-27_16h38.56.360,torte-2b,2020.1.3,MacIntel,60,13237,,,,,,,,,,,,,,,,,,,,,,,,,,,,,,,,,,,,,0,32,32,113,1,,,,,,,,,,,,,,,,,,,,,,,,
,,,,,,,,,,,,l,0.675,Correct!,,,,,,t5.png,t5.png,0,0.97829,19,female,2020-09-27_16h38.56.360,torte-2b,2020.1.3,MacIntel,60,13237,,,,,,,,,,,,,,,,,,,,,,,,,,,,,,,,,,,,,0,33,33,94,1,,,,,,,,,,,,,,,,,,,,,,,,
,,,,,,,,,,,,l,0.781,Incorrect,,,,,,t1.png,t1.png,0,0.97829,19,female,2020-09-27_16h38.56.360,torte-2b,2020.1.3,MacIntel,60,13237,,,,,,,,,,,,,,,,,,,,,,,,,,,,,,,,,,,,,0,34,34,67,1,,,,,,,,,,,,,,,,,,,,,,,,
,,,,,,,,,,,,l,0.918,Incorrect,,,,,,t2.png,t2.png,0,0.98115,19,female,2020-09-27_16h38.56.360,torte-2b,2020.1.3,MacIntel,60,13237,,,,,,,,,,,,,,,,,,,,,,,,,,,,,,,,,,,,,0,35,35,2,1,,,,,,,,,,,,,,,,,,,,,,,,
,,,,,,,,,,,,l,0.668,Incorrect,,,,,,t1.png,t1.png,0,0.97829,19,female,2020-09-27_16h38.56.360,torte-2b,2020.1.3,MacIntel,60,13237,,,,,,,,,,,,,,,,,,,,,,,,,,,,,,,,,,,,,0,36,36,9,1,,,,,,,,,,,,,,,,,,,,,,,,
,,,,,,,,,,,,a,0.644,Incorrect,,,,,,t1.png,t4.png,3,0.0000131,19,female,2020-09-27_16h38.56.360,torte-2b,2020.1.3,MacIntel,60,13237,,,,,,,,,,,,,,,,,,,,,,,,,,,,,,,,,,,,,0,37,37,50,1,,,,,,,,,,,,,,,,,,,,,,,,
,,,,,,,,,,,,a,0.666,Incorrect,,,,,,t5.png,t1.png,4,9.55E-11,19,female,2020-09-27_16h38.56.360,torte-2b,2020.1.3,MacIntel,60,13237,,,,,,,,,,,,,,,,,,,,,,,,,,,,,,,,,,,,,0,38,38,43,1,,,,,,,,,,,,,,,,,,,,,,,,
,,,,,,,,,,,,l,0.683,Correct!,,,,,,t3.png,t5.png,2,0.056466,19,female,2020-09-27_16h38.56.360,torte-2b,2020.1.3,MacIntel,60,13237,,,,,,,,,,,,,,,,,,,,,,,,,,,,,,,,,,,,,0,39,39,14,1,,,,,,,,,,,,,,,,,,,,,,,,
,,,,,,,,,,,,a,0.822,Correct!,,,,,,t2.png,t3.png,1,0.90855,19,female,2020-09-27_16h38.56.360,torte-2b,2020.1.3,MacIntel,60,13237,,,,,,,,,,,,,,,,,,,,,,,,,,,,,,,,,,,,,0,40,40,10,1,,,,,,,,,,,,,,,,,,,,,,,,
,,,,,,,,,,,,l,0.642,Correct!,,,,,,t5.png,t1.png,4,9.55E-11,19,female,2020-09-27_16h38.56.360,torte-2b,2020.1.3,MacIntel,60,13237,,,,,,,,,,,,,,,,,,,,,,,,,,,,,,,,,,,,,0,41,41,71,1,,,,,,,,,,,,,,,,,,,,,,,,
,,,,,,,,,,,,l,0.69,Incorrect,,,,,,t5.png,t4.png,1,0.9,19,female,2020-09-27_16h38.56.360,torte-2b,2020.1.3,MacIntel,60,13237,,,,,,,,,,,,,,,,,,,,,,,,,,,,,,,,,,,,,0,42,42,49,1,,,,,,,,,,,,,,,,,,,,,,,,
,,,,,,,,,,,,a,0.824,Incorrect,,,,,,t2.png,t4.png,2,0.059078,19,female,2020-09-27_16h38.56.360,torte-2b,2020.1.3,MacIntel,60,13237,,,,,,,,,,,,,,,,,,,,,,,,,,,,,,,,,,,,,0,43,43,11,1,,,,,,,,,,,,,,,,,,,,,,,,
,,,,,,,,,,,,l,0.906,Correct!,,,,,,t2.png,t5.png,3,0.0000131,19,female,2020-09-27_16h38.56.360,torte-2b,2020.1.3,MacIntel,60,13237,,,,,,,,,,,,,,,,,,,,,,,,,,,,,,,,,,,,,0,44,44,40,1,,,,,,,,,,,,,,,,,,,,,,,,
,,,,,,,,,,,,a,0.672,Correct!,,,,,,t2.png,t3.png,1,0.90855,19,female,2020-09-27_16h38.56.360,torte-2b,2020.1.3,MacIntel,60,13237,,,,,,,,,,,,,,,,,,,,,,,,,,,,,,,,,,,,,0,45,45,65,1,,,,,,,,,,,,,,,,,,,,,,,,
,,,,,,,,,,,,a,1.033,Incorrect,,,,,,t4.png,t2.png,2,0.059078,19,female,2020-09-27_16h38.56.360,torte-2b,2020.1.3,MacIntel,60,13237,,,,,,,,,,,,,,,,,,,,,,,,,,,,,,,,,,,,,0,46,46,110,1,,,,,,,,,,,,,,,,,,,,,,,,
,,,,,,,,,,,,a,0.561,Incorrect,,,,,,t4.png,t2.png,2,0.059078,19,female,2020-09-27_16h38.56.360,torte-2b,2020.1.3,MacIntel,60,13237,,,,,,,,,,,,,,,,,,,,,,,,,,,,,,,,,,,,,0,47,47,88,1,,,,,,,,,,,,,,,,,,,,,,,,
,,,,,,,,,,,,l,0.577,Correct!,,,,,,t3.png,t1.png,2,0.056466,19,female,2020-09-27_16h38.56.360,torte-2b,2020.1.3,MacIntel,60,13237,,,,,,,,,,,,,,,,,,,,,,,,,,,,,,,,,,,,,0,48,48,29,1,,,,,,,,,,,,,,,,,,,,,,,,
,,,,,,,,,,,,a,0.715,Correct!,,,,,,t4.png,t5.png,1,0.9,19,female,2020-09-27_16h38.56.360,torte-2b,2020.1.3,MacIntel,60,13237,,,,,,,,,,,,,,,,,,,,,,,,,,,,,,,,,,,,,0,49,49,115,1,,,,,,,,,,,,,,,,,,,,,,,,
,,,,,,,,,,,,a,0.662,Correct!,,,,,,t5.png,t3.png,2,0.056466,19,female,2020-09-27_16h38.56.360,torte-2b,2020.1.3,MacIntel,60,13237,,,,,,,,,,,,,,,,,,,,,,,,,,,,,,,,,,,,,0,50,50,38,1,,,,,,,,,,,,,,,,,,,,,,,,
,,,,,,,,,,,,l,1.123,Incorrect,,,,,,t3.png,t2.png,1,0.909,19,female,2020-09-27_16h38.56.360,torte-2b,2020.1.3,MacIntel,60,13237,,,,,,,,,,,,,,,,,,,,,,,,,,,,,,,,,,,,,0,51,51,23,1,,,,,,,,,,,,,,,,,,,,,,,,
,,,,,,,,,,,,a,0.782,Incorrect,,,,,,t3.png,t1.png,2,0.056466,19,female,2020-09-27_16h38.56.360,torte-2b,2020.1.3,MacIntel,60,13237,,,,,,,,,,,,,,,,,,,,,,,,,,,,,,,,,,,,,0,52,52,64,1,,,,,,,,,,,,,,,,,,,,,,,,
,,,,,,,,,,,,l,0.874,Correct!,,,,,,t2.png,t4.png,2,0.059078,19,female,2020-09-27_16h38.56.360,torte-2b,2020.1.3,MacIntel,60,13237,,,,,,,,,,,,,,,,,,,,,,,,,,,,,,,,,,,,,0,53,53,24,1,,,,,,,,,,,,,,,,,,,,,,,,
,,,,,,,,,,,,l,0.707,Correct!,,,,,,t1.png,t5.png,4,9.55E-11,19,female,2020-09-27_16h38.56.360,torte-2b,2020.1.3,MacIntel,60,13237,,,,,,,,,,,,,,,,,,,,,,,,,,,,,,,,,,,,,0,54,54,16,1,,,,,,,,,,,,,,,,,,,,,,,,
,,,,,,,,,,,,a,0.616,Correct!,,,,,,t3.png,t4.png,1,0.90855,19,female,2020-09-27_16h38.56.360,torte-2b,2020.1.3,MacIntel,60,13237,,,,,,,,,,,,,,,,,,,,,,,,,,,,,,,,,,,,,0,55,55,96,1,,,,,,,,,,,,,,,,,,,,,,,,
,,,,,,,,,,,,l,0.648,Incorrect,,,,,,t1.png,t2.png,1,0.90025,19,female,2020-09-27_16h38.56.360,torte-2b,2020.1.3,MacIntel,60,13237,,,,,,,,,,,,,,,,,,,,,,,,,,,,,,,,,,,,,0,56,56,33,1,,,,,,,,,,,,,,,,,,,,,,,,
,,,,,,,,,,,,l,0.818,Incorrect,,,,,,t2.png,t3.png,1,0.909,19,female,2020-09-27_16h38.56.360,torte-2b,2020.1.3,MacIntel,60,13237,,,,,,,,,,,,,,,,,,,,,,,,,,,,,,,,,,,,,0,57,57,74,1,,,,,,,,,,,,,,,,,,,,,,,,
,,,,,,,,,,,,l,0.826,Incorrect,,,,,,t2.png,t1.png,1,0.90025,19,female,2020-09-27_16h38.56.360,torte-2b,2020.1.3,MacIntel,60,13237,,,,,,,,,,,,,,,,,,,,,,,,,,,,,,,,,,,,,0,58,58,5,1,,,,,,,,,,,,,,,,,,,,,,,,
,,,,,,,,,,,,a,0.825,Incorrect,,,,,,t5.png,t1.png,4,9.55E-11,19,female,2020-09-27_16h38.56.360,torte-2b,2020.1.3,MacIntel,60,13237,,,,,,,,,,,,,,,,,,,,,,,,,,,,,,,,,,,,,0,59,59,102,1,,,,,,,,,,,,,,,,,,,,,,,,
,,,,,,,,,,,,a,0.966,Incorrect,,,,,,t4.png,t2.png,2,0.0591,19,female,2020-09-27_16h38.56.360,torte-2b,2020.1.3,MacIntel,60,13237,,,,,,,,,,,,,,,,,,,,,,,,,,,,,,,,,,,,,0,60,60,36,1,,,,,,,,,,,,,,,,,,,,,,,,
,,,,,,,,,,,,l,0.792,Incorrect,,,,,,t3.png,t4.png,1,0.909,19,female,2020-09-27_16h38.56.360,torte-2b,2020.1.3,MacIntel,60,13237,,,,,,,,,,,,,,,,,,,,,,,,,,,,,,,,,,,,,0,61,61,89,1,,,,,,,,,,,,,,,,,,,,,,,,
,,,,,,,,,,,,l,0.728,Correct!,,,,,,t1.png,t5.png,4,9.55E-11,19,female,2020-09-27_16h38.56.360,torte-2b,2020.1.3,MacIntel,60,13237,,,,,,,,,,,,,,,,,,,,,,,,,,,,,,,,,,,,,0,62,62,12,1,,,,,,,,,,,,,,,,,,,,,,,,
,,,,,,,,,,,,a,0.889,Correct!,,,,,,t4.png,t5.png,1,0.90025,19,female,2020-09-27_16h38.56.360,torte-2b,2020.1.3,MacIntel,60,13237,,,,,,,,,,,,,,,,,,,,,,,,,,,,,,,,,,,,,0,63,63,47,1,,,,,,,,,,,,,,,,,,,,,,,,
,,,,,,,,,,,,a,0.994,Correct!,,,,,,t4.png,t3.png,1,0.909,19,female,2020-09-27_16h38.56.360,torte-2b,2020.1.3,MacIntel,60,13237,,,,,,,,,,,,,,,,,,,,,,,,,,,,,,,,,,,,,0,64,64,20,1,,,,,,,,,,,,,,,,,,,,,,,,
,,,,,,,,,,,,l,0.761,Incorrect,,,,,,t2.png,t2.png,0,0.98115,19,female,2020-09-27_16h38.56.360,torte-2b,2020.1.3,MacIntel,60,13237,,,,,,,,,,,,,,,,,,,,,,,,,,,,,,,,,,,,,0,65,65,7,1,,,,,,,,,,,,,,,,,,,,,,,,
,,,,,,,,,,,,a,0.645,Incorrect,,,,,,t5.png,t2.png,3,0.0000131,19,female,2020-09-27_16h38.56.360,torte-2b,2020.1.3,MacIntel,60,13237,,,,,,,,,,,,,,,,,,,,,,,,,,,,,,,,,,,,,0,66,66,51,1,,,,,,,,,,,,,,,,,,,,,,,,
,,,,,,,,,,,,a,1.111,Incorrect,,,,,,t1.png,t3.png,2,0.056466,19,female,2020-09-27_16h38.56.360,torte-2b,2020.1.3,MacIntel,60,13237,,,,,,,,,,,,,,,,,,,,,,,,,,,,,,,,,,,,,0,67,67,69,1,,,,,,,,,,,,,,,,,,,,,,,,
,,,,,,,,,,,,a,0.807,Correct!,,,,,,t2.png,t2.png,0,0.98115,19,female,2020-09-27_16h38.56.360,torte-2b,2020.1.3,MacIntel,60,13237,,,,,,,,,,,,,,,,,,,,,,,,,,,,,,,,,,,,,0,68,68,57,1,,,,,,,,,,,,,,,,,,,,,,,,
,,,,,,,,,,,,l,0.573,Incorrect,,,,,,t2.png,t2.png,0,0.98115,19,female,2020-09-27_16h38.56.360,torte-2b,2020.1.3,MacIntel,60,13237,,,,,,,,,,,,,,,,,,,,,,,,,,,,,,,,,,,,,0,69,69,59,1,,,,,,,,,,,,,,,,,,,,,,,,
,,,,,,,,,,,,a,0.59,Incorrect,,,,,,t3.png,t1.png,2,0.056466,19,female,2020-09-27_16h38.56.360,torte-2b,2020.1.3,MacIntel,60,13237,,,,,,,,,,,,,,,,,,,,,,,,,,,,,,,,,,,,,0,70,70,32,1,,,,,,,,,,,,,,,,,,,,,,,,
,,,,,,,,,,,,l,1.227,Correct!,,,,,,t3.png,t5.png,2,0.0565,19,female,2020-09-27_16h38.56.360,torte-2b,2020.1.3,MacIntel,60,13237,,,,,,,,,,,,,,,,,,,,,,,,,,,,,,,,,,,,,0,71,71,30,1,,,,,,,,,,,,,,,,,,,,,,,,
,,,,,,,,,,,,a,0.773,Incorrect,,,,,,t5.png,t2.png,3,0.0000131,19,female,2020-09-27_16h38.56.360,torte-2b,2020.1.3,MacIntel,60,13237,,,,,,,,,,,,,,,,,,,,,,,,,,,,,,,,,,,,,0,72,72,116,1,,,,,,,,,,,,,,,,,,,,,,,,
,,,,,,,,,,,,l,0.94,Incorrect,,,,,,t3.png,t4.png,1,0.90855,19,female,2020-09-27_16h38.56.360,torte-2b,2020.1.3,MacIntel,60,13237,,,,,,,,,,,,,,,,,,,,,,,,,,,,,,,,,,,,,0,73,73,84,1,,,,,,,,,,,,,,,,,,,,,,,,
,,,,,,,,,,,,l,0.667,Correct!,,,,,,t1.png,t4.png,3,0.0000131,19,female,2020-09-27_16h38.56.360,torte-2b,2020.1.3,MacIntel,60,13237,,,,,,,,,,,,,,,,,,,,,,,,,,,,,,,,,,,,,0,74,74,107,1,,,,,,,,,,,,,,,,,,,,,,,,
,,,,,,,,,,,,a,0.867,Incorrect,,,,,,t2.png,t5.png,3,0.0000131,19,female,2020-09-27_16h38.56.360,torte-2b,2020.1.3,MacIntel,60,13237,,,,,,,,,,,,,,,,,,,,,,,,,,,,,,,,,,,,,0,75,75,104,1,,,,,,,,,,,,,,,,,,,,,,,,
,,,,,,,,,,,,a,0.756,Correct!,,,,,,t5.png,t5.png,0,0.978,19,female,2020-09-27_16h38.56.360,torte-2b,2020.1.3,MacIntel,60,13237,,,,,,,,,,,,,,,,,,,,,,,,,,,,,,,,,,,,,0,76,76,117,1,,,,,,,,,,,,,,,,,,,,,,,,
,,,,,,,,,,,,a,0.543,Correct!,,,,,,t3.png,t2.png,1,0.90855,19,female,2020-09-27_16h38.56.360,torte-2b,2020.1.3,MacIntel,60,13237,,,,,,,,,,,,,,,,,,,,,,,,,,,,,,,,,,,,,0,77,77,53,1,,,,,,,,,,,,,,,,,,,,,,,,
,,,,,,,,,,,,l,0.628,Correct!,,,,,,t2.png,t5.png,3,0.0000131,19,female,2020-09-27_16h38.56.360,torte-2b,2020.1.3,MacIntel,60,13237,,,,,,,,,,,,,,,,,,,,,,,,,,,,,,,,,,,,,0,78,78,8,1,,,,,,,,,,,,,,,,,,,,,,,,
,,,,,,,,,,,,l,0.672,Incorrect,,,,,,t2.png,t1.png,1,0.90025,19,female,2020-09-27_16h38.56.360,torte-2b,2020.1.3,MacIntel,60,13237,,,,,,,,,,,,,,,,,,,,,,,,,,,,,,,,,,,,,0,79,79,62,1,,,,,,,,,,,,,,,,,,,,,,,,
,,,,,,,,,,,,a,0.625,Correct!,,,,,,t2.png,t1.png,1,0.90025,19,female,2020-09-27_16h38.56.360,torte-2b,2020.1.3,MacIntel,60,13237,,,,,,,,,,,,,,,,,,,,,,,,,,,,,,,,,,,,,0,80,80,19,1,,,,,,,,,,,,,,,,,,,,,,,,
,,,,,,,,,,,,a,0.604,Correct!,,,,,,t5.png,t4.png,1,0.9,19,female,2020-09-27_16h38.56.360,torte-2b,2020.1.3,MacIntel,60,13237,,,,,,,,,,,,,,,,,,,,,,,,,,,,,,,,,,,,,0,81,81,76,1,,,,,,,,,,,,,,,,,,,,,,,,
,,,,,,,,,,,,a,0.786,Correct!,,,,,,t5.png,t4.png,1,0.90025,19,female,2020-09-27_16h38.56.360,torte-2b,2020.1.3,MacIntel,60,13237,,,,,,,,,,,,,,,,,,,,,,,,,,,,,,,,,,,,,0,82,82,26,1,,,,,,,,,,,,,,,,,,,,,,,,
,,,,,,,,,,,,a,0.724,Correct!,,,,,,t4.png,t3.png,1,0.90855,19,female,2020-09-27_16h38.56.360,torte-2b,2020.1.3,MacIntel,60,13237,,,,,,,,,,,,,,,,,,,,,,,,,,,,,,,,,,,,,0,83,83,35,1,,,,,,,,,,,,,,,,,,,,,,,,
,,,,,,,,,,,,l,0.686,Incorrect,,,,,,t4.png,t5.png,1,0.90025,19,female,2020-09-27_16h38.56.360,torte-2b,2020.1.3,MacIntel,60,13237,,,,,,,,,,,,,,,,,,,,,,,,,,,,,,,,,,,,,0,84,84,58,1,,,,,,,,,,,,,,,,,,,,,,,,
,,,,,,,,,,,,l,0.671,Incorrect,,,,,,t1.png,t1.png,0,0.978,19,female,2020-09-27_16h38.56.360,torte-2b,2020.1.3,MacIntel,60,13237,,,,,,,,,,,,,,,,,,,,,,,,,,,,,,,,,,,,,0,85,85,28,1,,,,,,,,,,,,,,,,,,,,,,,,
,,,,,,,,,,,,a,0.589,Incorrect,,,,,,t4.png,t1.png,3,0.0000131,19,female,2020-09-27_16h38.56.360,torte-2b,2020.1.3,MacIntel,60,13237,,,,,,,,,,,,,,,,,,,,,,,,,,,,,,,,,,,,,0,86,86,13,1,,,,,,,,,,,,,,,,,,,,,,,,
,,,,,,,,,,,,l,0.802,Correct!,,,,,,t1.png,t5.png,4,9.55E-11,19,female,2020-09-27_16h38.56.360,torte-2b,2020.1.3,MacIntel,60,13237,,,,,,,,,,,,,,,,,,,,,,,,,,,,,,,,,,,,,0,87,87,55,1,,,,,,,,,,,,,,,,,,,,,,,,
,,,,,,,,,,,,l,0.918,Correct!,,,,,,t2.png,t4.png,2,0.059078,19,female,2020-09-27_16h38.56.360,torte-2b,2020.1.3,MacIntel,60,13237,,,,,,,,,,,,,,,,,,,,,,,,,,,,,,,,,,,,,0,88,88,37,1,,,,,,,,,,,,,,,,,,,,,,,,
,,,,,,,,,,,,a,0.718,Correct!,,,,,,t5.png,t5.png,0,0.97829,19,female,2020-09-27_16h38.56.360,torte-2b,2020.1.3,MacIntel,60,13237,,,,,,,,,,,,,,,,,,,,,,,,,,,,,,,,,,,,,0,89,89,70,1,,,,,,,,,,,,,,,,,,,,,,,,
,,,,,,,,,,,,a,0.584,Incorrect,,,,,,t5.png,t3.png,2,0.056466,19,female,2020-09-27_16h38.56.360,torte-2b,2020.1.3,MacIntel,60,13237,,,,,,,,,,,,,,,,,,,,,,,,,,,,,,,,,,,,,0,90,90,108,1,,,,,,,,,,,,,,,,,,,,,,,,
,,,,,,,,,,,,l,0.786,Incorrect,,,,,,t2.png,t1.png,1,0.90025,19,female,2020-09-27_16h38.56.360,torte-2b,2020.1.3,MacIntel,60,13237,,,,,,,,,,,,,,,,,,,,,,,,,,,,,,,,,,,,,0,91,91,4,1,,,,,,,,,,,,,,,,,,,,,,,,
,,,,,,,,,,,,a,0.653,Incorrect,,,,,,t5.png,t2.png,3,0.0000131,19,female,2020-09-27_16h38.56.360,torte-2b,2020.1.3,MacIntel,60,13237,,,,,,,,,,,,,,,,,,,,,,,,,,,,,,,,,,,,,0,92,92,91,1,,,,,,,,,,,,,,,,,,,,,,,,
,,,,,,,,,,,,a,0.761,Correct!,,,,,,t1.png,t2.png,1,0.90025,19,female,2020-09-27_16h38.56.360,torte-2b,2020.1.3,MacIntel,60,13237,,,,,,,,,,,,,,,,,,,,,,,,,,,,,,,,,,,,,0,93,93,72,1,,,,,,,,,,,,,,,,,,,,,,,,
,,,,,,,,,,,,a,0.486,Incorrect,,,,,,t1.png,t4.png,3,0.0000131,19,female,2020-09-27_16h38.56.360,torte-2b,2020.1.3,MacIntel,60,13237,,,,,,,,,,,,,,,,,,,,,,,,,,,,,,,,,,,,,0,94,94,92,1,,,,,,,,,,,,,,,,,,,,,,,,
,,,,,,,,,,,,l,0.887,Incorrect,,,,,,t1.png,t1.png,0,0.97829,19,female,2020-09-27_16h38.56.360,torte-2b,2020.1.3,MacIntel,60,13237,,,,,,,,,,,,,,,,,,,,,,,,,,,,,,,,,,,,,0,95,95,78,1,,,,,,,,,,,,,,,,,,,,,,,,
,,,,,,,,,,,,a,0.987,Incorrect,,,,,,t3.png,t1.png,2,0.0565,19,female,2020-09-27_16h38.56.360,torte-2b,2020.1.3,MacIntel,60,13237,,,,,,,,,,,,,,,,,,,,,,,,,,,,,,,,,,,,,0,96,96,31,1,,,,,,,,,,,,,,,,,,,,,,,,
,,,,,,,,,,,,a,1.278,Incorrect,,,,,,t4.png,t1.png,3,0.0000131,19,female,2020-09-27_16h38.56.360,torte-2b,2020.1.3,MacIntel,60,13237,,,,,,,,,,,,,,,,,,,,,,,,,,,,,,,,,,,,,0,97,97,61,1,,,,,,,,,,,,,,,,,,,,,,,,
,,,,,,,,,,,,a,0.724,Correct!,,,,,,t4.png,t4.png,0,0.98115,19,female,2020-09-27_16h38.56.360,torte-2b,2020.1.3,MacIntel,60,13237,,,,,,,,,,,,,,,,,,,,,,,,,,,,,,,,,,,,,0,98,98,79,1,,,,,,,,,,,,,,,,,,,,,,,,
,,,,,,,,,,,,a,0.891,Correct!,,,,,,t5.png,t5.png,0,0.97829,19,female,2020-09-27_16h38.56.360,torte-2b,2020.1.3,MacIntel,60,13237,,,,,,,,,,,,,,,,,,,,,,,,,,,,,,,,,,,,,0,99,99,25,1,,,,,,,,,,,,,,,,,,,,,,,,
,,,,,,,,,,,,l,0.924,Incorrect,,,,,,t3.png,t5.png,2,0.0565,19,female,2020-09-27_16h38.56.360,torte-2b,2020.1.3,MacIntel,60,13237,,,,,,,,,,,,,,,,,,,,,,,,,,,,,,,,,,,,,0,100,100,83,1,,,,,,,,,,,,,,,,,,,,,,,,
,,,,,,,,,,,,l,0.64,Incorrect,,,,,,t5.png,t5.png,0,0.97829,19,female,2020-09-27_16h38.56.360,torte-2b,2020.1.3,MacIntel,60,13237,,,,,,,,,,,,,,,,,,,,,,,,,,,,,,,,,,,,,0,101,101,73,1,,,,,,,,,,,,,,,,,,,,,,,,
,,,,,,,,,,,,a,0.573,Correct!,,,,,,t1.png,t2.png,1,0.90025,19,female,2020-09-27_16h38.56.360,torte-2b,2020.1.3,MacIntel,60,13237,,,,,,,,,,,,,,,,,,,,,,,,,,,,,,,,,,,,,0,102,102,112,1,,,,,,,,,,,,,,,,,,,,,,,,
,,,,,,,,,,,,l,0.757,Correct!,,,,,,t3.png,t5.png,2,0.056466,19,female,2020-09-27_16h38.56.360,torte-2b,2020.1.3,MacIntel,60,13237,,,,,,,,,,,,,,,,,,,,,,,,,,,,,,,,,,,,,0,103,103,44,1,,,,,,,,,,,,,,,,,,,,,,,,
,,,,,,,,,,,,a,0.618,Incorrect,,,,,,t1.png,t3.png,2,0.056466,19,female,2020-09-27_16h38.56.360,torte-2b,2020.1.3,MacIntel,60,13237,,,,,,,,,,,,,,,,,,,,,,,,,,,,,,,,,,,,,0,104,104,63,1,,,,,,,,,,,,,,,,,,,,,,,,
,,,,,,,,,,,,a,0.551,Correct!,,,,,,t3.png,t2.png,1,0.90855,19,female,2020-09-27_16h38.56.360,torte-2b,2020.1.3,MacIntel,60,13237,,,,,,,,,,,,,,,,,,,,,,,,,,,,,,,,,,,,,0,105,105,97,1,,,,,,,,,,,,,,,,,,,,,,,,
,,,,,,,,,,,,a,0.524,Correct!,,,,,,t2.png,t2.png,0,0.981,19,female,2020-09-27_16h38.56.360,torte-2b,2020.1.3,MacIntel,60,13237,,,,,,,,,,,,,,,,,,,,,,,,,,,,,,,,,,,,,0,106,106,101,1,,,,,,,,,,,,,,,,,,,,,,,,
,,,,,,,,,,,,l,0.638,Correct!,,,,,,t1.png,t3.png,2,0.056466,19,female,2020-09-27_16h38.56.360,torte-2b,2020.1.3,MacIntel,60,13237,,,,,,,,,,,,,,,,,,,,,,,,,,,,,,,,,,,,,0,107,107,87,1,,,,,,,,,,,,,,,,,,,,,,,,
,,,,,,,,,,,,a,0.625,Incorrect,,,,,,t4.png,t1.png,3,0.0000131,19,female,2020-09-27_16h38.56.360,torte-2b,2020.1.3,MacIntel,60,13237,,,,,,,,,,,,,,,,,,,,,,,,,,,,,,,,,,,,,0,108,108,93,1,,,,,,,,,,,,,,,,,,,,,,,,
,,,,,,,,,,,,l,0.607,Incorrect,,,,,,t1.png,t1.png,0,0.978,19,female,2020-09-27_16h38.56.360,torte-2b,2020.1.3,MacIntel,60,13237,,,,,,,,,,,,,,,,,,,,,,,,,,,,,,,,,,,,,0,109,109,54,1,,,,,,,,,,,,,,,,,,,,,,,,
,,,,,,,,,,,,a,1.103,Correct!,,,,,,t3.png,t2.png,1,0.909,19,female,2020-09-27_16h38.56.360,torte-2b,2020.1.3,MacIntel,60,13237,,,,,,,,,,,,,,,,,,,,,,,,,,,,,,,,,,,,,0,110,110,3,1,,,,,,,,,,,,,,,,,,,,,,,,
,,,,,,,,,,,,l,0.937,Correct!,,,,,,t5.png,t1.png,4,9.55E-11,19,female,2020-09-27_16h38.56.360,torte-2b,2020.1.3,MacIntel,60,13237,,,,,,,,,,,,,,,,,,,,,,,,,,,,,,,,,,,,,0,111,111,22,1,,,,,,,,,,,,,,,,,,,,,,,,
,,,,,,,,,,,,a,0.517,Correct!,,,,,,t4.png,t3.png,1,0.90855,19,female,2020-09-27_16h38.56.360,torte-2b,2020.1.3,MacIntel,60,13237,,,,,,,,,,,,,,,,,,,,,,,,,,,,,,,,,,,,,0,112,112,45,1,,,,,,,,,,,,,,,,,,,,,,,,
,,,,,,,,,,,,a,0.507,Incorrect,,,,,,t3.png,t5.png,2,0.056466,19,female,2020-09-27_16h38.56.360,torte-2b,2020.1.3,MacIntel,60,13237,,,,,,,,,,,,,,,,,,,,,,,,,,,,,,,,,,,,,0,113,113,6,1,,,,,,,,,,,,,,,,,,,,,,,,
,,,,,,,,,,,,l,0.682,Incorrect,,,,,,t3.png,t2.png,1,0.90855,19,female,2020-09-27_16h38.56.360,torte-2b,2020.1.3,MacIntel,60,13237,,,,,,,,,,,,,,,,,,,,,,,,,,,,,,,,,,,,,0,114,114,18,1,,,,,,,,,,,,,,,,,,,,,,,,
,,,,,,,,,,,,a,0.957,Incorrect,,,,,,t1.png,t5.png,4,9.55E-11,19,female,2020-09-27_16h38.56.360,torte-2b,2020.1.3,MacIntel,60,13237,,,,,,,,,,,,,,,,,,,,,,,,,,,,,,,,,,,,,0,115,115,41,1,,,,,,,,,,,,,,,,,,,,,,,,
,,,,,,,,,,,,a,1.139,Correct!,,,,,,t5.png,t4.png,1,0.90025,19,female,2020-09-27_16h38.56.360,torte-2b,2020.1.3,MacIntel,60,13237,,,,,,,,,,,,,,,,,,,,,,,,,,,,,,,,,,,,,0,116,116,27,1,,,,,,,,,,,,,,,,,,,,,,,,
,,,,,,,,,,,,a,0.773,Correct!,,,,,,t4.png,t3.png,1,0.909,19,female,2020-09-27_16h38.56.360,torte-2b,2020.1.3,MacIntel,60,13237,,,,,,,,,,,,,,,,,,,,,,,,,,,,,,,,,,,,,0,117,117,46,1,,,,,,,,,,,,,,,,,,,,,,,,
,,,,,,,,,,,,l,0.875,Correct!,,,,,,t3.png,t4.png,1,0.909,19,female,2020-09-27_16h38.56.360,torte-2b,2020.1.3,MacIntel,60,13237,,,,,,,,,,,,,,,,,,,,,,,,,,,,,,,,,,,,,0,118,118,106,1,,,,,,,,,,,,,,,,,,,,,,,,
,,,,,,,,,,,,a,0.582,Incorrect,,,,,,t4.png,t2.png,2,0.059078,19,female,2020-09-27_16h38.56.360,torte-2b,2020.1.3,MacIntel,60,13237,,,,,,,,,,,,,,,,,,,,,,,,,,,,,,,,,,,,,0,119,119,109,1,,,,,,,,,,,,,,,,,,,,,,,,
,,,,,,,,,,,,,,,,,,,,,,,,19,female,2020-09-27_16h38.56.360,torte-2b,2020.1.3,MacIntel,60,13237,space,1.671,,,,,,,,,,,,,,,,,,,,,,,,,,,,,,,,,,,,,,,,-10,177,1,0,0,s1,8,85,1,0,0,t1,176,-99,1,0,0,proceed,space,1.469,space,1.022,space,0.368
