key_resp_8.keys,key_resp_8.rt,key_resp_9.keys,key_resp_9.rt,key_resp_10.keys,key_resp_10.rt,key_resp_11.keys,key_resp_11.rt,key_resp_2.keys,key_resp_2.rt,key_resp_3.keys,key_resp_3.rt,key_resp.keys,key_resp.rt,Feedback,train.thisRepN,train.thisTrialN,train.thisN,train.thisIndex,train.ran,torta_sx,torta_dx,difference,probability,age,gender,date,expName,psychopyVersion,OS,frameRate,participant,key_resp_15.keys,key_resp_15.rt,key_resp_6.keys,key_resp_6.rt,test1.thisRepN,test1.thisTrialN,test1.thisN,test1.thisIndex,test1.ran,key_resp_4.keys,key_resp_4.rt,key_resp_5.keys,back1.thisRepN,back1.thisTrialN,back1.thisN,back1.thisIndex,back1.ran,letter,key_resp_5.rt,back2.thisRepN,back2.thisTrialN,back2.thisN,back2.thisIndex,back2.ran,back3.thisRepN,back3.thisTrialN,back3.thisN,back3.thisIndex,back3.ran,back4.thisRepN,back4.thisTrialN,back4.thisN,back4.thisIndex,back4.ran,key_resp_7.keys,key_resp_7.rt,test2.thisRepN,test2.thisTrialN,test2.thisN,test2.thisIndex,test2.ran,mouse.x,mouse.y,mouse.leftButton,mouse.midButton,mouse.rightButton,mouse.clicked_name,mouse_2.x,mouse_2.y,mouse_2.leftButton,mouse_2.midButton,mouse_2.rightButton,mouse_2.clicked_name,mouse_3.x,mouse_3.y,mouse_3.leftButton,mouse_3.midButton,mouse_3.rightButton,mouse_3.clicked_name,key_resp_12.keys,key_resp_12.rt,key_resp_13.keys,key_resp_13.rt,key_resp_14.keys,key_resp_14.rt
space,28.83412,space,10.403595,space,1.71566,space,1.83331,space,18.49313,space,29.4491,l,1.323945,Incorrect,0,0,0,96,1,t1.png,t1.png,0,0.97829,19,Female,2020-09-28_13h30.00.964,torte-2b,2020.1.3,MacIntel,60,13242,,,,,,,,,,,,,,,,,,,,,,,,,,,,,,,,,,,,,,,,,,,,,,,,,,,,,,,,,,,,,,,,,
,,,,,,,,,,,,l,1.083955,Correct!,0,1,1,14,1,t2.png,t4.png,2,0.059078,19,Female,2020-09-28_13h30.00.964,torte-2b,2020.1.3,MacIntel,60,13242,,,,,,,,,,,,,,,,,,,,,,,,,,,,,,,,,,,,,,,,,,,,,,,,,,,,,,,,,,,,,,,,,
,,,,,,,,,,,,l,1.150545,Incorrect,0,2,2,100,1,t4.png,t5.png,1,0.90025,19,Female,2020-09-28_13h30.00.964,torte-2b,2020.1.3,MacIntel,60,13242,,,,,,,,,,,,,,,,,,,,,,,,,,,,,,,,,,,,,,,,,,,,,,,,,,,,,,,,,,,,,,,,,
,,,,,,,,,,,,l,0.717195,Correct!,0,3,3,90,1,t1.png,t5.png,4,9.55E-11,19,Female,2020-09-28_13h30.00.964,torte-2b,2020.1.3,MacIntel,60,13242,,,,,,,,,,,,,,,,,,,,,,,,,,,,,,,,,,,,,,,,,,,,,,,,,,,,,,,,,,,,,,,,,
,,,,,,,,,,,,a,0.81752,Incorrect,0,4,4,26,1,t4.png,t2.png,2,0.0591,19,Female,2020-09-28_13h30.00.964,torte-2b,2020.1.3,MacIntel,60,13242,,,,,,,,,,,,,,,,,,,,,,,,,,,,,,,,,,,,,,,,,,,,,,,,,,,,,,,,,,,,,,,,,
,,,,,,,,,,,,l,0.350475,Incorrect,0,5,5,8,1,t3.png,t2.png,1,0.90855,19,Female,2020-09-28_13h30.00.964,torte-2b,2020.1.3,MacIntel,60,13242,,,,,,,,,,,,,,,,,,,,,,,,,,,,,,,,,,,,,,,,,,,,,,,,,,,,,,,,,,,,,,,,,
,,,,,,,,,,,,a,1.05076,Correct!,0,6,6,2,1,t3.png,t2.png,1,0.90855,19,Female,2020-09-28_13h30.00.964,torte-2b,2020.1.3,MacIntel,60,13242,,,,,,,,,,,,,,,,,,,,,,,,,,,,,,,,,,,,,,,,,,,,,,,,,,,,,,,,,,,,,,,,,
,,,,,,,,,,,,a,1.220375,Correct!,0,7,7,48,1,t5.png,t5.png,0,0.97829,19,Female,2020-09-28_13h30.00.964,torte-2b,2020.1.3,MacIntel,60,13242,,,,,,,,,,,,,,,,,,,,,,,,,,,,,,,,,,,,,,,,,,,,,,,,,,,,,,,,,,,,,,,,,
,,,,,,,,,,,,l,0.968135,Incorrect,0,8,8,112,1,t1.png,t1.png,0,0.97829,19,Female,2020-09-28_13h30.00.964,torte-2b,2020.1.3,MacIntel,60,13242,,,,,,,,,,,,,,,,,,,,,,,,,,,,,,,,,,,,,,,,,,,,,,,,,,,,,,,,,,,,,,,,,
,,,,,,,,,,,,a,0.58367,Incorrect,0,9,9,88,1,t3.png,t1.png,2,0.056466,19,Female,2020-09-28_13h30.00.964,torte-2b,2020.1.3,MacIntel,60,13242,,,,,,,,,,,,,,,,,,,,,,,,,,,,,,,,,,,,,,,,,,,,,,,,,,,,,,,,,,,,,,,,,
,,,,,,,,,,,,l,1.868255,Correct!,0,10,10,102,1,t4.png,t2.png,2,0.059078,19,Female,2020-09-28_13h30.00.964,torte-2b,2020.1.3,MacIntel,60,13242,,,,,,,,,,,,,,,,,,,,,,,,,,,,,,,,,,,,,,,,,,,,,,,,,,,,,,,,,,,,,,,,,
,,,,,,,,,,,,l,1.01728,Correct!,0,11,11,53,1,t3.png,t1.png,2,0.056466,19,Female,2020-09-28_13h30.00.964,torte-2b,2020.1.3,MacIntel,60,13242,,,,,,,,,,,,,,,,,,,,,,,,,,,,,,,,,,,,,,,,,,,,,,,,,,,,,,,,,,,,,,,,,
,,,,,,,,,,,,l,1.037255,Correct!,0,12,12,28,1,t2.png,t3.png,1,0.909,19,Female,2020-09-28_13h30.00.964,torte-2b,2020.1.3,MacIntel,60,13242,,,,,,,,,,,,,,,,,,,,,,,,,,,,,,,,,,,,,,,,,,,,,,,,,,,,,,,,,,,,,,,,,
,,,,,,,,,,,,l,0.91915,Incorrect,0,13,13,44,1,t2.png,t3.png,1,0.909,19,Female,2020-09-28_13h30.00.964,torte-2b,2020.1.3,MacIntel,60,13242,,,,,,,,,,,,,,,,,,,,,,,,,,,,,,,,,,,,,,,,,,,,,,,,,,,,,,,,,,,,,,,,,
,,,,,,,,,,,,a,1.334295,Incorrect,0,14,14,103,1,t3.png,t1.png,2,0.056466,19,Female,2020-09-28_13h30.00.964,torte-2b,2020.1.3,MacIntel,60,13242,,,,,,,,,,,,,,,,,,,,,,,,,,,,,,,,,,,,,,,,,,,,,,,,,,,,,,,,,,,,,,,,,
,,,,,,,,,,,,l,1.220535,Correct!,0,15,15,74,1,t5.png,t4.png,1,0.9,19,Female,2020-09-28_13h30.00.964,torte-2b,2020.1.3,MacIntel,60,13242,,,,,,,,,,,,,,,,,,,,,,,,,,,,,,,,,,,,,,,,,,,,,,,,,,,,,,,,,,,,,,,,,
,,,,,,,,,,,,a,1.38448,Correct!,0,16,16,21,1,t5.png,t4.png,1,0.90025,19,Female,2020-09-28_13h30.00.964,torte-2b,2020.1.3,MacIntel,60,13242,,,,,,,,,,,,,,,,,,,,,,,,,,,,,,,,,,,,,,,,,,,,,,,,,,,,,,,,,,,,,,,,,
,,,,,,,,,,,,a,0.556675,Incorrect,0,17,17,111,1,t5.png,t1.png,4,9.55E-11,19,Female,2020-09-28_13h30.00.964,torte-2b,2020.1.3,MacIntel,60,13242,,,,,,,,,,,,,,,,,,,,,,,,,,,,,,,,,,,,,,,,,,,,,,,,,,,,,,,,,,,,,,,,,
,,,,,,,,,,,,l,0.51689,Correct!,0,18,18,68,1,t1.png,t4.png,3,0.0000131,19,Female,2020-09-28_13h30.00.964,torte-2b,2020.1.3,MacIntel,60,13242,,,,,,,,,,,,,,,,,,,,,,,,,,,,,,,,,,,,,,,,,,,,,,,,,,,,,,,,,,,,,,,,,
,,,,,,,,,,,,l,0.83391,Incorrect,0,19,19,118,1,t5.png,t5.png,0,0.978,19,Female,2020-09-28_13h30.00.964,torte-2b,2020.1.3,MacIntel,60,13242,,,,,,,,,,,,,,,,,,,,,,,,,,,,,,,,,,,,,,,,,,,,,,,,,,,,,,,,,,,,,,,,,
,,,,,,,,,,,,l,0.850635,Incorrect,0,20,20,106,1,t2.png,t3.png,1,0.90855,19,Female,2020-09-28_13h30.00.964,torte-2b,2020.1.3,MacIntel,60,13242,,,,,,,,,,,,,,,,,,,,,,,,,,,,,,,,,,,,,,,,,,,,,,,,,,,,,,,,,,,,,,,,,
,,,,,,,,,,,,l,0.25301,Correct!,0,21,21,43,1,t4.png,t2.png,2,0.059078,19,Female,2020-09-28_13h30.00.964,torte-2b,2020.1.3,MacIntel,60,13242,,,,,,,,,,,,,,,,,,,,,,,,,,,,,,,,,,,,,,,,,,,,,,,,,,,,,,,,,,,,,,,,,
,,,,,,,,,,,,a,0.26649,Correct!,0,22,22,109,1,t5.png,t5.png,0,0.97829,19,Female,2020-09-28_13h30.00.964,torte-2b,2020.1.3,MacIntel,60,13242,,,,,,,,,,,,,,,,,,,,,,,,,,,,,,,,,,,,,,,,,,,,,,,,,,,,,,,,,,,,,,,,,
,,,,,,,,,,,,l,0.301155,Incorrect,0,23,23,42,1,t5.png,t4.png,1,0.90025,19,Female,2020-09-28_13h30.00.964,torte-2b,2020.1.3,MacIntel,60,13242,,,,,,,,,,,,,,,,,,,,,,,,,,,,,,,,,,,,,,,,,,,,,,,,,,,,,,,,,,,,,,,,,
,,,,,,,,,,,,l,0.8536,Incorrect,0,24,24,10,1,t2.png,t3.png,1,0.90855,19,Female,2020-09-28_13h30.00.964,torte-2b,2020.1.3,MacIntel,60,13242,,,,,,,,,,,,,,,,,,,,,,,,,,,,,,,,,,,,,,,,,,,,,,,,,,,,,,,,,,,,,,,,,
,,,,,,,,,,,,a,0.36862,Correct!,0,25,25,41,1,t3.png,t2.png,1,0.90855,19,Female,2020-09-28_13h30.00.964,torte-2b,2020.1.3,MacIntel,60,13242,,,,,,,,,,,,,,,,,,,,,,,,,,,,,,,,,,,,,,,,,,,,,,,,,,,,,,,,,,,,,,,,,
,,,,,,,,,,,,l,1.150425,Correct!,0,26,26,15,1,t3.png,t2.png,1,0.90855,19,Female,2020-09-28_13h30.00.964,torte-2b,2020.1.3,MacIntel,60,13242,,,,,,,,,,,,,,,,,,,,,,,,,,,,,,,,,,,,,,,,,,,,,,,,,,,,,,,,,,,,,,,,,
,,,,,,,,,,,,a,0.784275,Incorrect,0,27,27,46,1,t4.png,t2.png,2,0.059078,19,Female,2020-09-28_13h30.00.964,torte-2b,2020.1.3,MacIntel,60,13242,,,,,,,,,,,,,,,,,,,,,,,,,,,,,,,,,,,,,,,,,,,,,,,,,,,,,,,,,,,,,,,,,
,,,,,,,,,,,,a,1.30199,Correct!,0,28,28,113,1,t5.png,t4.png,1,0.9,19,Female,2020-09-28_13h30.00.964,torte-2b,2020.1.3,MacIntel,60,13242,,,,,,,,,,,,,,,,,,,,,,,,,,,,,,,,,,,,,,,,,,,,,,,,,,,,,,,,,,,,,,,,,
,,,,,,,,,,,,l,0.369565,Incorrect,0,29,29,25,1,t5.png,t5.png,0,0.97829,19,Female,2020-09-28_13h30.00.964,torte-2b,2020.1.3,MacIntel,60,13242,,,,,,,,,,,,,,,,,,,,,,,,,,,,,,,,,,,,,,,,,,,,,,,,,,,,,,,,,,,,,,,,,
,,,,,,,,,,,,l,0.51377,Correct!,0,30,30,19,1,t4.png,t2.png,2,0.059078,19,Female,2020-09-28_13h30.00.964,torte-2b,2020.1.3,MacIntel,60,13242,,,,,,,,,,,,,,,,,,,,,,,,,,,,,,,,,,,,,,,,,,,,,,,,,,,,,,,,,,,,,,,,,
,,,,,,,,,,,,a,0.01966,Correct!,0,31,31,70,1,t5.png,t5.png,0,0.978,19,Female,2020-09-28_13h30.00.964,torte-2b,2020.1.3,MacIntel,60,13242,,,,,,,,,,,,,,,,,,,,,,,,,,,,,,,,,,,,,,,,,,,,,,,,,,,,,,,,,,,,,,,,,
,,,,,,,,,,,,l,0.367045,Incorrect,0,32,32,45,1,t3.png,t2.png,1,0.90855,19,Female,2020-09-28_13h30.00.964,torte-2b,2020.1.3,MacIntel,60,13242,,,,,,,,,,,,,,,,,,,,,,,,,,,,,,,,,,,,,,,,,,,,,,,,,,,,,,,,,,,,,,,,,
,,,,,,,,,,,,a,0.352735,Incorrect,0,33,33,83,1,t3.png,t1.png,2,0.056466,19,Female,2020-09-28_13h30.00.964,torte-2b,2020.1.3,MacIntel,60,13242,,,,,,,,,,,,,,,,,,,,,,,,,,,,,,,,,,,,,,,,,,,,,,,,,,,,,,,,,,,,,,,,,
,,,,,,,,,,,,a,0.32078,Correct!,0,34,34,79,1,t3.png,t2.png,1,0.909,19,Female,2020-09-28_13h30.00.964,torte-2b,2020.1.3,MacIntel,60,13242,,,,,,,,,,,,,,,,,,,,,,,,,,,,,,,,,,,,,,,,,,,,,,,,,,,,,,,,,,,,,,,,,
,,,,,,,,,,,,a,1.101075,Incorrect,0,35,35,36,1,t3.png,t1.png,2,0.0565,19,Female,2020-09-28_13h30.00.964,torte-2b,2020.1.3,MacIntel,60,13242,,,,,,,,,,,,,,,,,,,,,,,,,,,,,,,,,,,,,,,,,,,,,,,,,,,,,,,,,,,,,,,,,
,,,,,,,,,,,,l,1.16809,Correct!,0,36,36,67,1,t1.png,t5.png,4,9.55E-11,19,Female,2020-09-28_13h30.00.964,torte-2b,2020.1.3,MacIntel,60,13242,,,,,,,,,,,,,,,,,,,,,,,,,,,,,,,,,,,,,,,,,,,,,,,,,,,,,,,,,,,,,,,,,
,,,,,,,,,,,,a,1.418685,Incorrect,0,37,37,47,1,t4.png,t2.png,2,0.059078,19,Female,2020-09-28_13h30.00.964,torte-2b,2020.1.3,MacIntel,60,13242,,,,,,,,,,,,,,,,,,,,,,,,,,,,,,,,,,,,,,,,,,,,,,,,,,,,,,,,,,,,,,,,,
,,,,,,,,,,,,l,0.400395,Correct!,0,38,38,91,1,t1.png,t4.png,3,0.0000131,19,Female,2020-09-28_13h30.00.964,torte-2b,2020.1.3,MacIntel,60,13242,,,,,,,,,,,,,,,,,,,,,,,,,,,,,,,,,,,,,,,,,,,,,,,,,,,,,,,,,,,,,,,,,
,,,,,,,,,,,,l,0.484535,Incorrect,0,39,39,76,1,t3.png,t2.png,1,0.90855,19,Female,2020-09-28_13h30.00.964,torte-2b,2020.1.3,MacIntel,60,13242,,,,,,,,,,,,,,,,,,,,,,,,,,,,,,,,,,,,,,,,,,,,,,,,,,,,,,,,,,,,,,,,,
,,,,,,,,,,,,a,0.817525,Incorrect,0,40,40,35,1,t1.png,t4.png,3,0.0000131,19,Female,2020-09-28_13h30.00.964,torte-2b,2020.1.3,MacIntel,60,13242,,,,,,,,,,,,,,,,,,,,,,,,,,,,,,,,,,,,,,,,,,,,,,,,,,,,,,,,,,,,,,,,,
,,,,,,,,,,,,l,0.60034,Correct!,0,41,41,99,1,t1.png,t5.png,4,9.55E-11,19,Female,2020-09-28_13h30.00.964,torte-2b,2020.1.3,MacIntel,60,13242,,,,,,,,,,,,,,,,,,,,,,,,,,,,,,,,,,,,,,,,,,,,,,,,,,,,,,,,,,,,,,,,,
,,,,,,,,,,,,l,0.434345,Correct!,0,42,42,37,1,t1.png,t4.png,3,0.0000131,19,Female,2020-09-28_13h30.00.964,torte-2b,2020.1.3,MacIntel,60,13242,,,,,,,,,,,,,,,,,,,,,,,,,,,,,,,,,,,,,,,,,,,,,,,,,,,,,,,,,,,,,,,,,
,,,,,,,,,,,,a,0.61826,Incorrect,0,43,43,12,1,t5.png,t1.png,4,9.55E-11,19,Female,2020-09-28_13h30.00.964,torte-2b,2020.1.3,MacIntel,60,13242,,,,,,,,,,,,,,,,,,,,,,,,,,,,,,,,,,,,,,,,,,,,,,,,,,,,,,,,,,,,,,,,,
,,,,,,,,,,,,l,0.316545,Incorrect,0,44,44,34,1,t5.png,t4.png,1,0.9,19,Female,2020-09-28_13h30.00.964,torte-2b,2020.1.3,MacIntel,60,13242,,,,,,,,,,,,,,,,,,,,,,,,,,,,,,,,,,,,,,,,,,,,,,,,,,,,,,,,,,,,,,,,,
,,,,,,,,,,,,l,0.6851,Correct!,0,45,45,40,1,t1.png,t5.png,4,9.55E-11,19,Female,2020-09-28_13h30.00.964,torte-2b,2020.1.3,MacIntel,60,13242,,,,,,,,,,,,,,,,,,,,,,,,,,,,,,,,,,,,,,,,,,,,,,,,,,,,,,,,,,,,,,,,,
,,,,,,,,,,,,a,0.783585,Incorrect,0,46,46,108,1,t5.png,t1.png,4,9.55E-11,19,Female,2020-09-28_13h30.00.964,torte-2b,2020.1.3,MacIntel,60,13242,,,,,,,,,,,,,,,,,,,,,,,,,,,,,,,,,,,,,,,,,,,,,,,,,,,,,,,,,,,,,,,,,
,,,,,,,,,,,,l,0.334665,Correct!,0,47,47,72,1,t4.png,t2.png,2,0.059078,19,Female,2020-09-28_13h30.00.964,torte-2b,2020.1.3,MacIntel,60,13242,,,,,,,,,,,,,,,,,,,,,,,,,,,,,,,,,,,,,,,,,,,,,,,,,,,,,,,,,,,,,,,,,
,,,,,,,,,,,,l,1.08374,Incorrect,0,48,48,81,1,t1.png,t1.png,0,0.97829,19,Female,2020-09-28_13h30.00.964,torte-2b,2020.1.3,MacIntel,60,13242,,,,,,,,,,,,,,,,,,,,,,,,,,,,,,,,,,,,,,,,,,,,,,,,,,,,,,,,,,,,,,,,,
,,,,,,,,,,,,a,1.98349,Correct!,0,49,49,52,1,t2.png,t4.png,2,0.059078,19,Female,2020-09-28_13h30.00.964,torte-2b,2020.1.3,MacIntel,60,13242,,,,,,,,,,,,,,,,,,,,,,,,,,,,,,,,,,,,,,,,,,,,,,,,,,,,,,,,,,,,,,,,,
,,,,,,,,,,,,l,1.7514,Incorrect,0,50,50,18,1,t4.png,t5.png,1,0.90025,19,Female,2020-09-28_13h30.00.964,torte-2b,2020.1.3,MacIntel,60,13242,,,,,,,,,,,,,,,,,,,,,,,,,,,,,,,,,,,,,,,,,,,,,,,,,,,,,,,,,,,,,,,,,
,,,,,,,,,,,,a,1.285345,Correct!,0,51,51,49,1,t4.png,t5.png,1,0.9,19,Female,2020-09-28_13h30.00.964,torte-2b,2020.1.3,MacIntel,60,13242,,,,,,,,,,,,,,,,,,,,,,,,,,,,,,,,,,,,,,,,,,,,,,,,,,,,,,,,,,,,,,,,,
,,,,,,,,,,,,l,0.836835,Incorrect,0,52,52,95,1,t1.png,t1.png,0,0.978,19,Female,2020-09-28_13h30.00.964,torte-2b,2020.1.3,MacIntel,60,13242,,,,,,,,,,,,,,,,,,,,,,,,,,,,,,,,,,,,,,,,,,,,,,,,,,,,,,,,,,,,,,,,,
,,,,,,,,,,,,a,0.58326,Correct!,0,53,53,77,1,t1.png,t1.png,0,0.97829,19,Female,2020-09-28_13h30.00.964,torte-2b,2020.1.3,MacIntel,60,13242,,,,,,,,,,,,,,,,,,,,,,,,,,,,,,,,,,,,,,,,,,,,,,,,,,,,,,,,,,,,,,,,,
,,,,,,,,,,,,l,0.650915,Correct!,0,54,54,117,1,t1.png,t5.png,4,9.55E-11,19,Female,2020-09-28_13h30.00.964,torte-2b,2020.1.3,MacIntel,60,13242,,,,,,,,,,,,,,,,,,,,,,,,,,,,,,,,,,,,,,,,,,,,,,,,,,,,,,,,,,,,,,,,,
,,,,,,,,,,,,l,0.83479,Correct!,0,55,55,87,1,t5.png,t1.png,4,9.55E-11,19,Female,2020-09-28_13h30.00.964,torte-2b,2020.1.3,MacIntel,60,13242,,,,,,,,,,,,,,,,,,,,,,,,,,,,,,,,,,,,,,,,,,,,,,,,,,,,,,,,,,,,,,,,,
,,,,,,,,,,,,a,1.35448,Correct!,0,56,56,9,1,t4.png,t5.png,1,0.9,19,Female,2020-09-28_13h30.00.964,torte-2b,2020.1.3,MacIntel,60,13242,,,,,,,,,,,,,,,,,,,,,,,,,,,,,,,,,,,,,,,,,,,,,,,,,,,,,,,,,,,,,,,,,
,,,,,,,,,,,,l,1.469125,Correct!,0,57,57,38,1,t3.png,t1.png,2,0.056466,19,Female,2020-09-28_13h30.00.964,torte-2b,2020.1.3,MacIntel,60,13242,,,,,,,,,,,,,,,,,,,,,,,,,,,,,,,,,,,,,,,,,,,,,,,,,,,,,,,,,,,,,,,,,
,,,,,,,,,,,,a,0.985285,Correct!,0,58,58,64,1,t1.png,t1.png,0,0.978,19,Female,2020-09-28_13h30.00.964,torte-2b,2020.1.3,MacIntel,60,13242,,,,,,,,,,,,,,,,,,,,,,,,,,,,,,,,,,,,,,,,,,,,,,,,,,,,,,,,,,,,,,,,,
,,,,,,,,,,,,a,1.254015,Correct!,0,59,59,65,1,t4.png,t5.png,1,0.90025,19,Female,2020-09-28_13h30.00.964,torte-2b,2020.1.3,MacIntel,60,13242,,,,,,,,,,,,,,,,,,,,,,,,,,,,,,,,,,,,,,,,,,,,,,,,,,,,,,,,,,,,,,,,,
,,,,,,,,,,,,l,1.531955,Correct!,0,60,60,82,1,t5.png,t1.png,4,9.55E-11,19,Female,2020-09-28_13h30.00.964,torte-2b,2020.1.3,MacIntel,60,13242,,,,,,,,,,,,,,,,,,,,,,,,,,,,,,,,,,,,,,,,,,,,,,,,,,,,,,,,,,,,,,,,,
,,,,,,,,,,,,a,1.000355,Incorrect,0,61,61,61,1,t1.png,t4.png,3,0.0000131,19,Female,2020-09-28_13h30.00.964,torte-2b,2020.1.3,MacIntel,60,13242,,,,,,,,,,,,,,,,,,,,,,,,,,,,,,,,,,,,,,,,,,,,,,,,,,,,,,,,,,,,,,,,,
,,,,,,,,,,,,l,1.202385,Incorrect,0,62,62,13,1,t5.png,t5.png,0,0.97829,19,Female,2020-09-28_13h30.00.964,torte-2b,2020.1.3,MacIntel,60,13242,,,,,,,,,,,,,,,,,,,,,,,,,,,,,,,,,,,,,,,,,,,,,,,,,,,,,,,,,,,,,,,,,
,,,,,,,,,,,,l,1.618115,Correct!,0,63,63,50,1,t5.png,t1.png,4,9.55E-11,19,Female,2020-09-28_13h30.00.964,torte-2b,2020.1.3,MacIntel,60,13242,,,,,,,,,,,,,,,,,,,,,,,,,,,,,,,,,,,,,,,,,,,,,,,,,,,,,,,,,,,,,,,,,
,,,,,,,,,,,,l,1.06812,Correct!,0,64,64,16,1,t5.png,t4.png,1,0.9,19,Female,2020-09-28_13h30.00.964,torte-2b,2020.1.3,MacIntel,60,13242,,,,,,,,,,,,,,,,,,,,,,,,,,,,,,,,,,,,,,,,,,,,,,,,,,,,,,,,,,,,,,,,,
,,,,,,,,,,,,l,1.034785,Incorrect,0,65,65,23,1,t5.png,t4.png,1,0.90025,19,Female,2020-09-28_13h30.00.964,torte-2b,2020.1.3,MacIntel,60,13242,,,,,,,,,,,,,,,,,,,,,,,,,,,,,,,,,,,,,,,,,,,,,,,,,,,,,,,,,,,,,,,,,
,,,,,,,,,,,,a,1.565355,Correct!,0,66,66,97,1,t5.png,t5.png,0,0.97829,19,Female,2020-09-28_13h30.00.964,torte-2b,2020.1.3,MacIntel,60,13242,,,,,,,,,,,,,,,,,,,,,,,,,,,,,,,,,,,,,,,,,,,,,,,,,,,,,,,,,,,,,,,,,
,,,,,,,,,,,,a,0.93257,Incorrect,0,67,67,98,1,t2.png,t4.png,2,0.0591,19,Female,2020-09-28_13h30.00.964,torte-2b,2020.1.3,MacIntel,60,13242,,,,,,,,,,,,,,,,,,,,,,,,,,,,,,,,,,,,,,,,,,,,,,,,,,,,,,,,,,,,,,,,,
,,,,,,,,,,,,l,0.70292,Correct!,0,68,68,73,1,t4.png,t2.png,2,0.059078,19,Female,2020-09-28_13h30.00.964,torte-2b,2020.1.3,MacIntel,60,13242,,,,,,,,,,,,,,,,,,,,,,,,,,,,,,,,,,,,,,,,,,,,,,,,,,,,,,,,,,,,,,,,,
,,,,,,,,,,,,l,2.26876,Incorrect,0,69,69,32,1,t4.png,t5.png,1,0.90025,19,Female,2020-09-28_13h30.00.964,torte-2b,2020.1.3,MacIntel,60,13242,,,,,,,,,,,,,,,,,,,,,,,,,,,,,,,,,,,,,,,,,,,,,,,,,,,,,,,,,,,,,,,,,
,,,,,,,,,,,,a,0.63757,Incorrect,0,70,70,54,1,t1.png,t5.png,4,9.55E-11,19,Female,2020-09-28_13h30.00.964,torte-2b,2020.1.3,MacIntel,60,13242,,,,,,,,,,,,,,,,,,,,,,,,,,,,,,,,,,,,,,,,,,,,,,,,,,,,,,,,,,,,,,,,,
,,,,,,,,,,,,a,0.93856,Incorrect,0,71,71,1,1,t2.png,t4.png,2,0.059078,19,Female,2020-09-28_13h30.00.964,torte-2b,2020.1.3,MacIntel,60,13242,,,,,,,,,,,,,,,,,,,,,,,,,,,,,,,,,,,,,,,,,,,,,,,,,,,,,,,,,,,,,,,,,
,,,,,,,,,,,,l,0.318135,Incorrect,0,72,72,105,1,t3.png,t2.png,1,0.90855,19,Female,2020-09-28_13h30.00.964,torte-2b,2020.1.3,MacIntel,60,13242,,,,,,,,,,,,,,,,,,,,,,,,,,,,,,,,,,,,,,,,,,,,,,,,,,,,,,,,,,,,,,,,,
,,,,,,,,,,,,l,0.65078,Incorrect,0,73,73,29,1,t5.png,t5.png,0,0.97829,19,Female,2020-09-28_13h30.00.964,torte-2b,2020.1.3,MacIntel,60,13242,,,,,,,,,,,,,,,,,,,,,,,,,,,,,,,,,,,,,,,,,,,,,,,,,,,,,,,,,,,,,,,,,
,,,,,,,,,,,,a,0.567,Correct!,0,74,74,7,1,t4.png,t5.png,1,0.90025,19,Female,2020-09-28_13h30.00.964,torte-2b,2020.1.3,MacIntel,60,13242,,,,,,,,,,,,,,,,,,,,,,,,,,,,,,,,,,,,,,,,,,,,,,,,,,,,,,,,,,,,,,,,,
,,,,,,,,,,,,l,0.501695,Incorrect,0,75,75,78,1,t1.png,t1.png,0,0.978,19,Female,2020-09-28_13h30.00.964,torte-2b,2020.1.3,MacIntel,60,13242,,,,,,,,,,,,,,,,,,,,,,,,,,,,,,,,,,,,,,,,,,,,,,,,,,,,,,,,,,,,,,,,,
,,,,,,,,,,,,a,0.43458,Incorrect,0,76,76,115,1,t2.png,t4.png,2,0.059078,19,Female,2020-09-28_13h30.00.964,torte-2b,2020.1.3,MacIntel,60,13242,,,,,,,,,,,,,,,,,,,,,,,,,,,,,,,,,,,,,,,,,,,,,,,,,,,,,,,,,,,,,,,,,
,,,,,,,,,,,,l,1.101715,Correct!,0,77,77,5,1,t2.png,t4.png,2,0.059078,19,Female,2020-09-28_13h30.00.964,torte-2b,2020.1.3,MacIntel,60,13242,,,,,,,,,,,,,,,,,,,,,,,,,,,,,,,,,,,,,,,,,,,,,,,,,,,,,,,,,,,,,,,,,
,,,,,,,,,,,,l,0.954645,Correct!,0,78,78,80,1,t1.png,t4.png,3,0.0000131,19,Female,2020-09-28_13h30.00.964,torte-2b,2020.1.3,MacIntel,60,13242,,,,,,,,,,,,,,,,,,,,,,,,,,,,,,,,,,,,,,,,,,,,,,,,,,,,,,,,,,,,,,,,,
,,,,,,,,,,,,a,0.71764,Incorrect,0,79,79,6,1,t1.png,t4.png,3,0.0000131,19,Female,2020-09-28_13h30.00.964,torte-2b,2020.1.3,MacIntel,60,13242,,,,,,,,,,,,,,,,,,,,,,,,,,,,,,,,,,,,,,,,,,,,,,,,,,,,,,,,,,,,,,,,,
,,,,,,,,,,,,l,0.286585,Incorrect,0,80,80,62,1,t5.png,t5.png,0,0.978,19,Female,2020-09-28_13h30.00.964,torte-2b,2020.1.3,MacIntel,60,13242,,,,,,,,,,,,,,,,,,,,,,,,,,,,,,,,,,,,,,,,,,,,,,,,,,,,,,,,,,,,,,,,,
,,,,,,,,,,,,l,0.86871,Correct!,0,81,81,69,1,t4.png,t2.png,2,0.059078,19,Female,2020-09-28_13h30.00.964,torte-2b,2020.1.3,MacIntel,60,13242,,,,,,,,,,,,,,,,,,,,,,,,,,,,,,,,,,,,,,,,,,,,,,,,,,,,,,,,,,,,,,,,,
,,,,,,,,,,,,l,0.587765,Incorrect,0,82,82,63,1,t2.png,t3.png,1,0.909,19,Female,2020-09-28_13h30.00.964,torte-2b,2020.1.3,MacIntel,60,13242,,,,,,,,,,,,,,,,,,,,,,,,,,,,,,,,,,,,,,,,,,,,,,,,,,,,,,,,,,,,,,,,,
,,,,,,,,,,,,a,0.41999,Correct!,0,83,83,71,1,t5.png,t5.png,0,0.97829,19,Female,2020-09-28_13h30.00.964,torte-2b,2020.1.3,MacIntel,60,13242,,,,,,,,,,,,,,,,,,,,,,,,,,,,,,,,,,,,,,,,,,,,,,,,,,,,,,,,,,,,,,,,,
,,,,,,,,,,,,l,0.31622,Correct!,0,84,84,101,1,t4.png,t5.png,1,0.90025,19,Female,2020-09-28_13h30.00.964,torte-2b,2020.1.3,MacIntel,60,13242,,,,,,,,,,,,,,,,,,,,,,,,,,,,,,,,,,,,,,,,,,,,,,,,,,,,,,,,,,,,,,,,,
,,,,,,,,,,,,a,0.650725,Incorrect,0,85,85,24,1,t4.png,t2.png,2,0.059078,19,Female,2020-09-28_13h30.00.964,torte-2b,2020.1.3,MacIntel,60,13242,,,,,,,,,,,,,,,,,,,,,,,,,,,,,,,,,,,,,,,,,,,,,,,,,,,,,,,,,,,,,,,,,
,,,,,,,,,,,,l,0.266455,Correct!,0,86,86,55,1,t2.png,t4.png,2,0.059078,19,Female,2020-09-28_13h30.00.964,torte-2b,2020.1.3,MacIntel,60,13242,,,,,,,,,,,,,,,,,,,,,,,,,,,,,,,,,,,,,,,,,,,,,,,,,,,,,,,,,,,,,,,,,
,,,,,,,,,,,,a,1.05131,Correct!,0,87,87,84,1,t1.png,t1.png,0,0.97829,19,Female,2020-09-28_13h30.00.964,torte-2b,2020.1.3,MacIntel,60,13242,,,,,,,,,,,,,,,,,,,,,,,,,,,,,,,,,,,,,,,,,,,,,,,,,,,,,,,,,,,,,,,,,
,,,,,,,,,,,,l,0.301515,Incorrect,0,88,88,39,1,t3.png,t2.png,1,0.90855,19,Female,2020-09-28_13h30.00.964,torte-2b,2020.1.3,MacIntel,60,13242,,,,,,,,,,,,,,,,,,,,,,,,,,,,,,,,,,,,,,,,,,,,,,,,,,,,,,,,,,,,,,,,,
,,,,,,,,,,,,a,0.266275,Correct!,0,89,89,114,1,t2.png,t3.png,1,0.90855,19,Female,2020-09-28_13h30.00.964,torte-2b,2020.1.3,MacIntel,60,13242,,,,,,,,,,,,,,,,,,,,,,,,,,,,,,,,,,,,,,,,,,,,,,,,,,,,,,,,,,,,,,,,,
,,,,,,,,,,,,a,0.752155,Correct!,0,90,90,92,1,t2.png,t3.png,1,0.909,19,Female,2020-09-28_13h30.00.964,torte-2b,2020.1.3,MacIntel,60,13242,,,,,,,,,,,,,,,,,,,,,,,,,,,,,,,,,,,,,,,,,,,,,,,,,,,,,,,,,,,,,,,,,
,,,,,,,,,,,,l,0.299915,Correct!,0,91,91,11,1,t1.png,t4.png,3,0.0000131,19,Female,2020-09-28_13h30.00.964,torte-2b,2020.1.3,MacIntel,60,13242,,,,,,,,,,,,,,,,,,,,,,,,,,,,,,,,,,,,,,,,,,,,,,,,,,,,,,,,,,,,,,,,,
,,,,,,,,,,,,a,0.317615,Correct!,0,92,92,116,1,t5.png,t4.png,1,0.90025,19,Female,2020-09-28_13h30.00.964,torte-2b,2020.1.3,MacIntel,60,13242,,,,,,,,,,,,,,,,,,,,,,,,,,,,,,,,,,,,,,,,,,,,,,,,,,,,,,,,,,,,,,,,,
,,,,,,,,,,,,l,0.318195,Correct!,0,93,93,93,1,t2.png,t4.png,2,0.059078,19,Female,2020-09-28_13h30.00.964,torte-2b,2020.1.3,MacIntel,60,13242,,,,,,,,,,,,,,,,,,,,,,,,,,,,,,,,,,,,,,,,,,,,,,,,,,,,,,,,,,,,,,,,,
,,,,,,,,,,,,a,0.533975,Incorrect,0,94,94,0,1,t5.png,t1.png,4,9.55E-11,19,Female,2020-09-28_13h30.00.964,torte-2b,2020.1.3,MacIntel,60,13242,,,,,,,,,,,,,,,,,,,,,,,,,,,,,,,,,,,,,,,,,,,,,,,,,,,,,,,,,,,,,,,,,
,,,,,,,,,,,,l,0.30291,Incorrect,0,95,95,107,1,t1.png,t1.png,0,0.978,19,Female,2020-09-28_13h30.00.964,torte-2b,2020.1.3,MacIntel,60,13242,,,,,,,,,,,,,,,,,,,,,,,,,,,,,,,,,,,,,,,,,,,,,,,,,,,,,,,,,,,,,,,,,
,,,,,,,,,,,,a,0.382775,Correct!,0,96,96,104,1,t2.png,t3.png,1,0.90855,19,Female,2020-09-28_13h30.00.964,torte-2b,2020.1.3,MacIntel,60,13242,,,,,,,,,,,,,,,,,,,,,,,,,,,,,,,,,,,,,,,,,,,,,,,,,,,,,,,,,,,,,,,,,
,,,,,,,,,,,,a,1.050215,Correct!,0,97,97,22,1,t2.png,t3.png,1,0.90855,19,Female,2020-09-28_13h30.00.964,torte-2b,2020.1.3,MacIntel,60,13242,,,,,,,,,,,,,,,,,,,,,,,,,,,,,,,,,,,,,,,,,,,,,,,,,,,,,,,,,,,,,,,,,
,,,,,,,,,,,,l,1.034315,Correct!,0,98,98,94,1,t5.png,t1.png,4,9.55E-11,19,Female,2020-09-28_13h30.00.964,torte-2b,2020.1.3,MacIntel,60,13242,,,,,,,,,,,,,,,,,,,,,,,,,,,,,,,,,,,,,,,,,,,,,,,,,,,,,,,,,,,,,,,,,
,,,,,,,,,,,,a,1.03893,Incorrect,0,99,99,51,1,t3.png,t1.png,2,0.056466,19,Female,2020-09-28_13h30.00.964,torte-2b,2020.1.3,MacIntel,60,13242,,,,,,,,,,,,,,,,,,,,,,,,,,,,,,,,,,,,,,,,,,,,,,,,,,,,,,,,,,,,,,,,,
,,,,,,,,,,,,a,0.450805,Incorrect,0,100,100,33,1,t5.png,t1.png,4,9.55E-11,19,Female,2020-09-28_13h30.00.964,torte-2b,2020.1.3,MacIntel,60,13242,,,,,,,,,,,,,,,,,,,,,,,,,,,,,,,,,,,,,,,,,,,,,,,,,,,,,,,,,,,,,,,,,
,,,,,,,,,,,,l,0.434495,Correct!,0,101,101,31,1,t1.png,t5.png,4,9.55E-11,19,Female,2020-09-28_13h30.00.964,torte-2b,2020.1.3,MacIntel,60,13242,,,,,,,,,,,,,,,,,,,,,,,,,,,,,,,,,,,,,,,,,,,,,,,,,,,,,,,,,,,,,,,,,
,,,,,,,,,,,,a,0.035405,Incorrect,0,102,102,3,1,t1.png,t5.png,4,9.55E-11,19,Female,2020-09-28_13h30.00.964,torte-2b,2020.1.3,MacIntel,60,13242,,,,,,,,,,,,,,,,,,,,,,,,,,,,,,,,,,,,,,,,,,,,,,,,,,,,,,,,,,,,,,,,,
,,,,,,,,,,,,a,0.318605,Incorrect,0,103,103,17,1,t1.png,t4.png,3,0.0000131,19,Female,2020-09-28_13h30.00.964,torte-2b,2020.1.3,MacIntel,60,13242,,,,,,,,,,,,,,,,,,,,,,,,,,,,,,,,,,,,,,,,,,,,,,,,,,,,,,,,,,,,,,,,,
,,,,,,,,,,,,l,0.349635,Correct!,0,104,104,4,1,t1.png,t5.png,4,9.55E-11,19,Female,2020-09-28_13h30.00.964,torte-2b,2020.1.3,MacIntel,60,13242,,,,,,,,,,,,,,,,,,,,,,,,,,,,,,,,,,,,,,,,,,,,,,,,,,,,,,,,,,,,,,,,,
,,,,,,,,,,,,l,0.28665,Correct!,0,105,105,56,1,t5.png,t1.png,4,9.55E-11,19,Female,2020-09-28_13h30.00.964,torte-2b,2020.1.3,MacIntel,60,13242,,,,,,,,,,,,,,,,,,,,,,,,,,,,,,,,,,,,,,,,,,,,,,,,,,,,,,,,,,,,,,,,,
,,,,,,,,,,,,a,0.434005,Correct!,0,106,106,110,1,t4.png,t5.png,1,0.90025,19,Female,2020-09-28_13h30.00.964,torte-2b,2020.1.3,MacIntel,60,13242,,,,,,,,,,,,,,,,,,,,,,,,,,,,,,,,,,,,,,,,,,,,,,,,,,,,,,,,,,,,,,,,,
,,,,,,,,,,,,l,0.369815,Incorrect,0,107,107,66,1,t4.png,t5.png,1,0.9,19,Female,2020-09-28_13h30.00.964,torte-2b,2020.1.3,MacIntel,60,13242,,,,,,,,,,,,,,,,,,,,,,,,,,,,,,,,,,,,,,,,,,,,,,,,,,,,,,,,,,,,,,,,,
,,,,,,,,,,,,a,0.31678,Correct!,0,108,108,20,1,t2.png,t3.png,1,0.90855,19,Female,2020-09-28_13h30.00.964,torte-2b,2020.1.3,MacIntel,60,13242,,,,,,,,,,,,,,,,,,,,,,,,,,,,,,,,,,,,,,,,,,,,,,,,,,,,,,,,,,,,,,,,,
,,,,,,,,,,,,a,0.718065,Incorrect,0,109,109,75,1,t1.png,t1.png,0,0.97829,19,Female,2020-09-28_13h30.00.964,torte-2b,2020.1.3,MacIntel,60,13242,,,,,,,,,,,,,,,,,,,,,,,,,,,,,,,,,,,,,,,,,,,,,,,,,,,,,,,,,,,,,,,,,
,,,,,,,,,,,,l,0.984725,Correct!,0,110,110,119,1,t1.png,t5.png,4,9.55E-11,19,Female,2020-09-28_13h30.00.964,torte-2b,2020.1.3,MacIntel,60,13242,,,,,,,,,,,,,,,,,,,,,,,,,,,,,,,,,,,,,,,,,,,,,,,,,,,,,,,,,,,,,,,,,
,,,,,,,,,,,,a,1.235235,Incorrect,0,111,111,85,1,t3.png,t2.png,1,0.90855,19,Female,2020-09-28_13h30.00.964,torte-2b,2020.1.3,MacIntel,60,13242,,,,,,,,,,,,,,,,,,,,,,,,,,,,,,,,,,,,,,,,,,,,,,,,,,,,,,,,,,,,,,,,,
,,,,,,,,,,,,a,0.35205,Incorrect,0,112,112,89,1,t1.png,t4.png,3,0.0000131,19,Female,2020-09-28_13h30.00.964,torte-2b,2020.1.3,MacIntel,60,13242,,,,,,,,,,,,,,,,,,,,,,,,,,,,,,,,,,,,,,,,,,,,,,,,,,,,,,,,,,,,,,,,,
,,,,,,,,,,,,l,0.98434,Incorrect,0,113,113,59,1,t5.png,t4.png,1,0.9,19,Female,2020-09-28_13h30.00.964,torte-2b,2020.1.3,MacIntel,60,13242,,,,,,,,,,,,,,,,,,,,,,,,,,,,,,,,,,,,,,,,,,,,,,,,,,,,,,,,,,,,,,,,,
,,,,,,,,,,,,l,0.41751,Correct!,0,114,114,86,1,t3.png,t1.png,2,0.056466,19,Female,2020-09-28_13h30.00.964,torte-2b,2020.1.3,MacIntel,60,13242,,,,,,,,,,,,,,,,,,,,,,,,,,,,,,,,,,,,,,,,,,,,,,,,,,,,,,,,,,,,,,,,,
,,,,,,,,,,,,a,0.784715,Incorrect,0,115,115,27,1,t3.png,t1.png,2,0.0565,19,Female,2020-09-28_13h30.00.964,torte-2b,2020.1.3,MacIntel,60,13242,,,,,,,,,,,,,,,,,,,,,,,,,,,,,,,,,,,,,,,,,,,,,,,,,,,,,,,,,,,,,,,,,
,,,,,,,,,,,,l,0.200605,Incorrect,0,116,116,58,1,t5.png,t4.png,1,0.90025,19,Female,2020-09-28_13h30.00.964,torte-2b,2020.1.3,MacIntel,60,13242,,,,,,,,,,,,,,,,,,,,,,,,,,,,,,,,,,,,,,,,,,,,,,,,,,,,,,,,,,,,,,,,,
,,,,,,,,,,,,a,1.167335,Incorrect,0,117,117,57,1,t2.png,t4.png,2,0.059078,19,Female,2020-09-28_13h30.00.964,torte-2b,2020.1.3,MacIntel,60,13242,,,,,,,,,,,,,,,,,,,,,,,,,,,,,,,,,,,,,,,,,,,,,,,,,,,,,,,,,,,,,,,,,
,,,,,,,,,,,,l,0.60005,Correct!,0,118,118,60,1,t2.png,t4.png,2,0.059078,19,Female,2020-09-28_13h30.00.964,torte-2b,2020.1.3,MacIntel,60,13242,,,,,,,,,,,,,,,,,,,,,,,,,,,,,,,,,,,,,,,,,,,,,,,,,,,,,,,,,,,,,,,,,
,,,,,,,,,,,,a,1.08471,Incorrect,0,119,119,30,1,t3.png,t1.png,2,0.056466,19,Female,2020-09-28_13h30.00.964,torte-2b,2020.1.3,MacIntel,60,13242,,,,,,,,,,,,,,,,,,,,,,,,,,,,,,,,,,,,,,,,,,,,,,,,,,,,,,,,,,,,,,,,,
,,,,,,,,,,,,l,2.12016,Correct!,,,,,,t2.png,t4.png,2,0.059078,19,Female,2020-09-28_13h30.00.964,torte-2b,2020.1.3,MacIntel,60,13242,space,3.468505,space,24.900595,0,0,0,24,1,,,,,,,,,,,,,,,,,,,,,,,,,,,,,,,,,,,,,,,,,,,,,,,,,,,,,,,,
,,,,,,,,,,,,l,1.48439,Incorrect,,,,,,t2.png,t1.png,1,0.9,19,Female,2020-09-28_13h30.00.964,torte-2b,2020.1.3,MacIntel,60,13242,,,,,0,1,1,118,1,,,,,,,,,,,,,,,,,,,,,,,,,,,,,,,,,,,,,,,,,,,,,,,,,,,,,,,,
,,,,,,,,,,,,a,1.434425,Correct!,,,,,,t2.png,t1.png,1,0.90025,19,Female,2020-09-28_13h30.00.964,torte-2b,2020.1.3,MacIntel,60,13242,,,,,0,2,2,4,1,,,,,,,,,,,,,,,,,,,,,,,,,,,,,,,,,,,,,,,,,,,,,,,,,,,,,,,,
,,,,,,,,,,,,,,Too slow :(,,,,,,t4.png,t5.png,1,0.90025,19,Female,2020-09-28_13h30.00.964,torte-2b,2020.1.3,MacIntel,60,13242,,,,,0,3,3,113,1,,,,,,,,,,,,,,,,,,,,,,,,,,,,,,,,,,,,,,,,,,,,,,,,,,,,,,,,
,,,,,,,,,,,,l,1.71684,Correct!,,,,,,t1.png,t3.png,2,0.056466,19,Female,2020-09-28_13h30.00.964,torte-2b,2020.1.3,MacIntel,60,13242,,,,,0,4,4,99,1,,,,,,,,,,,,,,,,,,,,,,,,,,,,,,,,,,,,,,,,,,,,,,,,,,,,,,,,
,,,,,,,,,,,,l,1.71784,Correct!,,,,,,t5.png,t2.png,3,0.0000131,19,Female,2020-09-28_13h30.00.964,torte-2b,2020.1.3,MacIntel,60,13242,,,,,0,5,5,98,1,,,,,,,,,,,,,,,,,,,,,,,,,,,,,,,,,,,,,,,,,,,,,,,,,,,,,,,,
,,,,,,,,,,,,l,1.30078,Correct!,,,,,,t5.png,t1.png,4,9.55E-11,19,Female,2020-09-28_13h30.00.964,torte-2b,2020.1.3,MacIntel,60,13242,,,,,0,6,6,71,1,,,,,,,,,,,,,,,,,,,,,,,,,,,,,,,,,,,,,,,,,,,,,,,,,,,,,,,,
,,,,,,,,,,,,a,1.18521,Correct!,,,,,,t1.png,t1.png,0,0.978,19,Female,2020-09-28_13h30.00.964,torte-2b,2020.1.3,MacIntel,60,13242,,,,,0,7,7,54,1,,,,,,,,,,,,,,,,,,,,,,,,,,,,,,,,,,,,,,,,,,,,,,,,,,,,,,,,
,,,,,,,,,,,,a,1.01701,Correct!,,,,,,t1.png,t2.png,1,0.90025,19,Female,2020-09-28_13h30.00.964,torte-2b,2020.1.3,MacIntel,60,13242,,,,,0,8,8,112,1,,,,,,,,,,,,,,,,,,,,,,,,,,,,,,,,,,,,,,,,,,,,,,,,,,,,,,,,
,,,,,,,,,,,,l,1.517245,Correct!,,,,,,t5.png,t3.png,2,0.056466,19,Female,2020-09-28_13h30.00.964,torte-2b,2020.1.3,MacIntel,60,13242,,,,,0,9,9,114,1,,,,,,,,,,,,,,,,,,,,,,,,,,,,,,,,,,,,,,,,,,,,,,,,,,,,,,,,
,,,,,,,,,,,,a,1.487525,Incorrect,,,,,,t1.png,t4.png,3,0.0000131,19,Female,2020-09-28_13h30.00.964,torte-2b,2020.1.3,MacIntel,60,13242,,,,,0,10,10,50,1,,,,,,,,,,,,,,,,,,,,,,,,,,,,,,,,,,,,,,,,,,,,,,,,,,,,,,,,
,,,,,,,,,,,,l,1.00349,Correct!,,,,,,t2.png,t5.png,3,0.0000131,19,Female,2020-09-28_13h30.00.964,torte-2b,2020.1.3,MacIntel,60,13242,,,,,0,11,11,95,1,,,,,,,,,,,,,,,,,,,,,,,,,,,,,,,,,,,,,,,,,,,,,,,,,,,,,,,,
,,,,,,,,,,,,l,0.767535,Incorrect,,,,,,t2.png,t2.png,0,0.981,19,Female,2020-09-28_13h30.00.964,torte-2b,2020.1.3,MacIntel,60,13242,,,,,0,12,12,101,1,,,,,,,,,,,,,,,,,,,,,,,,,,,,,,,,,,,,,,,,,,,,,,,,,,,,,,,,
,,,,,,,,,,,,a,1.61703,Incorrect,,,,,,t2.png,t3.png,1,0.90855,19,Female,2020-09-28_13h30.00.964,torte-2b,2020.1.3,MacIntel,60,13242,,,,,0,13,13,65,1,,,,,,,,,,,,,,,,,,,,,,,,,,,,,,,,,,,,,,,,,,,,,,,,,,,,,,,,
,,,,,,,,,,,,l,0.95104,Correct!,,,,,,t4.png,t1.png,3,0.0000131,19,Female,2020-09-28_13h30.00.964,torte-2b,2020.1.3,MacIntel,60,13242,,,,,0,14,14,93,1,,,,,,,,,,,,,,,,,,,,,,,,,,,,,,,,,,,,,,,,,,,,,,,,,,,,,,,,
,,,,,,,,,,,,l,0.73532,Incorrect,,,,,,t1.png,t2.png,1,0.9,19,Female,2020-09-28_13h30.00.964,torte-2b,2020.1.3,MacIntel,60,13242,,,,,0,15,15,1,1,,,,,,,,,,,,,,,,,,,,,,,,,,,,,,,,,,,,,,,,,,,,,,,,,,,,,,,,
,,,,,,,,,,,,a,0.55078,Incorrect,,,,,,t1.png,t3.png,2,0.056466,19,Female,2020-09-28_13h30.00.964,torte-2b,2020.1.3,MacIntel,60,13242,,,,,0,16,16,60,1,,,,,,,,,,,,,,,,,,,,,,,,,,,,,,,,,,,,,,,,,,,,,,,,,,,,,,,,
,,,,,,,,,,,,a,0.28445,Incorrect,,,,,,t2.png,t5.png,3,0.0000131,19,Female,2020-09-28_13h30.00.964,torte-2b,2020.1.3,MacIntel,60,13242,,,,,0,17,17,104,1,,,,,,,,,,,,,,,,,,,,,,,,,,,,,,,,,,,,,,,,,,,,,,,,,,,,,,,,
,,,,,,,,,,,,l,1.187275,Incorrect,,,,,,t4.png,t4.png,0,0.98115,19,Female,2020-09-28_13h30.00.964,torte-2b,2020.1.3,MacIntel,60,13242,,,,,0,18,18,21,1,,,,,,,,,,,,,,,,,,,,,,,,,,,,,,,,,,,,,,,,,,,,,,,,,,,,,,,,
,,,,,,,,,,,,a,1.185885,Correct!,,,,,,t3.png,t4.png,1,0.90855,19,Female,2020-09-28_13h30.00.964,torte-2b,2020.1.3,MacIntel,60,13242,,,,,0,19,19,84,1,,,,,,,,,,,,,,,,,,,,,,,,,,,,,,,,,,,,,,,,,,,,,,,,,,,,,,,,
,,,,,,,,,,,,a,1.220885,Correct!,,,,,,t3.png,t4.png,1,0.909,19,Female,2020-09-28_13h30.00.964,torte-2b,2020.1.3,MacIntel,60,13242,,,,,0,20,20,89,1,,,,,,,,,,,,,,,,,,,,,,,,,,,,,,,,,,,,,,,,,,,,,,,,,,,,,,,,
,,,,,,,,,,,,a,1.15009,Incorrect,,,,,,t1.png,t4.png,3,0.0000131,19,Female,2020-09-28_13h30.00.964,torte-2b,2020.1.3,MacIntel,60,13242,,,,,0,21,21,17,1,,,,,,,,,,,,,,,,,,,,,,,,,,,,,,,,,,,,,,,,,,,,,,,,,,,,,,,,
,,,,,,,,,,,,l,1.03464,Incorrect,,,,,,t2.png,t1.png,1,0.90025,19,Female,2020-09-28_13h30.00.964,torte-2b,2020.1.3,MacIntel,60,13242,,,,,0,22,22,19,1,,,,,,,,,,,,,,,,,,,,,,,,,,,,,,,,,,,,,,,,,,,,,,,,,,,,,,,,
,,,,,,,,,,,,a,1.48433,Incorrect,,,,,,t5.png,t3.png,2,0.056466,19,Female,2020-09-28_13h30.00.964,torte-2b,2020.1.3,MacIntel,60,13242,,,,,0,23,23,38,1,,,,,,,,,,,,,,,,,,,,,,,,,,,,,,,,,,,,,,,,,,,,,,,,,,,,,,,,
,,,,,,,,,,,,a,1.068265,Incorrect,,,,,,t3.png,t1.png,2,0.0565,19,Female,2020-09-28_13h30.00.964,torte-2b,2020.1.3,MacIntel,60,13242,,,,,0,24,24,31,1,,,,,,,,,,,,,,,,,,,,,,,,,,,,,,,,,,,,,,,,,,,,,,,,,,,,,,,,
,,,,,,,,,,,,l,1.069255,Incorrect,,,,,,t4.png,t5.png,1,0.90025,19,Female,2020-09-28_13h30.00.964,torte-2b,2020.1.3,MacIntel,60,13242,,,,,0,25,25,58,1,,,,,,,,,,,,,,,,,,,,,,,,,,,,,,,,,,,,,,,,,,,,,,,,,,,,,,,,
,,,,,,,,,,,,l,0.669515,Correct!,,,,,,t5.png,t3.png,2,0.056466,19,Female,2020-09-28_13h30.00.964,torte-2b,2020.1.3,MacIntel,60,13242,,,,,0,26,26,56,1,,,,,,,,,,,,,,,,,,,,,,,,,,,,,,,,,,,,,,,,,,,,,,,,,,,,,,,,
,,,,,,,,,,,,a,0.867815,Incorrect,,,,,,t4.png,t1.png,3,0.0000131,19,Female,2020-09-28_13h30.00.964,torte-2b,2020.1.3,MacIntel,60,13242,,,,,0,27,27,42,1,,,,,,,,,,,,,,,,,,,,,,,,,,,,,,,,,,,,,,,,,,,,,,,,,,,,,,,,
,,,,,,,,,,,,a,0.818665,Correct!,,,,,,t1.png,t2.png,1,0.90025,19,Female,2020-09-28_13h30.00.964,torte-2b,2020.1.3,MacIntel,60,13242,,,,,0,28,28,72,1,,,,,,,,,,,,,,,,,,,,,,,,,,,,,,,,,,,,,,,,,,,,,,,,,,,,,,,,
,,,,,,,,,,,,l,1.050645,Incorrect,,,,,,t3.png,t2.png,1,0.90855,19,Female,2020-09-28_13h30.00.964,torte-2b,2020.1.3,MacIntel,60,13242,,,,,0,29,29,53,1,,,,,,,,,,,,,,,,,,,,,,,,,,,,,,,,,,,,,,,,,,,,,,,,,,,,,,,,
,,,,,,,,,,,,l,0.71925,Correct!,,,,,,t3.png,t5.png,2,0.0565,19,Female,2020-09-28_13h30.00.964,torte-2b,2020.1.3,MacIntel,60,13242,,,,,0,30,30,83,1,,,,,,,,,,,,,,,,,,,,,,,,,,,,,,,,,,,,,,,,,,,,,,,,,,,,,,,,
,,,,,,,,,,,,a,0.201835,Incorrect,,,,,,t4.png,t1.png,3,0.0000131,19,Female,2020-09-28_13h30.00.964,torte-2b,2020.1.3,MacIntel,60,13242,,,,,0,31,31,13,1,,,,,,,,,,,,,,,,,,,,,,,,,,,,,,,,,,,,,,,,,,,,,,,,,,,,,,,,
,,,,,,,,,,,,l,0.533665,Incorrect,,,,,,t4.png,t3.png,1,0.909,19,Female,2020-09-28_13h30.00.964,torte-2b,2020.1.3,MacIntel,60,13242,,,,,0,32,32,46,1,,,,,,,,,,,,,,,,,,,,,,,,,,,,,,,,,,,,,,,,,,,,,,,,,,,,,,,,
,,,,,,,,,,,,a,0.90067,Correct!,,,,,,t5.png,t4.png,1,0.9,19,Female,2020-09-28_13h30.00.964,torte-2b,2020.1.3,MacIntel,60,13242,,,,,0,33,33,49,1,,,,,,,,,,,,,,,,,,,,,,,,,,,,,,,,,,,,,,,,,,,,,,,,,,,,,,,,
,,,,,,,,,,,,a,0.57012,Correct!,,,,,,t3.png,t2.png,1,0.909,19,Female,2020-09-28_13h30.00.964,torte-2b,2020.1.3,MacIntel,60,13242,,,,,0,34,34,3,1,,,,,,,,,,,,,,,,,,,,,,,,,,,,,,,,,,,,,,,,,,,,,,,,,,,,,,,,
,,,,,,,,,,,,l,1.36805,Incorrect,,,,,,t2.png,t1.png,1,0.90025,19,Female,2020-09-28_13h30.00.964,torte-2b,2020.1.3,MacIntel,60,13242,,,,,0,35,35,5,1,,,,,,,,,,,,,,,,,,,,,,,,,,,,,,,,,,,,,,,,,,,,,,,,,,,,,,,,
,,,,,,,,,,,,a,0.83339,Correct!,,,,,,t2.png,t1.png,1,0.90025,19,Female,2020-09-28_13h30.00.964,torte-2b,2020.1.3,MacIntel,60,13242,,,,,0,36,36,62,1,,,,,,,,,,,,,,,,,,,,,,,,,,,,,,,,,,,,,,,,,,,,,,,,,,,,,,,,
,,,,,,,,,,,,a,0.650625,Incorrect,,,,,,t2.png,t4.png,2,0.0591,19,Female,2020-09-28_13h30.00.964,torte-2b,2020.1.3,MacIntel,60,13242,,,,,0,37,37,15,1,,,,,,,,,,,,,,,,,,,,,,,,,,,,,,,,,,,,,,,,,,,,,,,,,,,,,,,,
,,,,,,,,,,,,l,1.61858,Incorrect,,,,,,t2.png,t2.png,0,0.98115,19,Female,2020-09-28_13h30.00.964,torte-2b,2020.1.3,MacIntel,60,13242,,,,,0,38,38,57,1,,,,,,,,,,,,,,,,,,,,,,,,,,,,,,,,,,,,,,,,,,,,,,,,,,,,,,,,
,,,,,,,,,,,,a,0.954945,Correct!,,,,,,t5.png,t4.png,1,0.90025,19,Female,2020-09-28_13h30.00.964,torte-2b,2020.1.3,MacIntel,60,13242,,,,,0,39,39,26,1,,,,,,,,,,,,,,,,,,,,,,,,,,,,,,,,,,,,,,,,,,,,,,,,,,,,,,,,
,,,,,,,,,,,,a,0.55249,Incorrect,,,,,,t3.png,t2.png,1,0.909,19,Female,2020-09-28_13h30.00.964,torte-2b,2020.1.3,MacIntel,60,13242,,,,,0,40,40,23,1,,,,,,,,,,,,,,,,,,,,,,,,,,,,,,,,,,,,,,,,,,,,,,,,,,,,,,,,
,,,,,,,,,,,,a,0.803335,Incorrect,,,,,,t4.png,t2.png,2,0.059078,19,Female,2020-09-28_13h30.00.964,torte-2b,2020.1.3,MacIntel,60,13242,,,,,0,41,41,88,1,,,,,,,,,,,,,,,,,,,,,,,,,,,,,,,,,,,,,,,,,,,,,,,,,,,,,,,,
,,,,,,,,,,,,l,0.918765,Incorrect,,,,,,t5.png,t5.png,0,0.97829,19,Female,2020-09-28_13h30.00.964,torte-2b,2020.1.3,MacIntel,60,13242,,,,,0,42,42,70,1,,,,,,,,,,,,,,,,,,,,,,,,,,,,,,,,,,,,,,,,,,,,,,,,,,,,,,,,
,,,,,,,,,,,,a,0.90375,Correct!,,,,,,t4.png,t5.png,1,0.90025,19,Female,2020-09-28_13h30.00.964,torte-2b,2020.1.3,MacIntel,60,13242,,,,,0,43,43,47,1,,,,,,,,,,,,,,,,,,,,,,,,,,,,,,,,,,,,,,,,,,,,,,,,,,,,,,,,
,,,,,,,,,,,,a,0.41731,Incorrect,,,,,,t1.png,t3.png,2,0.056466,19,Female,2020-09-28_13h30.00.964,torte-2b,2020.1.3,MacIntel,60,13242,,,,,0,44,44,87,1,,,,,,,,,,,,,,,,,,,,,,,,,,,,,,,,,,,,,,,,,,,,,,,,,,,,,,,,
,,,,,,,,,,,,a,0.36657,Correct!,,,,,,t3.png,t2.png,1,0.90855,19,Female,2020-09-28_13h30.00.964,torte-2b,2020.1.3,MacIntel,60,13242,,,,,0,45,45,18,1,,,,,,,,,,,,,,,,,,,,,,,,,,,,,,,,,,,,,,,,,,,,,,,,,,,,,,,,
,,,,,,,,,,,,l,0.900975,Correct!,,,,,,t5.png,t1.png,4,9.55E-11,19,Female,2020-09-28_13h30.00.964,torte-2b,2020.1.3,MacIntel,60,13242,,,,,0,46,46,43,1,,,,,,,,,,,,,,,,,,,,,,,,,,,,,,,,,,,,,,,,,,,,,,,,,,,,,,,,
,,,,,,,,,,,,l,0.35307,Incorrect,,,,,,t1.png,t1.png,0,0.97829,19,Female,2020-09-28_13h30.00.964,torte-2b,2020.1.3,MacIntel,60,13242,,,,,0,47,47,67,1,,,,,,,,,,,,,,,,,,,,,,,,,,,,,,,,,,,,,,,,,,,,,,,,,,,,,,,,
,,,,,,,,,,,,a,0.76736,Correct!,,,,,,t2.png,t3.png,1,0.909,19,Female,2020-09-28_13h30.00.964,torte-2b,2020.1.3,MacIntel,60,13242,,,,,0,48,48,74,1,,,,,,,,,,,,,,,,,,,,,,,,,,,,,,,,,,,,,,,,,,,,,,,,,,,,,,,,
,,,,,,,,,,,,a,1.13675,Correct!,,,,,,t3.png,t4.png,1,0.909,19,Female,2020-09-28_13h30.00.964,torte-2b,2020.1.3,MacIntel,60,13242,,,,,0,49,49,106,1,,,,,,,,,,,,,,,,,,,,,,,,,,,,,,,,,,,,,,,,,,,,,,,,,,,,,,,,
,,,,,,,,,,,,a,0.73697,Incorrect,,,,,,t3.png,t5.png,2,0.0565,19,Female,2020-09-28_13h30.00.964,torte-2b,2020.1.3,MacIntel,60,13242,,,,,0,50,50,30,1,,,,,,,,,,,,,,,,,,,,,,,,,,,,,,,,,,,,,,,,,,,,,,,,,,,,,,,,
,,,,,,,,,,,,a,0.70057,Correct!,,,,,,t4.png,t5.png,1,0.9,19,Female,2020-09-28_13h30.00.964,torte-2b,2020.1.3,MacIntel,60,13242,,,,,0,51,51,115,1,,,,,,,,,,,,,,,,,,,,,,,,,,,,,,,,,,,,,,,,,,,,,,,,,,,,,,,,
,,,,,,,,,,,,a,0.58471,Correct!,,,,,,t1.png,t1.png,0,0.978,19,Female,2020-09-28_13h30.00.964,torte-2b,2020.1.3,MacIntel,60,13242,,,,,0,52,52,28,1,,,,,,,,,,,,,,,,,,,,,,,,,,,,,,,,,,,,,,,,,,,,,,,,,,,,,,,,
,,,,,,,,,,,,l,0.803195,Incorrect,,,,,,t3.png,t2.png,1,0.90855,19,Female,2020-09-28_13h30.00.964,torte-2b,2020.1.3,MacIntel,60,13242,,,,,0,53,53,97,1,,,,,,,,,,,,,,,,,,,,,,,,,,,,,,,,,,,,,,,,,,,,,,,,,,,,,,,,
,,,,,,,,,,,,l,0.44003,Correct!,,,,,,t4.png,t2.png,2,0.0591,19,Female,2020-09-28_13h30.00.964,torte-2b,2020.1.3,MacIntel,60,13242,,,,,0,54,54,36,1,,,,,,,,,,,,,,,,,,,,,,,,,,,,,,,,,,,,,,,,,,,,,,,,,,,,,,,,
,,,,,,,,,,,,a,0.969655,Correct!,,,,,,t3.png,t4.png,1,0.909,19,Female,2020-09-28_13h30.00.964,torte-2b,2020.1.3,MacIntel,60,13242,,,,,0,55,55,82,1,,,,,,,,,,,,,,,,,,,,,,,,,,,,,,,,,,,,,,,,,,,,,,,,,,,,,,,,
,,,,,,,,,,,,l,0.80334,Incorrect,,,,,,t1.png,t1.png,0,0.97829,19,Female,2020-09-28_13h30.00.964,torte-2b,2020.1.3,MacIntel,60,13242,,,,,0,56,56,9,1,,,,,,,,,,,,,,,,,,,,,,,,,,,,,,,,,,,,,,,,,,,,,,,,,,,,,,,,
,,,,,,,,,,,,a,0.86929,Correct!,,,,,,t5.png,t5.png,0,0.97829,19,Female,2020-09-28_13h30.00.964,torte-2b,2020.1.3,MacIntel,60,13242,,,,,0,57,57,73,1,,,,,,,,,,,,,,,,,,,,,,,,,,,,,,,,,,,,,,,,,,,,,,,,,,,,,,,,
,,,,,,,,,,,,a,0.481925,Correct!,,,,,,t4.png,t5.png,1,0.90025,19,Female,2020-09-28_13h30.00.964,torte-2b,2020.1.3,MacIntel,60,13242,,,,,0,58,58,103,1,,,,,,,,,,,,,,,,,,,,,,,,,,,,,,,,,,,,,,,,,,,,,,,,,,,,,,,,
,,,,,,,,,,,,a,0.567145,Incorrect,,,,,,t4.png,t2.png,2,0.059078,19,Female,2020-09-28_13h30.00.964,torte-2b,2020.1.3,MacIntel,60,13242,,,,,0,59,59,86,1,,,,,,,,,,,,,,,,,,,,,,,,,,,,,,,,,,,,,,,,,,,,,,,,,,,,,,,,
,,,,,,,,,,,,l,0.78616,Correct!,,,,,,t1.png,t5.png,4,9.55E-11,19,Female,2020-09-28_13h30.00.964,torte-2b,2020.1.3,MacIntel,60,13242,,,,,0,60,60,55,1,,,,,,,,,,,,,,,,,,,,,,,,,,,,,,,,,,,,,,,,,,,,,,,,,,,,,,,,
,,,,,,,,,,,,a,0.684805,Incorrect,,,,,,t1.png,t4.png,3,0.0000131,19,Female,2020-09-28_13h30.00.964,torte-2b,2020.1.3,MacIntel,60,13242,,,,,0,61,61,107,1,,,,,,,,,,,,,,,,,,,,,,,,,,,,,,,,,,,,,,,,,,,,,,,,,,,,,,,,
,,,,,,,,,,,,a,0.333805,Incorrect,,,,,,t5.png,t2.png,3,0.0000131,19,Female,2020-09-28_13h30.00.964,torte-2b,2020.1.3,MacIntel,60,13242,,,,,0,62,62,119,1,,,,,,,,,,,,,,,,,,,,,,,,,,,,,,,,,,,,,,,,,,,,,,,,,,,,,,,,
,,,,,,,,,,,,a,0.38547,Correct!,,,,,,t4.png,t3.png,1,0.90855,19,Female,2020-09-28_13h30.00.964,torte-2b,2020.1.3,MacIntel,60,13242,,,,,0,63,63,45,1,,,,,,,,,,,,,,,,,,,,,,,,,,,,,,,,,,,,,,,,,,,,,,,,,,,,,,,,
,,,,,,,,,,,,a,0.818875,Incorrect,,,,,,t5.png,t4.png,1,0.9,19,Female,2020-09-28_13h30.00.964,torte-2b,2020.1.3,MacIntel,60,13242,,,,,0,64,64,76,1,,,,,,,,,,,,,,,,,,,,,,,,,,,,,,,,,,,,,,,,,,,,,,,,,,,,,,,,
,,,,,,,,,,,,l,0.352005,Correct!,,,,,,t1.png,t4.png,3,0.0000131,19,Female,2020-09-28_13h30.00.964,torte-2b,2020.1.3,MacIntel,60,13242,,,,,0,65,65,81,1,,,,,,,,,,,,,,,,,,,,,,,,,,,,,,,,,,,,,,,,,,,,,,,,,,,,,,,,
,,,,,,,,,,,,a,0.98698,Incorrect,,,,,,t4.png,t1.png,3,0.0000131,19,Female,2020-09-28_13h30.00.964,torte-2b,2020.1.3,MacIntel,60,13242,,,,,0,66,66,61,1,,,,,,,,,,,,,,,,,,,,,,,,,,,,,,,,,,,,,,,,,,,,,,,,,,,,,,,,
,,,,,,,,,,,,l,0.384485,Correct!,,,,,,t1.png,t1.png,0,0.97829,19,Female,2020-09-28_13h30.00.964,torte-2b,2020.1.3,MacIntel,60,13242,,,,,0,67,67,78,1,,,,,,,,,,,,,,,,,,,,,,,,,,,,,,,,,,,,,,,,,,,,,,,,,,,,,,,,
,,,,,,,,,,,,l,0.55403,Incorrect,,,,,,t4.png,t3.png,1,0.909,19,Female,2020-09-28_13h30.00.964,torte-2b,2020.1.3,MacIntel,60,13242,,,,,0,68,68,20,1,,,,,,,,,,,,,,,,,,,,,,,,,,,,,,,,,,,,,,,,,,,,,,,,,,,,,,,,
,,,,,,,,,,,,l,0.365835,Incorrect,,,,,,t4.png,t4.png,0,0.98115,19,Female,2020-09-28_13h30.00.964,torte-2b,2020.1.3,MacIntel,60,13242,,,,,0,69,69,90,1,,,,,,,,,,,,,,,,,,,,,,,,,,,,,,,,,,,,,,,,,,,,,,,,,,,,,,,,
,,,,,,,,,,,,l,1.28783,Correct!,,,,,,t5.png,t1.png,4,9.55E-11,19,Female,2020-09-28_13h30.00.964,torte-2b,2020.1.3,MacIntel,60,13242,,,,,0,70,70,102,1,,,,,,,,,,,,,,,,,,,,,,,,,,,,,,,,,,,,,,,,,,,,,,,,,,,,,,,,
,,,,,,,,,,,,a,0.93641,Incorrect,,,,,,t1.png,t4.png,3,0.0000131,19,Female,2020-09-28_13h30.00.964,torte-2b,2020.1.3,MacIntel,60,13242,,,,,0,71,71,92,1,,,,,,,,,,,,,,,,,,,,,,,,,,,,,,,,,,,,,,,,,,,,,,,,,,,,,,,,
,,,,,,,,,,,,a,0.68793,Incorrect,,,,,,t3.png,t1.png,2,0.056466,19,Female,2020-09-28_13h30.00.964,torte-2b,2020.1.3,MacIntel,60,13242,,,,,0,72,72,32,1,,,,,,,,,,,,,,,,,,,,,,,,,,,,,,,,,,,,,,,,,,,,,,,,,,,,,,,,
,,,,,,,,,,,,l,0.734375,Incorrect,,,,,,t5.png,t4.png,1,0.90025,19,Female,2020-09-28_13h30.00.964,torte-2b,2020.1.3,MacIntel,60,13242,,,,,0,73,73,27,1,,,,,,,,,,,,,,,,,,,,,,,,,,,,,,,,,,,,,,,,,,,,,,,,,,,,,,,,
,,,,,,,,,,,,l,0.733095,Correct!,,,,,,t1.png,t5.png,4,9.55E-11,19,Female,2020-09-28_13h30.00.964,torte-2b,2020.1.3,MacIntel,60,13242,,,,,0,74,74,41,1,,,,,,,,,,,,,,,,,,,,,,,,,,,,,,,,,,,,,,,,,,,,,,,,,,,,,,,,
,,,,,,,,,,,,l,0.419755,Incorrect,,,,,,t4.png,t3.png,1,0.90855,19,Female,2020-09-28_13h30.00.964,torte-2b,2020.1.3,MacIntel,60,13242,,,,,0,75,75,35,1,,,,,,,,,,,,,,,,,,,,,,,,,,,,,,,,,,,,,,,,,,,,,,,,,,,,,,,,
,,,,,,,,,,,,a,0.76885,Correct!,,,,,,t2.png,t2.png,0,0.98115,19,Female,2020-09-28_13h30.00.964,torte-2b,2020.1.3,MacIntel,60,13242,,,,,0,76,76,2,1,,,,,,,,,,,,,,,,,,,,,,,,,,,,,,,,,,,,,,,,,,,,,,,,,,,,,,,,
,,,,,,,,,,,,a,0.2855,Correct!,,,,,,t5.png,t5.png,0,0.97829,19,Female,2020-09-28_13h30.00.964,torte-2b,2020.1.3,MacIntel,60,13242,,,,,0,77,77,25,1,,,,,,,,,,,,,,,,,,,,,,,,,,,,,,,,,,,,,,,,,,,,,,,,,,,,,,,,
,,,,,,,,,,,,l,0.301775,Incorrect,,,,,,t2.png,t2.png,0,0.98115,19,Female,2020-09-28_13h30.00.964,torte-2b,2020.1.3,MacIntel,60,13242,,,,,0,78,78,59,1,,,,,,,,,,,,,,,,,,,,,,,,,,,,,,,,,,,,,,,,,,,,,,,,,,,,,,,,
,,,,,,,,,,,,l,0.3004,Incorrect,,,,,,t2.png,t3.png,1,0.90855,19,Female,2020-09-28_13h30.00.964,torte-2b,2020.1.3,MacIntel,60,13242,,,,,0,79,79,10,1,,,,,,,,,,,,,,,,,,,,,,,,,,,,,,,,,,,,,,,,,,,,,,,,,,,,,,,,
,,,,,,,,,,,,a,1.20123,Correct!,,,,,,t1.png,t2.png,1,0.90025,19,Female,2020-09-28_13h30.00.964,torte-2b,2020.1.3,MacIntel,60,13242,,,,,0,80,80,33,1,,,,,,,,,,,,,,,,,,,,,,,,,,,,,,,,,,,,,,,,,,,,,,,,,,,,,,,,
,,,,,,,,,,,,a,0.61729,Incorrect,,,,,,t2.png,t5.png,3,0.0000131,19,Female,2020-09-28_13h30.00.964,torte-2b,2020.1.3,MacIntel,60,13242,,,,,0,81,81,8,1,,,,,,,,,,,,,,,,,,,,,,,,,,,,,,,,,,,,,,,,,,,,,,,,,,,,,,,,
,,,,,,,,,,,,a,0.53254,Correct!,,,,,,t4.png,t4.png,0,0.98115,19,Female,2020-09-28_13h30.00.964,torte-2b,2020.1.3,MacIntel,60,13242,,,,,0,82,82,79,1,,,,,,,,,,,,,,,,,,,,,,,,,,,,,,,,,,,,,,,,,,,,,,,,,,,,,,,,
,,,,,,,,,,,,l,0.6693,Incorrect,,,,,,t4.png,t4.png,0,0.98115,19,Female,2020-09-28_13h30.00.964,torte-2b,2020.1.3,MacIntel,60,13242,,,,,0,83,83,52,1,,,,,,,,,,,,,,,,,,,,,,,,,,,,,,,,,,,,,,,,,,,,,,,,,,,,,,,,
,,,,,,,,,,,,l,0.516085,Correct!,,,,,,t4.png,t2.png,2,0.059078,19,Female,2020-09-28_13h30.00.964,torte-2b,2020.1.3,MacIntel,60,13242,,,,,0,84,84,109,1,,,,,,,,,,,,,,,,,,,,,,,,,,,,,,,,,,,,,,,,,,,,,,,,,,,,,,,,
,,,,,,,,,,,,a,0.820275,Incorrect,,,,,,t3.png,t1.png,2,0.056466,19,Female,2020-09-28_13h30.00.964,torte-2b,2020.1.3,MacIntel,60,13242,,,,,0,85,85,0,1,,,,,,,,,,,,,,,,,,,,,,,,,,,,,,,,,,,,,,,,,,,,,,,,,,,,,,,,
,,,,,,,,,,,,a,0.601235,Correct!,,,,,,t3.png,t4.png,1,0.90855,19,Female,2020-09-28_13h30.00.964,torte-2b,2020.1.3,MacIntel,60,13242,,,,,0,86,86,96,1,,,,,,,,,,,,,,,,,,,,,,,,,,,,,,,,,,,,,,,,,,,,,,,,,,,,,,,,
,,,,,,,,,,,,l,0.934105,Correct!,,,,,,t1.png,t3.png,2,0.056466,19,Female,2020-09-28_13h30.00.964,torte-2b,2020.1.3,MacIntel,60,13242,,,,,0,87,87,69,1,,,,,,,,,,,,,,,,,,,,,,,,,,,,,,,,,,,,,,,,,,,,,,,,,,,,,,,,
,,,,,,,,,,,,l,1.81772,Incorrect,,,,,,t5.png,t5.png,0,0.97829,19,Female,2020-09-28_13h30.00.964,torte-2b,2020.1.3,MacIntel,60,13242,,,,,0,88,88,94,1,,,,,,,,,,,,,,,,,,,,,,,,,,,,,,,,,,,,,,,,,,,,,,,,,,,,,,,,
,,,,,,,,,,,,a,0.56744,Incorrect,,,,,,t3.png,t5.png,2,0.056466,19,Female,2020-09-28_13h30.00.964,torte-2b,2020.1.3,MacIntel,60,13242,,,,,0,89,89,44,1,,,,,,,,,,,,,,,,,,,,,,,,,,,,,,,,,,,,,,,,,,,,,,,,,,,,,,,,
,,,,,,,,,,,,l,0.58597,Correct!,,,,,,t3.png,t1.png,2,0.056466,19,Female,2020-09-28_13h30.00.964,torte-2b,2020.1.3,MacIntel,60,13242,,,,,0,90,90,64,1,,,,,,,,,,,,,,,,,,,,,,,,,,,,,,,,,,,,,,,,,,,,,,,,,,,,,,,,
,,,,,,,,,,,,a,0.667995,Correct!,,,,,,t5.png,t3.png,2,0.056466,19,Female,2020-09-28_13h30.00.964,torte-2b,2020.1.3,MacIntel,60,13242,,,,,0,91,91,108,1,,,,,,,,,,,,,,,,,,,,,,,,,,,,,,,,,,,,,,,,,,,,,,,,,,,,,,,,
,,,,,,,,,,,,l,0.701715,Correct!,,,,,,t2.png,t4.png,2,0.059078,19,Female,2020-09-28_13h30.00.964,torte-2b,2020.1.3,MacIntel,60,13242,,,,,0,92,92,77,1,,,,,,,,,,,,,,,,,,,,,,,,,,,,,,,,,,,,,,,,,,,,,,,,,,,,,,,,
,,,,,,,,,,,,l,0.284835,Incorrect,,,,,,t4.png,t4.png,0,0.98115,19,Female,2020-09-28_13h30.00.964,torte-2b,2020.1.3,MacIntel,60,13242,,,,,0,93,93,80,1,,,,,,,,,,,,,,,,,,,,,,,,,,,,,,,,,,,,,,,,,,,,,,,,,,,,,,,,
,,,,,,,,,,,,a,0.267115,Incorrect,,,,,,t2.png,t5.png,3,0.0000131,19,Female,2020-09-28_13h30.00.964,torte-2b,2020.1.3,MacIntel,60,13242,,,,,0,94,94,40,1,,,,,,,,,,,,,,,,,,,,,,,,,,,,,,,,,,,,,,,,,,,,,,,,,,,,,,,,
,,,,,,,,,,,,a,0.366615,Incorrect,,,,,,t3.png,t5.png,2,0.056466,19,Female,2020-09-28_13h30.00.964,torte-2b,2020.1.3,MacIntel,60,13242,,,,,0,95,95,6,1,,,,,,,,,,,,,,,,,,,,,,,,,,,,,,,,,,,,,,,,,,,,,,,,,,,,,,,,
,,,,,,,,,,,,l,0.0302,Correct!,,,,,,t2.png,t4.png,2,0.059078,19,Female,2020-09-28_13h30.00.964,torte-2b,2020.1.3,MacIntel,60,13242,,,,,0,96,96,37,1,,,,,,,,,,,,,,,,,,,,,,,,,,,,,,,,,,,,,,,,,,,,,,,,,,,,,,,,
,,,,,,,,,,,,a,0.33673,Incorrect,,,,,,t5.png,t1.png,4,9.55E-11,19,Female,2020-09-28_13h30.00.964,torte-2b,2020.1.3,MacIntel,60,13242,,,,,0,97,97,22,1,,,,,,,,,,,,,,,,,,,,,,,,,,,,,,,,,,,,,,,,,,,,,,,,,,,,,,,,
,,,,,,,,,,,,l,0.21812,Correct!,,,,,,t3.png,t1.png,2,0.056466,19,Female,2020-09-28_13h30.00.964,torte-2b,2020.1.3,MacIntel,60,13242,,,,,0,98,98,29,1,,,,,,,,,,,,,,,,,,,,,,,,,,,,,,,,,,,,,,,,,,,,,,,,,,,,,,,,
,,,,,,,,,,,,l,0.30496,Correct!,,,,,,t4.png,t2.png,2,0.059078,19,Female,2020-09-28_13h30.00.964,torte-2b,2020.1.3,MacIntel,60,13242,,,,,0,99,99,110,1,,,,,,,,,,,,,,,,,,,,,,,,,,,,,,,,,,,,,,,,,,,,,,,,,,,,,,,,
,,,,,,,,,,,,l,0.26568,Correct!,,,,,,t5.png,t2.png,3,0.0000131,19,Female,2020-09-28_13h30.00.964,torte-2b,2020.1.3,MacIntel,60,13242,,,,,0,100,100,91,1,,,,,,,,,,,,,,,,,,,,,,,,,,,,,,,,,,,,,,,,,,,,,,,,,,,,,,,,
,,,,,,,,,,,,l,0.38389,Correct!,,,,,,t2.png,t5.png,3,0.0000131,19,Female,2020-09-28_13h30.00.964,torte-2b,2020.1.3,MacIntel,60,13242,,,,,0,101,101,66,1,,,,,,,,,,,,,,,,,,,,,,,,,,,,,,,,,,,,,,,,,,,,,,,,,,,,,,,,
,,,,,,,,,,,,a,0.583635,Correct!,,,,,,t2.png,t3.png,1,0.90855,19,Female,2020-09-28_13h30.00.964,torte-2b,2020.1.3,MacIntel,60,13242,,,,,0,102,102,68,1,,,,,,,,,,,,,,,,,,,,,,,,,,,,,,,,,,,,,,,,,,,,,,,,,,,,,,,,
,,,,,,,,,,,,l,0.500505,Correct!,,,,,,t5.png,t3.png,2,0.0565,19,Female,2020-09-28_13h30.00.964,torte-2b,2020.1.3,MacIntel,60,13242,,,,,0,103,103,39,1,,,,,,,,,,,,,,,,,,,,,,,,,,,,,,,,,,,,,,,,,,,,,,,,,,,,,,,,
,,,,,,,,,,,,a,0.634035,Correct!,,,,,,t1.png,t2.png,1,0.90025,19,Female,2020-09-28_13h30.00.964,torte-2b,2020.1.3,MacIntel,60,13242,,,,,0,104,104,105,1,,,,,,,,,,,,,,,,,,,,,,,,,,,,,,,,,,,,,,,,,,,,,,,,,,,,,,,,
,,,,,,,,,,,,a,0.38346,Correct!,,,,,,t2.png,t2.png,0,0.98115,19,Female,2020-09-28_13h30.00.964,torte-2b,2020.1.3,MacIntel,60,13242,,,,,0,105,105,7,1,,,,,,,,,,,,,,,,,,,,,,,,,,,,,,,,,,,,,,,,,,,,,,,,,,,,,,,,
,,,,,,,,,,,,a,0.486415,Incorrect,,,,,,t5.png,t1.png,4,9.55E-11,19,Female,2020-09-28_13h30.00.964,torte-2b,2020.1.3,MacIntel,60,13242,,,,,0,106,106,100,1,,,,,,,,,,,,,,,,,,,,,,,,,,,,,,,,,,,,,,,,,,,,,,,,,,,,,,,,
,,,,,,,,,,,,a,0.099475,Incorrect,,,,,,t1.png,t5.png,4,9.55E-11,19,Female,2020-09-28_13h30.00.964,torte-2b,2020.1.3,MacIntel,60,13242,,,,,0,107,107,85,1,,,,,,,,,,,,,,,,,,,,,,,,,,,,,,,,,,,,,,,,,,,,,,,,,,,,,,,,
,,,,,,,,,,,,l,0.768075,Incorrect,,,,,,t4.png,t3.png,1,0.90855,19,Female,2020-09-28_13h30.00.964,torte-2b,2020.1.3,MacIntel,60,13242,,,,,0,108,108,75,1,,,,,,,,,,,,,,,,,,,,,,,,,,,,,,,,,,,,,,,,,,,,,,,,,,,,,,,,
,,,,,,,,,,,,l,2.13591,Correct!,,,,,,t4.png,t1.png,3,0.0000131,19,Female,2020-09-28_13h30.00.964,torte-2b,2020.1.3,MacIntel,60,13242,,,,,0,109,109,48,1,,,,,,,,,,,,,,,,,,,,,,,,,,,,,,,,,,,,,,,,,,,,,,,,,,,,,,,,
,,,,,,,,,,,,a,1.284935,Incorrect,,,,,,t1.png,t5.png,4,9.55E-11,19,Female,2020-09-28_13h30.00.964,torte-2b,2020.1.3,MacIntel,60,13242,,,,,0,110,110,12,1,,,,,,,,,,,,,,,,,,,,,,,,,,,,,,,,,,,,,,,,,,,,,,,,,,,,,,,,
,,,,,,,,,,,,l,1.483955,Correct!,,,,,,t1.png,t3.png,2,0.056466,19,Female,2020-09-28_13h30.00.964,torte-2b,2020.1.3,MacIntel,60,13242,,,,,0,111,111,63,1,,,,,,,,,,,,,,,,,,,,,,,,,,,,,,,,,,,,,,,,,,,,,,,,,,,,,,,,
,,,,,,,,,,,,a,0.7696,Correct!,,,,,,t5.png,t5.png,0,0.978,19,Female,2020-09-28_13h30.00.964,torte-2b,2020.1.3,MacIntel,60,13242,,,,,0,112,112,117,1,,,,,,,,,,,,,,,,,,,,,,,,,,,,,,,,,,,,,,,,,,,,,,,,,,,,,,,,
,,,,,,,,,,,,l,0.60007,Correct!,,,,,,t1.png,t5.png,4,9.55E-11,19,Female,2020-09-28_13h30.00.964,torte-2b,2020.1.3,MacIntel,60,13242,,,,,0,113,113,16,1,,,,,,,,,,,,,,,,,,,,,,,,,,,,,,,,,,,,,,,,,,,,,,,,,,,,,,,,
,,,,,,,,,,,,a,0.667625,Incorrect,,,,,,t2.png,t4.png,2,0.059078,19,Female,2020-09-28_13h30.00.964,torte-2b,2020.1.3,MacIntel,60,13242,,,,,0,114,114,11,1,,,,,,,,,,,,,,,,,,,,,,,,,,,,,,,,,,,,,,,,,,,,,,,,,,,,,,,,
,,,,,,,,,,,,a,0.50068,Incorrect,,,,,,t3.png,t5.png,2,0.056466,19,Female,2020-09-28_13h30.00.964,torte-2b,2020.1.3,MacIntel,60,13242,,,,,0,115,115,14,1,,,,,,,,,,,,,,,,,,,,,,,,,,,,,,,,,,,,,,,,,,,,,,,,,,,,,,,,
,,,,,,,,,,,,a,0.51581,Correct!,,,,,,t2.png,t3.png,1,0.90855,19,Female,2020-09-28_13h30.00.964,torte-2b,2020.1.3,MacIntel,60,13242,,,,,0,116,116,111,1,,,,,,,,,,,,,,,,,,,,,,,,,,,,,,,,,,,,,,,,,,,,,,,,,,,,,,,,
,,,,,,,,,,,,l,0.917385,Correct!,,,,,,t5.png,t2.png,3,0.0000131,19,Female,2020-09-28_13h30.00.964,torte-2b,2020.1.3,MacIntel,60,13242,,,,,0,117,117,51,1,,,,,,,,,,,,,,,,,,,,,,,,,,,,,,,,,,,,,,,,,,,,,,,,,,,,,,,,
,,,,,,,,,,,,a,0.80445,Correct!,,,,,,t5.png,t4.png,1,0.90025,19,Female,2020-09-28_13h30.00.964,torte-2b,2020.1.3,MacIntel,60,13242,,,,,0,118,118,34,1,,,,,,,,,,,,,,,,,,,,,,,,,,,,,,,,,,,,,,,,,,,,,,,,,,,,,,,,
,,,,,,,,,,,,l,0.967765,Correct!,,,,,,t5.png,t2.png,3,0.0000131,19,Female,2020-09-28_13h30.00.964,torte-2b,2020.1.3,MacIntel,60,13242,,,,,0,119,119,116,1,,,,,,,,,,,,,,,,,,,,,,,,,,,,,,,,,,,,,,,,,,,,,,,,,,,,,,,,
,,,,,,,,,,,,,,,,,,,,,,,,19,Female,2020-09-28_13h30.00.964,torte-2b,2020.1.3,MacIntel,60,13242,space,1.28581,,,,,,,,space,50.3585,,0,0,0,0,1,6,,,,,,,,,,,,,,,,,,,,,,,,,,,,,,,,,,,,,,,,,,,,,,,
,,,,,,,,,,,,,,,,,,,,,,,,19,Female,2020-09-28_13h30.00.964,torte-2b,2020.1.3,MacIntel,60,13242,,,,,,,,,,,,,0,1,1,1,1,7,,,,,,,,,,,,,,,,,,,,,,,,,,,,,,,,,,,,,,,,,,,,,,,
,,,,,,,,,,,,,,,,,,,,,,,,19,Female,2020-09-28_13h30.00.964,torte-2b,2020.1.3,MacIntel,60,13242,,,,,,,,,,,,,0,2,2,2,1,6,,,,,,,,,,,,,,,,,,,,,,,,,,,,,,,,,,,,,,,,,,,,,,,
,,,,,,,,,,,,,,,,,,,,,,,,19,Female,2020-09-28_13h30.00.964,torte-2b,2020.1.3,MacIntel,60,13242,,,,,,,,,,,,space,0,3,3,3,1,7,0.304095,,,,,,,,,,,,,,,,,,,,,,,,,,,,,,,,,,,,,,,,,,,,,,
,,,,,,,,,,,,,,,,,,,,,,,,19,Female,2020-09-28_13h30.00.964,torte-2b,2020.1.3,MacIntel,60,13242,,,,,,,,,,,,,0,4,4,4,1,5,,,,,,,,,,,,,,,,,,,,,,,,,,,,,,,,,,,,,,,,,,,,,,,
,,,,,,,,,,,,,,,,,,,,,,,,19,Female,2020-09-28_13h30.00.964,torte-2b,2020.1.3,MacIntel,60,13242,,,,,,,,,,,,space,0,5,5,5,1,7,0.43679,,,,,,,,,,,,,,,,,,,,,,,,,,,,,,,,,,,,,,,,,,,,,,
,,,,,,,,,,,,,,,,,,,,,,,,19,Female,2020-09-28_13h30.00.964,torte-2b,2020.1.3,MacIntel,60,13242,,,,,,,,,,,,,0,6,6,6,1,2,,,,,,,,,,,,,,,,,,,,,,,,,,,,,,,,,,,,,,,,,,,,,,,
,,,,,,,,,,,,,,,,,,,,,,,,19,Female,2020-09-28_13h30.00.964,torte-2b,2020.1.3,MacIntel,60,13242,,,,,,,,,,,,,0,7,7,7,1,4,,,,,,,,,,,,,,,,,,,,,,,,,,,,,,,,,,,,,,,,,,,,,,,
,,,,,,,,,,,,,,,,,,,,,,,,19,Female,2020-09-28_13h30.00.964,torte-2b,2020.1.3,MacIntel,60,13242,,,,,,,,,,,,,0,8,8,8,1,7,,,,,,,,,,,,,,,,,,,,,,,,,,,,,,,,,,,,,,,,,,,,,,,
,,,,,,,,,,,,,,,,,,,,,,,,19,Female,2020-09-28_13h30.00.964,torte-2b,2020.1.3,MacIntel,60,13242,,,,,,,,,,,,space,0,9,9,9,1,4,0.41711,,,,,,,,,,,,,,,,,,,,,,,,,,,,,,,,,,,,,,,,,,,,,,
,,,,,,,,,,,,,,,,,,,,,,,,19,Female,2020-09-28_13h30.00.964,torte-2b,2020.1.3,MacIntel,60,13242,,,,,,,,,,,,space,0,10,10,10,1,7,0.78407,,,,,,,,,,,,,,,,,,,,,,,,,,,,,,,,,,,,,,,,,,,,,,
,,,,,,,,,,,,,,,,,,,,,,,,19,Female,2020-09-28_13h30.00.964,torte-2b,2020.1.3,MacIntel,60,13242,,,,,,,,,,,,,0,11,11,11,1,7,,,,,,,,,,,,,,,,,,,,,,,,,,,,,,,,,,,,,,,,,,,,,,,
,,,,,,,,,,,,,,,,,,,,,,,,19,Female,2020-09-28_13h30.00.964,torte-2b,2020.1.3,MacIntel,60,13242,,,,,,,,,,,,space,0,12,12,12,1,7,0.6326,,,,,,,,,,,,,,,,,,,,,,,,,,,,,,,,,,,,,,,,,,,,,,
,,,,,,,,,,,,,,,,,,,,,,,,19,Female,2020-09-28_13h30.00.964,torte-2b,2020.1.3,MacIntel,60,13242,,,,,,,,,,,,,0,13,13,13,1,4,,,,,,,,,,,,,,,,,,,,,,,,,,,,,,,,,,,,,,,,,,,,,,,
,,,,,,,,,,,,,,,,,,,,,,,,19,Female,2020-09-28_13h30.00.964,torte-2b,2020.1.3,MacIntel,60,13242,,,,,,,,,,,,,0,14,14,14,1,6,,,,,,,,,,,,,,,,,,,,,,,,,,,,,,,,,,,,,,,,,,,,,,,
,,,,,,,,,,,,,,,,,,,,,,,,19,Female,2020-09-28_13h30.00.964,torte-2b,2020.1.3,MacIntel,60,13242,,,,,,,,,,,,space,0,15,15,15,1,4,0.382625,,,,,,,,,,,,,,,,,,,,,,,,,,,,,,,,,,,,,,,,,,,,,,
,,,,,,,,,,,,,,,,,,,,,,,,19,Female,2020-09-28_13h30.00.964,torte-2b,2020.1.3,MacIntel,60,13242,,,,,,,,,,,,,0,16,16,16,1,6,,,,,,,,,,,,,,,,,,,,,,,,,,,,,,,,,,,,,,,,,,,,,,,
,,,,,,,,,,,,,,,,,,,,,,,,19,Female,2020-09-28_13h30.00.964,torte-2b,2020.1.3,MacIntel,60,13242,,,,,,,,,,,,,0,17,17,17,1,7,,,,,,,,,,,,,,,,,,,,,,,,,,,,,,,,,,,,,,,,,,,,,,,
,,,,,,,,,,,,,,,,,,,,,,,,19,Female,2020-09-28_13h30.00.964,torte-2b,2020.1.3,MacIntel,60,13242,,,,,,,,,,,,space,0,18,18,18,1,6,0.52071,,,,,,,,,,,,,,,,,,,,,,,,,,,,,,,,,,,,,,,,,,,,,,
,,,,,,,,,,,,,,,,,,,,,,,,19,Female,2020-09-28_13h30.00.964,torte-2b,2020.1.3,MacIntel,60,13242,,,,,,,,,,,,space,0,19,19,19,1,7,0.417795,,,,,,,,,,,,,,,,,,,,,,,,,,,,,,,,,,,,,,,,,,,,,,
,,,,,,,,,,,,,,,,,,,,,,,,19,Female,2020-09-28_13h30.00.964,torte-2b,2020.1.3,MacIntel,60,13242,,,,,,,,,,,,,0,20,20,20,1,5,,,,,,,,,,,,,,,,,,,,,,,,,,,,,,,,,,,,,,,,,,,,,,,
,,,,,,,,,,,,,,,,,,,,,,,,19,Female,2020-09-28_13h30.00.964,torte-2b,2020.1.3,MacIntel,60,13242,,,,,,,,,,,,,0,21,21,21,1,1,,,,,,,,,,,,,,,,,,,,,,,,,,,,,,,,,,,,,,,,,,,,,,,
,,,,,,,,,,,,,,,,,,,,,,,,19,Female,2020-09-28_13h30.00.964,torte-2b,2020.1.3,MacIntel,60,13242,,,,,,,,,,,,space,0,22,22,22,1,6,0.351355,,,,,,,,,,,,,,,,,,,,,,,,,,,,,,,,,,,,,,,,,,,,,,
,,,,,,,,,,,,,,,,,,,,,,,,19,Female,2020-09-28_13h30.00.964,torte-2b,2020.1.3,MacIntel,60,13242,,,,,,,,,,,,space,0,23,23,23,1,1,0.800595,,,,,,,,,,,,,,,,,,,,,,,,,,,,,,,,,,,,,,,,,,,,,,
,,,,,,,,,,,,,,,,,,,,,,,,19,Female,2020-09-28_13h30.00.964,torte-2b,2020.1.3,MacIntel,60,13242,,,,,,,,,,,,,0,24,24,24,1,5,,,,,,,,,,,,,,,,,,,,,,,,,,,,,,,,,,,,,,,,,,,,,,,
,,,,,,,,,,,,,,,,,,,,,,,,19,Female,2020-09-28_13h30.00.964,torte-2b,2020.1.3,MacIntel,60,13242,,,,,,,,,,,,,0,25,25,25,1,6,,,,,,,,,,,,,,,,,,,,,,,,,,,,,,,,,,,,,,,,,,,,,,,
,,,,,,,,,,,,,,,,,,,,,,,,19,Female,2020-09-28_13h30.00.964,torte-2b,2020.1.3,MacIntel,60,13242,,,,,,,,,,,,,0,26,26,26,1,6,,,,,,,,,,,,,,,,,,,,,,,,,,,,,,,,,,,,,,,,,,,,,,,
,,,,,,,,,,,,,,,,,,,,,,,,19,Female,2020-09-28_13h30.00.964,torte-2b,2020.1.3,MacIntel,60,13242,,,,,,,,,,,,space,0,27,27,27,1,6,0.41764,,,,,,,,,,,,,,,,,,,,,,,,,,,,,,,,,,,,,,,,,,,,,,
,,,,,,,,,,,,,,,,,,,,,,,,19,Female,2020-09-28_13h30.00.964,torte-2b,2020.1.3,MacIntel,60,13242,,,,,,,,,,,,,0,28,28,28,1,5,,,,,,,,,,,,,,,,,,,,,,,,,,,,,,,,,,,,,,,,,,,,,,,
,,,,,,,,,,,,,,,,,,,,,,,,19,Female,2020-09-28_13h30.00.964,torte-2b,2020.1.3,MacIntel,60,13242,,,,,,,,,,,,,0,29,29,29,1,2,,,,,,,,,,,,,,,,,,,,,,,,,,,,,,,,,,,,,,,,,,,,,,,
,,,,,,,,,,,,,,,,,,,,,,,,19,Female,2020-09-28_13h30.00.964,torte-2b,2020.1.3,MacIntel,60,13242,,,,,,,,,,,,,0,30,30,30,1,5,,,,,,,,,,,,,,,,,,,,,,,,,,,,,,,,,,,,,,,,,,,,,,,
,,,,,,,,,,,,,,,,,,,,,,,,19,Female,2020-09-28_13h30.00.964,torte-2b,2020.1.3,MacIntel,60,13242,,,,,,,,,,,,,0,31,31,31,1,2,,,,,,,,,,,,,,,,,,,,,,,,,,,,,,,,,,,,,,,,,,,,,,,
,,,,,,,,,,,,,,,,,,,,,,,,19,Female,2020-09-28_13h30.00.964,torte-2b,2020.1.3,MacIntel,60,13242,,,,,,,,,,,,space,0,32,32,32,1,5,0.38346,,,,,,,,,,,,,,,,,,,,,,,,,,,,,,,,,,,,,,,,,,,,,,
,,,,,,,,,,,,,,,,,,,,,,,,19,Female,2020-09-28_13h30.00.964,torte-2b,2020.1.3,MacIntel,60,13242,,,,,,,,,,,,space,0,33,33,33,1,1,0.368725,,,,,,,,,,,,,,,,,,,,,,,,,,,,,,,,,,,,,,,,,,,,,,
,,,,,,,,,,,,,,,,,,,,,,,,19,Female,2020-09-28_13h30.00.964,torte-2b,2020.1.3,MacIntel,60,13242,,,,,,,,,,,,,0,34,34,34,1,1,,,,,,,,,,,,,,,,,,,,,,,,,,,,,,,,,,,,,,,,,,,,,,,
,,,,,,,,,,,,,,,,,,,,,,,,19,Female,2020-09-28_13h30.00.964,torte-2b,2020.1.3,MacIntel,60,13242,,,,,,,,,,,,,,,,,,2,,0,0,0,0,1,,,,,,,,,,,,,,,,,,,,,,,,,,,,,,,,,,,,,,,,,
,,,,,,,,,,,,,,,,,,,,,,,,19,Female,2020-09-28_13h30.00.964,torte-2b,2020.1.3,MacIntel,60,13242,,,,,,,,,,,,,,,,,,2,,0,1,1,1,1,,,,,,,,,,,,,,,,,,,,,,,,,,,,,,,,,,,,,,,,,
,,,,,,,,,,,,,,,,,,,,,,,,19,Female,2020-09-28_13h30.00.964,torte-2b,2020.1.3,MacIntel,60,13242,,,,,,,,,,,,,,,,,,6,,0,2,2,2,1,,,,,,,,,,,,,,,,,,,,,,,,,,,,,,,,,,,,,,,,,
,,,,,,,,,,,,,,,,,,,,,,,,19,Female,2020-09-28_13h30.00.964,torte-2b,2020.1.3,MacIntel,60,13242,,,,,,,,,,,,space,,,,,,2,0.37099,0,3,3,3,1,,,,,,,,,,,,,,,,,,,,,,,,,,,,,,,,,,,,,,,,,
,,,,,,,,,,,,,,,,,,,,,,,,19,Female,2020-09-28_13h30.00.964,torte-2b,2020.1.3,MacIntel,60,13242,,,,,,,,,,,,,,,,,,6,,0,4,4,4,1,,,,,,,,,,,,,,,,,,,,,,,,,,,,,,,,,,,,,,,,,
,,,,,,,,,,,,,,,,,,,,,,,,19,Female,2020-09-28_13h30.00.964,torte-2b,2020.1.3,MacIntel,60,13242,,,,,,,,,,,,space,,,,,,2,0.49867,0,5,5,5,1,,,,,,,,,,,,,,,,,,,,,,,,,,,,,,,,,,,,,,,,,
,,,,,,,,,,,,,,,,,,,,,,,,19,Female,2020-09-28_13h30.00.964,torte-2b,2020.1.3,MacIntel,60,13242,,,,,,,,,,,,,,,,,,7,,0,6,6,6,1,,,,,,,,,,,,,,,,,,,,,,,,,,,,,,,,,,,,,,,,,
,,,,,,,,,,,,,,,,,,,,,,,,19,Female,2020-09-28_13h30.00.964,torte-2b,2020.1.3,MacIntel,60,13242,,,,,,,,,,,,space,,,,,,2,0.43544,0,7,7,7,1,,,,,,,,,,,,,,,,,,,,,,,,,,,,,,,,,,,,,,,,,
,,,,,,,,,,,,,,,,,,,,,,,,19,Female,2020-09-28_13h30.00.964,torte-2b,2020.1.3,MacIntel,60,13242,,,,,,,,,,,,space,,,,,,7,0.903855,0,8,8,8,1,,,,,,,,,,,,,,,,,,,,,,,,,,,,,,,,,,,,,,,,,
,,,,,,,,,,,,,,,,,,,,,,,,19,Female,2020-09-28_13h30.00.964,torte-2b,2020.1.3,MacIntel,60,13242,,,,,,,,,,,,space,,,,,,2,0.399725,0,9,9,9,1,,,,,,,,,,,,,,,,,,,,,,,,,,,,,,,,,,,,,,,,,
,,,,,,,,,,,,,,,,,,,,,,,,19,Female,2020-09-28_13h30.00.964,torte-2b,2020.1.3,MacIntel,60,13242,,,,,,,,,,,,,,,,,,5,,0,10,10,10,1,,,,,,,,,,,,,,,,,,,,,,,,,,,,,,,,,,,,,,,,,
,,,,,,,,,,,,,,,,,,,,,,,,19,Female,2020-09-28_13h30.00.964,torte-2b,2020.1.3,MacIntel,60,13242,,,,,,,,,,,,,,,,,,4,,0,11,11,11,1,,,,,,,,,,,,,,,,,,,,,,,,,,,,,,,,,,,,,,,,,
,,,,,,,,,,,,,,,,,,,,,,,,19,Female,2020-09-28_13h30.00.964,torte-2b,2020.1.3,MacIntel,60,13242,,,,,,,,,,,,,,,,,,5,,0,12,12,12,1,,,,,,,,,,,,,,,,,,,,,,,,,,,,,,,,,,,,,,,,,
,,,,,,,,,,,,,,,,,,,,,,,,19,Female,2020-09-28_13h30.00.964,torte-2b,2020.1.3,MacIntel,60,13242,,,,,,,,,,,,space,,,,,,6,0.35035,0,13,13,13,1,,,,,,,,,,,,,,,,,,,,,,,,,,,,,,,,,,,,,,,,,
,,,,,,,,,,,,,,,,,,,,,,,,19,Female,2020-09-28_13h30.00.964,torte-2b,2020.1.3,MacIntel,60,13242,,,,,,,,,,,,,,,,,,5,,0,14,14,14,1,,,,,,,,,,,,,,,,,,,,,,,,,,,,,,,,,,,,,,,,,
,,,,,,,,,,,,,,,,,,,,,,,,19,Female,2020-09-28_13h30.00.964,torte-2b,2020.1.3,MacIntel,60,13242,,,,,,,,,,,,,,,,,,4,,0,15,15,15,1,,,,,,,,,,,,,,,,,,,,,,,,,,,,,,,,,,,,,,,,,
,,,,,,,,,,,,,,,,,,,,,,,,19,Female,2020-09-28_13h30.00.964,torte-2b,2020.1.3,MacIntel,60,13242,,,,,,,,,,,,,,,,,,5,,0,16,16,16,1,,,,,,,,,,,,,,,,,,,,,,,,,,,,,,,,,,,,,,,,,
,,,,,,,,,,,,,,,,,,,,,,,,19,Female,2020-09-28_13h30.00.964,torte-2b,2020.1.3,MacIntel,60,13242,,,,,,,,,,,,,,,,,,3,,0,17,17,17,1,,,,,,,,,,,,,,,,,,,,,,,,,,,,,,,,,,,,,,,,,
,,,,,,,,,,,,,,,,,,,,,,,,19,Female,2020-09-28_13h30.00.964,torte-2b,2020.1.3,MacIntel,60,13242,,,,,,,,,,,,,,,,,,6,,0,18,18,18,1,,,,,,,,,,,,,,,,,,,,,,,,,,,,,,,,,,,,,,,,,
,,,,,,,,,,,,,,,,,,,,,,,,19,Female,2020-09-28_13h30.00.964,torte-2b,2020.1.3,MacIntel,60,13242,,,,,,,,,,,,space,,,,,,6,0.36949,0,19,19,19,1,,,,,,,,,,,,,,,,,,,,,,,,,,,,,,,,,,,,,,,,,
,,,,,,,,,,,,,,,,,,,,,,,,19,Female,2020-09-28_13h30.00.964,torte-2b,2020.1.3,MacIntel,60,13242,,,,,,,,,,,,,,,,,,6,,0,20,20,20,1,,,,,,,,,,,,,,,,,,,,,,,,,,,,,,,,,,,,,,,,,
,,,,,,,,,,,,,,,,,,,,,,,,19,Female,2020-09-28_13h30.00.964,torte-2b,2020.1.3,MacIntel,60,13242,,,,,,,,,,,,,,,,,,4,,0,21,21,21,1,,,,,,,,,,,,,,,,,,,,,,,,,,,,,,,,,,,,,,,,,
,,,,,,,,,,,,,,,,,,,,,,,,19,Female,2020-09-28_13h30.00.964,torte-2b,2020.1.3,MacIntel,60,13242,,,,,,,,,,,,,,,,,,6,,0,22,22,22,1,,,,,,,,,,,,,,,,,,,,,,,,,,,,,,,,,,,,,,,,,
,,,,,,,,,,,,,,,,,,,,,,,,19,Female,2020-09-28_13h30.00.964,torte-2b,2020.1.3,MacIntel,60,13242,,,,,,,,,,,,space,,,,,,4,0.46705,0,23,23,23,1,,,,,,,,,,,,,,,,,,,,,,,,,,,,,,,,,,,,,,,,,
,,,,,,,,,,,,,,,,,,,,,,,,19,Female,2020-09-28_13h30.00.964,torte-2b,2020.1.3,MacIntel,60,13242,,,,,,,,,,,,,,,,,,6,,0,24,24,24,1,,,,,,,,,,,,,,,,,,,,,,,,,,,,,,,,,,,,,,,,,
,,,,,,,,,,,,,,,,,,,,,,,,19,Female,2020-09-28_13h30.00.964,torte-2b,2020.1.3,MacIntel,60,13242,,,,,,,,,,,,space,,,,,,6,0.434405,0,25,25,25,1,,,,,,,,,,,,,,,,,,,,,,,,,,,,,,,,,,,,,,,,,
,,,,,,,,,,,,,,,,,,,,,,,,19,Female,2020-09-28_13h30.00.964,torte-2b,2020.1.3,MacIntel,60,13242,,,,,,,,,,,,,,,,,,7,,0,26,26,26,1,,,,,,,,,,,,,,,,,,,,,,,,,,,,,,,,,,,,,,,,,
,,,,,,,,,,,,,,,,,,,,,,,,19,Female,2020-09-28_13h30.00.964,torte-2b,2020.1.3,MacIntel,60,13242,,,,,,,,,,,,,,,,,,1,,0,27,27,27,1,,,,,,,,,,,,,,,,,,,,,,,,,,,,,,,,,,,,,,,,,
,,,,,,,,,,,,,,,,,,,,,,,,19,Female,2020-09-28_13h30.00.964,torte-2b,2020.1.3,MacIntel,60,13242,,,,,,,,,,,,space,,,,,,7,0.46933,0,28,28,28,1,,,,,,,,,,,,,,,,,,,,,,,,,,,,,,,,,,,,,,,,,
,,,,,,,,,,,,,,,,,,,,,,,,19,Female,2020-09-28_13h30.00.964,torte-2b,2020.1.3,MacIntel,60,13242,,,,,,,,,,,,,,,,,,4,,0,29,29,29,1,,,,,,,,,,,,,,,,,,,,,,,,,,,,,,,,,,,,,,,,,
,,,,,,,,,,,,,,,,,,,,,,,,19,Female,2020-09-28_13h30.00.964,torte-2b,2020.1.3,MacIntel,60,13242,,,,,,,,,,,,,,,,,,7,,0,30,30,30,1,,,,,,,,,,,,,,,,,,,,,,,,,,,,,,,,,,,,,,,,,
,,,,,,,,,,,,,,,,,,,,,,,,19,Female,2020-09-28_13h30.00.964,torte-2b,2020.1.3,MacIntel,60,13242,,,,,,,,,,,,,,,,,,3,,0,31,31,31,1,,,,,,,,,,,,,,,,,,,,,,,,,,,,,,,,,,,,,,,,,
,,,,,,,,,,,,,,,,,,,,,,,,19,Female,2020-09-28_13h30.00.964,torte-2b,2020.1.3,MacIntel,60,13242,,,,,,,,,,,,,,,,,,2,,0,32,32,32,1,,,,,,,,,,,,,,,,,,,,,,,,,,,,,,,,,,,,,,,,,
,,,,,,,,,,,,,,,,,,,,,,,,19,Female,2020-09-28_13h30.00.964,torte-2b,2020.1.3,MacIntel,60,13242,,,,,,,,,,,,,,,,,,6,,0,33,33,33,1,,,,,,,,,,,,,,,,,,,,,,,,,,,,,,,,,,,,,,,,,
,,,,,,,,,,,,,,,,,,,,,,,,19,Female,2020-09-28_13h30.00.964,torte-2b,2020.1.3,MacIntel,60,13242,,,,,,,,,,,,,,,,,,3,,0,34,34,34,1,,,,,,,,,,,,,,,,,,,,,,,,,,,,,,,,,,,,,,,,,
,,,,,,,,,,,,,,,,,,,,,,,,19,Female,2020-09-28_13h30.00.964,torte-2b,2020.1.3,MacIntel,60,13242,,,,,,,,,,,,,,,,,,7,,,,,,,0,0,0,0,1,,,,,,,,,,,,,,,,,,,,,,,,,,,,,,,,,,,,
,,,,,,,,,,,,,,,,,,,,,,,,19,Female,2020-09-28_13h30.00.964,torte-2b,2020.1.3,MacIntel,60,13242,,,,,,,,,,,,,,,,,,5,,,,,,,0,1,1,1,1,,,,,,,,,,,,,,,,,,,,,,,,,,,,,,,,,,,,
,,,,,,,,,,,,,,,,,,,,,,,,19,Female,2020-09-28_13h30.00.964,torte-2b,2020.1.3,MacIntel,60,13242,,,,,,,,,,,,,,,,,,4,,,,,,,0,2,2,2,1,,,,,,,,,,,,,,,,,,,,,,,,,,,,,,,,,,,,
,,,,,,,,,,,,,,,,,,,,,,,,19,Female,2020-09-28_13h30.00.964,torte-2b,2020.1.3,MacIntel,60,13242,,,,,,,,,,,,space,,,,,,5,0.45186,,,,,,0,3,3,3,1,,,,,,,,,,,,,,,,,,,,,,,,,,,,,,,,,,,,
,,,,,,,,,,,,,,,,,,,,,,,,19,Female,2020-09-28_13h30.00.964,torte-2b,2020.1.3,MacIntel,60,13242,,,,,,,,,,,,,,,,,,6,,,,,,,0,4,4,4,1,,,,,,,,,,,,,,,,,,,,,,,,,,,,,,,,,,,,
,,,,,,,,,,,,,,,,,,,,,,,,19,Female,2020-09-28_13h30.00.964,torte-2b,2020.1.3,MacIntel,60,13242,,,,,,,,,,,,space,,,,,,5,0.45113,,,,,,0,5,5,5,1,,,,,,,,,,,,,,,,,,,,,,,,,,,,,,,,,,,,
,,,,,,,,,,,,,,,,,,,,,,,,19,Female,2020-09-28_13h30.00.964,torte-2b,2020.1.3,MacIntel,60,13242,,,,,,,,,,,,,,,,,,3,,,,,,,0,6,6,6,1,,,,,,,,,,,,,,,,,,,,,,,,,,,,,,,,,,,,
,,,,,,,,,,,,,,,,,,,,,,,,19,Female,2020-09-28_13h30.00.964,torte-2b,2020.1.3,MacIntel,60,13242,,,,,,,,,,,,space,,,,,,4,0.56595,,,,,,0,7,7,7,1,,,,,,,,,,,,,,,,,,,,,,,,,,,,,,,,,,,,
,,,,,,,,,,,,,,,,,,,,,,,,19,Female,2020-09-28_13h30.00.964,torte-2b,2020.1.3,MacIntel,60,13242,,,,,,,,,,,,,,,,,,3,,,,,,,0,8,8,8,1,,,,,,,,,,,,,,,,,,,,,,,,,,,,,,,,,,,,
,,,,,,,,,,,,,,,,,,,,,,,,19,Female,2020-09-28_13h30.00.964,torte-2b,2020.1.3,MacIntel,60,13242,,,,,,,,,,,,,,,,,,1,,,,,,,0,9,9,9,1,,,,,,,,,,,,,,,,,,,,,,,,,,,,,,,,,,,,
,,,,,,,,,,,,,,,,,,,,,,,,19,Female,2020-09-28_13h30.00.964,torte-2b,2020.1.3,MacIntel,60,13242,,,,,,,,,,,,,,,,,,2,,,,,,,0,10,10,10,1,,,,,,,,,,,,,,,,,,,,,,,,,,,,,,,,,,,,
,,,,,,,,,,,,,,,,,,,,,,,,19,Female,2020-09-28_13h30.00.964,torte-2b,2020.1.3,MacIntel,60,13242,,,,,,,,,,,,,,,,,,1,,,,,,,0,11,11,11,1,,,,,,,,,,,,,,,,,,,,,,,,,,,,,,,,,,,,
,,,,,,,,,,,,,,,,,,,,,,,,19,Female,2020-09-28_13h30.00.964,torte-2b,2020.1.3,MacIntel,60,13242,,,,,,,,,,,,,,,,,,2,,,,,,,0,12,12,12,1,,,,,,,,,,,,,,,,,,,,,,,,,,,,,,,,,,,,
,,,,,,,,,,,,,,,,,,,,,,,,19,Female,2020-09-28_13h30.00.964,torte-2b,2020.1.3,MacIntel,60,13242,,,,,,,,,,,,,,,,,,1,,,,,,,0,13,13,13,1,,,,,,,,,,,,,,,,,,,,,,,,,,,,,,,,,,,,
,,,,,,,,,,,,,,,,,,,,,,,,19,Female,2020-09-28_13h30.00.964,torte-2b,2020.1.3,MacIntel,60,13242,,,,,,,,,,,,,,,,,,3,,,,,,,0,14,14,14,1,,,,,,,,,,,,,,,,,,,,,,,,,,,,,,,,,,,,
,,,,,,,,,,,,,,,,,,,,,,,,19,Female,2020-09-28_13h30.00.964,torte-2b,2020.1.3,MacIntel,60,13242,,,,,,,,,,,,space,,,,,,1,0.617915,,,,,,0,15,15,15,1,,,,,,,,,,,,,,,,,,,,,,,,,,,,,,,,,,,,
,,,,,,,,,,,,,,,,,,,,,,,,19,Female,2020-09-28_13h30.00.964,torte-2b,2020.1.3,MacIntel,60,13242,,,,,,,,,,,,,,,,,,7,,,,,,,0,16,16,16,1,,,,,,,,,,,,,,,,,,,,,,,,,,,,,,,,,,,,
,,,,,,,,,,,,,,,,,,,,,,,,19,Female,2020-09-28_13h30.00.964,torte-2b,2020.1.3,MacIntel,60,13242,,,,,,,,,,,,,,,,,,7,,,,,,,0,17,17,17,1,,,,,,,,,,,,,,,,,,,,,,,,,,,,,,,,,,,,
,,,,,,,,,,,,,,,,,,,,,,,,19,Female,2020-09-28_13h30.00.964,torte-2b,2020.1.3,MacIntel,60,13242,,,,,,,,,,,,,,,,,,4,,,,,,,0,18,18,18,1,,,,,,,,,,,,,,,,,,,,,,,,,,,,,,,,,,,,
,,,,,,,,,,,,,,,,,,,,,,,,19,Female,2020-09-28_13h30.00.964,torte-2b,2020.1.3,MacIntel,60,13242,,,,,,,,,,,,space,,,,,,7,1.348875,,,,,,0,19,19,19,1,,,,,,,,,,,,,,,,,,,,,,,,,,,,,,,,,,,,
,,,,,,,,,,,,,,,,,,,,,,,,19,Female,2020-09-28_13h30.00.964,torte-2b,2020.1.3,MacIntel,60,13242,,,,,,,,,,,,,,,,,,3,,,,,,,0,20,20,20,1,,,,,,,,,,,,,,,,,,,,,,,,,,,,,,,,,,,,
,,,,,,,,,,,,,,,,,,,,,,,,19,Female,2020-09-28_13h30.00.964,torte-2b,2020.1.3,MacIntel,60,13242,,,,,,,,,,,,space,,,,,,7,0.4001,,,,,,0,21,21,21,1,,,,,,,,,,,,,,,,,,,,,,,,,,,,,,,,,,,,
,,,,,,,,,,,,,,,,,,,,,,,,19,Female,2020-09-28_13h30.00.964,torte-2b,2020.1.3,MacIntel,60,13242,,,,,,,,,,,,,,,,,,3,,,,,,,0,22,22,22,1,,,,,,,,,,,,,,,,,,,,,,,,,,,,,,,,,,,,
,,,,,,,,,,,,,,,,,,,,,,,,19,Female,2020-09-28_13h30.00.964,torte-2b,2020.1.3,MacIntel,60,13242,,,,,,,,,,,,space,,,,,,1,0.099625,,,,,,0,23,23,23,1,,,,,,,,,,,,,,,,,,,,,,,,,,,,,,,,,,,,
,,,,,,,,,,,,,,,,,,,,,,,,19,Female,2020-09-28_13h30.00.964,torte-2b,2020.1.3,MacIntel,60,13242,,,,,,,,,,,,,,,,,,6,,,,,,,0,24,24,24,1,,,,,,,,,,,,,,,,,,,,,,,,,,,,,,,,,,,,
,,,,,,,,,,,,,,,,,,,,,,,,19,Female,2020-09-28_13h30.00.964,torte-2b,2020.1.3,MacIntel,60,13242,,,,,,,,,,,,space,,,,,,3,0.549165,,,,,,0,25,25,25,1,,,,,,,,,,,,,,,,,,,,,,,,,,,,,,,,,,,,
,,,,,,,,,,,,,,,,,,,,,,,,19,Female,2020-09-28_13h30.00.964,torte-2b,2020.1.3,MacIntel,60,13242,,,,,,,,,,,,,,,,,,2,,,,,,,0,26,26,26,1,,,,,,,,,,,,,,,,,,,,,,,,,,,,,,,,,,,,
,,,,,,,,,,,,,,,,,,,,,,,,19,Female,2020-09-28_13h30.00.964,torte-2b,2020.1.3,MacIntel,60,13242,,,,,,,,,,,,,,,,,,3,,,,,,,0,27,27,27,1,,,,,,,,,,,,,,,,,,,,,,,,,,,,,,,,,,,,
,,,,,,,,,,,,,,,,,,,,,,,,19,Female,2020-09-28_13h30.00.964,torte-2b,2020.1.3,MacIntel,60,13242,,,,,,,,,,,,space,,,,,,1,0.53652,,,,,,0,28,28,28,1,,,,,,,,,,,,,,,,,,,,,,,,,,,,,,,,,,,,
,,,,,,,,,,,,,,,,,,,,,,,,19,Female,2020-09-28_13h30.00.964,torte-2b,2020.1.3,MacIntel,60,13242,,,,,,,,,,,,,,,,,,3,,,,,,,0,29,29,29,1,,,,,,,,,,,,,,,,,,,,,,,,,,,,,,,,,,,,
,,,,,,,,,,,,,,,,,,,,,,,,19,Female,2020-09-28_13h30.00.964,torte-2b,2020.1.3,MacIntel,60,13242,,,,,,,,,,,,,,,,,,1,,,,,,,0,30,30,30,1,,,,,,,,,,,,,,,,,,,,,,,,,,,,,,,,,,,,
,,,,,,,,,,,,,,,,,,,,,,,,19,Female,2020-09-28_13h30.00.964,torte-2b,2020.1.3,MacIntel,60,13242,,,,,,,,,,,,space,,,,,,7,0.435,,,,,,0,31,31,31,1,,,,,,,,,,,,,,,,,,,,,,,,,,,,,,,,,,,,
,,,,,,,,,,,,,,,,,,,,,,,,19,Female,2020-09-28_13h30.00.964,torte-2b,2020.1.3,MacIntel,60,13242,,,,,,,,,,,,,,,,,,5,,,,,,,0,32,32,32,1,,,,,,,,,,,,,,,,,,,,,,,,,,,,,,,,,,,,
,,,,,,,,,,,,,,,,,,,,,,,,19,Female,2020-09-28_13h30.00.964,torte-2b,2020.1.3,MacIntel,60,13242,,,,,,,,,,,,,,,,,,7,,,,,,,0,33,33,33,1,,,,,,,,,,,,,,,,,,,,,,,,,,,,,,,,,,,,
,,,,,,,,,,,,,,,,,,,,,,,,19,Female,2020-09-28_13h30.00.964,torte-2b,2020.1.3,MacIntel,60,13242,,,,,,,,,,,,space,,,,,,2,0.434065,,,,,,0,34,34,34,1,,,,,,,,,,,,,,,,,,,,,,,,,,,,,,,,,,,,
,,,,,,,,,,,,,,,,,,,,,,,,19,Female,2020-09-28_13h30.00.964,torte-2b,2020.1.3,MacIntel,60,13242,,,,,,,,,,,,,,,,,,3,,,,,,,,,,,,0,0,0,0,1,,,,,,,,,,,,,,,,,,,,,,,,,,,,,,,
,,,,,,,,,,,,,,,,,,,,,,,,19,Female,2020-09-28_13h30.00.964,torte-2b,2020.1.3,MacIntel,60,13242,,,,,,,,,,,,,,,,,,7,,,,,,,,,,,,0,1,1,1,1,,,,,,,,,,,,,,,,,,,,,,,,,,,,,,,
,,,,,,,,,,,,,,,,,,,,,,,,19,Female,2020-09-28_13h30.00.964,torte-2b,2020.1.3,MacIntel,60,13242,,,,,,,,,,,,,,,,,,7,,,,,,,,,,,,0,2,2,2,1,,,,,,,,,,,,,,,,,,,,,,,,,,,,,,,
,,,,,,,,,,,,,,,,,,,,,,,,19,Female,2020-09-28_13h30.00.964,torte-2b,2020.1.3,MacIntel,60,13242,,,,,,,,,,,,,,,,,,4,,,,,,,,,,,,0,3,3,3,1,,,,,,,,,,,,,,,,,,,,,,,,,,,,,,,
,,,,,,,,,,,,,,,,,,,,,,,,19,Female,2020-09-28_13h30.00.964,torte-2b,2020.1.3,MacIntel,60,13242,,,,,,,,,,,,,,,,,,5,,,,,,,,,,,,0,4,4,4,1,,,,,,,,,,,,,,,,,,,,,,,,,,,,,,,
,,,,,,,,,,,,,,,,,,,,,,,,19,Female,2020-09-28_13h30.00.964,torte-2b,2020.1.3,MacIntel,60,13242,,,,,,,,,,,,space,,,,,,4,0.55028,,,,,,,,,,,0,5,5,5,1,,,,,,,,,,,,,,,,,,,,,,,,,,,,,,,
,,,,,,,,,,,,,,,,,,,,,,,,19,Female,2020-09-28_13h30.00.964,torte-2b,2020.1.3,MacIntel,60,13242,,,,,,,,,,,,,,,,,,2,,,,,,,,,,,,0,6,6,6,1,,,,,,,,,,,,,,,,,,,,,,,,,,,,,,,
,,,,,,,,,,,,,,,,,,,,,,,,19,Female,2020-09-28_13h30.00.964,torte-2b,2020.1.3,MacIntel,60,13242,,,,,,,,,,,,space,,,,,,4,0.366865,,,,,,,,,,,0,7,7,7,1,,,,,,,,,,,,,,,,,,,,,,,,,,,,,,,
,,,,,,,,,,,,,,,,,,,,,,,,19,Female,2020-09-28_13h30.00.964,torte-2b,2020.1.3,MacIntel,60,13242,,,,,,,,,,,,,,,,,,2,,,,,,,,,,,,0,8,8,8,1,,,,,,,,,,,,,,,,,,,,,,,,,,,,,,,
,,,,,,,,,,,,,,,,,,,,,,,,19,Female,2020-09-28_13h30.00.964,torte-2b,2020.1.3,MacIntel,60,13242,,,,,,,,,,,,,,,,,,2,,,,,,,,,,,,0,9,9,9,1,,,,,,,,,,,,,,,,,,,,,,,,,,,,,,,
,,,,,,,,,,,,,,,,,,,,,,,,19,Female,2020-09-28_13h30.00.964,torte-2b,2020.1.3,MacIntel,60,13242,,,,,,,,,,,,,,,,,,6,,,,,,,,,,,,0,10,10,10,1,,,,,,,,,,,,,,,,,,,,,,,,,,,,,,,
,,,,,,,,,,,,,,,,,,,,,,,,19,Female,2020-09-28_13h30.00.964,torte-2b,2020.1.3,MacIntel,60,13242,,,,,,,,,,,,space,,,,,,2,0.46773,,,,,,,,,,,0,11,11,11,1,,,,,,,,,,,,,,,,,,,,,,,,,,,,,,,
,,,,,,,,,,,,,,,,,,,,,,,,19,Female,2020-09-28_13h30.00.964,torte-2b,2020.1.3,MacIntel,60,13242,,,,,,,,,,,,,,,,,,2,,,,,,,,,,,,0,12,12,12,1,,,,,,,,,,,,,,,,,,,,,,,,,,,,,,,
,,,,,,,,,,,,,,,,,,,,,,,,19,Female,2020-09-28_13h30.00.964,torte-2b,2020.1.3,MacIntel,60,13242,,,,,,,,,,,,space,,,,,,2,0.61704,,,,,,,,,,,0,13,13,13,1,,,,,,,,,,,,,,,,,,,,,,,,,,,,,,,
,,,,,,,,,,,,,,,,,,,,,,,,19,Female,2020-09-28_13h30.00.964,torte-2b,2020.1.3,MacIntel,60,13242,,,,,,,,,,,,,,,,,,2,,,,,,,,,,,,0,14,14,14,1,,,,,,,,,,,,,,,,,,,,,,,,,,,,,,,
,,,,,,,,,,,,,,,,,,,,,,,,19,Female,2020-09-28_13h30.00.964,torte-2b,2020.1.3,MacIntel,60,13242,,,,,,,,,,,,,,,,,,4,,,,,,,,,,,,0,15,15,15,1,,,,,,,,,,,,,,,,,,,,,,,,,,,,,,,
,,,,,,,,,,,,,,,,,,,,,,,,19,Female,2020-09-28_13h30.00.964,torte-2b,2020.1.3,MacIntel,60,13242,,,,,,,,,,,,,,,,,,3,,,,,,,,,,,,0,16,16,16,1,,,,,,,,,,,,,,,,,,,,,,,,,,,,,,,
,,,,,,,,,,,,,,,,,,,,,,,,19,Female,2020-09-28_13h30.00.964,torte-2b,2020.1.3,MacIntel,60,13242,,,,,,,,,,,,,,,,,,7,,,,,,,,,,,,0,17,17,17,1,,,,,,,,,,,,,,,,,,,,,,,,,,,,,,,
,,,,,,,,,,,,,,,,,,,,,,,,19,Female,2020-09-28_13h30.00.964,torte-2b,2020.1.3,MacIntel,60,13242,,,,,,,,,,,,space,,,,,,4,0.94943,,,,,,,,,,,0,18,18,18,1,,,,,,,,,,,,,,,,,,,,,,,,,,,,,,,
,,,,,,,,,,,,,,,,,,,,,,,,19,Female,2020-09-28_13h30.00.964,torte-2b,2020.1.3,MacIntel,60,13242,,,,,,,,,,,,,,,,,,7,,,,,,,,,,,,0,19,19,19,1,,,,,,,,,,,,,,,,,,,,,,,,,,,,,,,
,,,,,,,,,,,,,,,,,,,,,,,,19,Female,2020-09-28_13h30.00.964,torte-2b,2020.1.3,MacIntel,60,13242,,,,,,,,,,,,space,,,,,,7,0.349275,,,,,,,,,,,0,20,20,20,1,,,,,,,,,,,,,,,,,,,,,,,,,,,,,,,
,,,,,,,,,,,,,,,,,,,,,,,,19,Female,2020-09-28_13h30.00.964,torte-2b,2020.1.3,MacIntel,60,13242,,,,,,,,,,,,,,,,,,7,,,,,,,,,,,,0,21,21,21,1,,,,,,,,,,,,,,,,,,,,,,,,,,,,,,,
,,,,,,,,,,,,,,,,,,,,,,,,19,Female,2020-09-28_13h30.00.964,torte-2b,2020.1.3,MacIntel,60,13242,,,,,,,,,,,,,,,,,,7,,,,,,,,,,,,0,22,22,22,1,,,,,,,,,,,,,,,,,,,,,,,,,,,,,,,
,,,,,,,,,,,,,,,,,,,,,,,,19,Female,2020-09-28_13h30.00.964,torte-2b,2020.1.3,MacIntel,60,13242,,,,,,,,,,,,space,,,,,,1,0.484385,,,,,,,,,,,0,23,23,23,1,,,,,,,,,,,,,,,,,,,,,,,,,,,,,,,
,,,,,,,,,,,,,,,,,,,,,,,,19,Female,2020-09-28_13h30.00.964,torte-2b,2020.1.3,MacIntel,60,13242,,,,,,,,,,,,,,,,,,7,,,,,,,,,,,,0,24,24,24,1,,,,,,,,,,,,,,,,,,,,,,,,,,,,,,,
,,,,,,,,,,,,,,,,,,,,,,,,19,Female,2020-09-28_13h30.00.964,torte-2b,2020.1.3,MacIntel,60,13242,,,,,,,,,,,,space,,,,,,1,0.750895,,,,,,,,,,,0,25,25,25,1,,,,,,,,,,,,,,,,,,,,,,,,,,,,,,,
,,,,,,,,,,,,,,,,,,,,,,,,19,Female,2020-09-28_13h30.00.964,torte-2b,2020.1.3,MacIntel,60,13242,,,,,,,,,,,,,,,,,,7,,,,,,,,,,,,0,26,26,26,1,,,,,,,,,,,,,,,,,,,,,,,,,,,,,,,
,,,,,,,,,,,,,,,,,,,,,,,,19,Female,2020-09-28_13h30.00.964,torte-2b,2020.1.3,MacIntel,60,13242,,,,,,,,,,,,space,,,,,,2,0.336995,,,,,,,,,,,0,27,27,27,1,,,,,,,,,,,,,,,,,,,,,,,,,,,,,,,
,,,,,,,,,,,,,,,,,,,,,,,,19,Female,2020-09-28_13h30.00.964,torte-2b,2020.1.3,MacIntel,60,13242,,,,,,,,,,,,,,,,,,5,,,,,,,,,,,,0,28,28,28,1,,,,,,,,,,,,,,,,,,,,,,,,,,,,,,,
,,,,,,,,,,,,,,,,,,,,,,,,19,Female,2020-09-28_13h30.00.964,torte-2b,2020.1.3,MacIntel,60,13242,,,,,,,,,,,,space,,,,,,5,0.601595,,,,,,,,,,,0,29,29,29,1,,,,,,,,,,,,,,,,,,,,,,,,,,,,,,,
,,,,,,,,,,,,,,,,,,,,,,,,19,Female,2020-09-28_13h30.00.964,torte-2b,2020.1.3,MacIntel,60,13242,,,,,,,,,,,,,,,,,,5,,,,,,,,,,,,0,30,30,30,1,,,,,,,,,,,,,,,,,,,,,,,,,,,,,,,
,,,,,,,,,,,,,,,,,,,,,,,,19,Female,2020-09-28_13h30.00.964,torte-2b,2020.1.3,MacIntel,60,13242,,,,,,,,,,,,,,,,,,1,,,,,,,,,,,,0,31,31,31,1,,,,,,,,,,,,,,,,,,,,,,,,,,,,,,,
,,,,,,,,,,,,,,,,,,,,,,,,19,Female,2020-09-28_13h30.00.964,torte-2b,2020.1.3,MacIntel,60,13242,,,,,,,,,,,,space,,,,,,5,0.352605,,,,,,,,,,,0,32,32,32,1,,,,,,,,,,,,,,,,,,,,,,,,,,,,,,,
,,,,,,,,,,,,,,,,,,,,,,,,19,Female,2020-09-28_13h30.00.964,torte-2b,2020.1.3,MacIntel,60,13242,,,,,,,,,,,,,,,,,,3,,,,,,,,,,,,0,33,33,33,1,,,,,,,,,,,,,,,,,,,,,,,,,,,,,,,
,,,,,,,,,,,,,,,,,,,,,,,,19,Female,2020-09-28_13h30.00.964,torte-2b,2020.1.3,MacIntel,60,13242,,,,,,,,,,,,,,,,,,3,,,,,,,,,,,,0,34,34,34,1,,,,,,,,,,,,,,,,,,,,,,,,,,,,,,,
,,,,,,,,,,,,l,0.333765,Correct!,,,,,,t3.png,t1.png,2,0.056466,19,Female,2020-09-28_13h30.00.964,torte-2b,2020.1.3,MacIntel,60,13242,space,1.28545,,,,,,,,,,,,,,,,,,,,,,,,,,,,,,,,,space,10.34175,0,0,0,0,1,,,,,,,,,,,,,,,,,,,,,,,,
,,,,,,,,,,,,a,0.417595,Correct!,,,,,,t2.png,t2.png,0,0.98115,19,Female,2020-09-28_13h30.00.964,torte-2b,2020.1.3,MacIntel,60,13242,,,,,,,,,,,,,,,,,,,,,,,,,,,,,,,,,,,,,0,1,1,2,1,,,,,,,,,,,,,,,,,,,,,,,,
,,,,,,,,,,,,l,0.31656,Incorrect,,,,,,t4.png,t4.png,0,0.98115,19,Female,2020-09-28_13h30.00.964,torte-2b,2020.1.3,MacIntel,60,13242,,,,,,,,,,,,,,,,,,,,,,,,,,,,,,,,,,,,,0,2,2,21,1,,,,,,,,,,,,,,,,,,,,,,,,
,,,,,,,,,,,,a,0.301175,Incorrect,,,,,,t5.png,t3.png,2,0.0565,19,Female,2020-09-28_13h30.00.964,torte-2b,2020.1.3,MacIntel,60,13242,,,,,,,,,,,,,,,,,,,,,,,,,,,,,,,,,,,,,0,3,3,39,1,,,,,,,,,,,,,,,,,,,,,,,,
,,,,,,,,,,,,l,0.334145,Correct!,,,,,,t2.png,t4.png,2,0.059078,19,Female,2020-09-28_13h30.00.964,torte-2b,2020.1.3,MacIntel,60,13242,,,,,,,,,,,,,,,,,,,,,,,,,,,,,,,,,,,,,0,4,4,77,1,,,,,,,,,,,,,,,,,,,,,,,,
,,,,,,,,,,,,a,0.46719,Incorrect,,,,,,t2.png,t5.png,3,0.0000131,19,Female,2020-09-28_13h30.00.964,torte-2b,2020.1.3,MacIntel,60,13242,,,,,,,,,,,,,,,,,,,,,,,,,,,,,,,,,,,,,0,5,5,8,1,,,,,,,,,,,,,,,,,,,,,,,,
,,,,,,,,,,,,a,0.36724,Incorrect,,,,,,t1.png,t3.png,2,0.056466,19,Female,2020-09-28_13h30.00.964,torte-2b,2020.1.3,MacIntel,60,13242,,,,,,,,,,,,,,,,,,,,,,,,,,,,,,,,,,,,,0,6,6,63,1,,,,,,,,,,,,,,,,,,,,,,,,
,,,,,,,,,,,,l,0.285845,Correct!,,,,,,t3.png,t1.png,2,0.056466,19,Female,2020-09-28_13h30.00.964,torte-2b,2020.1.3,MacIntel,60,13242,,,,,,,,,,,,,,,,,,,,,,,,,,,,,,,,,,,,,0,7,7,64,1,,,,,,,,,,,,,,,,,,,,,,,,
,,,,,,,,,,,,a,0.33551,Incorrect,,,,,,t1.png,t4.png,3,0.0000131,19,Female,2020-09-28_13h30.00.964,torte-2b,2020.1.3,MacIntel,60,13242,,,,,,,,,,,,,,,,,,,,,,,,,,,,,,,,,,,,,0,8,8,81,1,,,,,,,,,,,,,,,,,,,,,,,,
,,,,,,,,,,,,a,0.33397,Incorrect,,,,,,t1.png,t5.png,4,9.55E-11,19,Female,2020-09-28_13h30.00.964,torte-2b,2020.1.3,MacIntel,60,13242,,,,,,,,,,,,,,,,,,,,,,,,,,,,,,,,,,,,,0,9,9,85,1,,,,,,,,,,,,,,,,,,,,,,,,
,,,,,,,,,,,,a,0.600515,Incorrect,,,,,,t1.png,t4.png,3,0.0000131,19,Female,2020-09-28_13h30.00.964,torte-2b,2020.1.3,MacIntel,60,13242,,,,,,,,,,,,,,,,,,,,,,,,,,,,,,,,,,,,,0,10,10,107,1,,,,,,,,,,,,,,,,,,,,,,,,
,,,,,,,,,,,,a,0.319105,Incorrect,,,,,,t4.png,t2.png,2,0.059078,19,Female,2020-09-28_13h30.00.964,torte-2b,2020.1.3,MacIntel,60,13242,,,,,,,,,,,,,,,,,,,,,,,,,,,,,,,,,,,,,0,11,11,110,1,,,,,,,,,,,,,,,,,,,,,,,,
,,,,,,,,,,,,l,0.28272,Correct!,,,,,,t5.png,t3.png,2,0.056466,19,Female,2020-09-28_13h30.00.964,torte-2b,2020.1.3,MacIntel,60,13242,,,,,,,,,,,,,,,,,,,,,,,,,,,,,,,,,,,,,0,12,12,38,1,,,,,,,,,,,,,,,,,,,,,,,,
,,,,,,,,,,,,l,0.43529,Correct!,,,,,,t4.png,t2.png,2,0.0591,19,Female,2020-09-28_13h30.00.964,torte-2b,2020.1.3,MacIntel,60,13242,,,,,,,,,,,,,,,,,,,,,,,,,,,,,,,,,,,,,0,13,13,36,1,,,,,,,,,,,,,,,,,,,,,,,,
,,,,,,,,,,,,a,0.283545,Incorrect,,,,,,t3.png,t5.png,2,0.056466,19,Female,2020-09-28_13h30.00.964,torte-2b,2020.1.3,MacIntel,60,13242,,,,,,,,,,,,,,,,,,,,,,,,,,,,,,,,,,,,,0,14,14,14,1,,,,,,,,,,,,,,,,,,,,,,,,
,,,,,,,,,,,,l,0.368025,Correct!,,,,,,t5.png,t1.png,4,9.55E-11,19,Female,2020-09-28_13h30.00.964,torte-2b,2020.1.3,MacIntel,60,13242,,,,,,,,,,,,,,,,,,,,,,,,,,,,,,,,,,,,,0,15,15,102,1,,,,,,,,,,,,,,,,,,,,,,,,
,,,,,,,,,,,,a,0.31785,Incorrect,,,,,,t1.png,t5.png,4,9.55E-11,19,Female,2020-09-28_13h30.00.964,torte-2b,2020.1.3,MacIntel,60,13242,,,,,,,,,,,,,,,,,,,,,,,,,,,,,,,,,,,,,0,16,16,55,1,,,,,,,,,,,,,,,,,,,,,,,,
,,,,,,,,,,,,l,0.48436,Incorrect,,,,,,t2.png,t1.png,1,0.9,19,Female,2020-09-28_13h30.00.964,torte-2b,2020.1.3,MacIntel,60,13242,,,,,,,,,,,,,,,,,,,,,,,,,,,,,,,,,,,,,0,17,17,118,1,,,,,,,,,,,,,,,,,,,,,,,,
,,,,,,,,,,,,a,0.918195,Correct!,,,,,,t2.png,t2.png,0,0.981,19,Female,2020-09-28_13h30.00.964,torte-2b,2020.1.3,MacIntel,60,13242,,,,,,,,,,,,,,,,,,,,,,,,,,,,,,,,,,,,,0,18,18,101,1,,,,,,,,,,,,,,,,,,,,,,,,
,,,,,,,,,,,,l,0.270165,Incorrect,,,,,,t5.png,t5.png,0,0.978,19,Female,2020-09-28_13h30.00.964,torte-2b,2020.1.3,MacIntel,60,13242,,,,,,,,,,,,,,,,,,,,,,,,,,,,,,,,,,,,,0,19,19,117,1,,,,,,,,,,,,,,,,,,,,,,,,
,,,,,,,,,,,,l,0.316695,Incorrect,,,,,,t3.png,t4.png,1,0.909,19,Female,2020-09-28_13h30.00.964,torte-2b,2020.1.3,MacIntel,60,13242,,,,,,,,,,,,,,,,,,,,,,,,,,,,,,,,,,,,,0,20,20,106,1,,,,,,,,,,,,,,,,,,,,,,,,
,,,,,,,,,,,,a,0.29958,Incorrect,,,,,,t5.png,t1.png,4,9.55E-11,19,Female,2020-09-28_13h30.00.964,torte-2b,2020.1.3,MacIntel,60,13242,,,,,,,,,,,,,,,,,,,,,,,,,,,,,,,,,,,,,0,21,21,22,1,,,,,,,,,,,,,,,,,,,,,,,,
,,,,,,,,,,,,l,0.66849,Correct!,,,,,,t1.png,t5.png,4,9.55E-11,19,Female,2020-09-28_13h30.00.964,torte-2b,2020.1.3,MacIntel,60,13242,,,,,,,,,,,,,,,,,,,,,,,,,,,,,,,,,,,,,0,22,22,16,1,,,,,,,,,,,,,,,,,,,,,,,,
,,,,,,,,,,,,a,0.31775,Correct!,,,,,,t1.png,t2.png,1,0.90025,19,Female,2020-09-28_13h30.00.964,torte-2b,2020.1.3,MacIntel,60,13242,,,,,,,,,,,,,,,,,,,,,,,,,,,,,,,,,,,,,0,23,23,112,1,,,,,,,,,,,,,,,,,,,,,,,,
,,,,,,,,,,,,l,0.284075,Correct!,,,,,,t2.png,t4.png,2,0.059078,19,Female,2020-09-28_13h30.00.964,torte-2b,2020.1.3,MacIntel,60,13242,,,,,,,,,,,,,,,,,,,,,,,,,,,,,,,,,,,,,0,24,24,37,1,,,,,,,,,,,,,,,,,,,,,,,,
,,,,,,,,,,,,a,0.250165,Correct!,,,,,,t3.png,t4.png,1,0.90855,19,Female,2020-09-28_13h30.00.964,torte-2b,2020.1.3,MacIntel,60,13242,,,,,,,,,,,,,,,,,,,,,,,,,,,,,,,,,,,,,0,25,25,96,1,,,,,,,,,,,,,,,,,,,,,,,,
,,,,,,,,,,,,l,0.31734,Incorrect,,,,,,t3.png,t4.png,1,0.909,19,Female,2020-09-28_13h30.00.964,torte-2b,2020.1.3,MacIntel,60,13242,,,,,,,,,,,,,,,,,,,,,,,,,,,,,,,,,,,,,0,26,26,89,1,,,,,,,,,,,,,,,,,,,,,,,,
,,,,,,,,,,,,a,0.300425,Incorrect,,,,,,t4.png,t2.png,2,0.059078,19,Female,2020-09-28_13h30.00.964,torte-2b,2020.1.3,MacIntel,60,13242,,,,,,,,,,,,,,,,,,,,,,,,,,,,,,,,,,,,,0,27,27,109,1,,,,,,,,,,,,,,,,,,,,,,,,
,,,,,,,,,,,,l,0.07026,Correct!,,,,,,t2.png,t5.png,3,0.0000131,19,Female,2020-09-28_13h30.00.964,torte-2b,2020.1.3,MacIntel,60,13242,,,,,,,,,,,,,,,,,,,,,,,,,,,,,,,,,,,,,0,28,28,40,1,,,,,,,,,,,,,,,,,,,,,,,,
,,,,,,,,,,,,l,0.268445,Incorrect,,,,,,t2.png,t1.png,1,0.90025,19,Female,2020-09-28_13h30.00.964,torte-2b,2020.1.3,MacIntel,60,13242,,,,,,,,,,,,,,,,,,,,,,,,,,,,,,,,,,,,,0,29,29,19,1,,,,,,,,,,,,,,,,,,,,,,,,
,,,,,,,,,,,,a,0.0678,Correct!,,,,,,t2.png,t3.png,1,0.90855,19,Female,2020-09-28_13h30.00.964,torte-2b,2020.1.3,MacIntel,60,13242,,,,,,,,,,,,,,,,,,,,,,,,,,,,,,,,,,,,,0,30,30,111,1,,,,,,,,,,,,,,,,,,,,,,,,
,,,,,,,,,,,,l,0.06704,Incorrect,,,,,,t5.png,t5.png,0,0.97829,19,Female,2020-09-28_13h30.00.964,torte-2b,2020.1.3,MacIntel,60,13242,,,,,,,,,,,,,,,,,,,,,,,,,,,,,,,,,,,,,0,31,31,94,1,,,,,,,,,,,,,,,,,,,,,,,,
,,,,,,,,,,,,a,0.250365,Incorrect,,,,,,t5.png,t1.png,4,9.55E-11,19,Female,2020-09-28_13h30.00.964,torte-2b,2020.1.3,MacIntel,60,13242,,,,,,,,,,,,,,,,,,,,,,,,,,,,,,,,,,,,,0,32,32,71,1,,,,,,,,,,,,,,,,,,,,,,,,
,,,,,,,,,,,,l,0.16815,Correct!,,,,,,t1.png,t4.png,3,0.0000131,19,Female,2020-09-28_13h30.00.964,torte-2b,2020.1.3,MacIntel,60,13242,,,,,,,,,,,,,,,,,,,,,,,,,,,,,,,,,,,,,0,33,33,92,1,,,,,,,,,,,,,,,,,,,,,,,,
,,,,,,,,,,,,a,0.366085,Incorrect,,,,,,t1.png,t2.png,1,0.90025,19,Female,2020-09-28_13h30.00.964,torte-2b,2020.1.3,MacIntel,60,13242,,,,,,,,,,,,,,,,,,,,,,,,,,,,,,,,,,,,,0,34,34,105,1,,,,,,,,,,,,,,,,,,,,,,,,
,,,,,,,,,,,,l,0.48461,Correct!,,,,,,t4.png,t1.png,3,0.0000131,19,Female,2020-09-28_13h30.00.964,torte-2b,2020.1.3,MacIntel,60,13242,,,,,,,,,,,,,,,,,,,,,,,,,,,,,,,,,,,,,0,35,35,42,1,,,,,,,,,,,,,,,,,,,,,,,,
,,,,,,,,,,,,a,0.134195,Incorrect,,,,,,t2.png,t3.png,1,0.909,19,Female,2020-09-28_13h30.00.964,torte-2b,2020.1.3,MacIntel,60,13242,,,,,,,,,,,,,,,,,,,,,,,,,,,,,,,,,,,,,0,36,36,74,1,,,,,,,,,,,,,,,,,,,,,,,,
,,,,,,,,,,,,l,0.336565,Correct!,,,,,,t5.png,t2.png,3,0.0000131,19,Female,2020-09-28_13h30.00.964,torte-2b,2020.1.3,MacIntel,60,13242,,,,,,,,,,,,,,,,,,,,,,,,,,,,,,,,,,,,,0,37,37,51,1,,,,,,,,,,,,,,,,,,,,,,,,
,,,,,,,,,,,,l,0.16812,Incorrect,,,,,,t1.png,t1.png,0,0.97829,19,Female,2020-09-28_13h30.00.964,torte-2b,2020.1.3,MacIntel,60,13242,,,,,,,,,,,,,,,,,,,,,,,,,,,,,,,,,,,,,0,38,38,9,1,,,,,,,,,,,,,,,,,,,,,,,,
,,,,,,,,,,,,a,0.467065,Incorrect,,,,,,t5.png,t2.png,3,0.0000131,19,Female,2020-09-28_13h30.00.964,torte-2b,2020.1.3,MacIntel,60,13242,,,,,,,,,,,,,,,,,,,,,,,,,,,,,,,,,,,,,0,39,39,91,1,,,,,,,,,,,,,,,,,,,,,,,,
,,,,,,,,,,,,l,0.28286,Incorrect,,,,,,t1.png,t2.png,1,0.90025,19,Female,2020-09-28_13h30.00.964,torte-2b,2020.1.3,MacIntel,60,13242,,,,,,,,,,,,,,,,,,,,,,,,,,,,,,,,,,,,,0,40,40,72,1,,,,,,,,,,,,,,,,,,,,,,,,
,,,,,,,,,,,,a,0.300745,Incorrect,,,,,,t3.png,t1.png,2,0.056466,19,Female,2020-09-28_13h30.00.964,torte-2b,2020.1.3,MacIntel,60,13242,,,,,,,,,,,,,,,,,,,,,,,,,,,,,,,,,,,,,0,41,41,29,1,,,,,,,,,,,,,,,,,,,,,,,,
,,,,,,,,,,,,l,0.10139,Incorrect,,,,,,t5.png,t4.png,1,0.90025,19,Female,2020-09-28_13h30.00.964,torte-2b,2020.1.3,MacIntel,60,13242,,,,,,,,,,,,,,,,,,,,,,,,,,,,,,,,,,,,,0,42,42,27,1,,,,,,,,,,,,,,,,,,,,,,,,
,,,,,,,,,,,,a,0.283945,Correct!,,,,,,t5.png,t5.png,0,0.97829,19,Female,2020-09-28_13h30.00.964,torte-2b,2020.1.3,MacIntel,60,13242,,,,,,,,,,,,,,,,,,,,,,,,,,,,,,,,,,,,,0,43,43,25,1,,,,,,,,,,,,,,,,,,,,,,,,
,,,,,,,,,,,,l,0.250855,Correct!,,,,,,t5.png,t3.png,2,0.056466,19,Female,2020-09-28_13h30.00.964,torte-2b,2020.1.3,MacIntel,60,13242,,,,,,,,,,,,,,,,,,,,,,,,,,,,,,,,,,,,,0,44,44,108,1,,,,,,,,,,,,,,,,,,,,,,,,
,,,,,,,,,,,,a,0.287725,Correct!,,,,,,t5.png,t4.png,1,0.90025,19,Female,2020-09-28_13h30.00.964,torte-2b,2020.1.3,MacIntel,60,13242,,,,,,,,,,,,,,,,,,,,,,,,,,,,,,,,,,,,,0,45,45,34,1,,,,,,,,,,,,,,,,,,,,,,,,
,,,,,,,,,,,,l,0.136345,Incorrect,,,,,,t3.png,t2.png,1,0.90855,19,Female,2020-09-28_13h30.00.964,torte-2b,2020.1.3,MacIntel,60,13242,,,,,,,,,,,,,,,,,,,,,,,,,,,,,,,,,,,,,0,46,46,18,1,,,,,,,,,,,,,,,,,,,,,,,,
,,,,,,,,,,,,a,0.183705,Correct!,,,,,,t1.png,t1.png,0,0.97829,19,Female,2020-09-28_13h30.00.964,torte-2b,2020.1.3,MacIntel,60,13242,,,,,,,,,,,,,,,,,,,,,,,,,,,,,,,,,,,,,0,47,47,78,1,,,,,,,,,,,,,,,,,,,,,,,,
,,,,,,,,,,,,l,0.335945,Incorrect,,,,,,t2.png,t3.png,1,0.90855,19,Female,2020-09-28_13h30.00.964,torte-2b,2020.1.3,MacIntel,60,13242,,,,,,,,,,,,,,,,,,,,,,,,,,,,,,,,,,,,,0,48,48,65,1,,,,,,,,,,,,,,,,,,,,,,,,
,,,,,,,,,,,,a,0.200335,Correct!,,,,,,t3.png,t4.png,1,0.90855,19,Female,2020-09-28_13h30.00.964,torte-2b,2020.1.3,MacIntel,60,13242,,,,,,,,,,,,,,,,,,,,,,,,,,,,,,,,,,,,,0,49,49,84,1,,,,,,,,,,,,,,,,,,,,,,,,
,,,,,,,,,,,,l,0.002065,Correct!,,,,,,t2.png,t4.png,2,0.059078,19,Female,2020-09-28_13h30.00.964,torte-2b,2020.1.3,MacIntel,60,13242,,,,,,,,,,,,,,,,,,,,,,,,,,,,,,,,,,,,,0,50,50,11,1,,,,,,,,,,,,,,,,,,,,,,,,
,,,,,,,,,,,,a,0.200445,Incorrect,,,,,,t4.png,t1.png,3,0.0000131,19,Female,2020-09-28_13h30.00.964,torte-2b,2020.1.3,MacIntel,60,13242,,,,,,,,,,,,,,,,,,,,,,,,,,,,,,,,,,,,,0,51,51,61,1,,,,,,,,,,,,,,,,,,,,,,,,
,,,,,,,,,,,,l,0.117705,Incorrect,,,,,,t5.png,t4.png,1,0.9,19,Female,2020-09-28_13h30.00.964,torte-2b,2020.1.3,MacIntel,60,13242,,,,,,,,,,,,,,,,,,,,,,,,,,,,,,,,,,,,,0,52,52,49,1,,,,,,,,,,,,,,,,,,,,,,,,
,,,,,,,,,,,,a,0.168165,Incorrect,,,,,,t2.png,t3.png,1,0.90855,19,Female,2020-09-28_13h30.00.964,torte-2b,2020.1.3,MacIntel,60,13242,,,,,,,,,,,,,,,,,,,,,,,,,,,,,,,,,,,,,0,53,53,68,1,,,,,,,,,,,,,,,,,,,,,,,,
,,,,,,,,,,,,l,0.053475,Incorrect,,,,,,t4.png,t4.png,0,0.98115,19,Female,2020-09-28_13h30.00.964,torte-2b,2020.1.3,MacIntel,60,13242,,,,,,,,,,,,,,,,,,,,,,,,,,,,,,,,,,,,,0,54,54,80,1,,,,,,,,,,,,,,,,,,,,,,,,
,,,,,,,,,,,,a,0.31834,Correct!,,,,,,t4.png,t4.png,0,0.98115,19,Female,2020-09-28_13h30.00.964,torte-2b,2020.1.3,MacIntel,60,13242,,,,,,,,,,,,,,,,,,,,,,,,,,,,,,,,,,,,,0,55,55,79,1,,,,,,,,,,,,,,,,,,,,,,,,
,,,,,,,,,,,,l,0.43382,Incorrect,,,,,,t4.png,t5.png,1,0.9,19,Female,2020-09-28_13h30.00.964,torte-2b,2020.1.3,MacIntel,60,13242,,,,,,,,,,,,,,,,,,,,,,,,,,,,,,,,,,,,,0,56,56,115,1,,,,,,,,,,,,,,,,,,,,,,,,
,,,,,,,,,,,,a,0.283545,Incorrect,,,,,,t1.png,t3.png,2,0.056466,19,Female,2020-09-28_13h30.00.964,torte-2b,2020.1.3,MacIntel,60,13242,,,,,,,,,,,,,,,,,,,,,,,,,,,,,,,,,,,,,0,57,57,87,1,,,,,,,,,,,,,,,,,,,,,,,,
,,,,,,,,,,,,l,0.31601,Incorrect,,,,,,t4.png,t5.png,1,0.90025,19,Female,2020-09-28_13h30.00.964,torte-2b,2020.1.3,MacIntel,60,13242,,,,,,,,,,,,,,,,,,,,,,,,,,,,,,,,,,,,,0,58,58,113,1,,,,,,,,,,,,,,,,,,,,,,,,
,,,,,,,,,,,,a,0.283355,Incorrect,,,,,,t4.png,t3.png,1,0.90855,19,Female,2020-09-28_13h30.00.964,torte-2b,2020.1.3,MacIntel,60,13242,,,,,,,,,,,,,,,,,,,,,,,,,,,,,,,,,,,,,0,59,59,45,1,,,,,,,,,,,,,,,,,,,,,,,,
,,,,,,,,,,,,l,0.334235,Incorrect,,,,,,t4.png,t4.png,0,0.98115,19,Female,2020-09-28_13h30.00.964,torte-2b,2020.1.3,MacIntel,60,13242,,,,,,,,,,,,,,,,,,,,,,,,,,,,,,,,,,,,,0,60,60,90,1,,,,,,,,,,,,,,,,,,,,,,,,
,,,,,,,,,,,,a,0.235245,Incorrect,,,,,,t2.png,t5.png,3,0.0000131,19,Female,2020-09-28_13h30.00.964,torte-2b,2020.1.3,MacIntel,60,13242,,,,,,,,,,,,,,,,,,,,,,,,,,,,,,,,,,,,,0,61,61,66,1,,,,,,,,,,,,,,,,,,,,,,,,
,,,,,,,,,,,,l,0.217575,Correct!,,,,,,t3.png,t5.png,2,0.0565,19,Female,2020-09-28_13h30.00.964,torte-2b,2020.1.3,MacIntel,60,13242,,,,,,,,,,,,,,,,,,,,,,,,,,,,,,,,,,,,,0,62,62,83,1,,,,,,,,,,,,,,,,,,,,,,,,
,,,,,,,,,,,,a,0.28494,Incorrect,,,,,,t4.png,t2.png,2,0.059078,19,Female,2020-09-28_13h30.00.964,torte-2b,2020.1.3,MacIntel,60,13242,,,,,,,,,,,,,,,,,,,,,,,,,,,,,,,,,,,,,0,63,63,86,1,,,,,,,,,,,,,,,,,,,,,,,,
,,,,,,,,,,,,l,0.316875,Correct!,,,,,,t5.png,t2.png,3,0.0000131,19,Female,2020-09-28_13h30.00.964,torte-2b,2020.1.3,MacIntel,60,13242,,,,,,,,,,,,,,,,,,,,,,,,,,,,,,,,,,,,,0,64,64,116,1,,,,,,,,,,,,,,,,,,,,,,,,
,,,,,,,,,,,,a,0.32019,Correct!,,,,,,t1.png,t1.png,0,0.97829,19,Female,2020-09-28_13h30.00.964,torte-2b,2020.1.3,MacIntel,60,13242,,,,,,,,,,,,,,,,,,,,,,,,,,,,,,,,,,,,,0,65,65,67,1,,,,,,,,,,,,,,,,,,,,,,,,
,,,,,,,,,,,,l,0.21828,Correct!,,,,,,t5.png,t3.png,2,0.056466,19,Female,2020-09-28_13h30.00.964,torte-2b,2020.1.3,MacIntel,60,13242,,,,,,,,,,,,,,,,,,,,,,,,,,,,,,,,,,,,,0,66,66,114,1,,,,,,,,,,,,,,,,,,,,,,,,
,,,,,,,,,,,,a,0.11716,Incorrect,,,,,,t2.png,t5.png,3,0.0000131,19,Female,2020-09-28_13h30.00.964,torte-2b,2020.1.3,MacIntel,60,13242,,,,,,,,,,,,,,,,,,,,,,,,,,,,,,,,,,,,,0,67,67,104,1,,,,,,,,,,,,,,,,,,,,,,,,
,,,,,,,,,,,,l,0.36708,Correct!,,,,,,t5.png,t1.png,4,9.55E-11,19,Female,2020-09-28_13h30.00.964,torte-2b,2020.1.3,MacIntel,60,13242,,,,,,,,,,,,,,,,,,,,,,,,,,,,,,,,,,,,,0,68,68,43,1,,,,,,,,,,,,,,,,,,,,,,,,
,,,,,,,,,,,,a,0.31716,Correct!,,,,,,t2.png,t1.png,1,0.90025,19,Female,2020-09-28_13h30.00.964,torte-2b,2020.1.3,MacIntel,60,13242,,,,,,,,,,,,,,,,,,,,,,,,,,,,,,,,,,,,,0,69,69,5,1,,,,,,,,,,,,,,,,,,,,,,,,
,,,,,,,,,,,,l,0.25261,Correct!,,,,,,t1.png,t4.png,3,0.0000131,19,Female,2020-09-28_13h30.00.964,torte-2b,2020.1.3,MacIntel,60,13242,,,,,,,,,,,,,,,,,,,,,,,,,,,,,,,,,,,,,0,70,70,17,1,,,,,,,,,,,,,,,,,,,,,,,,
,,,,,,,,,,,,a,0.317025,Correct!,,,,,,t4.png,t5.png,1,0.90025,19,Female,2020-09-28_13h30.00.964,torte-2b,2020.1.3,MacIntel,60,13242,,,,,,,,,,,,,,,,,,,,,,,,,,,,,,,,,,,,,0,71,71,103,1,,,,,,,,,,,,,,,,,,,,,,,,
,,,,,,,,,,,,l,0.066555,Correct!,,,,,,t3.png,t1.png,2,0.056466,19,Female,2020-09-28_13h30.00.964,torte-2b,2020.1.3,MacIntel,60,13242,,,,,,,,,,,,,,,,,,,,,,,,,,,,,,,,,,,,,0,72,72,32,1,,,,,,,,,,,,,,,,,,,,,,,,
,,,,,,,,,,,,a,0.21653,Correct!,,,,,,t1.png,t2.png,1,0.9,19,Female,2020-09-28_13h30.00.964,torte-2b,2020.1.3,MacIntel,60,13242,,,,,,,,,,,,,,,,,,,,,,,,,,,,,,,,,,,,,0,73,73,1,1,,,,,,,,,,,,,,,,,,,,,,,,
,,,,,,,,,,,,a,0.06974,Incorrect,,,,,,t2.png,t1.png,1,0.90025,19,Female,2020-09-28_13h30.00.964,torte-2b,2020.1.3,MacIntel,60,13242,,,,,,,,,,,,,,,,,,,,,,,,,,,,,,,,,,,,,0,74,74,4,1,,,,,,,,,,,,,,,,,,,,,,,,
,,,,,,,,,,,,l,0.33293,Correct!,,,,,,t4.png,t1.png,3,0.0000131,19,Female,2020-09-28_13h30.00.964,torte-2b,2020.1.3,MacIntel,60,13242,,,,,,,,,,,,,,,,,,,,,,,,,,,,,,,,,,,,,0,75,75,48,1,,,,,,,,,,,,,,,,,,,,,,,,
,,,,,,,,,,,,a,0.30173,Correct!,,,,,,t1.png,t2.png,1,0.90025,19,Female,2020-09-28_13h30.00.964,torte-2b,2020.1.3,MacIntel,60,13242,,,,,,,,,,,,,,,,,,,,,,,,,,,,,,,,,,,,,0,76,76,33,1,,,,,,,,,,,,,,,,,,,,,,,,
,,,,,,,,,,,,l,0.234645,Correct!,,,,,,t1.png,t5.png,4,9.55E-11,19,Female,2020-09-28_13h30.00.964,torte-2b,2020.1.3,MacIntel,60,13242,,,,,,,,,,,,,,,,,,,,,,,,,,,,,,,,,,,,,0,77,77,12,1,,,,,,,,,,,,,,,,,,,,,,,,
,,,,,,,,,,,,a,0.18529,Incorrect,,,,,,t2.png,t4.png,2,0.059078,19,Female,2020-09-28_13h30.00.964,torte-2b,2020.1.3,MacIntel,60,13242,,,,,,,,,,,,,,,,,,,,,,,,,,,,,,,,,,,,,0,78,78,24,1,,,,,,,,,,,,,,,,,,,,,,,,
,,,,,,,,,,,,l,0.250735,Incorrect,,,,,,t4.png,t3.png,1,0.90855,19,Female,2020-09-28_13h30.00.964,torte-2b,2020.1.3,MacIntel,60,13242,,,,,,,,,,,,,,,,,,,,,,,,,,,,,,,,,,,,,0,79,79,35,1,,,,,,,,,,,,,,,,,,,,,,,,
,,,,,,,,,,,,a,0.320585,Incorrect,,,,,,t1.png,t3.png,2,0.056466,19,Female,2020-09-28_13h30.00.964,torte-2b,2020.1.3,MacIntel,60,13242,,,,,,,,,,,,,,,,,,,,,,,,,,,,,,,,,,,,,0,80,80,60,1,,,,,,,,,,,,,,,,,,,,,,,,
,,,,,,,,,,,,l,0.28407,Incorrect,,,,,,t1.png,t1.png,0,0.978,19,Female,2020-09-28_13h30.00.964,torte-2b,2020.1.3,MacIntel,60,13242,,,,,,,,,,,,,,,,,,,,,,,,,,,,,,,,,,,,,0,81,81,28,1,,,,,,,,,,,,,,,,,,,,,,,,
,,,,,,,,,,,,a,0.03461,Incorrect,,,,,,t3.png,t5.png,2,0.056466,19,Female,2020-09-28_13h30.00.964,torte-2b,2020.1.3,MacIntel,60,13242,,,,,,,,,,,,,,,,,,,,,,,,,,,,,,,,,,,,,0,82,82,44,1,,,,,,,,,,,,,,,,,,,,,,,,
,,,,,,,,,,,,l,0.201885,Incorrect,,,,,,t2.png,t2.png,0,0.98115,19,Female,2020-09-28_13h30.00.964,torte-2b,2020.1.3,MacIntel,60,13242,,,,,,,,,,,,,,,,,,,,,,,,,,,,,,,,,,,,,0,83,83,7,1,,,,,,,,,,,,,,,,,,,,,,,,
,,,,,,,,,,,,a,0.30045,Correct!,,,,,,t4.png,t4.png,0,0.98115,19,Female,2020-09-28_13h30.00.964,torte-2b,2020.1.3,MacIntel,60,13242,,,,,,,,,,,,,,,,,,,,,,,,,,,,,,,,,,,,,0,84,84,52,1,,,,,,,,,,,,,,,,,,,,,,,,
,,,,,,,,,,,,l,0.26676,Incorrect,,,,,,t3.png,t2.png,1,0.90855,19,Female,2020-09-28_13h30.00.964,torte-2b,2020.1.3,MacIntel,60,13242,,,,,,,,,,,,,,,,,,,,,,,,,,,,,,,,,,,,,0,85,85,97,1,,,,,,,,,,,,,,,,,,,,,,,,
,,,,,,,,,,,,a,0.202095,Correct!,,,,,,t4.png,t3.png,1,0.909,19,Female,2020-09-28_13h30.00.964,torte-2b,2020.1.3,MacIntel,60,13242,,,,,,,,,,,,,,,,,,,,,,,,,,,,,,,,,,,,,0,86,86,20,1,,,,,,,,,,,,,,,,,,,,,,,,
,,,,,,,,,,,,l,0.15186,Correct!,,,,,,t4.png,t3.png,1,0.90855,19,Female,2020-09-28_13h30.00.964,torte-2b,2020.1.3,MacIntel,60,13242,,,,,,,,,,,,,,,,,,,,,,,,,,,,,,,,,,,,,0,87,87,75,1,,,,,,,,,,,,,,,,,,,,,,,,
,,,,,,,,,,,,a,0.23763,Correct!,,,,,,t4.png,t5.png,1,0.90025,19,Female,2020-09-28_13h30.00.964,torte-2b,2020.1.3,MacIntel,60,13242,,,,,,,,,,,,,,,,,,,,,,,,,,,,,,,,,,,,,0,88,88,58,1,,,,,,,,,,,,,,,,,,,,,,,,
,,,,,,,,,,,,l,0.25333,Correct!,,,,,,t2.png,t5.png,3,0.0000131,19,Female,2020-09-28_13h30.00.964,torte-2b,2020.1.3,MacIntel,60,13242,,,,,,,,,,,,,,,,,,,,,,,,,,,,,,,,,,,,,0,89,89,95,1,,,,,,,,,,,,,,,,,,,,,,,,
,,,,,,,,,,,,a,0.049805,Correct!,,,,,,t4.png,t5.png,1,0.90025,19,Female,2020-09-28_13h30.00.964,torte-2b,2020.1.3,MacIntel,60,13242,,,,,,,,,,,,,,,,,,,,,,,,,,,,,,,,,,,,,0,90,90,47,1,,,,,,,,,,,,,,,,,,,,,,,,
,,,,,,,,,,,,l,0.3349,Incorrect,,,,,,t5.png,t4.png,1,0.90025,19,Female,2020-09-28_13h30.00.964,torte-2b,2020.1.3,MacIntel,60,13242,,,,,,,,,,,,,,,,,,,,,,,,,,,,,,,,,,,,,0,91,91,26,1,,,,,,,,,,,,,,,,,,,,,,,,
,,,,,,,,,,,,a,0.100555,Correct!,,,,,,t2.png,t2.png,0,0.98115,19,Female,2020-09-28_13h30.00.964,torte-2b,2020.1.3,MacIntel,60,13242,,,,,,,,,,,,,,,,,,,,,,,,,,,,,,,,,,,,,0,92,92,59,1,,,,,,,,,,,,,,,,,,,,,,,,
,,,,,,,,,,,,l,0.217585,Incorrect,,,,,,t2.png,t3.png,1,0.90855,19,Female,2020-09-28_13h30.00.964,torte-2b,2020.1.3,MacIntel,60,13242,,,,,,,,,,,,,,,,,,,,,,,,,,,,,,,,,,,,,0,93,93,10,1,,,,,,,,,,,,,,,,,,,,,,,,
,,,,,,,,,,,,a,0.25188,Correct!,,,,,,t3.png,t4.png,1,0.909,19,Female,2020-09-28_13h30.00.964,torte-2b,2020.1.3,MacIntel,60,13242,,,,,,,,,,,,,,,,,,,,,,,,,,,,,,,,,,,,,0,94,94,82,1,,,,,,,,,,,,,,,,,,,,,,,,
,,,,,,,,,,,,l,0.266955,Correct!,,,,,,t2.png,t4.png,2,0.0591,19,Female,2020-09-28_13h30.00.964,torte-2b,2020.1.3,MacIntel,60,13242,,,,,,,,,,,,,,,,,,,,,,,,,,,,,,,,,,,,,0,95,95,15,1,,,,,,,,,,,,,,,,,,,,,,,,
,,,,,,,,,,,,a,0.30014,Correct!,,,,,,t3.png,t2.png,1,0.909,19,Female,2020-09-28_13h30.00.964,torte-2b,2020.1.3,MacIntel,60,13242,,,,,,,,,,,,,,,,,,,,,,,,,,,,,,,,,,,,,0,96,96,23,1,,,,,,,,,,,,,,,,,,,,,,,,
,,,,,,,,,,,,l,0.11754,Incorrect,,,,,,t3.png,t2.png,1,0.909,19,Female,2020-09-28_13h30.00.964,torte-2b,2020.1.3,MacIntel,60,13242,,,,,,,,,,,,,,,,,,,,,,,,,,,,,,,,,,,,,0,97,97,3,1,,,,,,,,,,,,,,,,,,,,,,,,
,,,,,,,,,,,,a,0.30063,Incorrect,,,,,,t4.png,t1.png,3,0.0000131,19,Female,2020-09-28_13h30.00.964,torte-2b,2020.1.3,MacIntel,60,13242,,,,,,,,,,,,,,,,,,,,,,,,,,,,,,,,,,,,,0,98,98,13,1,,,,,,,,,,,,,,,,,,,,,,,,
,,,,,,,,,,,,l,0.134095,Correct!,,,,,,t1.png,t4.png,3,0.0000131,19,Female,2020-09-28_13h30.00.964,torte-2b,2020.1.3,MacIntel,60,13242,,,,,,,,,,,,,,,,,,,,,,,,,,,,,,,,,,,,,0,99,99,50,1,,,,,,,,,,,,,,,,,,,,,,,,
,,,,,,,,,,,,a,0.30052,Incorrect,,,,,,t5.png,t2.png,3,0.0000131,19,Female,2020-09-28_13h30.00.964,torte-2b,2020.1.3,MacIntel,60,13242,,,,,,,,,,,,,,,,,,,,,,,,,,,,,,,,,,,,,0,100,100,98,1,,,,,,,,,,,,,,,,,,,,,,,,
,,,,,,,,,,,,l,0.50309,Correct!,,,,,,t3.png,t5.png,2,0.056466,19,Female,2020-09-28_13h30.00.964,torte-2b,2020.1.3,MacIntel,60,13242,,,,,,,,,,,,,,,,,,,,,,,,,,,,,,,,,,,,,0,101,101,6,1,,,,,,,,,,,,,,,,,,,,,,,,
,,,,,,,,,,,,a,0.08278,Incorrect,,,,,,t3.png,t5.png,2,0.0565,19,Female,2020-09-28_13h30.00.964,torte-2b,2020.1.3,MacIntel,60,13242,,,,,,,,,,,,,,,,,,,,,,,,,,,,,,,,,,,,,0,102,102,30,1,,,,,,,,,,,,,,,,,,,,,,,,
,,,,,,,,,,,,l,0.335635,Correct!,,,,,,t1.png,t5.png,4,9.55E-11,19,Female,2020-09-28_13h30.00.964,torte-2b,2020.1.3,MacIntel,60,13242,,,,,,,,,,,,,,,,,,,,,,,,,,,,,,,,,,,,,0,103,103,41,1,,,,,,,,,,,,,,,,,,,,,,,,
,,,,,,,,,,,,a,0.217135,Incorrect,,,,,,t5.png,t1.png,4,9.55E-11,19,Female,2020-09-28_13h30.00.964,torte-2b,2020.1.3,MacIntel,60,13242,,,,,,,,,,,,,,,,,,,,,,,,,,,,,,,,,,,,,0,104,104,100,1,,,,,,,,,,,,,,,,,,,,,,,,
,,,,,,,,,,,,l,0.0013,Correct!,,,,,,t5.png,t3.png,2,0.056466,19,Female,2020-09-28_13h30.00.964,torte-2b,2020.1.3,MacIntel,60,13242,,,,,,,,,,,,,,,,,,,,,,,,,,,,,,,,,,,,,0,105,105,56,1,,,,,,,,,,,,,,,,,,,,,,,,
,,,,,,,,,,,,a,0.306205,Correct!,,,,,,t2.png,t1.png,1,0.90025,19,Female,2020-09-28_13h30.00.964,torte-2b,2020.1.3,MacIntel,60,13242,,,,,,,,,,,,,,,,,,,,,,,,,,,,,,,,,,,,,0,106,106,62,1,,,,,,,,,,,,,,,,,,,,,,,,
,,,,,,,,,,,,l,0.01852,Incorrect,,,,,,t1.png,t1.png,0,0.978,19,Female,2020-09-28_13h30.00.964,torte-2b,2020.1.3,MacIntel,60,13242,,,,,,,,,,,,,,,,,,,,,,,,,,,,,,,,,,,,,0,107,107,54,1,,,,,,,,,,,,,,,,,,,,,,,,
,,,,,,,,,,,,a,0.05033,Incorrect,,,,,,t4.png,t2.png,2,0.059078,19,Female,2020-09-28_13h30.00.964,torte-2b,2020.1.3,MacIntel,60,13242,,,,,,,,,,,,,,,,,,,,,,,,,,,,,,,,,,,,,0,108,108,88,1,,,,,,,,,,,,,,,,,,,,,,,,
,,,,,,,,,,,,l,0.18836,Correct!,,,,,,t1.png,t3.png,2,0.056466,19,Female,2020-09-28_13h30.00.964,torte-2b,2020.1.3,MacIntel,60,13242,,,,,,,,,,,,,,,,,,,,,,,,,,,,,,,,,,,,,0,109,109,99,1,,,,,,,,,,,,,,,,,,,,,,,,
,,,,,,,,,,,,a,0.300105,Correct!,,,,,,t5.png,t5.png,0,0.97829,19,Female,2020-09-28_13h30.00.964,torte-2b,2020.1.3,MacIntel,60,13242,,,,,,,,,,,,,,,,,,,,,,,,,,,,,,,,,,,,,0,110,110,70,1,,,,,,,,,,,,,,,,,,,,,,,,
,,,,,,,,,,,,l,0.2846,Incorrect,,,,,,t2.png,t2.png,0,0.98115,19,Female,2020-09-28_13h30.00.964,torte-2b,2020.1.3,MacIntel,60,13242,,,,,,,,,,,,,,,,,,,,,,,,,,,,,,,,,,,,,0,111,111,57,1,,,,,,,,,,,,,,,,,,,,,,,,
,,,,,,,,,,,,a,0.08455,Correct!,,,,,,t4.png,t3.png,1,0.909,19,Female,2020-09-28_13h30.00.964,torte-2b,2020.1.3,MacIntel,60,13242,,,,,,,,,,,,,,,,,,,,,,,,,,,,,,,,,,,,,0,112,112,46,1,,,,,,,,,,,,,,,,,,,,,,,,
,,,,,,,,,,,,l,0.00081,Incorrect,,,,,,t3.png,t2.png,1,0.90855,19,Female,2020-09-28_13h30.00.964,torte-2b,2020.1.3,MacIntel,60,13242,,,,,,,,,,,,,,,,,,,,,,,,,,,,,,,,,,,,,0,113,113,53,1,,,,,,,,,,,,,,,,,,,,,,,,
,,,,,,,,,,,,a,0.117665,Incorrect,,,,,,t1.png,t3.png,2,0.056466,19,Female,2020-09-28_13h30.00.964,torte-2b,2020.1.3,MacIntel,60,13242,,,,,,,,,,,,,,,,,,,,,,,,,,,,,,,,,,,,,0,114,114,69,1,,,,,,,,,,,,,,,,,,,,,,,,
,,,,,,,,,,,,a,0.36655,Correct!,,,,,,t5.png,t4.png,1,0.9,19,Female,2020-09-28_13h30.00.964,torte-2b,2020.1.3,MacIntel,60,13242,,,,,,,,,,,,,,,,,,,,,,,,,,,,,,,,,,,,,0,115,115,76,1,,,,,,,,,,,,,,,,,,,,,,,,
,,,,,,,,,,,,l,0.284675,Correct!,,,,,,t4.png,t1.png,3,0.0000131,19,Female,2020-09-28_13h30.00.964,torte-2b,2020.1.3,MacIntel,60,13242,,,,,,,,,,,,,,,,,,,,,,,,,,,,,,,,,,,,,0,116,116,93,1,,,,,,,,,,,,,,,,,,,,,,,,
,,,,,,,,,,,,a,0.20228,Incorrect,,,,,,t3.png,t1.png,2,0.0565,19,Female,2020-09-28_13h30.00.964,torte-2b,2020.1.3,MacIntel,60,13242,,,,,,,,,,,,,,,,,,,,,,,,,,,,,,,,,,,,,0,117,117,31,1,,,,,,,,,,,,,,,,,,,,,,,,
,,,,,,,,,,,,l,0.300055,Incorrect,,,,,,t5.png,t5.png,0,0.97829,19,Female,2020-09-28_13h30.00.964,torte-2b,2020.1.3,MacIntel,60,13242,,,,,,,,,,,,,,,,,,,,,,,,,,,,,,,,,,,,,0,118,118,73,1,,,,,,,,,,,,,,,,,,,,,,,,
,,,,,,,,,,,,a,0.00292,Incorrect,,,,,,t5.png,t2.png,3,0.0000131,19,Female,2020-09-28_13h30.00.964,torte-2b,2020.1.3,MacIntel,60,13242,,,,,,,,,,,,,,,,,,,,,,,,,,,,,,,,,,,,,0,119,119,119,1,,,,,,,,,,,,,,,,,,,,,,,,
,,,,,,,,,,,,,,,,,,,,,,,,19,Female,2020-09-28_13h30.00.964,torte-2b,2020.1.3,MacIntel,60,13242,space,1.686785,,,,,,,,,,,,,,,,,,,,,,,,,,,,,,,,,,,,,,,,135.9375,62.921875,1,0,0,s3,80.640625,19.515625,1,0,0,t2,216.703125,-105.1757813,1,0,0,proceed,space,2.01877,space,0.55242,space,0.336865
