key_resp_8.keys,key_resp_8.rt,key_resp_9.keys,key_resp_9.rt,key_resp_10.keys,key_resp_10.rt,key_resp_11.keys,key_resp_11.rt,key_resp_2.keys,key_resp_2.rt,key_resp_3.keys,key_resp_3.rt,key_resp.keys,Feedback,train.thisRepN,train.thisTrialN,train.thisN,train.thisIndex,train.ran,torta_sx,torta_dx,difference,probability,age,gender,date,expName,psychopyVersion,OS,frameRate,participant,key_resp.rt,key_resp_15.keys,key_resp_15.rt,key_resp_6.keys,key_resp_6.rt,test1.thisRepN,test1.thisTrialN,test1.thisN,test1.thisIndex,test1.ran,key_resp_4.keys,key_resp_4.rt,key_resp_5.keys,back1.thisRepN,back1.thisTrialN,back1.thisN,back1.thisIndex,back1.ran,letter,key_resp_5.rt,back2.thisRepN,back2.thisTrialN,back2.thisN,back2.thisIndex,back2.ran,back3.thisRepN,back3.thisTrialN,back3.thisN,back3.thisIndex,back3.ran,back4.thisRepN,back4.thisTrialN,back4.thisN,back4.thisIndex,back4.ran,key_resp_7.keys,key_resp_7.rt,test2.thisRepN,test2.thisTrialN,test2.thisN,test2.thisIndex,test2.ran,mouse.x,mouse.y,mouse.leftButton,mouse.midButton,mouse.rightButton,mouse.clicked_name,mouse_2.x,mouse_2.y,mouse_2.leftButton,mouse_2.midButton,mouse_2.rightButton,mouse_2.clicked_name,mouse_3.x,mouse_3.y,mouse_3.leftButton,mouse_3.midButton,mouse_3.rightButton,mouse_3.clicked_name,key_resp_12.keys,key_resp_12.rt,key_resp_13.keys,key_resp_13.rt,key_resp_14.keys,key_resp_14.rt
space,0.530125,space,0.32886,space,0.311855,space,0.318455,h,0.790705,space,0.0917,,Too slow :(,0,0,0,1,1,t3.png,t1.png,2,0.056466,19,female,2020-07-28_15h16.21.943,torte-2b,2020.1.3,Win32,60,13247,,,,,,,,,,,,,,,,,,,,,,,,,,,,,,,,,,,,,,,,,,,,,,,,,,,,,,,,,,,,,,,,,,
,,,,,,,,,,,,a,Correct!,0,1,1,111,1,t1.png,t1.png,0,0.97829,19,female,2020-07-28_15h16.21.943,torte-2b,2020.1.3,Win32,60,13247,0.881545,,,,,,,,,,,,,,,,,,,,,,,,,,,,,,,,,,,,,,,,,,,,,,,,,,,,,,,,,,,,,,,,,
,,,,,,,,,,,,a,Incorrect,0,2,2,106,1,t4.png,t1.png,3,0.059078,19,female,2020-07-28_15h16.21.943,torte-2b,2020.1.3,Win32,60,13247,0.59109,,,,,,,,,,,,,,,,,,,,,,,,,,,,,,,,,,,,,,,,,,,,,,,,,,,,,,,,,,,,,,,,,
,,,,,,,,,,,,l,Correct!,0,3,3,37,1,t2.png,t4.png,2,0.059078,19,female,2020-07-28_15h16.21.943,torte-2b,2020.1.3,Win32,60,13247,1.11875,,,,,,,,,,,,,,,,,,,,,,,,,,,,,,,,,,,,,,,,,,,,,,,,,,,,,,,,,,,,,,,,,
,,,,,,,,,,,,a,Incorrect,0,4,4,113,1,t5.png,t1.png,4,9.55E-11,19,female,2020-07-28_15h16.21.943,torte-2b,2020.1.3,Win32,60,13247,0.5477,,,,,,,,,,,,,,,,,,,,,,,,,,,,,,,,,,,,,,,,,,,,,,,,,,,,,,,,,,,,,,,,,
,,,,,,,,,,,,a,Correct!,0,5,5,100,1,t3.png,t2.png,1,0.90855,19,female,2020-07-28_15h16.21.943,torte-2b,2020.1.3,Win32,60,13247,0.958095,,,,,,,,,,,,,,,,,,,,,,,,,,,,,,,,,,,,,,,,,,,,,,,,,,,,,,,,,,,,,,,,,
,,,,,,,,,,,,l,Incorrect,0,6,6,18,1,t2.png,t3.png,1,0.90855,19,female,2020-07-28_15h16.21.943,torte-2b,2020.1.3,Win32,60,13247,0.83911,,,,,,,,,,,,,,,,,,,,,,,,,,,,,,,,,,,,,,,,,,,,,,,,,,,,,,,,,,,,,,,,,
,,,,,,,,,,,,a,Correct!,0,7,7,47,1,t2.png,t3.png,1,0.90855,19,female,2020-07-28_15h16.21.943,torte-2b,2020.1.3,Win32,60,13247,1.425005,,,,,,,,,,,,,,,,,,,,,,,,,,,,,,,,,,,,,,,,,,,,,,,,,,,,,,,,,,,,,,,,,
,,,,,,,,,,,,l,Correct!,0,8,8,9,1,t1.png,t5.png,4,9.55E-11,19,female,2020-07-28_15h16.21.943,torte-2b,2020.1.3,Win32,60,13247,1.248185,,,,,,,,,,,,,,,,,,,,,,,,,,,,,,,,,,,,,,,,,,,,,,,,,,,,,,,,,,,,,,,,,
,,,,,,,,,,,,a,Incorrect,0,9,9,99,1,t4.png,t1.png,3,0.059078,19,female,2020-07-28_15h16.21.943,torte-2b,2020.1.3,Win32,60,13247,0.82574,,,,,,,,,,,,,,,,,,,,,,,,,,,,,,,,,,,,,,,,,,,,,,,,,,,,,,,,,,,,,,,,,
,,,,,,,,,,,,a,Incorrect,0,10,10,13,1,t2.png,t4.png,2,0.059078,19,female,2020-07-28_15h16.21.943,torte-2b,2020.1.3,Win32,60,13247,0.439765,,,,,,,,,,,,,,,,,,,,,,,,,,,,,,,,,,,,,,,,,,,,,,,,,,,,,,,,,,,,,,,,,
,,,,,,,,,,,,l,Correct!,0,11,11,107,1,t1.png,t4.png,3,0.0000131,19,female,2020-07-28_15h16.21.943,torte-2b,2020.1.3,Win32,60,13247,0.30066,,,,,,,,,,,,,,,,,,,,,,,,,,,,,,,,,,,,,,,,,,,,,,,,,,,,,,,,,,,,,,,,,
,,,,,,,,,,,,l,Incorrect,0,12,12,31,1,t1.png,t1.png,0,0.97829,19,female,2020-07-28_15h16.21.943,torte-2b,2020.1.3,Win32,60,13247,0.56552,,,,,,,,,,,,,,,,,,,,,,,,,,,,,,,,,,,,,,,,,,,,,,,,,,,,,,,,,,,,,,,,,
,,,,,,,,,,,,a,Correct!,0,13,13,42,1,t5.png,t5.png,0,0.97829,19,female,2020-07-28_15h16.21.943,torte-2b,2020.1.3,Win32,60,13247,0.787635,,,,,,,,,,,,,,,,,,,,,,,,,,,,,,,,,,,,,,,,,,,,,,,,,,,,,,,,,,,,,,,,,
,,,,,,,,,,,,l,Correct!,0,14,14,27,1,t1.png,t5.png,4,9.55E-11,19,female,2020-07-28_15h16.21.943,torte-2b,2020.1.3,Win32,60,13247,1.62401,,,,,,,,,,,,,,,,,,,,,,,,,,,,,,,,,,,,,,,,,,,,,,,,,,,,,,,,,,,,,,,,,
,,,,,,,,,,,,a,Correct!,0,15,15,53,1,t1.png,t1.png,0,0.97829,19,female,2020-07-28_15h16.21.943,torte-2b,2020.1.3,Win32,60,13247,0.83111,,,,,,,,,,,,,,,,,,,,,,,,,,,,,,,,,,,,,,,,,,,,,,,,,,,,,,,,,,,,,,,,,
,,,,,,,,,,,,a,Incorrect,0,16,16,74,1,t5.png,t1.png,4,9.55E-11,19,female,2020-07-28_15h16.21.943,torte-2b,2020.1.3,Win32,60,13247,0.481515,,,,,,,,,,,,,,,,,,,,,,,,,,,,,,,,,,,,,,,,,,,,,,,,,,,,,,,,,,,,,,,,,
,,,,,,,,,,,,a,Correct!,0,17,17,93,1,t5.png,t4.png,1,0.90025,19,female,2020-07-28_15h16.21.943,torte-2b,2020.1.3,Win32,60,13247,0.641325,,,,,,,,,,,,,,,,,,,,,,,,,,,,,,,,,,,,,,,,,,,,,,,,,,,,,,,,,,,,,,,,,
,,,,,,,,,,,,l,Incorrect,0,18,18,14,1,t2.png,t3.png,1,0.90855,19,female,2020-07-28_15h16.21.943,torte-2b,2020.1.3,Win32,60,13247,0.88929,,,,,,,,,,,,,,,,,,,,,,,,,,,,,,,,,,,,,,,,,,,,,,,,,,,,,,,,,,,,,,,,,
,,,,,,,,,,,,a,Incorrect,0,19,19,49,1,t5.png,t1.png,4,9.55E-11,19,female,2020-07-28_15h16.21.943,torte-2b,2020.1.3,Win32,60,13247,0.438455,,,,,,,,,,,,,,,,,,,,,,,,,,,,,,,,,,,,,,,,,,,,,,,,,,,,,,,,,,,,,,,,,
,,,,,,,,,,,,a,Correct!,0,20,20,71,1,t4.png,t5.png,1,0.90025,19,female,2020-07-28_15h16.21.943,torte-2b,2020.1.3,Win32,60,13247,0.77415,,,,,,,,,,,,,,,,,,,,,,,,,,,,,,,,,,,,,,,,,,,,,,,,,,,,,,,,,,,,,,,,,
,,,,,,,,,,,,l,Correct!,0,21,21,34,1,t1.png,t5.png,4,9.55E-11,19,female,2020-07-28_15h16.21.943,torte-2b,2020.1.3,Win32,60,13247,0.84238,,,,,,,,,,,,,,,,,,,,,,,,,,,,,,,,,,,,,,,,,,,,,,,,,,,,,,,,,,,,,,,,,
,,,,,,,,,,,,a,Incorrect,0,22,22,3,1,t4.png,t1.png,3,0.059078,19,female,2020-07-28_15h16.21.943,torte-2b,2020.1.3,Win32,60,13247,0.62422,,,,,,,,,,,,,,,,,,,,,,,,,,,,,,,,,,,,,,,,,,,,,,,,,,,,,,,,,,,,,,,,,
,,,,,,,,,,,,l,Correct!,0,23,23,23,1,t4.png,t5.png,1,0.90025,19,female,2020-07-28_15h16.21.943,torte-2b,2020.1.3,Win32,60,13247,0.793925,,,,,,,,,,,,,,,,,,,,,,,,,,,,,,,,,,,,,,,,,,,,,,,,,,,,,,,,,,,,,,,,,
,,,,,,,,,,,,l,Correct!,0,24,24,63,1,t1.png,t5.png,4,9.55E-11,19,female,2020-07-28_15h16.21.943,torte-2b,2020.1.3,Win32,60,13247,0.681535,,,,,,,,,,,,,,,,,,,,,,,,,,,,,,,,,,,,,,,,,,,,,,,,,,,,,,,,,,,,,,,,,
,,,,,,,,,,,,a,Incorrect,0,25,25,30,1,t2.png,t3.png,1,0.90855,19,female,2020-07-28_15h16.21.943,torte-2b,2020.1.3,Win32,60,13247,1.214665,,,,,,,,,,,,,,,,,,,,,,,,,,,,,,,,,,,,,,,,,,,,,,,,,,,,,,,,,,,,,,,,,
,,,,,,,,,,,,l,Correct!,0,26,26,79,1,t1.png,t4.png,3,0.0000131,19,female,2020-07-28_15h16.21.943,torte-2b,2020.1.3,Win32,60,13247,1.482445,,,,,,,,,,,,,,,,,,,,,,,,,,,,,,,,,,,,,,,,,,,,,,,,,,,,,,,,,,,,,,,,,
,,,,,,,,,,,,l,Incorrect,0,27,27,48,1,t2.png,t3.png,1,0.90855,19,female,2020-07-28_15h16.21.943,torte-2b,2020.1.3,Win32,60,13247,0.72349,,,,,,,,,,,,,,,,,,,,,,,,,,,,,,,,,,,,,,,,,,,,,,,,,,,,,,,,,,,,,,,,,
,,,,,,,,,,,,a,Incorrect,0,28,28,6,1,t5.png,t1.png,4,9.55E-11,19,female,2020-07-28_15h16.21.943,torte-2b,2020.1.3,Win32,60,13247,1.08701,,,,,,,,,,,,,,,,,,,,,,,,,,,,,,,,,,,,,,,,,,,,,,,,,,,,,,,,,,,,,,,,,
,,,,,,,,,,,,l,Correct!,0,29,29,117,1,t2.png,t4.png,2,0.059078,19,female,2020-07-28_15h16.21.943,torte-2b,2020.1.3,Win32,60,13247,1.30815,,,,,,,,,,,,,,,,,,,,,,,,,,,,,,,,,,,,,,,,,,,,,,,,,,,,,,,,,,,,,,,,,
,,,,,,,,,,,,a,Correct!,0,30,30,32,1,t3.png,t2.png,1,0.90855,19,female,2020-07-28_15h16.21.943,torte-2b,2020.1.3,Win32,60,13247,0.95594,,,,,,,,,,,,,,,,,,,,,,,,,,,,,,,,,,,,,,,,,,,,,,,,,,,,,,,,,,,,,,,,,
,,,,,,,,,,,,l,Incorrect,0,31,31,52,1,t2.png,t3.png,1,0.90855,19,female,2020-07-28_15h16.21.943,torte-2b,2020.1.3,Win32,60,13247,0.94058,,,,,,,,,,,,,,,,,,,,,,,,,,,,,,,,,,,,,,,,,,,,,,,,,,,,,,,,,,,,,,,,,
,,,,,,,,,,,,a,Correct!,0,32,32,60,1,t4.png,t5.png,1,0.90025,19,female,2020-07-28_15h16.21.943,torte-2b,2020.1.3,Win32,60,13247,0.865235,,,,,,,,,,,,,,,,,,,,,,,,,,,,,,,,,,,,,,,,,,,,,,,,,,,,,,,,,,,,,,,,,
,,,,,,,,,,,,a,Correct!,0,33,33,0,1,t3.png,t2.png,1,0.90855,19,female,2020-07-28_15h16.21.943,torte-2b,2020.1.3,Win32,60,13247,0.556255,,,,,,,,,,,,,,,,,,,,,,,,,,,,,,,,,,,,,,,,,,,,,,,,,,,,,,,,,,,,,,,,,
,,,,,,,,,,,,l,Correct!,0,34,34,36,1,t1.png,t4.png,3,0.0000131,19,female,2020-07-28_15h16.21.943,torte-2b,2020.1.3,Win32,60,13247,0.632655,,,,,,,,,,,,,,,,,,,,,,,,,,,,,,,,,,,,,,,,,,,,,,,,,,,,,,,,,,,,,,,,,
,,,,,,,,,,,,a,Correct!,0,35,35,24,1,t5.png,t5.png,0,0.97829,19,female,2020-07-28_15h16.21.943,torte-2b,2020.1.3,Win32,60,13247,0.948335,,,,,,,,,,,,,,,,,,,,,,,,,,,,,,,,,,,,,,,,,,,,,,,,,,,,,,,,,,,,,,,,,
,,,,,,,,,,,,a,Incorrect,0,36,36,82,1,t3.png,t1.png,2,0.056466,19,female,2020-07-28_15h16.21.943,torte-2b,2020.1.3,Win32,60,13247,0.52088,,,,,,,,,,,,,,,,,,,,,,,,,,,,,,,,,,,,,,,,,,,,,,,,,,,,,,,,,,,,,,,,,
,,,,,,,,,,,,l,Correct!,0,37,37,95,1,t1.png,t4.png,3,0.0000131,19,female,2020-07-28_15h16.21.943,torte-2b,2020.1.3,Win32,60,13247,0.50979,,,,,,,,,,,,,,,,,,,,,,,,,,,,,,,,,,,,,,,,,,,,,,,,,,,,,,,,,,,,,,,,,
,,,,,,,,,,,,a,Correct!,0,38,38,38,1,t1.png,t1.png,0,0.97829,19,female,2020-07-28_15h16.21.943,torte-2b,2020.1.3,Win32,60,13247,0.58086,,,,,,,,,,,,,,,,,,,,,,,,,,,,,,,,,,,,,,,,,,,,,,,,,,,,,,,,,,,,,,,,,
,,,,,,,,,,,,a,Incorrect,0,39,39,92,1,t5.png,t1.png,4,9.55E-11,19,female,2020-07-28_15h16.21.943,torte-2b,2020.1.3,Win32,60,13247,0.52208,,,,,,,,,,,,,,,,,,,,,,,,,,,,,,,,,,,,,,,,,,,,,,,,,,,,,,,,,,,,,,,,,
,,,,,,,,,,,,a,Correct!,0,40,40,7,1,t3.png,t2.png,1,0.90855,19,female,2020-07-28_15h16.21.943,torte-2b,2020.1.3,Win32,60,13247,0.58265,,,,,,,,,,,,,,,,,,,,,,,,,,,,,,,,,,,,,,,,,,,,,,,,,,,,,,,,,,,,,,,,,
,,,,,,,,,,,,a,Incorrect,0,41,41,10,1,t4.png,t1.png,3,0.059078,19,female,2020-07-28_15h16.21.943,torte-2b,2020.1.3,Win32,60,13247,0.41893,,,,,,,,,,,,,,,,,,,,,,,,,,,,,,,,,,,,,,,,,,,,,,,,,,,,,,,,,,,,,,,,,
,,,,,,,,,,,,a,Incorrect,0,42,42,78,1,t1.png,t4.png,3,0.0000131,19,female,2020-07-28_15h16.21.943,torte-2b,2020.1.3,Win32,60,13247,0.29384,,,,,,,,,,,,,,,,,,,,,,,,,,,,,,,,,,,,,,,,,,,,,,,,,,,,,,,,,,,,,,,,,
,,,,,,,,,,,,a,Correct!,0,43,43,67,1,t3.png,t2.png,1,0.90855,19,female,2020-07-28_15h16.21.943,torte-2b,2020.1.3,Win32,60,13247,0.223405,,,,,,,,,,,,,,,,,,,,,,,,,,,,,,,,,,,,,,,,,,,,,,,,,,,,,,,,,,,,,,,,,
,,,,,,,,,,,,a,Correct!,0,44,44,83,1,t3.png,t2.png,1,0.90855,19,female,2020-07-28_15h16.21.943,torte-2b,2020.1.3,Win32,60,13247,0.25342,,,,,,,,,,,,,,,,,,,,,,,,,,,,,,,,,,,,,,,,,,,,,,,,,,,,,,,,,,,,,,,,,
,,,,,,,,,,,,a,Incorrect,0,45,45,19,1,t2.png,t4.png,2,0.059078,19,female,2020-07-28_15h16.21.943,torte-2b,2020.1.3,Win32,60,13247,0.22639,,,,,,,,,,,,,,,,,,,,,,,,,,,,,,,,,,,,,,,,,,,,,,,,,,,,,,,,,,,,,,,,,
,,,,,,,,,,,,a,Incorrect,0,46,46,108,1,t3.png,t1.png,2,0.056466,19,female,2020-07-28_15h16.21.943,torte-2b,2020.1.3,Win32,60,13247,0.398685,,,,,,,,,,,,,,,,,,,,,,,,,,,,,,,,,,,,,,,,,,,,,,,,,,,,,,,,,,,,,,,,,
,,,,,,,,,,,,a,Correct!,0,47,47,91,1,t5.png,t4.png,1,0.90025,19,female,2020-07-28_15h16.21.943,torte-2b,2020.1.3,Win32,60,13247,0.39913,,,,,,,,,,,,,,,,,,,,,,,,,,,,,,,,,,,,,,,,,,,,,,,,,,,,,,,,,,,,,,,,,
,,,,,,,,,,,,a,Incorrect,0,48,48,2,1,t3.png,t1.png,2,0.056466,19,female,2020-07-28_15h16.21.943,torte-2b,2020.1.3,Win32,60,13247,0.41562,,,,,,,,,,,,,,,,,,,,,,,,,,,,,,,,,,,,,,,,,,,,,,,,,,,,,,,,,,,,,,,,,
,,,,,,,,,,,,l,Correct!,0,49,49,11,1,t1.png,t4.png,3,0.0000131,19,female,2020-07-28_15h16.21.943,torte-2b,2020.1.3,Win32,60,13247,0.590965,,,,,,,,,,,,,,,,,,,,,,,,,,,,,,,,,,,,,,,,,,,,,,,,,,,,,,,,,,,,,,,,,
,,,,,,,,,,,,a,Incorrect,0,50,50,76,1,t4.png,t1.png,3,0.059078,19,female,2020-07-28_15h16.21.943,torte-2b,2020.1.3,Win32,60,13247,0.374235,,,,,,,,,,,,,,,,,,,,,,,,,,,,,,,,,,,,,,,,,,,,,,,,,,,,,,,,,,,,,,,,,
,,,,,,,,,,,,a,Incorrect,0,51,51,40,1,t2.png,t4.png,2,0.059078,19,female,2020-07-28_15h16.21.943,torte-2b,2020.1.3,Win32,60,13247,0.2657,,,,,,,,,,,,,,,,,,,,,,,,,,,,,,,,,,,,,,,,,,,,,,,,,,,,,,,,,,,,,,,,,
,,,,,,,,,,,,a,Incorrect,0,52,52,81,1,t3.png,t1.png,2,0.056466,19,female,2020-07-28_15h16.21.943,torte-2b,2020.1.3,Win32,60,13247,0.4481,,,,,,,,,,,,,,,,,,,,,,,,,,,,,,,,,,,,,,,,,,,,,,,,,,,,,,,,,,,,,,,,,
,,,,,,,,,,,,a,Correct!,0,53,53,33,1,t3.png,t2.png,1,0.90855,19,female,2020-07-28_15h16.21.943,torte-2b,2020.1.3,Win32,60,13247,0.457265,,,,,,,,,,,,,,,,,,,,,,,,,,,,,,,,,,,,,,,,,,,,,,,,,,,,,,,,,,,,,,,,,
,,,,,,,,,,,,a,Correct!,0,54,54,97,1,t1.png,t1.png,0,0.97829,19,female,2020-07-28_15h16.21.943,torte-2b,2020.1.3,Win32,60,13247,0.3083,,,,,,,,,,,,,,,,,,,,,,,,,,,,,,,,,,,,,,,,,,,,,,,,,,,,,,,,,,,,,,,,,
,,,,,,,,,,,,a,Correct!,0,55,55,101,1,t5.png,t4.png,1,0.90025,19,female,2020-07-28_15h16.21.943,torte-2b,2020.1.3,Win32,60,13247,0.41587,,,,,,,,,,,,,,,,,,,,,,,,,,,,,,,,,,,,,,,,,,,,,,,,,,,,,,,,,,,,,,,,,
,,,,,,,,,,,,a,Incorrect,0,56,56,96,1,t2.png,t4.png,2,0.059078,19,female,2020-07-28_15h16.21.943,torte-2b,2020.1.3,Win32,60,13247,0.432195,,,,,,,,,,,,,,,,,,,,,,,,,,,,,,,,,,,,,,,,,,,,,,,,,,,,,,,,,,,,,,,,,
,,,,,,,,,,,,a,Correct!,0,57,57,46,1,t1.png,t1.png,0,0.97829,19,female,2020-07-28_15h16.21.943,torte-2b,2020.1.3,Win32,60,13247,0.59902,,,,,,,,,,,,,,,,,,,,,,,,,,,,,,,,,,,,,,,,,,,,,,,,,,,,,,,,,,,,,,,,,
,,,,,,,,,,,,l,Incorrect,0,58,58,4,1,t3.png,t2.png,1,0.90855,19,female,2020-07-28_15h16.21.943,torte-2b,2020.1.3,Win32,60,13247,0.95028,,,,,,,,,,,,,,,,,,,,,,,,,,,,,,,,,,,,,,,,,,,,,,,,,,,,,,,,,,,,,,,,,
,,,,,,,,,,,,l,Correct!,0,59,59,16,1,t1.png,t5.png,4,9.55E-11,19,female,2020-07-28_15h16.21.943,torte-2b,2020.1.3,Win32,60,13247,1.499915,,,,,,,,,,,,,,,,,,,,,,,,,,,,,,,,,,,,,,,,,,,,,,,,,,,,,,,,,,,,,,,,,
,,,,,,,,,,,,l,Incorrect,0,60,60,110,1,t4.png,t5.png,1,0.90025,19,female,2020-07-28_15h16.21.943,torte-2b,2020.1.3,Win32,60,13247,1.532195,,,,,,,,,,,,,,,,,,,,,,,,,,,,,,,,,,,,,,,,,,,,,,,,,,,,,,,,,,,,,,,,,
,,,,,,,,,,,,a,Incorrect,0,61,61,54,1,t3.png,t1.png,2,0.056466,19,female,2020-07-28_15h16.21.943,torte-2b,2020.1.3,Win32,60,13247,0.801085,,,,,,,,,,,,,,,,,,,,,,,,,,,,,,,,,,,,,,,,,,,,,,,,,,,,,,,,,,,,,,,,,
,,,,,,,,,,,,a,Correct!,0,62,62,65,1,t5.png,t5.png,0,0.97829,19,female,2020-07-28_15h16.21.943,torte-2b,2020.1.3,Win32,60,13247,0.64934,,,,,,,,,,,,,,,,,,,,,,,,,,,,,,,,,,,,,,,,,,,,,,,,,,,,,,,,,,,,,,,,,
,,,,,,,,,,,,l,Correct!,0,63,63,103,1,t4.png,t1.png,3,0.059078,19,female,2020-07-28_15h16.21.943,torte-2b,2020.1.3,Win32,60,13247,1.251665,,,,,,,,,,,,,,,,,,,,,,,,,,,,,,,,,,,,,,,,,,,,,,,,,,,,,,,,,,,,,,,,,
,,,,,,,,,,,,l,Incorrect,0,64,64,119,1,t5.png,t4.png,1,0.90025,19,female,2020-07-28_15h16.21.943,torte-2b,2020.1.3,Win32,60,13247,1.539835,,,,,,,,,,,,,,,,,,,,,,,,,,,,,,,,,,,,,,,,,,,,,,,,,,,,,,,,,,,,,,,,,
,,,,,,,,,,,,a,Incorrect,0,65,65,80,1,t4.png,t1.png,3,0.059078,19,female,2020-07-28_15h16.21.943,torte-2b,2020.1.3,Win32,60,13247,0.46529,,,,,,,,,,,,,,,,,,,,,,,,,,,,,,,,,,,,,,,,,,,,,,,,,,,,,,,,,,,,,,,,,
,,,,,,,,,,,,a,Correct!,0,66,66,41,1,t4.png,t5.png,1,0.90025,19,female,2020-07-28_15h16.21.943,torte-2b,2020.1.3,Win32,60,13247,0.615535,,,,,,,,,,,,,,,,,,,,,,,,,,,,,,,,,,,,,,,,,,,,,,,,,,,,,,,,,,,,,,,,,
,,,,,,,,,,,,a,Incorrect,0,67,67,59,1,t5.png,t1.png,4,9.55E-11,19,female,2020-07-28_15h16.21.943,torte-2b,2020.1.3,Win32,60,13247,0.70232,,,,,,,,,,,,,,,,,,,,,,,,,,,,,,,,,,,,,,,,,,,,,,,,,,,,,,,,,,,,,,,,,
,,,,,,,,,,,,a,Correct!,0,68,68,21,1,t5.png,t4.png,1,0.90025,19,female,2020-07-28_15h16.21.943,torte-2b,2020.1.3,Win32,60,13247,0.7817,,,,,,,,,,,,,,,,,,,,,,,,,,,,,,,,,,,,,,,,,,,,,,,,,,,,,,,,,,,,,,,,,
,,,,,,,,,,,,a,Correct!,0,69,69,45,1,t4.png,t5.png,1,0.90025,19,female,2020-07-28_15h16.21.943,torte-2b,2020.1.3,Win32,60,13247,0.902335,,,,,,,,,,,,,,,,,,,,,,,,,,,,,,,,,,,,,,,,,,,,,,,,,,,,,,,,,,,,,,,,,
,,,,,,,,,,,,a,Correct!,0,70,70,86,1,t5.png,t4.png,1,0.90025,19,female,2020-07-28_15h16.21.943,torte-2b,2020.1.3,Win32,60,13247,0.981775,,,,,,,,,,,,,,,,,,,,,,,,,,,,,,,,,,,,,,,,,,,,,,,,,,,,,,,,,,,,,,,,,
,,,,,,,,,,,,a,Incorrect,0,71,71,98,1,t5.png,t1.png,4,9.55E-11,19,female,2020-07-28_15h16.21.943,torte-2b,2020.1.3,Win32,60,13247,0.75514,,,,,,,,,,,,,,,,,,,,,,,,,,,,,,,,,,,,,,,,,,,,,,,,,,,,,,,,,,,,,,,,,
,,,,,,,,,,,,l,Correct!,0,72,72,87,1,t5.png,t1.png,4,9.55E-11,19,female,2020-07-28_15h16.21.943,torte-2b,2020.1.3,Win32,60,13247,0.88175,,,,,,,,,,,,,,,,,,,,,,,,,,,,,,,,,,,,,,,,,,,,,,,,,,,,,,,,,,,,,,,,,
,,,,,,,,,,,,a,Correct!,0,73,73,88,1,t1.png,t1.png,0,0.97829,19,female,2020-07-28_15h16.21.943,torte-2b,2020.1.3,Win32,60,13247,0.71086,,,,,,,,,,,,,,,,,,,,,,,,,,,,,,,,,,,,,,,,,,,,,,,,,,,,,,,,,,,,,,,,,
,,,,,,,,,,,,l,Incorrect,0,74,74,56,1,t2.png,t3.png,1,0.90855,19,female,2020-07-28_15h16.21.943,torte-2b,2020.1.3,Win32,60,13247,0.9009,,,,,,,,,,,,,,,,,,,,,,,,,,,,,,,,,,,,,,,,,,,,,,,,,,,,,,,,,,,,,,,,,
,,,,,,,,,,,,a,Incorrect,0,75,75,50,1,t1.png,t5.png,4,9.55E-11,19,female,2020-07-28_15h16.21.943,torte-2b,2020.1.3,Win32,60,13247,2.031715,,,,,,,,,,,,,,,,,,,,,,,,,,,,,,,,,,,,,,,,,,,,,,,,,,,,,,,,,,,,,,,,,
,,,,,,,,,,,,,Too slow :(,0,76,76,115,1,t2.png,t4.png,2,0.059078,19,female,2020-07-28_15h16.21.943,torte-2b,2020.1.3,Win32,60,13247,,,,,,,,,,,,,,,,,,,,,,,,,,,,,,,,,,,,,,,,,,,,,,,,,,,,,,,,,,,,,,,,,,
,,,,,,,,,,,,l,Correct!,0,77,77,118,1,t1.png,t5.png,4,9.55E-11,19,female,2020-07-28_15h16.21.943,torte-2b,2020.1.3,Win32,60,13247,1.037225,,,,,,,,,,,,,,,,,,,,,,,,,,,,,,,,,,,,,,,,,,,,,,,,,,,,,,,,,,,,,,,,,
,,,,,,,,,,,,a,Correct!,0,78,78,55,1,t1.png,t1.png,0,0.97829,19,female,2020-07-28_15h16.21.943,torte-2b,2020.1.3,Win32,60,13247,0.77945,,,,,,,,,,,,,,,,,,,,,,,,,,,,,,,,,,,,,,,,,,,,,,,,,,,,,,,,,,,,,,,,,
,,,,,,,,,,,,l,Incorrect,0,79,79,104,1,t4.png,t5.png,1,0.90025,19,female,2020-07-28_15h16.21.943,torte-2b,2020.1.3,Win32,60,13247,1.290255,,,,,,,,,,,,,,,,,,,,,,,,,,,,,,,,,,,,,,,,,,,,,,,,,,,,,,,,,,,,,,,,,
,,,,,,,,,,,,l,Correct!,0,80,80,70,1,t1.png,t5.png,4,9.55E-11,19,female,2020-07-28_15h16.21.943,torte-2b,2020.1.3,Win32,60,13247,1.199855,,,,,,,,,,,,,,,,,,,,,,,,,,,,,,,,,,,,,,,,,,,,,,,,,,,,,,,,,,,,,,,,,
,,,,,,,,,,,,l,Incorrect,0,81,81,90,1,t4.png,t5.png,1,0.90025,19,female,2020-07-28_15h16.21.943,torte-2b,2020.1.3,Win32,60,13247,1.454105,,,,,,,,,,,,,,,,,,,,,,,,,,,,,,,,,,,,,,,,,,,,,,,,,,,,,,,,,,,,,,,,,
,,,,,,,,,,,,a,Correct!,0,82,82,8,1,t5.png,t5.png,0,0.97829,19,female,2020-07-28_15h16.21.943,torte-2b,2020.1.3,Win32,60,13247,1.1691,,,,,,,,,,,,,,,,,,,,,,,,,,,,,,,,,,,,,,,,,,,,,,,,,,,,,,,,,,,,,,,,,
,,,,,,,,,,,,a,Correct!,0,83,83,12,1,t5.png,t5.png,0,0.97829,19,female,2020-07-28_15h16.21.943,torte-2b,2020.1.3,Win32,60,13247,0.999815,,,,,,,,,,,,,,,,,,,,,,,,,,,,,,,,,,,,,,,,,,,,,,,,,,,,,,,,,,,,,,,,,
,,,,,,,,,,,,l,Correct!,0,84,84,64,1,t5.png,t1.png,4,9.55E-11,19,female,2020-07-28_15h16.21.943,torte-2b,2020.1.3,Win32,60,13247,1.950645,,,,,,,,,,,,,,,,,,,,,,,,,,,,,,,,,,,,,,,,,,,,,,,,,,,,,,,,,,,,,,,,,
,,,,,,,,,,,,l,Correct!,0,85,85,39,1,t2.png,t4.png,2,0.059078,19,female,2020-07-28_15h16.21.943,torte-2b,2020.1.3,Win32,60,13247,1.66843,,,,,,,,,,,,,,,,,,,,,,,,,,,,,,,,,,,,,,,,,,,,,,,,,,,,,,,,,,,,,,,,,
,,,,,,,,,,,,a,Correct!,0,86,86,25,1,t1.png,t1.png,0,0.97829,19,female,2020-07-28_15h16.21.943,torte-2b,2020.1.3,Win32,60,13247,0.7073,,,,,,,,,,,,,,,,,,,,,,,,,,,,,,,,,,,,,,,,,,,,,,,,,,,,,,,,,,,,,,,,,
,,,,,,,,,,,,l,Correct!,0,87,87,44,1,t1.png,t4.png,3,0.0000131,19,female,2020-07-28_15h16.21.943,torte-2b,2020.1.3,Win32,60,13247,1.06351,,,,,,,,,,,,,,,,,,,,,,,,,,,,,,,,,,,,,,,,,,,,,,,,,,,,,,,,,,,,,,,,,
,,,,,,,,,,,,l,Correct!,0,88,88,62,1,t1.png,t4.png,3,0.0000131,19,female,2020-07-28_15h16.21.943,torte-2b,2020.1.3,Win32,60,13247,1.04828,,,,,,,,,,,,,,,,,,,,,,,,,,,,,,,,,,,,,,,,,,,,,,,,,,,,,,,,,,,,,,,,,
,,,,,,,,,,,,l,Correct!,0,89,89,51,1,t4.png,t1.png,3,0.059078,19,female,2020-07-28_15h16.21.943,torte-2b,2020.1.3,Win32,60,13247,2.03083,,,,,,,,,,,,,,,,,,,,,,,,,,,,,,,,,,,,,,,,,,,,,,,,,,,,,,,,,,,,,,,,,
,,,,,,,,,,,,l,Correct!,0,90,90,57,1,t3.png,t1.png,2,0.056466,19,female,2020-07-28_15h16.21.943,torte-2b,2020.1.3,Win32,60,13247,1.347705,,,,,,,,,,,,,,,,,,,,,,,,,,,,,,,,,,,,,,,,,,,,,,,,,,,,,,,,,,,,,,,,,
,,,,,,,,,,,,l,Correct!,0,91,91,68,1,t2.png,t4.png,2,0.059078,19,female,2020-07-28_15h16.21.943,torte-2b,2020.1.3,Win32,60,13247,1.648455,,,,,,,,,,,,,,,,,,,,,,,,,,,,,,,,,,,,,,,,,,,,,,,,,,,,,,,,,,,,,,,,,
,,,,,,,,,,,,a,Correct!,0,92,92,5,1,t5.png,t5.png,0,0.97829,19,female,2020-07-28_15h16.21.943,torte-2b,2020.1.3,Win32,60,13247,0.94984,,,,,,,,,,,,,,,,,,,,,,,,,,,,,,,,,,,,,,,,,,,,,,,,,,,,,,,,,,,,,,,,,
,,,,,,,,,,,,l,Correct!,0,93,93,89,1,t1.png,t5.png,4,9.55E-11,19,female,2020-07-28_15h16.21.943,torte-2b,2020.1.3,Win32,60,13247,1.18702,,,,,,,,,,,,,,,,,,,,,,,,,,,,,,,,,,,,,,,,,,,,,,,,,,,,,,,,,,,,,,,,,
,,,,,,,,,,,,l,Incorrect,0,94,94,15,1,t2.png,t3.png,1,0.90855,19,female,2020-07-28_15h16.21.943,torte-2b,2020.1.3,Win32,60,13247,0.998135,,,,,,,,,,,,,,,,,,,,,,,,,,,,,,,,,,,,,,,,,,,,,,,,,,,,,,,,,,,,,,,,,
,,,,,,,,,,,,a,Correct!,0,95,95,77,1,t3.png,t2.png,1,0.90855,19,female,2020-07-28_15h16.21.943,torte-2b,2020.1.3,Win32,60,13247,0.682575,,,,,,,,,,,,,,,,,,,,,,,,,,,,,,,,,,,,,,,,,,,,,,,,,,,,,,,,,,,,,,,,,
,,,,,,,,,,,,l,Correct!,0,96,96,17,1,t4.png,t1.png,3,0.059078,19,female,2020-07-28_15h16.21.943,torte-2b,2020.1.3,Win32,60,13247,0.948655,,,,,,,,,,,,,,,,,,,,,,,,,,,,,,,,,,,,,,,,,,,,,,,,,,,,,,,,,,,,,,,,,
,,,,,,,,,,,,a,Correct!,0,97,97,29,1,t3.png,t2.png,1,0.90855,19,female,2020-07-28_15h16.21.943,torte-2b,2020.1.3,Win32,60,13247,0.665845,,,,,,,,,,,,,,,,,,,,,,,,,,,,,,,,,,,,,,,,,,,,,,,,,,,,,,,,,,,,,,,,,
,,,,,,,,,,,,l,Incorrect,0,98,98,69,1,t5.png,t4.png,1,0.90025,19,female,2020-07-28_15h16.21.943,torte-2b,2020.1.3,Win32,60,13247,1.132225,,,,,,,,,,,,,,,,,,,,,,,,,,,,,,,,,,,,,,,,,,,,,,,,,,,,,,,,,,,,,,,,,
,,,,,,,,,,,,a,Incorrect,0,99,99,102,1,t2.png,t4.png,2,0.059078,19,female,2020-07-28_15h16.21.943,torte-2b,2020.1.3,Win32,60,13247,1.234345,,,,,,,,,,,,,,,,,,,,,,,,,,,,,,,,,,,,,,,,,,,,,,,,,,,,,,,,,,,,,,,,,
,,,,,,,,,,,,a,Correct!,0,100,100,84,1,t2.png,t3.png,1,0.90855,19,female,2020-07-28_15h16.21.943,torte-2b,2020.1.3,Win32,60,13247,1.797385,,,,,,,,,,,,,,,,,,,,,,,,,,,,,,,,,,,,,,,,,,,,,,,,,,,,,,,,,,,,,,,,,
,,,,,,,,,,,,a,Incorrect,0,101,101,105,1,t4.png,t1.png,3,0.059078,19,female,2020-07-28_15h16.21.943,torte-2b,2020.1.3,Win32,60,13247,1.41528,,,,,,,,,,,,,,,,,,,,,,,,,,,,,,,,,,,,,,,,,,,,,,,,,,,,,,,,,,,,,,,,,
,,,,,,,,,,,,l,Correct!,0,102,102,26,1,t1.png,t5.png,4,9.55E-11,19,female,2020-07-28_15h16.21.943,torte-2b,2020.1.3,Win32,60,13247,2.06721,,,,,,,,,,,,,,,,,,,,,,,,,,,,,,,,,,,,,,,,,,,,,,,,,,,,,,,,,,,,,,,,,
,,,,,,,,,,,,,Too slow :(,0,103,103,58,1,t4.png,t5.png,1,0.90025,19,female,2020-07-28_15h16.21.943,torte-2b,2020.1.3,Win32,60,13247,,,,,,,,,,,,,,,,,,,,,,,,,,,,,,,,,,,,,,,,,,,,,,,,,,,,,,,,,,,,,,,,,,
,,,,,,,,,,,,a,Correct!,0,104,104,85,1,t5.png,t4.png,1,0.90025,19,female,2020-07-28_15h16.21.943,torte-2b,2020.1.3,Win32,60,13247,2.017625,,,,,,,,,,,,,,,,,,,,,,,,,,,,,,,,,,,,,,,,,,,,,,,,,,,,,,,,,,,,,,,,,
,,,,,,,,,,,,l,Incorrect,0,105,105,43,1,t3.png,t1.png,2,0.056466,19,female,2020-07-28_15h16.21.943,torte-2b,2020.1.3,Win32,60,13247,1.232695,,,,,,,,,,,,,,,,,,,,,,,,,,,,,,,,,,,,,,,,,,,,,,,,,,,,,,,,,,,,,,,,,
,,,,,,,,,,,,l,Correct!,0,106,106,94,1,t3.png,t1.png,2,0.056466,19,female,2020-07-28_15h16.21.943,torte-2b,2020.1.3,Win32,60,13247,1.3486,,,,,,,,,,,,,,,,,,,,,,,,,,,,,,,,,,,,,,,,,,,,,,,,,,,,,,,,,,,,,,,,,
,,,,,,,,,,,,a,Correct!,0,107,107,72,1,t5.png,t5.png,0,0.97829,19,female,2020-07-28_15h16.21.943,torte-2b,2020.1.3,Win32,60,13247,0.968465,,,,,,,,,,,,,,,,,,,,,,,,,,,,,,,,,,,,,,,,,,,,,,,,,,,,,,,,,,,,,,,,,
,,,,,,,,,,,,a,Correct!,0,108,108,112,1,t5.png,t4.png,1,0.90025,19,female,2020-07-28_15h16.21.943,torte-2b,2020.1.3,Win32,60,13247,1.248405,,,,,,,,,,,,,,,,,,,,,,,,,,,,,,,,,,,,,,,,,,,,,,,,,,,,,,,,,,,,,,,,,
,,,,,,,,,,,,a,Incorrect,0,109,109,66,1,t5.png,t1.png,4,9.55E-11,19,female,2020-07-28_15h16.21.943,torte-2b,2020.1.3,Win32,60,13247,0.983765,,,,,,,,,,,,,,,,,,,,,,,,,,,,,,,,,,,,,,,,,,,,,,,,,,,,,,,,,,,,,,,,,
,,,,,,,,,,,,l,Correct!,0,110,110,75,1,t2.png,t3.png,1,0.90855,19,female,2020-07-28_15h16.21.943,torte-2b,2020.1.3,Win32,60,13247,1.3667,,,,,,,,,,,,,,,,,,,,,,,,,,,,,,,,,,,,,,,,,,,,,,,,,,,,,,,,,,,,,,,,,
,,,,,,,,,,,,a,Correct!,0,111,111,116,1,t4.png,t5.png,1,0.90025,19,female,2020-07-28_15h16.21.943,torte-2b,2020.1.3,Win32,60,13247,1.88074,,,,,,,,,,,,,,,,,,,,,,,,,,,,,,,,,,,,,,,,,,,,,,,,,,,,,,,,,,,,,,,,,
,,,,,,,,,,,,a,Correct!,0,112,112,61,1,t1.png,t1.png,0,0.97829,19,female,2020-07-28_15h16.21.943,torte-2b,2020.1.3,Win32,60,13247,0.68221,,,,,,,,,,,,,,,,,,,,,,,,,,,,,,,,,,,,,,,,,,,,,,,,,,,,,,,,,,,,,,,,,
,,,,,,,,,,,,l,Correct!,0,113,113,73,1,t3.png,t1.png,2,0.056466,19,female,2020-07-28_15h16.21.943,torte-2b,2020.1.3,Win32,60,13247,1.83053,,,,,,,,,,,,,,,,,,,,,,,,,,,,,,,,,,,,,,,,,,,,,,,,,,,,,,,,,,,,,,,,,
,,,,,,,,,,,,a,Correct!,0,114,114,114,1,t5.png,t4.png,1,0.90025,19,female,2020-07-28_15h16.21.943,torte-2b,2020.1.3,Win32,60,13247,1.23081,,,,,,,,,,,,,,,,,,,,,,,,,,,,,,,,,,,,,,,,,,,,,,,,,,,,,,,,,,,,,,,,,
,,,,,,,,,,,,l,Correct!,0,115,115,28,1,t1.png,t4.png,3,0.0000131,19,female,2020-07-28_15h16.21.943,torte-2b,2020.1.3,Win32,60,13247,1.270565,,,,,,,,,,,,,,,,,,,,,,,,,,,,,,,,,,,,,,,,,,,,,,,,,,,,,,,,,,,,,,,,,
,,,,,,,,,,,,a,Correct!,0,116,116,20,1,t5.png,t5.png,0,0.97829,19,female,2020-07-28_15h16.21.943,torte-2b,2020.1.3,Win32,60,13247,1.03193,,,,,,,,,,,,,,,,,,,,,,,,,,,,,,,,,,,,,,,,,,,,,,,,,,,,,,,,,,,,,,,,,
,,,,,,,,,,,,l,Correct!,0,117,117,35,1,t1.png,t4.png,3,0.0000131,19,female,2020-07-28_15h16.21.943,torte-2b,2020.1.3,Win32,60,13247,1.301875,,,,,,,,,,,,,,,,,,,,,,,,,,,,,,,,,,,,,,,,,,,,,,,,,,,,,,,,,,,,,,,,,
,,,,,,,,,,,,a,Correct!,0,118,118,22,1,t5.png,t5.png,0,0.97829,19,female,2020-07-28_15h16.21.943,torte-2b,2020.1.3,Win32,60,13247,0.66568,,,,,,,,,,,,,,,,,,,,,,,,,,,,,,,,,,,,,,,,,,,,,,,,,,,,,,,,,,,,,,,,,
,,,,,,,,,,,,a,Correct!,0,119,119,109,1,t5.png,t5.png,0,0.97829,19,female,2020-07-28_15h16.21.943,torte-2b,2020.1.3,Win32,60,13247,0.72281,,,,,,,,,,,,,,,,,,,,,,,,,,,,,,,,,,,,,,,,,,,,,,,,,,,,,,,,,,,,,,,,,
,,,,,,,,,,,,l,Correct!,,,,,,t2.png,t4.png,2,0.059078,19,female,2020-07-28_15h16.21.943,torte-2b,2020.1.3,Win32,60,13247,1.81693,space,3.19168,space,0.04377,0,0,0,18,1,,,,,,,,,,,,,,,,,,,,,,,,,,,,,,,,,,,,,,,,,,,,,,,,,,,,,,,,
,,,,,,,,,,,,l,Incorrect,,,,,,t3.png,t4.png,1,0.90855,19,female,2020-07-28_15h16.21.943,torte-2b,2020.1.3,Win32,60,13247,1.52578,,,,,0,1,1,9,1,,,,,,,,,,,,,,,,,,,,,,,,,,,,,,,,,,,,,,,,,,,,,,,,,,,,,,,,
,,,,,,,,,,,,a,Incorrect,,,,,,t3.png,t5.png,2,0.0565,19,female,2020-07-28_15h16.21.943,torte-2b,2020.1.3,Win32,60,13247,1.681715,,,,,0,2,2,71,1,,,,,,,,,,,,,,,,,,,,,,,,,,,,,,,,,,,,,,,,,,,,,,,,,,,,,,,,
,,,,,,,,,,,,l,Incorrect,,,,,,t4.png,t4.png,0,0.98115,19,female,2020-07-28_15h16.21.943,torte-2b,2020.1.3,Win32,60,13247,1.12426,,,,,0,3,3,52,1,,,,,,,,,,,,,,,,,,,,,,,,,,,,,,,,,,,,,,,,,,,,,,,,,,,,,,,,
,,,,,,,,,,,,a,Correct!,,,,,,t4.png,t4.png,0,0.98115,19,female,2020-07-28_15h16.21.943,torte-2b,2020.1.3,Win32,60,13247,1.157525,,,,,0,4,4,19,1,,,,,,,,,,,,,,,,,,,,,,,,,,,,,,,,,,,,,,,,,,,,,,,,,,,,,,,,
,,,,,,,,,,,,a,Correct!,,,,,,t2.png,t2.png,0,0.98115,19,female,2020-07-28_15h16.21.943,torte-2b,2020.1.3,Win32,60,13247,0.953105,,,,,0,5,5,112,1,,,,,,,,,,,,,,,,,,,,,,,,,,,,,,,,,,,,,,,,,,,,,,,,,,,,,,,,
,,,,,,,,,,,,l,Incorrect,,,,,,t4.png,t3.png,1,0.90855,19,female,2020-07-28_15h16.21.943,torte-2b,2020.1.3,Win32,60,13247,0.990535,,,,,0,6,6,56,1,,,,,,,,,,,,,,,,,,,,,,,,,,,,,,,,,,,,,,,,,,,,,,,,,,,,,,,,
,,,,,,,,,,,,l,Correct!,,,,,,t4.png,t3.png,1,0.90855,19,female,2020-07-28_15h16.21.943,torte-2b,2020.1.3,Win32,60,13247,1.57304,,,,,0,7,7,29,1,,,,,,,,,,,,,,,,,,,,,,,,,,,,,,,,,,,,,,,,,,,,,,,,,,,,,,,,
,,,,,,,,,,,,l,Incorrect,,,,,,t2.png,t3.png,1,0.90855,19,female,2020-07-28_15h16.21.943,torte-2b,2020.1.3,Win32,60,13247,1.722355,,,,,0,8,8,79,1,,,,,,,,,,,,,,,,,,,,,,,,,,,,,,,,,,,,,,,,,,,,,,,,,,,,,,,,
,,,,,,,,,,,,l,Incorrect,,,,,,t2.png,t3.png,1,0.90855,19,female,2020-07-28_15h16.21.943,torte-2b,2020.1.3,Win32,60,13247,1.192785,,,,,0,9,9,113,1,,,,,,,,,,,,,,,,,,,,,,,,,,,,,,,,,,,,,,,,,,,,,,,,,,,,,,,,
,,,,,,,,,,,,a,Incorrect,,,,,,t5.png,t3.png,2,0.056466,19,female,2020-07-28_15h16.21.943,torte-2b,2020.1.3,Win32,60,13247,0.850985,,,,,0,10,10,80,1,,,,,,,,,,,,,,,,,,,,,,,,,,,,,,,,,,,,,,,,,,,,,,,,,,,,,,,,
,,,,,,,,,,,,a,Correct!,,,,,,t1.png,t1.png,0,0.978,19,female,2020-07-28_15h16.21.943,torte-2b,2020.1.3,Win32,60,13247,0.79853,,,,,0,11,11,13,1,,,,,,,,,,,,,,,,,,,,,,,,,,,,,,,,,,,,,,,,,,,,,,,,,,,,,,,,
,,,,,,,,,,,,l,Correct!,,,,,,t4.png,t1.png,3,0.059078,19,female,2020-07-28_15h16.21.943,torte-2b,2020.1.3,Win32,60,13247,2.13127,,,,,0,12,12,75,1,,,,,,,,,,,,,,,,,,,,,,,,,,,,,,,,,,,,,,,,,,,,,,,,,,,,,,,,
,,,,,,,,,,,,a,Incorrect,,,,,,t3.png,t5.png,2,0.056466,19,female,2020-07-28_15h16.21.943,torte-2b,2020.1.3,Win32,60,13247,1.67116,,,,,0,13,13,78,1,,,,,,,,,,,,,,,,,,,,,,,,,,,,,,,,,,,,,,,,,,,,,,,,,,,,,,,,
,,,,,,,,,,,,a,Correct!,,,,,,t4.png,t3.png,1,0.909,19,female,2020-07-28_15h16.21.943,torte-2b,2020.1.3,Win32,60,13247,1.02392,,,,,0,14,14,119,1,,,,,,,,,,,,,,,,,,,,,,,,,,,,,,,,,,,,,,,,,,,,,,,,,,,,,,,,
,,,,,,,,,,,,a,Correct!,,,,,,t4.png,t3.png,1,0.90855,19,female,2020-07-28_15h16.21.943,torte-2b,2020.1.3,Win32,60,13247,0.87208,,,,,0,15,15,11,1,,,,,,,,,,,,,,,,,,,,,,,,,,,,,,,,,,,,,,,,,,,,,,,,,,,,,,,,
,,,,,,,,,,,,a,Incorrect,,,,,,t4.png,t5.png,1,0.90025,19,female,2020-07-28_15h16.21.943,torte-2b,2020.1.3,Win32,60,13247,1.818015,,,,,0,16,16,86,1,,,,,,,,,,,,,,,,,,,,,,,,,,,,,,,,,,,,,,,,,,,,,,,,,,,,,,,,
,,,,,,,,,,,,l,Correct!,,,,,,t1.png,t4.png,3,0.0000131,19,female,2020-07-28_15h16.21.943,torte-2b,2020.1.3,Win32,60,13247,1.22344,,,,,0,17,17,36,1,,,,,,,,,,,,,,,,,,,,,,,,,,,,,,,,,,,,,,,,,,,,,,,,,,,,,,,,
,,,,,,,,,,,,a,Correct!,,,,,,t1.png,t1.png,0,0.97829,19,female,2020-07-28_15h16.21.943,torte-2b,2020.1.3,Win32,60,13247,0.881515,,,,,0,18,18,110,1,,,,,,,,,,,,,,,,,,,,,,,,,,,,,,,,,,,,,,,,,,,,,,,,,,,,,,,,
,,,,,,,,,,,,a,Correct!,,,,,,t3.png,t2.png,1,0.90855,19,female,2020-07-28_15h16.21.943,torte-2b,2020.1.3,Win32,60,13247,1.313785,,,,,0,19,19,10,1,,,,,,,,,,,,,,,,,,,,,,,,,,,,,,,,,,,,,,,,,,,,,,,,,,,,,,,,
,,,,,,,,,,,,a,Incorrect,,,,,,t5.png,t2.png,3,0.0000131,19,female,2020-07-28_15h16.21.943,torte-2b,2020.1.3,Win32,60,13247,1.647545,,,,,0,20,20,83,1,,,,,,,,,,,,,,,,,,,,,,,,,,,,,,,,,,,,,,,,,,,,,,,,,,,,,,,,
,,,,,,,,,,,,l,Correct!,,,,,,t1.png,t4.png,3,0.0000131,19,female,2020-07-28_15h16.21.943,torte-2b,2020.1.3,Win32,60,13247,1.031595,,,,,0,21,21,106,1,,,,,,,,,,,,,,,,,,,,,,,,,,,,,,,,,,,,,,,,,,,,,,,,,,,,,,,,
,,,,,,,,,,,,a,Incorrect,,,,,,t2.png,t5.png,3,0.0000131,19,female,2020-07-28_15h16.21.943,torte-2b,2020.1.3,Win32,60,13247,1.20631,,,,,0,22,22,39,1,,,,,,,,,,,,,,,,,,,,,,,,,,,,,,,,,,,,,,,,,,,,,,,,,,,,,,,,
,,,,,,,,,,,,,Too slow :(,,,,,,t2.png,t4.png,2,0.059078,19,female,2020-07-28_15h16.21.943,torte-2b,2020.1.3,Win32,60,13247,,,,,,0,23,23,97,1,,,,,,,,,,,,,,,,,,,,,,,,,,,,,,,,,,,,,,,,,,,,,,,,,,,,,,,,
,,,,,,,,,,,,a,Incorrect,,,,,,t5.png,t2.png,3,0.0000131,19,female,2020-07-28_15h16.21.943,torte-2b,2020.1.3,Win32,60,13247,1.081345,,,,,0,24,24,66,1,,,,,,,,,,,,,,,,,,,,,,,,,,,,,,,,,,,,,,,,,,,,,,,,,,,,,,,,
,,,,,,,,,,,,l,Correct!,,,,,,t3.png,t1.png,2,0.0565,19,female,2020-07-28_15h16.21.943,torte-2b,2020.1.3,Win32,60,13247,1.354875,,,,,0,25,25,40,1,,,,,,,,,,,,,,,,,,,,,,,,,,,,,,,,,,,,,,,,,,,,,,,,,,,,,,,,
,,,,,,,,,,,,a,Incorrect,,,,,,t1.png,t5.png,4,9.55E-11,19,female,2020-07-28_15h16.21.943,torte-2b,2020.1.3,Win32,60,13247,0.875295,,,,,0,26,26,3,1,,,,,,,,,,,,,,,,,,,,,,,,,,,,,,,,,,,,,,,,,,,,,,,,,,,,,,,,
,,,,,,,,,,,,a,Correct!,,,,,,t5.png,t5.png,0,0.97829,19,female,2020-07-28_15h16.21.943,torte-2b,2020.1.3,Win32,60,13247,1.0818,,,,,0,27,27,77,1,,,,,,,,,,,,,,,,,,,,,,,,,,,,,,,,,,,,,,,,,,,,,,,,,,,,,,,,
,,,,,,,,,,,,a,Correct!,,,,,,t4.png,t4.png,0,0.98115,19,female,2020-07-28_15h16.21.943,torte-2b,2020.1.3,Win32,60,13247,0.732095,,,,,0,28,28,59,1,,,,,,,,,,,,,,,,,,,,,,,,,,,,,,,,,,,,,,,,,,,,,,,,,,,,,,,,
,,,,,,,,,,,,a,Incorrect,,,,,,t5.png,t1.png,4,9.55E-11,19,female,2020-07-28_15h16.21.943,torte-2b,2020.1.3,Win32,60,13247,0.733715,,,,,0,29,29,117,1,,,,,,,,,,,,,,,,,,,,,,,,,,,,,,,,,,,,,,,,,,,,,,,,,,,,,,,,
,,,,,,,,,,,,a,Correct!,,,,,,t3.png,t2.png,1,0.90855,19,female,2020-07-28_15h16.21.943,torte-2b,2020.1.3,Win32,60,13247,1.116465,,,,,0,30,30,0,1,,,,,,,,,,,,,,,,,,,,,,,,,,,,,,,,,,,,,,,,,,,,,,,,,,,,,,,,
,,,,,,,,,,,,a,Correct!,,,,,,t3.png,t4.png,1,0.90855,19,female,2020-07-28_15h16.21.943,torte-2b,2020.1.3,Win32,60,13247,1.149245,,,,,0,31,31,111,1,,,,,,,,,,,,,,,,,,,,,,,,,,,,,,,,,,,,,,,,,,,,,,,,,,,,,,,,
,,,,,,,,,,,,l,Incorrect,,,,,,t2.png,t3.png,1,0.90855,19,female,2020-07-28_15h16.21.943,torte-2b,2020.1.3,Win32,60,13247,1.69808,,,,,0,32,32,64,1,,,,,,,,,,,,,,,,,,,,,,,,,,,,,,,,,,,,,,,,,,,,,,,,,,,,,,,,
,,,,,,,,,,,,l,Incorrect,,,,,,t1.png,t2.png,1,0.9,19,female,2020-07-28_15h16.21.943,torte-2b,2020.1.3,Win32,60,13247,0.96819,,,,,0,33,33,61,1,,,,,,,,,,,,,,,,,,,,,,,,,,,,,,,,,,,,,,,,,,,,,,,,,,,,,,,,
,,,,,,,,,,,,a,Correct!,,,,,,t2.png,t2.png,0,0.98115,19,female,2020-07-28_15h16.21.943,torte-2b,2020.1.3,Win32,60,13247,0.84887,,,,,0,34,34,90,1,,,,,,,,,,,,,,,,,,,,,,,,,,,,,,,,,,,,,,,,,,,,,,,,,,,,,,,,
,,,,,,,,,,,,l,Correct!,,,,,,t5.png,t3.png,2,0.056466,19,female,2020-07-28_15h16.21.943,torte-2b,2020.1.3,Win32,60,13247,1.73157,,,,,0,35,35,26,1,,,,,,,,,,,,,,,,,,,,,,,,,,,,,,,,,,,,,,,,,,,,,,,,,,,,,,,,
,,,,,,,,,,,,l,Correct!,,,,,,t3.png,t1.png,2,0.056466,19,female,2020-07-28_15h16.21.943,torte-2b,2020.1.3,Win32,60,13247,1.83206,,,,,0,36,36,109,1,,,,,,,,,,,,,,,,,,,,,,,,,,,,,,,,,,,,,,,,,,,,,,,,,,,,,,,,
,,,,,,,,,,,,l,Correct!,,,,,,t2.png,t4.png,2,0.059078,19,female,2020-07-28_15h16.21.943,torte-2b,2020.1.3,Win32,60,13247,1.498175,,,,,0,37,37,84,1,,,,,,,,,,,,,,,,,,,,,,,,,,,,,,,,,,,,,,,,,,,,,,,,,,,,,,,,
,,,,,,,,,,,,a,Incorrect,,,,,,t5.png,t1.png,4,9.55E-11,19,female,2020-07-28_15h16.21.943,torte-2b,2020.1.3,Win32,60,13247,0.91395,,,,,0,38,38,15,1,,,,,,,,,,,,,,,,,,,,,,,,,,,,,,,,,,,,,,,,,,,,,,,,,,,,,,,,
,,,,,,,,,,,,l,Incorrect,,,,,,t1.png,t2.png,1,0.90025,19,female,2020-07-28_15h16.21.943,torte-2b,2020.1.3,Win32,60,13247,1.004915,,,,,0,39,39,96,1,,,,,,,,,,,,,,,,,,,,,,,,,,,,,,,,,,,,,,,,,,,,,,,,,,,,,,,,
,,,,,,,,,,,,l,Incorrect,,,,,,t4.png,t5.png,1,0.90025,19,female,2020-07-28_15h16.21.943,torte-2b,2020.1.3,Win32,60,13247,1.421855,,,,,0,40,40,63,1,,,,,,,,,,,,,,,,,,,,,,,,,,,,,,,,,,,,,,,,,,,,,,,,,,,,,,,,
,,,,,,,,,,,,l,Correct!,,,,,,t1.png,t5.png,4,9.55E-11,19,female,2020-07-28_15h16.21.943,torte-2b,2020.1.3,Win32,60,13247,1.32245,,,,,0,41,41,20,1,,,,,,,,,,,,,,,,,,,,,,,,,,,,,,,,,,,,,,,,,,,,,,,,,,,,,,,,
,,,,,,,,,,,,l,Correct!,,,,,,t1.png,t3.png,2,0.056466,19,female,2020-07-28_15h16.21.943,torte-2b,2020.1.3,Win32,60,13247,1.20044,,,,,0,42,42,32,1,,,,,,,,,,,,,,,,,,,,,,,,,,,,,,,,,,,,,,,,,,,,,,,,,,,,,,,,
,,,,,,,,,,,,l,Incorrect,,,,,,t5.png,t3.png,2,0.0565,19,female,2020-07-28_15h16.21.943,torte-2b,2020.1.3,Win32,60,13247,1.464705,,,,,0,43,43,50,1,,,,,,,,,,,,,,,,,,,,,,,,,,,,,,,,,,,,,,,,,,,,,,,,,,,,,,,,
,,,,,,,,,,,,l,Correct!,,,,,,t1.png,t3.png,2,0.056466,19,female,2020-07-28_15h16.21.943,torte-2b,2020.1.3,Win32,60,13247,1.33509,,,,,0,44,44,24,1,,,,,,,,,,,,,,,,,,,,,,,,,,,,,,,,,,,,,,,,,,,,,,,,,,,,,,,,
,,,,,,,,,,,,a,Correct!,,,,,,t1.png,t1.png,0,0.978,19,female,2020-07-28_15h16.21.943,torte-2b,2020.1.3,Win32,60,13247,0.732225,,,,,0,45,45,22,1,,,,,,,,,,,,,,,,,,,,,,,,,,,,,,,,,,,,,,,,,,,,,,,,,,,,,,,,
,,,,,,,,,,,,l,Correct!,,,,,,t1.png,t3.png,2,0.0565,19,female,2020-07-28_15h16.21.943,torte-2b,2020.1.3,Win32,60,13247,0.81487,,,,,0,46,46,12,1,,,,,,,,,,,,,,,,,,,,,,,,,,,,,,,,,,,,,,,,,,,,,,,,,,,,,,,,
,,,,,,,,,,,,l,Incorrect,,,,,,t1.png,t2.png,1,0.9,19,female,2020-07-28_15h16.21.943,torte-2b,2020.1.3,Win32,60,13247,0.92059,,,,,0,47,47,17,1,,,,,,,,,,,,,,,,,,,,,,,,,,,,,,,,,,,,,,,,,,,,,,,,,,,,,,,,
,,,,,,,,,,,,a,Correct!,,,,,,t5.png,t4.png,1,0.9,19,female,2020-07-28_15h16.21.943,torte-2b,2020.1.3,Win32,60,13247,1.61624,,,,,0,48,48,92,1,,,,,,,,,,,,,,,,,,,,,,,,,,,,,,,,,,,,,,,,,,,,,,,,,,,,,,,,
,,,,,,,,,,,,a,Correct!,,,,,,t3.png,t4.png,1,0.90855,19,female,2020-07-28_15h16.21.943,torte-2b,2020.1.3,Win32,60,13247,1.52005,,,,,0,49,49,5,1,,,,,,,,,,,,,,,,,,,,,,,,,,,,,,,,,,,,,,,,,,,,,,,,,,,,,,,,
,,,,,,,,,,,,a,Incorrect,,,,,,t5.png,t4.png,1,0.90025,19,female,2020-07-28_15h16.21.943,torte-2b,2020.1.3,Win32,60,13247,0.82052,,,,,0,50,50,14,1,,,,,,,,,,,,,,,,,,,,,,,,,,,,,,,,,,,,,,,,,,,,,,,,,,,,,,,,
,,,,,,,,,,,,l,Incorrect,,,,,,t1.png,t1.png,0,0.97829,19,female,2020-07-28_15h16.21.943,torte-2b,2020.1.3,Win32,60,13247,0.749685,,,,,0,51,51,114,1,,,,,,,,,,,,,,,,,,,,,,,,,,,,,,,,,,,,,,,,,,,,,,,,,,,,,,,,
,,,,,,,,,,,,l,Correct!,,,,,,t1.png,t2.png,1,0.90025,19,female,2020-07-28_15h16.21.943,torte-2b,2020.1.3,Win32,60,13247,0.88197,,,,,0,52,52,6,1,,,,,,,,,,,,,,,,,,,,,,,,,,,,,,,,,,,,,,,,,,,,,,,,,,,,,,,,
,,,,,,,,,,,,l,Incorrect,,,,,,t2.png,t1.png,1,0.90025,19,female,2020-07-28_15h16.21.943,torte-2b,2020.1.3,Win32,60,13247,0.80623,,,,,0,53,53,105,1,,,,,,,,,,,,,,,,,,,,,,,,,,,,,,,,,,,,,,,,,,,,,,,,,,,,,,,,
,,,,,,,,,,,,a,Incorrect,,,,,,t4.png,t1.png,3,0.059078,19,female,2020-07-28_15h16.21.943,torte-2b,2020.1.3,Win32,60,13247,0.79055,,,,,0,54,54,73,1,,,,,,,,,,,,,,,,,,,,,,,,,,,,,,,,,,,,,,,,,,,,,,,,,,,,,,,,
,,,,,,,,,,,,a,Incorrect,,,,,,t5.png,t2.png,3,0.0000131,19,female,2020-07-28_15h16.21.943,torte-2b,2020.1.3,Win32,60,13247,1.21466,,,,,0,55,55,82,1,,,,,,,,,,,,,,,,,,,,,,,,,,,,,,,,,,,,,,,,,,,,,,,,,,,,,,,,
,,,,,,,,,,,,a,Correct!,,,,,,t1.png,t3.png,2,0.0565,19,female,2020-07-28_15h16.21.943,torte-2b,2020.1.3,Win32,60,13247,0.981825,,,,,0,56,56,42,1,,,,,,,,,,,,,,,,,,,,,,,,,,,,,,,,,,,,,,,,,,,,,,,,,,,,,,,,
,,,,,,,,,,,,l,Correct!,,,,,,t1.png,t4.png,3,0.0000131,19,female,2020-07-28_15h16.21.943,torte-2b,2020.1.3,Win32,60,13247,1.06838,,,,,0,57,57,74,1,,,,,,,,,,,,,,,,,,,,,,,,,,,,,,,,,,,,,,,,,,,,,,,,,,,,,,,,
,,,,,,,,,,,,a,Correct!,,,,,,t4.png,t5.png,1,0.90025,19,female,2020-07-28_15h16.21.943,torte-2b,2020.1.3,Win32,60,13247,1.55347,,,,,0,58,58,33,1,,,,,,,,,,,,,,,,,,,,,,,,,,,,,,,,,,,,,,,,,,,,,,,,,,,,,,,,
,,,,,,,,,,,,l,Correct!,,,,,,t1.png,t4.png,3,0.0000131,19,female,2020-07-28_15h16.21.943,torte-2b,2020.1.3,Win32,60,13247,1.532055,,,,,0,59,59,23,1,,,,,,,,,,,,,,,,,,,,,,,,,,,,,,,,,,,,,,,,,,,,,,,,,,,,,,,,
,,,,,,,,,,,,a,Correct!,,,,,,t5.png,t5.png,0,0.97829,19,female,2020-07-28_15h16.21.943,torte-2b,2020.1.3,Win32,60,13247,0.997675,,,,,0,60,60,35,1,,,,,,,,,,,,,,,,,,,,,,,,,,,,,,,,,,,,,,,,,,,,,,,,,,,,,,,,
,,,,,,,,,,,,a,Correct!,,,,,,t3.png,t4.png,1,0.90855,19,female,2020-07-28_15h16.21.943,torte-2b,2020.1.3,Win32,60,13247,1.931105,,,,,0,61,61,103,1,,,,,,,,,,,,,,,,,,,,,,,,,,,,,,,,,,,,,,,,,,,,,,,,,,,,,,,,
,,,,,,,,,,,,a,Incorrect,,,,,,t2.png,t5.png,3,0.0000131,19,female,2020-07-28_15h16.21.943,torte-2b,2020.1.3,Win32,60,13247,0.96772,,,,,0,62,62,85,1,,,,,,,,,,,,,,,,,,,,,,,,,,,,,,,,,,,,,,,,,,,,,,,,,,,,,,,,
,,,,,,,,,,,,l,Incorrect,,,,,,t2.png,t1.png,1,0.9,19,female,2020-07-28_15h16.21.943,torte-2b,2020.1.3,Win32,60,13247,1.173165,,,,,0,63,63,93,1,,,,,,,,,,,,,,,,,,,,,,,,,,,,,,,,,,,,,,,,,,,,,,,,,,,,,,,,
,,,,,,,,,,,,a,Correct!,,,,,,t5.png,t5.png,0,0.978,19,female,2020-07-28_15h16.21.943,torte-2b,2020.1.3,Win32,60,13247,0.68813,,,,,0,64,64,51,1,,,,,,,,,,,,,,,,,,,,,,,,,,,,,,,,,,,,,,,,,,,,,,,,,,,,,,,,
,,,,,,,,,,,,l,Incorrect,,,,,,t3.png,t4.png,1,0.90855,19,female,2020-07-28_15h16.21.943,torte-2b,2020.1.3,Win32,60,13247,1.08213,,,,,0,65,65,58,1,,,,,,,,,,,,,,,,,,,,,,,,,,,,,,,,,,,,,,,,,,,,,,,,,,,,,,,,
,,,,,,,,,,,,a,Incorrect,,,,,,t1.png,t5.png,4,9.55E-11,19,female,2020-07-28_15h16.21.943,torte-2b,2020.1.3,Win32,60,13247,1.018375,,,,,0,66,66,1,1,,,,,,,,,,,,,,,,,,,,,,,,,,,,,,,,,,,,,,,,,,,,,,,,,,,,,,,,
,,,,,,,,,,,,a,Correct!,,,,,,t5.png,t5.png,0,0.978,19,female,2020-07-28_15h16.21.943,torte-2b,2020.1.3,Win32,60,13247,0.73151,,,,,0,67,67,116,1,,,,,,,,,,,,,,,,,,,,,,,,,,,,,,,,,,,,,,,,,,,,,,,,,,,,,,,,
,,,,,,,,,,,,a,Correct!,,,,,,t5.png,t5.png,0,0.97829,19,female,2020-07-28_15h16.21.943,torte-2b,2020.1.3,Win32,60,13247,0.470905,,,,,0,68,68,2,1,,,,,,,,,,,,,,,,,,,,,,,,,,,,,,,,,,,,,,,,,,,,,,,,,,,,,,,,
,,,,,,,,,,,,a,Incorrect,,,,,,t5.png,t2.png,3,0.0000131,19,female,2020-07-28_15h16.21.943,torte-2b,2020.1.3,Win32,60,13247,1.05718,,,,,0,69,69,43,1,,,,,,,,,,,,,,,,,,,,,,,,,,,,,,,,,,,,,,,,,,,,,,,,,,,,,,,,
,,,,,,,,,,,,a,Correct!,,,,,,t5.png,t4.png,1,0.90025,19,female,2020-07-28_15h16.21.943,torte-2b,2020.1.3,Win32,60,13247,0.49105,,,,,0,70,70,25,1,,,,,,,,,,,,,,,,,,,,,,,,,,,,,,,,,,,,,,,,,,,,,,,,,,,,,,,,
,,,,,,,,,,,,a,Correct!,,,,,,t4.png,t3.png,1,0.909,19,female,2020-07-28_15h16.21.943,torte-2b,2020.1.3,Win32,60,13247,0.654025,,,,,0,71,71,107,1,,,,,,,,,,,,,,,,,,,,,,,,,,,,,,,,,,,,,,,,,,,,,,,,,,,,,,,,
,,,,,,,,,,,,a,Correct!,,,,,,t4.png,t5.png,1,0.90025,19,female,2020-07-28_15h16.21.943,torte-2b,2020.1.3,Win32,60,13247,0.598285,,,,,0,72,72,21,1,,,,,,,,,,,,,,,,,,,,,,,,,,,,,,,,,,,,,,,,,,,,,,,,,,,,,,,,
,,,,,,,,,,,,a,Incorrect,,,,,,t2.png,t5.png,3,0.0000131,19,female,2020-07-28_15h16.21.943,torte-2b,2020.1.3,Win32,60,13247,0.95432,,,,,0,73,73,115,1,,,,,,,,,,,,,,,,,,,,,,,,,,,,,,,,,,,,,,,,,,,,,,,,,,,,,,,,
,,,,,,,,,,,,a,Correct!,,,,,,t3.png,t2.png,1,0.90855,19,female,2020-07-28_15h16.21.943,torte-2b,2020.1.3,Win32,60,13247,0.69902,,,,,0,74,74,94,1,,,,,,,,,,,,,,,,,,,,,,,,,,,,,,,,,,,,,,,,,,,,,,,,,,,,,,,,
,,,,,,,,,,,,a,Incorrect,,,,,,t4.png,t1.png,3,0.059078,19,female,2020-07-28_15h16.21.943,torte-2b,2020.1.3,Win32,60,13247,1.264195,,,,,0,75,75,87,1,,,,,,,,,,,,,,,,,,,,,,,,,,,,,,,,,,,,,,,,,,,,,,,,,,,,,,,,
,,,,,,,,,,,,l,Incorrect,,,,,,t2.png,t3.png,1,0.909,19,female,2020-07-28_15h16.21.943,torte-2b,2020.1.3,Win32,60,13247,1.198395,,,,,0,76,76,8,1,,,,,,,,,,,,,,,,,,,,,,,,,,,,,,,,,,,,,,,,,,,,,,,,,,,,,,,,
,,,,,,,,,,,,a,Incorrect,,,,,,t3.png,t1.png,2,0.0565,19,female,2020-07-28_15h16.21.943,torte-2b,2020.1.3,Win32,60,13247,0.849435,,,,,0,77,77,104,1,,,,,,,,,,,,,,,,,,,,,,,,,,,,,,,,,,,,,,,,,,,,,,,,,,,,,,,,
,,,,,,,,,,,,l,Incorrect,,,,,,t3.png,t2.png,1,0.90855,19,female,2020-07-28_15h16.21.943,torte-2b,2020.1.3,Win32,60,13247,0.970765,,,,,0,78,78,99,1,,,,,,,,,,,,,,,,,,,,,,,,,,,,,,,,,,,,,,,,,,,,,,,,,,,,,,,,
,,,,,,,,,,,,l,Incorrect,,,,,,t2.png,t1.png,1,0.90025,19,female,2020-07-28_15h16.21.943,torte-2b,2020.1.3,Win32,60,13247,0.767855,,,,,0,79,79,44,1,,,,,,,,,,,,,,,,,,,,,,,,,,,,,,,,,,,,,,,,,,,,,,,,,,,,,,,,
,,,,,,,,,,,,a,Correct!,,,,,,t4.png,t4.png,0,0.98115,19,female,2020-07-28_15h16.21.943,torte-2b,2020.1.3,Win32,60,13247,0.768595,,,,,0,80,80,88,1,,,,,,,,,,,,,,,,,,,,,,,,,,,,,,,,,,,,,,,,,,,,,,,,,,,,,,,,
,,,,,,,,,,,,l,Correct!,,,,,,t4.png,t1.png,3,0.0000131,19,female,2020-07-28_15h16.21.943,torte-2b,2020.1.3,Win32,60,13247,0.771855,,,,,0,81,81,102,1,,,,,,,,,,,,,,,,,,,,,,,,,,,,,,,,,,,,,,,,,,,,,,,,,,,,,,,,
,,,,,,,,,,,,a,Incorrect,,,,,,t5.png,t1.png,4,9.55E-11,19,female,2020-07-28_15h16.21.943,torte-2b,2020.1.3,Win32,60,13247,0.90674,,,,,0,82,82,101,1,,,,,,,,,,,,,,,,,,,,,,,,,,,,,,,,,,,,,,,,,,,,,,,,,,,,,,,,
,,,,,,,,,,,,l,Correct!,,,,,,t2.png,t5.png,3,0.0000131,19,female,2020-07-28_15h16.21.943,torte-2b,2020.1.3,Win32,60,13247,1.171655,,,,,0,83,83,46,1,,,,,,,,,,,,,,,,,,,,,,,,,,,,,,,,,,,,,,,,,,,,,,,,,,,,,,,,
,,,,,,,,,,,,a,Incorrect,,,,,,t5.png,t1.png,4,9.55E-11,19,female,2020-07-28_15h16.21.943,torte-2b,2020.1.3,Win32,60,13247,0.79035,,,,,0,84,84,89,1,,,,,,,,,,,,,,,,,,,,,,,,,,,,,,,,,,,,,,,,,,,,,,,,,,,,,,,,
,,,,,,,,,,,,a,Incorrect,,,,,,t1.png,t5.png,4,9.55E-11,19,female,2020-07-28_15h16.21.943,torte-2b,2020.1.3,Win32,60,13247,1.001795,,,,,0,85,85,30,1,,,,,,,,,,,,,,,,,,,,,,,,,,,,,,,,,,,,,,,,,,,,,,,,,,,,,,,,
,,,,,,,,,,,,a,Incorrect,,,,,,t3.png,t5.png,2,0.056466,19,female,2020-07-28_15h16.21.943,torte-2b,2020.1.3,Win32,60,13247,1.816025,,,,,0,86,86,60,1,,,,,,,,,,,,,,,,,,,,,,,,,,,,,,,,,,,,,,,,,,,,,,,,,,,,,,,,
,,,,,,,,,,,,a,Incorrect,,,,,,t5.png,t4.png,1,0.90025,19,female,2020-07-28_15h16.21.943,torte-2b,2020.1.3,Win32,60,13247,1.49951,,,,,0,87,87,38,1,,,,,,,,,,,,,,,,,,,,,,,,,,,,,,,,,,,,,,,,,,,,,,,,,,,,,,,,
,,,,,,,,,,,,a,Incorrect,,,,,,t5.png,t2.png,3,0.0000131,19,female,2020-07-28_15h16.21.943,torte-2b,2020.1.3,Win32,60,13247,0.786965,,,,,0,88,88,48,1,,,,,,,,,,,,,,,,,,,,,,,,,,,,,,,,,,,,,,,,,,,,,,,,,,,,,,,,
,,,,,,,,,,,,l,Incorrect,,,,,,t2.png,t4.png,2,0.059078,19,female,2020-07-28_15h16.21.943,torte-2b,2020.1.3,Win32,60,13247,2.22406,,,,,0,89,89,53,1,,,,,,,,,,,,,,,,,,,,,,,,,,,,,,,,,,,,,,,,,,,,,,,,,,,,,,,,
,,,,,,,,,,,,a,Correct!,,,,,,t2.png,t2.png,0,0.98115,19,female,2020-07-28_15h16.21.943,torte-2b,2020.1.3,Win32,60,13247,1.264595,,,,,0,90,90,69,1,,,,,,,,,,,,,,,,,,,,,,,,,,,,,,,,,,,,,,,,,,,,,,,,,,,,,,,,
,,,,,,,,,,,,l,Correct!,,,,,,t4.png,t1.png,3,0.0000131,19,female,2020-07-28_15h16.21.943,torte-2b,2020.1.3,Win32,60,13247,0.977605,,,,,0,91,91,49,1,,,,,,,,,,,,,,,,,,,,,,,,,,,,,,,,,,,,,,,,,,,,,,,,,,,,,,,,
,,,,,,,,,,,,l,Correct!,,,,,,t1.png,t5.png,4,9.55E-11,19,female,2020-07-28_15h16.21.943,torte-2b,2020.1.3,Win32,60,13247,1.15004,,,,,0,92,92,118,1,,,,,,,,,,,,,,,,,,,,,,,,,,,,,,,,,,,,,,,,,,,,,,,,,,,,,,,,
,,,,,,,,,,,,l,Incorrect,,,,,,t4.png,t4.png,0,0.98115,19,female,2020-07-28_15h16.21.943,torte-2b,2020.1.3,Win32,60,13247,1.331435,,,,,0,93,93,68,1,,,,,,,,,,,,,,,,,,,,,,,,,,,,,,,,,,,,,,,,,,,,,,,,,,,,,,,,
,,,,,,,,,,,,a,Correct!,,,,,,t5.png,t4.png,1,0.9,19,female,2020-07-28_15h16.21.943,torte-2b,2020.1.3,Win32,60,13247,0.623375,,,,,0,94,94,55,1,,,,,,,,,,,,,,,,,,,,,,,,,,,,,,,,,,,,,,,,,,,,,,,,,,,,,,,,
,,,,,,,,,,,,l,Correct!,,,,,,t4.png,t1.png,3,0.059078,19,female,2020-07-28_15h16.21.943,torte-2b,2020.1.3,Win32,60,13247,1.081475,,,,,0,95,95,57,1,,,,,,,,,,,,,,,,,,,,,,,,,,,,,,,,,,,,,,,,,,,,,,,,,,,,,,,,
,,,,,,,,,,,,a,Correct!,,,,,,t1.png,t1.png,0,0.97829,19,female,2020-07-28_15h16.21.943,torte-2b,2020.1.3,Win32,60,13247,0.966145,,,,,0,96,96,4,1,,,,,,,,,,,,,,,,,,,,,,,,,,,,,,,,,,,,,,,,,,,,,,,,,,,,,,,,
,,,,,,,,,,,,a,Incorrect,,,,,,t5.png,t1.png,4,9.55E-11,19,female,2020-07-28_15h16.21.943,torte-2b,2020.1.3,Win32,60,13247,0.73491,,,,,0,97,97,31,1,,,,,,,,,,,,,,,,,,,,,,,,,,,,,,,,,,,,,,,,,,,,,,,,,,,,,,,,
,,,,,,,,,,,,l,Correct!,,,,,,t1.png,t4.png,3,0.0000131,19,female,2020-07-28_15h16.21.943,torte-2b,2020.1.3,Win32,60,13247,1.79696,,,,,0,98,98,16,1,,,,,,,,,,,,,,,,,,,,,,,,,,,,,,,,,,,,,,,,,,,,,,,,,,,,,,,,
,,,,,,,,,,,,a,Incorrect,,,,,,t4.png,t1.png,3,0.0000131,19,female,2020-07-28_15h16.21.943,torte-2b,2020.1.3,Win32,60,13247,1.131875,,,,,0,99,99,91,1,,,,,,,,,,,,,,,,,,,,,,,,,,,,,,,,,,,,,,,,,,,,,,,,,,,,,,,,
,,,,,,,,,,,,l,Incorrect,,,,,,t1.png,t2.png,1,0.9,19,female,2020-07-28_15h16.21.943,torte-2b,2020.1.3,Win32,60,13247,1.798615,,,,,0,100,100,41,1,,,,,,,,,,,,,,,,,,,,,,,,,,,,,,,,,,,,,,,,,,,,,,,,,,,,,,,,
,,,,,,,,,,,,l,Correct!,,,,,,t4.png,t1.png,3,0.0000131,19,female,2020-07-28_15h16.21.943,torte-2b,2020.1.3,Win32,60,13247,1.082035,,,,,0,101,101,28,1,,,,,,,,,,,,,,,,,,,,,,,,,,,,,,,,,,,,,,,,,,,,,,,,,,,,,,,,
,,,,,,,,,,,,l,Correct!,,,,,,t1.png,t3.png,2,0.0565,19,female,2020-07-28_15h16.21.943,torte-2b,2020.1.3,Win32,60,13247,0.768625,,,,,0,102,102,95,1,,,,,,,,,,,,,,,,,,,,,,,,,,,,,,,,,,,,,,,,,,,,,,,,,,,,,,,,
,,,,,,,,,,,,l,Correct!,,,,,,t4.png,t1.png,3,0.059078,19,female,2020-07-28_15h16.21.943,torte-2b,2020.1.3,Win32,60,13247,1.08267,,,,,0,103,103,62,1,,,,,,,,,,,,,,,,,,,,,,,,,,,,,,,,,,,,,,,,,,,,,,,,,,,,,,,,
,,,,,,,,,,,,l,Correct!,,,,,,t2.png,t3.png,1,0.90855,19,female,2020-07-28_15h16.21.943,torte-2b,2020.1.3,Win32,60,13247,1.36821,,,,,0,104,104,70,1,,,,,,,,,,,,,,,,,,,,,,,,,,,,,,,,,,,,,,,,,,,,,,,,,,,,,,,,
,,,,,,,,,,,,l,Correct!,,,,,,t4.png,t1.png,3,0.0000131,19,female,2020-07-28_15h16.21.943,torte-2b,2020.1.3,Win32,60,13247,1.116185,,,,,0,105,105,76,1,,,,,,,,,,,,,,,,,,,,,,,,,,,,,,,,,,,,,,,,,,,,,,,,,,,,,,,,
,,,,,,,,,,,,l,Correct!,,,,,,t3.png,t5.png,2,0.056466,19,female,2020-07-28_15h16.21.943,torte-2b,2020.1.3,Win32,60,13247,1.398575,,,,,0,106,106,47,1,,,,,,,,,,,,,,,,,,,,,,,,,,,,,,,,,,,,,,,,,,,,,,,,,,,,,,,,
,,,,,,,,,,,,a,Incorrect,,,,,,t5.png,t3.png,2,0.056466,19,female,2020-07-28_15h16.21.943,torte-2b,2020.1.3,Win32,60,13247,1.090875,,,,,0,107,107,27,1,,,,,,,,,,,,,,,,,,,,,,,,,,,,,,,,,,,,,,,,,,,,,,,,,,,,,,,,
,,,,,,,,,,,,a,Correct!,,,,,,t3.png,t2.png,1,0.90855,19,female,2020-07-28_15h16.21.943,torte-2b,2020.1.3,Win32,60,13247,1.028,,,,,0,108,108,108,1,,,,,,,,,,,,,,,,,,,,,,,,,,,,,,,,,,,,,,,,,,,,,,,,,,,,,,,,
,,,,,,,,,,,,l,Incorrect,,,,,,t2.png,t1.png,1,0.90025,19,female,2020-07-28_15h16.21.943,torte-2b,2020.1.3,Win32,60,13247,0.88198,,,,,0,109,109,65,1,,,,,,,,,,,,,,,,,,,,,,,,,,,,,,,,,,,,,,,,,,,,,,,,,,,,,,,,
,,,,,,,,,,,,a,Correct!,,,,,,t2.png,t2.png,0,0.981,19,female,2020-07-28_15h16.21.943,torte-2b,2020.1.3,Win32,60,13247,0.990975,,,,,0,110,110,98,1,,,,,,,,,,,,,,,,,,,,,,,,,,,,,,,,,,,,,,,,,,,,,,,,,,,,,,,,
,,,,,,,,,,,,l,Incorrect,,,,,,t2.png,t1.png,1,0.9,19,female,2020-07-28_15h16.21.943,torte-2b,2020.1.3,Win32,60,13247,0.965335,,,,,0,111,111,100,1,,,,,,,,,,,,,,,,,,,,,,,,,,,,,,,,,,,,,,,,,,,,,,,,,,,,,,,,
,,,,,,,,,,,,l,Correct!,,,,,,t3.png,t5.png,2,0.056466,19,female,2020-07-28_15h16.21.943,torte-2b,2020.1.3,Win32,60,13247,0.881425,,,,,0,112,112,45,1,,,,,,,,,,,,,,,,,,,,,,,,,,,,,,,,,,,,,,,,,,,,,,,,,,,,,,,,
,,,,,,,,,,,,a,Incorrect,,,,,,t5.png,t3.png,2,0.056466,19,female,2020-07-28_15h16.21.943,torte-2b,2020.1.3,Win32,60,13247,0.83697,,,,,0,113,113,37,1,,,,,,,,,,,,,,,,,,,,,,,,,,,,,,,,,,,,,,,,,,,,,,,,,,,,,,,,
,,,,,,,,,,,,a,Incorrect,,,,,,t2.png,t5.png,3,0.0000131,19,female,2020-07-28_15h16.21.943,torte-2b,2020.1.3,Win32,60,13247,1.491245,,,,,0,114,114,54,1,,,,,,,,,,,,,,,,,,,,,,,,,,,,,,,,,,,,,,,,,,,,,,,,,,,,,,,,
,,,,,,,,,,,,l,Correct!,,,,,,t2.png,t4.png,2,0.059078,19,female,2020-07-28_15h16.21.943,torte-2b,2020.1.3,Win32,60,13247,1.76488,,,,,0,115,115,67,1,,,,,,,,,,,,,,,,,,,,,,,,,,,,,,,,,,,,,,,,,,,,,,,,,,,,,,,,
,,,,,,,,,,,,a,Incorrect,,,,,,t3.png,t1.png,2,0.056466,19,female,2020-07-28_15h16.21.943,torte-2b,2020.1.3,Win32,60,13247,1.85533,,,,,0,116,116,72,1,,,,,,,,,,,,,,,,,,,,,,,,,,,,,,,,,,,,,,,,,,,,,,,,,,,,,,,,
,,,,,,,,,,,,a,Correct!,,,,,,t2.png,t2.png,0,0.98115,19,female,2020-07-28_15h16.21.943,torte-2b,2020.1.3,Win32,60,13247,0.8673,,,,,0,117,117,7,1,,,,,,,,,,,,,,,,,,,,,,,,,,,,,,,,,,,,,,,,,,,,,,,,,,,,,,,,
,,,,,,,,,,,,a,Correct!,,,,,,t4.png,t5.png,1,0.9,19,female,2020-07-28_15h16.21.943,torte-2b,2020.1.3,Win32,60,13247,1.75382,,,,,0,118,118,81,1,,,,,,,,,,,,,,,,,,,,,,,,,,,,,,,,,,,,,,,,,,,,,,,,,,,,,,,,
,,,,,,,,,,,,a,Incorrect,,,,,,t3.png,t1.png,2,0.056466,19,female,2020-07-28_15h16.21.943,torte-2b,2020.1.3,Win32,60,13247,1.46817,,,,,0,119,119,34,1,,,,,,,,,,,,,,,,,,,,,,,,,,,,,,,,,,,,,,,,,,,,,,,,,,,,,,,,
,,,,,,,,,,,,,,,,,,,,,,,19,female,2020-07-28_15h16.21.943,torte-2b,2020.1.3,Win32,60,13247,,space,1.61771,,,,,,,,f,1.27291,,0,0,0,0,1,6,,,,,,,,,,,,,,,,,,,,,,,,,,,,,,,,,,,,,,,,,,,,,,,
,,,,,,,,,,,,,,,,,,,,,,,19,female,2020-07-28_15h16.21.943,torte-2b,2020.1.3,Win32,60,13247,,,,,,,,,,,,,,0,1,1,1,1,7,,,,,,,,,,,,,,,,,,,,,,,,,,,,,,,,,,,,,,,,,,,,,,,
,,,,,,,,,,,,,,,,,,,,,,,19,female,2020-07-28_15h16.21.943,torte-2b,2020.1.3,Win32,60,13247,,,,,,,,,,,,,space,0,2,2,2,1,6,0.406375,,,,,,,,,,,,,,,,,,,,,,,,,,,,,,,,,,,,,,,,,,,,,,
,,,,,,,,,,,,,,,,,,,,,,,19,female,2020-07-28_15h16.21.943,torte-2b,2020.1.3,Win32,60,13247,,,,,,,,,,,,,,0,3,3,3,1,7,,,,,,,,,,,,,,,,,,,,,,,,,,,,,,,,,,,,,,,,,,,,,,,
,,,,,,,,,,,,,,,,,,,,,,,19,female,2020-07-28_15h16.21.943,torte-2b,2020.1.3,Win32,60,13247,,,,,,,,,,,,,,0,4,4,4,1,5,,,,,,,,,,,,,,,,,,,,,,,,,,,,,,,,,,,,,,,,,,,,,,,
,,,,,,,,,,,,,,,,,,,,,,,19,female,2020-07-28_15h16.21.943,torte-2b,2020.1.3,Win32,60,13247,,,,,,,,,,,,,space,0,5,5,5,1,7,0.51375,,,,,,,,,,,,,,,,,,,,,,,,,,,,,,,,,,,,,,,,,,,,,,
,,,,,,,,,,,,,,,,,,,,,,,19,female,2020-07-28_15h16.21.943,torte-2b,2020.1.3,Win32,60,13247,,,,,,,,,,,,,,0,6,6,6,1,2,,,,,,,,,,,,,,,,,,,,,,,,,,,,,,,,,,,,,,,,,,,,,,,
,,,,,,,,,,,,,,,,,,,,,,,19,female,2020-07-28_15h16.21.943,torte-2b,2020.1.3,Win32,60,13247,,,,,,,,,,,,,,0,7,7,7,1,4,,,,,,,,,,,,,,,,,,,,,,,,,,,,,,,,,,,,,,,,,,,,,,,
,,,,,,,,,,,,,,,,,,,,,,,19,female,2020-07-28_15h16.21.943,torte-2b,2020.1.3,Win32,60,13247,,,,,,,,,,,,,space,0,8,8,8,1,7,0.53103,,,,,,,,,,,,,,,,,,,,,,,,,,,,,,,,,,,,,,,,,,,,,,
,,,,,,,,,,,,,,,,,,,,,,,19,female,2020-07-28_15h16.21.943,torte-2b,2020.1.3,Win32,60,13247,,,,,,,,,,,,,,0,9,9,9,1,4,,,,,,,,,,,,,,,,,,,,,,,,,,,,,,,,,,,,,,,,,,,,,,,
,,,,,,,,,,,,,,,,,,,,,,,19,female,2020-07-28_15h16.21.943,torte-2b,2020.1.3,Win32,60,13247,,,,,,,,,,,,,space,0,10,10,10,1,7,0.46989,,,,,,,,,,,,,,,,,,,,,,,,,,,,,,,,,,,,,,,,,,,,,,
,,,,,,,,,,,,,,,,,,,,,,,19,female,2020-07-28_15h16.21.943,torte-2b,2020.1.3,Win32,60,13247,,,,,,,,,,,,,space,0,11,11,11,1,7,0.363525,,,,,,,,,,,,,,,,,,,,,,,,,,,,,,,,,,,,,,,,,,,,,,
,,,,,,,,,,,,,,,,,,,,,,,19,female,2020-07-28_15h16.21.943,torte-2b,2020.1.3,Win32,60,13247,,,,,,,,,,,,,space,0,12,12,12,1,7,0.28449,,,,,,,,,,,,,,,,,,,,,,,,,,,,,,,,,,,,,,,,,,,,,,
,,,,,,,,,,,,,,,,,,,,,,,19,female,2020-07-28_15h16.21.943,torte-2b,2020.1.3,Win32,60,13247,,,,,,,,,,,,,space,0,13,13,13,1,4,0.32235,,,,,,,,,,,,,,,,,,,,,,,,,,,,,,,,,,,,,,,,,,,,,,
,,,,,,,,,,,,,,,,,,,,,,,19,female,2020-07-28_15h16.21.943,torte-2b,2020.1.3,Win32,60,13247,,,,,,,,,,,,,space,0,14,14,14,1,6,0.33054,,,,,,,,,,,,,,,,,,,,,,,,,,,,,,,,,,,,,,,,,,,,,,
,,,,,,,,,,,,,,,,,,,,,,,19,female,2020-07-28_15h16.21.943,torte-2b,2020.1.3,Win32,60,13247,,,,,,,,,,,,,,0,15,15,15,1,4,,,,,,,,,,,,,,,,,,,,,,,,,,,,,,,,,,,,,,,,,,,,,,,
,,,,,,,,,,,,,,,,,,,,,,,19,female,2020-07-28_15h16.21.943,torte-2b,2020.1.3,Win32,60,13247,,,,,,,,,,,,,space,0,16,16,16,1,6,0.28701,,,,,,,,,,,,,,,,,,,,,,,,,,,,,,,,,,,,,,,,,,,,,,
,,,,,,,,,,,,,,,,,,,,,,,19,female,2020-07-28_15h16.21.943,torte-2b,2020.1.3,Win32,60,13247,,,,,,,,,,,,,,0,17,17,17,1,7,,,,,,,,,,,,,,,,,,,,,,,,,,,,,,,,,,,,,,,,,,,,,,,
,,,,,,,,,,,,,,,,,,,,,,,19,female,2020-07-28_15h16.21.943,torte-2b,2020.1.3,Win32,60,13247,,,,,,,,,,,,,space,0,18,18,18,1,6,0.26378,,,,,,,,,,,,,,,,,,,,,,,,,,,,,,,,,,,,,,,,,,,,,,
,,,,,,,,,,,,,,,,,,,,,,,19,female,2020-07-28_15h16.21.943,torte-2b,2020.1.3,Win32,60,13247,,,,,,,,,,,,,,0,19,19,19,1,7,,,,,,,,,,,,,,,,,,,,,,,,,,,,,,,,,,,,,,,,,,,,,,,
,,,,,,,,,,,,,,,,,,,,,,,19,female,2020-07-28_15h16.21.943,torte-2b,2020.1.3,Win32,60,13247,,,,,,,,,,,,,space,0,20,20,20,1,5,0.25224,,,,,,,,,,,,,,,,,,,,,,,,,,,,,,,,,,,,,,,,,,,,,,
,,,,,,,,,,,,,,,,,,,,,,,19,female,2020-07-28_15h16.21.943,torte-2b,2020.1.3,Win32,60,13247,,,,,,,,,,,,,space,0,21,21,21,1,1,0.262045,,,,,,,,,,,,,,,,,,,,,,,,,,,,,,,,,,,,,,,,,,,,,,
,,,,,,,,,,,,,,,,,,,,,,,19,female,2020-07-28_15h16.21.943,torte-2b,2020.1.3,Win32,60,13247,,,,,,,,,,,,,,0,22,22,22,1,6,,,,,,,,,,,,,,,,,,,,,,,,,,,,,,,,,,,,,,,,,,,,,,,
,,,,,,,,,,,,,,,,,,,,,,,19,female,2020-07-28_15h16.21.943,torte-2b,2020.1.3,Win32,60,13247,,,,,,,,,,,,,,0,23,23,23,1,1,,,,,,,,,,,,,,,,,,,,,,,,,,,,,,,,,,,,,,,,,,,,,,,
,,,,,,,,,,,,,,,,,,,,,,,19,female,2020-07-28_15h16.21.943,torte-2b,2020.1.3,Win32,60,13247,,,,,,,,,,,,,space,0,24,24,24,1,5,0.264535,,,,,,,,,,,,,,,,,,,,,,,,,,,,,,,,,,,,,,,,,,,,,,
,,,,,,,,,,,,,,,,,,,,,,,19,female,2020-07-28_15h16.21.943,torte-2b,2020.1.3,Win32,60,13247,,,,,,,,,,,,,,0,25,25,25,1,6,,,,,,,,,,,,,,,,,,,,,,,,,,,,,,,,,,,,,,,,,,,,,,,
,,,,,,,,,,,,,,,,,,,,,,,19,female,2020-07-28_15h16.21.943,torte-2b,2020.1.3,Win32,60,13247,,,,,,,,,,,,,space,0,26,26,26,1,6,0.22592,,,,,,,,,,,,,,,,,,,,,,,,,,,,,,,,,,,,,,,,,,,,,,
,,,,,,,,,,,,,,,,,,,,,,,19,female,2020-07-28_15h16.21.943,torte-2b,2020.1.3,Win32,60,13247,,,,,,,,,,,,,,0,27,27,27,1,6,,,,,,,,,,,,,,,,,,,,,,,,,,,,,,,,,,,,,,,,,,,,,,,
,,,,,,,,,,,,,,,,,,,,,,,19,female,2020-07-28_15h16.21.943,torte-2b,2020.1.3,Win32,60,13247,,,,,,,,,,,,,,0,28,28,28,1,5,,,,,,,,,,,,,,,,,,,,,,,,,,,,,,,,,,,,,,,,,,,,,,,
,,,,,,,,,,,,,,,,,,,,,,,19,female,2020-07-28_15h16.21.943,torte-2b,2020.1.3,Win32,60,13247,,,,,,,,,,,,,space,0,29,29,29,1,2,0.264685,,,,,,,,,,,,,,,,,,,,,,,,,,,,,,,,,,,,,,,,,,,,,,
,,,,,,,,,,,,,,,,,,,,,,,19,female,2020-07-28_15h16.21.943,torte-2b,2020.1.3,Win32,60,13247,,,,,,,,,,,,,space,0,30,30,30,1,5,0.598145,,,,,,,,,,,,,,,,,,,,,,,,,,,,,,,,,,,,,,,,,,,,,,
,,,,,,,,,,,,,,,,,,,,,,,19,female,2020-07-28_15h16.21.943,torte-2b,2020.1.3,Win32,60,13247,,,,,,,,,,,,,,0,31,31,31,1,2,,,,,,,,,,,,,,,,,,,,,,,,,,,,,,,,,,,,,,,,,,,,,,,
,,,,,,,,,,,,,,,,,,,,,,,19,female,2020-07-28_15h16.21.943,torte-2b,2020.1.3,Win32,60,13247,,,,,,,,,,,,,,0,32,32,32,1,5,,,,,,,,,,,,,,,,,,,,,,,,,,,,,,,,,,,,,,,,,,,,,,,
,,,,,,,,,,,,,,,,,,,,,,,19,female,2020-07-28_15h16.21.943,torte-2b,2020.1.3,Win32,60,13247,,,,,,,,,,,,,space,0,33,33,33,1,1,0.25428,,,,,,,,,,,,,,,,,,,,,,,,,,,,,,,,,,,,,,,,,,,,,,
,,,,,,,,,,,,,,,,,,,,,,,19,female,2020-07-28_15h16.21.943,torte-2b,2020.1.3,Win32,60,13247,,,,,,,,,,,,,space,0,34,34,34,1,1,0.275505,,,,,,,,,,,,,,,,,,,,,,,,,,,,,,,,,,,,,,,,,,,,,,
,,,,,,,,,,,,,,,,,,,,,,,19,female,2020-07-28_15h16.21.943,torte-2b,2020.1.3,Win32,60,13247,,,,,,,,,,,,,,,,,,,2,,0,0,0,0,1,,,,,,,,,,,,,,,,,,,,,,,,,,,,,,,,,,,,,,,,,
,,,,,,,,,,,,,,,,,,,,,,,19,female,2020-07-28_15h16.21.943,torte-2b,2020.1.3,Win32,60,13247,,,,,,,,,,,,,,,,,,,2,,0,1,1,1,1,,,,,,,,,,,,,,,,,,,,,,,,,,,,,,,,,,,,,,,,,
,,,,,,,,,,,,,,,,,,,,,,,19,female,2020-07-28_15h16.21.943,torte-2b,2020.1.3,Win32,60,13247,,,,,,,,,,,,,,,,,,,6,,0,2,2,2,1,,,,,,,,,,,,,,,,,,,,,,,,,,,,,,,,,,,,,,,,,
,,,,,,,,,,,,,,,,,,,,,,,19,female,2020-07-28_15h16.21.943,torte-2b,2020.1.3,Win32,60,13247,,,,,,,,,,,,,space,,,,,,2,0.339345,0,3,3,3,1,,,,,,,,,,,,,,,,,,,,,,,,,,,,,,,,,,,,,,,,,
,,,,,,,,,,,,,,,,,,,,,,,19,female,2020-07-28_15h16.21.943,torte-2b,2020.1.3,Win32,60,13247,,,,,,,,,,,,,,,,,,,6,,0,4,4,4,1,,,,,,,,,,,,,,,,,,,,,,,,,,,,,,,,,,,,,,,,,
,,,,,,,,,,,,,,,,,,,,,,,19,female,2020-07-28_15h16.21.943,torte-2b,2020.1.3,Win32,60,13247,,,,,,,,,,,,,,,,,,,2,,0,5,5,5,1,,,,,,,,,,,,,,,,,,,,,,,,,,,,,,,,,,,,,,,,,
,,,,,,,,,,,,,,,,,,,,,,,19,female,2020-07-28_15h16.21.943,torte-2b,2020.1.3,Win32,60,13247,,,,,,,,,,,,,,,,,,,7,,0,6,6,6,1,,,,,,,,,,,,,,,,,,,,,,,,,,,,,,,,,,,,,,,,,
,,,,,,,,,,,,,,,,,,,,,,,19,female,2020-07-28_15h16.21.943,torte-2b,2020.1.3,Win32,60,13247,,,,,,,,,,,,,,,,,,,2,,0,7,7,7,1,,,,,,,,,,,,,,,,,,,,,,,,,,,,,,,,,,,,,,,,,
,,,,,,,,,,,,,,,,,,,,,,,19,female,2020-07-28_15h16.21.943,torte-2b,2020.1.3,Win32,60,13247,,,,,,,,,,,,,space,,,,,,7,0.40453,0,8,8,8,1,,,,,,,,,,,,,,,,,,,,,,,,,,,,,,,,,,,,,,,,,
,,,,,,,,,,,,,,,,,,,,,,,19,female,2020-07-28_15h16.21.943,torte-2b,2020.1.3,Win32,60,13247,,,,,,,,,,,,,space,,,,,,2,0.529545,0,9,9,9,1,,,,,,,,,,,,,,,,,,,,,,,,,,,,,,,,,,,,,,,,,
,,,,,,,,,,,,,,,,,,,,,,,19,female,2020-07-28_15h16.21.943,torte-2b,2020.1.3,Win32,60,13247,,,,,,,,,,,,,,,,,,,5,,0,10,10,10,1,,,,,,,,,,,,,,,,,,,,,,,,,,,,,,,,,,,,,,,,,
,,,,,,,,,,,,,,,,,,,,,,,19,female,2020-07-28_15h16.21.943,torte-2b,2020.1.3,Win32,60,13247,,,,,,,,,,,,,,,,,,,4,,0,11,11,11,1,,,,,,,,,,,,,,,,,,,,,,,,,,,,,,,,,,,,,,,,,
,,,,,,,,,,,,,,,,,,,,,,,19,female,2020-07-28_15h16.21.943,torte-2b,2020.1.3,Win32,60,13247,,,,,,,,,,,,,,,,,,,5,,0,12,12,12,1,,,,,,,,,,,,,,,,,,,,,,,,,,,,,,,,,,,,,,,,,
,,,,,,,,,,,,,,,,,,,,,,,19,female,2020-07-28_15h16.21.943,torte-2b,2020.1.3,Win32,60,13247,,,,,,,,,,,,,,,,,,,6,,0,13,13,13,1,,,,,,,,,,,,,,,,,,,,,,,,,,,,,,,,,,,,,,,,,
,,,,,,,,,,,,,,,,,,,,,,,19,female,2020-07-28_15h16.21.943,torte-2b,2020.1.3,Win32,60,13247,,,,,,,,,,,,,space,,,,,,5,0.380435,0,14,14,14,1,,,,,,,,,,,,,,,,,,,,,,,,,,,,,,,,,,,,,,,,,
,,,,,,,,,,,,,,,,,,,,,,,19,female,2020-07-28_15h16.21.943,torte-2b,2020.1.3,Win32,60,13247,,,,,,,,,,,,,,,,,,,4,,0,15,15,15,1,,,,,,,,,,,,,,,,,,,,,,,,,,,,,,,,,,,,,,,,,
,,,,,,,,,,,,,,,,,,,,,,,19,female,2020-07-28_15h16.21.943,torte-2b,2020.1.3,Win32,60,13247,,,,,,,,,,,,,,,,,,,5,,0,16,16,16,1,,,,,,,,,,,,,,,,,,,,,,,,,,,,,,,,,,,,,,,,,
,,,,,,,,,,,,,,,,,,,,,,,19,female,2020-07-28_15h16.21.943,torte-2b,2020.1.3,Win32,60,13247,,,,,,,,,,,,,,,,,,,3,,0,17,17,17,1,,,,,,,,,,,,,,,,,,,,,,,,,,,,,,,,,,,,,,,,,
,,,,,,,,,,,,,,,,,,,,,,,19,female,2020-07-28_15h16.21.943,torte-2b,2020.1.3,Win32,60,13247,,,,,,,,,,,,,,,,,,,6,,0,18,18,18,1,,,,,,,,,,,,,,,,,,,,,,,,,,,,,,,,,,,,,,,,,
,,,,,,,,,,,,,,,,,,,,,,,19,female,2020-07-28_15h16.21.943,torte-2b,2020.1.3,Win32,60,13247,,,,,,,,,,,,,space,,,,,,6,0.516045,0,19,19,19,1,,,,,,,,,,,,,,,,,,,,,,,,,,,,,,,,,,,,,,,,,
,,,,,,,,,,,,,,,,,,,,,,,19,female,2020-07-28_15h16.21.943,torte-2b,2020.1.3,Win32,60,13247,,,,,,,,,,,,,,,,,,,6,,0,20,20,20,1,,,,,,,,,,,,,,,,,,,,,,,,,,,,,,,,,,,,,,,,,
,,,,,,,,,,,,,,,,,,,,,,,19,female,2020-07-28_15h16.21.943,torte-2b,2020.1.3,Win32,60,13247,,,,,,,,,,,,,,,,,,,4,,0,21,21,21,1,,,,,,,,,,,,,,,,,,,,,,,,,,,,,,,,,,,,,,,,,
,,,,,,,,,,,,,,,,,,,,,,,19,female,2020-07-28_15h16.21.943,torte-2b,2020.1.3,Win32,60,13247,,,,,,,,,,,,,,,,,,,6,,0,22,22,22,1,,,,,,,,,,,,,,,,,,,,,,,,,,,,,,,,,,,,,,,,,
,,,,,,,,,,,,,,,,,,,,,,,19,female,2020-07-28_15h16.21.943,torte-2b,2020.1.3,Win32,60,13247,,,,,,,,,,,,,space,,,,,,4,0.446975,0,23,23,23,1,,,,,,,,,,,,,,,,,,,,,,,,,,,,,,,,,,,,,,,,,
,,,,,,,,,,,,,,,,,,,,,,,19,female,2020-07-28_15h16.21.943,torte-2b,2020.1.3,Win32,60,13247,,,,,,,,,,,,,,,,,,,6,,0,24,24,24,1,,,,,,,,,,,,,,,,,,,,,,,,,,,,,,,,,,,,,,,,,
,,,,,,,,,,,,,,,,,,,,,,,19,female,2020-07-28_15h16.21.943,torte-2b,2020.1.3,Win32,60,13247,,,,,,,,,,,,,space,,,,,,6,0.613185,0,25,25,25,1,,,,,,,,,,,,,,,,,,,,,,,,,,,,,,,,,,,,,,,,,
,,,,,,,,,,,,,,,,,,,,,,,19,female,2020-07-28_15h16.21.943,torte-2b,2020.1.3,Win32,60,13247,,,,,,,,,,,,,space,,,,,,7,0.40521,0,26,26,26,1,,,,,,,,,,,,,,,,,,,,,,,,,,,,,,,,,,,,,,,,,
,,,,,,,,,,,,,,,,,,,,,,,19,female,2020-07-28_15h16.21.943,torte-2b,2020.1.3,Win32,60,13247,,,,,,,,,,,,,,,,,,,1,,0,27,27,27,1,,,,,,,,,,,,,,,,,,,,,,,,,,,,,,,,,,,,,,,,,
,,,,,,,,,,,,,,,,,,,,,,,19,female,2020-07-28_15h16.21.943,torte-2b,2020.1.3,Win32,60,13247,,,,,,,,,,,,,,,,,,,7,,0,28,28,28,1,,,,,,,,,,,,,,,,,,,,,,,,,,,,,,,,,,,,,,,,,
,,,,,,,,,,,,,,,,,,,,,,,19,female,2020-07-28_15h16.21.943,torte-2b,2020.1.3,Win32,60,13247,,,,,,,,,,,,,,,,,,,4,,0,29,29,29,1,,,,,,,,,,,,,,,,,,,,,,,,,,,,,,,,,,,,,,,,,
,,,,,,,,,,,,,,,,,,,,,,,19,female,2020-07-28_15h16.21.943,torte-2b,2020.1.3,Win32,60,13247,,,,,,,,,,,,,,,,,,,7,,0,30,30,30,1,,,,,,,,,,,,,,,,,,,,,,,,,,,,,,,,,,,,,,,,,
,,,,,,,,,,,,,,,,,,,,,,,19,female,2020-07-28_15h16.21.943,torte-2b,2020.1.3,Win32,60,13247,,,,,,,,,,,,,space,,,,,,3,0.73297,0,31,31,31,1,,,,,,,,,,,,,,,,,,,,,,,,,,,,,,,,,,,,,,,,,
,,,,,,,,,,,,,,,,,,,,,,,19,female,2020-07-28_15h16.21.943,torte-2b,2020.1.3,Win32,60,13247,,,,,,,,,,,,,,,,,,,2,,0,32,32,32,1,,,,,,,,,,,,,,,,,,,,,,,,,,,,,,,,,,,,,,,,,
,,,,,,,,,,,,,,,,,,,,,,,19,female,2020-07-28_15h16.21.943,torte-2b,2020.1.3,Win32,60,13247,,,,,,,,,,,,,space,,,,,,6,0.51311,0,33,33,33,1,,,,,,,,,,,,,,,,,,,,,,,,,,,,,,,,,,,,,,,,,
,,,,,,,,,,,,,,,,,,,,,,,19,female,2020-07-28_15h16.21.943,torte-2b,2020.1.3,Win32,60,13247,,,,,,,,,,,,,,,,,,,3,,0,34,34,34,1,,,,,,,,,,,,,,,,,,,,,,,,,,,,,,,,,,,,,,,,,
,,,,,,,,,,,,,,,,,,,,,,,19,female,2020-07-28_15h16.21.943,torte-2b,2020.1.3,Win32,60,13247,,,,,,,,,,,,,,,,,,,7,,,,,,,0,0,0,0,1,,,,,,,,,,,,,,,,,,,,,,,,,,,,,,,,,,,,
,,,,,,,,,,,,,,,,,,,,,,,19,female,2020-07-28_15h16.21.943,torte-2b,2020.1.3,Win32,60,13247,,,,,,,,,,,,,,,,,,,5,,,,,,,0,1,1,1,1,,,,,,,,,,,,,,,,,,,,,,,,,,,,,,,,,,,,
,,,,,,,,,,,,,,,,,,,,,,,19,female,2020-07-28_15h16.21.943,torte-2b,2020.1.3,Win32,60,13247,,,,,,,,,,,,,,,,,,,4,,,,,,,0,2,2,2,1,,,,,,,,,,,,,,,,,,,,,,,,,,,,,,,,,,,,
,,,,,,,,,,,,,,,,,,,,,,,19,female,2020-07-28_15h16.21.943,torte-2b,2020.1.3,Win32,60,13247,,,,,,,,,,,,,,,,,,,5,,,,,,,0,3,3,3,1,,,,,,,,,,,,,,,,,,,,,,,,,,,,,,,,,,,,
,,,,,,,,,,,,,,,,,,,,,,,19,female,2020-07-28_15h16.21.943,torte-2b,2020.1.3,Win32,60,13247,,,,,,,,,,,,,,,,,,,6,,,,,,,0,4,4,4,1,,,,,,,,,,,,,,,,,,,,,,,,,,,,,,,,,,,,
,,,,,,,,,,,,,,,,,,,,,,,19,female,2020-07-28_15h16.21.943,torte-2b,2020.1.3,Win32,60,13247,,,,,,,,,,,,,space,,,,,,5,0.51472,,,,,,0,5,5,5,1,,,,,,,,,,,,,,,,,,,,,,,,,,,,,,,,,,,,
,,,,,,,,,,,,,,,,,,,,,,,19,female,2020-07-28_15h16.21.943,torte-2b,2020.1.3,Win32,60,13247,,,,,,,,,,,,,,,,,,,3,,,,,,,0,6,6,6,1,,,,,,,,,,,,,,,,,,,,,,,,,,,,,,,,,,,,
,,,,,,,,,,,,,,,,,,,,,,,19,female,2020-07-28_15h16.21.943,torte-2b,2020.1.3,Win32,60,13247,,,,,,,,,,,,,,,,,,,4,,,,,,,0,7,7,7,1,,,,,,,,,,,,,,,,,,,,,,,,,,,,,,,,,,,,
,,,,,,,,,,,,,,,,,,,,,,,19,female,2020-07-28_15h16.21.943,torte-2b,2020.1.3,Win32,60,13247,,,,,,,,,,,,,,,,,,,3,,,,,,,0,8,8,8,1,,,,,,,,,,,,,,,,,,,,,,,,,,,,,,,,,,,,
,,,,,,,,,,,,,,,,,,,,,,,19,female,2020-07-28_15h16.21.943,torte-2b,2020.1.3,Win32,60,13247,,,,,,,,,,,,,,,,,,,1,,,,,,,0,9,9,9,1,,,,,,,,,,,,,,,,,,,,,,,,,,,,,,,,,,,,
,,,,,,,,,,,,,,,,,,,,,,,19,female,2020-07-28_15h16.21.943,torte-2b,2020.1.3,Win32,60,13247,,,,,,,,,,,,,,,,,,,2,,,,,,,0,10,10,10,1,,,,,,,,,,,,,,,,,,,,,,,,,,,,,,,,,,,,
,,,,,,,,,,,,,,,,,,,,,,,19,female,2020-07-28_15h16.21.943,torte-2b,2020.1.3,Win32,60,13247,,,,,,,,,,,,,,,,,,,1,,,,,,,0,11,11,11,1,,,,,,,,,,,,,,,,,,,,,,,,,,,,,,,,,,,,
,,,,,,,,,,,,,,,,,,,,,,,19,female,2020-07-28_15h16.21.943,torte-2b,2020.1.3,Win32,60,13247,,,,,,,,,,,,,,,,,,,2,,,,,,,0,12,12,12,1,,,,,,,,,,,,,,,,,,,,,,,,,,,,,,,,,,,,
,,,,,,,,,,,,,,,,,,,,,,,19,female,2020-07-28_15h16.21.943,torte-2b,2020.1.3,Win32,60,13247,,,,,,,,,,,,,space,,,,,,1,0.332855,,,,,,0,13,13,13,1,,,,,,,,,,,,,,,,,,,,,,,,,,,,,,,,,,,,
,,,,,,,,,,,,,,,,,,,,,,,19,female,2020-07-28_15h16.21.943,torte-2b,2020.1.3,Win32,60,13247,,,,,,,,,,,,,space,,,,,,3,0.562125,,,,,,0,14,14,14,1,,,,,,,,,,,,,,,,,,,,,,,,,,,,,,,,,,,,
,,,,,,,,,,,,,,,,,,,,,,,19,female,2020-07-28_15h16.21.943,torte-2b,2020.1.3,Win32,60,13247,,,,,,,,,,,,,,,,,,,1,,,,,,,0,15,15,15,1,,,,,,,,,,,,,,,,,,,,,,,,,,,,,,,,,,,,
,,,,,,,,,,,,,,,,,,,,,,,19,female,2020-07-28_15h16.21.943,torte-2b,2020.1.3,Win32,60,13247,,,,,,,,,,,,,,,,,,,7,,,,,,,0,16,16,16,1,,,,,,,,,,,,,,,,,,,,,,,,,,,,,,,,,,,,
,,,,,,,,,,,,,,,,,,,,,,,19,female,2020-07-28_15h16.21.943,torte-2b,2020.1.3,Win32,60,13247,,,,,,,,,,,,,space,,,,,,7,0.58704,,,,,,0,17,17,17,1,,,,,,,,,,,,,,,,,,,,,,,,,,,,,,,,,,,,
,,,,,,,,,,,,,,,,,,,,,,,19,female,2020-07-28_15h16.21.943,torte-2b,2020.1.3,Win32,60,13247,,,,,,,,,,,,,,,,,,,4,,,,,,,0,18,18,18,1,,,,,,,,,,,,,,,,,,,,,,,,,,,,,,,,,,,,
,,,,,,,,,,,,,,,,,,,,,,,19,female,2020-07-28_15h16.21.943,torte-2b,2020.1.3,Win32,60,13247,,,,,,,,,,,,,space,,,,,,7,0.523695,,,,,,0,19,19,19,1,,,,,,,,,,,,,,,,,,,,,,,,,,,,,,,,,,,,
,,,,,,,,,,,,,,,,,,,,,,,19,female,2020-07-28_15h16.21.943,torte-2b,2020.1.3,Win32,60,13247,,,,,,,,,,,,,,,,,,,3,,,,,,,0,20,20,20,1,,,,,,,,,,,,,,,,,,,,,,,,,,,,,,,,,,,,
,,,,,,,,,,,,,,,,,,,,,,,19,female,2020-07-28_15h16.21.943,torte-2b,2020.1.3,Win32,60,13247,,,,,,,,,,,,,,,,,,,7,,,,,,,0,21,21,21,1,,,,,,,,,,,,,,,,,,,,,,,,,,,,,,,,,,,,
,,,,,,,,,,,,,,,,,,,,,,,19,female,2020-07-28_15h16.21.943,torte-2b,2020.1.3,Win32,60,13247,,,,,,,,,,,,,space,,,,,,3,0.297615,,,,,,0,22,22,22,1,,,,,,,,,,,,,,,,,,,,,,,,,,,,,,,,,,,,
,,,,,,,,,,,,,,,,,,,,,,,19,female,2020-07-28_15h16.21.943,torte-2b,2020.1.3,Win32,60,13247,,,,,,,,,,,,,,,,,,,1,,,,,,,0,23,23,23,1,,,,,,,,,,,,,,,,,,,,,,,,,,,,,,,,,,,,
,,,,,,,,,,,,,,,,,,,,,,,19,female,2020-07-28_15h16.21.943,torte-2b,2020.1.3,Win32,60,13247,,,,,,,,,,,,,space,,,,,,6,0.530065,,,,,,0,24,24,24,1,,,,,,,,,,,,,,,,,,,,,,,,,,,,,,,,,,,,
,,,,,,,,,,,,,,,,,,,,,,,19,female,2020-07-28_15h16.21.943,torte-2b,2020.1.3,Win32,60,13247,,,,,,,,,,,,,space,,,,,,3,0.3581,,,,,,0,25,25,25,1,,,,,,,,,,,,,,,,,,,,,,,,,,,,,,,,,,,,
,,,,,,,,,,,,,,,,,,,,,,,19,female,2020-07-28_15h16.21.943,torte-2b,2020.1.3,Win32,60,13247,,,,,,,,,,,,,space,,,,,,2,0.300175,,,,,,0,26,26,26,1,,,,,,,,,,,,,,,,,,,,,,,,,,,,,,,,,,,,
,,,,,,,,,,,,,,,,,,,,,,,19,female,2020-07-28_15h16.21.943,torte-2b,2020.1.3,Win32,60,13247,,,,,,,,,,,,,,,,,,,3,,,,,,,0,27,27,27,1,,,,,,,,,,,,,,,,,,,,,,,,,,,,,,,,,,,,
,,,,,,,,,,,,,,,,,,,,,,,19,female,2020-07-28_15h16.21.943,torte-2b,2020.1.3,Win32,60,13247,,,,,,,,,,,,,,,,,,,1,,,,,,,0,28,28,28,1,,,,,,,,,,,,,,,,,,,,,,,,,,,,,,,,,,,,
,,,,,,,,,,,,,,,,,,,,,,,19,female,2020-07-28_15h16.21.943,torte-2b,2020.1.3,Win32,60,13247,,,,,,,,,,,,,,,,,,,3,,,,,,,0,29,29,29,1,,,,,,,,,,,,,,,,,,,,,,,,,,,,,,,,,,,,
,,,,,,,,,,,,,,,,,,,,,,,19,female,2020-07-28_15h16.21.943,torte-2b,2020.1.3,Win32,60,13247,,,,,,,,,,,,,,,,,,,1,,,,,,,0,30,30,30,1,,,,,,,,,,,,,,,,,,,,,,,,,,,,,,,,,,,,
,,,,,,,,,,,,,,,,,,,,,,,19,female,2020-07-28_15h16.21.943,torte-2b,2020.1.3,Win32,60,13247,,,,,,,,,,,,,space,,,,,,7,0.28449,,,,,,0,31,31,31,1,,,,,,,,,,,,,,,,,,,,,,,,,,,,,,,,,,,,
,,,,,,,,,,,,,,,,,,,,,,,19,female,2020-07-28_15h16.21.943,torte-2b,2020.1.3,Win32,60,13247,,,,,,,,,,,,,space,,,,,,5,0.354455,,,,,,0,32,32,32,1,,,,,,,,,,,,,,,,,,,,,,,,,,,,,,,,,,,,
,,,,,,,,,,,,,,,,,,,,,,,19,female,2020-07-28_15h16.21.943,torte-2b,2020.1.3,Win32,60,13247,,,,,,,,,,,,,space,,,,,,7,0.572255,,,,,,0,33,33,33,1,,,,,,,,,,,,,,,,,,,,,,,,,,,,,,,,,,,,
,,,,,,,,,,,,,,,,,,,,,,,19,female,2020-07-28_15h16.21.943,torte-2b,2020.1.3,Win32,60,13247,,,,,,,,,,,,,,,,,,,2,,,,,,,0,34,34,34,1,,,,,,,,,,,,,,,,,,,,,,,,,,,,,,,,,,,,
,,,,,,,,,,,,,,,,,,,,,,,19,female,2020-07-28_15h16.21.943,torte-2b,2020.1.3,Win32,60,13247,,,,,,,,,,,,,,,,,,,3,,,,,,,,,,,,0,0,0,0,1,,,,,,,,,,,,,,,,,,,,,,,,,,,,,,,
,,,,,,,,,,,,,,,,,,,,,,,19,female,2020-07-28_15h16.21.943,torte-2b,2020.1.3,Win32,60,13247,,,,,,,,,,,,,,,,,,,7,,,,,,,,,,,,0,1,1,1,1,,,,,,,,,,,,,,,,,,,,,,,,,,,,,,,
,,,,,,,,,,,,,,,,,,,,,,,19,female,2020-07-28_15h16.21.943,torte-2b,2020.1.3,Win32,60,13247,,,,,,,,,,,,,,,,,,,7,,,,,,,,,,,,0,2,2,2,1,,,,,,,,,,,,,,,,,,,,,,,,,,,,,,,
,,,,,,,,,,,,,,,,,,,,,,,19,female,2020-07-28_15h16.21.943,torte-2b,2020.1.3,Win32,60,13247,,,,,,,,,,,,,,,,,,,4,,,,,,,,,,,,0,3,3,3,1,,,,,,,,,,,,,,,,,,,,,,,,,,,,,,,
,,,,,,,,,,,,,,,,,,,,,,,19,female,2020-07-28_15h16.21.943,torte-2b,2020.1.3,Win32,60,13247,,,,,,,,,,,,,,,,,,,5,,,,,,,,,,,,0,4,4,4,1,,,,,,,,,,,,,,,,,,,,,,,,,,,,,,,
,,,,,,,,,,,,,,,,,,,,,,,19,female,2020-07-28_15h16.21.943,torte-2b,2020.1.3,Win32,60,13247,,,,,,,,,,,,,,,,,,,4,,,,,,,,,,,,0,5,5,5,1,,,,,,,,,,,,,,,,,,,,,,,,,,,,,,,
,,,,,,,,,,,,,,,,,,,,,,,19,female,2020-07-28_15h16.21.943,torte-2b,2020.1.3,Win32,60,13247,,,,,,,,,,,,,,,,,,,2,,,,,,,,,,,,0,6,6,6,1,,,,,,,,,,,,,,,,,,,,,,,,,,,,,,,
,,,,,,,,,,,,,,,,,,,,,,,19,female,2020-07-28_15h16.21.943,torte-2b,2020.1.3,Win32,60,13247,,,,,,,,,,,,,space,,,,,,4,0.37946,,,,,,,,,,,0,7,7,7,1,,,,,,,,,,,,,,,,,,,,,,,,,,,,,,,
,,,,,,,,,,,,,,,,,,,,,,,19,female,2020-07-28_15h16.21.943,torte-2b,2020.1.3,Win32,60,13247,,,,,,,,,,,,,,,,,,,2,,,,,,,,,,,,0,8,8,8,1,,,,,,,,,,,,,,,,,,,,,,,,,,,,,,,
,,,,,,,,,,,,,,,,,,,,,,,19,female,2020-07-28_15h16.21.943,torte-2b,2020.1.3,Win32,60,13247,,,,,,,,,,,,,space,,,,,,2,0.664255,,,,,,,,,,,0,9,9,9,1,,,,,,,,,,,,,,,,,,,,,,,,,,,,,,,
,,,,,,,,,,,,,,,,,,,,,,,19,female,2020-07-28_15h16.21.943,torte-2b,2020.1.3,Win32,60,13247,,,,,,,,,,,,,,,,,,,6,,,,,,,,,,,,0,10,10,10,1,,,,,,,,,,,,,,,,,,,,,,,,,,,,,,,
,,,,,,,,,,,,,,,,,,,,,,,19,female,2020-07-28_15h16.21.943,torte-2b,2020.1.3,Win32,60,13247,,,,,,,,,,,,,,,,,,,2,,,,,,,,,,,,0,11,11,11,1,,,,,,,,,,,,,,,,,,,,,,,,,,,,,,,
,,,,,,,,,,,,,,,,,,,,,,,19,female,2020-07-28_15h16.21.943,torte-2b,2020.1.3,Win32,60,13247,,,,,,,,,,,,,,,,,,,2,,,,,,,,,,,,0,12,12,12,1,,,,,,,,,,,,,,,,,,,,,,,,,,,,,,,
,,,,,,,,,,,,,,,,,,,,,,,19,female,2020-07-28_15h16.21.943,torte-2b,2020.1.3,Win32,60,13247,,,,,,,,,,,,,space,,,,,,2,0.268285,,,,,,,,,,,0,13,13,13,1,,,,,,,,,,,,,,,,,,,,,,,,,,,,,,,
,,,,,,,,,,,,,,,,,,,,,,,19,female,2020-07-28_15h16.21.943,torte-2b,2020.1.3,Win32,60,13247,,,,,,,,,,,,,,,,,,,2,,,,,,,,,,,,0,14,14,14,1,,,,,,,,,,,,,,,,,,,,,,,,,,,,,,,
,,,,,,,,,,,,,,,,,,,,,,,19,female,2020-07-28_15h16.21.943,torte-2b,2020.1.3,Win32,60,13247,,,,,,,,,,,,,,,,,,,4,,,,,,,,,,,,0,15,15,15,1,,,,,,,,,,,,,,,,,,,,,,,,,,,,,,,
,,,,,,,,,,,,,,,,,,,,,,,19,female,2020-07-28_15h16.21.943,torte-2b,2020.1.3,Win32,60,13247,,,,,,,,,,,,,,,,,,,3,,,,,,,,,,,,0,16,16,16,1,,,,,,,,,,,,,,,,,,,,,,,,,,,,,,,
,,,,,,,,,,,,,,,,,,,,,,,19,female,2020-07-28_15h16.21.943,torte-2b,2020.1.3,Win32,60,13247,,,,,,,,,,,,,,,,,,,7,,,,,,,,,,,,0,17,17,17,1,,,,,,,,,,,,,,,,,,,,,,,,,,,,,,,
,,,,,,,,,,,,,,,,,,,,,,,19,female,2020-07-28_15h16.21.943,torte-2b,2020.1.3,Win32,60,13247,,,,,,,,,,,,,space,,,,,,4,0.28487,,,,,,,,,,,0,18,18,18,1,,,,,,,,,,,,,,,,,,,,,,,,,,,,,,,
,,,,,,,,,,,,,,,,,,,,,,,19,female,2020-07-28_15h16.21.943,torte-2b,2020.1.3,Win32,60,13247,,,,,,,,,,,,,,,,,,,7,,,,,,,,,,,,0,19,19,19,1,,,,,,,,,,,,,,,,,,,,,,,,,,,,,,,
,,,,,,,,,,,,,,,,,,,,,,,19,female,2020-07-28_15h16.21.943,torte-2b,2020.1.3,Win32,60,13247,,,,,,,,,,,,,,,,,,,7,,,,,,,,,,,,0,20,20,20,1,,,,,,,,,,,,,,,,,,,,,,,,,,,,,,,
,,,,,,,,,,,,,,,,,,,,,,,19,female,2020-07-28_15h16.21.943,torte-2b,2020.1.3,Win32,60,13247,,,,,,,,,,,,,space,,,,,,7,0.2392,,,,,,,,,,,0,21,21,21,1,,,,,,,,,,,,,,,,,,,,,,,,,,,,,,,
,,,,,,,,,,,,,,,,,,,,,,,19,female,2020-07-28_15h16.21.943,torte-2b,2020.1.3,Win32,60,13247,,,,,,,,,,,,,,,,,,,7,,,,,,,,,,,,0,22,22,22,1,,,,,,,,,,,,,,,,,,,,,,,,,,,,,,,
,,,,,,,,,,,,,,,,,,,,,,,19,female,2020-07-28_15h16.21.943,torte-2b,2020.1.3,Win32,60,13247,,,,,,,,,,,,,space,,,,,,1,0.417375,,,,,,,,,,,0,23,23,23,1,,,,,,,,,,,,,,,,,,,,,,,,,,,,,,,
,,,,,,,,,,,,,,,,,,,,,,,19,female,2020-07-28_15h16.21.943,torte-2b,2020.1.3,Win32,60,13247,,,,,,,,,,,,,,,,,,,7,,,,,,,,,,,,0,24,24,24,1,,,,,,,,,,,,,,,,,,,,,,,,,,,,,,,
,,,,,,,,,,,,,,,,,,,,,,,19,female,2020-07-28_15h16.21.943,torte-2b,2020.1.3,Win32,60,13247,,,,,,,,,,,,,,,,,,,1,,,,,,,,,,,,0,25,25,25,1,,,,,,,,,,,,,,,,,,,,,,,,,,,,,,,
,,,,,,,,,,,,,,,,,,,,,,,19,female,2020-07-28_15h16.21.943,torte-2b,2020.1.3,Win32,60,13247,,,,,,,,,,,,,,,,,,,7,,,,,,,,,,,,0,26,26,26,1,,,,,,,,,,,,,,,,,,,,,,,,,,,,,,,
,,,,,,,,,,,,,,,,,,,,,,,19,female,2020-07-28_15h16.21.943,torte-2b,2020.1.3,Win32,60,13247,,,,,,,,,,,,,,,,,,,2,,,,,,,,,,,,0,27,27,27,1,,,,,,,,,,,,,,,,,,,,,,,,,,,,,,,
,,,,,,,,,,,,,,,,,,,,,,,19,female,2020-07-28_15h16.21.943,torte-2b,2020.1.3,Win32,60,13247,,,,,,,,,,,,,,,,,,,5,,,,,,,,,,,,0,28,28,28,1,,,,,,,,,,,,,,,,,,,,,,,,,,,,,,,
,,,,,,,,,,,,,,,,,,,,,,,19,female,2020-07-28_15h16.21.943,torte-2b,2020.1.3,Win32,60,13247,,,,,,,,,,,,,,,,,,,5,,,,,,,,,,,,0,29,29,29,1,,,,,,,,,,,,,,,,,,,,,,,,,,,,,,,
,,,,,,,,,,,,,,,,,,,,,,,19,female,2020-07-28_15h16.21.943,torte-2b,2020.1.3,Win32,60,13247,,,,,,,,,,,,,space,,,,,,5,0.38041,,,,,,,,,,,0,30,30,30,1,,,,,,,,,,,,,,,,,,,,,,,,,,,,,,,
,,,,,,,,,,,,,,,,,,,,,,,19,female,2020-07-28_15h16.21.943,torte-2b,2020.1.3,Win32,60,13247,,,,,,,,,,,,,space,,,,,,1,0.446935,,,,,,,,,,,0,31,31,31,1,,,,,,,,,,,,,,,,,,,,,,,,,,,,,,,
,,,,,,,,,,,,,,,,,,,,,,,19,female,2020-07-28_15h16.21.943,torte-2b,2020.1.3,Win32,60,13247,,,,,,,,,,,,,,,,,,,5,,,,,,,,,,,,0,32,32,32,1,,,,,,,,,,,,,,,,,,,,,,,,,,,,,,,
,,,,,,,,,,,,,,,,,,,,,,,19,female,2020-07-28_15h16.21.943,torte-2b,2020.1.3,Win32,60,13247,,,,,,,,,,,,,,,,,,,3,,,,,,,,,,,,0,33,33,33,1,,,,,,,,,,,,,,,,,,,,,,,,,,,,,,,
,,,,,,,,,,,,,,,,,,,,,,,19,female,2020-07-28_15h16.21.943,torte-2b,2020.1.3,Win32,60,13247,,,,,,,,,,,,,,,,,,,3,,,,,,,,,,,,0,34,34,34,1,,,,,,,,,,,,,,,,,,,,,,,,,,,,,,,
,,,,,,,,,,,,a,Correct!,,,,,,t4.png,t3.png,1,0.90855,19,female,2020-07-28_15h16.21.943,torte-2b,2020.1.3,Win32,60,13247,1.15107,space,0.599735,,,,,,,,,,,,,,,,,,,,,,,,,,,,,,,,,a,0.35588,0,0,0,56,1,,,,,,,,,,,,,,,,,,,,,,,,
,,,,,,,,,,,,l,Correct!,,,,,,t4.png,t1.png,3,0.0000131,19,female,2020-07-28_15h16.21.943,torte-2b,2020.1.3,Win32,60,13247,1.168535,,,,,,,,,,,,,,,,,,,,,,,,,,,,,,,,,,,,,0,1,1,102,1,,,,,,,,,,,,,,,,,,,,,,,,
,,,,,,,,,,,,a,Incorrect,,,,,,t5.png,t1.png,4,9.55E-11,19,female,2020-07-28_15h16.21.943,torte-2b,2020.1.3,Win32,60,13247,1.55097,,,,,,,,,,,,,,,,,,,,,,,,,,,,,,,,,,,,,0,2,2,117,1,,,,,,,,,,,,,,,,,,,,,,,,
,,,,,,,,,,,,l,Correct!,,,,,,t1.png,t5.png,4,9.55E-11,19,female,2020-07-28_15h16.21.943,torte-2b,2020.1.3,Win32,60,13247,1.40178,,,,,,,,,,,,,,,,,,,,,,,,,,,,,,,,,,,,,0,3,3,118,1,,,,,,,,,,,,,,,,,,,,,,,,
,,,,,,,,,,,,l,Correct!,,,,,,t5.png,t3.png,2,0.056466,19,female,2020-07-28_15h16.21.943,torte-2b,2020.1.3,Win32,60,13247,1.42599,,,,,,,,,,,,,,,,,,,,,,,,,,,,,,,,,,,,,0,4,4,37,1,,,,,,,,,,,,,,,,,,,,,,,,
,,,,,,,,,,,,a,Incorrect,,,,,,t2.png,t5.png,3,0.0000131,19,female,2020-07-28_15h16.21.943,torte-2b,2020.1.3,Win32,60,13247,1.67208,,,,,,,,,,,,,,,,,,,,,,,,,,,,,,,,,,,,,0,5,5,46,1,,,,,,,,,,,,,,,,,,,,,,,,
,,,,,,,,,,,,l,Correct!,,,,,,t1.png,t5.png,4,9.55E-11,19,female,2020-07-28_15h16.21.943,torte-2b,2020.1.3,Win32,60,13247,1.34796,,,,,,,,,,,,,,,,,,,,,,,,,,,,,,,,,,,,,0,6,6,1,1,,,,,,,,,,,,,,,,,,,,,,,,
,,,,,,,,,,,,a,Correct!,,,,,,t1.png,t2.png,1,0.9,19,female,2020-07-28_15h16.21.943,torte-2b,2020.1.3,Win32,60,13247,1.422445,,,,,,,,,,,,,,,,,,,,,,,,,,,,,,,,,,,,,0,7,7,41,1,,,,,,,,,,,,,,,,,,,,,,,,
,,,,,,,,,,,,a,Correct!,,,,,,t4.png,t5.png,1,0.90025,19,female,2020-07-28_15h16.21.943,torte-2b,2020.1.3,Win32,60,13247,1.455475,,,,,,,,,,,,,,,,,,,,,,,,,,,,,,,,,,,,,0,8,8,21,1,,,,,,,,,,,,,,,,,,,,,,,,
,,,,,,,,,,,,a,Correct!,,,,,,t1.png,t1.png,0,0.978,19,female,2020-07-28_15h16.21.943,torte-2b,2020.1.3,Win32,60,13247,0.73262,,,,,,,,,,,,,,,,,,,,,,,,,,,,,,,,,,,,,0,9,9,13,1,,,,,,,,,,,,,,,,,,,,,,,,
,,,,,,,,,,,,a,Correct!,,,,,,t4.png,t5.png,1,0.90025,19,female,2020-07-28_15h16.21.943,torte-2b,2020.1.3,Win32,60,13247,1.840075,,,,,,,,,,,,,,,,,,,,,,,,,,,,,,,,,,,,,0,10,10,63,1,,,,,,,,,,,,,,,,,,,,,,,,
,,,,,,,,,,,,a,Correct!,,,,,,t2.png,t2.png,0,0.981,19,female,2020-07-28_15h16.21.943,torte-2b,2020.1.3,Win32,60,13247,0.916595,,,,,,,,,,,,,,,,,,,,,,,,,,,,,,,,,,,,,0,11,11,98,1,,,,,,,,,,,,,,,,,,,,,,,,
,,,,,,,,,,,,l,Incorrect,,,,,,t4.png,t1.png,3,0.059078,19,female,2020-07-28_15h16.21.943,torte-2b,2020.1.3,Win32,60,13247,1.2146,,,,,,,,,,,,,,,,,,,,,,,,,,,,,,,,,,,,,0,12,12,57,1,,,,,,,,,,,,,,,,,,,,,,,,
,,,,,,,,,,,,a,Incorrect,,,,,,t5.png,t2.png,3,0.0000131,19,female,2020-07-28_15h16.21.943,torte-2b,2020.1.3,Win32,60,13247,1.348375,,,,,,,,,,,,,,,,,,,,,,,,,,,,,,,,,,,,,0,13,13,48,1,,,,,,,,,,,,,,,,,,,,,,,,
,,,,,,,,,,,,a,Incorrect,,,,,,t2.png,t4.png,2,0.059078,19,female,2020-07-28_15h16.21.943,torte-2b,2020.1.3,Win32,60,13247,1.43988,,,,,,,,,,,,,,,,,,,,,,,,,,,,,,,,,,,,,0,14,14,97,1,,,,,,,,,,,,,,,,,,,,,,,,
,,,,,,,,,,,,l,Incorrect,,,,,,t3.png,t2.png,1,0.90855,19,female,2020-07-28_15h16.21.943,torte-2b,2020.1.3,Win32,60,13247,1.249625,,,,,,,,,,,,,,,,,,,,,,,,,,,,,,,,,,,,,0,15,15,94,1,,,,,,,,,,,,,,,,,,,,,,,,
,,,,,,,,,,,,l,Correct!,,,,,,t3.png,t1.png,2,0.056466,19,female,2020-07-28_15h16.21.943,torte-2b,2020.1.3,Win32,60,13247,1.192585,,,,,,,,,,,,,,,,,,,,,,,,,,,,,,,,,,,,,0,16,16,109,1,,,,,,,,,,,,,,,,,,,,,,,,
,,,,,,,,,,,,a,Correct!,,,,,,t5.png,t5.png,0,0.97829,19,female,2020-07-28_15h16.21.943,torte-2b,2020.1.3,Win32,60,13247,0.90857,,,,,,,,,,,,,,,,,,,,,,,,,,,,,,,,,,,,,0,17,17,2,1,,,,,,,,,,,,,,,,,,,,,,,,
,,,,,,,,,,,,l,Correct!,,,,,,t1.png,t4.png,3,0.0000131,19,female,2020-07-28_15h16.21.943,torte-2b,2020.1.3,Win32,60,13247,0.97612,,,,,,,,,,,,,,,,,,,,,,,,,,,,,,,,,,,,,0,18,18,74,1,,,,,,,,,,,,,,,,,,,,,,,,
,,,,,,,,,,,,l,Correct!,,,,,,t1.png,t5.png,4,9.55E-11,19,female,2020-07-28_15h16.21.943,torte-2b,2020.1.3,Win32,60,13247,1.117855,,,,,,,,,,,,,,,,,,,,,,,,,,,,,,,,,,,,,0,19,19,30,1,,,,,,,,,,,,,,,,,,,,,,,,
,,,,,,,,,,,,a,Correct!,,,,,,t3.png,t2.png,1,0.90855,19,female,2020-07-28_15h16.21.943,torte-2b,2020.1.3,Win32,60,13247,1.306795,,,,,,,,,,,,,,,,,,,,,,,,,,,,,,,,,,,,,0,20,20,10,1,,,,,,,,,,,,,,,,,,,,,,,,
,,,,,,,,,,,,l,Incorrect,,,,,,t2.png,t3.png,1,0.90855,19,female,2020-07-28_15h16.21.943,torte-2b,2020.1.3,Win32,60,13247,0.982355,,,,,,,,,,,,,,,,,,,,,,,,,,,,,,,,,,,,,0,21,21,64,1,,,,,,,,,,,,,,,,,,,,,,,,
,,,,,,,,,,,,a,Correct!,,,,,,t4.png,t3.png,1,0.909,19,female,2020-07-28_15h16.21.943,torte-2b,2020.1.3,Win32,60,13247,1.198515,,,,,,,,,,,,,,,,,,,,,,,,,,,,,,,,,,,,,0,22,22,119,1,,,,,,,,,,,,,,,,,,,,,,,,
,,,,,,,,,,,,a,Incorrect,,,,,,t5.png,t3.png,2,0.056466,19,female,2020-07-28_15h16.21.943,torte-2b,2020.1.3,Win32,60,13247,1.02549,,,,,,,,,,,,,,,,,,,,,,,,,,,,,,,,,,,,,0,23,23,27,1,,,,,,,,,,,,,,,,,,,,,,,,
,,,,,,,,,,,,l,Correct!,,,,,,t3.png,t1.png,2,0.0565,19,female,2020-07-28_15h16.21.943,torte-2b,2020.1.3,Win32,60,13247,1.83135,,,,,,,,,,,,,,,,,,,,,,,,,,,,,,,,,,,,,0,24,24,104,1,,,,,,,,,,,,,,,,,,,,,,,,
,,,,,,,,,,,,l,Incorrect,,,,,,t3.png,t2.png,1,0.90855,19,female,2020-07-28_15h16.21.943,torte-2b,2020.1.3,Win32,60,13247,1.36502,,,,,,,,,,,,,,,,,,,,,,,,,,,,,,,,,,,,,0,25,25,0,1,,,,,,,,,,,,,,,,,,,,,,,,
,,,,,,,,,,,,a,Incorrect,,,,,,t5.png,t2.png,3,0.0000131,19,female,2020-07-28_15h16.21.943,torte-2b,2020.1.3,Win32,60,13247,1.387855,,,,,,,,,,,,,,,,,,,,,,,,,,,,,,,,,,,,,0,26,26,83,1,,,,,,,,,,,,,,,,,,,,,,,,
,,,,,,,,,,,,a,Incorrect,,,,,,t2.png,t4.png,2,0.059078,19,female,2020-07-28_15h16.21.943,torte-2b,2020.1.3,Win32,60,13247,1.43665,,,,,,,,,,,,,,,,,,,,,,,,,,,,,,,,,,,,,0,27,27,84,1,,,,,,,,,,,,,,,,,,,,,,,,
,,,,,,,,,,,,a,Incorrect,,,,,,t5.png,t2.png,3,0.0000131,19,female,2020-07-28_15h16.21.943,torte-2b,2020.1.3,Win32,60,13247,0.71527,,,,,,,,,,,,,,,,,,,,,,,,,,,,,,,,,,,,,0,28,28,66,1,,,,,,,,,,,,,,,,,,,,,,,,
,,,,,,,,,,,,l,Correct!,,,,,,t1.png,t2.png,1,0.90025,19,female,2020-07-28_15h16.21.943,torte-2b,2020.1.3,Win32,60,13247,1.016485,,,,,,,,,,,,,,,,,,,,,,,,,,,,,,,,,,,,,0,29,29,96,1,,,,,,,,,,,,,,,,,,,,,,,,
,,,,,,,,,,,,a,Incorrect,,,,,,t2.png,t5.png,3,0.0000131,19,female,2020-07-28_15h16.21.943,torte-2b,2020.1.3,Win32,60,13247,1.845875,,,,,,,,,,,,,,,,,,,,,,,,,,,,,,,,,,,,,0,30,30,39,1,,,,,,,,,,,,,,,,,,,,,,,,
,,,,,,,,,,,,a,Incorrect,,,,,,t5.png,t3.png,2,0.0565,19,female,2020-07-28_15h16.21.943,torte-2b,2020.1.3,Win32,60,13247,0.882615,,,,,,,,,,,,,,,,,,,,,,,,,,,,,,,,,,,,,0,31,31,50,1,,,,,,,,,,,,,,,,,,,,,,,,
,,,,,,,,,,,,l,Incorrect,,,,,,t2.png,t1.png,1,0.9,19,female,2020-07-28_15h16.21.943,torte-2b,2020.1.3,Win32,60,13247,1.299095,,,,,,,,,,,,,,,,,,,,,,,,,,,,,,,,,,,,,0,32,32,100,1,,,,,,,,,,,,,,,,,,,,,,,,
,,,,,,,,,,,,l,Correct!,,,,,,t4.png,t3.png,1,0.909,19,female,2020-07-28_15h16.21.943,torte-2b,2020.1.3,Win32,60,13247,1.682045,,,,,,,,,,,,,,,,,,,,,,,,,,,,,,,,,,,,,0,33,33,107,1,,,,,,,,,,,,,,,,,,,,,,,,
,,,,,,,,,,,,a,Incorrect,,,,,,t5.png,t1.png,4,9.55E-11,19,female,2020-07-28_15h16.21.943,torte-2b,2020.1.3,Win32,60,13247,0.56486,,,,,,,,,,,,,,,,,,,,,,,,,,,,,,,,,,,,,0,34,34,15,1,,,,,,,,,,,,,,,,,,,,,,,,
,,,,,,,,,,,,l,Incorrect,,,,,,t2.png,t3.png,1,0.90855,19,female,2020-07-28_15h16.21.943,torte-2b,2020.1.3,Win32,60,13247,1.611245,,,,,,,,,,,,,,,,,,,,,,,,,,,,,,,,,,,,,0,35,35,70,1,,,,,,,,,,,,,,,,,,,,,,,,
,,,,,,,,,,,,a,Correct!,,,,,,t4.png,t3.png,1,0.90855,19,female,2020-07-28_15h16.21.943,torte-2b,2020.1.3,Win32,60,13247,1.72179,,,,,,,,,,,,,,,,,,,,,,,,,,,,,,,,,,,,,0,36,36,11,1,,,,,,,,,,,,,,,,,,,,,,,,
,,,,,,,,,,,,l,Incorrect,,,,,,t1.png,t2.png,1,0.9,19,female,2020-07-28_15h16.21.943,torte-2b,2020.1.3,Win32,60,13247,1.20322,,,,,,,,,,,,,,,,,,,,,,,,,,,,,,,,,,,,,0,37,37,17,1,,,,,,,,,,,,,,,,,,,,,,,,
,,,,,,,,,,,,l,Incorrect,,,,,,t2.png,t1.png,1,0.9,19,female,2020-07-28_15h16.21.943,torte-2b,2020.1.3,Win32,60,13247,1.735215,,,,,,,,,,,,,,,,,,,,,,,,,,,,,,,,,,,,,0,38,38,93,1,,,,,,,,,,,,,,,,,,,,,,,,
,,,,,,,,,,,,a,Incorrect,,,,,,t5.png,t2.png,3,0.0000131,19,female,2020-07-28_15h16.21.943,torte-2b,2020.1.3,Win32,60,13247,1.184935,,,,,,,,,,,,,,,,,,,,,,,,,,,,,,,,,,,,,0,39,39,82,1,,,,,,,,,,,,,,,,,,,,,,,,
,,,,,,,,,,,,a,Correct!,,,,,,t5.png,t5.png,0,0.978,19,female,2020-07-28_15h16.21.943,torte-2b,2020.1.3,Win32,60,13247,0.87547,,,,,,,,,,,,,,,,,,,,,,,,,,,,,,,,,,,,,0,40,40,116,1,,,,,,,,,,,,,,,,,,,,,,,,
,,,,,,,,,,,,l,Correct!,,,,,,t1.png,t3.png,2,0.056466,19,female,2020-07-28_15h16.21.943,torte-2b,2020.1.3,Win32,60,13247,1.31495,,,,,,,,,,,,,,,,,,,,,,,,,,,,,,,,,,,,,0,41,41,32,1,,,,,,,,,,,,,,,,,,,,,,,,
,,,,,,,,,,,,l,Correct!,,,,,,t3.png,t4.png,1,0.90855,19,female,2020-07-28_15h16.21.943,torte-2b,2020.1.3,Win32,60,13247,1.648965,,,,,,,,,,,,,,,,,,,,,,,,,,,,,,,,,,,,,0,42,42,5,1,,,,,,,,,,,,,,,,,,,,,,,,
,,,,,,,,,,,,l,Incorrect,,,,,,t2.png,t1.png,1,0.90025,19,female,2020-07-28_15h16.21.943,torte-2b,2020.1.3,Win32,60,13247,1.165095,,,,,,,,,,,,,,,,,,,,,,,,,,,,,,,,,,,,,0,43,43,65,1,,,,,,,,,,,,,,,,,,,,,,,,
,,,,,,,,,,,,a,Correct!,,,,,,t4.png,t4.png,0,0.98115,19,female,2020-07-28_15h16.21.943,torte-2b,2020.1.3,Win32,60,13247,1.166575,,,,,,,,,,,,,,,,,,,,,,,,,,,,,,,,,,,,,0,44,44,68,1,,,,,,,,,,,,,,,,,,,,,,,,
,,,,,,,,,,,,l,Correct!,,,,,,t3.png,t1.png,2,0.056466,19,female,2020-07-28_15h16.21.943,torte-2b,2020.1.3,Win32,60,13247,1.60205,,,,,,,,,,,,,,,,,,,,,,,,,,,,,,,,,,,,,0,45,45,72,1,,,,,,,,,,,,,,,,,,,,,,,,
,,,,,,,,,,,,l,Incorrect,,,,,,t2.png,t1.png,1,0.90025,19,female,2020-07-28_15h16.21.943,torte-2b,2020.1.3,Win32,60,13247,1.10137,,,,,,,,,,,,,,,,,,,,,,,,,,,,,,,,,,,,,0,46,46,44,1,,,,,,,,,,,,,,,,,,,,,,,,
,,,,,,,,,,,,a,Correct!,,,,,,t4.png,t3.png,1,0.90855,19,female,2020-07-28_15h16.21.943,torte-2b,2020.1.3,Win32,60,13247,1.302435,,,,,,,,,,,,,,,,,,,,,,,,,,,,,,,,,,,,,0,47,47,29,1,,,,,,,,,,,,,,,,,,,,,,,,
,,,,,,,,,,,,l,Correct!,,,,,,t1.png,t5.png,4,9.55E-11,19,female,2020-07-28_15h16.21.943,torte-2b,2020.1.3,Win32,60,13247,1.813715,,,,,,,,,,,,,,,,,,,,,,,,,,,,,,,,,,,,,0,48,48,20,1,,,,,,,,,,,,,,,,,,,,,,,,
,,,,,,,,,,,,l,Correct!,,,,,,t5.png,t1.png,4,9.55E-11,19,female,2020-07-28_15h16.21.943,torte-2b,2020.1.3,Win32,60,13247,1.66404,,,,,,,,,,,,,,,,,,,,,,,,,,,,,,,,,,,,,0,49,49,101,1,,,,,,,,,,,,,,,,,,,,,,,,
,,,,,,,,,,,,a,Correct!,,,,,,t4.png,t4.png,0,0.98115,19,female,2020-07-28_15h16.21.943,torte-2b,2020.1.3,Win32,60,13247,1.15837,,,,,,,,,,,,,,,,,,,,,,,,,,,,,,,,,,,,,0,50,50,19,1,,,,,,,,,,,,,,,,,,,,,,,,
,,,,,,,,,,,,l,Correct!,,,,,,t1.png,t3.png,2,0.0565,19,female,2020-07-28_15h16.21.943,torte-2b,2020.1.3,Win32,60,13247,2.04618,,,,,,,,,,,,,,,,,,,,,,,,,,,,,,,,,,,,,0,51,51,42,1,,,,,,,,,,,,,,,,,,,,,,,,
,,,,,,,,,,,,a,Correct!,,,,,,t5.png,t5.png,0,0.97829,19,female,2020-07-28_15h16.21.943,torte-2b,2020.1.3,Win32,60,13247,0.908965,,,,,,,,,,,,,,,,,,,,,,,,,,,,,,,,,,,,,0,52,52,77,1,,,,,,,,,,,,,,,,,,,,,,,,
,,,,,,,,,,,,l,Correct!,,,,,,t1.png,t5.png,4,9.55E-11,19,female,2020-07-28_15h16.21.943,torte-2b,2020.1.3,Win32,60,13247,1.280755,,,,,,,,,,,,,,,,,,,,,,,,,,,,,,,,,,,,,0,53,53,3,1,,,,,,,,,,,,,,,,,,,,,,,,
,,,,,,,,,,,,l,Correct!,,,,,,t2.png,t4.png,2,0.059078,19,female,2020-07-28_15h16.21.943,torte-2b,2020.1.3,Win32,60,13247,1.683435,,,,,,,,,,,,,,,,,,,,,,,,,,,,,,,,,,,,,0,54,54,53,1,,,,,,,,,,,,,,,,,,,,,,,,
,,,,,,,,,,,,a,Incorrect,,,,,,t5.png,t4.png,1,0.90025,19,female,2020-07-28_15h16.21.943,torte-2b,2020.1.3,Win32,60,13247,1.34856,,,,,,,,,,,,,,,,,,,,,,,,,,,,,,,,,,,,,0,55,55,25,1,,,,,,,,,,,,,,,,,,,,,,,,
,,,,,,,,,,,,a,Correct!,,,,,,t5.png,t5.png,0,0.97829,19,female,2020-07-28_15h16.21.943,torte-2b,2020.1.3,Win32,60,13247,0.58095,,,,,,,,,,,,,,,,,,,,,,,,,,,,,,,,,,,,,0,56,56,35,1,,,,,,,,,,,,,,,,,,,,,,,,
,,,,,,,,,,,,l,Correct!,,,,,,t1.png,t4.png,3,0.0000131,19,female,2020-07-28_15h16.21.943,torte-2b,2020.1.3,Win32,60,13247,1.286885,,,,,,,,,,,,,,,,,,,,,,,,,,,,,,,,,,,,,0,57,57,23,1,,,,,,,,,,,,,,,,,,,,,,,,
,,,,,,,,,,,,a,Incorrect,,,,,,t3.png,t5.png,2,0.056466,19,female,2020-07-28_15h16.21.943,torte-2b,2020.1.3,Win32,60,13247,1.21687,,,,,,,,,,,,,,,,,,,,,,,,,,,,,,,,,,,,,0,58,58,47,1,,,,,,,,,,,,,,,,,,,,,,,,
,,,,,,,,,,,,a,Correct!,,,,,,t2.png,t2.png,0,0.98115,19,female,2020-07-28_15h16.21.943,torte-2b,2020.1.3,Win32,60,13247,1.069505,,,,,,,,,,,,,,,,,,,,,,,,,,,,,,,,,,,,,0,59,59,90,1,,,,,,,,,,,,,,,,,,,,,,,,
,,,,,,,,,,,,a,Correct!,,,,,,t2.png,t3.png,1,0.90855,19,female,2020-07-28_15h16.21.943,torte-2b,2020.1.3,Win32,60,13247,0.45756,,,,,,,,,,,,,,,,,,,,,,,,,,,,,,,,,,,,,0,60,60,113,1,,,,,,,,,,,,,,,,,,,,,,,,
,,,,,,,,,,,,l,Correct!,,,,,,t1.png,t3.png,2,0.056466,19,female,2020-07-28_15h16.21.943,torte-2b,2020.1.3,Win32,60,13247,0.953015,,,,,,,,,,,,,,,,,,,,,,,,,,,,,,,,,,,,,0,61,61,24,1,,,,,,,,,,,,,,,,,,,,,,,,
,,,,,,,,,,,,a,Correct!,,,,,,t1.png,t1.png,0,0.978,19,female,2020-07-28_15h16.21.943,torte-2b,2020.1.3,Win32,60,13247,0.64923,,,,,,,,,,,,,,,,,,,,,,,,,,,,,,,,,,,,,0,62,62,22,1,,,,,,,,,,,,,,,,,,,,,,,,
,,,,,,,,,,,,a,Incorrect,,,,,,t4.png,t1.png,3,0.059078,19,female,2020-07-28_15h16.21.943,torte-2b,2020.1.3,Win32,60,13247,1.448305,,,,,,,,,,,,,,,,,,,,,,,,,,,,,,,,,,,,,0,63,63,75,1,,,,,,,,,,,,,,,,,,,,,,,,
,,,,,,,,,,,,l,Correct!,,,,,,t1.png,t3.png,2,0.0565,19,female,2020-07-28_15h16.21.943,torte-2b,2020.1.3,Win32,60,13247,1.51572,,,,,,,,,,,,,,,,,,,,,,,,,,,,,,,,,,,,,0,64,64,12,1,,,,,,,,,,,,,,,,,,,,,,,,
,,,,,,,,,,,,a,Correct!,,,,,,t5.png,t5.png,0,0.978,19,female,2020-07-28_15h16.21.943,torte-2b,2020.1.3,Win32,60,13247,0.58182,,,,,,,,,,,,,,,,,,,,,,,,,,,,,,,,,,,,,0,65,65,51,1,,,,,,,,,,,,,,,,,,,,,,,,
,,,,,,,,,,,,l,Correct!,,,,,,t4.png,t1.png,3,0.0000131,19,female,2020-07-28_15h16.21.943,torte-2b,2020.1.3,Win32,60,13247,1.754145,,,,,,,,,,,,,,,,,,,,,,,,,,,,,,,,,,,,,0,66,66,91,1,,,,,,,,,,,,,,,,,,,,,,,,
,,,,,,,,,,,,l,Correct!,,,,,,t5.png,t1.png,4,9.55E-11,19,female,2020-07-28_15h16.21.943,torte-2b,2020.1.3,Win32,60,13247,1.583165,,,,,,,,,,,,,,,,,,,,,,,,,,,,,,,,,,,,,0,67,67,89,1,,,,,,,,,,,,,,,,,,,,,,,,
,,,,,,,,,,,,a,Correct!,,,,,,t2.png,t2.png,0,0.98115,19,female,2020-07-28_15h16.21.943,torte-2b,2020.1.3,Win32,60,13247,0.923075,,,,,,,,,,,,,,,,,,,,,,,,,,,,,,,,,,,,,0,68,68,7,1,,,,,,,,,,,,,,,,,,,,,,,,
,,,,,,,,,,,,l,Incorrect,,,,,,t2.png,t3.png,1,0.90855,19,female,2020-07-28_15h16.21.943,torte-2b,2020.1.3,Win32,60,13247,1.28495,,,,,,,,,,,,,,,,,,,,,,,,,,,,,,,,,,,,,0,69,69,79,1,,,,,,,,,,,,,,,,,,,,,,,,
,,,,,,,,,,,,l,Incorrect,,,,,,t3.png,t2.png,1,0.90855,19,female,2020-07-28_15h16.21.943,torte-2b,2020.1.3,Win32,60,13247,1.363335,,,,,,,,,,,,,,,,,,,,,,,,,,,,,,,,,,,,,0,70,70,108,1,,,,,,,,,,,,,,,,,,,,,,,,
,,,,,,,,,,,,a,Correct!,,,,,,t4.png,t5.png,1,0.9,19,female,2020-07-28_15h16.21.943,torte-2b,2020.1.3,Win32,60,13247,1.609335,,,,,,,,,,,,,,,,,,,,,,,,,,,,,,,,,,,,,0,71,71,81,1,,,,,,,,,,,,,,,,,,,,,,,,
,,,,,,,,,,,,l,Correct!,,,,,,t4.png,t1.png,3,0.0000131,19,female,2020-07-28_15h16.21.943,torte-2b,2020.1.3,Win32,60,13247,1.07303,,,,,,,,,,,,,,,,,,,,,,,,,,,,,,,,,,,,,0,72,72,76,1,,,,,,,,,,,,,,,,,,,,,,,,
,,,,,,,,,,,,l,Correct!,,,,,,t3.png,t1.png,2,0.0565,19,female,2020-07-28_15h16.21.943,torte-2b,2020.1.3,Win32,60,13247,1.765865,,,,,,,,,,,,,,,,,,,,,,,,,,,,,,,,,,,,,0,73,73,40,1,,,,,,,,,,,,,,,,,,,,,,,,
,,,,,,,,,,,,l,Incorrect,,,,,,t3.png,t2.png,1,0.90855,19,female,2020-07-28_15h16.21.943,torte-2b,2020.1.3,Win32,60,13247,0.972235,,,,,,,,,,,,,,,,,,,,,,,,,,,,,,,,,,,,,0,74,74,99,1,,,,,,,,,,,,,,,,,,,,,,,,
,,,,,,,,,,,,l,Incorrect,,,,,,t2.png,t3.png,1,0.909,19,female,2020-07-28_15h16.21.943,torte-2b,2020.1.3,Win32,60,13247,1.26556,,,,,,,,,,,,,,,,,,,,,,,,,,,,,,,,,,,,,0,75,75,8,1,,,,,,,,,,,,,,,,,,,,,,,,
,,,,,,,,,,,,l,Correct!,,,,,,t1.png,t4.png,3,0.0000131,19,female,2020-07-28_15h16.21.943,torte-2b,2020.1.3,Win32,60,13247,1.081975,,,,,,,,,,,,,,,,,,,,,,,,,,,,,,,,,,,,,0,76,76,16,1,,,,,,,,,,,,,,,,,,,,,,,,
,,,,,,,,,,,,a,Correct!,,,,,,t5.png,t4.png,1,0.90025,19,female,2020-07-28_15h16.21.943,torte-2b,2020.1.3,Win32,60,13247,1.398335,,,,,,,,,,,,,,,,,,,,,,,,,,,,,,,,,,,,,0,77,77,38,1,,,,,,,,,,,,,,,,,,,,,,,,
,,,,,,,,,,,,l,Correct!,,,,,,t4.png,t1.png,3,0.0000131,19,female,2020-07-28_15h16.21.943,torte-2b,2020.1.3,Win32,60,13247,1.018725,,,,,,,,,,,,,,,,,,,,,,,,,,,,,,,,,,,,,0,78,78,28,1,,,,,,,,,,,,,,,,,,,,,,,,
,,,,,,,,,,,,l,Correct!,,,,,,t5.png,t3.png,2,0.056466,19,female,2020-07-28_15h16.21.943,torte-2b,2020.1.3,Win32,60,13247,1.66607,,,,,,,,,,,,,,,,,,,,,,,,,,,,,,,,,,,,,0,79,79,26,1,,,,,,,,,,,,,,,,,,,,,,,,
,,,,,,,,,,,,l,Correct!,,,,,,t4.png,t1.png,3,0.059078,19,female,2020-07-28_15h16.21.943,torte-2b,2020.1.3,Win32,60,13247,1.05565,,,,,,,,,,,,,,,,,,,,,,,,,,,,,,,,,,,,,0,80,80,73,1,,,,,,,,,,,,,,,,,,,,,,,,
,,,,,,,,,,,,l,Correct!,,,,,,t1.png,t4.png,3,0.0000131,19,female,2020-07-28_15h16.21.943,torte-2b,2020.1.3,Win32,60,13247,1.04853,,,,,,,,,,,,,,,,,,,,,,,,,,,,,,,,,,,,,0,81,81,36,1,,,,,,,,,,,,,,,,,,,,,,,,
,,,,,,,,,,,,l,Correct!,,,,,,t1.png,t2.png,1,0.9,19,female,2020-07-28_15h16.21.943,torte-2b,2020.1.3,Win32,60,13247,0.766425,,,,,,,,,,,,,,,,,,,,,,,,,,,,,,,,,,,,,0,82,82,61,1,,,,,,,,,,,,,,,,,,,,,,,,
,,,,,,,,,,,,l,Correct!,,,,,,t4.png,t1.png,3,0.059078,19,female,2020-07-28_15h16.21.943,torte-2b,2020.1.3,Win32,60,13247,1.58195,,,,,,,,,,,,,,,,,,,,,,,,,,,,,,,,,,,,,0,83,83,87,1,,,,,,,,,,,,,,,,,,,,,,,,
,,,,,,,,,,,,a,Correct!,,,,,,t5.png,t4.png,1,0.90025,19,female,2020-07-28_15h16.21.943,torte-2b,2020.1.3,Win32,60,13247,0.950755,,,,,,,,,,,,,,,,,,,,,,,,,,,,,,,,,,,,,0,84,84,14,1,,,,,,,,,,,,,,,,,,,,,,,,
,,,,,,,,,,,,l,Correct!,,,,,,t1.png,t4.png,3,0.0000131,19,female,2020-07-28_15h16.21.943,torte-2b,2020.1.3,Win32,60,13247,0.98143,,,,,,,,,,,,,,,,,,,,,,,,,,,,,,,,,,,,,0,85,85,106,1,,,,,,,,,,,,,,,,,,,,,,,,
,,,,,,,,,,,,a,Correct!,,,,,,t4.png,t4.png,0,0.98115,19,female,2020-07-28_15h16.21.943,torte-2b,2020.1.3,Win32,60,13247,0.84033,,,,,,,,,,,,,,,,,,,,,,,,,,,,,,,,,,,,,0,86,86,88,1,,,,,,,,,,,,,,,,,,,,,,,,
,,,,,,,,,,,,l,Incorrect,,,,,,t3.png,t4.png,1,0.90855,19,female,2020-07-28_15h16.21.943,torte-2b,2020.1.3,Win32,60,13247,0.9678,,,,,,,,,,,,,,,,,,,,,,,,,,,,,,,,,,,,,0,87,87,9,1,,,,,,,,,,,,,,,,,,,,,,,,
,,,,,,,,,,,,a,Correct!,,,,,,t3.png,t4.png,1,0.90855,19,female,2020-07-28_15h16.21.943,torte-2b,2020.1.3,Win32,60,13247,0.959155,,,,,,,,,,,,,,,,,,,,,,,,,,,,,,,,,,,,,0,88,88,58,1,,,,,,,,,,,,,,,,,,,,,,,,
,,,,,,,,,,,,a,Correct!,,,,,,t1.png,t1.png,0,0.97829,19,female,2020-07-28_15h16.21.943,torte-2b,2020.1.3,Win32,60,13247,0.69901,,,,,,,,,,,,,,,,,,,,,,,,,,,,,,,,,,,,,0,89,89,4,1,,,,,,,,,,,,,,,,,,,,,,,,
,,,,,,,,,,,,a,Incorrect,,,,,,t2.png,t5.png,3,0.0000131,19,female,2020-07-28_15h16.21.943,torte-2b,2020.1.3,Win32,60,13247,0.772515,,,,,,,,,,,,,,,,,,,,,,,,,,,,,,,,,,,,,0,90,90,85,1,,,,,,,,,,,,,,,,,,,,,,,,
,,,,,,,,,,,,a,Incorrect,,,,,,t5.png,t3.png,2,0.056466,19,female,2020-07-28_15h16.21.943,torte-2b,2020.1.3,Win32,60,13247,0.83589,,,,,,,,,,,,,,,,,,,,,,,,,,,,,,,,,,,,,0,91,91,80,1,,,,,,,,,,,,,,,,,,,,,,,,
,,,,,,,,,,,,a,Incorrect,,,,,,t3.png,t5.png,2,0.056466,19,female,2020-07-28_15h16.21.943,torte-2b,2020.1.3,Win32,60,13247,1.398615,,,,,,,,,,,,,,,,,,,,,,,,,,,,,,,,,,,,,0,92,92,45,1,,,,,,,,,,,,,,,,,,,,,,,,
,,,,,,,,,,,,a,Correct!,,,,,,t5.png,t4.png,1,0.9,19,female,2020-07-28_15h16.21.943,torte-2b,2020.1.3,Win32,60,13247,1.367575,,,,,,,,,,,,,,,,,,,,,,,,,,,,,,,,,,,,,0,93,93,55,1,,,,,,,,,,,,,,,,,,,,,,,,
,,,,,,,,,,,,a,Incorrect,,,,,,t2.png,t5.png,3,0.0000131,19,female,2020-07-28_15h16.21.943,torte-2b,2020.1.3,Win32,60,13247,1.729605,,,,,,,,,,,,,,,,,,,,,,,,,,,,,,,,,,,,,0,94,94,115,1,,,,,,,,,,,,,,,,,,,,,,,,
,,,,,,,,,,,,l,Incorrect,,,,,,t1.png,t3.png,2,0.0565,19,female,2020-07-28_15h16.21.943,torte-2b,2020.1.3,Win32,60,13247,1.73121,,,,,,,,,,,,,,,,,,,,,,,,,,,,,,,,,,,,,0,95,95,95,1,,,,,,,,,,,,,,,,,,,,,,,,
,,,,,,,,,,,,a,Correct!,,,,,,t1.png,t1.png,0,0.97829,19,female,2020-07-28_15h16.21.943,torte-2b,2020.1.3,Win32,60,13247,0.749335,,,,,,,,,,,,,,,,,,,,,,,,,,,,,,,,,,,,,0,96,96,114,1,,,,,,,,,,,,,,,,,,,,,,,,
,,,,,,,,,,,,a,Correct!,,,,,,t4.png,t5.png,1,0.90025,19,female,2020-07-28_15h16.21.943,torte-2b,2020.1.3,Win32,60,13247,1.08749,,,,,,,,,,,,,,,,,,,,,,,,,,,,,,,,,,,,,0,97,97,86,1,,,,,,,,,,,,,,,,,,,,,,,,
,,,,,,,,,,,,a,Correct!,,,,,,t3.png,t4.png,1,0.90855,19,female,2020-07-28_15h16.21.943,torte-2b,2020.1.3,Win32,60,13247,1.483785,,,,,,,,,,,,,,,,,,,,,,,,,,,,,,,,,,,,,0,98,98,103,1,,,,,,,,,,,,,,,,,,,,,,,,
,,,,,,,,,,,,a,Incorrect,,,,,,t3.png,t5.png,2,0.0565,19,female,2020-07-28_15h16.21.943,torte-2b,2020.1.3,Win32,60,13247,1.282285,,,,,,,,,,,,,,,,,,,,,,,,,,,,,,,,,,,,,0,99,99,71,1,,,,,,,,,,,,,,,,,,,,,,,,
,,,,,,,,,,,,a,Incorrect,,,,,,t3.png,t5.png,2,0.056466,19,female,2020-07-28_15h16.21.943,torte-2b,2020.1.3,Win32,60,13247,0.86476,,,,,,,,,,,,,,,,,,,,,,,,,,,,,,,,,,,,,0,100,100,60,1,,,,,,,,,,,,,,,,,,,,,,,,
,,,,,,,,,,,,l,Correct!,,,,,,t1.png,t2.png,1,0.90025,19,female,2020-07-28_15h16.21.943,torte-2b,2020.1.3,Win32,60,13247,1.34248,,,,,,,,,,,,,,,,,,,,,,,,,,,,,,,,,,,,,0,101,101,6,1,,,,,,,,,,,,,,,,,,,,,,,,
,,,,,,,,,,,,a,Incorrect,,,,,,t3.png,t5.png,2,0.056466,19,female,2020-07-28_15h16.21.943,torte-2b,2020.1.3,Win32,60,13247,1.0836,,,,,,,,,,,,,,,,,,,,,,,,,,,,,,,,,,,,,0,102,102,78,1,,,,,,,,,,,,,,,,,,,,,,,,
,,,,,,,,,,,,a,Correct!,,,,,,t4.png,t4.png,0,0.98115,19,female,2020-07-28_15h16.21.943,torte-2b,2020.1.3,Win32,60,13247,1.08517,,,,,,,,,,,,,,,,,,,,,,,,,,,,,,,,,,,,,0,103,103,52,1,,,,,,,,,,,,,,,,,,,,,,,,
,,,,,,,,,,,,a,Correct!,,,,,,t2.png,t2.png,0,0.98115,19,female,2020-07-28_15h16.21.943,torte-2b,2020.1.3,Win32,60,13247,1.05455,,,,,,,,,,,,,,,,,,,,,,,,,,,,,,,,,,,,,0,104,104,112,1,,,,,,,,,,,,,,,,,,,,,,,,
,,,,,,,,,,,,l,Correct!,,,,,,t2.png,t4.png,2,0.059078,19,female,2020-07-28_15h16.21.943,torte-2b,2020.1.3,Win32,60,13247,1.431925,,,,,,,,,,,,,,,,,,,,,,,,,,,,,,,,,,,,,0,105,105,18,1,,,,,,,,,,,,,,,,,,,,,,,,
,,,,,,,,,,,,a,Incorrect,,,,,,t2.png,t5.png,3,0.0000131,19,female,2020-07-28_15h16.21.943,torte-2b,2020.1.3,Win32,60,13247,1.08732,,,,,,,,,,,,,,,,,,,,,,,,,,,,,,,,,,,,,0,106,106,54,1,,,,,,,,,,,,,,,,,,,,,,,,
,,,,,,,,,,,,a,Correct!,,,,,,t4.png,t4.png,0,0.98115,19,female,2020-07-28_15h16.21.943,torte-2b,2020.1.3,Win32,60,13247,1.050975,,,,,,,,,,,,,,,,,,,,,,,,,,,,,,,,,,,,,0,107,107,59,1,,,,,,,,,,,,,,,,,,,,,,,,
,,,,,,,,,,,,a,Incorrect,,,,,,t5.png,t2.png,3,0.0000131,19,female,2020-07-28_15h16.21.943,torte-2b,2020.1.3,Win32,60,13247,1.15887,,,,,,,,,,,,,,,,,,,,,,,,,,,,,,,,,,,,,0,108,108,43,1,,,,,,,,,,,,,,,,,,,,,,,,
,,,,,,,,,,,,l,Correct!,,,,,,t4.png,t1.png,3,0.0000131,19,female,2020-07-28_15h16.21.943,torte-2b,2020.1.3,Win32,60,13247,1.30698,,,,,,,,,,,,,,,,,,,,,,,,,,,,,,,,,,,,,0,109,109,49,1,,,,,,,,,,,,,,,,,,,,,,,,
,,,,,,,,,,,,l,Incorrect,,,,,,t3.png,t4.png,1,0.90855,19,female,2020-07-28_15h16.21.943,torte-2b,2020.1.3,Win32,60,13247,1.74252,,,,,,,,,,,,,,,,,,,,,,,,,,,,,,,,,,,,,0,110,110,111,1,,,,,,,,,,,,,,,,,,,,,,,,
,,,,,,,,,,,,a,Correct!,,,,,,t1.png,t1.png,0,0.97829,19,female,2020-07-28_15h16.21.943,torte-2b,2020.1.3,Win32,60,13247,0.605395,,,,,,,,,,,,,,,,,,,,,,,,,,,,,,,,,,,,,0,111,111,110,1,,,,,,,,,,,,,,,,,,,,,,,,
,,,,,,,,,,,,l,Correct!,,,,,,t2.png,t4.png,2,0.059078,19,female,2020-07-28_15h16.21.943,torte-2b,2020.1.3,Win32,60,13247,2.17462,,,,,,,,,,,,,,,,,,,,,,,,,,,,,,,,,,,,,0,112,112,67,1,,,,,,,,,,,,,,,,,,,,,,,,
,,,,,,,,,,,,l,Correct!,,,,,,t5.png,t1.png,4,9.55E-11,19,female,2020-07-28_15h16.21.943,torte-2b,2020.1.3,Win32,60,13247,1.61426,,,,,,,,,,,,,,,,,,,,,,,,,,,,,,,,,,,,,0,113,113,31,1,,,,,,,,,,,,,,,,,,,,,,,,
,,,,,,,,,,,,a,Correct!,,,,,,t2.png,t2.png,0,0.98115,19,female,2020-07-28_15h16.21.943,torte-2b,2020.1.3,Win32,60,13247,0.857325,,,,,,,,,,,,,,,,,,,,,,,,,,,,,,,,,,,,,0,114,114,69,1,,,,,,,,,,,,,,,,,,,,,,,,
,,,,,,,,,,,,a,Correct!,,,,,,t5.png,t4.png,1,0.9,19,female,2020-07-28_15h16.21.943,torte-2b,2020.1.3,Win32,60,13247,1.627995,,,,,,,,,,,,,,,,,,,,,,,,,,,,,,,,,,,,,0,115,115,92,1,,,,,,,,,,,,,,,,,,,,,,,,
,,,,,,,,,,,,l,Correct!,,,,,,t3.png,t1.png,2,0.056466,19,female,2020-07-28_15h16.21.943,torte-2b,2020.1.3,Win32,60,13247,1.883955,,,,,,,,,,,,,,,,,,,,,,,,,,,,,,,,,,,,,0,116,116,34,1,,,,,,,,,,,,,,,,,,,,,,,,
,,,,,,,,,,,,l,Incorrect,,,,,,t2.png,t1.png,1,0.90025,19,female,2020-07-28_15h16.21.943,torte-2b,2020.1.3,Win32,60,13247,1.899835,,,,,,,,,,,,,,,,,,,,,,,,,,,,,,,,,,,,,0,117,117,105,1,,,,,,,,,,,,,,,,,,,,,,,,
,,,,,,,,,,,,a,Correct!,,,,,,t4.png,t5.png,1,0.90025,19,female,2020-07-28_15h16.21.943,torte-2b,2020.1.3,Win32,60,13247,1.80251,,,,,,,,,,,,,,,,,,,,,,,,,,,,,,,,,,,,,0,118,118,33,1,,,,,,,,,,,,,,,,,,,,,,,,
,,,,,,,,,,,,l,Correct!,,,,,,t4.png,t1.png,3,0.059078,19,female,2020-07-28_15h16.21.943,torte-2b,2020.1.3,Win32,60,13247,0.972475,,,,,,,,,,,,,,,,,,,,,,,,,,,,,,,,,,,,,0,119,119,62,1,,,,,,,,,,,,,,,,,,,,,,,,
,,,,,,,,,,,,,,,,,,,,,,,19,female,2020-07-28_15h16.21.943,torte-2b,2020.1.3,Win32,60,13247,,space,2.03877,,,,,,,,,,,,,,,,,,,,,,,,,,,,,,,,,,,,,,,,-15.33331472,172.6666611,1,0,0,s1,60.00002086,94.66665876,1,0,0,t1,305.3333615,-109.3333473,1,0,0,proceed,space,35.52637,space,2.01405,space,0.863835
