key_resp_8.keys,key_resp_8.rt,key_resp_9.keys,key_resp_9.rt,key_resp_10.keys,key_resp_10.rt,key_resp_11.keys,key_resp_11.rt,key_resp_2.keys,key_resp_2.rt,key_resp_3.keys,key_resp_3.rt,key_resp.keys,key_resp.rt,Feedback,train.thisRepN,train.thisTrialN,train.thisN,train.thisIndex,train.ran,torta_sx,torta_dx,difference,probability,age,gender,date,expName,psychopyVersion,OS,frameRate,participant,key_resp_15.keys,key_resp_15.rt,key_resp_6.keys,key_resp_6.rt,test1.thisRepN,test1.thisTrialN,test1.thisN,test1.thisIndex,test1.ran,key_resp_4.keys,key_resp_4.rt,key_resp_5.keys,back1.thisRepN,back1.thisTrialN,back1.thisN,back1.thisIndex,back1.ran,letter,key_resp_5.rt,back2.thisRepN,back2.thisTrialN,back2.thisN,back2.thisIndex,back2.ran,back3.thisRepN,back3.thisTrialN,back3.thisN,back3.thisIndex,back3.ran,back4.thisRepN,back4.thisTrialN,back4.thisN,back4.thisIndex,back4.ran,key_resp_7.keys,key_resp_7.rt,test2.thisRepN,test2.thisTrialN,test2.thisN,test2.thisIndex,test2.ran,mouse.x,mouse.y,mouse.leftButton,mouse.midButton,mouse.rightButton,mouse.clicked_name,mouse_2.x,mouse_2.y,mouse_2.leftButton,mouse_2.midButton,mouse_2.rightButton,mouse_2.clicked_name,mouse_3.x,mouse_3.y,mouse_3.leftButton,mouse_3.midButton,mouse_3.rightButton,mouse_3.clicked_name,key_resp_12.keys,key_resp_12.rt,key_resp_13.keys,key_resp_13.rt,key_resp_14.keys,key_resp_14.rt
space,5.884,space,2.338,space,1.577,space,1.981,space,7.016,space,8.475,a,1.553,Incorrect,0,0,0,33,1,t5.png,t1.png,4,9.55E-11,19,female,2020-09-08_13h28.24.462,torte-2b,2020.1.3,MacIntel,60,13241,,,,,,,,,,,,,,,,,,,,,,,,,,,,,,,,,,,,,,,,,,,,,,,,,,,,,,,,,,,,,,,,,
,,,,,,,,,,,,,,Too slow :(,0,1,1,103,1,t3.png,t1.png,2,0.056466,19,female,2020-09-08_13h28.24.462,torte-2b,2020.1.3,MacIntel,60,13241,,,,,,,,,,,,,,,,,,,,,,,,,,,,,,,,,,,,,,,,,,,,,,,,,,,,,,,,,,,,,,,,,
,,,,,,,,,,,,l,1.002,Incorrect,0,2,2,100,1,t4.png,t5.png,1,0.90025,19,female,2020-09-08_13h28.24.462,torte-2b,2020.1.3,MacIntel,60,13241,,,,,,,,,,,,,,,,,,,,,,,,,,,,,,,,,,,,,,,,,,,,,,,,,,,,,,,,,,,,,,,,,
,,,,,,,,,,,,l,1.241,Incorrect,0,3,3,95,1,t1.png,t1.png,0,0.978,19,female,2020-09-08_13h28.24.462,torte-2b,2020.1.3,MacIntel,60,13241,,,,,,,,,,,,,,,,,,,,,,,,,,,,,,,,,,,,,,,,,,,,,,,,,,,,,,,,,,,,,,,,,
,,,,,,,,,,,,a,0.784,Incorrect,0,4,4,115,1,t2.png,t4.png,2,0.059078,19,female,2020-09-08_13h28.24.462,torte-2b,2020.1.3,MacIntel,60,13241,,,,,,,,,,,,,,,,,,,,,,,,,,,,,,,,,,,,,,,,,,,,,,,,,,,,,,,,,,,,,,,,,
,,,,,,,,,,,,l,1.199,Incorrect,0,5,5,110,1,t4.png,t5.png,1,0.90025,19,female,2020-09-08_13h28.24.462,torte-2b,2020.1.3,MacIntel,60,13241,,,,,,,,,,,,,,,,,,,,,,,,,,,,,,,,,,,,,,,,,,,,,,,,,,,,,,,,,,,,,,,,,
,,,,,,,,,,,,l,1.199,Incorrect,0,6,6,76,1,t3.png,t2.png,1,0.90855,19,female,2020-09-08_13h28.24.462,torte-2b,2020.1.3,MacIntel,60,13241,,,,,,,,,,,,,,,,,,,,,,,,,,,,,,,,,,,,,,,,,,,,,,,,,,,,,,,,,,,,,,,,,
,,,,,,,,,,,,a,1.057,Correct!,0,7,7,23,1,t5.png,t4.png,1,0.90025,19,female,2020-09-08_13h28.24.462,torte-2b,2020.1.3,MacIntel,60,13241,,,,,,,,,,,,,,,,,,,,,,,,,,,,,,,,,,,,,,,,,,,,,,,,,,,,,,,,,,,,,,,,,
,,,,,,,,,,,,,,Too slow :(,0,8,8,50,1,t5.png,t1.png,4,9.55E-11,19,female,2020-09-08_13h28.24.462,torte-2b,2020.1.3,MacIntel,60,13241,,,,,,,,,,,,,,,,,,,,,,,,,,,,,,,,,,,,,,,,,,,,,,,,,,,,,,,,,,,,,,,,,
,,,,,,,,,,,,l,0.888,Correct!,0,9,9,17,1,t1.png,t4.png,3,0.0000131,19,female,2020-09-08_13h28.24.462,torte-2b,2020.1.3,MacIntel,60,13241,,,,,,,,,,,,,,,,,,,,,,,,,,,,,,,,,,,,,,,,,,,,,,,,,,,,,,,,,,,,,,,,,
,,,,,,,,,,,,a,2.135,Correct!,0,10,10,49,1,t4.png,t5.png,1,0.9,19,female,2020-09-08_13h28.24.462,torte-2b,2020.1.3,MacIntel,60,13241,,,,,,,,,,,,,,,,,,,,,,,,,,,,,,,,,,,,,,,,,,,,,,,,,,,,,,,,,,,,,,,,,
,,,,,,,,,,,,l,1.098,Correct!,0,11,11,47,1,t4.png,t2.png,2,0.059078,19,female,2020-09-08_13h28.24.462,torte-2b,2020.1.3,MacIntel,60,13241,,,,,,,,,,,,,,,,,,,,,,,,,,,,,,,,,,,,,,,,,,,,,,,,,,,,,,,,,,,,,,,,,
,,,,,,,,,,,,a,1.672,Incorrect,0,12,12,102,1,t4.png,t2.png,2,0.059078,19,female,2020-09-08_13h28.24.462,torte-2b,2020.1.3,MacIntel,60,13241,,,,,,,,,,,,,,,,,,,,,,,,,,,,,,,,,,,,,,,,,,,,,,,,,,,,,,,,,,,,,,,,,
,,,,,,,,,,,,l,0.359,Incorrect,0,13,13,78,1,t1.png,t1.png,0,0.978,19,female,2020-09-08_13h28.24.462,torte-2b,2020.1.3,MacIntel,60,13241,,,,,,,,,,,,,,,,,,,,,,,,,,,,,,,,,,,,,,,,,,,,,,,,,,,,,,,,,,,,,,,,,
,,,,,,,,,,,,l,1.003,Incorrect,0,14,14,109,1,t5.png,t5.png,0,0.97829,19,female,2020-09-08_13h28.24.462,torte-2b,2020.1.3,MacIntel,60,13241,,,,,,,,,,,,,,,,,,,,,,,,,,,,,,,,,,,,,,,,,,,,,,,,,,,,,,,,,,,,,,,,,
,,,,,,,,,,,,,,Too slow :(,0,15,15,70,1,t5.png,t5.png,0,0.978,19,female,2020-09-08_13h28.24.462,torte-2b,2020.1.3,MacIntel,60,13241,,,,,,,,,,,,,,,,,,,,,,,,,,,,,,,,,,,,,,,,,,,,,,,,,,,,,,,,,,,,,,,,,
,,,,,,,,,,,,l,0.75,Correct!,0,16,16,117,1,t1.png,t5.png,4,9.55E-11,19,female,2020-09-08_13h28.24.462,torte-2b,2020.1.3,MacIntel,60,13241,,,,,,,,,,,,,,,,,,,,,,,,,,,,,,,,,,,,,,,,,,,,,,,,,,,,,,,,,,,,,,,,,
,,,,,,,,,,,,a,1.82,Incorrect,0,17,17,83,1,t3.png,t1.png,2,0.056466,19,female,2020-09-08_13h28.24.462,torte-2b,2020.1.3,MacIntel,60,13241,,,,,,,,,,,,,,,,,,,,,,,,,,,,,,,,,,,,,,,,,,,,,,,,,,,,,,,,,,,,,,,,,
,,,,,,,,,,,,a,2.254,Correct!,0,18,18,7,1,t4.png,t5.png,1,0.90025,19,female,2020-09-08_13h28.24.462,torte-2b,2020.1.3,MacIntel,60,13241,,,,,,,,,,,,,,,,,,,,,,,,,,,,,,,,,,,,,,,,,,,,,,,,,,,,,,,,,,,,,,,,,
,,,,,,,,,,,,a,1.1,Correct!,0,19,19,64,1,t1.png,t1.png,0,0.978,19,female,2020-09-08_13h28.24.462,torte-2b,2020.1.3,MacIntel,60,13241,,,,,,,,,,,,,,,,,,,,,,,,,,,,,,,,,,,,,,,,,,,,,,,,,,,,,,,,,,,,,,,,,
,,,,,,,,,,,,l,0.655,Incorrect,0,20,20,97,1,t5.png,t5.png,0,0.97829,19,female,2020-09-08_13h28.24.462,torte-2b,2020.1.3,MacIntel,60,13241,,,,,,,,,,,,,,,,,,,,,,,,,,,,,,,,,,,,,,,,,,,,,,,,,,,,,,,,,,,,,,,,,
,,,,,,,,,,,,a,0.822,Incorrect,0,21,21,119,1,t1.png,t5.png,4,9.55E-11,19,female,2020-09-08_13h28.24.462,torte-2b,2020.1.3,MacIntel,60,13241,,,,,,,,,,,,,,,,,,,,,,,,,,,,,,,,,,,,,,,,,,,,,,,,,,,,,,,,,,,,,,,,,
,,,,,,,,,,,,l,0.433,Correct!,0,22,22,56,1,t5.png,t1.png,4,9.55E-11,19,female,2020-09-08_13h28.24.462,torte-2b,2020.1.3,MacIntel,60,13241,,,,,,,,,,,,,,,,,,,,,,,,,,,,,,,,,,,,,,,,,,,,,,,,,,,,,,,,,,,,,,,,,
,,,,,,,,,,,,l,0.688,Correct!,0,23,23,99,1,t1.png,t5.png,4,9.55E-11,19,female,2020-09-08_13h28.24.462,torte-2b,2020.1.3,MacIntel,60,13241,,,,,,,,,,,,,,,,,,,,,,,,,,,,,,,,,,,,,,,,,,,,,,,,,,,,,,,,,,,,,,,,,
,,,,,,,,,,,,a,0.75,Correct!,0,24,24,71,1,t5.png,t5.png,0,0.97829,19,female,2020-09-08_13h28.24.462,torte-2b,2020.1.3,MacIntel,60,13241,,,,,,,,,,,,,,,,,,,,,,,,,,,,,,,,,,,,,,,,,,,,,,,,,,,,,,,,,,,,,,,,,
,,,,,,,,,,,,l,0.499,Incorrect,0,25,25,13,1,t5.png,t5.png,0,0.97829,19,female,2020-09-08_13h28.24.462,torte-2b,2020.1.3,MacIntel,60,13241,,,,,,,,,,,,,,,,,,,,,,,,,,,,,,,,,,,,,,,,,,,,,,,,,,,,,,,,,,,,,,,,,
,,,,,,,,,,,,a,0.801,Incorrect,0,26,26,88,1,t3.png,t1.png,2,0.056466,19,female,2020-09-08_13h28.24.462,torte-2b,2020.1.3,MacIntel,60,13241,,,,,,,,,,,,,,,,,,,,,,,,,,,,,,,,,,,,,,,,,,,,,,,,,,,,,,,,,,,,,,,,,
,,,,,,,,,,,,l,0.867,Incorrect,0,27,27,106,1,t2.png,t3.png,1,0.90855,19,female,2020-09-08_13h28.24.462,torte-2b,2020.1.3,MacIntel,60,13241,,,,,,,,,,,,,,,,,,,,,,,,,,,,,,,,,,,,,,,,,,,,,,,,,,,,,,,,,,,,,,,,,
,,,,,,,,,,,,l,0.634,Correct!,0,28,28,14,1,t2.png,t4.png,2,0.059078,19,female,2020-09-08_13h28.24.462,torte-2b,2020.1.3,MacIntel,60,13241,,,,,,,,,,,,,,,,,,,,,,,,,,,,,,,,,,,,,,,,,,,,,,,,,,,,,,,,,,,,,,,,,
,,,,,,,,,,,,l,0.567,Correct!,0,29,29,80,1,t1.png,t4.png,3,0.0000131,19,female,2020-09-08_13h28.24.462,torte-2b,2020.1.3,MacIntel,60,13241,,,,,,,,,,,,,,,,,,,,,,,,,,,,,,,,,,,,,,,,,,,,,,,,,,,,,,,,,,,,,,,,,
,,,,,,,,,,,,l,1.123,Incorrect,0,30,30,9,1,t4.png,t5.png,1,0.9,19,female,2020-09-08_13h28.24.462,torte-2b,2020.1.3,MacIntel,60,13241,,,,,,,,,,,,,,,,,,,,,,,,,,,,,,,,,,,,,,,,,,,,,,,,,,,,,,,,,,,,,,,,,
,,,,,,,,,,,,l,0.666,Correct!,0,31,31,68,1,t1.png,t4.png,3,0.0000131,19,female,2020-09-08_13h28.24.462,torte-2b,2020.1.3,MacIntel,60,13241,,,,,,,,,,,,,,,,,,,,,,,,,,,,,,,,,,,,,,,,,,,,,,,,,,,,,,,,,,,,,,,,,
,,,,,,,,,,,,a,0.967,Correct!,0,32,32,96,1,t1.png,t1.png,0,0.97829,19,female,2020-09-08_13h28.24.462,torte-2b,2020.1.3,MacIntel,60,13241,,,,,,,,,,,,,,,,,,,,,,,,,,,,,,,,,,,,,,,,,,,,,,,,,,,,,,,,,,,,,,,,,
,,,,,,,,,,,,a,0.784,Correct!,0,33,33,107,1,t1.png,t1.png,0,0.978,19,female,2020-09-08_13h28.24.462,torte-2b,2020.1.3,MacIntel,60,13241,,,,,,,,,,,,,,,,,,,,,,,,,,,,,,,,,,,,,,,,,,,,,,,,,,,,,,,,,,,,,,,,,
,,,,,,,,,,,,a,0.582,Incorrect,0,34,34,24,1,t4.png,t2.png,2,0.059078,19,female,2020-09-08_13h28.24.462,torte-2b,2020.1.3,MacIntel,60,13241,,,,,,,,,,,,,,,,,,,,,,,,,,,,,,,,,,,,,,,,,,,,,,,,,,,,,,,,,,,,,,,,,
,,,,,,,,,,,,a,1.149,Correct!,0,35,35,59,1,t5.png,t4.png,1,0.9,19,female,2020-09-08_13h28.24.462,torte-2b,2020.1.3,MacIntel,60,13241,,,,,,,,,,,,,,,,,,,,,,,,,,,,,,,,,,,,,,,,,,,,,,,,,,,,,,,,,,,,,,,,,
,,,,,,,,,,,,a,0.505,Correct!,0,36,36,41,1,t3.png,t2.png,1,0.90855,19,female,2020-09-08_13h28.24.462,torte-2b,2020.1.3,MacIntel,60,13241,,,,,,,,,,,,,,,,,,,,,,,,,,,,,,,,,,,,,,,,,,,,,,,,,,,,,,,,,,,,,,,,,
,,,,,,,,,,,,a,1.232,Correct!,0,37,37,62,1,t5.png,t5.png,0,0.978,19,female,2020-09-08_13h28.24.462,torte-2b,2020.1.3,MacIntel,60,13241,,,,,,,,,,,,,,,,,,,,,,,,,,,,,,,,,,,,,,,,,,,,,,,,,,,,,,,,,,,,,,,,,
,,,,,,,,,,,,l,0.619,Correct!,0,38,38,37,1,t1.png,t4.png,3,0.0000131,19,female,2020-09-08_13h28.24.462,torte-2b,2020.1.3,MacIntel,60,13241,,,,,,,,,,,,,,,,,,,,,,,,,,,,,,,,,,,,,,,,,,,,,,,,,,,,,,,,,,,,,,,,,
,,,,,,,,,,,,l,1.167,Incorrect,0,39,39,66,1,t4.png,t5.png,1,0.9,19,female,2020-09-08_13h28.24.462,torte-2b,2020.1.3,MacIntel,60,13241,,,,,,,,,,,,,,,,,,,,,,,,,,,,,,,,,,,,,,,,,,,,,,,,,,,,,,,,,,,,,,,,,
,,,,,,,,,,,,a,0.667,Correct!,0,40,40,48,1,t5.png,t5.png,0,0.97829,19,female,2020-09-08_13h28.24.462,torte-2b,2020.1.3,MacIntel,60,13241,,,,,,,,,,,,,,,,,,,,,,,,,,,,,,,,,,,,,,,,,,,,,,,,,,,,,,,,,,,,,,,,,
,,,,,,,,,,,,l,0.868,Incorrect,0,41,41,18,1,t4.png,t5.png,1,0.90025,19,female,2020-09-08_13h28.24.462,torte-2b,2020.1.3,MacIntel,60,13241,,,,,,,,,,,,,,,,,,,,,,,,,,,,,,,,,,,,,,,,,,,,,,,,,,,,,,,,,,,,,,,,,
,,,,,,,,,,,,a,0.717,Correct!,0,42,42,29,1,t5.png,t5.png,0,0.97829,19,female,2020-09-08_13h28.24.462,torte-2b,2020.1.3,MacIntel,60,13241,,,,,,,,,,,,,,,,,,,,,,,,,,,,,,,,,,,,,,,,,,,,,,,,,,,,,,,,,,,,,,,,,
,,,,,,,,,,,,a,0.683,Correct!,0,43,43,25,1,t5.png,t5.png,0,0.97829,19,female,2020-09-08_13h28.24.462,torte-2b,2020.1.3,MacIntel,60,13241,,,,,,,,,,,,,,,,,,,,,,,,,,,,,,,,,,,,,,,,,,,,,,,,,,,,,,,,,,,,,,,,,
,,,,,,,,,,,,a,1.19,Correct!,0,44,44,113,1,t5.png,t4.png,1,0.9,19,female,2020-09-08_13h28.24.462,torte-2b,2020.1.3,MacIntel,60,13241,,,,,,,,,,,,,,,,,,,,,,,,,,,,,,,,,,,,,,,,,,,,,,,,,,,,,,,,,,,,,,,,,
,,,,,,,,,,,,a,0.599,Incorrect,0,45,45,69,1,t4.png,t2.png,2,0.059078,19,female,2020-09-08_13h28.24.462,torte-2b,2020.1.3,MacIntel,60,13241,,,,,,,,,,,,,,,,,,,,,,,,,,,,,,,,,,,,,,,,,,,,,,,,,,,,,,,,,,,,,,,,,
,,,,,,,,,,,,a,0.684,Correct!,0,46,46,2,1,t3.png,t2.png,1,0.90855,19,female,2020-09-08_13h28.24.462,torte-2b,2020.1.3,MacIntel,60,13241,,,,,,,,,,,,,,,,,,,,,,,,,,,,,,,,,,,,,,,,,,,,,,,,,,,,,,,,,,,,,,,,,
,,,,,,,,,,,,a,0.541,Incorrect,0,47,47,108,1,t5.png,t1.png,4,9.55E-11,19,female,2020-09-08_13h28.24.462,torte-2b,2020.1.3,MacIntel,60,13241,,,,,,,,,,,,,,,,,,,,,,,,,,,,,,,,,,,,,,,,,,,,,,,,,,,,,,,,,,,,,,,,,
,,,,,,,,,,,,l,0.681,Incorrect,0,48,48,118,1,t5.png,t5.png,0,0.978,19,female,2020-09-08_13h28.24.462,torte-2b,2020.1.3,MacIntel,60,13241,,,,,,,,,,,,,,,,,,,,,,,,,,,,,,,,,,,,,,,,,,,,,,,,,,,,,,,,,,,,,,,,,
,,,,,,,,,,,,a,0.466,Correct!,0,49,49,58,1,t5.png,t4.png,1,0.90025,19,female,2020-09-08_13h28.24.462,torte-2b,2020.1.3,MacIntel,60,13241,,,,,,,,,,,,,,,,,,,,,,,,,,,,,,,,,,,,,,,,,,,,,,,,,,,,,,,,,,,,,,,,,
,,,,,,,,,,,,l,0.616,Incorrect,0,50,50,28,1,t2.png,t3.png,1,0.909,19,female,2020-09-08_13h28.24.462,torte-2b,2020.1.3,MacIntel,60,13241,,,,,,,,,,,,,,,,,,,,,,,,,,,,,,,,,,,,,,,,,,,,,,,,,,,,,,,,,,,,,,,,,
,,,,,,,,,,,,a,0.449,Correct!,0,51,51,16,1,t5.png,t4.png,1,0.9,19,female,2020-09-08_13h28.24.462,torte-2b,2020.1.3,MacIntel,60,13241,,,,,,,,,,,,,,,,,,,,,,,,,,,,,,,,,,,,,,,,,,,,,,,,,,,,,,,,,,,,,,,,,
,,,,,,,,,,,,a,0.405,Correct!,0,52,52,65,1,t4.png,t5.png,1,0.90025,19,female,2020-09-08_13h28.24.462,torte-2b,2020.1.3,MacIntel,60,13241,,,,,,,,,,,,,,,,,,,,,,,,,,,,,,,,,,,,,,,,,,,,,,,,,,,,,,,,,,,,,,,,,
,,,,,,,,,,,,l,0.489,Incorrect,0,53,53,81,1,t1.png,t1.png,0,0.97829,19,female,2020-09-08_13h28.24.462,torte-2b,2020.1.3,MacIntel,60,13241,,,,,,,,,,,,,,,,,,,,,,,,,,,,,,,,,,,,,,,,,,,,,,,,,,,,,,,,,,,,,,,,,
,,,,,,,,,,,,a,0.332,Incorrect,0,54,54,53,1,t3.png,t1.png,2,0.056466,19,female,2020-09-08_13h28.24.462,torte-2b,2020.1.3,MacIntel,60,13241,,,,,,,,,,,,,,,,,,,,,,,,,,,,,,,,,,,,,,,,,,,,,,,,,,,,,,,,,,,,,,,,,
,,,,,,,,,,,,a,0.635,Incorrect,0,55,55,27,1,t3.png,t1.png,2,0.0565,19,female,2020-09-08_13h28.24.462,torte-2b,2020.1.3,MacIntel,60,13241,,,,,,,,,,,,,,,,,,,,,,,,,,,,,,,,,,,,,,,,,,,,,,,,,,,,,,,,,,,,,,,,,
,,,,,,,,,,,,l,0.559,Incorrect,0,56,56,20,1,t2.png,t3.png,1,0.90855,19,female,2020-09-08_13h28.24.462,torte-2b,2020.1.3,MacIntel,60,13241,,,,,,,,,,,,,,,,,,,,,,,,,,,,,,,,,,,,,,,,,,,,,,,,,,,,,,,,,,,,,,,,,
,,,,,,,,,,,,a,0.867,Correct!,0,57,57,75,1,t1.png,t1.png,0,0.97829,19,female,2020-09-08_13h28.24.462,torte-2b,2020.1.3,MacIntel,60,13241,,,,,,,,,,,,,,,,,,,,,,,,,,,,,,,,,,,,,,,,,,,,,,,,,,,,,,,,,,,,,,,,,
,,,,,,,,,,,,a,0.558,Incorrect,0,58,58,0,1,t5.png,t1.png,4,9.55E-11,19,female,2020-09-08_13h28.24.462,torte-2b,2020.1.3,MacIntel,60,13241,,,,,,,,,,,,,,,,,,,,,,,,,,,,,,,,,,,,,,,,,,,,,,,,,,,,,,,,,,,,,,,,,
,,,,,,,,,,,,l,0.817,Correct!,0,59,59,91,1,t1.png,t4.png,3,0.0000131,19,female,2020-09-08_13h28.24.462,torte-2b,2020.1.3,MacIntel,60,13241,,,,,,,,,,,,,,,,,,,,,,,,,,,,,,,,,,,,,,,,,,,,,,,,,,,,,,,,,,,,,,,,,
,,,,,,,,,,,,l,0.539,Correct!,0,60,60,4,1,t1.png,t5.png,4,9.55E-11,19,female,2020-09-08_13h28.24.462,torte-2b,2020.1.3,MacIntel,60,13241,,,,,,,,,,,,,,,,,,,,,,,,,,,,,,,,,,,,,,,,,,,,,,,,,,,,,,,,,,,,,,,,,
,,,,,,,,,,,,l,0.9,Correct!,0,61,61,90,1,t1.png,t5.png,4,9.55E-11,19,female,2020-09-08_13h28.24.462,torte-2b,2020.1.3,MacIntel,60,13241,,,,,,,,,,,,,,,,,,,,,,,,,,,,,,,,,,,,,,,,,,,,,,,,,,,,,,,,,,,,,,,,,
,,,,,,,,,,,,a,0.65,Correct!,0,62,62,105,1,t3.png,t2.png,1,0.90855,19,female,2020-09-08_13h28.24.462,torte-2b,2020.1.3,MacIntel,60,13241,,,,,,,,,,,,,,,,,,,,,,,,,,,,,,,,,,,,,,,,,,,,,,,,,,,,,,,,,,,,,,,,,
,,,,,,,,,,,,a,0.488,Incorrect,0,63,63,26,1,t4.png,t2.png,2,0.0591,19,female,2020-09-08_13h28.24.462,torte-2b,2020.1.3,MacIntel,60,13241,,,,,,,,,,,,,,,,,,,,,,,,,,,,,,,,,,,,,,,,,,,,,,,,,,,,,,,,,,,,,,,,,
,,,,,,,,,,,,l,0.466,Correct!,0,64,64,54,1,t1.png,t5.png,4,9.55E-11,19,female,2020-09-08_13h28.24.462,torte-2b,2020.1.3,MacIntel,60,13241,,,,,,,,,,,,,,,,,,,,,,,,,,,,,,,,,,,,,,,,,,,,,,,,,,,,,,,,,,,,,,,,,
,,,,,,,,,,,,l,0.566,Correct!,0,65,65,67,1,t1.png,t5.png,4,9.55E-11,19,female,2020-09-08_13h28.24.462,torte-2b,2020.1.3,MacIntel,60,13241,,,,,,,,,,,,,,,,,,,,,,,,,,,,,,,,,,,,,,,,,,,,,,,,,,,,,,,,,,,,,,,,,
,,,,,,,,,,,,a,0.544,Correct!,0,66,66,15,1,t3.png,t2.png,1,0.90855,19,female,2020-09-08_13h28.24.462,torte-2b,2020.1.3,MacIntel,60,13241,,,,,,,,,,,,,,,,,,,,,,,,,,,,,,,,,,,,,,,,,,,,,,,,,,,,,,,,,,,,,,,,,
,,,,,,,,,,,,a,0.581,Incorrect,0,67,67,51,1,t3.png,t1.png,2,0.056466,19,female,2020-09-08_13h28.24.462,torte-2b,2020.1.3,MacIntel,60,13241,,,,,,,,,,,,,,,,,,,,,,,,,,,,,,,,,,,,,,,,,,,,,,,,,,,,,,,,,,,,,,,,,
,,,,,,,,,,,,l,0.532,Incorrect,0,68,68,52,1,t2.png,t4.png,2,0.059078,19,female,2020-09-08_13h28.24.462,torte-2b,2020.1.3,MacIntel,60,13241,,,,,,,,,,,,,,,,,,,,,,,,,,,,,,,,,,,,,,,,,,,,,,,,,,,,,,,,,,,,,,,,,
,,,,,,,,,,,,a,0.535,Incorrect,0,69,69,36,1,t3.png,t1.png,2,0.0565,19,female,2020-09-08_13h28.24.462,torte-2b,2020.1.3,MacIntel,60,13241,,,,,,,,,,,,,,,,,,,,,,,,,,,,,,,,,,,,,,,,,,,,,,,,,,,,,,,,,,,,,,,,,
,,,,,,,,,,,,a,1.002,Incorrect,0,70,70,21,1,t5.png,t4.png,1,0.90025,19,female,2020-09-08_13h28.24.462,torte-2b,2020.1.3,MacIntel,60,13241,,,,,,,,,,,,,,,,,,,,,,,,,,,,,,,,,,,,,,,,,,,,,,,,,,,,,,,,,,,,,,,,,
,,,,,,,,,,,,a,0.49,Incorrect,0,71,71,12,1,t5.png,t1.png,4,9.55E-11,19,female,2020-09-08_13h28.24.462,torte-2b,2020.1.3,MacIntel,60,13241,,,,,,,,,,,,,,,,,,,,,,,,,,,,,,,,,,,,,,,,,,,,,,,,,,,,,,,,,,,,,,,,,
,,,,,,,,,,,,a,0.617,Incorrect,0,72,72,94,1,t5.png,t1.png,4,9.55E-11,19,female,2020-09-08_13h28.24.462,torte-2b,2020.1.3,MacIntel,60,13241,,,,,,,,,,,,,,,,,,,,,,,,,,,,,,,,,,,,,,,,,,,,,,,,,,,,,,,,,,,,,,,,,
,,,,,,,,,,,,l,0.483,Correct!,0,73,73,5,1,t2.png,t4.png,2,0.059078,19,female,2020-09-08_13h28.24.462,torte-2b,2020.1.3,MacIntel,60,13241,,,,,,,,,,,,,,,,,,,,,,,,,,,,,,,,,,,,,,,,,,,,,,,,,,,,,,,,,,,,,,,,,
,,,,,,,,,,,,a,0.934,Correct!,0,74,74,39,1,t3.png,t2.png,1,0.90855,19,female,2020-09-08_13h28.24.462,torte-2b,2020.1.3,MacIntel,60,13241,,,,,,,,,,,,,,,,,,,,,,,,,,,,,,,,,,,,,,,,,,,,,,,,,,,,,,,,,,,,,,,,,
,,,,,,,,,,,,l,0.819,Incorrect,0,75,75,32,1,t4.png,t5.png,1,0.90025,19,female,2020-09-08_13h28.24.462,torte-2b,2020.1.3,MacIntel,60,13241,,,,,,,,,,,,,,,,,,,,,,,,,,,,,,,,,,,,,,,,,,,,,,,,,,,,,,,,,,,,,,,,,
,,,,,,,,,,,,l,0.756,Correct!,0,76,76,60,1,t2.png,t4.png,2,0.059078,19,female,2020-09-08_13h28.24.462,torte-2b,2020.1.3,MacIntel,60,13241,,,,,,,,,,,,,,,,,,,,,,,,,,,,,,,,,,,,,,,,,,,,,,,,,,,,,,,,,,,,,,,,,
,,,,,,,,,,,,a,0.99,Correct!,0,77,77,116,1,t5.png,t4.png,1,0.90025,19,female,2020-09-08_13h28.24.462,torte-2b,2020.1.3,MacIntel,60,13241,,,,,,,,,,,,,,,,,,,,,,,,,,,,,,,,,,,,,,,,,,,,,,,,,,,,,,,,,,,,,,,,,
,,,,,,,,,,,,l,0.558,Correct!,0,78,78,89,1,t1.png,t4.png,3,0.0000131,19,female,2020-09-08_13h28.24.462,torte-2b,2020.1.3,MacIntel,60,13241,,,,,,,,,,,,,,,,,,,,,,,,,,,,,,,,,,,,,,,,,,,,,,,,,,,,,,,,,,,,,,,,,
,,,,,,,,,,,,l,0.983,Incorrect,0,79,79,92,1,t2.png,t3.png,1,0.909,19,female,2020-09-08_13h28.24.462,torte-2b,2020.1.3,MacIntel,60,13241,,,,,,,,,,,,,,,,,,,,,,,,,,,,,,,,,,,,,,,,,,,,,,,,,,,,,,,,,,,,,,,,,
,,,,,,,,,,,,l,0.506,Correct!,0,80,80,40,1,t1.png,t5.png,4,9.55E-11,19,female,2020-09-08_13h28.24.462,torte-2b,2020.1.3,MacIntel,60,13241,,,,,,,,,,,,,,,,,,,,,,,,,,,,,,,,,,,,,,,,,,,,,,,,,,,,,,,,,,,,,,,,,
,,,,,,,,,,,,l,0.516,Correct!,0,81,81,6,1,t1.png,t4.png,3,0.0000131,19,female,2020-09-08_13h28.24.462,torte-2b,2020.1.3,MacIntel,60,13241,,,,,,,,,,,,,,,,,,,,,,,,,,,,,,,,,,,,,,,,,,,,,,,,,,,,,,,,,,,,,,,,,
,,,,,,,,,,,,l,0.551,Correct!,0,82,82,55,1,t2.png,t4.png,2,0.059078,19,female,2020-09-08_13h28.24.462,torte-2b,2020.1.3,MacIntel,60,13241,,,,,,,,,,,,,,,,,,,,,,,,,,,,,,,,,,,,,,,,,,,,,,,,,,,,,,,,,,,,,,,,,
,,,,,,,,,,,,l,0.409,Correct!,0,83,83,93,1,t2.png,t4.png,2,0.059078,19,female,2020-09-08_13h28.24.462,torte-2b,2020.1.3,MacIntel,60,13241,,,,,,,,,,,,,,,,,,,,,,,,,,,,,,,,,,,,,,,,,,,,,,,,,,,,,,,,,,,,,,,,,
,,,,,,,,,,,,a,0.42,Incorrect,0,84,84,72,1,t4.png,t2.png,2,0.059078,19,female,2020-09-08_13h28.24.462,torte-2b,2020.1.3,MacIntel,60,13241,,,,,,,,,,,,,,,,,,,,,,,,,,,,,,,,,,,,,,,,,,,,,,,,,,,,,,,,,,,,,,,,,
,,,,,,,,,,,,l,0.489,Correct!,0,85,85,11,1,t1.png,t4.png,3,0.0000131,19,female,2020-09-08_13h28.24.462,torte-2b,2020.1.3,MacIntel,60,13241,,,,,,,,,,,,,,,,,,,,,,,,,,,,,,,,,,,,,,,,,,,,,,,,,,,,,,,,,,,,,,,,,
,,,,,,,,,,,,l,0.49,Correct!,0,86,86,31,1,t1.png,t5.png,4,9.55E-11,19,female,2020-09-08_13h28.24.462,torte-2b,2020.1.3,MacIntel,60,13241,,,,,,,,,,,,,,,,,,,,,,,,,,,,,,,,,,,,,,,,,,,,,,,,,,,,,,,,,,,,,,,,,
,,,,,,,,,,,,l,0.432,Correct!,0,87,87,35,1,t1.png,t4.png,3,0.0000131,19,female,2020-09-08_13h28.24.462,torte-2b,2020.1.3,MacIntel,60,13241,,,,,,,,,,,,,,,,,,,,,,,,,,,,,,,,,,,,,,,,,,,,,,,,,,,,,,,,,,,,,,,,,
,,,,,,,,,,,,l,0.459,Correct!,0,88,88,22,1,t2.png,t3.png,1,0.90855,19,female,2020-09-08_13h28.24.462,torte-2b,2020.1.3,MacIntel,60,13241,,,,,,,,,,,,,,,,,,,,,,,,,,,,,,,,,,,,,,,,,,,,,,,,,,,,,,,,,,,,,,,,,
,,,,,,,,,,,,a,0.591,Correct!,0,89,89,42,1,t5.png,t4.png,1,0.90025,19,female,2020-09-08_13h28.24.462,torte-2b,2020.1.3,MacIntel,60,13241,,,,,,,,,,,,,,,,,,,,,,,,,,,,,,,,,,,,,,,,,,,,,,,,,,,,,,,,,,,,,,,,,
,,,,,,,,,,,,l,0.472,Correct!,0,90,90,3,1,t1.png,t5.png,4,9.55E-11,19,female,2020-09-08_13h28.24.462,torte-2b,2020.1.3,MacIntel,60,13241,,,,,,,,,,,,,,,,,,,,,,,,,,,,,,,,,,,,,,,,,,,,,,,,,,,,,,,,,,,,,,,,,
,,,,,,,,,,,,a,0.633,Incorrect,0,91,91,38,1,t3.png,t1.png,2,0.056466,19,female,2020-09-08_13h28.24.462,torte-2b,2020.1.3,MacIntel,60,13241,,,,,,,,,,,,,,,,,,,,,,,,,,,,,,,,,,,,,,,,,,,,,,,,,,,,,,,,,,,,,,,,,
,,,,,,,,,,,,l,0.423,Incorrect,0,92,92,10,1,t2.png,t3.png,1,0.90855,19,female,2020-09-08_13h28.24.462,torte-2b,2020.1.3,MacIntel,60,13241,,,,,,,,,,,,,,,,,,,,,,,,,,,,,,,,,,,,,,,,,,,,,,,,,,,,,,,,,,,,,,,,,
,,,,,,,,,,,,l,0.899,Incorrect,0,93,93,114,1,t2.png,t3.png,1,0.90855,19,female,2020-09-08_13h28.24.462,torte-2b,2020.1.3,MacIntel,60,13241,,,,,,,,,,,,,,,,,,,,,,,,,,,,,,,,,,,,,,,,,,,,,,,,,,,,,,,,,,,,,,,,,
,,,,,,,,,,,,a,0.441,Correct!,0,94,94,8,1,t3.png,t2.png,1,0.90855,19,female,2020-09-08_13h28.24.462,torte-2b,2020.1.3,MacIntel,60,13241,,,,,,,,,,,,,,,,,,,,,,,,,,,,,,,,,,,,,,,,,,,,,,,,,,,,,,,,,,,,,,,,,
,,,,,,,,,,,,l,0.571,Correct!,0,95,95,57,1,t2.png,t4.png,2,0.059078,19,female,2020-09-08_13h28.24.462,torte-2b,2020.1.3,MacIntel,60,13241,,,,,,,,,,,,,,,,,,,,,,,,,,,,,,,,,,,,,,,,,,,,,,,,,,,,,,,,,,,,,,,,,
,,,,,,,,,,,,a,0.501,Incorrect,0,96,96,86,1,t3.png,t1.png,2,0.056466,19,female,2020-09-08_13h28.24.462,torte-2b,2020.1.3,MacIntel,60,13241,,,,,,,,,,,,,,,,,,,,,,,,,,,,,,,,,,,,,,,,,,,,,,,,,,,,,,,,,,,,,,,,,
,,,,,,,,,,,,l,0.692,Correct!,0,97,97,1,1,t2.png,t4.png,2,0.059078,19,female,2020-09-08_13h28.24.462,torte-2b,2020.1.3,MacIntel,60,13241,,,,,,,,,,,,,,,,,,,,,,,,,,,,,,,,,,,,,,,,,,,,,,,,,,,,,,,,,,,,,,,,,
,,,,,,,,,,,,a,0.474,Incorrect,0,98,98,82,1,t5.png,t1.png,4,9.55E-11,19,female,2020-09-08_13h28.24.462,torte-2b,2020.1.3,MacIntel,60,13241,,,,,,,,,,,,,,,,,,,,,,,,,,,,,,,,,,,,,,,,,,,,,,,,,,,,,,,,,,,,,,,,,
,,,,,,,,,,,,a,0.57,Incorrect,0,99,99,111,1,t5.png,t1.png,4,9.55E-11,19,female,2020-09-08_13h28.24.462,torte-2b,2020.1.3,MacIntel,60,13241,,,,,,,,,,,,,,,,,,,,,,,,,,,,,,,,,,,,,,,,,,,,,,,,,,,,,,,,,,,,,,,,,
,,,,,,,,,,,,a,0.788,Correct!,0,100,100,34,1,t5.png,t4.png,1,0.9,19,female,2020-09-08_13h28.24.462,torte-2b,2020.1.3,MacIntel,60,13241,,,,,,,,,,,,,,,,,,,,,,,,,,,,,,,,,,,,,,,,,,,,,,,,,,,,,,,,,,,,,,,,,
,,,,,,,,,,,,l,1.066,Incorrect,0,101,101,79,1,t3.png,t2.png,1,0.909,19,female,2020-09-08_13h28.24.462,torte-2b,2020.1.3,MacIntel,60,13241,,,,,,,,,,,,,,,,,,,,,,,,,,,,,,,,,,,,,,,,,,,,,,,,,,,,,,,,,,,,,,,,,
,,,,,,,,,,,,l,0.838,Incorrect,0,102,102,84,1,t1.png,t1.png,0,0.97829,19,female,2020-09-08_13h28.24.462,torte-2b,2020.1.3,MacIntel,60,13241,,,,,,,,,,,,,,,,,,,,,,,,,,,,,,,,,,,,,,,,,,,,,,,,,,,,,,,,,,,,,,,,,
,,,,,,,,,,,,a,0.642,Correct!,0,103,103,74,1,t5.png,t4.png,1,0.9,19,female,2020-09-08_13h28.24.462,torte-2b,2020.1.3,MacIntel,60,13241,,,,,,,,,,,,,,,,,,,,,,,,,,,,,,,,,,,,,,,,,,,,,,,,,,,,,,,,,,,,,,,,,
,,,,,,,,,,,,a,0.556,Incorrect,0,104,104,46,1,t4.png,t2.png,2,0.059078,19,female,2020-09-08_13h28.24.462,torte-2b,2020.1.3,MacIntel,60,13241,,,,,,,,,,,,,,,,,,,,,,,,,,,,,,,,,,,,,,,,,,,,,,,,,,,,,,,,,,,,,,,,,
,,,,,,,,,,,,a,0.517,Incorrect,0,105,105,30,1,t3.png,t1.png,2,0.056466,19,female,2020-09-08_13h28.24.462,torte-2b,2020.1.3,MacIntel,60,13241,,,,,,,,,,,,,,,,,,,,,,,,,,,,,,,,,,,,,,,,,,,,,,,,,,,,,,,,,,,,,,,,,
,,,,,,,,,,,,a,0.609,Incorrect,0,106,106,73,1,t4.png,t2.png,2,0.059078,19,female,2020-09-08_13h28.24.462,torte-2b,2020.1.3,MacIntel,60,13241,,,,,,,,,,,,,,,,,,,,,,,,,,,,,,,,,,,,,,,,,,,,,,,,,,,,,,,,,,,,,,,,,
,,,,,,,,,,,,l,0.599,Incorrect,0,107,107,104,1,t2.png,t3.png,1,0.90855,19,female,2020-09-08_13h28.24.462,torte-2b,2020.1.3,MacIntel,60,13241,,,,,,,,,,,,,,,,,,,,,,,,,,,,,,,,,,,,,,,,,,,,,,,,,,,,,,,,,,,,,,,,,
,,,,,,,,,,,,a,0.506,Incorrect,0,108,108,87,1,t5.png,t1.png,4,9.55E-11,19,female,2020-09-08_13h28.24.462,torte-2b,2020.1.3,MacIntel,60,13241,,,,,,,,,,,,,,,,,,,,,,,,,,,,,,,,,,,,,,,,,,,,,,,,,,,,,,,,,,,,,,,,,
,,,,,,,,,,,,l,0.637,Incorrect,0,109,109,44,1,t2.png,t3.png,1,0.909,19,female,2020-09-08_13h28.24.462,torte-2b,2020.1.3,MacIntel,60,13241,,,,,,,,,,,,,,,,,,,,,,,,,,,,,,,,,,,,,,,,,,,,,,,,,,,,,,,,,,,,,,,,,
,,,,,,,,,,,,a,0.75,Correct!,0,110,110,45,1,t3.png,t2.png,1,0.90855,19,female,2020-09-08_13h28.24.462,torte-2b,2020.1.3,MacIntel,60,13241,,,,,,,,,,,,,,,,,,,,,,,,,,,,,,,,,,,,,,,,,,,,,,,,,,,,,,,,,,,,,,,,,
,,,,,,,,,,,,a,0.549,Incorrect,0,111,111,19,1,t4.png,t2.png,2,0.059078,19,female,2020-09-08_13h28.24.462,torte-2b,2020.1.3,MacIntel,60,13241,,,,,,,,,,,,,,,,,,,,,,,,,,,,,,,,,,,,,,,,,,,,,,,,,,,,,,,,,,,,,,,,,
,,,,,,,,,,,,l,0.772,Incorrect,0,112,112,77,1,t1.png,t1.png,0,0.97829,19,female,2020-09-08_13h28.24.462,torte-2b,2020.1.3,MacIntel,60,13241,,,,,,,,,,,,,,,,,,,,,,,,,,,,,,,,,,,,,,,,,,,,,,,,,,,,,,,,,,,,,,,,,
,,,,,,,,,,,,l,0.805,Incorrect,0,113,113,63,1,t2.png,t3.png,1,0.909,19,female,2020-09-08_13h28.24.462,torte-2b,2020.1.3,MacIntel,60,13241,,,,,,,,,,,,,,,,,,,,,,,,,,,,,,,,,,,,,,,,,,,,,,,,,,,,,,,,,,,,,,,,,
,,,,,,,,,,,,l,0.534,Correct!,0,114,114,98,1,t2.png,t4.png,2,0.0591,19,female,2020-09-08_13h28.24.462,torte-2b,2020.1.3,MacIntel,60,13241,,,,,,,,,,,,,,,,,,,,,,,,,,,,,,,,,,,,,,,,,,,,,,,,,,,,,,,,,,,,,,,,,
,,,,,,,,,,,,l,1.134,Incorrect,0,115,115,101,1,t4.png,t5.png,1,0.90025,19,female,2020-09-08_13h28.24.462,torte-2b,2020.1.3,MacIntel,60,13241,,,,,,,,,,,,,,,,,,,,,,,,,,,,,,,,,,,,,,,,,,,,,,,,,,,,,,,,,,,,,,,,,
,,,,,,,,,,,,l,0.667,Correct!,0,116,116,61,1,t1.png,t4.png,3,0.0000131,19,female,2020-09-08_13h28.24.462,torte-2b,2020.1.3,MacIntel,60,13241,,,,,,,,,,,,,,,,,,,,,,,,,,,,,,,,,,,,,,,,,,,,,,,,,,,,,,,,,,,,,,,,,
,,,,,,,,,,,,a,0.704,Incorrect,0,117,117,43,1,t4.png,t2.png,2,0.059078,19,female,2020-09-08_13h28.24.462,torte-2b,2020.1.3,MacIntel,60,13241,,,,,,,,,,,,,,,,,,,,,,,,,,,,,,,,,,,,,,,,,,,,,,,,,,,,,,,,,,,,,,,,,
,,,,,,,,,,,,a,0.834,Correct!,0,118,118,85,1,t3.png,t2.png,1,0.90855,19,female,2020-09-08_13h28.24.462,torte-2b,2020.1.3,MacIntel,60,13241,,,,,,,,,,,,,,,,,,,,,,,,,,,,,,,,,,,,,,,,,,,,,,,,,,,,,,,,,,,,,,,,,
,,,,,,,,,,,,l,1.089,Incorrect,0,119,119,112,1,t1.png,t1.png,0,0.97829,19,female,2020-09-08_13h28.24.462,torte-2b,2020.1.3,MacIntel,60,13241,,,,,,,,,,,,,,,,,,,,,,,,,,,,,,,,,,,,,,,,,,,,,,,,,,,,,,,,,,,,,,,,,
,,,,,,,,,,,,,,Too slow :(,,,,,,t1.png,t4.png,3,0.0000131,19,female,2020-09-08_13h28.24.462,torte-2b,2020.1.3,MacIntel,60,13241,space,2.511,space,16.799,0,0,0,92,1,,,,,,,,,,,,,,,,,,,,,,,,,,,,,,,,,,,,,,,,,,,,,,,,,,,,,,,,
,,,,,,,,,,,,l,2.137,Correct!,,,,,,t3.png,t5.png,2,0.056466,19,female,2020-09-08_13h28.24.462,torte-2b,2020.1.3,MacIntel,60,13241,,,,,0,1,1,44,1,,,,,,,,,,,,,,,,,,,,,,,,,,,,,,,,,,,,,,,,,,,,,,,,,,,,,,,,
,,,,,,,,,,,,a,1.442,Incorrect,,,,,,t3.png,t2.png,1,0.909,19,female,2020-09-08_13h28.24.462,torte-2b,2020.1.3,MacIntel,60,13241,,,,,0,2,2,3,1,,,,,,,,,,,,,,,,,,,,,,,,,,,,,,,,,,,,,,,,,,,,,,,,,,,,,,,,
,,,,,,,,,,,,a,1.75,Correct!,,,,,,t4.png,t4.png,0,0.98115,19,female,2020-09-08_13h28.24.462,torte-2b,2020.1.3,MacIntel,60,13241,,,,,0,3,3,52,1,,,,,,,,,,,,,,,,,,,,,,,,,,,,,,,,,,,,,,,,,,,,,,,,,,,,,,,,
,,,,,,,,,,,,a,1.017,Incorrect,,,,,,t4.png,t1.png,3,0.0000131,19,female,2020-09-08_13h28.24.462,torte-2b,2020.1.3,MacIntel,60,13241,,,,,0,4,4,93,1,,,,,,,,,,,,,,,,,,,,,,,,,,,,,,,,,,,,,,,,,,,,,,,,,,,,,,,,
,,,,,,,,,,,,a,1.639,Incorrect,,,,,,t3.png,t1.png,2,0.056466,19,female,2020-09-08_13h28.24.462,torte-2b,2020.1.3,MacIntel,60,13241,,,,,0,5,5,29,1,,,,,,,,,,,,,,,,,,,,,,,,,,,,,,,,,,,,,,,,,,,,,,,,,,,,,,,,
,,,,,,,,,,,,l,1.666,Incorrect,,,,,,t4.png,t4.png,0,0.98115,19,female,2020-09-08_13h28.24.462,torte-2b,2020.1.3,MacIntel,60,13241,,,,,0,6,6,21,1,,,,,,,,,,,,,,,,,,,,,,,,,,,,,,,,,,,,,,,,,,,,,,,,,,,,,,,,
,,,,,,,,,,,,l,0.95,Correct!,,,,,,t3.png,t4.png,1,0.909,19,female,2020-09-08_13h28.24.462,torte-2b,2020.1.3,MacIntel,60,13241,,,,,0,7,7,106,1,,,,,,,,,,,,,,,,,,,,,,,,,,,,,,,,,,,,,,,,,,,,,,,,,,,,,,,,
,,,,,,,,,,,,l,1.091,Incorrect,,,,,,t4.png,t4.png,0,0.98115,19,female,2020-09-08_13h28.24.462,torte-2b,2020.1.3,MacIntel,60,13241,,,,,0,8,8,90,1,,,,,,,,,,,,,,,,,,,,,,,,,,,,,,,,,,,,,,,,,,,,,,,,,,,,,,,,
,,,,,,,,,,,,a,1.255,Correct!,,,,,,t2.png,t1.png,1,0.90025,19,female,2020-09-08_13h28.24.462,torte-2b,2020.1.3,MacIntel,60,13241,,,,,0,9,9,5,1,,,,,,,,,,,,,,,,,,,,,,,,,,,,,,,,,,,,,,,,,,,,,,,,,,,,,,,,
,,,,,,,,,,,,l,0.868,Correct!,,,,,,t3.png,t5.png,2,0.0565,19,female,2020-09-08_13h28.24.462,torte-2b,2020.1.3,MacIntel,60,13241,,,,,0,10,10,83,1,,,,,,,,,,,,,,,,,,,,,,,,,,,,,,,,,,,,,,,,,,,,,,,,,,,,,,,,
,,,,,,,,,,,,a,0.666,Incorrect,,,,,,t4.png,t1.png,3,0.0000131,19,female,2020-09-08_13h28.24.462,torte-2b,2020.1.3,MacIntel,60,13241,,,,,0,11,11,42,1,,,,,,,,,,,,,,,,,,,,,,,,,,,,,,,,,,,,,,,,,,,,,,,,,,,,,,,,
,,,,,,,,,,,,l,0.632,Correct!,,,,,,t1.png,t3.png,2,0.056466,19,female,2020-09-08_13h28.24.462,torte-2b,2020.1.3,MacIntel,60,13241,,,,,0,12,12,99,1,,,,,,,,,,,,,,,,,,,,,,,,,,,,,,,,,,,,,,,,,,,,,,,,,,,,,,,,
,,,,,,,,,,,,a,0.457,Incorrect,,,,,,t5.png,t1.png,4,9.55E-11,19,female,2020-09-08_13h28.24.462,torte-2b,2020.1.3,MacIntel,60,13241,,,,,0,13,13,71,1,,,,,,,,,,,,,,,,,,,,,,,,,,,,,,,,,,,,,,,,,,,,,,,,,,,,,,,,
,,,,,,,,,,,,l,0.455,Incorrect,,,,,,t2.png,t3.png,1,0.90855,19,female,2020-09-08_13h28.24.462,torte-2b,2020.1.3,MacIntel,60,13241,,,,,0,14,14,68,1,,,,,,,,,,,,,,,,,,,,,,,,,,,,,,,,,,,,,,,,,,,,,,,,,,,,,,,,
,,,,,,,,,,,,a,0.5,Correct!,,,,,,t2.png,t1.png,1,0.90025,19,female,2020-09-08_13h28.24.462,torte-2b,2020.1.3,MacIntel,60,13241,,,,,0,15,15,4,1,,,,,,,,,,,,,,,,,,,,,,,,,,,,,,,,,,,,,,,,,,,,,,,,,,,,,,,,
,,,,,,,,,,,,a,0.435,Incorrect,,,,,,t4.png,t2.png,2,0.0591,19,female,2020-09-08_13h28.24.462,torte-2b,2020.1.3,MacIntel,60,13241,,,,,0,16,16,36,1,,,,,,,,,,,,,,,,,,,,,,,,,,,,,,,,,,,,,,,,,,,,,,,,,,,,,,,,
,,,,,,,,,,,,a,0.459,Correct!,,,,,,t5.png,t4.png,1,0.90025,19,female,2020-09-08_13h28.24.462,torte-2b,2020.1.3,MacIntel,60,13241,,,,,0,17,17,27,1,,,,,,,,,,,,,,,,,,,,,,,,,,,,,,,,,,,,,,,,,,,,,,,,,,,,,,,,
,,,,,,,,,,,,l,0.487,Correct!,,,,,,t1.png,t5.png,4,9.55E-11,19,female,2020-09-08_13h28.24.462,torte-2b,2020.1.3,MacIntel,60,13241,,,,,0,18,18,55,1,,,,,,,,,,,,,,,,,,,,,,,,,,,,,,,,,,,,,,,,,,,,,,,,,,,,,,,,
,,,,,,,,,,,,a,0.974,Correct!,,,,,,t5.png,t5.png,0,0.97829,19,female,2020-09-08_13h28.24.462,torte-2b,2020.1.3,MacIntel,60,13241,,,,,0,19,19,73,1,,,,,,,,,,,,,,,,,,,,,,,,,,,,,,,,,,,,,,,,,,,,,,,,,,,,,,,,
,,,,,,,,,,,,l,0.976,Incorrect,,,,,,t4.png,t5.png,1,0.9,19,female,2020-09-08_13h28.24.462,torte-2b,2020.1.3,MacIntel,60,13241,,,,,0,20,20,115,1,,,,,,,,,,,,,,,,,,,,,,,,,,,,,,,,,,,,,,,,,,,,,,,,,,,,,,,,
,,,,,,,,,,,,a,0.575,Incorrect,,,,,,t3.png,t1.png,2,0.056466,19,female,2020-09-08_13h28.24.462,torte-2b,2020.1.3,MacIntel,60,13241,,,,,0,21,21,32,1,,,,,,,,,,,,,,,,,,,,,,,,,,,,,,,,,,,,,,,,,,,,,,,,,,,,,,,,
,,,,,,,,,,,,l,0.865,Incorrect,,,,,,t5.png,t5.png,0,0.97829,19,female,2020-09-08_13h28.24.462,torte-2b,2020.1.3,MacIntel,60,13241,,,,,0,22,22,94,1,,,,,,,,,,,,,,,,,,,,,,,,,,,,,,,,,,,,,,,,,,,,,,,,,,,,,,,,
,,,,,,,,,,,,l,0.65,Incorrect,,,,,,t5.png,t5.png,0,0.978,19,female,2020-09-08_13h28.24.462,torte-2b,2020.1.3,MacIntel,60,13241,,,,,0,23,23,117,1,,,,,,,,,,,,,,,,,,,,,,,,,,,,,,,,,,,,,,,,,,,,,,,,,,,,,,,,
,,,,,,,,,,,,l,1.106,Incorrect,,,,,,t1.png,t2.png,1,0.90025,19,female,2020-09-08_13h28.24.462,torte-2b,2020.1.3,MacIntel,60,13241,,,,,0,24,24,105,1,,,,,,,,,,,,,,,,,,,,,,,,,,,,,,,,,,,,,,,,,,,,,,,,,,,,,,,,
,,,,,,,,,,,,l,1.132,Incorrect,,,,,,t2.png,t2.png,0,0.981,19,female,2020-09-08_13h28.24.462,torte-2b,2020.1.3,MacIntel,60,13241,,,,,0,25,25,101,1,,,,,,,,,,,,,,,,,,,,,,,,,,,,,,,,,,,,,,,,,,,,,,,,,,,,,,,,
,,,,,,,,,,,,l,0.655,Correct!,,,,,,t1.png,t2.png,1,0.90025,19,female,2020-09-08_13h28.24.462,torte-2b,2020.1.3,MacIntel,60,13241,,,,,0,26,26,72,1,,,,,,,,,,,,,,,,,,,,,,,,,,,,,,,,,,,,,,,,,,,,,,,,,,,,,,,,
,,,,,,,,,,,,a,0.505,Incorrect,,,,,,t5.png,t1.png,4,9.55E-11,19,female,2020-09-08_13h28.24.462,torte-2b,2020.1.3,MacIntel,60,13241,,,,,0,27,27,22,1,,,,,,,,,,,,,,,,,,,,,,,,,,,,,,,,,,,,,,,,,,,,,,,,,,,,,,,,
,,,,,,,,,,,,a,0.749,Correct!,,,,,,t4.png,t3.png,1,0.909,19,female,2020-09-08_13h28.24.462,torte-2b,2020.1.3,MacIntel,60,13241,,,,,0,28,28,46,1,,,,,,,,,,,,,,,,,,,,,,,,,,,,,,,,,,,,,,,,,,,,,,,,,,,,,,,,
,,,,,,,,,,,,l,0.51,Incorrect,,,,,,t1.png,t3.png,2,0.056466,19,female,2020-09-08_13h28.24.462,torte-2b,2020.1.3,MacIntel,60,13241,,,,,0,29,29,63,1,,,,,,,,,,,,,,,,,,,,,,,,,,,,,,,,,,,,,,,,,,,,,,,,,,,,,,,,
,,,,,,,,,,,,a,0.822,Correct!,,,,,,t2.png,t1.png,1,0.90025,19,female,2020-09-08_13h28.24.462,torte-2b,2020.1.3,MacIntel,60,13241,,,,,0,30,30,19,1,,,,,,,,,,,,,,,,,,,,,,,,,,,,,,,,,,,,,,,,,,,,,,,,,,,,,,,,
,,,,,,,,,,,,a,0.932,Incorrect,,,,,,t4.png,t2.png,2,0.059078,19,female,2020-09-08_13h28.24.462,torte-2b,2020.1.3,MacIntel,60,13241,,,,,0,31,31,110,1,,,,,,,,,,,,,,,,,,,,,,,,,,,,,,,,,,,,,,,,,,,,,,,,,,,,,,,,
,,,,,,,,,,,,l,0.841,Incorrect,,,,,,t4.png,t5.png,1,0.90025,19,female,2020-09-08_13h28.24.462,torte-2b,2020.1.3,MacIntel,60,13241,,,,,0,32,32,103,1,,,,,,,,,,,,,,,,,,,,,,,,,,,,,,,,,,,,,,,,,,,,,,,,,,,,,,,,
,,,,,,,,,,,,l,0.517,Correct!,,,,,,t2.png,t4.png,2,0.059078,19,female,2020-09-08_13h28.24.462,torte-2b,2020.1.3,MacIntel,60,13241,,,,,0,33,33,24,1,,,,,,,,,,,,,,,,,,,,,,,,,,,,,,,,,,,,,,,,,,,,,,,,,,,,,,,,
,,,,,,,,,,,,l,0.501,Correct!,,,,,,t2.png,t5.png,3,0.0000131,19,female,2020-09-08_13h28.24.462,torte-2b,2020.1.3,MacIntel,60,13241,,,,,0,34,34,95,1,,,,,,,,,,,,,,,,,,,,,,,,,,,,,,,,,,,,,,,,,,,,,,,,,,,,,,,,
,,,,,,,,,,,,a,0.491,Incorrect,,,,,,t4.png,t2.png,2,0.059078,19,female,2020-09-08_13h28.24.462,torte-2b,2020.1.3,MacIntel,60,13241,,,,,0,35,35,88,1,,,,,,,,,,,,,,,,,,,,,,,,,,,,,,,,,,,,,,,,,,,,,,,,,,,,,,,,
,,,,,,,,,,,,a,1.088,Correct!,,,,,,t3.png,t2.png,1,0.90855,19,female,2020-09-08_13h28.24.462,torte-2b,2020.1.3,MacIntel,60,13241,,,,,0,36,36,97,1,,,,,,,,,,,,,,,,,,,,,,,,,,,,,,,,,,,,,,,,,,,,,,,,,,,,,,,,
,,,,,,,,,,,,l,0.789,Incorrect,,,,,,t4.png,t5.png,1,0.90025,19,female,2020-09-08_13h28.24.462,torte-2b,2020.1.3,MacIntel,60,13241,,,,,0,37,37,113,1,,,,,,,,,,,,,,,,,,,,,,,,,,,,,,,,,,,,,,,,,,,,,,,,,,,,,,,,
,,,,,,,,,,,,l,0.682,Incorrect,,,,,,t1.png,t2.png,1,0.90025,19,female,2020-09-08_13h28.24.462,torte-2b,2020.1.3,MacIntel,60,13241,,,,,0,38,38,112,1,,,,,,,,,,,,,,,,,,,,,,,,,,,,,,,,,,,,,,,,,,,,,,,,,,,,,,,,
,,,,,,,,,,,,a,0.682,Correct!,,,,,,t3.png,t1.png,2,0.056466,19,female,2020-09-08_13h28.24.462,torte-2b,2020.1.3,MacIntel,60,13241,,,,,0,39,39,0,1,,,,,,,,,,,,,,,,,,,,,,,,,,,,,,,,,,,,,,,,,,,,,,,,,,,,,,,,
,,,,,,,,,,,,l,0.566,Incorrect,,,,,,t2.png,t2.png,0,0.98115,19,female,2020-09-08_13h28.24.462,torte-2b,2020.1.3,MacIntel,60,13241,,,,,0,40,40,57,1,,,,,,,,,,,,,,,,,,,,,,,,,,,,,,,,,,,,,,,,,,,,,,,,,,,,,,,,
,,,,,,,,,,,,l,0.617,Correct!,,,,,,t1.png,t4.png,3,0.0000131,19,female,2020-09-08_13h28.24.462,torte-2b,2020.1.3,MacIntel,60,13241,,,,,0,41,41,50,1,,,,,,,,,,,,,,,,,,,,,,,,,,,,,,,,,,,,,,,,,,,,,,,,,,,,,,,,
,,,,,,,,,,,,a,1.182,Incorrect,,,,,,t5.png,t3.png,2,0.0565,19,female,2020-09-08_13h28.24.462,torte-2b,2020.1.3,MacIntel,60,13241,,,,,0,42,42,39,1,,,,,,,,,,,,,,,,,,,,,,,,,,,,,,,,,,,,,,,,,,,,,,,,,,,,,,,,
,,,,,,,,,,,,a,0.959,Correct!,,,,,,t5.png,t4.png,1,0.90025,19,female,2020-09-08_13h28.24.462,torte-2b,2020.1.3,MacIntel,60,13241,,,,,0,43,43,26,1,,,,,,,,,,,,,,,,,,,,,,,,,,,,,,,,,,,,,,,,,,,,,,,,,,,,,,,,
,,,,,,,,,,,,l,0.616,Correct!,,,,,,t3.png,t5.png,2,0.056466,19,female,2020-09-08_13h28.24.462,torte-2b,2020.1.3,MacIntel,60,13241,,,,,0,44,44,14,1,,,,,,,,,,,,,,,,,,,,,,,,,,,,,,,,,,,,,,,,,,,,,,,,,,,,,,,,
,,,,,,,,,,,,l,0.984,Incorrect,,,,,,t5.png,t5.png,0,0.97829,19,female,2020-09-08_13h28.24.462,torte-2b,2020.1.3,MacIntel,60,13241,,,,,0,45,45,70,1,,,,,,,,,,,,,,,,,,,,,,,,,,,,,,,,,,,,,,,,,,,,,,,,,,,,,,,,
,,,,,,,,,,,,a,1.247,Correct!,,,,,,t3.png,t2.png,1,0.909,19,female,2020-09-08_13h28.24.462,torte-2b,2020.1.3,MacIntel,60,13241,,,,,0,46,46,23,1,,,,,,,,,,,,,,,,,,,,,,,,,,,,,,,,,,,,,,,,,,,,,,,,,,,,,,,,
,,,,,,,,,,,,a,0.999,Incorrect,,,,,,t5.png,t3.png,2,0.056466,19,female,2020-09-08_13h28.24.462,torte-2b,2020.1.3,MacIntel,60,13241,,,,,0,47,47,108,1,,,,,,,,,,,,,,,,,,,,,,,,,,,,,,,,,,,,,,,,,,,,,,,,,,,,,,,,
,,,,,,,,,,,,a,0.811,Correct!,,,,,,t3.png,t2.png,1,0.90855,19,female,2020-09-08_13h28.24.462,torte-2b,2020.1.3,MacIntel,60,13241,,,,,0,48,48,53,1,,,,,,,,,,,,,,,,,,,,,,,,,,,,,,,,,,,,,,,,,,,,,,,,,,,,,,,,
,,,,,,,,,,,,l,0.517,Correct!,,,,,,t2.png,t5.png,3,0.0000131,19,female,2020-09-08_13h28.24.462,torte-2b,2020.1.3,MacIntel,60,13241,,,,,0,49,49,8,1,,,,,,,,,,,,,,,,,,,,,,,,,,,,,,,,,,,,,,,,,,,,,,,,,,,,,,,,
,,,,,,,,,,,,a,0.518,Correct!,,,,,,t4.png,t3.png,1,0.90855,19,female,2020-09-08_13h28.24.462,torte-2b,2020.1.3,MacIntel,60,13241,,,,,0,50,50,35,1,,,,,,,,,,,,,,,,,,,,,,,,,,,,,,,,,,,,,,,,,,,,,,,,,,,,,,,,
,,,,,,,,,,,,l,0.711,Correct!,,,,,,t5.png,t2.png,3,0.0000131,19,female,2020-09-08_13h28.24.462,torte-2b,2020.1.3,MacIntel,60,13241,,,,,0,51,51,91,1,,,,,,,,,,,,,,,,,,,,,,,,,,,,,,,,,,,,,,,,,,,,,,,,,,,,,,,,
,,,,,,,,,,,,l,1.151,Incorrect,,,,,,t1.png,t1.png,0,0.97829,19,female,2020-09-08_13h28.24.462,torte-2b,2020.1.3,MacIntel,60,13241,,,,,0,52,52,67,1,,,,,,,,,,,,,,,,,,,,,,,,,,,,,,,,,,,,,,,,,,,,,,,,,,,,,,,,
,,,,,,,,,,,,l,0.7,Incorrect,,,,,,t1.png,t1.png,0,0.97829,19,female,2020-09-08_13h28.24.462,torte-2b,2020.1.3,MacIntel,60,13241,,,,,0,53,53,9,1,,,,,,,,,,,,,,,,,,,,,,,,,,,,,,,,,,,,,,,,,,,,,,,,,,,,,,,,
,,,,,,,,,,,,l,0.833,Incorrect,,,,,,t3.png,t4.png,1,0.90855,19,female,2020-09-08_13h28.24.462,torte-2b,2020.1.3,MacIntel,60,13241,,,,,0,54,54,84,1,,,,,,,,,,,,,,,,,,,,,,,,,,,,,,,,,,,,,,,,,,,,,,,,,,,,,,,,
,,,,,,,,,,,,l,0.558,Incorrect,,,,,,t2.png,t3.png,1,0.909,19,female,2020-09-08_13h28.24.462,torte-2b,2020.1.3,MacIntel,60,13241,,,,,0,55,55,74,1,,,,,,,,,,,,,,,,,,,,,,,,,,,,,,,,,,,,,,,,,,,,,,,,,,,,,,,,
,,,,,,,,,,,,l,0.554,Correct!,,,,,,t1.png,t4.png,3,0.0000131,19,female,2020-09-08_13h28.24.462,torte-2b,2020.1.3,MacIntel,60,13241,,,,,0,56,56,17,1,,,,,,,,,,,,,,,,,,,,,,,,,,,,,,,,,,,,,,,,,,,,,,,,,,,,,,,,
,,,,,,,,,,,,a,0.554,Correct!,,,,,,t4.png,t3.png,1,0.90855,19,female,2020-09-08_13h28.24.462,torte-2b,2020.1.3,MacIntel,60,13241,,,,,0,57,57,45,1,,,,,,,,,,,,,,,,,,,,,,,,,,,,,,,,,,,,,,,,,,,,,,,,,,,,,,,,
,,,,,,,,,,,,a,0.589,Incorrect,,,,,,t5.png,t3.png,2,0.056466,19,female,2020-09-08_13h28.24.462,torte-2b,2020.1.3,MacIntel,60,13241,,,,,0,58,58,56,1,,,,,,,,,,,,,,,,,,,,,,,,,,,,,,,,,,,,,,,,,,,,,,,,,,,,,,,,
,,,,,,,,,,,,l,0.488,Correct!,,,,,,t2.png,t4.png,2,0.059078,19,female,2020-09-08_13h28.24.462,torte-2b,2020.1.3,MacIntel,60,13241,,,,,0,59,59,77,1,,,,,,,,,,,,,,,,,,,,,,,,,,,,,,,,,,,,,,,,,,,,,,,,,,,,,,,,
,,,,,,,,,,,,l,1.199,Correct!,,,,,,t2.png,t2.png,0,0.98115,19,female,2020-09-08_13h28.24.462,torte-2b,2020.1.3,MacIntel,60,13241,,,,,0,60,60,2,1,,,,,,,,,,,,,,,,,,,,,,,,,,,,,,,,,,,,,,,,,,,,,,,,,,,,,,,,
,,,,,,,,,,,,l,1.106,Incorrect,,,,,,t1.png,t1.png,0,0.978,19,female,2020-09-08_13h28.24.462,torte-2b,2020.1.3,MacIntel,60,13241,,,,,0,61,61,28,1,,,,,,,,,,,,,,,,,,,,,,,,,,,,,,,,,,,,,,,,,,,,,,,,,,,,,,,,
,,,,,,,,,,,,l,1.199,Correct!,,,,,,t3.png,t5.png,2,0.0565,19,female,2020-09-08_13h28.24.462,torte-2b,2020.1.3,MacIntel,60,13241,,,,,0,62,62,30,1,,,,,,,,,,,,,,,,,,,,,,,,,,,,,,,,,,,,,,,,,,,,,,,,,,,,,,,,
,,,,,,,,,,,,l,1.999,Incorrect,,,,,,t3.png,t4.png,1,0.90855,19,female,2020-09-08_13h28.24.462,torte-2b,2020.1.3,MacIntel,60,13241,,,,,0,63,63,96,1,,,,,,,,,,,,,,,,,,,,,,,,,,,,,,,,,,,,,,,,,,,,,,,,,,,,,,,,
,,,,,,,,,,,,l,1.101,Incorrect,,,,,,t1.png,t1.png,0,0.97829,19,female,2020-09-08_13h28.24.462,torte-2b,2020.1.3,MacIntel,60,13241,,,,,0,64,64,78,1,,,,,,,,,,,,,,,,,,,,,,,,,,,,,,,,,,,,,,,,,,,,,,,,,,,,,,,,
,,,,,,,,,,,,a,0.607,Correct!,,,,,,t4.png,t3.png,1,0.909,19,female,2020-09-08_13h28.24.462,torte-2b,2020.1.3,MacIntel,60,13241,,,,,0,65,65,20,1,,,,,,,,,,,,,,,,,,,,,,,,,,,,,,,,,,,,,,,,,,,,,,,,,,,,,,,,
,,,,,,,,,,,,l,0.715,Correct!,,,,,,t1.png,t5.png,4,9.55E-11,19,female,2020-09-08_13h28.24.462,torte-2b,2020.1.3,MacIntel,60,13241,,,,,0,66,66,85,1,,,,,,,,,,,,,,,,,,,,,,,,,,,,,,,,,,,,,,,,,,,,,,,,,,,,,,,,
,,,,,,,,,,,,l,0.582,Incorrect,,,,,,t4.png,t5.png,1,0.90025,19,female,2020-09-08_13h28.24.462,torte-2b,2020.1.3,MacIntel,60,13241,,,,,0,67,67,47,1,,,,,,,,,,,,,,,,,,,,,,,,,,,,,,,,,,,,,,,,,,,,,,,,,,,,,,,,
,,,,,,,,,,,,a,0.95,Incorrect,,,,,,t5.png,t3.png,2,0.056466,19,female,2020-09-08_13h28.24.462,torte-2b,2020.1.3,MacIntel,60,13241,,,,,0,68,68,114,1,,,,,,,,,,,,,,,,,,,,,,,,,,,,,,,,,,,,,,,,,,,,,,,,,,,,,,,,
,,,,,,,,,,,,l,0.6,Incorrect,,,,,,t2.png,t3.png,1,0.90855,19,female,2020-09-08_13h28.24.462,torte-2b,2020.1.3,MacIntel,60,13241,,,,,0,69,69,65,1,,,,,,,,,,,,,,,,,,,,,,,,,,,,,,,,,,,,,,,,,,,,,,,,,,,,,,,,
,,,,,,,,,,,,a,0.767,Correct!,,,,,,t4.png,t4.png,0,0.98115,19,female,2020-09-08_13h28.24.462,torte-2b,2020.1.3,MacIntel,60,13241,,,,,0,70,70,79,1,,,,,,,,,,,,,,,,,,,,,,,,,,,,,,,,,,,,,,,,,,,,,,,,,,,,,,,,
,,,,,,,,,,,,l,0.607,Correct!,,,,,,t2.png,t4.png,2,0.0591,19,female,2020-09-08_13h28.24.462,torte-2b,2020.1.3,MacIntel,60,13241,,,,,0,71,71,15,1,,,,,,,,,,,,,,,,,,,,,,,,,,,,,,,,,,,,,,,,,,,,,,,,,,,,,,,,
,,,,,,,,,,,,l,0.515,Correct!,,,,,,t2.png,t5.png,3,0.0000131,19,female,2020-09-08_13h28.24.462,torte-2b,2020.1.3,MacIntel,60,13241,,,,,0,72,72,104,1,,,,,,,,,,,,,,,,,,,,,,,,,,,,,,,,,,,,,,,,,,,,,,,,,,,,,,,,
,,,,,,,,,,,,a,0.483,Correct!,,,,,,t2.png,t1.png,1,0.90025,19,female,2020-09-08_13h28.24.462,torte-2b,2020.1.3,MacIntel,60,13241,,,,,0,73,73,62,1,,,,,,,,,,,,,,,,,,,,,,,,,,,,,,,,,,,,,,,,,,,,,,,,,,,,,,,,
,,,,,,,,,,,,a,0.7,Correct!,,,,,,t4.png,t3.png,1,0.90855,19,female,2020-09-08_13h28.24.462,torte-2b,2020.1.3,MacIntel,60,13241,,,,,0,74,74,75,1,,,,,,,,,,,,,,,,,,,,,,,,,,,,,,,,,,,,,,,,,,,,,,,,,,,,,,,,
,,,,,,,,,,,,a,1.783,Correct!,,,,,,t5.png,t4.png,1,0.9,19,female,2020-09-08_13h28.24.462,torte-2b,2020.1.3,MacIntel,60,13241,,,,,0,75,75,49,1,,,,,,,,,,,,,,,,,,,,,,,,,,,,,,,,,,,,,,,,,,,,,,,,,,,,,,,,
,,,,,,,,,,,,a,0.733,Incorrect,,,,,,t5.png,t2.png,3,0.0000131,19,female,2020-09-08_13h28.24.462,torte-2b,2020.1.3,MacIntel,60,13241,,,,,0,76,76,119,1,,,,,,,,,,,,,,,,,,,,,,,,,,,,,,,,,,,,,,,,,,,,,,,,,,,,,,,,
,,,,,,,,,,,,l,0.422,Correct!,,,,,,t1.png,t5.png,4,9.55E-11,19,female,2020-09-08_13h28.24.462,torte-2b,2020.1.3,MacIntel,60,13241,,,,,0,77,77,12,1,,,,,,,,,,,,,,,,,,,,,,,,,,,,,,,,,,,,,,,,,,,,,,,,,,,,,,,,
,,,,,,,,,,,,l,0.505,Correct!,,,,,,t1.png,t3.png,2,0.056466,19,female,2020-09-08_13h28.24.462,torte-2b,2020.1.3,MacIntel,60,13241,,,,,0,78,78,87,1,,,,,,,,,,,,,,,,,,,,,,,,,,,,,,,,,,,,,,,,,,,,,,,,,,,,,,,,
,,,,,,,,,,,,a,0.438,Incorrect,,,,,,t5.png,t2.png,3,0.0000131,19,female,2020-09-08_13h28.24.462,torte-2b,2020.1.3,MacIntel,60,13241,,,,,0,79,79,98,1,,,,,,,,,,,,,,,,,,,,,,,,,,,,,,,,,,,,,,,,,,,,,,,,,,,,,,,,
,,,,,,,,,,,,a,0.902,Correct!,,,,,,t2.png,t1.png,1,0.9,19,female,2020-09-08_13h28.24.462,torte-2b,2020.1.3,MacIntel,60,13241,,,,,0,80,80,118,1,,,,,,,,,,,,,,,,,,,,,,,,,,,,,,,,,,,,,,,,,,,,,,,,,,,,,,,,
,,,,,,,,,,,,a,0.541,Incorrect,,,,,,t3.png,t1.png,2,0.056466,19,female,2020-09-08_13h28.24.462,torte-2b,2020.1.3,MacIntel,60,13241,,,,,0,81,81,64,1,,,,,,,,,,,,,,,,,,,,,,,,,,,,,,,,,,,,,,,,,,,,,,,,,,,,,,,,
,,,,,,,,,,,,l,0.45,Correct!,,,,,,t1.png,t5.png,4,9.55E-11,19,female,2020-09-08_13h28.24.462,torte-2b,2020.1.3,MacIntel,60,13241,,,,,0,82,82,16,1,,,,,,,,,,,,,,,,,,,,,,,,,,,,,,,,,,,,,,,,,,,,,,,,,,,,,,,,
,,,,,,,,,,,,l,0.483,Correct!,,,,,,t1.png,t5.png,4,9.55E-11,19,female,2020-09-08_13h28.24.462,torte-2b,2020.1.3,MacIntel,60,13241,,,,,0,83,83,41,1,,,,,,,,,,,,,,,,,,,,,,,,,,,,,,,,,,,,,,,,,,,,,,,,,,,,,,,,
,,,,,,,,,,,,l,0.651,Correct!,,,,,,t3.png,t5.png,2,0.056466,19,female,2020-09-08_13h28.24.462,torte-2b,2020.1.3,MacIntel,60,13241,,,,,0,84,84,6,1,,,,,,,,,,,,,,,,,,,,,,,,,,,,,,,,,,,,,,,,,,,,,,,,,,,,,,,,
,,,,,,,,,,,,l,0.483,Correct!,,,,,,t1.png,t4.png,3,0.0000131,19,female,2020-09-08_13h28.24.462,torte-2b,2020.1.3,MacIntel,60,13241,,,,,0,85,85,107,1,,,,,,,,,,,,,,,,,,,,,,,,,,,,,,,,,,,,,,,,,,,,,,,,,,,,,,,,
,,,,,,,,,,,,a,0.571,Correct!,,,,,,t3.png,t2.png,1,0.90855,19,female,2020-09-08_13h28.24.462,torte-2b,2020.1.3,MacIntel,60,13241,,,,,0,86,86,18,1,,,,,,,,,,,,,,,,,,,,,,,,,,,,,,,,,,,,,,,,,,,,,,,,,,,,,,,,
,,,,,,,,,,,,l,0.565,Incorrect,,,,,,t2.png,t3.png,1,0.90855,19,female,2020-09-08_13h28.24.462,torte-2b,2020.1.3,MacIntel,60,13241,,,,,0,87,87,111,1,,,,,,,,,,,,,,,,,,,,,,,,,,,,,,,,,,,,,,,,,,,,,,,,,,,,,,,,
,,,,,,,,,,,,l,0.9,Incorrect,,,,,,t3.png,t4.png,1,0.909,19,female,2020-09-08_13h28.24.462,torte-2b,2020.1.3,MacIntel,60,13241,,,,,0,88,88,89,1,,,,,,,,,,,,,,,,,,,,,,,,,,,,,,,,,,,,,,,,,,,,,,,,,,,,,,,,
,,,,,,,,,,,,a,0.551,Incorrect,,,,,,t5.png,t3.png,2,0.056466,19,female,2020-09-08_13h28.24.462,torte-2b,2020.1.3,MacIntel,60,13241,,,,,0,89,89,38,1,,,,,,,,,,,,,,,,,,,,,,,,,,,,,,,,,,,,,,,,,,,,,,,,,,,,,,,,
,,,,,,,,,,,,a,0.637,Correct!,,,,,,t5.png,t4.png,1,0.9,19,female,2020-09-08_13h28.24.462,torte-2b,2020.1.3,MacIntel,60,13241,,,,,0,90,90,76,1,,,,,,,,,,,,,,,,,,,,,,,,,,,,,,,,,,,,,,,,,,,,,,,,,,,,,,,,
,,,,,,,,,,,,l,0.698,Correct!,,,,,,t2.png,t4.png,2,0.059078,19,female,2020-09-08_13h28.24.462,torte-2b,2020.1.3,MacIntel,60,13241,,,,,0,91,91,11,1,,,,,,,,,,,,,,,,,,,,,,,,,,,,,,,,,,,,,,,,,,,,,,,,,,,,,,,,
,,,,,,,,,,,,l,0.55,Incorrect,,,,,,t3.png,t4.png,1,0.909,19,female,2020-09-08_13h28.24.462,torte-2b,2020.1.3,MacIntel,60,13241,,,,,0,92,92,82,1,,,,,,,,,,,,,,,,,,,,,,,,,,,,,,,,,,,,,,,,,,,,,,,,,,,,,,,,
,,,,,,,,,,,,l,1.2,Incorrect,,,,,,t5.png,t5.png,0,0.97829,19,female,2020-09-08_13h28.24.462,torte-2b,2020.1.3,MacIntel,60,13241,,,,,0,93,93,25,1,,,,,,,,,,,,,,,,,,,,,,,,,,,,,,,,,,,,,,,,,,,,,,,,,,,,,,,,
,,,,,,,,,,,,a,0.55,Incorrect,,,,,,t5.png,t1.png,4,9.55E-11,19,female,2020-09-08_13h28.24.462,torte-2b,2020.1.3,MacIntel,60,13241,,,,,0,94,94,43,1,,,,,,,,,,,,,,,,,,,,,,,,,,,,,,,,,,,,,,,,,,,,,,,,,,,,,,,,
,,,,,,,,,,,,a,0.555,Incorrect,,,,,,t4.png,t1.png,3,0.0000131,19,female,2020-09-08_13h28.24.462,torte-2b,2020.1.3,MacIntel,60,13241,,,,,0,95,95,13,1,,,,,,,,,,,,,,,,,,,,,,,,,,,,,,,,,,,,,,,,,,,,,,,,,,,,,,,,
,,,,,,,,,,,,l,0.599,Correct!,,,,,,t1.png,t4.png,3,0.0000131,19,female,2020-09-08_13h28.24.462,torte-2b,2020.1.3,MacIntel,60,13241,,,,,0,96,96,81,1,,,,,,,,,,,,,,,,,,,,,,,,,,,,,,,,,,,,,,,,,,,,,,,,,,,,,,,,
,,,,,,,,,,,,l,0.933,Incorrect,,,,,,t1.png,t1.png,0,0.978,19,female,2020-09-08_13h28.24.462,torte-2b,2020.1.3,MacIntel,60,13241,,,,,0,97,97,54,1,,,,,,,,,,,,,,,,,,,,,,,,,,,,,,,,,,,,,,,,,,,,,,,,,,,,,,,,
,,,,,,,,,,,,l,0.838,Correct!,,,,,,t1.png,t3.png,2,0.056466,19,female,2020-09-08_13h28.24.462,torte-2b,2020.1.3,MacIntel,60,13241,,,,,0,98,98,60,1,,,,,,,,,,,,,,,,,,,,,,,,,,,,,,,,,,,,,,,,,,,,,,,,,,,,,,,,
,,,,,,,,,,,,l,1.135,Incorrect,,,,,,t2.png,t2.png,0,0.98115,19,female,2020-09-08_13h28.24.462,torte-2b,2020.1.3,MacIntel,60,13241,,,,,0,99,99,7,1,,,,,,,,,,,,,,,,,,,,,,,,,,,,,,,,,,,,,,,,,,,,,,,,,,,,,,,,
,,,,,,,,,,,,a,0.718,Incorrect,,,,,,t4.png,t1.png,3,0.0000131,19,female,2020-09-08_13h28.24.462,torte-2b,2020.1.3,MacIntel,60,13241,,,,,0,100,100,61,1,,,,,,,,,,,,,,,,,,,,,,,,,,,,,,,,,,,,,,,,,,,,,,,,,,,,,,,,
,,,,,,,,,,,,a,1.109,Correct!,,,,,,t5.png,t4.png,1,0.90025,19,female,2020-09-08_13h28.24.462,torte-2b,2020.1.3,MacIntel,60,13241,,,,,0,101,101,34,1,,,,,,,,,,,,,,,,,,,,,,,,,,,,,,,,,,,,,,,,,,,,,,,,,,,,,,,,
,,,,,,,,,,,,l,1.017,Incorrect,,,,,,t1.png,t2.png,1,0.9,19,female,2020-09-08_13h28.24.462,torte-2b,2020.1.3,MacIntel,60,13241,,,,,0,102,102,1,1,,,,,,,,,,,,,,,,,,,,,,,,,,,,,,,,,,,,,,,,,,,,,,,,,,,,,,,,
,,,,,,,,,,,,a,0.666,Incorrect,,,,,,t4.png,t2.png,2,0.059078,19,female,2020-09-08_13h28.24.462,torte-2b,2020.1.3,MacIntel,60,13241,,,,,0,103,103,86,1,,,,,,,,,,,,,,,,,,,,,,,,,,,,,,,,,,,,,,,,,,,,,,,,,,,,,,,,
,,,,,,,,,,,,a,0.671,Incorrect,,,,,,t5.png,t1.png,4,9.55E-11,19,female,2020-09-08_13h28.24.462,torte-2b,2020.1.3,MacIntel,60,13241,,,,,0,104,104,100,1,,,,,,,,,,,,,,,,,,,,,,,,,,,,,,,,,,,,,,,,,,,,,,,,,,,,,,,,
,,,,,,,,,,,,l,0.987,Incorrect,,,,,,t4.png,t5.png,1,0.90025,19,female,2020-09-08_13h28.24.462,torte-2b,2020.1.3,MacIntel,60,13241,,,,,0,105,105,58,1,,,,,,,,,,,,,,,,,,,,,,,,,,,,,,,,,,,,,,,,,,,,,,,,,,,,,,,,
,,,,,,,,,,,,l,0.616,Correct!,,,,,,t1.png,t3.png,2,0.056466,19,female,2020-09-08_13h28.24.462,torte-2b,2020.1.3,MacIntel,60,13241,,,,,0,106,106,69,1,,,,,,,,,,,,,,,,,,,,,,,,,,,,,,,,,,,,,,,,,,,,,,,,,,,,,,,,
,,,,,,,,,,,,l,1.538,Incorrect,,,,,,t2.png,t2.png,0,0.98115,19,female,2020-09-08_13h28.24.462,torte-2b,2020.1.3,MacIntel,60,13241,,,,,0,107,107,59,1,,,,,,,,,,,,,,,,,,,,,,,,,,,,,,,,,,,,,,,,,,,,,,,,,,,,,,,,
,,,,,,,,,,,,a,0.756,Incorrect,,,,,,t5.png,t2.png,3,0.0000131,19,female,2020-09-08_13h28.24.462,torte-2b,2020.1.3,MacIntel,60,13241,,,,,0,108,108,51,1,,,,,,,,,,,,,,,,,,,,,,,,,,,,,,,,,,,,,,,,,,,,,,,,,,,,,,,,
,,,,,,,,,,,,l,0.85,Incorrect,,,,,,t2.png,t3.png,1,0.90855,19,female,2020-09-08_13h28.24.462,torte-2b,2020.1.3,MacIntel,60,13241,,,,,0,109,109,10,1,,,,,,,,,,,,,,,,,,,,,,,,,,,,,,,,,,,,,,,,,,,,,,,,,,,,,,,,
,,,,,,,,,,,,a,0.792,Incorrect,,,,,,t4.png,t2.png,2,0.059078,19,female,2020-09-08_13h28.24.462,torte-2b,2020.1.3,MacIntel,60,13241,,,,,0,110,110,109,1,,,,,,,,,,,,,,,,,,,,,,,,,,,,,,,,,,,,,,,,,,,,,,,,,,,,,,,,
,,,,,,,,,,,,a,0.827,Incorrect,,,,,,t5.png,t1.png,4,9.55E-11,19,female,2020-09-08_13h28.24.462,torte-2b,2020.1.3,MacIntel,60,13241,,,,,0,111,111,102,1,,,,,,,,,,,,,,,,,,,,,,,,,,,,,,,,,,,,,,,,,,,,,,,,,,,,,,,,
,,,,,,,,,,,,a,0.558,Incorrect,,,,,,t3.png,t1.png,2,0.0565,19,female,2020-09-08_13h28.24.462,torte-2b,2020.1.3,MacIntel,60,13241,,,,,0,112,112,31,1,,,,,,,,,,,,,,,,,,,,,,,,,,,,,,,,,,,,,,,,,,,,,,,,,,,,,,,,
,,,,,,,,,,,,a,0.439,Incorrect,,,,,,t4.png,t1.png,3,0.0000131,19,female,2020-09-08_13h28.24.462,torte-2b,2020.1.3,MacIntel,60,13241,,,,,0,113,113,48,1,,,,,,,,,,,,,,,,,,,,,,,,,,,,,,,,,,,,,,,,,,,,,,,,,,,,,,,,
,,,,,,,,,,,,l,0.581,Correct!,,,,,,t2.png,t5.png,3,0.0000131,19,female,2020-09-08_13h28.24.462,torte-2b,2020.1.3,MacIntel,60,13241,,,,,0,114,114,66,1,,,,,,,,,,,,,,,,,,,,,,,,,,,,,,,,,,,,,,,,,,,,,,,,,,,,,,,,
,,,,,,,,,,,,l,0.567,Correct!,,,,,,t2.png,t5.png,3,0.0000131,19,female,2020-09-08_13h28.24.462,torte-2b,2020.1.3,MacIntel,60,13241,,,,,0,115,115,40,1,,,,,,,,,,,,,,,,,,,,,,,,,,,,,,,,,,,,,,,,,,,,,,,,,,,,,,,,
,,,,,,,,,,,,l,1.324,Incorrect,,,,,,t4.png,t4.png,0,0.98115,19,female,2020-09-08_13h28.24.462,torte-2b,2020.1.3,MacIntel,60,13241,,,,,0,116,116,80,1,,,,,,,,,,,,,,,,,,,,,,,,,,,,,,,,,,,,,,,,,,,,,,,,,,,,,,,,
,,,,,,,,,,,,l,0.622,Correct!,,,,,,t1.png,t2.png,1,0.90025,19,female,2020-09-08_13h28.24.462,torte-2b,2020.1.3,MacIntel,60,13241,,,,,0,117,117,33,1,,,,,,,,,,,,,,,,,,,,,,,,,,,,,,,,,,,,,,,,,,,,,,,,,,,,,,,,
,,,,,,,,,,,,l,0.55,Correct!,,,,,,t2.png,t4.png,2,0.059078,19,female,2020-09-08_13h28.24.462,torte-2b,2020.1.3,MacIntel,60,13241,,,,,0,118,118,37,1,,,,,,,,,,,,,,,,,,,,,,,,,,,,,,,,,,,,,,,,,,,,,,,,,,,,,,,,
,,,,,,,,,,,,a,0.489,Incorrect,,,,,,t5.png,t2.png,3,0.0000131,19,female,2020-09-08_13h28.24.462,torte-2b,2020.1.3,MacIntel,60,13241,,,,,0,119,119,116,1,,,,,,,,,,,,,,,,,,,,,,,,,,,,,,,,,,,,,,,,,,,,,,,,,,,,,,,,
,,,,,,,,,,,,,,,,,,,,,,,,19,female,2020-09-08_13h28.24.462,torte-2b,2020.1.3,MacIntel,60,13241,space,2.106,,,,,,,,space,24.038,,0,0,0,0,1,6,,,,,,,,,,,,,,,,,,,,,,,,,,,,,,,,,,,,,,,,,,,,,,,
,,,,,,,,,,,,,,,,,,,,,,,,19,female,2020-09-08_13h28.24.462,torte-2b,2020.1.3,MacIntel,60,13241,,,,,,,,,,,,,0,1,1,1,1,7,,,,,,,,,,,,,,,,,,,,,,,,,,,,,,,,,,,,,,,,,,,,,,,
,,,,,,,,,,,,,,,,,,,,,,,,19,female,2020-09-08_13h28.24.462,torte-2b,2020.1.3,MacIntel,60,13241,,,,,,,,,,,,space,0,2,2,2,1,6,0.502,,,,,,,,,,,,,,,,,,,,,,,,,,,,,,,,,,,,,,,,,,,,,,
,,,,,,,,,,,,,,,,,,,,,,,,19,female,2020-09-08_13h28.24.462,torte-2b,2020.1.3,MacIntel,60,13241,,,,,,,,,,,,space,0,3,3,3,1,7,1.335,,,,,,,,,,,,,,,,,,,,,,,,,,,,,,,,,,,,,,,,,,,,,,
,,,,,,,,,,,,,,,,,,,,,,,,19,female,2020-09-08_13h28.24.462,torte-2b,2020.1.3,MacIntel,60,13241,,,,,,,,,,,,,0,4,4,4,1,5,,,,,,,,,,,,,,,,,,,,,,,,,,,,,,,,,,,,,,,,,,,,,,,
,,,,,,,,,,,,,,,,,,,,,,,,19,female,2020-09-08_13h28.24.462,torte-2b,2020.1.3,MacIntel,60,13241,,,,,,,,,,,,space,0,5,5,5,1,7,0.57,,,,,,,,,,,,,,,,,,,,,,,,,,,,,,,,,,,,,,,,,,,,,,
,,,,,,,,,,,,,,,,,,,,,,,,19,female,2020-09-08_13h28.24.462,torte-2b,2020.1.3,MacIntel,60,13241,,,,,,,,,,,,,0,6,6,6,1,2,,,,,,,,,,,,,,,,,,,,,,,,,,,,,,,,,,,,,,,,,,,,,,,
,,,,,,,,,,,,,,,,,,,,,,,,19,female,2020-09-08_13h28.24.462,torte-2b,2020.1.3,MacIntel,60,13241,,,,,,,,,,,,,0,7,7,7,1,4,,,,,,,,,,,,,,,,,,,,,,,,,,,,,,,,,,,,,,,,,,,,,,,
,,,,,,,,,,,,,,,,,,,,,,,,19,female,2020-09-08_13h28.24.462,torte-2b,2020.1.3,MacIntel,60,13241,,,,,,,,,,,,,0,8,8,8,1,7,,,,,,,,,,,,,,,,,,,,,,,,,,,,,,,,,,,,,,,,,,,,,,,
,,,,,,,,,,,,,,,,,,,,,,,,19,female,2020-09-08_13h28.24.462,torte-2b,2020.1.3,MacIntel,60,13241,,,,,,,,,,,,space,0,9,9,9,1,4,0.653,,,,,,,,,,,,,,,,,,,,,,,,,,,,,,,,,,,,,,,,,,,,,,
,,,,,,,,,,,,,,,,,,,,,,,,19,female,2020-09-08_13h28.24.462,torte-2b,2020.1.3,MacIntel,60,13241,,,,,,,,,,,,space,0,10,10,10,1,7,0.751,,,,,,,,,,,,,,,,,,,,,,,,,,,,,,,,,,,,,,,,,,,,,,
,,,,,,,,,,,,,,,,,,,,,,,,19,female,2020-09-08_13h28.24.462,torte-2b,2020.1.3,MacIntel,60,13241,,,,,,,,,,,,,0,11,11,11,1,7,,,,,,,,,,,,,,,,,,,,,,,,,,,,,,,,,,,,,,,,,,,,,,,
,,,,,,,,,,,,,,,,,,,,,,,,19,female,2020-09-08_13h28.24.462,torte-2b,2020.1.3,MacIntel,60,13241,,,,,,,,,,,,space,0,12,12,12,1,7,0.449,,,,,,,,,,,,,,,,,,,,,,,,,,,,,,,,,,,,,,,,,,,,,,
,,,,,,,,,,,,,,,,,,,,,,,,19,female,2020-09-08_13h28.24.462,torte-2b,2020.1.3,MacIntel,60,13241,,,,,,,,,,,,,0,13,13,13,1,4,,,,,,,,,,,,,,,,,,,,,,,,,,,,,,,,,,,,,,,,,,,,,,,
,,,,,,,,,,,,,,,,,,,,,,,,19,female,2020-09-08_13h28.24.462,torte-2b,2020.1.3,MacIntel,60,13241,,,,,,,,,,,,,0,14,14,14,1,6,,,,,,,,,,,,,,,,,,,,,,,,,,,,,,,,,,,,,,,,,,,,,,,
,,,,,,,,,,,,,,,,,,,,,,,,19,female,2020-09-08_13h28.24.462,torte-2b,2020.1.3,MacIntel,60,13241,,,,,,,,,,,,space,0,15,15,15,1,4,0.481,,,,,,,,,,,,,,,,,,,,,,,,,,,,,,,,,,,,,,,,,,,,,,
,,,,,,,,,,,,,,,,,,,,,,,,19,female,2020-09-08_13h28.24.462,torte-2b,2020.1.3,MacIntel,60,13241,,,,,,,,,,,,space,0,16,16,16,1,6,0.519,,,,,,,,,,,,,,,,,,,,,,,,,,,,,,,,,,,,,,,,,,,,,,
,,,,,,,,,,,,,,,,,,,,,,,,19,female,2020-09-08_13h28.24.462,torte-2b,2020.1.3,MacIntel,60,13241,,,,,,,,,,,,,0,17,17,17,1,7,,,,,,,,,,,,,,,,,,,,,,,,,,,,,,,,,,,,,,,,,,,,,,,
,,,,,,,,,,,,,,,,,,,,,,,,19,female,2020-09-08_13h28.24.462,torte-2b,2020.1.3,MacIntel,60,13241,,,,,,,,,,,,space,0,18,18,18,1,6,0.647,,,,,,,,,,,,,,,,,,,,,,,,,,,,,,,,,,,,,,,,,,,,,,
,,,,,,,,,,,,,,,,,,,,,,,,19,female,2020-09-08_13h28.24.462,torte-2b,2020.1.3,MacIntel,60,13241,,,,,,,,,,,,space,0,19,19,19,1,7,0.702,,,,,,,,,,,,,,,,,,,,,,,,,,,,,,,,,,,,,,,,,,,,,,
,,,,,,,,,,,,,,,,,,,,,,,,19,female,2020-09-08_13h28.24.462,torte-2b,2020.1.3,MacIntel,60,13241,,,,,,,,,,,,,0,20,20,20,1,5,,,,,,,,,,,,,,,,,,,,,,,,,,,,,,,,,,,,,,,,,,,,,,,
,,,,,,,,,,,,,,,,,,,,,,,,19,female,2020-09-08_13h28.24.462,torte-2b,2020.1.3,MacIntel,60,13241,,,,,,,,,,,,,0,21,21,21,1,1,,,,,,,,,,,,,,,,,,,,,,,,,,,,,,,,,,,,,,,,,,,,,,,
,,,,,,,,,,,,,,,,,,,,,,,,19,female,2020-09-08_13h28.24.462,torte-2b,2020.1.3,MacIntel,60,13241,,,,,,,,,,,,,0,22,22,22,1,6,,,,,,,,,,,,,,,,,,,,,,,,,,,,,,,,,,,,,,,,,,,,,,,
,,,,,,,,,,,,,,,,,,,,,,,,19,female,2020-09-08_13h28.24.462,torte-2b,2020.1.3,MacIntel,60,13241,,,,,,,,,,,,space,0,23,23,23,1,1,0.614,,,,,,,,,,,,,,,,,,,,,,,,,,,,,,,,,,,,,,,,,,,,,,
,,,,,,,,,,,,,,,,,,,,,,,,19,female,2020-09-08_13h28.24.462,torte-2b,2020.1.3,MacIntel,60,13241,,,,,,,,,,,,space,0,24,24,24,1,5,0.52,,,,,,,,,,,,,,,,,,,,,,,,,,,,,,,,,,,,,,,,,,,,,,
,,,,,,,,,,,,,,,,,,,,,,,,19,female,2020-09-08_13h28.24.462,torte-2b,2020.1.3,MacIntel,60,13241,,,,,,,,,,,,,0,25,25,25,1,6,,,,,,,,,,,,,,,,,,,,,,,,,,,,,,,,,,,,,,,,,,,,,,,
,,,,,,,,,,,,,,,,,,,,,,,,19,female,2020-09-08_13h28.24.462,torte-2b,2020.1.3,MacIntel,60,13241,,,,,,,,,,,,space,0,26,26,26,1,6,0.534,,,,,,,,,,,,,,,,,,,,,,,,,,,,,,,,,,,,,,,,,,,,,,
,,,,,,,,,,,,,,,,,,,,,,,,19,female,2020-09-08_13h28.24.462,torte-2b,2020.1.3,MacIntel,60,13241,,,,,,,,,,,,space,0,27,27,27,1,6,0.49,,,,,,,,,,,,,,,,,,,,,,,,,,,,,,,,,,,,,,,,,,,,,,
,,,,,,,,,,,,,,,,,,,,,,,,19,female,2020-09-08_13h28.24.462,torte-2b,2020.1.3,MacIntel,60,13241,,,,,,,,,,,,,0,28,28,28,1,5,,,,,,,,,,,,,,,,,,,,,,,,,,,,,,,,,,,,,,,,,,,,,,,
,,,,,,,,,,,,,,,,,,,,,,,,19,female,2020-09-08_13h28.24.462,torte-2b,2020.1.3,MacIntel,60,13241,,,,,,,,,,,,,0,29,29,29,1,2,,,,,,,,,,,,,,,,,,,,,,,,,,,,,,,,,,,,,,,,,,,,,,,
,,,,,,,,,,,,,,,,,,,,,,,,19,female,2020-09-08_13h28.24.462,torte-2b,2020.1.3,MacIntel,60,13241,,,,,,,,,,,,space,0,30,30,30,1,5,0.437,,,,,,,,,,,,,,,,,,,,,,,,,,,,,,,,,,,,,,,,,,,,,,
,,,,,,,,,,,,,,,,,,,,,,,,19,female,2020-09-08_13h28.24.462,torte-2b,2020.1.3,MacIntel,60,13241,,,,,,,,,,,,space,0,31,31,31,1,2,0.582,,,,,,,,,,,,,,,,,,,,,,,,,,,,,,,,,,,,,,,,,,,,,,
,,,,,,,,,,,,,,,,,,,,,,,,19,female,2020-09-08_13h28.24.462,torte-2b,2020.1.3,MacIntel,60,13241,,,,,,,,,,,,space,0,32,32,32,1,5,0.502,,,,,,,,,,,,,,,,,,,,,,,,,,,,,,,,,,,,,,,,,,,,,,
,,,,,,,,,,,,,,,,,,,,,,,,19,female,2020-09-08_13h28.24.462,torte-2b,2020.1.3,MacIntel,60,13241,,,,,,,,,,,,space,0,33,33,33,1,1,0.729,,,,,,,,,,,,,,,,,,,,,,,,,,,,,,,,,,,,,,,,,,,,,,
,,,,,,,,,,,,,,,,,,,,,,,,19,female,2020-09-08_13h28.24.462,torte-2b,2020.1.3,MacIntel,60,13241,,,,,,,,,,,,,0,34,34,34,1,1,,,,,,,,,,,,,,,,,,,,,,,,,,,,,,,,,,,,,,,,,,,,,,,
,,,,,,,,,,,,,,,,,,,,,,,,19,female,2020-09-08_13h28.24.462,torte-2b,2020.1.3,MacIntel,60,13241,,,,,,,,,,,,,,,,,,2,,0,0,0,0,1,,,,,,,,,,,,,,,,,,,,,,,,,,,,,,,,,,,,,,,,,
,,,,,,,,,,,,,,,,,,,,,,,,19,female,2020-09-08_13h28.24.462,torte-2b,2020.1.3,MacIntel,60,13241,,,,,,,,,,,,,,,,,,2,,0,1,1,1,1,,,,,,,,,,,,,,,,,,,,,,,,,,,,,,,,,,,,,,,,,
,,,,,,,,,,,,,,,,,,,,,,,,19,female,2020-09-08_13h28.24.462,torte-2b,2020.1.3,MacIntel,60,13241,,,,,,,,,,,,,,,,,,6,,0,2,2,2,1,,,,,,,,,,,,,,,,,,,,,,,,,,,,,,,,,,,,,,,,,
,,,,,,,,,,,,,,,,,,,,,,,,19,female,2020-09-08_13h28.24.462,torte-2b,2020.1.3,MacIntel,60,13241,,,,,,,,,,,,space,,,,,,2,0.398,0,3,3,3,1,,,,,,,,,,,,,,,,,,,,,,,,,,,,,,,,,,,,,,,,,
,,,,,,,,,,,,,,,,,,,,,,,,19,female,2020-09-08_13h28.24.462,torte-2b,2020.1.3,MacIntel,60,13241,,,,,,,,,,,,space,,,,,,6,0.422,0,4,4,4,1,,,,,,,,,,,,,,,,,,,,,,,,,,,,,,,,,,,,,,,,,
,,,,,,,,,,,,,,,,,,,,,,,,19,female,2020-09-08_13h28.24.462,torte-2b,2020.1.3,MacIntel,60,13241,,,,,,,,,,,,space,,,,,,2,0.497,0,5,5,5,1,,,,,,,,,,,,,,,,,,,,,,,,,,,,,,,,,,,,,,,,,
,,,,,,,,,,,,,,,,,,,,,,,,19,female,2020-09-08_13h28.24.462,torte-2b,2020.1.3,MacIntel,60,13241,,,,,,,,,,,,,,,,,,7,,0,6,6,6,1,,,,,,,,,,,,,,,,,,,,,,,,,,,,,,,,,,,,,,,,,
,,,,,,,,,,,,,,,,,,,,,,,,19,female,2020-09-08_13h28.24.462,torte-2b,2020.1.3,MacIntel,60,13241,,,,,,,,,,,,space,,,,,,2,0.423,0,7,7,7,1,,,,,,,,,,,,,,,,,,,,,,,,,,,,,,,,,,,,,,,,,
,,,,,,,,,,,,,,,,,,,,,,,,19,female,2020-09-08_13h28.24.462,torte-2b,2020.1.3,MacIntel,60,13241,,,,,,,,,,,,space,,,,,,7,0.431,0,8,8,8,1,,,,,,,,,,,,,,,,,,,,,,,,,,,,,,,,,,,,,,,,,
,,,,,,,,,,,,,,,,,,,,,,,,19,female,2020-09-08_13h28.24.462,torte-2b,2020.1.3,MacIntel,60,13241,,,,,,,,,,,,space,,,,,,2,0.497,0,9,9,9,1,,,,,,,,,,,,,,,,,,,,,,,,,,,,,,,,,,,,,,,,,
,,,,,,,,,,,,,,,,,,,,,,,,19,female,2020-09-08_13h28.24.462,torte-2b,2020.1.3,MacIntel,60,13241,,,,,,,,,,,,,,,,,,5,,0,10,10,10,1,,,,,,,,,,,,,,,,,,,,,,,,,,,,,,,,,,,,,,,,,
,,,,,,,,,,,,,,,,,,,,,,,,19,female,2020-09-08_13h28.24.462,torte-2b,2020.1.3,MacIntel,60,13241,,,,,,,,,,,,,,,,,,4,,0,11,11,11,1,,,,,,,,,,,,,,,,,,,,,,,,,,,,,,,,,,,,,,,,,
,,,,,,,,,,,,,,,,,,,,,,,,19,female,2020-09-08_13h28.24.462,torte-2b,2020.1.3,MacIntel,60,13241,,,,,,,,,,,,space,,,,,,5,0.456,0,12,12,12,1,,,,,,,,,,,,,,,,,,,,,,,,,,,,,,,,,,,,,,,,,
,,,,,,,,,,,,,,,,,,,,,,,,19,female,2020-09-08_13h28.24.462,torte-2b,2020.1.3,MacIntel,60,13241,,,,,,,,,,,,,,,,,,6,,0,13,13,13,1,,,,,,,,,,,,,,,,,,,,,,,,,,,,,,,,,,,,,,,,,
,,,,,,,,,,,,,,,,,,,,,,,,19,female,2020-09-08_13h28.24.462,torte-2b,2020.1.3,MacIntel,60,13241,,,,,,,,,,,,space,,,,,,5,0.648,0,14,14,14,1,,,,,,,,,,,,,,,,,,,,,,,,,,,,,,,,,,,,,,,,,
,,,,,,,,,,,,,,,,,,,,,,,,19,female,2020-09-08_13h28.24.462,torte-2b,2020.1.3,MacIntel,60,13241,,,,,,,,,,,,,,,,,,4,,0,15,15,15,1,,,,,,,,,,,,,,,,,,,,,,,,,,,,,,,,,,,,,,,,,
,,,,,,,,,,,,,,,,,,,,,,,,19,female,2020-09-08_13h28.24.462,torte-2b,2020.1.3,MacIntel,60,13241,,,,,,,,,,,,space,,,,,,5,0.431,0,16,16,16,1,,,,,,,,,,,,,,,,,,,,,,,,,,,,,,,,,,,,,,,,,
,,,,,,,,,,,,,,,,,,,,,,,,19,female,2020-09-08_13h28.24.462,torte-2b,2020.1.3,MacIntel,60,13241,,,,,,,,,,,,,,,,,,3,,0,17,17,17,1,,,,,,,,,,,,,,,,,,,,,,,,,,,,,,,,,,,,,,,,,
,,,,,,,,,,,,,,,,,,,,,,,,19,female,2020-09-08_13h28.24.462,torte-2b,2020.1.3,MacIntel,60,13241,,,,,,,,,,,,,,,,,,6,,0,18,18,18,1,,,,,,,,,,,,,,,,,,,,,,,,,,,,,,,,,,,,,,,,,
,,,,,,,,,,,,,,,,,,,,,,,,19,female,2020-09-08_13h28.24.462,torte-2b,2020.1.3,MacIntel,60,13241,,,,,,,,,,,,space,,,,,,6,0.589,0,19,19,19,1,,,,,,,,,,,,,,,,,,,,,,,,,,,,,,,,,,,,,,,,,
,,,,,,,,,,,,,,,,,,,,,,,,19,female,2020-09-08_13h28.24.462,torte-2b,2020.1.3,MacIntel,60,13241,,,,,,,,,,,,,,,,,,6,,0,20,20,20,1,,,,,,,,,,,,,,,,,,,,,,,,,,,,,,,,,,,,,,,,,
,,,,,,,,,,,,,,,,,,,,,,,,19,female,2020-09-08_13h28.24.462,torte-2b,2020.1.3,MacIntel,60,13241,,,,,,,,,,,,space,,,,,,4,0.536,0,21,21,21,1,,,,,,,,,,,,,,,,,,,,,,,,,,,,,,,,,,,,,,,,,
,,,,,,,,,,,,,,,,,,,,,,,,19,female,2020-09-08_13h28.24.462,torte-2b,2020.1.3,MacIntel,60,13241,,,,,,,,,,,,space,,,,,,6,0.488,0,22,22,22,1,,,,,,,,,,,,,,,,,,,,,,,,,,,,,,,,,,,,,,,,,
,,,,,,,,,,,,,,,,,,,,,,,,19,female,2020-09-08_13h28.24.462,torte-2b,2020.1.3,MacIntel,60,13241,,,,,,,,,,,,space,,,,,,4,0.598,0,23,23,23,1,,,,,,,,,,,,,,,,,,,,,,,,,,,,,,,,,,,,,,,,,
,,,,,,,,,,,,,,,,,,,,,,,,19,female,2020-09-08_13h28.24.462,torte-2b,2020.1.3,MacIntel,60,13241,,,,,,,,,,,,,,,,,,6,,0,24,24,24,1,,,,,,,,,,,,,,,,,,,,,,,,,,,,,,,,,,,,,,,,,
,,,,,,,,,,,,,,,,,,,,,,,,19,female,2020-09-08_13h28.24.462,torte-2b,2020.1.3,MacIntel,60,13241,,,,,,,,,,,,,,,,,,6,,0,25,25,25,1,,,,,,,,,,,,,,,,,,,,,,,,,,,,,,,,,,,,,,,,,
,,,,,,,,,,,,,,,,,,,,,,,,19,female,2020-09-08_13h28.24.462,torte-2b,2020.1.3,MacIntel,60,13241,,,,,,,,,,,,,,,,,,7,,0,26,26,26,1,,,,,,,,,,,,,,,,,,,,,,,,,,,,,,,,,,,,,,,,,
,,,,,,,,,,,,,,,,,,,,,,,,19,female,2020-09-08_13h28.24.462,torte-2b,2020.1.3,MacIntel,60,13241,,,,,,,,,,,,,,,,,,1,,0,27,27,27,1,,,,,,,,,,,,,,,,,,,,,,,,,,,,,,,,,,,,,,,,,
,,,,,,,,,,,,,,,,,,,,,,,,19,female,2020-09-08_13h28.24.462,torte-2b,2020.1.3,MacIntel,60,13241,,,,,,,,,,,,space,,,,,,7,0.463,0,28,28,28,1,,,,,,,,,,,,,,,,,,,,,,,,,,,,,,,,,,,,,,,,,
,,,,,,,,,,,,,,,,,,,,,,,,19,female,2020-09-08_13h28.24.462,torte-2b,2020.1.3,MacIntel,60,13241,,,,,,,,,,,,,,,,,,4,,0,29,29,29,1,,,,,,,,,,,,,,,,,,,,,,,,,,,,,,,,,,,,,,,,,
,,,,,,,,,,,,,,,,,,,,,,,,19,female,2020-09-08_13h28.24.462,torte-2b,2020.1.3,MacIntel,60,13241,,,,,,,,,,,,space,,,,,,7,0.368,0,30,30,30,1,,,,,,,,,,,,,,,,,,,,,,,,,,,,,,,,,,,,,,,,,
,,,,,,,,,,,,,,,,,,,,,,,,19,female,2020-09-08_13h28.24.462,torte-2b,2020.1.3,MacIntel,60,13241,,,,,,,,,,,,,,,,,,3,,0,31,31,31,1,,,,,,,,,,,,,,,,,,,,,,,,,,,,,,,,,,,,,,,,,
,,,,,,,,,,,,,,,,,,,,,,,,19,female,2020-09-08_13h28.24.462,torte-2b,2020.1.3,MacIntel,60,13241,,,,,,,,,,,,,,,,,,2,,0,32,32,32,1,,,,,,,,,,,,,,,,,,,,,,,,,,,,,,,,,,,,,,,,,
,,,,,,,,,,,,,,,,,,,,,,,,19,female,2020-09-08_13h28.24.462,torte-2b,2020.1.3,MacIntel,60,13241,,,,,,,,,,,,,,,,,,6,,0,33,33,33,1,,,,,,,,,,,,,,,,,,,,,,,,,,,,,,,,,,,,,,,,,
,,,,,,,,,,,,,,,,,,,,,,,,19,female,2020-09-08_13h28.24.462,torte-2b,2020.1.3,MacIntel,60,13241,,,,,,,,,,,,,,,,,,3,,0,34,34,34,1,,,,,,,,,,,,,,,,,,,,,,,,,,,,,,,,,,,,,,,,,
,,,,,,,,,,,,,,,,,,,,,,,,19,female,2020-09-08_13h28.24.462,torte-2b,2020.1.3,MacIntel,60,13241,,,,,,,,,,,,,,,,,,7,,,,,,,0,0,0,0,1,,,,,,,,,,,,,,,,,,,,,,,,,,,,,,,,,,,,
,,,,,,,,,,,,,,,,,,,,,,,,19,female,2020-09-08_13h28.24.462,torte-2b,2020.1.3,MacIntel,60,13241,,,,,,,,,,,,,,,,,,5,,,,,,,0,1,1,1,1,,,,,,,,,,,,,,,,,,,,,,,,,,,,,,,,,,,,
,,,,,,,,,,,,,,,,,,,,,,,,19,female,2020-09-08_13h28.24.462,torte-2b,2020.1.3,MacIntel,60,13241,,,,,,,,,,,,,,,,,,4,,,,,,,0,2,2,2,1,,,,,,,,,,,,,,,,,,,,,,,,,,,,,,,,,,,,
,,,,,,,,,,,,,,,,,,,,,,,,19,female,2020-09-08_13h28.24.462,torte-2b,2020.1.3,MacIntel,60,13241,,,,,,,,,,,,space,,,,,,5,0.383,,,,,,0,3,3,3,1,,,,,,,,,,,,,,,,,,,,,,,,,,,,,,,,,,,,
,,,,,,,,,,,,,,,,,,,,,,,,19,female,2020-09-08_13h28.24.462,torte-2b,2020.1.3,MacIntel,60,13241,,,,,,,,,,,,,,,,,,6,,,,,,,0,4,4,4,1,,,,,,,,,,,,,,,,,,,,,,,,,,,,,,,,,,,,
,,,,,,,,,,,,,,,,,,,,,,,,19,female,2020-09-08_13h28.24.462,torte-2b,2020.1.3,MacIntel,60,13241,,,,,,,,,,,,space,,,,,,5,0.521,,,,,,0,5,5,5,1,,,,,,,,,,,,,,,,,,,,,,,,,,,,,,,,,,,,
,,,,,,,,,,,,,,,,,,,,,,,,19,female,2020-09-08_13h28.24.462,torte-2b,2020.1.3,MacIntel,60,13241,,,,,,,,,,,,,,,,,,3,,,,,,,0,6,6,6,1,,,,,,,,,,,,,,,,,,,,,,,,,,,,,,,,,,,,
,,,,,,,,,,,,,,,,,,,,,,,,19,female,2020-09-08_13h28.24.462,torte-2b,2020.1.3,MacIntel,60,13241,,,,,,,,,,,,,,,,,,4,,,,,,,0,7,7,7,1,,,,,,,,,,,,,,,,,,,,,,,,,,,,,,,,,,,,
,,,,,,,,,,,,,,,,,,,,,,,,19,female,2020-09-08_13h28.24.462,torte-2b,2020.1.3,MacIntel,60,13241,,,,,,,,,,,,space,,,,,,3,0.613,,,,,,0,8,8,8,1,,,,,,,,,,,,,,,,,,,,,,,,,,,,,,,,,,,,
,,,,,,,,,,,,,,,,,,,,,,,,19,female,2020-09-08_13h28.24.462,torte-2b,2020.1.3,MacIntel,60,13241,,,,,,,,,,,,,,,,,,1,,,,,,,0,9,9,9,1,,,,,,,,,,,,,,,,,,,,,,,,,,,,,,,,,,,,
,,,,,,,,,,,,,,,,,,,,,,,,19,female,2020-09-08_13h28.24.462,torte-2b,2020.1.3,MacIntel,60,13241,,,,,,,,,,,,,,,,,,2,,,,,,,0,10,10,10,1,,,,,,,,,,,,,,,,,,,,,,,,,,,,,,,,,,,,
,,,,,,,,,,,,,,,,,,,,,,,,19,female,2020-09-08_13h28.24.462,torte-2b,2020.1.3,MacIntel,60,13241,,,,,,,,,,,,space,,,,,,1,0.523,,,,,,0,11,11,11,1,,,,,,,,,,,,,,,,,,,,,,,,,,,,,,,,,,,,
,,,,,,,,,,,,,,,,,,,,,,,,19,female,2020-09-08_13h28.24.462,torte-2b,2020.1.3,MacIntel,60,13241,,,,,,,,,,,,space,,,,,,2,0.98,,,,,,0,12,12,12,1,,,,,,,,,,,,,,,,,,,,,,,,,,,,,,,,,,,,
,,,,,,,,,,,,,,,,,,,,,,,,19,female,2020-09-08_13h28.24.462,torte-2b,2020.1.3,MacIntel,60,13241,,,,,,,,,,,,space,,,,,,1,1.005,,,,,,0,13,13,13,1,,,,,,,,,,,,,,,,,,,,,,,,,,,,,,,,,,,,
,,,,,,,,,,,,,,,,,,,,,,,,19,female,2020-09-08_13h28.24.462,torte-2b,2020.1.3,MacIntel,60,13241,,,,,,,,,,,,,,,,,,3,,,,,,,0,14,14,14,1,,,,,,,,,,,,,,,,,,,,,,,,,,,,,,,,,,,,
,,,,,,,,,,,,,,,,,,,,,,,,19,female,2020-09-08_13h28.24.462,torte-2b,2020.1.3,MacIntel,60,13241,,,,,,,,,,,,space,,,,,,1,0.466,,,,,,0,15,15,15,1,,,,,,,,,,,,,,,,,,,,,,,,,,,,,,,,,,,,
,,,,,,,,,,,,,,,,,,,,,,,,19,female,2020-09-08_13h28.24.462,torte-2b,2020.1.3,MacIntel,60,13241,,,,,,,,,,,,,,,,,,7,,,,,,,0,16,16,16,1,,,,,,,,,,,,,,,,,,,,,,,,,,,,,,,,,,,,
,,,,,,,,,,,,,,,,,,,,,,,,19,female,2020-09-08_13h28.24.462,torte-2b,2020.1.3,MacIntel,60,13241,,,,,,,,,,,,space,,,,,,7,0.515,,,,,,0,17,17,17,1,,,,,,,,,,,,,,,,,,,,,,,,,,,,,,,,,,,,
,,,,,,,,,,,,,,,,,,,,,,,,19,female,2020-09-08_13h28.24.462,torte-2b,2020.1.3,MacIntel,60,13241,,,,,,,,,,,,space,,,,,,4,0.524,,,,,,0,18,18,18,1,,,,,,,,,,,,,,,,,,,,,,,,,,,,,,,,,,,,
,,,,,,,,,,,,,,,,,,,,,,,,19,female,2020-09-08_13h28.24.462,torte-2b,2020.1.3,MacIntel,60,13241,,,,,,,,,,,,space,,,,,,7,0.348,,,,,,0,19,19,19,1,,,,,,,,,,,,,,,,,,,,,,,,,,,,,,,,,,,,
,,,,,,,,,,,,,,,,,,,,,,,,19,female,2020-09-08_13h28.24.462,torte-2b,2020.1.3,MacIntel,60,13241,,,,,,,,,,,,,,,,,,3,,,,,,,0,20,20,20,1,,,,,,,,,,,,,,,,,,,,,,,,,,,,,,,,,,,,
,,,,,,,,,,,,,,,,,,,,,,,,19,female,2020-09-08_13h28.24.462,torte-2b,2020.1.3,MacIntel,60,13241,,,,,,,,,,,,space,,,,,,7,0.486,,,,,,0,21,21,21,1,,,,,,,,,,,,,,,,,,,,,,,,,,,,,,,,,,,,
,,,,,,,,,,,,,,,,,,,,,,,,19,female,2020-09-08_13h28.24.462,torte-2b,2020.1.3,MacIntel,60,13241,,,,,,,,,,,,,,,,,,3,,,,,,,0,22,22,22,1,,,,,,,,,,,,,,,,,,,,,,,,,,,,,,,,,,,,
,,,,,,,,,,,,,,,,,,,,,,,,19,female,2020-09-08_13h28.24.462,torte-2b,2020.1.3,MacIntel,60,13241,,,,,,,,,,,,space,,,,,,1,0.352,,,,,,0,23,23,23,1,,,,,,,,,,,,,,,,,,,,,,,,,,,,,,,,,,,,
,,,,,,,,,,,,,,,,,,,,,,,,19,female,2020-09-08_13h28.24.462,torte-2b,2020.1.3,MacIntel,60,13241,,,,,,,,,,,,,,,,,,6,,,,,,,0,24,24,24,1,,,,,,,,,,,,,,,,,,,,,,,,,,,,,,,,,,,,
,,,,,,,,,,,,,,,,,,,,,,,,19,female,2020-09-08_13h28.24.462,torte-2b,2020.1.3,MacIntel,60,13241,,,,,,,,,,,,,,,,,,3,,,,,,,0,25,25,25,1,,,,,,,,,,,,,,,,,,,,,,,,,,,,,,,,,,,,
,,,,,,,,,,,,,,,,,,,,,,,,19,female,2020-09-08_13h28.24.462,torte-2b,2020.1.3,MacIntel,60,13241,,,,,,,,,,,,,,,,,,2,,,,,,,0,26,26,26,1,,,,,,,,,,,,,,,,,,,,,,,,,,,,,,,,,,,,
,,,,,,,,,,,,,,,,,,,,,,,,19,female,2020-09-08_13h28.24.462,torte-2b,2020.1.3,MacIntel,60,13241,,,,,,,,,,,,space,,,,,,3,0.497,,,,,,0,27,27,27,1,,,,,,,,,,,,,,,,,,,,,,,,,,,,,,,,,,,,
,,,,,,,,,,,,,,,,,,,,,,,,19,female,2020-09-08_13h28.24.462,torte-2b,2020.1.3,MacIntel,60,13241,,,,,,,,,,,,,,,,,,1,,,,,,,0,28,28,28,1,,,,,,,,,,,,,,,,,,,,,,,,,,,,,,,,,,,,
,,,,,,,,,,,,,,,,,,,,,,,,19,female,2020-09-08_13h28.24.462,torte-2b,2020.1.3,MacIntel,60,13241,,,,,,,,,,,,space,,,,,,3,0.371,,,,,,0,29,29,29,1,,,,,,,,,,,,,,,,,,,,,,,,,,,,,,,,,,,,
,,,,,,,,,,,,,,,,,,,,,,,,19,female,2020-09-08_13h28.24.462,torte-2b,2020.1.3,MacIntel,60,13241,,,,,,,,,,,,,,,,,,1,,,,,,,0,30,30,30,1,,,,,,,,,,,,,,,,,,,,,,,,,,,,,,,,,,,,
,,,,,,,,,,,,,,,,,,,,,,,,19,female,2020-09-08_13h28.24.462,torte-2b,2020.1.3,MacIntel,60,13241,,,,,,,,,,,,,,,,,,7,,,,,,,0,31,31,31,1,,,,,,,,,,,,,,,,,,,,,,,,,,,,,,,,,,,,
,,,,,,,,,,,,,,,,,,,,,,,,19,female,2020-09-08_13h28.24.462,torte-2b,2020.1.3,MacIntel,60,13241,,,,,,,,,,,,,,,,,,5,,,,,,,0,32,32,32,1,,,,,,,,,,,,,,,,,,,,,,,,,,,,,,,,,,,,
,,,,,,,,,,,,,,,,,,,,,,,,19,female,2020-09-08_13h28.24.462,torte-2b,2020.1.3,MacIntel,60,13241,,,,,,,,,,,,space,,,,,,7,0.632,,,,,,0,33,33,33,1,,,,,,,,,,,,,,,,,,,,,,,,,,,,,,,,,,,,
,,,,,,,,,,,,,,,,,,,,,,,,19,female,2020-09-08_13h28.24.462,torte-2b,2020.1.3,MacIntel,60,13241,,,,,,,,,,,,,,,,,,2,,,,,,,0,34,34,34,1,,,,,,,,,,,,,,,,,,,,,,,,,,,,,,,,,,,,
,,,,,,,,,,,,,,,,,,,,,,,,19,female,2020-09-08_13h28.24.462,torte-2b,2020.1.3,MacIntel,60,13241,,,,,,,,,,,,,,,,,,3,,,,,,,,,,,,0,0,0,0,1,,,,,,,,,,,,,,,,,,,,,,,,,,,,,,,
,,,,,,,,,,,,,,,,,,,,,,,,19,female,2020-09-08_13h28.24.462,torte-2b,2020.1.3,MacIntel,60,13241,,,,,,,,,,,,,,,,,,7,,,,,,,,,,,,0,1,1,1,1,,,,,,,,,,,,,,,,,,,,,,,,,,,,,,,
,,,,,,,,,,,,,,,,,,,,,,,,19,female,2020-09-08_13h28.24.462,torte-2b,2020.1.3,MacIntel,60,13241,,,,,,,,,,,,,,,,,,7,,,,,,,,,,,,0,2,2,2,1,,,,,,,,,,,,,,,,,,,,,,,,,,,,,,,
,,,,,,,,,,,,,,,,,,,,,,,,19,female,2020-09-08_13h28.24.462,torte-2b,2020.1.3,MacIntel,60,13241,,,,,,,,,,,,,,,,,,4,,,,,,,,,,,,0,3,3,3,1,,,,,,,,,,,,,,,,,,,,,,,,,,,,,,,
,,,,,,,,,,,,,,,,,,,,,,,,19,female,2020-09-08_13h28.24.462,torte-2b,2020.1.3,MacIntel,60,13241,,,,,,,,,,,,,,,,,,5,,,,,,,,,,,,0,4,4,4,1,,,,,,,,,,,,,,,,,,,,,,,,,,,,,,,
,,,,,,,,,,,,,,,,,,,,,,,,19,female,2020-09-08_13h28.24.462,torte-2b,2020.1.3,MacIntel,60,13241,,,,,,,,,,,,space,,,,,,4,0.614,,,,,,,,,,,0,5,5,5,1,,,,,,,,,,,,,,,,,,,,,,,,,,,,,,,
,,,,,,,,,,,,,,,,,,,,,,,,19,female,2020-09-08_13h28.24.462,torte-2b,2020.1.3,MacIntel,60,13241,,,,,,,,,,,,,,,,,,2,,,,,,,,,,,,0,6,6,6,1,,,,,,,,,,,,,,,,,,,,,,,,,,,,,,,
,,,,,,,,,,,,,,,,,,,,,,,,19,female,2020-09-08_13h28.24.462,torte-2b,2020.1.3,MacIntel,60,13241,,,,,,,,,,,,,,,,,,4,,,,,,,,,,,,0,7,7,7,1,,,,,,,,,,,,,,,,,,,,,,,,,,,,,,,
,,,,,,,,,,,,,,,,,,,,,,,,19,female,2020-09-08_13h28.24.462,torte-2b,2020.1.3,MacIntel,60,13241,,,,,,,,,,,,space,,,,,,2,0.447,,,,,,,,,,,0,8,8,8,1,,,,,,,,,,,,,,,,,,,,,,,,,,,,,,,
,,,,,,,,,,,,,,,,,,,,,,,,19,female,2020-09-08_13h28.24.462,torte-2b,2020.1.3,MacIntel,60,13241,,,,,,,,,,,,,,,,,,2,,,,,,,,,,,,0,9,9,9,1,,,,,,,,,,,,,,,,,,,,,,,,,,,,,,,
,,,,,,,,,,,,,,,,,,,,,,,,19,female,2020-09-08_13h28.24.462,torte-2b,2020.1.3,MacIntel,60,13241,,,,,,,,,,,,,,,,,,6,,,,,,,,,,,,0,10,10,10,1,,,,,,,,,,,,,,,,,,,,,,,,,,,,,,,
,,,,,,,,,,,,,,,,,,,,,,,,19,female,2020-09-08_13h28.24.462,torte-2b,2020.1.3,MacIntel,60,13241,,,,,,,,,,,,space,,,,,,2,0.385,,,,,,,,,,,0,11,11,11,1,,,,,,,,,,,,,,,,,,,,,,,,,,,,,,,
,,,,,,,,,,,,,,,,,,,,,,,,19,female,2020-09-08_13h28.24.462,torte-2b,2020.1.3,MacIntel,60,13241,,,,,,,,,,,,space,,,,,,2,0.563,,,,,,,,,,,0,12,12,12,1,,,,,,,,,,,,,,,,,,,,,,,,,,,,,,,
,,,,,,,,,,,,,,,,,,,,,,,,19,female,2020-09-08_13h28.24.462,torte-2b,2020.1.3,MacIntel,60,13241,,,,,,,,,,,,,,,,,,2,,,,,,,,,,,,0,13,13,13,1,,,,,,,,,,,,,,,,,,,,,,,,,,,,,,,
,,,,,,,,,,,,,,,,,,,,,,,,19,female,2020-09-08_13h28.24.462,torte-2b,2020.1.3,MacIntel,60,13241,,,,,,,,,,,,space,,,,,,2,0.447,,,,,,,,,,,0,14,14,14,1,,,,,,,,,,,,,,,,,,,,,,,,,,,,,,,
,,,,,,,,,,,,,,,,,,,,,,,,19,female,2020-09-08_13h28.24.462,torte-2b,2020.1.3,MacIntel,60,13241,,,,,,,,,,,,space,,,,,,4,0.73,,,,,,,,,,,0,15,15,15,1,,,,,,,,,,,,,,,,,,,,,,,,,,,,,,,
,,,,,,,,,,,,,,,,,,,,,,,,19,female,2020-09-08_13h28.24.462,torte-2b,2020.1.3,MacIntel,60,13241,,,,,,,,,,,,,,,,,,3,,,,,,,,,,,,0,16,16,16,1,,,,,,,,,,,,,,,,,,,,,,,,,,,,,,,
,,,,,,,,,,,,,,,,,,,,,,,,19,female,2020-09-08_13h28.24.462,torte-2b,2020.1.3,MacIntel,60,13241,,,,,,,,,,,,space,,,,,,7,0.303,,,,,,,,,,,0,17,17,17,1,,,,,,,,,,,,,,,,,,,,,,,,,,,,,,,
,,,,,,,,,,,,,,,,,,,,,,,,19,female,2020-09-08_13h28.24.462,torte-2b,2020.1.3,MacIntel,60,13241,,,,,,,,,,,,,,,,,,4,,,,,,,,,,,,0,18,18,18,1,,,,,,,,,,,,,,,,,,,,,,,,,,,,,,,
,,,,,,,,,,,,,,,,,,,,,,,,19,female,2020-09-08_13h28.24.462,torte-2b,2020.1.3,MacIntel,60,13241,,,,,,,,,,,,space,,,,,,7,0.147,,,,,,,,,,,0,19,19,19,1,,,,,,,,,,,,,,,,,,,,,,,,,,,,,,,
,,,,,,,,,,,,,,,,,,,,,,,,19,female,2020-09-08_13h28.24.462,torte-2b,2020.1.3,MacIntel,60,13241,,,,,,,,,,,,space,,,,,,7,0.341,,,,,,,,,,,0,20,20,20,1,,,,,,,,,,,,,,,,,,,,,,,,,,,,,,,
,,,,,,,,,,,,,,,,,,,,,,,,19,female,2020-09-08_13h28.24.462,torte-2b,2020.1.3,MacIntel,60,13241,,,,,,,,,,,,space,,,,,,7,0.92,,,,,,,,,,,0,21,21,21,1,,,,,,,,,,,,,,,,,,,,,,,,,,,,,,,
,,,,,,,,,,,,,,,,,,,,,,,,19,female,2020-09-08_13h28.24.462,torte-2b,2020.1.3,MacIntel,60,13241,,,,,,,,,,,,,,,,,,7,,,,,,,,,,,,0,22,22,22,1,,,,,,,,,,,,,,,,,,,,,,,,,,,,,,,
,,,,,,,,,,,,,,,,,,,,,,,,19,female,2020-09-08_13h28.24.462,torte-2b,2020.1.3,MacIntel,60,13241,,,,,,,,,,,,space,,,,,,1,0.857,,,,,,,,,,,0,23,23,23,1,,,,,,,,,,,,,,,,,,,,,,,,,,,,,,,
,,,,,,,,,,,,,,,,,,,,,,,,19,female,2020-09-08_13h28.24.462,torte-2b,2020.1.3,MacIntel,60,13241,,,,,,,,,,,,space,,,,,,7,1.631,,,,,,,,,,,0,24,24,24,1,,,,,,,,,,,,,,,,,,,,,,,,,,,,,,,
,,,,,,,,,,,,,,,,,,,,,,,,19,female,2020-09-08_13h28.24.462,torte-2b,2020.1.3,MacIntel,60,13241,,,,,,,,,,,,,,,,,,1,,,,,,,,,,,,0,25,25,25,1,,,,,,,,,,,,,,,,,,,,,,,,,,,,,,,
,,,,,,,,,,,,,,,,,,,,,,,,19,female,2020-09-08_13h28.24.462,torte-2b,2020.1.3,MacIntel,60,13241,,,,,,,,,,,,space,,,,,,7,1.115,,,,,,,,,,,0,26,26,26,1,,,,,,,,,,,,,,,,,,,,,,,,,,,,,,,
,,,,,,,,,,,,,,,,,,,,,,,,19,female,2020-09-08_13h28.24.462,torte-2b,2020.1.3,MacIntel,60,13241,,,,,,,,,,,,,,,,,,2,,,,,,,,,,,,0,27,27,27,1,,,,,,,,,,,,,,,,,,,,,,,,,,,,,,,
,,,,,,,,,,,,,,,,,,,,,,,,19,female,2020-09-08_13h28.24.462,torte-2b,2020.1.3,MacIntel,60,13241,,,,,,,,,,,,space,,,,,,5,1.265,,,,,,,,,,,0,28,28,28,1,,,,,,,,,,,,,,,,,,,,,,,,,,,,,,,
,,,,,,,,,,,,,,,,,,,,,,,,19,female,2020-09-08_13h28.24.462,torte-2b,2020.1.3,MacIntel,60,13241,,,,,,,,,,,,space,,,,,,5,0.802,,,,,,,,,,,0,29,29,29,1,,,,,,,,,,,,,,,,,,,,,,,,,,,,,,,
,,,,,,,,,,,,,,,,,,,,,,,,19,female,2020-09-08_13h28.24.462,torte-2b,2020.1.3,MacIntel,60,13241,,,,,,,,,,,,,,,,,,5,,,,,,,,,,,,0,30,30,30,1,,,,,,,,,,,,,,,,,,,,,,,,,,,,,,,
,,,,,,,,,,,,,,,,,,,,,,,,19,female,2020-09-08_13h28.24.462,torte-2b,2020.1.3,MacIntel,60,13241,,,,,,,,,,,,space,,,,,,1,0.765,,,,,,,,,,,0,31,31,31,1,,,,,,,,,,,,,,,,,,,,,,,,,,,,,,,
,,,,,,,,,,,,,,,,,,,,,,,,19,female,2020-09-08_13h28.24.462,torte-2b,2020.1.3,MacIntel,60,13241,,,,,,,,,,,,,,,,,,5,,,,,,,,,,,,0,32,32,32,1,,,,,,,,,,,,,,,,,,,,,,,,,,,,,,,
,,,,,,,,,,,,,,,,,,,,,,,,19,female,2020-09-08_13h28.24.462,torte-2b,2020.1.3,MacIntel,60,13241,,,,,,,,,,,,space,,,,,,3,0.733,,,,,,,,,,,0,33,33,33,1,,,,,,,,,,,,,,,,,,,,,,,,,,,,,,,
,,,,,,,,,,,,,,,,,,,,,,,,19,female,2020-09-08_13h28.24.462,torte-2b,2020.1.3,MacIntel,60,13241,,,,,,,,,,,,,,,,,,3,,,,,,,,,,,,0,34,34,34,1,,,,,,,,,,,,,,,,,,,,,,,,,,,,,,,
,,,,,,,,,,,,a,0.949,Correct!,,,,,,t5.png,t4.png,1,0.90025,19,female,2020-09-08_13h28.24.462,torte-2b,2020.1.3,MacIntel,60,13241,space,1.676,,,,,,,,,,,,,,,,,,,,,,,,,,,,,,,,,k,0.817,0,0,0,27,1,,,,,,,,,,,,,,,,,,,,,,,,
,,,,,,,,,,,,a,0.65,Correct!,,,,,,t2.png,t1.png,1,0.9,19,female,2020-09-08_13h28.24.462,torte-2b,2020.1.3,MacIntel,60,13241,,,,,,,,,,,,,,,,,,,,,,,,,,,,,,,,,,,,,0,1,1,118,1,,,,,,,,,,,,,,,,,,,,,,,,
,,,,,,,,,,,,l,0.716,Incorrect,,,,,,t4.png,t5.png,1,0.90025,19,female,2020-09-08_13h28.24.462,torte-2b,2020.1.3,MacIntel,60,13241,,,,,,,,,,,,,,,,,,,,,,,,,,,,,,,,,,,,,0,2,2,58,1,,,,,,,,,,,,,,,,,,,,,,,,
,,,,,,,,,,,,a,0.421,Incorrect,,,,,,t5.png,t2.png,3,0.0000131,19,female,2020-09-08_13h28.24.462,torte-2b,2020.1.3,MacIntel,60,13241,,,,,,,,,,,,,,,,,,,,,,,,,,,,,,,,,,,,,0,3,3,91,1,,,,,,,,,,,,,,,,,,,,,,,,
,,,,,,,,,,,,l,0.752,Incorrect,,,,,,t2.png,t3.png,1,0.909,19,female,2020-09-08_13h28.24.462,torte-2b,2020.1.3,MacIntel,60,13241,,,,,,,,,,,,,,,,,,,,,,,,,,,,,,,,,,,,,0,4,4,74,1,,,,,,,,,,,,,,,,,,,,,,,,
,,,,,,,,,,,,a,0.433,Incorrect,,,,,,t5.png,t2.png,3,0.0000131,19,female,2020-09-08_13h28.24.462,torte-2b,2020.1.3,MacIntel,60,13241,,,,,,,,,,,,,,,,,,,,,,,,,,,,,,,,,,,,,0,5,5,119,1,,,,,,,,,,,,,,,,,,,,,,,,
,,,,,,,,,,,,a,0.449,Incorrect,,,,,,t3.png,t1.png,2,0.056466,19,female,2020-09-08_13h28.24.462,torte-2b,2020.1.3,MacIntel,60,13241,,,,,,,,,,,,,,,,,,,,,,,,,,,,,,,,,,,,,0,6,6,32,1,,,,,,,,,,,,,,,,,,,,,,,,
,,,,,,,,,,,,l,0.701,Incorrect,,,,,,t4.png,t4.png,0,0.98115,19,female,2020-09-08_13h28.24.462,torte-2b,2020.1.3,MacIntel,60,13241,,,,,,,,,,,,,,,,,,,,,,,,,,,,,,,,,,,,,0,7,7,90,1,,,,,,,,,,,,,,,,,,,,,,,,
,,,,,,,,,,,,l,0.504,Correct!,,,,,,t3.png,t5.png,2,0.0565,19,female,2020-09-08_13h28.24.462,torte-2b,2020.1.3,MacIntel,60,13241,,,,,,,,,,,,,,,,,,,,,,,,,,,,,,,,,,,,,0,8,8,83,1,,,,,,,,,,,,,,,,,,,,,,,,
,,,,,,,,,,,,l,0.472,Correct!,,,,,,t2.png,t4.png,2,0.059078,19,female,2020-09-08_13h28.24.462,torte-2b,2020.1.3,MacIntel,60,13241,,,,,,,,,,,,,,,,,,,,,,,,,,,,,,,,,,,,,0,9,9,37,1,,,,,,,,,,,,,,,,,,,,,,,,
,,,,,,,,,,,,a,0.599,Correct!,,,,,,t3.png,t2.png,1,0.90855,19,female,2020-09-08_13h28.24.462,torte-2b,2020.1.3,MacIntel,60,13241,,,,,,,,,,,,,,,,,,,,,,,,,,,,,,,,,,,,,0,10,10,53,1,,,,,,,,,,,,,,,,,,,,,,,,
,,,,,,,,,,,,l,0.665,Incorrect,,,,,,t1.png,t2.png,1,0.90025,19,female,2020-09-08_13h28.24.462,torte-2b,2020.1.3,MacIntel,60,13241,,,,,,,,,,,,,,,,,,,,,,,,,,,,,,,,,,,,,0,11,11,72,1,,,,,,,,,,,,,,,,,,,,,,,,
,,,,,,,,,,,,l,0.655,Correct!,,,,,,t3.png,t5.png,2,0.056466,19,female,2020-09-08_13h28.24.462,torte-2b,2020.1.3,MacIntel,60,13241,,,,,,,,,,,,,,,,,,,,,,,,,,,,,,,,,,,,,0,12,12,14,1,,,,,,,,,,,,,,,,,,,,,,,,
,,,,,,,,,,,,l,0.79,Incorrect,,,,,,t1.png,t1.png,0,0.97829,19,female,2020-09-08_13h28.24.462,torte-2b,2020.1.3,MacIntel,60,13241,,,,,,,,,,,,,,,,,,,,,,,,,,,,,,,,,,,,,0,13,13,78,1,,,,,,,,,,,,,,,,,,,,,,,,
,,,,,,,,,,,,a,0.439,Correct!,,,,,,t3.png,t1.png,2,0.056466,19,female,2020-09-08_13h28.24.462,torte-2b,2020.1.3,MacIntel,60,13241,,,,,,,,,,,,,,,,,,,,,,,,,,,,,,,,,,,,,0,14,14,0,1,,,,,,,,,,,,,,,,,,,,,,,,
,,,,,,,,,,,,a,0.534,Correct!,,,,,,t3.png,t2.png,1,0.90855,19,female,2020-09-08_13h28.24.462,torte-2b,2020.1.3,MacIntel,60,13241,,,,,,,,,,,,,,,,,,,,,,,,,,,,,,,,,,,,,0,15,15,18,1,,,,,,,,,,,,,,,,,,,,,,,,
,,,,,,,,,,,,l,0.848,Incorrect,,,,,,t5.png,t5.png,0,0.97829,19,female,2020-09-08_13h28.24.462,torte-2b,2020.1.3,MacIntel,60,13241,,,,,,,,,,,,,,,,,,,,,,,,,,,,,,,,,,,,,0,16,16,25,1,,,,,,,,,,,,,,,,,,,,,,,,
,,,,,,,,,,,,a,0.507,Incorrect,,,,,,t5.png,t3.png,2,0.056466,19,female,2020-09-08_13h28.24.462,torte-2b,2020.1.3,MacIntel,60,13241,,,,,,,,,,,,,,,,,,,,,,,,,,,,,,,,,,,,,0,17,17,56,1,,,,,,,,,,,,,,,,,,,,,,,,
,,,,,,,,,,,,a,0.549,Incorrect,,,,,,t5.png,t3.png,2,0.0565,19,female,2020-09-08_13h28.24.462,torte-2b,2020.1.3,MacIntel,60,13241,,,,,,,,,,,,,,,,,,,,,,,,,,,,,,,,,,,,,0,18,18,39,1,,,,,,,,,,,,,,,,,,,,,,,,
,,,,,,,,,,,,l,0.671,Incorrect,,,,,,t4.png,t5.png,1,0.90025,19,female,2020-09-08_13h28.24.462,torte-2b,2020.1.3,MacIntel,60,13241,,,,,,,,,,,,,,,,,,,,,,,,,,,,,,,,,,,,,0,19,19,47,1,,,,,,,,,,,,,,,,,,,,,,,,
,,,,,,,,,,,,a,0.833,Correct!,,,,,,t3.png,t2.png,1,0.909,19,female,2020-09-08_13h28.24.462,torte-2b,2020.1.3,MacIntel,60,13241,,,,,,,,,,,,,,,,,,,,,,,,,,,,,,,,,,,,,0,20,20,23,1,,,,,,,,,,,,,,,,,,,,,,,,
,,,,,,,,,,,,a,1.567,Correct!,,,,,,t5.png,t4.png,1,0.90025,19,female,2020-09-08_13h28.24.462,torte-2b,2020.1.3,MacIntel,60,13241,,,,,,,,,,,,,,,,,,,,,,,,,,,,,,,,,,,,,0,21,21,26,1,,,,,,,,,,,,,,,,,,,,,,,,
,,,,,,,,,,,,l,0.45,Incorrect,,,,,,t5.png,t5.png,0,0.97829,19,female,2020-09-08_13h28.24.462,torte-2b,2020.1.3,MacIntel,60,13241,,,,,,,,,,,,,,,,,,,,,,,,,,,,,,,,,,,,,0,22,22,70,1,,,,,,,,,,,,,,,,,,,,,,,,
,,,,,,,,,,,,a,0.7,Correct!,,,,,,t4.png,t3.png,1,0.909,19,female,2020-09-08_13h28.24.462,torte-2b,2020.1.3,MacIntel,60,13241,,,,,,,,,,,,,,,,,,,,,,,,,,,,,,,,,,,,,0,23,23,20,1,,,,,,,,,,,,,,,,,,,,,,,,
,,,,,,,,,,,,l,0.457,Incorrect,,,,,,t2.png,t3.png,1,0.90855,19,female,2020-09-08_13h28.24.462,torte-2b,2020.1.3,MacIntel,60,13241,,,,,,,,,,,,,,,,,,,,,,,,,,,,,,,,,,,,,0,24,24,68,1,,,,,,,,,,,,,,,,,,,,,,,,
,,,,,,,,,,,,l,0.682,Incorrect,,,,,,t1.png,t1.png,0,0.97829,19,female,2020-09-08_13h28.24.462,torte-2b,2020.1.3,MacIntel,60,13241,,,,,,,,,,,,,,,,,,,,,,,,,,,,,,,,,,,,,0,25,25,9,1,,,,,,,,,,,,,,,,,,,,,,,,
,,,,,,,,,,,,a,0.5,Incorrect,,,,,,t5.png,t1.png,4,9.55E-11,19,female,2020-09-08_13h28.24.462,torte-2b,2020.1.3,MacIntel,60,13241,,,,,,,,,,,,,,,,,,,,,,,,,,,,,,,,,,,,,0,26,26,22,1,,,,,,,,,,,,,,,,,,,,,,,,
,,,,,,,,,,,,a,0.671,Correct!,,,,,,t2.png,t1.png,1,0.90025,19,female,2020-09-08_13h28.24.462,torte-2b,2020.1.3,MacIntel,60,13241,,,,,,,,,,,,,,,,,,,,,,,,,,,,,,,,,,,,,0,27,27,5,1,,,,,,,,,,,,,,,,,,,,,,,,
,,,,,,,,,,,,l,0.749,Incorrect,,,,,,t5.png,t5.png,0,0.978,19,female,2020-09-08_13h28.24.462,torte-2b,2020.1.3,MacIntel,60,13241,,,,,,,,,,,,,,,,,,,,,,,,,,,,,,,,,,,,,0,28,28,117,1,,,,,,,,,,,,,,,,,,,,,,,,
,,,,,,,,,,,,l,0.501,Incorrect,,,,,,t3.png,t4.png,1,0.909,19,female,2020-09-08_13h28.24.462,torte-2b,2020.1.3,MacIntel,60,13241,,,,,,,,,,,,,,,,,,,,,,,,,,,,,,,,,,,,,0,29,29,82,1,,,,,,,,,,,,,,,,,,,,,,,,
,,,,,,,,,,,,l,0.398,Correct!,,,,,,t2.png,t5.png,3,0.0000131,19,female,2020-09-08_13h28.24.462,torte-2b,2020.1.3,MacIntel,60,13241,,,,,,,,,,,,,,,,,,,,,,,,,,,,,,,,,,,,,0,30,30,8,1,,,,,,,,,,,,,,,,,,,,,,,,
,,,,,,,,,,,,a,0.401,Correct!,,,,,,t5.png,t3.png,2,0.056466,19,female,2020-09-08_13h28.24.462,torte-2b,2020.1.3,MacIntel,60,13241,,,,,,,,,,,,,,,,,,,,,,,,,,,,,,,,,,,,,0,31,31,108,1,,,,,,,,,,,,,,,,,,,,,,,,
,,,,,,,,,,,,a,0.485,Incorrect,,,,,,t4.png,t2.png,2,0.059078,19,female,2020-09-08_13h28.24.462,torte-2b,2020.1.3,MacIntel,60,13241,,,,,,,,,,,,,,,,,,,,,,,,,,,,,,,,,,,,,0,32,32,110,1,,,,,,,,,,,,,,,,,,,,,,,,
,,,,,,,,,,,,l,0.757,Incorrect,,,,,,t4.png,t4.png,0,0.98115,19,female,2020-09-08_13h28.24.462,torte-2b,2020.1.3,MacIntel,60,13241,,,,,,,,,,,,,,,,,,,,,,,,,,,,,,,,,,,,,0,33,33,80,1,,,,,,,,,,,,,,,,,,,,,,,,
,,,,,,,,,,,,l,0.438,Correct!,,,,,,t2.png,t5.png,3,0.0000131,19,female,2020-09-08_13h28.24.462,torte-2b,2020.1.3,MacIntel,60,13241,,,,,,,,,,,,,,,,,,,,,,,,,,,,,,,,,,,,,0,34,34,66,1,,,,,,,,,,,,,,,,,,,,,,,,
,,,,,,,,,,,,l,0.55,Incorrect,,,,,,t2.png,t3.png,1,0.90855,19,female,2020-09-08_13h28.24.462,torte-2b,2020.1.3,MacIntel,60,13241,,,,,,,,,,,,,,,,,,,,,,,,,,,,,,,,,,,,,0,35,35,111,1,,,,,,,,,,,,,,,,,,,,,,,,
,,,,,,,,,,,,a,0.59,Incorrect,,,,,,t5.png,t3.png,2,0.056466,19,female,2020-09-08_13h28.24.462,torte-2b,2020.1.3,MacIntel,60,13241,,,,,,,,,,,,,,,,,,,,,,,,,,,,,,,,,,,,,0,36,36,38,1,,,,,,,,,,,,,,,,,,,,,,,,
,,,,,,,,,,,,a,0.557,Incorrect,,,,,,t4.png,t2.png,2,0.059078,19,female,2020-09-08_13h28.24.462,torte-2b,2020.1.3,MacIntel,60,13241,,,,,,,,,,,,,,,,,,,,,,,,,,,,,,,,,,,,,0,37,37,86,1,,,,,,,,,,,,,,,,,,,,,,,,
,,,,,,,,,,,,l,0.684,Incorrect,,,,,,t4.png,t4.png,0,0.98115,19,female,2020-09-08_13h28.24.462,torte-2b,2020.1.3,MacIntel,60,13241,,,,,,,,,,,,,,,,,,,,,,,,,,,,,,,,,,,,,0,38,38,21,1,,,,,,,,,,,,,,,,,,,,,,,,
,,,,,,,,,,,,l,0.534,Incorrect,,,,,,t3.png,t4.png,1,0.90855,19,female,2020-09-08_13h28.24.462,torte-2b,2020.1.3,MacIntel,60,13241,,,,,,,,,,,,,,,,,,,,,,,,,,,,,,,,,,,,,0,39,39,84,1,,,,,,,,,,,,,,,,,,,,,,,,
,,,,,,,,,,,,a,0.432,Incorrect,,,,,,t5.png,t1.png,4,9.55E-11,19,female,2020-09-08_13h28.24.462,torte-2b,2020.1.3,MacIntel,60,13241,,,,,,,,,,,,,,,,,,,,,,,,,,,,,,,,,,,,,0,40,40,43,1,,,,,,,,,,,,,,,,,,,,,,,,
,,,,,,,,,,,,l,0.7,Incorrect,,,,,,t1.png,t1.png,0,0.978,19,female,2020-09-08_13h28.24.462,torte-2b,2020.1.3,MacIntel,60,13241,,,,,,,,,,,,,,,,,,,,,,,,,,,,,,,,,,,,,0,41,41,54,1,,,,,,,,,,,,,,,,,,,,,,,,
,,,,,,,,,,,,l,0.6,Correct!,,,,,,t1.png,t4.png,3,0.0000131,19,female,2020-09-08_13h28.24.462,torte-2b,2020.1.3,MacIntel,60,13241,,,,,,,,,,,,,,,,,,,,,,,,,,,,,,,,,,,,,0,42,42,50,1,,,,,,,,,,,,,,,,,,,,,,,,
,,,,,,,,,,,,a,0.62,Correct!,,,,,,t4.png,t3.png,1,0.90855,19,female,2020-09-08_13h28.24.462,torte-2b,2020.1.3,MacIntel,60,13241,,,,,,,,,,,,,,,,,,,,,,,,,,,,,,,,,,,,,0,43,43,35,1,,,,,,,,,,,,,,,,,,,,,,,,
,,,,,,,,,,,,l,0.523,Correct!,,,,,,t1.png,t5.png,4,9.55E-11,19,female,2020-09-08_13h28.24.462,torte-2b,2020.1.3,MacIntel,60,13241,,,,,,,,,,,,,,,,,,,,,,,,,,,,,,,,,,,,,0,44,44,55,1,,,,,,,,,,,,,,,,,,,,,,,,
,,,,,,,,,,,,l,0.5,Correct!,,,,,,t3.png,t5.png,2,0.0565,19,female,2020-09-08_13h28.24.462,torte-2b,2020.1.3,MacIntel,60,13241,,,,,,,,,,,,,,,,,,,,,,,,,,,,,,,,,,,,,0,45,45,30,1,,,,,,,,,,,,,,,,,,,,,,,,
,,,,,,,,,,,,a,0.583,Incorrect,,,,,,t4.png,t2.png,2,0.059078,19,female,2020-09-08_13h28.24.462,torte-2b,2020.1.3,MacIntel,60,13241,,,,,,,,,,,,,,,,,,,,,,,,,,,,,,,,,,,,,0,46,46,88,1,,,,,,,,,,,,,,,,,,,,,,,,
,,,,,,,,,,,,l,0.799,Incorrect,,,,,,t2.png,t2.png,0,0.98115,19,female,2020-09-08_13h28.24.462,torte-2b,2020.1.3,MacIntel,60,13241,,,,,,,,,,,,,,,,,,,,,,,,,,,,,,,,,,,,,0,47,47,57,1,,,,,,,,,,,,,,,,,,,,,,,,
,,,,,,,,,,,,a,0.555,Incorrect,,,,,,t3.png,t1.png,2,0.0565,19,female,2020-09-08_13h28.24.462,torte-2b,2020.1.3,MacIntel,60,13241,,,,,,,,,,,,,,,,,,,,,,,,,,,,,,,,,,,,,0,48,48,31,1,,,,,,,,,,,,,,,,,,,,,,,,
,,,,,,,,,,,,a,0.483,Incorrect,,,,,,t4.png,t2.png,2,0.059078,19,female,2020-09-08_13h28.24.462,torte-2b,2020.1.3,MacIntel,60,13241,,,,,,,,,,,,,,,,,,,,,,,,,,,,,,,,,,,,,0,49,49,109,1,,,,,,,,,,,,,,,,,,,,,,,,
,,,,,,,,,,,,l,0.567,Incorrect,,,,,,t2.png,t3.png,1,0.90855,19,female,2020-09-08_13h28.24.462,torte-2b,2020.1.3,MacIntel,60,13241,,,,,,,,,,,,,,,,,,,,,,,,,,,,,,,,,,,,,0,50,50,65,1,,,,,,,,,,,,,,,,,,,,,,,,
,,,,,,,,,,,,l,0.575,Incorrect,,,,,,t4.png,t5.png,1,0.90025,19,female,2020-09-08_13h28.24.462,torte-2b,2020.1.3,MacIntel,60,13241,,,,,,,,,,,,,,,,,,,,,,,,,,,,,,,,,,,,,0,51,51,113,1,,,,,,,,,,,,,,,,,,,,,,,,
,,,,,,,,,,,,a,0.422,Incorrect,,,,,,t5.png,t1.png,4,9.55E-11,19,female,2020-09-08_13h28.24.462,torte-2b,2020.1.3,MacIntel,60,13241,,,,,,,,,,,,,,,,,,,,,,,,,,,,,,,,,,,,,0,52,52,102,1,,,,,,,,,,,,,,,,,,,,,,,,
,,,,,,,,,,,,l,0.539,Correct!,,,,,,t1.png,t4.png,3,0.0000131,19,female,2020-09-08_13h28.24.462,torte-2b,2020.1.3,MacIntel,60,13241,,,,,,,,,,,,,,,,,,,,,,,,,,,,,,,,,,,,,0,53,53,92,1,,,,,,,,,,,,,,,,,,,,,,,,
,,,,,,,,,,,,l,0.406,Correct!,,,,,,t1.png,t4.png,3,0.0000131,19,female,2020-09-08_13h28.24.462,torte-2b,2020.1.3,MacIntel,60,13241,,,,,,,,,,,,,,,,,,,,,,,,,,,,,,,,,,,,,0,54,54,107,1,,,,,,,,,,,,,,,,,,,,,,,,
,,,,,,,,,,,,l,0.421,Correct!,,,,,,t1.png,t4.png,3,0.0000131,19,female,2020-09-08_13h28.24.462,torte-2b,2020.1.3,MacIntel,60,13241,,,,,,,,,,,,,,,,,,,,,,,,,,,,,,,,,,,,,0,55,55,17,1,,,,,,,,,,,,,,,,,,,,,,,,
,,,,,,,,,,,,l,0.383,Correct!,,,,,,t1.png,t3.png,2,0.056466,19,female,2020-09-08_13h28.24.462,torte-2b,2020.1.3,MacIntel,60,13241,,,,,,,,,,,,,,,,,,,,,,,,,,,,,,,,,,,,,0,56,56,63,1,,,,,,,,,,,,,,,,,,,,,,,,
,,,,,,,,,,,,a,0.489,Incorrect,,,,,,t5.png,t1.png,4,9.55E-11,19,female,2020-09-08_13h28.24.462,torte-2b,2020.1.3,MacIntel,60,13241,,,,,,,,,,,,,,,,,,,,,,,,,,,,,,,,,,,,,0,57,57,100,1,,,,,,,,,,,,,,,,,,,,,,,,
,,,,,,,,,,,,l,0.541,Correct!,,,,,,t2.png,t4.png,2,0.059078,19,female,2020-09-08_13h28.24.462,torte-2b,2020.1.3,MacIntel,60,13241,,,,,,,,,,,,,,,,,,,,,,,,,,,,,,,,,,,,,0,58,58,77,1,,,,,,,,,,,,,,,,,,,,,,,,
,,,,,,,,,,,,l,0.499,Correct!,,,,,,t1.png,t3.png,2,0.056466,19,female,2020-09-08_13h28.24.462,torte-2b,2020.1.3,MacIntel,60,13241,,,,,,,,,,,,,,,,,,,,,,,,,,,,,,,,,,,,,0,59,59,60,1,,,,,,,,,,,,,,,,,,,,,,,,
,,,,,,,,,,,,l,1.031,Incorrect,,,,,,t2.png,t2.png,0,0.98115,19,female,2020-09-08_13h28.24.462,torte-2b,2020.1.3,MacIntel,60,13241,,,,,,,,,,,,,,,,,,,,,,,,,,,,,,,,,,,,,0,60,60,59,1,,,,,,,,,,,,,,,,,,,,,,,,
,,,,,,,,,,,,a,0.488,Correct!,,,,,,t4.png,t3.png,1,0.909,19,female,2020-09-08_13h28.24.462,torte-2b,2020.1.3,MacIntel,60,13241,,,,,,,,,,,,,,,,,,,,,,,,,,,,,,,,,,,,,0,61,61,46,1,,,,,,,,,,,,,,,,,,,,,,,,
,,,,,,,,,,,,l,0.422,Correct!,,,,,,t1.png,t5.png,4,9.55E-11,19,female,2020-09-08_13h28.24.462,torte-2b,2020.1.3,MacIntel,60,13241,,,,,,,,,,,,,,,,,,,,,,,,,,,,,,,,,,,,,0,62,62,85,1,,,,,,,,,,,,,,,,,,,,,,,,
,,,,,,,,,,,,l,0.585,Incorrect,,,,,,t1.png,t1.png,0,0.978,19,female,2020-09-08_13h28.24.462,torte-2b,2020.1.3,MacIntel,60,13241,,,,,,,,,,,,,,,,,,,,,,,,,,,,,,,,,,,,,0,63,63,28,1,,,,,,,,,,,,,,,,,,,,,,,,
,,,,,,,,,,,,l,0.83,Incorrect,,,,,,t3.png,t4.png,1,0.909,19,female,2020-09-08_13h28.24.462,torte-2b,2020.1.3,MacIntel,60,13241,,,,,,,,,,,,,,,,,,,,,,,,,,,,,,,,,,,,,0,64,64,106,1,,,,,,,,,,,,,,,,,,,,,,,,
,,,,,,,,,,,,l,0.458,Correct!,,,,,,t1.png,t5.png,4,9.55E-11,19,female,2020-09-08_13h28.24.462,torte-2b,2020.1.3,MacIntel,60,13241,,,,,,,,,,,,,,,,,,,,,,,,,,,,,,,,,,,,,0,65,65,41,1,,,,,,,,,,,,,,,,,,,,,,,,
,,,,,,,,,,,,l,0.366,Correct!,,,,,,t3.png,t5.png,2,0.056466,19,female,2020-09-08_13h28.24.462,torte-2b,2020.1.3,MacIntel,60,13241,,,,,,,,,,,,,,,,,,,,,,,,,,,,,,,,,,,,,0,66,66,6,1,,,,,,,,,,,,,,,,,,,,,,,,
,,,,,,,,,,,,a,0.621,Incorrect,,,,,,t5.png,t4.png,1,0.9,19,female,2020-09-08_13h28.24.462,torte-2b,2020.1.3,MacIntel,60,13241,,,,,,,,,,,,,,,,,,,,,,,,,,,,,,,,,,,,,0,67,67,49,1,,,,,,,,,,,,,,,,,,,,,,,,
,,,,,,,,,,,,l,0.466,Correct!,,,,,,t1.png,t3.png,2,0.056466,19,female,2020-09-08_13h28.24.462,torte-2b,2020.1.3,MacIntel,60,13241,,,,,,,,,,,,,,,,,,,,,,,,,,,,,,,,,,,,,0,68,68,69,1,,,,,,,,,,,,,,,,,,,,,,,,
,,,,,,,,,,,,a,0.582,Correct!,,,,,,t2.png,t1.png,1,0.90025,19,female,2020-09-08_13h28.24.462,torte-2b,2020.1.3,MacIntel,60,13241,,,,,,,,,,,,,,,,,,,,,,,,,,,,,,,,,,,,,0,69,69,62,1,,,,,,,,,,,,,,,,,,,,,,,,
,,,,,,,,,,,,l,0.726,Incorrect,,,,,,t5.png,t5.png,0,0.97829,19,female,2020-09-08_13h28.24.462,torte-2b,2020.1.3,MacIntel,60,13241,,,,,,,,,,,,,,,,,,,,,,,,,,,,,,,,,,,,,0,70,70,73,1,,,,,,,,,,,,,,,,,,,,,,,,
,,,,,,,,,,,,a,0.672,Correct!,,,,,,t3.png,t2.png,1,0.909,19,female,2020-09-08_13h28.24.462,torte-2b,2020.1.3,MacIntel,60,13241,,,,,,,,,,,,,,,,,,,,,,,,,,,,,,,,,,,,,0,71,71,3,1,,,,,,,,,,,,,,,,,,,,,,,,
,,,,,,,,,,,,a,0.588,Correct!,,,,,,t2.png,t1.png,1,0.90025,19,female,2020-09-08_13h28.24.462,torte-2b,2020.1.3,MacIntel,60,13241,,,,,,,,,,,,,,,,,,,,,,,,,,,,,,,,,,,,,0,72,72,19,1,,,,,,,,,,,,,,,,,,,,,,,,
,,,,,,,,,,,,l,0.506,Correct!,,,,,,t1.png,t4.png,3,0.0000131,19,female,2020-09-08_13h28.24.462,torte-2b,2020.1.3,MacIntel,60,13241,,,,,,,,,,,,,,,,,,,,,,,,,,,,,,,,,,,,,0,73,73,81,1,,,,,,,,,,,,,,,,,,,,,,,,
,,,,,,,,,,,,a,0.875,Correct!,,,,,,t5.png,t4.png,1,0.90025,19,female,2020-09-08_13h28.24.462,torte-2b,2020.1.3,MacIntel,60,13241,,,,,,,,,,,,,,,,,,,,,,,,,,,,,,,,,,,,,0,74,74,34,1,,,,,,,,,,,,,,,,,,,,,,,,
,,,,,,,,,,,,l,0.639,Incorrect,,,,,,t1.png,t2.png,1,0.90025,19,female,2020-09-08_13h28.24.462,torte-2b,2020.1.3,MacIntel,60,13241,,,,,,,,,,,,,,,,,,,,,,,,,,,,,,,,,,,,,0,75,75,112,1,,,,,,,,,,,,,,,,,,,,,,,,
,,,,,,,,,,,,a,0.534,Incorrect,,,,,,t4.png,t1.png,3,0.0000131,19,female,2020-09-08_13h28.24.462,torte-2b,2020.1.3,MacIntel,60,13241,,,,,,,,,,,,,,,,,,,,,,,,,,,,,,,,,,,,,0,76,76,42,1,,,,,,,,,,,,,,,,,,,,,,,,
,,,,,,,,,,,,l,0.79,Incorrect,,,,,,t2.png,t2.png,0,0.981,19,female,2020-09-08_13h28.24.462,torte-2b,2020.1.3,MacIntel,60,13241,,,,,,,,,,,,,,,,,,,,,,,,,,,,,,,,,,,,,0,77,77,101,1,,,,,,,,,,,,,,,,,,,,,,,,
,,,,,,,,,,,,l,0.442,Correct!,,,,,,t2.png,t5.png,3,0.0000131,19,female,2020-09-08_13h28.24.462,torte-2b,2020.1.3,MacIntel,60,13241,,,,,,,,,,,,,,,,,,,,,,,,,,,,,,,,,,,,,0,78,78,40,1,,,,,,,,,,,,,,,,,,,,,,,,
,,,,,,,,,,,,a,0.701,Incorrect,,,,,,t5.png,t1.png,4,9.55E-11,19,female,2020-09-08_13h28.24.462,torte-2b,2020.1.3,MacIntel,60,13241,,,,,,,,,,,,,,,,,,,,,,,,,,,,,,,,,,,,,0,79,79,71,1,,,,,,,,,,,,,,,,,,,,,,,,
,,,,,,,,,,,,a,0.568,Incorrect,,,,,,t4.png,t1.png,3,0.0000131,19,female,2020-09-08_13h28.24.462,torte-2b,2020.1.3,MacIntel,60,13241,,,,,,,,,,,,,,,,,,,,,,,,,,,,,,,,,,,,,0,80,80,93,1,,,,,,,,,,,,,,,,,,,,,,,,
,,,,,,,,,,,,l,0.441,Correct!,,,,,,t1.png,t3.png,2,0.056466,19,female,2020-09-08_13h28.24.462,torte-2b,2020.1.3,MacIntel,60,13241,,,,,,,,,,,,,,,,,,,,,,,,,,,,,,,,,,,,,0,81,81,99,1,,,,,,,,,,,,,,,,,,,,,,,,
,,,,,,,,,,,,a,0.605,Incorrect,,,,,,t5.png,t2.png,3,0.0000131,19,female,2020-09-08_13h28.24.462,torte-2b,2020.1.3,MacIntel,60,13241,,,,,,,,,,,,,,,,,,,,,,,,,,,,,,,,,,,,,0,82,82,51,1,,,,,,,,,,,,,,,,,,,,,,,,
,,,,,,,,,,,,a,0.715,Incorrect,,,,,,t3.png,t1.png,2,0.056466,19,female,2020-09-08_13h28.24.462,torte-2b,2020.1.3,MacIntel,60,13241,,,,,,,,,,,,,,,,,,,,,,,,,,,,,,,,,,,,,0,83,83,29,1,,,,,,,,,,,,,,,,,,,,,,,,
,,,,,,,,,,,,l,0.551,Correct!,,,,,,t1.png,t5.png,4,9.55E-11,19,female,2020-09-08_13h28.24.462,torte-2b,2020.1.3,MacIntel,60,13241,,,,,,,,,,,,,,,,,,,,,,,,,,,,,,,,,,,,,0,84,84,16,1,,,,,,,,,,,,,,,,,,,,,,,,
,,,,,,,,,,,,l,0.505,Incorrect,,,,,,t1.png,t2.png,1,0.90025,19,female,2020-09-08_13h28.24.462,torte-2b,2020.1.3,MacIntel,60,13241,,,,,,,,,,,,,,,,,,,,,,,,,,,,,,,,,,,,,0,85,85,33,1,,,,,,,,,,,,,,,,,,,,,,,,
,,,,,,,,,,,,l,1.021,Incorrect,,,,,,t4.png,t4.png,0,0.98115,19,female,2020-09-08_13h28.24.462,torte-2b,2020.1.3,MacIntel,60,13241,,,,,,,,,,,,,,,,,,,,,,,,,,,,,,,,,,,,,0,86,86,79,1,,,,,,,,,,,,,,,,,,,,,,,,
,,,,,,,,,,,,l,0.664,Incorrect,,,,,,t2.png,t2.png,0,0.98115,19,female,2020-09-08_13h28.24.462,torte-2b,2020.1.3,MacIntel,60,13241,,,,,,,,,,,,,,,,,,,,,,,,,,,,,,,,,,,,,0,87,87,7,1,,,,,,,,,,,,,,,,,,,,,,,,
,,,,,,,,,,,,a,0.613,Incorrect,,,,,,t4.png,t1.png,3,0.0000131,19,female,2020-09-08_13h28.24.462,torte-2b,2020.1.3,MacIntel,60,13241,,,,,,,,,,,,,,,,,,,,,,,,,,,,,,,,,,,,,0,88,88,13,1,,,,,,,,,,,,,,,,,,,,,,,,
,,,,,,,,,,,,l,0.415,Correct!,,,,,,t1.png,t3.png,2,0.056466,19,female,2020-09-08_13h28.24.462,torte-2b,2020.1.3,MacIntel,60,13241,,,,,,,,,,,,,,,,,,,,,,,,,,,,,,,,,,,,,0,89,89,87,1,,,,,,,,,,,,,,,,,,,,,,,,
,,,,,,,,,,,,l,0.82,Incorrect,,,,,,t4.png,t5.png,1,0.9,19,female,2020-09-08_13h28.24.462,torte-2b,2020.1.3,MacIntel,60,13241,,,,,,,,,,,,,,,,,,,,,,,,,,,,,,,,,,,,,0,90,90,115,1,,,,,,,,,,,,,,,,,,,,,,,,
,,,,,,,,,,,,l,0.53,Correct!,,,,,,t2.png,t4.png,2,0.059078,19,female,2020-09-08_13h28.24.462,torte-2b,2020.1.3,MacIntel,60,13241,,,,,,,,,,,,,,,,,,,,,,,,,,,,,,,,,,,,,0,91,91,24,1,,,,,,,,,,,,,,,,,,,,,,,,
,,,,,,,,,,,,l,0.415,Correct!,,,,,,t2.png,t4.png,2,0.0591,19,female,2020-09-08_13h28.24.462,torte-2b,2020.1.3,MacIntel,60,13241,,,,,,,,,,,,,,,,,,,,,,,,,,,,,,,,,,,,,0,92,92,15,1,,,,,,,,,,,,,,,,,,,,,,,,
,,,,,,,,,,,,l,0.414,Incorrect,,,,,,t3.png,t5.png,2,0.056466,19,female,2020-09-08_13h28.24.462,torte-2b,2020.1.3,MacIntel,60,13241,,,,,,,,,,,,,,,,,,,,,,,,,,,,,,,,,,,,,0,93,93,44,1,,,,,,,,,,,,,,,,,,,,,,,,
,,,,,,,,,,,,l,0.497,Incorrect,,,,,,t4.png,t5.png,1,0.90025,19,female,2020-09-08_13h28.24.462,torte-2b,2020.1.3,MacIntel,60,13241,,,,,,,,,,,,,,,,,,,,,,,,,,,,,,,,,,,,,0,94,94,103,1,,,,,,,,,,,,,,,,,,,,,,,,
,,,,,,,,,,,,a,0.654,Incorrect,,,,,,t5.png,t2.png,3,0.0000131,19,female,2020-09-08_13h28.24.462,torte-2b,2020.1.3,MacIntel,60,13241,,,,,,,,,,,,,,,,,,,,,,,,,,,,,,,,,,,,,0,95,95,98,1,,,,,,,,,,,,,,,,,,,,,,,,
,,,,,,,,,,,,l,0.697,Incorrect,,,,,,t1.png,t1.png,0,0.97829,19,female,2020-09-08_13h28.24.462,torte-2b,2020.1.3,MacIntel,60,13241,,,,,,,,,,,,,,,,,,,,,,,,,,,,,,,,,,,,,0,96,96,67,1,,,,,,,,,,,,,,,,,,,,,,,,
,,,,,,,,,,,,l,0.699,Incorrect,,,,,,t5.png,t4.png,1,0.9,19,female,2020-09-08_13h28.24.462,torte-2b,2020.1.3,MacIntel,60,13241,,,,,,,,,,,,,,,,,,,,,,,,,,,,,,,,,,,,,0,97,97,76,1,,,,,,,,,,,,,,,,,,,,,,,,
,,,,,,,,,,,,a,1.016,Correct!,,,,,,t3.png,t2.png,1,0.90855,19,female,2020-09-08_13h28.24.462,torte-2b,2020.1.3,MacIntel,60,13241,,,,,,,,,,,,,,,,,,,,,,,,,,,,,,,,,,,,,0,98,98,97,1,,,,,,,,,,,,,,,,,,,,,,,,
,,,,,,,,,,,,l,0.417,Correct!,,,,,,t2.png,t5.png,3,0.0000131,19,female,2020-09-08_13h28.24.462,torte-2b,2020.1.3,MacIntel,60,13241,,,,,,,,,,,,,,,,,,,,,,,,,,,,,,,,,,,,,0,99,99,104,1,,,,,,,,,,,,,,,,,,,,,,,,
,,,,,,,,,,,,l,0.405,Correct!,,,,,,t1.png,t5.png,4,9.55E-11,19,female,2020-09-08_13h28.24.462,torte-2b,2020.1.3,MacIntel,60,13241,,,,,,,,,,,,,,,,,,,,,,,,,,,,,,,,,,,,,0,100,100,12,1,,,,,,,,,,,,,,,,,,,,,,,,
,,,,,,,,,,,,a,0.654,Incorrect,,,,,,t5.png,t3.png,2,0.056466,19,female,2020-09-08_13h28.24.462,torte-2b,2020.1.3,MacIntel,60,13241,,,,,,,,,,,,,,,,,,,,,,,,,,,,,,,,,,,,,0,101,101,114,1,,,,,,,,,,,,,,,,,,,,,,,,
,,,,,,,,,,,,l,0.449,Correct!,,,,,,t2.png,t5.png,3,0.0000131,19,female,2020-09-08_13h28.24.462,torte-2b,2020.1.3,MacIntel,60,13241,,,,,,,,,,,,,,,,,,,,,,,,,,,,,,,,,,,,,0,102,102,95,1,,,,,,,,,,,,,,,,,,,,,,,,
,,,,,,,,,,,,l,0.575,Incorrect,,,,,,t3.png,t4.png,1,0.90855,19,female,2020-09-08_13h28.24.462,torte-2b,2020.1.3,MacIntel,60,13241,,,,,,,,,,,,,,,,,,,,,,,,,,,,,,,,,,,,,0,103,103,96,1,,,,,,,,,,,,,,,,,,,,,,,,
,,,,,,,,,,,,l,0.616,Incorrect,,,,,,t1.png,t2.png,1,0.90025,19,female,2020-09-08_13h28.24.462,torte-2b,2020.1.3,MacIntel,60,13241,,,,,,,,,,,,,,,,,,,,,,,,,,,,,,,,,,,,,0,104,104,105,1,,,,,,,,,,,,,,,,,,,,,,,,
,,,,,,,,,,,,l,0.633,Incorrect,,,,,,t5.png,t5.png,0,0.97829,19,female,2020-09-08_13h28.24.462,torte-2b,2020.1.3,MacIntel,60,13241,,,,,,,,,,,,,,,,,,,,,,,,,,,,,,,,,,,,,0,105,105,94,1,,,,,,,,,,,,,,,,,,,,,,,,
,,,,,,,,,,,,l,1.176,Incorrect,,,,,,t4.png,t4.png,0,0.98115,19,female,2020-09-08_13h28.24.462,torte-2b,2020.1.3,MacIntel,60,13241,,,,,,,,,,,,,,,,,,,,,,,,,,,,,,,,,,,,,0,106,106,52,1,,,,,,,,,,,,,,,,,,,,,,,,
,,,,,,,,,,,,a,1.084,Correct!,,,,,,t2.png,t1.png,1,0.90025,19,female,2020-09-08_13h28.24.462,torte-2b,2020.1.3,MacIntel,60,13241,,,,,,,,,,,,,,,,,,,,,,,,,,,,,,,,,,,,,0,107,107,4,1,,,,,,,,,,,,,,,,,,,,,,,,
,,,,,,,,,,,,a,0.838,Correct!,,,,,,t2.png,t2.png,0,0.98115,19,female,2020-09-08_13h28.24.462,torte-2b,2020.1.3,MacIntel,60,13241,,,,,,,,,,,,,,,,,,,,,,,,,,,,,,,,,,,,,0,108,108,2,1,,,,,,,,,,,,,,,,,,,,,,,,
,,,,,,,,,,,,l,0.55,Incorrect,,,,,,t3.png,t4.png,1,0.909,19,female,2020-09-08_13h28.24.462,torte-2b,2020.1.3,MacIntel,60,13241,,,,,,,,,,,,,,,,,,,,,,,,,,,,,,,,,,,,,0,109,109,89,1,,,,,,,,,,,,,,,,,,,,,,,,
,,,,,,,,,,,,a,0.621,Correct!,,,,,,t4.png,t3.png,1,0.90855,19,female,2020-09-08_13h28.24.462,torte-2b,2020.1.3,MacIntel,60,13241,,,,,,,,,,,,,,,,,,,,,,,,,,,,,,,,,,,,,0,110,110,75,1,,,,,,,,,,,,,,,,,,,,,,,,
,,,,,,,,,,,,a,0.583,Incorrect,,,,,,t4.png,t2.png,2,0.0591,19,female,2020-09-08_13h28.24.462,torte-2b,2020.1.3,MacIntel,60,13241,,,,,,,,,,,,,,,,,,,,,,,,,,,,,,,,,,,,,0,111,111,36,1,,,,,,,,,,,,,,,,,,,,,,,,
,,,,,,,,,,,,a,0.568,Incorrect,,,,,,t4.png,t1.png,3,0.0000131,19,female,2020-09-08_13h28.24.462,torte-2b,2020.1.3,MacIntel,60,13241,,,,,,,,,,,,,,,,,,,,,,,,,,,,,,,,,,,,,0,112,112,48,1,,,,,,,,,,,,,,,,,,,,,,,,
,,,,,,,,,,,,l,0.705,Incorrect,,,,,,t1.png,t2.png,1,0.9,19,female,2020-09-08_13h28.24.462,torte-2b,2020.1.3,MacIntel,60,13241,,,,,,,,,,,,,,,,,,,,,,,,,,,,,,,,,,,,,0,113,113,1,1,,,,,,,,,,,,,,,,,,,,,,,,
,,,,,,,,,,,,l,0.538,Correct!,,,,,,t2.png,t4.png,2,0.059078,19,female,2020-09-08_13h28.24.462,torte-2b,2020.1.3,MacIntel,60,13241,,,,,,,,,,,,,,,,,,,,,,,,,,,,,,,,,,,,,0,114,114,11,1,,,,,,,,,,,,,,,,,,,,,,,,
,,,,,,,,,,,,a,0.655,Incorrect,,,,,,t3.png,t1.png,2,0.056466,19,female,2020-09-08_13h28.24.462,torte-2b,2020.1.3,MacIntel,60,13241,,,,,,,,,,,,,,,,,,,,,,,,,,,,,,,,,,,,,0,115,115,64,1,,,,,,,,,,,,,,,,,,,,,,,,
,,,,,,,,,,,,a,0.615,Incorrect,,,,,,t5.png,t2.png,3,0.0000131,19,female,2020-09-08_13h28.24.462,torte-2b,2020.1.3,MacIntel,60,13241,,,,,,,,,,,,,,,,,,,,,,,,,,,,,,,,,,,,,0,116,116,116,1,,,,,,,,,,,,,,,,,,,,,,,,
,,,,,,,,,,,,a,0.516,Incorrect,,,,,,t4.png,t1.png,3,0.0000131,19,female,2020-09-08_13h28.24.462,torte-2b,2020.1.3,MacIntel,60,13241,,,,,,,,,,,,,,,,,,,,,,,,,,,,,,,,,,,,,0,117,117,61,1,,,,,,,,,,,,,,,,,,,,,,,,
,,,,,,,,,,,,l,0.438,Incorrect,,,,,,t2.png,t3.png,1,0.90855,19,female,2020-09-08_13h28.24.462,torte-2b,2020.1.3,MacIntel,60,13241,,,,,,,,,,,,,,,,,,,,,,,,,,,,,,,,,,,,,0,118,118,10,1,,,,,,,,,,,,,,,,,,,,,,,,
,,,,,,,,,,,,a,0.755,Correct!,,,,,,t4.png,t3.png,1,0.90855,19,female,2020-09-08_13h28.24.462,torte-2b,2020.1.3,MacIntel,60,13241,,,,,,,,,,,,,,,,,,,,,,,,,,,,,,,,,,,,,0,119,119,45,1,,,,,,,,,,,,,,,,,,,,,,,,
,,,,,,,,,,,,,,,,,,,,,,,,19,female,2020-09-08_13h28.24.462,torte-2b,2020.1.3,MacIntel,60,13241,space,2.433,,,,,,,,,,,,,,,,,,,,,,,,,,,,,,,,,,,,,,,,-22,48,1,0,0,s3,44,85,1,0,0,t1,157,-113,1,0,0,proceed,space,7.113,space,0.949,space,0.464
