key_resp_8.keys,key_resp_8.rt,key_resp_9.keys,key_resp_9.rt,key_resp_10.keys,key_resp_10.rt,key_resp_11.keys,key_resp_11.rt,key_resp_2.keys,key_resp_2.rt,key_resp_3.keys,key_resp_3.rt,key_resp.keys,Feedback,train.thisRepN,train.thisTrialN,train.thisN,train.thisIndex,train.ran,torta_sx,torta_dx,difference,probability,age,gender,date,expName,psychopyVersion,OS,frameRate,participant,key_resp.rt,key_resp_15.keys,key_resp_15.rt,key_resp_6.keys,key_resp_6.rt,test1.thisRepN,test1.thisTrialN,test1.thisN,test1.thisIndex,test1.ran,key_resp_4.keys,key_resp_4.rt,key_resp_5.keys,back1.thisRepN,back1.thisTrialN,back1.thisN,back1.thisIndex,back1.ran,letter,key_resp_5.rt,back2.thisRepN,back2.thisTrialN,back2.thisN,back2.thisIndex,back2.ran,back3.thisRepN,back3.thisTrialN,back3.thisN,back3.thisIndex,back3.ran,back4.thisRepN,back4.thisTrialN,back4.thisN,back4.thisIndex,back4.ran,key_resp_7.keys,key_resp_7.rt,test2.thisRepN,test2.thisTrialN,test2.thisN,test2.thisIndex,test2.ran,mouse.x,mouse.y,mouse.leftButton,mouse.midButton,mouse.rightButton,mouse.clicked_name,mouse_2.x,mouse_2.y,mouse_2.leftButton,mouse_2.midButton,mouse_2.rightButton,mouse_2.clicked_name,mouse_3.x,mouse_3.y,mouse_3.leftButton,mouse_3.midButton,mouse_3.rightButton,mouse_3.clicked_name,key_resp_12.keys,key_resp_12.rt,key_resp_13.keys,key_resp_13.rt,key_resp_14.keys,key_resp_14.rt
space,31.234245,space,4.114525,space,1.434205,space,1.994765,space,41.55417,space,35.56957,,Too slow :(,0,0,0,44,1,t1.png,t4.png,3,0.0000131,19,Female,2020-07-27_20h34.09.685,torte-2b,2020.1.3,Win32,60,13253,,,,,,,,,,,,,,,,,,,,,,,,,,,,,,,,,,,,,,,,,,,,,,,,,,,,,,,,,,,,,,,,,,
,,,,,,,,,,,,l,Correct!,0,1,1,95,1,t1.png,t4.png,3,0.0000131,19,Female,2020-07-27_20h34.09.685,torte-2b,2020.1.3,Win32,60,13253,1.352655,,,,,,,,,,,,,,,,,,,,,,,,,,,,,,,,,,,,,,,,,,,,,,,,,,,,,,,,,,,,,,,,,
,,,,,,,,,,,,a,Incorrect,0,2,2,66,1,t5.png,t1.png,4,9.55E-11,19,Female,2020-07-27_20h34.09.685,torte-2b,2020.1.3,Win32,60,13253,0.469405,,,,,,,,,,,,,,,,,,,,,,,,,,,,,,,,,,,,,,,,,,,,,,,,,,,,,,,,,,,,,,,,,
,,,,,,,,,,,,l,Correct!,0,3,3,102,1,t2.png,t4.png,2,0.059078,19,Female,2020-07-27_20h34.09.685,torte-2b,2020.1.3,Win32,60,13253,1.21443,,,,,,,,,,,,,,,,,,,,,,,,,,,,,,,,,,,,,,,,,,,,,,,,,,,,,,,,,,,,,,,,,
,,,,,,,,,,,,a,Incorrect,0,4,4,49,1,t5.png,t1.png,4,9.55E-11,19,Female,2020-07-27_20h34.09.685,torte-2b,2020.1.3,Win32,60,13253,0.57418,,,,,,,,,,,,,,,,,,,,,,,,,,,,,,,,,,,,,,,,,,,,,,,,,,,,,,,,,,,,,,,,,
,,,,,,,,,,,,a,Incorrect,0,5,5,103,1,t4.png,t1.png,3,0.059078,19,Female,2020-07-27_20h34.09.685,torte-2b,2020.1.3,Win32,60,13253,1.226495,,,,,,,,,,,,,,,,,,,,,,,,,,,,,,,,,,,,,,,,,,,,,,,,,,,,,,,,,,,,,,,,,
,,,,,,,,,,,,l,Incorrect,0,6,6,14,1,t2.png,t3.png,1,0.90855,19,Female,2020-07-27_20h34.09.685,torte-2b,2020.1.3,Win32,60,13253,1.1492,,,,,,,,,,,,,,,,,,,,,,,,,,,,,,,,,,,,,,,,,,,,,,,,,,,,,,,,,,,,,,,,,
,,,,,,,,,,,,a,Incorrect,0,7,7,28,1,t1.png,t4.png,3,0.0000131,19,Female,2020-07-27_20h34.09.685,torte-2b,2020.1.3,Win32,60,13253,1.03318,,,,,,,,,,,,,,,,,,,,,,,,,,,,,,,,,,,,,,,,,,,,,,,,,,,,,,,,,,,,,,,,,
,,,,,,,,,,,,l,Correct!,0,8,8,67,1,t3.png,t2.png,1,0.90855,19,Female,2020-07-27_20h34.09.685,torte-2b,2020.1.3,Win32,60,13253,0.322965,,,,,,,,,,,,,,,,,,,,,,,,,,,,,,,,,,,,,,,,,,,,,,,,,,,,,,,,,,,,,,,,,
,,,,,,,,,,,,l,Correct!,0,9,9,16,1,t1.png,t5.png,4,9.55E-11,19,Female,2020-07-27_20h34.09.685,torte-2b,2020.1.3,Win32,60,13253,0.48942,,,,,,,,,,,,,,,,,,,,,,,,,,,,,,,,,,,,,,,,,,,,,,,,,,,,,,,,,,,,,,,,,
,,,,,,,,,,,,l,Correct!,0,10,10,107,1,t1.png,t4.png,3,0.0000131,19,Female,2020-07-27_20h34.09.685,torte-2b,2020.1.3,Win32,60,13253,0.755595,,,,,,,,,,,,,,,,,,,,,,,,,,,,,,,,,,,,,,,,,,,,,,,,,,,,,,,,,,,,,,,,,
,,,,,,,,,,,,l,Incorrect,0,11,11,30,1,t2.png,t3.png,1,0.90855,19,Female,2020-07-27_20h34.09.685,torte-2b,2020.1.3,Win32,60,13253,0.78245,,,,,,,,,,,,,,,,,,,,,,,,,,,,,,,,,,,,,,,,,,,,,,,,,,,,,,,,,,,,,,,,,
,,,,,,,,,,,,a,Incorrect,0,12,12,43,1,t3.png,t1.png,2,0.056466,19,Female,2020-07-27_20h34.09.685,torte-2b,2020.1.3,Win32,60,13253,0.64838,,,,,,,,,,,,,,,,,,,,,,,,,,,,,,,,,,,,,,,,,,,,,,,,,,,,,,,,,,,,,,,,,
,,,,,,,,,,,,l,Incorrect,0,13,13,18,1,t2.png,t3.png,1,0.90855,19,Female,2020-07-27_20h34.09.685,torte-2b,2020.1.3,Win32,60,13253,1.210845,,,,,,,,,,,,,,,,,,,,,,,,,,,,,,,,,,,,,,,,,,,,,,,,,,,,,,,,,,,,,,,,,
,,,,,,,,,,,,a,Correct!,0,14,14,45,1,t4.png,t5.png,1,0.90025,19,Female,2020-07-27_20h34.09.685,torte-2b,2020.1.3,Win32,60,13253,0.805845,,,,,,,,,,,,,,,,,,,,,,,,,,,,,,,,,,,,,,,,,,,,,,,,,,,,,,,,,,,,,,,,,
,,,,,,,,,,,,l,Correct!,0,15,15,59,1,t5.png,t1.png,4,9.55E-11,19,Female,2020-07-27_20h34.09.685,torte-2b,2020.1.3,Win32,60,13253,1.01049,,,,,,,,,,,,,,,,,,,,,,,,,,,,,,,,,,,,,,,,,,,,,,,,,,,,,,,,,,,,,,,,,
,,,,,,,,,,,,l,Correct!,0,16,16,80,1,t4.png,t1.png,3,0.059078,19,Female,2020-07-27_20h34.09.685,torte-2b,2020.1.3,Win32,60,13253,0.683735,,,,,,,,,,,,,,,,,,,,,,,,,,,,,,,,,,,,,,,,,,,,,,,,,,,,,,,,,,,,,,,,,
,,,,,,,,,,,,l,Correct!,0,17,17,65,1,t5.png,t5.png,0,0.97829,19,Female,2020-07-27_20h34.09.685,torte-2b,2020.1.3,Win32,60,13253,2.324905,,,,,,,,,,,,,,,,,,,,,,,,,,,,,,,,,,,,,,,,,,,,,,,,,,,,,,,,,,,,,,,,,
,,,,,,,,,,,,l,Correct!,0,18,18,50,1,t1.png,t5.png,4,9.55E-11,19,Female,2020-07-27_20h34.09.685,torte-2b,2020.1.3,Win32,60,13253,0.93192,,,,,,,,,,,,,,,,,,,,,,,,,,,,,,,,,,,,,,,,,,,,,,,,,,,,,,,,,,,,,,,,,
,,,,,,,,,,,,a,Incorrect,0,19,19,82,1,t3.png,t1.png,2,0.056466,19,Female,2020-07-27_20h34.09.685,torte-2b,2020.1.3,Win32,60,13253,0.60322,,,,,,,,,,,,,,,,,,,,,,,,,,,,,,,,,,,,,,,,,,,,,,,,,,,,,,,,,,,,,,,,,
,,,,,,,,,,,,l,Incorrect,0,20,20,7,1,t3.png,t2.png,1,0.90855,19,Female,2020-07-27_20h34.09.685,torte-2b,2020.1.3,Win32,60,13253,1.016215,,,,,,,,,,,,,,,,,,,,,,,,,,,,,,,,,,,,,,,,,,,,,,,,,,,,,,,,,,,,,,,,,
,,,,,,,,,,,,a,Correct!,0,21,21,22,1,t5.png,t5.png,0,0.97829,19,Female,2020-07-27_20h34.09.685,torte-2b,2020.1.3,Win32,60,13253,0.831855,,,,,,,,,,,,,,,,,,,,,,,,,,,,,,,,,,,,,,,,,,,,,,,,,,,,,,,,,,,,,,,,,
,,,,,,,,,,,,l,Incorrect,0,22,22,24,1,t5.png,t5.png,0,0.97829,19,Female,2020-07-27_20h34.09.685,torte-2b,2020.1.3,Win32,60,13253,0.447975,,,,,,,,,,,,,,,,,,,,,,,,,,,,,,,,,,,,,,,,,,,,,,,,,,,,,,,,,,,,,,,,,
,,,,,,,,,,,,a,Incorrect,0,23,23,57,1,t3.png,t1.png,2,0.056466,19,Female,2020-07-27_20h34.09.685,torte-2b,2020.1.3,Win32,60,13253,0.524745,,,,,,,,,,,,,,,,,,,,,,,,,,,,,,,,,,,,,,,,,,,,,,,,,,,,,,,,,,,,,,,,,
,,,,,,,,,,,,l,Correct!,0,24,24,13,1,t2.png,t4.png,2,0.059078,19,Female,2020-07-27_20h34.09.685,torte-2b,2020.1.3,Win32,60,13253,0.504525,,,,,,,,,,,,,,,,,,,,,,,,,,,,,,,,,,,,,,,,,,,,,,,,,,,,,,,,,,,,,,,,,
,,,,,,,,,,,,l,Incorrect,0,25,25,20,1,t5.png,t5.png,0,0.97829,19,Female,2020-07-27_20h34.09.685,torte-2b,2020.1.3,Win32,60,13253,0.56733,,,,,,,,,,,,,,,,,,,,,,,,,,,,,,,,,,,,,,,,,,,,,,,,,,,,,,,,,,,,,,,,,
,,,,,,,,,,,,a,Incorrect,0,26,26,51,1,t4.png,t1.png,3,0.059078,19,Female,2020-07-27_20h34.09.685,torte-2b,2020.1.3,Win32,60,13253,0.46542,,,,,,,,,,,,,,,,,,,,,,,,,,,,,,,,,,,,,,,,,,,,,,,,,,,,,,,,,,,,,,,,,
,,,,,,,,,,,,l,Correct!,0,27,27,35,1,t1.png,t4.png,3,0.0000131,19,Female,2020-07-27_20h34.09.685,torte-2b,2020.1.3,Win32,60,13253,0.717795,,,,,,,,,,,,,,,,,,,,,,,,,,,,,,,,,,,,,,,,,,,,,,,,,,,,,,,,,,,,,,,,,
,,,,,,,,,,,,l,Incorrect,0,28,28,109,1,t5.png,t5.png,0,0.97829,19,Female,2020-07-27_20h34.09.685,torte-2b,2020.1.3,Win32,60,13253,0.57143,,,,,,,,,,,,,,,,,,,,,,,,,,,,,,,,,,,,,,,,,,,,,,,,,,,,,,,,,,,,,,,,,
,,,,,,,,,,,,l,Correct!,0,29,29,39,1,t2.png,t4.png,2,0.059078,19,Female,2020-07-27_20h34.09.685,torte-2b,2020.1.3,Win32,60,13253,0.553575,,,,,,,,,,,,,,,,,,,,,,,,,,,,,,,,,,,,,,,,,,,,,,,,,,,,,,,,,,,,,,,,,
,,,,,,,,,,,,a,Incorrect,0,30,30,64,1,t5.png,t1.png,4,9.55E-11,19,Female,2020-07-27_20h34.09.685,torte-2b,2020.1.3,Win32,60,13253,0.876235,,,,,,,,,,,,,,,,,,,,,,,,,,,,,,,,,,,,,,,,,,,,,,,,,,,,,,,,,,,,,,,,,
,,,,,,,,,,,,l,Incorrect,0,31,31,90,1,t4.png,t5.png,1,0.90025,19,Female,2020-07-27_20h34.09.685,torte-2b,2020.1.3,Win32,60,13253,0.471205,,,,,,,,,,,,,,,,,,,,,,,,,,,,,,,,,,,,,,,,,,,,,,,,,,,,,,,,,,,,,,,,,
,,,,,,,,,,,,a,Correct!,0,32,32,77,1,t3.png,t2.png,1,0.90855,19,Female,2020-07-27_20h34.09.685,torte-2b,2020.1.3,Win32,60,13253,0.099895,,,,,,,,,,,,,,,,,,,,,,,,,,,,,,,,,,,,,,,,,,,,,,,,,,,,,,,,,,,,,,,,,
,,,,,,,,,,,,l,Incorrect,0,33,33,56,1,t2.png,t3.png,1,0.90855,19,Female,2020-07-27_20h34.09.685,torte-2b,2020.1.3,Win32,60,13253,0.549275,,,,,,,,,,,,,,,,,,,,,,,,,,,,,,,,,,,,,,,,,,,,,,,,,,,,,,,,,,,,,,,,,
,,,,,,,,,,,,l,Incorrect,0,34,34,116,1,t4.png,t5.png,1,0.90025,19,Female,2020-07-27_20h34.09.685,torte-2b,2020.1.3,Win32,60,13253,0.48202,,,,,,,,,,,,,,,,,,,,,,,,,,,,,,,,,,,,,,,,,,,,,,,,,,,,,,,,,,,,,,,,,
,,,,,,,,,,,,a,Correct!,0,35,35,0,1,t3.png,t2.png,1,0.90855,19,Female,2020-07-27_20h34.09.685,torte-2b,2020.1.3,Win32,60,13253,0.54881,,,,,,,,,,,,,,,,,,,,,,,,,,,,,,,,,,,,,,,,,,,,,,,,,,,,,,,,,,,,,,,,,
,,,,,,,,,,,,a,Incorrect,0,36,36,9,1,t1.png,t5.png,4,9.55E-11,19,Female,2020-07-27_20h34.09.685,torte-2b,2020.1.3,Win32,60,13253,0.24657,,,,,,,,,,,,,,,,,,,,,,,,,,,,,,,,,,,,,,,,,,,,,,,,,,,,,,,,,,,,,,,,,
,,,,,,,,,,,,l,Incorrect,0,37,37,91,1,t5.png,t4.png,1,0.90025,19,Female,2020-07-27_20h34.09.685,torte-2b,2020.1.3,Win32,60,13253,0.533965,,,,,,,,,,,,,,,,,,,,,,,,,,,,,,,,,,,,,,,,,,,,,,,,,,,,,,,,,,,,,,,,,
,,,,,,,,,,,,l,Incorrect,0,38,38,85,1,t5.png,t4.png,1,0.90025,19,Female,2020-07-27_20h34.09.685,torte-2b,2020.1.3,Win32,60,13253,0.537335,,,,,,,,,,,,,,,,,,,,,,,,,,,,,,,,,,,,,,,,,,,,,,,,,,,,,,,,,,,,,,,,,
,,,,,,,,,,,,l,Incorrect,0,39,39,25,1,t1.png,t1.png,0,0.97829,19,Female,2020-07-27_20h34.09.685,torte-2b,2020.1.3,Win32,60,13253,0.432935,,,,,,,,,,,,,,,,,,,,,,,,,,,,,,,,,,,,,,,,,,,,,,,,,,,,,,,,,,,,,,,,,
,,,,,,,,,,,,a,Incorrect,0,40,40,92,1,t5.png,t1.png,4,9.55E-11,19,Female,2020-07-27_20h34.09.685,torte-2b,2020.1.3,Win32,60,13253,0.59458,,,,,,,,,,,,,,,,,,,,,,,,,,,,,,,,,,,,,,,,,,,,,,,,,,,,,,,,,,,,,,,,,
,,,,,,,,,,,,l,Incorrect,0,41,41,46,1,t1.png,t1.png,0,0.97829,19,Female,2020-07-27_20h34.09.685,torte-2b,2020.1.3,Win32,60,13253,0.604785,,,,,,,,,,,,,,,,,,,,,,,,,,,,,,,,,,,,,,,,,,,,,,,,,,,,,,,,,,,,,,,,,
,,,,,,,,,,,,l,Incorrect,0,42,42,12,1,t5.png,t5.png,0,0.97829,19,Female,2020-07-27_20h34.09.685,torte-2b,2020.1.3,Win32,60,13253,0.76913,,,,,,,,,,,,,,,,,,,,,,,,,,,,,,,,,,,,,,,,,,,,,,,,,,,,,,,,,,,,,,,,,
,,,,,,,,,,,,a,Incorrect,0,43,43,76,1,t4.png,t1.png,3,0.059078,19,Female,2020-07-27_20h34.09.685,torte-2b,2020.1.3,Win32,60,13253,0.05163,,,,,,,,,,,,,,,,,,,,,,,,,,,,,,,,,,,,,,,,,,,,,,,,,,,,,,,,,,,,,,,,,
,,,,,,,,,,,,l,Correct!,0,44,44,73,1,t3.png,t1.png,2,0.056466,19,Female,2020-07-27_20h34.09.685,torte-2b,2020.1.3,Win32,60,13253,0.290795,,,,,,,,,,,,,,,,,,,,,,,,,,,,,,,,,,,,,,,,,,,,,,,,,,,,,,,,,,,,,,,,,
,,,,,,,,,,,,l,Correct!,0,45,45,113,1,t5.png,t1.png,4,9.55E-11,19,Female,2020-07-27_20h34.09.685,torte-2b,2020.1.3,Win32,60,13253,0.37429,,,,,,,,,,,,,,,,,,,,,,,,,,,,,,,,,,,,,,,,,,,,,,,,,,,,,,,,,,,,,,,,,
,,,,,,,,,,,,l,Correct!,0,46,46,10,1,t4.png,t1.png,3,0.059078,19,Female,2020-07-27_20h34.09.685,torte-2b,2020.1.3,Win32,60,13253,0.388975,,,,,,,,,,,,,,,,,,,,,,,,,,,,,,,,,,,,,,,,,,,,,,,,,,,,,,,,,,,,,,,,,
,,,,,,,,,,,,l,Correct!,0,47,47,37,1,t2.png,t4.png,2,0.059078,19,Female,2020-07-27_20h34.09.685,torte-2b,2020.1.3,Win32,60,13253,0.60631,,,,,,,,,,,,,,,,,,,,,,,,,,,,,,,,,,,,,,,,,,,,,,,,,,,,,,,,,,,,,,,,,
,,,,,,,,,,,,l,Incorrect,0,48,48,110,1,t4.png,t5.png,1,0.90025,19,Female,2020-07-27_20h34.09.685,torte-2b,2020.1.3,Win32,60,13253,0.504725,,,,,,,,,,,,,,,,,,,,,,,,,,,,,,,,,,,,,,,,,,,,,,,,,,,,,,,,,,,,,,,,,
,,,,,,,,,,,,l,Incorrect,0,49,49,52,1,t2.png,t3.png,1,0.90855,19,Female,2020-07-27_20h34.09.685,torte-2b,2020.1.3,Win32,60,13253,1.11957,,,,,,,,,,,,,,,,,,,,,,,,,,,,,,,,,,,,,,,,,,,,,,,,,,,,,,,,,,,,,,,,,
,,,,,,,,,,,,a,Correct!,0,50,50,101,1,t5.png,t4.png,1,0.90025,19,Female,2020-07-27_20h34.09.685,torte-2b,2020.1.3,Win32,60,13253,0.57486,,,,,,,,,,,,,,,,,,,,,,,,,,,,,,,,,,,,,,,,,,,,,,,,,,,,,,,,,,,,,,,,,
,,,,,,,,,,,,l,Correct!,0,51,51,54,1,t3.png,t1.png,2,0.056466,19,Female,2020-07-27_20h34.09.685,torte-2b,2020.1.3,Win32,60,13253,0.772075,,,,,,,,,,,,,,,,,,,,,,,,,,,,,,,,,,,,,,,,,,,,,,,,,,,,,,,,,,,,,,,,,
,,,,,,,,,,,,l,Incorrect,0,52,52,15,1,t2.png,t3.png,1,0.90855,19,Female,2020-07-27_20h34.09.685,torte-2b,2020.1.3,Win32,60,13253,0.49174,,,,,,,,,,,,,,,,,,,,,,,,,,,,,,,,,,,,,,,,,,,,,,,,,,,,,,,,,,,,,,,,,
,,,,,,,,,,,,l,Incorrect,0,53,53,71,1,t4.png,t5.png,1,0.90025,19,Female,2020-07-27_20h34.09.685,torte-2b,2020.1.3,Win32,60,13253,0.58206,,,,,,,,,,,,,,,,,,,,,,,,,,,,,,,,,,,,,,,,,,,,,,,,,,,,,,,,,,,,,,,,,
,,,,,,,,,,,,a,Correct!,0,54,54,69,1,t5.png,t4.png,1,0.90025,19,Female,2020-07-27_20h34.09.685,torte-2b,2020.1.3,Win32,60,13253,0.415165,,,,,,,,,,,,,,,,,,,,,,,,,,,,,,,,,,,,,,,,,,,,,,,,,,,,,,,,,,,,,,,,,
,,,,,,,,,,,,l,Incorrect,0,55,55,111,1,t1.png,t1.png,0,0.97829,19,Female,2020-07-27_20h34.09.685,torte-2b,2020.1.3,Win32,60,13253,0.59117,,,,,,,,,,,,,,,,,,,,,,,,,,,,,,,,,,,,,,,,,,,,,,,,,,,,,,,,,,,,,,,,,
,,,,,,,,,,,,a,Correct!,0,56,56,93,1,t5.png,t4.png,1,0.90025,19,Female,2020-07-27_20h34.09.685,torte-2b,2020.1.3,Win32,60,13253,0.231845,,,,,,,,,,,,,,,,,,,,,,,,,,,,,,,,,,,,,,,,,,,,,,,,,,,,,,,,,,,,,,,,,
,,,,,,,,,,,,l,Correct!,0,57,57,1,1,t3.png,t1.png,2,0.056466,19,Female,2020-07-27_20h34.09.685,torte-2b,2020.1.3,Win32,60,13253,0.03883,,,,,,,,,,,,,,,,,,,,,,,,,,,,,,,,,,,,,,,,,,,,,,,,,,,,,,,,,,,,,,,,,
,,,,,,,,,,,,l,Incorrect,0,58,58,88,1,t1.png,t1.png,0,0.97829,19,Female,2020-07-27_20h34.09.685,torte-2b,2020.1.3,Win32,60,13253,0.137425,,,,,,,,,,,,,,,,,,,,,,,,,,,,,,,,,,,,,,,,,,,,,,,,,,,,,,,,,,,,,,,,,
,,,,,,,,,,,,a,Incorrect,0,59,59,3,1,t4.png,t1.png,3,0.059078,19,Female,2020-07-27_20h34.09.685,torte-2b,2020.1.3,Win32,60,13253,0.321155,,,,,,,,,,,,,,,,,,,,,,,,,,,,,,,,,,,,,,,,,,,,,,,,,,,,,,,,,,,,,,,,,
,,,,,,,,,,,,l,Incorrect,0,60,60,8,1,t5.png,t5.png,0,0.97829,19,Female,2020-07-27_20h34.09.685,torte-2b,2020.1.3,Win32,60,13253,0.33154,,,,,,,,,,,,,,,,,,,,,,,,,,,,,,,,,,,,,,,,,,,,,,,,,,,,,,,,,,,,,,,,,
,,,,,,,,,,,,l,Correct!,0,61,61,40,1,t2.png,t4.png,2,0.059078,19,Female,2020-07-27_20h34.09.685,torte-2b,2020.1.3,Win32,60,13253,1.19944,,,,,,,,,,,,,,,,,,,,,,,,,,,,,,,,,,,,,,,,,,,,,,,,,,,,,,,,,,,,,,,,,
,,,,,,,,,,,,l,Incorrect,0,62,62,4,1,t3.png,t2.png,1,0.90855,19,Female,2020-07-27_20h34.09.685,torte-2b,2020.1.3,Win32,60,13253,0.36709,,,,,,,,,,,,,,,,,,,,,,,,,,,,,,,,,,,,,,,,,,,,,,,,,,,,,,,,,,,,,,,,,
,,,,,,,,,,,,a,Correct!,0,63,63,58,1,t4.png,t5.png,1,0.90025,19,Female,2020-07-27_20h34.09.685,torte-2b,2020.1.3,Win32,60,13253,1.531345,,,,,,,,,,,,,,,,,,,,,,,,,,,,,,,,,,,,,,,,,,,,,,,,,,,,,,,,,,,,,,,,,
,,,,,,,,,,,,l,Correct!,0,64,64,68,1,t2.png,t4.png,2,0.059078,19,Female,2020-07-27_20h34.09.685,torte-2b,2020.1.3,Win32,60,13253,0.248665,,,,,,,,,,,,,,,,,,,,,,,,,,,,,,,,,,,,,,,,,,,,,,,,,,,,,,,,,,,,,,,,,
,,,,,,,,,,,,l,Correct!,0,65,65,115,1,t2.png,t4.png,2,0.059078,19,Female,2020-07-27_20h34.09.685,torte-2b,2020.1.3,Win32,60,13253,0.374275,,,,,,,,,,,,,,,,,,,,,,,,,,,,,,,,,,,,,,,,,,,,,,,,,,,,,,,,,,,,,,,,,
,,,,,,,,,,,,l,Correct!,0,66,66,27,1,t1.png,t5.png,4,9.55E-11,19,Female,2020-07-27_20h34.09.685,torte-2b,2020.1.3,Win32,60,13253,0.367,,,,,,,,,,,,,,,,,,,,,,,,,,,,,,,,,,,,,,,,,,,,,,,,,,,,,,,,,,,,,,,,,
,,,,,,,,,,,,l,Correct!,0,67,67,34,1,t1.png,t5.png,4,9.55E-11,19,Female,2020-07-27_20h34.09.685,torte-2b,2020.1.3,Win32,60,13253,0.58449,,,,,,,,,,,,,,,,,,,,,,,,,,,,,,,,,,,,,,,,,,,,,,,,,,,,,,,,,,,,,,,,,
,,,,,,,,,,,,a,Incorrect,0,68,68,105,1,t4.png,t1.png,3,0.059078,19,Female,2020-07-27_20h34.09.685,torte-2b,2020.1.3,Win32,60,13253,0.41571,,,,,,,,,,,,,,,,,,,,,,,,,,,,,,,,,,,,,,,,,,,,,,,,,,,,,,,,,,,,,,,,,
,,,,,,,,,,,,l,Incorrect,0,69,69,83,1,t3.png,t2.png,1,0.90855,19,Female,2020-07-27_20h34.09.685,torte-2b,2020.1.3,Win32,60,13253,2.105115,,,,,,,,,,,,,,,,,,,,,,,,,,,,,,,,,,,,,,,,,,,,,,,,,,,,,,,,,,,,,,,,,
,,,,,,,,,,,,a,Correct!,0,70,70,5,1,t5.png,t5.png,0,0.97829,19,Female,2020-07-27_20h34.09.685,torte-2b,2020.1.3,Win32,60,13253,0.275365,,,,,,,,,,,,,,,,,,,,,,,,,,,,,,,,,,,,,,,,,,,,,,,,,,,,,,,,,,,,,,,,,
,,,,,,,,,,,,l,Incorrect,0,71,71,60,1,t4.png,t5.png,1,0.90025,19,Female,2020-07-27_20h34.09.685,torte-2b,2020.1.3,Win32,60,13253,0.41484,,,,,,,,,,,,,,,,,,,,,,,,,,,,,,,,,,,,,,,,,,,,,,,,,,,,,,,,,,,,,,,,,
,,,,,,,,,,,,a,Incorrect,0,72,72,87,1,t5.png,t1.png,4,9.55E-11,19,Female,2020-07-27_20h34.09.685,torte-2b,2020.1.3,Win32,60,13253,0.248485,,,,,,,,,,,,,,,,,,,,,,,,,,,,,,,,,,,,,,,,,,,,,,,,,,,,,,,,,,,,,,,,,
,,,,,,,,,,,,l,Correct!,0,73,73,79,1,t1.png,t4.png,3,0.0000131,19,Female,2020-07-27_20h34.09.685,torte-2b,2020.1.3,Win32,60,13253,0.25531,,,,,,,,,,,,,,,,,,,,,,,,,,,,,,,,,,,,,,,,,,,,,,,,,,,,,,,,,,,,,,,,,
,,,,,,,,,,,,l,Incorrect,0,74,74,48,1,t2.png,t3.png,1,0.90855,19,Female,2020-07-27_20h34.09.685,torte-2b,2020.1.3,Win32,60,13253,0.47275,,,,,,,,,,,,,,,,,,,,,,,,,,,,,,,,,,,,,,,,,,,,,,,,,,,,,,,,,,,,,,,,,
,,,,,,,,,,,,l,Correct!,0,75,75,62,1,t1.png,t4.png,3,0.0000131,19,Female,2020-07-27_20h34.09.685,torte-2b,2020.1.3,Win32,60,13253,0.52987,,,,,,,,,,,,,,,,,,,,,,,,,,,,,,,,,,,,,,,,,,,,,,,,,,,,,,,,,,,,,,,,,
,,,,,,,,,,,,l,Correct!,0,76,76,70,1,t1.png,t5.png,4,9.55E-11,19,Female,2020-07-27_20h34.09.685,torte-2b,2020.1.3,Win32,60,13253,0.49643,,,,,,,,,,,,,,,,,,,,,,,,,,,,,,,,,,,,,,,,,,,,,,,,,,,,,,,,,,,,,,,,,
,,,,,,,,,,,,a,Incorrect,0,77,77,17,1,t4.png,t1.png,3,0.059078,19,Female,2020-07-27_20h34.09.685,torte-2b,2020.1.3,Win32,60,13253,0.49014,,,,,,,,,,,,,,,,,,,,,,,,,,,,,,,,,,,,,,,,,,,,,,,,,,,,,,,,,,,,,,,,,
,,,,,,,,,,,,l,Correct!,0,78,78,53,1,t1.png,t1.png,0,0.97829,19,Female,2020-07-27_20h34.09.685,torte-2b,2020.1.3,Win32,60,13253,0.45123,,,,,,,,,,,,,,,,,,,,,,,,,,,,,,,,,,,,,,,,,,,,,,,,,,,,,,,,,,,,,,,,,
,,,,,,,,,,,,l,Incorrect,0,79,79,29,1,t3.png,t2.png,1,0.90855,19,Female,2020-07-27_20h34.09.685,torte-2b,2020.1.3,Win32,60,13253,0.63721,,,,,,,,,,,,,,,,,,,,,,,,,,,,,,,,,,,,,,,,,,,,,,,,,,,,,,,,,,,,,,,,,
,,,,,,,,,,,,a,Incorrect,0,80,80,98,1,t5.png,t1.png,4,9.55E-11,19,Female,2020-07-27_20h34.09.685,torte-2b,2020.1.3,Win32,60,13253,0.94078,,,,,,,,,,,,,,,,,,,,,,,,,,,,,,,,,,,,,,,,,,,,,,,,,,,,,,,,,,,,,,,,,
,,,,,,,,,,,,l,Incorrect,0,81,81,72,1,t5.png,t5.png,0,0.97829,19,Female,2020-07-27_20h34.09.685,torte-2b,2020.1.3,Win32,60,13253,0.465935,,,,,,,,,,,,,,,,,,,,,,,,,,,,,,,,,,,,,,,,,,,,,,,,,,,,,,,,,,,,,,,,,
,,,,,,,,,,,,l,Incorrect,0,82,82,61,1,t1.png,t1.png,0,0.97829,19,Female,2020-07-27_20h34.09.685,torte-2b,2020.1.3,Win32,60,13253,0.566735,,,,,,,,,,,,,,,,,,,,,,,,,,,,,,,,,,,,,,,,,,,,,,,,,,,,,,,,,,,,,,,,,
,,,,,,,,,,,,a,Correct!,0,83,83,21,1,t5.png,t4.png,1,0.90025,19,Female,2020-07-27_20h34.09.685,torte-2b,2020.1.3,Win32,60,13253,0.28369,,,,,,,,,,,,,,,,,,,,,,,,,,,,,,,,,,,,,,,,,,,,,,,,,,,,,,,,,,,,,,,,,
,,,,,,,,,,,,l,Correct!,0,84,84,106,1,t4.png,t1.png,3,0.059078,19,Female,2020-07-27_20h34.09.685,torte-2b,2020.1.3,Win32,60,13253,0.248795,,,,,,,,,,,,,,,,,,,,,,,,,,,,,,,,,,,,,,,,,,,,,,,,,,,,,,,,,,,,,,,,,
,,,,,,,,,,,,a,Correct!,0,85,85,31,1,t1.png,t1.png,0,0.97829,19,Female,2020-07-27_20h34.09.685,torte-2b,2020.1.3,Win32,60,13253,0.688045,,,,,,,,,,,,,,,,,,,,,,,,,,,,,,,,,,,,,,,,,,,,,,,,,,,,,,,,,,,,,,,,,
,,,,,,,,,,,,a,Incorrect,0,86,86,2,1,t3.png,t1.png,2,0.056466,19,Female,2020-07-27_20h34.09.685,torte-2b,2020.1.3,Win32,60,13253,0.335445,,,,,,,,,,,,,,,,,,,,,,,,,,,,,,,,,,,,,,,,,,,,,,,,,,,,,,,,,,,,,,,,,
,,,,,,,,,,,,l,Incorrect,0,87,87,19,1,t2.png,t4.png,2,0.059078,19,Female,2020-07-27_20h34.09.685,torte-2b,2020.1.3,Win32,60,13253,0.298295,,,,,,,,,,,,,,,,,,,,,,,,,,,,,,,,,,,,,,,,,,,,,,,,,,,,,,,,,,,,,,,,,
,,,,,,,,,,,,l,Incorrect,0,88,88,23,1,t4.png,t5.png,1,0.90025,19,Female,2020-07-27_20h34.09.685,torte-2b,2020.1.3,Win32,60,13253,0.540915,,,,,,,,,,,,,,,,,,,,,,,,,,,,,,,,,,,,,,,,,,,,,,,,,,,,,,,,,,,,,,,,,
,,,,,,,,,,,,a,Correct!,0,89,89,42,1,t5.png,t5.png,0,0.97829,19,Female,2020-07-27_20h34.09.685,torte-2b,2020.1.3,Win32,60,13253,0.799045,,,,,,,,,,,,,,,,,,,,,,,,,,,,,,,,,,,,,,,,,,,,,,,,,,,,,,,,,,,,,,,,,
,,,,,,,,,,,,l,Incorrect,0,90,90,55,1,t1.png,t1.png,0,0.97829,19,Female,2020-07-27_20h34.09.685,torte-2b,2020.1.3,Win32,60,13253,0.78731,,,,,,,,,,,,,,,,,,,,,,,,,,,,,,,,,,,,,,,,,,,,,,,,,,,,,,,,,,,,,,,,,
,,,,,,,,,,,,l,Incorrect,0,91,91,84,1,t2.png,t3.png,1,0.90855,19,Female,2020-07-27_20h34.09.685,torte-2b,2020.1.3,Win32,60,13253,0.541425,,,,,,,,,,,,,,,,,,,,,,,,,,,,,,,,,,,,,,,,,,,,,,,,,,,,,,,,,,,,,,,,,
,,,,,,,,,,,,l,Incorrect,0,92,92,38,1,t1.png,t1.png,0,0.97829,19,Female,2020-07-27_20h34.09.685,torte-2b,2020.1.3,Win32,60,13253,0.304285,,,,,,,,,,,,,,,,,,,,,,,,,,,,,,,,,,,,,,,,,,,,,,,,,,,,,,,,,,,,,,,,,
,,,,,,,,,,,,a,Incorrect,0,93,93,94,1,t3.png,t1.png,2,0.056466,19,Female,2020-07-27_20h34.09.685,torte-2b,2020.1.3,Win32,60,13253,0.21671,,,,,,,,,,,,,,,,,,,,,,,,,,,,,,,,,,,,,,,,,,,,,,,,,,,,,,,,,,,,,,,,,
,,,,,,,,,,,,l,Correct!,0,94,94,26,1,t1.png,t5.png,4,9.55E-11,19,Female,2020-07-27_20h34.09.685,torte-2b,2020.1.3,Win32,60,13253,0.439475,,,,,,,,,,,,,,,,,,,,,,,,,,,,,,,,,,,,,,,,,,,,,,,,,,,,,,,,,,,,,,,,,
,,,,,,,,,,,,l,Correct!,0,95,95,11,1,t1.png,t4.png,3,0.0000131,19,Female,2020-07-27_20h34.09.685,torte-2b,2020.1.3,Win32,60,13253,0.404035,,,,,,,,,,,,,,,,,,,,,,,,,,,,,,,,,,,,,,,,,,,,,,,,,,,,,,,,,,,,,,,,,
,,,,,,,,,,,,l,Incorrect,0,96,96,86,1,t5.png,t4.png,1,0.90025,19,Female,2020-07-27_20h34.09.685,torte-2b,2020.1.3,Win32,60,13253,0.43252,,,,,,,,,,,,,,,,,,,,,,,,,,,,,,,,,,,,,,,,,,,,,,,,,,,,,,,,,,,,,,,,,
,,,,,,,,,,,,a,Incorrect,0,97,97,6,1,t5.png,t1.png,4,9.55E-11,19,Female,2020-07-27_20h34.09.685,torte-2b,2020.1.3,Win32,60,13253,0.25941,,,,,,,,,,,,,,,,,,,,,,,,,,,,,,,,,,,,,,,,,,,,,,,,,,,,,,,,,,,,,,,,,
,,,,,,,,,,,,,Too slow :(,0,98,98,117,1,t2.png,t4.png,2,0.059078,19,Female,2020-07-27_20h34.09.685,torte-2b,2020.1.3,Win32,60,13253,,,,,,,,,,,,,,,,,,,,,,,,,,,,,,,,,,,,,,,,,,,,,,,,,,,,,,,,,,,,,,,,,,
,,,,,,,,,,,,l,Correct!,0,99,99,78,1,t1.png,t4.png,3,0.0000131,19,Female,2020-07-27_20h34.09.685,torte-2b,2020.1.3,Win32,60,13253,0.25653,,,,,,,,,,,,,,,,,,,,,,,,,,,,,,,,,,,,,,,,,,,,,,,,,,,,,,,,,,,,,,,,,
,,,,,,,,,,,,l,Correct!,0,100,100,36,1,t1.png,t4.png,3,0.0000131,19,Female,2020-07-27_20h34.09.685,torte-2b,2020.1.3,Win32,60,13253,0.538275,,,,,,,,,,,,,,,,,,,,,,,,,,,,,,,,,,,,,,,,,,,,,,,,,,,,,,,,,,,,,,,,,
,,,,,,,,,,,,l,Incorrect,0,101,101,47,1,t2.png,t3.png,1,0.90855,19,Female,2020-07-27_20h34.09.685,torte-2b,2020.1.3,Win32,60,13253,0.425805,,,,,,,,,,,,,,,,,,,,,,,,,,,,,,,,,,,,,,,,,,,,,,,,,,,,,,,,,,,,,,,,,
,,,,,,,,,,,,l,Correct!,0,102,102,89,1,t1.png,t5.png,4,9.55E-11,19,Female,2020-07-27_20h34.09.685,torte-2b,2020.1.3,Win32,60,13253,0.35794,,,,,,,,,,,,,,,,,,,,,,,,,,,,,,,,,,,,,,,,,,,,,,,,,,,,,,,,,,,,,,,,,
,,,,,,,,,,,,l,Incorrect,0,103,103,75,1,t2.png,t3.png,1,0.90855,19,Female,2020-07-27_20h34.09.685,torte-2b,2020.1.3,Win32,60,13253,0.58469,,,,,,,,,,,,,,,,,,,,,,,,,,,,,,,,,,,,,,,,,,,,,,,,,,,,,,,,,,,,,,,,,
,,,,,,,,,,,,l,Incorrect,0,104,104,41,1,t4.png,t5.png,1,0.90025,19,Female,2020-07-27_20h34.09.685,torte-2b,2020.1.3,Win32,60,13253,1.730515,,,,,,,,,,,,,,,,,,,,,,,,,,,,,,,,,,,,,,,,,,,,,,,,,,,,,,,,,,,,,,,,,
,,,,,,,,,,,,a,Correct!,0,105,105,114,1,t5.png,t4.png,1,0.90025,19,Female,2020-07-27_20h34.09.685,torte-2b,2020.1.3,Win32,60,13253,0.622,,,,,,,,,,,,,,,,,,,,,,,,,,,,,,,,,,,,,,,,,,,,,,,,,,,,,,,,,,,,,,,,,
,,,,,,,,,,,,l,Incorrect,0,106,106,32,1,t3.png,t2.png,1,0.90855,19,Female,2020-07-27_20h34.09.685,torte-2b,2020.1.3,Win32,60,13253,0.321265,,,,,,,,,,,,,,,,,,,,,,,,,,,,,,,,,,,,,,,,,,,,,,,,,,,,,,,,,,,,,,,,,
,,,,,,,,,,,,a,Incorrect,0,107,107,99,1,t4.png,t1.png,3,0.059078,19,Female,2020-07-27_20h34.09.685,torte-2b,2020.1.3,Win32,60,13253,0.62065,,,,,,,,,,,,,,,,,,,,,,,,,,,,,,,,,,,,,,,,,,,,,,,,,,,,,,,,,,,,,,,,,
,,,,,,,,,,,,a,Incorrect,0,108,108,108,1,t3.png,t1.png,2,0.056466,19,Female,2020-07-27_20h34.09.685,torte-2b,2020.1.3,Win32,60,13253,0.3989,,,,,,,,,,,,,,,,,,,,,,,,,,,,,,,,,,,,,,,,,,,,,,,,,,,,,,,,,,,,,,,,,
,,,,,,,,,,,,l,Incorrect,0,109,109,112,1,t5.png,t4.png,1,0.90025,19,Female,2020-07-27_20h34.09.685,torte-2b,2020.1.3,Win32,60,13253,0.28814,,,,,,,,,,,,,,,,,,,,,,,,,,,,,,,,,,,,,,,,,,,,,,,,,,,,,,,,,,,,,,,,,
,,,,,,,,,,,,a,Incorrect,0,110,110,74,1,t5.png,t1.png,4,9.55E-11,19,Female,2020-07-27_20h34.09.685,torte-2b,2020.1.3,Win32,60,13253,0.414785,,,,,,,,,,,,,,,,,,,,,,,,,,,,,,,,,,,,,,,,,,,,,,,,,,,,,,,,,,,,,,,,,
,,,,,,,,,,,,l,Correct!,0,111,111,81,1,t3.png,t1.png,2,0.056466,19,Female,2020-07-27_20h34.09.685,torte-2b,2020.1.3,Win32,60,13253,0.19184,,,,,,,,,,,,,,,,,,,,,,,,,,,,,,,,,,,,,,,,,,,,,,,,,,,,,,,,,,,,,,,,,
,,,,,,,,,,,,l,Incorrect,0,112,112,119,1,t5.png,t4.png,1,0.90025,19,Female,2020-07-27_20h34.09.685,torte-2b,2020.1.3,Win32,60,13253,0.16652,,,,,,,,,,,,,,,,,,,,,,,,,,,,,,,,,,,,,,,,,,,,,,,,,,,,,,,,,,,,,,,,,
,,,,,,,,,,,,l,Incorrect,0,113,113,33,1,t3.png,t2.png,1,0.90855,19,Female,2020-07-27_20h34.09.685,torte-2b,2020.1.3,Win32,60,13253,0.138635,,,,,,,,,,,,,,,,,,,,,,,,,,,,,,,,,,,,,,,,,,,,,,,,,,,,,,,,,,,,,,,,,
,,,,,,,,,,,,a,Correct!,0,114,114,97,1,t1.png,t1.png,0,0.97829,19,Female,2020-07-27_20h34.09.685,torte-2b,2020.1.3,Win32,60,13253,0.313695,,,,,,,,,,,,,,,,,,,,,,,,,,,,,,,,,,,,,,,,,,,,,,,,,,,,,,,,,,,,,,,,,
,,,,,,,,,,,,l,Incorrect,0,115,115,104,1,t4.png,t5.png,1,0.90025,19,Female,2020-07-27_20h34.09.685,torte-2b,2020.1.3,Win32,60,13253,0.322075,,,,,,,,,,,,,,,,,,,,,,,,,,,,,,,,,,,,,,,,,,,,,,,,,,,,,,,,,,,,,,,,,
,,,,,,,,,,,,a,Incorrect,0,116,116,96,1,t2.png,t4.png,2,0.059078,19,Female,2020-07-27_20h34.09.685,torte-2b,2020.1.3,Win32,60,13253,0.265795,,,,,,,,,,,,,,,,,,,,,,,,,,,,,,,,,,,,,,,,,,,,,,,,,,,,,,,,,,,,,,,,,
,,,,,,,,,,,,l,Correct!,0,117,117,63,1,t1.png,t5.png,4,9.55E-11,19,Female,2020-07-27_20h34.09.685,torte-2b,2020.1.3,Win32,60,13253,0.2537,,,,,,,,,,,,,,,,,,,,,,,,,,,,,,,,,,,,,,,,,,,,,,,,,,,,,,,,,,,,,,,,,
,,,,,,,,,,,,l,Incorrect,0,118,118,100,1,t3.png,t2.png,1,0.90855,19,Female,2020-07-27_20h34.09.685,torte-2b,2020.1.3,Win32,60,13253,0.215505,,,,,,,,,,,,,,,,,,,,,,,,,,,,,,,,,,,,,,,,,,,,,,,,,,,,,,,,,,,,,,,,,
,,,,,,,,,,,,,Too slow :(,0,119,119,118,1,t1.png,t5.png,4,9.55E-11,19,Female,2020-07-27_20h34.09.685,torte-2b,2020.1.3,Win32,60,13253,,,,,,,,,,,,,,,,,,,,,,,,,,,,,,,,,,,,,,,,,,,,,,,,,,,,,,,,,,,,,,,,,,
,,,,,,,,,,,,l,Correct!,,,,,,t1.png,t4.png,3,0.0000131,19,Female,2020-07-27_20h34.09.685,torte-2b,2020.1.3,Win32,60,13253,0.664055,a,0.29277,space,25.84097,0,0,0,23,1,,,,,,,,,,,,,,,,,,,,,,,,,,,,,,,,,,,,,,,,,,,,,,,,,,,,,,,,
,,,,,,,,,,,,l,Incorrect,,,,,,t2.png,t2.png,0,0.98115,19,Female,2020-07-27_20h34.09.685,torte-2b,2020.1.3,Win32,60,13253,0.97567,,,,,0,1,1,112,1,,,,,,,,,,,,,,,,,,,,,,,,,,,,,,,,,,,,,,,,,,,,,,,,,,,,,,,,
,,,,,,,,,,,,l,Incorrect,,,,,,t2.png,t3.png,1,0.90855,19,Female,2020-07-27_20h34.09.685,torte-2b,2020.1.3,Win32,60,13253,0.625005,,,,,0,2,2,113,1,,,,,,,,,,,,,,,,,,,,,,,,,,,,,,,,,,,,,,,,,,,,,,,,,,,,,,,,
,,,,,,,,,,,,l,Incorrect,,,,,,t2.png,t2.png,0,0.98115,19,Female,2020-07-27_20h34.09.685,torte-2b,2020.1.3,Win32,60,13253,1.44231,,,,,0,3,3,90,1,,,,,,,,,,,,,,,,,,,,,,,,,,,,,,,,,,,,,,,,,,,,,,,,,,,,,,,,
,,,,,,,,,,,,a,Correct!,,,,,,t5.png,t5.png,0,0.978,19,Female,2020-07-27_20h34.09.685,torte-2b,2020.1.3,Win32,60,13253,0.41568,,,,,0,4,4,51,1,,,,,,,,,,,,,,,,,,,,,,,,,,,,,,,,,,,,,,,,,,,,,,,,,,,,,,,,
,,,,,,,,,,,,a,Correct!,,,,,,t2.png,t1.png,1,0.9,19,Female,2020-07-27_20h34.09.685,torte-2b,2020.1.3,Win32,60,13253,0.55705,,,,,0,5,5,93,1,,,,,,,,,,,,,,,,,,,,,,,,,,,,,,,,,,,,,,,,,,,,,,,,,,,,,,,,
,,,,,,,,,,,,a,Incorrect,,,,,,t4.png,t1.png,3,0.0000131,19,Female,2020-07-27_20h34.09.685,torte-2b,2020.1.3,Win32,60,13253,0.40181,,,,,0,6,6,102,1,,,,,,,,,,,,,,,,,,,,,,,,,,,,,,,,,,,,,,,,,,,,,,,,,,,,,,,,
,,,,,,,,,,,,l,Correct!,,,,,,t2.png,t4.png,2,0.059078,19,Female,2020-07-27_20h34.09.685,torte-2b,2020.1.3,Win32,60,13253,0.370875,,,,,0,7,7,67,1,,,,,,,,,,,,,,,,,,,,,,,,,,,,,,,,,,,,,,,,,,,,,,,,,,,,,,,,
,,,,,,,,,,,,l,Correct!,,,,,,t4.png,t3.png,1,0.90855,19,Female,2020-07-27_20h34.09.685,torte-2b,2020.1.3,Win32,60,13253,0.4652,,,,,0,8,8,56,1,,,,,,,,,,,,,,,,,,,,,,,,,,,,,,,,,,,,,,,,,,,,,,,,,,,,,,,,
,,,,,,,,,,,,a,Incorrect,,,,,,t4.png,t1.png,3,0.059078,19,Female,2020-07-27_20h34.09.685,torte-2b,2020.1.3,Win32,60,13253,0.034815,,,,,0,9,9,87,1,,,,,,,,,,,,,,,,,,,,,,,,,,,,,,,,,,,,,,,,,,,,,,,,,,,,,,,,
,,,,,,,,,,,,l,Correct!,,,,,,t3.png,t5.png,2,0.0565,19,Female,2020-07-27_20h34.09.685,torte-2b,2020.1.3,Win32,60,13253,0.61543,,,,,0,10,10,71,1,,,,,,,,,,,,,,,,,,,,,,,,,,,,,,,,,,,,,,,,,,,,,,,,,,,,,,,,
,,,,,,,,,,,,l,Correct!,,,,,,t2.png,t5.png,3,0.0000131,19,Female,2020-07-27_20h34.09.685,torte-2b,2020.1.3,Win32,60,13253,0.503535,,,,,0,11,11,39,1,,,,,,,,,,,,,,,,,,,,,,,,,,,,,,,,,,,,,,,,,,,,,,,,,,,,,,,,
,,,,,,,,,,,,l,Incorrect,,,,,,t3.png,t4.png,1,0.90855,19,Female,2020-07-27_20h34.09.685,torte-2b,2020.1.3,Win32,60,13253,0.47126,,,,,0,12,12,103,1,,,,,,,,,,,,,,,,,,,,,,,,,,,,,,,,,,,,,,,,,,,,,,,,,,,,,,,,
,,,,,,,,,,,,l,Incorrect,,,,,,t5.png,t4.png,1,0.9,19,Female,2020-07-27_20h34.09.685,torte-2b,2020.1.3,Win32,60,13253,0.81888,,,,,0,13,13,92,1,,,,,,,,,,,,,,,,,,,,,,,,,,,,,,,,,,,,,,,,,,,,,,,,,,,,,,,,
,,,,,,,,,,,,l,Incorrect,,,,,,t3.png,t4.png,1,0.90855,19,Female,2020-07-27_20h34.09.685,torte-2b,2020.1.3,Win32,60,13253,0.5562,,,,,0,14,14,111,1,,,,,,,,,,,,,,,,,,,,,,,,,,,,,,,,,,,,,,,,,,,,,,,,,,,,,,,,
,,,,,,,,,,,,l,Correct!,,,,,,t1.png,t3.png,2,0.0565,19,Female,2020-07-27_20h34.09.685,torte-2b,2020.1.3,Win32,60,13253,0.915765,,,,,0,15,15,12,1,,,,,,,,,,,,,,,,,,,,,,,,,,,,,,,,,,,,,,,,,,,,,,,,,,,,,,,,
,,,,,,,,,,,,l,Incorrect,,,,,,t2.png,t2.png,0,0.98115,19,Female,2020-07-27_20h34.09.685,torte-2b,2020.1.3,Win32,60,13253,0.648435,,,,,0,16,16,69,1,,,,,,,,,,,,,,,,,,,,,,,,,,,,,,,,,,,,,,,,,,,,,,,,,,,,,,,,
,,,,,,,,,,,,l,Incorrect,,,,,,t5.png,t5.png,0,0.97829,19,Female,2020-07-27_20h34.09.685,torte-2b,2020.1.3,Win32,60,13253,0.43778,,,,,0,17,17,35,1,,,,,,,,,,,,,,,,,,,,,,,,,,,,,,,,,,,,,,,,,,,,,,,,,,,,,,,,
,,,,,,,,,,,,a,Incorrect,,,,,,t4.png,t1.png,3,0.059078,19,Female,2020-07-27_20h34.09.685,torte-2b,2020.1.3,Win32,60,13253,0.709215,,,,,0,18,18,75,1,,,,,,,,,,,,,,,,,,,,,,,,,,,,,,,,,,,,,,,,,,,,,,,,,,,,,,,,
,,,,,,,,,,,,a,Correct!,,,,,,t3.png,t2.png,1,0.90855,19,Female,2020-07-27_20h34.09.685,torte-2b,2020.1.3,Win32,60,13253,0.575995,,,,,0,19,19,0,1,,,,,,,,,,,,,,,,,,,,,,,,,,,,,,,,,,,,,,,,,,,,,,,,,,,,,,,,
,,,,,,,,,,,,l,Incorrect,,,,,,t4.png,t5.png,1,0.90025,19,Female,2020-07-27_20h34.09.685,torte-2b,2020.1.3,Win32,60,13253,0.6591,,,,,0,20,20,63,1,,,,,,,,,,,,,,,,,,,,,,,,,,,,,,,,,,,,,,,,,,,,,,,,,,,,,,,,
,,,,,,,,,,,,a,Incorrect,,,,,,t5.png,t1.png,4,9.55E-11,19,Female,2020-07-27_20h34.09.685,torte-2b,2020.1.3,Win32,60,13253,0.54799,,,,,0,21,21,89,1,,,,,,,,,,,,,,,,,,,,,,,,,,,,,,,,,,,,,,,,,,,,,,,,,,,,,,,,
,,,,,,,,,,,,a,Incorrect,,,,,,t5.png,t1.png,4,9.55E-11,19,Female,2020-07-27_20h34.09.685,torte-2b,2020.1.3,Win32,60,13253,0.373005,,,,,0,22,22,117,1,,,,,,,,,,,,,,,,,,,,,,,,,,,,,,,,,,,,,,,,,,,,,,,,,,,,,,,,
,,,,,,,,,,,,l,Incorrect,,,,,,t5.png,t4.png,1,0.90025,19,Female,2020-07-27_20h34.09.685,torte-2b,2020.1.3,Win32,60,13253,0.52184,,,,,0,23,23,25,1,,,,,,,,,,,,,,,,,,,,,,,,,,,,,,,,,,,,,,,,,,,,,,,,,,,,,,,,
,,,,,,,,,,,,l,Incorrect,,,,,,t2.png,t3.png,1,0.90855,19,Female,2020-07-27_20h34.09.685,torte-2b,2020.1.3,Win32,60,13253,0.39887,,,,,0,24,24,64,1,,,,,,,,,,,,,,,,,,,,,,,,,,,,,,,,,,,,,,,,,,,,,,,,,,,,,,,,
,,,,,,,,,,,,l,Correct!,,,,,,t1.png,t3.png,2,0.0565,19,Female,2020-07-27_20h34.09.685,torte-2b,2020.1.3,Win32,60,13253,0.45407,,,,,0,25,25,95,1,,,,,,,,,,,,,,,,,,,,,,,,,,,,,,,,,,,,,,,,,,,,,,,,,,,,,,,,
,,,,,,,,,,,,l,Incorrect,,,,,,t1.png,t2.png,1,0.9,19,Female,2020-07-27_20h34.09.685,torte-2b,2020.1.3,Win32,60,13253,0.398685,,,,,0,26,26,17,1,,,,,,,,,,,,,,,,,,,,,,,,,,,,,,,,,,,,,,,,,,,,,,,,,,,,,,,,
,,,,,,,,,,,,l,Incorrect,,,,,,t3.png,t4.png,1,0.90855,19,Female,2020-07-27_20h34.09.685,torte-2b,2020.1.3,Win32,60,13253,0.306725,,,,,0,27,27,9,1,,,,,,,,,,,,,,,,,,,,,,,,,,,,,,,,,,,,,,,,,,,,,,,,,,,,,,,,
,,,,,,,,,,,,l,Correct!,,,,,,t5.png,t2.png,3,0.0000131,19,Female,2020-07-27_20h34.09.685,torte-2b,2020.1.3,Win32,60,13253,0.264265,,,,,0,28,28,83,1,,,,,,,,,,,,,,,,,,,,,,,,,,,,,,,,,,,,,,,,,,,,,,,,,,,,,,,,
,,,,,,,,,,,,a,Incorrect,,,,,,t5.png,t3.png,2,0.056466,19,Female,2020-07-27_20h34.09.685,torte-2b,2020.1.3,Win32,60,13253,0.02063,,,,,0,29,29,37,1,,,,,,,,,,,,,,,,,,,,,,,,,,,,,,,,,,,,,,,,,,,,,,,,,,,,,,,,
,,,,,,,,,,,,l,Incorrect,,,,,,t1.png,t2.png,1,0.9,19,Female,2020-07-27_20h34.09.685,torte-2b,2020.1.3,Win32,60,13253,0.51495,,,,,0,30,30,41,1,,,,,,,,,,,,,,,,,,,,,,,,,,,,,,,,,,,,,,,,,,,,,,,,,,,,,,,,
,,,,,,,,,,,,l,Incorrect,,,,,,t2.png,t3.png,1,0.90855,19,Female,2020-07-27_20h34.09.685,torte-2b,2020.1.3,Win32,60,13253,0.48114,,,,,0,31,31,79,1,,,,,,,,,,,,,,,,,,,,,,,,,,,,,,,,,,,,,,,,,,,,,,,,,,,,,,,,
,,,,,,,,,,,,a,Incorrect,,,,,,t1.png,t5.png,4,9.55E-11,19,Female,2020-07-27_20h34.09.685,torte-2b,2020.1.3,Win32,60,13253,0.193145,,,,,0,32,32,1,1,,,,,,,,,,,,,,,,,,,,,,,,,,,,,,,,,,,,,,,,,,,,,,,,,,,,,,,,
,,,,,,,,,,,,l,Incorrect,,,,,,t4.png,t4.png,0,0.98115,19,Female,2020-07-27_20h34.09.685,torte-2b,2020.1.3,Win32,60,13253,0.50537,,,,,0,33,33,52,1,,,,,,,,,,,,,,,,,,,,,,,,,,,,,,,,,,,,,,,,,,,,,,,,,,,,,,,,
,,,,,,,,,,,,l,Incorrect,,,,,,t2.png,t3.png,1,0.90855,19,Female,2020-07-27_20h34.09.685,torte-2b,2020.1.3,Win32,60,13253,0.709495,,,,,0,34,34,70,1,,,,,,,,,,,,,,,,,,,,,,,,,,,,,,,,,,,,,,,,,,,,,,,,,,,,,,,,
,,,,,,,,,,,,a,Incorrect,,,,,,t2.png,t4.png,2,0.059078,19,Female,2020-07-27_20h34.09.685,torte-2b,2020.1.3,Win32,60,13253,1.014645,,,,,0,35,35,84,1,,,,,,,,,,,,,,,,,,,,,,,,,,,,,,,,,,,,,,,,,,,,,,,,,,,,,,,,
,,,,,,,,,,,,a,Correct!,,,,,,t3.png,t4.png,1,0.90855,19,Female,2020-07-27_20h34.09.685,torte-2b,2020.1.3,Win32,60,13253,0.93759,,,,,0,36,36,58,1,,,,,,,,,,,,,,,,,,,,,,,,,,,,,,,,,,,,,,,,,,,,,,,,,,,,,,,,
,,,,,,,,,,,,l,Incorrect,,,,,,t1.png,t1.png,0,0.978,19,Female,2020-07-27_20h34.09.685,torte-2b,2020.1.3,Win32,60,13253,1.448535,,,,,0,37,37,22,1,,,,,,,,,,,,,,,,,,,,,,,,,,,,,,,,,,,,,,,,,,,,,,,,,,,,,,,,
,,,,,,,,,,,,l,Correct!,,,,,,t1.png,t5.png,4,9.55E-11,19,Female,2020-07-27_20h34.09.685,torte-2b,2020.1.3,Win32,60,13253,1.041745,,,,,0,38,38,30,1,,,,,,,,,,,,,,,,,,,,,,,,,,,,,,,,,,,,,,,,,,,,,,,,,,,,,,,,
,,,,,,,,,,,,l,Incorrect,,,,,,t4.png,t5.png,1,0.90025,19,Female,2020-07-27_20h34.09.685,torte-2b,2020.1.3,Win32,60,13253,1.78468,,,,,0,39,39,86,1,,,,,,,,,,,,,,,,,,,,,,,,,,,,,,,,,,,,,,,,,,,,,,,,,,,,,,,,
,,,,,,,,,,,,l,Incorrect,,,,,,t2.png,t1.png,1,0.9,19,Female,2020-07-27_20h34.09.685,torte-2b,2020.1.3,Win32,60,13253,2.181505,,,,,0,40,40,100,1,,,,,,,,,,,,,,,,,,,,,,,,,,,,,,,,,,,,,,,,,,,,,,,,,,,,,,,,
,,,,,,,,,,,,l,Correct!,,,,,,t1.png,t3.png,2,0.056466,19,Female,2020-07-27_20h34.09.685,torte-2b,2020.1.3,Win32,60,13253,1.771545,,,,,0,41,41,24,1,,,,,,,,,,,,,,,,,,,,,,,,,,,,,,,,,,,,,,,,,,,,,,,,,,,,,,,,
,,,,,,,,,,,,a,Incorrect,,,,,,t5.png,t3.png,2,0.0565,19,Female,2020-07-27_20h34.09.685,torte-2b,2020.1.3,Win32,60,13253,1.66832,,,,,0,42,42,50,1,,,,,,,,,,,,,,,,,,,,,,,,,,,,,,,,,,,,,,,,,,,,,,,,,,,,,,,,
,,,,,,,,,,,,l,Incorrect,,,,,,t2.png,t1.png,1,0.90025,19,Female,2020-07-27_20h34.09.685,torte-2b,2020.1.3,Win32,60,13253,0.932655,,,,,0,43,43,105,1,,,,,,,,,,,,,,,,,,,,,,,,,,,,,,,,,,,,,,,,,,,,,,,,,,,,,,,,
,,,,,,,,,,,,l,Incorrect,,,,,,t3.png,t4.png,1,0.90855,19,Female,2020-07-27_20h34.09.685,torte-2b,2020.1.3,Win32,60,13253,0.52085,,,,,0,44,44,5,1,,,,,,,,,,,,,,,,,,,,,,,,,,,,,,,,,,,,,,,,,,,,,,,,,,,,,,,,
,,,,,,,,,,,,a,Incorrect,,,,,,t3.png,t1.png,2,0.056466,19,Female,2020-07-27_20h34.09.685,torte-2b,2020.1.3,Win32,60,13253,1.107795,,,,,0,45,45,34,1,,,,,,,,,,,,,,,,,,,,,,,,,,,,,,,,,,,,,,,,,,,,,,,,,,,,,,,,
,,,,,,,,,,,,l,Correct!,,,,,,t3.png,t5.png,2,0.056466,19,Female,2020-07-27_20h34.09.685,torte-2b,2020.1.3,Win32,60,13253,0.404885,,,,,0,46,46,78,1,,,,,,,,,,,,,,,,,,,,,,,,,,,,,,,,,,,,,,,,,,,,,,,,,,,,,,,,
,,,,,,,,,,,,l,Incorrect,,,,,,t5.png,t4.png,1,0.9,19,Female,2020-07-27_20h34.09.685,torte-2b,2020.1.3,Win32,60,13253,0.620425,,,,,0,47,47,55,1,,,,,,,,,,,,,,,,,,,,,,,,,,,,,,,,,,,,,,,,,,,,,,,,,,,,,,,,
,,,,,,,,,,,,l,Correct!,,,,,,t5.png,t3.png,2,0.056466,19,Female,2020-07-27_20h34.09.685,torte-2b,2020.1.3,Win32,60,13253,0.42854,,,,,0,48,48,27,1,,,,,,,,,,,,,,,,,,,,,,,,,,,,,,,,,,,,,,,,,,,,,,,,,,,,,,,,
,,,,,,,,,,,,a,Incorrect,,,,,,t1.png,t5.png,4,9.55E-11,19,Female,2020-07-27_20h34.09.685,torte-2b,2020.1.3,Win32,60,13253,1.431795,,,,,0,49,49,118,1,,,,,,,,,,,,,,,,,,,,,,,,,,,,,,,,,,,,,,,,,,,,,,,,,,,,,,,,
,,,,,,,,,,,,l,Correct!,,,,,,t1.png,t3.png,2,0.056466,19,Female,2020-07-27_20h34.09.685,torte-2b,2020.1.3,Win32,60,13253,1.18191,,,,,0,50,50,32,1,,,,,,,,,,,,,,,,,,,,,,,,,,,,,,,,,,,,,,,,,,,,,,,,,,,,,,,,
,,,,,,,,,,,,l,Correct!,,,,,,t1.png,t4.png,3,0.0000131,19,Female,2020-07-27_20h34.09.685,torte-2b,2020.1.3,Win32,60,13253,1.714945,,,,,0,51,51,16,1,,,,,,,,,,,,,,,,,,,,,,,,,,,,,,,,,,,,,,,,,,,,,,,,,,,,,,,,
,,,,,,,,,,,,l,Incorrect,,,,,,t2.png,t3.png,1,0.909,19,Female,2020-07-27_20h34.09.685,torte-2b,2020.1.3,Win32,60,13253,0.525345,,,,,0,52,52,8,1,,,,,,,,,,,,,,,,,,,,,,,,,,,,,,,,,,,,,,,,,,,,,,,,,,,,,,,,
,,,,,,,,,,,,a,Incorrect,,,,,,t3.png,t1.png,2,0.056466,19,Female,2020-07-27_20h34.09.685,torte-2b,2020.1.3,Win32,60,13253,0.598595,,,,,0,53,53,72,1,,,,,,,,,,,,,,,,,,,,,,,,,,,,,,,,,,,,,,,,,,,,,,,,,,,,,,,,
,,,,,,,,,,,,a,Correct!,,,,,,t4.png,t4.png,0,0.98115,19,Female,2020-07-27_20h34.09.685,torte-2b,2020.1.3,Win32,60,13253,0.84775,,,,,0,54,54,88,1,,,,,,,,,,,,,,,,,,,,,,,,,,,,,,,,,,,,,,,,,,,,,,,,,,,,,,,,
,,,,,,,,,,,,l,Incorrect,,,,,,t1.png,t1.png,0,0.97829,19,Female,2020-07-27_20h34.09.685,torte-2b,2020.1.3,Win32,60,13253,0.30598,,,,,0,55,55,114,1,,,,,,,,,,,,,,,,,,,,,,,,,,,,,,,,,,,,,,,,,,,,,,,,,,,,,,,,
,,,,,,,,,,,,a,Incorrect,,,,,,t4.png,t1.png,3,0.059078,19,Female,2020-07-27_20h34.09.685,torte-2b,2020.1.3,Win32,60,13253,0.508965,,,,,0,56,56,57,1,,,,,,,,,,,,,,,,,,,,,,,,,,,,,,,,,,,,,,,,,,,,,,,,,,,,,,,,
,,,,,,,,,,,,l,Correct!,,,,,,t3.png,t5.png,2,0.056466,19,Female,2020-07-27_20h34.09.685,torte-2b,2020.1.3,Win32,60,13253,0.548405,,,,,0,57,57,60,1,,,,,,,,,,,,,,,,,,,,,,,,,,,,,,,,,,,,,,,,,,,,,,,,,,,,,,,,
,,,,,,,,,,,,a,Correct!,,,,,,t4.png,t4.png,0,0.98115,19,Female,2020-07-27_20h34.09.685,torte-2b,2020.1.3,Win32,60,13253,0.55867,,,,,0,58,58,68,1,,,,,,,,,,,,,,,,,,,,,,,,,,,,,,,,,,,,,,,,,,,,,,,,,,,,,,,,
,,,,,,,,,,,,l,Incorrect,,,,,,t5.png,t4.png,1,0.90025,19,Female,2020-07-27_20h34.09.685,torte-2b,2020.1.3,Win32,60,13253,0.871825,,,,,0,59,59,14,1,,,,,,,,,,,,,,,,,,,,,,,,,,,,,,,,,,,,,,,,,,,,,,,,,,,,,,,,
,,,,,,,,,,,,l,Correct!,,,,,,t3.png,t5.png,2,0.056466,19,Female,2020-07-27_20h34.09.685,torte-2b,2020.1.3,Win32,60,13253,0.61518,,,,,0,60,60,47,1,,,,,,,,,,,,,,,,,,,,,,,,,,,,,,,,,,,,,,,,,,,,,,,,,,,,,,,,
,,,,,,,,,,,,l,Incorrect,,,,,,t4.png,t4.png,0,0.98115,19,Female,2020-07-27_20h34.09.685,torte-2b,2020.1.3,Win32,60,13253,0.55662,,,,,0,61,61,59,1,,,,,,,,,,,,,,,,,,,,,,,,,,,,,,,,,,,,,,,,,,,,,,,,,,,,,,,,
,,,,,,,,,,,,l,Correct!,,,,,,t4.png,t1.png,3,0.0000131,19,Female,2020-07-27_20h34.09.685,torte-2b,2020.1.3,Win32,60,13253,0.36582,,,,,0,62,62,76,1,,,,,,,,,,,,,,,,,,,,,,,,,,,,,,,,,,,,,,,,,,,,,,,,,,,,,,,,
,,,,,,,,,,,,l,Incorrect,,,,,,t4.png,t5.png,1,0.90025,19,Female,2020-07-27_20h34.09.685,torte-2b,2020.1.3,Win32,60,13253,0.314475,,,,,0,63,63,33,1,,,,,,,,,,,,,,,,,,,,,,,,,,,,,,,,,,,,,,,,,,,,,,,,,,,,,,,,
,,,,,,,,,,,,l,Incorrect,,,,,,t2.png,t4.png,2,0.059078,19,Female,2020-07-27_20h34.09.685,torte-2b,2020.1.3,Win32,60,13253,1.04833,,,,,0,64,64,53,1,,,,,,,,,,,,,,,,,,,,,,,,,,,,,,,,,,,,,,,,,,,,,,,,,,,,,,,,
,,,,,,,,,,,,a,Correct!,,,,,,t4.png,t1.png,3,0.059078,19,Female,2020-07-27_20h34.09.685,torte-2b,2020.1.3,Win32,60,13253,1.06458,,,,,0,65,65,73,1,,,,,,,,,,,,,,,,,,,,,,,,,,,,,,,,,,,,,,,,,,,,,,,,,,,,,,,,
,,,,,,,,,,,,a,Incorrect,,,,,,t5.png,t2.png,3,0.0000131,19,Female,2020-07-27_20h34.09.685,torte-2b,2020.1.3,Win32,60,13253,0.548555,,,,,0,66,66,66,1,,,,,,,,,,,,,,,,,,,,,,,,,,,,,,,,,,,,,,,,,,,,,,,,,,,,,,,,
,,,,,,,,,,,,a,Incorrect,,,,,,t5.png,t3.png,2,0.056466,19,Female,2020-07-27_20h34.09.685,torte-2b,2020.1.3,Win32,60,13253,0.906115,,,,,0,67,67,80,1,,,,,,,,,,,,,,,,,,,,,,,,,,,,,,,,,,,,,,,,,,,,,,,,,,,,,,,,
,,,,,,,,,,,,l,Correct!,,,,,,t2.png,t5.png,3,0.0000131,19,Female,2020-07-27_20h34.09.685,torte-2b,2020.1.3,Win32,60,13253,1.18164,,,,,0,68,68,115,1,,,,,,,,,,,,,,,,,,,,,,,,,,,,,,,,,,,,,,,,,,,,,,,,,,,,,,,,
,,,,,,,,,,,,a,Incorrect,,,,,,t3.png,t1.png,2,0.0565,19,Female,2020-07-27_20h34.09.685,torte-2b,2020.1.3,Win32,60,13253,1.04845,,,,,0,69,69,40,1,,,,,,,,,,,,,,,,,,,,,,,,,,,,,,,,,,,,,,,,,,,,,,,,,,,,,,,,
,,,,,,,,,,,,l,Incorrect,,,,,,t1.png,t1.png,0,0.97829,19,Female,2020-07-27_20h34.09.685,torte-2b,2020.1.3,Win32,60,13253,1.83154,,,,,0,70,70,110,1,,,,,,,,,,,,,,,,,,,,,,,,,,,,,,,,,,,,,,,,,,,,,,,,,,,,,,,,
,,,,,,,,,,,,,Too slow :(,,,,,,t2.png,t1.png,1,0.90025,19,Female,2020-07-27_20h34.09.685,torte-2b,2020.1.3,Win32,60,13253,,,,,,0,71,71,65,1,,,,,,,,,,,,,,,,,,,,,,,,,,,,,,,,,,,,,,,,,,,,,,,,,,,,,,,,
,,,,,,,,,,,,l,Correct!,,,,,,t1.png,t4.png,3,0.0000131,19,Female,2020-07-27_20h34.09.685,torte-2b,2020.1.3,Win32,60,13253,0.663555,,,,,0,72,72,106,1,,,,,,,,,,,,,,,,,,,,,,,,,,,,,,,,,,,,,,,,,,,,,,,,,,,,,,,,
,,,,,,,,,,,,l,Incorrect,,,,,,t4.png,t5.png,1,0.90025,19,Female,2020-07-27_20h34.09.685,torte-2b,2020.1.3,Win32,60,13253,0.45922,,,,,0,73,73,21,1,,,,,,,,,,,,,,,,,,,,,,,,,,,,,,,,,,,,,,,,,,,,,,,,,,,,,,,,
,,,,,,,,,,,,,Too slow :(,,,,,,t4.png,t3.png,1,0.90855,19,Female,2020-07-27_20h34.09.685,torte-2b,2020.1.3,Win32,60,13253,,,,,,0,74,74,29,1,,,,,,,,,,,,,,,,,,,,,,,,,,,,,,,,,,,,,,,,,,,,,,,,,,,,,,,,
,,,,,,,,,,,,a,Incorrect,,,,,,t4.png,t1.png,3,0.0000131,19,Female,2020-07-27_20h34.09.685,torte-2b,2020.1.3,Win32,60,13253,0.99786,,,,,0,75,75,28,1,,,,,,,,,,,,,,,,,,,,,,,,,,,,,,,,,,,,,,,,,,,,,,,,,,,,,,,,
,,,,,,,,,,,,a,Correct!,,,,,,t1.png,t2.png,1,0.90025,19,Female,2020-07-27_20h34.09.685,torte-2b,2020.1.3,Win32,60,13253,0.39885,,,,,0,76,76,6,1,,,,,,,,,,,,,,,,,,,,,,,,,,,,,,,,,,,,,,,,,,,,,,,,,,,,,,,,
,,,,,,,,,,,,a,Correct!,,,,,,t1.png,t1.png,0,0.97829,19,Female,2020-07-27_20h34.09.685,torte-2b,2020.1.3,Win32,60,13253,0.16714,,,,,0,77,77,4,1,,,,,,,,,,,,,,,,,,,,,,,,,,,,,,,,,,,,,,,,,,,,,,,,,,,,,,,,
,,,,,,,,,,,,a,Correct!,,,,,,t5.png,t5.png,0,0.97829,19,Female,2020-07-27_20h34.09.685,torte-2b,2020.1.3,Win32,60,13253,0.165005,,,,,0,78,78,2,1,,,,,,,,,,,,,,,,,,,,,,,,,,,,,,,,,,,,,,,,,,,,,,,,,,,,,,,,
,,,,,,,,,,,,l,Incorrect,,,,,,t4.png,t3.png,1,0.90855,19,Female,2020-07-27_20h34.09.685,torte-2b,2020.1.3,Win32,60,13253,1.98154,,,,,0,79,79,11,1,,,,,,,,,,,,,,,,,,,,,,,,,,,,,,,,,,,,,,,,,,,,,,,,,,,,,,,,
,,,,,,,,,,,,l,Correct!,,,,,,t1.png,t5.png,4,9.55E-11,19,Female,2020-07-27_20h34.09.685,torte-2b,2020.1.3,Win32,60,13253,0.48668,,,,,0,80,80,20,1,,,,,,,,,,,,,,,,,,,,,,,,,,,,,,,,,,,,,,,,,,,,,,,,,,,,,,,,
,,,,,,,,,,,,l,Correct!,,,,,,t2.png,t5.png,3,0.0000131,19,Female,2020-07-27_20h34.09.685,torte-2b,2020.1.3,Win32,60,13253,1.787475,,,,,0,81,81,46,1,,,,,,,,,,,,,,,,,,,,,,,,,,,,,,,,,,,,,,,,,,,,,,,,,,,,,,,,
,,,,,,,,,,,,a,Correct!,,,,,,t2.png,t1.png,1,0.90025,19,Female,2020-07-27_20h34.09.685,torte-2b,2020.1.3,Win32,60,13253,1.42466,,,,,0,82,82,44,1,,,,,,,,,,,,,,,,,,,,,,,,,,,,,,,,,,,,,,,,,,,,,,,,,,,,,,,,
,,,,,,,,,,,,l,Incorrect,,,,,,t5.png,t5.png,0,0.97829,19,Female,2020-07-27_20h34.09.685,torte-2b,2020.1.3,Win32,60,13253,0.31518,,,,,0,83,83,77,1,,,,,,,,,,,,,,,,,,,,,,,,,,,,,,,,,,,,,,,,,,,,,,,,,,,,,,,,
,,,,,,,,,,,,l,Correct!,,,,,,t5.png,t1.png,4,9.55E-11,19,Female,2020-07-27_20h34.09.685,torte-2b,2020.1.3,Win32,60,13253,0.33166,,,,,0,84,84,31,1,,,,,,,,,,,,,,,,,,,,,,,,,,,,,,,,,,,,,,,,,,,,,,,,,,,,,,,,
,,,,,,,,,,,,l,Incorrect,,,,,,t4.png,t3.png,1,0.909,19,Female,2020-07-27_20h34.09.685,torte-2b,2020.1.3,Win32,60,13253,0.381405,,,,,0,85,85,107,1,,,,,,,,,,,,,,,,,,,,,,,,,,,,,,,,,,,,,,,,,,,,,,,,,,,,,,,,
,,,,,,,,,,,,l,Incorrect,,,,,,t4.png,t4.png,0,0.98115,19,Female,2020-07-27_20h34.09.685,torte-2b,2020.1.3,Win32,60,13253,0.532505,,,,,0,86,86,19,1,,,,,,,,,,,,,,,,,,,,,,,,,,,,,,,,,,,,,,,,,,,,,,,,,,,,,,,,
,,,,,,,,,,,,l,Incorrect,,,,,,t2.png,t2.png,0,0.98115,19,Female,2020-07-27_20h34.09.685,torte-2b,2020.1.3,Win32,60,13253,0.467815,,,,,0,87,87,7,1,,,,,,,,,,,,,,,,,,,,,,,,,,,,,,,,,,,,,,,,,,,,,,,,,,,,,,,,
,,,,,,,,,,,,a,Incorrect,,,,,,t5.png,t2.png,3,0.0000131,19,Female,2020-07-27_20h34.09.685,torte-2b,2020.1.3,Win32,60,13253,0.36453,,,,,0,88,88,48,1,,,,,,,,,,,,,,,,,,,,,,,,,,,,,,,,,,,,,,,,,,,,,,,,,,,,,,,,
,,,,,,,,,,,,a,Incorrect,,,,,,t4.png,t1.png,3,0.0000131,19,Female,2020-07-27_20h34.09.685,torte-2b,2020.1.3,Win32,60,13253,0.548725,,,,,0,89,89,49,1,,,,,,,,,,,,,,,,,,,,,,,,,,,,,,,,,,,,,,,,,,,,,,,,,,,,,,,,
,,,,,,,,,,,,a,Incorrect,,,,,,t4.png,t1.png,3,0.059078,19,Female,2020-07-27_20h34.09.685,torte-2b,2020.1.3,Win32,60,13253,0.499155,,,,,0,90,90,62,1,,,,,,,,,,,,,,,,,,,,,,,,,,,,,,,,,,,,,,,,,,,,,,,,,,,,,,,,
,,,,,,,,,,,,a,Incorrect,,,,,,t3.png,t1.png,2,0.0565,19,Female,2020-07-27_20h34.09.685,torte-2b,2020.1.3,Win32,60,13253,0.446225,,,,,0,91,91,104,1,,,,,,,,,,,,,,,,,,,,,,,,,,,,,,,,,,,,,,,,,,,,,,,,,,,,,,,,
,,,,,,,,,,,,a,Correct!,,,,,,t3.png,t2.png,1,0.90855,19,Female,2020-07-27_20h34.09.685,torte-2b,2020.1.3,Win32,60,13253,0.731305,,,,,0,92,92,99,1,,,,,,,,,,,,,,,,,,,,,,,,,,,,,,,,,,,,,,,,,,,,,,,,,,,,,,,,
,,,,,,,,,,,,a,Correct!,,,,,,t3.png,t2.png,1,0.90855,19,Female,2020-07-27_20h34.09.685,torte-2b,2020.1.3,Win32,60,13253,0.45941,,,,,0,93,93,108,1,,,,,,,,,,,,,,,,,,,,,,,,,,,,,,,,,,,,,,,,,,,,,,,,,,,,,,,,
,,,,,,,,,,,,l,Correct!,,,,,,t1.png,t5.png,4,9.55E-11,19,Female,2020-07-27_20h34.09.685,torte-2b,2020.1.3,Win32,60,13253,0.38365,,,,,0,94,94,3,1,,,,,,,,,,,,,,,,,,,,,,,,,,,,,,,,,,,,,,,,,,,,,,,,,,,,,,,,
,,,,,,,,,,,,a,Correct!,,,,,,t3.png,t2.png,1,0.90855,19,Female,2020-07-27_20h34.09.685,torte-2b,2020.1.3,Win32,60,13253,0.69979,,,,,0,95,95,10,1,,,,,,,,,,,,,,,,,,,,,,,,,,,,,,,,,,,,,,,,,,,,,,,,,,,,,,,,
,,,,,,,,,,,,l,Incorrect,,,,,,t1.png,t2.png,1,0.90025,19,Female,2020-07-27_20h34.09.685,torte-2b,2020.1.3,Win32,60,13253,0.582185,,,,,0,96,96,96,1,,,,,,,,,,,,,,,,,,,,,,,,,,,,,,,,,,,,,,,,,,,,,,,,,,,,,,,,
,,,,,,,,,,,,l,Correct!,,,,,,t2.png,t5.png,3,0.0000131,19,Female,2020-07-27_20h34.09.685,torte-2b,2020.1.3,Win32,60,13253,0.90687,,,,,0,97,97,54,1,,,,,,,,,,,,,,,,,,,,,,,,,,,,,,,,,,,,,,,,,,,,,,,,,,,,,,,,
,,,,,,,,,,,,l,Incorrect,,,,,,t2.png,t4.png,2,0.059078,19,Female,2020-07-27_20h34.09.685,torte-2b,2020.1.3,Win32,60,13253,0.46569,,,,,0,98,98,97,1,,,,,,,,,,,,,,,,,,,,,,,,,,,,,,,,,,,,,,,,,,,,,,,,,,,,,,,,
,,,,,,,,,,,,l,Incorrect,,,,,,t5.png,t5.png,0,0.978,19,Female,2020-07-27_20h34.09.685,torte-2b,2020.1.3,Win32,60,13253,0.48516,,,,,0,99,99,116,1,,,,,,,,,,,,,,,,,,,,,,,,,,,,,,,,,,,,,,,,,,,,,,,,,,,,,,,,
,,,,,,,,,,,,a,Correct!,,,,,,t4.png,t3.png,1,0.909,19,Female,2020-07-27_20h34.09.685,torte-2b,2020.1.3,Win32,60,13253,0.65061,,,,,0,100,100,119,1,,,,,,,,,,,,,,,,,,,,,,,,,,,,,,,,,,,,,,,,,,,,,,,,,,,,,,,,
,,,,,,,,,,,,l,Correct!,,,,,,t2.png,t2.png,0,0.981,19,Female,2020-07-27_20h34.09.685,torte-2b,2020.1.3,Win32,60,13253,0.748735,,,,,0,101,101,98,1,,,,,,,,,,,,,,,,,,,,,,,,,,,,,,,,,,,,,,,,,,,,,,,,,,,,,,,,
,,,,,,,,,,,,a,Correct!,,,,,,t3.png,t2.png,1,0.90855,19,Female,2020-07-27_20h34.09.685,torte-2b,2020.1.3,Win32,60,13253,0.473735,,,,,0,102,102,94,1,,,,,,,,,,,,,,,,,,,,,,,,,,,,,,,,,,,,,,,,,,,,,,,,,,,,,,,,
,,,,,,,,,,,,a,Incorrect,,,,,,t5.png,t1.png,4,9.55E-11,19,Female,2020-07-27_20h34.09.685,torte-2b,2020.1.3,Win32,60,13253,0.47316,,,,,0,103,103,101,1,,,,,,,,,,,,,,,,,,,,,,,,,,,,,,,,,,,,,,,,,,,,,,,,,,,,,,,,
,,,,,,,,,,,,l,Incorrect,,,,,,t5.png,t4.png,1,0.90025,19,Female,2020-07-27_20h34.09.685,torte-2b,2020.1.3,Win32,60,13253,0.248755,,,,,0,104,104,38,1,,,,,,,,,,,,,,,,,,,,,,,,,,,,,,,,,,,,,,,,,,,,,,,,,,,,,,,,
,,,,,,,,,,,,l,Incorrect,,,,,,t1.png,t2.png,1,0.9,19,Female,2020-07-27_20h34.09.685,torte-2b,2020.1.3,Win32,60,13253,0.340475,,,,,0,105,105,61,1,,,,,,,,,,,,,,,,,,,,,,,,,,,,,,,,,,,,,,,,,,,,,,,,,,,,,,,,
,,,,,,,,,,,,l,Incorrect,,,,,,t1.png,t1.png,0,0.978,19,Female,2020-07-27_20h34.09.685,torte-2b,2020.1.3,Win32,60,13253,0.14846,,,,,0,106,106,13,1,,,,,,,,,,,,,,,,,,,,,,,,,,,,,,,,,,,,,,,,,,,,,,,,,,,,,,,,
,,,,,,,,,,,,,Too slow :(,,,,,,t5.png,t1.png,4,9.55E-11,19,Female,2020-07-27_20h34.09.685,torte-2b,2020.1.3,Win32,60,13253,,,,,,0,107,107,15,1,,,,,,,,,,,,,,,,,,,,,,,,,,,,,,,,,,,,,,,,,,,,,,,,,,,,,,,,
,,,,,,,,,,,,l,Correct!,,,,,,t1.png,t4.png,3,0.0000131,19,Female,2020-07-27_20h34.09.685,torte-2b,2020.1.3,Win32,60,13253,0.374945,,,,,0,108,108,74,1,,,,,,,,,,,,,,,,,,,,,,,,,,,,,,,,,,,,,,,,,,,,,,,,,,,,,,,,
,,,,,,,,,,,,,Too slow :(,,,,,,t1.png,t4.png,3,0.0000131,19,Female,2020-07-27_20h34.09.685,torte-2b,2020.1.3,Win32,60,13253,,,,,,0,109,109,36,1,,,,,,,,,,,,,,,,,,,,,,,,,,,,,,,,,,,,,,,,,,,,,,,,,,,,,,,,
,,,,,,,,,,,,,Too slow :(,,,,,,t2.png,t5.png,3,0.0000131,19,Female,2020-07-27_20h34.09.685,torte-2b,2020.1.3,Win32,60,13253,,,,,,0,110,110,85,1,,,,,,,,,,,,,,,,,,,,,,,,,,,,,,,,,,,,,,,,,,,,,,,,,,,,,,,,
,,,,,,,,,,,,,Too slow :(,,,,,,t5.png,t2.png,3,0.0000131,19,Female,2020-07-27_20h34.09.685,torte-2b,2020.1.3,Win32,60,13253,,,,,,0,111,111,43,1,,,,,,,,,,,,,,,,,,,,,,,,,,,,,,,,,,,,,,,,,,,,,,,,,,,,,,,,
,,,,,,,,,,,,,Too slow :(,,,,,,t2.png,t4.png,2,0.059078,19,Female,2020-07-27_20h34.09.685,torte-2b,2020.1.3,Win32,60,13253,,,,,,0,112,112,18,1,,,,,,,,,,,,,,,,,,,,,,,,,,,,,,,,,,,,,,,,,,,,,,,,,,,,,,,,
,,,,,,,,,,,,,Too slow :(,,,,,,t3.png,t1.png,2,0.056466,19,Female,2020-07-27_20h34.09.685,torte-2b,2020.1.3,Win32,60,13253,,,,,,0,113,113,109,1,,,,,,,,,,,,,,,,,,,,,,,,,,,,,,,,,,,,,,,,,,,,,,,,,,,,,,,,
,,,,,,,,,,,,l,Correct!,,,,,,t5.png,t3.png,2,0.056466,19,Female,2020-07-27_20h34.09.685,torte-2b,2020.1.3,Win32,60,13253,1.889085,,,,,0,114,114,26,1,,,,,,,,,,,,,,,,,,,,,,,,,,,,,,,,,,,,,,,,,,,,,,,,,,,,,,,,
,,,,,,,,,,,,l,Incorrect,,,,,,t4.png,t5.png,1,0.9,19,Female,2020-07-27_20h34.09.685,torte-2b,2020.1.3,Win32,60,13253,0.42342,,,,,0,115,115,81,1,,,,,,,,,,,,,,,,,,,,,,,,,,,,,,,,,,,,,,,,,,,,,,,,,,,,,,,,
,,,,,,,,,,,,l,Correct!,,,,,,t1.png,t3.png,2,0.0565,19,Female,2020-07-27_20h34.09.685,torte-2b,2020.1.3,Win32,60,13253,0.32392,,,,,0,116,116,42,1,,,,,,,,,,,,,,,,,,,,,,,,,,,,,,,,,,,,,,,,,,,,,,,,,,,,,,,,
,,,,,,,,,,,,a,Incorrect,,,,,,t5.png,t2.png,3,0.0000131,19,Female,2020-07-27_20h34.09.685,torte-2b,2020.1.3,Win32,60,13253,0.433465,,,,,0,117,117,82,1,,,,,,,,,,,,,,,,,,,,,,,,,,,,,,,,,,,,,,,,,,,,,,,,,,,,,,,,
,,,,,,,,,,,,l,Correct!,,,,,,t3.png,t5.png,2,0.056466,19,Female,2020-07-27_20h34.09.685,torte-2b,2020.1.3,Win32,60,13253,0.417005,,,,,0,118,118,45,1,,,,,,,,,,,,,,,,,,,,,,,,,,,,,,,,,,,,,,,,,,,,,,,,,,,,,,,,
,,,,,,,,,,,,a,Incorrect,,,,,,t4.png,t1.png,3,0.0000131,19,Female,2020-07-27_20h34.09.685,torte-2b,2020.1.3,Win32,60,13253,0.698165,,,,,0,119,119,91,1,,,,,,,,,,,,,,,,,,,,,,,,,,,,,,,,,,,,,,,,,,,,,,,,,,,,,,,,
,,,,,,,,,,,,,,,,,,,,,,,19,Female,2020-07-27_20h34.09.685,torte-2b,2020.1.3,Win32,60,13253,,space,190.55642,,,,,,,,space,18.835755,,0,0,0,0,1,6,,,,,,,,,,,,,,,,,,,,,,,,,,,,,,,,,,,,,,,,,,,,,,,
,,,,,,,,,,,,,,,,,,,,,,,19,Female,2020-07-27_20h34.09.685,torte-2b,2020.1.3,Win32,60,13253,,,,,,,,,,,,,,0,1,1,1,1,7,,,,,,,,,,,,,,,,,,,,,,,,,,,,,,,,,,,,,,,,,,,,,,,
,,,,,,,,,,,,,,,,,,,,,,,19,Female,2020-07-27_20h34.09.685,torte-2b,2020.1.3,Win32,60,13253,,,,,,,,,,,,,,0,2,2,2,1,6,,,,,,,,,,,,,,,,,,,,,,,,,,,,,,,,,,,,,,,,,,,,,,,
,,,,,,,,,,,,,,,,,,,,,,,19,Female,2020-07-27_20h34.09.685,torte-2b,2020.1.3,Win32,60,13253,,,,,,,,,,,,,,0,3,3,3,1,7,,,,,,,,,,,,,,,,,,,,,,,,,,,,,,,,,,,,,,,,,,,,,,,
,,,,,,,,,,,,,,,,,,,,,,,19,Female,2020-07-27_20h34.09.685,torte-2b,2020.1.3,Win32,60,13253,,,,,,,,,,,,,,0,4,4,4,1,5,,,,,,,,,,,,,,,,,,,,,,,,,,,,,,,,,,,,,,,,,,,,,,,
,,,,,,,,,,,,,,,,,,,,,,,19,Female,2020-07-27_20h34.09.685,torte-2b,2020.1.3,Win32,60,13253,,,,,,,,,,,,,,0,5,5,5,1,7,,,,,,,,,,,,,,,,,,,,,,,,,,,,,,,,,,,,,,,,,,,,,,,
,,,,,,,,,,,,,,,,,,,,,,,19,Female,2020-07-27_20h34.09.685,torte-2b,2020.1.3,Win32,60,13253,,,,,,,,,,,,,space,0,6,6,6,1,2,1.73191,,,,,,,,,,,,,,,,,,,,,,,,,,,,,,,,,,,,,,,,,,,,,,
,,,,,,,,,,,,,,,,,,,,,,,19,Female,2020-07-27_20h34.09.685,torte-2b,2020.1.3,Win32,60,13253,,,,,,,,,,,,,space,0,7,7,7,1,4,0.997465,,,,,,,,,,,,,,,,,,,,,,,,,,,,,,,,,,,,,,,,,,,,,,
,,,,,,,,,,,,,,,,,,,,,,,19,Female,2020-07-27_20h34.09.685,torte-2b,2020.1.3,Win32,60,13253,,,,,,,,,,,,,space,0,8,8,8,1,7,0.35021,,,,,,,,,,,,,,,,,,,,,,,,,,,,,,,,,,,,,,,,,,,,,,
,,,,,,,,,,,,,,,,,,,,,,,19,Female,2020-07-27_20h34.09.685,torte-2b,2020.1.3,Win32,60,13253,,,,,,,,,,,,,space,0,9,9,9,1,4,0.23041,,,,,,,,,,,,,,,,,,,,,,,,,,,,,,,,,,,,,,,,,,,,,,
,,,,,,,,,,,,,,,,,,,,,,,19,Female,2020-07-27_20h34.09.685,torte-2b,2020.1.3,Win32,60,13253,,,,,,,,,,,,,space,0,10,10,10,1,7,0.26916,,,,,,,,,,,,,,,,,,,,,,,,,,,,,,,,,,,,,,,,,,,,,,
,,,,,,,,,,,,,,,,,,,,,,,19,Female,2020-07-27_20h34.09.685,torte-2b,2020.1.3,Win32,60,13253,,,,,,,,,,,,,,0,11,11,11,1,7,,,,,,,,,,,,,,,,,,,,,,,,,,,,,,,,,,,,,,,,,,,,,,,
,,,,,,,,,,,,,,,,,,,,,,,19,Female,2020-07-27_20h34.09.685,torte-2b,2020.1.3,Win32,60,13253,,,,,,,,,,,,,,0,12,12,12,1,7,,,,,,,,,,,,,,,,,,,,,,,,,,,,,,,,,,,,,,,,,,,,,,,
,,,,,,,,,,,,,,,,,,,,,,,19,Female,2020-07-27_20h34.09.685,torte-2b,2020.1.3,Win32,60,13253,,,,,,,,,,,,,,0,13,13,13,1,4,,,,,,,,,,,,,,,,,,,,,,,,,,,,,,,,,,,,,,,,,,,,,,,
,,,,,,,,,,,,,,,,,,,,,,,19,Female,2020-07-27_20h34.09.685,torte-2b,2020.1.3,Win32,60,13253,,,,,,,,,,,,,,0,14,14,14,1,6,,,,,,,,,,,,,,,,,,,,,,,,,,,,,,,,,,,,,,,,,,,,,,,
,,,,,,,,,,,,,,,,,,,,,,,19,Female,2020-07-27_20h34.09.685,torte-2b,2020.1.3,Win32,60,13253,,,,,,,,,,,,,,0,15,15,15,1,4,,,,,,,,,,,,,,,,,,,,,,,,,,,,,,,,,,,,,,,,,,,,,,,
,,,,,,,,,,,,,,,,,,,,,,,19,Female,2020-07-27_20h34.09.685,torte-2b,2020.1.3,Win32,60,13253,,,,,,,,,,,,,,0,16,16,16,1,6,,,,,,,,,,,,,,,,,,,,,,,,,,,,,,,,,,,,,,,,,,,,,,,
,,,,,,,,,,,,,,,,,,,,,,,19,Female,2020-07-27_20h34.09.685,torte-2b,2020.1.3,Win32,60,13253,,,,,,,,,,,,,,0,17,17,17,1,7,,,,,,,,,,,,,,,,,,,,,,,,,,,,,,,,,,,,,,,,,,,,,,,
,,,,,,,,,,,,,,,,,,,,,,,19,Female,2020-07-27_20h34.09.685,torte-2b,2020.1.3,Win32,60,13253,,,,,,,,,,,,,,0,18,18,18,1,6,,,,,,,,,,,,,,,,,,,,,,,,,,,,,,,,,,,,,,,,,,,,,,,
,,,,,,,,,,,,,,,,,,,,,,,19,Female,2020-07-27_20h34.09.685,torte-2b,2020.1.3,Win32,60,13253,,,,,,,,,,,,,,0,19,19,19,1,7,,,,,,,,,,,,,,,,,,,,,,,,,,,,,,,,,,,,,,,,,,,,,,,
,,,,,,,,,,,,,,,,,,,,,,,19,Female,2020-07-27_20h34.09.685,torte-2b,2020.1.3,Win32,60,13253,,,,,,,,,,,,,,0,20,20,20,1,5,,,,,,,,,,,,,,,,,,,,,,,,,,,,,,,,,,,,,,,,,,,,,,,
,,,,,,,,,,,,,,,,,,,,,,,19,Female,2020-07-27_20h34.09.685,torte-2b,2020.1.3,Win32,60,13253,,,,,,,,,,,,,,0,21,21,21,1,1,,,,,,,,,,,,,,,,,,,,,,,,,,,,,,,,,,,,,,,,,,,,,,,
,,,,,,,,,,,,,,,,,,,,,,,19,Female,2020-07-27_20h34.09.685,torte-2b,2020.1.3,Win32,60,13253,,,,,,,,,,,,,,0,22,22,22,1,6,,,,,,,,,,,,,,,,,,,,,,,,,,,,,,,,,,,,,,,,,,,,,,,
,,,,,,,,,,,,,,,,,,,,,,,19,Female,2020-07-27_20h34.09.685,torte-2b,2020.1.3,Win32,60,13253,,,,,,,,,,,,,,0,23,23,23,1,1,,,,,,,,,,,,,,,,,,,,,,,,,,,,,,,,,,,,,,,,,,,,,,,
,,,,,,,,,,,,,,,,,,,,,,,19,Female,2020-07-27_20h34.09.685,torte-2b,2020.1.3,Win32,60,13253,,,,,,,,,,,,,,0,24,24,24,1,5,,,,,,,,,,,,,,,,,,,,,,,,,,,,,,,,,,,,,,,,,,,,,,,
,,,,,,,,,,,,,,,,,,,,,,,19,Female,2020-07-27_20h34.09.685,torte-2b,2020.1.3,Win32,60,13253,,,,,,,,,,,,,,0,25,25,25,1,6,,,,,,,,,,,,,,,,,,,,,,,,,,,,,,,,,,,,,,,,,,,,,,,
,,,,,,,,,,,,,,,,,,,,,,,19,Female,2020-07-27_20h34.09.685,torte-2b,2020.1.3,Win32,60,13253,,,,,,,,,,,,,,0,26,26,26,1,6,,,,,,,,,,,,,,,,,,,,,,,,,,,,,,,,,,,,,,,,,,,,,,,
,,,,,,,,,,,,,,,,,,,,,,,19,Female,2020-07-27_20h34.09.685,torte-2b,2020.1.3,Win32,60,13253,,,,,,,,,,,,,,0,27,27,27,1,6,,,,,,,,,,,,,,,,,,,,,,,,,,,,,,,,,,,,,,,,,,,,,,,
,,,,,,,,,,,,,,,,,,,,,,,19,Female,2020-07-27_20h34.09.685,torte-2b,2020.1.3,Win32,60,13253,,,,,,,,,,,,,,0,28,28,28,1,5,,,,,,,,,,,,,,,,,,,,,,,,,,,,,,,,,,,,,,,,,,,,,,,
,,,,,,,,,,,,,,,,,,,,,,,19,Female,2020-07-27_20h34.09.685,torte-2b,2020.1.3,Win32,60,13253,,,,,,,,,,,,,,0,29,29,29,1,2,,,,,,,,,,,,,,,,,,,,,,,,,,,,,,,,,,,,,,,,,,,,,,,
,,,,,,,,,,,,,,,,,,,,,,,19,Female,2020-07-27_20h34.09.685,torte-2b,2020.1.3,Win32,60,13253,,,,,,,,,,,,,,0,30,30,30,1,5,,,,,,,,,,,,,,,,,,,,,,,,,,,,,,,,,,,,,,,,,,,,,,,
,,,,,,,,,,,,,,,,,,,,,,,19,Female,2020-07-27_20h34.09.685,torte-2b,2020.1.3,Win32,60,13253,,,,,,,,,,,,,,0,31,31,31,1,2,,,,,,,,,,,,,,,,,,,,,,,,,,,,,,,,,,,,,,,,,,,,,,,
,,,,,,,,,,,,,,,,,,,,,,,19,Female,2020-07-27_20h34.09.685,torte-2b,2020.1.3,Win32,60,13253,,,,,,,,,,,,,,0,32,32,32,1,5,,,,,,,,,,,,,,,,,,,,,,,,,,,,,,,,,,,,,,,,,,,,,,,
,,,,,,,,,,,,,,,,,,,,,,,19,Female,2020-07-27_20h34.09.685,torte-2b,2020.1.3,Win32,60,13253,,,,,,,,,,,,,,0,33,33,33,1,1,,,,,,,,,,,,,,,,,,,,,,,,,,,,,,,,,,,,,,,,,,,,,,,
,,,,,,,,,,,,,,,,,,,,,,,19,Female,2020-07-27_20h34.09.685,torte-2b,2020.1.3,Win32,60,13253,,,,,,,,,,,,,,0,34,34,34,1,1,,,,,,,,,,,,,,,,,,,,,,,,,,,,,,,,,,,,,,,,,,,,,,,
,,,,,,,,,,,,,,,,,,,,,,,19,Female,2020-07-27_20h34.09.685,torte-2b,2020.1.3,Win32,60,13253,,,,,,,,,,,,,,,,,,,2,,0,0,0,0,1,,,,,,,,,,,,,,,,,,,,,,,,,,,,,,,,,,,,,,,,,
,,,,,,,,,,,,,,,,,,,,,,,19,Female,2020-07-27_20h34.09.685,torte-2b,2020.1.3,Win32,60,13253,,,,,,,,,,,,,,,,,,,2,,0,1,1,1,1,,,,,,,,,,,,,,,,,,,,,,,,,,,,,,,,,,,,,,,,,
,,,,,,,,,,,,,,,,,,,,,,,19,Female,2020-07-27_20h34.09.685,torte-2b,2020.1.3,Win32,60,13253,,,,,,,,,,,,,,,,,,,6,,0,2,2,2,1,,,,,,,,,,,,,,,,,,,,,,,,,,,,,,,,,,,,,,,,,
,,,,,,,,,,,,,,,,,,,,,,,19,Female,2020-07-27_20h34.09.685,torte-2b,2020.1.3,Win32,60,13253,,,,,,,,,,,,,,,,,,,2,,0,3,3,3,1,,,,,,,,,,,,,,,,,,,,,,,,,,,,,,,,,,,,,,,,,
,,,,,,,,,,,,,,,,,,,,,,,19,Female,2020-07-27_20h34.09.685,torte-2b,2020.1.3,Win32,60,13253,,,,,,,,,,,,,,,,,,,6,,0,4,4,4,1,,,,,,,,,,,,,,,,,,,,,,,,,,,,,,,,,,,,,,,,,
,,,,,,,,,,,,,,,,,,,,,,,19,Female,2020-07-27_20h34.09.685,torte-2b,2020.1.3,Win32,60,13253,,,,,,,,,,,,,,,,,,,2,,0,5,5,5,1,,,,,,,,,,,,,,,,,,,,,,,,,,,,,,,,,,,,,,,,,
,,,,,,,,,,,,,,,,,,,,,,,19,Female,2020-07-27_20h34.09.685,torte-2b,2020.1.3,Win32,60,13253,,,,,,,,,,,,,,,,,,,7,,0,6,6,6,1,,,,,,,,,,,,,,,,,,,,,,,,,,,,,,,,,,,,,,,,,
,,,,,,,,,,,,,,,,,,,,,,,19,Female,2020-07-27_20h34.09.685,torte-2b,2020.1.3,Win32,60,13253,,,,,,,,,,,,,,,,,,,2,,0,7,7,7,1,,,,,,,,,,,,,,,,,,,,,,,,,,,,,,,,,,,,,,,,,
,,,,,,,,,,,,,,,,,,,,,,,19,Female,2020-07-27_20h34.09.685,torte-2b,2020.1.3,Win32,60,13253,,,,,,,,,,,,,,,,,,,7,,0,8,8,8,1,,,,,,,,,,,,,,,,,,,,,,,,,,,,,,,,,,,,,,,,,
,,,,,,,,,,,,,,,,,,,,,,,19,Female,2020-07-27_20h34.09.685,torte-2b,2020.1.3,Win32,60,13253,,,,,,,,,,,,,,,,,,,2,,0,9,9,9,1,,,,,,,,,,,,,,,,,,,,,,,,,,,,,,,,,,,,,,,,,
,,,,,,,,,,,,,,,,,,,,,,,19,Female,2020-07-27_20h34.09.685,torte-2b,2020.1.3,Win32,60,13253,,,,,,,,,,,,,,,,,,,5,,0,10,10,10,1,,,,,,,,,,,,,,,,,,,,,,,,,,,,,,,,,,,,,,,,,
,,,,,,,,,,,,,,,,,,,,,,,19,Female,2020-07-27_20h34.09.685,torte-2b,2020.1.3,Win32,60,13253,,,,,,,,,,,,,,,,,,,4,,0,11,11,11,1,,,,,,,,,,,,,,,,,,,,,,,,,,,,,,,,,,,,,,,,,
,,,,,,,,,,,,,,,,,,,,,,,19,Female,2020-07-27_20h34.09.685,torte-2b,2020.1.3,Win32,60,13253,,,,,,,,,,,,,,,,,,,5,,0,12,12,12,1,,,,,,,,,,,,,,,,,,,,,,,,,,,,,,,,,,,,,,,,,
,,,,,,,,,,,,,,,,,,,,,,,19,Female,2020-07-27_20h34.09.685,torte-2b,2020.1.3,Win32,60,13253,,,,,,,,,,,,,,,,,,,6,,0,13,13,13,1,,,,,,,,,,,,,,,,,,,,,,,,,,,,,,,,,,,,,,,,,
,,,,,,,,,,,,,,,,,,,,,,,19,Female,2020-07-27_20h34.09.685,torte-2b,2020.1.3,Win32,60,13253,,,,,,,,,,,,,,,,,,,5,,0,14,14,14,1,,,,,,,,,,,,,,,,,,,,,,,,,,,,,,,,,,,,,,,,,
,,,,,,,,,,,,,,,,,,,,,,,19,Female,2020-07-27_20h34.09.685,torte-2b,2020.1.3,Win32,60,13253,,,,,,,,,,,,,,,,,,,4,,0,15,15,15,1,,,,,,,,,,,,,,,,,,,,,,,,,,,,,,,,,,,,,,,,,
,,,,,,,,,,,,,,,,,,,,,,,19,Female,2020-07-27_20h34.09.685,torte-2b,2020.1.3,Win32,60,13253,,,,,,,,,,,,,,,,,,,5,,0,16,16,16,1,,,,,,,,,,,,,,,,,,,,,,,,,,,,,,,,,,,,,,,,,
,,,,,,,,,,,,,,,,,,,,,,,19,Female,2020-07-27_20h34.09.685,torte-2b,2020.1.3,Win32,60,13253,,,,,,,,,,,,,,,,,,,3,,0,17,17,17,1,,,,,,,,,,,,,,,,,,,,,,,,,,,,,,,,,,,,,,,,,
,,,,,,,,,,,,,,,,,,,,,,,19,Female,2020-07-27_20h34.09.685,torte-2b,2020.1.3,Win32,60,13253,,,,,,,,,,,,,,,,,,,6,,0,18,18,18,1,,,,,,,,,,,,,,,,,,,,,,,,,,,,,,,,,,,,,,,,,
,,,,,,,,,,,,,,,,,,,,,,,19,Female,2020-07-27_20h34.09.685,torte-2b,2020.1.3,Win32,60,13253,,,,,,,,,,,,,,,,,,,6,,0,19,19,19,1,,,,,,,,,,,,,,,,,,,,,,,,,,,,,,,,,,,,,,,,,
,,,,,,,,,,,,,,,,,,,,,,,19,Female,2020-07-27_20h34.09.685,torte-2b,2020.1.3,Win32,60,13253,,,,,,,,,,,,,,,,,,,6,,0,20,20,20,1,,,,,,,,,,,,,,,,,,,,,,,,,,,,,,,,,,,,,,,,,
,,,,,,,,,,,,,,,,,,,,,,,19,Female,2020-07-27_20h34.09.685,torte-2b,2020.1.3,Win32,60,13253,,,,,,,,,,,,,,,,,,,4,,0,21,21,21,1,,,,,,,,,,,,,,,,,,,,,,,,,,,,,,,,,,,,,,,,,
,,,,,,,,,,,,,,,,,,,,,,,19,Female,2020-07-27_20h34.09.685,torte-2b,2020.1.3,Win32,60,13253,,,,,,,,,,,,,,,,,,,6,,0,22,22,22,1,,,,,,,,,,,,,,,,,,,,,,,,,,,,,,,,,,,,,,,,,
,,,,,,,,,,,,,,,,,,,,,,,19,Female,2020-07-27_20h34.09.685,torte-2b,2020.1.3,Win32,60,13253,,,,,,,,,,,,,,,,,,,4,,0,23,23,23,1,,,,,,,,,,,,,,,,,,,,,,,,,,,,,,,,,,,,,,,,,
,,,,,,,,,,,,,,,,,,,,,,,19,Female,2020-07-27_20h34.09.685,torte-2b,2020.1.3,Win32,60,13253,,,,,,,,,,,,,,,,,,,6,,0,24,24,24,1,,,,,,,,,,,,,,,,,,,,,,,,,,,,,,,,,,,,,,,,,
,,,,,,,,,,,,,,,,,,,,,,,19,Female,2020-07-27_20h34.09.685,torte-2b,2020.1.3,Win32,60,13253,,,,,,,,,,,,,,,,,,,6,,0,25,25,25,1,,,,,,,,,,,,,,,,,,,,,,,,,,,,,,,,,,,,,,,,,
,,,,,,,,,,,,,,,,,,,,,,,19,Female,2020-07-27_20h34.09.685,torte-2b,2020.1.3,Win32,60,13253,,,,,,,,,,,,,,,,,,,7,,0,26,26,26,1,,,,,,,,,,,,,,,,,,,,,,,,,,,,,,,,,,,,,,,,,
,,,,,,,,,,,,,,,,,,,,,,,19,Female,2020-07-27_20h34.09.685,torte-2b,2020.1.3,Win32,60,13253,,,,,,,,,,,,,,,,,,,1,,0,27,27,27,1,,,,,,,,,,,,,,,,,,,,,,,,,,,,,,,,,,,,,,,,,
,,,,,,,,,,,,,,,,,,,,,,,19,Female,2020-07-27_20h34.09.685,torte-2b,2020.1.3,Win32,60,13253,,,,,,,,,,,,,,,,,,,7,,0,28,28,28,1,,,,,,,,,,,,,,,,,,,,,,,,,,,,,,,,,,,,,,,,,
,,,,,,,,,,,,,,,,,,,,,,,19,Female,2020-07-27_20h34.09.685,torte-2b,2020.1.3,Win32,60,13253,,,,,,,,,,,,,,,,,,,4,,0,29,29,29,1,,,,,,,,,,,,,,,,,,,,,,,,,,,,,,,,,,,,,,,,,
,,,,,,,,,,,,,,,,,,,,,,,19,Female,2020-07-27_20h34.09.685,torte-2b,2020.1.3,Win32,60,13253,,,,,,,,,,,,,,,,,,,7,,0,30,30,30,1,,,,,,,,,,,,,,,,,,,,,,,,,,,,,,,,,,,,,,,,,
,,,,,,,,,,,,,,,,,,,,,,,19,Female,2020-07-27_20h34.09.685,torte-2b,2020.1.3,Win32,60,13253,,,,,,,,,,,,,,,,,,,3,,0,31,31,31,1,,,,,,,,,,,,,,,,,,,,,,,,,,,,,,,,,,,,,,,,,
,,,,,,,,,,,,,,,,,,,,,,,19,Female,2020-07-27_20h34.09.685,torte-2b,2020.1.3,Win32,60,13253,,,,,,,,,,,,,,,,,,,2,,0,32,32,32,1,,,,,,,,,,,,,,,,,,,,,,,,,,,,,,,,,,,,,,,,,
,,,,,,,,,,,,,,,,,,,,,,,19,Female,2020-07-27_20h34.09.685,torte-2b,2020.1.3,Win32,60,13253,,,,,,,,,,,,,,,,,,,6,,0,33,33,33,1,,,,,,,,,,,,,,,,,,,,,,,,,,,,,,,,,,,,,,,,,
,,,,,,,,,,,,,,,,,,,,,,,19,Female,2020-07-27_20h34.09.685,torte-2b,2020.1.3,Win32,60,13253,,,,,,,,,,,,,,,,,,,3,,0,34,34,34,1,,,,,,,,,,,,,,,,,,,,,,,,,,,,,,,,,,,,,,,,,
,,,,,,,,,,,,,,,,,,,,,,,19,Female,2020-07-27_20h34.09.685,torte-2b,2020.1.3,Win32,60,13253,,,,,,,,,,,,,,,,,,,7,,,,,,,0,0,0,0,1,,,,,,,,,,,,,,,,,,,,,,,,,,,,,,,,,,,,
,,,,,,,,,,,,,,,,,,,,,,,19,Female,2020-07-27_20h34.09.685,torte-2b,2020.1.3,Win32,60,13253,,,,,,,,,,,,,space,,,,,,5,0.95681,,,,,,0,1,1,1,1,,,,,,,,,,,,,,,,,,,,,,,,,,,,,,,,,,,,
,,,,,,,,,,,,,,,,,,,,,,,19,Female,2020-07-27_20h34.09.685,torte-2b,2020.1.3,Win32,60,13253,,,,,,,,,,,,,space,,,,,,4,0.252185,,,,,,0,2,2,2,1,,,,,,,,,,,,,,,,,,,,,,,,,,,,,,,,,,,,
,,,,,,,,,,,,,,,,,,,,,,,19,Female,2020-07-27_20h34.09.685,torte-2b,2020.1.3,Win32,60,13253,,,,,,,,,,,,,,,,,,,5,,,,,,,0,3,3,3,1,,,,,,,,,,,,,,,,,,,,,,,,,,,,,,,,,,,,
,,,,,,,,,,,,,,,,,,,,,,,19,Female,2020-07-27_20h34.09.685,torte-2b,2020.1.3,Win32,60,13253,,,,,,,,,,,,,,,,,,,6,,,,,,,0,4,4,4,1,,,,,,,,,,,,,,,,,,,,,,,,,,,,,,,,,,,,
,,,,,,,,,,,,,,,,,,,,,,,19,Female,2020-07-27_20h34.09.685,torte-2b,2020.1.3,Win32,60,13253,,,,,,,,,,,,,,,,,,,5,,,,,,,0,5,5,5,1,,,,,,,,,,,,,,,,,,,,,,,,,,,,,,,,,,,,
,,,,,,,,,,,,,,,,,,,,,,,19,Female,2020-07-27_20h34.09.685,torte-2b,2020.1.3,Win32,60,13253,,,,,,,,,,,,,,,,,,,3,,,,,,,0,6,6,6,1,,,,,,,,,,,,,,,,,,,,,,,,,,,,,,,,,,,,
,,,,,,,,,,,,,,,,,,,,,,,19,Female,2020-07-27_20h34.09.685,torte-2b,2020.1.3,Win32,60,13253,,,,,,,,,,,,,,,,,,,4,,,,,,,0,7,7,7,1,,,,,,,,,,,,,,,,,,,,,,,,,,,,,,,,,,,,
,,,,,,,,,,,,,,,,,,,,,,,19,Female,2020-07-27_20h34.09.685,torte-2b,2020.1.3,Win32,60,13253,,,,,,,,,,,,,,,,,,,3,,,,,,,0,8,8,8,1,,,,,,,,,,,,,,,,,,,,,,,,,,,,,,,,,,,,
,,,,,,,,,,,,,,,,,,,,,,,19,Female,2020-07-27_20h34.09.685,torte-2b,2020.1.3,Win32,60,13253,,,,,,,,,,,,,space,,,,,,1,0.44802,,,,,,0,9,9,9,1,,,,,,,,,,,,,,,,,,,,,,,,,,,,,,,,,,,,
,,,,,,,,,,,,,,,,,,,,,,,19,Female,2020-07-27_20h34.09.685,torte-2b,2020.1.3,Win32,60,13253,,,,,,,,,,,,,,,,,,,2,,,,,,,0,10,10,10,1,,,,,,,,,,,,,,,,,,,,,,,,,,,,,,,,,,,,
,,,,,,,,,,,,,,,,,,,,,,,19,Female,2020-07-27_20h34.09.685,torte-2b,2020.1.3,Win32,60,13253,,,,,,,,,,,,,space,,,,,,1,1.199035,,,,,,0,11,11,11,1,,,,,,,,,,,,,,,,,,,,,,,,,,,,,,,,,,,,
,,,,,,,,,,,,,,,,,,,,,,,19,Female,2020-07-27_20h34.09.685,torte-2b,2020.1.3,Win32,60,13253,,,,,,,,,,,,,space,,,,,,2,0.319835,,,,,,0,12,12,12,1,,,,,,,,,,,,,,,,,,,,,,,,,,,,,,,,,,,,
,,,,,,,,,,,,,,,,,,,,,,,19,Female,2020-07-27_20h34.09.685,torte-2b,2020.1.3,Win32,60,13253,,,,,,,,,,,,,space,,,,,,1,0.549495,,,,,,0,13,13,13,1,,,,,,,,,,,,,,,,,,,,,,,,,,,,,,,,,,,,
,,,,,,,,,,,,,,,,,,,,,,,19,Female,2020-07-27_20h34.09.685,torte-2b,2020.1.3,Win32,60,13253,,,,,,,,,,,,,space,,,,,,3,0.499435,,,,,,0,14,14,14,1,,,,,,,,,,,,,,,,,,,,,,,,,,,,,,,,,,,,
,,,,,,,,,,,,,,,,,,,,,,,19,Female,2020-07-27_20h34.09.685,torte-2b,2020.1.3,Win32,60,13253,,,,,,,,,,,,,space,,,,,,1,0.39817,,,,,,0,15,15,15,1,,,,,,,,,,,,,,,,,,,,,,,,,,,,,,,,,,,,
,,,,,,,,,,,,,,,,,,,,,,,19,Female,2020-07-27_20h34.09.685,torte-2b,2020.1.3,Win32,60,13253,,,,,,,,,,,,,,,,,,,7,,,,,,,0,16,16,16,1,,,,,,,,,,,,,,,,,,,,,,,,,,,,,,,,,,,,
,,,,,,,,,,,,,,,,,,,,,,,19,Female,2020-07-27_20h34.09.685,torte-2b,2020.1.3,Win32,60,13253,,,,,,,,,,,,,space,,,,,,7,0.457465,,,,,,0,17,17,17,1,,,,,,,,,,,,,,,,,,,,,,,,,,,,,,,,,,,,
,,,,,,,,,,,,,,,,,,,,,,,19,Female,2020-07-27_20h34.09.685,torte-2b,2020.1.3,Win32,60,13253,,,,,,,,,,,,,space,,,,,,4,0.917005,,,,,,0,18,18,18,1,,,,,,,,,,,,,,,,,,,,,,,,,,,,,,,,,,,,
,,,,,,,,,,,,,,,,,,,,,,,19,Female,2020-07-27_20h34.09.685,torte-2b,2020.1.3,Win32,60,13253,,,,,,,,,,,,,,,,,,,7,,,,,,,0,19,19,19,1,,,,,,,,,,,,,,,,,,,,,,,,,,,,,,,,,,,,
,,,,,,,,,,,,,,,,,,,,,,,19,Female,2020-07-27_20h34.09.685,torte-2b,2020.1.3,Win32,60,13253,,,,,,,,,,,,,,,,,,,3,,,,,,,0,20,20,20,1,,,,,,,,,,,,,,,,,,,,,,,,,,,,,,,,,,,,
,,,,,,,,,,,,,,,,,,,,,,,19,Female,2020-07-27_20h34.09.685,torte-2b,2020.1.3,Win32,60,13253,,,,,,,,,,,,,,,,,,,7,,,,,,,0,21,21,21,1,,,,,,,,,,,,,,,,,,,,,,,,,,,,,,,,,,,,
,,,,,,,,,,,,,,,,,,,,,,,19,Female,2020-07-27_20h34.09.685,torte-2b,2020.1.3,Win32,60,13253,,,,,,,,,,,,,,,,,,,3,,,,,,,0,22,22,22,1,,,,,,,,,,,,,,,,,,,,,,,,,,,,,,,,,,,,
,,,,,,,,,,,,,,,,,,,,,,,19,Female,2020-07-27_20h34.09.685,torte-2b,2020.1.3,Win32,60,13253,,,,,,,,,,,,,,,,,,,1,,,,,,,0,23,23,23,1,,,,,,,,,,,,,,,,,,,,,,,,,,,,,,,,,,,,
,,,,,,,,,,,,,,,,,,,,,,,19,Female,2020-07-27_20h34.09.685,torte-2b,2020.1.3,Win32,60,13253,,,,,,,,,,,,,,,,,,,6,,,,,,,0,24,24,24,1,,,,,,,,,,,,,,,,,,,,,,,,,,,,,,,,,,,,
,,,,,,,,,,,,,,,,,,,,,,,19,Female,2020-07-27_20h34.09.685,torte-2b,2020.1.3,Win32,60,13253,,,,,,,,,,,,,,,,,,,3,,,,,,,0,25,25,25,1,,,,,,,,,,,,,,,,,,,,,,,,,,,,,,,,,,,,
,,,,,,,,,,,,,,,,,,,,,,,19,Female,2020-07-27_20h34.09.685,torte-2b,2020.1.3,Win32,60,13253,,,,,,,,,,,,,,,,,,,2,,,,,,,0,26,26,26,1,,,,,,,,,,,,,,,,,,,,,,,,,,,,,,,,,,,,
,,,,,,,,,,,,,,,,,,,,,,,19,Female,2020-07-27_20h34.09.685,torte-2b,2020.1.3,Win32,60,13253,,,,,,,,,,,,,,,,,,,3,,,,,,,0,27,27,27,1,,,,,,,,,,,,,,,,,,,,,,,,,,,,,,,,,,,,
,,,,,,,,,,,,,,,,,,,,,,,19,Female,2020-07-27_20h34.09.685,torte-2b,2020.1.3,Win32,60,13253,,,,,,,,,,,,,,,,,,,1,,,,,,,0,28,28,28,1,,,,,,,,,,,,,,,,,,,,,,,,,,,,,,,,,,,,
,,,,,,,,,,,,,,,,,,,,,,,19,Female,2020-07-27_20h34.09.685,torte-2b,2020.1.3,Win32,60,13253,,,,,,,,,,,,,,,,,,,3,,,,,,,0,29,29,29,1,,,,,,,,,,,,,,,,,,,,,,,,,,,,,,,,,,,,
,,,,,,,,,,,,,,,,,,,,,,,19,Female,2020-07-27_20h34.09.685,torte-2b,2020.1.3,Win32,60,13253,,,,,,,,,,,,,,,,,,,1,,,,,,,0,30,30,30,1,,,,,,,,,,,,,,,,,,,,,,,,,,,,,,,,,,,,
,,,,,,,,,,,,,,,,,,,,,,,19,Female,2020-07-27_20h34.09.685,torte-2b,2020.1.3,Win32,60,13253,,,,,,,,,,,,,,,,,,,7,,,,,,,0,31,31,31,1,,,,,,,,,,,,,,,,,,,,,,,,,,,,,,,,,,,,
,,,,,,,,,,,,,,,,,,,,,,,19,Female,2020-07-27_20h34.09.685,torte-2b,2020.1.3,Win32,60,13253,,,,,,,,,,,,,,,,,,,5,,,,,,,0,32,32,32,1,,,,,,,,,,,,,,,,,,,,,,,,,,,,,,,,,,,,
,,,,,,,,,,,,,,,,,,,,,,,19,Female,2020-07-27_20h34.09.685,torte-2b,2020.1.3,Win32,60,13253,,,,,,,,,,,,,,,,,,,7,,,,,,,0,33,33,33,1,,,,,,,,,,,,,,,,,,,,,,,,,,,,,,,,,,,,
,,,,,,,,,,,,,,,,,,,,,,,19,Female,2020-07-27_20h34.09.685,torte-2b,2020.1.3,Win32,60,13253,,,,,,,,,,,,,,,,,,,2,,,,,,,0,34,34,34,1,,,,,,,,,,,,,,,,,,,,,,,,,,,,,,,,,,,,
,,,,,,,,,,,,,,,,,,,,,,,19,Female,2020-07-27_20h34.09.685,torte-2b,2020.1.3,Win32,60,13253,,,,,,,,,,,,,,,,,,,3,,,,,,,,,,,,0,0,0,0,1,,,,,,,,,,,,,,,,,,,,,,,,,,,,,,,
,,,,,,,,,,,,,,,,,,,,,,,19,Female,2020-07-27_20h34.09.685,torte-2b,2020.1.3,Win32,60,13253,,,,,,,,,,,,,,,,,,,7,,,,,,,,,,,,0,1,1,1,1,,,,,,,,,,,,,,,,,,,,,,,,,,,,,,,
,,,,,,,,,,,,,,,,,,,,,,,19,Female,2020-07-27_20h34.09.685,torte-2b,2020.1.3,Win32,60,13253,,,,,,,,,,,,,,,,,,,7,,,,,,,,,,,,0,2,2,2,1,,,,,,,,,,,,,,,,,,,,,,,,,,,,,,,
,,,,,,,,,,,,,,,,,,,,,,,19,Female,2020-07-27_20h34.09.685,torte-2b,2020.1.3,Win32,60,13253,,,,,,,,,,,,,,,,,,,4,,,,,,,,,,,,0,3,3,3,1,,,,,,,,,,,,,,,,,,,,,,,,,,,,,,,
,,,,,,,,,,,,,,,,,,,,,,,19,Female,2020-07-27_20h34.09.685,torte-2b,2020.1.3,Win32,60,13253,,,,,,,,,,,,,,,,,,,5,,,,,,,,,,,,0,4,4,4,1,,,,,,,,,,,,,,,,,,,,,,,,,,,,,,,
,,,,,,,,,,,,,,,,,,,,,,,19,Female,2020-07-27_20h34.09.685,torte-2b,2020.1.3,Win32,60,13253,,,,,,,,,,,,,,,,,,,4,,,,,,,,,,,,0,5,5,5,1,,,,,,,,,,,,,,,,,,,,,,,,,,,,,,,
,,,,,,,,,,,,,,,,,,,,,,,19,Female,2020-07-27_20h34.09.685,torte-2b,2020.1.3,Win32,60,13253,,,,,,,,,,,,,,,,,,,2,,,,,,,,,,,,0,6,6,6,1,,,,,,,,,,,,,,,,,,,,,,,,,,,,,,,
,,,,,,,,,,,,,,,,,,,,,,,19,Female,2020-07-27_20h34.09.685,torte-2b,2020.1.3,Win32,60,13253,,,,,,,,,,,,,,,,,,,4,,,,,,,,,,,,0,7,7,7,1,,,,,,,,,,,,,,,,,,,,,,,,,,,,,,,
,,,,,,,,,,,,,,,,,,,,,,,19,Female,2020-07-27_20h34.09.685,torte-2b,2020.1.3,Win32,60,13253,,,,,,,,,,,,,,,,,,,2,,,,,,,,,,,,0,8,8,8,1,,,,,,,,,,,,,,,,,,,,,,,,,,,,,,,
,,,,,,,,,,,,,,,,,,,,,,,19,Female,2020-07-27_20h34.09.685,torte-2b,2020.1.3,Win32,60,13253,,,,,,,,,,,,,,,,,,,2,,,,,,,,,,,,0,9,9,9,1,,,,,,,,,,,,,,,,,,,,,,,,,,,,,,,
,,,,,,,,,,,,,,,,,,,,,,,19,Female,2020-07-27_20h34.09.685,torte-2b,2020.1.3,Win32,60,13253,,,,,,,,,,,,,,,,,,,6,,,,,,,,,,,,0,10,10,10,1,,,,,,,,,,,,,,,,,,,,,,,,,,,,,,,
,,,,,,,,,,,,,,,,,,,,,,,19,Female,2020-07-27_20h34.09.685,torte-2b,2020.1.3,Win32,60,13253,,,,,,,,,,,,,,,,,,,2,,,,,,,,,,,,0,11,11,11,1,,,,,,,,,,,,,,,,,,,,,,,,,,,,,,,
,,,,,,,,,,,,,,,,,,,,,,,19,Female,2020-07-27_20h34.09.685,torte-2b,2020.1.3,Win32,60,13253,,,,,,,,,,,,,,,,,,,2,,,,,,,,,,,,0,12,12,12,1,,,,,,,,,,,,,,,,,,,,,,,,,,,,,,,
,,,,,,,,,,,,,,,,,,,,,,,19,Female,2020-07-27_20h34.09.685,torte-2b,2020.1.3,Win32,60,13253,,,,,,,,,,,,,,,,,,,2,,,,,,,,,,,,0,13,13,13,1,,,,,,,,,,,,,,,,,,,,,,,,,,,,,,,
,,,,,,,,,,,,,,,,,,,,,,,19,Female,2020-07-27_20h34.09.685,torte-2b,2020.1.3,Win32,60,13253,,,,,,,,,,,,,,,,,,,2,,,,,,,,,,,,0,14,14,14,1,,,,,,,,,,,,,,,,,,,,,,,,,,,,,,,
,,,,,,,,,,,,,,,,,,,,,,,19,Female,2020-07-27_20h34.09.685,torte-2b,2020.1.3,Win32,60,13253,,,,,,,,,,,,,,,,,,,4,,,,,,,,,,,,0,15,15,15,1,,,,,,,,,,,,,,,,,,,,,,,,,,,,,,,
,,,,,,,,,,,,,,,,,,,,,,,19,Female,2020-07-27_20h34.09.685,torte-2b,2020.1.3,Win32,60,13253,,,,,,,,,,,,,,,,,,,3,,,,,,,,,,,,0,16,16,16,1,,,,,,,,,,,,,,,,,,,,,,,,,,,,,,,
,,,,,,,,,,,,,,,,,,,,,,,19,Female,2020-07-27_20h34.09.685,torte-2b,2020.1.3,Win32,60,13253,,,,,,,,,,,,,,,,,,,7,,,,,,,,,,,,0,17,17,17,1,,,,,,,,,,,,,,,,,,,,,,,,,,,,,,,
,,,,,,,,,,,,,,,,,,,,,,,19,Female,2020-07-27_20h34.09.685,torte-2b,2020.1.3,Win32,60,13253,,,,,,,,,,,,,,,,,,,4,,,,,,,,,,,,0,18,18,18,1,,,,,,,,,,,,,,,,,,,,,,,,,,,,,,,
,,,,,,,,,,,,,,,,,,,,,,,19,Female,2020-07-27_20h34.09.685,torte-2b,2020.1.3,Win32,60,13253,,,,,,,,,,,,,,,,,,,7,,,,,,,,,,,,0,19,19,19,1,,,,,,,,,,,,,,,,,,,,,,,,,,,,,,,
,,,,,,,,,,,,,,,,,,,,,,,19,Female,2020-07-27_20h34.09.685,torte-2b,2020.1.3,Win32,60,13253,,,,,,,,,,,,,,,,,,,7,,,,,,,,,,,,0,20,20,20,1,,,,,,,,,,,,,,,,,,,,,,,,,,,,,,,
,,,,,,,,,,,,,,,,,,,,,,,19,Female,2020-07-27_20h34.09.685,torte-2b,2020.1.3,Win32,60,13253,,,,,,,,,,,,,,,,,,,7,,,,,,,,,,,,0,21,21,21,1,,,,,,,,,,,,,,,,,,,,,,,,,,,,,,,
,,,,,,,,,,,,,,,,,,,,,,,19,Female,2020-07-27_20h34.09.685,torte-2b,2020.1.3,Win32,60,13253,,,,,,,,,,,,,,,,,,,7,,,,,,,,,,,,0,22,22,22,1,,,,,,,,,,,,,,,,,,,,,,,,,,,,,,,
,,,,,,,,,,,,,,,,,,,,,,,19,Female,2020-07-27_20h34.09.685,torte-2b,2020.1.3,Win32,60,13253,,,,,,,,,,,,,,,,,,,1,,,,,,,,,,,,0,23,23,23,1,,,,,,,,,,,,,,,,,,,,,,,,,,,,,,,
,,,,,,,,,,,,,,,,,,,,,,,19,Female,2020-07-27_20h34.09.685,torte-2b,2020.1.3,Win32,60,13253,,,,,,,,,,,,,,,,,,,7,,,,,,,,,,,,0,24,24,24,1,,,,,,,,,,,,,,,,,,,,,,,,,,,,,,,
,,,,,,,,,,,,,,,,,,,,,,,19,Female,2020-07-27_20h34.09.685,torte-2b,2020.1.3,Win32,60,13253,,,,,,,,,,,,,,,,,,,1,,,,,,,,,,,,0,25,25,25,1,,,,,,,,,,,,,,,,,,,,,,,,,,,,,,,
,,,,,,,,,,,,,,,,,,,,,,,19,Female,2020-07-27_20h34.09.685,torte-2b,2020.1.3,Win32,60,13253,,,,,,,,,,,,,,,,,,,7,,,,,,,,,,,,0,26,26,26,1,,,,,,,,,,,,,,,,,,,,,,,,,,,,,,,
,,,,,,,,,,,,,,,,,,,,,,,19,Female,2020-07-27_20h34.09.685,torte-2b,2020.1.3,Win32,60,13253,,,,,,,,,,,,,,,,,,,2,,,,,,,,,,,,0,27,27,27,1,,,,,,,,,,,,,,,,,,,,,,,,,,,,,,,
,,,,,,,,,,,,,,,,,,,,,,,19,Female,2020-07-27_20h34.09.685,torte-2b,2020.1.3,Win32,60,13253,,,,,,,,,,,,,,,,,,,5,,,,,,,,,,,,0,28,28,28,1,,,,,,,,,,,,,,,,,,,,,,,,,,,,,,,
,,,,,,,,,,,,,,,,,,,,,,,19,Female,2020-07-27_20h34.09.685,torte-2b,2020.1.3,Win32,60,13253,,,,,,,,,,,,,,,,,,,5,,,,,,,,,,,,0,29,29,29,1,,,,,,,,,,,,,,,,,,,,,,,,,,,,,,,
,,,,,,,,,,,,,,,,,,,,,,,19,Female,2020-07-27_20h34.09.685,torte-2b,2020.1.3,Win32,60,13253,,,,,,,,,,,,,,,,,,,5,,,,,,,,,,,,0,30,30,30,1,,,,,,,,,,,,,,,,,,,,,,,,,,,,,,,
,,,,,,,,,,,,,,,,,,,,,,,19,Female,2020-07-27_20h34.09.685,torte-2b,2020.1.3,Win32,60,13253,,,,,,,,,,,,,,,,,,,1,,,,,,,,,,,,0,31,31,31,1,,,,,,,,,,,,,,,,,,,,,,,,,,,,,,,
,,,,,,,,,,,,,,,,,,,,,,,19,Female,2020-07-27_20h34.09.685,torte-2b,2020.1.3,Win32,60,13253,,,,,,,,,,,,,,,,,,,5,,,,,,,,,,,,0,32,32,32,1,,,,,,,,,,,,,,,,,,,,,,,,,,,,,,,
,,,,,,,,,,,,,,,,,,,,,,,19,Female,2020-07-27_20h34.09.685,torte-2b,2020.1.3,Win32,60,13253,,,,,,,,,,,,,,,,,,,3,,,,,,,,,,,,0,33,33,33,1,,,,,,,,,,,,,,,,,,,,,,,,,,,,,,,
,,,,,,,,,,,,,,,,,,,,,,,19,Female,2020-07-27_20h34.09.685,torte-2b,2020.1.3,Win32,60,13253,,,,,,,,,,,,,,,,,,,3,,,,,,,,,,,,0,34,34,34,1,,,,,,,,,,,,,,,,,,,,,,,,,,,,,,,
,,,,,,,,,,,,a,Correct!,,,,,,t2.png,t3.png,1,0.90855,19,Female,2020-07-27_20h34.09.685,torte-2b,2020.1.3,Win32,60,13253,0.65494,space,5.19693,,,,,,,,,,,,,,,,,,,,,,,,,,,,,,,,,space,6.249705,0,0,0,79,1,,,,,,,,,,,,,,,,,,,,,,,,
,,,,,,,,,,,,l,Correct!,,,,,,t2.png,t5.png,3,0.0000131,19,Female,2020-07-27_20h34.09.685,torte-2b,2020.1.3,Win32,60,13253,0.55646,,,,,,,,,,,,,,,,,,,,,,,,,,,,,,,,,,,,,0,1,1,54,1,,,,,,,,,,,,,,,,,,,,,,,,
,,,,,,,,,,,,a,Incorrect,,,,,,t3.png,t1.png,2,0.056466,19,Female,2020-07-27_20h34.09.685,torte-2b,2020.1.3,Win32,60,13253,0.384115,,,,,,,,,,,,,,,,,,,,,,,,,,,,,,,,,,,,,0,2,2,34,1,,,,,,,,,,,,,,,,,,,,,,,,
,,,,,,,,,,,,l,Incorrect,,,,,,t3.png,t4.png,1,0.90855,19,Female,2020-07-27_20h34.09.685,torte-2b,2020.1.3,Win32,60,13253,0.21817,,,,,,,,,,,,,,,,,,,,,,,,,,,,,,,,,,,,,0,3,3,103,1,,,,,,,,,,,,,,,,,,,,,,,,
,,,,,,,,,,,,l,Correct!,,,,,,t1.png,t4.png,3,0.0000131,19,Female,2020-07-27_20h34.09.685,torte-2b,2020.1.3,Win32,60,13253,0.85447,,,,,,,,,,,,,,,,,,,,,,,,,,,,,,,,,,,,,0,4,4,36,1,,,,,,,,,,,,,,,,,,,,,,,,
,,,,,,,,,,,,l,Incorrect,,,,,,t4.png,t4.png,0,0.98115,19,Female,2020-07-27_20h34.09.685,torte-2b,2020.1.3,Win32,60,13253,1.521195,,,,,,,,,,,,,,,,,,,,,,,,,,,,,,,,,,,,,0,5,5,68,1,,,,,,,,,,,,,,,,,,,,,,,,
,,,,,,,,,,,,l,Incorrect,,,,,,t4.png,t3.png,1,0.90855,19,Female,2020-07-27_20h34.09.685,torte-2b,2020.1.3,Win32,60,13253,0.4161,,,,,,,,,,,,,,,,,,,,,,,,,,,,,,,,,,,,,0,6,6,29,1,,,,,,,,,,,,,,,,,,,,,,,,
,,,,,,,,,,,,a,Incorrect,,,,,,t5.png,t3.png,2,0.056466,19,Female,2020-07-27_20h34.09.685,torte-2b,2020.1.3,Win32,60,13253,0.40444,,,,,,,,,,,,,,,,,,,,,,,,,,,,,,,,,,,,,0,7,7,27,1,,,,,,,,,,,,,,,,,,,,,,,,
,,,,,,,,,,,,a,Incorrect,,,,,,t5.png,t2.png,3,0.0000131,19,Female,2020-07-27_20h34.09.685,torte-2b,2020.1.3,Win32,60,13253,0.45685,,,,,,,,,,,,,,,,,,,,,,,,,,,,,,,,,,,,,0,8,8,83,1,,,,,,,,,,,,,,,,,,,,,,,,
,,,,,,,,,,,,l,Correct!,,,,,,t1.png,t5.png,4,9.55E-11,19,Female,2020-07-27_20h34.09.685,torte-2b,2020.1.3,Win32,60,13253,0.3706,,,,,,,,,,,,,,,,,,,,,,,,,,,,,,,,,,,,,0,9,9,30,1,,,,,,,,,,,,,,,,,,,,,,,,
,,,,,,,,,,,,l,Incorrect,,,,,,t4.png,t5.png,1,0.90025,19,Female,2020-07-27_20h34.09.685,torte-2b,2020.1.3,Win32,60,13253,0.61645,,,,,,,,,,,,,,,,,,,,,,,,,,,,,,,,,,,,,0,10,10,63,1,,,,,,,,,,,,,,,,,,,,,,,,
,,,,,,,,,,,,l,Correct!,,,,,,t1.png,t3.png,2,0.056466,19,Female,2020-07-27_20h34.09.685,torte-2b,2020.1.3,Win32,60,13253,0.709615,,,,,,,,,,,,,,,,,,,,,,,,,,,,,,,,,,,,,0,11,11,24,1,,,,,,,,,,,,,,,,,,,,,,,,
,,,,,,,,,,,,l,Correct!,,,,,,t2.png,t4.png,2,0.059078,19,Female,2020-07-27_20h34.09.685,torte-2b,2020.1.3,Win32,60,13253,0.332495,,,,,,,,,,,,,,,,,,,,,,,,,,,,,,,,,,,,,0,12,12,97,1,,,,,,,,,,,,,,,,,,,,,,,,
,,,,,,,,,,,,l,Incorrect,,,,,,t3.png,t4.png,1,0.90855,19,Female,2020-07-27_20h34.09.685,torte-2b,2020.1.3,Win32,60,13253,0.41745,,,,,,,,,,,,,,,,,,,,,,,,,,,,,,,,,,,,,0,13,13,58,1,,,,,,,,,,,,,,,,,,,,,,,,
,,,,,,,,,,,,l,Incorrect,,,,,,t4.png,t4.png,0,0.98115,19,Female,2020-07-27_20h34.09.685,torte-2b,2020.1.3,Win32,60,13253,0.274795,,,,,,,,,,,,,,,,,,,,,,,,,,,,,,,,,,,,,0,14,14,59,1,,,,,,,,,,,,,,,,,,,,,,,,
,,,,,,,,,,,,l,Incorrect,,,,,,t4.png,t5.png,1,0.9,19,Female,2020-07-27_20h34.09.685,torte-2b,2020.1.3,Win32,60,13253,0.34818,,,,,,,,,,,,,,,,,,,,,,,,,,,,,,,,,,,,,0,15,15,81,1,,,,,,,,,,,,,,,,,,,,,,,,
,,,,,,,,,,,,l,Correct!,,,,,,t5.png,t3.png,2,0.056466,19,Female,2020-07-27_20h34.09.685,torte-2b,2020.1.3,Win32,60,13253,0.422325,,,,,,,,,,,,,,,,,,,,,,,,,,,,,,,,,,,,,0,16,16,26,1,,,,,,,,,,,,,,,,,,,,,,,,
,,,,,,,,,,,,l,Correct!,,,,,,t3.png,t5.png,2,0.056466,19,Female,2020-07-27_20h34.09.685,torte-2b,2020.1.3,Win32,60,13253,0.415835,,,,,,,,,,,,,,,,,,,,,,,,,,,,,,,,,,,,,0,17,17,45,1,,,,,,,,,,,,,,,,,,,,,,,,
,,,,,,,,,,,,a,Incorrect,,,,,,t5.png,t1.png,4,9.55E-11,19,Female,2020-07-27_20h34.09.685,torte-2b,2020.1.3,Win32,60,13253,0.40906,,,,,,,,,,,,,,,,,,,,,,,,,,,,,,,,,,,,,0,18,18,117,1,,,,,,,,,,,,,,,,,,,,,,,,
,,,,,,,,,,,,a,Incorrect,,,,,,t3.png,t1.png,2,0.0565,19,Female,2020-07-27_20h34.09.685,torte-2b,2020.1.3,Win32,60,13253,0.315725,,,,,,,,,,,,,,,,,,,,,,,,,,,,,,,,,,,,,0,19,19,104,1,,,,,,,,,,,,,,,,,,,,,,,,
,,,,,,,,,,,,a,Incorrect,,,,,,t4.png,t1.png,3,0.059078,19,Female,2020-07-27_20h34.09.685,torte-2b,2020.1.3,Win32,60,13253,0.353585,,,,,,,,,,,,,,,,,,,,,,,,,,,,,,,,,,,,,0,20,20,75,1,,,,,,,,,,,,,,,,,,,,,,,,
,,,,,,,,,,,,a,Incorrect,,,,,,t4.png,t1.png,3,0.0000131,19,Female,2020-07-27_20h34.09.685,torte-2b,2020.1.3,Win32,60,13253,0.35956,,,,,,,,,,,,,,,,,,,,,,,,,,,,,,,,,,,,,0,21,21,102,1,,,,,,,,,,,,,,,,,,,,,,,,
,,,,,,,,,,,,a,Incorrect,,,,,,t2.png,t5.png,3,0.0000131,19,Female,2020-07-27_20h34.09.685,torte-2b,2020.1.3,Win32,60,13253,0.30546,,,,,,,,,,,,,,,,,,,,,,,,,,,,,,,,,,,,,0,22,22,46,1,,,,,,,,,,,,,,,,,,,,,,,,
,,,,,,,,,,,,a,Incorrect,,,,,,t5.png,t2.png,3,0.0000131,19,Female,2020-07-27_20h34.09.685,torte-2b,2020.1.3,Win32,60,13253,0.4825,,,,,,,,,,,,,,,,,,,,,,,,,,,,,,,,,,,,,0,23,23,43,1,,,,,,,,,,,,,,,,,,,,,,,,
,,,,,,,,,,,,a,Incorrect,,,,,,t4.png,t1.png,3,0.059078,19,Female,2020-07-27_20h34.09.685,torte-2b,2020.1.3,Win32,60,13253,0.77142,,,,,,,,,,,,,,,,,,,,,,,,,,,,,,,,,,,,,0,24,24,62,1,,,,,,,,,,,,,,,,,,,,,,,,
,,,,,,,,,,,,a,Correct!,,,,,,t2.png,t3.png,1,0.90855,19,Female,2020-07-27_20h34.09.685,torte-2b,2020.1.3,Win32,60,13253,1.937095,,,,,,,,,,,,,,,,,,,,,,,,,,,,,,,,,,,,,0,25,25,64,1,,,,,,,,,,,,,,,,,,,,,,,,
,,,,,,,,,,,,a,Incorrect,,,,,,t5.png,t3.png,2,0.0565,19,Female,2020-07-27_20h34.09.685,torte-2b,2020.1.3,Win32,60,13253,1.00884,,,,,,,,,,,,,,,,,,,,,,,,,,,,,,,,,,,,,0,26,26,50,1,,,,,,,,,,,,,,,,,,,,,,,,
,,,,,,,,,,,,l,Correct!,,,,,,t4.png,t1.png,3,0.0000131,19,Female,2020-07-27_20h34.09.685,torte-2b,2020.1.3,Win32,60,13253,2.070095,,,,,,,,,,,,,,,,,,,,,,,,,,,,,,,,,,,,,0,27,27,49,1,,,,,,,,,,,,,,,,,,,,,,,,
,,,,,,,,,,,,,Too slow :(,,,,,,t2.png,t3.png,1,0.90855,19,Female,2020-07-27_20h34.09.685,torte-2b,2020.1.3,Win32,60,13253,,,,,,,,,,,,,,,,,,,,,,,,,,,,,,,,,,,,,,0,28,28,113,1,,,,,,,,,,,,,,,,,,,,,,,,
,,,,,,,,,,,,l,Correct!,,,,,,t1.png,t4.png,3,0.0000131,19,Female,2020-07-27_20h34.09.685,torte-2b,2020.1.3,Win32,60,13253,1.665075,,,,,,,,,,,,,,,,,,,,,,,,,,,,,,,,,,,,,0,29,29,106,1,,,,,,,,,,,,,,,,,,,,,,,,
,,,,,,,,,,,,l,Incorrect,,,,,,t4.png,t4.png,0,0.98115,19,Female,2020-07-27_20h34.09.685,torte-2b,2020.1.3,Win32,60,13253,0.349505,,,,,,,,,,,,,,,,,,,,,,,,,,,,,,,,,,,,,0,30,30,19,1,,,,,,,,,,,,,,,,,,,,,,,,
,,,,,,,,,,,,l,Incorrect,,,,,,t3.png,t4.png,1,0.90855,19,Female,2020-07-27_20h34.09.685,torte-2b,2020.1.3,Win32,60,13253,0.385275,,,,,,,,,,,,,,,,,,,,,,,,,,,,,,,,,,,,,0,31,31,111,1,,,,,,,,,,,,,,,,,,,,,,,,
,,,,,,,,,,,,,Too slow :(,,,,,,t5.png,t4.png,1,0.90025,19,Female,2020-07-27_20h34.09.685,torte-2b,2020.1.3,Win32,60,13253,,,,,,,,,,,,,,,,,,,,,,,,,,,,,,,,,,,,,,0,32,32,38,1,,,,,,,,,,,,,,,,,,,,,,,,
,,,,,,,,,,,,a,Correct!,,,,,,t3.png,t2.png,1,0.90855,19,Female,2020-07-27_20h34.09.685,torte-2b,2020.1.3,Win32,60,13253,0.948645,,,,,,,,,,,,,,,,,,,,,,,,,,,,,,,,,,,,,0,33,33,99,1,,,,,,,,,,,,,,,,,,,,,,,,
,,,,,,,,,,,,l,Incorrect,,,,,,t1.png,t1.png,0,0.97829,19,Female,2020-07-27_20h34.09.685,torte-2b,2020.1.3,Win32,60,13253,0.665815,,,,,,,,,,,,,,,,,,,,,,,,,,,,,,,,,,,,,0,34,34,4,1,,,,,,,,,,,,,,,,,,,,,,,,
,,,,,,,,,,,,l,Incorrect,,,,,,t5.png,t5.png,0,0.97829,19,Female,2020-07-27_20h34.09.685,torte-2b,2020.1.3,Win32,60,13253,1.744545,,,,,,,,,,,,,,,,,,,,,,,,,,,,,,,,,,,,,0,35,35,35,1,,,,,,,,,,,,,,,,,,,,,,,,
,,,,,,,,,,,,l,Incorrect,,,,,,t4.png,t4.png,0,0.98115,19,Female,2020-07-27_20h34.09.685,torte-2b,2020.1.3,Win32,60,13253,1.696765,,,,,,,,,,,,,,,,,,,,,,,,,,,,,,,,,,,,,0,36,36,88,1,,,,,,,,,,,,,,,,,,,,,,,,
,,,,,,,,,,,,l,Incorrect,,,,,,t3.png,t2.png,1,0.90855,19,Female,2020-07-27_20h34.09.685,torte-2b,2020.1.3,Win32,60,13253,0.553835,,,,,,,,,,,,,,,,,,,,,,,,,,,,,,,,,,,,,0,37,37,0,1,,,,,,,,,,,,,,,,,,,,,,,,
,,,,,,,,,,,,l,Correct!,,,,,,t5.png,t1.png,4,9.55E-11,19,Female,2020-07-27_20h34.09.685,torte-2b,2020.1.3,Win32,60,13253,1.2811,,,,,,,,,,,,,,,,,,,,,,,,,,,,,,,,,,,,,0,38,38,15,1,,,,,,,,,,,,,,,,,,,,,,,,
,,,,,,,,,,,,a,Incorrect,,,,,,t4.png,t1.png,3,0.059078,19,Female,2020-07-27_20h34.09.685,torte-2b,2020.1.3,Win32,60,13253,0.425375,,,,,,,,,,,,,,,,,,,,,,,,,,,,,,,,,,,,,0,39,39,87,1,,,,,,,,,,,,,,,,,,,,,,,,
,,,,,,,,,,,,l,Incorrect,,,,,,t4.png,t5.png,1,0.90025,19,Female,2020-07-27_20h34.09.685,torte-2b,2020.1.3,Win32,60,13253,0.35405,,,,,,,,,,,,,,,,,,,,,,,,,,,,,,,,,,,,,0,40,40,33,1,,,,,,,,,,,,,,,,,,,,,,,,
,,,,,,,,,,,,a,Incorrect,,,,,,t5.png,t1.png,4,9.55E-11,19,Female,2020-07-27_20h34.09.685,torte-2b,2020.1.3,Win32,60,13253,0.886755,,,,,,,,,,,,,,,,,,,,,,,,,,,,,,,,,,,,,0,41,41,89,1,,,,,,,,,,,,,,,,,,,,,,,,
,,,,,,,,,,,,l,Incorrect,,,,,,t4.png,t3.png,1,0.909,19,Female,2020-07-27_20h34.09.685,torte-2b,2020.1.3,Win32,60,13253,0.8155,,,,,,,,,,,,,,,,,,,,,,,,,,,,,,,,,,,,,0,42,42,107,1,,,,,,,,,,,,,,,,,,,,,,,,
,,,,,,,,,,,,l,Incorrect,,,,,,t5.png,t5.png,0,0.978,19,Female,2020-07-27_20h34.09.685,torte-2b,2020.1.3,Win32,60,13253,1.764185,,,,,,,,,,,,,,,,,,,,,,,,,,,,,,,,,,,,,0,43,43,51,1,,,,,,,,,,,,,,,,,,,,,,,,
,,,,,,,,,,,,l,Correct!,,,,,,t2.png,t5.png,3,0.0000131,19,Female,2020-07-27_20h34.09.685,torte-2b,2020.1.3,Win32,60,13253,1.572705,,,,,,,,,,,,,,,,,,,,,,,,,,,,,,,,,,,,,0,44,44,85,1,,,,,,,,,,,,,,,,,,,,,,,,
,,,,,,,,,,,,l,Incorrect,,,,,,t1.png,t1.png,0,0.978,19,Female,2020-07-27_20h34.09.685,torte-2b,2020.1.3,Win32,60,13253,1.92138,,,,,,,,,,,,,,,,,,,,,,,,,,,,,,,,,,,,,0,45,45,13,1,,,,,,,,,,,,,,,,,,,,,,,,
,,,,,,,,,,,,l,Incorrect,,,,,,t4.png,t3.png,1,0.909,19,Female,2020-07-27_20h34.09.685,torte-2b,2020.1.3,Win32,60,13253,0.820215,,,,,,,,,,,,,,,,,,,,,,,,,,,,,,,,,,,,,0,46,46,119,1,,,,,,,,,,,,,,,,,,,,,,,,
,,,,,,,,,,,,l,Correct!,,,,,,t2.png,t4.png,2,0.059078,19,Female,2020-07-27_20h34.09.685,torte-2b,2020.1.3,Win32,60,13253,0.749045,,,,,,,,,,,,,,,,,,,,,,,,,,,,,,,,,,,,,0,47,47,67,1,,,,,,,,,,,,,,,,,,,,,,,,
,,,,,,,,,,,,l,Incorrect,,,,,,t2.png,t3.png,1,0.90855,19,Female,2020-07-27_20h34.09.685,torte-2b,2020.1.3,Win32,60,13253,0.4653,,,,,,,,,,,,,,,,,,,,,,,,,,,,,,,,,,,,,0,48,48,70,1,,,,,,,,,,,,,,,,,,,,,,,,
,,,,,,,,,,,,l,Incorrect,,,,,,t1.png,t2.png,1,0.90025,19,Female,2020-07-27_20h34.09.685,torte-2b,2020.1.3,Win32,60,13253,0.465295,,,,,,,,,,,,,,,,,,,,,,,,,,,,,,,,,,,,,0,49,49,6,1,,,,,,,,,,,,,,,,,,,,,,,,
,,,,,,,,,,,,l,Incorrect,,,,,,t3.png,t2.png,1,0.90855,19,Female,2020-07-27_20h34.09.685,torte-2b,2020.1.3,Win32,60,13253,0.28281,,,,,,,,,,,,,,,,,,,,,,,,,,,,,,,,,,,,,0,50,50,108,1,,,,,,,,,,,,,,,,,,,,,,,,
,,,,,,,,,,,,,Too slow :(,,,,,,t4.png,t4.png,0,0.98115,19,Female,2020-07-27_20h34.09.685,torte-2b,2020.1.3,Win32,60,13253,,,,,,,,,,,,,,,,,,,,,,,,,,,,,,,,,,,,,,0,51,51,52,1,,,,,,,,,,,,,,,,,,,,,,,,
,,,,,,,,,,,,a,Correct!,,,,,,t2.png,t1.png,1,0.90025,19,Female,2020-07-27_20h34.09.685,torte-2b,2020.1.3,Win32,60,13253,0.38952,,,,,,,,,,,,,,,,,,,,,,,,,,,,,,,,,,,,,0,52,52,105,1,,,,,,,,,,,,,,,,,,,,,,,,
,,,,,,,,,,,,l,Correct!,,,,,,t3.png,t5.png,2,0.056466,19,Female,2020-07-27_20h34.09.685,torte-2b,2020.1.3,Win32,60,13253,0.413635,,,,,,,,,,,,,,,,,,,,,,,,,,,,,,,,,,,,,0,53,53,47,1,,,,,,,,,,,,,,,,,,,,,,,,
,,,,,,,,,,,,l,Correct!,,,,,,t5.png,t1.png,4,9.55E-11,19,Female,2020-07-27_20h34.09.685,torte-2b,2020.1.3,Win32,60,13253,0.482385,,,,,,,,,,,,,,,,,,,,,,,,,,,,,,,,,,,,,0,54,54,31,1,,,,,,,,,,,,,,,,,,,,,,,,
,,,,,,,,,,,,l,Correct!,,,,,,t3.png,t1.png,2,0.0565,19,Female,2020-07-27_20h34.09.685,torte-2b,2020.1.3,Win32,60,13253,0.938985,,,,,,,,,,,,,,,,,,,,,,,,,,,,,,,,,,,,,0,55,55,40,1,,,,,,,,,,,,,,,,,,,,,,,,
,,,,,,,,,,,,,Too slow :(,,,,,,t2.png,t2.png,0,0.98115,19,Female,2020-07-27_20h34.09.685,torte-2b,2020.1.3,Win32,60,13253,,,,,,,,,,,,,,,,,,,,,,,,,,,,,,,,,,,,,,0,56,56,69,1,,,,,,,,,,,,,,,,,,,,,,,,
,,,,,,,,,,,,a,Incorrect,,,,,,t5.png,t2.png,3,0.0000131,19,Female,2020-07-27_20h34.09.685,torte-2b,2020.1.3,Win32,60,13253,0.920575,,,,,,,,,,,,,,,,,,,,,,,,,,,,,,,,,,,,,0,57,57,48,1,,,,,,,,,,,,,,,,,,,,,,,,
,,,,,,,,,,,,a,Correct!,,,,,,t5.png,t4.png,1,0.90025,19,Female,2020-07-27_20h34.09.685,torte-2b,2020.1.3,Win32,60,13253,0.934355,,,,,,,,,,,,,,,,,,,,,,,,,,,,,,,,,,,,,0,58,58,14,1,,,,,,,,,,,,,,,,,,,,,,,,
,,,,,,,,,,,,,Too slow :(,,,,,,t2.png,t3.png,1,0.909,19,Female,2020-07-27_20h34.09.685,torte-2b,2020.1.3,Win32,60,13253,,,,,,,,,,,,,,,,,,,,,,,,,,,,,,,,,,,,,,0,59,59,8,1,,,,,,,,,,,,,,,,,,,,,,,,
,,,,,,,,,,,,a,Correct!,,,,,,t5.png,t4.png,1,0.90025,19,Female,2020-07-27_20h34.09.685,torte-2b,2020.1.3,Win32,60,13253,1.75545,,,,,,,,,,,,,,,,,,,,,,,,,,,,,,,,,,,,,0,60,60,25,1,,,,,,,,,,,,,,,,,,,,,,,,
,,,,,,,,,,,,a,Incorrect,,,,,,t4.png,t1.png,3,0.059078,19,Female,2020-07-27_20h34.09.685,torte-2b,2020.1.3,Win32,60,13253,0.72084,,,,,,,,,,,,,,,,,,,,,,,,,,,,,,,,,,,,,0,61,61,57,1,,,,,,,,,,,,,,,,,,,,,,,,
,,,,,,,,,,,,a,Incorrect,,,,,,t3.png,t1.png,2,0.056466,19,Female,2020-07-27_20h34.09.685,torte-2b,2020.1.3,Win32,60,13253,0.782615,,,,,,,,,,,,,,,,,,,,,,,,,,,,,,,,,,,,,0,62,62,72,1,,,,,,,,,,,,,,,,,,,,,,,,
,,,,,,,,,,,,l,Correct!,,,,,,t1.png,t4.png,3,0.0000131,19,Female,2020-07-27_20h34.09.685,torte-2b,2020.1.3,Win32,60,13253,0.88744,,,,,,,,,,,,,,,,,,,,,,,,,,,,,,,,,,,,,0,63,63,16,1,,,,,,,,,,,,,,,,,,,,,,,,
,,,,,,,,,,,,a,Incorrect,,,,,,t5.png,t3.png,2,0.056466,19,Female,2020-07-27_20h34.09.685,torte-2b,2020.1.3,Win32,60,13253,0.8818,,,,,,,,,,,,,,,,,,,,,,,,,,,,,,,,,,,,,0,64,64,37,1,,,,,,,,,,,,,,,,,,,,,,,,
,,,,,,,,,,,,a,Correct!,,,,,,t4.png,t3.png,1,0.90855,19,Female,2020-07-27_20h34.09.685,torte-2b,2020.1.3,Win32,60,13253,0.386865,,,,,,,,,,,,,,,,,,,,,,,,,,,,,,,,,,,,,0,65,65,56,1,,,,,,,,,,,,,,,,,,,,,,,,
,,,,,,,,,,,,a,Incorrect,,,,,,t4.png,t1.png,3,0.0000131,19,Female,2020-07-27_20h34.09.685,torte-2b,2020.1.3,Win32,60,13253,0.32213,,,,,,,,,,,,,,,,,,,,,,,,,,,,,,,,,,,,,0,66,66,76,1,,,,,,,,,,,,,,,,,,,,,,,,
,,,,,,,,,,,,l,Correct!,,,,,,t1.png,t5.png,4,9.55E-11,19,Female,2020-07-27_20h34.09.685,torte-2b,2020.1.3,Win32,60,13253,0.449195,,,,,,,,,,,,,,,,,,,,,,,,,,,,,,,,,,,,,0,67,67,3,1,,,,,,,,,,,,,,,,,,,,,,,,
,,,,,,,,,,,,l,Correct!,,,,,,t1.png,t5.png,4,9.55E-11,19,Female,2020-07-27_20h34.09.685,torte-2b,2020.1.3,Win32,60,13253,0.418365,,,,,,,,,,,,,,,,,,,,,,,,,,,,,,,,,,,,,0,68,68,118,1,,,,,,,,,,,,,,,,,,,,,,,,
,,,,,,,,,,,,l,Incorrect,,,,,,t4.png,t5.png,1,0.90025,19,Female,2020-07-27_20h34.09.685,torte-2b,2020.1.3,Win32,60,13253,0.375765,,,,,,,,,,,,,,,,,,,,,,,,,,,,,,,,,,,,,0,69,69,86,1,,,,,,,,,,,,,,,,,,,,,,,,
,,,,,,,,,,,,l,Incorrect,,,,,,t1.png,t3.png,2,0.056466,19,Female,2020-07-27_20h34.09.685,torte-2b,2020.1.3,Win32,60,13253,0.32933,,,,,,,,,,,,,,,,,,,,,,,,,,,,,,,,,,,,,0,70,70,32,1,,,,,,,,,,,,,,,,,,,,,,,,
,,,,,,,,,,,,a,Incorrect,,,,,,t3.png,t5.png,2,0.0565,19,Female,2020-07-27_20h34.09.685,torte-2b,2020.1.3,Win32,60,13253,0.507455,,,,,,,,,,,,,,,,,,,,,,,,,,,,,,,,,,,,,0,71,71,71,1,,,,,,,,,,,,,,,,,,,,,,,,
,,,,,,,,,,,,l,Incorrect,,,,,,t3.png,t5.png,2,0.056466,19,Female,2020-07-27_20h34.09.685,torte-2b,2020.1.3,Win32,60,13253,0.64888,,,,,,,,,,,,,,,,,,,,,,,,,,,,,,,,,,,,,0,72,72,78,1,,,,,,,,,,,,,,,,,,,,,,,,
,,,,,,,,,,,,l,Incorrect,,,,,,t1.png,t2.png,1,0.90025,19,Female,2020-07-27_20h34.09.685,torte-2b,2020.1.3,Win32,60,13253,0.591725,,,,,,,,,,,,,,,,,,,,,,,,,,,,,,,,,,,,,0,73,73,96,1,,,,,,,,,,,,,,,,,,,,,,,,
,,,,,,,,,,,,l,Incorrect,,,,,,t3.png,t4.png,1,0.90855,19,Female,2020-07-27_20h34.09.685,torte-2b,2020.1.3,Win32,60,13253,0.77263,,,,,,,,,,,,,,,,,,,,,,,,,,,,,,,,,,,,,0,74,74,9,1,,,,,,,,,,,,,,,,,,,,,,,,
,,,,,,,,,,,,l,Incorrect,,,,,,t2.png,t2.png,0,0.981,19,Female,2020-07-27_20h34.09.685,torte-2b,2020.1.3,Win32,60,13253,0.365555,,,,,,,,,,,,,,,,,,,,,,,,,,,,,,,,,,,,,0,75,75,98,1,,,,,,,,,,,,,,,,,,,,,,,,
,,,,,,,,,,,,l,Correct!,,,,,,t1.png,t5.png,4,9.55E-11,19,Female,2020-07-27_20h34.09.685,torte-2b,2020.1.3,Win32,60,13253,0.34301,,,,,,,,,,,,,,,,,,,,,,,,,,,,,,,,,,,,,0,76,76,20,1,,,,,,,,,,,,,,,,,,,,,,,,
,,,,,,,,,,,,l,Incorrect,,,,,,t3.png,t4.png,1,0.90855,19,Female,2020-07-27_20h34.09.685,torte-2b,2020.1.3,Win32,60,13253,0.249935,,,,,,,,,,,,,,,,,,,,,,,,,,,,,,,,,,,,,0,77,77,5,1,,,,,,,,,,,,,,,,,,,,,,,,
,,,,,,,,,,,,l,Incorrect,,,,,,t2.png,t1.png,1,0.90025,19,Female,2020-07-27_20h34.09.685,torte-2b,2020.1.3,Win32,60,13253,0.4202,,,,,,,,,,,,,,,,,,,,,,,,,,,,,,,,,,,,,0,78,78,65,1,,,,,,,,,,,,,,,,,,,,,,,,
,,,,,,,,,,,,l,Correct!,,,,,,t5.png,t2.png,3,0.0000131,19,Female,2020-07-27_20h34.09.685,torte-2b,2020.1.3,Win32,60,13253,0.485995,,,,,,,,,,,,,,,,,,,,,,,,,,,,,,,,,,,,,0,79,79,82,1,,,,,,,,,,,,,,,,,,,,,,,,
,,,,,,,,,,,,l,Incorrect,,,,,,t1.png,t2.png,1,0.9,19,Female,2020-07-27_20h34.09.685,torte-2b,2020.1.3,Win32,60,13253,0.270265,,,,,,,,,,,,,,,,,,,,,,,,,,,,,,,,,,,,,0,80,80,17,1,,,,,,,,,,,,,,,,,,,,,,,,
,,,,,,,,,,,,l,Correct!,,,,,,t4.png,t1.png,3,0.0000131,19,Female,2020-07-27_20h34.09.685,torte-2b,2020.1.3,Win32,60,13253,0.383015,,,,,,,,,,,,,,,,,,,,,,,,,,,,,,,,,,,,,0,81,81,28,1,,,,,,,,,,,,,,,,,,,,,,,,
,,,,,,,,,,,,l,Incorrect,,,,,,t1.png,t1.png,0,0.97829,19,Female,2020-07-27_20h34.09.685,torte-2b,2020.1.3,Win32,60,13253,0.272955,,,,,,,,,,,,,,,,,,,,,,,,,,,,,,,,,,,,,0,82,82,114,1,,,,,,,,,,,,,,,,,,,,,,,,
,,,,,,,,,,,,l,Correct!,,,,,,t1.png,t3.png,2,0.0565,19,Female,2020-07-27_20h34.09.685,torte-2b,2020.1.3,Win32,60,13253,0.26598,,,,,,,,,,,,,,,,,,,,,,,,,,,,,,,,,,,,,0,83,83,42,1,,,,,,,,,,,,,,,,,,,,,,,,
,,,,,,,,,,,,l,Correct!,,,,,,t2.png,t4.png,2,0.059078,19,Female,2020-07-27_20h34.09.685,torte-2b,2020.1.3,Win32,60,13253,0.25363,,,,,,,,,,,,,,,,,,,,,,,,,,,,,,,,,,,,,0,84,84,18,1,,,,,,,,,,,,,,,,,,,,,,,,
,,,,,,,,,,,,l,Correct!,,,,,,t2.png,t4.png,2,0.059078,19,Female,2020-07-27_20h34.09.685,torte-2b,2020.1.3,Win32,60,13253,0.031935,,,,,,,,,,,,,,,,,,,,,,,,,,,,,,,,,,,,,0,85,85,84,1,,,,,,,,,,,,,,,,,,,,,,,,
,,,,,,,,,,,,l,Correct!,,,,,,t1.png,t5.png,4,9.55E-11,19,Female,2020-07-27_20h34.09.685,torte-2b,2020.1.3,Win32,60,13253,0.23214,,,,,,,,,,,,,,,,,,,,,,,,,,,,,,,,,,,,,0,86,86,1,1,,,,,,,,,,,,,,,,,,,,,,,,
,,,,,,,,,,,,l,Incorrect,,,,,,t2.png,t2.png,0,0.98115,19,Female,2020-07-27_20h34.09.685,torte-2b,2020.1.3,Win32,60,13253,0.385795,,,,,,,,,,,,,,,,,,,,,,,,,,,,,,,,,,,,,0,87,87,112,1,,,,,,,,,,,,,,,,,,,,,,,,
,,,,,,,,,,,,l,Correct!,,,,,,t1.png,t4.png,3,0.0000131,19,Female,2020-07-27_20h34.09.685,torte-2b,2020.1.3,Win32,60,13253,1.71815,,,,,,,,,,,,,,,,,,,,,,,,,,,,,,,,,,,,,0,88,88,74,1,,,,,,,,,,,,,,,,,,,,,,,,
,,,,,,,,,,,,l,Incorrect,,,,,,t3.png,t2.png,1,0.90855,19,Female,2020-07-27_20h34.09.685,torte-2b,2020.1.3,Win32,60,13253,0.66741,,,,,,,,,,,,,,,,,,,,,,,,,,,,,,,,,,,,,0,89,89,94,1,,,,,,,,,,,,,,,,,,,,,,,,
,,,,,,,,,,,,l,Correct!,,,,,,t3.png,t5.png,2,0.056466,19,Female,2020-07-27_20h34.09.685,torte-2b,2020.1.3,Win32,60,13253,0.97012,,,,,,,,,,,,,,,,,,,,,,,,,,,,,,,,,,,,,0,90,90,60,1,,,,,,,,,,,,,,,,,,,,,,,,
,,,,,,,,,,,,l,Incorrect,,,,,,t1.png,t1.png,0,0.97829,19,Female,2020-07-27_20h34.09.685,torte-2b,2020.1.3,Win32,60,13253,0.76838,,,,,,,,,,,,,,,,,,,,,,,,,,,,,,,,,,,,,0,91,91,110,1,,,,,,,,,,,,,,,,,,,,,,,,
,,,,,,,,,,,,l,Correct!,,,,,,t4.png,t1.png,3,0.0000131,19,Female,2020-07-27_20h34.09.685,torte-2b,2020.1.3,Win32,60,13253,0.48136,,,,,,,,,,,,,,,,,,,,,,,,,,,,,,,,,,,,,0,92,92,91,1,,,,,,,,,,,,,,,,,,,,,,,,
,,,,,,,,,,,,l,Incorrect,,,,,,t4.png,t3.png,1,0.90855,19,Female,2020-07-27_20h34.09.685,torte-2b,2020.1.3,Win32,60,13253,0.33707,,,,,,,,,,,,,,,,,,,,,,,,,,,,,,,,,,,,,0,93,93,11,1,,,,,,,,,,,,,,,,,,,,,,,,
,,,,,,,,,,,,,Too slow :(,,,,,,t1.png,t2.png,1,0.9,19,Female,2020-07-27_20h34.09.685,torte-2b,2020.1.3,Win32,60,13253,,,,,,,,,,,,,,,,,,,,,,,,,,,,,,,,,,,,,,0,94,94,41,1,,,,,,,,,,,,,,,,,,,,,,,,
,,,,,,,,,,,,l,Incorrect,,,,,,t1.png,t2.png,1,0.9,19,Female,2020-07-27_20h34.09.685,torte-2b,2020.1.3,Win32,60,13253,0.215845,,,,,,,,,,,,,,,,,,,,,,,,,,,,,,,,,,,,,0,95,95,61,1,,,,,,,,,,,,,,,,,,,,,,,,
,,,,,,,,,,,,l,Incorrect,,,,,,t4.png,t5.png,1,0.90025,19,Female,2020-07-27_20h34.09.685,torte-2b,2020.1.3,Win32,60,13253,0.923655,,,,,,,,,,,,,,,,,,,,,,,,,,,,,,,,,,,,,0,96,96,21,1,,,,,,,,,,,,,,,,,,,,,,,,
,,,,,,,,,,,,l,Correct!,,,,,,t2.png,t5.png,3,0.0000131,19,Female,2020-07-27_20h34.09.685,torte-2b,2020.1.3,Win32,60,13253,0.51581,,,,,,,,,,,,,,,,,,,,,,,,,,,,,,,,,,,,,0,97,97,115,1,,,,,,,,,,,,,,,,,,,,,,,,
,,,,,,,,,,,,l,Correct!,,,,,,t5.png,t5.png,0,0.97829,19,Female,2020-07-27_20h34.09.685,torte-2b,2020.1.3,Win32,60,13253,0.39985,,,,,,,,,,,,,,,,,,,,,,,,,,,,,,,,,,,,,0,98,98,77,1,,,,,,,,,,,,,,,,,,,,,,,,
,,,,,,,,,,,,l,Correct!,,,,,,t2.png,t1.png,1,0.9,19,Female,2020-07-27_20h34.09.685,torte-2b,2020.1.3,Win32,60,13253,2.450615,,,,,,,,,,,,,,,,,,,,,,,,,,,,,,,,,,,,,0,99,99,93,1,,,,,,,,,,,,,,,,,,,,,,,,
,,,,,,,,,,,,l,Incorrect,,,,,,t1.png,t1.png,0,0.978,19,Female,2020-07-27_20h34.09.685,torte-2b,2020.1.3,Win32,60,13253,0.37376,,,,,,,,,,,,,,,,,,,,,,,,,,,,,,,,,,,,,0,100,100,22,1,,,,,,,,,,,,,,,,,,,,,,,,
,,,,,,,,,,,,a,Incorrect,,,,,,t2.png,t5.png,3,0.0000131,19,Female,2020-07-27_20h34.09.685,torte-2b,2020.1.3,Win32,60,13253,0.235315,,,,,,,,,,,,,,,,,,,,,,,,,,,,,,,,,,,,,0,101,101,39,1,,,,,,,,,,,,,,,,,,,,,,,,
,,,,,,,,,,,,a,Incorrect,,,,,,t1.png,t4.png,3,0.0000131,19,Female,2020-07-27_20h34.09.685,torte-2b,2020.1.3,Win32,60,13253,0.215085,,,,,,,,,,,,,,,,,,,,,,,,,,,,,,,,,,,,,0,102,102,23,1,,,,,,,,,,,,,,,,,,,,,,,,
,,,,,,,,,,,,a,Correct!,,,,,,t5.png,t4.png,1,0.9,19,Female,2020-07-27_20h34.09.685,torte-2b,2020.1.3,Win32,60,13253,0.64985,,,,,,,,,,,,,,,,,,,,,,,,,,,,,,,,,,,,,0,103,103,92,1,,,,,,,,,,,,,,,,,,,,,,,,
,,,,,,,,,,,,a,Incorrect,,,,,,t4.png,t1.png,3,0.059078,19,Female,2020-07-27_20h34.09.685,torte-2b,2020.1.3,Win32,60,13253,0.94865,,,,,,,,,,,,,,,,,,,,,,,,,,,,,,,,,,,,,0,104,104,73,1,,,,,,,,,,,,,,,,,,,,,,,,
,,,,,,,,,,,,l,Correct!,,,,,,t5.png,t1.png,4,9.55E-11,19,Female,2020-07-27_20h34.09.685,torte-2b,2020.1.3,Win32,60,13253,0.74857,,,,,,,,,,,,,,,,,,,,,,,,,,,,,,,,,,,,,0,105,105,101,1,,,,,,,,,,,,,,,,,,,,,,,,
,,,,,,,,,,,,l,Correct!,,,,,,t5.png,t2.png,3,0.0000131,19,Female,2020-07-27_20h34.09.685,torte-2b,2020.1.3,Win32,60,13253,0.26589,,,,,,,,,,,,,,,,,,,,,,,,,,,,,,,,,,,,,0,106,106,66,1,,,,,,,,,,,,,,,,,,,,,,,,
,,,,,,,,,,,,l,Incorrect,,,,,,t1.png,t3.png,2,0.0565,19,Female,2020-07-27_20h34.09.685,torte-2b,2020.1.3,Win32,60,13253,0.5157,,,,,,,,,,,,,,,,,,,,,,,,,,,,,,,,,,,,,0,107,107,12,1,,,,,,,,,,,,,,,,,,,,,,,,
,,,,,,,,,,,,l,Correct!,,,,,,t5.png,t3.png,2,0.056466,19,Female,2020-07-27_20h34.09.685,torte-2b,2020.1.3,Win32,60,13253,0.44889,,,,,,,,,,,,,,,,,,,,,,,,,,,,,,,,,,,,,0,108,108,80,1,,,,,,,,,,,,,,,,,,,,,,,,
,,,,,,,,,,,,a,Correct!,,,,,,t2.png,t1.png,1,0.9,19,Female,2020-07-27_20h34.09.685,torte-2b,2020.1.3,Win32,60,13253,0.30663,,,,,,,,,,,,,,,,,,,,,,,,,,,,,,,,,,,,,0,109,109,100,1,,,,,,,,,,,,,,,,,,,,,,,,
,,,,,,,,,,,,l,Correct!,,,,,,t1.png,t3.png,2,0.0565,19,Female,2020-07-27_20h34.09.685,torte-2b,2020.1.3,Win32,60,13253,0.25908,,,,,,,,,,,,,,,,,,,,,,,,,,,,,,,,,,,,,0,110,110,95,1,,,,,,,,,,,,,,,,,,,,,,,,
,,,,,,,,,,,,a,Correct!,,,,,,t2.png,t1.png,1,0.90025,19,Female,2020-07-27_20h34.09.685,torte-2b,2020.1.3,Win32,60,13253,0.471145,,,,,,,,,,,,,,,,,,,,,,,,,,,,,,,,,,,,,0,111,111,44,1,,,,,,,,,,,,,,,,,,,,,,,,
,,,,,,,,,,,,l,Correct!,,,,,,t5.png,t5.png,0,0.97829,19,Female,2020-07-27_20h34.09.685,torte-2b,2020.1.3,Win32,60,13253,0.50283,,,,,,,,,,,,,,,,,,,,,,,,,,,,,,,,,,,,,0,112,112,2,1,,,,,,,,,,,,,,,,,,,,,,,,
,,,,,,,,,,,,l,Correct!,,,,,,t2.png,t4.png,2,0.059078,19,Female,2020-07-27_20h34.09.685,torte-2b,2020.1.3,Win32,60,13253,0.398125,,,,,,,,,,,,,,,,,,,,,,,,,,,,,,,,,,,,,0,113,113,53,1,,,,,,,,,,,,,,,,,,,,,,,,
,,,,,,,,,,,,a,Correct!,,,,,,t2.png,t2.png,0,0.98115,19,Female,2020-07-27_20h34.09.685,torte-2b,2020.1.3,Win32,60,13253,0.664975,,,,,,,,,,,,,,,,,,,,,,,,,,,,,,,,,,,,,0,114,114,90,1,,,,,,,,,,,,,,,,,,,,,,,,
,,,,,,,,,,,,l,Incorrect,,,,,,t5.png,t5.png,0,0.978,19,Female,2020-07-27_20h34.09.685,torte-2b,2020.1.3,Win32,60,13253,0.499125,,,,,,,,,,,,,,,,,,,,,,,,,,,,,,,,,,,,,0,115,115,116,1,,,,,,,,,,,,,,,,,,,,,,,,
,,,,,,,,,,,,l,Incorrect,,,,,,t3.png,t2.png,1,0.90855,19,Female,2020-07-27_20h34.09.685,torte-2b,2020.1.3,Win32,60,13253,0.199545,,,,,,,,,,,,,,,,,,,,,,,,,,,,,,,,,,,,,0,116,116,10,1,,,,,,,,,,,,,,,,,,,,,,,,
,,,,,,,,,,,,l,Incorrect,,,,,,t2.png,t2.png,0,0.98115,19,Female,2020-07-27_20h34.09.685,torte-2b,2020.1.3,Win32,60,13253,0.55085,,,,,,,,,,,,,,,,,,,,,,,,,,,,,,,,,,,,,0,117,117,7,1,,,,,,,,,,,,,,,,,,,,,,,,
,,,,,,,,,,,,a,Incorrect,,,,,,t3.png,t1.png,2,0.056466,19,Female,2020-07-27_20h34.09.685,torte-2b,2020.1.3,Win32,60,13253,1.420415,,,,,,,,,,,,,,,,,,,,,,,,,,,,,,,,,,,,,0,118,118,109,1,,,,,,,,,,,,,,,,,,,,,,,,
,,,,,,,,,,,,a,Correct!,,,,,,t5.png,t4.png,1,0.9,19,Female,2020-07-27_20h34.09.685,torte-2b,2020.1.3,Win32,60,13253,0.668805,,,,,,,,,,,,,,,,,,,,,,,,,,,,,,,,,,,,,0,119,119,55,1,,,,,,,,,,,,,,,,,,,,,,,,
,,,,,,,,,,,,,,,,,,,,,,,19,Female,2020-07-27_20h34.09.685,torte-2b,2020.1.3,Win32,60,13253,,space,1.424115,,,,,,,,,,,,,,,,,,,,,,,,,,,,,,,,,,,,,,,,-32.79998904,-122.4000083,1,0,0,s6,11.20001161,18.39999384,1,0,0,t2,259.200113,-95.20000786,1,0,0,proceed,space,1.14113,space,1.864155,space,0.42412
