key_resp_8.keys,key_resp_8.rt,key_resp_9.keys,key_resp_9.rt,key_resp_10.keys,key_resp_10.rt,key_resp_11.keys,key_resp_11.rt,key_resp_2.keys,key_resp_2.rt,key_resp_3.keys,key_resp_3.rt,key_resp.keys,key_resp.rt,Feedback,train.thisRepN,train.thisTrialN,train.thisN,train.thisIndex,train.ran,torta_sx,torta_dx,difference,probability,age,gender,date,expName,psychopyVersion,OS,frameRate,participant,key_resp_15.keys,key_resp_15.rt,key_resp_6.keys,key_resp_6.rt,test1.thisRepN,test1.thisTrialN,test1.thisN,test1.thisIndex,test1.ran,key_resp_4.keys,key_resp_4.rt,key_resp_5.keys,back1.thisRepN,back1.thisTrialN,back1.thisN,back1.thisIndex,back1.ran,letter,key_resp_5.rt,back2.thisRepN,back2.thisTrialN,back2.thisN,back2.thisIndex,back2.ran,back3.thisRepN,back3.thisTrialN,back3.thisN,back3.thisIndex,back3.ran,back4.thisRepN,back4.thisTrialN,back4.thisN,back4.thisIndex,back4.ran,key_resp_7.keys,key_resp_7.rt,test2.thisRepN,test2.thisTrialN,test2.thisN,test2.thisIndex,test2.ran,mouse.x,mouse.y,mouse.leftButton,mouse.midButton,mouse.rightButton,mouse.clicked_name,mouse_2.x,mouse_2.y,mouse_2.leftButton,mouse_2.midButton,mouse_2.rightButton,mouse_2.clicked_name,mouse_3.x,mouse_3.y,mouse_3.leftButton,mouse_3.midButton,mouse_3.rightButton,mouse_3.clicked_name,key_resp_12.keys,key_resp_12.rt,key_resp_13.keys,key_resp_13.rt,key_resp_14.keys,key_resp_14.rt
space,1.699,space,32.724,space,13.342,space,24.195,space,54.056,space,1097.053,a,2.268,Incorrect,0,0,0,12,1,t5.png,t1.png,4,9.55E-11,20,female ,2020-09-06_17h48.12.976,torte-2b,2020.1.3,MacIntel,60,13259,,,,,,,,,,,,,,,,,,,,,,,,,,,,,,,,,,,,,,,,,,,,,,,,,,,,,,,,,,,,,,,,,
,,,,,,,,,,,,l,1.841,Incorrect,0,1,1,77,1,t1.png,t1.png,0,0.97829,20,female ,2020-09-06_17h48.12.976,torte-2b,2020.1.3,MacIntel,60,13259,,,,,,,,,,,,,,,,,,,,,,,,,,,,,,,,,,,,,,,,,,,,,,,,,,,,,,,,,,,,,,,,,
,,,,,,,,,,,,l,1.433,Correct!,0,2,2,102,1,t4.png,t2.png,2,0.059078,20,female ,2020-09-06_17h48.12.976,torte-2b,2020.1.3,MacIntel,60,13259,,,,,,,,,,,,,,,,,,,,,,,,,,,,,,,,,,,,,,,,,,,,,,,,,,,,,,,,,,,,,,,,,
,,,,,,,,,,,,a,0.974,Correct!,0,3,3,64,1,t1.png,t1.png,0,0.978,20,female ,2020-09-06_17h48.12.976,torte-2b,2020.1.3,MacIntel,60,13259,,,,,,,,,,,,,,,,,,,,,,,,,,,,,,,,,,,,,,,,,,,,,,,,,,,,,,,,,,,,,,,,,
,,,,,,,,,,,,a,1.049,Correct!,0,4,4,42,1,t5.png,t4.png,1,0.90025,20,female ,2020-09-06_17h48.12.976,torte-2b,2020.1.3,MacIntel,60,13259,,,,,,,,,,,,,,,,,,,,,,,,,,,,,,,,,,,,,,,,,,,,,,,,,,,,,,,,,,,,,,,,,
,,,,,,,,,,,,l,1.091,Correct!,0,5,5,73,1,t4.png,t2.png,2,0.059078,20,female ,2020-09-06_17h48.12.976,torte-2b,2020.1.3,MacIntel,60,13259,,,,,,,,,,,,,,,,,,,,,,,,,,,,,,,,,,,,,,,,,,,,,,,,,,,,,,,,,,,,,,,,,
,,,,,,,,,,,,l,1.172,Correct!,0,6,6,47,1,t4.png,t2.png,2,0.059078,20,female ,2020-09-06_17h48.12.976,torte-2b,2020.1.3,MacIntel,60,13259,,,,,,,,,,,,,,,,,,,,,,,,,,,,,,,,,,,,,,,,,,,,,,,,,,,,,,,,,,,,,,,,,
,,,,,,,,,,,,a,1.417,Correct!,0,7,7,16,1,t5.png,t4.png,1,0.9,20,female ,2020-09-06_17h48.12.976,torte-2b,2020.1.3,MacIntel,60,13259,,,,,,,,,,,,,,,,,,,,,,,,,,,,,,,,,,,,,,,,,,,,,,,,,,,,,,,,,,,,,,,,,
,,,,,,,,,,,,l,0.654,Incorrect,0,8,8,28,1,t2.png,t3.png,1,0.909,20,female ,2020-09-06_17h48.12.976,torte-2b,2020.1.3,MacIntel,60,13259,,,,,,,,,,,,,,,,,,,,,,,,,,,,,,,,,,,,,,,,,,,,,,,,,,,,,,,,,,,,,,,,,
,,,,,,,,,,,,a,1.114,Correct!,0,9,9,100,1,t4.png,t5.png,1,0.90025,20,female ,2020-09-06_17h48.12.976,torte-2b,2020.1.3,MacIntel,60,13259,,,,,,,,,,,,,,,,,,,,,,,,,,,,,,,,,,,,,,,,,,,,,,,,,,,,,,,,,,,,,,,,,
,,,,,,,,,,,,a,0.823,Correct!,0,10,10,101,1,t4.png,t5.png,1,0.90025,20,female ,2020-09-06_17h48.12.976,torte-2b,2020.1.3,MacIntel,60,13259,,,,,,,,,,,,,,,,,,,,,,,,,,,,,,,,,,,,,,,,,,,,,,,,,,,,,,,,,,,,,,,,,
,,,,,,,,,,,,l,0.9,Correct!,0,11,11,43,1,t4.png,t2.png,2,0.059078,20,female ,2020-09-06_17h48.12.976,torte-2b,2020.1.3,MacIntel,60,13259,,,,,,,,,,,,,,,,,,,,,,,,,,,,,,,,,,,,,,,,,,,,,,,,,,,,,,,,,,,,,,,,,
,,,,,,,,,,,,a,0.632,Incorrect,0,12,12,71,1,t5.png,t5.png,0,0.97829,20,female ,2020-09-06_17h48.12.976,torte-2b,2020.1.3,MacIntel,60,13259,,,,,,,,,,,,,,,,,,,,,,,,,,,,,,,,,,,,,,,,,,,,,,,,,,,,,,,,,,,,,,,,,
,,,,,,,,,,,,l,0.65,Incorrect,0,13,13,112,1,t1.png,t1.png,0,0.97829,20,female ,2020-09-06_17h48.12.976,torte-2b,2020.1.3,MacIntel,60,13259,,,,,,,,,,,,,,,,,,,,,,,,,,,,,,,,,,,,,,,,,,,,,,,,,,,,,,,,,,,,,,,,,
,,,,,,,,,,,,a,0.582,Correct!,0,14,14,65,1,t4.png,t5.png,1,0.90025,20,female ,2020-09-06_17h48.12.976,torte-2b,2020.1.3,MacIntel,60,13259,,,,,,,,,,,,,,,,,,,,,,,,,,,,,,,,,,,,,,,,,,,,,,,,,,,,,,,,,,,,,,,,,
,,,,,,,,,,,,l,0.622,Correct!,0,15,15,31,1,t1.png,t5.png,4,9.55E-11,20,female ,2020-09-06_17h48.12.976,torte-2b,2020.1.3,MacIntel,60,13259,,,,,,,,,,,,,,,,,,,,,,,,,,,,,,,,,,,,,,,,,,,,,,,,,,,,,,,,,,,,,,,,,
,,,,,,,,,,,,a,0.349,Correct!,0,16,16,63,1,t2.png,t3.png,1,0.909,20,female ,2020-09-06_17h48.12.976,torte-2b,2020.1.3,MacIntel,60,13259,,,,,,,,,,,,,,,,,,,,,,,,,,,,,,,,,,,,,,,,,,,,,,,,,,,,,,,,,,,,,,,,,
,,,,,,,,,,,,a,0.531,Correct!,0,17,17,116,1,t5.png,t4.png,1,0.90025,20,female ,2020-09-06_17h48.12.976,torte-2b,2020.1.3,MacIntel,60,13259,,,,,,,,,,,,,,,,,,,,,,,,,,,,,,,,,,,,,,,,,,,,,,,,,,,,,,,,,,,,,,,,,
,,,,,,,,,,,,l,0.716,Correct!,0,18,18,82,1,t5.png,t1.png,4,9.55E-11,20,female ,2020-09-06_17h48.12.976,torte-2b,2020.1.3,MacIntel,60,13259,,,,,,,,,,,,,,,,,,,,,,,,,,,,,,,,,,,,,,,,,,,,,,,,,,,,,,,,,,,,,,,,,
,,,,,,,,,,,,l,0.539,Correct!,0,19,19,87,1,t5.png,t1.png,4,9.55E-11,20,female ,2020-09-06_17h48.12.976,torte-2b,2020.1.3,MacIntel,60,13259,,,,,,,,,,,,,,,,,,,,,,,,,,,,,,,,,,,,,,,,,,,,,,,,,,,,,,,,,,,,,,,,,
,,,,,,,,,,,,l,0.499,Incorrect,0,20,20,92,1,t2.png,t3.png,1,0.909,20,female ,2020-09-06_17h48.12.976,torte-2b,2020.1.3,MacIntel,60,13259,,,,,,,,,,,,,,,,,,,,,,,,,,,,,,,,,,,,,,,,,,,,,,,,,,,,,,,,,,,,,,,,,
,,,,,,,,,,,,l,1.122,Correct!,0,21,21,88,1,t3.png,t1.png,2,0.056466,20,female ,2020-09-06_17h48.12.976,torte-2b,2020.1.3,MacIntel,60,13259,,,,,,,,,,,,,,,,,,,,,,,,,,,,,,,,,,,,,,,,,,,,,,,,,,,,,,,,,,,,,,,,,
,,,,,,,,,,,,a,0.765,Incorrect,0,22,22,11,1,t1.png,t4.png,3,0.0000131,20,female ,2020-09-06_17h48.12.976,torte-2b,2020.1.3,MacIntel,60,13259,,,,,,,,,,,,,,,,,,,,,,,,,,,,,,,,,,,,,,,,,,,,,,,,,,,,,,,,,,,,,,,,,
,,,,,,,,,,,,a,0.92,Correct!,0,23,23,110,1,t4.png,t5.png,1,0.90025,20,female ,2020-09-06_17h48.12.976,torte-2b,2020.1.3,MacIntel,60,13259,,,,,,,,,,,,,,,,,,,,,,,,,,,,,,,,,,,,,,,,,,,,,,,,,,,,,,,,,,,,,,,,,
,,,,,,,,,,,,l,0.616,Incorrect,0,24,24,84,1,t1.png,t1.png,0,0.97829,20,female ,2020-09-06_17h48.12.976,torte-2b,2020.1.3,MacIntel,60,13259,,,,,,,,,,,,,,,,,,,,,,,,,,,,,,,,,,,,,,,,,,,,,,,,,,,,,,,,,,,,,,,,,
,,,,,,,,,,,,a,0.6,Correct!,0,25,25,97,1,t5.png,t5.png,0,0.97829,20,female ,2020-09-06_17h48.12.976,torte-2b,2020.1.3,MacIntel,60,13259,,,,,,,,,,,,,,,,,,,,,,,,,,,,,,,,,,,,,,,,,,,,,,,,,,,,,,,,,,,,,,,,,
,,,,,,,,,,,,l,0.916,Correct!,0,26,26,98,1,t2.png,t4.png,2,0.0591,20,female ,2020-09-06_17h48.12.976,torte-2b,2020.1.3,MacIntel,60,13259,,,,,,,,,,,,,,,,,,,,,,,,,,,,,,,,,,,,,,,,,,,,,,,,,,,,,,,,,,,,,,,,,
,,,,,,,,,,,,,,Too slow :(,0,27,27,67,1,t1.png,t5.png,4,9.55E-11,20,female ,2020-09-06_17h48.12.976,torte-2b,2020.1.3,MacIntel,60,13259,,,,,,,,,,,,,,,,,,,,,,,,,,,,,,,,,,,,,,,,,,,,,,,,,,,,,,,,,,,,,,,,,
,,,,,,,,,,,,,,Too slow :(,0,28,28,48,1,t5.png,t5.png,0,0.97829,20,female ,2020-09-06_17h48.12.976,torte-2b,2020.1.3,MacIntel,60,13259,,,,,,,,,,,,,,,,,,,,,,,,,,,,,,,,,,,,,,,,,,,,,,,,,,,,,,,,,,,,,,,,,
,,,,,,,,,,,,,,Too slow :(,0,29,29,56,1,t5.png,t1.png,4,9.55E-11,20,female ,2020-09-06_17h48.12.976,torte-2b,2020.1.3,MacIntel,60,13259,,,,,,,,,,,,,,,,,,,,,,,,,,,,,,,,,,,,,,,,,,,,,,,,,,,,,,,,,,,,,,,,,
,,,,,,,,,,,,,,Too slow :(,0,30,30,117,1,t1.png,t5.png,4,9.55E-11,20,female ,2020-09-06_17h48.12.976,torte-2b,2020.1.3,MacIntel,60,13259,,,,,,,,,,,,,,,,,,,,,,,,,,,,,,,,,,,,,,,,,,,,,,,,,,,,,,,,,,,,,,,,,
,,,,,,,,,,,,l,0.699,Incorrect,0,31,31,118,1,t5.png,t5.png,0,0.978,20,female ,2020-09-06_17h48.12.976,torte-2b,2020.1.3,MacIntel,60,13259,,,,,,,,,,,,,,,,,,,,,,,,,,,,,,,,,,,,,,,,,,,,,,,,,,,,,,,,,,,,,,,,,
,,,,,,,,,,,,a,1.127,Incorrect,0,32,32,23,1,t5.png,t4.png,1,0.90025,20,female ,2020-09-06_17h48.12.976,torte-2b,2020.1.3,MacIntel,60,13259,,,,,,,,,,,,,,,,,,,,,,,,,,,,,,,,,,,,,,,,,,,,,,,,,,,,,,,,,,,,,,,,,
,,,,,,,,,,,,l,0.852,Correct!,0,33,33,46,1,t4.png,t2.png,2,0.059078,20,female ,2020-09-06_17h48.12.976,torte-2b,2020.1.3,MacIntel,60,13259,,,,,,,,,,,,,,,,,,,,,,,,,,,,,,,,,,,,,,,,,,,,,,,,,,,,,,,,,,,,,,,,,
,,,,,,,,,,,,l,0.918,Incorrect,0,34,34,62,1,t5.png,t5.png,0,0.978,20,female ,2020-09-06_17h48.12.976,torte-2b,2020.1.3,MacIntel,60,13259,,,,,,,,,,,,,,,,,,,,,,,,,,,,,,,,,,,,,,,,,,,,,,,,,,,,,,,,,,,,,,,,,
,,,,,,,,,,,,l,0.866,Incorrect,0,35,35,70,1,t5.png,t5.png,0,0.978,20,female ,2020-09-06_17h48.12.976,torte-2b,2020.1.3,MacIntel,60,13259,,,,,,,,,,,,,,,,,,,,,,,,,,,,,,,,,,,,,,,,,,,,,,,,,,,,,,,,,,,,,,,,,
,,,,,,,,,,,,a,0.981,Incorrect,0,36,36,51,1,t3.png,t1.png,2,0.056466,20,female ,2020-09-06_17h48.12.976,torte-2b,2020.1.3,MacIntel,60,13259,,,,,,,,,,,,,,,,,,,,,,,,,,,,,,,,,,,,,,,,,,,,,,,,,,,,,,,,,,,,,,,,,
,,,,,,,,,,,,a,1.037,Incorrect,0,37,37,115,1,t2.png,t4.png,2,0.059078,20,female ,2020-09-06_17h48.12.976,torte-2b,2020.1.3,MacIntel,60,13259,,,,,,,,,,,,,,,,,,,,,,,,,,,,,,,,,,,,,,,,,,,,,,,,,,,,,,,,,,,,,,,,,
,,,,,,,,,,,,l,1.383,Incorrect,0,38,38,85,1,t3.png,t2.png,1,0.90855,20,female ,2020-09-06_17h48.12.976,torte-2b,2020.1.3,MacIntel,60,13259,,,,,,,,,,,,,,,,,,,,,,,,,,,,,,,,,,,,,,,,,,,,,,,,,,,,,,,,,,,,,,,,,
,,,,,,,,,,,,l,2.216,Incorrect,0,39,39,79,1,t3.png,t2.png,1,0.909,20,female ,2020-09-06_17h48.12.976,torte-2b,2020.1.3,MacIntel,60,13259,,,,,,,,,,,,,,,,,,,,,,,,,,,,,,,,,,,,,,,,,,,,,,,,,,,,,,,,,,,,,,,,,
,,,,,,,,,,,,l,1.084,Correct!,0,40,40,103,1,t3.png,t1.png,2,0.056466,20,female ,2020-09-06_17h48.12.976,torte-2b,2020.1.3,MacIntel,60,13259,,,,,,,,,,,,,,,,,,,,,,,,,,,,,,,,,,,,,,,,,,,,,,,,,,,,,,,,,,,,,,,,,
,,,,,,,,,,,,a,0.884,Incorrect,0,41,41,40,1,t1.png,t5.png,4,9.55E-11,20,female ,2020-09-06_17h48.12.976,torte-2b,2020.1.3,MacIntel,60,13259,,,,,,,,,,,,,,,,,,,,,,,,,,,,,,,,,,,,,,,,,,,,,,,,,,,,,,,,,,,,,,,,,
,,,,,,,,,,,,a,1.2,Incorrect,0,42,42,89,1,t1.png,t4.png,3,0.0000131,20,female ,2020-09-06_17h48.12.976,torte-2b,2020.1.3,MacIntel,60,13259,,,,,,,,,,,,,,,,,,,,,,,,,,,,,,,,,,,,,,,,,,,,,,,,,,,,,,,,,,,,,,,,,
,,,,,,,,,,,,l,0.815,Incorrect,0,43,43,96,1,t1.png,t1.png,0,0.97829,20,female ,2020-09-06_17h48.12.976,torte-2b,2020.1.3,MacIntel,60,13259,,,,,,,,,,,,,,,,,,,,,,,,,,,,,,,,,,,,,,,,,,,,,,,,,,,,,,,,,,,,,,,,,
,,,,,,,,,,,,a,0.967,Incorrect,0,44,44,119,1,t1.png,t5.png,4,9.55E-11,20,female ,2020-09-06_17h48.12.976,torte-2b,2020.1.3,MacIntel,60,13259,,,,,,,,,,,,,,,,,,,,,,,,,,,,,,,,,,,,,,,,,,,,,,,,,,,,,,,,,,,,,,,,,
,,,,,,,,,,,,l,1.638,Correct!,0,45,45,55,1,t2.png,t4.png,2,0.059078,20,female ,2020-09-06_17h48.12.976,torte-2b,2020.1.3,MacIntel,60,13259,,,,,,,,,,,,,,,,,,,,,,,,,,,,,,,,,,,,,,,,,,,,,,,,,,,,,,,,,,,,,,,,,
,,,,,,,,,,,,,,Too slow :(,0,46,46,3,1,t1.png,t5.png,4,9.55E-11,20,female ,2020-09-06_17h48.12.976,torte-2b,2020.1.3,MacIntel,60,13259,,,,,,,,,,,,,,,,,,,,,,,,,,,,,,,,,,,,,,,,,,,,,,,,,,,,,,,,,,,,,,,,,
,,,,,,,,,,,,a,0.884,Incorrect,0,47,47,26,1,t4.png,t2.png,2,0.0591,20,female ,2020-09-06_17h48.12.976,torte-2b,2020.1.3,MacIntel,60,13259,,,,,,,,,,,,,,,,,,,,,,,,,,,,,,,,,,,,,,,,,,,,,,,,,,,,,,,,,,,,,,,,,
,,,,,,,,,,,,l,0.723,Incorrect,0,48,48,21,1,t5.png,t4.png,1,0.90025,20,female ,2020-09-06_17h48.12.976,torte-2b,2020.1.3,MacIntel,60,13259,,,,,,,,,,,,,,,,,,,,,,,,,,,,,,,,,,,,,,,,,,,,,,,,,,,,,,,,,,,,,,,,,
,,,,,,,,,,,,l,1.109,Incorrect,0,49,49,7,1,t4.png,t5.png,1,0.90025,20,female ,2020-09-06_17h48.12.976,torte-2b,2020.1.3,MacIntel,60,13259,,,,,,,,,,,,,,,,,,,,,,,,,,,,,,,,,,,,,,,,,,,,,,,,,,,,,,,,,,,,,,,,,
,,,,,,,,,,,,l,0.783,Correct!,0,50,50,0,1,t5.png,t1.png,4,9.55E-11,20,female ,2020-09-06_17h48.12.976,torte-2b,2020.1.3,MacIntel,60,13259,,,,,,,,,,,,,,,,,,,,,,,,,,,,,,,,,,,,,,,,,,,,,,,,,,,,,,,,,,,,,,,,,
,,,,,,,,,,,,a,0.784,Correct!,0,51,51,113,1,t5.png,t4.png,1,0.9,20,female ,2020-09-06_17h48.12.976,torte-2b,2020.1.3,MacIntel,60,13259,,,,,,,,,,,,,,,,,,,,,,,,,,,,,,,,,,,,,,,,,,,,,,,,,,,,,,,,,,,,,,,,,
,,,,,,,,,,,,l,0.871,Correct!,0,52,52,57,1,t2.png,t4.png,2,0.059078,20,female ,2020-09-06_17h48.12.976,torte-2b,2020.1.3,MacIntel,60,13259,,,,,,,,,,,,,,,,,,,,,,,,,,,,,,,,,,,,,,,,,,,,,,,,,,,,,,,,,,,,,,,,,
,,,,,,,,,,,,a,0.717,Correct!,0,53,53,59,1,t5.png,t4.png,1,0.9,20,female ,2020-09-06_17h48.12.976,torte-2b,2020.1.3,MacIntel,60,13259,,,,,,,,,,,,,,,,,,,,,,,,,,,,,,,,,,,,,,,,,,,,,,,,,,,,,,,,,,,,,,,,,
,,,,,,,,,,,,a,1.034,Correct!,0,54,54,78,1,t1.png,t1.png,0,0.978,20,female ,2020-09-06_17h48.12.976,torte-2b,2020.1.3,MacIntel,60,13259,,,,,,,,,,,,,,,,,,,,,,,,,,,,,,,,,,,,,,,,,,,,,,,,,,,,,,,,,,,,,,,,,
,,,,,,,,,,,,l,0.839,Correct!,0,55,55,80,1,t1.png,t4.png,3,0.0000131,20,female ,2020-09-06_17h48.12.976,torte-2b,2020.1.3,MacIntel,60,13259,,,,,,,,,,,,,,,,,,,,,,,,,,,,,,,,,,,,,,,,,,,,,,,,,,,,,,,,,,,,,,,,,
,,,,,,,,,,,,a,0.466,Correct!,0,56,56,25,1,t5.png,t5.png,0,0.97829,20,female ,2020-09-06_17h48.12.976,torte-2b,2020.1.3,MacIntel,60,13259,,,,,,,,,,,,,,,,,,,,,,,,,,,,,,,,,,,,,,,,,,,,,,,,,,,,,,,,,,,,,,,,,
,,,,,,,,,,,,a,0.773,Incorrect,0,57,57,35,1,t1.png,t4.png,3,0.0000131,20,female ,2020-09-06_17h48.12.976,torte-2b,2020.1.3,MacIntel,60,13259,,,,,,,,,,,,,,,,,,,,,,,,,,,,,,,,,,,,,,,,,,,,,,,,,,,,,,,,,,,,,,,,,
,,,,,,,,,,,,l,0.721,Correct!,0,58,58,90,1,t1.png,t5.png,4,9.55E-11,20,female ,2020-09-06_17h48.12.976,torte-2b,2020.1.3,MacIntel,60,13259,,,,,,,,,,,,,,,,,,,,,,,,,,,,,,,,,,,,,,,,,,,,,,,,,,,,,,,,,,,,,,,,,
,,,,,,,,,,,,a,0.735,Incorrect,0,59,59,27,1,t3.png,t1.png,2,0.0565,20,female ,2020-09-06_17h48.12.976,torte-2b,2020.1.3,MacIntel,60,13259,,,,,,,,,,,,,,,,,,,,,,,,,,,,,,,,,,,,,,,,,,,,,,,,,,,,,,,,,,,,,,,,,
,,,,,,,,,,,,a,0.899,Correct!,0,60,60,66,1,t4.png,t5.png,1,0.9,20,female ,2020-09-06_17h48.12.976,torte-2b,2020.1.3,MacIntel,60,13259,,,,,,,,,,,,,,,,,,,,,,,,,,,,,,,,,,,,,,,,,,,,,,,,,,,,,,,,,,,,,,,,,
,,,,,,,,,,,,l,1.224,Incorrect,0,61,61,114,1,t2.png,t3.png,1,0.90855,20,female ,2020-09-06_17h48.12.976,torte-2b,2020.1.3,MacIntel,60,13259,,,,,,,,,,,,,,,,,,,,,,,,,,,,,,,,,,,,,,,,,,,,,,,,,,,,,,,,,,,,,,,,,
,,,,,,,,,,,,a,0.601,Incorrect,0,62,62,8,1,t3.png,t2.png,1,0.90855,20,female ,2020-09-06_17h48.12.976,torte-2b,2020.1.3,MacIntel,60,13259,,,,,,,,,,,,,,,,,,,,,,,,,,,,,,,,,,,,,,,,,,,,,,,,,,,,,,,,,,,,,,,,,
,,,,,,,,,,,,a,1.131,Incorrect,0,63,63,72,1,t4.png,t2.png,2,0.059078,20,female ,2020-09-06_17h48.12.976,torte-2b,2020.1.3,MacIntel,60,13259,,,,,,,,,,,,,,,,,,,,,,,,,,,,,,,,,,,,,,,,,,,,,,,,,,,,,,,,,,,,,,,,,
,,,,,,,,,,,,l,0.537,Correct!,0,64,64,37,1,t1.png,t4.png,3,0.0000131,20,female ,2020-09-06_17h48.12.976,torte-2b,2020.1.3,MacIntel,60,13259,,,,,,,,,,,,,,,,,,,,,,,,,,,,,,,,,,,,,,,,,,,,,,,,,,,,,,,,,,,,,,,,,
,,,,,,,,,,,,l,0.656,Incorrect,0,65,65,9,1,t4.png,t5.png,1,0.9,20,female ,2020-09-06_17h48.12.976,torte-2b,2020.1.3,MacIntel,60,13259,,,,,,,,,,,,,,,,,,,,,,,,,,,,,,,,,,,,,,,,,,,,,,,,,,,,,,,,,,,,,,,,,
,,,,,,,,,,,,l,0.542,Incorrect,0,66,66,29,1,t5.png,t5.png,0,0.97829,20,female ,2020-09-06_17h48.12.976,torte-2b,2020.1.3,MacIntel,60,13259,,,,,,,,,,,,,,,,,,,,,,,,,,,,,,,,,,,,,,,,,,,,,,,,,,,,,,,,,,,,,,,,,
,,,,,,,,,,,,a,1.233,Correct!,0,67,67,2,1,t3.png,t2.png,1,0.90855,20,female ,2020-09-06_17h48.12.976,torte-2b,2020.1.3,MacIntel,60,13259,,,,,,,,,,,,,,,,,,,,,,,,,,,,,,,,,,,,,,,,,,,,,,,,,,,,,,,,,,,,,,,,,
,,,,,,,,,,,,a,0.7,Correct!,0,68,68,39,1,t3.png,t2.png,1,0.90855,20,female ,2020-09-06_17h48.12.976,torte-2b,2020.1.3,MacIntel,60,13259,,,,,,,,,,,,,,,,,,,,,,,,,,,,,,,,,,,,,,,,,,,,,,,,,,,,,,,,,,,,,,,,,
,,,,,,,,,,,,a,0.619,Incorrect,0,69,69,24,1,t4.png,t2.png,2,0.059078,20,female ,2020-09-06_17h48.12.976,torte-2b,2020.1.3,MacIntel,60,13259,,,,,,,,,,,,,,,,,,,,,,,,,,,,,,,,,,,,,,,,,,,,,,,,,,,,,,,,,,,,,,,,,
,,,,,,,,,,,,l,0.785,Correct!,0,70,70,6,1,t1.png,t4.png,3,0.0000131,20,female ,2020-09-06_17h48.12.976,torte-2b,2020.1.3,MacIntel,60,13259,,,,,,,,,,,,,,,,,,,,,,,,,,,,,,,,,,,,,,,,,,,,,,,,,,,,,,,,,,,,,,,,,
,,,,,,,,,,,,l,0.571,Correct!,0,71,71,83,1,t3.png,t1.png,2,0.056466,20,female ,2020-09-06_17h48.12.976,torte-2b,2020.1.3,MacIntel,60,13259,,,,,,,,,,,,,,,,,,,,,,,,,,,,,,,,,,,,,,,,,,,,,,,,,,,,,,,,,,,,,,,,,
,,,,,,,,,,,,a,0.655,Incorrect,0,72,72,69,1,t4.png,t2.png,2,0.059078,20,female ,2020-09-06_17h48.12.976,torte-2b,2020.1.3,MacIntel,60,13259,,,,,,,,,,,,,,,,,,,,,,,,,,,,,,,,,,,,,,,,,,,,,,,,,,,,,,,,,,,,,,,,,
,,,,,,,,,,,,l,0.65,Correct!,0,73,73,53,1,t3.png,t1.png,2,0.056466,20,female ,2020-09-06_17h48.12.976,torte-2b,2020.1.3,MacIntel,60,13259,,,,,,,,,,,,,,,,,,,,,,,,,,,,,,,,,,,,,,,,,,,,,,,,,,,,,,,,,,,,,,,,,
,,,,,,,,,,,,l,0.684,Incorrect,0,74,74,75,1,t1.png,t1.png,0,0.97829,20,female ,2020-09-06_17h48.12.976,torte-2b,2020.1.3,MacIntel,60,13259,,,,,,,,,,,,,,,,,,,,,,,,,,,,,,,,,,,,,,,,,,,,,,,,,,,,,,,,,,,,,,,,,
,,,,,,,,,,,,a,0.665,Correct!,0,75,75,105,1,t3.png,t2.png,1,0.90855,20,female ,2020-09-06_17h48.12.976,torte-2b,2020.1.3,MacIntel,60,13259,,,,,,,,,,,,,,,,,,,,,,,,,,,,,,,,,,,,,,,,,,,,,,,,,,,,,,,,,,,,,,,,,
,,,,,,,,,,,,a,1.558,Incorrect,0,76,76,1,1,t2.png,t4.png,2,0.059078,20,female ,2020-09-06_17h48.12.976,torte-2b,2020.1.3,MacIntel,60,13259,,,,,,,,,,,,,,,,,,,,,,,,,,,,,,,,,,,,,,,,,,,,,,,,,,,,,,,,,,,,,,,,,
,,,,,,,,,,,,l,1.641,Correct!,0,77,77,86,1,t3.png,t1.png,2,0.056466,20,female ,2020-09-06_17h48.12.976,torte-2b,2020.1.3,MacIntel,60,13259,,,,,,,,,,,,,,,,,,,,,,,,,,,,,,,,,,,,,,,,,,,,,,,,,,,,,,,,,,,,,,,,,
,,,,,,,,,,,,a,0.755,Correct!,0,78,78,109,1,t5.png,t5.png,0,0.97829,20,female ,2020-09-06_17h48.12.976,torte-2b,2020.1.3,MacIntel,60,13259,,,,,,,,,,,,,,,,,,,,,,,,,,,,,,,,,,,,,,,,,,,,,,,,,,,,,,,,,,,,,,,,,
,,,,,,,,,,,,a,1.258,Correct!,0,79,79,45,1,t3.png,t2.png,1,0.90855,20,female ,2020-09-06_17h48.12.976,torte-2b,2020.1.3,MacIntel,60,13259,,,,,,,,,,,,,,,,,,,,,,,,,,,,,,,,,,,,,,,,,,,,,,,,,,,,,,,,,,,,,,,,,
,,,,,,,,,,,,a,0.624,Correct!,0,80,80,58,1,t5.png,t4.png,1,0.90025,20,female ,2020-09-06_17h48.12.976,torte-2b,2020.1.3,MacIntel,60,13259,,,,,,,,,,,,,,,,,,,,,,,,,,,,,,,,,,,,,,,,,,,,,,,,,,,,,,,,,,,,,,,,,
,,,,,,,,,,,,l,0.567,Incorrect,0,81,81,15,1,t3.png,t2.png,1,0.90855,20,female ,2020-09-06_17h48.12.976,torte-2b,2020.1.3,MacIntel,60,13259,,,,,,,,,,,,,,,,,,,,,,,,,,,,,,,,,,,,,,,,,,,,,,,,,,,,,,,,,,,,,,,,,
,,,,,,,,,,,,l,0.65,Correct!,0,82,82,17,1,t1.png,t4.png,3,0.0000131,20,female ,2020-09-06_17h48.12.976,torte-2b,2020.1.3,MacIntel,60,13259,,,,,,,,,,,,,,,,,,,,,,,,,,,,,,,,,,,,,,,,,,,,,,,,,,,,,,,,,,,,,,,,,
,,,,,,,,,,,,a,1.355,Correct!,0,83,83,106,1,t2.png,t3.png,1,0.90855,20,female ,2020-09-06_17h48.12.976,torte-2b,2020.1.3,MacIntel,60,13259,,,,,,,,,,,,,,,,,,,,,,,,,,,,,,,,,,,,,,,,,,,,,,,,,,,,,,,,,,,,,,,,,
,,,,,,,,,,,,a,1.034,Correct!,0,84,84,34,1,t5.png,t4.png,1,0.9,20,female ,2020-09-06_17h48.12.976,torte-2b,2020.1.3,MacIntel,60,13259,,,,,,,,,,,,,,,,,,,,,,,,,,,,,,,,,,,,,,,,,,,,,,,,,,,,,,,,,,,,,,,,,
,,,,,,,,,,,,l,1.403,Correct!,0,85,85,108,1,t5.png,t1.png,4,9.55E-11,20,female ,2020-09-06_17h48.12.976,torte-2b,2020.1.3,MacIntel,60,13259,,,,,,,,,,,,,,,,,,,,,,,,,,,,,,,,,,,,,,,,,,,,,,,,,,,,,,,,,,,,,,,,,
,,,,,,,,,,,,l,1.389,Correct!,0,86,86,93,1,t2.png,t4.png,2,0.059078,20,female ,2020-09-06_17h48.12.976,torte-2b,2020.1.3,MacIntel,60,13259,,,,,,,,,,,,,,,,,,,,,,,,,,,,,,,,,,,,,,,,,,,,,,,,,,,,,,,,,,,,,,,,,
,,,,,,,,,,,,a,0.608,Incorrect,0,87,87,68,1,t1.png,t4.png,3,0.0000131,20,female ,2020-09-06_17h48.12.976,torte-2b,2020.1.3,MacIntel,60,13259,,,,,,,,,,,,,,,,,,,,,,,,,,,,,,,,,,,,,,,,,,,,,,,,,,,,,,,,,,,,,,,,,
,,,,,,,,,,,,a,0.8,Incorrect,0,88,88,91,1,t1.png,t4.png,3,0.0000131,20,female ,2020-09-06_17h48.12.976,torte-2b,2020.1.3,MacIntel,60,13259,,,,,,,,,,,,,,,,,,,,,,,,,,,,,,,,,,,,,,,,,,,,,,,,,,,,,,,,,,,,,,,,,
,,,,,,,,,,,,a,0.729,Correct!,0,89,89,49,1,t4.png,t5.png,1,0.9,20,female ,2020-09-06_17h48.12.976,torte-2b,2020.1.3,MacIntel,60,13259,,,,,,,,,,,,,,,,,,,,,,,,,,,,,,,,,,,,,,,,,,,,,,,,,,,,,,,,,,,,,,,,,
,,,,,,,,,,,,l,1.825,Incorrect,0,90,90,95,1,t1.png,t1.png,0,0.978,20,female ,2020-09-06_17h48.12.976,torte-2b,2020.1.3,MacIntel,60,13259,,,,,,,,,,,,,,,,,,,,,,,,,,,,,,,,,,,,,,,,,,,,,,,,,,,,,,,,,,,,,,,,,
,,,,,,,,,,,,l,1.402,Correct!,0,91,91,50,1,t5.png,t1.png,4,9.55E-11,20,female ,2020-09-06_17h48.12.976,torte-2b,2020.1.3,MacIntel,60,13259,,,,,,,,,,,,,,,,,,,,,,,,,,,,,,,,,,,,,,,,,,,,,,,,,,,,,,,,,,,,,,,,,
,,,,,,,,,,,,a,0.916,Incorrect,0,92,92,111,1,t5.png,t1.png,4,9.55E-11,20,female ,2020-09-06_17h48.12.976,torte-2b,2020.1.3,MacIntel,60,13259,,,,,,,,,,,,,,,,,,,,,,,,,,,,,,,,,,,,,,,,,,,,,,,,,,,,,,,,,,,,,,,,,
,,,,,,,,,,,,l,1.11,Incorrect,0,93,93,76,1,t3.png,t2.png,1,0.90855,20,female ,2020-09-06_17h48.12.976,torte-2b,2020.1.3,MacIntel,60,13259,,,,,,,,,,,,,,,,,,,,,,,,,,,,,,,,,,,,,,,,,,,,,,,,,,,,,,,,,,,,,,,,,
,,,,,,,,,,,,l,0.903,Correct!,0,94,94,94,1,t5.png,t1.png,4,9.55E-11,20,female ,2020-09-06_17h48.12.976,torte-2b,2020.1.3,MacIntel,60,13259,,,,,,,,,,,,,,,,,,,,,,,,,,,,,,,,,,,,,,,,,,,,,,,,,,,,,,,,,,,,,,,,,
,,,,,,,,,,,,,,Too slow :(,0,95,95,60,1,t2.png,t4.png,2,0.059078,20,female ,2020-09-06_17h48.12.976,torte-2b,2020.1.3,MacIntel,60,13259,,,,,,,,,,,,,,,,,,,,,,,,,,,,,,,,,,,,,,,,,,,,,,,,,,,,,,,,,,,,,,,,,
,,,,,,,,,,,,a,1.017,Correct!,0,96,96,81,1,t1.png,t1.png,0,0.97829,20,female ,2020-09-06_17h48.12.976,torte-2b,2020.1.3,MacIntel,60,13259,,,,,,,,,,,,,,,,,,,,,,,,,,,,,,,,,,,,,,,,,,,,,,,,,,,,,,,,,,,,,,,,,
,,,,,,,,,,,,a,0.652,Correct!,0,97,97,74,1,t5.png,t4.png,1,0.9,20,female ,2020-09-06_17h48.12.976,torte-2b,2020.1.3,MacIntel,60,13259,,,,,,,,,,,,,,,,,,,,,,,,,,,,,,,,,,,,,,,,,,,,,,,,,,,,,,,,,,,,,,,,,
,,,,,,,,,,,,a,0.919,Correct!,0,98,98,10,1,t2.png,t3.png,1,0.90855,20,female ,2020-09-06_17h48.12.976,torte-2b,2020.1.3,MacIntel,60,13259,,,,,,,,,,,,,,,,,,,,,,,,,,,,,,,,,,,,,,,,,,,,,,,,,,,,,,,,,,,,,,,,,
,,,,,,,,,,,,l,0.737,Correct!,0,99,99,52,1,t2.png,t4.png,2,0.059078,20,female ,2020-09-06_17h48.12.976,torte-2b,2020.1.3,MacIntel,60,13259,,,,,,,,,,,,,,,,,,,,,,,,,,,,,,,,,,,,,,,,,,,,,,,,,,,,,,,,,,,,,,,,,
,,,,,,,,,,,,l,0.636,Incorrect,0,100,100,20,1,t2.png,t3.png,1,0.90855,20,female ,2020-09-06_17h48.12.976,torte-2b,2020.1.3,MacIntel,60,13259,,,,,,,,,,,,,,,,,,,,,,,,,,,,,,,,,,,,,,,,,,,,,,,,,,,,,,,,,,,,,,,,,
,,,,,,,,,,,,l,0.823,Correct!,0,101,101,14,1,t2.png,t4.png,2,0.059078,20,female ,2020-09-06_17h48.12.976,torte-2b,2020.1.3,MacIntel,60,13259,,,,,,,,,,,,,,,,,,,,,,,,,,,,,,,,,,,,,,,,,,,,,,,,,,,,,,,,,,,,,,,,,
,,,,,,,,,,,,l,1.218,Correct!,0,102,102,61,1,t1.png,t4.png,3,0.0000131,20,female ,2020-09-06_17h48.12.976,torte-2b,2020.1.3,MacIntel,60,13259,,,,,,,,,,,,,,,,,,,,,,,,,,,,,,,,,,,,,,,,,,,,,,,,,,,,,,,,,,,,,,,,,
,,,,,,,,,,,,a,1.221,Incorrect,0,103,103,18,1,t4.png,t5.png,1,0.90025,20,female ,2020-09-06_17h48.12.976,torte-2b,2020.1.3,MacIntel,60,13259,,,,,,,,,,,,,,,,,,,,,,,,,,,,,,,,,,,,,,,,,,,,,,,,,,,,,,,,,,,,,,,,,
,,,,,,,,,,,,a,0.939,Incorrect,0,104,104,19,1,t4.png,t2.png,2,0.059078,20,female ,2020-09-06_17h48.12.976,torte-2b,2020.1.3,MacIntel,60,13259,,,,,,,,,,,,,,,,,,,,,,,,,,,,,,,,,,,,,,,,,,,,,,,,,,,,,,,,,,,,,,,,,
,,,,,,,,,,,,l,0.857,Correct!,0,105,105,104,1,t2.png,t3.png,1,0.90855,20,female ,2020-09-06_17h48.12.976,torte-2b,2020.1.3,MacIntel,60,13259,,,,,,,,,,,,,,,,,,,,,,,,,,,,,,,,,,,,,,,,,,,,,,,,,,,,,,,,,,,,,,,,,
,,,,,,,,,,,,l,2.315,Correct!,0,106,106,5,1,t2.png,t4.png,2,0.059078,20,female ,2020-09-06_17h48.12.976,torte-2b,2020.1.3,MacIntel,60,13259,,,,,,,,,,,,,,,,,,,,,,,,,,,,,,,,,,,,,,,,,,,,,,,,,,,,,,,,,,,,,,,,,
,,,,,,,,,,,,a,1.15,Correct!,0,107,107,22,1,t2.png,t3.png,1,0.90855,20,female ,2020-09-06_17h48.12.976,torte-2b,2020.1.3,MacIntel,60,13259,,,,,,,,,,,,,,,,,,,,,,,,,,,,,,,,,,,,,,,,,,,,,,,,,,,,,,,,,,,,,,,,,
,,,,,,,,,,,,a,0.788,Correct!,0,108,108,107,1,t1.png,t1.png,0,0.978,20,female ,2020-09-06_17h48.12.976,torte-2b,2020.1.3,MacIntel,60,13259,,,,,,,,,,,,,,,,,,,,,,,,,,,,,,,,,,,,,,,,,,,,,,,,,,,,,,,,,,,,,,,,,
,,,,,,,,,,,,l,0.731,Incorrect,0,109,109,13,1,t5.png,t5.png,0,0.97829,20,female ,2020-09-06_17h48.12.976,torte-2b,2020.1.3,MacIntel,60,13259,,,,,,,,,,,,,,,,,,,,,,,,,,,,,,,,,,,,,,,,,,,,,,,,,,,,,,,,,,,,,,,,,
,,,,,,,,,,,,l,0.37,Correct!,0,110,110,38,1,t3.png,t1.png,2,0.056466,20,female ,2020-09-06_17h48.12.976,torte-2b,2020.1.3,MacIntel,60,13259,,,,,,,,,,,,,,,,,,,,,,,,,,,,,,,,,,,,,,,,,,,,,,,,,,,,,,,,,,,,,,,,,
,,,,,,,,,,,,l,1.28,Incorrect,0,111,111,44,1,t2.png,t3.png,1,0.909,20,female ,2020-09-06_17h48.12.976,torte-2b,2020.1.3,MacIntel,60,13259,,,,,,,,,,,,,,,,,,,,,,,,,,,,,,,,,,,,,,,,,,,,,,,,,,,,,,,,,,,,,,,,,
,,,,,,,,,,,,a,1.019,Incorrect,0,112,112,36,1,t3.png,t1.png,2,0.0565,20,female ,2020-09-06_17h48.12.976,torte-2b,2020.1.3,MacIntel,60,13259,,,,,,,,,,,,,,,,,,,,,,,,,,,,,,,,,,,,,,,,,,,,,,,,,,,,,,,,,,,,,,,,,
,,,,,,,,,,,,a,0.665,Correct!,0,113,113,32,1,t4.png,t5.png,1,0.90025,20,female ,2020-09-06_17h48.12.976,torte-2b,2020.1.3,MacIntel,60,13259,,,,,,,,,,,,,,,,,,,,,,,,,,,,,,,,,,,,,,,,,,,,,,,,,,,,,,,,,,,,,,,,,
,,,,,,,,,,,,l,0.7,Correct!,0,114,114,33,1,t5.png,t1.png,4,9.55E-11,20,female ,2020-09-06_17h48.12.976,torte-2b,2020.1.3,MacIntel,60,13259,,,,,,,,,,,,,,,,,,,,,,,,,,,,,,,,,,,,,,,,,,,,,,,,,,,,,,,,,,,,,,,,,
,,,,,,,,,,,,a,1.166,Incorrect,0,115,115,4,1,t1.png,t5.png,4,9.55E-11,20,female ,2020-09-06_17h48.12.976,torte-2b,2020.1.3,MacIntel,60,13259,,,,,,,,,,,,,,,,,,,,,,,,,,,,,,,,,,,,,,,,,,,,,,,,,,,,,,,,,,,,,,,,,
,,,,,,,,,,,,l,0.833,Correct!,0,116,116,99,1,t1.png,t5.png,4,9.55E-11,20,female ,2020-09-06_17h48.12.976,torte-2b,2020.1.3,MacIntel,60,13259,,,,,,,,,,,,,,,,,,,,,,,,,,,,,,,,,,,,,,,,,,,,,,,,,,,,,,,,,,,,,,,,,
,,,,,,,,,,,,l,1.598,Correct!,0,117,117,54,1,t1.png,t5.png,4,9.55E-11,20,female ,2020-09-06_17h48.12.976,torte-2b,2020.1.3,MacIntel,60,13259,,,,,,,,,,,,,,,,,,,,,,,,,,,,,,,,,,,,,,,,,,,,,,,,,,,,,,,,,,,,,,,,,
,,,,,,,,,,,,a,1.002,Incorrect,0,118,118,30,1,t3.png,t1.png,2,0.056466,20,female ,2020-09-06_17h48.12.976,torte-2b,2020.1.3,MacIntel,60,13259,,,,,,,,,,,,,,,,,,,,,,,,,,,,,,,,,,,,,,,,,,,,,,,,,,,,,,,,,,,,,,,,,
,,,,,,,,,,,,a,1.207,Correct!,0,119,119,41,1,t3.png,t2.png,1,0.90855,20,female ,2020-09-06_17h48.12.976,torte-2b,2020.1.3,MacIntel,60,13259,,,,,,,,,,,,,,,,,,,,,,,,,,,,,,,,,,,,,,,,,,,,,,,,,,,,,,,,,,,,,,,,,
,,,,,,,,,,,,a,1.388,Correct!,,,,,,t1.png,t2.png,1,0.90025,20,female ,2020-09-06_17h48.12.976,torte-2b,2020.1.3,MacIntel,60,13259,space,2.306,space,3.589,0,0,0,105,1,,,,,,,,,,,,,,,,,,,,,,,,,,,,,,,,,,,,,,,,,,,,,,,,,,,,,,,,
,,,,,,,,,,,,l,2.191,Correct!,,,,,,t1.png,t4.png,3,0.0000131,20,female ,2020-09-06_17h48.12.976,torte-2b,2020.1.3,MacIntel,60,13259,,,,,0,1,1,107,1,,,,,,,,,,,,,,,,,,,,,,,,,,,,,,,,,,,,,,,,,,,,,,,,,,,,,,,,
,,,,,,,,,,,,a,1.004,Correct!,,,,,,t4.png,t5.png,1,0.90025,20,female ,2020-09-06_17h48.12.976,torte-2b,2020.1.3,MacIntel,60,13259,,,,,0,2,2,58,1,,,,,,,,,,,,,,,,,,,,,,,,,,,,,,,,,,,,,,,,,,,,,,,,,,,,,,,,
,,,,,,,,,,,,a,1.267,Correct!,,,,,,t2.png,t1.png,1,0.90025,20,female ,2020-09-06_17h48.12.976,torte-2b,2020.1.3,MacIntel,60,13259,,,,,0,3,3,5,1,,,,,,,,,,,,,,,,,,,,,,,,,,,,,,,,,,,,,,,,,,,,,,,,,,,,,,,,
,,,,,,,,,,,,a,1.521,Incorrect,,,,,,t1.png,t4.png,3,0.0000131,20,female ,2020-09-06_17h48.12.976,torte-2b,2020.1.3,MacIntel,60,13259,,,,,0,4,4,17,1,,,,,,,,,,,,,,,,,,,,,,,,,,,,,,,,,,,,,,,,,,,,,,,,,,,,,,,,
,,,,,,,,,,,,a,0.937,Correct!,,,,,,t5.png,t5.png,0,0.97829,20,female ,2020-09-06_17h48.12.976,torte-2b,2020.1.3,MacIntel,60,13259,,,,,0,5,5,70,1,,,,,,,,,,,,,,,,,,,,,,,,,,,,,,,,,,,,,,,,,,,,,,,,,,,,,,,,
,,,,,,,,,,,,l,0.888,Incorrect,,,,,,t2.png,t3.png,1,0.90855,20,female ,2020-09-06_17h48.12.976,torte-2b,2020.1.3,MacIntel,60,13259,,,,,0,6,6,10,1,,,,,,,,,,,,,,,,,,,,,,,,,,,,,,,,,,,,,,,,,,,,,,,,,,,,,,,,
,,,,,,,,,,,,l,1.29,Correct!,,,,,,t1.png,t4.png,3,0.0000131,20,female ,2020-09-06_17h48.12.976,torte-2b,2020.1.3,MacIntel,60,13259,,,,,0,7,7,92,1,,,,,,,,,,,,,,,,,,,,,,,,,,,,,,,,,,,,,,,,,,,,,,,,,,,,,,,,
,,,,,,,,,,,,l,0.799,Correct!,,,,,,t1.png,t4.png,3,0.0000131,20,female ,2020-09-06_17h48.12.976,torte-2b,2020.1.3,MacIntel,60,13259,,,,,0,8,8,50,1,,,,,,,,,,,,,,,,,,,,,,,,,,,,,,,,,,,,,,,,,,,,,,,,,,,,,,,,
,,,,,,,,,,,,a,0.939,Incorrect,,,,,,t4.png,t2.png,2,0.059078,20,female ,2020-09-06_17h48.12.976,torte-2b,2020.1.3,MacIntel,60,13259,,,,,0,9,9,110,1,,,,,,,,,,,,,,,,,,,,,,,,,,,,,,,,,,,,,,,,,,,,,,,,,,,,,,,,
,,,,,,,,,,,,a,1.151,Correct!,,,,,,t1.png,t2.png,1,0.90025,20,female ,2020-09-06_17h48.12.976,torte-2b,2020.1.3,MacIntel,60,13259,,,,,0,10,10,112,1,,,,,,,,,,,,,,,,,,,,,,,,,,,,,,,,,,,,,,,,,,,,,,,,,,,,,,,,
,,,,,,,,,,,,l,1.221,Correct!,,,,,,t2.png,t5.png,3,0.0000131,20,female ,2020-09-06_17h48.12.976,torte-2b,2020.1.3,MacIntel,60,13259,,,,,0,11,11,8,1,,,,,,,,,,,,,,,,,,,,,,,,,,,,,,,,,,,,,,,,,,,,,,,,,,,,,,,,
,,,,,,,,,,,,a,0.773,Incorrect,,,,,,t3.png,t1.png,2,0.056466,20,female ,2020-09-06_17h48.12.976,torte-2b,2020.1.3,MacIntel,60,13259,,,,,0,12,12,0,1,,,,,,,,,,,,,,,,,,,,,,,,,,,,,,,,,,,,,,,,,,,,,,,,,,,,,,,,
,,,,,,,,,,,,a,0.938,Correct!,,,,,,t4.png,t3.png,1,0.90855,20,female ,2020-09-06_17h48.12.976,torte-2b,2020.1.3,MacIntel,60,13259,,,,,0,13,13,75,1,,,,,,,,,,,,,,,,,,,,,,,,,,,,,,,,,,,,,,,,,,,,,,,,,,,,,,,,
,,,,,,,,,,,,a,0.716,Incorrect,,,,,,t4.png,t1.png,3,0.0000131,20,female ,2020-09-06_17h48.12.976,torte-2b,2020.1.3,MacIntel,60,13259,,,,,0,14,14,61,1,,,,,,,,,,,,,,,,,,,,,,,,,,,,,,,,,,,,,,,,,,,,,,,,,,,,,,,,
,,,,,,,,,,,,a,1.156,Incorrect,,,,,,t2.png,t4.png,2,0.059078,20,female ,2020-09-06_17h48.12.976,torte-2b,2020.1.3,MacIntel,60,13259,,,,,0,15,15,24,1,,,,,,,,,,,,,,,,,,,,,,,,,,,,,,,,,,,,,,,,,,,,,,,,,,,,,,,,
,,,,,,,,,,,,l,0.534,Correct!,,,,,,t4.png,t1.png,3,0.0000131,20,female ,2020-09-06_17h48.12.976,torte-2b,2020.1.3,MacIntel,60,13259,,,,,0,16,16,13,1,,,,,,,,,,,,,,,,,,,,,,,,,,,,,,,,,,,,,,,,,,,,,,,,,,,,,,,,
,,,,,,,,,,,,a,1.082,Incorrect,,,,,,t3.png,t5.png,2,0.0565,20,female ,2020-09-06_17h48.12.976,torte-2b,2020.1.3,MacIntel,60,13259,,,,,0,17,17,83,1,,,,,,,,,,,,,,,,,,,,,,,,,,,,,,,,,,,,,,,,,,,,,,,,,,,,,,,,
,,,,,,,,,,,,l,0.703,Correct!,,,,,,t3.png,t1.png,2,0.0565,20,female ,2020-09-06_17h48.12.976,torte-2b,2020.1.3,MacIntel,60,13259,,,,,0,18,18,31,1,,,,,,,,,,,,,,,,,,,,,,,,,,,,,,,,,,,,,,,,,,,,,,,,,,,,,,,,
,,,,,,,,,,,,l,0.885,Correct!,,,,,,t5.png,t1.png,4,9.55E-11,20,female ,2020-09-06_17h48.12.976,torte-2b,2020.1.3,MacIntel,60,13259,,,,,0,19,19,22,1,,,,,,,,,,,,,,,,,,,,,,,,,,,,,,,,,,,,,,,,,,,,,,,,,,,,,,,,
,,,,,,,,,,,,l,0.582,Correct!,,,,,,t4.png,t1.png,3,0.0000131,20,female ,2020-09-06_17h48.12.976,torte-2b,2020.1.3,MacIntel,60,13259,,,,,0,20,20,93,1,,,,,,,,,,,,,,,,,,,,,,,,,,,,,,,,,,,,,,,,,,,,,,,,,,,,,,,,
,,,,,,,,,,,,a,0.82,Correct!,,,,,,t1.png,t1.png,0,0.97829,20,female ,2020-09-06_17h48.12.976,torte-2b,2020.1.3,MacIntel,60,13259,,,,,0,21,21,78,1,,,,,,,,,,,,,,,,,,,,,,,,,,,,,,,,,,,,,,,,,,,,,,,,,,,,,,,,
,,,,,,,,,,,,l,0.949,Correct!,,,,,,t4.png,t1.png,3,0.0000131,20,female ,2020-09-06_17h48.12.976,torte-2b,2020.1.3,MacIntel,60,13259,,,,,0,22,22,48,1,,,,,,,,,,,,,,,,,,,,,,,,,,,,,,,,,,,,,,,,,,,,,,,,,,,,,,,,
,,,,,,,,,,,,l,1.299,Correct!,,,,,,t2.png,t4.png,2,0.0591,20,female ,2020-09-06_17h48.12.976,torte-2b,2020.1.3,MacIntel,60,13259,,,,,0,23,23,15,1,,,,,,,,,,,,,,,,,,,,,,,,,,,,,,,,,,,,,,,,,,,,,,,,,,,,,,,,
,,,,,,,,,,,,l,0.936,Correct!,,,,,,t5.png,t3.png,2,0.056466,20,female ,2020-09-06_17h48.12.976,torte-2b,2020.1.3,MacIntel,60,13259,,,,,0,24,24,38,1,,,,,,,,,,,,,,,,,,,,,,,,,,,,,,,,,,,,,,,,,,,,,,,,,,,,,,,,
,,,,,,,,,,,,a,0.689,Correct!,,,,,,t1.png,t1.png,0,0.978,20,female ,2020-09-06_17h48.12.976,torte-2b,2020.1.3,MacIntel,60,13259,,,,,0,25,25,28,1,,,,,,,,,,,,,,,,,,,,,,,,,,,,,,,,,,,,,,,,,,,,,,,,,,,,,,,,
,,,,,,,,,,,,a,0.973,Correct!,,,,,,t2.png,t2.png,0,0.98115,20,female ,2020-09-06_17h48.12.976,torte-2b,2020.1.3,MacIntel,60,13259,,,,,0,26,26,59,1,,,,,,,,,,,,,,,,,,,,,,,,,,,,,,,,,,,,,,,,,,,,,,,,,,,,,,,,
,,,,,,,,,,,,a,1.156,Correct!,,,,,,t4.png,t5.png,1,0.90025,20,female ,2020-09-06_17h48.12.976,torte-2b,2020.1.3,MacIntel,60,13259,,,,,0,27,27,47,1,,,,,,,,,,,,,,,,,,,,,,,,,,,,,,,,,,,,,,,,,,,,,,,,,,,,,,,,
,,,,,,,,,,,,a,0.569,Correct!,,,,,,t4.png,t4.png,0,0.98115,20,female ,2020-09-06_17h48.12.976,torte-2b,2020.1.3,MacIntel,60,13259,,,,,0,28,28,80,1,,,,,,,,,,,,,,,,,,,,,,,,,,,,,,,,,,,,,,,,,,,,,,,,,,,,,,,,
,,,,,,,,,,,,l,0.939,Correct!,,,,,,t5.png,t2.png,3,0.0000131,20,female ,2020-09-06_17h48.12.976,torte-2b,2020.1.3,MacIntel,60,13259,,,,,0,29,29,116,1,,,,,,,,,,,,,,,,,,,,,,,,,,,,,,,,,,,,,,,,,,,,,,,,,,,,,,,,
,,,,,,,,,,,,a,1.652,Incorrect,,,,,,t4.png,t5.png,1,0.9,20,female ,2020-09-06_17h48.12.976,torte-2b,2020.1.3,MacIntel,60,13259,,,,,0,30,30,115,1,,,,,,,,,,,,,,,,,,,,,,,,,,,,,,,,,,,,,,,,,,,,,,,,,,,,,,,,
,,,,,,,,,,,,a,1.623,Correct!,,,,,,t3.png,t2.png,1,0.90855,20,female ,2020-09-06_17h48.12.976,torte-2b,2020.1.3,MacIntel,60,13259,,,,,0,31,31,97,1,,,,,,,,,,,,,,,,,,,,,,,,,,,,,,,,,,,,,,,,,,,,,,,,,,,,,,,,
,,,,,,,,,,,,a,1.217,Correct!,,,,,,t1.png,t2.png,1,0.90025,20,female ,2020-09-06_17h48.12.976,torte-2b,2020.1.3,MacIntel,60,13259,,,,,0,32,32,33,1,,,,,,,,,,,,,,,,,,,,,,,,,,,,,,,,,,,,,,,,,,,,,,,,,,,,,,,,
,,,,,,,,,,,,l,0.991,Correct!,,,,,,t1.png,t3.png,2,0.056466,20,female ,2020-09-06_17h48.12.976,torte-2b,2020.1.3,MacIntel,60,13259,,,,,0,33,33,60,1,,,,,,,,,,,,,,,,,,,,,,,,,,,,,,,,,,,,,,,,,,,,,,,,,,,,,,,,
,,,,,,,,,,,,a,0.866,Incorrect,,,,,,t3.png,t1.png,2,0.056466,20,female ,2020-09-06_17h48.12.976,torte-2b,2020.1.3,MacIntel,60,13259,,,,,0,34,34,29,1,,,,,,,,,,,,,,,,,,,,,,,,,,,,,,,,,,,,,,,,,,,,,,,,,,,,,,,,
,,,,,,,,,,,,l,0.971,Correct!,,,,,,t5.png,t3.png,2,0.056466,20,female ,2020-09-06_17h48.12.976,torte-2b,2020.1.3,MacIntel,60,13259,,,,,0,35,35,56,1,,,,,,,,,,,,,,,,,,,,,,,,,,,,,,,,,,,,,,,,,,,,,,,,,,,,,,,,
,,,,,,,,,,,,l,0.999,Incorrect,,,,,,t2.png,t3.png,1,0.90855,20,female ,2020-09-06_17h48.12.976,torte-2b,2020.1.3,MacIntel,60,13259,,,,,0,36,36,68,1,,,,,,,,,,,,,,,,,,,,,,,,,,,,,,,,,,,,,,,,,,,,,,,,,,,,,,,,
,,,,,,,,,,,,l,0.799,Correct!,,,,,,t5.png,t2.png,3,0.0000131,20,female ,2020-09-06_17h48.12.976,torte-2b,2020.1.3,MacIntel,60,13259,,,,,0,37,37,119,1,,,,,,,,,,,,,,,,,,,,,,,,,,,,,,,,,,,,,,,,,,,,,,,,,,,,,,,,
,,,,,,,,,,,,l,0.788,Correct!,,,,,,t5.png,t4.png,1,0.9,20,female ,2020-09-06_17h48.12.976,torte-2b,2020.1.3,MacIntel,60,13259,,,,,0,38,38,76,1,,,,,,,,,,,,,,,,,,,,,,,,,,,,,,,,,,,,,,,,,,,,,,,,,,,,,,,,
,,,,,,,,,,,,l,1.25,Incorrect,,,,,,t1.png,t3.png,2,0.056466,20,female ,2020-09-06_17h48.12.976,torte-2b,2020.1.3,MacIntel,60,13259,,,,,0,39,39,99,1,,,,,,,,,,,,,,,,,,,,,,,,,,,,,,,,,,,,,,,,,,,,,,,,,,,,,,,,
,,,,,,,,,,,,l,1.517,Incorrect,,,,,,t3.png,t1.png,2,0.056466,20,female ,2020-09-06_17h48.12.976,torte-2b,2020.1.3,MacIntel,60,13259,,,,,0,40,40,32,1,,,,,,,,,,,,,,,,,,,,,,,,,,,,,,,,,,,,,,,,,,,,,,,,,,,,,,,,
,,,,,,,,,,,,a,0.666,Incorrect,,,,,,t4.png,t1.png,3,0.0000131,20,female ,2020-09-06_17h48.12.976,torte-2b,2020.1.3,MacIntel,60,13259,,,,,0,41,41,42,1,,,,,,,,,,,,,,,,,,,,,,,,,,,,,,,,,,,,,,,,,,,,,,,,,,,,,,,,
,,,,,,,,,,,,a,1.189,Correct!,,,,,,t5.png,t4.png,1,0.9,20,female ,2020-09-06_17h48.12.976,torte-2b,2020.1.3,MacIntel,60,13259,,,,,0,42,42,49,1,,,,,,,,,,,,,,,,,,,,,,,,,,,,,,,,,,,,,,,,,,,,,,,,,,,,,,,,
,,,,,,,,,,,,l,0.719,Correct!,,,,,,t1.png,t5.png,4,9.55E-11,20,female ,2020-09-06_17h48.12.976,torte-2b,2020.1.3,MacIntel,60,13259,,,,,0,43,43,41,1,,,,,,,,,,,,,,,,,,,,,,,,,,,,,,,,,,,,,,,,,,,,,,,,,,,,,,,,
,,,,,,,,,,,,a,1.09,Correct!,,,,,,t1.png,t2.png,1,0.90025,20,female ,2020-09-06_17h48.12.976,torte-2b,2020.1.3,MacIntel,60,13259,,,,,0,44,44,72,1,,,,,,,,,,,,,,,,,,,,,,,,,,,,,,,,,,,,,,,,,,,,,,,,,,,,,,,,
,,,,,,,,,,,,,,Too slow :(,,,,,,t1.png,t5.png,4,9.55E-11,20,female ,2020-09-06_17h48.12.976,torte-2b,2020.1.3,MacIntel,60,13259,,,,,0,45,45,85,1,,,,,,,,,,,,,,,,,,,,,,,,,,,,,,,,,,,,,,,,,,,,,,,,,,,,,,,,
,,,,,,,,,,,,a,1.088,Correct!,,,,,,t3.png,t4.png,1,0.909,20,female ,2020-09-06_17h48.12.976,torte-2b,2020.1.3,MacIntel,60,13259,,,,,0,46,46,89,1,,,,,,,,,,,,,,,,,,,,,,,,,,,,,,,,,,,,,,,,,,,,,,,,,,,,,,,,
,,,,,,,,,,,,a,0.819,Correct!,,,,,,t5.png,t3.png,2,0.056466,20,female ,2020-09-06_17h48.12.976,torte-2b,2020.1.3,MacIntel,60,13259,,,,,0,47,47,114,1,,,,,,,,,,,,,,,,,,,,,,,,,,,,,,,,,,,,,,,,,,,,,,,,,,,,,,,,
,,,,,,,,,,,,a,0.849,Correct!,,,,,,t5.png,t5.png,0,0.97829,20,female ,2020-09-06_17h48.12.976,torte-2b,2020.1.3,MacIntel,60,13259,,,,,0,48,48,25,1,,,,,,,,,,,,,,,,,,,,,,,,,,,,,,,,,,,,,,,,,,,,,,,,,,,,,,,,
,,,,,,,,,,,,a,1.001,Correct!,,,,,,t5.png,t4.png,1,0.90025,20,female ,2020-09-06_17h48.12.976,torte-2b,2020.1.3,MacIntel,60,13259,,,,,0,49,49,26,1,,,,,,,,,,,,,,,,,,,,,,,,,,,,,,,,,,,,,,,,,,,,,,,,,,,,,,,,
,,,,,,,,,,,,a,1.135,Correct!,,,,,,t2.png,t3.png,1,0.909,20,female ,2020-09-06_17h48.12.976,torte-2b,2020.1.3,MacIntel,60,13259,,,,,0,50,50,74,1,,,,,,,,,,,,,,,,,,,,,,,,,,,,,,,,,,,,,,,,,,,,,,,,,,,,,,,,
,,,,,,,,,,,,l,1.917,Correct!,,,,,,t2.png,t4.png,2,0.059078,20,female ,2020-09-06_17h48.12.976,torte-2b,2020.1.3,MacIntel,60,13259,,,,,0,51,51,11,1,,,,,,,,,,,,,,,,,,,,,,,,,,,,,,,,,,,,,,,,,,,,,,,,,,,,,,,,
,,,,,,,,,,,,a,0.838,Correct!,,,,,,t3.png,t4.png,1,0.909,20,female ,2020-09-06_17h48.12.976,torte-2b,2020.1.3,MacIntel,60,13259,,,,,0,52,52,106,1,,,,,,,,,,,,,,,,,,,,,,,,,,,,,,,,,,,,,,,,,,,,,,,,,,,,,,,,
,,,,,,,,,,,,l,0.656,Correct!,,,,,,t3.png,t5.png,2,0.056466,20,female ,2020-09-06_17h48.12.976,torte-2b,2020.1.3,MacIntel,60,13259,,,,,0,53,53,44,1,,,,,,,,,,,,,,,,,,,,,,,,,,,,,,,,,,,,,,,,,,,,,,,,,,,,,,,,
,,,,,,,,,,,,a,1.042,Incorrect,,,,,,t1.png,t3.png,2,0.056466,20,female ,2020-09-06_17h48.12.976,torte-2b,2020.1.3,MacIntel,60,13259,,,,,0,54,54,69,1,,,,,,,,,,,,,,,,,,,,,,,,,,,,,,,,,,,,,,,,,,,,,,,,,,,,,,,,
,,,,,,,,,,,,a,1.114,Incorrect,,,,,,t3.png,t5.png,2,0.056466,20,female ,2020-09-06_17h48.12.976,torte-2b,2020.1.3,MacIntel,60,13259,,,,,0,55,55,6,1,,,,,,,,,,,,,,,,,,,,,,,,,,,,,,,,,,,,,,,,,,,,,,,,,,,,,,,,
,,,,,,,,,,,,a,0.65,Incorrect,,,,,,t5.png,t5.png,0,0.978,20,female ,2020-09-06_17h48.12.976,torte-2b,2020.1.3,MacIntel,60,13259,,,,,0,56,56,117,1,,,,,,,,,,,,,,,,,,,,,,,,,,,,,,,,,,,,,,,,,,,,,,,,,,,,,,,,
,,,,,,,,,,,,a,1.134,Correct!,,,,,,t2.png,t3.png,1,0.90855,20,female ,2020-09-06_17h48.12.976,torte-2b,2020.1.3,MacIntel,60,13259,,,,,0,57,57,111,1,,,,,,,,,,,,,,,,,,,,,,,,,,,,,,,,,,,,,,,,,,,,,,,,,,,,,,,,
,,,,,,,,,,,,l,1.032,Correct!,,,,,,t4.png,t2.png,2,0.059078,20,female ,2020-09-06_17h48.12.976,torte-2b,2020.1.3,MacIntel,60,13259,,,,,0,58,58,86,1,,,,,,,,,,,,,,,,,,,,,,,,,,,,,,,,,,,,,,,,,,,,,,,,,,,,,,,,
,,,,,,,,,,,,l,1.2,Incorrect,,,,,,t1.png,t3.png,2,0.056466,20,female ,2020-09-06_17h48.12.976,torte-2b,2020.1.3,MacIntel,60,13259,,,,,0,59,59,87,1,,,,,,,,,,,,,,,,,,,,,,,,,,,,,,,,,,,,,,,,,,,,,,,,,,,,,,,,
,,,,,,,,,,,,a,0.6,Incorrect,,,,,,t1.png,t5.png,4,9.55E-11,20,female ,2020-09-06_17h48.12.976,torte-2b,2020.1.3,MacIntel,60,13259,,,,,0,60,60,12,1,,,,,,,,,,,,,,,,,,,,,,,,,,,,,,,,,,,,,,,,,,,,,,,,,,,,,,,,
,,,,,,,,,,,,l,0.925,Correct!,,,,,,t2.png,t5.png,3,0.0000131,20,female ,2020-09-06_17h48.12.976,torte-2b,2020.1.3,MacIntel,60,13259,,,,,0,61,61,95,1,,,,,,,,,,,,,,,,,,,,,,,,,,,,,,,,,,,,,,,,,,,,,,,,,,,,,,,,
,,,,,,,,,,,,a,0.9,Correct!,,,,,,t3.png,t2.png,1,0.90855,20,female ,2020-09-06_17h48.12.976,torte-2b,2020.1.3,MacIntel,60,13259,,,,,0,62,62,53,1,,,,,,,,,,,,,,,,,,,,,,,,,,,,,,,,,,,,,,,,,,,,,,,,,,,,,,,,
,,,,,,,,,,,,a,0.822,Correct!,,,,,,t4.png,t4.png,0,0.98115,20,female ,2020-09-06_17h48.12.976,torte-2b,2020.1.3,MacIntel,60,13259,,,,,0,63,63,21,1,,,,,,,,,,,,,,,,,,,,,,,,,,,,,,,,,,,,,,,,,,,,,,,,,,,,,,,,
,,,,,,,,,,,,l,0.638,Correct!,,,,,,t2.png,t5.png,3,0.0000131,20,female ,2020-09-06_17h48.12.976,torte-2b,2020.1.3,MacIntel,60,13259,,,,,0,64,64,104,1,,,,,,,,,,,,,,,,,,,,,,,,,,,,,,,,,,,,,,,,,,,,,,,,,,,,,,,,
,,,,,,,,,,,,a,0.783,Correct!,,,,,,t1.png,t1.png,0,0.97829,20,female ,2020-09-06_17h48.12.976,torte-2b,2020.1.3,MacIntel,60,13259,,,,,0,65,65,67,1,,,,,,,,,,,,,,,,,,,,,,,,,,,,,,,,,,,,,,,,,,,,,,,,,,,,,,,,
,,,,,,,,,,,,a,0.667,Correct!,,,,,,t4.png,t4.png,0,0.98115,20,female ,2020-09-06_17h48.12.976,torte-2b,2020.1.3,MacIntel,60,13259,,,,,0,66,66,52,1,,,,,,,,,,,,,,,,,,,,,,,,,,,,,,,,,,,,,,,,,,,,,,,,,,,,,,,,
,,,,,,,,,,,,l,0.784,Incorrect,,,,,,t5.png,t3.png,2,0.056466,20,female ,2020-09-06_17h48.12.976,torte-2b,2020.1.3,MacIntel,60,13259,,,,,0,67,67,108,1,,,,,,,,,,,,,,,,,,,,,,,,,,,,,,,,,,,,,,,,,,,,,,,,,,,,,,,,
,,,,,,,,,,,,a,1.369,Correct!,,,,,,t4.png,t3.png,1,0.909,20,female ,2020-09-06_17h48.12.976,torte-2b,2020.1.3,MacIntel,60,13259,,,,,0,68,68,20,1,,,,,,,,,,,,,,,,,,,,,,,,,,,,,,,,,,,,,,,,,,,,,,,,,,,,,,,,
,,,,,,,,,,,,a,1.038,Incorrect,,,,,,t2.png,t1.png,1,0.90025,20,female ,2020-09-06_17h48.12.976,torte-2b,2020.1.3,MacIntel,60,13259,,,,,0,69,69,62,1,,,,,,,,,,,,,,,,,,,,,,,,,,,,,,,,,,,,,,,,,,,,,,,,,,,,,,,,
,,,,,,,,,,,,a,0.694,Correct!,,,,,,t1.png,t2.png,1,0.9,20,female ,2020-09-06_17h48.12.976,torte-2b,2020.1.3,MacIntel,60,13259,,,,,0,70,70,1,1,,,,,,,,,,,,,,,,,,,,,,,,,,,,,,,,,,,,,,,,,,,,,,,,,,,,,,,,
,,,,,,,,,,,,a,1.068,Incorrect,,,,,,t5.png,t3.png,2,0.0565,20,female ,2020-09-06_17h48.12.976,torte-2b,2020.1.3,MacIntel,60,13259,,,,,0,71,71,39,1,,,,,,,,,,,,,,,,,,,,,,,,,,,,,,,,,,,,,,,,,,,,,,,,,,,,,,,,
,,,,,,,,,,,,l,0.816,Correct!,,,,,,t3.png,t5.png,2,0.056466,20,female ,2020-09-06_17h48.12.976,torte-2b,2020.1.3,MacIntel,60,13259,,,,,0,72,72,14,1,,,,,,,,,,,,,,,,,,,,,,,,,,,,,,,,,,,,,,,,,,,,,,,,,,,,,,,,
,,,,,,,,,,,,a,1.148,Incorrect,,,,,,t2.png,t5.png,3,0.0000131,20,female ,2020-09-06_17h48.12.976,torte-2b,2020.1.3,MacIntel,60,13259,,,,,0,73,73,40,1,,,,,,,,,,,,,,,,,,,,,,,,,,,,,,,,,,,,,,,,,,,,,,,,,,,,,,,,
,,,,,,,,,,,,a,0.753,Correct!,,,,,,t1.png,t1.png,0,0.978,20,female ,2020-09-06_17h48.12.976,torte-2b,2020.1.3,MacIntel,60,13259,,,,,0,74,74,54,1,,,,,,,,,,,,,,,,,,,,,,,,,,,,,,,,,,,,,,,,,,,,,,,,,,,,,,,,
,,,,,,,,,,,,l,0.983,Correct!,,,,,,t4.png,t2.png,2,0.059078,20,female ,2020-09-06_17h48.12.976,torte-2b,2020.1.3,MacIntel,60,13259,,,,,0,75,75,109,1,,,,,,,,,,,,,,,,,,,,,,,,,,,,,,,,,,,,,,,,,,,,,,,,,,,,,,,,
,,,,,,,,,,,,a,0.884,Correct!,,,,,,t3.png,t2.png,1,0.909,20,female ,2020-09-06_17h48.12.976,torte-2b,2020.1.3,MacIntel,60,13259,,,,,0,76,76,23,1,,,,,,,,,,,,,,,,,,,,,,,,,,,,,,,,,,,,,,,,,,,,,,,,,,,,,,,,
,,,,,,,,,,,,a,1.081,Correct!,,,,,,t5.png,t5.png,0,0.97829,20,female ,2020-09-06_17h48.12.976,torte-2b,2020.1.3,MacIntel,60,13259,,,,,0,77,77,94,1,,,,,,,,,,,,,,,,,,,,,,,,,,,,,,,,,,,,,,,,,,,,,,,,,,,,,,,,
,,,,,,,,,,,,l,0.657,Correct!,,,,,,t5.png,t1.png,4,9.55E-11,20,female ,2020-09-06_17h48.12.976,torte-2b,2020.1.3,MacIntel,60,13259,,,,,0,78,78,102,1,,,,,,,,,,,,,,,,,,,,,,,,,,,,,,,,,,,,,,,,,,,,,,,,,,,,,,,,
,,,,,,,,,,,,a,0.9,Correct!,,,,,,t3.png,t4.png,1,0.90855,20,female ,2020-09-06_17h48.12.976,torte-2b,2020.1.3,MacIntel,60,13259,,,,,0,79,79,96,1,,,,,,,,,,,,,,,,,,,,,,,,,,,,,,,,,,,,,,,,,,,,,,,,,,,,,,,,
,,,,,,,,,,,,a,0.591,Incorrect,,,,,,t5.png,t2.png,3,0.0000131,20,female ,2020-09-06_17h48.12.976,torte-2b,2020.1.3,MacIntel,60,13259,,,,,0,80,80,91,1,,,,,,,,,,,,,,,,,,,,,,,,,,,,,,,,,,,,,,,,,,,,,,,,,,,,,,,,
,,,,,,,,,,,,a,0.784,Correct!,,,,,,t3.png,t4.png,1,0.909,20,female ,2020-09-06_17h48.12.976,torte-2b,2020.1.3,MacIntel,60,13259,,,,,0,81,81,82,1,,,,,,,,,,,,,,,,,,,,,,,,,,,,,,,,,,,,,,,,,,,,,,,,,,,,,,,,
,,,,,,,,,,,,a,0.682,Correct!,,,,,,t4.png,t3.png,1,0.90855,20,female ,2020-09-06_17h48.12.976,torte-2b,2020.1.3,MacIntel,60,13259,,,,,0,82,82,35,1,,,,,,,,,,,,,,,,,,,,,,,,,,,,,,,,,,,,,,,,,,,,,,,,,,,,,,,,
,,,,,,,,,,,,l,0.617,Correct!,,,,,,t1.png,t5.png,4,9.55E-11,20,female ,2020-09-06_17h48.12.976,torte-2b,2020.1.3,MacIntel,60,13259,,,,,0,83,83,16,1,,,,,,,,,,,,,,,,,,,,,,,,,,,,,,,,,,,,,,,,,,,,,,,,,,,,,,,,
,,,,,,,,,,,,a,0.815,Correct!,,,,,,t2.png,t2.png,0,0.98115,20,female ,2020-09-06_17h48.12.976,torte-2b,2020.1.3,MacIntel,60,13259,,,,,0,84,84,7,1,,,,,,,,,,,,,,,,,,,,,,,,,,,,,,,,,,,,,,,,,,,,,,,,,,,,,,,,
,,,,,,,,,,,,l,0.801,Incorrect,,,,,,t3.png,t1.png,2,0.056466,20,female ,2020-09-06_17h48.12.976,torte-2b,2020.1.3,MacIntel,60,13259,,,,,0,85,85,64,1,,,,,,,,,,,,,,,,,,,,,,,,,,,,,,,,,,,,,,,,,,,,,,,,,,,,,,,,
,,,,,,,,,,,,a,0.748,Correct!,,,,,,t2.png,t3.png,1,0.90855,20,female ,2020-09-06_17h48.12.976,torte-2b,2020.1.3,MacIntel,60,13259,,,,,0,86,86,65,1,,,,,,,,,,,,,,,,,,,,,,,,,,,,,,,,,,,,,,,,,,,,,,,,,,,,,,,,
,,,,,,,,,,,,a,0.817,Correct!,,,,,,t2.png,t1.png,1,0.9,20,female ,2020-09-06_17h48.12.976,torte-2b,2020.1.3,MacIntel,60,13259,,,,,0,87,87,118,1,,,,,,,,,,,,,,,,,,,,,,,,,,,,,,,,,,,,,,,,,,,,,,,,,,,,,,,,
,,,,,,,,,,,,l,0.699,Correct!,,,,,,t5.png,t1.png,4,9.55E-11,20,female ,2020-09-06_17h48.12.976,torte-2b,2020.1.3,MacIntel,60,13259,,,,,0,88,88,43,1,,,,,,,,,,,,,,,,,,,,,,,,,,,,,,,,,,,,,,,,,,,,,,,,,,,,,,,,
,,,,,,,,,,,,a,0.968,Correct!,,,,,,t2.png,t1.png,1,0.90025,20,female ,2020-09-06_17h48.12.976,torte-2b,2020.1.3,MacIntel,60,13259,,,,,0,89,89,19,1,,,,,,,,,,,,,,,,,,,,,,,,,,,,,,,,,,,,,,,,,,,,,,,,,,,,,,,,
,,,,,,,,,,,,a,0.671,Correct!,,,,,,t5.png,t4.png,1,0.90025,20,female ,2020-09-06_17h48.12.976,torte-2b,2020.1.3,MacIntel,60,13259,,,,,0,90,90,34,1,,,,,,,,,,,,,,,,,,,,,,,,,,,,,,,,,,,,,,,,,,,,,,,,,,,,,,,,
,,,,,,,,,,,,a,0.949,Incorrect,,,,,,t2.png,t1.png,1,0.90025,20,female ,2020-09-06_17h48.12.976,torte-2b,2020.1.3,MacIntel,60,13259,,,,,0,91,91,4,1,,,,,,,,,,,,,,,,,,,,,,,,,,,,,,,,,,,,,,,,,,,,,,,,,,,,,,,,
,,,,,,,,,,,,a,0.973,Correct!,,,,,,t4.png,t3.png,1,0.90855,20,female ,2020-09-06_17h48.12.976,torte-2b,2020.1.3,MacIntel,60,13259,,,,,0,92,92,45,1,,,,,,,,,,,,,,,,,,,,,,,,,,,,,,,,,,,,,,,,,,,,,,,,,,,,,,,,
,,,,,,,,,,,,l,0.652,Correct!,,,,,,t2.png,t5.png,3,0.0000131,20,female ,2020-09-06_17h48.12.976,torte-2b,2020.1.3,MacIntel,60,13259,,,,,0,93,93,66,1,,,,,,,,,,,,,,,,,,,,,,,,,,,,,,,,,,,,,,,,,,,,,,,,,,,,,,,,
,,,,,,,,,,,,l,1.181,Correct!,,,,,,t4.png,t2.png,2,0.0591,20,female ,2020-09-06_17h48.12.976,torte-2b,2020.1.3,MacIntel,60,13259,,,,,0,94,94,36,1,,,,,,,,,,,,,,,,,,,,,,,,,,,,,,,,,,,,,,,,,,,,,,,,,,,,,,,,
,,,,,,,,,,,,l,0.818,Correct!,,,,,,t5.png,t1.png,4,9.55E-11,20,female ,2020-09-06_17h48.12.976,torte-2b,2020.1.3,MacIntel,60,13259,,,,,0,95,95,100,1,,,,,,,,,,,,,,,,,,,,,,,,,,,,,,,,,,,,,,,,,,,,,,,,,,,,,,,,
,,,,,,,,,,,,a,0.916,Correct!,,,,,,t3.png,t4.png,1,0.90855,20,female ,2020-09-06_17h48.12.976,torte-2b,2020.1.3,MacIntel,60,13259,,,,,0,96,96,84,1,,,,,,,,,,,,,,,,,,,,,,,,,,,,,,,,,,,,,,,,,,,,,,,,,,,,,,,,
,,,,,,,,,,,,a,0.806,Correct!,,,,,,t2.png,t2.png,0,0.981,20,female ,2020-09-06_17h48.12.976,torte-2b,2020.1.3,MacIntel,60,13259,,,,,0,97,97,101,1,,,,,,,,,,,,,,,,,,,,,,,,,,,,,,,,,,,,,,,,,,,,,,,,,,,,,,,,
,,,,,,,,,,,,l,0.816,Correct!,,,,,,t2.png,t4.png,2,0.059078,20,female ,2020-09-06_17h48.12.976,torte-2b,2020.1.3,MacIntel,60,13259,,,,,0,98,98,77,1,,,,,,,,,,,,,,,,,,,,,,,,,,,,,,,,,,,,,,,,,,,,,,,,,,,,,,,,
,,,,,,,,,,,,a,0.587,Correct!,,,,,,t4.png,t4.png,0,0.98115,20,female ,2020-09-06_17h48.12.976,torte-2b,2020.1.3,MacIntel,60,13259,,,,,0,99,99,90,1,,,,,,,,,,,,,,,,,,,,,,,,,,,,,,,,,,,,,,,,,,,,,,,,,,,,,,,,
,,,,,,,,,,,,l,0.573,Correct!,,,,,,t1.png,t4.png,3,0.0000131,20,female ,2020-09-06_17h48.12.976,torte-2b,2020.1.3,MacIntel,60,13259,,,,,0,100,100,81,1,,,,,,,,,,,,,,,,,,,,,,,,,,,,,,,,,,,,,,,,,,,,,,,,,,,,,,,,
,,,,,,,,,,,,a,1.101,Correct!,,,,,,t4.png,t5.png,1,0.90025,20,female ,2020-09-06_17h48.12.976,torte-2b,2020.1.3,MacIntel,60,13259,,,,,0,101,101,113,1,,,,,,,,,,,,,,,,,,,,,,,,,,,,,,,,,,,,,,,,,,,,,,,,,,,,,,,,
,,,,,,,,,,,,a,1.019,Correct!,,,,,,t1.png,t1.png,0,0.97829,20,female ,2020-09-06_17h48.12.976,torte-2b,2020.1.3,MacIntel,60,13259,,,,,0,102,102,9,1,,,,,,,,,,,,,,,,,,,,,,,,,,,,,,,,,,,,,,,,,,,,,,,,,,,,,,,,
,,,,,,,,,,,,a,1.072,Correct!,,,,,,t3.png,t2.png,1,0.909,20,female ,2020-09-06_17h48.12.976,torte-2b,2020.1.3,MacIntel,60,13259,,,,,0,103,103,3,1,,,,,,,,,,,,,,,,,,,,,,,,,,,,,,,,,,,,,,,,,,,,,,,,,,,,,,,,
,,,,,,,,,,,,l,1,Correct!,,,,,,t2.png,t4.png,2,0.059078,20,female ,2020-09-06_17h48.12.976,torte-2b,2020.1.3,MacIntel,60,13259,,,,,0,104,104,37,1,,,,,,,,,,,,,,,,,,,,,,,,,,,,,,,,,,,,,,,,,,,,,,,,,,,,,,,,
,,,,,,,,,,,,a,1.802,Correct!,,,,,,t3.png,t2.png,1,0.90855,20,female ,2020-09-06_17h48.12.976,torte-2b,2020.1.3,MacIntel,60,13259,,,,,0,105,105,18,1,,,,,,,,,,,,,,,,,,,,,,,,,,,,,,,,,,,,,,,,,,,,,,,,,,,,,,,,
,,,,,,,,,,,,l,0.833,Correct!,,,,,,t5.png,t1.png,4,9.55E-11,20,female ,2020-09-06_17h48.12.976,torte-2b,2020.1.3,MacIntel,60,13259,,,,,0,106,106,71,1,,,,,,,,,,,,,,,,,,,,,,,,,,,,,,,,,,,,,,,,,,,,,,,,,,,,,,,,
,,,,,,,,,,,,l,1.088,Correct!,,,,,,t1.png,t3.png,2,0.056466,20,female ,2020-09-06_17h48.12.976,torte-2b,2020.1.3,MacIntel,60,13259,,,,,0,107,107,63,1,,,,,,,,,,,,,,,,,,,,,,,,,,,,,,,,,,,,,,,,,,,,,,,,,,,,,,,,
,,,,,,,,,,,,l,0.765,Correct!,,,,,,t1.png,t5.png,4,9.55E-11,20,female ,2020-09-06_17h48.12.976,torte-2b,2020.1.3,MacIntel,60,13259,,,,,0,108,108,55,1,,,,,,,,,,,,,,,,,,,,,,,,,,,,,,,,,,,,,,,,,,,,,,,,,,,,,,,,
,,,,,,,,,,,,a,0.653,Correct!,,,,,,t5.png,t4.png,1,0.90025,20,female ,2020-09-06_17h48.12.976,torte-2b,2020.1.3,MacIntel,60,13259,,,,,0,109,109,27,1,,,,,,,,,,,,,,,,,,,,,,,,,,,,,,,,,,,,,,,,,,,,,,,,,,,,,,,,
,,,,,,,,,,,,a,1.439,Correct!,,,,,,t4.png,t3.png,1,0.909,20,female ,2020-09-06_17h48.12.976,torte-2b,2020.1.3,MacIntel,60,13259,,,,,0,110,110,46,1,,,,,,,,,,,,,,,,,,,,,,,,,,,,,,,,,,,,,,,,,,,,,,,,,,,,,,,,
,,,,,,,,,,,,l,1.233,Correct!,,,,,,t5.png,t2.png,3,0.0000131,20,female ,2020-09-06_17h48.12.976,torte-2b,2020.1.3,MacIntel,60,13259,,,,,0,111,111,98,1,,,,,,,,,,,,,,,,,,,,,,,,,,,,,,,,,,,,,,,,,,,,,,,,,,,,,,,,
,,,,,,,,,,,,a,1.976,Correct!,,,,,,t4.png,t5.png,1,0.90025,20,female ,2020-09-06_17h48.12.976,torte-2b,2020.1.3,MacIntel,60,13259,,,,,0,112,112,103,1,,,,,,,,,,,,,,,,,,,,,,,,,,,,,,,,,,,,,,,,,,,,,,,,,,,,,,,,
,,,,,,,,,,,,a,0.903,Correct!,,,,,,t2.png,t2.png,0,0.98115,20,female ,2020-09-06_17h48.12.976,torte-2b,2020.1.3,MacIntel,60,13259,,,,,0,113,113,2,1,,,,,,,,,,,,,,,,,,,,,,,,,,,,,,,,,,,,,,,,,,,,,,,,,,,,,,,,
,,,,,,,,,,,,l,0.899,Correct!,,,,,,t3.png,t5.png,2,0.0565,20,female ,2020-09-06_17h48.12.976,torte-2b,2020.1.3,MacIntel,60,13259,,,,,0,114,114,30,1,,,,,,,,,,,,,,,,,,,,,,,,,,,,,,,,,,,,,,,,,,,,,,,,,,,,,,,,
,,,,,,,,,,,,l,1.1,Correct!,,,,,,t5.png,t2.png,3,0.0000131,20,female ,2020-09-06_17h48.12.976,torte-2b,2020.1.3,MacIntel,60,13259,,,,,0,115,115,51,1,,,,,,,,,,,,,,,,,,,,,,,,,,,,,,,,,,,,,,,,,,,,,,,,,,,,,,,,
,,,,,,,,,,,,a,0.566,Correct!,,,,,,t2.png,t2.png,0,0.98115,20,female ,2020-09-06_17h48.12.976,torte-2b,2020.1.3,MacIntel,60,13259,,,,,0,116,116,57,1,,,,,,,,,,,,,,,,,,,,,,,,,,,,,,,,,,,,,,,,,,,,,,,,,,,,,,,,
,,,,,,,,,,,,a,0.62,Correct!,,,,,,t4.png,t4.png,0,0.98115,20,female ,2020-09-06_17h48.12.976,torte-2b,2020.1.3,MacIntel,60,13259,,,,,0,117,117,79,1,,,,,,,,,,,,,,,,,,,,,,,,,,,,,,,,,,,,,,,,,,,,,,,,,,,,,,,,
,,,,,,,,,,,,a,0.541,Correct!,,,,,,t5.png,t5.png,0,0.97829,20,female ,2020-09-06_17h48.12.976,torte-2b,2020.1.3,MacIntel,60,13259,,,,,0,118,118,73,1,,,,,,,,,,,,,,,,,,,,,,,,,,,,,,,,,,,,,,,,,,,,,,,,,,,,,,,,
,,,,,,,,,,,,l,0.921,Correct!,,,,,,t4.png,t2.png,2,0.059078,20,female ,2020-09-06_17h48.12.976,torte-2b,2020.1.3,MacIntel,60,13259,,,,,0,119,119,88,1,,,,,,,,,,,,,,,,,,,,,,,,,,,,,,,,,,,,,,,,,,,,,,,,,,,,,,,,
,,,,,,,,,,,,,,,,,,,,,,,,20,female ,2020-09-06_17h48.12.976,torte-2b,2020.1.3,MacIntel,60,13259,space,1.625,,,,,,,,space,15.923,,0,0,0,0,1,6,,,,,,,,,,,,,,,,,,,,,,,,,,,,,,,,,,,,,,,,,,,,,,,
,,,,,,,,,,,,,,,,,,,,,,,,20,female ,2020-09-06_17h48.12.976,torte-2b,2020.1.3,MacIntel,60,13259,,,,,,,,,,,,,0,1,1,1,1,7,,,,,,,,,,,,,,,,,,,,,,,,,,,,,,,,,,,,,,,,,,,,,,,
,,,,,,,,,,,,,,,,,,,,,,,,20,female ,2020-09-06_17h48.12.976,torte-2b,2020.1.3,MacIntel,60,13259,,,,,,,,,,,,space,0,2,2,2,1,6,0.45,,,,,,,,,,,,,,,,,,,,,,,,,,,,,,,,,,,,,,,,,,,,,,
,,,,,,,,,,,,,,,,,,,,,,,,20,female ,2020-09-06_17h48.12.976,torte-2b,2020.1.3,MacIntel,60,13259,,,,,,,,,,,,space,0,3,3,3,1,7,1.169,,,,,,,,,,,,,,,,,,,,,,,,,,,,,,,,,,,,,,,,,,,,,,
,,,,,,,,,,,,,,,,,,,,,,,,20,female ,2020-09-06_17h48.12.976,torte-2b,2020.1.3,MacIntel,60,13259,,,,,,,,,,,,,0,4,4,4,1,5,,,,,,,,,,,,,,,,,,,,,,,,,,,,,,,,,,,,,,,,,,,,,,,
,,,,,,,,,,,,,,,,,,,,,,,,20,female ,2020-09-06_17h48.12.976,torte-2b,2020.1.3,MacIntel,60,13259,,,,,,,,,,,,space,0,5,5,5,1,7,0.963,,,,,,,,,,,,,,,,,,,,,,,,,,,,,,,,,,,,,,,,,,,,,,
,,,,,,,,,,,,,,,,,,,,,,,,20,female ,2020-09-06_17h48.12.976,torte-2b,2020.1.3,MacIntel,60,13259,,,,,,,,,,,,,0,6,6,6,1,2,,,,,,,,,,,,,,,,,,,,,,,,,,,,,,,,,,,,,,,,,,,,,,,
,,,,,,,,,,,,,,,,,,,,,,,,20,female ,2020-09-06_17h48.12.976,torte-2b,2020.1.3,MacIntel,60,13259,,,,,,,,,,,,,0,7,7,7,1,4,,,,,,,,,,,,,,,,,,,,,,,,,,,,,,,,,,,,,,,,,,,,,,,
,,,,,,,,,,,,,,,,,,,,,,,,20,female ,2020-09-06_17h48.12.976,torte-2b,2020.1.3,MacIntel,60,13259,,,,,,,,,,,,,0,8,8,8,1,7,,,,,,,,,,,,,,,,,,,,,,,,,,,,,,,,,,,,,,,,,,,,,,,
,,,,,,,,,,,,,,,,,,,,,,,,20,female ,2020-09-06_17h48.12.976,torte-2b,2020.1.3,MacIntel,60,13259,,,,,,,,,,,,,0,9,9,9,1,4,,,,,,,,,,,,,,,,,,,,,,,,,,,,,,,,,,,,,,,,,,,,,,,
,,,,,,,,,,,,,,,,,,,,,,,,20,female ,2020-09-06_17h48.12.976,torte-2b,2020.1.3,MacIntel,60,13259,,,,,,,,,,,,space,0,10,10,10,1,7,1.011,,,,,,,,,,,,,,,,,,,,,,,,,,,,,,,,,,,,,,,,,,,,,,
,,,,,,,,,,,,,,,,,,,,,,,,20,female ,2020-09-06_17h48.12.976,torte-2b,2020.1.3,MacIntel,60,13259,,,,,,,,,,,,,0,11,11,11,1,7,,,,,,,,,,,,,,,,,,,,,,,,,,,,,,,,,,,,,,,,,,,,,,,
,,,,,,,,,,,,,,,,,,,,,,,,20,female ,2020-09-06_17h48.12.976,torte-2b,2020.1.3,MacIntel,60,13259,,,,,,,,,,,,space,0,12,12,12,1,7,0.364,,,,,,,,,,,,,,,,,,,,,,,,,,,,,,,,,,,,,,,,,,,,,,
,,,,,,,,,,,,,,,,,,,,,,,,20,female ,2020-09-06_17h48.12.976,torte-2b,2020.1.3,MacIntel,60,13259,,,,,,,,,,,,space,0,13,13,13,1,4,0.767,,,,,,,,,,,,,,,,,,,,,,,,,,,,,,,,,,,,,,,,,,,,,,
,,,,,,,,,,,,,,,,,,,,,,,,20,female ,2020-09-06_17h48.12.976,torte-2b,2020.1.3,MacIntel,60,13259,,,,,,,,,,,,,0,14,14,14,1,6,,,,,,,,,,,,,,,,,,,,,,,,,,,,,,,,,,,,,,,,,,,,,,,
,,,,,,,,,,,,,,,,,,,,,,,,20,female ,2020-09-06_17h48.12.976,torte-2b,2020.1.3,MacIntel,60,13259,,,,,,,,,,,,,0,15,15,15,1,4,,,,,,,,,,,,,,,,,,,,,,,,,,,,,,,,,,,,,,,,,,,,,,,
,,,,,,,,,,,,,,,,,,,,,,,,20,female ,2020-09-06_17h48.12.976,torte-2b,2020.1.3,MacIntel,60,13259,,,,,,,,,,,,space,0,16,16,16,1,6,0.32,,,,,,,,,,,,,,,,,,,,,,,,,,,,,,,,,,,,,,,,,,,,,,
,,,,,,,,,,,,,,,,,,,,,,,,20,female ,2020-09-06_17h48.12.976,torte-2b,2020.1.3,MacIntel,60,13259,,,,,,,,,,,,space,0,17,17,17,1,7,1.212,,,,,,,,,,,,,,,,,,,,,,,,,,,,,,,,,,,,,,,,,,,,,,
,,,,,,,,,,,,,,,,,,,,,,,,20,female ,2020-09-06_17h48.12.976,torte-2b,2020.1.3,MacIntel,60,13259,,,,,,,,,,,,space,0,18,18,18,1,6,0.579,,,,,,,,,,,,,,,,,,,,,,,,,,,,,,,,,,,,,,,,,,,,,,
,,,,,,,,,,,,,,,,,,,,,,,,20,female ,2020-09-06_17h48.12.976,torte-2b,2020.1.3,MacIntel,60,13259,,,,,,,,,,,,space,0,19,19,19,1,7,1.146,,,,,,,,,,,,,,,,,,,,,,,,,,,,,,,,,,,,,,,,,,,,,,
,,,,,,,,,,,,,,,,,,,,,,,,20,female ,2020-09-06_17h48.12.976,torte-2b,2020.1.3,MacIntel,60,13259,,,,,,,,,,,,,0,20,20,20,1,5,,,,,,,,,,,,,,,,,,,,,,,,,,,,,,,,,,,,,,,,,,,,,,,
,,,,,,,,,,,,,,,,,,,,,,,,20,female ,2020-09-06_17h48.12.976,torte-2b,2020.1.3,MacIntel,60,13259,,,,,,,,,,,,,0,21,21,21,1,1,,,,,,,,,,,,,,,,,,,,,,,,,,,,,,,,,,,,,,,,,,,,,,,
,,,,,,,,,,,,,,,,,,,,,,,,20,female ,2020-09-06_17h48.12.976,torte-2b,2020.1.3,MacIntel,60,13259,,,,,,,,,,,,,0,22,22,22,1,6,,,,,,,,,,,,,,,,,,,,,,,,,,,,,,,,,,,,,,,,,,,,,,,
,,,,,,,,,,,,,,,,,,,,,,,,20,female ,2020-09-06_17h48.12.976,torte-2b,2020.1.3,MacIntel,60,13259,,,,,,,,,,,,space,0,23,23,23,1,1,0.734,,,,,,,,,,,,,,,,,,,,,,,,,,,,,,,,,,,,,,,,,,,,,,
,,,,,,,,,,,,,,,,,,,,,,,,20,female ,2020-09-06_17h48.12.976,torte-2b,2020.1.3,MacIntel,60,13259,,,,,,,,,,,,,0,24,24,24,1,5,,,,,,,,,,,,,,,,,,,,,,,,,,,,,,,,,,,,,,,,,,,,,,,
,,,,,,,,,,,,,,,,,,,,,,,,20,female ,2020-09-06_17h48.12.976,torte-2b,2020.1.3,MacIntel,60,13259,,,,,,,,,,,,space,0,25,25,25,1,6,0.803,,,,,,,,,,,,,,,,,,,,,,,,,,,,,,,,,,,,,,,,,,,,,,
,,,,,,,,,,,,,,,,,,,,,,,,20,female ,2020-09-06_17h48.12.976,torte-2b,2020.1.3,MacIntel,60,13259,,,,,,,,,,,,space,0,26,26,26,1,6,0.603,,,,,,,,,,,,,,,,,,,,,,,,,,,,,,,,,,,,,,,,,,,,,,
,,,,,,,,,,,,,,,,,,,,,,,,20,female ,2020-09-06_17h48.12.976,torte-2b,2020.1.3,MacIntel,60,13259,,,,,,,,,,,,space,0,27,27,27,1,6,1.052,,,,,,,,,,,,,,,,,,,,,,,,,,,,,,,,,,,,,,,,,,,,,,
,,,,,,,,,,,,,,,,,,,,,,,,20,female ,2020-09-06_17h48.12.976,torte-2b,2020.1.3,MacIntel,60,13259,,,,,,,,,,,,,0,28,28,28,1,5,,,,,,,,,,,,,,,,,,,,,,,,,,,,,,,,,,,,,,,,,,,,,,,
,,,,,,,,,,,,,,,,,,,,,,,,20,female ,2020-09-06_17h48.12.976,torte-2b,2020.1.3,MacIntel,60,13259,,,,,,,,,,,,,0,29,29,29,1,2,,,,,,,,,,,,,,,,,,,,,,,,,,,,,,,,,,,,,,,,,,,,,,,
,,,,,,,,,,,,,,,,,,,,,,,,20,female ,2020-09-06_17h48.12.976,torte-2b,2020.1.3,MacIntel,60,13259,,,,,,,,,,,,space,0,30,30,30,1,5,0.447,,,,,,,,,,,,,,,,,,,,,,,,,,,,,,,,,,,,,,,,,,,,,,
,,,,,,,,,,,,,,,,,,,,,,,,20,female ,2020-09-06_17h48.12.976,torte-2b,2020.1.3,MacIntel,60,13259,,,,,,,,,,,,,0,31,31,31,1,2,,,,,,,,,,,,,,,,,,,,,,,,,,,,,,,,,,,,,,,,,,,,,,,
,,,,,,,,,,,,,,,,,,,,,,,,20,female ,2020-09-06_17h48.12.976,torte-2b,2020.1.3,MacIntel,60,13259,,,,,,,,,,,,space,0,32,32,32,1,5,0.763,,,,,,,,,,,,,,,,,,,,,,,,,,,,,,,,,,,,,,,,,,,,,,
,,,,,,,,,,,,,,,,,,,,,,,,20,female ,2020-09-06_17h48.12.976,torte-2b,2020.1.3,MacIntel,60,13259,,,,,,,,,,,,,0,33,33,33,1,1,,,,,,,,,,,,,,,,,,,,,,,,,,,,,,,,,,,,,,,,,,,,,,,
,,,,,,,,,,,,,,,,,,,,,,,,20,female ,2020-09-06_17h48.12.976,torte-2b,2020.1.3,MacIntel,60,13259,,,,,,,,,,,,space,0,34,34,34,1,1,0.6,,,,,,,,,,,,,,,,,,,,,,,,,,,,,,,,,,,,,,,,,,,,,,
,,,,,,,,,,,,,,,,,,,,,,,,20,female ,2020-09-06_17h48.12.976,torte-2b,2020.1.3,MacIntel,60,13259,,,,,,,,,,,,,,,,,,2,,0,0,0,0,1,,,,,,,,,,,,,,,,,,,,,,,,,,,,,,,,,,,,,,,,,
,,,,,,,,,,,,,,,,,,,,,,,,20,female ,2020-09-06_17h48.12.976,torte-2b,2020.1.3,MacIntel,60,13259,,,,,,,,,,,,,,,,,,2,,0,1,1,1,1,,,,,,,,,,,,,,,,,,,,,,,,,,,,,,,,,,,,,,,,,
,,,,,,,,,,,,,,,,,,,,,,,,20,female ,2020-09-06_17h48.12.976,torte-2b,2020.1.3,MacIntel,60,13259,,,,,,,,,,,,,,,,,,6,,0,2,2,2,1,,,,,,,,,,,,,,,,,,,,,,,,,,,,,,,,,,,,,,,,,
,,,,,,,,,,,,,,,,,,,,,,,,20,female ,2020-09-06_17h48.12.976,torte-2b,2020.1.3,MacIntel,60,13259,,,,,,,,,,,,space,,,,,,2,0.552,0,3,3,3,1,,,,,,,,,,,,,,,,,,,,,,,,,,,,,,,,,,,,,,,,,
,,,,,,,,,,,,,,,,,,,,,,,,20,female ,2020-09-06_17h48.12.976,torte-2b,2020.1.3,MacIntel,60,13259,,,,,,,,,,,,space,,,,,,6,0.822,0,4,4,4,1,,,,,,,,,,,,,,,,,,,,,,,,,,,,,,,,,,,,,,,,,
,,,,,,,,,,,,,,,,,,,,,,,,20,female ,2020-09-06_17h48.12.976,torte-2b,2020.1.3,MacIntel,60,13259,,,,,,,,,,,,space,,,,,,2,0.518,0,5,5,5,1,,,,,,,,,,,,,,,,,,,,,,,,,,,,,,,,,,,,,,,,,
,,,,,,,,,,,,,,,,,,,,,,,,20,female ,2020-09-06_17h48.12.976,torte-2b,2020.1.3,MacIntel,60,13259,,,,,,,,,,,,,,,,,,7,,0,6,6,6,1,,,,,,,,,,,,,,,,,,,,,,,,,,,,,,,,,,,,,,,,,
,,,,,,,,,,,,,,,,,,,,,,,,20,female ,2020-09-06_17h48.12.976,torte-2b,2020.1.3,MacIntel,60,13259,,,,,,,,,,,,space,,,,,,2,0.669,0,7,7,7,1,,,,,,,,,,,,,,,,,,,,,,,,,,,,,,,,,,,,,,,,,
,,,,,,,,,,,,,,,,,,,,,,,,20,female ,2020-09-06_17h48.12.976,torte-2b,2020.1.3,MacIntel,60,13259,,,,,,,,,,,,space,,,,,,7,0.663,0,8,8,8,1,,,,,,,,,,,,,,,,,,,,,,,,,,,,,,,,,,,,,,,,,
,,,,,,,,,,,,,,,,,,,,,,,,20,female ,2020-09-06_17h48.12.976,torte-2b,2020.1.3,MacIntel,60,13259,,,,,,,,,,,,space,,,,,,2,0.705,0,9,9,9,1,,,,,,,,,,,,,,,,,,,,,,,,,,,,,,,,,,,,,,,,,
,,,,,,,,,,,,,,,,,,,,,,,,20,female ,2020-09-06_17h48.12.976,torte-2b,2020.1.3,MacIntel,60,13259,,,,,,,,,,,,,,,,,,5,,0,10,10,10,1,,,,,,,,,,,,,,,,,,,,,,,,,,,,,,,,,,,,,,,,,
,,,,,,,,,,,,,,,,,,,,,,,,20,female ,2020-09-06_17h48.12.976,torte-2b,2020.1.3,MacIntel,60,13259,,,,,,,,,,,,,,,,,,4,,0,11,11,11,1,,,,,,,,,,,,,,,,,,,,,,,,,,,,,,,,,,,,,,,,,
,,,,,,,,,,,,,,,,,,,,,,,,20,female ,2020-09-06_17h48.12.976,torte-2b,2020.1.3,MacIntel,60,13259,,,,,,,,,,,,space,,,,,,5,0.419,0,12,12,12,1,,,,,,,,,,,,,,,,,,,,,,,,,,,,,,,,,,,,,,,,,
,,,,,,,,,,,,,,,,,,,,,,,,20,female ,2020-09-06_17h48.12.976,torte-2b,2020.1.3,MacIntel,60,13259,,,,,,,,,,,,,,,,,,6,,0,13,13,13,1,,,,,,,,,,,,,,,,,,,,,,,,,,,,,,,,,,,,,,,,,
,,,,,,,,,,,,,,,,,,,,,,,,20,female ,2020-09-06_17h48.12.976,torte-2b,2020.1.3,MacIntel,60,13259,,,,,,,,,,,,space,,,,,,5,0.578,0,14,14,14,1,,,,,,,,,,,,,,,,,,,,,,,,,,,,,,,,,,,,,,,,,
,,,,,,,,,,,,,,,,,,,,,,,,20,female ,2020-09-06_17h48.12.976,torte-2b,2020.1.3,MacIntel,60,13259,,,,,,,,,,,,space,,,,,,4,0.645,0,15,15,15,1,,,,,,,,,,,,,,,,,,,,,,,,,,,,,,,,,,,,,,,,,
,,,,,,,,,,,,,,,,,,,,,,,,20,female ,2020-09-06_17h48.12.976,torte-2b,2020.1.3,MacIntel,60,13259,,,,,,,,,,,,space,,,,,,5,0.912,0,16,16,16,1,,,,,,,,,,,,,,,,,,,,,,,,,,,,,,,,,,,,,,,,,
,,,,,,,,,,,,,,,,,,,,,,,,20,female ,2020-09-06_17h48.12.976,torte-2b,2020.1.3,MacIntel,60,13259,,,,,,,,,,,,,,,,,,3,,0,17,17,17,1,,,,,,,,,,,,,,,,,,,,,,,,,,,,,,,,,,,,,,,,,
,,,,,,,,,,,,,,,,,,,,,,,,20,female ,2020-09-06_17h48.12.976,torte-2b,2020.1.3,MacIntel,60,13259,,,,,,,,,,,,,,,,,,6,,0,18,18,18,1,,,,,,,,,,,,,,,,,,,,,,,,,,,,,,,,,,,,,,,,,
,,,,,,,,,,,,,,,,,,,,,,,,20,female ,2020-09-06_17h48.12.976,torte-2b,2020.1.3,MacIntel,60,13259,,,,,,,,,,,,,,,,,,6,,0,19,19,19,1,,,,,,,,,,,,,,,,,,,,,,,,,,,,,,,,,,,,,,,,,
,,,,,,,,,,,,,,,,,,,,,,,,20,female ,2020-09-06_17h48.12.976,torte-2b,2020.1.3,MacIntel,60,13259,,,,,,,,,,,,space,,,,,,6,0.402,0,20,20,20,1,,,,,,,,,,,,,,,,,,,,,,,,,,,,,,,,,,,,,,,,,
,,,,,,,,,,,,,,,,,,,,,,,,20,female ,2020-09-06_17h48.12.976,torte-2b,2020.1.3,MacIntel,60,13259,,,,,,,,,,,,,,,,,,4,,0,21,21,21,1,,,,,,,,,,,,,,,,,,,,,,,,,,,,,,,,,,,,,,,,,
,,,,,,,,,,,,,,,,,,,,,,,,20,female ,2020-09-06_17h48.12.976,torte-2b,2020.1.3,MacIntel,60,13259,,,,,,,,,,,,space,,,,,,6,0.596,0,22,22,22,1,,,,,,,,,,,,,,,,,,,,,,,,,,,,,,,,,,,,,,,,,
,,,,,,,,,,,,,,,,,,,,,,,,20,female ,2020-09-06_17h48.12.976,torte-2b,2020.1.3,MacIntel,60,13259,,,,,,,,,,,,space,,,,,,4,0.63,0,23,23,23,1,,,,,,,,,,,,,,,,,,,,,,,,,,,,,,,,,,,,,,,,,
,,,,,,,,,,,,,,,,,,,,,,,,20,female ,2020-09-06_17h48.12.976,torte-2b,2020.1.3,MacIntel,60,13259,,,,,,,,,,,,space,,,,,,6,1.03,0,24,24,24,1,,,,,,,,,,,,,,,,,,,,,,,,,,,,,,,,,,,,,,,,,
,,,,,,,,,,,,,,,,,,,,,,,,20,female ,2020-09-06_17h48.12.976,torte-2b,2020.1.3,MacIntel,60,13259,,,,,,,,,,,,,,,,,,6,,0,25,25,25,1,,,,,,,,,,,,,,,,,,,,,,,,,,,,,,,,,,,,,,,,,
,,,,,,,,,,,,,,,,,,,,,,,,20,female ,2020-09-06_17h48.12.976,torte-2b,2020.1.3,MacIntel,60,13259,,,,,,,,,,,,,,,,,,7,,0,26,26,26,1,,,,,,,,,,,,,,,,,,,,,,,,,,,,,,,,,,,,,,,,,
,,,,,,,,,,,,,,,,,,,,,,,,20,female ,2020-09-06_17h48.12.976,torte-2b,2020.1.3,MacIntel,60,13259,,,,,,,,,,,,,,,,,,1,,0,27,27,27,1,,,,,,,,,,,,,,,,,,,,,,,,,,,,,,,,,,,,,,,,,
,,,,,,,,,,,,,,,,,,,,,,,,20,female ,2020-09-06_17h48.12.976,torte-2b,2020.1.3,MacIntel,60,13259,,,,,,,,,,,,space,,,,,,7,0.763,0,28,28,28,1,,,,,,,,,,,,,,,,,,,,,,,,,,,,,,,,,,,,,,,,,
,,,,,,,,,,,,,,,,,,,,,,,,20,female ,2020-09-06_17h48.12.976,torte-2b,2020.1.3,MacIntel,60,13259,,,,,,,,,,,,,,,,,,4,,0,29,29,29,1,,,,,,,,,,,,,,,,,,,,,,,,,,,,,,,,,,,,,,,,,
,,,,,,,,,,,,,,,,,,,,,,,,20,female ,2020-09-06_17h48.12.976,torte-2b,2020.1.3,MacIntel,60,13259,,,,,,,,,,,,space,,,,,,7,0.996,0,30,30,30,1,,,,,,,,,,,,,,,,,,,,,,,,,,,,,,,,,,,,,,,,,
,,,,,,,,,,,,,,,,,,,,,,,,20,female ,2020-09-06_17h48.12.976,torte-2b,2020.1.3,MacIntel,60,13259,,,,,,,,,,,,,,,,,,3,,0,31,31,31,1,,,,,,,,,,,,,,,,,,,,,,,,,,,,,,,,,,,,,,,,,
,,,,,,,,,,,,,,,,,,,,,,,,20,female ,2020-09-06_17h48.12.976,torte-2b,2020.1.3,MacIntel,60,13259,,,,,,,,,,,,,,,,,,2,,0,32,32,32,1,,,,,,,,,,,,,,,,,,,,,,,,,,,,,,,,,,,,,,,,,
,,,,,,,,,,,,,,,,,,,,,,,,20,female ,2020-09-06_17h48.12.976,torte-2b,2020.1.3,MacIntel,60,13259,,,,,,,,,,,,,,,,,,6,,0,33,33,33,1,,,,,,,,,,,,,,,,,,,,,,,,,,,,,,,,,,,,,,,,,
,,,,,,,,,,,,,,,,,,,,,,,,20,female ,2020-09-06_17h48.12.976,torte-2b,2020.1.3,MacIntel,60,13259,,,,,,,,,,,,,,,,,,3,,0,34,34,34,1,,,,,,,,,,,,,,,,,,,,,,,,,,,,,,,,,,,,,,,,,
,,,,,,,,,,,,,,,,,,,,,,,,20,female ,2020-09-06_17h48.12.976,torte-2b,2020.1.3,MacIntel,60,13259,,,,,,,,,,,,,,,,,,7,,,,,,,0,0,0,0,1,,,,,,,,,,,,,,,,,,,,,,,,,,,,,,,,,,,,
,,,,,,,,,,,,,,,,,,,,,,,,20,female ,2020-09-06_17h48.12.976,torte-2b,2020.1.3,MacIntel,60,13259,,,,,,,,,,,,,,,,,,5,,,,,,,0,1,1,1,1,,,,,,,,,,,,,,,,,,,,,,,,,,,,,,,,,,,,
,,,,,,,,,,,,,,,,,,,,,,,,20,female ,2020-09-06_17h48.12.976,torte-2b,2020.1.3,MacIntel,60,13259,,,,,,,,,,,,,,,,,,4,,,,,,,0,2,2,2,1,,,,,,,,,,,,,,,,,,,,,,,,,,,,,,,,,,,,
,,,,,,,,,,,,,,,,,,,,,,,,20,female ,2020-09-06_17h48.12.976,torte-2b,2020.1.3,MacIntel,60,13259,,,,,,,,,,,,space,,,,,,5,0.599,,,,,,0,3,3,3,1,,,,,,,,,,,,,,,,,,,,,,,,,,,,,,,,,,,,
,,,,,,,,,,,,,,,,,,,,,,,,20,female ,2020-09-06_17h48.12.976,torte-2b,2020.1.3,MacIntel,60,13259,,,,,,,,,,,,,,,,,,6,,,,,,,0,4,4,4,1,,,,,,,,,,,,,,,,,,,,,,,,,,,,,,,,,,,,
,,,,,,,,,,,,,,,,,,,,,,,,20,female ,2020-09-06_17h48.12.976,torte-2b,2020.1.3,MacIntel,60,13259,,,,,,,,,,,,space,,,,,,5,0.411,,,,,,0,5,5,5,1,,,,,,,,,,,,,,,,,,,,,,,,,,,,,,,,,,,,
,,,,,,,,,,,,,,,,,,,,,,,,20,female ,2020-09-06_17h48.12.976,torte-2b,2020.1.3,MacIntel,60,13259,,,,,,,,,,,,,,,,,,3,,,,,,,0,6,6,6,1,,,,,,,,,,,,,,,,,,,,,,,,,,,,,,,,,,,,
,,,,,,,,,,,,,,,,,,,,,,,,20,female ,2020-09-06_17h48.12.976,torte-2b,2020.1.3,MacIntel,60,13259,,,,,,,,,,,,,,,,,,4,,,,,,,0,7,7,7,1,,,,,,,,,,,,,,,,,,,,,,,,,,,,,,,,,,,,
,,,,,,,,,,,,,,,,,,,,,,,,20,female ,2020-09-06_17h48.12.976,torte-2b,2020.1.3,MacIntel,60,13259,,,,,,,,,,,,space,,,,,,3,0.646,,,,,,0,8,8,8,1,,,,,,,,,,,,,,,,,,,,,,,,,,,,,,,,,,,,
,,,,,,,,,,,,,,,,,,,,,,,,20,female ,2020-09-06_17h48.12.976,torte-2b,2020.1.3,MacIntel,60,13259,,,,,,,,,,,,,,,,,,1,,,,,,,0,9,9,9,1,,,,,,,,,,,,,,,,,,,,,,,,,,,,,,,,,,,,
,,,,,,,,,,,,,,,,,,,,,,,,20,female ,2020-09-06_17h48.12.976,torte-2b,2020.1.3,MacIntel,60,13259,,,,,,,,,,,,,,,,,,2,,,,,,,0,10,10,10,1,,,,,,,,,,,,,,,,,,,,,,,,,,,,,,,,,,,,
,,,,,,,,,,,,,,,,,,,,,,,,20,female ,2020-09-06_17h48.12.976,torte-2b,2020.1.3,MacIntel,60,13259,,,,,,,,,,,,space,,,,,,1,0.337,,,,,,0,11,11,11,1,,,,,,,,,,,,,,,,,,,,,,,,,,,,,,,,,,,,
,,,,,,,,,,,,,,,,,,,,,,,,20,female ,2020-09-06_17h48.12.976,torte-2b,2020.1.3,MacIntel,60,13259,,,,,,,,,,,,,,,,,,2,,,,,,,0,12,12,12,1,,,,,,,,,,,,,,,,,,,,,,,,,,,,,,,,,,,,
,,,,,,,,,,,,,,,,,,,,,,,,20,female ,2020-09-06_17h48.12.976,torte-2b,2020.1.3,MacIntel,60,13259,,,,,,,,,,,,space,,,,,,1,0.485,,,,,,0,13,13,13,1,,,,,,,,,,,,,,,,,,,,,,,,,,,,,,,,,,,,
,,,,,,,,,,,,,,,,,,,,,,,,20,female ,2020-09-06_17h48.12.976,torte-2b,2020.1.3,MacIntel,60,13259,,,,,,,,,,,,,,,,,,3,,,,,,,0,14,14,14,1,,,,,,,,,,,,,,,,,,,,,,,,,,,,,,,,,,,,
,,,,,,,,,,,,,,,,,,,,,,,,20,female ,2020-09-06_17h48.12.976,torte-2b,2020.1.3,MacIntel,60,13259,,,,,,,,,,,,space,,,,,,1,0.413,,,,,,0,15,15,15,1,,,,,,,,,,,,,,,,,,,,,,,,,,,,,,,,,,,,
,,,,,,,,,,,,,,,,,,,,,,,,20,female ,2020-09-06_17h48.12.976,torte-2b,2020.1.3,MacIntel,60,13259,,,,,,,,,,,,,,,,,,7,,,,,,,0,16,16,16,1,,,,,,,,,,,,,,,,,,,,,,,,,,,,,,,,,,,,
,,,,,,,,,,,,,,,,,,,,,,,,20,female ,2020-09-06_17h48.12.976,torte-2b,2020.1.3,MacIntel,60,13259,,,,,,,,,,,,,,,,,,7,,,,,,,0,17,17,17,1,,,,,,,,,,,,,,,,,,,,,,,,,,,,,,,,,,,,
,,,,,,,,,,,,,,,,,,,,,,,,20,female ,2020-09-06_17h48.12.976,torte-2b,2020.1.3,MacIntel,60,13259,,,,,,,,,,,,,,,,,,4,,,,,,,0,18,18,18,1,,,,,,,,,,,,,,,,,,,,,,,,,,,,,,,,,,,,
,,,,,,,,,,,,,,,,,,,,,,,,20,female ,2020-09-06_17h48.12.976,torte-2b,2020.1.3,MacIntel,60,13259,,,,,,,,,,,,,,,,,,7,,,,,,,0,19,19,19,1,,,,,,,,,,,,,,,,,,,,,,,,,,,,,,,,,,,,
,,,,,,,,,,,,,,,,,,,,,,,,20,female ,2020-09-06_17h48.12.976,torte-2b,2020.1.3,MacIntel,60,13259,,,,,,,,,,,,,,,,,,3,,,,,,,0,20,20,20,1,,,,,,,,,,,,,,,,,,,,,,,,,,,,,,,,,,,,
,,,,,,,,,,,,,,,,,,,,,,,,20,female ,2020-09-06_17h48.12.976,torte-2b,2020.1.3,MacIntel,60,13259,,,,,,,,,,,,space,,,,,,7,0.696,,,,,,0,21,21,21,1,,,,,,,,,,,,,,,,,,,,,,,,,,,,,,,,,,,,
,,,,,,,,,,,,,,,,,,,,,,,,20,female ,2020-09-06_17h48.12.976,torte-2b,2020.1.3,MacIntel,60,13259,,,,,,,,,,,,,,,,,,3,,,,,,,0,22,22,22,1,,,,,,,,,,,,,,,,,,,,,,,,,,,,,,,,,,,,
,,,,,,,,,,,,,,,,,,,,,,,,20,female ,2020-09-06_17h48.12.976,torte-2b,2020.1.3,MacIntel,60,13259,,,,,,,,,,,,,,,,,,1,,,,,,,0,23,23,23,1,,,,,,,,,,,,,,,,,,,,,,,,,,,,,,,,,,,,
,,,,,,,,,,,,,,,,,,,,,,,,20,female ,2020-09-06_17h48.12.976,torte-2b,2020.1.3,MacIntel,60,13259,,,,,,,,,,,,,,,,,,6,,,,,,,0,24,24,24,1,,,,,,,,,,,,,,,,,,,,,,,,,,,,,,,,,,,,
,,,,,,,,,,,,,,,,,,,,,,,,20,female ,2020-09-06_17h48.12.976,torte-2b,2020.1.3,MacIntel,60,13259,,,,,,,,,,,,space,,,,,,3,0.764,,,,,,0,25,25,25,1,,,,,,,,,,,,,,,,,,,,,,,,,,,,,,,,,,,,
,,,,,,,,,,,,,,,,,,,,,,,,20,female ,2020-09-06_17h48.12.976,torte-2b,2020.1.3,MacIntel,60,13259,,,,,,,,,,,,,,,,,,2,,,,,,,0,26,26,26,1,,,,,,,,,,,,,,,,,,,,,,,,,,,,,,,,,,,,
,,,,,,,,,,,,,,,,,,,,,,,,20,female ,2020-09-06_17h48.12.976,torte-2b,2020.1.3,MacIntel,60,13259,,,,,,,,,,,,,,,,,,3,,,,,,,0,27,27,27,1,,,,,,,,,,,,,,,,,,,,,,,,,,,,,,,,,,,,
,,,,,,,,,,,,,,,,,,,,,,,,20,female ,2020-09-06_17h48.12.976,torte-2b,2020.1.3,MacIntel,60,13259,,,,,,,,,,,,,,,,,,1,,,,,,,0,28,28,28,1,,,,,,,,,,,,,,,,,,,,,,,,,,,,,,,,,,,,
,,,,,,,,,,,,,,,,,,,,,,,,20,female ,2020-09-06_17h48.12.976,torte-2b,2020.1.3,MacIntel,60,13259,,,,,,,,,,,,space,,,,,,3,0.865,,,,,,0,29,29,29,1,,,,,,,,,,,,,,,,,,,,,,,,,,,,,,,,,,,,
,,,,,,,,,,,,,,,,,,,,,,,,20,female ,2020-09-06_17h48.12.976,torte-2b,2020.1.3,MacIntel,60,13259,,,,,,,,,,,,space,,,,,,1,1.255,,,,,,0,30,30,30,1,,,,,,,,,,,,,,,,,,,,,,,,,,,,,,,,,,,,
,,,,,,,,,,,,,,,,,,,,,,,,20,female ,2020-09-06_17h48.12.976,torte-2b,2020.1.3,MacIntel,60,13259,,,,,,,,,,,,,,,,,,7,,,,,,,0,31,31,31,1,,,,,,,,,,,,,,,,,,,,,,,,,,,,,,,,,,,,
,,,,,,,,,,,,,,,,,,,,,,,,20,female ,2020-09-06_17h48.12.976,torte-2b,2020.1.3,MacIntel,60,13259,,,,,,,,,,,,space,,,,,,5,0.614,,,,,,0,32,32,32,1,,,,,,,,,,,,,,,,,,,,,,,,,,,,,,,,,,,,
,,,,,,,,,,,,,,,,,,,,,,,,20,female ,2020-09-06_17h48.12.976,torte-2b,2020.1.3,MacIntel,60,13259,,,,,,,,,,,,,,,,,,7,,,,,,,0,33,33,33,1,,,,,,,,,,,,,,,,,,,,,,,,,,,,,,,,,,,,
,,,,,,,,,,,,,,,,,,,,,,,,20,female ,2020-09-06_17h48.12.976,torte-2b,2020.1.3,MacIntel,60,13259,,,,,,,,,,,,,,,,,,2,,,,,,,0,34,34,34,1,,,,,,,,,,,,,,,,,,,,,,,,,,,,,,,,,,,,
,,,,,,,,,,,,,,,,,,,,,,,,20,female ,2020-09-06_17h48.12.976,torte-2b,2020.1.3,MacIntel,60,13259,,,,,,,,,,,,,,,,,,3,,,,,,,,,,,,0,0,0,0,1,,,,,,,,,,,,,,,,,,,,,,,,,,,,,,,
,,,,,,,,,,,,,,,,,,,,,,,,20,female ,2020-09-06_17h48.12.976,torte-2b,2020.1.3,MacIntel,60,13259,,,,,,,,,,,,,,,,,,7,,,,,,,,,,,,0,1,1,1,1,,,,,,,,,,,,,,,,,,,,,,,,,,,,,,,
,,,,,,,,,,,,,,,,,,,,,,,,20,female ,2020-09-06_17h48.12.976,torte-2b,2020.1.3,MacIntel,60,13259,,,,,,,,,,,,,,,,,,7,,,,,,,,,,,,0,2,2,2,1,,,,,,,,,,,,,,,,,,,,,,,,,,,,,,,
,,,,,,,,,,,,,,,,,,,,,,,,20,female ,2020-09-06_17h48.12.976,torte-2b,2020.1.3,MacIntel,60,13259,,,,,,,,,,,,,,,,,,4,,,,,,,,,,,,0,3,3,3,1,,,,,,,,,,,,,,,,,,,,,,,,,,,,,,,
,,,,,,,,,,,,,,,,,,,,,,,,20,female ,2020-09-06_17h48.12.976,torte-2b,2020.1.3,MacIntel,60,13259,,,,,,,,,,,,,,,,,,5,,,,,,,,,,,,0,4,4,4,1,,,,,,,,,,,,,,,,,,,,,,,,,,,,,,,
,,,,,,,,,,,,,,,,,,,,,,,,20,female ,2020-09-06_17h48.12.976,torte-2b,2020.1.3,MacIntel,60,13259,,,,,,,,,,,,,,,,,,4,,,,,,,,,,,,0,5,5,5,1,,,,,,,,,,,,,,,,,,,,,,,,,,,,,,,
,,,,,,,,,,,,,,,,,,,,,,,,20,female ,2020-09-06_17h48.12.976,torte-2b,2020.1.3,MacIntel,60,13259,,,,,,,,,,,,,,,,,,2,,,,,,,,,,,,0,6,6,6,1,,,,,,,,,,,,,,,,,,,,,,,,,,,,,,,
,,,,,,,,,,,,,,,,,,,,,,,,20,female ,2020-09-06_17h48.12.976,torte-2b,2020.1.3,MacIntel,60,13259,,,,,,,,,,,,,,,,,,4,,,,,,,,,,,,0,7,7,7,1,,,,,,,,,,,,,,,,,,,,,,,,,,,,,,,
,,,,,,,,,,,,,,,,,,,,,,,,20,female ,2020-09-06_17h48.12.976,torte-2b,2020.1.3,MacIntel,60,13259,,,,,,,,,,,,space,,,,,,2,0.402,,,,,,,,,,,0,8,8,8,1,,,,,,,,,,,,,,,,,,,,,,,,,,,,,,,
,,,,,,,,,,,,,,,,,,,,,,,,20,female ,2020-09-06_17h48.12.976,torte-2b,2020.1.3,MacIntel,60,13259,,,,,,,,,,,,space,,,,,,2,1.379,,,,,,,,,,,0,9,9,9,1,,,,,,,,,,,,,,,,,,,,,,,,,,,,,,,
,,,,,,,,,,,,,,,,,,,,,,,,20,female ,2020-09-06_17h48.12.976,torte-2b,2020.1.3,MacIntel,60,13259,,,,,,,,,,,,,,,,,,6,,,,,,,,,,,,0,10,10,10,1,,,,,,,,,,,,,,,,,,,,,,,,,,,,,,,
,,,,,,,,,,,,,,,,,,,,,,,,20,female ,2020-09-06_17h48.12.976,torte-2b,2020.1.3,MacIntel,60,13259,,,,,,,,,,,,space,,,,,,2,0.562,,,,,,,,,,,0,11,11,11,1,,,,,,,,,,,,,,,,,,,,,,,,,,,,,,,
,,,,,,,,,,,,,,,,,,,,,,,,20,female ,2020-09-06_17h48.12.976,torte-2b,2020.1.3,MacIntel,60,13259,,,,,,,,,,,,,,,,,,2,,,,,,,,,,,,0,12,12,12,1,,,,,,,,,,,,,,,,,,,,,,,,,,,,,,,
,,,,,,,,,,,,,,,,,,,,,,,,20,female ,2020-09-06_17h48.12.976,torte-2b,2020.1.3,MacIntel,60,13259,,,,,,,,,,,,space,,,,,,2,0.584,,,,,,,,,,,0,13,13,13,1,,,,,,,,,,,,,,,,,,,,,,,,,,,,,,,
,,,,,,,,,,,,,,,,,,,,,,,,20,female ,2020-09-06_17h48.12.976,torte-2b,2020.1.3,MacIntel,60,13259,,,,,,,,,,,,space,,,,,,2,0.962,,,,,,,,,,,0,14,14,14,1,,,,,,,,,,,,,,,,,,,,,,,,,,,,,,,
,,,,,,,,,,,,,,,,,,,,,,,,20,female ,2020-09-06_17h48.12.976,torte-2b,2020.1.3,MacIntel,60,13259,,,,,,,,,,,,,,,,,,4,,,,,,,,,,,,0,15,15,15,1,,,,,,,,,,,,,,,,,,,,,,,,,,,,,,,
,,,,,,,,,,,,,,,,,,,,,,,,20,female ,2020-09-06_17h48.12.976,torte-2b,2020.1.3,MacIntel,60,13259,,,,,,,,,,,,,,,,,,3,,,,,,,,,,,,0,16,16,16,1,,,,,,,,,,,,,,,,,,,,,,,,,,,,,,,
,,,,,,,,,,,,,,,,,,,,,,,,20,female ,2020-09-06_17h48.12.976,torte-2b,2020.1.3,MacIntel,60,13259,,,,,,,,,,,,space,,,,,,7,0.321,,,,,,,,,,,0,17,17,17,1,,,,,,,,,,,,,,,,,,,,,,,,,,,,,,,
,,,,,,,,,,,,,,,,,,,,,,,,20,female ,2020-09-06_17h48.12.976,torte-2b,2020.1.3,MacIntel,60,13259,,,,,,,,,,,,,,,,,,4,,,,,,,,,,,,0,18,18,18,1,,,,,,,,,,,,,,,,,,,,,,,,,,,,,,,
,,,,,,,,,,,,,,,,,,,,,,,,20,female ,2020-09-06_17h48.12.976,torte-2b,2020.1.3,MacIntel,60,13259,,,,,,,,,,,,space,,,,,,7,0.352,,,,,,,,,,,0,19,19,19,1,,,,,,,,,,,,,,,,,,,,,,,,,,,,,,,
,,,,,,,,,,,,,,,,,,,,,,,,20,female ,2020-09-06_17h48.12.976,torte-2b,2020.1.3,MacIntel,60,13259,,,,,,,,,,,,,,,,,,7,,,,,,,,,,,,0,20,20,20,1,,,,,,,,,,,,,,,,,,,,,,,,,,,,,,,
,,,,,,,,,,,,,,,,,,,,,,,,20,female ,2020-09-06_17h48.12.976,torte-2b,2020.1.3,MacIntel,60,13259,,,,,,,,,,,,space,,,,,,7,0.698,,,,,,,,,,,0,21,21,21,1,,,,,,,,,,,,,,,,,,,,,,,,,,,,,,,
,,,,,,,,,,,,,,,,,,,,,,,,20,female ,2020-09-06_17h48.12.976,torte-2b,2020.1.3,MacIntel,60,13259,,,,,,,,,,,,space,,,,,,7,1.43,,,,,,,,,,,0,22,22,22,1,,,,,,,,,,,,,,,,,,,,,,,,,,,,,,,
,,,,,,,,,,,,,,,,,,,,,,,,20,female ,2020-09-06_17h48.12.976,torte-2b,2020.1.3,MacIntel,60,13259,,,,,,,,,,,,,,,,,,1,,,,,,,,,,,,0,23,23,23,1,,,,,,,,,,,,,,,,,,,,,,,,,,,,,,,
,,,,,,,,,,,,,,,,,,,,,,,,20,female ,2020-09-06_17h48.12.976,torte-2b,2020.1.3,MacIntel,60,13259,,,,,,,,,,,,space,,,,,,7,1.115,,,,,,,,,,,0,24,24,24,1,,,,,,,,,,,,,,,,,,,,,,,,,,,,,,,
,,,,,,,,,,,,,,,,,,,,,,,,20,female ,2020-09-06_17h48.12.976,torte-2b,2020.1.3,MacIntel,60,13259,,,,,,,,,,,,space,,,,,,1,1.362,,,,,,,,,,,0,25,25,25,1,,,,,,,,,,,,,,,,,,,,,,,,,,,,,,,
,,,,,,,,,,,,,,,,,,,,,,,,20,female ,2020-09-06_17h48.12.976,torte-2b,2020.1.3,MacIntel,60,13259,,,,,,,,,,,,space,,,,,,7,0.86,,,,,,,,,,,0,26,26,26,1,,,,,,,,,,,,,,,,,,,,,,,,,,,,,,,
,,,,,,,,,,,,,,,,,,,,,,,,20,female ,2020-09-06_17h48.12.976,torte-2b,2020.1.3,MacIntel,60,13259,,,,,,,,,,,,,,,,,,2,,,,,,,,,,,,0,27,27,27,1,,,,,,,,,,,,,,,,,,,,,,,,,,,,,,,
,,,,,,,,,,,,,,,,,,,,,,,,20,female ,2020-09-06_17h48.12.976,torte-2b,2020.1.3,MacIntel,60,13259,,,,,,,,,,,,,,,,,,5,,,,,,,,,,,,0,28,28,28,1,,,,,,,,,,,,,,,,,,,,,,,,,,,,,,,
,,,,,,,,,,,,,,,,,,,,,,,,20,female ,2020-09-06_17h48.12.976,torte-2b,2020.1.3,MacIntel,60,13259,,,,,,,,,,,,,,,,,,5,,,,,,,,,,,,0,29,29,29,1,,,,,,,,,,,,,,,,,,,,,,,,,,,,,,,
,,,,,,,,,,,,,,,,,,,,,,,,20,female ,2020-09-06_17h48.12.976,torte-2b,2020.1.3,MacIntel,60,13259,,,,,,,,,,,,space,,,,,,5,0.371,,,,,,,,,,,0,30,30,30,1,,,,,,,,,,,,,,,,,,,,,,,,,,,,,,,
,,,,,,,,,,,,,,,,,,,,,,,,20,female ,2020-09-06_17h48.12.976,torte-2b,2020.1.3,MacIntel,60,13259,,,,,,,,,,,,,,,,,,1,,,,,,,,,,,,0,31,31,31,1,,,,,,,,,,,,,,,,,,,,,,,,,,,,,,,
,,,,,,,,,,,,,,,,,,,,,,,,20,female ,2020-09-06_17h48.12.976,torte-2b,2020.1.3,MacIntel,60,13259,,,,,,,,,,,,space,,,,,,5,1.03,,,,,,,,,,,0,32,32,32,1,,,,,,,,,,,,,,,,,,,,,,,,,,,,,,,
,,,,,,,,,,,,,,,,,,,,,,,,20,female ,2020-09-06_17h48.12.976,torte-2b,2020.1.3,MacIntel,60,13259,,,,,,,,,,,,,,,,,,3,,,,,,,,,,,,0,33,33,33,1,,,,,,,,,,,,,,,,,,,,,,,,,,,,,,,
,,,,,,,,,,,,,,,,,,,,,,,,20,female ,2020-09-06_17h48.12.976,torte-2b,2020.1.3,MacIntel,60,13259,,,,,,,,,,,,space,,,,,,3,0.422,,,,,,,,,,,0,34,34,34,1,,,,,,,,,,,,,,,,,,,,,,,,,,,,,,,
,,,,,,,,,,,,l,1.332,Correct!,,,,,,t5.png,t2.png,3,0.0000131,20,female ,2020-09-06_17h48.12.976,torte-2b,2020.1.3,MacIntel,60,13259,space,1.534,,,,,,,,,,,,,,,,,,,,,,,,,,,,,,,,,space,3.451,0,0,0,119,1,,,,,,,,,,,,,,,,,,,,,,,,
,,,,,,,,,,,,l,0.615,Correct!,,,,,,t2.png,t5.png,3,0.0000131,20,female ,2020-09-06_17h48.12.976,torte-2b,2020.1.3,MacIntel,60,13259,,,,,,,,,,,,,,,,,,,,,,,,,,,,,,,,,,,,,0,1,1,104,1,,,,,,,,,,,,,,,,,,,,,,,,
,,,,,,,,,,,,a,0.703,Correct!,,,,,,t5.png,t4.png,1,0.9,20,female ,2020-09-06_17h48.12.976,torte-2b,2020.1.3,MacIntel,60,13259,,,,,,,,,,,,,,,,,,,,,,,,,,,,,,,,,,,,,0,2,2,49,1,,,,,,,,,,,,,,,,,,,,,,,,
,,,,,,,,,,,,l,0.582,Correct!,,,,,,t2.png,t4.png,2,0.059078,20,female ,2020-09-06_17h48.12.976,torte-2b,2020.1.3,MacIntel,60,13259,,,,,,,,,,,,,,,,,,,,,,,,,,,,,,,,,,,,,0,3,3,77,1,,,,,,,,,,,,,,,,,,,,,,,,
,,,,,,,,,,,,a,0.623,Correct!,,,,,,t4.png,t4.png,0,0.98115,20,female ,2020-09-06_17h48.12.976,torte-2b,2020.1.3,MacIntel,60,13259,,,,,,,,,,,,,,,,,,,,,,,,,,,,,,,,,,,,,0,4,4,90,1,,,,,,,,,,,,,,,,,,,,,,,,
,,,,,,,,,,,,l,0.933,Incorrect,,,,,,t2.png,t3.png,1,0.90855,20,female ,2020-09-06_17h48.12.976,torte-2b,2020.1.3,MacIntel,60,13259,,,,,,,,,,,,,,,,,,,,,,,,,,,,,,,,,,,,,0,5,5,65,1,,,,,,,,,,,,,,,,,,,,,,,,
,,,,,,,,,,,,l,0.848,Correct!,,,,,,t5.png,t2.png,3,0.0000131,20,female ,2020-09-06_17h48.12.976,torte-2b,2020.1.3,MacIntel,60,13259,,,,,,,,,,,,,,,,,,,,,,,,,,,,,,,,,,,,,0,6,6,51,1,,,,,,,,,,,,,,,,,,,,,,,,
,,,,,,,,,,,,l,0.733,Incorrect,,,,,,t3.png,t4.png,1,0.909,20,female ,2020-09-06_17h48.12.976,torte-2b,2020.1.3,MacIntel,60,13259,,,,,,,,,,,,,,,,,,,,,,,,,,,,,,,,,,,,,0,7,7,82,1,,,,,,,,,,,,,,,,,,,,,,,,
,,,,,,,,,,,,l,0.706,Incorrect,,,,,,t3.png,t4.png,1,0.90855,20,female ,2020-09-06_17h48.12.976,torte-2b,2020.1.3,MacIntel,60,13259,,,,,,,,,,,,,,,,,,,,,,,,,,,,,,,,,,,,,0,8,8,84,1,,,,,,,,,,,,,,,,,,,,,,,,
,,,,,,,,,,,,l,0.917,Correct!,,,,,,t4.png,t1.png,3,0.0000131,20,female ,2020-09-06_17h48.12.976,torte-2b,2020.1.3,MacIntel,60,13259,,,,,,,,,,,,,,,,,,,,,,,,,,,,,,,,,,,,,0,9,9,48,1,,,,,,,,,,,,,,,,,,,,,,,,
,,,,,,,,,,,,a,0.768,Correct!,,,,,,t3.png,t4.png,1,0.909,20,female ,2020-09-06_17h48.12.976,torte-2b,2020.1.3,MacIntel,60,13259,,,,,,,,,,,,,,,,,,,,,,,,,,,,,,,,,,,,,0,10,10,106,1,,,,,,,,,,,,,,,,,,,,,,,,
,,,,,,,,,,,,a,0.966,Correct!,,,,,,t2.png,t1.png,1,0.90025,20,female ,2020-09-06_17h48.12.976,torte-2b,2020.1.3,MacIntel,60,13259,,,,,,,,,,,,,,,,,,,,,,,,,,,,,,,,,,,,,0,11,11,4,1,,,,,,,,,,,,,,,,,,,,,,,,
,,,,,,,,,,,,l,0.616,Correct!,,,,,,t1.png,t5.png,4,9.55E-11,20,female ,2020-09-06_17h48.12.976,torte-2b,2020.1.3,MacIntel,60,13259,,,,,,,,,,,,,,,,,,,,,,,,,,,,,,,,,,,,,0,12,12,41,1,,,,,,,,,,,,,,,,,,,,,,,,
,,,,,,,,,,,,a,0.872,Correct!,,,,,,t4.png,t5.png,1,0.90025,20,female ,2020-09-06_17h48.12.976,torte-2b,2020.1.3,MacIntel,60,13259,,,,,,,,,,,,,,,,,,,,,,,,,,,,,,,,,,,,,0,13,13,47,1,,,,,,,,,,,,,,,,,,,,,,,,
,,,,,,,,,,,,l,0.814,Correct!,,,,,,t2.png,t4.png,2,0.059078,20,female ,2020-09-06_17h48.12.976,torte-2b,2020.1.3,MacIntel,60,13259,,,,,,,,,,,,,,,,,,,,,,,,,,,,,,,,,,,,,0,14,14,24,1,,,,,,,,,,,,,,,,,,,,,,,,
,,,,,,,,,,,,a,0.615,Correct!,,,,,,t5.png,t4.png,1,0.90025,20,female ,2020-09-06_17h48.12.976,torte-2b,2020.1.3,MacIntel,60,13259,,,,,,,,,,,,,,,,,,,,,,,,,,,,,,,,,,,,,0,15,15,34,1,,,,,,,,,,,,,,,,,,,,,,,,
,,,,,,,,,,,,l,0.649,Correct!,,,,,,t2.png,t5.png,3,0.0000131,20,female ,2020-09-06_17h48.12.976,torte-2b,2020.1.3,MacIntel,60,13259,,,,,,,,,,,,,,,,,,,,,,,,,,,,,,,,,,,,,0,16,16,40,1,,,,,,,,,,,,,,,,,,,,,,,,
,,,,,,,,,,,,a,0.784,Correct!,,,,,,t3.png,t2.png,1,0.90855,20,female ,2020-09-06_17h48.12.976,torte-2b,2020.1.3,MacIntel,60,13259,,,,,,,,,,,,,,,,,,,,,,,,,,,,,,,,,,,,,0,17,17,97,1,,,,,,,,,,,,,,,,,,,,,,,,
,,,,,,,,,,,,a,0.984,Correct!,,,,,,t2.png,t2.png,0,0.98115,20,female ,2020-09-06_17h48.12.976,torte-2b,2020.1.3,MacIntel,60,13259,,,,,,,,,,,,,,,,,,,,,,,,,,,,,,,,,,,,,0,18,18,59,1,,,,,,,,,,,,,,,,,,,,,,,,
,,,,,,,,,,,,a,0.917,Correct!,,,,,,t4.png,t3.png,1,0.90855,20,female ,2020-09-06_17h48.12.976,torte-2b,2020.1.3,MacIntel,60,13259,,,,,,,,,,,,,,,,,,,,,,,,,,,,,,,,,,,,,0,19,19,75,1,,,,,,,,,,,,,,,,,,,,,,,,
,,,,,,,,,,,,a,0.784,Correct!,,,,,,t4.png,t5.png,1,0.90025,20,female ,2020-09-06_17h48.12.976,torte-2b,2020.1.3,MacIntel,60,13259,,,,,,,,,,,,,,,,,,,,,,,,,,,,,,,,,,,,,0,20,20,58,1,,,,,,,,,,,,,,,,,,,,,,,,
,,,,,,,,,,,,a,0.724,Correct!,,,,,,t1.png,t1.png,0,0.978,20,female ,2020-09-06_17h48.12.976,torte-2b,2020.1.3,MacIntel,60,13259,,,,,,,,,,,,,,,,,,,,,,,,,,,,,,,,,,,,,0,21,21,28,1,,,,,,,,,,,,,,,,,,,,,,,,
,,,,,,,,,,,,l,0.584,Correct!,,,,,,t1.png,t5.png,4,9.55E-11,20,female ,2020-09-06_17h48.12.976,torte-2b,2020.1.3,MacIntel,60,13259,,,,,,,,,,,,,,,,,,,,,,,,,,,,,,,,,,,,,0,22,22,55,1,,,,,,,,,,,,,,,,,,,,,,,,
,,,,,,,,,,,,l,1.189,Correct!,,,,,,t1.png,t3.png,2,0.056466,20,female ,2020-09-06_17h48.12.976,torte-2b,2020.1.3,MacIntel,60,13259,,,,,,,,,,,,,,,,,,,,,,,,,,,,,,,,,,,,,0,23,23,87,1,,,,,,,,,,,,,,,,,,,,,,,,
,,,,,,,,,,,,l,0.999,Correct!,,,,,,t3.png,t1.png,2,0.056466,20,female ,2020-09-06_17h48.12.976,torte-2b,2020.1.3,MacIntel,60,13259,,,,,,,,,,,,,,,,,,,,,,,,,,,,,,,,,,,,,0,24,24,0,1,,,,,,,,,,,,,,,,,,,,,,,,
,,,,,,,,,,,,a,0.656,Incorrect,,,,,,t5.png,t3.png,2,0.056466,20,female ,2020-09-06_17h48.12.976,torte-2b,2020.1.3,MacIntel,60,13259,,,,,,,,,,,,,,,,,,,,,,,,,,,,,,,,,,,,,0,25,25,38,1,,,,,,,,,,,,,,,,,,,,,,,,
,,,,,,,,,,,,l,0.951,Correct!,,,,,,t1.png,t5.png,4,9.55E-11,20,female ,2020-09-06_17h48.12.976,torte-2b,2020.1.3,MacIntel,60,13259,,,,,,,,,,,,,,,,,,,,,,,,,,,,,,,,,,,,,0,26,26,12,1,,,,,,,,,,,,,,,,,,,,,,,,
,,,,,,,,,,,,l,1.001,Correct!,,,,,,t4.png,t2.png,2,0.059078,20,female ,2020-09-06_17h48.12.976,torte-2b,2020.1.3,MacIntel,60,13259,,,,,,,,,,,,,,,,,,,,,,,,,,,,,,,,,,,,,0,27,27,110,1,,,,,,,,,,,,,,,,,,,,,,,,
,,,,,,,,,,,,l,0.667,Correct!,,,,,,t4.png,t2.png,2,0.059078,20,female ,2020-09-06_17h48.12.976,torte-2b,2020.1.3,MacIntel,60,13259,,,,,,,,,,,,,,,,,,,,,,,,,,,,,,,,,,,,,0,28,28,86,1,,,,,,,,,,,,,,,,,,,,,,,,
,,,,,,,,,,,,l,0.831,Correct!,,,,,,t1.png,t4.png,3,0.0000131,20,female ,2020-09-06_17h48.12.976,torte-2b,2020.1.3,MacIntel,60,13259,,,,,,,,,,,,,,,,,,,,,,,,,,,,,,,,,,,,,0,29,29,107,1,,,,,,,,,,,,,,,,,,,,,,,,
,,,,,,,,,,,,l,0.785,Correct!,,,,,,t4.png,t2.png,2,0.059078,20,female ,2020-09-06_17h48.12.976,torte-2b,2020.1.3,MacIntel,60,13259,,,,,,,,,,,,,,,,,,,,,,,,,,,,,,,,,,,,,0,30,30,88,1,,,,,,,,,,,,,,,,,,,,,,,,
,,,,,,,,,,,,a,0.673,Correct!,,,,,,t2.png,t2.png,0,0.98115,20,female ,2020-09-06_17h48.12.976,torte-2b,2020.1.3,MacIntel,60,13259,,,,,,,,,,,,,,,,,,,,,,,,,,,,,,,,,,,,,0,31,31,57,1,,,,,,,,,,,,,,,,,,,,,,,,
,,,,,,,,,,,,a,0.667,Correct!,,,,,,t2.png,t2.png,0,0.98115,20,female ,2020-09-06_17h48.12.976,torte-2b,2020.1.3,MacIntel,60,13259,,,,,,,,,,,,,,,,,,,,,,,,,,,,,,,,,,,,,0,32,32,7,1,,,,,,,,,,,,,,,,,,,,,,,,
,,,,,,,,,,,,l,0.688,Correct!,,,,,,t3.png,t1.png,2,0.056466,20,female ,2020-09-06_17h48.12.976,torte-2b,2020.1.3,MacIntel,60,13259,,,,,,,,,,,,,,,,,,,,,,,,,,,,,,,,,,,,,0,33,33,64,1,,,,,,,,,,,,,,,,,,,,,,,,
,,,,,,,,,,,,a,0.654,Correct!,,,,,,t4.png,t4.png,0,0.98115,20,female ,2020-09-06_17h48.12.976,torte-2b,2020.1.3,MacIntel,60,13259,,,,,,,,,,,,,,,,,,,,,,,,,,,,,,,,,,,,,0,34,34,52,1,,,,,,,,,,,,,,,,,,,,,,,,
,,,,,,,,,,,,l,1.387,Correct!,,,,,,t5.png,t3.png,2,0.056466,20,female ,2020-09-06_17h48.12.976,torte-2b,2020.1.3,MacIntel,60,13259,,,,,,,,,,,,,,,,,,,,,,,,,,,,,,,,,,,,,0,35,35,114,1,,,,,,,,,,,,,,,,,,,,,,,,
,,,,,,,,,,,,l,0.752,Correct!,,,,,,t3.png,t5.png,2,0.056466,20,female ,2020-09-06_17h48.12.976,torte-2b,2020.1.3,MacIntel,60,13259,,,,,,,,,,,,,,,,,,,,,,,,,,,,,,,,,,,,,0,36,36,6,1,,,,,,,,,,,,,,,,,,,,,,,,
,,,,,,,,,,,,l,0.968,Correct!,,,,,,t5.png,t3.png,2,0.056466,20,female ,2020-09-06_17h48.12.976,torte-2b,2020.1.3,MacIntel,60,13259,,,,,,,,,,,,,,,,,,,,,,,,,,,,,,,,,,,,,0,37,37,108,1,,,,,,,,,,,,,,,,,,,,,,,,
,,,,,,,,,,,,l,0.834,Correct!,,,,,,t5.png,t1.png,4,9.55E-11,20,female ,2020-09-06_17h48.12.976,torte-2b,2020.1.3,MacIntel,60,13259,,,,,,,,,,,,,,,,,,,,,,,,,,,,,,,,,,,,,0,38,38,22,1,,,,,,,,,,,,,,,,,,,,,,,,
,,,,,,,,,,,,l,1.236,Incorrect,,,,,,t4.png,t5.png,1,0.90025,20,female ,2020-09-06_17h48.12.976,torte-2b,2020.1.3,MacIntel,60,13259,,,,,,,,,,,,,,,,,,,,,,,,,,,,,,,,,,,,,0,39,39,103,1,,,,,,,,,,,,,,,,,,,,,,,,
,,,,,,,,,,,,l,0.868,Correct!,,,,,,t1.png,t3.png,2,0.056466,20,female ,2020-09-06_17h48.12.976,torte-2b,2020.1.3,MacIntel,60,13259,,,,,,,,,,,,,,,,,,,,,,,,,,,,,,,,,,,,,0,40,40,63,1,,,,,,,,,,,,,,,,,,,,,,,,
,,,,,,,,,,,,l,0.701,Correct!,,,,,,t2.png,t5.png,3,0.0000131,20,female ,2020-09-06_17h48.12.976,torte-2b,2020.1.3,MacIntel,60,13259,,,,,,,,,,,,,,,,,,,,,,,,,,,,,,,,,,,,,0,41,41,66,1,,,,,,,,,,,,,,,,,,,,,,,,
,,,,,,,,,,,,l,0.687,Incorrect,,,,,,t2.png,t1.png,1,0.90025,20,female ,2020-09-06_17h48.12.976,torte-2b,2020.1.3,MacIntel,60,13259,,,,,,,,,,,,,,,,,,,,,,,,,,,,,,,,,,,,,0,42,42,19,1,,,,,,,,,,,,,,,,,,,,,,,,
,,,,,,,,,,,,l,0.637,Correct!,,,,,,t4.png,t1.png,3,0.0000131,20,female ,2020-09-06_17h48.12.976,torte-2b,2020.1.3,MacIntel,60,13259,,,,,,,,,,,,,,,,,,,,,,,,,,,,,,,,,,,,,0,43,43,13,1,,,,,,,,,,,,,,,,,,,,,,,,
,,,,,,,,,,,,l,0.749,Correct!,,,,,,t5.png,t1.png,4,9.55E-11,20,female ,2020-09-06_17h48.12.976,torte-2b,2020.1.3,MacIntel,60,13259,,,,,,,,,,,,,,,,,,,,,,,,,,,,,,,,,,,,,0,44,44,43,1,,,,,,,,,,,,,,,,,,,,,,,,
,,,,,,,,,,,,l,0.917,Correct!,,,,,,t4.png,t2.png,2,0.0591,20,female ,2020-09-06_17h48.12.976,torte-2b,2020.1.3,MacIntel,60,13259,,,,,,,,,,,,,,,,,,,,,,,,,,,,,,,,,,,,,0,45,45,36,1,,,,,,,,,,,,,,,,,,,,,,,,
,,,,,,,,,,,,a,0.651,Correct!,,,,,,t5.png,t4.png,1,0.90025,20,female ,2020-09-06_17h48.12.976,torte-2b,2020.1.3,MacIntel,60,13259,,,,,,,,,,,,,,,,,,,,,,,,,,,,,,,,,,,,,0,46,46,26,1,,,,,,,,,,,,,,,,,,,,,,,,
,,,,,,,,,,,,a,0.916,Incorrect,,,,,,t3.png,t1.png,2,0.056466,20,female ,2020-09-06_17h48.12.976,torte-2b,2020.1.3,MacIntel,60,13259,,,,,,,,,,,,,,,,,,,,,,,,,,,,,,,,,,,,,0,47,47,32,1,,,,,,,,,,,,,,,,,,,,,,,,
,,,,,,,,,,,,a,0.582,Correct!,,,,,,t5.png,t5.png,0,0.97829,20,female ,2020-09-06_17h48.12.976,torte-2b,2020.1.3,MacIntel,60,13259,,,,,,,,,,,,,,,,,,,,,,,,,,,,,,,,,,,,,0,48,48,70,1,,,,,,,,,,,,,,,,,,,,,,,,
,,,,,,,,,,,,l,0.617,Correct!,,,,,,t1.png,t5.png,4,9.55E-11,20,female ,2020-09-06_17h48.12.976,torte-2b,2020.1.3,MacIntel,60,13259,,,,,,,,,,,,,,,,,,,,,,,,,,,,,,,,,,,,,0,49,49,16,1,,,,,,,,,,,,,,,,,,,,,,,,
,,,,,,,,,,,,l,0.883,Incorrect,,,,,,t1.png,t1.png,0,0.97829,20,female ,2020-09-06_17h48.12.976,torte-2b,2020.1.3,MacIntel,60,13259,,,,,,,,,,,,,,,,,,,,,,,,,,,,,,,,,,,,,0,50,50,67,1,,,,,,,,,,,,,,,,,,,,,,,,
,,,,,,,,,,,,a,0.651,Correct!,,,,,,t5.png,t5.png,0,0.97829,20,female ,2020-09-06_17h48.12.976,torte-2b,2020.1.3,MacIntel,60,13259,,,,,,,,,,,,,,,,,,,,,,,,,,,,,,,,,,,,,0,51,51,73,1,,,,,,,,,,,,,,,,,,,,,,,,
,,,,,,,,,,,,a,0.62,Correct!,,,,,,t4.png,t4.png,0,0.98115,20,female ,2020-09-06_17h48.12.976,torte-2b,2020.1.3,MacIntel,60,13259,,,,,,,,,,,,,,,,,,,,,,,,,,,,,,,,,,,,,0,52,52,21,1,,,,,,,,,,,,,,,,,,,,,,,,
,,,,,,,,,,,,l,0.64,Correct!,,,,,,t1.png,t4.png,3,0.0000131,20,female ,2020-09-06_17h48.12.976,torte-2b,2020.1.3,MacIntel,60,13259,,,,,,,,,,,,,,,,,,,,,,,,,,,,,,,,,,,,,0,53,53,50,1,,,,,,,,,,,,,,,,,,,,,,,,
,,,,,,,,,,,,a,1.215,Incorrect,,,,,,t5.png,t3.png,2,0.056466,20,female ,2020-09-06_17h48.12.976,torte-2b,2020.1.3,MacIntel,60,13259,,,,,,,,,,,,,,,,,,,,,,,,,,,,,,,,,,,,,0,54,54,56,1,,,,,,,,,,,,,,,,,,,,,,,,
,,,,,,,,,,,,l,0.788,Correct!,,,,,,t3.png,t5.png,2,0.0565,20,female ,2020-09-06_17h48.12.976,torte-2b,2020.1.3,MacIntel,60,13259,,,,,,,,,,,,,,,,,,,,,,,,,,,,,,,,,,,,,0,55,55,83,1,,,,,,,,,,,,,,,,,,,,,,,,
,,,,,,,,,,,,a,1.118,Correct!,,,,,,t2.png,t1.png,1,0.90025,20,female ,2020-09-06_17h48.12.976,torte-2b,2020.1.3,MacIntel,60,13259,,,,,,,,,,,,,,,,,,,,,,,,,,,,,,,,,,,,,0,56,56,62,1,,,,,,,,,,,,,,,,,,,,,,,,
,,,,,,,,,,,,a,1.031,Correct!,,,,,,t4.png,t3.png,1,0.90855,20,female ,2020-09-06_17h48.12.976,torte-2b,2020.1.3,MacIntel,60,13259,,,,,,,,,,,,,,,,,,,,,,,,,,,,,,,,,,,,,0,57,57,45,1,,,,,,,,,,,,,,,,,,,,,,,,
,,,,,,,,,,,,a,0.639,Correct!,,,,,,t4.png,t4.png,0,0.98115,20,female ,2020-09-06_17h48.12.976,torte-2b,2020.1.3,MacIntel,60,13259,,,,,,,,,,,,,,,,,,,,,,,,,,,,,,,,,,,,,0,58,58,79,1,,,,,,,,,,,,,,,,,,,,,,,,
,,,,,,,,,,,,l,1.024,Correct!,,,,,,t1.png,t3.png,2,0.056466,20,female ,2020-09-06_17h48.12.976,torte-2b,2020.1.3,MacIntel,60,13259,,,,,,,,,,,,,,,,,,,,,,,,,,,,,,,,,,,,,0,59,59,99,1,,,,,,,,,,,,,,,,,,,,,,,,
,,,,,,,,,,,,a,0.834,Correct!,,,,,,t2.png,t3.png,1,0.90855,20,female ,2020-09-06_17h48.12.976,torte-2b,2020.1.3,MacIntel,60,13259,,,,,,,,,,,,,,,,,,,,,,,,,,,,,,,,,,,,,0,60,60,10,1,,,,,,,,,,,,,,,,,,,,,,,,
,,,,,,,,,,,,a,0.736,Correct!,,,,,,t3.png,t2.png,1,0.90855,20,female ,2020-09-06_17h48.12.976,torte-2b,2020.1.3,MacIntel,60,13259,,,,,,,,,,,,,,,,,,,,,,,,,,,,,,,,,,,,,0,61,61,18,1,,,,,,,,,,,,,,,,,,,,,,,,
,,,,,,,,,,,,l,0.8,Correct!,,,,,,t5.png,t1.png,4,9.55E-11,20,female ,2020-09-06_17h48.12.976,torte-2b,2020.1.3,MacIntel,60,13259,,,,,,,,,,,,,,,,,,,,,,,,,,,,,,,,,,,,,0,62,62,71,1,,,,,,,,,,,,,,,,,,,,,,,,
,,,,,,,,,,,,a,0.732,Correct!,,,,,,t4.png,t4.png,0,0.98115,20,female ,2020-09-06_17h48.12.976,torte-2b,2020.1.3,MacIntel,60,13259,,,,,,,,,,,,,,,,,,,,,,,,,,,,,,,,,,,,,0,63,63,80,1,,,,,,,,,,,,,,,,,,,,,,,,
,,,,,,,,,,,,a,0.832,Correct!,,,,,,t3.png,t2.png,1,0.909,20,female ,2020-09-06_17h48.12.976,torte-2b,2020.1.3,MacIntel,60,13259,,,,,,,,,,,,,,,,,,,,,,,,,,,,,,,,,,,,,0,64,64,23,1,,,,,,,,,,,,,,,,,,,,,,,,
,,,,,,,,,,,,l,0.85,Correct!,,,,,,t5.png,t1.png,4,9.55E-11,20,female ,2020-09-06_17h48.12.976,torte-2b,2020.1.3,MacIntel,60,13259,,,,,,,,,,,,,,,,,,,,,,,,,,,,,,,,,,,,,0,65,65,102,1,,,,,,,,,,,,,,,,,,,,,,,,
,,,,,,,,,,,,a,0.883,Incorrect,,,,,,t5.png,t2.png,3,0.0000131,20,female ,2020-09-06_17h48.12.976,torte-2b,2020.1.3,MacIntel,60,13259,,,,,,,,,,,,,,,,,,,,,,,,,,,,,,,,,,,,,0,66,66,98,1,,,,,,,,,,,,,,,,,,,,,,,,
,,,,,,,,,,,,a,0.737,Incorrect,,,,,,t5.png,t3.png,2,0.0565,20,female ,2020-09-06_17h48.12.976,torte-2b,2020.1.3,MacIntel,60,13259,,,,,,,,,,,,,,,,,,,,,,,,,,,,,,,,,,,,,0,67,67,39,1,,,,,,,,,,,,,,,,,,,,,,,,
,,,,,,,,,,,,a,0.85,Correct!,,,,,,t2.png,t1.png,1,0.90025,20,female ,2020-09-06_17h48.12.976,torte-2b,2020.1.3,MacIntel,60,13259,,,,,,,,,,,,,,,,,,,,,,,,,,,,,,,,,,,,,0,68,68,5,1,,,,,,,,,,,,,,,,,,,,,,,,
,,,,,,,,,,,,a,0.64,Correct!,,,,,,t2.png,t3.png,1,0.90855,20,female ,2020-09-06_17h48.12.976,torte-2b,2020.1.3,MacIntel,60,13259,,,,,,,,,,,,,,,,,,,,,,,,,,,,,,,,,,,,,0,69,69,68,1,,,,,,,,,,,,,,,,,,,,,,,,
,,,,,,,,,,,,l,1.101,Incorrect,,,,,,t5.png,t4.png,1,0.90025,20,female ,2020-09-06_17h48.12.976,torte-2b,2020.1.3,MacIntel,60,13259,,,,,,,,,,,,,,,,,,,,,,,,,,,,,,,,,,,,,0,70,70,27,1,,,,,,,,,,,,,,,,,,,,,,,,
,,,,,,,,,,,,a,0.821,Incorrect,,,,,,t3.png,t1.png,2,0.0565,20,female ,2020-09-06_17h48.12.976,torte-2b,2020.1.3,MacIntel,60,13259,,,,,,,,,,,,,,,,,,,,,,,,,,,,,,,,,,,,,0,71,71,31,1,,,,,,,,,,,,,,,,,,,,,,,,
,,,,,,,,,,,,l,0.703,Correct!,,,,,,t2.png,t5.png,3,0.0000131,20,female ,2020-09-06_17h48.12.976,torte-2b,2020.1.3,MacIntel,60,13259,,,,,,,,,,,,,,,,,,,,,,,,,,,,,,,,,,,,,0,72,72,8,1,,,,,,,,,,,,,,,,,,,,,,,,
,,,,,,,,,,,,a,0.582,Correct!,,,,,,t1.png,t1.png,0,0.97829,20,female ,2020-09-06_17h48.12.976,torte-2b,2020.1.3,MacIntel,60,13259,,,,,,,,,,,,,,,,,,,,,,,,,,,,,,,,,,,,,0,73,73,9,1,,,,,,,,,,,,,,,,,,,,,,,,
,,,,,,,,,,,,l,0.751,Correct!,,,,,,t3.png,t5.png,2,0.056466,20,female ,2020-09-06_17h48.12.976,torte-2b,2020.1.3,MacIntel,60,13259,,,,,,,,,,,,,,,,,,,,,,,,,,,,,,,,,,,,,0,74,74,44,1,,,,,,,,,,,,,,,,,,,,,,,,
,,,,,,,,,,,,a,0.601,Correct!,,,,,,t5.png,t4.png,1,0.9,20,female ,2020-09-06_17h48.12.976,torte-2b,2020.1.3,MacIntel,60,13259,,,,,,,,,,,,,,,,,,,,,,,,,,,,,,,,,,,,,0,75,75,76,1,,,,,,,,,,,,,,,,,,,,,,,,
,,,,,,,,,,,,l,0.617,Correct!,,,,,,t4.png,t1.png,3,0.0000131,20,female ,2020-09-06_17h48.12.976,torte-2b,2020.1.3,MacIntel,60,13259,,,,,,,,,,,,,,,,,,,,,,,,,,,,,,,,,,,,,0,76,76,42,1,,,,,,,,,,,,,,,,,,,,,,,,
,,,,,,,,,,,,l,0.823,Correct!,,,,,,t2.png,t5.png,3,0.0000131,20,female ,2020-09-06_17h48.12.976,torte-2b,2020.1.3,MacIntel,60,13259,,,,,,,,,,,,,,,,,,,,,,,,,,,,,,,,,,,,,0,77,77,95,1,,,,,,,,,,,,,,,,,,,,,,,,
,,,,,,,,,,,,a,1.032,Correct!,,,,,,t4.png,t3.png,1,0.909,20,female ,2020-09-06_17h48.12.976,torte-2b,2020.1.3,MacIntel,60,13259,,,,,,,,,,,,,,,,,,,,,,,,,,,,,,,,,,,,,0,78,78,20,1,,,,,,,,,,,,,,,,,,,,,,,,
,,,,,,,,,,,,a,0.871,Incorrect,,,,,,t2.png,t3.png,1,0.90855,20,female ,2020-09-06_17h48.12.976,torte-2b,2020.1.3,MacIntel,60,13259,,,,,,,,,,,,,,,,,,,,,,,,,,,,,,,,,,,,,0,79,79,111,1,,,,,,,,,,,,,,,,,,,,,,,,
,,,,,,,,,,,,a,0.556,Correct!,,,,,,t3.png,t4.png,1,0.90855,20,female ,2020-09-06_17h48.12.976,torte-2b,2020.1.3,MacIntel,60,13259,,,,,,,,,,,,,,,,,,,,,,,,,,,,,,,,,,,,,0,80,80,96,1,,,,,,,,,,,,,,,,,,,,,,,,
,,,,,,,,,,,,l,0.582,Correct!,,,,,,t1.png,t4.png,3,0.0000131,20,female ,2020-09-06_17h48.12.976,torte-2b,2020.1.3,MacIntel,60,13259,,,,,,,,,,,,,,,,,,,,,,,,,,,,,,,,,,,,,0,81,81,81,1,,,,,,,,,,,,,,,,,,,,,,,,
,,,,,,,,,,,,a,0.516,Incorrect,,,,,,t4.png,t1.png,3,0.0000131,20,female ,2020-09-06_17h48.12.976,torte-2b,2020.1.3,MacIntel,60,13259,,,,,,,,,,,,,,,,,,,,,,,,,,,,,,,,,,,,,0,82,82,93,1,,,,,,,,,,,,,,,,,,,,,,,,
,,,,,,,,,,,,a,0.691,Incorrect,,,,,,t4.png,t1.png,3,0.0000131,20,female ,2020-09-06_17h48.12.976,torte-2b,2020.1.3,MacIntel,60,13259,,,,,,,,,,,,,,,,,,,,,,,,,,,,,,,,,,,,,0,83,83,61,1,,,,,,,,,,,,,,,,,,,,,,,,
,,,,,,,,,,,,l,0.782,Incorrect,,,,,,t4.png,t2.png,2,0.059078,20,female ,2020-09-06_17h48.12.976,torte-2b,2020.1.3,MacIntel,60,13259,,,,,,,,,,,,,,,,,,,,,,,,,,,,,,,,,,,,,0,84,84,109,1,,,,,,,,,,,,,,,,,,,,,,,,
,,,,,,,,,,,,l,0.723,Incorrect,,,,,,t3.png,t2.png,1,0.90855,20,female ,2020-09-06_17h48.12.976,torte-2b,2020.1.3,MacIntel,60,13259,,,,,,,,,,,,,,,,,,,,,,,,,,,,,,,,,,,,,0,85,85,53,1,,,,,,,,,,,,,,,,,,,,,,,,
,,,,,,,,,,,,a,0.65,Incorrect,,,,,,t3.png,t5.png,2,0.0565,20,female ,2020-09-06_17h48.12.976,torte-2b,2020.1.3,MacIntel,60,13259,,,,,,,,,,,,,,,,,,,,,,,,,,,,,,,,,,,,,0,86,86,30,1,,,,,,,,,,,,,,,,,,,,,,,,
,,,,,,,,,,,,a,0.784,Correct!,,,,,,t4.png,t3.png,1,0.909,20,female ,2020-09-06_17h48.12.976,torte-2b,2020.1.3,MacIntel,60,13259,,,,,,,,,,,,,,,,,,,,,,,,,,,,,,,,,,,,,0,87,87,46,1,,,,,,,,,,,,,,,,,,,,,,,,
,,,,,,,,,,,,a,0.883,Incorrect,,,,,,t1.png,t3.png,2,0.056466,20,female ,2020-09-06_17h48.12.976,torte-2b,2020.1.3,MacIntel,60,13259,,,,,,,,,,,,,,,,,,,,,,,,,,,,,,,,,,,,,0,88,88,60,1,,,,,,,,,,,,,,,,,,,,,,,,
,,,,,,,,,,,,a,0.867,Incorrect,,,,,,t1.png,t2.png,1,0.9,20,female ,2020-09-06_17h48.12.976,torte-2b,2020.1.3,MacIntel,60,13259,,,,,,,,,,,,,,,,,,,,,,,,,,,,,,,,,,,,,0,89,89,1,1,,,,,,,,,,,,,,,,,,,,,,,,
,,,,,,,,,,,,l,0.717,Incorrect,,,,,,t2.png,t3.png,1,0.909,20,female ,2020-09-06_17h48.12.976,torte-2b,2020.1.3,MacIntel,60,13259,,,,,,,,,,,,,,,,,,,,,,,,,,,,,,,,,,,,,0,90,90,74,1,,,,,,,,,,,,,,,,,,,,,,,,
,,,,,,,,,,,,l,0.618,Correct!,,,,,,t3.png,t5.png,2,0.056466,20,female ,2020-09-06_17h48.12.976,torte-2b,2020.1.3,MacIntel,60,13259,,,,,,,,,,,,,,,,,,,,,,,,,,,,,,,,,,,,,0,91,91,14,1,,,,,,,,,,,,,,,,,,,,,,,,
,,,,,,,,,,,,a,0.833,Incorrect,,,,,,t2.png,t4.png,2,0.059078,20,female ,2020-09-06_17h48.12.976,torte-2b,2020.1.3,MacIntel,60,13259,,,,,,,,,,,,,,,,,,,,,,,,,,,,,,,,,,,,,0,92,92,37,1,,,,,,,,,,,,,,,,,,,,,,,,
,,,,,,,,,,,,l,0.608,Correct!,,,,,,t1.png,t5.png,4,9.55E-11,20,female ,2020-09-06_17h48.12.976,torte-2b,2020.1.3,MacIntel,60,13259,,,,,,,,,,,,,,,,,,,,,,,,,,,,,,,,,,,,,0,93,93,85,1,,,,,,,,,,,,,,,,,,,,,,,,
,,,,,,,,,,,,a,0.786,Correct!,,,,,,t5.png,t5.png,0,0.978,20,female ,2020-09-06_17h48.12.976,torte-2b,2020.1.3,MacIntel,60,13259,,,,,,,,,,,,,,,,,,,,,,,,,,,,,,,,,,,,,0,94,94,117,1,,,,,,,,,,,,,,,,,,,,,,,,
,,,,,,,,,,,,a,1.383,Correct!,,,,,,t1.png,t2.png,1,0.90025,20,female ,2020-09-06_17h48.12.976,torte-2b,2020.1.3,MacIntel,60,13259,,,,,,,,,,,,,,,,,,,,,,,,,,,,,,,,,,,,,0,95,95,105,1,,,,,,,,,,,,,,,,,,,,,,,,
,,,,,,,,,,,,l,0.666,Correct!,,,,,,t5.png,t2.png,3,0.0000131,20,female ,2020-09-06_17h48.12.976,torte-2b,2020.1.3,MacIntel,60,13259,,,,,,,,,,,,,,,,,,,,,,,,,,,,,,,,,,,,,0,96,96,116,1,,,,,,,,,,,,,,,,,,,,,,,,
,,,,,,,,,,,,l,0.919,Correct!,,,,,,t2.png,t4.png,2,0.059078,20,female ,2020-09-06_17h48.12.976,torte-2b,2020.1.3,MacIntel,60,13259,,,,,,,,,,,,,,,,,,,,,,,,,,,,,,,,,,,,,0,97,97,11,1,,,,,,,,,,,,,,,,,,,,,,,,
,,,,,,,,,,,,a,0.733,Correct!,,,,,,t2.png,t2.png,0,0.98115,20,female ,2020-09-06_17h48.12.976,torte-2b,2020.1.3,MacIntel,60,13259,,,,,,,,,,,,,,,,,,,,,,,,,,,,,,,,,,,,,0,98,98,2,1,,,,,,,,,,,,,,,,,,,,,,,,
,,,,,,,,,,,,a,0.635,Correct!,,,,,,t5.png,t5.png,0,0.97829,20,female ,2020-09-06_17h48.12.976,torte-2b,2020.1.3,MacIntel,60,13259,,,,,,,,,,,,,,,,,,,,,,,,,,,,,,,,,,,,,0,99,99,94,1,,,,,,,,,,,,,,,,,,,,,,,,
,,,,,,,,,,,,a,0.718,Correct!,,,,,,t4.png,t3.png,1,0.90855,20,female ,2020-09-06_17h48.12.976,torte-2b,2020.1.3,MacIntel,60,13259,,,,,,,,,,,,,,,,,,,,,,,,,,,,,,,,,,,,,0,100,100,35,1,,,,,,,,,,,,,,,,,,,,,,,,
,,,,,,,,,,,,l,0.785,Correct!,,,,,,t5.png,t1.png,4,9.55E-11,20,female ,2020-09-06_17h48.12.976,torte-2b,2020.1.3,MacIntel,60,13259,,,,,,,,,,,,,,,,,,,,,,,,,,,,,,,,,,,,,0,101,101,100,1,,,,,,,,,,,,,,,,,,,,,,,,
,,,,,,,,,,,,a,0.675,Correct!,,,,,,t2.png,t2.png,0,0.981,20,female ,2020-09-06_17h48.12.976,torte-2b,2020.1.3,MacIntel,60,13259,,,,,,,,,,,,,,,,,,,,,,,,,,,,,,,,,,,,,0,102,102,101,1,,,,,,,,,,,,,,,,,,,,,,,,
,,,,,,,,,,,,a,1.138,Correct!,,,,,,t4.png,t5.png,1,0.90025,20,female ,2020-09-06_17h48.12.976,torte-2b,2020.1.3,MacIntel,60,13259,,,,,,,,,,,,,,,,,,,,,,,,,,,,,,,,,,,,,0,103,103,113,1,,,,,,,,,,,,,,,,,,,,,,,,
,,,,,,,,,,,,a,0.922,Incorrect,,,,,,t3.png,t1.png,2,0.056466,20,female ,2020-09-06_17h48.12.976,torte-2b,2020.1.3,MacIntel,60,13259,,,,,,,,,,,,,,,,,,,,,,,,,,,,,,,,,,,,,0,104,104,29,1,,,,,,,,,,,,,,,,,,,,,,,,
,,,,,,,,,,,,a,0.901,Incorrect,,,,,,t3.png,t2.png,1,0.909,20,female ,2020-09-06_17h48.12.976,torte-2b,2020.1.3,MacIntel,60,13259,,,,,,,,,,,,,,,,,,,,,,,,,,,,,,,,,,,,,0,105,105,3,1,,,,,,,,,,,,,,,,,,,,,,,,
,,,,,,,,,,,,l,1.081,Correct!,,,,,,t1.png,t2.png,1,0.90025,20,female ,2020-09-06_17h48.12.976,torte-2b,2020.1.3,MacIntel,60,13259,,,,,,,,,,,,,,,,,,,,,,,,,,,,,,,,,,,,,0,106,106,33,1,,,,,,,,,,,,,,,,,,,,,,,,
,,,,,,,,,,,,a,0.79,Correct!,,,,,,t4.png,t5.png,1,0.9,20,female ,2020-09-06_17h48.12.976,torte-2b,2020.1.3,MacIntel,60,13259,,,,,,,,,,,,,,,,,,,,,,,,,,,,,,,,,,,,,0,107,107,115,1,,,,,,,,,,,,,,,,,,,,,,,,
,,,,,,,,,,,,l,0.766,Correct!,,,,,,t1.png,t4.png,3,0.0000131,20,female ,2020-09-06_17h48.12.976,torte-2b,2020.1.3,MacIntel,60,13259,,,,,,,,,,,,,,,,,,,,,,,,,,,,,,,,,,,,,0,108,108,92,1,,,,,,,,,,,,,,,,,,,,,,,,
,,,,,,,,,,,,l,0.921,Correct!,,,,,,t2.png,t4.png,2,0.0591,20,female ,2020-09-06_17h48.12.976,torte-2b,2020.1.3,MacIntel,60,13259,,,,,,,,,,,,,,,,,,,,,,,,,,,,,,,,,,,,,0,109,109,15,1,,,,,,,,,,,,,,,,,,,,,,,,
,,,,,,,,,,,,l,0.568,Incorrect,,,,,,t1.png,t1.png,0,0.97829,20,female ,2020-09-06_17h48.12.976,torte-2b,2020.1.3,MacIntel,60,13259,,,,,,,,,,,,,,,,,,,,,,,,,,,,,,,,,,,,,0,110,110,78,1,,,,,,,,,,,,,,,,,,,,,,,,
,,,,,,,,,,,,a,0.836,Correct!,,,,,,t5.png,t5.png,0,0.97829,20,female ,2020-09-06_17h48.12.976,torte-2b,2020.1.3,MacIntel,60,13259,,,,,,,,,,,,,,,,,,,,,,,,,,,,,,,,,,,,,0,111,111,25,1,,,,,,,,,,,,,,,,,,,,,,,,
,,,,,,,,,,,,l,0.655,Correct!,,,,,,t1.png,t4.png,3,0.0000131,20,female ,2020-09-06_17h48.12.976,torte-2b,2020.1.3,MacIntel,60,13259,,,,,,,,,,,,,,,,,,,,,,,,,,,,,,,,,,,,,0,112,112,17,1,,,,,,,,,,,,,,,,,,,,,,,,
,,,,,,,,,,,,l,0.782,Correct!,,,,,,t5.png,t2.png,3,0.0000131,20,female ,2020-09-06_17h48.12.976,torte-2b,2020.1.3,MacIntel,60,13259,,,,,,,,,,,,,,,,,,,,,,,,,,,,,,,,,,,,,0,113,113,91,1,,,,,,,,,,,,,,,,,,,,,,,,
,,,,,,,,,,,,a,0.872,Correct!,,,,,,t1.png,t2.png,1,0.90025,20,female ,2020-09-06_17h48.12.976,torte-2b,2020.1.3,MacIntel,60,13259,,,,,,,,,,,,,,,,,,,,,,,,,,,,,,,,,,,,,0,114,114,72,1,,,,,,,,,,,,,,,,,,,,,,,,
,,,,,,,,,,,,a,0.916,Correct!,,,,,,t1.png,t2.png,1,0.90025,20,female ,2020-09-06_17h48.12.976,torte-2b,2020.1.3,MacIntel,60,13259,,,,,,,,,,,,,,,,,,,,,,,,,,,,,,,,,,,,,0,115,115,112,1,,,,,,,,,,,,,,,,,,,,,,,,
,,,,,,,,,,,,a,1.152,Incorrect,,,,,,t3.png,t4.png,1,0.909,20,female ,2020-09-06_17h48.12.976,torte-2b,2020.1.3,MacIntel,60,13259,,,,,,,,,,,,,,,,,,,,,,,,,,,,,,,,,,,,,0,116,116,89,1,,,,,,,,,,,,,,,,,,,,,,,,
,,,,,,,,,,,,a,0.634,Correct!,,,,,,t1.png,t1.png,0,0.978,20,female ,2020-09-06_17h48.12.976,torte-2b,2020.1.3,MacIntel,60,13259,,,,,,,,,,,,,,,,,,,,,,,,,,,,,,,,,,,,,0,117,117,54,1,,,,,,,,,,,,,,,,,,,,,,,,
,,,,,,,,,,,,a,0.554,Incorrect,,,,,,t1.png,t3.png,2,0.056466,20,female ,2020-09-06_17h48.12.976,torte-2b,2020.1.3,MacIntel,60,13259,,,,,,,,,,,,,,,,,,,,,,,,,,,,,,,,,,,,,0,118,118,69,1,,,,,,,,,,,,,,,,,,,,,,,,
,,,,,,,,,,,,a,0.706,Correct!,,,,,,t2.png,t1.png,1,0.9,20,female ,2020-09-06_17h48.12.976,torte-2b,2020.1.3,MacIntel,60,13259,,,,,,,,,,,,,,,,,,,,,,,,,,,,,,,,,,,,,0,119,119,118,1,,,,,,,,,,,,,,,,,,,,,,,,
,,,,,,,,,,,,,,,,,,,,,,,,20,female ,2020-09-06_17h48.12.976,torte-2b,2020.1.3,MacIntel,60,13259,space,1.574,,,,,,,,,,,,,,,,,,,,,,,,,,,,,,,,,,,,,,,,42,176.5,1,0,0,s1,24,37.5,1,0,0,t2,209,-104.5,1,0,0,proceed,space,1.962,space,0.065,space,0.485
