key_resp_8.keys,key_resp_8.rt,key_resp_9.keys,key_resp_9.rt,key_resp_10.keys,key_resp_10.rt,key_resp_11.keys,key_resp_11.rt,key_resp_2.keys,key_resp_2.rt,key_resp_3.keys,key_resp_3.rt,key_resp.keys,Feedback,train.thisRepN,train.thisTrialN,train.thisN,train.thisIndex,train.ran,torta_sx,torta_dx,difference,probability,age,gender,date,expName,psychopyVersion,OS,frameRate,participant,key_resp.rt,key_resp_15.keys,key_resp_15.rt,key_resp_6.keys,key_resp_6.rt,test1.thisRepN,test1.thisTrialN,test1.thisN,test1.thisIndex,test1.ran,key_resp_4.keys,key_resp_4.rt,key_resp_5.keys,back1.thisRepN,back1.thisTrialN,back1.thisN,back1.thisIndex,back1.ran,letter,key_resp_5.rt,back2.thisRepN,back2.thisTrialN,back2.thisN,back2.thisIndex,back2.ran,back3.thisRepN,back3.thisTrialN,back3.thisN,back3.thisIndex,back3.ran,back4.thisRepN,back4.thisTrialN,back4.thisN,back4.thisIndex,back4.ran,key_resp_7.keys,key_resp_7.rt,test2.thisRepN,test2.thisTrialN,test2.thisN,test2.thisIndex,test2.ran,mouse.x,mouse.y,mouse.leftButton,mouse.midButton,mouse.rightButton,mouse.clicked_name,mouse_2.x,mouse_2.y,mouse_2.leftButton,mouse_2.midButton,mouse_2.rightButton,mouse_2.clicked_name,mouse_3.x,mouse_3.y,mouse_3.leftButton,mouse_3.midButton,mouse_3.rightButton,mouse_3.clicked_name,key_resp_12.keys,key_resp_12.rt,key_resp_13.keys,key_resp_13.rt,key_resp_14.keys,key_resp_14.rt
space,15.238105,space,4.223825,space,3.046585,space,3.01373,space,21.59929,space,35.91822,,Too slow :(,0,0,0,71,1,t5.png,t5.png,0,0.97829,19,Female,2020-09-25_19h13.44.167,torte-2b,2020.1.3,Win32,60,13254,,,,,,,,,,,,,,,,,,,,,,,,,,,,,,,,,,,,,,,,,,,,,,,,,,,,,,,,,,,,,,,,,,
,,,,,,,,,,,,l,Correct!,0,1,1,119,1,t1.png,t5.png,4,9.55E-11,19,Female,2020-09-25_19h13.44.167,torte-2b,2020.1.3,Win32,60,13254,1.12955,,,,,,,,,,,,,,,,,,,,,,,,,,,,,,,,,,,,,,,,,,,,,,,,,,,,,,,,,,,,,,,,,
,,,,,,,,,,,,l,Correct!,0,2,2,98,1,t2.png,t4.png,2,0.0591,19,Female,2020-09-25_19h13.44.167,torte-2b,2020.1.3,Win32,60,13254,2.032685,,,,,,,,,,,,,,,,,,,,,,,,,,,,,,,,,,,,,,,,,,,,,,,,,,,,,,,,,,,,,,,,,
,,,,,,,,,,,,a,Incorrect,0,3,3,103,1,t3.png,t1.png,2,0.056466,19,Female,2020-09-25_19h13.44.167,torte-2b,2020.1.3,Win32,60,13254,1.85574,,,,,,,,,,,,,,,,,,,,,,,,,,,,,,,,,,,,,,,,,,,,,,,,,,,,,,,,,,,,,,,,,
,,,,,,,,,,,,,Too slow :(,0,4,4,113,1,t5.png,t4.png,1,0.9,19,Female,2020-09-25_19h13.44.167,torte-2b,2020.1.3,Win32,60,13254,,,,,,,,,,,,,,,,,,,,,,,,,,,,,,,,,,,,,,,,,,,,,,,,,,,,,,,,,,,,,,,,,,
,,,,,,,,,,,,l,Incorrect,0,5,5,63,1,t2.png,t3.png,1,0.909,19,Female,2020-09-25_19h13.44.167,torte-2b,2020.1.3,Win32,60,13254,0.664925,,,,,,,,,,,,,,,,,,,,,,,,,,,,,,,,,,,,,,,,,,,,,,,,,,,,,,,,,,,,,,,,,
,,,,,,,,,,,,l,Correct!,0,6,6,68,1,t1.png,t4.png,3,0.0000131,19,Female,2020-09-25_19h13.44.167,torte-2b,2020.1.3,Win32,60,13254,1.247125,,,,,,,,,,,,,,,,,,,,,,,,,,,,,,,,,,,,,,,,,,,,,,,,,,,,,,,,,,,,,,,,,
,,,,,,,,,,,,a,Incorrect,0,7,7,83,1,t3.png,t1.png,2,0.056466,19,Female,2020-09-25_19h13.44.167,torte-2b,2020.1.3,Win32,60,13254,1.96649,,,,,,,,,,,,,,,,,,,,,,,,,,,,,,,,,,,,,,,,,,,,,,,,,,,,,,,,,,,,,,,,,
,,,,,,,,,,,,l,Incorrect,0,8,8,118,1,t5.png,t5.png,0,0.978,19,Female,2020-09-25_19h13.44.167,torte-2b,2020.1.3,Win32,60,13254,0.86486,,,,,,,,,,,,,,,,,,,,,,,,,,,,,,,,,,,,,,,,,,,,,,,,,,,,,,,,,,,,,,,,,
,,,,,,,,,,,,a,Correct!,0,9,9,81,1,t1.png,t1.png,0,0.97829,19,Female,2020-09-25_19h13.44.167,torte-2b,2020.1.3,Win32,60,13254,1.50538,,,,,,,,,,,,,,,,,,,,,,,,,,,,,,,,,,,,,,,,,,,,,,,,,,,,,,,,,,,,,,,,,
,,,,,,,,,,,,a,Incorrect,0,10,10,47,1,t4.png,t2.png,2,0.059078,19,Female,2020-09-25_19h13.44.167,torte-2b,2020.1.3,Win32,60,13254,2.135645,,,,,,,,,,,,,,,,,,,,,,,,,,,,,,,,,,,,,,,,,,,,,,,,,,,,,,,,,,,,,,,,,
,,,,,,,,,,,,l,Incorrect,0,11,11,79,1,t3.png,t2.png,1,0.909,19,Female,2020-09-25_19h13.44.167,torte-2b,2020.1.3,Win32,60,13254,1.731685,,,,,,,,,,,,,,,,,,,,,,,,,,,,,,,,,,,,,,,,,,,,,,,,,,,,,,,,,,,,,,,,,
,,,,,,,,,,,,l,Correct!,0,12,12,37,1,t1.png,t4.png,3,0.0000131,19,Female,2020-09-25_19h13.44.167,torte-2b,2020.1.3,Win32,60,13254,1.664035,,,,,,,,,,,,,,,,,,,,,,,,,,,,,,,,,,,,,,,,,,,,,,,,,,,,,,,,,,,,,,,,,
,,,,,,,,,,,,l,Incorrect,0,13,13,110,1,t4.png,t5.png,1,0.90025,19,Female,2020-09-25_19h13.44.167,torte-2b,2020.1.3,Win32,60,13254,1.057305,,,,,,,,,,,,,,,,,,,,,,,,,,,,,,,,,,,,,,,,,,,,,,,,,,,,,,,,,,,,,,,,,
,,,,,,,,,,,,a,Incorrect,0,14,14,88,1,t3.png,t1.png,2,0.056466,19,Female,2020-09-25_19h13.44.167,torte-2b,2020.1.3,Win32,60,13254,1.64253,,,,,,,,,,,,,,,,,,,,,,,,,,,,,,,,,,,,,,,,,,,,,,,,,,,,,,,,,,,,,,,,,
,,,,,,,,,,,,l,Correct!,0,15,15,41,1,t3.png,t2.png,1,0.90855,19,Female,2020-09-25_19h13.44.167,torte-2b,2020.1.3,Win32,60,13254,1.417715,,,,,,,,,,,,,,,,,,,,,,,,,,,,,,,,,,,,,,,,,,,,,,,,,,,,,,,,,,,,,,,,,
,,,,,,,,,,,,l,Incorrect,0,16,16,29,1,t5.png,t5.png,0,0.97829,19,Female,2020-09-25_19h13.44.167,torte-2b,2020.1.3,Win32,60,13254,0.797725,,,,,,,,,,,,,,,,,,,,,,,,,,,,,,,,,,,,,,,,,,,,,,,,,,,,,,,,,,,,,,,,,
,,,,,,,,,,,,a,Correct!,0,17,17,70,1,t5.png,t5.png,0,0.978,19,Female,2020-09-25_19h13.44.167,torte-2b,2020.1.3,Win32,60,13254,0.974095,,,,,,,,,,,,,,,,,,,,,,,,,,,,,,,,,,,,,,,,,,,,,,,,,,,,,,,,,,,,,,,,,
,,,,,,,,,,,,l,Incorrect,0,18,18,112,1,t1.png,t1.png,0,0.97829,19,Female,2020-09-25_19h13.44.167,torte-2b,2020.1.3,Win32,60,13254,0.96381,,,,,,,,,,,,,,,,,,,,,,,,,,,,,,,,,,,,,,,,,,,,,,,,,,,,,,,,,,,,,,,,,
,,,,,,,,,,,,l,Correct!,0,19,19,3,1,t1.png,t5.png,4,9.55E-11,19,Female,2020-09-25_19h13.44.167,torte-2b,2020.1.3,Win32,60,13254,1.46421,,,,,,,,,,,,,,,,,,,,,,,,,,,,,,,,,,,,,,,,,,,,,,,,,,,,,,,,,,,,,,,,,
,,,,,,,,,,,,a,Correct!,0,20,20,8,1,t3.png,t2.png,1,0.90855,19,Female,2020-09-25_19h13.44.167,torte-2b,2020.1.3,Win32,60,13254,1.687035,,,,,,,,,,,,,,,,,,,,,,,,,,,,,,,,,,,,,,,,,,,,,,,,,,,,,,,,,,,,,,,,,
,,,,,,,,,,,,a,Correct!,0,21,21,100,1,t4.png,t5.png,1,0.90025,19,Female,2020-09-25_19h13.44.167,torte-2b,2020.1.3,Win32,60,13254,1.755385,,,,,,,,,,,,,,,,,,,,,,,,,,,,,,,,,,,,,,,,,,,,,,,,,,,,,,,,,,,,,,,,,
,,,,,,,,,,,,l,Correct!,0,22,22,31,1,t1.png,t5.png,4,9.55E-11,19,Female,2020-09-25_19h13.44.167,torte-2b,2020.1.3,Win32,60,13254,0.80314,,,,,,,,,,,,,,,,,,,,,,,,,,,,,,,,,,,,,,,,,,,,,,,,,,,,,,,,,,,,,,,,,
,,,,,,,,,,,,l,Correct!,0,23,23,14,1,t2.png,t4.png,2,0.059078,19,Female,2020-09-25_19h13.44.167,torte-2b,2020.1.3,Win32,60,13254,2.381405,,,,,,,,,,,,,,,,,,,,,,,,,,,,,,,,,,,,,,,,,,,,,,,,,,,,,,,,,,,,,,,,,
,,,,,,,,,,,,l,Correct!,0,24,24,33,1,t5.png,t1.png,4,9.55E-11,19,Female,2020-09-25_19h13.44.167,torte-2b,2020.1.3,Win32,60,13254,1.215155,,,,,,,,,,,,,,,,,,,,,,,,,,,,,,,,,,,,,,,,,,,,,,,,,,,,,,,,,,,,,,,,,
,,,,,,,,,,,,a,Correct!,0,25,25,64,1,t1.png,t1.png,0,0.978,19,Female,2020-09-25_19h13.44.167,torte-2b,2020.1.3,Win32,60,13254,1.10721,,,,,,,,,,,,,,,,,,,,,,,,,,,,,,,,,,,,,,,,,,,,,,,,,,,,,,,,,,,,,,,,,
,,,,,,,,,,,,a,Correct!,0,26,26,15,1,t3.png,t2.png,1,0.90855,19,Female,2020-09-25_19h13.44.167,torte-2b,2020.1.3,Win32,60,13254,1.330535,,,,,,,,,,,,,,,,,,,,,,,,,,,,,,,,,,,,,,,,,,,,,,,,,,,,,,,,,,,,,,,,,
,,,,,,,,,,,,l,Correct!,0,27,27,94,1,t5.png,t1.png,4,9.55E-11,19,Female,2020-09-25_19h13.44.167,torte-2b,2020.1.3,Win32,60,13254,1.384,,,,,,,,,,,,,,,,,,,,,,,,,,,,,,,,,,,,,,,,,,,,,,,,,,,,,,,,,,,,,,,,,
,,,,,,,,,,,,a,Incorrect,0,28,28,80,1,t1.png,t4.png,3,0.0000131,19,Female,2020-09-25_19h13.44.167,torte-2b,2020.1.3,Win32,60,13254,1.813765,,,,,,,,,,,,,,,,,,,,,,,,,,,,,,,,,,,,,,,,,,,,,,,,,,,,,,,,,,,,,,,,,
,,,,,,,,,,,,l,Correct!,0,29,29,55,1,t2.png,t4.png,2,0.059078,19,Female,2020-09-25_19h13.44.167,torte-2b,2020.1.3,Win32,60,13254,1.69995,,,,,,,,,,,,,,,,,,,,,,,,,,,,,,,,,,,,,,,,,,,,,,,,,,,,,,,,,,,,,,,,,
,,,,,,,,,,,,l,Incorrect,0,30,30,101,1,t4.png,t5.png,1,0.90025,19,Female,2020-09-25_19h13.44.167,torte-2b,2020.1.3,Win32,60,13254,2.00129,,,,,,,,,,,,,,,,,,,,,,,,,,,,,,,,,,,,,,,,,,,,,,,,,,,,,,,,,,,,,,,,,
,,,,,,,,,,,,a,Correct!,0,31,31,7,1,t4.png,t5.png,1,0.90025,19,Female,2020-09-25_19h13.44.167,torte-2b,2020.1.3,Win32,60,13254,1.607,,,,,,,,,,,,,,,,,,,,,,,,,,,,,,,,,,,,,,,,,,,,,,,,,,,,,,,,,,,,,,,,,
,,,,,,,,,,,,l,Correct!,0,32,32,90,1,t1.png,t5.png,4,9.55E-11,19,Female,2020-09-25_19h13.44.167,torte-2b,2020.1.3,Win32,60,13254,0.854915,,,,,,,,,,,,,,,,,,,,,,,,,,,,,,,,,,,,,,,,,,,,,,,,,,,,,,,,,,,,,,,,,
,,,,,,,,,,,,l,Correct!,0,33,33,1,1,t2.png,t4.png,2,0.059078,19,Female,2020-09-25_19h13.44.167,torte-2b,2020.1.3,Win32,60,13254,0.86452,,,,,,,,,,,,,,,,,,,,,,,,,,,,,,,,,,,,,,,,,,,,,,,,,,,,,,,,,,,,,,,,,
,,,,,,,,,,,,a,Correct!,0,34,34,97,1,t5.png,t5.png,0,0.97829,19,Female,2020-09-25_19h13.44.167,torte-2b,2020.1.3,Win32,60,13254,1.439455,,,,,,,,,,,,,,,,,,,,,,,,,,,,,,,,,,,,,,,,,,,,,,,,,,,,,,,,,,,,,,,,,
,,,,,,,,,,,,l,Correct!,0,35,35,93,1,t2.png,t4.png,2,0.059078,19,Female,2020-09-25_19h13.44.167,torte-2b,2020.1.3,Win32,60,13254,0.69855,,,,,,,,,,,,,,,,,,,,,,,,,,,,,,,,,,,,,,,,,,,,,,,,,,,,,,,,,,,,,,,,,
,,,,,,,,,,,,a,Correct!,0,36,36,104,1,t2.png,t3.png,1,0.90855,19,Female,2020-09-25_19h13.44.167,torte-2b,2020.1.3,Win32,60,13254,1.498295,,,,,,,,,,,,,,,,,,,,,,,,,,,,,,,,,,,,,,,,,,,,,,,,,,,,,,,,,,,,,,,,,
,,,,,,,,,,,,l,Correct!,0,37,37,73,1,t4.png,t2.png,2,0.059078,19,Female,2020-09-25_19h13.44.167,torte-2b,2020.1.3,Win32,60,13254,0.998255,,,,,,,,,,,,,,,,,,,,,,,,,,,,,,,,,,,,,,,,,,,,,,,,,,,,,,,,,,,,,,,,,
,,,,,,,,,,,,a,Correct!,0,38,38,109,1,t5.png,t5.png,0,0.97829,19,Female,2020-09-25_19h13.44.167,torte-2b,2020.1.3,Win32,60,13254,1.36551,,,,,,,,,,,,,,,,,,,,,,,,,,,,,,,,,,,,,,,,,,,,,,,,,,,,,,,,,,,,,,,,,
,,,,,,,,,,,,a,Incorrect,0,39,39,86,1,t3.png,t1.png,2,0.056466,19,Female,2020-09-25_19h13.44.167,torte-2b,2020.1.3,Win32,60,13254,1.430895,,,,,,,,,,,,,,,,,,,,,,,,,,,,,,,,,,,,,,,,,,,,,,,,,,,,,,,,,,,,,,,,,
,,,,,,,,,,,,a,Incorrect,0,40,40,38,1,t3.png,t1.png,2,0.056466,19,Female,2020-09-25_19h13.44.167,torte-2b,2020.1.3,Win32,60,13254,2.20317,,,,,,,,,,,,,,,,,,,,,,,,,,,,,,,,,,,,,,,,,,,,,,,,,,,,,,,,,,,,,,,,,
,,,,,,,,,,,,l,Incorrect,0,41,41,46,1,t4.png,t2.png,2,0.059078,19,Female,2020-09-25_19h13.44.167,torte-2b,2020.1.3,Win32,60,13254,1.69107,,,,,,,,,,,,,,,,,,,,,,,,,,,,,,,,,,,,,,,,,,,,,,,,,,,,,,,,,,,,,,,,,
,,,,,,,,,,,,a,Correct!,0,42,42,106,1,t2.png,t3.png,1,0.90855,19,Female,2020-09-25_19h13.44.167,torte-2b,2020.1.3,Win32,60,13254,2.128685,,,,,,,,,,,,,,,,,,,,,,,,,,,,,,,,,,,,,,,,,,,,,,,,,,,,,,,,,,,,,,,,,
,,,,,,,,,,,,l,Correct!,0,43,43,111,1,t5.png,t1.png,4,9.55E-11,19,Female,2020-09-25_19h13.44.167,torte-2b,2020.1.3,Win32,60,13254,1.072615,,,,,,,,,,,,,,,,,,,,,,,,,,,,,,,,,,,,,,,,,,,,,,,,,,,,,,,,,,,,,,,,,
,,,,,,,,,,,,l,Correct!,0,44,44,54,1,t1.png,t5.png,4,9.55E-11,19,Female,2020-09-25_19h13.44.167,torte-2b,2020.1.3,Win32,60,13254,1.01461,,,,,,,,,,,,,,,,,,,,,,,,,,,,,,,,,,,,,,,,,,,,,,,,,,,,,,,,,,,,,,,,,
,,,,,,,,,,,,a,Incorrect,0,45,45,11,1,t1.png,t4.png,3,0.0000131,19,Female,2020-09-25_19h13.44.167,torte-2b,2020.1.3,Win32,60,13254,1.25623,,,,,,,,,,,,,,,,,,,,,,,,,,,,,,,,,,,,,,,,,,,,,,,,,,,,,,,,,,,,,,,,,
,,,,,,,,,,,,l,Incorrect,0,46,46,30,1,t3.png,t1.png,2,0.056466,19,Female,2020-09-25_19h13.44.167,torte-2b,2020.1.3,Win32,60,13254,1.813315,,,,,,,,,,,,,,,,,,,,,,,,,,,,,,,,,,,,,,,,,,,,,,,,,,,,,,,,,,,,,,,,,
,,,,,,,,,,,,a,Correct!,0,47,47,65,1,t4.png,t5.png,1,0.90025,19,Female,2020-09-25_19h13.44.167,torte-2b,2020.1.3,Win32,60,13254,1.379325,,,,,,,,,,,,,,,,,,,,,,,,,,,,,,,,,,,,,,,,,,,,,,,,,,,,,,,,,,,,,,,,,
,,,,,,,,,,,,a,Correct!,0,48,48,77,1,t1.png,t1.png,0,0.97829,19,Female,2020-09-25_19h13.44.167,torte-2b,2020.1.3,Win32,60,13254,1.164585,,,,,,,,,,,,,,,,,,,,,,,,,,,,,,,,,,,,,,,,,,,,,,,,,,,,,,,,,,,,,,,,,
,,,,,,,,,,,,a,Correct!,0,49,49,116,1,t5.png,t4.png,1,0.90025,19,Female,2020-09-25_19h13.44.167,torte-2b,2020.1.3,Win32,60,13254,1.07501,,,,,,,,,,,,,,,,,,,,,,,,,,,,,,,,,,,,,,,,,,,,,,,,,,,,,,,,,,,,,,,,,
,,,,,,,,,,,,a,Correct!,0,50,50,75,1,t1.png,t1.png,0,0.97829,19,Female,2020-09-25_19h13.44.167,torte-2b,2020.1.3,Win32,60,13254,2.432415,,,,,,,,,,,,,,,,,,,,,,,,,,,,,,,,,,,,,,,,,,,,,,,,,,,,,,,,,,,,,,,,,
,,,,,,,,,,,,,Too slow :(,0,51,51,59,1,t5.png,t4.png,1,0.9,19,Female,2020-09-25_19h13.44.167,torte-2b,2020.1.3,Win32,60,13254,,,,,,,,,,,,,,,,,,,,,,,,,,,,,,,,,,,,,,,,,,,,,,,,,,,,,,,,,,,,,,,,,,
,,,,,,,,,,,,l,Correct!,0,52,52,69,1,t4.png,t2.png,2,0.059078,19,Female,2020-09-25_19h13.44.167,torte-2b,2020.1.3,Win32,60,13254,1.180945,,,,,,,,,,,,,,,,,,,,,,,,,,,,,,,,,,,,,,,,,,,,,,,,,,,,,,,,,,,,,,,,,
,,,,,,,,,,,,a,Correct!,0,53,53,92,1,t2.png,t3.png,1,0.909,19,Female,2020-09-25_19h13.44.167,torte-2b,2020.1.3,Win32,60,13254,1.254185,,,,,,,,,,,,,,,,,,,,,,,,,,,,,,,,,,,,,,,,,,,,,,,,,,,,,,,,,,,,,,,,,
,,,,,,,,,,,,a,Correct!,0,54,54,28,1,t2.png,t3.png,1,0.909,19,Female,2020-09-25_19h13.44.167,torte-2b,2020.1.3,Win32,60,13254,1.606345,,,,,,,,,,,,,,,,,,,,,,,,,,,,,,,,,,,,,,,,,,,,,,,,,,,,,,,,,,,,,,,,,
,,,,,,,,,,,,l,Incorrect,0,55,55,18,1,t4.png,t5.png,1,0.90025,19,Female,2020-09-25_19h13.44.167,torte-2b,2020.1.3,Win32,60,13254,1.048385,,,,,,,,,,,,,,,,,,,,,,,,,,,,,,,,,,,,,,,,,,,,,,,,,,,,,,,,,,,,,,,,,
,,,,,,,,,,,,a,Incorrect,0,56,56,32,1,t4.png,t5.png,1,0.90025,19,Female,2020-09-25_19h13.44.167,torte-2b,2020.1.3,Win32,60,13254,1.1244,,,,,,,,,,,,,,,,,,,,,,,,,,,,,,,,,,,,,,,,,,,,,,,,,,,,,,,,,,,,,,,,,
,,,,,,,,,,,,a,Correct!,0,57,57,107,1,t1.png,t1.png,0,0.978,19,Female,2020-09-25_19h13.44.167,torte-2b,2020.1.3,Win32,60,13254,0.89887,,,,,,,,,,,,,,,,,,,,,,,,,,,,,,,,,,,,,,,,,,,,,,,,,,,,,,,,,,,,,,,,,
,,,,,,,,,,,,l,Incorrect,0,58,58,42,1,t5.png,t4.png,1,0.90025,19,Female,2020-09-25_19h13.44.167,torte-2b,2020.1.3,Win32,60,13254,1.351535,,,,,,,,,,,,,,,,,,,,,,,,,,,,,,,,,,,,,,,,,,,,,,,,,,,,,,,,,,,,,,,,,
,,,,,,,,,,,,l,Incorrect,0,59,59,44,1,t2.png,t3.png,1,0.909,19,Female,2020-09-25_19h13.44.167,torte-2b,2020.1.3,Win32,60,13254,2.01375,,,,,,,,,,,,,,,,,,,,,,,,,,,,,,,,,,,,,,,,,,,,,,,,,,,,,,,,,,,,,,,,,
,,,,,,,,,,,,l,Correct!,0,60,60,108,1,t5.png,t1.png,4,9.55E-11,19,Female,2020-09-25_19h13.44.167,torte-2b,2020.1.3,Win32,60,13254,1.48154,,,,,,,,,,,,,,,,,,,,,,,,,,,,,,,,,,,,,,,,,,,,,,,,,,,,,,,,,,,,,,,,,
,,,,,,,,,,,,a,Correct!,0,61,61,84,1,t1.png,t1.png,0,0.97829,19,Female,2020-09-25_19h13.44.167,torte-2b,2020.1.3,Win32,60,13254,0.947345,,,,,,,,,,,,,,,,,,,,,,,,,,,,,,,,,,,,,,,,,,,,,,,,,,,,,,,,,,,,,,,,,
,,,,,,,,,,,,a,Incorrect,0,62,62,91,1,t1.png,t4.png,3,0.0000131,19,Female,2020-09-25_19h13.44.167,torte-2b,2020.1.3,Win32,60,13254,1.098,,,,,,,,,,,,,,,,,,,,,,,,,,,,,,,,,,,,,,,,,,,,,,,,,,,,,,,,,,,,,,,,,
,,,,,,,,,,,,a,Incorrect,0,63,63,61,1,t1.png,t4.png,3,0.0000131,19,Female,2020-09-25_19h13.44.167,torte-2b,2020.1.3,Win32,60,13254,1.049015,,,,,,,,,,,,,,,,,,,,,,,,,,,,,,,,,,,,,,,,,,,,,,,,,,,,,,,,,,,,,,,,,
,,,,,,,,,,,,,Too slow :(,0,64,64,48,1,t5.png,t5.png,0,0.97829,19,Female,2020-09-25_19h13.44.167,torte-2b,2020.1.3,Win32,60,13254,,,,,,,,,,,,,,,,,,,,,,,,,,,,,,,,,,,,,,,,,,,,,,,,,,,,,,,,,,,,,,,,,,
,,,,,,,,,,,,l,Correct!,0,65,65,99,1,t1.png,t5.png,4,9.55E-11,19,Female,2020-09-25_19h13.44.167,torte-2b,2020.1.3,Win32,60,13254,0.88109,,,,,,,,,,,,,,,,,,,,,,,,,,,,,,,,,,,,,,,,,,,,,,,,,,,,,,,,,,,,,,,,,
,,,,,,,,,,,,l,Correct!,0,66,66,67,1,t1.png,t5.png,4,9.55E-11,19,Female,2020-09-25_19h13.44.167,torte-2b,2020.1.3,Win32,60,13254,0.56809,,,,,,,,,,,,,,,,,,,,,,,,,,,,,,,,,,,,,,,,,,,,,,,,,,,,,,,,,,,,,,,,,
,,,,,,,,,,,,l,Correct!,0,67,67,60,1,t2.png,t4.png,2,0.059078,19,Female,2020-09-25_19h13.44.167,torte-2b,2020.1.3,Win32,60,13254,0.802875,,,,,,,,,,,,,,,,,,,,,,,,,,,,,,,,,,,,,,,,,,,,,,,,,,,,,,,,,,,,,,,,,
,,,,,,,,,,,,l,Incorrect,0,68,68,10,1,t2.png,t3.png,1,0.90855,19,Female,2020-09-25_19h13.44.167,torte-2b,2020.1.3,Win32,60,13254,0.554675,,,,,,,,,,,,,,,,,,,,,,,,,,,,,,,,,,,,,,,,,,,,,,,,,,,,,,,,,,,,,,,,,
,,,,,,,,,,,,a,Correct!,0,69,69,20,1,t2.png,t3.png,1,0.90855,19,Female,2020-09-25_19h13.44.167,torte-2b,2020.1.3,Win32,60,13254,0.84725,,,,,,,,,,,,,,,,,,,,,,,,,,,,,,,,,,,,,,,,,,,,,,,,,,,,,,,,,,,,,,,,,
,,,,,,,,,,,,a,Incorrect,0,70,70,36,1,t3.png,t1.png,2,0.0565,19,Female,2020-09-25_19h13.44.167,torte-2b,2020.1.3,Win32,60,13254,0.6901,,,,,,,,,,,,,,,,,,,,,,,,,,,,,,,,,,,,,,,,,,,,,,,,,,,,,,,,,,,,,,,,,
,,,,,,,,,,,,l,Incorrect,0,71,71,22,1,t2.png,t3.png,1,0.90855,19,Female,2020-09-25_19h13.44.167,torte-2b,2020.1.3,Win32,60,13254,1.38149,,,,,,,,,,,,,,,,,,,,,,,,,,,,,,,,,,,,,,,,,,,,,,,,,,,,,,,,,,,,,,,,,
,,,,,,,,,,,,a,Correct!,0,72,72,96,1,t1.png,t1.png,0,0.97829,19,Female,2020-09-25_19h13.44.167,torte-2b,2020.1.3,Win32,60,13254,1.134665,,,,,,,,,,,,,,,,,,,,,,,,,,,,,,,,,,,,,,,,,,,,,,,,,,,,,,,,,,,,,,,,,
,,,,,,,,,,,,a,Correct!,0,73,73,16,1,t5.png,t4.png,1,0.9,19,Female,2020-09-25_19h13.44.167,torte-2b,2020.1.3,Win32,60,13254,1.1806,,,,,,,,,,,,,,,,,,,,,,,,,,,,,,,,,,,,,,,,,,,,,,,,,,,,,,,,,,,,,,,,,
,,,,,,,,,,,,l,Correct!,0,74,74,56,1,t5.png,t1.png,4,9.55E-11,19,Female,2020-09-25_19h13.44.167,torte-2b,2020.1.3,Win32,60,13254,0.731325,,,,,,,,,,,,,,,,,,,,,,,,,,,,,,,,,,,,,,,,,,,,,,,,,,,,,,,,,,,,,,,,,
,,,,,,,,,,,,l,Correct!,0,75,75,87,1,t5.png,t1.png,4,9.55E-11,19,Female,2020-09-25_19h13.44.167,torte-2b,2020.1.3,Win32,60,13254,1.000185,,,,,,,,,,,,,,,,,,,,,,,,,,,,,,,,,,,,,,,,,,,,,,,,,,,,,,,,,,,,,,,,,
,,,,,,,,,,,,a,Correct!,0,76,76,25,1,t5.png,t5.png,0,0.97829,19,Female,2020-09-25_19h13.44.167,torte-2b,2020.1.3,Win32,60,13254,1.01421,,,,,,,,,,,,,,,,,,,,,,,,,,,,,,,,,,,,,,,,,,,,,,,,,,,,,,,,,,,,,,,,,
,,,,,,,,,,,,l,Incorrect,0,77,77,85,1,t3.png,t2.png,1,0.90855,19,Female,2020-09-25_19h13.44.167,torte-2b,2020.1.3,Win32,60,13254,1.24742,,,,,,,,,,,,,,,,,,,,,,,,,,,,,,,,,,,,,,,,,,,,,,,,,,,,,,,,,,,,,,,,,
,,,,,,,,,,,,l,Correct!,0,78,78,72,1,t4.png,t2.png,2,0.059078,19,Female,2020-09-25_19h13.44.167,torte-2b,2020.1.3,Win32,60,13254,1.114575,,,,,,,,,,,,,,,,,,,,,,,,,,,,,,,,,,,,,,,,,,,,,,,,,,,,,,,,,,,,,,,,,
,,,,,,,,,,,,l,Incorrect,0,79,79,45,1,t3.png,t2.png,1,0.90855,19,Female,2020-09-25_19h13.44.167,torte-2b,2020.1.3,Win32,60,13254,1.49742,,,,,,,,,,,,,,,,,,,,,,,,,,,,,,,,,,,,,,,,,,,,,,,,,,,,,,,,,,,,,,,,,
,,,,,,,,,,,,l,Correct!,0,80,80,50,1,t5.png,t1.png,4,9.55E-11,19,Female,2020-09-25_19h13.44.167,torte-2b,2020.1.3,Win32,60,13254,0.820715,,,,,,,,,,,,,,,,,,,,,,,,,,,,,,,,,,,,,,,,,,,,,,,,,,,,,,,,,,,,,,,,,
,,,,,,,,,,,,a,Correct!,0,81,81,78,1,t1.png,t1.png,0,0.978,19,Female,2020-09-25_19h13.44.167,torte-2b,2020.1.3,Win32,60,13254,0.971165,,,,,,,,,,,,,,,,,,,,,,,,,,,,,,,,,,,,,,,,,,,,,,,,,,,,,,,,,,,,,,,,,
,,,,,,,,,,,,a,Correct!,0,82,82,34,1,t5.png,t4.png,1,0.9,19,Female,2020-09-25_19h13.44.167,torte-2b,2020.1.3,Win32,60,13254,1.487035,,,,,,,,,,,,,,,,,,,,,,,,,,,,,,,,,,,,,,,,,,,,,,,,,,,,,,,,,,,,,,,,,
,,,,,,,,,,,,l,Correct!,0,83,83,12,1,t5.png,t1.png,4,9.55E-11,19,Female,2020-09-25_19h13.44.167,torte-2b,2020.1.3,Win32,60,13254,0.57446,,,,,,,,,,,,,,,,,,,,,,,,,,,,,,,,,,,,,,,,,,,,,,,,,,,,,,,,,,,,,,,,,
,,,,,,,,,,,,l,Incorrect,0,84,84,62,1,t5.png,t5.png,0,0.978,19,Female,2020-09-25_19h13.44.167,torte-2b,2020.1.3,Win32,60,13254,1.27449,,,,,,,,,,,,,,,,,,,,,,,,,,,,,,,,,,,,,,,,,,,,,,,,,,,,,,,,,,,,,,,,,
,,,,,,,,,,,,a,Incorrect,0,85,85,51,1,t3.png,t1.png,2,0.056466,19,Female,2020-09-25_19h13.44.167,torte-2b,2020.1.3,Win32,60,13254,1.13471,,,,,,,,,,,,,,,,,,,,,,,,,,,,,,,,,,,,,,,,,,,,,,,,,,,,,,,,,,,,,,,,,
,,,,,,,,,,,,l,Incorrect,0,86,86,9,1,t4.png,t5.png,1,0.9,19,Female,2020-09-25_19h13.44.167,torte-2b,2020.1.3,Win32,60,13254,0.118,,,,,,,,,,,,,,,,,,,,,,,,,,,,,,,,,,,,,,,,,,,,,,,,,,,,,,,,,,,,,,,,,
,,,,,,,,,,,,l,Correct!,0,87,87,4,1,t1.png,t5.png,4,9.55E-11,19,Female,2020-09-25_19h13.44.167,torte-2b,2020.1.3,Win32,60,13254,0.664545,,,,,,,,,,,,,,,,,,,,,,,,,,,,,,,,,,,,,,,,,,,,,,,,,,,,,,,,,,,,,,,,,
,,,,,,,,,,,,l,Correct!,0,88,88,53,1,t3.png,t1.png,2,0.056466,19,Female,2020-09-25_19h13.44.167,torte-2b,2020.1.3,Win32,60,13254,1.29751,,,,,,,,,,,,,,,,,,,,,,,,,,,,,,,,,,,,,,,,,,,,,,,,,,,,,,,,,,,,,,,,,
,,,,,,,,,,,,a,Correct!,0,89,89,13,1,t5.png,t5.png,0,0.97829,19,Female,2020-09-25_19h13.44.167,torte-2b,2020.1.3,Win32,60,13254,1.823345,,,,,,,,,,,,,,,,,,,,,,,,,,,,,,,,,,,,,,,,,,,,,,,,,,,,,,,,,,,,,,,,,
,,,,,,,,,,,,l,Correct!,0,90,90,117,1,t1.png,t5.png,4,9.55E-11,19,Female,2020-09-25_19h13.44.167,torte-2b,2020.1.3,Win32,60,13254,0.765005,,,,,,,,,,,,,,,,,,,,,,,,,,,,,,,,,,,,,,,,,,,,,,,,,,,,,,,,,,,,,,,,,
,,,,,,,,,,,,a,Correct!,0,91,91,23,1,t5.png,t4.png,1,0.90025,19,Female,2020-09-25_19h13.44.167,torte-2b,2020.1.3,Win32,60,13254,1.48415,,,,,,,,,,,,,,,,,,,,,,,,,,,,,,,,,,,,,,,,,,,,,,,,,,,,,,,,,,,,,,,,,
,,,,,,,,,,,,l,Correct!,0,92,92,52,1,t2.png,t4.png,2,0.059078,19,Female,2020-09-25_19h13.44.167,torte-2b,2020.1.3,Win32,60,13254,1.06705,,,,,,,,,,,,,,,,,,,,,,,,,,,,,,,,,,,,,,,,,,,,,,,,,,,,,,,,,,,,,,,,,
,,,,,,,,,,,,l,Correct!,0,93,93,17,1,t1.png,t4.png,3,0.0000131,19,Female,2020-09-25_19h13.44.167,torte-2b,2020.1.3,Win32,60,13254,1.364385,,,,,,,,,,,,,,,,,,,,,,,,,,,,,,,,,,,,,,,,,,,,,,,,,,,,,,,,,,,,,,,,,
,,,,,,,,,,,,a,Correct!,0,94,94,66,1,t4.png,t5.png,1,0.9,19,Female,2020-09-25_19h13.44.167,torte-2b,2020.1.3,Win32,60,13254,1.108185,,,,,,,,,,,,,,,,,,,,,,,,,,,,,,,,,,,,,,,,,,,,,,,,,,,,,,,,,,,,,,,,,
,,,,,,,,,,,,l,Correct!,0,95,95,26,1,t4.png,t2.png,2,0.0591,19,Female,2020-09-25_19h13.44.167,torte-2b,2020.1.3,Win32,60,13254,1.31913,,,,,,,,,,,,,,,,,,,,,,,,,,,,,,,,,,,,,,,,,,,,,,,,,,,,,,,,,,,,,,,,,
,,,,,,,,,,,,a,Incorrect,0,96,96,19,1,t4.png,t2.png,2,0.059078,19,Female,2020-09-25_19h13.44.167,torte-2b,2020.1.3,Win32,60,13254,1.38089,,,,,,,,,,,,,,,,,,,,,,,,,,,,,,,,,,,,,,,,,,,,,,,,,,,,,,,,,,,,,,,,,
,,,,,,,,,,,,l,Correct!,0,97,97,21,1,t5.png,t4.png,1,0.90025,19,Female,2020-09-25_19h13.44.167,torte-2b,2020.1.3,Win32,60,13254,1.547105,,,,,,,,,,,,,,,,,,,,,,,,,,,,,,,,,,,,,,,,,,,,,,,,,,,,,,,,,,,,,,,,,
,,,,,,,,,,,,l,Correct!,0,98,98,102,1,t4.png,t2.png,2,0.059078,19,Female,2020-09-25_19h13.44.167,torte-2b,2020.1.3,Win32,60,13254,1.253615,,,,,,,,,,,,,,,,,,,,,,,,,,,,,,,,,,,,,,,,,,,,,,,,,,,,,,,,,,,,,,,,,
,,,,,,,,,,,,l,Incorrect,0,99,99,2,1,t3.png,t2.png,1,0.90855,19,Female,2020-09-25_19h13.44.167,torte-2b,2020.1.3,Win32,60,13254,1.319685,,,,,,,,,,,,,,,,,,,,,,,,,,,,,,,,,,,,,,,,,,,,,,,,,,,,,,,,,,,,,,,,,
,,,,,,,,,,,,a,Correct!,0,100,100,58,1,t5.png,t4.png,1,0.90025,19,Female,2020-09-25_19h13.44.167,torte-2b,2020.1.3,Win32,60,13254,1.852185,,,,,,,,,,,,,,,,,,,,,,,,,,,,,,,,,,,,,,,,,,,,,,,,,,,,,,,,,,,,,,,,,
,,,,,,,,,,,,l,Correct!,0,101,101,35,1,t1.png,t4.png,3,0.0000131,19,Female,2020-09-25_19h13.44.167,torte-2b,2020.1.3,Win32,60,13254,0.69803,,,,,,,,,,,,,,,,,,,,,,,,,,,,,,,,,,,,,,,,,,,,,,,,,,,,,,,,,,,,,,,,,
,,,,,,,,,,,,l,Correct!,0,102,102,5,1,t2.png,t4.png,2,0.059078,19,Female,2020-09-25_19h13.44.167,torte-2b,2020.1.3,Win32,60,13254,0.78419,,,,,,,,,,,,,,,,,,,,,,,,,,,,,,,,,,,,,,,,,,,,,,,,,,,,,,,,,,,,,,,,,
,,,,,,,,,,,,l,Incorrect,0,103,103,114,1,t2.png,t3.png,1,0.90855,19,Female,2020-09-25_19h13.44.167,torte-2b,2020.1.3,Win32,60,13254,1.252605,,,,,,,,,,,,,,,,,,,,,,,,,,,,,,,,,,,,,,,,,,,,,,,,,,,,,,,,,,,,,,,,,
,,,,,,,,,,,,l,Correct!,0,104,104,105,1,t3.png,t2.png,1,0.90855,19,Female,2020-09-25_19h13.44.167,torte-2b,2020.1.3,Win32,60,13254,1.098125,,,,,,,,,,,,,,,,,,,,,,,,,,,,,,,,,,,,,,,,,,,,,,,,,,,,,,,,,,,,,,,,,
,,,,,,,,,,,,a,Incorrect,0,105,105,43,1,t4.png,t2.png,2,0.059078,19,Female,2020-09-25_19h13.44.167,torte-2b,2020.1.3,Win32,60,13254,1.663675,,,,,,,,,,,,,,,,,,,,,,,,,,,,,,,,,,,,,,,,,,,,,,,,,,,,,,,,,,,,,,,,,
,,,,,,,,,,,,l,Correct!,0,106,106,115,1,t2.png,t4.png,2,0.059078,19,Female,2020-09-25_19h13.44.167,torte-2b,2020.1.3,Win32,60,13254,1.01591,,,,,,,,,,,,,,,,,,,,,,,,,,,,,,,,,,,,,,,,,,,,,,,,,,,,,,,,,,,,,,,,,
,,,,,,,,,,,,l,Correct!,0,107,107,24,1,t4.png,t2.png,2,0.059078,19,Female,2020-09-25_19h13.44.167,torte-2b,2020.1.3,Win32,60,13254,1.135065,,,,,,,,,,,,,,,,,,,,,,,,,,,,,,,,,,,,,,,,,,,,,,,,,,,,,,,,,,,,,,,,,
,,,,,,,,,,,,a,Correct!,0,108,108,49,1,t4.png,t5.png,1,0.9,19,Female,2020-09-25_19h13.44.167,torte-2b,2020.1.3,Win32,60,13254,1.639225,,,,,,,,,,,,,,,,,,,,,,,,,,,,,,,,,,,,,,,,,,,,,,,,,,,,,,,,,,,,,,,,,
,,,,,,,,,,,,a,Correct!,0,109,109,74,1,t5.png,t4.png,1,0.9,19,Female,2020-09-25_19h13.44.167,torte-2b,2020.1.3,Win32,60,13254,1.64131,,,,,,,,,,,,,,,,,,,,,,,,,,,,,,,,,,,,,,,,,,,,,,,,,,,,,,,,,,,,,,,,,
,,,,,,,,,,,,l,Correct!,0,110,110,40,1,t1.png,t5.png,4,9.55E-11,19,Female,2020-09-25_19h13.44.167,torte-2b,2020.1.3,Win32,60,13254,0.731825,,,,,,,,,,,,,,,,,,,,,,,,,,,,,,,,,,,,,,,,,,,,,,,,,,,,,,,,,,,,,,,,,
,,,,,,,,,,,,a,Incorrect,0,111,111,89,1,t1.png,t4.png,3,0.0000131,19,Female,2020-09-25_19h13.44.167,torte-2b,2020.1.3,Win32,60,13254,0.93763,,,,,,,,,,,,,,,,,,,,,,,,,,,,,,,,,,,,,,,,,,,,,,,,,,,,,,,,,,,,,,,,,
,,,,,,,,,,,,l,Correct!,0,112,112,57,1,t2.png,t4.png,2,0.059078,19,Female,2020-09-25_19h13.44.167,torte-2b,2020.1.3,Win32,60,13254,0.81831,,,,,,,,,,,,,,,,,,,,,,,,,,,,,,,,,,,,,,,,,,,,,,,,,,,,,,,,,,,,,,,,,
,,,,,,,,,,,,l,Correct!,0,113,113,6,1,t1.png,t4.png,3,0.0000131,19,Female,2020-09-25_19h13.44.167,torte-2b,2020.1.3,Win32,60,13254,0.981795,,,,,,,,,,,,,,,,,,,,,,,,,,,,,,,,,,,,,,,,,,,,,,,,,,,,,,,,,,,,,,,,,
,,,,,,,,,,,,l,Incorrect,0,114,114,39,1,t3.png,t2.png,1,0.90855,19,Female,2020-09-25_19h13.44.167,torte-2b,2020.1.3,Win32,60,13254,1.73198,,,,,,,,,,,,,,,,,,,,,,,,,,,,,,,,,,,,,,,,,,,,,,,,,,,,,,,,,,,,,,,,,
,,,,,,,,,,,,l,Correct!,0,115,115,0,1,t5.png,t1.png,4,9.55E-11,19,Female,2020-09-25_19h13.44.167,torte-2b,2020.1.3,Win32,60,13254,1.088385,,,,,,,,,,,,,,,,,,,,,,,,,,,,,,,,,,,,,,,,,,,,,,,,,,,,,,,,,,,,,,,,,
,,,,,,,,,,,,l,Correct!,0,116,116,27,1,t3.png,t1.png,2,0.0565,19,Female,2020-09-25_19h13.44.167,torte-2b,2020.1.3,Win32,60,13254,1.350835,,,,,,,,,,,,,,,,,,,,,,,,,,,,,,,,,,,,,,,,,,,,,,,,,,,,,,,,,,,,,,,,,
,,,,,,,,,,,,a,Correct!,0,117,117,95,1,t1.png,t1.png,0,0.978,19,Female,2020-09-25_19h13.44.167,torte-2b,2020.1.3,Win32,60,13254,2.04713,,,,,,,,,,,,,,,,,,,,,,,,,,,,,,,,,,,,,,,,,,,,,,,,,,,,,,,,,,,,,,,,,
,,,,,,,,,,,,l,Correct!,0,118,118,82,1,t5.png,t1.png,4,9.55E-11,19,Female,2020-09-25_19h13.44.167,torte-2b,2020.1.3,Win32,60,13254,0.66527,,,,,,,,,,,,,,,,,,,,,,,,,,,,,,,,,,,,,,,,,,,,,,,,,,,,,,,,,,,,,,,,,
,,,,,,,,,,,,l,Incorrect,0,119,119,76,1,t3.png,t2.png,1,0.90855,19,Female,2020-09-25_19h13.44.167,torte-2b,2020.1.3,Win32,60,13254,1.563915,,,,,,,,,,,,,,,,,,,,,,,,,,,,,,,,,,,,,,,,,,,,,,,,,,,,,,,,,,,,,,,,,
,,,,,,,,,,,,,Too slow :(,,,,,,t1.png,t5.png,4,9.55E-11,19,Female,2020-09-25_19h13.44.167,torte-2b,2020.1.3,Win32,60,13254,,space,1.716005,space,11.85837,0,0,0,41,1,,,,,,,,,,,,,,,,,,,,,,,,,,,,,,,,,,,,,,,,,,,,,,,,,,,,,,,,
,,,,,,,,,,,,a,Incorrect,,,,,,t3.png,t1.png,2,0.0565,19,Female,2020-09-25_19h13.44.167,torte-2b,2020.1.3,Win32,60,13254,1.28902,,,,,0,1,1,31,1,,,,,,,,,,,,,,,,,,,,,,,,,,,,,,,,,,,,,,,,,,,,,,,,,,,,,,,,
,,,,,,,,,,,,a,Incorrect,,,,,,t5.png,t2.png,3,0.0000131,19,Female,2020-09-25_19h13.44.167,torte-2b,2020.1.3,Win32,60,13254,1.29779,,,,,0,2,2,98,1,,,,,,,,,,,,,,,,,,,,,,,,,,,,,,,,,,,,,,,,,,,,,,,,,,,,,,,,
,,,,,,,,,,,,a,Correct!,,,,,,t5.png,t4.png,1,0.90025,19,Female,2020-09-25_19h13.44.167,torte-2b,2020.1.3,Win32,60,13254,1.28921,,,,,0,3,3,26,1,,,,,,,,,,,,,,,,,,,,,,,,,,,,,,,,,,,,,,,,,,,,,,,,,,,,,,,,
,,,,,,,,,,,,a,Correct!,,,,,,t4.png,t4.png,0,0.98115,19,Female,2020-09-25_19h13.44.167,torte-2b,2020.1.3,Win32,60,13254,1.89684,,,,,0,4,4,90,1,,,,,,,,,,,,,,,,,,,,,,,,,,,,,,,,,,,,,,,,,,,,,,,,,,,,,,,,
,,,,,,,,,,,,a,Correct!,,,,,,t1.png,t2.png,1,0.90025,19,Female,2020-09-25_19h13.44.167,torte-2b,2020.1.3,Win32,60,13254,1.39768,,,,,0,5,5,33,1,,,,,,,,,,,,,,,,,,,,,,,,,,,,,,,,,,,,,,,,,,,,,,,,,,,,,,,,
,,,,,,,,,,,,a,Correct!,,,,,,t4.png,t4.png,0,0.98115,19,Female,2020-09-25_19h13.44.167,torte-2b,2020.1.3,Win32,60,13254,1.09777,,,,,0,6,6,80,1,,,,,,,,,,,,,,,,,,,,,,,,,,,,,,,,,,,,,,,,,,,,,,,,,,,,,,,,
,,,,,,,,,,,,a,Correct!,,,,,,t2.png,t1.png,1,0.90025,19,Female,2020-09-25_19h13.44.167,torte-2b,2020.1.3,Win32,60,13254,1.214115,,,,,0,7,7,5,1,,,,,,,,,,,,,,,,,,,,,,,,,,,,,,,,,,,,,,,,,,,,,,,,,,,,,,,,
,,,,,,,,,,,,l,Incorrect,,,,,,t1.png,t3.png,2,0.056466,19,Female,2020-09-25_19h13.44.167,torte-2b,2020.1.3,Win32,60,13254,2.31533,,,,,0,8,8,69,1,,,,,,,,,,,,,,,,,,,,,,,,,,,,,,,,,,,,,,,,,,,,,,,,,,,,,,,,
,,,,,,,,,,,,l,Correct!,,,,,,t1.png,t5.png,4,9.55E-11,19,Female,2020-09-25_19h13.44.167,torte-2b,2020.1.3,Win32,60,13254,0.747275,,,,,0,9,9,12,1,,,,,,,,,,,,,,,,,,,,,,,,,,,,,,,,,,,,,,,,,,,,,,,,,,,,,,,,
,,,,,,,,,,,,a,Incorrect,,,,,,t5.png,t2.png,3,0.0000131,19,Female,2020-09-25_19h13.44.167,torte-2b,2020.1.3,Win32,60,13254,1.49722,,,,,0,10,10,119,1,,,,,,,,,,,,,,,,,,,,,,,,,,,,,,,,,,,,,,,,,,,,,,,,,,,,,,,,
,,,,,,,,,,,,l,Correct!,,,,,,t3.png,t5.png,2,0.0565,19,Female,2020-09-25_19h13.44.167,torte-2b,2020.1.3,Win32,60,13254,0.297855,,,,,0,11,11,30,1,,,,,,,,,,,,,,,,,,,,,,,,,,,,,,,,,,,,,,,,,,,,,,,,,,,,,,,,
,,,,,,,,,,,,a,Incorrect,,,,,,t2.png,t5.png,3,0.0000131,19,Female,2020-09-25_19h13.44.167,torte-2b,2020.1.3,Win32,60,13254,1.177825,,,,,0,12,12,95,1,,,,,,,,,,,,,,,,,,,,,,,,,,,,,,,,,,,,,,,,,,,,,,,,,,,,,,,,
,,,,,,,,,,,,a,Correct!,,,,,,t2.png,t2.png,0,0.98115,19,Female,2020-09-25_19h13.44.167,torte-2b,2020.1.3,Win32,60,13254,0.83598,,,,,0,13,13,59,1,,,,,,,,,,,,,,,,,,,,,,,,,,,,,,,,,,,,,,,,,,,,,,,,,,,,,,,,
,,,,,,,,,,,,a,Incorrect,,,,,,t2.png,t5.png,3,0.0000131,19,Female,2020-09-25_19h13.44.167,torte-2b,2020.1.3,Win32,60,13254,1.223185,,,,,0,14,14,104,1,,,,,,,,,,,,,,,,,,,,,,,,,,,,,,,,,,,,,,,,,,,,,,,,,,,,,,,,
,,,,,,,,,,,,a,Correct!,,,,,,t3.png,t2.png,1,0.90855,19,Female,2020-09-25_19h13.44.167,torte-2b,2020.1.3,Win32,60,13254,2.253025,,,,,0,15,15,97,1,,,,,,,,,,,,,,,,,,,,,,,,,,,,,,,,,,,,,,,,,,,,,,,,,,,,,,,,
,,,,,,,,,,,,a,Correct!,,,,,,t1.png,t1.png,0,0.97829,19,Female,2020-09-25_19h13.44.167,torte-2b,2020.1.3,Win32,60,13254,0.871105,,,,,0,16,16,67,1,,,,,,,,,,,,,,,,,,,,,,,,,,,,,,,,,,,,,,,,,,,,,,,,,,,,,,,,
,,,,,,,,,,,,a,Incorrect,,,,,,t5.png,t2.png,3,0.0000131,19,Female,2020-09-25_19h13.44.167,torte-2b,2020.1.3,Win32,60,13254,1.390795,,,,,0,17,17,51,1,,,,,,,,,,,,,,,,,,,,,,,,,,,,,,,,,,,,,,,,,,,,,,,,,,,,,,,,
,,,,,,,,,,,,a,Incorrect,,,,,,t5.png,t3.png,2,0.0565,19,Female,2020-09-25_19h13.44.167,torte-2b,2020.1.3,Win32,60,13254,2.27369,,,,,0,18,18,39,1,,,,,,,,,,,,,,,,,,,,,,,,,,,,,,,,,,,,,,,,,,,,,,,,,,,,,,,,
,,,,,,,,,,,,l,Correct!,,,,,,t1.png,t3.png,2,0.056466,19,Female,2020-09-25_19h13.44.167,torte-2b,2020.1.3,Win32,60,13254,1.100985,,,,,0,19,19,60,1,,,,,,,,,,,,,,,,,,,,,,,,,,,,,,,,,,,,,,,,,,,,,,,,,,,,,,,,
,,,,,,,,,,,,a,Incorrect,,,,,,t1.png,t4.png,3,0.0000131,19,Female,2020-09-25_19h13.44.167,torte-2b,2020.1.3,Win32,60,13254,1.684055,,,,,0,20,20,50,1,,,,,,,,,,,,,,,,,,,,,,,,,,,,,,,,,,,,,,,,,,,,,,,,,,,,,,,,
,,,,,,,,,,,,,Too slow :(,,,,,,t3.png,t4.png,1,0.909,19,Female,2020-09-25_19h13.44.167,torte-2b,2020.1.3,Win32,60,13254,,,,,,0,21,21,106,1,,,,,,,,,,,,,,,,,,,,,,,,,,,,,,,,,,,,,,,,,,,,,,,,,,,,,,,,
,,,,,,,,,,,,a,Correct!,,,,,,t5.png,t4.png,1,0.9,19,Female,2020-09-25_19h13.44.167,torte-2b,2020.1.3,Win32,60,13254,0.93102,,,,,0,22,22,76,1,,,,,,,,,,,,,,,,,,,,,,,,,,,,,,,,,,,,,,,,,,,,,,,,,,,,,,,,
,,,,,,,,,,,,l,Incorrect,,,,,,t2.png,t2.png,0,0.98115,19,Female,2020-09-25_19h13.44.167,torte-2b,2020.1.3,Win32,60,13254,1.296945,,,,,0,23,23,2,1,,,,,,,,,,,,,,,,,,,,,,,,,,,,,,,,,,,,,,,,,,,,,,,,,,,,,,,,
,,,,,,,,,,,,a,Incorrect,,,,,,t5.png,t2.png,3,0.0000131,19,Female,2020-09-25_19h13.44.167,torte-2b,2020.1.3,Win32,60,13254,1.11371,,,,,0,24,24,91,1,,,,,,,,,,,,,,,,,,,,,,,,,,,,,,,,,,,,,,,,,,,,,,,,,,,,,,,,
,,,,,,,,,,,,l,Correct!,,,,,,t5.png,t1.png,4,9.55E-11,19,Female,2020-09-25_19h13.44.167,torte-2b,2020.1.3,Win32,60,13254,0.913425,,,,,0,25,25,102,1,,,,,,,,,,,,,,,,,,,,,,,,,,,,,,,,,,,,,,,,,,,,,,,,,,,,,,,,
,,,,,,,,,,,,l,Correct!,,,,,,t3.png,t1.png,2,0.056466,19,Female,2020-09-25_19h13.44.167,torte-2b,2020.1.3,Win32,60,13254,1.05861,,,,,0,26,26,64,1,,,,,,,,,,,,,,,,,,,,,,,,,,,,,,,,,,,,,,,,,,,,,,,,,,,,,,,,
,,,,,,,,,,,,a,Correct!,,,,,,t5.png,t4.png,1,0.90025,19,Female,2020-09-25_19h13.44.167,torte-2b,2020.1.3,Win32,60,13254,0.980435,,,,,0,27,27,34,1,,,,,,,,,,,,,,,,,,,,,,,,,,,,,,,,,,,,,,,,,,,,,,,,,,,,,,,,
,,,,,,,,,,,,a,Correct!,,,,,,t5.png,t5.png,0,0.97829,19,Female,2020-09-25_19h13.44.167,torte-2b,2020.1.3,Win32,60,13254,1.023675,,,,,0,28,28,25,1,,,,,,,,,,,,,,,,,,,,,,,,,,,,,,,,,,,,,,,,,,,,,,,,,,,,,,,,
,,,,,,,,,,,,a,Incorrect,,,,,,t4.png,t2.png,2,0.059078,19,Female,2020-09-25_19h13.44.167,torte-2b,2020.1.3,Win32,60,13254,1.68736,,,,,0,29,29,88,1,,,,,,,,,,,,,,,,,,,,,,,,,,,,,,,,,,,,,,,,,,,,,,,,,,,,,,,,
,,,,,,,,,,,,a,Correct!,,,,,,t5.png,t5.png,0,0.97829,19,Female,2020-09-25_19h13.44.167,torte-2b,2020.1.3,Win32,60,13254,0.8312,,,,,0,30,30,73,1,,,,,,,,,,,,,,,,,,,,,,,,,,,,,,,,,,,,,,,,,,,,,,,,,,,,,,,,
,,,,,,,,,,,,a,Incorrect,,,,,,t2.png,t4.png,2,0.059078,19,Female,2020-09-25_19h13.44.167,torte-2b,2020.1.3,Win32,60,13254,2.063215,,,,,0,31,31,77,1,,,,,,,,,,,,,,,,,,,,,,,,,,,,,,,,,,,,,,,,,,,,,,,,,,,,,,,,
,,,,,,,,,,,,l,Correct!,,,,,,t3.png,t1.png,2,0.056466,19,Female,2020-09-25_19h13.44.167,torte-2b,2020.1.3,Win32,60,13254,1.08068,,,,,0,32,32,32,1,,,,,,,,,,,,,,,,,,,,,,,,,,,,,,,,,,,,,,,,,,,,,,,,,,,,,,,,
,,,,,,,,,,,,a,Correct!,,,,,,t1.png,t1.png,0,0.978,19,Female,2020-09-25_19h13.44.167,torte-2b,2020.1.3,Win32,60,13254,0.78103,,,,,0,33,33,28,1,,,,,,,,,,,,,,,,,,,,,,,,,,,,,,,,,,,,,,,,,,,,,,,,,,,,,,,,
,,,,,,,,,,,,l,Correct!,,,,,,t1.png,t5.png,4,9.55E-11,19,Female,2020-09-25_19h13.44.167,torte-2b,2020.1.3,Win32,60,13254,0.665165,,,,,0,34,34,85,1,,,,,,,,,,,,,,,,,,,,,,,,,,,,,,,,,,,,,,,,,,,,,,,,,,,,,,,,
,,,,,,,,,,,,l,Correct!,,,,,,t2.png,t4.png,2,0.059078,19,Female,2020-09-25_19h13.44.167,torte-2b,2020.1.3,Win32,60,13254,0.781995,,,,,0,35,35,24,1,,,,,,,,,,,,,,,,,,,,,,,,,,,,,,,,,,,,,,,,,,,,,,,,,,,,,,,,
,,,,,,,,,,,,a,Incorrect,,,,,,t3.png,t5.png,2,0.0565,19,Female,2020-09-25_19h13.44.167,torte-2b,2020.1.3,Win32,60,13254,1.030575,,,,,0,36,36,83,1,,,,,,,,,,,,,,,,,,,,,,,,,,,,,,,,,,,,,,,,,,,,,,,,,,,,,,,,
,,,,,,,,,,,,a,Correct!,,,,,,t2.png,t1.png,1,0.9,19,Female,2020-09-25_19h13.44.167,torte-2b,2020.1.3,Win32,60,13254,1.91363,,,,,0,37,37,118,1,,,,,,,,,,,,,,,,,,,,,,,,,,,,,,,,,,,,,,,,,,,,,,,,,,,,,,,,
,,,,,,,,,,,,l,Correct!,,,,,,t1.png,t4.png,3,0.0000131,19,Female,2020-09-25_19h13.44.167,torte-2b,2020.1.3,Win32,60,13254,1.597425,,,,,0,38,38,92,1,,,,,,,,,,,,,,,,,,,,,,,,,,,,,,,,,,,,,,,,,,,,,,,,,,,,,,,,
,,,,,,,,,,,,l,Correct!,,,,,,t5.png,t1.png,4,9.55E-11,19,Female,2020-09-25_19h13.44.167,torte-2b,2020.1.3,Win32,60,13254,0.75457,,,,,0,39,39,43,1,,,,,,,,,,,,,,,,,,,,,,,,,,,,,,,,,,,,,,,,,,,,,,,,,,,,,,,,
,,,,,,,,,,,,l,Correct!,,,,,,t2.png,t4.png,2,0.0591,19,Female,2020-09-25_19h13.44.167,torte-2b,2020.1.3,Win32,60,13254,1.10825,,,,,0,40,40,15,1,,,,,,,,,,,,,,,,,,,,,,,,,,,,,,,,,,,,,,,,,,,,,,,,,,,,,,,,
,,,,,,,,,,,,a,Correct!,,,,,,t3.png,t5.png,2,0.056466,19,Female,2020-09-25_19h13.44.167,torte-2b,2020.1.3,Win32,60,13254,1.11817,,,,,0,41,41,6,1,,,,,,,,,,,,,,,,,,,,,,,,,,,,,,,,,,,,,,,,,,,,,,,,,,,,,,,,
,,,,,,,,,,,,a,Correct!,,,,,,t1.png,t1.png,0,0.978,19,Female,2020-09-25_19h13.44.167,torte-2b,2020.1.3,Win32,60,13254,0.86428,,,,,0,42,42,54,1,,,,,,,,,,,,,,,,,,,,,,,,,,,,,,,,,,,,,,,,,,,,,,,,,,,,,,,,
,,,,,,,,,,,,l,Incorrect,,,,,,t3.png,t2.png,1,0.90855,19,Female,2020-09-25_19h13.44.167,torte-2b,2020.1.3,Win32,60,13254,1.39713,,,,,0,43,43,18,1,,,,,,,,,,,,,,,,,,,,,,,,,,,,,,,,,,,,,,,,,,,,,,,,,,,,,,,,
,,,,,,,,,,,,a,Correct!,,,,,,t5.png,t5.png,0,0.978,19,Female,2020-09-25_19h13.44.167,torte-2b,2020.1.3,Win32,60,13254,0.83554,,,,,0,44,44,117,1,,,,,,,,,,,,,,,,,,,,,,,,,,,,,,,,,,,,,,,,,,,,,,,,,,,,,,,,
,,,,,,,,,,,,l,Incorrect,,,,,,t3.png,t2.png,1,0.909,19,Female,2020-09-25_19h13.44.167,torte-2b,2020.1.3,Win32,60,13254,1.787315,,,,,0,45,45,23,1,,,,,,,,,,,,,,,,,,,,,,,,,,,,,,,,,,,,,,,,,,,,,,,,,,,,,,,,
,,,,,,,,,,,,a,Correct!,,,,,,t1.png,t2.png,1,0.90025,19,Female,2020-09-25_19h13.44.167,torte-2b,2020.1.3,Win32,60,13254,1.03706,,,,,0,46,46,112,1,,,,,,,,,,,,,,,,,,,,,,,,,,,,,,,,,,,,,,,,,,,,,,,,,,,,,,,,
,,,,,,,,,,,,a,Correct!,,,,,,t3.png,t4.png,1,0.909,19,Female,2020-09-25_19h13.44.167,torte-2b,2020.1.3,Win32,60,13254,1.64683,,,,,0,47,47,82,1,,,,,,,,,,,,,,,,,,,,,,,,,,,,,,,,,,,,,,,,,,,,,,,,,,,,,,,,
,,,,,,,,,,,,l,Incorrect,,,,,,t3.png,t2.png,1,0.90855,19,Female,2020-09-25_19h13.44.167,torte-2b,2020.1.3,Win32,60,13254,1.397515,,,,,0,48,48,53,1,,,,,,,,,,,,,,,,,,,,,,,,,,,,,,,,,,,,,,,,,,,,,,,,,,,,,,,,
,,,,,,,,,,,,a,Correct!,,,,,,t4.png,t4.png,0,0.98115,19,Female,2020-09-25_19h13.44.167,torte-2b,2020.1.3,Win32,60,13254,0.77332,,,,,0,49,49,21,1,,,,,,,,,,,,,,,,,,,,,,,,,,,,,,,,,,,,,,,,,,,,,,,,,,,,,,,,
,,,,,,,,,,,,,Too slow :(,,,,,,t2.png,t3.png,1,0.90855,19,Female,2020-09-25_19h13.44.167,torte-2b,2020.1.3,Win32,60,13254,,,,,,0,50,50,10,1,,,,,,,,,,,,,,,,,,,,,,,,,,,,,,,,,,,,,,,,,,,,,,,,,,,,,,,,
,,,,,,,,,,,,a,Correct!,,,,,,t1.png,t1.png,0,0.97829,19,Female,2020-09-25_19h13.44.167,torte-2b,2020.1.3,Win32,60,13254,0.687725,,,,,0,51,51,9,1,,,,,,,,,,,,,,,,,,,,,,,,,,,,,,,,,,,,,,,,,,,,,,,,,,,,,,,,
,,,,,,,,,,,,l,Incorrect,,,,,,t2.png,t3.png,1,0.90855,19,Female,2020-09-25_19h13.44.167,torte-2b,2020.1.3,Win32,60,13254,0.931225,,,,,0,52,52,65,1,,,,,,,,,,,,,,,,,,,,,,,,,,,,,,,,,,,,,,,,,,,,,,,,,,,,,,,,
,,,,,,,,,,,,a,Incorrect,,,,,,t2.png,t1.png,1,0.90025,19,Female,2020-09-25_19h13.44.167,torte-2b,2020.1.3,Win32,60,13254,1.264295,,,,,0,53,53,19,1,,,,,,,,,,,,,,,,,,,,,,,,,,,,,,,,,,,,,,,,,,,,,,,,,,,,,,,,
,,,,,,,,,,,,a,Correct!,,,,,,t5.png,t4.png,1,0.9,19,Female,2020-09-25_19h13.44.167,torte-2b,2020.1.3,Win32,60,13254,0.980455,,,,,0,54,54,49,1,,,,,,,,,,,,,,,,,,,,,,,,,,,,,,,,,,,,,,,,,,,,,,,,,,,,,,,,
,,,,,,,,,,,,a,Incorrect,,,,,,t5.png,t2.png,3,0.0000131,19,Female,2020-09-25_19h13.44.167,torte-2b,2020.1.3,Win32,60,13254,1.04838,,,,,0,55,55,116,1,,,,,,,,,,,,,,,,,,,,,,,,,,,,,,,,,,,,,,,,,,,,,,,,,,,,,,,,
,,,,,,,,,,,,l,Incorrect,,,,,,t2.png,t3.png,1,0.909,19,Female,2020-09-25_19h13.44.167,torte-2b,2020.1.3,Win32,60,13254,0.9417,,,,,0,56,56,74,1,,,,,,,,,,,,,,,,,,,,,,,,,,,,,,,,,,,,,,,,,,,,,,,,,,,,,,,,
,,,,,,,,,,,,l,Correct!,,,,,,t1.png,t3.png,2,0.056466,19,Female,2020-09-25_19h13.44.167,torte-2b,2020.1.3,Win32,60,13254,1.08247,,,,,0,57,57,87,1,,,,,,,,,,,,,,,,,,,,,,,,,,,,,,,,,,,,,,,,,,,,,,,,,,,,,,,,
,,,,,,,,,,,,a,Incorrect,,,,,,t4.png,t2.png,2,0.0591,19,Female,2020-09-25_19h13.44.167,torte-2b,2020.1.3,Win32,60,13254,1.22201,,,,,0,58,58,36,1,,,,,,,,,,,,,,,,,,,,,,,,,,,,,,,,,,,,,,,,,,,,,,,,,,,,,,,,
,,,,,,,,,,,,a,Correct!,,,,,,t4.png,t5.png,1,0.9,19,Female,2020-09-25_19h13.44.167,torte-2b,2020.1.3,Win32,60,13254,1.047535,,,,,0,59,59,115,1,,,,,,,,,,,,,,,,,,,,,,,,,,,,,,,,,,,,,,,,,,,,,,,,,,,,,,,,
,,,,,,,,,,,,a,Correct!,,,,,,t4.png,t4.png,0,0.98115,19,Female,2020-09-25_19h13.44.167,torte-2b,2020.1.3,Win32,60,13254,0.78135,,,,,0,60,60,52,1,,,,,,,,,,,,,,,,,,,,,,,,,,,,,,,,,,,,,,,,,,,,,,,,,,,,,,,,
,,,,,,,,,,,,a,Correct!,,,,,,t5.png,t4.png,1,0.90025,19,Female,2020-09-25_19h13.44.167,torte-2b,2020.1.3,Win32,60,13254,1.331795,,,,,0,61,61,27,1,,,,,,,,,,,,,,,,,,,,,,,,,,,,,,,,,,,,,,,,,,,,,,,,,,,,,,,,
,,,,,,,,,,,,a,Correct!,,,,,,t4.png,t5.png,1,0.90025,19,Female,2020-09-25_19h13.44.167,torte-2b,2020.1.3,Win32,60,13254,1.13141,,,,,0,62,62,58,1,,,,,,,,,,,,,,,,,,,,,,,,,,,,,,,,,,,,,,,,,,,,,,,,,,,,,,,,
,,,,,,,,,,,,l,Correct!,,,,,,t1.png,t5.png,4,9.55E-11,19,Female,2020-09-25_19h13.44.167,torte-2b,2020.1.3,Win32,60,13254,0.754765,,,,,0,63,63,16,1,,,,,,,,,,,,,,,,,,,,,,,,,,,,,,,,,,,,,,,,,,,,,,,,,,,,,,,,
,,,,,,,,,,,,a,Correct!,,,,,,t4.png,t5.png,1,0.90025,19,Female,2020-09-25_19h13.44.167,torte-2b,2020.1.3,Win32,60,13254,0.77206,,,,,0,64,64,113,1,,,,,,,,,,,,,,,,,,,,,,,,,,,,,,,,,,,,,,,,,,,,,,,,,,,,,,,,
,,,,,,,,,,,,a,Incorrect,,,,,,t5.png,t3.png,2,0.056466,19,Female,2020-09-25_19h13.44.167,torte-2b,2020.1.3,Win32,60,13254,0.70708,,,,,0,65,65,38,1,,,,,,,,,,,,,,,,,,,,,,,,,,,,,,,,,,,,,,,,,,,,,,,,,,,,,,,,
,,,,,,,,,,,,a,Incorrect,,,,,,t5.png,t3.png,2,0.056466,19,Female,2020-09-25_19h13.44.167,torte-2b,2020.1.3,Win32,60,13254,0.613705,,,,,0,66,66,108,1,,,,,,,,,,,,,,,,,,,,,,,,,,,,,,,,,,,,,,,,,,,,,,,,,,,,,,,,
,,,,,,,,,,,,a,Correct!,,,,,,t4.png,t3.png,1,0.90855,19,Female,2020-09-25_19h13.44.167,torte-2b,2020.1.3,Win32,60,13254,0.983535,,,,,0,67,67,75,1,,,,,,,,,,,,,,,,,,,,,,,,,,,,,,,,,,,,,,,,,,,,,,,,,,,,,,,,
,,,,,,,,,,,,a,Incorrect,,,,,,t2.png,t5.png,3,0.0000131,19,Female,2020-09-25_19h13.44.167,torte-2b,2020.1.3,Win32,60,13254,0.947465,,,,,0,68,68,66,1,,,,,,,,,,,,,,,,,,,,,,,,,,,,,,,,,,,,,,,,,,,,,,,,,,,,,,,,
,,,,,,,,,,,,l,Incorrect,,,,,,t2.png,t2.png,0,0.98115,19,Female,2020-09-25_19h13.44.167,torte-2b,2020.1.3,Win32,60,13254,1.130645,,,,,0,69,69,57,1,,,,,,,,,,,,,,,,,,,,,,,,,,,,,,,,,,,,,,,,,,,,,,,,,,,,,,,,
,,,,,,,,,,,,l,Correct!,,,,,,t3.png,t1.png,2,0.056466,19,Female,2020-09-25_19h13.44.167,torte-2b,2020.1.3,Win32,60,13254,1.17229,,,,,0,70,70,0,1,,,,,,,,,,,,,,,,,,,,,,,,,,,,,,,,,,,,,,,,,,,,,,,,,,,,,,,,
,,,,,,,,,,,,a,Correct!,,,,,,t4.png,t3.png,1,0.909,19,Female,2020-09-25_19h13.44.167,torte-2b,2020.1.3,Win32,60,13254,1.188795,,,,,0,71,71,46,1,,,,,,,,,,,,,,,,,,,,,,,,,,,,,,,,,,,,,,,,,,,,,,,,,,,,,,,,
,,,,,,,,,,,,,Too slow :(,,,,,,t1.png,t2.png,1,0.90025,19,Female,2020-09-25_19h13.44.167,torte-2b,2020.1.3,Win32,60,13254,,,,,,0,72,72,105,1,,,,,,,,,,,,,,,,,,,,,,,,,,,,,,,,,,,,,,,,,,,,,,,,,,,,,,,,
,,,,,,,,,,,,a,Incorrect,,,,,,t4.png,t3.png,1,0.90855,19,Female,2020-09-25_19h13.44.167,torte-2b,2020.1.3,Win32,60,13254,2.457035,,,,,0,73,73,35,1,,,,,,,,,,,,,,,,,,,,,,,,,,,,,,,,,,,,,,,,,,,,,,,,,,,,,,,,
,,,,,,,,,,,,l,Correct!,,,,,,t5.png,t1.png,4,9.55E-11,19,Female,2020-09-25_19h13.44.167,torte-2b,2020.1.3,Win32,60,13254,0.86483,,,,,0,74,74,100,1,,,,,,,,,,,,,,,,,,,,,,,,,,,,,,,,,,,,,,,,,,,,,,,,,,,,,,,,
,,,,,,,,,,,,l,Incorrect,,,,,,t3.png,t2.png,1,0.909,19,Female,2020-09-25_19h13.44.167,torte-2b,2020.1.3,Win32,60,13254,0.915995,,,,,0,75,75,3,1,,,,,,,,,,,,,,,,,,,,,,,,,,,,,,,,,,,,,,,,,,,,,,,,,,,,,,,,
,,,,,,,,,,,,l,Correct!,,,,,,t3.png,t1.png,2,0.056466,19,Female,2020-09-25_19h13.44.167,torte-2b,2020.1.3,Win32,60,13254,1.649575,,,,,0,76,76,29,1,,,,,,,,,,,,,,,,,,,,,,,,,,,,,,,,,,,,,,,,,,,,,,,,,,,,,,,,
,,,,,,,,,,,,l,Correct!,,,,,,t4.png,t1.png,3,0.0000131,19,Female,2020-09-25_19h13.44.167,torte-2b,2020.1.3,Win32,60,13254,0.958455,,,,,0,77,77,48,1,,,,,,,,,,,,,,,,,,,,,,,,,,,,,,,,,,,,,,,,,,,,,,,,,,,,,,,,
,,,,,,,,,,,,l,Correct!,,,,,,t4.png,t1.png,3,0.0000131,19,Female,2020-09-25_19h13.44.167,torte-2b,2020.1.3,Win32,60,13254,1.037415,,,,,0,78,78,61,1,,,,,,,,,,,,,,,,,,,,,,,,,,,,,,,,,,,,,,,,,,,,,,,,,,,,,,,,
,,,,,,,,,,,,a,Correct!,,,,,,t4.png,t3.png,1,0.90855,19,Female,2020-09-25_19h13.44.167,torte-2b,2020.1.3,Win32,60,13254,1.32252,,,,,0,79,79,45,1,,,,,,,,,,,,,,,,,,,,,,,,,,,,,,,,,,,,,,,,,,,,,,,,,,,,,,,,
,,,,,,,,,,,,l,Incorrect,,,,,,t2.png,t4.png,2,0.059078,19,Female,2020-09-25_19h13.44.167,torte-2b,2020.1.3,Win32,60,13254,0.95817,,,,,0,80,80,37,1,,,,,,,,,,,,,,,,,,,,,,,,,,,,,,,,,,,,,,,,,,,,,,,,,,,,,,,,
,,,,,,,,,,,,a,Correct!,,,,,,t5.png,t5.png,0,0.97829,19,Female,2020-09-25_19h13.44.167,torte-2b,2020.1.3,Win32,60,13254,0.90633,,,,,0,81,81,94,1,,,,,,,,,,,,,,,,,,,,,,,,,,,,,,,,,,,,,,,,,,,,,,,,,,,,,,,,
,,,,,,,,,,,,,Too slow :(,,,,,,t2.png,t4.png,2,0.059078,19,Female,2020-09-25_19h13.44.167,torte-2b,2020.1.3,Win32,60,13254,,,,,,0,82,82,11,1,,,,,,,,,,,,,,,,,,,,,,,,,,,,,,,,,,,,,,,,,,,,,,,,,,,,,,,,
,,,,,,,,,,,,a,Correct!,,,,,,t1.png,t1.png,0,0.97829,19,Female,2020-09-25_19h13.44.167,torte-2b,2020.1.3,Win32,60,13254,0.73097,,,,,0,83,83,78,1,,,,,,,,,,,,,,,,,,,,,,,,,,,,,,,,,,,,,,,,,,,,,,,,,,,,,,,,
,,,,,,,,,,,,l,Correct!,,,,,,t1.png,t4.png,3,0.0000131,19,Female,2020-09-25_19h13.44.167,torte-2b,2020.1.3,Win32,60,13254,0.907035,,,,,0,84,84,107,1,,,,,,,,,,,,,,,,,,,,,,,,,,,,,,,,,,,,,,,,,,,,,,,,,,,,,,,,
,,,,,,,,,,,,l,Correct!,,,,,,t5.png,t1.png,4,9.55E-11,19,Female,2020-09-25_19h13.44.167,torte-2b,2020.1.3,Win32,60,13254,0.91416,,,,,0,85,85,22,1,,,,,,,,,,,,,,,,,,,,,,,,,,,,,,,,,,,,,,,,,,,,,,,,,,,,,,,,
,,,,,,,,,,,,a,Correct!,,,,,,t2.png,t1.png,1,0.90025,19,Female,2020-09-25_19h13.44.167,torte-2b,2020.1.3,Win32,60,13254,0.9496,,,,,0,86,86,62,1,,,,,,,,,,,,,,,,,,,,,,,,,,,,,,,,,,,,,,,,,,,,,,,,,,,,,,,,
,,,,,,,,,,,,a,Incorrect,,,,,,t4.png,t1.png,3,0.0000131,19,Female,2020-09-25_19h13.44.167,torte-2b,2020.1.3,Win32,60,13254,2.189465,,,,,0,87,87,13,1,,,,,,,,,,,,,,,,,,,,,,,,,,,,,,,,,,,,,,,,,,,,,,,,,,,,,,,,
,,,,,,,,,,,,,Too slow :(,,,,,,t3.png,t4.png,1,0.90855,19,Female,2020-09-25_19h13.44.167,torte-2b,2020.1.3,Win32,60,13254,,,,,,0,88,88,84,1,,,,,,,,,,,,,,,,,,,,,,,,,,,,,,,,,,,,,,,,,,,,,,,,,,,,,,,,
,,,,,,,,,,,,l,Correct!,,,,,,t4.png,t1.png,3,0.0000131,19,Female,2020-09-25_19h13.44.167,torte-2b,2020.1.3,Win32,60,13254,1.299,,,,,0,89,89,93,1,,,,,,,,,,,,,,,,,,,,,,,,,,,,,,,,,,,,,,,,,,,,,,,,,,,,,,,,
,,,,,,,,,,,,l,Correct!,,,,,,t5.png,t1.png,4,9.55E-11,19,Female,2020-09-25_19h13.44.167,torte-2b,2020.1.3,Win32,60,13254,0.89164,,,,,0,90,90,71,1,,,,,,,,,,,,,,,,,,,,,,,,,,,,,,,,,,,,,,,,,,,,,,,,,,,,,,,,
,,,,,,,,,,,,a,Incorrect,,,,,,t2.png,t5.png,3,0.0000131,19,Female,2020-09-25_19h13.44.167,torte-2b,2020.1.3,Win32,60,13254,1.19176,,,,,0,91,91,40,1,,,,,,,,,,,,,,,,,,,,,,,,,,,,,,,,,,,,,,,,,,,,,,,,,,,,,,,,
,,,,,,,,,,,,l,Incorrect,,,,,,t2.png,t3.png,1,0.90855,19,Female,2020-09-25_19h13.44.167,torte-2b,2020.1.3,Win32,60,13254,1.373785,,,,,0,92,92,111,1,,,,,,,,,,,,,,,,,,,,,,,,,,,,,,,,,,,,,,,,,,,,,,,,,,,,,,,,
,,,,,,,,,,,,l,Correct!,,,,,,t4.png,t2.png,2,0.059078,19,Female,2020-09-25_19h13.44.167,torte-2b,2020.1.3,Win32,60,13254,1.680035,,,,,0,93,93,110,1,,,,,,,,,,,,,,,,,,,,,,,,,,,,,,,,,,,,,,,,,,,,,,,,,,,,,,,,
,,,,,,,,,,,,l,Correct!,,,,,,t4.png,t1.png,3,0.0000131,19,Female,2020-09-25_19h13.44.167,torte-2b,2020.1.3,Win32,60,13254,1.85132,,,,,0,94,94,42,1,,,,,,,,,,,,,,,,,,,,,,,,,,,,,,,,,,,,,,,,,,,,,,,,,,,,,,,,
,,,,,,,,,,,,a,Correct!,,,,,,t2.png,t1.png,1,0.90025,19,Female,2020-09-25_19h13.44.167,torte-2b,2020.1.3,Win32,60,13254,1.07398,,,,,0,95,95,4,1,,,,,,,,,,,,,,,,,,,,,,,,,,,,,,,,,,,,,,,,,,,,,,,,,,,,,,,,
,,,,,,,,,,,,l,Correct!,,,,,,t1.png,t4.png,3,0.0000131,19,Female,2020-09-25_19h13.44.167,torte-2b,2020.1.3,Win32,60,13254,0.914595,,,,,0,96,96,81,1,,,,,,,,,,,,,,,,,,,,,,,,,,,,,,,,,,,,,,,,,,,,,,,,,,,,,,,,
,,,,,,,,,,,,a,Correct!,,,,,,t5.png,t5.png,0,0.97829,19,Female,2020-09-25_19h13.44.167,torte-2b,2020.1.3,Win32,60,13254,1.124175,,,,,0,97,97,70,1,,,,,,,,,,,,,,,,,,,,,,,,,,,,,,,,,,,,,,,,,,,,,,,,,,,,,,,,
,,,,,,,,,,,,a,Incorrect,,,,,,t2.png,t5.png,3,0.0000131,19,Female,2020-09-25_19h13.44.167,torte-2b,2020.1.3,Win32,60,13254,1.175395,,,,,0,98,98,8,1,,,,,,,,,,,,,,,,,,,,,,,,,,,,,,,,,,,,,,,,,,,,,,,,,,,,,,,,
,,,,,,,,,,,,a,Incorrect,,,,,,t1.png,t3.png,2,0.056466,19,Female,2020-09-25_19h13.44.167,torte-2b,2020.1.3,Win32,60,13254,1.11679,,,,,0,99,99,63,1,,,,,,,,,,,,,,,,,,,,,,,,,,,,,,,,,,,,,,,,,,,,,,,,,,,,,,,,
,,,,,,,,,,,,l,Incorrect,,,,,,t2.png,t3.png,1,0.90855,19,Female,2020-09-25_19h13.44.167,torte-2b,2020.1.3,Win32,60,13254,1.90545,,,,,0,100,100,68,1,,,,,,,,,,,,,,,,,,,,,,,,,,,,,,,,,,,,,,,,,,,,,,,,,,,,,,,,
,,,,,,,,,,,,a,Correct!,,,,,,t3.png,t4.png,1,0.909,19,Female,2020-09-25_19h13.44.167,torte-2b,2020.1.3,Win32,60,13254,1.74686,,,,,0,101,101,89,1,,,,,,,,,,,,,,,,,,,,,,,,,,,,,,,,,,,,,,,,,,,,,,,,,,,,,,,,
,,,,,,,,,,,,l,Correct!,,,,,,t4.png,t2.png,2,0.059078,19,Female,2020-09-25_19h13.44.167,torte-2b,2020.1.3,Win32,60,13254,1.453485,,,,,0,102,102,109,1,,,,,,,,,,,,,,,,,,,,,,,,,,,,,,,,,,,,,,,,,,,,,,,,,,,,,,,,
,,,,,,,,,,,,a,Incorrect,,,,,,t5.png,t3.png,2,0.056466,19,Female,2020-09-25_19h13.44.167,torte-2b,2020.1.3,Win32,60,13254,1.165265,,,,,0,103,103,56,1,,,,,,,,,,,,,,,,,,,,,,,,,,,,,,,,,,,,,,,,,,,,,,,,,,,,,,,,
,,,,,,,,,,,,l,Correct!,,,,,,t1.png,t5.png,4,9.55E-11,19,Female,2020-09-25_19h13.44.167,torte-2b,2020.1.3,Win32,60,13254,0.773845,,,,,0,104,104,55,1,,,,,,,,,,,,,,,,,,,,,,,,,,,,,,,,,,,,,,,,,,,,,,,,,,,,,,,,
,,,,,,,,,,,,a,Correct!,,,,,,t4.png,t3.png,1,0.909,19,Female,2020-09-25_19h13.44.167,torte-2b,2020.1.3,Win32,60,13254,1.56582,,,,,0,105,105,20,1,,,,,,,,,,,,,,,,,,,,,,,,,,,,,,,,,,,,,,,,,,,,,,,,,,,,,,,,
,,,,,,,,,,,,l,Incorrect,,,,,,t2.png,t2.png,0,0.98115,19,Female,2020-09-25_19h13.44.167,torte-2b,2020.1.3,Win32,60,13254,1.236975,,,,,0,106,106,7,1,,,,,,,,,,,,,,,,,,,,,,,,,,,,,,,,,,,,,,,,,,,,,,,,,,,,,,,,
,,,,,,,,,,,,a,Correct!,,,,,,t3.png,t4.png,1,0.90855,19,Female,2020-09-25_19h13.44.167,torte-2b,2020.1.3,Win32,60,13254,1.33482,,,,,0,107,107,96,1,,,,,,,,,,,,,,,,,,,,,,,,,,,,,,,,,,,,,,,,,,,,,,,,,,,,,,,,
,,,,,,,,,,,,a,Incorrect,,,,,,t3.png,t5.png,2,0.056466,19,Female,2020-09-25_19h13.44.167,torte-2b,2020.1.3,Win32,60,13254,1.93018,,,,,0,108,108,14,1,,,,,,,,,,,,,,,,,,,,,,,,,,,,,,,,,,,,,,,,,,,,,,,,,,,,,,,,
,,,,,,,,,,,,l,Incorrect,,,,,,t2.png,t2.png,0,0.981,19,Female,2020-09-25_19h13.44.167,torte-2b,2020.1.3,Win32,60,13254,0.997895,,,,,0,109,109,101,1,,,,,,,,,,,,,,,,,,,,,,,,,,,,,,,,,,,,,,,,,,,,,,,,,,,,,,,,
,,,,,,,,,,,,a,Incorrect,,,,,,t5.png,t3.png,2,0.056466,19,Female,2020-09-25_19h13.44.167,torte-2b,2020.1.3,Win32,60,13254,1.04757,,,,,0,110,110,114,1,,,,,,,,,,,,,,,,,,,,,,,,,,,,,,,,,,,,,,,,,,,,,,,,,,,,,,,,
,,,,,,,,,,,,l,Incorrect,,,,,,t1.png,t3.png,2,0.056466,19,Female,2020-09-25_19h13.44.167,torte-2b,2020.1.3,Win32,60,13254,1.03551,,,,,0,111,111,99,1,,,,,,,,,,,,,,,,,,,,,,,,,,,,,,,,,,,,,,,,,,,,,,,,,,,,,,,,
,,,,,,,,,,,,a,Correct!,,,,,,t1.png,t2.png,1,0.90025,19,Female,2020-09-25_19h13.44.167,torte-2b,2020.1.3,Win32,60,13254,1.09758,,,,,0,112,112,72,1,,,,,,,,,,,,,,,,,,,,,,,,,,,,,,,,,,,,,,,,,,,,,,,,,,,,,,,,
,,,,,,,,,,,,a,Correct!,,,,,,t1.png,t2.png,1,0.9,19,Female,2020-09-25_19h13.44.167,torte-2b,2020.1.3,Win32,60,13254,0.73265,,,,,0,113,113,1,1,,,,,,,,,,,,,,,,,,,,,,,,,,,,,,,,,,,,,,,,,,,,,,,,,,,,,,,,
,,,,,,,,,,,,a,Correct!,,,,,,t4.png,t4.png,0,0.98115,19,Female,2020-09-25_19h13.44.167,torte-2b,2020.1.3,Win32,60,13254,1.100745,,,,,0,114,114,79,1,,,,,,,,,,,,,,,,,,,,,,,,,,,,,,,,,,,,,,,,,,,,,,,,,,,,,,,,
,,,,,,,,,,,,a,Correct!,,,,,,t4.png,t5.png,1,0.90025,19,Female,2020-09-25_19h13.44.167,torte-2b,2020.1.3,Win32,60,13254,1.247075,,,,,0,115,115,103,1,,,,,,,,,,,,,,,,,,,,,,,,,,,,,,,,,,,,,,,,,,,,,,,,,,,,,,,,
,,,,,,,,,,,,l,Correct!,,,,,,t4.png,t2.png,2,0.059078,19,Female,2020-09-25_19h13.44.167,torte-2b,2020.1.3,Win32,60,13254,1.71982,,,,,0,116,116,86,1,,,,,,,,,,,,,,,,,,,,,,,,,,,,,,,,,,,,,,,,,,,,,,,,,,,,,,,,
,,,,,,,,,,,,a,Incorrect,,,,,,t3.png,t5.png,2,0.056466,19,Female,2020-09-25_19h13.44.167,torte-2b,2020.1.3,Win32,60,13254,1.19909,,,,,0,117,117,44,1,,,,,,,,,,,,,,,,,,,,,,,,,,,,,,,,,,,,,,,,,,,,,,,,,,,,,,,,
,,,,,,,,,,,,l,Correct!,,,,,,t1.png,t4.png,3,0.0000131,19,Female,2020-09-25_19h13.44.167,torte-2b,2020.1.3,Win32,60,13254,1.02207,,,,,0,118,118,17,1,,,,,,,,,,,,,,,,,,,,,,,,,,,,,,,,,,,,,,,,,,,,,,,,,,,,,,,,
,,,,,,,,,,,,a,Correct!,,,,,,t4.png,t5.png,1,0.90025,19,Female,2020-09-25_19h13.44.167,torte-2b,2020.1.3,Win32,60,13254,1.036985,,,,,0,119,119,47,1,,,,,,,,,,,,,,,,,,,,,,,,,,,,,,,,,,,,,,,,,,,,,,,,,,,,,,,,
,,,,,,,,,,,,,,,,,,,,,,,19,Female,2020-09-25_19h13.44.167,torte-2b,2020.1.3,Win32,60,13254,,space,1.49854,,,,,,,,space,21.321775,,0,0,0,0,1,6,,,,,,,,,,,,,,,,,,,,,,,,,,,,,,,,,,,,,,,,,,,,,,,
,,,,,,,,,,,,,,,,,,,,,,,19,Female,2020-09-25_19h13.44.167,torte-2b,2020.1.3,Win32,60,13254,,,,,,,,,,,,,,0,1,1,1,1,7,,,,,,,,,,,,,,,,,,,,,,,,,,,,,,,,,,,,,,,,,,,,,,,
,,,,,,,,,,,,,,,,,,,,,,,19,Female,2020-09-25_19h13.44.167,torte-2b,2020.1.3,Win32,60,13254,,,,,,,,,,,,,,0,2,2,2,1,6,,,,,,,,,,,,,,,,,,,,,,,,,,,,,,,,,,,,,,,,,,,,,,,
,,,,,,,,,,,,,,,,,,,,,,,19,Female,2020-09-25_19h13.44.167,torte-2b,2020.1.3,Win32,60,13254,,,,,,,,,,,,,,0,3,3,3,1,7,,,,,,,,,,,,,,,,,,,,,,,,,,,,,,,,,,,,,,,,,,,,,,,
,,,,,,,,,,,,,,,,,,,,,,,19,Female,2020-09-25_19h13.44.167,torte-2b,2020.1.3,Win32,60,13254,,,,,,,,,,,,,,0,4,4,4,1,5,,,,,,,,,,,,,,,,,,,,,,,,,,,,,,,,,,,,,,,,,,,,,,,
,,,,,,,,,,,,,,,,,,,,,,,19,Female,2020-09-25_19h13.44.167,torte-2b,2020.1.3,Win32,60,13254,,,,,,,,,,,,,space,0,5,5,5,1,7,0.380205,,,,,,,,,,,,,,,,,,,,,,,,,,,,,,,,,,,,,,,,,,,,,,
,,,,,,,,,,,,,,,,,,,,,,,19,Female,2020-09-25_19h13.44.167,torte-2b,2020.1.3,Win32,60,13254,,,,,,,,,,,,,,0,6,6,6,1,2,,,,,,,,,,,,,,,,,,,,,,,,,,,,,,,,,,,,,,,,,,,,,,,
,,,,,,,,,,,,,,,,,,,,,,,19,Female,2020-09-25_19h13.44.167,torte-2b,2020.1.3,Win32,60,13254,,,,,,,,,,,,,,0,7,7,7,1,4,,,,,,,,,,,,,,,,,,,,,,,,,,,,,,,,,,,,,,,,,,,,,,,
,,,,,,,,,,,,,,,,,,,,,,,19,Female,2020-09-25_19h13.44.167,torte-2b,2020.1.3,Win32,60,13254,,,,,,,,,,,,,,0,8,8,8,1,7,,,,,,,,,,,,,,,,,,,,,,,,,,,,,,,,,,,,,,,,,,,,,,,
,,,,,,,,,,,,,,,,,,,,,,,19,Female,2020-09-25_19h13.44.167,torte-2b,2020.1.3,Win32,60,13254,,,,,,,,,,,,,space,0,9,9,9,1,4,0.42873,,,,,,,,,,,,,,,,,,,,,,,,,,,,,,,,,,,,,,,,,,,,,,
,,,,,,,,,,,,,,,,,,,,,,,19,Female,2020-09-25_19h13.44.167,torte-2b,2020.1.3,Win32,60,13254,,,,,,,,,,,,,space,0,10,10,10,1,7,0.580585,,,,,,,,,,,,,,,,,,,,,,,,,,,,,,,,,,,,,,,,,,,,,,
,,,,,,,,,,,,,,,,,,,,,,,19,Female,2020-09-25_19h13.44.167,torte-2b,2020.1.3,Win32,60,13254,,,,,,,,,,,,,,0,11,11,11,1,7,,,,,,,,,,,,,,,,,,,,,,,,,,,,,,,,,,,,,,,,,,,,,,,
,,,,,,,,,,,,,,,,,,,,,,,19,Female,2020-09-25_19h13.44.167,torte-2b,2020.1.3,Win32,60,13254,,,,,,,,,,,,,,0,12,12,12,1,7,,,,,,,,,,,,,,,,,,,,,,,,,,,,,,,,,,,,,,,,,,,,,,,
,,,,,,,,,,,,,,,,,,,,,,,19,Female,2020-09-25_19h13.44.167,torte-2b,2020.1.3,Win32,60,13254,,,,,,,,,,,,,space,0,13,13,13,1,4,0.421185,,,,,,,,,,,,,,,,,,,,,,,,,,,,,,,,,,,,,,,,,,,,,,
,,,,,,,,,,,,,,,,,,,,,,,19,Female,2020-09-25_19h13.44.167,torte-2b,2020.1.3,Win32,60,13254,,,,,,,,,,,,,,0,14,14,14,1,6,,,,,,,,,,,,,,,,,,,,,,,,,,,,,,,,,,,,,,,,,,,,,,,
,,,,,,,,,,,,,,,,,,,,,,,19,Female,2020-09-25_19h13.44.167,torte-2b,2020.1.3,Win32,60,13254,,,,,,,,,,,,,space,0,15,15,15,1,4,0.370795,,,,,,,,,,,,,,,,,,,,,,,,,,,,,,,,,,,,,,,,,,,,,,
,,,,,,,,,,,,,,,,,,,,,,,19,Female,2020-09-25_19h13.44.167,torte-2b,2020.1.3,Win32,60,13254,,,,,,,,,,,,,,0,16,16,16,1,6,,,,,,,,,,,,,,,,,,,,,,,,,,,,,,,,,,,,,,,,,,,,,,,
,,,,,,,,,,,,,,,,,,,,,,,19,Female,2020-09-25_19h13.44.167,torte-2b,2020.1.3,Win32,60,13254,,,,,,,,,,,,,,0,17,17,17,1,7,,,,,,,,,,,,,,,,,,,,,,,,,,,,,,,,,,,,,,,,,,,,,,,
,,,,,,,,,,,,,,,,,,,,,,,19,Female,2020-09-25_19h13.44.167,torte-2b,2020.1.3,Win32,60,13254,,,,,,,,,,,,,space,0,18,18,18,1,6,0.28002,,,,,,,,,,,,,,,,,,,,,,,,,,,,,,,,,,,,,,,,,,,,,,
,,,,,,,,,,,,,,,,,,,,,,,19,Female,2020-09-25_19h13.44.167,torte-2b,2020.1.3,Win32,60,13254,,,,,,,,,,,,,space,0,19,19,19,1,7,0.30647,,,,,,,,,,,,,,,,,,,,,,,,,,,,,,,,,,,,,,,,,,,,,,
,,,,,,,,,,,,,,,,,,,,,,,19,Female,2020-09-25_19h13.44.167,torte-2b,2020.1.3,Win32,60,13254,,,,,,,,,,,,,space,0,20,20,20,1,5,0.655905,,,,,,,,,,,,,,,,,,,,,,,,,,,,,,,,,,,,,,,,,,,,,,
,,,,,,,,,,,,,,,,,,,,,,,19,Female,2020-09-25_19h13.44.167,torte-2b,2020.1.3,Win32,60,13254,,,,,,,,,,,,,space,0,21,21,21,1,1,0.644,,,,,,,,,,,,,,,,,,,,,,,,,,,,,,,,,,,,,,,,,,,,,,
,,,,,,,,,,,,,,,,,,,,,,,19,Female,2020-09-25_19h13.44.167,torte-2b,2020.1.3,Win32,60,13254,,,,,,,,,,,,,,0,22,22,22,1,6,,,,,,,,,,,,,,,,,,,,,,,,,,,,,,,,,,,,,,,,,,,,,,,
,,,,,,,,,,,,,,,,,,,,,,,19,Female,2020-09-25_19h13.44.167,torte-2b,2020.1.3,Win32,60,13254,,,,,,,,,,,,,space,0,23,23,23,1,1,0.251425,,,,,,,,,,,,,,,,,,,,,,,,,,,,,,,,,,,,,,,,,,,,,,
,,,,,,,,,,,,,,,,,,,,,,,19,Female,2020-09-25_19h13.44.167,torte-2b,2020.1.3,Win32,60,13254,,,,,,,,,,,,,,0,24,24,24,1,5,,,,,,,,,,,,,,,,,,,,,,,,,,,,,,,,,,,,,,,,,,,,,,,
,,,,,,,,,,,,,,,,,,,,,,,19,Female,2020-09-25_19h13.44.167,torte-2b,2020.1.3,Win32,60,13254,,,,,,,,,,,,,,0,25,25,25,1,6,,,,,,,,,,,,,,,,,,,,,,,,,,,,,,,,,,,,,,,,,,,,,,,
,,,,,,,,,,,,,,,,,,,,,,,19,Female,2020-09-25_19h13.44.167,torte-2b,2020.1.3,Win32,60,13254,,,,,,,,,,,,,space,0,26,26,26,1,6,0.273295,,,,,,,,,,,,,,,,,,,,,,,,,,,,,,,,,,,,,,,,,,,,,,
,,,,,,,,,,,,,,,,,,,,,,,19,Female,2020-09-25_19h13.44.167,torte-2b,2020.1.3,Win32,60,13254,,,,,,,,,,,,,space,0,27,27,27,1,6,1.652355,,,,,,,,,,,,,,,,,,,,,,,,,,,,,,,,,,,,,,,,,,,,,,
,,,,,,,,,,,,,,,,,,,,,,,19,Female,2020-09-25_19h13.44.167,torte-2b,2020.1.3,Win32,60,13254,,,,,,,,,,,,,,0,28,28,28,1,5,,,,,,,,,,,,,,,,,,,,,,,,,,,,,,,,,,,,,,,,,,,,,,,
,,,,,,,,,,,,,,,,,,,,,,,19,Female,2020-09-25_19h13.44.167,torte-2b,2020.1.3,Win32,60,13254,,,,,,,,,,,,,,0,29,29,29,1,2,,,,,,,,,,,,,,,,,,,,,,,,,,,,,,,,,,,,,,,,,,,,,,,
,,,,,,,,,,,,,,,,,,,,,,,19,Female,2020-09-25_19h13.44.167,torte-2b,2020.1.3,Win32,60,13254,,,,,,,,,,,,,,0,30,30,30,1,5,,,,,,,,,,,,,,,,,,,,,,,,,,,,,,,,,,,,,,,,,,,,,,,
,,,,,,,,,,,,,,,,,,,,,,,19,Female,2020-09-25_19h13.44.167,torte-2b,2020.1.3,Win32,60,13254,,,,,,,,,,,,,,0,31,31,31,1,2,,,,,,,,,,,,,,,,,,,,,,,,,,,,,,,,,,,,,,,,,,,,,,,
,,,,,,,,,,,,,,,,,,,,,,,19,Female,2020-09-25_19h13.44.167,torte-2b,2020.1.3,Win32,60,13254,,,,,,,,,,,,,space,0,32,32,32,1,5,1.39595,,,,,,,,,,,,,,,,,,,,,,,,,,,,,,,,,,,,,,,,,,,,,,
,,,,,,,,,,,,,,,,,,,,,,,19,Female,2020-09-25_19h13.44.167,torte-2b,2020.1.3,Win32,60,13254,,,,,,,,,,,,,,0,33,33,33,1,1,,,,,,,,,,,,,,,,,,,,,,,,,,,,,,,,,,,,,,,,,,,,,,,
,,,,,,,,,,,,,,,,,,,,,,,19,Female,2020-09-25_19h13.44.167,torte-2b,2020.1.3,Win32,60,13254,,,,,,,,,,,,,space,0,34,34,34,1,1,0.93453,,,,,,,,,,,,,,,,,,,,,,,,,,,,,,,,,,,,,,,,,,,,,,
,,,,,,,,,,,,,,,,,,,,,,,19,Female,2020-09-25_19h13.44.167,torte-2b,2020.1.3,Win32,60,13254,,,,,,,,,,,,,,,,,,,2,,0,0,0,0,1,,,,,,,,,,,,,,,,,,,,,,,,,,,,,,,,,,,,,,,,,
,,,,,,,,,,,,,,,,,,,,,,,19,Female,2020-09-25_19h13.44.167,torte-2b,2020.1.3,Win32,60,13254,,,,,,,,,,,,,,,,,,,2,,0,1,1,1,1,,,,,,,,,,,,,,,,,,,,,,,,,,,,,,,,,,,,,,,,,
,,,,,,,,,,,,,,,,,,,,,,,19,Female,2020-09-25_19h13.44.167,torte-2b,2020.1.3,Win32,60,13254,,,,,,,,,,,,,,,,,,,6,,0,2,2,2,1,,,,,,,,,,,,,,,,,,,,,,,,,,,,,,,,,,,,,,,,,
,,,,,,,,,,,,,,,,,,,,,,,19,Female,2020-09-25_19h13.44.167,torte-2b,2020.1.3,Win32,60,13254,,,,,,,,,,,,,space,,,,,,2,0.279205,0,3,3,3,1,,,,,,,,,,,,,,,,,,,,,,,,,,,,,,,,,,,,,,,,,
,,,,,,,,,,,,,,,,,,,,,,,19,Female,2020-09-25_19h13.44.167,torte-2b,2020.1.3,Win32,60,13254,,,,,,,,,,,,,space,,,,,,6,0.54567,0,4,4,4,1,,,,,,,,,,,,,,,,,,,,,,,,,,,,,,,,,,,,,,,,,
,,,,,,,,,,,,,,,,,,,,,,,19,Female,2020-09-25_19h13.44.167,torte-2b,2020.1.3,Win32,60,13254,,,,,,,,,,,,,space,,,,,,2,0.46561,0,5,5,5,1,,,,,,,,,,,,,,,,,,,,,,,,,,,,,,,,,,,,,,,,,
,,,,,,,,,,,,,,,,,,,,,,,19,Female,2020-09-25_19h13.44.167,torte-2b,2020.1.3,Win32,60,13254,,,,,,,,,,,,,,,,,,,7,,0,6,6,6,1,,,,,,,,,,,,,,,,,,,,,,,,,,,,,,,,,,,,,,,,,
,,,,,,,,,,,,,,,,,,,,,,,19,Female,2020-09-25_19h13.44.167,torte-2b,2020.1.3,Win32,60,13254,,,,,,,,,,,,,space,,,,,,2,0.331735,0,7,7,7,1,,,,,,,,,,,,,,,,,,,,,,,,,,,,,,,,,,,,,,,,,
,,,,,,,,,,,,,,,,,,,,,,,19,Female,2020-09-25_19h13.44.167,torte-2b,2020.1.3,Win32,60,13254,,,,,,,,,,,,,space,,,,,,7,0.68571,0,8,8,8,1,,,,,,,,,,,,,,,,,,,,,,,,,,,,,,,,,,,,,,,,,
,,,,,,,,,,,,,,,,,,,,,,,19,Female,2020-09-25_19h13.44.167,torte-2b,2020.1.3,Win32,60,13254,,,,,,,,,,,,,space,,,,,,2,0.85235,0,9,9,9,1,,,,,,,,,,,,,,,,,,,,,,,,,,,,,,,,,,,,,,,,,
,,,,,,,,,,,,,,,,,,,,,,,19,Female,2020-09-25_19h13.44.167,torte-2b,2020.1.3,Win32,60,13254,,,,,,,,,,,,,,,,,,,5,,0,10,10,10,1,,,,,,,,,,,,,,,,,,,,,,,,,,,,,,,,,,,,,,,,,
,,,,,,,,,,,,,,,,,,,,,,,19,Female,2020-09-25_19h13.44.167,torte-2b,2020.1.3,Win32,60,13254,,,,,,,,,,,,,,,,,,,4,,0,11,11,11,1,,,,,,,,,,,,,,,,,,,,,,,,,,,,,,,,,,,,,,,,,
,,,,,,,,,,,,,,,,,,,,,,,19,Female,2020-09-25_19h13.44.167,torte-2b,2020.1.3,Win32,60,13254,,,,,,,,,,,,,space,,,,,,5,0.28636,0,12,12,12,1,,,,,,,,,,,,,,,,,,,,,,,,,,,,,,,,,,,,,,,,,
,,,,,,,,,,,,,,,,,,,,,,,19,Female,2020-09-25_19h13.44.167,torte-2b,2020.1.3,Win32,60,13254,,,,,,,,,,,,,,,,,,,6,,0,13,13,13,1,,,,,,,,,,,,,,,,,,,,,,,,,,,,,,,,,,,,,,,,,
,,,,,,,,,,,,,,,,,,,,,,,19,Female,2020-09-25_19h13.44.167,torte-2b,2020.1.3,Win32,60,13254,,,,,,,,,,,,,space,,,,,,5,0.2505,0,14,14,14,1,,,,,,,,,,,,,,,,,,,,,,,,,,,,,,,,,,,,,,,,,
,,,,,,,,,,,,,,,,,,,,,,,19,Female,2020-09-25_19h13.44.167,torte-2b,2020.1.3,Win32,60,13254,,,,,,,,,,,,,,,,,,,4,,0,15,15,15,1,,,,,,,,,,,,,,,,,,,,,,,,,,,,,,,,,,,,,,,,,
,,,,,,,,,,,,,,,,,,,,,,,19,Female,2020-09-25_19h13.44.167,torte-2b,2020.1.3,Win32,60,13254,,,,,,,,,,,,,space,,,,,,5,0.319365,0,16,16,16,1,,,,,,,,,,,,,,,,,,,,,,,,,,,,,,,,,,,,,,,,,
,,,,,,,,,,,,,,,,,,,,,,,19,Female,2020-09-25_19h13.44.167,torte-2b,2020.1.3,Win32,60,13254,,,,,,,,,,,,,,,,,,,3,,0,17,17,17,1,,,,,,,,,,,,,,,,,,,,,,,,,,,,,,,,,,,,,,,,,
,,,,,,,,,,,,,,,,,,,,,,,19,Female,2020-09-25_19h13.44.167,torte-2b,2020.1.3,Win32,60,13254,,,,,,,,,,,,,space,,,,,,6,0.328645,0,18,18,18,1,,,,,,,,,,,,,,,,,,,,,,,,,,,,,,,,,,,,,,,,,
,,,,,,,,,,,,,,,,,,,,,,,19,Female,2020-09-25_19h13.44.167,torte-2b,2020.1.3,Win32,60,13254,,,,,,,,,,,,,,,,,,,6,,0,19,19,19,1,,,,,,,,,,,,,,,,,,,,,,,,,,,,,,,,,,,,,,,,,
,,,,,,,,,,,,,,,,,,,,,,,19,Female,2020-09-25_19h13.44.167,torte-2b,2020.1.3,Win32,60,13254,,,,,,,,,,,,,space,,,,,,6,0.6617,0,20,20,20,1,,,,,,,,,,,,,,,,,,,,,,,,,,,,,,,,,,,,,,,,,
,,,,,,,,,,,,,,,,,,,,,,,19,Female,2020-09-25_19h13.44.167,torte-2b,2020.1.3,Win32,60,13254,,,,,,,,,,,,,,,,,,,4,,0,21,21,21,1,,,,,,,,,,,,,,,,,,,,,,,,,,,,,,,,,,,,,,,,,
,,,,,,,,,,,,,,,,,,,,,,,19,Female,2020-09-25_19h13.44.167,torte-2b,2020.1.3,Win32,60,13254,,,,,,,,,,,,,space,,,,,,6,0.346,0,22,22,22,1,,,,,,,,,,,,,,,,,,,,,,,,,,,,,,,,,,,,,,,,,
,,,,,,,,,,,,,,,,,,,,,,,19,Female,2020-09-25_19h13.44.167,torte-2b,2020.1.3,Win32,60,13254,,,,,,,,,,,,,space,,,,,,4,0.320545,0,23,23,23,1,,,,,,,,,,,,,,,,,,,,,,,,,,,,,,,,,,,,,,,,,
,,,,,,,,,,,,,,,,,,,,,,,19,Female,2020-09-25_19h13.44.167,torte-2b,2020.1.3,Win32,60,13254,,,,,,,,,,,,,space,,,,,,6,0.256665,0,24,24,24,1,,,,,,,,,,,,,,,,,,,,,,,,,,,,,,,,,,,,,,,,,
,,,,,,,,,,,,,,,,,,,,,,,19,Female,2020-09-25_19h13.44.167,torte-2b,2020.1.3,Win32,60,13254,,,,,,,,,,,,,space,,,,,,6,0.27896,0,25,25,25,1,,,,,,,,,,,,,,,,,,,,,,,,,,,,,,,,,,,,,,,,,
,,,,,,,,,,,,,,,,,,,,,,,19,Female,2020-09-25_19h13.44.167,torte-2b,2020.1.3,Win32,60,13254,,,,,,,,,,,,,,,,,,,7,,0,26,26,26,1,,,,,,,,,,,,,,,,,,,,,,,,,,,,,,,,,,,,,,,,,
,,,,,,,,,,,,,,,,,,,,,,,19,Female,2020-09-25_19h13.44.167,torte-2b,2020.1.3,Win32,60,13254,,,,,,,,,,,,,,,,,,,1,,0,27,27,27,1,,,,,,,,,,,,,,,,,,,,,,,,,,,,,,,,,,,,,,,,,
,,,,,,,,,,,,,,,,,,,,,,,19,Female,2020-09-25_19h13.44.167,torte-2b,2020.1.3,Win32,60,13254,,,,,,,,,,,,,space,,,,,,7,0.28181,0,28,28,28,1,,,,,,,,,,,,,,,,,,,,,,,,,,,,,,,,,,,,,,,,,
,,,,,,,,,,,,,,,,,,,,,,,19,Female,2020-09-25_19h13.44.167,torte-2b,2020.1.3,Win32,60,13254,,,,,,,,,,,,,space,,,,,,4,0.302365,0,29,29,29,1,,,,,,,,,,,,,,,,,,,,,,,,,,,,,,,,,,,,,,,,,
,,,,,,,,,,,,,,,,,,,,,,,19,Female,2020-09-25_19h13.44.167,torte-2b,2020.1.3,Win32,60,13254,,,,,,,,,,,,,space,,,,,,7,0.31654,0,30,30,30,1,,,,,,,,,,,,,,,,,,,,,,,,,,,,,,,,,,,,,,,,,
,,,,,,,,,,,,,,,,,,,,,,,19,Female,2020-09-25_19h13.44.167,torte-2b,2020.1.3,Win32,60,13254,,,,,,,,,,,,,,,,,,,3,,0,31,31,31,1,,,,,,,,,,,,,,,,,,,,,,,,,,,,,,,,,,,,,,,,,
,,,,,,,,,,,,,,,,,,,,,,,19,Female,2020-09-25_19h13.44.167,torte-2b,2020.1.3,Win32,60,13254,,,,,,,,,,,,,,,,,,,2,,0,32,32,32,1,,,,,,,,,,,,,,,,,,,,,,,,,,,,,,,,,,,,,,,,,
,,,,,,,,,,,,,,,,,,,,,,,19,Female,2020-09-25_19h13.44.167,torte-2b,2020.1.3,Win32,60,13254,,,,,,,,,,,,,,,,,,,6,,0,33,33,33,1,,,,,,,,,,,,,,,,,,,,,,,,,,,,,,,,,,,,,,,,,
,,,,,,,,,,,,,,,,,,,,,,,19,Female,2020-09-25_19h13.44.167,torte-2b,2020.1.3,Win32,60,13254,,,,,,,,,,,,,,,,,,,3,,0,34,34,34,1,,,,,,,,,,,,,,,,,,,,,,,,,,,,,,,,,,,,,,,,,
,,,,,,,,,,,,,,,,,,,,,,,19,Female,2020-09-25_19h13.44.167,torte-2b,2020.1.3,Win32,60,13254,,,,,,,,,,,,,,,,,,,7,,,,,,,0,0,0,0,1,,,,,,,,,,,,,,,,,,,,,,,,,,,,,,,,,,,,
,,,,,,,,,,,,,,,,,,,,,,,19,Female,2020-09-25_19h13.44.167,torte-2b,2020.1.3,Win32,60,13254,,,,,,,,,,,,,,,,,,,5,,,,,,,0,1,1,1,1,,,,,,,,,,,,,,,,,,,,,,,,,,,,,,,,,,,,
,,,,,,,,,,,,,,,,,,,,,,,19,Female,2020-09-25_19h13.44.167,torte-2b,2020.1.3,Win32,60,13254,,,,,,,,,,,,,,,,,,,4,,,,,,,0,2,2,2,1,,,,,,,,,,,,,,,,,,,,,,,,,,,,,,,,,,,,
,,,,,,,,,,,,,,,,,,,,,,,19,Female,2020-09-25_19h13.44.167,torte-2b,2020.1.3,Win32,60,13254,,,,,,,,,,,,,space,,,,,,5,0.30279,,,,,,0,3,3,3,1,,,,,,,,,,,,,,,,,,,,,,,,,,,,,,,,,,,,
,,,,,,,,,,,,,,,,,,,,,,,19,Female,2020-09-25_19h13.44.167,torte-2b,2020.1.3,Win32,60,13254,,,,,,,,,,,,,,,,,,,6,,,,,,,0,4,4,4,1,,,,,,,,,,,,,,,,,,,,,,,,,,,,,,,,,,,,
,,,,,,,,,,,,,,,,,,,,,,,19,Female,2020-09-25_19h13.44.167,torte-2b,2020.1.3,Win32,60,13254,,,,,,,,,,,,,space,,,,,,5,0.246575,,,,,,0,5,5,5,1,,,,,,,,,,,,,,,,,,,,,,,,,,,,,,,,,,,,
,,,,,,,,,,,,,,,,,,,,,,,19,Female,2020-09-25_19h13.44.167,torte-2b,2020.1.3,Win32,60,13254,,,,,,,,,,,,,,,,,,,3,,,,,,,0,6,6,6,1,,,,,,,,,,,,,,,,,,,,,,,,,,,,,,,,,,,,
,,,,,,,,,,,,,,,,,,,,,,,19,Female,2020-09-25_19h13.44.167,torte-2b,2020.1.3,Win32,60,13254,,,,,,,,,,,,,,,,,,,4,,,,,,,0,7,7,7,1,,,,,,,,,,,,,,,,,,,,,,,,,,,,,,,,,,,,
,,,,,,,,,,,,,,,,,,,,,,,19,Female,2020-09-25_19h13.44.167,torte-2b,2020.1.3,Win32,60,13254,,,,,,,,,,,,,space,,,,,,3,0.82088,,,,,,0,8,8,8,1,,,,,,,,,,,,,,,,,,,,,,,,,,,,,,,,,,,,
,,,,,,,,,,,,,,,,,,,,,,,19,Female,2020-09-25_19h13.44.167,torte-2b,2020.1.3,Win32,60,13254,,,,,,,,,,,,,,,,,,,1,,,,,,,0,9,9,9,1,,,,,,,,,,,,,,,,,,,,,,,,,,,,,,,,,,,,
,,,,,,,,,,,,,,,,,,,,,,,19,Female,2020-09-25_19h13.44.167,torte-2b,2020.1.3,Win32,60,13254,,,,,,,,,,,,,,,,,,,2,,,,,,,0,10,10,10,1,,,,,,,,,,,,,,,,,,,,,,,,,,,,,,,,,,,,
,,,,,,,,,,,,,,,,,,,,,,,19,Female,2020-09-25_19h13.44.167,torte-2b,2020.1.3,Win32,60,13254,,,,,,,,,,,,,space,,,,,,1,0.313315,,,,,,0,11,11,11,1,,,,,,,,,,,,,,,,,,,,,,,,,,,,,,,,,,,,
,,,,,,,,,,,,,,,,,,,,,,,19,Female,2020-09-25_19h13.44.167,torte-2b,2020.1.3,Win32,60,13254,,,,,,,,,,,,,space,,,,,,2,0.331325,,,,,,0,12,12,12,1,,,,,,,,,,,,,,,,,,,,,,,,,,,,,,,,,,,,
,,,,,,,,,,,,,,,,,,,,,,,19,Female,2020-09-25_19h13.44.167,torte-2b,2020.1.3,Win32,60,13254,,,,,,,,,,,,,space,,,,,,1,0.320245,,,,,,0,13,13,13,1,,,,,,,,,,,,,,,,,,,,,,,,,,,,,,,,,,,,
,,,,,,,,,,,,,,,,,,,,,,,19,Female,2020-09-25_19h13.44.167,torte-2b,2020.1.3,Win32,60,13254,,,,,,,,,,,,,space,,,,,,3,0.337695,,,,,,0,14,14,14,1,,,,,,,,,,,,,,,,,,,,,,,,,,,,,,,,,,,,
,,,,,,,,,,,,,,,,,,,,,,,19,Female,2020-09-25_19h13.44.167,torte-2b,2020.1.3,Win32,60,13254,,,,,,,,,,,,,space,,,,,,1,0.557335,,,,,,0,15,15,15,1,,,,,,,,,,,,,,,,,,,,,,,,,,,,,,,,,,,,
,,,,,,,,,,,,,,,,,,,,,,,19,Female,2020-09-25_19h13.44.167,torte-2b,2020.1.3,Win32,60,13254,,,,,,,,,,,,,space,,,,,,7,0.247615,,,,,,0,16,16,16,1,,,,,,,,,,,,,,,,,,,,,,,,,,,,,,,,,,,,
,,,,,,,,,,,,,,,,,,,,,,,19,Female,2020-09-25_19h13.44.167,torte-2b,2020.1.3,Win32,60,13254,,,,,,,,,,,,,space,,,,,,7,0.446785,,,,,,0,17,17,17,1,,,,,,,,,,,,,,,,,,,,,,,,,,,,,,,,,,,,
,,,,,,,,,,,,,,,,,,,,,,,19,Female,2020-09-25_19h13.44.167,torte-2b,2020.1.3,Win32,60,13254,,,,,,,,,,,,,,,,,,,4,,,,,,,0,18,18,18,1,,,,,,,,,,,,,,,,,,,,,,,,,,,,,,,,,,,,
,,,,,,,,,,,,,,,,,,,,,,,19,Female,2020-09-25_19h13.44.167,torte-2b,2020.1.3,Win32,60,13254,,,,,,,,,,,,,,,,,,,7,,,,,,,0,19,19,19,1,,,,,,,,,,,,,,,,,,,,,,,,,,,,,,,,,,,,
,,,,,,,,,,,,,,,,,,,,,,,19,Female,2020-09-25_19h13.44.167,torte-2b,2020.1.3,Win32,60,13254,,,,,,,,,,,,,,,,,,,3,,,,,,,0,20,20,20,1,,,,,,,,,,,,,,,,,,,,,,,,,,,,,,,,,,,,
,,,,,,,,,,,,,,,,,,,,,,,19,Female,2020-09-25_19h13.44.167,torte-2b,2020.1.3,Win32,60,13254,,,,,,,,,,,,,space,,,,,,7,0.296395,,,,,,0,21,21,21,1,,,,,,,,,,,,,,,,,,,,,,,,,,,,,,,,,,,,
,,,,,,,,,,,,,,,,,,,,,,,19,Female,2020-09-25_19h13.44.167,torte-2b,2020.1.3,Win32,60,13254,,,,,,,,,,,,,space,,,,,,3,0.330145,,,,,,0,22,22,22,1,,,,,,,,,,,,,,,,,,,,,,,,,,,,,,,,,,,,
,,,,,,,,,,,,,,,,,,,,,,,19,Female,2020-09-25_19h13.44.167,torte-2b,2020.1.3,Win32,60,13254,,,,,,,,,,,,,,,,,,,1,,,,,,,0,23,23,23,1,,,,,,,,,,,,,,,,,,,,,,,,,,,,,,,,,,,,
,,,,,,,,,,,,,,,,,,,,,,,19,Female,2020-09-25_19h13.44.167,torte-2b,2020.1.3,Win32,60,13254,,,,,,,,,,,,,,,,,,,6,,,,,,,0,24,24,24,1,,,,,,,,,,,,,,,,,,,,,,,,,,,,,,,,,,,,
,,,,,,,,,,,,,,,,,,,,,,,19,Female,2020-09-25_19h13.44.167,torte-2b,2020.1.3,Win32,60,13254,,,,,,,,,,,,,,,,,,,3,,,,,,,0,25,25,25,1,,,,,,,,,,,,,,,,,,,,,,,,,,,,,,,,,,,,
,,,,,,,,,,,,,,,,,,,,,,,19,Female,2020-09-25_19h13.44.167,torte-2b,2020.1.3,Win32,60,13254,,,,,,,,,,,,,,,,,,,2,,,,,,,0,26,26,26,1,,,,,,,,,,,,,,,,,,,,,,,,,,,,,,,,,,,,
,,,,,,,,,,,,,,,,,,,,,,,19,Female,2020-09-25_19h13.44.167,torte-2b,2020.1.3,Win32,60,13254,,,,,,,,,,,,,space,,,,,,3,0.263805,,,,,,0,27,27,27,1,,,,,,,,,,,,,,,,,,,,,,,,,,,,,,,,,,,,
,,,,,,,,,,,,,,,,,,,,,,,19,Female,2020-09-25_19h13.44.167,torte-2b,2020.1.3,Win32,60,13254,,,,,,,,,,,,,,,,,,,1,,,,,,,0,28,28,28,1,,,,,,,,,,,,,,,,,,,,,,,,,,,,,,,,,,,,
,,,,,,,,,,,,,,,,,,,,,,,19,Female,2020-09-25_19h13.44.167,torte-2b,2020.1.3,Win32,60,13254,,,,,,,,,,,,,space,,,,,,3,0.31457,,,,,,0,29,29,29,1,,,,,,,,,,,,,,,,,,,,,,,,,,,,,,,,,,,,
,,,,,,,,,,,,,,,,,,,,,,,19,Female,2020-09-25_19h13.44.167,torte-2b,2020.1.3,Win32,60,13254,,,,,,,,,,,,,space,,,,,,1,0.447115,,,,,,0,30,30,30,1,,,,,,,,,,,,,,,,,,,,,,,,,,,,,,,,,,,,
,,,,,,,,,,,,,,,,,,,,,,,19,Female,2020-09-25_19h13.44.167,torte-2b,2020.1.3,Win32,60,13254,,,,,,,,,,,,,,,,,,,7,,,,,,,0,31,31,31,1,,,,,,,,,,,,,,,,,,,,,,,,,,,,,,,,,,,,
,,,,,,,,,,,,,,,,,,,,,,,19,Female,2020-09-25_19h13.44.167,torte-2b,2020.1.3,Win32,60,13254,,,,,,,,,,,,,,,,,,,5,,,,,,,0,32,32,32,1,,,,,,,,,,,,,,,,,,,,,,,,,,,,,,,,,,,,
,,,,,,,,,,,,,,,,,,,,,,,19,Female,2020-09-25_19h13.44.167,torte-2b,2020.1.3,Win32,60,13254,,,,,,,,,,,,,space,,,,,,7,0.280605,,,,,,0,33,33,33,1,,,,,,,,,,,,,,,,,,,,,,,,,,,,,,,,,,,,
,,,,,,,,,,,,,,,,,,,,,,,19,Female,2020-09-25_19h13.44.167,torte-2b,2020.1.3,Win32,60,13254,,,,,,,,,,,,,,,,,,,2,,,,,,,0,34,34,34,1,,,,,,,,,,,,,,,,,,,,,,,,,,,,,,,,,,,,
,,,,,,,,,,,,,,,,,,,,,,,19,Female,2020-09-25_19h13.44.167,torte-2b,2020.1.3,Win32,60,13254,,,,,,,,,,,,,,,,,,,3,,,,,,,,,,,,0,0,0,0,1,,,,,,,,,,,,,,,,,,,,,,,,,,,,,,,
,,,,,,,,,,,,,,,,,,,,,,,19,Female,2020-09-25_19h13.44.167,torte-2b,2020.1.3,Win32,60,13254,,,,,,,,,,,,,,,,,,,7,,,,,,,,,,,,0,1,1,1,1,,,,,,,,,,,,,,,,,,,,,,,,,,,,,,,
,,,,,,,,,,,,,,,,,,,,,,,19,Female,2020-09-25_19h13.44.167,torte-2b,2020.1.3,Win32,60,13254,,,,,,,,,,,,,,,,,,,7,,,,,,,,,,,,0,2,2,2,1,,,,,,,,,,,,,,,,,,,,,,,,,,,,,,,
,,,,,,,,,,,,,,,,,,,,,,,19,Female,2020-09-25_19h13.44.167,torte-2b,2020.1.3,Win32,60,13254,,,,,,,,,,,,,,,,,,,4,,,,,,,,,,,,0,3,3,3,1,,,,,,,,,,,,,,,,,,,,,,,,,,,,,,,
,,,,,,,,,,,,,,,,,,,,,,,19,Female,2020-09-25_19h13.44.167,torte-2b,2020.1.3,Win32,60,13254,,,,,,,,,,,,,,,,,,,5,,,,,,,,,,,,0,4,4,4,1,,,,,,,,,,,,,,,,,,,,,,,,,,,,,,,
,,,,,,,,,,,,,,,,,,,,,,,19,Female,2020-09-25_19h13.44.167,torte-2b,2020.1.3,Win32,60,13254,,,,,,,,,,,,,space,,,,,,4,0.321735,,,,,,,,,,,0,5,5,5,1,,,,,,,,,,,,,,,,,,,,,,,,,,,,,,,
,,,,,,,,,,,,,,,,,,,,,,,19,Female,2020-09-25_19h13.44.167,torte-2b,2020.1.3,Win32,60,13254,,,,,,,,,,,,,,,,,,,2,,,,,,,,,,,,0,6,6,6,1,,,,,,,,,,,,,,,,,,,,,,,,,,,,,,,
,,,,,,,,,,,,,,,,,,,,,,,19,Female,2020-09-25_19h13.44.167,torte-2b,2020.1.3,Win32,60,13254,,,,,,,,,,,,,space,,,,,,4,0.362405,,,,,,,,,,,0,7,7,7,1,,,,,,,,,,,,,,,,,,,,,,,,,,,,,,,
,,,,,,,,,,,,,,,,,,,,,,,19,Female,2020-09-25_19h13.44.167,torte-2b,2020.1.3,Win32,60,13254,,,,,,,,,,,,,space,,,,,,2,0.463465,,,,,,,,,,,0,8,8,8,1,,,,,,,,,,,,,,,,,,,,,,,,,,,,,,,
,,,,,,,,,,,,,,,,,,,,,,,19,Female,2020-09-25_19h13.44.167,torte-2b,2020.1.3,Win32,60,13254,,,,,,,,,,,,,space,,,,,,2,0.553615,,,,,,,,,,,0,9,9,9,1,,,,,,,,,,,,,,,,,,,,,,,,,,,,,,,
,,,,,,,,,,,,,,,,,,,,,,,19,Female,2020-09-25_19h13.44.167,torte-2b,2020.1.3,Win32,60,13254,,,,,,,,,,,,,,,,,,,6,,,,,,,,,,,,0,10,10,10,1,,,,,,,,,,,,,,,,,,,,,,,,,,,,,,,
,,,,,,,,,,,,,,,,,,,,,,,19,Female,2020-09-25_19h13.44.167,torte-2b,2020.1.3,Win32,60,13254,,,,,,,,,,,,,,,,,,,2,,,,,,,,,,,,0,11,11,11,1,,,,,,,,,,,,,,,,,,,,,,,,,,,,,,,
,,,,,,,,,,,,,,,,,,,,,,,19,Female,2020-09-25_19h13.44.167,torte-2b,2020.1.3,Win32,60,13254,,,,,,,,,,,,,,,,,,,2,,,,,,,,,,,,0,12,12,12,1,,,,,,,,,,,,,,,,,,,,,,,,,,,,,,,
,,,,,,,,,,,,,,,,,,,,,,,19,Female,2020-09-25_19h13.44.167,torte-2b,2020.1.3,Win32,60,13254,,,,,,,,,,,,,,,,,,,2,,,,,,,,,,,,0,13,13,13,1,,,,,,,,,,,,,,,,,,,,,,,,,,,,,,,
,,,,,,,,,,,,,,,,,,,,,,,19,Female,2020-09-25_19h13.44.167,torte-2b,2020.1.3,Win32,60,13254,,,,,,,,,,,,,space,,,,,,2,0.339385,,,,,,,,,,,0,14,14,14,1,,,,,,,,,,,,,,,,,,,,,,,,,,,,,,,
,,,,,,,,,,,,,,,,,,,,,,,19,Female,2020-09-25_19h13.44.167,torte-2b,2020.1.3,Win32,60,13254,,,,,,,,,,,,,,,,,,,4,,,,,,,,,,,,0,15,15,15,1,,,,,,,,,,,,,,,,,,,,,,,,,,,,,,,
,,,,,,,,,,,,,,,,,,,,,,,19,Female,2020-09-25_19h13.44.167,torte-2b,2020.1.3,Win32,60,13254,,,,,,,,,,,,,,,,,,,3,,,,,,,,,,,,0,16,16,16,1,,,,,,,,,,,,,,,,,,,,,,,,,,,,,,,
,,,,,,,,,,,,,,,,,,,,,,,19,Female,2020-09-25_19h13.44.167,torte-2b,2020.1.3,Win32,60,13254,,,,,,,,,,,,,,,,,,,7,,,,,,,,,,,,0,17,17,17,1,,,,,,,,,,,,,,,,,,,,,,,,,,,,,,,
,,,,,,,,,,,,,,,,,,,,,,,19,Female,2020-09-25_19h13.44.167,torte-2b,2020.1.3,Win32,60,13254,,,,,,,,,,,,,,,,,,,4,,,,,,,,,,,,0,18,18,18,1,,,,,,,,,,,,,,,,,,,,,,,,,,,,,,,
,,,,,,,,,,,,,,,,,,,,,,,19,Female,2020-09-25_19h13.44.167,torte-2b,2020.1.3,Win32,60,13254,,,,,,,,,,,,,space,,,,,,7,0.564045,,,,,,,,,,,0,19,19,19,1,,,,,,,,,,,,,,,,,,,,,,,,,,,,,,,
,,,,,,,,,,,,,,,,,,,,,,,19,Female,2020-09-25_19h13.44.167,torte-2b,2020.1.3,Win32,60,13254,,,,,,,,,,,,,space,,,,,,7,0.57955,,,,,,,,,,,0,20,20,20,1,,,,,,,,,,,,,,,,,,,,,,,,,,,,,,,
,,,,,,,,,,,,,,,,,,,,,,,19,Female,2020-09-25_19h13.44.167,torte-2b,2020.1.3,Win32,60,13254,,,,,,,,,,,,,,,,,,,7,,,,,,,,,,,,0,21,21,21,1,,,,,,,,,,,,,,,,,,,,,,,,,,,,,,,
,,,,,,,,,,,,,,,,,,,,,,,19,Female,2020-09-25_19h13.44.167,torte-2b,2020.1.3,Win32,60,13254,,,,,,,,,,,,,space,,,,,,7,0.329765,,,,,,,,,,,0,22,22,22,1,,,,,,,,,,,,,,,,,,,,,,,,,,,,,,,
,,,,,,,,,,,,,,,,,,,,,,,19,Female,2020-09-25_19h13.44.167,torte-2b,2020.1.3,Win32,60,13254,,,,,,,,,,,,,,,,,,,1,,,,,,,,,,,,0,23,23,23,1,,,,,,,,,,,,,,,,,,,,,,,,,,,,,,,
,,,,,,,,,,,,,,,,,,,,,,,19,Female,2020-09-25_19h13.44.167,torte-2b,2020.1.3,Win32,60,13254,,,,,,,,,,,,,space,,,,,,7,0.321925,,,,,,,,,,,0,24,24,24,1,,,,,,,,,,,,,,,,,,,,,,,,,,,,,,,
,,,,,,,,,,,,,,,,,,,,,,,19,Female,2020-09-25_19h13.44.167,torte-2b,2020.1.3,Win32,60,13254,,,,,,,,,,,,,space,,,,,,1,0.38792,,,,,,,,,,,0,25,25,25,1,,,,,,,,,,,,,,,,,,,,,,,,,,,,,,,
,,,,,,,,,,,,,,,,,,,,,,,19,Female,2020-09-25_19h13.44.167,torte-2b,2020.1.3,Win32,60,13254,,,,,,,,,,,,,space,,,,,,7,0.629015,,,,,,,,,,,0,26,26,26,1,,,,,,,,,,,,,,,,,,,,,,,,,,,,,,,
,,,,,,,,,,,,,,,,,,,,,,,19,Female,2020-09-25_19h13.44.167,torte-2b,2020.1.3,Win32,60,13254,,,,,,,,,,,,,,,,,,,2,,,,,,,,,,,,0,27,27,27,1,,,,,,,,,,,,,,,,,,,,,,,,,,,,,,,
,,,,,,,,,,,,,,,,,,,,,,,19,Female,2020-09-25_19h13.44.167,torte-2b,2020.1.3,Win32,60,13254,,,,,,,,,,,,,,,,,,,5,,,,,,,,,,,,0,28,28,28,1,,,,,,,,,,,,,,,,,,,,,,,,,,,,,,,
,,,,,,,,,,,,,,,,,,,,,,,19,Female,2020-09-25_19h13.44.167,torte-2b,2020.1.3,Win32,60,13254,,,,,,,,,,,,,,,,,,,5,,,,,,,,,,,,0,29,29,29,1,,,,,,,,,,,,,,,,,,,,,,,,,,,,,,,
,,,,,,,,,,,,,,,,,,,,,,,19,Female,2020-09-25_19h13.44.167,torte-2b,2020.1.3,Win32,60,13254,,,,,,,,,,,,,,,,,,,5,,,,,,,,,,,,0,30,30,30,1,,,,,,,,,,,,,,,,,,,,,,,,,,,,,,,
,,,,,,,,,,,,,,,,,,,,,,,19,Female,2020-09-25_19h13.44.167,torte-2b,2020.1.3,Win32,60,13254,,,,,,,,,,,,,,,,,,,1,,,,,,,,,,,,0,31,31,31,1,,,,,,,,,,,,,,,,,,,,,,,,,,,,,,,
,,,,,,,,,,,,,,,,,,,,,,,19,Female,2020-09-25_19h13.44.167,torte-2b,2020.1.3,Win32,60,13254,,,,,,,,,,,,,space,,,,,,5,0.36273,,,,,,,,,,,0,32,32,32,1,,,,,,,,,,,,,,,,,,,,,,,,,,,,,,,
,,,,,,,,,,,,,,,,,,,,,,,19,Female,2020-09-25_19h13.44.167,torte-2b,2020.1.3,Win32,60,13254,,,,,,,,,,,,,,,,,,,3,,,,,,,,,,,,0,33,33,33,1,,,,,,,,,,,,,,,,,,,,,,,,,,,,,,,
,,,,,,,,,,,,,,,,,,,,,,,19,Female,2020-09-25_19h13.44.167,torte-2b,2020.1.3,Win32,60,13254,,,,,,,,,,,,,,,,,,,3,,,,,,,,,,,,0,34,34,34,1,,,,,,,,,,,,,,,,,,,,,,,,,,,,,,,
,,,,,,,,,,,,a,Incorrect,,,,,,t5.png,t2.png,3,0.0000131,19,Female,2020-09-25_19h13.44.167,torte-2b,2020.1.3,Win32,60,13254,1.29651,space,1.536825,,,,,,,,,,,,,,,,,,,,,,,,,,,,,,,,,space,11.441105,0,0,0,51,1,,,,,,,,,,,,,,,,,,,,,,,,
,,,,,,,,,,,,l,Correct!,,,,,,t2.png,t4.png,2,0.059078,19,Female,2020-09-25_19h13.44.167,torte-2b,2020.1.3,Win32,60,13254,1.9795,,,,,,,,,,,,,,,,,,,,,,,,,,,,,,,,,,,,,0,1,1,11,1,,,,,,,,,,,,,,,,,,,,,,,,
,,,,,,,,,,,,a,Incorrect,,,,,,t3.png,t5.png,2,0.056466,19,Female,2020-09-25_19h13.44.167,torte-2b,2020.1.3,Win32,60,13254,0.20077,,,,,,,,,,,,,,,,,,,,,,,,,,,,,,,,,,,,,0,2,2,14,1,,,,,,,,,,,,,,,,,,,,,,,,
,,,,,,,,,,,,a,Correct!,,,,,,t2.png,t1.png,1,0.90025,19,Female,2020-09-25_19h13.44.167,torte-2b,2020.1.3,Win32,60,13254,0.964115,,,,,,,,,,,,,,,,,,,,,,,,,,,,,,,,,,,,,0,3,3,5,1,,,,,,,,,,,,,,,,,,,,,,,,
,,,,,,,,,,,,l,Correct!,,,,,,t2.png,t3.png,1,0.90855,19,Female,2020-09-25_19h13.44.167,torte-2b,2020.1.3,Win32,60,13254,1.08997,,,,,,,,,,,,,,,,,,,,,,,,,,,,,,,,,,,,,0,4,4,10,1,,,,,,,,,,,,,,,,,,,,,,,,
,,,,,,,,,,,,l,Correct!,,,,,,t1.png,t5.png,4,9.55E-11,19,Female,2020-09-25_19h13.44.167,torte-2b,2020.1.3,Win32,60,13254,1.0642,,,,,,,,,,,,,,,,,,,,,,,,,,,,,,,,,,,,,0,5,5,16,1,,,,,,,,,,,,,,,,,,,,,,,,
,,,,,,,,,,,,a,Correct!,,,,,,t4.png,t5.png,1,0.90025,19,Female,2020-09-25_19h13.44.167,torte-2b,2020.1.3,Win32,60,13254,1.113585,,,,,,,,,,,,,,,,,,,,,,,,,,,,,,,,,,,,,0,6,6,47,1,,,,,,,,,,,,,,,,,,,,,,,,
,,,,,,,,,,,,l,Correct!,,,,,,t1.png,t3.png,2,0.056466,19,Female,2020-09-25_19h13.44.167,torte-2b,2020.1.3,Win32,60,13254,1.180095,,,,,,,,,,,,,,,,,,,,,,,,,,,,,,,,,,,,,0,7,7,63,1,,,,,,,,,,,,,,,,,,,,,,,,
,,,,,,,,,,,,a,Incorrect,,,,,,t5.png,t2.png,3,0.0000131,19,Female,2020-09-25_19h13.44.167,torte-2b,2020.1.3,Win32,60,13254,1.513555,,,,,,,,,,,,,,,,,,,,,,,,,,,,,,,,,,,,,0,8,8,116,1,,,,,,,,,,,,,,,,,,,,,,,,
,,,,,,,,,,,,a,Correct!,,,,,,t4.png,t5.png,1,0.9,19,Female,2020-09-25_19h13.44.167,torte-2b,2020.1.3,Win32,60,13254,1.05718,,,,,,,,,,,,,,,,,,,,,,,,,,,,,,,,,,,,,0,9,9,115,1,,,,,,,,,,,,,,,,,,,,,,,,
,,,,,,,,,,,,a,Correct!,,,,,,t5.png,t5.png,0,0.97829,19,Female,2020-09-25_19h13.44.167,torte-2b,2020.1.3,Win32,60,13254,0.915085,,,,,,,,,,,,,,,,,,,,,,,,,,,,,,,,,,,,,0,10,10,70,1,,,,,,,,,,,,,,,,,,,,,,,,
,,,,,,,,,,,,a,Correct!,,,,,,t1.png,t1.png,0,0.97829,19,Female,2020-09-25_19h13.44.167,torte-2b,2020.1.3,Win32,60,13254,0.78692,,,,,,,,,,,,,,,,,,,,,,,,,,,,,,,,,,,,,0,11,11,9,1,,,,,,,,,,,,,,,,,,,,,,,,
,,,,,,,,,,,,a,Incorrect,,,,,,t3.png,t5.png,2,0.056466,19,Female,2020-09-25_19h13.44.167,torte-2b,2020.1.3,Win32,60,13254,1.15397,,,,,,,,,,,,,,,,,,,,,,,,,,,,,,,,,,,,,0,12,12,6,1,,,,,,,,,,,,,,,,,,,,,,,,
,,,,,,,,,,,,l,Correct!,,,,,,t4.png,t2.png,2,0.059078,19,Female,2020-09-25_19h13.44.167,torte-2b,2020.1.3,Win32,60,13254,1.270865,,,,,,,,,,,,,,,,,,,,,,,,,,,,,,,,,,,,,0,13,13,88,1,,,,,,,,,,,,,,,,,,,,,,,,
,,,,,,,,,,,,a,Correct!,,,,,,t4.png,t3.png,1,0.90855,19,Female,2020-09-25_19h13.44.167,torte-2b,2020.1.3,Win32,60,13254,2.155985,,,,,,,,,,,,,,,,,,,,,,,,,,,,,,,,,,,,,0,14,14,45,1,,,,,,,,,,,,,,,,,,,,,,,,
,,,,,,,,,,,,a,Correct!,,,,,,t3.png,t4.png,1,0.90855,19,Female,2020-09-25_19h13.44.167,torte-2b,2020.1.3,Win32,60,13254,1.80476,,,,,,,,,,,,,,,,,,,,,,,,,,,,,,,,,,,,,0,15,15,84,1,,,,,,,,,,,,,,,,,,,,,,,,
,,,,,,,,,,,,l,Correct!,,,,,,t3.png,t2.png,1,0.909,19,Female,2020-09-25_19h13.44.167,torte-2b,2020.1.3,Win32,60,13254,1.036885,,,,,,,,,,,,,,,,,,,,,,,,,,,,,,,,,,,,,0,16,16,23,1,,,,,,,,,,,,,,,,,,,,,,,,
,,,,,,,,,,,,a,Correct!,,,,,,t5.png,t4.png,1,0.90025,19,Female,2020-09-25_19h13.44.167,torte-2b,2020.1.3,Win32,60,13254,1.164785,,,,,,,,,,,,,,,,,,,,,,,,,,,,,,,,,,,,,0,17,17,27,1,,,,,,,,,,,,,,,,,,,,,,,,
,,,,,,,,,,,,l,Correct!,,,,,,t1.png,t4.png,3,0.0000131,19,Female,2020-09-25_19h13.44.167,torte-2b,2020.1.3,Win32,60,13254,0.93102,,,,,,,,,,,,,,,,,,,,,,,,,,,,,,,,,,,,,0,18,18,50,1,,,,,,,,,,,,,,,,,,,,,,,,
,,,,,,,,,,,,l,Correct!,,,,,,t4.png,t2.png,2,0.059078,19,Female,2020-09-25_19h13.44.167,torte-2b,2020.1.3,Win32,60,13254,1.01528,,,,,,,,,,,,,,,,,,,,,,,,,,,,,,,,,,,,,0,19,19,109,1,,,,,,,,,,,,,,,,,,,,,,,,
,,,,,,,,,,,,l,Correct!,,,,,,t5.png,t1.png,4,9.55E-11,19,Female,2020-09-25_19h13.44.167,torte-2b,2020.1.3,Win32,60,13254,0.815855,,,,,,,,,,,,,,,,,,,,,,,,,,,,,,,,,,,,,0,20,20,22,1,,,,,,,,,,,,,,,,,,,,,,,,
,,,,,,,,,,,,l,Correct!,,,,,,t3.png,t1.png,2,0.0565,19,Female,2020-09-25_19h13.44.167,torte-2b,2020.1.3,Win32,60,13254,1.18523,,,,,,,,,,,,,,,,,,,,,,,,,,,,,,,,,,,,,0,21,21,31,1,,,,,,,,,,,,,,,,,,,,,,,,
,,,,,,,,,,,,a,Incorrect,,,,,,t5.png,t3.png,2,0.056466,19,Female,2020-09-25_19h13.44.167,torte-2b,2020.1.3,Win32,60,13254,1.05483,,,,,,,,,,,,,,,,,,,,,,,,,,,,,,,,,,,,,0,22,22,114,1,,,,,,,,,,,,,,,,,,,,,,,,
,,,,,,,,,,,,a,Correct!,,,,,,t5.png,t5.png,0,0.97829,19,Female,2020-09-25_19h13.44.167,torte-2b,2020.1.3,Win32,60,13254,1.0029,,,,,,,,,,,,,,,,,,,,,,,,,,,,,,,,,,,,,0,23,23,94,1,,,,,,,,,,,,,,,,,,,,,,,,
,,,,,,,,,,,,a,Incorrect,,,,,,t3.png,t5.png,2,0.0565,19,Female,2020-09-25_19h13.44.167,torte-2b,2020.1.3,Win32,60,13254,1.423695,,,,,,,,,,,,,,,,,,,,,,,,,,,,,,,,,,,,,0,24,24,83,1,,,,,,,,,,,,,,,,,,,,,,,,
,,,,,,,,,,,,l,Incorrect,,,,,,t3.png,t2.png,1,0.90855,19,Female,2020-09-25_19h13.44.167,torte-2b,2020.1.3,Win32,60,13254,1.290285,,,,,,,,,,,,,,,,,,,,,,,,,,,,,,,,,,,,,0,25,25,97,1,,,,,,,,,,,,,,,,,,,,,,,,
,,,,,,,,,,,,l,Incorrect,,,,,,t2.png,t3.png,1,0.90855,19,Female,2020-09-25_19h13.44.167,torte-2b,2020.1.3,Win32,60,13254,1.198105,,,,,,,,,,,,,,,,,,,,,,,,,,,,,,,,,,,,,0,26,26,68,1,,,,,,,,,,,,,,,,,,,,,,,,
,,,,,,,,,,,,a,Incorrect,,,,,,t2.png,t5.png,3,0.0000131,19,Female,2020-09-25_19h13.44.167,torte-2b,2020.1.3,Win32,60,13254,0.91439,,,,,,,,,,,,,,,,,,,,,,,,,,,,,,,,,,,,,0,27,27,104,1,,,,,,,,,,,,,,,,,,,,,,,,
,,,,,,,,,,,,a,Incorrect,,,,,,t3.png,t5.png,2,0.0565,19,Female,2020-09-25_19h13.44.167,torte-2b,2020.1.3,Win32,60,13254,0.78732,,,,,,,,,,,,,,,,,,,,,,,,,,,,,,,,,,,,,0,28,28,30,1,,,,,,,,,,,,,,,,,,,,,,,,
,,,,,,,,,,,,l,Correct!,,,,,,t3.png,t1.png,2,0.056466,19,Female,2020-09-25_19h13.44.167,torte-2b,2020.1.3,Win32,60,13254,0.835375,,,,,,,,,,,,,,,,,,,,,,,,,,,,,,,,,,,,,0,29,29,32,1,,,,,,,,,,,,,,,,,,,,,,,,
,,,,,,,,,,,,a,Correct!,,,,,,t5.png,t5.png,0,0.97829,19,Female,2020-09-25_19h13.44.167,torte-2b,2020.1.3,Win32,60,13254,0.658705,,,,,,,,,,,,,,,,,,,,,,,,,,,,,,,,,,,,,0,30,30,25,1,,,,,,,,,,,,,,,,,,,,,,,,
,,,,,,,,,,,,a,Correct!,,,,,,t4.png,t4.png,0,0.98115,19,Female,2020-09-25_19h13.44.167,torte-2b,2020.1.3,Win32,60,13254,1.25554,,,,,,,,,,,,,,,,,,,,,,,,,,,,,,,,,,,,,0,31,31,79,1,,,,,,,,,,,,,,,,,,,,,,,,
,,,,,,,,,,,,l,Correct!,,,,,,t2.png,t4.png,2,0.0591,19,Female,2020-09-25_19h13.44.167,torte-2b,2020.1.3,Win32,60,13254,1.297435,,,,,,,,,,,,,,,,,,,,,,,,,,,,,,,,,,,,,0,32,32,15,1,,,,,,,,,,,,,,,,,,,,,,,,
,,,,,,,,,,,,a,Correct!,,,,,,t1.png,t1.png,0,0.978,19,Female,2020-09-25_19h13.44.167,torte-2b,2020.1.3,Win32,60,13254,1.447615,,,,,,,,,,,,,,,,,,,,,,,,,,,,,,,,,,,,,0,33,33,54,1,,,,,,,,,,,,,,,,,,,,,,,,
,,,,,,,,,,,,l,Correct!,,,,,,t1.png,t3.png,2,0.056466,19,Female,2020-09-25_19h13.44.167,torte-2b,2020.1.3,Win32,60,13254,1.15211,,,,,,,,,,,,,,,,,,,,,,,,,,,,,,,,,,,,,0,34,34,60,1,,,,,,,,,,,,,,,,,,,,,,,,
,,,,,,,,,,,,a,Correct!,,,,,,t2.png,t1.png,1,0.9,19,Female,2020-09-25_19h13.44.167,torte-2b,2020.1.3,Win32,60,13254,1.20886,,,,,,,,,,,,,,,,,,,,,,,,,,,,,,,,,,,,,0,35,35,118,1,,,,,,,,,,,,,,,,,,,,,,,,
,,,,,,,,,,,,a,Correct!,,,,,,t1.png,t2.png,1,0.90025,19,Female,2020-09-25_19h13.44.167,torte-2b,2020.1.3,Win32,60,13254,1.29758,,,,,,,,,,,,,,,,,,,,,,,,,,,,,,,,,,,,,0,36,36,33,1,,,,,,,,,,,,,,,,,,,,,,,,
,,,,,,,,,,,,a,Incorrect,,,,,,t2.png,t5.png,3,0.0000131,19,Female,2020-09-25_19h13.44.167,torte-2b,2020.1.3,Win32,60,13254,1.314045,,,,,,,,,,,,,,,,,,,,,,,,,,,,,,,,,,,,,0,37,37,66,1,,,,,,,,,,,,,,,,,,,,,,,,
,,,,,,,,,,,,l,Correct!,,,,,,t1.png,t3.png,2,0.056466,19,Female,2020-09-25_19h13.44.167,torte-2b,2020.1.3,Win32,60,13254,0.9028,,,,,,,,,,,,,,,,,,,,,,,,,,,,,,,,,,,,,0,38,38,69,1,,,,,,,,,,,,,,,,,,,,,,,,
,,,,,,,,,,,,l,Incorrect,,,,,,t2.png,t3.png,1,0.90855,19,Female,2020-09-25_19h13.44.167,torte-2b,2020.1.3,Win32,60,13254,1.025505,,,,,,,,,,,,,,,,,,,,,,,,,,,,,,,,,,,,,0,39,39,111,1,,,,,,,,,,,,,,,,,,,,,,,,
,,,,,,,,,,,,l,Incorrect,,,,,,t2.png,t4.png,2,0.059078,19,Female,2020-09-25_19h13.44.167,torte-2b,2020.1.3,Win32,60,13254,0.85681,,,,,,,,,,,,,,,,,,,,,,,,,,,,,,,,,,,,,0,40,40,77,1,,,,,,,,,,,,,,,,,,,,,,,,
,,,,,,,,,,,,l,Correct!,,,,,,t4.png,t1.png,3,0.0000131,19,Female,2020-09-25_19h13.44.167,torte-2b,2020.1.3,Win32,60,13254,1.31799,,,,,,,,,,,,,,,,,,,,,,,,,,,,,,,,,,,,,0,41,41,61,1,,,,,,,,,,,,,,,,,,,,,,,,
,,,,,,,,,,,,l,Correct!,,,,,,t3.png,t1.png,2,0.056466,19,Female,2020-09-25_19h13.44.167,torte-2b,2020.1.3,Win32,60,13254,0.96465,,,,,,,,,,,,,,,,,,,,,,,,,,,,,,,,,,,,,0,42,42,29,1,,,,,,,,,,,,,,,,,,,,,,,,
,,,,,,,,,,,,l,Incorrect,,,,,,t2.png,t3.png,1,0.909,19,Female,2020-09-25_19h13.44.167,torte-2b,2020.1.3,Win32,60,13254,0.96486,,,,,,,,,,,,,,,,,,,,,,,,,,,,,,,,,,,,,0,43,43,74,1,,,,,,,,,,,,,,,,,,,,,,,,
,,,,,,,,,,,,a,Correct!,,,,,,t4.png,t3.png,1,0.909,19,Female,2020-09-25_19h13.44.167,torte-2b,2020.1.3,Win32,60,13254,1.82991,,,,,,,,,,,,,,,,,,,,,,,,,,,,,,,,,,,,,0,44,44,46,1,,,,,,,,,,,,,,,,,,,,,,,,
,,,,,,,,,,,,a,Correct!,,,,,,t4.png,t4.png,0,0.98115,19,Female,2020-09-25_19h13.44.167,torte-2b,2020.1.3,Win32,60,13254,0.969435,,,,,,,,,,,,,,,,,,,,,,,,,,,,,,,,,,,,,0,45,45,80,1,,,,,,,,,,,,,,,,,,,,,,,,
,,,,,,,,,,,,l,Correct!,,,,,,t1.png,t4.png,3,0.0000131,19,Female,2020-09-25_19h13.44.167,torte-2b,2020.1.3,Win32,60,13254,0.84019,,,,,,,,,,,,,,,,,,,,,,,,,,,,,,,,,,,,,0,46,46,17,1,,,,,,,,,,,,,,,,,,,,,,,,
,,,,,,,,,,,,l,Correct!,,,,,,t5.png,t1.png,4,9.55E-11,19,Female,2020-09-25_19h13.44.167,torte-2b,2020.1.3,Win32,60,13254,0.88151,,,,,,,,,,,,,,,,,,,,,,,,,,,,,,,,,,,,,0,47,47,43,1,,,,,,,,,,,,,,,,,,,,,,,,
,,,,,,,,,,,,a,Correct!,,,,,,t5.png,t4.png,1,0.9,19,Female,2020-09-25_19h13.44.167,torte-2b,2020.1.3,Win32,60,13254,0.824275,,,,,,,,,,,,,,,,,,,,,,,,,,,,,,,,,,,,,0,48,48,49,1,,,,,,,,,,,,,,,,,,,,,,,,
,,,,,,,,,,,,a,Correct!,,,,,,t5.png,t4.png,1,0.90025,19,Female,2020-09-25_19h13.44.167,torte-2b,2020.1.3,Win32,60,13254,0.614165,,,,,,,,,,,,,,,,,,,,,,,,,,,,,,,,,,,,,0,49,49,26,1,,,,,,,,,,,,,,,,,,,,,,,,
,,,,,,,,,,,,a,Incorrect,,,,,,t2.png,t1.png,1,0.90025,19,Female,2020-09-25_19h13.44.167,torte-2b,2020.1.3,Win32,60,13254,0.984555,,,,,,,,,,,,,,,,,,,,,,,,,,,,,,,,,,,,,0,50,50,4,1,,,,,,,,,,,,,,,,,,,,,,,,
,,,,,,,,,,,,a,Correct!,,,,,,t2.png,t1.png,1,0.90025,19,Female,2020-09-25_19h13.44.167,torte-2b,2020.1.3,Win32,60,13254,0.867835,,,,,,,,,,,,,,,,,,,,,,,,,,,,,,,,,,,,,0,51,51,19,1,,,,,,,,,,,,,,,,,,,,,,,,
,,,,,,,,,,,,l,Incorrect,,,,,,t2.png,t2.png,0,0.98115,19,Female,2020-09-25_19h13.44.167,torte-2b,2020.1.3,Win32,60,13254,1.43881,,,,,,,,,,,,,,,,,,,,,,,,,,,,,,,,,,,,,0,52,52,7,1,,,,,,,,,,,,,,,,,,,,,,,,
,,,,,,,,,,,,a,Incorrect,,,,,,t2.png,t5.png,3,0.0000131,19,Female,2020-09-25_19h13.44.167,torte-2b,2020.1.3,Win32,60,13254,0.86233,,,,,,,,,,,,,,,,,,,,,,,,,,,,,,,,,,,,,0,53,53,8,1,,,,,,,,,,,,,,,,,,,,,,,,
,,,,,,,,,,,,l,Incorrect,,,,,,t3.png,t2.png,1,0.90855,19,Female,2020-09-25_19h13.44.167,torte-2b,2020.1.3,Win32,60,13254,1.41667,,,,,,,,,,,,,,,,,,,,,,,,,,,,,,,,,,,,,0,54,54,18,1,,,,,,,,,,,,,,,,,,,,,,,,
,,,,,,,,,,,,a,Incorrect,,,,,,t1.png,t4.png,3,0.0000131,19,Female,2020-09-25_19h13.44.167,torte-2b,2020.1.3,Win32,60,13254,0.968155,,,,,,,,,,,,,,,,,,,,,,,,,,,,,,,,,,,,,0,55,55,81,1,,,,,,,,,,,,,,,,,,,,,,,,
,,,,,,,,,,,,l,Incorrect,,,,,,t2.png,t2.png,0,0.981,19,Female,2020-09-25_19h13.44.167,torte-2b,2020.1.3,Win32,60,13254,1.280895,,,,,,,,,,,,,,,,,,,,,,,,,,,,,,,,,,,,,0,56,56,101,1,,,,,,,,,,,,,,,,,,,,,,,,
,,,,,,,,,,,,l,Correct!,,,,,,t4.png,t2.png,2,0.0591,19,Female,2020-09-25_19h13.44.167,torte-2b,2020.1.3,Win32,60,13254,1.113355,,,,,,,,,,,,,,,,,,,,,,,,,,,,,,,,,,,,,0,57,57,36,1,,,,,,,,,,,,,,,,,,,,,,,,
,,,,,,,,,,,,l,Correct!,,,,,,t4.png,t1.png,3,0.0000131,19,Female,2020-09-25_19h13.44.167,torte-2b,2020.1.3,Win32,60,13254,1.26402,,,,,,,,,,,,,,,,,,,,,,,,,,,,,,,,,,,,,0,58,58,93,1,,,,,,,,,,,,,,,,,,,,,,,,
,,,,,,,,,,,,,Too slow :(,,,,,,t2.png,t2.png,0,0.98115,19,Female,2020-09-25_19h13.44.167,torte-2b,2020.1.3,Win32,60,13254,,,,,,,,,,,,,,,,,,,,,,,,,,,,,,,,,,,,,,0,59,59,57,1,,,,,,,,,,,,,,,,,,,,,,,,
,,,,,,,,,,,,l,Incorrect,,,,,,t3.png,t2.png,1,0.909,19,Female,2020-09-25_19h13.44.167,torte-2b,2020.1.3,Win32,60,13254,0.965565,,,,,,,,,,,,,,,,,,,,,,,,,,,,,,,,,,,,,0,60,60,3,1,,,,,,,,,,,,,,,,,,,,,,,,
,,,,,,,,,,,,a,Correct!,,,,,,t4.png,t4.png,0,0.98115,19,Female,2020-09-25_19h13.44.167,torte-2b,2020.1.3,Win32,60,13254,0.91648,,,,,,,,,,,,,,,,,,,,,,,,,,,,,,,,,,,,,0,61,61,90,1,,,,,,,,,,,,,,,,,,,,,,,,
,,,,,,,,,,,,l,Correct!,,,,,,t1.png,t3.png,2,0.056466,19,Female,2020-09-25_19h13.44.167,torte-2b,2020.1.3,Win32,60,13254,0.83151,,,,,,,,,,,,,,,,,,,,,,,,,,,,,,,,,,,,,0,62,62,99,1,,,,,,,,,,,,,,,,,,,,,,,,
,,,,,,,,,,,,l,Correct!,,,,,,t5.png,t2.png,3,0.0000131,19,Female,2020-09-25_19h13.44.167,torte-2b,2020.1.3,Win32,60,13254,0.84976,,,,,,,,,,,,,,,,,,,,,,,,,,,,,,,,,,,,,0,63,63,91,1,,,,,,,,,,,,,,,,,,,,,,,,
,,,,,,,,,,,,a,Correct!,,,,,,t3.png,t4.png,1,0.909,19,Female,2020-09-25_19h13.44.167,torte-2b,2020.1.3,Win32,60,13254,1.1314,,,,,,,,,,,,,,,,,,,,,,,,,,,,,,,,,,,,,0,64,64,82,1,,,,,,,,,,,,,,,,,,,,,,,,
,,,,,,,,,,,,a,Correct!,,,,,,t1.png,t1.png,0,0.978,19,Female,2020-09-25_19h13.44.167,torte-2b,2020.1.3,Win32,60,13254,0.88678,,,,,,,,,,,,,,,,,,,,,,,,,,,,,,,,,,,,,0,65,65,28,1,,,,,,,,,,,,,,,,,,,,,,,,
,,,,,,,,,,,,a,Correct!,,,,,,t1.png,t2.png,1,0.90025,19,Female,2020-09-25_19h13.44.167,torte-2b,2020.1.3,Win32,60,13254,1.73068,,,,,,,,,,,,,,,,,,,,,,,,,,,,,,,,,,,,,0,66,66,105,1,,,,,,,,,,,,,,,,,,,,,,,,
,,,,,,,,,,,,a,Correct!,,,,,,t5.png,t5.png,0,0.978,19,Female,2020-09-25_19h13.44.167,torte-2b,2020.1.3,Win32,60,13254,0.81472,,,,,,,,,,,,,,,,,,,,,,,,,,,,,,,,,,,,,0,67,67,117,1,,,,,,,,,,,,,,,,,,,,,,,,
,,,,,,,,,,,,,Too slow :(,,,,,,t4.png,t5.png,1,0.90025,19,Female,2020-09-25_19h13.44.167,torte-2b,2020.1.3,Win32,60,13254,,,,,,,,,,,,,,,,,,,,,,,,,,,,,,,,,,,,,,0,68,68,113,1,,,,,,,,,,,,,,,,,,,,,,,,
,,,,,,,,,,,,,Too slow :(,,,,,,t4.png,t3.png,1,0.90855,19,Female,2020-09-25_19h13.44.167,torte-2b,2020.1.3,Win32,60,13254,,,,,,,,,,,,,,,,,,,,,,,,,,,,,,,,,,,,,,0,69,69,35,1,,,,,,,,,,,,,,,,,,,,,,,,
,,,,,,,,,,,,a,Correct!,,,,,,t3.png,t4.png,1,0.90855,19,Female,2020-09-25_19h13.44.167,torte-2b,2020.1.3,Win32,60,13254,1.99325,,,,,,,,,,,,,,,,,,,,,,,,,,,,,,,,,,,,,0,70,70,96,1,,,,,,,,,,,,,,,,,,,,,,,,
,,,,,,,,,,,,l,Correct!,,,,,,t4.png,t2.png,2,0.059078,19,Female,2020-09-25_19h13.44.167,torte-2b,2020.1.3,Win32,60,13254,0.93554,,,,,,,,,,,,,,,,,,,,,,,,,,,,,,,,,,,,,0,71,71,110,1,,,,,,,,,,,,,,,,,,,,,,,,
,,,,,,,,,,,,l,Correct!,,,,,,t4.png,t1.png,3,0.0000131,19,Female,2020-09-25_19h13.44.167,torte-2b,2020.1.3,Win32,60,13254,0.990425,,,,,,,,,,,,,,,,,,,,,,,,,,,,,,,,,,,,,0,72,72,42,1,,,,,,,,,,,,,,,,,,,,,,,,
,,,,,,,,,,,,a,Incorrect,,,,,,t5.png,t3.png,2,0.056466,19,Female,2020-09-25_19h13.44.167,torte-2b,2020.1.3,Win32,60,13254,1.715575,,,,,,,,,,,,,,,,,,,,,,,,,,,,,,,,,,,,,0,73,73,108,1,,,,,,,,,,,,,,,,,,,,,,,,
,,,,,,,,,,,,l,Incorrect,,,,,,t2.png,t2.png,0,0.98115,19,Female,2020-09-25_19h13.44.167,torte-2b,2020.1.3,Win32,60,13254,1.23131,,,,,,,,,,,,,,,,,,,,,,,,,,,,,,,,,,,,,0,74,74,59,1,,,,,,,,,,,,,,,,,,,,,,,,
,,,,,,,,,,,,l,Correct!,,,,,,t5.png,t1.png,4,9.55E-11,19,Female,2020-09-25_19h13.44.167,torte-2b,2020.1.3,Win32,60,13254,0.814725,,,,,,,,,,,,,,,,,,,,,,,,,,,,,,,,,,,,,0,75,75,71,1,,,,,,,,,,,,,,,,,,,,,,,,
,,,,,,,,,,,,,Too slow :(,,,,,,t4.png,t4.png,0,0.98115,19,Female,2020-09-25_19h13.44.167,torte-2b,2020.1.3,Win32,60,13254,,,,,,,,,,,,,,,,,,,,,,,,,,,,,,,,,,,,,,0,76,76,52,1,,,,,,,,,,,,,,,,,,,,,,,,
,,,,,,,,,,,,l,Correct!,,,,,,t3.png,t1.png,2,0.056466,19,Female,2020-09-25_19h13.44.167,torte-2b,2020.1.3,Win32,60,13254,1.114675,,,,,,,,,,,,,,,,,,,,,,,,,,,,,,,,,,,,,0,77,77,64,1,,,,,,,,,,,,,,,,,,,,,,,,
,,,,,,,,,,,,a,Correct!,,,,,,t5.png,t4.png,1,0.90025,19,Female,2020-09-25_19h13.44.167,torte-2b,2020.1.3,Win32,60,13254,1.39932,,,,,,,,,,,,,,,,,,,,,,,,,,,,,,,,,,,,,0,78,78,34,1,,,,,,,,,,,,,,,,,,,,,,,,
,,,,,,,,,,,,l,Correct!,,,,,,t2.png,t4.png,2,0.059078,19,Female,2020-09-25_19h13.44.167,torte-2b,2020.1.3,Win32,60,13254,0.9315,,,,,,,,,,,,,,,,,,,,,,,,,,,,,,,,,,,,,0,79,79,24,1,,,,,,,,,,,,,,,,,,,,,,,,
,,,,,,,,,,,,a,Correct!,,,,,,t5.png,t3.png,2,0.056466,19,Female,2020-09-25_19h13.44.167,torte-2b,2020.1.3,Win32,60,13254,0.88143,,,,,,,,,,,,,,,,,,,,,,,,,,,,,,,,,,,,,0,80,80,56,1,,,,,,,,,,,,,,,,,,,,,,,,
,,,,,,,,,,,,a,Correct!,,,,,,t1.png,t1.png,0,0.97829,19,Female,2020-09-25_19h13.44.167,torte-2b,2020.1.3,Win32,60,13254,0.764725,,,,,,,,,,,,,,,,,,,,,,,,,,,,,,,,,,,,,0,81,81,67,1,,,,,,,,,,,,,,,,,,,,,,,,
,,,,,,,,,,,,l,Correct!,,,,,,t1.png,t5.png,4,9.55E-11,19,Female,2020-09-25_19h13.44.167,torte-2b,2020.1.3,Win32,60,13254,0.79777,,,,,,,,,,,,,,,,,,,,,,,,,,,,,,,,,,,,,0,82,82,85,1,,,,,,,,,,,,,,,,,,,,,,,,
,,,,,,,,,,,,a,Correct!,,,,,,t5.png,t4.png,1,0.9,19,Female,2020-09-25_19h13.44.167,torte-2b,2020.1.3,Win32,60,13254,0.765425,,,,,,,,,,,,,,,,,,,,,,,,,,,,,,,,,,,,,0,83,83,76,1,,,,,,,,,,,,,,,,,,,,,,,,
,,,,,,,,,,,,a,Correct!,,,,,,t1.png,t2.png,1,0.90025,19,Female,2020-09-25_19h13.44.167,torte-2b,2020.1.3,Win32,60,13254,1.181295,,,,,,,,,,,,,,,,,,,,,,,,,,,,,,,,,,,,,0,84,84,112,1,,,,,,,,,,,,,,,,,,,,,,,,
,,,,,,,,,,,,l,Correct!,,,,,,t5.png,t1.png,4,9.55E-11,19,Female,2020-09-25_19h13.44.167,torte-2b,2020.1.3,Win32,60,13254,0.76485,,,,,,,,,,,,,,,,,,,,,,,,,,,,,,,,,,,,,0,85,85,102,1,,,,,,,,,,,,,,,,,,,,,,,,
,,,,,,,,,,,,l,Correct!,,,,,,t1.png,t5.png,4,9.55E-11,19,Female,2020-09-25_19h13.44.167,torte-2b,2020.1.3,Win32,60,13254,0.864275,,,,,,,,,,,,,,,,,,,,,,,,,,,,,,,,,,,,,0,86,86,55,1,,,,,,,,,,,,,,,,,,,,,,,,
,,,,,,,,,,,,a,Correct!,,,,,,t4.png,t3.png,1,0.909,19,Female,2020-09-25_19h13.44.167,torte-2b,2020.1.3,Win32,60,13254,1.00322,,,,,,,,,,,,,,,,,,,,,,,,,,,,,,,,,,,,,0,87,87,20,1,,,,,,,,,,,,,,,,,,,,,,,,
,,,,,,,,,,,,a,Incorrect,,,,,,t5.png,t3.png,2,0.0565,19,Female,2020-09-25_19h13.44.167,torte-2b,2020.1.3,Win32,60,13254,0.71476,,,,,,,,,,,,,,,,,,,,,,,,,,,,,,,,,,,,,0,88,88,39,1,,,,,,,,,,,,,,,,,,,,,,,,
,,,,,,,,,,,,a,Correct!,,,,,,t4.png,t5.png,1,0.90025,19,Female,2020-09-25_19h13.44.167,torte-2b,2020.1.3,Win32,60,13254,0.650485,,,,,,,,,,,,,,,,,,,,,,,,,,,,,,,,,,,,,0,89,89,58,1,,,,,,,,,,,,,,,,,,,,,,,,
,,,,,,,,,,,,l,Correct!,,,,,,t1.png,t3.png,2,0.056466,19,Female,2020-09-25_19h13.44.167,torte-2b,2020.1.3,Win32,60,13254,0.91862,,,,,,,,,,,,,,,,,,,,,,,,,,,,,,,,,,,,,0,90,90,87,1,,,,,,,,,,,,,,,,,,,,,,,,
,,,,,,,,,,,,a,Incorrect,,,,,,t5.png,t3.png,2,0.056466,19,Female,2020-09-25_19h13.44.167,torte-2b,2020.1.3,Win32,60,13254,0.698275,,,,,,,,,,,,,,,,,,,,,,,,,,,,,,,,,,,,,0,91,91,38,1,,,,,,,,,,,,,,,,,,,,,,,,
,,,,,,,,,,,,l,Correct!,,,,,,t4.png,t1.png,3,0.0000131,19,Female,2020-09-25_19h13.44.167,torte-2b,2020.1.3,Win32,60,13254,0.97169,,,,,,,,,,,,,,,,,,,,,,,,,,,,,,,,,,,,,0,92,92,48,1,,,,,,,,,,,,,,,,,,,,,,,,
,,,,,,,,,,,,a,Correct!,,,,,,t4.png,t3.png,1,0.90855,19,Female,2020-09-25_19h13.44.167,torte-2b,2020.1.3,Win32,60,13254,0.81452,,,,,,,,,,,,,,,,,,,,,,,,,,,,,,,,,,,,,0,93,93,75,1,,,,,,,,,,,,,,,,,,,,,,,,
,,,,,,,,,,,,l,Correct!,,,,,,t5.png,t1.png,4,9.55E-11,19,Female,2020-09-25_19h13.44.167,torte-2b,2020.1.3,Win32,60,13254,1.7873,,,,,,,,,,,,,,,,,,,,,,,,,,,,,,,,,,,,,0,94,94,100,1,,,,,,,,,,,,,,,,,,,,,,,,
,,,,,,,,,,,,a,Correct!,,,,,,t1.png,t2.png,1,0.9,19,Female,2020-09-25_19h13.44.167,torte-2b,2020.1.3,Win32,60,13254,1.368375,,,,,,,,,,,,,,,,,,,,,,,,,,,,,,,,,,,,,0,95,95,1,1,,,,,,,,,,,,,,,,,,,,,,,,
,,,,,,,,,,,,l,Correct!,,,,,,t4.png,t1.png,3,0.0000131,19,Female,2020-09-25_19h13.44.167,torte-2b,2020.1.3,Win32,60,13254,1.02319,,,,,,,,,,,,,,,,,,,,,,,,,,,,,,,,,,,,,0,96,96,13,1,,,,,,,,,,,,,,,,,,,,,,,,
,,,,,,,,,,,,l,Correct!,,,,,,t1.png,t5.png,4,9.55E-11,19,Female,2020-09-25_19h13.44.167,torte-2b,2020.1.3,Win32,60,13254,0.96481,,,,,,,,,,,,,,,,,,,,,,,,,,,,,,,,,,,,,0,97,97,41,1,,,,,,,,,,,,,,,,,,,,,,,,
,,,,,,,,,,,,l,Correct!,,,,,,t1.png,t4.png,3,0.0000131,19,Female,2020-09-25_19h13.44.167,torte-2b,2020.1.3,Win32,60,13254,0.93523,,,,,,,,,,,,,,,,,,,,,,,,,,,,,,,,,,,,,0,98,98,92,1,,,,,,,,,,,,,,,,,,,,,,,,
,,,,,,,,,,,,a,Correct!,,,,,,t4.png,t5.png,1,0.90025,19,Female,2020-09-25_19h13.44.167,torte-2b,2020.1.3,Win32,60,13254,0.78793,,,,,,,,,,,,,,,,,,,,,,,,,,,,,,,,,,,,,0,99,99,103,1,,,,,,,,,,,,,,,,,,,,,,,,
,,,,,,,,,,,,l,Correct!,,,,,,t1.png,t5.png,4,9.55E-11,19,Female,2020-09-25_19h13.44.167,torte-2b,2020.1.3,Win32,60,13254,0.76468,,,,,,,,,,,,,,,,,,,,,,,,,,,,,,,,,,,,,0,100,100,12,1,,,,,,,,,,,,,,,,,,,,,,,,
,,,,,,,,,,,,l,Incorrect,,,,,,t2.png,t3.png,1,0.90855,19,Female,2020-09-25_19h13.44.167,torte-2b,2020.1.3,Win32,60,13254,0.964185,,,,,,,,,,,,,,,,,,,,,,,,,,,,,,,,,,,,,0,101,101,65,1,,,,,,,,,,,,,,,,,,,,,,,,
,,,,,,,,,,,,a,Incorrect,,,,,,t2.png,t5.png,3,0.0000131,19,Female,2020-09-25_19h13.44.167,torte-2b,2020.1.3,Win32,60,13254,0.818965,,,,,,,,,,,,,,,,,,,,,,,,,,,,,,,,,,,,,0,102,102,95,1,,,,,,,,,,,,,,,,,,,,,,,,
,,,,,,,,,,,,l,Incorrect,,,,,,t3.png,t2.png,1,0.90855,19,Female,2020-09-25_19h13.44.167,torte-2b,2020.1.3,Win32,60,13254,1.43381,,,,,,,,,,,,,,,,,,,,,,,,,,,,,,,,,,,,,0,103,103,53,1,,,,,,,,,,,,,,,,,,,,,,,,
,,,,,,,,,,,,l,Incorrect,,,,,,t4.png,t2.png,2,0.059078,19,Female,2020-09-25_19h13.44.167,torte-2b,2020.1.3,Win32,60,13254,1.22489,,,,,,,,,,,,,,,,,,,,,,,,,,,,,,,,,,,,,0,104,104,86,1,,,,,,,,,,,,,,,,,,,,,,,,
,,,,,,,,,,,,a,Incorrect,,,,,,t2.png,t5.png,3,0.0000131,19,Female,2020-09-25_19h13.44.167,torte-2b,2020.1.3,Win32,60,13254,0.984955,,,,,,,,,,,,,,,,,,,,,,,,,,,,,,,,,,,,,0,105,105,40,1,,,,,,,,,,,,,,,,,,,,,,,,
,,,,,,,,,,,,a,Incorrect,,,,,,t5.png,t2.png,3,0.0000131,19,Female,2020-09-25_19h13.44.167,torte-2b,2020.1.3,Win32,60,13254,1.548275,,,,,,,,,,,,,,,,,,,,,,,,,,,,,,,,,,,,,0,106,106,98,1,,,,,,,,,,,,,,,,,,,,,,,,
,,,,,,,,,,,,l,Incorrect,,,,,,t2.png,t2.png,0,0.98115,19,Female,2020-09-25_19h13.44.167,torte-2b,2020.1.3,Win32,60,13254,1.01566,,,,,,,,,,,,,,,,,,,,,,,,,,,,,,,,,,,,,0,107,107,2,1,,,,,,,,,,,,,,,,,,,,,,,,
,,,,,,,,,,,,a,Correct!,,,,,,t3.png,t4.png,1,0.909,19,Female,2020-09-25_19h13.44.167,torte-2b,2020.1.3,Win32,60,13254,1.46398,,,,,,,,,,,,,,,,,,,,,,,,,,,,,,,,,,,,,0,108,108,106,1,,,,,,,,,,,,,,,,,,,,,,,,
,,,,,,,,,,,,a,Correct!,,,,,,t4.png,t4.png,0,0.98115,19,Female,2020-09-25_19h13.44.167,torte-2b,2020.1.3,Win32,60,13254,1.347825,,,,,,,,,,,,,,,,,,,,,,,,,,,,,,,,,,,,,0,109,109,21,1,,,,,,,,,,,,,,,,,,,,,,,,
,,,,,,,,,,,,a,Incorrect,,,,,,t3.png,t5.png,2,0.056466,19,Female,2020-09-25_19h13.44.167,torte-2b,2020.1.3,Win32,60,13254,0.91436,,,,,,,,,,,,,,,,,,,,,,,,,,,,,,,,,,,,,0,110,110,44,1,,,,,,,,,,,,,,,,,,,,,,,,
,,,,,,,,,,,,a,Correct!,,,,,,t2.png,t1.png,1,0.90025,19,Female,2020-09-25_19h13.44.167,torte-2b,2020.1.3,Win32,60,13254,1.231015,,,,,,,,,,,,,,,,,,,,,,,,,,,,,,,,,,,,,0,111,111,62,1,,,,,,,,,,,,,,,,,,,,,,,,
,,,,,,,,,,,,a,Incorrect,,,,,,t5.png,t2.png,3,0.0000131,19,Female,2020-09-25_19h13.44.167,torte-2b,2020.1.3,Win32,60,13254,1.04743,,,,,,,,,,,,,,,,,,,,,,,,,,,,,,,,,,,,,0,112,112,119,1,,,,,,,,,,,,,,,,,,,,,,,,
,,,,,,,,,,,,l,Correct!,,,,,,t1.png,t4.png,3,0.0000131,19,Female,2020-09-25_19h13.44.167,torte-2b,2020.1.3,Win32,60,13254,1.36817,,,,,,,,,,,,,,,,,,,,,,,,,,,,,,,,,,,,,0,113,113,107,1,,,,,,,,,,,,,,,,,,,,,,,,
,,,,,,,,,,,,a,Correct!,,,,,,t5.png,t5.png,0,0.97829,19,Female,2020-09-25_19h13.44.167,torte-2b,2020.1.3,Win32,60,13254,0.847975,,,,,,,,,,,,,,,,,,,,,,,,,,,,,,,,,,,,,0,114,114,73,1,,,,,,,,,,,,,,,,,,,,,,,,
,,,,,,,,,,,,l,Correct!,,,,,,t2.png,t4.png,2,0.059078,19,Female,2020-09-25_19h13.44.167,torte-2b,2020.1.3,Win32,60,13254,0.85598,,,,,,,,,,,,,,,,,,,,,,,,,,,,,,,,,,,,,0,115,115,37,1,,,,,,,,,,,,,,,,,,,,,,,,
,,,,,,,,,,,,a,Correct!,,,,,,t1.png,t2.png,1,0.90025,19,Female,2020-09-25_19h13.44.167,torte-2b,2020.1.3,Win32,60,13254,0.81513,,,,,,,,,,,,,,,,,,,,,,,,,,,,,,,,,,,,,0,116,116,72,1,,,,,,,,,,,,,,,,,,,,,,,,
,,,,,,,,,,,,a,Correct!,,,,,,t1.png,t1.png,0,0.97829,19,Female,2020-09-25_19h13.44.167,torte-2b,2020.1.3,Win32,60,13254,0.68308,,,,,,,,,,,,,,,,,,,,,,,,,,,,,,,,,,,,,0,117,117,78,1,,,,,,,,,,,,,,,,,,,,,,,,
,,,,,,,,,,,,l,Correct!,,,,,,t3.png,t1.png,2,0.056466,19,Female,2020-09-25_19h13.44.167,torte-2b,2020.1.3,Win32,60,13254,1.23088,,,,,,,,,,,,,,,,,,,,,,,,,,,,,,,,,,,,,0,118,118,0,1,,,,,,,,,,,,,,,,,,,,,,,,
,,,,,,,,,,,,a,Correct!,,,,,,t3.png,t4.png,1,0.909,19,Female,2020-09-25_19h13.44.167,torte-2b,2020.1.3,Win32,60,13254,1.71363,,,,,,,,,,,,,,,,,,,,,,,,,,,,,,,,,,,,,0,119,119,89,1,,,,,,,,,,,,,,,,,,,,,,,,
,,,,,,,,,,,,,,,,,,,,,,,19,Female,2020-09-25_19h13.44.167,torte-2b,2020.1.3,Win32,60,13254,,space,1.647215,,,,,,,,,,,,,,,,,,,,,,,,,,,,,,,,,,,,,,,,200.000025,-17.33334458,1,0,0,s4,88.66668838,33.99999028,1,0,0,t2,218.0000256,-114.6666808,1,0,0,proceed,space,0.680095,space,4.332425,space,1.11275
