key_resp_8.keys,key_resp_8.rt,key_resp_9.keys,key_resp_9.rt,key_resp_10.keys,key_resp_10.rt,key_resp_11.keys,key_resp_11.rt,key_resp_2.keys,key_resp_2.rt,key_resp_3.keys,key_resp_3.rt,key_resp.keys,Feedback,train.thisRepN,train.thisTrialN,train.thisN,train.thisIndex,train.ran,torta_sx,torta_dx,difference,probability,age,gender,date,expName,psychopyVersion,OS,frameRate,participant,key_resp.rt,key_resp_15.keys,key_resp_15.rt,key_resp_6.keys,key_resp_6.rt,test1.thisRepN,test1.thisTrialN,test1.thisN,test1.thisIndex,test1.ran,key_resp_4.keys,key_resp_4.rt,key_resp_5.keys,back1.thisRepN,back1.thisTrialN,back1.thisN,back1.thisIndex,back1.ran,letter,key_resp_5.rt,back2.thisRepN,back2.thisTrialN,back2.thisN,back2.thisIndex,back2.ran,back3.thisRepN,back3.thisTrialN,back3.thisN,back3.thisIndex,back3.ran,back4.thisRepN,back4.thisTrialN,back4.thisN,back4.thisIndex,back4.ran,key_resp_7.keys,key_resp_7.rt,test2.thisRepN,test2.thisTrialN,test2.thisN,test2.thisIndex,test2.ran,mouse.x,mouse.y,mouse.leftButton,mouse.midButton,mouse.rightButton,mouse.clicked_name,mouse_2.x,mouse_2.y,mouse_2.leftButton,mouse_2.midButton,mouse_2.rightButton,mouse_2.clicked_name,mouse_3.x,mouse_3.y,mouse_3.leftButton,mouse_3.midButton,mouse_3.rightButton,mouse_3.clicked_name,key_resp_12.keys,key_resp_12.rt,key_resp_13.keys,key_resp_13.rt,key_resp_14.keys,key_resp_14.rt
space,167.778,space,12.028,space,14.432,space,12.031,space,141.118,h,320.852,,Too slow :(,0,0,0,56,1,t2.png,t3.png,1,0.90855,20,female,2020-07-28_15h33.02.191,torte-2b,2020.1.3,MacIntel,60,13284,,,,,,,,,,,,,,,,,,,,,,,,,,,,,,,,,,,,,,,,,,,,,,,,,,,,,,,,,,,,,,,,,,
,,,,,,,,,,,,l,Correct!,0,1,1,16,1,t1.png,t5.png,4,9.55E-11,20,female,2020-07-28_15h33.02.191,torte-2b,2020.1.3,MacIntel,60,13284,1.361,,,,,,,,,,,,,,,,,,,,,,,,,,,,,,,,,,,,,,,,,,,,,,,,,,,,,,,,,,,,,,,,,
,,,,,,,,,,,,l,Correct!,0,2,2,34,1,t1.png,t5.png,4,9.55E-11,20,female,2020-07-28_15h33.02.191,torte-2b,2020.1.3,MacIntel,60,13284,1.043,,,,,,,,,,,,,,,,,,,,,,,,,,,,,,,,,,,,,,,,,,,,,,,,,,,,,,,,,,,,,,,,,
,,,,,,,,,,,,l,Correct!,0,3,3,78,1,t1.png,t4.png,3,0.0000131,20,female,2020-07-28_15h33.02.191,torte-2b,2020.1.3,MacIntel,60,13284,0.617,,,,,,,,,,,,,,,,,,,,,,,,,,,,,,,,,,,,,,,,,,,,,,,,,,,,,,,,,,,,,,,,,
,,,,,,,,,,,,a,Incorrect,0,4,4,1,1,t3.png,t1.png,2,0.056466,20,female,2020-07-28_15h33.02.191,torte-2b,2020.1.3,MacIntel,60,13284,0.671,,,,,,,,,,,,,,,,,,,,,,,,,,,,,,,,,,,,,,,,,,,,,,,,,,,,,,,,,,,,,,,,,
,,,,,,,,,,,,a,Incorrect,0,5,5,81,1,t3.png,t1.png,2,0.056466,20,female,2020-07-28_15h33.02.191,torte-2b,2020.1.3,MacIntel,60,13284,0.565,,,,,,,,,,,,,,,,,,,,,,,,,,,,,,,,,,,,,,,,,,,,,,,,,,,,,,,,,,,,,,,,,
,,,,,,,,,,,,a,Incorrect,0,6,6,103,1,t4.png,t1.png,3,0.059078,20,female,2020-07-28_15h33.02.191,torte-2b,2020.1.3,MacIntel,60,13284,1.132,,,,,,,,,,,,,,,,,,,,,,,,,,,,,,,,,,,,,,,,,,,,,,,,,,,,,,,,,,,,,,,,,
,,,,,,,,,,,,,Too slow :(,0,7,7,69,1,t5.png,t4.png,1,0.90025,20,female,2020-07-28_15h33.02.191,torte-2b,2020.1.3,MacIntel,60,13284,,,,,,,,,,,,,,,,,,,,,,,,,,,,,,,,,,,,,,,,,,,,,,,,,,,,,,,,,,,,,,,,,,
,,,,,,,,,,,,l,Correct!,0,8,8,36,1,t1.png,t4.png,3,0.0000131,20,female,2020-07-28_15h33.02.191,torte-2b,2020.1.3,MacIntel,60,13284,1.856,,,,,,,,,,,,,,,,,,,,,,,,,,,,,,,,,,,,,,,,,,,,,,,,,,,,,,,,,,,,,,,,,
,,,,,,,,,,,,a,Incorrect,0,9,9,17,1,t4.png,t1.png,3,0.059078,20,female,2020-07-28_15h33.02.191,torte-2b,2020.1.3,MacIntel,60,13284,1.571,,,,,,,,,,,,,,,,,,,,,,,,,,,,,,,,,,,,,,,,,,,,,,,,,,,,,,,,,,,,,,,,,
,,,,,,,,,,,,l,Incorrect,0,10,10,30,1,t2.png,t3.png,1,0.90855,20,female,2020-07-28_15h33.02.191,torte-2b,2020.1.3,MacIntel,60,13284,1.354,,,,,,,,,,,,,,,,,,,,,,,,,,,,,,,,,,,,,,,,,,,,,,,,,,,,,,,,,,,,,,,,,
,,,,,,,,,,,,a,Incorrect,0,11,11,105,1,t4.png,t1.png,3,0.059078,20,female,2020-07-28_15h33.02.191,torte-2b,2020.1.3,MacIntel,60,13284,1.266,,,,,,,,,,,,,,,,,,,,,,,,,,,,,,,,,,,,,,,,,,,,,,,,,,,,,,,,,,,,,,,,,
,,,,,,,,,,,,a,Correct!,0,12,12,33,1,t3.png,t2.png,1,0.90855,20,female,2020-07-28_15h33.02.191,torte-2b,2020.1.3,MacIntel,60,13284,2.363,,,,,,,,,,,,,,,,,,,,,,,,,,,,,,,,,,,,,,,,,,,,,,,,,,,,,,,,,,,,,,,,,
,,,,,,,,,,,,a,Incorrect,0,13,13,76,1,t4.png,t1.png,3,0.059078,20,female,2020-07-28_15h33.02.191,torte-2b,2020.1.3,MacIntel,60,13284,1.288,,,,,,,,,,,,,,,,,,,,,,,,,,,,,,,,,,,,,,,,,,,,,,,,,,,,,,,,,,,,,,,,,
,,,,,,,,,,,,l,Correct!,0,14,14,107,1,t1.png,t4.png,3,0.0000131,20,female,2020-07-28_15h33.02.191,torte-2b,2020.1.3,MacIntel,60,13284,2.447,,,,,,,,,,,,,,,,,,,,,,,,,,,,,,,,,,,,,,,,,,,,,,,,,,,,,,,,,,,,,,,,,
,,,,,,,,,,,,a,Incorrect,0,15,15,54,1,t3.png,t1.png,2,0.056466,20,female,2020-07-28_15h33.02.191,torte-2b,2020.1.3,MacIntel,60,13284,1.249,,,,,,,,,,,,,,,,,,,,,,,,,,,,,,,,,,,,,,,,,,,,,,,,,,,,,,,,,,,,,,,,,
,,,,,,,,,,,,l,Correct!,0,16,16,63,1,t1.png,t5.png,4,9.55E-11,20,female,2020-07-28_15h33.02.191,torte-2b,2020.1.3,MacIntel,60,13284,1.014,,,,,,,,,,,,,,,,,,,,,,,,,,,,,,,,,,,,,,,,,,,,,,,,,,,,,,,,,,,,,,,,,
,,,,,,,,,,,,a,Correct!,0,17,17,83,1,t3.png,t2.png,1,0.90855,20,female,2020-07-28_15h33.02.191,torte-2b,2020.1.3,MacIntel,60,13284,1.649,,,,,,,,,,,,,,,,,,,,,,,,,,,,,,,,,,,,,,,,,,,,,,,,,,,,,,,,,,,,,,,,,
,,,,,,,,,,,,a,Incorrect,0,18,18,3,1,t4.png,t1.png,3,0.059078,20,female,2020-07-28_15h33.02.191,torte-2b,2020.1.3,MacIntel,60,13284,1.419,,,,,,,,,,,,,,,,,,,,,,,,,,,,,,,,,,,,,,,,,,,,,,,,,,,,,,,,,,,,,,,,,
,,,,,,,,,,,,a,Correct!,0,19,19,108,1,t3.png,t1.png,2,0.056466,20,female,2020-07-28_15h33.02.191,torte-2b,2020.1.3,MacIntel,60,13284,1.346,,,,,,,,,,,,,,,,,,,,,,,,,,,,,,,,,,,,,,,,,,,,,,,,,,,,,,,,,,,,,,,,,
,,,,,,,,,,,,a,Correct!,0,20,20,67,1,t3.png,t2.png,1,0.90855,20,female,2020-07-28_15h33.02.191,torte-2b,2020.1.3,MacIntel,60,13284,1.089,,,,,,,,,,,,,,,,,,,,,,,,,,,,,,,,,,,,,,,,,,,,,,,,,,,,,,,,,,,,,,,,,
,,,,,,,,,,,,a,Correct!,0,21,21,100,1,t3.png,t2.png,1,0.90855,20,female,2020-07-28_15h33.02.191,torte-2b,2020.1.3,MacIntel,60,13284,1.531,,,,,,,,,,,,,,,,,,,,,,,,,,,,,,,,,,,,,,,,,,,,,,,,,,,,,,,,,,,,,,,,,
,,,,,,,,,,,,a,Correct!,0,22,22,32,1,t3.png,t2.png,1,0.90855,20,female,2020-07-28_15h33.02.191,torte-2b,2020.1.3,MacIntel,60,13284,1.289,,,,,,,,,,,,,,,,,,,,,,,,,,,,,,,,,,,,,,,,,,,,,,,,,,,,,,,,,,,,,,,,,
,,,,,,,,,,,,a,Incorrect,0,23,23,73,1,t3.png,t1.png,2,0.056466,20,female,2020-07-28_15h33.02.191,torte-2b,2020.1.3,MacIntel,60,13284,0.59,,,,,,,,,,,,,,,,,,,,,,,,,,,,,,,,,,,,,,,,,,,,,,,,,,,,,,,,,,,,,,,,,
,,,,,,,,,,,,a,Correct!,0,24,24,119,1,t5.png,t4.png,1,0.90025,20,female,2020-07-28_15h33.02.191,torte-2b,2020.1.3,MacIntel,60,13284,2.316,,,,,,,,,,,,,,,,,,,,,,,,,,,,,,,,,,,,,,,,,,,,,,,,,,,,,,,,,,,,,,,,,
,,,,,,,,,,,,,Too slow :(,0,25,25,53,1,t1.png,t1.png,0,0.97829,20,female,2020-07-28_15h33.02.191,torte-2b,2020.1.3,MacIntel,60,13284,,,,,,,,,,,,,,,,,,,,,,,,,,,,,,,,,,,,,,,,,,,,,,,,,,,,,,,,,,,,,,,,,,
,,,,,,,,,,,,l,Correct!,0,26,26,115,1,t2.png,t4.png,2,0.059078,20,female,2020-07-28_15h33.02.191,torte-2b,2020.1.3,MacIntel,60,13284,0.632,,,,,,,,,,,,,,,,,,,,,,,,,,,,,,,,,,,,,,,,,,,,,,,,,,,,,,,,,,,,,,,,,
,,,,,,,,,,,,l,Correct!,0,27,27,62,1,t1.png,t4.png,3,0.0000131,20,female,2020-07-28_15h33.02.191,torte-2b,2020.1.3,MacIntel,60,13284,1.165,,,,,,,,,,,,,,,,,,,,,,,,,,,,,,,,,,,,,,,,,,,,,,,,,,,,,,,,,,,,,,,,,
,,,,,,,,,,,,a,Incorrect,0,28,28,114,1,t5.png,t4.png,1,0.90025,20,female,2020-07-28_15h33.02.191,torte-2b,2020.1.3,MacIntel,60,13284,1.628,,,,,,,,,,,,,,,,,,,,,,,,,,,,,,,,,,,,,,,,,,,,,,,,,,,,,,,,,,,,,,,,,
,,,,,,,,,,,,a,Incorrect,0,29,29,87,1,t5.png,t1.png,4,9.55E-11,20,female,2020-07-28_15h33.02.191,torte-2b,2020.1.3,MacIntel,60,13284,2.123,,,,,,,,,,,,,,,,,,,,,,,,,,,,,,,,,,,,,,,,,,,,,,,,,,,,,,,,,,,,,,,,,
,,,,,,,,,,,,l,Incorrect,0,30,30,46,1,t1.png,t1.png,0,0.97829,20,female,2020-07-28_15h33.02.191,torte-2b,2020.1.3,MacIntel,60,13284,2.106,,,,,,,,,,,,,,,,,,,,,,,,,,,,,,,,,,,,,,,,,,,,,,,,,,,,,,,,,,,,,,,,,
,,,,,,,,,,,,l,Correct!,0,31,31,37,1,t2.png,t4.png,2,0.059078,20,female,2020-07-28_15h33.02.191,torte-2b,2020.1.3,MacIntel,60,13284,0.861,,,,,,,,,,,,,,,,,,,,,,,,,,,,,,,,,,,,,,,,,,,,,,,,,,,,,,,,,,,,,,,,,
,,,,,,,,,,,,l,Incorrect,0,32,32,110,1,t4.png,t5.png,1,0.90025,20,female,2020-07-28_15h33.02.191,torte-2b,2020.1.3,MacIntel,60,13284,1.218,,,,,,,,,,,,,,,,,,,,,,,,,,,,,,,,,,,,,,,,,,,,,,,,,,,,,,,,,,,,,,,,,
,,,,,,,,,,,,a,Correct!,0,33,33,93,1,t5.png,t4.png,1,0.90025,20,female,2020-07-28_15h33.02.191,torte-2b,2020.1.3,MacIntel,60,13284,1.716,,,,,,,,,,,,,,,,,,,,,,,,,,,,,,,,,,,,,,,,,,,,,,,,,,,,,,,,,,,,,,,,,
,,,,,,,,,,,,a,Incorrect,0,34,34,106,1,t4.png,t1.png,3,0.059078,20,female,2020-07-28_15h33.02.191,torte-2b,2020.1.3,MacIntel,60,13284,0.638,,,,,,,,,,,,,,,,,,,,,,,,,,,,,,,,,,,,,,,,,,,,,,,,,,,,,,,,,,,,,,,,,
,,,,,,,,,,,,a,Incorrect,0,35,35,6,1,t5.png,t1.png,4,9.55E-11,20,female,2020-07-28_15h33.02.191,torte-2b,2020.1.3,MacIntel,60,13284,0.661,,,,,,,,,,,,,,,,,,,,,,,,,,,,,,,,,,,,,,,,,,,,,,,,,,,,,,,,,,,,,,,,,
,,,,,,,,,,,,l,Correct!,0,36,36,45,1,t4.png,t5.png,1,0.90025,20,female,2020-07-28_15h33.02.191,torte-2b,2020.1.3,MacIntel,60,13284,2.404,,,,,,,,,,,,,,,,,,,,,,,,,,,,,,,,,,,,,,,,,,,,,,,,,,,,,,,,,,,,,,,,,
,,,,,,,,,,,,l,Correct!,0,37,37,27,1,t1.png,t5.png,4,9.55E-11,20,female,2020-07-28_15h33.02.191,torte-2b,2020.1.3,MacIntel,60,13284,1.824,,,,,,,,,,,,,,,,,,,,,,,,,,,,,,,,,,,,,,,,,,,,,,,,,,,,,,,,,,,,,,,,,
,,,,,,,,,,,,,Too slow :(,0,38,38,82,1,t3.png,t1.png,2,0.056466,20,female,2020-07-28_15h33.02.191,torte-2b,2020.1.3,MacIntel,60,13284,,,,,,,,,,,,,,,,,,,,,,,,,,,,,,,,,,,,,,,,,,,,,,,,,,,,,,,,,,,,,,,,,,
,,,,,,,,,,,,a,Correct!,0,39,39,101,1,t5.png,t4.png,1,0.90025,20,female,2020-07-28_15h33.02.191,torte-2b,2020.1.3,MacIntel,60,13284,1.19,,,,,,,,,,,,,,,,,,,,,,,,,,,,,,,,,,,,,,,,,,,,,,,,,,,,,,,,,,,,,,,,,
,,,,,,,,,,,,,Too slow :(,0,40,40,116,1,t4.png,t5.png,1,0.90025,20,female,2020-07-28_15h33.02.191,torte-2b,2020.1.3,MacIntel,60,13284,,,,,,,,,,,,,,,,,,,,,,,,,,,,,,,,,,,,,,,,,,,,,,,,,,,,,,,,,,,,,,,,,,
,,,,,,,,,,,,l,Correct!,0,41,41,95,1,t1.png,t4.png,3,0.0000131,20,female,2020-07-28_15h33.02.191,torte-2b,2020.1.3,MacIntel,60,13284,0.841,,,,,,,,,,,,,,,,,,,,,,,,,,,,,,,,,,,,,,,,,,,,,,,,,,,,,,,,,,,,,,,,,
,,,,,,,,,,,,a,Incorrect,0,42,42,92,1,t5.png,t1.png,4,9.55E-11,20,female,2020-07-28_15h33.02.191,torte-2b,2020.1.3,MacIntel,60,13284,1.002,,,,,,,,,,,,,,,,,,,,,,,,,,,,,,,,,,,,,,,,,,,,,,,,,,,,,,,,,,,,,,,,,
,,,,,,,,,,,,l,Incorrect,0,43,43,111,1,t1.png,t1.png,0,0.97829,20,female,2020-07-28_15h33.02.191,torte-2b,2020.1.3,MacIntel,60,13284,0.911,,,,,,,,,,,,,,,,,,,,,,,,,,,,,,,,,,,,,,,,,,,,,,,,,,,,,,,,,,,,,,,,,
,,,,,,,,,,,,l,Incorrect,0,44,44,71,1,t4.png,t5.png,1,0.90025,20,female,2020-07-28_15h33.02.191,torte-2b,2020.1.3,MacIntel,60,13284,1.4,,,,,,,,,,,,,,,,,,,,,,,,,,,,,,,,,,,,,,,,,,,,,,,,,,,,,,,,,,,,,,,,,
,,,,,,,,,,,,l,Incorrect,0,45,45,22,1,t5.png,t5.png,0,0.97829,20,female,2020-07-28_15h33.02.191,torte-2b,2020.1.3,MacIntel,60,13284,1.257,,,,,,,,,,,,,,,,,,,,,,,,,,,,,,,,,,,,,,,,,,,,,,,,,,,,,,,,,,,,,,,,,
,,,,,,,,,,,,l,Correct!,0,46,46,96,1,t2.png,t4.png,2,0.059078,20,female,2020-07-28_15h33.02.191,torte-2b,2020.1.3,MacIntel,60,13284,1.234,,,,,,,,,,,,,,,,,,,,,,,,,,,,,,,,,,,,,,,,,,,,,,,,,,,,,,,,,,,,,,,,,
,,,,,,,,,,,,a,Incorrect,0,47,47,49,1,t5.png,t1.png,4,9.55E-11,20,female,2020-07-28_15h33.02.191,torte-2b,2020.1.3,MacIntel,60,13284,0.474,,,,,,,,,,,,,,,,,,,,,,,,,,,,,,,,,,,,,,,,,,,,,,,,,,,,,,,,,,,,,,,,,
,,,,,,,,,,,,l,Incorrect,0,48,48,8,1,t5.png,t5.png,0,0.97829,20,female,2020-07-28_15h33.02.191,torte-2b,2020.1.3,MacIntel,60,13284,0.918,,,,,,,,,,,,,,,,,,,,,,,,,,,,,,,,,,,,,,,,,,,,,,,,,,,,,,,,,,,,,,,,,
,,,,,,,,,,,,,Too slow :(,0,49,49,44,1,t1.png,t4.png,3,0.0000131,20,female,2020-07-28_15h33.02.191,torte-2b,2020.1.3,MacIntel,60,13284,,,,,,,,,,,,,,,,,,,,,,,,,,,,,,,,,,,,,,,,,,,,,,,,,,,,,,,,,,,,,,,,,,
,,,,,,,,,,,,l,Incorrect,0,50,50,24,1,t5.png,t5.png,0,0.97829,20,female,2020-07-28_15h33.02.191,torte-2b,2020.1.3,MacIntel,60,13284,1.15,,,,,,,,,,,,,,,,,,,,,,,,,,,,,,,,,,,,,,,,,,,,,,,,,,,,,,,,,,,,,,,,,
,,,,,,,,,,,,l,Incorrect,0,51,51,20,1,t5.png,t5.png,0,0.97829,20,female,2020-07-28_15h33.02.191,torte-2b,2020.1.3,MacIntel,60,13284,0.632,,,,,,,,,,,,,,,,,,,,,,,,,,,,,,,,,,,,,,,,,,,,,,,,,,,,,,,,,,,,,,,,,
,,,,,,,,,,,,a,Incorrect,0,52,52,0,1,t3.png,t2.png,1,0.90855,20,female,2020-07-28_15h33.02.191,torte-2b,2020.1.3,MacIntel,60,13284,0.922,,,,,,,,,,,,,,,,,,,,,,,,,,,,,,,,,,,,,,,,,,,,,,,,,,,,,,,,,,,,,,,,,
,,,,,,,,,,,,l,Correct!,0,53,53,50,1,t1.png,t5.png,4,9.55E-11,20,female,2020-07-28_15h33.02.191,torte-2b,2020.1.3,MacIntel,60,13284,0.489,,,,,,,,,,,,,,,,,,,,,,,,,,,,,,,,,,,,,,,,,,,,,,,,,,,,,,,,,,,,,,,,,
,,,,,,,,,,,,l,Incorrect,0,54,54,60,1,t4.png,t5.png,1,0.90025,20,female,2020-07-28_15h33.02.191,torte-2b,2020.1.3,MacIntel,60,13284,1.371,,,,,,,,,,,,,,,,,,,,,,,,,,,,,,,,,,,,,,,,,,,,,,,,,,,,,,,,,,,,,,,,,
,,,,,,,,,,,,l,Incorrect,0,55,55,14,1,t2.png,t3.png,1,0.90855,20,female,2020-07-28_15h33.02.191,torte-2b,2020.1.3,MacIntel,60,13284,0.703,,,,,,,,,,,,,,,,,,,,,,,,,,,,,,,,,,,,,,,,,,,,,,,,,,,,,,,,,,,,,,,,,
,,,,,,,,,,,,a,Incorrect,0,56,56,2,1,t3.png,t1.png,2,0.056466,20,female,2020-07-28_15h33.02.191,torte-2b,2020.1.3,MacIntel,60,13284,0.942,,,,,,,,,,,,,,,,,,,,,,,,,,,,,,,,,,,,,,,,,,,,,,,,,,,,,,,,,,,,,,,,,
,,,,,,,,,,,,l,Incorrect,0,57,57,97,1,t1.png,t1.png,0,0.97829,20,female,2020-07-28_15h33.02.191,torte-2b,2020.1.3,MacIntel,60,13284,0.865,,,,,,,,,,,,,,,,,,,,,,,,,,,,,,,,,,,,,,,,,,,,,,,,,,,,,,,,,,,,,,,,,
,,,,,,,,,,,,a,Incorrect,0,58,58,80,1,t4.png,t1.png,3,0.059078,20,female,2020-07-28_15h33.02.191,torte-2b,2020.1.3,MacIntel,60,13284,0.417,,,,,,,,,,,,,,,,,,,,,,,,,,,,,,,,,,,,,,,,,,,,,,,,,,,,,,,,,,,,,,,,,
,,,,,,,,,,,,a,Correct!,0,59,59,29,1,t3.png,t2.png,1,0.90855,20,female,2020-07-28_15h33.02.191,torte-2b,2020.1.3,MacIntel,60,13284,0.473,,,,,,,,,,,,,,,,,,,,,,,,,,,,,,,,,,,,,,,,,,,,,,,,,,,,,,,,,,,,,,,,,
,,,,,,,,,,,,a,Incorrect,0,60,60,64,1,t5.png,t1.png,4,9.55E-11,20,female,2020-07-28_15h33.02.191,torte-2b,2020.1.3,MacIntel,60,13284,0.403,,,,,,,,,,,,,,,,,,,,,,,,,,,,,,,,,,,,,,,,,,,,,,,,,,,,,,,,,,,,,,,,,
,,,,,,,,,,,,l,Incorrect,0,61,61,84,1,t2.png,t3.png,1,0.90855,20,female,2020-07-28_15h33.02.191,torte-2b,2020.1.3,MacIntel,60,13284,0.671,,,,,,,,,,,,,,,,,,,,,,,,,,,,,,,,,,,,,,,,,,,,,,,,,,,,,,,,,,,,,,,,,
,,,,,,,,,,,,a,Incorrect,0,62,62,113,1,t5.png,t1.png,4,9.55E-11,20,female,2020-07-28_15h33.02.191,torte-2b,2020.1.3,MacIntel,60,13284,0.401,,,,,,,,,,,,,,,,,,,,,,,,,,,,,,,,,,,,,,,,,,,,,,,,,,,,,,,,,,,,,,,,,
,,,,,,,,,,,,a,Correct!,0,63,63,86,1,t5.png,t4.png,1,0.90025,20,female,2020-07-28_15h33.02.191,torte-2b,2020.1.3,MacIntel,60,13284,1.366,,,,,,,,,,,,,,,,,,,,,,,,,,,,,,,,,,,,,,,,,,,,,,,,,,,,,,,,,,,,,,,,,
,,,,,,,,,,,,a,Incorrect,0,64,64,98,1,t5.png,t1.png,4,9.55E-11,20,female,2020-07-28_15h33.02.191,torte-2b,2020.1.3,MacIntel,60,13284,0.442,,,,,,,,,,,,,,,,,,,,,,,,,,,,,,,,,,,,,,,,,,,,,,,,,,,,,,,,,,,,,,,,,
,,,,,,,,,,,,l,Correct!,0,65,65,28,1,t1.png,t4.png,3,0.0000131,20,female,2020-07-28_15h33.02.191,torte-2b,2020.1.3,MacIntel,60,13284,0.755,,,,,,,,,,,,,,,,,,,,,,,,,,,,,,,,,,,,,,,,,,,,,,,,,,,,,,,,,,,,,,,,,
,,,,,,,,,,,,l,Incorrect,0,66,66,104,1,t4.png,t5.png,1,0.90025,20,female,2020-07-28_15h33.02.191,torte-2b,2020.1.3,MacIntel,60,13284,0.786,,,,,,,,,,,,,,,,,,,,,,,,,,,,,,,,,,,,,,,,,,,,,,,,,,,,,,,,,,,,,,,,,
,,,,,,,,,,,,l,Incorrect,0,67,67,15,1,t2.png,t3.png,1,0.90855,20,female,2020-07-28_15h33.02.191,torte-2b,2020.1.3,MacIntel,60,13284,0.839,,,,,,,,,,,,,,,,,,,,,,,,,,,,,,,,,,,,,,,,,,,,,,,,,,,,,,,,,,,,,,,,,
,,,,,,,,,,,,l,Correct!,0,68,68,40,1,t2.png,t4.png,2,0.059078,20,female,2020-07-28_15h33.02.191,torte-2b,2020.1.3,MacIntel,60,13284,0.548,,,,,,,,,,,,,,,,,,,,,,,,,,,,,,,,,,,,,,,,,,,,,,,,,,,,,,,,,,,,,,,,,
,,,,,,,,,,,,l,Correct!,0,69,69,70,1,t1.png,t5.png,4,9.55E-11,20,female,2020-07-28_15h33.02.191,torte-2b,2020.1.3,MacIntel,60,13284,0.499,,,,,,,,,,,,,,,,,,,,,,,,,,,,,,,,,,,,,,,,,,,,,,,,,,,,,,,,,,,,,,,,,
,,,,,,,,,,,,a,Correct!,0,70,70,21,1,t5.png,t4.png,1,0.90025,20,female,2020-07-28_15h33.02.191,torte-2b,2020.1.3,MacIntel,60,13284,1.683,,,,,,,,,,,,,,,,,,,,,,,,,,,,,,,,,,,,,,,,,,,,,,,,,,,,,,,,,,,,,,,,,
,,,,,,,,,,,,l,Incorrect,0,71,71,90,1,t4.png,t5.png,1,0.90025,20,female,2020-07-28_15h33.02.191,torte-2b,2020.1.3,MacIntel,60,13284,1.322,,,,,,,,,,,,,,,,,,,,,,,,,,,,,,,,,,,,,,,,,,,,,,,,,,,,,,,,,,,,,,,,,
,,,,,,,,,,,,l,Incorrect,0,72,72,61,1,t1.png,t1.png,0,0.97829,20,female,2020-07-28_15h33.02.191,torte-2b,2020.1.3,MacIntel,60,13284,0.921,,,,,,,,,,,,,,,,,,,,,,,,,,,,,,,,,,,,,,,,,,,,,,,,,,,,,,,,,,,,,,,,,
,,,,,,,,,,,,a,Correct!,0,73,73,7,1,t3.png,t2.png,1,0.90855,20,female,2020-07-28_15h33.02.191,torte-2b,2020.1.3,MacIntel,60,13284,0.598,,,,,,,,,,,,,,,,,,,,,,,,,,,,,,,,,,,,,,,,,,,,,,,,,,,,,,,,,,,,,,,,,
,,,,,,,,,,,,l,Correct!,0,74,74,68,1,t2.png,t4.png,2,0.059078,20,female,2020-07-28_15h33.02.191,torte-2b,2020.1.3,MacIntel,60,13284,0.915,,,,,,,,,,,,,,,,,,,,,,,,,,,,,,,,,,,,,,,,,,,,,,,,,,,,,,,,,,,,,,,,,
,,,,,,,,,,,,l,Incorrect,0,75,75,5,1,t5.png,t5.png,0,0.97829,20,female,2020-07-28_15h33.02.191,torte-2b,2020.1.3,MacIntel,60,13284,0.924,,,,,,,,,,,,,,,,,,,,,,,,,,,,,,,,,,,,,,,,,,,,,,,,,,,,,,,,,,,,,,,,,
,,,,,,,,,,,,a,Incorrect,0,76,76,51,1,t4.png,t1.png,3,0.059078,20,female,2020-07-28_15h33.02.191,torte-2b,2020.1.3,MacIntel,60,13284,0.487,,,,,,,,,,,,,,,,,,,,,,,,,,,,,,,,,,,,,,,,,,,,,,,,,,,,,,,,,,,,,,,,,
,,,,,,,,,,,,,Too slow :(,0,77,77,91,1,t5.png,t4.png,1,0.90025,20,female,2020-07-28_15h33.02.191,torte-2b,2020.1.3,MacIntel,60,13284,,,,,,,,,,,,,,,,,,,,,,,,,,,,,,,,,,,,,,,,,,,,,,,,,,,,,,,,,,,,,,,,,,
,,,,,,,,,,,,l,Correct!,0,78,78,18,1,t2.png,t3.png,1,0.90855,20,female,2020-07-28_15h33.02.191,torte-2b,2020.1.3,MacIntel,60,13284,0.724,,,,,,,,,,,,,,,,,,,,,,,,,,,,,,,,,,,,,,,,,,,,,,,,,,,,,,,,,,,,,,,,,
,,,,,,,,,,,,a,Correct!,0,79,79,55,1,t1.png,t1.png,0,0.97829,20,female,2020-07-28_15h33.02.191,torte-2b,2020.1.3,MacIntel,60,13284,1.105,,,,,,,,,,,,,,,,,,,,,,,,,,,,,,,,,,,,,,,,,,,,,,,,,,,,,,,,,,,,,,,,,
,,,,,,,,,,,,l,Incorrect,0,80,80,48,1,t2.png,t3.png,1,0.90855,20,female,2020-07-28_15h33.02.191,torte-2b,2020.1.3,MacIntel,60,13284,1.956,,,,,,,,,,,,,,,,,,,,,,,,,,,,,,,,,,,,,,,,,,,,,,,,,,,,,,,,,,,,,,,,,
,,,,,,,,,,,,l,Incorrect,0,81,81,52,1,t2.png,t3.png,1,0.90855,20,female,2020-07-28_15h33.02.191,torte-2b,2020.1.3,MacIntel,60,13284,0.857,,,,,,,,,,,,,,,,,,,,,,,,,,,,,,,,,,,,,,,,,,,,,,,,,,,,,,,,,,,,,,,,,
,,,,,,,,,,,,a,Incorrect,0,82,82,94,1,t3.png,t1.png,2,0.056466,20,female,2020-07-28_15h33.02.191,torte-2b,2020.1.3,MacIntel,60,13284,0.433,,,,,,,,,,,,,,,,,,,,,,,,,,,,,,,,,,,,,,,,,,,,,,,,,,,,,,,,,,,,,,,,,
,,,,,,,,,,,,l,Correct!,0,83,83,102,1,t2.png,t4.png,2,0.059078,20,female,2020-07-28_15h33.02.191,torte-2b,2020.1.3,MacIntel,60,13284,0.44,,,,,,,,,,,,,,,,,,,,,,,,,,,,,,,,,,,,,,,,,,,,,,,,,,,,,,,,,,,,,,,,,
,,,,,,,,,,,,a,Correct!,0,84,84,85,1,t5.png,t4.png,1,0.90025,20,female,2020-07-28_15h33.02.191,torte-2b,2020.1.3,MacIntel,60,13284,0.648,,,,,,,,,,,,,,,,,,,,,,,,,,,,,,,,,,,,,,,,,,,,,,,,,,,,,,,,,,,,,,,,,
,,,,,,,,,,,,l,Correct!,0,85,85,118,1,t1.png,t5.png,4,9.55E-11,20,female,2020-07-28_15h33.02.191,torte-2b,2020.1.3,MacIntel,60,13284,0.503,,,,,,,,,,,,,,,,,,,,,,,,,,,,,,,,,,,,,,,,,,,,,,,,,,,,,,,,,,,,,,,,,
,,,,,,,,,,,,a,Correct!,0,86,86,65,1,t5.png,t5.png,0,0.97829,20,female,2020-07-28_15h33.02.191,torte-2b,2020.1.3,MacIntel,60,13284,2.099,,,,,,,,,,,,,,,,,,,,,,,,,,,,,,,,,,,,,,,,,,,,,,,,,,,,,,,,,,,,,,,,,
,,,,,,,,,,,,a,Correct!,0,87,87,72,1,t5.png,t5.png,0,0.97829,20,female,2020-07-28_15h33.02.191,torte-2b,2020.1.3,MacIntel,60,13284,0.587,,,,,,,,,,,,,,,,,,,,,,,,,,,,,,,,,,,,,,,,,,,,,,,,,,,,,,,,,,,,,,,,,
,,,,,,,,,,,,l,Correct!,0,88,88,117,1,t2.png,t4.png,2,0.059078,20,female,2020-07-28_15h33.02.191,torte-2b,2020.1.3,MacIntel,60,13284,1.169,,,,,,,,,,,,,,,,,,,,,,,,,,,,,,,,,,,,,,,,,,,,,,,,,,,,,,,,,,,,,,,,,
,,,,,,,,,,,,a,Incorrect,0,89,89,57,1,t3.png,t1.png,2,0.056466,20,female,2020-07-28_15h33.02.191,torte-2b,2020.1.3,MacIntel,60,13284,0.69,,,,,,,,,,,,,,,,,,,,,,,,,,,,,,,,,,,,,,,,,,,,,,,,,,,,,,,,,,,,,,,,,
,,,,,,,,,,,,l,Correct!,0,90,90,79,1,t1.png,t4.png,3,0.0000131,20,female,2020-07-28_15h33.02.191,torte-2b,2020.1.3,MacIntel,60,13284,0.556,,,,,,,,,,,,,,,,,,,,,,,,,,,,,,,,,,,,,,,,,,,,,,,,,,,,,,,,,,,,,,,,,
,,,,,,,,,,,,a,Correct!,0,91,91,88,1,t1.png,t1.png,0,0.97829,20,female,2020-07-28_15h33.02.191,torte-2b,2020.1.3,MacIntel,60,13284,0.632,,,,,,,,,,,,,,,,,,,,,,,,,,,,,,,,,,,,,,,,,,,,,,,,,,,,,,,,,,,,,,,,,
,,,,,,,,,,,,l,Correct!,0,92,92,35,1,t1.png,t4.png,3,0.0000131,20,female,2020-07-28_15h33.02.191,torte-2b,2020.1.3,MacIntel,60,13284,0.457,,,,,,,,,,,,,,,,,,,,,,,,,,,,,,,,,,,,,,,,,,,,,,,,,,,,,,,,,,,,,,,,,
,,,,,,,,,,,,a,Incorrect,0,93,93,10,1,t4.png,t1.png,3,0.059078,20,female,2020-07-28_15h33.02.191,torte-2b,2020.1.3,MacIntel,60,13284,0.702,,,,,,,,,,,,,,,,,,,,,,,,,,,,,,,,,,,,,,,,,,,,,,,,,,,,,,,,,,,,,,,,,
,,,,,,,,,,,,l,Incorrect,0,94,94,109,1,t5.png,t5.png,0,0.97829,20,female,2020-07-28_15h33.02.191,torte-2b,2020.1.3,MacIntel,60,13284,1.057,,,,,,,,,,,,,,,,,,,,,,,,,,,,,,,,,,,,,,,,,,,,,,,,,,,,,,,,,,,,,,,,,
,,,,,,,,,,,,a,Correct!,0,95,95,12,1,t5.png,t5.png,0,0.97829,20,female,2020-07-28_15h33.02.191,torte-2b,2020.1.3,MacIntel,60,13284,0.386,,,,,,,,,,,,,,,,,,,,,,,,,,,,,,,,,,,,,,,,,,,,,,,,,,,,,,,,,,,,,,,,,
,,,,,,,,,,,,a,Incorrect,0,96,96,74,1,t5.png,t1.png,4,9.55E-11,20,female,2020-07-28_15h33.02.191,torte-2b,2020.1.3,MacIntel,60,13284,0.381,,,,,,,,,,,,,,,,,,,,,,,,,,,,,,,,,,,,,,,,,,,,,,,,,,,,,,,,,,,,,,,,,
,,,,,,,,,,,,l,Correct!,0,97,97,26,1,t1.png,t5.png,4,9.55E-11,20,female,2020-07-28_15h33.02.191,torte-2b,2020.1.3,MacIntel,60,13284,0.5,,,,,,,,,,,,,,,,,,,,,,,,,,,,,,,,,,,,,,,,,,,,,,,,,,,,,,,,,,,,,,,,,
,,,,,,,,,,,,l,Incorrect,0,98,98,41,1,t4.png,t5.png,1,0.90025,20,female,2020-07-28_15h33.02.191,torte-2b,2020.1.3,MacIntel,60,13284,0.707,,,,,,,,,,,,,,,,,,,,,,,,,,,,,,,,,,,,,,,,,,,,,,,,,,,,,,,,,,,,,,,,,
,,,,,,,,,,,,l,Incorrect,0,99,99,47,1,t2.png,t3.png,1,0.90855,20,female,2020-07-28_15h33.02.191,torte-2b,2020.1.3,MacIntel,60,13284,0.749,,,,,,,,,,,,,,,,,,,,,,,,,,,,,,,,,,,,,,,,,,,,,,,,,,,,,,,,,,,,,,,,,
,,,,,,,,,,,,l,Incorrect,0,100,100,58,1,t4.png,t5.png,1,0.90025,20,female,2020-07-28_15h33.02.191,torte-2b,2020.1.3,MacIntel,60,13284,0.447,,,,,,,,,,,,,,,,,,,,,,,,,,,,,,,,,,,,,,,,,,,,,,,,,,,,,,,,,,,,,,,,,
,,,,,,,,,,,,l,Correct!,0,101,101,89,1,t1.png,t5.png,4,9.55E-11,20,female,2020-07-28_15h33.02.191,torte-2b,2020.1.3,MacIntel,60,13284,0.503,,,,,,,,,,,,,,,,,,,,,,,,,,,,,,,,,,,,,,,,,,,,,,,,,,,,,,,,,,,,,,,,,
,,,,,,,,,,,,a,Correct!,0,102,102,4,1,t3.png,t2.png,1,0.90855,20,female,2020-07-28_15h33.02.191,torte-2b,2020.1.3,MacIntel,60,13284,0.666,,,,,,,,,,,,,,,,,,,,,,,,,,,,,,,,,,,,,,,,,,,,,,,,,,,,,,,,,,,,,,,,,
,,,,,,,,,,,,l,Incorrect,0,103,103,25,1,t1.png,t1.png,0,0.97829,20,female,2020-07-28_15h33.02.191,torte-2b,2020.1.3,MacIntel,60,13284,0.608,,,,,,,,,,,,,,,,,,,,,,,,,,,,,,,,,,,,,,,,,,,,,,,,,,,,,,,,,,,,,,,,,
,,,,,,,,,,,,l,Correct!,0,104,104,19,1,t2.png,t4.png,2,0.059078,20,female,2020-07-28_15h33.02.191,torte-2b,2020.1.3,MacIntel,60,13284,0.398,,,,,,,,,,,,,,,,,,,,,,,,,,,,,,,,,,,,,,,,,,,,,,,,,,,,,,,,,,,,,,,,,
,,,,,,,,,,,,a,Incorrect,0,105,105,99,1,t4.png,t1.png,3,0.059078,20,female,2020-07-28_15h33.02.191,torte-2b,2020.1.3,MacIntel,60,13284,0.748,,,,,,,,,,,,,,,,,,,,,,,,,,,,,,,,,,,,,,,,,,,,,,,,,,,,,,,,,,,,,,,,,
,,,,,,,,,,,,a,Incorrect,0,106,106,66,1,t5.png,t1.png,4,9.55E-11,20,female,2020-07-28_15h33.02.191,torte-2b,2020.1.3,MacIntel,60,13284,0.568,,,,,,,,,,,,,,,,,,,,,,,,,,,,,,,,,,,,,,,,,,,,,,,,,,,,,,,,,,,,,,,,,
,,,,,,,,,,,,l,Correct!,0,107,107,11,1,t1.png,t4.png,3,0.0000131,20,female,2020-07-28_15h33.02.191,torte-2b,2020.1.3,MacIntel,60,13284,0.59,,,,,,,,,,,,,,,,,,,,,,,,,,,,,,,,,,,,,,,,,,,,,,,,,,,,,,,,,,,,,,,,,
,,,,,,,,,,,,l,Incorrect,0,108,108,23,1,t4.png,t5.png,1,0.90025,20,female,2020-07-28_15h33.02.191,torte-2b,2020.1.3,MacIntel,60,13284,0.731,,,,,,,,,,,,,,,,,,,,,,,,,,,,,,,,,,,,,,,,,,,,,,,,,,,,,,,,,,,,,,,,,
,,,,,,,,,,,,l,Incorrect,0,109,109,31,1,t1.png,t1.png,0,0.97829,20,female,2020-07-28_15h33.02.191,torte-2b,2020.1.3,MacIntel,60,13284,0.932,,,,,,,,,,,,,,,,,,,,,,,,,,,,,,,,,,,,,,,,,,,,,,,,,,,,,,,,,,,,,,,,,
,,,,,,,,,,,,a,Incorrect,0,110,110,59,1,t5.png,t1.png,4,9.55E-11,20,female,2020-07-28_15h33.02.191,torte-2b,2020.1.3,MacIntel,60,13284,0.756,,,,,,,,,,,,,,,,,,,,,,,,,,,,,,,,,,,,,,,,,,,,,,,,,,,,,,,,,,,,,,,,,
,,,,,,,,,,,,a,Incorrect,0,111,111,43,1,t3.png,t1.png,2,0.056466,20,female,2020-07-28_15h33.02.191,torte-2b,2020.1.3,MacIntel,60,13284,0.39,,,,,,,,,,,,,,,,,,,,,,,,,,,,,,,,,,,,,,,,,,,,,,,,,,,,,,,,,,,,,,,,,
,,,,,,,,,,,,l,Correct!,0,112,112,13,1,t2.png,t4.png,2,0.059078,20,female,2020-07-28_15h33.02.191,torte-2b,2020.1.3,MacIntel,60,13284,0.503,,,,,,,,,,,,,,,,,,,,,,,,,,,,,,,,,,,,,,,,,,,,,,,,,,,,,,,,,,,,,,,,,
,,,,,,,,,,,,l,Correct!,0,113,113,39,1,t2.png,t4.png,2,0.059078,20,female,2020-07-28_15h33.02.191,torte-2b,2020.1.3,MacIntel,60,13284,0.389,,,,,,,,,,,,,,,,,,,,,,,,,,,,,,,,,,,,,,,,,,,,,,,,,,,,,,,,,,,,,,,,,
,,,,,,,,,,,,a,Correct!,0,114,114,38,1,t1.png,t1.png,0,0.97829,20,female,2020-07-28_15h33.02.191,torte-2b,2020.1.3,MacIntel,60,13284,0.47,,,,,,,,,,,,,,,,,,,,,,,,,,,,,,,,,,,,,,,,,,,,,,,,,,,,,,,,,,,,,,,,,
,,,,,,,,,,,,l,Incorrect,0,115,115,42,1,t5.png,t5.png,0,0.97829,20,female,2020-07-28_15h33.02.191,torte-2b,2020.1.3,MacIntel,60,13284,0.641,,,,,,,,,,,,,,,,,,,,,,,,,,,,,,,,,,,,,,,,,,,,,,,,,,,,,,,,,,,,,,,,,
,,,,,,,,,,,,l,Incorrect,0,116,116,75,1,t2.png,t3.png,1,0.90855,20,female,2020-07-28_15h33.02.191,torte-2b,2020.1.3,MacIntel,60,13284,0.482,,,,,,,,,,,,,,,,,,,,,,,,,,,,,,,,,,,,,,,,,,,,,,,,,,,,,,,,,,,,,,,,,
,,,,,,,,,,,,a,Correct!,0,117,117,77,1,t3.png,t2.png,1,0.90855,20,female,2020-07-28_15h33.02.191,torte-2b,2020.1.3,MacIntel,60,13284,0.614,,,,,,,,,,,,,,,,,,,,,,,,,,,,,,,,,,,,,,,,,,,,,,,,,,,,,,,,,,,,,,,,,
,,,,,,,,,,,,l,Correct!,0,118,118,9,1,t1.png,t5.png,4,9.55E-11,20,female,2020-07-28_15h33.02.191,torte-2b,2020.1.3,MacIntel,60,13284,1.074,,,,,,,,,,,,,,,,,,,,,,,,,,,,,,,,,,,,,,,,,,,,,,,,,,,,,,,,,,,,,,,,,
,,,,,,,,,,,,a,Correct!,0,119,119,112,1,t5.png,t4.png,1,0.90025,20,female,2020-07-28_15h33.02.191,torte-2b,2020.1.3,MacIntel,60,13284,0.864,,,,,,,,,,,,,,,,,,,,,,,,,,,,,,,,,,,,,,,,,,,,,,,,,,,,,,,,,,,,,,,,,
,,,,,,,,,,,,a,Correct!,,,,,,t3.png,t2.png,1,0.90855,20,female,2020-07-28_15h33.02.191,torte-2b,2020.1.3,MacIntel,60,13284,1.335,l,1.874,space,23.399,0,0,0,99,1,,,,,,,,,,,,,,,,,,,,,,,,,,,,,,,,,,,,,,,,,,,,,,,,,,,,,,,,
,,,,,,,,,,,,a,Incorrect,,,,,,t2.png,t2.png,0,0.98115,20,female,2020-07-28_15h33.02.191,torte-2b,2020.1.3,MacIntel,60,13284,1.624,,,,,0,1,1,7,1,,,,,,,,,,,,,,,,,,,,,,,,,,,,,,,,,,,,,,,,,,,,,,,,,,,,,,,,
,,,,,,,,,,,,l,Incorrect,,,,,,t3.png,t4.png,1,0.90855,20,female,2020-07-28_15h33.02.191,torte-2b,2020.1.3,MacIntel,60,13284,1.523,,,,,0,2,2,5,1,,,,,,,,,,,,,,,,,,,,,,,,,,,,,,,,,,,,,,,,,,,,,,,,,,,,,,,,
,,,,,,,,,,,,l,Correct!,,,,,,t2.png,t5.png,3,0.0000131,20,female,2020-07-28_15h33.02.191,torte-2b,2020.1.3,MacIntel,60,13284,0.52,,,,,0,3,3,54,1,,,,,,,,,,,,,,,,,,,,,,,,,,,,,,,,,,,,,,,,,,,,,,,,,,,,,,,,
,,,,,,,,,,,,a,Incorrect,,,,,,t5.png,t1.png,4,9.55E-11,20,female,2020-07-28_15h33.02.191,torte-2b,2020.1.3,MacIntel,60,13284,0.507,,,,,0,4,4,117,1,,,,,,,,,,,,,,,,,,,,,,,,,,,,,,,,,,,,,,,,,,,,,,,,,,,,,,,,
,,,,,,,,,,,,l,Incorrect,,,,,,t1.png,t2.png,1,0.9,20,female,2020-07-28_15h33.02.191,torte-2b,2020.1.3,MacIntel,60,13284,0.447,,,,,0,5,5,61,1,,,,,,,,,,,,,,,,,,,,,,,,,,,,,,,,,,,,,,,,,,,,,,,,,,,,,,,,
,,,,,,,,,,,,l,Correct!,,,,,,t1.png,t3.png,2,0.0565,20,female,2020-07-28_15h33.02.191,torte-2b,2020.1.3,MacIntel,60,13284,0.404,,,,,0,6,6,12,1,,,,,,,,,,,,,,,,,,,,,,,,,,,,,,,,,,,,,,,,,,,,,,,,,,,,,,,,
,,,,,,,,,,,,l,Correct!,,,,,,t2.png,t4.png,2,0.059078,20,female,2020-07-28_15h33.02.191,torte-2b,2020.1.3,MacIntel,60,13284,0.488,,,,,0,7,7,67,1,,,,,,,,,,,,,,,,,,,,,,,,,,,,,,,,,,,,,,,,,,,,,,,,,,,,,,,,
,,,,,,,,,,,,l,Correct!,,,,,,t2.png,t5.png,3,0.0000131,20,female,2020-07-28_15h33.02.191,torte-2b,2020.1.3,MacIntel,60,13284,0.416,,,,,0,8,8,85,1,,,,,,,,,,,,,,,,,,,,,,,,,,,,,,,,,,,,,,,,,,,,,,,,,,,,,,,,
,,,,,,,,,,,,l,Correct!,,,,,,t1.png,t5.png,4,9.55E-11,20,female,2020-07-28_15h33.02.191,torte-2b,2020.1.3,MacIntel,60,13284,0.374,,,,,0,9,9,118,1,,,,,,,,,,,,,,,,,,,,,,,,,,,,,,,,,,,,,,,,,,,,,,,,,,,,,,,,
,,,,,,,,,,,,l,Incorrect,,,,,,t1.png,t1.png,0,0.978,20,female,2020-07-28_15h33.02.191,torte-2b,2020.1.3,MacIntel,60,13284,0.508,,,,,0,10,10,22,1,,,,,,,,,,,,,,,,,,,,,,,,,,,,,,,,,,,,,,,,,,,,,,,,,,,,,,,,
,,,,,,,,,,,,a,Incorrect,,,,,,t4.png,t1.png,3,0.059078,20,female,2020-07-28_15h33.02.191,torte-2b,2020.1.3,MacIntel,60,13284,0.449,,,,,0,11,11,73,1,,,,,,,,,,,,,,,,,,,,,,,,,,,,,,,,,,,,,,,,,,,,,,,,,,,,,,,,
,,,,,,,,,,,,l,Incorrect,,,,,,t4.png,t5.png,1,0.9,20,female,2020-07-28_15h33.02.191,torte-2b,2020.1.3,MacIntel,60,13284,0.692,,,,,0,12,12,81,1,,,,,,,,,,,,,,,,,,,,,,,,,,,,,,,,,,,,,,,,,,,,,,,,,,,,,,,,
,,,,,,,,,,,,a,Correct!,,,,,,t4.png,t3.png,1,0.909,20,female,2020-07-28_15h33.02.191,torte-2b,2020.1.3,MacIntel,60,13284,0.364,,,,,0,13,13,107,1,,,,,,,,,,,,,,,,,,,,,,,,,,,,,,,,,,,,,,,,,,,,,,,,,,,,,,,,
,,,,,,,,,,,,l,Incorrect,,,,,,t4.png,t4.png,0,0.98115,20,female,2020-07-28_15h33.02.191,torte-2b,2020.1.3,MacIntel,60,13284,0.953,,,,,0,14,14,59,1,,,,,,,,,,,,,,,,,,,,,,,,,,,,,,,,,,,,,,,,,,,,,,,,,,,,,,,,
,,,,,,,,,,,,l,Incorrect,,,,,,t4.png,t4.png,0,0.98115,20,female,2020-07-28_15h33.02.191,torte-2b,2020.1.3,MacIntel,60,13284,0.882,,,,,0,15,15,88,1,,,,,,,,,,,,,,,,,,,,,,,,,,,,,,,,,,,,,,,,,,,,,,,,,,,,,,,,
,,,,,,,,,,,,a,Incorrect,,,,,,t5.png,t3.png,2,0.056466,20,female,2020-07-28_15h33.02.191,torte-2b,2020.1.3,MacIntel,60,13284,0.484,,,,,0,16,16,80,1,,,,,,,,,,,,,,,,,,,,,,,,,,,,,,,,,,,,,,,,,,,,,,,,,,,,,,,,
,,,,,,,,,,,,l,Correct!,,,,,,t3.png,t5.png,2,0.0565,20,female,2020-07-28_15h33.02.191,torte-2b,2020.1.3,MacIntel,60,13284,0.482,,,,,0,17,17,71,1,,,,,,,,,,,,,,,,,,,,,,,,,,,,,,,,,,,,,,,,,,,,,,,,,,,,,,,,
,,,,,,,,,,,,a,Correct!,,,,,,t3.png,t2.png,1,0.90855,20,female,2020-07-28_15h33.02.191,torte-2b,2020.1.3,MacIntel,60,13284,0.389,,,,,0,18,18,108,1,,,,,,,,,,,,,,,,,,,,,,,,,,,,,,,,,,,,,,,,,,,,,,,,,,,,,,,,
,,,,,,,,,,,,l,Incorrect,,,,,,t1.png,t2.png,1,0.9,20,female,2020-07-28_15h33.02.191,torte-2b,2020.1.3,MacIntel,60,13284,0.366,,,,,0,19,19,41,1,,,,,,,,,,,,,,,,,,,,,,,,,,,,,,,,,,,,,,,,,,,,,,,,,,,,,,,,
,,,,,,,,,,,,a,Correct!,,,,,,t5.png,t4.png,1,0.9,20,female,2020-07-28_15h33.02.191,torte-2b,2020.1.3,MacIntel,60,13284,0.372,,,,,0,20,20,92,1,,,,,,,,,,,,,,,,,,,,,,,,,,,,,,,,,,,,,,,,,,,,,,,,,,,,,,,,
,,,,,,,,,,,,a,Correct!,,,,,,t5.png,t5.png,0,0.97829,20,female,2020-07-28_15h33.02.191,torte-2b,2020.1.3,MacIntel,60,13284,0.55,,,,,0,21,21,77,1,,,,,,,,,,,,,,,,,,,,,,,,,,,,,,,,,,,,,,,,,,,,,,,,,,,,,,,,
,,,,,,,,,,,,l,Correct!,,,,,,t1.png,t3.png,2,0.056466,20,female,2020-07-28_15h33.02.191,torte-2b,2020.1.3,MacIntel,60,13284,0.6,,,,,0,22,22,32,1,,,,,,,,,,,,,,,,,,,,,,,,,,,,,,,,,,,,,,,,,,,,,,,,,,,,,,,,
,,,,,,,,,,,,l,Incorrect,,,,,,t2.png,t4.png,2,0.059078,20,female,2020-07-28_15h33.02.191,torte-2b,2020.1.3,MacIntel,60,13284,0.373,,,,,0,23,23,97,1,,,,,,,,,,,,,,,,,,,,,,,,,,,,,,,,,,,,,,,,,,,,,,,,,,,,,,,,
,,,,,,,,,,,,a,Incorrect,,,,,,t2.png,t1.png,1,0.9,20,female,2020-07-28_15h33.02.191,torte-2b,2020.1.3,MacIntel,60,13284,0.416,,,,,0,24,24,100,1,,,,,,,,,,,,,,,,,,,,,,,,,,,,,,,,,,,,,,,,,,,,,,,,,,,,,,,,
,,,,,,,,,,,,l,Incorrect,,,,,,t2.png,t3.png,1,0.90855,20,female,2020-07-28_15h33.02.191,torte-2b,2020.1.3,MacIntel,60,13284,0.413,,,,,0,25,25,79,1,,,,,,,,,,,,,,,,,,,,,,,,,,,,,,,,,,,,,,,,,,,,,,,,,,,,,,,,
,,,,,,,,,,,,l,Incorrect,,,,,,t5.png,t5.png,0,0.97829,20,female,2020-07-28_15h33.02.191,torte-2b,2020.1.3,MacIntel,60,13284,0.545,,,,,0,26,26,35,1,,,,,,,,,,,,,,,,,,,,,,,,,,,,,,,,,,,,,,,,,,,,,,,,,,,,,,,,
,,,,,,,,,,,,l,Correct!,,,,,,t2.png,t5.png,3,0.0000131,20,female,2020-07-28_15h33.02.191,torte-2b,2020.1.3,MacIntel,60,13284,0.374,,,,,0,27,27,39,1,,,,,,,,,,,,,,,,,,,,,,,,,,,,,,,,,,,,,,,,,,,,,,,,,,,,,,,,
,,,,,,,,,,,,a,Incorrect,,,,,,t5.png,t3.png,2,0.056466,20,female,2020-07-28_15h33.02.191,torte-2b,2020.1.3,MacIntel,60,13284,0.473,,,,,0,28,28,26,1,,,,,,,,,,,,,,,,,,,,,,,,,,,,,,,,,,,,,,,,,,,,,,,,,,,,,,,,
,,,,,,,,,,,,l,Incorrect,,,,,,t5.png,t5.png,0,0.978,20,female,2020-07-28_15h33.02.191,torte-2b,2020.1.3,MacIntel,60,13284,0.466,,,,,0,29,29,116,1,,,,,,,,,,,,,,,,,,,,,,,,,,,,,,,,,,,,,,,,,,,,,,,,,,,,,,,,
,,,,,,,,,,,,l,Incorrect,,,,,,t2.png,t3.png,1,0.909,20,female,2020-07-28_15h33.02.191,torte-2b,2020.1.3,MacIntel,60,13284,0.428,,,,,0,30,30,8,1,,,,,,,,,,,,,,,,,,,,,,,,,,,,,,,,,,,,,,,,,,,,,,,,,,,,,,,,
,,,,,,,,,,,,l,Incorrect,,,,,,t1.png,t1.png,0,0.97829,20,female,2020-07-28_15h33.02.191,torte-2b,2020.1.3,MacIntel,60,13284,0.5,,,,,0,31,31,114,1,,,,,,,,,,,,,,,,,,,,,,,,,,,,,,,,,,,,,,,,,,,,,,,,,,,,,,,,
,,,,,,,,,,,,a,Correct!,,,,,,t4.png,t3.png,1,0.909,20,female,2020-07-28_15h33.02.191,torte-2b,2020.1.3,MacIntel,60,13284,0.594,,,,,0,32,32,119,1,,,,,,,,,,,,,,,,,,,,,,,,,,,,,,,,,,,,,,,,,,,,,,,,,,,,,,,,
,,,,,,,,,,,,a,Incorrect,,,,,,t5.png,t2.png,3,0.0000131,20,female,2020-07-28_15h33.02.191,torte-2b,2020.1.3,MacIntel,60,13284,0.339,,,,,0,33,33,66,1,,,,,,,,,,,,,,,,,,,,,,,,,,,,,,,,,,,,,,,,,,,,,,,,,,,,,,,,
,,,,,,,,,,,,a,Incorrect,,,,,,t3.png,t1.png,2,0.0565,20,female,2020-07-28_15h33.02.191,torte-2b,2020.1.3,MacIntel,60,13284,0.433,,,,,0,34,34,40,1,,,,,,,,,,,,,,,,,,,,,,,,,,,,,,,,,,,,,,,,,,,,,,,,,,,,,,,,
,,,,,,,,,,,,l,Incorrect,,,,,,t3.png,t4.png,1,0.90855,20,female,2020-07-28_15h33.02.191,torte-2b,2020.1.3,MacIntel,60,13284,0.57,,,,,0,35,35,111,1,,,,,,,,,,,,,,,,,,,,,,,,,,,,,,,,,,,,,,,,,,,,,,,,,,,,,,,,
,,,,,,,,,,,,l,Incorrect,,,,,,t1.png,t1.png,0,0.978,20,female,2020-07-28_15h33.02.191,torte-2b,2020.1.3,MacIntel,60,13284,0.483,,,,,0,36,36,13,1,,,,,,,,,,,,,,,,,,,,,,,,,,,,,,,,,,,,,,,,,,,,,,,,,,,,,,,,
,,,,,,,,,,,,a,Incorrect,,,,,,t2.png,t1.png,1,0.90025,20,female,2020-07-28_15h33.02.191,torte-2b,2020.1.3,MacIntel,60,13284,0.483,,,,,0,37,37,105,1,,,,,,,,,,,,,,,,,,,,,,,,,,,,,,,,,,,,,,,,,,,,,,,,,,,,,,,,
,,,,,,,,,,,,l,Correct!,,,,,,t3.png,t5.png,2,0.056466,20,female,2020-07-28_15h33.02.191,torte-2b,2020.1.3,MacIntel,60,13284,0.485,,,,,0,38,38,47,1,,,,,,,,,,,,,,,,,,,,,,,,,,,,,,,,,,,,,,,,,,,,,,,,,,,,,,,,
,,,,,,,,,,,,a,Incorrect,,,,,,t5.png,t3.png,2,0.056466,20,female,2020-07-28_15h33.02.191,torte-2b,2020.1.3,MacIntel,60,13284,0.567,,,,,0,39,39,37,1,,,,,,,,,,,,,,,,,,,,,,,,,,,,,,,,,,,,,,,,,,,,,,,,,,,,,,,,
,,,,,,,,,,,,a,Correct!,,,,,,t5.png,t4.png,1,0.90025,20,female,2020-07-28_15h33.02.191,torte-2b,2020.1.3,MacIntel,60,13284,0.5,,,,,0,40,40,38,1,,,,,,,,,,,,,,,,,,,,,,,,,,,,,,,,,,,,,,,,,,,,,,,,,,,,,,,,
,,,,,,,,,,,,a,Incorrect,,,,,,t3.png,t1.png,2,0.056466,20,female,2020-07-28_15h33.02.191,torte-2b,2020.1.3,MacIntel,60,13284,0.459,,,,,0,41,41,34,1,,,,,,,,,,,,,,,,,,,,,,,,,,,,,,,,,,,,,,,,,,,,,,,,,,,,,,,,
,,,,,,,,,,,,l,Correct!,,,,,,t2.png,t4.png,2,0.059078,20,female,2020-07-28_15h33.02.191,torte-2b,2020.1.3,MacIntel,60,13284,0.866,,,,,0,42,42,84,1,,,,,,,,,,,,,,,,,,,,,,,,,,,,,,,,,,,,,,,,,,,,,,,,,,,,,,,,
,,,,,,,,,,,,l,Incorrect,,,,,,t1.png,t1.png,0,0.97829,20,female,2020-07-28_15h33.02.191,torte-2b,2020.1.3,MacIntel,60,13284,0.559,,,,,0,43,43,110,1,,,,,,,,,,,,,,,,,,,,,,,,,,,,,,,,,,,,,,,,,,,,,,,,,,,,,,,,
,,,,,,,,,,,,l,Incorrect,,,,,,t1.png,t2.png,1,0.90025,20,female,2020-07-28_15h33.02.191,torte-2b,2020.1.3,MacIntel,60,13284,0.433,,,,,0,44,44,6,1,,,,,,,,,,,,,,,,,,,,,,,,,,,,,,,,,,,,,,,,,,,,,,,,,,,,,,,,
,,,,,,,,,,,,a,Incorrect,,,,,,t5.png,t3.png,2,0.056466,20,female,2020-07-28_15h33.02.191,torte-2b,2020.1.3,MacIntel,60,13284,0.568,,,,,0,45,45,27,1,,,,,,,,,,,,,,,,,,,,,,,,,,,,,,,,,,,,,,,,,,,,,,,,,,,,,,,,
,,,,,,,,,,,,l,Correct!,,,,,,t1.png,t4.png,3,0.0000131,20,female,2020-07-28_15h33.02.191,torte-2b,2020.1.3,MacIntel,60,13284,0.384,,,,,0,46,46,36,1,,,,,,,,,,,,,,,,,,,,,,,,,,,,,,,,,,,,,,,,,,,,,,,,,,,,,,,,
,,,,,,,,,,,,l,Incorrect,,,,,,t3.png,t4.png,1,0.90855,20,female,2020-07-28_15h33.02.191,torte-2b,2020.1.3,MacIntel,60,13284,1.203,,,,,0,47,47,103,1,,,,,,,,,,,,,,,,,,,,,,,,,,,,,,,,,,,,,,,,,,,,,,,,,,,,,,,,
,,,,,,,,,,,,a,Incorrect,,,,,,t4.png,t1.png,3,0.0000131,20,female,2020-07-28_15h33.02.191,torte-2b,2020.1.3,MacIntel,60,13284,0.654,,,,,0,48,48,102,1,,,,,,,,,,,,,,,,,,,,,,,,,,,,,,,,,,,,,,,,,,,,,,,,,,,,,,,,
,,,,,,,,,,,,a,Incorrect,,,,,,t5.png,t3.png,2,0.0565,20,female,2020-07-28_15h33.02.191,torte-2b,2020.1.3,MacIntel,60,13284,0.458,,,,,0,49,49,50,1,,,,,,,,,,,,,,,,,,,,,,,,,,,,,,,,,,,,,,,,,,,,,,,,,,,,,,,,
,,,,,,,,,,,,l,Incorrect,,,,,,t2.png,t3.png,1,0.90855,20,female,2020-07-28_15h33.02.191,torte-2b,2020.1.3,MacIntel,60,13284,0.949,,,,,0,50,50,113,1,,,,,,,,,,,,,,,,,,,,,,,,,,,,,,,,,,,,,,,,,,,,,,,,,,,,,,,,
,,,,,,,,,,,,l,Correct!,,,,,,t2.png,t4.png,2,0.059078,20,female,2020-07-28_15h33.02.191,torte-2b,2020.1.3,MacIntel,60,13284,0.772,,,,,0,51,51,18,1,,,,,,,,,,,,,,,,,,,,,,,,,,,,,,,,,,,,,,,,,,,,,,,,,,,,,,,,
,,,,,,,,,,,,l,Incorrect,,,,,,t4.png,t4.png,0,0.98115,20,female,2020-07-28_15h33.02.191,torte-2b,2020.1.3,MacIntel,60,13284,0.49,,,,,0,52,52,52,1,,,,,,,,,,,,,,,,,,,,,,,,,,,,,,,,,,,,,,,,,,,,,,,,,,,,,,,,
,,,,,,,,,,,,a,Incorrect,,,,,,t4.png,t1.png,3,0.059078,20,female,2020-07-28_15h33.02.191,torte-2b,2020.1.3,MacIntel,60,13284,0.482,,,,,0,53,53,75,1,,,,,,,,,,,,,,,,,,,,,,,,,,,,,,,,,,,,,,,,,,,,,,,,,,,,,,,,
,,,,,,,,,,,,a,Correct!,,,,,,t5.png,t4.png,1,0.90025,20,female,2020-07-28_15h33.02.191,torte-2b,2020.1.3,MacIntel,60,13284,0.403,,,,,0,54,54,14,1,,,,,,,,,,,,,,,,,,,,,,,,,,,,,,,,,,,,,,,,,,,,,,,,,,,,,,,,
,,,,,,,,,,,,a,Correct!,,,,,,t2.png,t1.png,1,0.90025,20,female,2020-07-28_15h33.02.191,torte-2b,2020.1.3,MacIntel,60,13284,0.433,,,,,0,55,55,65,1,,,,,,,,,,,,,,,,,,,,,,,,,,,,,,,,,,,,,,,,,,,,,,,,,,,,,,,,
,,,,,,,,,,,,l,Correct!,,,,,,t1.png,t2.png,1,0.90025,20,female,2020-07-28_15h33.02.191,torte-2b,2020.1.3,MacIntel,60,13284,0.452,,,,,0,56,56,96,1,,,,,,,,,,,,,,,,,,,,,,,,,,,,,,,,,,,,,,,,,,,,,,,,,,,,,,,,
,,,,,,,,,,,,a,Incorrect,,,,,,t5.png,t1.png,4,9.55E-11,20,female,2020-07-28_15h33.02.191,torte-2b,2020.1.3,MacIntel,60,13284,0.499,,,,,0,57,57,89,1,,,,,,,,,,,,,,,,,,,,,,,,,,,,,,,,,,,,,,,,,,,,,,,,,,,,,,,,
,,,,,,,,,,,,a,Correct!,,,,,,t5.png,t4.png,1,0.90025,20,female,2020-07-28_15h33.02.191,torte-2b,2020.1.3,MacIntel,60,13284,0.598,,,,,0,58,58,25,1,,,,,,,,,,,,,,,,,,,,,,,,,,,,,,,,,,,,,,,,,,,,,,,,,,,,,,,,
,,,,,,,,,,,,a,Incorrect,,,,,,t5.png,t1.png,4,9.55E-11,20,female,2020-07-28_15h33.02.191,torte-2b,2020.1.3,MacIntel,60,13284,0.516,,,,,0,59,59,31,1,,,,,,,,,,,,,,,,,,,,,,,,,,,,,,,,,,,,,,,,,,,,,,,,,,,,,,,,
,,,,,,,,,,,,l,Correct!,,,,,,t1.png,t4.png,3,0.0000131,20,female,2020-07-28_15h33.02.191,torte-2b,2020.1.3,MacIntel,60,13284,0.749,,,,,0,60,60,106,1,,,,,,,,,,,,,,,,,,,,,,,,,,,,,,,,,,,,,,,,,,,,,,,,,,,,,,,,
,,,,,,,,,,,,a,Correct!,,,,,,t4.png,t3.png,1,0.90855,20,female,2020-07-28_15h33.02.191,torte-2b,2020.1.3,MacIntel,60,13284,0.882,,,,,0,61,61,11,1,,,,,,,,,,,,,,,,,,,,,,,,,,,,,,,,,,,,,,,,,,,,,,,,,,,,,,,,
,,,,,,,,,,,,l,Correct!,,,,,,t1.png,t4.png,3,0.0000131,20,female,2020-07-28_15h33.02.191,torte-2b,2020.1.3,MacIntel,60,13284,0.441,,,,,0,62,62,23,1,,,,,,,,,,,,,,,,,,,,,,,,,,,,,,,,,,,,,,,,,,,,,,,,,,,,,,,,
,,,,,,,,,,,,a,Correct!,,,,,,t2.png,t2.png,0,0.981,20,female,2020-07-28_15h33.02.191,torte-2b,2020.1.3,MacIntel,60,13284,0.474,,,,,0,63,63,98,1,,,,,,,,,,,,,,,,,,,,,,,,,,,,,,,,,,,,,,,,,,,,,,,,,,,,,,,,
,,,,,,,,,,,,a,Incorrect,,,,,,t4.png,t3.png,1,0.90855,20,female,2020-07-28_15h33.02.191,torte-2b,2020.1.3,MacIntel,60,13284,0.49,,,,,0,64,64,29,1,,,,,,,,,,,,,,,,,,,,,,,,,,,,,,,,,,,,,,,,,,,,,,,,,,,,,,,,
,,,,,,,,,,,,l,Correct!,,,,,,t1.png,t5.png,4,9.55E-11,20,female,2020-07-28_15h33.02.191,torte-2b,2020.1.3,MacIntel,60,13284,0.432,,,,,0,65,65,30,1,,,,,,,,,,,,,,,,,,,,,,,,,,,,,,,,,,,,,,,,,,,,,,,,,,,,,,,,
,,,,,,,,,,,,l,Incorrect,,,,,,t4.png,t4.png,0,0.98115,20,female,2020-07-28_15h33.02.191,torte-2b,2020.1.3,MacIntel,60,13284,0.472,,,,,0,66,66,68,1,,,,,,,,,,,,,,,,,,,,,,,,,,,,,,,,,,,,,,,,,,,,,,,,,,,,,,,,
,,,,,,,,,,,,a,Incorrect,,,,,,t3.png,t1.png,2,0.056466,20,female,2020-07-28_15h33.02.191,torte-2b,2020.1.3,MacIntel,60,13284,0.381,,,,,0,67,67,109,1,,,,,,,,,,,,,,,,,,,,,,,,,,,,,,,,,,,,,,,,,,,,,,,,,,,,,,,,
,,,,,,,,,,,,l,Correct!,,,,,,t1.png,t5.png,4,9.55E-11,20,female,2020-07-28_15h33.02.191,torte-2b,2020.1.3,MacIntel,60,13284,0.427,,,,,0,68,68,20,1,,,,,,,,,,,,,,,,,,,,,,,,,,,,,,,,,,,,,,,,,,,,,,,,,,,,,,,,
,,,,,,,,,,,,a,Incorrect,,,,,,t5.png,t2.png,3,0.0000131,20,female,2020-07-28_15h33.02.191,torte-2b,2020.1.3,MacIntel,60,13284,0.408,,,,,0,69,69,83,1,,,,,,,,,,,,,,,,,,,,,,,,,,,,,,,,,,,,,,,,,,,,,,,,,,,,,,,,
,,,,,,,,,,,,a,Incorrect,,,,,,t5.png,t2.png,3,0.0000131,20,female,2020-07-28_15h33.02.191,torte-2b,2020.1.3,MacIntel,60,13284,0.408,,,,,0,70,70,43,1,,,,,,,,,,,,,,,,,,,,,,,,,,,,,,,,,,,,,,,,,,,,,,,,,,,,,,,,
,,,,,,,,,,,,l,Incorrect,,,,,,t3.png,t4.png,1,0.90855,20,female,2020-07-28_15h33.02.191,torte-2b,2020.1.3,MacIntel,60,13284,0.531,,,,,0,71,71,58,1,,,,,,,,,,,,,,,,,,,,,,,,,,,,,,,,,,,,,,,,,,,,,,,,,,,,,,,,
,,,,,,,,,,,,a,Incorrect,,,,,,t4.png,t1.png,3,0.0000131,20,female,2020-07-28_15h33.02.191,torte-2b,2020.1.3,MacIntel,60,13284,0.375,,,,,0,72,72,91,1,,,,,,,,,,,,,,,,,,,,,,,,,,,,,,,,,,,,,,,,,,,,,,,,,,,,,,,,
,,,,,,,,,,,,l,Correct!,,,,,,t2.png,t5.png,3,0.0000131,20,female,2020-07-28_15h33.02.191,torte-2b,2020.1.3,MacIntel,60,13284,0.532,,,,,0,73,73,115,1,,,,,,,,,,,,,,,,,,,,,,,,,,,,,,,,,,,,,,,,,,,,,,,,,,,,,,,,
,,,,,,,,,,,,l,Incorrect,,,,,,t3.png,t4.png,1,0.90855,20,female,2020-07-28_15h33.02.191,torte-2b,2020.1.3,MacIntel,60,13284,0.621,,,,,0,74,74,9,1,,,,,,,,,,,,,,,,,,,,,,,,,,,,,,,,,,,,,,,,,,,,,,,,,,,,,,,,
,,,,,,,,,,,,l,Incorrect,,,,,,t1.png,t3.png,2,0.056466,20,female,2020-07-28_15h33.02.191,torte-2b,2020.1.3,MacIntel,60,13284,0.436,,,,,0,75,75,24,1,,,,,,,,,,,,,,,,,,,,,,,,,,,,,,,,,,,,,,,,,,,,,,,,,,,,,,,,
,,,,,,,,,,,,a,Correct!,,,,,,t3.png,t2.png,1,0.90855,20,female,2020-07-28_15h33.02.191,torte-2b,2020.1.3,MacIntel,60,13284,0.475,,,,,0,76,76,94,1,,,,,,,,,,,,,,,,,,,,,,,,,,,,,,,,,,,,,,,,,,,,,,,,,,,,,,,,
,,,,,,,,,,,,l,Correct!,,,,,,t1.png,t3.png,2,0.0565,20,female,2020-07-28_15h33.02.191,torte-2b,2020.1.3,MacIntel,60,13284,0.486,,,,,0,77,77,42,1,,,,,,,,,,,,,,,,,,,,,,,,,,,,,,,,,,,,,,,,,,,,,,,,,,,,,,,,
,,,,,,,,,,,,l,Incorrect,,,,,,t2.png,t2.png,0,0.98115,20,female,2020-07-28_15h33.02.191,torte-2b,2020.1.3,MacIntel,60,13284,1.09,,,,,0,78,78,112,1,,,,,,,,,,,,,,,,,,,,,,,,,,,,,,,,,,,,,,,,,,,,,,,,,,,,,,,,
,,,,,,,,,,,,l,Incorrect,,,,,,t4.png,t5.png,1,0.90025,20,female,2020-07-28_15h33.02.191,torte-2b,2020.1.3,MacIntel,60,13284,0.471,,,,,0,79,79,86,1,,,,,,,,,,,,,,,,,,,,,,,,,,,,,,,,,,,,,,,,,,,,,,,,,,,,,,,,
,,,,,,,,,,,,l,Incorrect,,,,,,t2.png,t4.png,2,0.059078,20,female,2020-07-28_15h33.02.191,torte-2b,2020.1.3,MacIntel,60,13284,0.423,,,,,0,80,80,53,1,,,,,,,,,,,,,,,,,,,,,,,,,,,,,,,,,,,,,,,,,,,,,,,,,,,,,,,,
,,,,,,,,,,,,a,Incorrect,,,,,,t4.png,t1.png,3,0.059078,20,female,2020-07-28_15h33.02.191,torte-2b,2020.1.3,MacIntel,60,13284,0.432,,,,,0,81,81,57,1,,,,,,,,,,,,,,,,,,,,,,,,,,,,,,,,,,,,,,,,,,,,,,,,,,,,,,,,
,,,,,,,,,,,,l,Correct!,,,,,,t3.png,t5.png,2,0.056466,20,female,2020-07-28_15h33.02.191,torte-2b,2020.1.3,MacIntel,60,13284,0.554,,,,,0,82,82,45,1,,,,,,,,,,,,,,,,,,,,,,,,,,,,,,,,,,,,,,,,,,,,,,,,,,,,,,,,
,,,,,,,,,,,,a,Incorrect,,,,,,t5.png,t2.png,3,0.0000131,20,female,2020-07-28_15h33.02.191,torte-2b,2020.1.3,MacIntel,60,13284,0.666,,,,,0,83,83,82,1,,,,,,,,,,,,,,,,,,,,,,,,,,,,,,,,,,,,,,,,,,,,,,,,,,,,,,,,
,,,,,,,,,,,,a,Incorrect,,,,,,t4.png,t1.png,3,0.0000131,20,female,2020-07-28_15h33.02.191,torte-2b,2020.1.3,MacIntel,60,13284,0.389,,,,,0,84,84,76,1,,,,,,,,,,,,,,,,,,,,,,,,,,,,,,,,,,,,,,,,,,,,,,,,,,,,,,,,
,,,,,,,,,,,,a,Incorrect,,,,,,t3.png,t1.png,2,0.056466,20,female,2020-07-28_15h33.02.191,torte-2b,2020.1.3,MacIntel,60,13284,0.398,,,,,0,85,85,72,1,,,,,,,,,,,,,,,,,,,,,,,,,,,,,,,,,,,,,,,,,,,,,,,,,,,,,,,,
,,,,,,,,,,,,a,Correct!,,,,,,t3.png,t2.png,1,0.90855,20,female,2020-07-28_15h33.02.191,torte-2b,2020.1.3,MacIntel,60,13284,0.42,,,,,0,86,86,10,1,,,,,,,,,,,,,,,,,,,,,,,,,,,,,,,,,,,,,,,,,,,,,,,,,,,,,,,,
,,,,,,,,,,,,a,Correct!,,,,,,t2.png,t3.png,1,0.90855,20,female,2020-07-28_15h33.02.191,torte-2b,2020.1.3,MacIntel,60,13284,0.722,,,,,0,87,87,64,1,,,,,,,,,,,,,,,,,,,,,,,,,,,,,,,,,,,,,,,,,,,,,,,,,,,,,,,,
,,,,,,,,,,,,l,Correct!,,,,,,t1.png,t3.png,2,0.0565,20,female,2020-07-28_15h33.02.191,torte-2b,2020.1.3,MacIntel,60,13284,0.54,,,,,0,88,88,95,1,,,,,,,,,,,,,,,,,,,,,,,,,,,,,,,,,,,,,,,,,,,,,,,,,,,,,,,,
,,,,,,,,,,,,a,Correct!,,,,,,t2.png,t1.png,1,0.9,20,female,2020-07-28_15h33.02.191,torte-2b,2020.1.3,MacIntel,60,13284,0.434,,,,,0,89,89,93,1,,,,,,,,,,,,,,,,,,,,,,,,,,,,,,,,,,,,,,,,,,,,,,,,,,,,,,,,
,,,,,,,,,,,,a,Incorrect,,,,,,t4.png,t1.png,3,0.059078,20,female,2020-07-28_15h33.02.191,torte-2b,2020.1.3,MacIntel,60,13284,0.553,,,,,0,90,90,87,1,,,,,,,,,,,,,,,,,,,,,,,,,,,,,,,,,,,,,,,,,,,,,,,,,,,,,,,,
,,,,,,,,,,,,a,Correct!,,,,,,t5.png,t4.png,1,0.9,20,female,2020-07-28_15h33.02.191,torte-2b,2020.1.3,MacIntel,60,13284,0.732,,,,,0,91,91,55,1,,,,,,,,,,,,,,,,,,,,,,,,,,,,,,,,,,,,,,,,,,,,,,,,,,,,,,,,
,,,,,,,,,,,,a,Correct!,,,,,,t4.png,t3.png,1,0.90855,20,female,2020-07-28_15h33.02.191,torte-2b,2020.1.3,MacIntel,60,13284,0.981,,,,,0,92,92,56,1,,,,,,,,,,,,,,,,,,,,,,,,,,,,,,,,,,,,,,,,,,,,,,,,,,,,,,,,
,,,,,,,,,,,,l,Correct!,,,,,,t3.png,t5.png,2,0.056466,20,female,2020-07-28_15h33.02.191,torte-2b,2020.1.3,MacIntel,60,13284,0.533,,,,,0,93,93,78,1,,,,,,,,,,,,,,,,,,,,,,,,,,,,,,,,,,,,,,,,,,,,,,,,,,,,,,,,
,,,,,,,,,,,,l,Incorrect,,,,,,t2.png,t2.png,0,0.98115,20,female,2020-07-28_15h33.02.191,torte-2b,2020.1.3,MacIntel,60,13284,0.52,,,,,0,94,94,69,1,,,,,,,,,,,,,,,,,,,,,,,,,,,,,,,,,,,,,,,,,,,,,,,,,,,,,,,,
,,,,,,,,,,,,l,Incorrect,,,,,,t1.png,t2.png,1,0.9,20,female,2020-07-28_15h33.02.191,torte-2b,2020.1.3,MacIntel,60,13284,0.484,,,,,0,95,95,17,1,,,,,,,,,,,,,,,,,,,,,,,,,,,,,,,,,,,,,,,,,,,,,,,,,,,,,,,,
,,,,,,,,,,,,a,Incorrect,,,,,,t4.png,t1.png,3,0.0000131,20,female,2020-07-28_15h33.02.191,torte-2b,2020.1.3,MacIntel,60,13284,0.464,,,,,0,96,96,49,1,,,,,,,,,,,,,,,,,,,,,,,,,,,,,,,,,,,,,,,,,,,,,,,,,,,,,,,,
,,,,,,,,,,,,l,Correct!,,,,,,t3.png,t5.png,2,0.056466,20,female,2020-07-28_15h33.02.191,torte-2b,2020.1.3,MacIntel,60,13284,0.913,,,,,0,97,97,60,1,,,,,,,,,,,,,,,,,,,,,,,,,,,,,,,,,,,,,,,,,,,,,,,,,,,,,,,,
,,,,,,,,,,,,a,Incorrect,,,,,,t2.png,t1.png,1,0.90025,20,female,2020-07-28_15h33.02.191,torte-2b,2020.1.3,MacIntel,60,13284,0.658,,,,,0,98,98,44,1,,,,,,,,,,,,,,,,,,,,,,,,,,,,,,,,,,,,,,,,,,,,,,,,,,,,,,,,
,,,,,,,,,,,,a,Correct!,,,,,,t5.png,t5.png,0,0.978,20,female,2020-07-28_15h33.02.191,torte-2b,2020.1.3,MacIntel,60,13284,1.08,,,,,0,99,99,51,1,,,,,,,,,,,,,,,,,,,,,,,,,,,,,,,,,,,,,,,,,,,,,,,,,,,,,,,,
,,,,,,,,,,,,l,Incorrect,,,,,,t4.png,t5.png,1,0.90025,20,female,2020-07-28_15h33.02.191,torte-2b,2020.1.3,MacIntel,60,13284,0.865,,,,,0,100,100,21,1,,,,,,,,,,,,,,,,,,,,,,,,,,,,,,,,,,,,,,,,,,,,,,,,,,,,,,,,
,,,,,,,,,,,,l,Correct!,,,,,,t1.png,t5.png,4,9.55E-11,20,female,2020-07-28_15h33.02.191,torte-2b,2020.1.3,MacIntel,60,13284,0.465,,,,,0,101,101,3,1,,,,,,,,,,,,,,,,,,,,,,,,,,,,,,,,,,,,,,,,,,,,,,,,,,,,,,,,
,,,,,,,,,,,,a,Incorrect,,,,,,t4.png,t1.png,3,0.059078,20,female,2020-07-28_15h33.02.191,torte-2b,2020.1.3,MacIntel,60,13284,0.721,,,,,0,102,102,62,1,,,,,,,,,,,,,,,,,,,,,,,,,,,,,,,,,,,,,,,,,,,,,,,,,,,,,,,,
,,,,,,,,,,,,a,Incorrect,,,,,,t3.png,t1.png,2,0.0565,20,female,2020-07-28_15h33.02.191,torte-2b,2020.1.3,MacIntel,60,13284,0.464,,,,,0,103,103,104,1,,,,,,,,,,,,,,,,,,,,,,,,,,,,,,,,,,,,,,,,,,,,,,,,,,,,,,,,
,,,,,,,,,,,,a,Incorrect,,,,,,t4.png,t1.png,3,0.0000131,20,female,2020-07-28_15h33.02.191,torte-2b,2020.1.3,MacIntel,60,13284,0.373,,,,,0,104,104,28,1,,,,,,,,,,,,,,,,,,,,,,,,,,,,,,,,,,,,,,,,,,,,,,,,,,,,,,,,
,,,,,,,,,,,,a,Correct!,,,,,,t5.png,t5.png,0,0.97829,20,female,2020-07-28_15h33.02.191,torte-2b,2020.1.3,MacIntel,60,13284,1.123,,,,,0,105,105,2,1,,,,,,,,,,,,,,,,,,,,,,,,,,,,,,,,,,,,,,,,,,,,,,,,,,,,,,,,
,,,,,,,,,,,,a,Incorrect,,,,,,t5.png,t1.png,4,9.55E-11,20,female,2020-07-28_15h33.02.191,torte-2b,2020.1.3,MacIntel,60,13284,0.385,,,,,0,106,106,15,1,,,,,,,,,,,,,,,,,,,,,,,,,,,,,,,,,,,,,,,,,,,,,,,,,,,,,,,,
,,,,,,,,,,,,a,Incorrect,,,,,,t5.png,t1.png,4,9.55E-11,20,female,2020-07-28_15h33.02.191,torte-2b,2020.1.3,MacIntel,60,13284,0.382,,,,,0,107,107,101,1,,,,,,,,,,,,,,,,,,,,,,,,,,,,,,,,,,,,,,,,,,,,,,,,,,,,,,,,
,,,,,,,,,,,,a,Incorrect,,,,,,t5.png,t2.png,3,0.0000131,20,female,2020-07-28_15h33.02.191,torte-2b,2020.1.3,MacIntel,60,13284,0.381,,,,,0,108,108,48,1,,,,,,,,,,,,,,,,,,,,,,,,,,,,,,,,,,,,,,,,,,,,,,,,,,,,,,,,
,,,,,,,,,,,,a,Correct!,,,,,,t1.png,t1.png,0,0.97829,20,female,2020-07-28_15h33.02.191,torte-2b,2020.1.3,MacIntel,60,13284,0.641,,,,,0,109,109,4,1,,,,,,,,,,,,,,,,,,,,,,,,,,,,,,,,,,,,,,,,,,,,,,,,,,,,,,,,
,,,,,,,,,,,,l,Correct!,,,,,,t1.png,t5.png,4,9.55E-11,20,female,2020-07-28_15h33.02.191,torte-2b,2020.1.3,MacIntel,60,13284,0.463,,,,,0,110,110,1,1,,,,,,,,,,,,,,,,,,,,,,,,,,,,,,,,,,,,,,,,,,,,,,,,,,,,,,,,
,,,,,,,,,,,,l,Incorrect,,,,,,t2.png,t3.png,1,0.90855,20,female,2020-07-28_15h33.02.191,torte-2b,2020.1.3,MacIntel,60,13284,1.178,,,,,0,111,111,70,1,,,,,,,,,,,,,,,,,,,,,,,,,,,,,,,,,,,,,,,,,,,,,,,,,,,,,,,,
,,,,,,,,,,,,l,Incorrect,,,,,,t2.png,t2.png,0,0.98115,20,female,2020-07-28_15h33.02.191,torte-2b,2020.1.3,MacIntel,60,13284,0.833,,,,,0,112,112,90,1,,,,,,,,,,,,,,,,,,,,,,,,,,,,,,,,,,,,,,,,,,,,,,,,,,,,,,,,
,,,,,,,,,,,,l,Incorrect,,,,,,t4.png,t5.png,1,0.90025,20,female,2020-07-28_15h33.02.191,torte-2b,2020.1.3,MacIntel,60,13284,0.527,,,,,0,113,113,33,1,,,,,,,,,,,,,,,,,,,,,,,,,,,,,,,,,,,,,,,,,,,,,,,,,,,,,,,,
,,,,,,,,,,,,l,Correct!,,,,,,t1.png,t4.png,3,0.0000131,20,female,2020-07-28_15h33.02.191,torte-2b,2020.1.3,MacIntel,60,13284,0.474,,,,,0,114,114,74,1,,,,,,,,,,,,,,,,,,,,,,,,,,,,,,,,,,,,,,,,,,,,,,,,,,,,,,,,
,,,,,,,,,,,,l,Correct!,,,,,,t1.png,t4.png,3,0.0000131,20,female,2020-07-28_15h33.02.191,torte-2b,2020.1.3,MacIntel,60,13284,0.499,,,,,0,115,115,16,1,,,,,,,,,,,,,,,,,,,,,,,,,,,,,,,,,,,,,,,,,,,,,,,,,,,,,,,,
,,,,,,,,,,,,a,Correct!,,,,,,t3.png,t2.png,1,0.90855,20,female,2020-07-28_15h33.02.191,torte-2b,2020.1.3,MacIntel,60,13284,0.765,,,,,0,116,116,0,1,,,,,,,,,,,,,,,,,,,,,,,,,,,,,,,,,,,,,,,,,,,,,,,,,,,,,,,,
,,,,,,,,,,,,a,Correct!,,,,,,t4.png,t4.png,0,0.98115,20,female,2020-07-28_15h33.02.191,torte-2b,2020.1.3,MacIntel,60,13284,0.706,,,,,0,117,117,19,1,,,,,,,,,,,,,,,,,,,,,,,,,,,,,,,,,,,,,,,,,,,,,,,,,,,,,,,,
,,,,,,,,,,,,l,Correct!,,,,,,t2.png,t5.png,3,0.0000131,20,female,2020-07-28_15h33.02.191,torte-2b,2020.1.3,MacIntel,60,13284,0.373,,,,,0,118,118,46,1,,,,,,,,,,,,,,,,,,,,,,,,,,,,,,,,,,,,,,,,,,,,,,,,,,,,,,,,
,,,,,,,,,,,,l,Incorrect,,,,,,t4.png,t5.png,1,0.90025,20,female,2020-07-28_15h33.02.191,torte-2b,2020.1.3,MacIntel,60,13284,1.489,,,,,0,119,119,63,1,,,,,,,,,,,,,,,,,,,,,,,,,,,,,,,,,,,,,,,,,,,,,,,,,,,,,,,,
,,,,,,,,,,,,,,,,,,,,,,,20,female,2020-07-28_15h33.02.191,torte-2b,2020.1.3,MacIntel,60,13284,,space,1.764,,,,,,,,space,376.416,,0,0,0,0,1,6,,,,,,,,,,,,,,,,,,,,,,,,,,,,,,,,,,,,,,,,,,,,,,,
,,,,,,,,,,,,,,,,,,,,,,,20,female,2020-07-28_15h33.02.191,torte-2b,2020.1.3,MacIntel,60,13284,,,,,,,,,,,,,,0,1,1,1,1,7,,,,,,,,,,,,,,,,,,,,,,,,,,,,,,,,,,,,,,,,,,,,,,,
,,,,,,,,,,,,,,,,,,,,,,,20,female,2020-07-28_15h33.02.191,torte-2b,2020.1.3,MacIntel,60,13284,,,,,,,,,,,,,,0,2,2,2,1,6,,,,,,,,,,,,,,,,,,,,,,,,,,,,,,,,,,,,,,,,,,,,,,,
,,,,,,,,,,,,,,,,,,,,,,,20,female,2020-07-28_15h33.02.191,torte-2b,2020.1.3,MacIntel,60,13284,,,,,,,,,,,,,,0,3,3,3,1,7,,,,,,,,,,,,,,,,,,,,,,,,,,,,,,,,,,,,,,,,,,,,,,,
,,,,,,,,,,,,,,,,,,,,,,,20,female,2020-07-28_15h33.02.191,torte-2b,2020.1.3,MacIntel,60,13284,,,,,,,,,,,,,,0,4,4,4,1,5,,,,,,,,,,,,,,,,,,,,,,,,,,,,,,,,,,,,,,,,,,,,,,,
,,,,,,,,,,,,,,,,,,,,,,,20,female,2020-07-28_15h33.02.191,torte-2b,2020.1.3,MacIntel,60,13284,,,,,,,,,,,,,,0,5,5,5,1,7,,,,,,,,,,,,,,,,,,,,,,,,,,,,,,,,,,,,,,,,,,,,,,,
,,,,,,,,,,,,,,,,,,,,,,,20,female,2020-07-28_15h33.02.191,torte-2b,2020.1.3,MacIntel,60,13284,,,,,,,,,,,,,,0,6,6,6,1,2,,,,,,,,,,,,,,,,,,,,,,,,,,,,,,,,,,,,,,,,,,,,,,,
,,,,,,,,,,,,,,,,,,,,,,,20,female,2020-07-28_15h33.02.191,torte-2b,2020.1.3,MacIntel,60,13284,,,,,,,,,,,,,,0,7,7,7,1,4,,,,,,,,,,,,,,,,,,,,,,,,,,,,,,,,,,,,,,,,,,,,,,,
,,,,,,,,,,,,,,,,,,,,,,,20,female,2020-07-28_15h33.02.191,torte-2b,2020.1.3,MacIntel,60,13284,,,,,,,,,,,,,space,0,8,8,8,1,7,0.302,,,,,,,,,,,,,,,,,,,,,,,,,,,,,,,,,,,,,,,,,,,,,,
,,,,,,,,,,,,,,,,,,,,,,,20,female,2020-07-28_15h33.02.191,torte-2b,2020.1.3,MacIntel,60,13284,,,,,,,,,,,,,,0,9,9,9,1,4,,,,,,,,,,,,,,,,,,,,,,,,,,,,,,,,,,,,,,,,,,,,,,,
,,,,,,,,,,,,,,,,,,,,,,,20,female,2020-07-28_15h33.02.191,torte-2b,2020.1.3,MacIntel,60,13284,,,,,,,,,,,,,,0,10,10,10,1,7,,,,,,,,,,,,,,,,,,,,,,,,,,,,,,,,,,,,,,,,,,,,,,,
,,,,,,,,,,,,,,,,,,,,,,,20,female,2020-07-28_15h33.02.191,torte-2b,2020.1.3,MacIntel,60,13284,,,,,,,,,,,,,space,0,11,11,11,1,7,0.361,,,,,,,,,,,,,,,,,,,,,,,,,,,,,,,,,,,,,,,,,,,,,,
,,,,,,,,,,,,,,,,,,,,,,,20,female,2020-07-28_15h33.02.191,torte-2b,2020.1.3,MacIntel,60,13284,,,,,,,,,,,,,,0,12,12,12,1,7,,,,,,,,,,,,,,,,,,,,,,,,,,,,,,,,,,,,,,,,,,,,,,,
,,,,,,,,,,,,,,,,,,,,,,,20,female,2020-07-28_15h33.02.191,torte-2b,2020.1.3,MacIntel,60,13284,,,,,,,,,,,,,space,0,13,13,13,1,4,0.504,,,,,,,,,,,,,,,,,,,,,,,,,,,,,,,,,,,,,,,,,,,,,,
,,,,,,,,,,,,,,,,,,,,,,,20,female,2020-07-28_15h33.02.191,torte-2b,2020.1.3,MacIntel,60,13284,,,,,,,,,,,,,,0,14,14,14,1,6,,,,,,,,,,,,,,,,,,,,,,,,,,,,,,,,,,,,,,,,,,,,,,,
,,,,,,,,,,,,,,,,,,,,,,,20,female,2020-07-28_15h33.02.191,torte-2b,2020.1.3,MacIntel,60,13284,,,,,,,,,,,,,,0,15,15,15,1,4,,,,,,,,,,,,,,,,,,,,,,,,,,,,,,,,,,,,,,,,,,,,,,,
,,,,,,,,,,,,,,,,,,,,,,,20,female,2020-07-28_15h33.02.191,torte-2b,2020.1.3,MacIntel,60,13284,,,,,,,,,,,,,,0,16,16,16,1,6,,,,,,,,,,,,,,,,,,,,,,,,,,,,,,,,,,,,,,,,,,,,,,,
,,,,,,,,,,,,,,,,,,,,,,,20,female,2020-07-28_15h33.02.191,torte-2b,2020.1.3,MacIntel,60,13284,,,,,,,,,,,,,,0,17,17,17,1,7,,,,,,,,,,,,,,,,,,,,,,,,,,,,,,,,,,,,,,,,,,,,,,,
,,,,,,,,,,,,,,,,,,,,,,,20,female,2020-07-28_15h33.02.191,torte-2b,2020.1.3,MacIntel,60,13284,,,,,,,,,,,,,space,0,18,18,18,1,6,0.313,,,,,,,,,,,,,,,,,,,,,,,,,,,,,,,,,,,,,,,,,,,,,,
,,,,,,,,,,,,,,,,,,,,,,,20,female,2020-07-28_15h33.02.191,torte-2b,2020.1.3,MacIntel,60,13284,,,,,,,,,,,,,,0,19,19,19,1,7,,,,,,,,,,,,,,,,,,,,,,,,,,,,,,,,,,,,,,,,,,,,,,,
,,,,,,,,,,,,,,,,,,,,,,,20,female,2020-07-28_15h33.02.191,torte-2b,2020.1.3,MacIntel,60,13284,,,,,,,,,,,,,,0,20,20,20,1,5,,,,,,,,,,,,,,,,,,,,,,,,,,,,,,,,,,,,,,,,,,,,,,,
,,,,,,,,,,,,,,,,,,,,,,,20,female,2020-07-28_15h33.02.191,torte-2b,2020.1.3,MacIntel,60,13284,,,,,,,,,,,,,,0,21,21,21,1,1,,,,,,,,,,,,,,,,,,,,,,,,,,,,,,,,,,,,,,,,,,,,,,,
,,,,,,,,,,,,,,,,,,,,,,,20,female,2020-07-28_15h33.02.191,torte-2b,2020.1.3,MacIntel,60,13284,,,,,,,,,,,,,space,0,22,22,22,1,6,0.219,,,,,,,,,,,,,,,,,,,,,,,,,,,,,,,,,,,,,,,,,,,,,,
,,,,,,,,,,,,,,,,,,,,,,,20,female,2020-07-28_15h33.02.191,torte-2b,2020.1.3,MacIntel,60,13284,,,,,,,,,,,,,,0,23,23,23,1,1,,,,,,,,,,,,,,,,,,,,,,,,,,,,,,,,,,,,,,,,,,,,,,,
,,,,,,,,,,,,,,,,,,,,,,,20,female,2020-07-28_15h33.02.191,torte-2b,2020.1.3,MacIntel,60,13284,,,,,,,,,,,,,,0,24,24,24,1,5,,,,,,,,,,,,,,,,,,,,,,,,,,,,,,,,,,,,,,,,,,,,,,,
,,,,,,,,,,,,,,,,,,,,,,,20,female,2020-07-28_15h33.02.191,torte-2b,2020.1.3,MacIntel,60,13284,,,,,,,,,,,,,space,0,25,25,25,1,6,0.265,,,,,,,,,,,,,,,,,,,,,,,,,,,,,,,,,,,,,,,,,,,,,,
,,,,,,,,,,,,,,,,,,,,,,,20,female,2020-07-28_15h33.02.191,torte-2b,2020.1.3,MacIntel,60,13284,,,,,,,,,,,,,,0,26,26,26,1,6,,,,,,,,,,,,,,,,,,,,,,,,,,,,,,,,,,,,,,,,,,,,,,,
,,,,,,,,,,,,,,,,,,,,,,,20,female,2020-07-28_15h33.02.191,torte-2b,2020.1.3,MacIntel,60,13284,,,,,,,,,,,,,,0,27,27,27,1,6,,,,,,,,,,,,,,,,,,,,,,,,,,,,,,,,,,,,,,,,,,,,,,,
,,,,,,,,,,,,,,,,,,,,,,,20,female,2020-07-28_15h33.02.191,torte-2b,2020.1.3,MacIntel,60,13284,,,,,,,,,,,,,space,0,28,28,28,1,5,0.362,,,,,,,,,,,,,,,,,,,,,,,,,,,,,,,,,,,,,,,,,,,,,,
,,,,,,,,,,,,,,,,,,,,,,,20,female,2020-07-28_15h33.02.191,torte-2b,2020.1.3,MacIntel,60,13284,,,,,,,,,,,,,,0,29,29,29,1,2,,,,,,,,,,,,,,,,,,,,,,,,,,,,,,,,,,,,,,,,,,,,,,,
,,,,,,,,,,,,,,,,,,,,,,,20,female,2020-07-28_15h33.02.191,torte-2b,2020.1.3,MacIntel,60,13284,,,,,,,,,,,,,,0,30,30,30,1,5,,,,,,,,,,,,,,,,,,,,,,,,,,,,,,,,,,,,,,,,,,,,,,,
,,,,,,,,,,,,,,,,,,,,,,,20,female,2020-07-28_15h33.02.191,torte-2b,2020.1.3,MacIntel,60,13284,,,,,,,,,,,,,space,0,31,31,31,1,2,0.384,,,,,,,,,,,,,,,,,,,,,,,,,,,,,,,,,,,,,,,,,,,,,,
,,,,,,,,,,,,,,,,,,,,,,,20,female,2020-07-28_15h33.02.191,torte-2b,2020.1.3,MacIntel,60,13284,,,,,,,,,,,,,,0,32,32,32,1,5,,,,,,,,,,,,,,,,,,,,,,,,,,,,,,,,,,,,,,,,,,,,,,,
,,,,,,,,,,,,,,,,,,,,,,,20,female,2020-07-28_15h33.02.191,torte-2b,2020.1.3,MacIntel,60,13284,,,,,,,,,,,,,,0,33,33,33,1,1,,,,,,,,,,,,,,,,,,,,,,,,,,,,,,,,,,,,,,,,,,,,,,,
,,,,,,,,,,,,,,,,,,,,,,,20,female,2020-07-28_15h33.02.191,torte-2b,2020.1.3,MacIntel,60,13284,,,,,,,,,,,,,,0,34,34,34,1,1,,,,,,,,,,,,,,,,,,,,,,,,,,,,,,,,,,,,,,,,,,,,,,,
,,,,,,,,,,,,,,,,,,,,,,,20,female,2020-07-28_15h33.02.191,torte-2b,2020.1.3,MacIntel,60,13284,,,,,,,,,,,,,,,,,,,2,,0,0,0,0,1,,,,,,,,,,,,,,,,,,,,,,,,,,,,,,,,,,,,,,,,,
,,,,,,,,,,,,,,,,,,,,,,,20,female,2020-07-28_15h33.02.191,torte-2b,2020.1.3,MacIntel,60,13284,,,,,,,,,,,,,,,,,,,2,,0,1,1,1,1,,,,,,,,,,,,,,,,,,,,,,,,,,,,,,,,,,,,,,,,,
,,,,,,,,,,,,,,,,,,,,,,,20,female,2020-07-28_15h33.02.191,torte-2b,2020.1.3,MacIntel,60,13284,,,,,,,,,,,,,,,,,,,6,,0,2,2,2,1,,,,,,,,,,,,,,,,,,,,,,,,,,,,,,,,,,,,,,,,,
,,,,,,,,,,,,,,,,,,,,,,,20,female,2020-07-28_15h33.02.191,torte-2b,2020.1.3,MacIntel,60,13284,,,,,,,,,,,,,space,,,,,,2,0.645,0,3,3,3,1,,,,,,,,,,,,,,,,,,,,,,,,,,,,,,,,,,,,,,,,,
,,,,,,,,,,,,,,,,,,,,,,,20,female,2020-07-28_15h33.02.191,torte-2b,2020.1.3,MacIntel,60,13284,,,,,,,,,,,,,,,,,,,6,,0,4,4,4,1,,,,,,,,,,,,,,,,,,,,,,,,,,,,,,,,,,,,,,,,,
,,,,,,,,,,,,,,,,,,,,,,,20,female,2020-07-28_15h33.02.191,torte-2b,2020.1.3,MacIntel,60,13284,,,,,,,,,,,,,space,,,,,,2,0.504,0,5,5,5,1,,,,,,,,,,,,,,,,,,,,,,,,,,,,,,,,,,,,,,,,,
,,,,,,,,,,,,,,,,,,,,,,,20,female,2020-07-28_15h33.02.191,torte-2b,2020.1.3,MacIntel,60,13284,,,,,,,,,,,,,,,,,,,7,,0,6,6,6,1,,,,,,,,,,,,,,,,,,,,,,,,,,,,,,,,,,,,,,,,,
,,,,,,,,,,,,,,,,,,,,,,,20,female,2020-07-28_15h33.02.191,torte-2b,2020.1.3,MacIntel,60,13284,,,,,,,,,,,,,space,,,,,,2,0.461,0,7,7,7,1,,,,,,,,,,,,,,,,,,,,,,,,,,,,,,,,,,,,,,,,,
,,,,,,,,,,,,,,,,,,,,,,,20,female,2020-07-28_15h33.02.191,torte-2b,2020.1.3,MacIntel,60,13284,,,,,,,,,,,,,,,,,,,7,,0,8,8,8,1,,,,,,,,,,,,,,,,,,,,,,,,,,,,,,,,,,,,,,,,,
,,,,,,,,,,,,,,,,,,,,,,,20,female,2020-07-28_15h33.02.191,torte-2b,2020.1.3,MacIntel,60,13284,,,,,,,,,,,,,space,,,,,,2,0.811,0,9,9,9,1,,,,,,,,,,,,,,,,,,,,,,,,,,,,,,,,,,,,,,,,,
,,,,,,,,,,,,,,,,,,,,,,,20,female,2020-07-28_15h33.02.191,torte-2b,2020.1.3,MacIntel,60,13284,,,,,,,,,,,,,,,,,,,5,,0,10,10,10,1,,,,,,,,,,,,,,,,,,,,,,,,,,,,,,,,,,,,,,,,,
,,,,,,,,,,,,,,,,,,,,,,,20,female,2020-07-28_15h33.02.191,torte-2b,2020.1.3,MacIntel,60,13284,,,,,,,,,,,,,space,,,,,,4,0.533,0,11,11,11,1,,,,,,,,,,,,,,,,,,,,,,,,,,,,,,,,,,,,,,,,,
,,,,,,,,,,,,,,,,,,,,,,,20,female,2020-07-28_15h33.02.191,torte-2b,2020.1.3,MacIntel,60,13284,,,,,,,,,,,,,,,,,,,5,,0,12,12,12,1,,,,,,,,,,,,,,,,,,,,,,,,,,,,,,,,,,,,,,,,,
,,,,,,,,,,,,,,,,,,,,,,,20,female,2020-07-28_15h33.02.191,torte-2b,2020.1.3,MacIntel,60,13284,,,,,,,,,,,,,,,,,,,6,,0,13,13,13,1,,,,,,,,,,,,,,,,,,,,,,,,,,,,,,,,,,,,,,,,,
,,,,,,,,,,,,,,,,,,,,,,,20,female,2020-07-28_15h33.02.191,torte-2b,2020.1.3,MacIntel,60,13284,,,,,,,,,,,,,space,,,,,,5,0.403,0,14,14,14,1,,,,,,,,,,,,,,,,,,,,,,,,,,,,,,,,,,,,,,,,,
,,,,,,,,,,,,,,,,,,,,,,,20,female,2020-07-28_15h33.02.191,torte-2b,2020.1.3,MacIntel,60,13284,,,,,,,,,,,,,,,,,,,4,,0,15,15,15,1,,,,,,,,,,,,,,,,,,,,,,,,,,,,,,,,,,,,,,,,,
,,,,,,,,,,,,,,,,,,,,,,,20,female,2020-07-28_15h33.02.191,torte-2b,2020.1.3,MacIntel,60,13284,,,,,,,,,,,,,space,,,,,,5,0.332,0,16,16,16,1,,,,,,,,,,,,,,,,,,,,,,,,,,,,,,,,,,,,,,,,,
,,,,,,,,,,,,,,,,,,,,,,,20,female,2020-07-28_15h33.02.191,torte-2b,2020.1.3,MacIntel,60,13284,,,,,,,,,,,,,,,,,,,3,,0,17,17,17,1,,,,,,,,,,,,,,,,,,,,,,,,,,,,,,,,,,,,,,,,,
,,,,,,,,,,,,,,,,,,,,,,,20,female,2020-07-28_15h33.02.191,torte-2b,2020.1.3,MacIntel,60,13284,,,,,,,,,,,,,,,,,,,6,,0,18,18,18,1,,,,,,,,,,,,,,,,,,,,,,,,,,,,,,,,,,,,,,,,,
,,,,,,,,,,,,,,,,,,,,,,,20,female,2020-07-28_15h33.02.191,torte-2b,2020.1.3,MacIntel,60,13284,,,,,,,,,,,,,,,,,,,6,,0,19,19,19,1,,,,,,,,,,,,,,,,,,,,,,,,,,,,,,,,,,,,,,,,,
,,,,,,,,,,,,,,,,,,,,,,,20,female,2020-07-28_15h33.02.191,torte-2b,2020.1.3,MacIntel,60,13284,,,,,,,,,,,,,,,,,,,6,,0,20,20,20,1,,,,,,,,,,,,,,,,,,,,,,,,,,,,,,,,,,,,,,,,,
,,,,,,,,,,,,,,,,,,,,,,,20,female,2020-07-28_15h33.02.191,torte-2b,2020.1.3,MacIntel,60,13284,,,,,,,,,,,,,,,,,,,4,,0,21,21,21,1,,,,,,,,,,,,,,,,,,,,,,,,,,,,,,,,,,,,,,,,,
,,,,,,,,,,,,,,,,,,,,,,,20,female,2020-07-28_15h33.02.191,torte-2b,2020.1.3,MacIntel,60,13284,,,,,,,,,,,,,space,,,,,,6,0.365,0,22,22,22,1,,,,,,,,,,,,,,,,,,,,,,,,,,,,,,,,,,,,,,,,,
,,,,,,,,,,,,,,,,,,,,,,,20,female,2020-07-28_15h33.02.191,torte-2b,2020.1.3,MacIntel,60,13284,,,,,,,,,,,,,,,,,,,4,,0,23,23,23,1,,,,,,,,,,,,,,,,,,,,,,,,,,,,,,,,,,,,,,,,,
,,,,,,,,,,,,,,,,,,,,,,,20,female,2020-07-28_15h33.02.191,torte-2b,2020.1.3,MacIntel,60,13284,,,,,,,,,,,,,space,,,,,,6,0.5,0,24,24,24,1,,,,,,,,,,,,,,,,,,,,,,,,,,,,,,,,,,,,,,,,,
,,,,,,,,,,,,,,,,,,,,,,,20,female,2020-07-28_15h33.02.191,torte-2b,2020.1.3,MacIntel,60,13284,,,,,,,,,,,,,,,,,,,6,,0,25,25,25,1,,,,,,,,,,,,,,,,,,,,,,,,,,,,,,,,,,,,,,,,,
,,,,,,,,,,,,,,,,,,,,,,,20,female,2020-07-28_15h33.02.191,torte-2b,2020.1.3,MacIntel,60,13284,,,,,,,,,,,,,,,,,,,7,,0,26,26,26,1,,,,,,,,,,,,,,,,,,,,,,,,,,,,,,,,,,,,,,,,,
,,,,,,,,,,,,,,,,,,,,,,,20,female,2020-07-28_15h33.02.191,torte-2b,2020.1.3,MacIntel,60,13284,,,,,,,,,,,,,,,,,,,1,,0,27,27,27,1,,,,,,,,,,,,,,,,,,,,,,,,,,,,,,,,,,,,,,,,,
,,,,,,,,,,,,,,,,,,,,,,,20,female,2020-07-28_15h33.02.191,torte-2b,2020.1.3,MacIntel,60,13284,,,,,,,,,,,,,space,,,,,,7,0.78,0,28,28,28,1,,,,,,,,,,,,,,,,,,,,,,,,,,,,,,,,,,,,,,,,,
,,,,,,,,,,,,,,,,,,,,,,,20,female,2020-07-28_15h33.02.191,torte-2b,2020.1.3,MacIntel,60,13284,,,,,,,,,,,,,,,,,,,4,,0,29,29,29,1,,,,,,,,,,,,,,,,,,,,,,,,,,,,,,,,,,,,,,,,,
,,,,,,,,,,,,,,,,,,,,,,,20,female,2020-07-28_15h33.02.191,torte-2b,2020.1.3,MacIntel,60,13284,,,,,,,,,,,,,,,,,,,7,,0,30,30,30,1,,,,,,,,,,,,,,,,,,,,,,,,,,,,,,,,,,,,,,,,,
,,,,,,,,,,,,,,,,,,,,,,,20,female,2020-07-28_15h33.02.191,torte-2b,2020.1.3,MacIntel,60,13284,,,,,,,,,,,,,space,,,,,,3,0.283,0,31,31,31,1,,,,,,,,,,,,,,,,,,,,,,,,,,,,,,,,,,,,,,,,,
,,,,,,,,,,,,,,,,,,,,,,,20,female,2020-07-28_15h33.02.191,torte-2b,2020.1.3,MacIntel,60,13284,,,,,,,,,,,,,,,,,,,2,,0,32,32,32,1,,,,,,,,,,,,,,,,,,,,,,,,,,,,,,,,,,,,,,,,,
,,,,,,,,,,,,,,,,,,,,,,,20,female,2020-07-28_15h33.02.191,torte-2b,2020.1.3,MacIntel,60,13284,,,,,,,,,,,,,,,,,,,6,,0,33,33,33,1,,,,,,,,,,,,,,,,,,,,,,,,,,,,,,,,,,,,,,,,,
,,,,,,,,,,,,,,,,,,,,,,,20,female,2020-07-28_15h33.02.191,torte-2b,2020.1.3,MacIntel,60,13284,,,,,,,,,,,,,space,,,,,,3,0.512,0,34,34,34,1,,,,,,,,,,,,,,,,,,,,,,,,,,,,,,,,,,,,,,,,,
,,,,,,,,,,,,,,,,,,,,,,,20,female,2020-07-28_15h33.02.191,torte-2b,2020.1.3,MacIntel,60,13284,,,,,,,,,,,,,,,,,,,7,,,,,,,0,0,0,0,1,,,,,,,,,,,,,,,,,,,,,,,,,,,,,,,,,,,,
,,,,,,,,,,,,,,,,,,,,,,,20,female,2020-07-28_15h33.02.191,torte-2b,2020.1.3,MacIntel,60,13284,,,,,,,,,,,,,,,,,,,5,,,,,,,0,1,1,1,1,,,,,,,,,,,,,,,,,,,,,,,,,,,,,,,,,,,,
,,,,,,,,,,,,,,,,,,,,,,,20,female,2020-07-28_15h33.02.191,torte-2b,2020.1.3,MacIntel,60,13284,,,,,,,,,,,,,space,,,,,,4,0.93,,,,,,0,2,2,2,1,,,,,,,,,,,,,,,,,,,,,,,,,,,,,,,,,,,,
,,,,,,,,,,,,,,,,,,,,,,,20,female,2020-07-28_15h33.02.191,torte-2b,2020.1.3,MacIntel,60,13284,,,,,,,,,,,,,,,,,,,5,,,,,,,0,3,3,3,1,,,,,,,,,,,,,,,,,,,,,,,,,,,,,,,,,,,,
,,,,,,,,,,,,,,,,,,,,,,,20,female,2020-07-28_15h33.02.191,torte-2b,2020.1.3,MacIntel,60,13284,,,,,,,,,,,,,,,,,,,6,,,,,,,0,4,4,4,1,,,,,,,,,,,,,,,,,,,,,,,,,,,,,,,,,,,,
,,,,,,,,,,,,,,,,,,,,,,,20,female,2020-07-28_15h33.02.191,torte-2b,2020.1.3,MacIntel,60,13284,,,,,,,,,,,,,space,,,,,,5,0.667,,,,,,0,5,5,5,1,,,,,,,,,,,,,,,,,,,,,,,,,,,,,,,,,,,,
,,,,,,,,,,,,,,,,,,,,,,,20,female,2020-07-28_15h33.02.191,torte-2b,2020.1.3,MacIntel,60,13284,,,,,,,,,,,,,,,,,,,3,,,,,,,0,6,6,6,1,,,,,,,,,,,,,,,,,,,,,,,,,,,,,,,,,,,,
,,,,,,,,,,,,,,,,,,,,,,,20,female,2020-07-28_15h33.02.191,torte-2b,2020.1.3,MacIntel,60,13284,,,,,,,,,,,,,,,,,,,4,,,,,,,0,7,7,7,1,,,,,,,,,,,,,,,,,,,,,,,,,,,,,,,,,,,,
,,,,,,,,,,,,,,,,,,,,,,,20,female,2020-07-28_15h33.02.191,torte-2b,2020.1.3,MacIntel,60,13284,,,,,,,,,,,,,,,,,,,3,,,,,,,0,8,8,8,1,,,,,,,,,,,,,,,,,,,,,,,,,,,,,,,,,,,,
,,,,,,,,,,,,,,,,,,,,,,,20,female,2020-07-28_15h33.02.191,torte-2b,2020.1.3,MacIntel,60,13284,,,,,,,,,,,,,,,,,,,1,,,,,,,0,9,9,9,1,,,,,,,,,,,,,,,,,,,,,,,,,,,,,,,,,,,,
,,,,,,,,,,,,,,,,,,,,,,,20,female,2020-07-28_15h33.02.191,torte-2b,2020.1.3,MacIntel,60,13284,,,,,,,,,,,,,,,,,,,2,,,,,,,0,10,10,10,1,,,,,,,,,,,,,,,,,,,,,,,,,,,,,,,,,,,,
,,,,,,,,,,,,,,,,,,,,,,,20,female,2020-07-28_15h33.02.191,torte-2b,2020.1.3,MacIntel,60,13284,,,,,,,,,,,,,space,,,,,,1,1.083,,,,,,0,11,11,11,1,,,,,,,,,,,,,,,,,,,,,,,,,,,,,,,,,,,,
,,,,,,,,,,,,,,,,,,,,,,,20,female,2020-07-28_15h33.02.191,torte-2b,2020.1.3,MacIntel,60,13284,,,,,,,,,,,,,,,,,,,2,,,,,,,0,12,12,12,1,,,,,,,,,,,,,,,,,,,,,,,,,,,,,,,,,,,,
,,,,,,,,,,,,,,,,,,,,,,,20,female,2020-07-28_15h33.02.191,torte-2b,2020.1.3,MacIntel,60,13284,,,,,,,,,,,,,space,,,,,,1,0.618,,,,,,0,13,13,13,1,,,,,,,,,,,,,,,,,,,,,,,,,,,,,,,,,,,,
,,,,,,,,,,,,,,,,,,,,,,,20,female,2020-07-28_15h33.02.191,torte-2b,2020.1.3,MacIntel,60,13284,,,,,,,,,,,,,,,,,,,3,,,,,,,0,14,14,14,1,,,,,,,,,,,,,,,,,,,,,,,,,,,,,,,,,,,,
,,,,,,,,,,,,,,,,,,,,,,,20,female,2020-07-28_15h33.02.191,torte-2b,2020.1.3,MacIntel,60,13284,,,,,,,,,,,,,space,,,,,,1,0.345,,,,,,0,15,15,15,1,,,,,,,,,,,,,,,,,,,,,,,,,,,,,,,,,,,,
,,,,,,,,,,,,,,,,,,,,,,,20,female,2020-07-28_15h33.02.191,torte-2b,2020.1.3,MacIntel,60,13284,,,,,,,,,,,,,,,,,,,7,,,,,,,0,16,16,16,1,,,,,,,,,,,,,,,,,,,,,,,,,,,,,,,,,,,,
,,,,,,,,,,,,,,,,,,,,,,,20,female,2020-07-28_15h33.02.191,torte-2b,2020.1.3,MacIntel,60,13284,,,,,,,,,,,,,,,,,,,7,,,,,,,0,17,17,17,1,,,,,,,,,,,,,,,,,,,,,,,,,,,,,,,,,,,,
,,,,,,,,,,,,,,,,,,,,,,,20,female,2020-07-28_15h33.02.191,torte-2b,2020.1.3,MacIntel,60,13284,,,,,,,,,,,,,,,,,,,4,,,,,,,0,18,18,18,1,,,,,,,,,,,,,,,,,,,,,,,,,,,,,,,,,,,,
,,,,,,,,,,,,,,,,,,,,,,,20,female,2020-07-28_15h33.02.191,torte-2b,2020.1.3,MacIntel,60,13284,,,,,,,,,,,,,,,,,,,7,,,,,,,0,19,19,19,1,,,,,,,,,,,,,,,,,,,,,,,,,,,,,,,,,,,,
,,,,,,,,,,,,,,,,,,,,,,,20,female,2020-07-28_15h33.02.191,torte-2b,2020.1.3,MacIntel,60,13284,,,,,,,,,,,,,,,,,,,3,,,,,,,0,20,20,20,1,,,,,,,,,,,,,,,,,,,,,,,,,,,,,,,,,,,,
,,,,,,,,,,,,,,,,,,,,,,,20,female,2020-07-28_15h33.02.191,torte-2b,2020.1.3,MacIntel,60,13284,,,,,,,,,,,,,space,,,,,,7,0.444,,,,,,0,21,21,21,1,,,,,,,,,,,,,,,,,,,,,,,,,,,,,,,,,,,,
,,,,,,,,,,,,,,,,,,,,,,,20,female,2020-07-28_15h33.02.191,torte-2b,2020.1.3,MacIntel,60,13284,,,,,,,,,,,,,,,,,,,3,,,,,,,0,22,22,22,1,,,,,,,,,,,,,,,,,,,,,,,,,,,,,,,,,,,,
,,,,,,,,,,,,,,,,,,,,,,,20,female,2020-07-28_15h33.02.191,torte-2b,2020.1.3,MacIntel,60,13284,,,,,,,,,,,,,,,,,,,1,,,,,,,0,23,23,23,1,,,,,,,,,,,,,,,,,,,,,,,,,,,,,,,,,,,,
,,,,,,,,,,,,,,,,,,,,,,,20,female,2020-07-28_15h33.02.191,torte-2b,2020.1.3,MacIntel,60,13284,,,,,,,,,,,,,,,,,,,6,,,,,,,0,24,24,24,1,,,,,,,,,,,,,,,,,,,,,,,,,,,,,,,,,,,,
,,,,,,,,,,,,,,,,,,,,,,,20,female,2020-07-28_15h33.02.191,torte-2b,2020.1.3,MacIntel,60,13284,,,,,,,,,,,,,,,,,,,3,,,,,,,0,25,25,25,1,,,,,,,,,,,,,,,,,,,,,,,,,,,,,,,,,,,,
,,,,,,,,,,,,,,,,,,,,,,,20,female,2020-07-28_15h33.02.191,torte-2b,2020.1.3,MacIntel,60,13284,,,,,,,,,,,,,,,,,,,2,,,,,,,0,26,26,26,1,,,,,,,,,,,,,,,,,,,,,,,,,,,,,,,,,,,,
,,,,,,,,,,,,,,,,,,,,,,,20,female,2020-07-28_15h33.02.191,torte-2b,2020.1.3,MacIntel,60,13284,,,,,,,,,,,,,,,,,,,3,,,,,,,0,27,27,27,1,,,,,,,,,,,,,,,,,,,,,,,,,,,,,,,,,,,,
,,,,,,,,,,,,,,,,,,,,,,,20,female,2020-07-28_15h33.02.191,torte-2b,2020.1.3,MacIntel,60,13284,,,,,,,,,,,,,,,,,,,1,,,,,,,0,28,28,28,1,,,,,,,,,,,,,,,,,,,,,,,,,,,,,,,,,,,,
,,,,,,,,,,,,,,,,,,,,,,,20,female,2020-07-28_15h33.02.191,torte-2b,2020.1.3,MacIntel,60,13284,,,,,,,,,,,,,space,,,,,,3,0.361,,,,,,0,29,29,29,1,,,,,,,,,,,,,,,,,,,,,,,,,,,,,,,,,,,,
,,,,,,,,,,,,,,,,,,,,,,,20,female,2020-07-28_15h33.02.191,torte-2b,2020.1.3,MacIntel,60,13284,,,,,,,,,,,,,,,,,,,1,,,,,,,0,30,30,30,1,,,,,,,,,,,,,,,,,,,,,,,,,,,,,,,,,,,,
,,,,,,,,,,,,,,,,,,,,,,,20,female,2020-07-28_15h33.02.191,torte-2b,2020.1.3,MacIntel,60,13284,,,,,,,,,,,,,,,,,,,7,,,,,,,0,31,31,31,1,,,,,,,,,,,,,,,,,,,,,,,,,,,,,,,,,,,,
,,,,,,,,,,,,,,,,,,,,,,,20,female,2020-07-28_15h33.02.191,torte-2b,2020.1.3,MacIntel,60,13284,,,,,,,,,,,,,,,,,,,5,,,,,,,0,32,32,32,1,,,,,,,,,,,,,,,,,,,,,,,,,,,,,,,,,,,,
,,,,,,,,,,,,,,,,,,,,,,,20,female,2020-07-28_15h33.02.191,torte-2b,2020.1.3,MacIntel,60,13284,,,,,,,,,,,,,space,,,,,,7,0.479,,,,,,0,33,33,33,1,,,,,,,,,,,,,,,,,,,,,,,,,,,,,,,,,,,,
,,,,,,,,,,,,,,,,,,,,,,,20,female,2020-07-28_15h33.02.191,torte-2b,2020.1.3,MacIntel,60,13284,,,,,,,,,,,,,,,,,,,2,,,,,,,0,34,34,34,1,,,,,,,,,,,,,,,,,,,,,,,,,,,,,,,,,,,,
,,,,,,,,,,,,,,,,,,,,,,,20,female,2020-07-28_15h33.02.191,torte-2b,2020.1.3,MacIntel,60,13284,,,,,,,,,,,,,,,,,,,3,,,,,,,,,,,,0,0,0,0,1,,,,,,,,,,,,,,,,,,,,,,,,,,,,,,,
,,,,,,,,,,,,,,,,,,,,,,,20,female,2020-07-28_15h33.02.191,torte-2b,2020.1.3,MacIntel,60,13284,,,,,,,,,,,,,,,,,,,7,,,,,,,,,,,,0,1,1,1,1,,,,,,,,,,,,,,,,,,,,,,,,,,,,,,,
,,,,,,,,,,,,,,,,,,,,,,,20,female,2020-07-28_15h33.02.191,torte-2b,2020.1.3,MacIntel,60,13284,,,,,,,,,,,,,space,,,,,,7,0.334,,,,,,,,,,,0,2,2,2,1,,,,,,,,,,,,,,,,,,,,,,,,,,,,,,,
,,,,,,,,,,,,,,,,,,,,,,,20,female,2020-07-28_15h33.02.191,torte-2b,2020.1.3,MacIntel,60,13284,,,,,,,,,,,,,,,,,,,4,,,,,,,,,,,,0,3,3,3,1,,,,,,,,,,,,,,,,,,,,,,,,,,,,,,,
,,,,,,,,,,,,,,,,,,,,,,,20,female,2020-07-28_15h33.02.191,torte-2b,2020.1.3,MacIntel,60,13284,,,,,,,,,,,,,,,,,,,5,,,,,,,,,,,,0,4,4,4,1,,,,,,,,,,,,,,,,,,,,,,,,,,,,,,,
,,,,,,,,,,,,,,,,,,,,,,,20,female,2020-07-28_15h33.02.191,torte-2b,2020.1.3,MacIntel,60,13284,,,,,,,,,,,,,space,,,,,,4,0.354,,,,,,,,,,,0,5,5,5,1,,,,,,,,,,,,,,,,,,,,,,,,,,,,,,,
,,,,,,,,,,,,,,,,,,,,,,,20,female,2020-07-28_15h33.02.191,torte-2b,2020.1.3,MacIntel,60,13284,,,,,,,,,,,,,,,,,,,2,,,,,,,,,,,,0,6,6,6,1,,,,,,,,,,,,,,,,,,,,,,,,,,,,,,,
,,,,,,,,,,,,,,,,,,,,,,,20,female,2020-07-28_15h33.02.191,torte-2b,2020.1.3,MacIntel,60,13284,,,,,,,,,,,,,space,,,,,,4,0.662,,,,,,,,,,,0,7,7,7,1,,,,,,,,,,,,,,,,,,,,,,,,,,,,,,,
,,,,,,,,,,,,,,,,,,,,,,,20,female,2020-07-28_15h33.02.191,torte-2b,2020.1.3,MacIntel,60,13284,,,,,,,,,,,,,space,,,,,,2,0.603,,,,,,,,,,,0,8,8,8,1,,,,,,,,,,,,,,,,,,,,,,,,,,,,,,,
,,,,,,,,,,,,,,,,,,,,,,,20,female,2020-07-28_15h33.02.191,torte-2b,2020.1.3,MacIntel,60,13284,,,,,,,,,,,,,,,,,,,2,,,,,,,,,,,,0,9,9,9,1,,,,,,,,,,,,,,,,,,,,,,,,,,,,,,,
,,,,,,,,,,,,,,,,,,,,,,,20,female,2020-07-28_15h33.02.191,torte-2b,2020.1.3,MacIntel,60,13284,,,,,,,,,,,,,,,,,,,6,,,,,,,,,,,,0,10,10,10,1,,,,,,,,,,,,,,,,,,,,,,,,,,,,,,,
,,,,,,,,,,,,,,,,,,,,,,,20,female,2020-07-28_15h33.02.191,torte-2b,2020.1.3,MacIntel,60,13284,,,,,,,,,,,,,,,,,,,2,,,,,,,,,,,,0,11,11,11,1,,,,,,,,,,,,,,,,,,,,,,,,,,,,,,,
,,,,,,,,,,,,,,,,,,,,,,,20,female,2020-07-28_15h33.02.191,torte-2b,2020.1.3,MacIntel,60,13284,,,,,,,,,,,,,,,,,,,2,,,,,,,,,,,,0,12,12,12,1,,,,,,,,,,,,,,,,,,,,,,,,,,,,,,,
,,,,,,,,,,,,,,,,,,,,,,,20,female,2020-07-28_15h33.02.191,torte-2b,2020.1.3,MacIntel,60,13284,,,,,,,,,,,,,,,,,,,2,,,,,,,,,,,,0,13,13,13,1,,,,,,,,,,,,,,,,,,,,,,,,,,,,,,,
,,,,,,,,,,,,,,,,,,,,,,,20,female,2020-07-28_15h33.02.191,torte-2b,2020.1.3,MacIntel,60,13284,,,,,,,,,,,,,space,,,,,,2,0.452,,,,,,,,,,,0,14,14,14,1,,,,,,,,,,,,,,,,,,,,,,,,,,,,,,,
,,,,,,,,,,,,,,,,,,,,,,,20,female,2020-07-28_15h33.02.191,torte-2b,2020.1.3,MacIntel,60,13284,,,,,,,,,,,,,,,,,,,4,,,,,,,,,,,,0,15,15,15,1,,,,,,,,,,,,,,,,,,,,,,,,,,,,,,,
,,,,,,,,,,,,,,,,,,,,,,,20,female,2020-07-28_15h33.02.191,torte-2b,2020.1.3,MacIntel,60,13284,,,,,,,,,,,,,,,,,,,3,,,,,,,,,,,,0,16,16,16,1,,,,,,,,,,,,,,,,,,,,,,,,,,,,,,,
,,,,,,,,,,,,,,,,,,,,,,,20,female,2020-07-28_15h33.02.191,torte-2b,2020.1.3,MacIntel,60,13284,,,,,,,,,,,,,,,,,,,7,,,,,,,,,,,,0,17,17,17,1,,,,,,,,,,,,,,,,,,,,,,,,,,,,,,,
,,,,,,,,,,,,,,,,,,,,,,,20,female,2020-07-28_15h33.02.191,torte-2b,2020.1.3,MacIntel,60,13284,,,,,,,,,,,,,,,,,,,4,,,,,,,,,,,,0,18,18,18,1,,,,,,,,,,,,,,,,,,,,,,,,,,,,,,,
,,,,,,,,,,,,,,,,,,,,,,,20,female,2020-07-28_15h33.02.191,torte-2b,2020.1.3,MacIntel,60,13284,,,,,,,,,,,,,,,,,,,7,,,,,,,,,,,,0,19,19,19,1,,,,,,,,,,,,,,,,,,,,,,,,,,,,,,,
,,,,,,,,,,,,,,,,,,,,,,,20,female,2020-07-28_15h33.02.191,torte-2b,2020.1.3,MacIntel,60,13284,,,,,,,,,,,,,space,,,,,,7,0.47,,,,,,,,,,,0,20,20,20,1,,,,,,,,,,,,,,,,,,,,,,,,,,,,,,,
,,,,,,,,,,,,,,,,,,,,,,,20,female,2020-07-28_15h33.02.191,torte-2b,2020.1.3,MacIntel,60,13284,,,,,,,,,,,,,,,,,,,7,,,,,,,,,,,,0,21,21,21,1,,,,,,,,,,,,,,,,,,,,,,,,,,,,,,,
,,,,,,,,,,,,,,,,,,,,,,,20,female,2020-07-28_15h33.02.191,torte-2b,2020.1.3,MacIntel,60,13284,,,,,,,,,,,,,space,,,,,,7,0.544,,,,,,,,,,,0,22,22,22,1,,,,,,,,,,,,,,,,,,,,,,,,,,,,,,,
,,,,,,,,,,,,,,,,,,,,,,,20,female,2020-07-28_15h33.02.191,torte-2b,2020.1.3,MacIntel,60,13284,,,,,,,,,,,,,,,,,,,1,,,,,,,,,,,,0,23,23,23,1,,,,,,,,,,,,,,,,,,,,,,,,,,,,,,,
,,,,,,,,,,,,,,,,,,,,,,,20,female,2020-07-28_15h33.02.191,torte-2b,2020.1.3,MacIntel,60,13284,,,,,,,,,,,,,,,,,,,7,,,,,,,,,,,,0,24,24,24,1,,,,,,,,,,,,,,,,,,,,,,,,,,,,,,,
,,,,,,,,,,,,,,,,,,,,,,,20,female,2020-07-28_15h33.02.191,torte-2b,2020.1.3,MacIntel,60,13284,,,,,,,,,,,,,space,,,,,,1,0.48,,,,,,,,,,,0,25,25,25,1,,,,,,,,,,,,,,,,,,,,,,,,,,,,,,,
,,,,,,,,,,,,,,,,,,,,,,,20,female,2020-07-28_15h33.02.191,torte-2b,2020.1.3,MacIntel,60,13284,,,,,,,,,,,,,,,,,,,7,,,,,,,,,,,,0,26,26,26,1,,,,,,,,,,,,,,,,,,,,,,,,,,,,,,,
,,,,,,,,,,,,,,,,,,,,,,,20,female,2020-07-28_15h33.02.191,torte-2b,2020.1.3,MacIntel,60,13284,,,,,,,,,,,,,,,,,,,2,,,,,,,,,,,,0,27,27,27,1,,,,,,,,,,,,,,,,,,,,,,,,,,,,,,,
,,,,,,,,,,,,,,,,,,,,,,,20,female,2020-07-28_15h33.02.191,torte-2b,2020.1.3,MacIntel,60,13284,,,,,,,,,,,,,,,,,,,5,,,,,,,,,,,,0,28,28,28,1,,,,,,,,,,,,,,,,,,,,,,,,,,,,,,,
,,,,,,,,,,,,,,,,,,,,,,,20,female,2020-07-28_15h33.02.191,torte-2b,2020.1.3,MacIntel,60,13284,,,,,,,,,,,,,,,,,,,5,,,,,,,,,,,,0,29,29,29,1,,,,,,,,,,,,,,,,,,,,,,,,,,,,,,,
,,,,,,,,,,,,,,,,,,,,,,,20,female,2020-07-28_15h33.02.191,torte-2b,2020.1.3,MacIntel,60,13284,,,,,,,,,,,,,space,,,,,,5,0.548,,,,,,,,,,,0,30,30,30,1,,,,,,,,,,,,,,,,,,,,,,,,,,,,,,,
,,,,,,,,,,,,,,,,,,,,,,,20,female,2020-07-28_15h33.02.191,torte-2b,2020.1.3,MacIntel,60,13284,,,,,,,,,,,,,,,,,,,1,,,,,,,,,,,,0,31,31,31,1,,,,,,,,,,,,,,,,,,,,,,,,,,,,,,,
,,,,,,,,,,,,,,,,,,,,,,,20,female,2020-07-28_15h33.02.191,torte-2b,2020.1.3,MacIntel,60,13284,,,,,,,,,,,,,,,,,,,5,,,,,,,,,,,,0,32,32,32,1,,,,,,,,,,,,,,,,,,,,,,,,,,,,,,,
,,,,,,,,,,,,,,,,,,,,,,,20,female,2020-07-28_15h33.02.191,torte-2b,2020.1.3,MacIntel,60,13284,,,,,,,,,,,,,,,,,,,3,,,,,,,,,,,,0,33,33,33,1,,,,,,,,,,,,,,,,,,,,,,,,,,,,,,,
,,,,,,,,,,,,,,,,,,,,,,,20,female,2020-07-28_15h33.02.191,torte-2b,2020.1.3,MacIntel,60,13284,,,,,,,,,,,,,space,,,,,,3,0.512,,,,,,,,,,,0,34,34,34,1,,,,,,,,,,,,,,,,,,,,,,,,,,,,,,,
,,,,,,,,,,,,l,Correct!,,,,,,t1.png,t4.png,3,0.0000131,20,female,2020-07-28_15h33.02.191,torte-2b,2020.1.3,MacIntel,60,13284,0.866,space,2.823,,,,,,,,,,,,,,,,,,,,,,,,,,,,,,,,,space,19.627,0,0,0,106,1,,,,,,,,,,,,,,,,,,,,,,,,
,,,,,,,,,,,,l,Incorrect,,,,,,t5.png,t5.png,0,0.978,20,female,2020-07-28_15h33.02.191,torte-2b,2020.1.3,MacIntel,60,13284,1.098,,,,,,,,,,,,,,,,,,,,,,,,,,,,,,,,,,,,,0,1,1,116,1,,,,,,,,,,,,,,,,,,,,,,,,
,,,,,,,,,,,,a,Correct!,,,,,,t4.png,t3.png,1,0.909,20,female,2020-07-28_15h33.02.191,torte-2b,2020.1.3,MacIntel,60,13284,2.001,,,,,,,,,,,,,,,,,,,,,,,,,,,,,,,,,,,,,0,2,2,119,1,,,,,,,,,,,,,,,,,,,,,,,,
,,,,,,,,,,,,a,Correct!,,,,,,t2.png,t1.png,1,0.90025,20,female,2020-07-28_15h33.02.191,torte-2b,2020.1.3,MacIntel,60,13284,1.39,,,,,,,,,,,,,,,,,,,,,,,,,,,,,,,,,,,,,0,3,3,44,1,,,,,,,,,,,,,,,,,,,,,,,,
,,,,,,,,,,,,l,Incorrect,,,,,,t2.png,t3.png,1,0.90855,20,female,2020-07-28_15h33.02.191,torte-2b,2020.1.3,MacIntel,60,13284,0.584,,,,,,,,,,,,,,,,,,,,,,,,,,,,,,,,,,,,,0,4,4,79,1,,,,,,,,,,,,,,,,,,,,,,,,
,,,,,,,,,,,,a,Correct!,,,,,,t2.png,t1.png,1,0.9,20,female,2020-07-28_15h33.02.191,torte-2b,2020.1.3,MacIntel,60,13284,0.582,,,,,,,,,,,,,,,,,,,,,,,,,,,,,,,,,,,,,0,5,5,100,1,,,,,,,,,,,,,,,,,,,,,,,,
,,,,,,,,,,,,a,Correct!,,,,,,t5.png,t5.png,0,0.97829,20,female,2020-07-28_15h33.02.191,torte-2b,2020.1.3,MacIntel,60,13284,0.666,,,,,,,,,,,,,,,,,,,,,,,,,,,,,,,,,,,,,0,6,6,35,1,,,,,,,,,,,,,,,,,,,,,,,,
,,,,,,,,,,,,a,Correct!,,,,,,t4.png,t5.png,1,0.90025,20,female,2020-07-28_15h33.02.191,torte-2b,2020.1.3,MacIntel,60,13284,0.373,,,,,,,,,,,,,,,,,,,,,,,,,,,,,,,,,,,,,0,7,7,86,1,,,,,,,,,,,,,,,,,,,,,,,,
,,,,,,,,,,,,a,Correct!,,,,,,t4.png,t3.png,1,0.90855,20,female,2020-07-28_15h33.02.191,torte-2b,2020.1.3,MacIntel,60,13284,0.498,,,,,,,,,,,,,,,,,,,,,,,,,,,,,,,,,,,,,0,8,8,29,1,,,,,,,,,,,,,,,,,,,,,,,,
,,,,,,,,,,,,a,Correct!,,,,,,t5.png,t5.png,0,0.97829,20,female,2020-07-28_15h33.02.191,torte-2b,2020.1.3,MacIntel,60,13284,0.519,,,,,,,,,,,,,,,,,,,,,,,,,,,,,,,,,,,,,0,9,9,2,1,,,,,,,,,,,,,,,,,,,,,,,,
,,,,,,,,,,,,a,Correct!,,,,,,t1.png,t1.png,0,0.97829,20,female,2020-07-28_15h33.02.191,torte-2b,2020.1.3,MacIntel,60,13284,0.666,,,,,,,,,,,,,,,,,,,,,,,,,,,,,,,,,,,,,0,10,10,4,1,,,,,,,,,,,,,,,,,,,,,,,,
,,,,,,,,,,,,l,Correct!,,,,,,t2.png,t5.png,3,0.0000131,20,female,2020-07-28_15h33.02.191,torte-2b,2020.1.3,MacIntel,60,13284,0.433,,,,,,,,,,,,,,,,,,,,,,,,,,,,,,,,,,,,,0,11,11,85,1,,,,,,,,,,,,,,,,,,,,,,,,
,,,,,,,,,,,,a,Incorrect,,,,,,t5.png,t3.png,2,0.056466,20,female,2020-07-28_15h33.02.191,torte-2b,2020.1.3,MacIntel,60,13284,0.432,,,,,,,,,,,,,,,,,,,,,,,,,,,,,,,,,,,,,0,12,12,37,1,,,,,,,,,,,,,,,,,,,,,,,,
,,,,,,,,,,,,l,Incorrect,,,,,,t2.png,t3.png,1,0.909,20,female,2020-07-28_15h33.02.191,torte-2b,2020.1.3,MacIntel,60,13284,0.817,,,,,,,,,,,,,,,,,,,,,,,,,,,,,,,,,,,,,0,13,13,8,1,,,,,,,,,,,,,,,,,,,,,,,,
,,,,,,,,,,,,a,Incorrect,,,,,,t3.png,t1.png,2,0.0565,20,female,2020-07-28_15h33.02.191,torte-2b,2020.1.3,MacIntel,60,13284,0.399,,,,,,,,,,,,,,,,,,,,,,,,,,,,,,,,,,,,,0,14,14,104,1,,,,,,,,,,,,,,,,,,,,,,,,
,,,,,,,,,,,,l,Correct!,,,,,,t3.png,t5.png,2,0.056466,20,female,2020-07-28_15h33.02.191,torte-2b,2020.1.3,MacIntel,60,13284,0.657,,,,,,,,,,,,,,,,,,,,,,,,,,,,,,,,,,,,,0,15,15,45,1,,,,,,,,,,,,,,,,,,,,,,,,
,,,,,,,,,,,,a,Incorrect,,,,,,t5.png,t1.png,4,9.55E-11,20,female,2020-07-28_15h33.02.191,torte-2b,2020.1.3,MacIntel,60,13284,0.406,,,,,,,,,,,,,,,,,,,,,,,,,,,,,,,,,,,,,0,16,16,117,1,,,,,,,,,,,,,,,,,,,,,,,,
,,,,,,,,,,,,a,Incorrect,,,,,,t5.png,t2.png,3,0.0000131,20,female,2020-07-28_15h33.02.191,torte-2b,2020.1.3,MacIntel,60,13284,0.533,,,,,,,,,,,,,,,,,,,,,,,,,,,,,,,,,,,,,0,17,17,43,1,,,,,,,,,,,,,,,,,,,,,,,,
,,,,,,,,,,,,a,Correct!,,,,,,t2.png,t1.png,1,0.90025,20,female,2020-07-28_15h33.02.191,torte-2b,2020.1.3,MacIntel,60,13284,0.533,,,,,,,,,,,,,,,,,,,,,,,,,,,,,,,,,,,,,0,18,18,105,1,,,,,,,,,,,,,,,,,,,,,,,,
,,,,,,,,,,,,l,Correct!,,,,,,t1.png,t5.png,4,9.55E-11,20,female,2020-07-28_15h33.02.191,torte-2b,2020.1.3,MacIntel,60,13284,0.498,,,,,,,,,,,,,,,,,,,,,,,,,,,,,,,,,,,,,0,19,19,30,1,,,,,,,,,,,,,,,,,,,,,,,,
,,,,,,,,,,,,l,Incorrect,,,,,,t4.png,t4.png,0,0.98115,20,female,2020-07-28_15h33.02.191,torte-2b,2020.1.3,MacIntel,60,13284,0.667,,,,,,,,,,,,,,,,,,,,,,,,,,,,,,,,,,,,,0,20,20,68,1,,,,,,,,,,,,,,,,,,,,,,,,
,,,,,,,,,,,,l,Incorrect,,,,,,t2.png,t3.png,1,0.90855,20,female,2020-07-28_15h33.02.191,torte-2b,2020.1.3,MacIntel,60,13284,0.703,,,,,,,,,,,,,,,,,,,,,,,,,,,,,,,,,,,,,0,21,21,70,1,,,,,,,,,,,,,,,,,,,,,,,,
,,,,,,,,,,,,l,Correct!,,,,,,t1.png,t5.png,4,9.55E-11,20,female,2020-07-28_15h33.02.191,torte-2b,2020.1.3,MacIntel,60,13284,0.433,,,,,,,,,,,,,,,,,,,,,,,,,,,,,,,,,,,,,0,22,22,3,1,,,,,,,,,,,,,,,,,,,,,,,,
,,,,,,,,,,,,l,Incorrect,,,,,,t3.png,t4.png,1,0.90855,20,female,2020-07-28_15h33.02.191,torte-2b,2020.1.3,MacIntel,60,13284,0.717,,,,,,,,,,,,,,,,,,,,,,,,,,,,,,,,,,,,,0,23,23,5,1,,,,,,,,,,,,,,,,,,,,,,,,
,,,,,,,,,,,,l,Correct!,,,,,,t3.png,t5.png,2,0.056466,20,female,2020-07-28_15h33.02.191,torte-2b,2020.1.3,MacIntel,60,13284,0.49,,,,,,,,,,,,,,,,,,,,,,,,,,,,,,,,,,,,,0,24,24,60,1,,,,,,,,,,,,,,,,,,,,,,,,
,,,,,,,,,,,,l,Correct!,,,,,,t3.png,t5.png,2,0.056466,20,female,2020-07-28_15h33.02.191,torte-2b,2020.1.3,MacIntel,60,13284,0.424,,,,,,,,,,,,,,,,,,,,,,,,,,,,,,,,,,,,,0,25,25,78,1,,,,,,,,,,,,,,,,,,,,,,,,
,,,,,,,,,,,,a,Correct!,,,,,,t5.png,t4.png,1,0.9,20,female,2020-07-28_15h33.02.191,torte-2b,2020.1.3,MacIntel,60,13284,0.657,,,,,,,,,,,,,,,,,,,,,,,,,,,,,,,,,,,,,0,26,26,92,1,,,,,,,,,,,,,,,,,,,,,,,,
,,,,,,,,,,,,l,Incorrect,,,,,,t1.png,t2.png,1,0.9,20,female,2020-07-28_15h33.02.191,torte-2b,2020.1.3,MacIntel,60,13284,0.434,,,,,,,,,,,,,,,,,,,,,,,,,,,,,,,,,,,,,0,27,27,17,1,,,,,,,,,,,,,,,,,,,,,,,,
,,,,,,,,,,,,a,Correct!,,,,,,t5.png,t4.png,1,0.90025,20,female,2020-07-28_15h33.02.191,torte-2b,2020.1.3,MacIntel,60,13284,0.649,,,,,,,,,,,,,,,,,,,,,,,,,,,,,,,,,,,,,0,28,28,25,1,,,,,,,,,,,,,,,,,,,,,,,,
,,,,,,,,,,,,a,Incorrect,,,,,,t2.png,t1.png,1,0.9,20,female,2020-07-28_15h33.02.191,torte-2b,2020.1.3,MacIntel,60,13284,0.467,,,,,,,,,,,,,,,,,,,,,,,,,,,,,,,,,,,,,0,29,29,93,1,,,,,,,,,,,,,,,,,,,,,,,,
,,,,,,,,,,,,l,Incorrect,,,,,,t4.png,t5.png,1,0.90025,20,female,2020-07-28_15h33.02.191,torte-2b,2020.1.3,MacIntel,60,13284,0.55,,,,,,,,,,,,,,,,,,,,,,,,,,,,,,,,,,,,,0,30,30,33,1,,,,,,,,,,,,,,,,,,,,,,,,
,,,,,,,,,,,,a,Correct!,,,,,,t3.png,t2.png,1,0.90855,20,female,2020-07-28_15h33.02.191,torte-2b,2020.1.3,MacIntel,60,13284,0.406,,,,,,,,,,,,,,,,,,,,,,,,,,,,,,,,,,,,,0,31,31,108,1,,,,,,,,,,,,,,,,,,,,,,,,
,,,,,,,,,,,,a,Incorrect,,,,,,t4.png,t1.png,3,0.0000131,20,female,2020-07-28_15h33.02.191,torte-2b,2020.1.3,MacIntel,60,13284,0.382,,,,,,,,,,,,,,,,,,,,,,,,,,,,,,,,,,,,,0,32,32,28,1,,,,,,,,,,,,,,,,,,,,,,,,
,,,,,,,,,,,,a,Incorrect,,,,,,t4.png,t1.png,3,0.059078,20,female,2020-07-28_15h33.02.191,torte-2b,2020.1.3,MacIntel,60,13284,0.372,,,,,,,,,,,,,,,,,,,,,,,,,,,,,,,,,,,,,0,33,33,62,1,,,,,,,,,,,,,,,,,,,,,,,,
,,,,,,,,,,,,a,Correct!,,,,,,t1.png,t1.png,0,0.978,20,female,2020-07-28_15h33.02.191,torte-2b,2020.1.3,MacIntel,60,13284,0.559,,,,,,,,,,,,,,,,,,,,,,,,,,,,,,,,,,,,,0,34,34,13,1,,,,,,,,,,,,,,,,,,,,,,,,
,,,,,,,,,,,,l,Incorrect,,,,,,t4.png,t5.png,1,0.9,20,female,2020-07-28_15h33.02.191,torte-2b,2020.1.3,MacIntel,60,13284,0.706,,,,,,,,,,,,,,,,,,,,,,,,,,,,,,,,,,,,,0,35,35,81,1,,,,,,,,,,,,,,,,,,,,,,,,
,,,,,,,,,,,,a,Correct!,,,,,,t2.png,t2.png,0,0.981,20,female,2020-07-28_15h33.02.191,torte-2b,2020.1.3,MacIntel,60,13284,0.842,,,,,,,,,,,,,,,,,,,,,,,,,,,,,,,,,,,,,0,36,36,98,1,,,,,,,,,,,,,,,,,,,,,,,,
,,,,,,,,,,,,a,Incorrect,,,,,,t4.png,t1.png,3,0.0000131,20,female,2020-07-28_15h33.02.191,torte-2b,2020.1.3,MacIntel,60,13284,0.549,,,,,,,,,,,,,,,,,,,,,,,,,,,,,,,,,,,,,0,37,37,102,1,,,,,,,,,,,,,,,,,,,,,,,,
,,,,,,,,,,,,l,Incorrect,,,,,,t2.png,t3.png,1,0.90855,20,female,2020-07-28_15h33.02.191,torte-2b,2020.1.3,MacIntel,60,13284,0.848,,,,,,,,,,,,,,,,,,,,,,,,,,,,,,,,,,,,,0,38,38,113,1,,,,,,,,,,,,,,,,,,,,,,,,
,,,,,,,,,,,,l,Correct!,,,,,,t1.png,t4.png,3,0.0000131,20,female,2020-07-28_15h33.02.191,torte-2b,2020.1.3,MacIntel,60,13284,0.419,,,,,,,,,,,,,,,,,,,,,,,,,,,,,,,,,,,,,0,39,39,74,1,,,,,,,,,,,,,,,,,,,,,,,,
,,,,,,,,,,,,a,Correct!,,,,,,t2.png,t2.png,0,0.98115,20,female,2020-07-28_15h33.02.191,torte-2b,2020.1.3,MacIntel,60,13284,0.68,,,,,,,,,,,,,,,,,,,,,,,,,,,,,,,,,,,,,0,40,40,69,1,,,,,,,,,,,,,,,,,,,,,,,,
,,,,,,,,,,,,l,Correct!,,,,,,t2.png,t5.png,3,0.0000131,20,female,2020-07-28_15h33.02.191,torte-2b,2020.1.3,MacIntel,60,13284,0.392,,,,,,,,,,,,,,,,,,,,,,,,,,,,,,,,,,,,,0,41,41,39,1,,,,,,,,,,,,,,,,,,,,,,,,
,,,,,,,,,,,,l,Incorrect,,,,,,t3.png,t4.png,1,0.90855,20,female,2020-07-28_15h33.02.191,torte-2b,2020.1.3,MacIntel,60,13284,0.587,,,,,,,,,,,,,,,,,,,,,,,,,,,,,,,,,,,,,0,42,42,103,1,,,,,,,,,,,,,,,,,,,,,,,,
,,,,,,,,,,,,l,Incorrect,,,,,,t1.png,t1.png,0,0.97829,20,female,2020-07-28_15h33.02.191,torte-2b,2020.1.3,MacIntel,60,13284,0.542,,,,,,,,,,,,,,,,,,,,,,,,,,,,,,,,,,,,,0,43,43,114,1,,,,,,,,,,,,,,,,,,,,,,,,
,,,,,,,,,,,,l,Incorrect,,,,,,t1.png,t2.png,1,0.9,20,female,2020-07-28_15h33.02.191,torte-2b,2020.1.3,MacIntel,60,13284,0.5,,,,,,,,,,,,,,,,,,,,,,,,,,,,,,,,,,,,,0,44,44,61,1,,,,,,,,,,,,,,,,,,,,,,,,
,,,,,,,,,,,,l,Incorrect,,,,,,t1.png,t2.png,1,0.90025,20,female,2020-07-28_15h33.02.191,torte-2b,2020.1.3,MacIntel,60,13284,0.432,,,,,,,,,,,,,,,,,,,,,,,,,,,,,,,,,,,,,0,45,45,6,1,,,,,,,,,,,,,,,,,,,,,,,,
,,,,,,,,,,,,l,Correct!,,,,,,t1.png,t3.png,2,0.0565,20,female,2020-07-28_15h33.02.191,torte-2b,2020.1.3,MacIntel,60,13284,0.367,,,,,,,,,,,,,,,,,,,,,,,,,,,,,,,,,,,,,0,46,46,95,1,,,,,,,,,,,,,,,,,,,,,,,,
,,,,,,,,,,,,l,Correct!,,,,,,t2.png,t4.png,2,0.059078,20,female,2020-07-28_15h33.02.191,torte-2b,2020.1.3,MacIntel,60,13284,0.391,,,,,,,,,,,,,,,,,,,,,,,,,,,,,,,,,,,,,0,47,47,53,1,,,,,,,,,,,,,,,,,,,,,,,,
,,,,,,,,,,,,a,Incorrect,,,,,,t3.png,t1.png,2,0.056466,20,female,2020-07-28_15h33.02.191,torte-2b,2020.1.3,MacIntel,60,13284,0.626,,,,,,,,,,,,,,,,,,,,,,,,,,,,,,,,,,,,,0,48,48,34,1,,,,,,,,,,,,,,,,,,,,,,,,
,,,,,,,,,,,,l,Incorrect,,,,,,t1.png,t2.png,1,0.90025,20,female,2020-07-28_15h33.02.191,torte-2b,2020.1.3,MacIntel,60,13284,0.532,,,,,,,,,,,,,,,,,,,,,,,,,,,,,,,,,,,,,0,49,49,96,1,,,,,,,,,,,,,,,,,,,,,,,,
,,,,,,,,,,,,a,Correct!,,,,,,t2.png,t1.png,1,0.90025,20,female,2020-07-28_15h33.02.191,torte-2b,2020.1.3,MacIntel,60,13284,0.408,,,,,,,,,,,,,,,,,,,,,,,,,,,,,,,,,,,,,0,50,50,65,1,,,,,,,,,,,,,,,,,,,,,,,,
,,,,,,,,,,,,a,Incorrect,,,,,,t3.png,t1.png,2,0.0565,20,female,2020-07-28_15h33.02.191,torte-2b,2020.1.3,MacIntel,60,13284,0.591,,,,,,,,,,,,,,,,,,,,,,,,,,,,,,,,,,,,,0,51,51,40,1,,,,,,,,,,,,,,,,,,,,,,,,
,,,,,,,,,,,,l,Incorrect,,,,,,t1.png,t2.png,1,0.9,20,female,2020-07-28_15h33.02.191,torte-2b,2020.1.3,MacIntel,60,13284,0.433,,,,,,,,,,,,,,,,,,,,,,,,,,,,,,,,,,,,,0,52,52,41,1,,,,,,,,,,,,,,,,,,,,,,,,
,,,,,,,,,,,,a,Incorrect,,,,,,t5.png,t2.png,3,0.0000131,20,female,2020-07-28_15h33.02.191,torte-2b,2020.1.3,MacIntel,60,13284,0.539,,,,,,,,,,,,,,,,,,,,,,,,,,,,,,,,,,,,,0,53,53,48,1,,,,,,,,,,,,,,,,,,,,,,,,
,,,,,,,,,,,,a,Incorrect,,,,,,t4.png,t1.png,3,0.0000131,20,female,2020-07-28_15h33.02.191,torte-2b,2020.1.3,MacIntel,60,13284,0.699,,,,,,,,,,,,,,,,,,,,,,,,,,,,,,,,,,,,,0,54,54,91,1,,,,,,,,,,,,,,,,,,,,,,,,
,,,,,,,,,,,,a,Correct!,,,,,,t4.png,t4.png,0,0.98115,20,female,2020-07-28_15h33.02.191,torte-2b,2020.1.3,MacIntel,60,13284,0.522,,,,,,,,,,,,,,,,,,,,,,,,,,,,,,,,,,,,,0,55,55,88,1,,,,,,,,,,,,,,,,,,,,,,,,
,,,,,,,,,,,,a,Incorrect,,,,,,t3.png,t1.png,2,0.056466,20,female,2020-07-28_15h33.02.191,torte-2b,2020.1.3,MacIntel,60,13284,0.381,,,,,,,,,,,,,,,,,,,,,,,,,,,,,,,,,,,,,0,56,56,72,1,,,,,,,,,,,,,,,,,,,,,,,,
,,,,,,,,,,,,l,Correct!,,,,,,t1.png,t5.png,4,9.55E-11,20,female,2020-07-28_15h33.02.191,torte-2b,2020.1.3,MacIntel,60,13284,0.401,,,,,,,,,,,,,,,,,,,,,,,,,,,,,,,,,,,,,0,57,57,20,1,,,,,,,,,,,,,,,,,,,,,,,,
,,,,,,,,,,,,l,Incorrect,,,,,,t2.png,t2.png,0,0.98115,20,female,2020-07-28_15h33.02.191,torte-2b,2020.1.3,MacIntel,60,13284,0.934,,,,,,,,,,,,,,,,,,,,,,,,,,,,,,,,,,,,,0,58,58,112,1,,,,,,,,,,,,,,,,,,,,,,,,
,,,,,,,,,,,,l,Correct!,,,,,,t2.png,t4.png,2,0.059078,20,female,2020-07-28_15h33.02.191,torte-2b,2020.1.3,MacIntel,60,13284,0.382,,,,,,,,,,,,,,,,,,,,,,,,,,,,,,,,,,,,,0,59,59,84,1,,,,,,,,,,,,,,,,,,,,,,,,
,,,,,,,,,,,,a,Incorrect,,,,,,t4.png,t1.png,3,0.059078,20,female,2020-07-28_15h33.02.191,torte-2b,2020.1.3,MacIntel,60,13284,0.398,,,,,,,,,,,,,,,,,,,,,,,,,,,,,,,,,,,,,0,60,60,73,1,,,,,,,,,,,,,,,,,,,,,,,,
,,,,,,,,,,,,l,Correct!,,,,,,t1.png,t4.png,3,0.0000131,20,female,2020-07-28_15h33.02.191,torte-2b,2020.1.3,MacIntel,60,13284,0.483,,,,,,,,,,,,,,,,,,,,,,,,,,,,,,,,,,,,,0,61,61,36,1,,,,,,,,,,,,,,,,,,,,,,,,
,,,,,,,,,,,,a,Incorrect,,,,,,t5.png,t3.png,2,0.056466,20,female,2020-07-28_15h33.02.191,torte-2b,2020.1.3,MacIntel,60,13284,0.408,,,,,,,,,,,,,,,,,,,,,,,,,,,,,,,,,,,,,0,62,62,27,1,,,,,,,,,,,,,,,,,,,,,,,,
,,,,,,,,,,,,a,Correct!,,,,,,t3.png,t2.png,1,0.90855,20,female,2020-07-28_15h33.02.191,torte-2b,2020.1.3,MacIntel,60,13284,0.424,,,,,,,,,,,,,,,,,,,,,,,,,,,,,,,,,,,,,0,63,63,99,1,,,,,,,,,,,,,,,,,,,,,,,,
,,,,,,,,,,,,a,Correct!,,,,,,t3.png,t2.png,1,0.90855,20,female,2020-07-28_15h33.02.191,torte-2b,2020.1.3,MacIntel,60,13284,0.354,,,,,,,,,,,,,,,,,,,,,,,,,,,,,,,,,,,,,0,64,64,94,1,,,,,,,,,,,,,,,,,,,,,,,,
,,,,,,,,,,,,a,Incorrect,,,,,,t5.png,t1.png,4,9.55E-11,20,female,2020-07-28_15h33.02.191,torte-2b,2020.1.3,MacIntel,60,13284,0.409,,,,,,,,,,,,,,,,,,,,,,,,,,,,,,,,,,,,,0,65,65,31,1,,,,,,,,,,,,,,,,,,,,,,,,
,,,,,,,,,,,,a,Correct!,,,,,,t3.png,t2.png,1,0.90855,20,female,2020-07-28_15h33.02.191,torte-2b,2020.1.3,MacIntel,60,13284,0.339,,,,,,,,,,,,,,,,,,,,,,,,,,,,,,,,,,,,,0,66,66,0,1,,,,,,,,,,,,,,,,,,,,,,,,
,,,,,,,,,,,,l,Incorrect,,,,,,t3.png,t4.png,1,0.90855,20,female,2020-07-28_15h33.02.191,torte-2b,2020.1.3,MacIntel,60,13284,0.49,,,,,,,,,,,,,,,,,,,,,,,,,,,,,,,,,,,,,0,67,67,9,1,,,,,,,,,,,,,,,,,,,,,,,,
,,,,,,,,,,,,l,Incorrect,,,,,,t3.png,t4.png,1,0.90855,20,female,2020-07-28_15h33.02.191,torte-2b,2020.1.3,MacIntel,60,13284,0.478,,,,,,,,,,,,,,,,,,,,,,,,,,,,,,,,,,,,,0,68,68,111,1,,,,,,,,,,,,,,,,,,,,,,,,
,,,,,,,,,,,,l,Correct!,,,,,,t1.png,t5.png,4,9.55E-11,20,female,2020-07-28_15h33.02.191,torte-2b,2020.1.3,MacIntel,60,13284,0.432,,,,,,,,,,,,,,,,,,,,,,,,,,,,,,,,,,,,,0,69,69,118,1,,,,,,,,,,,,,,,,,,,,,,,,
,,,,,,,,,,,,a,Incorrect,,,,,,t5.png,t1.png,4,9.55E-11,20,female,2020-07-28_15h33.02.191,torte-2b,2020.1.3,MacIntel,60,13284,0.415,,,,,,,,,,,,,,,,,,,,,,,,,,,,,,,,,,,,,0,70,70,101,1,,,,,,,,,,,,,,,,,,,,,,,,
,,,,,,,,,,,,a,Incorrect,,,,,,t5.png,t3.png,2,0.056466,20,female,2020-07-28_15h33.02.191,torte-2b,2020.1.3,MacIntel,60,13284,0.449,,,,,,,,,,,,,,,,,,,,,,,,,,,,,,,,,,,,,0,71,71,80,1,,,,,,,,,,,,,,,,,,,,,,,,
,,,,,,,,,,,,l,Correct!,,,,,,t1.png,t3.png,2,0.0565,20,female,2020-07-28_15h33.02.191,torte-2b,2020.1.3,MacIntel,60,13284,0.751,,,,,,,,,,,,,,,,,,,,,,,,,,,,,,,,,,,,,0,72,72,12,1,,,,,,,,,,,,,,,,,,,,,,,,
,,,,,,,,,,,,a,Incorrect,,,,,,t4.png,t1.png,3,0.0000131,20,female,2020-07-28_15h33.02.191,torte-2b,2020.1.3,MacIntel,60,13284,0.461,,,,,,,,,,,,,,,,,,,,,,,,,,,,,,,,,,,,,0,73,73,76,1,,,,,,,,,,,,,,,,,,,,,,,,
,,,,,,,,,,,,l,Correct!,,,,,,t1.png,t4.png,3,0.0000131,20,female,2020-07-28_15h33.02.191,torte-2b,2020.1.3,MacIntel,60,13284,0.481,,,,,,,,,,,,,,,,,,,,,,,,,,,,,,,,,,,,,0,74,74,23,1,,,,,,,,,,,,,,,,,,,,,,,,
,,,,,,,,,,,,l,Incorrect,,,,,,t5.png,t5.png,0,0.978,20,female,2020-07-28_15h33.02.191,torte-2b,2020.1.3,MacIntel,60,13284,0.569,,,,,,,,,,,,,,,,,,,,,,,,,,,,,,,,,,,,,0,75,75,51,1,,,,,,,,,,,,,,,,,,,,,,,,
,,,,,,,,,,,,a,Correct!,,,,,,t5.png,t4.png,1,0.9,20,female,2020-07-28_15h33.02.191,torte-2b,2020.1.3,MacIntel,60,13284,0.654,,,,,,,,,,,,,,,,,,,,,,,,,,,,,,,,,,,,,0,76,76,55,1,,,,,,,,,,,,,,,,,,,,,,,,
,,,,,,,,,,,,a,Correct!,,,,,,t3.png,t2.png,1,0.90855,20,female,2020-07-28_15h33.02.191,torte-2b,2020.1.3,MacIntel,60,13284,0.522,,,,,,,,,,,,,,,,,,,,,,,,,,,,,,,,,,,,,0,77,77,10,1,,,,,,,,,,,,,,,,,,,,,,,,
,,,,,,,,,,,,a,Incorrect,,,,,,t5.png,t3.png,2,0.056466,20,female,2020-07-28_15h33.02.191,torte-2b,2020.1.3,MacIntel,60,13284,0.37,,,,,,,,,,,,,,,,,,,,,,,,,,,,,,,,,,,,,0,78,78,26,1,,,,,,,,,,,,,,,,,,,,,,,,
,,,,,,,,,,,,a,Correct!,,,,,,t4.png,t3.png,1,0.90855,20,female,2020-07-28_15h33.02.191,torte-2b,2020.1.3,MacIntel,60,13284,0.364,,,,,,,,,,,,,,,,,,,,,,,,,,,,,,,,,,,,,0,79,79,11,1,,,,,,,,,,,,,,,,,,,,,,,,
,,,,,,,,,,,,l,Correct!,,,,,,t1.png,t3.png,2,0.056466,20,female,2020-07-28_15h33.02.191,torte-2b,2020.1.3,MacIntel,60,13284,0.683,,,,,,,,,,,,,,,,,,,,,,,,,,,,,,,,,,,,,0,80,80,32,1,,,,,,,,,,,,,,,,,,,,,,,,
,,,,,,,,,,,,l,Correct!,,,,,,t3.png,t5.png,2,0.0565,20,female,2020-07-28_15h33.02.191,torte-2b,2020.1.3,MacIntel,60,13284,0.414,,,,,,,,,,,,,,,,,,,,,,,,,,,,,,,,,,,,,0,81,81,71,1,,,,,,,,,,,,,,,,,,,,,,,,
,,,,,,,,,,,,a,Incorrect,,,,,,t4.png,t1.png,3,0.059078,20,female,2020-07-28_15h33.02.191,torte-2b,2020.1.3,MacIntel,60,13284,0.387,,,,,,,,,,,,,,,,,,,,,,,,,,,,,,,,,,,,,0,82,82,87,1,,,,,,,,,,,,,,,,,,,,,,,,
,,,,,,,,,,,,a,Correct!,,,,,,t4.png,t3.png,1,0.90855,20,female,2020-07-28_15h33.02.191,torte-2b,2020.1.3,MacIntel,60,13284,0.409,,,,,,,,,,,,,,,,,,,,,,,,,,,,,,,,,,,,,0,83,83,56,1,,,,,,,,,,,,,,,,,,,,,,,,
,,,,,,,,,,,,a,Incorrect,,,,,,t5.png,t3.png,2,0.0565,20,female,2020-07-28_15h33.02.191,torte-2b,2020.1.3,MacIntel,60,13284,1.215,,,,,,,,,,,,,,,,,,,,,,,,,,,,,,,,,,,,,0,84,84,50,1,,,,,,,,,,,,,,,,,,,,,,,,
,,,,,,,,,,,,l,Incorrect,,,,,,t2.png,t3.png,1,0.90855,20,female,2020-07-28_15h33.02.191,torte-2b,2020.1.3,MacIntel,60,13284,0.589,,,,,,,,,,,,,,,,,,,,,,,,,,,,,,,,,,,,,0,85,85,64,1,,,,,,,,,,,,,,,,,,,,,,,,
,,,,,,,,,,,,l,Incorrect,,,,,,t2.png,t2.png,0,0.98115,20,female,2020-07-28_15h33.02.191,torte-2b,2020.1.3,MacIntel,60,13284,1.2,,,,,,,,,,,,,,,,,,,,,,,,,,,,,,,,,,,,,0,86,86,7,1,,,,,,,,,,,,,,,,,,,,,,,,
,,,,,,,,,,,,a,Incorrect,,,,,,t4.png,t1.png,3,0.059078,20,female,2020-07-28_15h33.02.191,torte-2b,2020.1.3,MacIntel,60,13284,0.487,,,,,,,,,,,,,,,,,,,,,,,,,,,,,,,,,,,,,0,87,87,57,1,,,,,,,,,,,,,,,,,,,,,,,,
,,,,,,,,,,,,a,Correct!,,,,,,t4.png,t4.png,0,0.98115,20,female,2020-07-28_15h33.02.191,torte-2b,2020.1.3,MacIntel,60,13284,0.685,,,,,,,,,,,,,,,,,,,,,,,,,,,,,,,,,,,,,0,88,88,59,1,,,,,,,,,,,,,,,,,,,,,,,,
,,,,,,,,,,,,a,Incorrect,,,,,,t5.png,t2.png,3,0.0000131,20,female,2020-07-28_15h33.02.191,torte-2b,2020.1.3,MacIntel,60,13284,0.394,,,,,,,,,,,,,,,,,,,,,,,,,,,,,,,,,,,,,0,89,89,66,1,,,,,,,,,,,,,,,,,,,,,,,,
,,,,,,,,,,,,l,Correct!,,,,,,t3.png,t5.png,2,0.056466,20,female,2020-07-28_15h33.02.191,torte-2b,2020.1.3,MacIntel,60,13284,0.558,,,,,,,,,,,,,,,,,,,,,,,,,,,,,,,,,,,,,0,90,90,47,1,,,,,,,,,,,,,,,,,,,,,,,,
,,,,,,,,,,,,l,Incorrect,,,,,,t4.png,t5.png,1,0.90025,20,female,2020-07-28_15h33.02.191,torte-2b,2020.1.3,MacIntel,60,13284,1.05,,,,,,,,,,,,,,,,,,,,,,,,,,,,,,,,,,,,,0,91,91,21,1,,,,,,,,,,,,,,,,,,,,,,,,
,,,,,,,,,,,,l,Correct!,,,,,,t2.png,t4.png,2,0.059078,20,female,2020-07-28_15h33.02.191,torte-2b,2020.1.3,MacIntel,60,13284,0.857,,,,,,,,,,,,,,,,,,,,,,,,,,,,,,,,,,,,,0,92,92,18,1,,,,,,,,,,,,,,,,,,,,,,,,
,,,,,,,,,,,,a,Incorrect,,,,,,t4.png,t3.png,1,0.909,20,female,2020-07-28_15h33.02.191,torte-2b,2020.1.3,MacIntel,60,13284,0.79,,,,,,,,,,,,,,,,,,,,,,,,,,,,,,,,,,,,,0,93,93,107,1,,,,,,,,,,,,,,,,,,,,,,,,
,,,,,,,,,,,,l,Correct!,,,,,,t1.png,t4.png,3,0.0000131,20,female,2020-07-28_15h33.02.191,torte-2b,2020.1.3,MacIntel,60,13284,0.616,,,,,,,,,,,,,,,,,,,,,,,,,,,,,,,,,,,,,0,94,94,16,1,,,,,,,,,,,,,,,,,,,,,,,,
,,,,,,,,,,,,l,Correct!,,,,,,t1.png,t3.png,2,0.056466,20,female,2020-07-28_15h33.02.191,torte-2b,2020.1.3,MacIntel,60,13284,0.515,,,,,,,,,,,,,,,,,,,,,,,,,,,,,,,,,,,,,0,95,95,24,1,,,,,,,,,,,,,,,,,,,,,,,,
,,,,,,,,,,,,l,Incorrect,,,,,,t4.png,t5.png,1,0.90025,20,female,2020-07-28_15h33.02.191,torte-2b,2020.1.3,MacIntel,60,13284,0.49,,,,,,,,,,,,,,,,,,,,,,,,,,,,,,,,,,,,,0,96,96,63,1,,,,,,,,,,,,,,,,,,,,,,,,
,,,,,,,,,,,,a,Incorrect,,,,,,t4.png,t1.png,3,0.059078,20,female,2020-07-28_15h33.02.191,torte-2b,2020.1.3,MacIntel,60,13284,0.575,,,,,,,,,,,,,,,,,,,,,,,,,,,,,,,,,,,,,0,97,97,75,1,,,,,,,,,,,,,,,,,,,,,,,,
,,,,,,,,,,,,a,Incorrect,,,,,,t5.png,t2.png,3,0.0000131,20,female,2020-07-28_15h33.02.191,torte-2b,2020.1.3,MacIntel,60,13284,0.59,,,,,,,,,,,,,,,,,,,,,,,,,,,,,,,,,,,,,0,98,98,82,1,,,,,,,,,,,,,,,,,,,,,,,,
,,,,,,,,,,,,l,Correct!,,,,,,t2.png,t5.png,3,0.0000131,20,female,2020-07-28_15h33.02.191,torte-2b,2020.1.3,MacIntel,60,13284,0.403,,,,,,,,,,,,,,,,,,,,,,,,,,,,,,,,,,,,,0,99,99,115,1,,,,,,,,,,,,,,,,,,,,,,,,
,,,,,,,,,,,,l,Correct!,,,,,,t2.png,t4.png,2,0.059078,20,female,2020-07-28_15h33.02.191,torte-2b,2020.1.3,MacIntel,60,13284,0.381,,,,,,,,,,,,,,,,,,,,,,,,,,,,,,,,,,,,,0,100,100,67,1,,,,,,,,,,,,,,,,,,,,,,,,
,,,,,,,,,,,,l,Correct!,,,,,,t2.png,t4.png,2,0.059078,20,female,2020-07-28_15h33.02.191,torte-2b,2020.1.3,MacIntel,60,13284,0.351,,,,,,,,,,,,,,,,,,,,,,,,,,,,,,,,,,,,,0,101,101,97,1,,,,,,,,,,,,,,,,,,,,,,,,
,,,,,,,,,,,,l,Incorrect,,,,,,t2.png,t2.png,0,0.98115,20,female,2020-07-28_15h33.02.191,torte-2b,2020.1.3,MacIntel,60,13284,1.582,,,,,,,,,,,,,,,,,,,,,,,,,,,,,,,,,,,,,0,102,102,90,1,,,,,,,,,,,,,,,,,,,,,,,,
,,,,,,,,,,,,l,Correct!,,,,,,t1.png,t3.png,2,0.0565,20,female,2020-07-28_15h33.02.191,torte-2b,2020.1.3,MacIntel,60,13284,0.916,,,,,,,,,,,,,,,,,,,,,,,,,,,,,,,,,,,,,0,103,103,42,1,,,,,,,,,,,,,,,,,,,,,,,,
,,,,,,,,,,,,l,Correct!,,,,,,t2.png,t5.png,3,0.0000131,20,female,2020-07-28_15h33.02.191,torte-2b,2020.1.3,MacIntel,60,13284,0.623,,,,,,,,,,,,,,,,,,,,,,,,,,,,,,,,,,,,,0,104,104,54,1,,,,,,,,,,,,,,,,,,,,,,,,
,,,,,,,,,,,,a,Incorrect,,,,,,t5.png,t1.png,4,9.55E-11,20,female,2020-07-28_15h33.02.191,torte-2b,2020.1.3,MacIntel,60,13284,0.483,,,,,,,,,,,,,,,,,,,,,,,,,,,,,,,,,,,,,0,105,105,89,1,,,,,,,,,,,,,,,,,,,,,,,,
,,,,,,,,,,,,a,Incorrect,,,,,,t5.png,t1.png,4,9.55E-11,20,female,2020-07-28_15h33.02.191,torte-2b,2020.1.3,MacIntel,60,13284,0.699,,,,,,,,,,,,,,,,,,,,,,,,,,,,,,,,,,,,,0,106,106,15,1,,,,,,,,,,,,,,,,,,,,,,,,
,,,,,,,,,,,,a,Incorrect,,,,,,t5.png,t2.png,3,0.0000131,20,female,2020-07-28_15h33.02.191,torte-2b,2020.1.3,MacIntel,60,13284,0.845,,,,,,,,,,,,,,,,,,,,,,,,,,,,,,,,,,,,,0,107,107,83,1,,,,,,,,,,,,,,,,,,,,,,,,
,,,,,,,,,,,,a,Correct!,,,,,,t1.png,t1.png,0,0.978,20,female,2020-07-28_15h33.02.191,torte-2b,2020.1.3,MacIntel,60,13284,1.056,,,,,,,,,,,,,,,,,,,,,,,,,,,,,,,,,,,,,0,108,108,22,1,,,,,,,,,,,,,,,,,,,,,,,,
,,,,,,,,,,,,a,Correct!,,,,,,t1.png,t1.png,0,0.97829,20,female,2020-07-28_15h33.02.191,torte-2b,2020.1.3,MacIntel,60,13284,0.842,,,,,,,,,,,,,,,,,,,,,,,,,,,,,,,,,,,,,0,109,109,110,1,,,,,,,,,,,,,,,,,,,,,,,,
,,,,,,,,,,,,l,Correct!,,,,,,t2.png,t5.png,3,0.0000131,20,female,2020-07-28_15h33.02.191,torte-2b,2020.1.3,MacIntel,60,13284,0.694,,,,,,,,,,,,,,,,,,,,,,,,,,,,,,,,,,,,,0,110,110,46,1,,,,,,,,,,,,,,,,,,,,,,,,
,,,,,,,,,,,,a,Correct!,,,,,,t5.png,t4.png,1,0.90025,20,female,2020-07-28_15h33.02.191,torte-2b,2020.1.3,MacIntel,60,13284,1,,,,,,,,,,,,,,,,,,,,,,,,,,,,,,,,,,,,,0,111,111,14,1,,,,,,,,,,,,,,,,,,,,,,,,
,,,,,,,,,,,,a,Correct!,,,,,,t5.png,t4.png,1,0.90025,20,female,2020-07-28_15h33.02.191,torte-2b,2020.1.3,MacIntel,60,13284,0.966,,,,,,,,,,,,,,,,,,,,,,,,,,,,,,,,,,,,,0,112,112,38,1,,,,,,,,,,,,,,,,,,,,,,,,
,,,,,,,,,,,,a,Correct!,,,,,,t5.png,t5.png,0,0.97829,20,female,2020-07-28_15h33.02.191,torte-2b,2020.1.3,MacIntel,60,13284,0.882,,,,,,,,,,,,,,,,,,,,,,,,,,,,,,,,,,,,,0,113,113,77,1,,,,,,,,,,,,,,,,,,,,,,,,
,,,,,,,,,,,,a,Incorrect,,,,,,t3.png,t1.png,2,0.056466,20,female,2020-07-28_15h33.02.191,torte-2b,2020.1.3,MacIntel,60,13284,0.389,,,,,,,,,,,,,,,,,,,,,,,,,,,,,,,,,,,,,0,114,114,109,1,,,,,,,,,,,,,,,,,,,,,,,,
,,,,,,,,,,,,a,Correct!,,,,,,t3.png,t4.png,1,0.90855,20,female,2020-07-28_15h33.02.191,torte-2b,2020.1.3,MacIntel,60,13284,0.618,,,,,,,,,,,,,,,,,,,,,,,,,,,,,,,,,,,,,0,115,115,58,1,,,,,,,,,,,,,,,,,,,,,,,,
,,,,,,,,,,,,l,Correct!,,,,,,t1.png,t5.png,4,9.55E-11,20,female,2020-07-28_15h33.02.191,torte-2b,2020.1.3,MacIntel,60,13284,0.834,,,,,,,,,,,,,,,,,,,,,,,,,,,,,,,,,,,,,0,116,116,1,1,,,,,,,,,,,,,,,,,,,,,,,,
,,,,,,,,,,,,l,Incorrect,,,,,,t4.png,t4.png,0,0.98115,20,female,2020-07-28_15h33.02.191,torte-2b,2020.1.3,MacIntel,60,13284,1.166,,,,,,,,,,,,,,,,,,,,,,,,,,,,,,,,,,,,,0,117,117,19,1,,,,,,,,,,,,,,,,,,,,,,,,
,,,,,,,,,,,,l,Incorrect,,,,,,t4.png,t4.png,0,0.98115,20,female,2020-07-28_15h33.02.191,torte-2b,2020.1.3,MacIntel,60,13284,0.975,,,,,,,,,,,,,,,,,,,,,,,,,,,,,,,,,,,,,0,118,118,52,1,,,,,,,,,,,,,,,,,,,,,,,,
,,,,,,,,,,,,a,Incorrect,,,,,,t4.png,t1.png,3,0.0000131,20,female,2020-07-28_15h33.02.191,torte-2b,2020.1.3,MacIntel,60,13284,0.824,,,,,,,,,,,,,,,,,,,,,,,,,,,,,,,,,,,,,0,119,119,49,1,,,,,,,,,,,,,,,,,,,,,,,,
,,,,,,,,,,,,,,,,,,,,,,,20,female,2020-07-28_15h33.02.191,torte-2b,2020.1.3,MacIntel,60,13284,,space,1.788,,,,,,,,,,,,,,,,,,,,,,,,,,,,,,,,,,,,,,,,-23,54,1,0,0,s3,-2,91,1,0,0,t1,239,-108,1,0,0,proceed,space,34.899,space,11.628,space,2.749
