key_resp_8.keys,key_resp_8.rt,key_resp_9.keys,key_resp_9.rt,key_resp_10.keys,key_resp_10.rt,key_resp_11.keys,key_resp_11.rt,key_resp_2.keys,key_resp_2.rt,key_resp_3.keys,key_resp_3.rt,key_resp.keys,key_resp.rt,Feedback,train.thisRepN,train.thisTrialN,train.thisN,train.thisIndex,train.ran,torta_sx,torta_dx,difference,probability,age,gender,date,expName,psychopyVersion,OS,frameRate,participant,key_resp_15.keys,key_resp_15.rt,key_resp_6.keys,key_resp_6.rt,test1.thisRepN,test1.thisTrialN,test1.thisN,test1.thisIndex,test1.ran,key_resp_4.keys,key_resp_4.rt,key_resp_5.keys,back1.thisRepN,back1.thisTrialN,back1.thisN,back1.thisIndex,back1.ran,letter,key_resp_5.rt,back2.thisRepN,back2.thisTrialN,back2.thisN,back2.thisIndex,back2.ran,back3.thisRepN,back3.thisTrialN,back3.thisN,back3.thisIndex,back3.ran,back4.thisRepN,back4.thisTrialN,back4.thisN,back4.thisIndex,back4.ran,key_resp_7.keys,key_resp_7.rt,test2.thisRepN,test2.thisTrialN,test2.thisN,test2.thisIndex,test2.ran,mouse.x,mouse.y,mouse.leftButton,mouse.midButton,mouse.rightButton,mouse.clicked_name,mouse_2.x,mouse_2.y,mouse_2.leftButton,mouse_2.midButton,mouse_2.rightButton,mouse_2.clicked_name,mouse_3.x,mouse_3.y,mouse_3.leftButton,mouse_3.midButton,mouse_3.rightButton,mouse_3.clicked_name,key_resp_12.keys,key_resp_12.rt,key_resp_13.keys,key_resp_13.rt,key_resp_14.keys,key_resp_14.rt
space,6.034355,space,0.731745,space,0.48366,space,2.312875,space,12.957115,space,32.531835,l,1.342395,Incorrect,0,0,0,106,1,t2.png,t3.png,1,0.90855,19,Female,2020-09-16_16h54.56.747,torte-2b,2020.1.3,MacIntel,60,13312,,,,,,,,,,,,,,,,,,,,,,,,,,,,,,,,,,,,,,,,,,,,,,,,,,,,,,,,,,,,,,,,,
,,,,,,,,,,,,a,1.219775,Correct!,0,1,1,21,1,t5.png,t4.png,1,0.90025,19,Female,2020-09-16_16h54.56.747,torte-2b,2020.1.3,MacIntel,60,13312,,,,,,,,,,,,,,,,,,,,,,,,,,,,,,,,,,,,,,,,,,,,,,,,,,,,,,,,,,,,,,,,,
,,,,,,,,,,,,,,Too slow :(,0,2,2,48,1,t5.png,t5.png,0,0.97829,19,Female,2020-09-16_16h54.56.747,torte-2b,2020.1.3,MacIntel,60,13312,,,,,,,,,,,,,,,,,,,,,,,,,,,,,,,,,,,,,,,,,,,,,,,,,,,,,,,,,,,,,,,,,
,,,,,,,,,,,,l,0.60016,Correct!,0,3,3,114,1,t2.png,t3.png,1,0.90855,19,Female,2020-09-16_16h54.56.747,torte-2b,2020.1.3,MacIntel,60,13312,,,,,,,,,,,,,,,,,,,,,,,,,,,,,,,,,,,,,,,,,,,,,,,,,,,,,,,,,,,,,,,,,
,,,,,,,,,,,,l,1.27091,Incorrect,0,4,4,118,1,t5.png,t5.png,0,0.978,19,Female,2020-09-16_16h54.56.747,torte-2b,2020.1.3,MacIntel,60,13312,,,,,,,,,,,,,,,,,,,,,,,,,,,,,,,,,,,,,,,,,,,,,,,,,,,,,,,,,,,,,,,,,
,,,,,,,,,,,,l,0.78389,Correct!,0,5,5,5,1,t2.png,t4.png,2,0.059078,19,Female,2020-09-16_16h54.56.747,torte-2b,2020.1.3,MacIntel,60,13312,,,,,,,,,,,,,,,,,,,,,,,,,,,,,,,,,,,,,,,,,,,,,,,,,,,,,,,,,,,,,,,,,
,,,,,,,,,,,,l,0.66968,Correct!,0,6,6,4,1,t1.png,t5.png,4,9.55E-11,19,Female,2020-09-16_16h54.56.747,torte-2b,2020.1.3,MacIntel,60,13312,,,,,,,,,,,,,,,,,,,,,,,,,,,,,,,,,,,,,,,,,,,,,,,,,,,,,,,,,,,,,,,,,
,,,,,,,,,,,,l,0.600005,Correct!,0,7,7,31,1,t1.png,t5.png,4,9.55E-11,19,Female,2020-09-16_16h54.56.747,torte-2b,2020.1.3,MacIntel,60,13312,,,,,,,,,,,,,,,,,,,,,,,,,,,,,,,,,,,,,,,,,,,,,,,,,,,,,,,,,,,,,,,,,
,,,,,,,,,,,,a,0.850045,Incorrect,0,8,8,26,1,t4.png,t2.png,2,0.0591,19,Female,2020-09-16_16h54.56.747,torte-2b,2020.1.3,MacIntel,60,13312,,,,,,,,,,,,,,,,,,,,,,,,,,,,,,,,,,,,,,,,,,,,,,,,,,,,,,,,,,,,,,,,,
,,,,,,,,,,,,l,0.939825,Incorrect,0,9,9,78,1,t1.png,t1.png,0,0.978,19,Female,2020-09-16_16h54.56.747,torte-2b,2020.1.3,MacIntel,60,13312,,,,,,,,,,,,,,,,,,,,,,,,,,,,,,,,,,,,,,,,,,,,,,,,,,,,,,,,,,,,,,,,,
,,,,,,,,,,,,l,1.401475,Incorrect,0,10,10,42,1,t5.png,t4.png,1,0.90025,19,Female,2020-09-16_16h54.56.747,torte-2b,2020.1.3,MacIntel,60,13312,,,,,,,,,,,,,,,,,,,,,,,,,,,,,,,,,,,,,,,,,,,,,,,,,,,,,,,,,,,,,,,,,
,,,,,,,,,,,,a,0.95501,Incorrect,0,11,11,103,1,t3.png,t1.png,2,0.056466,19,Female,2020-09-16_16h54.56.747,torte-2b,2020.1.3,MacIntel,60,13312,,,,,,,,,,,,,,,,,,,,,,,,,,,,,,,,,,,,,,,,,,,,,,,,,,,,,,,,,,,,,,,,,
,,,,,,,,,,,,l,1.31769,Incorrect,0,12,12,22,1,t2.png,t3.png,1,0.90855,19,Female,2020-09-16_16h54.56.747,torte-2b,2020.1.3,MacIntel,60,13312,,,,,,,,,,,,,,,,,,,,,,,,,,,,,,,,,,,,,,,,,,,,,,,,,,,,,,,,,,,,,,,,,
,,,,,,,,,,,,a,1.233345,Correct!,0,13,13,20,1,t2.png,t3.png,1,0.90855,19,Female,2020-09-16_16h54.56.747,torte-2b,2020.1.3,MacIntel,60,13312,,,,,,,,,,,,,,,,,,,,,,,,,,,,,,,,,,,,,,,,,,,,,,,,,,,,,,,,,,,,,,,,,
,,,,,,,,,,,,a,1.337325,Incorrect,0,14,14,32,1,t4.png,t5.png,1,0.90025,19,Female,2020-09-16_16h54.56.747,torte-2b,2020.1.3,MacIntel,60,13312,,,,,,,,,,,,,,,,,,,,,,,,,,,,,,,,,,,,,,,,,,,,,,,,,,,,,,,,,,,,,,,,,
,,,,,,,,,,,,a,1.417445,Incorrect,0,15,15,36,1,t3.png,t1.png,2,0.0565,19,Female,2020-09-16_16h54.56.747,torte-2b,2020.1.3,MacIntel,60,13312,,,,,,,,,,,,,,,,,,,,,,,,,,,,,,,,,,,,,,,,,,,,,,,,,,,,,,,,,,,,,,,,,
,,,,,,,,,,,,l,1.16759,Incorrect,0,16,16,116,1,t5.png,t4.png,1,0.90025,19,Female,2020-09-16_16h54.56.747,torte-2b,2020.1.3,MacIntel,60,13312,,,,,,,,,,,,,,,,,,,,,,,,,,,,,,,,,,,,,,,,,,,,,,,,,,,,,,,,,,,,,,,,,
,,,,,,,,,,,,a,0.668895,Incorrect,0,17,17,56,1,t5.png,t1.png,4,9.55E-11,19,Female,2020-09-16_16h54.56.747,torte-2b,2020.1.3,MacIntel,60,13312,,,,,,,,,,,,,,,,,,,,,,,,,,,,,,,,,,,,,,,,,,,,,,,,,,,,,,,,,,,,,,,,,
,,,,,,,,,,,,l,0.59686,Correct!,0,18,18,57,1,t2.png,t4.png,2,0.059078,19,Female,2020-09-16_16h54.56.747,torte-2b,2020.1.3,MacIntel,60,13312,,,,,,,,,,,,,,,,,,,,,,,,,,,,,,,,,,,,,,,,,,,,,,,,,,,,,,,,,,,,,,,,,
,,,,,,,,,,,,a,0.717855,Correct!,0,19,19,39,1,t3.png,t2.png,1,0.90855,19,Female,2020-09-16_16h54.56.747,torte-2b,2020.1.3,MacIntel,60,13312,,,,,,,,,,,,,,,,,,,,,,,,,,,,,,,,,,,,,,,,,,,,,,,,,,,,,,,,,,,,,,,,,
,,,,,,,,,,,,a,0.88569,Incorrect,0,20,20,86,1,t3.png,t1.png,2,0.056466,19,Female,2020-09-16_16h54.56.747,torte-2b,2020.1.3,MacIntel,60,13312,,,,,,,,,,,,,,,,,,,,,,,,,,,,,,,,,,,,,,,,,,,,,,,,,,,,,,,,,,,,,,,,,
,,,,,,,,,,,,a,1.36861,Correct!,0,21,21,29,1,t5.png,t5.png,0,0.97829,19,Female,2020-09-16_16h54.56.747,torte-2b,2020.1.3,MacIntel,60,13312,,,,,,,,,,,,,,,,,,,,,,,,,,,,,,,,,,,,,,,,,,,,,,,,,,,,,,,,,,,,,,,,,
,,,,,,,,,,,,a,1.15245,Incorrect,0,22,22,47,1,t4.png,t2.png,2,0.059078,19,Female,2020-09-16_16h54.56.747,torte-2b,2020.1.3,MacIntel,60,13312,,,,,,,,,,,,,,,,,,,,,,,,,,,,,,,,,,,,,,,,,,,,,,,,,,,,,,,,,,,,,,,,,
,,,,,,,,,,,,l,1.11804,Incorrect,0,23,23,8,1,t3.png,t2.png,1,0.90855,19,Female,2020-09-16_16h54.56.747,torte-2b,2020.1.3,MacIntel,60,13312,,,,,,,,,,,,,,,,,,,,,,,,,,,,,,,,,,,,,,,,,,,,,,,,,,,,,,,,,,,,,,,,,
,,,,,,,,,,,,a,1.385955,Correct!,0,24,24,45,1,t3.png,t2.png,1,0.90855,19,Female,2020-09-16_16h54.56.747,torte-2b,2020.1.3,MacIntel,60,13312,,,,,,,,,,,,,,,,,,,,,,,,,,,,,,,,,,,,,,,,,,,,,,,,,,,,,,,,,,,,,,,,,
,,,,,,,,,,,,l,1.05055,Correct!,0,25,25,119,1,t1.png,t5.png,4,9.55E-11,19,Female,2020-09-16_16h54.56.747,torte-2b,2020.1.3,MacIntel,60,13312,,,,,,,,,,,,,,,,,,,,,,,,,,,,,,,,,,,,,,,,,,,,,,,,,,,,,,,,,,,,,,,,,
,,,,,,,,,,,,a,1.151565,Incorrect,0,26,26,52,1,t2.png,t4.png,2,0.059078,19,Female,2020-09-16_16h54.56.747,torte-2b,2020.1.3,MacIntel,60,13312,,,,,,,,,,,,,,,,,,,,,,,,,,,,,,,,,,,,,,,,,,,,,,,,,,,,,,,,,,,,,,,,,
,,,,,,,,,,,,l,0.764195,Incorrect,0,27,27,63,1,t2.png,t3.png,1,0.909,19,Female,2020-09-16_16h54.56.747,torte-2b,2020.1.3,MacIntel,60,13312,,,,,,,,,,,,,,,,,,,,,,,,,,,,,,,,,,,,,,,,,,,,,,,,,,,,,,,,,,,,,,,,,
,,,,,,,,,,,,l,0.83449,Correct!,0,28,28,11,1,t1.png,t4.png,3,0.0000131,19,Female,2020-09-16_16h54.56.747,torte-2b,2020.1.3,MacIntel,60,13312,,,,,,,,,,,,,,,,,,,,,,,,,,,,,,,,,,,,,,,,,,,,,,,,,,,,,,,,,,,,,,,,,
,,,,,,,,,,,,l,1.24957,Incorrect,0,29,29,75,1,t1.png,t1.png,0,0.97829,19,Female,2020-09-16_16h54.56.747,torte-2b,2020.1.3,MacIntel,60,13312,,,,,,,,,,,,,,,,,,,,,,,,,,,,,,,,,,,,,,,,,,,,,,,,,,,,,,,,,,,,,,,,,
,,,,,,,,,,,,a,0.98147,Incorrect,0,30,30,50,1,t5.png,t1.png,4,9.55E-11,19,Female,2020-09-16_16h54.56.747,torte-2b,2020.1.3,MacIntel,60,13312,,,,,,,,,,,,,,,,,,,,,,,,,,,,,,,,,,,,,,,,,,,,,,,,,,,,,,,,,,,,,,,,,
,,,,,,,,,,,,a,1.567085,Correct!,0,31,31,66,1,t4.png,t5.png,1,0.9,19,Female,2020-09-16_16h54.56.747,torte-2b,2020.1.3,MacIntel,60,13312,,,,,,,,,,,,,,,,,,,,,,,,,,,,,,,,,,,,,,,,,,,,,,,,,,,,,,,,,,,,,,,,,
,,,,,,,,,,,,a,1.637,Incorrect,0,32,32,102,1,t4.png,t2.png,2,0.059078,19,Female,2020-09-16_16h54.56.747,torte-2b,2020.1.3,MacIntel,60,13312,,,,,,,,,,,,,,,,,,,,,,,,,,,,,,,,,,,,,,,,,,,,,,,,,,,,,,,,,,,,,,,,,
,,,,,,,,,,,,a,1.433305,Incorrect,0,33,33,53,1,t3.png,t1.png,2,0.056466,19,Female,2020-09-16_16h54.56.747,torte-2b,2020.1.3,MacIntel,60,13312,,,,,,,,,,,,,,,,,,,,,,,,,,,,,,,,,,,,,,,,,,,,,,,,,,,,,,,,,,,,,,,,,
,,,,,,,,,,,,l,1.386315,Incorrect,0,34,34,13,1,t5.png,t5.png,0,0.97829,19,Female,2020-09-16_16h54.56.747,torte-2b,2020.1.3,MacIntel,60,13312,,,,,,,,,,,,,,,,,,,,,,,,,,,,,,,,,,,,,,,,,,,,,,,,,,,,,,,,,,,,,,,,,
,,,,,,,,,,,,a,1.06593,Incorrect,0,35,35,94,1,t5.png,t1.png,4,9.55E-11,19,Female,2020-09-16_16h54.56.747,torte-2b,2020.1.3,MacIntel,60,13312,,,,,,,,,,,,,,,,,,,,,,,,,,,,,,,,,,,,,,,,,,,,,,,,,,,,,,,,,,,,,,,,,
,,,,,,,,,,,,a,1.319785,Correct!,0,36,36,9,1,t4.png,t5.png,1,0.9,19,Female,2020-09-16_16h54.56.747,torte-2b,2020.1.3,MacIntel,60,13312,,,,,,,,,,,,,,,,,,,,,,,,,,,,,,,,,,,,,,,,,,,,,,,,,,,,,,,,,,,,,,,,,
,,,,,,,,,,,,a,1.186455,Correct!,0,37,37,16,1,t5.png,t4.png,1,0.9,19,Female,2020-09-16_16h54.56.747,torte-2b,2020.1.3,MacIntel,60,13312,,,,,,,,,,,,,,,,,,,,,,,,,,,,,,,,,,,,,,,,,,,,,,,,,,,,,,,,,,,,,,,,,
,,,,,,,,,,,,l,1.08685,Incorrect,0,38,38,25,1,t5.png,t5.png,0,0.97829,19,Female,2020-09-16_16h54.56.747,torte-2b,2020.1.3,MacIntel,60,13312,,,,,,,,,,,,,,,,,,,,,,,,,,,,,,,,,,,,,,,,,,,,,,,,,,,,,,,,,,,,,,,,,
,,,,,,,,,,,,l,1.31783,Incorrect,0,39,39,81,1,t1.png,t1.png,0,0.97829,19,Female,2020-09-16_16h54.56.747,torte-2b,2020.1.3,MacIntel,60,13312,,,,,,,,,,,,,,,,,,,,,,,,,,,,,,,,,,,,,,,,,,,,,,,,,,,,,,,,,,,,,,,,,
,,,,,,,,,,,,a,1.001495,Correct!,0,40,40,58,1,t5.png,t4.png,1,0.90025,19,Female,2020-09-16_16h54.56.747,torte-2b,2020.1.3,MacIntel,60,13312,,,,,,,,,,,,,,,,,,,,,,,,,,,,,,,,,,,,,,,,,,,,,,,,,,,,,,,,,,,,,,,,,
,,,,,,,,,,,,a,1.06745,Correct!,0,41,41,34,1,t5.png,t4.png,1,0.9,19,Female,2020-09-16_16h54.56.747,torte-2b,2020.1.3,MacIntel,60,13312,,,,,,,,,,,,,,,,,,,,,,,,,,,,,,,,,,,,,,,,,,,,,,,,,,,,,,,,,,,,,,,,,
,,,,,,,,,,,,l,0.767375,Incorrect,0,42,42,10,1,t2.png,t3.png,1,0.90855,19,Female,2020-09-16_16h54.56.747,torte-2b,2020.1.3,MacIntel,60,13312,,,,,,,,,,,,,,,,,,,,,,,,,,,,,,,,,,,,,,,,,,,,,,,,,,,,,,,,,,,,,,,,,
,,,,,,,,,,,,l,0.667035,Correct!,0,43,43,17,1,t1.png,t4.png,3,0.0000131,19,Female,2020-09-16_16h54.56.747,torte-2b,2020.1.3,MacIntel,60,13312,,,,,,,,,,,,,,,,,,,,,,,,,,,,,,,,,,,,,,,,,,,,,,,,,,,,,,,,,,,,,,,,,
,,,,,,,,,,,,a,1.11785,Correct!,0,44,44,79,1,t3.png,t2.png,1,0.909,19,Female,2020-09-16_16h54.56.747,torte-2b,2020.1.3,MacIntel,60,13312,,,,,,,,,,,,,,,,,,,,,,,,,,,,,,,,,,,,,,,,,,,,,,,,,,,,,,,,,,,,,,,,,
,,,,,,,,,,,,a,0.886895,Correct!,0,45,45,15,1,t3.png,t2.png,1,0.90855,19,Female,2020-09-16_16h54.56.747,torte-2b,2020.1.3,MacIntel,60,13312,,,,,,,,,,,,,,,,,,,,,,,,,,,,,,,,,,,,,,,,,,,,,,,,,,,,,,,,,,,,,,,,,
,,,,,,,,,,,,l,0.4166,Correct!,0,46,46,98,1,t2.png,t4.png,2,0.0591,19,Female,2020-09-16_16h54.56.747,torte-2b,2020.1.3,MacIntel,60,13312,,,,,,,,,,,,,,,,,,,,,,,,,,,,,,,,,,,,,,,,,,,,,,,,,,,,,,,,,,,,,,,,,
,,,,,,,,,,,,a,0.568325,Correct!,0,47,47,74,1,t5.png,t4.png,1,0.9,19,Female,2020-09-16_16h54.56.747,torte-2b,2020.1.3,MacIntel,60,13312,,,,,,,,,,,,,,,,,,,,,,,,,,,,,,,,,,,,,,,,,,,,,,,,,,,,,,,,,,,,,,,,,
,,,,,,,,,,,,l,0.368505,Correct!,0,48,48,89,1,t1.png,t4.png,3,0.0000131,19,Female,2020-09-16_16h54.56.747,torte-2b,2020.1.3,MacIntel,60,13312,,,,,,,,,,,,,,,,,,,,,,,,,,,,,,,,,,,,,,,,,,,,,,,,,,,,,,,,,,,,,,,,,
,,,,,,,,,,,,a,0.452665,Incorrect,0,49,49,43,1,t4.png,t2.png,2,0.059078,19,Female,2020-09-16_16h54.56.747,torte-2b,2020.1.3,MacIntel,60,13312,,,,,,,,,,,,,,,,,,,,,,,,,,,,,,,,,,,,,,,,,,,,,,,,,,,,,,,,,,,,,,,,,
,,,,,,,,,,,,l,0.800365,Incorrect,0,50,50,96,1,t1.png,t1.png,0,0.97829,19,Female,2020-09-16_16h54.56.747,torte-2b,2020.1.3,MacIntel,60,13312,,,,,,,,,,,,,,,,,,,,,,,,,,,,,,,,,,,,,,,,,,,,,,,,,,,,,,,,,,,,,,,,,
,,,,,,,,,,,,a,1.3345,Incorrect,0,51,51,87,1,t5.png,t1.png,4,9.55E-11,19,Female,2020-09-16_16h54.56.747,torte-2b,2020.1.3,MacIntel,60,13312,,,,,,,,,,,,,,,,,,,,,,,,,,,,,,,,,,,,,,,,,,,,,,,,,,,,,,,,,,,,,,,,,
,,,,,,,,,,,,l,0.52115,Incorrect,0,52,52,110,1,t4.png,t5.png,1,0.90025,19,Female,2020-09-16_16h54.56.747,torte-2b,2020.1.3,MacIntel,60,13312,,,,,,,,,,,,,,,,,,,,,,,,,,,,,,,,,,,,,,,,,,,,,,,,,,,,,,,,,,,,,,,,,
,,,,,,,,,,,,a,0.41762,Incorrect,0,53,53,108,1,t5.png,t1.png,4,9.55E-11,19,Female,2020-09-16_16h54.56.747,torte-2b,2020.1.3,MacIntel,60,13312,,,,,,,,,,,,,,,,,,,,,,,,,,,,,,,,,,,,,,,,,,,,,,,,,,,,,,,,,,,,,,,,,
,,,,,,,,,,,,l,0.87044,Incorrect,0,54,54,100,1,t4.png,t5.png,1,0.90025,19,Female,2020-09-16_16h54.56.747,torte-2b,2020.1.3,MacIntel,60,13312,,,,,,,,,,,,,,,,,,,,,,,,,,,,,,,,,,,,,,,,,,,,,,,,,,,,,,,,,,,,,,,,,
,,,,,,,,,,,,l,1.02091,Correct!,0,55,55,80,1,t1.png,t4.png,3,0.0000131,19,Female,2020-09-16_16h54.56.747,torte-2b,2020.1.3,MacIntel,60,13312,,,,,,,,,,,,,,,,,,,,,,,,,,,,,,,,,,,,,,,,,,,,,,,,,,,,,,,,,,,,,,,,,
,,,,,,,,,,,,l,0.785245,Correct!,0,56,56,1,1,t2.png,t4.png,2,0.059078,19,Female,2020-09-16_16h54.56.747,torte-2b,2020.1.3,MacIntel,60,13312,,,,,,,,,,,,,,,,,,,,,,,,,,,,,,,,,,,,,,,,,,,,,,,,,,,,,,,,,,,,,,,,,
,,,,,,,,,,,,l,1.20126,Incorrect,0,57,57,77,1,t1.png,t1.png,0,0.97829,19,Female,2020-09-16_16h54.56.747,torte-2b,2020.1.3,MacIntel,60,13312,,,,,,,,,,,,,,,,,,,,,,,,,,,,,,,,,,,,,,,,,,,,,,,,,,,,,,,,,,,,,,,,,
,,,,,,,,,,,,a,0.633625,Correct!,0,58,58,59,1,t5.png,t4.png,1,0.9,19,Female,2020-09-16_16h54.56.747,torte-2b,2020.1.3,MacIntel,60,13312,,,,,,,,,,,,,,,,,,,,,,,,,,,,,,,,,,,,,,,,,,,,,,,,,,,,,,,,,,,,,,,,,
,,,,,,,,,,,,l,0.88647,Correct!,0,59,59,93,1,t2.png,t4.png,2,0.059078,19,Female,2020-09-16_16h54.56.747,torte-2b,2020.1.3,MacIntel,60,13312,,,,,,,,,,,,,,,,,,,,,,,,,,,,,,,,,,,,,,,,,,,,,,,,,,,,,,,,,,,,,,,,,
,,,,,,,,,,,,a,0.5156,Incorrect,0,60,60,72,1,t4.png,t2.png,2,0.059078,19,Female,2020-09-16_16h54.56.747,torte-2b,2020.1.3,MacIntel,60,13312,,,,,,,,,,,,,,,,,,,,,,,,,,,,,,,,,,,,,,,,,,,,,,,,,,,,,,,,,,,,,,,,,
,,,,,,,,,,,,l,0.783715,Incorrect,0,61,61,62,1,t5.png,t5.png,0,0.978,19,Female,2020-09-16_16h54.56.747,torte-2b,2020.1.3,MacIntel,60,13312,,,,,,,,,,,,,,,,,,,,,,,,,,,,,,,,,,,,,,,,,,,,,,,,,,,,,,,,,,,,,,,,,
,,,,,,,,,,,,l,1.034035,Incorrect,0,62,62,97,1,t5.png,t5.png,0,0.97829,19,Female,2020-09-16_16h54.56.747,torte-2b,2020.1.3,MacIntel,60,13312,,,,,,,,,,,,,,,,,,,,,,,,,,,,,,,,,,,,,,,,,,,,,,,,,,,,,,,,,,,,,,,,,
,,,,,,,,,,,,l,0.73394,Correct!,0,63,63,61,1,t1.png,t4.png,3,0.0000131,19,Female,2020-09-16_16h54.56.747,torte-2b,2020.1.3,MacIntel,60,13312,,,,,,,,,,,,,,,,,,,,,,,,,,,,,,,,,,,,,,,,,,,,,,,,,,,,,,,,,,,,,,,,,
,,,,,,,,,,,,a,0.600605,Incorrect,0,64,64,30,1,t3.png,t1.png,2,0.056466,19,Female,2020-09-16_16h54.56.747,torte-2b,2020.1.3,MacIntel,60,13312,,,,,,,,,,,,,,,,,,,,,,,,,,,,,,,,,,,,,,,,,,,,,,,,,,,,,,,,,,,,,,,,,
,,,,,,,,,,,,a,0.90017,Correct!,0,65,65,113,1,t5.png,t4.png,1,0.9,19,Female,2020-09-16_16h54.56.747,torte-2b,2020.1.3,MacIntel,60,13312,,,,,,,,,,,,,,,,,,,,,,,,,,,,,,,,,,,,,,,,,,,,,,,,,,,,,,,,,,,,,,,,,
,,,,,,,,,,,,l,0.7334,Incorrect,0,66,66,64,1,t1.png,t1.png,0,0.978,19,Female,2020-09-16_16h54.56.747,torte-2b,2020.1.3,MacIntel,60,13312,,,,,,,,,,,,,,,,,,,,,,,,,,,,,,,,,,,,,,,,,,,,,,,,,,,,,,,,,,,,,,,,,
,,,,,,,,,,,,a,0.46665,Incorrect,0,67,67,83,1,t3.png,t1.png,2,0.056466,19,Female,2020-09-16_16h54.56.747,torte-2b,2020.1.3,MacIntel,60,13312,,,,,,,,,,,,,,,,,,,,,,,,,,,,,,,,,,,,,,,,,,,,,,,,,,,,,,,,,,,,,,,,,
,,,,,,,,,,,,a,0.817965,Incorrect,0,68,68,38,1,t3.png,t1.png,2,0.056466,19,Female,2020-09-16_16h54.56.747,torte-2b,2020.1.3,MacIntel,60,13312,,,,,,,,,,,,,,,,,,,,,,,,,,,,,,,,,,,,,,,,,,,,,,,,,,,,,,,,,,,,,,,,,
,,,,,,,,,,,,l,1.417395,Correct!,0,69,69,68,1,t1.png,t4.png,3,0.0000131,19,Female,2020-09-16_16h54.56.747,torte-2b,2020.1.3,MacIntel,60,13312,,,,,,,,,,,,,,,,,,,,,,,,,,,,,,,,,,,,,,,,,,,,,,,,,,,,,,,,,,,,,,,,,
,,,,,,,,,,,,l,0.604965,Correct!,0,70,70,82,1,t5.png,t1.png,4,9.55E-11,19,Female,2020-09-16_16h54.56.747,torte-2b,2020.1.3,MacIntel,60,13312,,,,,,,,,,,,,,,,,,,,,,,,,,,,,,,,,,,,,,,,,,,,,,,,,,,,,,,,,,,,,,,,,
,,,,,,,,,,,,l,1.41783,Correct!,0,71,71,3,1,t1.png,t5.png,4,9.55E-11,19,Female,2020-09-16_16h54.56.747,torte-2b,2020.1.3,MacIntel,60,13312,,,,,,,,,,,,,,,,,,,,,,,,,,,,,,,,,,,,,,,,,,,,,,,,,,,,,,,,,,,,,,,,,
,,,,,,,,,,,,l,1.20096,Incorrect,0,72,72,65,1,t4.png,t5.png,1,0.90025,19,Female,2020-09-16_16h54.56.747,torte-2b,2020.1.3,MacIntel,60,13312,,,,,,,,,,,,,,,,,,,,,,,,,,,,,,,,,,,,,,,,,,,,,,,,,,,,,,,,,,,,,,,,,
,,,,,,,,,,,,l,0.84931,Correct!,0,73,73,37,1,t1.png,t4.png,3,0.0000131,19,Female,2020-09-16_16h54.56.747,torte-2b,2020.1.3,MacIntel,60,13312,,,,,,,,,,,,,,,,,,,,,,,,,,,,,,,,,,,,,,,,,,,,,,,,,,,,,,,,,,,,,,,,,
,,,,,,,,,,,,a,1.13414,Incorrect,0,74,74,46,1,t4.png,t2.png,2,0.059078,19,Female,2020-09-16_16h54.56.747,torte-2b,2020.1.3,MacIntel,60,13312,,,,,,,,,,,,,,,,,,,,,,,,,,,,,,,,,,,,,,,,,,,,,,,,,,,,,,,,,,,,,,,,,
,,,,,,,,,,,,l,0.68371,Incorrect,0,75,75,28,1,t2.png,t3.png,1,0.909,19,Female,2020-09-16_16h54.56.747,torte-2b,2020.1.3,MacIntel,60,13312,,,,,,,,,,,,,,,,,,,,,,,,,,,,,,,,,,,,,,,,,,,,,,,,,,,,,,,,,,,,,,,,,
,,,,,,,,,,,,l,1.67181,Incorrect,0,76,76,71,1,t5.png,t5.png,0,0.97829,19,Female,2020-09-16_16h54.56.747,torte-2b,2020.1.3,MacIntel,60,13312,,,,,,,,,,,,,,,,,,,,,,,,,,,,,,,,,,,,,,,,,,,,,,,,,,,,,,,,,,,,,,,,,
,,,,,,,,,,,,l,1.42352,Incorrect,0,77,77,84,1,t1.png,t1.png,0,0.97829,19,Female,2020-09-16_16h54.56.747,torte-2b,2020.1.3,MacIntel,60,13312,,,,,,,,,,,,,,,,,,,,,,,,,,,,,,,,,,,,,,,,,,,,,,,,,,,,,,,,,,,,,,,,,
,,,,,,,,,,,,a,0.60109,Correct!,0,78,78,112,1,t1.png,t1.png,0,0.97829,19,Female,2020-09-16_16h54.56.747,torte-2b,2020.1.3,MacIntel,60,13312,,,,,,,,,,,,,,,,,,,,,,,,,,,,,,,,,,,,,,,,,,,,,,,,,,,,,,,,,,,,,,,,,
,,,,,,,,,,,,a,1.454705,Incorrect,0,79,79,104,1,t2.png,t3.png,1,0.90855,19,Female,2020-09-16_16h54.56.747,torte-2b,2020.1.3,MacIntel,60,13312,,,,,,,,,,,,,,,,,,,,,,,,,,,,,,,,,,,,,,,,,,,,,,,,,,,,,,,,,,,,,,,,,
,,,,,,,,,,,,a,1.402885,Incorrect,0,80,80,12,1,t5.png,t1.png,4,9.55E-11,19,Female,2020-09-16_16h54.56.747,torte-2b,2020.1.3,MacIntel,60,13312,,,,,,,,,,,,,,,,,,,,,,,,,,,,,,,,,,,,,,,,,,,,,,,,,,,,,,,,,,,,,,,,,
,,,,,,,,,,,,a,1.153935,Incorrect,0,81,81,55,1,t2.png,t4.png,2,0.059078,19,Female,2020-09-16_16h54.56.747,torte-2b,2020.1.3,MacIntel,60,13312,,,,,,,,,,,,,,,,,,,,,,,,,,,,,,,,,,,,,,,,,,,,,,,,,,,,,,,,,,,,,,,,,
,,,,,,,,,,,,l,0.683345,Correct!,0,82,82,27,1,t3.png,t1.png,2,0.0565,19,Female,2020-09-16_16h54.56.747,torte-2b,2020.1.3,MacIntel,60,13312,,,,,,,,,,,,,,,,,,,,,,,,,,,,,,,,,,,,,,,,,,,,,,,,,,,,,,,,,,,,,,,,,
,,,,,,,,,,,,l,0.40026,Correct!,0,83,83,99,1,t1.png,t5.png,4,9.55E-11,19,Female,2020-09-16_16h54.56.747,torte-2b,2020.1.3,MacIntel,60,13312,,,,,,,,,,,,,,,,,,,,,,,,,,,,,,,,,,,,,,,,,,,,,,,,,,,,,,,,,,,,,,,,,
,,,,,,,,,,,,l,0.433505,Incorrect,0,84,84,92,1,t2.png,t3.png,1,0.909,19,Female,2020-09-16_16h54.56.747,torte-2b,2020.1.3,MacIntel,60,13312,,,,,,,,,,,,,,,,,,,,,,,,,,,,,,,,,,,,,,,,,,,,,,,,,,,,,,,,,,,,,,,,,
,,,,,,,,,,,,l,0.970305,Correct!,0,85,85,33,1,t5.png,t1.png,4,9.55E-11,19,Female,2020-09-16_16h54.56.747,torte-2b,2020.1.3,MacIntel,60,13312,,,,,,,,,,,,,,,,,,,,,,,,,,,,,,,,,,,,,,,,,,,,,,,,,,,,,,,,,,,,,,,,,
,,,,,,,,,,,,l,0.838175,Incorrect,0,86,86,105,1,t3.png,t2.png,1,0.90855,19,Female,2020-09-16_16h54.56.747,torte-2b,2020.1.3,MacIntel,60,13312,,,,,,,,,,,,,,,,,,,,,,,,,,,,,,,,,,,,,,,,,,,,,,,,,,,,,,,,,,,,,,,,,
,,,,,,,,,,,,l,0.885075,Correct!,0,87,87,0,1,t5.png,t1.png,4,9.55E-11,19,Female,2020-09-16_16h54.56.747,torte-2b,2020.1.3,MacIntel,60,13312,,,,,,,,,,,,,,,,,,,,,,,,,,,,,,,,,,,,,,,,,,,,,,,,,,,,,,,,,,,,,,,,,
,,,,,,,,,,,,a,0.819565,Incorrect,0,88,88,60,1,t2.png,t4.png,2,0.059078,19,Female,2020-09-16_16h54.56.747,torte-2b,2020.1.3,MacIntel,60,13312,,,,,,,,,,,,,,,,,,,,,,,,,,,,,,,,,,,,,,,,,,,,,,,,,,,,,,,,,,,,,,,,,
,,,,,,,,,,,,l,0.95132,Correct!,0,89,89,40,1,t1.png,t5.png,4,9.55E-11,19,Female,2020-09-16_16h54.56.747,torte-2b,2020.1.3,MacIntel,60,13312,,,,,,,,,,,,,,,,,,,,,,,,,,,,,,,,,,,,,,,,,,,,,,,,,,,,,,,,,,,,,,,,,
,,,,,,,,,,,,l,0.783935,Correct!,0,90,90,6,1,t1.png,t4.png,3,0.0000131,19,Female,2020-09-16_16h54.56.747,torte-2b,2020.1.3,MacIntel,60,13312,,,,,,,,,,,,,,,,,,,,,,,,,,,,,,,,,,,,,,,,,,,,,,,,,,,,,,,,,,,,,,,,,
,,,,,,,,,,,,l,0.63228,Correct!,0,91,91,35,1,t1.png,t4.png,3,0.0000131,19,Female,2020-09-16_16h54.56.747,torte-2b,2020.1.3,MacIntel,60,13312,,,,,,,,,,,,,,,,,,,,,,,,,,,,,,,,,,,,,,,,,,,,,,,,,,,,,,,,,,,,,,,,,
,,,,,,,,,,,,a,0.81878,Incorrect,0,92,92,69,1,t4.png,t2.png,2,0.059078,19,Female,2020-09-16_16h54.56.747,torte-2b,2020.1.3,MacIntel,60,13312,,,,,,,,,,,,,,,,,,,,,,,,,,,,,,,,,,,,,,,,,,,,,,,,,,,,,,,,,,,,,,,,,
,,,,,,,,,,,,l,1.27257,Correct!,0,93,93,54,1,t1.png,t5.png,4,9.55E-11,19,Female,2020-09-16_16h54.56.747,torte-2b,2020.1.3,MacIntel,60,13312,,,,,,,,,,,,,,,,,,,,,,,,,,,,,,,,,,,,,,,,,,,,,,,,,,,,,,,,,,,,,,,,,
,,,,,,,,,,,,l,0.76599,Correct!,0,94,94,111,1,t5.png,t1.png,4,9.55E-11,19,Female,2020-09-16_16h54.56.747,torte-2b,2020.1.3,MacIntel,60,13312,,,,,,,,,,,,,,,,,,,,,,,,,,,,,,,,,,,,,,,,,,,,,,,,,,,,,,,,,,,,,,,,,
,,,,,,,,,,,,a,1.00007,Incorrect,0,95,95,88,1,t3.png,t1.png,2,0.056466,19,Female,2020-09-16_16h54.56.747,torte-2b,2020.1.3,MacIntel,60,13312,,,,,,,,,,,,,,,,,,,,,,,,,,,,,,,,,,,,,,,,,,,,,,,,,,,,,,,,,,,,,,,,,
,,,,,,,,,,,,l,1.58588,Correct!,0,96,96,91,1,t1.png,t4.png,3,0.0000131,19,Female,2020-09-16_16h54.56.747,torte-2b,2020.1.3,MacIntel,60,13312,,,,,,,,,,,,,,,,,,,,,,,,,,,,,,,,,,,,,,,,,,,,,,,,,,,,,,,,,,,,,,,,,
,,,,,,,,,,,,a,1.13298,Correct!,0,97,97,109,1,t5.png,t5.png,0,0.97829,19,Female,2020-09-16_16h54.56.747,torte-2b,2020.1.3,MacIntel,60,13312,,,,,,,,,,,,,,,,,,,,,,,,,,,,,,,,,,,,,,,,,,,,,,,,,,,,,,,,,,,,,,,,,
,,,,,,,,,,,,a,0.851145,Correct!,0,98,98,70,1,t5.png,t5.png,0,0.978,19,Female,2020-09-16_16h54.56.747,torte-2b,2020.1.3,MacIntel,60,13312,,,,,,,,,,,,,,,,,,,,,,,,,,,,,,,,,,,,,,,,,,,,,,,,,,,,,,,,,,,,,,,,,
,,,,,,,,,,,,l,1.033885,Incorrect,0,99,99,2,1,t3.png,t2.png,1,0.90855,19,Female,2020-09-16_16h54.56.747,torte-2b,2020.1.3,MacIntel,60,13312,,,,,,,,,,,,,,,,,,,,,,,,,,,,,,,,,,,,,,,,,,,,,,,,,,,,,,,,,,,,,,,,,
,,,,,,,,,,,,a,0.803555,Incorrect,0,100,100,90,1,t1.png,t5.png,4,9.55E-11,19,Female,2020-09-16_16h54.56.747,torte-2b,2020.1.3,MacIntel,60,13312,,,,,,,,,,,,,,,,,,,,,,,,,,,,,,,,,,,,,,,,,,,,,,,,,,,,,,,,,,,,,,,,,
,,,,,,,,,,,,l,1.420165,Correct!,0,101,101,14,1,t2.png,t4.png,2,0.059078,19,Female,2020-09-16_16h54.56.747,torte-2b,2020.1.3,MacIntel,60,13312,,,,,,,,,,,,,,,,,,,,,,,,,,,,,,,,,,,,,,,,,,,,,,,,,,,,,,,,,,,,,,,,,
,,,,,,,,,,,,l,1.03531,Correct!,0,102,102,73,1,t4.png,t2.png,2,0.059078,19,Female,2020-09-16_16h54.56.747,torte-2b,2020.1.3,MacIntel,60,13312,,,,,,,,,,,,,,,,,,,,,,,,,,,,,,,,,,,,,,,,,,,,,,,,,,,,,,,,,,,,,,,,,
,,,,,,,,,,,,l,0.63414,Correct!,0,103,103,67,1,t1.png,t5.png,4,9.55E-11,19,Female,2020-09-16_16h54.56.747,torte-2b,2020.1.3,MacIntel,60,13312,,,,,,,,,,,,,,,,,,,,,,,,,,,,,,,,,,,,,,,,,,,,,,,,,,,,,,,,,,,,,,,,,
,,,,,,,,,,,,a,1.188025,Incorrect,0,104,104,76,1,t3.png,t2.png,1,0.90855,19,Female,2020-09-16_16h54.56.747,torte-2b,2020.1.3,MacIntel,60,13312,,,,,,,,,,,,,,,,,,,,,,,,,,,,,,,,,,,,,,,,,,,,,,,,,,,,,,,,,,,,,,,,,
,,,,,,,,,,,,l,1.75455,Incorrect,0,105,105,41,1,t3.png,t2.png,1,0.90855,19,Female,2020-09-16_16h54.56.747,torte-2b,2020.1.3,MacIntel,60,13312,,,,,,,,,,,,,,,,,,,,,,,,,,,,,,,,,,,,,,,,,,,,,,,,,,,,,,,,,,,,,,,,,
,,,,,,,,,,,,a,1.382315,Correct!,0,106,106,18,1,t4.png,t5.png,1,0.90025,19,Female,2020-09-16_16h54.56.747,torte-2b,2020.1.3,MacIntel,60,13312,,,,,,,,,,,,,,,,,,,,,,,,,,,,,,,,,,,,,,,,,,,,,,,,,,,,,,,,,,,,,,,,,
,,,,,,,,,,,,a,1.76761,Incorrect,0,107,107,51,1,t3.png,t1.png,2,0.056466,19,Female,2020-09-16_16h54.56.747,torte-2b,2020.1.3,MacIntel,60,13312,,,,,,,,,,,,,,,,,,,,,,,,,,,,,,,,,,,,,,,,,,,,,,,,,,,,,,,,,,,,,,,,,
,,,,,,,,,,,,a,1.46825,Correct!,0,108,108,7,1,t4.png,t5.png,1,0.90025,19,Female,2020-09-16_16h54.56.747,torte-2b,2020.1.3,MacIntel,60,13312,,,,,,,,,,,,,,,,,,,,,,,,,,,,,,,,,,,,,,,,,,,,,,,,,,,,,,,,,,,,,,,,,
,,,,,,,,,,,,a,1.354095,Correct!,0,109,109,19,1,t4.png,t2.png,2,0.059078,19,Female,2020-09-16_16h54.56.747,torte-2b,2020.1.3,MacIntel,60,13312,,,,,,,,,,,,,,,,,,,,,,,,,,,,,,,,,,,,,,,,,,,,,,,,,,,,,,,,,,,,,,,,,
,,,,,,,,,,,,a,1.38417,Correct!,0,110,110,49,1,t4.png,t5.png,1,0.9,19,Female,2020-09-16_16h54.56.747,torte-2b,2020.1.3,MacIntel,60,13312,,,,,,,,,,,,,,,,,,,,,,,,,,,,,,,,,,,,,,,,,,,,,,,,,,,,,,,,,,,,,,,,,
,,,,,,,,,,,,l,1.11879,Incorrect,0,111,111,95,1,t1.png,t1.png,0,0.978,19,Female,2020-09-16_16h54.56.747,torte-2b,2020.1.3,MacIntel,60,13312,,,,,,,,,,,,,,,,,,,,,,,,,,,,,,,,,,,,,,,,,,,,,,,,,,,,,,,,,,,,,,,,,
,,,,,,,,,,,,l,2.135585,Incorrect,0,112,112,101,1,t4.png,t5.png,1,0.90025,19,Female,2020-09-16_16h54.56.747,torte-2b,2020.1.3,MacIntel,60,13312,,,,,,,,,,,,,,,,,,,,,,,,,,,,,,,,,,,,,,,,,,,,,,,,,,,,,,,,,,,,,,,,,
,,,,,,,,,,,,a,1.320655,Incorrect,0,113,113,115,1,t2.png,t4.png,2,0.059078,19,Female,2020-09-16_16h54.56.747,torte-2b,2020.1.3,MacIntel,60,13312,,,,,,,,,,,,,,,,,,,,,,,,,,,,,,,,,,,,,,,,,,,,,,,,,,,,,,,,,,,,,,,,,
,,,,,,,,,,,,l,1.316815,Incorrect,0,114,114,23,1,t5.png,t4.png,1,0.90025,19,Female,2020-09-16_16h54.56.747,torte-2b,2020.1.3,MacIntel,60,13312,,,,,,,,,,,,,,,,,,,,,,,,,,,,,,,,,,,,,,,,,,,,,,,,,,,,,,,,,,,,,,,,,
,,,,,,,,,,,,l,1.86906,Incorrect,0,115,115,85,1,t3.png,t2.png,1,0.90855,19,Female,2020-09-16_16h54.56.747,torte-2b,2020.1.3,MacIntel,60,13312,,,,,,,,,,,,,,,,,,,,,,,,,,,,,,,,,,,,,,,,,,,,,,,,,,,,,,,,,,,,,,,,,
,,,,,,,,,,,,l,1.40033,Incorrect,0,116,116,44,1,t2.png,t3.png,1,0.909,19,Female,2020-09-16_16h54.56.747,torte-2b,2020.1.3,MacIntel,60,13312,,,,,,,,,,,,,,,,,,,,,,,,,,,,,,,,,,,,,,,,,,,,,,,,,,,,,,,,,,,,,,,,,
,,,,,,,,,,,,a,1.76689,Incorrect,0,117,117,24,1,t4.png,t2.png,2,0.059078,19,Female,2020-09-16_16h54.56.747,torte-2b,2020.1.3,MacIntel,60,13312,,,,,,,,,,,,,,,,,,,,,,,,,,,,,,,,,,,,,,,,,,,,,,,,,,,,,,,,,,,,,,,,,
,,,,,,,,,,,,a,0.984175,Correct!,0,118,118,107,1,t1.png,t1.png,0,0.978,19,Female,2020-09-16_16h54.56.747,torte-2b,2020.1.3,MacIntel,60,13312,,,,,,,,,,,,,,,,,,,,,,,,,,,,,,,,,,,,,,,,,,,,,,,,,,,,,,,,,,,,,,,,,
,,,,,,,,,,,,a,0.9011,Incorrect,0,119,119,117,1,t1.png,t5.png,4,9.55E-11,19,Female,2020-09-16_16h54.56.747,torte-2b,2020.1.3,MacIntel,60,13312,,,,,,,,,,,,,,,,,,,,,,,,,,,,,,,,,,,,,,,,,,,,,,,,,,,,,,,,,,,,,,,,,
,,,,,,,,,,,,a,1.41892,Incorrect,,,,,,t5.png,t3.png,2,0.056466,19,Female,2020-09-16_16h54.56.747,torte-2b,2020.1.3,MacIntel,60,13312,space,61.232335,space,15.678645,0,0,0,108,1,,,,,,,,,,,,,,,,,,,,,,,,,,,,,,,,,,,,,,,,,,,,,,,,,,,,,,,,
,,,,,,,,,,,,a,0.768295,Correct!,,,,,,t4.png,t3.png,1,0.90855,19,Female,2020-09-16_16h54.56.747,torte-2b,2020.1.3,MacIntel,60,13312,,,,,0,1,1,35,1,,,,,,,,,,,,,,,,,,,,,,,,,,,,,,,,,,,,,,,,,,,,,,,,,,,,,,,,
,,,,,,,,,,,,l,1.232895,Incorrect,,,,,,t1.png,t2.png,1,0.90025,19,Female,2020-09-16_16h54.56.747,torte-2b,2020.1.3,MacIntel,60,13312,,,,,0,2,2,105,1,,,,,,,,,,,,,,,,,,,,,,,,,,,,,,,,,,,,,,,,,,,,,,,,,,,,,,,,
,,,,,,,,,,,,l,1.55235,Correct!,,,,,,t4.png,t1.png,3,0.0000131,19,Female,2020-09-16_16h54.56.747,torte-2b,2020.1.3,MacIntel,60,13312,,,,,0,3,3,48,1,,,,,,,,,,,,,,,,,,,,,,,,,,,,,,,,,,,,,,,,,,,,,,,,,,,,,,,,
,,,,,,,,,,,,a,1.24942,Correct!,,,,,,t1.png,t2.png,1,0.9,19,Female,2020-09-16_16h54.56.747,torte-2b,2020.1.3,MacIntel,60,13312,,,,,0,4,4,1,1,,,,,,,,,,,,,,,,,,,,,,,,,,,,,,,,,,,,,,,,,,,,,,,,,,,,,,,,
,,,,,,,,,,,,l,0.66747,Correct!,,,,,,t1.png,t3.png,2,0.056466,19,Female,2020-09-16_16h54.56.747,torte-2b,2020.1.3,MacIntel,60,13312,,,,,0,5,5,87,1,,,,,,,,,,,,,,,,,,,,,,,,,,,,,,,,,,,,,,,,,,,,,,,,,,,,,,,,
,,,,,,,,,,,,l,0.75202,Incorrect,,,,,,t3.png,t2.png,1,0.90855,19,Female,2020-09-16_16h54.56.747,torte-2b,2020.1.3,MacIntel,60,13312,,,,,0,6,6,18,1,,,,,,,,,,,,,,,,,,,,,,,,,,,,,,,,,,,,,,,,,,,,,,,,,,,,,,,,
,,,,,,,,,,,,a,1.00369,Correct!,,,,,,t3.png,t5.png,2,0.0565,19,Female,2020-09-16_16h54.56.747,torte-2b,2020.1.3,MacIntel,60,13312,,,,,0,7,7,30,1,,,,,,,,,,,,,,,,,,,,,,,,,,,,,,,,,,,,,,,,,,,,,,,,,,,,,,,,
,,,,,,,,,,,,l,1.55095,Correct!,,,,,,t3.png,t4.png,1,0.909,19,Female,2020-09-16_16h54.56.747,torte-2b,2020.1.3,MacIntel,60,13312,,,,,0,8,8,82,1,,,,,,,,,,,,,,,,,,,,,,,,,,,,,,,,,,,,,,,,,,,,,,,,,,,,,,,,
,,,,,,,,,,,,a,1.25095,Correct!,,,,,,t4.png,t3.png,1,0.909,19,Female,2020-09-16_16h54.56.747,torte-2b,2020.1.3,MacIntel,60,13312,,,,,0,9,9,20,1,,,,,,,,,,,,,,,,,,,,,,,,,,,,,,,,,,,,,,,,,,,,,,,,,,,,,,,,
,,,,,,,,,,,,l,1.284105,Correct!,,,,,,t1.png,t5.png,4,9.55E-11,19,Female,2020-09-16_16h54.56.747,torte-2b,2020.1.3,MacIntel,60,13312,,,,,0,10,10,16,1,,,,,,,,,,,,,,,,,,,,,,,,,,,,,,,,,,,,,,,,,,,,,,,,,,,,,,,,
,,,,,,,,,,,,l,0.955405,Incorrect,,,,,,t3.png,t2.png,1,0.90855,19,Female,2020-09-16_16h54.56.747,torte-2b,2020.1.3,MacIntel,60,13312,,,,,0,11,11,97,1,,,,,,,,,,,,,,,,,,,,,,,,,,,,,,,,,,,,,,,,,,,,,,,,,,,,,,,,
,,,,,,,,,,,,a,1.53491,Correct!,,,,,,t2.png,t2.png,0,0.98115,19,Female,2020-09-16_16h54.56.747,torte-2b,2020.1.3,MacIntel,60,13312,,,,,0,12,12,59,1,,,,,,,,,,,,,,,,,,,,,,,,,,,,,,,,,,,,,,,,,,,,,,,,,,,,,,,,
,,,,,,,,,,,,l,0.632245,Incorrect,,,,,,t2.png,t3.png,1,0.90855,19,Female,2020-09-16_16h54.56.747,torte-2b,2020.1.3,MacIntel,60,13312,,,,,0,13,13,65,1,,,,,,,,,,,,,,,,,,,,,,,,,,,,,,,,,,,,,,,,,,,,,,,,,,,,,,,,
,,,,,,,,,,,,l,1.066865,Incorrect,,,,,,t2.png,t1.png,1,0.90025,19,Female,2020-09-16_16h54.56.747,torte-2b,2020.1.3,MacIntel,60,13312,,,,,0,14,14,62,1,,,,,,,,,,,,,,,,,,,,,,,,,,,,,,,,,,,,,,,,,,,,,,,,,,,,,,,,
,,,,,,,,,,,,a,1.00126,Correct!,,,,,,t4.png,t4.png,0,0.98115,19,Female,2020-09-16_16h54.56.747,torte-2b,2020.1.3,MacIntel,60,13312,,,,,0,15,15,21,1,,,,,,,,,,,,,,,,,,,,,,,,,,,,,,,,,,,,,,,,,,,,,,,,,,,,,,,,
,,,,,,,,,,,,l,0.9176,Correct!,,,,,,t1.png,t3.png,2,0.056466,19,Female,2020-09-16_16h54.56.747,torte-2b,2020.1.3,MacIntel,60,13312,,,,,0,16,16,63,1,,,,,,,,,,,,,,,,,,,,,,,,,,,,,,,,,,,,,,,,,,,,,,,,,,,,,,,,
,,,,,,,,,,,,l,1.299675,Incorrect,,,,,,t1.png,t1.png,0,0.97829,19,Female,2020-09-16_16h54.56.747,torte-2b,2020.1.3,MacIntel,60,13312,,,,,0,17,17,67,1,,,,,,,,,,,,,,,,,,,,,,,,,,,,,,,,,,,,,,,,,,,,,,,,,,,,,,,,
,,,,,,,,,,,,l,0.63374,Incorrect,,,,,,t3.png,t2.png,1,0.909,19,Female,2020-09-16_16h54.56.747,torte-2b,2020.1.3,MacIntel,60,13312,,,,,0,18,18,23,1,,,,,,,,,,,,,,,,,,,,,,,,,,,,,,,,,,,,,,,,,,,,,,,,,,,,,,,,
,,,,,,,,,,,,l,0.934325,Incorrect,,,,,,t2.png,t1.png,1,0.90025,19,Female,2020-09-16_16h54.56.747,torte-2b,2020.1.3,MacIntel,60,13312,,,,,0,19,19,5,1,,,,,,,,,,,,,,,,,,,,,,,,,,,,,,,,,,,,,,,,,,,,,,,,,,,,,,,,
,,,,,,,,,,,,a,1.53445,Incorrect,,,,,,t4.png,t2.png,2,0.059078,19,Female,2020-09-16_16h54.56.747,torte-2b,2020.1.3,MacIntel,60,13312,,,,,0,20,20,88,1,,,,,,,,,,,,,,,,,,,,,,,,,,,,,,,,,,,,,,,,,,,,,,,,,,,,,,,,
,,,,,,,,,,,,l,1.600795,Correct!,,,,,,t1.png,t3.png,2,0.056466,19,Female,2020-09-16_16h54.56.747,torte-2b,2020.1.3,MacIntel,60,13312,,,,,0,21,21,69,1,,,,,,,,,,,,,,,,,,,,,,,,,,,,,,,,,,,,,,,,,,,,,,,,,,,,,,,,
,,,,,,,,,,,,a,0.332705,Correct!,,,,,,t4.png,t3.png,1,0.909,19,Female,2020-09-16_16h54.56.747,torte-2b,2020.1.3,MacIntel,60,13312,,,,,0,22,22,46,1,,,,,,,,,,,,,,,,,,,,,,,,,,,,,,,,,,,,,,,,,,,,,,,,,,,,,,,,
,,,,,,,,,,,,a,1.01672,Incorrect,,,,,,t5.png,t3.png,2,0.056466,19,Female,2020-09-16_16h54.56.747,torte-2b,2020.1.3,MacIntel,60,13312,,,,,0,23,23,114,1,,,,,,,,,,,,,,,,,,,,,,,,,,,,,,,,,,,,,,,,,,,,,,,,,,,,,,,,
,,,,,,,,,,,,a,0.932,Correct!,,,,,,t5.png,t5.png,0,0.97829,19,Female,2020-09-16_16h54.56.747,torte-2b,2020.1.3,MacIntel,60,13312,,,,,0,24,24,25,1,,,,,,,,,,,,,,,,,,,,,,,,,,,,,,,,,,,,,,,,,,,,,,,,,,,,,,,,
,,,,,,,,,,,,l,0.86778,Incorrect,,,,,,t1.png,t1.png,0,0.97829,19,Female,2020-09-16_16h54.56.747,torte-2b,2020.1.3,MacIntel,60,13312,,,,,0,25,25,9,1,,,,,,,,,,,,,,,,,,,,,,,,,,,,,,,,,,,,,,,,,,,,,,,,,,,,,,,,
,,,,,,,,,,,,a,0.85463,Correct!,,,,,,t2.png,t2.png,0,0.981,19,Female,2020-09-16_16h54.56.747,torte-2b,2020.1.3,MacIntel,60,13312,,,,,0,26,26,101,1,,,,,,,,,,,,,,,,,,,,,,,,,,,,,,,,,,,,,,,,,,,,,,,,,,,,,,,,
,,,,,,,,,,,,a,0.88321,Incorrect,,,,,,t5.png,t2.png,3,0.0000131,19,Female,2020-09-16_16h54.56.747,torte-2b,2020.1.3,MacIntel,60,13312,,,,,0,27,27,119,1,,,,,,,,,,,,,,,,,,,,,,,,,,,,,,,,,,,,,,,,,,,,,,,,,,,,,,,,
,,,,,,,,,,,,l,1.85233,Correct!,,,,,,t1.png,t3.png,2,0.056466,19,Female,2020-09-16_16h54.56.747,torte-2b,2020.1.3,MacIntel,60,13312,,,,,0,28,28,60,1,,,,,,,,,,,,,,,,,,,,,,,,,,,,,,,,,,,,,,,,,,,,,,,,,,,,,,,,
,,,,,,,,,,,,a,1.16882,Incorrect,,,,,,t5.png,t3.png,2,0.0565,19,Female,2020-09-16_16h54.56.747,torte-2b,2020.1.3,MacIntel,60,13312,,,,,0,29,29,39,1,,,,,,,,,,,,,,,,,,,,,,,,,,,,,,,,,,,,,,,,,,,,,,,,,,,,,,,,
,,,,,,,,,,,,l,1.185355,Incorrect,,,,,,t2.png,t1.png,1,0.90025,19,Female,2020-09-16_16h54.56.747,torte-2b,2020.1.3,MacIntel,60,13312,,,,,0,30,30,4,1,,,,,,,,,,,,,,,,,,,,,,,,,,,,,,,,,,,,,,,,,,,,,,,,,,,,,,,,
,,,,,,,,,,,,a,0.970965,Correct!,,,,,,t5.png,t4.png,1,0.90025,19,Female,2020-09-16_16h54.56.747,torte-2b,2020.1.3,MacIntel,60,13312,,,,,0,31,31,34,1,,,,,,,,,,,,,,,,,,,,,,,,,,,,,,,,,,,,,,,,,,,,,,,,,,,,,,,,
,,,,,,,,,,,,l,1.50121,Correct!,,,,,,t4.png,t2.png,2,0.059078,19,Female,2020-09-16_16h54.56.747,torte-2b,2020.1.3,MacIntel,60,13312,,,,,0,32,32,109,1,,,,,,,,,,,,,,,,,,,,,,,,,,,,,,,,,,,,,,,,,,,,,,,,,,,,,,,,
,,,,,,,,,,,,a,1.322665,Correct!,,,,,,t5.png,t4.png,1,0.90025,19,Female,2020-09-16_16h54.56.747,torte-2b,2020.1.3,MacIntel,60,13312,,,,,0,33,33,27,1,,,,,,,,,,,,,,,,,,,,,,,,,,,,,,,,,,,,,,,,,,,,,,,,,,,,,,,,
,,,,,,,,,,,,l,1.218015,Correct!,,,,,,t1.png,t4.png,3,0.0000131,19,Female,2020-09-16_16h54.56.747,torte-2b,2020.1.3,MacIntel,60,13312,,,,,0,34,34,81,1,,,,,,,,,,,,,,,,,,,,,,,,,,,,,,,,,,,,,,,,,,,,,,,,,,,,,,,,
,,,,,,,,,,,,a,1.28396,Incorrect,,,,,,t5.png,t3.png,2,0.056466,19,Female,2020-09-16_16h54.56.747,torte-2b,2020.1.3,MacIntel,60,13312,,,,,0,35,35,56,1,,,,,,,,,,,,,,,,,,,,,,,,,,,,,,,,,,,,,,,,,,,,,,,,,,,,,,,,
,,,,,,,,,,,,l,1.35195,Correct!,,,,,,t5.png,t1.png,4,9.55E-11,19,Female,2020-09-16_16h54.56.747,torte-2b,2020.1.3,MacIntel,60,13312,,,,,0,36,36,43,1,,,,,,,,,,,,,,,,,,,,,,,,,,,,,,,,,,,,,,,,,,,,,,,,,,,,,,,,
,,,,,,,,,,,,a,1.731305,Incorrect,,,,,,t4.png,t1.png,3,0.0000131,19,Female,2020-09-16_16h54.56.747,torte-2b,2020.1.3,MacIntel,60,13312,,,,,0,37,37,61,1,,,,,,,,,,,,,,,,,,,,,,,,,,,,,,,,,,,,,,,,,,,,,,,,,,,,,,,,
,,,,,,,,,,,,l,0.534305,Correct!,,,,,,t2.png,t4.png,2,0.059078,19,Female,2020-09-16_16h54.56.747,torte-2b,2020.1.3,MacIntel,60,13312,,,,,0,38,38,24,1,,,,,,,,,,,,,,,,,,,,,,,,,,,,,,,,,,,,,,,,,,,,,,,,,,,,,,,,
,,,,,,,,,,,,l,0.57092,Incorrect,,,,,,t5.png,t4.png,1,0.90025,19,Female,2020-09-16_16h54.56.747,torte-2b,2020.1.3,MacIntel,60,13312,,,,,0,39,39,26,1,,,,,,,,,,,,,,,,,,,,,,,,,,,,,,,,,,,,,,,,,,,,,,,,,,,,,,,,
,,,,,,,,,,,,l,1.719365,Correct!,,,,,,t2.png,t4.png,2,0.059078,19,Female,2020-09-16_16h54.56.747,torte-2b,2020.1.3,MacIntel,60,13312,,,,,0,40,40,11,1,,,,,,,,,,,,,,,,,,,,,,,,,,,,,,,,,,,,,,,,,,,,,,,,,,,,,,,,
,,,,,,,,,,,,a,1.83466,Correct!,,,,,,t2.png,t1.png,1,0.90025,19,Female,2020-09-16_16h54.56.747,torte-2b,2020.1.3,MacIntel,60,13312,,,,,0,41,41,19,1,,,,,,,,,,,,,,,,,,,,,,,,,,,,,,,,,,,,,,,,,,,,,,,,,,,,,,,,
,,,,,,,,,,,,a,1.351775,Incorrect,,,,,,t5.png,t1.png,4,9.55E-11,19,Female,2020-09-16_16h54.56.747,torte-2b,2020.1.3,MacIntel,60,13312,,,,,0,42,42,71,1,,,,,,,,,,,,,,,,,,,,,,,,,,,,,,,,,,,,,,,,,,,,,,,,,,,,,,,,
,,,,,,,,,,,,l,0.920055,Correct!,,,,,,t3.png,t5.png,2,0.056466,19,Female,2020-09-16_16h54.56.747,torte-2b,2020.1.3,MacIntel,60,13312,,,,,0,43,43,6,1,,,,,,,,,,,,,,,,,,,,,,,,,,,,,,,,,,,,,,,,,,,,,,,,,,,,,,,,
,,,,,,,,,,,,a,1.153835,Incorrect,,,,,,t3.png,t1.png,2,0.056466,19,Female,2020-09-16_16h54.56.747,torte-2b,2020.1.3,MacIntel,60,13312,,,,,0,44,44,0,1,,,,,,,,,,,,,,,,,,,,,,,,,,,,,,,,,,,,,,,,,,,,,,,,,,,,,,,,
,,,,,,,,,,,,a,0.868465,Correct!,,,,,,t4.png,t3.png,1,0.90855,19,Female,2020-09-16_16h54.56.747,torte-2b,2020.1.3,MacIntel,60,13312,,,,,0,45,45,45,1,,,,,,,,,,,,,,,,,,,,,,,,,,,,,,,,,,,,,,,,,,,,,,,,,,,,,,,,
,,,,,,,,,,,,l,1.901855,Incorrect,,,,,,t5.png,t5.png,0,0.97829,19,Female,2020-09-16_16h54.56.747,torte-2b,2020.1.3,MacIntel,60,13312,,,,,0,46,46,73,1,,,,,,,,,,,,,,,,,,,,,,,,,,,,,,,,,,,,,,,,,,,,,,,,,,,,,,,,
,,,,,,,,,,,,l,0.989455,Incorrect,,,,,,t4.png,t3.png,1,0.90855,19,Female,2020-09-16_16h54.56.747,torte-2b,2020.1.3,MacIntel,60,13312,,,,,0,47,47,75,1,,,,,,,,,,,,,,,,,,,,,,,,,,,,,,,,,,,,,,,,,,,,,,,,,,,,,,,,
,,,,,,,,,,,,l,1.467545,Correct!,,,,,,t3.png,t1.png,2,0.0565,19,Female,2020-09-16_16h54.56.747,torte-2b,2020.1.3,MacIntel,60,13312,,,,,0,48,48,31,1,,,,,,,,,,,,,,,,,,,,,,,,,,,,,,,,,,,,,,,,,,,,,,,,,,,,,,,,
,,,,,,,,,,,,l,1.338405,Incorrect,,,,,,t1.png,t2.png,1,0.90025,19,Female,2020-09-16_16h54.56.747,torte-2b,2020.1.3,MacIntel,60,13312,,,,,0,49,49,112,1,,,,,,,,,,,,,,,,,,,,,,,,,,,,,,,,,,,,,,,,,,,,,,,,,,,,,,,,
,,,,,,,,,,,,l,0.750915,Correct!,,,,,,t2.png,t4.png,2,0.059078,19,Female,2020-09-16_16h54.56.747,torte-2b,2020.1.3,MacIntel,60,13312,,,,,0,50,50,37,1,,,,,,,,,,,,,,,,,,,,,,,,,,,,,,,,,,,,,,,,,,,,,,,,,,,,,,,,
,,,,,,,,,,,,a,0.783675,Incorrect,,,,,,t5.png,t2.png,3,0.0000131,19,Female,2020-09-16_16h54.56.747,torte-2b,2020.1.3,MacIntel,60,13312,,,,,0,51,51,51,1,,,,,,,,,,,,,,,,,,,,,,,,,,,,,,,,,,,,,,,,,,,,,,,,,,,,,,,,
,,,,,,,,,,,,a,1.183575,Correct!,,,,,,t1.png,t2.png,1,0.90025,19,Female,2020-09-16_16h54.56.747,torte-2b,2020.1.3,MacIntel,60,13312,,,,,0,52,52,33,1,,,,,,,,,,,,,,,,,,,,,,,,,,,,,,,,,,,,,,,,,,,,,,,,,,,,,,,,
,,,,,,,,,,,,a,2.01728,Incorrect,,,,,,t5.png,t2.png,3,0.0000131,19,Female,2020-09-16_16h54.56.747,torte-2b,2020.1.3,MacIntel,60,13312,,,,,0,53,53,98,1,,,,,,,,,,,,,,,,,,,,,,,,,,,,,,,,,,,,,,,,,,,,,,,,,,,,,,,,
,,,,,,,,,,,,l,1.30477,Correct!,,,,,,t1.png,t5.png,4,9.55E-11,19,Female,2020-09-16_16h54.56.747,torte-2b,2020.1.3,MacIntel,60,13312,,,,,0,54,54,55,1,,,,,,,,,,,,,,,,,,,,,,,,,,,,,,,,,,,,,,,,,,,,,,,,,,,,,,,,
,,,,,,,,,,,,l,1.651845,Incorrect,,,,,,t2.png,t3.png,1,0.90855,19,Female,2020-09-16_16h54.56.747,torte-2b,2020.1.3,MacIntel,60,13312,,,,,0,55,55,111,1,,,,,,,,,,,,,,,,,,,,,,,,,,,,,,,,,,,,,,,,,,,,,,,,,,,,,,,,
,,,,,,,,,,,,a,1.73753,Incorrect,,,,,,t2.png,t5.png,3,0.0000131,19,Female,2020-09-16_16h54.56.747,torte-2b,2020.1.3,MacIntel,60,13312,,,,,0,56,56,95,1,,,,,,,,,,,,,,,,,,,,,,,,,,,,,,,,,,,,,,,,,,,,,,,,,,,,,,,,
,,,,,,,,,,,,l,0.867765,Correct!,,,,,,t2.png,t5.png,3,0.0000131,19,Female,2020-09-16_16h54.56.747,torte-2b,2020.1.3,MacIntel,60,13312,,,,,0,57,57,40,1,,,,,,,,,,,,,,,,,,,,,,,,,,,,,,,,,,,,,,,,,,,,,,,,,,,,,,,,
,,,,,,,,,,,,a,0.83412,Incorrect,,,,,,t4.png,t1.png,3,0.0000131,19,Female,2020-09-16_16h54.56.747,torte-2b,2020.1.3,MacIntel,60,13312,,,,,0,58,58,42,1,,,,,,,,,,,,,,,,,,,,,,,,,,,,,,,,,,,,,,,,,,,,,,,,,,,,,,,,
,,,,,,,,,,,,a,1.46696,Incorrect,,,,,,t2.png,t5.png,3,0.0000131,19,Female,2020-09-16_16h54.56.747,torte-2b,2020.1.3,MacIntel,60,13312,,,,,0,59,59,8,1,,,,,,,,,,,,,,,,,,,,,,,,,,,,,,,,,,,,,,,,,,,,,,,,,,,,,,,,
,,,,,,,,,,,,a,1.787905,Correct!,,,,,,t4.png,t5.png,1,0.90025,19,Female,2020-09-16_16h54.56.747,torte-2b,2020.1.3,MacIntel,60,13312,,,,,0,60,60,58,1,,,,,,,,,,,,,,,,,,,,,,,,,,,,,,,,,,,,,,,,,,,,,,,,,,,,,,,,
,,,,,,,,,,,,l,1.249775,Correct!,,,,,,t1.png,t5.png,4,9.55E-11,19,Female,2020-09-16_16h54.56.747,torte-2b,2020.1.3,MacIntel,60,13312,,,,,0,61,61,85,1,,,,,,,,,,,,,,,,,,,,,,,,,,,,,,,,,,,,,,,,,,,,,,,,,,,,,,,,
,,,,,,,,,,,,l,0.68423,Correct!,,,,,,t1.png,t4.png,3,0.0000131,19,Female,2020-09-16_16h54.56.747,torte-2b,2020.1.3,MacIntel,60,13312,,,,,0,62,62,17,1,,,,,,,,,,,,,,,,,,,,,,,,,,,,,,,,,,,,,,,,,,,,,,,,,,,,,,,,
,,,,,,,,,,,,a,1.422925,Incorrect,,,,,,t5.png,t3.png,2,0.056466,19,Female,2020-09-16_16h54.56.747,torte-2b,2020.1.3,MacIntel,60,13312,,,,,0,63,63,38,1,,,,,,,,,,,,,,,,,,,,,,,,,,,,,,,,,,,,,,,,,,,,,,,,,,,,,,,,
,,,,,,,,,,,,a,0.13563,Incorrect,,,,,,t4.png,t2.png,2,0.059078,19,Female,2020-09-16_16h54.56.747,torte-2b,2020.1.3,MacIntel,60,13312,,,,,0,64,64,110,1,,,,,,,,,,,,,,,,,,,,,,,,,,,,,,,,,,,,,,,,,,,,,,,,,,,,,,,,
,,,,,,,,,,,,l,0.900895,Correct!,,,,,,t1.png,t3.png,2,0.056466,19,Female,2020-09-16_16h54.56.747,torte-2b,2020.1.3,MacIntel,60,13312,,,,,0,65,65,99,1,,,,,,,,,,,,,,,,,,,,,,,,,,,,,,,,,,,,,,,,,,,,,,,,,,,,,,,,
,,,,,,,,,,,,l,1.202425,Incorrect,,,,,,t2.png,t2.png,0,0.98115,19,Female,2020-09-16_16h54.56.747,torte-2b,2020.1.3,MacIntel,60,13312,,,,,0,66,66,2,1,,,,,,,,,,,,,,,,,,,,,,,,,,,,,,,,,,,,,,,,,,,,,,,,,,,,,,,,
,,,,,,,,,,,,a,1.334395,Incorrect,,,,,,t3.png,t5.png,2,0.0565,19,Female,2020-09-16_16h54.56.747,torte-2b,2020.1.3,MacIntel,60,13312,,,,,0,67,67,83,1,,,,,,,,,,,,,,,,,,,,,,,,,,,,,,,,,,,,,,,,,,,,,,,,,,,,,,,,
,,,,,,,,,,,,a,1.067175,Incorrect,,,,,,t3.png,t1.png,2,0.056466,19,Female,2020-09-16_16h54.56.747,torte-2b,2020.1.3,MacIntel,60,13312,,,,,0,68,68,32,1,,,,,,,,,,,,,,,,,,,,,,,,,,,,,,,,,,,,,,,,,,,,,,,,,,,,,,,,
,,,,,,,,,,,,a,1.317515,Incorrect,,,,,,t2.png,t5.png,3,0.0000131,19,Female,2020-09-16_16h54.56.747,torte-2b,2020.1.3,MacIntel,60,13312,,,,,0,69,69,104,1,,,,,,,,,,,,,,,,,,,,,,,,,,,,,,,,,,,,,,,,,,,,,,,,,,,,,,,,
,,,,,,,,,,,,l,2.40169,Incorrect,,,,,,t2.png,t1.png,1,0.9,19,Female,2020-09-16_16h54.56.747,torte-2b,2020.1.3,MacIntel,60,13312,,,,,0,70,70,118,1,,,,,,,,,,,,,,,,,,,,,,,,,,,,,,,,,,,,,,,,,,,,,,,,,,,,,,,,
,,,,,,,,,,,,l,0.41756,Correct!,,,,,,t2.png,t5.png,3,0.0000131,19,Female,2020-09-16_16h54.56.747,torte-2b,2020.1.3,MacIntel,60,13312,,,,,0,71,71,66,1,,,,,,,,,,,,,,,,,,,,,,,,,,,,,,,,,,,,,,,,,,,,,,,,,,,,,,,,
,,,,,,,,,,,,l,0.50092,Correct!,,,,,,t3.png,t5.png,2,0.056466,19,Female,2020-09-16_16h54.56.747,torte-2b,2020.1.3,MacIntel,60,13312,,,,,0,72,72,44,1,,,,,,,,,,,,,,,,,,,,,,,,,,,,,,,,,,,,,,,,,,,,,,,,,,,,,,,,
,,,,,,,,,,,,a,0.433805,Incorrect,,,,,,t5.png,t1.png,4,9.55E-11,19,Female,2020-09-16_16h54.56.747,torte-2b,2020.1.3,MacIntel,60,13312,,,,,0,73,73,102,1,,,,,,,,,,,,,,,,,,,,,,,,,,,,,,,,,,,,,,,,,,,,,,,,,,,,,,,,
,,,,,,,,,,,,l,0.768435,Incorrect,,,,,,t3.png,t4.png,1,0.90855,19,Female,2020-09-16_16h54.56.747,torte-2b,2020.1.3,MacIntel,60,13312,,,,,0,74,74,96,1,,,,,,,,,,,,,,,,,,,,,,,,,,,,,,,,,,,,,,,,,,,,,,,,,,,,,,,,
,,,,,,,,,,,,a,0.551845,Incorrect,,,,,,t5.png,t1.png,4,9.55E-11,19,Female,2020-09-16_16h54.56.747,torte-2b,2020.1.3,MacIntel,60,13312,,,,,0,75,75,22,1,,,,,,,,,,,,,,,,,,,,,,,,,,,,,,,,,,,,,,,,,,,,,,,,,,,,,,,,
,,,,,,,,,,,,l,0.688165,Correct!,,,,,,t2.png,t4.png,2,0.0591,19,Female,2020-09-16_16h54.56.747,torte-2b,2020.1.3,MacIntel,60,13312,,,,,0,76,76,15,1,,,,,,,,,,,,,,,,,,,,,,,,,,,,,,,,,,,,,,,,,,,,,,,,,,,,,,,,
,,,,,,,,,,,,l,1.01776,Correct!,,,,,,t1.png,t4.png,3,0.0000131,19,Female,2020-09-16_16h54.56.747,torte-2b,2020.1.3,MacIntel,60,13312,,,,,0,77,77,107,1,,,,,,,,,,,,,,,,,,,,,,,,,,,,,,,,,,,,,,,,,,,,,,,,,,,,,,,,
,,,,,,,,,,,,a,0.817165,Incorrect,,,,,,t5.png,t2.png,3,0.0000131,19,Female,2020-09-16_16h54.56.747,torte-2b,2020.1.3,MacIntel,60,13312,,,,,0,78,78,116,1,,,,,,,,,,,,,,,,,,,,,,,,,,,,,,,,,,,,,,,,,,,,,,,,,,,,,,,,
,,,,,,,,,,,,l,1.067875,Correct!,,,,,,t3.png,t5.png,2,0.056466,19,Female,2020-09-16_16h54.56.747,torte-2b,2020.1.3,MacIntel,60,13312,,,,,0,79,79,14,1,,,,,,,,,,,,,,,,,,,,,,,,,,,,,,,,,,,,,,,,,,,,,,,,,,,,,,,,
,,,,,,,,,,,,a,1.820635,Incorrect,,,,,,t3.png,t4.png,1,0.909,19,Female,2020-09-16_16h54.56.747,torte-2b,2020.1.3,MacIntel,60,13312,,,,,0,80,80,89,1,,,,,,,,,,,,,,,,,,,,,,,,,,,,,,,,,,,,,,,,,,,,,,,,,,,,,,,,
,,,,,,,,,,,,a,0.648795,Correct!,,,,,,t4.png,t4.png,0,0.98115,19,Female,2020-09-16_16h54.56.747,torte-2b,2020.1.3,MacIntel,60,13312,,,,,0,81,81,79,1,,,,,,,,,,,,,,,,,,,,,,,,,,,,,,,,,,,,,,,,,,,,,,,,,,,,,,,,
,,,,,,,,,,,,l,1.68713,Incorrect,,,,,,t1.png,t1.png,0,0.978,19,Female,2020-09-16_16h54.56.747,torte-2b,2020.1.3,MacIntel,60,13312,,,,,0,82,82,28,1,,,,,,,,,,,,,,,,,,,,,,,,,,,,,,,,,,,,,,,,,,,,,,,,,,,,,,,,
,,,,,,,,,,,,a,1.470575,Incorrect,,,,,,t4.png,t2.png,2,0.0591,19,Female,2020-09-16_16h54.56.747,torte-2b,2020.1.3,MacIntel,60,13312,,,,,0,83,83,36,1,,,,,,,,,,,,,,,,,,,,,,,,,,,,,,,,,,,,,,,,,,,,,,,,,,,,,,,,
,,,,,,,,,,,,l,0.95289,Correct!,,,,,,t4.png,t1.png,3,0.0000131,19,Female,2020-09-16_16h54.56.747,torte-2b,2020.1.3,MacIntel,60,13312,,,,,0,84,84,13,1,,,,,,,,,,,,,,,,,,,,,,,,,,,,,,,,,,,,,,,,,,,,,,,,,,,,,,,,
,,,,,,,,,,,,a,1.06786,Correct!,,,,,,t4.png,t5.png,1,0.9,19,Female,2020-09-16_16h54.56.747,torte-2b,2020.1.3,MacIntel,60,13312,,,,,0,85,85,115,1,,,,,,,,,,,,,,,,,,,,,,,,,,,,,,,,,,,,,,,,,,,,,,,,,,,,,,,,
,,,,,,,,,,,,a,1.10111,Incorrect,,,,,,t3.png,t1.png,2,0.056466,19,Female,2020-09-16_16h54.56.747,torte-2b,2020.1.3,MacIntel,60,13312,,,,,0,86,86,29,1,,,,,,,,,,,,,,,,,,,,,,,,,,,,,,,,,,,,,,,,,,,,,,,,,,,,,,,,
,,,,,,,,,,,,l,1.437445,Correct!,,,,,,t1.png,t4.png,3,0.0000131,19,Female,2020-09-16_16h54.56.747,torte-2b,2020.1.3,MacIntel,60,13312,,,,,0,87,87,92,1,,,,,,,,,,,,,,,,,,,,,,,,,,,,,,,,,,,,,,,,,,,,,,,,,,,,,,,,
,,,,,,,,,,,,a,0.95026,Correct!,,,,,,t5.png,t5.png,0,0.97829,19,Female,2020-09-16_16h54.56.747,torte-2b,2020.1.3,MacIntel,60,13312,,,,,0,88,88,94,1,,,,,,,,,,,,,,,,,,,,,,,,,,,,,,,,,,,,,,,,,,,,,,,,,,,,,,,,
,,,,,,,,,,,,l,1.083715,Incorrect,,,,,,t1.png,t1.png,0,0.978,19,Female,2020-09-16_16h54.56.747,torte-2b,2020.1.3,MacIntel,60,13312,,,,,0,89,89,54,1,,,,,,,,,,,,,,,,,,,,,,,,,,,,,,,,,,,,,,,,,,,,,,,,,,,,,,,,
,,,,,,,,,,,,l,0.853125,Incorrect,,,,,,t1.png,t1.png,0,0.97829,19,Female,2020-09-16_16h54.56.747,torte-2b,2020.1.3,MacIntel,60,13312,,,,,0,90,90,78,1,,,,,,,,,,,,,,,,,,,,,,,,,,,,,,,,,,,,,,,,,,,,,,,,,,,,,,,,
,,,,,,,,,,,,a,1.08313,Incorrect,,,,,,t5.png,t2.png,3,0.0000131,19,Female,2020-09-16_16h54.56.747,torte-2b,2020.1.3,MacIntel,60,13312,,,,,0,91,91,91,1,,,,,,,,,,,,,,,,,,,,,,,,,,,,,,,,,,,,,,,,,,,,,,,,,,,,,,,,
,,,,,,,,,,,,l,0.74758,Incorrect,,,,,,t4.png,t5.png,1,0.90025,19,Female,2020-09-16_16h54.56.747,torte-2b,2020.1.3,MacIntel,60,13312,,,,,0,92,92,103,1,,,,,,,,,,,,,,,,,,,,,,,,,,,,,,,,,,,,,,,,,,,,,,,,,,,,,,,,
,,,,,,,,,,,,a,1.47028,Correct!,,,,,,t1.png,t2.png,1,0.90025,19,Female,2020-09-16_16h54.56.747,torte-2b,2020.1.3,MacIntel,60,13312,,,,,0,93,93,72,1,,,,,,,,,,,,,,,,,,,,,,,,,,,,,,,,,,,,,,,,,,,,,,,,,,,,,,,,
,,,,,,,,,,,,a,1.03404,Incorrect,,,,,,t5.png,t1.png,4,9.55E-11,19,Female,2020-09-16_16h54.56.747,torte-2b,2020.1.3,MacIntel,60,13312,,,,,0,94,94,100,1,,,,,,,,,,,,,,,,,,,,,,,,,,,,,,,,,,,,,,,,,,,,,,,,,,,,,,,,
,,,,,,,,,,,,a,0.900295,Correct!,,,,,,t2.png,t3.png,1,0.909,19,Female,2020-09-16_16h54.56.747,torte-2b,2020.1.3,MacIntel,60,13312,,,,,0,95,95,74,1,,,,,,,,,,,,,,,,,,,,,,,,,,,,,,,,,,,,,,,,,,,,,,,,,,,,,,,,
,,,,,,,,,,,,a,0.815105,Correct!,,,,,,t5.png,t5.png,0,0.978,19,Female,2020-09-16_16h54.56.747,torte-2b,2020.1.3,MacIntel,60,13312,,,,,0,96,96,117,1,,,,,,,,,,,,,,,,,,,,,,,,,,,,,,,,,,,,,,,,,,,,,,,,,,,,,,,,
,,,,,,,,,,,,l,0.6978,Correct!,,,,,,t1.png,t5.png,4,9.55E-11,19,Female,2020-09-16_16h54.56.747,torte-2b,2020.1.3,MacIntel,60,13312,,,,,0,97,97,12,1,,,,,,,,,,,,,,,,,,,,,,,,,,,,,,,,,,,,,,,,,,,,,,,,,,,,,,,,
,,,,,,,,,,,,a,0.985785,Correct!,,,,,,t4.png,t5.png,1,0.90025,19,Female,2020-09-16_16h54.56.747,torte-2b,2020.1.3,MacIntel,60,13312,,,,,0,98,98,47,1,,,,,,,,,,,,,,,,,,,,,,,,,,,,,,,,,,,,,,,,,,,,,,,,,,,,,,,,
,,,,,,,,,,,,l,0.682625,Incorrect,,,,,,t3.png,t4.png,1,0.909,19,Female,2020-09-16_16h54.56.747,torte-2b,2020.1.3,MacIntel,60,13312,,,,,0,99,99,106,1,,,,,,,,,,,,,,,,,,,,,,,,,,,,,,,,,,,,,,,,,,,,,,,,,,,,,,,,
,,,,,,,,,,,,a,1.735865,Incorrect,,,,,,t1.png,t4.png,3,0.0000131,19,Female,2020-09-16_16h54.56.747,torte-2b,2020.1.3,MacIntel,60,13312,,,,,0,100,100,50,1,,,,,,,,,,,,,,,,,,,,,,,,,,,,,,,,,,,,,,,,,,,,,,,,,,,,,,,,
,,,,,,,,,,,,a,1.75676,Correct!,,,,,,t4.png,t4.png,0,0.98115,19,Female,2020-09-16_16h54.56.747,torte-2b,2020.1.3,MacIntel,60,13312,,,,,0,101,101,52,1,,,,,,,,,,,,,,,,,,,,,,,,,,,,,,,,,,,,,,,,,,,,,,,,,,,,,,,,
,,,,,,,,,,,,l,1.183835,Correct!,,,,,,t4.png,t1.png,3,0.0000131,19,Female,2020-09-16_16h54.56.747,torte-2b,2020.1.3,MacIntel,60,13312,,,,,0,102,102,93,1,,,,,,,,,,,,,,,,,,,,,,,,,,,,,,,,,,,,,,,,,,,,,,,,,,,,,,,,
,,,,,,,,,,,,a,1.170675,Correct!,,,,,,t5.png,t4.png,1,0.9,19,Female,2020-09-16_16h54.56.747,torte-2b,2020.1.3,MacIntel,60,13312,,,,,0,103,103,76,1,,,,,,,,,,,,,,,,,,,,,,,,,,,,,,,,,,,,,,,,,,,,,,,,,,,,,,,,
,,,,,,,,,,,,a,0.982625,Correct!,,,,,,t5.png,t5.png,0,0.97829,19,Female,2020-09-16_16h54.56.747,torte-2b,2020.1.3,MacIntel,60,13312,,,,,0,104,104,70,1,,,,,,,,,,,,,,,,,,,,,,,,,,,,,,,,,,,,,,,,,,,,,,,,,,,,,,,,
,,,,,,,,,,,,a,1.57275,Correct!,,,,,,t5.png,t4.png,1,0.9,19,Female,2020-09-16_16h54.56.747,torte-2b,2020.1.3,MacIntel,60,13312,,,,,0,105,105,49,1,,,,,,,,,,,,,,,,,,,,,,,,,,,,,,,,,,,,,,,,,,,,,,,,,,,,,,,,
,,,,,,,,,,,,l,0.904225,Correct!,,,,,,t1.png,t5.png,4,9.55E-11,19,Female,2020-09-16_16h54.56.747,torte-2b,2020.1.3,MacIntel,60,13312,,,,,0,106,106,41,1,,,,,,,,,,,,,,,,,,,,,,,,,,,,,,,,,,,,,,,,,,,,,,,,,,,,,,,,
,,,,,,,,,,,,l,0.682045,Correct!,,,,,,t2.png,t4.png,2,0.059078,19,Female,2020-09-16_16h54.56.747,torte-2b,2020.1.3,MacIntel,60,13312,,,,,0,107,107,77,1,,,,,,,,,,,,,,,,,,,,,,,,,,,,,,,,,,,,,,,,,,,,,,,,,,,,,,,,
,,,,,,,,,,,,l,0.883285,Incorrect,,,,,,t4.png,t4.png,0,0.98115,19,Female,2020-09-16_16h54.56.747,torte-2b,2020.1.3,MacIntel,60,13312,,,,,0,108,108,80,1,,,,,,,,,,,,,,,,,,,,,,,,,,,,,,,,,,,,,,,,,,,,,,,,,,,,,,,,
,,,,,,,,,,,,l,0.902115,Incorrect,,,,,,t4.png,t4.png,0,0.98115,19,Female,2020-09-16_16h54.56.747,torte-2b,2020.1.3,MacIntel,60,13312,,,,,0,109,109,90,1,,,,,,,,,,,,,,,,,,,,,,,,,,,,,,,,,,,,,,,,,,,,,,,,,,,,,,,,
,,,,,,,,,,,,l,2.23711,Incorrect,,,,,,t3.png,t2.png,1,0.909,19,Female,2020-09-16_16h54.56.747,torte-2b,2020.1.3,MacIntel,60,13312,,,,,0,110,110,3,1,,,,,,,,,,,,,,,,,,,,,,,,,,,,,,,,,,,,,,,,,,,,,,,,,,,,,,,,
,,,,,,,,,,,,l,1.283845,Correct!,,,,,,t4.png,t2.png,2,0.059078,19,Female,2020-09-16_16h54.56.747,torte-2b,2020.1.3,MacIntel,60,13312,,,,,0,111,111,86,1,,,,,,,,,,,,,,,,,,,,,,,,,,,,,,,,,,,,,,,,,,,,,,,,,,,,,,,,
,,,,,,,,,,,,a,0.923765,Correct!,,,,,,t2.png,t3.png,1,0.90855,19,Female,2020-09-16_16h54.56.747,torte-2b,2020.1.3,MacIntel,60,13312,,,,,0,112,112,10,1,,,,,,,,,,,,,,,,,,,,,,,,,,,,,,,,,,,,,,,,,,,,,,,,,,,,,,,,
,,,,,,,,,,,,a,1.11723,Correct!,,,,,,t3.png,t2.png,1,0.90855,19,Female,2020-09-16_16h54.56.747,torte-2b,2020.1.3,MacIntel,60,13312,,,,,0,113,113,53,1,,,,,,,,,,,,,,,,,,,,,,,,,,,,,,,,,,,,,,,,,,,,,,,,,,,,,,,,
,,,,,,,,,,,,l,0.61719,Incorrect,,,,,,t3.png,t4.png,1,0.90855,19,Female,2020-09-16_16h54.56.747,torte-2b,2020.1.3,MacIntel,60,13312,,,,,0,114,114,84,1,,,,,,,,,,,,,,,,,,,,,,,,,,,,,,,,,,,,,,,,,,,,,,,,,,,,,,,,
,,,,,,,,,,,,l,2.03418,Incorrect,,,,,,t2.png,t2.png,0,0.98115,19,Female,2020-09-16_16h54.56.747,torte-2b,2020.1.3,MacIntel,60,13312,,,,,0,115,115,7,1,,,,,,,,,,,,,,,,,,,,,,,,,,,,,,,,,,,,,,,,,,,,,,,,,,,,,,,,
,,,,,,,,,,,,a,1.237455,Incorrect,,,,,,t3.png,t1.png,2,0.056466,19,Female,2020-09-16_16h54.56.747,torte-2b,2020.1.3,MacIntel,60,13312,,,,,0,116,116,64,1,,,,,,,,,,,,,,,,,,,,,,,,,,,,,,,,,,,,,,,,,,,,,,,,,,,,,,,,
,,,,,,,,,,,,a,0.984125,Correct!,,,,,,t4.png,t5.png,1,0.90025,19,Female,2020-09-16_16h54.56.747,torte-2b,2020.1.3,MacIntel,60,13312,,,,,0,117,117,113,1,,,,,,,,,,,,,,,,,,,,,,,,,,,,,,,,,,,,,,,,,,,,,,,,,,,,,,,,
,,,,,,,,,,,,l,0.66795,Incorrect,,,,,,t2.png,t2.png,0,0.98115,19,Female,2020-09-16_16h54.56.747,torte-2b,2020.1.3,MacIntel,60,13312,,,,,0,118,118,57,1,,,,,,,,,,,,,,,,,,,,,,,,,,,,,,,,,,,,,,,,,,,,,,,,,,,,,,,,
,,,,,,,,,,,,l,1.286835,Incorrect,,,,,,t2.png,t3.png,1,0.90855,19,Female,2020-09-16_16h54.56.747,torte-2b,2020.1.3,MacIntel,60,13312,,,,,0,119,119,68,1,,,,,,,,,,,,,,,,,,,,,,,,,,,,,,,,,,,,,,,,,,,,,,,,,,,,,,,,
,,,,,,,,,,,,,,,,,,,,,,,,19,Female,2020-09-16_16h54.56.747,torte-2b,2020.1.3,MacIntel,60,13312,space,57.12838,,,,,,,,space,26.898515,,0,0,0,0,1,6,,,,,,,,,,,,,,,,,,,,,,,,,,,,,,,,,,,,,,,,,,,,,,,
,,,,,,,,,,,,,,,,,,,,,,,,19,Female,2020-09-16_16h54.56.747,torte-2b,2020.1.3,MacIntel,60,13312,,,,,,,,,,,,,0,1,1,1,1,7,,,,,,,,,,,,,,,,,,,,,,,,,,,,,,,,,,,,,,,,,,,,,,,
,,,,,,,,,,,,,,,,,,,,,,,,19,Female,2020-09-16_16h54.56.747,torte-2b,2020.1.3,MacIntel,60,13312,,,,,,,,,,,,space,0,2,2,2,1,6,0.633095,,,,,,,,,,,,,,,,,,,,,,,,,,,,,,,,,,,,,,,,,,,,,,
,,,,,,,,,,,,,,,,,,,,,,,,19,Female,2020-09-16_16h54.56.747,torte-2b,2020.1.3,MacIntel,60,13312,,,,,,,,,,,,,0,3,3,3,1,7,,,,,,,,,,,,,,,,,,,,,,,,,,,,,,,,,,,,,,,,,,,,,,,
,,,,,,,,,,,,,,,,,,,,,,,,19,Female,2020-09-16_16h54.56.747,torte-2b,2020.1.3,MacIntel,60,13312,,,,,,,,,,,,,0,4,4,4,1,5,,,,,,,,,,,,,,,,,,,,,,,,,,,,,,,,,,,,,,,,,,,,,,,
,,,,,,,,,,,,,,,,,,,,,,,,19,Female,2020-09-16_16h54.56.747,torte-2b,2020.1.3,MacIntel,60,13312,,,,,,,,,,,,,0,5,5,5,1,7,,,,,,,,,,,,,,,,,,,,,,,,,,,,,,,,,,,,,,,,,,,,,,,
,,,,,,,,,,,,,,,,,,,,,,,,19,Female,2020-09-16_16h54.56.747,torte-2b,2020.1.3,MacIntel,60,13312,,,,,,,,,,,,,0,6,6,6,1,2,,,,,,,,,,,,,,,,,,,,,,,,,,,,,,,,,,,,,,,,,,,,,,,
,,,,,,,,,,,,,,,,,,,,,,,,19,Female,2020-09-16_16h54.56.747,torte-2b,2020.1.3,MacIntel,60,13312,,,,,,,,,,,,,0,7,7,7,1,4,,,,,,,,,,,,,,,,,,,,,,,,,,,,,,,,,,,,,,,,,,,,,,,
,,,,,,,,,,,,,,,,,,,,,,,,19,Female,2020-09-16_16h54.56.747,torte-2b,2020.1.3,MacIntel,60,13312,,,,,,,,,,,,,0,8,8,8,1,7,,,,,,,,,,,,,,,,,,,,,,,,,,,,,,,,,,,,,,,,,,,,,,,
,,,,,,,,,,,,,,,,,,,,,,,,19,Female,2020-09-16_16h54.56.747,torte-2b,2020.1.3,MacIntel,60,13312,,,,,,,,,,,,,0,9,9,9,1,4,,,,,,,,,,,,,,,,,,,,,,,,,,,,,,,,,,,,,,,,,,,,,,,
,,,,,,,,,,,,,,,,,,,,,,,,19,Female,2020-09-16_16h54.56.747,torte-2b,2020.1.3,MacIntel,60,13312,,,,,,,,,,,,,0,10,10,10,1,7,,,,,,,,,,,,,,,,,,,,,,,,,,,,,,,,,,,,,,,,,,,,,,,
,,,,,,,,,,,,,,,,,,,,,,,,19,Female,2020-09-16_16h54.56.747,torte-2b,2020.1.3,MacIntel,60,13312,,,,,,,,,,,,space,0,11,11,11,1,7,0.266095,,,,,,,,,,,,,,,,,,,,,,,,,,,,,,,,,,,,,,,,,,,,,,
,,,,,,,,,,,,,,,,,,,,,,,,19,Female,2020-09-16_16h54.56.747,torte-2b,2020.1.3,MacIntel,60,13312,,,,,,,,,,,,,0,12,12,12,1,7,,,,,,,,,,,,,,,,,,,,,,,,,,,,,,,,,,,,,,,,,,,,,,,
,,,,,,,,,,,,,,,,,,,,,,,,19,Female,2020-09-16_16h54.56.747,torte-2b,2020.1.3,MacIntel,60,13312,,,,,,,,,,,,,0,13,13,13,1,4,,,,,,,,,,,,,,,,,,,,,,,,,,,,,,,,,,,,,,,,,,,,,,,
,,,,,,,,,,,,,,,,,,,,,,,,19,Female,2020-09-16_16h54.56.747,torte-2b,2020.1.3,MacIntel,60,13312,,,,,,,,,,,,,0,14,14,14,1,6,,,,,,,,,,,,,,,,,,,,,,,,,,,,,,,,,,,,,,,,,,,,,,,
,,,,,,,,,,,,,,,,,,,,,,,,19,Female,2020-09-16_16h54.56.747,torte-2b,2020.1.3,MacIntel,60,13312,,,,,,,,,,,,,0,15,15,15,1,4,,,,,,,,,,,,,,,,,,,,,,,,,,,,,,,,,,,,,,,,,,,,,,,
,,,,,,,,,,,,,,,,,,,,,,,,19,Female,2020-09-16_16h54.56.747,torte-2b,2020.1.3,MacIntel,60,13312,,,,,,,,,,,,,0,16,16,16,1,6,,,,,,,,,,,,,,,,,,,,,,,,,,,,,,,,,,,,,,,,,,,,,,,
,,,,,,,,,,,,,,,,,,,,,,,,19,Female,2020-09-16_16h54.56.747,torte-2b,2020.1.3,MacIntel,60,13312,,,,,,,,,,,,,0,17,17,17,1,7,,,,,,,,,,,,,,,,,,,,,,,,,,,,,,,,,,,,,,,,,,,,,,,
,,,,,,,,,,,,,,,,,,,,,,,,19,Female,2020-09-16_16h54.56.747,torte-2b,2020.1.3,MacIntel,60,13312,,,,,,,,,,,,,0,18,18,18,1,6,,,,,,,,,,,,,,,,,,,,,,,,,,,,,,,,,,,,,,,,,,,,,,,
,,,,,,,,,,,,,,,,,,,,,,,,19,Female,2020-09-16_16h54.56.747,torte-2b,2020.1.3,MacIntel,60,13312,,,,,,,,,,,,,0,19,19,19,1,7,,,,,,,,,,,,,,,,,,,,,,,,,,,,,,,,,,,,,,,,,,,,,,,
,,,,,,,,,,,,,,,,,,,,,,,,19,Female,2020-09-16_16h54.56.747,torte-2b,2020.1.3,MacIntel,60,13312,,,,,,,,,,,,,0,20,20,20,1,5,,,,,,,,,,,,,,,,,,,,,,,,,,,,,,,,,,,,,,,,,,,,,,,
,,,,,,,,,,,,,,,,,,,,,,,,19,Female,2020-09-16_16h54.56.747,torte-2b,2020.1.3,MacIntel,60,13312,,,,,,,,,,,,,0,21,21,21,1,1,,,,,,,,,,,,,,,,,,,,,,,,,,,,,,,,,,,,,,,,,,,,,,,
,,,,,,,,,,,,,,,,,,,,,,,,19,Female,2020-09-16_16h54.56.747,torte-2b,2020.1.3,MacIntel,60,13312,,,,,,,,,,,,,0,22,22,22,1,6,,,,,,,,,,,,,,,,,,,,,,,,,,,,,,,,,,,,,,,,,,,,,,,
,,,,,,,,,,,,,,,,,,,,,,,,19,Female,2020-09-16_16h54.56.747,torte-2b,2020.1.3,MacIntel,60,13312,,,,,,,,,,,,,0,23,23,23,1,1,,,,,,,,,,,,,,,,,,,,,,,,,,,,,,,,,,,,,,,,,,,,,,,
,,,,,,,,,,,,,,,,,,,,,,,,19,Female,2020-09-16_16h54.56.747,torte-2b,2020.1.3,MacIntel,60,13312,,,,,,,,,,,,,0,24,24,24,1,5,,,,,,,,,,,,,,,,,,,,,,,,,,,,,,,,,,,,,,,,,,,,,,,
,,,,,,,,,,,,,,,,,,,,,,,,19,Female,2020-09-16_16h54.56.747,torte-2b,2020.1.3,MacIntel,60,13312,,,,,,,,,,,,,0,25,25,25,1,6,,,,,,,,,,,,,,,,,,,,,,,,,,,,,,,,,,,,,,,,,,,,,,,
,,,,,,,,,,,,,,,,,,,,,,,,19,Female,2020-09-16_16h54.56.747,torte-2b,2020.1.3,MacIntel,60,13312,,,,,,,,,,,,,0,26,26,26,1,6,,,,,,,,,,,,,,,,,,,,,,,,,,,,,,,,,,,,,,,,,,,,,,,
,,,,,,,,,,,,,,,,,,,,,,,,19,Female,2020-09-16_16h54.56.747,torte-2b,2020.1.3,MacIntel,60,13312,,,,,,,,,,,,space,0,27,27,27,1,6,0.502355,,,,,,,,,,,,,,,,,,,,,,,,,,,,,,,,,,,,,,,,,,,,,,
,,,,,,,,,,,,,,,,,,,,,,,,19,Female,2020-09-16_16h54.56.747,torte-2b,2020.1.3,MacIntel,60,13312,,,,,,,,,,,,,0,28,28,28,1,5,,,,,,,,,,,,,,,,,,,,,,,,,,,,,,,,,,,,,,,,,,,,,,,
,,,,,,,,,,,,,,,,,,,,,,,,19,Female,2020-09-16_16h54.56.747,torte-2b,2020.1.3,MacIntel,60,13312,,,,,,,,,,,,,0,29,29,29,1,2,,,,,,,,,,,,,,,,,,,,,,,,,,,,,,,,,,,,,,,,,,,,,,,
,,,,,,,,,,,,,,,,,,,,,,,,19,Female,2020-09-16_16h54.56.747,torte-2b,2020.1.3,MacIntel,60,13312,,,,,,,,,,,,space,0,30,30,30,1,5,0.88382,,,,,,,,,,,,,,,,,,,,,,,,,,,,,,,,,,,,,,,,,,,,,,
,,,,,,,,,,,,,,,,,,,,,,,,19,Female,2020-09-16_16h54.56.747,torte-2b,2020.1.3,MacIntel,60,13312,,,,,,,,,,,,,0,31,31,31,1,2,,,,,,,,,,,,,,,,,,,,,,,,,,,,,,,,,,,,,,,,,,,,,,,
,,,,,,,,,,,,,,,,,,,,,,,,19,Female,2020-09-16_16h54.56.747,torte-2b,2020.1.3,MacIntel,60,13312,,,,,,,,,,,,,0,32,32,32,1,5,,,,,,,,,,,,,,,,,,,,,,,,,,,,,,,,,,,,,,,,,,,,,,,
,,,,,,,,,,,,,,,,,,,,,,,,19,Female,2020-09-16_16h54.56.747,torte-2b,2020.1.3,MacIntel,60,13312,,,,,,,,,,,,space,0,33,33,33,1,1,0.78535,,,,,,,,,,,,,,,,,,,,,,,,,,,,,,,,,,,,,,,,,,,,,,
,,,,,,,,,,,,,,,,,,,,,,,,19,Female,2020-09-16_16h54.56.747,torte-2b,2020.1.3,MacIntel,60,13312,,,,,,,,,,,,,0,34,34,34,1,1,,,,,,,,,,,,,,,,,,,,,,,,,,,,,,,,,,,,,,,,,,,,,,,
,,,,,,,,,,,,,,,,,,,,,,,,19,Female,2020-09-16_16h54.56.747,torte-2b,2020.1.3,MacIntel,60,13312,,,,,,,,,,,,,,,,,,2,,0,0,0,0,1,,,,,,,,,,,,,,,,,,,,,,,,,,,,,,,,,,,,,,,,,
,,,,,,,,,,,,,,,,,,,,,,,,19,Female,2020-09-16_16h54.56.747,torte-2b,2020.1.3,MacIntel,60,13312,,,,,,,,,,,,,,,,,,2,,0,1,1,1,1,,,,,,,,,,,,,,,,,,,,,,,,,,,,,,,,,,,,,,,,,
,,,,,,,,,,,,,,,,,,,,,,,,19,Female,2020-09-16_16h54.56.747,torte-2b,2020.1.3,MacIntel,60,13312,,,,,,,,,,,,,,,,,,6,,0,2,2,2,1,,,,,,,,,,,,,,,,,,,,,,,,,,,,,,,,,,,,,,,,,
,,,,,,,,,,,,,,,,,,,,,,,,19,Female,2020-09-16_16h54.56.747,torte-2b,2020.1.3,MacIntel,60,13312,,,,,,,,,,,,,,,,,,2,,0,3,3,3,1,,,,,,,,,,,,,,,,,,,,,,,,,,,,,,,,,,,,,,,,,
,,,,,,,,,,,,,,,,,,,,,,,,19,Female,2020-09-16_16h54.56.747,torte-2b,2020.1.3,MacIntel,60,13312,,,,,,,,,,,,,,,,,,6,,0,4,4,4,1,,,,,,,,,,,,,,,,,,,,,,,,,,,,,,,,,,,,,,,,,
,,,,,,,,,,,,,,,,,,,,,,,,19,Female,2020-09-16_16h54.56.747,torte-2b,2020.1.3,MacIntel,60,13312,,,,,,,,,,,,,,,,,,2,,0,5,5,5,1,,,,,,,,,,,,,,,,,,,,,,,,,,,,,,,,,,,,,,,,,
,,,,,,,,,,,,,,,,,,,,,,,,19,Female,2020-09-16_16h54.56.747,torte-2b,2020.1.3,MacIntel,60,13312,,,,,,,,,,,,,,,,,,7,,0,6,6,6,1,,,,,,,,,,,,,,,,,,,,,,,,,,,,,,,,,,,,,,,,,
,,,,,,,,,,,,,,,,,,,,,,,,19,Female,2020-09-16_16h54.56.747,torte-2b,2020.1.3,MacIntel,60,13312,,,,,,,,,,,,,,,,,,2,,0,7,7,7,1,,,,,,,,,,,,,,,,,,,,,,,,,,,,,,,,,,,,,,,,,
,,,,,,,,,,,,,,,,,,,,,,,,19,Female,2020-09-16_16h54.56.747,torte-2b,2020.1.3,MacIntel,60,13312,,,,,,,,,,,,space,,,,,,7,0.398325,0,8,8,8,1,,,,,,,,,,,,,,,,,,,,,,,,,,,,,,,,,,,,,,,,,
,,,,,,,,,,,,,,,,,,,,,,,,19,Female,2020-09-16_16h54.56.747,torte-2b,2020.1.3,MacIntel,60,13312,,,,,,,,,,,,,,,,,,2,,0,9,9,9,1,,,,,,,,,,,,,,,,,,,,,,,,,,,,,,,,,,,,,,,,,
,,,,,,,,,,,,,,,,,,,,,,,,19,Female,2020-09-16_16h54.56.747,torte-2b,2020.1.3,MacIntel,60,13312,,,,,,,,,,,,,,,,,,5,,0,10,10,10,1,,,,,,,,,,,,,,,,,,,,,,,,,,,,,,,,,,,,,,,,,
,,,,,,,,,,,,,,,,,,,,,,,,19,Female,2020-09-16_16h54.56.747,torte-2b,2020.1.3,MacIntel,60,13312,,,,,,,,,,,,,,,,,,4,,0,11,11,11,1,,,,,,,,,,,,,,,,,,,,,,,,,,,,,,,,,,,,,,,,,
,,,,,,,,,,,,,,,,,,,,,,,,19,Female,2020-09-16_16h54.56.747,torte-2b,2020.1.3,MacIntel,60,13312,,,,,,,,,,,,,,,,,,5,,0,12,12,12,1,,,,,,,,,,,,,,,,,,,,,,,,,,,,,,,,,,,,,,,,,
,,,,,,,,,,,,,,,,,,,,,,,,19,Female,2020-09-16_16h54.56.747,torte-2b,2020.1.3,MacIntel,60,13312,,,,,,,,,,,,,,,,,,6,,0,13,13,13,1,,,,,,,,,,,,,,,,,,,,,,,,,,,,,,,,,,,,,,,,,
,,,,,,,,,,,,,,,,,,,,,,,,19,Female,2020-09-16_16h54.56.747,torte-2b,2020.1.3,MacIntel,60,13312,,,,,,,,,,,,space,,,,,,5,0.637095,0,14,14,14,1,,,,,,,,,,,,,,,,,,,,,,,,,,,,,,,,,,,,,,,,,
,,,,,,,,,,,,,,,,,,,,,,,,19,Female,2020-09-16_16h54.56.747,torte-2b,2020.1.3,MacIntel,60,13312,,,,,,,,,,,,,,,,,,4,,0,15,15,15,1,,,,,,,,,,,,,,,,,,,,,,,,,,,,,,,,,,,,,,,,,
,,,,,,,,,,,,,,,,,,,,,,,,19,Female,2020-09-16_16h54.56.747,torte-2b,2020.1.3,MacIntel,60,13312,,,,,,,,,,,,space,,,,,,5,0.421805,0,16,16,16,1,,,,,,,,,,,,,,,,,,,,,,,,,,,,,,,,,,,,,,,,,
,,,,,,,,,,,,,,,,,,,,,,,,19,Female,2020-09-16_16h54.56.747,torte-2b,2020.1.3,MacIntel,60,13312,,,,,,,,,,,,,,,,,,3,,0,17,17,17,1,,,,,,,,,,,,,,,,,,,,,,,,,,,,,,,,,,,,,,,,,
,,,,,,,,,,,,,,,,,,,,,,,,19,Female,2020-09-16_16h54.56.747,torte-2b,2020.1.3,MacIntel,60,13312,,,,,,,,,,,,,,,,,,6,,0,18,18,18,1,,,,,,,,,,,,,,,,,,,,,,,,,,,,,,,,,,,,,,,,,
,,,,,,,,,,,,,,,,,,,,,,,,19,Female,2020-09-16_16h54.56.747,torte-2b,2020.1.3,MacIntel,60,13312,,,,,,,,,,,,,,,,,,6,,0,19,19,19,1,,,,,,,,,,,,,,,,,,,,,,,,,,,,,,,,,,,,,,,,,
,,,,,,,,,,,,,,,,,,,,,,,,19,Female,2020-09-16_16h54.56.747,torte-2b,2020.1.3,MacIntel,60,13312,,,,,,,,,,,,space,,,,,,6,1.003375,0,20,20,20,1,,,,,,,,,,,,,,,,,,,,,,,,,,,,,,,,,,,,,,,,,
,,,,,,,,,,,,,,,,,,,,,,,,19,Female,2020-09-16_16h54.56.747,torte-2b,2020.1.3,MacIntel,60,13312,,,,,,,,,,,,,,,,,,4,,0,21,21,21,1,,,,,,,,,,,,,,,,,,,,,,,,,,,,,,,,,,,,,,,,,
,,,,,,,,,,,,,,,,,,,,,,,,19,Female,2020-09-16_16h54.56.747,torte-2b,2020.1.3,MacIntel,60,13312,,,,,,,,,,,,space,,,,,,6,0.46846,0,22,22,22,1,,,,,,,,,,,,,,,,,,,,,,,,,,,,,,,,,,,,,,,,,
,,,,,,,,,,,,,,,,,,,,,,,,19,Female,2020-09-16_16h54.56.747,torte-2b,2020.1.3,MacIntel,60,13312,,,,,,,,,,,,space,,,,,,4,0.75121,0,23,23,23,1,,,,,,,,,,,,,,,,,,,,,,,,,,,,,,,,,,,,,,,,,
,,,,,,,,,,,,,,,,,,,,,,,,19,Female,2020-09-16_16h54.56.747,torte-2b,2020.1.3,MacIntel,60,13312,,,,,,,,,,,,,,,,,,6,,0,24,24,24,1,,,,,,,,,,,,,,,,,,,,,,,,,,,,,,,,,,,,,,,,,
,,,,,,,,,,,,,,,,,,,,,,,,19,Female,2020-09-16_16h54.56.747,torte-2b,2020.1.3,MacIntel,60,13312,,,,,,,,,,,,space,,,,,,6,0.58022,0,25,25,25,1,,,,,,,,,,,,,,,,,,,,,,,,,,,,,,,,,,,,,,,,,
,,,,,,,,,,,,,,,,,,,,,,,,19,Female,2020-09-16_16h54.56.747,torte-2b,2020.1.3,MacIntel,60,13312,,,,,,,,,,,,,,,,,,7,,0,26,26,26,1,,,,,,,,,,,,,,,,,,,,,,,,,,,,,,,,,,,,,,,,,
,,,,,,,,,,,,,,,,,,,,,,,,19,Female,2020-09-16_16h54.56.747,torte-2b,2020.1.3,MacIntel,60,13312,,,,,,,,,,,,,,,,,,1,,0,27,27,27,1,,,,,,,,,,,,,,,,,,,,,,,,,,,,,,,,,,,,,,,,,
,,,,,,,,,,,,,,,,,,,,,,,,19,Female,2020-09-16_16h54.56.747,torte-2b,2020.1.3,MacIntel,60,13312,,,,,,,,,,,,space,,,,,,7,0.36557,0,28,28,28,1,,,,,,,,,,,,,,,,,,,,,,,,,,,,,,,,,,,,,,,,,
,,,,,,,,,,,,,,,,,,,,,,,,19,Female,2020-09-16_16h54.56.747,torte-2b,2020.1.3,MacIntel,60,13312,,,,,,,,,,,,,,,,,,4,,0,29,29,29,1,,,,,,,,,,,,,,,,,,,,,,,,,,,,,,,,,,,,,,,,,
,,,,,,,,,,,,,,,,,,,,,,,,19,Female,2020-09-16_16h54.56.747,torte-2b,2020.1.3,MacIntel,60,13312,,,,,,,,,,,,space,,,,,,7,0.966015,0,30,30,30,1,,,,,,,,,,,,,,,,,,,,,,,,,,,,,,,,,,,,,,,,,
,,,,,,,,,,,,,,,,,,,,,,,,19,Female,2020-09-16_16h54.56.747,torte-2b,2020.1.3,MacIntel,60,13312,,,,,,,,,,,,,,,,,,3,,0,31,31,31,1,,,,,,,,,,,,,,,,,,,,,,,,,,,,,,,,,,,,,,,,,
,,,,,,,,,,,,,,,,,,,,,,,,19,Female,2020-09-16_16h54.56.747,torte-2b,2020.1.3,MacIntel,60,13312,,,,,,,,,,,,,,,,,,2,,0,32,32,32,1,,,,,,,,,,,,,,,,,,,,,,,,,,,,,,,,,,,,,,,,,
,,,,,,,,,,,,,,,,,,,,,,,,19,Female,2020-09-16_16h54.56.747,torte-2b,2020.1.3,MacIntel,60,13312,,,,,,,,,,,,,,,,,,6,,0,33,33,33,1,,,,,,,,,,,,,,,,,,,,,,,,,,,,,,,,,,,,,,,,,
,,,,,,,,,,,,,,,,,,,,,,,,19,Female,2020-09-16_16h54.56.747,torte-2b,2020.1.3,MacIntel,60,13312,,,,,,,,,,,,,,,,,,3,,0,34,34,34,1,,,,,,,,,,,,,,,,,,,,,,,,,,,,,,,,,,,,,,,,,
,,,,,,,,,,,,,,,,,,,,,,,,19,Female,2020-09-16_16h54.56.747,torte-2b,2020.1.3,MacIntel,60,13312,,,,,,,,,,,,,,,,,,7,,,,,,,0,0,0,0,1,,,,,,,,,,,,,,,,,,,,,,,,,,,,,,,,,,,,
,,,,,,,,,,,,,,,,,,,,,,,,19,Female,2020-09-16_16h54.56.747,torte-2b,2020.1.3,MacIntel,60,13312,,,,,,,,,,,,,,,,,,5,,,,,,,0,1,1,1,1,,,,,,,,,,,,,,,,,,,,,,,,,,,,,,,,,,,,
,,,,,,,,,,,,,,,,,,,,,,,,19,Female,2020-09-16_16h54.56.747,torte-2b,2020.1.3,MacIntel,60,13312,,,,,,,,,,,,,,,,,,4,,,,,,,0,2,2,2,1,,,,,,,,,,,,,,,,,,,,,,,,,,,,,,,,,,,,
,,,,,,,,,,,,,,,,,,,,,,,,19,Female,2020-09-16_16h54.56.747,torte-2b,2020.1.3,MacIntel,60,13312,,,,,,,,,,,,space,,,,,,5,0.600405,,,,,,0,3,3,3,1,,,,,,,,,,,,,,,,,,,,,,,,,,,,,,,,,,,,
,,,,,,,,,,,,,,,,,,,,,,,,19,Female,2020-09-16_16h54.56.747,torte-2b,2020.1.3,MacIntel,60,13312,,,,,,,,,,,,,,,,,,6,,,,,,,0,4,4,4,1,,,,,,,,,,,,,,,,,,,,,,,,,,,,,,,,,,,,
,,,,,,,,,,,,,,,,,,,,,,,,19,Female,2020-09-16_16h54.56.747,torte-2b,2020.1.3,MacIntel,60,13312,,,,,,,,,,,,space,,,,,,5,0.46662,,,,,,0,5,5,5,1,,,,,,,,,,,,,,,,,,,,,,,,,,,,,,,,,,,,
,,,,,,,,,,,,,,,,,,,,,,,,19,Female,2020-09-16_16h54.56.747,torte-2b,2020.1.3,MacIntel,60,13312,,,,,,,,,,,,,,,,,,3,,,,,,,0,6,6,6,1,,,,,,,,,,,,,,,,,,,,,,,,,,,,,,,,,,,,
,,,,,,,,,,,,,,,,,,,,,,,,19,Female,2020-09-16_16h54.56.747,torte-2b,2020.1.3,MacIntel,60,13312,,,,,,,,,,,,,,,,,,4,,,,,,,0,7,7,7,1,,,,,,,,,,,,,,,,,,,,,,,,,,,,,,,,,,,,
,,,,,,,,,,,,,,,,,,,,,,,,19,Female,2020-09-16_16h54.56.747,torte-2b,2020.1.3,MacIntel,60,13312,,,,,,,,,,,,space,,,,,,3,0.470165,,,,,,0,8,8,8,1,,,,,,,,,,,,,,,,,,,,,,,,,,,,,,,,,,,,
,,,,,,,,,,,,,,,,,,,,,,,,19,Female,2020-09-16_16h54.56.747,torte-2b,2020.1.3,MacIntel,60,13312,,,,,,,,,,,,,,,,,,1,,,,,,,0,9,9,9,1,,,,,,,,,,,,,,,,,,,,,,,,,,,,,,,,,,,,
,,,,,,,,,,,,,,,,,,,,,,,,19,Female,2020-09-16_16h54.56.747,torte-2b,2020.1.3,MacIntel,60,13312,,,,,,,,,,,,,,,,,,2,,,,,,,0,10,10,10,1,,,,,,,,,,,,,,,,,,,,,,,,,,,,,,,,,,,,
,,,,,,,,,,,,,,,,,,,,,,,,19,Female,2020-09-16_16h54.56.747,torte-2b,2020.1.3,MacIntel,60,13312,,,,,,,,,,,,space,,,,,,1,0.332905,,,,,,0,11,11,11,1,,,,,,,,,,,,,,,,,,,,,,,,,,,,,,,,,,,,
,,,,,,,,,,,,,,,,,,,,,,,,19,Female,2020-09-16_16h54.56.747,torte-2b,2020.1.3,MacIntel,60,13312,,,,,,,,,,,,space,,,,,,2,0.33499,,,,,,0,12,12,12,1,,,,,,,,,,,,,,,,,,,,,,,,,,,,,,,,,,,,
,,,,,,,,,,,,,,,,,,,,,,,,19,Female,2020-09-16_16h54.56.747,torte-2b,2020.1.3,MacIntel,60,13312,,,,,,,,,,,,space,,,,,,1,0.305525,,,,,,0,13,13,13,1,,,,,,,,,,,,,,,,,,,,,,,,,,,,,,,,,,,,
,,,,,,,,,,,,,,,,,,,,,,,,19,Female,2020-09-16_16h54.56.747,torte-2b,2020.1.3,MacIntel,60,13312,,,,,,,,,,,,,,,,,,3,,,,,,,0,14,14,14,1,,,,,,,,,,,,,,,,,,,,,,,,,,,,,,,,,,,,
,,,,,,,,,,,,,,,,,,,,,,,,19,Female,2020-09-16_16h54.56.747,torte-2b,2020.1.3,MacIntel,60,13312,,,,,,,,,,,,space,,,,,,1,0.316675,,,,,,0,15,15,15,1,,,,,,,,,,,,,,,,,,,,,,,,,,,,,,,,,,,,
,,,,,,,,,,,,,,,,,,,,,,,,19,Female,2020-09-16_16h54.56.747,torte-2b,2020.1.3,MacIntel,60,13312,,,,,,,,,,,,,,,,,,7,,,,,,,0,16,16,16,1,,,,,,,,,,,,,,,,,,,,,,,,,,,,,,,,,,,,
,,,,,,,,,,,,,,,,,,,,,,,,19,Female,2020-09-16_16h54.56.747,torte-2b,2020.1.3,MacIntel,60,13312,,,,,,,,,,,,,,,,,,7,,,,,,,0,17,17,17,1,,,,,,,,,,,,,,,,,,,,,,,,,,,,,,,,,,,,
,,,,,,,,,,,,,,,,,,,,,,,,19,Female,2020-09-16_16h54.56.747,torte-2b,2020.1.3,MacIntel,60,13312,,,,,,,,,,,,,,,,,,4,,,,,,,0,18,18,18,1,,,,,,,,,,,,,,,,,,,,,,,,,,,,,,,,,,,,
,,,,,,,,,,,,,,,,,,,,,,,,19,Female,2020-09-16_16h54.56.747,torte-2b,2020.1.3,MacIntel,60,13312,,,,,,,,,,,,space,,,,,,7,1.287145,,,,,,0,19,19,19,1,,,,,,,,,,,,,,,,,,,,,,,,,,,,,,,,,,,,
,,,,,,,,,,,,,,,,,,,,,,,,19,Female,2020-09-16_16h54.56.747,torte-2b,2020.1.3,MacIntel,60,13312,,,,,,,,,,,,,,,,,,3,,,,,,,0,20,20,20,1,,,,,,,,,,,,,,,,,,,,,,,,,,,,,,,,,,,,
,,,,,,,,,,,,,,,,,,,,,,,,19,Female,2020-09-16_16h54.56.747,torte-2b,2020.1.3,MacIntel,60,13312,,,,,,,,,,,,space,,,,,,7,0.43924,,,,,,0,21,21,21,1,,,,,,,,,,,,,,,,,,,,,,,,,,,,,,,,,,,,
,,,,,,,,,,,,,,,,,,,,,,,,19,Female,2020-09-16_16h54.56.747,torte-2b,2020.1.3,MacIntel,60,13312,,,,,,,,,,,,space,,,,,,3,0.431285,,,,,,0,22,22,22,1,,,,,,,,,,,,,,,,,,,,,,,,,,,,,,,,,,,,
,,,,,,,,,,,,,,,,,,,,,,,,19,Female,2020-09-16_16h54.56.747,torte-2b,2020.1.3,MacIntel,60,13312,,,,,,,,,,,,,,,,,,1,,,,,,,0,23,23,23,1,,,,,,,,,,,,,,,,,,,,,,,,,,,,,,,,,,,,
,,,,,,,,,,,,,,,,,,,,,,,,19,Female,2020-09-16_16h54.56.747,torte-2b,2020.1.3,MacIntel,60,13312,,,,,,,,,,,,,,,,,,6,,,,,,,0,24,24,24,1,,,,,,,,,,,,,,,,,,,,,,,,,,,,,,,,,,,,
,,,,,,,,,,,,,,,,,,,,,,,,19,Female,2020-09-16_16h54.56.747,torte-2b,2020.1.3,MacIntel,60,13312,,,,,,,,,,,,,,,,,,3,,,,,,,0,25,25,25,1,,,,,,,,,,,,,,,,,,,,,,,,,,,,,,,,,,,,
,,,,,,,,,,,,,,,,,,,,,,,,19,Female,2020-09-16_16h54.56.747,torte-2b,2020.1.3,MacIntel,60,13312,,,,,,,,,,,,,,,,,,2,,,,,,,0,26,26,26,1,,,,,,,,,,,,,,,,,,,,,,,,,,,,,,,,,,,,
,,,,,,,,,,,,,,,,,,,,,,,,19,Female,2020-09-16_16h54.56.747,torte-2b,2020.1.3,MacIntel,60,13312,,,,,,,,,,,,space,,,,,,3,0.666025,,,,,,0,27,27,27,1,,,,,,,,,,,,,,,,,,,,,,,,,,,,,,,,,,,,
,,,,,,,,,,,,,,,,,,,,,,,,19,Female,2020-09-16_16h54.56.747,torte-2b,2020.1.3,MacIntel,60,13312,,,,,,,,,,,,space,,,,,,1,0.55128,,,,,,0,28,28,28,1,,,,,,,,,,,,,,,,,,,,,,,,,,,,,,,,,,,,
,,,,,,,,,,,,,,,,,,,,,,,,19,Female,2020-09-16_16h54.56.747,torte-2b,2020.1.3,MacIntel,60,13312,,,,,,,,,,,,,,,,,,3,,,,,,,0,29,29,29,1,,,,,,,,,,,,,,,,,,,,,,,,,,,,,,,,,,,,
,,,,,,,,,,,,,,,,,,,,,,,,19,Female,2020-09-16_16h54.56.747,torte-2b,2020.1.3,MacIntel,60,13312,,,,,,,,,,,,space,,,,,,1,0.320755,,,,,,0,30,30,30,1,,,,,,,,,,,,,,,,,,,,,,,,,,,,,,,,,,,,
,,,,,,,,,,,,,,,,,,,,,,,,19,Female,2020-09-16_16h54.56.747,torte-2b,2020.1.3,MacIntel,60,13312,,,,,,,,,,,,,,,,,,7,,,,,,,0,31,31,31,1,,,,,,,,,,,,,,,,,,,,,,,,,,,,,,,,,,,,
,,,,,,,,,,,,,,,,,,,,,,,,19,Female,2020-09-16_16h54.56.747,torte-2b,2020.1.3,MacIntel,60,13312,,,,,,,,,,,,,,,,,,5,,,,,,,0,32,32,32,1,,,,,,,,,,,,,,,,,,,,,,,,,,,,,,,,,,,,
,,,,,,,,,,,,,,,,,,,,,,,,19,Female,2020-09-16_16h54.56.747,torte-2b,2020.1.3,MacIntel,60,13312,,,,,,,,,,,,space,,,,,,7,0.419845,,,,,,0,33,33,33,1,,,,,,,,,,,,,,,,,,,,,,,,,,,,,,,,,,,,
,,,,,,,,,,,,,,,,,,,,,,,,19,Female,2020-09-16_16h54.56.747,torte-2b,2020.1.3,MacIntel,60,13312,,,,,,,,,,,,,,,,,,2,,,,,,,0,34,34,34,1,,,,,,,,,,,,,,,,,,,,,,,,,,,,,,,,,,,,
,,,,,,,,,,,,,,,,,,,,,,,,19,Female,2020-09-16_16h54.56.747,torte-2b,2020.1.3,MacIntel,60,13312,,,,,,,,,,,,,,,,,,3,,,,,,,,,,,,0,0,0,0,1,,,,,,,,,,,,,,,,,,,,,,,,,,,,,,,
,,,,,,,,,,,,,,,,,,,,,,,,19,Female,2020-09-16_16h54.56.747,torte-2b,2020.1.3,MacIntel,60,13312,,,,,,,,,,,,,,,,,,7,,,,,,,,,,,,0,1,1,1,1,,,,,,,,,,,,,,,,,,,,,,,,,,,,,,,
,,,,,,,,,,,,,,,,,,,,,,,,19,Female,2020-09-16_16h54.56.747,torte-2b,2020.1.3,MacIntel,60,13312,,,,,,,,,,,,,,,,,,7,,,,,,,,,,,,0,2,2,2,1,,,,,,,,,,,,,,,,,,,,,,,,,,,,,,,
,,,,,,,,,,,,,,,,,,,,,,,,19,Female,2020-09-16_16h54.56.747,torte-2b,2020.1.3,MacIntel,60,13312,,,,,,,,,,,,,,,,,,4,,,,,,,,,,,,0,3,3,3,1,,,,,,,,,,,,,,,,,,,,,,,,,,,,,,,
,,,,,,,,,,,,,,,,,,,,,,,,19,Female,2020-09-16_16h54.56.747,torte-2b,2020.1.3,MacIntel,60,13312,,,,,,,,,,,,,,,,,,5,,,,,,,,,,,,0,4,4,4,1,,,,,,,,,,,,,,,,,,,,,,,,,,,,,,,
,,,,,,,,,,,,,,,,,,,,,,,,19,Female,2020-09-16_16h54.56.747,torte-2b,2020.1.3,MacIntel,60,13312,,,,,,,,,,,,space,,,,,,4,0.81678,,,,,,,,,,,0,5,5,5,1,,,,,,,,,,,,,,,,,,,,,,,,,,,,,,,
,,,,,,,,,,,,,,,,,,,,,,,,19,Female,2020-09-16_16h54.56.747,torte-2b,2020.1.3,MacIntel,60,13312,,,,,,,,,,,,,,,,,,2,,,,,,,,,,,,0,6,6,6,1,,,,,,,,,,,,,,,,,,,,,,,,,,,,,,,
,,,,,,,,,,,,,,,,,,,,,,,,19,Female,2020-09-16_16h54.56.747,torte-2b,2020.1.3,MacIntel,60,13312,,,,,,,,,,,,space,,,,,,4,0.467815,,,,,,,,,,,0,7,7,7,1,,,,,,,,,,,,,,,,,,,,,,,,,,,,,,,
,,,,,,,,,,,,,,,,,,,,,,,,19,Female,2020-09-16_16h54.56.747,torte-2b,2020.1.3,MacIntel,60,13312,,,,,,,,,,,,space,,,,,,2,0.38713,,,,,,,,,,,0,8,8,8,1,,,,,,,,,,,,,,,,,,,,,,,,,,,,,,,
,,,,,,,,,,,,,,,,,,,,,,,,19,Female,2020-09-16_16h54.56.747,torte-2b,2020.1.3,MacIntel,60,13312,,,,,,,,,,,,space,,,,,,2,0.466165,,,,,,,,,,,0,9,9,9,1,,,,,,,,,,,,,,,,,,,,,,,,,,,,,,,
,,,,,,,,,,,,,,,,,,,,,,,,19,Female,2020-09-16_16h54.56.747,torte-2b,2020.1.3,MacIntel,60,13312,,,,,,,,,,,,,,,,,,6,,,,,,,,,,,,0,10,10,10,1,,,,,,,,,,,,,,,,,,,,,,,,,,,,,,,
,,,,,,,,,,,,,,,,,,,,,,,,19,Female,2020-09-16_16h54.56.747,torte-2b,2020.1.3,MacIntel,60,13312,,,,,,,,,,,,space,,,,,,2,1.8168,,,,,,,,,,,0,11,11,11,1,,,,,,,,,,,,,,,,,,,,,,,,,,,,,,,
,,,,,,,,,,,,,,,,,,,,,,,,19,Female,2020-09-16_16h54.56.747,torte-2b,2020.1.3,MacIntel,60,13312,,,,,,,,,,,,,,,,,,2,,,,,,,,,,,,0,12,12,12,1,,,,,,,,,,,,,,,,,,,,,,,,,,,,,,,
,,,,,,,,,,,,,,,,,,,,,,,,19,Female,2020-09-16_16h54.56.747,torte-2b,2020.1.3,MacIntel,60,13312,,,,,,,,,,,,,,,,,,2,,,,,,,,,,,,0,13,13,13,1,,,,,,,,,,,,,,,,,,,,,,,,,,,,,,,
,,,,,,,,,,,,,,,,,,,,,,,,19,Female,2020-09-16_16h54.56.747,torte-2b,2020.1.3,MacIntel,60,13312,,,,,,,,,,,,space,,,,,,2,0.50065,,,,,,,,,,,0,14,14,14,1,,,,,,,,,,,,,,,,,,,,,,,,,,,,,,,
,,,,,,,,,,,,,,,,,,,,,,,,19,Female,2020-09-16_16h54.56.747,torte-2b,2020.1.3,MacIntel,60,13312,,,,,,,,,,,,,,,,,,4,,,,,,,,,,,,0,15,15,15,1,,,,,,,,,,,,,,,,,,,,,,,,,,,,,,,
,,,,,,,,,,,,,,,,,,,,,,,,19,Female,2020-09-16_16h54.56.747,torte-2b,2020.1.3,MacIntel,60,13312,,,,,,,,,,,,,,,,,,3,,,,,,,,,,,,0,16,16,16,1,,,,,,,,,,,,,,,,,,,,,,,,,,,,,,,
,,,,,,,,,,,,,,,,,,,,,,,,19,Female,2020-09-16_16h54.56.747,torte-2b,2020.1.3,MacIntel,60,13312,,,,,,,,,,,,,,,,,,7,,,,,,,,,,,,0,17,17,17,1,,,,,,,,,,,,,,,,,,,,,,,,,,,,,,,
,,,,,,,,,,,,,,,,,,,,,,,,19,Female,2020-09-16_16h54.56.747,torte-2b,2020.1.3,MacIntel,60,13312,,,,,,,,,,,,,,,,,,4,,,,,,,,,,,,0,18,18,18,1,,,,,,,,,,,,,,,,,,,,,,,,,,,,,,,
,,,,,,,,,,,,,,,,,,,,,,,,19,Female,2020-09-16_16h54.56.747,torte-2b,2020.1.3,MacIntel,60,13312,,,,,,,,,,,,space,,,,,,7,0.43501,,,,,,,,,,,0,19,19,19,1,,,,,,,,,,,,,,,,,,,,,,,,,,,,,,,
,,,,,,,,,,,,,,,,,,,,,,,,19,Female,2020-09-16_16h54.56.747,torte-2b,2020.1.3,MacIntel,60,13312,,,,,,,,,,,,,,,,,,7,,,,,,,,,,,,0,20,20,20,1,,,,,,,,,,,,,,,,,,,,,,,,,,,,,,,
,,,,,,,,,,,,,,,,,,,,,,,,19,Female,2020-09-16_16h54.56.747,torte-2b,2020.1.3,MacIntel,60,13312,,,,,,,,,,,,space,,,,,,7,0.41692,,,,,,,,,,,0,21,21,21,1,,,,,,,,,,,,,,,,,,,,,,,,,,,,,,,
,,,,,,,,,,,,,,,,,,,,,,,,19,Female,2020-09-16_16h54.56.747,torte-2b,2020.1.3,MacIntel,60,13312,,,,,,,,,,,,space,,,,,,7,0.57153,,,,,,,,,,,0,22,22,22,1,,,,,,,,,,,,,,,,,,,,,,,,,,,,,,,
,,,,,,,,,,,,,,,,,,,,,,,,19,Female,2020-09-16_16h54.56.747,torte-2b,2020.1.3,MacIntel,60,13312,,,,,,,,,,,,,,,,,,1,,,,,,,,,,,,0,23,23,23,1,,,,,,,,,,,,,,,,,,,,,,,,,,,,,,,
,,,,,,,,,,,,,,,,,,,,,,,,19,Female,2020-09-16_16h54.56.747,torte-2b,2020.1.3,MacIntel,60,13312,,,,,,,,,,,,space,,,,,,7,0.365455,,,,,,,,,,,0,24,24,24,1,,,,,,,,,,,,,,,,,,,,,,,,,,,,,,,
,,,,,,,,,,,,,,,,,,,,,,,,19,Female,2020-09-16_16h54.56.747,torte-2b,2020.1.3,MacIntel,60,13312,,,,,,,,,,,,space,,,,,,1,0.400835,,,,,,,,,,,0,25,25,25,1,,,,,,,,,,,,,,,,,,,,,,,,,,,,,,,
,,,,,,,,,,,,,,,,,,,,,,,,19,Female,2020-09-16_16h54.56.747,torte-2b,2020.1.3,MacIntel,60,13312,,,,,,,,,,,,space,,,,,,7,0.28375,,,,,,,,,,,0,26,26,26,1,,,,,,,,,,,,,,,,,,,,,,,,,,,,,,,
,,,,,,,,,,,,,,,,,,,,,,,,19,Female,2020-09-16_16h54.56.747,torte-2b,2020.1.3,MacIntel,60,13312,,,,,,,,,,,,,,,,,,2,,,,,,,,,,,,0,27,27,27,1,,,,,,,,,,,,,,,,,,,,,,,,,,,,,,,
,,,,,,,,,,,,,,,,,,,,,,,,19,Female,2020-09-16_16h54.56.747,torte-2b,2020.1.3,MacIntel,60,13312,,,,,,,,,,,,,,,,,,5,,,,,,,,,,,,0,28,28,28,1,,,,,,,,,,,,,,,,,,,,,,,,,,,,,,,
,,,,,,,,,,,,,,,,,,,,,,,,19,Female,2020-09-16_16h54.56.747,torte-2b,2020.1.3,MacIntel,60,13312,,,,,,,,,,,,,,,,,,5,,,,,,,,,,,,0,29,29,29,1,,,,,,,,,,,,,,,,,,,,,,,,,,,,,,,
,,,,,,,,,,,,,,,,,,,,,,,,19,Female,2020-09-16_16h54.56.747,torte-2b,2020.1.3,MacIntel,60,13312,,,,,,,,,,,,space,,,,,,5,0.336135,,,,,,,,,,,0,30,30,30,1,,,,,,,,,,,,,,,,,,,,,,,,,,,,,,,
,,,,,,,,,,,,,,,,,,,,,,,,19,Female,2020-09-16_16h54.56.747,torte-2b,2020.1.3,MacIntel,60,13312,,,,,,,,,,,,,,,,,,1,,,,,,,,,,,,0,31,31,31,1,,,,,,,,,,,,,,,,,,,,,,,,,,,,,,,
,,,,,,,,,,,,,,,,,,,,,,,,19,Female,2020-09-16_16h54.56.747,torte-2b,2020.1.3,MacIntel,60,13312,,,,,,,,,,,,,,,,,,5,,,,,,,,,,,,0,32,32,32,1,,,,,,,,,,,,,,,,,,,,,,,,,,,,,,,
,,,,,,,,,,,,,,,,,,,,,,,,19,Female,2020-09-16_16h54.56.747,torte-2b,2020.1.3,MacIntel,60,13312,,,,,,,,,,,,,,,,,,3,,,,,,,,,,,,0,33,33,33,1,,,,,,,,,,,,,,,,,,,,,,,,,,,,,,,
,,,,,,,,,,,,,,,,,,,,,,,,19,Female,2020-09-16_16h54.56.747,torte-2b,2020.1.3,MacIntel,60,13312,,,,,,,,,,,,,,,,,,3,,,,,,,,,,,,0,34,34,34,1,,,,,,,,,,,,,,,,,,,,,,,,,,,,,,,
,,,,,,,,,,,,l,0.815705,Correct!,,,,,,t1.png,t5.png,4,9.55E-11,19,Female,2020-09-16_16h54.56.747,torte-2b,2020.1.3,MacIntel,60,13312,space,40.39039,,,,,,,,,,,,,,,,,,,,,,,,,,,,,,,,,space,2.573025,0,0,0,85,1,,,,,,,,,,,,,,,,,,,,,,,,
,,,,,,,,,,,,a,0.95285,Correct!,,,,,,t5.png,t4.png,1,0.9,19,Female,2020-09-16_16h54.56.747,torte-2b,2020.1.3,MacIntel,60,13312,,,,,,,,,,,,,,,,,,,,,,,,,,,,,,,,,,,,,0,1,1,49,1,,,,,,,,,,,,,,,,,,,,,,,,
,,,,,,,,,,,,l,1.067215,Incorrect,,,,,,t3.png,t4.png,1,0.90855,19,Female,2020-09-16_16h54.56.747,torte-2b,2020.1.3,MacIntel,60,13312,,,,,,,,,,,,,,,,,,,,,,,,,,,,,,,,,,,,,0,2,2,84,1,,,,,,,,,,,,,,,,,,,,,,,,
,,,,,,,,,,,,a,1.501525,Incorrect,,,,,,t5.png,t1.png,4,9.55E-11,19,Female,2020-09-16_16h54.56.747,torte-2b,2020.1.3,MacIntel,60,13312,,,,,,,,,,,,,,,,,,,,,,,,,,,,,,,,,,,,,0,3,3,43,1,,,,,,,,,,,,,,,,,,,,,,,,
,,,,,,,,,,,,a,0.883155,Incorrect,,,,,,t3.png,t1.png,2,0.0565,19,Female,2020-09-16_16h54.56.747,torte-2b,2020.1.3,MacIntel,60,13312,,,,,,,,,,,,,,,,,,,,,,,,,,,,,,,,,,,,,0,4,4,31,1,,,,,,,,,,,,,,,,,,,,,,,,
,,,,,,,,,,,,l,0.5674,Incorrect,,,,,,t2.png,t1.png,1,0.90025,19,Female,2020-09-16_16h54.56.747,torte-2b,2020.1.3,MacIntel,60,13312,,,,,,,,,,,,,,,,,,,,,,,,,,,,,,,,,,,,,0,5,5,19,1,,,,,,,,,,,,,,,,,,,,,,,,
,,,,,,,,,,,,l,0.404085,Correct!,,,,,,t3.png,t1.png,2,0.056466,19,Female,2020-09-16_16h54.56.747,torte-2b,2020.1.3,MacIntel,60,13312,,,,,,,,,,,,,,,,,,,,,,,,,,,,,,,,,,,,,0,6,6,0,1,,,,,,,,,,,,,,,,,,,,,,,,
,,,,,,,,,,,,l,0.86622,Correct!,,,,,,t4.png,t1.png,3,0.0000131,19,Female,2020-09-16_16h54.56.747,torte-2b,2020.1.3,MacIntel,60,13312,,,,,,,,,,,,,,,,,,,,,,,,,,,,,,,,,,,,,0,7,7,61,1,,,,,,,,,,,,,,,,,,,,,,,,
,,,,,,,,,,,,l,1.36394,Correct!,,,,,,t2.png,t5.png,3,0.0000131,19,Female,2020-09-16_16h54.56.747,torte-2b,2020.1.3,MacIntel,60,13312,,,,,,,,,,,,,,,,,,,,,,,,,,,,,,,,,,,,,0,8,8,95,1,,,,,,,,,,,,,,,,,,,,,,,,
,,,,,,,,,,,,a,0.52009,Correct!,,,,,,t5.png,t5.png,0,0.97829,19,Female,2020-09-16_16h54.56.747,torte-2b,2020.1.3,MacIntel,60,13312,,,,,,,,,,,,,,,,,,,,,,,,,,,,,,,,,,,,,0,9,9,73,1,,,,,,,,,,,,,,,,,,,,,,,,
,,,,,,,,,,,,a,0.68405,Incorrect,,,,,,t5.png,t2.png,3,0.0000131,19,Female,2020-09-16_16h54.56.747,torte-2b,2020.1.3,MacIntel,60,13312,,,,,,,,,,,,,,,,,,,,,,,,,,,,,,,,,,,,,0,10,10,98,1,,,,,,,,,,,,,,,,,,,,,,,,
,,,,,,,,,,,,l,1.28328,Incorrect,,,,,,t2.png,t1.png,1,0.9,19,Female,2020-09-16_16h54.56.747,torte-2b,2020.1.3,MacIntel,60,13312,,,,,,,,,,,,,,,,,,,,,,,,,,,,,,,,,,,,,0,11,11,118,1,,,,,,,,,,,,,,,,,,,,,,,,
,,,,,,,,,,,,l,1.23367,Incorrect,,,,,,t3.png,t4.png,1,0.909,19,Female,2020-09-16_16h54.56.747,torte-2b,2020.1.3,MacIntel,60,13312,,,,,,,,,,,,,,,,,,,,,,,,,,,,,,,,,,,,,0,12,12,82,1,,,,,,,,,,,,,,,,,,,,,,,,
,,,,,,,,,,,,a,0.26578,Incorrect,,,,,,t1.png,t5.png,4,9.55E-11,19,Female,2020-09-16_16h54.56.747,torte-2b,2020.1.3,MacIntel,60,13312,,,,,,,,,,,,,,,,,,,,,,,,,,,,,,,,,,,,,0,13,13,41,1,,,,,,,,,,,,,,,,,,,,,,,,
,,,,,,,,,,,,l,1.20093,Incorrect,,,,,,t2.png,t2.png,0,0.98115,19,Female,2020-09-16_16h54.56.747,torte-2b,2020.1.3,MacIntel,60,13312,,,,,,,,,,,,,,,,,,,,,,,,,,,,,,,,,,,,,0,14,14,59,1,,,,,,,,,,,,,,,,,,,,,,,,
,,,,,,,,,,,,a,2.15545,Correct!,,,,,,t4.png,t3.png,1,0.90855,19,Female,2020-09-16_16h54.56.747,torte-2b,2020.1.3,MacIntel,60,13312,,,,,,,,,,,,,,,,,,,,,,,,,,,,,,,,,,,,,0,15,15,35,1,,,,,,,,,,,,,,,,,,,,,,,,
,,,,,,,,,,,,a,0.2999,Correct!,,,,,,t5.png,t5.png,0,0.97829,19,Female,2020-09-16_16h54.56.747,torte-2b,2020.1.3,MacIntel,60,13312,,,,,,,,,,,,,,,,,,,,,,,,,,,,,,,,,,,,,0,16,16,70,1,,,,,,,,,,,,,,,,,,,,,,,,
,,,,,,,,,,,,l,0.966505,Incorrect,,,,,,t1.png,t1.png,0,0.97829,19,Female,2020-09-16_16h54.56.747,torte-2b,2020.1.3,MacIntel,60,13312,,,,,,,,,,,,,,,,,,,,,,,,,,,,,,,,,,,,,0,17,17,78,1,,,,,,,,,,,,,,,,,,,,,,,,
,,,,,,,,,,,,a,0.6686,Correct!,,,,,,t5.png,t4.png,1,0.90025,19,Female,2020-09-16_16h54.56.747,torte-2b,2020.1.3,MacIntel,60,13312,,,,,,,,,,,,,,,,,,,,,,,,,,,,,,,,,,,,,0,18,18,26,1,,,,,,,,,,,,,,,,,,,,,,,,
,,,,,,,,,,,,l,1.38321,Incorrect,,,,,,t1.png,t1.png,0,0.978,19,Female,2020-09-16_16h54.56.747,torte-2b,2020.1.3,MacIntel,60,13312,,,,,,,,,,,,,,,,,,,,,,,,,,,,,,,,,,,,,0,19,19,54,1,,,,,,,,,,,,,,,,,,,,,,,,
,,,,,,,,,,,,a,0.821665,Correct!,,,,,,t4.png,t3.png,1,0.909,19,Female,2020-09-16_16h54.56.747,torte-2b,2020.1.3,MacIntel,60,13312,,,,,,,,,,,,,,,,,,,,,,,,,,,,,,,,,,,,,0,20,20,20,1,,,,,,,,,,,,,,,,,,,,,,,,
,,,,,,,,,,,,l,0.317955,Incorrect,,,,,,t2.png,t2.png,0,0.98115,19,Female,2020-09-16_16h54.56.747,torte-2b,2020.1.3,MacIntel,60,13312,,,,,,,,,,,,,,,,,,,,,,,,,,,,,,,,,,,,,0,21,21,57,1,,,,,,,,,,,,,,,,,,,,,,,,
,,,,,,,,,,,,l,1.303845,Correct!,,,,,,t4.png,t2.png,2,0.0591,19,Female,2020-09-16_16h54.56.747,torte-2b,2020.1.3,MacIntel,60,13312,,,,,,,,,,,,,,,,,,,,,,,,,,,,,,,,,,,,,0,22,22,36,1,,,,,,,,,,,,,,,,,,,,,,,,
,,,,,,,,,,,,l,1.234005,Correct!,,,,,,t3.png,t2.png,1,0.909,19,Female,2020-09-16_16h54.56.747,torte-2b,2020.1.3,MacIntel,60,13312,,,,,,,,,,,,,,,,,,,,,,,,,,,,,,,,,,,,,0,23,23,3,1,,,,,,,,,,,,,,,,,,,,,,,,
,,,,,,,,,,,,a,0.785855,Correct!,,,,,,t4.png,t5.png,1,0.90025,19,Female,2020-09-16_16h54.56.747,torte-2b,2020.1.3,MacIntel,60,13312,,,,,,,,,,,,,,,,,,,,,,,,,,,,,,,,,,,,,0,24,24,58,1,,,,,,,,,,,,,,,,,,,,,,,,
,,,,,,,,,,,,a,1.718305,Correct!,,,,,,t5.png,t4.png,1,0.9,19,Female,2020-09-16_16h54.56.747,torte-2b,2020.1.3,MacIntel,60,13312,,,,,,,,,,,,,,,,,,,,,,,,,,,,,,,,,,,,,0,25,25,76,1,,,,,,,,,,,,,,,,,,,,,,,,
,,,,,,,,,,,,a,1.18484,Incorrect,,,,,,t4.png,t2.png,2,0.059078,19,Female,2020-09-16_16h54.56.747,torte-2b,2020.1.3,MacIntel,60,13312,,,,,,,,,,,,,,,,,,,,,,,,,,,,,,,,,,,,,0,26,26,109,1,,,,,,,,,,,,,,,,,,,,,,,,
,,,,,,,,,,,,l,0.821895,Incorrect,,,,,,t2.png,t2.png,0,0.98115,19,Female,2020-09-16_16h54.56.747,torte-2b,2020.1.3,MacIntel,60,13312,,,,,,,,,,,,,,,,,,,,,,,,,,,,,,,,,,,,,0,27,27,2,1,,,,,,,,,,,,,,,,,,,,,,,,
,,,,,,,,,,,,l,1.23318,Incorrect,,,,,,t3.png,t5.png,2,0.056466,19,Female,2020-09-16_16h54.56.747,torte-2b,2020.1.3,MacIntel,60,13312,,,,,,,,,,,,,,,,,,,,,,,,,,,,,,,,,,,,,0,28,28,44,1,,,,,,,,,,,,,,,,,,,,,,,,
,,,,,,,,,,,,a,1.05288,Incorrect,,,,,,t3.png,t5.png,2,0.0565,19,Female,2020-09-16_16h54.56.747,torte-2b,2020.1.3,MacIntel,60,13312,,,,,,,,,,,,,,,,,,,,,,,,,,,,,,,,,,,,,0,29,29,30,1,,,,,,,,,,,,,,,,,,,,,,,,
,,,,,,,,,,,,l,1.400715,Correct!,,,,,,t1.png,t3.png,2,0.056466,19,Female,2020-09-16_16h54.56.747,torte-2b,2020.1.3,MacIntel,60,13312,,,,,,,,,,,,,,,,,,,,,,,,,,,,,,,,,,,,,0,30,30,87,1,,,,,,,,,,,,,,,,,,,,,,,,
,,,,,,,,,,,,a,1.518025,Incorrect,,,,,,t5.png,t2.png,3,0.0000131,19,Female,2020-09-16_16h54.56.747,torte-2b,2020.1.3,MacIntel,60,13312,,,,,,,,,,,,,,,,,,,,,,,,,,,,,,,,,,,,,0,31,31,51,1,,,,,,,,,,,,,,,,,,,,,,,,
,,,,,,,,,,,,a,1.183555,Incorrect,,,,,,t5.png,t2.png,3,0.0000131,19,Female,2020-09-16_16h54.56.747,torte-2b,2020.1.3,MacIntel,60,13312,,,,,,,,,,,,,,,,,,,,,,,,,,,,,,,,,,,,,0,32,32,91,1,,,,,,,,,,,,,,,,,,,,,,,,
,,,,,,,,,,,,l,0.95336,Incorrect,,,,,,t2.png,t2.png,0,0.981,19,Female,2020-09-16_16h54.56.747,torte-2b,2020.1.3,MacIntel,60,13312,,,,,,,,,,,,,,,,,,,,,,,,,,,,,,,,,,,,,0,33,33,101,1,,,,,,,,,,,,,,,,,,,,,,,,
,,,,,,,,,,,,l,0.57151,Incorrect,,,,,,t2.png,t2.png,0,0.98115,19,Female,2020-09-16_16h54.56.747,torte-2b,2020.1.3,MacIntel,60,13312,,,,,,,,,,,,,,,,,,,,,,,,,,,,,,,,,,,,,0,34,34,7,1,,,,,,,,,,,,,,,,,,,,,,,,
,,,,,,,,,,,,a,1.85094,Incorrect,,,,,,t4.png,t2.png,2,0.059078,19,Female,2020-09-16_16h54.56.747,torte-2b,2020.1.3,MacIntel,60,13312,,,,,,,,,,,,,,,,,,,,,,,,,,,,,,,,,,,,,0,35,35,110,1,,,,,,,,,,,,,,,,,,,,,,,,
,,,,,,,,,,,,l,1.63524,Incorrect,,,,,,t2.png,t3.png,1,0.90855,19,Female,2020-09-16_16h54.56.747,torte-2b,2020.1.3,MacIntel,60,13312,,,,,,,,,,,,,,,,,,,,,,,,,,,,,,,,,,,,,0,36,36,10,1,,,,,,,,,,,,,,,,,,,,,,,,
,,,,,,,,,,,,l,1.80295,Correct!,,,,,,t4.png,t1.png,3,0.0000131,19,Female,2020-09-16_16h54.56.747,torte-2b,2020.1.3,MacIntel,60,13312,,,,,,,,,,,,,,,,,,,,,,,,,,,,,,,,,,,,,0,37,37,13,1,,,,,,,,,,,,,,,,,,,,,,,,
,,,,,,,,,,,,l,1.351,Incorrect,,,,,,t1.png,t2.png,1,0.90025,19,Female,2020-09-16_16h54.56.747,torte-2b,2020.1.3,MacIntel,60,13312,,,,,,,,,,,,,,,,,,,,,,,,,,,,,,,,,,,,,0,38,38,105,1,,,,,,,,,,,,,,,,,,,,,,,,
,,,,,,,,,,,,l,0.918375,Correct!,,,,,,t1.png,t4.png,3,0.0000131,19,Female,2020-09-16_16h54.56.747,torte-2b,2020.1.3,MacIntel,60,13312,,,,,,,,,,,,,,,,,,,,,,,,,,,,,,,,,,,,,0,39,39,81,1,,,,,,,,,,,,,,,,,,,,,,,,
,,,,,,,,,,,,a,0.75308,Correct!,,,,,,t4.png,t4.png,0,0.98115,19,Female,2020-09-16_16h54.56.747,torte-2b,2020.1.3,MacIntel,60,13312,,,,,,,,,,,,,,,,,,,,,,,,,,,,,,,,,,,,,0,40,40,79,1,,,,,,,,,,,,,,,,,,,,,,,,
,,,,,,,,,,,,a,1.78293,Incorrect,,,,,,t1.png,t4.png,3,0.0000131,19,Female,2020-09-16_16h54.56.747,torte-2b,2020.1.3,MacIntel,60,13312,,,,,,,,,,,,,,,,,,,,,,,,,,,,,,,,,,,,,0,41,41,50,1,,,,,,,,,,,,,,,,,,,,,,,,
,,,,,,,,,,,,a,1.635795,Correct!,,,,,,t3.png,t4.png,1,0.909,19,Female,2020-09-16_16h54.56.747,torte-2b,2020.1.3,MacIntel,60,13312,,,,,,,,,,,,,,,,,,,,,,,,,,,,,,,,,,,,,0,42,42,89,1,,,,,,,,,,,,,,,,,,,,,,,,
,,,,,,,,,,,,l,0.782825,Incorrect,,,,,,t1.png,t1.png,0,0.97829,19,Female,2020-09-16_16h54.56.747,torte-2b,2020.1.3,MacIntel,60,13312,,,,,,,,,,,,,,,,,,,,,,,,,,,,,,,,,,,,,0,43,43,67,1,,,,,,,,,,,,,,,,,,,,,,,,
,,,,,,,,,,,,l,1.08384,Incorrect,,,,,,t1.png,t2.png,1,0.9,19,Female,2020-09-16_16h54.56.747,torte-2b,2020.1.3,MacIntel,60,13312,,,,,,,,,,,,,,,,,,,,,,,,,,,,,,,,,,,,,0,44,44,1,1,,,,,,,,,,,,,,,,,,,,,,,,
,,,,,,,,,,,,l,0.31587,Correct!,,,,,,t1.png,t4.png,3,0.0000131,19,Female,2020-09-16_16h54.56.747,torte-2b,2020.1.3,MacIntel,60,13312,,,,,,,,,,,,,,,,,,,,,,,,,,,,,,,,,,,,,0,45,45,92,1,,,,,,,,,,,,,,,,,,,,,,,,
,,,,,,,,,,,,a,0.798595,Correct!,,,,,,t4.png,t4.png,0,0.98115,19,Female,2020-09-16_16h54.56.747,torte-2b,2020.1.3,MacIntel,60,13312,,,,,,,,,,,,,,,,,,,,,,,,,,,,,,,,,,,,,0,46,46,90,1,,,,,,,,,,,,,,,,,,,,,,,,
,,,,,,,,,,,,a,0.42106,Correct!,,,,,,t4.png,t5.png,1,0.90025,19,Female,2020-09-16_16h54.56.747,torte-2b,2020.1.3,MacIntel,60,13312,,,,,,,,,,,,,,,,,,,,,,,,,,,,,,,,,,,,,0,47,47,103,1,,,,,,,,,,,,,,,,,,,,,,,,
,,,,,,,,,,,,l,0.78737,Correct!,,,,,,t1.png,t5.png,4,9.55E-11,19,Female,2020-09-16_16h54.56.747,torte-2b,2020.1.3,MacIntel,60,13312,,,,,,,,,,,,,,,,,,,,,,,,,,,,,,,,,,,,,0,48,48,12,1,,,,,,,,,,,,,,,,,,,,,,,,
,,,,,,,,,,,,a,0.685045,Correct!,,,,,,t5.png,t4.png,1,0.90025,19,Female,2020-09-16_16h54.56.747,torte-2b,2020.1.3,MacIntel,60,13312,,,,,,,,,,,,,,,,,,,,,,,,,,,,,,,,,,,,,0,49,49,27,1,,,,,,,,,,,,,,,,,,,,,,,,
,,,,,,,,,,,,l,0.449025,Incorrect,,,,,,t1.png,t1.png,0,0.97829,19,Female,2020-09-16_16h54.56.747,torte-2b,2020.1.3,MacIntel,60,13312,,,,,,,,,,,,,,,,,,,,,,,,,,,,,,,,,,,,,0,50,50,9,1,,,,,,,,,,,,,,,,,,,,,,,,
,,,,,,,,,,,,l,0.4004,Correct!,,,,,,t1.png,t5.png,4,9.55E-11,19,Female,2020-09-16_16h54.56.747,torte-2b,2020.1.3,MacIntel,60,13312,,,,,,,,,,,,,,,,,,,,,,,,,,,,,,,,,,,,,0,51,51,16,1,,,,,,,,,,,,,,,,,,,,,,,,
,,,,,,,,,,,,a,0.833505,Correct!,,,,,,t5.png,t5.png,0,0.97829,19,Female,2020-09-16_16h54.56.747,torte-2b,2020.1.3,MacIntel,60,13312,,,,,,,,,,,,,,,,,,,,,,,,,,,,,,,,,,,,,0,52,52,94,1,,,,,,,,,,,,,,,,,,,,,,,,
,,,,,,,,,,,,a,0.66765,Correct!,,,,,,t3.png,t2.png,1,0.90855,19,Female,2020-09-16_16h54.56.747,torte-2b,2020.1.3,MacIntel,60,13312,,,,,,,,,,,,,,,,,,,,,,,,,,,,,,,,,,,,,0,53,53,53,1,,,,,,,,,,,,,,,,,,,,,,,,
,,,,,,,,,,,,a,0.603155,Correct!,,,,,,t4.png,t5.png,1,0.9,19,Female,2020-09-16_16h54.56.747,torte-2b,2020.1.3,MacIntel,60,13312,,,,,,,,,,,,,,,,,,,,,,,,,,,,,,,,,,,,,0,54,54,115,1,,,,,,,,,,,,,,,,,,,,,,,,
,,,,,,,,,,,,l,1.05223,Correct!,,,,,,t1.png,t3.png,2,0.056466,19,Female,2020-09-16_16h54.56.747,torte-2b,2020.1.3,MacIntel,60,13312,,,,,,,,,,,,,,,,,,,,,,,,,,,,,,,,,,,,,0,55,55,69,1,,,,,,,,,,,,,,,,,,,,,,,,
,,,,,,,,,,,,a,1.00189,Incorrect,,,,,,t3.png,t1.png,2,0.056466,19,Female,2020-09-16_16h54.56.747,torte-2b,2020.1.3,MacIntel,60,13312,,,,,,,,,,,,,,,,,,,,,,,,,,,,,,,,,,,,,0,56,56,29,1,,,,,,,,,,,,,,,,,,,,,,,,
,,,,,,,,,,,,a,0.969415,Incorrect,,,,,,t5.png,t3.png,2,0.0565,19,Female,2020-09-16_16h54.56.747,torte-2b,2020.1.3,MacIntel,60,13312,,,,,,,,,,,,,,,,,,,,,,,,,,,,,,,,,,,,,0,57,57,39,1,,,,,,,,,,,,,,,,,,,,,,,,
,,,,,,,,,,,,a,0.86818,Incorrect,,,,,,t5.png,t3.png,2,0.056466,19,Female,2020-09-16_16h54.56.747,torte-2b,2020.1.3,MacIntel,60,13312,,,,,,,,,,,,,,,,,,,,,,,,,,,,,,,,,,,,,0,58,58,114,1,,,,,,,,,,,,,,,,,,,,,,,,
,,,,,,,,,,,,l,1.10332,Correct!,,,,,,t1.png,t4.png,3,0.0000131,19,Female,2020-09-16_16h54.56.747,torte-2b,2020.1.3,MacIntel,60,13312,,,,,,,,,,,,,,,,,,,,,,,,,,,,,,,,,,,,,0,59,59,107,1,,,,,,,,,,,,,,,,,,,,,,,,
,,,,,,,,,,,,a,0.837545,Incorrect,,,,,,t4.png,t1.png,3,0.0000131,19,Female,2020-09-16_16h54.56.747,torte-2b,2020.1.3,MacIntel,60,13312,,,,,,,,,,,,,,,,,,,,,,,,,,,,,,,,,,,,,0,60,60,93,1,,,,,,,,,,,,,,,,,,,,,,,,
,,,,,,,,,,,,a,0.701195,Incorrect,,,,,,t4.png,t1.png,3,0.0000131,19,Female,2020-09-16_16h54.56.747,torte-2b,2020.1.3,MacIntel,60,13312,,,,,,,,,,,,,,,,,,,,,,,,,,,,,,,,,,,,,0,61,61,48,1,,,,,,,,,,,,,,,,,,,,,,,,
,,,,,,,,,,,,l,0.701945,Incorrect,,,,,,t3.png,t2.png,1,0.90855,19,Female,2020-09-16_16h54.56.747,torte-2b,2020.1.3,MacIntel,60,13312,,,,,,,,,,,,,,,,,,,,,,,,,,,,,,,,,,,,,0,62,62,97,1,,,,,,,,,,,,,,,,,,,,,,,,
,,,,,,,,,,,,a,1.24812,Correct!,,,,,,t4.png,t3.png,1,0.90855,19,Female,2020-09-16_16h54.56.747,torte-2b,2020.1.3,MacIntel,60,13312,,,,,,,,,,,,,,,,,,,,,,,,,,,,,,,,,,,,,0,63,63,45,1,,,,,,,,,,,,,,,,,,,,,,,,
,,,,,,,,,,,,a,0.5197,Correct!,,,,,,t5.png,t4.png,1,0.90025,19,Female,2020-09-16_16h54.56.747,torte-2b,2020.1.3,MacIntel,60,13312,,,,,,,,,,,,,,,,,,,,,,,,,,,,,,,,,,,,,0,64,64,34,1,,,,,,,,,,,,,,,,,,,,,,,,
,,,,,,,,,,,,l,1.102235,Incorrect,,,,,,t1.png,t1.png,0,0.978,19,Female,2020-09-16_16h54.56.747,torte-2b,2020.1.3,MacIntel,60,13312,,,,,,,,,,,,,,,,,,,,,,,,,,,,,,,,,,,,,0,65,65,28,1,,,,,,,,,,,,,,,,,,,,,,,,
,,,,,,,,,,,,l,0.65012,Correct!,,,,,,t2.png,t4.png,2,0.059078,19,Female,2020-09-16_16h54.56.747,torte-2b,2020.1.3,MacIntel,60,13312,,,,,,,,,,,,,,,,,,,,,,,,,,,,,,,,,,,,,0,66,66,11,1,,,,,,,,,,,,,,,,,,,,,,,,
,,,,,,,,,,,,l,1.522605,Incorrect,,,,,,t2.png,t1.png,1,0.90025,19,Female,2020-09-16_16h54.56.747,torte-2b,2020.1.3,MacIntel,60,13312,,,,,,,,,,,,,,,,,,,,,,,,,,,,,,,,,,,,,0,67,67,5,1,,,,,,,,,,,,,,,,,,,,,,,,
,,,,,,,,,,,,l,0.701395,Incorrect,,,,,,t1.png,t2.png,1,0.90025,19,Female,2020-09-16_16h54.56.747,torte-2b,2020.1.3,MacIntel,60,13312,,,,,,,,,,,,,,,,,,,,,,,,,,,,,,,,,,,,,0,68,68,33,1,,,,,,,,,,,,,,,,,,,,,,,,
,,,,,,,,,,,,a,0.46604,Incorrect,,,,,,t4.png,t2.png,2,0.059078,19,Female,2020-09-16_16h54.56.747,torte-2b,2020.1.3,MacIntel,60,13312,,,,,,,,,,,,,,,,,,,,,,,,,,,,,,,,,,,,,0,69,69,86,1,,,,,,,,,,,,,,,,,,,,,,,,
,,,,,,,,,,,,a,0.217955,Correct!,,,,,,t4.png,t5.png,1,0.90025,19,Female,2020-09-16_16h54.56.747,torte-2b,2020.1.3,MacIntel,60,13312,,,,,,,,,,,,,,,,,,,,,,,,,,,,,,,,,,,,,0,70,70,113,1,,,,,,,,,,,,,,,,,,,,,,,,
,,,,,,,,,,,,a,0.58596,Incorrect,,,,,,t3.png,t5.png,2,0.056466,19,Female,2020-09-16_16h54.56.747,torte-2b,2020.1.3,MacIntel,60,13312,,,,,,,,,,,,,,,,,,,,,,,,,,,,,,,,,,,,,0,71,71,6,1,,,,,,,,,,,,,,,,,,,,,,,,
,,,,,,,,,,,,l,0.586015,Incorrect,,,,,,t5.png,t5.png,0,0.978,19,Female,2020-09-16_16h54.56.747,torte-2b,2020.1.3,MacIntel,60,13312,,,,,,,,,,,,,,,,,,,,,,,,,,,,,,,,,,,,,0,72,72,117,1,,,,,,,,,,,,,,,,,,,,,,,,
,,,,,,,,,,,,a,0.667495,Incorrect,,,,,,t5.png,t3.png,2,0.056466,19,Female,2020-09-16_16h54.56.747,torte-2b,2020.1.3,MacIntel,60,13312,,,,,,,,,,,,,,,,,,,,,,,,,,,,,,,,,,,,,0,73,73,38,1,,,,,,,,,,,,,,,,,,,,,,,,
,,,,,,,,,,,,a,0.432695,Incorrect,,,,,,t5.png,t1.png,4,9.55E-11,19,Female,2020-09-16_16h54.56.747,torte-2b,2020.1.3,MacIntel,60,13312,,,,,,,,,,,,,,,,,,,,,,,,,,,,,,,,,,,,,0,74,74,71,1,,,,,,,,,,,,,,,,,,,,,,,,
,,,,,,,,,,,,a,1.567685,Incorrect,,,,,,t3.png,t5.png,2,0.056466,19,Female,2020-09-16_16h54.56.747,torte-2b,2020.1.3,MacIntel,60,13312,,,,,,,,,,,,,,,,,,,,,,,,,,,,,,,,,,,,,0,75,75,14,1,,,,,,,,,,,,,,,,,,,,,,,,
,,,,,,,,,,,,a,1.434645,Correct!,,,,,,t4.png,t5.png,1,0.90025,19,Female,2020-09-16_16h54.56.747,torte-2b,2020.1.3,MacIntel,60,13312,,,,,,,,,,,,,,,,,,,,,,,,,,,,,,,,,,,,,0,76,76,47,1,,,,,,,,,,,,,,,,,,,,,,,,
,,,,,,,,,,,,a,1.370955,Correct!,,,,,,t3.png,t2.png,1,0.909,19,Female,2020-09-16_16h54.56.747,torte-2b,2020.1.3,MacIntel,60,13312,,,,,,,,,,,,,,,,,,,,,,,,,,,,,,,,,,,,,0,77,77,23,1,,,,,,,,,,,,,,,,,,,,,,,,
,,,,,,,,,,,,l,1.367625,Correct!,,,,,,t4.png,t2.png,2,0.059078,19,Female,2020-09-16_16h54.56.747,torte-2b,2020.1.3,MacIntel,60,13312,,,,,,,,,,,,,,,,,,,,,,,,,,,,,,,,,,,,,0,78,78,88,1,,,,,,,,,,,,,,,,,,,,,,,,
,,,,,,,,,,,,l,1.10691,Correct!,,,,,,t5.png,t1.png,4,9.55E-11,19,Female,2020-09-16_16h54.56.747,torte-2b,2020.1.3,MacIntel,60,13312,,,,,,,,,,,,,,,,,,,,,,,,,,,,,,,,,,,,,0,79,79,22,1,,,,,,,,,,,,,,,,,,,,,,,,
,,,,,,,,,,,,a,1.56832,Incorrect,,,,,,t4.png,t1.png,3,0.0000131,19,Female,2020-09-16_16h54.56.747,torte-2b,2020.1.3,MacIntel,60,13312,,,,,,,,,,,,,,,,,,,,,,,,,,,,,,,,,,,,,0,80,80,42,1,,,,,,,,,,,,,,,,,,,,,,,,
,,,,,,,,,,,,a,1.320425,Correct!,,,,,,t4.png,t3.png,1,0.90855,19,Female,2020-09-16_16h54.56.747,torte-2b,2020.1.3,MacIntel,60,13312,,,,,,,,,,,,,,,,,,,,,,,,,,,,,,,,,,,,,0,81,81,75,1,,,,,,,,,,,,,,,,,,,,,,,,
,,,,,,,,,,,,a,0.702135,Correct!,,,,,,t4.png,t4.png,0,0.98115,19,Female,2020-09-16_16h54.56.747,torte-2b,2020.1.3,MacIntel,60,13312,,,,,,,,,,,,,,,,,,,,,,,,,,,,,,,,,,,,,0,82,82,21,1,,,,,,,,,,,,,,,,,,,,,,,,
,,,,,,,,,,,,a,0.91717,Incorrect,,,,,,t3.png,t1.png,2,0.056466,19,Female,2020-09-16_16h54.56.747,torte-2b,2020.1.3,MacIntel,60,13312,,,,,,,,,,,,,,,,,,,,,,,,,,,,,,,,,,,,,0,83,83,64,1,,,,,,,,,,,,,,,,,,,,,,,,
,,,,,,,,,,,,l,0.468705,Correct!,,,,,,t2.png,t5.png,3,0.0000131,19,Female,2020-09-16_16h54.56.747,torte-2b,2020.1.3,MacIntel,60,13312,,,,,,,,,,,,,,,,,,,,,,,,,,,,,,,,,,,,,0,84,84,66,1,,,,,,,,,,,,,,,,,,,,,,,,
,,,,,,,,,,,,l,0.6171,Correct!,,,,,,t2.png,t4.png,2,0.059078,19,Female,2020-09-16_16h54.56.747,torte-2b,2020.1.3,MacIntel,60,13312,,,,,,,,,,,,,,,,,,,,,,,,,,,,,,,,,,,,,0,85,85,37,1,,,,,,,,,,,,,,,,,,,,,,,,
,,,,,,,,,,,,l,0.488735,Correct!,,,,,,t3.png,t1.png,2,0.056466,19,Female,2020-09-16_16h54.56.747,torte-2b,2020.1.3,MacIntel,60,13312,,,,,,,,,,,,,,,,,,,,,,,,,,,,,,,,,,,,,0,86,86,32,1,,,,,,,,,,,,,,,,,,,,,,,,
,,,,,,,,,,,,l,0.601665,Incorrect,,,,,,t2.png,t1.png,1,0.90025,19,Female,2020-09-16_16h54.56.747,torte-2b,2020.1.3,MacIntel,60,13312,,,,,,,,,,,,,,,,,,,,,,,,,,,,,,,,,,,,,0,87,87,62,1,,,,,,,,,,,,,,,,,,,,,,,,
,,,,,,,,,,,,l,0.6839,Incorrect,,,,,,t2.png,t3.png,1,0.90855,19,Female,2020-09-16_16h54.56.747,torte-2b,2020.1.3,MacIntel,60,13312,,,,,,,,,,,,,,,,,,,,,,,,,,,,,,,,,,,,,0,88,88,111,1,,,,,,,,,,,,,,,,,,,,,,,,
,,,,,,,,,,,,l,0.61785,Correct!,,,,,,t2.png,t5.png,3,0.0000131,19,Female,2020-09-16_16h54.56.747,torte-2b,2020.1.3,MacIntel,60,13312,,,,,,,,,,,,,,,,,,,,,,,,,,,,,,,,,,,,,0,89,89,8,1,,,,,,,,,,,,,,,,,,,,,,,,
,,,,,,,,,,,,l,0.85014,Incorrect,,,,,,t2.png,t4.png,2,0.0591,19,Female,2020-09-16_16h54.56.747,torte-2b,2020.1.3,MacIntel,60,13312,,,,,,,,,,,,,,,,,,,,,,,,,,,,,,,,,,,,,0,90,90,15,1,,,,,,,,,,,,,,,,,,,,,,,,
,,,,,,,,,,,,a,0.38936,Correct!,,,,,,t2.png,t1.png,1,0.90025,19,Female,2020-09-16_16h54.56.747,torte-2b,2020.1.3,MacIntel,60,13312,,,,,,,,,,,,,,,,,,,,,,,,,,,,,,,,,,,,,0,91,91,4,1,,,,,,,,,,,,,,,,,,,,,,,,
,,,,,,,,,,,,a,0.66783,Correct!,,,,,,t4.png,t4.png,0,0.98115,19,Female,2020-09-16_16h54.56.747,torte-2b,2020.1.3,MacIntel,60,13312,,,,,,,,,,,,,,,,,,,,,,,,,,,,,,,,,,,,,0,92,92,80,1,,,,,,,,,,,,,,,,,,,,,,,,
,,,,,,,,,,,,l,0.48594,Incorrect,,,,,,t3.png,t2.png,1,0.90855,19,Female,2020-09-16_16h54.56.747,torte-2b,2020.1.3,MacIntel,60,13312,,,,,,,,,,,,,,,,,,,,,,,,,,,,,,,,,,,,,0,93,93,18,1,,,,,,,,,,,,,,,,,,,,,,,,
,,,,,,,,,,,,l,0.766035,Correct!,,,,,,t2.png,t4.png,2,0.059078,19,Female,2020-09-16_16h54.56.747,torte-2b,2020.1.3,MacIntel,60,13312,,,,,,,,,,,,,,,,,,,,,,,,,,,,,,,,,,,,,0,94,94,24,1,,,,,,,,,,,,,,,,,,,,,,,,
,,,,,,,,,,,,l,0.71856,Incorrect,,,,,,t2.png,t3.png,1,0.90855,19,Female,2020-09-16_16h54.56.747,torte-2b,2020.1.3,MacIntel,60,13312,,,,,,,,,,,,,,,,,,,,,,,,,,,,,,,,,,,,,0,95,95,65,1,,,,,,,,,,,,,,,,,,,,,,,,
,,,,,,,,,,,,a,0.97234,Incorrect,,,,,,t5.png,t3.png,2,0.056466,19,Female,2020-09-16_16h54.56.747,torte-2b,2020.1.3,MacIntel,60,13312,,,,,,,,,,,,,,,,,,,,,,,,,,,,,,,,,,,,,0,96,96,56,1,,,,,,,,,,,,,,,,,,,,,,,,
,,,,,,,,,,,,a,1.305095,Correct!,,,,,,t4.png,t4.png,0,0.98115,19,Female,2020-09-16_16h54.56.747,torte-2b,2020.1.3,MacIntel,60,13312,,,,,,,,,,,,,,,,,,,,,,,,,,,,,,,,,,,,,0,97,97,52,1,,,,,,,,,,,,,,,,,,,,,,,,
,,,,,,,,,,,,l,0.88499,Incorrect,,,,,,t2.png,t3.png,1,0.909,19,Female,2020-09-16_16h54.56.747,torte-2b,2020.1.3,MacIntel,60,13312,,,,,,,,,,,,,,,,,,,,,,,,,,,,,,,,,,,,,0,98,98,74,1,,,,,,,,,,,,,,,,,,,,,,,,
,,,,,,,,,,,,a,0.86632,Incorrect,,,,,,t5.png,t3.png,2,0.056466,19,Female,2020-09-16_16h54.56.747,torte-2b,2020.1.3,MacIntel,60,13312,,,,,,,,,,,,,,,,,,,,,,,,,,,,,,,,,,,,,0,99,99,108,1,,,,,,,,,,,,,,,,,,,,,,,,
,,,,,,,,,,,,a,0.83815,Incorrect,,,,,,t3.png,t5.png,2,0.0565,19,Female,2020-09-16_16h54.56.747,torte-2b,2020.1.3,MacIntel,60,13312,,,,,,,,,,,,,,,,,,,,,,,,,,,,,,,,,,,,,0,100,100,83,1,,,,,,,,,,,,,,,,,,,,,,,,
,,,,,,,,,,,,l,0.950805,Correct!,,,,,,t5.png,t1.png,4,9.55E-11,19,Female,2020-09-16_16h54.56.747,torte-2b,2020.1.3,MacIntel,60,13312,,,,,,,,,,,,,,,,,,,,,,,,,,,,,,,,,,,,,0,101,101,100,1,,,,,,,,,,,,,,,,,,,,,,,,
,,,,,,,,,,,,l,0.815115,Correct!,,,,,,t1.png,t3.png,2,0.056466,19,Female,2020-09-16_16h54.56.747,torte-2b,2020.1.3,MacIntel,60,13312,,,,,,,,,,,,,,,,,,,,,,,,,,,,,,,,,,,,,0,102,102,99,1,,,,,,,,,,,,,,,,,,,,,,,,
,,,,,,,,,,,,a,1.41774,Correct!,,,,,,t4.png,t3.png,1,0.909,19,Female,2020-09-16_16h54.56.747,torte-2b,2020.1.3,MacIntel,60,13312,,,,,,,,,,,,,,,,,,,,,,,,,,,,,,,,,,,,,0,103,103,46,1,,,,,,,,,,,,,,,,,,,,,,,,
,,,,,,,,,,,,l,1.151395,Incorrect,,,,,,t2.png,t3.png,1,0.90855,19,Female,2020-09-16_16h54.56.747,torte-2b,2020.1.3,MacIntel,60,13312,,,,,,,,,,,,,,,,,,,,,,,,,,,,,,,,,,,,,0,104,104,68,1,,,,,,,,,,,,,,,,,,,,,,,,
,,,,,,,,,,,,l,0.083215,Correct!,,,,,,t5.png,t2.png,3,0.0000131,19,Female,2020-09-16_16h54.56.747,torte-2b,2020.1.3,MacIntel,60,13312,,,,,,,,,,,,,,,,,,,,,,,,,,,,,,,,,,,,,0,105,105,119,1,,,,,,,,,,,,,,,,,,,,,,,,
,,,,,,,,,,,,l,0.666445,Correct!,,,,,,t1.png,t5.png,4,9.55E-11,19,Female,2020-09-16_16h54.56.747,torte-2b,2020.1.3,MacIntel,60,13312,,,,,,,,,,,,,,,,,,,,,,,,,,,,,,,,,,,,,0,106,106,55,1,,,,,,,,,,,,,,,,,,,,,,,,
,,,,,,,,,,,,l,0.69969,Incorrect,,,,,,t1.png,t2.png,1,0.90025,19,Female,2020-09-16_16h54.56.747,torte-2b,2020.1.3,MacIntel,60,13312,,,,,,,,,,,,,,,,,,,,,,,,,,,,,,,,,,,,,0,107,107,72,1,,,,,,,,,,,,,,,,,,,,,,,,
,,,,,,,,,,,,l,1.367645,Correct!,,,,,,t1.png,t2.png,1,0.90025,19,Female,2020-09-16_16h54.56.747,torte-2b,2020.1.3,MacIntel,60,13312,,,,,,,,,,,,,,,,,,,,,,,,,,,,,,,,,,,,,0,108,108,112,1,,,,,,,,,,,,,,,,,,,,,,,,
,,,,,,,,,,,,a,1.38508,Correct!,,,,,,t3.png,t4.png,1,0.909,19,Female,2020-09-16_16h54.56.747,torte-2b,2020.1.3,MacIntel,60,13312,,,,,,,,,,,,,,,,,,,,,,,,,,,,,,,,,,,,,0,109,109,106,1,,,,,,,,,,,,,,,,,,,,,,,,
,,,,,,,,,,,,l,0.61686,Correct!,,,,,,t1.png,t3.png,2,0.056466,19,Female,2020-09-16_16h54.56.747,torte-2b,2020.1.3,MacIntel,60,13312,,,,,,,,,,,,,,,,,,,,,,,,,,,,,,,,,,,,,0,110,110,60,1,,,,,,,,,,,,,,,,,,,,,,,,
,,,,,,,,,,,,l,1.09959,Correct!,,,,,,t2.png,t4.png,2,0.059078,19,Female,2020-09-16_16h54.56.747,torte-2b,2020.1.3,MacIntel,60,13312,,,,,,,,,,,,,,,,,,,,,,,,,,,,,,,,,,,,,0,111,111,77,1,,,,,,,,,,,,,,,,,,,,,,,,
,,,,,,,,,,,,l,0.49901,Correct!,,,,,,t1.png,t4.png,3,0.0000131,19,Female,2020-09-16_16h54.56.747,torte-2b,2020.1.3,MacIntel,60,13312,,,,,,,,,,,,,,,,,,,,,,,,,,,,,,,,,,,,,0,112,112,17,1,,,,,,,,,,,,,,,,,,,,,,,,
,,,,,,,,,,,,l,0.470185,Correct!,,,,,,t2.png,t5.png,3,0.0000131,19,Female,2020-09-16_16h54.56.747,torte-2b,2020.1.3,MacIntel,60,13312,,,,,,,,,,,,,,,,,,,,,,,,,,,,,,,,,,,,,0,113,113,40,1,,,,,,,,,,,,,,,,,,,,,,,,
,,,,,,,,,,,,l,0.651525,Correct!,,,,,,t1.png,t3.png,2,0.056466,19,Female,2020-09-16_16h54.56.747,torte-2b,2020.1.3,MacIntel,60,13312,,,,,,,,,,,,,,,,,,,,,,,,,,,,,,,,,,,,,0,114,114,63,1,,,,,,,,,,,,,,,,,,,,,,,,
,,,,,,,,,,,,a,0.98627,Incorrect,,,,,,t5.png,t2.png,3,0.0000131,19,Female,2020-09-16_16h54.56.747,torte-2b,2020.1.3,MacIntel,60,13312,,,,,,,,,,,,,,,,,,,,,,,,,,,,,,,,,,,,,0,115,115,116,1,,,,,,,,,,,,,,,,,,,,,,,,
,,,,,,,,,,,,a,0.48704,Incorrect,,,,,,t2.png,t5.png,3,0.0000131,19,Female,2020-09-16_16h54.56.747,torte-2b,2020.1.3,MacIntel,60,13312,,,,,,,,,,,,,,,,,,,,,,,,,,,,,,,,,,,,,0,116,116,104,1,,,,,,,,,,,,,,,,,,,,,,,,
,,,,,,,,,,,,l,0.299805,Incorrect,,,,,,t3.png,t4.png,1,0.90855,19,Female,2020-09-16_16h54.56.747,torte-2b,2020.1.3,MacIntel,60,13312,,,,,,,,,,,,,,,,,,,,,,,,,,,,,,,,,,,,,0,117,117,96,1,,,,,,,,,,,,,,,,,,,,,,,,
,,,,,,,,,,,,a,0.550795,Correct!,,,,,,t5.png,t5.png,0,0.97829,19,Female,2020-09-16_16h54.56.747,torte-2b,2020.1.3,MacIntel,60,13312,,,,,,,,,,,,,,,,,,,,,,,,,,,,,,,,,,,,,0,118,118,25,1,,,,,,,,,,,,,,,,,,,,,,,,
,,,,,,,,,,,,l,1.14946,Correct!,,,,,,t5.png,t1.png,4,9.55E-11,19,Female,2020-09-16_16h54.56.747,torte-2b,2020.1.3,MacIntel,60,13312,,,,,,,,,,,,,,,,,,,,,,,,,,,,,,,,,,,,,0,119,119,102,1,,,,,,,,,,,,,,,,,,,,,,,,
,,,,,,,,,,,,,,,,,,,,,,,,19,Female,2020-09-16_16h54.56.747,torte-2b,2020.1.3,MacIntel,60,13312,space,115.87563,,,,,,,,,,,,,,,,,,,,,,,,,,,,,,,,,,,,,,,,-61.03125,52.8125,1,0,0,s3,18.34375,86.51953125,1,0,0,t1,271.3984375,-104.6601563,1,0,0,proceed,space,1.01696,space,0.76691,space,0.34931
