key_resp_8.keys,key_resp_8.rt,key_resp_9.keys,key_resp_9.rt,key_resp_10.keys,key_resp_10.rt,key_resp_11.keys,key_resp_11.rt,key_resp_2.keys,key_resp_2.rt,key_resp_3.keys,key_resp_3.rt,key_resp.keys,key_resp.rt,Feedback,train.thisRepN,train.thisTrialN,train.thisN,train.thisIndex,train.ran,torta_sx,torta_dx,difference,probability,age,gender,date,expName,psychopyVersion,OS,frameRate,participant,key_resp_15.keys,key_resp_15.rt,key_resp_6.keys,key_resp_6.rt,test1.thisRepN,test1.thisTrialN,test1.thisN,test1.thisIndex,test1.ran,key_resp_4.keys,key_resp_4.rt,key_resp_5.keys,back1.thisRepN,back1.thisTrialN,back1.thisN,back1.thisIndex,back1.ran,letter,key_resp_5.rt,back2.thisRepN,back2.thisTrialN,back2.thisN,back2.thisIndex,back2.ran,back3.thisRepN,back3.thisTrialN,back3.thisN,back3.thisIndex,back3.ran,back4.thisRepN,back4.thisTrialN,back4.thisN,back4.thisIndex,back4.ran,key_resp_7.keys,key_resp_7.rt,test2.thisRepN,test2.thisTrialN,test2.thisN,test2.thisIndex,test2.ran,mouse.x,mouse.y,mouse.leftButton,mouse.midButton,mouse.rightButton,mouse.clicked_name,mouse_2.x,mouse_2.y,mouse_2.leftButton,mouse_2.midButton,mouse_2.rightButton,mouse_2.clicked_name,mouse_3.x,mouse_3.y,mouse_3.leftButton,mouse_3.midButton,mouse_3.rightButton,mouse_3.clicked_name,key_resp_12.keys,key_resp_12.rt,key_resp_13.keys,key_resp_13.rt,key_resp_14.keys,key_resp_14.rt
space,7.937,space,4.897,space,1.943,space,1.637,space,14.631,space,93.068,a,1.21,Incorrect,0,0,0,69,1,t4.png,t2.png,2,0.059078,36,Female,2020-09-28_11h06.59.469,torte-2b,2020.1.3,MacIntel,60,13319,,,,,,,,,,,,,,,,,,,,,,,,,,,,,,,,,,,,,,,,,,,,,,,,,,,,,,,,,,,,,,,,,
,,,,,,,,,,,,a,1.421,Correct!,0,1,1,74,1,t5.png,t4.png,1,0.9,36,Female,2020-09-28_11h06.59.469,torte-2b,2020.1.3,MacIntel,60,13319,,,,,,,,,,,,,,,,,,,,,,,,,,,,,,,,,,,,,,,,,,,,,,,,,,,,,,,,,,,,,,,,,
,,,,,,,,,,,,a,1.002,Correct!,0,2,2,105,1,t3.png,t2.png,1,0.90855,36,Female,2020-09-28_11h06.59.469,torte-2b,2020.1.3,MacIntel,60,13319,,,,,,,,,,,,,,,,,,,,,,,,,,,,,,,,,,,,,,,,,,,,,,,,,,,,,,,,,,,,,,,,,
,,,,,,,,,,,,a,1.909,Correct!,0,3,3,13,1,t5.png,t5.png,0,0.97829,36,Female,2020-09-28_11h06.59.469,torte-2b,2020.1.3,MacIntel,60,13319,,,,,,,,,,,,,,,,,,,,,,,,,,,,,,,,,,,,,,,,,,,,,,,,,,,,,,,,,,,,,,,,,
,,,,,,,,,,,,l,0.721,Correct!,0,4,4,11,1,t1.png,t4.png,3,0.0000131,36,Female,2020-09-28_11h06.59.469,torte-2b,2020.1.3,MacIntel,60,13319,,,,,,,,,,,,,,,,,,,,,,,,,,,,,,,,,,,,,,,,,,,,,,,,,,,,,,,,,,,,,,,,,
,,,,,,,,,,,,a,0.608,Incorrect,0,5,5,26,1,t4.png,t2.png,2,0.0591,36,Female,2020-09-28_11h06.59.469,torte-2b,2020.1.3,MacIntel,60,13319,,,,,,,,,,,,,,,,,,,,,,,,,,,,,,,,,,,,,,,,,,,,,,,,,,,,,,,,,,,,,,,,,
,,,,,,,,,,,,l,1.341,Incorrect,0,6,6,65,1,t4.png,t5.png,1,0.90025,36,Female,2020-09-28_11h06.59.469,torte-2b,2020.1.3,MacIntel,60,13319,,,,,,,,,,,,,,,,,,,,,,,,,,,,,,,,,,,,,,,,,,,,,,,,,,,,,,,,,,,,,,,,,
,,,,,,,,,,,,a,1.275,Correct!,0,7,7,96,1,t1.png,t1.png,0,0.97829,36,Female,2020-09-28_11h06.59.469,torte-2b,2020.1.3,MacIntel,60,13319,,,,,,,,,,,,,,,,,,,,,,,,,,,,,,,,,,,,,,,,,,,,,,,,,,,,,,,,,,,,,,,,,
,,,,,,,,,,,,l,1.239,Incorrect,0,8,8,101,1,t4.png,t5.png,1,0.90025,36,Female,2020-09-28_11h06.59.469,torte-2b,2020.1.3,MacIntel,60,13319,,,,,,,,,,,,,,,,,,,,,,,,,,,,,,,,,,,,,,,,,,,,,,,,,,,,,,,,,,,,,,,,,
,,,,,,,,,,,,a,0.839,Correct!,0,9,9,39,1,t3.png,t2.png,1,0.90855,36,Female,2020-09-28_11h06.59.469,torte-2b,2020.1.3,MacIntel,60,13319,,,,,,,,,,,,,,,,,,,,,,,,,,,,,,,,,,,,,,,,,,,,,,,,,,,,,,,,,,,,,,,,,
,,,,,,,,,,,,a,2.026,Correct!,0,10,10,7,1,t4.png,t5.png,1,0.90025,36,Female,2020-09-28_11h06.59.469,torte-2b,2020.1.3,MacIntel,60,13319,,,,,,,,,,,,,,,,,,,,,,,,,,,,,,,,,,,,,,,,,,,,,,,,,,,,,,,,,,,,,,,,,
,,,,,,,,,,,,a,0.703,Incorrect,0,11,11,82,1,t5.png,t1.png,4,9.55E-11,36,Female,2020-09-28_11h06.59.469,torte-2b,2020.1.3,MacIntel,60,13319,,,,,,,,,,,,,,,,,,,,,,,,,,,,,,,,,,,,,,,,,,,,,,,,,,,,,,,,,,,,,,,,,
,,,,,,,,,,,,l,1.562,Correct!,0,12,12,89,1,t1.png,t4.png,3,0.0000131,36,Female,2020-09-28_11h06.59.469,torte-2b,2020.1.3,MacIntel,60,13319,,,,,,,,,,,,,,,,,,,,,,,,,,,,,,,,,,,,,,,,,,,,,,,,,,,,,,,,,,,,,,,,,
,,,,,,,,,,,,l,0.991,Incorrect,0,13,13,44,1,t2.png,t3.png,1,0.909,36,Female,2020-09-28_11h06.59.469,torte-2b,2020.1.3,MacIntel,60,13319,,,,,,,,,,,,,,,,,,,,,,,,,,,,,,,,,,,,,,,,,,,,,,,,,,,,,,,,,,,,,,,,,
,,,,,,,,,,,,a,1.402,Incorrect,0,14,14,111,1,t5.png,t1.png,4,9.55E-11,36,Female,2020-09-28_11h06.59.469,torte-2b,2020.1.3,MacIntel,60,13319,,,,,,,,,,,,,,,,,,,,,,,,,,,,,,,,,,,,,,,,,,,,,,,,,,,,,,,,,,,,,,,,,
,,,,,,,,,,,,a,0.923,Correct!,0,15,15,76,1,t3.png,t2.png,1,0.90855,36,Female,2020-09-28_11h06.59.469,torte-2b,2020.1.3,MacIntel,60,13319,,,,,,,,,,,,,,,,,,,,,,,,,,,,,,,,,,,,,,,,,,,,,,,,,,,,,,,,,,,,,,,,,
,,,,,,,,,,,,a,1.126,Correct!,0,16,16,62,1,t5.png,t5.png,0,0.978,36,Female,2020-09-28_11h06.59.469,torte-2b,2020.1.3,MacIntel,60,13319,,,,,,,,,,,,,,,,,,,,,,,,,,,,,,,,,,,,,,,,,,,,,,,,,,,,,,,,,,,,,,,,,
,,,,,,,,,,,,l,1.759,Correct!,0,17,17,115,1,t2.png,t4.png,2,0.059078,36,Female,2020-09-28_11h06.59.469,torte-2b,2020.1.3,MacIntel,60,13319,,,,,,,,,,,,,,,,,,,,,,,,,,,,,,,,,,,,,,,,,,,,,,,,,,,,,,,,,,,,,,,,,
,,,,,,,,,,,,l,1.041,Correct!,0,18,18,52,1,t2.png,t4.png,2,0.059078,36,Female,2020-09-28_11h06.59.469,torte-2b,2020.1.3,MacIntel,60,13319,,,,,,,,,,,,,,,,,,,,,,,,,,,,,,,,,,,,,,,,,,,,,,,,,,,,,,,,,,,,,,,,,
,,,,,,,,,,,,l,0.639,Correct!,0,19,19,5,1,t2.png,t4.png,2,0.059078,36,Female,2020-09-28_11h06.59.469,torte-2b,2020.1.3,MacIntel,60,13319,,,,,,,,,,,,,,,,,,,,,,,,,,,,,,,,,,,,,,,,,,,,,,,,,,,,,,,,,,,,,,,,,
,,,,,,,,,,,,l,0.504,Correct!,0,20,20,61,1,t1.png,t4.png,3,0.0000131,36,Female,2020-09-28_11h06.59.469,torte-2b,2020.1.3,MacIntel,60,13319,,,,,,,,,,,,,,,,,,,,,,,,,,,,,,,,,,,,,,,,,,,,,,,,,,,,,,,,,,,,,,,,,
,,,,,,,,,,,,l,0.669,Incorrect,0,21,21,20,1,t2.png,t3.png,1,0.90855,36,Female,2020-09-28_11h06.59.469,torte-2b,2020.1.3,MacIntel,60,13319,,,,,,,,,,,,,,,,,,,,,,,,,,,,,,,,,,,,,,,,,,,,,,,,,,,,,,,,,,,,,,,,,
,,,,,,,,,,,,l,0.756,Correct!,0,22,22,119,1,t1.png,t5.png,4,9.55E-11,36,Female,2020-09-28_11h06.59.469,torte-2b,2020.1.3,MacIntel,60,13319,,,,,,,,,,,,,,,,,,,,,,,,,,,,,,,,,,,,,,,,,,,,,,,,,,,,,,,,,,,,,,,,,
,,,,,,,,,,,,a,0.637,Incorrect,0,23,23,86,1,t3.png,t1.png,2,0.056466,36,Female,2020-09-28_11h06.59.469,torte-2b,2020.1.3,MacIntel,60,13319,,,,,,,,,,,,,,,,,,,,,,,,,,,,,,,,,,,,,,,,,,,,,,,,,,,,,,,,,,,,,,,,,
,,,,,,,,,,,,a,0.485,Incorrect,0,24,24,43,1,t4.png,t2.png,2,0.059078,36,Female,2020-09-28_11h06.59.469,torte-2b,2020.1.3,MacIntel,60,13319,,,,,,,,,,,,,,,,,,,,,,,,,,,,,,,,,,,,,,,,,,,,,,,,,,,,,,,,,,,,,,,,,
,,,,,,,,,,,,l,0.953,Correct!,0,25,25,102,1,t4.png,t2.png,2,0.059078,36,Female,2020-09-28_11h06.59.469,torte-2b,2020.1.3,MacIntel,60,13319,,,,,,,,,,,,,,,,,,,,,,,,,,,,,,,,,,,,,,,,,,,,,,,,,,,,,,,,,,,,,,,,,
,,,,,,,,,,,,l,0.635,Correct!,0,26,26,17,1,t1.png,t4.png,3,0.0000131,36,Female,2020-09-28_11h06.59.469,torte-2b,2020.1.3,MacIntel,60,13319,,,,,,,,,,,,,,,,,,,,,,,,,,,,,,,,,,,,,,,,,,,,,,,,,,,,,,,,,,,,,,,,,
,,,,,,,,,,,,l,0.722,Correct!,0,27,27,9,1,t4.png,t5.png,1,0.9,36,Female,2020-09-28_11h06.59.469,torte-2b,2020.1.3,MacIntel,60,13319,,,,,,,,,,,,,,,,,,,,,,,,,,,,,,,,,,,,,,,,,,,,,,,,,,,,,,,,,,,,,,,,,
,,,,,,,,,,,,l,0.894,Incorrect,0,28,28,21,1,t5.png,t4.png,1,0.90025,36,Female,2020-09-28_11h06.59.469,torte-2b,2020.1.3,MacIntel,60,13319,,,,,,,,,,,,,,,,,,,,,,,,,,,,,,,,,,,,,,,,,,,,,,,,,,,,,,,,,,,,,,,,,
,,,,,,,,,,,,a,0.857,Correct!,0,29,29,95,1,t1.png,t1.png,0,0.978,36,Female,2020-09-28_11h06.59.469,torte-2b,2020.1.3,MacIntel,60,13319,,,,,,,,,,,,,,,,,,,,,,,,,,,,,,,,,,,,,,,,,,,,,,,,,,,,,,,,,,,,,,,,,
,,,,,,,,,,,,a,0.62,Correct!,0,30,30,81,1,t1.png,t1.png,0,0.97829,36,Female,2020-09-28_11h06.59.469,torte-2b,2020.1.3,MacIntel,60,13319,,,,,,,,,,,,,,,,,,,,,,,,,,,,,,,,,,,,,,,,,,,,,,,,,,,,,,,,,,,,,,,,,
,,,,,,,,,,,,a,0.956,Correct!,0,31,31,8,1,t3.png,t2.png,1,0.90855,36,Female,2020-09-28_11h06.59.469,torte-2b,2020.1.3,MacIntel,60,13319,,,,,,,,,,,,,,,,,,,,,,,,,,,,,,,,,,,,,,,,,,,,,,,,,,,,,,,,,,,,,,,,,
,,,,,,,,,,,,a,0.688,Correct!,0,32,32,116,1,t5.png,t4.png,1,0.90025,36,Female,2020-09-28_11h06.59.469,torte-2b,2020.1.3,MacIntel,60,13319,,,,,,,,,,,,,,,,,,,,,,,,,,,,,,,,,,,,,,,,,,,,,,,,,,,,,,,,,,,,,,,,,
,,,,,,,,,,,,a,0.488,Correct!,0,33,33,23,1,t5.png,t4.png,1,0.90025,36,Female,2020-09-28_11h06.59.469,torte-2b,2020.1.3,MacIntel,60,13319,,,,,,,,,,,,,,,,,,,,,,,,,,,,,,,,,,,,,,,,,,,,,,,,,,,,,,,,,,,,,,,,,
,,,,,,,,,,,,l,1.609,Incorrect,0,34,34,22,1,t2.png,t3.png,1,0.90855,36,Female,2020-09-28_11h06.59.469,torte-2b,2020.1.3,MacIntel,60,13319,,,,,,,,,,,,,,,,,,,,,,,,,,,,,,,,,,,,,,,,,,,,,,,,,,,,,,,,,,,,,,,,,
,,,,,,,,,,,,a,0.469,Incorrect,0,35,35,87,1,t5.png,t1.png,4,9.55E-11,36,Female,2020-09-28_11h06.59.469,torte-2b,2020.1.3,MacIntel,60,13319,,,,,,,,,,,,,,,,,,,,,,,,,,,,,,,,,,,,,,,,,,,,,,,,,,,,,,,,,,,,,,,,,
,,,,,,,,,,,,a,0.571,Incorrect,0,36,36,19,1,t4.png,t2.png,2,0.059078,36,Female,2020-09-28_11h06.59.469,torte-2b,2020.1.3,MacIntel,60,13319,,,,,,,,,,,,,,,,,,,,,,,,,,,,,,,,,,,,,,,,,,,,,,,,,,,,,,,,,,,,,,,,,
,,,,,,,,,,,,l,1.19,Incorrect,0,37,37,49,1,t4.png,t5.png,1,0.9,36,Female,2020-09-28_11h06.59.469,torte-2b,2020.1.3,MacIntel,60,13319,,,,,,,,,,,,,,,,,,,,,,,,,,,,,,,,,,,,,,,,,,,,,,,,,,,,,,,,,,,,,,,,,
,,,,,,,,,,,,a,0.323,Correct!,0,38,38,79,1,t3.png,t2.png,1,0.909,36,Female,2020-09-28_11h06.59.469,torte-2b,2020.1.3,MacIntel,60,13319,,,,,,,,,,,,,,,,,,,,,,,,,,,,,,,,,,,,,,,,,,,,,,,,,,,,,,,,,,,,,,,,,
,,,,,,,,,,,,a,0.269,Correct!,0,39,39,85,1,t3.png,t2.png,1,0.90855,36,Female,2020-09-28_11h06.59.469,torte-2b,2020.1.3,MacIntel,60,13319,,,,,,,,,,,,,,,,,,,,,,,,,,,,,,,,,,,,,,,,,,,,,,,,,,,,,,,,,,,,,,,,,
,,,,,,,,,,,,a,1.04,Correct!,0,40,40,97,1,t5.png,t5.png,0,0.97829,36,Female,2020-09-28_11h06.59.469,torte-2b,2020.1.3,MacIntel,60,13319,,,,,,,,,,,,,,,,,,,,,,,,,,,,,,,,,,,,,,,,,,,,,,,,,,,,,,,,,,,,,,,,,
,,,,,,,,,,,,l,0.576,Correct!,0,41,41,57,1,t2.png,t4.png,2,0.059078,36,Female,2020-09-28_11h06.59.469,torte-2b,2020.1.3,MacIntel,60,13319,,,,,,,,,,,,,,,,,,,,,,,,,,,,,,,,,,,,,,,,,,,,,,,,,,,,,,,,,,,,,,,,,
,,,,,,,,,,,,a,0.57,Incorrect,0,42,42,51,1,t3.png,t1.png,2,0.056466,36,Female,2020-09-28_11h06.59.469,torte-2b,2020.1.3,MacIntel,60,13319,,,,,,,,,,,,,,,,,,,,,,,,,,,,,,,,,,,,,,,,,,,,,,,,,,,,,,,,,,,,,,,,,
,,,,,,,,,,,,a,0.706,Incorrect,0,43,43,24,1,t4.png,t2.png,2,0.059078,36,Female,2020-09-28_11h06.59.469,torte-2b,2020.1.3,MacIntel,60,13319,,,,,,,,,,,,,,,,,,,,,,,,,,,,,,,,,,,,,,,,,,,,,,,,,,,,,,,,,,,,,,,,,
,,,,,,,,,,,,l,1.355,Incorrect,0,44,44,100,1,t4.png,t5.png,1,0.90025,36,Female,2020-09-28_11h06.59.469,torte-2b,2020.1.3,MacIntel,60,13319,,,,,,,,,,,,,,,,,,,,,,,,,,,,,,,,,,,,,,,,,,,,,,,,,,,,,,,,,,,,,,,,,
,,,,,,,,,,,,a,0.57,Incorrect,0,45,45,107,1,t1.png,t1.png,0,0.978,36,Female,2020-09-28_11h06.59.469,torte-2b,2020.1.3,MacIntel,60,13319,,,,,,,,,,,,,,,,,,,,,,,,,,,,,,,,,,,,,,,,,,,,,,,,,,,,,,,,,,,,,,,,,
,,,,,,,,,,,,a,0.606,Incorrect,0,46,46,94,1,t5.png,t1.png,4,9.55E-11,36,Female,2020-09-28_11h06.59.469,torte-2b,2020.1.3,MacIntel,60,13319,,,,,,,,,,,,,,,,,,,,,,,,,,,,,,,,,,,,,,,,,,,,,,,,,,,,,,,,,,,,,,,,,
,,,,,,,,,,,,l,0.605,Correct!,0,47,47,35,1,t1.png,t4.png,3,0.0000131,36,Female,2020-09-28_11h06.59.469,torte-2b,2020.1.3,MacIntel,60,13319,,,,,,,,,,,,,,,,,,,,,,,,,,,,,,,,,,,,,,,,,,,,,,,,,,,,,,,,,,,,,,,,,
,,,,,,,,,,,,a,0.756,Incorrect,0,48,48,27,1,t3.png,t1.png,2,0.0565,36,Female,2020-09-28_11h06.59.469,torte-2b,2020.1.3,MacIntel,60,13319,,,,,,,,,,,,,,,,,,,,,,,,,,,,,,,,,,,,,,,,,,,,,,,,,,,,,,,,,,,,,,,,,
,,,,,,,,,,,,a,0.736,Incorrect,0,49,49,73,1,t4.png,t2.png,2,0.059078,36,Female,2020-09-28_11h06.59.469,torte-2b,2020.1.3,MacIntel,60,13319,,,,,,,,,,,,,,,,,,,,,,,,,,,,,,,,,,,,,,,,,,,,,,,,,,,,,,,,,,,,,,,,,
,,,,,,,,,,,,l,0.339,Correct!,0,50,50,3,1,t1.png,t5.png,4,9.55E-11,36,Female,2020-09-28_11h06.59.469,torte-2b,2020.1.3,MacIntel,60,13319,,,,,,,,,,,,,,,,,,,,,,,,,,,,,,,,,,,,,,,,,,,,,,,,,,,,,,,,,,,,,,,,,
,,,,,,,,,,,,l,0.393,Incorrect,0,51,51,109,1,t5.png,t5.png,0,0.97829,36,Female,2020-09-28_11h06.59.469,torte-2b,2020.1.3,MacIntel,60,13319,,,,,,,,,,,,,,,,,,,,,,,,,,,,,,,,,,,,,,,,,,,,,,,,,,,,,,,,,,,,,,,,,
,,,,,,,,,,,,a,0.252,Incorrect,0,52,52,83,1,t3.png,t1.png,2,0.056466,36,Female,2020-09-28_11h06.59.469,torte-2b,2020.1.3,MacIntel,60,13319,,,,,,,,,,,,,,,,,,,,,,,,,,,,,,,,,,,,,,,,,,,,,,,,,,,,,,,,,,,,,,,,,
,,,,,,,,,,,,l,0.772,Incorrect,0,53,53,10,1,t2.png,t3.png,1,0.90855,36,Female,2020-09-28_11h06.59.469,torte-2b,2020.1.3,MacIntel,60,13319,,,,,,,,,,,,,,,,,,,,,,,,,,,,,,,,,,,,,,,,,,,,,,,,,,,,,,,,,,,,,,,,,
,,,,,,,,,,,,a,0.257,Incorrect,0,54,54,91,1,t1.png,t4.png,3,0.0000131,36,Female,2020-09-28_11h06.59.469,torte-2b,2020.1.3,MacIntel,60,13319,,,,,,,,,,,,,,,,,,,,,,,,,,,,,,,,,,,,,,,,,,,,,,,,,,,,,,,,,,,,,,,,,
,,,,,,,,,,,,l,1.226,Incorrect,0,55,55,63,1,t2.png,t3.png,1,0.909,36,Female,2020-09-28_11h06.59.469,torte-2b,2020.1.3,MacIntel,60,13319,,,,,,,,,,,,,,,,,,,,,,,,,,,,,,,,,,,,,,,,,,,,,,,,,,,,,,,,,,,,,,,,,
,,,,,,,,,,,,a,0.485,Correct!,0,56,56,59,1,t5.png,t4.png,1,0.9,36,Female,2020-09-28_11h06.59.469,torte-2b,2020.1.3,MacIntel,60,13319,,,,,,,,,,,,,,,,,,,,,,,,,,,,,,,,,,,,,,,,,,,,,,,,,,,,,,,,,,,,,,,,,
,,,,,,,,,,,,a,0.356,Correct!,0,57,57,32,1,t4.png,t5.png,1,0.90025,36,Female,2020-09-28_11h06.59.469,torte-2b,2020.1.3,MacIntel,60,13319,,,,,,,,,,,,,,,,,,,,,,,,,,,,,,,,,,,,,,,,,,,,,,,,,,,,,,,,,,,,,,,,,
,,,,,,,,,,,,l,0.752,Correct!,0,58,58,117,1,t1.png,t5.png,4,9.55E-11,36,Female,2020-09-28_11h06.59.469,torte-2b,2020.1.3,MacIntel,60,13319,,,,,,,,,,,,,,,,,,,,,,,,,,,,,,,,,,,,,,,,,,,,,,,,,,,,,,,,,,,,,,,,,
,,,,,,,,,,,,a,0.757,Correct!,0,59,59,84,1,t1.png,t1.png,0,0.97829,36,Female,2020-09-28_11h06.59.469,torte-2b,2020.1.3,MacIntel,60,13319,,,,,,,,,,,,,,,,,,,,,,,,,,,,,,,,,,,,,,,,,,,,,,,,,,,,,,,,,,,,,,,,,
,,,,,,,,,,,,a,0.644,Incorrect,0,60,60,53,1,t3.png,t1.png,2,0.056466,36,Female,2020-09-28_11h06.59.469,torte-2b,2020.1.3,MacIntel,60,13319,,,,,,,,,,,,,,,,,,,,,,,,,,,,,,,,,,,,,,,,,,,,,,,,,,,,,,,,,,,,,,,,,
,,,,,,,,,,,,a,0.64,Incorrect,0,61,61,0,1,t5.png,t1.png,4,9.55E-11,36,Female,2020-09-28_11h06.59.469,torte-2b,2020.1.3,MacIntel,60,13319,,,,,,,,,,,,,,,,,,,,,,,,,,,,,,,,,,,,,,,,,,,,,,,,,,,,,,,,,,,,,,,,,
,,,,,,,,,,,,l,1.171,Correct!,0,62,62,46,1,t4.png,t2.png,2,0.059078,36,Female,2020-09-28_11h06.59.469,torte-2b,2020.1.3,MacIntel,60,13319,,,,,,,,,,,,,,,,,,,,,,,,,,,,,,,,,,,,,,,,,,,,,,,,,,,,,,,,,,,,,,,,,
,,,,,,,,,,,,l,0.454,Correct!,0,63,63,93,1,t2.png,t4.png,2,0.059078,36,Female,2020-09-28_11h06.59.469,torte-2b,2020.1.3,MacIntel,60,13319,,,,,,,,,,,,,,,,,,,,,,,,,,,,,,,,,,,,,,,,,,,,,,,,,,,,,,,,,,,,,,,,,
,,,,,,,,,,,,l,1.258,Correct!,0,64,64,66,1,t4.png,t5.png,1,0.9,36,Female,2020-09-28_11h06.59.469,torte-2b,2020.1.3,MacIntel,60,13319,,,,,,,,,,,,,,,,,,,,,,,,,,,,,,,,,,,,,,,,,,,,,,,,,,,,,,,,,,,,,,,,,
,,,,,,,,,,,,l,2.176,Incorrect,0,65,65,45,1,t3.png,t2.png,1,0.90855,36,Female,2020-09-28_11h06.59.469,torte-2b,2020.1.3,MacIntel,60,13319,,,,,,,,,,,,,,,,,,,,,,,,,,,,,,,,,,,,,,,,,,,,,,,,,,,,,,,,,,,,,,,,,
,,,,,,,,,,,,a,0.389,Incorrect,0,66,66,33,1,t5.png,t1.png,4,9.55E-11,36,Female,2020-09-28_11h06.59.469,torte-2b,2020.1.3,MacIntel,60,13319,,,,,,,,,,,,,,,,,,,,,,,,,,,,,,,,,,,,,,,,,,,,,,,,,,,,,,,,,,,,,,,,,
,,,,,,,,,,,,a,0.874,Correct!,0,67,67,48,1,t5.png,t5.png,0,0.97829,36,Female,2020-09-28_11h06.59.469,torte-2b,2020.1.3,MacIntel,60,13319,,,,,,,,,,,,,,,,,,,,,,,,,,,,,,,,,,,,,,,,,,,,,,,,,,,,,,,,,,,,,,,,,
,,,,,,,,,,,,a,1.297,Correct!,0,68,68,113,1,t5.png,t4.png,1,0.9,36,Female,2020-09-28_11h06.59.469,torte-2b,2020.1.3,MacIntel,60,13319,,,,,,,,,,,,,,,,,,,,,,,,,,,,,,,,,,,,,,,,,,,,,,,,,,,,,,,,,,,,,,,,,
,,,,,,,,,,,,a,1.108,Correct!,0,69,69,64,1,t1.png,t1.png,0,0.978,36,Female,2020-09-28_11h06.59.469,torte-2b,2020.1.3,MacIntel,60,13319,,,,,,,,,,,,,,,,,,,,,,,,,,,,,,,,,,,,,,,,,,,,,,,,,,,,,,,,,,,,,,,,,
,,,,,,,,,,,,a,0.955,Correct!,0,70,70,58,1,t5.png,t4.png,1,0.90025,36,Female,2020-09-28_11h06.59.469,torte-2b,2020.1.3,MacIntel,60,13319,,,,,,,,,,,,,,,,,,,,,,,,,,,,,,,,,,,,,,,,,,,,,,,,,,,,,,,,,,,,,,,,,
,,,,,,,,,,,,a,1.221,Correct!,0,71,71,34,1,t5.png,t4.png,1,0.9,36,Female,2020-09-28_11h06.59.469,torte-2b,2020.1.3,MacIntel,60,13319,,,,,,,,,,,,,,,,,,,,,,,,,,,,,,,,,,,,,,,,,,,,,,,,,,,,,,,,,,,,,,,,,
,,,,,,,,,,,,a,0.956,Correct!,0,72,72,25,1,t5.png,t5.png,0,0.97829,36,Female,2020-09-28_11h06.59.469,torte-2b,2020.1.3,MacIntel,60,13319,,,,,,,,,,,,,,,,,,,,,,,,,,,,,,,,,,,,,,,,,,,,,,,,,,,,,,,,,,,,,,,,,
,,,,,,,,,,,,l,1.842,Correct!,0,73,73,6,1,t1.png,t4.png,3,0.0000131,36,Female,2020-09-28_11h06.59.469,torte-2b,2020.1.3,MacIntel,60,13319,,,,,,,,,,,,,,,,,,,,,,,,,,,,,,,,,,,,,,,,,,,,,,,,,,,,,,,,,,,,,,,,,
,,,,,,,,,,,,a,0.825,Incorrect,0,74,74,88,1,t3.png,t1.png,2,0.056466,36,Female,2020-09-28_11h06.59.469,torte-2b,2020.1.3,MacIntel,60,13319,,,,,,,,,,,,,,,,,,,,,,,,,,,,,,,,,,,,,,,,,,,,,,,,,,,,,,,,,,,,,,,,,
,,,,,,,,,,,,a,1.176,Incorrect,0,75,75,72,1,t4.png,t2.png,2,0.059078,36,Female,2020-09-28_11h06.59.469,torte-2b,2020.1.3,MacIntel,60,13319,,,,,,,,,,,,,,,,,,,,,,,,,,,,,,,,,,,,,,,,,,,,,,,,,,,,,,,,,,,,,,,,,
,,,,,,,,,,,,l,1.29,Correct!,0,76,76,103,1,t3.png,t1.png,2,0.056466,36,Female,2020-09-28_11h06.59.469,torte-2b,2020.1.3,MacIntel,60,13319,,,,,,,,,,,,,,,,,,,,,,,,,,,,,,,,,,,,,,,,,,,,,,,,,,,,,,,,,,,,,,,,,
,,,,,,,,,,,,l,1.135,Correct!,0,77,77,67,1,t1.png,t5.png,4,9.55E-11,36,Female,2020-09-28_11h06.59.469,torte-2b,2020.1.3,MacIntel,60,13319,,,,,,,,,,,,,,,,,,,,,,,,,,,,,,,,,,,,,,,,,,,,,,,,,,,,,,,,,,,,,,,,,
,,,,,,,,,,,,l,0.906,Correct!,0,78,78,36,1,t3.png,t1.png,2,0.0565,36,Female,2020-09-28_11h06.59.469,torte-2b,2020.1.3,MacIntel,60,13319,,,,,,,,,,,,,,,,,,,,,,,,,,,,,,,,,,,,,,,,,,,,,,,,,,,,,,,,,,,,,,,,,
,,,,,,,,,,,,l,1.026,Correct!,0,79,79,47,1,t4.png,t2.png,2,0.059078,36,Female,2020-09-28_11h06.59.469,torte-2b,2020.1.3,MacIntel,60,13319,,,,,,,,,,,,,,,,,,,,,,,,,,,,,,,,,,,,,,,,,,,,,,,,,,,,,,,,,,,,,,,,,
,,,,,,,,,,,,l,1.34,Incorrect,0,80,80,18,1,t4.png,t5.png,1,0.90025,36,Female,2020-09-28_11h06.59.469,torte-2b,2020.1.3,MacIntel,60,13319,,,,,,,,,,,,,,,,,,,,,,,,,,,,,,,,,,,,,,,,,,,,,,,,,,,,,,,,,,,,,,,,,
,,,,,,,,,,,,l,2.126,Incorrect,0,81,81,16,1,t5.png,t4.png,1,0.9,36,Female,2020-09-28_11h06.59.469,torte-2b,2020.1.3,MacIntel,60,13319,,,,,,,,,,,,,,,,,,,,,,,,,,,,,,,,,,,,,,,,,,,,,,,,,,,,,,,,,,,,,,,,,
,,,,,,,,,,,,a,0.958,Correct!,0,82,82,70,1,t5.png,t5.png,0,0.978,36,Female,2020-09-28_11h06.59.469,torte-2b,2020.1.3,MacIntel,60,13319,,,,,,,,,,,,,,,,,,,,,,,,,,,,,,,,,,,,,,,,,,,,,,,,,,,,,,,,,,,,,,,,,
,,,,,,,,,,,,a,1.038,Incorrect,0,83,83,14,1,t2.png,t4.png,2,0.059078,36,Female,2020-09-28_11h06.59.469,torte-2b,2020.1.3,MacIntel,60,13319,,,,,,,,,,,,,,,,,,,,,,,,,,,,,,,,,,,,,,,,,,,,,,,,,,,,,,,,,,,,,,,,,
,,,,,,,,,,,,l,0.301,Correct!,0,84,84,56,1,t5.png,t1.png,4,9.55E-11,36,Female,2020-09-28_11h06.59.469,torte-2b,2020.1.3,MacIntel,60,13319,,,,,,,,,,,,,,,,,,,,,,,,,,,,,,,,,,,,,,,,,,,,,,,,,,,,,,,,,,,,,,,,,
,,,,,,,,,,,,l,1.373,Correct!,0,85,85,38,1,t3.png,t1.png,2,0.056466,36,Female,2020-09-28_11h06.59.469,torte-2b,2020.1.3,MacIntel,60,13319,,,,,,,,,,,,,,,,,,,,,,,,,,,,,,,,,,,,,,,,,,,,,,,,,,,,,,,,,,,,,,,,,
,,,,,,,,,,,,l,0.601,Incorrect,0,86,86,112,1,t1.png,t1.png,0,0.97829,36,Female,2020-09-28_11h06.59.469,torte-2b,2020.1.3,MacIntel,60,13319,,,,,,,,,,,,,,,,,,,,,,,,,,,,,,,,,,,,,,,,,,,,,,,,,,,,,,,,,,,,,,,,,
,,,,,,,,,,,,l,0.885,Incorrect,0,87,87,106,1,t2.png,t3.png,1,0.90855,36,Female,2020-09-28_11h06.59.469,torte-2b,2020.1.3,MacIntel,60,13319,,,,,,,,,,,,,,,,,,,,,,,,,,,,,,,,,,,,,,,,,,,,,,,,,,,,,,,,,,,,,,,,,
,,,,,,,,,,,,a,0.237,Incorrect,0,88,88,80,1,t1.png,t4.png,3,0.0000131,36,Female,2020-09-28_11h06.59.469,torte-2b,2020.1.3,MacIntel,60,13319,,,,,,,,,,,,,,,,,,,,,,,,,,,,,,,,,,,,,,,,,,,,,,,,,,,,,,,,,,,,,,,,,
,,,,,,,,,,,,a,0.536,Incorrect,0,89,89,30,1,t3.png,t1.png,2,0.056466,36,Female,2020-09-28_11h06.59.469,torte-2b,2020.1.3,MacIntel,60,13319,,,,,,,,,,,,,,,,,,,,,,,,,,,,,,,,,,,,,,,,,,,,,,,,,,,,,,,,,,,,,,,,,
,,,,,,,,,,,,l,0.697,Correct!,0,90,90,1,1,t2.png,t4.png,2,0.059078,36,Female,2020-09-28_11h06.59.469,torte-2b,2020.1.3,MacIntel,60,13319,,,,,,,,,,,,,,,,,,,,,,,,,,,,,,,,,,,,,,,,,,,,,,,,,,,,,,,,,,,,,,,,,
,,,,,,,,,,,,l,1.052,Correct!,0,91,91,15,1,t3.png,t2.png,1,0.90855,36,Female,2020-09-28_11h06.59.469,torte-2b,2020.1.3,MacIntel,60,13319,,,,,,,,,,,,,,,,,,,,,,,,,,,,,,,,,,,,,,,,,,,,,,,,,,,,,,,,,,,,,,,,,
,,,,,,,,,,,,l,0.61,Correct!,0,92,92,4,1,t1.png,t5.png,4,9.55E-11,36,Female,2020-09-28_11h06.59.469,torte-2b,2020.1.3,MacIntel,60,13319,,,,,,,,,,,,,,,,,,,,,,,,,,,,,,,,,,,,,,,,,,,,,,,,,,,,,,,,,,,,,,,,,
,,,,,,,,,,,,l,0.605,Incorrect,0,93,93,78,1,t1.png,t1.png,0,0.978,36,Female,2020-09-28_11h06.59.469,torte-2b,2020.1.3,MacIntel,60,13319,,,,,,,,,,,,,,,,,,,,,,,,,,,,,,,,,,,,,,,,,,,,,,,,,,,,,,,,,,,,,,,,,
,,,,,,,,,,,,l,0.785,Correct!,0,94,94,54,1,t1.png,t5.png,4,9.55E-11,36,Female,2020-09-28_11h06.59.469,torte-2b,2020.1.3,MacIntel,60,13319,,,,,,,,,,,,,,,,,,,,,,,,,,,,,,,,,,,,,,,,,,,,,,,,,,,,,,,,,,,,,,,,,
,,,,,,,,,,,,l,0.651,Correct!,0,95,95,68,1,t1.png,t4.png,3,0.0000131,36,Female,2020-09-28_11h06.59.469,torte-2b,2020.1.3,MacIntel,60,13319,,,,,,,,,,,,,,,,,,,,,,,,,,,,,,,,,,,,,,,,,,,,,,,,,,,,,,,,,,,,,,,,,
,,,,,,,,,,,,l,0.87,Incorrect,0,96,96,92,1,t2.png,t3.png,1,0.909,36,Female,2020-09-28_11h06.59.469,torte-2b,2020.1.3,MacIntel,60,13319,,,,,,,,,,,,,,,,,,,,,,,,,,,,,,,,,,,,,,,,,,,,,,,,,,,,,,,,,,,,,,,,,
,,,,,,,,,,,,a,1.243,Incorrect,0,97,97,31,1,t1.png,t5.png,4,9.55E-11,36,Female,2020-09-28_11h06.59.469,torte-2b,2020.1.3,MacIntel,60,13319,,,,,,,,,,,,,,,,,,,,,,,,,,,,,,,,,,,,,,,,,,,,,,,,,,,,,,,,,,,,,,,,,
,,,,,,,,,,,,l,1.243,Incorrect,0,98,98,2,1,t3.png,t2.png,1,0.90855,36,Female,2020-09-28_11h06.59.469,torte-2b,2020.1.3,MacIntel,60,13319,,,,,,,,,,,,,,,,,,,,,,,,,,,,,,,,,,,,,,,,,,,,,,,,,,,,,,,,,,,,,,,,,
,,,,,,,,,,,,a,0.872,Correct!,0,99,99,118,1,t5.png,t5.png,0,0.978,36,Female,2020-09-28_11h06.59.469,torte-2b,2020.1.3,MacIntel,60,13319,,,,,,,,,,,,,,,,,,,,,,,,,,,,,,,,,,,,,,,,,,,,,,,,,,,,,,,,,,,,,,,,,
,,,,,,,,,,,,l,1.679,Correct!,0,100,100,60,1,t2.png,t4.png,2,0.059078,36,Female,2020-09-28_11h06.59.469,torte-2b,2020.1.3,MacIntel,60,13319,,,,,,,,,,,,,,,,,,,,,,,,,,,,,,,,,,,,,,,,,,,,,,,,,,,,,,,,,,,,,,,,,
,,,,,,,,,,,,a,1.469,Incorrect,0,101,101,12,1,t5.png,t1.png,4,9.55E-11,36,Female,2020-09-28_11h06.59.469,torte-2b,2020.1.3,MacIntel,60,13319,,,,,,,,,,,,,,,,,,,,,,,,,,,,,,,,,,,,,,,,,,,,,,,,,,,,,,,,,,,,,,,,,
,,,,,,,,,,,,l,1.141,Incorrect,0,102,102,42,1,t5.png,t4.png,1,0.90025,36,Female,2020-09-28_11h06.59.469,torte-2b,2020.1.3,MacIntel,60,13319,,,,,,,,,,,,,,,,,,,,,,,,,,,,,,,,,,,,,,,,,,,,,,,,,,,,,,,,,,,,,,,,,
,,,,,,,,,,,,l,0.939,Correct!,0,103,103,90,1,t1.png,t5.png,4,9.55E-11,36,Female,2020-09-28_11h06.59.469,torte-2b,2020.1.3,MacIntel,60,13319,,,,,,,,,,,,,,,,,,,,,,,,,,,,,,,,,,,,,,,,,,,,,,,,,,,,,,,,,,,,,,,,,
,,,,,,,,,,,,,,Too slow :(,0,104,104,108,1,t5.png,t1.png,4,9.55E-11,36,Female,2020-09-28_11h06.59.469,torte-2b,2020.1.3,MacIntel,60,13319,,,,,,,,,,,,,,,,,,,,,,,,,,,,,,,,,,,,,,,,,,,,,,,,,,,,,,,,,,,,,,,,,
,,,,,,,,,,,,l,2.31,Correct!,0,105,105,40,1,t1.png,t5.png,4,9.55E-11,36,Female,2020-09-28_11h06.59.469,torte-2b,2020.1.3,MacIntel,60,13319,,,,,,,,,,,,,,,,,,,,,,,,,,,,,,,,,,,,,,,,,,,,,,,,,,,,,,,,,,,,,,,,,
,,,,,,,,,,,,l,0.774,Correct!,0,106,106,99,1,t1.png,t5.png,4,9.55E-11,36,Female,2020-09-28_11h06.59.469,torte-2b,2020.1.3,MacIntel,60,13319,,,,,,,,,,,,,,,,,,,,,,,,,,,,,,,,,,,,,,,,,,,,,,,,,,,,,,,,,,,,,,,,,
,,,,,,,,,,,,a,1.055,Correct!,0,107,107,75,1,t1.png,t1.png,0,0.97829,36,Female,2020-09-28_11h06.59.469,torte-2b,2020.1.3,MacIntel,60,13319,,,,,,,,,,,,,,,,,,,,,,,,,,,,,,,,,,,,,,,,,,,,,,,,,,,,,,,,,,,,,,,,,
,,,,,,,,,,,,a,1.31,Incorrect,0,108,108,50,1,t5.png,t1.png,4,9.55E-11,36,Female,2020-09-28_11h06.59.469,torte-2b,2020.1.3,MacIntel,60,13319,,,,,,,,,,,,,,,,,,,,,,,,,,,,,,,,,,,,,,,,,,,,,,,,,,,,,,,,,,,,,,,,,
,,,,,,,,,,,,l,0.823,Incorrect,0,109,109,110,1,t4.png,t5.png,1,0.90025,36,Female,2020-09-28_11h06.59.469,torte-2b,2020.1.3,MacIntel,60,13319,,,,,,,,,,,,,,,,,,,,,,,,,,,,,,,,,,,,,,,,,,,,,,,,,,,,,,,,,,,,,,,,,
,,,,,,,,,,,,a,0.713,Correct!,0,110,110,71,1,t5.png,t5.png,0,0.97829,36,Female,2020-09-28_11h06.59.469,torte-2b,2020.1.3,MacIntel,60,13319,,,,,,,,,,,,,,,,,,,,,,,,,,,,,,,,,,,,,,,,,,,,,,,,,,,,,,,,,,,,,,,,,
,,,,,,,,,,,,a,0.536,Correct!,0,111,111,41,1,t3.png,t2.png,1,0.90855,36,Female,2020-09-28_11h06.59.469,torte-2b,2020.1.3,MacIntel,60,13319,,,,,,,,,,,,,,,,,,,,,,,,,,,,,,,,,,,,,,,,,,,,,,,,,,,,,,,,,,,,,,,,,
,,,,,,,,,,,,l,2.106,Correct!,0,112,112,55,1,t2.png,t4.png,2,0.059078,36,Female,2020-09-28_11h06.59.469,torte-2b,2020.1.3,MacIntel,60,13319,,,,,,,,,,,,,,,,,,,,,,,,,,,,,,,,,,,,,,,,,,,,,,,,,,,,,,,,,,,,,,,,,
,,,,,,,,,,,,a,0.941,Correct!,0,113,113,77,1,t1.png,t1.png,0,0.97829,36,Female,2020-09-28_11h06.59.469,torte-2b,2020.1.3,MacIntel,60,13319,,,,,,,,,,,,,,,,,,,,,,,,,,,,,,,,,,,,,,,,,,,,,,,,,,,,,,,,,,,,,,,,,
,,,,,,,,,,,,l,1.722,Incorrect,0,114,114,114,1,t2.png,t3.png,1,0.90855,36,Female,2020-09-28_11h06.59.469,torte-2b,2020.1.3,MacIntel,60,13319,,,,,,,,,,,,,,,,,,,,,,,,,,,,,,,,,,,,,,,,,,,,,,,,,,,,,,,,,,,,,,,,,
,,,,,,,,,,,,a,0.433,Correct!,0,115,115,29,1,t5.png,t5.png,0,0.97829,36,Female,2020-09-28_11h06.59.469,torte-2b,2020.1.3,MacIntel,60,13319,,,,,,,,,,,,,,,,,,,,,,,,,,,,,,,,,,,,,,,,,,,,,,,,,,,,,,,,,,,,,,,,,
,,,,,,,,,,,,a,1.894,Incorrect,0,116,116,37,1,t1.png,t4.png,3,0.0000131,36,Female,2020-09-28_11h06.59.469,torte-2b,2020.1.3,MacIntel,60,13319,,,,,,,,,,,,,,,,,,,,,,,,,,,,,,,,,,,,,,,,,,,,,,,,,,,,,,,,,,,,,,,,,
,,,,,,,,,,,,l,0.678,Correct!,0,117,117,98,1,t2.png,t4.png,2,0.0591,36,Female,2020-09-28_11h06.59.469,torte-2b,2020.1.3,MacIntel,60,13319,,,,,,,,,,,,,,,,,,,,,,,,,,,,,,,,,,,,,,,,,,,,,,,,,,,,,,,,,,,,,,,,,
,,,,,,,,,,,,l,0.586,Incorrect,0,118,118,28,1,t2.png,t3.png,1,0.909,36,Female,2020-09-28_11h06.59.469,torte-2b,2020.1.3,MacIntel,60,13319,,,,,,,,,,,,,,,,,,,,,,,,,,,,,,,,,,,,,,,,,,,,,,,,,,,,,,,,,,,,,,,,,
,,,,,,,,,,,,a,0.335,Correct!,0,119,119,104,1,t2.png,t3.png,1,0.90855,36,Female,2020-09-28_11h06.59.469,torte-2b,2020.1.3,MacIntel,60,13319,,,,,,,,,,,,,,,,,,,,,,,,,,,,,,,,,,,,,,,,,,,,,,,,,,,,,,,,,,,,,,,,,
,,,,,,,,,,,,a,0.924,Correct!,,,,,,t5.png,t4.png,1,0.90025,36,Female,2020-09-28_11h06.59.469,torte-2b,2020.1.3,MacIntel,60,13319,space,2.559,space,20.171,0,0,0,27,1,,,,,,,,,,,,,,,,,,,,,,,,,,,,,,,,,,,,,,,,,,,,,,,,,,,,,,,,
,,,,,,,,,,,,l,2.11,Correct!,,,,,,t2.png,t4.png,2,0.059078,36,Female,2020-09-28_11h06.59.469,torte-2b,2020.1.3,MacIntel,60,13319,,,,,0,1,1,24,1,,,,,,,,,,,,,,,,,,,,,,,,,,,,,,,,,,,,,,,,,,,,,,,,,,,,,,,,
,,,,,,,,,,,,l,1.844,Correct!,,,,,,t4.png,t1.png,3,0.0000131,36,Female,2020-09-28_11h06.59.469,torte-2b,2020.1.3,MacIntel,60,13319,,,,,0,2,2,61,1,,,,,,,,,,,,,,,,,,,,,,,,,,,,,,,,,,,,,,,,,,,,,,,,,,,,,,,,
,,,,,,,,,,,,a,0.938,Correct!,,,,,,t2.png,t2.png,0,0.98115,36,Female,2020-09-28_11h06.59.469,torte-2b,2020.1.3,MacIntel,60,13319,,,,,0,3,3,2,1,,,,,,,,,,,,,,,,,,,,,,,,,,,,,,,,,,,,,,,,,,,,,,,,,,,,,,,,
,,,,,,,,,,,,a,1.54,Incorrect,,,,,,t5.png,t1.png,4,9.55E-11,36,Female,2020-09-28_11h06.59.469,torte-2b,2020.1.3,MacIntel,60,13319,,,,,0,4,4,22,1,,,,,,,,,,,,,,,,,,,,,,,,,,,,,,,,,,,,,,,,,,,,,,,,,,,,,,,,
,,,,,,,,,,,,l,1.003,Correct!,,,,,,t3.png,t5.png,2,0.056466,36,Female,2020-09-28_11h06.59.469,torte-2b,2020.1.3,MacIntel,60,13319,,,,,0,5,5,14,1,,,,,,,,,,,,,,,,,,,,,,,,,,,,,,,,,,,,,,,,,,,,,,,,,,,,,,,,
,,,,,,,,,,,,l,1.809,Correct!,,,,,,t5.png,t1.png,4,9.55E-11,36,Female,2020-09-28_11h06.59.469,torte-2b,2020.1.3,MacIntel,60,13319,,,,,0,6,6,100,1,,,,,,,,,,,,,,,,,,,,,,,,,,,,,,,,,,,,,,,,,,,,,,,,,,,,,,,,
,,,,,,,,,,,,l,1.074,Correct!,,,,,,t5.png,t1.png,4,9.55E-11,36,Female,2020-09-28_11h06.59.469,torte-2b,2020.1.3,MacIntel,60,13319,,,,,0,7,7,102,1,,,,,,,,,,,,,,,,,,,,,,,,,,,,,,,,,,,,,,,,,,,,,,,,,,,,,,,,
,,,,,,,,,,,,a,1.591,Correct!,,,,,,t2.png,t1.png,1,0.90025,36,Female,2020-09-28_11h06.59.469,torte-2b,2020.1.3,MacIntel,60,13319,,,,,0,8,8,4,1,,,,,,,,,,,,,,,,,,,,,,,,,,,,,,,,,,,,,,,,,,,,,,,,,,,,,,,,
,,,,,,,,,,,,a,1.412,Incorrect,,,,,,t5.png,t3.png,2,0.0565,36,Female,2020-09-28_11h06.59.469,torte-2b,2020.1.3,MacIntel,60,13319,,,,,0,9,9,39,1,,,,,,,,,,,,,,,,,,,,,,,,,,,,,,,,,,,,,,,,,,,,,,,,,,,,,,,,
,,,,,,,,,,,,l,1.274,Correct!,,,,,,t1.png,t4.png,3,0.0000131,36,Female,2020-09-28_11h06.59.469,torte-2b,2020.1.3,MacIntel,60,13319,,,,,0,10,10,92,1,,,,,,,,,,,,,,,,,,,,,,,,,,,,,,,,,,,,,,,,,,,,,,,,,,,,,,,,
,,,,,,,,,,,,l,0.988,Correct!,,,,,,t1.png,t3.png,2,0.056466,36,Female,2020-09-28_11h06.59.469,torte-2b,2020.1.3,MacIntel,60,13319,,,,,0,11,11,99,1,,,,,,,,,,,,,,,,,,,,,,,,,,,,,,,,,,,,,,,,,,,,,,,,,,,,,,,,
,,,,,,,,,,,,a,0.972,Correct!,,,,,,t4.png,t3.png,1,0.90855,36,Female,2020-09-28_11h06.59.469,torte-2b,2020.1.3,MacIntel,60,13319,,,,,0,12,12,35,1,,,,,,,,,,,,,,,,,,,,,,,,,,,,,,,,,,,,,,,,,,,,,,,,,,,,,,,,
,,,,,,,,,,,,l,1.356,Incorrect,,,,,,t4.png,t5.png,1,0.90025,36,Female,2020-09-28_11h06.59.469,torte-2b,2020.1.3,MacIntel,60,13319,,,,,0,13,13,113,1,,,,,,,,,,,,,,,,,,,,,,,,,,,,,,,,,,,,,,,,,,,,,,,,,,,,,,,,
,,,,,,,,,,,,l,0.742,Correct!,,,,,,t4.png,t2.png,2,0.059078,36,Female,2020-09-28_11h06.59.469,torte-2b,2020.1.3,MacIntel,60,13319,,,,,0,14,14,88,1,,,,,,,,,,,,,,,,,,,,,,,,,,,,,,,,,,,,,,,,,,,,,,,,,,,,,,,,
,,,,,,,,,,,,a,0.838,Correct!,,,,,,t4.png,t3.png,1,0.909,36,Female,2020-09-28_11h06.59.469,torte-2b,2020.1.3,MacIntel,60,13319,,,,,0,15,15,20,1,,,,,,,,,,,,,,,,,,,,,,,,,,,,,,,,,,,,,,,,,,,,,,,,,,,,,,,,
,,,,,,,,,,,,a,1.202,Correct!,,,,,,t3.png,t2.png,1,0.90855,36,Female,2020-09-28_11h06.59.469,torte-2b,2020.1.3,MacIntel,60,13319,,,,,0,16,16,53,1,,,,,,,,,,,,,,,,,,,,,,,,,,,,,,,,,,,,,,,,,,,,,,,,,,,,,,,,
,,,,,,,,,,,,l,1.376,Incorrect,,,,,,t4.png,t5.png,1,0.90025,36,Female,2020-09-28_11h06.59.469,torte-2b,2020.1.3,MacIntel,60,13319,,,,,0,17,17,47,1,,,,,,,,,,,,,,,,,,,,,,,,,,,,,,,,,,,,,,,,,,,,,,,,,,,,,,,,
,,,,,,,,,,,,l,0.76,Correct!,,,,,,t1.png,t4.png,3,0.0000131,36,Female,2020-09-28_11h06.59.469,torte-2b,2020.1.3,MacIntel,60,13319,,,,,0,18,18,107,1,,,,,,,,,,,,,,,,,,,,,,,,,,,,,,,,,,,,,,,,,,,,,,,,,,,,,,,,
,,,,,,,,,,,,l,0.776,Correct!,,,,,,t3.png,t5.png,2,0.056466,36,Female,2020-09-28_11h06.59.469,torte-2b,2020.1.3,MacIntel,60,13319,,,,,0,19,19,44,1,,,,,,,,,,,,,,,,,,,,,,,,,,,,,,,,,,,,,,,,,,,,,,,,,,,,,,,,
,,,,,,,,,,,,a,1.089,Incorrect,,,,,,t4.png,t1.png,3,0.0000131,36,Female,2020-09-28_11h06.59.469,torte-2b,2020.1.3,MacIntel,60,13319,,,,,0,20,20,93,1,,,,,,,,,,,,,,,,,,,,,,,,,,,,,,,,,,,,,,,,,,,,,,,,,,,,,,,,
,,,,,,,,,,,,a,1.008,Correct!,,,,,,t2.png,t2.png,0,0.98115,36,Female,2020-09-28_11h06.59.469,torte-2b,2020.1.3,MacIntel,60,13319,,,,,0,21,21,59,1,,,,,,,,,,,,,,,,,,,,,,,,,,,,,,,,,,,,,,,,,,,,,,,,,,,,,,,,
,,,,,,,,,,,,l,1.259,Incorrect,,,,,,t2.png,t3.png,1,0.90855,36,Female,2020-09-28_11h06.59.469,torte-2b,2020.1.3,MacIntel,60,13319,,,,,0,22,22,65,1,,,,,,,,,,,,,,,,,,,,,,,,,,,,,,,,,,,,,,,,,,,,,,,,,,,,,,,,
,,,,,,,,,,,,l,0.837,Incorrect,,,,,,t2.png,t1.png,1,0.90025,36,Female,2020-09-28_11h06.59.469,torte-2b,2020.1.3,MacIntel,60,13319,,,,,0,23,23,5,1,,,,,,,,,,,,,,,,,,,,,,,,,,,,,,,,,,,,,,,,,,,,,,,,,,,,,,,,
,,,,,,,,,,,,l,0.858,Incorrect,,,,,,t2.png,t1.png,1,0.90025,36,Female,2020-09-28_11h06.59.469,torte-2b,2020.1.3,MacIntel,60,13319,,,,,0,24,24,62,1,,,,,,,,,,,,,,,,,,,,,,,,,,,,,,,,,,,,,,,,,,,,,,,,,,,,,,,,
,,,,,,,,,,,,l,1.024,Incorrect,,,,,,t3.png,t2.png,1,0.90855,36,Female,2020-09-28_11h06.59.469,torte-2b,2020.1.3,MacIntel,60,13319,,,,,0,25,25,18,1,,,,,,,,,,,,,,,,,,,,,,,,,,,,,,,,,,,,,,,,,,,,,,,,,,,,,,,,
,,,,,,,,,,,,l,1.108,Correct!,,,,,,t2.png,t5.png,3,0.0000131,36,Female,2020-09-28_11h06.59.469,torte-2b,2020.1.3,MacIntel,60,13319,,,,,0,26,26,40,1,,,,,,,,,,,,,,,,,,,,,,,,,,,,,,,,,,,,,,,,,,,,,,,,,,,,,,,,
,,,,,,,,,,,,a,0.524,Correct!,,,,,,t1.png,t1.png,0,0.97829,36,Female,2020-09-28_11h06.59.469,torte-2b,2020.1.3,MacIntel,60,13319,,,,,0,27,27,67,1,,,,,,,,,,,,,,,,,,,,,,,,,,,,,,,,,,,,,,,,,,,,,,,,,,,,,,,,
,,,,,,,,,,,,l,1.541,Correct!,,,,,,t5.png,t1.png,4,9.55E-11,36,Female,2020-09-28_11h06.59.469,torte-2b,2020.1.3,MacIntel,60,13319,,,,,0,28,28,71,1,,,,,,,,,,,,,,,,,,,,,,,,,,,,,,,,,,,,,,,,,,,,,,,,,,,,,,,,
,,,,,,,,,,,,a,0.808,Correct!,,,,,,t4.png,t4.png,0,0.98115,36,Female,2020-09-28_11h06.59.469,torte-2b,2020.1.3,MacIntel,60,13319,,,,,0,29,29,21,1,,,,,,,,,,,,,,,,,,,,,,,,,,,,,,,,,,,,,,,,,,,,,,,,,,,,,,,,
,,,,,,,,,,,,a,0.818,Correct!,,,,,,t5.png,t5.png,0,0.978,36,Female,2020-09-28_11h06.59.469,torte-2b,2020.1.3,MacIntel,60,13319,,,,,0,30,30,117,1,,,,,,,,,,,,,,,,,,,,,,,,,,,,,,,,,,,,,,,,,,,,,,,,,,,,,,,,
,,,,,,,,,,,,l,1.009,Correct!,,,,,,t1.png,t5.png,4,9.55E-11,36,Female,2020-09-28_11h06.59.469,torte-2b,2020.1.3,MacIntel,60,13319,,,,,0,31,31,16,1,,,,,,,,,,,,,,,,,,,,,,,,,,,,,,,,,,,,,,,,,,,,,,,,,,,,,,,,
,,,,,,,,,,,,l,0.725,Correct!,,,,,,t2.png,t4.png,2,0.059078,36,Female,2020-09-28_11h06.59.469,torte-2b,2020.1.3,MacIntel,60,13319,,,,,0,32,32,77,1,,,,,,,,,,,,,,,,,,,,,,,,,,,,,,,,,,,,,,,,,,,,,,,,,,,,,,,,
,,,,,,,,,,,,l,0.688,Correct!,,,,,,t2.png,t5.png,3,0.0000131,36,Female,2020-09-28_11h06.59.469,torte-2b,2020.1.3,MacIntel,60,13319,,,,,0,33,33,95,1,,,,,,,,,,,,,,,,,,,,,,,,,,,,,,,,,,,,,,,,,,,,,,,,,,,,,,,,
,,,,,,,,,,,,a,0.723,Correct!,,,,,,t2.png,t2.png,0,0.98115,36,Female,2020-09-28_11h06.59.469,torte-2b,2020.1.3,MacIntel,60,13319,,,,,0,34,34,7,1,,,,,,,,,,,,,,,,,,,,,,,,,,,,,,,,,,,,,,,,,,,,,,,,,,,,,,,,
,,,,,,,,,,,,a,0.959,Correct!,,,,,,t4.png,t4.png,0,0.98115,36,Female,2020-09-28_11h06.59.469,torte-2b,2020.1.3,MacIntel,60,13319,,,,,0,35,35,79,1,,,,,,,,,,,,,,,,,,,,,,,,,,,,,,,,,,,,,,,,,,,,,,,,,,,,,,,,
,,,,,,,,,,,,l,0.708,Incorrect,,,,,,t1.png,t3.png,2,0.056466,36,Female,2020-09-28_11h06.59.469,torte-2b,2020.1.3,MacIntel,60,13319,,,,,0,36,36,63,1,,,,,,,,,,,,,,,,,,,,,,,,,,,,,,,,,,,,,,,,,,,,,,,,,,,,,,,,
,,,,,,,,,,,,l,0.835,Correct!,,,,,,t4.png,t1.png,3,0.0000131,36,Female,2020-09-28_11h06.59.469,torte-2b,2020.1.3,MacIntel,60,13319,,,,,0,37,37,48,1,,,,,,,,,,,,,,,,,,,,,,,,,,,,,,,,,,,,,,,,,,,,,,,,,,,,,,,,
,,,,,,,,,,,,l,1.05,Incorrect,,,,,,t1.png,t2.png,1,0.90025,36,Female,2020-09-28_11h06.59.469,torte-2b,2020.1.3,MacIntel,60,13319,,,,,0,38,38,33,1,,,,,,,,,,,,,,,,,,,,,,,,,,,,,,,,,,,,,,,,,,,,,,,,,,,,,,,,
,,,,,,,,,,,,l,0.811,Correct!,,,,,,t2.png,t4.png,2,0.059078,36,Female,2020-09-28_11h06.59.469,torte-2b,2020.1.3,MacIntel,60,13319,,,,,0,39,39,37,1,,,,,,,,,,,,,,,,,,,,,,,,,,,,,,,,,,,,,,,,,,,,,,,,,,,,,,,,
,,,,,,,,,,,,l,1.104,Incorrect,,,,,,t2.png,t3.png,1,0.90855,36,Female,2020-09-28_11h06.59.469,torte-2b,2020.1.3,MacIntel,60,13319,,,,,0,40,40,10,1,,,,,,,,,,,,,,,,,,,,,,,,,,,,,,,,,,,,,,,,,,,,,,,,,,,,,,,,
,,,,,,,,,,,,l,0.805,Correct!,,,,,,t3.png,t2.png,1,0.909,36,Female,2020-09-28_11h06.59.469,torte-2b,2020.1.3,MacIntel,60,13319,,,,,0,41,41,3,1,,,,,,,,,,,,,,,,,,,,,,,,,,,,,,,,,,,,,,,,,,,,,,,,,,,,,,,,
,,,,,,,,,,,,l,1.143,Incorrect,,,,,,t2.png,t1.png,1,0.90025,36,Female,2020-09-28_11h06.59.469,torte-2b,2020.1.3,MacIntel,60,13319,,,,,0,42,42,19,1,,,,,,,,,,,,,,,,,,,,,,,,,,,,,,,,,,,,,,,,,,,,,,,,,,,,,,,,
,,,,,,,,,,,,l,0.923,Correct!,,,,,,t5.png,t3.png,2,0.056466,36,Female,2020-09-28_11h06.59.469,torte-2b,2020.1.3,MacIntel,60,13319,,,,,0,43,43,108,1,,,,,,,,,,,,,,,,,,,,,,,,,,,,,,,,,,,,,,,,,,,,,,,,,,,,,,,,
,,,,,,,,,,,,l,0.705,Correct!,,,,,,t5.png,t2.png,3,0.0000131,36,Female,2020-09-28_11h06.59.469,torte-2b,2020.1.3,MacIntel,60,13319,,,,,0,44,44,91,1,,,,,,,,,,,,,,,,,,,,,,,,,,,,,,,,,,,,,,,,,,,,,,,,,,,,,,,,
,,,,,,,,,,,,l,0.869,Incorrect,,,,,,t1.png,t2.png,1,0.90025,36,Female,2020-09-28_11h06.59.469,torte-2b,2020.1.3,MacIntel,60,13319,,,,,0,45,45,105,1,,,,,,,,,,,,,,,,,,,,,,,,,,,,,,,,,,,,,,,,,,,,,,,,,,,,,,,,
,,,,,,,,,,,,a,0.607,Correct!,,,,,,t5.png,t5.png,0,0.97829,36,Female,2020-09-28_11h06.59.469,torte-2b,2020.1.3,MacIntel,60,13319,,,,,0,46,46,94,1,,,,,,,,,,,,,,,,,,,,,,,,,,,,,,,,,,,,,,,,,,,,,,,,,,,,,,,,
,,,,,,,,,,,,l,0.742,Correct!,,,,,,t1.png,t5.png,4,9.55E-11,36,Female,2020-09-28_11h06.59.469,torte-2b,2020.1.3,MacIntel,60,13319,,,,,0,47,47,41,1,,,,,,,,,,,,,,,,,,,,,,,,,,,,,,,,,,,,,,,,,,,,,,,,,,,,,,,,
,,,,,,,,,,,,a,0.55,Correct!,,,,,,t1.png,t1.png,0,0.97829,36,Female,2020-09-28_11h06.59.469,torte-2b,2020.1.3,MacIntel,60,13319,,,,,0,48,48,9,1,,,,,,,,,,,,,,,,,,,,,,,,,,,,,,,,,,,,,,,,,,,,,,,,,,,,,,,,
,,,,,,,,,,,,l,0.637,Correct!,,,,,,t5.png,t3.png,2,0.056466,36,Female,2020-09-28_11h06.59.469,torte-2b,2020.1.3,MacIntel,60,13319,,,,,0,49,49,114,1,,,,,,,,,,,,,,,,,,,,,,,,,,,,,,,,,,,,,,,,,,,,,,,,,,,,,,,,
,,,,,,,,,,,,a,0.592,Correct!,,,,,,t1.png,t1.png,0,0.978,36,Female,2020-09-28_11h06.59.469,torte-2b,2020.1.3,MacIntel,60,13319,,,,,0,50,50,54,1,,,,,,,,,,,,,,,,,,,,,,,,,,,,,,,,,,,,,,,,,,,,,,,,,,,,,,,,
,,,,,,,,,,,,l,0.941,Incorrect,,,,,,t5.png,t4.png,1,0.90025,36,Female,2020-09-28_11h06.59.469,torte-2b,2020.1.3,MacIntel,60,13319,,,,,0,51,51,34,1,,,,,,,,,,,,,,,,,,,,,,,,,,,,,,,,,,,,,,,,,,,,,,,,,,,,,,,,
,,,,,,,,,,,,a,1.12,Incorrect,,,,,,t5.png,t2.png,3,0.0000131,36,Female,2020-09-28_11h06.59.469,torte-2b,2020.1.3,MacIntel,60,13319,,,,,0,52,52,116,1,,,,,,,,,,,,,,,,,,,,,,,,,,,,,,,,,,,,,,,,,,,,,,,,,,,,,,,,
,,,,,,,,,,,,a,0.973,Correct!,,,,,,t2.png,t2.png,0,0.98115,36,Female,2020-09-28_11h06.59.469,torte-2b,2020.1.3,MacIntel,60,13319,,,,,0,53,53,57,1,,,,,,,,,,,,,,,,,,,,,,,,,,,,,,,,,,,,,,,,,,,,,,,,,,,,,,,,
,,,,,,,,,,,,l,0.688,Correct!,,,,,,t1.png,t5.png,4,9.55E-11,36,Female,2020-09-28_11h06.59.469,torte-2b,2020.1.3,MacIntel,60,13319,,,,,0,54,54,85,1,,,,,,,,,,,,,,,,,,,,,,,,,,,,,,,,,,,,,,,,,,,,,,,,,,,,,,,,
,,,,,,,,,,,,l,0.908,Correct!,,,,,,t5.png,t3.png,2,0.056466,36,Female,2020-09-28_11h06.59.469,torte-2b,2020.1.3,MacIntel,60,13319,,,,,0,55,55,56,1,,,,,,,,,,,,,,,,,,,,,,,,,,,,,,,,,,,,,,,,,,,,,,,,,,,,,,,,
,,,,,,,,,,,,l,1.526,Incorrect,,,,,,t4.png,t5.png,1,0.9,36,Female,2020-09-28_11h06.59.469,torte-2b,2020.1.3,MacIntel,60,13319,,,,,0,56,56,115,1,,,,,,,,,,,,,,,,,,,,,,,,,,,,,,,,,,,,,,,,,,,,,,,,,,,,,,,,
,,,,,,,,,,,,l,0.924,Incorrect,,,,,,t2.png,t3.png,1,0.90855,36,Female,2020-09-28_11h06.59.469,torte-2b,2020.1.3,MacIntel,60,13319,,,,,0,57,57,68,1,,,,,,,,,,,,,,,,,,,,,,,,,,,,,,,,,,,,,,,,,,,,,,,,,,,,,,,,
,,,,,,,,,,,,l,1.143,Incorrect,,,,,,t4.png,t5.png,1,0.90025,36,Female,2020-09-28_11h06.59.469,torte-2b,2020.1.3,MacIntel,60,13319,,,,,0,58,58,58,1,,,,,,,,,,,,,,,,,,,,,,,,,,,,,,,,,,,,,,,,,,,,,,,,,,,,,,,,
,,,,,,,,,,,,l,0.778,Incorrect,,,,,,t5.png,t4.png,1,0.9,36,Female,2020-09-28_11h06.59.469,torte-2b,2020.1.3,MacIntel,60,13319,,,,,0,59,59,49,1,,,,,,,,,,,,,,,,,,,,,,,,,,,,,,,,,,,,,,,,,,,,,,,,,,,,,,,,
,,,,,,,,,,,,a,0.688,Correct!,,,,,,t5.png,t5.png,0,0.97829,36,Female,2020-09-28_11h06.59.469,torte-2b,2020.1.3,MacIntel,60,13319,,,,,0,60,60,70,1,,,,,,,,,,,,,,,,,,,,,,,,,,,,,,,,,,,,,,,,,,,,,,,,,,,,,,,,
,,,,,,,,,,,,l,0.703,Correct!,,,,,,t3.png,t2.png,1,0.90855,36,Female,2020-09-28_11h06.59.469,torte-2b,2020.1.3,MacIntel,60,13319,,,,,0,61,61,97,1,,,,,,,,,,,,,,,,,,,,,,,,,,,,,,,,,,,,,,,,,,,,,,,,,,,,,,,,
,,,,,,,,,,,,l,1.176,Incorrect,,,,,,t2.png,t3.png,1,0.90855,36,Female,2020-09-28_11h06.59.469,torte-2b,2020.1.3,MacIntel,60,13319,,,,,0,62,62,111,1,,,,,,,,,,,,,,,,,,,,,,,,,,,,,,,,,,,,,,,,,,,,,,,,,,,,,,,,
,,,,,,,,,,,,a,0.689,Correct!,,,,,,t2.png,t2.png,0,0.981,36,Female,2020-09-28_11h06.59.469,torte-2b,2020.1.3,MacIntel,60,13319,,,,,0,63,63,101,1,,,,,,,,,,,,,,,,,,,,,,,,,,,,,,,,,,,,,,,,,,,,,,,,,,,,,,,,
,,,,,,,,,,,,l,0.673,Correct!,,,,,,t1.png,t4.png,3,0.0000131,36,Female,2020-09-28_11h06.59.469,torte-2b,2020.1.3,MacIntel,60,13319,,,,,0,64,64,17,1,,,,,,,,,,,,,,,,,,,,,,,,,,,,,,,,,,,,,,,,,,,,,,,,,,,,,,,,
,,,,,,,,,,,,l,0.723,Incorrect,,,,,,t1.png,t2.png,1,0.90025,36,Female,2020-09-28_11h06.59.469,torte-2b,2020.1.3,MacIntel,60,13319,,,,,0,65,65,112,1,,,,,,,,,,,,,,,,,,,,,,,,,,,,,,,,,,,,,,,,,,,,,,,,,,,,,,,,
,,,,,,,,,,,,l,0.656,Incorrect,,,,,,t3.png,t4.png,1,0.90855,36,Female,2020-09-28_11h06.59.469,torte-2b,2020.1.3,MacIntel,60,13319,,,,,0,66,66,96,1,,,,,,,,,,,,,,,,,,,,,,,,,,,,,,,,,,,,,,,,,,,,,,,,,,,,,,,,
,,,,,,,,,,,,l,0.576,Correct!,,,,,,t2.png,t5.png,3,0.0000131,36,Female,2020-09-28_11h06.59.469,torte-2b,2020.1.3,MacIntel,60,13319,,,,,0,67,67,8,1,,,,,,,,,,,,,,,,,,,,,,,,,,,,,,,,,,,,,,,,,,,,,,,,,,,,,,,,
,,,,,,,,,,,,l,0.771,Correct!,,,,,,t1.png,t3.png,2,0.056466,36,Female,2020-09-28_11h06.59.469,torte-2b,2020.1.3,MacIntel,60,13319,,,,,0,68,68,87,1,,,,,,,,,,,,,,,,,,,,,,,,,,,,,,,,,,,,,,,,,,,,,,,,,,,,,,,,
,,,,,,,,,,,,l,0.521,Correct!,,,,,,t1.png,t5.png,4,9.55E-11,36,Female,2020-09-28_11h06.59.469,torte-2b,2020.1.3,MacIntel,60,13319,,,,,0,69,69,55,1,,,,,,,,,,,,,,,,,,,,,,,,,,,,,,,,,,,,,,,,,,,,,,,,,,,,,,,,
,,,,,,,,,,,,l,0.673,Incorrect,,,,,,t1.png,t2.png,1,0.90025,36,Female,2020-09-28_11h06.59.469,torte-2b,2020.1.3,MacIntel,60,13319,,,,,0,70,70,72,1,,,,,,,,,,,,,,,,,,,,,,,,,,,,,,,,,,,,,,,,,,,,,,,,,,,,,,,,
,,,,,,,,,,,,l,0.769,Correct!,,,,,,t5.png,t2.png,3,0.0000131,36,Female,2020-09-28_11h06.59.469,torte-2b,2020.1.3,MacIntel,60,13319,,,,,0,71,71,119,1,,,,,,,,,,,,,,,,,,,,,,,,,,,,,,,,,,,,,,,,,,,,,,,,,,,,,,,,
,,,,,,,,,,,,l,0.572,Correct!,,,,,,t1.png,t5.png,4,9.55E-11,36,Female,2020-09-28_11h06.59.469,torte-2b,2020.1.3,MacIntel,60,13319,,,,,0,72,72,12,1,,,,,,,,,,,,,,,,,,,,,,,,,,,,,,,,,,,,,,,,,,,,,,,,,,,,,,,,
,,,,,,,,,,,,l,0.768,Incorrect,,,,,,t4.png,t3.png,1,0.90855,36,Female,2020-09-28_11h06.59.469,torte-2b,2020.1.3,MacIntel,60,13319,,,,,0,73,73,45,1,,,,,,,,,,,,,,,,,,,,,,,,,,,,,,,,,,,,,,,,,,,,,,,,,,,,,,,,
,,,,,,,,,,,,l,0.891,Incorrect,,,,,,t5.png,t4.png,1,0.90025,36,Female,2020-09-28_11h06.59.469,torte-2b,2020.1.3,MacIntel,60,13319,,,,,0,74,74,26,1,,,,,,,,,,,,,,,,,,,,,,,,,,,,,,,,,,,,,,,,,,,,,,,,,,,,,,,,
,,,,,,,,,,,,a,1.091,Correct!,,,,,,t1.png,t1.png,0,0.97829,36,Female,2020-09-28_11h06.59.469,torte-2b,2020.1.3,MacIntel,60,13319,,,,,0,75,75,78,1,,,,,,,,,,,,,,,,,,,,,,,,,,,,,,,,,,,,,,,,,,,,,,,,,,,,,,,,
,,,,,,,,,,,,l,0.636,Correct!,,,,,,t3.png,t5.png,2,0.056466,36,Female,2020-09-28_11h06.59.469,torte-2b,2020.1.3,MacIntel,60,13319,,,,,0,76,76,6,1,,,,,,,,,,,,,,,,,,,,,,,,,,,,,,,,,,,,,,,,,,,,,,,,,,,,,,,,
,,,,,,,,,,,,l,0.886,Incorrect,,,,,,t4.png,t4.png,0,0.98115,36,Female,2020-09-28_11h06.59.469,torte-2b,2020.1.3,MacIntel,60,13319,,,,,0,77,77,90,1,,,,,,,,,,,,,,,,,,,,,,,,,,,,,,,,,,,,,,,,,,,,,,,,,,,,,,,,
,,,,,,,,,,,,l,0.702,Correct!,,,,,,t5.png,t2.png,3,0.0000131,36,Female,2020-09-28_11h06.59.469,torte-2b,2020.1.3,MacIntel,60,13319,,,,,0,78,78,51,1,,,,,,,,,,,,,,,,,,,,,,,,,,,,,,,,,,,,,,,,,,,,,,,,,,,,,,,,
,,,,,,,,,,,,l,0.66,Correct!,,,,,,t3.png,t1.png,2,0.056466,36,Female,2020-09-28_11h06.59.469,torte-2b,2020.1.3,MacIntel,60,13319,,,,,0,79,79,32,1,,,,,,,,,,,,,,,,,,,,,,,,,,,,,,,,,,,,,,,,,,,,,,,,,,,,,,,,
,,,,,,,,,,,,l,0.675,Correct!,,,,,,t2.png,t5.png,3,0.0000131,36,Female,2020-09-28_11h06.59.469,torte-2b,2020.1.3,MacIntel,60,13319,,,,,0,80,80,66,1,,,,,,,,,,,,,,,,,,,,,,,,,,,,,,,,,,,,,,,,,,,,,,,,,,,,,,,,
,,,,,,,,,,,,l,0.793,Correct!,,,,,,t4.png,t1.png,3,0.0000131,36,Female,2020-09-28_11h06.59.469,torte-2b,2020.1.3,MacIntel,60,13319,,,,,0,81,81,13,1,,,,,,,,,,,,,,,,,,,,,,,,,,,,,,,,,,,,,,,,,,,,,,,,,,,,,,,,
,,,,,,,,,,,,l,0.824,Correct!,,,,,,t2.png,t4.png,2,0.0591,36,Female,2020-09-28_11h06.59.469,torte-2b,2020.1.3,MacIntel,60,13319,,,,,0,82,82,15,1,,,,,,,,,,,,,,,,,,,,,,,,,,,,,,,,,,,,,,,,,,,,,,,,,,,,,,,,
,,,,,,,,,,,,l,0.674,Incorrect,,,,,,t4.png,t3.png,1,0.909,36,Female,2020-09-28_11h06.59.469,torte-2b,2020.1.3,MacIntel,60,13319,,,,,0,83,83,46,1,,,,,,,,,,,,,,,,,,,,,,,,,,,,,,,,,,,,,,,,,,,,,,,,,,,,,,,,
,,,,,,,,,,,,l,1.311,Correct!,,,,,,t4.png,t2.png,2,0.059078,36,Female,2020-09-28_11h06.59.469,torte-2b,2020.1.3,MacIntel,60,13319,,,,,0,84,84,86,1,,,,,,,,,,,,,,,,,,,,,,,,,,,,,,,,,,,,,,,,,,,,,,,,,,,,,,,,
,,,,,,,,,,,,l,0.64,Correct!,,,,,,t1.png,t4.png,3,0.0000131,36,Female,2020-09-28_11h06.59.469,torte-2b,2020.1.3,MacIntel,60,13319,,,,,0,85,85,50,1,,,,,,,,,,,,,,,,,,,,,,,,,,,,,,,,,,,,,,,,,,,,,,,,,,,,,,,,
,,,,,,,,,,,,l,0.672,Incorrect,,,,,,t1.png,t2.png,1,0.9,36,Female,2020-09-28_11h06.59.469,torte-2b,2020.1.3,MacIntel,60,13319,,,,,0,86,86,1,1,,,,,,,,,,,,,,,,,,,,,,,,,,,,,,,,,,,,,,,,,,,,,,,,,,,,,,,,
,,,,,,,,,,,,l,0.624,Correct!,,,,,,t5.png,t2.png,3,0.0000131,36,Female,2020-09-28_11h06.59.469,torte-2b,2020.1.3,MacIntel,60,13319,,,,,0,87,87,98,1,,,,,,,,,,,,,,,,,,,,,,,,,,,,,,,,,,,,,,,,,,,,,,,,,,,,,,,,
,,,,,,,,,,,,l,0.991,Incorrect,,,,,,t4.png,t5.png,1,0.90025,36,Female,2020-09-28_11h06.59.469,torte-2b,2020.1.3,MacIntel,60,13319,,,,,0,88,88,103,1,,,,,,,,,,,,,,,,,,,,,,,,,,,,,,,,,,,,,,,,,,,,,,,,,,,,,,,,
,,,,,,,,,,,,a,0.755,Correct!,,,,,,t5.png,t5.png,0,0.97829,36,Female,2020-09-28_11h06.59.469,torte-2b,2020.1.3,MacIntel,60,13319,,,,,0,89,89,25,1,,,,,,,,,,,,,,,,,,,,,,,,,,,,,,,,,,,,,,,,,,,,,,,,,,,,,,,,
,,,,,,,,,,,,l,0.759,Correct!,,,,,,t3.png,t1.png,2,0.056466,36,Female,2020-09-28_11h06.59.469,torte-2b,2020.1.3,MacIntel,60,13319,,,,,0,90,90,64,1,,,,,,,,,,,,,,,,,,,,,,,,,,,,,,,,,,,,,,,,,,,,,,,,,,,,,,,,
,,,,,,,,,,,,l,0.826,Incorrect,,,,,,t3.png,t4.png,1,0.909,36,Female,2020-09-28_11h06.59.469,torte-2b,2020.1.3,MacIntel,60,13319,,,,,0,91,91,89,1,,,,,,,,,,,,,,,,,,,,,,,,,,,,,,,,,,,,,,,,,,,,,,,,,,,,,,,,
,,,,,,,,,,,,l,0.688,Correct!,,,,,,t5.png,t1.png,4,9.55E-11,36,Female,2020-09-28_11h06.59.469,torte-2b,2020.1.3,MacIntel,60,13319,,,,,0,92,92,43,1,,,,,,,,,,,,,,,,,,,,,,,,,,,,,,,,,,,,,,,,,,,,,,,,,,,,,,,,
,,,,,,,,,,,,l,0.635,Correct!,,,,,,t3.png,t1.png,2,0.056466,36,Female,2020-09-28_11h06.59.469,torte-2b,2020.1.3,MacIntel,60,13319,,,,,0,93,93,29,1,,,,,,,,,,,,,,,,,,,,,,,,,,,,,,,,,,,,,,,,,,,,,,,,,,,,,,,,
,,,,,,,,,,,,l,0.796,Correct!,,,,,,t3.png,t1.png,2,0.056466,36,Female,2020-09-28_11h06.59.469,torte-2b,2020.1.3,MacIntel,60,13319,,,,,0,94,94,0,1,,,,,,,,,,,,,,,,,,,,,,,,,,,,,,,,,,,,,,,,,,,,,,,,,,,,,,,,
,,,,,,,,,,,,l,0.793,Correct!,,,,,,t5.png,t3.png,2,0.056466,36,Female,2020-09-28_11h06.59.469,torte-2b,2020.1.3,MacIntel,60,13319,,,,,0,95,95,38,1,,,,,,,,,,,,,,,,,,,,,,,,,,,,,,,,,,,,,,,,,,,,,,,,,,,,,,,,
,,,,,,,,,,,,l,1.109,Correct!,,,,,,t1.png,t3.png,2,0.056466,36,Female,2020-09-28_11h06.59.469,torte-2b,2020.1.3,MacIntel,60,13319,,,,,0,96,96,60,1,,,,,,,,,,,,,,,,,,,,,,,,,,,,,,,,,,,,,,,,,,,,,,,,,,,,,,,,
,,,,,,,,,,,,l,0.806,Correct!,,,,,,t4.png,t2.png,2,0.059078,36,Female,2020-09-28_11h06.59.469,torte-2b,2020.1.3,MacIntel,60,13319,,,,,0,97,97,110,1,,,,,,,,,,,,,,,,,,,,,,,,,,,,,,,,,,,,,,,,,,,,,,,,,,,,,,,,
,,,,,,,,,,,,l,1.959,Correct!,,,,,,t1.png,t3.png,2,0.056466,36,Female,2020-09-28_11h06.59.469,torte-2b,2020.1.3,MacIntel,60,13319,,,,,0,98,98,69,1,,,,,,,,,,,,,,,,,,,,,,,,,,,,,,,,,,,,,,,,,,,,,,,,,,,,,,,,
,,,,,,,,,,,,l,0.572,Correct!,,,,,,t2.png,t4.png,2,0.059078,36,Female,2020-09-28_11h06.59.469,torte-2b,2020.1.3,MacIntel,60,13319,,,,,0,99,99,11,1,,,,,,,,,,,,,,,,,,,,,,,,,,,,,,,,,,,,,,,,,,,,,,,,,,,,,,,,
,,,,,,,,,,,,l,0.856,Correct!,,,,,,t3.png,t5.png,2,0.0565,36,Female,2020-09-28_11h06.59.469,torte-2b,2020.1.3,MacIntel,60,13319,,,,,0,100,100,30,1,,,,,,,,,,,,,,,,,,,,,,,,,,,,,,,,,,,,,,,,,,,,,,,,,,,,,,,,
,,,,,,,,,,,,l,0.708,Incorrect,,,,,,t2.png,t1.png,1,0.9,36,Female,2020-09-28_11h06.59.469,torte-2b,2020.1.3,MacIntel,60,13319,,,,,0,101,101,118,1,,,,,,,,,,,,,,,,,,,,,,,,,,,,,,,,,,,,,,,,,,,,,,,,,,,,,,,,
,,,,,,,,,,,,l,0.673,Incorrect,,,,,,t3.png,t4.png,1,0.90855,36,Female,2020-09-28_11h06.59.469,torte-2b,2020.1.3,MacIntel,60,13319,,,,,0,102,102,84,1,,,,,,,,,,,,,,,,,,,,,,,,,,,,,,,,,,,,,,,,,,,,,,,,,,,,,,,,
,,,,,,,,,,,,l,0.759,Incorrect,,,,,,t3.png,t2.png,1,0.909,36,Female,2020-09-28_11h06.59.469,torte-2b,2020.1.3,MacIntel,60,13319,,,,,0,103,103,23,1,,,,,,,,,,,,,,,,,,,,,,,,,,,,,,,,,,,,,,,,,,,,,,,,,,,,,,,,
,,,,,,,,,,,,a,1.16,Correct!,,,,,,t4.png,t4.png,0,0.98115,36,Female,2020-09-28_11h06.59.469,torte-2b,2020.1.3,MacIntel,60,13319,,,,,0,104,104,80,1,,,,,,,,,,,,,,,,,,,,,,,,,,,,,,,,,,,,,,,,,,,,,,,,,,,,,,,,
,,,,,,,,,,,,a,0.637,Correct!,,,,,,t5.png,t5.png,0,0.97829,36,Female,2020-09-28_11h06.59.469,torte-2b,2020.1.3,MacIntel,60,13319,,,,,0,105,105,73,1,,,,,,,,,,,,,,,,,,,,,,,,,,,,,,,,,,,,,,,,,,,,,,,,,,,,,,,,
,,,,,,,,,,,,l,0.723,Incorrect,,,,,,t3.png,t4.png,1,0.909,36,Female,2020-09-28_11h06.59.469,torte-2b,2020.1.3,MacIntel,60,13319,,,,,0,106,106,106,1,,,,,,,,,,,,,,,,,,,,,,,,,,,,,,,,,,,,,,,,,,,,,,,,,,,,,,,,
,,,,,,,,,,,,l,0.639,Incorrect,,,,,,t3.png,t4.png,1,0.909,36,Female,2020-09-28_11h06.59.469,torte-2b,2020.1.3,MacIntel,60,13319,,,,,0,107,107,82,1,,,,,,,,,,,,,,,,,,,,,,,,,,,,,,,,,,,,,,,,,,,,,,,,,,,,,,,,
,,,,,,,,,,,,l,1.041,Incorrect,,,,,,t4.png,t3.png,1,0.90855,36,Female,2020-09-28_11h06.59.469,torte-2b,2020.1.3,MacIntel,60,13319,,,,,0,108,108,75,1,,,,,,,,,,,,,,,,,,,,,,,,,,,,,,,,,,,,,,,,,,,,,,,,,,,,,,,,
,,,,,,,,,,,,a,0.806,Correct!,,,,,,t4.png,t4.png,0,0.98115,36,Female,2020-09-28_11h06.59.469,torte-2b,2020.1.3,MacIntel,60,13319,,,,,0,109,109,52,1,,,,,,,,,,,,,,,,,,,,,,,,,,,,,,,,,,,,,,,,,,,,,,,,,,,,,,,,
,,,,,,,,,,,,l,0.688,Correct!,,,,,,t4.png,t2.png,2,0.059078,36,Female,2020-09-28_11h06.59.469,torte-2b,2020.1.3,MacIntel,60,13319,,,,,0,110,110,109,1,,,,,,,,,,,,,,,,,,,,,,,,,,,,,,,,,,,,,,,,,,,,,,,,,,,,,,,,
,,,,,,,,,,,,a,0.725,Correct!,,,,,,t1.png,t1.png,0,0.978,36,Female,2020-09-28_11h06.59.469,torte-2b,2020.1.3,MacIntel,60,13319,,,,,0,111,111,28,1,,,,,,,,,,,,,,,,,,,,,,,,,,,,,,,,,,,,,,,,,,,,,,,,,,,,,,,,
,,,,,,,,,,,,l,0.806,Correct!,,,,,,t3.png,t1.png,2,0.0565,36,Female,2020-09-28_11h06.59.469,torte-2b,2020.1.3,MacIntel,60,13319,,,,,0,112,112,31,1,,,,,,,,,,,,,,,,,,,,,,,,,,,,,,,,,,,,,,,,,,,,,,,,,,,,,,,,
,,,,,,,,,,,,l,0.773,Correct!,,,,,,t1.png,t4.png,3,0.0000131,36,Female,2020-09-28_11h06.59.469,torte-2b,2020.1.3,MacIntel,60,13319,,,,,0,113,113,81,1,,,,,,,,,,,,,,,,,,,,,,,,,,,,,,,,,,,,,,,,,,,,,,,,,,,,,,,,
,,,,,,,,,,,,,,Too slow :(,,,,,,t3.png,t5.png,2,0.0565,36,Female,2020-09-28_11h06.59.469,torte-2b,2020.1.3,MacIntel,60,13319,,,,,0,114,114,83,1,,,,,,,,,,,,,,,,,,,,,,,,,,,,,,,,,,,,,,,,,,,,,,,,,,,,,,,,
,,,,,,,,,,,,l,0.909,Correct!,,,,,,t4.png,t2.png,2,0.0591,36,Female,2020-09-28_11h06.59.469,torte-2b,2020.1.3,MacIntel,60,13319,,,,,0,115,115,36,1,,,,,,,,,,,,,,,,,,,,,,,,,,,,,,,,,,,,,,,,,,,,,,,,,,,,,,,,
,,,,,,,,,,,,a,2.346,Incorrect,,,,,,t2.png,t5.png,3,0.0000131,36,Female,2020-09-28_11h06.59.469,torte-2b,2020.1.3,MacIntel,60,13319,,,,,0,116,116,104,1,,,,,,,,,,,,,,,,,,,,,,,,,,,,,,,,,,,,,,,,,,,,,,,,,,,,,,,,
,,,,,,,,,,,,,,Too slow :(,,,,,,t4.png,t1.png,3,0.0000131,36,Female,2020-09-28_11h06.59.469,torte-2b,2020.1.3,MacIntel,60,13319,,,,,0,117,117,42,1,,,,,,,,,,,,,,,,,,,,,,,,,,,,,,,,,,,,,,,,,,,,,,,,,,,,,,,,
,,,,,,,,,,,,l,1.845,Incorrect,,,,,,t5.png,t4.png,1,0.9,36,Female,2020-09-28_11h06.59.469,torte-2b,2020.1.3,MacIntel,60,13319,,,,,0,118,118,76,1,,,,,,,,,,,,,,,,,,,,,,,,,,,,,,,,,,,,,,,,,,,,,,,,,,,,,,,,
,,,,,,,,,,,,l,0.907,Incorrect,,,,,,t2.png,t3.png,1,0.909,36,Female,2020-09-28_11h06.59.469,torte-2b,2020.1.3,MacIntel,60,13319,,,,,0,119,119,74,1,,,,,,,,,,,,,,,,,,,,,,,,,,,,,,,,,,,,,,,,,,,,,,,,,,,,,,,,
,,,,,,,,,,,,,,,,,,,,,,,,36,Female,2020-09-28_11h06.59.469,torte-2b,2020.1.3,MacIntel,60,13319,space,1.776,,,,,,,,space,37.922,,0,0,0,0,1,6,,,,,,,,,,,,,,,,,,,,,,,,,,,,,,,,,,,,,,,,,,,,,,,
,,,,,,,,,,,,,,,,,,,,,,,,36,Female,2020-09-28_11h06.59.469,torte-2b,2020.1.3,MacIntel,60,13319,,,,,,,,,,,,,0,1,1,1,1,7,,,,,,,,,,,,,,,,,,,,,,,,,,,,,,,,,,,,,,,,,,,,,,,
,,,,,,,,,,,,,,,,,,,,,,,,36,Female,2020-09-28_11h06.59.469,torte-2b,2020.1.3,MacIntel,60,13319,,,,,,,,,,,,space,0,2,2,2,1,6,0.37,,,,,,,,,,,,,,,,,,,,,,,,,,,,,,,,,,,,,,,,,,,,,,
,,,,,,,,,,,,,,,,,,,,,,,,36,Female,2020-09-28_11h06.59.469,torte-2b,2020.1.3,MacIntel,60,13319,,,,,,,,,,,,,0,3,3,3,1,7,,,,,,,,,,,,,,,,,,,,,,,,,,,,,,,,,,,,,,,,,,,,,,,
,,,,,,,,,,,,,,,,,,,,,,,,36,Female,2020-09-28_11h06.59.469,torte-2b,2020.1.3,MacIntel,60,13319,,,,,,,,,,,,,0,4,4,4,1,5,,,,,,,,,,,,,,,,,,,,,,,,,,,,,,,,,,,,,,,,,,,,,,,
,,,,,,,,,,,,,,,,,,,,,,,,36,Female,2020-09-28_11h06.59.469,torte-2b,2020.1.3,MacIntel,60,13319,,,,,,,,,,,,space,0,5,5,5,1,7,0.408,,,,,,,,,,,,,,,,,,,,,,,,,,,,,,,,,,,,,,,,,,,,,,
,,,,,,,,,,,,,,,,,,,,,,,,36,Female,2020-09-28_11h06.59.469,torte-2b,2020.1.3,MacIntel,60,13319,,,,,,,,,,,,,0,6,6,6,1,2,,,,,,,,,,,,,,,,,,,,,,,,,,,,,,,,,,,,,,,,,,,,,,,
,,,,,,,,,,,,,,,,,,,,,,,,36,Female,2020-09-28_11h06.59.469,torte-2b,2020.1.3,MacIntel,60,13319,,,,,,,,,,,,,0,7,7,7,1,4,,,,,,,,,,,,,,,,,,,,,,,,,,,,,,,,,,,,,,,,,,,,,,,
,,,,,,,,,,,,,,,,,,,,,,,,36,Female,2020-09-28_11h06.59.469,torte-2b,2020.1.3,MacIntel,60,13319,,,,,,,,,,,,,0,8,8,8,1,7,,,,,,,,,,,,,,,,,,,,,,,,,,,,,,,,,,,,,,,,,,,,,,,
,,,,,,,,,,,,,,,,,,,,,,,,36,Female,2020-09-28_11h06.59.469,torte-2b,2020.1.3,MacIntel,60,13319,,,,,,,,,,,,space,0,9,9,9,1,4,0.893,,,,,,,,,,,,,,,,,,,,,,,,,,,,,,,,,,,,,,,,,,,,,,
,,,,,,,,,,,,,,,,,,,,,,,,36,Female,2020-09-28_11h06.59.469,torte-2b,2020.1.3,MacIntel,60,13319,,,,,,,,,,,,,0,10,10,10,1,7,,,,,,,,,,,,,,,,,,,,,,,,,,,,,,,,,,,,,,,,,,,,,,,
,,,,,,,,,,,,,,,,,,,,,,,,36,Female,2020-09-28_11h06.59.469,torte-2b,2020.1.3,MacIntel,60,13319,,,,,,,,,,,,,0,11,11,11,1,7,,,,,,,,,,,,,,,,,,,,,,,,,,,,,,,,,,,,,,,,,,,,,,,
,,,,,,,,,,,,,,,,,,,,,,,,36,Female,2020-09-28_11h06.59.469,torte-2b,2020.1.3,MacIntel,60,13319,,,,,,,,,,,,space,0,12,12,12,1,7,0.805,,,,,,,,,,,,,,,,,,,,,,,,,,,,,,,,,,,,,,,,,,,,,,
,,,,,,,,,,,,,,,,,,,,,,,,36,Female,2020-09-28_11h06.59.469,torte-2b,2020.1.3,MacIntel,60,13319,,,,,,,,,,,,space,0,13,13,13,1,4,1.021,,,,,,,,,,,,,,,,,,,,,,,,,,,,,,,,,,,,,,,,,,,,,,
,,,,,,,,,,,,,,,,,,,,,,,,36,Female,2020-09-28_11h06.59.469,torte-2b,2020.1.3,MacIntel,60,13319,,,,,,,,,,,,,0,14,14,14,1,6,,,,,,,,,,,,,,,,,,,,,,,,,,,,,,,,,,,,,,,,,,,,,,,
,,,,,,,,,,,,,,,,,,,,,,,,36,Female,2020-09-28_11h06.59.469,torte-2b,2020.1.3,MacIntel,60,13319,,,,,,,,,,,,,0,15,15,15,1,4,,,,,,,,,,,,,,,,,,,,,,,,,,,,,,,,,,,,,,,,,,,,,,,
,,,,,,,,,,,,,,,,,,,,,,,,36,Female,2020-09-28_11h06.59.469,torte-2b,2020.1.3,MacIntel,60,13319,,,,,,,,,,,,space,0,16,16,16,1,6,0.675,,,,,,,,,,,,,,,,,,,,,,,,,,,,,,,,,,,,,,,,,,,,,,
,,,,,,,,,,,,,,,,,,,,,,,,36,Female,2020-09-28_11h06.59.469,torte-2b,2020.1.3,MacIntel,60,13319,,,,,,,,,,,,,0,17,17,17,1,7,,,,,,,,,,,,,,,,,,,,,,,,,,,,,,,,,,,,,,,,,,,,,,,
,,,,,,,,,,,,,,,,,,,,,,,,36,Female,2020-09-28_11h06.59.469,torte-2b,2020.1.3,MacIntel,60,13319,,,,,,,,,,,,space,0,18,18,18,1,6,1.09,,,,,,,,,,,,,,,,,,,,,,,,,,,,,,,,,,,,,,,,,,,,,,
,,,,,,,,,,,,,,,,,,,,,,,,36,Female,2020-09-28_11h06.59.469,torte-2b,2020.1.3,MacIntel,60,13319,,,,,,,,,,,,,0,19,19,19,1,7,,,,,,,,,,,,,,,,,,,,,,,,,,,,,,,,,,,,,,,,,,,,,,,
,,,,,,,,,,,,,,,,,,,,,,,,36,Female,2020-09-28_11h06.59.469,torte-2b,2020.1.3,MacIntel,60,13319,,,,,,,,,,,,,0,20,20,20,1,5,,,,,,,,,,,,,,,,,,,,,,,,,,,,,,,,,,,,,,,,,,,,,,,
,,,,,,,,,,,,,,,,,,,,,,,,36,Female,2020-09-28_11h06.59.469,torte-2b,2020.1.3,MacIntel,60,13319,,,,,,,,,,,,,0,21,21,21,1,1,,,,,,,,,,,,,,,,,,,,,,,,,,,,,,,,,,,,,,,,,,,,,,,
,,,,,,,,,,,,,,,,,,,,,,,,36,Female,2020-09-28_11h06.59.469,torte-2b,2020.1.3,MacIntel,60,13319,,,,,,,,,,,,,0,22,22,22,1,6,,,,,,,,,,,,,,,,,,,,,,,,,,,,,,,,,,,,,,,,,,,,,,,
,,,,,,,,,,,,,,,,,,,,,,,,36,Female,2020-09-28_11h06.59.469,torte-2b,2020.1.3,MacIntel,60,13319,,,,,,,,,,,,space,0,23,23,23,1,1,0.856,,,,,,,,,,,,,,,,,,,,,,,,,,,,,,,,,,,,,,,,,,,,,,
,,,,,,,,,,,,,,,,,,,,,,,,36,Female,2020-09-28_11h06.59.469,torte-2b,2020.1.3,MacIntel,60,13319,,,,,,,,,,,,space,0,24,24,24,1,5,0.923,,,,,,,,,,,,,,,,,,,,,,,,,,,,,,,,,,,,,,,,,,,,,,
,,,,,,,,,,,,,,,,,,,,,,,,36,Female,2020-09-28_11h06.59.469,torte-2b,2020.1.3,MacIntel,60,13319,,,,,,,,,,,,,0,25,25,25,1,6,,,,,,,,,,,,,,,,,,,,,,,,,,,,,,,,,,,,,,,,,,,,,,,
,,,,,,,,,,,,,,,,,,,,,,,,36,Female,2020-09-28_11h06.59.469,torte-2b,2020.1.3,MacIntel,60,13319,,,,,,,,,,,,,0,26,26,26,1,6,,,,,,,,,,,,,,,,,,,,,,,,,,,,,,,,,,,,,,,,,,,,,,,
,,,,,,,,,,,,,,,,,,,,,,,,36,Female,2020-09-28_11h06.59.469,torte-2b,2020.1.3,MacIntel,60,13319,,,,,,,,,,,,space,0,27,27,27,1,6,0.493,,,,,,,,,,,,,,,,,,,,,,,,,,,,,,,,,,,,,,,,,,,,,,
,,,,,,,,,,,,,,,,,,,,,,,,36,Female,2020-09-28_11h06.59.469,torte-2b,2020.1.3,MacIntel,60,13319,,,,,,,,,,,,,0,28,28,28,1,5,,,,,,,,,,,,,,,,,,,,,,,,,,,,,,,,,,,,,,,,,,,,,,,
,,,,,,,,,,,,,,,,,,,,,,,,36,Female,2020-09-28_11h06.59.469,torte-2b,2020.1.3,MacIntel,60,13319,,,,,,,,,,,,,0,29,29,29,1,2,,,,,,,,,,,,,,,,,,,,,,,,,,,,,,,,,,,,,,,,,,,,,,,
,,,,,,,,,,,,,,,,,,,,,,,,36,Female,2020-09-28_11h06.59.469,torte-2b,2020.1.3,MacIntel,60,13319,,,,,,,,,,,,space,0,30,30,30,1,5,0.808,,,,,,,,,,,,,,,,,,,,,,,,,,,,,,,,,,,,,,,,,,,,,,
,,,,,,,,,,,,,,,,,,,,,,,,36,Female,2020-09-28_11h06.59.469,torte-2b,2020.1.3,MacIntel,60,13319,,,,,,,,,,,,,0,31,31,31,1,2,,,,,,,,,,,,,,,,,,,,,,,,,,,,,,,,,,,,,,,,,,,,,,,
,,,,,,,,,,,,,,,,,,,,,,,,36,Female,2020-09-28_11h06.59.469,torte-2b,2020.1.3,MacIntel,60,13319,,,,,,,,,,,,space,0,32,32,32,1,5,0.488,,,,,,,,,,,,,,,,,,,,,,,,,,,,,,,,,,,,,,,,,,,,,,
,,,,,,,,,,,,,,,,,,,,,,,,36,Female,2020-09-28_11h06.59.469,torte-2b,2020.1.3,MacIntel,60,13319,,,,,,,,,,,,,0,33,33,33,1,1,,,,,,,,,,,,,,,,,,,,,,,,,,,,,,,,,,,,,,,,,,,,,,,
,,,,,,,,,,,,,,,,,,,,,,,,36,Female,2020-09-28_11h06.59.469,torte-2b,2020.1.3,MacIntel,60,13319,,,,,,,,,,,,,0,34,34,34,1,1,,,,,,,,,,,,,,,,,,,,,,,,,,,,,,,,,,,,,,,,,,,,,,,
,,,,,,,,,,,,,,,,,,,,,,,,36,Female,2020-09-28_11h06.59.469,torte-2b,2020.1.3,MacIntel,60,13319,,,,,,,,,,,,,,,,,,2,,0,0,0,0,1,,,,,,,,,,,,,,,,,,,,,,,,,,,,,,,,,,,,,,,,,
,,,,,,,,,,,,,,,,,,,,,,,,36,Female,2020-09-28_11h06.59.469,torte-2b,2020.1.3,MacIntel,60,13319,,,,,,,,,,,,,,,,,,2,,0,1,1,1,1,,,,,,,,,,,,,,,,,,,,,,,,,,,,,,,,,,,,,,,,,
,,,,,,,,,,,,,,,,,,,,,,,,36,Female,2020-09-28_11h06.59.469,torte-2b,2020.1.3,MacIntel,60,13319,,,,,,,,,,,,,,,,,,6,,0,2,2,2,1,,,,,,,,,,,,,,,,,,,,,,,,,,,,,,,,,,,,,,,,,
,,,,,,,,,,,,,,,,,,,,,,,,36,Female,2020-09-28_11h06.59.469,torte-2b,2020.1.3,MacIntel,60,13319,,,,,,,,,,,,space,,,,,,2,0.787,0,3,3,3,1,,,,,,,,,,,,,,,,,,,,,,,,,,,,,,,,,,,,,,,,,
,,,,,,,,,,,,,,,,,,,,,,,,36,Female,2020-09-28_11h06.59.469,torte-2b,2020.1.3,MacIntel,60,13319,,,,,,,,,,,,space,,,,,,6,0.907,0,4,4,4,1,,,,,,,,,,,,,,,,,,,,,,,,,,,,,,,,,,,,,,,,,
,,,,,,,,,,,,,,,,,,,,,,,,36,Female,2020-09-28_11h06.59.469,torte-2b,2020.1.3,MacIntel,60,13319,,,,,,,,,,,,space,,,,,,2,1.042,0,5,5,5,1,,,,,,,,,,,,,,,,,,,,,,,,,,,,,,,,,,,,,,,,,
,,,,,,,,,,,,,,,,,,,,,,,,36,Female,2020-09-28_11h06.59.469,torte-2b,2020.1.3,MacIntel,60,13319,,,,,,,,,,,,,,,,,,7,,0,6,6,6,1,,,,,,,,,,,,,,,,,,,,,,,,,,,,,,,,,,,,,,,,,
,,,,,,,,,,,,,,,,,,,,,,,,36,Female,2020-09-28_11h06.59.469,torte-2b,2020.1.3,MacIntel,60,13319,,,,,,,,,,,,,,,,,,2,,0,7,7,7,1,,,,,,,,,,,,,,,,,,,,,,,,,,,,,,,,,,,,,,,,,
,,,,,,,,,,,,,,,,,,,,,,,,36,Female,2020-09-28_11h06.59.469,torte-2b,2020.1.3,MacIntel,60,13319,,,,,,,,,,,,space,,,,,,7,0.86,0,8,8,8,1,,,,,,,,,,,,,,,,,,,,,,,,,,,,,,,,,,,,,,,,,
,,,,,,,,,,,,,,,,,,,,,,,,36,Female,2020-09-28_11h06.59.469,torte-2b,2020.1.3,MacIntel,60,13319,,,,,,,,,,,,space,,,,,,2,0.788,0,9,9,9,1,,,,,,,,,,,,,,,,,,,,,,,,,,,,,,,,,,,,,,,,,
,,,,,,,,,,,,,,,,,,,,,,,,36,Female,2020-09-28_11h06.59.469,torte-2b,2020.1.3,MacIntel,60,13319,,,,,,,,,,,,,,,,,,5,,0,10,10,10,1,,,,,,,,,,,,,,,,,,,,,,,,,,,,,,,,,,,,,,,,,
,,,,,,,,,,,,,,,,,,,,,,,,36,Female,2020-09-28_11h06.59.469,torte-2b,2020.1.3,MacIntel,60,13319,,,,,,,,,,,,,,,,,,4,,0,11,11,11,1,,,,,,,,,,,,,,,,,,,,,,,,,,,,,,,,,,,,,,,,,
,,,,,,,,,,,,,,,,,,,,,,,,36,Female,2020-09-28_11h06.59.469,torte-2b,2020.1.3,MacIntel,60,13319,,,,,,,,,,,,,,,,,,5,,0,12,12,12,1,,,,,,,,,,,,,,,,,,,,,,,,,,,,,,,,,,,,,,,,,
,,,,,,,,,,,,,,,,,,,,,,,,36,Female,2020-09-28_11h06.59.469,torte-2b,2020.1.3,MacIntel,60,13319,,,,,,,,,,,,,,,,,,6,,0,13,13,13,1,,,,,,,,,,,,,,,,,,,,,,,,,,,,,,,,,,,,,,,,,
,,,,,,,,,,,,,,,,,,,,,,,,36,Female,2020-09-28_11h06.59.469,torte-2b,2020.1.3,MacIntel,60,13319,,,,,,,,,,,,space,,,,,,5,0.771,0,14,14,14,1,,,,,,,,,,,,,,,,,,,,,,,,,,,,,,,,,,,,,,,,,
,,,,,,,,,,,,,,,,,,,,,,,,36,Female,2020-09-28_11h06.59.469,torte-2b,2020.1.3,MacIntel,60,13319,,,,,,,,,,,,,,,,,,4,,0,15,15,15,1,,,,,,,,,,,,,,,,,,,,,,,,,,,,,,,,,,,,,,,,,
,,,,,,,,,,,,,,,,,,,,,,,,36,Female,2020-09-28_11h06.59.469,torte-2b,2020.1.3,MacIntel,60,13319,,,,,,,,,,,,space,,,,,,5,0.803,0,16,16,16,1,,,,,,,,,,,,,,,,,,,,,,,,,,,,,,,,,,,,,,,,,
,,,,,,,,,,,,,,,,,,,,,,,,36,Female,2020-09-28_11h06.59.469,torte-2b,2020.1.3,MacIntel,60,13319,,,,,,,,,,,,,,,,,,3,,0,17,17,17,1,,,,,,,,,,,,,,,,,,,,,,,,,,,,,,,,,,,,,,,,,
,,,,,,,,,,,,,,,,,,,,,,,,36,Female,2020-09-28_11h06.59.469,torte-2b,2020.1.3,MacIntel,60,13319,,,,,,,,,,,,space,,,,,,6,0.558,0,18,18,18,1,,,,,,,,,,,,,,,,,,,,,,,,,,,,,,,,,,,,,,,,,
,,,,,,,,,,,,,,,,,,,,,,,,36,Female,2020-09-28_11h06.59.469,torte-2b,2020.1.3,MacIntel,60,13319,,,,,,,,,,,,,,,,,,6,,0,19,19,19,1,,,,,,,,,,,,,,,,,,,,,,,,,,,,,,,,,,,,,,,,,
,,,,,,,,,,,,,,,,,,,,,,,,36,Female,2020-09-28_11h06.59.469,torte-2b,2020.1.3,MacIntel,60,13319,,,,,,,,,,,,space,,,,,,6,0.454,0,20,20,20,1,,,,,,,,,,,,,,,,,,,,,,,,,,,,,,,,,,,,,,,,,
,,,,,,,,,,,,,,,,,,,,,,,,36,Female,2020-09-28_11h06.59.469,torte-2b,2020.1.3,MacIntel,60,13319,,,,,,,,,,,,,,,,,,4,,0,21,21,21,1,,,,,,,,,,,,,,,,,,,,,,,,,,,,,,,,,,,,,,,,,
,,,,,,,,,,,,,,,,,,,,,,,,36,Female,2020-09-28_11h06.59.469,torte-2b,2020.1.3,MacIntel,60,13319,,,,,,,,,,,,space,,,,,,6,0.505,0,22,22,22,1,,,,,,,,,,,,,,,,,,,,,,,,,,,,,,,,,,,,,,,,,
,,,,,,,,,,,,,,,,,,,,,,,,36,Female,2020-09-28_11h06.59.469,torte-2b,2020.1.3,MacIntel,60,13319,,,,,,,,,,,,space,,,,,,4,0.806,0,23,23,23,1,,,,,,,,,,,,,,,,,,,,,,,,,,,,,,,,,,,,,,,,,
,,,,,,,,,,,,,,,,,,,,,,,,36,Female,2020-09-28_11h06.59.469,torte-2b,2020.1.3,MacIntel,60,13319,,,,,,,,,,,,space,,,,,,6,0.623,0,24,24,24,1,,,,,,,,,,,,,,,,,,,,,,,,,,,,,,,,,,,,,,,,,
,,,,,,,,,,,,,,,,,,,,,,,,36,Female,2020-09-28_11h06.59.469,torte-2b,2020.1.3,MacIntel,60,13319,,,,,,,,,,,,,,,,,,6,,0,25,25,25,1,,,,,,,,,,,,,,,,,,,,,,,,,,,,,,,,,,,,,,,,,
,,,,,,,,,,,,,,,,,,,,,,,,36,Female,2020-09-28_11h06.59.469,torte-2b,2020.1.3,MacIntel,60,13319,,,,,,,,,,,,,,,,,,7,,0,26,26,26,1,,,,,,,,,,,,,,,,,,,,,,,,,,,,,,,,,,,,,,,,,
,,,,,,,,,,,,,,,,,,,,,,,,36,Female,2020-09-28_11h06.59.469,torte-2b,2020.1.3,MacIntel,60,13319,,,,,,,,,,,,,,,,,,1,,0,27,27,27,1,,,,,,,,,,,,,,,,,,,,,,,,,,,,,,,,,,,,,,,,,
,,,,,,,,,,,,,,,,,,,,,,,,36,Female,2020-09-28_11h06.59.469,torte-2b,2020.1.3,MacIntel,60,13319,,,,,,,,,,,,space,,,,,,7,0.929,0,28,28,28,1,,,,,,,,,,,,,,,,,,,,,,,,,,,,,,,,,,,,,,,,,
,,,,,,,,,,,,,,,,,,,,,,,,36,Female,2020-09-28_11h06.59.469,torte-2b,2020.1.3,MacIntel,60,13319,,,,,,,,,,,,,,,,,,4,,0,29,29,29,1,,,,,,,,,,,,,,,,,,,,,,,,,,,,,,,,,,,,,,,,,
,,,,,,,,,,,,,,,,,,,,,,,,36,Female,2020-09-28_11h06.59.469,torte-2b,2020.1.3,MacIntel,60,13319,,,,,,,,,,,,,,,,,,7,,0,30,30,30,1,,,,,,,,,,,,,,,,,,,,,,,,,,,,,,,,,,,,,,,,,
,,,,,,,,,,,,,,,,,,,,,,,,36,Female,2020-09-28_11h06.59.469,torte-2b,2020.1.3,MacIntel,60,13319,,,,,,,,,,,,,,,,,,3,,0,31,31,31,1,,,,,,,,,,,,,,,,,,,,,,,,,,,,,,,,,,,,,,,,,
,,,,,,,,,,,,,,,,,,,,,,,,36,Female,2020-09-28_11h06.59.469,torte-2b,2020.1.3,MacIntel,60,13319,,,,,,,,,,,,,,,,,,2,,0,32,32,32,1,,,,,,,,,,,,,,,,,,,,,,,,,,,,,,,,,,,,,,,,,
,,,,,,,,,,,,,,,,,,,,,,,,36,Female,2020-09-28_11h06.59.469,torte-2b,2020.1.3,MacIntel,60,13319,,,,,,,,,,,,,,,,,,6,,0,33,33,33,1,,,,,,,,,,,,,,,,,,,,,,,,,,,,,,,,,,,,,,,,,
,,,,,,,,,,,,,,,,,,,,,,,,36,Female,2020-09-28_11h06.59.469,torte-2b,2020.1.3,MacIntel,60,13319,,,,,,,,,,,,space,,,,,,3,1.207,0,34,34,34,1,,,,,,,,,,,,,,,,,,,,,,,,,,,,,,,,,,,,,,,,,
,,,,,,,,,,,,,,,,,,,,,,,,36,Female,2020-09-28_11h06.59.469,torte-2b,2020.1.3,MacIntel,60,13319,,,,,,,,,,,,,,,,,,7,,,,,,,0,0,0,0,1,,,,,,,,,,,,,,,,,,,,,,,,,,,,,,,,,,,,
,,,,,,,,,,,,,,,,,,,,,,,,36,Female,2020-09-28_11h06.59.469,torte-2b,2020.1.3,MacIntel,60,13319,,,,,,,,,,,,,,,,,,5,,,,,,,0,1,1,1,1,,,,,,,,,,,,,,,,,,,,,,,,,,,,,,,,,,,,
,,,,,,,,,,,,,,,,,,,,,,,,36,Female,2020-09-28_11h06.59.469,torte-2b,2020.1.3,MacIntel,60,13319,,,,,,,,,,,,,,,,,,4,,,,,,,0,2,2,2,1,,,,,,,,,,,,,,,,,,,,,,,,,,,,,,,,,,,,
,,,,,,,,,,,,,,,,,,,,,,,,36,Female,2020-09-28_11h06.59.469,torte-2b,2020.1.3,MacIntel,60,13319,,,,,,,,,,,,space,,,,,,5,0.383,,,,,,0,3,3,3,1,,,,,,,,,,,,,,,,,,,,,,,,,,,,,,,,,,,,
,,,,,,,,,,,,,,,,,,,,,,,,36,Female,2020-09-28_11h06.59.469,torte-2b,2020.1.3,MacIntel,60,13319,,,,,,,,,,,,,,,,,,6,,,,,,,0,4,4,4,1,,,,,,,,,,,,,,,,,,,,,,,,,,,,,,,,,,,,
,,,,,,,,,,,,,,,,,,,,,,,,36,Female,2020-09-28_11h06.59.469,torte-2b,2020.1.3,MacIntel,60,13319,,,,,,,,,,,,space,,,,,,5,0.908,,,,,,0,5,5,5,1,,,,,,,,,,,,,,,,,,,,,,,,,,,,,,,,,,,,
,,,,,,,,,,,,,,,,,,,,,,,,36,Female,2020-09-28_11h06.59.469,torte-2b,2020.1.3,MacIntel,60,13319,,,,,,,,,,,,,,,,,,3,,,,,,,0,6,6,6,1,,,,,,,,,,,,,,,,,,,,,,,,,,,,,,,,,,,,
,,,,,,,,,,,,,,,,,,,,,,,,36,Female,2020-09-28_11h06.59.469,torte-2b,2020.1.3,MacIntel,60,13319,,,,,,,,,,,,,,,,,,4,,,,,,,0,7,7,7,1,,,,,,,,,,,,,,,,,,,,,,,,,,,,,,,,,,,,
,,,,,,,,,,,,,,,,,,,,,,,,36,Female,2020-09-28_11h06.59.469,torte-2b,2020.1.3,MacIntel,60,13319,,,,,,,,,,,,space,,,,,,3,0.475,,,,,,0,8,8,8,1,,,,,,,,,,,,,,,,,,,,,,,,,,,,,,,,,,,,
,,,,,,,,,,,,,,,,,,,,,,,,36,Female,2020-09-28_11h06.59.469,torte-2b,2020.1.3,MacIntel,60,13319,,,,,,,,,,,,,,,,,,1,,,,,,,0,9,9,9,1,,,,,,,,,,,,,,,,,,,,,,,,,,,,,,,,,,,,
,,,,,,,,,,,,,,,,,,,,,,,,36,Female,2020-09-28_11h06.59.469,torte-2b,2020.1.3,MacIntel,60,13319,,,,,,,,,,,,,,,,,,2,,,,,,,0,10,10,10,1,,,,,,,,,,,,,,,,,,,,,,,,,,,,,,,,,,,,
,,,,,,,,,,,,,,,,,,,,,,,,36,Female,2020-09-28_11h06.59.469,torte-2b,2020.1.3,MacIntel,60,13319,,,,,,,,,,,,space,,,,,,1,0.603,,,,,,0,11,11,11,1,,,,,,,,,,,,,,,,,,,,,,,,,,,,,,,,,,,,
,,,,,,,,,,,,,,,,,,,,,,,,36,Female,2020-09-28_11h06.59.469,torte-2b,2020.1.3,MacIntel,60,13319,,,,,,,,,,,,space,,,,,,2,0.724,,,,,,0,12,12,12,1,,,,,,,,,,,,,,,,,,,,,,,,,,,,,,,,,,,,
,,,,,,,,,,,,,,,,,,,,,,,,36,Female,2020-09-28_11h06.59.469,torte-2b,2020.1.3,MacIntel,60,13319,,,,,,,,,,,,space,,,,,,1,0.675,,,,,,0,13,13,13,1,,,,,,,,,,,,,,,,,,,,,,,,,,,,,,,,,,,,
,,,,,,,,,,,,,,,,,,,,,,,,36,Female,2020-09-28_11h06.59.469,torte-2b,2020.1.3,MacIntel,60,13319,,,,,,,,,,,,,,,,,,3,,,,,,,0,14,14,14,1,,,,,,,,,,,,,,,,,,,,,,,,,,,,,,,,,,,,
,,,,,,,,,,,,,,,,,,,,,,,,36,Female,2020-09-28_11h06.59.469,torte-2b,2020.1.3,MacIntel,60,13319,,,,,,,,,,,,,,,,,,1,,,,,,,0,15,15,15,1,,,,,,,,,,,,,,,,,,,,,,,,,,,,,,,,,,,,
,,,,,,,,,,,,,,,,,,,,,,,,36,Female,2020-09-28_11h06.59.469,torte-2b,2020.1.3,MacIntel,60,13319,,,,,,,,,,,,,,,,,,7,,,,,,,0,16,16,16,1,,,,,,,,,,,,,,,,,,,,,,,,,,,,,,,,,,,,
,,,,,,,,,,,,,,,,,,,,,,,,36,Female,2020-09-28_11h06.59.469,torte-2b,2020.1.3,MacIntel,60,13319,,,,,,,,,,,,,,,,,,7,,,,,,,0,17,17,17,1,,,,,,,,,,,,,,,,,,,,,,,,,,,,,,,,,,,,
,,,,,,,,,,,,,,,,,,,,,,,,36,Female,2020-09-28_11h06.59.469,torte-2b,2020.1.3,MacIntel,60,13319,,,,,,,,,,,,,,,,,,4,,,,,,,0,18,18,18,1,,,,,,,,,,,,,,,,,,,,,,,,,,,,,,,,,,,,
,,,,,,,,,,,,,,,,,,,,,,,,36,Female,2020-09-28_11h06.59.469,torte-2b,2020.1.3,MacIntel,60,13319,,,,,,,,,,,,space,,,,,,7,0.74,,,,,,0,19,19,19,1,,,,,,,,,,,,,,,,,,,,,,,,,,,,,,,,,,,,
,,,,,,,,,,,,,,,,,,,,,,,,36,Female,2020-09-28_11h06.59.469,torte-2b,2020.1.3,MacIntel,60,13319,,,,,,,,,,,,,,,,,,3,,,,,,,0,20,20,20,1,,,,,,,,,,,,,,,,,,,,,,,,,,,,,,,,,,,,
,,,,,,,,,,,,,,,,,,,,,,,,36,Female,2020-09-28_11h06.59.469,torte-2b,2020.1.3,MacIntel,60,13319,,,,,,,,,,,,space,,,,,,7,0.737,,,,,,0,21,21,21,1,,,,,,,,,,,,,,,,,,,,,,,,,,,,,,,,,,,,
,,,,,,,,,,,,,,,,,,,,,,,,36,Female,2020-09-28_11h06.59.469,torte-2b,2020.1.3,MacIntel,60,13319,,,,,,,,,,,,space,,,,,,3,0.671,,,,,,0,22,22,22,1,,,,,,,,,,,,,,,,,,,,,,,,,,,,,,,,,,,,
,,,,,,,,,,,,,,,,,,,,,,,,36,Female,2020-09-28_11h06.59.469,torte-2b,2020.1.3,MacIntel,60,13319,,,,,,,,,,,,,,,,,,1,,,,,,,0,23,23,23,1,,,,,,,,,,,,,,,,,,,,,,,,,,,,,,,,,,,,
,,,,,,,,,,,,,,,,,,,,,,,,36,Female,2020-09-28_11h06.59.469,torte-2b,2020.1.3,MacIntel,60,13319,,,,,,,,,,,,,,,,,,6,,,,,,,0,24,24,24,1,,,,,,,,,,,,,,,,,,,,,,,,,,,,,,,,,,,,
,,,,,,,,,,,,,,,,,,,,,,,,36,Female,2020-09-28_11h06.59.469,torte-2b,2020.1.3,MacIntel,60,13319,,,,,,,,,,,,,,,,,,3,,,,,,,0,25,25,25,1,,,,,,,,,,,,,,,,,,,,,,,,,,,,,,,,,,,,
,,,,,,,,,,,,,,,,,,,,,,,,36,Female,2020-09-28_11h06.59.469,torte-2b,2020.1.3,MacIntel,60,13319,,,,,,,,,,,,,,,,,,2,,,,,,,0,26,26,26,1,,,,,,,,,,,,,,,,,,,,,,,,,,,,,,,,,,,,
,,,,,,,,,,,,,,,,,,,,,,,,36,Female,2020-09-28_11h06.59.469,torte-2b,2020.1.3,MacIntel,60,13319,,,,,,,,,,,,space,,,,,,3,0.624,,,,,,0,27,27,27,1,,,,,,,,,,,,,,,,,,,,,,,,,,,,,,,,,,,,
,,,,,,,,,,,,,,,,,,,,,,,,36,Female,2020-09-28_11h06.59.469,torte-2b,2020.1.3,MacIntel,60,13319,,,,,,,,,,,,,,,,,,1,,,,,,,0,28,28,28,1,,,,,,,,,,,,,,,,,,,,,,,,,,,,,,,,,,,,
,,,,,,,,,,,,,,,,,,,,,,,,36,Female,2020-09-28_11h06.59.469,torte-2b,2020.1.3,MacIntel,60,13319,,,,,,,,,,,,space,,,,,,3,0.571,,,,,,0,29,29,29,1,,,,,,,,,,,,,,,,,,,,,,,,,,,,,,,,,,,,
,,,,,,,,,,,,,,,,,,,,,,,,36,Female,2020-09-28_11h06.59.469,torte-2b,2020.1.3,MacIntel,60,13319,,,,,,,,,,,,space,,,,,,1,0.77,,,,,,0,30,30,30,1,,,,,,,,,,,,,,,,,,,,,,,,,,,,,,,,,,,,
,,,,,,,,,,,,,,,,,,,,,,,,36,Female,2020-09-28_11h06.59.469,torte-2b,2020.1.3,MacIntel,60,13319,,,,,,,,,,,,,,,,,,7,,,,,,,0,31,31,31,1,,,,,,,,,,,,,,,,,,,,,,,,,,,,,,,,,,,,
,,,,,,,,,,,,,,,,,,,,,,,,36,Female,2020-09-28_11h06.59.469,torte-2b,2020.1.3,MacIntel,60,13319,,,,,,,,,,,,,,,,,,5,,,,,,,0,32,32,32,1,,,,,,,,,,,,,,,,,,,,,,,,,,,,,,,,,,,,
,,,,,,,,,,,,,,,,,,,,,,,,36,Female,2020-09-28_11h06.59.469,torte-2b,2020.1.3,MacIntel,60,13319,,,,,,,,,,,,space,,,,,,7,0.458,,,,,,0,33,33,33,1,,,,,,,,,,,,,,,,,,,,,,,,,,,,,,,,,,,,
,,,,,,,,,,,,,,,,,,,,,,,,36,Female,2020-09-28_11h06.59.469,torte-2b,2020.1.3,MacIntel,60,13319,,,,,,,,,,,,,,,,,,2,,,,,,,0,34,34,34,1,,,,,,,,,,,,,,,,,,,,,,,,,,,,,,,,,,,,
,,,,,,,,,,,,,,,,,,,,,,,,36,Female,2020-09-28_11h06.59.469,torte-2b,2020.1.3,MacIntel,60,13319,,,,,,,,,,,,,,,,,,3,,,,,,,,,,,,0,0,0,0,1,,,,,,,,,,,,,,,,,,,,,,,,,,,,,,,
,,,,,,,,,,,,,,,,,,,,,,,,36,Female,2020-09-28_11h06.59.469,torte-2b,2020.1.3,MacIntel,60,13319,,,,,,,,,,,,,,,,,,7,,,,,,,,,,,,0,1,1,1,1,,,,,,,,,,,,,,,,,,,,,,,,,,,,,,,
,,,,,,,,,,,,,,,,,,,,,,,,36,Female,2020-09-28_11h06.59.469,torte-2b,2020.1.3,MacIntel,60,13319,,,,,,,,,,,,,,,,,,7,,,,,,,,,,,,0,2,2,2,1,,,,,,,,,,,,,,,,,,,,,,,,,,,,,,,
,,,,,,,,,,,,,,,,,,,,,,,,36,Female,2020-09-28_11h06.59.469,torte-2b,2020.1.3,MacIntel,60,13319,,,,,,,,,,,,,,,,,,4,,,,,,,,,,,,0,3,3,3,1,,,,,,,,,,,,,,,,,,,,,,,,,,,,,,,
,,,,,,,,,,,,,,,,,,,,,,,,36,Female,2020-09-28_11h06.59.469,torte-2b,2020.1.3,MacIntel,60,13319,,,,,,,,,,,,,,,,,,5,,,,,,,,,,,,0,4,4,4,1,,,,,,,,,,,,,,,,,,,,,,,,,,,,,,,
,,,,,,,,,,,,,,,,,,,,,,,,36,Female,2020-09-28_11h06.59.469,torte-2b,2020.1.3,MacIntel,60,13319,,,,,,,,,,,,space,,,,,,4,0.423,,,,,,,,,,,0,5,5,5,1,,,,,,,,,,,,,,,,,,,,,,,,,,,,,,,
,,,,,,,,,,,,,,,,,,,,,,,,36,Female,2020-09-28_11h06.59.469,torte-2b,2020.1.3,MacIntel,60,13319,,,,,,,,,,,,,,,,,,2,,,,,,,,,,,,0,6,6,6,1,,,,,,,,,,,,,,,,,,,,,,,,,,,,,,,
,,,,,,,,,,,,,,,,,,,,,,,,36,Female,2020-09-28_11h06.59.469,torte-2b,2020.1.3,MacIntel,60,13319,,,,,,,,,,,,space,,,,,,4,0.367,,,,,,,,,,,0,7,7,7,1,,,,,,,,,,,,,,,,,,,,,,,,,,,,,,,
,,,,,,,,,,,,,,,,,,,,,,,,36,Female,2020-09-28_11h06.59.469,torte-2b,2020.1.3,MacIntel,60,13319,,,,,,,,,,,,space,,,,,,2,0.438,,,,,,,,,,,0,8,8,8,1,,,,,,,,,,,,,,,,,,,,,,,,,,,,,,,
,,,,,,,,,,,,,,,,,,,,,,,,36,Female,2020-09-28_11h06.59.469,torte-2b,2020.1.3,MacIntel,60,13319,,,,,,,,,,,,space,,,,,,2,0.575,,,,,,,,,,,0,9,9,9,1,,,,,,,,,,,,,,,,,,,,,,,,,,,,,,,
,,,,,,,,,,,,,,,,,,,,,,,,36,Female,2020-09-28_11h06.59.469,torte-2b,2020.1.3,MacIntel,60,13319,,,,,,,,,,,,,,,,,,6,,,,,,,,,,,,0,10,10,10,1,,,,,,,,,,,,,,,,,,,,,,,,,,,,,,,
,,,,,,,,,,,,,,,,,,,,,,,,36,Female,2020-09-28_11h06.59.469,torte-2b,2020.1.3,MacIntel,60,13319,,,,,,,,,,,,space,,,,,,2,0.908,,,,,,,,,,,0,11,11,11,1,,,,,,,,,,,,,,,,,,,,,,,,,,,,,,,
,,,,,,,,,,,,,,,,,,,,,,,,36,Female,2020-09-28_11h06.59.469,torte-2b,2020.1.3,MacIntel,60,13319,,,,,,,,,,,,space,,,,,,2,0.584,,,,,,,,,,,0,12,12,12,1,,,,,,,,,,,,,,,,,,,,,,,,,,,,,,,
,,,,,,,,,,,,,,,,,,,,,,,,36,Female,2020-09-28_11h06.59.469,torte-2b,2020.1.3,MacIntel,60,13319,,,,,,,,,,,,,,,,,,2,,,,,,,,,,,,0,13,13,13,1,,,,,,,,,,,,,,,,,,,,,,,,,,,,,,,
,,,,,,,,,,,,,,,,,,,,,,,,36,Female,2020-09-28_11h06.59.469,torte-2b,2020.1.3,MacIntel,60,13319,,,,,,,,,,,,,,,,,,2,,,,,,,,,,,,0,14,14,14,1,,,,,,,,,,,,,,,,,,,,,,,,,,,,,,,
,,,,,,,,,,,,,,,,,,,,,,,,36,Female,2020-09-28_11h06.59.469,torte-2b,2020.1.3,MacIntel,60,13319,,,,,,,,,,,,,,,,,,4,,,,,,,,,,,,0,15,15,15,1,,,,,,,,,,,,,,,,,,,,,,,,,,,,,,,
,,,,,,,,,,,,,,,,,,,,,,,,36,Female,2020-09-28_11h06.59.469,torte-2b,2020.1.3,MacIntel,60,13319,,,,,,,,,,,,,,,,,,3,,,,,,,,,,,,0,16,16,16,1,,,,,,,,,,,,,,,,,,,,,,,,,,,,,,,
,,,,,,,,,,,,,,,,,,,,,,,,36,Female,2020-09-28_11h06.59.469,torte-2b,2020.1.3,MacIntel,60,13319,,,,,,,,,,,,,,,,,,7,,,,,,,,,,,,0,17,17,17,1,,,,,,,,,,,,,,,,,,,,,,,,,,,,,,,
,,,,,,,,,,,,,,,,,,,,,,,,36,Female,2020-09-28_11h06.59.469,torte-2b,2020.1.3,MacIntel,60,13319,,,,,,,,,,,,,,,,,,4,,,,,,,,,,,,0,18,18,18,1,,,,,,,,,,,,,,,,,,,,,,,,,,,,,,,
,,,,,,,,,,,,,,,,,,,,,,,,36,Female,2020-09-28_11h06.59.469,torte-2b,2020.1.3,MacIntel,60,13319,,,,,,,,,,,,,,,,,,7,,,,,,,,,,,,0,19,19,19,1,,,,,,,,,,,,,,,,,,,,,,,,,,,,,,,
,,,,,,,,,,,,,,,,,,,,,,,,36,Female,2020-09-28_11h06.59.469,torte-2b,2020.1.3,MacIntel,60,13319,,,,,,,,,,,,,,,,,,7,,,,,,,,,,,,0,20,20,20,1,,,,,,,,,,,,,,,,,,,,,,,,,,,,,,,
,,,,,,,,,,,,,,,,,,,,,,,,36,Female,2020-09-28_11h06.59.469,torte-2b,2020.1.3,MacIntel,60,13319,,,,,,,,,,,,space,,,,,,7,0.559,,,,,,,,,,,0,21,21,21,1,,,,,,,,,,,,,,,,,,,,,,,,,,,,,,,
,,,,,,,,,,,,,,,,,,,,,,,,36,Female,2020-09-28_11h06.59.469,torte-2b,2020.1.3,MacIntel,60,13319,,,,,,,,,,,,space,,,,,,7,0.555,,,,,,,,,,,0,22,22,22,1,,,,,,,,,,,,,,,,,,,,,,,,,,,,,,,
,,,,,,,,,,,,,,,,,,,,,,,,36,Female,2020-09-28_11h06.59.469,torte-2b,2020.1.3,MacIntel,60,13319,,,,,,,,,,,,,,,,,,1,,,,,,,,,,,,0,23,23,23,1,,,,,,,,,,,,,,,,,,,,,,,,,,,,,,,
,,,,,,,,,,,,,,,,,,,,,,,,36,Female,2020-09-28_11h06.59.469,torte-2b,2020.1.3,MacIntel,60,13319,,,,,,,,,,,,space,,,,,,7,0.424,,,,,,,,,,,0,24,24,24,1,,,,,,,,,,,,,,,,,,,,,,,,,,,,,,,
,,,,,,,,,,,,,,,,,,,,,,,,36,Female,2020-09-28_11h06.59.469,torte-2b,2020.1.3,MacIntel,60,13319,,,,,,,,,,,,space,,,,,,1,0.569,,,,,,,,,,,0,25,25,25,1,,,,,,,,,,,,,,,,,,,,,,,,,,,,,,,
,,,,,,,,,,,,,,,,,,,,,,,,36,Female,2020-09-28_11h06.59.469,torte-2b,2020.1.3,MacIntel,60,13319,,,,,,,,,,,,,,,,,,7,,,,,,,,,,,,0,26,26,26,1,,,,,,,,,,,,,,,,,,,,,,,,,,,,,,,
,,,,,,,,,,,,,,,,,,,,,,,,36,Female,2020-09-28_11h06.59.469,torte-2b,2020.1.3,MacIntel,60,13319,,,,,,,,,,,,,,,,,,2,,,,,,,,,,,,0,27,27,27,1,,,,,,,,,,,,,,,,,,,,,,,,,,,,,,,
,,,,,,,,,,,,,,,,,,,,,,,,36,Female,2020-09-28_11h06.59.469,torte-2b,2020.1.3,MacIntel,60,13319,,,,,,,,,,,,,,,,,,5,,,,,,,,,,,,0,28,28,28,1,,,,,,,,,,,,,,,,,,,,,,,,,,,,,,,
,,,,,,,,,,,,,,,,,,,,,,,,36,Female,2020-09-28_11h06.59.469,torte-2b,2020.1.3,MacIntel,60,13319,,,,,,,,,,,,,,,,,,5,,,,,,,,,,,,0,29,29,29,1,,,,,,,,,,,,,,,,,,,,,,,,,,,,,,,
,,,,,,,,,,,,,,,,,,,,,,,,36,Female,2020-09-28_11h06.59.469,torte-2b,2020.1.3,MacIntel,60,13319,,,,,,,,,,,,space,,,,,,5,0.438,,,,,,,,,,,0,30,30,30,1,,,,,,,,,,,,,,,,,,,,,,,,,,,,,,,
,,,,,,,,,,,,,,,,,,,,,,,,36,Female,2020-09-28_11h06.59.469,torte-2b,2020.1.3,MacIntel,60,13319,,,,,,,,,,,,,,,,,,1,,,,,,,,,,,,0,31,31,31,1,,,,,,,,,,,,,,,,,,,,,,,,,,,,,,,
,,,,,,,,,,,,,,,,,,,,,,,,36,Female,2020-09-28_11h06.59.469,torte-2b,2020.1.3,MacIntel,60,13319,,,,,,,,,,,,space,,,,,,5,0.426,,,,,,,,,,,0,32,32,32,1,,,,,,,,,,,,,,,,,,,,,,,,,,,,,,,
,,,,,,,,,,,,,,,,,,,,,,,,36,Female,2020-09-28_11h06.59.469,torte-2b,2020.1.3,MacIntel,60,13319,,,,,,,,,,,,,,,,,,3,,,,,,,,,,,,0,33,33,33,1,,,,,,,,,,,,,,,,,,,,,,,,,,,,,,,
,,,,,,,,,,,,,,,,,,,,,,,,36,Female,2020-09-28_11h06.59.469,torte-2b,2020.1.3,MacIntel,60,13319,,,,,,,,,,,,,,,,,,3,,,,,,,,,,,,0,34,34,34,1,,,,,,,,,,,,,,,,,,,,,,,,,,,,,,,
,,,,,,,,,,,,a,1.356,Correct!,,,,,,t4.png,t2.png,2,0.059078,36,Female,2020-09-28_11h06.59.469,torte-2b,2020.1.3,MacIntel,60,13319,space,1.488,,,,,,,,,,,,,,,,,,,,,,,,,,,,,,,,,space,5.269,0,0,0,86,1,,,,,,,,,,,,,,,,,,,,,,,,
,,,,,,,,,,,,l,1.007,Correct!,,,,,,t1.png,t3.png,2,0.056466,36,Female,2020-09-28_11h06.59.469,torte-2b,2020.1.3,MacIntel,60,13319,,,,,,,,,,,,,,,,,,,,,,,,,,,,,,,,,,,,,0,1,1,69,1,,,,,,,,,,,,,,,,,,,,,,,,
,,,,,,,,,,,,l,0.69,Incorrect,,,,,,t3.png,t4.png,1,0.90855,36,Female,2020-09-28_11h06.59.469,torte-2b,2020.1.3,MacIntel,60,13319,,,,,,,,,,,,,,,,,,,,,,,,,,,,,,,,,,,,,0,2,2,84,1,,,,,,,,,,,,,,,,,,,,,,,,
,,,,,,,,,,,,l,0.739,Correct!,,,,,,t3.png,t5.png,2,0.056466,36,Female,2020-09-28_11h06.59.469,torte-2b,2020.1.3,MacIntel,60,13319,,,,,,,,,,,,,,,,,,,,,,,,,,,,,,,,,,,,,0,3,3,44,1,,,,,,,,,,,,,,,,,,,,,,,,
,,,,,,,,,,,,a,0.738,Correct!,,,,,,t5.png,t5.png,0,0.978,36,Female,2020-09-28_11h06.59.469,torte-2b,2020.1.3,MacIntel,60,13319,,,,,,,,,,,,,,,,,,,,,,,,,,,,,,,,,,,,,0,4,4,117,1,,,,,,,,,,,,,,,,,,,,,,,,
,,,,,,,,,,,,a,0.708,Correct!,,,,,,t1.png,t1.png,0,0.97829,36,Female,2020-09-28_11h06.59.469,torte-2b,2020.1.3,MacIntel,60,13319,,,,,,,,,,,,,,,,,,,,,,,,,,,,,,,,,,,,,0,5,5,67,1,,,,,,,,,,,,,,,,,,,,,,,,
,,,,,,,,,,,,l,0.722,Correct!,,,,,,t1.png,t3.png,2,0.056466,36,Female,2020-09-28_11h06.59.469,torte-2b,2020.1.3,MacIntel,60,13319,,,,,,,,,,,,,,,,,,,,,,,,,,,,,,,,,,,,,0,6,6,87,1,,,,,,,,,,,,,,,,,,,,,,,,
,,,,,,,,,,,,a,0.72,Correct!,,,,,,t5.png,t5.png,0,0.97829,36,Female,2020-09-28_11h06.59.469,torte-2b,2020.1.3,MacIntel,60,13319,,,,,,,,,,,,,,,,,,,,,,,,,,,,,,,,,,,,,0,7,7,70,1,,,,,,,,,,,,,,,,,,,,,,,,
,,,,,,,,,,,,l,0.606,Correct!,,,,,,t2.png,t4.png,2,0.059078,36,Female,2020-09-28_11h06.59.469,torte-2b,2020.1.3,MacIntel,60,13319,,,,,,,,,,,,,,,,,,,,,,,,,,,,,,,,,,,,,0,8,8,77,1,,,,,,,,,,,,,,,,,,,,,,,,
,,,,,,,,,,,,a,0.826,Correct!,,,,,,t4.png,t4.png,0,0.98115,36,Female,2020-09-28_11h06.59.469,torte-2b,2020.1.3,MacIntel,60,13319,,,,,,,,,,,,,,,,,,,,,,,,,,,,,,,,,,,,,0,9,9,21,1,,,,,,,,,,,,,,,,,,,,,,,,
,,,,,,,,,,,,l,0.759,Incorrect,,,,,,t2.png,t2.png,0,0.98115,36,Female,2020-09-28_11h06.59.469,torte-2b,2020.1.3,MacIntel,60,13319,,,,,,,,,,,,,,,,,,,,,,,,,,,,,,,,,,,,,0,10,10,59,1,,,,,,,,,,,,,,,,,,,,,,,,
,,,,,,,,,,,,l,0.878,Incorrect,,,,,,t2.png,t1.png,1,0.90025,36,Female,2020-09-28_11h06.59.469,torte-2b,2020.1.3,MacIntel,60,13319,,,,,,,,,,,,,,,,,,,,,,,,,,,,,,,,,,,,,0,11,11,19,1,,,,,,,,,,,,,,,,,,,,,,,,
,,,,,,,,,,,,l,0.806,Correct!,,,,,,t4.png,t1.png,3,0.0000131,36,Female,2020-09-28_11h06.59.469,torte-2b,2020.1.3,MacIntel,60,13319,,,,,,,,,,,,,,,,,,,,,,,,,,,,,,,,,,,,,0,12,12,42,1,,,,,,,,,,,,,,,,,,,,,,,,
,,,,,,,,,,,,l,0.622,Correct!,,,,,,t2.png,t4.png,2,0.059078,36,Female,2020-09-28_11h06.59.469,torte-2b,2020.1.3,MacIntel,60,13319,,,,,,,,,,,,,,,,,,,,,,,,,,,,,,,,,,,,,0,13,13,24,1,,,,,,,,,,,,,,,,,,,,,,,,
,,,,,,,,,,,,l,0.692,Correct!,,,,,,t4.png,t2.png,2,0.059078,36,Female,2020-09-28_11h06.59.469,torte-2b,2020.1.3,MacIntel,60,13319,,,,,,,,,,,,,,,,,,,,,,,,,,,,,,,,,,,,,0,14,14,88,1,,,,,,,,,,,,,,,,,,,,,,,,
,,,,,,,,,,,,l,0.553,Correct!,,,,,,t1.png,t5.png,4,9.55E-11,36,Female,2020-09-28_11h06.59.469,torte-2b,2020.1.3,MacIntel,60,13319,,,,,,,,,,,,,,,,,,,,,,,,,,,,,,,,,,,,,0,15,15,85,1,,,,,,,,,,,,,,,,,,,,,,,,
,,,,,,,,,,,,l,0.657,Correct!,,,,,,t5.png,t1.png,4,9.55E-11,36,Female,2020-09-28_11h06.59.469,torte-2b,2020.1.3,MacIntel,60,13319,,,,,,,,,,,,,,,,,,,,,,,,,,,,,,,,,,,,,0,16,16,102,1,,,,,,,,,,,,,,,,,,,,,,,,
,,,,,,,,,,,,a,0.569,Correct!,,,,,,t5.png,t5.png,0,0.97829,36,Female,2020-09-28_11h06.59.469,torte-2b,2020.1.3,MacIntel,60,13319,,,,,,,,,,,,,,,,,,,,,,,,,,,,,,,,,,,,,0,17,17,73,1,,,,,,,,,,,,,,,,,,,,,,,,
,,,,,,,,,,,,l,0.74,Correct!,,,,,,t4.png,t2.png,2,0.0591,36,Female,2020-09-28_11h06.59.469,torte-2b,2020.1.3,MacIntel,60,13319,,,,,,,,,,,,,,,,,,,,,,,,,,,,,,,,,,,,,0,18,18,36,1,,,,,,,,,,,,,,,,,,,,,,,,
,,,,,,,,,,,,l,0.741,Incorrect,,,,,,t1.png,t2.png,1,0.90025,36,Female,2020-09-28_11h06.59.469,torte-2b,2020.1.3,MacIntel,60,13319,,,,,,,,,,,,,,,,,,,,,,,,,,,,,,,,,,,,,0,19,19,105,1,,,,,,,,,,,,,,,,,,,,,,,,
,,,,,,,,,,,,l,0.692,Incorrect,,,,,,t2.png,t3.png,1,0.90855,36,Female,2020-09-28_11h06.59.469,torte-2b,2020.1.3,MacIntel,60,13319,,,,,,,,,,,,,,,,,,,,,,,,,,,,,,,,,,,,,0,20,20,68,1,,,,,,,,,,,,,,,,,,,,,,,,
,,,,,,,,,,,,l,0.686,Correct!,,,,,,t5.png,t1.png,4,9.55E-11,36,Female,2020-09-28_11h06.59.469,torte-2b,2020.1.3,MacIntel,60,13319,,,,,,,,,,,,,,,,,,,,,,,,,,,,,,,,,,,,,0,21,21,22,1,,,,,,,,,,,,,,,,,,,,,,,,
,,,,,,,,,,,,a,0.555,Correct!,,,,,,t5.png,t4.png,1,0.9,36,Female,2020-09-28_11h06.59.469,torte-2b,2020.1.3,MacIntel,60,13319,,,,,,,,,,,,,,,,,,,,,,,,,,,,,,,,,,,,,0,22,22,76,1,,,,,,,,,,,,,,,,,,,,,,,,
,,,,,,,,,,,,l,0.555,Correct!,,,,,,t1.png,t5.png,4,9.55E-11,36,Female,2020-09-28_11h06.59.469,torte-2b,2020.1.3,MacIntel,60,13319,,,,,,,,,,,,,,,,,,,,,,,,,,,,,,,,,,,,,0,23,23,16,1,,,,,,,,,,,,,,,,,,,,,,,,
,,,,,,,,,,,,l,0.571,Correct!,,,,,,t2.png,t5.png,3,0.0000131,36,Female,2020-09-28_11h06.59.469,torte-2b,2020.1.3,MacIntel,60,13319,,,,,,,,,,,,,,,,,,,,,,,,,,,,,,,,,,,,,0,24,24,66,1,,,,,,,,,,,,,,,,,,,,,,,,
,,,,,,,,,,,,l,0.588,Correct!,,,,,,t1.png,t3.png,2,0.056466,36,Female,2020-09-28_11h06.59.469,torte-2b,2020.1.3,MacIntel,60,13319,,,,,,,,,,,,,,,,,,,,,,,,,,,,,,,,,,,,,0,25,25,99,1,,,,,,,,,,,,,,,,,,,,,,,,
,,,,,,,,,,,,l,0.656,Correct!,,,,,,t5.png,t3.png,2,0.056466,36,Female,2020-09-28_11h06.59.469,torte-2b,2020.1.3,MacIntel,60,13319,,,,,,,,,,,,,,,,,,,,,,,,,,,,,,,,,,,,,0,26,26,108,1,,,,,,,,,,,,,,,,,,,,,,,,
,,,,,,,,,,,,l,0.591,Correct!,,,,,,t1.png,t4.png,3,0.0000131,36,Female,2020-09-28_11h06.59.469,torte-2b,2020.1.3,MacIntel,60,13319,,,,,,,,,,,,,,,,,,,,,,,,,,,,,,,,,,,,,0,27,27,50,1,,,,,,,,,,,,,,,,,,,,,,,,
,,,,,,,,,,,,l,0.659,Correct!,,,,,,t2.png,t4.png,2,0.059078,36,Female,2020-09-28_11h06.59.469,torte-2b,2020.1.3,MacIntel,60,13319,,,,,,,,,,,,,,,,,,,,,,,,,,,,,,,,,,,,,0,28,28,37,1,,,,,,,,,,,,,,,,,,,,,,,,
,,,,,,,,,,,,l,0.59,Incorrect,,,,,,t1.png,t2.png,1,0.90025,36,Female,2020-09-28_11h06.59.469,torte-2b,2020.1.3,MacIntel,60,13319,,,,,,,,,,,,,,,,,,,,,,,,,,,,,,,,,,,,,0,29,29,112,1,,,,,,,,,,,,,,,,,,,,,,,,
,,,,,,,,,,,,l,0.673,Correct!,,,,,,t2.png,t4.png,2,0.059078,36,Female,2020-09-28_11h06.59.469,torte-2b,2020.1.3,MacIntel,60,13319,,,,,,,,,,,,,,,,,,,,,,,,,,,,,,,,,,,,,0,30,30,11,1,,,,,,,,,,,,,,,,,,,,,,,,
,,,,,,,,,,,,l,0.552,Correct!,,,,,,t2.png,t5.png,3,0.0000131,36,Female,2020-09-28_11h06.59.469,torte-2b,2020.1.3,MacIntel,60,13319,,,,,,,,,,,,,,,,,,,,,,,,,,,,,,,,,,,,,0,31,31,8,1,,,,,,,,,,,,,,,,,,,,,,,,
,,,,,,,,,,,,l,0.672,Correct!,,,,,,t4.png,t1.png,3,0.0000131,36,Female,2020-09-28_11h06.59.469,torte-2b,2020.1.3,MacIntel,60,13319,,,,,,,,,,,,,,,,,,,,,,,,,,,,,,,,,,,,,0,32,32,13,1,,,,,,,,,,,,,,,,,,,,,,,,
,,,,,,,,,,,,l,1.137,Correct!,,,,,,t4.png,t2.png,2,0.059078,36,Female,2020-09-28_11h06.59.469,torte-2b,2020.1.3,MacIntel,60,13319,,,,,,,,,,,,,,,,,,,,,,,,,,,,,,,,,,,,,0,33,33,109,1,,,,,,,,,,,,,,,,,,,,,,,,
,,,,,,,,,,,,a,0.724,Correct!,,,,,,t2.png,t2.png,0,0.981,36,Female,2020-09-28_11h06.59.469,torte-2b,2020.1.3,MacIntel,60,13319,,,,,,,,,,,,,,,,,,,,,,,,,,,,,,,,,,,,,0,34,34,101,1,,,,,,,,,,,,,,,,,,,,,,,,
,,,,,,,,,,,,l,1.008,Incorrect,,,,,,t4.png,t5.png,1,0.90025,36,Female,2020-09-28_11h06.59.469,torte-2b,2020.1.3,MacIntel,60,13319,,,,,,,,,,,,,,,,,,,,,,,,,,,,,,,,,,,,,0,35,35,47,1,,,,,,,,,,,,,,,,,,,,,,,,
,,,,,,,,,,,,l,0.506,Correct!,,,,,,t1.png,t5.png,4,9.55E-11,36,Female,2020-09-28_11h06.59.469,torte-2b,2020.1.3,MacIntel,60,13319,,,,,,,,,,,,,,,,,,,,,,,,,,,,,,,,,,,,,0,36,36,12,1,,,,,,,,,,,,,,,,,,,,,,,,
,,,,,,,,,,,,l,0.541,Correct!,,,,,,t1.png,t3.png,2,0.056466,36,Female,2020-09-28_11h06.59.469,torte-2b,2020.1.3,MacIntel,60,13319,,,,,,,,,,,,,,,,,,,,,,,,,,,,,,,,,,,,,0,37,37,63,1,,,,,,,,,,,,,,,,,,,,,,,,
,,,,,,,,,,,,a,0.81,Correct!,,,,,,t4.png,t4.png,0,0.98115,36,Female,2020-09-28_11h06.59.469,torte-2b,2020.1.3,MacIntel,60,13319,,,,,,,,,,,,,,,,,,,,,,,,,,,,,,,,,,,,,0,38,38,80,1,,,,,,,,,,,,,,,,,,,,,,,,
,,,,,,,,,,,,a,0.606,Correct!,,,,,,t2.png,t2.png,0,0.98115,36,Female,2020-09-28_11h06.59.469,torte-2b,2020.1.3,MacIntel,60,13319,,,,,,,,,,,,,,,,,,,,,,,,,,,,,,,,,,,,,0,39,39,2,1,,,,,,,,,,,,,,,,,,,,,,,,
,,,,,,,,,,,,l,0.589,Correct!,,,,,,t1.png,t4.png,3,0.0000131,36,Female,2020-09-28_11h06.59.469,torte-2b,2020.1.3,MacIntel,60,13319,,,,,,,,,,,,,,,,,,,,,,,,,,,,,,,,,,,,,0,40,40,92,1,,,,,,,,,,,,,,,,,,,,,,,,
,,,,,,,,,,,,l,0.654,Correct!,,,,,,t3.png,t1.png,2,0.056466,36,Female,2020-09-28_11h06.59.469,torte-2b,2020.1.3,MacIntel,60,13319,,,,,,,,,,,,,,,,,,,,,,,,,,,,,,,,,,,,,0,41,41,64,1,,,,,,,,,,,,,,,,,,,,,,,,
,,,,,,,,,,,,l,0.927,Incorrect,,,,,,t3.png,t2.png,1,0.909,36,Female,2020-09-28_11h06.59.469,torte-2b,2020.1.3,MacIntel,60,13319,,,,,,,,,,,,,,,,,,,,,,,,,,,,,,,,,,,,,0,42,42,3,1,,,,,,,,,,,,,,,,,,,,,,,,
,,,,,,,,,,,,a,0.775,Correct!,,,,,,t4.png,t4.png,0,0.98115,36,Female,2020-09-28_11h06.59.469,torte-2b,2020.1.3,MacIntel,60,13319,,,,,,,,,,,,,,,,,,,,,,,,,,,,,,,,,,,,,0,43,43,79,1,,,,,,,,,,,,,,,,,,,,,,,,
,,,,,,,,,,,,l,0.64,Incorrect,,,,,,t4.png,t3.png,1,0.90855,36,Female,2020-09-28_11h06.59.469,torte-2b,2020.1.3,MacIntel,60,13319,,,,,,,,,,,,,,,,,,,,,,,,,,,,,,,,,,,,,0,44,44,35,1,,,,,,,,,,,,,,,,,,,,,,,,
,,,,,,,,,,,,a,0.525,Correct!,,,,,,t5.png,t4.png,1,0.9,36,Female,2020-09-28_11h06.59.469,torte-2b,2020.1.3,MacIntel,60,13319,,,,,,,,,,,,,,,,,,,,,,,,,,,,,,,,,,,,,0,45,45,49,1,,,,,,,,,,,,,,,,,,,,,,,,
,,,,,,,,,,,,l,0.669,Correct!,,,,,,t5.png,t2.png,3,0.0000131,36,Female,2020-09-28_11h06.59.469,torte-2b,2020.1.3,MacIntel,60,13319,,,,,,,,,,,,,,,,,,,,,,,,,,,,,,,,,,,,,0,46,46,91,1,,,,,,,,,,,,,,,,,,,,,,,,
,,,,,,,,,,,,l,0.639,Incorrect,,,,,,t1.png,t2.png,1,0.90025,36,Female,2020-09-28_11h06.59.469,torte-2b,2020.1.3,MacIntel,60,13319,,,,,,,,,,,,,,,,,,,,,,,,,,,,,,,,,,,,,0,47,47,72,1,,,,,,,,,,,,,,,,,,,,,,,,
,,,,,,,,,,,,a,0.651,Correct!,,,,,,t2.png,t2.png,0,0.98115,36,Female,2020-09-28_11h06.59.469,torte-2b,2020.1.3,MacIntel,60,13319,,,,,,,,,,,,,,,,,,,,,,,,,,,,,,,,,,,,,0,48,48,7,1,,,,,,,,,,,,,,,,,,,,,,,,
,,,,,,,,,,,,l,0.571,Incorrect,,,,,,t3.png,t4.png,1,0.909,36,Female,2020-09-28_11h06.59.469,torte-2b,2020.1.3,MacIntel,60,13319,,,,,,,,,,,,,,,,,,,,,,,,,,,,,,,,,,,,,0,49,49,82,1,,,,,,,,,,,,,,,,,,,,,,,,
,,,,,,,,,,,,a,0.561,Correct!,,,,,,t1.png,t1.png,0,0.978,36,Female,2020-09-28_11h06.59.469,torte-2b,2020.1.3,MacIntel,60,13319,,,,,,,,,,,,,,,,,,,,,,,,,,,,,,,,,,,,,0,50,50,28,1,,,,,,,,,,,,,,,,,,,,,,,,
,,,,,,,,,,,,l,0.685,Correct!,,,,,,t5.png,t1.png,4,9.55E-11,36,Female,2020-09-28_11h06.59.469,torte-2b,2020.1.3,MacIntel,60,13319,,,,,,,,,,,,,,,,,,,,,,,,,,,,,,,,,,,,,0,51,51,43,1,,,,,,,,,,,,,,,,,,,,,,,,
,,,,,,,,,,,,l,0.626,Correct!,,,,,,t5.png,t3.png,2,0.056466,36,Female,2020-09-28_11h06.59.469,torte-2b,2020.1.3,MacIntel,60,13319,,,,,,,,,,,,,,,,,,,,,,,,,,,,,,,,,,,,,0,52,52,56,1,,,,,,,,,,,,,,,,,,,,,,,,
,,,,,,,,,,,,l,0.642,Incorrect,,,,,,t2.png,t3.png,1,0.90855,36,Female,2020-09-28_11h06.59.469,torte-2b,2020.1.3,MacIntel,60,13319,,,,,,,,,,,,,,,,,,,,,,,,,,,,,,,,,,,,,0,53,53,65,1,,,,,,,,,,,,,,,,,,,,,,,,
,,,,,,,,,,,,l,0.604,Correct!,,,,,,t5.png,t3.png,2,0.056466,36,Female,2020-09-28_11h06.59.469,torte-2b,2020.1.3,MacIntel,60,13319,,,,,,,,,,,,,,,,,,,,,,,,,,,,,,,,,,,,,0,54,54,38,1,,,,,,,,,,,,,,,,,,,,,,,,
,,,,,,,,,,,,l,0.605,Incorrect,,,,,,t3.png,t2.png,1,0.90855,36,Female,2020-09-28_11h06.59.469,torte-2b,2020.1.3,MacIntel,60,13319,,,,,,,,,,,,,,,,,,,,,,,,,,,,,,,,,,,,,0,55,55,18,1,,,,,,,,,,,,,,,,,,,,,,,,
,,,,,,,,,,,,l,0.59,Incorrect,,,,,,t2.png,t3.png,1,0.90855,36,Female,2020-09-28_11h06.59.469,torte-2b,2020.1.3,MacIntel,60,13319,,,,,,,,,,,,,,,,,,,,,,,,,,,,,,,,,,,,,0,56,56,10,1,,,,,,,,,,,,,,,,,,,,,,,,
,,,,,,,,,,,,l,0.51,Correct!,,,,,,t3.png,t1.png,2,0.056466,36,Female,2020-09-28_11h06.59.469,torte-2b,2020.1.3,MacIntel,60,13319,,,,,,,,,,,,,,,,,,,,,,,,,,,,,,,,,,,,,0,57,57,0,1,,,,,,,,,,,,,,,,,,,,,,,,
,,,,,,,,,,,,l,0.555,Correct!,,,,,,t5.png,t1.png,4,9.55E-11,36,Female,2020-09-28_11h06.59.469,torte-2b,2020.1.3,MacIntel,60,13319,,,,,,,,,,,,,,,,,,,,,,,,,,,,,,,,,,,,,0,58,58,100,1,,,,,,,,,,,,,,,,,,,,,,,,
,,,,,,,,,,,,l,0.557,Correct!,,,,,,t3.png,t5.png,2,0.056466,36,Female,2020-09-28_11h06.59.469,torte-2b,2020.1.3,MacIntel,60,13319,,,,,,,,,,,,,,,,,,,,,,,,,,,,,,,,,,,,,0,59,59,6,1,,,,,,,,,,,,,,,,,,,,,,,,
,,,,,,,,,,,,l,0.469,Correct!,,,,,,t3.png,t5.png,2,0.056466,36,Female,2020-09-28_11h06.59.469,torte-2b,2020.1.3,MacIntel,60,13319,,,,,,,,,,,,,,,,,,,,,,,,,,,,,,,,,,,,,0,60,60,14,1,,,,,,,,,,,,,,,,,,,,,,,,
,,,,,,,,,,,,l,0.526,Correct!,,,,,,t1.png,t3.png,2,0.056466,36,Female,2020-09-28_11h06.59.469,torte-2b,2020.1.3,MacIntel,60,13319,,,,,,,,,,,,,,,,,,,,,,,,,,,,,,,,,,,,,0,61,61,60,1,,,,,,,,,,,,,,,,,,,,,,,,
,,,,,,,,,,,,l,0.554,Incorrect,,,,,,t1.png,t2.png,1,0.9,36,Female,2020-09-28_11h06.59.469,torte-2b,2020.1.3,MacIntel,60,13319,,,,,,,,,,,,,,,,,,,,,,,,,,,,,,,,,,,,,0,62,62,1,1,,,,,,,,,,,,,,,,,,,,,,,,
,,,,,,,,,,,,l,0.66,Incorrect,,,,,,t4.png,t3.png,1,0.909,36,Female,2020-09-28_11h06.59.469,torte-2b,2020.1.3,MacIntel,60,13319,,,,,,,,,,,,,,,,,,,,,,,,,,,,,,,,,,,,,0,63,63,46,1,,,,,,,,,,,,,,,,,,,,,,,,
,,,,,,,,,,,,l,0.785,Incorrect,,,,,,t4.png,t5.png,1,0.90025,36,Female,2020-09-28_11h06.59.469,torte-2b,2020.1.3,MacIntel,60,13319,,,,,,,,,,,,,,,,,,,,,,,,,,,,,,,,,,,,,0,64,64,58,1,,,,,,,,,,,,,,,,,,,,,,,,
,,,,,,,,,,,,l,1.026,Correct!,,,,,,t5.png,t2.png,3,0.0000131,36,Female,2020-09-28_11h06.59.469,torte-2b,2020.1.3,MacIntel,60,13319,,,,,,,,,,,,,,,,,,,,,,,,,,,,,,,,,,,,,0,65,65,98,1,,,,,,,,,,,,,,,,,,,,,,,,
,,,,,,,,,,,,l,0.488,Correct!,,,,,,t5.png,t1.png,4,9.55E-11,36,Female,2020-09-28_11h06.59.469,torte-2b,2020.1.3,MacIntel,60,13319,,,,,,,,,,,,,,,,,,,,,,,,,,,,,,,,,,,,,0,66,66,71,1,,,,,,,,,,,,,,,,,,,,,,,,
,,,,,,,,,,,,l,0.443,Correct!,,,,,,t1.png,t5.png,4,9.55E-11,36,Female,2020-09-28_11h06.59.469,torte-2b,2020.1.3,MacIntel,60,13319,,,,,,,,,,,,,,,,,,,,,,,,,,,,,,,,,,,,,0,67,67,55,1,,,,,,,,,,,,,,,,,,,,,,,,
,,,,,,,,,,,,l,0.722,Incorrect,,,,,,t5.png,t4.png,1,0.90025,36,Female,2020-09-28_11h06.59.469,torte-2b,2020.1.3,MacIntel,60,13319,,,,,,,,,,,,,,,,,,,,,,,,,,,,,,,,,,,,,0,68,68,34,1,,,,,,,,,,,,,,,,,,,,,,,,
,,,,,,,,,,,,l,0.671,Correct!,,,,,,t1.png,t4.png,3,0.0000131,36,Female,2020-09-28_11h06.59.469,torte-2b,2020.1.3,MacIntel,60,13319,,,,,,,,,,,,,,,,,,,,,,,,,,,,,,,,,,,,,0,69,69,107,1,,,,,,,,,,,,,,,,,,,,,,,,
,,,,,,,,,,,,l,0.505,Correct!,,,,,,t3.png,t5.png,2,0.0565,36,Female,2020-09-28_11h06.59.469,torte-2b,2020.1.3,MacIntel,60,13319,,,,,,,,,,,,,,,,,,,,,,,,,,,,,,,,,,,,,0,70,70,30,1,,,,,,,,,,,,,,,,,,,,,,,,
,,,,,,,,,,,,l,0.523,Incorrect,,,,,,t3.png,t2.png,1,0.909,36,Female,2020-09-28_11h06.59.469,torte-2b,2020.1.3,MacIntel,60,13319,,,,,,,,,,,,,,,,,,,,,,,,,,,,,,,,,,,,,0,71,71,23,1,,,,,,,,,,,,,,,,,,,,,,,,
,,,,,,,,,,,,l,0.617,Incorrect,,,,,,t2.png,t3.png,1,0.909,36,Female,2020-09-28_11h06.59.469,torte-2b,2020.1.3,MacIntel,60,13319,,,,,,,,,,,,,,,,,,,,,,,,,,,,,,,,,,,,,0,72,72,74,1,,,,,,,,,,,,,,,,,,,,,,,,
,,,,,,,,,,,,l,0.627,Incorrect,,,,,,t3.png,t4.png,1,0.909,36,Female,2020-09-28_11h06.59.469,torte-2b,2020.1.3,MacIntel,60,13319,,,,,,,,,,,,,,,,,,,,,,,,,,,,,,,,,,,,,0,73,73,89,1,,,,,,,,,,,,,,,,,,,,,,,,
,,,,,,,,,,,,l,0.492,Correct!,,,,,,t2.png,t3.png,1,0.90855,36,Female,2020-09-28_11h06.59.469,torte-2b,2020.1.3,MacIntel,60,13319,,,,,,,,,,,,,,,,,,,,,,,,,,,,,,,,,,,,,0,74,74,111,1,,,,,,,,,,,,,,,,,,,,,,,,
,,,,,,,,,,,,l,0.538,Correct!,,,,,,t3.png,t1.png,2,0.056466,36,Female,2020-09-28_11h06.59.469,torte-2b,2020.1.3,MacIntel,60,13319,,,,,,,,,,,,,,,,,,,,,,,,,,,,,,,,,,,,,0,75,75,29,1,,,,,,,,,,,,,,,,,,,,,,,,
,,,,,,,,,,,,l,0.559,Incorrect,,,,,,t2.png,t1.png,1,0.90025,36,Female,2020-09-28_11h06.59.469,torte-2b,2020.1.3,MacIntel,60,13319,,,,,,,,,,,,,,,,,,,,,,,,,,,,,,,,,,,,,0,76,76,5,1,,,,,,,,,,,,,,,,,,,,,,,,
,,,,,,,,,,,,a,0.54,Correct!,,,,,,t1.png,t1.png,0,0.978,36,Female,2020-09-28_11h06.59.469,torte-2b,2020.1.3,MacIntel,60,13319,,,,,,,,,,,,,,,,,,,,,,,,,,,,,,,,,,,,,0,77,77,54,1,,,,,,,,,,,,,,,,,,,,,,,,
,,,,,,,,,,,,l,0.709,Correct!,,,,,,t5.png,t2.png,3,0.0000131,36,Female,2020-09-28_11h06.59.469,torte-2b,2020.1.3,MacIntel,60,13319,,,,,,,,,,,,,,,,,,,,,,,,,,,,,,,,,,,,,0,78,78,116,1,,,,,,,,,,,,,,,,,,,,,,,,
,,,,,,,,,,,,l,0.753,Incorrect,,,,,,t5.png,t4.png,1,0.90025,36,Female,2020-09-28_11h06.59.469,torte-2b,2020.1.3,MacIntel,60,13319,,,,,,,,,,,,,,,,,,,,,,,,,,,,,,,,,,,,,0,79,79,27,1,,,,,,,,,,,,,,,,,,,,,,,,
,,,,,,,,,,,,l,0.702,Correct!,,,,,,t4.png,t1.png,3,0.0000131,36,Female,2020-09-28_11h06.59.469,torte-2b,2020.1.3,MacIntel,60,13319,,,,,,,,,,,,,,,,,,,,,,,,,,,,,,,,,,,,,0,80,80,93,1,,,,,,,,,,,,,,,,,,,,,,,,
,,,,,,,,,,,,l,1.107,Incorrect,,,,,,t3.png,t4.png,1,0.90855,36,Female,2020-09-28_11h06.59.469,torte-2b,2020.1.3,MacIntel,60,13319,,,,,,,,,,,,,,,,,,,,,,,,,,,,,,,,,,,,,0,81,81,96,1,,,,,,,,,,,,,,,,,,,,,,,,
,,,,,,,,,,,,l,0.708,Incorrect,,,,,,t3.png,t5.png,2,0.0565,36,Female,2020-09-28_11h06.59.469,torte-2b,2020.1.3,MacIntel,60,13319,,,,,,,,,,,,,,,,,,,,,,,,,,,,,,,,,,,,,0,82,82,83,1,,,,,,,,,,,,,,,,,,,,,,,,
,,,,,,,,,,,,l,0.5,Correct!,,,,,,t5.png,t2.png,3,0.0000131,36,Female,2020-09-28_11h06.59.469,torte-2b,2020.1.3,MacIntel,60,13319,,,,,,,,,,,,,,,,,,,,,,,,,,,,,,,,,,,,,0,83,83,51,1,,,,,,,,,,,,,,,,,,,,,,,,
,,,,,,,,,,,,a,0.806,Correct!,,,,,,t4.png,t4.png,0,0.98115,36,Female,2020-09-28_11h06.59.469,torte-2b,2020.1.3,MacIntel,60,13319,,,,,,,,,,,,,,,,,,,,,,,,,,,,,,,,,,,,,0,84,84,90,1,,,,,,,,,,,,,,,,,,,,,,,,
,,,,,,,,,,,,l,0.839,Correct!,,,,,,t2.png,t5.png,3,0.0000131,36,Female,2020-09-28_11h06.59.469,torte-2b,2020.1.3,MacIntel,60,13319,,,,,,,,,,,,,,,,,,,,,,,,,,,,,,,,,,,,,0,85,85,104,1,,,,,,,,,,,,,,,,,,,,,,,,
,,,,,,,,,,,,a,0.544,Correct!,,,,,,t1.png,t1.png,0,0.97829,36,Female,2020-09-28_11h06.59.469,torte-2b,2020.1.3,MacIntel,60,13319,,,,,,,,,,,,,,,,,,,,,,,,,,,,,,,,,,,,,0,86,86,9,1,,,,,,,,,,,,,,,,,,,,,,,,
,,,,,,,,,,,,l,0.653,Incorrect,,,,,,t2.png,t1.png,1,0.9,36,Female,2020-09-28_11h06.59.469,torte-2b,2020.1.3,MacIntel,60,13319,,,,,,,,,,,,,,,,,,,,,,,,,,,,,,,,,,,,,0,87,87,118,1,,,,,,,,,,,,,,,,,,,,,,,,
,,,,,,,,,,,,l,0.692,Correct!,,,,,,t3.png,t1.png,2,0.0565,36,Female,2020-09-28_11h06.59.469,torte-2b,2020.1.3,MacIntel,60,13319,,,,,,,,,,,,,,,,,,,,,,,,,,,,,,,,,,,,,0,88,88,31,1,,,,,,,,,,,,,,,,,,,,,,,,
,,,,,,,,,,,,a,0.672,Correct!,,,,,,t5.png,t5.png,0,0.97829,36,Female,2020-09-28_11h06.59.469,torte-2b,2020.1.3,MacIntel,60,13319,,,,,,,,,,,,,,,,,,,,,,,,,,,,,,,,,,,,,0,89,89,94,1,,,,,,,,,,,,,,,,,,,,,,,,
,,,,,,,,,,,,l,0.521,Correct!,,,,,,t5.png,t3.png,2,0.056466,36,Female,2020-09-28_11h06.59.469,torte-2b,2020.1.3,MacIntel,60,13319,,,,,,,,,,,,,,,,,,,,,,,,,,,,,,,,,,,,,0,90,90,114,1,,,,,,,,,,,,,,,,,,,,,,,,
,,,,,,,,,,,,a,0.592,Correct!,,,,,,t5.png,t5.png,0,0.97829,36,Female,2020-09-28_11h06.59.469,torte-2b,2020.1.3,MacIntel,60,13319,,,,,,,,,,,,,,,,,,,,,,,,,,,,,,,,,,,,,0,91,91,25,1,,,,,,,,,,,,,,,,,,,,,,,,
,,,,,,,,,,,,l,0.606,Correct!,,,,,,t2.png,t4.png,2,0.0591,36,Female,2020-09-28_11h06.59.469,torte-2b,2020.1.3,MacIntel,60,13319,,,,,,,,,,,,,,,,,,,,,,,,,,,,,,,,,,,,,0,92,92,15,1,,,,,,,,,,,,,,,,,,,,,,,,
,,,,,,,,,,,,a,0.557,Correct!,,,,,,t4.png,t5.png,1,0.9,36,Female,2020-09-28_11h06.59.469,torte-2b,2020.1.3,MacIntel,60,13319,,,,,,,,,,,,,,,,,,,,,,,,,,,,,,,,,,,,,0,93,93,115,1,,,,,,,,,,,,,,,,,,,,,,,,
,,,,,,,,,,,,l,0.624,Incorrect,,,,,,t3.png,t4.png,1,0.909,36,Female,2020-09-28_11h06.59.469,torte-2b,2020.1.3,MacIntel,60,13319,,,,,,,,,,,,,,,,,,,,,,,,,,,,,,,,,,,,,0,94,94,106,1,,,,,,,,,,,,,,,,,,,,,,,,
,,,,,,,,,,,,l,0.686,Correct!,,,,,,t5.png,t3.png,2,0.0565,36,Female,2020-09-28_11h06.59.469,torte-2b,2020.1.3,MacIntel,60,13319,,,,,,,,,,,,,,,,,,,,,,,,,,,,,,,,,,,,,0,95,95,39,1,,,,,,,,,,,,,,,,,,,,,,,,
,,,,,,,,,,,,l,0.574,Correct!,,,,,,t1.png,t4.png,3,0.0000131,36,Female,2020-09-28_11h06.59.469,torte-2b,2020.1.3,MacIntel,60,13319,,,,,,,,,,,,,,,,,,,,,,,,,,,,,,,,,,,,,0,96,96,17,1,,,,,,,,,,,,,,,,,,,,,,,,
,,,,,,,,,,,,l,0.557,Correct!,,,,,,t2.png,t5.png,3,0.0000131,36,Female,2020-09-28_11h06.59.469,torte-2b,2020.1.3,MacIntel,60,13319,,,,,,,,,,,,,,,,,,,,,,,,,,,,,,,,,,,,,0,97,97,40,1,,,,,,,,,,,,,,,,,,,,,,,,
,,,,,,,,,,,,l,0.508,Correct!,,,,,,t1.png,t5.png,4,9.55E-11,36,Female,2020-09-28_11h06.59.469,torte-2b,2020.1.3,MacIntel,60,13319,,,,,,,,,,,,,,,,,,,,,,,,,,,,,,,,,,,,,0,98,98,41,1,,,,,,,,,,,,,,,,,,,,,,,,
,,,,,,,,,,,,l,0.436,Correct!,,,,,,t2.png,t5.png,3,0.0000131,36,Female,2020-09-28_11h06.59.469,torte-2b,2020.1.3,MacIntel,60,13319,,,,,,,,,,,,,,,,,,,,,,,,,,,,,,,,,,,,,0,99,99,95,1,,,,,,,,,,,,,,,,,,,,,,,,
,,,,,,,,,,,,a,0.669,Incorrect,,,,,,t3.png,t1.png,2,0.056466,36,Female,2020-09-28_11h06.59.469,torte-2b,2020.1.3,MacIntel,60,13319,,,,,,,,,,,,,,,,,,,,,,,,,,,,,,,,,,,,,0,100,100,32,1,,,,,,,,,,,,,,,,,,,,,,,,
,,,,,,,,,,,,l,0.658,Incorrect,,,,,,t3.png,t2.png,1,0.90855,36,Female,2020-09-28_11h06.59.469,torte-2b,2020.1.3,MacIntel,60,13319,,,,,,,,,,,,,,,,,,,,,,,,,,,,,,,,,,,,,0,101,101,97,1,,,,,,,,,,,,,,,,,,,,,,,,
,,,,,,,,,,,,a,0.81,Correct!,,,,,,t4.png,t4.png,0,0.98115,36,Female,2020-09-28_11h06.59.469,torte-2b,2020.1.3,MacIntel,60,13319,,,,,,,,,,,,,,,,,,,,,,,,,,,,,,,,,,,,,0,102,102,52,1,,,,,,,,,,,,,,,,,,,,,,,,
,,,,,,,,,,,,l,0.557,Correct!,,,,,,t1.png,t4.png,3,0.0000131,36,Female,2020-09-28_11h06.59.469,torte-2b,2020.1.3,MacIntel,60,13319,,,,,,,,,,,,,,,,,,,,,,,,,,,,,,,,,,,,,0,103,103,81,1,,,,,,,,,,,,,,,,,,,,,,,,
,,,,,,,,,,,,l,0.676,Incorrect,,,,,,t4.png,t3.png,1,0.90855,36,Female,2020-09-28_11h06.59.469,torte-2b,2020.1.3,MacIntel,60,13319,,,,,,,,,,,,,,,,,,,,,,,,,,,,,,,,,,,,,0,104,104,45,1,,,,,,,,,,,,,,,,,,,,,,,,
,,,,,,,,,,,,l,0.888,Incorrect,,,,,,t4.png,t5.png,1,0.90025,36,Female,2020-09-28_11h06.59.469,torte-2b,2020.1.3,MacIntel,60,13319,,,,,,,,,,,,,,,,,,,,,,,,,,,,,,,,,,,,,0,105,105,103,1,,,,,,,,,,,,,,,,,,,,,,,,
,,,,,,,,,,,,l,0.939,Incorrect,,,,,,t4.png,t5.png,1,0.90025,36,Female,2020-09-28_11h06.59.469,torte-2b,2020.1.3,MacIntel,60,13319,,,,,,,,,,,,,,,,,,,,,,,,,,,,,,,,,,,,,0,106,106,113,1,,,,,,,,,,,,,,,,,,,,,,,,
,,,,,,,,,,,,l,0.643,Incorrect,,,,,,t2.png,t1.png,1,0.90025,36,Female,2020-09-28_11h06.59.469,torte-2b,2020.1.3,MacIntel,60,13319,,,,,,,,,,,,,,,,,,,,,,,,,,,,,,,,,,,,,0,107,107,4,1,,,,,,,,,,,,,,,,,,,,,,,,
,,,,,,,,,,,,l,0.842,Incorrect,,,,,,t5.png,t4.png,1,0.90025,36,Female,2020-09-28_11h06.59.469,torte-2b,2020.1.3,MacIntel,60,13319,,,,,,,,,,,,,,,,,,,,,,,,,,,,,,,,,,,,,0,108,108,26,1,,,,,,,,,,,,,,,,,,,,,,,,
,,,,,,,,,,,,l,0.52,Incorrect,,,,,,t3.png,t2.png,1,0.90855,36,Female,2020-09-28_11h06.59.469,torte-2b,2020.1.3,MacIntel,60,13319,,,,,,,,,,,,,,,,,,,,,,,,,,,,,,,,,,,,,0,109,109,53,1,,,,,,,,,,,,,,,,,,,,,,,,
,,,,,,,,,,,,l,0.692,Incorrect,,,,,,t4.png,t3.png,1,0.90855,36,Female,2020-09-28_11h06.59.469,torte-2b,2020.1.3,MacIntel,60,13319,,,,,,,,,,,,,,,,,,,,,,,,,,,,,,,,,,,,,0,110,110,75,1,,,,,,,,,,,,,,,,,,,,,,,,
,,,,,,,,,,,,l,0.672,Correct!,,,,,,t4.png,t1.png,3,0.0000131,36,Female,2020-09-28_11h06.59.469,torte-2b,2020.1.3,MacIntel,60,13319,,,,,,,,,,,,,,,,,,,,,,,,,,,,,,,,,,,,,0,111,111,61,1,,,,,,,,,,,,,,,,,,,,,,,,
,,,,,,,,,,,,a,0.675,Correct!,,,,,,t1.png,t1.png,0,0.97829,36,Female,2020-09-28_11h06.59.469,torte-2b,2020.1.3,MacIntel,60,13319,,,,,,,,,,,,,,,,,,,,,,,,,,,,,,,,,,,,,0,112,112,78,1,,,,,,,,,,,,,,,,,,,,,,,,
,,,,,,,,,,,,l,0.69,Incorrect,,,,,,t1.png,t2.png,1,0.90025,36,Female,2020-09-28_11h06.59.469,torte-2b,2020.1.3,MacIntel,60,13319,,,,,,,,,,,,,,,,,,,,,,,,,,,,,,,,,,,,,0,113,113,33,1,,,,,,,,,,,,,,,,,,,,,,,,
,,,,,,,,,,,,l,0.577,Incorrect,,,,,,t2.png,t1.png,1,0.90025,36,Female,2020-09-28_11h06.59.469,torte-2b,2020.1.3,MacIntel,60,13319,,,,,,,,,,,,,,,,,,,,,,,,,,,,,,,,,,,,,0,114,114,62,1,,,,,,,,,,,,,,,,,,,,,,,,
,,,,,,,,,,,,l,0.624,Correct!,,,,,,t4.png,t1.png,3,0.0000131,36,Female,2020-09-28_11h06.59.469,torte-2b,2020.1.3,MacIntel,60,13319,,,,,,,,,,,,,,,,,,,,,,,,,,,,,,,,,,,,,0,115,115,48,1,,,,,,,,,,,,,,,,,,,,,,,,
,,,,,,,,,,,,l,0.606,Incorrect,,,,,,t4.png,t3.png,1,0.909,36,Female,2020-09-28_11h06.59.469,torte-2b,2020.1.3,MacIntel,60,13319,,,,,,,,,,,,,,,,,,,,,,,,,,,,,,,,,,,,,0,116,116,20,1,,,,,,,,,,,,,,,,,,,,,,,,
,,,,,,,,,,,,l,0.541,Correct!,,,,,,t5.png,t2.png,3,0.0000131,36,Female,2020-09-28_11h06.59.469,torte-2b,2020.1.3,MacIntel,60,13319,,,,,,,,,,,,,,,,,,,,,,,,,,,,,,,,,,,,,0,117,117,119,1,,,,,,,,,,,,,,,,,,,,,,,,
,,,,,,,,,,,,l,0.541,Correct!,,,,,,t4.png,t2.png,2,0.059078,36,Female,2020-09-28_11h06.59.469,torte-2b,2020.1.3,MacIntel,60,13319,,,,,,,,,,,,,,,,,,,,,,,,,,,,,,,,,,,,,0,118,118,110,1,,,,,,,,,,,,,,,,,,,,,,,,
,,,,,,,,,,,,a,0.555,Correct!,,,,,,t2.png,t2.png,0,0.98115,36,Female,2020-09-28_11h06.59.469,torte-2b,2020.1.3,MacIntel,60,13319,,,,,,,,,,,,,,,,,,,,,,,,,,,,,,,,,,,,,0,119,119,57,1,,,,,,,,,,,,,,,,,,,,,,,,
,,,,,,,,,,,,,,,,,,,,,,,,36,Female,2020-09-28_11h06.59.469,torte-2b,2020.1.3,MacIntel,60,13319,space,1.462,,,,,,,,,,,,,,,,,,,,,,,,,,,,,,,,,,,,,,,,35,183,1,0,0,s1,-24,26,1,0,0,t2,192,-109,1,0,0,proceed,space,13.027,space,2.63,space,0.771
