key_resp_8.keys,key_resp_8.rt,key_resp_9.keys,key_resp_9.rt,key_resp_10.keys,key_resp_10.rt,key_resp_11.keys,key_resp_11.rt,key_resp_2.keys,key_resp_2.rt,key_resp_3.keys,key_resp_3.rt,key_resp.keys,key_resp.rt,Feedback,train.thisRepN,train.thisTrialN,train.thisN,train.thisIndex,train.ran,torta_sx,torta_dx,difference,probability,age,gender,date,expName,psychopyVersion,OS,frameRate,participant,key_resp_15.keys,key_resp_15.rt,key_resp_6.keys,key_resp_6.rt,test1.thisRepN,test1.thisTrialN,test1.thisN,test1.thisIndex,test1.ran,key_resp_4.keys,key_resp_4.rt,key_resp_5.keys,key_resp_5.rt,back1.thisRepN,back1.thisTrialN,back1.thisN,back1.thisIndex,back1.ran,letter,back2.thisRepN,back2.thisTrialN,back2.thisN,back2.thisIndex,back2.ran,back3.thisRepN,back3.thisTrialN,back3.thisN,back3.thisIndex,back3.ran,back4.thisRepN,back4.thisTrialN,back4.thisN,back4.thisIndex,back4.ran,key_resp_7.keys,key_resp_7.rt,test2.thisRepN,test2.thisTrialN,test2.thisN,test2.thisIndex,test2.ran,mouse.x,mouse.y,mouse.leftButton,mouse.midButton,mouse.rightButton,mouse.clicked_name,mouse_2.x,mouse_2.y,mouse_2.leftButton,mouse_2.midButton,mouse_2.rightButton,mouse_2.clicked_name,mouse_3.x,mouse_3.y,mouse_3.leftButton,mouse_3.midButton,mouse_3.rightButton,mouse_3.clicked_name,key_resp_12.keys,key_resp_12.rt,key_resp_13.keys,key_resp_13.rt,key_resp_14.keys,key_resp_14.rt
space,2.67723,space,2.28331,space,0.66791,space,1.23605,space,20.811885,space,41.874655,a,1.467585,Correct!,0,0,0,23,1,t5.png,t4.png,1,0.90025,19,female,2020-09-28_10h39.02.218,torte-2b,2020.1.3,Win32,60,13324,,,,,,,,,,,,,,,,,,,,,,,,,,,,,,,,,,,,,,,,,,,,,,,,,,,,,,,,,,,,,,,,,
,,,,,,,,,,,,a,1.021105,Incorrect,0,1,1,27,1,t3.png,t1.png,2,0.0565,19,female,2020-09-28_10h39.02.218,torte-2b,2020.1.3,Win32,60,13324,,,,,,,,,,,,,,,,,,,,,,,,,,,,,,,,,,,,,,,,,,,,,,,,,,,,,,,,,,,,,,,,,
,,,,,,,,,,,,l,1.414,Incorrect,0,2,2,85,1,t3.png,t2.png,1,0.90855,19,female,2020-09-28_10h39.02.218,torte-2b,2020.1.3,Win32,60,13324,,,,,,,,,,,,,,,,,,,,,,,,,,,,,,,,,,,,,,,,,,,,,,,,,,,,,,,,,,,,,,,,,
,,,,,,,,,,,,a,0.59785,Incorrect,0,3,3,102,1,t4.png,t2.png,2,0.059078,19,female,2020-09-28_10h39.02.218,torte-2b,2020.1.3,Win32,60,13324,,,,,,,,,,,,,,,,,,,,,,,,,,,,,,,,,,,,,,,,,,,,,,,,,,,,,,,,,,,,,,,,,
,,,,,,,,,,,,l,1.33269,Incorrect,0,4,4,41,1,t3.png,t2.png,1,0.90855,19,female,2020-09-28_10h39.02.218,torte-2b,2020.1.3,Win32,60,13324,,,,,,,,,,,,,,,,,,,,,,,,,,,,,,,,,,,,,,,,,,,,,,,,,,,,,,,,,,,,,,,,,
,,,,,,,,,,,,l,1.14988,Incorrect,0,5,5,10,1,t2.png,t3.png,1,0.90855,19,female,2020-09-28_10h39.02.218,torte-2b,2020.1.3,Win32,60,13324,,,,,,,,,,,,,,,,,,,,,,,,,,,,,,,,,,,,,,,,,,,,,,,,,,,,,,,,,,,,,,,,,
,,,,,,,,,,,,l,0.9741,Correct!,0,6,6,20,1,t2.png,t3.png,1,0.90855,19,female,2020-09-28_10h39.02.218,torte-2b,2020.1.3,Win32,60,13324,,,,,,,,,,,,,,,,,,,,,,,,,,,,,,,,,,,,,,,,,,,,,,,,,,,,,,,,,,,,,,,,,
,,,,,,,,,,,,l,1.93489,Incorrect,0,7,7,25,1,t5.png,t5.png,0,0.97829,19,female,2020-09-28_10h39.02.218,torte-2b,2020.1.3,Win32,60,13324,,,,,,,,,,,,,,,,,,,,,,,,,,,,,,,,,,,,,,,,,,,,,,,,,,,,,,,,,,,,,,,,,
,,,,,,,,,,,,a,2.453585,Correct!,0,8,8,112,1,t1.png,t1.png,0,0.97829,19,female,2020-09-28_10h39.02.218,torte-2b,2020.1.3,Win32,60,13324,,,,,,,,,,,,,,,,,,,,,,,,,,,,,,,,,,,,,,,,,,,,,,,,,,,,,,,,,,,,,,,,,
,,,,,,,,,,,,a,1.05172,Correct!,0,9,9,34,1,t5.png,t4.png,1,0.9,19,female,2020-09-28_10h39.02.218,torte-2b,2020.1.3,Win32,60,13324,,,,,,,,,,,,,,,,,,,,,,,,,,,,,,,,,,,,,,,,,,,,,,,,,,,,,,,,,,,,,,,,,
,,,,,,,,,,,,l,1.08635,Correct!,0,10,10,11,1,t1.png,t4.png,3,0.0000131,19,female,2020-09-28_10h39.02.218,torte-2b,2020.1.3,Win32,60,13324,,,,,,,,,,,,,,,,,,,,,,,,,,,,,,,,,,,,,,,,,,,,,,,,,,,,,,,,,,,,,,,,,
,,,,,,,,,,,,a,1.42177,Correct!,0,11,11,118,1,t5.png,t5.png,0,0.978,19,female,2020-09-28_10h39.02.218,torte-2b,2020.1.3,Win32,60,13324,,,,,,,,,,,,,,,,,,,,,,,,,,,,,,,,,,,,,,,,,,,,,,,,,,,,,,,,,,,,,,,,,
,,,,,,,,,,,,a,1.167005001,Incorrect,0,12,12,56,1,t5.png,t1.png,4,9.55E-11,19,female,2020-09-28_10h39.02.218,torte-2b,2020.1.3,Win32,60,13324,,,,,,,,,,,,,,,,,,,,,,,,,,,,,,,,,,,,,,,,,,,,,,,,,,,,,,,,,,,,,,,,,
,,,,,,,,,,,,l,0.92907,Incorrect,0,13,13,44,1,t2.png,t3.png,1,0.909,19,female,2020-09-28_10h39.02.218,torte-2b,2020.1.3,Win32,60,13324,,,,,,,,,,,,,,,,,,,,,,,,,,,,,,,,,,,,,,,,,,,,,,,,,,,,,,,,,,,,,,,,,
,,,,,,,,,,,,l,1.017270001,Incorrect,0,14,14,48,1,t5.png,t5.png,0,0.97829,19,female,2020-09-28_10h39.02.218,torte-2b,2020.1.3,Win32,60,13324,,,,,,,,,,,,,,,,,,,,,,,,,,,,,,,,,,,,,,,,,,,,,,,,,,,,,,,,,,,,,,,,,
,,,,,,,,,,,,l,1.9043,Correct!,0,15,15,40,1,t1.png,t5.png,4,9.55E-11,19,female,2020-09-28_10h39.02.218,torte-2b,2020.1.3,Win32,60,13324,,,,,,,,,,,,,,,,,,,,,,,,,,,,,,,,,,,,,,,,,,,,,,,,,,,,,,,,,,,,,,,,,
,,,,,,,,,,,,a,1.68774,Incorrect,0,16,16,17,1,t1.png,t4.png,3,0.0000131,19,female,2020-09-28_10h39.02.218,torte-2b,2020.1.3,Win32,60,13324,,,,,,,,,,,,,,,,,,,,,,,,,,,,,,,,,,,,,,,,,,,,,,,,,,,,,,,,,,,,,,,,,
,,,,,,,,,,,,l,1.382584999,Incorrect,0,17,17,15,1,t3.png,t2.png,1,0.90855,19,female,2020-09-28_10h39.02.218,torte-2b,2020.1.3,Win32,60,13324,,,,,,,,,,,,,,,,,,,,,,,,,,,,,,,,,,,,,,,,,,,,,,,,,,,,,,,,,,,,,,,,,
,,,,,,,,,,,,a,0.84866,Incorrect,0,18,18,12,1,t5.png,t1.png,4,9.55E-11,19,female,2020-09-28_10h39.02.218,torte-2b,2020.1.3,Win32,60,13324,,,,,,,,,,,,,,,,,,,,,,,,,,,,,,,,,,,,,,,,,,,,,,,,,,,,,,,,,,,,,,,,,
,,,,,,,,,,,,l,1.346805,Incorrect,0,19,19,66,1,t4.png,t5.png,1,0.9,19,female,2020-09-28_10h39.02.218,torte-2b,2020.1.3,Win32,60,13324,,,,,,,,,,,,,,,,,,,,,,,,,,,,,,,,,,,,,,,,,,,,,,,,,,,,,,,,,,,,,,,,,
,,,,,,,,,,,,l,0.76934,Correct!,0,20,20,90,1,t1.png,t5.png,4,9.55E-11,19,female,2020-09-28_10h39.02.218,torte-2b,2020.1.3,Win32,60,13324,,,,,,,,,,,,,,,,,,,,,,,,,,,,,,,,,,,,,,,,,,,,,,,,,,,,,,,,,,,,,,,,,
,,,,,,,,,,,,l,1.214915,Correct!,0,21,21,106,1,t2.png,t3.png,1,0.90855,19,female,2020-09-28_10h39.02.218,torte-2b,2020.1.3,Win32,60,13324,,,,,,,,,,,,,,,,,,,,,,,,,,,,,,,,,,,,,,,,,,,,,,,,,,,,,,,,,,,,,,,,,
,,,,,,,,,,,,l,2.05289,Incorrect,0,22,22,75,1,t1.png,t1.png,0,0.97829,19,female,2020-09-28_10h39.02.218,torte-2b,2020.1.3,Win32,60,13324,,,,,,,,,,,,,,,,,,,,,,,,,,,,,,,,,,,,,,,,,,,,,,,,,,,,,,,,,,,,,,,,,
,,,,,,,,,,,,a,0.88765,Correct!,0,23,23,113,1,t5.png,t4.png,1,0.9,19,female,2020-09-28_10h39.02.218,torte-2b,2020.1.3,Win32,60,13324,,,,,,,,,,,,,,,,,,,,,,,,,,,,,,,,,,,,,,,,,,,,,,,,,,,,,,,,,,,,,,,,,
,,,,,,,,,,,,a,0.74374,Incorrect,0,24,24,103,1,t3.png,t1.png,2,0.056466,19,female,2020-09-28_10h39.02.218,torte-2b,2020.1.3,Win32,60,13324,,,,,,,,,,,,,,,,,,,,,,,,,,,,,,,,,,,,,,,,,,,,,,,,,,,,,,,,,,,,,,,,,
,,,,,,,,,,,,l,1.05578,Incorrect,0,25,25,7,1,t4.png,t5.png,1,0.90025,19,female,2020-09-28_10h39.02.218,torte-2b,2020.1.3,Win32,60,13324,,,,,,,,,,,,,,,,,,,,,,,,,,,,,,,,,,,,,,,,,,,,,,,,,,,,,,,,,,,,,,,,,
,,,,,,,,,,,,l,0.96903,Correct!,0,26,26,89,1,t1.png,t4.png,3,0.0000131,19,female,2020-09-28_10h39.02.218,torte-2b,2020.1.3,Win32,60,13324,,,,,,,,,,,,,,,,,,,,,,,,,,,,,,,,,,,,,,,,,,,,,,,,,,,,,,,,,,,,,,,,,
,,,,,,,,,,,,a,1.622135,Correct!,0,27,27,71,1,t5.png,t5.png,0,0.97829,19,female,2020-09-28_10h39.02.218,torte-2b,2020.1.3,Win32,60,13324,,,,,,,,,,,,,,,,,,,,,,,,,,,,,,,,,,,,,,,,,,,,,,,,,,,,,,,,,,,,,,,,,
,,,,,,,,,,,,l,0.747660001,Incorrect,0,28,28,63,1,t2.png,t3.png,1,0.909,19,female,2020-09-28_10h39.02.218,torte-2b,2020.1.3,Win32,60,13324,,,,,,,,,,,,,,,,,,,,,,,,,,,,,,,,,,,,,,,,,,,,,,,,,,,,,,,,,,,,,,,,,
,,,,,,,,,,,,l,1.13979,Correct!,0,29,29,47,1,t4.png,t2.png,2,0.059078,19,female,2020-09-28_10h39.02.218,torte-2b,2020.1.3,Win32,60,13324,,,,,,,,,,,,,,,,,,,,,,,,,,,,,,,,,,,,,,,,,,,,,,,,,,,,,,,,,,,,,,,,,
,,,,,,,,,,,,,,Too slow :(,0,30,30,96,1,t1.png,t1.png,0,0.97829,19,female,2020-09-28_10h39.02.218,torte-2b,2020.1.3,Win32,60,13324,,,,,,,,,,,,,,,,,,,,,,,,,,,,,,,,,,,,,,,,,,,,,,,,,,,,,,,,,,,,,,,,,
,,,,,,,,,,,,l,0.882395,Correct!,0,31,31,60,1,t2.png,t4.png,2,0.059078,19,female,2020-09-28_10h39.02.218,torte-2b,2020.1.3,Win32,60,13324,,,,,,,,,,,,,,,,,,,,,,,,,,,,,,,,,,,,,,,,,,,,,,,,,,,,,,,,,,,,,,,,,
,,,,,,,,,,,,l,0.682019999,Correct!,0,32,32,93,1,t2.png,t4.png,2,0.059078,19,female,2020-09-28_10h39.02.218,torte-2b,2020.1.3,Win32,60,13324,,,,,,,,,,,,,,,,,,,,,,,,,,,,,,,,,,,,,,,,,,,,,,,,,,,,,,,,,,,,,,,,,
,,,,,,,,,,,,l,0.630524999,Correct!,0,33,33,6,1,t1.png,t4.png,3,0.0000131,19,female,2020-09-28_10h39.02.218,torte-2b,2020.1.3,Win32,60,13324,,,,,,,,,,,,,,,,,,,,,,,,,,,,,,,,,,,,,,,,,,,,,,,,,,,,,,,,,,,,,,,,,
,,,,,,,,,,,,l,1.574745,Incorrect,0,34,34,21,1,t5.png,t4.png,1,0.90025,19,female,2020-09-28_10h39.02.218,torte-2b,2020.1.3,Win32,60,13324,,,,,,,,,,,,,,,,,,,,,,,,,,,,,,,,,,,,,,,,,,,,,,,,,,,,,,,,,,,,,,,,,
,,,,,,,,,,,,a,0.890205001,Correct!,0,35,35,58,1,t5.png,t4.png,1,0.90025,19,female,2020-09-28_10h39.02.218,torte-2b,2020.1.3,Win32,60,13324,,,,,,,,,,,,,,,,,,,,,,,,,,,,,,,,,,,,,,,,,,,,,,,,,,,,,,,,,,,,,,,,,
,,,,,,,,,,,,a,0.868890001,Correct!,0,36,36,79,1,t3.png,t2.png,1,0.909,19,female,2020-09-28_10h39.02.218,torte-2b,2020.1.3,Win32,60,13324,,,,,,,,,,,,,,,,,,,,,,,,,,,,,,,,,,,,,,,,,,,,,,,,,,,,,,,,,,,,,,,,,
,,,,,,,,,,,,l,1.057705,Correct!,0,37,37,99,1,t1.png,t5.png,4,9.55E-11,19,female,2020-09-28_10h39.02.218,torte-2b,2020.1.3,Win32,60,13324,,,,,,,,,,,,,,,,,,,,,,,,,,,,,,,,,,,,,,,,,,,,,,,,,,,,,,,,,,,,,,,,,
,,,,,,,,,,,,a,1.235405,Correct!,0,38,38,13,1,t5.png,t5.png,0,0.97829,19,female,2020-09-28_10h39.02.218,torte-2b,2020.1.3,Win32,60,13324,,,,,,,,,,,,,,,,,,,,,,,,,,,,,,,,,,,,,,,,,,,,,,,,,,,,,,,,,,,,,,,,,
,,,,,,,,,,,,l,0.965195,Correct!,0,39,39,98,1,t2.png,t4.png,2,0.0591,19,female,2020-09-28_10h39.02.218,torte-2b,2020.1.3,Win32,60,13324,,,,,,,,,,,,,,,,,,,,,,,,,,,,,,,,,,,,,,,,,,,,,,,,,,,,,,,,,,,,,,,,,
,,,,,,,,,,,,a,0.46718,Incorrect,0,40,40,87,1,t5.png,t1.png,4,9.55E-11,19,female,2020-09-28_10h39.02.218,torte-2b,2020.1.3,Win32,60,13324,,,,,,,,,,,,,,,,,,,,,,,,,,,,,,,,,,,,,,,,,,,,,,,,,,,,,,,,,,,,,,,,,
,,,,,,,,,,,,l,1.04293,Incorrect,0,41,41,105,1,t3.png,t2.png,1,0.90855,19,female,2020-09-28_10h39.02.218,torte-2b,2020.1.3,Win32,60,13324,,,,,,,,,,,,,,,,,,,,,,,,,,,,,,,,,,,,,,,,,,,,,,,,,,,,,,,,,,,,,,,,,
,,,,,,,,,,,,a,0.499729999,Incorrect,0,42,42,43,1,t4.png,t2.png,2,0.059078,19,female,2020-09-28_10h39.02.218,torte-2b,2020.1.3,Win32,60,13324,,,,,,,,,,,,,,,,,,,,,,,,,,,,,,,,,,,,,,,,,,,,,,,,,,,,,,,,,,,,,,,,,
,,,,,,,,,,,,a,0.69272,Incorrect,0,43,43,53,1,t3.png,t1.png,2,0.056466,19,female,2020-09-28_10h39.02.218,torte-2b,2020.1.3,Win32,60,13324,,,,,,,,,,,,,,,,,,,,,,,,,,,,,,,,,,,,,,,,,,,,,,,,,,,,,,,,,,,,,,,,,
,,,,,,,,,,,,l,0.53886,Correct!,0,44,44,3,1,t1.png,t5.png,4,9.55E-11,19,female,2020-09-28_10h39.02.218,torte-2b,2020.1.3,Win32,60,13324,,,,,,,,,,,,,,,,,,,,,,,,,,,,,,,,,,,,,,,,,,,,,,,,,,,,,,,,,,,,,,,,,
,,,,,,,,,,,,l,1.200815,Incorrect,0,45,45,16,1,t5.png,t4.png,1,0.9,19,female,2020-09-28_10h39.02.218,torte-2b,2020.1.3,Win32,60,13324,,,,,,,,,,,,,,,,,,,,,,,,,,,,,,,,,,,,,,,,,,,,,,,,,,,,,,,,,,,,,,,,,
,,,,,,,,,,,,l,0.651424999,Correct!,0,46,46,4,1,t1.png,t5.png,4,9.55E-11,19,female,2020-09-28_10h39.02.218,torte-2b,2020.1.3,Win32,60,13324,,,,,,,,,,,,,,,,,,,,,,,,,,,,,,,,,,,,,,,,,,,,,,,,,,,,,,,,,,,,,,,,,
,,,,,,,,,,,,l,0.59856,Correct!,0,47,47,54,1,t1.png,t5.png,4,9.55E-11,19,female,2020-09-28_10h39.02.218,torte-2b,2020.1.3,Win32,60,13324,,,,,,,,,,,,,,,,,,,,,,,,,,,,,,,,,,,,,,,,,,,,,,,,,,,,,,,,,,,,,,,,,
,,,,,,,,,,,,l,0.52164,Correct!,0,48,48,119,1,t1.png,t5.png,4,9.55E-11,19,female,2020-09-28_10h39.02.218,torte-2b,2020.1.3,Win32,60,13324,,,,,,,,,,,,,,,,,,,,,,,,,,,,,,,,,,,,,,,,,,,,,,,,,,,,,,,,,,,,,,,,,
,,,,,,,,,,,,l,0.4144,Correct!,0,49,49,80,1,t1.png,t4.png,3,0.0000131,19,female,2020-09-28_10h39.02.218,torte-2b,2020.1.3,Win32,60,13324,,,,,,,,,,,,,,,,,,,,,,,,,,,,,,,,,,,,,,,,,,,,,,,,,,,,,,,,,,,,,,,,,
,,,,,,,,,,,,a,1.118330001,Correct!,0,50,50,29,1,t5.png,t5.png,0,0.97829,19,female,2020-09-28_10h39.02.218,torte-2b,2020.1.3,Win32,60,13324,,,,,,,,,,,,,,,,,,,,,,,,,,,,,,,,,,,,,,,,,,,,,,,,,,,,,,,,,,,,,,,,,
,,,,,,,,,,,,a,0.816745,Correct!,0,51,51,70,1,t5.png,t5.png,0,0.978,19,female,2020-09-28_10h39.02.218,torte-2b,2020.1.3,Win32,60,13324,,,,,,,,,,,,,,,,,,,,,,,,,,,,,,,,,,,,,,,,,,,,,,,,,,,,,,,,,,,,,,,,,
,,,,,,,,,,,,l,1.59832,Incorrect,0,52,52,5,1,t2.png,t4.png,2,0.059078,19,female,2020-09-28_10h39.02.218,torte-2b,2020.1.3,Win32,60,13324,,,,,,,,,,,,,,,,,,,,,,,,,,,,,,,,,,,,,,,,,,,,,,,,,,,,,,,,,,,,,,,,,
,,,,,,,,,,,,a,0.60727,Incorrect,0,53,53,108,1,t5.png,t1.png,4,9.55E-11,19,female,2020-09-28_10h39.02.218,torte-2b,2020.1.3,Win32,60,13324,,,,,,,,,,,,,,,,,,,,,,,,,,,,,,,,,,,,,,,,,,,,,,,,,,,,,,,,,,,,,,,,,
,,,,,,,,,,,,l,0.40092,Correct!,0,54,54,1,1,t2.png,t4.png,2,0.059078,19,female,2020-09-28_10h39.02.218,torte-2b,2020.1.3,Win32,60,13324,,,,,,,,,,,,,,,,,,,,,,,,,,,,,,,,,,,,,,,,,,,,,,,,,,,,,,,,,,,,,,,,,
,,,,,,,,,,,,a,0.509345,Incorrect,0,55,55,36,1,t3.png,t1.png,2,0.0565,19,female,2020-09-28_10h39.02.218,torte-2b,2020.1.3,Win32,60,13324,,,,,,,,,,,,,,,,,,,,,,,,,,,,,,,,,,,,,,,,,,,,,,,,,,,,,,,,,,,,,,,,,
,,,,,,,,,,,,l,0.648535,Incorrect,0,56,56,110,1,t4.png,t5.png,1,0.90025,19,female,2020-09-28_10h39.02.218,torte-2b,2020.1.3,Win32,60,13324,,,,,,,,,,,,,,,,,,,,,,,,,,,,,,,,,,,,,,,,,,,,,,,,,,,,,,,,,,,,,,,,,
,,,,,,,,,,,,a,0.452395,Incorrect,0,57,57,51,1,t3.png,t1.png,2,0.056466,19,female,2020-09-28_10h39.02.218,torte-2b,2020.1.3,Win32,60,13324,,,,,,,,,,,,,,,,,,,,,,,,,,,,,,,,,,,,,,,,,,,,,,,,,,,,,,,,,,,,,,,,,
,,,,,,,,,,,,l,0.58254,Incorrect,0,58,58,92,1,t2.png,t3.png,1,0.909,19,female,2020-09-28_10h39.02.218,torte-2b,2020.1.3,Win32,60,13324,,,,,,,,,,,,,,,,,,,,,,,,,,,,,,,,,,,,,,,,,,,,,,,,,,,,,,,,,,,,,,,,,
,,,,,,,,,,,,a,0.703595,Incorrect,0,59,59,94,1,t5.png,t1.png,4,9.55E-11,19,female,2020-09-28_10h39.02.218,torte-2b,2020.1.3,Win32,60,13324,,,,,,,,,,,,,,,,,,,,,,,,,,,,,,,,,,,,,,,,,,,,,,,,,,,,,,,,,,,,,,,,,
,,,,,,,,,,,,l,0.732355,Incorrect,0,60,60,101,1,t4.png,t5.png,1,0.90025,19,female,2020-09-28_10h39.02.218,torte-2b,2020.1.3,Win32,60,13324,,,,,,,,,,,,,,,,,,,,,,,,,,,,,,,,,,,,,,,,,,,,,,,,,,,,,,,,,,,,,,,,,
,,,,,,,,,,,,l,0.77406,Correct!,0,61,61,61,1,t1.png,t4.png,3,0.0000131,19,female,2020-09-28_10h39.02.218,torte-2b,2020.1.3,Win32,60,13324,,,,,,,,,,,,,,,,,,,,,,,,,,,,,,,,,,,,,,,,,,,,,,,,,,,,,,,,,,,,,,,,,
,,,,,,,,,,,,l,0.807395,Correct!,0,62,62,68,1,t1.png,t4.png,3,0.0000131,19,female,2020-09-28_10h39.02.218,torte-2b,2020.1.3,Win32,60,13324,,,,,,,,,,,,,,,,,,,,,,,,,,,,,,,,,,,,,,,,,,,,,,,,,,,,,,,,,,,,,,,,,
,,,,,,,,,,,,l,0.482515,Correct!,0,63,63,67,1,t1.png,t5.png,4,9.55E-11,19,female,2020-09-28_10h39.02.218,torte-2b,2020.1.3,Win32,60,13324,,,,,,,,,,,,,,,,,,,,,,,,,,,,,,,,,,,,,,,,,,,,,,,,,,,,,,,,,,,,,,,,,
,,,,,,,,,,,,a,1.06816,Correct!,0,64,64,32,1,t4.png,t5.png,1,0.90025,19,female,2020-09-28_10h39.02.218,torte-2b,2020.1.3,Win32,60,13324,,,,,,,,,,,,,,,,,,,,,,,,,,,,,,,,,,,,,,,,,,,,,,,,,,,,,,,,,,,,,,,,,
,,,,,,,,,,,,l,1.298355,Correct!,0,65,65,26,1,t4.png,t2.png,2,0.0591,19,female,2020-09-28_10h39.02.218,torte-2b,2020.1.3,Win32,60,13324,,,,,,,,,,,,,,,,,,,,,,,,,,,,,,,,,,,,,,,,,,,,,,,,,,,,,,,,,,,,,,,,,
,,,,,,,,,,,,a,1.160205,Correct!,0,66,66,65,1,t4.png,t5.png,1,0.90025,19,female,2020-09-28_10h39.02.218,torte-2b,2020.1.3,Win32,60,13324,,,,,,,,,,,,,,,,,,,,,,,,,,,,,,,,,,,,,,,,,,,,,,,,,,,,,,,,,,,,,,,,,
,,,,,,,,,,,,l,0.753564999,Correct!,0,67,67,86,1,t3.png,t1.png,2,0.056466,19,female,2020-09-28_10h39.02.218,torte-2b,2020.1.3,Win32,60,13324,,,,,,,,,,,,,,,,,,,,,,,,,,,,,,,,,,,,,,,,,,,,,,,,,,,,,,,,,,,,,,,,,
,,,,,,,,,,,,a,0.6761,Incorrect,0,68,68,46,1,t4.png,t2.png,2,0.059078,19,female,2020-09-28_10h39.02.218,torte-2b,2020.1.3,Win32,60,13324,,,,,,,,,,,,,,,,,,,,,,,,,,,,,,,,,,,,,,,,,,,,,,,,,,,,,,,,,,,,,,,,,
,,,,,,,,,,,,l,0.59178,Correct!,0,69,69,115,1,t2.png,t4.png,2,0.059078,19,female,2020-09-28_10h39.02.218,torte-2b,2020.1.3,Win32,60,13324,,,,,,,,,,,,,,,,,,,,,,,,,,,,,,,,,,,,,,,,,,,,,,,,,,,,,,,,,,,,,,,,,
,,,,,,,,,,,,l,0.807695,Correct!,0,70,70,30,1,t3.png,t1.png,2,0.056466,19,female,2020-09-28_10h39.02.218,torte-2b,2020.1.3,Win32,60,13324,,,,,,,,,,,,,,,,,,,,,,,,,,,,,,,,,,,,,,,,,,,,,,,,,,,,,,,,,,,,,,,,,
,,,,,,,,,,,,l,0.60748,Correct!,0,71,71,37,1,t1.png,t4.png,3,0.0000131,19,female,2020-09-28_10h39.02.218,torte-2b,2020.1.3,Win32,60,13324,,,,,,,,,,,,,,,,,,,,,,,,,,,,,,,,,,,,,,,,,,,,,,,,,,,,,,,,,,,,,,,,,
,,,,,,,,,,,,l,0.96965,Correct!,0,72,72,72,1,t4.png,t2.png,2,0.059078,19,female,2020-09-28_10h39.02.218,torte-2b,2020.1.3,Win32,60,13324,,,,,,,,,,,,,,,,,,,,,,,,,,,,,,,,,,,,,,,,,,,,,,,,,,,,,,,,,,,,,,,,,
,,,,,,,,,,,,a,1.390705,Correct!,0,73,73,64,1,t1.png,t1.png,0,0.978,19,female,2020-09-28_10h39.02.218,torte-2b,2020.1.3,Win32,60,13324,,,,,,,,,,,,,,,,,,,,,,,,,,,,,,,,,,,,,,,,,,,,,,,,,,,,,,,,,,,,,,,,,
,,,,,,,,,,,,l,1.26714,Incorrect,0,74,74,100,1,t4.png,t5.png,1,0.90025,19,female,2020-09-28_10h39.02.218,torte-2b,2020.1.3,Win32,60,13324,,,,,,,,,,,,,,,,,,,,,,,,,,,,,,,,,,,,,,,,,,,,,,,,,,,,,,,,,,,,,,,,,
,,,,,,,,,,,,l,1.166135,Correct!,0,75,75,69,1,t4.png,t2.png,2,0.059078,19,female,2020-09-28_10h39.02.218,torte-2b,2020.1.3,Win32,60,13324,,,,,,,,,,,,,,,,,,,,,,,,,,,,,,,,,,,,,,,,,,,,,,,,,,,,,,,,,,,,,,,,,
,,,,,,,,,,,,a,0.917455,Correct!,0,76,76,81,1,t1.png,t1.png,0,0.97829,19,female,2020-09-28_10h39.02.218,torte-2b,2020.1.3,Win32,60,13324,,,,,,,,,,,,,,,,,,,,,,,,,,,,,,,,,,,,,,,,,,,,,,,,,,,,,,,,,,,,,,,,,
,,,,,,,,,,,,l,1.04795,Correct!,0,77,77,18,1,t4.png,t5.png,1,0.90025,19,female,2020-09-28_10h39.02.218,torte-2b,2020.1.3,Win32,60,13324,,,,,,,,,,,,,,,,,,,,,,,,,,,,,,,,,,,,,,,,,,,,,,,,,,,,,,,,,,,,,,,,,
,,,,,,,,,,,,a,1.067124999,Incorrect,0,78,78,117,1,t1.png,t5.png,4,9.55E-11,19,female,2020-09-28_10h39.02.218,torte-2b,2020.1.3,Win32,60,13324,,,,,,,,,,,,,,,,,,,,,,,,,,,,,,,,,,,,,,,,,,,,,,,,,,,,,,,,,,,,,,,,,
,,,,,,,,,,,,a,0.620445,Incorrect,0,79,79,50,1,t5.png,t1.png,4,9.55E-11,19,female,2020-09-28_10h39.02.218,torte-2b,2020.1.3,Win32,60,13324,,,,,,,,,,,,,,,,,,,,,,,,,,,,,,,,,,,,,,,,,,,,,,,,,,,,,,,,,,,,,,,,,
,,,,,,,,,,,,a,1.739255001,Correct!,0,80,80,104,1,t2.png,t3.png,1,0.90855,19,female,2020-09-28_10h39.02.218,torte-2b,2020.1.3,Win32,60,13324,,,,,,,,,,,,,,,,,,,,,,,,,,,,,,,,,,,,,,,,,,,,,,,,,,,,,,,,,,,,,,,,,
,,,,,,,,,,,,l,1.332125,Incorrect,0,81,81,97,1,t5.png,t5.png,0,0.97829,19,female,2020-09-28_10h39.02.218,torte-2b,2020.1.3,Win32,60,13324,,,,,,,,,,,,,,,,,,,,,,,,,,,,,,,,,,,,,,,,,,,,,,,,,,,,,,,,,,,,,,,,,
,,,,,,,,,,,,l,1.365035,Correct!,0,82,82,14,1,t2.png,t4.png,2,0.059078,19,female,2020-09-28_10h39.02.218,torte-2b,2020.1.3,Win32,60,13324,,,,,,,,,,,,,,,,,,,,,,,,,,,,,,,,,,,,,,,,,,,,,,,,,,,,,,,,,,,,,,,,,
,,,,,,,,,,,,l,2.256715,Incorrect,0,83,83,116,1,t5.png,t4.png,1,0.90025,19,female,2020-09-28_10h39.02.218,torte-2b,2020.1.3,Win32,60,13324,,,,,,,,,,,,,,,,,,,,,,,,,,,,,,,,,,,,,,,,,,,,,,,,,,,,,,,,,,,,,,,,,
,,,,,,,,,,,,l,1.01469,Correct!,0,84,84,38,1,t3.png,t1.png,2,0.056466,19,female,2020-09-28_10h39.02.218,torte-2b,2020.1.3,Win32,60,13324,,,,,,,,,,,,,,,,,,,,,,,,,,,,,,,,,,,,,,,,,,,,,,,,,,,,,,,,,,,,,,,,,
,,,,,,,,,,,,a,0.903515,Correct!,0,85,85,42,1,t5.png,t4.png,1,0.90025,19,female,2020-09-28_10h39.02.218,torte-2b,2020.1.3,Win32,60,13324,,,,,,,,,,,,,,,,,,,,,,,,,,,,,,,,,,,,,,,,,,,,,,,,,,,,,,,,,,,,,,,,,
,,,,,,,,,,,,l,1.06642,Correct!,0,86,86,88,1,t3.png,t1.png,2,0.056466,19,female,2020-09-28_10h39.02.218,torte-2b,2020.1.3,Win32,60,13324,,,,,,,,,,,,,,,,,,,,,,,,,,,,,,,,,,,,,,,,,,,,,,,,,,,,,,,,,,,,,,,,,
,,,,,,,,,,,,a,1.56207,Incorrect,0,87,87,55,1,t2.png,t4.png,2,0.059078,19,female,2020-09-28_10h39.02.218,torte-2b,2020.1.3,Win32,60,13324,,,,,,,,,,,,,,,,,,,,,,,,,,,,,,,,,,,,,,,,,,,,,,,,,,,,,,,,,,,,,,,,,
,,,,,,,,,,,,l,0.789635,Correct!,0,88,88,82,1,t5.png,t1.png,4,9.55E-11,19,female,2020-09-28_10h39.02.218,torte-2b,2020.1.3,Win32,60,13324,,,,,,,,,,,,,,,,,,,,,,,,,,,,,,,,,,,,,,,,,,,,,,,,,,,,,,,,,,,,,,,,,
,,,,,,,,,,,,l,1.036675,Incorrect,0,89,89,74,1,t5.png,t4.png,1,0.9,19,female,2020-09-28_10h39.02.218,torte-2b,2020.1.3,Win32,60,13324,,,,,,,,,,,,,,,,,,,,,,,,,,,,,,,,,,,,,,,,,,,,,,,,,,,,,,,,,,,,,,,,,
,,,,,,,,,,,,l,0.956955,Incorrect,0,90,90,2,1,t3.png,t2.png,1,0.90855,19,female,2020-09-28_10h39.02.218,torte-2b,2020.1.3,Win32,60,13324,,,,,,,,,,,,,,,,,,,,,,,,,,,,,,,,,,,,,,,,,,,,,,,,,,,,,,,,,,,,,,,,,
,,,,,,,,,,,,a,0.717095001,Incorrect,0,91,91,24,1,t4.png,t2.png,2,0.059078,19,female,2020-09-28_10h39.02.218,torte-2b,2020.1.3,Win32,60,13324,,,,,,,,,,,,,,,,,,,,,,,,,,,,,,,,,,,,,,,,,,,,,,,,,,,,,,,,,,,,,,,,,
,,,,,,,,,,,,l,0.555079999,Correct!,0,92,92,19,1,t4.png,t2.png,2,0.059078,19,female,2020-09-28_10h39.02.218,torte-2b,2020.1.3,Win32,60,13324,,,,,,,,,,,,,,,,,,,,,,,,,,,,,,,,,,,,,,,,,,,,,,,,,,,,,,,,,,,,,,,,,
,,,,,,,,,,,,l,0.625655,Incorrect,0,93,93,39,1,t3.png,t2.png,1,0.90855,19,female,2020-09-28_10h39.02.218,torte-2b,2020.1.3,Win32,60,13324,,,,,,,,,,,,,,,,,,,,,,,,,,,,,,,,,,,,,,,,,,,,,,,,,,,,,,,,,,,,,,,,,
,,,,,,,,,,,,l,1.30011,Correct!,0,94,94,0,1,t5.png,t1.png,4,9.55E-11,19,female,2020-09-28_10h39.02.218,torte-2b,2020.1.3,Win32,60,13324,,,,,,,,,,,,,,,,,,,,,,,,,,,,,,,,,,,,,,,,,,,,,,,,,,,,,,,,,,,,,,,,,
,,,,,,,,,,,,a,0.815365,Correct!,0,95,95,28,1,t2.png,t3.png,1,0.909,19,female,2020-09-28_10h39.02.218,torte-2b,2020.1.3,Win32,60,13324,,,,,,,,,,,,,,,,,,,,,,,,,,,,,,,,,,,,,,,,,,,,,,,,,,,,,,,,,,,,,,,,,
,,,,,,,,,,,,a,1.03459,Correct!,0,96,96,84,1,t1.png,t1.png,0,0.97829,19,female,2020-09-28_10h39.02.218,torte-2b,2020.1.3,Win32,60,13324,,,,,,,,,,,,,,,,,,,,,,,,,,,,,,,,,,,,,,,,,,,,,,,,,,,,,,,,,,,,,,,,,
,,,,,,,,,,,,l,0.957289999,Correct!,0,97,97,33,1,t5.png,t1.png,4,9.55E-11,19,female,2020-09-28_10h39.02.218,torte-2b,2020.1.3,Win32,60,13324,,,,,,,,,,,,,,,,,,,,,,,,,,,,,,,,,,,,,,,,,,,,,,,,,,,,,,,,,,,,,,,,,
,,,,,,,,,,,,a,0.981575,Correct!,0,98,98,78,1,t1.png,t1.png,0,0.978,19,female,2020-09-28_10h39.02.218,torte-2b,2020.1.3,Win32,60,13324,,,,,,,,,,,,,,,,,,,,,,,,,,,,,,,,,,,,,,,,,,,,,,,,,,,,,,,,,,,,,,,,,
,,,,,,,,,,,,l,0.80633,Incorrect,0,99,99,8,1,t3.png,t2.png,1,0.90855,19,female,2020-09-28_10h39.02.218,torte-2b,2020.1.3,Win32,60,13324,,,,,,,,,,,,,,,,,,,,,,,,,,,,,,,,,,,,,,,,,,,,,,,,,,,,,,,,,,,,,,,,,
,,,,,,,,,,,,l,0.68289,Incorrect,0,100,100,114,1,t2.png,t3.png,1,0.90855,19,female,2020-09-28_10h39.02.218,torte-2b,2020.1.3,Win32,60,13324,,,,,,,,,,,,,,,,,,,,,,,,,,,,,,,,,,,,,,,,,,,,,,,,,,,,,,,,,,,,,,,,,
,,,,,,,,,,,,a,1.365,Incorrect,0,101,101,35,1,t1.png,t4.png,3,0.0000131,19,female,2020-09-28_10h39.02.218,torte-2b,2020.1.3,Win32,60,13324,,,,,,,,,,,,,,,,,,,,,,,,,,,,,,,,,,,,,,,,,,,,,,,,,,,,,,,,,,,,,,,,,
,,,,,,,,,,,,l,0.58359,Incorrect,0,102,102,52,1,t2.png,t4.png,2,0.059078,19,female,2020-09-28_10h39.02.218,torte-2b,2020.1.3,Win32,60,13324,,,,,,,,,,,,,,,,,,,,,,,,,,,,,,,,,,,,,,,,,,,,,,,,,,,,,,,,,,,,,,,,,
,,,,,,,,,,,,l,0.80048,Incorrect,0,103,103,77,1,t1.png,t1.png,0,0.97829,19,female,2020-09-28_10h39.02.218,torte-2b,2020.1.3,Win32,60,13324,,,,,,,,,,,,,,,,,,,,,,,,,,,,,,,,,,,,,,,,,,,,,,,,,,,,,,,,,,,,,,,,,
,,,,,,,,,,,,l,0.552365,Incorrect,0,104,104,45,1,t3.png,t2.png,1,0.90855,19,female,2020-09-28_10h39.02.218,torte-2b,2020.1.3,Win32,60,13324,,,,,,,,,,,,,,,,,,,,,,,,,,,,,,,,,,,,,,,,,,,,,,,,,,,,,,,,,,,,,,,,,
,,,,,,,,,,,,a,0.569375,Incorrect,0,105,105,91,1,t1.png,t4.png,3,0.0000131,19,female,2020-09-28_10h39.02.218,torte-2b,2020.1.3,Win32,60,13324,,,,,,,,,,,,,,,,,,,,,,,,,,,,,,,,,,,,,,,,,,,,,,,,,,,,,,,,,,,,,,,,,
,,,,,,,,,,,,l,0.566339999,Incorrect,0,106,106,22,1,t2.png,t3.png,1,0.90855,19,female,2020-09-28_10h39.02.218,torte-2b,2020.1.3,Win32,60,13324,,,,,,,,,,,,,,,,,,,,,,,,,,,,,,,,,,,,,,,,,,,,,,,,,,,,,,,,,,,,,,,,,
,,,,,,,,,,,,l,0.675070001,Correct!,0,107,107,111,1,t5.png,t1.png,4,9.55E-11,19,female,2020-09-28_10h39.02.218,torte-2b,2020.1.3,Win32,60,13324,,,,,,,,,,,,,,,,,,,,,,,,,,,,,,,,,,,,,,,,,,,,,,,,,,,,,,,,,,,,,,,,,
,,,,,,,,,,,,l,1.04795,Incorrect,0,108,108,76,1,t3.png,t2.png,1,0.90855,19,female,2020-09-28_10h39.02.218,torte-2b,2020.1.3,Win32,60,13324,,,,,,,,,,,,,,,,,,,,,,,,,,,,,,,,,,,,,,,,,,,,,,,,,,,,,,,,,,,,,,,,,
,,,,,,,,,,,,a,0.39798,Correct!,0,109,109,9,1,t4.png,t5.png,1,0.9,19,female,2020-09-28_10h39.02.218,torte-2b,2020.1.3,Win32,60,13324,,,,,,,,,,,,,,,,,,,,,,,,,,,,,,,,,,,,,,,,,,,,,,,,,,,,,,,,,,,,,,,,,
,,,,,,,,,,,,l,0.955955001,Incorrect,0,110,110,59,1,t5.png,t4.png,1,0.9,19,female,2020-09-28_10h39.02.218,torte-2b,2020.1.3,Win32,60,13324,,,,,,,,,,,,,,,,,,,,,,,,,,,,,,,,,,,,,,,,,,,,,,,,,,,,,,,,,,,,,,,,,
,,,,,,,,,,,,a,0.350815,Incorrect,0,111,111,83,1,t3.png,t1.png,2,0.056466,19,female,2020-09-28_10h39.02.218,torte-2b,2020.1.3,Win32,60,13324,,,,,,,,,,,,,,,,,,,,,,,,,,,,,,,,,,,,,,,,,,,,,,,,,,,,,,,,,,,,,,,,,
,,,,,,,,,,,,l,0.589740001,Correct!,0,112,112,57,1,t2.png,t4.png,2,0.059078,19,female,2020-09-28_10h39.02.218,torte-2b,2020.1.3,Win32,60,13324,,,,,,,,,,,,,,,,,,,,,,,,,,,,,,,,,,,,,,,,,,,,,,,,,,,,,,,,,,,,,,,,,
,,,,,,,,,,,,l,0.522875,Incorrect,0,113,113,107,1,t1.png,t1.png,0,0.978,19,female,2020-09-28_10h39.02.218,torte-2b,2020.1.3,Win32,60,13324,,,,,,,,,,,,,,,,,,,,,,,,,,,,,,,,,,,,,,,,,,,,,,,,,,,,,,,,,,,,,,,,,
,,,,,,,,,,,,a,0.564975,Incorrect,0,114,114,73,1,t4.png,t2.png,2,0.059078,19,female,2020-09-28_10h39.02.218,torte-2b,2020.1.3,Win32,60,13324,,,,,,,,,,,,,,,,,,,,,,,,,,,,,,,,,,,,,,,,,,,,,,,,,,,,,,,,,,,,,,,,,
,,,,,,,,,,,,a,0.368225,Correct!,0,115,115,95,1,t1.png,t1.png,0,0.978,19,female,2020-09-28_10h39.02.218,torte-2b,2020.1.3,Win32,60,13324,,,,,,,,,,,,,,,,,,,,,,,,,,,,,,,,,,,,,,,,,,,,,,,,,,,,,,,,,,,,,,,,,
,,,,,,,,,,,,l,0.672885001,Correct!,0,116,116,31,1,t1.png,t5.png,4,9.55E-11,19,female,2020-09-28_10h39.02.218,torte-2b,2020.1.3,Win32,60,13324,,,,,,,,,,,,,,,,,,,,,,,,,,,,,,,,,,,,,,,,,,,,,,,,,,,,,,,,,,,,,,,,,
,,,,,,,,,,,,a,1.767135,Correct!,0,117,117,62,1,t5.png,t5.png,0,0.978,19,female,2020-09-28_10h39.02.218,torte-2b,2020.1.3,Win32,60,13324,,,,,,,,,,,,,,,,,,,,,,,,,,,,,,,,,,,,,,,,,,,,,,,,,,,,,,,,,,,,,,,,,
,,,,,,,,,,,,l,1.88163,Incorrect,0,118,118,49,1,t4.png,t5.png,1,0.9,19,female,2020-09-28_10h39.02.218,torte-2b,2020.1.3,Win32,60,13324,,,,,,,,,,,,,,,,,,,,,,,,,,,,,,,,,,,,,,,,,,,,,,,,,,,,,,,,,,,,,,,,,
,,,,,,,,,,,,a,0.650905,Correct!,0,119,119,109,1,t5.png,t5.png,0,0.97829,19,female,2020-09-28_10h39.02.218,torte-2b,2020.1.3,Win32,60,13324,,,,,,,,,,,,,,,,,,,,,,,,,,,,,,,,,,,,,,,,,,,,,,,,,,,,,,,,,,,,,,,,,
,,,,,,,,,,,,a,1.860684999,Correct!,,,,,,t5.png,t5.png,0,0.97829,19,female,2020-09-28_10h39.02.218,torte-2b,2020.1.3,Win32,60,13324,space,1.615925,space,26.98433,0,0,0,94,1,,,,,,,,,,,,,,,,,,,,,,,,,,,,,,,,,,,,,,,,,,,,,,,,,,,,,,,,
,,,,,,,,,,,,l,1.507999999,Incorrect,,,,,,t2.png,t3.png,1,0.90855,19,female,2020-09-28_10h39.02.218,torte-2b,2020.1.3,Win32,60,13324,,,,,0,1,1,68,1,,,,,,,,,,,,,,,,,,,,,,,,,,,,,,,,,,,,,,,,,,,,,,,,,,,,,,,,
,,,,,,,,,,,,a,1.115985001,Correct!,,,,,,t5.png,t5.png,0,0.97829,19,female,2020-09-28_10h39.02.218,torte-2b,2020.1.3,Win32,60,13324,,,,,0,2,2,25,1,,,,,,,,,,,,,,,,,,,,,,,,,,,,,,,,,,,,,,,,,,,,,,,,,,,,,,,,
,,,,,,,,,,,,l,1.831964999,Correct!,,,,,,t3.png,t5.png,2,0.0565,19,female,2020-09-28_10h39.02.218,torte-2b,2020.1.3,Win32,60,13324,,,,,0,3,3,83,1,,,,,,,,,,,,,,,,,,,,,,,,,,,,,,,,,,,,,,,,,,,,,,,,,,,,,,,,
,,,,,,,,,,,,l,1.36822,Incorrect,,,,,,t2.png,t1.png,1,0.90025,19,female,2020-09-28_10h39.02.218,torte-2b,2020.1.3,Win32,60,13324,,,,,0,4,4,62,1,,,,,,,,,,,,,,,,,,,,,,,,,,,,,,,,,,,,,,,,,,,,,,,,,,,,,,,,
,,,,,,,,,,,,a,0.87482,Incorrect,,,,,,t4.png,t2.png,2,0.059078,19,female,2020-09-28_10h39.02.218,torte-2b,2020.1.3,Win32,60,13324,,,,,0,5,5,86,1,,,,,,,,,,,,,,,,,,,,,,,,,,,,,,,,,,,,,,,,,,,,,,,,,,,,,,,,
,,,,,,,,,,,,a,1.46517,Correct!,,,,,,t2.png,t3.png,1,0.90855,19,female,2020-09-28_10h39.02.218,torte-2b,2020.1.3,Win32,60,13324,,,,,0,6,6,111,1,,,,,,,,,,,,,,,,,,,,,,,,,,,,,,,,,,,,,,,,,,,,,,,,,,,,,,,,
,,,,,,,,,,,,l,1.29025,Correct!,,,,,,t3.png,t1.png,2,0.056466,19,female,2020-09-28_10h39.02.218,torte-2b,2020.1.3,Win32,60,13324,,,,,0,7,7,29,1,,,,,,,,,,,,,,,,,,,,,,,,,,,,,,,,,,,,,,,,,,,,,,,,,,,,,,,,
,,,,,,,,,,,,l,1.031475,Incorrect,,,,,,t3.png,t2.png,1,0.90855,19,female,2020-09-28_10h39.02.218,torte-2b,2020.1.3,Win32,60,13324,,,,,0,8,8,18,1,,,,,,,,,,,,,,,,,,,,,,,,,,,,,,,,,,,,,,,,,,,,,,,,,,,,,,,,
,,,,,,,,,,,,l,1.484005,Incorrect,,,,,,t4.png,t5.png,1,0.90025,19,female,2020-09-28_10h39.02.218,torte-2b,2020.1.3,Win32,60,13324,,,,,0,9,9,47,1,,,,,,,,,,,,,,,,,,,,,,,,,,,,,,,,,,,,,,,,,,,,,,,,,,,,,,,,
,,,,,,,,,,,,a,0.99038,Correct!,,,,,,t1.png,t1.png,0,0.978,19,female,2020-09-28_10h39.02.218,torte-2b,2020.1.3,Win32,60,13324,,,,,0,10,10,28,1,,,,,,,,,,,,,,,,,,,,,,,,,,,,,,,,,,,,,,,,,,,,,,,,,,,,,,,,
,,,,,,,,,,,,a,1.066655,Correct!,,,,,,t5.png,t4.png,1,0.9,19,female,2020-09-28_10h39.02.218,torte-2b,2020.1.3,Win32,60,13324,,,,,0,11,11,76,1,,,,,,,,,,,,,,,,,,,,,,,,,,,,,,,,,,,,,,,,,,,,,,,,,,,,,,,,
,,,,,,,,,,,,a,1.164834999,Correct!,,,,,,t2.png,t1.png,1,0.90025,19,female,2020-09-28_10h39.02.218,torte-2b,2020.1.3,Win32,60,13324,,,,,0,12,12,4,1,,,,,,,,,,,,,,,,,,,,,,,,,,,,,,,,,,,,,,,,,,,,,,,,,,,,,,,,
,,,,,,,,,,,,a,1.568785001,Incorrect,,,,,,t1.png,t4.png,3,0.0000131,19,female,2020-09-28_10h39.02.218,torte-2b,2020.1.3,Win32,60,13324,,,,,0,13,13,107,1,,,,,,,,,,,,,,,,,,,,,,,,,,,,,,,,,,,,,,,,,,,,,,,,,,,,,,,,
,,,,,,,,,,,,l,0.999195,Correct!,,,,,,t2.png,t4.png,2,0.059078,19,female,2020-09-28_10h39.02.218,torte-2b,2020.1.3,Win32,60,13324,,,,,0,14,14,24,1,,,,,,,,,,,,,,,,,,,,,,,,,,,,,,,,,,,,,,,,,,,,,,,,,,,,,,,,
,,,,,,,,,,,,a,0.548655001,Correct!,,,,,,t4.png,t5.png,1,0.9,19,female,2020-09-28_10h39.02.218,torte-2b,2020.1.3,Win32,60,13324,,,,,0,15,15,115,1,,,,,,,,,,,,,,,,,,,,,,,,,,,,,,,,,,,,,,,,,,,,,,,,,,,,,,,,
,,,,,,,,,,,,a,1.252735,Correct!,,,,,,t2.png,t3.png,1,0.909,19,female,2020-09-28_10h39.02.218,torte-2b,2020.1.3,Win32,60,13324,,,,,0,16,16,74,1,,,,,,,,,,,,,,,,,,,,,,,,,,,,,,,,,,,,,,,,,,,,,,,,,,,,,,,,
,,,,,,,,,,,,l,1.515505,Correct!,,,,,,t1.png,t5.png,4,9.55E-11,19,female,2020-09-28_10h39.02.218,torte-2b,2020.1.3,Win32,60,13324,,,,,0,17,17,12,1,,,,,,,,,,,,,,,,,,,,,,,,,,,,,,,,,,,,,,,,,,,,,,,,,,,,,,,,
,,,,,,,,,,,,l,1.519154999,Incorrect,,,,,,t2.png,t3.png,1,0.90855,19,female,2020-09-28_10h39.02.218,torte-2b,2020.1.3,Win32,60,13324,,,,,0,18,18,65,1,,,,,,,,,,,,,,,,,,,,,,,,,,,,,,,,,,,,,,,,,,,,,,,,,,,,,,,,
,,,,,,,,,,,,a,0.72046,Correct!,,,,,,t4.png,t3.png,1,0.909,19,female,2020-09-28_10h39.02.218,torte-2b,2020.1.3,Win32,60,13324,,,,,0,19,19,46,1,,,,,,,,,,,,,,,,,,,,,,,,,,,,,,,,,,,,,,,,,,,,,,,,,,,,,,,,
,,,,,,,,,,,,a,0.534715,Correct!,,,,,,t4.png,t3.png,1,0.90855,19,female,2020-09-28_10h39.02.218,torte-2b,2020.1.3,Win32,60,13324,,,,,0,20,20,45,1,,,,,,,,,,,,,,,,,,,,,,,,,,,,,,,,,,,,,,,,,,,,,,,,,,,,,,,,
,,,,,,,,,,,,a,0.7357,Correct!,,,,,,t3.png,t2.png,1,0.909,19,female,2020-09-28_10h39.02.218,torte-2b,2020.1.3,Win32,60,13324,,,,,0,21,21,3,1,,,,,,,,,,,,,,,,,,,,,,,,,,,,,,,,,,,,,,,,,,,,,,,,,,,,,,,,
,,,,,,,,,,,,l,0.66524,Correct!,,,,,,t1.png,t5.png,4,9.55E-11,19,female,2020-09-28_10h39.02.218,torte-2b,2020.1.3,Win32,60,13324,,,,,0,22,22,16,1,,,,,,,,,,,,,,,,,,,,,,,,,,,,,,,,,,,,,,,,,,,,,,,,,,,,,,,,
,,,,,,,,,,,,l,1.1367,Incorrect,,,,,,t2.png,t2.png,0,0.98115,19,female,2020-09-28_10h39.02.218,torte-2b,2020.1.3,Win32,60,13324,,,,,0,23,23,7,1,,,,,,,,,,,,,,,,,,,,,,,,,,,,,,,,,,,,,,,,,,,,,,,,,,,,,,,,
,,,,,,,,,,,,a,0.75172,Correct!,,,,,,t5.png,t4.png,1,0.90025,19,female,2020-09-28_10h39.02.218,torte-2b,2020.1.3,Win32,60,13324,,,,,0,24,24,34,1,,,,,,,,,,,,,,,,,,,,,,,,,,,,,,,,,,,,,,,,,,,,,,,,,,,,,,,,
,,,,,,,,,,,,l,1.317455,Incorrect,,,,,,t4.png,t5.png,1,0.90025,19,female,2020-09-28_10h39.02.218,torte-2b,2020.1.3,Win32,60,13324,,,,,0,25,25,113,1,,,,,,,,,,,,,,,,,,,,,,,,,,,,,,,,,,,,,,,,,,,,,,,,,,,,,,,,
,,,,,,,,,,,,a,0.831739999,Incorrect,,,,,,t1.png,t3.png,2,0.056466,19,female,2020-09-28_10h39.02.218,torte-2b,2020.1.3,Win32,60,13324,,,,,0,26,26,60,1,,,,,,,,,,,,,,,,,,,,,,,,,,,,,,,,,,,,,,,,,,,,,,,,,,,,,,,,
,,,,,,,,,,,,a,0.731345,Correct!,,,,,,t2.png,t1.png,1,0.90025,19,female,2020-09-28_10h39.02.218,torte-2b,2020.1.3,Win32,60,13324,,,,,0,27,27,5,1,,,,,,,,,,,,,,,,,,,,,,,,,,,,,,,,,,,,,,,,,,,,,,,,,,,,,,,,
,,,,,,,,,,,,a,0.715155,Incorrect,,,,,,t1.png,t3.png,2,0.056466,19,female,2020-09-28_10h39.02.218,torte-2b,2020.1.3,Win32,60,13324,,,,,0,28,28,99,1,,,,,,,,,,,,,,,,,,,,,,,,,,,,,,,,,,,,,,,,,,,,,,,,,,,,,,,,
,,,,,,,,,,,,a,0.506089999,Incorrect,,,,,,t1.png,t4.png,3,0.0000131,19,female,2020-09-28_10h39.02.218,torte-2b,2020.1.3,Win32,60,13324,,,,,0,29,29,81,1,,,,,,,,,,,,,,,,,,,,,,,,,,,,,,,,,,,,,,,,,,,,,,,,,,,,,,,,
,,,,,,,,,,,,l,1.20271,Incorrect,,,,,,t2.png,t2.png,0,0.98115,19,female,2020-09-28_10h39.02.218,torte-2b,2020.1.3,Win32,60,13324,,,,,0,30,30,59,1,,,,,,,,,,,,,,,,,,,,,,,,,,,,,,,,,,,,,,,,,,,,,,,,,,,,,,,,
,,,,,,,,,,,,l,0.44198,Incorrect,,,,,,t2.png,t2.png,0,0.981,19,female,2020-09-28_10h39.02.218,torte-2b,2020.1.3,Win32,60,13324,,,,,0,31,31,101,1,,,,,,,,,,,,,,,,,,,,,,,,,,,,,,,,,,,,,,,,,,,,,,,,,,,,,,,,
,,,,,,,,,,,,l,0.63383,Correct!,,,,,,t5.png,t1.png,4,9.55E-11,19,female,2020-09-28_10h39.02.218,torte-2b,2020.1.3,Win32,60,13324,,,,,0,32,32,102,1,,,,,,,,,,,,,,,,,,,,,,,,,,,,,,,,,,,,,,,,,,,,,,,,,,,,,,,,
,,,,,,,,,,,,a,1.08733,Incorrect,,,,,,t5.png,t3.png,2,0.056466,19,female,2020-09-28_10h39.02.218,torte-2b,2020.1.3,Win32,60,13324,,,,,0,33,33,56,1,,,,,,,,,,,,,,,,,,,,,,,,,,,,,,,,,,,,,,,,,,,,,,,,,,,,,,,,
,,,,,,,,,,,,l,2.136365,Correct!,,,,,,t2.png,t4.png,2,0.059078,19,female,2020-09-28_10h39.02.218,torte-2b,2020.1.3,Win32,60,13324,,,,,0,34,34,77,1,,,,,,,,,,,,,,,,,,,,,,,,,,,,,,,,,,,,,,,,,,,,,,,,,,,,,,,,
,,,,,,,,,,,,a,1.381625,Correct!,,,,,,t1.png,t1.png,0,0.97829,19,female,2020-09-28_10h39.02.218,torte-2b,2020.1.3,Win32,60,13324,,,,,0,35,35,67,1,,,,,,,,,,,,,,,,,,,,,,,,,,,,,,,,,,,,,,,,,,,,,,,,,,,,,,,,
,,,,,,,,,,,,l,0.771980001,Incorrect,,,,,,t2.png,t1.png,1,0.90025,19,female,2020-09-28_10h39.02.218,torte-2b,2020.1.3,Win32,60,13324,,,,,0,36,36,19,1,,,,,,,,,,,,,,,,,,,,,,,,,,,,,,,,,,,,,,,,,,,,,,,,,,,,,,,,
,,,,,,,,,,,,l,1.42348,Incorrect,,,,,,t4.png,t5.png,1,0.90025,19,female,2020-09-28_10h39.02.218,torte-2b,2020.1.3,Win32,60,13324,,,,,0,37,37,58,1,,,,,,,,,,,,,,,,,,,,,,,,,,,,,,,,,,,,,,,,,,,,,,,,,,,,,,,,
,,,,,,,,,,,,a,1.434465,Correct!,,,,,,t4.png,t3.png,1,0.90855,19,female,2020-09-28_10h39.02.218,torte-2b,2020.1.3,Win32,60,13324,,,,,0,38,38,35,1,,,,,,,,,,,,,,,,,,,,,,,,,,,,,,,,,,,,,,,,,,,,,,,,,,,,,,,,
,,,,,,,,,,,,l,0.63156,Correct!,,,,,,t3.png,t1.png,2,0.0565,19,female,2020-09-28_10h39.02.218,torte-2b,2020.1.3,Win32,60,13324,,,,,0,39,39,31,1,,,,,,,,,,,,,,,,,,,,,,,,,,,,,,,,,,,,,,,,,,,,,,,,,,,,,,,,
,,,,,,,,,,,,a,0.83758,Incorrect,,,,,,t5.png,t2.png,3,0.0000131,19,female,2020-09-28_10h39.02.218,torte-2b,2020.1.3,Win32,60,13324,,,,,0,40,40,51,1,,,,,,,,,,,,,,,,,,,,,,,,,,,,,,,,,,,,,,,,,,,,,,,,,,,,,,,,
,,,,,,,,,,,,a,1.08304,Correct!,,,,,,t5.png,t5.png,0,0.97829,19,female,2020-09-28_10h39.02.218,torte-2b,2020.1.3,Win32,60,13324,,,,,0,41,41,73,1,,,,,,,,,,,,,,,,,,,,,,,,,,,,,,,,,,,,,,,,,,,,,,,,,,,,,,,,
,,,,,,,,,,,,l,0.920694999,Correct!,,,,,,t4.png,t2.png,2,0.059078,19,female,2020-09-28_10h39.02.218,torte-2b,2020.1.3,Win32,60,13324,,,,,0,42,42,109,1,,,,,,,,,,,,,,,,,,,,,,,,,,,,,,,,,,,,,,,,,,,,,,,,,,,,,,,,
,,,,,,,,,,,,a,0.884885,Incorrect,,,,,,t5.png,t2.png,3,0.0000131,19,female,2020-09-28_10h39.02.218,torte-2b,2020.1.3,Win32,60,13324,,,,,0,43,43,98,1,,,,,,,,,,,,,,,,,,,,,,,,,,,,,,,,,,,,,,,,,,,,,,,,,,,,,,,,
,,,,,,,,,,,,a,0.815435,Correct!,,,,,,t1.png,t1.png,0,0.978,19,female,2020-09-28_10h39.02.218,torte-2b,2020.1.3,Win32,60,13324,,,,,0,44,44,54,1,,,,,,,,,,,,,,,,,,,,,,,,,,,,,,,,,,,,,,,,,,,,,,,,,,,,,,,,
,,,,,,,,,,,,a,0.665235,Incorrect,,,,,,t5.png,t3.png,2,0.0565,19,female,2020-09-28_10h39.02.218,torte-2b,2020.1.3,Win32,60,13324,,,,,0,45,45,39,1,,,,,,,,,,,,,,,,,,,,,,,,,,,,,,,,,,,,,,,,,,,,,,,,,,,,,,,,
,,,,,,,,,,,,a,0.587005,Incorrect,,,,,,t5.png,t1.png,4,9.55E-11,19,female,2020-09-28_10h39.02.218,torte-2b,2020.1.3,Win32,60,13324,,,,,0,46,46,22,1,,,,,,,,,,,,,,,,,,,,,,,,,,,,,,,,,,,,,,,,,,,,,,,,,,,,,,,,
,,,,,,,,,,,,l,0.847435,Correct!,,,,,,t3.png,t5.png,2,0.056466,19,female,2020-09-28_10h39.02.218,torte-2b,2020.1.3,Win32,60,13324,,,,,0,47,47,44,1,,,,,,,,,,,,,,,,,,,,,,,,,,,,,,,,,,,,,,,,,,,,,,,,,,,,,,,,
,,,,,,,,,,,,a,1.74857,Correct!,,,,,,t4.png,t4.png,0,0.98115,19,female,2020-09-28_10h39.02.218,torte-2b,2020.1.3,Win32,60,13324,,,,,0,48,48,90,1,,,,,,,,,,,,,,,,,,,,,,,,,,,,,,,,,,,,,,,,,,,,,,,,,,,,,,,,
,,,,,,,,,,,,a,0.747810001,Incorrect,,,,,,t5.png,t1.png,4,9.55E-11,19,female,2020-09-28_10h39.02.218,torte-2b,2020.1.3,Win32,60,13324,,,,,0,49,49,71,1,,,,,,,,,,,,,,,,,,,,,,,,,,,,,,,,,,,,,,,,,,,,,,,,,,,,,,,,
,,,,,,,,,,,,l,0.49873,Incorrect,,,,,,t2.png,t2.png,0,0.98115,19,female,2020-09-28_10h39.02.218,torte-2b,2020.1.3,Win32,60,13324,,,,,0,50,50,57,1,,,,,,,,,,,,,,,,,,,,,,,,,,,,,,,,,,,,,,,,,,,,,,,,,,,,,,,,
,,,,,,,,,,,,l,0.614685,Incorrect,,,,,,t3.png,t4.png,1,0.90855,19,female,2020-09-28_10h39.02.218,torte-2b,2020.1.3,Win32,60,13324,,,,,0,51,51,84,1,,,,,,,,,,,,,,,,,,,,,,,,,,,,,,,,,,,,,,,,,,,,,,,,,,,,,,,,
,,,,,,,,,,,,l,0.598295,Correct!,,,,,,t4.png,t1.png,3,0.0000131,19,female,2020-09-28_10h39.02.218,torte-2b,2020.1.3,Win32,60,13324,,,,,0,52,52,48,1,,,,,,,,,,,,,,,,,,,,,,,,,,,,,,,,,,,,,,,,,,,,,,,,,,,,,,,,
,,,,,,,,,,,,l,0.77033,Correct!,,,,,,t2.png,t4.png,2,0.059078,19,female,2020-09-28_10h39.02.218,torte-2b,2020.1.3,Win32,60,13324,,,,,0,53,53,37,1,,,,,,,,,,,,,,,,,,,,,,,,,,,,,,,,,,,,,,,,,,,,,,,,,,,,,,,,
,,,,,,,,,,,,a,0.63007,Incorrect,,,,,,t1.png,t3.png,2,0.056466,19,female,2020-09-28_10h39.02.218,torte-2b,2020.1.3,Win32,60,13324,,,,,0,54,54,69,1,,,,,,,,,,,,,,,,,,,,,,,,,,,,,,,,,,,,,,,,,,,,,,,,,,,,,,,,
,,,,,,,,,,,,l,2.23326,Incorrect,,,,,,t4.png,t4.png,0,0.98115,19,female,2020-09-28_10h39.02.218,torte-2b,2020.1.3,Win32,60,13324,,,,,0,55,55,80,1,,,,,,,,,,,,,,,,,,,,,,,,,,,,,,,,,,,,,,,,,,,,,,,,,,,,,,,,
,,,,,,,,,,,,a,0.832365,Correct!,,,,,,t2.png,t2.png,0,0.98115,19,female,2020-09-28_10h39.02.218,torte-2b,2020.1.3,Win32,60,13324,,,,,0,56,56,2,1,,,,,,,,,,,,,,,,,,,,,,,,,,,,,,,,,,,,,,,,,,,,,,,,,,,,,,,,
,,,,,,,,,,,,l,0.67277,Correct!,,,,,,t1.png,t5.png,4,9.55E-11,19,female,2020-09-28_10h39.02.218,torte-2b,2020.1.3,Win32,60,13324,,,,,0,57,57,41,1,,,,,,,,,,,,,,,,,,,,,,,,,,,,,,,,,,,,,,,,,,,,,,,,,,,,,,,,
,,,,,,,,,,,,a,0.49144,Incorrect,,,,,,t1.png,t5.png,4,9.55E-11,19,female,2020-09-28_10h39.02.218,torte-2b,2020.1.3,Win32,60,13324,,,,,0,58,58,85,1,,,,,,,,,,,,,,,,,,,,,,,,,,,,,,,,,,,,,,,,,,,,,,,,,,,,,,,,
,,,,,,,,,,,,a,0.78744,Incorrect,,,,,,t1.png,t4.png,3,0.0000131,19,female,2020-09-28_10h39.02.218,torte-2b,2020.1.3,Win32,60,13324,,,,,0,59,59,17,1,,,,,,,,,,,,,,,,,,,,,,,,,,,,,,,,,,,,,,,,,,,,,,,,,,,,,,,,
,,,,,,,,,,,,l,0.774435,Correct!,,,,,,t5.png,t2.png,3,0.0000131,19,female,2020-09-28_10h39.02.218,torte-2b,2020.1.3,Win32,60,13324,,,,,0,60,60,116,1,,,,,,,,,,,,,,,,,,,,,,,,,,,,,,,,,,,,,,,,,,,,,,,,,,,,,,,,
,,,,,,,,,,,,l,0.682484999,Correct!,,,,,,t4.png,t1.png,3,0.0000131,19,female,2020-09-28_10h39.02.218,torte-2b,2020.1.3,Win32,60,13324,,,,,0,61,61,42,1,,,,,,,,,,,,,,,,,,,,,,,,,,,,,,,,,,,,,,,,,,,,,,,,,,,,,,,,
,,,,,,,,,,,,a,0.79064,Incorrect,,,,,,t5.png,t3.png,2,0.056466,19,female,2020-09-28_10h39.02.218,torte-2b,2020.1.3,Win32,60,13324,,,,,0,62,62,38,1,,,,,,,,,,,,,,,,,,,,,,,,,,,,,,,,,,,,,,,,,,,,,,,,,,,,,,,,
,,,,,,,,,,,,l,0.300485,Correct!,,,,,,t2.png,t5.png,3,0.0000131,19,female,2020-09-28_10h39.02.218,torte-2b,2020.1.3,Win32,60,13324,,,,,0,63,63,104,1,,,,,,,,,,,,,,,,,,,,,,,,,,,,,,,,,,,,,,,,,,,,,,,,,,,,,,,,
,,,,,,,,,,,,l,0.783485,Incorrect,,,,,,t1.png,t2.png,1,0.9,19,female,2020-09-28_10h39.02.218,torte-2b,2020.1.3,Win32,60,13324,,,,,0,64,64,1,1,,,,,,,,,,,,,,,,,,,,,,,,,,,,,,,,,,,,,,,,,,,,,,,,,,,,,,,,
,,,,,,,,,,,,a,0.748245,Correct!,,,,,,t3.png,t4.png,1,0.909,19,female,2020-09-28_10h39.02.218,torte-2b,2020.1.3,Win32,60,13324,,,,,0,65,65,82,1,,,,,,,,,,,,,,,,,,,,,,,,,,,,,,,,,,,,,,,,,,,,,,,,,,,,,,,,
,,,,,,,,,,,,l,0.731575,Correct!,,,,,,t2.png,t5.png,3,0.0000131,19,female,2020-09-28_10h39.02.218,torte-2b,2020.1.3,Win32,60,13324,,,,,0,66,66,66,1,,,,,,,,,,,,,,,,,,,,,,,,,,,,,,,,,,,,,,,,,,,,,,,,,,,,,,,,
,,,,,,,,,,,,l,0.733295,Incorrect,,,,,,t3.png,t4.png,1,0.909,19,female,2020-09-28_10h39.02.218,torte-2b,2020.1.3,Win32,60,13324,,,,,0,67,67,89,1,,,,,,,,,,,,,,,,,,,,,,,,,,,,,,,,,,,,,,,,,,,,,,,,,,,,,,,,
,,,,,,,,,,,,l,0.69854,Correct!,,,,,,t1.png,t3.png,2,0.056466,19,female,2020-09-28_10h39.02.218,torte-2b,2020.1.3,Win32,60,13324,,,,,0,68,68,63,1,,,,,,,,,,,,,,,,,,,,,,,,,,,,,,,,,,,,,,,,,,,,,,,,,,,,,,,,
,,,,,,,,,,,,a,1.04912,Correct!,,,,,,t3.png,t2.png,1,0.909,19,female,2020-09-28_10h39.02.218,torte-2b,2020.1.3,Win32,60,13324,,,,,0,69,69,23,1,,,,,,,,,,,,,,,,,,,,,,,,,,,,,,,,,,,,,,,,,,,,,,,,,,,,,,,,
,,,,,,,,,,,,l,0.397395001,Incorrect,,,,,,t1.png,t2.png,1,0.90025,19,female,2020-09-28_10h39.02.218,torte-2b,2020.1.3,Win32,60,13324,,,,,0,70,70,72,1,,,,,,,,,,,,,,,,,,,,,,,,,,,,,,,,,,,,,,,,,,,,,,,,,,,,,,,,
,,,,,,,,,,,,a,0.749365,Correct!,,,,,,t1.png,t2.png,1,0.90025,19,female,2020-09-28_10h39.02.218,torte-2b,2020.1.3,Win32,60,13324,,,,,0,71,71,33,1,,,,,,,,,,,,,,,,,,,,,,,,,,,,,,,,,,,,,,,,,,,,,,,,,,,,,,,,
,,,,,,,,,,,,l,0.38232,Correct!,,,,,,t4.png,t1.png,3,0.0000131,19,female,2020-09-28_10h39.02.218,torte-2b,2020.1.3,Win32,60,13324,,,,,0,72,72,93,1,,,,,,,,,,,,,,,,,,,,,,,,,,,,,,,,,,,,,,,,,,,,,,,,,,,,,,,,
,,,,,,,,,,,,a,0.44933,Incorrect,,,,,,t3.png,t1.png,2,0.056466,19,female,2020-09-28_10h39.02.218,torte-2b,2020.1.3,Win32,60,13324,,,,,0,73,73,64,1,,,,,,,,,,,,,,,,,,,,,,,,,,,,,,,,,,,,,,,,,,,,,,,,,,,,,,,,
,,,,,,,,,,,,l,0.632655,Correct!,,,,,,t4.png,t1.png,3,0.0000131,19,female,2020-09-28_10h39.02.218,torte-2b,2020.1.3,Win32,60,13324,,,,,0,74,74,13,1,,,,,,,,,,,,,,,,,,,,,,,,,,,,,,,,,,,,,,,,,,,,,,,,,,,,,,,,
,,,,,,,,,,,,l,0.93162,Incorrect,,,,,,t3.png,t2.png,1,0.90855,19,female,2020-09-28_10h39.02.218,torte-2b,2020.1.3,Win32,60,13324,,,,,0,75,75,53,1,,,,,,,,,,,,,,,,,,,,,,,,,,,,,,,,,,,,,,,,,,,,,,,,,,,,,,,,
,,,,,,,,,,,,l,1.137239999,Correct!,,,,,,t3.png,t5.png,2,0.056466,19,female,2020-09-28_10h39.02.218,torte-2b,2020.1.3,Win32,60,13324,,,,,0,76,76,6,1,,,,,,,,,,,,,,,,,,,,,,,,,,,,,,,,,,,,,,,,,,,,,,,,,,,,,,,,
,,,,,,,,,,,,a,0.481425,Incorrect,,,,,,t5.png,t2.png,3,0.0000131,19,female,2020-09-28_10h39.02.218,torte-2b,2020.1.3,Win32,60,13324,,,,,0,77,77,91,1,,,,,,,,,,,,,,,,,,,,,,,,,,,,,,,,,,,,,,,,,,,,,,,,,,,,,,,,
,,,,,,,,,,,,a,0.471285,Correct!,,,,,,t5.png,t4.png,1,0.90025,19,female,2020-09-28_10h39.02.218,torte-2b,2020.1.3,Win32,60,13324,,,,,0,78,78,27,1,,,,,,,,,,,,,,,,,,,,,,,,,,,,,,,,,,,,,,,,,,,,,,,,,,,,,,,,
,,,,,,,,,,,,a,0.85809,Correct!,,,,,,t2.png,t1.png,1,0.9,19,female,2020-09-28_10h39.02.218,torte-2b,2020.1.3,Win32,60,13324,,,,,0,79,79,118,1,,,,,,,,,,,,,,,,,,,,,,,,,,,,,,,,,,,,,,,,,,,,,,,,,,,,,,,,
,,,,,,,,,,,,l,0.984,Correct!,,,,,,t2.png,t4.png,2,0.0591,19,female,2020-09-28_10h39.02.218,torte-2b,2020.1.3,Win32,60,13324,,,,,0,80,80,15,1,,,,,,,,,,,,,,,,,,,,,,,,,,,,,,,,,,,,,,,,,,,,,,,,,,,,,,,,
,,,,,,,,,,,,a,0.554495,Incorrect,,,,,,t4.png,t2.png,2,0.059078,19,female,2020-09-28_10h39.02.218,torte-2b,2020.1.3,Win32,60,13324,,,,,0,81,81,88,1,,,,,,,,,,,,,,,,,,,,,,,,,,,,,,,,,,,,,,,,,,,,,,,,,,,,,,,,
,,,,,,,,,,,,l,0.482249999,Correct!,,,,,,t3.png,t1.png,2,0.056466,19,female,2020-09-28_10h39.02.218,torte-2b,2020.1.3,Win32,60,13324,,,,,0,82,82,32,1,,,,,,,,,,,,,,,,,,,,,,,,,,,,,,,,,,,,,,,,,,,,,,,,,,,,,,,,
,,,,,,,,,,,,a,1.009505001,Correct!,,,,,,t3.png,t2.png,1,0.90855,19,female,2020-09-28_10h39.02.218,torte-2b,2020.1.3,Win32,60,13324,,,,,0,83,83,97,1,,,,,,,,,,,,,,,,,,,,,,,,,,,,,,,,,,,,,,,,,,,,,,,,,,,,,,,,
,,,,,,,,,,,,l,0.236495,Incorrect,,,,,,t1.png,t1.png,0,0.97829,19,female,2020-09-28_10h39.02.218,torte-2b,2020.1.3,Win32,60,13324,,,,,0,84,84,9,1,,,,,,,,,,,,,,,,,,,,,,,,,,,,,,,,,,,,,,,,,,,,,,,,,,,,,,,,
,,,,,,,,,,,,l,1.349324999,Correct!,,,,,,t2.png,t4.png,2,0.059078,19,female,2020-09-28_10h39.02.218,torte-2b,2020.1.3,Win32,60,13324,,,,,0,85,85,11,1,,,,,,,,,,,,,,,,,,,,,,,,,,,,,,,,,,,,,,,,,,,,,,,,,,,,,,,,
,,,,,,,,,,,,a,0.216004999,Correct!,,,,,,t5.png,t5.png,0,0.978,19,female,2020-09-28_10h39.02.218,torte-2b,2020.1.3,Win32,60,13324,,,,,0,86,86,117,1,,,,,,,,,,,,,,,,,,,,,,,,,,,,,,,,,,,,,,,,,,,,,,,,,,,,,,,,
,,,,,,,,,,,,l,0.331425,Correct!,,,,,,t2.png,t5.png,3,0.0000131,19,female,2020-09-28_10h39.02.218,torte-2b,2020.1.3,Win32,60,13324,,,,,0,87,87,95,1,,,,,,,,,,,,,,,,,,,,,,,,,,,,,,,,,,,,,,,,,,,,,,,,,,,,,,,,
,,,,,,,,,,,,l,0.36307,Incorrect,,,,,,t4.png,t4.png,0,0.98115,19,female,2020-09-28_10h39.02.218,torte-2b,2020.1.3,Win32,60,13324,,,,,0,88,88,21,1,,,,,,,,,,,,,,,,,,,,,,,,,,,,,,,,,,,,,,,,,,,,,,,,,,,,,,,,
,,,,,,,,,,,,a,0.28316,Incorrect,,,,,,t1.png,t5.png,4,9.55E-11,19,female,2020-09-28_10h39.02.218,torte-2b,2020.1.3,Win32,60,13324,,,,,0,89,89,55,1,,,,,,,,,,,,,,,,,,,,,,,,,,,,,,,,,,,,,,,,,,,,,,,,,,,,,,,,
,,,,,,,,,,,,l,0.71484,Correct!,,,,,,t4.png,t1.png,3,0.0000131,19,female,2020-09-28_10h39.02.218,torte-2b,2020.1.3,Win32,60,13324,,,,,0,90,90,61,1,,,,,,,,,,,,,,,,,,,,,,,,,,,,,,,,,,,,,,,,,,,,,,,,,,,,,,,,
,,,,,,,,,,,,a,0.676650001,Incorrect,,,,,,t5.png,t2.png,3,0.0000131,19,female,2020-09-28_10h39.02.218,torte-2b,2020.1.3,Win32,60,13324,,,,,0,91,91,119,1,,,,,,,,,,,,,,,,,,,,,,,,,,,,,,,,,,,,,,,,,,,,,,,,,,,,,,,,
,,,,,,,,,,,,l,0.276515,Incorrect,,,,,,t3.png,t4.png,1,0.909,19,female,2020-09-28_10h39.02.218,torte-2b,2020.1.3,Win32,60,13324,,,,,0,92,92,106,1,,,,,,,,,,,,,,,,,,,,,,,,,,,,,,,,,,,,,,,,,,,,,,,,,,,,,,,,
,,,,,,,,,,,,a,0.159925,Incorrect,,,,,,t5.png,t3.png,2,0.056466,19,female,2020-09-28_10h39.02.218,torte-2b,2020.1.3,Win32,60,13324,,,,,0,93,93,114,1,,,,,,,,,,,,,,,,,,,,,,,,,,,,,,,,,,,,,,,,,,,,,,,,,,,,,,,,
,,,,,,,,,,,,a,0.365015,Incorrect,,,,,,t3.png,t1.png,2,0.056466,19,female,2020-09-28_10h39.02.218,torte-2b,2020.1.3,Win32,60,13324,,,,,0,94,94,0,1,,,,,,,,,,,,,,,,,,,,,,,,,,,,,,,,,,,,,,,,,,,,,,,,,,,,,,,,
,,,,,,,,,,,,a,0.265395001,Correct!,,,,,,t5.png,t5.png,0,0.97829,19,female,2020-09-28_10h39.02.218,torte-2b,2020.1.3,Win32,60,13324,,,,,0,95,95,70,1,,,,,,,,,,,,,,,,,,,,,,,,,,,,,,,,,,,,,,,,,,,,,,,,,,,,,,,,
,,,,,,,,,,,,l,0.334855,Correct!,,,,,,t5.png,t1.png,4,9.55E-11,19,female,2020-09-28_10h39.02.218,torte-2b,2020.1.3,Win32,60,13324,,,,,0,96,96,43,1,,,,,,,,,,,,,,,,,,,,,,,,,,,,,,,,,,,,,,,,,,,,,,,,,,,,,,,,
,,,,,,,,,,,,a,0.201435,Incorrect,,,,,,t4.png,t2.png,2,0.059078,19,female,2020-09-28_10h39.02.218,torte-2b,2020.1.3,Win32,60,13324,,,,,0,97,97,110,1,,,,,,,,,,,,,,,,,,,,,,,,,,,,,,,,,,,,,,,,,,,,,,,,,,,,,,,,
,,,,,,,,,,,,a,0.291685,Correct!,,,,,,t2.png,t3.png,1,0.90855,19,female,2020-09-28_10h39.02.218,torte-2b,2020.1.3,Win32,60,13324,,,,,0,98,98,10,1,,,,,,,,,,,,,,,,,,,,,,,,,,,,,,,,,,,,,,,,,,,,,,,,,,,,,,,,
,,,,,,,,,,,,l,0.601509999,Incorrect,,,,,,t4.png,t5.png,1,0.90025,19,female,2020-09-28_10h39.02.218,torte-2b,2020.1.3,Win32,60,13324,,,,,0,99,99,103,1,,,,,,,,,,,,,,,,,,,,,,,,,,,,,,,,,,,,,,,,,,,,,,,,,,,,,,,,
,,,,,,,,,,,,l,1.066525,Correct!,,,,,,t3.png,t5.png,2,0.0565,19,female,2020-09-28_10h39.02.218,torte-2b,2020.1.3,Win32,60,13324,,,,,0,100,100,30,1,,,,,,,,,,,,,,,,,,,,,,,,,,,,,,,,,,,,,,,,,,,,,,,,,,,,,,,,
,,,,,,,,,,,,a,1.26593,Incorrect,,,,,,t4.png,t2.png,2,0.0591,19,female,2020-09-28_10h39.02.218,torte-2b,2020.1.3,Win32,60,13324,,,,,0,101,101,36,1,,,,,,,,,,,,,,,,,,,,,,,,,,,,,,,,,,,,,,,,,,,,,,,,,,,,,,,,
,,,,,,,,,,,,a,0.250505,Correct!,,,,,,t1.png,t2.png,1,0.90025,19,female,2020-09-28_10h39.02.218,torte-2b,2020.1.3,Win32,60,13324,,,,,0,102,102,112,1,,,,,,,,,,,,,,,,,,,,,,,,,,,,,,,,,,,,,,,,,,,,,,,,,,,,,,,,
,,,,,,,,,,,,l,0.34428,Correct!,,,,,,t2.png,t5.png,3,0.0000131,19,female,2020-09-28_10h39.02.218,torte-2b,2020.1.3,Win32,60,13324,,,,,0,103,103,40,1,,,,,,,,,,,,,,,,,,,,,,,,,,,,,,,,,,,,,,,,,,,,,,,,,,,,,,,,
,,,,,,,,,,,,l,0.550535001,Incorrect,,,,,,t3.png,t4.png,1,0.90855,19,female,2020-09-28_10h39.02.218,torte-2b,2020.1.3,Win32,60,13324,,,,,0,104,104,96,1,,,,,,,,,,,,,,,,,,,,,,,,,,,,,,,,,,,,,,,,,,,,,,,,,,,,,,,,
,,,,,,,,,,,,a,0.518619999,Correct!,,,,,,t4.png,t3.png,1,0.909,19,female,2020-09-28_10h39.02.218,torte-2b,2020.1.3,Win32,60,13324,,,,,0,105,105,20,1,,,,,,,,,,,,,,,,,,,,,,,,,,,,,,,,,,,,,,,,,,,,,,,,,,,,,,,,
,,,,,,,,,,,,a,0.583675,Correct!,,,,,,t4.png,t3.png,1,0.90855,19,female,2020-09-28_10h39.02.218,torte-2b,2020.1.3,Win32,60,13324,,,,,0,106,106,75,1,,,,,,,,,,,,,,,,,,,,,,,,,,,,,,,,,,,,,,,,,,,,,,,,,,,,,,,,
,,,,,,,,,,,,a,1.251275,Correct!,,,,,,t5.png,t4.png,1,0.9,19,female,2020-09-28_10h39.02.218,torte-2b,2020.1.3,Win32,60,13324,,,,,0,107,107,49,1,,,,,,,,,,,,,,,,,,,,,,,,,,,,,,,,,,,,,,,,,,,,,,,,,,,,,,,,
,,,,,,,,,,,,a,0.4527,Incorrect,,,,,,t5.png,t1.png,4,9.55E-11,19,female,2020-09-28_10h39.02.218,torte-2b,2020.1.3,Win32,60,13324,,,,,0,108,108,100,1,,,,,,,,,,,,,,,,,,,,,,,,,,,,,,,,,,,,,,,,,,,,,,,,,,,,,,,,
,,,,,,,,,,,,l,0.54904,Incorrect,,,,,,t4.png,t4.png,0,0.98115,19,female,2020-09-28_10h39.02.218,torte-2b,2020.1.3,Win32,60,13324,,,,,0,109,109,52,1,,,,,,,,,,,,,,,,,,,,,,,,,,,,,,,,,,,,,,,,,,,,,,,,,,,,,,,,
,,,,,,,,,,,,a,0.548775,Incorrect,,,,,,t5.png,t3.png,2,0.056466,19,female,2020-09-28_10h39.02.218,torte-2b,2020.1.3,Win32,60,13324,,,,,0,110,110,108,1,,,,,,,,,,,,,,,,,,,,,,,,,,,,,,,,,,,,,,,,,,,,,,,,,,,,,,,,
,,,,,,,,,,,,l,0.54877,Correct!,,,,,,t1.png,t3.png,2,0.056466,19,female,2020-09-28_10h39.02.218,torte-2b,2020.1.3,Win32,60,13324,,,,,0,111,111,87,1,,,,,,,,,,,,,,,,,,,,,,,,,,,,,,,,,,,,,,,,,,,,,,,,,,,,,,,,
,,,,,,,,,,,,l,0.75548,Incorrect,,,,,,t4.png,t4.png,0,0.98115,19,female,2020-09-28_10h39.02.218,torte-2b,2020.1.3,Win32,60,13324,,,,,0,112,112,79,1,,,,,,,,,,,,,,,,,,,,,,,,,,,,,,,,,,,,,,,,,,,,,,,,,,,,,,,,
,,,,,,,,,,,,l,0.768449999,Correct!,,,,,,t1.png,t4.png,3,0.0000131,19,female,2020-09-28_10h39.02.218,torte-2b,2020.1.3,Win32,60,13324,,,,,0,113,113,50,1,,,,,,,,,,,,,,,,,,,,,,,,,,,,,,,,,,,,,,,,,,,,,,,,,,,,,,,,
,,,,,,,,,,,,l,0.739595,Incorrect,,,,,,t1.png,t1.png,0,0.97829,19,female,2020-09-28_10h39.02.218,torte-2b,2020.1.3,Win32,60,13324,,,,,0,114,114,78,1,,,,,,,,,,,,,,,,,,,,,,,,,,,,,,,,,,,,,,,,,,,,,,,,,,,,,,,,
,,,,,,,,,,,,l,1.133455,Correct!,,,,,,t2.png,t5.png,3,0.0000131,19,female,2020-09-28_10h39.02.218,torte-2b,2020.1.3,Win32,60,13324,,,,,0,115,115,8,1,,,,,,,,,,,,,,,,,,,,,,,,,,,,,,,,,,,,,,,,,,,,,,,,,,,,,,,,
,,,,,,,,,,,,a,0.38898,Incorrect,,,,,,t3.png,t5.png,2,0.056466,19,female,2020-09-28_10h39.02.218,torte-2b,2020.1.3,Win32,60,13324,,,,,0,116,116,14,1,,,,,,,,,,,,,,,,,,,,,,,,,,,,,,,,,,,,,,,,,,,,,,,,,,,,,,,,
,,,,,,,,,,,,l,0.43707,Incorrect,,,,,,t1.png,t2.png,1,0.90025,19,female,2020-09-28_10h39.02.218,torte-2b,2020.1.3,Win32,60,13324,,,,,0,117,117,105,1,,,,,,,,,,,,,,,,,,,,,,,,,,,,,,,,,,,,,,,,,,,,,,,,,,,,,,,,
,,,,,,,,,,,,a,0.537155,Correct!,,,,,,t5.png,t4.png,1,0.90025,19,female,2020-09-28_10h39.02.218,torte-2b,2020.1.3,Win32,60,13324,,,,,0,118,118,26,1,,,,,,,,,,,,,,,,,,,,,,,,,,,,,,,,,,,,,,,,,,,,,,,,,,,,,,,,
,,,,,,,,,,,,a,0.54844,Incorrect,,,,,,t1.png,t4.png,3,0.0000131,19,female,2020-09-28_10h39.02.218,torte-2b,2020.1.3,Win32,60,13324,,,,,0,119,119,92,1,,,,,,,,,,,,,,,,,,,,,,,,,,,,,,,,,,,,,,,,,,,,,,,,,,,,,,,,
,,,,,,,,,,,,,,,,,,,,,,,,19,female,2020-09-28_10h39.02.218,torte-2b,2020.1.3,Win32,60,13324,space,1.28333,,,,,,,,space,60.771715,space,1.83753,0,0,0,0,1,6,,,,,,,,,,,,,,,,,,,,,,,,,,,,,,,,,,,,,,,,,,,,,,
,,,,,,,,,,,,,,,,,,,,,,,,19,female,2020-09-28_10h39.02.218,torte-2b,2020.1.3,Win32,60,13324,,,,,,,,,,,,,,0,1,1,1,1,7,,,,,,,,,,,,,,,,,,,,,,,,,,,,,,,,,,,,,,,,,,,,,,
,,,,,,,,,,,,,,,,,,,,,,,,19,female,2020-09-28_10h39.02.218,torte-2b,2020.1.3,Win32,60,13324,,,,,,,,,,,,space,0.81939,0,2,2,2,1,6,,,,,,,,,,,,,,,,,,,,,,,,,,,,,,,,,,,,,,,,,,,,,,
,,,,,,,,,,,,,,,,,,,,,,,,19,female,2020-09-28_10h39.02.218,torte-2b,2020.1.3,Win32,60,13324,,,,,,,,,,,,space,1.15245,0,3,3,3,1,7,,,,,,,,,,,,,,,,,,,,,,,,,,,,,,,,,,,,,,,,,,,,,,
,,,,,,,,,,,,,,,,,,,,,,,,19,female,2020-09-28_10h39.02.218,torte-2b,2020.1.3,Win32,60,13324,,,,,,,,,,,,,,0,4,4,4,1,5,,,,,,,,,,,,,,,,,,,,,,,,,,,,,,,,,,,,,,,,,,,,,,
,,,,,,,,,,,,,,,,,,,,,,,,19,female,2020-09-28_10h39.02.218,torte-2b,2020.1.3,Win32,60,13324,,,,,,,,,,,,space,0.73023,0,5,5,5,1,7,,,,,,,,,,,,,,,,,,,,,,,,,,,,,,,,,,,,,,,,,,,,,,
,,,,,,,,,,,,,,,,,,,,,,,,19,female,2020-09-28_10h39.02.218,torte-2b,2020.1.3,Win32,60,13324,,,,,,,,,,,,,,0,6,6,6,1,2,,,,,,,,,,,,,,,,,,,,,,,,,,,,,,,,,,,,,,,,,,,,,,
,,,,,,,,,,,,,,,,,,,,,,,,19,female,2020-09-28_10h39.02.218,torte-2b,2020.1.3,Win32,60,13324,,,,,,,,,,,,,,0,7,7,7,1,4,,,,,,,,,,,,,,,,,,,,,,,,,,,,,,,,,,,,,,,,,,,,,,
,,,,,,,,,,,,,,,,,,,,,,,,19,female,2020-09-28_10h39.02.218,torte-2b,2020.1.3,Win32,60,13324,,,,,,,,,,,,space,0.44971,0,8,8,8,1,7,,,,,,,,,,,,,,,,,,,,,,,,,,,,,,,,,,,,,,,,,,,,,,
,,,,,,,,,,,,,,,,,,,,,,,,19,female,2020-09-28_10h39.02.218,torte-2b,2020.1.3,Win32,60,13324,,,,,,,,,,,,space,0.519335,0,9,9,9,1,4,,,,,,,,,,,,,,,,,,,,,,,,,,,,,,,,,,,,,,,,,,,,,,
,,,,,,,,,,,,,,,,,,,,,,,,19,female,2020-09-28_10h39.02.218,torte-2b,2020.1.3,Win32,60,13324,,,,,,,,,,,,space,0.635685,0,10,10,10,1,7,,,,,,,,,,,,,,,,,,,,,,,,,,,,,,,,,,,,,,,,,,,,,,
,,,,,,,,,,,,,,,,,,,,,,,,19,female,2020-09-28_10h39.02.218,torte-2b,2020.1.3,Win32,60,13324,,,,,,,,,,,,space,0.68682,0,11,11,11,1,7,,,,,,,,,,,,,,,,,,,,,,,,,,,,,,,,,,,,,,,,,,,,,,
,,,,,,,,,,,,,,,,,,,,,,,,19,female,2020-09-28_10h39.02.218,torte-2b,2020.1.3,Win32,60,13324,,,,,,,,,,,,space,0.831654999,0,12,12,12,1,7,,,,,,,,,,,,,,,,,,,,,,,,,,,,,,,,,,,,,,,,,,,,,,
,,,,,,,,,,,,,,,,,,,,,,,,19,female,2020-09-28_10h39.02.218,torte-2b,2020.1.3,Win32,60,13324,,,,,,,,,,,,space,0.91389,0,13,13,13,1,4,,,,,,,,,,,,,,,,,,,,,,,,,,,,,,,,,,,,,,,,,,,,,,
,,,,,,,,,,,,,,,,,,,,,,,,19,female,2020-09-28_10h39.02.218,torte-2b,2020.1.3,Win32,60,13324,,,,,,,,,,,,,,0,14,14,14,1,6,,,,,,,,,,,,,,,,,,,,,,,,,,,,,,,,,,,,,,,,,,,,,,
,,,,,,,,,,,,,,,,,,,,,,,,19,female,2020-09-28_10h39.02.218,torte-2b,2020.1.3,Win32,60,13324,,,,,,,,,,,,space,0.54592,0,15,15,15,1,4,,,,,,,,,,,,,,,,,,,,,,,,,,,,,,,,,,,,,,,,,,,,,,
,,,,,,,,,,,,,,,,,,,,,,,,19,female,2020-09-28_10h39.02.218,torte-2b,2020.1.3,Win32,60,13324,,,,,,,,,,,,space,0.412649999,0,16,16,16,1,6,,,,,,,,,,,,,,,,,,,,,,,,,,,,,,,,,,,,,,,,,,,,,,
,,,,,,,,,,,,,,,,,,,,,,,,19,female,2020-09-28_10h39.02.218,torte-2b,2020.1.3,Win32,60,13324,,,,,,,,,,,,,,0,17,17,17,1,7,,,,,,,,,,,,,,,,,,,,,,,,,,,,,,,,,,,,,,,,,,,,,,
,,,,,,,,,,,,,,,,,,,,,,,,19,female,2020-09-28_10h39.02.218,torte-2b,2020.1.3,Win32,60,13324,,,,,,,,,,,,space,0.4044,0,18,18,18,1,6,,,,,,,,,,,,,,,,,,,,,,,,,,,,,,,,,,,,,,,,,,,,,,
,,,,,,,,,,,,,,,,,,,,,,,,19,female,2020-09-28_10h39.02.218,torte-2b,2020.1.3,Win32,60,13324,,,,,,,,,,,,space,0.717335,0,19,19,19,1,7,,,,,,,,,,,,,,,,,,,,,,,,,,,,,,,,,,,,,,,,,,,,,,
,,,,,,,,,,,,,,,,,,,,,,,,19,female,2020-09-28_10h39.02.218,torte-2b,2020.1.3,Win32,60,13324,,,,,,,,,,,,,,0,20,20,20,1,5,,,,,,,,,,,,,,,,,,,,,,,,,,,,,,,,,,,,,,,,,,,,,,
,,,,,,,,,,,,,,,,,,,,,,,,19,female,2020-09-28_10h39.02.218,torte-2b,2020.1.3,Win32,60,13324,,,,,,,,,,,,,,0,21,21,21,1,1,,,,,,,,,,,,,,,,,,,,,,,,,,,,,,,,,,,,,,,,,,,,,,
,,,,,,,,,,,,,,,,,,,,,,,,19,female,2020-09-28_10h39.02.218,torte-2b,2020.1.3,Win32,60,13324,,,,,,,,,,,,,,0,22,22,22,1,6,,,,,,,,,,,,,,,,,,,,,,,,,,,,,,,,,,,,,,,,,,,,,,
,,,,,,,,,,,,,,,,,,,,,,,,19,female,2020-09-28_10h39.02.218,torte-2b,2020.1.3,Win32,60,13324,,,,,,,,,,,,space,0.51258,0,23,23,23,1,1,,,,,,,,,,,,,,,,,,,,,,,,,,,,,,,,,,,,,,,,,,,,,,
,,,,,,,,,,,,,,,,,,,,,,,,19,female,2020-09-28_10h39.02.218,torte-2b,2020.1.3,Win32,60,13324,,,,,,,,,,,,,,0,24,24,24,1,5,,,,,,,,,,,,,,,,,,,,,,,,,,,,,,,,,,,,,,,,,,,,,,
,,,,,,,,,,,,,,,,,,,,,,,,19,female,2020-09-28_10h39.02.218,torte-2b,2020.1.3,Win32,60,13324,,,,,,,,,,,,space,0.412835,0,25,25,25,1,6,,,,,,,,,,,,,,,,,,,,,,,,,,,,,,,,,,,,,,,,,,,,,,
,,,,,,,,,,,,,,,,,,,,,,,,19,female,2020-09-28_10h39.02.218,torte-2b,2020.1.3,Win32,60,13324,,,,,,,,,,,,space,0.910645,0,26,26,26,1,6,,,,,,,,,,,,,,,,,,,,,,,,,,,,,,,,,,,,,,,,,,,,,,
,,,,,,,,,,,,,,,,,,,,,,,,19,female,2020-09-28_10h39.02.218,torte-2b,2020.1.3,Win32,60,13324,,,,,,,,,,,,space,0.879655,0,27,27,27,1,6,,,,,,,,,,,,,,,,,,,,,,,,,,,,,,,,,,,,,,,,,,,,,,
,,,,,,,,,,,,,,,,,,,,,,,,19,female,2020-09-28_10h39.02.218,torte-2b,2020.1.3,Win32,60,13324,,,,,,,,,,,,,,0,28,28,28,1,5,,,,,,,,,,,,,,,,,,,,,,,,,,,,,,,,,,,,,,,,,,,,,,
,,,,,,,,,,,,,,,,,,,,,,,,19,female,2020-09-28_10h39.02.218,torte-2b,2020.1.3,Win32,60,13324,,,,,,,,,,,,,,0,29,29,29,1,2,,,,,,,,,,,,,,,,,,,,,,,,,,,,,,,,,,,,,,,,,,,,,,
,,,,,,,,,,,,,,,,,,,,,,,,19,female,2020-09-28_10h39.02.218,torte-2b,2020.1.3,Win32,60,13324,,,,,,,,,,,,space,0.435755,0,30,30,30,1,5,,,,,,,,,,,,,,,,,,,,,,,,,,,,,,,,,,,,,,,,,,,,,,
,,,,,,,,,,,,,,,,,,,,,,,,19,female,2020-09-28_10h39.02.218,torte-2b,2020.1.3,Win32,60,13324,,,,,,,,,,,,space,0.549095,0,31,31,31,1,2,,,,,,,,,,,,,,,,,,,,,,,,,,,,,,,,,,,,,,,,,,,,,,
,,,,,,,,,,,,,,,,,,,,,,,,19,female,2020-09-28_10h39.02.218,torte-2b,2020.1.3,Win32,60,13324,,,,,,,,,,,,space,0.401115,0,32,32,32,1,5,,,,,,,,,,,,,,,,,,,,,,,,,,,,,,,,,,,,,,,,,,,,,,
,,,,,,,,,,,,,,,,,,,,,,,,19,female,2020-09-28_10h39.02.218,torte-2b,2020.1.3,Win32,60,13324,,,,,,,,,,,,,,0,33,33,33,1,1,,,,,,,,,,,,,,,,,,,,,,,,,,,,,,,,,,,,,,,,,,,,,,
,,,,,,,,,,,,,,,,,,,,,,,,19,female,2020-09-28_10h39.02.218,torte-2b,2020.1.3,Win32,60,13324,,,,,,,,,,,,,,0,34,34,34,1,1,,,,,,,,,,,,,,,,,,,,,,,,,,,,,,,,,,,,,,,,,,,,,,
,,,,,,,,,,,,,,,,,,,,,,,,19,female,2020-09-28_10h39.02.218,torte-2b,2020.1.3,Win32,60,13324,,,,,,,,,,,,,,,,,,,2,0,0,0,0,1,,,,,,,,,,,,,,,,,,,,,,,,,,,,,,,,,,,,,,,,,
,,,,,,,,,,,,,,,,,,,,,,,,19,female,2020-09-28_10h39.02.218,torte-2b,2020.1.3,Win32,60,13324,,,,,,,,,,,,,,,,,,,2,0,1,1,1,1,,,,,,,,,,,,,,,,,,,,,,,,,,,,,,,,,,,,,,,,,
,,,,,,,,,,,,,,,,,,,,,,,,19,female,2020-09-28_10h39.02.218,torte-2b,2020.1.3,Win32,60,13324,,,,,,,,,,,,,,,,,,,6,0,2,2,2,1,,,,,,,,,,,,,,,,,,,,,,,,,,,,,,,,,,,,,,,,,
,,,,,,,,,,,,,,,,,,,,,,,,19,female,2020-09-28_10h39.02.218,torte-2b,2020.1.3,Win32,60,13324,,,,,,,,,,,,space,0.526205,,,,,,2,0,3,3,3,1,,,,,,,,,,,,,,,,,,,,,,,,,,,,,,,,,,,,,,,,,
,,,,,,,,,,,,,,,,,,,,,,,,19,female,2020-09-28_10h39.02.218,torte-2b,2020.1.3,Win32,60,13324,,,,,,,,,,,,space,0.700549999,,,,,,6,0,4,4,4,1,,,,,,,,,,,,,,,,,,,,,,,,,,,,,,,,,,,,,,,,,
,,,,,,,,,,,,,,,,,,,,,,,,19,female,2020-09-28_10h39.02.218,torte-2b,2020.1.3,Win32,60,13324,,,,,,,,,,,,space,0.40065,,,,,,2,0,5,5,5,1,,,,,,,,,,,,,,,,,,,,,,,,,,,,,,,,,,,,,,,,,
,,,,,,,,,,,,,,,,,,,,,,,,19,female,2020-09-28_10h39.02.218,torte-2b,2020.1.3,Win32,60,13324,,,,,,,,,,,,,,,,,,,7,0,6,6,6,1,,,,,,,,,,,,,,,,,,,,,,,,,,,,,,,,,,,,,,,,,
,,,,,,,,,,,,,,,,,,,,,,,,19,female,2020-09-28_10h39.02.218,torte-2b,2020.1.3,Win32,60,13324,,,,,,,,,,,,space,0.49984,,,,,,2,0,7,7,7,1,,,,,,,,,,,,,,,,,,,,,,,,,,,,,,,,,,,,,,,,,
,,,,,,,,,,,,,,,,,,,,,,,,19,female,2020-09-28_10h39.02.218,torte-2b,2020.1.3,Win32,60,13324,,,,,,,,,,,,space,0.598135,,,,,,7,0,8,8,8,1,,,,,,,,,,,,,,,,,,,,,,,,,,,,,,,,,,,,,,,,,
,,,,,,,,,,,,,,,,,,,,,,,,19,female,2020-09-28_10h39.02.218,torte-2b,2020.1.3,Win32,60,13324,,,,,,,,,,,,space,0.502825,,,,,,2,0,9,9,9,1,,,,,,,,,,,,,,,,,,,,,,,,,,,,,,,,,,,,,,,,,
,,,,,,,,,,,,,,,,,,,,,,,,19,female,2020-09-28_10h39.02.218,torte-2b,2020.1.3,Win32,60,13324,,,,,,,,,,,,,,,,,,,5,0,10,10,10,1,,,,,,,,,,,,,,,,,,,,,,,,,,,,,,,,,,,,,,,,,
,,,,,,,,,,,,,,,,,,,,,,,,19,female,2020-09-28_10h39.02.218,torte-2b,2020.1.3,Win32,60,13324,,,,,,,,,,,,,,,,,,,4,0,11,11,11,1,,,,,,,,,,,,,,,,,,,,,,,,,,,,,,,,,,,,,,,,,
,,,,,,,,,,,,,,,,,,,,,,,,19,female,2020-09-28_10h39.02.218,torte-2b,2020.1.3,Win32,60,13324,,,,,,,,,,,,space,0.418175,,,,,,5,0,12,12,12,1,,,,,,,,,,,,,,,,,,,,,,,,,,,,,,,,,,,,,,,,,
,,,,,,,,,,,,,,,,,,,,,,,,19,female,2020-09-28_10h39.02.218,torte-2b,2020.1.3,Win32,60,13324,,,,,,,,,,,,,,,,,,,6,0,13,13,13,1,,,,,,,,,,,,,,,,,,,,,,,,,,,,,,,,,,,,,,,,,
,,,,,,,,,,,,,,,,,,,,,,,,19,female,2020-09-28_10h39.02.218,torte-2b,2020.1.3,Win32,60,13324,,,,,,,,,,,,space,0.696909999,,,,,,5,0,14,14,14,1,,,,,,,,,,,,,,,,,,,,,,,,,,,,,,,,,,,,,,,,,
,,,,,,,,,,,,,,,,,,,,,,,,19,female,2020-09-28_10h39.02.218,torte-2b,2020.1.3,Win32,60,13324,,,,,,,,,,,,space,0.614785,,,,,,4,0,15,15,15,1,,,,,,,,,,,,,,,,,,,,,,,,,,,,,,,,,,,,,,,,,
,,,,,,,,,,,,,,,,,,,,,,,,19,female,2020-09-28_10h39.02.218,torte-2b,2020.1.3,Win32,60,13324,,,,,,,,,,,,space,0.364165001,,,,,,5,0,16,16,16,1,,,,,,,,,,,,,,,,,,,,,,,,,,,,,,,,,,,,,,,,,
,,,,,,,,,,,,,,,,,,,,,,,,19,female,2020-09-28_10h39.02.218,torte-2b,2020.1.3,Win32,60,13324,,,,,,,,,,,,space,0.29532,,,,,,3,0,17,17,17,1,,,,,,,,,,,,,,,,,,,,,,,,,,,,,,,,,,,,,,,,,
,,,,,,,,,,,,,,,,,,,,,,,,19,female,2020-09-28_10h39.02.218,torte-2b,2020.1.3,Win32,60,13324,,,,,,,,,,,,,,,,,,,6,0,18,18,18,1,,,,,,,,,,,,,,,,,,,,,,,,,,,,,,,,,,,,,,,,,
,,,,,,,,,,,,,,,,,,,,,,,,19,female,2020-09-28_10h39.02.218,torte-2b,2020.1.3,Win32,60,13324,,,,,,,,,,,,,,,,,,,6,0,19,19,19,1,,,,,,,,,,,,,,,,,,,,,,,,,,,,,,,,,,,,,,,,,
,,,,,,,,,,,,,,,,,,,,,,,,19,female,2020-09-28_10h39.02.218,torte-2b,2020.1.3,Win32,60,13324,,,,,,,,,,,,space,0.396325,,,,,,6,0,20,20,20,1,,,,,,,,,,,,,,,,,,,,,,,,,,,,,,,,,,,,,,,,,
,,,,,,,,,,,,,,,,,,,,,,,,19,female,2020-09-28_10h39.02.218,torte-2b,2020.1.3,Win32,60,13324,,,,,,,,,,,,,,,,,,,4,0,21,21,21,1,,,,,,,,,,,,,,,,,,,,,,,,,,,,,,,,,,,,,,,,,
,,,,,,,,,,,,,,,,,,,,,,,,19,female,2020-09-28_10h39.02.218,torte-2b,2020.1.3,Win32,60,13324,,,,,,,,,,,,space,1.01351,,,,,,6,0,22,22,22,1,,,,,,,,,,,,,,,,,,,,,,,,,,,,,,,,,,,,,,,,,
,,,,,,,,,,,,,,,,,,,,,,,,19,female,2020-09-28_10h39.02.218,torte-2b,2020.1.3,Win32,60,13324,,,,,,,,,,,,space,0.664425,,,,,,4,0,23,23,23,1,,,,,,,,,,,,,,,,,,,,,,,,,,,,,,,,,,,,,,,,,
,,,,,,,,,,,,,,,,,,,,,,,,19,female,2020-09-28_10h39.02.218,torte-2b,2020.1.3,Win32,60,13324,,,,,,,,,,,,space,0.996445,,,,,,6,0,24,24,24,1,,,,,,,,,,,,,,,,,,,,,,,,,,,,,,,,,,,,,,,,,
,,,,,,,,,,,,,,,,,,,,,,,,19,female,2020-09-28_10h39.02.218,torte-2b,2020.1.3,Win32,60,13324,,,,,,,,,,,,space,0.58992,,,,,,6,0,25,25,25,1,,,,,,,,,,,,,,,,,,,,,,,,,,,,,,,,,,,,,,,,,
,,,,,,,,,,,,,,,,,,,,,,,,19,female,2020-09-28_10h39.02.218,torte-2b,2020.1.3,Win32,60,13324,,,,,,,,,,,,,,,,,,,7,0,26,26,26,1,,,,,,,,,,,,,,,,,,,,,,,,,,,,,,,,,,,,,,,,,
,,,,,,,,,,,,,,,,,,,,,,,,19,female,2020-09-28_10h39.02.218,torte-2b,2020.1.3,Win32,60,13324,,,,,,,,,,,,,,,,,,,1,0,27,27,27,1,,,,,,,,,,,,,,,,,,,,,,,,,,,,,,,,,,,,,,,,,
,,,,,,,,,,,,,,,,,,,,,,,,19,female,2020-09-28_10h39.02.218,torte-2b,2020.1.3,Win32,60,13324,,,,,,,,,,,,space,0.382445,,,,,,7,0,28,28,28,1,,,,,,,,,,,,,,,,,,,,,,,,,,,,,,,,,,,,,,,,,
,,,,,,,,,,,,,,,,,,,,,,,,19,female,2020-09-28_10h39.02.218,torte-2b,2020.1.3,Win32,60,13324,,,,,,,,,,,,,,,,,,,4,0,29,29,29,1,,,,,,,,,,,,,,,,,,,,,,,,,,,,,,,,,,,,,,,,,
,,,,,,,,,,,,,,,,,,,,,,,,19,female,2020-09-28_10h39.02.218,torte-2b,2020.1.3,Win32,60,13324,,,,,,,,,,,,,,,,,,,7,0,30,30,30,1,,,,,,,,,,,,,,,,,,,,,,,,,,,,,,,,,,,,,,,,,
,,,,,,,,,,,,,,,,,,,,,,,,19,female,2020-09-28_10h39.02.218,torte-2b,2020.1.3,Win32,60,13324,,,,,,,,,,,,space,0.48501,,,,,,3,0,31,31,31,1,,,,,,,,,,,,,,,,,,,,,,,,,,,,,,,,,,,,,,,,,
,,,,,,,,,,,,,,,,,,,,,,,,19,female,2020-09-28_10h39.02.218,torte-2b,2020.1.3,Win32,60,13324,,,,,,,,,,,,,,,,,,,2,0,32,32,32,1,,,,,,,,,,,,,,,,,,,,,,,,,,,,,,,,,,,,,,,,,
,,,,,,,,,,,,,,,,,,,,,,,,19,female,2020-09-28_10h39.02.218,torte-2b,2020.1.3,Win32,60,13324,,,,,,,,,,,,space,0.680295,,,,,,6,0,33,33,33,1,,,,,,,,,,,,,,,,,,,,,,,,,,,,,,,,,,,,,,,,,
,,,,,,,,,,,,,,,,,,,,,,,,19,female,2020-09-28_10h39.02.218,torte-2b,2020.1.3,Win32,60,13324,,,,,,,,,,,,space,0.951874999,,,,,,3,0,34,34,34,1,,,,,,,,,,,,,,,,,,,,,,,,,,,,,,,,,,,,,,,,,
,,,,,,,,,,,,,,,,,,,,,,,,19,female,2020-09-28_10h39.02.218,torte-2b,2020.1.3,Win32,60,13324,,,,,,,,,,,,,,,,,,,7,,,,,,0,0,0,0,1,,,,,,,,,,,,,,,,,,,,,,,,,,,,,,,,,,,,
,,,,,,,,,,,,,,,,,,,,,,,,19,female,2020-09-28_10h39.02.218,torte-2b,2020.1.3,Win32,60,13324,,,,,,,,,,,,,,,,,,,5,,,,,,0,1,1,1,1,,,,,,,,,,,,,,,,,,,,,,,,,,,,,,,,,,,,
,,,,,,,,,,,,,,,,,,,,,,,,19,female,2020-09-28_10h39.02.218,torte-2b,2020.1.3,Win32,60,13324,,,,,,,,,,,,,,,,,,,4,,,,,,0,2,2,2,1,,,,,,,,,,,,,,,,,,,,,,,,,,,,,,,,,,,,
,,,,,,,,,,,,,,,,,,,,,,,,19,female,2020-09-28_10h39.02.218,torte-2b,2020.1.3,Win32,60,13324,,,,,,,,,,,,space,0.58657,,,,,,5,,,,,,0,3,3,3,1,,,,,,,,,,,,,,,,,,,,,,,,,,,,,,,,,,,,
,,,,,,,,,,,,,,,,,,,,,,,,19,female,2020-09-28_10h39.02.218,torte-2b,2020.1.3,Win32,60,13324,,,,,,,,,,,,,,,,,,,6,,,,,,0,4,4,4,1,,,,,,,,,,,,,,,,,,,,,,,,,,,,,,,,,,,,
,,,,,,,,,,,,,,,,,,,,,,,,19,female,2020-09-28_10h39.02.218,torte-2b,2020.1.3,Win32,60,13324,,,,,,,,,,,,space,0.89906,,,,,,5,,,,,,0,5,5,5,1,,,,,,,,,,,,,,,,,,,,,,,,,,,,,,,,,,,,
,,,,,,,,,,,,,,,,,,,,,,,,19,female,2020-09-28_10h39.02.218,torte-2b,2020.1.3,Win32,60,13324,,,,,,,,,,,,,,,,,,,3,,,,,,0,6,6,6,1,,,,,,,,,,,,,,,,,,,,,,,,,,,,,,,,,,,,
,,,,,,,,,,,,,,,,,,,,,,,,19,female,2020-09-28_10h39.02.218,torte-2b,2020.1.3,Win32,60,13324,,,,,,,,,,,,,,,,,,,4,,,,,,0,7,7,7,1,,,,,,,,,,,,,,,,,,,,,,,,,,,,,,,,,,,,
,,,,,,,,,,,,,,,,,,,,,,,,19,female,2020-09-28_10h39.02.218,torte-2b,2020.1.3,Win32,60,13324,,,,,,,,,,,,space,0.556229999,,,,,,3,,,,,,0,8,8,8,1,,,,,,,,,,,,,,,,,,,,,,,,,,,,,,,,,,,,
,,,,,,,,,,,,,,,,,,,,,,,,19,female,2020-09-28_10h39.02.218,torte-2b,2020.1.3,Win32,60,13324,,,,,,,,,,,,,,,,,,,1,,,,,,0,9,9,9,1,,,,,,,,,,,,,,,,,,,,,,,,,,,,,,,,,,,,
,,,,,,,,,,,,,,,,,,,,,,,,19,female,2020-09-28_10h39.02.218,torte-2b,2020.1.3,Win32,60,13324,,,,,,,,,,,,,,,,,,,2,,,,,,0,10,10,10,1,,,,,,,,,,,,,,,,,,,,,,,,,,,,,,,,,,,,
,,,,,,,,,,,,,,,,,,,,,,,,19,female,2020-09-28_10h39.02.218,torte-2b,2020.1.3,Win32,60,13324,,,,,,,,,,,,space,0.535435,,,,,,1,,,,,,0,11,11,11,1,,,,,,,,,,,,,,,,,,,,,,,,,,,,,,,,,,,,
,,,,,,,,,,,,,,,,,,,,,,,,19,female,2020-09-28_10h39.02.218,torte-2b,2020.1.3,Win32,60,13324,,,,,,,,,,,,space,1.013155,,,,,,2,,,,,,0,12,12,12,1,,,,,,,,,,,,,,,,,,,,,,,,,,,,,,,,,,,,
,,,,,,,,,,,,,,,,,,,,,,,,19,female,2020-09-28_10h39.02.218,torte-2b,2020.1.3,Win32,60,13324,,,,,,,,,,,,space,0.583665,,,,,,1,,,,,,0,13,13,13,1,,,,,,,,,,,,,,,,,,,,,,,,,,,,,,,,,,,,
,,,,,,,,,,,,,,,,,,,,,,,,19,female,2020-09-28_10h39.02.218,torte-2b,2020.1.3,Win32,60,13324,,,,,,,,,,,,,,,,,,,3,,,,,,0,14,14,14,1,,,,,,,,,,,,,,,,,,,,,,,,,,,,,,,,,,,,
,,,,,,,,,,,,,,,,,,,,,,,,19,female,2020-09-28_10h39.02.218,torte-2b,2020.1.3,Win32,60,13324,,,,,,,,,,,,space,0.512885,,,,,,1,,,,,,0,15,15,15,1,,,,,,,,,,,,,,,,,,,,,,,,,,,,,,,,,,,,
,,,,,,,,,,,,,,,,,,,,,,,,19,female,2020-09-28_10h39.02.218,torte-2b,2020.1.3,Win32,60,13324,,,,,,,,,,,,,,,,,,,7,,,,,,0,16,16,16,1,,,,,,,,,,,,,,,,,,,,,,,,,,,,,,,,,,,,
,,,,,,,,,,,,,,,,,,,,,,,,19,female,2020-09-28_10h39.02.218,torte-2b,2020.1.3,Win32,60,13324,,,,,,,,,,,,,,,,,,,7,,,,,,0,17,17,17,1,,,,,,,,,,,,,,,,,,,,,,,,,,,,,,,,,,,,
,,,,,,,,,,,,,,,,,,,,,,,,19,female,2020-09-28_10h39.02.218,torte-2b,2020.1.3,Win32,60,13324,,,,,,,,,,,,,,,,,,,4,,,,,,0,18,18,18,1,,,,,,,,,,,,,,,,,,,,,,,,,,,,,,,,,,,,
,,,,,,,,,,,,,,,,,,,,,,,,19,female,2020-09-28_10h39.02.218,torte-2b,2020.1.3,Win32,60,13324,,,,,,,,,,,,space,0.502345,,,,,,7,,,,,,0,19,19,19,1,,,,,,,,,,,,,,,,,,,,,,,,,,,,,,,,,,,,
,,,,,,,,,,,,,,,,,,,,,,,,19,female,2020-09-28_10h39.02.218,torte-2b,2020.1.3,Win32,60,13324,,,,,,,,,,,,space,0.883385,,,,,,3,,,,,,0,20,20,20,1,,,,,,,,,,,,,,,,,,,,,,,,,,,,,,,,,,,,
,,,,,,,,,,,,,,,,,,,,,,,,19,female,2020-09-28_10h39.02.218,torte-2b,2020.1.3,Win32,60,13324,,,,,,,,,,,,space,0.68317,,,,,,7,,,,,,0,21,21,21,1,,,,,,,,,,,,,,,,,,,,,,,,,,,,,,,,,,,,
,,,,,,,,,,,,,,,,,,,,,,,,19,female,2020-09-28_10h39.02.218,torte-2b,2020.1.3,Win32,60,13324,,,,,,,,,,,,space,1.76801,,,,,,3,,,,,,0,22,22,22,1,,,,,,,,,,,,,,,,,,,,,,,,,,,,,,,,,,,,
,,,,,,,,,,,,,,,,,,,,,,,,19,female,2020-09-28_10h39.02.218,torte-2b,2020.1.3,Win32,60,13324,,,,,,,,,,,,,,,,,,,1,,,,,,0,23,23,23,1,,,,,,,,,,,,,,,,,,,,,,,,,,,,,,,,,,,,
,,,,,,,,,,,,,,,,,,,,,,,,19,female,2020-09-28_10h39.02.218,torte-2b,2020.1.3,Win32,60,13324,,,,,,,,,,,,,,,,,,,6,,,,,,0,24,24,24,1,,,,,,,,,,,,,,,,,,,,,,,,,,,,,,,,,,,,
,,,,,,,,,,,,,,,,,,,,,,,,19,female,2020-09-28_10h39.02.218,torte-2b,2020.1.3,Win32,60,13324,,,,,,,,,,,,space,0.529385,,,,,,3,,,,,,0,25,25,25,1,,,,,,,,,,,,,,,,,,,,,,,,,,,,,,,,,,,,
,,,,,,,,,,,,,,,,,,,,,,,,19,female,2020-09-28_10h39.02.218,torte-2b,2020.1.3,Win32,60,13324,,,,,,,,,,,,,,,,,,,2,,,,,,0,26,26,26,1,,,,,,,,,,,,,,,,,,,,,,,,,,,,,,,,,,,,
,,,,,,,,,,,,,,,,,,,,,,,,19,female,2020-09-28_10h39.02.218,torte-2b,2020.1.3,Win32,60,13324,,,,,,,,,,,,space,0.431659999,,,,,,3,,,,,,0,27,27,27,1,,,,,,,,,,,,,,,,,,,,,,,,,,,,,,,,,,,,
,,,,,,,,,,,,,,,,,,,,,,,,19,female,2020-09-28_10h39.02.218,torte-2b,2020.1.3,Win32,60,13324,,,,,,,,,,,,space,0.70409,,,,,,1,,,,,,0,28,28,28,1,,,,,,,,,,,,,,,,,,,,,,,,,,,,,,,,,,,,
,,,,,,,,,,,,,,,,,,,,,,,,19,female,2020-09-28_10h39.02.218,torte-2b,2020.1.3,Win32,60,13324,,,,,,,,,,,,space,0.412525,,,,,,3,,,,,,0,29,29,29,1,,,,,,,,,,,,,,,,,,,,,,,,,,,,,,,,,,,,
,,,,,,,,,,,,,,,,,,,,,,,,19,female,2020-09-28_10h39.02.218,torte-2b,2020.1.3,Win32,60,13324,,,,,,,,,,,,space,0.8462,,,,,,1,,,,,,0,30,30,30,1,,,,,,,,,,,,,,,,,,,,,,,,,,,,,,,,,,,,
,,,,,,,,,,,,,,,,,,,,,,,,19,female,2020-09-28_10h39.02.218,torte-2b,2020.1.3,Win32,60,13324,,,,,,,,,,,,space,0.301535,,,,,,7,,,,,,0,31,31,31,1,,,,,,,,,,,,,,,,,,,,,,,,,,,,,,,,,,,,
,,,,,,,,,,,,,,,,,,,,,,,,19,female,2020-09-28_10h39.02.218,torte-2b,2020.1.3,Win32,60,13324,,,,,,,,,,,,space,1.286645,,,,,,5,,,,,,0,32,32,32,1,,,,,,,,,,,,,,,,,,,,,,,,,,,,,,,,,,,,
,,,,,,,,,,,,,,,,,,,,,,,,19,female,2020-09-28_10h39.02.218,torte-2b,2020.1.3,Win32,60,13324,,,,,,,,,,,,space,0.629825,,,,,,7,,,,,,0,33,33,33,1,,,,,,,,,,,,,,,,,,,,,,,,,,,,,,,,,,,,
,,,,,,,,,,,,,,,,,,,,,,,,19,female,2020-09-28_10h39.02.218,torte-2b,2020.1.3,Win32,60,13324,,,,,,,,,,,,,,,,,,,2,,,,,,0,34,34,34,1,,,,,,,,,,,,,,,,,,,,,,,,,,,,,,,,,,,,
,,,,,,,,,,,,,,,,,,,,,,,,19,female,2020-09-28_10h39.02.218,torte-2b,2020.1.3,Win32,60,13324,,,,,,,,,,,,,,,,,,,3,,,,,,,,,,,0,0,0,0,1,,,,,,,,,,,,,,,,,,,,,,,,,,,,,,,
,,,,,,,,,,,,,,,,,,,,,,,,19,female,2020-09-28_10h39.02.218,torte-2b,2020.1.3,Win32,60,13324,,,,,,,,,,,,,,,,,,,7,,,,,,,,,,,0,1,1,1,1,,,,,,,,,,,,,,,,,,,,,,,,,,,,,,,
,,,,,,,,,,,,,,,,,,,,,,,,19,female,2020-09-28_10h39.02.218,torte-2b,2020.1.3,Win32,60,13324,,,,,,,,,,,,,,,,,,,7,,,,,,,,,,,0,2,2,2,1,,,,,,,,,,,,,,,,,,,,,,,,,,,,,,,
,,,,,,,,,,,,,,,,,,,,,,,,19,female,2020-09-28_10h39.02.218,torte-2b,2020.1.3,Win32,60,13324,,,,,,,,,,,,,,,,,,,4,,,,,,,,,,,0,3,3,3,1,,,,,,,,,,,,,,,,,,,,,,,,,,,,,,,
,,,,,,,,,,,,,,,,,,,,,,,,19,female,2020-09-28_10h39.02.218,torte-2b,2020.1.3,Win32,60,13324,,,,,,,,,,,,,,,,,,,5,,,,,,,,,,,0,4,4,4,1,,,,,,,,,,,,,,,,,,,,,,,,,,,,,,,
,,,,,,,,,,,,,,,,,,,,,,,,19,female,2020-09-28_10h39.02.218,torte-2b,2020.1.3,Win32,60,13324,,,,,,,,,,,,space,0.912719999,,,,,,4,,,,,,,,,,,0,5,5,5,1,,,,,,,,,,,,,,,,,,,,,,,,,,,,,,,
,,,,,,,,,,,,,,,,,,,,,,,,19,female,2020-09-28_10h39.02.218,torte-2b,2020.1.3,Win32,60,13324,,,,,,,,,,,,,,,,,,,2,,,,,,,,,,,0,6,6,6,1,,,,,,,,,,,,,,,,,,,,,,,,,,,,,,,
,,,,,,,,,,,,,,,,,,,,,,,,19,female,2020-09-28_10h39.02.218,torte-2b,2020.1.3,Win32,60,13324,,,,,,,,,,,,space,0.289545,,,,,,4,,,,,,,,,,,0,7,7,7,1,,,,,,,,,,,,,,,,,,,,,,,,,,,,,,,
,,,,,,,,,,,,,,,,,,,,,,,,19,female,2020-09-28_10h39.02.218,torte-2b,2020.1.3,Win32,60,13324,,,,,,,,,,,,,,,,,,,2,,,,,,,,,,,0,8,8,8,1,,,,,,,,,,,,,,,,,,,,,,,,,,,,,,,
,,,,,,,,,,,,,,,,,,,,,,,,19,female,2020-09-28_10h39.02.218,torte-2b,2020.1.3,Win32,60,13324,,,,,,,,,,,,space,0.466659999,,,,,,2,,,,,,,,,,,0,9,9,9,1,,,,,,,,,,,,,,,,,,,,,,,,,,,,,,,
,,,,,,,,,,,,,,,,,,,,,,,,19,female,2020-09-28_10h39.02.218,torte-2b,2020.1.3,Win32,60,13324,,,,,,,,,,,,,,,,,,,6,,,,,,,,,,,0,10,10,10,1,,,,,,,,,,,,,,,,,,,,,,,,,,,,,,,
,,,,,,,,,,,,,,,,,,,,,,,,19,female,2020-09-28_10h39.02.218,torte-2b,2020.1.3,Win32,60,13324,,,,,,,,,,,,space,0.470985,,,,,,2,,,,,,,,,,,0,11,11,11,1,,,,,,,,,,,,,,,,,,,,,,,,,,,,,,,
,,,,,,,,,,,,,,,,,,,,,,,,19,female,2020-09-28_10h39.02.218,torte-2b,2020.1.3,Win32,60,13324,,,,,,,,,,,,space,0.513305,,,,,,2,,,,,,,,,,,0,12,12,12,1,,,,,,,,,,,,,,,,,,,,,,,,,,,,,,,
,,,,,,,,,,,,,,,,,,,,,,,,19,female,2020-09-28_10h39.02.218,torte-2b,2020.1.3,Win32,60,13324,,,,,,,,,,,,space,0.396015001,,,,,,2,,,,,,,,,,,0,13,13,13,1,,,,,,,,,,,,,,,,,,,,,,,,,,,,,,,
,,,,,,,,,,,,,,,,,,,,,,,,19,female,2020-09-28_10h39.02.218,torte-2b,2020.1.3,Win32,60,13324,,,,,,,,,,,,space,0.882215001,,,,,,2,,,,,,,,,,,0,14,14,14,1,,,,,,,,,,,,,,,,,,,,,,,,,,,,,,,
,,,,,,,,,,,,,,,,,,,,,,,,19,female,2020-09-28_10h39.02.218,torte-2b,2020.1.3,Win32,60,13324,,,,,,,,,,,,,,,,,,,4,,,,,,,,,,,0,15,15,15,1,,,,,,,,,,,,,,,,,,,,,,,,,,,,,,,
,,,,,,,,,,,,,,,,,,,,,,,,19,female,2020-09-28_10h39.02.218,torte-2b,2020.1.3,Win32,60,13324,,,,,,,,,,,,,,,,,,,3,,,,,,,,,,,0,16,16,16,1,,,,,,,,,,,,,,,,,,,,,,,,,,,,,,,
,,,,,,,,,,,,,,,,,,,,,,,,19,female,2020-09-28_10h39.02.218,torte-2b,2020.1.3,Win32,60,13324,,,,,,,,,,,,,,,,,,,7,,,,,,,,,,,0,17,17,17,1,,,,,,,,,,,,,,,,,,,,,,,,,,,,,,,
,,,,,,,,,,,,,,,,,,,,,,,,19,female,2020-09-28_10h39.02.218,torte-2b,2020.1.3,Win32,60,13324,,,,,,,,,,,,space,0.54195,,,,,,4,,,,,,,,,,,0,18,18,18,1,,,,,,,,,,,,,,,,,,,,,,,,,,,,,,,
,,,,,,,,,,,,,,,,,,,,,,,,19,female,2020-09-28_10h39.02.218,torte-2b,2020.1.3,Win32,60,13324,,,,,,,,,,,,space,0.623115,,,,,,7,,,,,,,,,,,0,19,19,19,1,,,,,,,,,,,,,,,,,,,,,,,,,,,,,,,
,,,,,,,,,,,,,,,,,,,,,,,,19,female,2020-09-28_10h39.02.218,torte-2b,2020.1.3,Win32,60,13324,,,,,,,,,,,,space,0.43193,,,,,,7,,,,,,,,,,,0,20,20,20,1,,,,,,,,,,,,,,,,,,,,,,,,,,,,,,,
,,,,,,,,,,,,,,,,,,,,,,,,19,female,2020-09-28_10h39.02.218,torte-2b,2020.1.3,Win32,60,13324,,,,,,,,,,,,space,0.780665,,,,,,7,,,,,,,,,,,0,21,21,21,1,,,,,,,,,,,,,,,,,,,,,,,,,,,,,,,
,,,,,,,,,,,,,,,,,,,,,,,,19,female,2020-09-28_10h39.02.218,torte-2b,2020.1.3,Win32,60,13324,,,,,,,,,,,,space,1.02114,,,,,,7,,,,,,,,,,,0,22,22,22,1,,,,,,,,,,,,,,,,,,,,,,,,,,,,,,,
,,,,,,,,,,,,,,,,,,,,,,,,19,female,2020-09-28_10h39.02.218,torte-2b,2020.1.3,Win32,60,13324,,,,,,,,,,,,,,,,,,,1,,,,,,,,,,,0,23,23,23,1,,,,,,,,,,,,,,,,,,,,,,,,,,,,,,,
,,,,,,,,,,,,,,,,,,,,,,,,19,female,2020-09-28_10h39.02.218,torte-2b,2020.1.3,Win32,60,13324,,,,,,,,,,,,space,0.7967,,,,,,7,,,,,,,,,,,0,24,24,24,1,,,,,,,,,,,,,,,,,,,,,,,,,,,,,,,
,,,,,,,,,,,,,,,,,,,,,,,,19,female,2020-09-28_10h39.02.218,torte-2b,2020.1.3,Win32,60,13324,,,,,,,,,,,,space,0.76764,,,,,,1,,,,,,,,,,,0,25,25,25,1,,,,,,,,,,,,,,,,,,,,,,,,,,,,,,,
,,,,,,,,,,,,,,,,,,,,,,,,19,female,2020-09-28_10h39.02.218,torte-2b,2020.1.3,Win32,60,13324,,,,,,,,,,,,space,0.48427,,,,,,7,,,,,,,,,,,0,26,26,26,1,,,,,,,,,,,,,,,,,,,,,,,,,,,,,,,
,,,,,,,,,,,,,,,,,,,,,,,,19,female,2020-09-28_10h39.02.218,torte-2b,2020.1.3,Win32,60,13324,,,,,,,,,,,,,,,,,,,2,,,,,,,,,,,0,27,27,27,1,,,,,,,,,,,,,,,,,,,,,,,,,,,,,,,
,,,,,,,,,,,,,,,,,,,,,,,,19,female,2020-09-28_10h39.02.218,torte-2b,2020.1.3,Win32,60,13324,,,,,,,,,,,,,,,,,,,5,,,,,,,,,,,0,28,28,28,1,,,,,,,,,,,,,,,,,,,,,,,,,,,,,,,
,,,,,,,,,,,,,,,,,,,,,,,,19,female,2020-09-28_10h39.02.218,torte-2b,2020.1.3,Win32,60,13324,,,,,,,,,,,,space,0.523915,,,,,,5,,,,,,,,,,,0,29,29,29,1,,,,,,,,,,,,,,,,,,,,,,,,,,,,,,,
,,,,,,,,,,,,,,,,,,,,,,,,19,female,2020-09-28_10h39.02.218,torte-2b,2020.1.3,Win32,60,13324,,,,,,,,,,,,space,0.70472,,,,,,5,,,,,,,,,,,0,30,30,30,1,,,,,,,,,,,,,,,,,,,,,,,,,,,,,,,
,,,,,,,,,,,,,,,,,,,,,,,,19,female,2020-09-28_10h39.02.218,torte-2b,2020.1.3,Win32,60,13324,,,,,,,,,,,,,,,,,,,1,,,,,,,,,,,0,31,31,31,1,,,,,,,,,,,,,,,,,,,,,,,,,,,,,,,
,,,,,,,,,,,,,,,,,,,,,,,,19,female,2020-09-28_10h39.02.218,torte-2b,2020.1.3,Win32,60,13324,,,,,,,,,,,,space,0.76896,,,,,,5,,,,,,,,,,,0,32,32,32,1,,,,,,,,,,,,,,,,,,,,,,,,,,,,,,,
,,,,,,,,,,,,,,,,,,,,,,,,19,female,2020-09-28_10h39.02.218,torte-2b,2020.1.3,Win32,60,13324,,,,,,,,,,,,,,,,,,,3,,,,,,,,,,,0,33,33,33,1,,,,,,,,,,,,,,,,,,,,,,,,,,,,,,,
,,,,,,,,,,,,,,,,,,,,,,,,19,female,2020-09-28_10h39.02.218,torte-2b,2020.1.3,Win32,60,13324,,,,,,,,,,,,,,,,,,,3,,,,,,,,,,,0,34,34,34,1,,,,,,,,,,,,,,,,,,,,,,,,,,,,,,,
,,,,,,,,,,,,l,0.971955,Correct!,,,,,,t1.png,t4.png,3,0.0000131,19,female,2020-09-28_10h39.02.218,torte-2b,2020.1.3,Win32,60,13324,space,0.720960001,,,,,,,,,,,,,,,,,,,,,,,,,,,,,,,,,return,13.165775,0,0,0,17,1,,,,,,,,,,,,,,,,,,,,,,,,
,,,,,,,,,,,,a,0.92362,Incorrect,,,,,,t5.png,t2.png,3,0.0000131,19,female,2020-09-28_10h39.02.218,torte-2b,2020.1.3,Win32,60,13324,,,,,,,,,,,,,,,,,,,,,,,,,,,,,,,,,,,,,0,1,1,51,1,,,,,,,,,,,,,,,,,,,,,,,,
,,,,,,,,,,,,l,1.075745,Correct!,,,,,,t3.png,t5.png,2,0.056466,19,female,2020-09-28_10h39.02.218,torte-2b,2020.1.3,Win32,60,13324,,,,,,,,,,,,,,,,,,,,,,,,,,,,,,,,,,,,,0,2,2,6,1,,,,,,,,,,,,,,,,,,,,,,,,
,,,,,,,,,,,,l,1.616014999,Incorrect,,,,,,t2.png,t1.png,1,0.90025,19,female,2020-09-28_10h39.02.218,torte-2b,2020.1.3,Win32,60,13324,,,,,,,,,,,,,,,,,,,,,,,,,,,,,,,,,,,,,0,3,3,5,1,,,,,,,,,,,,,,,,,,,,,,,,
,,,,,,,,,,,,l,0.849425,Correct!,,,,,,t3.png,t1.png,2,0.056466,19,female,2020-09-28_10h39.02.218,torte-2b,2020.1.3,Win32,60,13324,,,,,,,,,,,,,,,,,,,,,,,,,,,,,,,,,,,,,0,4,4,64,1,,,,,,,,,,,,,,,,,,,,,,,,
,,,,,,,,,,,,l,0.466625,Correct!,,,,,,t3.png,t1.png,2,0.056466,19,female,2020-09-28_10h39.02.218,torte-2b,2020.1.3,Win32,60,13324,,,,,,,,,,,,,,,,,,,,,,,,,,,,,,,,,,,,,0,5,5,0,1,,,,,,,,,,,,,,,,,,,,,,,,
,,,,,,,,,,,,a,0.83221,Incorrect,,,,,,t2.png,t5.png,3,0.0000131,19,female,2020-09-28_10h39.02.218,torte-2b,2020.1.3,Win32,60,13324,,,,,,,,,,,,,,,,,,,,,,,,,,,,,,,,,,,,,0,6,6,66,1,,,,,,,,,,,,,,,,,,,,,,,,
,,,,,,,,,,,,l,0.526645,Incorrect,,,,,,t1.png,t1.png,0,0.97829,19,female,2020-09-28_10h39.02.218,torte-2b,2020.1.3,Win32,60,13324,,,,,,,,,,,,,,,,,,,,,,,,,,,,,,,,,,,,,0,7,7,67,1,,,,,,,,,,,,,,,,,,,,,,,,
,,,,,,,,,,,,a,0.44032,Correct!,,,,,,t3.png,t4.png,1,0.909,19,female,2020-09-28_10h39.02.218,torte-2b,2020.1.3,Win32,60,13324,,,,,,,,,,,,,,,,,,,,,,,,,,,,,,,,,,,,,0,8,8,89,1,,,,,,,,,,,,,,,,,,,,,,,,
,,,,,,,,,,,,a,0.498649999,Incorrect,,,,,,t2.png,t4.png,2,0.059078,19,female,2020-09-28_10h39.02.218,torte-2b,2020.1.3,Win32,60,13324,,,,,,,,,,,,,,,,,,,,,,,,,,,,,,,,,,,,,0,9,9,24,1,,,,,,,,,,,,,,,,,,,,,,,,
,,,,,,,,,,,,l,0.738015,Incorrect,,,,,,t1.png,t3.png,2,0.056466,19,female,2020-09-28_10h39.02.218,torte-2b,2020.1.3,Win32,60,13324,,,,,,,,,,,,,,,,,,,,,,,,,,,,,,,,,,,,,0,10,10,69,1,,,,,,,,,,,,,,,,,,,,,,,,
,,,,,,,,,,,,a,0.51635,Correct!,,,,,,t1.png,t1.png,0,0.97829,19,female,2020-09-28_10h39.02.218,torte-2b,2020.1.3,Win32,60,13324,,,,,,,,,,,,,,,,,,,,,,,,,,,,,,,,,,,,,0,11,11,78,1,,,,,,,,,,,,,,,,,,,,,,,,
,,,,,,,,,,,,l,0.86498,Incorrect,,,,,,t1.png,t2.png,1,0.90025,19,female,2020-09-28_10h39.02.218,torte-2b,2020.1.3,Win32,60,13324,,,,,,,,,,,,,,,,,,,,,,,,,,,,,,,,,,,,,0,12,12,33,1,,,,,,,,,,,,,,,,,,,,,,,,
,,,,,,,,,,,,a,0.52516,Incorrect,,,,,,t5.png,t1.png,4,9.55E-11,19,female,2020-09-28_10h39.02.218,torte-2b,2020.1.3,Win32,60,13324,,,,,,,,,,,,,,,,,,,,,,,,,,,,,,,,,,,,,0,13,13,22,1,,,,,,,,,,,,,,,,,,,,,,,,
,,,,,,,,,,,,a,0.66789,Incorrect,,,,,,t5.png,t2.png,3,0.0000131,19,female,2020-09-28_10h39.02.218,torte-2b,2020.1.3,Win32,60,13324,,,,,,,,,,,,,,,,,,,,,,,,,,,,,,,,,,,,,0,14,14,116,1,,,,,,,,,,,,,,,,,,,,,,,,
,,,,,,,,,,,,a,0.692565,Correct!,,,,,,t4.png,t3.png,1,0.909,19,female,2020-09-28_10h39.02.218,torte-2b,2020.1.3,Win32,60,13324,,,,,,,,,,,,,,,,,,,,,,,,,,,,,,,,,,,,,0,15,15,20,1,,,,,,,,,,,,,,,,,,,,,,,,
,,,,,,,,,,,,l,0.405185,Correct!,,,,,,t1.png,t3.png,2,0.056466,19,female,2020-09-28_10h39.02.218,torte-2b,2020.1.3,Win32,60,13324,,,,,,,,,,,,,,,,,,,,,,,,,,,,,,,,,,,,,0,16,16,99,1,,,,,,,,,,,,,,,,,,,,,,,,
,,,,,,,,,,,,l,0.472809999,Incorrect,,,,,,t3.png,t4.png,1,0.909,19,female,2020-09-28_10h39.02.218,torte-2b,2020.1.3,Win32,60,13324,,,,,,,,,,,,,,,,,,,,,,,,,,,,,,,,,,,,,0,17,17,82,1,,,,,,,,,,,,,,,,,,,,,,,,
,,,,,,,,,,,,l,0.736365,Incorrect,,,,,,t4.png,t4.png,0,0.98115,19,female,2020-09-28_10h39.02.218,torte-2b,2020.1.3,Win32,60,13324,,,,,,,,,,,,,,,,,,,,,,,,,,,,,,,,,,,,,0,18,18,90,1,,,,,,,,,,,,,,,,,,,,,,,,
,,,,,,,,,,,,a,0.704340001,Incorrect,,,,,,t4.png,t1.png,3,0.0000131,19,female,2020-09-28_10h39.02.218,torte-2b,2020.1.3,Win32,60,13324,,,,,,,,,,,,,,,,,,,,,,,,,,,,,,,,,,,,,0,19,19,13,1,,,,,,,,,,,,,,,,,,,,,,,,
,,,,,,,,,,,,l,0.716205,Correct!,,,,,,t2.png,t5.png,3,0.0000131,19,female,2020-09-28_10h39.02.218,torte-2b,2020.1.3,Win32,60,13324,,,,,,,,,,,,,,,,,,,,,,,,,,,,,,,,,,,,,0,20,20,104,1,,,,,,,,,,,,,,,,,,,,,,,,
,,,,,,,,,,,,a,0.898665,Incorrect,,,,,,t5.png,t3.png,2,0.056466,19,female,2020-09-28_10h39.02.218,torte-2b,2020.1.3,Win32,60,13324,,,,,,,,,,,,,,,,,,,,,,,,,,,,,,,,,,,,,0,21,21,108,1,,,,,,,,,,,,,,,,,,,,,,,,
,,,,,,,,,,,,l,0.65337,Incorrect,,,,,,t5.png,t4.png,1,0.90025,19,female,2020-09-28_10h39.02.218,torte-2b,2020.1.3,Win32,60,13324,,,,,,,,,,,,,,,,,,,,,,,,,,,,,,,,,,,,,0,22,22,27,1,,,,,,,,,,,,,,,,,,,,,,,,
,,,,,,,,,,,,l,0.45277,Correct!,,,,,,t1.png,t5.png,4,9.55E-11,19,female,2020-09-28_10h39.02.218,torte-2b,2020.1.3,Win32,60,13324,,,,,,,,,,,,,,,,,,,,,,,,,,,,,,,,,,,,,0,23,23,16,1,,,,,,,,,,,,,,,,,,,,,,,,
,,,,,,,,,,,,l,1.42455,Correct!,,,,,,t2.png,t5.png,3,0.0000131,19,female,2020-09-28_10h39.02.218,torte-2b,2020.1.3,Win32,60,13324,,,,,,,,,,,,,,,,,,,,,,,,,,,,,,,,,,,,,0,24,24,40,1,,,,,,,,,,,,,,,,,,,,,,,,
,,,,,,,,,,,,l,0.58514,Correct!,,,,,,t4.png,t5.png,1,0.90025,19,female,2020-09-28_10h39.02.218,torte-2b,2020.1.3,Win32,60,13324,,,,,,,,,,,,,,,,,,,,,,,,,,,,,,,,,,,,,0,25,25,47,1,,,,,,,,,,,,,,,,,,,,,,,,
,,,,,,,,,,,,a,0.466655,Incorrect,,,,,,t4.png,t2.png,2,0.059078,19,female,2020-09-28_10h39.02.218,torte-2b,2020.1.3,Win32,60,13324,,,,,,,,,,,,,,,,,,,,,,,,,,,,,,,,,,,,,0,26,26,109,1,,,,,,,,,,,,,,,,,,,,,,,,
,,,,,,,,,,,,a,0.490275,Correct!,,,,,,t3.png,t4.png,1,0.909,19,female,2020-09-28_10h39.02.218,torte-2b,2020.1.3,Win32,60,13324,,,,,,,,,,,,,,,,,,,,,,,,,,,,,,,,,,,,,0,27,27,106,1,,,,,,,,,,,,,,,,,,,,,,,,
,,,,,,,,,,,,a,0.470659999,Incorrect,,,,,,t2.png,t5.png,3,0.0000131,19,female,2020-09-28_10h39.02.218,torte-2b,2020.1.3,Win32,60,13324,,,,,,,,,,,,,,,,,,,,,,,,,,,,,,,,,,,,,0,28,28,8,1,,,,,,,,,,,,,,,,,,,,,,,,
,,,,,,,,,,,,a,0.465115,Incorrect,,,,,,t2.png,t5.png,3,0.0000131,19,female,2020-09-28_10h39.02.218,torte-2b,2020.1.3,Win32,60,13324,,,,,,,,,,,,,,,,,,,,,,,,,,,,,,,,,,,,,0,29,29,95,1,,,,,,,,,,,,,,,,,,,,,,,,
,,,,,,,,,,,,l,0.557595001,Incorrect,,,,,,t3.png,t2.png,1,0.90855,19,female,2020-09-28_10h39.02.218,torte-2b,2020.1.3,Win32,60,13324,,,,,,,,,,,,,,,,,,,,,,,,,,,,,,,,,,,,,0,30,30,53,1,,,,,,,,,,,,,,,,,,,,,,,,
,,,,,,,,,,,,a,0.400125,Incorrect,,,,,,t3.png,t2.png,1,0.90855,19,female,2020-09-28_10h39.02.218,torte-2b,2020.1.3,Win32,60,13324,,,,,,,,,,,,,,,,,,,,,,,,,,,,,,,,,,,,,0,31,31,97,1,,,,,,,,,,,,,,,,,,,,,,,,
,,,,,,,,,,,,a,0.38783,Incorrect,,,,,,t3.png,t5.png,2,0.0565,19,female,2020-09-28_10h39.02.218,torte-2b,2020.1.3,Win32,60,13324,,,,,,,,,,,,,,,,,,,,,,,,,,,,,,,,,,,,,0,32,32,30,1,,,,,,,,,,,,,,,,,,,,,,,,
,,,,,,,,,,,,l,0.502005,Incorrect,,,,,,t2.png,t2.png,0,0.98115,19,female,2020-09-28_10h39.02.218,torte-2b,2020.1.3,Win32,60,13324,,,,,,,,,,,,,,,,,,,,,,,,,,,,,,,,,,,,,0,33,33,7,1,,,,,,,,,,,,,,,,,,,,,,,,
,,,,,,,,,,,,a,0.53627,Correct!,,,,,,t2.png,t3.png,1,0.90855,19,female,2020-09-28_10h39.02.218,torte-2b,2020.1.3,Win32,60,13324,,,,,,,,,,,,,,,,,,,,,,,,,,,,,,,,,,,,,0,34,34,68,1,,,,,,,,,,,,,,,,,,,,,,,,
,,,,,,,,,,,,a,0.497805,Incorrect,,,,,,t2.png,t4.png,2,0.0591,19,female,2020-09-28_10h39.02.218,torte-2b,2020.1.3,Win32,60,13324,,,,,,,,,,,,,,,,,,,,,,,,,,,,,,,,,,,,,0,35,35,15,1,,,,,,,,,,,,,,,,,,,,,,,,
,,,,,,,,,,,,l,1.185705001,Correct!,,,,,,t5.png,t4.png,1,0.90025,19,female,2020-09-28_10h39.02.218,torte-2b,2020.1.3,Win32,60,13324,,,,,,,,,,,,,,,,,,,,,,,,,,,,,,,,,,,,,0,36,36,34,1,,,,,,,,,,,,,,,,,,,,,,,,
,,,,,,,,,,,,a,0.681980001,Incorrect,,,,,,t4.png,t2.png,2,0.059078,19,female,2020-09-28_10h39.02.218,torte-2b,2020.1.3,Win32,60,13324,,,,,,,,,,,,,,,,,,,,,,,,,,,,,,,,,,,,,0,37,37,88,1,,,,,,,,,,,,,,,,,,,,,,,,
,,,,,,,,,,,,a,0.515625,Correct!,,,,,,t5.png,t4.png,1,0.90025,19,female,2020-09-28_10h39.02.218,torte-2b,2020.1.3,Win32,60,13324,,,,,,,,,,,,,,,,,,,,,,,,,,,,,,,,,,,,,0,38,38,26,1,,,,,,,,,,,,,,,,,,,,,,,,
,,,,,,,,,,,,a,0.453840001,Incorrect,,,,,,t5.png,t1.png,4,9.55E-11,19,female,2020-09-28_10h39.02.218,torte-2b,2020.1.3,Win32,60,13324,,,,,,,,,,,,,,,,,,,,,,,,,,,,,,,,,,,,,0,39,39,102,1,,,,,,,,,,,,,,,,,,,,,,,,
,,,,,,,,,,,,l,0.56762,Correct!,,,,,,t1.png,t5.png,4,9.55E-11,19,female,2020-09-28_10h39.02.218,torte-2b,2020.1.3,Win32,60,13324,,,,,,,,,,,,,,,,,,,,,,,,,,,,,,,,,,,,,0,40,40,85,1,,,,,,,,,,,,,,,,,,,,,,,,
,,,,,,,,,,,,l,1.332135,Correct!,,,,,,t5.png,t1.png,4,9.55E-11,19,female,2020-09-28_10h39.02.218,torte-2b,2020.1.3,Win32,60,13324,,,,,,,,,,,,,,,,,,,,,,,,,,,,,,,,,,,,,0,41,41,71,1,,,,,,,,,,,,,,,,,,,,,,,,
,,,,,,,,,,,,a,0.98691,Correct!,,,,,,t1.png,t1.png,0,0.978,19,female,2020-09-28_10h39.02.218,torte-2b,2020.1.3,Win32,60,13324,,,,,,,,,,,,,,,,,,,,,,,,,,,,,,,,,,,,,0,42,42,54,1,,,,,,,,,,,,,,,,,,,,,,,,
,,,,,,,,,,,,a,0.86781,Correct!,,,,,,t2.png,t1.png,1,0.90025,19,female,2020-09-28_10h39.02.218,torte-2b,2020.1.3,Win32,60,13324,,,,,,,,,,,,,,,,,,,,,,,,,,,,,,,,,,,,,0,43,43,4,1,,,,,,,,,,,,,,,,,,,,,,,,
,,,,,,,,,,,,l,0.93357,Correct!,,,,,,t2.png,t4.png,2,0.059078,19,female,2020-09-28_10h39.02.218,torte-2b,2020.1.3,Win32,60,13324,,,,,,,,,,,,,,,,,,,,,,,,,,,,,,,,,,,,,0,44,44,11,1,,,,,,,,,,,,,,,,,,,,,,,,
,,,,,,,,,,,,l,0.540329999,Correct!,,,,,,t1.png,t4.png,3,0.0000131,19,female,2020-09-28_10h39.02.218,torte-2b,2020.1.3,Win32,60,13324,,,,,,,,,,,,,,,,,,,,,,,,,,,,,,,,,,,,,0,45,45,50,1,,,,,,,,,,,,,,,,,,,,,,,,
,,,,,,,,,,,,a,0.483065,Incorrect,,,,,,t2.png,t4.png,2,0.059078,19,female,2020-09-28_10h39.02.218,torte-2b,2020.1.3,Win32,60,13324,,,,,,,,,,,,,,,,,,,,,,,,,,,,,,,,,,,,,0,46,46,77,1,,,,,,,,,,,,,,,,,,,,,,,,
,,,,,,,,,,,,l,0.574065,Correct!,,,,,,t3.png,t5.png,2,0.0565,19,female,2020-09-28_10h39.02.218,torte-2b,2020.1.3,Win32,60,13324,,,,,,,,,,,,,,,,,,,,,,,,,,,,,,,,,,,,,0,47,47,83,1,,,,,,,,,,,,,,,,,,,,,,,,
,,,,,,,,,,,,l,0.449185,Incorrect,,,,,,t3.png,t4.png,1,0.90855,19,female,2020-09-28_10h39.02.218,torte-2b,2020.1.3,Win32,60,13324,,,,,,,,,,,,,,,,,,,,,,,,,,,,,,,,,,,,,0,48,48,96,1,,,,,,,,,,,,,,,,,,,,,,,,
,,,,,,,,,,,,a,0.48244,Incorrect,,,,,,t5.png,t2.png,3,0.0000131,19,female,2020-09-28_10h39.02.218,torte-2b,2020.1.3,Win32,60,13324,,,,,,,,,,,,,,,,,,,,,,,,,,,,,,,,,,,,,0,49,49,91,1,,,,,,,,,,,,,,,,,,,,,,,,
,,,,,,,,,,,,l,0.40199,Incorrect,,,,,,t4.png,t5.png,1,0.9,19,female,2020-09-28_10h39.02.218,torte-2b,2020.1.3,Win32,60,13324,,,,,,,,,,,,,,,,,,,,,,,,,,,,,,,,,,,,,0,50,50,115,1,,,,,,,,,,,,,,,,,,,,,,,,
,,,,,,,,,,,,a,0.506915,Correct!,,,,,,t3.png,t2.png,1,0.909,19,female,2020-09-28_10h39.02.218,torte-2b,2020.1.3,Win32,60,13324,,,,,,,,,,,,,,,,,,,,,,,,,,,,,,,,,,,,,0,51,51,23,1,,,,,,,,,,,,,,,,,,,,,,,,
,,,,,,,,,,,,a,0.417725001,Correct!,,,,,,t4.png,t4.png,0,0.98115,19,female,2020-09-28_10h39.02.218,torte-2b,2020.1.3,Win32,60,13324,,,,,,,,,,,,,,,,,,,,,,,,,,,,,,,,,,,,,0,52,52,79,1,,,,,,,,,,,,,,,,,,,,,,,,
,,,,,,,,,,,,l,0.378535001,Incorrect,,,,,,t2.png,t2.png,0,0.98115,19,female,2020-09-28_10h39.02.218,torte-2b,2020.1.3,Win32,60,13324,,,,,,,,,,,,,,,,,,,,,,,,,,,,,,,,,,,,,0,53,53,57,1,,,,,,,,,,,,,,,,,,,,,,,,
,,,,,,,,,,,,a,0.26536,Correct!,,,,,,t5.png,t4.png,1,0.9,19,female,2020-09-28_10h39.02.218,torte-2b,2020.1.3,Win32,60,13324,,,,,,,,,,,,,,,,,,,,,,,,,,,,,,,,,,,,,0,54,54,76,1,,,,,,,,,,,,,,,,,,,,,,,,
,,,,,,,,,,,,l,0.315549999,Incorrect,,,,,,t4.png,t5.png,1,0.90025,19,female,2020-09-28_10h39.02.218,torte-2b,2020.1.3,Win32,60,13324,,,,,,,,,,,,,,,,,,,,,,,,,,,,,,,,,,,,,0,55,55,113,1,,,,,,,,,,,,,,,,,,,,,,,,
,,,,,,,,,,,,a,0.355045,Correct!,,,,,,t4.png,t5.png,1,0.90025,19,female,2020-09-28_10h39.02.218,torte-2b,2020.1.3,Win32,60,13324,,,,,,,,,,,,,,,,,,,,,,,,,,,,,,,,,,,,,0,56,56,58,1,,,,,,,,,,,,,,,,,,,,,,,,
,,,,,,,,,,,,a,0.59935,Correct!,,,,,,t2.png,t3.png,1,0.90855,19,female,2020-09-28_10h39.02.218,torte-2b,2020.1.3,Win32,60,13324,,,,,,,,,,,,,,,,,,,,,,,,,,,,,,,,,,,,,0,57,57,111,1,,,,,,,,,,,,,,,,,,,,,,,,
,,,,,,,,,,,,a,0.358435,Incorrect,,,,,,t1.png,t5.png,4,9.55E-11,19,female,2020-09-28_10h39.02.218,torte-2b,2020.1.3,Win32,60,13324,,,,,,,,,,,,,,,,,,,,,,,,,,,,,,,,,,,,,0,58,58,55,1,,,,,,,,,,,,,,,,,,,,,,,,
,,,,,,,,,,,,l,0.52417,Incorrect,,,,,,t2.png,t2.png,0,0.98115,19,female,2020-09-28_10h39.02.218,torte-2b,2020.1.3,Win32,60,13324,,,,,,,,,,,,,,,,,,,,,,,,,,,,,,,,,,,,,0,59,59,59,1,,,,,,,,,,,,,,,,,,,,,,,,
,,,,,,,,,,,,l,0.898855,Incorrect,,,,,,t1.png,t2.png,1,0.90025,19,female,2020-09-28_10h39.02.218,torte-2b,2020.1.3,Win32,60,13324,,,,,,,,,,,,,,,,,,,,,,,,,,,,,,,,,,,,,0,60,60,112,1,,,,,,,,,,,,,,,,,,,,,,,,
,,,,,,,,,,,,a,0.46512,Correct!,,,,,,t3.png,t2.png,1,0.909,19,female,2020-09-28_10h39.02.218,torte-2b,2020.1.3,Win32,60,13324,,,,,,,,,,,,,,,,,,,,,,,,,,,,,,,,,,,,,0,61,61,3,1,,,,,,,,,,,,,,,,,,,,,,,,
,,,,,,,,,,,,a,0.45395,Correct!,,,,,,t5.png,t4.png,1,0.9,19,female,2020-09-28_10h39.02.218,torte-2b,2020.1.3,Win32,60,13324,,,,,,,,,,,,,,,,,,,,,,,,,,,,,,,,,,,,,0,62,62,49,1,,,,,,,,,,,,,,,,,,,,,,,,
,,,,,,,,,,,,a,0.60436,Correct!,,,,,,t4.png,t4.png,0,0.98115,19,female,2020-09-28_10h39.02.218,torte-2b,2020.1.3,Win32,60,13324,,,,,,,,,,,,,,,,,,,,,,,,,,,,,,,,,,,,,0,63,63,21,1,,,,,,,,,,,,,,,,,,,,,,,,
,,,,,,,,,,,,l,0.536979999,Correct!,,,,,,t4.png,t1.png,3,0.0000131,19,female,2020-09-28_10h39.02.218,torte-2b,2020.1.3,Win32,60,13324,,,,,,,,,,,,,,,,,,,,,,,,,,,,,,,,,,,,,0,64,64,93,1,,,,,,,,,,,,,,,,,,,,,,,,
,,,,,,,,,,,,a,1.17399,Incorrect,,,,,,t5.png,t2.png,3,0.0000131,19,female,2020-09-28_10h39.02.218,torte-2b,2020.1.3,Win32,60,13324,,,,,,,,,,,,,,,,,,,,,,,,,,,,,,,,,,,,,0,65,65,119,1,,,,,,,,,,,,,,,,,,,,,,,,
,,,,,,,,,,,,l,0.39117,Correct!,,,,,,t1.png,t3.png,2,0.056466,19,female,2020-09-28_10h39.02.218,torte-2b,2020.1.3,Win32,60,13324,,,,,,,,,,,,,,,,,,,,,,,,,,,,,,,,,,,,,0,66,66,87,1,,,,,,,,,,,,,,,,,,,,,,,,
,,,,,,,,,,,,a,1.16511,Correct!,,,,,,t4.png,t4.png,0,0.98115,19,female,2020-09-28_10h39.02.218,torte-2b,2020.1.3,Win32,60,13324,,,,,,,,,,,,,,,,,,,,,,,,,,,,,,,,,,,,,0,67,67,52,1,,,,,,,,,,,,,,,,,,,,,,,,
,,,,,,,,,,,,l,0.757515,Correct!,,,,,,t4.png,t1.png,3,0.0000131,19,female,2020-09-28_10h39.02.218,torte-2b,2020.1.3,Win32,60,13324,,,,,,,,,,,,,,,,,,,,,,,,,,,,,,,,,,,,,0,68,68,61,1,,,,,,,,,,,,,,,,,,,,,,,,
,,,,,,,,,,,,l,0.61518,Correct!,,,,,,t3.png,t1.png,2,0.056466,19,female,2020-09-28_10h39.02.218,torte-2b,2020.1.3,Win32,60,13324,,,,,,,,,,,,,,,,,,,,,,,,,,,,,,,,,,,,,0,69,69,29,1,,,,,,,,,,,,,,,,,,,,,,,,
,,,,,,,,,,,,a,0.396989999,Correct!,,,,,,t4.png,t3.png,1,0.90855,19,female,2020-09-28_10h39.02.218,torte-2b,2020.1.3,Win32,60,13324,,,,,,,,,,,,,,,,,,,,,,,,,,,,,,,,,,,,,0,70,70,35,1,,,,,,,,,,,,,,,,,,,,,,,,
,,,,,,,,,,,,a,0.53276,Correct!,,,,,,t2.png,t3.png,1,0.909,19,female,2020-09-28_10h39.02.218,torte-2b,2020.1.3,Win32,60,13324,,,,,,,,,,,,,,,,,,,,,,,,,,,,,,,,,,,,,0,71,71,74,1,,,,,,,,,,,,,,,,,,,,,,,,
,,,,,,,,,,,,a,0.468235,Correct!,,,,,,t5.png,t5.png,0,0.978,19,female,2020-09-28_10h39.02.218,torte-2b,2020.1.3,Win32,60,13324,,,,,,,,,,,,,,,,,,,,,,,,,,,,,,,,,,,,,0,72,72,117,1,,,,,,,,,,,,,,,,,,,,,,,,
,,,,,,,,,,,,l,0.47153,Incorrect,,,,,,t2.png,t3.png,1,0.90855,19,female,2020-09-28_10h39.02.218,torte-2b,2020.1.3,Win32,60,13324,,,,,,,,,,,,,,,,,,,,,,,,,,,,,,,,,,,,,0,73,73,10,1,,,,,,,,,,,,,,,,,,,,,,,,
,,,,,,,,,,,,l,0.28607,Incorrect,,,,,,t1.png,t3.png,2,0.056466,19,female,2020-09-28_10h39.02.218,torte-2b,2020.1.3,Win32,60,13324,,,,,,,,,,,,,,,,,,,,,,,,,,,,,,,,,,,,,0,74,74,60,1,,,,,,,,,,,,,,,,,,,,,,,,
,,,,,,,,,,,,l,0.341314999,Incorrect,,,,,,t4.png,t3.png,1,0.90855,19,female,2020-09-28_10h39.02.218,torte-2b,2020.1.3,Win32,60,13324,,,,,,,,,,,,,,,,,,,,,,,,,,,,,,,,,,,,,0,75,75,75,1,,,,,,,,,,,,,,,,,,,,,,,,
,,,,,,,,,,,,l,0.419559999,Incorrect,,,,,,t2.png,t2.png,0,0.98115,19,female,2020-09-28_10h39.02.218,torte-2b,2020.1.3,Win32,60,13324,,,,,,,,,,,,,,,,,,,,,,,,,,,,,,,,,,,,,0,76,76,2,1,,,,,,,,,,,,,,,,,,,,,,,,
,,,,,,,,,,,,a,0.334265,Correct!,,,,,,t4.png,t3.png,1,0.909,19,female,2020-09-28_10h39.02.218,torte-2b,2020.1.3,Win32,60,13324,,,,,,,,,,,,,,,,,,,,,,,,,,,,,,,,,,,,,0,77,77,46,1,,,,,,,,,,,,,,,,,,,,,,,,
,,,,,,,,,,,,l,0.399735,Correct!,,,,,,t3.png,t1.png,2,0.056466,19,female,2020-09-28_10h39.02.218,torte-2b,2020.1.3,Win32,60,13324,,,,,,,,,,,,,,,,,,,,,,,,,,,,,,,,,,,,,0,78,78,32,1,,,,,,,,,,,,,,,,,,,,,,,,
,,,,,,,,,,,,a,0.64875,Incorrect,,,,,,t4.png,t2.png,2,0.059078,19,female,2020-09-28_10h39.02.218,torte-2b,2020.1.3,Win32,60,13324,,,,,,,,,,,,,,,,,,,,,,,,,,,,,,,,,,,,,0,79,79,86,1,,,,,,,,,,,,,,,,,,,,,,,,
,,,,,,,,,,,,a,0.98206,Correct!,,,,,,t3.png,t4.png,1,0.90855,19,female,2020-09-28_10h39.02.218,torte-2b,2020.1.3,Win32,60,13324,,,,,,,,,,,,,,,,,,,,,,,,,,,,,,,,,,,,,0,80,80,84,1,,,,,,,,,,,,,,,,,,,,,,,,
,,,,,,,,,,,,a,0.321745001,Correct!,,,,,,t1.png,t1.png,0,0.97829,19,female,2020-09-28_10h39.02.218,torte-2b,2020.1.3,Win32,60,13324,,,,,,,,,,,,,,,,,,,,,,,,,,,,,,,,,,,,,0,81,81,9,1,,,,,,,,,,,,,,,,,,,,,,,,
,,,,,,,,,,,,l,0.92276,Incorrect,,,,,,t4.png,t2.png,2,0.059078,19,female,2020-09-28_10h39.02.218,torte-2b,2020.1.3,Win32,60,13324,,,,,,,,,,,,,,,,,,,,,,,,,,,,,,,,,,,,,0,82,82,110,1,,,,,,,,,,,,,,,,,,,,,,,,
,,,,,,,,,,,,a,0.399275,Incorrect,,,,,,t5.png,t3.png,2,0.056466,19,female,2020-09-28_10h39.02.218,torte-2b,2020.1.3,Win32,60,13324,,,,,,,,,,,,,,,,,,,,,,,,,,,,,,,,,,,,,0,83,83,38,1,,,,,,,,,,,,,,,,,,,,,,,,
,,,,,,,,,,,,a,0.685304999,Correct!,,,,,,t2.png,t1.png,1,0.90025,19,female,2020-09-28_10h39.02.218,torte-2b,2020.1.3,Win32,60,13324,,,,,,,,,,,,,,,,,,,,,,,,,,,,,,,,,,,,,0,84,84,19,1,,,,,,,,,,,,,,,,,,,,,,,,
,,,,,,,,,,,,a,0.49955,Incorrect,,,,,,t3.png,t1.png,2,0.0565,19,female,2020-09-28_10h39.02.218,torte-2b,2020.1.3,Win32,60,13324,,,,,,,,,,,,,,,,,,,,,,,,,,,,,,,,,,,,,0,85,85,31,1,,,,,,,,,,,,,,,,,,,,,,,,
,,,,,,,,,,,,l,0.565555001,Incorrect,,,,,,t3.png,t2.png,1,0.90855,19,female,2020-09-28_10h39.02.218,torte-2b,2020.1.3,Win32,60,13324,,,,,,,,,,,,,,,,,,,,,,,,,,,,,,,,,,,,,0,86,86,18,1,,,,,,,,,,,,,,,,,,,,,,,,
,,,,,,,,,,,,a,0.23202,Incorrect,,,,,,t4.png,t1.png,3,0.0000131,19,female,2020-09-28_10h39.02.218,torte-2b,2020.1.3,Win32,60,13324,,,,,,,,,,,,,,,,,,,,,,,,,,,,,,,,,,,,,0,87,87,48,1,,,,,,,,,,,,,,,,,,,,,,,,
,,,,,,,,,,,,l,0.220775,Incorrect,,,,,,t5.png,t5.png,0,0.97829,19,female,2020-09-28_10h39.02.218,torte-2b,2020.1.3,Win32,60,13324,,,,,,,,,,,,,,,,,,,,,,,,,,,,,,,,,,,,,0,88,88,94,1,,,,,,,,,,,,,,,,,,,,,,,,
,,,,,,,,,,,,a,0.272834999,Incorrect,,,,,,t3.png,t5.png,2,0.056466,19,female,2020-09-28_10h39.02.218,torte-2b,2020.1.3,Win32,60,13324,,,,,,,,,,,,,,,,,,,,,,,,,,,,,,,,,,,,,0,89,89,14,1,,,,,,,,,,,,,,,,,,,,,,,,
,,,,,,,,,,,,a,1.0825,Incorrect,,,,,,t5.png,t1.png,4,9.55E-11,19,female,2020-09-28_10h39.02.218,torte-2b,2020.1.3,Win32,60,13324,,,,,,,,,,,,,,,,,,,,,,,,,,,,,,,,,,,,,0,90,90,43,1,,,,,,,,,,,,,,,,,,,,,,,,
,,,,,,,,,,,,a,0.2158,Correct!,,,,,,t2.png,t2.png,0,0.981,19,female,2020-09-28_10h39.02.218,torte-2b,2020.1.3,Win32,60,13324,,,,,,,,,,,,,,,,,,,,,,,,,,,,,,,,,,,,,0,91,91,101,1,,,,,,,,,,,,,,,,,,,,,,,,
,,,,,,,,,,,,l,0.87966,Incorrect,,,,,,t4.png,t3.png,1,0.90855,19,female,2020-09-28_10h39.02.218,torte-2b,2020.1.3,Win32,60,13324,,,,,,,,,,,,,,,,,,,,,,,,,,,,,,,,,,,,,0,92,92,45,1,,,,,,,,,,,,,,,,,,,,,,,,
,,,,,,,,,,,,a,0.26671,Correct!,,,,,,t2.png,t1.png,1,0.9,19,female,2020-09-28_10h39.02.218,torte-2b,2020.1.3,Win32,60,13324,,,,,,,,,,,,,,,,,,,,,,,,,,,,,,,,,,,,,0,93,93,118,1,,,,,,,,,,,,,,,,,,,,,,,,
,,,,,,,,,,,,l,0.283125,Correct!,,,,,,t2.png,t4.png,2,0.059078,19,female,2020-09-28_10h39.02.218,torte-2b,2020.1.3,Win32,60,13324,,,,,,,,,,,,,,,,,,,,,,,,,,,,,,,,,,,,,0,94,94,37,1,,,,,,,,,,,,,,,,,,,,,,,,
,,,,,,,,,,,,a,0.254005,Correct!,,,,,,t2.png,t1.png,1,0.90025,19,female,2020-09-28_10h39.02.218,torte-2b,2020.1.3,Win32,60,13324,,,,,,,,,,,,,,,,,,,,,,,,,,,,,,,,,,,,,0,95,95,62,1,,,,,,,,,,,,,,,,,,,,,,,,
,,,,,,,,,,,,a,0.085770001,Correct!,,,,,,t1.png,t1.png,0,0.978,19,female,2020-09-28_10h39.02.218,torte-2b,2020.1.3,Win32,60,13324,,,,,,,,,,,,,,,,,,,,,,,,,,,,,,,,,,,,,0,96,96,28,1,,,,,,,,,,,,,,,,,,,,,,,,
,,,,,,,,,,,,a,0.297979999,Correct!,,,,,,t4.png,t4.png,0,0.98115,19,female,2020-09-28_10h39.02.218,torte-2b,2020.1.3,Win32,60,13324,,,,,,,,,,,,,,,,,,,,,,,,,,,,,,,,,,,,,0,97,97,80,1,,,,,,,,,,,,,,,,,,,,,,,,
,,,,,,,,,,,,l,0.231910001,Correct!,,,,,,t4.png,t2.png,2,0.0591,19,female,2020-09-28_10h39.02.218,torte-2b,2020.1.3,Win32,60,13324,,,,,,,,,,,,,,,,,,,,,,,,,,,,,,,,,,,,,0,98,98,36,1,,,,,,,,,,,,,,,,,,,,,,,,
,,,,,,,,,,,,a,0.682035,Incorrect,,,,,,t3.png,t5.png,2,0.056466,19,female,2020-09-28_10h39.02.218,torte-2b,2020.1.3,Win32,60,13324,,,,,,,,,,,,,,,,,,,,,,,,,,,,,,,,,,,,,0,99,99,44,1,,,,,,,,,,,,,,,,,,,,,,,,
,,,,,,,,,,,,l,0.49855,Incorrect,,,,,,t5.png,t5.png,0,0.97829,19,female,2020-09-28_10h39.02.218,torte-2b,2020.1.3,Win32,60,13324,,,,,,,,,,,,,,,,,,,,,,,,,,,,,,,,,,,,,0,100,100,70,1,,,,,,,,,,,,,,,,,,,,,,,,
,,,,,,,,,,,,a,0.248565,Incorrect,,,,,,t5.png,t3.png,2,0.056466,19,female,2020-09-28_10h39.02.218,torte-2b,2020.1.3,Win32,60,13324,,,,,,,,,,,,,,,,,,,,,,,,,,,,,,,,,,,,,0,101,101,114,1,,,,,,,,,,,,,,,,,,,,,,,,
,,,,,,,,,,,,l,0.34497,Incorrect,,,,,,t1.png,t2.png,1,0.90025,19,female,2020-09-28_10h39.02.218,torte-2b,2020.1.3,Win32,60,13324,,,,,,,,,,,,,,,,,,,,,,,,,,,,,,,,,,,,,0,102,102,72,1,,,,,,,,,,,,,,,,,,,,,,,,
,,,,,,,,,,,,l,0.36606,Correct!,,,,,,t4.png,t1.png,3,0.0000131,19,female,2020-09-28_10h39.02.218,torte-2b,2020.1.3,Win32,60,13324,,,,,,,,,,,,,,,,,,,,,,,,,,,,,,,,,,,,,0,103,103,42,1,,,,,,,,,,,,,,,,,,,,,,,,
,,,,,,,,,,,,a,0.202335,Incorrect,,,,,,t1.png,t5.png,4,9.55E-11,19,female,2020-09-28_10h39.02.218,torte-2b,2020.1.3,Win32,60,13324,,,,,,,,,,,,,,,,,,,,,,,,,,,,,,,,,,,,,0,104,104,41,1,,,,,,,,,,,,,,,,,,,,,,,,
,,,,,,,,,,,,a,0.547475,Incorrect,,,,,,t1.png,t5.png,4,9.55E-11,19,female,2020-09-28_10h39.02.218,torte-2b,2020.1.3,Win32,60,13324,,,,,,,,,,,,,,,,,,,,,,,,,,,,,,,,,,,,,0,105,105,12,1,,,,,,,,,,,,,,,,,,,,,,,,
,,,,,,,,,,,,l,0.52017,Correct!,,,,,,t1.png,t4.png,3,0.0000131,19,female,2020-09-28_10h39.02.218,torte-2b,2020.1.3,Win32,60,13324,,,,,,,,,,,,,,,,,,,,,,,,,,,,,,,,,,,,,0,106,106,107,1,,,,,,,,,,,,,,,,,,,,,,,,
,,,,,,,,,,,,a,0.625465,Correct!,,,,,,t5.png,t5.png,0,0.97829,19,female,2020-09-28_10h39.02.218,torte-2b,2020.1.3,Win32,60,13324,,,,,,,,,,,,,,,,,,,,,,,,,,,,,,,,,,,,,0,107,107,73,1,,,,,,,,,,,,,,,,,,,,,,,,
,,,,,,,,,,,,l,0.27506,Incorrect,,,,,,t2.png,t3.png,1,0.90855,19,female,2020-09-28_10h39.02.218,torte-2b,2020.1.3,Win32,60,13324,,,,,,,,,,,,,,,,,,,,,,,,,,,,,,,,,,,,,0,108,108,65,1,,,,,,,,,,,,,,,,,,,,,,,,
,,,,,,,,,,,,a,0.015195,Correct!,,,,,,t4.png,t5.png,1,0.90025,19,female,2020-09-28_10h39.02.218,torte-2b,2020.1.3,Win32,60,13324,,,,,,,,,,,,,,,,,,,,,,,,,,,,,,,,,,,,,0,109,109,103,1,,,,,,,,,,,,,,,,,,,,,,,,
,,,,,,,,,,,,l,0.30736,Correct!,,,,,,t1.png,t3.png,2,0.056466,19,female,2020-09-28_10h39.02.218,torte-2b,2020.1.3,Win32,60,13324,,,,,,,,,,,,,,,,,,,,,,,,,,,,,,,,,,,,,0,110,110,63,1,,,,,,,,,,,,,,,,,,,,,,,,
,,,,,,,,,,,,a,0.02496,Incorrect,,,,,,t5.png,t3.png,2,0.0565,19,female,2020-09-28_10h39.02.218,torte-2b,2020.1.3,Win32,60,13324,,,,,,,,,,,,,,,,,,,,,,,,,,,,,,,,,,,,,0,111,111,39,1,,,,,,,,,,,,,,,,,,,,,,,,
,,,,,,,,,,,,,,Too slow :(,,,,,,t1.png,t2.png,1,0.9,19,female,2020-09-28_10h39.02.218,torte-2b,2020.1.3,Win32,60,13324,,,,,,,,,,,,,,,,,,,,,,,,,,,,,,,,,,,,,0,112,112,1,1,,,,,,,,,,,,,,,,,,,,,,,,
,,,,,,,,,,,,l,0.525765,Correct!,,,,,,t1.png,t4.png,3,0.0000131,19,female,2020-09-28_10h39.02.218,torte-2b,2020.1.3,Win32,60,13324,,,,,,,,,,,,,,,,,,,,,,,,,,,,,,,,,,,,,0,113,113,81,1,,,,,,,,,,,,,,,,,,,,,,,,
,,,,,,,,,,,,l,1.249155,Incorrect,,,,,,t5.png,t3.png,2,0.056466,19,female,2020-09-28_10h39.02.218,torte-2b,2020.1.3,Win32,60,13324,,,,,,,,,,,,,,,,,,,,,,,,,,,,,,,,,,,,,0,114,114,56,1,,,,,,,,,,,,,,,,,,,,,,,,
,,,,,,,,,,,,a,0.30577,Incorrect,,,,,,t5.png,t1.png,4,9.55E-11,19,female,2020-09-28_10h39.02.218,torte-2b,2020.1.3,Win32,60,13324,,,,,,,,,,,,,,,,,,,,,,,,,,,,,,,,,,,,,0,115,115,100,1,,,,,,,,,,,,,,,,,,,,,,,,
,,,,,,,,,,,,a,0.53238,Incorrect,,,,,,t1.png,t4.png,3,0.0000131,19,female,2020-09-28_10h39.02.218,torte-2b,2020.1.3,Win32,60,13324,,,,,,,,,,,,,,,,,,,,,,,,,,,,,,,,,,,,,0,116,116,92,1,,,,,,,,,,,,,,,,,,,,,,,,
,,,,,,,,,,,,a,0.300805001,Correct!,,,,,,t5.png,t5.png,0,0.97829,19,female,2020-09-28_10h39.02.218,torte-2b,2020.1.3,Win32,60,13324,,,,,,,,,,,,,,,,,,,,,,,,,,,,,,,,,,,,,0,117,117,25,1,,,,,,,,,,,,,,,,,,,,,,,,
,,,,,,,,,,,,a,0.574569999,Correct!,,,,,,t1.png,t2.png,1,0.90025,19,female,2020-09-28_10h39.02.218,torte-2b,2020.1.3,Win32,60,13324,,,,,,,,,,,,,,,,,,,,,,,,,,,,,,,,,,,,,0,118,118,105,1,,,,,,,,,,,,,,,,,,,,,,,,
,,,,,,,,,,,,l,0.353335001,Correct!,,,,,,t5.png,t2.png,3,0.0000131,19,female,2020-09-28_10h39.02.218,torte-2b,2020.1.3,Win32,60,13324,,,,,,,,,,,,,,,,,,,,,,,,,,,,,,,,,,,,,0,119,119,98,1,,,,,,,,,,,,,,,,,,,,,,,,
,,,,,,,,,,,,,,,,,,,,,,,,19,female,2020-09-28_10h39.02.218,torte-2b,2020.1.3,Win32,60,13324,space,0.99947,,,,,,,,,,,,,,,,,,,,,,,,,,,,,,,,,,,,,,,,-47.19998926,-176.8000091,1,0,0,s7,73.60001254,75.9999947,1,0,0,t1,204.0000145,-110.4000081,1,0,0,proceed,space,7.56965,space,0.629475,space,0.46454
