key_resp_8.keys,key_resp_8.rt,key_resp_9.keys,key_resp_9.rt,key_resp_10.keys,key_resp_10.rt,key_resp_11.keys,key_resp_11.rt,key_resp_2.keys,key_resp_2.rt,key_resp_3.keys,key_resp_3.rt,key_resp.keys,key_resp.rt,Feedback,train.thisRepN,train.thisTrialN,train.thisN,train.thisIndex,train.ran,torta_sx,torta_dx,difference,probability,age,gender,date,expName,psychopyVersion,OS,frameRate,participant,key_resp_15.keys,key_resp_15.rt,key_resp_6.keys,key_resp_6.rt,test1.thisRepN,test1.thisTrialN,test1.thisN,test1.thisIndex,test1.ran,key_resp_4.keys,key_resp_4.rt,key_resp_5.keys,back1.thisRepN,back1.thisTrialN,back1.thisN,back1.thisIndex,back1.ran,letter,key_resp_5.rt,back2.thisRepN,back2.thisTrialN,back2.thisN,back2.thisIndex,back2.ran,back3.thisRepN,back3.thisTrialN,back3.thisN,back3.thisIndex,back3.ran,back4.thisRepN,back4.thisTrialN,back4.thisN,back4.thisIndex,back4.ran,key_resp_7.keys,key_resp_7.rt,test2.thisRepN,test2.thisTrialN,test2.thisN,test2.thisIndex,test2.ran,mouse.x,mouse.y,mouse.leftButton,mouse.midButton,mouse.rightButton,mouse.clicked_name,mouse_2.x,mouse_2.y,mouse_2.leftButton,mouse_2.midButton,mouse_2.rightButton,mouse_2.clicked_name,mouse_3.x,mouse_3.y,mouse_3.leftButton,mouse_3.midButton,mouse_3.rightButton,mouse_3.clicked_name,key_resp_12.keys,key_resp_12.rt,key_resp_13.keys,key_resp_13.rt,key_resp_14.keys,key_resp_14.rt
space,16.618705,space,4.55646,space,1.80758,space,1.9701,space,11.362955,space,17.54744,l,1.181075,Correct!,0,0,0,91,1,t1.png,t4.png,3,0.0000131,20,Female,2020-11-24_10h39.17.468,torte-2b,2020.1.3,MacIntel,60,13334,,,,,,,,,,,,,,,,,,,,,,,,,,,,,,,,,,,,,,,,,,,,,,,,,,,,,,,,,,,,,,,,,
,,,,,,,,,,,,l,1.075615,Incorrect,0,1,1,20,1,t2.png,t3.png,1,0.90855,20,Female,2020-11-24_10h39.17.468,torte-2b,2020.1.3,MacIntel,60,13334,,,,,,,,,,,,,,,,,,,,,,,,,,,,,,,,,,,,,,,,,,,,,,,,,,,,,,,,,,,,,,,,,
,,,,,,,,,,,,a,1.12617,Correct!,0,2,2,81,1,t1.png,t1.png,0,0.97829,20,Female,2020-11-24_10h39.17.468,torte-2b,2020.1.3,MacIntel,60,13334,,,,,,,,,,,,,,,,,,,,,,,,,,,,,,,,,,,,,,,,,,,,,,,,,,,,,,,,,,,,,,,,,
,,,,,,,,,,,,a,0.676225,Incorrect,0,3,3,56,1,t5.png,t1.png,4,9.55E-11,20,Female,2020-11-24_10h39.17.468,torte-2b,2020.1.3,MacIntel,60,13334,,,,,,,,,,,,,,,,,,,,,,,,,,,,,,,,,,,,,,,,,,,,,,,,,,,,,,,,,,,,,,,,,
,,,,,,,,,,,,l,1.695805,Incorrect,0,4,4,63,1,t2.png,t3.png,1,0.909,20,Female,2020-11-24_10h39.17.468,torte-2b,2020.1.3,MacIntel,60,13334,,,,,,,,,,,,,,,,,,,,,,,,,,,,,,,,,,,,,,,,,,,,,,,,,,,,,,,,,,,,,,,,,
,,,,,,,,,,,,l,1.077785,Incorrect,0,5,5,64,1,t1.png,t1.png,0,0.978,20,Female,2020-11-24_10h39.17.468,torte-2b,2020.1.3,MacIntel,60,13334,,,,,,,,,,,,,,,,,,,,,,,,,,,,,,,,,,,,,,,,,,,,,,,,,,,,,,,,,,,,,,,,,
,,,,,,,,,,,,a,1.210215,Correct!,0,6,6,118,1,t5.png,t5.png,0,0.978,20,Female,2020-11-24_10h39.17.468,torte-2b,2020.1.3,MacIntel,60,13334,,,,,,,,,,,,,,,,,,,,,,,,,,,,,,,,,,,,,,,,,,,,,,,,,,,,,,,,,,,,,,,,,
,,,,,,,,,,,,a,1.277675,Incorrect,0,7,7,60,1,t2.png,t4.png,2,0.059078,20,Female,2020-11-24_10h39.17.468,torte-2b,2020.1.3,MacIntel,60,13334,,,,,,,,,,,,,,,,,,,,,,,,,,,,,,,,,,,,,,,,,,,,,,,,,,,,,,,,,,,,,,,,,
,,,,,,,,,,,,l,1.67584,Incorrect,0,8,8,32,1,t4.png,t5.png,1,0.90025,20,Female,2020-11-24_10h39.17.468,torte-2b,2020.1.3,MacIntel,60,13334,,,,,,,,,,,,,,,,,,,,,,,,,,,,,,,,,,,,,,,,,,,,,,,,,,,,,,,,,,,,,,,,,
,,,,,,,,,,,,a,0.89196,Correct!,0,9,9,84,1,t1.png,t1.png,0,0.97829,20,Female,2020-11-24_10h39.17.468,torte-2b,2020.1.3,MacIntel,60,13334,,,,,,,,,,,,,,,,,,,,,,,,,,,,,,,,,,,,,,,,,,,,,,,,,,,,,,,,,,,,,,,,,
,,,,,,,,,,,,a,1.531915,Incorrect,0,10,10,93,1,t2.png,t4.png,2,0.059078,20,Female,2020-11-24_10h39.17.468,torte-2b,2020.1.3,MacIntel,60,13334,,,,,,,,,,,,,,,,,,,,,,,,,,,,,,,,,,,,,,,,,,,,,,,,,,,,,,,,,,,,,,,,,
,,,,,,,,,,,,a,0.660205,Incorrect,0,11,11,24,1,t4.png,t2.png,2,0.059078,20,Female,2020-11-24_10h39.17.468,torte-2b,2020.1.3,MacIntel,60,13334,,,,,,,,,,,,,,,,,,,,,,,,,,,,,,,,,,,,,,,,,,,,,,,,,,,,,,,,,,,,,,,,,
,,,,,,,,,,,,a,0.877425,Correct!,0,12,12,2,1,t3.png,t2.png,1,0.90855,20,Female,2020-11-24_10h39.17.468,torte-2b,2020.1.3,MacIntel,60,13334,,,,,,,,,,,,,,,,,,,,,,,,,,,,,,,,,,,,,,,,,,,,,,,,,,,,,,,,,,,,,,,,,
,,,,,,,,,,,,l,0.576785,Incorrect,0,13,13,78,1,t1.png,t1.png,0,0.978,20,Female,2020-11-24_10h39.17.468,torte-2b,2020.1.3,MacIntel,60,13334,,,,,,,,,,,,,,,,,,,,,,,,,,,,,,,,,,,,,,,,,,,,,,,,,,,,,,,,,,,,,,,,,
,,,,,,,,,,,,l,0.992545,Incorrect,0,14,14,48,1,t5.png,t5.png,0,0.97829,20,Female,2020-11-24_10h39.17.468,torte-2b,2020.1.3,MacIntel,60,13334,,,,,,,,,,,,,,,,,,,,,,,,,,,,,,,,,,,,,,,,,,,,,,,,,,,,,,,,,,,,,,,,,
,,,,,,,,,,,,a,0.73969,Correct!,0,15,15,22,1,t2.png,t3.png,1,0.90855,20,Female,2020-11-24_10h39.17.468,torte-2b,2020.1.3,MacIntel,60,13334,,,,,,,,,,,,,,,,,,,,,,,,,,,,,,,,,,,,,,,,,,,,,,,,,,,,,,,,,,,,,,,,,
,,,,,,,,,,,,a,1.19293,Correct!,0,16,16,106,1,t2.png,t3.png,1,0.90855,20,Female,2020-11-24_10h39.17.468,torte-2b,2020.1.3,MacIntel,60,13334,,,,,,,,,,,,,,,,,,,,,,,,,,,,,,,,,,,,,,,,,,,,,,,,,,,,,,,,,,,,,,,,,
,,,,,,,,,,,,a,1.326745,Correct!,0,17,17,8,1,t3.png,t2.png,1,0.90855,20,Female,2020-11-24_10h39.17.468,torte-2b,2020.1.3,MacIntel,60,13334,,,,,,,,,,,,,,,,,,,,,,,,,,,,,,,,,,,,,,,,,,,,,,,,,,,,,,,,,,,,,,,,,
,,,,,,,,,,,,a,1.243075,Incorrect,0,18,18,53,1,t3.png,t1.png,2,0.056466,20,Female,2020-11-24_10h39.17.468,torte-2b,2020.1.3,MacIntel,60,13334,,,,,,,,,,,,,,,,,,,,,,,,,,,,,,,,,,,,,,,,,,,,,,,,,,,,,,,,,,,,,,,,,
,,,,,,,,,,,,l,1.03959,Correct!,0,19,19,68,1,t1.png,t4.png,3,0.0000131,20,Female,2020-11-24_10h39.17.468,torte-2b,2020.1.3,MacIntel,60,13334,,,,,,,,,,,,,,,,,,,,,,,,,,,,,,,,,,,,,,,,,,,,,,,,,,,,,,,,,,,,,,,,,
,,,,,,,,,,,,a,0.937105,Incorrect,0,20,20,73,1,t4.png,t2.png,2,0.059078,20,Female,2020-11-24_10h39.17.468,torte-2b,2020.1.3,MacIntel,60,13334,,,,,,,,,,,,,,,,,,,,,,,,,,,,,,,,,,,,,,,,,,,,,,,,,,,,,,,,,,,,,,,,,
,,,,,,,,,,,,a,0.776065,Correct!,0,21,21,70,1,t5.png,t5.png,0,0.978,20,Female,2020-11-24_10h39.17.468,torte-2b,2020.1.3,MacIntel,60,13334,,,,,,,,,,,,,,,,,,,,,,,,,,,,,,,,,,,,,,,,,,,,,,,,,,,,,,,,,,,,,,,,,
,,,,,,,,,,,,a,0.67816,Incorrect,0,22,22,27,1,t3.png,t1.png,2,0.0565,20,Female,2020-11-24_10h39.17.468,torte-2b,2020.1.3,MacIntel,60,13334,,,,,,,,,,,,,,,,,,,,,,,,,,,,,,,,,,,,,,,,,,,,,,,,,,,,,,,,,,,,,,,,,
,,,,,,,,,,,,a,0.529665,Correct!,0,23,23,13,1,t5.png,t5.png,0,0.97829,20,Female,2020-11-24_10h39.17.468,torte-2b,2020.1.3,MacIntel,60,13334,,,,,,,,,,,,,,,,,,,,,,,,,,,,,,,,,,,,,,,,,,,,,,,,,,,,,,,,,,,,,,,,,
,,,,,,,,,,,,a,0.90752,Correct!,0,24,24,42,1,t5.png,t4.png,1,0.90025,20,Female,2020-11-24_10h39.17.468,torte-2b,2020.1.3,MacIntel,60,13334,,,,,,,,,,,,,,,,,,,,,,,,,,,,,,,,,,,,,,,,,,,,,,,,,,,,,,,,,,,,,,,,,
,,,,,,,,,,,,a,0.85962,Correct!,0,25,25,18,1,t4.png,t5.png,1,0.90025,20,Female,2020-11-24_10h39.17.468,torte-2b,2020.1.3,MacIntel,60,13334,,,,,,,,,,,,,,,,,,,,,,,,,,,,,,,,,,,,,,,,,,,,,,,,,,,,,,,,,,,,,,,,,
,,,,,,,,,,,,l,1.32039,Correct!,0,26,26,105,1,t3.png,t2.png,1,0.90855,20,Female,2020-11-24_10h39.17.468,torte-2b,2020.1.3,MacIntel,60,13334,,,,,,,,,,,,,,,,,,,,,,,,,,,,,,,,,,,,,,,,,,,,,,,,,,,,,,,,,,,,,,,,,
,,,,,,,,,,,,l,0.79478,Correct!,0,27,27,80,1,t1.png,t4.png,3,0.0000131,20,Female,2020-11-24_10h39.17.468,torte-2b,2020.1.3,MacIntel,60,13334,,,,,,,,,,,,,,,,,,,,,,,,,,,,,,,,,,,,,,,,,,,,,,,,,,,,,,,,,,,,,,,,,
,,,,,,,,,,,,a,0.775105,Incorrect,0,28,28,15,1,t3.png,t2.png,1,0.90855,20,Female,2020-11-24_10h39.17.468,torte-2b,2020.1.3,MacIntel,60,13334,,,,,,,,,,,,,,,,,,,,,,,,,,,,,,,,,,,,,,,,,,,,,,,,,,,,,,,,,,,,,,,,,
,,,,,,,,,,,,a,0.52645,Incorrect,0,29,29,46,1,t4.png,t2.png,2,0.059078,20,Female,2020-11-24_10h39.17.468,torte-2b,2020.1.3,MacIntel,60,13334,,,,,,,,,,,,,,,,,,,,,,,,,,,,,,,,,,,,,,,,,,,,,,,,,,,,,,,,,,,,,,,,,
,,,,,,,,,,,,a,0.619635,Correct!,0,30,30,85,1,t3.png,t2.png,1,0.90855,20,Female,2020-11-24_10h39.17.468,torte-2b,2020.1.3,MacIntel,60,13334,,,,,,,,,,,,,,,,,,,,,,,,,,,,,,,,,,,,,,,,,,,,,,,,,,,,,,,,,,,,,,,,,
,,,,,,,,,,,,l,0.6616,Correct!,0,31,31,37,1,t1.png,t4.png,3,0.0000131,20,Female,2020-11-24_10h39.17.468,torte-2b,2020.1.3,MacIntel,60,13334,,,,,,,,,,,,,,,,,,,,,,,,,,,,,,,,,,,,,,,,,,,,,,,,,,,,,,,,,,,,,,,,,
,,,,,,,,,,,,a,1.59261,Correct!,0,32,32,95,1,t1.png,t1.png,0,0.978,20,Female,2020-11-24_10h39.17.468,torte-2b,2020.1.3,MacIntel,60,13334,,,,,,,,,,,,,,,,,,,,,,,,,,,,,,,,,,,,,,,,,,,,,,,,,,,,,,,,,,,,,,,,,
,,,,,,,,,,,,a,1.00528,Incorrect,0,33,33,39,1,t3.png,t2.png,1,0.90855,20,Female,2020-11-24_10h39.17.468,torte-2b,2020.1.3,MacIntel,60,13334,,,,,,,,,,,,,,,,,,,,,,,,,,,,,,,,,,,,,,,,,,,,,,,,,,,,,,,,,,,,,,,,,
,,,,,,,,,,,,a,0.819295,Correct!,0,34,34,75,1,t1.png,t1.png,0,0.97829,20,Female,2020-11-24_10h39.17.468,torte-2b,2020.1.3,MacIntel,60,13334,,,,,,,,,,,,,,,,,,,,,,,,,,,,,,,,,,,,,,,,,,,,,,,,,,,,,,,,,,,,,,,,,
,,,,,,,,,,,,a,1.541515,Correct!,0,35,35,109,1,t5.png,t5.png,0,0.97829,20,Female,2020-11-24_10h39.17.468,torte-2b,2020.1.3,MacIntel,60,13334,,,,,,,,,,,,,,,,,,,,,,,,,,,,,,,,,,,,,,,,,,,,,,,,,,,,,,,,,,,,,,,,,
,,,,,,,,,,,,l,0.73732,Correct!,0,36,36,40,1,t1.png,t5.png,4,9.55E-11,20,Female,2020-11-24_10h39.17.468,torte-2b,2020.1.3,MacIntel,60,13334,,,,,,,,,,,,,,,,,,,,,,,,,,,,,,,,,,,,,,,,,,,,,,,,,,,,,,,,,,,,,,,,,
,,,,,,,,,,,,l,1.15936,Incorrect,0,37,37,100,1,t4.png,t5.png,1,0.90025,20,Female,2020-11-24_10h39.17.468,torte-2b,2020.1.3,MacIntel,60,13334,,,,,,,,,,,,,,,,,,,,,,,,,,,,,,,,,,,,,,,,,,,,,,,,,,,,,,,,,,,,,,,,,
,,,,,,,,,,,,l,0.9952,Correct!,0,38,38,54,1,t1.png,t5.png,4,9.55E-11,20,Female,2020-11-24_10h39.17.468,torte-2b,2020.1.3,MacIntel,60,13334,,,,,,,,,,,,,,,,,,,,,,,,,,,,,,,,,,,,,,,,,,,,,,,,,,,,,,,,,,,,,,,,,
,,,,,,,,,,,,a,0.60815,Incorrect,0,39,39,30,1,t3.png,t1.png,2,0.056466,20,Female,2020-11-24_10h39.17.468,torte-2b,2020.1.3,MacIntel,60,13334,,,,,,,,,,,,,,,,,,,,,,,,,,,,,,,,,,,,,,,,,,,,,,,,,,,,,,,,,,,,,,,,,
,,,,,,,,,,,,a,0.591295,Correct!,0,40,40,66,1,t4.png,t5.png,1,0.9,20,Female,2020-11-24_10h39.17.468,torte-2b,2020.1.3,MacIntel,60,13334,,,,,,,,,,,,,,,,,,,,,,,,,,,,,,,,,,,,,,,,,,,,,,,,,,,,,,,,,,,,,,,,,
,,,,,,,,,,,,a,1.07631,Correct!,0,41,41,29,1,t5.png,t5.png,0,0.97829,20,Female,2020-11-24_10h39.17.468,torte-2b,2020.1.3,MacIntel,60,13334,,,,,,,,,,,,,,,,,,,,,,,,,,,,,,,,,,,,,,,,,,,,,,,,,,,,,,,,,,,,,,,,,
,,,,,,,,,,,,a,0.95898,Correct!,0,42,42,34,1,t5.png,t4.png,1,0.9,20,Female,2020-11-24_10h39.17.468,torte-2b,2020.1.3,MacIntel,60,13334,,,,,,,,,,,,,,,,,,,,,,,,,,,,,,,,,,,,,,,,,,,,,,,,,,,,,,,,,,,,,,,,,
,,,,,,,,,,,,l,1.027395,Correct!,0,43,43,4,1,t1.png,t5.png,4,9.55E-11,20,Female,2020-11-24_10h39.17.468,torte-2b,2020.1.3,MacIntel,60,13334,,,,,,,,,,,,,,,,,,,,,,,,,,,,,,,,,,,,,,,,,,,,,,,,,,,,,,,,,,,,,,,,,
,,,,,,,,,,,,l,0.753895,Correct!,0,44,44,31,1,t1.png,t5.png,4,9.55E-11,20,Female,2020-11-24_10h39.17.468,torte-2b,2020.1.3,MacIntel,60,13334,,,,,,,,,,,,,,,,,,,,,,,,,,,,,,,,,,,,,,,,,,,,,,,,,,,,,,,,,,,,,,,,,
,,,,,,,,,,,,a,0.85526,Incorrect,0,45,45,72,1,t4.png,t2.png,2,0.059078,20,Female,2020-11-24_10h39.17.468,torte-2b,2020.1.3,MacIntel,60,13334,,,,,,,,,,,,,,,,,,,,,,,,,,,,,,,,,,,,,,,,,,,,,,,,,,,,,,,,,,,,,,,,,
,,,,,,,,,,,,l,0.690535,Correct!,0,46,46,89,1,t1.png,t4.png,3,0.0000131,20,Female,2020-11-24_10h39.17.468,torte-2b,2020.1.3,MacIntel,60,13334,,,,,,,,,,,,,,,,,,,,,,,,,,,,,,,,,,,,,,,,,,,,,,,,,,,,,,,,,,,,,,,,,
,,,,,,,,,,,,a,1.707505,Correct!,0,47,47,23,1,t5.png,t4.png,1,0.90025,20,Female,2020-11-24_10h39.17.468,torte-2b,2020.1.3,MacIntel,60,13334,,,,,,,,,,,,,,,,,,,,,,,,,,,,,,,,,,,,,,,,,,,,,,,,,,,,,,,,,,,,,,,,,
,,,,,,,,,,,,a,0.84255,Correct!,0,48,48,49,1,t4.png,t5.png,1,0.9,20,Female,2020-11-24_10h39.17.468,torte-2b,2020.1.3,MacIntel,60,13334,,,,,,,,,,,,,,,,,,,,,,,,,,,,,,,,,,,,,,,,,,,,,,,,,,,,,,,,,,,,,,,,,
,,,,,,,,,,,,l,1.556475,Correct!,0,49,49,50,1,t5.png,t1.png,4,9.55E-11,20,Female,2020-11-24_10h39.17.468,torte-2b,2020.1.3,MacIntel,60,13334,,,,,,,,,,,,,,,,,,,,,,,,,,,,,,,,,,,,,,,,,,,,,,,,,,,,,,,,,,,,,,,,,
,,,,,,,,,,,,l,0.572975,Correct!,0,50,50,99,1,t1.png,t5.png,4,9.55E-11,20,Female,2020-11-24_10h39.17.468,torte-2b,2020.1.3,MacIntel,60,13334,,,,,,,,,,,,,,,,,,,,,,,,,,,,,,,,,,,,,,,,,,,,,,,,,,,,,,,,,,,,,,,,,
,,,,,,,,,,,,l,0.9912,Incorrect,0,51,51,76,1,t3.png,t2.png,1,0.90855,20,Female,2020-11-24_10h39.17.468,torte-2b,2020.1.3,MacIntel,60,13334,,,,,,,,,,,,,,,,,,,,,,,,,,,,,,,,,,,,,,,,,,,,,,,,,,,,,,,,,,,,,,,,,
,,,,,,,,,,,,a,1.62665,Correct!,0,52,52,28,1,t2.png,t3.png,1,0.909,20,Female,2020-11-24_10h39.17.468,torte-2b,2020.1.3,MacIntel,60,13334,,,,,,,,,,,,,,,,,,,,,,,,,,,,,,,,,,,,,,,,,,,,,,,,,,,,,,,,,,,,,,,,,
,,,,,,,,,,,,a,0.911115,Correct!,0,53,53,44,1,t2.png,t3.png,1,0.909,20,Female,2020-11-24_10h39.17.468,torte-2b,2020.1.3,MacIntel,60,13334,,,,,,,,,,,,,,,,,,,,,,,,,,,,,,,,,,,,,,,,,,,,,,,,,,,,,,,,,,,,,,,,,
,,,,,,,,,,,,a,0.500595,Correct!,0,54,54,38,1,t3.png,t1.png,2,0.056466,20,Female,2020-11-24_10h39.17.468,torte-2b,2020.1.3,MacIntel,60,13334,,,,,,,,,,,,,,,,,,,,,,,,,,,,,,,,,,,,,,,,,,,,,,,,,,,,,,,,,,,,,,,,,
,,,,,,,,,,,,l,0.59632,Correct!,0,55,55,117,1,t1.png,t5.png,4,9.55E-11,20,Female,2020-11-24_10h39.17.468,torte-2b,2020.1.3,MacIntel,60,13334,,,,,,,,,,,,,,,,,,,,,,,,,,,,,,,,,,,,,,,,,,,,,,,,,,,,,,,,,,,,,,,,,
,,,,,,,,,,,,l,0.737305,Incorrect,0,56,56,62,1,t5.png,t5.png,0,0.978,20,Female,2020-11-24_10h39.17.468,torte-2b,2020.1.3,MacIntel,60,13334,,,,,,,,,,,,,,,,,,,,,,,,,,,,,,,,,,,,,,,,,,,,,,,,,,,,,,,,,,,,,,,,,
,,,,,,,,,,,,a,0.6076,Correct!,0,57,57,7,1,t4.png,t5.png,1,0.90025,20,Female,2020-11-24_10h39.17.468,torte-2b,2020.1.3,MacIntel,60,13334,,,,,,,,,,,,,,,,,,,,,,,,,,,,,,,,,,,,,,,,,,,,,,,,,,,,,,,,,,,,,,,,,
,,,,,,,,,,,,a,0.772225,Correct!,0,58,58,14,1,t2.png,t4.png,2,0.059078,20,Female,2020-11-24_10h39.17.468,torte-2b,2020.1.3,MacIntel,60,13334,,,,,,,,,,,,,,,,,,,,,,,,,,,,,,,,,,,,,,,,,,,,,,,,,,,,,,,,,,,,,,,,,
,,,,,,,,,,,,a,0.743035,Incorrect,0,59,59,88,1,t3.png,t1.png,2,0.056466,20,Female,2020-11-24_10h39.17.468,torte-2b,2020.1.3,MacIntel,60,13334,,,,,,,,,,,,,,,,,,,,,,,,,,,,,,,,,,,,,,,,,,,,,,,,,,,,,,,,,,,,,,,,,
,,,,,,,,,,,,l,0.77624,Correct!,0,60,60,1,1,t2.png,t4.png,2,0.059078,20,Female,2020-11-24_10h39.17.468,torte-2b,2020.1.3,MacIntel,60,13334,,,,,,,,,,,,,,,,,,,,,,,,,,,,,,,,,,,,,,,,,,,,,,,,,,,,,,,,,,,,,,,,,
,,,,,,,,,,,,a,0.544335,Incorrect,0,61,61,33,1,t5.png,t1.png,4,9.55E-11,20,Female,2020-11-24_10h39.17.468,torte-2b,2020.1.3,MacIntel,60,13334,,,,,,,,,,,,,,,,,,,,,,,,,,,,,,,,,,,,,,,,,,,,,,,,,,,,,,,,,,,,,,,,,
,,,,,,,,,,,,a,0.71178,Incorrect,0,62,62,17,1,t1.png,t4.png,3,0.0000131,20,Female,2020-11-24_10h39.17.468,torte-2b,2020.1.3,MacIntel,60,13334,,,,,,,,,,,,,,,,,,,,,,,,,,,,,,,,,,,,,,,,,,,,,,,,,,,,,,,,,,,,,,,,,
,,,,,,,,,,,,l,0.613615,Correct!,0,63,63,61,1,t1.png,t4.png,3,0.0000131,20,Female,2020-11-24_10h39.17.468,torte-2b,2020.1.3,MacIntel,60,13334,,,,,,,,,,,,,,,,,,,,,,,,,,,,,,,,,,,,,,,,,,,,,,,,,,,,,,,,,,,,,,,,,
,,,,,,,,,,,,l,0.97496,Incorrect,0,64,64,16,1,t5.png,t4.png,1,0.9,20,Female,2020-11-24_10h39.17.468,torte-2b,2020.1.3,MacIntel,60,13334,,,,,,,,,,,,,,,,,,,,,,,,,,,,,,,,,,,,,,,,,,,,,,,,,,,,,,,,,,,,,,,,,
,,,,,,,,,,,,l,0.687065,Incorrect,0,65,65,112,1,t1.png,t1.png,0,0.97829,20,Female,2020-11-24_10h39.17.468,torte-2b,2020.1.3,MacIntel,60,13334,,,,,,,,,,,,,,,,,,,,,,,,,,,,,,,,,,,,,,,,,,,,,,,,,,,,,,,,,,,,,,,,,
,,,,,,,,,,,,a,0.51189,Incorrect,0,66,66,94,1,t5.png,t1.png,4,9.55E-11,20,Female,2020-11-24_10h39.17.468,torte-2b,2020.1.3,MacIntel,60,13334,,,,,,,,,,,,,,,,,,,,,,,,,,,,,,,,,,,,,,,,,,,,,,,,,,,,,,,,,,,,,,,,,
,,,,,,,,,,,,l,0.68879,Correct!,0,67,67,0,1,t5.png,t1.png,4,9.55E-11,20,Female,2020-11-24_10h39.17.468,torte-2b,2020.1.3,MacIntel,60,13334,,,,,,,,,,,,,,,,,,,,,,,,,,,,,,,,,,,,,,,,,,,,,,,,,,,,,,,,,,,,,,,,,
,,,,,,,,,,,,a,0.875795,Correct!,0,68,68,77,1,t1.png,t1.png,0,0.97829,20,Female,2020-11-24_10h39.17.468,torte-2b,2020.1.3,MacIntel,60,13334,,,,,,,,,,,,,,,,,,,,,,,,,,,,,,,,,,,,,,,,,,,,,,,,,,,,,,,,,,,,,,,,,
,,,,,,,,,,,,a,0.82909,Incorrect,0,69,69,19,1,t4.png,t2.png,2,0.059078,20,Female,2020-11-24_10h39.17.468,torte-2b,2020.1.3,MacIntel,60,13334,,,,,,,,,,,,,,,,,,,,,,,,,,,,,,,,,,,,,,,,,,,,,,,,,,,,,,,,,,,,,,,,,
,,,,,,,,,,,,a,0.757075,Correct!,0,70,70,110,1,t4.png,t5.png,1,0.90025,20,Female,2020-11-24_10h39.17.468,torte-2b,2020.1.3,MacIntel,60,13334,,,,,,,,,,,,,,,,,,,,,,,,,,,,,,,,,,,,,,,,,,,,,,,,,,,,,,,,,,,,,,,,,
,,,,,,,,,,,,a,1.09624,Incorrect,0,71,71,43,1,t4.png,t2.png,2,0.059078,20,Female,2020-11-24_10h39.17.468,torte-2b,2020.1.3,MacIntel,60,13334,,,,,,,,,,,,,,,,,,,,,,,,,,,,,,,,,,,,,,,,,,,,,,,,,,,,,,,,,,,,,,,,,
,,,,,,,,,,,,l,0.907825,Incorrect,0,72,72,71,1,t5.png,t5.png,0,0.97829,20,Female,2020-11-24_10h39.17.468,torte-2b,2020.1.3,MacIntel,60,13334,,,,,,,,,,,,,,,,,,,,,,,,,,,,,,,,,,,,,,,,,,,,,,,,,,,,,,,,,,,,,,,,,
,,,,,,,,,,,,a,0.63975,Incorrect,0,73,73,51,1,t3.png,t1.png,2,0.056466,20,Female,2020-11-24_10h39.17.468,torte-2b,2020.1.3,MacIntel,60,13334,,,,,,,,,,,,,,,,,,,,,,,,,,,,,,,,,,,,,,,,,,,,,,,,,,,,,,,,,,,,,,,,,
,,,,,,,,,,,,l,0.60808,Correct!,0,74,74,98,1,t2.png,t4.png,2,0.0591,20,Female,2020-11-24_10h39.17.468,torte-2b,2020.1.3,MacIntel,60,13334,,,,,,,,,,,,,,,,,,,,,,,,,,,,,,,,,,,,,,,,,,,,,,,,,,,,,,,,,,,,,,,,,
,,,,,,,,,,,,a,0.66182,Incorrect,0,75,75,26,1,t4.png,t2.png,2,0.0591,20,Female,2020-11-24_10h39.17.468,torte-2b,2020.1.3,MacIntel,60,13334,,,,,,,,,,,,,,,,,,,,,,,,,,,,,,,,,,,,,,,,,,,,,,,,,,,,,,,,,,,,,,,,,
,,,,,,,,,,,,l,1.194165,Incorrect,0,76,76,113,1,t5.png,t4.png,1,0.9,20,Female,2020-11-24_10h39.17.468,torte-2b,2020.1.3,MacIntel,60,13334,,,,,,,,,,,,,,,,,,,,,,,,,,,,,,,,,,,,,,,,,,,,,,,,,,,,,,,,,,,,,,,,,
,,,,,,,,,,,,a,1.109475,Correct!,0,77,77,114,1,t2.png,t3.png,1,0.90855,20,Female,2020-11-24_10h39.17.468,torte-2b,2020.1.3,MacIntel,60,13334,,,,,,,,,,,,,,,,,,,,,,,,,,,,,,,,,,,,,,,,,,,,,,,,,,,,,,,,,,,,,,,,,
,,,,,,,,,,,,a,0.778825,Correct!,0,78,78,79,1,t3.png,t2.png,1,0.909,20,Female,2020-11-24_10h39.17.468,torte-2b,2020.1.3,MacIntel,60,13334,,,,,,,,,,,,,,,,,,,,,,,,,,,,,,,,,,,,,,,,,,,,,,,,,,,,,,,,,,,,,,,,,
,,,,,,,,,,,,a,0.840855,Incorrect,0,79,79,103,1,t3.png,t1.png,2,0.056466,20,Female,2020-11-24_10h39.17.468,torte-2b,2020.1.3,MacIntel,60,13334,,,,,,,,,,,,,,,,,,,,,,,,,,,,,,,,,,,,,,,,,,,,,,,,,,,,,,,,,,,,,,,,,
,,,,,,,,,,,,l,0.495235,Correct!,0,80,80,67,1,t1.png,t5.png,4,9.55E-11,20,Female,2020-11-24_10h39.17.468,torte-2b,2020.1.3,MacIntel,60,13334,,,,,,,,,,,,,,,,,,,,,,,,,,,,,,,,,,,,,,,,,,,,,,,,,,,,,,,,,,,,,,,,,
,,,,,,,,,,,,l,0.526385,Correct!,0,81,81,11,1,t1.png,t4.png,3,0.0000131,20,Female,2020-11-24_10h39.17.468,torte-2b,2020.1.3,MacIntel,60,13334,,,,,,,,,,,,,,,,,,,,,,,,,,,,,,,,,,,,,,,,,,,,,,,,,,,,,,,,,,,,,,,,,
,,,,,,,,,,,,a,0.564555,Correct!,0,82,82,41,1,t3.png,t2.png,1,0.90855,20,Female,2020-11-24_10h39.17.468,torte-2b,2020.1.3,MacIntel,60,13334,,,,,,,,,,,,,,,,,,,,,,,,,,,,,,,,,,,,,,,,,,,,,,,,,,,,,,,,,,,,,,,,,
,,,,,,,,,,,,l,0.693575,Incorrect,0,83,83,25,1,t5.png,t5.png,0,0.97829,20,Female,2020-11-24_10h39.17.468,torte-2b,2020.1.3,MacIntel,60,13334,,,,,,,,,,,,,,,,,,,,,,,,,,,,,,,,,,,,,,,,,,,,,,,,,,,,,,,,,,,,,,,,,
,,,,,,,,,,,,l,0.57212,Correct!,0,84,84,6,1,t1.png,t4.png,3,0.0000131,20,Female,2020-11-24_10h39.17.468,torte-2b,2020.1.3,MacIntel,60,13334,,,,,,,,,,,,,,,,,,,,,,,,,,,,,,,,,,,,,,,,,,,,,,,,,,,,,,,,,,,,,,,,,
,,,,,,,,,,,,a,0.54711,Correct!,0,85,85,74,1,t5.png,t4.png,1,0.9,20,Female,2020-11-24_10h39.17.468,torte-2b,2020.1.3,MacIntel,60,13334,,,,,,,,,,,,,,,,,,,,,,,,,,,,,,,,,,,,,,,,,,,,,,,,,,,,,,,,,,,,,,,,,
,,,,,,,,,,,,a,0.64495,Incorrect,0,86,86,102,1,t4.png,t2.png,2,0.059078,20,Female,2020-11-24_10h39.17.468,torte-2b,2020.1.3,MacIntel,60,13334,,,,,,,,,,,,,,,,,,,,,,,,,,,,,,,,,,,,,,,,,,,,,,,,,,,,,,,,,,,,,,,,,
,,,,,,,,,,,,l,0.511775,Correct!,0,87,87,3,1,t1.png,t5.png,4,9.55E-11,20,Female,2020-11-24_10h39.17.468,torte-2b,2020.1.3,MacIntel,60,13334,,,,,,,,,,,,,,,,,,,,,,,,,,,,,,,,,,,,,,,,,,,,,,,,,,,,,,,,,,,,,,,,,
,,,,,,,,,,,,a,0.52914,Incorrect,0,88,88,69,1,t4.png,t2.png,2,0.059078,20,Female,2020-11-24_10h39.17.468,torte-2b,2020.1.3,MacIntel,60,13334,,,,,,,,,,,,,,,,,,,,,,,,,,,,,,,,,,,,,,,,,,,,,,,,,,,,,,,,,,,,,,,,,
,,,,,,,,,,,,a,0.42613,Incorrect,0,89,89,111,1,t5.png,t1.png,4,9.55E-11,20,Female,2020-11-24_10h39.17.468,torte-2b,2020.1.3,MacIntel,60,13334,,,,,,,,,,,,,,,,,,,,,,,,,,,,,,,,,,,,,,,,,,,,,,,,,,,,,,,,,,,,,,,,,
,,,,,,,,,,,,a,0.660745,Incorrect,0,90,90,87,1,t5.png,t1.png,4,9.55E-11,20,Female,2020-11-24_10h39.17.468,torte-2b,2020.1.3,MacIntel,60,13334,,,,,,,,,,,,,,,,,,,,,,,,,,,,,,,,,,,,,,,,,,,,,,,,,,,,,,,,,,,,,,,,,
,,,,,,,,,,,,l,0.544205,Incorrect,0,91,91,104,1,t2.png,t3.png,1,0.90855,20,Female,2020-11-24_10h39.17.468,torte-2b,2020.1.3,MacIntel,60,13334,,,,,,,,,,,,,,,,,,,,,,,,,,,,,,,,,,,,,,,,,,,,,,,,,,,,,,,,,,,,,,,,,
,,,,,,,,,,,,l,0.69367,Incorrect,0,92,92,10,1,t2.png,t3.png,1,0.90855,20,Female,2020-11-24_10h39.17.468,torte-2b,2020.1.3,MacIntel,60,13334,,,,,,,,,,,,,,,,,,,,,,,,,,,,,,,,,,,,,,,,,,,,,,,,,,,,,,,,,,,,,,,,,
,,,,,,,,,,,,a,1.142335,Correct!,0,93,93,97,1,t5.png,t5.png,0,0.97829,20,Female,2020-11-24_10h39.17.468,torte-2b,2020.1.3,MacIntel,60,13334,,,,,,,,,,,,,,,,,,,,,,,,,,,,,,,,,,,,,,,,,,,,,,,,,,,,,,,,,,,,,,,,,
,,,,,,,,,,,,a,0.709895,Correct!,0,94,94,65,1,t4.png,t5.png,1,0.90025,20,Female,2020-11-24_10h39.17.468,torte-2b,2020.1.3,MacIntel,60,13334,,,,,,,,,,,,,,,,,,,,,,,,,,,,,,,,,,,,,,,,,,,,,,,,,,,,,,,,,,,,,,,,,
,,,,,,,,,,,,a,0.49406,Correct!,0,95,95,9,1,t4.png,t5.png,1,0.9,20,Female,2020-11-24_10h39.17.468,torte-2b,2020.1.3,MacIntel,60,13334,,,,,,,,,,,,,,,,,,,,,,,,,,,,,,,,,,,,,,,,,,,,,,,,,,,,,,,,,,,,,,,,,
,,,,,,,,,,,,a,0.458985,Incorrect,0,96,96,47,1,t4.png,t2.png,2,0.059078,20,Female,2020-11-24_10h39.17.468,torte-2b,2020.1.3,MacIntel,60,13334,,,,,,,,,,,,,,,,,,,,,,,,,,,,,,,,,,,,,,,,,,,,,,,,,,,,,,,,,,,,,,,,,
,,,,,,,,,,,,a,0.526645,Incorrect,0,97,97,86,1,t3.png,t1.png,2,0.056466,20,Female,2020-11-24_10h39.17.468,torte-2b,2020.1.3,MacIntel,60,13334,,,,,,,,,,,,,,,,,,,,,,,,,,,,,,,,,,,,,,,,,,,,,,,,,,,,,,,,,,,,,,,,,
,,,,,,,,,,,,a,0.493915,Incorrect,0,98,98,36,1,t3.png,t1.png,2,0.0565,20,Female,2020-11-24_10h39.17.468,torte-2b,2020.1.3,MacIntel,60,13334,,,,,,,,,,,,,,,,,,,,,,,,,,,,,,,,,,,,,,,,,,,,,,,,,,,,,,,,,,,,,,,,,
,,,,,,,,,,,,l,0.45865,Correct!,0,99,99,119,1,t1.png,t5.png,4,9.55E-11,20,Female,2020-11-24_10h39.17.468,torte-2b,2020.1.3,MacIntel,60,13334,,,,,,,,,,,,,,,,,,,,,,,,,,,,,,,,,,,,,,,,,,,,,,,,,,,,,,,,,,,,,,,,,
,,,,,,,,,,,,a,1.862405,Correct!,0,100,100,21,1,t5.png,t4.png,1,0.90025,20,Female,2020-11-24_10h39.17.468,torte-2b,2020.1.3,MacIntel,60,13334,,,,,,,,,,,,,,,,,,,,,,,,,,,,,,,,,,,,,,,,,,,,,,,,,,,,,,,,,,,,,,,,,
,,,,,,,,,,,,a,1.02649,Correct!,0,101,101,107,1,t1.png,t1.png,0,0.978,20,Female,2020-11-24_10h39.17.468,torte-2b,2020.1.3,MacIntel,60,13334,,,,,,,,,,,,,,,,,,,,,,,,,,,,,,,,,,,,,,,,,,,,,,,,,,,,,,,,,,,,,,,,,
,,,,,,,,,,,,l,1.04438,Correct!,0,102,102,90,1,t1.png,t5.png,4,9.55E-11,20,Female,2020-11-24_10h39.17.468,torte-2b,2020.1.3,MacIntel,60,13334,,,,,,,,,,,,,,,,,,,,,,,,,,,,,,,,,,,,,,,,,,,,,,,,,,,,,,,,,,,,,,,,,
,,,,,,,,,,,,a,1.12596,Incorrect,0,103,103,35,1,t1.png,t4.png,3,0.0000131,20,Female,2020-11-24_10h39.17.468,torte-2b,2020.1.3,MacIntel,60,13334,,,,,,,,,,,,,,,,,,,,,,,,,,,,,,,,,,,,,,,,,,,,,,,,,,,,,,,,,,,,,,,,,
,,,,,,,,,,,,a,1.27672,Incorrect,0,104,104,5,1,t2.png,t4.png,2,0.059078,20,Female,2020-11-24_10h39.17.468,torte-2b,2020.1.3,MacIntel,60,13334,,,,,,,,,,,,,,,,,,,,,,,,,,,,,,,,,,,,,,,,,,,,,,,,,,,,,,,,,,,,,,,,,
,,,,,,,,,,,,a,0.942725,Correct!,0,105,105,45,1,t3.png,t2.png,1,0.90855,20,Female,2020-11-24_10h39.17.468,torte-2b,2020.1.3,MacIntel,60,13334,,,,,,,,,,,,,,,,,,,,,,,,,,,,,,,,,,,,,,,,,,,,,,,,,,,,,,,,,,,,,,,,,
,,,,,,,,,,,,a,1.028195,Correct!,0,106,106,96,1,t1.png,t1.png,0,0.97829,20,Female,2020-11-24_10h39.17.468,torte-2b,2020.1.3,MacIntel,60,13334,,,,,,,,,,,,,,,,,,,,,,,,,,,,,,,,,,,,,,,,,,,,,,,,,,,,,,,,,,,,,,,,,
,,,,,,,,,,,,a,0.996965,Incorrect,0,107,107,12,1,t5.png,t1.png,4,9.55E-11,20,Female,2020-11-24_10h39.17.468,torte-2b,2020.1.3,MacIntel,60,13334,,,,,,,,,,,,,,,,,,,,,,,,,,,,,,,,,,,,,,,,,,,,,,,,,,,,,,,,,,,,,,,,,
,,,,,,,,,,,,l,0.69326,Correct!,0,108,108,52,1,t2.png,t4.png,2,0.059078,20,Female,2020-11-24_10h39.17.468,torte-2b,2020.1.3,MacIntel,60,13334,,,,,,,,,,,,,,,,,,,,,,,,,,,,,,,,,,,,,,,,,,,,,,,,,,,,,,,,,,,,,,,,,
,,,,,,,,,,,,a,0.44094,Correct!,0,109,109,59,1,t5.png,t4.png,1,0.9,20,Female,2020-11-24_10h39.17.468,torte-2b,2020.1.3,MacIntel,60,13334,,,,,,,,,,,,,,,,,,,,,,,,,,,,,,,,,,,,,,,,,,,,,,,,,,,,,,,,,,,,,,,,,
,,,,,,,,,,,,a,0.429575,Incorrect,0,110,110,108,1,t5.png,t1.png,4,9.55E-11,20,Female,2020-11-24_10h39.17.468,torte-2b,2020.1.3,MacIntel,60,13334,,,,,,,,,,,,,,,,,,,,,,,,,,,,,,,,,,,,,,,,,,,,,,,,,,,,,,,,,,,,,,,,,
,,,,,,,,,,,,l,0.64363,Incorrect,0,111,111,116,1,t5.png,t4.png,1,0.90025,20,Female,2020-11-24_10h39.17.468,torte-2b,2020.1.3,MacIntel,60,13334,,,,,,,,,,,,,,,,,,,,,,,,,,,,,,,,,,,,,,,,,,,,,,,,,,,,,,,,,,,,,,,,,
,,,,,,,,,,,,a,1.59002,Correct!,0,112,112,92,1,t2.png,t3.png,1,0.909,20,Female,2020-11-24_10h39.17.468,torte-2b,2020.1.3,MacIntel,60,13334,,,,,,,,,,,,,,,,,,,,,,,,,,,,,,,,,,,,,,,,,,,,,,,,,,,,,,,,,,,,,,,,,
,,,,,,,,,,,,a,0.572775,Incorrect,0,113,113,83,1,t3.png,t1.png,2,0.056466,20,Female,2020-11-24_10h39.17.468,torte-2b,2020.1.3,MacIntel,60,13334,,,,,,,,,,,,,,,,,,,,,,,,,,,,,,,,,,,,,,,,,,,,,,,,,,,,,,,,,,,,,,,,,
,,,,,,,,,,,,l,0.98897,Correct!,0,114,114,82,1,t5.png,t1.png,4,9.55E-11,20,Female,2020-11-24_10h39.17.468,torte-2b,2020.1.3,MacIntel,60,13334,,,,,,,,,,,,,,,,,,,,,,,,,,,,,,,,,,,,,,,,,,,,,,,,,,,,,,,,,,,,,,,,,
,,,,,,,,,,,,a,0.59162,Incorrect,0,115,115,55,1,t2.png,t4.png,2,0.059078,20,Female,2020-11-24_10h39.17.468,torte-2b,2020.1.3,MacIntel,60,13334,,,,,,,,,,,,,,,,,,,,,,,,,,,,,,,,,,,,,,,,,,,,,,,,,,,,,,,,,,,,,,,,,
,,,,,,,,,,,,a,0.507695,Correct!,0,116,116,101,1,t4.png,t5.png,1,0.90025,20,Female,2020-11-24_10h39.17.468,torte-2b,2020.1.3,MacIntel,60,13334,,,,,,,,,,,,,,,,,,,,,,,,,,,,,,,,,,,,,,,,,,,,,,,,,,,,,,,,,,,,,,,,,
,,,,,,,,,,,,a,0.51101,Correct!,0,117,117,115,1,t2.png,t4.png,2,0.059078,20,Female,2020-11-24_10h39.17.468,torte-2b,2020.1.3,MacIntel,60,13334,,,,,,,,,,,,,,,,,,,,,,,,,,,,,,,,,,,,,,,,,,,,,,,,,,,,,,,,,,,,,,,,,
,,,,,,,,,,,,a,0.563955,Incorrect,0,118,118,57,1,t2.png,t4.png,2,0.059078,20,Female,2020-11-24_10h39.17.468,torte-2b,2020.1.3,MacIntel,60,13334,,,,,,,,,,,,,,,,,,,,,,,,,,,,,,,,,,,,,,,,,,,,,,,,,,,,,,,,,,,,,,,,,
,,,,,,,,,,,,a,0.69131,Correct!,0,119,119,58,1,t5.png,t4.png,1,0.90025,20,Female,2020-11-24_10h39.17.468,torte-2b,2020.1.3,MacIntel,60,13334,,,,,,,,,,,,,,,,,,,,,,,,,,,,,,,,,,,,,,,,,,,,,,,,,,,,,,,,,,,,,,,,,
,,,,,,,,,,,,l,1.03485,Correct!,,,,,,t3.png,t5.png,2,0.056466,20,Female,2020-11-24_10h39.17.468,torte-2b,2020.1.3,MacIntel,60,13334,space,103.714985,space,18.48388,0,0,0,44,1,,,,,,,,,,,,,,,,,,,,,,,,,,,,,,,,,,,,,,,,,,,,,,,,,,,,,,,,
,,,,,,,,,,,,l,0.9743,Correct!,,,,,,t4.png,t5.png,1,0.90025,20,Female,2020-11-24_10h39.17.468,torte-2b,2020.1.3,MacIntel,60,13334,,,,,0,1,1,113,1,,,,,,,,,,,,,,,,,,,,,,,,,,,,,,,,,,,,,,,,,,,,,,,,,,,,,,,,
,,,,,,,,,,,,a,0.588985,Incorrect,,,,,,t3.png,t5.png,2,0.056466,20,Female,2020-11-24_10h39.17.468,torte-2b,2020.1.3,MacIntel,60,13334,,,,,0,2,2,14,1,,,,,,,,,,,,,,,,,,,,,,,,,,,,,,,,,,,,,,,,,,,,,,,,,,,,,,,,
,,,,,,,,,,,,a,0.76488,Incorrect,,,,,,t4.png,t2.png,2,0.059078,20,Female,2020-11-24_10h39.17.468,torte-2b,2020.1.3,MacIntel,60,13334,,,,,0,3,3,86,1,,,,,,,,,,,,,,,,,,,,,,,,,,,,,,,,,,,,,,,,,,,,,,,,,,,,,,,,
,,,,,,,,,,,,a,1.146805,Correct!,,,,,,t1.png,t2.png,1,0.9,20,Female,2020-11-24_10h39.17.468,torte-2b,2020.1.3,MacIntel,60,13334,,,,,0,4,4,1,1,,,,,,,,,,,,,,,,,,,,,,,,,,,,,,,,,,,,,,,,,,,,,,,,,,,,,,,,
,,,,,,,,,,,,a,0.77529,Correct!,,,,,,t2.png,t3.png,1,0.909,20,Female,2020-11-24_10h39.17.468,torte-2b,2020.1.3,MacIntel,60,13334,,,,,0,5,5,74,1,,,,,,,,,,,,,,,,,,,,,,,,,,,,,,,,,,,,,,,,,,,,,,,,,,,,,,,,
,,,,,,,,,,,,l,1.036685,Incorrect,,,,,,t5.png,t4.png,1,0.90025,20,Female,2020-11-24_10h39.17.468,torte-2b,2020.1.3,MacIntel,60,13334,,,,,0,6,6,26,1,,,,,,,,,,,,,,,,,,,,,,,,,,,,,,,,,,,,,,,,,,,,,,,,,,,,,,,,
,,,,,,,,,,,,a,0.91564,Correct!,,,,,,t2.png,t1.png,1,0.9,20,Female,2020-11-24_10h39.17.468,torte-2b,2020.1.3,MacIntel,60,13334,,,,,0,7,7,118,1,,,,,,,,,,,,,,,,,,,,,,,,,,,,,,,,,,,,,,,,,,,,,,,,,,,,,,,,
,,,,,,,,,,,,a,0.54449,Incorrect,,,,,,t3.png,t1.png,2,0.056466,20,Female,2020-11-24_10h39.17.468,torte-2b,2020.1.3,MacIntel,60,13334,,,,,0,8,8,32,1,,,,,,,,,,,,,,,,,,,,,,,,,,,,,,,,,,,,,,,,,,,,,,,,,,,,,,,,
,,,,,,,,,,,,a,0.60692,Incorrect,,,,,,t2.png,t2.png,0,0.98115,20,Female,2020-11-24_10h39.17.468,torte-2b,2020.1.3,MacIntel,60,13334,,,,,0,9,9,57,1,,,,,,,,,,,,,,,,,,,,,,,,,,,,,,,,,,,,,,,,,,,,,,,,,,,,,,,,
,,,,,,,,,,,,a,0.659555,Correct!,,,,,,t4.png,t4.png,0,0.98115,20,Female,2020-11-24_10h39.17.468,torte-2b,2020.1.3,MacIntel,60,13334,,,,,0,10,10,79,1,,,,,,,,,,,,,,,,,,,,,,,,,,,,,,,,,,,,,,,,,,,,,,,,,,,,,,,,
,,,,,,,,,,,,a,0.75907,Incorrect,,,,,,t5.png,t3.png,2,0.0565,20,Female,2020-11-24_10h39.17.468,torte-2b,2020.1.3,MacIntel,60,13334,,,,,0,11,11,39,1,,,,,,,,,,,,,,,,,,,,,,,,,,,,,,,,,,,,,,,,,,,,,,,,,,,,,,,,
,,,,,,,,,,,,a,1.158215,Incorrect,,,,,,t4.png,t1.png,3,0.0000131,20,Female,2020-11-24_10h39.17.468,torte-2b,2020.1.3,MacIntel,60,13334,,,,,0,12,12,42,1,,,,,,,,,,,,,,,,,,,,,,,,,,,,,,,,,,,,,,,,,,,,,,,,,,,,,,,,
,,,,,,,,,,,,l,0.51545,Incorrect,,,,,,t1.png,t1.png,0,0.978,20,Female,2020-11-24_10h39.17.468,torte-2b,2020.1.3,MacIntel,60,13334,,,,,0,13,13,28,1,,,,,,,,,,,,,,,,,,,,,,,,,,,,,,,,,,,,,,,,,,,,,,,,,,,,,,,,
,,,,,,,,,,,,l,0.65922,Correct!,,,,,,t1.png,t4.png,3,0.0000131,20,Female,2020-11-24_10h39.17.468,torte-2b,2020.1.3,MacIntel,60,13334,,,,,0,14,14,92,1,,,,,,,,,,,,,,,,,,,,,,,,,,,,,,,,,,,,,,,,,,,,,,,,,,,,,,,,
,,,,,,,,,,,,a,0.6051,Correct!,,,,,,t4.png,t4.png,0,0.98115,20,Female,2020-11-24_10h39.17.468,torte-2b,2020.1.3,MacIntel,60,13334,,,,,0,15,15,52,1,,,,,,,,,,,,,,,,,,,,,,,,,,,,,,,,,,,,,,,,,,,,,,,,,,,,,,,,
,,,,,,,,,,,,a,0.857635,Correct!,,,,,,t1.png,t1.png,0,0.97829,20,Female,2020-11-24_10h39.17.468,torte-2b,2020.1.3,MacIntel,60,13334,,,,,0,16,16,9,1,,,,,,,,,,,,,,,,,,,,,,,,,,,,,,,,,,,,,,,,,,,,,,,,,,,,,,,,
,,,,,,,,,,,,a,0.891695,Incorrect,,,,,,t5.png,t2.png,3,0.0000131,20,Female,2020-11-24_10h39.17.468,torte-2b,2020.1.3,MacIntel,60,13334,,,,,0,17,17,91,1,,,,,,,,,,,,,,,,,,,,,,,,,,,,,,,,,,,,,,,,,,,,,,,,,,,,,,,,
,,,,,,,,,,,,a,0.608905,Correct!,,,,,,t2.png,t3.png,1,0.90855,20,Female,2020-11-24_10h39.17.468,torte-2b,2020.1.3,MacIntel,60,13334,,,,,0,18,18,111,1,,,,,,,,,,,,,,,,,,,,,,,,,,,,,,,,,,,,,,,,,,,,,,,,,,,,,,,,
,,,,,,,,,,,,a,0.75919,Incorrect,,,,,,t2.png,t4.png,2,0.0591,20,Female,2020-11-24_10h39.17.468,torte-2b,2020.1.3,MacIntel,60,13334,,,,,0,19,19,15,1,,,,,,,,,,,,,,,,,,,,,,,,,,,,,,,,,,,,,,,,,,,,,,,,,,,,,,,,
,,,,,,,,,,,,l,1.222155,Correct!,,,,,,t1.png,t3.png,2,0.056466,20,Female,2020-11-24_10h39.17.468,torte-2b,2020.1.3,MacIntel,60,13334,,,,,0,20,20,63,1,,,,,,,,,,,,,,,,,,,,,,,,,,,,,,,,,,,,,,,,,,,,,,,,,,,,,,,,
,,,,,,,,,,,,l,0.945955,Correct!,,,,,,t2.png,t3.png,1,0.90855,20,Female,2020-11-24_10h39.17.468,torte-2b,2020.1.3,MacIntel,60,13334,,,,,0,21,21,10,1,,,,,,,,,,,,,,,,,,,,,,,,,,,,,,,,,,,,,,,,,,,,,,,,,,,,,,,,
,,,,,,,,,,,,a,1.290645,Correct!,,,,,,t5.png,t4.png,1,0.9,20,Female,2020-11-24_10h39.17.468,torte-2b,2020.1.3,MacIntel,60,13334,,,,,0,22,22,49,1,,,,,,,,,,,,,,,,,,,,,,,,,,,,,,,,,,,,,,,,,,,,,,,,,,,,,,,,
,,,,,,,,,,,,l,0.8666,Correct!,,,,,,t1.png,t5.png,4,9.55E-11,20,Female,2020-11-24_10h39.17.468,torte-2b,2020.1.3,MacIntel,60,13334,,,,,0,23,23,16,1,,,,,,,,,,,,,,,,,,,,,,,,,,,,,,,,,,,,,,,,,,,,,,,,,,,,,,,,
,,,,,,,,,,,,a,0.44172,Incorrect,,,,,,t5.png,t2.png,3,0.0000131,20,Female,2020-11-24_10h39.17.468,torte-2b,2020.1.3,MacIntel,60,13334,,,,,0,24,24,98,1,,,,,,,,,,,,,,,,,,,,,,,,,,,,,,,,,,,,,,,,,,,,,,,,,,,,,,,,
,,,,,,,,,,,,l,0.72265,Correct!,,,,,,t1.png,t4.png,3,0.0000131,20,Female,2020-11-24_10h39.17.468,torte-2b,2020.1.3,MacIntel,60,13334,,,,,0,25,25,81,1,,,,,,,,,,,,,,,,,,,,,,,,,,,,,,,,,,,,,,,,,,,,,,,,,,,,,,,,
,,,,,,,,,,,,a,0.647475,Correct!,,,,,,t4.png,t4.png,0,0.98115,20,Female,2020-11-24_10h39.17.468,torte-2b,2020.1.3,MacIntel,60,13334,,,,,0,26,26,80,1,,,,,,,,,,,,,,,,,,,,,,,,,,,,,,,,,,,,,,,,,,,,,,,,,,,,,,,,
,,,,,,,,,,,,a,0.527935,Incorrect,,,,,,t4.png,t1.png,3,0.0000131,20,Female,2020-11-24_10h39.17.468,torte-2b,2020.1.3,MacIntel,60,13334,,,,,0,27,27,48,1,,,,,,,,,,,,,,,,,,,,,,,,,,,,,,,,,,,,,,,,,,,,,,,,,,,,,,,,
,,,,,,,,,,,,a,0.70753,Correct!,,,,,,t3.png,t2.png,1,0.90855,20,Female,2020-11-24_10h39.17.468,torte-2b,2020.1.3,MacIntel,60,13334,,,,,0,28,28,53,1,,,,,,,,,,,,,,,,,,,,,,,,,,,,,,,,,,,,,,,,,,,,,,,,,,,,,,,,
,,,,,,,,,,,,l,0.58193,Correct!,,,,,,t1.png,t5.png,4,9.55E-11,20,Female,2020-11-24_10h39.17.468,torte-2b,2020.1.3,MacIntel,60,13334,,,,,0,29,29,85,1,,,,,,,,,,,,,,,,,,,,,,,,,,,,,,,,,,,,,,,,,,,,,,,,,,,,,,,,
,,,,,,,,,,,,a,0.890455,Incorrect,,,,,,t5.png,t1.png,4,9.55E-11,20,Female,2020-11-24_10h39.17.468,torte-2b,2020.1.3,MacIntel,60,13334,,,,,0,30,30,43,1,,,,,,,,,,,,,,,,,,,,,,,,,,,,,,,,,,,,,,,,,,,,,,,,,,,,,,,,
,,,,,,,,,,,,a,0.793205,Correct!,,,,,,t5.png,t4.png,1,0.9,20,Female,2020-11-24_10h39.17.468,torte-2b,2020.1.3,MacIntel,60,13334,,,,,0,31,31,76,1,,,,,,,,,,,,,,,,,,,,,,,,,,,,,,,,,,,,,,,,,,,,,,,,,,,,,,,,
,,,,,,,,,,,,l,0.78734,Incorrect,,,,,,t3.png,t4.png,1,0.909,20,Female,2020-11-24_10h39.17.468,torte-2b,2020.1.3,MacIntel,60,13334,,,,,0,32,32,89,1,,,,,,,,,,,,,,,,,,,,,,,,,,,,,,,,,,,,,,,,,,,,,,,,,,,,,,,,
,,,,,,,,,,,,l,0.94609,Incorrect,,,,,,t3.png,t4.png,1,0.90855,20,Female,2020-11-24_10h39.17.468,torte-2b,2020.1.3,MacIntel,60,13334,,,,,0,33,33,96,1,,,,,,,,,,,,,,,,,,,,,,,,,,,,,,,,,,,,,,,,,,,,,,,,,,,,,,,,
,,,,,,,,,,,,a,0.622045,Correct!,,,,,,t2.png,t2.png,0,0.98115,20,Female,2020-11-24_10h39.17.468,torte-2b,2020.1.3,MacIntel,60,13334,,,,,0,34,34,2,1,,,,,,,,,,,,,,,,,,,,,,,,,,,,,,,,,,,,,,,,,,,,,,,,,,,,,,,,
,,,,,,,,,,,,a,0.62968,Incorrect,,,,,,t5.png,t1.png,4,9.55E-11,20,Female,2020-11-24_10h39.17.468,torte-2b,2020.1.3,MacIntel,60,13334,,,,,0,35,35,100,1,,,,,,,,,,,,,,,,,,,,,,,,,,,,,,,,,,,,,,,,,,,,,,,,,,,,,,,,
,,,,,,,,,,,,a,1.0076,Incorrect,,,,,,t5.png,t2.png,3,0.0000131,20,Female,2020-11-24_10h39.17.468,torte-2b,2020.1.3,MacIntel,60,13334,,,,,0,36,36,116,1,,,,,,,,,,,,,,,,,,,,,,,,,,,,,,,,,,,,,,,,,,,,,,,,,,,,,,,,
,,,,,,,,,,,,a,0.94159,Incorrect,,,,,,t4.png,t1.png,3,0.0000131,20,Female,2020-11-24_10h39.17.468,torte-2b,2020.1.3,MacIntel,60,13334,,,,,0,37,37,61,1,,,,,,,,,,,,,,,,,,,,,,,,,,,,,,,,,,,,,,,,,,,,,,,,,,,,,,,,
,,,,,,,,,,,,a,0.559125,Correct!,,,,,,t4.png,t3.png,1,0.90855,20,Female,2020-11-24_10h39.17.468,torte-2b,2020.1.3,MacIntel,60,13334,,,,,0,38,38,35,1,,,,,,,,,,,,,,,,,,,,,,,,,,,,,,,,,,,,,,,,,,,,,,,,,,,,,,,,
,,,,,,,,,,,,l,0.67913,Correct!,,,,,,t1.png,t3.png,2,0.056466,20,Female,2020-11-24_10h39.17.468,torte-2b,2020.1.3,MacIntel,60,13334,,,,,0,39,39,87,1,,,,,,,,,,,,,,,,,,,,,,,,,,,,,,,,,,,,,,,,,,,,,,,,,,,,,,,,
,,,,,,,,,,,,a,1.02516,Correct!,,,,,,t5.png,t5.png,0,0.97829,20,Female,2020-11-24_10h39.17.468,torte-2b,2020.1.3,MacIntel,60,13334,,,,,0,40,40,25,1,,,,,,,,,,,,,,,,,,,,,,,,,,,,,,,,,,,,,,,,,,,,,,,,,,,,,,,,
,,,,,,,,,,,,a,0.790535,Incorrect,,,,,,t2.png,t4.png,2,0.059078,20,Female,2020-11-24_10h39.17.468,torte-2b,2020.1.3,MacIntel,60,13334,,,,,0,41,41,11,1,,,,,,,,,,,,,,,,,,,,,,,,,,,,,,,,,,,,,,,,,,,,,,,,,,,,,,,,
,,,,,,,,,,,,l,0.943755,Incorrect,,,,,,t2.png,t2.png,0,0.98115,20,Female,2020-11-24_10h39.17.468,torte-2b,2020.1.3,MacIntel,60,13334,,,,,0,42,42,59,1,,,,,,,,,,,,,,,,,,,,,,,,,,,,,,,,,,,,,,,,,,,,,,,,,,,,,,,,
,,,,,,,,,,,,l,1.574455,Correct!,,,,,,t1.png,t3.png,2,0.056466,20,Female,2020-11-24_10h39.17.468,torte-2b,2020.1.3,MacIntel,60,13334,,,,,0,43,43,60,1,,,,,,,,,,,,,,,,,,,,,,,,,,,,,,,,,,,,,,,,,,,,,,,,,,,,,,,,
,,,,,,,,,,,,a,0.69822,Incorrect,,,,,,t3.png,t4.png,1,0.90855,20,Female,2020-11-24_10h39.17.468,torte-2b,2020.1.3,MacIntel,60,13334,,,,,0,44,44,84,1,,,,,,,,,,,,,,,,,,,,,,,,,,,,,,,,,,,,,,,,,,,,,,,,,,,,,,,,
,,,,,,,,,,,,a,0.908815,Incorrect,,,,,,t1.png,t4.png,3,0.0000131,20,Female,2020-11-24_10h39.17.468,torte-2b,2020.1.3,MacIntel,60,13334,,,,,0,45,45,107,1,,,,,,,,,,,,,,,,,,,,,,,,,,,,,,,,,,,,,,,,,,,,,,,,,,,,,,,,
,,,,,,,,,,,,l,0.562455,Incorrect,,,,,,t1.png,t2.png,1,0.90025,20,Female,2020-11-24_10h39.17.468,torte-2b,2020.1.3,MacIntel,60,13334,,,,,0,46,46,112,1,,,,,,,,,,,,,,,,,,,,,,,,,,,,,,,,,,,,,,,,,,,,,,,,,,,,,,,,
,,,,,,,,,,,,a,0.887895,Incorrect,,,,,,t3.png,t2.png,1,0.909,20,Female,2020-11-24_10h39.17.468,torte-2b,2020.1.3,MacIntel,60,13334,,,,,0,47,47,3,1,,,,,,,,,,,,,,,,,,,,,,,,,,,,,,,,,,,,,,,,,,,,,,,,,,,,,,,,
,,,,,,,,,,,,l,0.589615,Correct!,,,,,,t2.png,t4.png,2,0.059078,20,Female,2020-11-24_10h39.17.468,torte-2b,2020.1.3,MacIntel,60,13334,,,,,0,48,48,24,1,,,,,,,,,,,,,,,,,,,,,,,,,,,,,,,,,,,,,,,,,,,,,,,,,,,,,,,,
,,,,,,,,,,,,l,0.729305,Incorrect,,,,,,t1.png,t2.png,1,0.90025,20,Female,2020-11-24_10h39.17.468,torte-2b,2020.1.3,MacIntel,60,13334,,,,,0,49,49,105,1,,,,,,,,,,,,,,,,,,,,,,,,,,,,,,,,,,,,,,,,,,,,,,,,,,,,,,,,
,,,,,,,,,,,,a,1.05254,Incorrect,,,,,,t5.png,t2.png,3,0.0000131,20,Female,2020-11-24_10h39.17.468,torte-2b,2020.1.3,MacIntel,60,13334,,,,,0,50,50,51,1,,,,,,,,,,,,,,,,,,,,,,,,,,,,,,,,,,,,,,,,,,,,,,,,,,,,,,,,
,,,,,,,,,,,,a,0.702505,Correct!,,,,,,t4.png,t3.png,1,0.90855,20,Female,2020-11-24_10h39.17.468,torte-2b,2020.1.3,MacIntel,60,13334,,,,,0,51,51,75,1,,,,,,,,,,,,,,,,,,,,,,,,,,,,,,,,,,,,,,,,,,,,,,,,,,,,,,,,
,,,,,,,,,,,,l,0.840245,Incorrect,,,,,,t5.png,t5.png,0,0.97829,20,Female,2020-11-24_10h39.17.468,torte-2b,2020.1.3,MacIntel,60,13334,,,,,0,52,52,73,1,,,,,,,,,,,,,,,,,,,,,,,,,,,,,,,,,,,,,,,,,,,,,,,,,,,,,,,,
,,,,,,,,,,,,a,1.21146,Correct!,,,,,,t4.png,t5.png,1,0.90025,20,Female,2020-11-24_10h39.17.468,torte-2b,2020.1.3,MacIntel,60,13334,,,,,0,53,53,58,1,,,,,,,,,,,,,,,,,,,,,,,,,,,,,,,,,,,,,,,,,,,,,,,,,,,,,,,,
,,,,,,,,,,,,l,1.093345,Correct!,,,,,,t1.png,t5.png,4,9.55E-11,20,Female,2020-11-24_10h39.17.468,torte-2b,2020.1.3,MacIntel,60,13334,,,,,0,54,54,12,1,,,,,,,,,,,,,,,,,,,,,,,,,,,,,,,,,,,,,,,,,,,,,,,,,,,,,,,,
,,,,,,,,,,,,a,0.9773,Incorrect,,,,,,t3.png,t5.png,2,0.056466,20,Female,2020-11-24_10h39.17.468,torte-2b,2020.1.3,MacIntel,60,13334,,,,,0,55,55,6,1,,,,,,,,,,,,,,,,,,,,,,,,,,,,,,,,,,,,,,,,,,,,,,,,,,,,,,,,
,,,,,,,,,,,,l,1.158065,Correct!,,,,,,t2.png,t5.png,3,0.0000131,20,Female,2020-11-24_10h39.17.468,torte-2b,2020.1.3,MacIntel,60,13334,,,,,0,56,56,40,1,,,,,,,,,,,,,,,,,,,,,,,,,,,,,,,,,,,,,,,,,,,,,,,,,,,,,,,,
,,,,,,,,,,,,l,0.94029,Correct!,,,,,,t1.png,t3.png,2,0.056466,20,Female,2020-11-24_10h39.17.468,torte-2b,2020.1.3,MacIntel,60,13334,,,,,0,57,57,99,1,,,,,,,,,,,,,,,,,,,,,,,,,,,,,,,,,,,,,,,,,,,,,,,,,,,,,,,,
,,,,,,,,,,,,a,0.67871,Incorrect,,,,,,t3.png,t1.png,2,0.056466,20,Female,2020-11-24_10h39.17.468,torte-2b,2020.1.3,MacIntel,60,13334,,,,,0,58,58,29,1,,,,,,,,,,,,,,,,,,,,,,,,,,,,,,,,,,,,,,,,,,,,,,,,,,,,,,,,
,,,,,,,,,,,,a,1.55985,Incorrect,,,,,,t3.png,t5.png,2,0.0565,20,Female,2020-11-24_10h39.17.468,torte-2b,2020.1.3,MacIntel,60,13334,,,,,0,59,59,30,1,,,,,,,,,,,,,,,,,,,,,,,,,,,,,,,,,,,,,,,,,,,,,,,,,,,,,,,,
,,,,,,,,,,,,a,0.717325,Incorrect,,,,,,t5.png,t3.png,2,0.056466,20,Female,2020-11-24_10h39.17.468,torte-2b,2020.1.3,MacIntel,60,13334,,,,,0,60,60,56,1,,,,,,,,,,,,,,,,,,,,,,,,,,,,,,,,,,,,,,,,,,,,,,,,,,,,,,,,
,,,,,,,,,,,,a,1.071965,Correct!,,,,,,t1.png,t1.png,0,0.978,20,Female,2020-11-24_10h39.17.468,torte-2b,2020.1.3,MacIntel,60,13334,,,,,0,61,61,54,1,,,,,,,,,,,,,,,,,,,,,,,,,,,,,,,,,,,,,,,,,,,,,,,,,,,,,,,,
,,,,,,,,,,,,a,0.68692,Correct!,,,,,,t4.png,t5.png,1,0.90025,20,Female,2020-11-24_10h39.17.468,torte-2b,2020.1.3,MacIntel,60,13334,,,,,0,62,62,103,1,,,,,,,,,,,,,,,,,,,,,,,,,,,,,,,,,,,,,,,,,,,,,,,,,,,,,,,,
,,,,,,,,,,,,l,0.872045,Incorrect,,,,,,t3.png,t4.png,1,0.909,20,Female,2020-11-24_10h39.17.468,torte-2b,2020.1.3,MacIntel,60,13334,,,,,0,63,63,82,1,,,,,,,,,,,,,,,,,,,,,,,,,,,,,,,,,,,,,,,,,,,,,,,,,,,,,,,,
,,,,,,,,,,,,a,0.61311,Incorrect,,,,,,t3.png,t1.png,2,0.056466,20,Female,2020-11-24_10h39.17.468,torte-2b,2020.1.3,MacIntel,60,13334,,,,,0,64,64,0,1,,,,,,,,,,,,,,,,,,,,,,,,,,,,,,,,,,,,,,,,,,,,,,,,,,,,,,,,
,,,,,,,,,,,,l,0.97401,Correct!,,,,,,t1.png,t4.png,3,0.0000131,20,Female,2020-11-24_10h39.17.468,torte-2b,2020.1.3,MacIntel,60,13334,,,,,0,65,65,50,1,,,,,,,,,,,,,,,,,,,,,,,,,,,,,,,,,,,,,,,,,,,,,,,,,,,,,,,,
,,,,,,,,,,,,a,0.4551,Correct!,,,,,,t5.png,t5.png,0,0.978,20,Female,2020-11-24_10h39.17.468,torte-2b,2020.1.3,MacIntel,60,13334,,,,,0,66,66,117,1,,,,,,,,,,,,,,,,,,,,,,,,,,,,,,,,,,,,,,,,,,,,,,,,,,,,,,,,
,,,,,,,,,,,,a,0.90169,Incorrect,,,,,,t5.png,t2.png,3,0.0000131,20,Female,2020-11-24_10h39.17.468,torte-2b,2020.1.3,MacIntel,60,13334,,,,,0,67,67,119,1,,,,,,,,,,,,,,,,,,,,,,,,,,,,,,,,,,,,,,,,,,,,,,,,,,,,,,,,
,,,,,,,,,,,,l,0.54217,Incorrect,,,,,,t2.png,t2.png,0,0.98115,20,Female,2020-11-24_10h39.17.468,torte-2b,2020.1.3,MacIntel,60,13334,,,,,0,68,68,7,1,,,,,,,,,,,,,,,,,,,,,,,,,,,,,,,,,,,,,,,,,,,,,,,,,,,,,,,,
,,,,,,,,,,,,l,0.759845,Incorrect,,,,,,t2.png,t3.png,1,0.90855,20,Female,2020-11-24_10h39.17.468,torte-2b,2020.1.3,MacIntel,60,13334,,,,,0,69,69,68,1,,,,,,,,,,,,,,,,,,,,,,,,,,,,,,,,,,,,,,,,,,,,,,,,,,,,,,,,
,,,,,,,,,,,,l,0.80628,Incorrect,,,,,,t1.png,t2.png,1,0.90025,20,Female,2020-11-24_10h39.17.468,torte-2b,2020.1.3,MacIntel,60,13334,,,,,0,70,70,33,1,,,,,,,,,,,,,,,,,,,,,,,,,,,,,,,,,,,,,,,,,,,,,,,,,,,,,,,,
,,,,,,,,,,,,a,0.40393,Incorrect,,,,,,t5.png,t3.png,2,0.056466,20,Female,2020-11-24_10h39.17.468,torte-2b,2020.1.3,MacIntel,60,13334,,,,,0,71,71,114,1,,,,,,,,,,,,,,,,,,,,,,,,,,,,,,,,,,,,,,,,,,,,,,,,,,,,,,,,
,,,,,,,,,,,,a,0.750285,Incorrect,,,,,,t5.png,t3.png,2,0.056466,20,Female,2020-11-24_10h39.17.468,torte-2b,2020.1.3,MacIntel,60,13334,,,,,0,72,72,38,1,,,,,,,,,,,,,,,,,,,,,,,,,,,,,,,,,,,,,,,,,,,,,,,,,,,,,,,,
,,,,,,,,,,,,a,0.771765,Incorrect,,,,,,t3.png,t5.png,2,0.0565,20,Female,2020-11-24_10h39.17.468,torte-2b,2020.1.3,MacIntel,60,13334,,,,,0,73,73,83,1,,,,,,,,,,,,,,,,,,,,,,,,,,,,,,,,,,,,,,,,,,,,,,,,,,,,,,,,
,,,,,,,,,,,,l,0.741415,Correct!,,,,,,t2.png,t5.png,3,0.0000131,20,Female,2020-11-24_10h39.17.468,torte-2b,2020.1.3,MacIntel,60,13334,,,,,0,74,74,104,1,,,,,,,,,,,,,,,,,,,,,,,,,,,,,,,,,,,,,,,,,,,,,,,,,,,,,,,,
,,,,,,,,,,,,l,1.008515,Correct!,,,,,,t5.png,t1.png,4,9.55E-11,20,Female,2020-11-24_10h39.17.468,torte-2b,2020.1.3,MacIntel,60,13334,,,,,0,75,75,22,1,,,,,,,,,,,,,,,,,,,,,,,,,,,,,,,,,,,,,,,,,,,,,,,,,,,,,,,,
,,,,,,,,,,,,a,0.51888,Correct!,,,,,,t4.png,t3.png,1,0.909,20,Female,2020-11-24_10h39.17.468,torte-2b,2020.1.3,MacIntel,60,13334,,,,,0,76,76,46,1,,,,,,,,,,,,,,,,,,,,,,,,,,,,,,,,,,,,,,,,,,,,,,,,,,,,,,,,
,,,,,,,,,,,,l,1.00536,Correct!,,,,,,t2.png,t4.png,2,0.059078,20,Female,2020-11-24_10h39.17.468,torte-2b,2020.1.3,MacIntel,60,13334,,,,,0,77,77,77,1,,,,,,,,,,,,,,,,,,,,,,,,,,,,,,,,,,,,,,,,,,,,,,,,,,,,,,,,
,,,,,,,,,,,,l,0.9203,Incorrect,,,,,,t5.png,t5.png,0,0.97829,20,Female,2020-11-24_10h39.17.468,torte-2b,2020.1.3,MacIntel,60,13334,,,,,0,78,78,70,1,,,,,,,,,,,,,,,,,,,,,,,,,,,,,,,,,,,,,,,,,,,,,,,,,,,,,,,,
,,,,,,,,,,,,a,1.094665,Correct!,,,,,,t5.png,t4.png,1,0.90025,20,Female,2020-11-24_10h39.17.468,torte-2b,2020.1.3,MacIntel,60,13334,,,,,0,79,79,34,1,,,,,,,,,,,,,,,,,,,,,,,,,,,,,,,,,,,,,,,,,,,,,,,,,,,,,,,,
,,,,,,,,,,,,l,1.99502,Correct!,,,,,,t4.png,t1.png,3,0.0000131,20,Female,2020-11-24_10h39.17.468,torte-2b,2020.1.3,MacIntel,60,13334,,,,,0,80,80,93,1,,,,,,,,,,,,,,,,,,,,,,,,,,,,,,,,,,,,,,,,,,,,,,,,,,,,,,,,
,,,,,,,,,,,,a,0.597935,Incorrect,,,,,,t3.png,t2.png,1,0.90855,20,Female,2020-11-24_10h39.17.468,torte-2b,2020.1.3,MacIntel,60,13334,,,,,0,81,81,18,1,,,,,,,,,,,,,,,,,,,,,,,,,,,,,,,,,,,,,,,,,,,,,,,,,,,,,,,,
,,,,,,,,,,,,a,1.182425,Correct!,,,,,,t4.png,t3.png,1,0.909,20,Female,2020-11-24_10h39.17.468,torte-2b,2020.1.3,MacIntel,60,13334,,,,,0,82,82,20,1,,,,,,,,,,,,,,,,,,,,,,,,,,,,,,,,,,,,,,,,,,,,,,,,,,,,,,,,
,,,,,,,,,,,,l,1.14201,Correct!,,,,,,t1.png,t3.png,2,0.056466,20,Female,2020-11-24_10h39.17.468,torte-2b,2020.1.3,MacIntel,60,13334,,,,,0,83,83,69,1,,,,,,,,,,,,,,,,,,,,,,,,,,,,,,,,,,,,,,,,,,,,,,,,,,,,,,,,
,,,,,,,,,,,,a,0.884215,Correct!,,,,,,t4.png,t5.png,1,0.9,20,Female,2020-11-24_10h39.17.468,torte-2b,2020.1.3,MacIntel,60,13334,,,,,0,84,84,115,1,,,,,,,,,,,,,,,,,,,,,,,,,,,,,,,,,,,,,,,,,,,,,,,,,,,,,,,,
,,,,,,,,,,,,a,1.1078,Correct!,,,,,,t4.png,t4.png,0,0.98115,20,Female,2020-11-24_10h39.17.468,torte-2b,2020.1.3,MacIntel,60,13334,,,,,0,85,85,90,1,,,,,,,,,,,,,,,,,,,,,,,,,,,,,,,,,,,,,,,,,,,,,,,,,,,,,,,,
,,,,,,,,,,,,a,0.695585,Incorrect,,,,,,t3.png,t1.png,2,0.056466,20,Female,2020-11-24_10h39.17.468,torte-2b,2020.1.3,MacIntel,60,13334,,,,,0,86,86,64,1,,,,,,,,,,,,,,,,,,,,,,,,,,,,,,,,,,,,,,,,,,,,,,,,,,,,,,,,
,,,,,,,,,,,,a,0.585985,Correct!,,,,,,t2.png,t1.png,1,0.90025,20,Female,2020-11-24_10h39.17.468,torte-2b,2020.1.3,MacIntel,60,13334,,,,,0,87,87,19,1,,,,,,,,,,,,,,,,,,,,,,,,,,,,,,,,,,,,,,,,,,,,,,,,,,,,,,,,
,,,,,,,,,,,,l,0.64247,Correct!,,,,,,t4.png,t5.png,1,0.90025,20,Female,2020-11-24_10h39.17.468,torte-2b,2020.1.3,MacIntel,60,13334,,,,,0,88,88,47,1,,,,,,,,,,,,,,,,,,,,,,,,,,,,,,,,,,,,,,,,,,,,,,,,,,,,,,,,
,,,,,,,,,,,,l,0.65617,Correct!,,,,,,t2.png,t5.png,3,0.0000131,20,Female,2020-11-24_10h39.17.468,torte-2b,2020.1.3,MacIntel,60,13334,,,,,0,89,89,95,1,,,,,,,,,,,,,,,,,,,,,,,,,,,,,,,,,,,,,,,,,,,,,,,,,,,,,,,,
,,,,,,,,,,,,a,0.64972,Correct!,,,,,,t4.png,t3.png,1,0.90855,20,Female,2020-11-24_10h39.17.468,torte-2b,2020.1.3,MacIntel,60,13334,,,,,0,90,90,45,1,,,,,,,,,,,,,,,,,,,,,,,,,,,,,,,,,,,,,,,,,,,,,,,,,,,,,,,,
,,,,,,,,,,,,a,1.2712,Incorrect,,,,,,t5.png,t1.png,4,9.55E-11,20,Female,2020-11-24_10h39.17.468,torte-2b,2020.1.3,MacIntel,60,13334,,,,,0,91,91,102,1,,,,,,,,,,,,,,,,,,,,,,,,,,,,,,,,,,,,,,,,,,,,,,,,,,,,,,,,
,,,,,,,,,,,,l,0.657995,Correct!,,,,,,t4.png,t2.png,2,0.0591,20,Female,2020-11-24_10h39.17.468,torte-2b,2020.1.3,MacIntel,60,13334,,,,,0,92,92,36,1,,,,,,,,,,,,,,,,,,,,,,,,,,,,,,,,,,,,,,,,,,,,,,,,,,,,,,,,
,,,,,,,,,,,,l,0.55699,Correct!,,,,,,t1.png,t4.png,3,0.0000131,20,Female,2020-11-24_10h39.17.468,torte-2b,2020.1.3,MacIntel,60,13334,,,,,0,93,93,17,1,,,,,,,,,,,,,,,,,,,,,,,,,,,,,,,,,,,,,,,,,,,,,,,,,,,,,,,,
,,,,,,,,,,,,a,0.71827,Incorrect,,,,,,t5.png,t3.png,2,0.056466,20,Female,2020-11-24_10h39.17.468,torte-2b,2020.1.3,MacIntel,60,13334,,,,,0,94,94,108,1,,,,,,,,,,,,,,,,,,,,,,,,,,,,,,,,,,,,,,,,,,,,,,,,,,,,,,,,
,,,,,,,,,,,,l,0.631445,Incorrect,,,,,,t1.png,t1.png,0,0.97829,20,Female,2020-11-24_10h39.17.468,torte-2b,2020.1.3,MacIntel,60,13334,,,,,0,95,95,78,1,,,,,,,,,,,,,,,,,,,,,,,,,,,,,,,,,,,,,,,,,,,,,,,,,,,,,,,,
,,,,,,,,,,,,l,0.6275,Incorrect,,,,,,t2.png,t3.png,1,0.90855,20,Female,2020-11-24_10h39.17.468,torte-2b,2020.1.3,MacIntel,60,13334,,,,,0,96,96,65,1,,,,,,,,,,,,,,,,,,,,,,,,,,,,,,,,,,,,,,,,,,,,,,,,,,,,,,,,
,,,,,,,,,,,,a,0.673025,Incorrect,,,,,,t3.png,t1.png,2,0.0565,20,Female,2020-11-24_10h39.17.468,torte-2b,2020.1.3,MacIntel,60,13334,,,,,0,97,97,31,1,,,,,,,,,,,,,,,,,,,,,,,,,,,,,,,,,,,,,,,,,,,,,,,,,,,,,,,,
,,,,,,,,,,,,a,0.876505,Incorrect,,,,,,t5.png,t1.png,4,9.55E-11,20,Female,2020-11-24_10h39.17.468,torte-2b,2020.1.3,MacIntel,60,13334,,,,,0,98,98,71,1,,,,,,,,,,,,,,,,,,,,,,,,,,,,,,,,,,,,,,,,,,,,,,,,,,,,,,,,
,,,,,,,,,,,,a,0.54384,Correct!,,,,,,t3.png,t2.png,1,0.90855,20,Female,2020-11-24_10h39.17.468,torte-2b,2020.1.3,MacIntel,60,13334,,,,,0,99,99,97,1,,,,,,,,,,,,,,,,,,,,,,,,,,,,,,,,,,,,,,,,,,,,,,,,,,,,,,,,
,,,,,,,,,,,,l,0.959005,Correct!,,,,,,t2.png,t5.png,3,0.0000131,20,Female,2020-11-24_10h39.17.468,torte-2b,2020.1.3,MacIntel,60,13334,,,,,0,100,100,66,1,,,,,,,,,,,,,,,,,,,,,,,,,,,,,,,,,,,,,,,,,,,,,,,,,,,,,,,,
,,,,,,,,,,,,a,0.786105,Incorrect,,,,,,t4.png,t2.png,2,0.059078,20,Female,2020-11-24_10h39.17.468,torte-2b,2020.1.3,MacIntel,60,13334,,,,,0,101,101,110,1,,,,,,,,,,,,,,,,,,,,,,,,,,,,,,,,,,,,,,,,,,,,,,,,,,,,,,,,
,,,,,,,,,,,,a,0.99168,Correct!,,,,,,t2.png,t1.png,1,0.90025,20,Female,2020-11-24_10h39.17.468,torte-2b,2020.1.3,MacIntel,60,13334,,,,,0,102,102,62,1,,,,,,,,,,,,,,,,,,,,,,,,,,,,,,,,,,,,,,,,,,,,,,,,,,,,,,,,
,,,,,,,,,,,,,,Too slow :(,,,,,,t4.png,t1.png,3,0.0000131,20,Female,2020-11-24_10h39.17.468,torte-2b,2020.1.3,MacIntel,60,13334,,,,,0,103,103,13,1,,,,,,,,,,,,,,,,,,,,,,,,,,,,,,,,,,,,,,,,,,,,,,,,,,,,,,,,
,,,,,,,,,,,,a,1.54329,Correct!,,,,,,t2.png,t2.png,0,0.981,20,Female,2020-11-24_10h39.17.468,torte-2b,2020.1.3,MacIntel,60,13334,,,,,0,104,104,101,1,,,,,,,,,,,,,,,,,,,,,,,,,,,,,,,,,,,,,,,,,,,,,,,,,,,,,,,,
,,,,,,,,,,,,a,1.044,Correct!,,,,,,t2.png,t1.png,1,0.90025,20,Female,2020-11-24_10h39.17.468,torte-2b,2020.1.3,MacIntel,60,13334,,,,,0,105,105,4,1,,,,,,,,,,,,,,,,,,,,,,,,,,,,,,,,,,,,,,,,,,,,,,,,,,,,,,,,
,,,,,,,,,,,,a,0.77776,Incorrect,,,,,,t2.png,t4.png,2,0.059078,20,Female,2020-11-24_10h39.17.468,torte-2b,2020.1.3,MacIntel,60,13334,,,,,0,106,106,37,1,,,,,,,,,,,,,,,,,,,,,,,,,,,,,,,,,,,,,,,,,,,,,,,,,,,,,,,,
,,,,,,,,,,,,a,0.747775,Correct!,,,,,,t5.png,t5.png,0,0.97829,20,Female,2020-11-24_10h39.17.468,torte-2b,2020.1.3,MacIntel,60,13334,,,,,0,107,107,94,1,,,,,,,,,,,,,,,,,,,,,,,,,,,,,,,,,,,,,,,,,,,,,,,,,,,,,,,,
,,,,,,,,,,,,l,0.65697,Correct!,,,,,,t2.png,t5.png,3,0.0000131,20,Female,2020-11-24_10h39.17.468,torte-2b,2020.1.3,MacIntel,60,13334,,,,,0,108,108,8,1,,,,,,,,,,,,,,,,,,,,,,,,,,,,,,,,,,,,,,,,,,,,,,,,,,,,,,,,
,,,,,,,,,,,,a,0.91548,Correct!,,,,,,t4.png,t4.png,0,0.98115,20,Female,2020-11-24_10h39.17.468,torte-2b,2020.1.3,MacIntel,60,13334,,,,,0,109,109,21,1,,,,,,,,,,,,,,,,,,,,,,,,,,,,,,,,,,,,,,,,,,,,,,,,,,,,,,,,
,,,,,,,,,,,,a,1.011285,Correct!,,,,,,t2.png,t1.png,1,0.90025,20,Female,2020-11-24_10h39.17.468,torte-2b,2020.1.3,MacIntel,60,13334,,,,,0,110,110,5,1,,,,,,,,,,,,,,,,,,,,,,,,,,,,,,,,,,,,,,,,,,,,,,,,,,,,,,,,
,,,,,,,,,,,,l,1.04506,Correct!,,,,,,t1.png,t5.png,4,9.55E-11,20,Female,2020-11-24_10h39.17.468,torte-2b,2020.1.3,MacIntel,60,13334,,,,,0,111,111,55,1,,,,,,,,,,,,,,,,,,,,,,,,,,,,,,,,,,,,,,,,,,,,,,,,,,,,,,,,
,,,,,,,,,,,,a,1.453405,Correct!,,,,,,t3.png,t4.png,1,0.909,20,Female,2020-11-24_10h39.17.468,torte-2b,2020.1.3,MacIntel,60,13334,,,,,0,112,112,106,1,,,,,,,,,,,,,,,,,,,,,,,,,,,,,,,,,,,,,,,,,,,,,,,,,,,,,,,,
,,,,,,,,,,,,a,1.14797,Correct!,,,,,,t1.png,t1.png,0,0.97829,20,Female,2020-11-24_10h39.17.468,torte-2b,2020.1.3,MacIntel,60,13334,,,,,0,113,113,67,1,,,,,,,,,,,,,,,,,,,,,,,,,,,,,,,,,,,,,,,,,,,,,,,,,,,,,,,,
,,,,,,,,,,,,a,0.919335,Incorrect,,,,,,t1.png,t5.png,4,9.55E-11,20,Female,2020-11-24_10h39.17.468,torte-2b,2020.1.3,MacIntel,60,13334,,,,,0,114,114,41,1,,,,,,,,,,,,,,,,,,,,,,,,,,,,,,,,,,,,,,,,,,,,,,,,,,,,,,,,
,,,,,,,,,,,,l,0.7092,Incorrect,,,,,,t1.png,t2.png,1,0.90025,20,Female,2020-11-24_10h39.17.468,torte-2b,2020.1.3,MacIntel,60,13334,,,,,0,115,115,72,1,,,,,,,,,,,,,,,,,,,,,,,,,,,,,,,,,,,,,,,,,,,,,,,,,,,,,,,,
,,,,,,,,,,,,a,0.791995,Incorrect,,,,,,t3.png,t2.png,1,0.909,20,Female,2020-11-24_10h39.17.468,torte-2b,2020.1.3,MacIntel,60,13334,,,,,0,116,116,23,1,,,,,,,,,,,,,,,,,,,,,,,,,,,,,,,,,,,,,,,,,,,,,,,,,,,,,,,,
,,,,,,,,,,,,a,0.771035,Incorrect,,,,,,t4.png,t2.png,2,0.059078,20,Female,2020-11-24_10h39.17.468,torte-2b,2020.1.3,MacIntel,60,13334,,,,,0,117,117,109,1,,,,,,,,,,,,,,,,,,,,,,,,,,,,,,,,,,,,,,,,,,,,,,,,,,,,,,,,
,,,,,,,,,,,,a,0.761745,Correct!,,,,,,t5.png,t4.png,1,0.90025,20,Female,2020-11-24_10h39.17.468,torte-2b,2020.1.3,MacIntel,60,13334,,,,,0,118,118,27,1,,,,,,,,,,,,,,,,,,,,,,,,,,,,,,,,,,,,,,,,,,,,,,,,,,,,,,,,
,,,,,,,,,,,,a,0.724725,Incorrect,,,,,,t4.png,t2.png,2,0.059078,20,Female,2020-11-24_10h39.17.468,torte-2b,2020.1.3,MacIntel,60,13334,,,,,0,119,119,88,1,,,,,,,,,,,,,,,,,,,,,,,,,,,,,,,,,,,,,,,,,,,,,,,,,,,,,,,,
,,,,,,,,,,,,,,,,,,,,,,,,20,Female,2020-11-24_10h39.17.468,torte-2b,2020.1.3,MacIntel,60,13334,return,1.68721,,,,,,,,space,49.83275,,0,0,0,0,1,6,,,,,,,,,,,,,,,,,,,,,,,,,,,,,,,,,,,,,,,,,,,,,,,
,,,,,,,,,,,,,,,,,,,,,,,,20,Female,2020-11-24_10h39.17.468,torte-2b,2020.1.3,MacIntel,60,13334,,,,,,,,,,,,,0,1,1,1,1,7,,,,,,,,,,,,,,,,,,,,,,,,,,,,,,,,,,,,,,,,,,,,,,,
,,,,,,,,,,,,,,,,,,,,,,,,20,Female,2020-11-24_10h39.17.468,torte-2b,2020.1.3,MacIntel,60,13334,,,,,,,,,,,,space,0,2,2,2,1,6,0.399765,,,,,,,,,,,,,,,,,,,,,,,,,,,,,,,,,,,,,,,,,,,,,,
,,,,,,,,,,,,,,,,,,,,,,,,20,Female,2020-11-24_10h39.17.468,torte-2b,2020.1.3,MacIntel,60,13334,,,,,,,,,,,,space,0,3,3,3,1,7,0.365335,,,,,,,,,,,,,,,,,,,,,,,,,,,,,,,,,,,,,,,,,,,,,,
,,,,,,,,,,,,,,,,,,,,,,,,20,Female,2020-11-24_10h39.17.468,torte-2b,2020.1.3,MacIntel,60,13334,,,,,,,,,,,,,0,4,4,4,1,5,,,,,,,,,,,,,,,,,,,,,,,,,,,,,,,,,,,,,,,,,,,,,,,
,,,,,,,,,,,,,,,,,,,,,,,,20,Female,2020-11-24_10h39.17.468,torte-2b,2020.1.3,MacIntel,60,13334,,,,,,,,,,,,space,0,5,5,5,1,7,0.60949,,,,,,,,,,,,,,,,,,,,,,,,,,,,,,,,,,,,,,,,,,,,,,
,,,,,,,,,,,,,,,,,,,,,,,,20,Female,2020-11-24_10h39.17.468,torte-2b,2020.1.3,MacIntel,60,13334,,,,,,,,,,,,,0,6,6,6,1,2,,,,,,,,,,,,,,,,,,,,,,,,,,,,,,,,,,,,,,,,,,,,,,,
,,,,,,,,,,,,,,,,,,,,,,,,20,Female,2020-11-24_10h39.17.468,torte-2b,2020.1.3,MacIntel,60,13334,,,,,,,,,,,,,0,7,7,7,1,4,,,,,,,,,,,,,,,,,,,,,,,,,,,,,,,,,,,,,,,,,,,,,,,
,,,,,,,,,,,,,,,,,,,,,,,,20,Female,2020-11-24_10h39.17.468,torte-2b,2020.1.3,MacIntel,60,13334,,,,,,,,,,,,,0,8,8,8,1,7,,,,,,,,,,,,,,,,,,,,,,,,,,,,,,,,,,,,,,,,,,,,,,,
,,,,,,,,,,,,,,,,,,,,,,,,20,Female,2020-11-24_10h39.17.468,torte-2b,2020.1.3,MacIntel,60,13334,,,,,,,,,,,,space,0,9,9,9,1,4,0.510685,,,,,,,,,,,,,,,,,,,,,,,,,,,,,,,,,,,,,,,,,,,,,,
,,,,,,,,,,,,,,,,,,,,,,,,20,Female,2020-11-24_10h39.17.468,torte-2b,2020.1.3,MacIntel,60,13334,,,,,,,,,,,,space,0,10,10,10,1,7,0.49191,,,,,,,,,,,,,,,,,,,,,,,,,,,,,,,,,,,,,,,,,,,,,,
,,,,,,,,,,,,,,,,,,,,,,,,20,Female,2020-11-24_10h39.17.468,torte-2b,2020.1.3,MacIntel,60,13334,,,,,,,,,,,,,0,11,11,11,1,7,,,,,,,,,,,,,,,,,,,,,,,,,,,,,,,,,,,,,,,,,,,,,,,
,,,,,,,,,,,,,,,,,,,,,,,,20,Female,2020-11-24_10h39.17.468,torte-2b,2020.1.3,MacIntel,60,13334,,,,,,,,,,,,space,0,12,12,12,1,7,0.4077,,,,,,,,,,,,,,,,,,,,,,,,,,,,,,,,,,,,,,,,,,,,,,
,,,,,,,,,,,,,,,,,,,,,,,,20,Female,2020-11-24_10h39.17.468,torte-2b,2020.1.3,MacIntel,60,13334,,,,,,,,,,,,,0,13,13,13,1,4,,,,,,,,,,,,,,,,,,,,,,,,,,,,,,,,,,,,,,,,,,,,,,,
,,,,,,,,,,,,,,,,,,,,,,,,20,Female,2020-11-24_10h39.17.468,torte-2b,2020.1.3,MacIntel,60,13334,,,,,,,,,,,,,0,14,14,14,1,6,,,,,,,,,,,,,,,,,,,,,,,,,,,,,,,,,,,,,,,,,,,,,,,
,,,,,,,,,,,,,,,,,,,,,,,,20,Female,2020-11-24_10h39.17.468,torte-2b,2020.1.3,MacIntel,60,13334,,,,,,,,,,,,space,0,15,15,15,1,4,0.43918,,,,,,,,,,,,,,,,,,,,,,,,,,,,,,,,,,,,,,,,,,,,,,
,,,,,,,,,,,,,,,,,,,,,,,,20,Female,2020-11-24_10h39.17.468,torte-2b,2020.1.3,MacIntel,60,13334,,,,,,,,,,,,space,0,16,16,16,1,6,0.40798,,,,,,,,,,,,,,,,,,,,,,,,,,,,,,,,,,,,,,,,,,,,,,
,,,,,,,,,,,,,,,,,,,,,,,,20,Female,2020-11-24_10h39.17.468,torte-2b,2020.1.3,MacIntel,60,13334,,,,,,,,,,,,,0,17,17,17,1,7,,,,,,,,,,,,,,,,,,,,,,,,,,,,,,,,,,,,,,,,,,,,,,,
,,,,,,,,,,,,,,,,,,,,,,,,20,Female,2020-11-24_10h39.17.468,torte-2b,2020.1.3,MacIntel,60,13334,,,,,,,,,,,,space,0,18,18,18,1,6,0.45516,,,,,,,,,,,,,,,,,,,,,,,,,,,,,,,,,,,,,,,,,,,,,,
,,,,,,,,,,,,,,,,,,,,,,,,20,Female,2020-11-24_10h39.17.468,torte-2b,2020.1.3,MacIntel,60,13334,,,,,,,,,,,,space,0,19,19,19,1,7,0.38445,,,,,,,,,,,,,,,,,,,,,,,,,,,,,,,,,,,,,,,,,,,,,,
,,,,,,,,,,,,,,,,,,,,,,,,20,Female,2020-11-24_10h39.17.468,torte-2b,2020.1.3,MacIntel,60,13334,,,,,,,,,,,,,0,20,20,20,1,5,,,,,,,,,,,,,,,,,,,,,,,,,,,,,,,,,,,,,,,,,,,,,,,
,,,,,,,,,,,,,,,,,,,,,,,,20,Female,2020-11-24_10h39.17.468,torte-2b,2020.1.3,MacIntel,60,13334,,,,,,,,,,,,,0,21,21,21,1,1,,,,,,,,,,,,,,,,,,,,,,,,,,,,,,,,,,,,,,,,,,,,,,,
,,,,,,,,,,,,,,,,,,,,,,,,20,Female,2020-11-24_10h39.17.468,torte-2b,2020.1.3,MacIntel,60,13334,,,,,,,,,,,,space,0,22,22,22,1,6,0.776665,,,,,,,,,,,,,,,,,,,,,,,,,,,,,,,,,,,,,,,,,,,,,,
,,,,,,,,,,,,,,,,,,,,,,,,20,Female,2020-11-24_10h39.17.468,torte-2b,2020.1.3,MacIntel,60,13334,,,,,,,,,,,,space,0,23,23,23,1,1,1.56949,,,,,,,,,,,,,,,,,,,,,,,,,,,,,,,,,,,,,,,,,,,,,,
,,,,,,,,,,,,,,,,,,,,,,,,20,Female,2020-11-24_10h39.17.468,torte-2b,2020.1.3,MacIntel,60,13334,,,,,,,,,,,,,0,24,24,24,1,5,,,,,,,,,,,,,,,,,,,,,,,,,,,,,,,,,,,,,,,,,,,,,,,
,,,,,,,,,,,,,,,,,,,,,,,,20,Female,2020-11-24_10h39.17.468,torte-2b,2020.1.3,MacIntel,60,13334,,,,,,,,,,,,space,0,25,25,25,1,6,0.58318,,,,,,,,,,,,,,,,,,,,,,,,,,,,,,,,,,,,,,,,,,,,,,
,,,,,,,,,,,,,,,,,,,,,,,,20,Female,2020-11-24_10h39.17.468,torte-2b,2020.1.3,MacIntel,60,13334,,,,,,,,,,,,space,0,26,26,26,1,6,0.4049,,,,,,,,,,,,,,,,,,,,,,,,,,,,,,,,,,,,,,,,,,,,,,
,,,,,,,,,,,,,,,,,,,,,,,,20,Female,2020-11-24_10h39.17.468,torte-2b,2020.1.3,MacIntel,60,13334,,,,,,,,,,,,space,0,27,27,27,1,6,0.613375,,,,,,,,,,,,,,,,,,,,,,,,,,,,,,,,,,,,,,,,,,,,,,
,,,,,,,,,,,,,,,,,,,,,,,,20,Female,2020-11-24_10h39.17.468,torte-2b,2020.1.3,MacIntel,60,13334,,,,,,,,,,,,,0,28,28,28,1,5,,,,,,,,,,,,,,,,,,,,,,,,,,,,,,,,,,,,,,,,,,,,,,,
,,,,,,,,,,,,,,,,,,,,,,,,20,Female,2020-11-24_10h39.17.468,torte-2b,2020.1.3,MacIntel,60,13334,,,,,,,,,,,,,0,29,29,29,1,2,,,,,,,,,,,,,,,,,,,,,,,,,,,,,,,,,,,,,,,,,,,,,,,
,,,,,,,,,,,,,,,,,,,,,,,,20,Female,2020-11-24_10h39.17.468,torte-2b,2020.1.3,MacIntel,60,13334,,,,,,,,,,,,space,0,30,30,30,1,5,0.41144,,,,,,,,,,,,,,,,,,,,,,,,,,,,,,,,,,,,,,,,,,,,,,
,,,,,,,,,,,,,,,,,,,,,,,,20,Female,2020-11-24_10h39.17.468,torte-2b,2020.1.3,MacIntel,60,13334,,,,,,,,,,,,space,0,31,31,31,1,2,0.37615,,,,,,,,,,,,,,,,,,,,,,,,,,,,,,,,,,,,,,,,,,,,,,
,,,,,,,,,,,,,,,,,,,,,,,,20,Female,2020-11-24_10h39.17.468,torte-2b,2020.1.3,MacIntel,60,13334,,,,,,,,,,,,space,0,32,32,32,1,5,0.388575,,,,,,,,,,,,,,,,,,,,,,,,,,,,,,,,,,,,,,,,,,,,,,
,,,,,,,,,,,,,,,,,,,,,,,,20,Female,2020-11-24_10h39.17.468,torte-2b,2020.1.3,MacIntel,60,13334,,,,,,,,,,,,,0,33,33,33,1,1,,,,,,,,,,,,,,,,,,,,,,,,,,,,,,,,,,,,,,,,,,,,,,,
,,,,,,,,,,,,,,,,,,,,,,,,20,Female,2020-11-24_10h39.17.468,torte-2b,2020.1.3,MacIntel,60,13334,,,,,,,,,,,,,0,34,34,34,1,1,,,,,,,,,,,,,,,,,,,,,,,,,,,,,,,,,,,,,,,,,,,,,,,
,,,,,,,,,,,,,,,,,,,,,,,,20,Female,2020-11-24_10h39.17.468,torte-2b,2020.1.3,MacIntel,60,13334,,,,,,,,,,,,,,,,,,2,,0,0,0,0,1,,,,,,,,,,,,,,,,,,,,,,,,,,,,,,,,,,,,,,,,,
,,,,,,,,,,,,,,,,,,,,,,,,20,Female,2020-11-24_10h39.17.468,torte-2b,2020.1.3,MacIntel,60,13334,,,,,,,,,,,,,,,,,,2,,0,1,1,1,1,,,,,,,,,,,,,,,,,,,,,,,,,,,,,,,,,,,,,,,,,
,,,,,,,,,,,,,,,,,,,,,,,,20,Female,2020-11-24_10h39.17.468,torte-2b,2020.1.3,MacIntel,60,13334,,,,,,,,,,,,,,,,,,6,,0,2,2,2,1,,,,,,,,,,,,,,,,,,,,,,,,,,,,,,,,,,,,,,,,,
,,,,,,,,,,,,,,,,,,,,,,,,20,Female,2020-11-24_10h39.17.468,torte-2b,2020.1.3,MacIntel,60,13334,,,,,,,,,,,,space,,,,,,2,0.376285,0,3,3,3,1,,,,,,,,,,,,,,,,,,,,,,,,,,,,,,,,,,,,,,,,,
,,,,,,,,,,,,,,,,,,,,,,,,20,Female,2020-11-24_10h39.17.468,torte-2b,2020.1.3,MacIntel,60,13334,,,,,,,,,,,,space,,,,,,6,0.408985,0,4,4,4,1,,,,,,,,,,,,,,,,,,,,,,,,,,,,,,,,,,,,,,,,,
,,,,,,,,,,,,,,,,,,,,,,,,20,Female,2020-11-24_10h39.17.468,torte-2b,2020.1.3,MacIntel,60,13334,,,,,,,,,,,,space,,,,,,2,0.42891,0,5,5,5,1,,,,,,,,,,,,,,,,,,,,,,,,,,,,,,,,,,,,,,,,,
,,,,,,,,,,,,,,,,,,,,,,,,20,Female,2020-11-24_10h39.17.468,torte-2b,2020.1.3,MacIntel,60,13334,,,,,,,,,,,,,,,,,,7,,0,6,6,6,1,,,,,,,,,,,,,,,,,,,,,,,,,,,,,,,,,,,,,,,,,
,,,,,,,,,,,,,,,,,,,,,,,,20,Female,2020-11-24_10h39.17.468,torte-2b,2020.1.3,MacIntel,60,13334,,,,,,,,,,,,space,,,,,,2,0.48897,0,7,7,7,1,,,,,,,,,,,,,,,,,,,,,,,,,,,,,,,,,,,,,,,,,
,,,,,,,,,,,,,,,,,,,,,,,,20,Female,2020-11-24_10h39.17.468,torte-2b,2020.1.3,MacIntel,60,13334,,,,,,,,,,,,space,,,,,,7,0.360685,0,8,8,8,1,,,,,,,,,,,,,,,,,,,,,,,,,,,,,,,,,,,,,,,,,
,,,,,,,,,,,,,,,,,,,,,,,,20,Female,2020-11-24_10h39.17.468,torte-2b,2020.1.3,MacIntel,60,13334,,,,,,,,,,,,space,,,,,,2,0.35709,0,9,9,9,1,,,,,,,,,,,,,,,,,,,,,,,,,,,,,,,,,,,,,,,,,
,,,,,,,,,,,,,,,,,,,,,,,,20,Female,2020-11-24_10h39.17.468,torte-2b,2020.1.3,MacIntel,60,13334,,,,,,,,,,,,,,,,,,5,,0,10,10,10,1,,,,,,,,,,,,,,,,,,,,,,,,,,,,,,,,,,,,,,,,,
,,,,,,,,,,,,,,,,,,,,,,,,20,Female,2020-11-24_10h39.17.468,torte-2b,2020.1.3,MacIntel,60,13334,,,,,,,,,,,,space,,,,,,4,0.37593,0,11,11,11,1,,,,,,,,,,,,,,,,,,,,,,,,,,,,,,,,,,,,,,,,,
,,,,,,,,,,,,,,,,,,,,,,,,20,Female,2020-11-24_10h39.17.468,torte-2b,2020.1.3,MacIntel,60,13334,,,,,,,,,,,,space,,,,,,5,0.355595,0,12,12,12,1,,,,,,,,,,,,,,,,,,,,,,,,,,,,,,,,,,,,,,,,,
,,,,,,,,,,,,,,,,,,,,,,,,20,Female,2020-11-24_10h39.17.468,torte-2b,2020.1.3,MacIntel,60,13334,,,,,,,,,,,,,,,,,,6,,0,13,13,13,1,,,,,,,,,,,,,,,,,,,,,,,,,,,,,,,,,,,,,,,,,
,,,,,,,,,,,,,,,,,,,,,,,,20,Female,2020-11-24_10h39.17.468,torte-2b,2020.1.3,MacIntel,60,13334,,,,,,,,,,,,,,,,,,5,,0,14,14,14,1,,,,,,,,,,,,,,,,,,,,,,,,,,,,,,,,,,,,,,,,,
,,,,,,,,,,,,,,,,,,,,,,,,20,Female,2020-11-24_10h39.17.468,torte-2b,2020.1.3,MacIntel,60,13334,,,,,,,,,,,,,,,,,,4,,0,15,15,15,1,,,,,,,,,,,,,,,,,,,,,,,,,,,,,,,,,,,,,,,,,
,,,,,,,,,,,,,,,,,,,,,,,,20,Female,2020-11-24_10h39.17.468,torte-2b,2020.1.3,MacIntel,60,13334,,,,,,,,,,,,space,,,,,,5,0.391035,0,16,16,16,1,,,,,,,,,,,,,,,,,,,,,,,,,,,,,,,,,,,,,,,,,
,,,,,,,,,,,,,,,,,,,,,,,,20,Female,2020-11-24_10h39.17.468,torte-2b,2020.1.3,MacIntel,60,13334,,,,,,,,,,,,,,,,,,3,,0,17,17,17,1,,,,,,,,,,,,,,,,,,,,,,,,,,,,,,,,,,,,,,,,,
,,,,,,,,,,,,,,,,,,,,,,,,20,Female,2020-11-24_10h39.17.468,torte-2b,2020.1.3,MacIntel,60,13334,,,,,,,,,,,,,,,,,,6,,0,18,18,18,1,,,,,,,,,,,,,,,,,,,,,,,,,,,,,,,,,,,,,,,,,
,,,,,,,,,,,,,,,,,,,,,,,,20,Female,2020-11-24_10h39.17.468,torte-2b,2020.1.3,MacIntel,60,13334,,,,,,,,,,,,,,,,,,6,,0,19,19,19,1,,,,,,,,,,,,,,,,,,,,,,,,,,,,,,,,,,,,,,,,,
,,,,,,,,,,,,,,,,,,,,,,,,20,Female,2020-11-24_10h39.17.468,torte-2b,2020.1.3,MacIntel,60,13334,,,,,,,,,,,,space,,,,,,6,0.3914,0,20,20,20,1,,,,,,,,,,,,,,,,,,,,,,,,,,,,,,,,,,,,,,,,,
,,,,,,,,,,,,,,,,,,,,,,,,20,Female,2020-11-24_10h39.17.468,torte-2b,2020.1.3,MacIntel,60,13334,,,,,,,,,,,,,,,,,,4,,0,21,21,21,1,,,,,,,,,,,,,,,,,,,,,,,,,,,,,,,,,,,,,,,,,
,,,,,,,,,,,,,,,,,,,,,,,,20,Female,2020-11-24_10h39.17.468,torte-2b,2020.1.3,MacIntel,60,13334,,,,,,,,,,,,space,,,,,,6,0.46596,0,22,22,22,1,,,,,,,,,,,,,,,,,,,,,,,,,,,,,,,,,,,,,,,,,
,,,,,,,,,,,,,,,,,,,,,,,,20,Female,2020-11-24_10h39.17.468,torte-2b,2020.1.3,MacIntel,60,13334,,,,,,,,,,,,space,,,,,,4,0.411505,0,23,23,23,1,,,,,,,,,,,,,,,,,,,,,,,,,,,,,,,,,,,,,,,,,
,,,,,,,,,,,,,,,,,,,,,,,,20,Female,2020-11-24_10h39.17.468,torte-2b,2020.1.3,MacIntel,60,13334,,,,,,,,,,,,space,,,,,,6,0.40938,0,24,24,24,1,,,,,,,,,,,,,,,,,,,,,,,,,,,,,,,,,,,,,,,,,
,,,,,,,,,,,,,,,,,,,,,,,,20,Female,2020-11-24_10h39.17.468,torte-2b,2020.1.3,MacIntel,60,13334,,,,,,,,,,,,space,,,,,,6,0.50765,0,25,25,25,1,,,,,,,,,,,,,,,,,,,,,,,,,,,,,,,,,,,,,,,,,
,,,,,,,,,,,,,,,,,,,,,,,,20,Female,2020-11-24_10h39.17.468,torte-2b,2020.1.3,MacIntel,60,13334,,,,,,,,,,,,,,,,,,7,,0,26,26,26,1,,,,,,,,,,,,,,,,,,,,,,,,,,,,,,,,,,,,,,,,,
,,,,,,,,,,,,,,,,,,,,,,,,20,Female,2020-11-24_10h39.17.468,torte-2b,2020.1.3,MacIntel,60,13334,,,,,,,,,,,,,,,,,,1,,0,27,27,27,1,,,,,,,,,,,,,,,,,,,,,,,,,,,,,,,,,,,,,,,,,
,,,,,,,,,,,,,,,,,,,,,,,,20,Female,2020-11-24_10h39.17.468,torte-2b,2020.1.3,MacIntel,60,13334,,,,,,,,,,,,space,,,,,,7,0.32291,0,28,28,28,1,,,,,,,,,,,,,,,,,,,,,,,,,,,,,,,,,,,,,,,,,
,,,,,,,,,,,,,,,,,,,,,,,,20,Female,2020-11-24_10h39.17.468,torte-2b,2020.1.3,MacIntel,60,13334,,,,,,,,,,,,,,,,,,4,,0,29,29,29,1,,,,,,,,,,,,,,,,,,,,,,,,,,,,,,,,,,,,,,,,,
,,,,,,,,,,,,,,,,,,,,,,,,20,Female,2020-11-24_10h39.17.468,torte-2b,2020.1.3,MacIntel,60,13334,,,,,,,,,,,,space,,,,,,7,0.39285,0,30,30,30,1,,,,,,,,,,,,,,,,,,,,,,,,,,,,,,,,,,,,,,,,,
,,,,,,,,,,,,,,,,,,,,,,,,20,Female,2020-11-24_10h39.17.468,torte-2b,2020.1.3,MacIntel,60,13334,,,,,,,,,,,,,,,,,,3,,0,31,31,31,1,,,,,,,,,,,,,,,,,,,,,,,,,,,,,,,,,,,,,,,,,
,,,,,,,,,,,,,,,,,,,,,,,,20,Female,2020-11-24_10h39.17.468,torte-2b,2020.1.3,MacIntel,60,13334,,,,,,,,,,,,,,,,,,2,,0,32,32,32,1,,,,,,,,,,,,,,,,,,,,,,,,,,,,,,,,,,,,,,,,,
,,,,,,,,,,,,,,,,,,,,,,,,20,Female,2020-11-24_10h39.17.468,torte-2b,2020.1.3,MacIntel,60,13334,,,,,,,,,,,,,,,,,,6,,0,33,33,33,1,,,,,,,,,,,,,,,,,,,,,,,,,,,,,,,,,,,,,,,,,
,,,,,,,,,,,,,,,,,,,,,,,,20,Female,2020-11-24_10h39.17.468,torte-2b,2020.1.3,MacIntel,60,13334,,,,,,,,,,,,,,,,,,3,,0,34,34,34,1,,,,,,,,,,,,,,,,,,,,,,,,,,,,,,,,,,,,,,,,,
,,,,,,,,,,,,,,,,,,,,,,,,20,Female,2020-11-24_10h39.17.468,torte-2b,2020.1.3,MacIntel,60,13334,,,,,,,,,,,,,,,,,,7,,,,,,,0,0,0,0,1,,,,,,,,,,,,,,,,,,,,,,,,,,,,,,,,,,,,
,,,,,,,,,,,,,,,,,,,,,,,,20,Female,2020-11-24_10h39.17.468,torte-2b,2020.1.3,MacIntel,60,13334,,,,,,,,,,,,,,,,,,5,,,,,,,0,1,1,1,1,,,,,,,,,,,,,,,,,,,,,,,,,,,,,,,,,,,,
,,,,,,,,,,,,,,,,,,,,,,,,20,Female,2020-11-24_10h39.17.468,torte-2b,2020.1.3,MacIntel,60,13334,,,,,,,,,,,,,,,,,,4,,,,,,,0,2,2,2,1,,,,,,,,,,,,,,,,,,,,,,,,,,,,,,,,,,,,
,,,,,,,,,,,,,,,,,,,,,,,,20,Female,2020-11-24_10h39.17.468,torte-2b,2020.1.3,MacIntel,60,13334,,,,,,,,,,,,space,,,,,,5,0.40355,,,,,,0,3,3,3,1,,,,,,,,,,,,,,,,,,,,,,,,,,,,,,,,,,,,
,,,,,,,,,,,,,,,,,,,,,,,,20,Female,2020-11-24_10h39.17.468,torte-2b,2020.1.3,MacIntel,60,13334,,,,,,,,,,,,,,,,,,6,,,,,,,0,4,4,4,1,,,,,,,,,,,,,,,,,,,,,,,,,,,,,,,,,,,,
,,,,,,,,,,,,,,,,,,,,,,,,20,Female,2020-11-24_10h39.17.468,torte-2b,2020.1.3,MacIntel,60,13334,,,,,,,,,,,,space,,,,,,5,0.504605,,,,,,0,5,5,5,1,,,,,,,,,,,,,,,,,,,,,,,,,,,,,,,,,,,,
,,,,,,,,,,,,,,,,,,,,,,,,20,Female,2020-11-24_10h39.17.468,torte-2b,2020.1.3,MacIntel,60,13334,,,,,,,,,,,,,,,,,,3,,,,,,,0,6,6,6,1,,,,,,,,,,,,,,,,,,,,,,,,,,,,,,,,,,,,
,,,,,,,,,,,,,,,,,,,,,,,,20,Female,2020-11-24_10h39.17.468,torte-2b,2020.1.3,MacIntel,60,13334,,,,,,,,,,,,,,,,,,4,,,,,,,0,7,7,7,1,,,,,,,,,,,,,,,,,,,,,,,,,,,,,,,,,,,,
,,,,,,,,,,,,,,,,,,,,,,,,20,Female,2020-11-24_10h39.17.468,torte-2b,2020.1.3,MacIntel,60,13334,,,,,,,,,,,,space,,,,,,3,0.424995,,,,,,0,8,8,8,1,,,,,,,,,,,,,,,,,,,,,,,,,,,,,,,,,,,,
,,,,,,,,,,,,,,,,,,,,,,,,20,Female,2020-11-24_10h39.17.468,torte-2b,2020.1.3,MacIntel,60,13334,,,,,,,,,,,,,,,,,,1,,,,,,,0,9,9,9,1,,,,,,,,,,,,,,,,,,,,,,,,,,,,,,,,,,,,
,,,,,,,,,,,,,,,,,,,,,,,,20,Female,2020-11-24_10h39.17.468,torte-2b,2020.1.3,MacIntel,60,13334,,,,,,,,,,,,,,,,,,2,,,,,,,0,10,10,10,1,,,,,,,,,,,,,,,,,,,,,,,,,,,,,,,,,,,,
,,,,,,,,,,,,,,,,,,,,,,,,20,Female,2020-11-24_10h39.17.468,torte-2b,2020.1.3,MacIntel,60,13334,,,,,,,,,,,,space,,,,,,1,0.380085,,,,,,0,11,11,11,1,,,,,,,,,,,,,,,,,,,,,,,,,,,,,,,,,,,,
,,,,,,,,,,,,,,,,,,,,,,,,20,Female,2020-11-24_10h39.17.468,torte-2b,2020.1.3,MacIntel,60,13334,,,,,,,,,,,,space,,,,,,2,0.37174,,,,,,0,12,12,12,1,,,,,,,,,,,,,,,,,,,,,,,,,,,,,,,,,,,,
,,,,,,,,,,,,,,,,,,,,,,,,20,Female,2020-11-24_10h39.17.468,torte-2b,2020.1.3,MacIntel,60,13334,,,,,,,,,,,,space,,,,,,1,0.391415,,,,,,0,13,13,13,1,,,,,,,,,,,,,,,,,,,,,,,,,,,,,,,,,,,,
,,,,,,,,,,,,,,,,,,,,,,,,20,Female,2020-11-24_10h39.17.468,torte-2b,2020.1.3,MacIntel,60,13334,,,,,,,,,,,,,,,,,,3,,,,,,,0,14,14,14,1,,,,,,,,,,,,,,,,,,,,,,,,,,,,,,,,,,,,
,,,,,,,,,,,,,,,,,,,,,,,,20,Female,2020-11-24_10h39.17.468,torte-2b,2020.1.3,MacIntel,60,13334,,,,,,,,,,,,space,,,,,,1,0.59783,,,,,,0,15,15,15,1,,,,,,,,,,,,,,,,,,,,,,,,,,,,,,,,,,,,
,,,,,,,,,,,,,,,,,,,,,,,,20,Female,2020-11-24_10h39.17.468,torte-2b,2020.1.3,MacIntel,60,13334,,,,,,,,,,,,space,,,,,,7,0.32528,,,,,,0,16,16,16,1,,,,,,,,,,,,,,,,,,,,,,,,,,,,,,,,,,,,
,,,,,,,,,,,,,,,,,,,,,,,,20,Female,2020-11-24_10h39.17.468,torte-2b,2020.1.3,MacIntel,60,13334,,,,,,,,,,,,,,,,,,7,,,,,,,0,17,17,17,1,,,,,,,,,,,,,,,,,,,,,,,,,,,,,,,,,,,,
,,,,,,,,,,,,,,,,,,,,,,,,20,Female,2020-11-24_10h39.17.468,torte-2b,2020.1.3,MacIntel,60,13334,,,,,,,,,,,,,,,,,,4,,,,,,,0,18,18,18,1,,,,,,,,,,,,,,,,,,,,,,,,,,,,,,,,,,,,
,,,,,,,,,,,,,,,,,,,,,,,,20,Female,2020-11-24_10h39.17.468,torte-2b,2020.1.3,MacIntel,60,13334,,,,,,,,,,,,space,,,,,,7,0.40877,,,,,,0,19,19,19,1,,,,,,,,,,,,,,,,,,,,,,,,,,,,,,,,,,,,
,,,,,,,,,,,,,,,,,,,,,,,,20,Female,2020-11-24_10h39.17.468,torte-2b,2020.1.3,MacIntel,60,13334,,,,,,,,,,,,,,,,,,3,,,,,,,0,20,20,20,1,,,,,,,,,,,,,,,,,,,,,,,,,,,,,,,,,,,,
,,,,,,,,,,,,,,,,,,,,,,,,20,Female,2020-11-24_10h39.17.468,torte-2b,2020.1.3,MacIntel,60,13334,,,,,,,,,,,,space,,,,,,7,0.399965,,,,,,0,21,21,21,1,,,,,,,,,,,,,,,,,,,,,,,,,,,,,,,,,,,,
,,,,,,,,,,,,,,,,,,,,,,,,20,Female,2020-11-24_10h39.17.468,torte-2b,2020.1.3,MacIntel,60,13334,,,,,,,,,,,,space,,,,,,3,0.411425,,,,,,0,22,22,22,1,,,,,,,,,,,,,,,,,,,,,,,,,,,,,,,,,,,,
,,,,,,,,,,,,,,,,,,,,,,,,20,Female,2020-11-24_10h39.17.468,torte-2b,2020.1.3,MacIntel,60,13334,,,,,,,,,,,,,,,,,,1,,,,,,,0,23,23,23,1,,,,,,,,,,,,,,,,,,,,,,,,,,,,,,,,,,,,
,,,,,,,,,,,,,,,,,,,,,,,,20,Female,2020-11-24_10h39.17.468,torte-2b,2020.1.3,MacIntel,60,13334,,,,,,,,,,,,,,,,,,6,,,,,,,0,24,24,24,1,,,,,,,,,,,,,,,,,,,,,,,,,,,,,,,,,,,,
,,,,,,,,,,,,,,,,,,,,,,,,20,Female,2020-11-24_10h39.17.468,torte-2b,2020.1.3,MacIntel,60,13334,,,,,,,,,,,,,,,,,,3,,,,,,,0,25,25,25,1,,,,,,,,,,,,,,,,,,,,,,,,,,,,,,,,,,,,
,,,,,,,,,,,,,,,,,,,,,,,,20,Female,2020-11-24_10h39.17.468,torte-2b,2020.1.3,MacIntel,60,13334,,,,,,,,,,,,,,,,,,2,,,,,,,0,26,26,26,1,,,,,,,,,,,,,,,,,,,,,,,,,,,,,,,,,,,,
,,,,,,,,,,,,,,,,,,,,,,,,20,Female,2020-11-24_10h39.17.468,torte-2b,2020.1.3,MacIntel,60,13334,,,,,,,,,,,,space,,,,,,3,0.380135,,,,,,0,27,27,27,1,,,,,,,,,,,,,,,,,,,,,,,,,,,,,,,,,,,,
,,,,,,,,,,,,,,,,,,,,,,,,20,Female,2020-11-24_10h39.17.468,torte-2b,2020.1.3,MacIntel,60,13334,,,,,,,,,,,,,,,,,,1,,,,,,,0,28,28,28,1,,,,,,,,,,,,,,,,,,,,,,,,,,,,,,,,,,,,
,,,,,,,,,,,,,,,,,,,,,,,,20,Female,2020-11-24_10h39.17.468,torte-2b,2020.1.3,MacIntel,60,13334,,,,,,,,,,,,space,,,,,,3,0.640995,,,,,,0,29,29,29,1,,,,,,,,,,,,,,,,,,,,,,,,,,,,,,,,,,,,
,,,,,,,,,,,,,,,,,,,,,,,,20,Female,2020-11-24_10h39.17.468,torte-2b,2020.1.3,MacIntel,60,13334,,,,,,,,,,,,space,,,,,,1,0.312295,,,,,,0,30,30,30,1,,,,,,,,,,,,,,,,,,,,,,,,,,,,,,,,,,,,
,,,,,,,,,,,,,,,,,,,,,,,,20,Female,2020-11-24_10h39.17.468,torte-2b,2020.1.3,MacIntel,60,13334,,,,,,,,,,,,,,,,,,7,,,,,,,0,31,31,31,1,,,,,,,,,,,,,,,,,,,,,,,,,,,,,,,,,,,,
,,,,,,,,,,,,,,,,,,,,,,,,20,Female,2020-11-24_10h39.17.468,torte-2b,2020.1.3,MacIntel,60,13334,,,,,,,,,,,,,,,,,,5,,,,,,,0,32,32,32,1,,,,,,,,,,,,,,,,,,,,,,,,,,,,,,,,,,,,
,,,,,,,,,,,,,,,,,,,,,,,,20,Female,2020-11-24_10h39.17.468,torte-2b,2020.1.3,MacIntel,60,13334,,,,,,,,,,,,space,,,,,,7,0.469055,,,,,,0,33,33,33,1,,,,,,,,,,,,,,,,,,,,,,,,,,,,,,,,,,,,
,,,,,,,,,,,,,,,,,,,,,,,,20,Female,2020-11-24_10h39.17.468,torte-2b,2020.1.3,MacIntel,60,13334,,,,,,,,,,,,,,,,,,2,,,,,,,0,34,34,34,1,,,,,,,,,,,,,,,,,,,,,,,,,,,,,,,,,,,,
,,,,,,,,,,,,,,,,,,,,,,,,20,Female,2020-11-24_10h39.17.468,torte-2b,2020.1.3,MacIntel,60,13334,,,,,,,,,,,,,,,,,,3,,,,,,,,,,,,0,0,0,0,1,,,,,,,,,,,,,,,,,,,,,,,,,,,,,,,
,,,,,,,,,,,,,,,,,,,,,,,,20,Female,2020-11-24_10h39.17.468,torte-2b,2020.1.3,MacIntel,60,13334,,,,,,,,,,,,,,,,,,7,,,,,,,,,,,,0,1,1,1,1,,,,,,,,,,,,,,,,,,,,,,,,,,,,,,,
,,,,,,,,,,,,,,,,,,,,,,,,20,Female,2020-11-24_10h39.17.468,torte-2b,2020.1.3,MacIntel,60,13334,,,,,,,,,,,,space,,,,,,7,0.422315,,,,,,,,,,,0,2,2,2,1,,,,,,,,,,,,,,,,,,,,,,,,,,,,,,,
,,,,,,,,,,,,,,,,,,,,,,,,20,Female,2020-11-24_10h39.17.468,torte-2b,2020.1.3,MacIntel,60,13334,,,,,,,,,,,,,,,,,,4,,,,,,,,,,,,0,3,3,3,1,,,,,,,,,,,,,,,,,,,,,,,,,,,,,,,
,,,,,,,,,,,,,,,,,,,,,,,,20,Female,2020-11-24_10h39.17.468,torte-2b,2020.1.3,MacIntel,60,13334,,,,,,,,,,,,,,,,,,5,,,,,,,,,,,,0,4,4,4,1,,,,,,,,,,,,,,,,,,,,,,,,,,,,,,,
,,,,,,,,,,,,,,,,,,,,,,,,20,Female,2020-11-24_10h39.17.468,torte-2b,2020.1.3,MacIntel,60,13334,,,,,,,,,,,,space,,,,,,4,0.49341,,,,,,,,,,,0,5,5,5,1,,,,,,,,,,,,,,,,,,,,,,,,,,,,,,,
,,,,,,,,,,,,,,,,,,,,,,,,20,Female,2020-11-24_10h39.17.468,torte-2b,2020.1.3,MacIntel,60,13334,,,,,,,,,,,,,,,,,,2,,,,,,,,,,,,0,6,6,6,1,,,,,,,,,,,,,,,,,,,,,,,,,,,,,,,
,,,,,,,,,,,,,,,,,,,,,,,,20,Female,2020-11-24_10h39.17.468,torte-2b,2020.1.3,MacIntel,60,13334,,,,,,,,,,,,space,,,,,,4,0.823165,,,,,,,,,,,0,7,7,7,1,,,,,,,,,,,,,,,,,,,,,,,,,,,,,,,
,,,,,,,,,,,,,,,,,,,,,,,,20,Female,2020-11-24_10h39.17.468,torte-2b,2020.1.3,MacIntel,60,13334,,,,,,,,,,,,space,,,,,,2,0.443325,,,,,,,,,,,0,8,8,8,1,,,,,,,,,,,,,,,,,,,,,,,,,,,,,,,
,,,,,,,,,,,,,,,,,,,,,,,,20,Female,2020-11-24_10h39.17.468,torte-2b,2020.1.3,MacIntel,60,13334,,,,,,,,,,,,,,,,,,2,,,,,,,,,,,,0,9,9,9,1,,,,,,,,,,,,,,,,,,,,,,,,,,,,,,,
,,,,,,,,,,,,,,,,,,,,,,,,20,Female,2020-11-24_10h39.17.468,torte-2b,2020.1.3,MacIntel,60,13334,,,,,,,,,,,,,,,,,,6,,,,,,,,,,,,0,10,10,10,1,,,,,,,,,,,,,,,,,,,,,,,,,,,,,,,
,,,,,,,,,,,,,,,,,,,,,,,,20,Female,2020-11-24_10h39.17.468,torte-2b,2020.1.3,MacIntel,60,13334,,,,,,,,,,,,space,,,,,,2,0.424205,,,,,,,,,,,0,11,11,11,1,,,,,,,,,,,,,,,,,,,,,,,,,,,,,,,
,,,,,,,,,,,,,,,,,,,,,,,,20,Female,2020-11-24_10h39.17.468,torte-2b,2020.1.3,MacIntel,60,13334,,,,,,,,,,,,,,,,,,2,,,,,,,,,,,,0,12,12,12,1,,,,,,,,,,,,,,,,,,,,,,,,,,,,,,,
,,,,,,,,,,,,,,,,,,,,,,,,20,Female,2020-11-24_10h39.17.468,torte-2b,2020.1.3,MacIntel,60,13334,,,,,,,,,,,,space,,,,,,2,0.43478,,,,,,,,,,,0,13,13,13,1,,,,,,,,,,,,,,,,,,,,,,,,,,,,,,,
,,,,,,,,,,,,,,,,,,,,,,,,20,Female,2020-11-24_10h39.17.468,torte-2b,2020.1.3,MacIntel,60,13334,,,,,,,,,,,,space,,,,,,2,0.38547,,,,,,,,,,,0,14,14,14,1,,,,,,,,,,,,,,,,,,,,,,,,,,,,,,,
,,,,,,,,,,,,,,,,,,,,,,,,20,Female,2020-11-24_10h39.17.468,torte-2b,2020.1.3,MacIntel,60,13334,,,,,,,,,,,,,,,,,,4,,,,,,,,,,,,0,15,15,15,1,,,,,,,,,,,,,,,,,,,,,,,,,,,,,,,
,,,,,,,,,,,,,,,,,,,,,,,,20,Female,2020-11-24_10h39.17.468,torte-2b,2020.1.3,MacIntel,60,13334,,,,,,,,,,,,,,,,,,3,,,,,,,,,,,,0,16,16,16,1,,,,,,,,,,,,,,,,,,,,,,,,,,,,,,,
,,,,,,,,,,,,,,,,,,,,,,,,20,Female,2020-11-24_10h39.17.468,torte-2b,2020.1.3,MacIntel,60,13334,,,,,,,,,,,,,,,,,,7,,,,,,,,,,,,0,17,17,17,1,,,,,,,,,,,,,,,,,,,,,,,,,,,,,,,
,,,,,,,,,,,,,,,,,,,,,,,,20,Female,2020-11-24_10h39.17.468,torte-2b,2020.1.3,MacIntel,60,13334,,,,,,,,,,,,,,,,,,4,,,,,,,,,,,,0,18,18,18,1,,,,,,,,,,,,,,,,,,,,,,,,,,,,,,,
,,,,,,,,,,,,,,,,,,,,,,,,20,Female,2020-11-24_10h39.17.468,torte-2b,2020.1.3,MacIntel,60,13334,,,,,,,,,,,,space,,,,,,7,0.384,,,,,,,,,,,0,19,19,19,1,,,,,,,,,,,,,,,,,,,,,,,,,,,,,,,
,,,,,,,,,,,,,,,,,,,,,,,,20,Female,2020-11-24_10h39.17.468,torte-2b,2020.1.3,MacIntel,60,13334,,,,,,,,,,,,,,,,,,7,,,,,,,,,,,,0,20,20,20,1,,,,,,,,,,,,,,,,,,,,,,,,,,,,,,,
,,,,,,,,,,,,,,,,,,,,,,,,20,Female,2020-11-24_10h39.17.468,torte-2b,2020.1.3,MacIntel,60,13334,,,,,,,,,,,,space,,,,,,7,0.375735,,,,,,,,,,,0,21,21,21,1,,,,,,,,,,,,,,,,,,,,,,,,,,,,,,,
,,,,,,,,,,,,,,,,,,,,,,,,20,Female,2020-11-24_10h39.17.468,torte-2b,2020.1.3,MacIntel,60,13334,,,,,,,,,,,,space,,,,,,7,0.409595,,,,,,,,,,,0,22,22,22,1,,,,,,,,,,,,,,,,,,,,,,,,,,,,,,,
,,,,,,,,,,,,,,,,,,,,,,,,20,Female,2020-11-24_10h39.17.468,torte-2b,2020.1.3,MacIntel,60,13334,,,,,,,,,,,,,,,,,,1,,,,,,,,,,,,0,23,23,23,1,,,,,,,,,,,,,,,,,,,,,,,,,,,,,,,
,,,,,,,,,,,,,,,,,,,,,,,,20,Female,2020-11-24_10h39.17.468,torte-2b,2020.1.3,MacIntel,60,13334,,,,,,,,,,,,space,,,,,,7,0.409105,,,,,,,,,,,0,24,24,24,1,,,,,,,,,,,,,,,,,,,,,,,,,,,,,,,
,,,,,,,,,,,,,,,,,,,,,,,,20,Female,2020-11-24_10h39.17.468,torte-2b,2020.1.3,MacIntel,60,13334,,,,,,,,,,,,space,,,,,,1,0.37356,,,,,,,,,,,0,25,25,25,1,,,,,,,,,,,,,,,,,,,,,,,,,,,,,,,
,,,,,,,,,,,,,,,,,,,,,,,,20,Female,2020-11-24_10h39.17.468,torte-2b,2020.1.3,MacIntel,60,13334,,,,,,,,,,,,space,,,,,,7,0.4286,,,,,,,,,,,0,26,26,26,1,,,,,,,,,,,,,,,,,,,,,,,,,,,,,,,
,,,,,,,,,,,,,,,,,,,,,,,,20,Female,2020-11-24_10h39.17.468,torte-2b,2020.1.3,MacIntel,60,13334,,,,,,,,,,,,,,,,,,2,,,,,,,,,,,,0,27,27,27,1,,,,,,,,,,,,,,,,,,,,,,,,,,,,,,,
,,,,,,,,,,,,,,,,,,,,,,,,20,Female,2020-11-24_10h39.17.468,torte-2b,2020.1.3,MacIntel,60,13334,,,,,,,,,,,,,,,,,,5,,,,,,,,,,,,0,28,28,28,1,,,,,,,,,,,,,,,,,,,,,,,,,,,,,,,
,,,,,,,,,,,,,,,,,,,,,,,,20,Female,2020-11-24_10h39.17.468,torte-2b,2020.1.3,MacIntel,60,13334,,,,,,,,,,,,,,,,,,5,,,,,,,,,,,,0,29,29,29,1,,,,,,,,,,,,,,,,,,,,,,,,,,,,,,,
,,,,,,,,,,,,,,,,,,,,,,,,20,Female,2020-11-24_10h39.17.468,torte-2b,2020.1.3,MacIntel,60,13334,,,,,,,,,,,,space,,,,,,5,0.41173,,,,,,,,,,,0,30,30,30,1,,,,,,,,,,,,,,,,,,,,,,,,,,,,,,,
,,,,,,,,,,,,,,,,,,,,,,,,20,Female,2020-11-24_10h39.17.468,torte-2b,2020.1.3,MacIntel,60,13334,,,,,,,,,,,,,,,,,,1,,,,,,,,,,,,0,31,31,31,1,,,,,,,,,,,,,,,,,,,,,,,,,,,,,,,
,,,,,,,,,,,,,,,,,,,,,,,,20,Female,2020-11-24_10h39.17.468,torte-2b,2020.1.3,MacIntel,60,13334,,,,,,,,,,,,space,,,,,,5,0.39866,,,,,,,,,,,0,32,32,32,1,,,,,,,,,,,,,,,,,,,,,,,,,,,,,,,
,,,,,,,,,,,,,,,,,,,,,,,,20,Female,2020-11-24_10h39.17.468,torte-2b,2020.1.3,MacIntel,60,13334,,,,,,,,,,,,,,,,,,3,,,,,,,,,,,,0,33,33,33,1,,,,,,,,,,,,,,,,,,,,,,,,,,,,,,,
,,,,,,,,,,,,,,,,,,,,,,,,20,Female,2020-11-24_10h39.17.468,torte-2b,2020.1.3,MacIntel,60,13334,,,,,,,,,,,,,,,,,,3,,,,,,,,,,,,0,34,34,34,1,,,,,,,,,,,,,,,,,,,,,,,,,,,,,,,
,,,,,,,,,,,,a,0.96335,Incorrect,,,,,,t2.png,t4.png,2,0.059078,20,Female,2020-11-24_10h39.17.468,torte-2b,2020.1.3,MacIntel,60,13334,space,0.878245,,,,,,,,,,,,,,,,,,,,,,,,,,,,,,,,,space,2.82672,0,0,0,37,1,,,,,,,,,,,,,,,,,,,,,,,,
,,,,,,,,,,,,a,0.6856,Incorrect,,,,,,t4.png,t2.png,2,0.0591,20,Female,2020-11-24_10h39.17.468,torte-2b,2020.1.3,MacIntel,60,13334,,,,,,,,,,,,,,,,,,,,,,,,,,,,,,,,,,,,,0,1,1,36,1,,,,,,,,,,,,,,,,,,,,,,,,
,,,,,,,,,,,,l,0.69633,Correct!,,,,,,t5.png,t2.png,3,0.0000131,20,Female,2020-11-24_10h39.17.468,torte-2b,2020.1.3,MacIntel,60,13334,,,,,,,,,,,,,,,,,,,,,,,,,,,,,,,,,,,,,0,2,2,116,1,,,,,,,,,,,,,,,,,,,,,,,,
,,,,,,,,,,,,l,0.58617,Incorrect,,,,,,t3.png,t5.png,2,0.056466,20,Female,2020-11-24_10h39.17.468,torte-2b,2020.1.3,MacIntel,60,13334,,,,,,,,,,,,,,,,,,,,,,,,,,,,,,,,,,,,,0,3,3,14,1,,,,,,,,,,,,,,,,,,,,,,,,
,,,,,,,,,,,,a,0.556875,Correct!,,,,,,t4.png,t3.png,1,0.90855,20,Female,2020-11-24_10h39.17.468,torte-2b,2020.1.3,MacIntel,60,13334,,,,,,,,,,,,,,,,,,,,,,,,,,,,,,,,,,,,,0,4,4,75,1,,,,,,,,,,,,,,,,,,,,,,,,
,,,,,,,,,,,,l,0.62079,Correct!,,,,,,t3.png,t5.png,2,0.0565,20,Female,2020-11-24_10h39.17.468,torte-2b,2020.1.3,MacIntel,60,13334,,,,,,,,,,,,,,,,,,,,,,,,,,,,,,,,,,,,,0,5,5,83,1,,,,,,,,,,,,,,,,,,,,,,,,
,,,,,,,,,,,,a,0.69309,Correct!,,,,,,t5.png,t5.png,0,0.978,20,Female,2020-11-24_10h39.17.468,torte-2b,2020.1.3,MacIntel,60,13334,,,,,,,,,,,,,,,,,,,,,,,,,,,,,,,,,,,,,0,6,6,117,1,,,,,,,,,,,,,,,,,,,,,,,,
,,,,,,,,,,,,a,0.911155,Correct!,,,,,,t1.png,t1.png,0,0.97829,20,Female,2020-11-24_10h39.17.468,torte-2b,2020.1.3,MacIntel,60,13334,,,,,,,,,,,,,,,,,,,,,,,,,,,,,,,,,,,,,0,7,7,9,1,,,,,,,,,,,,,,,,,,,,,,,,
,,,,,,,,,,,,a,0.54438,Correct!,,,,,,t4.png,t5.png,1,0.90025,20,Female,2020-11-24_10h39.17.468,torte-2b,2020.1.3,MacIntel,60,13334,,,,,,,,,,,,,,,,,,,,,,,,,,,,,,,,,,,,,0,8,8,113,1,,,,,,,,,,,,,,,,,,,,,,,,
,,,,,,,,,,,,a,0.664725,Incorrect,,,,,,t5.png,t3.png,2,0.056466,20,Female,2020-11-24_10h39.17.468,torte-2b,2020.1.3,MacIntel,60,13334,,,,,,,,,,,,,,,,,,,,,,,,,,,,,,,,,,,,,0,9,9,114,1,,,,,,,,,,,,,,,,,,,,,,,,
,,,,,,,,,,,,l,1.050965,Correct!,,,,,,t1.png,t5.png,4,9.55E-11,20,Female,2020-11-24_10h39.17.468,torte-2b,2020.1.3,MacIntel,60,13334,,,,,,,,,,,,,,,,,,,,,,,,,,,,,,,,,,,,,0,10,10,85,1,,,,,,,,,,,,,,,,,,,,,,,,
,,,,,,,,,,,,l,1.10896,Correct!,,,,,,t1.png,t3.png,2,0.056466,20,Female,2020-11-24_10h39.17.468,torte-2b,2020.1.3,MacIntel,60,13334,,,,,,,,,,,,,,,,,,,,,,,,,,,,,,,,,,,,,0,11,11,63,1,,,,,,,,,,,,,,,,,,,,,,,,
,,,,,,,,,,,,a,0.65109,Incorrect,,,,,,t5.png,t1.png,4,9.55E-11,20,Female,2020-11-24_10h39.17.468,torte-2b,2020.1.3,MacIntel,60,13334,,,,,,,,,,,,,,,,,,,,,,,,,,,,,,,,,,,,,0,12,12,102,1,,,,,,,,,,,,,,,,,,,,,,,,
,,,,,,,,,,,,a,0.64495,Incorrect,,,,,,t2.png,t5.png,3,0.0000131,20,Female,2020-11-24_10h39.17.468,torte-2b,2020.1.3,MacIntel,60,13334,,,,,,,,,,,,,,,,,,,,,,,,,,,,,,,,,,,,,0,13,13,66,1,,,,,,,,,,,,,,,,,,,,,,,,
,,,,,,,,,,,,a,0.974305,Correct!,,,,,,t4.png,t5.png,1,0.9,20,Female,2020-11-24_10h39.17.468,torte-2b,2020.1.3,MacIntel,60,13334,,,,,,,,,,,,,,,,,,,,,,,,,,,,,,,,,,,,,0,14,14,115,1,,,,,,,,,,,,,,,,,,,,,,,,
,,,,,,,,,,,,l,0.800655,Correct!,,,,,,t2.png,t5.png,3,0.0000131,20,Female,2020-11-24_10h39.17.468,torte-2b,2020.1.3,MacIntel,60,13334,,,,,,,,,,,,,,,,,,,,,,,,,,,,,,,,,,,,,0,15,15,40,1,,,,,,,,,,,,,,,,,,,,,,,,
,,,,,,,,,,,,a,1.09691,Incorrect,,,,,,t5.png,t1.png,4,9.55E-11,20,Female,2020-11-24_10h39.17.468,torte-2b,2020.1.3,MacIntel,60,13334,,,,,,,,,,,,,,,,,,,,,,,,,,,,,,,,,,,,,0,16,16,22,1,,,,,,,,,,,,,,,,,,,,,,,,
,,,,,,,,,,,,l,0.591825,Correct!,,,,,,t2.png,t4.png,2,0.059078,20,Female,2020-11-24_10h39.17.468,torte-2b,2020.1.3,MacIntel,60,13334,,,,,,,,,,,,,,,,,,,,,,,,,,,,,,,,,,,,,0,17,17,24,1,,,,,,,,,,,,,,,,,,,,,,,,
,,,,,,,,,,,,a,0.57961,Correct!,,,,,,t2.png,t1.png,1,0.90025,20,Female,2020-11-24_10h39.17.468,torte-2b,2020.1.3,MacIntel,60,13334,,,,,,,,,,,,,,,,,,,,,,,,,,,,,,,,,,,,,0,18,18,4,1,,,,,,,,,,,,,,,,,,,,,,,,
,,,,,,,,,,,,a,1.0194,Correct!,,,,,,t2.png,t1.png,1,0.9,20,Female,2020-11-24_10h39.17.468,torte-2b,2020.1.3,MacIntel,60,13334,,,,,,,,,,,,,,,,,,,,,,,,,,,,,,,,,,,,,0,19,19,118,1,,,,,,,,,,,,,,,,,,,,,,,,
,,,,,,,,,,,,a,0.922315,Correct!,,,,,,t3.png,t2.png,1,0.90855,20,Female,2020-11-24_10h39.17.468,torte-2b,2020.1.3,MacIntel,60,13334,,,,,,,,,,,,,,,,,,,,,,,,,,,,,,,,,,,,,0,20,20,97,1,,,,,,,,,,,,,,,,,,,,,,,,
,,,,,,,,,,,,a,0.66544,Correct!,,,,,,t3.png,t4.png,1,0.909,20,Female,2020-11-24_10h39.17.468,torte-2b,2020.1.3,MacIntel,60,13334,,,,,,,,,,,,,,,,,,,,,,,,,,,,,,,,,,,,,0,21,21,82,1,,,,,,,,,,,,,,,,,,,,,,,,
,,,,,,,,,,,,a,0.7426,Correct!,,,,,,t3.png,t2.png,1,0.90855,20,Female,2020-11-24_10h39.17.468,torte-2b,2020.1.3,MacIntel,60,13334,,,,,,,,,,,,,,,,,,,,,,,,,,,,,,,,,,,,,0,22,22,18,1,,,,,,,,,,,,,,,,,,,,,,,,
,,,,,,,,,,,,a,0.59112,Incorrect,,,,,,t4.png,t1.png,3,0.0000131,20,Female,2020-11-24_10h39.17.468,torte-2b,2020.1.3,MacIntel,60,13334,,,,,,,,,,,,,,,,,,,,,,,,,,,,,,,,,,,,,0,23,23,13,1,,,,,,,,,,,,,,,,,,,,,,,,
,,,,,,,,,,,,l,0.68,Correct!,,,,,,t5.png,t2.png,3,0.0000131,20,Female,2020-11-24_10h39.17.468,torte-2b,2020.1.3,MacIntel,60,13334,,,,,,,,,,,,,,,,,,,,,,,,,,,,,,,,,,,,,0,24,24,119,1,,,,,,,,,,,,,,,,,,,,,,,,
,,,,,,,,,,,,l,0.652345,Incorrect,,,,,,t2.png,t2.png,0,0.98115,20,Female,2020-11-24_10h39.17.468,torte-2b,2020.1.3,MacIntel,60,13334,,,,,,,,,,,,,,,,,,,,,,,,,,,,,,,,,,,,,0,25,25,59,1,,,,,,,,,,,,,,,,,,,,,,,,
,,,,,,,,,,,,l,0.68362,Correct!,,,,,,t1.png,t4.png,3,0.0000131,20,Female,2020-11-24_10h39.17.468,torte-2b,2020.1.3,MacIntel,60,13334,,,,,,,,,,,,,,,,,,,,,,,,,,,,,,,,,,,,,0,26,26,92,1,,,,,,,,,,,,,,,,,,,,,,,,
,,,,,,,,,,,,a,0.76331,Incorrect,,,,,,t1.png,t2.png,1,0.9,20,Female,2020-11-24_10h39.17.468,torte-2b,2020.1.3,MacIntel,60,13334,,,,,,,,,,,,,,,,,,,,,,,,,,,,,,,,,,,,,0,27,27,1,1,,,,,,,,,,,,,,,,,,,,,,,,
,,,,,,,,,,,,a,0.749545,Incorrect,,,,,,t3.png,t1.png,2,0.056466,20,Female,2020-11-24_10h39.17.468,torte-2b,2020.1.3,MacIntel,60,13334,,,,,,,,,,,,,,,,,,,,,,,,,,,,,,,,,,,,,0,28,28,29,1,,,,,,,,,,,,,,,,,,,,,,,,
,,,,,,,,,,,,a,0.797265,Correct!,,,,,,t3.png,t4.png,1,0.90855,20,Female,2020-11-24_10h39.17.468,torte-2b,2020.1.3,MacIntel,60,13334,,,,,,,,,,,,,,,,,,,,,,,,,,,,,,,,,,,,,0,29,29,96,1,,,,,,,,,,,,,,,,,,,,,,,,
,,,,,,,,,,,,l,0.665445,Correct!,,,,,,t3.png,t5.png,2,0.0565,20,Female,2020-11-24_10h39.17.468,torte-2b,2020.1.3,MacIntel,60,13334,,,,,,,,,,,,,,,,,,,,,,,,,,,,,,,,,,,,,0,30,30,30,1,,,,,,,,,,,,,,,,,,,,,,,,
,,,,,,,,,,,,l,0.689,Incorrect,,,,,,t2.png,t3.png,1,0.90855,20,Female,2020-11-24_10h39.17.468,torte-2b,2020.1.3,MacIntel,60,13334,,,,,,,,,,,,,,,,,,,,,,,,,,,,,,,,,,,,,0,31,31,10,1,,,,,,,,,,,,,,,,,,,,,,,,
,,,,,,,,,,,,a,0.505775,Correct!,,,,,,t5.png,t4.png,1,0.9,20,Female,2020-11-24_10h39.17.468,torte-2b,2020.1.3,MacIntel,60,13334,,,,,,,,,,,,,,,,,,,,,,,,,,,,,,,,,,,,,0,32,32,49,1,,,,,,,,,,,,,,,,,,,,,,,,
,,,,,,,,,,,,a,0.455005,Incorrect,,,,,,t5.png,t2.png,3,0.0000131,20,Female,2020-11-24_10h39.17.468,torte-2b,2020.1.3,MacIntel,60,13334,,,,,,,,,,,,,,,,,,,,,,,,,,,,,,,,,,,,,0,33,33,51,1,,,,,,,,,,,,,,,,,,,,,,,,
,,,,,,,,,,,,l,0.68726,Incorrect,,,,,,t1.png,t2.png,1,0.90025,20,Female,2020-11-24_10h39.17.468,torte-2b,2020.1.3,MacIntel,60,13334,,,,,,,,,,,,,,,,,,,,,,,,,,,,,,,,,,,,,0,34,34,33,1,,,,,,,,,,,,,,,,,,,,,,,,
,,,,,,,,,,,,a,0.70324,Incorrect,,,,,,t3.png,t1.png,2,0.056466,20,Female,2020-11-24_10h39.17.468,torte-2b,2020.1.3,MacIntel,60,13334,,,,,,,,,,,,,,,,,,,,,,,,,,,,,,,,,,,,,0,35,35,64,1,,,,,,,,,,,,,,,,,,,,,,,,
,,,,,,,,,,,,a,0.52118,Incorrect,,,,,,t3.png,t1.png,2,0.056466,20,Female,2020-11-24_10h39.17.468,torte-2b,2020.1.3,MacIntel,60,13334,,,,,,,,,,,,,,,,,,,,,,,,,,,,,,,,,,,,,0,36,36,0,1,,,,,,,,,,,,,,,,,,,,,,,,
,,,,,,,,,,,,l,0.620425,Correct!,,,,,,t1.png,t5.png,4,9.55E-11,20,Female,2020-11-24_10h39.17.468,torte-2b,2020.1.3,MacIntel,60,13334,,,,,,,,,,,,,,,,,,,,,,,,,,,,,,,,,,,,,0,37,37,12,1,,,,,,,,,,,,,,,,,,,,,,,,
,,,,,,,,,,,,l,0.6605,Correct!,,,,,,t5.png,t2.png,3,0.0000131,20,Female,2020-11-24_10h39.17.468,torte-2b,2020.1.3,MacIntel,60,13334,,,,,,,,,,,,,,,,,,,,,,,,,,,,,,,,,,,,,0,38,38,98,1,,,,,,,,,,,,,,,,,,,,,,,,
,,,,,,,,,,,,l,0.65516,Incorrect,,,,,,t3.png,t4.png,1,0.90855,20,Female,2020-11-24_10h39.17.468,torte-2b,2020.1.3,MacIntel,60,13334,,,,,,,,,,,,,,,,,,,,,,,,,,,,,,,,,,,,,0,39,39,84,1,,,,,,,,,,,,,,,,,,,,,,,,
,,,,,,,,,,,,l,0.62795,Correct!,,,,,,t1.png,t5.png,4,9.55E-11,20,Female,2020-11-24_10h39.17.468,torte-2b,2020.1.3,MacIntel,60,13334,,,,,,,,,,,,,,,,,,,,,,,,,,,,,,,,,,,,,0,40,40,41,1,,,,,,,,,,,,,,,,,,,,,,,,
,,,,,,,,,,,,a,0.729815,Incorrect,,,,,,t5.png,t3.png,2,0.056466,20,Female,2020-11-24_10h39.17.468,torte-2b,2020.1.3,MacIntel,60,13334,,,,,,,,,,,,,,,,,,,,,,,,,,,,,,,,,,,,,0,41,41,38,1,,,,,,,,,,,,,,,,,,,,,,,,
,,,,,,,,,,,,l,0.82187,Correct!,,,,,,t1.png,t4.png,3,0.0000131,20,Female,2020-11-24_10h39.17.468,torte-2b,2020.1.3,MacIntel,60,13334,,,,,,,,,,,,,,,,,,,,,,,,,,,,,,,,,,,,,0,42,42,17,1,,,,,,,,,,,,,,,,,,,,,,,,
,,,,,,,,,,,,a,0.61326,Correct!,,,,,,t5.png,t4.png,1,0.9,20,Female,2020-11-24_10h39.17.468,torte-2b,2020.1.3,MacIntel,60,13334,,,,,,,,,,,,,,,,,,,,,,,,,,,,,,,,,,,,,0,43,43,76,1,,,,,,,,,,,,,,,,,,,,,,,,
,,,,,,,,,,,,a,0.568855,Correct!,,,,,,t3.png,t2.png,1,0.90855,20,Female,2020-11-24_10h39.17.468,torte-2b,2020.1.3,MacIntel,60,13334,,,,,,,,,,,,,,,,,,,,,,,,,,,,,,,,,,,,,0,44,44,53,1,,,,,,,,,,,,,,,,,,,,,,,,
,,,,,,,,,,,,a,0.05793,Incorrect,,,,,,t5.png,t1.png,4,9.55E-11,20,Female,2020-11-24_10h39.17.468,torte-2b,2020.1.3,MacIntel,60,13334,,,,,,,,,,,,,,,,,,,,,,,,,,,,,,,,,,,,,0,45,45,100,1,,,,,,,,,,,,,,,,,,,,,,,,
,,,,,,,,,,,,l,0.711655,Correct!,,,,,,t5.png,t2.png,3,0.0000131,20,Female,2020-11-24_10h39.17.468,torte-2b,2020.1.3,MacIntel,60,13334,,,,,,,,,,,,,,,,,,,,,,,,,,,,,,,,,,,,,0,46,46,91,1,,,,,,,,,,,,,,,,,,,,,,,,
,,,,,,,,,,,,l,0.971495,Correct!,,,,,,t1.png,t4.png,3,0.0000131,20,Female,2020-11-24_10h39.17.468,torte-2b,2020.1.3,MacIntel,60,13334,,,,,,,,,,,,,,,,,,,,,,,,,,,,,,,,,,,,,0,47,47,107,1,,,,,,,,,,,,,,,,,,,,,,,,
,,,,,,,,,,,,a,0.617935,Incorrect,,,,,,t4.png,t2.png,2,0.059078,20,Female,2020-11-24_10h39.17.468,torte-2b,2020.1.3,MacIntel,60,13334,,,,,,,,,,,,,,,,,,,,,,,,,,,,,,,,,,,,,0,48,48,110,1,,,,,,,,,,,,,,,,,,,,,,,,
,,,,,,,,,,,,a,0.527465,Correct!,,,,,,t4.png,t3.png,1,0.909,20,Female,2020-11-24_10h39.17.468,torte-2b,2020.1.3,MacIntel,60,13334,,,,,,,,,,,,,,,,,,,,,,,,,,,,,,,,,,,,,0,49,49,46,1,,,,,,,,,,,,,,,,,,,,,,,,
,,,,,,,,,,,,a,0.59603,Correct!,,,,,,t4.png,t4.png,0,0.98115,20,Female,2020-11-24_10h39.17.468,torte-2b,2020.1.3,MacIntel,60,13334,,,,,,,,,,,,,,,,,,,,,,,,,,,,,,,,,,,,,0,50,50,52,1,,,,,,,,,,,,,,,,,,,,,,,,
,,,,,,,,,,,,l,0.624995,Incorrect,,,,,,t2.png,t3.png,1,0.909,20,Female,2020-11-24_10h39.17.468,torte-2b,2020.1.3,MacIntel,60,13334,,,,,,,,,,,,,,,,,,,,,,,,,,,,,,,,,,,,,0,51,51,74,1,,,,,,,,,,,,,,,,,,,,,,,,
,,,,,,,,,,,,a,0.559835,Correct!,,,,,,t2.png,t1.png,1,0.90025,20,Female,2020-11-24_10h39.17.468,torte-2b,2020.1.3,MacIntel,60,13334,,,,,,,,,,,,,,,,,,,,,,,,,,,,,,,,,,,,,0,52,52,19,1,,,,,,,,,,,,,,,,,,,,,,,,
,,,,,,,,,,,,l,0.625545,Incorrect,,,,,,t1.png,t1.png,0,0.978,20,Female,2020-11-24_10h39.17.468,torte-2b,2020.1.3,MacIntel,60,13334,,,,,,,,,,,,,,,,,,,,,,,,,,,,,,,,,,,,,0,53,53,28,1,,,,,,,,,,,,,,,,,,,,,,,,
,,,,,,,,,,,,a,0.846715,Incorrect,,,,,,t5.png,t1.png,4,9.55E-11,20,Female,2020-11-24_10h39.17.468,torte-2b,2020.1.3,MacIntel,60,13334,,,,,,,,,,,,,,,,,,,,,,,,,,,,,,,,,,,,,0,54,54,43,1,,,,,,,,,,,,,,,,,,,,,,,,
,,,,,,,,,,,,a,0.722835,Correct!,,,,,,t2.png,t2.png,0,0.98115,20,Female,2020-11-24_10h39.17.468,torte-2b,2020.1.3,MacIntel,60,13334,,,,,,,,,,,,,,,,,,,,,,,,,,,,,,,,,,,,,0,55,55,7,1,,,,,,,,,,,,,,,,,,,,,,,,
,,,,,,,,,,,,a,0.62691,Incorrect,,,,,,t4.png,t2.png,2,0.059078,20,Female,2020-11-24_10h39.17.468,torte-2b,2020.1.3,MacIntel,60,13334,,,,,,,,,,,,,,,,,,,,,,,,,,,,,,,,,,,,,0,56,56,109,1,,,,,,,,,,,,,,,,,,,,,,,,
,,,,,,,,,,,,l,0.842745,Incorrect,,,,,,t4.png,t4.png,0,0.98115,20,Female,2020-11-24_10h39.17.468,torte-2b,2020.1.3,MacIntel,60,13334,,,,,,,,,,,,,,,,,,,,,,,,,,,,,,,,,,,,,0,57,57,90,1,,,,,,,,,,,,,,,,,,,,,,,,
,,,,,,,,,,,,a,0.940045,Correct!,,,,,,t3.png,t1.png,2,0.0565,20,Female,2020-11-24_10h39.17.468,torte-2b,2020.1.3,MacIntel,60,13334,,,,,,,,,,,,,,,,,,,,,,,,,,,,,,,,,,,,,0,58,58,31,1,,,,,,,,,,,,,,,,,,,,,,,,
,,,,,,,,,,,,a,0.635265,Correct!,,,,,,t4.png,t4.png,0,0.98115,20,Female,2020-11-24_10h39.17.468,torte-2b,2020.1.3,MacIntel,60,13334,,,,,,,,,,,,,,,,,,,,,,,,,,,,,,,,,,,,,0,59,59,21,1,,,,,,,,,,,,,,,,,,,,,,,,
,,,,,,,,,,,,l,0.96248,Incorrect,,,,,,t2.png,t1.png,1,0.90025,20,Female,2020-11-24_10h39.17.468,torte-2b,2020.1.3,MacIntel,60,13334,,,,,,,,,,,,,,,,,,,,,,,,,,,,,,,,,,,,,0,60,60,62,1,,,,,,,,,,,,,,,,,,,,,,,,
,,,,,,,,,,,,l,0.77662,Incorrect,,,,,,t1.png,t2.png,1,0.90025,20,Female,2020-11-24_10h39.17.468,torte-2b,2020.1.3,MacIntel,60,13334,,,,,,,,,,,,,,,,,,,,,,,,,,,,,,,,,,,,,0,61,61,72,1,,,,,,,,,,,,,,,,,,,,,,,,
,,,,,,,,,,,,l,0.867855,Correct!,,,,,,t1.png,t3.png,2,0.056466,20,Female,2020-11-24_10h39.17.468,torte-2b,2020.1.3,MacIntel,60,13334,,,,,,,,,,,,,,,,,,,,,,,,,,,,,,,,,,,,,0,62,62,99,1,,,,,,,,,,,,,,,,,,,,,,,,
,,,,,,,,,,,,a,0.50693,Incorrect,,,,,,t5.png,t3.png,2,0.056466,20,Female,2020-11-24_10h39.17.468,torte-2b,2020.1.3,MacIntel,60,13334,,,,,,,,,,,,,,,,,,,,,,,,,,,,,,,,,,,,,0,63,63,56,1,,,,,,,,,,,,,,,,,,,,,,,,
,,,,,,,,,,,,l,0.638355,Incorrect,,,,,,t1.png,t2.png,1,0.90025,20,Female,2020-11-24_10h39.17.468,torte-2b,2020.1.3,MacIntel,60,13334,,,,,,,,,,,,,,,,,,,,,,,,,,,,,,,,,,,,,0,64,64,112,1,,,,,,,,,,,,,,,,,,,,,,,,
,,,,,,,,,,,,a,0.455,Incorrect,,,,,,t4.png,t1.png,3,0.0000131,20,Female,2020-11-24_10h39.17.468,torte-2b,2020.1.3,MacIntel,60,13334,,,,,,,,,,,,,,,,,,,,,,,,,,,,,,,,,,,,,0,65,65,42,1,,,,,,,,,,,,,,,,,,,,,,,,
,,,,,,,,,,,,l,0.85282,Correct!,,,,,,t5.png,t1.png,4,9.55E-11,20,Female,2020-11-24_10h39.17.468,torte-2b,2020.1.3,MacIntel,60,13334,,,,,,,,,,,,,,,,,,,,,,,,,,,,,,,,,,,,,0,66,66,71,1,,,,,,,,,,,,,,,,,,,,,,,,
,,,,,,,,,,,,l,0.640655,Correct!,,,,,,t4.png,t1.png,3,0.0000131,20,Female,2020-11-24_10h39.17.468,torte-2b,2020.1.3,MacIntel,60,13334,,,,,,,,,,,,,,,,,,,,,,,,,,,,,,,,,,,,,0,67,67,48,1,,,,,,,,,,,,,,,,,,,,,,,,
,,,,,,,,,,,,a,0.60877,Correct!,,,,,,t4.png,t4.png,0,0.98115,20,Female,2020-11-24_10h39.17.468,torte-2b,2020.1.3,MacIntel,60,13334,,,,,,,,,,,,,,,,,,,,,,,,,,,,,,,,,,,,,0,68,68,79,1,,,,,,,,,,,,,,,,,,,,,,,,
,,,,,,,,,,,,l,0.55726,Correct!,,,,,,t1.png,t2.png,1,0.90025,20,Female,2020-11-24_10h39.17.468,torte-2b,2020.1.3,MacIntel,60,13334,,,,,,,,,,,,,,,,,,,,,,,,,,,,,,,,,,,,,0,69,69,105,1,,,,,,,,,,,,,,,,,,,,,,,,
,,,,,,,,,,,,l,0.70445,Correct!,,,,,,t1.png,t3.png,2,0.056466,20,Female,2020-11-24_10h39.17.468,torte-2b,2020.1.3,MacIntel,60,13334,,,,,,,,,,,,,,,,,,,,,,,,,,,,,,,,,,,,,0,70,70,60,1,,,,,,,,,,,,,,,,,,,,,,,,
,,,,,,,,,,,,a,0.74175,Incorrect,,,,,,t4.png,t2.png,2,0.059078,20,Female,2020-11-24_10h39.17.468,torte-2b,2020.1.3,MacIntel,60,13334,,,,,,,,,,,,,,,,,,,,,,,,,,,,,,,,,,,,,0,71,71,86,1,,,,,,,,,,,,,,,,,,,,,,,,
,,,,,,,,,,,,a,0.89139,Correct!,,,,,,t2.png,t2.png,0,0.98115,20,Female,2020-11-24_10h39.17.468,torte-2b,2020.1.3,MacIntel,60,13334,,,,,,,,,,,,,,,,,,,,,,,,,,,,,,,,,,,,,0,72,72,2,1,,,,,,,,,,,,,,,,,,,,,,,,
,,,,,,,,,,,,l,0.94381,Incorrect,,,,,,t2.png,t2.png,0,0.98115,20,Female,2020-11-24_10h39.17.468,torte-2b,2020.1.3,MacIntel,60,13334,,,,,,,,,,,,,,,,,,,,,,,,,,,,,,,,,,,,,0,73,73,57,1,,,,,,,,,,,,,,,,,,,,,,,,
,,,,,,,,,,,,a,0.96374,Correct!,,,,,,t2.png,t3.png,1,0.90855,20,Female,2020-11-24_10h39.17.468,torte-2b,2020.1.3,MacIntel,60,13334,,,,,,,,,,,,,,,,,,,,,,,,,,,,,,,,,,,,,0,74,74,111,1,,,,,,,,,,,,,,,,,,,,,,,,
,,,,,,,,,,,,a,0.527275,Correct!,,,,,,t5.png,t4.png,1,0.90025,20,Female,2020-11-24_10h39.17.468,torte-2b,2020.1.3,MacIntel,60,13334,,,,,,,,,,,,,,,,,,,,,,,,,,,,,,,,,,,,,0,75,75,34,1,,,,,,,,,,,,,,,,,,,,,,,,
,,,,,,,,,,,,,,Too slow :(,,,,,,t5.png,t4.png,1,0.90025,20,Female,2020-11-24_10h39.17.468,torte-2b,2020.1.3,MacIntel,60,13334,,,,,,,,,,,,,,,,,,,,,,,,,,,,,,,,,,,,,0,76,76,27,1,,,,,,,,,,,,,,,,,,,,,,,,
,,,,,,,,,,,,a,0.780385,Incorrect,,,,,,t2.png,t4.png,2,0.059078,20,Female,2020-11-24_10h39.17.468,torte-2b,2020.1.3,MacIntel,60,13334,,,,,,,,,,,,,,,,,,,,,,,,,,,,,,,,,,,,,0,77,77,11,1,,,,,,,,,,,,,,,,,,,,,,,,
,,,,,,,,,,,,a,0.519975,Correct!,,,,,,t4.png,t4.png,0,0.98115,20,Female,2020-11-24_10h39.17.468,torte-2b,2020.1.3,MacIntel,60,13334,,,,,,,,,,,,,,,,,,,,,,,,,,,,,,,,,,,,,0,78,78,80,1,,,,,,,,,,,,,,,,,,,,,,,,
,,,,,,,,,,,,l,0.58028,Correct!,,,,,,t1.png,t4.png,3,0.0000131,20,Female,2020-11-24_10h39.17.468,torte-2b,2020.1.3,MacIntel,60,13334,,,,,,,,,,,,,,,,,,,,,,,,,,,,,,,,,,,,,0,79,79,81,1,,,,,,,,,,,,,,,,,,,,,,,,
,,,,,,,,,,,,a,0.72543,Correct!,,,,,,t4.png,t3.png,1,0.90855,20,Female,2020-11-24_10h39.17.468,torte-2b,2020.1.3,MacIntel,60,13334,,,,,,,,,,,,,,,,,,,,,,,,,,,,,,,,,,,,,0,80,80,35,1,,,,,,,,,,,,,,,,,,,,,,,,
,,,,,,,,,,,,l,0.86965,Incorrect,,,,,,t2.png,t3.png,1,0.90855,20,Female,2020-11-24_10h39.17.468,torte-2b,2020.1.3,MacIntel,60,13334,,,,,,,,,,,,,,,,,,,,,,,,,,,,,,,,,,,,,0,81,81,68,1,,,,,,,,,,,,,,,,,,,,,,,,
,,,,,,,,,,,,l,0.725685,Correct!,,,,,,t1.png,t3.png,2,0.056466,20,Female,2020-11-24_10h39.17.468,torte-2b,2020.1.3,MacIntel,60,13334,,,,,,,,,,,,,,,,,,,,,,,,,,,,,,,,,,,,,0,82,82,69,1,,,,,,,,,,,,,,,,,,,,,,,,
,,,,,,,,,,,,a,0.878965,Correct!,,,,,,t1.png,t1.png,0,0.97829,20,Female,2020-11-24_10h39.17.468,torte-2b,2020.1.3,MacIntel,60,13334,,,,,,,,,,,,,,,,,,,,,,,,,,,,,,,,,,,,,0,83,83,78,1,,,,,,,,,,,,,,,,,,,,,,,,
,,,,,,,,,,,,a,0.569995,Correct!,,,,,,t4.png,t3.png,1,0.909,20,Female,2020-11-24_10h39.17.468,torte-2b,2020.1.3,MacIntel,60,13334,,,,,,,,,,,,,,,,,,,,,,,,,,,,,,,,,,,,,0,84,84,20,1,,,,,,,,,,,,,,,,,,,,,,,,
,,,,,,,,,,,,a,0.53481,Incorrect,,,,,,t5.png,t3.png,2,0.056466,20,Female,2020-11-24_10h39.17.468,torte-2b,2020.1.3,MacIntel,60,13334,,,,,,,,,,,,,,,,,,,,,,,,,,,,,,,,,,,,,0,85,85,108,1,,,,,,,,,,,,,,,,,,,,,,,,
,,,,,,,,,,,,a,1.05406,Correct!,,,,,,t5.png,t5.png,0,0.97829,20,Female,2020-11-24_10h39.17.468,torte-2b,2020.1.3,MacIntel,60,13334,,,,,,,,,,,,,,,,,,,,,,,,,,,,,,,,,,,,,0,86,86,94,1,,,,,,,,,,,,,,,,,,,,,,,,
,,,,,,,,,,,,l,0.572095,Correct!,,,,,,t1.png,t5.png,4,9.55E-11,20,Female,2020-11-24_10h39.17.468,torte-2b,2020.1.3,MacIntel,60,13334,,,,,,,,,,,,,,,,,,,,,,,,,,,,,,,,,,,,,0,87,87,16,1,,,,,,,,,,,,,,,,,,,,,,,,
,,,,,,,,,,,,a,0.521465,Correct!,,,,,,t5.png,t4.png,1,0.90025,20,Female,2020-11-24_10h39.17.468,torte-2b,2020.1.3,MacIntel,60,13334,,,,,,,,,,,,,,,,,,,,,,,,,,,,,,,,,,,,,0,88,88,26,1,,,,,,,,,,,,,,,,,,,,,,,,
,,,,,,,,,,,,a,0.62363,Correct!,,,,,,t3.png,t4.png,1,0.909,20,Female,2020-11-24_10h39.17.468,torte-2b,2020.1.3,MacIntel,60,13334,,,,,,,,,,,,,,,,,,,,,,,,,,,,,,,,,,,,,0,89,89,106,1,,,,,,,,,,,,,,,,,,,,,,,,
,,,,,,,,,,,,a,0.708145,Incorrect,,,,,,t5.png,t3.png,2,0.0565,20,Female,2020-11-24_10h39.17.468,torte-2b,2020.1.3,MacIntel,60,13334,,,,,,,,,,,,,,,,,,,,,,,,,,,,,,,,,,,,,0,90,90,39,1,,,,,,,,,,,,,,,,,,,,,,,,
,,,,,,,,,,,,a,0.67464,Correct!,,,,,,t2.png,t1.png,1,0.90025,20,Female,2020-11-24_10h39.17.468,torte-2b,2020.1.3,MacIntel,60,13334,,,,,,,,,,,,,,,,,,,,,,,,,,,,,,,,,,,,,0,91,91,5,1,,,,,,,,,,,,,,,,,,,,,,,,
,,,,,,,,,,,,l,0.51018,Incorrect,,,,,,t2.png,t3.png,1,0.90855,20,Female,2020-11-24_10h39.17.468,torte-2b,2020.1.3,MacIntel,60,13334,,,,,,,,,,,,,,,,,,,,,,,,,,,,,,,,,,,,,0,92,92,65,1,,,,,,,,,,,,,,,,,,,,,,,,
,,,,,,,,,,,,l,0.5614,Correct!,,,,,,t2.png,t5.png,3,0.0000131,20,Female,2020-11-24_10h39.17.468,torte-2b,2020.1.3,MacIntel,60,13334,,,,,,,,,,,,,,,,,,,,,,,,,,,,,,,,,,,,,0,93,93,95,1,,,,,,,,,,,,,,,,,,,,,,,,
,,,,,,,,,,,,a,0.62158,Correct!,,,,,,t2.png,t2.png,0,0.981,20,Female,2020-11-24_10h39.17.468,torte-2b,2020.1.3,MacIntel,60,13334,,,,,,,,,,,,,,,,,,,,,,,,,,,,,,,,,,,,,0,94,94,101,1,,,,,,,,,,,,,,,,,,,,,,,,
,,,,,,,,,,,,l,0.627095,Correct!,,,,,,t1.png,t3.png,2,0.056466,20,Female,2020-11-24_10h39.17.468,torte-2b,2020.1.3,MacIntel,60,13334,,,,,,,,,,,,,,,,,,,,,,,,,,,,,,,,,,,,,0,95,95,87,1,,,,,,,,,,,,,,,,,,,,,,,,
,,,,,,,,,,,,a,0.748165,Correct!,,,,,,t1.png,t1.png,0,0.97829,20,Female,2020-11-24_10h39.17.468,torte-2b,2020.1.3,MacIntel,60,13334,,,,,,,,,,,,,,,,,,,,,,,,,,,,,,,,,,,,,0,96,96,67,1,,,,,,,,,,,,,,,,,,,,,,,,
,,,,,,,,,,,,a,0.678115,Incorrect,,,,,,t3.png,t1.png,2,0.056466,20,Female,2020-11-24_10h39.17.468,torte-2b,2020.1.3,MacIntel,60,13334,,,,,,,,,,,,,,,,,,,,,,,,,,,,,,,,,,,,,0,97,97,32,1,,,,,,,,,,,,,,,,,,,,,,,,
,,,,,,,,,,,,l,0.7313,Incorrect,,,,,,t5.png,t5.png,0,0.97829,20,Female,2020-11-24_10h39.17.468,torte-2b,2020.1.3,MacIntel,60,13334,,,,,,,,,,,,,,,,,,,,,,,,,,,,,,,,,,,,,0,98,98,73,1,,,,,,,,,,,,,,,,,,,,,,,,
,,,,,,,,,,,,a,0.51762,Correct!,,,,,,t4.png,t3.png,1,0.90855,20,Female,2020-11-24_10h39.17.468,torte-2b,2020.1.3,MacIntel,60,13334,,,,,,,,,,,,,,,,,,,,,,,,,,,,,,,,,,,,,0,99,99,45,1,,,,,,,,,,,,,,,,,,,,,,,,
,,,,,,,,,,,,a,0.62966,Incorrect,,,,,,t3.png,t5.png,2,0.056466,20,Female,2020-11-24_10h39.17.468,torte-2b,2020.1.3,MacIntel,60,13334,,,,,,,,,,,,,,,,,,,,,,,,,,,,,,,,,,,,,0,100,100,44,1,,,,,,,,,,,,,,,,,,,,,,,,
,,,,,,,,,,,,a,0.673575,Correct!,,,,,,t4.png,t5.png,1,0.90025,20,Female,2020-11-24_10h39.17.468,torte-2b,2020.1.3,MacIntel,60,13334,,,,,,,,,,,,,,,,,,,,,,,,,,,,,,,,,,,,,0,101,101,47,1,,,,,,,,,,,,,,,,,,,,,,,,
,,,,,,,,,,,,a,0.77201,Incorrect,,,,,,t4.png,t1.png,3,0.0000131,20,Female,2020-11-24_10h39.17.468,torte-2b,2020.1.3,MacIntel,60,13334,,,,,,,,,,,,,,,,,,,,,,,,,,,,,,,,,,,,,0,102,102,93,1,,,,,,,,,,,,,,,,,,,,,,,,
,,,,,,,,,,,,l,1.070035,Incorrect,,,,,,t5.png,t5.png,0,0.97829,20,Female,2020-11-24_10h39.17.468,torte-2b,2020.1.3,MacIntel,60,13334,,,,,,,,,,,,,,,,,,,,,,,,,,,,,,,,,,,,,0,103,103,25,1,,,,,,,,,,,,,,,,,,,,,,,,
,,,,,,,,,,,,a,0.841,Correct!,,,,,,t5.png,t5.png,0,0.97829,20,Female,2020-11-24_10h39.17.468,torte-2b,2020.1.3,MacIntel,60,13334,,,,,,,,,,,,,,,,,,,,,,,,,,,,,,,,,,,,,0,104,104,70,1,,,,,,,,,,,,,,,,,,,,,,,,
,,,,,,,,,,,,l,0.89127,Correct!,,,,,,t2.png,t5.png,3,0.0000131,20,Female,2020-11-24_10h39.17.468,torte-2b,2020.1.3,MacIntel,60,13334,,,,,,,,,,,,,,,,,,,,,,,,,,,,,,,,,,,,,0,105,105,104,1,,,,,,,,,,,,,,,,,,,,,,,,
,,,,,,,,,,,,a,1.262945,Incorrect,,,,,,t3.png,t2.png,1,0.909,20,Female,2020-11-24_10h39.17.468,torte-2b,2020.1.3,MacIntel,60,13334,,,,,,,,,,,,,,,,,,,,,,,,,,,,,,,,,,,,,0,106,106,23,1,,,,,,,,,,,,,,,,,,,,,,,,
,,,,,,,,,,,,l,0.94217,Correct!,,,,,,t2.png,t5.png,3,0.0000131,20,Female,2020-11-24_10h39.17.468,torte-2b,2020.1.3,MacIntel,60,13334,,,,,,,,,,,,,,,,,,,,,,,,,,,,,,,,,,,,,0,107,107,8,1,,,,,,,,,,,,,,,,,,,,,,,,
,,,,,,,,,,,,l,1.72774,Incorrect,,,,,,t1.png,t1.png,0,0.978,20,Female,2020-11-24_10h39.17.468,torte-2b,2020.1.3,MacIntel,60,13334,,,,,,,,,,,,,,,,,,,,,,,,,,,,,,,,,,,,,0,108,108,54,1,,,,,,,,,,,,,,,,,,,,,,,,
,,,,,,,,,,,,a,1.77706,Correct!,,,,,,t3.png,t2.png,1,0.909,20,Female,2020-11-24_10h39.17.468,torte-2b,2020.1.3,MacIntel,60,13334,,,,,,,,,,,,,,,,,,,,,,,,,,,,,,,,,,,,,0,109,109,3,1,,,,,,,,,,,,,,,,,,,,,,,,
,,,,,,,,,,,,l,0.579305,Correct!,,,,,,t1.png,t5.png,4,9.55E-11,20,Female,2020-11-24_10h39.17.468,torte-2b,2020.1.3,MacIntel,60,13334,,,,,,,,,,,,,,,,,,,,,,,,,,,,,,,,,,,,,0,110,110,55,1,,,,,,,,,,,,,,,,,,,,,,,,
,,,,,,,,,,,,a,0.459625,Correct!,,,,,,t4.png,t5.png,1,0.90025,20,Female,2020-11-24_10h39.17.468,torte-2b,2020.1.3,MacIntel,60,13334,,,,,,,,,,,,,,,,,,,,,,,,,,,,,,,,,,,,,0,111,111,58,1,,,,,,,,,,,,,,,,,,,,,,,,
,,,,,,,,,,,,a,0.853765,Correct!,,,,,,t4.png,t5.png,1,0.90025,20,Female,2020-11-24_10h39.17.468,torte-2b,2020.1.3,MacIntel,60,13334,,,,,,,,,,,,,,,,,,,,,,,,,,,,,,,,,,,,,0,112,112,103,1,,,,,,,,,,,,,,,,,,,,,,,,
,,,,,,,,,,,,l,1.016685,Correct!,,,,,,t1.png,t4.png,3,0.0000131,20,Female,2020-11-24_10h39.17.468,torte-2b,2020.1.3,MacIntel,60,13334,,,,,,,,,,,,,,,,,,,,,,,,,,,,,,,,,,,,,0,113,113,50,1,,,,,,,,,,,,,,,,,,,,,,,,
,,,,,,,,,,,,a,0.644635,Correct!,,,,,,t3.png,t4.png,1,0.909,20,Female,2020-11-24_10h39.17.468,torte-2b,2020.1.3,MacIntel,60,13334,,,,,,,,,,,,,,,,,,,,,,,,,,,,,,,,,,,,,0,114,114,89,1,,,,,,,,,,,,,,,,,,,,,,,,
,,,,,,,,,,,,a,0.912125,Incorrect,,,,,,t2.png,t4.png,2,0.059078,20,Female,2020-11-24_10h39.17.468,torte-2b,2020.1.3,MacIntel,60,13334,,,,,,,,,,,,,,,,,,,,,,,,,,,,,,,,,,,,,0,115,115,77,1,,,,,,,,,,,,,,,,,,,,,,,,
,,,,,,,,,,,,l,0.87329,Correct!,,,,,,t2.png,t4.png,2,0.0591,20,Female,2020-11-24_10h39.17.468,torte-2b,2020.1.3,MacIntel,60,13334,,,,,,,,,,,,,,,,,,,,,,,,,,,,,,,,,,,,,0,116,116,15,1,,,,,,,,,,,,,,,,,,,,,,,,
,,,,,,,,,,,,a,0.567545,Incorrect,,,,,,t3.png,t5.png,2,0.056466,20,Female,2020-11-24_10h39.17.468,torte-2b,2020.1.3,MacIntel,60,13334,,,,,,,,,,,,,,,,,,,,,,,,,,,,,,,,,,,,,0,117,117,6,1,,,,,,,,,,,,,,,,,,,,,,,,
,,,,,,,,,,,,a,0.58879,Incorrect,,,,,,t4.png,t1.png,3,0.0000131,20,Female,2020-11-24_10h39.17.468,torte-2b,2020.1.3,MacIntel,60,13334,,,,,,,,,,,,,,,,,,,,,,,,,,,,,,,,,,,,,0,118,118,61,1,,,,,,,,,,,,,,,,,,,,,,,,
,,,,,,,,,,,,a,0.826525,Incorrect,,,,,,t4.png,t2.png,2,0.059078,20,Female,2020-11-24_10h39.17.468,torte-2b,2020.1.3,MacIntel,60,13334,,,,,,,,,,,,,,,,,,,,,,,,,,,,,,,,,,,,,0,119,119,88,1,,,,,,,,,,,,,,,,,,,,,,,,
,,,,,,,,,,,,,,,,,,,,,,,,20,Female,2020-11-24_10h39.17.468,torte-2b,2020.1.3,MacIntel,60,13334,return,1.039825,,,,,,,,,,,,,,,,,,,,,,,,,,,,,,,,,,,,,,,,217.9101563,176.265625,1,0,0,s1,187.5742188,-38.21484375,1,0,0,t3,389.6132813,-100.7695313,1,0,0,proceed,return,2.00619,return,0.475555,return,1.07454
