key_resp_8.keys,key_resp_8.rt,key_resp_9.keys,key_resp_9.rt,key_resp_10.keys,key_resp_10.rt,key_resp_11.keys,key_resp_11.rt,key_resp_2.keys,key_resp_2.rt,key_resp_3.keys,key_resp_3.rt,key_resp.keys,Feedback,train.thisRepN,train.thisTrialN,train.thisN,train.thisIndex,train.ran,torta_sx,torta_dx,difference,probability,age,gender,date,expName,psychopyVersion,OS,frameRate,participant,key_resp.rt,key_resp_15.keys,key_resp_15.rt,key_resp_6.keys,key_resp_6.rt,test1.thisRepN,test1.thisTrialN,test1.thisN,test1.thisIndex,test1.ran,key_resp_4.keys,key_resp_4.rt,key_resp_5.keys,back1.thisRepN,back1.thisTrialN,back1.thisN,back1.thisIndex,back1.ran,letter,key_resp_5.rt,back2.thisRepN,back2.thisTrialN,back2.thisN,back2.thisIndex,back2.ran,back3.thisRepN,back3.thisTrialN,back3.thisN,back3.thisIndex,back3.ran,back4.thisRepN,back4.thisTrialN,back4.thisN,back4.thisIndex,back4.ran,key_resp_7.keys,key_resp_7.rt,test2.thisRepN,test2.thisTrialN,test2.thisN,test2.thisIndex,test2.ran,mouse.x,mouse.y,mouse.leftButton,mouse.midButton,mouse.rightButton,mouse.clicked_name,mouse_2.x,mouse_2.y,mouse_2.leftButton,mouse_2.midButton,mouse_2.rightButton,mouse_2.clicked_name,mouse_3.x,mouse_3.y,mouse_3.leftButton,mouse_3.midButton,mouse_3.rightButton,mouse_3.clicked_name,key_resp_12.keys,key_resp_12.rt,key_resp_13.keys,key_resp_13.rt,key_resp_14.keys,key_resp_14.rt
space,22.2,space,9.418,space,2.736,space,4.046,space,82.211,space,52.464,,Too slow :(,0,0,0,42,1,t5.png,t4.png,1,0.90025,19,Male,2020-08-27_16h31.11.451,torte-2b,2020.1.3,Win32,60,13330,,,,,,,,,,,,,,,,,,,,,,,,,,,,,,,,,,,,,,,,,,,,,,,,,,,,,,,,,,,,,,,,,,
,,,,,,,,,,,,l,Incorrect,0,1,1,65,1,t4.png,t5.png,1,0.90025,19,Male,2020-08-27_16h31.11.451,torte-2b,2020.1.3,Win32,60,13330,1.381,,,,,,,,,,,,,,,,,,,,,,,,,,,,,,,,,,,,,,,,,,,,,,,,,,,,,,,,,,,,,,,,,
,,,,,,,,,,,,a,Incorrect,0,2,2,47,1,t4.png,t2.png,2,0.059078,19,Male,2020-08-27_16h31.11.451,torte-2b,2020.1.3,Win32,60,13330,1.48,,,,,,,,,,,,,,,,,,,,,,,,,,,,,,,,,,,,,,,,,,,,,,,,,,,,,,,,,,,,,,,,,
,,,,,,,,,,,,a,Incorrect,0,3,3,27,1,t3.png,t1.png,2,0.0565,19,Male,2020-08-27_16h31.11.451,torte-2b,2020.1.3,Win32,60,13330,1.106,,,,,,,,,,,,,,,,,,,,,,,,,,,,,,,,,,,,,,,,,,,,,,,,,,,,,,,,,,,,,,,,,
,,,,,,,,,,,,l,Correct!,0,4,4,5,1,t2.png,t4.png,2,0.059078,19,Male,2020-08-27_16h31.11.451,torte-2b,2020.1.3,Win32,60,13330,1.33,,,,,,,,,,,,,,,,,,,,,,,,,,,,,,,,,,,,,,,,,,,,,,,,,,,,,,,,,,,,,,,,,
,,,,,,,,,,,,a,Correct!,0,5,5,78,1,t1.png,t1.png,0,0.978,19,Male,2020-08-27_16h31.11.451,torte-2b,2020.1.3,Win32,60,13330,1.3,,,,,,,,,,,,,,,,,,,,,,,,,,,,,,,,,,,,,,,,,,,,,,,,,,,,,,,,,,,,,,,,,
,,,,,,,,,,,,a,Incorrect,0,6,6,79,1,t3.png,t2.png,1,0.909,19,Male,2020-08-27_16h31.11.451,torte-2b,2020.1.3,Win32,60,13330,1.331,,,,,,,,,,,,,,,,,,,,,,,,,,,,,,,,,,,,,,,,,,,,,,,,,,,,,,,,,,,,,,,,,
,,,,,,,,,,,,l,Incorrect,0,7,7,81,1,t1.png,t1.png,0,0.97829,19,Male,2020-08-27_16h31.11.451,torte-2b,2020.1.3,Win32,60,13330,1.07,,,,,,,,,,,,,,,,,,,,,,,,,,,,,,,,,,,,,,,,,,,,,,,,,,,,,,,,,,,,,,,,,
,,,,,,,,,,,,l,Incorrect,0,8,8,101,1,t4.png,t5.png,1,0.90025,19,Male,2020-08-27_16h31.11.451,torte-2b,2020.1.3,Win32,60,13330,1.033,,,,,,,,,,,,,,,,,,,,,,,,,,,,,,,,,,,,,,,,,,,,,,,,,,,,,,,,,,,,,,,,,
,,,,,,,,,,,,a,Correct!,0,9,9,84,1,t1.png,t1.png,0,0.97829,19,Male,2020-08-27_16h31.11.451,torte-2b,2020.1.3,Win32,60,13330,1.281,,,,,,,,,,,,,,,,,,,,,,,,,,,,,,,,,,,,,,,,,,,,,,,,,,,,,,,,,,,,,,,,,
,,,,,,,,,,,,l,Incorrect,0,10,10,49,1,t4.png,t5.png,1,0.9,19,Male,2020-08-27_16h31.11.451,torte-2b,2020.1.3,Win32,60,13330,1.046,,,,,,,,,,,,,,,,,,,,,,,,,,,,,,,,,,,,,,,,,,,,,,,,,,,,,,,,,,,,,,,,,
,,,,,,,,,,,,l,Correct!,0,11,11,51,1,t3.png,t1.png,2,0.056466,19,Male,2020-08-27_16h31.11.451,torte-2b,2020.1.3,Win32,60,13330,1.531,,,,,,,,,,,,,,,,,,,,,,,,,,,,,,,,,,,,,,,,,,,,,,,,,,,,,,,,,,,,,,,,,
,,,,,,,,,,,,a,Incorrect,0,12,12,35,1,t1.png,t4.png,3,0.0000131,19,Male,2020-08-27_16h31.11.451,torte-2b,2020.1.3,Win32,60,13330,0.966,,,,,,,,,,,,,,,,,,,,,,,,,,,,,,,,,,,,,,,,,,,,,,,,,,,,,,,,,,,,,,,,,
,,,,,,,,,,,,l,Incorrect,0,13,13,62,1,t5.png,t5.png,0,0.978,19,Male,2020-08-27_16h31.11.451,torte-2b,2020.1.3,Win32,60,13330,1.455,,,,,,,,,,,,,,,,,,,,,,,,,,,,,,,,,,,,,,,,,,,,,,,,,,,,,,,,,,,,,,,,,
,,,,,,,,,,,,a,Incorrect,0,14,14,86,1,t3.png,t1.png,2,0.056466,19,Male,2020-08-27_16h31.11.451,torte-2b,2020.1.3,Win32,60,13330,1.283,,,,,,,,,,,,,,,,,,,,,,,,,,,,,,,,,,,,,,,,,,,,,,,,,,,,,,,,,,,,,,,,,
,,,,,,,,,,,,l,Correct!,0,15,15,115,1,t2.png,t4.png,2,0.059078,19,Male,2020-08-27_16h31.11.451,torte-2b,2020.1.3,Win32,60,13330,1.201,,,,,,,,,,,,,,,,,,,,,,,,,,,,,,,,,,,,,,,,,,,,,,,,,,,,,,,,,,,,,,,,,
,,,,,,,,,,,,a,Incorrect,0,16,16,87,1,t5.png,t1.png,4,9.55E-11,19,Male,2020-08-27_16h31.11.451,torte-2b,2020.1.3,Win32,60,13330,0.934,,,,,,,,,,,,,,,,,,,,,,,,,,,,,,,,,,,,,,,,,,,,,,,,,,,,,,,,,,,,,,,,,
,,,,,,,,,,,,l,Correct!,0,17,17,14,1,t2.png,t4.png,2,0.059078,19,Male,2020-08-27_16h31.11.451,torte-2b,2020.1.3,Win32,60,13330,1.027,,,,,,,,,,,,,,,,,,,,,,,,,,,,,,,,,,,,,,,,,,,,,,,,,,,,,,,,,,,,,,,,,
,,,,,,,,,,,,a,Incorrect,0,18,18,90,1,t1.png,t5.png,4,9.55E-11,19,Male,2020-08-27_16h31.11.451,torte-2b,2020.1.3,Win32,60,13330,1.232,,,,,,,,,,,,,,,,,,,,,,,,,,,,,,,,,,,,,,,,,,,,,,,,,,,,,,,,,,,,,,,,,
,,,,,,,,,,,,l,Correct!,0,19,19,94,1,t5.png,t1.png,4,9.55E-11,19,Male,2020-08-27_16h31.11.451,torte-2b,2020.1.3,Win32,60,13330,1.57,,,,,,,,,,,,,,,,,,,,,,,,,,,,,,,,,,,,,,,,,,,,,,,,,,,,,,,,,,,,,,,,,
,,,,,,,,,,,,a,Correct!,0,20,20,28,1,t2.png,t3.png,1,0.909,19,Male,2020-08-27_16h31.11.451,torte-2b,2020.1.3,Win32,60,13330,1.431,,,,,,,,,,,,,,,,,,,,,,,,,,,,,,,,,,,,,,,,,,,,,,,,,,,,,,,,,,,,,,,,,
,,,,,,,,,,,,l,Incorrect,0,21,21,59,1,t5.png,t4.png,1,0.9,19,Male,2020-08-27_16h31.11.451,torte-2b,2020.1.3,Win32,60,13330,1.348,,,,,,,,,,,,,,,,,,,,,,,,,,,,,,,,,,,,,,,,,,,,,,,,,,,,,,,,,,,,,,,,,
,,,,,,,,,,,,a,Correct!,0,22,22,13,1,t5.png,t5.png,0,0.97829,19,Male,2020-08-27_16h31.11.451,torte-2b,2020.1.3,Win32,60,13330,1.299,,,,,,,,,,,,,,,,,,,,,,,,,,,,,,,,,,,,,,,,,,,,,,,,,,,,,,,,,,,,,,,,,
,,,,,,,,,,,,a,Correct!,0,23,23,16,1,t5.png,t4.png,1,0.9,19,Male,2020-08-27_16h31.11.451,torte-2b,2020.1.3,Win32,60,13330,1.366,,,,,,,,,,,,,,,,,,,,,,,,,,,,,,,,,,,,,,,,,,,,,,,,,,,,,,,,,,,,,,,,,
,,,,,,,,,,,,a,Incorrect,0,24,24,88,1,t3.png,t1.png,2,0.056466,19,Male,2020-08-27_16h31.11.451,torte-2b,2020.1.3,Win32,60,13330,0.935,,,,,,,,,,,,,,,,,,,,,,,,,,,,,,,,,,,,,,,,,,,,,,,,,,,,,,,,,,,,,,,,,
,,,,,,,,,,,,a,Correct!,0,25,25,45,1,t3.png,t2.png,1,0.90855,19,Male,2020-08-27_16h31.11.451,torte-2b,2020.1.3,Win32,60,13330,0.881,,,,,,,,,,,,,,,,,,,,,,,,,,,,,,,,,,,,,,,,,,,,,,,,,,,,,,,,,,,,,,,,,
,,,,,,,,,,,,a,Correct!,0,26,26,21,1,t5.png,t4.png,1,0.90025,19,Male,2020-08-27_16h31.11.451,torte-2b,2020.1.3,Win32,60,13330,1.104,,,,,,,,,,,,,,,,,,,,,,,,,,,,,,,,,,,,,,,,,,,,,,,,,,,,,,,,,,,,,,,,,
,,,,,,,,,,,,l,Incorrect,0,27,27,100,1,t4.png,t5.png,1,0.90025,19,Male,2020-08-27_16h31.11.451,torte-2b,2020.1.3,Win32,60,13330,1.067,,,,,,,,,,,,,,,,,,,,,,,,,,,,,,,,,,,,,,,,,,,,,,,,,,,,,,,,,,,,,,,,,
,,,,,,,,,,,,a,Incorrect,0,28,28,43,1,t4.png,t2.png,2,0.059078,19,Male,2020-08-27_16h31.11.451,torte-2b,2020.1.3,Win32,60,13330,0.867,,,,,,,,,,,,,,,,,,,,,,,,,,,,,,,,,,,,,,,,,,,,,,,,,,,,,,,,,,,,,,,,,
,,,,,,,,,,,,l,Incorrect,0,29,29,32,1,t4.png,t5.png,1,0.90025,19,Male,2020-08-27_16h31.11.451,torte-2b,2020.1.3,Win32,60,13330,0.798,,,,,,,,,,,,,,,,,,,,,,,,,,,,,,,,,,,,,,,,,,,,,,,,,,,,,,,,,,,,,,,,,
,,,,,,,,,,,,l,Incorrect,0,30,30,10,1,t2.png,t3.png,1,0.90855,19,Male,2020-08-27_16h31.11.451,torte-2b,2020.1.3,Win32,60,13330,1.401,,,,,,,,,,,,,,,,,,,,,,,,,,,,,,,,,,,,,,,,,,,,,,,,,,,,,,,,,,,,,,,,,
,,,,,,,,,,,,a,Incorrect,0,31,31,83,1,t3.png,t1.png,2,0.056466,19,Male,2020-08-27_16h31.11.451,torte-2b,2020.1.3,Win32,60,13330,0.885,,,,,,,,,,,,,,,,,,,,,,,,,,,,,,,,,,,,,,,,,,,,,,,,,,,,,,,,,,,,,,,,,
,,,,,,,,,,,,l,Correct!,0,32,32,52,1,t2.png,t4.png,2,0.059078,19,Male,2020-08-27_16h31.11.451,torte-2b,2020.1.3,Win32,60,13330,0.803,,,,,,,,,,,,,,,,,,,,,,,,,,,,,,,,,,,,,,,,,,,,,,,,,,,,,,,,,,,,,,,,,
,,,,,,,,,,,,l,Incorrect,0,33,33,7,1,t4.png,t5.png,1,0.90025,19,Male,2020-08-27_16h31.11.451,torte-2b,2020.1.3,Win32,60,13330,0.949,,,,,,,,,,,,,,,,,,,,,,,,,,,,,,,,,,,,,,,,,,,,,,,,,,,,,,,,,,,,,,,,,
,,,,,,,,,,,,a,Incorrect,0,34,34,72,1,t4.png,t2.png,2,0.059078,19,Male,2020-08-27_16h31.11.451,torte-2b,2020.1.3,Win32,60,13330,0.731,,,,,,,,,,,,,,,,,,,,,,,,,,,,,,,,,,,,,,,,,,,,,,,,,,,,,,,,,,,,,,,,,
,,,,,,,,,,,,l,Incorrect,0,35,35,104,1,t2.png,t3.png,1,0.90855,19,Male,2020-08-27_16h31.11.451,torte-2b,2020.1.3,Win32,60,13330,1.052,,,,,,,,,,,,,,,,,,,,,,,,,,,,,,,,,,,,,,,,,,,,,,,,,,,,,,,,,,,,,,,,,
,,,,,,,,,,,,a,Incorrect,0,36,36,82,1,t5.png,t1.png,4,9.55E-11,19,Male,2020-08-27_16h31.11.451,torte-2b,2020.1.3,Win32,60,13330,1.069,,,,,,,,,,,,,,,,,,,,,,,,,,,,,,,,,,,,,,,,,,,,,,,,,,,,,,,,,,,,,,,,,
,,,,,,,,,,,,a,Incorrect,0,37,37,50,1,t5.png,t1.png,4,9.55E-11,19,Male,2020-08-27_16h31.11.451,torte-2b,2020.1.3,Win32,60,13330,1.066,,,,,,,,,,,,,,,,,,,,,,,,,,,,,,,,,,,,,,,,,,,,,,,,,,,,,,,,,,,,,,,,,
,,,,,,,,,,,,l,Incorrect,0,38,38,118,1,t5.png,t5.png,0,0.978,19,Male,2020-08-27_16h31.11.451,torte-2b,2020.1.3,Win32,60,13330,1.817,,,,,,,,,,,,,,,,,,,,,,,,,,,,,,,,,,,,,,,,,,,,,,,,,,,,,,,,,,,,,,,,,
,,,,,,,,,,,,l,Incorrect,0,39,39,44,1,t2.png,t3.png,1,0.909,19,Male,2020-08-27_16h31.11.451,torte-2b,2020.1.3,Win32,60,13330,1.283,,,,,,,,,,,,,,,,,,,,,,,,,,,,,,,,,,,,,,,,,,,,,,,,,,,,,,,,,,,,,,,,,
,,,,,,,,,,,,l,Incorrect,0,40,40,48,1,t5.png,t5.png,0,0.97829,19,Male,2020-08-27_16h31.11.451,torte-2b,2020.1.3,Win32,60,13330,1.465,,,,,,,,,,,,,,,,,,,,,,,,,,,,,,,,,,,,,,,,,,,,,,,,,,,,,,,,,,,,,,,,,
,,,,,,,,,,,,l,Incorrect,0,41,41,20,1,t2.png,t3.png,1,0.90855,19,Male,2020-08-27_16h31.11.451,torte-2b,2020.1.3,Win32,60,13330,0.865,,,,,,,,,,,,,,,,,,,,,,,,,,,,,,,,,,,,,,,,,,,,,,,,,,,,,,,,,,,,,,,,,
,,,,,,,,,,,,l,Correct!,0,42,42,57,1,t2.png,t4.png,2,0.059078,19,Male,2020-08-27_16h31.11.451,torte-2b,2020.1.3,Win32,60,13330,1.019,,,,,,,,,,,,,,,,,,,,,,,,,,,,,,,,,,,,,,,,,,,,,,,,,,,,,,,,,,,,,,,,,
,,,,,,,,,,,,a,Incorrect,0,43,43,36,1,t3.png,t1.png,2,0.0565,19,Male,2020-08-27_16h31.11.451,torte-2b,2020.1.3,Win32,60,13330,1.303,,,,,,,,,,,,,,,,,,,,,,,,,,,,,,,,,,,,,,,,,,,,,,,,,,,,,,,,,,,,,,,,,
,,,,,,,,,,,,a,Incorrect,0,44,44,103,1,t3.png,t1.png,2,0.056466,19,Male,2020-08-27_16h31.11.451,torte-2b,2020.1.3,Win32,60,13330,0.699,,,,,,,,,,,,,,,,,,,,,,,,,,,,,,,,,,,,,,,,,,,,,,,,,,,,,,,,,,,,,,,,,
,,,,,,,,,,,,l,Incorrect,0,45,45,34,1,t5.png,t4.png,1,0.9,19,Male,2020-08-27_16h31.11.451,torte-2b,2020.1.3,Win32,60,13330,0.664,,,,,,,,,,,,,,,,,,,,,,,,,,,,,,,,,,,,,,,,,,,,,,,,,,,,,,,,,,,,,,,,,
,,,,,,,,,,,,l,Incorrect,0,46,46,92,1,t2.png,t3.png,1,0.909,19,Male,2020-08-27_16h31.11.451,torte-2b,2020.1.3,Win32,60,13330,0.718,,,,,,,,,,,,,,,,,,,,,,,,,,,,,,,,,,,,,,,,,,,,,,,,,,,,,,,,,,,,,,,,,
,,,,,,,,,,,,a,Correct!,0,47,47,109,1,t5.png,t5.png,0,0.97829,19,Male,2020-08-27_16h31.11.451,torte-2b,2020.1.3,Win32,60,13330,1.068,,,,,,,,,,,,,,,,,,,,,,,,,,,,,,,,,,,,,,,,,,,,,,,,,,,,,,,,,,,,,,,,,
,,,,,,,,,,,,l,Incorrect,0,48,48,39,1,t3.png,t2.png,1,0.90855,19,Male,2020-08-27_16h31.11.451,torte-2b,2020.1.3,Win32,60,13330,1.167,,,,,,,,,,,,,,,,,,,,,,,,,,,,,,,,,,,,,,,,,,,,,,,,,,,,,,,,,,,,,,,,,
,,,,,,,,,,,,l,Correct!,0,49,49,24,1,t4.png,t2.png,2,0.059078,19,Male,2020-08-27_16h31.11.451,torte-2b,2020.1.3,Win32,60,13330,0.681,,,,,,,,,,,,,,,,,,,,,,,,,,,,,,,,,,,,,,,,,,,,,,,,,,,,,,,,,,,,,,,,,
,,,,,,,,,,,,a,Correct!,0,50,50,114,1,t2.png,t3.png,1,0.90855,19,Male,2020-08-27_16h31.11.451,torte-2b,2020.1.3,Win32,60,13330,1.381,,,,,,,,,,,,,,,,,,,,,,,,,,,,,,,,,,,,,,,,,,,,,,,,,,,,,,,,,,,,,,,,,
,,,,,,,,,,,,l,Incorrect,0,51,51,8,1,t3.png,t2.png,1,0.90855,19,Male,2020-08-27_16h31.11.451,torte-2b,2020.1.3,Win32,60,13330,0.782,,,,,,,,,,,,,,,,,,,,,,,,,,,,,,,,,,,,,,,,,,,,,,,,,,,,,,,,,,,,,,,,,
,,,,,,,,,,,,a,Correct!,0,52,52,25,1,t5.png,t5.png,0,0.97829,19,Male,2020-08-27_16h31.11.451,torte-2b,2020.1.3,Win32,60,13330,1.365,,,,,,,,,,,,,,,,,,,,,,,,,,,,,,,,,,,,,,,,,,,,,,,,,,,,,,,,,,,,,,,,,
,,,,,,,,,,,,a,Incorrect,0,53,53,54,1,t1.png,t5.png,4,9.55E-11,19,Male,2020-08-27_16h31.11.451,torte-2b,2020.1.3,Win32,60,13330,1.083,,,,,,,,,,,,,,,,,,,,,,,,,,,,,,,,,,,,,,,,,,,,,,,,,,,,,,,,,,,,,,,,,
,,,,,,,,,,,,a,Incorrect,0,54,54,56,1,t5.png,t1.png,4,9.55E-11,19,Male,2020-08-27_16h31.11.451,torte-2b,2020.1.3,Win32,60,13330,0.933,,,,,,,,,,,,,,,,,,,,,,,,,,,,,,,,,,,,,,,,,,,,,,,,,,,,,,,,,,,,,,,,,
,,,,,,,,,,,,l,Correct!,0,55,55,61,1,t1.png,t4.png,3,0.0000131,19,Male,2020-08-27_16h31.11.451,torte-2b,2020.1.3,Win32,60,13330,0.783,,,,,,,,,,,,,,,,,,,,,,,,,,,,,,,,,,,,,,,,,,,,,,,,,,,,,,,,,,,,,,,,,
,,,,,,,,,,,,a,Incorrect,0,56,56,98,1,t2.png,t4.png,2,0.0591,19,Male,2020-08-27_16h31.11.451,torte-2b,2020.1.3,Win32,60,13330,1.715,,,,,,,,,,,,,,,,,,,,,,,,,,,,,,,,,,,,,,,,,,,,,,,,,,,,,,,,,,,,,,,,,
,,,,,,,,,,,,l,Correct!,0,57,57,1,1,t2.png,t4.png,2,0.059078,19,Male,2020-08-27_16h31.11.451,torte-2b,2020.1.3,Win32,60,13330,1.217,,,,,,,,,,,,,,,,,,,,,,,,,,,,,,,,,,,,,,,,,,,,,,,,,,,,,,,,,,,,,,,,,
,,,,,,,,,,,,l,Correct!,0,58,58,60,1,t2.png,t4.png,2,0.059078,19,Male,2020-08-27_16h31.11.451,torte-2b,2020.1.3,Win32,60,13330,1.383,,,,,,,,,,,,,,,,,,,,,,,,,,,,,,,,,,,,,,,,,,,,,,,,,,,,,,,,,,,,,,,,,
,,,,,,,,,,,,a,Incorrect,0,59,59,19,1,t4.png,t2.png,2,0.059078,19,Male,2020-08-27_16h31.11.451,torte-2b,2020.1.3,Win32,60,13330,1.032,,,,,,,,,,,,,,,,,,,,,,,,,,,,,,,,,,,,,,,,,,,,,,,,,,,,,,,,,,,,,,,,,
,,,,,,,,,,,,a,Incorrect,0,60,60,102,1,t4.png,t2.png,2,0.059078,19,Male,2020-08-27_16h31.11.451,torte-2b,2020.1.3,Win32,60,13330,1.964,,,,,,,,,,,,,,,,,,,,,,,,,,,,,,,,,,,,,,,,,,,,,,,,,,,,,,,,,,,,,,,,,
,,,,,,,,,,,,l,Incorrect,0,61,61,63,1,t2.png,t3.png,1,0.909,19,Male,2020-08-27_16h31.11.451,torte-2b,2020.1.3,Win32,60,13330,0.882,,,,,,,,,,,,,,,,,,,,,,,,,,,,,,,,,,,,,,,,,,,,,,,,,,,,,,,,,,,,,,,,,
,,,,,,,,,,,,l,Incorrect,0,62,62,112,1,t1.png,t1.png,0,0.97829,19,Male,2020-08-27_16h31.11.451,torte-2b,2020.1.3,Win32,60,13330,1.437,,,,,,,,,,,,,,,,,,,,,,,,,,,,,,,,,,,,,,,,,,,,,,,,,,,,,,,,,,,,,,,,,
,,,,,,,,,,,,a,Incorrect,0,63,63,4,1,t1.png,t5.png,4,9.55E-11,19,Male,2020-08-27_16h31.11.451,torte-2b,2020.1.3,Win32,60,13330,1.282,,,,,,,,,,,,,,,,,,,,,,,,,,,,,,,,,,,,,,,,,,,,,,,,,,,,,,,,,,,,,,,,,
,,,,,,,,,,,,a,Incorrect,0,64,64,0,1,t5.png,t1.png,4,9.55E-11,19,Male,2020-08-27_16h31.11.451,torte-2b,2020.1.3,Win32,60,13330,1.564,,,,,,,,,,,,,,,,,,,,,,,,,,,,,,,,,,,,,,,,,,,,,,,,,,,,,,,,,,,,,,,,,
,,,,,,,,,,,,l,Incorrect,0,65,65,74,1,t5.png,t4.png,1,0.9,19,Male,2020-08-27_16h31.11.451,torte-2b,2020.1.3,Win32,60,13330,1.102,,,,,,,,,,,,,,,,,,,,,,,,,,,,,,,,,,,,,,,,,,,,,,,,,,,,,,,,,,,,,,,,,
,,,,,,,,,,,,a,Incorrect,0,66,66,38,1,t3.png,t1.png,2,0.056466,19,Male,2020-08-27_16h31.11.451,torte-2b,2020.1.3,Win32,60,13330,0.615,,,,,,,,,,,,,,,,,,,,,,,,,,,,,,,,,,,,,,,,,,,,,,,,,,,,,,,,,,,,,,,,,
,,,,,,,,,,,,a,Incorrect,0,67,67,33,1,t5.png,t1.png,4,9.55E-11,19,Male,2020-08-27_16h31.11.451,torte-2b,2020.1.3,Win32,60,13330,0.699,,,,,,,,,,,,,,,,,,,,,,,,,,,,,,,,,,,,,,,,,,,,,,,,,,,,,,,,,,,,,,,,,
,,,,,,,,,,,,l,Incorrect,0,68,68,55,1,t2.png,t4.png,2,0.059078,19,Male,2020-08-27_16h31.11.451,torte-2b,2020.1.3,Win32,60,13330,0.88,,,,,,,,,,,,,,,,,,,,,,,,,,,,,,,,,,,,,,,,,,,,,,,,,,,,,,,,,,,,,,,,,
,,,,,,,,,,,,l,Correct!,0,69,69,18,1,t4.png,t5.png,1,0.90025,19,Male,2020-08-27_16h31.11.451,torte-2b,2020.1.3,Win32,60,13330,0.316,,,,,,,,,,,,,,,,,,,,,,,,,,,,,,,,,,,,,,,,,,,,,,,,,,,,,,,,,,,,,,,,,
,,,,,,,,,,,,l,Correct!,0,70,70,119,1,t1.png,t5.png,4,9.55E-11,19,Male,2020-08-27_16h31.11.451,torte-2b,2020.1.3,Win32,60,13330,0.832,,,,,,,,,,,,,,,,,,,,,,,,,,,,,,,,,,,,,,,,,,,,,,,,,,,,,,,,,,,,,,,,,
,,,,,,,,,,,,l,Correct!,0,71,71,89,1,t1.png,t4.png,3,0.0000131,19,Male,2020-08-27_16h31.11.451,torte-2b,2020.1.3,Win32,60,13330,0.253,,,,,,,,,,,,,,,,,,,,,,,,,,,,,,,,,,,,,,,,,,,,,,,,,,,,,,,,,,,,,,,,,
,,,,,,,,,,,,a,Incorrect,0,72,72,11,1,t1.png,t4.png,3,0.0000131,19,Male,2020-08-27_16h31.11.451,torte-2b,2020.1.3,Win32,60,13330,0.551,,,,,,,,,,,,,,,,,,,,,,,,,,,,,,,,,,,,,,,,,,,,,,,,,,,,,,,,,,,,,,,,,
,,,,,,,,,,,,l,Correct!,0,73,73,93,1,t2.png,t4.png,2,0.059078,19,Male,2020-08-27_16h31.11.451,torte-2b,2020.1.3,Win32,60,13330,0.651,,,,,,,,,,,,,,,,,,,,,,,,,,,,,,,,,,,,,,,,,,,,,,,,,,,,,,,,,,,,,,,,,
,,,,,,,,,,,,l,Correct!,0,74,74,99,1,t1.png,t5.png,4,9.55E-11,19,Male,2020-08-27_16h31.11.451,torte-2b,2020.1.3,Win32,60,13330,0.567,,,,,,,,,,,,,,,,,,,,,,,,,,,,,,,,,,,,,,,,,,,,,,,,,,,,,,,,,,,,,,,,,
,,,,,,,,,,,,l,Correct!,0,75,75,31,1,t1.png,t5.png,4,9.55E-11,19,Male,2020-08-27_16h31.11.451,torte-2b,2020.1.3,Win32,60,13330,0.631,,,,,,,,,,,,,,,,,,,,,,,,,,,,,,,,,,,,,,,,,,,,,,,,,,,,,,,,,,,,,,,,,
,,,,,,,,,,,,a,Incorrect,0,76,76,12,1,t5.png,t1.png,4,9.55E-11,19,Male,2020-08-27_16h31.11.451,torte-2b,2020.1.3,Win32,60,13330,0.703,,,,,,,,,,,,,,,,,,,,,,,,,,,,,,,,,,,,,,,,,,,,,,,,,,,,,,,,,,,,,,,,,
,,,,,,,,,,,,a,Correct!,0,77,77,76,1,t3.png,t2.png,1,0.90855,19,Male,2020-08-27_16h31.11.451,torte-2b,2020.1.3,Win32,60,13330,1.429,,,,,,,,,,,,,,,,,,,,,,,,,,,,,,,,,,,,,,,,,,,,,,,,,,,,,,,,,,,,,,,,,
,,,,,,,,,,,,a,Correct!,0,78,78,2,1,t3.png,t2.png,1,0.90855,19,Male,2020-08-27_16h31.11.451,torte-2b,2020.1.3,Win32,60,13330,1.664,,,,,,,,,,,,,,,,,,,,,,,,,,,,,,,,,,,,,,,,,,,,,,,,,,,,,,,,,,,,,,,,,
,,,,,,,,,,,,a,Incorrect,0,79,79,73,1,t4.png,t2.png,2,0.059078,19,Male,2020-08-27_16h31.11.451,torte-2b,2020.1.3,Win32,60,13330,1.263,,,,,,,,,,,,,,,,,,,,,,,,,,,,,,,,,,,,,,,,,,,,,,,,,,,,,,,,,,,,,,,,,
,,,,,,,,,,,,l,Correct!,0,80,80,91,1,t1.png,t4.png,3,0.0000131,19,Male,2020-08-27_16h31.11.451,torte-2b,2020.1.3,Win32,60,13330,0.968,,,,,,,,,,,,,,,,,,,,,,,,,,,,,,,,,,,,,,,,,,,,,,,,,,,,,,,,,,,,,,,,,
,,,,,,,,,,,,,Too slow :(,0,81,81,66,1,t4.png,t5.png,1,0.9,19,Male,2020-08-27_16h31.11.451,torte-2b,2020.1.3,Win32,60,13330,,,,,,,,,,,,,,,,,,,,,,,,,,,,,,,,,,,,,,,,,,,,,,,,,,,,,,,,,,,,,,,,,,
,,,,,,,,,,,,l,Incorrect,0,82,82,107,1,t1.png,t1.png,0,0.978,19,Male,2020-08-27_16h31.11.451,torte-2b,2020.1.3,Win32,60,13330,1.065,,,,,,,,,,,,,,,,,,,,,,,,,,,,,,,,,,,,,,,,,,,,,,,,,,,,,,,,,,,,,,,,,
,,,,,,,,,,,,a,Correct!,0,83,83,70,1,t5.png,t5.png,0,0.978,19,Male,2020-08-27_16h31.11.451,torte-2b,2020.1.3,Win32,60,13330,1.005,,,,,,,,,,,,,,,,,,,,,,,,,,,,,,,,,,,,,,,,,,,,,,,,,,,,,,,,,,,,,,,,,
,,,,,,,,,,,,,Too slow :(,0,84,84,67,1,t1.png,t5.png,4,9.55E-11,19,Male,2020-08-27_16h31.11.451,torte-2b,2020.1.3,Win32,60,13330,,,,,,,,,,,,,,,,,,,,,,,,,,,,,,,,,,,,,,,,,,,,,,,,,,,,,,,,,,,,,,,,,,
,,,,,,,,,,,,l,Incorrect,0,85,85,64,1,t1.png,t1.png,0,0.978,19,Male,2020-08-27_16h31.11.451,torte-2b,2020.1.3,Win32,60,13330,1.064,,,,,,,,,,,,,,,,,,,,,,,,,,,,,,,,,,,,,,,,,,,,,,,,,,,,,,,,,,,,,,,,,
,,,,,,,,,,,,a,Incorrect,0,86,86,46,1,t4.png,t2.png,2,0.059078,19,Male,2020-08-27_16h31.11.451,torte-2b,2020.1.3,Win32,60,13330,0.851,,,,,,,,,,,,,,,,,,,,,,,,,,,,,,,,,,,,,,,,,,,,,,,,,,,,,,,,,,,,,,,,,
,,,,,,,,,,,,a,Correct!,0,87,87,77,1,t1.png,t1.png,0,0.97829,19,Male,2020-08-27_16h31.11.451,torte-2b,2020.1.3,Win32,60,13330,1.518,,,,,,,,,,,,,,,,,,,,,,,,,,,,,,,,,,,,,,,,,,,,,,,,,,,,,,,,,,,,,,,,,
,,,,,,,,,,,,a,Correct!,0,88,88,113,1,t5.png,t4.png,1,0.9,19,Male,2020-08-27_16h31.11.451,torte-2b,2020.1.3,Win32,60,13330,0.782,,,,,,,,,,,,,,,,,,,,,,,,,,,,,,,,,,,,,,,,,,,,,,,,,,,,,,,,,,,,,,,,,
,,,,,,,,,,,,l,Correct!,0,89,89,117,1,t1.png,t5.png,4,9.55E-11,19,Male,2020-08-27_16h31.11.451,torte-2b,2020.1.3,Win32,60,13330,1.182,,,,,,,,,,,,,,,,,,,,,,,,,,,,,,,,,,,,,,,,,,,,,,,,,,,,,,,,,,,,,,,,,
,,,,,,,,,,,,a,Correct!,0,90,90,71,1,t5.png,t5.png,0,0.97829,19,Male,2020-08-27_16h31.11.451,torte-2b,2020.1.3,Win32,60,13330,1.266,,,,,,,,,,,,,,,,,,,,,,,,,,,,,,,,,,,,,,,,,,,,,,,,,,,,,,,,,,,,,,,,,
,,,,,,,,,,,,a,Incorrect,0,91,91,53,1,t3.png,t1.png,2,0.056466,19,Male,2020-08-27_16h31.11.451,torte-2b,2020.1.3,Win32,60,13330,1.049,,,,,,,,,,,,,,,,,,,,,,,,,,,,,,,,,,,,,,,,,,,,,,,,,,,,,,,,,,,,,,,,,
,,,,,,,,,,,,l,Correct!,0,92,92,68,1,t1.png,t4.png,3,0.0000131,19,Male,2020-08-27_16h31.11.451,torte-2b,2020.1.3,Win32,60,13330,0.932,,,,,,,,,,,,,,,,,,,,,,,,,,,,,,,,,,,,,,,,,,,,,,,,,,,,,,,,,,,,,,,,,
,,,,,,,,,,,,a,Incorrect,0,93,93,26,1,t4.png,t2.png,2,0.0591,19,Male,2020-08-27_16h31.11.451,torte-2b,2020.1.3,Win32,60,13330,1.464,,,,,,,,,,,,,,,,,,,,,,,,,,,,,,,,,,,,,,,,,,,,,,,,,,,,,,,,,,,,,,,,,
,,,,,,,,,,,,a,Incorrect,0,94,94,69,1,t4.png,t2.png,2,0.059078,19,Male,2020-08-27_16h31.11.451,torte-2b,2020.1.3,Win32,60,13330,0.749,,,,,,,,,,,,,,,,,,,,,,,,,,,,,,,,,,,,,,,,,,,,,,,,,,,,,,,,,,,,,,,,,
,,,,,,,,,,,,l,Correct!,0,95,95,3,1,t1.png,t5.png,4,9.55E-11,19,Male,2020-08-27_16h31.11.451,torte-2b,2020.1.3,Win32,60,13330,0.614,,,,,,,,,,,,,,,,,,,,,,,,,,,,,,,,,,,,,,,,,,,,,,,,,,,,,,,,,,,,,,,,,
,,,,,,,,,,,,a,Correct!,0,96,96,41,1,t3.png,t2.png,1,0.90855,19,Male,2020-08-27_16h31.11.451,torte-2b,2020.1.3,Win32,60,13330,1.001,,,,,,,,,,,,,,,,,,,,,,,,,,,,,,,,,,,,,,,,,,,,,,,,,,,,,,,,,,,,,,,,,
,,,,,,,,,,,,l,Incorrect,0,97,97,58,1,t5.png,t4.png,1,0.90025,19,Male,2020-08-27_16h31.11.451,torte-2b,2020.1.3,Win32,60,13330,1.099,,,,,,,,,,,,,,,,,,,,,,,,,,,,,,,,,,,,,,,,,,,,,,,,,,,,,,,,,,,,,,,,,
,,,,,,,,,,,,,Too slow :(,0,98,98,37,1,t1.png,t4.png,3,0.0000131,19,Male,2020-08-27_16h31.11.451,torte-2b,2020.1.3,Win32,60,13330,,,,,,,,,,,,,,,,,,,,,,,,,,,,,,,,,,,,,,,,,,,,,,,,,,,,,,,,,,,,,,,,,,
,,,,,,,,,,,,l,Incorrect,0,99,99,110,1,t4.png,t5.png,1,0.90025,19,Male,2020-08-27_16h31.11.451,torte-2b,2020.1.3,Win32,60,13330,0.936,,,,,,,,,,,,,,,,,,,,,,,,,,,,,,,,,,,,,,,,,,,,,,,,,,,,,,,,,,,,,,,,,
,,,,,,,,,,,,l,Incorrect,0,100,100,9,1,t4.png,t5.png,1,0.9,19,Male,2020-08-27_16h31.11.451,torte-2b,2020.1.3,Win32,60,13330,0.63,,,,,,,,,,,,,,,,,,,,,,,,,,,,,,,,,,,,,,,,,,,,,,,,,,,,,,,,,,,,,,,,,
,,,,,,,,,,,,a,Correct!,0,101,101,75,1,t1.png,t1.png,0,0.97829,19,Male,2020-08-27_16h31.11.451,torte-2b,2020.1.3,Win32,60,13330,0.898,,,,,,,,,,,,,,,,,,,,,,,,,,,,,,,,,,,,,,,,,,,,,,,,,,,,,,,,,,,,,,,,,
,,,,,,,,,,,,l,Incorrect,0,102,102,95,1,t1.png,t1.png,0,0.978,19,Male,2020-08-27_16h31.11.451,torte-2b,2020.1.3,Win32,60,13330,0.982,,,,,,,,,,,,,,,,,,,,,,,,,,,,,,,,,,,,,,,,,,,,,,,,,,,,,,,,,,,,,,,,,
,,,,,,,,,,,,a,Correct!,0,103,103,96,1,t1.png,t1.png,0,0.97829,19,Male,2020-08-27_16h31.11.451,torte-2b,2020.1.3,Win32,60,13330,1.181,,,,,,,,,,,,,,,,,,,,,,,,,,,,,,,,,,,,,,,,,,,,,,,,,,,,,,,,,,,,,,,,,
,,,,,,,,,,,,a,Incorrect,0,104,104,108,1,t5.png,t1.png,4,9.55E-11,19,Male,2020-08-27_16h31.11.451,torte-2b,2020.1.3,Win32,60,13330,0.938,,,,,,,,,,,,,,,,,,,,,,,,,,,,,,,,,,,,,,,,,,,,,,,,,,,,,,,,,,,,,,,,,
,,,,,,,,,,,,l,Incorrect,0,105,105,97,1,t5.png,t5.png,0,0.97829,19,Male,2020-08-27_16h31.11.451,torte-2b,2020.1.3,Win32,60,13330,1.229,,,,,,,,,,,,,,,,,,,,,,,,,,,,,,,,,,,,,,,,,,,,,,,,,,,,,,,,,,,,,,,,,
,,,,,,,,,,,,l,Incorrect,0,106,106,106,1,t2.png,t3.png,1,0.90855,19,Male,2020-08-27_16h31.11.451,torte-2b,2020.1.3,Win32,60,13330,1.4,,,,,,,,,,,,,,,,,,,,,,,,,,,,,,,,,,,,,,,,,,,,,,,,,,,,,,,,,,,,,,,,,
,,,,,,,,,,,,l,Incorrect,0,107,107,22,1,t2.png,t3.png,1,0.90855,19,Male,2020-08-27_16h31.11.451,torte-2b,2020.1.3,Win32,60,13330,0.884,,,,,,,,,,,,,,,,,,,,,,,,,,,,,,,,,,,,,,,,,,,,,,,,,,,,,,,,,,,,,,,,,
,,,,,,,,,,,,a,Correct!,0,108,108,29,1,t5.png,t5.png,0,0.97829,19,Male,2020-08-27_16h31.11.451,torte-2b,2020.1.3,Win32,60,13330,0.584,,,,,,,,,,,,,,,,,,,,,,,,,,,,,,,,,,,,,,,,,,,,,,,,,,,,,,,,,,,,,,,,,
,,,,,,,,,,,,a,Incorrect,0,109,109,30,1,t3.png,t1.png,2,0.056466,19,Male,2020-08-27_16h31.11.451,torte-2b,2020.1.3,Win32,60,13330,0.818,,,,,,,,,,,,,,,,,,,,,,,,,,,,,,,,,,,,,,,,,,,,,,,,,,,,,,,,,,,,,,,,,
,,,,,,,,,,,,l,Correct!,0,110,110,17,1,t1.png,t4.png,3,0.0000131,19,Male,2020-08-27_16h31.11.451,torte-2b,2020.1.3,Win32,60,13330,0.664,,,,,,,,,,,,,,,,,,,,,,,,,,,,,,,,,,,,,,,,,,,,,,,,,,,,,,,,,,,,,,,,,
,,,,,,,,,,,,a,Correct!,0,111,111,85,1,t3.png,t2.png,1,0.90855,19,Male,2020-08-27_16h31.11.451,torte-2b,2020.1.3,Win32,60,13330,0.606,,,,,,,,,,,,,,,,,,,,,,,,,,,,,,,,,,,,,,,,,,,,,,,,,,,,,,,,,,,,,,,,,
,,,,,,,,,,,,l,Correct!,0,112,112,6,1,t1.png,t4.png,3,0.0000131,19,Male,2020-08-27_16h31.11.451,torte-2b,2020.1.3,Win32,60,13330,0.701,,,,,,,,,,,,,,,,,,,,,,,,,,,,,,,,,,,,,,,,,,,,,,,,,,,,,,,,,,,,,,,,,
,,,,,,,,,,,,l,Correct!,0,113,113,40,1,t1.png,t5.png,4,9.55E-11,19,Male,2020-08-27_16h31.11.451,torte-2b,2020.1.3,Win32,60,13330,0.669,,,,,,,,,,,,,,,,,,,,,,,,,,,,,,,,,,,,,,,,,,,,,,,,,,,,,,,,,,,,,,,,,
,,,,,,,,,,,,l,Incorrect,0,114,114,23,1,t5.png,t4.png,1,0.90025,19,Male,2020-08-27_16h31.11.451,torte-2b,2020.1.3,Win32,60,13330,1.601,,,,,,,,,,,,,,,,,,,,,,,,,,,,,,,,,,,,,,,,,,,,,,,,,,,,,,,,,,,,,,,,,
,,,,,,,,,,,,a,Incorrect,0,115,115,111,1,t5.png,t1.png,4,9.55E-11,19,Male,2020-08-27_16h31.11.451,torte-2b,2020.1.3,Win32,60,13330,1.002,,,,,,,,,,,,,,,,,,,,,,,,,,,,,,,,,,,,,,,,,,,,,,,,,,,,,,,,,,,,,,,,,
,,,,,,,,,,,,l,Incorrect,0,116,116,105,1,t3.png,t2.png,1,0.90855,19,Male,2020-08-27_16h31.11.451,torte-2b,2020.1.3,Win32,60,13330,1.684,,,,,,,,,,,,,,,,,,,,,,,,,,,,,,,,,,,,,,,,,,,,,,,,,,,,,,,,,,,,,,,,,
,,,,,,,,,,,,a,Correct!,0,117,117,15,1,t3.png,t2.png,1,0.90855,19,Male,2020-08-27_16h31.11.451,torte-2b,2020.1.3,Win32,60,13330,1.218,,,,,,,,,,,,,,,,,,,,,,,,,,,,,,,,,,,,,,,,,,,,,,,,,,,,,,,,,,,,,,,,,
,,,,,,,,,,,,l,Incorrect,0,118,118,116,1,t5.png,t4.png,1,0.90025,19,Male,2020-08-27_16h31.11.451,torte-2b,2020.1.3,Win32,60,13330,1.702,,,,,,,,,,,,,,,,,,,,,,,,,,,,,,,,,,,,,,,,,,,,,,,,,,,,,,,,,,,,,,,,,
,,,,,,,,,,,,l,Correct!,0,119,119,80,1,t1.png,t4.png,3,0.0000131,19,Male,2020-08-27_16h31.11.451,torte-2b,2020.1.3,Win32,60,13330,0.834,,,,,,,,,,,,,,,,,,,,,,,,,,,,,,,,,,,,,,,,,,,,,,,,,,,,,,,,,,,,,,,,,
,,,,,,,,,,,,a,Correct!,,,,,,t4.png,t2.png,2,0.059078,19,Male,2020-08-27_16h31.11.451,torte-2b,2020.1.3,Win32,60,13330,0.732,space,1.937,space,16.801,0,0,0,86,1,,,,,,,,,,,,,,,,,,,,,,,,,,,,,,,,,,,,,,,,,,,,,,,,,,,,,,,,
,,,,,,,,,,,,l,Incorrect,,,,,,t4.png,t5.png,1,0.90025,19,Male,2020-08-27_16h31.11.451,torte-2b,2020.1.3,Win32,60,13330,0.834,,,,,0,1,1,47,1,,,,,,,,,,,,,,,,,,,,,,,,,,,,,,,,,,,,,,,,,,,,,,,,,,,,,,,,
,,,,,,,,,,,,a,Incorrect,,,,,,t3.png,t1.png,2,0.056466,19,Male,2020-08-27_16h31.11.451,torte-2b,2020.1.3,Win32,60,13330,0.802,,,,,0,2,2,32,1,,,,,,,,,,,,,,,,,,,,,,,,,,,,,,,,,,,,,,,,,,,,,,,,,,,,,,,,
,,,,,,,,,,,,l,Correct!,,,,,,t1.png,t5.png,4,9.55E-11,19,Male,2020-08-27_16h31.11.451,torte-2b,2020.1.3,Win32,60,13330,0.599,,,,,0,3,3,55,1,,,,,,,,,,,,,,,,,,,,,,,,,,,,,,,,,,,,,,,,,,,,,,,,,,,,,,,,
,,,,,,,,,,,,a,Correct!,,,,,,t4.png,t4.png,0,0.98115,19,Male,2020-08-27_16h31.11.451,torte-2b,2020.1.3,Win32,60,13330,1.219,,,,,0,4,4,79,1,,,,,,,,,,,,,,,,,,,,,,,,,,,,,,,,,,,,,,,,,,,,,,,,,,,,,,,,
,,,,,,,,,,,,a,Correct!,,,,,,t2.png,t1.png,1,0.90025,19,Male,2020-08-27_16h31.11.451,torte-2b,2020.1.3,Win32,60,13330,1.584,,,,,0,5,5,4,1,,,,,,,,,,,,,,,,,,,,,,,,,,,,,,,,,,,,,,,,,,,,,,,,,,,,,,,,
,,,,,,,,,,,,a,Incorrect,,,,,,t4.png,t2.png,2,0.0591,19,Male,2020-08-27_16h31.11.451,torte-2b,2020.1.3,Win32,60,13330,0.777,,,,,0,6,6,36,1,,,,,,,,,,,,,,,,,,,,,,,,,,,,,,,,,,,,,,,,,,,,,,,,,,,,,,,,
,,,,,,,,,,,,l,Correct!,,,,,,t1.png,t3.png,2,0.056466,19,Male,2020-08-27_16h31.11.451,torte-2b,2020.1.3,Win32,60,13330,1.036,,,,,0,7,7,99,1,,,,,,,,,,,,,,,,,,,,,,,,,,,,,,,,,,,,,,,,,,,,,,,,,,,,,,,,
,,,,,,,,,,,,l,Correct!,,,,,,t5.png,t3.png,2,0.056466,19,Male,2020-08-27_16h31.11.451,torte-2b,2020.1.3,Win32,60,13330,1.216,,,,,0,8,8,114,1,,,,,,,,,,,,,,,,,,,,,,,,,,,,,,,,,,,,,,,,,,,,,,,,,,,,,,,,
,,,,,,,,,,,,a,Incorrect,,,,,,t5.png,t2.png,3,0.0000131,19,Male,2020-08-27_16h31.11.451,torte-2b,2020.1.3,Win32,60,13330,1.016,,,,,0,9,9,119,1,,,,,,,,,,,,,,,,,,,,,,,,,,,,,,,,,,,,,,,,,,,,,,,,,,,,,,,,
,,,,,,,,,,,,l,Correct!,,,,,,t2.png,t5.png,3,0.0000131,19,Male,2020-08-27_16h31.11.451,torte-2b,2020.1.3,Win32,60,13330,1.23,,,,,0,10,10,95,1,,,,,,,,,,,,,,,,,,,,,,,,,,,,,,,,,,,,,,,,,,,,,,,,,,,,,,,,
,,,,,,,,,,,,a,Correct!,,,,,,t5.png,t4.png,1,0.9,19,Male,2020-08-27_16h31.11.451,torte-2b,2020.1.3,Win32,60,13330,1.166,,,,,0,11,11,76,1,,,,,,,,,,,,,,,,,,,,,,,,,,,,,,,,,,,,,,,,,,,,,,,,,,,,,,,,
,,,,,,,,,,,,a,Correct!,,,,,,t3.png,t2.png,1,0.90855,19,Male,2020-08-27_16h31.11.451,torte-2b,2020.1.3,Win32,60,13330,1.036,,,,,0,12,12,18,1,,,,,,,,,,,,,,,,,,,,,,,,,,,,,,,,,,,,,,,,,,,,,,,,,,,,,,,,
,,,,,,,,,,,,a,Correct!,,,,,,t2.png,t2.png,0,0.98115,19,Male,2020-08-27_16h31.11.451,torte-2b,2020.1.3,Win32,60,13330,1.45,,,,,0,13,13,59,1,,,,,,,,,,,,,,,,,,,,,,,,,,,,,,,,,,,,,,,,,,,,,,,,,,,,,,,,
,,,,,,,,,,,,a,Correct!,,,,,,t1.png,t1.png,0,0.978,19,Male,2020-08-27_16h31.11.451,torte-2b,2020.1.3,Win32,60,13330,1.064,,,,,0,14,14,54,1,,,,,,,,,,,,,,,,,,,,,,,,,,,,,,,,,,,,,,,,,,,,,,,,,,,,,,,,
,,,,,,,,,,,,l,Correct!,,,,,,t1.png,t5.png,4,9.55E-11,19,Male,2020-08-27_16h31.11.451,torte-2b,2020.1.3,Win32,60,13330,0.716,,,,,0,15,15,41,1,,,,,,,,,,,,,,,,,,,,,,,,,,,,,,,,,,,,,,,,,,,,,,,,,,,,,,,,
,,,,,,,,,,,,a,Correct!,,,,,,t3.png,t2.png,1,0.90855,19,Male,2020-08-27_16h31.11.451,torte-2b,2020.1.3,Win32,60,13330,0.684,,,,,0,16,16,97,1,,,,,,,,,,,,,,,,,,,,,,,,,,,,,,,,,,,,,,,,,,,,,,,,,,,,,,,,
,,,,,,,,,,,,a,Incorrect,,,,,,t5.png,t1.png,4,9.55E-11,19,Male,2020-08-27_16h31.11.451,torte-2b,2020.1.3,Win32,60,13330,0.688,,,,,0,17,17,43,1,,,,,,,,,,,,,,,,,,,,,,,,,,,,,,,,,,,,,,,,,,,,,,,,,,,,,,,,
,,,,,,,,,,,,a,Incorrect,,,,,,t4.png,t1.png,3,0.0000131,19,Male,2020-08-27_16h31.11.451,torte-2b,2020.1.3,Win32,60,13330,0.553,,,,,0,18,18,93,1,,,,,,,,,,,,,,,,,,,,,,,,,,,,,,,,,,,,,,,,,,,,,,,,,,,,,,,,
,,,,,,,,,,,,a,Correct!,,,,,,t2.png,t2.png,0,0.98115,19,Male,2020-08-27_16h31.11.451,torte-2b,2020.1.3,Win32,60,13330,1.217,,,,,0,19,19,2,1,,,,,,,,,,,,,,,,,,,,,,,,,,,,,,,,,,,,,,,,,,,,,,,,,,,,,,,,
,,,,,,,,,,,,a,Incorrect,,,,,,t4.png,t2.png,2,0.059078,19,Male,2020-08-27_16h31.11.451,torte-2b,2020.1.3,Win32,60,13330,0.569,,,,,0,20,20,110,1,,,,,,,,,,,,,,,,,,,,,,,,,,,,,,,,,,,,,,,,,,,,,,,,,,,,,,,,
,,,,,,,,,,,,a,Incorrect,,,,,,t5.png,t1.png,4,9.55E-11,19,Male,2020-08-27_16h31.11.451,torte-2b,2020.1.3,Win32,60,13330,0.72,,,,,0,21,21,71,1,,,,,,,,,,,,,,,,,,,,,,,,,,,,,,,,,,,,,,,,,,,,,,,,,,,,,,,,
,,,,,,,,,,,,l,Incorrect,,,,,,t2.png,t3.png,1,0.90855,19,Male,2020-08-27_16h31.11.451,torte-2b,2020.1.3,Win32,60,13330,0.738,,,,,0,22,22,10,1,,,,,,,,,,,,,,,,,,,,,,,,,,,,,,,,,,,,,,,,,,,,,,,,,,,,,,,,
,,,,,,,,,,,,l,Incorrect,,,,,,t1.png,t2.png,1,0.9,19,Male,2020-08-27_16h31.11.451,torte-2b,2020.1.3,Win32,60,13330,0.717,,,,,0,23,23,1,1,,,,,,,,,,,,,,,,,,,,,,,,,,,,,,,,,,,,,,,,,,,,,,,,,,,,,,,,
,,,,,,,,,,,,l,Correct!,,,,,,t1.png,t3.png,2,0.056466,19,Male,2020-08-27_16h31.11.451,torte-2b,2020.1.3,Win32,60,13330,0.647,,,,,0,24,24,60,1,,,,,,,,,,,,,,,,,,,,,,,,,,,,,,,,,,,,,,,,,,,,,,,,,,,,,,,,
,,,,,,,,,,,,a,Correct!,,,,,,t4.png,t4.png,0,0.98115,19,Male,2020-08-27_16h31.11.451,torte-2b,2020.1.3,Win32,60,13330,1.232,,,,,0,25,25,90,1,,,,,,,,,,,,,,,,,,,,,,,,,,,,,,,,,,,,,,,,,,,,,,,,,,,,,,,,
,,,,,,,,,,,,a,Incorrect,,,,,,t5.png,t3.png,2,0.056466,19,Male,2020-08-27_16h31.11.451,torte-2b,2020.1.3,Win32,60,13330,0.84,,,,,0,26,26,56,1,,,,,,,,,,,,,,,,,,,,,,,,,,,,,,,,,,,,,,,,,,,,,,,,,,,,,,,,
,,,,,,,,,,,,l,Incorrect,,,,,,t3.png,t4.png,1,0.90855,19,Male,2020-08-27_16h31.11.451,torte-2b,2020.1.3,Win32,60,13330,0.751,,,,,0,27,27,84,1,,,,,,,,,,,,,,,,,,,,,,,,,,,,,,,,,,,,,,,,,,,,,,,,,,,,,,,,
,,,,,,,,,,,,l,Incorrect,,,,,,t1.png,t2.png,1,0.90025,19,Male,2020-08-27_16h31.11.451,torte-2b,2020.1.3,Win32,60,13330,0.734,,,,,0,28,28,105,1,,,,,,,,,,,,,,,,,,,,,,,,,,,,,,,,,,,,,,,,,,,,,,,,,,,,,,,,
,,,,,,,,,,,,a,Incorrect,,,,,,t5.png,t1.png,4,9.55E-11,19,Male,2020-08-27_16h31.11.451,torte-2b,2020.1.3,Win32,60,13330,0.866,,,,,0,29,29,102,1,,,,,,,,,,,,,,,,,,,,,,,,,,,,,,,,,,,,,,,,,,,,,,,,,,,,,,,,
,,,,,,,,,,,,a,Correct!,,,,,,t5.png,t5.png,0,0.97829,19,Male,2020-08-27_16h31.11.451,torte-2b,2020.1.3,Win32,60,13330,1.068,,,,,0,30,30,73,1,,,,,,,,,,,,,,,,,,,,,,,,,,,,,,,,,,,,,,,,,,,,,,,,,,,,,,,,
,,,,,,,,,,,,a,Correct!,,,,,,t2.png,t2.png,0,0.98115,19,Male,2020-08-27_16h31.11.451,torte-2b,2020.1.3,Win32,60,13330,0.951,,,,,0,31,31,7,1,,,,,,,,,,,,,,,,,,,,,,,,,,,,,,,,,,,,,,,,,,,,,,,,,,,,,,,,
,,,,,,,,,,,,a,Correct!,,,,,,t2.png,t1.png,1,0.90025,19,Male,2020-08-27_16h31.11.451,torte-2b,2020.1.3,Win32,60,13330,0.749,,,,,0,32,32,19,1,,,,,,,,,,,,,,,,,,,,,,,,,,,,,,,,,,,,,,,,,,,,,,,,,,,,,,,,
,,,,,,,,,,,,a,Correct!,,,,,,t5.png,t5.png,0,0.978,19,Male,2020-08-27_16h31.11.451,torte-2b,2020.1.3,Win32,60,13330,0.866,,,,,0,33,33,117,1,,,,,,,,,,,,,,,,,,,,,,,,,,,,,,,,,,,,,,,,,,,,,,,,,,,,,,,,
,,,,,,,,,,,,l,Incorrect,,,,,,t4.png,t5.png,1,0.9,19,Male,2020-08-27_16h31.11.451,torte-2b,2020.1.3,Win32,60,13330,0.984,,,,,0,34,34,115,1,,,,,,,,,,,,,,,,,,,,,,,,,,,,,,,,,,,,,,,,,,,,,,,,,,,,,,,,
,,,,,,,,,,,,a,Correct!,,,,,,t2.png,t2.png,0,0.98115,19,Male,2020-08-27_16h31.11.451,torte-2b,2020.1.3,Win32,60,13330,1.218,,,,,0,35,35,57,1,,,,,,,,,,,,,,,,,,,,,,,,,,,,,,,,,,,,,,,,,,,,,,,,,,,,,,,,
,,,,,,,,,,,,a,Incorrect,,,,,,t5.png,t1.png,4,9.55E-11,19,Male,2020-08-27_16h31.11.451,torte-2b,2020.1.3,Win32,60,13330,0.655,,,,,0,36,36,100,1,,,,,,,,,,,,,,,,,,,,,,,,,,,,,,,,,,,,,,,,,,,,,,,,,,,,,,,,
,,,,,,,,,,,,a,Incorrect,,,,,,t3.png,t1.png,2,0.056466,19,Male,2020-08-27_16h31.11.451,torte-2b,2020.1.3,Win32,60,13330,0.767,,,,,0,37,37,29,1,,,,,,,,,,,,,,,,,,,,,,,,,,,,,,,,,,,,,,,,,,,,,,,,,,,,,,,,
,,,,,,,,,,,,l,Incorrect,,,,,,t1.png,t2.png,1,0.90025,19,Male,2020-08-27_16h31.11.451,torte-2b,2020.1.3,Win32,60,13330,0.735,,,,,0,38,38,112,1,,,,,,,,,,,,,,,,,,,,,,,,,,,,,,,,,,,,,,,,,,,,,,,,,,,,,,,,
,,,,,,,,,,,,l,Correct!,,,,,,t1.png,t4.png,3,0.0000131,19,Male,2020-08-27_16h31.11.451,torte-2b,2020.1.3,Win32,60,13330,0.683,,,,,0,39,39,107,1,,,,,,,,,,,,,,,,,,,,,,,,,,,,,,,,,,,,,,,,,,,,,,,,,,,,,,,,
,,,,,,,,,,,,l,Correct!,,,,,,t2.png,t4.png,2,0.059078,19,Male,2020-08-27_16h31.11.451,torte-2b,2020.1.3,Win32,60,13330,0.899,,,,,0,40,40,24,1,,,,,,,,,,,,,,,,,,,,,,,,,,,,,,,,,,,,,,,,,,,,,,,,,,,,,,,,
,,,,,,,,,,,,l,Incorrect,,,,,,t1.png,t1.png,0,0.97829,19,Male,2020-08-27_16h31.11.451,torte-2b,2020.1.3,Win32,60,13330,1.417,,,,,0,41,41,9,1,,,,,,,,,,,,,,,,,,,,,,,,,,,,,,,,,,,,,,,,,,,,,,,,,,,,,,,,
,,,,,,,,,,,,a,Correct!,,,,,,t2.png,t1.png,1,0.90025,19,Male,2020-08-27_16h31.11.451,torte-2b,2020.1.3,Win32,60,13330,0.669,,,,,0,42,42,62,1,,,,,,,,,,,,,,,,,,,,,,,,,,,,,,,,,,,,,,,,,,,,,,,,,,,,,,,,
,,,,,,,,,,,,a,Correct!,,,,,,t3.png,t2.png,1,0.909,19,Male,2020-08-27_16h31.11.451,torte-2b,2020.1.3,Win32,60,13330,1.05,,,,,0,43,43,23,1,,,,,,,,,,,,,,,,,,,,,,,,,,,,,,,,,,,,,,,,,,,,,,,,,,,,,,,,
,,,,,,,,,,,,l,Correct!,,,,,,t2.png,t4.png,2,0.059078,19,Male,2020-08-27_16h31.11.451,torte-2b,2020.1.3,Win32,60,13330,0.683,,,,,0,44,44,11,1,,,,,,,,,,,,,,,,,,,,,,,,,,,,,,,,,,,,,,,,,,,,,,,,,,,,,,,,
,,,,,,,,,,,,l,Correct!,,,,,,t2.png,t4.png,2,0.059078,19,Male,2020-08-27_16h31.11.451,torte-2b,2020.1.3,Win32,60,13330,0.654,,,,,0,45,45,37,1,,,,,,,,,,,,,,,,,,,,,,,,,,,,,,,,,,,,,,,,,,,,,,,,,,,,,,,,
,,,,,,,,,,,,a,Incorrect,,,,,,t5.png,t3.png,2,0.0565,19,Male,2020-08-27_16h31.11.451,torte-2b,2020.1.3,Win32,60,13330,0.599,,,,,0,46,46,39,1,,,,,,,,,,,,,,,,,,,,,,,,,,,,,,,,,,,,,,,,,,,,,,,,,,,,,,,,
,,,,,,,,,,,,a,Incorrect,,,,,,t5.png,t1.png,4,9.55E-11,19,Male,2020-08-27_16h31.11.451,torte-2b,2020.1.3,Win32,60,13330,0.697,,,,,0,47,47,22,1,,,,,,,,,,,,,,,,,,,,,,,,,,,,,,,,,,,,,,,,,,,,,,,,,,,,,,,,
,,,,,,,,,,,,l,Incorrect,,,,,,t2.png,t3.png,1,0.90855,19,Male,2020-08-27_16h31.11.451,torte-2b,2020.1.3,Win32,60,13330,0.849,,,,,0,48,48,65,1,,,,,,,,,,,,,,,,,,,,,,,,,,,,,,,,,,,,,,,,,,,,,,,,,,,,,,,,
,,,,,,,,,,,,l,Incorrect,,,,,,t1.png,t1.png,0,0.978,19,Male,2020-08-27_16h31.11.451,torte-2b,2020.1.3,Win32,60,13330,1.052,,,,,0,49,49,28,1,,,,,,,,,,,,,,,,,,,,,,,,,,,,,,,,,,,,,,,,,,,,,,,,,,,,,,,,
,,,,,,,,,,,,a,Incorrect,,,,,,t3.png,t1.png,2,0.0565,19,Male,2020-08-27_16h31.11.451,torte-2b,2020.1.3,Win32,60,13330,0.535,,,,,0,50,50,31,1,,,,,,,,,,,,,,,,,,,,,,,,,,,,,,,,,,,,,,,,,,,,,,,,,,,,,,,,
,,,,,,,,,,,,a,Incorrect,,,,,,t4.png,t1.png,3,0.0000131,19,Male,2020-08-27_16h31.11.451,torte-2b,2020.1.3,Win32,60,13330,0.533,,,,,0,51,51,61,1,,,,,,,,,,,,,,,,,,,,,,,,,,,,,,,,,,,,,,,,,,,,,,,,,,,,,,,,
,,,,,,,,,,,,l,Incorrect,,,,,,t1.png,t2.png,1,0.90025,19,Male,2020-08-27_16h31.11.451,torte-2b,2020.1.3,Win32,60,13330,0.716,,,,,0,52,52,33,1,,,,,,,,,,,,,,,,,,,,,,,,,,,,,,,,,,,,,,,,,,,,,,,,,,,,,,,,
,,,,,,,,,,,,l,Correct!,,,,,,t1.png,t5.png,4,9.55E-11,19,Male,2020-08-27_16h31.11.451,torte-2b,2020.1.3,Win32,60,13330,0.553,,,,,0,53,53,85,1,,,,,,,,,,,,,,,,,,,,,,,,,,,,,,,,,,,,,,,,,,,,,,,,,,,,,,,,
,,,,,,,,,,,,l,Correct!,,,,,,t1.png,t3.png,2,0.056466,19,Male,2020-08-27_16h31.11.451,torte-2b,2020.1.3,Win32,60,13330,0.669,,,,,0,54,54,63,1,,,,,,,,,,,,,,,,,,,,,,,,,,,,,,,,,,,,,,,,,,,,,,,,,,,,,,,,
,,,,,,,,,,,,l,Incorrect,,,,,,t5.png,t5.png,0,0.97829,19,Male,2020-08-27_16h31.11.451,torte-2b,2020.1.3,Win32,60,13330,0.916,,,,,0,55,55,70,1,,,,,,,,,,,,,,,,,,,,,,,,,,,,,,,,,,,,,,,,,,,,,,,,,,,,,,,,
,,,,,,,,,,,,l,Incorrect,,,,,,t4.png,t4.png,0,0.98115,19,Male,2020-08-27_16h31.11.451,torte-2b,2020.1.3,Win32,60,13330,0.832,,,,,0,56,56,21,1,,,,,,,,,,,,,,,,,,,,,,,,,,,,,,,,,,,,,,,,,,,,,,,,,,,,,,,,
,,,,,,,,,,,,a,Incorrect,,,,,,t3.png,t1.png,2,0.056466,19,Male,2020-08-27_16h31.11.451,torte-2b,2020.1.3,Win32,60,13330,0.6,,,,,0,57,57,0,1,,,,,,,,,,,,,,,,,,,,,,,,,,,,,,,,,,,,,,,,,,,,,,,,,,,,,,,,
,,,,,,,,,,,,a,Correct!,,,,,,t3.png,t2.png,1,0.90855,19,Male,2020-08-27_16h31.11.451,torte-2b,2020.1.3,Win32,60,13330,0.632,,,,,0,58,58,53,1,,,,,,,,,,,,,,,,,,,,,,,,,,,,,,,,,,,,,,,,,,,,,,,,,,,,,,,,
,,,,,,,,,,,,a,Correct!,,,,,,t2.png,t1.png,1,0.9,19,Male,2020-08-27_16h31.11.451,torte-2b,2020.1.3,Win32,60,13330,0.714,,,,,0,59,59,118,1,,,,,,,,,,,,,,,,,,,,,,,,,,,,,,,,,,,,,,,,,,,,,,,,,,,,,,,,
,,,,,,,,,,,,a,Correct!,,,,,,t2.png,t2.png,0,0.981,19,Male,2020-08-27_16h31.11.451,torte-2b,2020.1.3,Win32,60,13330,0.821,,,,,0,60,60,101,1,,,,,,,,,,,,,,,,,,,,,,,,,,,,,,,,,,,,,,,,,,,,,,,,,,,,,,,,
,,,,,,,,,,,,a,Correct!,,,,,,t4.png,t3.png,1,0.90855,19,Male,2020-08-27_16h31.11.451,torte-2b,2020.1.3,Win32,60,13330,0.799,,,,,0,61,61,45,1,,,,,,,,,,,,,,,,,,,,,,,,,,,,,,,,,,,,,,,,,,,,,,,,,,,,,,,,
,,,,,,,,,,,,a,Correct!,,,,,,t1.png,t1.png,0,0.97829,19,Male,2020-08-27_16h31.11.451,torte-2b,2020.1.3,Win32,60,13330,0.883,,,,,0,62,62,78,1,,,,,,,,,,,,,,,,,,,,,,,,,,,,,,,,,,,,,,,,,,,,,,,,,,,,,,,,
,,,,,,,,,,,,a,Correct!,,,,,,t4.png,t4.png,0,0.98115,19,Male,2020-08-27_16h31.11.451,torte-2b,2020.1.3,Win32,60,13330,1.032,,,,,0,63,63,52,1,,,,,,,,,,,,,,,,,,,,,,,,,,,,,,,,,,,,,,,,,,,,,,,,,,,,,,,,
,,,,,,,,,,,,a,Correct!,,,,,,t5.png,t4.png,1,0.90025,19,Male,2020-08-27_16h31.11.451,torte-2b,2020.1.3,Win32,60,13330,0.866,,,,,0,64,64,26,1,,,,,,,,,,,,,,,,,,,,,,,,,,,,,,,,,,,,,,,,,,,,,,,,,,,,,,,,
,,,,,,,,,,,,l,Correct!,,,,,,t2.png,t5.png,3,0.0000131,19,Male,2020-08-27_16h31.11.451,torte-2b,2020.1.3,Win32,60,13330,0.934,,,,,0,65,65,104,1,,,,,,,,,,,,,,,,,,,,,,,,,,,,,,,,,,,,,,,,,,,,,,,,,,,,,,,,
,,,,,,,,,,,,l,Correct!,,,,,,t1.png,t5.png,4,9.55E-11,19,Male,2020-08-27_16h31.11.451,torte-2b,2020.1.3,Win32,60,13330,0.682,,,,,0,66,66,16,1,,,,,,,,,,,,,,,,,,,,,,,,,,,,,,,,,,,,,,,,,,,,,,,,,,,,,,,,
,,,,,,,,,,,,l,Correct!,,,,,,t2.png,t4.png,2,0.0591,19,Male,2020-08-27_16h31.11.451,torte-2b,2020.1.3,Win32,60,13330,1.033,,,,,0,67,67,15,1,,,,,,,,,,,,,,,,,,,,,,,,,,,,,,,,,,,,,,,,,,,,,,,,,,,,,,,,
,,,,,,,,,,,,l,Incorrect,,,,,,t1.png,t3.png,2,0.056466,19,Male,2020-08-27_16h31.11.451,torte-2b,2020.1.3,Win32,60,13330,0.618,,,,,0,68,68,87,1,,,,,,,,,,,,,,,,,,,,,,,,,,,,,,,,,,,,,,,,,,,,,,,,,,,,,,,,
,,,,,,,,,,,,l,Correct!,,,,,,t1.png,t3.png,2,0.056466,19,Male,2020-08-27_16h31.11.451,torte-2b,2020.1.3,Win32,60,13330,0.566,,,,,0,69,69,69,1,,,,,,,,,,,,,,,,,,,,,,,,,,,,,,,,,,,,,,,,,,,,,,,,,,,,,,,,
,,,,,,,,,,,,a,Incorrect,,,,,,t4.png,t1.png,3,0.0000131,19,Male,2020-08-27_16h31.11.451,torte-2b,2020.1.3,Win32,60,13330,1.014,,,,,0,70,70,13,1,,,,,,,,,,,,,,,,,,,,,,,,,,,,,,,,,,,,,,,,,,,,,,,,,,,,,,,,
,,,,,,,,,,,,l,Incorrect,,,,,,t3.png,t4.png,1,0.909,19,Male,2020-08-27_16h31.11.451,torte-2b,2020.1.3,Win32,60,13330,1.002,,,,,0,71,71,106,1,,,,,,,,,,,,,,,,,,,,,,,,,,,,,,,,,,,,,,,,,,,,,,,,,,,,,,,,
,,,,,,,,,,,,a,Correct!,,,,,,t5.png,t5.png,0,0.97829,19,Male,2020-08-27_16h31.11.451,torte-2b,2020.1.3,Win32,60,13330,1.084,,,,,0,72,72,94,1,,,,,,,,,,,,,,,,,,,,,,,,,,,,,,,,,,,,,,,,,,,,,,,,,,,,,,,,
,,,,,,,,,,,,a,Correct!,,,,,,t5.png,t4.png,1,0.90025,19,Male,2020-08-27_16h31.11.451,torte-2b,2020.1.3,Win32,60,13330,0.868,,,,,0,73,73,27,1,,,,,,,,,,,,,,,,,,,,,,,,,,,,,,,,,,,,,,,,,,,,,,,,,,,,,,,,
,,,,,,,,,,,,a,Correct!,,,,,,t4.png,t3.png,1,0.909,19,Male,2020-08-27_16h31.11.451,torte-2b,2020.1.3,Win32,60,13330,0.757,,,,,0,74,74,20,1,,,,,,,,,,,,,,,,,,,,,,,,,,,,,,,,,,,,,,,,,,,,,,,,,,,,,,,,
,,,,,,,,,,,,a,Correct!,,,,,,t4.png,t3.png,1,0.909,19,Male,2020-08-27_16h31.11.451,torte-2b,2020.1.3,Win32,60,13330,0.866,,,,,0,75,75,46,1,,,,,,,,,,,,,,,,,,,,,,,,,,,,,,,,,,,,,,,,,,,,,,,,,,,,,,,,
,,,,,,,,,,,,a,Incorrect,,,,,,t5.png,t2.png,3,0.0000131,19,Male,2020-08-27_16h31.11.451,torte-2b,2020.1.3,Win32,60,13330,0.917,,,,,0,76,76,91,1,,,,,,,,,,,,,,,,,,,,,,,,,,,,,,,,,,,,,,,,,,,,,,,,,,,,,,,,
,,,,,,,,,,,,a,Incorrect,,,,,,t4.png,t3.png,1,0.90855,19,Male,2020-08-27_16h31.11.451,torte-2b,2020.1.3,Win32,60,13330,0.898,,,,,0,77,77,75,1,,,,,,,,,,,,,,,,,,,,,,,,,,,,,,,,,,,,,,,,,,,,,,,,,,,,,,,,
,,,,,,,,,,,,l,Incorrect,,,,,,t4.png,t5.png,1,0.90025,19,Male,2020-08-27_16h31.11.451,torte-2b,2020.1.3,Win32,60,13330,0.982,,,,,0,78,78,113,1,,,,,,,,,,,,,,,,,,,,,,,,,,,,,,,,,,,,,,,,,,,,,,,,,,,,,,,,
,,,,,,,,,,,,a,Incorrect,,,,,,t4.png,t1.png,3,0.0000131,19,Male,2020-08-27_16h31.11.451,torte-2b,2020.1.3,Win32,60,13330,1.381,,,,,0,79,79,42,1,,,,,,,,,,,,,,,,,,,,,,,,,,,,,,,,,,,,,,,,,,,,,,,,,,,,,,,,
,,,,,,,,,,,,a,Correct!,,,,,,t3.png,t2.png,1,0.909,19,Male,2020-08-27_16h31.11.451,torte-2b,2020.1.3,Win32,60,13330,1.115,,,,,0,80,80,3,1,,,,,,,,,,,,,,,,,,,,,,,,,,,,,,,,,,,,,,,,,,,,,,,,,,,,,,,,
,,,,,,,,,,,,a,Incorrect,,,,,,t5.png,t3.png,2,0.056466,19,Male,2020-08-27_16h31.11.451,torte-2b,2020.1.3,Win32,60,13330,0.615,,,,,0,81,81,108,1,,,,,,,,,,,,,,,,,,,,,,,,,,,,,,,,,,,,,,,,,,,,,,,,,,,,,,,,
,,,,,,,,,,,,,Too slow :(,,,,,,t5.png,t2.png,3,0.0000131,19,Male,2020-08-27_16h31.11.451,torte-2b,2020.1.3,Win32,60,13330,,,,,,0,82,82,98,1,,,,,,,,,,,,,,,,,,,,,,,,,,,,,,,,,,,,,,,,,,,,,,,,,,,,,,,,
,,,,,,,,,,,,l,Incorrect,,,,,,t4.png,t5.png,1,0.90025,19,Male,2020-08-27_16h31.11.451,torte-2b,2020.1.3,Win32,60,13330,0.698,,,,,0,83,83,103,1,,,,,,,,,,,,,,,,,,,,,,,,,,,,,,,,,,,,,,,,,,,,,,,,,,,,,,,,
,,,,,,,,,,,,a,Correct!,,,,,,t5.png,t4.png,1,0.9,19,Male,2020-08-27_16h31.11.451,torte-2b,2020.1.3,Win32,60,13330,0.899,,,,,0,84,84,49,1,,,,,,,,,,,,,,,,,,,,,,,,,,,,,,,,,,,,,,,,,,,,,,,,,,,,,,,,
,,,,,,,,,,,,a,Incorrect,,,,,,t3.png,t1.png,2,0.056466,19,Male,2020-08-27_16h31.11.451,torte-2b,2020.1.3,Win32,60,13330,0.804,,,,,0,85,85,64,1,,,,,,,,,,,,,,,,,,,,,,,,,,,,,,,,,,,,,,,,,,,,,,,,,,,,,,,,
,,,,,,,,,,,,l,Correct!,,,,,,t1.png,t4.png,3,0.0000131,19,Male,2020-08-27_16h31.11.451,torte-2b,2020.1.3,Win32,60,13330,0.583,,,,,0,86,86,81,1,,,,,,,,,,,,,,,,,,,,,,,,,,,,,,,,,,,,,,,,,,,,,,,,,,,,,,,,
,,,,,,,,,,,,l,Correct!,,,,,,t2.png,t5.png,3,0.0000131,19,Male,2020-08-27_16h31.11.451,torte-2b,2020.1.3,Win32,60,13330,0.588,,,,,0,87,87,40,1,,,,,,,,,,,,,,,,,,,,,,,,,,,,,,,,,,,,,,,,,,,,,,,,,,,,,,,,
,,,,,,,,,,,,l,Incorrect,,,,,,t2.png,t3.png,1,0.909,19,Male,2020-08-27_16h31.11.451,torte-2b,2020.1.3,Win32,60,13330,0.947,,,,,0,88,88,74,1,,,,,,,,,,,,,,,,,,,,,,,,,,,,,,,,,,,,,,,,,,,,,,,,,,,,,,,,
,,,,,,,,,,,,l,Incorrect,,,,,,t1.png,t1.png,0,0.97829,19,Male,2020-08-27_16h31.11.451,torte-2b,2020.1.3,Win32,60,13330,1.101,,,,,0,89,89,67,1,,,,,,,,,,,,,,,,,,,,,,,,,,,,,,,,,,,,,,,,,,,,,,,,,,,,,,,,
,,,,,,,,,,,,a,Incorrect,,,,,,t4.png,t2.png,2,0.059078,19,Male,2020-08-27_16h31.11.451,torte-2b,2020.1.3,Win32,60,13330,0.798,,,,,0,90,90,88,1,,,,,,,,,,,,,,,,,,,,,,,,,,,,,,,,,,,,,,,,,,,,,,,,,,,,,,,,
,,,,,,,,,,,,l,Correct!,,,,,,t1.png,t5.png,4,9.55E-11,19,Male,2020-08-27_16h31.11.451,torte-2b,2020.1.3,Win32,60,13330,0.801,,,,,0,91,91,12,1,,,,,,,,,,,,,,,,,,,,,,,,,,,,,,,,,,,,,,,,,,,,,,,,,,,,,,,,
,,,,,,,,,,,,a,Incorrect,,,,,,t4.png,t1.png,3,0.0000131,19,Male,2020-08-27_16h31.11.451,torte-2b,2020.1.3,Win32,60,13330,0.6,,,,,0,92,92,48,1,,,,,,,,,,,,,,,,,,,,,,,,,,,,,,,,,,,,,,,,,,,,,,,,,,,,,,,,
,,,,,,,,,,,,l,Incorrect,,,,,,t5.png,t5.png,0,0.97829,19,Male,2020-08-27_16h31.11.451,torte-2b,2020.1.3,Win32,60,13330,0.883,,,,,0,93,93,25,1,,,,,,,,,,,,,,,,,,,,,,,,,,,,,,,,,,,,,,,,,,,,,,,,,,,,,,,,
,,,,,,,,,,,,l,Incorrect,,,,,,t3.png,t4.png,1,0.909,19,Male,2020-08-27_16h31.11.451,torte-2b,2020.1.3,Win32,60,13330,0.715,,,,,0,94,94,89,1,,,,,,,,,,,,,,,,,,,,,,,,,,,,,,,,,,,,,,,,,,,,,,,,,,,,,,,,
,,,,,,,,,,,,a,Incorrect,,,,,,t5.png,t2.png,3,0.0000131,19,Male,2020-08-27_16h31.11.451,torte-2b,2020.1.3,Win32,60,13330,0.634,,,,,0,95,95,116,1,,,,,,,,,,,,,,,,,,,,,,,,,,,,,,,,,,,,,,,,,,,,,,,,,,,,,,,,
,,,,,,,,,,,,l,Incorrect,,,,,,t4.png,t5.png,1,0.90025,19,Male,2020-08-27_16h31.11.451,torte-2b,2020.1.3,Win32,60,13330,0.825,,,,,0,96,96,58,1,,,,,,,,,,,,,,,,,,,,,,,,,,,,,,,,,,,,,,,,,,,,,,,,,,,,,,,,
,,,,,,,,,,,,l,Incorrect,,,,,,t2.png,t3.png,1,0.90855,19,Male,2020-08-27_16h31.11.451,torte-2b,2020.1.3,Win32,60,13330,0.824,,,,,0,97,97,111,1,,,,,,,,,,,,,,,,,,,,,,,,,,,,,,,,,,,,,,,,,,,,,,,,,,,,,,,,
,,,,,,,,,,,,l,Incorrect,,,,,,t3.png,t4.png,1,0.909,19,Male,2020-08-27_16h31.11.451,torte-2b,2020.1.3,Win32,60,13330,0.768,,,,,0,98,98,82,1,,,,,,,,,,,,,,,,,,,,,,,,,,,,,,,,,,,,,,,,,,,,,,,,,,,,,,,,
,,,,,,,,,,,,a,Correct!,,,,,,t2.png,t1.png,1,0.90025,19,Male,2020-08-27_16h31.11.451,torte-2b,2020.1.3,Win32,60,13330,0.635,,,,,0,99,99,5,1,,,,,,,,,,,,,,,,,,,,,,,,,,,,,,,,,,,,,,,,,,,,,,,,,,,,,,,,
,,,,,,,,,,,,l,Correct!,,,,,,t2.png,t5.png,3,0.0000131,19,Male,2020-08-27_16h31.11.451,torte-2b,2020.1.3,Win32,60,13330,0.601,,,,,0,100,100,8,1,,,,,,,,,,,,,,,,,,,,,,,,,,,,,,,,,,,,,,,,,,,,,,,,,,,,,,,,
,,,,,,,,,,,,l,Correct!,,,,,,t1.png,t4.png,3,0.0000131,19,Male,2020-08-27_16h31.11.451,torte-2b,2020.1.3,Win32,60,13330,0.64,,,,,0,101,101,92,1,,,,,,,,,,,,,,,,,,,,,,,,,,,,,,,,,,,,,,,,,,,,,,,,,,,,,,,,
,,,,,,,,,,,,a,Correct!,,,,,,t5.png,t4.png,1,0.90025,19,Male,2020-08-27_16h31.11.451,torte-2b,2020.1.3,Win32,60,13330,0.699,,,,,0,102,102,34,1,,,,,,,,,,,,,,,,,,,,,,,,,,,,,,,,,,,,,,,,,,,,,,,,,,,,,,,,
,,,,,,,,,,,,l,Correct!,,,,,,t3.png,t5.png,2,0.0565,19,Male,2020-08-27_16h31.11.451,torte-2b,2020.1.3,Win32,60,13330,0.885,,,,,0,103,103,83,1,,,,,,,,,,,,,,,,,,,,,,,,,,,,,,,,,,,,,,,,,,,,,,,,,,,,,,,,
,,,,,,,,,,,,l,Incorrect,,,,,,t2.png,t3.png,1,0.90855,19,Male,2020-08-27_16h31.11.451,torte-2b,2020.1.3,Win32,60,13330,0.867,,,,,0,104,104,68,1,,,,,,,,,,,,,,,,,,,,,,,,,,,,,,,,,,,,,,,,,,,,,,,,,,,,,,,,
,,,,,,,,,,,,l,Correct!,,,,,,t2.png,t4.png,2,0.059078,19,Male,2020-08-27_16h31.11.451,torte-2b,2020.1.3,Win32,60,13330,0.633,,,,,0,105,105,77,1,,,,,,,,,,,,,,,,,,,,,,,,,,,,,,,,,,,,,,,,,,,,,,,,,,,,,,,,
,,,,,,,,,,,,a,Incorrect,,,,,,t5.png,t3.png,2,0.056466,19,Male,2020-08-27_16h31.11.451,torte-2b,2020.1.3,Win32,60,13330,0.734,,,,,0,106,106,38,1,,,,,,,,,,,,,,,,,,,,,,,,,,,,,,,,,,,,,,,,,,,,,,,,,,,,,,,,
,,,,,,,,,,,,l,Correct!,,,,,,t1.png,t4.png,3,0.0000131,19,Male,2020-08-27_16h31.11.451,torte-2b,2020.1.3,Win32,60,13330,0.818,,,,,0,107,107,50,1,,,,,,,,,,,,,,,,,,,,,,,,,,,,,,,,,,,,,,,,,,,,,,,,,,,,,,,,
,,,,,,,,,,,,l,Incorrect,,,,,,t1.png,t2.png,1,0.90025,19,Male,2020-08-27_16h31.11.451,torte-2b,2020.1.3,Win32,60,13330,0.668,,,,,0,108,108,72,1,,,,,,,,,,,,,,,,,,,,,,,,,,,,,,,,,,,,,,,,,,,,,,,,,,,,,,,,
,,,,,,,,,,,,l,Incorrect,,,,,,t3.png,t5.png,2,0.056466,19,Male,2020-08-27_16h31.11.451,torte-2b,2020.1.3,Win32,60,13330,0.583,,,,,0,109,109,44,1,,,,,,,,,,,,,,,,,,,,,,,,,,,,,,,,,,,,,,,,,,,,,,,,,,,,,,,,
,,,,,,,,,,,,a,Incorrect,,,,,,t5.png,t2.png,3,0.0000131,19,Male,2020-08-27_16h31.11.451,torte-2b,2020.1.3,Win32,60,13330,0.565,,,,,0,110,110,51,1,,,,,,,,,,,,,,,,,,,,,,,,,,,,,,,,,,,,,,,,,,,,,,,,,,,,,,,,
,,,,,,,,,,,,l,Correct!,,,,,,t2.png,t5.png,3,0.0000131,19,Male,2020-08-27_16h31.11.451,torte-2b,2020.1.3,Win32,60,13330,1.065,,,,,0,111,111,66,1,,,,,,,,,,,,,,,,,,,,,,,,,,,,,,,,,,,,,,,,,,,,,,,,,,,,,,,,
,,,,,,,,,,,,l,Correct!,,,,,,t3.png,t5.png,2,0.0565,19,Male,2020-08-27_16h31.11.451,torte-2b,2020.1.3,Win32,60,13330,1.182,,,,,0,112,112,30,1,,,,,,,,,,,,,,,,,,,,,,,,,,,,,,,,,,,,,,,,,,,,,,,,,,,,,,,,
,,,,,,,,,,,,l,Incorrect,,,,,,t4.png,t4.png,0,0.98115,19,Male,2020-08-27_16h31.11.451,torte-2b,2020.1.3,Win32,60,13330,1.733,,,,,0,113,113,80,1,,,,,,,,,,,,,,,,,,,,,,,,,,,,,,,,,,,,,,,,,,,,,,,,,,,,,,,,
,,,,,,,,,,,,l,Correct!,,,,,,t3.png,t5.png,2,0.056466,19,Male,2020-08-27_16h31.11.451,torte-2b,2020.1.3,Win32,60,13330,1.1,,,,,0,114,114,14,1,,,,,,,,,,,,,,,,,,,,,,,,,,,,,,,,,,,,,,,,,,,,,,,,,,,,,,,,
,,,,,,,,,,,,l,Correct!,,,,,,t1.png,t4.png,3,0.0000131,19,Male,2020-08-27_16h31.11.451,torte-2b,2020.1.3,Win32,60,13330,0.565,,,,,0,115,115,17,1,,,,,,,,,,,,,,,,,,,,,,,,,,,,,,,,,,,,,,,,,,,,,,,,,,,,,,,,
,,,,,,,,,,,,a,Incorrect,,,,,,t4.png,t3.png,1,0.90855,19,Male,2020-08-27_16h31.11.451,torte-2b,2020.1.3,Win32,60,13330,0.854,,,,,0,116,116,35,1,,,,,,,,,,,,,,,,,,,,,,,,,,,,,,,,,,,,,,,,,,,,,,,,,,,,,,,,
,,,,,,,,,,,,l,Incorrect,,,,,,t3.png,t4.png,1,0.90855,19,Male,2020-08-27_16h31.11.451,torte-2b,2020.1.3,Win32,60,13330,1.233,,,,,0,117,117,96,1,,,,,,,,,,,,,,,,,,,,,,,,,,,,,,,,,,,,,,,,,,,,,,,,,,,,,,,,
,,,,,,,,,,,,l,Incorrect,,,,,,t3.png,t5.png,2,0.056466,19,Male,2020-08-27_16h31.11.451,torte-2b,2020.1.3,Win32,60,13330,1.132,,,,,0,118,118,6,1,,,,,,,,,,,,,,,,,,,,,,,,,,,,,,,,,,,,,,,,,,,,,,,,,,,,,,,,
,,,,,,,,,,,,a,Incorrect,,,,,,t4.png,t2.png,2,0.059078,19,Male,2020-08-27_16h31.11.451,torte-2b,2020.1.3,Win32,60,13330,0.698,,,,,0,119,119,109,1,,,,,,,,,,,,,,,,,,,,,,,,,,,,,,,,,,,,,,,,,,,,,,,,,,,,,,,,
,,,,,,,,,,,,,,,,,,,,,,,19,Male,2020-08-27_16h31.11.451,torte-2b,2020.1.3,Win32,60,13330,,space,1.883,,,,,,,,space,47.197,,0,0,0,0,1,6,,,,,,,,,,,,,,,,,,,,,,,,,,,,,,,,,,,,,,,,,,,,,,,
,,,,,,,,,,,,,,,,,,,,,,,19,Male,2020-08-27_16h31.11.451,torte-2b,2020.1.3,Win32,60,13330,,,,,,,,,,,,,,0,1,1,1,1,7,,,,,,,,,,,,,,,,,,,,,,,,,,,,,,,,,,,,,,,,,,,,,,,
,,,,,,,,,,,,,,,,,,,,,,,19,Male,2020-08-27_16h31.11.451,torte-2b,2020.1.3,Win32,60,13330,,,,,,,,,,,,,,0,2,2,2,1,6,,,,,,,,,,,,,,,,,,,,,,,,,,,,,,,,,,,,,,,,,,,,,,,
,,,,,,,,,,,,,,,,,,,,,,,19,Male,2020-08-27_16h31.11.451,torte-2b,2020.1.3,Win32,60,13330,,,,,,,,,,,,,space,0,3,3,3,1,7,0.446,,,,,,,,,,,,,,,,,,,,,,,,,,,,,,,,,,,,,,,,,,,,,,
,,,,,,,,,,,,,,,,,,,,,,,19,Male,2020-08-27_16h31.11.451,torte-2b,2020.1.3,Win32,60,13330,,,,,,,,,,,,,,0,4,4,4,1,5,,,,,,,,,,,,,,,,,,,,,,,,,,,,,,,,,,,,,,,,,,,,,,,
,,,,,,,,,,,,,,,,,,,,,,,19,Male,2020-08-27_16h31.11.451,torte-2b,2020.1.3,Win32,60,13330,,,,,,,,,,,,,space,0,5,5,5,1,7,0.712,,,,,,,,,,,,,,,,,,,,,,,,,,,,,,,,,,,,,,,,,,,,,,
,,,,,,,,,,,,,,,,,,,,,,,19,Male,2020-08-27_16h31.11.451,torte-2b,2020.1.3,Win32,60,13330,,,,,,,,,,,,,,0,6,6,6,1,2,,,,,,,,,,,,,,,,,,,,,,,,,,,,,,,,,,,,,,,,,,,,,,,
,,,,,,,,,,,,,,,,,,,,,,,19,Male,2020-08-27_16h31.11.451,torte-2b,2020.1.3,Win32,60,13330,,,,,,,,,,,,,,0,7,7,7,1,4,,,,,,,,,,,,,,,,,,,,,,,,,,,,,,,,,,,,,,,,,,,,,,,
,,,,,,,,,,,,,,,,,,,,,,,19,Male,2020-08-27_16h31.11.451,torte-2b,2020.1.3,Win32,60,13330,,,,,,,,,,,,,space,0,8,8,8,1,7,0.395,,,,,,,,,,,,,,,,,,,,,,,,,,,,,,,,,,,,,,,,,,,,,,
,,,,,,,,,,,,,,,,,,,,,,,19,Male,2020-08-27_16h31.11.451,torte-2b,2020.1.3,Win32,60,13330,,,,,,,,,,,,,,0,9,9,9,1,4,,,,,,,,,,,,,,,,,,,,,,,,,,,,,,,,,,,,,,,,,,,,,,,
,,,,,,,,,,,,,,,,,,,,,,,19,Male,2020-08-27_16h31.11.451,torte-2b,2020.1.3,Win32,60,13330,,,,,,,,,,,,,,0,10,10,10,1,7,,,,,,,,,,,,,,,,,,,,,,,,,,,,,,,,,,,,,,,,,,,,,,,
,,,,,,,,,,,,,,,,,,,,,,,19,Male,2020-08-27_16h31.11.451,torte-2b,2020.1.3,Win32,60,13330,,,,,,,,,,,,,,0,11,11,11,1,7,,,,,,,,,,,,,,,,,,,,,,,,,,,,,,,,,,,,,,,,,,,,,,,
,,,,,,,,,,,,,,,,,,,,,,,19,Male,2020-08-27_16h31.11.451,torte-2b,2020.1.3,Win32,60,13330,,,,,,,,,,,,,space,0,12,12,12,1,7,0.615,,,,,,,,,,,,,,,,,,,,,,,,,,,,,,,,,,,,,,,,,,,,,,
,,,,,,,,,,,,,,,,,,,,,,,19,Male,2020-08-27_16h31.11.451,torte-2b,2020.1.3,Win32,60,13330,,,,,,,,,,,,,space,0,13,13,13,1,4,0.697,,,,,,,,,,,,,,,,,,,,,,,,,,,,,,,,,,,,,,,,,,,,,,
,,,,,,,,,,,,,,,,,,,,,,,19,Male,2020-08-27_16h31.11.451,torte-2b,2020.1.3,Win32,60,13330,,,,,,,,,,,,,,0,14,14,14,1,6,,,,,,,,,,,,,,,,,,,,,,,,,,,,,,,,,,,,,,,,,,,,,,,
,,,,,,,,,,,,,,,,,,,,,,,19,Male,2020-08-27_16h31.11.451,torte-2b,2020.1.3,Win32,60,13330,,,,,,,,,,,,,,0,15,15,15,1,4,,,,,,,,,,,,,,,,,,,,,,,,,,,,,,,,,,,,,,,,,,,,,,,
,,,,,,,,,,,,,,,,,,,,,,,19,Male,2020-08-27_16h31.11.451,torte-2b,2020.1.3,Win32,60,13330,,,,,,,,,,,,,,0,16,16,16,1,6,,,,,,,,,,,,,,,,,,,,,,,,,,,,,,,,,,,,,,,,,,,,,,,
,,,,,,,,,,,,,,,,,,,,,,,19,Male,2020-08-27_16h31.11.451,torte-2b,2020.1.3,Win32,60,13330,,,,,,,,,,,,,,0,17,17,17,1,7,,,,,,,,,,,,,,,,,,,,,,,,,,,,,,,,,,,,,,,,,,,,,,,
,,,,,,,,,,,,,,,,,,,,,,,19,Male,2020-08-27_16h31.11.451,torte-2b,2020.1.3,Win32,60,13330,,,,,,,,,,,,,space,0,18,18,18,1,6,0.582,,,,,,,,,,,,,,,,,,,,,,,,,,,,,,,,,,,,,,,,,,,,,,
,,,,,,,,,,,,,,,,,,,,,,,19,Male,2020-08-27_16h31.11.451,torte-2b,2020.1.3,Win32,60,13330,,,,,,,,,,,,,,0,19,19,19,1,7,,,,,,,,,,,,,,,,,,,,,,,,,,,,,,,,,,,,,,,,,,,,,,,
,,,,,,,,,,,,,,,,,,,,,,,19,Male,2020-08-27_16h31.11.451,torte-2b,2020.1.3,Win32,60,13330,,,,,,,,,,,,,,0,20,20,20,1,5,,,,,,,,,,,,,,,,,,,,,,,,,,,,,,,,,,,,,,,,,,,,,,,
,,,,,,,,,,,,,,,,,,,,,,,19,Male,2020-08-27_16h31.11.451,torte-2b,2020.1.3,Win32,60,13330,,,,,,,,,,,,,,0,21,21,21,1,1,,,,,,,,,,,,,,,,,,,,,,,,,,,,,,,,,,,,,,,,,,,,,,,
,,,,,,,,,,,,,,,,,,,,,,,19,Male,2020-08-27_16h31.11.451,torte-2b,2020.1.3,Win32,60,13330,,,,,,,,,,,,,space,0,22,22,22,1,6,0.616,,,,,,,,,,,,,,,,,,,,,,,,,,,,,,,,,,,,,,,,,,,,,,
,,,,,,,,,,,,,,,,,,,,,,,19,Male,2020-08-27_16h31.11.451,torte-2b,2020.1.3,Win32,60,13330,,,,,,,,,,,,,,0,23,23,23,1,1,,,,,,,,,,,,,,,,,,,,,,,,,,,,,,,,,,,,,,,,,,,,,,,
,,,,,,,,,,,,,,,,,,,,,,,19,Male,2020-08-27_16h31.11.451,torte-2b,2020.1.3,Win32,60,13330,,,,,,,,,,,,,,0,24,24,24,1,5,,,,,,,,,,,,,,,,,,,,,,,,,,,,,,,,,,,,,,,,,,,,,,,
,,,,,,,,,,,,,,,,,,,,,,,19,Male,2020-08-27_16h31.11.451,torte-2b,2020.1.3,Win32,60,13330,,,,,,,,,,,,,,0,25,25,25,1,6,,,,,,,,,,,,,,,,,,,,,,,,,,,,,,,,,,,,,,,,,,,,,,,
,,,,,,,,,,,,,,,,,,,,,,,19,Male,2020-08-27_16h31.11.451,torte-2b,2020.1.3,Win32,60,13330,,,,,,,,,,,,,,0,26,26,26,1,6,,,,,,,,,,,,,,,,,,,,,,,,,,,,,,,,,,,,,,,,,,,,,,,
,,,,,,,,,,,,,,,,,,,,,,,19,Male,2020-08-27_16h31.11.451,torte-2b,2020.1.3,Win32,60,13330,,,,,,,,,,,,,space,0,27,27,27,1,6,0.73,,,,,,,,,,,,,,,,,,,,,,,,,,,,,,,,,,,,,,,,,,,,,,
,,,,,,,,,,,,,,,,,,,,,,,19,Male,2020-08-27_16h31.11.451,torte-2b,2020.1.3,Win32,60,13330,,,,,,,,,,,,,,0,28,28,28,1,5,,,,,,,,,,,,,,,,,,,,,,,,,,,,,,,,,,,,,,,,,,,,,,,
,,,,,,,,,,,,,,,,,,,,,,,19,Male,2020-08-27_16h31.11.451,torte-2b,2020.1.3,Win32,60,13330,,,,,,,,,,,,,,0,29,29,29,1,2,,,,,,,,,,,,,,,,,,,,,,,,,,,,,,,,,,,,,,,,,,,,,,,
,,,,,,,,,,,,,,,,,,,,,,,19,Male,2020-08-27_16h31.11.451,torte-2b,2020.1.3,Win32,60,13330,,,,,,,,,,,,,,0,30,30,30,1,5,,,,,,,,,,,,,,,,,,,,,,,,,,,,,,,,,,,,,,,,,,,,,,,
,,,,,,,,,,,,,,,,,,,,,,,19,Male,2020-08-27_16h31.11.451,torte-2b,2020.1.3,Win32,60,13330,,,,,,,,,,,,,,0,31,31,31,1,2,,,,,,,,,,,,,,,,,,,,,,,,,,,,,,,,,,,,,,,,,,,,,,,
,,,,,,,,,,,,,,,,,,,,,,,19,Male,2020-08-27_16h31.11.451,torte-2b,2020.1.3,Win32,60,13330,,,,,,,,,,,,,space,0,32,32,32,1,5,0.5,,,,,,,,,,,,,,,,,,,,,,,,,,,,,,,,,,,,,,,,,,,,,,
,,,,,,,,,,,,,,,,,,,,,,,19,Male,2020-08-27_16h31.11.451,torte-2b,2020.1.3,Win32,60,13330,,,,,,,,,,,,,,0,33,33,33,1,1,,,,,,,,,,,,,,,,,,,,,,,,,,,,,,,,,,,,,,,,,,,,,,,
,,,,,,,,,,,,,,,,,,,,,,,19,Male,2020-08-27_16h31.11.451,torte-2b,2020.1.3,Win32,60,13330,,,,,,,,,,,,,,0,34,34,34,1,1,,,,,,,,,,,,,,,,,,,,,,,,,,,,,,,,,,,,,,,,,,,,,,,
,,,,,,,,,,,,,,,,,,,,,,,19,Male,2020-08-27_16h31.11.451,torte-2b,2020.1.3,Win32,60,13330,,,,,,,,,,,,,,,,,,,2,,0,0,0,0,1,,,,,,,,,,,,,,,,,,,,,,,,,,,,,,,,,,,,,,,,,
,,,,,,,,,,,,,,,,,,,,,,,19,Male,2020-08-27_16h31.11.451,torte-2b,2020.1.3,Win32,60,13330,,,,,,,,,,,,,,,,,,,2,,0,1,1,1,1,,,,,,,,,,,,,,,,,,,,,,,,,,,,,,,,,,,,,,,,,
,,,,,,,,,,,,,,,,,,,,,,,19,Male,2020-08-27_16h31.11.451,torte-2b,2020.1.3,Win32,60,13330,,,,,,,,,,,,,,,,,,,6,,0,2,2,2,1,,,,,,,,,,,,,,,,,,,,,,,,,,,,,,,,,,,,,,,,,
,,,,,,,,,,,,,,,,,,,,,,,19,Male,2020-08-27_16h31.11.451,torte-2b,2020.1.3,Win32,60,13330,,,,,,,,,,,,,space,,,,,,2,0.347,0,3,3,3,1,,,,,,,,,,,,,,,,,,,,,,,,,,,,,,,,,,,,,,,,,
,,,,,,,,,,,,,,,,,,,,,,,19,Male,2020-08-27_16h31.11.451,torte-2b,2020.1.3,Win32,60,13330,,,,,,,,,,,,,,,,,,,6,,0,4,4,4,1,,,,,,,,,,,,,,,,,,,,,,,,,,,,,,,,,,,,,,,,,
,,,,,,,,,,,,,,,,,,,,,,,19,Male,2020-08-27_16h31.11.451,torte-2b,2020.1.3,Win32,60,13330,,,,,,,,,,,,,,,,,,,2,,0,5,5,5,1,,,,,,,,,,,,,,,,,,,,,,,,,,,,,,,,,,,,,,,,,
,,,,,,,,,,,,,,,,,,,,,,,19,Male,2020-08-27_16h31.11.451,torte-2b,2020.1.3,Win32,60,13330,,,,,,,,,,,,,,,,,,,7,,0,6,6,6,1,,,,,,,,,,,,,,,,,,,,,,,,,,,,,,,,,,,,,,,,,
,,,,,,,,,,,,,,,,,,,,,,,19,Male,2020-08-27_16h31.11.451,torte-2b,2020.1.3,Win32,60,13330,,,,,,,,,,,,,space,,,,,,2,0.478,0,7,7,7,1,,,,,,,,,,,,,,,,,,,,,,,,,,,,,,,,,,,,,,,,,
,,,,,,,,,,,,,,,,,,,,,,,19,Male,2020-08-27_16h31.11.451,torte-2b,2020.1.3,Win32,60,13330,,,,,,,,,,,,,,,,,,,7,,0,8,8,8,1,,,,,,,,,,,,,,,,,,,,,,,,,,,,,,,,,,,,,,,,,
,,,,,,,,,,,,,,,,,,,,,,,19,Male,2020-08-27_16h31.11.451,torte-2b,2020.1.3,Win32,60,13330,,,,,,,,,,,,,,,,,,,2,,0,9,9,9,1,,,,,,,,,,,,,,,,,,,,,,,,,,,,,,,,,,,,,,,,,
,,,,,,,,,,,,,,,,,,,,,,,19,Male,2020-08-27_16h31.11.451,torte-2b,2020.1.3,Win32,60,13330,,,,,,,,,,,,,,,,,,,5,,0,10,10,10,1,,,,,,,,,,,,,,,,,,,,,,,,,,,,,,,,,,,,,,,,,
,,,,,,,,,,,,,,,,,,,,,,,19,Male,2020-08-27_16h31.11.451,torte-2b,2020.1.3,Win32,60,13330,,,,,,,,,,,,,,,,,,,4,,0,11,11,11,1,,,,,,,,,,,,,,,,,,,,,,,,,,,,,,,,,,,,,,,,,
,,,,,,,,,,,,,,,,,,,,,,,19,Male,2020-08-27_16h31.11.451,torte-2b,2020.1.3,Win32,60,13330,,,,,,,,,,,,,,,,,,,5,,0,12,12,12,1,,,,,,,,,,,,,,,,,,,,,,,,,,,,,,,,,,,,,,,,,
,,,,,,,,,,,,,,,,,,,,,,,19,Male,2020-08-27_16h31.11.451,torte-2b,2020.1.3,Win32,60,13330,,,,,,,,,,,,,,,,,,,6,,0,13,13,13,1,,,,,,,,,,,,,,,,,,,,,,,,,,,,,,,,,,,,,,,,,
,,,,,,,,,,,,,,,,,,,,,,,19,Male,2020-08-27_16h31.11.451,torte-2b,2020.1.3,Win32,60,13330,,,,,,,,,,,,,space,,,,,,5,0.596,0,14,14,14,1,,,,,,,,,,,,,,,,,,,,,,,,,,,,,,,,,,,,,,,,,
,,,,,,,,,,,,,,,,,,,,,,,19,Male,2020-08-27_16h31.11.451,torte-2b,2020.1.3,Win32,60,13330,,,,,,,,,,,,,,,,,,,4,,0,15,15,15,1,,,,,,,,,,,,,,,,,,,,,,,,,,,,,,,,,,,,,,,,,
,,,,,,,,,,,,,,,,,,,,,,,19,Male,2020-08-27_16h31.11.451,torte-2b,2020.1.3,Win32,60,13330,,,,,,,,,,,,,space,,,,,,5,0.731,0,16,16,16,1,,,,,,,,,,,,,,,,,,,,,,,,,,,,,,,,,,,,,,,,,
,,,,,,,,,,,,,,,,,,,,,,,19,Male,2020-08-27_16h31.11.451,torte-2b,2020.1.3,Win32,60,13330,,,,,,,,,,,,,,,,,,,3,,0,17,17,17,1,,,,,,,,,,,,,,,,,,,,,,,,,,,,,,,,,,,,,,,,,
,,,,,,,,,,,,,,,,,,,,,,,19,Male,2020-08-27_16h31.11.451,torte-2b,2020.1.3,Win32,60,13330,,,,,,,,,,,,,space,,,,,,6,0.564,0,18,18,18,1,,,,,,,,,,,,,,,,,,,,,,,,,,,,,,,,,,,,,,,,,
,,,,,,,,,,,,,,,,,,,,,,,19,Male,2020-08-27_16h31.11.451,torte-2b,2020.1.3,Win32,60,13330,,,,,,,,,,,,,,,,,,,6,,0,19,19,19,1,,,,,,,,,,,,,,,,,,,,,,,,,,,,,,,,,,,,,,,,,
,,,,,,,,,,,,,,,,,,,,,,,19,Male,2020-08-27_16h31.11.451,torte-2b,2020.1.3,Win32,60,13330,,,,,,,,,,,,,,,,,,,6,,0,20,20,20,1,,,,,,,,,,,,,,,,,,,,,,,,,,,,,,,,,,,,,,,,,
,,,,,,,,,,,,,,,,,,,,,,,19,Male,2020-08-27_16h31.11.451,torte-2b,2020.1.3,Win32,60,13330,,,,,,,,,,,,,,,,,,,4,,0,21,21,21,1,,,,,,,,,,,,,,,,,,,,,,,,,,,,,,,,,,,,,,,,,
,,,,,,,,,,,,,,,,,,,,,,,19,Male,2020-08-27_16h31.11.451,torte-2b,2020.1.3,Win32,60,13330,,,,,,,,,,,,,space,,,,,,6,0.414,0,22,22,22,1,,,,,,,,,,,,,,,,,,,,,,,,,,,,,,,,,,,,,,,,,
,,,,,,,,,,,,,,,,,,,,,,,19,Male,2020-08-27_16h31.11.451,torte-2b,2020.1.3,Win32,60,13330,,,,,,,,,,,,,,,,,,,4,,0,23,23,23,1,,,,,,,,,,,,,,,,,,,,,,,,,,,,,,,,,,,,,,,,,
,,,,,,,,,,,,,,,,,,,,,,,19,Male,2020-08-27_16h31.11.451,torte-2b,2020.1.3,Win32,60,13330,,,,,,,,,,,,,,,,,,,6,,0,24,24,24,1,,,,,,,,,,,,,,,,,,,,,,,,,,,,,,,,,,,,,,,,,
,,,,,,,,,,,,,,,,,,,,,,,19,Male,2020-08-27_16h31.11.451,torte-2b,2020.1.3,Win32,60,13330,,,,,,,,,,,,,space,,,,,,6,0.432,0,25,25,25,1,,,,,,,,,,,,,,,,,,,,,,,,,,,,,,,,,,,,,,,,,
,,,,,,,,,,,,,,,,,,,,,,,19,Male,2020-08-27_16h31.11.451,torte-2b,2020.1.3,Win32,60,13330,,,,,,,,,,,,,,,,,,,7,,0,26,26,26,1,,,,,,,,,,,,,,,,,,,,,,,,,,,,,,,,,,,,,,,,,
,,,,,,,,,,,,,,,,,,,,,,,19,Male,2020-08-27_16h31.11.451,torte-2b,2020.1.3,Win32,60,13330,,,,,,,,,,,,,,,,,,,1,,0,27,27,27,1,,,,,,,,,,,,,,,,,,,,,,,,,,,,,,,,,,,,,,,,,
,,,,,,,,,,,,,,,,,,,,,,,19,Male,2020-08-27_16h31.11.451,torte-2b,2020.1.3,Win32,60,13330,,,,,,,,,,,,,,,,,,,7,,0,28,28,28,1,,,,,,,,,,,,,,,,,,,,,,,,,,,,,,,,,,,,,,,,,
,,,,,,,,,,,,,,,,,,,,,,,19,Male,2020-08-27_16h31.11.451,torte-2b,2020.1.3,Win32,60,13330,,,,,,,,,,,,,space,,,,,,4,0.597,0,29,29,29,1,,,,,,,,,,,,,,,,,,,,,,,,,,,,,,,,,,,,,,,,,
,,,,,,,,,,,,,,,,,,,,,,,19,Male,2020-08-27_16h31.11.451,torte-2b,2020.1.3,Win32,60,13330,,,,,,,,,,,,,,,,,,,7,,0,30,30,30,1,,,,,,,,,,,,,,,,,,,,,,,,,,,,,,,,,,,,,,,,,
,,,,,,,,,,,,,,,,,,,,,,,19,Male,2020-08-27_16h31.11.451,torte-2b,2020.1.3,Win32,60,13330,,,,,,,,,,,,,,,,,,,3,,0,31,31,31,1,,,,,,,,,,,,,,,,,,,,,,,,,,,,,,,,,,,,,,,,,
,,,,,,,,,,,,,,,,,,,,,,,19,Male,2020-08-27_16h31.11.451,torte-2b,2020.1.3,Win32,60,13330,,,,,,,,,,,,,,,,,,,2,,0,32,32,32,1,,,,,,,,,,,,,,,,,,,,,,,,,,,,,,,,,,,,,,,,,
,,,,,,,,,,,,,,,,,,,,,,,19,Male,2020-08-27_16h31.11.451,torte-2b,2020.1.3,Win32,60,13330,,,,,,,,,,,,,space,,,,,,6,0.519,0,33,33,33,1,,,,,,,,,,,,,,,,,,,,,,,,,,,,,,,,,,,,,,,,,
,,,,,,,,,,,,,,,,,,,,,,,19,Male,2020-08-27_16h31.11.451,torte-2b,2020.1.3,Win32,60,13330,,,,,,,,,,,,,,,,,,,3,,0,34,34,34,1,,,,,,,,,,,,,,,,,,,,,,,,,,,,,,,,,,,,,,,,,
,,,,,,,,,,,,,,,,,,,,,,,19,Male,2020-08-27_16h31.11.451,torte-2b,2020.1.3,Win32,60,13330,,,,,,,,,,,,,,,,,,,7,,,,,,,0,0,0,0,1,,,,,,,,,,,,,,,,,,,,,,,,,,,,,,,,,,,,
,,,,,,,,,,,,,,,,,,,,,,,19,Male,2020-08-27_16h31.11.451,torte-2b,2020.1.3,Win32,60,13330,,,,,,,,,,,,,,,,,,,5,,,,,,,0,1,1,1,1,,,,,,,,,,,,,,,,,,,,,,,,,,,,,,,,,,,,
,,,,,,,,,,,,,,,,,,,,,,,19,Male,2020-08-27_16h31.11.451,torte-2b,2020.1.3,Win32,60,13330,,,,,,,,,,,,,,,,,,,4,,,,,,,0,2,2,2,1,,,,,,,,,,,,,,,,,,,,,,,,,,,,,,,,,,,,
,,,,,,,,,,,,,,,,,,,,,,,19,Male,2020-08-27_16h31.11.451,torte-2b,2020.1.3,Win32,60,13330,,,,,,,,,,,,,space,,,,,,5,0.464,,,,,,0,3,3,3,1,,,,,,,,,,,,,,,,,,,,,,,,,,,,,,,,,,,,
,,,,,,,,,,,,,,,,,,,,,,,19,Male,2020-08-27_16h31.11.451,torte-2b,2020.1.3,Win32,60,13330,,,,,,,,,,,,,,,,,,,6,,,,,,,0,4,4,4,1,,,,,,,,,,,,,,,,,,,,,,,,,,,,,,,,,,,,
,,,,,,,,,,,,,,,,,,,,,,,19,Male,2020-08-27_16h31.11.451,torte-2b,2020.1.3,Win32,60,13330,,,,,,,,,,,,,,,,,,,5,,,,,,,0,5,5,5,1,,,,,,,,,,,,,,,,,,,,,,,,,,,,,,,,,,,,
,,,,,,,,,,,,,,,,,,,,,,,19,Male,2020-08-27_16h31.11.451,torte-2b,2020.1.3,Win32,60,13330,,,,,,,,,,,,,,,,,,,3,,,,,,,0,6,6,6,1,,,,,,,,,,,,,,,,,,,,,,,,,,,,,,,,,,,,
,,,,,,,,,,,,,,,,,,,,,,,19,Male,2020-08-27_16h31.11.451,torte-2b,2020.1.3,Win32,60,13330,,,,,,,,,,,,,,,,,,,4,,,,,,,0,7,7,7,1,,,,,,,,,,,,,,,,,,,,,,,,,,,,,,,,,,,,
,,,,,,,,,,,,,,,,,,,,,,,19,Male,2020-08-27_16h31.11.451,torte-2b,2020.1.3,Win32,60,13330,,,,,,,,,,,,,space,,,,,,3,0.581,,,,,,0,8,8,8,1,,,,,,,,,,,,,,,,,,,,,,,,,,,,,,,,,,,,
,,,,,,,,,,,,,,,,,,,,,,,19,Male,2020-08-27_16h31.11.451,torte-2b,2020.1.3,Win32,60,13330,,,,,,,,,,,,,,,,,,,1,,,,,,,0,9,9,9,1,,,,,,,,,,,,,,,,,,,,,,,,,,,,,,,,,,,,
,,,,,,,,,,,,,,,,,,,,,,,19,Male,2020-08-27_16h31.11.451,torte-2b,2020.1.3,Win32,60,13330,,,,,,,,,,,,,,,,,,,2,,,,,,,0,10,10,10,1,,,,,,,,,,,,,,,,,,,,,,,,,,,,,,,,,,,,
,,,,,,,,,,,,,,,,,,,,,,,19,Male,2020-08-27_16h31.11.451,torte-2b,2020.1.3,Win32,60,13330,,,,,,,,,,,,,,,,,,,1,,,,,,,0,11,11,11,1,,,,,,,,,,,,,,,,,,,,,,,,,,,,,,,,,,,,
,,,,,,,,,,,,,,,,,,,,,,,19,Male,2020-08-27_16h31.11.451,torte-2b,2020.1.3,Win32,60,13330,,,,,,,,,,,,,,,,,,,2,,,,,,,0,12,12,12,1,,,,,,,,,,,,,,,,,,,,,,,,,,,,,,,,,,,,
,,,,,,,,,,,,,,,,,,,,,,,19,Male,2020-08-27_16h31.11.451,torte-2b,2020.1.3,Win32,60,13330,,,,,,,,,,,,,space,,,,,,1,0.413,,,,,,0,13,13,13,1,,,,,,,,,,,,,,,,,,,,,,,,,,,,,,,,,,,,
,,,,,,,,,,,,,,,,,,,,,,,19,Male,2020-08-27_16h31.11.451,torte-2b,2020.1.3,Win32,60,13330,,,,,,,,,,,,,,,,,,,3,,,,,,,0,14,14,14,1,,,,,,,,,,,,,,,,,,,,,,,,,,,,,,,,,,,,
,,,,,,,,,,,,,,,,,,,,,,,19,Male,2020-08-27_16h31.11.451,torte-2b,2020.1.3,Win32,60,13330,,,,,,,,,,,,,,,,,,,1,,,,,,,0,15,15,15,1,,,,,,,,,,,,,,,,,,,,,,,,,,,,,,,,,,,,
,,,,,,,,,,,,,,,,,,,,,,,19,Male,2020-08-27_16h31.11.451,torte-2b,2020.1.3,Win32,60,13330,,,,,,,,,,,,,,,,,,,7,,,,,,,0,16,16,16,1,,,,,,,,,,,,,,,,,,,,,,,,,,,,,,,,,,,,
,,,,,,,,,,,,,,,,,,,,,,,19,Male,2020-08-27_16h31.11.451,torte-2b,2020.1.3,Win32,60,13330,,,,,,,,,,,,,space,,,,,,7,1.583,,,,,,0,17,17,17,1,,,,,,,,,,,,,,,,,,,,,,,,,,,,,,,,,,,,
,,,,,,,,,,,,,,,,,,,,,,,19,Male,2020-08-27_16h31.11.451,torte-2b,2020.1.3,Win32,60,13330,,,,,,,,,,,,,,,,,,,4,,,,,,,0,18,18,18,1,,,,,,,,,,,,,,,,,,,,,,,,,,,,,,,,,,,,
,,,,,,,,,,,,,,,,,,,,,,,19,Male,2020-08-27_16h31.11.451,torte-2b,2020.1.3,Win32,60,13330,,,,,,,,,,,,,,,,,,,7,,,,,,,0,19,19,19,1,,,,,,,,,,,,,,,,,,,,,,,,,,,,,,,,,,,,
,,,,,,,,,,,,,,,,,,,,,,,19,Male,2020-08-27_16h31.11.451,torte-2b,2020.1.3,Win32,60,13330,,,,,,,,,,,,,,,,,,,3,,,,,,,0,20,20,20,1,,,,,,,,,,,,,,,,,,,,,,,,,,,,,,,,,,,,
,,,,,,,,,,,,,,,,,,,,,,,19,Male,2020-08-27_16h31.11.451,torte-2b,2020.1.3,Win32,60,13330,,,,,,,,,,,,,space,,,,,,7,0.426,,,,,,0,21,21,21,1,,,,,,,,,,,,,,,,,,,,,,,,,,,,,,,,,,,,
,,,,,,,,,,,,,,,,,,,,,,,19,Male,2020-08-27_16h31.11.451,torte-2b,2020.1.3,Win32,60,13330,,,,,,,,,,,,,,,,,,,3,,,,,,,0,22,22,22,1,,,,,,,,,,,,,,,,,,,,,,,,,,,,,,,,,,,,
,,,,,,,,,,,,,,,,,,,,,,,19,Male,2020-08-27_16h31.11.451,torte-2b,2020.1.3,Win32,60,13330,,,,,,,,,,,,,,,,,,,1,,,,,,,0,23,23,23,1,,,,,,,,,,,,,,,,,,,,,,,,,,,,,,,,,,,,
,,,,,,,,,,,,,,,,,,,,,,,19,Male,2020-08-27_16h31.11.451,torte-2b,2020.1.3,Win32,60,13330,,,,,,,,,,,,,,,,,,,6,,,,,,,0,24,24,24,1,,,,,,,,,,,,,,,,,,,,,,,,,,,,,,,,,,,,
,,,,,,,,,,,,,,,,,,,,,,,19,Male,2020-08-27_16h31.11.451,torte-2b,2020.1.3,Win32,60,13330,,,,,,,,,,,,,space,,,,,,3,0.351,,,,,,0,25,25,25,1,,,,,,,,,,,,,,,,,,,,,,,,,,,,,,,,,,,,
,,,,,,,,,,,,,,,,,,,,,,,19,Male,2020-08-27_16h31.11.451,torte-2b,2020.1.3,Win32,60,13330,,,,,,,,,,,,,,,,,,,2,,,,,,,0,26,26,26,1,,,,,,,,,,,,,,,,,,,,,,,,,,,,,,,,,,,,
,,,,,,,,,,,,,,,,,,,,,,,19,Male,2020-08-27_16h31.11.451,torte-2b,2020.1.3,Win32,60,13330,,,,,,,,,,,,,,,,,,,3,,,,,,,0,27,27,27,1,,,,,,,,,,,,,,,,,,,,,,,,,,,,,,,,,,,,
,,,,,,,,,,,,,,,,,,,,,,,19,Male,2020-08-27_16h31.11.451,torte-2b,2020.1.3,Win32,60,13330,,,,,,,,,,,,,,,,,,,1,,,,,,,0,28,28,28,1,,,,,,,,,,,,,,,,,,,,,,,,,,,,,,,,,,,,
,,,,,,,,,,,,,,,,,,,,,,,19,Male,2020-08-27_16h31.11.451,torte-2b,2020.1.3,Win32,60,13330,,,,,,,,,,,,,space,,,,,,3,0.761,,,,,,0,29,29,29,1,,,,,,,,,,,,,,,,,,,,,,,,,,,,,,,,,,,,
,,,,,,,,,,,,,,,,,,,,,,,19,Male,2020-08-27_16h31.11.451,torte-2b,2020.1.3,Win32,60,13330,,,,,,,,,,,,,,,,,,,1,,,,,,,0,30,30,30,1,,,,,,,,,,,,,,,,,,,,,,,,,,,,,,,,,,,,
,,,,,,,,,,,,,,,,,,,,,,,19,Male,2020-08-27_16h31.11.451,torte-2b,2020.1.3,Win32,60,13330,,,,,,,,,,,,,,,,,,,7,,,,,,,0,31,31,31,1,,,,,,,,,,,,,,,,,,,,,,,,,,,,,,,,,,,,
,,,,,,,,,,,,,,,,,,,,,,,19,Male,2020-08-27_16h31.11.451,torte-2b,2020.1.3,Win32,60,13330,,,,,,,,,,,,,,,,,,,5,,,,,,,0,32,32,32,1,,,,,,,,,,,,,,,,,,,,,,,,,,,,,,,,,,,,
,,,,,,,,,,,,,,,,,,,,,,,19,Male,2020-08-27_16h31.11.451,torte-2b,2020.1.3,Win32,60,13330,,,,,,,,,,,,,,,,,,,7,,,,,,,0,33,33,33,1,,,,,,,,,,,,,,,,,,,,,,,,,,,,,,,,,,,,
,,,,,,,,,,,,,,,,,,,,,,,19,Male,2020-08-27_16h31.11.451,torte-2b,2020.1.3,Win32,60,13330,,,,,,,,,,,,,,,,,,,2,,,,,,,0,34,34,34,1,,,,,,,,,,,,,,,,,,,,,,,,,,,,,,,,,,,,
,,,,,,,,,,,,,,,,,,,,,,,19,Male,2020-08-27_16h31.11.451,torte-2b,2020.1.3,Win32,60,13330,,,,,,,,,,,,,,,,,,,3,,,,,,,,,,,,0,0,0,0,1,,,,,,,,,,,,,,,,,,,,,,,,,,,,,,,
,,,,,,,,,,,,,,,,,,,,,,,19,Male,2020-08-27_16h31.11.451,torte-2b,2020.1.3,Win32,60,13330,,,,,,,,,,,,,,,,,,,7,,,,,,,,,,,,0,1,1,1,1,,,,,,,,,,,,,,,,,,,,,,,,,,,,,,,
,,,,,,,,,,,,,,,,,,,,,,,19,Male,2020-08-27_16h31.11.451,torte-2b,2020.1.3,Win32,60,13330,,,,,,,,,,,,,,,,,,,7,,,,,,,,,,,,0,2,2,2,1,,,,,,,,,,,,,,,,,,,,,,,,,,,,,,,
,,,,,,,,,,,,,,,,,,,,,,,19,Male,2020-08-27_16h31.11.451,torte-2b,2020.1.3,Win32,60,13330,,,,,,,,,,,,,,,,,,,4,,,,,,,,,,,,0,3,3,3,1,,,,,,,,,,,,,,,,,,,,,,,,,,,,,,,
,,,,,,,,,,,,,,,,,,,,,,,19,Male,2020-08-27_16h31.11.451,torte-2b,2020.1.3,Win32,60,13330,,,,,,,,,,,,,,,,,,,5,,,,,,,,,,,,0,4,4,4,1,,,,,,,,,,,,,,,,,,,,,,,,,,,,,,,
,,,,,,,,,,,,,,,,,,,,,,,19,Male,2020-08-27_16h31.11.451,torte-2b,2020.1.3,Win32,60,13330,,,,,,,,,,,,,space,,,,,,4,0.63,,,,,,,,,,,0,5,5,5,1,,,,,,,,,,,,,,,,,,,,,,,,,,,,,,,
,,,,,,,,,,,,,,,,,,,,,,,19,Male,2020-08-27_16h31.11.451,torte-2b,2020.1.3,Win32,60,13330,,,,,,,,,,,,,,,,,,,2,,,,,,,,,,,,0,6,6,6,1,,,,,,,,,,,,,,,,,,,,,,,,,,,,,,,
,,,,,,,,,,,,,,,,,,,,,,,19,Male,2020-08-27_16h31.11.451,torte-2b,2020.1.3,Win32,60,13330,,,,,,,,,,,,,,,,,,,4,,,,,,,,,,,,0,7,7,7,1,,,,,,,,,,,,,,,,,,,,,,,,,,,,,,,
,,,,,,,,,,,,,,,,,,,,,,,19,Male,2020-08-27_16h31.11.451,torte-2b,2020.1.3,Win32,60,13330,,,,,,,,,,,,,space,,,,,,2,0.713,,,,,,,,,,,0,8,8,8,1,,,,,,,,,,,,,,,,,,,,,,,,,,,,,,,
,,,,,,,,,,,,,,,,,,,,,,,19,Male,2020-08-27_16h31.11.451,torte-2b,2020.1.3,Win32,60,13330,,,,,,,,,,,,,,,,,,,2,,,,,,,,,,,,0,9,9,9,1,,,,,,,,,,,,,,,,,,,,,,,,,,,,,,,
,,,,,,,,,,,,,,,,,,,,,,,19,Male,2020-08-27_16h31.11.451,torte-2b,2020.1.3,Win32,60,13330,,,,,,,,,,,,,,,,,,,6,,,,,,,,,,,,0,10,10,10,1,,,,,,,,,,,,,,,,,,,,,,,,,,,,,,,
,,,,,,,,,,,,,,,,,,,,,,,19,Male,2020-08-27_16h31.11.451,torte-2b,2020.1.3,Win32,60,13330,,,,,,,,,,,,,space,,,,,,2,0.431,,,,,,,,,,,0,11,11,11,1,,,,,,,,,,,,,,,,,,,,,,,,,,,,,,,
,,,,,,,,,,,,,,,,,,,,,,,19,Male,2020-08-27_16h31.11.451,torte-2b,2020.1.3,Win32,60,13330,,,,,,,,,,,,,,,,,,,2,,,,,,,,,,,,0,12,12,12,1,,,,,,,,,,,,,,,,,,,,,,,,,,,,,,,
,,,,,,,,,,,,,,,,,,,,,,,19,Male,2020-08-27_16h31.11.451,torte-2b,2020.1.3,Win32,60,13330,,,,,,,,,,,,,,,,,,,2,,,,,,,,,,,,0,13,13,13,1,,,,,,,,,,,,,,,,,,,,,,,,,,,,,,,
,,,,,,,,,,,,,,,,,,,,,,,19,Male,2020-08-27_16h31.11.451,torte-2b,2020.1.3,Win32,60,13330,,,,,,,,,,,,,space,,,,,,2,0.579,,,,,,,,,,,0,14,14,14,1,,,,,,,,,,,,,,,,,,,,,,,,,,,,,,,
,,,,,,,,,,,,,,,,,,,,,,,19,Male,2020-08-27_16h31.11.451,torte-2b,2020.1.3,Win32,60,13330,,,,,,,,,,,,,,,,,,,4,,,,,,,,,,,,0,15,15,15,1,,,,,,,,,,,,,,,,,,,,,,,,,,,,,,,
,,,,,,,,,,,,,,,,,,,,,,,19,Male,2020-08-27_16h31.11.451,torte-2b,2020.1.3,Win32,60,13330,,,,,,,,,,,,,,,,,,,3,,,,,,,,,,,,0,16,16,16,1,,,,,,,,,,,,,,,,,,,,,,,,,,,,,,,
,,,,,,,,,,,,,,,,,,,,,,,19,Male,2020-08-27_16h31.11.451,torte-2b,2020.1.3,Win32,60,13330,,,,,,,,,,,,,,,,,,,7,,,,,,,,,,,,0,17,17,17,1,,,,,,,,,,,,,,,,,,,,,,,,,,,,,,,
,,,,,,,,,,,,,,,,,,,,,,,19,Male,2020-08-27_16h31.11.451,torte-2b,2020.1.3,Win32,60,13330,,,,,,,,,,,,,space,,,,,,4,0.661,,,,,,,,,,,0,18,18,18,1,,,,,,,,,,,,,,,,,,,,,,,,,,,,,,,
,,,,,,,,,,,,,,,,,,,,,,,19,Male,2020-08-27_16h31.11.451,torte-2b,2020.1.3,Win32,60,13330,,,,,,,,,,,,,,,,,,,7,,,,,,,,,,,,0,19,19,19,1,,,,,,,,,,,,,,,,,,,,,,,,,,,,,,,
,,,,,,,,,,,,,,,,,,,,,,,19,Male,2020-08-27_16h31.11.451,torte-2b,2020.1.3,Win32,60,13330,,,,,,,,,,,,,,,,,,,7,,,,,,,,,,,,0,20,20,20,1,,,,,,,,,,,,,,,,,,,,,,,,,,,,,,,
,,,,,,,,,,,,,,,,,,,,,,,19,Male,2020-08-27_16h31.11.451,torte-2b,2020.1.3,Win32,60,13330,,,,,,,,,,,,,,,,,,,7,,,,,,,,,,,,0,21,21,21,1,,,,,,,,,,,,,,,,,,,,,,,,,,,,,,,
,,,,,,,,,,,,,,,,,,,,,,,19,Male,2020-08-27_16h31.11.451,torte-2b,2020.1.3,Win32,60,13330,,,,,,,,,,,,,space,,,,,,7,0.511,,,,,,,,,,,0,22,22,22,1,,,,,,,,,,,,,,,,,,,,,,,,,,,,,,,
,,,,,,,,,,,,,,,,,,,,,,,19,Male,2020-08-27_16h31.11.451,torte-2b,2020.1.3,Win32,60,13330,,,,,,,,,,,,,,,,,,,1,,,,,,,,,,,,0,23,23,23,1,,,,,,,,,,,,,,,,,,,,,,,,,,,,,,,
,,,,,,,,,,,,,,,,,,,,,,,19,Male,2020-08-27_16h31.11.451,torte-2b,2020.1.3,Win32,60,13330,,,,,,,,,,,,,,,,,,,7,,,,,,,,,,,,0,24,24,24,1,,,,,,,,,,,,,,,,,,,,,,,,,,,,,,,
,,,,,,,,,,,,,,,,,,,,,,,19,Male,2020-08-27_16h31.11.451,torte-2b,2020.1.3,Win32,60,13330,,,,,,,,,,,,,,,,,,,1,,,,,,,,,,,,0,25,25,25,1,,,,,,,,,,,,,,,,,,,,,,,,,,,,,,,
,,,,,,,,,,,,,,,,,,,,,,,19,Male,2020-08-27_16h31.11.451,torte-2b,2020.1.3,Win32,60,13330,,,,,,,,,,,,,,,,,,,7,,,,,,,,,,,,0,26,26,26,1,,,,,,,,,,,,,,,,,,,,,,,,,,,,,,,
,,,,,,,,,,,,,,,,,,,,,,,19,Male,2020-08-27_16h31.11.451,torte-2b,2020.1.3,Win32,60,13330,,,,,,,,,,,,,,,,,,,2,,,,,,,,,,,,0,27,27,27,1,,,,,,,,,,,,,,,,,,,,,,,,,,,,,,,
,,,,,,,,,,,,,,,,,,,,,,,19,Male,2020-08-27_16h31.11.451,torte-2b,2020.1.3,Win32,60,13330,,,,,,,,,,,,,,,,,,,5,,,,,,,,,,,,0,28,28,28,1,,,,,,,,,,,,,,,,,,,,,,,,,,,,,,,
,,,,,,,,,,,,,,,,,,,,,,,19,Male,2020-08-27_16h31.11.451,torte-2b,2020.1.3,Win32,60,13330,,,,,,,,,,,,,space,,,,,,5,0.648,,,,,,,,,,,0,29,29,29,1,,,,,,,,,,,,,,,,,,,,,,,,,,,,,,,
,,,,,,,,,,,,,,,,,,,,,,,19,Male,2020-08-27_16h31.11.451,torte-2b,2020.1.3,Win32,60,13330,,,,,,,,,,,,,,,,,,,5,,,,,,,,,,,,0,30,30,30,1,,,,,,,,,,,,,,,,,,,,,,,,,,,,,,,
,,,,,,,,,,,,,,,,,,,,,,,19,Male,2020-08-27_16h31.11.451,torte-2b,2020.1.3,Win32,60,13330,,,,,,,,,,,,,,,,,,,1,,,,,,,,,,,,0,31,31,31,1,,,,,,,,,,,,,,,,,,,,,,,,,,,,,,,
,,,,,,,,,,,,,,,,,,,,,,,19,Male,2020-08-27_16h31.11.451,torte-2b,2020.1.3,Win32,60,13330,,,,,,,,,,,,,space,,,,,,5,1.029,,,,,,,,,,,0,32,32,32,1,,,,,,,,,,,,,,,,,,,,,,,,,,,,,,,
,,,,,,,,,,,,,,,,,,,,,,,19,Male,2020-08-27_16h31.11.451,torte-2b,2020.1.3,Win32,60,13330,,,,,,,,,,,,,,,,,,,3,,,,,,,,,,,,0,33,33,33,1,,,,,,,,,,,,,,,,,,,,,,,,,,,,,,,
,,,,,,,,,,,,,,,,,,,,,,,19,Male,2020-08-27_16h31.11.451,torte-2b,2020.1.3,Win32,60,13330,,,,,,,,,,,,,,,,,,,3,,,,,,,,,,,,0,34,34,34,1,,,,,,,,,,,,,,,,,,,,,,,,,,,,,,,
,,,,,,,,,,,,a,Incorrect,,,,,,t5.png,t3.png,2,0.0565,19,Male,2020-08-27_16h31.11.451,torte-2b,2020.1.3,Win32,60,13330,0.603,space,23.312,,,,,,,,,,,,,,,,,,,,,,,,,,,,,,,,,space,44.733,0,0,0,39,1,,,,,,,,,,,,,,,,,,,,,,,,
,,,,,,,,,,,,l,Incorrect,,,,,,t5.png,t4.png,1,0.9,19,Male,2020-08-27_16h31.11.451,torte-2b,2020.1.3,Win32,60,13330,0.78,,,,,,,,,,,,,,,,,,,,,,,,,,,,,,,,,,,,,0,1,1,49,1,,,,,,,,,,,,,,,,,,,,,,,,
,,,,,,,,,,,,a,Incorrect,,,,,,t3.png,t1.png,2,0.0565,19,Male,2020-08-27_16h31.11.451,torte-2b,2020.1.3,Win32,60,13330,0.715,,,,,,,,,,,,,,,,,,,,,,,,,,,,,,,,,,,,,0,2,2,31,1,,,,,,,,,,,,,,,,,,,,,,,,
,,,,,,,,,,,,l,Incorrect,,,,,,t2.png,t3.png,1,0.90855,19,Male,2020-08-27_16h31.11.451,torte-2b,2020.1.3,Win32,60,13330,0.819,,,,,,,,,,,,,,,,,,,,,,,,,,,,,,,,,,,,,0,3,3,111,1,,,,,,,,,,,,,,,,,,,,,,,,
,,,,,,,,,,,,a,Correct!,,,,,,t2.png,t1.png,1,0.90025,19,Male,2020-08-27_16h31.11.451,torte-2b,2020.1.3,Win32,60,13330,0.973,,,,,,,,,,,,,,,,,,,,,,,,,,,,,,,,,,,,,0,4,4,62,1,,,,,,,,,,,,,,,,,,,,,,,,
,,,,,,,,,,,,a,Incorrect,,,,,,t4.png,t1.png,3,0.0000131,19,Male,2020-08-27_16h31.11.451,torte-2b,2020.1.3,Win32,60,13330,0.669,,,,,,,,,,,,,,,,,,,,,,,,,,,,,,,,,,,,,0,5,5,48,1,,,,,,,,,,,,,,,,,,,,,,,,
,,,,,,,,,,,,l,Correct!,,,,,,t1.png,t3.png,2,0.056466,19,Male,2020-08-27_16h31.11.451,torte-2b,2020.1.3,Win32,60,13330,0.619,,,,,,,,,,,,,,,,,,,,,,,,,,,,,,,,,,,,,0,6,6,99,1,,,,,,,,,,,,,,,,,,,,,,,,
,,,,,,,,,,,,l,Incorrect,,,,,,t4.png,t4.png,0,0.98115,19,Male,2020-08-27_16h31.11.451,torte-2b,2020.1.3,Win32,60,13330,1.114,,,,,,,,,,,,,,,,,,,,,,,,,,,,,,,,,,,,,0,7,7,52,1,,,,,,,,,,,,,,,,,,,,,,,,
,,,,,,,,,,,,l,Correct!,,,,,,t1.png,t5.png,4,9.55E-11,19,Male,2020-08-27_16h31.11.451,torte-2b,2020.1.3,Win32,60,13330,0.69,,,,,,,,,,,,,,,,,,,,,,,,,,,,,,,,,,,,,0,8,8,16,1,,,,,,,,,,,,,,,,,,,,,,,,
,,,,,,,,,,,,a,Incorrect,,,,,,t4.png,t1.png,3,0.0000131,19,Male,2020-08-27_16h31.11.451,torte-2b,2020.1.3,Win32,60,13330,0.717,,,,,,,,,,,,,,,,,,,,,,,,,,,,,,,,,,,,,0,9,9,93,1,,,,,,,,,,,,,,,,,,,,,,,,
,,,,,,,,,,,,a,Incorrect,,,,,,t3.png,t1.png,2,0.056466,19,Male,2020-08-27_16h31.11.451,torte-2b,2020.1.3,Win32,60,13330,0.782,,,,,,,,,,,,,,,,,,,,,,,,,,,,,,,,,,,,,0,10,10,0,1,,,,,,,,,,,,,,,,,,,,,,,,
,,,,,,,,,,,,l,Correct!,,,,,,t2.png,t4.png,2,0.059078,19,Male,2020-08-27_16h31.11.451,torte-2b,2020.1.3,Win32,60,13330,0.917,,,,,,,,,,,,,,,,,,,,,,,,,,,,,,,,,,,,,0,11,11,37,1,,,,,,,,,,,,,,,,,,,,,,,,
,,,,,,,,,,,,l,Incorrect,,,,,,t2.png,t4.png,2,0.059078,19,Male,2020-08-27_16h31.11.451,torte-2b,2020.1.3,Win32,60,13330,0.55,,,,,,,,,,,,,,,,,,,,,,,,,,,,,,,,,,,,,0,12,12,11,1,,,,,,,,,,,,,,,,,,,,,,,,
,,,,,,,,,,,,a,Correct!,,,,,,t4.png,t4.png,0,0.98115,19,Male,2020-08-27_16h31.11.451,torte-2b,2020.1.3,Win32,60,13330,1.267,,,,,,,,,,,,,,,,,,,,,,,,,,,,,,,,,,,,,0,13,13,21,1,,,,,,,,,,,,,,,,,,,,,,,,
,,,,,,,,,,,,l,Incorrect,,,,,,t2.png,t3.png,1,0.90855,19,Male,2020-08-27_16h31.11.451,torte-2b,2020.1.3,Win32,60,13330,0.801,,,,,,,,,,,,,,,,,,,,,,,,,,,,,,,,,,,,,0,14,14,68,1,,,,,,,,,,,,,,,,,,,,,,,,
,,,,,,,,,,,,a,Incorrect,,,,,,t4.png,t1.png,3,0.0000131,19,Male,2020-08-27_16h31.11.451,torte-2b,2020.1.3,Win32,60,13330,0.617,,,,,,,,,,,,,,,,,,,,,,,,,,,,,,,,,,,,,0,15,15,61,1,,,,,,,,,,,,,,,,,,,,,,,,
,,,,,,,,,,,,a,Correct!,,,,,,t5.png,t5.png,0,0.97829,19,Male,2020-08-27_16h31.11.451,torte-2b,2020.1.3,Win32,60,13330,0.932,,,,,,,,,,,,,,,,,,,,,,,,,,,,,,,,,,,,,0,16,16,94,1,,,,,,,,,,,,,,,,,,,,,,,,
,,,,,,,,,,,,a,Correct!,,,,,,t1.png,t1.png,0,0.978,19,Male,2020-08-27_16h31.11.451,torte-2b,2020.1.3,Win32,60,13330,1.017,,,,,,,,,,,,,,,,,,,,,,,,,,,,,,,,,,,,,0,17,17,28,1,,,,,,,,,,,,,,,,,,,,,,,,
,,,,,,,,,,,,l,Incorrect,,,,,,t3.png,t4.png,1,0.909,19,Male,2020-08-27_16h31.11.451,torte-2b,2020.1.3,Win32,60,13330,0.956,,,,,,,,,,,,,,,,,,,,,,,,,,,,,,,,,,,,,0,18,18,106,1,,,,,,,,,,,,,,,,,,,,,,,,
,,,,,,,,,,,,l,Correct!,,,,,,t2.png,t4.png,2,0.059078,19,Male,2020-08-27_16h31.11.451,torte-2b,2020.1.3,Win32,60,13330,0.718,,,,,,,,,,,,,,,,,,,,,,,,,,,,,,,,,,,,,0,19,19,77,1,,,,,,,,,,,,,,,,,,,,,,,,
,,,,,,,,,,,,a,Incorrect,,,,,,t5.png,t2.png,3,0.0000131,19,Male,2020-08-27_16h31.11.451,torte-2b,2020.1.3,Win32,60,13330,0.665,,,,,,,,,,,,,,,,,,,,,,,,,,,,,,,,,,,,,0,20,20,116,1,,,,,,,,,,,,,,,,,,,,,,,,
,,,,,,,,,,,,l,Incorrect,,,,,,t5.png,t5.png,0,0.978,19,Male,2020-08-27_16h31.11.451,torte-2b,2020.1.3,Win32,60,13330,0.764,,,,,,,,,,,,,,,,,,,,,,,,,,,,,,,,,,,,,0,21,21,117,1,,,,,,,,,,,,,,,,,,,,,,,,
,,,,,,,,,,,,l,Correct!,,,,,,t2.png,t5.png,3,0.0000131,19,Male,2020-08-27_16h31.11.451,torte-2b,2020.1.3,Win32,60,13330,0.654,,,,,,,,,,,,,,,,,,,,,,,,,,,,,,,,,,,,,0,22,22,104,1,,,,,,,,,,,,,,,,,,,,,,,,
,,,,,,,,,,,,l,Incorrect,,,,,,t1.png,t1.png,0,0.97829,19,Male,2020-08-27_16h31.11.451,torte-2b,2020.1.3,Win32,60,13330,1.033,,,,,,,,,,,,,,,,,,,,,,,,,,,,,,,,,,,,,0,23,23,9,1,,,,,,,,,,,,,,,,,,,,,,,,
,,,,,,,,,,,,l,Correct!,,,,,,t1.png,t4.png,3,0.0000131,19,Male,2020-08-27_16h31.11.451,torte-2b,2020.1.3,Win32,60,13330,0.583,,,,,,,,,,,,,,,,,,,,,,,,,,,,,,,,,,,,,0,24,24,50,1,,,,,,,,,,,,,,,,,,,,,,,,
,,,,,,,,,,,,l,Incorrect,,,,,,t4.png,t5.png,1,0.90025,19,Male,2020-08-27_16h31.11.451,torte-2b,2020.1.3,Win32,60,13330,0.666,,,,,,,,,,,,,,,,,,,,,,,,,,,,,,,,,,,,,0,25,25,103,1,,,,,,,,,,,,,,,,,,,,,,,,
,,,,,,,,,,,,a,Correct!,,,,,,t3.png,t2.png,1,0.90855,19,Male,2020-08-27_16h31.11.451,torte-2b,2020.1.3,Win32,60,13330,0.717,,,,,,,,,,,,,,,,,,,,,,,,,,,,,,,,,,,,,0,26,26,97,1,,,,,,,,,,,,,,,,,,,,,,,,
,,,,,,,,,,,,a,Incorrect,,,,,,t5.png,t3.png,2,0.056466,19,Male,2020-08-27_16h31.11.451,torte-2b,2020.1.3,Win32,60,13330,0.701,,,,,,,,,,,,,,,,,,,,,,,,,,,,,,,,,,,,,0,27,27,114,1,,,,,,,,,,,,,,,,,,,,,,,,
,,,,,,,,,,,,a,Correct!,,,,,,t4.png,t2.png,2,0.059078,19,Male,2020-08-27_16h31.11.451,torte-2b,2020.1.3,Win32,60,13330,0.697,,,,,,,,,,,,,,,,,,,,,,,,,,,,,,,,,,,,,0,28,28,110,1,,,,,,,,,,,,,,,,,,,,,,,,
,,,,,,,,,,,,a,Correct!,,,,,,t3.png,t1.png,2,0.056466,19,Male,2020-08-27_16h31.11.451,torte-2b,2020.1.3,Win32,60,13330,0.687,,,,,,,,,,,,,,,,,,,,,,,,,,,,,,,,,,,,,0,29,29,29,1,,,,,,,,,,,,,,,,,,,,,,,,
,,,,,,,,,,,,l,Correct!,,,,,,t2.png,t5.png,3,0.0000131,19,Male,2020-08-27_16h31.11.451,torte-2b,2020.1.3,Win32,60,13330,0.717,,,,,,,,,,,,,,,,,,,,,,,,,,,,,,,,,,,,,0,30,30,40,1,,,,,,,,,,,,,,,,,,,,,,,,
,,,,,,,,,,,,a,Incorrect,,,,,,t3.png,t1.png,2,0.056466,19,Male,2020-08-27_16h31.11.451,torte-2b,2020.1.3,Win32,60,13330,0.802,,,,,,,,,,,,,,,,,,,,,,,,,,,,,,,,,,,,,0,31,31,32,1,,,,,,,,,,,,,,,,,,,,,,,,
,,,,,,,,,,,,a,Incorrect,,,,,,t5.png,t1.png,4,9.55E-11,19,Male,2020-08-27_16h31.11.451,torte-2b,2020.1.3,Win32,60,13330,0.852,,,,,,,,,,,,,,,,,,,,,,,,,,,,,,,,,,,,,0,32,32,22,1,,,,,,,,,,,,,,,,,,,,,,,,
,,,,,,,,,,,,l,Incorrect,,,,,,t2.png,t3.png,1,0.909,19,Male,2020-08-27_16h31.11.451,torte-2b,2020.1.3,Win32,60,13330,1.082,,,,,,,,,,,,,,,,,,,,,,,,,,,,,,,,,,,,,0,33,33,74,1,,,,,,,,,,,,,,,,,,,,,,,,
,,,,,,,,,,,,l,Incorrect,,,,,,t5.png,t5.png,0,0.97829,19,Male,2020-08-27_16h31.11.451,torte-2b,2020.1.3,Win32,60,13330,1.114,,,,,,,,,,,,,,,,,,,,,,,,,,,,,,,,,,,,,0,34,34,70,1,,,,,,,,,,,,,,,,,,,,,,,,
,,,,,,,,,,,,l,Incorrect,,,,,,t4.png,t4.png,0,0.98115,19,Male,2020-08-27_16h31.11.451,torte-2b,2020.1.3,Win32,60,13330,1.001,,,,,,,,,,,,,,,,,,,,,,,,,,,,,,,,,,,,,0,35,35,90,1,,,,,,,,,,,,,,,,,,,,,,,,
,,,,,,,,,,,,l,Correct!,,,,,,t1.png,t5.png,4,9.55E-11,19,Male,2020-08-27_16h31.11.451,torte-2b,2020.1.3,Win32,60,13330,0.696,,,,,,,,,,,,,,,,,,,,,,,,,,,,,,,,,,,,,0,36,36,85,1,,,,,,,,,,,,,,,,,,,,,,,,
,,,,,,,,,,,,l,Correct!,,,,,,t1.png,t3.png,2,0.056466,19,Male,2020-08-27_16h31.11.451,torte-2b,2020.1.3,Win32,60,13330,0.732,,,,,,,,,,,,,,,,,,,,,,,,,,,,,,,,,,,,,0,37,37,69,1,,,,,,,,,,,,,,,,,,,,,,,,
,,,,,,,,,,,,l,Correct!,,,,,,t1.png,t5.png,4,9.55E-11,19,Male,2020-08-27_16h31.11.451,torte-2b,2020.1.3,Win32,60,13330,0.837,,,,,,,,,,,,,,,,,,,,,,,,,,,,,,,,,,,,,0,38,38,12,1,,,,,,,,,,,,,,,,,,,,,,,,
,,,,,,,,,,,,l,Correct!,,,,,,t1.png,t5.png,4,9.55E-11,19,Male,2020-08-27_16h31.11.451,torte-2b,2020.1.3,Win32,60,13330,0.654,,,,,,,,,,,,,,,,,,,,,,,,,,,,,,,,,,,,,0,39,39,41,1,,,,,,,,,,,,,,,,,,,,,,,,
,,,,,,,,,,,,a,Correct!,,,,,,t3.png,t2.png,1,0.909,19,Male,2020-08-27_16h31.11.451,torte-2b,2020.1.3,Win32,60,13330,1.251,,,,,,,,,,,,,,,,,,,,,,,,,,,,,,,,,,,,,0,40,40,23,1,,,,,,,,,,,,,,,,,,,,,,,,
,,,,,,,,,,,,a,Incorrect,,,,,,t5.png,t2.png,3,0.0000131,19,Male,2020-08-27_16h31.11.451,torte-2b,2020.1.3,Win32,60,13330,1.249,,,,,,,,,,,,,,,,,,,,,,,,,,,,,,,,,,,,,0,41,41,91,1,,,,,,,,,,,,,,,,,,,,,,,,
,,,,,,,,,,,,a,Correct!,,,,,,t4.png,t4.png,0,0.98115,19,Male,2020-08-27_16h31.11.451,torte-2b,2020.1.3,Win32,60,13330,1.231,,,,,,,,,,,,,,,,,,,,,,,,,,,,,,,,,,,,,0,42,42,79,1,,,,,,,,,,,,,,,,,,,,,,,,
,,,,,,,,,,,,l,Correct!,,,,,,t1.png,t4.png,3,0.0000131,19,Male,2020-08-27_16h31.11.451,torte-2b,2020.1.3,Win32,60,13330,1.034,,,,,,,,,,,,,,,,,,,,,,,,,,,,,,,,,,,,,0,43,43,17,1,,,,,,,,,,,,,,,,,,,,,,,,
,,,,,,,,,,,,l,Incorrect,,,,,,t4.png,t5.png,1,0.9,19,Male,2020-08-27_16h31.11.451,torte-2b,2020.1.3,Win32,60,13330,0.668,,,,,,,,,,,,,,,,,,,,,,,,,,,,,,,,,,,,,0,44,44,115,1,,,,,,,,,,,,,,,,,,,,,,,,
,,,,,,,,,,,,a,Correct!,,,,,,t3.png,t2.png,1,0.909,19,Male,2020-08-27_16h31.11.451,torte-2b,2020.1.3,Win32,60,13330,0.903,,,,,,,,,,,,,,,,,,,,,,,,,,,,,,,,,,,,,0,45,45,3,1,,,,,,,,,,,,,,,,,,,,,,,,
,,,,,,,,,,,,a,Correct!,,,,,,t5.png,t4.png,1,0.9,19,Male,2020-08-27_16h31.11.451,torte-2b,2020.1.3,Win32,60,13330,1.319,,,,,,,,,,,,,,,,,,,,,,,,,,,,,,,,,,,,,0,46,46,76,1,,,,,,,,,,,,,,,,,,,,,,,,
,,,,,,,,,,,,a,Correct!,,,,,,t3.png,t2.png,1,0.90855,19,Male,2020-08-27_16h31.11.451,torte-2b,2020.1.3,Win32,60,13330,0.817,,,,,,,,,,,,,,,,,,,,,,,,,,,,,,,,,,,,,0,47,47,53,1,,,,,,,,,,,,,,,,,,,,,,,,
,,,,,,,,,,,,a,Correct!,,,,,,t4.png,t3.png,1,0.90855,19,Male,2020-08-27_16h31.11.451,torte-2b,2020.1.3,Win32,60,13330,0.818,,,,,,,,,,,,,,,,,,,,,,,,,,,,,,,,,,,,,0,48,48,75,1,,,,,,,,,,,,,,,,,,,,,,,,
,,,,,,,,,,,,a,Incorrect,,,,,,t2.png,t1.png,1,0.90025,19,Male,2020-08-27_16h31.11.451,torte-2b,2020.1.3,Win32,60,13330,0.688,,,,,,,,,,,,,,,,,,,,,,,,,,,,,,,,,,,,,0,49,49,5,1,,,,,,,,,,,,,,,,,,,,,,,,
,,,,,,,,,,,,l,Correct!,,,,,,t2.png,t4.png,2,0.059078,19,Male,2020-08-27_16h31.11.451,torte-2b,2020.1.3,Win32,60,13330,0.682,,,,,,,,,,,,,,,,,,,,,,,,,,,,,,,,,,,,,0,50,50,24,1,,,,,,,,,,,,,,,,,,,,,,,,
,,,,,,,,,,,,l,Correct!,,,,,,t3.png,t5.png,2,0.0565,19,Male,2020-08-27_16h31.11.451,torte-2b,2020.1.3,Win32,60,13330,0.567,,,,,,,,,,,,,,,,,,,,,,,,,,,,,,,,,,,,,0,51,51,30,1,,,,,,,,,,,,,,,,,,,,,,,,
,,,,,,,,,,,,a,Correct!,,,,,,t5.png,t4.png,1,0.90025,19,Male,2020-08-27_16h31.11.451,torte-2b,2020.1.3,Win32,60,13330,1.101,,,,,,,,,,,,,,,,,,,,,,,,,,,,,,,,,,,,,0,52,52,34,1,,,,,,,,,,,,,,,,,,,,,,,,
,,,,,,,,,,,,a,Correct!,,,,,,t2.png,t1.png,1,0.9,19,Male,2020-08-27_16h31.11.451,torte-2b,2020.1.3,Win32,60,13330,2.434,,,,,,,,,,,,,,,,,,,,,,,,,,,,,,,,,,,,,0,53,53,118,1,,,,,,,,,,,,,,,,,,,,,,,,
,,,,,,,,,,,,l,Incorrect,,,,,,t3.png,t4.png,1,0.909,19,Male,2020-08-27_16h31.11.451,torte-2b,2020.1.3,Win32,60,13330,0.753,,,,,,,,,,,,,,,,,,,,,,,,,,,,,,,,,,,,,0,54,54,89,1,,,,,,,,,,,,,,,,,,,,,,,,
,,,,,,,,,,,,l,Incorrect,,,,,,t5.png,t5.png,0,0.97829,19,Male,2020-08-27_16h31.11.451,torte-2b,2020.1.3,Win32,60,13330,1.086,,,,,,,,,,,,,,,,,,,,,,,,,,,,,,,,,,,,,0,55,55,25,1,,,,,,,,,,,,,,,,,,,,,,,,
,,,,,,,,,,,,l,Correct!,,,,,,t1.png,t3.png,2,0.056466,19,Male,2020-08-27_16h31.11.451,torte-2b,2020.1.3,Win32,60,13330,0.602,,,,,,,,,,,,,,,,,,,,,,,,,,,,,,,,,,,,,0,56,56,87,1,,,,,,,,,,,,,,,,,,,,,,,,
,,,,,,,,,,,,a,Correct!,,,,,,t2.png,t1.png,1,0.90025,19,Male,2020-08-27_16h31.11.451,torte-2b,2020.1.3,Win32,60,13330,0.941,,,,,,,,,,,,,,,,,,,,,,,,,,,,,,,,,,,,,0,57,57,19,1,,,,,,,,,,,,,,,,,,,,,,,,
,,,,,,,,,,,,l,Correct!,,,,,,t1.png,t4.png,3,0.0000131,19,Male,2020-08-27_16h31.11.451,torte-2b,2020.1.3,Win32,60,13330,1,,,,,,,,,,,,,,,,,,,,,,,,,,,,,,,,,,,,,0,58,58,92,1,,,,,,,,,,,,,,,,,,,,,,,,
,,,,,,,,,,,,l,Correct!,,,,,,t1.png,t3.png,2,0.056466,19,Male,2020-08-27_16h31.11.451,torte-2b,2020.1.3,Win32,60,13330,1.085,,,,,,,,,,,,,,,,,,,,,,,,,,,,,,,,,,,,,0,59,59,63,1,,,,,,,,,,,,,,,,,,,,,,,,
,,,,,,,,,,,,l,Incorrect,,,,,,t2.png,t2.png,0,0.98115,19,Male,2020-08-27_16h31.11.451,torte-2b,2020.1.3,Win32,60,13330,1.619,,,,,,,,,,,,,,,,,,,,,,,,,,,,,,,,,,,,,0,60,60,59,1,,,,,,,,,,,,,,,,,,,,,,,,
,,,,,,,,,,,,a,Incorrect,,,,,,t4.png,t1.png,3,0.0000131,19,Male,2020-08-27_16h31.11.451,torte-2b,2020.1.3,Win32,60,13330,1.164,,,,,,,,,,,,,,,,,,,,,,,,,,,,,,,,,,,,,0,61,61,13,1,,,,,,,,,,,,,,,,,,,,,,,,
,,,,,,,,,,,,a,Incorrect,,,,,,t5.png,t2.png,3,0.0000131,19,Male,2020-08-27_16h31.11.451,torte-2b,2020.1.3,Win32,60,13330,0.684,,,,,,,,,,,,,,,,,,,,,,,,,,,,,,,,,,,,,0,62,62,119,1,,,,,,,,,,,,,,,,,,,,,,,,
,,,,,,,,,,,,l,Incorrect,,,,,,t1.png,t2.png,1,0.90025,19,Male,2020-08-27_16h31.11.451,torte-2b,2020.1.3,Win32,60,13330,1.067,,,,,,,,,,,,,,,,,,,,,,,,,,,,,,,,,,,,,0,63,63,72,1,,,,,,,,,,,,,,,,,,,,,,,,
,,,,,,,,,,,,l,Incorrect,,,,,,t3.png,t4.png,1,0.90855,19,Male,2020-08-27_16h31.11.451,torte-2b,2020.1.3,Win32,60,13330,0.867,,,,,,,,,,,,,,,,,,,,,,,,,,,,,,,,,,,,,0,64,64,84,1,,,,,,,,,,,,,,,,,,,,,,,,
,,,,,,,,,,,,a,Incorrect,,,,,,t5.png,t3.png,2,0.056466,19,Male,2020-08-27_16h31.11.451,torte-2b,2020.1.3,Win32,60,13330,0.553,,,,,,,,,,,,,,,,,,,,,,,,,,,,,,,,,,,,,0,65,65,108,1,,,,,,,,,,,,,,,,,,,,,,,,
,,,,,,,,,,,,a,Incorrect,,,,,,t3.png,t2.png,1,0.90855,19,Male,2020-08-27_16h31.11.451,torte-2b,2020.1.3,Win32,60,13330,0.751,,,,,,,,,,,,,,,,,,,,,,,,,,,,,,,,,,,,,0,66,66,18,1,,,,,,,,,,,,,,,,,,,,,,,,
,,,,,,,,,,,,l,Incorrect,,,,,,t2.png,t3.png,1,0.90855,19,Male,2020-08-27_16h31.11.451,torte-2b,2020.1.3,Win32,60,13330,0.92,,,,,,,,,,,,,,,,,,,,,,,,,,,,,,,,,,,,,0,67,67,65,1,,,,,,,,,,,,,,,,,,,,,,,,
,,,,,,,,,,,,a,Incorrect,,,,,,t5.png,t1.png,4,9.55E-11,19,Male,2020-08-27_16h31.11.451,torte-2b,2020.1.3,Win32,60,13330,0.584,,,,,,,,,,,,,,,,,,,,,,,,,,,,,,,,,,,,,0,68,68,43,1,,,,,,,,,,,,,,,,,,,,,,,,
,,,,,,,,,,,,a,Correct!,,,,,,t5.png,t4.png,1,0.90025,19,Male,2020-08-27_16h31.11.451,torte-2b,2020.1.3,Win32,60,13330,0.966,,,,,,,,,,,,,,,,,,,,,,,,,,,,,,,,,,,,,0,69,69,27,1,,,,,,,,,,,,,,,,,,,,,,,,
,,,,,,,,,,,,l,Incorrect,,,,,,t1.png,t1.png,0,0.97829,19,Male,2020-08-27_16h31.11.451,torte-2b,2020.1.3,Win32,60,13330,1.248,,,,,,,,,,,,,,,,,,,,,,,,,,,,,,,,,,,,,0,70,70,67,1,,,,,,,,,,,,,,,,,,,,,,,,
,,,,,,,,,,,,l,Incorrect,,,,,,t1.png,t2.png,1,0.90025,19,Male,2020-08-27_16h31.11.451,torte-2b,2020.1.3,Win32,60,13330,1.4,,,,,,,,,,,,,,,,,,,,,,,,,,,,,,,,,,,,,0,71,71,33,1,,,,,,,,,,,,,,,,,,,,,,,,
,,,,,,,,,,,,a,Incorrect,,,,,,t5.png,t2.png,3,0.0000131,19,Male,2020-08-27_16h31.11.451,torte-2b,2020.1.3,Win32,60,13330,1.034,,,,,,,,,,,,,,,,,,,,,,,,,,,,,,,,,,,,,0,72,72,98,1,,,,,,,,,,,,,,,,,,,,,,,,
,,,,,,,,,,,,l,Correct!,,,,,,t3.png,t4.png,1,0.90855,19,Male,2020-08-27_16h31.11.451,torte-2b,2020.1.3,Win32,60,13330,0.882,,,,,,,,,,,,,,,,,,,,,,,,,,,,,,,,,,,,,0,73,73,96,1,,,,,,,,,,,,,,,,,,,,,,,,
,,,,,,,,,,,,a,Incorrect,,,,,,t4.png,t1.png,3,0.0000131,19,Male,2020-08-27_16h31.11.451,torte-2b,2020.1.3,Win32,60,13330,1.099,,,,,,,,,,,,,,,,,,,,,,,,,,,,,,,,,,,,,0,74,74,42,1,,,,,,,,,,,,,,,,,,,,,,,,
,,,,,,,,,,,,l,Correct!,,,,,,t3.png,t5.png,2,0.0565,19,Male,2020-08-27_16h31.11.451,torte-2b,2020.1.3,Win32,60,13330,0.933,,,,,,,,,,,,,,,,,,,,,,,,,,,,,,,,,,,,,0,75,75,83,1,,,,,,,,,,,,,,,,,,,,,,,,
,,,,,,,,,,,,l,Correct!,,,,,,t1.png,t3.png,2,0.056466,19,Male,2020-08-27_16h31.11.451,torte-2b,2020.1.3,Win32,60,13330,0.568,,,,,,,,,,,,,,,,,,,,,,,,,,,,,,,,,,,,,0,76,76,60,1,,,,,,,,,,,,,,,,,,,,,,,,
,,,,,,,,,,,,l,Incorrect,,,,,,t1.png,t2.png,1,0.90025,19,Male,2020-08-27_16h31.11.451,torte-2b,2020.1.3,Win32,60,13330,0.671,,,,,,,,,,,,,,,,,,,,,,,,,,,,,,,,,,,,,0,77,77,105,1,,,,,,,,,,,,,,,,,,,,,,,,
,,,,,,,,,,,,a,Correct!,,,,,,t4.png,t3.png,1,0.90855,19,Male,2020-08-27_16h31.11.451,torte-2b,2020.1.3,Win32,60,13330,0.651,,,,,,,,,,,,,,,,,,,,,,,,,,,,,,,,,,,,,0,78,78,45,1,,,,,,,,,,,,,,,,,,,,,,,,
,,,,,,,,,,,,a,Incorrect,,,,,,t5.png,t2.png,3,0.0000131,19,Male,2020-08-27_16h31.11.451,torte-2b,2020.1.3,Win32,60,13330,1.019,,,,,,,,,,,,,,,,,,,,,,,,,,,,,,,,,,,,,0,79,79,51,1,,,,,,,,,,,,,,,,,,,,,,,,
,,,,,,,,,,,,a,Incorrect,,,,,,t5.png,t1.png,4,9.55E-11,19,Male,2020-08-27_16h31.11.451,torte-2b,2020.1.3,Win32,60,13330,0.766,,,,,,,,,,,,,,,,,,,,,,,,,,,,,,,,,,,,,0,80,80,100,1,,,,,,,,,,,,,,,,,,,,,,,,
,,,,,,,,,,,,l,Correct!,,,,,,t1.png,t5.png,4,9.55E-11,19,Male,2020-08-27_16h31.11.451,torte-2b,2020.1.3,Win32,60,13330,0.918,,,,,,,,,,,,,,,,,,,,,,,,,,,,,,,,,,,,,0,81,81,55,1,,,,,,,,,,,,,,,,,,,,,,,,
,,,,,,,,,,,,a,Correct!,,,,,,t2.png,t1.png,1,0.90025,19,Male,2020-08-27_16h31.11.451,torte-2b,2020.1.3,Win32,60,13330,0.801,,,,,,,,,,,,,,,,,,,,,,,,,,,,,,,,,,,,,0,82,82,4,1,,,,,,,,,,,,,,,,,,,,,,,,
,,,,,,,,,,,,a,Correct!,,,,,,t2.png,t2.png,0,0.98115,19,Male,2020-08-27_16h31.11.451,torte-2b,2020.1.3,Win32,60,13330,1.402,,,,,,,,,,,,,,,,,,,,,,,,,,,,,,,,,,,,,0,83,83,2,1,,,,,,,,,,,,,,,,,,,,,,,,
,,,,,,,,,,,,l,Incorrect,,,,,,t2.png,t3.png,1,0.90855,19,Male,2020-08-27_16h31.11.451,torte-2b,2020.1.3,Win32,60,13330,1.418,,,,,,,,,,,,,,,,,,,,,,,,,,,,,,,,,,,,,0,84,84,10,1,,,,,,,,,,,,,,,,,,,,,,,,
,,,,,,,,,,,,a,Incorrect,,,,,,t4.png,t2.png,2,0.059078,19,Male,2020-08-27_16h31.11.451,torte-2b,2020.1.3,Win32,60,13330,1.435,,,,,,,,,,,,,,,,,,,,,,,,,,,,,,,,,,,,,0,85,85,86,1,,,,,,,,,,,,,,,,,,,,,,,,
,,,,,,,,,,,,a,Incorrect,,,,,,t4.png,t2.png,2,0.059078,19,Male,2020-08-27_16h31.11.451,torte-2b,2020.1.3,Win32,60,13330,0.933,,,,,,,,,,,,,,,,,,,,,,,,,,,,,,,,,,,,,0,86,86,88,1,,,,,,,,,,,,,,,,,,,,,,,,
,,,,,,,,,,,,a,Correct!,,,,,,t4.png,t3.png,1,0.909,19,Male,2020-08-27_16h31.11.451,torte-2b,2020.1.3,Win32,60,13330,1.099,,,,,,,,,,,,,,,,,,,,,,,,,,,,,,,,,,,,,0,87,87,46,1,,,,,,,,,,,,,,,,,,,,,,,,
,,,,,,,,,,,,l,Correct!,,,,,,t2.png,t5.png,3,0.0000131,19,Male,2020-08-27_16h31.11.451,torte-2b,2020.1.3,Win32,60,13330,0.866,,,,,,,,,,,,,,,,,,,,,,,,,,,,,,,,,,,,,0,88,88,95,1,,,,,,,,,,,,,,,,,,,,,,,,
,,,,,,,,,,,,l,Incorrect,,,,,,t4.png,t5.png,1,0.90025,19,Male,2020-08-27_16h31.11.451,torte-2b,2020.1.3,Win32,60,13330,0.718,,,,,,,,,,,,,,,,,,,,,,,,,,,,,,,,,,,,,0,89,89,58,1,,,,,,,,,,,,,,,,,,,,,,,,
,,,,,,,,,,,,l,Incorrect,,,,,,t1.png,t2.png,1,0.90025,19,Male,2020-08-27_16h31.11.451,torte-2b,2020.1.3,Win32,60,13330,1.217,,,,,,,,,,,,,,,,,,,,,,,,,,,,,,,,,,,,,0,90,90,112,1,,,,,,,,,,,,,,,,,,,,,,,,
,,,,,,,,,,,,l,Correct!,,,,,,t1.png,t4.png,3,0.0000131,19,Male,2020-08-27_16h31.11.451,torte-2b,2020.1.3,Win32,60,13330,0.701,,,,,,,,,,,,,,,,,,,,,,,,,,,,,,,,,,,,,0,91,91,107,1,,,,,,,,,,,,,,,,,,,,,,,,
,,,,,,,,,,,,l,Correct!,,,,,,t1.png,t4.png,3,0.0000131,19,Male,2020-08-27_16h31.11.451,torte-2b,2020.1.3,Win32,60,13330,0.582,,,,,,,,,,,,,,,,,,,,,,,,,,,,,,,,,,,,,0,92,92,81,1,,,,,,,,,,,,,,,,,,,,,,,,
,,,,,,,,,,,,l,Incorrect,,,,,,t4.png,t5.png,1,0.90025,19,Male,2020-08-27_16h31.11.451,torte-2b,2020.1.3,Win32,60,13330,1.001,,,,,,,,,,,,,,,,,,,,,,,,,,,,,,,,,,,,,0,93,93,47,1,,,,,,,,,,,,,,,,,,,,,,,,
,,,,,,,,,,,,a,Incorrect,,,,,,t5.png,t1.png,4,9.55E-11,19,Male,2020-08-27_16h31.11.451,torte-2b,2020.1.3,Win32,60,13330,0.666,,,,,,,,,,,,,,,,,,,,,,,,,,,,,,,,,,,,,0,94,94,102,1,,,,,,,,,,,,,,,,,,,,,,,,
,,,,,,,,,,,,l,Incorrect,,,,,,t2.png,t2.png,0,0.98115,19,Male,2020-08-27_16h31.11.451,torte-2b,2020.1.3,Win32,60,13330,1.783,,,,,,,,,,,,,,,,,,,,,,,,,,,,,,,,,,,,,0,95,95,57,1,,,,,,,,,,,,,,,,,,,,,,,,
,,,,,,,,,,,,a,Incorrect,,,,,,t4.png,t2.png,2,0.0591,19,Male,2020-08-27_16h31.11.451,torte-2b,2020.1.3,Win32,60,13330,0.651,,,,,,,,,,,,,,,,,,,,,,,,,,,,,,,,,,,,,0,96,96,36,1,,,,,,,,,,,,,,,,,,,,,,,,
,,,,,,,,,,,,l,Incorrect,,,,,,t5.png,t5.png,0,0.97829,19,Male,2020-08-27_16h31.11.451,torte-2b,2020.1.3,Win32,60,13330,1.653,,,,,,,,,,,,,,,,,,,,,,,,,,,,,,,,,,,,,0,97,97,73,1,,,,,,,,,,,,,,,,,,,,,,,,
,,,,,,,,,,,,l,Incorrect,,,,,,t1.png,t2.png,1,0.9,19,Male,2020-08-27_16h31.11.451,torte-2b,2020.1.3,Win32,60,13330,0.972,,,,,,,,,,,,,,,,,,,,,,,,,,,,,,,,,,,,,0,98,98,1,1,,,,,,,,,,,,,,,,,,,,,,,,
,,,,,,,,,,,,a,Correct!,,,,,,t5.png,t4.png,1,0.90025,19,Male,2020-08-27_16h31.11.451,torte-2b,2020.1.3,Win32,60,13330,1.399,,,,,,,,,,,,,,,,,,,,,,,,,,,,,,,,,,,,,0,99,99,26,1,,,,,,,,,,,,,,,,,,,,,,,,
,,,,,,,,,,,,a,Correct!,,,,,,t4.png,t3.png,1,0.909,19,Male,2020-08-27_16h31.11.451,torte-2b,2020.1.3,Win32,60,13330,1.267,,,,,,,,,,,,,,,,,,,,,,,,,,,,,,,,,,,,,0,100,100,20,1,,,,,,,,,,,,,,,,,,,,,,,,
,,,,,,,,,,,,a,Incorrect,,,,,,t3.png,t1.png,2,0.056466,19,Male,2020-08-27_16h31.11.451,torte-2b,2020.1.3,Win32,60,13330,1.049,,,,,,,,,,,,,,,,,,,,,,,,,,,,,,,,,,,,,0,101,101,64,1,,,,,,,,,,,,,,,,,,,,,,,,
,,,,,,,,,,,,a,Correct!,,,,,,t1.png,t1.png,0,0.978,19,Male,2020-08-27_16h31.11.451,torte-2b,2020.1.3,Win32,60,13330,2.083,,,,,,,,,,,,,,,,,,,,,,,,,,,,,,,,,,,,,0,102,102,54,1,,,,,,,,,,,,,,,,,,,,,,,,
,,,,,,,,,,,,l,Correct!,,,,,,t3.png,t5.png,2,0.056466,19,Male,2020-08-27_16h31.11.451,torte-2b,2020.1.3,Win32,60,13330,1.199,,,,,,,,,,,,,,,,,,,,,,,,,,,,,,,,,,,,,0,103,103,14,1,,,,,,,,,,,,,,,,,,,,,,,,
,,,,,,,,,,,,l,Correct!,,,,,,t3.png,t5.png,2,0.056466,19,Male,2020-08-27_16h31.11.451,torte-2b,2020.1.3,Win32,60,13330,0.771,,,,,,,,,,,,,,,,,,,,,,,,,,,,,,,,,,,,,0,104,104,6,1,,,,,,,,,,,,,,,,,,,,,,,,
,,,,,,,,,,,,l,Incorrect,,,,,,t4.png,t4.png,0,0.98115,19,Male,2020-08-27_16h31.11.451,torte-2b,2020.1.3,Win32,60,13330,1.333,,,,,,,,,,,,,,,,,,,,,,,,,,,,,,,,,,,,,0,105,105,80,1,,,,,,,,,,,,,,,,,,,,,,,,
,,,,,,,,,,,,l,Incorrect,,,,,,t3.png,t4.png,1,0.909,19,Male,2020-08-27_16h31.11.451,torte-2b,2020.1.3,Win32,60,13330,0.82,,,,,,,,,,,,,,,,,,,,,,,,,,,,,,,,,,,,,0,106,106,82,1,,,,,,,,,,,,,,,,,,,,,,,,
,,,,,,,,,,,,l,Correct!,,,,,,t3.png,t5.png,2,0.056466,19,Male,2020-08-27_16h31.11.451,torte-2b,2020.1.3,Win32,60,13330,0.671,,,,,,,,,,,,,,,,,,,,,,,,,,,,,,,,,,,,,0,107,107,44,1,,,,,,,,,,,,,,,,,,,,,,,,
,,,,,,,,,,,,a,Incorrect,,,,,,t5.png,t3.png,2,0.056466,19,Male,2020-08-27_16h31.11.451,torte-2b,2020.1.3,Win32,60,13330,1.237,,,,,,,,,,,,,,,,,,,,,,,,,,,,,,,,,,,,,0,108,108,38,1,,,,,,,,,,,,,,,,,,,,,,,,
,,,,,,,,,,,,l,Correct!,,,,,,t2.png,t4.png,2,0.0591,19,Male,2020-08-27_16h31.11.451,torte-2b,2020.1.3,Win32,60,13330,2.231,,,,,,,,,,,,,,,,,,,,,,,,,,,,,,,,,,,,,0,109,109,15,1,,,,,,,,,,,,,,,,,,,,,,,,
,,,,,,,,,,,,a,Correct!,,,,,,t2.png,t2.png,0,0.98115,19,Male,2020-08-27_16h31.11.451,torte-2b,2020.1.3,Win32,60,13330,1.12,,,,,,,,,,,,,,,,,,,,,,,,,,,,,,,,,,,,,0,110,110,7,1,,,,,,,,,,,,,,,,,,,,,,,,
,,,,,,,,,,,,l,Incorrect,,,,,,t4.png,t5.png,1,0.90025,19,Male,2020-08-27_16h31.11.451,torte-2b,2020.1.3,Win32,60,13330,1.039,,,,,,,,,,,,,,,,,,,,,,,,,,,,,,,,,,,,,0,111,111,113,1,,,,,,,,,,,,,,,,,,,,,,,,
,,,,,,,,,,,,l,Correct!,,,,,,t2.png,t5.png,3,0.0000131,19,Male,2020-08-27_16h31.11.451,torte-2b,2020.1.3,Win32,60,13330,0.771,,,,,,,,,,,,,,,,,,,,,,,,,,,,,,,,,,,,,0,112,112,8,1,,,,,,,,,,,,,,,,,,,,,,,,
,,,,,,,,,,,,l,Incorrect,,,,,,t1.png,t1.png,0,0.97829,19,Male,2020-08-27_16h31.11.451,torte-2b,2020.1.3,Win32,60,13330,0.881,,,,,,,,,,,,,,,,,,,,,,,,,,,,,,,,,,,,,0,113,113,78,1,,,,,,,,,,,,,,,,,,,,,,,,
,,,,,,,,,,,,a,Incorrect,,,,,,t5.png,t3.png,2,0.056466,19,Male,2020-08-27_16h31.11.451,torte-2b,2020.1.3,Win32,60,13330,1.583,,,,,,,,,,,,,,,,,,,,,,,,,,,,,,,,,,,,,0,114,114,56,1,,,,,,,,,,,,,,,,,,,,,,,,
,,,,,,,,,,,,a,Correct!,,,,,,t2.png,t2.png,0,0.981,19,Male,2020-08-27_16h31.11.451,torte-2b,2020.1.3,Win32,60,13330,1.915,,,,,,,,,,,,,,,,,,,,,,,,,,,,,,,,,,,,,0,115,115,101,1,,,,,,,,,,,,,,,,,,,,,,,,
,,,,,,,,,,,,a,Correct!,,,,,,t4.png,t3.png,1,0.90855,19,Male,2020-08-27_16h31.11.451,torte-2b,2020.1.3,Win32,60,13330,1.77,,,,,,,,,,,,,,,,,,,,,,,,,,,,,,,,,,,,,0,116,116,35,1,,,,,,,,,,,,,,,,,,,,,,,,
,,,,,,,,,,,,a,Incorrect,,,,,,t4.png,t2.png,2,0.059078,19,Male,2020-08-27_16h31.11.451,torte-2b,2020.1.3,Win32,60,13330,1.384,,,,,,,,,,,,,,,,,,,,,,,,,,,,,,,,,,,,,0,117,117,109,1,,,,,,,,,,,,,,,,,,,,,,,,
,,,,,,,,,,,,l,Correct!,,,,,,t2.png,t5.png,3,0.0000131,19,Male,2020-08-27_16h31.11.451,torte-2b,2020.1.3,Win32,60,13330,1.317,,,,,,,,,,,,,,,,,,,,,,,,,,,,,,,,,,,,,0,118,118,66,1,,,,,,,,,,,,,,,,,,,,,,,,
,,,,,,,,,,,,a,Incorrect,,,,,,t5.png,t1.png,4,9.55E-11,19,Male,2020-08-27_16h31.11.451,torte-2b,2020.1.3,Win32,60,13330,1,,,,,,,,,,,,,,,,,,,,,,,,,,,,,,,,,,,,,0,119,119,71,1,,,,,,,,,,,,,,,,,,,,,,,,
,,,,,,,,,,,,,,,,,,,,,,,19,Male,2020-08-27_16h31.11.451,torte-2b,2020.1.3,Win32,60,13330,,space,5.988,,,,,,,,,,,,,,,,,,,,,,,,,,,,,,,,,,,,,,,,76,66.5,1,0,0,s3,18,86.5,1,0,0,t1,163,-103.5,1,0,0,proceed,space,2.563,space,3.862,space,2.514
