key_resp_8.keys,key_resp_8.rt,key_resp_9.keys,key_resp_9.rt,key_resp_10.keys,key_resp_10.rt,key_resp_11.keys,key_resp_11.rt,key_resp_2.keys,key_resp_2.rt,key_resp_3.keys,key_resp_3.rt,key_resp.keys,key_resp.rt,Feedback,train.thisRepN,train.thisTrialN,train.thisN,train.thisIndex,train.ran,torta_sx,torta_dx,difference,probability,age,gender,date,expName,psychopyVersion,OS,frameRate,participant,key_resp_15.keys,key_resp_15.rt,key_resp_6.keys,key_resp_6.rt,test1.thisRepN,test1.thisTrialN,test1.thisN,test1.thisIndex,test1.ran,key_resp_4.keys,key_resp_4.rt,key_resp_5.keys,back1.thisRepN,back1.thisTrialN,back1.thisN,back1.thisIndex,back1.ran,letter,key_resp_5.rt,back2.thisRepN,back2.thisTrialN,back2.thisN,back2.thisIndex,back2.ran,back3.thisRepN,back3.thisTrialN,back3.thisN,back3.thisIndex,back3.ran,back4.thisRepN,back4.thisTrialN,back4.thisN,back4.thisIndex,back4.ran,key_resp_7.keys,key_resp_7.rt,test2.thisRepN,test2.thisTrialN,test2.thisN,test2.thisIndex,test2.ran,mouse.x,mouse.y,mouse.leftButton,mouse.midButton,mouse.rightButton,mouse.clicked_name,mouse_2.x,mouse_2.y,mouse_2.leftButton,mouse_2.midButton,mouse_2.rightButton,mouse_2.clicked_name,mouse_3.x,mouse_3.y,mouse_3.leftButton,mouse_3.midButton,mouse_3.rightButton,mouse_3.clicked_name,key_resp_12.keys,key_resp_12.rt,key_resp_13.keys,key_resp_13.rt,key_resp_14.keys,key_resp_14.rt
space,38.489,space,11.807,space,0.14,space,2.822,space,10.683,space,46.021,l,1.509,Correct!,0,0,0,40,1,t1.png,t5.png,4,9.55E-11,19,female,2020-11-19_14h21.40.492,torte-2b,2020.1.3,MacIntel,60,13338,,,,,,,,,,,,,,,,,,,,,,,,,,,,,,,,,,,,,,,,,,,,,,,,,,,,,,,,,,,,,,,,,
,,,,,,,,,,,,l,1.052,Incorrect,0,1,1,44,1,t2.png,t3.png,1,0.909,19,female,2020-11-19_14h21.40.492,torte-2b,2020.1.3,MacIntel,60,13338,,,,,,,,,,,,,,,,,,,,,,,,,,,,,,,,,,,,,,,,,,,,,,,,,,,,,,,,,,,,,,,,,
,,,,,,,,,,,,a,1.631,Correct!,0,2,2,70,1,t5.png,t5.png,0,0.978,19,female,2020-11-19_14h21.40.492,torte-2b,2020.1.3,MacIntel,60,13338,,,,,,,,,,,,,,,,,,,,,,,,,,,,,,,,,,,,,,,,,,,,,,,,,,,,,,,,,,,,,,,,,
,,,,,,,,,,,,l,1.036,Correct!,0,3,3,110,1,t4.png,t5.png,1,0.90025,19,female,2020-11-19_14h21.40.492,torte-2b,2020.1.3,MacIntel,60,13338,,,,,,,,,,,,,,,,,,,,,,,,,,,,,,,,,,,,,,,,,,,,,,,,,,,,,,,,,,,,,,,,,
,,,,,,,,,,,,l,0.972,Correct!,0,4,4,89,1,t1.png,t4.png,3,0.0000131,19,female,2020-11-19_14h21.40.492,torte-2b,2020.1.3,MacIntel,60,13338,,,,,,,,,,,,,,,,,,,,,,,,,,,,,,,,,,,,,,,,,,,,,,,,,,,,,,,,,,,,,,,,,
,,,,,,,,,,,,l,0.631,Correct!,0,5,5,6,1,t1.png,t4.png,3,0.0000131,19,female,2020-11-19_14h21.40.492,torte-2b,2020.1.3,MacIntel,60,13338,,,,,,,,,,,,,,,,,,,,,,,,,,,,,,,,,,,,,,,,,,,,,,,,,,,,,,,,,,,,,,,,,
,,,,,,,,,,,,a,1.821,Correct!,0,6,6,25,1,t5.png,t5.png,0,0.97829,19,female,2020-11-19_14h21.40.492,torte-2b,2020.1.3,MacIntel,60,13338,,,,,,,,,,,,,,,,,,,,,,,,,,,,,,,,,,,,,,,,,,,,,,,,,,,,,,,,,,,,,,,,,
,,,,,,,,,,,,a,1.047,Incorrect,0,7,7,72,1,t4.png,t2.png,2,0.059078,19,female,2020-11-19_14h21.40.492,torte-2b,2020.1.3,MacIntel,60,13338,,,,,,,,,,,,,,,,,,,,,,,,,,,,,,,,,,,,,,,,,,,,,,,,,,,,,,,,,,,,,,,,,
,,,,,,,,,,,,l,1.232,Incorrect,0,8,8,71,1,t5.png,t5.png,0,0.97829,19,female,2020-11-19_14h21.40.492,torte-2b,2020.1.3,MacIntel,60,13338,,,,,,,,,,,,,,,,,,,,,,,,,,,,,,,,,,,,,,,,,,,,,,,,,,,,,,,,,,,,,,,,,
,,,,,,,,,,,,l,0.651,Correct!,0,9,9,119,1,t1.png,t5.png,4,9.55E-11,19,female,2020-11-19_14h21.40.492,torte-2b,2020.1.3,MacIntel,60,13338,,,,,,,,,,,,,,,,,,,,,,,,,,,,,,,,,,,,,,,,,,,,,,,,,,,,,,,,,,,,,,,,,
,,,,,,,,,,,,a,0.773,Incorrect,0,10,10,83,1,t3.png,t1.png,2,0.056466,19,female,2020-11-19_14h21.40.492,torte-2b,2020.1.3,MacIntel,60,13338,,,,,,,,,,,,,,,,,,,,,,,,,,,,,,,,,,,,,,,,,,,,,,,,,,,,,,,,,,,,,,,,,
,,,,,,,,,,,,l,0.982,Correct!,0,11,11,61,1,t1.png,t4.png,3,0.0000131,19,female,2020-11-19_14h21.40.492,torte-2b,2020.1.3,MacIntel,60,13338,,,,,,,,,,,,,,,,,,,,,,,,,,,,,,,,,,,,,,,,,,,,,,,,,,,,,,,,,,,,,,,,,
,,,,,,,,,,,,a,0.799,Incorrect,0,12,12,88,1,t3.png,t1.png,2,0.056466,19,female,2020-11-19_14h21.40.492,torte-2b,2020.1.3,MacIntel,60,13338,,,,,,,,,,,,,,,,,,,,,,,,,,,,,,,,,,,,,,,,,,,,,,,,,,,,,,,,,,,,,,,,,
,,,,,,,,,,,,l,0.58,Correct!,0,13,13,99,1,t1.png,t5.png,4,9.55E-11,19,female,2020-11-19_14h21.40.492,torte-2b,2020.1.3,MacIntel,60,13338,,,,,,,,,,,,,,,,,,,,,,,,,,,,,,,,,,,,,,,,,,,,,,,,,,,,,,,,,,,,,,,,,
,,,,,,,,,,,,a,0.981,Incorrect,0,14,14,43,1,t4.png,t2.png,2,0.059078,19,female,2020-11-19_14h21.40.492,torte-2b,2020.1.3,MacIntel,60,13338,,,,,,,,,,,,,,,,,,,,,,,,,,,,,,,,,,,,,,,,,,,,,,,,,,,,,,,,,,,,,,,,,
,,,,,,,,,,,,a,0.851,Correct!,0,15,15,2,1,t3.png,t2.png,1,0.90855,19,female,2020-11-19_14h21.40.492,torte-2b,2020.1.3,MacIntel,60,13338,,,,,,,,,,,,,,,,,,,,,,,,,,,,,,,,,,,,,,,,,,,,,,,,,,,,,,,,,,,,,,,,,
,,,,,,,,,,,,l,1.299,Incorrect,0,16,16,29,1,t5.png,t5.png,0,0.97829,19,female,2020-11-19_14h21.40.492,torte-2b,2020.1.3,MacIntel,60,13338,,,,,,,,,,,,,,,,,,,,,,,,,,,,,,,,,,,,,,,,,,,,,,,,,,,,,,,,,,,,,,,,,
,,,,,,,,,,,,l,0.848,Incorrect,0,17,17,106,1,t2.png,t3.png,1,0.90855,19,female,2020-11-19_14h21.40.492,torte-2b,2020.1.3,MacIntel,60,13338,,,,,,,,,,,,,,,,,,,,,,,,,,,,,,,,,,,,,,,,,,,,,,,,,,,,,,,,,,,,,,,,,
,,,,,,,,,,,,l,0.708,Correct!,0,18,18,17,1,t1.png,t4.png,3,0.0000131,19,female,2020-11-19_14h21.40.492,torte-2b,2020.1.3,MacIntel,60,13338,,,,,,,,,,,,,,,,,,,,,,,,,,,,,,,,,,,,,,,,,,,,,,,,,,,,,,,,,,,,,,,,,
,,,,,,,,,,,,a,1.105,Incorrect,0,19,19,87,1,t5.png,t1.png,4,9.55E-11,19,female,2020-11-19_14h21.40.492,torte-2b,2020.1.3,MacIntel,60,13338,,,,,,,,,,,,,,,,,,,,,,,,,,,,,,,,,,,,,,,,,,,,,,,,,,,,,,,,,,,,,,,,,
,,,,,,,,,,,,l,0.599,Correct!,0,20,20,91,1,t1.png,t4.png,3,0.0000131,19,female,2020-11-19_14h21.40.492,torte-2b,2020.1.3,MacIntel,60,13338,,,,,,,,,,,,,,,,,,,,,,,,,,,,,,,,,,,,,,,,,,,,,,,,,,,,,,,,,,,,,,,,,
,,,,,,,,,,,,a,1.057,Incorrect,0,21,21,69,1,t4.png,t2.png,2,0.059078,19,female,2020-11-19_14h21.40.492,torte-2b,2020.1.3,MacIntel,60,13338,,,,,,,,,,,,,,,,,,,,,,,,,,,,,,,,,,,,,,,,,,,,,,,,,,,,,,,,,,,,,,,,,
,,,,,,,,,,,,a,1.298,Correct!,0,22,22,79,1,t3.png,t2.png,1,0.909,19,female,2020-11-19_14h21.40.492,torte-2b,2020.1.3,MacIntel,60,13338,,,,,,,,,,,,,,,,,,,,,,,,,,,,,,,,,,,,,,,,,,,,,,,,,,,,,,,,,,,,,,,,,
,,,,,,,,,,,,l,0.667,Correct!,0,23,23,1,1,t2.png,t4.png,2,0.059078,19,female,2020-11-19_14h21.40.492,torte-2b,2020.1.3,MacIntel,60,13338,,,,,,,,,,,,,,,,,,,,,,,,,,,,,,,,,,,,,,,,,,,,,,,,,,,,,,,,,,,,,,,,,
,,,,,,,,,,,,a,0.849,Correct!,0,24,24,105,1,t3.png,t2.png,1,0.90855,19,female,2020-11-19_14h21.40.492,torte-2b,2020.1.3,MacIntel,60,13338,,,,,,,,,,,,,,,,,,,,,,,,,,,,,,,,,,,,,,,,,,,,,,,,,,,,,,,,,,,,,,,,,
,,,,,,,,,,,,l,1.283,Incorrect,0,25,25,113,1,t5.png,t4.png,1,0.9,19,female,2020-11-19_14h21.40.492,torte-2b,2020.1.3,MacIntel,60,13338,,,,,,,,,,,,,,,,,,,,,,,,,,,,,,,,,,,,,,,,,,,,,,,,,,,,,,,,,,,,,,,,,
,,,,,,,,,,,,a,0.441,Incorrect,0,26,26,50,1,t5.png,t1.png,4,9.55E-11,19,female,2020-11-19_14h21.40.492,torte-2b,2020.1.3,MacIntel,60,13338,,,,,,,,,,,,,,,,,,,,,,,,,,,,,,,,,,,,,,,,,,,,,,,,,,,,,,,,,,,,,,,,,
,,,,,,,,,,,,a,0.637,Incorrect,0,27,27,27,1,t3.png,t1.png,2,0.0565,19,female,2020-11-19_14h21.40.492,torte-2b,2020.1.3,MacIntel,60,13338,,,,,,,,,,,,,,,,,,,,,,,,,,,,,,,,,,,,,,,,,,,,,,,,,,,,,,,,,,,,,,,,,
,,,,,,,,,,,,l,0.606,Incorrect,0,28,28,7,1,t4.png,t5.png,1,0.90025,19,female,2020-11-19_14h21.40.492,torte-2b,2020.1.3,MacIntel,60,13338,,,,,,,,,,,,,,,,,,,,,,,,,,,,,,,,,,,,,,,,,,,,,,,,,,,,,,,,,,,,,,,,,
,,,,,,,,,,,,l,0.815,Correct!,0,29,29,58,1,t5.png,t4.png,1,0.90025,19,female,2020-11-19_14h21.40.492,torte-2b,2020.1.3,MacIntel,60,13338,,,,,,,,,,,,,,,,,,,,,,,,,,,,,,,,,,,,,,,,,,,,,,,,,,,,,,,,,,,,,,,,,
,,,,,,,,,,,,a,0.835,Incorrect,0,30,30,53,1,t3.png,t1.png,2,0.056466,19,female,2020-11-19_14h21.40.492,torte-2b,2020.1.3,MacIntel,60,13338,,,,,,,,,,,,,,,,,,,,,,,,,,,,,,,,,,,,,,,,,,,,,,,,,,,,,,,,,,,,,,,,,
,,,,,,,,,,,,a,1.982,Incorrect,0,31,31,33,1,t5.png,t1.png,4,9.55E-11,19,female,2020-11-19_14h21.40.492,torte-2b,2020.1.3,MacIntel,60,13338,,,,,,,,,,,,,,,,,,,,,,,,,,,,,,,,,,,,,,,,,,,,,,,,,,,,,,,,,,,,,,,,,
,,,,,,,,,,,,a,2.265,Correct!,0,32,32,41,1,t3.png,t2.png,1,0.90855,19,female,2020-11-19_14h21.40.492,torte-2b,2020.1.3,MacIntel,60,13338,,,,,,,,,,,,,,,,,,,,,,,,,,,,,,,,,,,,,,,,,,,,,,,,,,,,,,,,,,,,,,,,,
,,,,,,,,,,,,l,0.907,Correct!,0,33,33,4,1,t1.png,t5.png,4,9.55E-11,19,female,2020-11-19_14h21.40.492,torte-2b,2020.1.3,MacIntel,60,13338,,,,,,,,,,,,,,,,,,,,,,,,,,,,,,,,,,,,,,,,,,,,,,,,,,,,,,,,,,,,,,,,,
,,,,,,,,,,,,,,Too slow :(,0,34,34,37,1,t1.png,t4.png,3,0.0000131,19,female,2020-11-19_14h21.40.492,torte-2b,2020.1.3,MacIntel,60,13338,,,,,,,,,,,,,,,,,,,,,,,,,,,,,,,,,,,,,,,,,,,,,,,,,,,,,,,,,,,,,,,,,
,,,,,,,,,,,,l,0.981,Incorrect,0,35,35,28,1,t2.png,t3.png,1,0.909,19,female,2020-11-19_14h21.40.492,torte-2b,2020.1.3,MacIntel,60,13338,,,,,,,,,,,,,,,,,,,,,,,,,,,,,,,,,,,,,,,,,,,,,,,,,,,,,,,,,,,,,,,,,
,,,,,,,,,,,,l,1.389,Incorrect,0,36,36,49,1,t4.png,t5.png,1,0.9,19,female,2020-11-19_14h21.40.492,torte-2b,2020.1.3,MacIntel,60,13338,,,,,,,,,,,,,,,,,,,,,,,,,,,,,,,,,,,,,,,,,,,,,,,,,,,,,,,,,,,,,,,,,
,,,,,,,,,,,,l,0.755,Incorrect,0,37,37,32,1,t4.png,t5.png,1,0.90025,19,female,2020-11-19_14h21.40.492,torte-2b,2020.1.3,MacIntel,60,13338,,,,,,,,,,,,,,,,,,,,,,,,,,,,,,,,,,,,,,,,,,,,,,,,,,,,,,,,,,,,,,,,,
,,,,,,,,,,,,l,1.206,Incorrect,0,38,38,81,1,t1.png,t1.png,0,0.97829,19,female,2020-11-19_14h21.40.492,torte-2b,2020.1.3,MacIntel,60,13338,,,,,,,,,,,,,,,,,,,,,,,,,,,,,,,,,,,,,,,,,,,,,,,,,,,,,,,,,,,,,,,,,
,,,,,,,,,,,,l,1.507,Correct!,0,39,39,93,1,t2.png,t4.png,2,0.059078,19,female,2020-11-19_14h21.40.492,torte-2b,2020.1.3,MacIntel,60,13338,,,,,,,,,,,,,,,,,,,,,,,,,,,,,,,,,,,,,,,,,,,,,,,,,,,,,,,,,,,,,,,,,
,,,,,,,,,,,,a,1.169,Correct!,0,40,40,96,1,t1.png,t1.png,0,0.97829,19,female,2020-11-19_14h21.40.492,torte-2b,2020.1.3,MacIntel,60,13338,,,,,,,,,,,,,,,,,,,,,,,,,,,,,,,,,,,,,,,,,,,,,,,,,,,,,,,,,,,,,,,,,
,,,,,,,,,,,,l,1.649,Correct!,0,41,41,35,1,t1.png,t4.png,3,0.0000131,19,female,2020-11-19_14h21.40.492,torte-2b,2020.1.3,MacIntel,60,13338,,,,,,,,,,,,,,,,,,,,,,,,,,,,,,,,,,,,,,,,,,,,,,,,,,,,,,,,,,,,,,,,,
,,,,,,,,,,,,l,0.965,Incorrect,0,42,42,63,1,t2.png,t3.png,1,0.909,19,female,2020-11-19_14h21.40.492,torte-2b,2020.1.3,MacIntel,60,13338,,,,,,,,,,,,,,,,,,,,,,,,,,,,,,,,,,,,,,,,,,,,,,,,,,,,,,,,,,,,,,,,,
,,,,,,,,,,,,l,0.848,Incorrect,0,43,43,75,1,t1.png,t1.png,0,0.97829,19,female,2020-11-19_14h21.40.492,torte-2b,2020.1.3,MacIntel,60,13338,,,,,,,,,,,,,,,,,,,,,,,,,,,,,,,,,,,,,,,,,,,,,,,,,,,,,,,,,,,,,,,,,
,,,,,,,,,,,,a,0.581,Incorrect,0,44,44,56,1,t5.png,t1.png,4,9.55E-11,19,female,2020-11-19_14h21.40.492,torte-2b,2020.1.3,MacIntel,60,13338,,,,,,,,,,,,,,,,,,,,,,,,,,,,,,,,,,,,,,,,,,,,,,,,,,,,,,,,,,,,,,,,,
,,,,,,,,,,,,a,0.465,Incorrect,0,45,45,86,1,t3.png,t1.png,2,0.056466,19,female,2020-11-19_14h21.40.492,torte-2b,2020.1.3,MacIntel,60,13338,,,,,,,,,,,,,,,,,,,,,,,,,,,,,,,,,,,,,,,,,,,,,,,,,,,,,,,,,,,,,,,,,
,,,,,,,,,,,,l,0.98,Incorrect,0,46,46,84,1,t1.png,t1.png,0,0.97829,19,female,2020-11-19_14h21.40.492,torte-2b,2020.1.3,MacIntel,60,13338,,,,,,,,,,,,,,,,,,,,,,,,,,,,,,,,,,,,,,,,,,,,,,,,,,,,,,,,,,,,,,,,,
,,,,,,,,,,,,a,0.589,Correct!,0,47,47,118,1,t5.png,t5.png,0,0.978,19,female,2020-11-19_14h21.40.492,torte-2b,2020.1.3,MacIntel,60,13338,,,,,,,,,,,,,,,,,,,,,,,,,,,,,,,,,,,,,,,,,,,,,,,,,,,,,,,,,,,,,,,,,
,,,,,,,,,,,,a,0.771,Correct!,0,48,48,48,1,t5.png,t5.png,0,0.97829,19,female,2020-11-19_14h21.40.492,torte-2b,2020.1.3,MacIntel,60,13338,,,,,,,,,,,,,,,,,,,,,,,,,,,,,,,,,,,,,,,,,,,,,,,,,,,,,,,,,,,,,,,,,
,,,,,,,,,,,,a,0.779,Correct!,0,49,49,18,1,t4.png,t5.png,1,0.90025,19,female,2020-11-19_14h21.40.492,torte-2b,2020.1.3,MacIntel,60,13338,,,,,,,,,,,,,,,,,,,,,,,,,,,,,,,,,,,,,,,,,,,,,,,,,,,,,,,,,,,,,,,,,
,,,,,,,,,,,,a,1.506,Correct!,0,50,50,95,1,t1.png,t1.png,0,0.978,19,female,2020-11-19_14h21.40.492,torte-2b,2020.1.3,MacIntel,60,13338,,,,,,,,,,,,,,,,,,,,,,,,,,,,,,,,,,,,,,,,,,,,,,,,,,,,,,,,,,,,,,,,,
,,,,,,,,,,,,l,1.198,Correct!,0,51,51,68,1,t1.png,t4.png,3,0.0000131,19,female,2020-11-19_14h21.40.492,torte-2b,2020.1.3,MacIntel,60,13338,,,,,,,,,,,,,,,,,,,,,,,,,,,,,,,,,,,,,,,,,,,,,,,,,,,,,,,,,,,,,,,,,
,,,,,,,,,,,,l,1.14,Incorrect,0,52,52,10,1,t2.png,t3.png,1,0.90855,19,female,2020-11-19_14h21.40.492,torte-2b,2020.1.3,MacIntel,60,13338,,,,,,,,,,,,,,,,,,,,,,,,,,,,,,,,,,,,,,,,,,,,,,,,,,,,,,,,,,,,,,,,,
,,,,,,,,,,,,l,1.434,Correct!,0,53,53,117,1,t1.png,t5.png,4,9.55E-11,19,female,2020-11-19_14h21.40.492,torte-2b,2020.1.3,MacIntel,60,13338,,,,,,,,,,,,,,,,,,,,,,,,,,,,,,,,,,,,,,,,,,,,,,,,,,,,,,,,,,,,,,,,,
,,,,,,,,,,,,l,0.902,Incorrect,0,54,54,101,1,t4.png,t5.png,1,0.90025,19,female,2020-11-19_14h21.40.492,torte-2b,2020.1.3,MacIntel,60,13338,,,,,,,,,,,,,,,,,,,,,,,,,,,,,,,,,,,,,,,,,,,,,,,,,,,,,,,,,,,,,,,,,
,,,,,,,,,,,,a,0.482,Incorrect,0,55,55,46,1,t4.png,t2.png,2,0.059078,19,female,2020-11-19_14h21.40.492,torte-2b,2020.1.3,MacIntel,60,13338,,,,,,,,,,,,,,,,,,,,,,,,,,,,,,,,,,,,,,,,,,,,,,,,,,,,,,,,,,,,,,,,,
,,,,,,,,,,,,l,0.598,Incorrect,0,56,56,107,1,t1.png,t1.png,0,0.978,19,female,2020-11-19_14h21.40.492,torte-2b,2020.1.3,MacIntel,60,13338,,,,,,,,,,,,,,,,,,,,,,,,,,,,,,,,,,,,,,,,,,,,,,,,,,,,,,,,,,,,,,,,,
,,,,,,,,,,,,a,0.524,Correct!,0,57,57,8,1,t3.png,t2.png,1,0.90855,19,female,2020-11-19_14h21.40.492,torte-2b,2020.1.3,MacIntel,60,13338,,,,,,,,,,,,,,,,,,,,,,,,,,,,,,,,,,,,,,,,,,,,,,,,,,,,,,,,,,,,,,,,,
,,,,,,,,,,,,a,1.023,Correct!,0,58,58,112,1,t1.png,t1.png,0,0.97829,19,female,2020-11-19_14h21.40.492,torte-2b,2020.1.3,MacIntel,60,13338,,,,,,,,,,,,,,,,,,,,,,,,,,,,,,,,,,,,,,,,,,,,,,,,,,,,,,,,,,,,,,,,,
,,,,,,,,,,,,l,0.556,Incorrect,0,59,59,104,1,t2.png,t3.png,1,0.90855,19,female,2020-11-19_14h21.40.492,torte-2b,2020.1.3,MacIntel,60,13338,,,,,,,,,,,,,,,,,,,,,,,,,,,,,,,,,,,,,,,,,,,,,,,,,,,,,,,,,,,,,,,,,
,,,,,,,,,,,,a,0.573,Correct!,0,60,60,16,1,t5.png,t4.png,1,0.9,19,female,2020-11-19_14h21.40.492,torte-2b,2020.1.3,MacIntel,60,13338,,,,,,,,,,,,,,,,,,,,,,,,,,,,,,,,,,,,,,,,,,,,,,,,,,,,,,,,,,,,,,,,,
,,,,,,,,,,,,l,0.783,Correct!,0,61,61,52,1,t2.png,t4.png,2,0.059078,19,female,2020-11-19_14h21.40.492,torte-2b,2020.1.3,MacIntel,60,13338,,,,,,,,,,,,,,,,,,,,,,,,,,,,,,,,,,,,,,,,,,,,,,,,,,,,,,,,,,,,,,,,,
,,,,,,,,,,,,l,0.816,Incorrect,0,62,62,77,1,t1.png,t1.png,0,0.97829,19,female,2020-11-19_14h21.40.492,torte-2b,2020.1.3,MacIntel,60,13338,,,,,,,,,,,,,,,,,,,,,,,,,,,,,,,,,,,,,,,,,,,,,,,,,,,,,,,,,,,,,,,,,
,,,,,,,,,,,,a,1.006,Incorrect,0,63,63,36,1,t3.png,t1.png,2,0.0565,19,female,2020-11-19_14h21.40.492,torte-2b,2020.1.3,MacIntel,60,13338,,,,,,,,,,,,,,,,,,,,,,,,,,,,,,,,,,,,,,,,,,,,,,,,,,,,,,,,,,,,,,,,,
,,,,,,,,,,,,a,0.649,Incorrect,0,64,64,111,1,t5.png,t1.png,4,9.55E-11,19,female,2020-11-19_14h21.40.492,torte-2b,2020.1.3,MacIntel,60,13338,,,,,,,,,,,,,,,,,,,,,,,,,,,,,,,,,,,,,,,,,,,,,,,,,,,,,,,,,,,,,,,,,
,,,,,,,,,,,,l,0.473,Correct!,0,65,65,5,1,t2.png,t4.png,2,0.059078,19,female,2020-11-19_14h21.40.492,torte-2b,2020.1.3,MacIntel,60,13338,,,,,,,,,,,,,,,,,,,,,,,,,,,,,,,,,,,,,,,,,,,,,,,,,,,,,,,,,,,,,,,,,
,,,,,,,,,,,,l,1.632,Incorrect,0,66,66,64,1,t1.png,t1.png,0,0.978,19,female,2020-11-19_14h21.40.492,torte-2b,2020.1.3,MacIntel,60,13338,,,,,,,,,,,,,,,,,,,,,,,,,,,,,,,,,,,,,,,,,,,,,,,,,,,,,,,,,,,,,,,,,
,,,,,,,,,,,,a,2.207,Incorrect,0,67,67,51,1,t3.png,t1.png,2,0.056466,19,female,2020-11-19_14h21.40.492,torte-2b,2020.1.3,MacIntel,60,13338,,,,,,,,,,,,,,,,,,,,,,,,,,,,,,,,,,,,,,,,,,,,,,,,,,,,,,,,,,,,,,,,,
,,,,,,,,,,,,l,0.955,Incorrect,0,68,68,13,1,t5.png,t5.png,0,0.97829,19,female,2020-11-19_14h21.40.492,torte-2b,2020.1.3,MacIntel,60,13338,,,,,,,,,,,,,,,,,,,,,,,,,,,,,,,,,,,,,,,,,,,,,,,,,,,,,,,,,,,,,,,,,
,,,,,,,,,,,,a,1.198,Incorrect,0,69,69,94,1,t5.png,t1.png,4,9.55E-11,19,female,2020-11-19_14h21.40.492,torte-2b,2020.1.3,MacIntel,60,13338,,,,,,,,,,,,,,,,,,,,,,,,,,,,,,,,,,,,,,,,,,,,,,,,,,,,,,,,,,,,,,,,,
,,,,,,,,,,,,l,1.482,Incorrect,0,70,70,66,1,t4.png,t5.png,1,0.9,19,female,2020-11-19_14h21.40.492,torte-2b,2020.1.3,MacIntel,60,13338,,,,,,,,,,,,,,,,,,,,,,,,,,,,,,,,,,,,,,,,,,,,,,,,,,,,,,,,,,,,,,,,,
,,,,,,,,,,,,l,0.516,Correct!,0,71,71,54,1,t1.png,t5.png,4,9.55E-11,19,female,2020-11-19_14h21.40.492,torte-2b,2020.1.3,MacIntel,60,13338,,,,,,,,,,,,,,,,,,,,,,,,,,,,,,,,,,,,,,,,,,,,,,,,,,,,,,,,,,,,,,,,,
,,,,,,,,,,,,a,0.634,Incorrect,0,72,72,102,1,t4.png,t2.png,2,0.059078,19,female,2020-11-19_14h21.40.492,torte-2b,2020.1.3,MacIntel,60,13338,,,,,,,,,,,,,,,,,,,,,,,,,,,,,,,,,,,,,,,,,,,,,,,,,,,,,,,,,,,,,,,,,
,,,,,,,,,,,,l,0.597,Incorrect,0,73,73,97,1,t5.png,t5.png,0,0.97829,19,female,2020-11-19_14h21.40.492,torte-2b,2020.1.3,MacIntel,60,13338,,,,,,,,,,,,,,,,,,,,,,,,,,,,,,,,,,,,,,,,,,,,,,,,,,,,,,,,,,,,,,,,,
,,,,,,,,,,,,l,0.599,Incorrect,0,74,74,114,1,t2.png,t3.png,1,0.90855,19,female,2020-11-19_14h21.40.492,torte-2b,2020.1.3,MacIntel,60,13338,,,,,,,,,,,,,,,,,,,,,,,,,,,,,,,,,,,,,,,,,,,,,,,,,,,,,,,,,,,,,,,,,
,,,,,,,,,,,,l,0.867,Incorrect,0,75,75,20,1,t2.png,t3.png,1,0.90855,19,female,2020-11-19_14h21.40.492,torte-2b,2020.1.3,MacIntel,60,13338,,,,,,,,,,,,,,,,,,,,,,,,,,,,,,,,,,,,,,,,,,,,,,,,,,,,,,,,,,,,,,,,,
,,,,,,,,,,,,a,0.766,Incorrect,0,76,76,30,1,t3.png,t1.png,2,0.056466,19,female,2020-11-19_14h21.40.492,torte-2b,2020.1.3,MacIntel,60,13338,,,,,,,,,,,,,,,,,,,,,,,,,,,,,,,,,,,,,,,,,,,,,,,,,,,,,,,,,,,,,,,,,
,,,,,,,,,,,,l,1.166,Correct!,0,77,77,65,1,t4.png,t5.png,1,0.90025,19,female,2020-11-19_14h21.40.492,torte-2b,2020.1.3,MacIntel,60,13338,,,,,,,,,,,,,,,,,,,,,,,,,,,,,,,,,,,,,,,,,,,,,,,,,,,,,,,,,,,,,,,,,
,,,,,,,,,,,,l,1.476,Correct!,0,78,78,73,1,t4.png,t2.png,2,0.059078,19,female,2020-11-19_14h21.40.492,torte-2b,2020.1.3,MacIntel,60,13338,,,,,,,,,,,,,,,,,,,,,,,,,,,,,,,,,,,,,,,,,,,,,,,,,,,,,,,,,,,,,,,,,
,,,,,,,,,,,,l,0.947,Correct!,0,79,79,60,1,t2.png,t4.png,2,0.059078,19,female,2020-11-19_14h21.40.492,torte-2b,2020.1.3,MacIntel,60,13338,,,,,,,,,,,,,,,,,,,,,,,,,,,,,,,,,,,,,,,,,,,,,,,,,,,,,,,,,,,,,,,,,
,,,,,,,,,,,,l,0.601,Incorrect,0,80,80,23,1,t5.png,t4.png,1,0.90025,19,female,2020-11-19_14h21.40.492,torte-2b,2020.1.3,MacIntel,60,13338,,,,,,,,,,,,,,,,,,,,,,,,,,,,,,,,,,,,,,,,,,,,,,,,,,,,,,,,,,,,,,,,,
,,,,,,,,,,,,l,0.66,Incorrect,0,81,81,15,1,t3.png,t2.png,1,0.90855,19,female,2020-11-19_14h21.40.492,torte-2b,2020.1.3,MacIntel,60,13338,,,,,,,,,,,,,,,,,,,,,,,,,,,,,,,,,,,,,,,,,,,,,,,,,,,,,,,,,,,,,,,,,
,,,,,,,,,,,,a,0.632,Correct!,0,82,82,74,1,t5.png,t4.png,1,0.9,19,female,2020-11-19_14h21.40.492,torte-2b,2020.1.3,MacIntel,60,13338,,,,,,,,,,,,,,,,,,,,,,,,,,,,,,,,,,,,,,,,,,,,,,,,,,,,,,,,,,,,,,,,,
,,,,,,,,,,,,l,0.499,Correct!,0,83,83,98,1,t2.png,t4.png,2,0.0591,19,female,2020-11-19_14h21.40.492,torte-2b,2020.1.3,MacIntel,60,13338,,,,,,,,,,,,,,,,,,,,,,,,,,,,,,,,,,,,,,,,,,,,,,,,,,,,,,,,,,,,,,,,,
,,,,,,,,,,,,l,0.534,Correct!,0,84,84,57,1,t2.png,t4.png,2,0.059078,19,female,2020-11-19_14h21.40.492,torte-2b,2020.1.3,MacIntel,60,13338,,,,,,,,,,,,,,,,,,,,,,,,,,,,,,,,,,,,,,,,,,,,,,,,,,,,,,,,,,,,,,,,,
,,,,,,,,,,,,l,0.435,Correct!,0,85,85,55,1,t2.png,t4.png,2,0.059078,19,female,2020-11-19_14h21.40.492,torte-2b,2020.1.3,MacIntel,60,13338,,,,,,,,,,,,,,,,,,,,,,,,,,,,,,,,,,,,,,,,,,,,,,,,,,,,,,,,,,,,,,,,,
,,,,,,,,,,,,l,0.932,Correct!,0,86,86,80,1,t1.png,t4.png,3,0.0000131,19,female,2020-11-19_14h21.40.492,torte-2b,2020.1.3,MacIntel,60,13338,,,,,,,,,,,,,,,,,,,,,,,,,,,,,,,,,,,,,,,,,,,,,,,,,,,,,,,,,,,,,,,,,
,,,,,,,,,,,,l,1.091,Incorrect,0,87,87,22,1,t2.png,t3.png,1,0.90855,19,female,2020-11-19_14h21.40.492,torte-2b,2020.1.3,MacIntel,60,13338,,,,,,,,,,,,,,,,,,,,,,,,,,,,,,,,,,,,,,,,,,,,,,,,,,,,,,,,,,,,,,,,,
,,,,,,,,,,,,a,0.784,Incorrect,0,88,88,108,1,t5.png,t1.png,4,9.55E-11,19,female,2020-11-19_14h21.40.492,torte-2b,2020.1.3,MacIntel,60,13338,,,,,,,,,,,,,,,,,,,,,,,,,,,,,,,,,,,,,,,,,,,,,,,,,,,,,,,,,,,,,,,,,
,,,,,,,,,,,,l,0.901,Incorrect,0,89,89,42,1,t5.png,t4.png,1,0.90025,19,female,2020-11-19_14h21.40.492,torte-2b,2020.1.3,MacIntel,60,13338,,,,,,,,,,,,,,,,,,,,,,,,,,,,,,,,,,,,,,,,,,,,,,,,,,,,,,,,,,,,,,,,,
,,,,,,,,,,,,l,0.532,Incorrect,0,90,90,100,1,t4.png,t5.png,1,0.90025,19,female,2020-11-19_14h21.40.492,torte-2b,2020.1.3,MacIntel,60,13338,,,,,,,,,,,,,,,,,,,,,,,,,,,,,,,,,,,,,,,,,,,,,,,,,,,,,,,,,,,,,,,,,
,,,,,,,,,,,,l,0.543,Incorrect,0,91,91,92,1,t2.png,t3.png,1,0.909,19,female,2020-11-19_14h21.40.492,torte-2b,2020.1.3,MacIntel,60,13338,,,,,,,,,,,,,,,,,,,,,,,,,,,,,,,,,,,,,,,,,,,,,,,,,,,,,,,,,,,,,,,,,
,,,,,,,,,,,,l,0.314,Incorrect,0,92,92,45,1,t3.png,t2.png,1,0.90855,19,female,2020-11-19_14h21.40.492,torte-2b,2020.1.3,MacIntel,60,13338,,,,,,,,,,,,,,,,,,,,,,,,,,,,,,,,,,,,,,,,,,,,,,,,,,,,,,,,,,,,,,,,,
,,,,,,,,,,,,a,0.349,Incorrect,0,93,93,109,1,t5.png,t5.png,0,0.97829,19,female,2020-11-19_14h21.40.492,torte-2b,2020.1.3,MacIntel,60,13338,,,,,,,,,,,,,,,,,,,,,,,,,,,,,,,,,,,,,,,,,,,,,,,,,,,,,,,,,,,,,,,,,
,,,,,,,,,,,,a,0.607,Incorrect,0,94,94,85,1,t3.png,t2.png,1,0.90855,19,female,2020-11-19_14h21.40.492,torte-2b,2020.1.3,MacIntel,60,13338,,,,,,,,,,,,,,,,,,,,,,,,,,,,,,,,,,,,,,,,,,,,,,,,,,,,,,,,,,,,,,,,,
,,,,,,,,,,,,a,0.915,Incorrect,0,95,95,24,1,t4.png,t2.png,2,0.059078,19,female,2020-11-19_14h21.40.492,torte-2b,2020.1.3,MacIntel,60,13338,,,,,,,,,,,,,,,,,,,,,,,,,,,,,,,,,,,,,,,,,,,,,,,,,,,,,,,,,,,,,,,,,
,,,,,,,,,,,,l,0.485,Incorrect,0,96,96,78,1,t1.png,t1.png,0,0.978,19,female,2020-11-19_14h21.40.492,torte-2b,2020.1.3,MacIntel,60,13338,,,,,,,,,,,,,,,,,,,,,,,,,,,,,,,,,,,,,,,,,,,,,,,,,,,,,,,,,,,,,,,,,
,,,,,,,,,,,,a,0.384,Correct!,0,97,97,116,1,t5.png,t4.png,1,0.90025,19,female,2020-11-19_14h21.40.492,torte-2b,2020.1.3,MacIntel,60,13338,,,,,,,,,,,,,,,,,,,,,,,,,,,,,,,,,,,,,,,,,,,,,,,,,,,,,,,,,,,,,,,,,
,,,,,,,,,,,,a,0.733,Correct!,0,98,98,76,1,t3.png,t2.png,1,0.90855,19,female,2020-11-19_14h21.40.492,torte-2b,2020.1.3,MacIntel,60,13338,,,,,,,,,,,,,,,,,,,,,,,,,,,,,,,,,,,,,,,,,,,,,,,,,,,,,,,,,,,,,,,,,
,,,,,,,,,,,,a,0.489,Incorrect,0,99,99,19,1,t4.png,t2.png,2,0.059078,19,female,2020-11-19_14h21.40.492,torte-2b,2020.1.3,MacIntel,60,13338,,,,,,,,,,,,,,,,,,,,,,,,,,,,,,,,,,,,,,,,,,,,,,,,,,,,,,,,,,,,,,,,,
,,,,,,,,,,,,l,0.566,Correct!,0,100,100,115,1,t2.png,t4.png,2,0.059078,19,female,2020-11-19_14h21.40.492,torte-2b,2020.1.3,MacIntel,60,13338,,,,,,,,,,,,,,,,,,,,,,,,,,,,,,,,,,,,,,,,,,,,,,,,,,,,,,,,,,,,,,,,,
,,,,,,,,,,,,a,0.515,Correct!,0,101,101,21,1,t5.png,t4.png,1,0.90025,19,female,2020-11-19_14h21.40.492,torte-2b,2020.1.3,MacIntel,60,13338,,,,,,,,,,,,,,,,,,,,,,,,,,,,,,,,,,,,,,,,,,,,,,,,,,,,,,,,,,,,,,,,,
,,,,,,,,,,,,a,0.483,Incorrect,0,102,102,0,1,t5.png,t1.png,4,9.55E-11,19,female,2020-11-19_14h21.40.492,torte-2b,2020.1.3,MacIntel,60,13338,,,,,,,,,,,,,,,,,,,,,,,,,,,,,,,,,,,,,,,,,,,,,,,,,,,,,,,,,,,,,,,,,
,,,,,,,,,,,,l,0.416,Correct!,0,103,103,14,1,t2.png,t4.png,2,0.059078,19,female,2020-11-19_14h21.40.492,torte-2b,2020.1.3,MacIntel,60,13338,,,,,,,,,,,,,,,,,,,,,,,,,,,,,,,,,,,,,,,,,,,,,,,,,,,,,,,,,,,,,,,,,
,,,,,,,,,,,,a,0.635,Correct!,0,104,104,39,1,t3.png,t2.png,1,0.90855,19,female,2020-11-19_14h21.40.492,torte-2b,2020.1.3,MacIntel,60,13338,,,,,,,,,,,,,,,,,,,,,,,,,,,,,,,,,,,,,,,,,,,,,,,,,,,,,,,,,,,,,,,,,
,,,,,,,,,,,,l,0.559,Correct!,0,105,105,3,1,t1.png,t5.png,4,9.55E-11,19,female,2020-11-19_14h21.40.492,torte-2b,2020.1.3,MacIntel,60,13338,,,,,,,,,,,,,,,,,,,,,,,,,,,,,,,,,,,,,,,,,,,,,,,,,,,,,,,,,,,,,,,,,
,,,,,,,,,,,,l,0.424,Correct!,0,106,106,90,1,t1.png,t5.png,4,9.55E-11,19,female,2020-11-19_14h21.40.492,torte-2b,2020.1.3,MacIntel,60,13338,,,,,,,,,,,,,,,,,,,,,,,,,,,,,,,,,,,,,,,,,,,,,,,,,,,,,,,,,,,,,,,,,
,,,,,,,,,,,,l,0.377,Correct!,0,107,107,67,1,t1.png,t5.png,4,9.55E-11,19,female,2020-11-19_14h21.40.492,torte-2b,2020.1.3,MacIntel,60,13338,,,,,,,,,,,,,,,,,,,,,,,,,,,,,,,,,,,,,,,,,,,,,,,,,,,,,,,,,,,,,,,,,
,,,,,,,,,,,,l,0.821,Incorrect,0,108,108,9,1,t4.png,t5.png,1,0.9,19,female,2020-11-19_14h21.40.492,torte-2b,2020.1.3,MacIntel,60,13338,,,,,,,,,,,,,,,,,,,,,,,,,,,,,,,,,,,,,,,,,,,,,,,,,,,,,,,,,,,,,,,,,
,,,,,,,,,,,,l,0.483,Correct!,0,109,109,11,1,t1.png,t4.png,3,0.0000131,19,female,2020-11-19_14h21.40.492,torte-2b,2020.1.3,MacIntel,60,13338,,,,,,,,,,,,,,,,,,,,,,,,,,,,,,,,,,,,,,,,,,,,,,,,,,,,,,,,,,,,,,,,,
,,,,,,,,,,,,a,0.466,Incorrect,0,110,110,12,1,t5.png,t1.png,4,9.55E-11,19,female,2020-11-19_14h21.40.492,torte-2b,2020.1.3,MacIntel,60,13338,,,,,,,,,,,,,,,,,,,,,,,,,,,,,,,,,,,,,,,,,,,,,,,,,,,,,,,,,,,,,,,,,
,,,,,,,,,,,,l,0.599,Correct!,0,111,111,31,1,t1.png,t5.png,4,9.55E-11,19,female,2020-11-19_14h21.40.492,torte-2b,2020.1.3,MacIntel,60,13338,,,,,,,,,,,,,,,,,,,,,,,,,,,,,,,,,,,,,,,,,,,,,,,,,,,,,,,,,,,,,,,,,
,,,,,,,,,,,,a,0.516,Correct!,0,112,112,38,1,t3.png,t1.png,2,0.056466,19,female,2020-11-19_14h21.40.492,torte-2b,2020.1.3,MacIntel,60,13338,,,,,,,,,,,,,,,,,,,,,,,,,,,,,,,,,,,,,,,,,,,,,,,,,,,,,,,,,,,,,,,,,
,,,,,,,,,,,,a,0.679,Incorrect,0,113,113,26,1,t4.png,t2.png,2,0.0591,19,female,2020-11-19_14h21.40.492,torte-2b,2020.1.3,MacIntel,60,13338,,,,,,,,,,,,,,,,,,,,,,,,,,,,,,,,,,,,,,,,,,,,,,,,,,,,,,,,,,,,,,,,,
,,,,,,,,,,,,l,0.401,Incorrect,0,114,114,59,1,t5.png,t4.png,1,0.9,19,female,2020-11-19_14h21.40.492,torte-2b,2020.1.3,MacIntel,60,13338,,,,,,,,,,,,,,,,,,,,,,,,,,,,,,,,,,,,,,,,,,,,,,,,,,,,,,,,,,,,,,,,,
,,,,,,,,,,,,a,0.442,Incorrect,0,115,115,47,1,t4.png,t2.png,2,0.059078,19,female,2020-11-19_14h21.40.492,torte-2b,2020.1.3,MacIntel,60,13338,,,,,,,,,,,,,,,,,,,,,,,,,,,,,,,,,,,,,,,,,,,,,,,,,,,,,,,,,,,,,,,,,
,,,,,,,,,,,,l,0.493,Incorrect,0,116,116,62,1,t5.png,t5.png,0,0.978,19,female,2020-11-19_14h21.40.492,torte-2b,2020.1.3,MacIntel,60,13338,,,,,,,,,,,,,,,,,,,,,,,,,,,,,,,,,,,,,,,,,,,,,,,,,,,,,,,,,,,,,,,,,
,,,,,,,,,,,,a,0.683,Incorrect,0,117,117,103,1,t3.png,t1.png,2,0.056466,19,female,2020-11-19_14h21.40.492,torte-2b,2020.1.3,MacIntel,60,13338,,,,,,,,,,,,,,,,,,,,,,,,,,,,,,,,,,,,,,,,,,,,,,,,,,,,,,,,,,,,,,,,,
,,,,,,,,,,,,a,0.416,Incorrect,0,118,118,82,1,t5.png,t1.png,4,9.55E-11,19,female,2020-11-19_14h21.40.492,torte-2b,2020.1.3,MacIntel,60,13338,,,,,,,,,,,,,,,,,,,,,,,,,,,,,,,,,,,,,,,,,,,,,,,,,,,,,,,,,,,,,,,,,
,,,,,,,,,,,,a,0.518,Correct!,0,119,119,34,1,t5.png,t4.png,1,0.9,19,female,2020-11-19_14h21.40.492,torte-2b,2020.1.3,MacIntel,60,13338,,,,,,,,,,,,,,,,,,,,,,,,,,,,,,,,,,,,,,,,,,,,,,,,,,,,,,,,,,,,,,,,,
,,,,,,,,,,,,l,1.129,Correct!,,,,,,t1.png,t5.png,4,9.55E-11,19,female,2020-11-19_14h21.40.492,torte-2b,2020.1.3,MacIntel,60,13338,space,2.198,return,105.253,0,0,0,55,1,,,,,,,,,,,,,,,,,,,,,,,,,,,,,,,,,,,,,,,,,,,,,,,,,,,,,,,,
,,,,,,,,,,,,a,1.957,Correct!,,,,,,t3.png,t2.png,1,0.909,19,female,2020-11-19_14h21.40.492,torte-2b,2020.1.3,MacIntel,60,13338,,,,,0,1,1,3,1,,,,,,,,,,,,,,,,,,,,,,,,,,,,,,,,,,,,,,,,,,,,,,,,,,,,,,,,
,,,,,,,,,,,,a,1.127,Correct!,,,,,,t4.png,t3.png,1,0.90855,19,female,2020-11-19_14h21.40.492,torte-2b,2020.1.3,MacIntel,60,13338,,,,,0,2,2,75,1,,,,,,,,,,,,,,,,,,,,,,,,,,,,,,,,,,,,,,,,,,,,,,,,,,,,,,,,
,,,,,,,,,,,,l,0.674,Incorrect,,,,,,t4.png,t5.png,1,0.90025,19,female,2020-11-19_14h21.40.492,torte-2b,2020.1.3,MacIntel,60,13338,,,,,0,3,3,58,1,,,,,,,,,,,,,,,,,,,,,,,,,,,,,,,,,,,,,,,,,,,,,,,,,,,,,,,,
,,,,,,,,,,,,a,1.06,Incorrect,,,,,,t2.png,t1.png,1,0.90025,19,female,2020-11-19_14h21.40.492,torte-2b,2020.1.3,MacIntel,60,13338,,,,,0,4,4,19,1,,,,,,,,,,,,,,,,,,,,,,,,,,,,,,,,,,,,,,,,,,,,,,,,,,,,,,,,
,,,,,,,,,,,,a,1.282,Incorrect,,,,,,t3.png,t1.png,2,0.056466,19,female,2020-11-19_14h21.40.492,torte-2b,2020.1.3,MacIntel,60,13338,,,,,0,5,5,32,1,,,,,,,,,,,,,,,,,,,,,,,,,,,,,,,,,,,,,,,,,,,,,,,,,,,,,,,,
,,,,,,,,,,,,l,2.067,Incorrect,,,,,,t1.png,t2.png,1,0.90025,19,female,2020-11-19_14h21.40.492,torte-2b,2020.1.3,MacIntel,60,13338,,,,,0,6,6,112,1,,,,,,,,,,,,,,,,,,,,,,,,,,,,,,,,,,,,,,,,,,,,,,,,,,,,,,,,
,,,,,,,,,,,,a,1.341,Correct!,,,,,,t2.png,t1.png,1,0.9,19,female,2020-11-19_14h21.40.492,torte-2b,2020.1.3,MacIntel,60,13338,,,,,0,7,7,118,1,,,,,,,,,,,,,,,,,,,,,,,,,,,,,,,,,,,,,,,,,,,,,,,,,,,,,,,,
,,,,,,,,,,,,a,0.585,Incorrect,,,,,,t5.png,t2.png,3,0.0000131,19,female,2020-11-19_14h21.40.492,torte-2b,2020.1.3,MacIntel,60,13338,,,,,0,8,8,119,1,,,,,,,,,,,,,,,,,,,,,,,,,,,,,,,,,,,,,,,,,,,,,,,,,,,,,,,,
,,,,,,,,,,,,a,2.057,Correct!,,,,,,t5.png,t4.png,1,0.9,19,female,2020-11-19_14h21.40.492,torte-2b,2020.1.3,MacIntel,60,13338,,,,,0,9,9,49,1,,,,,,,,,,,,,,,,,,,,,,,,,,,,,,,,,,,,,,,,,,,,,,,,,,,,,,,,
,,,,,,,,,,,,l,1.826,Incorrect,,,,,,t4.png,t4.png,0,0.98115,19,female,2020-11-19_14h21.40.492,torte-2b,2020.1.3,MacIntel,60,13338,,,,,0,10,10,80,1,,,,,,,,,,,,,,,,,,,,,,,,,,,,,,,,,,,,,,,,,,,,,,,,,,,,,,,,
,,,,,,,,,,,,l,1.815,Correct!,,,,,,t1.png,t3.png,2,0.056466,19,female,2020-11-19_14h21.40.492,torte-2b,2020.1.3,MacIntel,60,13338,,,,,0,11,11,63,1,,,,,,,,,,,,,,,,,,,,,,,,,,,,,,,,,,,,,,,,,,,,,,,,,,,,,,,,
,,,,,,,,,,,,a,0.615,Incorrect,,,,,,t3.png,t1.png,2,0.056466,19,female,2020-11-19_14h21.40.492,torte-2b,2020.1.3,MacIntel,60,13338,,,,,0,12,12,29,1,,,,,,,,,,,,,,,,,,,,,,,,,,,,,,,,,,,,,,,,,,,,,,,,,,,,,,,,
,,,,,,,,,,,,l,0.615,Incorrect,,,,,,t1.png,t2.png,1,0.90025,19,female,2020-11-19_14h21.40.492,torte-2b,2020.1.3,MacIntel,60,13338,,,,,0,13,13,105,1,,,,,,,,,,,,,,,,,,,,,,,,,,,,,,,,,,,,,,,,,,,,,,,,,,,,,,,,
,,,,,,,,,,,,l,0.624,Correct!,,,,,,t3.png,t5.png,2,0.0565,19,female,2020-11-19_14h21.40.492,torte-2b,2020.1.3,MacIntel,60,13338,,,,,0,14,14,83,1,,,,,,,,,,,,,,,,,,,,,,,,,,,,,,,,,,,,,,,,,,,,,,,,,,,,,,,,
,,,,,,,,,,,,l,0.532,Correct!,,,,,,t2.png,t3.png,1,0.909,19,female,2020-11-19_14h21.40.492,torte-2b,2020.1.3,MacIntel,60,13338,,,,,0,15,15,74,1,,,,,,,,,,,,,,,,,,,,,,,,,,,,,,,,,,,,,,,,,,,,,,,,,,,,,,,,
,,,,,,,,,,,,a,2.083,Incorrect,,,,,,t5.png,t4.png,1,0.90025,19,female,2020-11-19_14h21.40.492,torte-2b,2020.1.3,MacIntel,60,13338,,,,,0,16,16,27,1,,,,,,,,,,,,,,,,,,,,,,,,,,,,,,,,,,,,,,,,,,,,,,,,,,,,,,,,
,,,,,,,,,,,,l,0.939,Incorrect,,,,,,t3.png,t4.png,1,0.90855,19,female,2020-11-19_14h21.40.492,torte-2b,2020.1.3,MacIntel,60,13338,,,,,0,17,17,96,1,,,,,,,,,,,,,,,,,,,,,,,,,,,,,,,,,,,,,,,,,,,,,,,,,,,,,,,,
,,,,,,,,,,,,a,0.674,Incorrect,,,,,,t5.png,t2.png,3,0.0000131,19,female,2020-11-19_14h21.40.492,torte-2b,2020.1.3,MacIntel,60,13338,,,,,0,18,18,116,1,,,,,,,,,,,,,,,,,,,,,,,,,,,,,,,,,,,,,,,,,,,,,,,,,,,,,,,,
,,,,,,,,,,,,a,0.556,Incorrect,,,,,,t5.png,t2.png,3,0.0000131,19,female,2020-11-19_14h21.40.492,torte-2b,2020.1.3,MacIntel,60,13338,,,,,0,19,19,91,1,,,,,,,,,,,,,,,,,,,,,,,,,,,,,,,,,,,,,,,,,,,,,,,,,,,,,,,,
,,,,,,,,,,,,l,0.764,Correct!,,,,,,t1.png,t4.png,3,0.0000131,19,female,2020-11-19_14h21.40.492,torte-2b,2020.1.3,MacIntel,60,13338,,,,,0,20,20,107,1,,,,,,,,,,,,,,,,,,,,,,,,,,,,,,,,,,,,,,,,,,,,,,,,,,,,,,,,
,,,,,,,,,,,,l,0.829,Incorrect,,,,,,t5.png,t5.png,0,0.97829,19,female,2020-11-19_14h21.40.492,torte-2b,2020.1.3,MacIntel,60,13338,,,,,0,21,21,73,1,,,,,,,,,,,,,,,,,,,,,,,,,,,,,,,,,,,,,,,,,,,,,,,,,,,,,,,,
,,,,,,,,,,,,a,0.447,Incorrect,,,,,,t5.png,t1.png,4,9.55E-11,19,female,2020-11-19_14h21.40.492,torte-2b,2020.1.3,MacIntel,60,13338,,,,,0,22,22,22,1,,,,,,,,,,,,,,,,,,,,,,,,,,,,,,,,,,,,,,,,,,,,,,,,,,,,,,,,
,,,,,,,,,,,,a,0.482,Incorrect,,,,,,t4.png,t1.png,3,0.0000131,19,female,2020-11-19_14h21.40.492,torte-2b,2020.1.3,MacIntel,60,13338,,,,,0,23,23,48,1,,,,,,,,,,,,,,,,,,,,,,,,,,,,,,,,,,,,,,,,,,,,,,,,,,,,,,,,
,,,,,,,,,,,,a,1.299,Correct!,,,,,,t1.png,t1.png,0,0.978,19,female,2020-11-19_14h21.40.492,torte-2b,2020.1.3,MacIntel,60,13338,,,,,0,24,24,28,1,,,,,,,,,,,,,,,,,,,,,,,,,,,,,,,,,,,,,,,,,,,,,,,,,,,,,,,,
,,,,,,,,,,,,l,2.266,Incorrect,,,,,,t1.png,t2.png,1,0.90025,19,female,2020-11-19_14h21.40.492,torte-2b,2020.1.3,MacIntel,60,13338,,,,,0,25,25,33,1,,,,,,,,,,,,,,,,,,,,,,,,,,,,,,,,,,,,,,,,,,,,,,,,,,,,,,,,
,,,,,,,,,,,,a,0.532,Correct!,,,,,,t3.png,t2.png,1,0.909,19,female,2020-11-19_14h21.40.492,torte-2b,2020.1.3,MacIntel,60,13338,,,,,0,26,26,23,1,,,,,,,,,,,,,,,,,,,,,,,,,,,,,,,,,,,,,,,,,,,,,,,,,,,,,,,,
,,,,,,,,,,,,a,0.516,Correct!,,,,,,t2.png,t1.png,1,0.90025,19,female,2020-11-19_14h21.40.492,torte-2b,2020.1.3,MacIntel,60,13338,,,,,0,27,27,4,1,,,,,,,,,,,,,,,,,,,,,,,,,,,,,,,,,,,,,,,,,,,,,,,,,,,,,,,,
,,,,,,,,,,,,a,0.949,Incorrect,,,,,,t5.png,t4.png,1,0.90025,19,female,2020-11-19_14h21.40.492,torte-2b,2020.1.3,MacIntel,60,13338,,,,,0,28,28,26,1,,,,,,,,,,,,,,,,,,,,,,,,,,,,,,,,,,,,,,,,,,,,,,,,,,,,,,,,
,,,,,,,,,,,,l,0.398,Correct!,,,,,,t1.png,t5.png,4,9.55E-11,19,female,2020-11-19_14h21.40.492,torte-2b,2020.1.3,MacIntel,60,13338,,,,,0,29,29,85,1,,,,,,,,,,,,,,,,,,,,,,,,,,,,,,,,,,,,,,,,,,,,,,,,,,,,,,,,
,,,,,,,,,,,,l,0.452,Correct!,,,,,,t2.png,t4.png,2,0.0591,19,female,2020-11-19_14h21.40.492,torte-2b,2020.1.3,MacIntel,60,13338,,,,,0,30,30,15,1,,,,,,,,,,,,,,,,,,,,,,,,,,,,,,,,,,,,,,,,,,,,,,,,,,,,,,,,
,,,,,,,,,,,,l,0.615,Correct!,,,,,,t2.png,t4.png,2,0.059078,19,female,2020-11-19_14h21.40.492,torte-2b,2020.1.3,MacIntel,60,13338,,,,,0,31,31,11,1,,,,,,,,,,,,,,,,,,,,,,,,,,,,,,,,,,,,,,,,,,,,,,,,,,,,,,,,
,,,,,,,,,,,,l,0.546,Incorrect,,,,,,t1.png,t2.png,1,0.90025,19,female,2020-11-19_14h21.40.492,torte-2b,2020.1.3,MacIntel,60,13338,,,,,0,32,32,72,1,,,,,,,,,,,,,,,,,,,,,,,,,,,,,,,,,,,,,,,,,,,,,,,,,,,,,,,,
,,,,,,,,,,,,a,0.442,Incorrect,,,,,,t5.png,t1.png,4,9.55E-11,19,female,2020-11-19_14h21.40.492,torte-2b,2020.1.3,MacIntel,60,13338,,,,,0,33,33,102,1,,,,,,,,,,,,,,,,,,,,,,,,,,,,,,,,,,,,,,,,,,,,,,,,,,,,,,,,
,,,,,,,,,,,,a,0.692,Incorrect,,,,,,t5.png,t3.png,2,0.056466,19,female,2020-11-19_14h21.40.492,torte-2b,2020.1.3,MacIntel,60,13338,,,,,0,34,34,38,1,,,,,,,,,,,,,,,,,,,,,,,,,,,,,,,,,,,,,,,,,,,,,,,,,,,,,,,,
,,,,,,,,,,,,l,1.035,Correct!,,,,,,t2.png,t5.png,3,0.0000131,19,female,2020-11-19_14h21.40.492,torte-2b,2020.1.3,MacIntel,60,13338,,,,,0,35,35,40,1,,,,,,,,,,,,,,,,,,,,,,,,,,,,,,,,,,,,,,,,,,,,,,,,,,,,,,,,
,,,,,,,,,,,,l,0.533,Correct!,,,,,,t1.png,t3.png,2,0.056466,19,female,2020-11-19_14h21.40.492,torte-2b,2020.1.3,MacIntel,60,13338,,,,,0,36,36,60,1,,,,,,,,,,,,,,,,,,,,,,,,,,,,,,,,,,,,,,,,,,,,,,,,,,,,,,,,
,,,,,,,,,,,,l,0.699,Incorrect,,,,,,t4.png,t5.png,1,0.90025,19,female,2020-11-19_14h21.40.492,torte-2b,2020.1.3,MacIntel,60,13338,,,,,0,37,37,103,1,,,,,,,,,,,,,,,,,,,,,,,,,,,,,,,,,,,,,,,,,,,,,,,,,,,,,,,,
,,,,,,,,,,,,l,0.434,Correct!,,,,,,t1.png,t4.png,3,0.0000131,19,female,2020-11-19_14h21.40.492,torte-2b,2020.1.3,MacIntel,60,13338,,,,,0,38,38,50,1,,,,,,,,,,,,,,,,,,,,,,,,,,,,,,,,,,,,,,,,,,,,,,,,,,,,,,,,
,,,,,,,,,,,,l,1.218,Incorrect,,,,,,t2.png,t3.png,1,0.90855,19,female,2020-11-19_14h21.40.492,torte-2b,2020.1.3,MacIntel,60,13338,,,,,0,39,39,65,1,,,,,,,,,,,,,,,,,,,,,,,,,,,,,,,,,,,,,,,,,,,,,,,,,,,,,,,,
,,,,,,,,,,,,l,0.799,Incorrect,,,,,,t1.png,t1.png,0,0.97829,19,female,2020-11-19_14h21.40.492,torte-2b,2020.1.3,MacIntel,60,13338,,,,,0,40,40,78,1,,,,,,,,,,,,,,,,,,,,,,,,,,,,,,,,,,,,,,,,,,,,,,,,,,,,,,,,
,,,,,,,,,,,,l,0.966,Incorrect,,,,,,t4.png,t4.png,0,0.98115,19,female,2020-11-19_14h21.40.492,torte-2b,2020.1.3,MacIntel,60,13338,,,,,0,41,41,90,1,,,,,,,,,,,,,,,,,,,,,,,,,,,,,,,,,,,,,,,,,,,,,,,,,,,,,,,,
,,,,,,,,,,,,l,0.609,Incorrect,,,,,,t3.png,t4.png,1,0.909,19,female,2020-11-19_14h21.40.492,torte-2b,2020.1.3,MacIntel,60,13338,,,,,0,42,42,89,1,,,,,,,,,,,,,,,,,,,,,,,,,,,,,,,,,,,,,,,,,,,,,,,,,,,,,,,,
,,,,,,,,,,,,l,0.668,Incorrect,,,,,,t3.png,t4.png,1,0.909,19,female,2020-11-19_14h21.40.492,torte-2b,2020.1.3,MacIntel,60,13338,,,,,0,43,43,106,1,,,,,,,,,,,,,,,,,,,,,,,,,,,,,,,,,,,,,,,,,,,,,,,,,,,,,,,,
,,,,,,,,,,,,a,0.449,Incorrect,,,,,,t4.png,t1.png,3,0.0000131,19,female,2020-11-19_14h21.40.492,torte-2b,2020.1.3,MacIntel,60,13338,,,,,0,44,44,61,1,,,,,,,,,,,,,,,,,,,,,,,,,,,,,,,,,,,,,,,,,,,,,,,,,,,,,,,,
,,,,,,,,,,,,l,0.716,Incorrect,,,,,,t4.png,t5.png,1,0.90025,19,female,2020-11-19_14h21.40.492,torte-2b,2020.1.3,MacIntel,60,13338,,,,,0,45,45,47,1,,,,,,,,,,,,,,,,,,,,,,,,,,,,,,,,,,,,,,,,,,,,,,,,,,,,,,,,
,,,,,,,,,,,,l,0.715,Incorrect,,,,,,t3.png,t4.png,1,0.90855,19,female,2020-11-19_14h21.40.492,torte-2b,2020.1.3,MacIntel,60,13338,,,,,0,46,46,84,1,,,,,,,,,,,,,,,,,,,,,,,,,,,,,,,,,,,,,,,,,,,,,,,,,,,,,,,,
,,,,,,,,,,,,a,0.405,Incorrect,,,,,,t5.png,t1.png,4,9.55E-11,19,female,2020-11-19_14h21.40.492,torte-2b,2020.1.3,MacIntel,60,13338,,,,,0,47,47,43,1,,,,,,,,,,,,,,,,,,,,,,,,,,,,,,,,,,,,,,,,,,,,,,,,,,,,,,,,
,,,,,,,,,,,,l,0.449,Correct!,,,,,,t2.png,t4.png,2,0.059078,19,female,2020-11-19_14h21.40.492,torte-2b,2020.1.3,MacIntel,60,13338,,,,,0,48,48,37,1,,,,,,,,,,,,,,,,,,,,,,,,,,,,,,,,,,,,,,,,,,,,,,,,,,,,,,,,
,,,,,,,,,,,,a,1.34,Correct!,,,,,,t5.png,t5.png,0,0.978,19,female,2020-11-19_14h21.40.492,torte-2b,2020.1.3,MacIntel,60,13338,,,,,0,49,49,117,1,,,,,,,,,,,,,,,,,,,,,,,,,,,,,,,,,,,,,,,,,,,,,,,,,,,,,,,,
,,,,,,,,,,,,a,0.767,Incorrect,,,,,,t2.png,t1.png,1,0.90025,19,female,2020-11-19_14h21.40.492,torte-2b,2020.1.3,MacIntel,60,13338,,,,,0,50,50,62,1,,,,,,,,,,,,,,,,,,,,,,,,,,,,,,,,,,,,,,,,,,,,,,,,,,,,,,,,
,,,,,,,,,,,,a,0.899,Correct!,,,,,,t4.png,t3.png,1,0.909,19,female,2020-11-19_14h21.40.492,torte-2b,2020.1.3,MacIntel,60,13338,,,,,0,51,51,46,1,,,,,,,,,,,,,,,,,,,,,,,,,,,,,,,,,,,,,,,,,,,,,,,,,,,,,,,,
,,,,,,,,,,,,l,0.465,Incorrect,,,,,,t2.png,t3.png,1,0.90855,19,female,2020-11-19_14h21.40.492,torte-2b,2020.1.3,MacIntel,60,13338,,,,,0,52,52,68,1,,,,,,,,,,,,,,,,,,,,,,,,,,,,,,,,,,,,,,,,,,,,,,,,,,,,,,,,
,,,,,,,,,,,,l,0.518,Incorrect,,,,,,t4.png,t5.png,1,0.90025,19,female,2020-11-19_14h21.40.492,torte-2b,2020.1.3,MacIntel,60,13338,,,,,0,53,53,113,1,,,,,,,,,,,,,,,,,,,,,,,,,,,,,,,,,,,,,,,,,,,,,,,,,,,,,,,,
,,,,,,,,,,,,l,0.516,Correct!,,,,,,t1.png,t2.png,1,0.9,19,female,2020-11-19_14h21.40.492,torte-2b,2020.1.3,MacIntel,60,13338,,,,,0,54,54,1,1,,,,,,,,,,,,,,,,,,,,,,,,,,,,,,,,,,,,,,,,,,,,,,,,,,,,,,,,
,,,,,,,,,,,,a,0.513,Correct!,,,,,,t3.png,t2.png,1,0.90855,19,female,2020-11-19_14h21.40.492,torte-2b,2020.1.3,MacIntel,60,13338,,,,,0,55,55,18,1,,,,,,,,,,,,,,,,,,,,,,,,,,,,,,,,,,,,,,,,,,,,,,,,,,,,,,,,
,,,,,,,,,,,,a,0.419,Incorrect,,,,,,t4.png,t2.png,2,0.059078,19,female,2020-11-19_14h21.40.492,torte-2b,2020.1.3,MacIntel,60,13338,,,,,0,56,56,109,1,,,,,,,,,,,,,,,,,,,,,,,,,,,,,,,,,,,,,,,,,,,,,,,,,,,,,,,,
,,,,,,,,,,,,l,0.327,Correct!,,,,,,t1.png,t5.png,4,9.55E-11,19,female,2020-11-19_14h21.40.492,torte-2b,2020.1.3,MacIntel,60,13338,,,,,0,57,57,12,1,,,,,,,,,,,,,,,,,,,,,,,,,,,,,,,,,,,,,,,,,,,,,,,,,,,,,,,,
,,,,,,,,,,,,a,0.32,Incorrect,,,,,,t4.png,t1.png,3,0.0000131,19,female,2020-11-19_14h21.40.492,torte-2b,2020.1.3,MacIntel,60,13338,,,,,0,58,58,93,1,,,,,,,,,,,,,,,,,,,,,,,,,,,,,,,,,,,,,,,,,,,,,,,,,,,,,,,,
,,,,,,,,,,,,l,0.605,Incorrect,,,,,,t4.png,t4.png,0,0.98115,19,female,2020-11-19_14h21.40.492,torte-2b,2020.1.3,MacIntel,60,13338,,,,,0,59,59,52,1,,,,,,,,,,,,,,,,,,,,,,,,,,,,,,,,,,,,,,,,,,,,,,,,,,,,,,,,
,,,,,,,,,,,,a,0.358,Correct!,,,,,,t3.png,t2.png,1,0.90855,19,female,2020-11-19_14h21.40.492,torte-2b,2020.1.3,MacIntel,60,13338,,,,,0,60,60,53,1,,,,,,,,,,,,,,,,,,,,,,,,,,,,,,,,,,,,,,,,,,,,,,,,,,,,,,,,
,,,,,,,,,,,,l,0.557,Incorrect,,,,,,t5.png,t5.png,0,0.97829,19,female,2020-11-19_14h21.40.492,torte-2b,2020.1.3,MacIntel,60,13338,,,,,0,61,61,70,1,,,,,,,,,,,,,,,,,,,,,,,,,,,,,,,,,,,,,,,,,,,,,,,,,,,,,,,,
,,,,,,,,,,,,l,0.465,Correct!,,,,,,t2.png,t5.png,3,0.0000131,19,female,2020-11-19_14h21.40.492,torte-2b,2020.1.3,MacIntel,60,13338,,,,,0,62,62,95,1,,,,,,,,,,,,,,,,,,,,,,,,,,,,,,,,,,,,,,,,,,,,,,,,,,,,,,,,
,,,,,,,,,,,,l,0.424,Correct!,,,,,,t2.png,t4.png,2,0.059078,19,female,2020-11-19_14h21.40.492,torte-2b,2020.1.3,MacIntel,60,13338,,,,,0,63,63,77,1,,,,,,,,,,,,,,,,,,,,,,,,,,,,,,,,,,,,,,,,,,,,,,,,,,,,,,,,
,,,,,,,,,,,,l,0.515,Incorrect,,,,,,t4.png,t4.png,0,0.98115,19,female,2020-11-19_14h21.40.492,torte-2b,2020.1.3,MacIntel,60,13338,,,,,0,64,64,21,1,,,,,,,,,,,,,,,,,,,,,,,,,,,,,,,,,,,,,,,,,,,,,,,,,,,,,,,,
,,,,,,,,,,,,l,0.458,Correct!,,,,,,t3.png,t5.png,2,0.056466,19,female,2020-11-19_14h21.40.492,torte-2b,2020.1.3,MacIntel,60,13338,,,,,0,65,65,6,1,,,,,,,,,,,,,,,,,,,,,,,,,,,,,,,,,,,,,,,,,,,,,,,,,,,,,,,,
,,,,,,,,,,,,l,0.52,Incorrect,,,,,,t1.png,t1.png,0,0.97829,19,female,2020-11-19_14h21.40.492,torte-2b,2020.1.3,MacIntel,60,13338,,,,,0,66,66,9,1,,,,,,,,,,,,,,,,,,,,,,,,,,,,,,,,,,,,,,,,,,,,,,,,,,,,,,,,
,,,,,,,,,,,,l,0.499,Incorrect,,,,,,t1.png,t3.png,2,0.056466,19,female,2020-11-19_14h21.40.492,torte-2b,2020.1.3,MacIntel,60,13338,,,,,0,67,67,99,1,,,,,,,,,,,,,,,,,,,,,,,,,,,,,,,,,,,,,,,,,,,,,,,,,,,,,,,,
,,,,,,,,,,,,l,0.466,Incorrect,,,,,,t3.png,t4.png,1,0.909,19,female,2020-11-19_14h21.40.492,torte-2b,2020.1.3,MacIntel,60,13338,,,,,0,68,68,82,1,,,,,,,,,,,,,,,,,,,,,,,,,,,,,,,,,,,,,,,,,,,,,,,,,,,,,,,,
,,,,,,,,,,,,a,0.618,Correct!,,,,,,t2.png,t1.png,1,0.90025,19,female,2020-11-19_14h21.40.492,torte-2b,2020.1.3,MacIntel,60,13338,,,,,0,69,69,5,1,,,,,,,,,,,,,,,,,,,,,,,,,,,,,,,,,,,,,,,,,,,,,,,,,,,,,,,,
,,,,,,,,,,,,a,0.468,Incorrect,,,,,,t4.png,t1.png,3,0.0000131,19,female,2020-11-19_14h21.40.492,torte-2b,2020.1.3,MacIntel,60,13338,,,,,0,70,70,13,1,,,,,,,,,,,,,,,,,,,,,,,,,,,,,,,,,,,,,,,,,,,,,,,,,,,,,,,,
,,,,,,,,,,,,l,0.6,Incorrect,,,,,,t5.png,t5.png,0,0.97829,19,female,2020-11-19_14h21.40.492,torte-2b,2020.1.3,MacIntel,60,13338,,,,,0,71,71,94,1,,,,,,,,,,,,,,,,,,,,,,,,,,,,,,,,,,,,,,,,,,,,,,,,,,,,,,,,
,,,,,,,,,,,,a,0.549,Incorrect,,,,,,t4.png,t2.png,2,0.0591,19,female,2020-11-19_14h21.40.492,torte-2b,2020.1.3,MacIntel,60,13338,,,,,0,72,72,36,1,,,,,,,,,,,,,,,,,,,,,,,,,,,,,,,,,,,,,,,,,,,,,,,,,,,,,,,,
,,,,,,,,,,,,l,0.557,Incorrect,,,,,,t1.png,t1.png,0,0.978,19,female,2020-11-19_14h21.40.492,torte-2b,2020.1.3,MacIntel,60,13338,,,,,0,73,73,54,1,,,,,,,,,,,,,,,,,,,,,,,,,,,,,,,,,,,,,,,,,,,,,,,,,,,,,,,,
,,,,,,,,,,,,l,0.572,Correct!,,,,,,t2.png,t4.png,2,0.059078,19,female,2020-11-19_14h21.40.492,torte-2b,2020.1.3,MacIntel,60,13338,,,,,0,74,74,24,1,,,,,,,,,,,,,,,,,,,,,,,,,,,,,,,,,,,,,,,,,,,,,,,,,,,,,,,,
,,,,,,,,,,,,a,0.508,Incorrect,,,,,,t4.png,t1.png,3,0.0000131,19,female,2020-11-19_14h21.40.492,torte-2b,2020.1.3,MacIntel,60,13338,,,,,0,75,75,42,1,,,,,,,,,,,,,,,,,,,,,,,,,,,,,,,,,,,,,,,,,,,,,,,,,,,,,,,,
,,,,,,,,,,,,a,0.889,Correct!,,,,,,t5.png,t5.png,0,0.97829,19,female,2020-11-19_14h21.40.492,torte-2b,2020.1.3,MacIntel,60,13338,,,,,0,76,76,25,1,,,,,,,,,,,,,,,,,,,,,,,,,,,,,,,,,,,,,,,,,,,,,,,,,,,,,,,,
,,,,,,,,,,,,l,0.492,Incorrect,,,,,,t2.png,t3.png,1,0.90855,19,female,2020-11-19_14h21.40.492,torte-2b,2020.1.3,MacIntel,60,13338,,,,,0,77,77,111,1,,,,,,,,,,,,,,,,,,,,,,,,,,,,,,,,,,,,,,,,,,,,,,,,,,,,,,,,
,,,,,,,,,,,,a,0.416,Incorrect,,,,,,t5.png,t3.png,2,0.056466,19,female,2020-11-19_14h21.40.492,torte-2b,2020.1.3,MacIntel,60,13338,,,,,0,78,78,108,1,,,,,,,,,,,,,,,,,,,,,,,,,,,,,,,,,,,,,,,,,,,,,,,,,,,,,,,,
,,,,,,,,,,,,l,0.432,Correct!,,,,,,t3.png,t5.png,2,0.056466,19,female,2020-11-19_14h21.40.492,torte-2b,2020.1.3,MacIntel,60,13338,,,,,0,79,79,44,1,,,,,,,,,,,,,,,,,,,,,,,,,,,,,,,,,,,,,,,,,,,,,,,,,,,,,,,,
,,,,,,,,,,,,l,0.783,Incorrect,,,,,,t2.png,t2.png,0,0.98115,19,female,2020-11-19_14h21.40.492,torte-2b,2020.1.3,MacIntel,60,13338,,,,,0,80,80,7,1,,,,,,,,,,,,,,,,,,,,,,,,,,,,,,,,,,,,,,,,,,,,,,,,,,,,,,,,
,,,,,,,,,,,,a,0.633,Correct!,,,,,,t4.png,t3.png,1,0.90855,19,female,2020-11-19_14h21.40.492,torte-2b,2020.1.3,MacIntel,60,13338,,,,,0,81,81,45,1,,,,,,,,,,,,,,,,,,,,,,,,,,,,,,,,,,,,,,,,,,,,,,,,,,,,,,,,
,,,,,,,,,,,,a,0.599,Incorrect,,,,,,t5.png,t3.png,2,0.056466,19,female,2020-11-19_14h21.40.492,torte-2b,2020.1.3,MacIntel,60,13338,,,,,0,82,82,56,1,,,,,,,,,,,,,,,,,,,,,,,,,,,,,,,,,,,,,,,,,,,,,,,,,,,,,,,,
,,,,,,,,,,,,a,0.435,Incorrect,,,,,,t5.png,t2.png,3,0.0000131,19,female,2020-11-19_14h21.40.492,torte-2b,2020.1.3,MacIntel,60,13338,,,,,0,83,83,51,1,,,,,,,,,,,,,,,,,,,,,,,,,,,,,,,,,,,,,,,,,,,,,,,,,,,,,,,,
,,,,,,,,,,,,a,0.605,Incorrect,,,,,,t3.png,t1.png,2,0.0565,19,female,2020-11-19_14h21.40.492,torte-2b,2020.1.3,MacIntel,60,13338,,,,,0,84,84,31,1,,,,,,,,,,,,,,,,,,,,,,,,,,,,,,,,,,,,,,,,,,,,,,,,,,,,,,,,
,,,,,,,,,,,,l,0.449,Correct!,,,,,,t1.png,t4.png,3,0.0000131,19,female,2020-11-19_14h21.40.492,torte-2b,2020.1.3,MacIntel,60,13338,,,,,0,85,85,81,1,,,,,,,,,,,,,,,,,,,,,,,,,,,,,,,,,,,,,,,,,,,,,,,,,,,,,,,,
,,,,,,,,,,,,l,0.517,Correct!,,,,,,t1.png,t3.png,2,0.056466,19,female,2020-11-19_14h21.40.492,torte-2b,2020.1.3,MacIntel,60,13338,,,,,0,86,86,87,1,,,,,,,,,,,,,,,,,,,,,,,,,,,,,,,,,,,,,,,,,,,,,,,,,,,,,,,,
,,,,,,,,,,,,a,0.483,Correct!,,,,,,t3.png,t2.png,1,0.90855,19,female,2020-11-19_14h21.40.492,torte-2b,2020.1.3,MacIntel,60,13338,,,,,0,87,87,97,1,,,,,,,,,,,,,,,,,,,,,,,,,,,,,,,,,,,,,,,,,,,,,,,,,,,,,,,,
,,,,,,,,,,,,l,0.516,Correct!,,,,,,t1.png,t5.png,4,9.55E-11,19,female,2020-11-19_14h21.40.492,torte-2b,2020.1.3,MacIntel,60,13338,,,,,0,88,88,41,1,,,,,,,,,,,,,,,,,,,,,,,,,,,,,,,,,,,,,,,,,,,,,,,,,,,,,,,,
,,,,,,,,,,,,l,0.699,Incorrect,,,,,,t2.png,t3.png,1,0.90855,19,female,2020-11-19_14h21.40.492,torte-2b,2020.1.3,MacIntel,60,13338,,,,,0,89,89,10,1,,,,,,,,,,,,,,,,,,,,,,,,,,,,,,,,,,,,,,,,,,,,,,,,,,,,,,,,
,,,,,,,,,,,,l,0.474,Correct!,,,,,,t1.png,t4.png,3,0.0000131,19,female,2020-11-19_14h21.40.492,torte-2b,2020.1.3,MacIntel,60,13338,,,,,0,90,90,17,1,,,,,,,,,,,,,,,,,,,,,,,,,,,,,,,,,,,,,,,,,,,,,,,,,,,,,,,,
,,,,,,,,,,,,a,0.567,Incorrect,,,,,,t5.png,t2.png,3,0.0000131,19,female,2020-11-19_14h21.40.492,torte-2b,2020.1.3,MacIntel,60,13338,,,,,0,91,91,98,1,,,,,,,,,,,,,,,,,,,,,,,,,,,,,,,,,,,,,,,,,,,,,,,,,,,,,,,,
,,,,,,,,,,,,l,0.665,Incorrect,,,,,,t5.png,t4.png,1,0.90025,19,female,2020-11-19_14h21.40.492,torte-2b,2020.1.3,MacIntel,60,13338,,,,,0,92,92,34,1,,,,,,,,,,,,,,,,,,,,,,,,,,,,,,,,,,,,,,,,,,,,,,,,,,,,,,,,
,,,,,,,,,,,,a,0.416,Incorrect,,,,,,t4.png,t2.png,2,0.059078,19,female,2020-11-19_14h21.40.492,torte-2b,2020.1.3,MacIntel,60,13338,,,,,0,93,93,110,1,,,,,,,,,,,,,,,,,,,,,,,,,,,,,,,,,,,,,,,,,,,,,,,,,,,,,,,,
,,,,,,,,,,,,a,0.491,Incorrect,,,,,,t3.png,t1.png,2,0.056466,19,female,2020-11-19_14h21.40.492,torte-2b,2020.1.3,MacIntel,60,13338,,,,,0,94,94,64,1,,,,,,,,,,,,,,,,,,,,,,,,,,,,,,,,,,,,,,,,,,,,,,,,,,,,,,,,
,,,,,,,,,,,,a,0.898,Incorrect,,,,,,t5.png,t3.png,2,0.056466,19,female,2020-11-19_14h21.40.492,torte-2b,2020.1.3,MacIntel,60,13338,,,,,0,95,95,114,1,,,,,,,,,,,,,,,,,,,,,,,,,,,,,,,,,,,,,,,,,,,,,,,,,,,,,,,,
,,,,,,,,,,,,l,0.603,Incorrect,,,,,,t4.png,t4.png,0,0.98115,19,female,2020-11-19_14h21.40.492,torte-2b,2020.1.3,MacIntel,60,13338,,,,,0,96,96,79,1,,,,,,,,,,,,,,,,,,,,,,,,,,,,,,,,,,,,,,,,,,,,,,,,,,,,,,,,
,,,,,,,,,,,,l,0.701,Correct!,,,,,,t1.png,t4.png,3,0.0000131,19,female,2020-11-19_14h21.40.492,torte-2b,2020.1.3,MacIntel,60,13338,,,,,0,97,97,92,1,,,,,,,,,,,,,,,,,,,,,,,,,,,,,,,,,,,,,,,,,,,,,,,,,,,,,,,,
,,,,,,,,,,,,l,1.038,Incorrect,,,,,,t2.png,t2.png,0,0.98115,19,female,2020-11-19_14h21.40.492,torte-2b,2020.1.3,MacIntel,60,13338,,,,,0,98,98,57,1,,,,,,,,,,,,,,,,,,,,,,,,,,,,,,,,,,,,,,,,,,,,,,,,,,,,,,,,
,,,,,,,,,,,,l,0.418,Correct!,,,,,,t3.png,t5.png,2,0.056466,19,female,2020-11-19_14h21.40.492,torte-2b,2020.1.3,MacIntel,60,13338,,,,,0,99,99,14,1,,,,,,,,,,,,,,,,,,,,,,,,,,,,,,,,,,,,,,,,,,,,,,,,,,,,,,,,
,,,,,,,,,,,,a,0.468,Incorrect,,,,,,t5.png,t1.png,4,9.55E-11,19,female,2020-11-19_14h21.40.492,torte-2b,2020.1.3,MacIntel,60,13338,,,,,0,100,100,71,1,,,,,,,,,,,,,,,,,,,,,,,,,,,,,,,,,,,,,,,,,,,,,,,,,,,,,,,,
,,,,,,,,,,,,l,0.565,Incorrect,,,,,,t2.png,t2.png,0,0.98115,19,female,2020-11-19_14h21.40.492,torte-2b,2020.1.3,MacIntel,60,13338,,,,,0,101,101,2,1,,,,,,,,,,,,,,,,,,,,,,,,,,,,,,,,,,,,,,,,,,,,,,,,,,,,,,,,
,,,,,,,,,,,,a,0.66,Incorrect,,,,,,t5.png,t3.png,2,0.0565,19,female,2020-11-19_14h21.40.492,torte-2b,2020.1.3,MacIntel,60,13338,,,,,0,102,102,39,1,,,,,,,,,,,,,,,,,,,,,,,,,,,,,,,,,,,,,,,,,,,,,,,,,,,,,,,,
,,,,,,,,,,,,l,0.516,Incorrect,,,,,,t2.png,t2.png,0,0.98115,19,female,2020-11-19_14h21.40.492,torte-2b,2020.1.3,MacIntel,60,13338,,,,,0,103,103,59,1,,,,,,,,,,,,,,,,,,,,,,,,,,,,,,,,,,,,,,,,,,,,,,,,,,,,,,,,
,,,,,,,,,,,,a,0.417,Incorrect,,,,,,t3.png,t1.png,2,0.056466,19,female,2020-11-19_14h21.40.492,torte-2b,2020.1.3,MacIntel,60,13338,,,,,0,104,104,0,1,,,,,,,,,,,,,,,,,,,,,,,,,,,,,,,,,,,,,,,,,,,,,,,,,,,,,,,,
,,,,,,,,,,,,a,0.683,Correct!,,,,,,t4.png,t3.png,1,0.90855,19,female,2020-11-19_14h21.40.492,torte-2b,2020.1.3,MacIntel,60,13338,,,,,0,105,105,35,1,,,,,,,,,,,,,,,,,,,,,,,,,,,,,,,,,,,,,,,,,,,,,,,,,,,,,,,,
,,,,,,,,,,,,l,0.532,Correct!,,,,,,t2.png,t5.png,3,0.0000131,19,female,2020-11-19_14h21.40.492,torte-2b,2020.1.3,MacIntel,60,13338,,,,,0,106,106,104,1,,,,,,,,,,,,,,,,,,,,,,,,,,,,,,,,,,,,,,,,,,,,,,,,,,,,,,,,
,,,,,,,,,,,,l,0.683,Incorrect,,,,,,t2.png,t2.png,0,0.981,19,female,2020-11-19_14h21.40.492,torte-2b,2020.1.3,MacIntel,60,13338,,,,,0,107,107,101,1,,,,,,,,,,,,,,,,,,,,,,,,,,,,,,,,,,,,,,,,,,,,,,,,,,,,,,,,
,,,,,,,,,,,,l,0.557,Incorrect,,,,,,t1.png,t1.png,0,0.97829,19,female,2020-11-19_14h21.40.492,torte-2b,2020.1.3,MacIntel,60,13338,,,,,0,108,108,67,1,,,,,,,,,,,,,,,,,,,,,,,,,,,,,,,,,,,,,,,,,,,,,,,,,,,,,,,,
,,,,,,,,,,,,a,0.748,Incorrect,,,,,,t4.png,t3.png,1,0.909,19,female,2020-11-19_14h21.40.492,torte-2b,2020.1.3,MacIntel,60,13338,,,,,0,109,109,20,1,,,,,,,,,,,,,,,,,,,,,,,,,,,,,,,,,,,,,,,,,,,,,,,,,,,,,,,,
,,,,,,,,,,,,l,0.4,Correct!,,,,,,t1.png,t5.png,4,9.55E-11,19,female,2020-11-19_14h21.40.492,torte-2b,2020.1.3,MacIntel,60,13338,,,,,0,110,110,16,1,,,,,,,,,,,,,,,,,,,,,,,,,,,,,,,,,,,,,,,,,,,,,,,,,,,,,,,,
,,,,,,,,,,,,l,0.382,Correct!,,,,,,t2.png,t5.png,3,0.0000131,19,female,2020-11-19_14h21.40.492,torte-2b,2020.1.3,MacIntel,60,13338,,,,,0,111,111,66,1,,,,,,,,,,,,,,,,,,,,,,,,,,,,,,,,,,,,,,,,,,,,,,,,,,,,,,,,
,,,,,,,,,,,,l,0.383,Incorrect,,,,,,t4.png,t5.png,1,0.9,19,female,2020-11-19_14h21.40.492,torte-2b,2020.1.3,MacIntel,60,13338,,,,,0,112,112,115,1,,,,,,,,,,,,,,,,,,,,,,,,,,,,,,,,,,,,,,,,,,,,,,,,,,,,,,,,
,,,,,,,,,,,,a,0.449,Incorrect,,,,,,t4.png,t2.png,2,0.059078,19,female,2020-11-19_14h21.40.492,torte-2b,2020.1.3,MacIntel,60,13338,,,,,0,113,113,88,1,,,,,,,,,,,,,,,,,,,,,,,,,,,,,,,,,,,,,,,,,,,,,,,,,,,,,,,,
,,,,,,,,,,,,l,0.406,Correct!,,,,,,t3.png,t5.png,2,0.0565,19,female,2020-11-19_14h21.40.492,torte-2b,2020.1.3,MacIntel,60,13338,,,,,0,114,114,30,1,,,,,,,,,,,,,,,,,,,,,,,,,,,,,,,,,,,,,,,,,,,,,,,,,,,,,,,,
,,,,,,,,,,,,a,0.488,Incorrect,,,,,,t4.png,t2.png,2,0.059078,19,female,2020-11-19_14h21.40.492,torte-2b,2020.1.3,MacIntel,60,13338,,,,,0,115,115,86,1,,,,,,,,,,,,,,,,,,,,,,,,,,,,,,,,,,,,,,,,,,,,,,,,,,,,,,,,
,,,,,,,,,,,,l,0.392,Correct!,,,,,,t1.png,t3.png,2,0.056466,19,female,2020-11-19_14h21.40.492,torte-2b,2020.1.3,MacIntel,60,13338,,,,,0,116,116,69,1,,,,,,,,,,,,,,,,,,,,,,,,,,,,,,,,,,,,,,,,,,,,,,,,,,,,,,,,
,,,,,,,,,,,,a,0.5,Correct!,,,,,,t5.png,t4.png,1,0.9,19,female,2020-11-19_14h21.40.492,torte-2b,2020.1.3,MacIntel,60,13338,,,,,0,117,117,76,1,,,,,,,,,,,,,,,,,,,,,,,,,,,,,,,,,,,,,,,,,,,,,,,,,,,,,,,,
,,,,,,,,,,,,l,0.425,Correct!,,,,,,t2.png,t5.png,3,0.0000131,19,female,2020-11-19_14h21.40.492,torte-2b,2020.1.3,MacIntel,60,13338,,,,,0,118,118,8,1,,,,,,,,,,,,,,,,,,,,,,,,,,,,,,,,,,,,,,,,,,,,,,,,,,,,,,,,
,,,,,,,,,,,,a,0.384,Incorrect,,,,,,t5.png,t1.png,4,9.55E-11,19,female,2020-11-19_14h21.40.492,torte-2b,2020.1.3,MacIntel,60,13338,,,,,0,119,119,100,1,,,,,,,,,,,,,,,,,,,,,,,,,,,,,,,,,,,,,,,,,,,,,,,,,,,,,,,,
,,,,,,,,,,,,,,,,,,,,,,,,19,female,2020-11-19_14h21.40.492,torte-2b,2020.1.3,MacIntel,60,13338,space,0.903,,,,,,,,space,49.434,,0,0,0,0,1,6,,,,,,,,,,,,,,,,,,,,,,,,,,,,,,,,,,,,,,,,,,,,,,,
,,,,,,,,,,,,,,,,,,,,,,,,19,female,2020-11-19_14h21.40.492,torte-2b,2020.1.3,MacIntel,60,13338,,,,,,,,,,,,,0,1,1,1,1,7,,,,,,,,,,,,,,,,,,,,,,,,,,,,,,,,,,,,,,,,,,,,,,,
,,,,,,,,,,,,,,,,,,,,,,,,19,female,2020-11-19_14h21.40.492,torte-2b,2020.1.3,MacIntel,60,13338,,,,,,,,,,,,space,0,2,2,2,1,6,0.346,,,,,,,,,,,,,,,,,,,,,,,,,,,,,,,,,,,,,,,,,,,,,,
,,,,,,,,,,,,,,,,,,,,,,,,19,female,2020-11-19_14h21.40.492,torte-2b,2020.1.3,MacIntel,60,13338,,,,,,,,,,,,,0,3,3,3,1,7,,,,,,,,,,,,,,,,,,,,,,,,,,,,,,,,,,,,,,,,,,,,,,,
,,,,,,,,,,,,,,,,,,,,,,,,19,female,2020-11-19_14h21.40.492,torte-2b,2020.1.3,MacIntel,60,13338,,,,,,,,,,,,,0,4,4,4,1,5,,,,,,,,,,,,,,,,,,,,,,,,,,,,,,,,,,,,,,,,,,,,,,,
,,,,,,,,,,,,,,,,,,,,,,,,19,female,2020-11-19_14h21.40.492,torte-2b,2020.1.3,MacIntel,60,13338,,,,,,,,,,,,space,0,5,5,5,1,7,0.677,,,,,,,,,,,,,,,,,,,,,,,,,,,,,,,,,,,,,,,,,,,,,,
,,,,,,,,,,,,,,,,,,,,,,,,19,female,2020-11-19_14h21.40.492,torte-2b,2020.1.3,MacIntel,60,13338,,,,,,,,,,,,,0,6,6,6,1,2,,,,,,,,,,,,,,,,,,,,,,,,,,,,,,,,,,,,,,,,,,,,,,,
,,,,,,,,,,,,,,,,,,,,,,,,19,female,2020-11-19_14h21.40.492,torte-2b,2020.1.3,MacIntel,60,13338,,,,,,,,,,,,,0,7,7,7,1,4,,,,,,,,,,,,,,,,,,,,,,,,,,,,,,,,,,,,,,,,,,,,,,,
,,,,,,,,,,,,,,,,,,,,,,,,19,female,2020-11-19_14h21.40.492,torte-2b,2020.1.3,MacIntel,60,13338,,,,,,,,,,,,,0,8,8,8,1,7,,,,,,,,,,,,,,,,,,,,,,,,,,,,,,,,,,,,,,,,,,,,,,,
,,,,,,,,,,,,,,,,,,,,,,,,19,female,2020-11-19_14h21.40.492,torte-2b,2020.1.3,MacIntel,60,13338,,,,,,,,,,,,,0,9,9,9,1,4,,,,,,,,,,,,,,,,,,,,,,,,,,,,,,,,,,,,,,,,,,,,,,,
,,,,,,,,,,,,,,,,,,,,,,,,19,female,2020-11-19_14h21.40.492,torte-2b,2020.1.3,MacIntel,60,13338,,,,,,,,,,,,space,0,10,10,10,1,7,0.33,,,,,,,,,,,,,,,,,,,,,,,,,,,,,,,,,,,,,,,,,,,,,,
,,,,,,,,,,,,,,,,,,,,,,,,19,female,2020-11-19_14h21.40.492,torte-2b,2020.1.3,MacIntel,60,13338,,,,,,,,,,,,,0,11,11,11,1,7,,,,,,,,,,,,,,,,,,,,,,,,,,,,,,,,,,,,,,,,,,,,,,,
,,,,,,,,,,,,,,,,,,,,,,,,19,female,2020-11-19_14h21.40.492,torte-2b,2020.1.3,MacIntel,60,13338,,,,,,,,,,,,space,0,12,12,12,1,7,0.343,,,,,,,,,,,,,,,,,,,,,,,,,,,,,,,,,,,,,,,,,,,,,,
,,,,,,,,,,,,,,,,,,,,,,,,19,female,2020-11-19_14h21.40.492,torte-2b,2020.1.3,MacIntel,60,13338,,,,,,,,,,,,,0,13,13,13,1,4,,,,,,,,,,,,,,,,,,,,,,,,,,,,,,,,,,,,,,,,,,,,,,,
,,,,,,,,,,,,,,,,,,,,,,,,19,female,2020-11-19_14h21.40.492,torte-2b,2020.1.3,MacIntel,60,13338,,,,,,,,,,,,,0,14,14,14,1,6,,,,,,,,,,,,,,,,,,,,,,,,,,,,,,,,,,,,,,,,,,,,,,,
,,,,,,,,,,,,,,,,,,,,,,,,19,female,2020-11-19_14h21.40.492,torte-2b,2020.1.3,MacIntel,60,13338,,,,,,,,,,,,space,0,15,15,15,1,4,0.535,,,,,,,,,,,,,,,,,,,,,,,,,,,,,,,,,,,,,,,,,,,,,,
,,,,,,,,,,,,,,,,,,,,,,,,19,female,2020-11-19_14h21.40.492,torte-2b,2020.1.3,MacIntel,60,13338,,,,,,,,,,,,,0,16,16,16,1,6,,,,,,,,,,,,,,,,,,,,,,,,,,,,,,,,,,,,,,,,,,,,,,,
,,,,,,,,,,,,,,,,,,,,,,,,19,female,2020-11-19_14h21.40.492,torte-2b,2020.1.3,MacIntel,60,13338,,,,,,,,,,,,,0,17,17,17,1,7,,,,,,,,,,,,,,,,,,,,,,,,,,,,,,,,,,,,,,,,,,,,,,,
,,,,,,,,,,,,,,,,,,,,,,,,19,female,2020-11-19_14h21.40.492,torte-2b,2020.1.3,MacIntel,60,13338,,,,,,,,,,,,,0,18,18,18,1,6,,,,,,,,,,,,,,,,,,,,,,,,,,,,,,,,,,,,,,,,,,,,,,,
,,,,,,,,,,,,,,,,,,,,,,,,19,female,2020-11-19_14h21.40.492,torte-2b,2020.1.3,MacIntel,60,13338,,,,,,,,,,,,space,0,19,19,19,1,7,0.714,,,,,,,,,,,,,,,,,,,,,,,,,,,,,,,,,,,,,,,,,,,,,,
,,,,,,,,,,,,,,,,,,,,,,,,19,female,2020-11-19_14h21.40.492,torte-2b,2020.1.3,MacIntel,60,13338,,,,,,,,,,,,,0,20,20,20,1,5,,,,,,,,,,,,,,,,,,,,,,,,,,,,,,,,,,,,,,,,,,,,,,,
,,,,,,,,,,,,,,,,,,,,,,,,19,female,2020-11-19_14h21.40.492,torte-2b,2020.1.3,MacIntel,60,13338,,,,,,,,,,,,,0,21,21,21,1,1,,,,,,,,,,,,,,,,,,,,,,,,,,,,,,,,,,,,,,,,,,,,,,,
,,,,,,,,,,,,,,,,,,,,,,,,19,female,2020-11-19_14h21.40.492,torte-2b,2020.1.3,MacIntel,60,13338,,,,,,,,,,,,,0,22,22,22,1,6,,,,,,,,,,,,,,,,,,,,,,,,,,,,,,,,,,,,,,,,,,,,,,,
,,,,,,,,,,,,,,,,,,,,,,,,19,female,2020-11-19_14h21.40.492,torte-2b,2020.1.3,MacIntel,60,13338,,,,,,,,,,,,space,0,23,23,23,1,1,0.714,,,,,,,,,,,,,,,,,,,,,,,,,,,,,,,,,,,,,,,,,,,,,,
,,,,,,,,,,,,,,,,,,,,,,,,19,female,2020-11-19_14h21.40.492,torte-2b,2020.1.3,MacIntel,60,13338,,,,,,,,,,,,,0,24,24,24,1,5,,,,,,,,,,,,,,,,,,,,,,,,,,,,,,,,,,,,,,,,,,,,,,,
,,,,,,,,,,,,,,,,,,,,,,,,19,female,2020-11-19_14h21.40.492,torte-2b,2020.1.3,MacIntel,60,13338,,,,,,,,,,,,,0,25,25,25,1,6,,,,,,,,,,,,,,,,,,,,,,,,,,,,,,,,,,,,,,,,,,,,,,,
,,,,,,,,,,,,,,,,,,,,,,,,19,female,2020-11-19_14h21.40.492,torte-2b,2020.1.3,MacIntel,60,13338,,,,,,,,,,,,,0,26,26,26,1,6,,,,,,,,,,,,,,,,,,,,,,,,,,,,,,,,,,,,,,,,,,,,,,,
,,,,,,,,,,,,,,,,,,,,,,,,19,female,2020-11-19_14h21.40.492,torte-2b,2020.1.3,MacIntel,60,13338,,,,,,,,,,,,space,0,27,27,27,1,6,0.414,,,,,,,,,,,,,,,,,,,,,,,,,,,,,,,,,,,,,,,,,,,,,,
,,,,,,,,,,,,,,,,,,,,,,,,19,female,2020-11-19_14h21.40.492,torte-2b,2020.1.3,MacIntel,60,13338,,,,,,,,,,,,,0,28,28,28,1,5,,,,,,,,,,,,,,,,,,,,,,,,,,,,,,,,,,,,,,,,,,,,,,,
,,,,,,,,,,,,,,,,,,,,,,,,19,female,2020-11-19_14h21.40.492,torte-2b,2020.1.3,MacIntel,60,13338,,,,,,,,,,,,,0,29,29,29,1,2,,,,,,,,,,,,,,,,,,,,,,,,,,,,,,,,,,,,,,,,,,,,,,,
,,,,,,,,,,,,,,,,,,,,,,,,19,female,2020-11-19_14h21.40.492,torte-2b,2020.1.3,MacIntel,60,13338,,,,,,,,,,,,space,0,30,30,30,1,5,0.512,,,,,,,,,,,,,,,,,,,,,,,,,,,,,,,,,,,,,,,,,,,,,,
,,,,,,,,,,,,,,,,,,,,,,,,19,female,2020-11-19_14h21.40.492,torte-2b,2020.1.3,MacIntel,60,13338,,,,,,,,,,,,space,0,31,31,31,1,2,0.784,,,,,,,,,,,,,,,,,,,,,,,,,,,,,,,,,,,,,,,,,,,,,,
,,,,,,,,,,,,,,,,,,,,,,,,19,female,2020-11-19_14h21.40.492,torte-2b,2020.1.3,MacIntel,60,13338,,,,,,,,,,,,space,0,32,32,32,1,5,0.634,,,,,,,,,,,,,,,,,,,,,,,,,,,,,,,,,,,,,,,,,,,,,,
,,,,,,,,,,,,,,,,,,,,,,,,19,female,2020-11-19_14h21.40.492,torte-2b,2020.1.3,MacIntel,60,13338,,,,,,,,,,,,,0,33,33,33,1,1,,,,,,,,,,,,,,,,,,,,,,,,,,,,,,,,,,,,,,,,,,,,,,,
,,,,,,,,,,,,,,,,,,,,,,,,19,female,2020-11-19_14h21.40.492,torte-2b,2020.1.3,MacIntel,60,13338,,,,,,,,,,,,,0,34,34,34,1,1,,,,,,,,,,,,,,,,,,,,,,,,,,,,,,,,,,,,,,,,,,,,,,,
,,,,,,,,,,,,,,,,,,,,,,,,19,female,2020-11-19_14h21.40.492,torte-2b,2020.1.3,MacIntel,60,13338,,,,,,,,,,,,,,,,,,2,,0,0,0,0,1,,,,,,,,,,,,,,,,,,,,,,,,,,,,,,,,,,,,,,,,,
,,,,,,,,,,,,,,,,,,,,,,,,19,female,2020-11-19_14h21.40.492,torte-2b,2020.1.3,MacIntel,60,13338,,,,,,,,,,,,,,,,,,2,,0,1,1,1,1,,,,,,,,,,,,,,,,,,,,,,,,,,,,,,,,,,,,,,,,,
,,,,,,,,,,,,,,,,,,,,,,,,19,female,2020-11-19_14h21.40.492,torte-2b,2020.1.3,MacIntel,60,13338,,,,,,,,,,,,,,,,,,6,,0,2,2,2,1,,,,,,,,,,,,,,,,,,,,,,,,,,,,,,,,,,,,,,,,,
,,,,,,,,,,,,,,,,,,,,,,,,19,female,2020-11-19_14h21.40.492,torte-2b,2020.1.3,MacIntel,60,13338,,,,,,,,,,,,space,,,,,,2,0.427,0,3,3,3,1,,,,,,,,,,,,,,,,,,,,,,,,,,,,,,,,,,,,,,,,,
,,,,,,,,,,,,,,,,,,,,,,,,19,female,2020-11-19_14h21.40.492,torte-2b,2020.1.3,MacIntel,60,13338,,,,,,,,,,,,space,,,,,,6,0.851,0,4,4,4,1,,,,,,,,,,,,,,,,,,,,,,,,,,,,,,,,,,,,,,,,,
,,,,,,,,,,,,,,,,,,,,,,,,19,female,2020-11-19_14h21.40.492,torte-2b,2020.1.3,MacIntel,60,13338,,,,,,,,,,,,space,,,,,,2,1.103,0,5,5,5,1,,,,,,,,,,,,,,,,,,,,,,,,,,,,,,,,,,,,,,,,,
,,,,,,,,,,,,,,,,,,,,,,,,19,female,2020-11-19_14h21.40.492,torte-2b,2020.1.3,MacIntel,60,13338,,,,,,,,,,,,,,,,,,7,,0,6,6,6,1,,,,,,,,,,,,,,,,,,,,,,,,,,,,,,,,,,,,,,,,,
,,,,,,,,,,,,,,,,,,,,,,,,19,female,2020-11-19_14h21.40.492,torte-2b,2020.1.3,MacIntel,60,13338,,,,,,,,,,,,,,,,,,2,,0,7,7,7,1,,,,,,,,,,,,,,,,,,,,,,,,,,,,,,,,,,,,,,,,,
,,,,,,,,,,,,,,,,,,,,,,,,19,female,2020-11-19_14h21.40.492,torte-2b,2020.1.3,MacIntel,60,13338,,,,,,,,,,,,space,,,,,,7,0.726,0,8,8,8,1,,,,,,,,,,,,,,,,,,,,,,,,,,,,,,,,,,,,,,,,,
,,,,,,,,,,,,,,,,,,,,,,,,19,female,2020-11-19_14h21.40.492,torte-2b,2020.1.3,MacIntel,60,13338,,,,,,,,,,,,space,,,,,,2,0.513,0,9,9,9,1,,,,,,,,,,,,,,,,,,,,,,,,,,,,,,,,,,,,,,,,,
,,,,,,,,,,,,,,,,,,,,,,,,19,female,2020-11-19_14h21.40.492,torte-2b,2020.1.3,MacIntel,60,13338,,,,,,,,,,,,,,,,,,5,,0,10,10,10,1,,,,,,,,,,,,,,,,,,,,,,,,,,,,,,,,,,,,,,,,,
,,,,,,,,,,,,,,,,,,,,,,,,19,female,2020-11-19_14h21.40.492,torte-2b,2020.1.3,MacIntel,60,13338,,,,,,,,,,,,,,,,,,4,,0,11,11,11,1,,,,,,,,,,,,,,,,,,,,,,,,,,,,,,,,,,,,,,,,,
,,,,,,,,,,,,,,,,,,,,,,,,19,female,2020-11-19_14h21.40.492,torte-2b,2020.1.3,MacIntel,60,13338,,,,,,,,,,,,space,,,,,,5,0.505,0,12,12,12,1,,,,,,,,,,,,,,,,,,,,,,,,,,,,,,,,,,,,,,,,,
,,,,,,,,,,,,,,,,,,,,,,,,19,female,2020-11-19_14h21.40.492,torte-2b,2020.1.3,MacIntel,60,13338,,,,,,,,,,,,space,,,,,,6,0.889,0,13,13,13,1,,,,,,,,,,,,,,,,,,,,,,,,,,,,,,,,,,,,,,,,,
,,,,,,,,,,,,,,,,,,,,,,,,19,female,2020-11-19_14h21.40.492,torte-2b,2020.1.3,MacIntel,60,13338,,,,,,,,,,,,space,,,,,,5,0.933,0,14,14,14,1,,,,,,,,,,,,,,,,,,,,,,,,,,,,,,,,,,,,,,,,,
,,,,,,,,,,,,,,,,,,,,,,,,19,female,2020-11-19_14h21.40.492,torte-2b,2020.1.3,MacIntel,60,13338,,,,,,,,,,,,,,,,,,4,,0,15,15,15,1,,,,,,,,,,,,,,,,,,,,,,,,,,,,,,,,,,,,,,,,,
,,,,,,,,,,,,,,,,,,,,,,,,19,female,2020-11-19_14h21.40.492,torte-2b,2020.1.3,MacIntel,60,13338,,,,,,,,,,,,space,,,,,,5,1.086,0,16,16,16,1,,,,,,,,,,,,,,,,,,,,,,,,,,,,,,,,,,,,,,,,,
,,,,,,,,,,,,,,,,,,,,,,,,19,female,2020-11-19_14h21.40.492,torte-2b,2020.1.3,MacIntel,60,13338,,,,,,,,,,,,,,,,,,3,,0,17,17,17,1,,,,,,,,,,,,,,,,,,,,,,,,,,,,,,,,,,,,,,,,,
,,,,,,,,,,,,,,,,,,,,,,,,19,female,2020-11-19_14h21.40.492,torte-2b,2020.1.3,MacIntel,60,13338,,,,,,,,,,,,,,,,,,6,,0,18,18,18,1,,,,,,,,,,,,,,,,,,,,,,,,,,,,,,,,,,,,,,,,,
,,,,,,,,,,,,,,,,,,,,,,,,19,female,2020-11-19_14h21.40.492,torte-2b,2020.1.3,MacIntel,60,13338,,,,,,,,,,,,,,,,,,6,,0,19,19,19,1,,,,,,,,,,,,,,,,,,,,,,,,,,,,,,,,,,,,,,,,,
,,,,,,,,,,,,,,,,,,,,,,,,19,female,2020-11-19_14h21.40.492,torte-2b,2020.1.3,MacIntel,60,13338,,,,,,,,,,,,space,,,,,,6,0.417,0,20,20,20,1,,,,,,,,,,,,,,,,,,,,,,,,,,,,,,,,,,,,,,,,,
,,,,,,,,,,,,,,,,,,,,,,,,19,female,2020-11-19_14h21.40.492,torte-2b,2020.1.3,MacIntel,60,13338,,,,,,,,,,,,,,,,,,4,,0,21,21,21,1,,,,,,,,,,,,,,,,,,,,,,,,,,,,,,,,,,,,,,,,,
,,,,,,,,,,,,,,,,,,,,,,,,19,female,2020-11-19_14h21.40.492,torte-2b,2020.1.3,MacIntel,60,13338,,,,,,,,,,,,space,,,,,,6,0.907,0,22,22,22,1,,,,,,,,,,,,,,,,,,,,,,,,,,,,,,,,,,,,,,,,,
,,,,,,,,,,,,,,,,,,,,,,,,19,female,2020-11-19_14h21.40.492,torte-2b,2020.1.3,MacIntel,60,13338,,,,,,,,,,,,space,,,,,,4,0.66,0,23,23,23,1,,,,,,,,,,,,,,,,,,,,,,,,,,,,,,,,,,,,,,,,,
,,,,,,,,,,,,,,,,,,,,,,,,19,female,2020-11-19_14h21.40.492,torte-2b,2020.1.3,MacIntel,60,13338,,,,,,,,,,,,space,,,,,,6,0.595,0,24,24,24,1,,,,,,,,,,,,,,,,,,,,,,,,,,,,,,,,,,,,,,,,,
,,,,,,,,,,,,,,,,,,,,,,,,19,female,2020-11-19_14h21.40.492,torte-2b,2020.1.3,MacIntel,60,13338,,,,,,,,,,,,,,,,,,6,,0,25,25,25,1,,,,,,,,,,,,,,,,,,,,,,,,,,,,,,,,,,,,,,,,,
,,,,,,,,,,,,,,,,,,,,,,,,19,female,2020-11-19_14h21.40.492,torte-2b,2020.1.3,MacIntel,60,13338,,,,,,,,,,,,,,,,,,7,,0,26,26,26,1,,,,,,,,,,,,,,,,,,,,,,,,,,,,,,,,,,,,,,,,,
,,,,,,,,,,,,,,,,,,,,,,,,19,female,2020-11-19_14h21.40.492,torte-2b,2020.1.3,MacIntel,60,13338,,,,,,,,,,,,,,,,,,1,,0,27,27,27,1,,,,,,,,,,,,,,,,,,,,,,,,,,,,,,,,,,,,,,,,,
,,,,,,,,,,,,,,,,,,,,,,,,19,female,2020-11-19_14h21.40.492,torte-2b,2020.1.3,MacIntel,60,13338,,,,,,,,,,,,space,,,,,,7,0.427,0,28,28,28,1,,,,,,,,,,,,,,,,,,,,,,,,,,,,,,,,,,,,,,,,,
,,,,,,,,,,,,,,,,,,,,,,,,19,female,2020-11-19_14h21.40.492,torte-2b,2020.1.3,MacIntel,60,13338,,,,,,,,,,,,,,,,,,4,,0,29,29,29,1,,,,,,,,,,,,,,,,,,,,,,,,,,,,,,,,,,,,,,,,,
,,,,,,,,,,,,,,,,,,,,,,,,19,female,2020-11-19_14h21.40.492,torte-2b,2020.1.3,MacIntel,60,13338,,,,,,,,,,,,space,,,,,,7,0.579,0,30,30,30,1,,,,,,,,,,,,,,,,,,,,,,,,,,,,,,,,,,,,,,,,,
,,,,,,,,,,,,,,,,,,,,,,,,19,female,2020-11-19_14h21.40.492,torte-2b,2020.1.3,MacIntel,60,13338,,,,,,,,,,,,,,,,,,3,,0,31,31,31,1,,,,,,,,,,,,,,,,,,,,,,,,,,,,,,,,,,,,,,,,,
,,,,,,,,,,,,,,,,,,,,,,,,19,female,2020-11-19_14h21.40.492,torte-2b,2020.1.3,MacIntel,60,13338,,,,,,,,,,,,,,,,,,2,,0,32,32,32,1,,,,,,,,,,,,,,,,,,,,,,,,,,,,,,,,,,,,,,,,,
,,,,,,,,,,,,,,,,,,,,,,,,19,female,2020-11-19_14h21.40.492,torte-2b,2020.1.3,MacIntel,60,13338,,,,,,,,,,,,,,,,,,6,,0,33,33,33,1,,,,,,,,,,,,,,,,,,,,,,,,,,,,,,,,,,,,,,,,,
,,,,,,,,,,,,,,,,,,,,,,,,19,female,2020-11-19_14h21.40.492,torte-2b,2020.1.3,MacIntel,60,13338,,,,,,,,,,,,space,,,,,,3,0.512,0,34,34,34,1,,,,,,,,,,,,,,,,,,,,,,,,,,,,,,,,,,,,,,,,,
,,,,,,,,,,,,,,,,,,,,,,,,19,female,2020-11-19_14h21.40.492,torte-2b,2020.1.3,MacIntel,60,13338,,,,,,,,,,,,,,,,,,7,,,,,,,0,0,0,0,1,,,,,,,,,,,,,,,,,,,,,,,,,,,,,,,,,,,,
,,,,,,,,,,,,,,,,,,,,,,,,19,female,2020-11-19_14h21.40.492,torte-2b,2020.1.3,MacIntel,60,13338,,,,,,,,,,,,,,,,,,5,,,,,,,0,1,1,1,1,,,,,,,,,,,,,,,,,,,,,,,,,,,,,,,,,,,,
,,,,,,,,,,,,,,,,,,,,,,,,19,female,2020-11-19_14h21.40.492,torte-2b,2020.1.3,MacIntel,60,13338,,,,,,,,,,,,,,,,,,4,,,,,,,0,2,2,2,1,,,,,,,,,,,,,,,,,,,,,,,,,,,,,,,,,,,,
,,,,,,,,,,,,,,,,,,,,,,,,19,female,2020-11-19_14h21.40.492,torte-2b,2020.1.3,MacIntel,60,13338,,,,,,,,,,,,space,,,,,,5,0.717,,,,,,0,3,3,3,1,,,,,,,,,,,,,,,,,,,,,,,,,,,,,,,,,,,,
,,,,,,,,,,,,,,,,,,,,,,,,19,female,2020-11-19_14h21.40.492,torte-2b,2020.1.3,MacIntel,60,13338,,,,,,,,,,,,,,,,,,6,,,,,,,0,4,4,4,1,,,,,,,,,,,,,,,,,,,,,,,,,,,,,,,,,,,,
,,,,,,,,,,,,,,,,,,,,,,,,19,female,2020-11-19_14h21.40.492,torte-2b,2020.1.3,MacIntel,60,13338,,,,,,,,,,,,space,,,,,,5,1.132,,,,,,0,5,5,5,1,,,,,,,,,,,,,,,,,,,,,,,,,,,,,,,,,,,,
,,,,,,,,,,,,,,,,,,,,,,,,19,female,2020-11-19_14h21.40.492,torte-2b,2020.1.3,MacIntel,60,13338,,,,,,,,,,,,,,,,,,3,,,,,,,0,6,6,6,1,,,,,,,,,,,,,,,,,,,,,,,,,,,,,,,,,,,,
,,,,,,,,,,,,,,,,,,,,,,,,19,female,2020-11-19_14h21.40.492,torte-2b,2020.1.3,MacIntel,60,13338,,,,,,,,,,,,,,,,,,4,,,,,,,0,7,7,7,1,,,,,,,,,,,,,,,,,,,,,,,,,,,,,,,,,,,,
,,,,,,,,,,,,,,,,,,,,,,,,19,female,2020-11-19_14h21.40.492,torte-2b,2020.1.3,MacIntel,60,13338,,,,,,,,,,,,space,,,,,,3,0.557,,,,,,0,8,8,8,1,,,,,,,,,,,,,,,,,,,,,,,,,,,,,,,,,,,,
,,,,,,,,,,,,,,,,,,,,,,,,19,female,2020-11-19_14h21.40.492,torte-2b,2020.1.3,MacIntel,60,13338,,,,,,,,,,,,,,,,,,1,,,,,,,0,9,9,9,1,,,,,,,,,,,,,,,,,,,,,,,,,,,,,,,,,,,,
,,,,,,,,,,,,,,,,,,,,,,,,19,female,2020-11-19_14h21.40.492,torte-2b,2020.1.3,MacIntel,60,13338,,,,,,,,,,,,,,,,,,2,,,,,,,0,10,10,10,1,,,,,,,,,,,,,,,,,,,,,,,,,,,,,,,,,,,,
,,,,,,,,,,,,,,,,,,,,,,,,19,female,2020-11-19_14h21.40.492,torte-2b,2020.1.3,MacIntel,60,13338,,,,,,,,,,,,space,,,,,,1,0.598,,,,,,0,11,11,11,1,,,,,,,,,,,,,,,,,,,,,,,,,,,,,,,,,,,,
,,,,,,,,,,,,,,,,,,,,,,,,19,female,2020-11-19_14h21.40.492,torte-2b,2020.1.3,MacIntel,60,13338,,,,,,,,,,,,space,,,,,,2,0.821,,,,,,0,12,12,12,1,,,,,,,,,,,,,,,,,,,,,,,,,,,,,,,,,,,,
,,,,,,,,,,,,,,,,,,,,,,,,19,female,2020-11-19_14h21.40.492,torte-2b,2020.1.3,MacIntel,60,13338,,,,,,,,,,,,space,,,,,,1,1.014,,,,,,0,13,13,13,1,,,,,,,,,,,,,,,,,,,,,,,,,,,,,,,,,,,,
,,,,,,,,,,,,,,,,,,,,,,,,19,female,2020-11-19_14h21.40.492,torte-2b,2020.1.3,MacIntel,60,13338,,,,,,,,,,,,,,,,,,3,,,,,,,0,14,14,14,1,,,,,,,,,,,,,,,,,,,,,,,,,,,,,,,,,,,,
,,,,,,,,,,,,,,,,,,,,,,,,19,female,2020-11-19_14h21.40.492,torte-2b,2020.1.3,MacIntel,60,13338,,,,,,,,,,,,space,,,,,,1,0.778,,,,,,0,15,15,15,1,,,,,,,,,,,,,,,,,,,,,,,,,,,,,,,,,,,,
,,,,,,,,,,,,,,,,,,,,,,,,19,female,2020-11-19_14h21.40.492,torte-2b,2020.1.3,MacIntel,60,13338,,,,,,,,,,,,,,,,,,7,,,,,,,0,16,16,16,1,,,,,,,,,,,,,,,,,,,,,,,,,,,,,,,,,,,,
,,,,,,,,,,,,,,,,,,,,,,,,19,female,2020-11-19_14h21.40.492,torte-2b,2020.1.3,MacIntel,60,13338,,,,,,,,,,,,space,,,,,,7,1.103,,,,,,0,17,17,17,1,,,,,,,,,,,,,,,,,,,,,,,,,,,,,,,,,,,,
,,,,,,,,,,,,,,,,,,,,,,,,19,female,2020-11-19_14h21.40.492,torte-2b,2020.1.3,MacIntel,60,13338,,,,,,,,,,,,,,,,,,4,,,,,,,0,18,18,18,1,,,,,,,,,,,,,,,,,,,,,,,,,,,,,,,,,,,,
,,,,,,,,,,,,,,,,,,,,,,,,19,female,2020-11-19_14h21.40.492,torte-2b,2020.1.3,MacIntel,60,13338,,,,,,,,,,,,,,,,,,7,,,,,,,0,19,19,19,1,,,,,,,,,,,,,,,,,,,,,,,,,,,,,,,,,,,,
,,,,,,,,,,,,,,,,,,,,,,,,19,female,2020-11-19_14h21.40.492,torte-2b,2020.1.3,MacIntel,60,13338,,,,,,,,,,,,,,,,,,3,,,,,,,0,20,20,20,1,,,,,,,,,,,,,,,,,,,,,,,,,,,,,,,,,,,,
,,,,,,,,,,,,,,,,,,,,,,,,19,female,2020-11-19_14h21.40.492,torte-2b,2020.1.3,MacIntel,60,13338,,,,,,,,,,,,space,,,,,,7,0.645,,,,,,0,21,21,21,1,,,,,,,,,,,,,,,,,,,,,,,,,,,,,,,,,,,,
,,,,,,,,,,,,,,,,,,,,,,,,19,female,2020-11-19_14h21.40.492,torte-2b,2020.1.3,MacIntel,60,13338,,,,,,,,,,,,,,,,,,3,,,,,,,0,22,22,22,1,,,,,,,,,,,,,,,,,,,,,,,,,,,,,,,,,,,,
,,,,,,,,,,,,,,,,,,,,,,,,19,female,2020-11-19_14h21.40.492,torte-2b,2020.1.3,MacIntel,60,13338,,,,,,,,,,,,,,,,,,1,,,,,,,0,23,23,23,1,,,,,,,,,,,,,,,,,,,,,,,,,,,,,,,,,,,,
,,,,,,,,,,,,,,,,,,,,,,,,19,female,2020-11-19_14h21.40.492,torte-2b,2020.1.3,MacIntel,60,13338,,,,,,,,,,,,,,,,,,6,,,,,,,0,24,24,24,1,,,,,,,,,,,,,,,,,,,,,,,,,,,,,,,,,,,,
,,,,,,,,,,,,,,,,,,,,,,,,19,female,2020-11-19_14h21.40.492,torte-2b,2020.1.3,MacIntel,60,13338,,,,,,,,,,,,space,,,,,,3,0.643,,,,,,0,25,25,25,1,,,,,,,,,,,,,,,,,,,,,,,,,,,,,,,,,,,,
,,,,,,,,,,,,,,,,,,,,,,,,19,female,2020-11-19_14h21.40.492,torte-2b,2020.1.3,MacIntel,60,13338,,,,,,,,,,,,,,,,,,2,,,,,,,0,26,26,26,1,,,,,,,,,,,,,,,,,,,,,,,,,,,,,,,,,,,,
,,,,,,,,,,,,,,,,,,,,,,,,19,female,2020-11-19_14h21.40.492,torte-2b,2020.1.3,MacIntel,60,13338,,,,,,,,,,,,space,,,,,,3,0.913,,,,,,0,27,27,27,1,,,,,,,,,,,,,,,,,,,,,,,,,,,,,,,,,,,,
,,,,,,,,,,,,,,,,,,,,,,,,19,female,2020-11-19_14h21.40.492,torte-2b,2020.1.3,MacIntel,60,13338,,,,,,,,,,,,,,,,,,1,,,,,,,0,28,28,28,1,,,,,,,,,,,,,,,,,,,,,,,,,,,,,,,,,,,,
,,,,,,,,,,,,,,,,,,,,,,,,19,female,2020-11-19_14h21.40.492,torte-2b,2020.1.3,MacIntel,60,13338,,,,,,,,,,,,,,,,,,3,,,,,,,0,29,29,29,1,,,,,,,,,,,,,,,,,,,,,,,,,,,,,,,,,,,,
,,,,,,,,,,,,,,,,,,,,,,,,19,female,2020-11-19_14h21.40.492,torte-2b,2020.1.3,MacIntel,60,13338,,,,,,,,,,,,space,,,,,,1,1.381,,,,,,0,30,30,30,1,,,,,,,,,,,,,,,,,,,,,,,,,,,,,,,,,,,,
,,,,,,,,,,,,,,,,,,,,,,,,19,female,2020-11-19_14h21.40.492,torte-2b,2020.1.3,MacIntel,60,13338,,,,,,,,,,,,,,,,,,7,,,,,,,0,31,31,31,1,,,,,,,,,,,,,,,,,,,,,,,,,,,,,,,,,,,,
,,,,,,,,,,,,,,,,,,,,,,,,19,female,2020-11-19_14h21.40.492,torte-2b,2020.1.3,MacIntel,60,13338,,,,,,,,,,,,,,,,,,5,,,,,,,0,32,32,32,1,,,,,,,,,,,,,,,,,,,,,,,,,,,,,,,,,,,,
,,,,,,,,,,,,,,,,,,,,,,,,19,female,2020-11-19_14h21.40.492,torte-2b,2020.1.3,MacIntel,60,13338,,,,,,,,,,,,space,,,,,,7,0.669,,,,,,0,33,33,33,1,,,,,,,,,,,,,,,,,,,,,,,,,,,,,,,,,,,,
,,,,,,,,,,,,,,,,,,,,,,,,19,female,2020-11-19_14h21.40.492,torte-2b,2020.1.3,MacIntel,60,13338,,,,,,,,,,,,,,,,,,2,,,,,,,0,34,34,34,1,,,,,,,,,,,,,,,,,,,,,,,,,,,,,,,,,,,,
,,,,,,,,,,,,,,,,,,,,,,,,19,female,2020-11-19_14h21.40.492,torte-2b,2020.1.3,MacIntel,60,13338,,,,,,,,,,,,,,,,,,3,,,,,,,,,,,,0,0,0,0,1,,,,,,,,,,,,,,,,,,,,,,,,,,,,,,,
,,,,,,,,,,,,,,,,,,,,,,,,19,female,2020-11-19_14h21.40.492,torte-2b,2020.1.3,MacIntel,60,13338,,,,,,,,,,,,,,,,,,7,,,,,,,,,,,,0,1,1,1,1,,,,,,,,,,,,,,,,,,,,,,,,,,,,,,,
,,,,,,,,,,,,,,,,,,,,,,,,19,female,2020-11-19_14h21.40.492,torte-2b,2020.1.3,MacIntel,60,13338,,,,,,,,,,,,,,,,,,7,,,,,,,,,,,,0,2,2,2,1,,,,,,,,,,,,,,,,,,,,,,,,,,,,,,,
,,,,,,,,,,,,,,,,,,,,,,,,19,female,2020-11-19_14h21.40.492,torte-2b,2020.1.3,MacIntel,60,13338,,,,,,,,,,,,,,,,,,4,,,,,,,,,,,,0,3,3,3,1,,,,,,,,,,,,,,,,,,,,,,,,,,,,,,,
,,,,,,,,,,,,,,,,,,,,,,,,19,female,2020-11-19_14h21.40.492,torte-2b,2020.1.3,MacIntel,60,13338,,,,,,,,,,,,,,,,,,5,,,,,,,,,,,,0,4,4,4,1,,,,,,,,,,,,,,,,,,,,,,,,,,,,,,,
,,,,,,,,,,,,,,,,,,,,,,,,19,female,2020-11-19_14h21.40.492,torte-2b,2020.1.3,MacIntel,60,13338,,,,,,,,,,,,space,,,,,,4,1.149,,,,,,,,,,,0,5,5,5,1,,,,,,,,,,,,,,,,,,,,,,,,,,,,,,,
,,,,,,,,,,,,,,,,,,,,,,,,19,female,2020-11-19_14h21.40.492,torte-2b,2020.1.3,MacIntel,60,13338,,,,,,,,,,,,,,,,,,2,,,,,,,,,,,,0,6,6,6,1,,,,,,,,,,,,,,,,,,,,,,,,,,,,,,,
,,,,,,,,,,,,,,,,,,,,,,,,19,female,2020-11-19_14h21.40.492,torte-2b,2020.1.3,MacIntel,60,13338,,,,,,,,,,,,,,,,,,4,,,,,,,,,,,,0,7,7,7,1,,,,,,,,,,,,,,,,,,,,,,,,,,,,,,,
,,,,,,,,,,,,,,,,,,,,,,,,19,female,2020-11-19_14h21.40.492,torte-2b,2020.1.3,MacIntel,60,13338,,,,,,,,,,,,space,,,,,,2,0.545,,,,,,,,,,,0,8,8,8,1,,,,,,,,,,,,,,,,,,,,,,,,,,,,,,,
,,,,,,,,,,,,,,,,,,,,,,,,19,female,2020-11-19_14h21.40.492,torte-2b,2020.1.3,MacIntel,60,13338,,,,,,,,,,,,,,,,,,2,,,,,,,,,,,,0,9,9,9,1,,,,,,,,,,,,,,,,,,,,,,,,,,,,,,,
,,,,,,,,,,,,,,,,,,,,,,,,19,female,2020-11-19_14h21.40.492,torte-2b,2020.1.3,MacIntel,60,13338,,,,,,,,,,,,,,,,,,6,,,,,,,,,,,,0,10,10,10,1,,,,,,,,,,,,,,,,,,,,,,,,,,,,,,,
,,,,,,,,,,,,,,,,,,,,,,,,19,female,2020-11-19_14h21.40.492,torte-2b,2020.1.3,MacIntel,60,13338,,,,,,,,,,,,space,,,,,,2,0.447,,,,,,,,,,,0,11,11,11,1,,,,,,,,,,,,,,,,,,,,,,,,,,,,,,,
,,,,,,,,,,,,,,,,,,,,,,,,19,female,2020-11-19_14h21.40.492,torte-2b,2020.1.3,MacIntel,60,13338,,,,,,,,,,,,,,,,,,2,,,,,,,,,,,,0,12,12,12,1,,,,,,,,,,,,,,,,,,,,,,,,,,,,,,,
,,,,,,,,,,,,,,,,,,,,,,,,19,female,2020-11-19_14h21.40.492,torte-2b,2020.1.3,MacIntel,60,13338,,,,,,,,,,,,space,,,,,,2,1.658,,,,,,,,,,,0,13,13,13,1,,,,,,,,,,,,,,,,,,,,,,,,,,,,,,,
,,,,,,,,,,,,,,,,,,,,,,,,19,female,2020-11-19_14h21.40.492,torte-2b,2020.1.3,MacIntel,60,13338,,,,,,,,,,,,space,,,,,,2,0.522,,,,,,,,,,,0,14,14,14,1,,,,,,,,,,,,,,,,,,,,,,,,,,,,,,,
,,,,,,,,,,,,,,,,,,,,,,,,19,female,2020-11-19_14h21.40.492,torte-2b,2020.1.3,MacIntel,60,13338,,,,,,,,,,,,,,,,,,4,,,,,,,,,,,,0,15,15,15,1,,,,,,,,,,,,,,,,,,,,,,,,,,,,,,,
,,,,,,,,,,,,,,,,,,,,,,,,19,female,2020-11-19_14h21.40.492,torte-2b,2020.1.3,MacIntel,60,13338,,,,,,,,,,,,,,,,,,3,,,,,,,,,,,,0,16,16,16,1,,,,,,,,,,,,,,,,,,,,,,,,,,,,,,,
,,,,,,,,,,,,,,,,,,,,,,,,19,female,2020-11-19_14h21.40.492,torte-2b,2020.1.3,MacIntel,60,13338,,,,,,,,,,,,,,,,,,7,,,,,,,,,,,,0,17,17,17,1,,,,,,,,,,,,,,,,,,,,,,,,,,,,,,,
,,,,,,,,,,,,,,,,,,,,,,,,19,female,2020-11-19_14h21.40.492,torte-2b,2020.1.3,MacIntel,60,13338,,,,,,,,,,,,,,,,,,4,,,,,,,,,,,,0,18,18,18,1,,,,,,,,,,,,,,,,,,,,,,,,,,,,,,,
,,,,,,,,,,,,,,,,,,,,,,,,19,female,2020-11-19_14h21.40.492,torte-2b,2020.1.3,MacIntel,60,13338,,,,,,,,,,,,space,,,,,,7,0.698,,,,,,,,,,,0,19,19,19,1,,,,,,,,,,,,,,,,,,,,,,,,,,,,,,,
,,,,,,,,,,,,,,,,,,,,,,,,19,female,2020-11-19_14h21.40.492,torte-2b,2020.1.3,MacIntel,60,13338,,,,,,,,,,,,,,,,,,7,,,,,,,,,,,,0,20,20,20,1,,,,,,,,,,,,,,,,,,,,,,,,,,,,,,,
,,,,,,,,,,,,,,,,,,,,,,,,19,female,2020-11-19_14h21.40.492,torte-2b,2020.1.3,MacIntel,60,13338,,,,,,,,,,,,space,,,,,,7,0.884,,,,,,,,,,,0,21,21,21,1,,,,,,,,,,,,,,,,,,,,,,,,,,,,,,,
,,,,,,,,,,,,,,,,,,,,,,,,19,female,2020-11-19_14h21.40.492,torte-2b,2020.1.3,MacIntel,60,13338,,,,,,,,,,,,,,,,,,7,,,,,,,,,,,,0,22,22,22,1,,,,,,,,,,,,,,,,,,,,,,,,,,,,,,,
,,,,,,,,,,,,,,,,,,,,,,,,19,female,2020-11-19_14h21.40.492,torte-2b,2020.1.3,MacIntel,60,13338,,,,,,,,,,,,,,,,,,1,,,,,,,,,,,,0,23,23,23,1,,,,,,,,,,,,,,,,,,,,,,,,,,,,,,,
,,,,,,,,,,,,,,,,,,,,,,,,19,female,2020-11-19_14h21.40.492,torte-2b,2020.1.3,MacIntel,60,13338,,,,,,,,,,,,space,,,,,,7,0.763,,,,,,,,,,,0,24,24,24,1,,,,,,,,,,,,,,,,,,,,,,,,,,,,,,,
,,,,,,,,,,,,,,,,,,,,,,,,19,female,2020-11-19_14h21.40.492,torte-2b,2020.1.3,MacIntel,60,13338,,,,,,,,,,,,space,,,,,,1,0.413,,,,,,,,,,,0,25,25,25,1,,,,,,,,,,,,,,,,,,,,,,,,,,,,,,,
,,,,,,,,,,,,,,,,,,,,,,,,19,female,2020-11-19_14h21.40.492,torte-2b,2020.1.3,MacIntel,60,13338,,,,,,,,,,,,space,,,,,,7,0.512,,,,,,,,,,,0,26,26,26,1,,,,,,,,,,,,,,,,,,,,,,,,,,,,,,,
,,,,,,,,,,,,,,,,,,,,,,,,19,female,2020-11-19_14h21.40.492,torte-2b,2020.1.3,MacIntel,60,13338,,,,,,,,,,,,,,,,,,2,,,,,,,,,,,,0,27,27,27,1,,,,,,,,,,,,,,,,,,,,,,,,,,,,,,,
,,,,,,,,,,,,,,,,,,,,,,,,19,female,2020-11-19_14h21.40.492,torte-2b,2020.1.3,MacIntel,60,13338,,,,,,,,,,,,,,,,,,5,,,,,,,,,,,,0,28,28,28,1,,,,,,,,,,,,,,,,,,,,,,,,,,,,,,,
,,,,,,,,,,,,,,,,,,,,,,,,19,female,2020-11-19_14h21.40.492,torte-2b,2020.1.3,MacIntel,60,13338,,,,,,,,,,,,,,,,,,5,,,,,,,,,,,,0,29,29,29,1,,,,,,,,,,,,,,,,,,,,,,,,,,,,,,,
,,,,,,,,,,,,,,,,,,,,,,,,19,female,2020-11-19_14h21.40.492,torte-2b,2020.1.3,MacIntel,60,13338,,,,,,,,,,,,space,,,,,,5,0.446,,,,,,,,,,,0,30,30,30,1,,,,,,,,,,,,,,,,,,,,,,,,,,,,,,,
,,,,,,,,,,,,,,,,,,,,,,,,19,female,2020-11-19_14h21.40.492,torte-2b,2020.1.3,MacIntel,60,13338,,,,,,,,,,,,,,,,,,1,,,,,,,,,,,,0,31,31,31,1,,,,,,,,,,,,,,,,,,,,,,,,,,,,,,,
,,,,,,,,,,,,,,,,,,,,,,,,19,female,2020-11-19_14h21.40.492,torte-2b,2020.1.3,MacIntel,60,13338,,,,,,,,,,,,space,,,,,,5,1.648,,,,,,,,,,,0,32,32,32,1,,,,,,,,,,,,,,,,,,,,,,,,,,,,,,,
,,,,,,,,,,,,,,,,,,,,,,,,19,female,2020-11-19_14h21.40.492,torte-2b,2020.1.3,MacIntel,60,13338,,,,,,,,,,,,,,,,,,3,,,,,,,,,,,,0,33,33,33,1,,,,,,,,,,,,,,,,,,,,,,,,,,,,,,,
,,,,,,,,,,,,,,,,,,,,,,,,19,female,2020-11-19_14h21.40.492,torte-2b,2020.1.3,MacIntel,60,13338,,,,,,,,,,,,,,,,,,3,,,,,,,,,,,,0,34,34,34,1,,,,,,,,,,,,,,,,,,,,,,,,,,,,,,,
,,,,,,,,,,,,l,0.697,Correct!,,,,,,t2.png,t5.png,3,0.0000131,19,female,2020-11-19_14h21.40.492,torte-2b,2020.1.3,MacIntel,60,13338,space,1.506,,,,,,,,,,,,,,,,,,,,,,,,,,,,,,,,,space,15.669,0,0,0,66,1,,,,,,,,,,,,,,,,,,,,,,,,
,,,,,,,,,,,,a,0.621,Incorrect,,,,,,t5.png,t1.png,4,9.55E-11,19,female,2020-11-19_14h21.40.492,torte-2b,2020.1.3,MacIntel,60,13338,,,,,,,,,,,,,,,,,,,,,,,,,,,,,,,,,,,,,0,1,1,100,1,,,,,,,,,,,,,,,,,,,,,,,,
,,,,,,,,,,,,a,0.697,Correct!,,,,,,t3.png,t2.png,1,0.90855,19,female,2020-11-19_14h21.40.492,torte-2b,2020.1.3,MacIntel,60,13338,,,,,,,,,,,,,,,,,,,,,,,,,,,,,,,,,,,,,0,2,2,97,1,,,,,,,,,,,,,,,,,,,,,,,,
,,,,,,,,,,,,a,0.466,Correct!,,,,,,t2.png,t1.png,1,0.90025,19,female,2020-11-19_14h21.40.492,torte-2b,2020.1.3,MacIntel,60,13338,,,,,,,,,,,,,,,,,,,,,,,,,,,,,,,,,,,,,0,3,3,4,1,,,,,,,,,,,,,,,,,,,,,,,,
,,,,,,,,,,,,a,0.716,Correct!,,,,,,t4.png,t3.png,1,0.909,19,female,2020-11-19_14h21.40.492,torte-2b,2020.1.3,MacIntel,60,13338,,,,,,,,,,,,,,,,,,,,,,,,,,,,,,,,,,,,,0,4,4,20,1,,,,,,,,,,,,,,,,,,,,,,,,
,,,,,,,,,,,,a,0.45,Incorrect,,,,,,t5.png,t2.png,3,0.0000131,19,female,2020-11-19_14h21.40.492,torte-2b,2020.1.3,MacIntel,60,13338,,,,,,,,,,,,,,,,,,,,,,,,,,,,,,,,,,,,,0,5,5,91,1,,,,,,,,,,,,,,,,,,,,,,,,
,,,,,,,,,,,,l,1.307,Incorrect,,,,,,t5.png,t5.png,0,0.97829,19,female,2020-11-19_14h21.40.492,torte-2b,2020.1.3,MacIntel,60,13338,,,,,,,,,,,,,,,,,,,,,,,,,,,,,,,,,,,,,0,6,6,25,1,,,,,,,,,,,,,,,,,,,,,,,,
,,,,,,,,,,,,a,1.326,Incorrect,,,,,,t4.png,t2.png,2,0.0591,19,female,2020-11-19_14h21.40.492,torte-2b,2020.1.3,MacIntel,60,13338,,,,,,,,,,,,,,,,,,,,,,,,,,,,,,,,,,,,,0,7,7,36,1,,,,,,,,,,,,,,,,,,,,,,,,
,,,,,,,,,,,,l,0.742,Incorrect,,,,,,t1.png,t1.png,0,0.97829,19,female,2020-11-19_14h21.40.492,torte-2b,2020.1.3,MacIntel,60,13338,,,,,,,,,,,,,,,,,,,,,,,,,,,,,,,,,,,,,0,8,8,9,1,,,,,,,,,,,,,,,,,,,,,,,,
,,,,,,,,,,,,l,1.073,Incorrect,,,,,,t2.png,t2.png,0,0.98115,19,female,2020-11-19_14h21.40.492,torte-2b,2020.1.3,MacIntel,60,13338,,,,,,,,,,,,,,,,,,,,,,,,,,,,,,,,,,,,,0,9,9,57,1,,,,,,,,,,,,,,,,,,,,,,,,
,,,,,,,,,,,,a,0.952,Correct!,,,,,,t1.png,t1.png,0,0.97829,19,female,2020-11-19_14h21.40.492,torte-2b,2020.1.3,MacIntel,60,13338,,,,,,,,,,,,,,,,,,,,,,,,,,,,,,,,,,,,,0,10,10,78,1,,,,,,,,,,,,,,,,,,,,,,,,
,,,,,,,,,,,,l,0.592,Correct!,,,,,,t2.png,t5.png,3,0.0000131,19,female,2020-11-19_14h21.40.492,torte-2b,2020.1.3,MacIntel,60,13338,,,,,,,,,,,,,,,,,,,,,,,,,,,,,,,,,,,,,0,11,11,8,1,,,,,,,,,,,,,,,,,,,,,,,,
,,,,,,,,,,,,l,0.558,Incorrect,,,,,,t4.png,t5.png,1,0.90025,19,female,2020-11-19_14h21.40.492,torte-2b,2020.1.3,MacIntel,60,13338,,,,,,,,,,,,,,,,,,,,,,,,,,,,,,,,,,,,,0,12,12,47,1,,,,,,,,,,,,,,,,,,,,,,,,
,,,,,,,,,,,,a,0.371,Incorrect,,,,,,t5.png,t3.png,2,0.0565,19,female,2020-11-19_14h21.40.492,torte-2b,2020.1.3,MacIntel,60,13338,,,,,,,,,,,,,,,,,,,,,,,,,,,,,,,,,,,,,0,13,13,39,1,,,,,,,,,,,,,,,,,,,,,,,,
,,,,,,,,,,,,a,0.452,Correct!,,,,,,t2.png,t1.png,1,0.90025,19,female,2020-11-19_14h21.40.492,torte-2b,2020.1.3,MacIntel,60,13338,,,,,,,,,,,,,,,,,,,,,,,,,,,,,,,,,,,,,0,14,14,19,1,,,,,,,,,,,,,,,,,,,,,,,,
,,,,,,,,,,,,l,0.4,Incorrect,,,,,,t5.png,t5.png,0,0.97829,19,female,2020-11-19_14h21.40.492,torte-2b,2020.1.3,MacIntel,60,13338,,,,,,,,,,,,,,,,,,,,,,,,,,,,,,,,,,,,,0,15,15,70,1,,,,,,,,,,,,,,,,,,,,,,,,
,,,,,,,,,,,,l,0.382,Correct!,,,,,,t1.png,t3.png,2,0.056466,19,female,2020-11-19_14h21.40.492,torte-2b,2020.1.3,MacIntel,60,13338,,,,,,,,,,,,,,,,,,,,,,,,,,,,,,,,,,,,,0,16,16,60,1,,,,,,,,,,,,,,,,,,,,,,,,
,,,,,,,,,,,,a,0.616,Correct!,,,,,,t3.png,t2.png,1,0.909,19,female,2020-11-19_14h21.40.492,torte-2b,2020.1.3,MacIntel,60,13338,,,,,,,,,,,,,,,,,,,,,,,,,,,,,,,,,,,,,0,17,17,3,1,,,,,,,,,,,,,,,,,,,,,,,,
,,,,,,,,,,,,l,0.908,Incorrect,,,,,,t2.png,t4.png,2,0.059078,19,female,2020-11-19_14h21.40.492,torte-2b,2020.1.3,MacIntel,60,13338,,,,,,,,,,,,,,,,,,,,,,,,,,,,,,,,,,,,,0,18,18,37,1,,,,,,,,,,,,,,,,,,,,,,,,
,,,,,,,,,,,,l,0.598,Incorrect,,,,,,t4.png,t5.png,1,0.9,19,female,2020-11-19_14h21.40.492,torte-2b,2020.1.3,MacIntel,60,13338,,,,,,,,,,,,,,,,,,,,,,,,,,,,,,,,,,,,,0,19,19,115,1,,,,,,,,,,,,,,,,,,,,,,,,
,,,,,,,,,,,,a,0.383,Incorrect,,,,,,t4.png,t1.png,3,0.0000131,19,female,2020-11-19_14h21.40.492,torte-2b,2020.1.3,MacIntel,60,13338,,,,,,,,,,,,,,,,,,,,,,,,,,,,,,,,,,,,,0,20,20,93,1,,,,,,,,,,,,,,,,,,,,,,,,
,,,,,,,,,,,,a,1.131,Correct!,,,,,,t5.png,t4.png,1,0.90025,19,female,2020-11-19_14h21.40.492,torte-2b,2020.1.3,MacIntel,60,13338,,,,,,,,,,,,,,,,,,,,,,,,,,,,,,,,,,,,,0,21,21,34,1,,,,,,,,,,,,,,,,,,,,,,,,
,,,,,,,,,,,,a,0.482,Incorrect,,,,,,t4.png,t1.png,3,0.0000131,19,female,2020-11-19_14h21.40.492,torte-2b,2020.1.3,MacIntel,60,13338,,,,,,,,,,,,,,,,,,,,,,,,,,,,,,,,,,,,,0,22,22,42,1,,,,,,,,,,,,,,,,,,,,,,,,
,,,,,,,,,,,,a,0.565,Correct!,,,,,,t2.png,t2.png,0,0.98115,19,female,2020-11-19_14h21.40.492,torte-2b,2020.1.3,MacIntel,60,13338,,,,,,,,,,,,,,,,,,,,,,,,,,,,,,,,,,,,,0,23,23,59,1,,,,,,,,,,,,,,,,,,,,,,,,
,,,,,,,,,,,,l,0.666,Incorrect,,,,,,t1.png,t2.png,1,0.90025,19,female,2020-11-19_14h21.40.492,torte-2b,2020.1.3,MacIntel,60,13338,,,,,,,,,,,,,,,,,,,,,,,,,,,,,,,,,,,,,0,24,24,112,1,,,,,,,,,,,,,,,,,,,,,,,,
,,,,,,,,,,,,a,0.348,Correct!,,,,,,t5.png,t4.png,1,0.9,19,female,2020-11-19_14h21.40.492,torte-2b,2020.1.3,MacIntel,60,13338,,,,,,,,,,,,,,,,,,,,,,,,,,,,,,,,,,,,,0,25,25,76,1,,,,,,,,,,,,,,,,,,,,,,,,
,,,,,,,,,,,,l,0.464,Correct!,,,,,,t1.png,t2.png,1,0.90025,19,female,2020-11-19_14h21.40.492,torte-2b,2020.1.3,MacIntel,60,13338,,,,,,,,,,,,,,,,,,,,,,,,,,,,,,,,,,,,,0,26,26,72,1,,,,,,,,,,,,,,,,,,,,,,,,
,,,,,,,,,,,,l,0.373,Correct!,,,,,,t1.png,t5.png,4,9.55E-11,19,female,2020-11-19_14h21.40.492,torte-2b,2020.1.3,MacIntel,60,13338,,,,,,,,,,,,,,,,,,,,,,,,,,,,,,,,,,,,,0,27,27,85,1,,,,,,,,,,,,,,,,,,,,,,,,
,,,,,,,,,,,,l,0.582,Incorrect,,,,,,t4.png,t4.png,0,0.98115,19,female,2020-11-19_14h21.40.492,torte-2b,2020.1.3,MacIntel,60,13338,,,,,,,,,,,,,,,,,,,,,,,,,,,,,,,,,,,,,0,28,28,80,1,,,,,,,,,,,,,,,,,,,,,,,,
,,,,,,,,,,,,a,0.415,Incorrect,,,,,,t5.png,t3.png,2,0.056466,19,female,2020-11-19_14h21.40.492,torte-2b,2020.1.3,MacIntel,60,13338,,,,,,,,,,,,,,,,,,,,,,,,,,,,,,,,,,,,,0,29,29,108,1,,,,,,,,,,,,,,,,,,,,,,,,
,,,,,,,,,,,,l,0.565,Correct!,,,,,,t2.png,t3.png,1,0.90855,19,female,2020-11-19_14h21.40.492,torte-2b,2020.1.3,MacIntel,60,13338,,,,,,,,,,,,,,,,,,,,,,,,,,,,,,,,,,,,,0,30,30,68,1,,,,,,,,,,,,,,,,,,,,,,,,
,,,,,,,,,,,,l,0.383,Incorrect,,,,,,t4.png,t4.png,0,0.98115,19,female,2020-11-19_14h21.40.492,torte-2b,2020.1.3,MacIntel,60,13338,,,,,,,,,,,,,,,,,,,,,,,,,,,,,,,,,,,,,0,31,31,79,1,,,,,,,,,,,,,,,,,,,,,,,,
,,,,,,,,,,,,l,0.425,Correct!,,,,,,t3.png,t5.png,2,0.056466,19,female,2020-11-19_14h21.40.492,torte-2b,2020.1.3,MacIntel,60,13338,,,,,,,,,,,,,,,,,,,,,,,,,,,,,,,,,,,,,0,32,32,44,1,,,,,,,,,,,,,,,,,,,,,,,,
,,,,,,,,,,,,a,0.583,Incorrect,,,,,,t5.png,t3.png,2,0.056466,19,female,2020-11-19_14h21.40.492,torte-2b,2020.1.3,MacIntel,60,13338,,,,,,,,,,,,,,,,,,,,,,,,,,,,,,,,,,,,,0,33,33,56,1,,,,,,,,,,,,,,,,,,,,,,,,
,,,,,,,,,,,,l,0.515,Incorrect,,,,,,t2.png,t3.png,1,0.909,19,female,2020-11-19_14h21.40.492,torte-2b,2020.1.3,MacIntel,60,13338,,,,,,,,,,,,,,,,,,,,,,,,,,,,,,,,,,,,,0,34,34,74,1,,,,,,,,,,,,,,,,,,,,,,,,
,,,,,,,,,,,,l,0.566,Incorrect,,,,,,t2.png,t3.png,1,0.90855,19,female,2020-11-19_14h21.40.492,torte-2b,2020.1.3,MacIntel,60,13338,,,,,,,,,,,,,,,,,,,,,,,,,,,,,,,,,,,,,0,35,35,65,1,,,,,,,,,,,,,,,,,,,,,,,,
,,,,,,,,,,,,a,0.649,Correct!,,,,,,t4.png,t3.png,1,0.90855,19,female,2020-11-19_14h21.40.492,torte-2b,2020.1.3,MacIntel,60,13338,,,,,,,,,,,,,,,,,,,,,,,,,,,,,,,,,,,,,0,36,36,35,1,,,,,,,,,,,,,,,,,,,,,,,,
,,,,,,,,,,,,l,0.466,Correct!,,,,,,t5.png,t1.png,4,9.55E-11,19,female,2020-11-19_14h21.40.492,torte-2b,2020.1.3,MacIntel,60,13338,,,,,,,,,,,,,,,,,,,,,,,,,,,,,,,,,,,,,0,37,37,71,1,,,,,,,,,,,,,,,,,,,,,,,,
,,,,,,,,,,,,l,0.345,Incorrect,,,,,,t3.png,t4.png,1,0.90855,19,female,2020-11-19_14h21.40.492,torte-2b,2020.1.3,MacIntel,60,13338,,,,,,,,,,,,,,,,,,,,,,,,,,,,,,,,,,,,,0,38,38,84,1,,,,,,,,,,,,,,,,,,,,,,,,
,,,,,,,,,,,,l,0.43,Correct!,,,,,,t5.png,t1.png,4,9.55E-11,19,female,2020-11-19_14h21.40.492,torte-2b,2020.1.3,MacIntel,60,13338,,,,,,,,,,,,,,,,,,,,,,,,,,,,,,,,,,,,,0,39,39,43,1,,,,,,,,,,,,,,,,,,,,,,,,
,,,,,,,,,,,,a,0.456,Correct!,,,,,,t3.png,t2.png,1,0.90855,19,female,2020-11-19_14h21.40.492,torte-2b,2020.1.3,MacIntel,60,13338,,,,,,,,,,,,,,,,,,,,,,,,,,,,,,,,,,,,,0,40,40,18,1,,,,,,,,,,,,,,,,,,,,,,,,
,,,,,,,,,,,,l,0.606,Incorrect,,,,,,t4.png,t4.png,0,0.98115,19,female,2020-11-19_14h21.40.492,torte-2b,2020.1.3,MacIntel,60,13338,,,,,,,,,,,,,,,,,,,,,,,,,,,,,,,,,,,,,0,41,41,90,1,,,,,,,,,,,,,,,,,,,,,,,,
,,,,,,,,,,,,a,0.46,Incorrect,,,,,,t4.png,t2.png,2,0.059078,19,female,2020-11-19_14h21.40.492,torte-2b,2020.1.3,MacIntel,60,13338,,,,,,,,,,,,,,,,,,,,,,,,,,,,,,,,,,,,,0,42,42,110,1,,,,,,,,,,,,,,,,,,,,,,,,
,,,,,,,,,,,,a,0.75,Correct!,,,,,,t3.png,t2.png,1,0.909,19,female,2020-11-19_14h21.40.492,torte-2b,2020.1.3,MacIntel,60,13338,,,,,,,,,,,,,,,,,,,,,,,,,,,,,,,,,,,,,0,43,43,23,1,,,,,,,,,,,,,,,,,,,,,,,,
,,,,,,,,,,,,a,0.582,Incorrect,,,,,,t3.png,t1.png,2,0.056466,19,female,2020-11-19_14h21.40.492,torte-2b,2020.1.3,MacIntel,60,13338,,,,,,,,,,,,,,,,,,,,,,,,,,,,,,,,,,,,,0,44,44,0,1,,,,,,,,,,,,,,,,,,,,,,,,
,,,,,,,,,,,,l,0.499,Correct!,,,,,,t3.png,t5.png,2,0.056466,19,female,2020-11-19_14h21.40.492,torte-2b,2020.1.3,MacIntel,60,13338,,,,,,,,,,,,,,,,,,,,,,,,,,,,,,,,,,,,,0,45,45,6,1,,,,,,,,,,,,,,,,,,,,,,,,
,,,,,,,,,,,,a,0.566,Incorrect,,,,,,t3.png,t1.png,2,0.0565,19,female,2020-11-19_14h21.40.492,torte-2b,2020.1.3,MacIntel,60,13338,,,,,,,,,,,,,,,,,,,,,,,,,,,,,,,,,,,,,0,46,46,31,1,,,,,,,,,,,,,,,,,,,,,,,,
,,,,,,,,,,,,l,0.667,Correct!,,,,,,t1.png,t4.png,3,0.0000131,19,female,2020-11-19_14h21.40.492,torte-2b,2020.1.3,MacIntel,60,13338,,,,,,,,,,,,,,,,,,,,,,,,,,,,,,,,,,,,,0,47,47,92,1,,,,,,,,,,,,,,,,,,,,,,,,
,,,,,,,,,,,,a,0.391,Incorrect,,,,,,t5.png,t2.png,3,0.0000131,19,female,2020-11-19_14h21.40.492,torte-2b,2020.1.3,MacIntel,60,13338,,,,,,,,,,,,,,,,,,,,,,,,,,,,,,,,,,,,,0,48,48,116,1,,,,,,,,,,,,,,,,,,,,,,,,
,,,,,,,,,,,,a,0.393,Incorrect,,,,,,t5.png,t2.png,3,0.0000131,19,female,2020-11-19_14h21.40.492,torte-2b,2020.1.3,MacIntel,60,13338,,,,,,,,,,,,,,,,,,,,,,,,,,,,,,,,,,,,,0,49,49,51,1,,,,,,,,,,,,,,,,,,,,,,,,
,,,,,,,,,,,,a,0.483,Correct!,,,,,,t2.png,t1.png,1,0.90025,19,female,2020-11-19_14h21.40.492,torte-2b,2020.1.3,MacIntel,60,13338,,,,,,,,,,,,,,,,,,,,,,,,,,,,,,,,,,,,,0,50,50,5,1,,,,,,,,,,,,,,,,,,,,,,,,
,,,,,,,,,,,,l,0.459,Correct!,,,,,,t2.png,t4.png,2,0.059078,19,female,2020-11-19_14h21.40.492,torte-2b,2020.1.3,MacIntel,60,13338,,,,,,,,,,,,,,,,,,,,,,,,,,,,,,,,,,,,,0,51,51,24,1,,,,,,,,,,,,,,,,,,,,,,,,
,,,,,,,,,,,,a,0.333,Incorrect,,,,,,t4.png,t2.png,2,0.059078,19,female,2020-11-19_14h21.40.492,torte-2b,2020.1.3,MacIntel,60,13338,,,,,,,,,,,,,,,,,,,,,,,,,,,,,,,,,,,,,0,52,52,109,1,,,,,,,,,,,,,,,,,,,,,,,,
,,,,,,,,,,,,a,0.518,Correct!,,,,,,t5.png,t4.png,1,0.9,19,female,2020-11-19_14h21.40.492,torte-2b,2020.1.3,MacIntel,60,13338,,,,,,,,,,,,,,,,,,,,,,,,,,,,,,,,,,,,,0,53,53,49,1,,,,,,,,,,,,,,,,,,,,,,,,
,,,,,,,,,,,,l,0.417,Correct!,,,,,,t1.png,t5.png,4,9.55E-11,19,female,2020-11-19_14h21.40.492,torte-2b,2020.1.3,MacIntel,60,13338,,,,,,,,,,,,,,,,,,,,,,,,,,,,,,,,,,,,,0,54,54,16,1,,,,,,,,,,,,,,,,,,,,,,,,
,,,,,,,,,,,,a,0.483,Correct!,,,,,,t2.png,t2.png,0,0.981,19,female,2020-11-19_14h21.40.492,torte-2b,2020.1.3,MacIntel,60,13338,,,,,,,,,,,,,,,,,,,,,,,,,,,,,,,,,,,,,0,55,55,101,1,,,,,,,,,,,,,,,,,,,,,,,,
,,,,,,,,,,,,l,0.386,Correct!,,,,,,t1.png,t5.png,4,9.55E-11,19,female,2020-11-19_14h21.40.492,torte-2b,2020.1.3,MacIntel,60,13338,,,,,,,,,,,,,,,,,,,,,,,,,,,,,,,,,,,,,0,56,56,41,1,,,,,,,,,,,,,,,,,,,,,,,,
,,,,,,,,,,,,a,0.427,Correct!,,,,,,t1.png,t1.png,0,0.978,19,female,2020-11-19_14h21.40.492,torte-2b,2020.1.3,MacIntel,60,13338,,,,,,,,,,,,,,,,,,,,,,,,,,,,,,,,,,,,,0,57,57,54,1,,,,,,,,,,,,,,,,,,,,,,,,
,,,,,,,,,,,,l,0.356,Correct!,,,,,,t1.png,t4.png,3,0.0000131,19,female,2020-11-19_14h21.40.492,torte-2b,2020.1.3,MacIntel,60,13338,,,,,,,,,,,,,,,,,,,,,,,,,,,,,,,,,,,,,0,58,58,107,1,,,,,,,,,,,,,,,,,,,,,,,,
,,,,,,,,,,,,l,0.634,Correct!,,,,,,t3.png,t5.png,2,0.0565,19,female,2020-11-19_14h21.40.492,torte-2b,2020.1.3,MacIntel,60,13338,,,,,,,,,,,,,,,,,,,,,,,,,,,,,,,,,,,,,0,59,59,83,1,,,,,,,,,,,,,,,,,,,,,,,,
,,,,,,,,,,,,l,0.419,Incorrect,,,,,,t3.png,t4.png,1,0.90855,19,female,2020-11-19_14h21.40.492,torte-2b,2020.1.3,MacIntel,60,13338,,,,,,,,,,,,,,,,,,,,,,,,,,,,,,,,,,,,,0,60,60,96,1,,,,,,,,,,,,,,,,,,,,,,,,
,,,,,,,,,,,,l,0.376,Correct!,,,,,,t3.png,t5.png,2,0.0565,19,female,2020-11-19_14h21.40.492,torte-2b,2020.1.3,MacIntel,60,13338,,,,,,,,,,,,,,,,,,,,,,,,,,,,,,,,,,,,,0,61,61,30,1,,,,,,,,,,,,,,,,,,,,,,,,
,,,,,,,,,,,,l,0.518,Incorrect,,,,,,t1.png,t1.png,0,0.978,19,female,2020-11-19_14h21.40.492,torte-2b,2020.1.3,MacIntel,60,13338,,,,,,,,,,,,,,,,,,,,,,,,,,,,,,,,,,,,,0,62,62,28,1,,,,,,,,,,,,,,,,,,,,,,,,
,,,,,,,,,,,,a,0.406,Incorrect,,,,,,t5.png,t1.png,4,9.55E-11,19,female,2020-11-19_14h21.40.492,torte-2b,2020.1.3,MacIntel,60,13338,,,,,,,,,,,,,,,,,,,,,,,,,,,,,,,,,,,,,0,63,63,102,1,,,,,,,,,,,,,,,,,,,,,,,,
,,,,,,,,,,,,l,0.358,Correct!,,,,,,t1.png,t5.png,4,9.55E-11,19,female,2020-11-19_14h21.40.492,torte-2b,2020.1.3,MacIntel,60,13338,,,,,,,,,,,,,,,,,,,,,,,,,,,,,,,,,,,,,0,64,64,55,1,,,,,,,,,,,,,,,,,,,,,,,,
,,,,,,,,,,,,a,0.442,Incorrect,,,,,,t3.png,t1.png,2,0.056466,19,female,2020-11-19_14h21.40.492,torte-2b,2020.1.3,MacIntel,60,13338,,,,,,,,,,,,,,,,,,,,,,,,,,,,,,,,,,,,,0,65,65,29,1,,,,,,,,,,,,,,,,,,,,,,,,
,,,,,,,,,,,,a,0.739,Correct!,,,,,,t4.png,t3.png,1,0.90855,19,female,2020-11-19_14h21.40.492,torte-2b,2020.1.3,MacIntel,60,13338,,,,,,,,,,,,,,,,,,,,,,,,,,,,,,,,,,,,,0,66,66,75,1,,,,,,,,,,,,,,,,,,,,,,,,
,,,,,,,,,,,,l,0.419,Incorrect,,,,,,t3.png,t4.png,1,0.909,19,female,2020-11-19_14h21.40.492,torte-2b,2020.1.3,MacIntel,60,13338,,,,,,,,,,,,,,,,,,,,,,,,,,,,,,,,,,,,,0,67,67,106,1,,,,,,,,,,,,,,,,,,,,,,,,
,,,,,,,,,,,,l,0.485,Incorrect,,,,,,t4.png,t5.png,1,0.90025,19,female,2020-11-19_14h21.40.492,torte-2b,2020.1.3,MacIntel,60,13338,,,,,,,,,,,,,,,,,,,,,,,,,,,,,,,,,,,,,0,68,68,58,1,,,,,,,,,,,,,,,,,,,,,,,,
,,,,,,,,,,,,l,0.339,Correct!,,,,,,t2.png,t5.png,3,0.0000131,19,female,2020-11-19_14h21.40.492,torte-2b,2020.1.3,MacIntel,60,13338,,,,,,,,,,,,,,,,,,,,,,,,,,,,,,,,,,,,,0,69,69,104,1,,,,,,,,,,,,,,,,,,,,,,,,
,,,,,,,,,,,,l,0.676,Incorrect,,,,,,t3.png,t4.png,1,0.909,19,female,2020-11-19_14h21.40.492,torte-2b,2020.1.3,MacIntel,60,13338,,,,,,,,,,,,,,,,,,,,,,,,,,,,,,,,,,,,,0,70,70,82,1,,,,,,,,,,,,,,,,,,,,,,,,
,,,,,,,,,,,,l,0.349,Correct!,,,,,,t1.png,t4.png,3,0.0000131,19,female,2020-11-19_14h21.40.492,torte-2b,2020.1.3,MacIntel,60,13338,,,,,,,,,,,,,,,,,,,,,,,,,,,,,,,,,,,,,0,71,71,50,1,,,,,,,,,,,,,,,,,,,,,,,,
,,,,,,,,,,,,l,0.918,Incorrect,,,,,,t1.png,t1.png,0,0.97829,19,female,2020-11-19_14h21.40.492,torte-2b,2020.1.3,MacIntel,60,13338,,,,,,,,,,,,,,,,,,,,,,,,,,,,,,,,,,,,,0,72,72,67,1,,,,,,,,,,,,,,,,,,,,,,,,
,,,,,,,,,,,,l,0.434,Correct!,,,,,,t1.png,t3.png,2,0.056466,19,female,2020-11-19_14h21.40.492,torte-2b,2020.1.3,MacIntel,60,13338,,,,,,,,,,,,,,,,,,,,,,,,,,,,,,,,,,,,,0,73,73,69,1,,,,,,,,,,,,,,,,,,,,,,,,
,,,,,,,,,,,,l,0.341,Correct!,,,,,,t1.png,t3.png,2,0.056466,19,female,2020-11-19_14h21.40.492,torte-2b,2020.1.3,MacIntel,60,13338,,,,,,,,,,,,,,,,,,,,,,,,,,,,,,,,,,,,,0,74,74,63,1,,,,,,,,,,,,,,,,,,,,,,,,
,,,,,,,,,,,,l,0.458,Incorrect,,,,,,t4.png,t5.png,1,0.90025,19,female,2020-11-19_14h21.40.492,torte-2b,2020.1.3,MacIntel,60,13338,,,,,,,,,,,,,,,,,,,,,,,,,,,,,,,,,,,,,0,75,75,113,1,,,,,,,,,,,,,,,,,,,,,,,,
,,,,,,,,,,,,l,0.299,Correct!,,,,,,t2.png,t5.png,3,0.0000131,19,female,2020-11-19_14h21.40.492,torte-2b,2020.1.3,MacIntel,60,13338,,,,,,,,,,,,,,,,,,,,,,,,,,,,,,,,,,,,,0,76,76,40,1,,,,,,,,,,,,,,,,,,,,,,,,
,,,,,,,,,,,,l,0.416,Incorrect,,,,,,t2.png,t3.png,1,0.90855,19,female,2020-11-19_14h21.40.492,torte-2b,2020.1.3,MacIntel,60,13338,,,,,,,,,,,,,,,,,,,,,,,,,,,,,,,,,,,,,0,77,77,111,1,,,,,,,,,,,,,,,,,,,,,,,,
,,,,,,,,,,,,a,0.615,Correct!,,,,,,t2.png,t1.png,1,0.90025,19,female,2020-11-19_14h21.40.492,torte-2b,2020.1.3,MacIntel,60,13338,,,,,,,,,,,,,,,,,,,,,,,,,,,,,,,,,,,,,0,78,78,62,1,,,,,,,,,,,,,,,,,,,,,,,,
,,,,,,,,,,,,l,0.466,Incorrect,,,,,,t4.png,t4.png,0,0.98115,19,female,2020-11-19_14h21.40.492,torte-2b,2020.1.3,MacIntel,60,13338,,,,,,,,,,,,,,,,,,,,,,,,,,,,,,,,,,,,,0,79,79,52,1,,,,,,,,,,,,,,,,,,,,,,,,
,,,,,,,,,,,,l,0.636,Correct!,,,,,,t2.png,t4.png,2,0.0591,19,female,2020-11-19_14h21.40.492,torte-2b,2020.1.3,MacIntel,60,13338,,,,,,,,,,,,,,,,,,,,,,,,,,,,,,,,,,,,,0,80,80,15,1,,,,,,,,,,,,,,,,,,,,,,,,
,,,,,,,,,,,,a,0.65,Correct!,,,,,,t5.png,t4.png,1,0.90025,19,female,2020-11-19_14h21.40.492,torte-2b,2020.1.3,MacIntel,60,13338,,,,,,,,,,,,,,,,,,,,,,,,,,,,,,,,,,,,,0,81,81,26,1,,,,,,,,,,,,,,,,,,,,,,,,
,,,,,,,,,,,,a,0.448,Incorrect,,,,,,t3.png,t1.png,2,0.056466,19,female,2020-11-19_14h21.40.492,torte-2b,2020.1.3,MacIntel,60,13338,,,,,,,,,,,,,,,,,,,,,,,,,,,,,,,,,,,,,0,82,82,64,1,,,,,,,,,,,,,,,,,,,,,,,,
,,,,,,,,,,,,a,0.55,Incorrect,,,,,,t5.png,t3.png,2,0.056466,19,female,2020-11-19_14h21.40.492,torte-2b,2020.1.3,MacIntel,60,13338,,,,,,,,,,,,,,,,,,,,,,,,,,,,,,,,,,,,,0,83,83,38,1,,,,,,,,,,,,,,,,,,,,,,,,
,,,,,,,,,,,,a,0.382,Incorrect,,,,,,t4.png,t1.png,3,0.0000131,19,female,2020-11-19_14h21.40.492,torte-2b,2020.1.3,MacIntel,60,13338,,,,,,,,,,,,,,,,,,,,,,,,,,,,,,,,,,,,,0,84,84,48,1,,,,,,,,,,,,,,,,,,,,,,,,
,,,,,,,,,,,,l,0.482,Correct!,,,,,,t5.png,t5.png,0,0.97829,19,female,2020-11-19_14h21.40.492,torte-2b,2020.1.3,MacIntel,60,13338,,,,,,,,,,,,,,,,,,,,,,,,,,,,,,,,,,,,,0,85,85,94,1,,,,,,,,,,,,,,,,,,,,,,,,
,,,,,,,,,,,,a,0.366,Incorrect,,,,,,t5.png,t2.png,3,0.0000131,19,female,2020-11-19_14h21.40.492,torte-2b,2020.1.3,MacIntel,60,13338,,,,,,,,,,,,,,,,,,,,,,,,,,,,,,,,,,,,,0,86,86,119,1,,,,,,,,,,,,,,,,,,,,,,,,
,,,,,,,,,,,,l,0.374,Correct!,,,,,,t1.png,t5.png,4,9.55E-11,19,female,2020-11-19_14h21.40.492,torte-2b,2020.1.3,MacIntel,60,13338,,,,,,,,,,,,,,,,,,,,,,,,,,,,,,,,,,,,,0,87,87,12,1,,,,,,,,,,,,,,,,,,,,,,,,
,,,,,,,,,,,,a,0.35,Incorrect,,,,,,t5.png,t1.png,4,9.55E-11,19,female,2020-11-19_14h21.40.492,torte-2b,2020.1.3,MacIntel,60,13338,,,,,,,,,,,,,,,,,,,,,,,,,,,,,,,,,,,,,0,88,88,22,1,,,,,,,,,,,,,,,,,,,,,,,,
,,,,,,,,,,,,a,0.524,Incorrect,,,,,,t4.png,t1.png,3,0.0000131,19,female,2020-11-19_14h21.40.492,torte-2b,2020.1.3,MacIntel,60,13338,,,,,,,,,,,,,,,,,,,,,,,,,,,,,,,,,,,,,0,89,89,13,1,,,,,,,,,,,,,,,,,,,,,,,,
,,,,,,,,,,,,a,0.419,Incorrect,,,,,,t3.png,t5.png,2,0.056466,19,female,2020-11-19_14h21.40.492,torte-2b,2020.1.3,MacIntel,60,13338,,,,,,,,,,,,,,,,,,,,,,,,,,,,,,,,,,,,,0,90,90,14,1,,,,,,,,,,,,,,,,,,,,,,,,
,,,,,,,,,,,,l,0.581,Correct!,,,,,,t2.png,t4.png,2,0.059078,19,female,2020-11-19_14h21.40.492,torte-2b,2020.1.3,MacIntel,60,13338,,,,,,,,,,,,,,,,,,,,,,,,,,,,,,,,,,,,,0,91,91,77,1,,,,,,,,,,,,,,,,,,,,,,,,
,,,,,,,,,,,,l,0.683,Incorrect,,,,,,t1.png,t2.png,1,0.90025,19,female,2020-11-19_14h21.40.492,torte-2b,2020.1.3,MacIntel,60,13338,,,,,,,,,,,,,,,,,,,,,,,,,,,,,,,,,,,,,0,92,92,33,1,,,,,,,,,,,,,,,,,,,,,,,,
,,,,,,,,,,,,a,0.682,Correct!,,,,,,t5.png,t5.png,0,0.978,19,female,2020-11-19_14h21.40.492,torte-2b,2020.1.3,MacIntel,60,13338,,,,,,,,,,,,,,,,,,,,,,,,,,,,,,,,,,,,,0,93,93,117,1,,,,,,,,,,,,,,,,,,,,,,,,
,,,,,,,,,,,,l,0.822,Incorrect,,,,,,t1.png,t2.png,1,0.9,19,female,2020-11-19_14h21.40.492,torte-2b,2020.1.3,MacIntel,60,13338,,,,,,,,,,,,,,,,,,,,,,,,,,,,,,,,,,,,,0,94,94,1,1,,,,,,,,,,,,,,,,,,,,,,,,
,,,,,,,,,,,,a,0.756,Incorrect,,,,,,t5.png,t3.png,2,0.056466,19,female,2020-11-19_14h21.40.492,torte-2b,2020.1.3,MacIntel,60,13338,,,,,,,,,,,,,,,,,,,,,,,,,,,,,,,,,,,,,0,95,95,114,1,,,,,,,,,,,,,,,,,,,,,,,,
,,,,,,,,,,,,a,0.813,Incorrect,,,,,,t3.png,t1.png,2,0.056466,19,female,2020-11-19_14h21.40.492,torte-2b,2020.1.3,MacIntel,60,13338,,,,,,,,,,,,,,,,,,,,,,,,,,,,,,,,,,,,,0,96,96,32,1,,,,,,,,,,,,,,,,,,,,,,,,
,,,,,,,,,,,,l,0.664,Incorrect,,,,,,t1.png,t2.png,1,0.90025,19,female,2020-11-19_14h21.40.492,torte-2b,2020.1.3,MacIntel,60,13338,,,,,,,,,,,,,,,,,,,,,,,,,,,,,,,,,,,,,0,97,97,105,1,,,,,,,,,,,,,,,,,,,,,,,,
,,,,,,,,,,,,l,0.772,Incorrect,,,,,,t4.png,t4.png,0,0.98115,19,female,2020-11-19_14h21.40.492,torte-2b,2020.1.3,MacIntel,60,13338,,,,,,,,,,,,,,,,,,,,,,,,,,,,,,,,,,,,,0,98,98,21,1,,,,,,,,,,,,,,,,,,,,,,,,
,,,,,,,,,,,,l,0.783,Correct!,,,,,,t2.png,t5.png,3,0.0000131,19,female,2020-11-19_14h21.40.492,torte-2b,2020.1.3,MacIntel,60,13338,,,,,,,,,,,,,,,,,,,,,,,,,,,,,,,,,,,,,0,99,99,95,1,,,,,,,,,,,,,,,,,,,,,,,,
,,,,,,,,,,,,l,0.72,Correct!,,,,,,t3.png,t4.png,1,0.909,19,female,2020-11-19_14h21.40.492,torte-2b,2020.1.3,MacIntel,60,13338,,,,,,,,,,,,,,,,,,,,,,,,,,,,,,,,,,,,,0,100,100,89,1,,,,,,,,,,,,,,,,,,,,,,,,
,,,,,,,,,,,,l,0.598,Correct!,,,,,,t1.png,t3.png,2,0.056466,19,female,2020-11-19_14h21.40.492,torte-2b,2020.1.3,MacIntel,60,13338,,,,,,,,,,,,,,,,,,,,,,,,,,,,,,,,,,,,,0,101,101,87,1,,,,,,,,,,,,,,,,,,,,,,,,
,,,,,,,,,,,,l,0.751,Incorrect,,,,,,t5.png,t5.png,0,0.97829,19,female,2020-11-19_14h21.40.492,torte-2b,2020.1.3,MacIntel,60,13338,,,,,,,,,,,,,,,,,,,,,,,,,,,,,,,,,,,,,0,102,102,73,1,,,,,,,,,,,,,,,,,,,,,,,,
,,,,,,,,,,,,l,0.44,Correct!,,,,,,t3.png,t2.png,1,0.90855,19,female,2020-11-19_14h21.40.492,torte-2b,2020.1.3,MacIntel,60,13338,,,,,,,,,,,,,,,,,,,,,,,,,,,,,,,,,,,,,0,103,103,53,1,,,,,,,,,,,,,,,,,,,,,,,,
,,,,,,,,,,,,l,0.672,Incorrect,,,,,,t4.png,t5.png,1,0.90025,19,female,2020-11-19_14h21.40.492,torte-2b,2020.1.3,MacIntel,60,13338,,,,,,,,,,,,,,,,,,,,,,,,,,,,,,,,,,,,,0,104,104,103,1,,,,,,,,,,,,,,,,,,,,,,,,
,,,,,,,,,,,,a,0.517,Correct!,,,,,,t2.png,t3.png,1,0.90855,19,female,2020-11-19_14h21.40.492,torte-2b,2020.1.3,MacIntel,60,13338,,,,,,,,,,,,,,,,,,,,,,,,,,,,,,,,,,,,,0,105,105,10,1,,,,,,,,,,,,,,,,,,,,,,,,
,,,,,,,,,,,,a,0.713,Correct!,,,,,,t2.png,t2.png,0,0.98115,19,female,2020-11-19_14h21.40.492,torte-2b,2020.1.3,MacIntel,60,13338,,,,,,,,,,,,,,,,,,,,,,,,,,,,,,,,,,,,,0,106,106,7,1,,,,,,,,,,,,,,,,,,,,,,,,
,,,,,,,,,,,,l,0.783,Incorrect,,,,,,t2.png,t2.png,0,0.98115,19,female,2020-11-19_14h21.40.492,torte-2b,2020.1.3,MacIntel,60,13338,,,,,,,,,,,,,,,,,,,,,,,,,,,,,,,,,,,,,0,107,107,2,1,,,,,,,,,,,,,,,,,,,,,,,,
,,,,,,,,,,,,l,0.782,Correct!,,,,,,t1.png,t4.png,3,0.0000131,19,female,2020-11-19_14h21.40.492,torte-2b,2020.1.3,MacIntel,60,13338,,,,,,,,,,,,,,,,,,,,,,,,,,,,,,,,,,,,,0,108,108,81,1,,,,,,,,,,,,,,,,,,,,,,,,
,,,,,,,,,,,,l,0.704,Correct!,,,,,,t1.png,t3.png,2,0.056466,19,female,2020-11-19_14h21.40.492,torte-2b,2020.1.3,MacIntel,60,13338,,,,,,,,,,,,,,,,,,,,,,,,,,,,,,,,,,,,,0,109,109,99,1,,,,,,,,,,,,,,,,,,,,,,,,
,,,,,,,,,,,,a,0.388,Incorrect,,,,,,t4.png,t2.png,2,0.059078,19,female,2020-11-19_14h21.40.492,torte-2b,2020.1.3,MacIntel,60,13338,,,,,,,,,,,,,,,,,,,,,,,,,,,,,,,,,,,,,0,110,110,88,1,,,,,,,,,,,,,,,,,,,,,,,,
,,,,,,,,,,,,a,0.448,Incorrect,,,,,,t5.png,t2.png,3,0.0000131,19,female,2020-11-19_14h21.40.492,torte-2b,2020.1.3,MacIntel,60,13338,,,,,,,,,,,,,,,,,,,,,,,,,,,,,,,,,,,,,0,111,111,98,1,,,,,,,,,,,,,,,,,,,,,,,,
,,,,,,,,,,,,a,0.537,Correct!,,,,,,t4.png,t3.png,1,0.90855,19,female,2020-11-19_14h21.40.492,torte-2b,2020.1.3,MacIntel,60,13338,,,,,,,,,,,,,,,,,,,,,,,,,,,,,,,,,,,,,0,112,112,45,1,,,,,,,,,,,,,,,,,,,,,,,,
,,,,,,,,,,,,l,0.832,Correct!,,,,,,t2.png,t4.png,2,0.059078,19,female,2020-11-19_14h21.40.492,torte-2b,2020.1.3,MacIntel,60,13338,,,,,,,,,,,,,,,,,,,,,,,,,,,,,,,,,,,,,0,113,113,11,1,,,,,,,,,,,,,,,,,,,,,,,,
,,,,,,,,,,,,a,0.416,Incorrect,,,,,,t4.png,t1.png,3,0.0000131,19,female,2020-11-19_14h21.40.492,torte-2b,2020.1.3,MacIntel,60,13338,,,,,,,,,,,,,,,,,,,,,,,,,,,,,,,,,,,,,0,114,114,61,1,,,,,,,,,,,,,,,,,,,,,,,,
,,,,,,,,,,,,a,0.383,Correct!,,,,,,t5.png,t4.png,1,0.90025,19,female,2020-11-19_14h21.40.492,torte-2b,2020.1.3,MacIntel,60,13338,,,,,,,,,,,,,,,,,,,,,,,,,,,,,,,,,,,,,0,115,115,27,1,,,,,,,,,,,,,,,,,,,,,,,,
,,,,,,,,,,,,a,0.649,Incorrect,,,,,,t4.png,t2.png,2,0.059078,19,female,2020-11-19_14h21.40.492,torte-2b,2020.1.3,MacIntel,60,13338,,,,,,,,,,,,,,,,,,,,,,,,,,,,,,,,,,,,,0,116,116,86,1,,,,,,,,,,,,,,,,,,,,,,,,
,,,,,,,,,,,,a,0.873,Correct!,,,,,,t2.png,t1.png,1,0.9,19,female,2020-11-19_14h21.40.492,torte-2b,2020.1.3,MacIntel,60,13338,,,,,,,,,,,,,,,,,,,,,,,,,,,,,,,,,,,,,0,117,117,118,1,,,,,,,,,,,,,,,,,,,,,,,,
,,,,,,,,,,,,l,0.732,Correct!,,,,,,t1.png,t4.png,3,0.0000131,19,female,2020-11-19_14h21.40.492,torte-2b,2020.1.3,MacIntel,60,13338,,,,,,,,,,,,,,,,,,,,,,,,,,,,,,,,,,,,,0,118,118,17,1,,,,,,,,,,,,,,,,,,,,,,,,
,,,,,,,,,,,,a,0.87,Correct!,,,,,,t4.png,t3.png,1,0.909,19,female,2020-11-19_14h21.40.492,torte-2b,2020.1.3,MacIntel,60,13338,,,,,,,,,,,,,,,,,,,,,,,,,,,,,,,,,,,,,0,119,119,46,1,,,,,,,,,,,,,,,,,,,,,,,,
,,,,,,,,,,,,,,,,,,,,,,,,19,female,2020-11-19_14h21.40.492,torte-2b,2020.1.3,MacIntel,60,13338,space,1.156,,,,,,,,,,,,,,,,,,,,,,,,,,,,,,,,,,,,,,,,0,195,1,0,0,s1,12,52,1,0,0,t2,252,-90,1,0,0,proceed,space,0.243,space,0.611,space,0.35
