key_resp_8.keys,key_resp_8.rt,key_resp_9.keys,key_resp_9.rt,key_resp_10.keys,key_resp_10.rt,key_resp_11.keys,key_resp_11.rt,key_resp_2.keys,key_resp_2.rt,key_resp_3.keys,key_resp_3.rt,key_resp.keys,key_resp.rt,Feedback,train.thisRepN,train.thisTrialN,train.thisN,train.thisIndex,train.ran,torta_sx,torta_dx,difference,probability,age,gender,date,expName,psychopyVersion,OS,frameRate,participant,key_resp_15.keys,key_resp_15.rt,key_resp_6.keys,key_resp_6.rt,test1.thisRepN,test1.thisTrialN,test1.thisN,test1.thisIndex,test1.ran,key_resp_4.keys,key_resp_4.rt,key_resp_5.keys,back1.thisRepN,back1.thisTrialN,back1.thisN,back1.thisIndex,back1.ran,letter,key_resp_5.rt,back2.thisRepN,back2.thisTrialN,back2.thisN,back2.thisIndex,back2.ran,back3.thisRepN,back3.thisTrialN,back3.thisN,back3.thisIndex,back3.ran,back4.thisRepN,back4.thisTrialN,back4.thisN,back4.thisIndex,back4.ran,key_resp_7.keys,key_resp_7.rt,test2.thisRepN,test2.thisTrialN,test2.thisN,test2.thisIndex,test2.ran,mouse.x,mouse.y,mouse.leftButton,mouse.midButton,mouse.rightButton,mouse.clicked_name,mouse_2.x,mouse_2.y,mouse_2.leftButton,mouse_2.midButton,mouse_2.rightButton,mouse_2.clicked_name,mouse_3.x,mouse_3.y,mouse_3.leftButton,mouse_3.midButton,mouse_3.rightButton,mouse_3.clicked_name,key_resp_12.keys,key_resp_12.rt,key_resp_13.keys,key_resp_13.rt,key_resp_14.keys,key_resp_14.rt
space,2.55,space,0.594,space,0.36,space,0.591,space,0.05,space,2.872,a,1.599,Correct!,0,0,0,109,1,t5.png,t5.png,0,0.97829,19,female,2020-08-19_17h31.06.936,torte-2b,2020.1.3,MacIntel,60,13340,,,,,,,,,,,,,,,,,,,,,,,,,,,,,,,,,,,,,,,,,,,,,,,,,,,,,,,,,,,,,,,,,
,,,,,,,,,,,,a,0.932,Correct!,0,1,1,100,1,t3.png,t2.png,1,0.90855,19,female,2020-08-19_17h31.06.936,torte-2b,2020.1.3,MacIntel,60,13340,,,,,,,,,,,,,,,,,,,,,,,,,,,,,,,,,,,,,,,,,,,,,,,,,,,,,,,,,,,,,,,,,
,,,,,,,,,,,,l,0.578,Correct!,0,2,2,28,1,t1.png,t4.png,3,0.0000131,19,female,2020-08-19_17h31.06.936,torte-2b,2020.1.3,MacIntel,60,13340,,,,,,,,,,,,,,,,,,,,,,,,,,,,,,,,,,,,,,,,,,,,,,,,,,,,,,,,,,,,,,,,,
,,,,,,,,,,,,l,0.971,Incorrect,0,3,3,31,1,t1.png,t1.png,0,0.97829,19,female,2020-08-19_17h31.06.936,torte-2b,2020.1.3,MacIntel,60,13340,,,,,,,,,,,,,,,,,,,,,,,,,,,,,,,,,,,,,,,,,,,,,,,,,,,,,,,,,,,,,,,,,
,,,,,,,,,,,,l,0.781,Correct!,0,4,4,95,1,t1.png,t4.png,3,0.0000131,19,female,2020-08-19_17h31.06.936,torte-2b,2020.1.3,MacIntel,60,13340,,,,,,,,,,,,,,,,,,,,,,,,,,,,,,,,,,,,,,,,,,,,,,,,,,,,,,,,,,,,,,,,,
,,,,,,,,,,,,a,0.466,Incorrect,0,5,5,76,1,t4.png,t1.png,3,0.059078,19,female,2020-08-19_17h31.06.936,torte-2b,2020.1.3,MacIntel,60,13340,,,,,,,,,,,,,,,,,,,,,,,,,,,,,,,,,,,,,,,,,,,,,,,,,,,,,,,,,,,,,,,,,
,,,,,,,,,,,,a,0.582,Incorrect,0,6,6,73,1,t3.png,t1.png,2,0.056466,19,female,2020-08-19_17h31.06.936,torte-2b,2020.1.3,MacIntel,60,13340,,,,,,,,,,,,,,,,,,,,,,,,,,,,,,,,,,,,,,,,,,,,,,,,,,,,,,,,,,,,,,,,,
,,,,,,,,,,,,a,0.834,Correct!,0,7,7,0,1,t3.png,t2.png,1,0.90855,19,female,2020-08-19_17h31.06.936,torte-2b,2020.1.3,MacIntel,60,13340,,,,,,,,,,,,,,,,,,,,,,,,,,,,,,,,,,,,,,,,,,,,,,,,,,,,,,,,,,,,,,,,,
,,,,,,,,,,,,l,0.599,Incorrect,0,8,8,41,1,t4.png,t5.png,1,0.90025,19,female,2020-08-19_17h31.06.936,torte-2b,2020.1.3,MacIntel,60,13340,,,,,,,,,,,,,,,,,,,,,,,,,,,,,,,,,,,,,,,,,,,,,,,,,,,,,,,,,,,,,,,,,
,,,,,,,,,,,,a,0.539,Incorrect,0,9,9,2,1,t3.png,t1.png,2,0.056466,19,female,2020-08-19_17h31.06.936,torte-2b,2020.1.3,MacIntel,60,13340,,,,,,,,,,,,,,,,,,,,,,,,,,,,,,,,,,,,,,,,,,,,,,,,,,,,,,,,,,,,,,,,,
,,,,,,,,,,,,l,0.733,Incorrect,0,10,10,53,1,t1.png,t1.png,0,0.97829,19,female,2020-08-19_17h31.06.936,torte-2b,2020.1.3,MacIntel,60,13340,,,,,,,,,,,,,,,,,,,,,,,,,,,,,,,,,,,,,,,,,,,,,,,,,,,,,,,,,,,,,,,,,
,,,,,,,,,,,,a,0.515,Incorrect,0,11,11,87,1,t5.png,t1.png,4,9.55E-11,19,female,2020-08-19_17h31.06.936,torte-2b,2020.1.3,MacIntel,60,13340,,,,,,,,,,,,,,,,,,,,,,,,,,,,,,,,,,,,,,,,,,,,,,,,,,,,,,,,,,,,,,,,,
,,,,,,,,,,,,l,0.665,Correct!,0,12,12,79,1,t1.png,t4.png,3,0.0000131,19,female,2020-08-19_17h31.06.936,torte-2b,2020.1.3,MacIntel,60,13340,,,,,,,,,,,,,,,,,,,,,,,,,,,,,,,,,,,,,,,,,,,,,,,,,,,,,,,,,,,,,,,,,
,,,,,,,,,,,,l,0.82,Correct!,0,13,13,50,1,t1.png,t5.png,4,9.55E-11,19,female,2020-08-19_17h31.06.936,torte-2b,2020.1.3,MacIntel,60,13340,,,,,,,,,,,,,,,,,,,,,,,,,,,,,,,,,,,,,,,,,,,,,,,,,,,,,,,,,,,,,,,,,
,,,,,,,,,,,,l,1.966,Incorrect,0,14,14,60,1,t4.png,t5.png,1,0.90025,19,female,2020-08-19_17h31.06.936,torte-2b,2020.1.3,MacIntel,60,13340,,,,,,,,,,,,,,,,,,,,,,,,,,,,,,,,,,,,,,,,,,,,,,,,,,,,,,,,,,,,,,,,,
,,,,,,,,,,,,a,1.065,Correct!,0,15,15,67,1,t3.png,t2.png,1,0.90855,19,female,2020-08-19_17h31.06.936,torte-2b,2020.1.3,MacIntel,60,13340,,,,,,,,,,,,,,,,,,,,,,,,,,,,,,,,,,,,,,,,,,,,,,,,,,,,,,,,,,,,,,,,,
,,,,,,,,,,,,l,0.785,Incorrect,0,16,16,71,1,t4.png,t5.png,1,0.90025,19,female,2020-08-19_17h31.06.936,torte-2b,2020.1.3,MacIntel,60,13340,,,,,,,,,,,,,,,,,,,,,,,,,,,,,,,,,,,,,,,,,,,,,,,,,,,,,,,,,,,,,,,,,
,,,,,,,,,,,,a,0.483,Incorrect,0,17,17,74,1,t5.png,t1.png,4,9.55E-11,19,female,2020-08-19_17h31.06.936,torte-2b,2020.1.3,MacIntel,60,13340,,,,,,,,,,,,,,,,,,,,,,,,,,,,,,,,,,,,,,,,,,,,,,,,,,,,,,,,,,,,,,,,,
,,,,,,,,,,,,l,0.935,Incorrect,0,18,18,116,1,t4.png,t5.png,1,0.90025,19,female,2020-08-19_17h31.06.936,torte-2b,2020.1.3,MacIntel,60,13340,,,,,,,,,,,,,,,,,,,,,,,,,,,,,,,,,,,,,,,,,,,,,,,,,,,,,,,,,,,,,,,,,
,,,,,,,,,,,,a,0.506,Incorrect,0,19,19,103,1,t4.png,t1.png,3,0.059078,19,female,2020-08-19_17h31.06.936,torte-2b,2020.1.3,MacIntel,60,13340,,,,,,,,,,,,,,,,,,,,,,,,,,,,,,,,,,,,,,,,,,,,,,,,,,,,,,,,,,,,,,,,,
,,,,,,,,,,,,a,0.548,Incorrect,0,20,20,51,1,t4.png,t1.png,3,0.059078,19,female,2020-08-19_17h31.06.936,torte-2b,2020.1.3,MacIntel,60,13340,,,,,,,,,,,,,,,,,,,,,,,,,,,,,,,,,,,,,,,,,,,,,,,,,,,,,,,,,,,,,,,,,
,,,,,,,,,,,,l,0.548,Correct!,0,21,21,27,1,t1.png,t5.png,4,9.55E-11,19,female,2020-08-19_17h31.06.936,torte-2b,2020.1.3,MacIntel,60,13340,,,,,,,,,,,,,,,,,,,,,,,,,,,,,,,,,,,,,,,,,,,,,,,,,,,,,,,,,,,,,,,,,
,,,,,,,,,,,,l,0.464,Correct!,0,22,22,118,1,t1.png,t5.png,4,9.55E-11,19,female,2020-08-19_17h31.06.936,torte-2b,2020.1.3,MacIntel,60,13340,,,,,,,,,,,,,,,,,,,,,,,,,,,,,,,,,,,,,,,,,,,,,,,,,,,,,,,,,,,,,,,,,
,,,,,,,,,,,,a,0.332,Incorrect,0,23,23,81,1,t3.png,t1.png,2,0.056466,19,female,2020-08-19_17h31.06.936,torte-2b,2020.1.3,MacIntel,60,13340,,,,,,,,,,,,,,,,,,,,,,,,,,,,,,,,,,,,,,,,,,,,,,,,,,,,,,,,,,,,,,,,,
,,,,,,,,,,,,a,0.532,Correct!,0,24,24,110,1,t4.png,t5.png,1,0.90025,19,female,2020-08-19_17h31.06.936,torte-2b,2020.1.3,MacIntel,60,13340,,,,,,,,,,,,,,,,,,,,,,,,,,,,,,,,,,,,,,,,,,,,,,,,,,,,,,,,,,,,,,,,,
,,,,,,,,,,,,l,0.801,Incorrect,0,25,25,56,1,t2.png,t3.png,1,0.90855,19,female,2020-08-19_17h31.06.936,torte-2b,2020.1.3,MacIntel,60,13340,,,,,,,,,,,,,,,,,,,,,,,,,,,,,,,,,,,,,,,,,,,,,,,,,,,,,,,,,,,,,,,,,
,,,,,,,,,,,,l,0.548,Incorrect,0,26,26,65,1,t5.png,t5.png,0,0.97829,19,female,2020-08-19_17h31.06.936,torte-2b,2020.1.3,MacIntel,60,13340,,,,,,,,,,,,,,,,,,,,,,,,,,,,,,,,,,,,,,,,,,,,,,,,,,,,,,,,,,,,,,,,,
,,,,,,,,,,,,a,0.415,Incorrect,0,27,27,82,1,t3.png,t1.png,2,0.056466,19,female,2020-08-19_17h31.06.936,torte-2b,2020.1.3,MacIntel,60,13340,,,,,,,,,,,,,,,,,,,,,,,,,,,,,,,,,,,,,,,,,,,,,,,,,,,,,,,,,,,,,,,,,
,,,,,,,,,,,,a,0.499,Incorrect,0,28,28,54,1,t3.png,t1.png,2,0.056466,19,female,2020-08-19_17h31.06.936,torte-2b,2020.1.3,MacIntel,60,13340,,,,,,,,,,,,,,,,,,,,,,,,,,,,,,,,,,,,,,,,,,,,,,,,,,,,,,,,,,,,,,,,,
,,,,,,,,,,,,l,0.572,Incorrect,0,29,29,5,1,t5.png,t5.png,0,0.97829,19,female,2020-08-19_17h31.06.936,torte-2b,2020.1.3,MacIntel,60,13340,,,,,,,,,,,,,,,,,,,,,,,,,,,,,,,,,,,,,,,,,,,,,,,,,,,,,,,,,,,,,,,,,
,,,,,,,,,,,,a,0.319,Incorrect,0,30,30,17,1,t4.png,t1.png,3,0.059078,19,female,2020-08-19_17h31.06.936,torte-2b,2020.1.3,MacIntel,60,13340,,,,,,,,,,,,,,,,,,,,,,,,,,,,,,,,,,,,,,,,,,,,,,,,,,,,,,,,,,,,,,,,,
,,,,,,,,,,,,a,0.505,Incorrect,0,31,31,113,1,t5.png,t1.png,4,9.55E-11,19,female,2020-08-19_17h31.06.936,torte-2b,2020.1.3,MacIntel,60,13340,,,,,,,,,,,,,,,,,,,,,,,,,,,,,,,,,,,,,,,,,,,,,,,,,,,,,,,,,,,,,,,,,
,,,,,,,,,,,,l,0.486,Incorrect,0,32,32,69,1,t5.png,t4.png,1,0.90025,19,female,2020-08-19_17h31.06.936,torte-2b,2020.1.3,MacIntel,60,13340,,,,,,,,,,,,,,,,,,,,,,,,,,,,,,,,,,,,,,,,,,,,,,,,,,,,,,,,,,,,,,,,,
,,,,,,,,,,,,a,0.408,Incorrect,0,33,33,6,1,t5.png,t1.png,4,9.55E-11,19,female,2020-08-19_17h31.06.936,torte-2b,2020.1.3,MacIntel,60,13340,,,,,,,,,,,,,,,,,,,,,,,,,,,,,,,,,,,,,,,,,,,,,,,,,,,,,,,,,,,,,,,,,
,,,,,,,,,,,,l,0.451,Correct!,0,34,34,16,1,t1.png,t5.png,4,9.55E-11,19,female,2020-08-19_17h31.06.936,torte-2b,2020.1.3,MacIntel,60,13340,,,,,,,,,,,,,,,,,,,,,,,,,,,,,,,,,,,,,,,,,,,,,,,,,,,,,,,,,,,,,,,,,
,,,,,,,,,,,,l,0.431,Incorrect,0,35,35,58,1,t4.png,t5.png,1,0.90025,19,female,2020-08-19_17h31.06.936,torte-2b,2020.1.3,MacIntel,60,13340,,,,,,,,,,,,,,,,,,,,,,,,,,,,,,,,,,,,,,,,,,,,,,,,,,,,,,,,,,,,,,,,,
,,,,,,,,,,,,a,0.765,Correct!,0,36,36,55,1,t1.png,t1.png,0,0.97829,19,female,2020-08-19_17h31.06.936,torte-2b,2020.1.3,MacIntel,60,13340,,,,,,,,,,,,,,,,,,,,,,,,,,,,,,,,,,,,,,,,,,,,,,,,,,,,,,,,,,,,,,,,,
,,,,,,,,,,,,a,0.551,Correct!,0,37,37,38,1,t1.png,t1.png,0,0.97829,19,female,2020-08-19_17h31.06.936,torte-2b,2020.1.3,MacIntel,60,13340,,,,,,,,,,,,,,,,,,,,,,,,,,,,,,,,,,,,,,,,,,,,,,,,,,,,,,,,,,,,,,,,,
,,,,,,,,,,,,a,0.491,Correct!,0,38,38,21,1,t5.png,t4.png,1,0.90025,19,female,2020-08-19_17h31.06.936,torte-2b,2020.1.3,MacIntel,60,13340,,,,,,,,,,,,,,,,,,,,,,,,,,,,,,,,,,,,,,,,,,,,,,,,,,,,,,,,,,,,,,,,,
,,,,,,,,,,,,l,0.9,Correct!,0,39,39,68,1,t2.png,t4.png,2,0.059078,19,female,2020-08-19_17h31.06.936,torte-2b,2020.1.3,MacIntel,60,13340,,,,,,,,,,,,,,,,,,,,,,,,,,,,,,,,,,,,,,,,,,,,,,,,,,,,,,,,,,,,,,,,,
,,,,,,,,,,,,a,0.537,Incorrect,0,40,40,78,1,t1.png,t4.png,3,0.0000131,19,female,2020-08-19_17h31.06.936,torte-2b,2020.1.3,MacIntel,60,13340,,,,,,,,,,,,,,,,,,,,,,,,,,,,,,,,,,,,,,,,,,,,,,,,,,,,,,,,,,,,,,,,,
,,,,,,,,,,,,a,0.447,Incorrect,0,41,41,3,1,t4.png,t1.png,3,0.059078,19,female,2020-08-19_17h31.06.936,torte-2b,2020.1.3,MacIntel,60,13340,,,,,,,,,,,,,,,,,,,,,,,,,,,,,,,,,,,,,,,,,,,,,,,,,,,,,,,,,,,,,,,,,
,,,,,,,,,,,,a,0.331,Incorrect,0,42,42,86,1,t5.png,t4.png,1,0.90025,19,female,2020-08-19_17h31.06.936,torte-2b,2020.1.3,MacIntel,60,13340,,,,,,,,,,,,,,,,,,,,,,,,,,,,,,,,,,,,,,,,,,,,,,,,,,,,,,,,,,,,,,,,,
,,,,,,,,,,,,a,0.52,Incorrect,0,43,43,63,1,t1.png,t5.png,4,9.55E-11,19,female,2020-08-19_17h31.06.936,torte-2b,2020.1.3,MacIntel,60,13340,,,,,,,,,,,,,,,,,,,,,,,,,,,,,,,,,,,,,,,,,,,,,,,,,,,,,,,,,,,,,,,,,
,,,,,,,,,,,,a,0.431,Incorrect,0,44,44,10,1,t4.png,t1.png,3,0.059078,19,female,2020-08-19_17h31.06.936,torte-2b,2020.1.3,MacIntel,60,13340,,,,,,,,,,,,,,,,,,,,,,,,,,,,,,,,,,,,,,,,,,,,,,,,,,,,,,,,,,,,,,,,,
,,,,,,,,,,,,l,0.331,Correct!,0,45,45,80,1,t4.png,t1.png,3,0.059078,19,female,2020-08-19_17h31.06.936,torte-2b,2020.1.3,MacIntel,60,13340,,,,,,,,,,,,,,,,,,,,,,,,,,,,,,,,,,,,,,,,,,,,,,,,,,,,,,,,,,,,,,,,,
,,,,,,,,,,,,l,0.448,Incorrect,0,46,46,88,1,t1.png,t1.png,0,0.97829,19,female,2020-08-19_17h31.06.936,torte-2b,2020.1.3,MacIntel,60,13340,,,,,,,,,,,,,,,,,,,,,,,,,,,,,,,,,,,,,,,,,,,,,,,,,,,,,,,,,,,,,,,,,
,,,,,,,,,,,,a,0.397,Incorrect,0,47,47,101,1,t5.png,t4.png,1,0.90025,19,female,2020-08-19_17h31.06.936,torte-2b,2020.1.3,MacIntel,60,13340,,,,,,,,,,,,,,,,,,,,,,,,,,,,,,,,,,,,,,,,,,,,,,,,,,,,,,,,,,,,,,,,,
,,,,,,,,,,,,a,0.532,Incorrect,0,48,48,1,1,t3.png,t1.png,2,0.056466,19,female,2020-08-19_17h31.06.936,torte-2b,2020.1.3,MacIntel,60,13340,,,,,,,,,,,,,,,,,,,,,,,,,,,,,,,,,,,,,,,,,,,,,,,,,,,,,,,,,,,,,,,,,
,,,,,,,,,,,,l,0.448,Incorrect,0,49,49,91,1,t5.png,t4.png,1,0.90025,19,female,2020-08-19_17h31.06.936,torte-2b,2020.1.3,MacIntel,60,13340,,,,,,,,,,,,,,,,,,,,,,,,,,,,,,,,,,,,,,,,,,,,,,,,,,,,,,,,,,,,,,,,,
,,,,,,,,,,,,a,0.748,Correct!,0,50,50,24,1,t5.png,t5.png,0,0.97829,19,female,2020-08-19_17h31.06.936,torte-2b,2020.1.3,MacIntel,60,13340,,,,,,,,,,,,,,,,,,,,,,,,,,,,,,,,,,,,,,,,,,,,,,,,,,,,,,,,,,,,,,,,,
,,,,,,,,,,,,a,0.62,Correct!,0,51,51,119,1,t5.png,t4.png,1,0.90025,19,female,2020-08-19_17h31.06.936,torte-2b,2020.1.3,MacIntel,60,13340,,,,,,,,,,,,,,,,,,,,,,,,,,,,,,,,,,,,,,,,,,,,,,,,,,,,,,,,,,,,,,,,,
,,,,,,,,,,,,l,0.765,Correct!,0,52,52,89,1,t1.png,t5.png,4,9.55E-11,19,female,2020-08-19_17h31.06.936,torte-2b,2020.1.3,MacIntel,60,13340,,,,,,,,,,,,,,,,,,,,,,,,,,,,,,,,,,,,,,,,,,,,,,,,,,,,,,,,,,,,,,,,,
,,,,,,,,,,,,l,0.564,Incorrect,0,53,53,61,1,t1.png,t1.png,0,0.97829,19,female,2020-08-19_17h31.06.936,torte-2b,2020.1.3,MacIntel,60,13340,,,,,,,,,,,,,,,,,,,,,,,,,,,,,,,,,,,,,,,,,,,,,,,,,,,,,,,,,,,,,,,,,
,,,,,,,,,,,,a,0.952,Incorrect,0,54,54,32,1,t3.png,t2.png,1,0.90855,19,female,2020-08-19_17h31.06.936,torte-2b,2020.1.3,MacIntel,60,13340,,,,,,,,,,,,,,,,,,,,,,,,,,,,,,,,,,,,,,,,,,,,,,,,,,,,,,,,,,,,,,,,,
,,,,,,,,,,,,l,0.949,Correct!,0,55,55,102,1,t2.png,t4.png,2,0.059078,19,female,2020-08-19_17h31.06.936,torte-2b,2020.1.3,MacIntel,60,13340,,,,,,,,,,,,,,,,,,,,,,,,,,,,,,,,,,,,,,,,,,,,,,,,,,,,,,,,,,,,,,,,,
,,,,,,,,,,,,a,0.453,Correct!,0,56,56,8,1,t5.png,t5.png,0,0.97829,19,female,2020-08-19_17h31.06.936,torte-2b,2020.1.3,MacIntel,60,13340,,,,,,,,,,,,,,,,,,,,,,,,,,,,,,,,,,,,,,,,,,,,,,,,,,,,,,,,,,,,,,,,,
,,,,,,,,,,,,l,0.566,Incorrect,0,57,57,14,1,t2.png,t3.png,1,0.90855,19,female,2020-08-19_17h31.06.936,torte-2b,2020.1.3,MacIntel,60,13340,,,,,,,,,,,,,,,,,,,,,,,,,,,,,,,,,,,,,,,,,,,,,,,,,,,,,,,,,,,,,,,,,
,,,,,,,,,,,,l,0.416,Correct!,0,58,58,26,1,t1.png,t5.png,4,9.55E-11,19,female,2020-08-19_17h31.06.936,torte-2b,2020.1.3,MacIntel,60,13340,,,,,,,,,,,,,,,,,,,,,,,,,,,,,,,,,,,,,,,,,,,,,,,,,,,,,,,,,,,,,,,,,
,,,,,,,,,,,,l,0.455,Correct!,0,59,59,9,1,t1.png,t5.png,4,9.55E-11,19,female,2020-08-19_17h31.06.936,torte-2b,2020.1.3,MacIntel,60,13340,,,,,,,,,,,,,,,,,,,,,,,,,,,,,,,,,,,,,,,,,,,,,,,,,,,,,,,,,,,,,,,,,
,,,,,,,,,,,,l,0.485,Incorrect,0,60,60,25,1,t1.png,t1.png,0,0.97829,19,female,2020-08-19_17h31.06.936,torte-2b,2020.1.3,MacIntel,60,13340,,,,,,,,,,,,,,,,,,,,,,,,,,,,,,,,,,,,,,,,,,,,,,,,,,,,,,,,,,,,,,,,,
,,,,,,,,,,,,a,0.782,Incorrect,0,61,61,62,1,t1.png,t4.png,3,0.0000131,19,female,2020-08-19_17h31.06.936,torte-2b,2020.1.3,MacIntel,60,13340,,,,,,,,,,,,,,,,,,,,,,,,,,,,,,,,,,,,,,,,,,,,,,,,,,,,,,,,,,,,,,,,,
,,,,,,,,,,,,l,0.339,Incorrect,0,62,62,90,1,t4.png,t5.png,1,0.90025,19,female,2020-08-19_17h31.06.936,torte-2b,2020.1.3,MacIntel,60,13340,,,,,,,,,,,,,,,,,,,,,,,,,,,,,,,,,,,,,,,,,,,,,,,,,,,,,,,,,,,,,,,,,
,,,,,,,,,,,,a,0.519,Correct!,0,63,63,112,1,t5.png,t4.png,1,0.90025,19,female,2020-08-19_17h31.06.936,torte-2b,2020.1.3,MacIntel,60,13340,,,,,,,,,,,,,,,,,,,,,,,,,,,,,,,,,,,,,,,,,,,,,,,,,,,,,,,,,,,,,,,,,
,,,,,,,,,,,,l,0.703,Incorrect,0,64,64,75,1,t2.png,t3.png,1,0.90855,19,female,2020-08-19_17h31.06.936,torte-2b,2020.1.3,MacIntel,60,13340,,,,,,,,,,,,,,,,,,,,,,,,,,,,,,,,,,,,,,,,,,,,,,,,,,,,,,,,,,,,,,,,,
,,,,,,,,,,,,a,0.757,Correct!,0,65,65,7,1,t3.png,t2.png,1,0.90855,19,female,2020-08-19_17h31.06.936,torte-2b,2020.1.3,MacIntel,60,13340,,,,,,,,,,,,,,,,,,,,,,,,,,,,,,,,,,,,,,,,,,,,,,,,,,,,,,,,,,,,,,,,,
,,,,,,,,,,,,l,0.467,Incorrect,0,66,66,47,1,t2.png,t3.png,1,0.90855,19,female,2020-08-19_17h31.06.936,torte-2b,2020.1.3,MacIntel,60,13340,,,,,,,,,,,,,,,,,,,,,,,,,,,,,,,,,,,,,,,,,,,,,,,,,,,,,,,,,,,,,,,,,
,,,,,,,,,,,,l,0.538,Incorrect,0,67,67,48,1,t2.png,t3.png,1,0.90855,19,female,2020-08-19_17h31.06.936,torte-2b,2020.1.3,MacIntel,60,13340,,,,,,,,,,,,,,,,,,,,,,,,,,,,,,,,,,,,,,,,,,,,,,,,,,,,,,,,,,,,,,,,,
,,,,,,,,,,,,a,0.431,Incorrect,0,68,68,49,1,t5.png,t1.png,4,9.55E-11,19,female,2020-08-19_17h31.06.936,torte-2b,2020.1.3,MacIntel,60,13340,,,,,,,,,,,,,,,,,,,,,,,,,,,,,,,,,,,,,,,,,,,,,,,,,,,,,,,,,,,,,,,,,
,,,,,,,,,,,,a,0.949,Incorrect,0,69,69,98,1,t5.png,t1.png,4,9.55E-11,19,female,2020-08-19_17h31.06.936,torte-2b,2020.1.3,MacIntel,60,13340,,,,,,,,,,,,,,,,,,,,,,,,,,,,,,,,,,,,,,,,,,,,,,,,,,,,,,,,,,,,,,,,,
,,,,,,,,,,,,a,0.516,Incorrect,0,70,70,99,1,t4.png,t1.png,3,0.059078,19,female,2020-08-19_17h31.06.936,torte-2b,2020.1.3,MacIntel,60,13340,,,,,,,,,,,,,,,,,,,,,,,,,,,,,,,,,,,,,,,,,,,,,,,,,,,,,,,,,,,,,,,,,
,,,,,,,,,,,,l,0.287,Correct!,0,71,71,108,1,t3.png,t1.png,2,0.056466,19,female,2020-08-19_17h31.06.936,torte-2b,2020.1.3,MacIntel,60,13340,,,,,,,,,,,,,,,,,,,,,,,,,,,,,,,,,,,,,,,,,,,,,,,,,,,,,,,,,,,,,,,,,
,,,,,,,,,,,,l,0.387,Correct!,0,72,72,19,1,t2.png,t4.png,2,0.059078,19,female,2020-08-19_17h31.06.936,torte-2b,2020.1.3,MacIntel,60,13340,,,,,,,,,,,,,,,,,,,,,,,,,,,,,,,,,,,,,,,,,,,,,,,,,,,,,,,,,,,,,,,,,
,,,,,,,,,,,,a,0.386,Correct!,0,73,73,97,1,t1.png,t1.png,0,0.97829,19,female,2020-08-19_17h31.06.936,torte-2b,2020.1.3,MacIntel,60,13340,,,,,,,,,,,,,,,,,,,,,,,,,,,,,,,,,,,,,,,,,,,,,,,,,,,,,,,,,,,,,,,,,
,,,,,,,,,,,,a,0.247,Correct!,0,74,74,77,1,t3.png,t2.png,1,0.90855,19,female,2020-08-19_17h31.06.936,torte-2b,2020.1.3,MacIntel,60,13340,,,,,,,,,,,,,,,,,,,,,,,,,,,,,,,,,,,,,,,,,,,,,,,,,,,,,,,,,,,,,,,,,
,,,,,,,,,,,,a,0.265,Incorrect,0,75,75,44,1,t1.png,t4.png,3,0.0000131,19,female,2020-08-19_17h31.06.936,torte-2b,2020.1.3,MacIntel,60,13340,,,,,,,,,,,,,,,,,,,,,,,,,,,,,,,,,,,,,,,,,,,,,,,,,,,,,,,,,,,,,,,,,
,,,,,,,,,,,,l,0.001,Correct!,0,76,76,107,1,t1.png,t4.png,3,0.0000131,19,female,2020-08-19_17h31.06.936,torte-2b,2020.1.3,MacIntel,60,13340,,,,,,,,,,,,,,,,,,,,,,,,,,,,,,,,,,,,,,,,,,,,,,,,,,,,,,,,,,,,,,,,,
,,,,,,,,,,,,l,0.314,Correct!,0,77,77,92,1,t5.png,t1.png,4,9.55E-11,19,female,2020-08-19_17h31.06.936,torte-2b,2020.1.3,MacIntel,60,13340,,,,,,,,,,,,,,,,,,,,,,,,,,,,,,,,,,,,,,,,,,,,,,,,,,,,,,,,,,,,,,,,,
,,,,,,,,,,,,a,0.298,Correct!,0,78,78,104,1,t4.png,t5.png,1,0.90025,19,female,2020-08-19_17h31.06.936,torte-2b,2020.1.3,MacIntel,60,13340,,,,,,,,,,,,,,,,,,,,,,,,,,,,,,,,,,,,,,,,,,,,,,,,,,,,,,,,,,,,,,,,,
,,,,,,,,,,,,a,0.266,Correct!,0,79,79,111,1,t1.png,t1.png,0,0.97829,19,female,2020-08-19_17h31.06.936,torte-2b,2020.1.3,MacIntel,60,13340,,,,,,,,,,,,,,,,,,,,,,,,,,,,,,,,,,,,,,,,,,,,,,,,,,,,,,,,,,,,,,,,,
,,,,,,,,,,,,l,0.256,Correct!,0,80,80,43,1,t3.png,t1.png,2,0.056466,19,female,2020-08-19_17h31.06.936,torte-2b,2020.1.3,MacIntel,60,13340,,,,,,,,,,,,,,,,,,,,,,,,,,,,,,,,,,,,,,,,,,,,,,,,,,,,,,,,,,,,,,,,,
,,,,,,,,,,,,l,0.319,Correct!,0,81,81,106,1,t4.png,t1.png,3,0.059078,19,female,2020-08-19_17h31.06.936,torte-2b,2020.1.3,MacIntel,60,13340,,,,,,,,,,,,,,,,,,,,,,,,,,,,,,,,,,,,,,,,,,,,,,,,,,,,,,,,,,,,,,,,,
,,,,,,,,,,,,a,0.264,Correct!,0,82,82,46,1,t1.png,t1.png,0,0.97829,19,female,2020-08-19_17h31.06.936,torte-2b,2020.1.3,MacIntel,60,13340,,,,,,,,,,,,,,,,,,,,,,,,,,,,,,,,,,,,,,,,,,,,,,,,,,,,,,,,,,,,,,,,,
,,,,,,,,,,,,a,0.349,Incorrect,0,83,83,37,1,t2.png,t4.png,2,0.059078,19,female,2020-08-19_17h31.06.936,torte-2b,2020.1.3,MacIntel,60,13340,,,,,,,,,,,,,,,,,,,,,,,,,,,,,,,,,,,,,,,,,,,,,,,,,,,,,,,,,,,,,,,,,
,,,,,,,,,,,,l,0.216,Incorrect,0,84,84,18,1,t2.png,t3.png,1,0.90855,19,female,2020-08-19_17h31.06.936,torte-2b,2020.1.3,MacIntel,60,13340,,,,,,,,,,,,,,,,,,,,,,,,,,,,,,,,,,,,,,,,,,,,,,,,,,,,,,,,,,,,,,,,,
,,,,,,,,,,,,l,0.269,Correct!,0,85,85,66,1,t5.png,t1.png,4,9.55E-11,19,female,2020-08-19_17h31.06.936,torte-2b,2020.1.3,MacIntel,60,13340,,,,,,,,,,,,,,,,,,,,,,,,,,,,,,,,,,,,,,,,,,,,,,,,,,,,,,,,,,,,,,,,,
,,,,,,,,,,,,l,0.847,Incorrect,0,86,86,22,1,t5.png,t5.png,0,0.97829,19,female,2020-08-19_17h31.06.936,torte-2b,2020.1.3,MacIntel,60,13340,,,,,,,,,,,,,,,,,,,,,,,,,,,,,,,,,,,,,,,,,,,,,,,,,,,,,,,,,,,,,,,,,
,,,,,,,,,,,,a,0.334,Incorrect,0,87,87,13,1,t2.png,t4.png,2,0.059078,19,female,2020-08-19_17h31.06.936,torte-2b,2020.1.3,MacIntel,60,13340,,,,,,,,,,,,,,,,,,,,,,,,,,,,,,,,,,,,,,,,,,,,,,,,,,,,,,,,,,,,,,,,,
,,,,,,,,,,,,l,0.417,Correct!,0,88,88,115,1,t2.png,t4.png,2,0.059078,19,female,2020-08-19_17h31.06.936,torte-2b,2020.1.3,MacIntel,60,13340,,,,,,,,,,,,,,,,,,,,,,,,,,,,,,,,,,,,,,,,,,,,,,,,,,,,,,,,,,,,,,,,,
,,,,,,,,,,,,a,0.506,Incorrect,0,89,89,59,1,t5.png,t1.png,4,9.55E-11,19,female,2020-08-19_17h31.06.936,torte-2b,2020.1.3,MacIntel,60,13340,,,,,,,,,,,,,,,,,,,,,,,,,,,,,,,,,,,,,,,,,,,,,,,,,,,,,,,,,,,,,,,,,
,,,,,,,,,,,,l,0.283,Correct!,0,90,90,36,1,t1.png,t4.png,3,0.0000131,19,female,2020-08-19_17h31.06.936,torte-2b,2020.1.3,MacIntel,60,13340,,,,,,,,,,,,,,,,,,,,,,,,,,,,,,,,,,,,,,,,,,,,,,,,,,,,,,,,,,,,,,,,,
,,,,,,,,,,,,l,0.432,Incorrect,0,91,91,15,1,t2.png,t3.png,1,0.90855,19,female,2020-08-19_17h31.06.936,torte-2b,2020.1.3,MacIntel,60,13340,,,,,,,,,,,,,,,,,,,,,,,,,,,,,,,,,,,,,,,,,,,,,,,,,,,,,,,,,,,,,,,,,
,,,,,,,,,,,,a,0.264,Incorrect,0,92,92,96,1,t2.png,t4.png,2,0.059078,19,female,2020-08-19_17h31.06.936,torte-2b,2020.1.3,MacIntel,60,13340,,,,,,,,,,,,,,,,,,,,,,,,,,,,,,,,,,,,,,,,,,,,,,,,,,,,,,,,,,,,,,,,,
,,,,,,,,,,,,l,0.366,Incorrect,0,93,93,33,1,t3.png,t2.png,1,0.90855,19,female,2020-08-19_17h31.06.936,torte-2b,2020.1.3,MacIntel,60,13340,,,,,,,,,,,,,,,,,,,,,,,,,,,,,,,,,,,,,,,,,,,,,,,,,,,,,,,,,,,,,,,,,
,,,,,,,,,,,,l,0.55,Incorrect,0,94,94,114,1,t5.png,t4.png,1,0.90025,19,female,2020-08-19_17h31.06.936,torte-2b,2020.1.3,MacIntel,60,13340,,,,,,,,,,,,,,,,,,,,,,,,,,,,,,,,,,,,,,,,,,,,,,,,,,,,,,,,,,,,,,,,,
,,,,,,,,,,,,a,0.7,Correct!,0,95,95,85,1,t5.png,t4.png,1,0.90025,19,female,2020-08-19_17h31.06.936,torte-2b,2020.1.3,MacIntel,60,13340,,,,,,,,,,,,,,,,,,,,,,,,,,,,,,,,,,,,,,,,,,,,,,,,,,,,,,,,,,,,,,,,,
,,,,,,,,,,,,l,0.982,Incorrect,0,96,96,42,1,t5.png,t5.png,0,0.97829,19,female,2020-08-19_17h31.06.936,torte-2b,2020.1.3,MacIntel,60,13340,,,,,,,,,,,,,,,,,,,,,,,,,,,,,,,,,,,,,,,,,,,,,,,,,,,,,,,,,,,,,,,,,
,,,,,,,,,,,,a,0.455,Incorrect,0,97,97,64,1,t5.png,t1.png,4,9.55E-11,19,female,2020-08-19_17h31.06.936,torte-2b,2020.1.3,MacIntel,60,13340,,,,,,,,,,,,,,,,,,,,,,,,,,,,,,,,,,,,,,,,,,,,,,,,,,,,,,,,,,,,,,,,,
,,,,,,,,,,,,l,0.016,Incorrect,0,98,98,4,1,t3.png,t2.png,1,0.90855,19,female,2020-08-19_17h31.06.936,torte-2b,2020.1.3,MacIntel,60,13340,,,,,,,,,,,,,,,,,,,,,,,,,,,,,,,,,,,,,,,,,,,,,,,,,,,,,,,,,,,,,,,,,
,,,,,,,,,,,,l,0.421,Correct!,0,99,99,70,1,t1.png,t5.png,4,9.55E-11,19,female,2020-08-19_17h31.06.936,torte-2b,2020.1.3,MacIntel,60,13340,,,,,,,,,,,,,,,,,,,,,,,,,,,,,,,,,,,,,,,,,,,,,,,,,,,,,,,,,,,,,,,,,
,,,,,,,,,,,,a,0.382,Correct!,0,100,100,105,1,t4.png,t1.png,3,0.059078,19,female,2020-08-19_17h31.06.936,torte-2b,2020.1.3,MacIntel,60,13340,,,,,,,,,,,,,,,,,,,,,,,,,,,,,,,,,,,,,,,,,,,,,,,,,,,,,,,,,,,,,,,,,
,,,,,,,,,,,,l,0.381,Incorrect,0,101,101,72,1,t5.png,t5.png,0,0.97829,19,female,2020-08-19_17h31.06.936,torte-2b,2020.1.3,MacIntel,60,13340,,,,,,,,,,,,,,,,,,,,,,,,,,,,,,,,,,,,,,,,,,,,,,,,,,,,,,,,,,,,,,,,,
,,,,,,,,,,,,a,0.266,Incorrect,0,102,102,34,1,t1.png,t5.png,4,9.55E-11,19,female,2020-08-19_17h31.06.936,torte-2b,2020.1.3,MacIntel,60,13340,,,,,,,,,,,,,,,,,,,,,,,,,,,,,,,,,,,,,,,,,,,,,,,,,,,,,,,,,,,,,,,,,
,,,,,,,,,,,,l,0.333,Incorrect,0,103,103,29,1,t3.png,t2.png,1,0.90855,19,female,2020-08-19_17h31.06.936,torte-2b,2020.1.3,MacIntel,60,13340,,,,,,,,,,,,,,,,,,,,,,,,,,,,,,,,,,,,,,,,,,,,,,,,,,,,,,,,,,,,,,,,,
,,,,,,,,,,,,l,0.283,Correct!,0,104,104,94,1,t3.png,t1.png,2,0.056466,19,female,2020-08-19_17h31.06.936,torte-2b,2020.1.3,MacIntel,60,13340,,,,,,,,,,,,,,,,,,,,,,,,,,,,,,,,,,,,,,,,,,,,,,,,,,,,,,,,,,,,,,,,,
,,,,,,,,,,,,a,0.535,Incorrect,0,105,105,57,1,t3.png,t1.png,2,0.056466,19,female,2020-08-19_17h31.06.936,torte-2b,2020.1.3,MacIntel,60,13340,,,,,,,,,,,,,,,,,,,,,,,,,,,,,,,,,,,,,,,,,,,,,,,,,,,,,,,,,,,,,,,,,
,,,,,,,,,,,,l,0.955,Correct!,0,106,106,117,1,t2.png,t4.png,2,0.059078,19,female,2020-08-19_17h31.06.936,torte-2b,2020.1.3,MacIntel,60,13340,,,,,,,,,,,,,,,,,,,,,,,,,,,,,,,,,,,,,,,,,,,,,,,,,,,,,,,,,,,,,,,,,
,,,,,,,,,,,,l,0.921,Incorrect,0,107,107,83,1,t3.png,t2.png,1,0.90855,19,female,2020-08-19_17h31.06.936,torte-2b,2020.1.3,MacIntel,60,13340,,,,,,,,,,,,,,,,,,,,,,,,,,,,,,,,,,,,,,,,,,,,,,,,,,,,,,,,,,,,,,,,,
,,,,,,,,,,,,a,0.699,Correct!,0,108,108,40,1,t2.png,t4.png,2,0.059078,19,female,2020-08-19_17h31.06.936,torte-2b,2020.1.3,MacIntel,60,13340,,,,,,,,,,,,,,,,,,,,,,,,,,,,,,,,,,,,,,,,,,,,,,,,,,,,,,,,,,,,,,,,,
,,,,,,,,,,,,l,0.455,Incorrect,0,109,109,84,1,t2.png,t3.png,1,0.90855,19,female,2020-08-19_17h31.06.936,torte-2b,2020.1.3,MacIntel,60,13340,,,,,,,,,,,,,,,,,,,,,,,,,,,,,,,,,,,,,,,,,,,,,,,,,,,,,,,,,,,,,,,,,
,,,,,,,,,,,,a,0.832,Incorrect,0,110,110,11,1,t1.png,t4.png,3,0.0000131,19,female,2020-08-19_17h31.06.936,torte-2b,2020.1.3,MacIntel,60,13340,,,,,,,,,,,,,,,,,,,,,,,,,,,,,,,,,,,,,,,,,,,,,,,,,,,,,,,,,,,,,,,,,
,,,,,,,,,,,,l,0.283,Incorrect,0,111,111,30,1,t2.png,t3.png,1,0.90855,19,female,2020-08-19_17h31.06.936,torte-2b,2020.1.3,MacIntel,60,13340,,,,,,,,,,,,,,,,,,,,,,,,,,,,,,,,,,,,,,,,,,,,,,,,,,,,,,,,,,,,,,,,,
,,,,,,,,,,,,l,0.314,Correct!,0,112,112,39,1,t2.png,t4.png,2,0.059078,19,female,2020-08-19_17h31.06.936,torte-2b,2020.1.3,MacIntel,60,13340,,,,,,,,,,,,,,,,,,,,,,,,,,,,,,,,,,,,,,,,,,,,,,,,,,,,,,,,,,,,,,,,,
,,,,,,,,,,,,a,0.438,Correct!,0,113,113,52,1,t2.png,t3.png,1,0.90855,19,female,2020-08-19_17h31.06.936,torte-2b,2020.1.3,MacIntel,60,13340,,,,,,,,,,,,,,,,,,,,,,,,,,,,,,,,,,,,,,,,,,,,,,,,,,,,,,,,,,,,,,,,,
,,,,,,,,,,,,a,0.381,Correct!,0,114,114,20,1,t5.png,t5.png,0,0.97829,19,female,2020-08-19_17h31.06.936,torte-2b,2020.1.3,MacIntel,60,13340,,,,,,,,,,,,,,,,,,,,,,,,,,,,,,,,,,,,,,,,,,,,,,,,,,,,,,,,,,,,,,,,,
,,,,,,,,,,,,l,0.2,Incorrect,0,115,115,23,1,t4.png,t5.png,1,0.90025,19,female,2020-08-19_17h31.06.936,torte-2b,2020.1.3,MacIntel,60,13340,,,,,,,,,,,,,,,,,,,,,,,,,,,,,,,,,,,,,,,,,,,,,,,,,,,,,,,,,,,,,,,,,
,,,,,,,,,,,,l,0.385,Incorrect,0,116,116,45,1,t4.png,t5.png,1,0.90025,19,female,2020-08-19_17h31.06.936,torte-2b,2020.1.3,MacIntel,60,13340,,,,,,,,,,,,,,,,,,,,,,,,,,,,,,,,,,,,,,,,,,,,,,,,,,,,,,,,,,,,,,,,,
,,,,,,,,,,,,a,0.105,Correct!,0,117,117,12,1,t5.png,t5.png,0,0.97829,19,female,2020-08-19_17h31.06.936,torte-2b,2020.1.3,MacIntel,60,13340,,,,,,,,,,,,,,,,,,,,,,,,,,,,,,,,,,,,,,,,,,,,,,,,,,,,,,,,,,,,,,,,,
,,,,,,,,,,,,l,0.498,Incorrect,0,118,118,93,1,t5.png,t4.png,1,0.90025,19,female,2020-08-19_17h31.06.936,torte-2b,2020.1.3,MacIntel,60,13340,,,,,,,,,,,,,,,,,,,,,,,,,,,,,,,,,,,,,,,,,,,,,,,,,,,,,,,,,,,,,,,,,
,,,,,,,,,,,,a,0.082,Incorrect,0,119,119,35,1,t1.png,t4.png,3,0.0000131,19,female,2020-08-19_17h31.06.936,torte-2b,2020.1.3,MacIntel,60,13340,,,,,,,,,,,,,,,,,,,,,,,,,,,,,,,,,,,,,,,,,,,,,,,,,,,,,,,,,,,,,,,,,
,,,,,,,,,,,,l,0.798,Incorrect,,,,,,t2.png,t3.png,1,0.90855,19,female,2020-08-19_17h31.06.936,torte-2b,2020.1.3,MacIntel,60,13340,space,184.638,space,23.54,0,0,0,70,1,,,,,,,,,,,,,,,,,,,,,,,,,,,,,,,,,,,,,,,,,,,,,,,,,,,,,,,,
,,,,,,,,,,,,a,0.632,Incorrect,,,,,,t5.png,t1.png,4,9.55E-11,19,female,2020-08-19_17h31.06.936,torte-2b,2020.1.3,MacIntel,60,13340,,,,,0,1,1,31,1,,,,,,,,,,,,,,,,,,,,,,,,,,,,,,,,,,,,,,,,,,,,,,,,,,,,,,,,
,,,,,,,,,,,,a,0.733,Incorrect,,,,,,t5.png,t2.png,3,0.0000131,19,female,2020-08-19_17h31.06.936,torte-2b,2020.1.3,MacIntel,60,13340,,,,,0,2,2,66,1,,,,,,,,,,,,,,,,,,,,,,,,,,,,,,,,,,,,,,,,,,,,,,,,,,,,,,,,
,,,,,,,,,,,,l,2.154,Incorrect,,,,,,t5.png,t4.png,1,0.90025,19,female,2020-08-19_17h31.06.936,torte-2b,2020.1.3,MacIntel,60,13340,,,,,0,3,3,38,1,,,,,,,,,,,,,,,,,,,,,,,,,,,,,,,,,,,,,,,,,,,,,,,,,,,,,,,,
,,,,,,,,,,,,a,0.588,Correct!,,,,,,t2.png,t1.png,1,0.9,19,female,2020-08-19_17h31.06.936,torte-2b,2020.1.3,MacIntel,60,13340,,,,,0,4,4,93,1,,,,,,,,,,,,,,,,,,,,,,,,,,,,,,,,,,,,,,,,,,,,,,,,,,,,,,,,
,,,,,,,,,,,,a,0.52,Incorrect,,,,,,t3.png,t1.png,2,0.0565,19,female,2020-08-19_17h31.06.936,torte-2b,2020.1.3,MacIntel,60,13340,,,,,0,5,5,40,1,,,,,,,,,,,,,,,,,,,,,,,,,,,,,,,,,,,,,,,,,,,,,,,,,,,,,,,,
,,,,,,,,,,,,a,0.582,Incorrect,,,,,,t2.png,t1.png,1,0.9,19,female,2020-08-19_17h31.06.936,torte-2b,2020.1.3,MacIntel,60,13340,,,,,0,6,6,100,1,,,,,,,,,,,,,,,,,,,,,,,,,,,,,,,,,,,,,,,,,,,,,,,,,,,,,,,,
,,,,,,,,,,,,l,0.633,Incorrect,,,,,,t4.png,t5.png,1,0.90025,19,female,2020-08-19_17h31.06.936,torte-2b,2020.1.3,MacIntel,60,13340,,,,,0,7,7,33,1,,,,,,,,,,,,,,,,,,,,,,,,,,,,,,,,,,,,,,,,,,,,,,,,,,,,,,,,
,,,,,,,,,,,,l,1.171,Incorrect,,,,,,t5.png,t5.png,0,0.978,19,female,2020-08-19_17h31.06.936,torte-2b,2020.1.3,MacIntel,60,13340,,,,,0,8,8,116,1,,,,,,,,,,,,,,,,,,,,,,,,,,,,,,,,,,,,,,,,,,,,,,,,,,,,,,,,
,,,,,,,,,,,,a,0.719,Correct!,,,,,,t5.png,t5.png,0,0.97829,19,female,2020-08-19_17h31.06.936,torte-2b,2020.1.3,MacIntel,60,13340,,,,,0,9,9,77,1,,,,,,,,,,,,,,,,,,,,,,,,,,,,,,,,,,,,,,,,,,,,,,,,,,,,,,,,
,,,,,,,,,,,,a,0.754,Incorrect,,,,,,t4.png,t1.png,3,0.059078,19,female,2020-08-19_17h31.06.936,torte-2b,2020.1.3,MacIntel,60,13340,,,,,0,10,10,73,1,,,,,,,,,,,,,,,,,,,,,,,,,,,,,,,,,,,,,,,,,,,,,,,,,,,,,,,,
,,,,,,,,,,,,l,1.069,Correct!,,,,,,t1.png,t4.png,3,0.0000131,19,female,2020-08-19_17h31.06.936,torte-2b,2020.1.3,MacIntel,60,13340,,,,,0,11,11,16,1,,,,,,,,,,,,,,,,,,,,,,,,,,,,,,,,,,,,,,,,,,,,,,,,,,,,,,,,
,,,,,,,,,,,,a,1.365,Correct!,,,,,,t5.png,t4.png,1,0.9,19,female,2020-08-19_17h31.06.936,torte-2b,2020.1.3,MacIntel,60,13340,,,,,0,12,12,55,1,,,,,,,,,,,,,,,,,,,,,,,,,,,,,,,,,,,,,,,,,,,,,,,,,,,,,,,,
,,,,,,,,,,,,a,0.649,Correct!,,,,,,t4.png,t3.png,1,0.90855,19,female,2020-08-19_17h31.06.936,torte-2b,2020.1.3,MacIntel,60,13340,,,,,0,13,13,29,1,,,,,,,,,,,,,,,,,,,,,,,,,,,,,,,,,,,,,,,,,,,,,,,,,,,,,,,,
,,,,,,,,,,,,l,0.639,Incorrect,,,,,,t1.png,t2.png,1,0.9,19,female,2020-08-19_17h31.06.936,torte-2b,2020.1.3,MacIntel,60,13340,,,,,0,14,14,41,1,,,,,,,,,,,,,,,,,,,,,,,,,,,,,,,,,,,,,,,,,,,,,,,,,,,,,,,,
,,,,,,,,,,,,l,0.883,Correct!,,,,,,t2.png,t4.png,2,0.059078,19,female,2020-08-19_17h31.06.936,torte-2b,2020.1.3,MacIntel,60,13340,,,,,0,15,15,18,1,,,,,,,,,,,,,,,,,,,,,,,,,,,,,,,,,,,,,,,,,,,,,,,,,,,,,,,,
,,,,,,,,,,,,l,0.533,Correct!,,,,,,t1.png,t4.png,3,0.0000131,19,female,2020-08-19_17h31.06.936,torte-2b,2020.1.3,MacIntel,60,13340,,,,,0,16,16,36,1,,,,,,,,,,,,,,,,,,,,,,,,,,,,,,,,,,,,,,,,,,,,,,,,,,,,,,,,
,,,,,,,,,,,,a,0.617,Incorrect,,,,,,t5.png,t1.png,4,9.55E-11,19,female,2020-08-19_17h31.06.936,torte-2b,2020.1.3,MacIntel,60,13340,,,,,0,17,17,101,1,,,,,,,,,,,,,,,,,,,,,,,,,,,,,,,,,,,,,,,,,,,,,,,,,,,,,,,,
,,,,,,,,,,,,a,0.667,Incorrect,,,,,,t5.png,t2.png,3,0.0000131,19,female,2020-08-19_17h31.06.936,torte-2b,2020.1.3,MacIntel,60,13340,,,,,0,18,18,48,1,,,,,,,,,,,,,,,,,,,,,,,,,,,,,,,,,,,,,,,,,,,,,,,,,,,,,,,,
,,,,,,,,,,,,a,0.931,Correct!,,,,,,t5.png,t4.png,1,0.90025,19,female,2020-08-19_17h31.06.936,torte-2b,2020.1.3,MacIntel,60,13340,,,,,0,19,19,25,1,,,,,,,,,,,,,,,,,,,,,,,,,,,,,,,,,,,,,,,,,,,,,,,,,,,,,,,,
,,,,,,,,,,,,l,0.583,Correct!,,,,,,t2.png,t5.png,3,0.0000131,19,female,2020-08-19_17h31.06.936,torte-2b,2020.1.3,MacIntel,60,13340,,,,,0,20,20,46,1,,,,,,,,,,,,,,,,,,,,,,,,,,,,,,,,,,,,,,,,,,,,,,,,,,,,,,,,
,,,,,,,,,,,,a,0.487,Incorrect,,,,,,t4.png,t1.png,3,0.059078,19,female,2020-08-19_17h31.06.936,torte-2b,2020.1.3,MacIntel,60,13340,,,,,0,21,21,57,1,,,,,,,,,,,,,,,,,,,,,,,,,,,,,,,,,,,,,,,,,,,,,,,,,,,,,,,,
,,,,,,,,,,,,a,0.732,Incorrect,,,,,,t4.png,t1.png,3,0.0000131,19,female,2020-08-19_17h31.06.936,torte-2b,2020.1.3,MacIntel,60,13340,,,,,0,22,22,102,1,,,,,,,,,,,,,,,,,,,,,,,,,,,,,,,,,,,,,,,,,,,,,,,,,,,,,,,,
,,,,,,,,,,,,l,1.033,Incorrect,,,,,,t4.png,t4.png,0,0.98115,19,female,2020-08-19_17h31.06.936,torte-2b,2020.1.3,MacIntel,60,13340,,,,,0,23,23,19,1,,,,,,,,,,,,,,,,,,,,,,,,,,,,,,,,,,,,,,,,,,,,,,,,,,,,,,,,
,,,,,,,,,,,,l,0.621,Incorrect,,,,,,t5.png,t5.png,0,0.97829,19,female,2020-08-19_17h31.06.936,torte-2b,2020.1.3,MacIntel,60,13340,,,,,0,24,24,35,1,,,,,,,,,,,,,,,,,,,,,,,,,,,,,,,,,,,,,,,,,,,,,,,,,,,,,,,,
,,,,,,,,,,,,l,0.481,Correct!,,,,,,t3.png,t5.png,2,0.056466,19,female,2020-08-19_17h31.06.936,torte-2b,2020.1.3,MacIntel,60,13340,,,,,0,25,25,45,1,,,,,,,,,,,,,,,,,,,,,,,,,,,,,,,,,,,,,,,,,,,,,,,,,,,,,,,,
,,,,,,,,,,,,l,0.503,Correct!,,,,,,t1.png,t4.png,3,0.0000131,19,female,2020-08-19_17h31.06.936,torte-2b,2020.1.3,MacIntel,60,13340,,,,,0,26,26,74,1,,,,,,,,,,,,,,,,,,,,,,,,,,,,,,,,,,,,,,,,,,,,,,,,,,,,,,,,
,,,,,,,,,,,,l,1.03,Incorrect,,,,,,t2.png,t2.png,0,0.98115,19,female,2020-08-19_17h31.06.936,torte-2b,2020.1.3,MacIntel,60,13340,,,,,0,27,27,112,1,,,,,,,,,,,,,,,,,,,,,,,,,,,,,,,,,,,,,,,,,,,,,,,,,,,,,,,,
,,,,,,,,,,,,a,0.568,Correct!,,,,,,t2.png,t1.png,1,0.90025,19,female,2020-08-19_17h31.06.936,torte-2b,2020.1.3,MacIntel,60,13340,,,,,0,28,28,105,1,,,,,,,,,,,,,,,,,,,,,,,,,,,,,,,,,,,,,,,,,,,,,,,,,,,,,,,,
,,,,,,,,,,,,a,1.155,Incorrect,,,,,,t5.png,t4.png,1,0.9,19,female,2020-08-19_17h31.06.936,torte-2b,2020.1.3,MacIntel,60,13340,,,,,0,29,29,92,1,,,,,,,,,,,,,,,,,,,,,,,,,,,,,,,,,,,,,,,,,,,,,,,,,,,,,,,,
,,,,,,,,,,,,l,0.517,Incorrect,,,,,,t2.png,t2.png,0,0.98115,19,female,2020-08-19_17h31.06.936,torte-2b,2020.1.3,MacIntel,60,13340,,,,,0,30,30,69,1,,,,,,,,,,,,,,,,,,,,,,,,,,,,,,,,,,,,,,,,,,,,,,,,,,,,,,,,
,,,,,,,,,,,,l,0.699,Incorrect,,,,,,t3.png,t4.png,1,0.90855,19,female,2020-08-19_17h31.06.936,torte-2b,2020.1.3,MacIntel,60,13340,,,,,0,31,31,111,1,,,,,,,,,,,,,,,,,,,,,,,,,,,,,,,,,,,,,,,,,,,,,,,,,,,,,,,,
,,,,,,,,,,,,l,0.872,Incorrect,,,,,,t4.png,t5.png,1,0.90025,19,female,2020-08-19_17h31.06.936,torte-2b,2020.1.3,MacIntel,60,13340,,,,,0,32,32,86,1,,,,,,,,,,,,,,,,,,,,,,,,,,,,,,,,,,,,,,,,,,,,,,,,,,,,,,,,
,,,,,,,,,,,,a,0.749,Incorrect,,,,,,t4.png,t1.png,3,0.059078,19,female,2020-08-19_17h31.06.936,torte-2b,2020.1.3,MacIntel,60,13340,,,,,0,33,33,75,1,,,,,,,,,,,,,,,,,,,,,,,,,,,,,,,,,,,,,,,,,,,,,,,,,,,,,,,,
,,,,,,,,,,,,a,0.517,Incorrect,,,,,,t5.png,t3.png,2,0.0565,19,female,2020-08-19_17h31.06.936,torte-2b,2020.1.3,MacIntel,60,13340,,,,,0,34,34,50,1,,,,,,,,,,,,,,,,,,,,,,,,,,,,,,,,,,,,,,,,,,,,,,,,,,,,,,,,
,,,,,,,,,,,,l,1.572,Incorrect,,,,,,t5.png,t5.png,0,0.978,19,female,2020-08-19_17h31.06.936,torte-2b,2020.1.3,MacIntel,60,13340,,,,,0,35,35,51,1,,,,,,,,,,,,,,,,,,,,,,,,,,,,,,,,,,,,,,,,,,,,,,,,,,,,,,,,
,,,,,,,,,,,,a,0.487,Incorrect,,,,,,t4.png,t1.png,3,0.0000131,19,female,2020-08-19_17h31.06.936,torte-2b,2020.1.3,MacIntel,60,13340,,,,,0,36,36,76,1,,,,,,,,,,,,,,,,,,,,,,,,,,,,,,,,,,,,,,,,,,,,,,,,,,,,,,,,
,,,,,,,,,,,,l,0.621,Incorrect,,,,,,t4.png,t5.png,1,0.9,19,female,2020-08-19_17h31.06.936,torte-2b,2020.1.3,MacIntel,60,13340,,,,,0,37,37,81,1,,,,,,,,,,,,,,,,,,,,,,,,,,,,,,,,,,,,,,,,,,,,,,,,,,,,,,,,
,,,,,,,,,,,,a,0.539,Incorrect,,,,,,t5.png,t1.png,4,9.55E-11,19,female,2020-08-19_17h31.06.936,torte-2b,2020.1.3,MacIntel,60,13340,,,,,0,38,38,89,1,,,,,,,,,,,,,,,,,,,,,,,,,,,,,,,,,,,,,,,,,,,,,,,,,,,,,,,,
,,,,,,,,,,,,l,0.599,Incorrect,,,,,,t1.png,t2.png,1,0.90025,19,female,2020-08-19_17h31.06.936,torte-2b,2020.1.3,MacIntel,60,13340,,,,,0,39,39,96,1,,,,,,,,,,,,,,,,,,,,,,,,,,,,,,,,,,,,,,,,,,,,,,,,,,,,,,,,
,,,,,,,,,,,,l,0.8,Correct!,,,,,,t2.png,t4.png,2,0.059078,19,female,2020-08-19_17h31.06.936,torte-2b,2020.1.3,MacIntel,60,13340,,,,,0,40,40,67,1,,,,,,,,,,,,,,,,,,,,,,,,,,,,,,,,,,,,,,,,,,,,,,,,,,,,,,,,
,,,,,,,,,,,,a,0.624,Incorrect,,,,,,t3.png,t1.png,2,0.056466,19,female,2020-08-19_17h31.06.936,torte-2b,2020.1.3,MacIntel,60,13340,,,,,0,41,41,109,1,,,,,,,,,,,,,,,,,,,,,,,,,,,,,,,,,,,,,,,,,,,,,,,,,,,,,,,,
,,,,,,,,,,,,a,1.8,Correct!,,,,,,t3.png,t2.png,1,0.90855,19,female,2020-08-19_17h31.06.936,torte-2b,2020.1.3,MacIntel,60,13340,,,,,0,42,42,94,1,,,,,,,,,,,,,,,,,,,,,,,,,,,,,,,,,,,,,,,,,,,,,,,,,,,,,,,,
,,,,,,,,,,,,l,1.631,Correct!,,,,,,t2.png,t5.png,3,0.0000131,19,female,2020-08-19_17h31.06.936,torte-2b,2020.1.3,MacIntel,60,13340,,,,,0,43,43,39,1,,,,,,,,,,,,,,,,,,,,,,,,,,,,,,,,,,,,,,,,,,,,,,,,,,,,,,,,
,,,,,,,,,,,,a,1.382,Incorrect,,,,,,t5.png,t1.png,4,9.55E-11,19,female,2020-08-19_17h31.06.936,torte-2b,2020.1.3,MacIntel,60,13340,,,,,0,44,44,15,1,,,,,,,,,,,,,,,,,,,,,,,,,,,,,,,,,,,,,,,,,,,,,,,,,,,,,,,,
,,,,,,,,,,,,a,0.65,Incorrect,,,,,,t5.png,t2.png,3,0.0000131,19,female,2020-08-19_17h31.06.936,torte-2b,2020.1.3,MacIntel,60,13340,,,,,0,45,45,43,1,,,,,,,,,,,,,,,,,,,,,,,,,,,,,,,,,,,,,,,,,,,,,,,,,,,,,,,,
,,,,,,,,,,,,l,0.584,Incorrect,,,,,,t3.png,t4.png,1,0.90855,19,female,2020-08-19_17h31.06.936,torte-2b,2020.1.3,MacIntel,60,13340,,,,,0,46,46,9,1,,,,,,,,,,,,,,,,,,,,,,,,,,,,,,,,,,,,,,,,,,,,,,,,,,,,,,,,
,,,,,,,,,,,,a,0.573,Correct!,,,,,,t3.png,t2.png,1,0.90855,19,female,2020-08-19_17h31.06.936,torte-2b,2020.1.3,MacIntel,60,13340,,,,,0,47,47,10,1,,,,,,,,,,,,,,,,,,,,,,,,,,,,,,,,,,,,,,,,,,,,,,,,,,,,,,,,
,,,,,,,,,,,,l,0.787,Incorrect,,,,,,t2.png,t3.png,1,0.90855,19,female,2020-08-19_17h31.06.936,torte-2b,2020.1.3,MacIntel,60,13340,,,,,0,48,48,79,1,,,,,,,,,,,,,,,,,,,,,,,,,,,,,,,,,,,,,,,,,,,,,,,,,,,,,,,,
,,,,,,,,,,,,a,2.2,Incorrect,,,,,,t5.png,t3.png,2,0.056466,19,female,2020-08-19_17h31.06.936,torte-2b,2020.1.3,MacIntel,60,13340,,,,,0,49,49,26,1,,,,,,,,,,,,,,,,,,,,,,,,,,,,,,,,,,,,,,,,,,,,,,,,,,,,,,,,
,,,,,,,,,,,,l,1.099,Correct!,,,,,,t1.png,t3.png,2,0.0565,19,female,2020-08-19_17h31.06.936,torte-2b,2020.1.3,MacIntel,60,13340,,,,,0,50,50,95,1,,,,,,,,,,,,,,,,,,,,,,,,,,,,,,,,,,,,,,,,,,,,,,,,,,,,,,,,
,,,,,,,,,,,,,,Too slow :(,,,,,,t2.png,t4.png,2,0.059078,19,female,2020-08-19_17h31.06.936,torte-2b,2020.1.3,MacIntel,60,13340,,,,,0,51,51,97,1,,,,,,,,,,,,,,,,,,,,,,,,,,,,,,,,,,,,,,,,,,,,,,,,,,,,,,,,
,,,,,,,,,,,,l,0.954,Correct!,,,,,,t1.png,t5.png,4,9.55E-11,19,female,2020-08-19_17h31.06.936,torte-2b,2020.1.3,MacIntel,60,13340,,,,,0,52,52,30,1,,,,,,,,,,,,,,,,,,,,,,,,,,,,,,,,,,,,,,,,,,,,,,,,,,,,,,,,
,,,,,,,,,,,,a,0.532,Correct!,,,,,,t4.png,t3.png,1,0.909,19,female,2020-08-19_17h31.06.936,torte-2b,2020.1.3,MacIntel,60,13340,,,,,0,53,53,119,1,,,,,,,,,,,,,,,,,,,,,,,,,,,,,,,,,,,,,,,,,,,,,,,,,,,,,,,,
,,,,,,,,,,,,l,0.636,Incorrect,,,,,,t2.png,t3.png,1,0.909,19,female,2020-08-19_17h31.06.936,torte-2b,2020.1.3,MacIntel,60,13340,,,,,0,54,54,8,1,,,,,,,,,,,,,,,,,,,,,,,,,,,,,,,,,,,,,,,,,,,,,,,,,,,,,,,,
,,,,,,,,,,,,l,0.632,Correct!,,,,,,t3.png,t5.png,2,0.056466,19,female,2020-08-19_17h31.06.936,torte-2b,2020.1.3,MacIntel,60,13340,,,,,0,55,55,47,1,,,,,,,,,,,,,,,,,,,,,,,,,,,,,,,,,,,,,,,,,,,,,,,,,,,,,,,,
,,,,,,,,,,,,l,0.416,Correct!,,,,,,t3.png,t5.png,2,0.0565,19,female,2020-08-19_17h31.06.936,torte-2b,2020.1.3,MacIntel,60,13340,,,,,0,56,56,71,1,,,,,,,,,,,,,,,,,,,,,,,,,,,,,,,,,,,,,,,,,,,,,,,,,,,,,,,,
,,,,,,,,,,,,a,0.487,Incorrect,,,,,,t3.png,t5.png,2,0.056466,19,female,2020-08-19_17h31.06.936,torte-2b,2020.1.3,MacIntel,60,13340,,,,,0,57,57,78,1,,,,,,,,,,,,,,,,,,,,,,,,,,,,,,,,,,,,,,,,,,,,,,,,,,,,,,,,
,,,,,,,,,,,,a,0.518,Incorrect,,,,,,t3.png,t1.png,2,0.056466,19,female,2020-08-19_17h31.06.936,torte-2b,2020.1.3,MacIntel,60,13340,,,,,0,58,58,34,1,,,,,,,,,,,,,,,,,,,,,,,,,,,,,,,,,,,,,,,,,,,,,,,,,,,,,,,,
,,,,,,,,,,,,l,0.353,Correct!,,,,,,t1.png,t5.png,4,9.55E-11,19,female,2020-08-19_17h31.06.936,torte-2b,2020.1.3,MacIntel,60,13340,,,,,0,59,59,20,1,,,,,,,,,,,,,,,,,,,,,,,,,,,,,,,,,,,,,,,,,,,,,,,,,,,,,,,,
,,,,,,,,,,,,a,0.966,Correct!,,,,,,t1.png,t1.png,0,0.97829,19,female,2020-08-19_17h31.06.936,torte-2b,2020.1.3,MacIntel,60,13340,,,,,0,60,60,4,1,,,,,,,,,,,,,,,,,,,,,,,,,,,,,,,,,,,,,,,,,,,,,,,,,,,,,,,,
,,,,,,,,,,,,a,0.432,Incorrect,,,,,,t3.png,t1.png,2,0.0565,19,female,2020-08-19_17h31.06.936,torte-2b,2020.1.3,MacIntel,60,13340,,,,,0,61,61,104,1,,,,,,,,,,,,,,,,,,,,,,,,,,,,,,,,,,,,,,,,,,,,,,,,,,,,,,,,
,,,,,,,,,,,,l,0.366,Incorrect,,,,,,t4.png,t4.png,0,0.98115,19,female,2020-08-19_17h31.06.936,torte-2b,2020.1.3,MacIntel,60,13340,,,,,0,62,62,59,1,,,,,,,,,,,,,,,,,,,,,,,,,,,,,,,,,,,,,,,,,,,,,,,,,,,,,,,,
,,,,,,,,,,,,a,0.532,Correct!,,,,,,t4.png,t3.png,1,0.90855,19,female,2020-08-19_17h31.06.936,torte-2b,2020.1.3,MacIntel,60,13340,,,,,0,63,63,56,1,,,,,,,,,,,,,,,,,,,,,,,,,,,,,,,,,,,,,,,,,,,,,,,,,,,,,,,,
,,,,,,,,,,,,l,0.721,Correct!,,,,,,t1.png,t5.png,4,9.55E-11,19,female,2020-08-19_17h31.06.936,torte-2b,2020.1.3,MacIntel,60,13340,,,,,0,64,64,3,1,,,,,,,,,,,,,,,,,,,,,,,,,,,,,,,,,,,,,,,,,,,,,,,,,,,,,,,,
,,,,,,,,,,,,a,0.817,Incorrect,,,,,,t2.png,t1.png,1,0.90025,19,female,2020-08-19_17h31.06.936,torte-2b,2020.1.3,MacIntel,60,13340,,,,,0,65,65,44,1,,,,,,,,,,,,,,,,,,,,,,,,,,,,,,,,,,,,,,,,,,,,,,,,,,,,,,,,
,,,,,,,,,,,,a,0.616,Incorrect,,,,,,t4.png,t1.png,3,0.0000131,19,female,2020-08-19_17h31.06.936,torte-2b,2020.1.3,MacIntel,60,13340,,,,,0,66,66,49,1,,,,,,,,,,,,,,,,,,,,,,,,,,,,,,,,,,,,,,,,,,,,,,,,,,,,,,,,
,,,,,,,,,,,,a,0.539,Incorrect,,,,,,t5.png,t2.png,3,0.0000131,19,female,2020-08-19_17h31.06.936,torte-2b,2020.1.3,MacIntel,60,13340,,,,,0,67,67,82,1,,,,,,,,,,,,,,,,,,,,,,,,,,,,,,,,,,,,,,,,,,,,,,,,,,,,,,,,
,,,,,,,,,,,,a,0.465,Correct!,,,,,,t5.png,t4.png,1,0.90025,19,female,2020-08-19_17h31.06.936,torte-2b,2020.1.3,MacIntel,60,13340,,,,,0,68,68,14,1,,,,,,,,,,,,,,,,,,,,,,,,,,,,,,,,,,,,,,,,,,,,,,,,,,,,,,,,
,,,,,,,,,,,,l,0.52,Correct!,,,,,,t1.png,t3.png,2,0.056466,19,female,2020-08-19_17h31.06.936,torte-2b,2020.1.3,MacIntel,60,13340,,,,,0,69,69,32,1,,,,,,,,,,,,,,,,,,,,,,,,,,,,,,,,,,,,,,,,,,,,,,,,,,,,,,,,
,,,,,,,,,,,,l,0.4,Incorrect,,,,,,t2.png,t2.png,0,0.98115,19,female,2020-08-19_17h31.06.936,torte-2b,2020.1.3,MacIntel,60,13340,,,,,0,70,70,90,1,,,,,,,,,,,,,,,,,,,,,,,,,,,,,,,,,,,,,,,,,,,,,,,,,,,,,,,,
,,,,,,,,,,,,l,0.622,Incorrect,,,,,,t1.png,t1.png,0,0.978,19,female,2020-08-19_17h31.06.936,torte-2b,2020.1.3,MacIntel,60,13340,,,,,0,71,71,22,1,,,,,,,,,,,,,,,,,,,,,,,,,,,,,,,,,,,,,,,,,,,,,,,,,,,,,,,,
,,,,,,,,,,,,a,0.533,Incorrect,,,,,,t3.png,t1.png,2,0.056466,19,female,2020-08-19_17h31.06.936,torte-2b,2020.1.3,MacIntel,60,13340,,,,,0,72,72,72,1,,,,,,,,,,,,,,,,,,,,,,,,,,,,,,,,,,,,,,,,,,,,,,,,,,,,,,,,
,,,,,,,,,,,,a,0.716,Correct!,,,,,,t1.png,t1.png,0,0.97829,19,female,2020-08-19_17h31.06.936,torte-2b,2020.1.3,MacIntel,60,13340,,,,,0,73,73,114,1,,,,,,,,,,,,,,,,,,,,,,,,,,,,,,,,,,,,,,,,,,,,,,,,,,,,,,,,
,,,,,,,,,,,,l,0.918,Incorrect,,,,,,t1.png,t2.png,1,0.9,19,female,2020-08-19_17h31.06.936,torte-2b,2020.1.3,MacIntel,60,13340,,,,,0,74,74,17,1,,,,,,,,,,,,,,,,,,,,,,,,,,,,,,,,,,,,,,,,,,,,,,,,,,,,,,,,
,,,,,,,,,,,,l,1.734,Incorrect,,,,,,t2.png,t3.png,1,0.90855,19,female,2020-08-19_17h31.06.936,torte-2b,2020.1.3,MacIntel,60,13340,,,,,0,75,75,113,1,,,,,,,,,,,,,,,,,,,,,,,,,,,,,,,,,,,,,,,,,,,,,,,,,,,,,,,,
,,,,,,,,,,,,l,0.882,Correct!,,,,,,t1.png,t5.png,4,9.55E-11,19,female,2020-08-19_17h31.06.936,torte-2b,2020.1.3,MacIntel,60,13340,,,,,0,76,76,118,1,,,,,,,,,,,,,,,,,,,,,,,,,,,,,,,,,,,,,,,,,,,,,,,,,,,,,,,,
,,,,,,,,,,,,l,0.719,Correct!,,,,,,t1.png,t4.png,3,0.0000131,19,female,2020-08-19_17h31.06.936,torte-2b,2020.1.3,MacIntel,60,13340,,,,,0,77,77,23,1,,,,,,,,,,,,,,,,,,,,,,,,,,,,,,,,,,,,,,,,,,,,,,,,,,,,,,,,
,,,,,,,,,,,,a,0.904,Incorrect,,,,,,t5.png,t3.png,2,0.056466,19,female,2020-08-19_17h31.06.936,torte-2b,2020.1.3,MacIntel,60,13340,,,,,0,78,78,27,1,,,,,,,,,,,,,,,,,,,,,,,,,,,,,,,,,,,,,,,,,,,,,,,,,,,,,,,,
,,,,,,,,,,,,l,0.488,Incorrect,,,,,,t4.png,t4.png,0,0.98115,19,female,2020-08-19_17h31.06.936,torte-2b,2020.1.3,MacIntel,60,13340,,,,,0,79,79,68,1,,,,,,,,,,,,,,,,,,,,,,,,,,,,,,,,,,,,,,,,,,,,,,,,,,,,,,,,
,,,,,,,,,,,,l,0.903,Incorrect,,,,,,t3.png,t4.png,1,0.90855,19,female,2020-08-19_17h31.06.936,torte-2b,2020.1.3,MacIntel,60,13340,,,,,0,80,80,5,1,,,,,,,,,,,,,,,,,,,,,,,,,,,,,,,,,,,,,,,,,,,,,,,,,,,,,,,,
,,,,,,,,,,,,l,0.766,Incorrect,,,,,,t4.png,t4.png,0,0.98115,19,female,2020-08-19_17h31.06.936,torte-2b,2020.1.3,MacIntel,60,13340,,,,,0,81,81,52,1,,,,,,,,,,,,,,,,,,,,,,,,,,,,,,,,,,,,,,,,,,,,,,,,,,,,,,,,
,,,,,,,,,,,,l,0.505,Correct!,,,,,,t2.png,t4.png,2,0.059078,19,female,2020-08-19_17h31.06.936,torte-2b,2020.1.3,MacIntel,60,13340,,,,,0,82,82,84,1,,,,,,,,,,,,,,,,,,,,,,,,,,,,,,,,,,,,,,,,,,,,,,,,,,,,,,,,
,,,,,,,,,,,,a,0.871,Incorrect,,,,,,t4.png,t1.png,3,0.059078,19,female,2020-08-19_17h31.06.936,torte-2b,2020.1.3,MacIntel,60,13340,,,,,0,83,83,62,1,,,,,,,,,,,,,,,,,,,,,,,,,,,,,,,,,,,,,,,,,,,,,,,,,,,,,,,,
,,,,,,,,,,,,l,0.817,Incorrect,,,,,,t1.png,t1.png,0,0.97829,19,female,2020-08-19_17h31.06.936,torte-2b,2020.1.3,MacIntel,60,13340,,,,,0,84,84,110,1,,,,,,,,,,,,,,,,,,,,,,,,,,,,,,,,,,,,,,,,,,,,,,,,,,,,,,,,
,,,,,,,,,,,,l,0.716,Incorrect,,,,,,t4.png,t5.png,1,0.90025,19,female,2020-08-19_17h31.06.936,torte-2b,2020.1.3,MacIntel,60,13340,,,,,0,85,85,21,1,,,,,,,,,,,,,,,,,,,,,,,,,,,,,,,,,,,,,,,,,,,,,,,,,,,,,,,,
,,,,,,,,,,,,a,0.699,Incorrect,,,,,,t5.png,t2.png,3,0.0000131,19,female,2020-08-19_17h31.06.936,torte-2b,2020.1.3,MacIntel,60,13340,,,,,0,86,86,83,1,,,,,,,,,,,,,,,,,,,,,,,,,,,,,,,,,,,,,,,,,,,,,,,,,,,,,,,,
,,,,,,,,,,,,a,0.453,Incorrect,,,,,,t4.png,t1.png,3,0.059078,19,female,2020-08-19_17h31.06.936,torte-2b,2020.1.3,MacIntel,60,13340,,,,,0,87,87,87,1,,,,,,,,,,,,,,,,,,,,,,,,,,,,,,,,,,,,,,,,,,,,,,,,,,,,,,,,
,,,,,,,,,,,,a,0.483,Correct!,,,,,,t3.png,t2.png,1,0.90855,19,female,2020-08-19_17h31.06.936,torte-2b,2020.1.3,MacIntel,60,13340,,,,,0,88,88,0,1,,,,,,,,,,,,,,,,,,,,,,,,,,,,,,,,,,,,,,,,,,,,,,,,,,,,,,,,
,,,,,,,,,,,,l,0.652,Incorrect,,,,,,t2.png,t2.png,0,0.98115,19,female,2020-08-19_17h31.06.936,torte-2b,2020.1.3,MacIntel,60,13340,,,,,0,89,89,7,1,,,,,,,,,,,,,,,,,,,,,,,,,,,,,,,,,,,,,,,,,,,,,,,,,,,,,,,,
,,,,,,,,,,,,l,1.538,Correct!,,,,,,t1.png,t5.png,4,9.55E-11,19,female,2020-08-19_17h31.06.936,torte-2b,2020.1.3,MacIntel,60,13340,,,,,0,90,90,1,1,,,,,,,,,,,,,,,,,,,,,,,,,,,,,,,,,,,,,,,,,,,,,,,,,,,,,,,,
,,,,,,,,,,,,l,0.5,Correct!,,,,,,t2.png,t4.png,2,0.059078,19,female,2020-08-19_17h31.06.936,torte-2b,2020.1.3,MacIntel,60,13340,,,,,0,91,91,53,1,,,,,,,,,,,,,,,,,,,,,,,,,,,,,,,,,,,,,,,,,,,,,,,,,,,,,,,,
,,,,,,,,,,,,l,0.45,Correct!,,,,,,t1.png,t4.png,3,0.0000131,19,female,2020-08-19_17h31.06.936,torte-2b,2020.1.3,MacIntel,60,13340,,,,,0,92,92,106,1,,,,,,,,,,,,,,,,,,,,,,,,,,,,,,,,,,,,,,,,,,,,,,,,,,,,,,,,
,,,,,,,,,,,,l,0.57,Correct!,,,,,,t1.png,t3.png,2,0.056466,19,female,2020-08-19_17h31.06.936,torte-2b,2020.1.3,MacIntel,60,13340,,,,,0,93,93,24,1,,,,,,,,,,,,,,,,,,,,,,,,,,,,,,,,,,,,,,,,,,,,,,,,,,,,,,,,
,,,,,,,,,,,,l,0.465,Incorrect,,,,,,t2.png,t2.png,0,0.981,19,female,2020-08-19_17h31.06.936,torte-2b,2020.1.3,MacIntel,60,13340,,,,,0,94,94,98,1,,,,,,,,,,,,,,,,,,,,,,,,,,,,,,,,,,,,,,,,,,,,,,,,,,,,,,,,
,,,,,,,,,,,,l,0.45,Correct!,,,,,,t3.png,t5.png,2,0.056466,19,female,2020-08-19_17h31.06.936,torte-2b,2020.1.3,MacIntel,60,13340,,,,,0,95,95,60,1,,,,,,,,,,,,,,,,,,,,,,,,,,,,,,,,,,,,,,,,,,,,,,,,,,,,,,,,
,,,,,,,,,,,,a,0.799,Incorrect,,,,,,t5.png,t3.png,2,0.056466,19,female,2020-08-19_17h31.06.936,torte-2b,2020.1.3,MacIntel,60,13340,,,,,0,96,96,37,1,,,,,,,,,,,,,,,,,,,,,,,,,,,,,,,,,,,,,,,,,,,,,,,,,,,,,,,,
,,,,,,,,,,,,a,0.667,Correct!,,,,,,t3.png,t2.png,1,0.90855,19,female,2020-08-19_17h31.06.936,torte-2b,2020.1.3,MacIntel,60,13340,,,,,0,97,97,99,1,,,,,,,,,,,,,,,,,,,,,,,,,,,,,,,,,,,,,,,,,,,,,,,,,,,,,,,,
,,,,,,,,,,,,l,0.4,Correct!,,,,,,t2.png,t5.png,3,0.0000131,19,female,2020-08-19_17h31.06.936,torte-2b,2020.1.3,MacIntel,60,13340,,,,,0,98,98,54,1,,,,,,,,,,,,,,,,,,,,,,,,,,,,,,,,,,,,,,,,,,,,,,,,,,,,,,,,
,,,,,,,,,,,,l,0.423,Incorrect,,,,,,t3.png,t4.png,1,0.90855,19,female,2020-08-19_17h31.06.936,torte-2b,2020.1.3,MacIntel,60,13340,,,,,0,99,99,58,1,,,,,,,,,,,,,,,,,,,,,,,,,,,,,,,,,,,,,,,,,,,,,,,,,,,,,,,,
,,,,,,,,,,,,l,0.621,Correct!,,,,,,t1.png,t2.png,1,0.9,19,female,2020-08-19_17h31.06.936,torte-2b,2020.1.3,MacIntel,60,13340,,,,,0,100,100,61,1,,,,,,,,,,,,,,,,,,,,,,,,,,,,,,,,,,,,,,,,,,,,,,,,,,,,,,,,
,,,,,,,,,,,,l,2.072,Incorrect,,,,,,t5.png,t5.png,0,0.97829,19,female,2020-08-19_17h31.06.936,torte-2b,2020.1.3,MacIntel,60,13340,,,,,0,101,101,2,1,,,,,,,,,,,,,,,,,,,,,,,,,,,,,,,,,,,,,,,,,,,,,,,,,,,,,,,,
,,,,,,,,,,,,a,0.917,Correct!,,,,,,t3.png,t2.png,1,0.90855,19,female,2020-08-19_17h31.06.936,torte-2b,2020.1.3,MacIntel,60,13340,,,,,0,102,102,108,1,,,,,,,,,,,,,,,,,,,,,,,,,,,,,,,,,,,,,,,,,,,,,,,,,,,,,,,,
,,,,,,,,,,,,l,1.065,Correct!,,,,,,t2.png,t5.png,3,0.0000131,19,female,2020-08-19_17h31.06.936,torte-2b,2020.1.3,MacIntel,60,13340,,,,,0,103,103,85,1,,,,,,,,,,,,,,,,,,,,,,,,,,,,,,,,,,,,,,,,,,,,,,,,,,,,,,,,
,,,,,,,,,,,,a,1.185,Incorrect,,,,,,t5.png,t3.png,2,0.056466,19,female,2020-08-19_17h31.06.936,torte-2b,2020.1.3,MacIntel,60,13340,,,,,0,104,104,80,1,,,,,,,,,,,,,,,,,,,,,,,,,,,,,,,,,,,,,,,,,,,,,,,,,,,,,,,,
,,,,,,,,,,,,a,0.818,Incorrect,,,,,,t4.png,t1.png,3,0.0000131,19,female,2020-08-19_17h31.06.936,torte-2b,2020.1.3,MacIntel,60,13340,,,,,0,105,105,28,1,,,,,,,,,,,,,,,,,,,,,,,,,,,,,,,,,,,,,,,,,,,,,,,,,,,,,,,,
,,,,,,,,,,,,a,0.965,Correct!,,,,,,t4.png,t4.png,0,0.98115,19,female,2020-08-19_17h31.06.936,torte-2b,2020.1.3,MacIntel,60,13340,,,,,0,106,106,88,1,,,,,,,,,,,,,,,,,,,,,,,,,,,,,,,,,,,,,,,,,,,,,,,,,,,,,,,,
,,,,,,,,,,,,a,1.882,Correct!,,,,,,t3.png,t4.png,1,0.90855,19,female,2020-08-19_17h31.06.936,torte-2b,2020.1.3,MacIntel,60,13340,,,,,0,107,107,103,1,,,,,,,,,,,,,,,,,,,,,,,,,,,,,,,,,,,,,,,,,,,,,,,,,,,,,,,,
,,,,,,,,,,,,l,2.018,Incorrect,,,,,,t1.png,t1.png,0,0.978,19,female,2020-08-19_17h31.06.936,torte-2b,2020.1.3,MacIntel,60,13340,,,,,0,108,108,13,1,,,,,,,,,,,,,,,,,,,,,,,,,,,,,,,,,,,,,,,,,,,,,,,,,,,,,,,,
,,,,,,,,,,,,a,1.907,Correct!,,,,,,t4.png,t3.png,1,0.90855,19,female,2020-08-19_17h31.06.936,torte-2b,2020.1.3,MacIntel,60,13340,,,,,0,109,109,11,1,,,,,,,,,,,,,,,,,,,,,,,,,,,,,,,,,,,,,,,,,,,,,,,,,,,,,,,,
,,,,,,,,,,,,l,1.583,Incorrect,,,,,,t2.png,t3.png,1,0.90855,19,female,2020-08-19_17h31.06.936,torte-2b,2020.1.3,MacIntel,60,13340,,,,,0,110,110,64,1,,,,,,,,,,,,,,,,,,,,,,,,,,,,,,,,,,,,,,,,,,,,,,,,,,,,,,,,
,,,,,,,,,,,,l,1.082,Correct!,,,,,,t1.png,t2.png,1,0.90025,19,female,2020-08-19_17h31.06.936,torte-2b,2020.1.3,MacIntel,60,13340,,,,,0,111,111,6,1,,,,,,,,,,,,,,,,,,,,,,,,,,,,,,,,,,,,,,,,,,,,,,,,,,,,,,,,
,,,,,,,,,,,,l,1.332,Correct!,,,,,,t2.png,t5.png,3,0.0000131,19,female,2020-08-19_17h31.06.936,torte-2b,2020.1.3,MacIntel,60,13340,,,,,0,112,112,115,1,,,,,,,,,,,,,,,,,,,,,,,,,,,,,,,,,,,,,,,,,,,,,,,,,,,,,,,,
,,,,,,,,,,,,a,0.731,Incorrect,,,,,,t4.png,t1.png,3,0.0000131,19,female,2020-08-19_17h31.06.936,torte-2b,2020.1.3,MacIntel,60,13340,,,,,0,113,113,91,1,,,,,,,,,,,,,,,,,,,,,,,,,,,,,,,,,,,,,,,,,,,,,,,,,,,,,,,,
,,,,,,,,,,,,a,1.407,Correct!,,,,,,t4.png,t3.png,1,0.909,19,female,2020-08-19_17h31.06.936,torte-2b,2020.1.3,MacIntel,60,13340,,,,,0,114,114,107,1,,,,,,,,,,,,,,,,,,,,,,,,,,,,,,,,,,,,,,,,,,,,,,,,,,,,,,,,
,,,,,,,,,,,,a,1.551,Correct!,,,,,,t2.png,t1.png,1,0.90025,19,female,2020-08-19_17h31.06.936,torte-2b,2020.1.3,MacIntel,60,13340,,,,,0,115,115,65,1,,,,,,,,,,,,,,,,,,,,,,,,,,,,,,,,,,,,,,,,,,,,,,,,,,,,,,,,
,,,,,,,,,,,,a,0.982,Incorrect,,,,,,t5.png,t1.png,4,9.55E-11,19,female,2020-08-19_17h31.06.936,torte-2b,2020.1.3,MacIntel,60,13340,,,,,0,116,116,117,1,,,,,,,,,,,,,,,,,,,,,,,,,,,,,,,,,,,,,,,,,,,,,,,,,,,,,,,,
,,,,,,,,,,,,l,0.783,Correct!,,,,,,t1.png,t3.png,2,0.0565,19,female,2020-08-19_17h31.06.936,torte-2b,2020.1.3,MacIntel,60,13340,,,,,0,117,117,42,1,,,,,,,,,,,,,,,,,,,,,,,,,,,,,,,,,,,,,,,,,,,,,,,,,,,,,,,,
,,,,,,,,,,,,l,0.884,Incorrect,,,,,,t4.png,t5.png,1,0.90025,19,female,2020-08-19_17h31.06.936,torte-2b,2020.1.3,MacIntel,60,13340,,,,,0,118,118,63,1,,,,,,,,,,,,,,,,,,,,,,,,,,,,,,,,,,,,,,,,,,,,,,,,,,,,,,,,
,,,,,,,,,,,,l,0.85,Correct!,,,,,,t1.png,t3.png,2,0.0565,19,female,2020-08-19_17h31.06.936,torte-2b,2020.1.3,MacIntel,60,13340,,,,,0,119,119,12,1,,,,,,,,,,,,,,,,,,,,,,,,,,,,,,,,,,,,,,,,,,,,,,,,,,,,,,,,
,,,,,,,,,,,,,,,,,,,,,,,,19,female,2020-08-19_17h31.06.936,torte-2b,2020.1.3,MacIntel,60,13340,space,29.899,,,,,,,,space,83.332,,0,0,0,0,1,6,,,,,,,,,,,,,,,,,,,,,,,,,,,,,,,,,,,,,,,,,,,,,,,
,,,,,,,,,,,,,,,,,,,,,,,,19,female,2020-08-19_17h31.06.936,torte-2b,2020.1.3,MacIntel,60,13340,,,,,,,,,,,,,0,1,1,1,1,7,,,,,,,,,,,,,,,,,,,,,,,,,,,,,,,,,,,,,,,,,,,,,,,
,,,,,,,,,,,,,,,,,,,,,,,,19,female,2020-08-19_17h31.06.936,torte-2b,2020.1.3,MacIntel,60,13340,,,,,,,,,,,,,0,2,2,2,1,6,,,,,,,,,,,,,,,,,,,,,,,,,,,,,,,,,,,,,,,,,,,,,,,
,,,,,,,,,,,,,,,,,,,,,,,,19,female,2020-08-19_17h31.06.936,torte-2b,2020.1.3,MacIntel,60,13340,,,,,,,,,,,,space,0,3,3,3,1,7,0.538,,,,,,,,,,,,,,,,,,,,,,,,,,,,,,,,,,,,,,,,,,,,,,
,,,,,,,,,,,,,,,,,,,,,,,,19,female,2020-08-19_17h31.06.936,torte-2b,2020.1.3,MacIntel,60,13340,,,,,,,,,,,,,0,4,4,4,1,5,,,,,,,,,,,,,,,,,,,,,,,,,,,,,,,,,,,,,,,,,,,,,,,
,,,,,,,,,,,,,,,,,,,,,,,,19,female,2020-08-19_17h31.06.936,torte-2b,2020.1.3,MacIntel,60,13340,,,,,,,,,,,,space,0,5,5,5,1,7,0.347,,,,,,,,,,,,,,,,,,,,,,,,,,,,,,,,,,,,,,,,,,,,,,
,,,,,,,,,,,,,,,,,,,,,,,,19,female,2020-08-19_17h31.06.936,torte-2b,2020.1.3,MacIntel,60,13340,,,,,,,,,,,,,0,6,6,6,1,2,,,,,,,,,,,,,,,,,,,,,,,,,,,,,,,,,,,,,,,,,,,,,,,
,,,,,,,,,,,,,,,,,,,,,,,,19,female,2020-08-19_17h31.06.936,torte-2b,2020.1.3,MacIntel,60,13340,,,,,,,,,,,,,0,7,7,7,1,4,,,,,,,,,,,,,,,,,,,,,,,,,,,,,,,,,,,,,,,,,,,,,,,
,,,,,,,,,,,,,,,,,,,,,,,,19,female,2020-08-19_17h31.06.936,torte-2b,2020.1.3,MacIntel,60,13340,,,,,,,,,,,,,0,8,8,8,1,7,,,,,,,,,,,,,,,,,,,,,,,,,,,,,,,,,,,,,,,,,,,,,,,
,,,,,,,,,,,,,,,,,,,,,,,,19,female,2020-08-19_17h31.06.936,torte-2b,2020.1.3,MacIntel,60,13340,,,,,,,,,,,,space,0,9,9,9,1,4,0.6,,,,,,,,,,,,,,,,,,,,,,,,,,,,,,,,,,,,,,,,,,,,,,
,,,,,,,,,,,,,,,,,,,,,,,,19,female,2020-08-19_17h31.06.936,torte-2b,2020.1.3,MacIntel,60,13340,,,,,,,,,,,,,0,10,10,10,1,7,,,,,,,,,,,,,,,,,,,,,,,,,,,,,,,,,,,,,,,,,,,,,,,
,,,,,,,,,,,,,,,,,,,,,,,,19,female,2020-08-19_17h31.06.936,torte-2b,2020.1.3,MacIntel,60,13340,,,,,,,,,,,,,0,11,11,11,1,7,,,,,,,,,,,,,,,,,,,,,,,,,,,,,,,,,,,,,,,,,,,,,,,
,,,,,,,,,,,,,,,,,,,,,,,,19,female,2020-08-19_17h31.06.936,torte-2b,2020.1.3,MacIntel,60,13340,,,,,,,,,,,,space,0,12,12,12,1,7,0.383,,,,,,,,,,,,,,,,,,,,,,,,,,,,,,,,,,,,,,,,,,,,,,
,,,,,,,,,,,,,,,,,,,,,,,,19,female,2020-08-19_17h31.06.936,torte-2b,2020.1.3,MacIntel,60,13340,,,,,,,,,,,,,0,13,13,13,1,4,,,,,,,,,,,,,,,,,,,,,,,,,,,,,,,,,,,,,,,,,,,,,,,
,,,,,,,,,,,,,,,,,,,,,,,,19,female,2020-08-19_17h31.06.936,torte-2b,2020.1.3,MacIntel,60,13340,,,,,,,,,,,,,0,14,14,14,1,6,,,,,,,,,,,,,,,,,,,,,,,,,,,,,,,,,,,,,,,,,,,,,,,
,,,,,,,,,,,,,,,,,,,,,,,,19,female,2020-08-19_17h31.06.936,torte-2b,2020.1.3,MacIntel,60,13340,,,,,,,,,,,,space,0,15,15,15,1,4,0.35,,,,,,,,,,,,,,,,,,,,,,,,,,,,,,,,,,,,,,,,,,,,,,
,,,,,,,,,,,,,,,,,,,,,,,,19,female,2020-08-19_17h31.06.936,torte-2b,2020.1.3,MacIntel,60,13340,,,,,,,,,,,,space,0,16,16,16,1,6,0.36,,,,,,,,,,,,,,,,,,,,,,,,,,,,,,,,,,,,,,,,,,,,,,
,,,,,,,,,,,,,,,,,,,,,,,,19,female,2020-08-19_17h31.06.936,torte-2b,2020.1.3,MacIntel,60,13340,,,,,,,,,,,,,0,17,17,17,1,7,,,,,,,,,,,,,,,,,,,,,,,,,,,,,,,,,,,,,,,,,,,,,,,
,,,,,,,,,,,,,,,,,,,,,,,,19,female,2020-08-19_17h31.06.936,torte-2b,2020.1.3,MacIntel,60,13340,,,,,,,,,,,,space,0,18,18,18,1,6,0.379,,,,,,,,,,,,,,,,,,,,,,,,,,,,,,,,,,,,,,,,,,,,,,
,,,,,,,,,,,,,,,,,,,,,,,,19,female,2020-08-19_17h31.06.936,torte-2b,2020.1.3,MacIntel,60,13340,,,,,,,,,,,,space,0,19,19,19,1,7,1.201,,,,,,,,,,,,,,,,,,,,,,,,,,,,,,,,,,,,,,,,,,,,,,
,,,,,,,,,,,,,,,,,,,,,,,,19,female,2020-08-19_17h31.06.936,torte-2b,2020.1.3,MacIntel,60,13340,,,,,,,,,,,,,0,20,20,20,1,5,,,,,,,,,,,,,,,,,,,,,,,,,,,,,,,,,,,,,,,,,,,,,,,
,,,,,,,,,,,,,,,,,,,,,,,,19,female,2020-08-19_17h31.06.936,torte-2b,2020.1.3,MacIntel,60,13340,,,,,,,,,,,,,0,21,21,21,1,1,,,,,,,,,,,,,,,,,,,,,,,,,,,,,,,,,,,,,,,,,,,,,,,
,,,,,,,,,,,,,,,,,,,,,,,,19,female,2020-08-19_17h31.06.936,torte-2b,2020.1.3,MacIntel,60,13340,,,,,,,,,,,,,0,22,22,22,1,6,,,,,,,,,,,,,,,,,,,,,,,,,,,,,,,,,,,,,,,,,,,,,,,
,,,,,,,,,,,,,,,,,,,,,,,,19,female,2020-08-19_17h31.06.936,torte-2b,2020.1.3,MacIntel,60,13340,,,,,,,,,,,,space,0,23,23,23,1,1,0.561,,,,,,,,,,,,,,,,,,,,,,,,,,,,,,,,,,,,,,,,,,,,,,
,,,,,,,,,,,,,,,,,,,,,,,,19,female,2020-08-19_17h31.06.936,torte-2b,2020.1.3,MacIntel,60,13340,,,,,,,,,,,,,0,24,24,24,1,5,,,,,,,,,,,,,,,,,,,,,,,,,,,,,,,,,,,,,,,,,,,,,,,
,,,,,,,,,,,,,,,,,,,,,,,,19,female,2020-08-19_17h31.06.936,torte-2b,2020.1.3,MacIntel,60,13340,,,,,,,,,,,,space,0,25,25,25,1,6,0.352,,,,,,,,,,,,,,,,,,,,,,,,,,,,,,,,,,,,,,,,,,,,,,
,,,,,,,,,,,,,,,,,,,,,,,,19,female,2020-08-19_17h31.06.936,torte-2b,2020.1.3,MacIntel,60,13340,,,,,,,,,,,,,0,26,26,26,1,6,,,,,,,,,,,,,,,,,,,,,,,,,,,,,,,,,,,,,,,,,,,,,,,
,,,,,,,,,,,,,,,,,,,,,,,,19,female,2020-08-19_17h31.06.936,torte-2b,2020.1.3,MacIntel,60,13340,,,,,,,,,,,,,0,27,27,27,1,6,,,,,,,,,,,,,,,,,,,,,,,,,,,,,,,,,,,,,,,,,,,,,,,
,,,,,,,,,,,,,,,,,,,,,,,,19,female,2020-08-19_17h31.06.936,torte-2b,2020.1.3,MacIntel,60,13340,,,,,,,,,,,,,0,28,28,28,1,5,,,,,,,,,,,,,,,,,,,,,,,,,,,,,,,,,,,,,,,,,,,,,,,
,,,,,,,,,,,,,,,,,,,,,,,,19,female,2020-08-19_17h31.06.936,torte-2b,2020.1.3,MacIntel,60,13340,,,,,,,,,,,,,0,29,29,29,1,2,,,,,,,,,,,,,,,,,,,,,,,,,,,,,,,,,,,,,,,,,,,,,,,
,,,,,,,,,,,,,,,,,,,,,,,,19,female,2020-08-19_17h31.06.936,torte-2b,2020.1.3,MacIntel,60,13340,,,,,,,,,,,,space,0,30,30,30,1,5,0.346,,,,,,,,,,,,,,,,,,,,,,,,,,,,,,,,,,,,,,,,,,,,,,
,,,,,,,,,,,,,,,,,,,,,,,,19,female,2020-08-19_17h31.06.936,torte-2b,2020.1.3,MacIntel,60,13340,,,,,,,,,,,,space,0,31,31,31,1,2,0.337,,,,,,,,,,,,,,,,,,,,,,,,,,,,,,,,,,,,,,,,,,,,,,
,,,,,,,,,,,,,,,,,,,,,,,,19,female,2020-08-19_17h31.06.936,torte-2b,2020.1.3,MacIntel,60,13340,,,,,,,,,,,,,0,32,32,32,1,5,,,,,,,,,,,,,,,,,,,,,,,,,,,,,,,,,,,,,,,,,,,,,,,
,,,,,,,,,,,,,,,,,,,,,,,,19,female,2020-08-19_17h31.06.936,torte-2b,2020.1.3,MacIntel,60,13340,,,,,,,,,,,,,0,33,33,33,1,1,,,,,,,,,,,,,,,,,,,,,,,,,,,,,,,,,,,,,,,,,,,,,,,
,,,,,,,,,,,,,,,,,,,,,,,,19,female,2020-08-19_17h31.06.936,torte-2b,2020.1.3,MacIntel,60,13340,,,,,,,,,,,,,0,34,34,34,1,1,,,,,,,,,,,,,,,,,,,,,,,,,,,,,,,,,,,,,,,,,,,,,,,
,,,,,,,,,,,,,,,,,,,,,,,,19,female,2020-08-19_17h31.06.936,torte-2b,2020.1.3,MacIntel,60,13340,,,,,,,,,,,,,,,,,,2,,0,0,0,0,1,,,,,,,,,,,,,,,,,,,,,,,,,,,,,,,,,,,,,,,,,
,,,,,,,,,,,,,,,,,,,,,,,,19,female,2020-08-19_17h31.06.936,torte-2b,2020.1.3,MacIntel,60,13340,,,,,,,,,,,,,,,,,,2,,0,1,1,1,1,,,,,,,,,,,,,,,,,,,,,,,,,,,,,,,,,,,,,,,,,
,,,,,,,,,,,,,,,,,,,,,,,,19,female,2020-08-19_17h31.06.936,torte-2b,2020.1.3,MacIntel,60,13340,,,,,,,,,,,,,,,,,,6,,0,2,2,2,1,,,,,,,,,,,,,,,,,,,,,,,,,,,,,,,,,,,,,,,,,
,,,,,,,,,,,,,,,,,,,,,,,,19,female,2020-08-19_17h31.06.936,torte-2b,2020.1.3,MacIntel,60,13340,,,,,,,,,,,,space,,,,,,2,0.381,0,3,3,3,1,,,,,,,,,,,,,,,,,,,,,,,,,,,,,,,,,,,,,,,,,
,,,,,,,,,,,,,,,,,,,,,,,,19,female,2020-08-19_17h31.06.936,torte-2b,2020.1.3,MacIntel,60,13340,,,,,,,,,,,,space,,,,,,6,0.536,0,4,4,4,1,,,,,,,,,,,,,,,,,,,,,,,,,,,,,,,,,,,,,,,,,
,,,,,,,,,,,,,,,,,,,,,,,,19,female,2020-08-19_17h31.06.936,torte-2b,2020.1.3,MacIntel,60,13340,,,,,,,,,,,,,,,,,,2,,0,5,5,5,1,,,,,,,,,,,,,,,,,,,,,,,,,,,,,,,,,,,,,,,,,
,,,,,,,,,,,,,,,,,,,,,,,,19,female,2020-08-19_17h31.06.936,torte-2b,2020.1.3,MacIntel,60,13340,,,,,,,,,,,,,,,,,,7,,0,6,6,6,1,,,,,,,,,,,,,,,,,,,,,,,,,,,,,,,,,,,,,,,,,
,,,,,,,,,,,,,,,,,,,,,,,,19,female,2020-08-19_17h31.06.936,torte-2b,2020.1.3,MacIntel,60,13340,,,,,,,,,,,,space,,,,,,2,0.416,0,7,7,7,1,,,,,,,,,,,,,,,,,,,,,,,,,,,,,,,,,,,,,,,,,
,,,,,,,,,,,,,,,,,,,,,,,,19,female,2020-08-19_17h31.06.936,torte-2b,2020.1.3,MacIntel,60,13340,,,,,,,,,,,,,,,,,,7,,0,8,8,8,1,,,,,,,,,,,,,,,,,,,,,,,,,,,,,,,,,,,,,,,,,
,,,,,,,,,,,,,,,,,,,,,,,,19,female,2020-08-19_17h31.06.936,torte-2b,2020.1.3,MacIntel,60,13340,,,,,,,,,,,,space,,,,,,2,0.496,0,9,9,9,1,,,,,,,,,,,,,,,,,,,,,,,,,,,,,,,,,,,,,,,,,
,,,,,,,,,,,,,,,,,,,,,,,,19,female,2020-08-19_17h31.06.936,torte-2b,2020.1.3,MacIntel,60,13340,,,,,,,,,,,,,,,,,,5,,0,10,10,10,1,,,,,,,,,,,,,,,,,,,,,,,,,,,,,,,,,,,,,,,,,
,,,,,,,,,,,,,,,,,,,,,,,,19,female,2020-08-19_17h31.06.936,torte-2b,2020.1.3,MacIntel,60,13340,,,,,,,,,,,,,,,,,,4,,0,11,11,11,1,,,,,,,,,,,,,,,,,,,,,,,,,,,,,,,,,,,,,,,,,
,,,,,,,,,,,,,,,,,,,,,,,,19,female,2020-08-19_17h31.06.936,torte-2b,2020.1.3,MacIntel,60,13340,,,,,,,,,,,,space,,,,,,5,0.53,0,12,12,12,1,,,,,,,,,,,,,,,,,,,,,,,,,,,,,,,,,,,,,,,,,
,,,,,,,,,,,,,,,,,,,,,,,,19,female,2020-08-19_17h31.06.936,torte-2b,2020.1.3,MacIntel,60,13340,,,,,,,,,,,,,,,,,,6,,0,13,13,13,1,,,,,,,,,,,,,,,,,,,,,,,,,,,,,,,,,,,,,,,,,
,,,,,,,,,,,,,,,,,,,,,,,,19,female,2020-08-19_17h31.06.936,torte-2b,2020.1.3,MacIntel,60,13340,,,,,,,,,,,,space,,,,,,5,0.368,0,14,14,14,1,,,,,,,,,,,,,,,,,,,,,,,,,,,,,,,,,,,,,,,,,
,,,,,,,,,,,,,,,,,,,,,,,,19,female,2020-08-19_17h31.06.936,torte-2b,2020.1.3,MacIntel,60,13340,,,,,,,,,,,,,,,,,,4,,0,15,15,15,1,,,,,,,,,,,,,,,,,,,,,,,,,,,,,,,,,,,,,,,,,
,,,,,,,,,,,,,,,,,,,,,,,,19,female,2020-08-19_17h31.06.936,torte-2b,2020.1.3,MacIntel,60,13340,,,,,,,,,,,,,,,,,,5,,0,16,16,16,1,,,,,,,,,,,,,,,,,,,,,,,,,,,,,,,,,,,,,,,,,
,,,,,,,,,,,,,,,,,,,,,,,,19,female,2020-08-19_17h31.06.936,torte-2b,2020.1.3,MacIntel,60,13340,,,,,,,,,,,,,,,,,,3,,0,17,17,17,1,,,,,,,,,,,,,,,,,,,,,,,,,,,,,,,,,,,,,,,,,
,,,,,,,,,,,,,,,,,,,,,,,,19,female,2020-08-19_17h31.06.936,torte-2b,2020.1.3,MacIntel,60,13340,,,,,,,,,,,,,,,,,,6,,0,18,18,18,1,,,,,,,,,,,,,,,,,,,,,,,,,,,,,,,,,,,,,,,,,
,,,,,,,,,,,,,,,,,,,,,,,,19,female,2020-08-19_17h31.06.936,torte-2b,2020.1.3,MacIntel,60,13340,,,,,,,,,,,,space,,,,,,6,0.546,0,19,19,19,1,,,,,,,,,,,,,,,,,,,,,,,,,,,,,,,,,,,,,,,,,
,,,,,,,,,,,,,,,,,,,,,,,,19,female,2020-08-19_17h31.06.936,torte-2b,2020.1.3,MacIntel,60,13340,,,,,,,,,,,,space,,,,,,6,0.633,0,20,20,20,1,,,,,,,,,,,,,,,,,,,,,,,,,,,,,,,,,,,,,,,,,
,,,,,,,,,,,,,,,,,,,,,,,,19,female,2020-08-19_17h31.06.936,torte-2b,2020.1.3,MacIntel,60,13340,,,,,,,,,,,,,,,,,,4,,0,21,21,21,1,,,,,,,,,,,,,,,,,,,,,,,,,,,,,,,,,,,,,,,,,
,,,,,,,,,,,,,,,,,,,,,,,,19,female,2020-08-19_17h31.06.936,torte-2b,2020.1.3,MacIntel,60,13340,,,,,,,,,,,,space,,,,,,6,0.479,0,22,22,22,1,,,,,,,,,,,,,,,,,,,,,,,,,,,,,,,,,,,,,,,,,
,,,,,,,,,,,,,,,,,,,,,,,,19,female,2020-08-19_17h31.06.936,torte-2b,2020.1.3,MacIntel,60,13340,,,,,,,,,,,,space,,,,,,4,0.395,0,23,23,23,1,,,,,,,,,,,,,,,,,,,,,,,,,,,,,,,,,,,,,,,,,
,,,,,,,,,,,,,,,,,,,,,,,,19,female,2020-08-19_17h31.06.936,torte-2b,2020.1.3,MacIntel,60,13340,,,,,,,,,,,,space,,,,,,6,0.381,0,24,24,24,1,,,,,,,,,,,,,,,,,,,,,,,,,,,,,,,,,,,,,,,,,
,,,,,,,,,,,,,,,,,,,,,,,,19,female,2020-08-19_17h31.06.936,torte-2b,2020.1.3,MacIntel,60,13340,,,,,,,,,,,,,,,,,,6,,0,25,25,25,1,,,,,,,,,,,,,,,,,,,,,,,,,,,,,,,,,,,,,,,,,
,,,,,,,,,,,,,,,,,,,,,,,,19,female,2020-08-19_17h31.06.936,torte-2b,2020.1.3,MacIntel,60,13340,,,,,,,,,,,,,,,,,,7,,0,26,26,26,1,,,,,,,,,,,,,,,,,,,,,,,,,,,,,,,,,,,,,,,,,
,,,,,,,,,,,,,,,,,,,,,,,,19,female,2020-08-19_17h31.06.936,torte-2b,2020.1.3,MacIntel,60,13340,,,,,,,,,,,,,,,,,,1,,0,27,27,27,1,,,,,,,,,,,,,,,,,,,,,,,,,,,,,,,,,,,,,,,,,
,,,,,,,,,,,,,,,,,,,,,,,,19,female,2020-08-19_17h31.06.936,torte-2b,2020.1.3,MacIntel,60,13340,,,,,,,,,,,,space,,,,,,7,0.413,0,28,28,28,1,,,,,,,,,,,,,,,,,,,,,,,,,,,,,,,,,,,,,,,,,
,,,,,,,,,,,,,,,,,,,,,,,,19,female,2020-08-19_17h31.06.936,torte-2b,2020.1.3,MacIntel,60,13340,,,,,,,,,,,,,,,,,,4,,0,29,29,29,1,,,,,,,,,,,,,,,,,,,,,,,,,,,,,,,,,,,,,,,,,
,,,,,,,,,,,,,,,,,,,,,,,,19,female,2020-08-19_17h31.06.936,torte-2b,2020.1.3,MacIntel,60,13340,,,,,,,,,,,,space,,,,,,7,0.211,0,30,30,30,1,,,,,,,,,,,,,,,,,,,,,,,,,,,,,,,,,,,,,,,,,
,,,,,,,,,,,,,,,,,,,,,,,,19,female,2020-08-19_17h31.06.936,torte-2b,2020.1.3,MacIntel,60,13340,,,,,,,,,,,,,,,,,,3,,0,31,31,31,1,,,,,,,,,,,,,,,,,,,,,,,,,,,,,,,,,,,,,,,,,
,,,,,,,,,,,,,,,,,,,,,,,,19,female,2020-08-19_17h31.06.936,torte-2b,2020.1.3,MacIntel,60,13340,,,,,,,,,,,,,,,,,,2,,0,32,32,32,1,,,,,,,,,,,,,,,,,,,,,,,,,,,,,,,,,,,,,,,,,
,,,,,,,,,,,,,,,,,,,,,,,,19,female,2020-08-19_17h31.06.936,torte-2b,2020.1.3,MacIntel,60,13340,,,,,,,,,,,,,,,,,,6,,0,33,33,33,1,,,,,,,,,,,,,,,,,,,,,,,,,,,,,,,,,,,,,,,,,
,,,,,,,,,,,,,,,,,,,,,,,,19,female,2020-08-19_17h31.06.936,torte-2b,2020.1.3,MacIntel,60,13340,,,,,,,,,,,,,,,,,,3,,0,34,34,34,1,,,,,,,,,,,,,,,,,,,,,,,,,,,,,,,,,,,,,,,,,
,,,,,,,,,,,,,,,,,,,,,,,,19,female,2020-08-19_17h31.06.936,torte-2b,2020.1.3,MacIntel,60,13340,,,,,,,,,,,,,,,,,,7,,,,,,,0,0,0,0,1,,,,,,,,,,,,,,,,,,,,,,,,,,,,,,,,,,,,
,,,,,,,,,,,,,,,,,,,,,,,,19,female,2020-08-19_17h31.06.936,torte-2b,2020.1.3,MacIntel,60,13340,,,,,,,,,,,,,,,,,,5,,,,,,,0,1,1,1,1,,,,,,,,,,,,,,,,,,,,,,,,,,,,,,,,,,,,
,,,,,,,,,,,,,,,,,,,,,,,,19,female,2020-08-19_17h31.06.936,torte-2b,2020.1.3,MacIntel,60,13340,,,,,,,,,,,,,,,,,,4,,,,,,,0,2,2,2,1,,,,,,,,,,,,,,,,,,,,,,,,,,,,,,,,,,,,
,,,,,,,,,,,,,,,,,,,,,,,,19,female,2020-08-19_17h31.06.936,torte-2b,2020.1.3,MacIntel,60,13340,,,,,,,,,,,,,,,,,,5,,,,,,,0,3,3,3,1,,,,,,,,,,,,,,,,,,,,,,,,,,,,,,,,,,,,
,,,,,,,,,,,,,,,,,,,,,,,,19,female,2020-08-19_17h31.06.936,torte-2b,2020.1.3,MacIntel,60,13340,,,,,,,,,,,,,,,,,,6,,,,,,,0,4,4,4,1,,,,,,,,,,,,,,,,,,,,,,,,,,,,,,,,,,,,
,,,,,,,,,,,,,,,,,,,,,,,,19,female,2020-08-19_17h31.06.936,torte-2b,2020.1.3,MacIntel,60,13340,,,,,,,,,,,,,,,,,,5,,,,,,,0,5,5,5,1,,,,,,,,,,,,,,,,,,,,,,,,,,,,,,,,,,,,
,,,,,,,,,,,,,,,,,,,,,,,,19,female,2020-08-19_17h31.06.936,torte-2b,2020.1.3,MacIntel,60,13340,,,,,,,,,,,,,,,,,,3,,,,,,,0,6,6,6,1,,,,,,,,,,,,,,,,,,,,,,,,,,,,,,,,,,,,
,,,,,,,,,,,,,,,,,,,,,,,,19,female,2020-08-19_17h31.06.936,torte-2b,2020.1.3,MacIntel,60,13340,,,,,,,,,,,,,,,,,,4,,,,,,,0,7,7,7,1,,,,,,,,,,,,,,,,,,,,,,,,,,,,,,,,,,,,
,,,,,,,,,,,,,,,,,,,,,,,,19,female,2020-08-19_17h31.06.936,torte-2b,2020.1.3,MacIntel,60,13340,,,,,,,,,,,,space,,,,,,3,0.163,,,,,,0,8,8,8,1,,,,,,,,,,,,,,,,,,,,,,,,,,,,,,,,,,,,
,,,,,,,,,,,,,,,,,,,,,,,,19,female,2020-08-19_17h31.06.936,torte-2b,2020.1.3,MacIntel,60,13340,,,,,,,,,,,,,,,,,,1,,,,,,,0,9,9,9,1,,,,,,,,,,,,,,,,,,,,,,,,,,,,,,,,,,,,
,,,,,,,,,,,,,,,,,,,,,,,,19,female,2020-08-19_17h31.06.936,torte-2b,2020.1.3,MacIntel,60,13340,,,,,,,,,,,,,,,,,,2,,,,,,,0,10,10,10,1,,,,,,,,,,,,,,,,,,,,,,,,,,,,,,,,,,,,
,,,,,,,,,,,,,,,,,,,,,,,,19,female,2020-08-19_17h31.06.936,torte-2b,2020.1.3,MacIntel,60,13340,,,,,,,,,,,,,,,,,,1,,,,,,,0,11,11,11,1,,,,,,,,,,,,,,,,,,,,,,,,,,,,,,,,,,,,
,,,,,,,,,,,,,,,,,,,,,,,,19,female,2020-08-19_17h31.06.936,torte-2b,2020.1.3,MacIntel,60,13340,,,,,,,,,,,,,,,,,,2,,,,,,,0,12,12,12,1,,,,,,,,,,,,,,,,,,,,,,,,,,,,,,,,,,,,
,,,,,,,,,,,,,,,,,,,,,,,,19,female,2020-08-19_17h31.06.936,torte-2b,2020.1.3,MacIntel,60,13340,,,,,,,,,,,,space,,,,,,1,0.234,,,,,,0,13,13,13,1,,,,,,,,,,,,,,,,,,,,,,,,,,,,,,,,,,,,
,,,,,,,,,,,,,,,,,,,,,,,,19,female,2020-08-19_17h31.06.936,torte-2b,2020.1.3,MacIntel,60,13340,,,,,,,,,,,,,,,,,,3,,,,,,,0,14,14,14,1,,,,,,,,,,,,,,,,,,,,,,,,,,,,,,,,,,,,
,,,,,,,,,,,,,,,,,,,,,,,,19,female,2020-08-19_17h31.06.936,torte-2b,2020.1.3,MacIntel,60,13340,,,,,,,,,,,,,,,,,,1,,,,,,,0,15,15,15,1,,,,,,,,,,,,,,,,,,,,,,,,,,,,,,,,,,,,
,,,,,,,,,,,,,,,,,,,,,,,,19,female,2020-08-19_17h31.06.936,torte-2b,2020.1.3,MacIntel,60,13340,,,,,,,,,,,,,,,,,,7,,,,,,,0,16,16,16,1,,,,,,,,,,,,,,,,,,,,,,,,,,,,,,,,,,,,
,,,,,,,,,,,,,,,,,,,,,,,,19,female,2020-08-19_17h31.06.936,torte-2b,2020.1.3,MacIntel,60,13340,,,,,,,,,,,,space,,,,,,7,0.314,,,,,,0,17,17,17,1,,,,,,,,,,,,,,,,,,,,,,,,,,,,,,,,,,,,
,,,,,,,,,,,,,,,,,,,,,,,,19,female,2020-08-19_17h31.06.936,torte-2b,2020.1.3,MacIntel,60,13340,,,,,,,,,,,,,,,,,,4,,,,,,,0,18,18,18,1,,,,,,,,,,,,,,,,,,,,,,,,,,,,,,,,,,,,
,,,,,,,,,,,,,,,,,,,,,,,,19,female,2020-08-19_17h31.06.936,torte-2b,2020.1.3,MacIntel,60,13340,,,,,,,,,,,,space,,,,,,7,0.332,,,,,,0,19,19,19,1,,,,,,,,,,,,,,,,,,,,,,,,,,,,,,,,,,,,
,,,,,,,,,,,,,,,,,,,,,,,,19,female,2020-08-19_17h31.06.936,torte-2b,2020.1.3,MacIntel,60,13340,,,,,,,,,,,,space,,,,,,3,0.586,,,,,,0,20,20,20,1,,,,,,,,,,,,,,,,,,,,,,,,,,,,,,,,,,,,
,,,,,,,,,,,,,,,,,,,,,,,,19,female,2020-08-19_17h31.06.936,torte-2b,2020.1.3,MacIntel,60,13340,,,,,,,,,,,,,,,,,,7,,,,,,,0,21,21,21,1,,,,,,,,,,,,,,,,,,,,,,,,,,,,,,,,,,,,
,,,,,,,,,,,,,,,,,,,,,,,,19,female,2020-08-19_17h31.06.936,torte-2b,2020.1.3,MacIntel,60,13340,,,,,,,,,,,,,,,,,,3,,,,,,,0,22,22,22,1,,,,,,,,,,,,,,,,,,,,,,,,,,,,,,,,,,,,
,,,,,,,,,,,,,,,,,,,,,,,,19,female,2020-08-19_17h31.06.936,torte-2b,2020.1.3,MacIntel,60,13340,,,,,,,,,,,,,,,,,,1,,,,,,,0,23,23,23,1,,,,,,,,,,,,,,,,,,,,,,,,,,,,,,,,,,,,
,,,,,,,,,,,,,,,,,,,,,,,,19,female,2020-08-19_17h31.06.936,torte-2b,2020.1.3,MacIntel,60,13340,,,,,,,,,,,,,,,,,,6,,,,,,,0,24,24,24,1,,,,,,,,,,,,,,,,,,,,,,,,,,,,,,,,,,,,
,,,,,,,,,,,,,,,,,,,,,,,,19,female,2020-08-19_17h31.06.936,torte-2b,2020.1.3,MacIntel,60,13340,,,,,,,,,,,,,,,,,,3,,,,,,,0,25,25,25,1,,,,,,,,,,,,,,,,,,,,,,,,,,,,,,,,,,,,
,,,,,,,,,,,,,,,,,,,,,,,,19,female,2020-08-19_17h31.06.936,torte-2b,2020.1.3,MacIntel,60,13340,,,,,,,,,,,,,,,,,,2,,,,,,,0,26,26,26,1,,,,,,,,,,,,,,,,,,,,,,,,,,,,,,,,,,,,
,,,,,,,,,,,,,,,,,,,,,,,,19,female,2020-08-19_17h31.06.936,torte-2b,2020.1.3,MacIntel,60,13340,,,,,,,,,,,,,,,,,,3,,,,,,,0,27,27,27,1,,,,,,,,,,,,,,,,,,,,,,,,,,,,,,,,,,,,
,,,,,,,,,,,,,,,,,,,,,,,,19,female,2020-08-19_17h31.06.936,torte-2b,2020.1.3,MacIntel,60,13340,,,,,,,,,,,,,,,,,,1,,,,,,,0,28,28,28,1,,,,,,,,,,,,,,,,,,,,,,,,,,,,,,,,,,,,
,,,,,,,,,,,,,,,,,,,,,,,,19,female,2020-08-19_17h31.06.936,torte-2b,2020.1.3,MacIntel,60,13340,,,,,,,,,,,,space,,,,,,3,0.637,,,,,,0,29,29,29,1,,,,,,,,,,,,,,,,,,,,,,,,,,,,,,,,,,,,
,,,,,,,,,,,,,,,,,,,,,,,,19,female,2020-08-19_17h31.06.936,torte-2b,2020.1.3,MacIntel,60,13340,,,,,,,,,,,,,,,,,,1,,,,,,,0,30,30,30,1,,,,,,,,,,,,,,,,,,,,,,,,,,,,,,,,,,,,
,,,,,,,,,,,,,,,,,,,,,,,,19,female,2020-08-19_17h31.06.936,torte-2b,2020.1.3,MacIntel,60,13340,,,,,,,,,,,,,,,,,,7,,,,,,,0,31,31,31,1,,,,,,,,,,,,,,,,,,,,,,,,,,,,,,,,,,,,
,,,,,,,,,,,,,,,,,,,,,,,,19,female,2020-08-19_17h31.06.936,torte-2b,2020.1.3,MacIntel,60,13340,,,,,,,,,,,,,,,,,,5,,,,,,,0,32,32,32,1,,,,,,,,,,,,,,,,,,,,,,,,,,,,,,,,,,,,
,,,,,,,,,,,,,,,,,,,,,,,,19,female,2020-08-19_17h31.06.936,torte-2b,2020.1.3,MacIntel,60,13340,,,,,,,,,,,,space,,,,,,7,0.596,,,,,,0,33,33,33,1,,,,,,,,,,,,,,,,,,,,,,,,,,,,,,,,,,,,
,,,,,,,,,,,,,,,,,,,,,,,,19,female,2020-08-19_17h31.06.936,torte-2b,2020.1.3,MacIntel,60,13340,,,,,,,,,,,,,,,,,,2,,,,,,,0,34,34,34,1,,,,,,,,,,,,,,,,,,,,,,,,,,,,,,,,,,,,
,,,,,,,,,,,,,,,,,,,,,,,,19,female,2020-08-19_17h31.06.936,torte-2b,2020.1.3,MacIntel,60,13340,,,,,,,,,,,,,,,,,,3,,,,,,,,,,,,0,0,0,0,1,,,,,,,,,,,,,,,,,,,,,,,,,,,,,,,
,,,,,,,,,,,,,,,,,,,,,,,,19,female,2020-08-19_17h31.06.936,torte-2b,2020.1.3,MacIntel,60,13340,,,,,,,,,,,,,,,,,,7,,,,,,,,,,,,0,1,1,1,1,,,,,,,,,,,,,,,,,,,,,,,,,,,,,,,
,,,,,,,,,,,,,,,,,,,,,,,,19,female,2020-08-19_17h31.06.936,torte-2b,2020.1.3,MacIntel,60,13340,,,,,,,,,,,,space,,,,,,7,0.863,,,,,,,,,,,0,2,2,2,1,,,,,,,,,,,,,,,,,,,,,,,,,,,,,,,
,,,,,,,,,,,,,,,,,,,,,,,,19,female,2020-08-19_17h31.06.936,torte-2b,2020.1.3,MacIntel,60,13340,,,,,,,,,,,,,,,,,,4,,,,,,,,,,,,0,3,3,3,1,,,,,,,,,,,,,,,,,,,,,,,,,,,,,,,
,,,,,,,,,,,,,,,,,,,,,,,,19,female,2020-08-19_17h31.06.936,torte-2b,2020.1.3,MacIntel,60,13340,,,,,,,,,,,,,,,,,,5,,,,,,,,,,,,0,4,4,4,1,,,,,,,,,,,,,,,,,,,,,,,,,,,,,,,
,,,,,,,,,,,,,,,,,,,,,,,,19,female,2020-08-19_17h31.06.936,torte-2b,2020.1.3,MacIntel,60,13340,,,,,,,,,,,,,,,,,,4,,,,,,,,,,,,0,5,5,5,1,,,,,,,,,,,,,,,,,,,,,,,,,,,,,,,
,,,,,,,,,,,,,,,,,,,,,,,,19,female,2020-08-19_17h31.06.936,torte-2b,2020.1.3,MacIntel,60,13340,,,,,,,,,,,,,,,,,,2,,,,,,,,,,,,0,6,6,6,1,,,,,,,,,,,,,,,,,,,,,,,,,,,,,,,
,,,,,,,,,,,,,,,,,,,,,,,,19,female,2020-08-19_17h31.06.936,torte-2b,2020.1.3,MacIntel,60,13340,,,,,,,,,,,,,,,,,,4,,,,,,,,,,,,0,7,7,7,1,,,,,,,,,,,,,,,,,,,,,,,,,,,,,,,
,,,,,,,,,,,,,,,,,,,,,,,,19,female,2020-08-19_17h31.06.936,torte-2b,2020.1.3,MacIntel,60,13340,,,,,,,,,,,,space,,,,,,2,0.229,,,,,,,,,,,0,8,8,8,1,,,,,,,,,,,,,,,,,,,,,,,,,,,,,,,
,,,,,,,,,,,,,,,,,,,,,,,,19,female,2020-08-19_17h31.06.936,torte-2b,2020.1.3,MacIntel,60,13340,,,,,,,,,,,,,,,,,,2,,,,,,,,,,,,0,9,9,9,1,,,,,,,,,,,,,,,,,,,,,,,,,,,,,,,
,,,,,,,,,,,,,,,,,,,,,,,,19,female,2020-08-19_17h31.06.936,torte-2b,2020.1.3,MacIntel,60,13340,,,,,,,,,,,,,,,,,,6,,,,,,,,,,,,0,10,10,10,1,,,,,,,,,,,,,,,,,,,,,,,,,,,,,,,
,,,,,,,,,,,,,,,,,,,,,,,,19,female,2020-08-19_17h31.06.936,torte-2b,2020.1.3,MacIntel,60,13340,,,,,,,,,,,,space,,,,,,2,0.279,,,,,,,,,,,0,11,11,11,1,,,,,,,,,,,,,,,,,,,,,,,,,,,,,,,
,,,,,,,,,,,,,,,,,,,,,,,,19,female,2020-08-19_17h31.06.936,torte-2b,2020.1.3,MacIntel,60,13340,,,,,,,,,,,,space,,,,,,2,0.515,,,,,,,,,,,0,12,12,12,1,,,,,,,,,,,,,,,,,,,,,,,,,,,,,,,
,,,,,,,,,,,,,,,,,,,,,,,,19,female,2020-08-19_17h31.06.936,torte-2b,2020.1.3,MacIntel,60,13340,,,,,,,,,,,,space,,,,,,2,0.82,,,,,,,,,,,0,13,13,13,1,,,,,,,,,,,,,,,,,,,,,,,,,,,,,,,
,,,,,,,,,,,,,,,,,,,,,,,,19,female,2020-08-19_17h31.06.936,torte-2b,2020.1.3,MacIntel,60,13340,,,,,,,,,,,,space,,,,,,2,0.512,,,,,,,,,,,0,14,14,14,1,,,,,,,,,,,,,,,,,,,,,,,,,,,,,,,
,,,,,,,,,,,,,,,,,,,,,,,,19,female,2020-08-19_17h31.06.936,torte-2b,2020.1.3,MacIntel,60,13340,,,,,,,,,,,,,,,,,,4,,,,,,,,,,,,0,15,15,15,1,,,,,,,,,,,,,,,,,,,,,,,,,,,,,,,
,,,,,,,,,,,,,,,,,,,,,,,,19,female,2020-08-19_17h31.06.936,torte-2b,2020.1.3,MacIntel,60,13340,,,,,,,,,,,,,,,,,,3,,,,,,,,,,,,0,16,16,16,1,,,,,,,,,,,,,,,,,,,,,,,,,,,,,,,
,,,,,,,,,,,,,,,,,,,,,,,,19,female,2020-08-19_17h31.06.936,torte-2b,2020.1.3,MacIntel,60,13340,,,,,,,,,,,,,,,,,,7,,,,,,,,,,,,0,17,17,17,1,,,,,,,,,,,,,,,,,,,,,,,,,,,,,,,
,,,,,,,,,,,,,,,,,,,,,,,,19,female,2020-08-19_17h31.06.936,torte-2b,2020.1.3,MacIntel,60,13340,,,,,,,,,,,,,,,,,,4,,,,,,,,,,,,0,18,18,18,1,,,,,,,,,,,,,,,,,,,,,,,,,,,,,,,
,,,,,,,,,,,,,,,,,,,,,,,,19,female,2020-08-19_17h31.06.936,torte-2b,2020.1.3,MacIntel,60,13340,,,,,,,,,,,,space,,,,,,7,0.552,,,,,,,,,,,0,19,19,19,1,,,,,,,,,,,,,,,,,,,,,,,,,,,,,,,
,,,,,,,,,,,,,,,,,,,,,,,,19,female,2020-08-19_17h31.06.936,torte-2b,2020.1.3,MacIntel,60,13340,,,,,,,,,,,,,,,,,,7,,,,,,,,,,,,0,20,20,20,1,,,,,,,,,,,,,,,,,,,,,,,,,,,,,,,
,,,,,,,,,,,,,,,,,,,,,,,,19,female,2020-08-19_17h31.06.936,torte-2b,2020.1.3,MacIntel,60,13340,,,,,,,,,,,,space,,,,,,7,0.365,,,,,,,,,,,0,21,21,21,1,,,,,,,,,,,,,,,,,,,,,,,,,,,,,,,
,,,,,,,,,,,,,,,,,,,,,,,,19,female,2020-08-19_17h31.06.936,torte-2b,2020.1.3,MacIntel,60,13340,,,,,,,,,,,,,,,,,,7,,,,,,,,,,,,0,22,22,22,1,,,,,,,,,,,,,,,,,,,,,,,,,,,,,,,
,,,,,,,,,,,,,,,,,,,,,,,,19,female,2020-08-19_17h31.06.936,torte-2b,2020.1.3,MacIntel,60,13340,,,,,,,,,,,,,,,,,,1,,,,,,,,,,,,0,23,23,23,1,,,,,,,,,,,,,,,,,,,,,,,,,,,,,,,
,,,,,,,,,,,,,,,,,,,,,,,,19,female,2020-08-19_17h31.06.936,torte-2b,2020.1.3,MacIntel,60,13340,,,,,,,,,,,,,,,,,,7,,,,,,,,,,,,0,24,24,24,1,,,,,,,,,,,,,,,,,,,,,,,,,,,,,,,
,,,,,,,,,,,,,,,,,,,,,,,,19,female,2020-08-19_17h31.06.936,torte-2b,2020.1.3,MacIntel,60,13340,,,,,,,,,,,,,,,,,,1,,,,,,,,,,,,0,25,25,25,1,,,,,,,,,,,,,,,,,,,,,,,,,,,,,,,
,,,,,,,,,,,,,,,,,,,,,,,,19,female,2020-08-19_17h31.06.936,torte-2b,2020.1.3,MacIntel,60,13340,,,,,,,,,,,,,,,,,,7,,,,,,,,,,,,0,26,26,26,1,,,,,,,,,,,,,,,,,,,,,,,,,,,,,,,
,,,,,,,,,,,,,,,,,,,,,,,,19,female,2020-08-19_17h31.06.936,torte-2b,2020.1.3,MacIntel,60,13340,,,,,,,,,,,,,,,,,,2,,,,,,,,,,,,0,27,27,27,1,,,,,,,,,,,,,,,,,,,,,,,,,,,,,,,
,,,,,,,,,,,,,,,,,,,,,,,,19,female,2020-08-19_17h31.06.936,torte-2b,2020.1.3,MacIntel,60,13340,,,,,,,,,,,,,,,,,,5,,,,,,,,,,,,0,28,28,28,1,,,,,,,,,,,,,,,,,,,,,,,,,,,,,,,
,,,,,,,,,,,,,,,,,,,,,,,,19,female,2020-08-19_17h31.06.936,torte-2b,2020.1.3,MacIntel,60,13340,,,,,,,,,,,,,,,,,,5,,,,,,,,,,,,0,29,29,29,1,,,,,,,,,,,,,,,,,,,,,,,,,,,,,,,
,,,,,,,,,,,,,,,,,,,,,,,,19,female,2020-08-19_17h31.06.936,torte-2b,2020.1.3,MacIntel,60,13340,,,,,,,,,,,,,,,,,,5,,,,,,,,,,,,0,30,30,30,1,,,,,,,,,,,,,,,,,,,,,,,,,,,,,,,
,,,,,,,,,,,,,,,,,,,,,,,,19,female,2020-08-19_17h31.06.936,torte-2b,2020.1.3,MacIntel,60,13340,,,,,,,,,,,,,,,,,,1,,,,,,,,,,,,0,31,31,31,1,,,,,,,,,,,,,,,,,,,,,,,,,,,,,,,
,,,,,,,,,,,,,,,,,,,,,,,,19,female,2020-08-19_17h31.06.936,torte-2b,2020.1.3,MacIntel,60,13340,,,,,,,,,,,,,,,,,,5,,,,,,,,,,,,0,32,32,32,1,,,,,,,,,,,,,,,,,,,,,,,,,,,,,,,
,,,,,,,,,,,,,,,,,,,,,,,,19,female,2020-08-19_17h31.06.936,torte-2b,2020.1.3,MacIntel,60,13340,,,,,,,,,,,,,,,,,,3,,,,,,,,,,,,0,33,33,33,1,,,,,,,,,,,,,,,,,,,,,,,,,,,,,,,
,,,,,,,,,,,,,,,,,,,,,,,,19,female,2020-08-19_17h31.06.936,torte-2b,2020.1.3,MacIntel,60,13340,,,,,,,,,,,,,,,,,,3,,,,,,,,,,,,0,34,34,34,1,,,,,,,,,,,,,,,,,,,,,,,,,,,,,,,
,,,,,,,,,,,,l,0.668,Correct!,,,,,,t1.png,t4.png,3,0.0000131,19,female,2020-08-19_17h31.06.936,torte-2b,2020.1.3,MacIntel,60,13340,space,18.918,,,,,,,,,,,,,,,,,,,,,,,,,,,,,,,,,space,11.501,0,0,0,36,1,,,,,,,,,,,,,,,,,,,,,,,,
,,,,,,,,,,,,a,0.416,Incorrect,,,,,,t5.png,t2.png,3,0.0000131,19,female,2020-08-19_17h31.06.936,torte-2b,2020.1.3,MacIntel,60,13340,,,,,,,,,,,,,,,,,,,,,,,,,,,,,,,,,,,,,0,1,1,82,1,,,,,,,,,,,,,,,,,,,,,,,,
,,,,,,,,,,,,a,0.482,Correct!,,,,,,t5.png,t4.png,1,0.9,19,female,2020-08-19_17h31.06.936,torte-2b,2020.1.3,MacIntel,60,13340,,,,,,,,,,,,,,,,,,,,,,,,,,,,,,,,,,,,,0,2,2,55,1,,,,,,,,,,,,,,,,,,,,,,,,
,,,,,,,,,,,,a,0.416,Incorrect,,,,,,t4.png,t1.png,3,0.0000131,19,female,2020-08-19_17h31.06.936,torte-2b,2020.1.3,MacIntel,60,13340,,,,,,,,,,,,,,,,,,,,,,,,,,,,,,,,,,,,,0,3,3,49,1,,,,,,,,,,,,,,,,,,,,,,,,
,,,,,,,,,,,,l,0.614,Correct!,,,,,,t2.png,t4.png,2,0.059078,19,female,2020-08-19_17h31.06.936,torte-2b,2020.1.3,MacIntel,60,13340,,,,,,,,,,,,,,,,,,,,,,,,,,,,,,,,,,,,,0,4,4,84,1,,,,,,,,,,,,,,,,,,,,,,,,
,,,,,,,,,,,,l,0.291,Incorrect,,,,,,t5.png,t5.png,0,0.97829,19,female,2020-08-19_17h31.06.936,torte-2b,2020.1.3,MacIntel,60,13340,,,,,,,,,,,,,,,,,,,,,,,,,,,,,,,,,,,,,0,5,5,2,1,,,,,,,,,,,,,,,,,,,,,,,,
,,,,,,,,,,,,a,0.705,Correct!,,,,,,t2.png,t1.png,1,0.90025,19,female,2020-08-19_17h31.06.936,torte-2b,2020.1.3,MacIntel,60,13340,,,,,,,,,,,,,,,,,,,,,,,,,,,,,,,,,,,,,0,6,6,105,1,,,,,,,,,,,,,,,,,,,,,,,,
,,,,,,,,,,,,a,0.265,Incorrect,,,,,,t4.png,t1.png,3,0.059078,19,female,2020-08-19_17h31.06.936,torte-2b,2020.1.3,MacIntel,60,13340,,,,,,,,,,,,,,,,,,,,,,,,,,,,,,,,,,,,,0,7,7,73,1,,,,,,,,,,,,,,,,,,,,,,,,
,,,,,,,,,,,,l,0.322,Correct!,,,,,,t1.png,t5.png,4,9.55E-11,19,female,2020-08-19_17h31.06.936,torte-2b,2020.1.3,MacIntel,60,13340,,,,,,,,,,,,,,,,,,,,,,,,,,,,,,,,,,,,,0,8,8,3,1,,,,,,,,,,,,,,,,,,,,,,,,
,,,,,,,,,,,,l,0.373,Correct!,,,,,,t1.png,t3.png,2,0.0565,19,female,2020-08-19_17h31.06.936,torte-2b,2020.1.3,MacIntel,60,13340,,,,,,,,,,,,,,,,,,,,,,,,,,,,,,,,,,,,,0,9,9,95,1,,,,,,,,,,,,,,,,,,,,,,,,
,,,,,,,,,,,,a,0.417,Incorrect,,,,,,t4.png,t1.png,3,0.0000131,19,female,2020-08-19_17h31.06.936,torte-2b,2020.1.3,MacIntel,60,13340,,,,,,,,,,,,,,,,,,,,,,,,,,,,,,,,,,,,,0,10,10,102,1,,,,,,,,,,,,,,,,,,,,,,,,
,,,,,,,,,,,,l,0.57,Incorrect,,,,,,t1.png,t1.png,0,0.97829,19,female,2020-08-19_17h31.06.936,torte-2b,2020.1.3,MacIntel,60,13340,,,,,,,,,,,,,,,,,,,,,,,,,,,,,,,,,,,,,0,11,11,4,1,,,,,,,,,,,,,,,,,,,,,,,,
,,,,,,,,,,,,l,0.387,Correct!,,,,,,t5.png,t2.png,3,0.0000131,19,female,2020-08-19_17h31.06.936,torte-2b,2020.1.3,MacIntel,60,13340,,,,,,,,,,,,,,,,,,,,,,,,,,,,,,,,,,,,,0,12,12,48,1,,,,,,,,,,,,,,,,,,,,,,,,
,,,,,,,,,,,,a,0.516,Correct!,,,,,,t4.png,t3.png,1,0.90855,19,female,2020-08-19_17h31.06.936,torte-2b,2020.1.3,MacIntel,60,13340,,,,,,,,,,,,,,,,,,,,,,,,,,,,,,,,,,,,,0,13,13,56,1,,,,,,,,,,,,,,,,,,,,,,,,
,,,,,,,,,,,,a,0.357,Incorrect,,,,,,t5.png,t1.png,4,9.55E-11,19,female,2020-08-19_17h31.06.936,torte-2b,2020.1.3,MacIntel,60,13340,,,,,,,,,,,,,,,,,,,,,,,,,,,,,,,,,,,,,0,14,14,101,1,,,,,,,,,,,,,,,,,,,,,,,,
,,,,,,,,,,,,a,0.915,Correct!,,,,,,t4.png,t5.png,1,0.9,19,female,2020-08-19_17h31.06.936,torte-2b,2020.1.3,MacIntel,60,13340,,,,,,,,,,,,,,,,,,,,,,,,,,,,,,,,,,,,,0,15,15,81,1,,,,,,,,,,,,,,,,,,,,,,,,
,,,,,,,,,,,,a,0.434,Incorrect,,,,,,t5.png,t3.png,2,0.0565,19,female,2020-08-19_17h31.06.936,torte-2b,2020.1.3,MacIntel,60,13340,,,,,,,,,,,,,,,,,,,,,,,,,,,,,,,,,,,,,0,16,16,50,1,,,,,,,,,,,,,,,,,,,,,,,,
,,,,,,,,,,,,a,0.322,Correct!,,,,,,t5.png,t5.png,0,0.97829,19,female,2020-08-19_17h31.06.936,torte-2b,2020.1.3,MacIntel,60,13340,,,,,,,,,,,,,,,,,,,,,,,,,,,,,,,,,,,,,0,17,17,77,1,,,,,,,,,,,,,,,,,,,,,,,,
,,,,,,,,,,,,a,0.349,Correct!,,,,,,t4.png,t3.png,1,0.909,19,female,2020-08-19_17h31.06.936,torte-2b,2020.1.3,MacIntel,60,13340,,,,,,,,,,,,,,,,,,,,,,,,,,,,,,,,,,,,,0,18,18,119,1,,,,,,,,,,,,,,,,,,,,,,,,
,,,,,,,,,,,,a,0.387,Correct!,,,,,,t5.png,t4.png,1,0.90025,19,female,2020-08-19_17h31.06.936,torte-2b,2020.1.3,MacIntel,60,13340,,,,,,,,,,,,,,,,,,,,,,,,,,,,,,,,,,,,,0,19,19,38,1,,,,,,,,,,,,,,,,,,,,,,,,
,,,,,,,,,,,,a,0.382,Correct!,,,,,,t3.png,t2.png,1,0.90855,19,female,2020-08-19_17h31.06.936,torte-2b,2020.1.3,MacIntel,60,13340,,,,,,,,,,,,,,,,,,,,,,,,,,,,,,,,,,,,,0,20,20,108,1,,,,,,,,,,,,,,,,,,,,,,,,
,,,,,,,,,,,,a,0.367,Correct!,,,,,,t2.png,t2.png,0,0.98115,19,female,2020-08-19_17h31.06.936,torte-2b,2020.1.3,MacIntel,60,13340,,,,,,,,,,,,,,,,,,,,,,,,,,,,,,,,,,,,,0,21,21,69,1,,,,,,,,,,,,,,,,,,,,,,,,
,,,,,,,,,,,,a,0.348,Incorrect,,,,,,t5.png,t3.png,2,0.056466,19,female,2020-08-19_17h31.06.936,torte-2b,2020.1.3,MacIntel,60,13340,,,,,,,,,,,,,,,,,,,,,,,,,,,,,,,,,,,,,0,22,22,37,1,,,,,,,,,,,,,,,,,,,,,,,,
,,,,,,,,,,,,a,0.306,Correct!,,,,,,t5.png,t4.png,1,0.9,19,female,2020-08-19_17h31.06.936,torte-2b,2020.1.3,MacIntel,60,13340,,,,,,,,,,,,,,,,,,,,,,,,,,,,,,,,,,,,,0,23,23,92,1,,,,,,,,,,,,,,,,,,,,,,,,
,,,,,,,,,,,,l,0.931,Correct!,,,,,,t3.png,t5.png,2,0.056466,19,female,2020-08-19_17h31.06.936,torte-2b,2020.1.3,MacIntel,60,13340,,,,,,,,,,,,,,,,,,,,,,,,,,,,,,,,,,,,,0,24,24,78,1,,,,,,,,,,,,,,,,,,,,,,,,
,,,,,,,,,,,,a,0.97,Incorrect,,,,,,t5.png,t2.png,3,0.0000131,19,female,2020-08-19_17h31.06.936,torte-2b,2020.1.3,MacIntel,60,13340,,,,,,,,,,,,,,,,,,,,,,,,,,,,,,,,,,,,,0,25,25,83,1,,,,,,,,,,,,,,,,,,,,,,,,
,,,,,,,,,,,,l,0.62,Incorrect,,,,,,t4.png,t5.png,1,0.90025,19,female,2020-08-19_17h31.06.936,torte-2b,2020.1.3,MacIntel,60,13340,,,,,,,,,,,,,,,,,,,,,,,,,,,,,,,,,,,,,0,26,26,86,1,,,,,,,,,,,,,,,,,,,,,,,,
,,,,,,,,,,,,l,0.785,Incorrect,,,,,,t3.png,t4.png,1,0.90855,19,female,2020-08-19_17h31.06.936,torte-2b,2020.1.3,MacIntel,60,13340,,,,,,,,,,,,,,,,,,,,,,,,,,,,,,,,,,,,,0,27,27,111,1,,,,,,,,,,,,,,,,,,,,,,,,
,,,,,,,,,,,,l,1.821,Correct!,,,,,,t2.png,t4.png,2,0.059078,19,female,2020-08-19_17h31.06.936,torte-2b,2020.1.3,MacIntel,60,13340,,,,,,,,,,,,,,,,,,,,,,,,,,,,,,,,,,,,,0,28,28,97,1,,,,,,,,,,,,,,,,,,,,,,,,
,,,,,,,,,,,,a,0.857,Incorrect,,,,,,t4.png,t1.png,3,0.0000131,19,female,2020-08-19_17h31.06.936,torte-2b,2020.1.3,MacIntel,60,13340,,,,,,,,,,,,,,,,,,,,,,,,,,,,,,,,,,,,,0,29,29,76,1,,,,,,,,,,,,,,,,,,,,,,,,
,,,,,,,,,,,,l,0.436,Correct!,,,,,,t1.png,t5.png,4,9.55E-11,19,female,2020-08-19_17h31.06.936,torte-2b,2020.1.3,MacIntel,60,13340,,,,,,,,,,,,,,,,,,,,,,,,,,,,,,,,,,,,,0,30,30,20,1,,,,,,,,,,,,,,,,,,,,,,,,
,,,,,,,,,,,,a,1.416,Correct!,,,,,,t3.png,t2.png,1,0.90855,19,female,2020-08-19_17h31.06.936,torte-2b,2020.1.3,MacIntel,60,13340,,,,,,,,,,,,,,,,,,,,,,,,,,,,,,,,,,,,,0,31,31,0,1,,,,,,,,,,,,,,,,,,,,,,,,
,,,,,,,,,,,,l,0.632,Incorrect,,,,,,t1.png,t2.png,1,0.90025,19,female,2020-08-19_17h31.06.936,torte-2b,2020.1.3,MacIntel,60,13340,,,,,,,,,,,,,,,,,,,,,,,,,,,,,,,,,,,,,0,32,32,6,1,,,,,,,,,,,,,,,,,,,,,,,,
,,,,,,,,,,,,l,0.371,Incorrect,,,,,,t5.png,t5.png,0,0.97829,19,female,2020-08-19_17h31.06.936,torte-2b,2020.1.3,MacIntel,60,13340,,,,,,,,,,,,,,,,,,,,,,,,,,,,,,,,,,,,,0,33,33,35,1,,,,,,,,,,,,,,,,,,,,,,,,
,,,,,,,,,,,,l,0.353,Correct!,,,,,,t3.png,t5.png,2,0.056466,19,female,2020-08-19_17h31.06.936,torte-2b,2020.1.3,MacIntel,60,13340,,,,,,,,,,,,,,,,,,,,,,,,,,,,,,,,,,,,,0,34,34,47,1,,,,,,,,,,,,,,,,,,,,,,,,
,,,,,,,,,,,,a,0.666,Incorrect,,,,,,t3.png,t1.png,2,0.056466,19,female,2020-08-19_17h31.06.936,torte-2b,2020.1.3,MacIntel,60,13340,,,,,,,,,,,,,,,,,,,,,,,,,,,,,,,,,,,,,0,35,35,109,1,,,,,,,,,,,,,,,,,,,,,,,,
,,,,,,,,,,,,a,1.4,Correct!,,,,,,t2.png,t1.png,1,0.9,19,female,2020-08-19_17h31.06.936,torte-2b,2020.1.3,MacIntel,60,13340,,,,,,,,,,,,,,,,,,,,,,,,,,,,,,,,,,,,,0,36,36,93,1,,,,,,,,,,,,,,,,,,,,,,,,
,,,,,,,,,,,,a,0.529,Correct!,,,,,,t2.png,t2.png,0,0.98115,19,female,2020-08-19_17h31.06.936,torte-2b,2020.1.3,MacIntel,60,13340,,,,,,,,,,,,,,,,,,,,,,,,,,,,,,,,,,,,,0,37,37,90,1,,,,,,,,,,,,,,,,,,,,,,,,
,,,,,,,,,,,,a,0.599,Incorrect,,,,,,t4.png,t1.png,3,0.0000131,19,female,2020-08-19_17h31.06.936,torte-2b,2020.1.3,MacIntel,60,13340,,,,,,,,,,,,,,,,,,,,,,,,,,,,,,,,,,,,,0,38,38,91,1,,,,,,,,,,,,,,,,,,,,,,,,
,,,,,,,,,,,,a,0.614,Incorrect,,,,,,t5.png,t1.png,4,9.55E-11,19,female,2020-08-19_17h31.06.936,torte-2b,2020.1.3,MacIntel,60,13340,,,,,,,,,,,,,,,,,,,,,,,,,,,,,,,,,,,,,0,39,39,15,1,,,,,,,,,,,,,,,,,,,,,,,,
,,,,,,,,,,,,a,0.917,Incorrect,,,,,,t1.png,t5.png,4,9.55E-11,19,female,2020-08-19_17h31.06.936,torte-2b,2020.1.3,MacIntel,60,13340,,,,,,,,,,,,,,,,,,,,,,,,,,,,,,,,,,,,,0,40,40,30,1,,,,,,,,,,,,,,,,,,,,,,,,
,,,,,,,,,,,,a,1.232,Incorrect,,,,,,t5.png,t1.png,4,9.55E-11,19,female,2020-08-19_17h31.06.936,torte-2b,2020.1.3,MacIntel,60,13340,,,,,,,,,,,,,,,,,,,,,,,,,,,,,,,,,,,,,0,41,41,117,1,,,,,,,,,,,,,,,,,,,,,,,,
,,,,,,,,,,,,l,0.531,Correct!,,,,,,t1.png,t4.png,3,0.0000131,19,female,2020-08-19_17h31.06.936,torte-2b,2020.1.3,MacIntel,60,13340,,,,,,,,,,,,,,,,,,,,,,,,,,,,,,,,,,,,,0,42,42,74,1,,,,,,,,,,,,,,,,,,,,,,,,
,,,,,,,,,,,,a,0.422,Correct!,,,,,,t2.png,t2.png,0,0.981,19,female,2020-08-19_17h31.06.936,torte-2b,2020.1.3,MacIntel,60,13340,,,,,,,,,,,,,,,,,,,,,,,,,,,,,,,,,,,,,0,43,43,98,1,,,,,,,,,,,,,,,,,,,,,,,,
,,,,,,,,,,,,a,1.137,Incorrect,,,,,,t3.png,t1.png,2,0.056466,19,female,2020-08-19_17h31.06.936,torte-2b,2020.1.3,MacIntel,60,13340,,,,,,,,,,,,,,,,,,,,,,,,,,,,,,,,,,,,,0,44,44,34,1,,,,,,,,,,,,,,,,,,,,,,,,
,,,,,,,,,,,,a,0.684,Incorrect,,,,,,t4.png,t1.png,3,0.059078,19,female,2020-08-19_17h31.06.936,torte-2b,2020.1.3,MacIntel,60,13340,,,,,,,,,,,,,,,,,,,,,,,,,,,,,,,,,,,,,0,45,45,57,1,,,,,,,,,,,,,,,,,,,,,,,,
,,,,,,,,,,,,l,0.499,Correct!,,,,,,t1.png,t4.png,3,0.0000131,19,female,2020-08-19_17h31.06.936,torte-2b,2020.1.3,MacIntel,60,13340,,,,,,,,,,,,,,,,,,,,,,,,,,,,,,,,,,,,,0,46,46,16,1,,,,,,,,,,,,,,,,,,,,,,,,
,,,,,,,,,,,,a,1.232,Incorrect,,,,,,t5.png,t3.png,2,0.056466,19,female,2020-08-19_17h31.06.936,torte-2b,2020.1.3,MacIntel,60,13340,,,,,,,,,,,,,,,,,,,,,,,,,,,,,,,,,,,,,0,47,47,26,1,,,,,,,,,,,,,,,,,,,,,,,,
,,,,,,,,,,,,l,0.439,Incorrect,,,,,,t1.png,t2.png,1,0.9,19,female,2020-08-19_17h31.06.936,torte-2b,2020.1.3,MacIntel,60,13340,,,,,,,,,,,,,,,,,,,,,,,,,,,,,,,,,,,,,0,48,48,41,1,,,,,,,,,,,,,,,,,,,,,,,,
,,,,,,,,,,,,l,0.422,Correct!,,,,,,t2.png,t4.png,2,0.059078,19,female,2020-08-19_17h31.06.936,torte-2b,2020.1.3,MacIntel,60,13340,,,,,,,,,,,,,,,,,,,,,,,,,,,,,,,,,,,,,0,49,49,53,1,,,,,,,,,,,,,,,,,,,,,,,,
,,,,,,,,,,,,l,0.305,Incorrect,,,,,,t2.png,t3.png,1,0.90855,19,female,2020-08-19_17h31.06.936,torte-2b,2020.1.3,MacIntel,60,13340,,,,,,,,,,,,,,,,,,,,,,,,,,,,,,,,,,,,,0,50,50,64,1,,,,,,,,,,,,,,,,,,,,,,,,
,,,,,,,,,,,,l,0.496,Incorrect,,,,,,t1.png,t1.png,0,0.978,19,female,2020-08-19_17h31.06.936,torte-2b,2020.1.3,MacIntel,60,13340,,,,,,,,,,,,,,,,,,,,,,,,,,,,,,,,,,,,,0,51,51,13,1,,,,,,,,,,,,,,,,,,,,,,,,
,,,,,,,,,,,,l,0.264,Correct!,,,,,,t3.png,t4.png,1,0.90855,19,female,2020-08-19_17h31.06.936,torte-2b,2020.1.3,MacIntel,60,13340,,,,,,,,,,,,,,,,,,,,,,,,,,,,,,,,,,,,,0,52,52,9,1,,,,,,,,,,,,,,,,,,,,,,,,
,,,,,,,,,,,,a,0.949,Incorrect,,,,,,t5.png,t3.png,2,0.056466,19,female,2020-08-19_17h31.06.936,torte-2b,2020.1.3,MacIntel,60,13340,,,,,,,,,,,,,,,,,,,,,,,,,,,,,,,,,,,,,0,53,53,80,1,,,,,,,,,,,,,,,,,,,,,,,,
,,,,,,,,,,,,a,0.296,Correct!,,,,,,t4.png,t5.png,1,0.90025,19,female,2020-08-19_17h31.06.936,torte-2b,2020.1.3,MacIntel,60,13340,,,,,,,,,,,,,,,,,,,,,,,,,,,,,,,,,,,,,0,54,54,33,1,,,,,,,,,,,,,,,,,,,,,,,,
,,,,,,,,,,,,a,0.299,Incorrect,,,,,,t1.png,t5.png,4,9.55E-11,19,female,2020-08-19_17h31.06.936,torte-2b,2020.1.3,MacIntel,60,13340,,,,,,,,,,,,,,,,,,,,,,,,,,,,,,,,,,,,,0,55,55,1,1,,,,,,,,,,,,,,,,,,,,,,,,
,,,,,,,,,,,,a,0.438,Incorrect,,,,,,t3.png,t1.png,2,0.0565,19,female,2020-08-19_17h31.06.936,torte-2b,2020.1.3,MacIntel,60,13340,,,,,,,,,,,,,,,,,,,,,,,,,,,,,,,,,,,,,0,56,56,40,1,,,,,,,,,,,,,,,,,,,,,,,,
,,,,,,,,,,,,a,0.45,Correct!,,,,,,t3.png,t2.png,1,0.90855,19,female,2020-08-19_17h31.06.936,torte-2b,2020.1.3,MacIntel,60,13340,,,,,,,,,,,,,,,,,,,,,,,,,,,,,,,,,,,,,0,57,57,99,1,,,,,,,,,,,,,,,,,,,,,,,,
,,,,,,,,,,,,a,0.803,Incorrect,,,,,,t5.png,t3.png,2,0.056466,19,female,2020-08-19_17h31.06.936,torte-2b,2020.1.3,MacIntel,60,13340,,,,,,,,,,,,,,,,,,,,,,,,,,,,,,,,,,,,,0,58,58,27,1,,,,,,,,,,,,,,,,,,,,,,,,
,,,,,,,,,,,,a,0.439,Incorrect,,,,,,t4.png,t1.png,3,0.059078,19,female,2020-08-19_17h31.06.936,torte-2b,2020.1.3,MacIntel,60,13340,,,,,,,,,,,,,,,,,,,,,,,,,,,,,,,,,,,,,0,59,59,75,1,,,,,,,,,,,,,,,,,,,,,,,,
,,,,,,,,,,,,l,0.437,Incorrect,,,,,,t4.png,t4.png,0,0.98115,19,female,2020-08-19_17h31.06.936,torte-2b,2020.1.3,MacIntel,60,13340,,,,,,,,,,,,,,,,,,,,,,,,,,,,,,,,,,,,,0,60,60,68,1,,,,,,,,,,,,,,,,,,,,,,,,
,,,,,,,,,,,,l,0.932,Incorrect,,,,,,t3.png,t4.png,1,0.90855,19,female,2020-08-19_17h31.06.936,torte-2b,2020.1.3,MacIntel,60,13340,,,,,,,,,,,,,,,,,,,,,,,,,,,,,,,,,,,,,0,61,61,103,1,,,,,,,,,,,,,,,,,,,,,,,,
,,,,,,,,,,,,l,0.349,Incorrect,,,,,,t1.png,t2.png,1,0.9,19,female,2020-08-19_17h31.06.936,torte-2b,2020.1.3,MacIntel,60,13340,,,,,,,,,,,,,,,,,,,,,,,,,,,,,,,,,,,,,0,62,62,61,1,,,,,,,,,,,,,,,,,,,,,,,,
,,,,,,,,,,,,l,0.365,Correct!,,,,,,t2.png,t4.png,2,0.059078,19,female,2020-08-19_17h31.06.936,torte-2b,2020.1.3,MacIntel,60,13340,,,,,,,,,,,,,,,,,,,,,,,,,,,,,,,,,,,,,0,63,63,67,1,,,,,,,,,,,,,,,,,,,,,,,,
,,,,,,,,,,,,l,0.389,Incorrect,,,,,,t4.png,t4.png,0,0.98115,19,female,2020-08-19_17h31.06.936,torte-2b,2020.1.3,MacIntel,60,13340,,,,,,,,,,,,,,,,,,,,,,,,,,,,,,,,,,,,,0,64,64,52,1,,,,,,,,,,,,,,,,,,,,,,,,
,,,,,,,,,,,,l,0.298,Incorrect,,,,,,t2.png,t3.png,1,0.909,19,female,2020-08-19_17h31.06.936,torte-2b,2020.1.3,MacIntel,60,13340,,,,,,,,,,,,,,,,,,,,,,,,,,,,,,,,,,,,,0,65,65,8,1,,,,,,,,,,,,,,,,,,,,,,,,
,,,,,,,,,,,,a,0.466,Incorrect,,,,,,t4.png,t1.png,3,0.059078,19,female,2020-08-19_17h31.06.936,torte-2b,2020.1.3,MacIntel,60,13340,,,,,,,,,,,,,,,,,,,,,,,,,,,,,,,,,,,,,0,66,66,87,1,,,,,,,,,,,,,,,,,,,,,,,,
,,,,,,,,,,,,a,0.571,Incorrect,,,,,,t2.png,t5.png,3,0.0000131,19,female,2020-08-19_17h31.06.936,torte-2b,2020.1.3,MacIntel,60,13340,,,,,,,,,,,,,,,,,,,,,,,,,,,,,,,,,,,,,0,67,67,39,1,,,,,,,,,,,,,,,,,,,,,,,,
,,,,,,,,,,,,l,1.273,Correct!,,,,,,t2.png,t2.png,0,0.98115,19,female,2020-08-19_17h31.06.936,torte-2b,2020.1.3,MacIntel,60,13340,,,,,,,,,,,,,,,,,,,,,,,,,,,,,,,,,,,,,0,68,68,7,1,,,,,,,,,,,,,,,,,,,,,,,,
,,,,,,,,,,,,l,0.898,Incorrect,,,,,,t2.png,t3.png,1,0.90855,19,female,2020-08-19_17h31.06.936,torte-2b,2020.1.3,MacIntel,60,13340,,,,,,,,,,,,,,,,,,,,,,,,,,,,,,,,,,,,,0,69,69,79,1,,,,,,,,,,,,,,,,,,,,,,,,
,,,,,,,,,,,,l,0.585,Correct!,,,,,,t1.png,t3.png,2,0.056466,19,female,2020-08-19_17h31.06.936,torte-2b,2020.1.3,MacIntel,60,13340,,,,,,,,,,,,,,,,,,,,,,,,,,,,,,,,,,,,,0,70,70,24,1,,,,,,,,,,,,,,,,,,,,,,,,
,,,,,,,,,,,,l,0.502,Incorrect,,,,,,t1.png,t1.png,0,0.97829,19,female,2020-08-19_17h31.06.936,torte-2b,2020.1.3,MacIntel,60,13340,,,,,,,,,,,,,,,,,,,,,,,,,,,,,,,,,,,,,0,71,71,114,1,,,,,,,,,,,,,,,,,,,,,,,,
,,,,,,,,,,,,l,1.133,Incorrect,,,,,,t4.png,t4.png,0,0.98115,19,female,2020-08-19_17h31.06.936,torte-2b,2020.1.3,MacIntel,60,13340,,,,,,,,,,,,,,,,,,,,,,,,,,,,,,,,,,,,,0,72,72,88,1,,,,,,,,,,,,,,,,,,,,,,,,
,,,,,,,,,,,,l,0.698,Correct!,,,,,,t1.png,t3.png,2,0.0565,19,female,2020-08-19_17h31.06.936,torte-2b,2020.1.3,MacIntel,60,13340,,,,,,,,,,,,,,,,,,,,,,,,,,,,,,,,,,,,,0,73,73,42,1,,,,,,,,,,,,,,,,,,,,,,,,
,,,,,,,,,,,,l,0.455,Correct!,,,,,,t5.png,t2.png,3,0.0000131,19,female,2020-08-19_17h31.06.936,torte-2b,2020.1.3,MacIntel,60,13340,,,,,,,,,,,,,,,,,,,,,,,,,,,,,,,,,,,,,0,74,74,43,1,,,,,,,,,,,,,,,,,,,,,,,,
,,,,,,,,,,,,l,1.056,Incorrect,,,,,,t5.png,t5.png,0,0.978,19,female,2020-08-19_17h31.06.936,torte-2b,2020.1.3,MacIntel,60,13340,,,,,,,,,,,,,,,,,,,,,,,,,,,,,,,,,,,,,0,75,75,116,1,,,,,,,,,,,,,,,,,,,,,,,,
,,,,,,,,,,,,l,0.315,Incorrect,,,,,,t3.png,t2.png,1,0.90855,19,female,2020-08-19_17h31.06.936,torte-2b,2020.1.3,MacIntel,60,13340,,,,,,,,,,,,,,,,,,,,,,,,,,,,,,,,,,,,,0,76,76,10,1,,,,,,,,,,,,,,,,,,,,,,,,
,,,,,,,,,,,,a,0.499,Incorrect,,,,,,t2.png,t3.png,1,0.90855,19,female,2020-08-19_17h31.06.936,torte-2b,2020.1.3,MacIntel,60,13340,,,,,,,,,,,,,,,,,,,,,,,,,,,,,,,,,,,,,0,77,77,70,1,,,,,,,,,,,,,,,,,,,,,,,,
,,,,,,,,,,,,l,0.232,Correct!,,,,,,t4.png,t1.png,3,0.059078,19,female,2020-08-19_17h31.06.936,torte-2b,2020.1.3,MacIntel,60,13340,,,,,,,,,,,,,,,,,,,,,,,,,,,,,,,,,,,,,0,78,78,62,1,,,,,,,,,,,,,,,,,,,,,,,,
,,,,,,,,,,,,l,0.516,Correct!,,,,,,t5.png,t2.png,3,0.0000131,19,female,2020-08-19_17h31.06.936,torte-2b,2020.1.3,MacIntel,60,13340,,,,,,,,,,,,,,,,,,,,,,,,,,,,,,,,,,,,,0,79,79,66,1,,,,,,,,,,,,,,,,,,,,,,,,
,,,,,,,,,,,,l,0.391,Correct!,,,,,,t4.png,t3.png,1,0.909,19,female,2020-08-19_17h31.06.936,torte-2b,2020.1.3,MacIntel,60,13340,,,,,,,,,,,,,,,,,,,,,,,,,,,,,,,,,,,,,0,80,80,107,1,,,,,,,,,,,,,,,,,,,,,,,,
,,,,,,,,,,,,a,0.386,Correct!,,,,,,t1.png,t1.png,0,0.97829,19,female,2020-08-19_17h31.06.936,torte-2b,2020.1.3,MacIntel,60,13340,,,,,,,,,,,,,,,,,,,,,,,,,,,,,,,,,,,,,0,81,81,110,1,,,,,,,,,,,,,,,,,,,,,,,,
,,,,,,,,,,,,l,0.322,Incorrect,,,,,,t1.png,t1.png,0,0.978,19,female,2020-08-19_17h31.06.936,torte-2b,2020.1.3,MacIntel,60,13340,,,,,,,,,,,,,,,,,,,,,,,,,,,,,,,,,,,,,0,82,82,22,1,,,,,,,,,,,,,,,,,,,,,,,,
,,,,,,,,,,,,l,0.339,Incorrect,,,,,,t1.png,t2.png,1,0.9,19,female,2020-08-19_17h31.06.936,torte-2b,2020.1.3,MacIntel,60,13340,,,,,,,,,,,,,,,,,,,,,,,,,,,,,,,,,,,,,0,83,83,17,1,,,,,,,,,,,,,,,,,,,,,,,,
,,,,,,,,,,,,l,0.697,Correct!,,,,,,t1.png,t3.png,2,0.056466,19,female,2020-08-19_17h31.06.936,torte-2b,2020.1.3,MacIntel,60,13340,,,,,,,,,,,,,,,,,,,,,,,,,,,,,,,,,,,,,0,84,84,32,1,,,,,,,,,,,,,,,,,,,,,,,,
,,,,,,,,,,,,l,0.332,Incorrect,,,,,,t3.png,t4.png,1,0.90855,19,female,2020-08-19_17h31.06.936,torte-2b,2020.1.3,MacIntel,60,13340,,,,,,,,,,,,,,,,,,,,,,,,,,,,,,,,,,,,,0,85,85,58,1,,,,,,,,,,,,,,,,,,,,,,,,
,,,,,,,,,,,,l,0.783,Correct!,,,,,,t3.png,t5.png,2,0.056466,19,female,2020-08-19_17h31.06.936,torte-2b,2020.1.3,MacIntel,60,13340,,,,,,,,,,,,,,,,,,,,,,,,,,,,,,,,,,,,,0,86,86,45,1,,,,,,,,,,,,,,,,,,,,,,,,
,,,,,,,,,,,,l,0.583,Incorrect,,,,,,t2.png,t2.png,0,0.98115,19,female,2020-08-19_17h31.06.936,torte-2b,2020.1.3,MacIntel,60,13340,,,,,,,,,,,,,,,,,,,,,,,,,,,,,,,,,,,,,0,87,87,112,1,,,,,,,,,,,,,,,,,,,,,,,,
,,,,,,,,,,,,l,0.388,Correct!,,,,,,t2.png,t1.png,1,0.90025,19,female,2020-08-19_17h31.06.936,torte-2b,2020.1.3,MacIntel,60,13340,,,,,,,,,,,,,,,,,,,,,,,,,,,,,,,,,,,,,0,88,88,65,1,,,,,,,,,,,,,,,,,,,,,,,,
,,,,,,,,,,,,a,0.352,Correct!,,,,,,t4.png,t3.png,1,0.90855,19,female,2020-08-19_17h31.06.936,torte-2b,2020.1.3,MacIntel,60,13340,,,,,,,,,,,,,,,,,,,,,,,,,,,,,,,,,,,,,0,89,89,29,1,,,,,,,,,,,,,,,,,,,,,,,,
,,,,,,,,,,,,l,0.333,Correct!,,,,,,t2.png,t5.png,3,0.0000131,19,female,2020-08-19_17h31.06.936,torte-2b,2020.1.3,MacIntel,60,13340,,,,,,,,,,,,,,,,,,,,,,,,,,,,,,,,,,,,,0,90,90,46,1,,,,,,,,,,,,,,,,,,,,,,,,
,,,,,,,,,,,,l,0.298,Incorrect,,,,,,t1.png,t2.png,1,0.90025,19,female,2020-08-19_17h31.06.936,torte-2b,2020.1.3,MacIntel,60,13340,,,,,,,,,,,,,,,,,,,,,,,,,,,,,,,,,,,,,0,91,91,96,1,,,,,,,,,,,,,,,,,,,,,,,,
,,,,,,,,,,,,a,0.447,Incorrect,,,,,,t3.png,t1.png,2,0.0565,19,female,2020-08-19_17h31.06.936,torte-2b,2020.1.3,MacIntel,60,13340,,,,,,,,,,,,,,,,,,,,,,,,,,,,,,,,,,,,,0,92,92,104,1,,,,,,,,,,,,,,,,,,,,,,,,
,,,,,,,,,,,,a,0.314,Correct!,,,,,,t2.png,t1.png,1,0.9,19,female,2020-08-19_17h31.06.936,torte-2b,2020.1.3,MacIntel,60,13340,,,,,,,,,,,,,,,,,,,,,,,,,,,,,,,,,,,,,0,93,93,100,1,,,,,,,,,,,,,,,,,,,,,,,,
,,,,,,,,,,,,l,0.389,Correct!,,,,,,t2.png,t4.png,2,0.059078,19,female,2020-08-19_17h31.06.936,torte-2b,2020.1.3,MacIntel,60,13340,,,,,,,,,,,,,,,,,,,,,,,,,,,,,,,,,,,,,0,94,94,18,1,,,,,,,,,,,,,,,,,,,,,,,,
,,,,,,,,,,,,l,0.636,Incorrect,,,,,,t4.png,t5.png,1,0.90025,19,female,2020-08-19_17h31.06.936,torte-2b,2020.1.3,MacIntel,60,13340,,,,,,,,,,,,,,,,,,,,,,,,,,,,,,,,,,,,,0,95,95,21,1,,,,,,,,,,,,,,,,,,,,,,,,
,,,,,,,,,,,,l,0.349,Correct!,,,,,,t2.png,t5.png,3,0.0000131,19,female,2020-08-19_17h31.06.936,torte-2b,2020.1.3,MacIntel,60,13340,,,,,,,,,,,,,,,,,,,,,,,,,,,,,,,,,,,,,0,96,96,54,1,,,,,,,,,,,,,,,,,,,,,,,,
,,,,,,,,,,,,a,0.685,Correct!,,,,,,t3.png,t2.png,1,0.90855,19,female,2020-08-19_17h31.06.936,torte-2b,2020.1.3,MacIntel,60,13340,,,,,,,,,,,,,,,,,,,,,,,,,,,,,,,,,,,,,0,97,97,94,1,,,,,,,,,,,,,,,,,,,,,,,,
,,,,,,,,,,,,l,0.419,Correct!,,,,,,t3.png,t5.png,2,0.056466,19,female,2020-08-19_17h31.06.936,torte-2b,2020.1.3,MacIntel,60,13340,,,,,,,,,,,,,,,,,,,,,,,,,,,,,,,,,,,,,0,98,98,60,1,,,,,,,,,,,,,,,,,,,,,,,,
,,,,,,,,,,,,l,0.439,Incorrect,,,,,,t5.png,t4.png,1,0.90025,19,female,2020-08-19_17h31.06.936,torte-2b,2020.1.3,MacIntel,60,13340,,,,,,,,,,,,,,,,,,,,,,,,,,,,,,,,,,,,,0,99,99,25,1,,,,,,,,,,,,,,,,,,,,,,,,
,,,,,,,,,,,,a,0.352,Correct!,,,,,,t4.png,t4.png,0,0.98115,19,female,2020-08-19_17h31.06.936,torte-2b,2020.1.3,MacIntel,60,13340,,,,,,,,,,,,,,,,,,,,,,,,,,,,,,,,,,,,,0,100,100,59,1,,,,,,,,,,,,,,,,,,,,,,,,
,,,,,,,,,,,,l,0.648,Correct!,,,,,,t3.png,t5.png,2,0.0565,19,female,2020-08-19_17h31.06.936,torte-2b,2020.1.3,MacIntel,60,13340,,,,,,,,,,,,,,,,,,,,,,,,,,,,,,,,,,,,,0,101,101,71,1,,,,,,,,,,,,,,,,,,,,,,,,
,,,,,,,,,,,,l,0.424,Incorrect,,,,,,t4.png,t5.png,1,0.90025,19,female,2020-08-19_17h31.06.936,torte-2b,2020.1.3,MacIntel,60,13340,,,,,,,,,,,,,,,,,,,,,,,,,,,,,,,,,,,,,0,102,102,63,1,,,,,,,,,,,,,,,,,,,,,,,,
,,,,,,,,,,,,l,0.433,Incorrect,,,,,,t2.png,t3.png,1,0.90855,19,female,2020-08-19_17h31.06.936,torte-2b,2020.1.3,MacIntel,60,13340,,,,,,,,,,,,,,,,,,,,,,,,,,,,,,,,,,,,,0,103,103,113,1,,,,,,,,,,,,,,,,,,,,,,,,
,,,,,,,,,,,,l,0.432,Correct!,,,,,,t2.png,t5.png,3,0.0000131,19,female,2020-08-19_17h31.06.936,torte-2b,2020.1.3,MacIntel,60,13340,,,,,,,,,,,,,,,,,,,,,,,,,,,,,,,,,,,,,0,104,104,85,1,,,,,,,,,,,,,,,,,,,,,,,,
,,,,,,,,,,,,l,0.324,Correct!,,,,,,t2.png,t5.png,3,0.0000131,19,female,2020-08-19_17h31.06.936,torte-2b,2020.1.3,MacIntel,60,13340,,,,,,,,,,,,,,,,,,,,,,,,,,,,,,,,,,,,,0,105,105,115,1,,,,,,,,,,,,,,,,,,,,,,,,
,,,,,,,,,,,,l,0.784,Incorrect,,,,,,t4.png,t3.png,1,0.90855,19,female,2020-08-19_17h31.06.936,torte-2b,2020.1.3,MacIntel,60,13340,,,,,,,,,,,,,,,,,,,,,,,,,,,,,,,,,,,,,0,106,106,11,1,,,,,,,,,,,,,,,,,,,,,,,,
,,,,,,,,,,,,a,0.048,Incorrect,,,,,,t1.png,t3.png,2,0.0565,19,female,2020-08-19_17h31.06.936,torte-2b,2020.1.3,MacIntel,60,13340,,,,,,,,,,,,,,,,,,,,,,,,,,,,,,,,,,,,,0,107,107,12,1,,,,,,,,,,,,,,,,,,,,,,,,
,,,,,,,,,,,,a,0.555,Incorrect,,,,,,t5.png,t1.png,4,9.55E-11,19,female,2020-08-19_17h31.06.936,torte-2b,2020.1.3,MacIntel,60,13340,,,,,,,,,,,,,,,,,,,,,,,,,,,,,,,,,,,,,0,108,108,31,1,,,,,,,,,,,,,,,,,,,,,,,,
,,,,,,,,,,,,a,0.466,Incorrect,,,,,,t5.png,t1.png,4,9.55E-11,19,female,2020-08-19_17h31.06.936,torte-2b,2020.1.3,MacIntel,60,13340,,,,,,,,,,,,,,,,,,,,,,,,,,,,,,,,,,,,,0,109,109,89,1,,,,,,,,,,,,,,,,,,,,,,,,
,,,,,,,,,,,,l,0.489,Incorrect,,,,,,t3.png,t4.png,1,0.90855,19,female,2020-08-19_17h31.06.936,torte-2b,2020.1.3,MacIntel,60,13340,,,,,,,,,,,,,,,,,,,,,,,,,,,,,,,,,,,,,0,110,110,5,1,,,,,,,,,,,,,,,,,,,,,,,,
,,,,,,,,,,,,l,0.451,Correct!,,,,,,t1.png,t4.png,3,0.0000131,19,female,2020-08-19_17h31.06.936,torte-2b,2020.1.3,MacIntel,60,13340,,,,,,,,,,,,,,,,,,,,,,,,,,,,,,,,,,,,,0,111,111,106,1,,,,,,,,,,,,,,,,,,,,,,,,
,,,,,,,,,,,,l,0.471,Incorrect,,,,,,t5.png,t4.png,1,0.90025,19,female,2020-08-19_17h31.06.936,torte-2b,2020.1.3,MacIntel,60,13340,,,,,,,,,,,,,,,,,,,,,,,,,,,,,,,,,,,,,0,112,112,14,1,,,,,,,,,,,,,,,,,,,,,,,,
,,,,,,,,,,,,a,0.433,Incorrect,,,,,,t3.png,t1.png,2,0.056466,19,female,2020-08-19_17h31.06.936,torte-2b,2020.1.3,MacIntel,60,13340,,,,,,,,,,,,,,,,,,,,,,,,,,,,,,,,,,,,,0,113,113,72,1,,,,,,,,,,,,,,,,,,,,,,,,
,,,,,,,,,,,,a,0.403,Correct!,,,,,,t5.png,t5.png,0,0.978,19,female,2020-08-19_17h31.06.936,torte-2b,2020.1.3,MacIntel,60,13340,,,,,,,,,,,,,,,,,,,,,,,,,,,,,,,,,,,,,0,114,114,51,1,,,,,,,,,,,,,,,,,,,,,,,,
,,,,,,,,,,,,a,0.384,Incorrect,,,,,,t4.png,t1.png,3,0.0000131,19,female,2020-08-19_17h31.06.936,torte-2b,2020.1.3,MacIntel,60,13340,,,,,,,,,,,,,,,,,,,,,,,,,,,,,,,,,,,,,0,115,115,28,1,,,,,,,,,,,,,,,,,,,,,,,,
,,,,,,,,,,,,l,0.468,Correct!,,,,,,t1.png,t5.png,4,9.55E-11,19,female,2020-08-19_17h31.06.936,torte-2b,2020.1.3,MacIntel,60,13340,,,,,,,,,,,,,,,,,,,,,,,,,,,,,,,,,,,,,0,116,116,118,1,,,,,,,,,,,,,,,,,,,,,,,,
,,,,,,,,,,,,l,0.75,Correct!,,,,,,t1.png,t4.png,3,0.0000131,19,female,2020-08-19_17h31.06.936,torte-2b,2020.1.3,MacIntel,60,13340,,,,,,,,,,,,,,,,,,,,,,,,,,,,,,,,,,,,,0,117,117,23,1,,,,,,,,,,,,,,,,,,,,,,,,
,,,,,,,,,,,,a,0.465,Correct!,,,,,,t4.png,t4.png,0,0.98115,19,female,2020-08-19_17h31.06.936,torte-2b,2020.1.3,MacIntel,60,13340,,,,,,,,,,,,,,,,,,,,,,,,,,,,,,,,,,,,,0,118,118,19,1,,,,,,,,,,,,,,,,,,,,,,,,
,,,,,,,,,,,,a,0.484,Correct!,,,,,,t2.png,t1.png,1,0.90025,19,female,2020-08-19_17h31.06.936,torte-2b,2020.1.3,MacIntel,60,13340,,,,,,,,,,,,,,,,,,,,,,,,,,,,,,,,,,,,,0,119,119,44,1,,,,,,,,,,,,,,,,,,,,,,,,
,,,,,,,,,,,,,,,,,,,,,,,,19,female,2020-08-19_17h31.06.936,torte-2b,2020.1.3,MacIntel,60,13340,space,1.865,,,,,,,,,,,,,,,,,,,,,,,,,,,,,,,,,,,,,,,,46,118,1,0,0,s2,75,-105,1,0,0,t4,-245,-105,1,0,0,withdraw,space,0.813,space,0.546,space,0.311
