key_resp_8.keys,key_resp_8.rt,key_resp_9.keys,key_resp_9.rt,key_resp_10.keys,key_resp_10.rt,key_resp_11.keys,key_resp_11.rt,key_resp_2.keys,key_resp_2.rt,key_resp_3.keys,key_resp_3.rt,key_resp.keys,key_resp.rt,Feedback,train.thisRepN,train.thisTrialN,train.thisN,train.thisIndex,train.ran,torta_sx,torta_dx,difference,probability,age,gender,date,expName,psychopyVersion,OS,frameRate,participant,key_resp_15.keys,key_resp_15.rt,key_resp_6.keys,key_resp_6.rt,test1.thisRepN,test1.thisTrialN,test1.thisN,test1.thisIndex,test1.ran,key_resp_4.keys,key_resp_4.rt,key_resp_5.keys,back1.thisRepN,back1.thisTrialN,back1.thisN,back1.thisIndex,back1.ran,letter,key_resp_5.rt,back2.thisRepN,back2.thisTrialN,back2.thisN,back2.thisIndex,back2.ran,back3.thisRepN,back3.thisTrialN,back3.thisN,back3.thisIndex,back3.ran,back4.thisRepN,back4.thisTrialN,back4.thisN,back4.thisIndex,back4.ran,key_resp_7.keys,key_resp_7.rt,test2.thisRepN,test2.thisTrialN,test2.thisN,test2.thisIndex,test2.ran,mouse.x,mouse.y,mouse.leftButton,mouse.midButton,mouse.rightButton,mouse.clicked_name,mouse_2.x,mouse_2.y,mouse_2.leftButton,mouse_2.midButton,mouse_2.rightButton,mouse_2.clicked_name,mouse_3.x,mouse_3.y,mouse_3.leftButton,mouse_3.midButton,mouse_3.rightButton,mouse_3.clicked_name,key_resp_12.keys,key_resp_12.rt,key_resp_13.keys,key_resp_13.rt,key_resp_14.keys,key_resp_14.rt
space,0.56669,space,0.230075,space,0.32271,space,0.896405,space,1.37124,space,6.88834,l,1.653085,Correct!,0,0,0,83,1,t3.png,t1.png,2,0.056466,19,female,2020-11-22_09h15.01.581,torte-2b,2020.1.3,Win32,60,13348,,,,,,,,,,,,,,,,,,,,,,,,,,,,,,,,,,,,,,,,,,,,,,,,,,,,,,,,,,,,,,,,,
,,,,,,,,,,,,a,2.048225,Correct!,0,1,1,118,1,t5.png,t5.png,0,0.978,19,female,2020-11-22_09h15.01.581,torte-2b,2020.1.3,Win32,60,13348,,,,,,,,,,,,,,,,,,,,,,,,,,,,,,,,,,,,,,,,,,,,,,,,,,,,,,,,,,,,,,,,,
,,,,,,,,,,,,l,1.16012,Incorrect,0,2,2,63,1,t2.png,t3.png,1,0.909,19,female,2020-11-22_09h15.01.581,torte-2b,2020.1.3,Win32,60,13348,,,,,,,,,,,,,,,,,,,,,,,,,,,,,,,,,,,,,,,,,,,,,,,,,,,,,,,,,,,,,,,,,
,,,,,,,,,,,,l,1.886685,Correct!,0,3,3,0,1,t5.png,t1.png,4,9.55E-11,19,female,2020-11-22_09h15.01.581,torte-2b,2020.1.3,Win32,60,13348,,,,,,,,,,,,,,,,,,,,,,,,,,,,,,,,,,,,,,,,,,,,,,,,,,,,,,,,,,,,,,,,,
,,,,,,,,,,,,a,0.98629,Incorrect,0,4,4,50,1,t5.png,t1.png,4,9.55E-11,19,female,2020-11-22_09h15.01.581,torte-2b,2020.1.3,Win32,60,13348,,,,,,,,,,,,,,,,,,,,,,,,,,,,,,,,,,,,,,,,,,,,,,,,,,,,,,,,,,,,,,,,,
,,,,,,,,,,,,a,1.118425,Correct!,0,5,5,107,1,t1.png,t1.png,0,0.978,19,female,2020-11-22_09h15.01.581,torte-2b,2020.1.3,Win32,60,13348,,,,,,,,,,,,,,,,,,,,,,,,,,,,,,,,,,,,,,,,,,,,,,,,,,,,,,,,,,,,,,,,,
,,,,,,,,,,,,l,0.92156,Correct!,0,6,6,108,1,t5.png,t1.png,4,9.55E-11,19,female,2020-11-22_09h15.01.581,torte-2b,2020.1.3,Win32,60,13348,,,,,,,,,,,,,,,,,,,,,,,,,,,,,,,,,,,,,,,,,,,,,,,,,,,,,,,,,,,,,,,,,
,,,,,,,,,,,,l,0.449795,Correct!,0,7,7,111,1,t5.png,t1.png,4,9.55E-11,19,female,2020-11-22_09h15.01.581,torte-2b,2020.1.3,Win32,60,13348,,,,,,,,,,,,,,,,,,,,,,,,,,,,,,,,,,,,,,,,,,,,,,,,,,,,,,,,,,,,,,,,,
,,,,,,,,,,,,l,0.700965,Correct!,0,8,8,36,1,t3.png,t1.png,2,0.0565,19,female,2020-11-22_09h15.01.581,torte-2b,2020.1.3,Win32,60,13348,,,,,,,,,,,,,,,,,,,,,,,,,,,,,,,,,,,,,,,,,,,,,,,,,,,,,,,,,,,,,,,,,
,,,,,,,,,,,,a,1.42114,Incorrect,0,9,9,2,1,t3.png,t2.png,1,0.90855,19,female,2020-11-22_09h15.01.581,torte-2b,2020.1.3,Win32,60,13348,,,,,,,,,,,,,,,,,,,,,,,,,,,,,,,,,,,,,,,,,,,,,,,,,,,,,,,,,,,,,,,,,
,,,,,,,,,,,,l,1.380705,Correct!,0,10,10,73,1,t4.png,t2.png,2,0.059078,19,female,2020-11-22_09h15.01.581,torte-2b,2020.1.3,Win32,60,13348,,,,,,,,,,,,,,,,,,,,,,,,,,,,,,,,,,,,,,,,,,,,,,,,,,,,,,,,,,,,,,,,,
,,,,,,,,,,,,l,0.685875,Incorrect,0,11,11,85,1,t3.png,t2.png,1,0.90855,19,female,2020-11-22_09h15.01.581,torte-2b,2020.1.3,Win32,60,13348,,,,,,,,,,,,,,,,,,,,,,,,,,,,,,,,,,,,,,,,,,,,,,,,,,,,,,,,,,,,,,,,,
,,,,,,,,,,,,a,0.8224,Incorrect,0,12,12,93,1,t2.png,t4.png,2,0.059078,19,female,2020-11-22_09h15.01.581,torte-2b,2020.1.3,Win32,60,13348,,,,,,,,,,,,,,,,,,,,,,,,,,,,,,,,,,,,,,,,,,,,,,,,,,,,,,,,,,,,,,,,,
,,,,,,,,,,,,l,1.55077,Correct!,0,13,13,31,1,t1.png,t5.png,4,9.55E-11,19,female,2020-11-22_09h15.01.581,torte-2b,2020.1.3,Win32,60,13348,,,,,,,,,,,,,,,,,,,,,,,,,,,,,,,,,,,,,,,,,,,,,,,,,,,,,,,,,,,,,,,,,
,,,,,,,,,,,,l,0.849605,Incorrect,0,14,14,75,1,t1.png,t1.png,0,0.97829,19,female,2020-11-22_09h15.01.581,torte-2b,2020.1.3,Win32,60,13348,,,,,,,,,,,,,,,,,,,,,,,,,,,,,,,,,,,,,,,,,,,,,,,,,,,,,,,,,,,,,,,,,
,,,,,,,,,,,,l,1.03735,Incorrect,0,15,15,39,1,t3.png,t2.png,1,0.90855,19,female,2020-11-22_09h15.01.581,torte-2b,2020.1.3,Win32,60,13348,,,,,,,,,,,,,,,,,,,,,,,,,,,,,,,,,,,,,,,,,,,,,,,,,,,,,,,,,,,,,,,,,
,,,,,,,,,,,,l,0.48554,Incorrect,0,16,16,64,1,t1.png,t1.png,0,0.978,19,female,2020-11-22_09h15.01.581,torte-2b,2020.1.3,Win32,60,13348,,,,,,,,,,,,,,,,,,,,,,,,,,,,,,,,,,,,,,,,,,,,,,,,,,,,,,,,,,,,,,,,,
,,,,,,,,,,,,a,0.40635,Incorrect,0,17,17,86,1,t3.png,t1.png,2,0.056466,19,female,2020-11-22_09h15.01.581,torte-2b,2020.1.3,Win32,60,13348,,,,,,,,,,,,,,,,,,,,,,,,,,,,,,,,,,,,,,,,,,,,,,,,,,,,,,,,,,,,,,,,,
,,,,,,,,,,,,l,1.25335,Incorrect,0,18,18,8,1,t3.png,t2.png,1,0.90855,19,female,2020-11-22_09h15.01.581,torte-2b,2020.1.3,Win32,60,13348,,,,,,,,,,,,,,,,,,,,,,,,,,,,,,,,,,,,,,,,,,,,,,,,,,,,,,,,,,,,,,,,,
,,,,,,,,,,,,a,0.451965,Correct!,0,19,19,27,1,t3.png,t1.png,2,0.0565,19,female,2020-11-22_09h15.01.581,torte-2b,2020.1.3,Win32,60,13348,,,,,,,,,,,,,,,,,,,,,,,,,,,,,,,,,,,,,,,,,,,,,,,,,,,,,,,,,,,,,,,,,
,,,,,,,,,,,,a,1.217335,Correct!,0,20,20,29,1,t5.png,t5.png,0,0.97829,19,female,2020-11-22_09h15.01.581,torte-2b,2020.1.3,Win32,60,13348,,,,,,,,,,,,,,,,,,,,,,,,,,,,,,,,,,,,,,,,,,,,,,,,,,,,,,,,,,,,,,,,,
,,,,,,,,,,,,,,Too slow :(,0,21,21,49,1,t4.png,t5.png,1,0.9,19,female,2020-11-22_09h15.01.581,torte-2b,2020.1.3,Win32,60,13348,,,,,,,,,,,,,,,,,,,,,,,,,,,,,,,,,,,,,,,,,,,,,,,,,,,,,,,,,,,,,,,,,
,,,,,,,,,,,,a,0.622895,Incorrect,0,22,22,19,1,t4.png,t2.png,2,0.059078,19,female,2020-11-22_09h15.01.581,torte-2b,2020.1.3,Win32,60,13348,,,,,,,,,,,,,,,,,,,,,,,,,,,,,,,,,,,,,,,,,,,,,,,,,,,,,,,,,,,,,,,,,
,,,,,,,,,,,,l,1.788265,Incorrect,0,23,23,65,1,t4.png,t5.png,1,0.90025,19,female,2020-11-22_09h15.01.581,torte-2b,2020.1.3,Win32,60,13348,,,,,,,,,,,,,,,,,,,,,,,,,,,,,,,,,,,,,,,,,,,,,,,,,,,,,,,,,,,,,,,,,
,,,,,,,,,,,,a,1.1542,Correct!,0,24,24,62,1,t5.png,t5.png,0,0.978,19,female,2020-11-22_09h15.01.581,torte-2b,2020.1.3,Win32,60,13348,,,,,,,,,,,,,,,,,,,,,,,,,,,,,,,,,,,,,,,,,,,,,,,,,,,,,,,,,,,,,,,,,
,,,,,,,,,,,,a,1.06395,Correct!,0,25,25,48,1,t5.png,t5.png,0,0.97829,19,female,2020-11-22_09h15.01.581,torte-2b,2020.1.3,Win32,60,13348,,,,,,,,,,,,,,,,,,,,,,,,,,,,,,,,,,,,,,,,,,,,,,,,,,,,,,,,,,,,,,,,,
,,,,,,,,,,,,l,1.106635,Correct!,0,26,26,67,1,t1.png,t5.png,4,9.55E-11,19,female,2020-11-22_09h15.01.581,torte-2b,2020.1.3,Win32,60,13348,,,,,,,,,,,,,,,,,,,,,,,,,,,,,,,,,,,,,,,,,,,,,,,,,,,,,,,,,,,,,,,,,
,,,,,,,,,,,,l,1.504725,Correct!,0,27,27,72,1,t4.png,t2.png,2,0.059078,19,female,2020-11-22_09h15.01.581,torte-2b,2020.1.3,Win32,60,13348,,,,,,,,,,,,,,,,,,,,,,,,,,,,,,,,,,,,,,,,,,,,,,,,,,,,,,,,,,,,,,,,,
,,,,,,,,,,,,l,1.103045,Correct!,0,28,28,24,1,t4.png,t2.png,2,0.059078,19,female,2020-11-22_09h15.01.581,torte-2b,2020.1.3,Win32,60,13348,,,,,,,,,,,,,,,,,,,,,,,,,,,,,,,,,,,,,,,,,,,,,,,,,,,,,,,,,,,,,,,,,
,,,,,,,,,,,,a,1.41801,Correct!,0,29,29,23,1,t5.png,t4.png,1,0.90025,19,female,2020-11-22_09h15.01.581,torte-2b,2020.1.3,Win32,60,13348,,,,,,,,,,,,,,,,,,,,,,,,,,,,,,,,,,,,,,,,,,,,,,,,,,,,,,,,,,,,,,,,,
,,,,,,,,,,,,l,1.45169,Correct!,0,30,30,40,1,t1.png,t5.png,4,9.55E-11,19,female,2020-11-22_09h15.01.581,torte-2b,2020.1.3,Win32,60,13348,,,,,,,,,,,,,,,,,,,,,,,,,,,,,,,,,,,,,,,,,,,,,,,,,,,,,,,,,,,,,,,,,
,,,,,,,,,,,,l,1.158395,Correct!,0,31,31,26,1,t4.png,t2.png,2,0.0591,19,female,2020-11-22_09h15.01.581,torte-2b,2020.1.3,Win32,60,13348,,,,,,,,,,,,,,,,,,,,,,,,,,,,,,,,,,,,,,,,,,,,,,,,,,,,,,,,,,,,,,,,,
,,,,,,,,,,,,l,0.965005,Incorrect,0,32,32,32,1,t4.png,t5.png,1,0.90025,19,female,2020-11-22_09h15.01.581,torte-2b,2020.1.3,Win32,60,13348,,,,,,,,,,,,,,,,,,,,,,,,,,,,,,,,,,,,,,,,,,,,,,,,,,,,,,,,,,,,,,,,,
,,,,,,,,,,,,a,1.39919,Correct!,0,33,33,71,1,t5.png,t5.png,0,0.97829,19,female,2020-11-22_09h15.01.581,torte-2b,2020.1.3,Win32,60,13348,,,,,,,,,,,,,,,,,,,,,,,,,,,,,,,,,,,,,,,,,,,,,,,,,,,,,,,,,,,,,,,,,
,,,,,,,,,,,,l,0.699275,Correct!,0,34,34,37,1,t1.png,t4.png,3,0.0000131,19,female,2020-11-22_09h15.01.581,torte-2b,2020.1.3,Win32,60,13348,,,,,,,,,,,,,,,,,,,,,,,,,,,,,,,,,,,,,,,,,,,,,,,,,,,,,,,,,,,,,,,,,
,,,,,,,,,,,,l,0.63386,Correct!,0,35,35,17,1,t1.png,t4.png,3,0.0000131,19,female,2020-11-22_09h15.01.581,torte-2b,2020.1.3,Win32,60,13348,,,,,,,,,,,,,,,,,,,,,,,,,,,,,,,,,,,,,,,,,,,,,,,,,,,,,,,,,,,,,,,,,
,,,,,,,,,,,,l,0.67592,Incorrect,0,36,36,76,1,t3.png,t2.png,1,0.90855,19,female,2020-11-22_09h15.01.581,torte-2b,2020.1.3,Win32,60,13348,,,,,,,,,,,,,,,,,,,,,,,,,,,,,,,,,,,,,,,,,,,,,,,,,,,,,,,,,,,,,,,,,
,,,,,,,,,,,,a,0.738535,Correct!,0,37,37,42,1,t5.png,t4.png,1,0.90025,19,female,2020-11-22_09h15.01.581,torte-2b,2020.1.3,Win32,60,13348,,,,,,,,,,,,,,,,,,,,,,,,,,,,,,,,,,,,,,,,,,,,,,,,,,,,,,,,,,,,,,,,,
,,,,,,,,,,,,l,0.51994,Correct!,0,38,38,52,1,t2.png,t4.png,2,0.059078,19,female,2020-11-22_09h15.01.581,torte-2b,2020.1.3,Win32,60,13348,,,,,,,,,,,,,,,,,,,,,,,,,,,,,,,,,,,,,,,,,,,,,,,,,,,,,,,,,,,,,,,,,
,,,,,,,,,,,,l,1.06745,Incorrect,0,39,39,74,1,t5.png,t4.png,1,0.9,19,female,2020-11-22_09h15.01.581,torte-2b,2020.1.3,Win32,60,13348,,,,,,,,,,,,,,,,,,,,,,,,,,,,,,,,,,,,,,,,,,,,,,,,,,,,,,,,,,,,,,,,,
,,,,,,,,,,,,l,1.900525,Correct!,0,40,40,68,1,t1.png,t4.png,3,0.0000131,19,female,2020-11-22_09h15.01.581,torte-2b,2020.1.3,Win32,60,13348,,,,,,,,,,,,,,,,,,,,,,,,,,,,,,,,,,,,,,,,,,,,,,,,,,,,,,,,,,,,,,,,,
,,,,,,,,,,,,l,0.60306,Incorrect,0,41,41,7,1,t4.png,t5.png,1,0.90025,19,female,2020-11-22_09h15.01.581,torte-2b,2020.1.3,Win32,60,13348,,,,,,,,,,,,,,,,,,,,,,,,,,,,,,,,,,,,,,,,,,,,,,,,,,,,,,,,,,,,,,,,,
,,,,,,,,,,,,a,1.4355,Correct!,0,42,42,20,1,t2.png,t3.png,1,0.90855,19,female,2020-11-22_09h15.01.581,torte-2b,2020.1.3,Win32,60,13348,,,,,,,,,,,,,,,,,,,,,,,,,,,,,,,,,,,,,,,,,,,,,,,,,,,,,,,,,,,,,,,,,
,,,,,,,,,,,,a,1.13651,Incorrect,0,43,43,96,1,t1.png,t1.png,0,0.97829,19,female,2020-11-22_09h15.01.581,torte-2b,2020.1.3,Win32,60,13348,,,,,,,,,,,,,,,,,,,,,,,,,,,,,,,,,,,,,,,,,,,,,,,,,,,,,,,,,,,,,,,,,
,,,,,,,,,,,,l,0.717805,Correct!,0,44,44,90,1,t1.png,t5.png,4,9.55E-11,19,female,2020-11-22_09h15.01.581,torte-2b,2020.1.3,Win32,60,13348,,,,,,,,,,,,,,,,,,,,,,,,,,,,,,,,,,,,,,,,,,,,,,,,,,,,,,,,,,,,,,,,,
,,,,,,,,,,,,a,0.753545,Correct!,0,45,45,95,1,t1.png,t1.png,0,0.978,19,female,2020-11-22_09h15.01.581,torte-2b,2020.1.3,Win32,60,13348,,,,,,,,,,,,,,,,,,,,,,,,,,,,,,,,,,,,,,,,,,,,,,,,,,,,,,,,,,,,,,,,,
,,,,,,,,,,,,l,0.62442,Correct!,0,46,46,11,1,t1.png,t4.png,3,0.0000131,19,female,2020-11-22_09h15.01.581,torte-2b,2020.1.3,Win32,60,13348,,,,,,,,,,,,,,,,,,,,,,,,,,,,,,,,,,,,,,,,,,,,,,,,,,,,,,,,,,,,,,,,,
,,,,,,,,,,,,a,0.55225,Correct!,0,47,47,21,1,t5.png,t4.png,1,0.90025,19,female,2020-11-22_09h15.01.581,torte-2b,2020.1.3,Win32,60,13348,,,,,,,,,,,,,,,,,,,,,,,,,,,,,,,,,,,,,,,,,,,,,,,,,,,,,,,,,,,,,,,,,
,,,,,,,,,,,,a,0.72387,Correct!,0,48,48,77,1,t1.png,t1.png,0,0.97829,19,female,2020-11-22_09h15.01.581,torte-2b,2020.1.3,Win32,60,13348,,,,,,,,,,,,,,,,,,,,,,,,,,,,,,,,,,,,,,,,,,,,,,,,,,,,,,,,,,,,,,,,,
,,,,,,,,,,,,l,1.151055,Incorrect,0,49,49,45,1,t3.png,t2.png,1,0.90855,19,female,2020-11-22_09h15.01.581,torte-2b,2020.1.3,Win32,60,13348,,,,,,,,,,,,,,,,,,,,,,,,,,,,,,,,,,,,,,,,,,,,,,,,,,,,,,,,,,,,,,,,,
,,,,,,,,,,,,l,0.83936,Incorrect,0,50,50,114,1,t2.png,t3.png,1,0.90855,19,female,2020-11-22_09h15.01.581,torte-2b,2020.1.3,Win32,60,13348,,,,,,,,,,,,,,,,,,,,,,,,,,,,,,,,,,,,,,,,,,,,,,,,,,,,,,,,,,,,,,,,,
,,,,,,,,,,,,l,0.468705,Incorrect,0,51,51,84,1,t1.png,t1.png,0,0.97829,19,female,2020-11-22_09h15.01.581,torte-2b,2020.1.3,Win32,60,13348,,,,,,,,,,,,,,,,,,,,,,,,,,,,,,,,,,,,,,,,,,,,,,,,,,,,,,,,,,,,,,,,,
,,,,,,,,,,,,l,0.67444,Correct!,0,52,52,4,1,t1.png,t5.png,4,9.55E-11,19,female,2020-11-22_09h15.01.581,torte-2b,2020.1.3,Win32,60,13348,,,,,,,,,,,,,,,,,,,,,,,,,,,,,,,,,,,,,,,,,,,,,,,,,,,,,,,,,,,,,,,,,
,,,,,,,,,,,,a,0.500295,Incorrect,0,53,53,51,1,t3.png,t1.png,2,0.056466,19,female,2020-11-22_09h15.01.581,torte-2b,2020.1.3,Win32,60,13348,,,,,,,,,,,,,,,,,,,,,,,,,,,,,,,,,,,,,,,,,,,,,,,,,,,,,,,,,,,,,,,,,
,,,,,,,,,,,,l,0.837835,Incorrect,0,54,54,41,1,t3.png,t2.png,1,0.90855,19,female,2020-11-22_09h15.01.581,torte-2b,2020.1.3,Win32,60,13348,,,,,,,,,,,,,,,,,,,,,,,,,,,,,,,,,,,,,,,,,,,,,,,,,,,,,,,,,,,,,,,,,
,,,,,,,,,,,,l,0.834665,Correct!,0,55,55,92,1,t2.png,t3.png,1,0.909,19,female,2020-11-22_09h15.01.581,torte-2b,2020.1.3,Win32,60,13348,,,,,,,,,,,,,,,,,,,,,,,,,,,,,,,,,,,,,,,,,,,,,,,,,,,,,,,,,,,,,,,,,
,,,,,,,,,,,,a,0.38995,Correct!,0,56,56,105,1,t3.png,t2.png,1,0.90855,19,female,2020-11-22_09h15.01.581,torte-2b,2020.1.3,Win32,60,13348,,,,,,,,,,,,,,,,,,,,,,,,,,,,,,,,,,,,,,,,,,,,,,,,,,,,,,,,,,,,,,,,,
,,,,,,,,,,,,a,0.552855,Incorrect,0,57,57,53,1,t3.png,t1.png,2,0.056466,19,female,2020-11-22_09h15.01.581,torte-2b,2020.1.3,Win32,60,13348,,,,,,,,,,,,,,,,,,,,,,,,,,,,,,,,,,,,,,,,,,,,,,,,,,,,,,,,,,,,,,,,,
,,,,,,,,,,,,l,0.35185,Correct!,0,58,58,54,1,t1.png,t5.png,4,9.55E-11,19,female,2020-11-22_09h15.01.581,torte-2b,2020.1.3,Win32,60,13348,,,,,,,,,,,,,,,,,,,,,,,,,,,,,,,,,,,,,,,,,,,,,,,,,,,,,,,,,,,,,,,,,
,,,,,,,,,,,,a,0.821075,Correct!,0,59,59,59,1,t5.png,t4.png,1,0.9,19,female,2020-11-22_09h15.01.581,torte-2b,2020.1.3,Win32,60,13348,,,,,,,,,,,,,,,,,,,,,,,,,,,,,,,,,,,,,,,,,,,,,,,,,,,,,,,,,,,,,,,,,
,,,,,,,,,,,,l,1.44417,Correct!,0,60,60,88,1,t3.png,t1.png,2,0.056466,19,female,2020-11-22_09h15.01.581,torte-2b,2020.1.3,Win32,60,13348,,,,,,,,,,,,,,,,,,,,,,,,,,,,,,,,,,,,,,,,,,,,,,,,,,,,,,,,,,,,,,,,,
,,,,,,,,,,,,a,0.68231,Correct!,0,61,61,16,1,t5.png,t4.png,1,0.9,19,female,2020-11-22_09h15.01.581,torte-2b,2020.1.3,Win32,60,13348,,,,,,,,,,,,,,,,,,,,,,,,,,,,,,,,,,,,,,,,,,,,,,,,,,,,,,,,,,,,,,,,,
,,,,,,,,,,,,l,0.567465,Incorrect,0,62,62,79,1,t3.png,t2.png,1,0.909,19,female,2020-11-22_09h15.01.581,torte-2b,2020.1.3,Win32,60,13348,,,,,,,,,,,,,,,,,,,,,,,,,,,,,,,,,,,,,,,,,,,,,,,,,,,,,,,,,,,,,,,,,
,,,,,,,,,,,,a,0.443435,Correct!,0,63,63,58,1,t5.png,t4.png,1,0.90025,19,female,2020-11-22_09h15.01.581,torte-2b,2020.1.3,Win32,60,13348,,,,,,,,,,,,,,,,,,,,,,,,,,,,,,,,,,,,,,,,,,,,,,,,,,,,,,,,,,,,,,,,,
,,,,,,,,,,,,l,0.38551,Correct!,0,64,64,6,1,t1.png,t4.png,3,0.0000131,19,female,2020-11-22_09h15.01.581,torte-2b,2020.1.3,Win32,60,13348,,,,,,,,,,,,,,,,,,,,,,,,,,,,,,,,,,,,,,,,,,,,,,,,,,,,,,,,,,,,,,,,,
,,,,,,,,,,,,a,0.359705,Correct!,0,65,65,116,1,t5.png,t4.png,1,0.90025,19,female,2020-11-22_09h15.01.581,torte-2b,2020.1.3,Win32,60,13348,,,,,,,,,,,,,,,,,,,,,,,,,,,,,,,,,,,,,,,,,,,,,,,,,,,,,,,,,,,,,,,,,
,,,,,,,,,,,,l,0.39032,Correct!,0,66,66,1,1,t2.png,t4.png,2,0.059078,19,female,2020-11-22_09h15.01.581,torte-2b,2020.1.3,Win32,60,13348,,,,,,,,,,,,,,,,,,,,,,,,,,,,,,,,,,,,,,,,,,,,,,,,,,,,,,,,,,,,,,,,,
,,,,,,,,,,,,l,0.33869,Correct!,0,67,67,61,1,t1.png,t4.png,3,0.0000131,19,female,2020-11-22_09h15.01.581,torte-2b,2020.1.3,Win32,60,13348,,,,,,,,,,,,,,,,,,,,,,,,,,,,,,,,,,,,,,,,,,,,,,,,,,,,,,,,,,,,,,,,,
,,,,,,,,,,,,l,0.35799,Correct!,0,68,68,98,1,t2.png,t4.png,2,0.0591,19,female,2020-11-22_09h15.01.581,torte-2b,2020.1.3,Win32,60,13348,,,,,,,,,,,,,,,,,,,,,,,,,,,,,,,,,,,,,,,,,,,,,,,,,,,,,,,,,,,,,,,,,
,,,,,,,,,,,,l,0.456185,Correct!,0,69,69,5,1,t2.png,t4.png,2,0.059078,19,female,2020-11-22_09h15.01.581,torte-2b,2020.1.3,Win32,60,13348,,,,,,,,,,,,,,,,,,,,,,,,,,,,,,,,,,,,,,,,,,,,,,,,,,,,,,,,,,,,,,,,,
,,,,,,,,,,,,a,0.57335,Incorrect,0,70,70,43,1,t4.png,t2.png,2,0.059078,19,female,2020-11-22_09h15.01.581,torte-2b,2020.1.3,Win32,60,13348,,,,,,,,,,,,,,,,,,,,,,,,,,,,,,,,,,,,,,,,,,,,,,,,,,,,,,,,,,,,,,,,,
,,,,,,,,,,,,a,0.950645,Incorrect,0,71,71,56,1,t5.png,t1.png,4,9.55E-11,19,female,2020-11-22_09h15.01.581,torte-2b,2020.1.3,Win32,60,13348,,,,,,,,,,,,,,,,,,,,,,,,,,,,,,,,,,,,,,,,,,,,,,,,,,,,,,,,,,,,,,,,,
,,,,,,,,,,,,l,0.505335,Correct!,0,72,72,89,1,t1.png,t4.png,3,0.0000131,19,female,2020-11-22_09h15.01.581,torte-2b,2020.1.3,Win32,60,13348,,,,,,,,,,,,,,,,,,,,,,,,,,,,,,,,,,,,,,,,,,,,,,,,,,,,,,,,,,,,,,,,,
,,,,,,,,,,,,l,0.821455,Correct!,0,73,73,87,1,t5.png,t1.png,4,9.55E-11,19,female,2020-11-22_09h15.01.581,torte-2b,2020.1.3,Win32,60,13348,,,,,,,,,,,,,,,,,,,,,,,,,,,,,,,,,,,,,,,,,,,,,,,,,,,,,,,,,,,,,,,,,
,,,,,,,,,,,,l,0.56688,Incorrect,0,74,74,110,1,t4.png,t5.png,1,0.90025,19,female,2020-11-22_09h15.01.581,torte-2b,2020.1.3,Win32,60,13348,,,,,,,,,,,,,,,,,,,,,,,,,,,,,,,,,,,,,,,,,,,,,,,,,,,,,,,,,,,,,,,,,
,,,,,,,,,,,,l,0.552265,Correct!,0,75,75,3,1,t1.png,t5.png,4,9.55E-11,19,female,2020-11-22_09h15.01.581,torte-2b,2020.1.3,Win32,60,13348,,,,,,,,,,,,,,,,,,,,,,,,,,,,,,,,,,,,,,,,,,,,,,,,,,,,,,,,,,,,,,,,,
,,,,,,,,,,,,l,0.6567,Incorrect,0,76,76,81,1,t1.png,t1.png,0,0.97829,19,female,2020-11-22_09h15.01.581,torte-2b,2020.1.3,Win32,60,13348,,,,,,,,,,,,,,,,,,,,,,,,,,,,,,,,,,,,,,,,,,,,,,,,,,,,,,,,,,,,,,,,,
,,,,,,,,,,,,l,0.86967,Correct!,0,77,77,55,1,t2.png,t4.png,2,0.059078,19,female,2020-11-22_09h15.01.581,torte-2b,2020.1.3,Win32,60,13348,,,,,,,,,,,,,,,,,,,,,,,,,,,,,,,,,,,,,,,,,,,,,,,,,,,,,,,,,,,,,,,,,
,,,,,,,,,,,,a,0.40586,Correct!,0,78,78,34,1,t5.png,t4.png,1,0.9,19,female,2020-11-22_09h15.01.581,torte-2b,2020.1.3,Win32,60,13348,,,,,,,,,,,,,,,,,,,,,,,,,,,,,,,,,,,,,,,,,,,,,,,,,,,,,,,,,,,,,,,,,
,,,,,,,,,,,,l,0.387215,Correct!,0,79,79,57,1,t2.png,t4.png,2,0.059078,19,female,2020-11-22_09h15.01.581,torte-2b,2020.1.3,Win32,60,13348,,,,,,,,,,,,,,,,,,,,,,,,,,,,,,,,,,,,,,,,,,,,,,,,,,,,,,,,,,,,,,,,,
,,,,,,,,,,,,a,0.3753,Incorrect,0,80,80,12,1,t5.png,t1.png,4,9.55E-11,19,female,2020-11-22_09h15.01.581,torte-2b,2020.1.3,Win32,60,13348,,,,,,,,,,,,,,,,,,,,,,,,,,,,,,,,,,,,,,,,,,,,,,,,,,,,,,,,,,,,,,,,,
,,,,,,,,,,,,l,0.41907,Correct!,0,81,81,113,1,t5.png,t4.png,1,0.9,19,female,2020-11-22_09h15.01.581,torte-2b,2020.1.3,Win32,60,13348,,,,,,,,,,,,,,,,,,,,,,,,,,,,,,,,,,,,,,,,,,,,,,,,,,,,,,,,,,,,,,,,,
,,,,,,,,,,,,l,0.417425,Correct!,0,82,82,115,1,t2.png,t4.png,2,0.059078,19,female,2020-11-22_09h15.01.581,torte-2b,2020.1.3,Win32,60,13348,,,,,,,,,,,,,,,,,,,,,,,,,,,,,,,,,,,,,,,,,,,,,,,,,,,,,,,,,,,,,,,,,
,,,,,,,,,,,,l,0.530615,Correct!,0,83,83,80,1,t1.png,t4.png,3,0.0000131,19,female,2020-11-22_09h15.01.581,torte-2b,2020.1.3,Win32,60,13348,,,,,,,,,,,,,,,,,,,,,,,,,,,,,,,,,,,,,,,,,,,,,,,,,,,,,,,,,,,,,,,,,
,,,,,,,,,,,,a,0.46399,Incorrect,0,84,84,102,1,t4.png,t2.png,2,0.059078,19,female,2020-11-22_09h15.01.581,torte-2b,2020.1.3,Win32,60,13348,,,,,,,,,,,,,,,,,,,,,,,,,,,,,,,,,,,,,,,,,,,,,,,,,,,,,,,,,,,,,,,,,
,,,,,,,,,,,,l,0.38344,Incorrect,0,85,85,66,1,t4.png,t5.png,1,0.9,19,female,2020-11-22_09h15.01.581,torte-2b,2020.1.3,Win32,60,13348,,,,,,,,,,,,,,,,,,,,,,,,,,,,,,,,,,,,,,,,,,,,,,,,,,,,,,,,,,,,,,,,,
,,,,,,,,,,,,l,0.317245,Correct!,0,86,86,99,1,t1.png,t5.png,4,9.55E-11,19,female,2020-11-22_09h15.01.581,torte-2b,2020.1.3,Win32,60,13348,,,,,,,,,,,,,,,,,,,,,,,,,,,,,,,,,,,,,,,,,,,,,,,,,,,,,,,,,,,,,,,,,
,,,,,,,,,,,,l,0.222835,Incorrect,0,87,87,100,1,t4.png,t5.png,1,0.90025,19,female,2020-11-22_09h15.01.581,torte-2b,2020.1.3,Win32,60,13348,,,,,,,,,,,,,,,,,,,,,,,,,,,,,,,,,,,,,,,,,,,,,,,,,,,,,,,,,,,,,,,,,
,,,,,,,,,,,,l,0.301165,Correct!,0,88,88,117,1,t1.png,t5.png,4,9.55E-11,19,female,2020-11-22_09h15.01.581,torte-2b,2020.1.3,Win32,60,13348,,,,,,,,,,,,,,,,,,,,,,,,,,,,,,,,,,,,,,,,,,,,,,,,,,,,,,,,,,,,,,,,,
,,,,,,,,,,,,a,1.25824,Incorrect,0,89,89,33,1,t5.png,t1.png,4,9.55E-11,19,female,2020-11-22_09h15.01.581,torte-2b,2020.1.3,Win32,60,13348,,,,,,,,,,,,,,,,,,,,,,,,,,,,,,,,,,,,,,,,,,,,,,,,,,,,,,,,,,,,,,,,,
,,,,,,,,,,,,a,1.03594,Incorrect,0,90,90,103,1,t3.png,t1.png,2,0.056466,19,female,2020-11-22_09h15.01.581,torte-2b,2020.1.3,Win32,60,13348,,,,,,,,,,,,,,,,,,,,,,,,,,,,,,,,,,,,,,,,,,,,,,,,,,,,,,,,,,,,,,,,,
,,,,,,,,,,,,l,0.638235,Incorrect,0,91,91,10,1,t2.png,t3.png,1,0.90855,19,female,2020-11-22_09h15.01.581,torte-2b,2020.1.3,Win32,60,13348,,,,,,,,,,,,,,,,,,,,,,,,,,,,,,,,,,,,,,,,,,,,,,,,,,,,,,,,,,,,,,,,,
,,,,,,,,,,,,a,0.892525,Incorrect,0,92,92,82,1,t5.png,t1.png,4,9.55E-11,19,female,2020-11-22_09h15.01.581,torte-2b,2020.1.3,Win32,60,13348,,,,,,,,,,,,,,,,,,,,,,,,,,,,,,,,,,,,,,,,,,,,,,,,,,,,,,,,,,,,,,,,,
,,,,,,,,,,,,a,1.02334,Correct!,0,93,93,109,1,t5.png,t5.png,0,0.97829,19,female,2020-11-22_09h15.01.581,torte-2b,2020.1.3,Win32,60,13348,,,,,,,,,,,,,,,,,,,,,,,,,,,,,,,,,,,,,,,,,,,,,,,,,,,,,,,,,,,,,,,,,
,,,,,,,,,,,,l,1.217855,Incorrect,0,94,94,9,1,t4.png,t5.png,1,0.9,19,female,2020-11-22_09h15.01.581,torte-2b,2020.1.3,Win32,60,13348,,,,,,,,,,,,,,,,,,,,,,,,,,,,,,,,,,,,,,,,,,,,,,,,,,,,,,,,,,,,,,,,,
,,,,,,,,,,,,l,1.500155,Incorrect,0,95,95,44,1,t2.png,t3.png,1,0.909,19,female,2020-11-22_09h15.01.581,torte-2b,2020.1.3,Win32,60,13348,,,,,,,,,,,,,,,,,,,,,,,,,,,,,,,,,,,,,,,,,,,,,,,,,,,,,,,,,,,,,,,,,
,,,,,,,,,,,,l,0.847985,Correct!,0,96,96,60,1,t2.png,t4.png,2,0.059078,19,female,2020-11-22_09h15.01.581,torte-2b,2020.1.3,Win32,60,13348,,,,,,,,,,,,,,,,,,,,,,,,,,,,,,,,,,,,,,,,,,,,,,,,,,,,,,,,,,,,,,,,,
,,,,,,,,,,,,a,1.11081,Incorrect,0,97,97,69,1,t4.png,t2.png,2,0.059078,19,female,2020-11-22_09h15.01.581,torte-2b,2020.1.3,Win32,60,13348,,,,,,,,,,,,,,,,,,,,,,,,,,,,,,,,,,,,,,,,,,,,,,,,,,,,,,,,,,,,,,,,,
,,,,,,,,,,,,l,1.75719,Incorrect,0,98,98,101,1,t4.png,t5.png,1,0.90025,19,female,2020-11-22_09h15.01.581,torte-2b,2020.1.3,Win32,60,13348,,,,,,,,,,,,,,,,,,,,,,,,,,,,,,,,,,,,,,,,,,,,,,,,,,,,,,,,,,,,,,,,,
,,,,,,,,,,,,a,1.80763,Correct!,0,99,99,78,1,t1.png,t1.png,0,0.978,19,female,2020-11-22_09h15.01.581,torte-2b,2020.1.3,Win32,60,13348,,,,,,,,,,,,,,,,,,,,,,,,,,,,,,,,,,,,,,,,,,,,,,,,,,,,,,,,,,,,,,,,,
,,,,,,,,,,,,,,Too slow :(,0,100,100,35,1,t1.png,t4.png,3,0.0000131,19,female,2020-11-22_09h15.01.581,torte-2b,2020.1.3,Win32,60,13348,,,,,,,,,,,,,,,,,,,,,,,,,,,,,,,,,,,,,,,,,,,,,,,,,,,,,,,,,,,,,,,,,
,,,,,,,,,,,,l,0.916475,Incorrect,0,101,101,28,1,t2.png,t3.png,1,0.909,19,female,2020-11-22_09h15.01.581,torte-2b,2020.1.3,Win32,60,13348,,,,,,,,,,,,,,,,,,,,,,,,,,,,,,,,,,,,,,,,,,,,,,,,,,,,,,,,,,,,,,,,,
,,,,,,,,,,,,l,1.85447,Incorrect,0,102,102,22,1,t2.png,t3.png,1,0.90855,19,female,2020-11-22_09h15.01.581,torte-2b,2020.1.3,Win32,60,13348,,,,,,,,,,,,,,,,,,,,,,,,,,,,,,,,,,,,,,,,,,,,,,,,,,,,,,,,,,,,,,,,,
,,,,,,,,,,,,a,1.267335,Correct!,0,103,103,15,1,t3.png,t2.png,1,0.90855,19,female,2020-11-22_09h15.01.581,torte-2b,2020.1.3,Win32,60,13348,,,,,,,,,,,,,,,,,,,,,,,,,,,,,,,,,,,,,,,,,,,,,,,,,,,,,,,,,,,,,,,,,
,,,,,,,,,,,,a,1.08419,Correct!,0,104,104,70,1,t5.png,t5.png,0,0.978,19,female,2020-11-22_09h15.01.581,torte-2b,2020.1.3,Win32,60,13348,,,,,,,,,,,,,,,,,,,,,,,,,,,,,,,,,,,,,,,,,,,,,,,,,,,,,,,,,,,,,,,,,
,,,,,,,,,,,,l,0.753345,Incorrect,0,105,105,97,1,t5.png,t5.png,0,0.97829,19,female,2020-11-22_09h15.01.581,torte-2b,2020.1.3,Win32,60,13348,,,,,,,,,,,,,,,,,,,,,,,,,,,,,,,,,,,,,,,,,,,,,,,,,,,,,,,,,,,,,,,,,
,,,,,,,,,,,,a,1.503725,Correct!,0,106,106,13,1,t5.png,t5.png,0,0.97829,19,female,2020-11-22_09h15.01.581,torte-2b,2020.1.3,Win32,60,13348,,,,,,,,,,,,,,,,,,,,,,,,,,,,,,,,,,,,,,,,,,,,,,,,,,,,,,,,,,,,,,,,,
,,,,,,,,,,,,l,1.235665,Correct!,0,107,107,94,1,t5.png,t1.png,4,9.55E-11,19,female,2020-11-22_09h15.01.581,torte-2b,2020.1.3,Win32,60,13348,,,,,,,,,,,,,,,,,,,,,,,,,,,,,,,,,,,,,,,,,,,,,,,,,,,,,,,,,,,,,,,,,
,,,,,,,,,,,,a,0.824365,Incorrect,0,108,108,38,1,t3.png,t1.png,2,0.056466,19,female,2020-11-22_09h15.01.581,torte-2b,2020.1.3,Win32,60,13348,,,,,,,,,,,,,,,,,,,,,,,,,,,,,,,,,,,,,,,,,,,,,,,,,,,,,,,,,,,,,,,,,
,,,,,,,,,,,,l,1.319905,Incorrect,0,109,109,18,1,t4.png,t5.png,1,0.90025,19,female,2020-11-22_09h15.01.581,torte-2b,2020.1.3,Win32,60,13348,,,,,,,,,,,,,,,,,,,,,,,,,,,,,,,,,,,,,,,,,,,,,,,,,,,,,,,,,,,,,,,,,
,,,,,,,,,,,,a,1.588855,Incorrect,0,110,110,25,1,t5.png,t5.png,0,0.97829,19,female,2020-11-22_09h15.01.581,torte-2b,2020.1.3,Win32,60,13348,,,,,,,,,,,,,,,,,,,,,,,,,,,,,,,,,,,,,,,,,,,,,,,,,,,,,,,,,,,,,,,,,
,,,,,,,,,,,,l,1.10223,Correct!,0,111,111,30,1,t3.png,t1.png,2,0.056466,19,female,2020-11-22_09h15.01.581,torte-2b,2020.1.3,Win32,60,13348,,,,,,,,,,,,,,,,,,,,,,,,,,,,,,,,,,,,,,,,,,,,,,,,,,,,,,,,,,,,,,,,,
,,,,,,,,,,,,l,1.74538,Correct!,0,112,112,119,1,t1.png,t5.png,4,9.55E-11,19,female,2020-11-22_09h15.01.581,torte-2b,2020.1.3,Win32,60,13348,,,,,,,,,,,,,,,,,,,,,,,,,,,,,,,,,,,,,,,,,,,,,,,,,,,,,,,,,,,,,,,,,
,,,,,,,,,,,,,,Too slow :(,0,113,113,91,1,t1.png,t4.png,3,0.0000131,19,female,2020-11-22_09h15.01.581,torte-2b,2020.1.3,Win32,60,13348,,,,,,,,,,,,,,,,,,,,,,,,,,,,,,,,,,,,,,,,,,,,,,,,,,,,,,,,,,,,,,,,,
,,,,,,,,,,,,l,0.2558,Incorrect,0,114,114,104,1,t2.png,t3.png,1,0.90855,19,female,2020-11-22_09h15.01.581,torte-2b,2020.1.3,Win32,60,13348,,,,,,,,,,,,,,,,,,,,,,,,,,,,,,,,,,,,,,,,,,,,,,,,,,,,,,,,,,,,,,,,,
,,,,,,,,,,,,l,0.305915,Correct!,0,115,115,47,1,t4.png,t2.png,2,0.059078,19,female,2020-11-22_09h15.01.581,torte-2b,2020.1.3,Win32,60,13348,,,,,,,,,,,,,,,,,,,,,,,,,,,,,,,,,,,,,,,,,,,,,,,,,,,,,,,,,,,,,,,,,
,,,,,,,,,,,,l,0.635885,Incorrect,0,116,116,112,1,t1.png,t1.png,0,0.97829,19,female,2020-11-22_09h15.01.581,torte-2b,2020.1.3,Win32,60,13348,,,,,,,,,,,,,,,,,,,,,,,,,,,,,,,,,,,,,,,,,,,,,,,,,,,,,,,,,,,,,,,,,
,,,,,,,,,,,,l,0.822615,Incorrect,0,117,117,106,1,t2.png,t3.png,1,0.90855,19,female,2020-11-22_09h15.01.581,torte-2b,2020.1.3,Win32,60,13348,,,,,,,,,,,,,,,,,,,,,,,,,,,,,,,,,,,,,,,,,,,,,,,,,,,,,,,,,,,,,,,,,
,,,,,,,,,,,,l,1.882465,Correct!,0,118,118,14,1,t2.png,t4.png,2,0.059078,19,female,2020-11-22_09h15.01.581,torte-2b,2020.1.3,Win32,60,13348,,,,,,,,,,,,,,,,,,,,,,,,,,,,,,,,,,,,,,,,,,,,,,,,,,,,,,,,,,,,,,,,,
,,,,,,,,,,,,,,Too slow :(,0,119,119,46,1,t4.png,t2.png,2,0.059078,19,female,2020-11-22_09h15.01.581,torte-2b,2020.1.3,Win32,60,13348,,,,,,,,,,,,,,,,,,,,,,,,,,,,,,,,,,,,,,,,,,,,,,,,,,,,,,,,,,,,,,,,,
,,,,,,,,,,,,l,1.176555,Incorrect,,,,,,t5.png,t4.png,1,0.9,19,female,2020-11-22_09h15.01.581,torte-2b,2020.1.3,Win32,60,13348,space,1.888805,space,0.23646,0,0,0,49,1,,,,,,,,,,,,,,,,,,,,,,,,,,,,,,,,,,,,,,,,,,,,,,,,,,,,,,,,
,,,,,,,,,,,,l,1.14143,Correct!,,,,,,t1.png,t3.png,2,0.056466,19,female,2020-11-22_09h15.01.581,torte-2b,2020.1.3,Win32,60,13348,,,,,0,1,1,63,1,,,,,,,,,,,,,,,,,,,,,,,,,,,,,,,,,,,,,,,,,,,,,,,,,,,,,,,,
,,,,,,,,,,,,l,1.40361,Correct!,,,,,,t3.png,t4.png,1,0.909,19,female,2020-11-22_09h15.01.581,torte-2b,2020.1.3,Win32,60,13348,,,,,0,2,2,89,1,,,,,,,,,,,,,,,,,,,,,,,,,,,,,,,,,,,,,,,,,,,,,,,,,,,,,,,,
,,,,,,,,,,,,a,1.17305,Incorrect,,,,,,t5.png,t3.png,2,0.056466,19,female,2020-11-22_09h15.01.581,torte-2b,2020.1.3,Win32,60,13348,,,,,0,3,3,38,1,,,,,,,,,,,,,,,,,,,,,,,,,,,,,,,,,,,,,,,,,,,,,,,,,,,,,,,,
,,,,,,,,,,,,l,1.555885,Correct!,,,,,,t2.png,t4.png,2,0.059078,19,female,2020-11-22_09h15.01.581,torte-2b,2020.1.3,Win32,60,13348,,,,,0,4,4,24,1,,,,,,,,,,,,,,,,,,,,,,,,,,,,,,,,,,,,,,,,,,,,,,,,,,,,,,,,
,,,,,,,,,,,,l,0.474735,Correct!,,,,,,t2.png,t5.png,3,0.0000131,19,female,2020-11-22_09h15.01.581,torte-2b,2020.1.3,Win32,60,13348,,,,,0,5,5,104,1,,,,,,,,,,,,,,,,,,,,,,,,,,,,,,,,,,,,,,,,,,,,,,,,,,,,,,,,
,,,,,,,,,,,,l,0.376005,Incorrect,,,,,,t2.png,t1.png,1,0.9,19,female,2020-11-22_09h15.01.581,torte-2b,2020.1.3,Win32,60,13348,,,,,0,6,6,118,1,,,,,,,,,,,,,,,,,,,,,,,,,,,,,,,,,,,,,,,,,,,,,,,,,,,,,,,,
,,,,,,,,,,,,l,1.031385,Incorrect,,,,,,t4.png,t5.png,1,0.90025,19,female,2020-11-22_09h15.01.581,torte-2b,2020.1.3,Win32,60,13348,,,,,0,7,7,103,1,,,,,,,,,,,,,,,,,,,,,,,,,,,,,,,,,,,,,,,,,,,,,,,,,,,,,,,,
,,,,,,,,,,,,l,0.64319,Incorrect,,,,,,t1.png,t2.png,1,0.90025,19,female,2020-11-22_09h15.01.581,torte-2b,2020.1.3,Win32,60,13348,,,,,0,8,8,105,1,,,,,,,,,,,,,,,,,,,,,,,,,,,,,,,,,,,,,,,,,,,,,,,,,,,,,,,,
,,,,,,,,,,,,a,0.805875,Correct!,,,,,,t2.png,t1.png,1,0.90025,19,female,2020-11-22_09h15.01.581,torte-2b,2020.1.3,Win32,60,13348,,,,,0,9,9,5,1,,,,,,,,,,,,,,,,,,,,,,,,,,,,,,,,,,,,,,,,,,,,,,,,,,,,,,,,
,,,,,,,,,,,,l,0.33997,Correct!,,,,,,t1.png,t5.png,4,9.55E-11,19,female,2020-11-22_09h15.01.581,torte-2b,2020.1.3,Win32,60,13348,,,,,0,10,10,55,1,,,,,,,,,,,,,,,,,,,,,,,,,,,,,,,,,,,,,,,,,,,,,,,,,,,,,,,,
,,,,,,,,,,,,a,0.42341,Incorrect,,,,,,t5.png,t3.png,2,0.0565,19,female,2020-11-22_09h15.01.581,torte-2b,2020.1.3,Win32,60,13348,,,,,0,11,11,39,1,,,,,,,,,,,,,,,,,,,,,,,,,,,,,,,,,,,,,,,,,,,,,,,,,,,,,,,,
,,,,,,,,,,,,a,1.03409,Incorrect,,,,,,t4.png,t2.png,2,0.0591,19,female,2020-11-22_09h15.01.581,torte-2b,2020.1.3,Win32,60,13348,,,,,0,12,12,36,1,,,,,,,,,,,,,,,,,,,,,,,,,,,,,,,,,,,,,,,,,,,,,,,,,,,,,,,,
,,,,,,,,,,,,a,1.056245,Incorrect,,,,,,t4.png,t2.png,2,0.059078,19,female,2020-11-22_09h15.01.581,torte-2b,2020.1.3,Win32,60,13348,,,,,0,13,13,109,1,,,,,,,,,,,,,,,,,,,,,,,,,,,,,,,,,,,,,,,,,,,,,,,,,,,,,,,,
,,,,,,,,,,,,a,1.078615,Correct!,,,,,,t1.png,t1.png,0,0.97829,19,female,2020-11-22_09h15.01.581,torte-2b,2020.1.3,Win32,60,13348,,,,,0,14,14,78,1,,,,,,,,,,,,,,,,,,,,,,,,,,,,,,,,,,,,,,,,,,,,,,,,,,,,,,,,
,,,,,,,,,,,,l,1.371995,Correct!,,,,,,t4.png,t1.png,3,0.0000131,19,female,2020-11-22_09h15.01.581,torte-2b,2020.1.3,Win32,60,13348,,,,,0,15,15,61,1,,,,,,,,,,,,,,,,,,,,,,,,,,,,,,,,,,,,,,,,,,,,,,,,,,,,,,,,
,,,,,,,,,,,,l,0.88326,Correct!,,,,,,t1.png,t4.png,3,0.0000131,19,female,2020-11-22_09h15.01.581,torte-2b,2020.1.3,Win32,60,13348,,,,,0,16,16,50,1,,,,,,,,,,,,,,,,,,,,,,,,,,,,,,,,,,,,,,,,,,,,,,,,,,,,,,,,
,,,,,,,,,,,,l,1.219495,Incorrect,,,,,,t1.png,t2.png,1,0.90025,19,female,2020-11-22_09h15.01.581,torte-2b,2020.1.3,Win32,60,13348,,,,,0,17,17,33,1,,,,,,,,,,,,,,,,,,,,,,,,,,,,,,,,,,,,,,,,,,,,,,,,,,,,,,,,
,,,,,,,,,,,,a,0.41634,Incorrect,,,,,,t5.png,t1.png,4,9.55E-11,19,female,2020-11-22_09h15.01.581,torte-2b,2020.1.3,Win32,60,13348,,,,,0,18,18,102,1,,,,,,,,,,,,,,,,,,,,,,,,,,,,,,,,,,,,,,,,,,,,,,,,,,,,,,,,
,,,,,,,,,,,,a,0.6208,Correct!,,,,,,t3.png,t2.png,1,0.90855,19,female,2020-11-22_09h15.01.581,torte-2b,2020.1.3,Win32,60,13348,,,,,0,19,19,18,1,,,,,,,,,,,,,,,,,,,,,,,,,,,,,,,,,,,,,,,,,,,,,,,,,,,,,,,,
,,,,,,,,,,,,l,1.48388,Correct!,,,,,,t5.png,t3.png,2,0.056466,19,female,2020-11-22_09h15.01.581,torte-2b,2020.1.3,Win32,60,13348,,,,,0,20,20,114,1,,,,,,,,,,,,,,,,,,,,,,,,,,,,,,,,,,,,,,,,,,,,,,,,,,,,,,,,
,,,,,,,,,,,,a,0.724895,Correct!,,,,,,t4.png,t3.png,1,0.90855,19,female,2020-11-22_09h15.01.581,torte-2b,2020.1.3,Win32,60,13348,,,,,0,21,21,75,1,,,,,,,,,,,,,,,,,,,,,,,,,,,,,,,,,,,,,,,,,,,,,,,,,,,,,,,,
,,,,,,,,,,,,l,1.25861,Incorrect,,,,,,t2.png,t3.png,1,0.90855,19,female,2020-11-22_09h15.01.581,torte-2b,2020.1.3,Win32,60,13348,,,,,0,22,22,68,1,,,,,,,,,,,,,,,,,,,,,,,,,,,,,,,,,,,,,,,,,,,,,,,,,,,,,,,,
,,,,,,,,,,,,a,1.00061,Correct!,,,,,,t5.png,t5.png,0,0.978,19,female,2020-11-22_09h15.01.581,torte-2b,2020.1.3,Win32,60,13348,,,,,0,23,23,117,1,,,,,,,,,,,,,,,,,,,,,,,,,,,,,,,,,,,,,,,,,,,,,,,,,,,,,,,,
,,,,,,,,,,,,a,0.90063,Correct!,,,,,,t1.png,t1.png,0,0.97829,19,female,2020-11-22_09h15.01.581,torte-2b,2020.1.3,Win32,60,13348,,,,,0,24,24,9,1,,,,,,,,,,,,,,,,,,,,,,,,,,,,,,,,,,,,,,,,,,,,,,,,,,,,,,,,
,,,,,,,,,,,,a,0.401855,Correct!,,,,,,t4.png,t3.png,1,0.90855,19,female,2020-11-22_09h15.01.581,torte-2b,2020.1.3,Win32,60,13348,,,,,0,25,25,35,1,,,,,,,,,,,,,,,,,,,,,,,,,,,,,,,,,,,,,,,,,,,,,,,,,,,,,,,,
,,,,,,,,,,,,a,0.785575,Correct!,,,,,,t5.png,t5.png,0,0.97829,19,female,2020-11-22_09h15.01.581,torte-2b,2020.1.3,Win32,60,13348,,,,,0,26,26,94,1,,,,,,,,,,,,,,,,,,,,,,,,,,,,,,,,,,,,,,,,,,,,,,,,,,,,,,,,
,,,,,,,,,,,,a,0.527755,Correct!,,,,,,t5.png,t5.png,0,0.97829,19,female,2020-11-22_09h15.01.581,torte-2b,2020.1.3,Win32,60,13348,,,,,0,27,27,25,1,,,,,,,,,,,,,,,,,,,,,,,,,,,,,,,,,,,,,,,,,,,,,,,,,,,,,,,,
,,,,,,,,,,,,l,1.29104,Incorrect,,,,,,t4.png,t5.png,1,0.9,19,female,2020-11-22_09h15.01.581,torte-2b,2020.1.3,Win32,60,13348,,,,,0,28,28,115,1,,,,,,,,,,,,,,,,,,,,,,,,,,,,,,,,,,,,,,,,,,,,,,,,,,,,,,,,
,,,,,,,,,,,,a,1.851045,Correct!,,,,,,t4.png,t4.png,0,0.98115,19,female,2020-11-22_09h15.01.581,torte-2b,2020.1.3,Win32,60,13348,,,,,0,29,29,79,1,,,,,,,,,,,,,,,,,,,,,,,,,,,,,,,,,,,,,,,,,,,,,,,,,,,,,,,,
,,,,,,,,,,,,l,1.302495,Correct!,,,,,,t3.png,t1.png,2,0.0565,19,female,2020-11-22_09h15.01.581,torte-2b,2020.1.3,Win32,60,13348,,,,,0,30,30,31,1,,,,,,,,,,,,,,,,,,,,,,,,,,,,,,,,,,,,,,,,,,,,,,,,,,,,,,,,
,,,,,,,,,,,,l,0.87197,Incorrect,,,,,,t3.png,t4.png,1,0.90855,19,female,2020-11-22_09h15.01.581,torte-2b,2020.1.3,Win32,60,13348,,,,,0,31,31,96,1,,,,,,,,,,,,,,,,,,,,,,,,,,,,,,,,,,,,,,,,,,,,,,,,,,,,,,,,
,,,,,,,,,,,,l,0.435,Correct!,,,,,,t1.png,t5.png,4,9.55E-11,19,female,2020-11-22_09h15.01.581,torte-2b,2020.1.3,Win32,60,13348,,,,,0,32,32,41,1,,,,,,,,,,,,,,,,,,,,,,,,,,,,,,,,,,,,,,,,,,,,,,,,,,,,,,,,
,,,,,,,,,,,,l,0.425135,Correct!,,,,,,t2.png,t4.png,2,0.059078,19,female,2020-11-22_09h15.01.581,torte-2b,2020.1.3,Win32,60,13348,,,,,0,33,33,37,1,,,,,,,,,,,,,,,,,,,,,,,,,,,,,,,,,,,,,,,,,,,,,,,,,,,,,,,,
,,,,,,,,,,,,a,0.6846,Incorrect,,,,,,t4.png,t2.png,2,0.059078,19,female,2020-11-22_09h15.01.581,torte-2b,2020.1.3,Win32,60,13348,,,,,0,34,34,110,1,,,,,,,,,,,,,,,,,,,,,,,,,,,,,,,,,,,,,,,,,,,,,,,,,,,,,,,,
,,,,,,,,,,,,a,0.700775,Incorrect,,,,,,t3.png,t1.png,2,0.056466,19,female,2020-11-22_09h15.01.581,torte-2b,2020.1.3,Win32,60,13348,,,,,0,35,35,64,1,,,,,,,,,,,,,,,,,,,,,,,,,,,,,,,,,,,,,,,,,,,,,,,,,,,,,,,,
,,,,,,,,,,,,a,0.507985,Incorrect,,,,,,t5.png,t2.png,3,0.0000131,19,female,2020-11-22_09h15.01.581,torte-2b,2020.1.3,Win32,60,13348,,,,,0,36,36,98,1,,,,,,,,,,,,,,,,,,,,,,,,,,,,,,,,,,,,,,,,,,,,,,,,,,,,,,,,
,,,,,,,,,,,,a,0.355535,Incorrect,,,,,,t4.png,t1.png,3,0.0000131,19,female,2020-11-22_09h15.01.581,torte-2b,2020.1.3,Win32,60,13348,,,,,0,37,37,42,1,,,,,,,,,,,,,,,,,,,,,,,,,,,,,,,,,,,,,,,,,,,,,,,,,,,,,,,,
,,,,,,,,,,,,a,1.2854,Incorrect,,,,,,t3.png,t1.png,2,0.056466,19,female,2020-11-22_09h15.01.581,torte-2b,2020.1.3,Win32,60,13348,,,,,0,38,38,32,1,,,,,,,,,,,,,,,,,,,,,,,,,,,,,,,,,,,,,,,,,,,,,,,,,,,,,,,,
,,,,,,,,,,,,l,1.067985,Correct!,,,,,,t1.png,t4.png,3,0.0000131,19,female,2020-11-22_09h15.01.581,torte-2b,2020.1.3,Win32,60,13348,,,,,0,39,39,17,1,,,,,,,,,,,,,,,,,,,,,,,,,,,,,,,,,,,,,,,,,,,,,,,,,,,,,,,,
,,,,,,,,,,,,a,0.356515,Incorrect,,,,,,t5.png,t3.png,2,0.056466,19,female,2020-11-22_09h15.01.581,torte-2b,2020.1.3,Win32,60,13348,,,,,0,40,40,108,1,,,,,,,,,,,,,,,,,,,,,,,,,,,,,,,,,,,,,,,,,,,,,,,,,,,,,,,,
,,,,,,,,,,,,a,1.43661,Incorrect,,,,,,t1.png,t5.png,4,9.55E-11,19,female,2020-11-22_09h15.01.581,torte-2b,2020.1.3,Win32,60,13348,,,,,0,41,41,12,1,,,,,,,,,,,,,,,,,,,,,,,,,,,,,,,,,,,,,,,,,,,,,,,,,,,,,,,,
,,,,,,,,,,,,a,2.00426,Incorrect,,,,,,t5.png,t1.png,4,9.55E-11,19,female,2020-11-22_09h15.01.581,torte-2b,2020.1.3,Win32,60,13348,,,,,0,42,42,43,1,,,,,,,,,,,,,,,,,,,,,,,,,,,,,,,,,,,,,,,,,,,,,,,,,,,,,,,,
,,,,,,,,,,,,a,2.228405,Incorrect,,,,,,t5.png,t1.png,4,9.55E-11,19,female,2020-11-22_09h15.01.581,torte-2b,2020.1.3,Win32,60,13348,,,,,0,43,43,22,1,,,,,,,,,,,,,,,,,,,,,,,,,,,,,,,,,,,,,,,,,,,,,,,,,,,,,,,,
,,,,,,,,,,,,l,0.888565,Correct!,,,,,,t1.png,t5.png,4,9.55E-11,19,female,2020-11-22_09h15.01.581,torte-2b,2020.1.3,Win32,60,13348,,,,,0,44,44,85,1,,,,,,,,,,,,,,,,,,,,,,,,,,,,,,,,,,,,,,,,,,,,,,,,,,,,,,,,
,,,,,,,,,,,,a,0.625985,Incorrect,,,,,,t5.png,t2.png,3,0.0000131,19,female,2020-11-22_09h15.01.581,torte-2b,2020.1.3,Win32,60,13348,,,,,0,45,45,51,1,,,,,,,,,,,,,,,,,,,,,,,,,,,,,,,,,,,,,,,,,,,,,,,,,,,,,,,,
,,,,,,,,,,,,a,0.340005,Correct!,,,,,,t5.png,t4.png,1,0.90025,19,female,2020-11-22_09h15.01.581,torte-2b,2020.1.3,Win32,60,13348,,,,,0,46,46,34,1,,,,,,,,,,,,,,,,,,,,,,,,,,,,,,,,,,,,,,,,,,,,,,,,,,,,,,,,
,,,,,,,,,,,,a,0.40543,Incorrect,,,,,,t5.png,t3.png,2,0.056466,19,female,2020-11-22_09h15.01.581,torte-2b,2020.1.3,Win32,60,13348,,,,,0,47,47,56,1,,,,,,,,,,,,,,,,,,,,,,,,,,,,,,,,,,,,,,,,,,,,,,,,,,,,,,,,
,,,,,,,,,,,,l,0.46825,Correct!,,,,,,t3.png,t1.png,2,0.056466,19,female,2020-11-22_09h15.01.581,torte-2b,2020.1.3,Win32,60,13348,,,,,0,48,48,0,1,,,,,,,,,,,,,,,,,,,,,,,,,,,,,,,,,,,,,,,,,,,,,,,,,,,,,,,,
,,,,,,,,,,,,l,0.382885,Correct!,,,,,,t2.png,t3.png,1,0.90855,19,female,2020-11-22_09h15.01.581,torte-2b,2020.1.3,Win32,60,13348,,,,,0,49,49,10,1,,,,,,,,,,,,,,,,,,,,,,,,,,,,,,,,,,,,,,,,,,,,,,,,,,,,,,,,
,,,,,,,,,,,,a,0.37097,Correct!,,,,,,t4.png,t3.png,1,0.909,19,female,2020-11-22_09h15.01.581,torte-2b,2020.1.3,Win32,60,13348,,,,,0,50,50,20,1,,,,,,,,,,,,,,,,,,,,,,,,,,,,,,,,,,,,,,,,,,,,,,,,,,,,,,,,
,,,,,,,,,,,,a,0.38233,Correct!,,,,,,t2.png,t3.png,1,0.90855,19,female,2020-11-22_09h15.01.581,torte-2b,2020.1.3,Win32,60,13348,,,,,0,51,51,111,1,,,,,,,,,,,,,,,,,,,,,,,,,,,,,,,,,,,,,,,,,,,,,,,,,,,,,,,,
,,,,,,,,,,,,a,0.285135,Correct!,,,,,,t2.png,t2.png,0,0.98115,19,female,2020-11-22_09h15.01.581,torte-2b,2020.1.3,Win32,60,13348,,,,,0,52,52,2,1,,,,,,,,,,,,,,,,,,,,,,,,,,,,,,,,,,,,,,,,,,,,,,,,,,,,,,,,
,,,,,,,,,,,,l,0.56721,Incorrect,,,,,,t3.png,t2.png,1,0.90855,19,female,2020-11-22_09h15.01.581,torte-2b,2020.1.3,Win32,60,13348,,,,,0,53,53,97,1,,,,,,,,,,,,,,,,,,,,,,,,,,,,,,,,,,,,,,,,,,,,,,,,,,,,,,,,
,,,,,,,,,,,,a,0.35082,Correct!,,,,,,t2.png,t1.png,1,0.90025,19,female,2020-11-22_09h15.01.581,torte-2b,2020.1.3,Win32,60,13348,,,,,0,54,54,62,1,,,,,,,,,,,,,,,,,,,,,,,,,,,,,,,,,,,,,,,,,,,,,,,,,,,,,,,,
,,,,,,,,,,,,l,0.80799,Incorrect,,,,,,t2.png,t2.png,0,0.98115,19,female,2020-11-22_09h15.01.581,torte-2b,2020.1.3,Win32,60,13348,,,,,0,55,55,59,1,,,,,,,,,,,,,,,,,,,,,,,,,,,,,,,,,,,,,,,,,,,,,,,,,,,,,,,,
,,,,,,,,,,,,a,1.61934,Incorrect,,,,,,t3.png,t5.png,2,0.056466,19,female,2020-11-22_09h15.01.581,torte-2b,2020.1.3,Win32,60,13348,,,,,0,56,56,14,1,,,,,,,,,,,,,,,,,,,,,,,,,,,,,,,,,,,,,,,,,,,,,,,,,,,,,,,,
,,,,,,,,,,,,,,Too slow :(,,,,,,t3.png,t5.png,2,0.0565,19,female,2020-11-22_09h15.01.581,torte-2b,2020.1.3,Win32,60,13348,,,,,0,57,57,83,1,,,,,,,,,,,,,,,,,,,,,,,,,,,,,,,,,,,,,,,,,,,,,,,,,,,,,,,,
,,,,,,,,,,,,a,1.84974,Correct!,,,,,,t1.png,t2.png,1,0.90025,19,female,2020-11-22_09h15.01.581,torte-2b,2020.1.3,Win32,60,13348,,,,,0,58,58,72,1,,,,,,,,,,,,,,,,,,,,,,,,,,,,,,,,,,,,,,,,,,,,,,,,,,,,,,,,
,,,,,,,,,,,,a,1.04336,Correct!,,,,,,t2.png,t1.png,1,0.90025,19,female,2020-11-22_09h15.01.581,torte-2b,2020.1.3,Win32,60,13348,,,,,0,59,59,4,1,,,,,,,,,,,,,,,,,,,,,,,,,,,,,,,,,,,,,,,,,,,,,,,,,,,,,,,,
,,,,,,,,,,,,a,1.6393,Correct!,,,,,,t3.png,t2.png,1,0.90855,19,female,2020-11-22_09h15.01.581,torte-2b,2020.1.3,Win32,60,13348,,,,,0,60,60,53,1,,,,,,,,,,,,,,,,,,,,,,,,,,,,,,,,,,,,,,,,,,,,,,,,,,,,,,,,
,,,,,,,,,,,,l,0.437745,Correct!,,,,,,t1.png,t3.png,2,0.056466,19,female,2020-11-22_09h15.01.581,torte-2b,2020.1.3,Win32,60,13348,,,,,0,61,61,60,1,,,,,,,,,,,,,,,,,,,,,,,,,,,,,,,,,,,,,,,,,,,,,,,,,,,,,,,,
,,,,,,,,,,,,a,1.325055,Incorrect,,,,,,t5.png,t2.png,3,0.0000131,19,female,2020-11-22_09h15.01.581,torte-2b,2020.1.3,Win32,60,13348,,,,,0,62,62,119,1,,,,,,,,,,,,,,,,,,,,,,,,,,,,,,,,,,,,,,,,,,,,,,,,,,,,,,,,
,,,,,,,,,,,,l,1.799655,Incorrect,,,,,,t2.png,t1.png,1,0.90025,19,female,2020-11-22_09h15.01.581,torte-2b,2020.1.3,Win32,60,13348,,,,,0,63,63,19,1,,,,,,,,,,,,,,,,,,,,,,,,,,,,,,,,,,,,,,,,,,,,,,,,,,,,,,,,
,,,,,,,,,,,,a,1.077955,Correct!,,,,,,t2.png,t2.png,0,0.981,19,female,2020-11-22_09h15.01.581,torte-2b,2020.1.3,Win32,60,13348,,,,,0,64,64,101,1,,,,,,,,,,,,,,,,,,,,,,,,,,,,,,,,,,,,,,,,,,,,,,,,,,,,,,,,
,,,,,,,,,,,,a,0.51797,Incorrect,,,,,,t4.png,t5.png,1,0.90025,19,female,2020-11-22_09h15.01.581,torte-2b,2020.1.3,Win32,60,13348,,,,,0,65,65,113,1,,,,,,,,,,,,,,,,,,,,,,,,,,,,,,,,,,,,,,,,,,,,,,,,,,,,,,,,
,,,,,,,,,,,,l,1.468275,Correct!,,,,,,t2.png,t5.png,3,0.0000131,19,female,2020-11-22_09h15.01.581,torte-2b,2020.1.3,Win32,60,13348,,,,,0,66,66,8,1,,,,,,,,,,,,,,,,,,,,,,,,,,,,,,,,,,,,,,,,,,,,,,,,,,,,,,,,
,,,,,,,,,,,,a,0.85076,Correct!,,,,,,t5.png,t4.png,1,0.90025,19,female,2020-11-22_09h15.01.581,torte-2b,2020.1.3,Win32,60,13348,,,,,0,67,67,27,1,,,,,,,,,,,,,,,,,,,,,,,,,,,,,,,,,,,,,,,,,,,,,,,,,,,,,,,,
,,,,,,,,,,,,l,1.60358,Correct!,,,,,,t5.png,t1.png,4,9.55E-11,19,female,2020-11-22_09h15.01.581,torte-2b,2020.1.3,Win32,60,13348,,,,,0,68,68,71,1,,,,,,,,,,,,,,,,,,,,,,,,,,,,,,,,,,,,,,,,,,,,,,,,,,,,,,,,
,,,,,,,,,,,,l,0.875275,Correct!,,,,,,t3.png,t5.png,2,0.056466,19,female,2020-11-22_09h15.01.581,torte-2b,2020.1.3,Win32,60,13348,,,,,0,69,69,44,1,,,,,,,,,,,,,,,,,,,,,,,,,,,,,,,,,,,,,,,,,,,,,,,,,,,,,,,,
,,,,,,,,,,,,,,Too slow :(,,,,,,t2.png,t4.png,2,0.0591,19,female,2020-11-22_09h15.01.581,torte-2b,2020.1.3,Win32,60,13348,,,,,0,70,70,15,1,,,,,,,,,,,,,,,,,,,,,,,,,,,,,,,,,,,,,,,,,,,,,,,,,,,,,,,,
,,,,,,,,,,,,l,2.41881,Correct!,,,,,,t1.png,t4.png,3,0.0000131,19,female,2020-11-22_09h15.01.581,torte-2b,2020.1.3,Win32,60,13348,,,,,0,71,71,107,1,,,,,,,,,,,,,,,,,,,,,,,,,,,,,,,,,,,,,,,,,,,,,,,,,,,,,,,,
,,,,,,,,,,,,a,1.034695,Incorrect,,,,,,t5.png,t2.png,3,0.0000131,19,female,2020-11-22_09h15.01.581,torte-2b,2020.1.3,Win32,60,13348,,,,,0,72,72,91,1,,,,,,,,,,,,,,,,,,,,,,,,,,,,,,,,,,,,,,,,,,,,,,,,,,,,,,,,
,,,,,,,,,,,,a,0.85794,Correct!,,,,,,t4.png,t3.png,1,0.909,19,female,2020-11-22_09h15.01.581,torte-2b,2020.1.3,Win32,60,13348,,,,,0,73,73,46,1,,,,,,,,,,,,,,,,,,,,,,,,,,,,,,,,,,,,,,,,,,,,,,,,,,,,,,,,
,,,,,,,,,,,,l,2.38358,Correct!,,,,,,t2.png,t4.png,2,0.059078,19,female,2020-11-22_09h15.01.581,torte-2b,2020.1.3,Win32,60,13348,,,,,0,74,74,77,1,,,,,,,,,,,,,,,,,,,,,,,,,,,,,,,,,,,,,,,,,,,,,,,,,,,,,,,,
,,,,,,,,,,,,a,0.553605,Incorrect,,,,,,t5.png,t2.png,3,0.0000131,19,female,2020-11-22_09h15.01.581,torte-2b,2020.1.3,Win32,60,13348,,,,,0,75,75,116,1,,,,,,,,,,,,,,,,,,,,,,,,,,,,,,,,,,,,,,,,,,,,,,,,,,,,,,,,
,,,,,,,,,,,,a,0.384885,Correct!,,,,,,t4.png,t3.png,1,0.90855,19,female,2020-11-22_09h15.01.581,torte-2b,2020.1.3,Win32,60,13348,,,,,0,76,76,45,1,,,,,,,,,,,,,,,,,,,,,,,,,,,,,,,,,,,,,,,,,,,,,,,,,,,,,,,,
,,,,,,,,,,,,a,0.40319,Correct!,,,,,,t5.png,t4.png,1,0.9,19,female,2020-11-22_09h15.01.581,torte-2b,2020.1.3,Win32,60,13348,,,,,0,77,77,76,1,,,,,,,,,,,,,,,,,,,,,,,,,,,,,,,,,,,,,,,,,,,,,,,,,,,,,,,,
,,,,,,,,,,,,a,1.15191,Correct!,,,,,,t1.png,t1.png,0,0.978,19,female,2020-11-22_09h15.01.581,torte-2b,2020.1.3,Win32,60,13348,,,,,0,78,78,54,1,,,,,,,,,,,,,,,,,,,,,,,,,,,,,,,,,,,,,,,,,,,,,,,,,,,,,,,,
,,,,,,,,,,,,l,1.572015,Correct!,,,,,,t4.png,t1.png,3,0.0000131,19,female,2020-11-22_09h15.01.581,torte-2b,2020.1.3,Win32,60,13348,,,,,0,79,79,13,1,,,,,,,,,,,,,,,,,,,,,,,,,,,,,,,,,,,,,,,,,,,,,,,,,,,,,,,,
,,,,,,,,,,,,l,1.118555,Correct!,,,,,,t1.png,t4.png,3,0.0000131,19,female,2020-11-22_09h15.01.581,torte-2b,2020.1.3,Win32,60,13348,,,,,0,80,80,92,1,,,,,,,,,,,,,,,,,,,,,,,,,,,,,,,,,,,,,,,,,,,,,,,,,,,,,,,,
,,,,,,,,,,,,l,0.88571,Incorrect,,,,,,t2.png,t3.png,1,0.90855,19,female,2020-11-22_09h15.01.581,torte-2b,2020.1.3,Win32,60,13348,,,,,0,81,81,65,1,,,,,,,,,,,,,,,,,,,,,,,,,,,,,,,,,,,,,,,,,,,,,,,,,,,,,,,,
,,,,,,,,,,,,l,0.70704,Correct!,,,,,,t1.png,t3.png,2,0.056466,19,female,2020-11-22_09h15.01.581,torte-2b,2020.1.3,Win32,60,13348,,,,,0,82,82,87,1,,,,,,,,,,,,,,,,,,,,,,,,,,,,,,,,,,,,,,,,,,,,,,,,,,,,,,,,
,,,,,,,,,,,,a,1.319785,Correct!,,,,,,t3.png,t2.png,1,0.909,19,female,2020-11-22_09h15.01.581,torte-2b,2020.1.3,Win32,60,13348,,,,,0,83,83,23,1,,,,,,,,,,,,,,,,,,,,,,,,,,,,,,,,,,,,,,,,,,,,,,,,,,,,,,,,
,,,,,,,,,,,,l,0.750625,Incorrect,,,,,,t2.png,t2.png,0,0.98115,19,female,2020-11-22_09h15.01.581,torte-2b,2020.1.3,Win32,60,13348,,,,,0,84,84,57,1,,,,,,,,,,,,,,,,,,,,,,,,,,,,,,,,,,,,,,,,,,,,,,,,,,,,,,,,
,,,,,,,,,,,,l,1.05526,Incorrect,,,,,,t4.png,t5.png,1,0.90025,19,female,2020-11-22_09h15.01.581,torte-2b,2020.1.3,Win32,60,13348,,,,,0,85,85,58,1,,,,,,,,,,,,,,,,,,,,,,,,,,,,,,,,,,,,,,,,,,,,,,,,,,,,,,,,
,,,,,,,,,,,,l,0.552915,Incorrect,,,,,,t1.png,t2.png,1,0.9,19,female,2020-11-22_09h15.01.581,torte-2b,2020.1.3,Win32,60,13348,,,,,0,86,86,1,1,,,,,,,,,,,,,,,,,,,,,,,,,,,,,,,,,,,,,,,,,,,,,,,,,,,,,,,,
,,,,,,,,,,,,a,0.655285,Correct!,,,,,,t5.png,t5.png,0,0.97829,19,female,2020-11-22_09h15.01.581,torte-2b,2020.1.3,Win32,60,13348,,,,,0,87,87,73,1,,,,,,,,,,,,,,,,,,,,,,,,,,,,,,,,,,,,,,,,,,,,,,,,,,,,,,,,
,,,,,,,,,,,,a,0.88601,Correct!,,,,,,t3.png,t2.png,1,0.909,19,female,2020-11-22_09h15.01.581,torte-2b,2020.1.3,Win32,60,13348,,,,,0,88,88,3,1,,,,,,,,,,,,,,,,,,,,,,,,,,,,,,,,,,,,,,,,,,,,,,,,,,,,,,,,
,,,,,,,,,,,,l,2.09805,Incorrect,,,,,,t3.png,t4.png,1,0.90855,19,female,2020-11-22_09h15.01.581,torte-2b,2020.1.3,Win32,60,13348,,,,,0,89,89,84,1,,,,,,,,,,,,,,,,,,,,,,,,,,,,,,,,,,,,,,,,,,,,,,,,,,,,,,,,
,,,,,,,,,,,,l,0.534425,Correct!,,,,,,t1.png,t3.png,2,0.056466,19,female,2020-11-22_09h15.01.581,torte-2b,2020.1.3,Win32,60,13348,,,,,0,90,90,99,1,,,,,,,,,,,,,,,,,,,,,,,,,,,,,,,,,,,,,,,,,,,,,,,,,,,,,,,,
,,,,,,,,,,,,a,0.49243,Correct!,,,,,,t1.png,t1.png,0,0.97829,19,female,2020-11-22_09h15.01.581,torte-2b,2020.1.3,Win32,60,13348,,,,,0,91,91,67,1,,,,,,,,,,,,,,,,,,,,,,,,,,,,,,,,,,,,,,,,,,,,,,,,,,,,,,,,
,,,,,,,,,,,,a,0.571795,Correct!,,,,,,t4.png,t2.png,2,0.059078,19,female,2020-11-22_09h15.01.581,torte-2b,2020.1.3,Win32,60,13348,,,,,0,92,92,86,1,,,,,,,,,,,,,,,,,,,,,,,,,,,,,,,,,,,,,,,,,,,,,,,,,,,,,,,,
,,,,,,,,,,,,l,0.63689,Incorrect,,,,,,t2.png,t3.png,1,0.909,19,female,2020-11-22_09h15.01.581,torte-2b,2020.1.3,Win32,60,13348,,,,,0,93,93,74,1,,,,,,,,,,,,,,,,,,,,,,,,,,,,,,,,,,,,,,,,,,,,,,,,,,,,,,,,
,,,,,,,,,,,,l,0.73784,Correct!,,,,,,t1.png,t4.png,3,0.0000131,19,female,2020-11-22_09h15.01.581,torte-2b,2020.1.3,Win32,60,13348,,,,,0,94,94,81,1,,,,,,,,,,,,,,,,,,,,,,,,,,,,,,,,,,,,,,,,,,,,,,,,,,,,,,,,
,,,,,,,,,,,,a,0.31702,Correct!,,,,,,t4.png,t4.png,0,0.98115,19,female,2020-11-22_09h15.01.581,torte-2b,2020.1.3,Win32,60,13348,,,,,0,95,95,52,1,,,,,,,,,,,,,,,,,,,,,,,,,,,,,,,,,,,,,,,,,,,,,,,,,,,,,,,,
,,,,,,,,,,,,a,0.52035,Correct!,,,,,,t1.png,t1.png,0,0.978,19,female,2020-11-22_09h15.01.581,torte-2b,2020.1.3,Win32,60,13348,,,,,0,96,96,28,1,,,,,,,,,,,,,,,,,,,,,,,,,,,,,,,,,,,,,,,,,,,,,,,,,,,,,,,,
,,,,,,,,,,,,a,0.469385,Incorrect,,,,,,t3.png,t1.png,2,0.056466,19,female,2020-11-22_09h15.01.581,torte-2b,2020.1.3,Win32,60,13348,,,,,0,97,97,29,1,,,,,,,,,,,,,,,,,,,,,,,,,,,,,,,,,,,,,,,,,,,,,,,,,,,,,,,,
,,,,,,,,,,,,l,0.733905,Correct!,,,,,,t2.png,t5.png,3,0.0000131,19,female,2020-11-22_09h15.01.581,torte-2b,2020.1.3,Win32,60,13348,,,,,0,98,98,66,1,,,,,,,,,,,,,,,,,,,,,,,,,,,,,,,,,,,,,,,,,,,,,,,,,,,,,,,,
,,,,,,,,,,,,a,0.72526,Correct!,,,,,,t3.png,t4.png,1,0.909,19,female,2020-11-22_09h15.01.581,torte-2b,2020.1.3,Win32,60,13348,,,,,0,99,99,106,1,,,,,,,,,,,,,,,,,,,,,,,,,,,,,,,,,,,,,,,,,,,,,,,,,,,,,,,,
,,,,,,,,,,,,a,0.553485,Incorrect,,,,,,t4.png,t1.png,3,0.0000131,19,female,2020-11-22_09h15.01.581,torte-2b,2020.1.3,Win32,60,13348,,,,,0,100,100,93,1,,,,,,,,,,,,,,,,,,,,,,,,,,,,,,,,,,,,,,,,,,,,,,,,,,,,,,,,
,,,,,,,,,,,,l,0.58949,Correct!,,,,,,t2.png,t5.png,3,0.0000131,19,female,2020-11-22_09h15.01.581,torte-2b,2020.1.3,Win32,60,13348,,,,,0,101,101,40,1,,,,,,,,,,,,,,,,,,,,,,,,,,,,,,,,,,,,,,,,,,,,,,,,,,,,,,,,
,,,,,,,,,,,,a,0.38366,Correct!,,,,,,t5.png,t5.png,0,0.97829,19,female,2020-11-22_09h15.01.581,torte-2b,2020.1.3,Win32,60,13348,,,,,0,102,102,70,1,,,,,,,,,,,,,,,,,,,,,,,,,,,,,,,,,,,,,,,,,,,,,,,,,,,,,,,,
,,,,,,,,,,,,a,0.986835,Correct!,,,,,,t2.png,t2.png,0,0.98115,19,female,2020-11-22_09h15.01.581,torte-2b,2020.1.3,Win32,60,13348,,,,,0,103,103,7,1,,,,,,,,,,,,,,,,,,,,,,,,,,,,,,,,,,,,,,,,,,,,,,,,,,,,,,,,
,,,,,,,,,,,,l,0.8912,Incorrect,,,,,,t3.png,t4.png,1,0.909,19,female,2020-11-22_09h15.01.581,torte-2b,2020.1.3,Win32,60,13348,,,,,0,104,104,82,1,,,,,,,,,,,,,,,,,,,,,,,,,,,,,,,,,,,,,,,,,,,,,,,,,,,,,,,,
,,,,,,,,,,,,a,0.33948,Correct!,,,,,,t4.png,t4.png,0,0.98115,19,female,2020-11-22_09h15.01.581,torte-2b,2020.1.3,Win32,60,13348,,,,,0,105,105,80,1,,,,,,,,,,,,,,,,,,,,,,,,,,,,,,,,,,,,,,,,,,,,,,,,,,,,,,,,
,,,,,,,,,,,,a,0.38402,Correct!,,,,,,t4.png,t5.png,1,0.90025,19,female,2020-11-22_09h15.01.581,torte-2b,2020.1.3,Win32,60,13348,,,,,0,106,106,47,1,,,,,,,,,,,,,,,,,,,,,,,,,,,,,,,,,,,,,,,,,,,,,,,,,,,,,,,,
,,,,,,,,,,,,a,0.63638,Incorrect,,,,,,t1.png,t5.png,4,9.55E-11,19,female,2020-11-22_09h15.01.581,torte-2b,2020.1.3,Win32,60,13348,,,,,0,107,107,16,1,,,,,,,,,,,,,,,,,,,,,,,,,,,,,,,,,,,,,,,,,,,,,,,,,,,,,,,,
,,,,,,,,,,,,a,0.43859,Incorrect,,,,,,t3.png,t5.png,2,0.0565,19,female,2020-11-22_09h15.01.581,torte-2b,2020.1.3,Win32,60,13348,,,,,0,108,108,30,1,,,,,,,,,,,,,,,,,,,,,,,,,,,,,,,,,,,,,,,,,,,,,,,,,,,,,,,,
,,,,,,,,,,,,a,0.669555,Incorrect,,,,,,t5.png,t1.png,4,9.55E-11,19,female,2020-11-22_09h15.01.581,torte-2b,2020.1.3,Win32,60,13348,,,,,0,109,109,100,1,,,,,,,,,,,,,,,,,,,,,,,,,,,,,,,,,,,,,,,,,,,,,,,,,,,,,,,,
,,,,,,,,,,,,a,0.651805,Incorrect,,,,,,t4.png,t1.png,3,0.0000131,19,female,2020-11-22_09h15.01.581,torte-2b,2020.1.3,Win32,60,13348,,,,,0,110,110,48,1,,,,,,,,,,,,,,,,,,,,,,,,,,,,,,,,,,,,,,,,,,,,,,,,,,,,,,,,
,,,,,,,,,,,,a,0.816545,Correct!,,,,,,t1.png,t2.png,1,0.90025,19,female,2020-11-22_09h15.01.581,torte-2b,2020.1.3,Win32,60,13348,,,,,0,111,111,112,1,,,,,,,,,,,,,,,,,,,,,,,,,,,,,,,,,,,,,,,,,,,,,,,,,,,,,,,,
,,,,,,,,,,,,a,1.15225,Correct!,,,,,,t4.png,t4.png,0,0.98115,19,female,2020-11-22_09h15.01.581,torte-2b,2020.1.3,Win32,60,13348,,,,,0,112,112,90,1,,,,,,,,,,,,,,,,,,,,,,,,,,,,,,,,,,,,,,,,,,,,,,,,,,,,,,,,
,,,,,,,,,,,,a,0.913955,Incorrect,,,,,,t4.png,t2.png,2,0.059078,19,female,2020-11-22_09h15.01.581,torte-2b,2020.1.3,Win32,60,13348,,,,,0,113,113,88,1,,,,,,,,,,,,,,,,,,,,,,,,,,,,,,,,,,,,,,,,,,,,,,,,,,,,,,,,
,,,,,,,,,,,,a,0.48717,Incorrect,,,,,,t2.png,t4.png,2,0.059078,19,female,2020-11-22_09h15.01.581,torte-2b,2020.1.3,Win32,60,13348,,,,,0,114,114,11,1,,,,,,,,,,,,,,,,,,,,,,,,,,,,,,,,,,,,,,,,,,,,,,,,,,,,,,,,
,,,,,,,,,,,,l,0.55138,Correct!,,,,,,t2.png,t5.png,3,0.0000131,19,female,2020-11-22_09h15.01.581,torte-2b,2020.1.3,Win32,60,13348,,,,,0,115,115,95,1,,,,,,,,,,,,,,,,,,,,,,,,,,,,,,,,,,,,,,,,,,,,,,,,,,,,,,,,
,,,,,,,,,,,,,,Too slow :(,,,,,,t3.png,t5.png,2,0.056466,19,female,2020-11-22_09h15.01.581,torte-2b,2020.1.3,Win32,60,13348,,,,,0,116,116,6,1,,,,,,,,,,,,,,,,,,,,,,,,,,,,,,,,,,,,,,,,,,,,,,,,,,,,,,,,
,,,,,,,,,,,,a,0.832515,Correct!,,,,,,t4.png,t4.png,0,0.98115,19,female,2020-11-22_09h15.01.581,torte-2b,2020.1.3,Win32,60,13348,,,,,0,117,117,21,1,,,,,,,,,,,,,,,,,,,,,,,,,,,,,,,,,,,,,,,,,,,,,,,,,,,,,,,,
,,,,,,,,,,,,l,0.669315,Correct!,,,,,,t1.png,t3.png,2,0.056466,19,female,2020-11-22_09h15.01.581,torte-2b,2020.1.3,Win32,60,13348,,,,,0,118,118,69,1,,,,,,,,,,,,,,,,,,,,,,,,,,,,,,,,,,,,,,,,,,,,,,,,,,,,,,,,
,,,,,,,,,,,,a,0.35554,Correct!,,,,,,t5.png,t4.png,1,0.90025,19,female,2020-11-22_09h15.01.581,torte-2b,2020.1.3,Win32,60,13348,,,,,0,119,119,26,1,,,,,,,,,,,,,,,,,,,,,,,,,,,,,,,,,,,,,,,,,,,,,,,,,,,,,,,,
,,,,,,,,,,,,,,,,,,,,,,,,19,female,2020-11-22_09h15.01.581,torte-2b,2020.1.3,Win32,60,13348,l,1.86866,,,,,,,,space,2.04681,,0,0,0,0,1,6,,,,,,,,,,,,,,,,,,,,,,,,,,,,,,,,,,,,,,,,,,,,,,,
,,,,,,,,,,,,,,,,,,,,,,,,19,female,2020-11-22_09h15.01.581,torte-2b,2020.1.3,Win32,60,13348,,,,,,,,,,,,,0,1,1,1,1,7,,,,,,,,,,,,,,,,,,,,,,,,,,,,,,,,,,,,,,,,,,,,,,,
,,,,,,,,,,,,,,,,,,,,,,,,19,female,2020-11-22_09h15.01.581,torte-2b,2020.1.3,Win32,60,13348,,,,,,,,,,,,space,0,2,2,2,1,6,0.289695,,,,,,,,,,,,,,,,,,,,,,,,,,,,,,,,,,,,,,,,,,,,,,
,,,,,,,,,,,,,,,,,,,,,,,,19,female,2020-11-22_09h15.01.581,torte-2b,2020.1.3,Win32,60,13348,,,,,,,,,,,,space,0,3,3,3,1,7,0.617315,,,,,,,,,,,,,,,,,,,,,,,,,,,,,,,,,,,,,,,,,,,,,,
,,,,,,,,,,,,,,,,,,,,,,,,19,female,2020-11-22_09h15.01.581,torte-2b,2020.1.3,Win32,60,13348,,,,,,,,,,,,,0,4,4,4,1,5,,,,,,,,,,,,,,,,,,,,,,,,,,,,,,,,,,,,,,,,,,,,,,,
,,,,,,,,,,,,,,,,,,,,,,,,19,female,2020-11-22_09h15.01.581,torte-2b,2020.1.3,Win32,60,13348,,,,,,,,,,,,space,0,5,5,5,1,7,0.403015,,,,,,,,,,,,,,,,,,,,,,,,,,,,,,,,,,,,,,,,,,,,,,
,,,,,,,,,,,,,,,,,,,,,,,,19,female,2020-11-22_09h15.01.581,torte-2b,2020.1.3,Win32,60,13348,,,,,,,,,,,,,0,6,6,6,1,2,,,,,,,,,,,,,,,,,,,,,,,,,,,,,,,,,,,,,,,,,,,,,,,
,,,,,,,,,,,,,,,,,,,,,,,,19,female,2020-11-22_09h15.01.581,torte-2b,2020.1.3,Win32,60,13348,,,,,,,,,,,,,0,7,7,7,1,4,,,,,,,,,,,,,,,,,,,,,,,,,,,,,,,,,,,,,,,,,,,,,,,
,,,,,,,,,,,,,,,,,,,,,,,,19,female,2020-11-22_09h15.01.581,torte-2b,2020.1.3,Win32,60,13348,,,,,,,,,,,,,0,8,8,8,1,7,,,,,,,,,,,,,,,,,,,,,,,,,,,,,,,,,,,,,,,,,,,,,,,
,,,,,,,,,,,,,,,,,,,,,,,,19,female,2020-11-22_09h15.01.581,torte-2b,2020.1.3,Win32,60,13348,,,,,,,,,,,,space,0,9,9,9,1,4,0.40214,,,,,,,,,,,,,,,,,,,,,,,,,,,,,,,,,,,,,,,,,,,,,,
,,,,,,,,,,,,,,,,,,,,,,,,19,female,2020-11-22_09h15.01.581,torte-2b,2020.1.3,Win32,60,13348,,,,,,,,,,,,space,0,10,10,10,1,7,1.11749,,,,,,,,,,,,,,,,,,,,,,,,,,,,,,,,,,,,,,,,,,,,,,
,,,,,,,,,,,,,,,,,,,,,,,,19,female,2020-11-22_09h15.01.581,torte-2b,2020.1.3,Win32,60,13348,,,,,,,,,,,,,0,11,11,11,1,7,,,,,,,,,,,,,,,,,,,,,,,,,,,,,,,,,,,,,,,,,,,,,,,
,,,,,,,,,,,,,,,,,,,,,,,,19,female,2020-11-22_09h15.01.581,torte-2b,2020.1.3,Win32,60,13348,,,,,,,,,,,,space,0,12,12,12,1,7,0.64235,,,,,,,,,,,,,,,,,,,,,,,,,,,,,,,,,,,,,,,,,,,,,,
,,,,,,,,,,,,,,,,,,,,,,,,19,female,2020-11-22_09h15.01.581,torte-2b,2020.1.3,Win32,60,13348,,,,,,,,,,,,,0,13,13,13,1,4,,,,,,,,,,,,,,,,,,,,,,,,,,,,,,,,,,,,,,,,,,,,,,,
,,,,,,,,,,,,,,,,,,,,,,,,19,female,2020-11-22_09h15.01.581,torte-2b,2020.1.3,Win32,60,13348,,,,,,,,,,,,,0,14,14,14,1,6,,,,,,,,,,,,,,,,,,,,,,,,,,,,,,,,,,,,,,,,,,,,,,,
,,,,,,,,,,,,,,,,,,,,,,,,19,female,2020-11-22_09h15.01.581,torte-2b,2020.1.3,Win32,60,13348,,,,,,,,,,,,space,0,15,15,15,1,4,0.733455,,,,,,,,,,,,,,,,,,,,,,,,,,,,,,,,,,,,,,,,,,,,,,
,,,,,,,,,,,,,,,,,,,,,,,,19,female,2020-11-22_09h15.01.581,torte-2b,2020.1.3,Win32,60,13348,,,,,,,,,,,,space,0,16,16,16,1,6,1.13726,,,,,,,,,,,,,,,,,,,,,,,,,,,,,,,,,,,,,,,,,,,,,,
,,,,,,,,,,,,,,,,,,,,,,,,19,female,2020-11-22_09h15.01.581,torte-2b,2020.1.3,Win32,60,13348,,,,,,,,,,,,,0,17,17,17,1,7,,,,,,,,,,,,,,,,,,,,,,,,,,,,,,,,,,,,,,,,,,,,,,,
,,,,,,,,,,,,,,,,,,,,,,,,19,female,2020-11-22_09h15.01.581,torte-2b,2020.1.3,Win32,60,13348,,,,,,,,,,,,space,0,18,18,18,1,6,0.438735,,,,,,,,,,,,,,,,,,,,,,,,,,,,,,,,,,,,,,,,,,,,,,
,,,,,,,,,,,,,,,,,,,,,,,,19,female,2020-11-22_09h15.01.581,torte-2b,2020.1.3,Win32,60,13348,,,,,,,,,,,,space,0,19,19,19,1,7,0.63252,,,,,,,,,,,,,,,,,,,,,,,,,,,,,,,,,,,,,,,,,,,,,,
,,,,,,,,,,,,,,,,,,,,,,,,19,female,2020-11-22_09h15.01.581,torte-2b,2020.1.3,Win32,60,13348,,,,,,,,,,,,,0,20,20,20,1,5,,,,,,,,,,,,,,,,,,,,,,,,,,,,,,,,,,,,,,,,,,,,,,,
,,,,,,,,,,,,,,,,,,,,,,,,19,female,2020-11-22_09h15.01.581,torte-2b,2020.1.3,Win32,60,13348,,,,,,,,,,,,,0,21,21,21,1,1,,,,,,,,,,,,,,,,,,,,,,,,,,,,,,,,,,,,,,,,,,,,,,,
,,,,,,,,,,,,,,,,,,,,,,,,19,female,2020-11-22_09h15.01.581,torte-2b,2020.1.3,Win32,60,13348,,,,,,,,,,,,,0,22,22,22,1,6,,,,,,,,,,,,,,,,,,,,,,,,,,,,,,,,,,,,,,,,,,,,,,,
,,,,,,,,,,,,,,,,,,,,,,,,19,female,2020-11-22_09h15.01.581,torte-2b,2020.1.3,Win32,60,13348,,,,,,,,,,,,space,0,23,23,23,1,1,0.332045,,,,,,,,,,,,,,,,,,,,,,,,,,,,,,,,,,,,,,,,,,,,,,
,,,,,,,,,,,,,,,,,,,,,,,,19,female,2020-11-22_09h15.01.581,torte-2b,2020.1.3,Win32,60,13348,,,,,,,,,,,,,0,24,24,24,1,5,,,,,,,,,,,,,,,,,,,,,,,,,,,,,,,,,,,,,,,,,,,,,,,
,,,,,,,,,,,,,,,,,,,,,,,,19,female,2020-11-22_09h15.01.581,torte-2b,2020.1.3,Win32,60,13348,,,,,,,,,,,,space,0,25,25,25,1,6,1.182935,,,,,,,,,,,,,,,,,,,,,,,,,,,,,,,,,,,,,,,,,,,,,,
,,,,,,,,,,,,,,,,,,,,,,,,19,female,2020-11-22_09h15.01.581,torte-2b,2020.1.3,Win32,60,13348,,,,,,,,,,,,,0,26,26,26,1,6,,,,,,,,,,,,,,,,,,,,,,,,,,,,,,,,,,,,,,,,,,,,,,,
,,,,,,,,,,,,,,,,,,,,,,,,19,female,2020-11-22_09h15.01.581,torte-2b,2020.1.3,Win32,60,13348,,,,,,,,,,,,space,0,27,27,27,1,6,0.343825,,,,,,,,,,,,,,,,,,,,,,,,,,,,,,,,,,,,,,,,,,,,,,
,,,,,,,,,,,,,,,,,,,,,,,,19,female,2020-11-22_09h15.01.581,torte-2b,2020.1.3,Win32,60,13348,,,,,,,,,,,,,0,28,28,28,1,5,,,,,,,,,,,,,,,,,,,,,,,,,,,,,,,,,,,,,,,,,,,,,,,
,,,,,,,,,,,,,,,,,,,,,,,,19,female,2020-11-22_09h15.01.581,torte-2b,2020.1.3,Win32,60,13348,,,,,,,,,,,,,0,29,29,29,1,2,,,,,,,,,,,,,,,,,,,,,,,,,,,,,,,,,,,,,,,,,,,,,,,
,,,,,,,,,,,,,,,,,,,,,,,,19,female,2020-11-22_09h15.01.581,torte-2b,2020.1.3,Win32,60,13348,,,,,,,,,,,,space,0,30,30,30,1,5,0.766685,,,,,,,,,,,,,,,,,,,,,,,,,,,,,,,,,,,,,,,,,,,,,,
,,,,,,,,,,,,,,,,,,,,,,,,19,female,2020-11-22_09h15.01.581,torte-2b,2020.1.3,Win32,60,13348,,,,,,,,,,,,space,0,31,31,31,1,2,1.1621,,,,,,,,,,,,,,,,,,,,,,,,,,,,,,,,,,,,,,,,,,,,,,
,,,,,,,,,,,,,,,,,,,,,,,,19,female,2020-11-22_09h15.01.581,torte-2b,2020.1.3,Win32,60,13348,,,,,,,,,,,,space,0,32,32,32,1,5,0.835535,,,,,,,,,,,,,,,,,,,,,,,,,,,,,,,,,,,,,,,,,,,,,,
,,,,,,,,,,,,,,,,,,,,,,,,19,female,2020-11-22_09h15.01.581,torte-2b,2020.1.3,Win32,60,13348,,,,,,,,,,,,,0,33,33,33,1,1,,,,,,,,,,,,,,,,,,,,,,,,,,,,,,,,,,,,,,,,,,,,,,,
,,,,,,,,,,,,,,,,,,,,,,,,19,female,2020-11-22_09h15.01.581,torte-2b,2020.1.3,Win32,60,13348,,,,,,,,,,,,,0,34,34,34,1,1,,,,,,,,,,,,,,,,,,,,,,,,,,,,,,,,,,,,,,,,,,,,,,,
,,,,,,,,,,,,,,,,,,,,,,,,19,female,2020-11-22_09h15.01.581,torte-2b,2020.1.3,Win32,60,13348,,,,,,,,,,,,,,,,,,2,,0,0,0,0,1,,,,,,,,,,,,,,,,,,,,,,,,,,,,,,,,,,,,,,,,,
,,,,,,,,,,,,,,,,,,,,,,,,19,female,2020-11-22_09h15.01.581,torte-2b,2020.1.3,Win32,60,13348,,,,,,,,,,,,space,,,,,,2,1.2694,0,1,1,1,1,,,,,,,,,,,,,,,,,,,,,,,,,,,,,,,,,,,,,,,,,
,,,,,,,,,,,,,,,,,,,,,,,,19,female,2020-11-22_09h15.01.581,torte-2b,2020.1.3,Win32,60,13348,,,,,,,,,,,,,,,,,,6,,0,2,2,2,1,,,,,,,,,,,,,,,,,,,,,,,,,,,,,,,,,,,,,,,,,
,,,,,,,,,,,,,,,,,,,,,,,,19,female,2020-11-22_09h15.01.581,torte-2b,2020.1.3,Win32,60,13348,,,,,,,,,,,,space,,,,,,2,0.393375,0,3,3,3,1,,,,,,,,,,,,,,,,,,,,,,,,,,,,,,,,,,,,,,,,,
,,,,,,,,,,,,,,,,,,,,,,,,19,female,2020-11-22_09h15.01.581,torte-2b,2020.1.3,Win32,60,13348,,,,,,,,,,,,space,,,,,,6,0.46589,0,4,4,4,1,,,,,,,,,,,,,,,,,,,,,,,,,,,,,,,,,,,,,,,,,
,,,,,,,,,,,,,,,,,,,,,,,,19,female,2020-11-22_09h15.01.581,torte-2b,2020.1.3,Win32,60,13348,,,,,,,,,,,,space,,,,,,2,1.20082,0,5,5,5,1,,,,,,,,,,,,,,,,,,,,,,,,,,,,,,,,,,,,,,,,,
,,,,,,,,,,,,,,,,,,,,,,,,19,female,2020-11-22_09h15.01.581,torte-2b,2020.1.3,Win32,60,13348,,,,,,,,,,,,,,,,,,7,,0,6,6,6,1,,,,,,,,,,,,,,,,,,,,,,,,,,,,,,,,,,,,,,,,,
,,,,,,,,,,,,,,,,,,,,,,,,19,female,2020-11-22_09h15.01.581,torte-2b,2020.1.3,Win32,60,13348,,,,,,,,,,,,space,,,,,,2,0.454075,0,7,7,7,1,,,,,,,,,,,,,,,,,,,,,,,,,,,,,,,,,,,,,,,,,
,,,,,,,,,,,,,,,,,,,,,,,,19,female,2020-11-22_09h15.01.581,torte-2b,2020.1.3,Win32,60,13348,,,,,,,,,,,,,,,,,,7,,0,8,8,8,1,,,,,,,,,,,,,,,,,,,,,,,,,,,,,,,,,,,,,,,,,
,,,,,,,,,,,,,,,,,,,,,,,,19,female,2020-11-22_09h15.01.581,torte-2b,2020.1.3,Win32,60,13348,,,,,,,,,,,,space,,,,,,2,0.36497,0,9,9,9,1,,,,,,,,,,,,,,,,,,,,,,,,,,,,,,,,,,,,,,,,,
,,,,,,,,,,,,,,,,,,,,,,,,19,female,2020-11-22_09h15.01.581,torte-2b,2020.1.3,Win32,60,13348,,,,,,,,,,,,,,,,,,5,,0,10,10,10,1,,,,,,,,,,,,,,,,,,,,,,,,,,,,,,,,,,,,,,,,,
,,,,,,,,,,,,,,,,,,,,,,,,19,female,2020-11-22_09h15.01.581,torte-2b,2020.1.3,Win32,60,13348,,,,,,,,,,,,,,,,,,4,,0,11,11,11,1,,,,,,,,,,,,,,,,,,,,,,,,,,,,,,,,,,,,,,,,,
,,,,,,,,,,,,,,,,,,,,,,,,19,female,2020-11-22_09h15.01.581,torte-2b,2020.1.3,Win32,60,13348,,,,,,,,,,,,space,,,,,,5,0.48468,0,12,12,12,1,,,,,,,,,,,,,,,,,,,,,,,,,,,,,,,,,,,,,,,,,
,,,,,,,,,,,,,,,,,,,,,,,,19,female,2020-11-22_09h15.01.581,torte-2b,2020.1.3,Win32,60,13348,,,,,,,,,,,,,,,,,,6,,0,13,13,13,1,,,,,,,,,,,,,,,,,,,,,,,,,,,,,,,,,,,,,,,,,
,,,,,,,,,,,,,,,,,,,,,,,,19,female,2020-11-22_09h15.01.581,torte-2b,2020.1.3,Win32,60,13348,,,,,,,,,,,,space,,,,,,5,0.348095,0,14,14,14,1,,,,,,,,,,,,,,,,,,,,,,,,,,,,,,,,,,,,,,,,,
,,,,,,,,,,,,,,,,,,,,,,,,19,female,2020-11-22_09h15.01.581,torte-2b,2020.1.3,Win32,60,13348,,,,,,,,,,,,,,,,,,4,,0,15,15,15,1,,,,,,,,,,,,,,,,,,,,,,,,,,,,,,,,,,,,,,,,,
,,,,,,,,,,,,,,,,,,,,,,,,19,female,2020-11-22_09h15.01.581,torte-2b,2020.1.3,Win32,60,13348,,,,,,,,,,,,space,,,,,,5,0.668135,0,16,16,16,1,,,,,,,,,,,,,,,,,,,,,,,,,,,,,,,,,,,,,,,,,
,,,,,,,,,,,,,,,,,,,,,,,,19,female,2020-11-22_09h15.01.581,torte-2b,2020.1.3,Win32,60,13348,,,,,,,,,,,,,,,,,,3,,0,17,17,17,1,,,,,,,,,,,,,,,,,,,,,,,,,,,,,,,,,,,,,,,,,
,,,,,,,,,,,,,,,,,,,,,,,,19,female,2020-11-22_09h15.01.581,torte-2b,2020.1.3,Win32,60,13348,,,,,,,,,,,,,,,,,,6,,0,18,18,18,1,,,,,,,,,,,,,,,,,,,,,,,,,,,,,,,,,,,,,,,,,
,,,,,,,,,,,,,,,,,,,,,,,,19,female,2020-11-22_09h15.01.581,torte-2b,2020.1.3,Win32,60,13348,,,,,,,,,,,,space,,,,,,6,0.399095,0,19,19,19,1,,,,,,,,,,,,,,,,,,,,,,,,,,,,,,,,,,,,,,,,,
,,,,,,,,,,,,,,,,,,,,,,,,19,female,2020-11-22_09h15.01.581,torte-2b,2020.1.3,Win32,60,13348,,,,,,,,,,,,space,,,,,,6,0.682125,0,20,20,20,1,,,,,,,,,,,,,,,,,,,,,,,,,,,,,,,,,,,,,,,,,
,,,,,,,,,,,,,,,,,,,,,,,,19,female,2020-11-22_09h15.01.581,torte-2b,2020.1.3,Win32,60,13348,,,,,,,,,,,,,,,,,,4,,0,21,21,21,1,,,,,,,,,,,,,,,,,,,,,,,,,,,,,,,,,,,,,,,,,
,,,,,,,,,,,,,,,,,,,,,,,,19,female,2020-11-22_09h15.01.581,torte-2b,2020.1.3,Win32,60,13348,,,,,,,,,,,,space,,,,,,6,0.315995,0,22,22,22,1,,,,,,,,,,,,,,,,,,,,,,,,,,,,,,,,,,,,,,,,,
,,,,,,,,,,,,,,,,,,,,,,,,19,female,2020-11-22_09h15.01.581,torte-2b,2020.1.3,Win32,60,13348,,,,,,,,,,,,space,,,,,,4,0.653115,0,23,23,23,1,,,,,,,,,,,,,,,,,,,,,,,,,,,,,,,,,,,,,,,,,
,,,,,,,,,,,,,,,,,,,,,,,,19,female,2020-11-22_09h15.01.581,torte-2b,2020.1.3,Win32,60,13348,,,,,,,,,,,,space,,,,,,6,1.022055,0,24,24,24,1,,,,,,,,,,,,,,,,,,,,,,,,,,,,,,,,,,,,,,,,,
,,,,,,,,,,,,,,,,,,,,,,,,19,female,2020-11-22_09h15.01.581,torte-2b,2020.1.3,Win32,60,13348,,,,,,,,,,,,,,,,,,6,,0,25,25,25,1,,,,,,,,,,,,,,,,,,,,,,,,,,,,,,,,,,,,,,,,,
,,,,,,,,,,,,,,,,,,,,,,,,19,female,2020-11-22_09h15.01.581,torte-2b,2020.1.3,Win32,60,13348,,,,,,,,,,,,,,,,,,7,,0,26,26,26,1,,,,,,,,,,,,,,,,,,,,,,,,,,,,,,,,,,,,,,,,,
,,,,,,,,,,,,,,,,,,,,,,,,19,female,2020-11-22_09h15.01.581,torte-2b,2020.1.3,Win32,60,13348,,,,,,,,,,,,,,,,,,1,,0,27,27,27,1,,,,,,,,,,,,,,,,,,,,,,,,,,,,,,,,,,,,,,,,,
,,,,,,,,,,,,,,,,,,,,,,,,19,female,2020-11-22_09h15.01.581,torte-2b,2020.1.3,Win32,60,13348,,,,,,,,,,,,space,,,,,,7,0.36624,0,28,28,28,1,,,,,,,,,,,,,,,,,,,,,,,,,,,,,,,,,,,,,,,,,
,,,,,,,,,,,,,,,,,,,,,,,,19,female,2020-11-22_09h15.01.581,torte-2b,2020.1.3,Win32,60,13348,,,,,,,,,,,,,,,,,,4,,0,29,29,29,1,,,,,,,,,,,,,,,,,,,,,,,,,,,,,,,,,,,,,,,,,
,,,,,,,,,,,,,,,,,,,,,,,,19,female,2020-11-22_09h15.01.581,torte-2b,2020.1.3,Win32,60,13348,,,,,,,,,,,,space,,,,,,7,0.484985,0,30,30,30,1,,,,,,,,,,,,,,,,,,,,,,,,,,,,,,,,,,,,,,,,,
,,,,,,,,,,,,,,,,,,,,,,,,19,female,2020-11-22_09h15.01.581,torte-2b,2020.1.3,Win32,60,13348,,,,,,,,,,,,,,,,,,3,,0,31,31,31,1,,,,,,,,,,,,,,,,,,,,,,,,,,,,,,,,,,,,,,,,,
,,,,,,,,,,,,,,,,,,,,,,,,19,female,2020-11-22_09h15.01.581,torte-2b,2020.1.3,Win32,60,13348,,,,,,,,,,,,,,,,,,2,,0,32,32,32,1,,,,,,,,,,,,,,,,,,,,,,,,,,,,,,,,,,,,,,,,,
,,,,,,,,,,,,,,,,,,,,,,,,19,female,2020-11-22_09h15.01.581,torte-2b,2020.1.3,Win32,60,13348,,,,,,,,,,,,,,,,,,6,,0,33,33,33,1,,,,,,,,,,,,,,,,,,,,,,,,,,,,,,,,,,,,,,,,,
,,,,,,,,,,,,,,,,,,,,,,,,19,female,2020-11-22_09h15.01.581,torte-2b,2020.1.3,Win32,60,13348,,,,,,,,,,,,,,,,,,3,,0,34,34,34,1,,,,,,,,,,,,,,,,,,,,,,,,,,,,,,,,,,,,,,,,,
,,,,,,,,,,,,,,,,,,,,,,,,19,female,2020-11-22_09h15.01.581,torte-2b,2020.1.3,Win32,60,13348,,,,,,,,,,,,,,,,,,7,,,,,,,0,0,0,0,1,,,,,,,,,,,,,,,,,,,,,,,,,,,,,,,,,,,,
,,,,,,,,,,,,,,,,,,,,,,,,19,female,2020-11-22_09h15.01.581,torte-2b,2020.1.3,Win32,60,13348,,,,,,,,,,,,,,,,,,5,,,,,,,0,1,1,1,1,,,,,,,,,,,,,,,,,,,,,,,,,,,,,,,,,,,,
,,,,,,,,,,,,,,,,,,,,,,,,19,female,2020-11-22_09h15.01.581,torte-2b,2020.1.3,Win32,60,13348,,,,,,,,,,,,,,,,,,4,,,,,,,0,2,2,2,1,,,,,,,,,,,,,,,,,,,,,,,,,,,,,,,,,,,,
,,,,,,,,,,,,,,,,,,,,,,,,19,female,2020-11-22_09h15.01.581,torte-2b,2020.1.3,Win32,60,13348,,,,,,,,,,,,space,,,,,,5,0.388395,,,,,,0,3,3,3,1,,,,,,,,,,,,,,,,,,,,,,,,,,,,,,,,,,,,
,,,,,,,,,,,,,,,,,,,,,,,,19,female,2020-11-22_09h15.01.581,torte-2b,2020.1.3,Win32,60,13348,,,,,,,,,,,,,,,,,,6,,,,,,,0,4,4,4,1,,,,,,,,,,,,,,,,,,,,,,,,,,,,,,,,,,,,
,,,,,,,,,,,,,,,,,,,,,,,,19,female,2020-11-22_09h15.01.581,torte-2b,2020.1.3,Win32,60,13348,,,,,,,,,,,,space,,,,,,5,0.399255,,,,,,0,5,5,5,1,,,,,,,,,,,,,,,,,,,,,,,,,,,,,,,,,,,,
,,,,,,,,,,,,,,,,,,,,,,,,19,female,2020-11-22_09h15.01.581,torte-2b,2020.1.3,Win32,60,13348,,,,,,,,,,,,,,,,,,3,,,,,,,0,6,6,6,1,,,,,,,,,,,,,,,,,,,,,,,,,,,,,,,,,,,,
,,,,,,,,,,,,,,,,,,,,,,,,19,female,2020-11-22_09h15.01.581,torte-2b,2020.1.3,Win32,60,13348,,,,,,,,,,,,,,,,,,4,,,,,,,0,7,7,7,1,,,,,,,,,,,,,,,,,,,,,,,,,,,,,,,,,,,,
,,,,,,,,,,,,,,,,,,,,,,,,19,female,2020-11-22_09h15.01.581,torte-2b,2020.1.3,Win32,60,13348,,,,,,,,,,,,space,,,,,,3,0.92282,,,,,,0,8,8,8,1,,,,,,,,,,,,,,,,,,,,,,,,,,,,,,,,,,,,
,,,,,,,,,,,,,,,,,,,,,,,,19,female,2020-11-22_09h15.01.581,torte-2b,2020.1.3,Win32,60,13348,,,,,,,,,,,,,,,,,,1,,,,,,,0,9,9,9,1,,,,,,,,,,,,,,,,,,,,,,,,,,,,,,,,,,,,
,,,,,,,,,,,,,,,,,,,,,,,,19,female,2020-11-22_09h15.01.581,torte-2b,2020.1.3,Win32,60,13348,,,,,,,,,,,,,,,,,,2,,,,,,,0,10,10,10,1,,,,,,,,,,,,,,,,,,,,,,,,,,,,,,,,,,,,
,,,,,,,,,,,,,,,,,,,,,,,,19,female,2020-11-22_09h15.01.581,torte-2b,2020.1.3,Win32,60,13348,,,,,,,,,,,,space,,,,,,1,0.31558,,,,,,0,11,11,11,1,,,,,,,,,,,,,,,,,,,,,,,,,,,,,,,,,,,,
,,,,,,,,,,,,,,,,,,,,,,,,19,female,2020-11-22_09h15.01.581,torte-2b,2020.1.3,Win32,60,13348,,,,,,,,,,,,space,,,,,,2,0.68108,,,,,,0,12,12,12,1,,,,,,,,,,,,,,,,,,,,,,,,,,,,,,,,,,,,
,,,,,,,,,,,,,,,,,,,,,,,,19,female,2020-11-22_09h15.01.581,torte-2b,2020.1.3,Win32,60,13348,,,,,,,,,,,,space,,,,,,1,0.79863,,,,,,0,13,13,13,1,,,,,,,,,,,,,,,,,,,,,,,,,,,,,,,,,,,,
,,,,,,,,,,,,,,,,,,,,,,,,19,female,2020-11-22_09h15.01.581,torte-2b,2020.1.3,Win32,60,13348,,,,,,,,,,,,,,,,,,3,,,,,,,0,14,14,14,1,,,,,,,,,,,,,,,,,,,,,,,,,,,,,,,,,,,,
,,,,,,,,,,,,,,,,,,,,,,,,19,female,2020-11-22_09h15.01.581,torte-2b,2020.1.3,Win32,60,13348,,,,,,,,,,,,space,,,,,,1,0.29085,,,,,,0,15,15,15,1,,,,,,,,,,,,,,,,,,,,,,,,,,,,,,,,,,,,
,,,,,,,,,,,,,,,,,,,,,,,,19,female,2020-11-22_09h15.01.581,torte-2b,2020.1.3,Win32,60,13348,,,,,,,,,,,,,,,,,,7,,,,,,,0,16,16,16,1,,,,,,,,,,,,,,,,,,,,,,,,,,,,,,,,,,,,
,,,,,,,,,,,,,,,,,,,,,,,,19,female,2020-11-22_09h15.01.581,torte-2b,2020.1.3,Win32,60,13348,,,,,,,,,,,,space,,,,,,7,0.55781,,,,,,0,17,17,17,1,,,,,,,,,,,,,,,,,,,,,,,,,,,,,,,,,,,,
,,,,,,,,,,,,,,,,,,,,,,,,19,female,2020-11-22_09h15.01.581,torte-2b,2020.1.3,Win32,60,13348,,,,,,,,,,,,,,,,,,4,,,,,,,0,18,18,18,1,,,,,,,,,,,,,,,,,,,,,,,,,,,,,,,,,,,,
,,,,,,,,,,,,,,,,,,,,,,,,19,female,2020-11-22_09h15.01.581,torte-2b,2020.1.3,Win32,60,13348,,,,,,,,,,,,space,,,,,,7,0.382245,,,,,,0,19,19,19,1,,,,,,,,,,,,,,,,,,,,,,,,,,,,,,,,,,,,
,,,,,,,,,,,,,,,,,,,,,,,,19,female,2020-11-22_09h15.01.581,torte-2b,2020.1.3,Win32,60,13348,,,,,,,,,,,,,,,,,,3,,,,,,,0,20,20,20,1,,,,,,,,,,,,,,,,,,,,,,,,,,,,,,,,,,,,
,,,,,,,,,,,,,,,,,,,,,,,,19,female,2020-11-22_09h15.01.581,torte-2b,2020.1.3,Win32,60,13348,,,,,,,,,,,,space,,,,,,7,0.438585,,,,,,0,21,21,21,1,,,,,,,,,,,,,,,,,,,,,,,,,,,,,,,,,,,,
,,,,,,,,,,,,,,,,,,,,,,,,19,female,2020-11-22_09h15.01.581,torte-2b,2020.1.3,Win32,60,13348,,,,,,,,,,,,space,,,,,,3,0.966615,,,,,,0,22,22,22,1,,,,,,,,,,,,,,,,,,,,,,,,,,,,,,,,,,,,
,,,,,,,,,,,,,,,,,,,,,,,,19,female,2020-11-22_09h15.01.581,torte-2b,2020.1.3,Win32,60,13348,,,,,,,,,,,,,,,,,,1,,,,,,,0,23,23,23,1,,,,,,,,,,,,,,,,,,,,,,,,,,,,,,,,,,,,
,,,,,,,,,,,,,,,,,,,,,,,,19,female,2020-11-22_09h15.01.581,torte-2b,2020.1.3,Win32,60,13348,,,,,,,,,,,,,,,,,,6,,,,,,,0,24,24,24,1,,,,,,,,,,,,,,,,,,,,,,,,,,,,,,,,,,,,
,,,,,,,,,,,,,,,,,,,,,,,,19,female,2020-11-22_09h15.01.581,torte-2b,2020.1.3,Win32,60,13348,,,,,,,,,,,,,,,,,,3,,,,,,,0,25,25,25,1,,,,,,,,,,,,,,,,,,,,,,,,,,,,,,,,,,,,
,,,,,,,,,,,,,,,,,,,,,,,,19,female,2020-11-22_09h15.01.581,torte-2b,2020.1.3,Win32,60,13348,,,,,,,,,,,,,,,,,,2,,,,,,,0,26,26,26,1,,,,,,,,,,,,,,,,,,,,,,,,,,,,,,,,,,,,
,,,,,,,,,,,,,,,,,,,,,,,,19,female,2020-11-22_09h15.01.581,torte-2b,2020.1.3,Win32,60,13348,,,,,,,,,,,,,,,,,,3,,,,,,,0,27,27,27,1,,,,,,,,,,,,,,,,,,,,,,,,,,,,,,,,,,,,
,,,,,,,,,,,,,,,,,,,,,,,,19,female,2020-11-22_09h15.01.581,torte-2b,2020.1.3,Win32,60,13348,,,,,,,,,,,,,,,,,,1,,,,,,,0,28,28,28,1,,,,,,,,,,,,,,,,,,,,,,,,,,,,,,,,,,,,
,,,,,,,,,,,,,,,,,,,,,,,,19,female,2020-11-22_09h15.01.581,torte-2b,2020.1.3,Win32,60,13348,,,,,,,,,,,,space,,,,,,3,0.334725,,,,,,0,29,29,29,1,,,,,,,,,,,,,,,,,,,,,,,,,,,,,,,,,,,,
,,,,,,,,,,,,,,,,,,,,,,,,19,female,2020-11-22_09h15.01.581,torte-2b,2020.1.3,Win32,60,13348,,,,,,,,,,,,space,,,,,,1,0.550855,,,,,,0,30,30,30,1,,,,,,,,,,,,,,,,,,,,,,,,,,,,,,,,,,,,
,,,,,,,,,,,,,,,,,,,,,,,,19,female,2020-11-22_09h15.01.581,torte-2b,2020.1.3,Win32,60,13348,,,,,,,,,,,,,,,,,,7,,,,,,,0,31,31,31,1,,,,,,,,,,,,,,,,,,,,,,,,,,,,,,,,,,,,
,,,,,,,,,,,,,,,,,,,,,,,,19,female,2020-11-22_09h15.01.581,torte-2b,2020.1.3,Win32,60,13348,,,,,,,,,,,,,,,,,,5,,,,,,,0,32,32,32,1,,,,,,,,,,,,,,,,,,,,,,,,,,,,,,,,,,,,
,,,,,,,,,,,,,,,,,,,,,,,,19,female,2020-11-22_09h15.01.581,torte-2b,2020.1.3,Win32,60,13348,,,,,,,,,,,,space,,,,,,7,0.66801,,,,,,0,33,33,33,1,,,,,,,,,,,,,,,,,,,,,,,,,,,,,,,,,,,,
,,,,,,,,,,,,,,,,,,,,,,,,19,female,2020-11-22_09h15.01.581,torte-2b,2020.1.3,Win32,60,13348,,,,,,,,,,,,,,,,,,2,,,,,,,0,34,34,34,1,,,,,,,,,,,,,,,,,,,,,,,,,,,,,,,,,,,,
,,,,,,,,,,,,,,,,,,,,,,,,19,female,2020-11-22_09h15.01.581,torte-2b,2020.1.3,Win32,60,13348,,,,,,,,,,,,,,,,,,3,,,,,,,,,,,,0,0,0,0,1,,,,,,,,,,,,,,,,,,,,,,,,,,,,,,,
,,,,,,,,,,,,,,,,,,,,,,,,19,female,2020-11-22_09h15.01.581,torte-2b,2020.1.3,Win32,60,13348,,,,,,,,,,,,,,,,,,7,,,,,,,,,,,,0,1,1,1,1,,,,,,,,,,,,,,,,,,,,,,,,,,,,,,,
,,,,,,,,,,,,,,,,,,,,,,,,19,female,2020-11-22_09h15.01.581,torte-2b,2020.1.3,Win32,60,13348,,,,,,,,,,,,,,,,,,7,,,,,,,,,,,,0,2,2,2,1,,,,,,,,,,,,,,,,,,,,,,,,,,,,,,,
,,,,,,,,,,,,,,,,,,,,,,,,19,female,2020-11-22_09h15.01.581,torte-2b,2020.1.3,Win32,60,13348,,,,,,,,,,,,,,,,,,4,,,,,,,,,,,,0,3,3,3,1,,,,,,,,,,,,,,,,,,,,,,,,,,,,,,,
,,,,,,,,,,,,,,,,,,,,,,,,19,female,2020-11-22_09h15.01.581,torte-2b,2020.1.3,Win32,60,13348,,,,,,,,,,,,,,,,,,5,,,,,,,,,,,,0,4,4,4,1,,,,,,,,,,,,,,,,,,,,,,,,,,,,,,,
,,,,,,,,,,,,,,,,,,,,,,,,19,female,2020-11-22_09h15.01.581,torte-2b,2020.1.3,Win32,60,13348,,,,,,,,,,,,space,,,,,,4,0.27659,,,,,,,,,,,0,5,5,5,1,,,,,,,,,,,,,,,,,,,,,,,,,,,,,,,
,,,,,,,,,,,,,,,,,,,,,,,,19,female,2020-11-22_09h15.01.581,torte-2b,2020.1.3,Win32,60,13348,,,,,,,,,,,,,,,,,,2,,,,,,,,,,,,0,6,6,6,1,,,,,,,,,,,,,,,,,,,,,,,,,,,,,,,
,,,,,,,,,,,,,,,,,,,,,,,,19,female,2020-11-22_09h15.01.581,torte-2b,2020.1.3,Win32,60,13348,,,,,,,,,,,,space,,,,,,4,0.583705,,,,,,,,,,,0,7,7,7,1,,,,,,,,,,,,,,,,,,,,,,,,,,,,,,,
,,,,,,,,,,,,,,,,,,,,,,,,19,female,2020-11-22_09h15.01.581,torte-2b,2020.1.3,Win32,60,13348,,,,,,,,,,,,space,,,,,,2,0.93863,,,,,,,,,,,0,8,8,8,1,,,,,,,,,,,,,,,,,,,,,,,,,,,,,,,
,,,,,,,,,,,,,,,,,,,,,,,,19,female,2020-11-22_09h15.01.581,torte-2b,2020.1.3,Win32,60,13348,,,,,,,,,,,,,,,,,,2,,,,,,,,,,,,0,9,9,9,1,,,,,,,,,,,,,,,,,,,,,,,,,,,,,,,
,,,,,,,,,,,,,,,,,,,,,,,,19,female,2020-11-22_09h15.01.581,torte-2b,2020.1.3,Win32,60,13348,,,,,,,,,,,,,,,,,,6,,,,,,,,,,,,0,10,10,10,1,,,,,,,,,,,,,,,,,,,,,,,,,,,,,,,
,,,,,,,,,,,,,,,,,,,,,,,,19,female,2020-11-22_09h15.01.581,torte-2b,2020.1.3,Win32,60,13348,,,,,,,,,,,,space,,,,,,2,0.37453,,,,,,,,,,,0,11,11,11,1,,,,,,,,,,,,,,,,,,,,,,,,,,,,,,,
,,,,,,,,,,,,,,,,,,,,,,,,19,female,2020-11-22_09h15.01.581,torte-2b,2020.1.3,Win32,60,13348,,,,,,,,,,,,space,,,,,,2,0.70965,,,,,,,,,,,0,12,12,12,1,,,,,,,,,,,,,,,,,,,,,,,,,,,,,,,
,,,,,,,,,,,,,,,,,,,,,,,,19,female,2020-11-22_09h15.01.581,torte-2b,2020.1.3,Win32,60,13348,,,,,,,,,,,,space,,,,,,2,0.473,,,,,,,,,,,0,13,13,13,1,,,,,,,,,,,,,,,,,,,,,,,,,,,,,,,
,,,,,,,,,,,,,,,,,,,,,,,,19,female,2020-11-22_09h15.01.581,torte-2b,2020.1.3,Win32,60,13348,,,,,,,,,,,,space,,,,,,2,0.399335,,,,,,,,,,,0,14,14,14,1,,,,,,,,,,,,,,,,,,,,,,,,,,,,,,,
,,,,,,,,,,,,,,,,,,,,,,,,19,female,2020-11-22_09h15.01.581,torte-2b,2020.1.3,Win32,60,13348,,,,,,,,,,,,,,,,,,4,,,,,,,,,,,,0,15,15,15,1,,,,,,,,,,,,,,,,,,,,,,,,,,,,,,,
,,,,,,,,,,,,,,,,,,,,,,,,19,female,2020-11-22_09h15.01.581,torte-2b,2020.1.3,Win32,60,13348,,,,,,,,,,,,,,,,,,3,,,,,,,,,,,,0,16,16,16,1,,,,,,,,,,,,,,,,,,,,,,,,,,,,,,,
,,,,,,,,,,,,,,,,,,,,,,,,19,female,2020-11-22_09h15.01.581,torte-2b,2020.1.3,Win32,60,13348,,,,,,,,,,,,,,,,,,7,,,,,,,,,,,,0,17,17,17,1,,,,,,,,,,,,,,,,,,,,,,,,,,,,,,,
,,,,,,,,,,,,,,,,,,,,,,,,19,female,2020-11-22_09h15.01.581,torte-2b,2020.1.3,Win32,60,13348,,,,,,,,,,,,,,,,,,4,,,,,,,,,,,,0,18,18,18,1,,,,,,,,,,,,,,,,,,,,,,,,,,,,,,,
,,,,,,,,,,,,,,,,,,,,,,,,19,female,2020-11-22_09h15.01.581,torte-2b,2020.1.3,Win32,60,13348,,,,,,,,,,,,,,,,,,7,,,,,,,,,,,,0,19,19,19,1,,,,,,,,,,,,,,,,,,,,,,,,,,,,,,,
,,,,,,,,,,,,,,,,,,,,,,,,19,female,2020-11-22_09h15.01.581,torte-2b,2020.1.3,Win32,60,13348,,,,,,,,,,,,space,,,,,,7,0.720165,,,,,,,,,,,0,20,20,20,1,,,,,,,,,,,,,,,,,,,,,,,,,,,,,,,
,,,,,,,,,,,,,,,,,,,,,,,,19,female,2020-11-22_09h15.01.581,torte-2b,2020.1.3,Win32,60,13348,,,,,,,,,,,,space,,,,,,7,0.61742,,,,,,,,,,,0,21,21,21,1,,,,,,,,,,,,,,,,,,,,,,,,,,,,,,,
,,,,,,,,,,,,,,,,,,,,,,,,19,female,2020-11-22_09h15.01.581,torte-2b,2020.1.3,Win32,60,13348,,,,,,,,,,,,space,,,,,,7,0.37229,,,,,,,,,,,0,22,22,22,1,,,,,,,,,,,,,,,,,,,,,,,,,,,,,,,
,,,,,,,,,,,,,,,,,,,,,,,,19,female,2020-11-22_09h15.01.581,torte-2b,2020.1.3,Win32,60,13348,,,,,,,,,,,,,,,,,,1,,,,,,,,,,,,0,23,23,23,1,,,,,,,,,,,,,,,,,,,,,,,,,,,,,,,
,,,,,,,,,,,,,,,,,,,,,,,,19,female,2020-11-22_09h15.01.581,torte-2b,2020.1.3,Win32,60,13348,,,,,,,,,,,,space,,,,,,7,0.29955,,,,,,,,,,,0,24,24,24,1,,,,,,,,,,,,,,,,,,,,,,,,,,,,,,,
,,,,,,,,,,,,,,,,,,,,,,,,19,female,2020-11-22_09h15.01.581,torte-2b,2020.1.3,Win32,60,13348,,,,,,,,,,,,space,,,,,,1,0.809275,,,,,,,,,,,0,25,25,25,1,,,,,,,,,,,,,,,,,,,,,,,,,,,,,,,
,,,,,,,,,,,,,,,,,,,,,,,,19,female,2020-11-22_09h15.01.581,torte-2b,2020.1.3,Win32,60,13348,,,,,,,,,,,,space,,,,,,7,0.78363,,,,,,,,,,,0,26,26,26,1,,,,,,,,,,,,,,,,,,,,,,,,,,,,,,,
,,,,,,,,,,,,,,,,,,,,,,,,19,female,2020-11-22_09h15.01.581,torte-2b,2020.1.3,Win32,60,13348,,,,,,,,,,,,,,,,,,2,,,,,,,,,,,,0,27,27,27,1,,,,,,,,,,,,,,,,,,,,,,,,,,,,,,,
,,,,,,,,,,,,,,,,,,,,,,,,19,female,2020-11-22_09h15.01.581,torte-2b,2020.1.3,Win32,60,13348,,,,,,,,,,,,,,,,,,5,,,,,,,,,,,,0,28,28,28,1,,,,,,,,,,,,,,,,,,,,,,,,,,,,,,,
,,,,,,,,,,,,,,,,,,,,,,,,19,female,2020-11-22_09h15.01.581,torte-2b,2020.1.3,Win32,60,13348,,,,,,,,,,,,,,,,,,5,,,,,,,,,,,,0,29,29,29,1,,,,,,,,,,,,,,,,,,,,,,,,,,,,,,,
,,,,,,,,,,,,,,,,,,,,,,,,19,female,2020-11-22_09h15.01.581,torte-2b,2020.1.3,Win32,60,13348,,,,,,,,,,,,space,,,,,,5,0.33457,,,,,,,,,,,0,30,30,30,1,,,,,,,,,,,,,,,,,,,,,,,,,,,,,,,
,,,,,,,,,,,,,,,,,,,,,,,,19,female,2020-11-22_09h15.01.581,torte-2b,2020.1.3,Win32,60,13348,,,,,,,,,,,,,,,,,,1,,,,,,,,,,,,0,31,31,31,1,,,,,,,,,,,,,,,,,,,,,,,,,,,,,,,
,,,,,,,,,,,,,,,,,,,,,,,,19,female,2020-11-22_09h15.01.581,torte-2b,2020.1.3,Win32,60,13348,,,,,,,,,,,,space,,,,,,5,0.40536,,,,,,,,,,,0,32,32,32,1,,,,,,,,,,,,,,,,,,,,,,,,,,,,,,,
,,,,,,,,,,,,,,,,,,,,,,,,19,female,2020-11-22_09h15.01.581,torte-2b,2020.1.3,Win32,60,13348,,,,,,,,,,,,,,,,,,3,,,,,,,,,,,,0,33,33,33,1,,,,,,,,,,,,,,,,,,,,,,,,,,,,,,,
,,,,,,,,,,,,,,,,,,,,,,,,19,female,2020-11-22_09h15.01.581,torte-2b,2020.1.3,Win32,60,13348,,,,,,,,,,,,,,,,,,3,,,,,,,,,,,,0,34,34,34,1,,,,,,,,,,,,,,,,,,,,,,,,,,,,,,,
,,,,,,,,,,,,l,1.550675,Incorrect,,,,,,t2.png,t3.png,1,0.90855,19,female,2020-11-22_09h15.01.581,torte-2b,2020.1.3,Win32,60,13348,space,0.47039,,,,,,,,,,,,,,,,,,,,,,,,,,,,,,,,,space,1.021535,0,0,0,68,1,,,,,,,,,,,,,,,,,,,,,,,,
,,,,,,,,,,,,a,0.51278,Incorrect,,,,,,t3.png,t1.png,2,0.056466,19,female,2020-11-22_09h15.01.581,torte-2b,2020.1.3,Win32,60,13348,,,,,,,,,,,,,,,,,,,,,,,,,,,,,,,,,,,,,0,1,1,0,1,,,,,,,,,,,,,,,,,,,,,,,,
,,,,,,,,,,,,a,0.733185,Correct!,,,,,,t1.png,t1.png,0,0.97829,19,female,2020-11-22_09h15.01.581,torte-2b,2020.1.3,Win32,60,13348,,,,,,,,,,,,,,,,,,,,,,,,,,,,,,,,,,,,,0,2,2,9,1,,,,,,,,,,,,,,,,,,,,,,,,
,,,,,,,,,,,,a,0.58742,Correct!,,,,,,t1.png,t2.png,1,0.9,19,female,2020-11-22_09h15.01.581,torte-2b,2020.1.3,Win32,60,13348,,,,,,,,,,,,,,,,,,,,,,,,,,,,,,,,,,,,,0,3,3,1,1,,,,,,,,,,,,,,,,,,,,,,,,
,,,,,,,,,,,,a,0.96005,Incorrect,,,,,,t4.png,t1.png,3,0.0000131,19,female,2020-11-22_09h15.01.581,torte-2b,2020.1.3,Win32,60,13348,,,,,,,,,,,,,,,,,,,,,,,,,,,,,,,,,,,,,0,4,4,42,1,,,,,,,,,,,,,,,,,,,,,,,,
,,,,,,,,,,,,l,0.60016,Incorrect,,,,,,t2.png,t3.png,1,0.90855,19,female,2020-11-22_09h15.01.581,torte-2b,2020.1.3,Win32,60,13348,,,,,,,,,,,,,,,,,,,,,,,,,,,,,,,,,,,,,0,5,5,111,1,,,,,,,,,,,,,,,,,,,,,,,,
,,,,,,,,,,,,a,0.73329,Incorrect,,,,,,t5.png,t3.png,2,0.056466,19,female,2020-11-22_09h15.01.581,torte-2b,2020.1.3,Win32,60,13348,,,,,,,,,,,,,,,,,,,,,,,,,,,,,,,,,,,,,0,6,6,38,1,,,,,,,,,,,,,,,,,,,,,,,,
,,,,,,,,,,,,l,0.7424,Incorrect,,,,,,t4.png,t3.png,1,0.909,19,female,2020-11-22_09h15.01.581,torte-2b,2020.1.3,Win32,60,13348,,,,,,,,,,,,,,,,,,,,,,,,,,,,,,,,,,,,,0,7,7,46,1,,,,,,,,,,,,,,,,,,,,,,,,
,,,,,,,,,,,,l,0.67167,Correct!,,,,,,t1.png,t5.png,4,9.55E-11,19,female,2020-11-22_09h15.01.581,torte-2b,2020.1.3,Win32,60,13348,,,,,,,,,,,,,,,,,,,,,,,,,,,,,,,,,,,,,0,8,8,41,1,,,,,,,,,,,,,,,,,,,,,,,,
,,,,,,,,,,,,a,0.739275,Incorrect,,,,,,t5.png,t3.png,2,0.056466,19,female,2020-11-22_09h15.01.581,torte-2b,2020.1.3,Win32,60,13348,,,,,,,,,,,,,,,,,,,,,,,,,,,,,,,,,,,,,0,9,9,114,1,,,,,,,,,,,,,,,,,,,,,,,,
,,,,,,,,,,,,a,0.539925,Correct!,,,,,,t4.png,t4.png,0,0.98115,19,female,2020-11-22_09h15.01.581,torte-2b,2020.1.3,Win32,60,13348,,,,,,,,,,,,,,,,,,,,,,,,,,,,,,,,,,,,,0,10,10,90,1,,,,,,,,,,,,,,,,,,,,,,,,
,,,,,,,,,,,,a,0.52641,Correct!,,,,,,t4.png,t4.png,0,0.98115,19,female,2020-11-22_09h15.01.581,torte-2b,2020.1.3,Win32,60,13348,,,,,,,,,,,,,,,,,,,,,,,,,,,,,,,,,,,,,0,11,11,52,1,,,,,,,,,,,,,,,,,,,,,,,,
,,,,,,,,,,,,l,0.61633,Correct!,,,,,,t5.png,t3.png,2,0.0565,19,female,2020-11-22_09h15.01.581,torte-2b,2020.1.3,Win32,60,13348,,,,,,,,,,,,,,,,,,,,,,,,,,,,,,,,,,,,,0,12,12,39,1,,,,,,,,,,,,,,,,,,,,,,,,
,,,,,,,,,,,,l,0.641375,Incorrect,,,,,,t1.png,t2.png,1,0.90025,19,female,2020-11-22_09h15.01.581,torte-2b,2020.1.3,Win32,60,13348,,,,,,,,,,,,,,,,,,,,,,,,,,,,,,,,,,,,,0,13,13,112,1,,,,,,,,,,,,,,,,,,,,,,,,
,,,,,,,,,,,,a,0.326025,Incorrect,,,,,,t5.png,t2.png,3,0.0000131,19,female,2020-11-22_09h15.01.581,torte-2b,2020.1.3,Win32,60,13348,,,,,,,,,,,,,,,,,,,,,,,,,,,,,,,,,,,,,0,14,14,116,1,,,,,,,,,,,,,,,,,,,,,,,,
,,,,,,,,,,,,a,0.40144,Incorrect,,,,,,t4.png,t1.png,3,0.0000131,19,female,2020-11-22_09h15.01.581,torte-2b,2020.1.3,Win32,60,13348,,,,,,,,,,,,,,,,,,,,,,,,,,,,,,,,,,,,,0,15,15,61,1,,,,,,,,,,,,,,,,,,,,,,,,
,,,,,,,,,,,,l,0.270435,Correct!,,,,,,t2.png,t4.png,2,0.059078,19,female,2020-11-22_09h15.01.581,torte-2b,2020.1.3,Win32,60,13348,,,,,,,,,,,,,,,,,,,,,,,,,,,,,,,,,,,,,0,16,16,11,1,,,,,,,,,,,,,,,,,,,,,,,,
,,,,,,,,,,,,a,0.30924,Correct!,,,,,,t4.png,t3.png,1,0.90855,19,female,2020-11-22_09h15.01.581,torte-2b,2020.1.3,Win32,60,13348,,,,,,,,,,,,,,,,,,,,,,,,,,,,,,,,,,,,,0,17,17,35,1,,,,,,,,,,,,,,,,,,,,,,,,
,,,,,,,,,,,,l,0.38468,Incorrect,,,,,,t5.png,t4.png,1,0.9,19,female,2020-11-22_09h15.01.581,torte-2b,2020.1.3,Win32,60,13348,,,,,,,,,,,,,,,,,,,,,,,,,,,,,,,,,,,,,0,18,18,76,1,,,,,,,,,,,,,,,,,,,,,,,,
,,,,,,,,,,,,l,0.372535,Incorrect,,,,,,t2.png,t1.png,1,0.9,19,female,2020-11-22_09h15.01.581,torte-2b,2020.1.3,Win32,60,13348,,,,,,,,,,,,,,,,,,,,,,,,,,,,,,,,,,,,,0,19,19,118,1,,,,,,,,,,,,,,,,,,,,,,,,
,,,,,,,,,,,,l,0.339845,Correct!,,,,,,t1.png,t4.png,3,0.0000131,19,female,2020-11-22_09h15.01.581,torte-2b,2020.1.3,Win32,60,13348,,,,,,,,,,,,,,,,,,,,,,,,,,,,,,,,,,,,,0,20,20,107,1,,,,,,,,,,,,,,,,,,,,,,,,
,,,,,,,,,,,,l,0.420555,Correct!,,,,,,t2.png,t4.png,2,0.059078,19,female,2020-11-22_09h15.01.581,torte-2b,2020.1.3,Win32,60,13348,,,,,,,,,,,,,,,,,,,,,,,,,,,,,,,,,,,,,0,21,21,24,1,,,,,,,,,,,,,,,,,,,,,,,,
,,,,,,,,,,,,a,0.70307,Correct!,,,,,,t3.png,t2.png,1,0.90855,19,female,2020-11-22_09h15.01.581,torte-2b,2020.1.3,Win32,60,13348,,,,,,,,,,,,,,,,,,,,,,,,,,,,,,,,,,,,,0,22,22,97,1,,,,,,,,,,,,,,,,,,,,,,,,
,,,,,,,,,,,,l,0.38806,Correct!,,,,,,t2.png,t5.png,3,0.0000131,19,female,2020-11-22_09h15.01.581,torte-2b,2020.1.3,Win32,60,13348,,,,,,,,,,,,,,,,,,,,,,,,,,,,,,,,,,,,,0,23,23,40,1,,,,,,,,,,,,,,,,,,,,,,,,
,,,,,,,,,,,,a,0.356605,Correct!,,,,,,t4.png,t3.png,1,0.90855,19,female,2020-11-22_09h15.01.581,torte-2b,2020.1.3,Win32,60,13348,,,,,,,,,,,,,,,,,,,,,,,,,,,,,,,,,,,,,0,24,24,45,1,,,,,,,,,,,,,,,,,,,,,,,,
,,,,,,,,,,,,a,0.32166,Incorrect,,,,,,t3.png,t5.png,2,0.0565,19,female,2020-11-22_09h15.01.581,torte-2b,2020.1.3,Win32,60,13348,,,,,,,,,,,,,,,,,,,,,,,,,,,,,,,,,,,,,0,25,25,30,1,,,,,,,,,,,,,,,,,,,,,,,,
,,,,,,,,,,,,a,0.46704,Incorrect,,,,,,t5.png,t1.png,4,9.55E-11,19,female,2020-11-22_09h15.01.581,torte-2b,2020.1.3,Win32,60,13348,,,,,,,,,,,,,,,,,,,,,,,,,,,,,,,,,,,,,0,26,26,43,1,,,,,,,,,,,,,,,,,,,,,,,,
,,,,,,,,,,,,l,0.30606,Correct!,,,,,,t1.png,t4.png,3,0.0000131,19,female,2020-11-22_09h15.01.581,torte-2b,2020.1.3,Win32,60,13348,,,,,,,,,,,,,,,,,,,,,,,,,,,,,,,,,,,,,0,27,27,81,1,,,,,,,,,,,,,,,,,,,,,,,,
,,,,,,,,,,,,l,0.35369,Correct!,,,,,,t3.png,t5.png,2,0.0565,19,female,2020-11-22_09h15.01.581,torte-2b,2020.1.3,Win32,60,13348,,,,,,,,,,,,,,,,,,,,,,,,,,,,,,,,,,,,,0,28,28,83,1,,,,,,,,,,,,,,,,,,,,,,,,
,,,,,,,,,,,,a,0.367795,Incorrect,,,,,,t4.png,t2.png,2,0.0591,19,female,2020-11-22_09h15.01.581,torte-2b,2020.1.3,Win32,60,13348,,,,,,,,,,,,,,,,,,,,,,,,,,,,,,,,,,,,,0,29,29,36,1,,,,,,,,,,,,,,,,,,,,,,,,
,,,,,,,,,,,,a,0.325425,Correct!,,,,,,t5.png,t4.png,1,0.90025,19,female,2020-11-22_09h15.01.581,torte-2b,2020.1.3,Win32,60,13348,,,,,,,,,,,,,,,,,,,,,,,,,,,,,,,,,,,,,0,30,30,26,1,,,,,,,,,,,,,,,,,,,,,,,,
,,,,,,,,,,,,l,0.65958,Incorrect,,,,,,t4.png,t5.png,1,0.90025,19,female,2020-11-22_09h15.01.581,torte-2b,2020.1.3,Win32,60,13348,,,,,,,,,,,,,,,,,,,,,,,,,,,,,,,,,,,,,0,31,31,47,1,,,,,,,,,,,,,,,,,,,,,,,,
,,,,,,,,,,,,l,0.36883,Correct!,,,,,,t2.png,t4.png,2,0.059078,19,female,2020-11-22_09h15.01.581,torte-2b,2020.1.3,Win32,60,13348,,,,,,,,,,,,,,,,,,,,,,,,,,,,,,,,,,,,,0,32,32,37,1,,,,,,,,,,,,,,,,,,,,,,,,
,,,,,,,,,,,,a,0.42197,Incorrect,,,,,,t4.png,t1.png,3,0.0000131,19,female,2020-11-22_09h15.01.581,torte-2b,2020.1.3,Win32,60,13348,,,,,,,,,,,,,,,,,,,,,,,,,,,,,,,,,,,,,0,33,33,93,1,,,,,,,,,,,,,,,,,,,,,,,,
,,,,,,,,,,,,a,0.66745,Correct!,,,,,,t5.png,t5.png,0,0.97829,19,female,2020-11-22_09h15.01.581,torte-2b,2020.1.3,Win32,60,13348,,,,,,,,,,,,,,,,,,,,,,,,,,,,,,,,,,,,,0,34,34,73,1,,,,,,,,,,,,,,,,,,,,,,,,
,,,,,,,,,,,,a,0.55866,Incorrect,,,,,,t5.png,t3.png,2,0.056466,19,female,2020-11-22_09h15.01.581,torte-2b,2020.1.3,Win32,60,13348,,,,,,,,,,,,,,,,,,,,,,,,,,,,,,,,,,,,,0,35,35,108,1,,,,,,,,,,,,,,,,,,,,,,,,
,,,,,,,,,,,,a,0.58712,Correct!,,,,,,t1.png,t1.png,0,0.97829,19,female,2020-11-22_09h15.01.581,torte-2b,2020.1.3,Win32,60,13348,,,,,,,,,,,,,,,,,,,,,,,,,,,,,,,,,,,,,0,36,36,78,1,,,,,,,,,,,,,,,,,,,,,,,,
,,,,,,,,,,,,a,0.483675,Incorrect,,,,,,t4.png,t5.png,1,0.9,19,female,2020-11-22_09h15.01.581,torte-2b,2020.1.3,Win32,60,13348,,,,,,,,,,,,,,,,,,,,,,,,,,,,,,,,,,,,,0,37,37,115,1,,,,,,,,,,,,,,,,,,,,,,,,
,,,,,,,,,,,,a,0.651835,Correct!,,,,,,t2.png,t2.png,0,0.981,19,female,2020-11-22_09h15.01.581,torte-2b,2020.1.3,Win32,60,13348,,,,,,,,,,,,,,,,,,,,,,,,,,,,,,,,,,,,,0,38,38,101,1,,,,,,,,,,,,,,,,,,,,,,,,
,,,,,,,,,,,,l,0.587175,Correct!,,,,,,t5.png,t2.png,3,0.0000131,19,female,2020-11-22_09h15.01.581,torte-2b,2020.1.3,Win32,60,13348,,,,,,,,,,,,,,,,,,,,,,,,,,,,,,,,,,,,,0,39,39,98,1,,,,,,,,,,,,,,,,,,,,,,,,
,,,,,,,,,,,,l,0.49865,Correct!,,,,,,t2.png,t4.png,2,0.059078,19,female,2020-11-22_09h15.01.581,torte-2b,2020.1.3,Win32,60,13348,,,,,,,,,,,,,,,,,,,,,,,,,,,,,,,,,,,,,0,40,40,77,1,,,,,,,,,,,,,,,,,,,,,,,,
,,,,,,,,,,,,l,0.352935,Correct!,,,,,,t1.png,t3.png,2,0.056466,19,female,2020-11-22_09h15.01.581,torte-2b,2020.1.3,Win32,60,13348,,,,,,,,,,,,,,,,,,,,,,,,,,,,,,,,,,,,,0,41,41,87,1,,,,,,,,,,,,,,,,,,,,,,,,
,,,,,,,,,,,,a,0.33516,Correct!,,,,,,t4.png,t4.png,0,0.98115,19,female,2020-11-22_09h15.01.581,torte-2b,2020.1.3,Win32,60,13348,,,,,,,,,,,,,,,,,,,,,,,,,,,,,,,,,,,,,0,42,42,80,1,,,,,,,,,,,,,,,,,,,,,,,,
,,,,,,,,,,,,a,0.385565,Incorrect,,,,,,t5.png,t2.png,3,0.0000131,19,female,2020-11-22_09h15.01.581,torte-2b,2020.1.3,Win32,60,13348,,,,,,,,,,,,,,,,,,,,,,,,,,,,,,,,,,,,,0,43,43,91,1,,,,,,,,,,,,,,,,,,,,,,,,
,,,,,,,,,,,,l,0.383815,Incorrect,,,,,,t3.png,t5.png,2,0.056466,19,female,2020-11-22_09h15.01.581,torte-2b,2020.1.3,Win32,60,13348,,,,,,,,,,,,,,,,,,,,,,,,,,,,,,,,,,,,,0,44,44,14,1,,,,,,,,,,,,,,,,,,,,,,,,
,,,,,,,,,,,,a,0.319205,Correct!,,,,,,t5.png,t5.png,0,0.97829,19,female,2020-11-22_09h15.01.581,torte-2b,2020.1.3,Win32,60,13348,,,,,,,,,,,,,,,,,,,,,,,,,,,,,,,,,,,,,0,45,45,70,1,,,,,,,,,,,,,,,,,,,,,,,,
,,,,,,,,,,,,a,0.333755,Incorrect,,,,,,t4.png,t2.png,2,0.059078,19,female,2020-11-22_09h15.01.581,torte-2b,2020.1.3,Win32,60,13348,,,,,,,,,,,,,,,,,,,,,,,,,,,,,,,,,,,,,0,46,46,109,1,,,,,,,,,,,,,,,,,,,,,,,,
,,,,,,,,,,,,a,0.329435,Correct!,,,,,,t5.png,t4.png,1,0.90025,19,female,2020-11-22_09h15.01.581,torte-2b,2020.1.3,Win32,60,13348,,,,,,,,,,,,,,,,,,,,,,,,,,,,,,,,,,,,,0,47,47,34,1,,,,,,,,,,,,,,,,,,,,,,,,
,,,,,,,,,,,,a,0.32384,Correct!,,,,,,t2.png,t1.png,1,0.90025,19,female,2020-11-22_09h15.01.581,torte-2b,2020.1.3,Win32,60,13348,,,,,,,,,,,,,,,,,,,,,,,,,,,,,,,,,,,,,0,48,48,5,1,,,,,,,,,,,,,,,,,,,,,,,,
,,,,,,,,,,,,a,0.455455,Incorrect,,,,,,t1.png,t2.png,1,0.90025,19,female,2020-11-22_09h15.01.581,torte-2b,2020.1.3,Win32,60,13348,,,,,,,,,,,,,,,,,,,,,,,,,,,,,,,,,,,,,0,49,49,72,1,,,,,,,,,,,,,,,,,,,,,,,,
,,,,,,,,,,,,a,0.27314,Incorrect,,,,,,t2.png,t5.png,3,0.0000131,19,female,2020-11-22_09h15.01.581,torte-2b,2020.1.3,Win32,60,13348,,,,,,,,,,,,,,,,,,,,,,,,,,,,,,,,,,,,,0,50,50,95,1,,,,,,,,,,,,,,,,,,,,,,,,
,,,,,,,,,,,,a,0.335055,Correct!,,,,,,t1.png,t1.png,0,0.97829,19,female,2020-11-22_09h15.01.581,torte-2b,2020.1.3,Win32,60,13348,,,,,,,,,,,,,,,,,,,,,,,,,,,,,,,,,,,,,0,51,51,67,1,,,,,,,,,,,,,,,,,,,,,,,,
,,,,,,,,,,,,a,0.60593,Correct!,,,,,,t3.png,t2.png,1,0.90855,19,female,2020-11-22_09h15.01.581,torte-2b,2020.1.3,Win32,60,13348,,,,,,,,,,,,,,,,,,,,,,,,,,,,,,,,,,,,,0,52,52,53,1,,,,,,,,,,,,,,,,,,,,,,,,
,,,,,,,,,,,,a,0.340965,Correct!,,,,,,t3.png,t2.png,1,0.90855,19,female,2020-11-22_09h15.01.581,torte-2b,2020.1.3,Win32,60,13348,,,,,,,,,,,,,,,,,,,,,,,,,,,,,,,,,,,,,0,53,53,18,1,,,,,,,,,,,,,,,,,,,,,,,,
,,,,,,,,,,,,a,0.352975,Correct!,,,,,,t2.png,t1.png,1,0.90025,19,female,2020-11-22_09h15.01.581,torte-2b,2020.1.3,Win32,60,13348,,,,,,,,,,,,,,,,,,,,,,,,,,,,,,,,,,,,,0,54,54,62,1,,,,,,,,,,,,,,,,,,,,,,,,
,,,,,,,,,,,,a,0.3024,Correct!,,,,,,t1.png,t2.png,1,0.90025,19,female,2020-11-22_09h15.01.581,torte-2b,2020.1.3,Win32,60,13348,,,,,,,,,,,,,,,,,,,,,,,,,,,,,,,,,,,,,0,55,55,105,1,,,,,,,,,,,,,,,,,,,,,,,,
,,,,,,,,,,,,a,0.250135,Correct!,,,,,,t5.png,t5.png,0,0.97829,19,female,2020-11-22_09h15.01.581,torte-2b,2020.1.3,Win32,60,13348,,,,,,,,,,,,,,,,,,,,,,,,,,,,,,,,,,,,,0,56,56,25,1,,,,,,,,,,,,,,,,,,,,,,,,
,,,,,,,,,,,,a,0.343335,Incorrect,,,,,,t4.png,t1.png,3,0.0000131,19,female,2020-11-22_09h15.01.581,torte-2b,2020.1.3,Win32,60,13348,,,,,,,,,,,,,,,,,,,,,,,,,,,,,,,,,,,,,0,57,57,13,1,,,,,,,,,,,,,,,,,,,,,,,,
,,,,,,,,,,,,a,0.266715,Incorrect,,,,,,t3.png,t1.png,2,0.056466,19,female,2020-11-22_09h15.01.581,torte-2b,2020.1.3,Win32,60,13348,,,,,,,,,,,,,,,,,,,,,,,,,,,,,,,,,,,,,0,58,58,32,1,,,,,,,,,,,,,,,,,,,,,,,,
,,,,,,,,,,,,a,0.254355,Correct!,,,,,,t3.png,t4.png,1,0.909,19,female,2020-11-22_09h15.01.581,torte-2b,2020.1.3,Win32,60,13348,,,,,,,,,,,,,,,,,,,,,,,,,,,,,,,,,,,,,0,59,59,89,1,,,,,,,,,,,,,,,,,,,,,,,,
,,,,,,,,,,,,a,0.22998,Incorrect,,,,,,t4.png,t1.png,3,0.0000131,19,female,2020-11-22_09h15.01.581,torte-2b,2020.1.3,Win32,60,13348,,,,,,,,,,,,,,,,,,,,,,,,,,,,,,,,,,,,,0,60,60,48,1,,,,,,,,,,,,,,,,,,,,,,,,
,,,,,,,,,,,,a,0.26852,Correct!,,,,,,t4.png,t5.png,1,0.90025,19,female,2020-11-22_09h15.01.581,torte-2b,2020.1.3,Win32,60,13348,,,,,,,,,,,,,,,,,,,,,,,,,,,,,,,,,,,,,0,61,61,103,1,,,,,,,,,,,,,,,,,,,,,,,,
,,,,,,,,,,,,a,0.37199,Incorrect,,,,,,t1.png,t5.png,4,9.55E-11,19,female,2020-11-22_09h15.01.581,torte-2b,2020.1.3,Win32,60,13348,,,,,,,,,,,,,,,,,,,,,,,,,,,,,,,,,,,,,0,62,62,12,1,,,,,,,,,,,,,,,,,,,,,,,,
,,,,,,,,,,,,a,0.357675,Incorrect,,,,,,t5.png,t2.png,3,0.0000131,19,female,2020-11-22_09h15.01.581,torte-2b,2020.1.3,Win32,60,13348,,,,,,,,,,,,,,,,,,,,,,,,,,,,,,,,,,,,,0,63,63,119,1,,,,,,,,,,,,,,,,,,,,,,,,
,,,,,,,,,,,,a,0.30165,Incorrect,,,,,,t2.png,t4.png,2,0.0591,19,female,2020-11-22_09h15.01.581,torte-2b,2020.1.3,Win32,60,13348,,,,,,,,,,,,,,,,,,,,,,,,,,,,,,,,,,,,,0,64,64,15,1,,,,,,,,,,,,,,,,,,,,,,,,
,,,,,,,,,,,,a,0.302045,Correct!,,,,,,t4.png,t3.png,1,0.909,19,female,2020-11-22_09h15.01.581,torte-2b,2020.1.3,Win32,60,13348,,,,,,,,,,,,,,,,,,,,,,,,,,,,,,,,,,,,,0,65,65,20,1,,,,,,,,,,,,,,,,,,,,,,,,
,,,,,,,,,,,,a,0.26772,Correct!,,,,,,t3.png,t2.png,1,0.909,19,female,2020-11-22_09h15.01.581,torte-2b,2020.1.3,Win32,60,13348,,,,,,,,,,,,,,,,,,,,,,,,,,,,,,,,,,,,,0,66,66,23,1,,,,,,,,,,,,,,,,,,,,,,,,
,,,,,,,,,,,,a,0.39978,Incorrect,,,,,,t2.png,t5.png,3,0.0000131,19,female,2020-11-22_09h15.01.581,torte-2b,2020.1.3,Win32,60,13348,,,,,,,,,,,,,,,,,,,,,,,,,,,,,,,,,,,,,0,67,67,66,1,,,,,,,,,,,,,,,,,,,,,,,,
,,,,,,,,,,,,a,0.205645,Correct!,,,,,,t1.png,t1.png,0,0.978,19,female,2020-11-22_09h15.01.581,torte-2b,2020.1.3,Win32,60,13348,,,,,,,,,,,,,,,,,,,,,,,,,,,,,,,,,,,,,0,68,68,54,1,,,,,,,,,,,,,,,,,,,,,,,,
,,,,,,,,,,,,a,0.366815,Incorrect,,,,,,t5.png,t1.png,4,9.55E-11,19,female,2020-11-22_09h15.01.581,torte-2b,2020.1.3,Win32,60,13348,,,,,,,,,,,,,,,,,,,,,,,,,,,,,,,,,,,,,0,69,69,71,1,,,,,,,,,,,,,,,,,,,,,,,,
,,,,,,,,,,,,l,0.9663,Correct!,,,,,,t5.png,t1.png,4,9.55E-11,19,female,2020-11-22_09h15.01.581,torte-2b,2020.1.3,Win32,60,13348,,,,,,,,,,,,,,,,,,,,,,,,,,,,,,,,,,,,,0,70,70,102,1,,,,,,,,,,,,,,,,,,,,,,,,
,,,,,,,,,,,,l,0.4746,Incorrect,,,,,,t2.png,t3.png,1,0.90855,19,female,2020-11-22_09h15.01.581,torte-2b,2020.1.3,Win32,60,13348,,,,,,,,,,,,,,,,,,,,,,,,,,,,,,,,,,,,,0,71,71,65,1,,,,,,,,,,,,,,,,,,,,,,,,
,,,,,,,,,,,,l,0.60256,Incorrect,,,,,,t4.png,t4.png,0,0.98115,19,female,2020-11-22_09h15.01.581,torte-2b,2020.1.3,Win32,60,13348,,,,,,,,,,,,,,,,,,,,,,,,,,,,,,,,,,,,,0,72,72,21,1,,,,,,,,,,,,,,,,,,,,,,,,
,,,,,,,,,,,,l,0.50115,Correct!,,,,,,t1.png,t4.png,3,0.0000131,19,female,2020-11-22_09h15.01.581,torte-2b,2020.1.3,Win32,60,13348,,,,,,,,,,,,,,,,,,,,,,,,,,,,,,,,,,,,,0,73,73,92,1,,,,,,,,,,,,,,,,,,,,,,,,
,,,,,,,,,,,,a,0.624845,Correct!,,,,,,t1.png,t1.png,0,0.978,19,female,2020-11-22_09h15.01.581,torte-2b,2020.1.3,Win32,60,13348,,,,,,,,,,,,,,,,,,,,,,,,,,,,,,,,,,,,,0,74,74,28,1,,,,,,,,,,,,,,,,,,,,,,,,
,,,,,,,,,,,,a,0.373365,Incorrect,,,,,,t1.png,t5.png,4,9.55E-11,19,female,2020-11-22_09h15.01.581,torte-2b,2020.1.3,Win32,60,13348,,,,,,,,,,,,,,,,,,,,,,,,,,,,,,,,,,,,,0,75,75,85,1,,,,,,,,,,,,,,,,,,,,,,,,
,,,,,,,,,,,,a,0.408575,Incorrect,,,,,,t1.png,t3.png,2,0.056466,19,female,2020-11-22_09h15.01.581,torte-2b,2020.1.3,Win32,60,13348,,,,,,,,,,,,,,,,,,,,,,,,,,,,,,,,,,,,,0,76,76,99,1,,,,,,,,,,,,,,,,,,,,,,,,
,,,,,,,,,,,,a,0.699515,Correct!,,,,,,t5.png,t5.png,0,0.978,19,female,2020-11-22_09h15.01.581,torte-2b,2020.1.3,Win32,60,13348,,,,,,,,,,,,,,,,,,,,,,,,,,,,,,,,,,,,,0,77,77,117,1,,,,,,,,,,,,,,,,,,,,,,,,
,,,,,,,,,,,,l,0.323725,Incorrect,,,,,,t5.png,t4.png,1,0.9,19,female,2020-11-22_09h15.01.581,torte-2b,2020.1.3,Win32,60,13348,,,,,,,,,,,,,,,,,,,,,,,,,,,,,,,,,,,,,0,78,78,49,1,,,,,,,,,,,,,,,,,,,,,,,,
,,,,,,,,,,,,a,0.623715,Correct!,,,,,,t4.png,t4.png,0,0.98115,19,female,2020-11-22_09h15.01.581,torte-2b,2020.1.3,Win32,60,13348,,,,,,,,,,,,,,,,,,,,,,,,,,,,,,,,,,,,,0,79,79,79,1,,,,,,,,,,,,,,,,,,,,,,,,
,,,,,,,,,,,,a,0.55099,Correct!,,,,,,t4.png,t5.png,1,0.90025,19,female,2020-11-22_09h15.01.581,torte-2b,2020.1.3,Win32,60,13348,,,,,,,,,,,,,,,,,,,,,,,,,,,,,,,,,,,,,0,80,80,58,1,,,,,,,,,,,,,,,,,,,,,,,,
,,,,,,,,,,,,a,0.510295,Correct!,,,,,,t3.png,t4.png,1,0.909,19,female,2020-11-22_09h15.01.581,torte-2b,2020.1.3,Win32,60,13348,,,,,,,,,,,,,,,,,,,,,,,,,,,,,,,,,,,,,0,81,81,82,1,,,,,,,,,,,,,,,,,,,,,,,,
,,,,,,,,,,,,l,0.75478,Incorrect,,,,,,t3.png,t1.png,2,0.056466,19,female,2020-11-22_09h15.01.581,torte-2b,2020.1.3,Win32,60,13348,,,,,,,,,,,,,,,,,,,,,,,,,,,,,,,,,,,,,0,82,82,64,1,,,,,,,,,,,,,,,,,,,,,,,,
,,,,,,,,,,,,a,0.384135,Incorrect,,,,,,t1.png,t3.png,2,0.056466,19,female,2020-11-22_09h15.01.581,torte-2b,2020.1.3,Win32,60,13348,,,,,,,,,,,,,,,,,,,,,,,,,,,,,,,,,,,,,0,83,83,69,1,,,,,,,,,,,,,,,,,,,,,,,,
,,,,,,,,,,,,a,0.63516,Correct!,,,,,,t2.png,t2.png,0,0.98115,19,female,2020-11-22_09h15.01.581,torte-2b,2020.1.3,Win32,60,13348,,,,,,,,,,,,,,,,,,,,,,,,,,,,,,,,,,,,,0,84,84,59,1,,,,,,,,,,,,,,,,,,,,,,,,
,,,,,,,,,,,,a,0.53588,Correct!,,,,,,t5.png,t5.png,0,0.97829,19,female,2020-11-22_09h15.01.581,torte-2b,2020.1.3,Win32,60,13348,,,,,,,,,,,,,,,,,,,,,,,,,,,,,,,,,,,,,0,85,85,94,1,,,,,,,,,,,,,,,,,,,,,,,,
,,,,,,,,,,,,a,0.458385,Correct!,,,,,,t5.png,t4.png,1,0.90025,19,female,2020-11-22_09h15.01.581,torte-2b,2020.1.3,Win32,60,13348,,,,,,,,,,,,,,,,,,,,,,,,,,,,,,,,,,,,,0,86,86,27,1,,,,,,,,,,,,,,,,,,,,,,,,
,,,,,,,,,,,,l,0.80093,Incorrect,,,,,,t2.png,t3.png,1,0.909,19,female,2020-11-22_09h15.01.581,torte-2b,2020.1.3,Win32,60,13348,,,,,,,,,,,,,,,,,,,,,,,,,,,,,,,,,,,,,0,87,87,74,1,,,,,,,,,,,,,,,,,,,,,,,,
,,,,,,,,,,,,l,0.684885,Correct!,,,,,,t3.png,t5.png,2,0.056466,19,female,2020-11-22_09h15.01.581,torte-2b,2020.1.3,Win32,60,13348,,,,,,,,,,,,,,,,,,,,,,,,,,,,,,,,,,,,,0,88,88,44,1,,,,,,,,,,,,,,,,,,,,,,,,
,,,,,,,,,,,,a,0.7411,Incorrect,,,,,,t5.png,t2.png,3,0.0000131,19,female,2020-11-22_09h15.01.581,torte-2b,2020.1.3,Win32,60,13348,,,,,,,,,,,,,,,,,,,,,,,,,,,,,,,,,,,,,0,89,89,51,1,,,,,,,,,,,,,,,,,,,,,,,,
,,,,,,,,,,,,l,0.5751,Correct!,,,,,,t3.png,t4.png,1,0.909,19,female,2020-11-22_09h15.01.581,torte-2b,2020.1.3,Win32,60,13348,,,,,,,,,,,,,,,,,,,,,,,,,,,,,,,,,,,,,0,90,90,106,1,,,,,,,,,,,,,,,,,,,,,,,,
,,,,,,,,,,,,a,0.46615,Correct!,,,,,,t4.png,t5.png,1,0.90025,19,female,2020-11-22_09h15.01.581,torte-2b,2020.1.3,Win32,60,13348,,,,,,,,,,,,,,,,,,,,,,,,,,,,,,,,,,,,,0,91,91,113,1,,,,,,,,,,,,,,,,,,,,,,,,
,,,,,,,,,,,,a,0.53373,Incorrect,,,,,,t4.png,t2.png,2,0.059078,19,female,2020-11-22_09h15.01.581,torte-2b,2020.1.3,Win32,60,13348,,,,,,,,,,,,,,,,,,,,,,,,,,,,,,,,,,,,,0,92,92,88,1,,,,,,,,,,,,,,,,,,,,,,,,
,,,,,,,,,,,,a,0.43948,Incorrect,,,,,,t5.png,t1.png,4,9.55E-11,19,female,2020-11-22_09h15.01.581,torte-2b,2020.1.3,Win32,60,13348,,,,,,,,,,,,,,,,,,,,,,,,,,,,,,,,,,,,,0,93,93,100,1,,,,,,,,,,,,,,,,,,,,,,,,
,,,,,,,,,,,,a,0.449485,Correct!,,,,,,t2.png,t3.png,1,0.90855,19,female,2020-11-22_09h15.01.581,torte-2b,2020.1.3,Win32,60,13348,,,,,,,,,,,,,,,,,,,,,,,,,,,,,,,,,,,,,0,94,94,10,1,,,,,,,,,,,,,,,,,,,,,,,,
,,,,,,,,,,,,l,0.38978,Correct!,,,,,,t2.png,t5.png,3,0.0000131,19,female,2020-11-22_09h15.01.581,torte-2b,2020.1.3,Win32,60,13348,,,,,,,,,,,,,,,,,,,,,,,,,,,,,,,,,,,,,0,95,95,104,1,,,,,,,,,,,,,,,,,,,,,,,,
,,,,,,,,,,,,a,0.304485,Correct!,,,,,,t2.png,t2.png,0,0.98115,19,female,2020-11-22_09h15.01.581,torte-2b,2020.1.3,Win32,60,13348,,,,,,,,,,,,,,,,,,,,,,,,,,,,,,,,,,,,,0,96,96,57,1,,,,,,,,,,,,,,,,,,,,,,,,
,,,,,,,,,,,,a,0.35582,Incorrect,,,,,,t1.png,t3.png,2,0.056466,19,female,2020-11-22_09h15.01.581,torte-2b,2020.1.3,Win32,60,13348,,,,,,,,,,,,,,,,,,,,,,,,,,,,,,,,,,,,,0,97,97,60,1,,,,,,,,,,,,,,,,,,,,,,,,
,,,,,,,,,,,,a,0.55209,Correct!,,,,,,t2.png,t2.png,0,0.98115,19,female,2020-11-22_09h15.01.581,torte-2b,2020.1.3,Win32,60,13348,,,,,,,,,,,,,,,,,,,,,,,,,,,,,,,,,,,,,0,98,98,7,1,,,,,,,,,,,,,,,,,,,,,,,,
,,,,,,,,,,,,a,0.316855,Correct!,,,,,,t3.png,t4.png,1,0.90855,19,female,2020-11-22_09h15.01.581,torte-2b,2020.1.3,Win32,60,13348,,,,,,,,,,,,,,,,,,,,,,,,,,,,,,,,,,,,,0,99,99,96,1,,,,,,,,,,,,,,,,,,,,,,,,
,,,,,,,,,,,,a,0.485325,Correct!,,,,,,t4.png,t3.png,1,0.90855,19,female,2020-11-22_09h15.01.581,torte-2b,2020.1.3,Win32,60,13348,,,,,,,,,,,,,,,,,,,,,,,,,,,,,,,,,,,,,0,100,100,75,1,,,,,,,,,,,,,,,,,,,,,,,,
,,,,,,,,,,,,l,0.425925,Correct!,,,,,,t3.png,t5.png,2,0.056466,19,female,2020-11-22_09h15.01.581,torte-2b,2020.1.3,Win32,60,13348,,,,,,,,,,,,,,,,,,,,,,,,,,,,,,,,,,,,,0,101,101,6,1,,,,,,,,,,,,,,,,,,,,,,,,
,,,,,,,,,,,,a,0.35071,Incorrect,,,,,,t3.png,t1.png,2,0.056466,19,female,2020-11-22_09h15.01.581,torte-2b,2020.1.3,Win32,60,13348,,,,,,,,,,,,,,,,,,,,,,,,,,,,,,,,,,,,,0,102,102,29,1,,,,,,,,,,,,,,,,,,,,,,,,
,,,,,,,,,,,,a,0.74019,Correct!,,,,,,t1.png,t2.png,1,0.90025,19,female,2020-11-22_09h15.01.581,torte-2b,2020.1.3,Win32,60,13348,,,,,,,,,,,,,,,,,,,,,,,,,,,,,,,,,,,,,0,103,103,33,1,,,,,,,,,,,,,,,,,,,,,,,,
,,,,,,,,,,,,l,0.302235,Incorrect,,,,,,t2.png,t2.png,0,0.98115,19,female,2020-11-22_09h15.01.581,torte-2b,2020.1.3,Win32,60,13348,,,,,,,,,,,,,,,,,,,,,,,,,,,,,,,,,,,,,0,104,104,2,1,,,,,,,,,,,,,,,,,,,,,,,,
,,,,,,,,,,,,a,0.552085,Incorrect,,,,,,t1.png,t3.png,2,0.056466,19,female,2020-11-22_09h15.01.581,torte-2b,2020.1.3,Win32,60,13348,,,,,,,,,,,,,,,,,,,,,,,,,,,,,,,,,,,,,0,105,105,63,1,,,,,,,,,,,,,,,,,,,,,,,,
,,,,,,,,,,,,l,0.411195,Correct!,,,,,,t2.png,t5.png,3,0.0000131,19,female,2020-11-22_09h15.01.581,torte-2b,2020.1.3,Win32,60,13348,,,,,,,,,,,,,,,,,,,,,,,,,,,,,,,,,,,,,0,106,106,8,1,,,,,,,,,,,,,,,,,,,,,,,,
,,,,,,,,,,,,a,0.340415,Incorrect,,,,,,t5.png,t3.png,2,0.056466,19,female,2020-11-22_09h15.01.581,torte-2b,2020.1.3,Win32,60,13348,,,,,,,,,,,,,,,,,,,,,,,,,,,,,,,,,,,,,0,107,107,56,1,,,,,,,,,,,,,,,,,,,,,,,,
,,,,,,,,,,,,l,0.6503,Incorrect,,,,,,t3.png,t4.png,1,0.90855,19,female,2020-11-22_09h15.01.581,torte-2b,2020.1.3,Win32,60,13348,,,,,,,,,,,,,,,,,,,,,,,,,,,,,,,,,,,,,0,108,108,84,1,,,,,,,,,,,,,,,,,,,,,,,,
,,,,,,,,,,,,l,0.663205,Incorrect,,,,,,t3.png,t2.png,1,0.909,19,female,2020-11-22_09h15.01.581,torte-2b,2020.1.3,Win32,60,13348,,,,,,,,,,,,,,,,,,,,,,,,,,,,,,,,,,,,,0,109,109,3,1,,,,,,,,,,,,,,,,,,,,,,,,
,,,,,,,,,,,,l,0.593195,Incorrect,,,,,,t2.png,t1.png,1,0.90025,19,female,2020-11-22_09h15.01.581,torte-2b,2020.1.3,Win32,60,13348,,,,,,,,,,,,,,,,,,,,,,,,,,,,,,,,,,,,,0,110,110,4,1,,,,,,,,,,,,,,,,,,,,,,,,
,,,,,,,,,,,,l,0.47363,Correct!,,,,,,t5.png,t1.png,4,9.55E-11,19,female,2020-11-22_09h15.01.581,torte-2b,2020.1.3,Win32,60,13348,,,,,,,,,,,,,,,,,,,,,,,,,,,,,,,,,,,,,0,111,111,22,1,,,,,,,,,,,,,,,,,,,,,,,,
,,,,,,,,,,,,l,0.47674,Correct!,,,,,,t3.png,t1.png,2,0.0565,19,female,2020-11-22_09h15.01.581,torte-2b,2020.1.3,Win32,60,13348,,,,,,,,,,,,,,,,,,,,,,,,,,,,,,,,,,,,,0,112,112,31,1,,,,,,,,,,,,,,,,,,,,,,,,
,,,,,,,,,,,,l,0.35215,Incorrect,,,,,,t2.png,t1.png,1,0.90025,19,female,2020-11-22_09h15.01.581,torte-2b,2020.1.3,Win32,60,13348,,,,,,,,,,,,,,,,,,,,,,,,,,,,,,,,,,,,,0,113,113,19,1,,,,,,,,,,,,,,,,,,,,,,,,
,,,,,,,,,,,,l,0.40309,Correct!,,,,,,t1.png,t5.png,4,9.55E-11,19,female,2020-11-22_09h15.01.581,torte-2b,2020.1.3,Win32,60,13348,,,,,,,,,,,,,,,,,,,,,,,,,,,,,,,,,,,,,0,114,114,16,1,,,,,,,,,,,,,,,,,,,,,,,,
,,,,,,,,,,,,l,0.719875,Correct!,,,,,,t1.png,t4.png,3,0.0000131,19,female,2020-11-22_09h15.01.581,torte-2b,2020.1.3,Win32,60,13348,,,,,,,,,,,,,,,,,,,,,,,,,,,,,,,,,,,,,0,115,115,17,1,,,,,,,,,,,,,,,,,,,,,,,,
,,,,,,,,,,,,a,0.33927,Incorrect,,,,,,t4.png,t2.png,2,0.059078,19,female,2020-11-22_09h15.01.581,torte-2b,2020.1.3,Win32,60,13348,,,,,,,,,,,,,,,,,,,,,,,,,,,,,,,,,,,,,0,116,116,86,1,,,,,,,,,,,,,,,,,,,,,,,,
,,,,,,,,,,,,l,0.40197,Correct!,,,,,,t1.png,t5.png,4,9.55E-11,19,female,2020-11-22_09h15.01.581,torte-2b,2020.1.3,Win32,60,13348,,,,,,,,,,,,,,,,,,,,,,,,,,,,,,,,,,,,,0,117,117,55,1,,,,,,,,,,,,,,,,,,,,,,,,
,,,,,,,,,,,,a,0.44796,Incorrect,,,,,,t4.png,t2.png,2,0.059078,19,female,2020-11-22_09h15.01.581,torte-2b,2020.1.3,Win32,60,13348,,,,,,,,,,,,,,,,,,,,,,,,,,,,,,,,,,,,,0,118,118,110,1,,,,,,,,,,,,,,,,,,,,,,,,
,,,,,,,,,,,,a,0.369485,Incorrect,,,,,,t1.png,t4.png,3,0.0000131,19,female,2020-11-22_09h15.01.581,torte-2b,2020.1.3,Win32,60,13348,,,,,,,,,,,,,,,,,,,,,,,,,,,,,,,,,,,,,0,119,119,50,1,,,,,,,,,,,,,,,,,,,,,,,,
,,,,,,,,,,,,,,,,,,,,,,,,19,female,2020-11-22_09h15.01.581,torte-2b,2020.1.3,Win32,60,13348,l,0.51238,,,,,,,,,,,,,,,,,,,,,,,,,,,,,,,,,,,,,,,,131,113,1,0,0,s2,70,69,1,0,0,t1,158,-100,1,0,0,proceed,space,2.260505,space,2.30212,space,1.16758
