key_resp_8.keys,key_resp_8.rt,key_resp_9.keys,key_resp_9.rt,key_resp_10.keys,key_resp_10.rt,key_resp_11.keys,key_resp_11.rt,key_resp_2.keys,key_resp_2.rt,key_resp_3.keys,key_resp_3.rt,key_resp.keys,Feedback,train.thisRepN,train.thisTrialN,train.thisN,train.thisIndex,train.ran,torta_sx,torta_dx,difference,probability,age,gender,date,expName,psychopyVersion,OS,frameRate,participant,key_resp.rt,key_resp_15.keys,key_resp_15.rt,key_resp_6.keys,key_resp_6.rt,test1.thisRepN,test1.thisTrialN,test1.thisN,test1.thisIndex,test1.ran,key_resp_4.keys,key_resp_4.rt,key_resp_5.keys,back1.thisRepN,back1.thisTrialN,back1.thisN,back1.thisIndex,back1.ran,letter,key_resp_5.rt,back2.thisRepN,back2.thisTrialN,back2.thisN,back2.thisIndex,back2.ran,back3.thisRepN,back3.thisTrialN,back3.thisN,back3.thisIndex,back3.ran,back4.thisRepN,back4.thisTrialN,back4.thisN,back4.thisIndex,back4.ran,key_resp_7.keys,key_resp_7.rt,test2.thisRepN,test2.thisTrialN,test2.thisN,test2.thisIndex,test2.ran,mouse.x,mouse.y,mouse.leftButton,mouse.midButton,mouse.rightButton,mouse.clicked_name,mouse_2.x,mouse_2.y,mouse_2.leftButton,mouse_2.midButton,mouse_2.rightButton,mouse_2.clicked_name,mouse_3.x,mouse_3.y,mouse_3.leftButton,mouse_3.midButton,mouse_3.rightButton,mouse_3.clicked_name,key_resp_12.keys,key_resp_12.rt,key_resp_13.keys,key_resp_13.rt,key_resp_14.keys,key_resp_14.rt
space,17.12043,space,0.68656,space,1.263925,space,3.667995,space,15.395245,space,31.041985,,Too slow :(,0,0,0,106,1,t2.png,t3.png,1,0.90855,20,Female,2020-09-18_16h09.40.793,torte-2b,2020.1.3,MacIntel,60,13389,,,,,,,,,,,,,,,,,,,,,,,,,,,,,,,,,,,,,,,,,,,,,,,,,,,,,,,,,,,,,,,,,,
,,,,,,,,,,,,l,Incorrect,0,1,1,64,1,t1.png,t1.png,0,0.978,20,Female,2020-09-18_16h09.40.793,torte-2b,2020.1.3,MacIntel,60,13389,1.08826,,,,,,,,,,,,,,,,,,,,,,,,,,,,,,,,,,,,,,,,,,,,,,,,,,,,,,,,,,,,,,,,,
,,,,,,,,,,,,a,Correct!,0,2,2,71,1,t5.png,t5.png,0,0.97829,20,Female,2020-09-18_16h09.40.793,torte-2b,2020.1.3,MacIntel,60,13389,1.747765,,,,,,,,,,,,,,,,,,,,,,,,,,,,,,,,,,,,,,,,,,,,,,,,,,,,,,,,,,,,,,,,,
,,,,,,,,,,,,a,Correct!,0,3,3,41,1,t3.png,t2.png,1,0.90855,20,Female,2020-09-18_16h09.40.793,torte-2b,2020.1.3,MacIntel,60,13389,1.326165,,,,,,,,,,,,,,,,,,,,,,,,,,,,,,,,,,,,,,,,,,,,,,,,,,,,,,,,,,,,,,,,,
,,,,,,,,,,,,a,Correct!,0,4,4,112,1,t1.png,t1.png,0,0.97829,20,Female,2020-09-18_16h09.40.793,torte-2b,2020.1.3,MacIntel,60,13389,1.20805,,,,,,,,,,,,,,,,,,,,,,,,,,,,,,,,,,,,,,,,,,,,,,,,,,,,,,,,,,,,,,,,,
,,,,,,,,,,,,a,Correct!,0,5,5,78,1,t1.png,t1.png,0,0.978,20,Female,2020-09-18_16h09.40.793,torte-2b,2020.1.3,MacIntel,60,13389,0.76546,,,,,,,,,,,,,,,,,,,,,,,,,,,,,,,,,,,,,,,,,,,,,,,,,,,,,,,,,,,,,,,,,
,,,,,,,,,,,,l,Correct!,0,6,6,61,1,t1.png,t4.png,3,0.0000131,20,Female,2020-09-18_16h09.40.793,torte-2b,2020.1.3,MacIntel,60,13389,0.737105,,,,,,,,,,,,,,,,,,,,,,,,,,,,,,,,,,,,,,,,,,,,,,,,,,,,,,,,,,,,,,,,,
,,,,,,,,,,,,a,Incorrect,0,7,7,58,1,t5.png,t4.png,1,0.90025,20,Female,2020-09-18_16h09.40.793,torte-2b,2020.1.3,MacIntel,60,13389,1.24248,,,,,,,,,,,,,,,,,,,,,,,,,,,,,,,,,,,,,,,,,,,,,,,,,,,,,,,,,,,,,,,,,
,,,,,,,,,,,,l,Correct!,0,8,8,1,1,t2.png,t4.png,2,0.059078,20,Female,2020-09-18_16h09.40.793,torte-2b,2020.1.3,MacIntel,60,13389,0.79069,,,,,,,,,,,,,,,,,,,,,,,,,,,,,,,,,,,,,,,,,,,,,,,,,,,,,,,,,,,,,,,,,
,,,,,,,,,,,,l,Incorrect,0,9,9,114,1,t2.png,t3.png,1,0.90855,20,Female,2020-09-18_16h09.40.793,torte-2b,2020.1.3,MacIntel,60,13389,1.28717,,,,,,,,,,,,,,,,,,,,,,,,,,,,,,,,,,,,,,,,,,,,,,,,,,,,,,,,,,,,,,,,,
,,,,,,,,,,,,l,Incorrect,0,10,10,32,1,t4.png,t5.png,1,0.90025,20,Female,2020-09-18_16h09.40.793,torte-2b,2020.1.3,MacIntel,60,13389,0.987375,,,,,,,,,,,,,,,,,,,,,,,,,,,,,,,,,,,,,,,,,,,,,,,,,,,,,,,,,,,,,,,,,
,,,,,,,,,,,,a,Correct!,0,11,11,113,1,t5.png,t4.png,1,0.9,20,Female,2020-09-18_16h09.40.793,torte-2b,2020.1.3,MacIntel,60,13389,1.51796,,,,,,,,,,,,,,,,,,,,,,,,,,,,,,,,,,,,,,,,,,,,,,,,,,,,,,,,,,,,,,,,,
,,,,,,,,,,,,,Too slow :(,0,12,12,118,1,t5.png,t5.png,0,0.978,20,Female,2020-09-18_16h09.40.793,torte-2b,2020.1.3,MacIntel,60,13389,,,,,,,,,,,,,,,,,,,,,,,,,,,,,,,,,,,,,,,,,,,,,,,,,,,,,,,,,,,,,,,,,,
,,,,,,,,,,,,a,Incorrect,0,13,13,47,1,t4.png,t2.png,2,0.059078,20,Female,2020-09-18_16h09.40.793,torte-2b,2020.1.3,MacIntel,60,13389,0.706145,,,,,,,,,,,,,,,,,,,,,,,,,,,,,,,,,,,,,,,,,,,,,,,,,,,,,,,,,,,,,,,,,
,,,,,,,,,,,,a,Correct!,0,14,14,8,1,t3.png,t2.png,1,0.90855,20,Female,2020-09-18_16h09.40.793,torte-2b,2020.1.3,MacIntel,60,13389,0.96422,,,,,,,,,,,,,,,,,,,,,,,,,,,,,,,,,,,,,,,,,,,,,,,,,,,,,,,,,,,,,,,,,
,,,,,,,,,,,,a,Correct!,0,15,15,75,1,t1.png,t1.png,0,0.97829,20,Female,2020-09-18_16h09.40.793,torte-2b,2020.1.3,MacIntel,60,13389,1.384345,,,,,,,,,,,,,,,,,,,,,,,,,,,,,,,,,,,,,,,,,,,,,,,,,,,,,,,,,,,,,,,,,
,,,,,,,,,,,,l,Correct!,0,16,16,11,1,t1.png,t4.png,3,0.0000131,20,Female,2020-09-18_16h09.40.793,torte-2b,2020.1.3,MacIntel,60,13389,0.994685,,,,,,,,,,,,,,,,,,,,,,,,,,,,,,,,,,,,,,,,,,,,,,,,,,,,,,,,,,,,,,,,,
,,,,,,,,,,,,a,Incorrect,0,17,17,55,1,t2.png,t4.png,2,0.059078,20,Female,2020-09-18_16h09.40.793,torte-2b,2020.1.3,MacIntel,60,13389,1.27329,,,,,,,,,,,,,,,,,,,,,,,,,,,,,,,,,,,,,,,,,,,,,,,,,,,,,,,,,,,,,,,,,
,,,,,,,,,,,,a,Incorrect,0,18,18,73,1,t4.png,t2.png,2,0.059078,20,Female,2020-09-18_16h09.40.793,torte-2b,2020.1.3,MacIntel,60,13389,0.69322,,,,,,,,,,,,,,,,,,,,,,,,,,,,,,,,,,,,,,,,,,,,,,,,,,,,,,,,,,,,,,,,,
,,,,,,,,,,,,a,Correct!,0,19,19,34,1,t5.png,t4.png,1,0.9,20,Female,2020-09-18_16h09.40.793,torte-2b,2020.1.3,MacIntel,60,13389,0.940495,,,,,,,,,,,,,,,,,,,,,,,,,,,,,,,,,,,,,,,,,,,,,,,,,,,,,,,,,,,,,,,,,
,,,,,,,,,,,,l,Incorrect,0,20,20,28,1,t2.png,t3.png,1,0.909,20,Female,2020-09-18_16h09.40.793,torte-2b,2020.1.3,MacIntel,60,13389,0.985825,,,,,,,,,,,,,,,,,,,,,,,,,,,,,,,,,,,,,,,,,,,,,,,,,,,,,,,,,,,,,,,,,
,,,,,,,,,,,,l,Incorrect,0,21,21,101,1,t4.png,t5.png,1,0.90025,20,Female,2020-09-18_16h09.40.793,torte-2b,2020.1.3,MacIntel,60,13389,0.941305,,,,,,,,,,,,,,,,,,,,,,,,,,,,,,,,,,,,,,,,,,,,,,,,,,,,,,,,,,,,,,,,,
,,,,,,,,,,,,l,Correct!,0,22,22,17,1,t1.png,t4.png,3,0.0000131,20,Female,2020-09-18_16h09.40.793,torte-2b,2020.1.3,MacIntel,60,13389,1.927845,,,,,,,,,,,,,,,,,,,,,,,,,,,,,,,,,,,,,,,,,,,,,,,,,,,,,,,,,,,,,,,,,
,,,,,,,,,,,,l,Correct!,0,23,23,52,1,t2.png,t4.png,2,0.059078,20,Female,2020-09-18_16h09.40.793,torte-2b,2020.1.3,MacIntel,60,13389,0.99028,,,,,,,,,,,,,,,,,,,,,,,,,,,,,,,,,,,,,,,,,,,,,,,,,,,,,,,,,,,,,,,,,
,,,,,,,,,,,,a,Correct!,0,24,24,96,1,t1.png,t1.png,0,0.97829,20,Female,2020-09-18_16h09.40.793,torte-2b,2020.1.3,MacIntel,60,13389,1.19479,,,,,,,,,,,,,,,,,,,,,,,,,,,,,,,,,,,,,,,,,,,,,,,,,,,,,,,,,,,,,,,,,
,,,,,,,,,,,,a,Correct!,0,25,25,21,1,t5.png,t4.png,1,0.90025,20,Female,2020-09-18_16h09.40.793,torte-2b,2020.1.3,MacIntel,60,13389,0.732195,,,,,,,,,,,,,,,,,,,,,,,,,,,,,,,,,,,,,,,,,,,,,,,,,,,,,,,,,,,,,,,,,
,,,,,,,,,,,,a,Correct!,0,26,26,105,1,t3.png,t2.png,1,0.90855,20,Female,2020-09-18_16h09.40.793,torte-2b,2020.1.3,MacIntel,60,13389,0.85797,,,,,,,,,,,,,,,,,,,,,,,,,,,,,,,,,,,,,,,,,,,,,,,,,,,,,,,,,,,,,,,,,
,,,,,,,,,,,,l,Correct!,0,27,27,14,1,t2.png,t4.png,2,0.059078,20,Female,2020-09-18_16h09.40.793,torte-2b,2020.1.3,MacIntel,60,13389,0.67463,,,,,,,,,,,,,,,,,,,,,,,,,,,,,,,,,,,,,,,,,,,,,,,,,,,,,,,,,,,,,,,,,
,,,,,,,,,,,,a,Correct!,0,28,28,23,1,t5.png,t4.png,1,0.90025,20,Female,2020-09-18_16h09.40.793,torte-2b,2020.1.3,MacIntel,60,13389,0.82443,,,,,,,,,,,,,,,,,,,,,,,,,,,,,,,,,,,,,,,,,,,,,,,,,,,,,,,,,,,,,,,,,
,,,,,,,,,,,,l,Correct!,0,29,29,60,1,t2.png,t4.png,2,0.059078,20,Female,2020-09-18_16h09.40.793,torte-2b,2020.1.3,MacIntel,60,13389,0.73976,,,,,,,,,,,,,,,,,,,,,,,,,,,,,,,,,,,,,,,,,,,,,,,,,,,,,,,,,,,,,,,,,
,,,,,,,,,,,,l,Incorrect,0,30,30,65,1,t4.png,t5.png,1,0.90025,20,Female,2020-09-18_16h09.40.793,torte-2b,2020.1.3,MacIntel,60,13389,0.708875,,,,,,,,,,,,,,,,,,,,,,,,,,,,,,,,,,,,,,,,,,,,,,,,,,,,,,,,,,,,,,,,,
,,,,,,,,,,,,l,Incorrect,0,31,31,20,1,t2.png,t3.png,1,0.90855,20,Female,2020-09-18_16h09.40.793,torte-2b,2020.1.3,MacIntel,60,13389,0.78139,,,,,,,,,,,,,,,,,,,,,,,,,,,,,,,,,,,,,,,,,,,,,,,,,,,,,,,,,,,,,,,,,
,,,,,,,,,,,,a,Incorrect,0,32,32,72,1,t4.png,t2.png,2,0.059078,20,Female,2020-09-18_16h09.40.793,torte-2b,2020.1.3,MacIntel,60,13389,0.623565,,,,,,,,,,,,,,,,,,,,,,,,,,,,,,,,,,,,,,,,,,,,,,,,,,,,,,,,,,,,,,,,,
,,,,,,,,,,,,l,Correct!,0,33,33,37,1,t1.png,t4.png,3,0.0000131,20,Female,2020-09-18_16h09.40.793,torte-2b,2020.1.3,MacIntel,60,13389,0.547085,,,,,,,,,,,,,,,,,,,,,,,,,,,,,,,,,,,,,,,,,,,,,,,,,,,,,,,,,,,,,,,,,
,,,,,,,,,,,,l,Incorrect,0,34,34,62,1,t5.png,t5.png,0,0.978,20,Female,2020-09-18_16h09.40.793,torte-2b,2020.1.3,MacIntel,60,13389,1.777275,,,,,,,,,,,,,,,,,,,,,,,,,,,,,,,,,,,,,,,,,,,,,,,,,,,,,,,,,,,,,,,,,
,,,,,,,,,,,,a,Incorrect,0,35,35,12,1,t5.png,t1.png,4,9.55E-11,20,Female,2020-09-18_16h09.40.793,torte-2b,2020.1.3,MacIntel,60,13389,0.62571,,,,,,,,,,,,,,,,,,,,,,,,,,,,,,,,,,,,,,,,,,,,,,,,,,,,,,,,,,,,,,,,,
,,,,,,,,,,,,a,Correct!,0,36,36,85,1,t3.png,t2.png,1,0.90855,20,Female,2020-09-18_16h09.40.793,torte-2b,2020.1.3,MacIntel,60,13389,0.90607,,,,,,,,,,,,,,,,,,,,,,,,,,,,,,,,,,,,,,,,,,,,,,,,,,,,,,,,,,,,,,,,,
,,,,,,,,,,,,a,Incorrect,0,37,37,111,1,t5.png,t1.png,4,9.55E-11,20,Female,2020-09-18_16h09.40.793,torte-2b,2020.1.3,MacIntel,60,13389,0.724285,,,,,,,,,,,,,,,,,,,,,,,,,,,,,,,,,,,,,,,,,,,,,,,,,,,,,,,,,,,,,,,,,
,,,,,,,,,,,,l,Incorrect,0,38,38,25,1,t5.png,t5.png,0,0.97829,20,Female,2020-09-18_16h09.40.793,torte-2b,2020.1.3,MacIntel,60,13389,1.017505,,,,,,,,,,,,,,,,,,,,,,,,,,,,,,,,,,,,,,,,,,,,,,,,,,,,,,,,,,,,,,,,,
,,,,,,,,,,,,a,Correct!,0,39,39,45,1,t3.png,t2.png,1,0.90855,20,Female,2020-09-18_16h09.40.793,torte-2b,2020.1.3,MacIntel,60,13389,0.526005,,,,,,,,,,,,,,,,,,,,,,,,,,,,,,,,,,,,,,,,,,,,,,,,,,,,,,,,,,,,,,,,,
,,,,,,,,,,,,a,Incorrect,0,40,40,27,1,t3.png,t1.png,2,0.0565,20,Female,2020-09-18_16h09.40.793,torte-2b,2020.1.3,MacIntel,60,13389,0.618185,,,,,,,,,,,,,,,,,,,,,,,,,,,,,,,,,,,,,,,,,,,,,,,,,,,,,,,,,,,,,,,,,
,,,,,,,,,,,,a,Incorrect,0,41,41,82,1,t5.png,t1.png,4,9.55E-11,20,Female,2020-09-18_16h09.40.793,torte-2b,2020.1.3,MacIntel,60,13389,0.483,,,,,,,,,,,,,,,,,,,,,,,,,,,,,,,,,,,,,,,,,,,,,,,,,,,,,,,,,,,,,,,,,
,,,,,,,,,,,,,Too slow :(,0,42,42,90,1,t1.png,t5.png,4,9.55E-11,20,Female,2020-09-18_16h09.40.793,torte-2b,2020.1.3,MacIntel,60,13389,,,,,,,,,,,,,,,,,,,,,,,,,,,,,,,,,,,,,,,,,,,,,,,,,,,,,,,,,,,,,,,,,,
,,,,,,,,,,,,l,Incorrect,0,43,43,66,1,t4.png,t5.png,1,0.9,20,Female,2020-09-18_16h09.40.793,torte-2b,2020.1.3,MacIntel,60,13389,0.86538,,,,,,,,,,,,,,,,,,,,,,,,,,,,,,,,,,,,,,,,,,,,,,,,,,,,,,,,,,,,,,,,,
,,,,,,,,,,,,a,Correct!,0,44,44,59,1,t5.png,t4.png,1,0.9,20,Female,2020-09-18_16h09.40.793,torte-2b,2020.1.3,MacIntel,60,13389,0.921715,,,,,,,,,,,,,,,,,,,,,,,,,,,,,,,,,,,,,,,,,,,,,,,,,,,,,,,,,,,,,,,,,
,,,,,,,,,,,,l,Incorrect,0,45,45,22,1,t2.png,t3.png,1,0.90855,20,Female,2020-09-18_16h09.40.793,torte-2b,2020.1.3,MacIntel,60,13389,0.781495,,,,,,,,,,,,,,,,,,,,,,,,,,,,,,,,,,,,,,,,,,,,,,,,,,,,,,,,,,,,,,,,,
,,,,,,,,,,,,a,Correct!,0,46,46,109,1,t5.png,t5.png,0,0.97829,20,Female,2020-09-18_16h09.40.793,torte-2b,2020.1.3,MacIntel,60,13389,0.874635,,,,,,,,,,,,,,,,,,,,,,,,,,,,,,,,,,,,,,,,,,,,,,,,,,,,,,,,,,,,,,,,,
,,,,,,,,,,,,a,Correct!,0,47,47,42,1,t5.png,t4.png,1,0.90025,20,Female,2020-09-18_16h09.40.793,torte-2b,2020.1.3,MacIntel,60,13389,0.699305,,,,,,,,,,,,,,,,,,,,,,,,,,,,,,,,,,,,,,,,,,,,,,,,,,,,,,,,,,,,,,,,,
,,,,,,,,,,,,a,Correct!,0,48,48,79,1,t3.png,t2.png,1,0.909,20,Female,2020-09-18_16h09.40.793,torte-2b,2020.1.3,MacIntel,60,13389,0.586005,,,,,,,,,,,,,,,,,,,,,,,,,,,,,,,,,,,,,,,,,,,,,,,,,,,,,,,,,,,,,,,,,
,,,,,,,,,,,,l,Incorrect,0,49,49,92,1,t2.png,t3.png,1,0.909,20,Female,2020-09-18_16h09.40.793,torte-2b,2020.1.3,MacIntel,60,13389,0.718955,,,,,,,,,,,,,,,,,,,,,,,,,,,,,,,,,,,,,,,,,,,,,,,,,,,,,,,,,,,,,,,,,
,,,,,,,,,,,,a,Incorrect,0,50,50,30,1,t3.png,t1.png,2,0.056466,20,Female,2020-09-18_16h09.40.793,torte-2b,2020.1.3,MacIntel,60,13389,2.20498,,,,,,,,,,,,,,,,,,,,,,,,,,,,,,,,,,,,,,,,,,,,,,,,,,,,,,,,,,,,,,,,,
,,,,,,,,,,,,l,Correct!,0,51,51,117,1,t1.png,t5.png,4,9.55E-11,20,Female,2020-09-18_16h09.40.793,torte-2b,2020.1.3,MacIntel,60,13389,0.518935,,,,,,,,,,,,,,,,,,,,,,,,,,,,,,,,,,,,,,,,,,,,,,,,,,,,,,,,,,,,,,,,,
,,,,,,,,,,,,a,Correct!,0,52,52,16,1,t5.png,t4.png,1,0.9,20,Female,2020-09-18_16h09.40.793,torte-2b,2020.1.3,MacIntel,60,13389,0.684645,,,,,,,,,,,,,,,,,,,,,,,,,,,,,,,,,,,,,,,,,,,,,,,,,,,,,,,,,,,,,,,,,
,,,,,,,,,,,,a,Incorrect,0,53,53,50,1,t5.png,t1.png,4,9.55E-11,20,Female,2020-09-18_16h09.40.793,torte-2b,2020.1.3,MacIntel,60,13389,0.561585,,,,,,,,,,,,,,,,,,,,,,,,,,,,,,,,,,,,,,,,,,,,,,,,,,,,,,,,,,,,,,,,,
,,,,,,,,,,,,a,Correct!,0,54,54,76,1,t3.png,t2.png,1,0.90855,20,Female,2020-09-18_16h09.40.793,torte-2b,2020.1.3,MacIntel,60,13389,0.68296,,,,,,,,,,,,,,,,,,,,,,,,,,,,,,,,,,,,,,,,,,,,,,,,,,,,,,,,,,,,,,,,,
,,,,,,,,,,,,a,Incorrect,0,55,55,43,1,t4.png,t2.png,2,0.059078,20,Female,2020-09-18_16h09.40.793,torte-2b,2020.1.3,MacIntel,60,13389,0.441585,,,,,,,,,,,,,,,,,,,,,,,,,,,,,,,,,,,,,,,,,,,,,,,,,,,,,,,,,,,,,,,,,
,,,,,,,,,,,,l,Correct!,0,56,56,91,1,t1.png,t4.png,3,0.0000131,20,Female,2020-09-18_16h09.40.793,torte-2b,2020.1.3,MacIntel,60,13389,0.417525,,,,,,,,,,,,,,,,,,,,,,,,,,,,,,,,,,,,,,,,,,,,,,,,,,,,,,,,,,,,,,,,,
,,,,,,,,,,,,a,Incorrect,0,57,57,88,1,t3.png,t1.png,2,0.056466,20,Female,2020-09-18_16h09.40.793,torte-2b,2020.1.3,MacIntel,60,13389,0.46552,,,,,,,,,,,,,,,,,,,,,,,,,,,,,,,,,,,,,,,,,,,,,,,,,,,,,,,,,,,,,,,,,
,,,,,,,,,,,,l,Correct!,0,58,58,63,1,t2.png,t3.png,1,0.909,20,Female,2020-09-18_16h09.40.793,torte-2b,2020.1.3,MacIntel,60,13389,0.497525,,,,,,,,,,,,,,,,,,,,,,,,,,,,,,,,,,,,,,,,,,,,,,,,,,,,,,,,,,,,,,,,,
,,,,,,,,,,,,l,Incorrect,0,59,59,44,1,t2.png,t3.png,1,0.909,20,Female,2020-09-18_16h09.40.793,torte-2b,2020.1.3,MacIntel,60,13389,0.755515,,,,,,,,,,,,,,,,,,,,,,,,,,,,,,,,,,,,,,,,,,,,,,,,,,,,,,,,,,,,,,,,,
,,,,,,,,,,,,l,Correct!,0,60,60,98,1,t2.png,t4.png,2,0.0591,20,Female,2020-09-18_16h09.40.793,torte-2b,2020.1.3,MacIntel,60,13389,0.6663,,,,,,,,,,,,,,,,,,,,,,,,,,,,,,,,,,,,,,,,,,,,,,,,,,,,,,,,,,,,,,,,,
,,,,,,,,,,,,l,Correct!,0,61,61,80,1,t1.png,t4.png,3,0.0000131,20,Female,2020-09-18_16h09.40.793,torte-2b,2020.1.3,MacIntel,60,13389,0.671315,,,,,,,,,,,,,,,,,,,,,,,,,,,,,,,,,,,,,,,,,,,,,,,,,,,,,,,,,,,,,,,,,
,,,,,,,,,,,,a,Correct!,0,62,62,48,1,t5.png,t5.png,0,0.97829,20,Female,2020-09-18_16h09.40.793,torte-2b,2020.1.3,MacIntel,60,13389,0.91683,,,,,,,,,,,,,,,,,,,,,,,,,,,,,,,,,,,,,,,,,,,,,,,,,,,,,,,,,,,,,,,,,
,,,,,,,,,,,,a,Incorrect,0,63,63,108,1,t5.png,t1.png,4,9.55E-11,20,Female,2020-09-18_16h09.40.793,torte-2b,2020.1.3,MacIntel,60,13389,0.484155,,,,,,,,,,,,,,,,,,,,,,,,,,,,,,,,,,,,,,,,,,,,,,,,,,,,,,,,,,,,,,,,,
,,,,,,,,,,,,a,Correct!,0,64,64,81,1,t1.png,t1.png,0,0.97829,20,Female,2020-09-18_16h09.40.793,torte-2b,2020.1.3,MacIntel,60,13389,0.82117,,,,,,,,,,,,,,,,,,,,,,,,,,,,,,,,,,,,,,,,,,,,,,,,,,,,,,,,,,,,,,,,,
,,,,,,,,,,,,l,Correct!,0,65,65,57,1,t2.png,t4.png,2,0.059078,20,Female,2020-09-18_16h09.40.793,torte-2b,2020.1.3,MacIntel,60,13389,0.524345,,,,,,,,,,,,,,,,,,,,,,,,,,,,,,,,,,,,,,,,,,,,,,,,,,,,,,,,,,,,,,,,,
,,,,,,,,,,,,a,Incorrect,0,66,66,0,1,t5.png,t1.png,4,9.55E-11,20,Female,2020-09-18_16h09.40.793,torte-2b,2020.1.3,MacIntel,60,13389,0.421325,,,,,,,,,,,,,,,,,,,,,,,,,,,,,,,,,,,,,,,,,,,,,,,,,,,,,,,,,,,,,,,,,
,,,,,,,,,,,,l,Incorrect,0,67,67,18,1,t4.png,t5.png,1,0.90025,20,Female,2020-09-18_16h09.40.793,torte-2b,2020.1.3,MacIntel,60,13389,0.5385,,,,,,,,,,,,,,,,,,,,,,,,,,,,,,,,,,,,,,,,,,,,,,,,,,,,,,,,,,,,,,,,,
,,,,,,,,,,,,l,Correct!,0,68,68,3,1,t1.png,t5.png,4,9.55E-11,20,Female,2020-09-18_16h09.40.793,torte-2b,2020.1.3,MacIntel,60,13389,0.636195,,,,,,,,,,,,,,,,,,,,,,,,,,,,,,,,,,,,,,,,,,,,,,,,,,,,,,,,,,,,,,,,,
,,,,,,,,,,,,a,Correct!,0,69,69,39,1,t3.png,t2.png,1,0.90855,20,Female,2020-09-18_16h09.40.793,torte-2b,2020.1.3,MacIntel,60,13389,0.489845,,,,,,,,,,,,,,,,,,,,,,,,,,,,,,,,,,,,,,,,,,,,,,,,,,,,,,,,,,,,,,,,,
,,,,,,,,,,,,l,Correct!,0,70,70,35,1,t1.png,t4.png,3,0.0000131,20,Female,2020-09-18_16h09.40.793,torte-2b,2020.1.3,MacIntel,60,13389,0.46806,,,,,,,,,,,,,,,,,,,,,,,,,,,,,,,,,,,,,,,,,,,,,,,,,,,,,,,,,,,,,,,,,
,,,,,,,,,,,,a,Incorrect,0,71,71,38,1,t3.png,t1.png,2,0.056466,20,Female,2020-09-18_16h09.40.793,torte-2b,2020.1.3,MacIntel,60,13389,0.45277,,,,,,,,,,,,,,,,,,,,,,,,,,,,,,,,,,,,,,,,,,,,,,,,,,,,,,,,,,,,,,,,,
,,,,,,,,,,,,a,Correct!,0,72,72,77,1,t1.png,t1.png,0,0.97829,20,Female,2020-09-18_16h09.40.793,torte-2b,2020.1.3,MacIntel,60,13389,0.778795,,,,,,,,,,,,,,,,,,,,,,,,,,,,,,,,,,,,,,,,,,,,,,,,,,,,,,,,,,,,,,,,,
,,,,,,,,,,,,l,Incorrect,0,73,73,97,1,t5.png,t5.png,0,0.97829,20,Female,2020-09-18_16h09.40.793,torte-2b,2020.1.3,MacIntel,60,13389,1.099255,,,,,,,,,,,,,,,,,,,,,,,,,,,,,,,,,,,,,,,,,,,,,,,,,,,,,,,,,,,,,,,,,
,,,,,,,,,,,,a,Correct!,0,74,74,95,1,t1.png,t1.png,0,0.978,20,Female,2020-09-18_16h09.40.793,torte-2b,2020.1.3,MacIntel,60,13389,0.62339,,,,,,,,,,,,,,,,,,,,,,,,,,,,,,,,,,,,,,,,,,,,,,,,,,,,,,,,,,,,,,,,,
,,,,,,,,,,,,l,Correct!,0,75,75,6,1,t1.png,t4.png,3,0.0000131,20,Female,2020-09-18_16h09.40.793,torte-2b,2020.1.3,MacIntel,60,13389,0.56571,,,,,,,,,,,,,,,,,,,,,,,,,,,,,,,,,,,,,,,,,,,,,,,,,,,,,,,,,,,,,,,,,
,,,,,,,,,,,,l,Incorrect,0,76,76,10,1,t2.png,t3.png,1,0.90855,20,Female,2020-09-18_16h09.40.793,torte-2b,2020.1.3,MacIntel,60,13389,0.73529,,,,,,,,,,,,,,,,,,,,,,,,,,,,,,,,,,,,,,,,,,,,,,,,,,,,,,,,,,,,,,,,,
,,,,,,,,,,,,a,Incorrect,0,77,77,116,1,t5.png,t4.png,1,0.90025,20,Female,2020-09-18_16h09.40.793,torte-2b,2020.1.3,MacIntel,60,13389,0.66619,,,,,,,,,,,,,,,,,,,,,,,,,,,,,,,,,,,,,,,,,,,,,,,,,,,,,,,,,,,,,,,,,
,,,,,,,,,,,,a,Incorrect,0,78,78,19,1,t4.png,t2.png,2,0.059078,20,Female,2020-09-18_16h09.40.793,torte-2b,2020.1.3,MacIntel,60,13389,0.485075,,,,,,,,,,,,,,,,,,,,,,,,,,,,,,,,,,,,,,,,,,,,,,,,,,,,,,,,,,,,,,,,,
,,,,,,,,,,,,a,Incorrect,0,79,79,46,1,t4.png,t2.png,2,0.059078,20,Female,2020-09-18_16h09.40.793,torte-2b,2020.1.3,MacIntel,60,13389,0.47052,,,,,,,,,,,,,,,,,,,,,,,,,,,,,,,,,,,,,,,,,,,,,,,,,,,,,,,,,,,,,,,,,
,,,,,,,,,,,,l,Correct!,0,80,80,68,1,t1.png,t4.png,3,0.0000131,20,Female,2020-09-18_16h09.40.793,torte-2b,2020.1.3,MacIntel,60,13389,0.43745,,,,,,,,,,,,,,,,,,,,,,,,,,,,,,,,,,,,,,,,,,,,,,,,,,,,,,,,,,,,,,,,,
,,,,,,,,,,,,a,Incorrect,0,81,81,56,1,t5.png,t1.png,4,9.55E-11,20,Female,2020-09-18_16h09.40.793,torte-2b,2020.1.3,MacIntel,60,13389,0.417515,,,,,,,,,,,,,,,,,,,,,,,,,,,,,,,,,,,,,,,,,,,,,,,,,,,,,,,,,,,,,,,,,
,,,,,,,,,,,,a,Incorrect,0,82,82,36,1,t3.png,t1.png,2,0.0565,20,Female,2020-09-18_16h09.40.793,torte-2b,2020.1.3,MacIntel,60,13389,0.475155,,,,,,,,,,,,,,,,,,,,,,,,,,,,,,,,,,,,,,,,,,,,,,,,,,,,,,,,,,,,,,,,,
,,,,,,,,,,,,l,Correct!,0,83,83,5,1,t2.png,t4.png,2,0.059078,20,Female,2020-09-18_16h09.40.793,torte-2b,2020.1.3,MacIntel,60,13389,0.520695,,,,,,,,,,,,,,,,,,,,,,,,,,,,,,,,,,,,,,,,,,,,,,,,,,,,,,,,,,,,,,,,,
,,,,,,,,,,,,l,Correct!,0,84,84,54,1,t1.png,t5.png,4,9.55E-11,20,Female,2020-09-18_16h09.40.793,torte-2b,2020.1.3,MacIntel,60,13389,0.50057,,,,,,,,,,,,,,,,,,,,,,,,,,,,,,,,,,,,,,,,,,,,,,,,,,,,,,,,,,,,,,,,,
,,,,,,,,,,,,l,Correct!,0,85,85,99,1,t1.png,t5.png,4,9.55E-11,20,Female,2020-09-18_16h09.40.793,torte-2b,2020.1.3,MacIntel,60,13389,2.13569,,,,,,,,,,,,,,,,,,,,,,,,,,,,,,,,,,,,,,,,,,,,,,,,,,,,,,,,,,,,,,,,,
,,,,,,,,,,,,a,Incorrect,0,86,86,102,1,t4.png,t2.png,2,0.059078,20,Female,2020-09-18_16h09.40.793,torte-2b,2020.1.3,MacIntel,60,13389,1.785825,,,,,,,,,,,,,,,,,,,,,,,,,,,,,,,,,,,,,,,,,,,,,,,,,,,,,,,,,,,,,,,,,
,,,,,,,,,,,,a,Incorrect,0,87,87,51,1,t3.png,t1.png,2,0.056466,20,Female,2020-09-18_16h09.40.793,torte-2b,2020.1.3,MacIntel,60,13389,1.267685,,,,,,,,,,,,,,,,,,,,,,,,,,,,,,,,,,,,,,,,,,,,,,,,,,,,,,,,,,,,,,,,,
,,,,,,,,,,,,l,Incorrect,0,88,88,9,1,t4.png,t5.png,1,0.9,20,Female,2020-09-18_16h09.40.793,torte-2b,2020.1.3,MacIntel,60,13389,0.66659,,,,,,,,,,,,,,,,,,,,,,,,,,,,,,,,,,,,,,,,,,,,,,,,,,,,,,,,,,,,,,,,,
,,,,,,,,,,,,a,Incorrect,0,89,89,103,1,t3.png,t1.png,2,0.056466,20,Female,2020-09-18_16h09.40.793,torte-2b,2020.1.3,MacIntel,60,13389,0.517725,,,,,,,,,,,,,,,,,,,,,,,,,,,,,,,,,,,,,,,,,,,,,,,,,,,,,,,,,,,,,,,,,
,,,,,,,,,,,,l,Incorrect,0,90,90,110,1,t4.png,t5.png,1,0.90025,20,Female,2020-09-18_16h09.40.793,torte-2b,2020.1.3,MacIntel,60,13389,0.58664,,,,,,,,,,,,,,,,,,,,,,,,,,,,,,,,,,,,,,,,,,,,,,,,,,,,,,,,,,,,,,,,,
,,,,,,,,,,,,a,Correct!,0,91,91,107,1,t1.png,t1.png,0,0.978,20,Female,2020-09-18_16h09.40.793,torte-2b,2020.1.3,MacIntel,60,13389,0.674025,,,,,,,,,,,,,,,,,,,,,,,,,,,,,,,,,,,,,,,,,,,,,,,,,,,,,,,,,,,,,,,,,
,,,,,,,,,,,,l,Correct!,0,92,92,67,1,t1.png,t5.png,4,9.55E-11,20,Female,2020-09-18_16h09.40.793,torte-2b,2020.1.3,MacIntel,60,13389,0.505245,,,,,,,,,,,,,,,,,,,,,,,,,,,,,,,,,,,,,,,,,,,,,,,,,,,,,,,,,,,,,,,,,
,,,,,,,,,,,,a,Correct!,0,93,93,84,1,t1.png,t1.png,0,0.97829,20,Female,2020-09-18_16h09.40.793,torte-2b,2020.1.3,MacIntel,60,13389,0.644135,,,,,,,,,,,,,,,,,,,,,,,,,,,,,,,,,,,,,,,,,,,,,,,,,,,,,,,,,,,,,,,,,
,,,,,,,,,,,,l,Correct!,0,94,94,40,1,t1.png,t5.png,4,9.55E-11,20,Female,2020-09-18_16h09.40.793,torte-2b,2020.1.3,MacIntel,60,13389,1.06578,,,,,,,,,,,,,,,,,,,,,,,,,,,,,,,,,,,,,,,,,,,,,,,,,,,,,,,,,,,,,,,,,
,,,,,,,,,,,,l,Correct!,0,95,95,4,1,t1.png,t5.png,4,9.55E-11,20,Female,2020-09-18_16h09.40.793,torte-2b,2020.1.3,MacIntel,60,13389,0.65111,,,,,,,,,,,,,,,,,,,,,,,,,,,,,,,,,,,,,,,,,,,,,,,,,,,,,,,,,,,,,,,,,
,,,,,,,,,,,,l,Correct!,0,96,96,31,1,t1.png,t5.png,4,9.55E-11,20,Female,2020-09-18_16h09.40.793,torte-2b,2020.1.3,MacIntel,60,13389,0.53418,,,,,,,,,,,,,,,,,,,,,,,,,,,,,,,,,,,,,,,,,,,,,,,,,,,,,,,,,,,,,,,,,
,,,,,,,,,,,,l,Incorrect,0,97,97,100,1,t4.png,t5.png,1,0.90025,20,Female,2020-09-18_16h09.40.793,torte-2b,2020.1.3,MacIntel,60,13389,0.90217,,,,,,,,,,,,,,,,,,,,,,,,,,,,,,,,,,,,,,,,,,,,,,,,,,,,,,,,,,,,,,,,,
,,,,,,,,,,,,a,Correct!,0,98,98,15,1,t3.png,t2.png,1,0.90855,20,Female,2020-09-18_16h09.40.793,torte-2b,2020.1.3,MacIntel,60,13389,0.717165,,,,,,,,,,,,,,,,,,,,,,,,,,,,,,,,,,,,,,,,,,,,,,,,,,,,,,,,,,,,,,,,,
,,,,,,,,,,,,l,Correct!,0,99,99,115,1,t2.png,t4.png,2,0.059078,20,Female,2020-09-18_16h09.40.793,torte-2b,2020.1.3,MacIntel,60,13389,0.48439,,,,,,,,,,,,,,,,,,,,,,,,,,,,,,,,,,,,,,,,,,,,,,,,,,,,,,,,,,,,,,,,,
,,,,,,,,,,,,a,Incorrect,0,100,100,26,1,t4.png,t2.png,2,0.0591,20,Female,2020-09-18_16h09.40.793,torte-2b,2020.1.3,MacIntel,60,13389,0.481695,,,,,,,,,,,,,,,,,,,,,,,,,,,,,,,,,,,,,,,,,,,,,,,,,,,,,,,,,,,,,,,,,
,,,,,,,,,,,,a,Incorrect,0,101,101,33,1,t5.png,t1.png,4,9.55E-11,20,Female,2020-09-18_16h09.40.793,torte-2b,2020.1.3,MacIntel,60,13389,0.65653,,,,,,,,,,,,,,,,,,,,,,,,,,,,,,,,,,,,,,,,,,,,,,,,,,,,,,,,,,,,,,,,,
,,,,,,,,,,,,a,Correct!,0,102,102,74,1,t5.png,t4.png,1,0.9,20,Female,2020-09-18_16h09.40.793,torte-2b,2020.1.3,MacIntel,60,13389,0.623315,,,,,,,,,,,,,,,,,,,,,,,,,,,,,,,,,,,,,,,,,,,,,,,,,,,,,,,,,,,,,,,,,
,,,,,,,,,,,,l,Correct!,0,103,103,119,1,t1.png,t5.png,4,9.55E-11,20,Female,2020-09-18_16h09.40.793,torte-2b,2020.1.3,MacIntel,60,13389,0.59118,,,,,,,,,,,,,,,,,,,,,,,,,,,,,,,,,,,,,,,,,,,,,,,,,,,,,,,,,,,,,,,,,
,,,,,,,,,,,,l,Correct!,0,104,104,89,1,t1.png,t4.png,3,0.0000131,20,Female,2020-09-18_16h09.40.793,torte-2b,2020.1.3,MacIntel,60,13389,0.632805,,,,,,,,,,,,,,,,,,,,,,,,,,,,,,,,,,,,,,,,,,,,,,,,,,,,,,,,,,,,,,,,,
,,,,,,,,,,,,a,Incorrect,0,105,105,2,1,t3.png,t2.png,1,0.90855,20,Female,2020-09-18_16h09.40.793,torte-2b,2020.1.3,MacIntel,60,13389,0.58527,,,,,,,,,,,,,,,,,,,,,,,,,,,,,,,,,,,,,,,,,,,,,,,,,,,,,,,,,,,,,,,,,
,,,,,,,,,,,,a,Incorrect,0,106,106,24,1,t4.png,t2.png,2,0.059078,20,Female,2020-09-18_16h09.40.793,torte-2b,2020.1.3,MacIntel,60,13389,0.50094,,,,,,,,,,,,,,,,,,,,,,,,,,,,,,,,,,,,,,,,,,,,,,,,,,,,,,,,,,,,,,,,,
,,,,,,,,,,,,l,Incorrect,0,107,107,29,1,t5.png,t5.png,0,0.97829,20,Female,2020-09-18_16h09.40.793,torte-2b,2020.1.3,MacIntel,60,13389,1.17627,,,,,,,,,,,,,,,,,,,,,,,,,,,,,,,,,,,,,,,,,,,,,,,,,,,,,,,,,,,,,,,,,
,,,,,,,,,,,,a,Incorrect,0,108,108,53,1,t3.png,t1.png,2,0.056466,20,Female,2020-09-18_16h09.40.793,torte-2b,2020.1.3,MacIntel,60,13389,0.56708,,,,,,,,,,,,,,,,,,,,,,,,,,,,,,,,,,,,,,,,,,,,,,,,,,,,,,,,,,,,,,,,,
,,,,,,,,,,,,l,Correct!,0,109,109,93,1,t2.png,t4.png,2,0.059078,20,Female,2020-09-18_16h09.40.793,torte-2b,2020.1.3,MacIntel,60,13389,0.44872,,,,,,,,,,,,,,,,,,,,,,,,,,,,,,,,,,,,,,,,,,,,,,,,,,,,,,,,,,,,,,,,,
,,,,,,,,,,,,a,Incorrect,0,110,110,87,1,t5.png,t1.png,4,9.55E-11,20,Female,2020-09-18_16h09.40.793,torte-2b,2020.1.3,MacIntel,60,13389,0.484245,,,,,,,,,,,,,,,,,,,,,,,,,,,,,,,,,,,,,,,,,,,,,,,,,,,,,,,,,,,,,,,,,
,,,,,,,,,,,,a,Correct!,0,111,111,13,1,t5.png,t5.png,0,0.97829,20,Female,2020-09-18_16h09.40.793,torte-2b,2020.1.3,MacIntel,60,13389,0.88452,,,,,,,,,,,,,,,,,,,,,,,,,,,,,,,,,,,,,,,,,,,,,,,,,,,,,,,,,,,,,,,,,
,,,,,,,,,,,,a,Incorrect,0,112,112,86,1,t3.png,t1.png,2,0.056466,20,Female,2020-09-18_16h09.40.793,torte-2b,2020.1.3,MacIntel,60,13389,0.68292,,,,,,,,,,,,,,,,,,,,,,,,,,,,,,,,,,,,,,,,,,,,,,,,,,,,,,,,,,,,,,,,,
,,,,,,,,,,,,l,Incorrect,0,113,113,70,1,t5.png,t5.png,0,0.978,20,Female,2020-09-18_16h09.40.793,torte-2b,2020.1.3,MacIntel,60,13389,1.33397,,,,,,,,,,,,,,,,,,,,,,,,,,,,,,,,,,,,,,,,,,,,,,,,,,,,,,,,,,,,,,,,,
,,,,,,,,,,,,a,Incorrect,0,114,114,94,1,t5.png,t1.png,4,9.55E-11,20,Female,2020-09-18_16h09.40.793,torte-2b,2020.1.3,MacIntel,60,13389,0.455545,,,,,,,,,,,,,,,,,,,,,,,,,,,,,,,,,,,,,,,,,,,,,,,,,,,,,,,,,,,,,,,,,
,,,,,,,,,,,,a,Incorrect,0,115,115,83,1,t3.png,t1.png,2,0.056466,20,Female,2020-09-18_16h09.40.793,torte-2b,2020.1.3,MacIntel,60,13389,0.583675,,,,,,,,,,,,,,,,,,,,,,,,,,,,,,,,,,,,,,,,,,,,,,,,,,,,,,,,,,,,,,,,,
,,,,,,,,,,,,a,Incorrect,0,116,116,69,1,t4.png,t2.png,2,0.059078,20,Female,2020-09-18_16h09.40.793,torte-2b,2020.1.3,MacIntel,60,13389,0.518595,,,,,,,,,,,,,,,,,,,,,,,,,,,,,,,,,,,,,,,,,,,,,,,,,,,,,,,,,,,,,,,,,
,,,,,,,,,,,,l,Incorrect,0,117,117,7,1,t4.png,t5.png,1,0.90025,20,Female,2020-09-18_16h09.40.793,torte-2b,2020.1.3,MacIntel,60,13389,0.567785,,,,,,,,,,,,,,,,,,,,,,,,,,,,,,,,,,,,,,,,,,,,,,,,,,,,,,,,,,,,,,,,,
,,,,,,,,,,,,l,Correct!,0,118,118,49,1,t4.png,t5.png,1,0.9,20,Female,2020-09-18_16h09.40.793,torte-2b,2020.1.3,MacIntel,60,13389,0.83379,,,,,,,,,,,,,,,,,,,,,,,,,,,,,,,,,,,,,,,,,,,,,,,,,,,,,,,,,,,,,,,,,
,,,,,,,,,,,,l,Incorrect,0,119,119,104,1,t2.png,t3.png,1,0.90855,20,Female,2020-09-18_16h09.40.793,torte-2b,2020.1.3,MacIntel,60,13389,0.701655,,,,,,,,,,,,,,,,,,,,,,,,,,,,,,,,,,,,,,,,,,,,,,,,,,,,,,,,,,,,,,,,,
,,,,,,,,,,,,l,Incorrect,,,,,,t1.png,t3.png,2,0.056466,20,Female,2020-09-18_16h09.40.793,torte-2b,2020.1.3,MacIntel,60,13389,1.132845,l,1.73658,l,16.067615,0,0,0,69,1,,,,,,,,,,,,,,,,,,,,,,,,,,,,,,,,,,,,,,,,,,,,,,,,,,,,,,,,
,,,,,,,,,,,,l,Correct!,,,,,,t1.png,t5.png,4,9.55E-11,20,Female,2020-09-18_16h09.40.793,torte-2b,2020.1.3,MacIntel,60,13389,0.795325,,,,,0,1,1,85,1,,,,,,,,,,,,,,,,,,,,,,,,,,,,,,,,,,,,,,,,,,,,,,,,,,,,,,,,
,,,,,,,,,,,,l,Incorrect,,,,,,t2.png,t3.png,1,0.90855,20,Female,2020-09-18_16h09.40.793,torte-2b,2020.1.3,MacIntel,60,13389,0.82581,,,,,0,2,2,10,1,,,,,,,,,,,,,,,,,,,,,,,,,,,,,,,,,,,,,,,,,,,,,,,,,,,,,,,,
,,,,,,,,,,,,l,Incorrect,,,,,,t3.png,t5.png,2,0.0565,20,Female,2020-09-18_16h09.40.793,torte-2b,2020.1.3,MacIntel,60,13389,0.95011,,,,,0,3,3,83,1,,,,,,,,,,,,,,,,,,,,,,,,,,,,,,,,,,,,,,,,,,,,,,,,,,,,,,,,
,,,,,,,,,,,,a,Incorrect,,,,,,t4.png,t1.png,3,0.0000131,20,Female,2020-09-18_16h09.40.793,torte-2b,2020.1.3,MacIntel,60,13389,0.619675,,,,,0,4,4,48,1,,,,,,,,,,,,,,,,,,,,,,,,,,,,,,,,,,,,,,,,,,,,,,,,,,,,,,,,
,,,,,,,,,,,,l,Incorrect,,,,,,t2.png,t2.png,0,0.98115,20,Female,2020-09-18_16h09.40.793,torte-2b,2020.1.3,MacIntel,60,13389,0.48946,,,,,0,5,5,57,1,,,,,,,,,,,,,,,,,,,,,,,,,,,,,,,,,,,,,,,,,,,,,,,,,,,,,,,,
,,,,,,,,,,,,a,Correct!,,,,,,t1.png,t1.png,0,0.978,20,Female,2020-09-18_16h09.40.793,torte-2b,2020.1.3,MacIntel,60,13389,0.68729,,,,,0,6,6,28,1,,,,,,,,,,,,,,,,,,,,,,,,,,,,,,,,,,,,,,,,,,,,,,,,,,,,,,,,
,,,,,,,,,,,,a,Correct!,,,,,,t5.png,t5.png,0,0.97829,20,Female,2020-09-18_16h09.40.793,torte-2b,2020.1.3,MacIntel,60,13389,1.560445,,,,,0,7,7,70,1,,,,,,,,,,,,,,,,,,,,,,,,,,,,,,,,,,,,,,,,,,,,,,,,,,,,,,,,
,,,,,,,,,,,,a,Incorrect,,,,,,t5.png,t1.png,4,9.55E-11,20,Female,2020-09-18_16h09.40.793,torte-2b,2020.1.3,MacIntel,60,13389,0.54863,,,,,0,8,8,100,1,,,,,,,,,,,,,,,,,,,,,,,,,,,,,,,,,,,,,,,,,,,,,,,,,,,,,,,,
,,,,,,,,,,,,l,Incorrect,,,,,,t4.png,t5.png,1,0.90025,20,Female,2020-09-18_16h09.40.793,torte-2b,2020.1.3,MacIntel,60,13389,0.86692,,,,,0,9,9,113,1,,,,,,,,,,,,,,,,,,,,,,,,,,,,,,,,,,,,,,,,,,,,,,,,,,,,,,,,
,,,,,,,,,,,,l,Correct!,,,,,,t1.png,t4.png,3,0.0000131,20,Female,2020-09-18_16h09.40.793,torte-2b,2020.1.3,MacIntel,60,13389,0.64204,,,,,0,10,10,107,1,,,,,,,,,,,,,,,,,,,,,,,,,,,,,,,,,,,,,,,,,,,,,,,,,,,,,,,,
,,,,,,,,,,,,a,Correct!,,,,,,t2.png,t1.png,1,0.90025,20,Female,2020-09-18_16h09.40.793,torte-2b,2020.1.3,MacIntel,60,13389,0.517485,,,,,0,11,11,62,1,,,,,,,,,,,,,,,,,,,,,,,,,,,,,,,,,,,,,,,,,,,,,,,,,,,,,,,,
,,,,,,,,,,,,a,Incorrect,,,,,,t5.png,t2.png,3,0.0000131,20,Female,2020-09-18_16h09.40.793,torte-2b,2020.1.3,MacIntel,60,13389,0.49201,,,,,0,12,12,98,1,,,,,,,,,,,,,,,,,,,,,,,,,,,,,,,,,,,,,,,,,,,,,,,,,,,,,,,,
,,,,,,,,,,,,l,Incorrect,,,,,,t2.png,t3.png,1,0.909,20,Female,2020-09-18_16h09.40.793,torte-2b,2020.1.3,MacIntel,60,13389,0.516665,,,,,0,13,13,74,1,,,,,,,,,,,,,,,,,,,,,,,,,,,,,,,,,,,,,,,,,,,,,,,,,,,,,,,,
,,,,,,,,,,,,a,Incorrect,,,,,,t3.png,t1.png,2,0.056466,20,Female,2020-09-18_16h09.40.793,torte-2b,2020.1.3,MacIntel,60,13389,0.4457,,,,,0,14,14,64,1,,,,,,,,,,,,,,,,,,,,,,,,,,,,,,,,,,,,,,,,,,,,,,,,,,,,,,,,
,,,,,,,,,,,,l,Incorrect,,,,,,t3.png,t4.png,1,0.909,20,Female,2020-09-18_16h09.40.793,torte-2b,2020.1.3,MacIntel,60,13389,0.569775,,,,,0,15,15,82,1,,,,,,,,,,,,,,,,,,,,,,,,,,,,,,,,,,,,,,,,,,,,,,,,,,,,,,,,
,,,,,,,,,,,,a,Correct!,,,,,,t2.png,t1.png,1,0.90025,20,Female,2020-09-18_16h09.40.793,torte-2b,2020.1.3,MacIntel,60,13389,0.39216,,,,,0,16,16,19,1,,,,,,,,,,,,,,,,,,,,,,,,,,,,,,,,,,,,,,,,,,,,,,,,,,,,,,,,
,,,,,,,,,,,,a,Incorrect,,,,,,t3.png,t1.png,2,0.056466,20,Female,2020-09-18_16h09.40.793,torte-2b,2020.1.3,MacIntel,60,13389,0.541975,,,,,0,17,17,29,1,,,,,,,,,,,,,,,,,,,,,,,,,,,,,,,,,,,,,,,,,,,,,,,,,,,,,,,,
,,,,,,,,,,,,l,Incorrect,,,,,,t2.png,t3.png,1,0.90855,20,Female,2020-09-18_16h09.40.793,torte-2b,2020.1.3,MacIntel,60,13389,0.559075,,,,,0,18,18,68,1,,,,,,,,,,,,,,,,,,,,,,,,,,,,,,,,,,,,,,,,,,,,,,,,,,,,,,,,
,,,,,,,,,,,,l,Incorrect,,,,,,t1.png,t2.png,1,0.90025,20,Female,2020-09-18_16h09.40.793,torte-2b,2020.1.3,MacIntel,60,13389,0.613465,,,,,0,19,19,33,1,,,,,,,,,,,,,,,,,,,,,,,,,,,,,,,,,,,,,,,,,,,,,,,,,,,,,,,,
,,,,,,,,,,,,a,Correct!,,,,,,t4.png,t4.png,0,0.98115,20,Female,2020-09-18_16h09.40.793,torte-2b,2020.1.3,MacIntel,60,13389,1.124255,,,,,0,20,20,80,1,,,,,,,,,,,,,,,,,,,,,,,,,,,,,,,,,,,,,,,,,,,,,,,,,,,,,,,,
,,,,,,,,,,,,a,Incorrect,,,,,,t4.png,t2.png,2,0.059078,20,Female,2020-09-18_16h09.40.793,torte-2b,2020.1.3,MacIntel,60,13389,0.486,,,,,0,21,21,110,1,,,,,,,,,,,,,,,,,,,,,,,,,,,,,,,,,,,,,,,,,,,,,,,,,,,,,,,,
,,,,,,,,,,,,a,Correct!,,,,,,t3.png,t2.png,1,0.909,20,Female,2020-09-18_16h09.40.793,torte-2b,2020.1.3,MacIntel,60,13389,0.851055,,,,,0,22,22,3,1,,,,,,,,,,,,,,,,,,,,,,,,,,,,,,,,,,,,,,,,,,,,,,,,,,,,,,,,
,,,,,,,,,,,,l,Correct!,,,,,,t2.png,t5.png,3,0.0000131,20,Female,2020-09-18_16h09.40.793,torte-2b,2020.1.3,MacIntel,60,13389,0.719735,,,,,0,23,23,66,1,,,,,,,,,,,,,,,,,,,,,,,,,,,,,,,,,,,,,,,,,,,,,,,,,,,,,,,,
,,,,,,,,,,,,a,Correct!,,,,,,t1.png,t1.png,0,0.978,20,Female,2020-09-18_16h09.40.793,torte-2b,2020.1.3,MacIntel,60,13389,0.773935,,,,,0,24,24,54,1,,,,,,,,,,,,,,,,,,,,,,,,,,,,,,,,,,,,,,,,,,,,,,,,,,,,,,,,
,,,,,,,,,,,,a,Incorrect,,,,,,t5.png,t3.png,2,0.056466,20,Female,2020-09-18_16h09.40.793,torte-2b,2020.1.3,MacIntel,60,13389,0.52442,,,,,0,25,25,56,1,,,,,,,,,,,,,,,,,,,,,,,,,,,,,,,,,,,,,,,,,,,,,,,,,,,,,,,,
,,,,,,,,,,,,a,Incorrect,,,,,,t3.png,t1.png,2,0.056466,20,Female,2020-09-18_16h09.40.793,torte-2b,2020.1.3,MacIntel,60,13389,0.559565,,,,,0,26,26,32,1,,,,,,,,,,,,,,,,,,,,,,,,,,,,,,,,,,,,,,,,,,,,,,,,,,,,,,,,
,,,,,,,,,,,,a,Incorrect,,,,,,t5.png,t2.png,3,0.0000131,20,Female,2020-09-18_16h09.40.793,torte-2b,2020.1.3,MacIntel,60,13389,0.491135,,,,,0,27,27,119,1,,,,,,,,,,,,,,,,,,,,,,,,,,,,,,,,,,,,,,,,,,,,,,,,,,,,,,,,
,,,,,,,,,,,,a,Correct!,,,,,,t4.png,t3.png,1,0.90855,20,Female,2020-09-18_16h09.40.793,torte-2b,2020.1.3,MacIntel,60,13389,0.643905,,,,,0,28,28,75,1,,,,,,,,,,,,,,,,,,,,,,,,,,,,,,,,,,,,,,,,,,,,,,,,,,,,,,,,
,,,,,,,,,,,,a,Incorrect,,,,,,t5.png,t1.png,4,9.55E-11,20,Female,2020-09-18_16h09.40.793,torte-2b,2020.1.3,MacIntel,60,13389,0.583365,,,,,0,29,29,71,1,,,,,,,,,,,,,,,,,,,,,,,,,,,,,,,,,,,,,,,,,,,,,,,,,,,,,,,,
,,,,,,,,,,,,a,Correct!,,,,,,t4.png,t3.png,1,0.90855,20,Female,2020-09-18_16h09.40.793,torte-2b,2020.1.3,MacIntel,60,13389,0.339455,,,,,0,30,30,35,1,,,,,,,,,,,,,,,,,,,,,,,,,,,,,,,,,,,,,,,,,,,,,,,,,,,,,,,,
,,,,,,,,,,,,a,Correct!,,,,,,t1.png,t1.png,0,0.97829,20,Female,2020-09-18_16h09.40.793,torte-2b,2020.1.3,MacIntel,60,13389,0.707225,,,,,0,31,31,67,1,,,,,,,,,,,,,,,,,,,,,,,,,,,,,,,,,,,,,,,,,,,,,,,,,,,,,,,,
,,,,,,,,,,,,l,Correct!,,,,,,t1.png,t4.png,3,0.0000131,20,Female,2020-09-18_16h09.40.793,torte-2b,2020.1.3,MacIntel,60,13389,0.69797,,,,,0,32,32,50,1,,,,,,,,,,,,,,,,,,,,,,,,,,,,,,,,,,,,,,,,,,,,,,,,,,,,,,,,
,,,,,,,,,,,,l,Correct!,,,,,,t1.png,t4.png,3,0.0000131,20,Female,2020-09-18_16h09.40.793,torte-2b,2020.1.3,MacIntel,60,13389,0.471465,,,,,0,33,33,17,1,,,,,,,,,,,,,,,,,,,,,,,,,,,,,,,,,,,,,,,,,,,,,,,,,,,,,,,,
,,,,,,,,,,,,a,Correct!,,,,,,t5.png,t5.png,0,0.97829,20,Female,2020-09-18_16h09.40.793,torte-2b,2020.1.3,MacIntel,60,13389,0.42571,,,,,0,34,34,25,1,,,,,,,,,,,,,,,,,,,,,,,,,,,,,,,,,,,,,,,,,,,,,,,,,,,,,,,,
,,,,,,,,,,,,a,Correct!,,,,,,t1.png,t1.png,0,0.97829,20,Female,2020-09-18_16h09.40.793,torte-2b,2020.1.3,MacIntel,60,13389,0.673,,,,,0,35,35,9,1,,,,,,,,,,,,,,,,,,,,,,,,,,,,,,,,,,,,,,,,,,,,,,,,,,,,,,,,
,,,,,,,,,,,,a,Correct!,,,,,,t2.png,t1.png,1,0.90025,20,Female,2020-09-18_16h09.40.793,torte-2b,2020.1.3,MacIntel,60,13389,0.48178,,,,,0,36,36,5,1,,,,,,,,,,,,,,,,,,,,,,,,,,,,,,,,,,,,,,,,,,,,,,,,,,,,,,,,
,,,,,,,,,,,,a,Incorrect,,,,,,t4.png,t3.png,1,0.909,20,Female,2020-09-18_16h09.40.793,torte-2b,2020.1.3,MacIntel,60,13389,0.449575,,,,,0,37,37,20,1,,,,,,,,,,,,,,,,,,,,,,,,,,,,,,,,,,,,,,,,,,,,,,,,,,,,,,,,
,,,,,,,,,,,,l,Correct!,,,,,,t3.png,t5.png,2,0.056466,20,Female,2020-09-18_16h09.40.793,torte-2b,2020.1.3,MacIntel,60,13389,0.499485,,,,,0,38,38,6,1,,,,,,,,,,,,,,,,,,,,,,,,,,,,,,,,,,,,,,,,,,,,,,,,,,,,,,,,
,,,,,,,,,,,,a,Correct!,,,,,,t5.png,t4.png,1,0.9,20,Female,2020-09-18_16h09.40.793,torte-2b,2020.1.3,MacIntel,60,13389,0.433695,,,,,0,39,39,76,1,,,,,,,,,,,,,,,,,,,,,,,,,,,,,,,,,,,,,,,,,,,,,,,,,,,,,,,,
,,,,,,,,,,,,a,Incorrect,,,,,,t4.png,t2.png,2,0.059078,20,Female,2020-09-18_16h09.40.793,torte-2b,2020.1.3,MacIntel,60,13389,0.42503,,,,,0,40,40,109,1,,,,,,,,,,,,,,,,,,,,,,,,,,,,,,,,,,,,,,,,,,,,,,,,,,,,,,,,
,,,,,,,,,,,,l,Correct!,,,,,,t1.png,t3.png,2,0.056466,20,Female,2020-09-18_16h09.40.793,torte-2b,2020.1.3,MacIntel,60,13389,0.517725,,,,,0,41,41,63,1,,,,,,,,,,,,,,,,,,,,,,,,,,,,,,,,,,,,,,,,,,,,,,,,,,,,,,,,
,,,,,,,,,,,,l,Correct!,,,,,,t2.png,t5.png,3,0.0000131,20,Female,2020-09-18_16h09.40.793,torte-2b,2020.1.3,MacIntel,60,13389,1.389815,,,,,0,42,42,40,1,,,,,,,,,,,,,,,,,,,,,,,,,,,,,,,,,,,,,,,,,,,,,,,,,,,,,,,,
,,,,,,,,,,,,a,Incorrect,,,,,,t5.png,t2.png,3,0.0000131,20,Female,2020-09-18_16h09.40.793,torte-2b,2020.1.3,MacIntel,60,13389,0.45888,,,,,0,43,43,51,1,,,,,,,,,,,,,,,,,,,,,,,,,,,,,,,,,,,,,,,,,,,,,,,,,,,,,,,,
,,,,,,,,,,,,a,Correct!,,,,,,t2.png,t1.png,1,0.90025,20,Female,2020-09-18_16h09.40.793,torte-2b,2020.1.3,MacIntel,60,13389,0.50907,,,,,0,44,44,4,1,,,,,,,,,,,,,,,,,,,,,,,,,,,,,,,,,,,,,,,,,,,,,,,,,,,,,,,,
,,,,,,,,,,,,a,Correct!,,,,,,t1.png,t1.png,0,0.97829,20,Female,2020-09-18_16h09.40.793,torte-2b,2020.1.3,MacIntel,60,13389,0.638675,,,,,0,45,45,78,1,,,,,,,,,,,,,,,,,,,,,,,,,,,,,,,,,,,,,,,,,,,,,,,,,,,,,,,,
,,,,,,,,,,,,a,Correct!,,,,,,t2.png,t3.png,1,0.90855,20,Female,2020-09-18_16h09.40.793,torte-2b,2020.1.3,MacIntel,60,13389,0.640225,,,,,0,46,46,65,1,,,,,,,,,,,,,,,,,,,,,,,,,,,,,,,,,,,,,,,,,,,,,,,,,,,,,,,,
,,,,,,,,,,,,a,Incorrect,,,,,,t4.png,t3.png,1,0.90855,20,Female,2020-09-18_16h09.40.793,torte-2b,2020.1.3,MacIntel,60,13389,0.5917,,,,,0,47,47,45,1,,,,,,,,,,,,,,,,,,,,,,,,,,,,,,,,,,,,,,,,,,,,,,,,,,,,,,,,
,,,,,,,,,,,,a,Incorrect,,,,,,t5.png,t3.png,2,0.0565,20,Female,2020-09-18_16h09.40.793,torte-2b,2020.1.3,MacIntel,60,13389,0.49909,,,,,0,48,48,39,1,,,,,,,,,,,,,,,,,,,,,,,,,,,,,,,,,,,,,,,,,,,,,,,,,,,,,,,,
,,,,,,,,,,,,l,Incorrect,,,,,,t4.png,t5.png,1,0.90025,20,Female,2020-09-18_16h09.40.793,torte-2b,2020.1.3,MacIntel,60,13389,0.619035,,,,,0,49,49,103,1,,,,,,,,,,,,,,,,,,,,,,,,,,,,,,,,,,,,,,,,,,,,,,,,,,,,,,,,
,,,,,,,,,,,,a,Incorrect,,,,,,t5.png,t2.png,3,0.0000131,20,Female,2020-09-18_16h09.40.793,torte-2b,2020.1.3,MacIntel,60,13389,0.4246,,,,,0,50,50,116,1,,,,,,,,,,,,,,,,,,,,,,,,,,,,,,,,,,,,,,,,,,,,,,,,,,,,,,,,
,,,,,,,,,,,,l,Incorrect,,,,,,t1.png,t2.png,1,0.90025,20,Female,2020-09-18_16h09.40.793,torte-2b,2020.1.3,MacIntel,60,13389,0.88787,,,,,0,51,51,72,1,,,,,,,,,,,,,,,,,,,,,,,,,,,,,,,,,,,,,,,,,,,,,,,,,,,,,,,,
,,,,,,,,,,,,l,Correct!,,,,,,t3.png,t4.png,1,0.909,20,Female,2020-09-18_16h09.40.793,torte-2b,2020.1.3,MacIntel,60,13389,0.81424,,,,,0,52,52,89,1,,,,,,,,,,,,,,,,,,,,,,,,,,,,,,,,,,,,,,,,,,,,,,,,,,,,,,,,
,,,,,,,,,,,,l,Correct!,,,,,,t2.png,t5.png,3,0.0000131,20,Female,2020-09-18_16h09.40.793,torte-2b,2020.1.3,MacIntel,60,13389,0.47401,,,,,0,53,53,104,1,,,,,,,,,,,,,,,,,,,,,,,,,,,,,,,,,,,,,,,,,,,,,,,,,,,,,,,,
,,,,,,,,,,,,l,Incorrect,,,,,,t1.png,t2.png,1,0.9,20,Female,2020-09-18_16h09.40.793,torte-2b,2020.1.3,MacIntel,60,13389,0.604155,,,,,0,54,54,1,1,,,,,,,,,,,,,,,,,,,,,,,,,,,,,,,,,,,,,,,,,,,,,,,,,,,,,,,,
,,,,,,,,,,,,l,Correct!,,,,,,t3.png,t5.png,2,0.056466,20,Female,2020-09-18_16h09.40.793,torte-2b,2020.1.3,MacIntel,60,13389,0.727265,,,,,0,55,55,14,1,,,,,,,,,,,,,,,,,,,,,,,,,,,,,,,,,,,,,,,,,,,,,,,,,,,,,,,,
,,,,,,,,,,,,l,Incorrect,,,,,,t3.png,t4.png,1,0.90855,20,Female,2020-09-18_16h09.40.793,torte-2b,2020.1.3,MacIntel,60,13389,0.556605,,,,,0,56,56,96,1,,,,,,,,,,,,,,,,,,,,,,,,,,,,,,,,,,,,,,,,,,,,,,,,,,,,,,,,
,,,,,,,,,,,,l,Correct!,,,,,,t1.png,t4.png,3,0.0000131,20,Female,2020-09-18_16h09.40.793,torte-2b,2020.1.3,MacIntel,60,13389,0.465005,,,,,0,57,57,92,1,,,,,,,,,,,,,,,,,,,,,,,,,,,,,,,,,,,,,,,,,,,,,,,,,,,,,,,,
,,,,,,,,,,,,l,Incorrect,,,,,,t4.png,t5.png,1,0.9,20,Female,2020-09-18_16h09.40.793,torte-2b,2020.1.3,MacIntel,60,13389,0.757635,,,,,0,58,58,115,1,,,,,,,,,,,,,,,,,,,,,,,,,,,,,,,,,,,,,,,,,,,,,,,,,,,,,,,,
,,,,,,,,,,,,l,Incorrect,,,,,,t1.png,t2.png,1,0.90025,20,Female,2020-09-18_16h09.40.793,torte-2b,2020.1.3,MacIntel,60,13389,0.87029,,,,,0,59,59,105,1,,,,,,,,,,,,,,,,,,,,,,,,,,,,,,,,,,,,,,,,,,,,,,,,,,,,,,,,
,,,,,,,,,,,,a,Correct!,,,,,,t3.png,t2.png,1,0.90855,20,Female,2020-09-18_16h09.40.793,torte-2b,2020.1.3,MacIntel,60,13389,0.984405,,,,,0,60,60,97,1,,,,,,,,,,,,,,,,,,,,,,,,,,,,,,,,,,,,,,,,,,,,,,,,,,,,,,,,
,,,,,,,,,,,,a,Incorrect,,,,,,t3.png,t1.png,2,0.056466,20,Female,2020-09-18_16h09.40.793,torte-2b,2020.1.3,MacIntel,60,13389,0.46626,,,,,0,61,61,0,1,,,,,,,,,,,,,,,,,,,,,,,,,,,,,,,,,,,,,,,,,,,,,,,,,,,,,,,,
,,,,,,,,,,,,l,Incorrect,,,,,,t3.png,t4.png,1,0.909,20,Female,2020-09-18_16h09.40.793,torte-2b,2020.1.3,MacIntel,60,13389,1.040175,,,,,0,62,62,106,1,,,,,,,,,,,,,,,,,,,,,,,,,,,,,,,,,,,,,,,,,,,,,,,,,,,,,,,,
,,,,,,,,,,,,a,Correct!,,,,,,t4.png,t3.png,1,0.909,20,Female,2020-09-18_16h09.40.793,torte-2b,2020.1.3,MacIntel,60,13389,0.602345,,,,,0,63,63,46,1,,,,,,,,,,,,,,,,,,,,,,,,,,,,,,,,,,,,,,,,,,,,,,,,,,,,,,,,
,,,,,,,,,,,,a,Incorrect,,,,,,t5.png,t3.png,2,0.056466,20,Female,2020-09-18_16h09.40.793,torte-2b,2020.1.3,MacIntel,60,13389,0.50536,,,,,0,64,64,114,1,,,,,,,,,,,,,,,,,,,,,,,,,,,,,,,,,,,,,,,,,,,,,,,,,,,,,,,,
,,,,,,,,,,,,l,Incorrect,,,,,,t4.png,t5.png,1,0.90025,20,Female,2020-09-18_16h09.40.793,torte-2b,2020.1.3,MacIntel,60,13389,0.467925,,,,,0,65,65,47,1,,,,,,,,,,,,,,,,,,,,,,,,,,,,,,,,,,,,,,,,,,,,,,,,,,,,,,,,
,,,,,,,,,,,,a,Correct!,,,,,,t5.png,t4.png,1,0.9,20,Female,2020-09-18_16h09.40.793,torte-2b,2020.1.3,MacIntel,60,13389,0.37721,,,,,0,66,66,49,1,,,,,,,,,,,,,,,,,,,,,,,,,,,,,,,,,,,,,,,,,,,,,,,,,,,,,,,,
,,,,,,,,,,,,a,Incorrect,,,,,,t4.png,t2.png,2,0.059078,20,Female,2020-09-18_16h09.40.793,torte-2b,2020.1.3,MacIntel,60,13389,0.524125,,,,,0,67,67,88,1,,,,,,,,,,,,,,,,,,,,,,,,,,,,,,,,,,,,,,,,,,,,,,,,,,,,,,,,
,,,,,,,,,,,,a,Correct!,,,,,,t3.png,t2.png,1,0.90855,20,Female,2020-09-18_16h09.40.793,torte-2b,2020.1.3,MacIntel,60,13389,0.71786,,,,,0,68,68,18,1,,,,,,,,,,,,,,,,,,,,,,,,,,,,,,,,,,,,,,,,,,,,,,,,,,,,,,,,
,,,,,,,,,,,,a,Incorrect,,,,,,t5.png,t1.png,4,9.55E-11,20,Female,2020-09-18_16h09.40.793,torte-2b,2020.1.3,MacIntel,60,13389,0.51815,,,,,0,69,69,43,1,,,,,,,,,,,,,,,,,,,,,,,,,,,,,,,,,,,,,,,,,,,,,,,,,,,,,,,,
,,,,,,,,,,,,a,Correct!,,,,,,t2.png,t2.png,0,0.98115,20,Female,2020-09-18_16h09.40.793,torte-2b,2020.1.3,MacIntel,60,13389,0.96154,,,,,0,70,70,59,1,,,,,,,,,,,,,,,,,,,,,,,,,,,,,,,,,,,,,,,,,,,,,,,,,,,,,,,,
,,,,,,,,,,,,a,Incorrect,,,,,,t4.png,t2.png,2,0.0591,20,Female,2020-09-18_16h09.40.793,torte-2b,2020.1.3,MacIntel,60,13389,0.43319,,,,,0,71,71,36,1,,,,,,,,,,,,,,,,,,,,,,,,,,,,,,,,,,,,,,,,,,,,,,,,,,,,,,,,
,,,,,,,,,,,,a,Incorrect,,,,,,t4.png,t1.png,3,0.0000131,20,Female,2020-09-18_16h09.40.793,torte-2b,2020.1.3,MacIntel,60,13389,0.36752,,,,,0,72,72,13,1,,,,,,,,,,,,,,,,,,,,,,,,,,,,,,,,,,,,,,,,,,,,,,,,,,,,,,,,
,,,,,,,,,,,,l,Correct!,,,,,,t2.png,t4.png,2,0.059078,20,Female,2020-09-18_16h09.40.793,torte-2b,2020.1.3,MacIntel,60,13389,0.66103,,,,,0,73,73,77,1,,,,,,,,,,,,,,,,,,,,,,,,,,,,,,,,,,,,,,,,,,,,,,,,,,,,,,,,
,,,,,,,,,,,,a,Correct!,,,,,,t3.png,t2.png,1,0.90855,20,Female,2020-09-18_16h09.40.793,torte-2b,2020.1.3,MacIntel,60,13389,0.472885,,,,,0,74,74,53,1,,,,,,,,,,,,,,,,,,,,,,,,,,,,,,,,,,,,,,,,,,,,,,,,,,,,,,,,
,,,,,,,,,,,,l,Incorrect,,,,,,t3.png,t4.png,1,0.90855,20,Female,2020-09-18_16h09.40.793,torte-2b,2020.1.3,MacIntel,60,13389,0.569015,,,,,0,75,75,84,1,,,,,,,,,,,,,,,,,,,,,,,,,,,,,,,,,,,,,,,,,,,,,,,,,,,,,,,,
,,,,,,,,,,,,a,Incorrect,,,,,,t4.png,t1.png,3,0.0000131,20,Female,2020-09-18_16h09.40.793,torte-2b,2020.1.3,MacIntel,60,13389,0.350965,,,,,0,76,76,42,1,,,,,,,,,,,,,,,,,,,,,,,,,,,,,,,,,,,,,,,,,,,,,,,,,,,,,,,,
,,,,,,,,,,,,a,Correct!,,,,,,t5.png,t4.png,1,0.90025,20,Female,2020-09-18_16h09.40.793,torte-2b,2020.1.3,MacIntel,60,13389,0.41843,,,,,0,77,77,34,1,,,,,,,,,,,,,,,,,,,,,,,,,,,,,,,,,,,,,,,,,,,,,,,,,,,,,,,,
,,,,,,,,,,,,l,Correct!,,,,,,t2.png,t5.png,3,0.0000131,20,Female,2020-09-18_16h09.40.793,torte-2b,2020.1.3,MacIntel,60,13389,0.46979,,,,,0,78,78,95,1,,,,,,,,,,,,,,,,,,,,,,,,,,,,,,,,,,,,,,,,,,,,,,,,,,,,,,,,
,,,,,,,,,,,,a,Incorrect,,,,,,t2.png,t4.png,2,0.059078,20,Female,2020-09-18_16h09.40.793,torte-2b,2020.1.3,MacIntel,60,13389,0.290065,,,,,0,79,79,37,1,,,,,,,,,,,,,,,,,,,,,,,,,,,,,,,,,,,,,,,,,,,,,,,,,,,,,,,,
,,,,,,,,,,,,a,Correct!,,,,,,t4.png,t4.png,0,0.98115,20,Female,2020-09-18_16h09.40.793,torte-2b,2020.1.3,MacIntel,60,13389,0.458275,,,,,0,80,80,21,1,,,,,,,,,,,,,,,,,,,,,,,,,,,,,,,,,,,,,,,,,,,,,,,,,,,,,,,,
,,,,,,,,,,,,l,Correct!,,,,,,t1.png,t4.png,3,0.0000131,20,Female,2020-09-18_16h09.40.793,torte-2b,2020.1.3,MacIntel,60,13389,0.50086,,,,,0,81,81,81,1,,,,,,,,,,,,,,,,,,,,,,,,,,,,,,,,,,,,,,,,,,,,,,,,,,,,,,,,
,,,,,,,,,,,,l,Correct!,,,,,,t1.png,t5.png,4,9.55E-11,20,Female,2020-09-18_16h09.40.793,torte-2b,2020.1.3,MacIntel,60,13389,0.52385,,,,,0,82,82,55,1,,,,,,,,,,,,,,,,,,,,,,,,,,,,,,,,,,,,,,,,,,,,,,,,,,,,,,,,
,,,,,,,,,,,,a,Correct!,,,,,,t4.png,t4.png,0,0.98115,20,Female,2020-09-18_16h09.40.793,torte-2b,2020.1.3,MacIntel,60,13389,0.942525,,,,,0,83,83,52,1,,,,,,,,,,,,,,,,,,,,,,,,,,,,,,,,,,,,,,,,,,,,,,,,,,,,,,,,
,,,,,,,,,,,,a,Correct!,,,,,,t2.png,t1.png,1,0.9,20,Female,2020-09-18_16h09.40.793,torte-2b,2020.1.3,MacIntel,60,13389,0.56713,,,,,0,84,84,118,1,,,,,,,,,,,,,,,,,,,,,,,,,,,,,,,,,,,,,,,,,,,,,,,,,,,,,,,,
,,,,,,,,,,,,a,Incorrect,,,,,,t5.png,t3.png,2,0.056466,20,Female,2020-09-18_16h09.40.793,torte-2b,2020.1.3,MacIntel,60,13389,0.442285,,,,,0,85,85,108,1,,,,,,,,,,,,,,,,,,,,,,,,,,,,,,,,,,,,,,,,,,,,,,,,,,,,,,,,
,,,,,,,,,,,,a,Incorrect,,,,,,t4.png,t1.png,3,0.0000131,20,Female,2020-09-18_16h09.40.793,torte-2b,2020.1.3,MacIntel,60,13389,0.53589,,,,,0,86,86,61,1,,,,,,,,,,,,,,,,,,,,,,,,,,,,,,,,,,,,,,,,,,,,,,,,,,,,,,,,
,,,,,,,,,,,,l,Correct!,,,,,,t1.png,t3.png,2,0.056466,20,Female,2020-09-18_16h09.40.793,torte-2b,2020.1.3,MacIntel,60,13389,0.58125,,,,,0,87,87,60,1,,,,,,,,,,,,,,,,,,,,,,,,,,,,,,,,,,,,,,,,,,,,,,,,,,,,,,,,
,,,,,,,,,,,,l,Correct!,,,,,,t1.png,t5.png,4,9.55E-11,20,Female,2020-09-18_16h09.40.793,torte-2b,2020.1.3,MacIntel,60,13389,0.634975,,,,,0,88,88,12,1,,,,,,,,,,,,,,,,,,,,,,,,,,,,,,,,,,,,,,,,,,,,,,,,,,,,,,,,
,,,,,,,,,,,,a,Incorrect,,,,,,t4.png,t2.png,2,0.059078,20,Female,2020-09-18_16h09.40.793,torte-2b,2020.1.3,MacIntel,60,13389,0.554285,,,,,0,89,89,86,1,,,,,,,,,,,,,,,,,,,,,,,,,,,,,,,,,,,,,,,,,,,,,,,,,,,,,,,,
,,,,,,,,,,,,l,Correct!,,,,,,t2.png,t5.png,3,0.0000131,20,Female,2020-09-18_16h09.40.793,torte-2b,2020.1.3,MacIntel,60,13389,0.68394,,,,,0,90,90,8,1,,,,,,,,,,,,,,,,,,,,,,,,,,,,,,,,,,,,,,,,,,,,,,,,,,,,,,,,
,,,,,,,,,,,,a,Correct!,,,,,,t5.png,t5.png,0,0.97829,20,Female,2020-09-18_16h09.40.793,torte-2b,2020.1.3,MacIntel,60,13389,0.703845,,,,,0,91,91,73,1,,,,,,,,,,,,,,,,,,,,,,,,,,,,,,,,,,,,,,,,,,,,,,,,,,,,,,,,
,,,,,,,,,,,,l,Correct!,,,,,,t1.png,t3.png,2,0.056466,20,Female,2020-09-18_16h09.40.793,torte-2b,2020.1.3,MacIntel,60,13389,0.567095,,,,,0,92,92,99,1,,,,,,,,,,,,,,,,,,,,,,,,,,,,,,,,,,,,,,,,,,,,,,,,,,,,,,,,
,,,,,,,,,,,,l,Correct!,,,,,,t2.png,t4.png,2,0.059078,20,Female,2020-09-18_16h09.40.793,torte-2b,2020.1.3,MacIntel,60,13389,0.78464,,,,,0,93,93,11,1,,,,,,,,,,,,,,,,,,,,,,,,,,,,,,,,,,,,,,,,,,,,,,,,,,,,,,,,
,,,,,,,,,,,,a,Incorrect,,,,,,t3.png,t1.png,2,0.0565,20,Female,2020-09-18_16h09.40.793,torte-2b,2020.1.3,MacIntel,60,13389,0.49132,,,,,0,94,94,31,1,,,,,,,,,,,,,,,,,,,,,,,,,,,,,,,,,,,,,,,,,,,,,,,,,,,,,,,,
,,,,,,,,,,,,l,Incorrect,,,,,,t2.png,t3.png,1,0.90855,20,Female,2020-09-18_16h09.40.793,torte-2b,2020.1.3,MacIntel,60,13389,0.8311,,,,,0,95,95,111,1,,,,,,,,,,,,,,,,,,,,,,,,,,,,,,,,,,,,,,,,,,,,,,,,,,,,,,,,
,,,,,,,,,,,,a,Correct!,,,,,,t4.png,t4.png,0,0.98115,20,Female,2020-09-18_16h09.40.793,torte-2b,2020.1.3,MacIntel,60,13389,0.447045,,,,,0,96,96,79,1,,,,,,,,,,,,,,,,,,,,,,,,,,,,,,,,,,,,,,,,,,,,,,,,,,,,,,,,
,,,,,,,,,,,,a,Correct!,,,,,,t4.png,t4.png,0,0.98115,20,Female,2020-09-18_16h09.40.793,torte-2b,2020.1.3,MacIntel,60,13389,0.789955,,,,,0,97,97,90,1,,,,,,,,,,,,,,,,,,,,,,,,,,,,,,,,,,,,,,,,,,,,,,,,,,,,,,,,
,,,,,,,,,,,,a,Correct!,,,,,,t5.png,t5.png,0,0.978,20,Female,2020-09-18_16h09.40.793,torte-2b,2020.1.3,MacIntel,60,13389,0.70536,,,,,0,98,98,117,1,,,,,,,,,,,,,,,,,,,,,,,,,,,,,,,,,,,,,,,,,,,,,,,,,,,,,,,,
,,,,,,,,,,,,a,Incorrect,,,,,,t5.png,t2.png,3,0.0000131,20,Female,2020-09-18_16h09.40.793,torte-2b,2020.1.3,MacIntel,60,13389,0.623545,,,,,0,99,99,91,1,,,,,,,,,,,,,,,,,,,,,,,,,,,,,,,,,,,,,,,,,,,,,,,,,,,,,,,,
,,,,,,,,,,,,a,Incorrect,,,,,,t5.png,t3.png,2,0.056466,20,Female,2020-09-18_16h09.40.793,torte-2b,2020.1.3,MacIntel,60,13389,0.77678,,,,,0,100,100,38,1,,,,,,,,,,,,,,,,,,,,,,,,,,,,,,,,,,,,,,,,,,,,,,,,,,,,,,,,
,,,,,,,,,,,,a,Correct!,,,,,,t5.png,t4.png,1,0.90025,20,Female,2020-09-18_16h09.40.793,torte-2b,2020.1.3,MacIntel,60,13389,0.407825,,,,,0,101,101,27,1,,,,,,,,,,,,,,,,,,,,,,,,,,,,,,,,,,,,,,,,,,,,,,,,,,,,,,,,
,,,,,,,,,,,,l,Correct!,,,,,,t1.png,t5.png,4,9.55E-11,20,Female,2020-09-18_16h09.40.793,torte-2b,2020.1.3,MacIntel,60,13389,0.67357,,,,,0,102,102,16,1,,,,,,,,,,,,,,,,,,,,,,,,,,,,,,,,,,,,,,,,,,,,,,,,,,,,,,,,
,,,,,,,,,,,,a,Correct!,,,,,,t2.png,t2.png,0,0.981,20,Female,2020-09-18_16h09.40.793,torte-2b,2020.1.3,MacIntel,60,13389,0.56461,,,,,0,103,103,101,1,,,,,,,,,,,,,,,,,,,,,,,,,,,,,,,,,,,,,,,,,,,,,,,,,,,,,,,,
,,,,,,,,,,,,l,Correct!,,,,,,t1.png,t5.png,4,9.55E-11,20,Female,2020-09-18_16h09.40.793,torte-2b,2020.1.3,MacIntel,60,13389,0.74252,,,,,0,104,104,41,1,,,,,,,,,,,,,,,,,,,,,,,,,,,,,,,,,,,,,,,,,,,,,,,,,,,,,,,,
,,,,,,,,,,,,l,Incorrect,,,,,,t1.png,t2.png,1,0.90025,20,Female,2020-09-18_16h09.40.793,torte-2b,2020.1.3,MacIntel,60,13389,0.698105,,,,,0,105,105,112,1,,,,,,,,,,,,,,,,,,,,,,,,,,,,,,,,,,,,,,,,,,,,,,,,,,,,,,,,
,,,,,,,,,,,,a,Incorrect,,,,,,t5.png,t1.png,4,9.55E-11,20,Female,2020-09-18_16h09.40.793,torte-2b,2020.1.3,MacIntel,60,13389,0.507205,,,,,0,106,106,22,1,,,,,,,,,,,,,,,,,,,,,,,,,,,,,,,,,,,,,,,,,,,,,,,,,,,,,,,,
,,,,,,,,,,,,a,Correct!,,,,,,t2.png,t2.png,0,0.98115,20,Female,2020-09-18_16h09.40.793,torte-2b,2020.1.3,MacIntel,60,13389,0.85184,,,,,0,107,107,2,1,,,,,,,,,,,,,,,,,,,,,,,,,,,,,,,,,,,,,,,,,,,,,,,,,,,,,,,,
,,,,,,,,,,,,l,Incorrect,,,,,,t2.png,t4.png,2,0.0591,20,Female,2020-09-18_16h09.40.793,torte-2b,2020.1.3,MacIntel,60,13389,0.68371,,,,,0,108,108,15,1,,,,,,,,,,,,,,,,,,,,,,,,,,,,,,,,,,,,,,,,,,,,,,,,,,,,,,,,
,,,,,,,,,,,,l,Correct!,,,,,,t1.png,t3.png,2,0.056466,20,Female,2020-09-18_16h09.40.793,torte-2b,2020.1.3,MacIntel,60,13389,0.557415,,,,,0,109,109,87,1,,,,,,,,,,,,,,,,,,,,,,,,,,,,,,,,,,,,,,,,,,,,,,,,,,,,,,,,
,,,,,,,,,,,,l,Incorrect,,,,,,t4.png,t5.png,1,0.90025,20,Female,2020-09-18_16h09.40.793,torte-2b,2020.1.3,MacIntel,60,13389,0.858345,,,,,0,110,110,58,1,,,,,,,,,,,,,,,,,,,,,,,,,,,,,,,,,,,,,,,,,,,,,,,,,,,,,,,,
,,,,,,,,,,,,a,Correct!,,,,,,t2.png,t2.png,0,0.98115,20,Female,2020-09-18_16h09.40.793,torte-2b,2020.1.3,MacIntel,60,13389,0.550935,,,,,0,111,111,7,1,,,,,,,,,,,,,,,,,,,,,,,,,,,,,,,,,,,,,,,,,,,,,,,,,,,,,,,,
,,,,,,,,,,,,a,Incorrect,,,,,,t5.png,t1.png,4,9.55E-11,20,Female,2020-09-18_16h09.40.793,torte-2b,2020.1.3,MacIntel,60,13389,0.709465,,,,,0,112,112,102,1,,,,,,,,,,,,,,,,,,,,,,,,,,,,,,,,,,,,,,,,,,,,,,,,,,,,,,,,
,,,,,,,,,,,,a,Correct!,,,,,,t5.png,t5.png,0,0.97829,20,Female,2020-09-18_16h09.40.793,torte-2b,2020.1.3,MacIntel,60,13389,0.68259,,,,,0,113,113,94,1,,,,,,,,,,,,,,,,,,,,,,,,,,,,,,,,,,,,,,,,,,,,,,,,,,,,,,,,
,,,,,,,,,,,,a,Correct!,,,,,,t5.png,t4.png,1,0.90025,20,Female,2020-09-18_16h09.40.793,torte-2b,2020.1.3,MacIntel,60,13389,0.476715,,,,,0,114,114,26,1,,,,,,,,,,,,,,,,,,,,,,,,,,,,,,,,,,,,,,,,,,,,,,,,,,,,,,,,
,,,,,,,,,,,,l,Correct!,,,,,,t3.png,t5.png,2,0.0565,20,Female,2020-09-18_16h09.40.793,torte-2b,2020.1.3,MacIntel,60,13389,0.50016,,,,,0,115,115,30,1,,,,,,,,,,,,,,,,,,,,,,,,,,,,,,,,,,,,,,,,,,,,,,,,,,,,,,,,
,,,,,,,,,,,,l,Correct!,,,,,,t2.png,t4.png,2,0.059078,20,Female,2020-09-18_16h09.40.793,torte-2b,2020.1.3,MacIntel,60,13389,0.49898,,,,,0,116,116,24,1,,,,,,,,,,,,,,,,,,,,,,,,,,,,,,,,,,,,,,,,,,,,,,,,,,,,,,,,
,,,,,,,,,,,,a,Incorrect,,,,,,t4.png,t1.png,3,0.0000131,20,Female,2020-09-18_16h09.40.793,torte-2b,2020.1.3,MacIntel,60,13389,0.564805,,,,,0,117,117,93,1,,,,,,,,,,,,,,,,,,,,,,,,,,,,,,,,,,,,,,,,,,,,,,,,,,,,,,,,
,,,,,,,,,,,,l,Correct!,,,,,,t3.png,t5.png,2,0.056466,20,Female,2020-09-18_16h09.40.793,torte-2b,2020.1.3,MacIntel,60,13389,0.519895,,,,,0,118,118,44,1,,,,,,,,,,,,,,,,,,,,,,,,,,,,,,,,,,,,,,,,,,,,,,,,,,,,,,,,
,,,,,,,,,,,,a,Correct!,,,,,,t3.png,t2.png,1,0.909,20,Female,2020-09-18_16h09.40.793,torte-2b,2020.1.3,MacIntel,60,13389,0.542795,,,,,0,119,119,23,1,,,,,,,,,,,,,,,,,,,,,,,,,,,,,,,,,,,,,,,,,,,,,,,,,,,,,,,,
,,,,,,,,,,,,,,,,,,,,,,,20,Female,2020-09-18_16h09.40.793,torte-2b,2020.1.3,MacIntel,60,13389,,l,1.176795,,,,,,,,l,17.51825,,0,0,0,0,1,6,,,,,,,,,,,,,,,,,,,,,,,,,,,,,,,,,,,,,,,,,,,,,,,
,,,,,,,,,,,,,,,,,,,,,,,20,Female,2020-09-18_16h09.40.793,torte-2b,2020.1.3,MacIntel,60,13389,,,,,,,,,,,,,,0,1,1,1,1,7,,,,,,,,,,,,,,,,,,,,,,,,,,,,,,,,,,,,,,,,,,,,,,,
,,,,,,,,,,,,,,,,,,,,,,,20,Female,2020-09-18_16h09.40.793,torte-2b,2020.1.3,MacIntel,60,13389,,,,,,,,,,,,,space,0,2,2,2,1,6,0.87067,,,,,,,,,,,,,,,,,,,,,,,,,,,,,,,,,,,,,,,,,,,,,,
,,,,,,,,,,,,,,,,,,,,,,,20,Female,2020-09-18_16h09.40.793,torte-2b,2020.1.3,MacIntel,60,13389,,,,,,,,,,,,,space,0,3,3,3,1,7,1.610475,,,,,,,,,,,,,,,,,,,,,,,,,,,,,,,,,,,,,,,,,,,,,,
,,,,,,,,,,,,,,,,,,,,,,,20,Female,2020-09-18_16h09.40.793,torte-2b,2020.1.3,MacIntel,60,13389,,,,,,,,,,,,,,0,4,4,4,1,5,,,,,,,,,,,,,,,,,,,,,,,,,,,,,,,,,,,,,,,,,,,,,,,
,,,,,,,,,,,,,,,,,,,,,,,20,Female,2020-09-18_16h09.40.793,torte-2b,2020.1.3,MacIntel,60,13389,,,,,,,,,,,,,space,0,5,5,5,1,7,0.49793,,,,,,,,,,,,,,,,,,,,,,,,,,,,,,,,,,,,,,,,,,,,,,
,,,,,,,,,,,,,,,,,,,,,,,20,Female,2020-09-18_16h09.40.793,torte-2b,2020.1.3,MacIntel,60,13389,,,,,,,,,,,,,,0,6,6,6,1,2,,,,,,,,,,,,,,,,,,,,,,,,,,,,,,,,,,,,,,,,,,,,,,,
,,,,,,,,,,,,,,,,,,,,,,,20,Female,2020-09-18_16h09.40.793,torte-2b,2020.1.3,MacIntel,60,13389,,,,,,,,,,,,,,0,7,7,7,1,4,,,,,,,,,,,,,,,,,,,,,,,,,,,,,,,,,,,,,,,,,,,,,,,
,,,,,,,,,,,,,,,,,,,,,,,20,Female,2020-09-18_16h09.40.793,torte-2b,2020.1.3,MacIntel,60,13389,,,,,,,,,,,,,space,0,8,8,8,1,7,0.395715,,,,,,,,,,,,,,,,,,,,,,,,,,,,,,,,,,,,,,,,,,,,,,
,,,,,,,,,,,,,,,,,,,,,,,20,Female,2020-09-18_16h09.40.793,torte-2b,2020.1.3,MacIntel,60,13389,,,,,,,,,,,,,,0,9,9,9,1,4,,,,,,,,,,,,,,,,,,,,,,,,,,,,,,,,,,,,,,,,,,,,,,,
,,,,,,,,,,,,,,,,,,,,,,,20,Female,2020-09-18_16h09.40.793,torte-2b,2020.1.3,MacIntel,60,13389,,,,,,,,,,,,,,0,10,10,10,1,7,,,,,,,,,,,,,,,,,,,,,,,,,,,,,,,,,,,,,,,,,,,,,,,
,,,,,,,,,,,,,,,,,,,,,,,20,Female,2020-09-18_16h09.40.793,torte-2b,2020.1.3,MacIntel,60,13389,,,,,,,,,,,,,,0,11,11,11,1,7,,,,,,,,,,,,,,,,,,,,,,,,,,,,,,,,,,,,,,,,,,,,,,,
,,,,,,,,,,,,,,,,,,,,,,,20,Female,2020-09-18_16h09.40.793,torte-2b,2020.1.3,MacIntel,60,13389,,,,,,,,,,,,,,0,12,12,12,1,7,,,,,,,,,,,,,,,,,,,,,,,,,,,,,,,,,,,,,,,,,,,,,,,
,,,,,,,,,,,,,,,,,,,,,,,20,Female,2020-09-18_16h09.40.793,torte-2b,2020.1.3,MacIntel,60,13389,,,,,,,,,,,,,,0,13,13,13,1,4,,,,,,,,,,,,,,,,,,,,,,,,,,,,,,,,,,,,,,,,,,,,,,,
,,,,,,,,,,,,,,,,,,,,,,,20,Female,2020-09-18_16h09.40.793,torte-2b,2020.1.3,MacIntel,60,13389,,,,,,,,,,,,,,0,14,14,14,1,6,,,,,,,,,,,,,,,,,,,,,,,,,,,,,,,,,,,,,,,,,,,,,,,
,,,,,,,,,,,,,,,,,,,,,,,20,Female,2020-09-18_16h09.40.793,torte-2b,2020.1.3,MacIntel,60,13389,,,,,,,,,,,,,,0,15,15,15,1,4,,,,,,,,,,,,,,,,,,,,,,,,,,,,,,,,,,,,,,,,,,,,,,,
,,,,,,,,,,,,,,,,,,,,,,,20,Female,2020-09-18_16h09.40.793,torte-2b,2020.1.3,MacIntel,60,13389,,,,,,,,,,,,,,0,16,16,16,1,6,,,,,,,,,,,,,,,,,,,,,,,,,,,,,,,,,,,,,,,,,,,,,,,
,,,,,,,,,,,,,,,,,,,,,,,20,Female,2020-09-18_16h09.40.793,torte-2b,2020.1.3,MacIntel,60,13389,,,,,,,,,,,,,,0,17,17,17,1,7,,,,,,,,,,,,,,,,,,,,,,,,,,,,,,,,,,,,,,,,,,,,,,,
,,,,,,,,,,,,,,,,,,,,,,,20,Female,2020-09-18_16h09.40.793,torte-2b,2020.1.3,MacIntel,60,13389,,,,,,,,,,,,,,0,18,18,18,1,6,,,,,,,,,,,,,,,,,,,,,,,,,,,,,,,,,,,,,,,,,,,,,,,
,,,,,,,,,,,,,,,,,,,,,,,20,Female,2020-09-18_16h09.40.793,torte-2b,2020.1.3,MacIntel,60,13389,,,,,,,,,,,,,,0,19,19,19,1,7,,,,,,,,,,,,,,,,,,,,,,,,,,,,,,,,,,,,,,,,,,,,,,,
,,,,,,,,,,,,,,,,,,,,,,,20,Female,2020-09-18_16h09.40.793,torte-2b,2020.1.3,MacIntel,60,13389,,,,,,,,,,,,,,0,20,20,20,1,5,,,,,,,,,,,,,,,,,,,,,,,,,,,,,,,,,,,,,,,,,,,,,,,
,,,,,,,,,,,,,,,,,,,,,,,20,Female,2020-09-18_16h09.40.793,torte-2b,2020.1.3,MacIntel,60,13389,,,,,,,,,,,,,,0,21,21,21,1,1,,,,,,,,,,,,,,,,,,,,,,,,,,,,,,,,,,,,,,,,,,,,,,,
,,,,,,,,,,,,,,,,,,,,,,,20,Female,2020-09-18_16h09.40.793,torte-2b,2020.1.3,MacIntel,60,13389,,,,,,,,,,,,,,0,22,22,22,1,6,,,,,,,,,,,,,,,,,,,,,,,,,,,,,,,,,,,,,,,,,,,,,,,
,,,,,,,,,,,,,,,,,,,,,,,20,Female,2020-09-18_16h09.40.793,torte-2b,2020.1.3,MacIntel,60,13389,,,,,,,,,,,,,,0,23,23,23,1,1,,,,,,,,,,,,,,,,,,,,,,,,,,,,,,,,,,,,,,,,,,,,,,,
,,,,,,,,,,,,,,,,,,,,,,,20,Female,2020-09-18_16h09.40.793,torte-2b,2020.1.3,MacIntel,60,13389,,,,,,,,,,,,,space,0,24,24,24,1,5,1.66283,,,,,,,,,,,,,,,,,,,,,,,,,,,,,,,,,,,,,,,,,,,,,,
,,,,,,,,,,,,,,,,,,,,,,,20,Female,2020-09-18_16h09.40.793,torte-2b,2020.1.3,MacIntel,60,13389,,,,,,,,,,,,,,0,25,25,25,1,6,,,,,,,,,,,,,,,,,,,,,,,,,,,,,,,,,,,,,,,,,,,,,,,
,,,,,,,,,,,,,,,,,,,,,,,20,Female,2020-09-18_16h09.40.793,torte-2b,2020.1.3,MacIntel,60,13389,,,,,,,,,,,,,space,0,26,26,26,1,6,0.49337,,,,,,,,,,,,,,,,,,,,,,,,,,,,,,,,,,,,,,,,,,,,,,
,,,,,,,,,,,,,,,,,,,,,,,20,Female,2020-09-18_16h09.40.793,torte-2b,2020.1.3,MacIntel,60,13389,,,,,,,,,,,,,,0,27,27,27,1,6,,,,,,,,,,,,,,,,,,,,,,,,,,,,,,,,,,,,,,,,,,,,,,,
,,,,,,,,,,,,,,,,,,,,,,,20,Female,2020-09-18_16h09.40.793,torte-2b,2020.1.3,MacIntel,60,13389,,,,,,,,,,,,,,0,28,28,28,1,5,,,,,,,,,,,,,,,,,,,,,,,,,,,,,,,,,,,,,,,,,,,,,,,
,,,,,,,,,,,,,,,,,,,,,,,20,Female,2020-09-18_16h09.40.793,torte-2b,2020.1.3,MacIntel,60,13389,,,,,,,,,,,,,,0,29,29,29,1,2,,,,,,,,,,,,,,,,,,,,,,,,,,,,,,,,,,,,,,,,,,,,,,,
,,,,,,,,,,,,,,,,,,,,,,,20,Female,2020-09-18_16h09.40.793,torte-2b,2020.1.3,MacIntel,60,13389,,,,,,,,,,,,,,0,30,30,30,1,5,,,,,,,,,,,,,,,,,,,,,,,,,,,,,,,,,,,,,,,,,,,,,,,
,,,,,,,,,,,,,,,,,,,,,,,20,Female,2020-09-18_16h09.40.793,torte-2b,2020.1.3,MacIntel,60,13389,,,,,,,,,,,,,,0,31,31,31,1,2,,,,,,,,,,,,,,,,,,,,,,,,,,,,,,,,,,,,,,,,,,,,,,,
,,,,,,,,,,,,,,,,,,,,,,,20,Female,2020-09-18_16h09.40.793,torte-2b,2020.1.3,MacIntel,60,13389,,,,,,,,,,,,,space,0,32,32,32,1,5,0.539155,,,,,,,,,,,,,,,,,,,,,,,,,,,,,,,,,,,,,,,,,,,,,,
,,,,,,,,,,,,,,,,,,,,,,,20,Female,2020-09-18_16h09.40.793,torte-2b,2020.1.3,MacIntel,60,13389,,,,,,,,,,,,,,0,33,33,33,1,1,,,,,,,,,,,,,,,,,,,,,,,,,,,,,,,,,,,,,,,,,,,,,,,
,,,,,,,,,,,,,,,,,,,,,,,20,Female,2020-09-18_16h09.40.793,torte-2b,2020.1.3,MacIntel,60,13389,,,,,,,,,,,,,,0,34,34,34,1,1,,,,,,,,,,,,,,,,,,,,,,,,,,,,,,,,,,,,,,,,,,,,,,,
,,,,,,,,,,,,,,,,,,,,,,,20,Female,2020-09-18_16h09.40.793,torte-2b,2020.1.3,MacIntel,60,13389,,,,,,,,,,,,,,,,,,,2,,0,0,0,0,1,,,,,,,,,,,,,,,,,,,,,,,,,,,,,,,,,,,,,,,,,
,,,,,,,,,,,,,,,,,,,,,,,20,Female,2020-09-18_16h09.40.793,torte-2b,2020.1.3,MacIntel,60,13389,,,,,,,,,,,,,,,,,,,2,,0,1,1,1,1,,,,,,,,,,,,,,,,,,,,,,,,,,,,,,,,,,,,,,,,,
,,,,,,,,,,,,,,,,,,,,,,,20,Female,2020-09-18_16h09.40.793,torte-2b,2020.1.3,MacIntel,60,13389,,,,,,,,,,,,,,,,,,,6,,0,2,2,2,1,,,,,,,,,,,,,,,,,,,,,,,,,,,,,,,,,,,,,,,,,
,,,,,,,,,,,,,,,,,,,,,,,20,Female,2020-09-18_16h09.40.793,torte-2b,2020.1.3,MacIntel,60,13389,,,,,,,,,,,,,,,,,,,2,,0,3,3,3,1,,,,,,,,,,,,,,,,,,,,,,,,,,,,,,,,,,,,,,,,,
,,,,,,,,,,,,,,,,,,,,,,,20,Female,2020-09-18_16h09.40.793,torte-2b,2020.1.3,MacIntel,60,13389,,,,,,,,,,,,,,,,,,,6,,0,4,4,4,1,,,,,,,,,,,,,,,,,,,,,,,,,,,,,,,,,,,,,,,,,
,,,,,,,,,,,,,,,,,,,,,,,20,Female,2020-09-18_16h09.40.793,torte-2b,2020.1.3,MacIntel,60,13389,,,,,,,,,,,,,space,,,,,,2,0.65622,0,5,5,5,1,,,,,,,,,,,,,,,,,,,,,,,,,,,,,,,,,,,,,,,,,
,,,,,,,,,,,,,,,,,,,,,,,20,Female,2020-09-18_16h09.40.793,torte-2b,2020.1.3,MacIntel,60,13389,,,,,,,,,,,,,,,,,,,7,,0,6,6,6,1,,,,,,,,,,,,,,,,,,,,,,,,,,,,,,,,,,,,,,,,,
,,,,,,,,,,,,,,,,,,,,,,,20,Female,2020-09-18_16h09.40.793,torte-2b,2020.1.3,MacIntel,60,13389,,,,,,,,,,,,,,,,,,,2,,0,7,7,7,1,,,,,,,,,,,,,,,,,,,,,,,,,,,,,,,,,,,,,,,,,
,,,,,,,,,,,,,,,,,,,,,,,20,Female,2020-09-18_16h09.40.793,torte-2b,2020.1.3,MacIntel,60,13389,,,,,,,,,,,,,space,,,,,,7,0.651035,0,8,8,8,1,,,,,,,,,,,,,,,,,,,,,,,,,,,,,,,,,,,,,,,,,
,,,,,,,,,,,,,,,,,,,,,,,20,Female,2020-09-18_16h09.40.793,torte-2b,2020.1.3,MacIntel,60,13389,,,,,,,,,,,,,,,,,,,2,,0,9,9,9,1,,,,,,,,,,,,,,,,,,,,,,,,,,,,,,,,,,,,,,,,,
,,,,,,,,,,,,,,,,,,,,,,,20,Female,2020-09-18_16h09.40.793,torte-2b,2020.1.3,MacIntel,60,13389,,,,,,,,,,,,,,,,,,,5,,0,10,10,10,1,,,,,,,,,,,,,,,,,,,,,,,,,,,,,,,,,,,,,,,,,
,,,,,,,,,,,,,,,,,,,,,,,20,Female,2020-09-18_16h09.40.793,torte-2b,2020.1.3,MacIntel,60,13389,,,,,,,,,,,,,,,,,,,4,,0,11,11,11,1,,,,,,,,,,,,,,,,,,,,,,,,,,,,,,,,,,,,,,,,,
,,,,,,,,,,,,,,,,,,,,,,,20,Female,2020-09-18_16h09.40.793,torte-2b,2020.1.3,MacIntel,60,13389,,,,,,,,,,,,,,,,,,,5,,0,12,12,12,1,,,,,,,,,,,,,,,,,,,,,,,,,,,,,,,,,,,,,,,,,
,,,,,,,,,,,,,,,,,,,,,,,20,Female,2020-09-18_16h09.40.793,torte-2b,2020.1.3,MacIntel,60,13389,,,,,,,,,,,,,,,,,,,6,,0,13,13,13,1,,,,,,,,,,,,,,,,,,,,,,,,,,,,,,,,,,,,,,,,,
,,,,,,,,,,,,,,,,,,,,,,,20,Female,2020-09-18_16h09.40.793,torte-2b,2020.1.3,MacIntel,60,13389,,,,,,,,,,,,,space,,,,,,5,0.523065,0,14,14,14,1,,,,,,,,,,,,,,,,,,,,,,,,,,,,,,,,,,,,,,,,,
,,,,,,,,,,,,,,,,,,,,,,,20,Female,2020-09-18_16h09.40.793,torte-2b,2020.1.3,MacIntel,60,13389,,,,,,,,,,,,,,,,,,,4,,0,15,15,15,1,,,,,,,,,,,,,,,,,,,,,,,,,,,,,,,,,,,,,,,,,
,,,,,,,,,,,,,,,,,,,,,,,20,Female,2020-09-18_16h09.40.793,torte-2b,2020.1.3,MacIntel,60,13389,,,,,,,,,,,,,space,,,,,,5,1.135775,0,16,16,16,1,,,,,,,,,,,,,,,,,,,,,,,,,,,,,,,,,,,,,,,,,
,,,,,,,,,,,,,,,,,,,,,,,20,Female,2020-09-18_16h09.40.793,torte-2b,2020.1.3,MacIntel,60,13389,,,,,,,,,,,,,,,,,,,3,,0,17,17,17,1,,,,,,,,,,,,,,,,,,,,,,,,,,,,,,,,,,,,,,,,,
,,,,,,,,,,,,,,,,,,,,,,,20,Female,2020-09-18_16h09.40.793,torte-2b,2020.1.3,MacIntel,60,13389,,,,,,,,,,,,,,,,,,,6,,0,18,18,18,1,,,,,,,,,,,,,,,,,,,,,,,,,,,,,,,,,,,,,,,,,
,,,,,,,,,,,,,,,,,,,,,,,20,Female,2020-09-18_16h09.40.793,torte-2b,2020.1.3,MacIntel,60,13389,,,,,,,,,,,,,space,,,,,,6,0.565965,0,19,19,19,1,,,,,,,,,,,,,,,,,,,,,,,,,,,,,,,,,,,,,,,,,
,,,,,,,,,,,,,,,,,,,,,,,20,Female,2020-09-18_16h09.40.793,torte-2b,2020.1.3,MacIntel,60,13389,,,,,,,,,,,,,,,,,,,6,,0,20,20,20,1,,,,,,,,,,,,,,,,,,,,,,,,,,,,,,,,,,,,,,,,,
,,,,,,,,,,,,,,,,,,,,,,,20,Female,2020-09-18_16h09.40.793,torte-2b,2020.1.3,MacIntel,60,13389,,,,,,,,,,,,,,,,,,,4,,0,21,21,21,1,,,,,,,,,,,,,,,,,,,,,,,,,,,,,,,,,,,,,,,,,
,,,,,,,,,,,,,,,,,,,,,,,20,Female,2020-09-18_16h09.40.793,torte-2b,2020.1.3,MacIntel,60,13389,,,,,,,,,,,,,space,,,,,,6,0.461925,0,22,22,22,1,,,,,,,,,,,,,,,,,,,,,,,,,,,,,,,,,,,,,,,,,
,,,,,,,,,,,,,,,,,,,,,,,20,Female,2020-09-18_16h09.40.793,torte-2b,2020.1.3,MacIntel,60,13389,,,,,,,,,,,,,,,,,,,4,,0,23,23,23,1,,,,,,,,,,,,,,,,,,,,,,,,,,,,,,,,,,,,,,,,,
,,,,,,,,,,,,,,,,,,,,,,,20,Female,2020-09-18_16h09.40.793,torte-2b,2020.1.3,MacIntel,60,13389,,,,,,,,,,,,,,,,,,,6,,0,24,24,24,1,,,,,,,,,,,,,,,,,,,,,,,,,,,,,,,,,,,,,,,,,
,,,,,,,,,,,,,,,,,,,,,,,20,Female,2020-09-18_16h09.40.793,torte-2b,2020.1.3,MacIntel,60,13389,,,,,,,,,,,,,space,,,,,,6,0.465875,0,25,25,25,1,,,,,,,,,,,,,,,,,,,,,,,,,,,,,,,,,,,,,,,,,
,,,,,,,,,,,,,,,,,,,,,,,20,Female,2020-09-18_16h09.40.793,torte-2b,2020.1.3,MacIntel,60,13389,,,,,,,,,,,,,,,,,,,7,,0,26,26,26,1,,,,,,,,,,,,,,,,,,,,,,,,,,,,,,,,,,,,,,,,,
,,,,,,,,,,,,,,,,,,,,,,,20,Female,2020-09-18_16h09.40.793,torte-2b,2020.1.3,MacIntel,60,13389,,,,,,,,,,,,,,,,,,,1,,0,27,27,27,1,,,,,,,,,,,,,,,,,,,,,,,,,,,,,,,,,,,,,,,,,
,,,,,,,,,,,,,,,,,,,,,,,20,Female,2020-09-18_16h09.40.793,torte-2b,2020.1.3,MacIntel,60,13389,,,,,,,,,,,,,space,,,,,,7,0.45727,0,28,28,28,1,,,,,,,,,,,,,,,,,,,,,,,,,,,,,,,,,,,,,,,,,
,,,,,,,,,,,,,,,,,,,,,,,20,Female,2020-09-18_16h09.40.793,torte-2b,2020.1.3,MacIntel,60,13389,,,,,,,,,,,,,,,,,,,4,,0,29,29,29,1,,,,,,,,,,,,,,,,,,,,,,,,,,,,,,,,,,,,,,,,,
,,,,,,,,,,,,,,,,,,,,,,,20,Female,2020-09-18_16h09.40.793,torte-2b,2020.1.3,MacIntel,60,13389,,,,,,,,,,,,,,,,,,,7,,0,30,30,30,1,,,,,,,,,,,,,,,,,,,,,,,,,,,,,,,,,,,,,,,,,
,,,,,,,,,,,,,,,,,,,,,,,20,Female,2020-09-18_16h09.40.793,torte-2b,2020.1.3,MacIntel,60,13389,,,,,,,,,,,,,,,,,,,3,,0,31,31,31,1,,,,,,,,,,,,,,,,,,,,,,,,,,,,,,,,,,,,,,,,,
,,,,,,,,,,,,,,,,,,,,,,,20,Female,2020-09-18_16h09.40.793,torte-2b,2020.1.3,MacIntel,60,13389,,,,,,,,,,,,,,,,,,,2,,0,32,32,32,1,,,,,,,,,,,,,,,,,,,,,,,,,,,,,,,,,,,,,,,,,
,,,,,,,,,,,,,,,,,,,,,,,20,Female,2020-09-18_16h09.40.793,torte-2b,2020.1.3,MacIntel,60,13389,,,,,,,,,,,,,,,,,,,6,,0,33,33,33,1,,,,,,,,,,,,,,,,,,,,,,,,,,,,,,,,,,,,,,,,,
,,,,,,,,,,,,,,,,,,,,,,,20,Female,2020-09-18_16h09.40.793,torte-2b,2020.1.3,MacIntel,60,13389,,,,,,,,,,,,,,,,,,,3,,0,34,34,34,1,,,,,,,,,,,,,,,,,,,,,,,,,,,,,,,,,,,,,,,,,
,,,,,,,,,,,,,,,,,,,,,,,20,Female,2020-09-18_16h09.40.793,torte-2b,2020.1.3,MacIntel,60,13389,,,,,,,,,,,,,,,,,,,7,,,,,,,0,0,0,0,1,,,,,,,,,,,,,,,,,,,,,,,,,,,,,,,,,,,,
,,,,,,,,,,,,,,,,,,,,,,,20,Female,2020-09-18_16h09.40.793,torte-2b,2020.1.3,MacIntel,60,13389,,,,,,,,,,,,,,,,,,,5,,,,,,,0,1,1,1,1,,,,,,,,,,,,,,,,,,,,,,,,,,,,,,,,,,,,
,,,,,,,,,,,,,,,,,,,,,,,20,Female,2020-09-18_16h09.40.793,torte-2b,2020.1.3,MacIntel,60,13389,,,,,,,,,,,,,,,,,,,4,,,,,,,0,2,2,2,1,,,,,,,,,,,,,,,,,,,,,,,,,,,,,,,,,,,,
,,,,,,,,,,,,,,,,,,,,,,,20,Female,2020-09-18_16h09.40.793,torte-2b,2020.1.3,MacIntel,60,13389,,,,,,,,,,,,,,,,,,,5,,,,,,,0,3,3,3,1,,,,,,,,,,,,,,,,,,,,,,,,,,,,,,,,,,,,
,,,,,,,,,,,,,,,,,,,,,,,20,Female,2020-09-18_16h09.40.793,torte-2b,2020.1.3,MacIntel,60,13389,,,,,,,,,,,,,,,,,,,6,,,,,,,0,4,4,4,1,,,,,,,,,,,,,,,,,,,,,,,,,,,,,,,,,,,,
,,,,,,,,,,,,,,,,,,,,,,,20,Female,2020-09-18_16h09.40.793,torte-2b,2020.1.3,MacIntel,60,13389,,,,,,,,,,,,,space,,,,,,5,0.44115,,,,,,0,5,5,5,1,,,,,,,,,,,,,,,,,,,,,,,,,,,,,,,,,,,,
,,,,,,,,,,,,,,,,,,,,,,,20,Female,2020-09-18_16h09.40.793,torte-2b,2020.1.3,MacIntel,60,13389,,,,,,,,,,,,,,,,,,,3,,,,,,,0,6,6,6,1,,,,,,,,,,,,,,,,,,,,,,,,,,,,,,,,,,,,
,,,,,,,,,,,,,,,,,,,,,,,20,Female,2020-09-18_16h09.40.793,torte-2b,2020.1.3,MacIntel,60,13389,,,,,,,,,,,,,,,,,,,4,,,,,,,0,7,7,7,1,,,,,,,,,,,,,,,,,,,,,,,,,,,,,,,,,,,,
,,,,,,,,,,,,,,,,,,,,,,,20,Female,2020-09-18_16h09.40.793,torte-2b,2020.1.3,MacIntel,60,13389,,,,,,,,,,,,,space,,,,,,3,0.43445,,,,,,0,8,8,8,1,,,,,,,,,,,,,,,,,,,,,,,,,,,,,,,,,,,,
,,,,,,,,,,,,,,,,,,,,,,,20,Female,2020-09-18_16h09.40.793,torte-2b,2020.1.3,MacIntel,60,13389,,,,,,,,,,,,,,,,,,,1,,,,,,,0,9,9,9,1,,,,,,,,,,,,,,,,,,,,,,,,,,,,,,,,,,,,
,,,,,,,,,,,,,,,,,,,,,,,20,Female,2020-09-18_16h09.40.793,torte-2b,2020.1.3,MacIntel,60,13389,,,,,,,,,,,,,,,,,,,2,,,,,,,0,10,10,10,1,,,,,,,,,,,,,,,,,,,,,,,,,,,,,,,,,,,,
,,,,,,,,,,,,,,,,,,,,,,,20,Female,2020-09-18_16h09.40.793,torte-2b,2020.1.3,MacIntel,60,13389,,,,,,,,,,,,,space,,,,,,1,0.810185,,,,,,0,11,11,11,1,,,,,,,,,,,,,,,,,,,,,,,,,,,,,,,,,,,,
,,,,,,,,,,,,,,,,,,,,,,,20,Female,2020-09-18_16h09.40.793,torte-2b,2020.1.3,MacIntel,60,13389,,,,,,,,,,,,,,,,,,,2,,,,,,,0,12,12,12,1,,,,,,,,,,,,,,,,,,,,,,,,,,,,,,,,,,,,
,,,,,,,,,,,,,,,,,,,,,,,20,Female,2020-09-18_16h09.40.793,torte-2b,2020.1.3,MacIntel,60,13389,,,,,,,,,,,,,,,,,,,1,,,,,,,0,13,13,13,1,,,,,,,,,,,,,,,,,,,,,,,,,,,,,,,,,,,,
,,,,,,,,,,,,,,,,,,,,,,,20,Female,2020-09-18_16h09.40.793,torte-2b,2020.1.3,MacIntel,60,13389,,,,,,,,,,,,,,,,,,,3,,,,,,,0,14,14,14,1,,,,,,,,,,,,,,,,,,,,,,,,,,,,,,,,,,,,
,,,,,,,,,,,,,,,,,,,,,,,20,Female,2020-09-18_16h09.40.793,torte-2b,2020.1.3,MacIntel,60,13389,,,,,,,,,,,,,,,,,,,1,,,,,,,0,15,15,15,1,,,,,,,,,,,,,,,,,,,,,,,,,,,,,,,,,,,,
,,,,,,,,,,,,,,,,,,,,,,,20,Female,2020-09-18_16h09.40.793,torte-2b,2020.1.3,MacIntel,60,13389,,,,,,,,,,,,,,,,,,,7,,,,,,,0,16,16,16,1,,,,,,,,,,,,,,,,,,,,,,,,,,,,,,,,,,,,
,,,,,,,,,,,,,,,,,,,,,,,20,Female,2020-09-18_16h09.40.793,torte-2b,2020.1.3,MacIntel,60,13389,,,,,,,,,,,,,space,,,,,,7,0.45858,,,,,,0,17,17,17,1,,,,,,,,,,,,,,,,,,,,,,,,,,,,,,,,,,,,
,,,,,,,,,,,,,,,,,,,,,,,20,Female,2020-09-18_16h09.40.793,torte-2b,2020.1.3,MacIntel,60,13389,,,,,,,,,,,,,,,,,,,4,,,,,,,0,18,18,18,1,,,,,,,,,,,,,,,,,,,,,,,,,,,,,,,,,,,,
,,,,,,,,,,,,,,,,,,,,,,,20,Female,2020-09-18_16h09.40.793,torte-2b,2020.1.3,MacIntel,60,13389,,,,,,,,,,,,,,,,,,,7,,,,,,,0,19,19,19,1,,,,,,,,,,,,,,,,,,,,,,,,,,,,,,,,,,,,
,,,,,,,,,,,,,,,,,,,,,,,20,Female,2020-09-18_16h09.40.793,torte-2b,2020.1.3,MacIntel,60,13389,,,,,,,,,,,,,,,,,,,3,,,,,,,0,20,20,20,1,,,,,,,,,,,,,,,,,,,,,,,,,,,,,,,,,,,,
,,,,,,,,,,,,,,,,,,,,,,,20,Female,2020-09-18_16h09.40.793,torte-2b,2020.1.3,MacIntel,60,13389,,,,,,,,,,,,,,,,,,,7,,,,,,,0,21,21,21,1,,,,,,,,,,,,,,,,,,,,,,,,,,,,,,,,,,,,
,,,,,,,,,,,,,,,,,,,,,,,20,Female,2020-09-18_16h09.40.793,torte-2b,2020.1.3,MacIntel,60,13389,,,,,,,,,,,,,,,,,,,3,,,,,,,0,22,22,22,1,,,,,,,,,,,,,,,,,,,,,,,,,,,,,,,,,,,,
,,,,,,,,,,,,,,,,,,,,,,,20,Female,2020-09-18_16h09.40.793,torte-2b,2020.1.3,MacIntel,60,13389,,,,,,,,,,,,,,,,,,,1,,,,,,,0,23,23,23,1,,,,,,,,,,,,,,,,,,,,,,,,,,,,,,,,,,,,
,,,,,,,,,,,,,,,,,,,,,,,20,Female,2020-09-18_16h09.40.793,torte-2b,2020.1.3,MacIntel,60,13389,,,,,,,,,,,,,,,,,,,6,,,,,,,0,24,24,24,1,,,,,,,,,,,,,,,,,,,,,,,,,,,,,,,,,,,,
,,,,,,,,,,,,,,,,,,,,,,,20,Female,2020-09-18_16h09.40.793,torte-2b,2020.1.3,MacIntel,60,13389,,,,,,,,,,,,,,,,,,,3,,,,,,,0,25,25,25,1,,,,,,,,,,,,,,,,,,,,,,,,,,,,,,,,,,,,
,,,,,,,,,,,,,,,,,,,,,,,20,Female,2020-09-18_16h09.40.793,torte-2b,2020.1.3,MacIntel,60,13389,,,,,,,,,,,,,,,,,,,2,,,,,,,0,26,26,26,1,,,,,,,,,,,,,,,,,,,,,,,,,,,,,,,,,,,,
,,,,,,,,,,,,,,,,,,,,,,,20,Female,2020-09-18_16h09.40.793,torte-2b,2020.1.3,MacIntel,60,13389,,,,,,,,,,,,,,,,,,,3,,,,,,,0,27,27,27,1,,,,,,,,,,,,,,,,,,,,,,,,,,,,,,,,,,,,
,,,,,,,,,,,,,,,,,,,,,,,20,Female,2020-09-18_16h09.40.793,torte-2b,2020.1.3,MacIntel,60,13389,,,,,,,,,,,,,,,,,,,1,,,,,,,0,28,28,28,1,,,,,,,,,,,,,,,,,,,,,,,,,,,,,,,,,,,,
,,,,,,,,,,,,,,,,,,,,,,,20,Female,2020-09-18_16h09.40.793,torte-2b,2020.1.3,MacIntel,60,13389,,,,,,,,,,,,,space,,,,,,3,0.47838,,,,,,0,29,29,29,1,,,,,,,,,,,,,,,,,,,,,,,,,,,,,,,,,,,,
,,,,,,,,,,,,,,,,,,,,,,,20,Female,2020-09-18_16h09.40.793,torte-2b,2020.1.3,MacIntel,60,13389,,,,,,,,,,,,,,,,,,,1,,,,,,,0,30,30,30,1,,,,,,,,,,,,,,,,,,,,,,,,,,,,,,,,,,,,
,,,,,,,,,,,,,,,,,,,,,,,20,Female,2020-09-18_16h09.40.793,torte-2b,2020.1.3,MacIntel,60,13389,,,,,,,,,,,,,,,,,,,7,,,,,,,0,31,31,31,1,,,,,,,,,,,,,,,,,,,,,,,,,,,,,,,,,,,,
,,,,,,,,,,,,,,,,,,,,,,,20,Female,2020-09-18_16h09.40.793,torte-2b,2020.1.3,MacIntel,60,13389,,,,,,,,,,,,,,,,,,,5,,,,,,,0,32,32,32,1,,,,,,,,,,,,,,,,,,,,,,,,,,,,,,,,,,,,
,,,,,,,,,,,,,,,,,,,,,,,20,Female,2020-09-18_16h09.40.793,torte-2b,2020.1.3,MacIntel,60,13389,,,,,,,,,,,,,,,,,,,7,,,,,,,0,33,33,33,1,,,,,,,,,,,,,,,,,,,,,,,,,,,,,,,,,,,,
,,,,,,,,,,,,,,,,,,,,,,,20,Female,2020-09-18_16h09.40.793,torte-2b,2020.1.3,MacIntel,60,13389,,,,,,,,,,,,,,,,,,,2,,,,,,,0,34,34,34,1,,,,,,,,,,,,,,,,,,,,,,,,,,,,,,,,,,,,
,,,,,,,,,,,,,,,,,,,,,,,20,Female,2020-09-18_16h09.40.793,torte-2b,2020.1.3,MacIntel,60,13389,,,,,,,,,,,,,,,,,,,3,,,,,,,,,,,,0,0,0,0,1,,,,,,,,,,,,,,,,,,,,,,,,,,,,,,,
,,,,,,,,,,,,,,,,,,,,,,,20,Female,2020-09-18_16h09.40.793,torte-2b,2020.1.3,MacIntel,60,13389,,,,,,,,,,,,,,,,,,,7,,,,,,,,,,,,0,1,1,1,1,,,,,,,,,,,,,,,,,,,,,,,,,,,,,,,
,,,,,,,,,,,,,,,,,,,,,,,20,Female,2020-09-18_16h09.40.793,torte-2b,2020.1.3,MacIntel,60,13389,,,,,,,,,,,,,space,,,,,,7,0.45396,,,,,,,,,,,0,2,2,2,1,,,,,,,,,,,,,,,,,,,,,,,,,,,,,,,
,,,,,,,,,,,,,,,,,,,,,,,20,Female,2020-09-18_16h09.40.793,torte-2b,2020.1.3,MacIntel,60,13389,,,,,,,,,,,,,,,,,,,4,,,,,,,,,,,,0,3,3,3,1,,,,,,,,,,,,,,,,,,,,,,,,,,,,,,,
,,,,,,,,,,,,,,,,,,,,,,,20,Female,2020-09-18_16h09.40.793,torte-2b,2020.1.3,MacIntel,60,13389,,,,,,,,,,,,,,,,,,,5,,,,,,,,,,,,0,4,4,4,1,,,,,,,,,,,,,,,,,,,,,,,,,,,,,,,
,,,,,,,,,,,,,,,,,,,,,,,20,Female,2020-09-18_16h09.40.793,torte-2b,2020.1.3,MacIntel,60,13389,,,,,,,,,,,,,space,,,,,,4,0.528315,,,,,,,,,,,0,5,5,5,1,,,,,,,,,,,,,,,,,,,,,,,,,,,,,,,
,,,,,,,,,,,,,,,,,,,,,,,20,Female,2020-09-18_16h09.40.793,torte-2b,2020.1.3,MacIntel,60,13389,,,,,,,,,,,,,,,,,,,2,,,,,,,,,,,,0,6,6,6,1,,,,,,,,,,,,,,,,,,,,,,,,,,,,,,,
,,,,,,,,,,,,,,,,,,,,,,,20,Female,2020-09-18_16h09.40.793,torte-2b,2020.1.3,MacIntel,60,13389,,,,,,,,,,,,,,,,,,,4,,,,,,,,,,,,0,7,7,7,1,,,,,,,,,,,,,,,,,,,,,,,,,,,,,,,
,,,,,,,,,,,,,,,,,,,,,,,20,Female,2020-09-18_16h09.40.793,torte-2b,2020.1.3,MacIntel,60,13389,,,,,,,,,,,,,,,,,,,2,,,,,,,,,,,,0,8,8,8,1,,,,,,,,,,,,,,,,,,,,,,,,,,,,,,,
,,,,,,,,,,,,,,,,,,,,,,,20,Female,2020-09-18_16h09.40.793,torte-2b,2020.1.3,MacIntel,60,13389,,,,,,,,,,,,,,,,,,,2,,,,,,,,,,,,0,9,9,9,1,,,,,,,,,,,,,,,,,,,,,,,,,,,,,,,
,,,,,,,,,,,,,,,,,,,,,,,20,Female,2020-09-18_16h09.40.793,torte-2b,2020.1.3,MacIntel,60,13389,,,,,,,,,,,,,,,,,,,6,,,,,,,,,,,,0,10,10,10,1,,,,,,,,,,,,,,,,,,,,,,,,,,,,,,,
,,,,,,,,,,,,,,,,,,,,,,,20,Female,2020-09-18_16h09.40.793,torte-2b,2020.1.3,MacIntel,60,13389,,,,,,,,,,,,,space,,,,,,2,0.45367,,,,,,,,,,,0,11,11,11,1,,,,,,,,,,,,,,,,,,,,,,,,,,,,,,,
,,,,,,,,,,,,,,,,,,,,,,,20,Female,2020-09-18_16h09.40.793,torte-2b,2020.1.3,MacIntel,60,13389,,,,,,,,,,,,,,,,,,,2,,,,,,,,,,,,0,12,12,12,1,,,,,,,,,,,,,,,,,,,,,,,,,,,,,,,
,,,,,,,,,,,,,,,,,,,,,,,20,Female,2020-09-18_16h09.40.793,torte-2b,2020.1.3,MacIntel,60,13389,,,,,,,,,,,,,,,,,,,2,,,,,,,,,,,,0,13,13,13,1,,,,,,,,,,,,,,,,,,,,,,,,,,,,,,,
,,,,,,,,,,,,,,,,,,,,,,,20,Female,2020-09-18_16h09.40.793,torte-2b,2020.1.3,MacIntel,60,13389,,,,,,,,,,,,,space,,,,,,2,0.422375,,,,,,,,,,,0,14,14,14,1,,,,,,,,,,,,,,,,,,,,,,,,,,,,,,,
,,,,,,,,,,,,,,,,,,,,,,,20,Female,2020-09-18_16h09.40.793,torte-2b,2020.1.3,MacIntel,60,13389,,,,,,,,,,,,,,,,,,,4,,,,,,,,,,,,0,15,15,15,1,,,,,,,,,,,,,,,,,,,,,,,,,,,,,,,
,,,,,,,,,,,,,,,,,,,,,,,20,Female,2020-09-18_16h09.40.793,torte-2b,2020.1.3,MacIntel,60,13389,,,,,,,,,,,,,,,,,,,3,,,,,,,,,,,,0,16,16,16,1,,,,,,,,,,,,,,,,,,,,,,,,,,,,,,,
,,,,,,,,,,,,,,,,,,,,,,,20,Female,2020-09-18_16h09.40.793,torte-2b,2020.1.3,MacIntel,60,13389,,,,,,,,,,,,,,,,,,,7,,,,,,,,,,,,0,17,17,17,1,,,,,,,,,,,,,,,,,,,,,,,,,,,,,,,
,,,,,,,,,,,,,,,,,,,,,,,20,Female,2020-09-18_16h09.40.793,torte-2b,2020.1.3,MacIntel,60,13389,,,,,,,,,,,,,,,,,,,4,,,,,,,,,,,,0,18,18,18,1,,,,,,,,,,,,,,,,,,,,,,,,,,,,,,,
,,,,,,,,,,,,,,,,,,,,,,,20,Female,2020-09-18_16h09.40.793,torte-2b,2020.1.3,MacIntel,60,13389,,,,,,,,,,,,,,,,,,,7,,,,,,,,,,,,0,19,19,19,1,,,,,,,,,,,,,,,,,,,,,,,,,,,,,,,
,,,,,,,,,,,,,,,,,,,,,,,20,Female,2020-09-18_16h09.40.793,torte-2b,2020.1.3,MacIntel,60,13389,,,,,,,,,,,,,space,,,,,,7,0.422295,,,,,,,,,,,0,20,20,20,1,,,,,,,,,,,,,,,,,,,,,,,,,,,,,,,
,,,,,,,,,,,,,,,,,,,,,,,20,Female,2020-09-18_16h09.40.793,torte-2b,2020.1.3,MacIntel,60,13389,,,,,,,,,,,,,,,,,,,7,,,,,,,,,,,,0,21,21,21,1,,,,,,,,,,,,,,,,,,,,,,,,,,,,,,,
,,,,,,,,,,,,,,,,,,,,,,,20,Female,2020-09-18_16h09.40.793,torte-2b,2020.1.3,MacIntel,60,13389,,,,,,,,,,,,,,,,,,,7,,,,,,,,,,,,0,22,22,22,1,,,,,,,,,,,,,,,,,,,,,,,,,,,,,,,
,,,,,,,,,,,,,,,,,,,,,,,20,Female,2020-09-18_16h09.40.793,torte-2b,2020.1.3,MacIntel,60,13389,,,,,,,,,,,,,,,,,,,1,,,,,,,,,,,,0,23,23,23,1,,,,,,,,,,,,,,,,,,,,,,,,,,,,,,,
,,,,,,,,,,,,,,,,,,,,,,,20,Female,2020-09-18_16h09.40.793,torte-2b,2020.1.3,MacIntel,60,13389,,,,,,,,,,,,,,,,,,,7,,,,,,,,,,,,0,24,24,24,1,,,,,,,,,,,,,,,,,,,,,,,,,,,,,,,
,,,,,,,,,,,,,,,,,,,,,,,20,Female,2020-09-18_16h09.40.793,torte-2b,2020.1.3,MacIntel,60,13389,,,,,,,,,,,,,,,,,,,1,,,,,,,,,,,,0,25,25,25,1,,,,,,,,,,,,,,,,,,,,,,,,,,,,,,,
,,,,,,,,,,,,,,,,,,,,,,,20,Female,2020-09-18_16h09.40.793,torte-2b,2020.1.3,MacIntel,60,13389,,,,,,,,,,,,,space,,,,,,7,0.51536,,,,,,,,,,,0,26,26,26,1,,,,,,,,,,,,,,,,,,,,,,,,,,,,,,,
,,,,,,,,,,,,,,,,,,,,,,,20,Female,2020-09-18_16h09.40.793,torte-2b,2020.1.3,MacIntel,60,13389,,,,,,,,,,,,,,,,,,,2,,,,,,,,,,,,0,27,27,27,1,,,,,,,,,,,,,,,,,,,,,,,,,,,,,,,
,,,,,,,,,,,,,,,,,,,,,,,20,Female,2020-09-18_16h09.40.793,torte-2b,2020.1.3,MacIntel,60,13389,,,,,,,,,,,,,,,,,,,5,,,,,,,,,,,,0,28,28,28,1,,,,,,,,,,,,,,,,,,,,,,,,,,,,,,,
,,,,,,,,,,,,,,,,,,,,,,,20,Female,2020-09-18_16h09.40.793,torte-2b,2020.1.3,MacIntel,60,13389,,,,,,,,,,,,,space,,,,,,5,0.579335,,,,,,,,,,,0,29,29,29,1,,,,,,,,,,,,,,,,,,,,,,,,,,,,,,,
,,,,,,,,,,,,,,,,,,,,,,,20,Female,2020-09-18_16h09.40.793,torte-2b,2020.1.3,MacIntel,60,13389,,,,,,,,,,,,,,,,,,,5,,,,,,,,,,,,0,30,30,30,1,,,,,,,,,,,,,,,,,,,,,,,,,,,,,,,
,,,,,,,,,,,,,,,,,,,,,,,20,Female,2020-09-18_16h09.40.793,torte-2b,2020.1.3,MacIntel,60,13389,,,,,,,,,,,,,,,,,,,1,,,,,,,,,,,,0,31,31,31,1,,,,,,,,,,,,,,,,,,,,,,,,,,,,,,,
,,,,,,,,,,,,,,,,,,,,,,,20,Female,2020-09-18_16h09.40.793,torte-2b,2020.1.3,MacIntel,60,13389,,,,,,,,,,,,,,,,,,,5,,,,,,,,,,,,0,32,32,32,1,,,,,,,,,,,,,,,,,,,,,,,,,,,,,,,
,,,,,,,,,,,,,,,,,,,,,,,20,Female,2020-09-18_16h09.40.793,torte-2b,2020.1.3,MacIntel,60,13389,,,,,,,,,,,,,,,,,,,3,,,,,,,,,,,,0,33,33,33,1,,,,,,,,,,,,,,,,,,,,,,,,,,,,,,,
,,,,,,,,,,,,,,,,,,,,,,,20,Female,2020-09-18_16h09.40.793,torte-2b,2020.1.3,MacIntel,60,13389,,,,,,,,,,,,,,,,,,,3,,,,,,,,,,,,0,34,34,34,1,,,,,,,,,,,,,,,,,,,,,,,,,,,,,,,
,,,,,,,,,,,,l,Correct!,,,,,,t1.png,t5.png,4,9.55E-11,20,Female,2020-09-18_16h09.40.793,torte-2b,2020.1.3,MacIntel,60,13389,1.43396,space,1.85596,,,,,,,,,,,,,,,,,,,,,,,,,,,,,,,,,l,24.369725,0,0,0,41,1,,,,,,,,,,,,,,,,,,,,,,,,
,,,,,,,,,,,,a,Incorrect,,,,,,t5.png,t1.png,4,9.55E-11,20,Female,2020-09-18_16h09.40.793,torte-2b,2020.1.3,MacIntel,60,13389,0.908345,,,,,,,,,,,,,,,,,,,,,,,,,,,,,,,,,,,,,0,1,1,100,1,,,,,,,,,,,,,,,,,,,,,,,,
,,,,,,,,,,,,a,Correct!,,,,,,t2.png,t2.png,0,0.98115,20,Female,2020-09-18_16h09.40.793,torte-2b,2020.1.3,MacIntel,60,13389,0.916475,,,,,,,,,,,,,,,,,,,,,,,,,,,,,,,,,,,,,0,2,2,7,1,,,,,,,,,,,,,,,,,,,,,,,,
,,,,,,,,,,,,a,Incorrect,,,,,,t3.png,t1.png,2,0.056466,20,Female,2020-09-18_16h09.40.793,torte-2b,2020.1.3,MacIntel,60,13389,0.601325,,,,,,,,,,,,,,,,,,,,,,,,,,,,,,,,,,,,,0,3,3,29,1,,,,,,,,,,,,,,,,,,,,,,,,
,,,,,,,,,,,,l,Incorrect,,,,,,t4.png,t5.png,1,0.90025,20,Female,2020-09-18_16h09.40.793,torte-2b,2020.1.3,MacIntel,60,13389,0.81785,,,,,,,,,,,,,,,,,,,,,,,,,,,,,,,,,,,,,0,4,4,113,1,,,,,,,,,,,,,,,,,,,,,,,,
,,,,,,,,,,,,l,Correct!,,,,,,t2.png,t4.png,2,0.059078,20,Female,2020-09-18_16h09.40.793,torte-2b,2020.1.3,MacIntel,60,13389,0.70073,,,,,,,,,,,,,,,,,,,,,,,,,,,,,,,,,,,,,0,5,5,11,1,,,,,,,,,,,,,,,,,,,,,,,,
,,,,,,,,,,,,l,Incorrect,,,,,,t3.png,t4.png,1,0.909,20,Female,2020-09-18_16h09.40.793,torte-2b,2020.1.3,MacIntel,60,13389,0.668565,,,,,,,,,,,,,,,,,,,,,,,,,,,,,,,,,,,,,0,6,6,89,1,,,,,,,,,,,,,,,,,,,,,,,,
,,,,,,,,,,,,a,Correct!,,,,,,t4.png,t3.png,1,0.909,20,Female,2020-09-18_16h09.40.793,torte-2b,2020.1.3,MacIntel,60,13389,0.747125,,,,,,,,,,,,,,,,,,,,,,,,,,,,,,,,,,,,,0,7,7,46,1,,,,,,,,,,,,,,,,,,,,,,,,
,,,,,,,,,,,,l,Correct!,,,,,,t1.png,t4.png,3,0.0000131,20,Female,2020-09-18_16h09.40.793,torte-2b,2020.1.3,MacIntel,60,13389,0.43399,,,,,,,,,,,,,,,,,,,,,,,,,,,,,,,,,,,,,0,8,8,50,1,,,,,,,,,,,,,,,,,,,,,,,,
,,,,,,,,,,,,a,Incorrect,,,,,,t4.png,t1.png,3,0.0000131,20,Female,2020-09-18_16h09.40.793,torte-2b,2020.1.3,MacIntel,60,13389,0.455075,,,,,,,,,,,,,,,,,,,,,,,,,,,,,,,,,,,,,0,9,9,42,1,,,,,,,,,,,,,,,,,,,,,,,,
,,,,,,,,,,,,a,Correct!,,,,,,t1.png,t1.png,0,0.978,20,Female,2020-09-18_16h09.40.793,torte-2b,2020.1.3,MacIntel,60,13389,0.675245,,,,,,,,,,,,,,,,,,,,,,,,,,,,,,,,,,,,,0,10,10,54,1,,,,,,,,,,,,,,,,,,,,,,,,
,,,,,,,,,,,,l,Incorrect,,,,,,t3.png,t5.png,2,0.056466,20,Female,2020-09-18_16h09.40.793,torte-2b,2020.1.3,MacIntel,60,13389,0.697405,,,,,,,,,,,,,,,,,,,,,,,,,,,,,,,,,,,,,0,11,11,6,1,,,,,,,,,,,,,,,,,,,,,,,,
,,,,,,,,,,,,a,Correct!,,,,,,t5.png,t3.png,2,0.056466,20,Female,2020-09-18_16h09.40.793,torte-2b,2020.1.3,MacIntel,60,13389,0.497565,,,,,,,,,,,,,,,,,,,,,,,,,,,,,,,,,,,,,0,12,12,38,1,,,,,,,,,,,,,,,,,,,,,,,,
,,,,,,,,,,,,a,Incorrect,,,,,,t5.png,t1.png,4,9.55E-11,20,Female,2020-09-18_16h09.40.793,torte-2b,2020.1.3,MacIntel,60,13389,0.46828,,,,,,,,,,,,,,,,,,,,,,,,,,,,,,,,,,,,,0,13,13,102,1,,,,,,,,,,,,,,,,,,,,,,,,
,,,,,,,,,,,,a,Incorrect,,,,,,t5.png,t3.png,2,0.0565,20,Female,2020-09-18_16h09.40.793,torte-2b,2020.1.3,MacIntel,60,13389,0.433445,,,,,,,,,,,,,,,,,,,,,,,,,,,,,,,,,,,,,0,14,14,39,1,,,,,,,,,,,,,,,,,,,,,,,,
,,,,,,,,,,,,a,Correct!,,,,,,t4.png,t3.png,1,0.90855,20,Female,2020-09-18_16h09.40.793,torte-2b,2020.1.3,MacIntel,60,13389,0.40226,,,,,,,,,,,,,,,,,,,,,,,,,,,,,,,,,,,,,0,15,15,45,1,,,,,,,,,,,,,,,,,,,,,,,,
,,,,,,,,,,,,l,Incorrect,,,,,,t3.png,t4.png,1,0.909,20,Female,2020-09-18_16h09.40.793,torte-2b,2020.1.3,MacIntel,60,13389,0.51711,,,,,,,,,,,,,,,,,,,,,,,,,,,,,,,,,,,,,0,16,16,82,1,,,,,,,,,,,,,,,,,,,,,,,,
,,,,,,,,,,,,l,Correct!,,,,,,t1.png,t4.png,3,0.0000131,20,Female,2020-09-18_16h09.40.793,torte-2b,2020.1.3,MacIntel,60,13389,0.45025,,,,,,,,,,,,,,,,,,,,,,,,,,,,,,,,,,,,,0,17,17,92,1,,,,,,,,,,,,,,,,,,,,,,,,
,,,,,,,,,,,,l,Correct!,,,,,,t3.png,t5.png,2,0.0565,20,Female,2020-09-18_16h09.40.793,torte-2b,2020.1.3,MacIntel,60,13389,0.468125,,,,,,,,,,,,,,,,,,,,,,,,,,,,,,,,,,,,,0,18,18,30,1,,,,,,,,,,,,,,,,,,,,,,,,
,,,,,,,,,,,,a,Correct!,,,,,,t5.png,t5.png,0,0.97829,20,Female,2020-09-18_16h09.40.793,torte-2b,2020.1.3,MacIntel,60,13389,0.652005,,,,,,,,,,,,,,,,,,,,,,,,,,,,,,,,,,,,,0,19,19,73,1,,,,,,,,,,,,,,,,,,,,,,,,
,,,,,,,,,,,,a,Correct!,,,,,,t1.png,t1.png,0,0.97829,20,Female,2020-09-18_16h09.40.793,torte-2b,2020.1.3,MacIntel,60,13389,0.63417,,,,,,,,,,,,,,,,,,,,,,,,,,,,,,,,,,,,,0,20,20,78,1,,,,,,,,,,,,,,,,,,,,,,,,
,,,,,,,,,,,,l,Incorrect,,,,,,t4.png,t5.png,1,0.9,20,Female,2020-09-18_16h09.40.793,torte-2b,2020.1.3,MacIntel,60,13389,0.96688,,,,,,,,,,,,,,,,,,,,,,,,,,,,,,,,,,,,,0,21,21,115,1,,,,,,,,,,,,,,,,,,,,,,,,
,,,,,,,,,,,,a,Incorrect,,,,,,t5.png,t3.png,2,0.056466,20,Female,2020-09-18_16h09.40.793,torte-2b,2020.1.3,MacIntel,60,13389,0.6002,,,,,,,,,,,,,,,,,,,,,,,,,,,,,,,,,,,,,0,22,22,108,1,,,,,,,,,,,,,,,,,,,,,,,,
,,,,,,,,,,,,a,Correct!,,,,,,t2.png,t2.png,0,0.981,20,Female,2020-09-18_16h09.40.793,torte-2b,2020.1.3,MacIntel,60,13389,0.99988,,,,,,,,,,,,,,,,,,,,,,,,,,,,,,,,,,,,,0,23,23,101,1,,,,,,,,,,,,,,,,,,,,,,,,
,,,,,,,,,,,,a,Incorrect,,,,,,t4.png,t2.png,2,0.059078,20,Female,2020-09-18_16h09.40.793,torte-2b,2020.1.3,MacIntel,60,13389,0.43302,,,,,,,,,,,,,,,,,,,,,,,,,,,,,,,,,,,,,0,24,24,110,1,,,,,,,,,,,,,,,,,,,,,,,,
,,,,,,,,,,,,a,Incorrect,,,,,,t5.png,t2.png,3,0.0000131,20,Female,2020-09-18_16h09.40.793,torte-2b,2020.1.3,MacIntel,60,13389,0.552315,,,,,,,,,,,,,,,,,,,,,,,,,,,,,,,,,,,,,0,25,25,98,1,,,,,,,,,,,,,,,,,,,,,,,,
,,,,,,,,,,,,a,Correct!,,,,,,t3.png,t2.png,1,0.909,20,Female,2020-09-18_16h09.40.793,torte-2b,2020.1.3,MacIntel,60,13389,0.61587,,,,,,,,,,,,,,,,,,,,,,,,,,,,,,,,,,,,,0,26,26,3,1,,,,,,,,,,,,,,,,,,,,,,,,
,,,,,,,,,,,,a,Correct!,,,,,,t4.png,t4.png,0,0.98115,20,Female,2020-09-18_16h09.40.793,torte-2b,2020.1.3,MacIntel,60,13389,0.621415,,,,,,,,,,,,,,,,,,,,,,,,,,,,,,,,,,,,,0,27,27,21,1,,,,,,,,,,,,,,,,,,,,,,,,
,,,,,,,,,,,,a,Correct!,,,,,,t1.png,t2.png,1,0.9,20,Female,2020-09-18_16h09.40.793,torte-2b,2020.1.3,MacIntel,60,13389,0.617455,,,,,,,,,,,,,,,,,,,,,,,,,,,,,,,,,,,,,0,28,28,1,1,,,,,,,,,,,,,,,,,,,,,,,,
,,,,,,,,,,,,l,Correct!,,,,,,t2.png,t5.png,3,0.0000131,20,Female,2020-09-18_16h09.40.793,torte-2b,2020.1.3,MacIntel,60,13389,0.53394,,,,,,,,,,,,,,,,,,,,,,,,,,,,,,,,,,,,,0,29,29,104,1,,,,,,,,,,,,,,,,,,,,,,,,
,,,,,,,,,,,,a,Correct!,,,,,,t4.png,t3.png,1,0.90855,20,Female,2020-09-18_16h09.40.793,torte-2b,2020.1.3,MacIntel,60,13389,0.541015,,,,,,,,,,,,,,,,,,,,,,,,,,,,,,,,,,,,,0,30,30,35,1,,,,,,,,,,,,,,,,,,,,,,,,
,,,,,,,,,,,,l,Correct!,,,,,,t1.png,t3.png,2,0.056466,20,Female,2020-09-18_16h09.40.793,torte-2b,2020.1.3,MacIntel,60,13389,0.41846,,,,,,,,,,,,,,,,,,,,,,,,,,,,,,,,,,,,,0,31,31,69,1,,,,,,,,,,,,,,,,,,,,,,,,
,,,,,,,,,,,,a,Incorrect,,,,,,t4.png,t1.png,3,0.0000131,20,Female,2020-09-18_16h09.40.793,torte-2b,2020.1.3,MacIntel,60,13389,0.417555,,,,,,,,,,,,,,,,,,,,,,,,,,,,,,,,,,,,,0,32,32,93,1,,,,,,,,,,,,,,,,,,,,,,,,
,,,,,,,,,,,,a,Incorrect,,,,,,t3.png,t1.png,2,0.056466,20,Female,2020-09-18_16h09.40.793,torte-2b,2020.1.3,MacIntel,60,13389,0.584445,,,,,,,,,,,,,,,,,,,,,,,,,,,,,,,,,,,,,0,33,33,64,1,,,,,,,,,,,,,,,,,,,,,,,,
,,,,,,,,,,,,a,Incorrect,,,,,,t4.png,t2.png,2,0.059078,20,Female,2020-09-18_16h09.40.793,torte-2b,2020.1.3,MacIntel,60,13389,0.45767,,,,,,,,,,,,,,,,,,,,,,,,,,,,,,,,,,,,,0,34,34,88,1,,,,,,,,,,,,,,,,,,,,,,,,
,,,,,,,,,,,,l,Correct!,,,,,,t2.png,t4.png,2,0.0591,20,Female,2020-09-18_16h09.40.793,torte-2b,2020.1.3,MacIntel,60,13389,0.482315,,,,,,,,,,,,,,,,,,,,,,,,,,,,,,,,,,,,,0,35,35,15,1,,,,,,,,,,,,,,,,,,,,,,,,
,,,,,,,,,,,,a,Correct!,,,,,,t4.png,t4.png,0,0.98115,20,Female,2020-09-18_16h09.40.793,torte-2b,2020.1.3,MacIntel,60,13389,0.46748,,,,,,,,,,,,,,,,,,,,,,,,,,,,,,,,,,,,,0,36,36,80,1,,,,,,,,,,,,,,,,,,,,,,,,
,,,,,,,,,,,,a,Incorrect,,,,,,t4.png,t1.png,3,0.0000131,20,Female,2020-09-18_16h09.40.793,torte-2b,2020.1.3,MacIntel,60,13389,0.44496,,,,,,,,,,,,,,,,,,,,,,,,,,,,,,,,,,,,,0,37,37,13,1,,,,,,,,,,,,,,,,,,,,,,,,
,,,,,,,,,,,,a,Correct!,,,,,,t3.png,t1.png,2,0.0565,20,Female,2020-09-18_16h09.40.793,torte-2b,2020.1.3,MacIntel,60,13389,0.588015,,,,,,,,,,,,,,,,,,,,,,,,,,,,,,,,,,,,,0,38,38,31,1,,,,,,,,,,,,,,,,,,,,,,,,
,,,,,,,,,,,,l,Correct!,,,,,,t1.png,t4.png,3,0.0000131,20,Female,2020-09-18_16h09.40.793,torte-2b,2020.1.3,MacIntel,60,13389,0.48332,,,,,,,,,,,,,,,,,,,,,,,,,,,,,,,,,,,,,0,39,39,17,1,,,,,,,,,,,,,,,,,,,,,,,,
,,,,,,,,,,,,a,Correct!,,,,,,t5.png,t5.png,0,0.97829,20,Female,2020-09-18_16h09.40.793,torte-2b,2020.1.3,MacIntel,60,13389,0.42628,,,,,,,,,,,,,,,,,,,,,,,,,,,,,,,,,,,,,0,40,40,94,1,,,,,,,,,,,,,,,,,,,,,,,,
,,,,,,,,,,,,a,Correct!,,,,,,t2.png,t2.png,0,0.98115,20,Female,2020-09-18_16h09.40.793,torte-2b,2020.1.3,MacIntel,60,13389,0.48402,,,,,,,,,,,,,,,,,,,,,,,,,,,,,,,,,,,,,0,41,41,59,1,,,,,,,,,,,,,,,,,,,,,,,,
,,,,,,,,,,,,a,Correct!,,,,,,t2.png,t2.png,0,0.98115,20,Female,2020-09-18_16h09.40.793,torte-2b,2020.1.3,MacIntel,60,13389,0.433995,,,,,,,,,,,,,,,,,,,,,,,,,,,,,,,,,,,,,0,42,42,2,1,,,,,,,,,,,,,,,,,,,,,,,,
,,,,,,,,,,,,a,Correct!,,,,,,t3.png,t2.png,1,0.90855,20,Female,2020-09-18_16h09.40.793,torte-2b,2020.1.3,MacIntel,60,13389,0.38457,,,,,,,,,,,,,,,,,,,,,,,,,,,,,,,,,,,,,0,43,43,97,1,,,,,,,,,,,,,,,,,,,,,,,,
,,,,,,,,,,,,l,Correct!,,,,,,t1.png,t4.png,3,0.0000131,20,Female,2020-09-18_16h09.40.793,torte-2b,2020.1.3,MacIntel,60,13389,0.634055,,,,,,,,,,,,,,,,,,,,,,,,,,,,,,,,,,,,,0,44,44,81,1,,,,,,,,,,,,,,,,,,,,,,,,
,,,,,,,,,,,,l,Correct!,,,,,,t3.png,t5.png,2,0.0565,20,Female,2020-09-18_16h09.40.793,torte-2b,2020.1.3,MacIntel,60,13389,0.44229,,,,,,,,,,,,,,,,,,,,,,,,,,,,,,,,,,,,,0,45,45,83,1,,,,,,,,,,,,,,,,,,,,,,,,
,,,,,,,,,,,,a,Correct!,,,,,,t4.png,t5.png,1,0.90025,20,Female,2020-09-18_16h09.40.793,torte-2b,2020.1.3,MacIntel,60,13389,0.684475,,,,,,,,,,,,,,,,,,,,,,,,,,,,,,,,,,,,,0,46,46,58,1,,,,,,,,,,,,,,,,,,,,,,,,
,,,,,,,,,,,,a,Correct!,,,,,,t1.png,t1.png,0,0.978,20,Female,2020-09-18_16h09.40.793,torte-2b,2020.1.3,MacIntel,60,13389,0.814385,,,,,,,,,,,,,,,,,,,,,,,,,,,,,,,,,,,,,0,47,47,28,1,,,,,,,,,,,,,,,,,,,,,,,,
,,,,,,,,,,,,l,Incorrect,,,,,,t3.png,t4.png,1,0.909,20,Female,2020-09-18_16h09.40.793,torte-2b,2020.1.3,MacIntel,60,13389,0.492745,,,,,,,,,,,,,,,,,,,,,,,,,,,,,,,,,,,,,0,48,48,106,1,,,,,,,,,,,,,,,,,,,,,,,,
,,,,,,,,,,,,a,Correct!,,,,,,t3.png,t2.png,1,0.909,20,Female,2020-09-18_16h09.40.793,torte-2b,2020.1.3,MacIntel,60,13389,0.45201,,,,,,,,,,,,,,,,,,,,,,,,,,,,,,,,,,,,,0,49,49,23,1,,,,,,,,,,,,,,,,,,,,,,,,
,,,,,,,,,,,,l,Incorrect,,,,,,t2.png,t3.png,1,0.90855,20,Female,2020-09-18_16h09.40.793,torte-2b,2020.1.3,MacIntel,60,13389,1.02423,,,,,,,,,,,,,,,,,,,,,,,,,,,,,,,,,,,,,0,50,50,10,1,,,,,,,,,,,,,,,,,,,,,,,,
,,,,,,,,,,,,a,Incorrect,,,,,,t5.png,t2.png,3,0.0000131,20,Female,2020-09-18_16h09.40.793,torte-2b,2020.1.3,MacIntel,60,13389,0.52024,,,,,,,,,,,,,,,,,,,,,,,,,,,,,,,,,,,,,0,51,51,51,1,,,,,,,,,,,,,,,,,,,,,,,,
,,,,,,,,,,,,l,Incorrect,,,,,,t4.png,t5.png,1,0.90025,20,Female,2020-09-18_16h09.40.793,torte-2b,2020.1.3,MacIntel,60,13389,0.52301,,,,,,,,,,,,,,,,,,,,,,,,,,,,,,,,,,,,,0,52,52,103,1,,,,,,,,,,,,,,,,,,,,,,,,
,,,,,,,,,,,,a,Incorrect,,,,,,t5.png,t1.png,4,9.55E-11,20,Female,2020-09-18_16h09.40.793,torte-2b,2020.1.3,MacIntel,60,13389,0.39315,,,,,,,,,,,,,,,,,,,,,,,,,,,,,,,,,,,,,0,53,53,71,1,,,,,,,,,,,,,,,,,,,,,,,,
,,,,,,,,,,,,l,Correct!,,,,,,t2.png,t4.png,2,0.059078,20,Female,2020-09-18_16h09.40.793,torte-2b,2020.1.3,MacIntel,60,13389,0.38377,,,,,,,,,,,,,,,,,,,,,,,,,,,,,,,,,,,,,0,54,54,24,1,,,,,,,,,,,,,,,,,,,,,,,,
,,,,,,,,,,,,l,Incorrect,,,,,,t1.png,t2.png,1,0.90025,20,Female,2020-09-18_16h09.40.793,torte-2b,2020.1.3,MacIntel,60,13389,0.71231,,,,,,,,,,,,,,,,,,,,,,,,,,,,,,,,,,,,,0,55,55,112,1,,,,,,,,,,,,,,,,,,,,,,,,
,,,,,,,,,,,,l,Correct!,,,,,,t3.png,t5.png,2,0.056466,20,Female,2020-09-18_16h09.40.793,torte-2b,2020.1.3,MacIntel,60,13389,0.550965,,,,,,,,,,,,,,,,,,,,,,,,,,,,,,,,,,,,,0,56,56,44,1,,,,,,,,,,,,,,,,,,,,,,,,
,,,,,,,,,,,,l,Correct!,,,,,,t1.png,t5.png,4,9.55E-11,20,Female,2020-09-18_16h09.40.793,torte-2b,2020.1.3,MacIntel,60,13389,0.55114,,,,,,,,,,,,,,,,,,,,,,,,,,,,,,,,,,,,,0,57,57,85,1,,,,,,,,,,,,,,,,,,,,,,,,
,,,,,,,,,,,,l,Correct!,,,,,,t2.png,t5.png,3,0.0000131,20,Female,2020-09-18_16h09.40.793,torte-2b,2020.1.3,MacIntel,60,13389,0.65724,,,,,,,,,,,,,,,,,,,,,,,,,,,,,,,,,,,,,0,58,58,95,1,,,,,,,,,,,,,,,,,,,,,,,,
,,,,,,,,,,,,l,Correct!,,,,,,t2.png,t5.png,3,0.0000131,20,Female,2020-09-18_16h09.40.793,torte-2b,2020.1.3,MacIntel,60,13389,0.5412,,,,,,,,,,,,,,,,,,,,,,,,,,,,,,,,,,,,,0,59,59,66,1,,,,,,,,,,,,,,,,,,,,,,,,
,,,,,,,,,,,,l,Correct!,,,,,,t1.png,t5.png,4,9.55E-11,20,Female,2020-09-18_16h09.40.793,torte-2b,2020.1.3,MacIntel,60,13389,0.48125,,,,,,,,,,,,,,,,,,,,,,,,,,,,,,,,,,,,,0,60,60,55,1,,,,,,,,,,,,,,,,,,,,,,,,
,,,,,,,,,,,,a,Correct!,,,,,,t5.png,t4.png,1,0.90025,20,Female,2020-09-18_16h09.40.793,torte-2b,2020.1.3,MacIntel,60,13389,0.622885,,,,,,,,,,,,,,,,,,,,,,,,,,,,,,,,,,,,,0,61,61,26,1,,,,,,,,,,,,,,,,,,,,,,,,
,,,,,,,,,,,,a,Correct!,,,,,,t4.png,t4.png,0,0.98115,20,Female,2020-09-18_16h09.40.793,torte-2b,2020.1.3,MacIntel,60,13389,0.86852,,,,,,,,,,,,,,,,,,,,,,,,,,,,,,,,,,,,,0,62,62,90,1,,,,,,,,,,,,,,,,,,,,,,,,
,,,,,,,,,,,,a,Incorrect,,,,,,t5.png,t1.png,4,9.55E-11,20,Female,2020-09-18_16h09.40.793,torte-2b,2020.1.3,MacIntel,60,13389,0.668775,,,,,,,,,,,,,,,,,,,,,,,,,,,,,,,,,,,,,0,63,63,22,1,,,,,,,,,,,,,,,,,,,,,,,,
,,,,,,,,,,,,a,Incorrect,,,,,,t5.png,t2.png,3,0.0000131,20,Female,2020-09-18_16h09.40.793,torte-2b,2020.1.3,MacIntel,60,13389,0.785465,,,,,,,,,,,,,,,,,,,,,,,,,,,,,,,,,,,,,0,64,64,91,1,,,,,,,,,,,,,,,,,,,,,,,,
,,,,,,,,,,,,a,Incorrect,,,,,,t5.png,t2.png,3,0.0000131,20,Female,2020-09-18_16h09.40.793,torte-2b,2020.1.3,MacIntel,60,13389,0.40958,,,,,,,,,,,,,,,,,,,,,,,,,,,,,,,,,,,,,0,65,65,119,1,,,,,,,,,,,,,,,,,,,,,,,,
,,,,,,,,,,,,a,Incorrect,,,,,,t5.png,t3.png,2,0.056466,20,Female,2020-09-18_16h09.40.793,torte-2b,2020.1.3,MacIntel,60,13389,0.43234,,,,,,,,,,,,,,,,,,,,,,,,,,,,,,,,,,,,,0,66,66,56,1,,,,,,,,,,,,,,,,,,,,,,,,
,,,,,,,,,,,,l,Incorrect,,,,,,t2.png,t3.png,1,0.90855,20,Female,2020-09-18_16h09.40.793,torte-2b,2020.1.3,MacIntel,60,13389,0.88049,,,,,,,,,,,,,,,,,,,,,,,,,,,,,,,,,,,,,0,67,67,65,1,,,,,,,,,,,,,,,,,,,,,,,,
,,,,,,,,,,,,a,Correct!,,,,,,t2.png,t3.png,1,0.909,20,Female,2020-09-18_16h09.40.793,torte-2b,2020.1.3,MacIntel,60,13389,0.41793,,,,,,,,,,,,,,,,,,,,,,,,,,,,,,,,,,,,,0,68,68,74,1,,,,,,,,,,,,,,,,,,,,,,,,
,,,,,,,,,,,,l,Correct!,,,,,,t2.png,t4.png,2,0.059078,20,Female,2020-09-18_16h09.40.793,torte-2b,2020.1.3,MacIntel,60,13389,0.491715,,,,,,,,,,,,,,,,,,,,,,,,,,,,,,,,,,,,,0,69,69,77,1,,,,,,,,,,,,,,,,,,,,,,,,
,,,,,,,,,,,,l,Correct!,,,,,,t2.png,t5.png,3,0.0000131,20,Female,2020-09-18_16h09.40.793,torte-2b,2020.1.3,MacIntel,60,13389,0.49593,,,,,,,,,,,,,,,,,,,,,,,,,,,,,,,,,,,,,0,70,70,8,1,,,,,,,,,,,,,,,,,,,,,,,,
,,,,,,,,,,,,a,Incorrect,,,,,,t4.png,t2.png,2,0.0591,20,Female,2020-09-18_16h09.40.793,torte-2b,2020.1.3,MacIntel,60,13389,0.60282,,,,,,,,,,,,,,,,,,,,,,,,,,,,,,,,,,,,,0,71,71,36,1,,,,,,,,,,,,,,,,,,,,,,,,
,,,,,,,,,,,,a,Correct!,,,,,,t5.png,t4.png,1,0.9,20,Female,2020-09-18_16h09.40.793,torte-2b,2020.1.3,MacIntel,60,13389,0.97394,,,,,,,,,,,,,,,,,,,,,,,,,,,,,,,,,,,,,0,72,72,49,1,,,,,,,,,,,,,,,,,,,,,,,,
,,,,,,,,,,,,a,Incorrect,,,,,,t4.png,t2.png,2,0.059078,20,Female,2020-09-18_16h09.40.793,torte-2b,2020.1.3,MacIntel,60,13389,0.96362,,,,,,,,,,,,,,,,,,,,,,,,,,,,,,,,,,,,,0,73,73,86,1,,,,,,,,,,,,,,,,,,,,,,,,
,,,,,,,,,,,,a,Incorrect,,,,,,t5.png,t2.png,3,0.0000131,20,Female,2020-09-18_16h09.40.793,torte-2b,2020.1.3,MacIntel,60,13389,0.59849,,,,,,,,,,,,,,,,,,,,,,,,,,,,,,,,,,,,,0,74,74,116,1,,,,,,,,,,,,,,,,,,,,,,,,
,,,,,,,,,,,,a,Correct!,,,,,,t2.png,t2.png,0,0.98115,20,Female,2020-09-18_16h09.40.793,torte-2b,2020.1.3,MacIntel,60,13389,0.98863,,,,,,,,,,,,,,,,,,,,,,,,,,,,,,,,,,,,,0,75,75,57,1,,,,,,,,,,,,,,,,,,,,,,,,
,,,,,,,,,,,,a,Correct!,,,,,,t5.png,t4.png,1,0.90025,20,Female,2020-09-18_16h09.40.793,torte-2b,2020.1.3,MacIntel,60,13389,0.75501,,,,,,,,,,,,,,,,,,,,,,,,,,,,,,,,,,,,,0,76,76,34,1,,,,,,,,,,,,,,,,,,,,,,,,
,,,,,,,,,,,,l,Correct!,,,,,,t1.png,t5.png,4,9.55E-11,20,Female,2020-09-18_16h09.40.793,torte-2b,2020.1.3,MacIntel,60,13389,0.42395,,,,,,,,,,,,,,,,,,,,,,,,,,,,,,,,,,,,,0,77,77,16,1,,,,,,,,,,,,,,,,,,,,,,,,
,,,,,,,,,,,,l,Correct!,,,,,,t1.png,t3.png,2,0.056466,20,Female,2020-09-18_16h09.40.793,torte-2b,2020.1.3,MacIntel,60,13389,0.50341,,,,,,,,,,,,,,,,,,,,,,,,,,,,,,,,,,,,,0,78,78,99,1,,,,,,,,,,,,,,,,,,,,,,,,
,,,,,,,,,,,,l,Incorrect,,,,,,t1.png,t2.png,1,0.90025,20,Female,2020-09-18_16h09.40.793,torte-2b,2020.1.3,MacIntel,60,13389,0.593995,,,,,,,,,,,,,,,,,,,,,,,,,,,,,,,,,,,,,0,79,79,105,1,,,,,,,,,,,,,,,,,,,,,,,,
,,,,,,,,,,,,a,Correct!,,,,,,t5.png,t5.png,0,0.97829,20,Female,2020-09-18_16h09.40.793,torte-2b,2020.1.3,MacIntel,60,13389,0.907785,,,,,,,,,,,,,,,,,,,,,,,,,,,,,,,,,,,,,0,80,80,25,1,,,,,,,,,,,,,,,,,,,,,,,,
,,,,,,,,,,,,a,Correct!,,,,,,t1.png,t1.png,0,0.97829,20,Female,2020-09-18_16h09.40.793,torte-2b,2020.1.3,MacIntel,60,13389,1.15798,,,,,,,,,,,,,,,,,,,,,,,,,,,,,,,,,,,,,0,81,81,9,1,,,,,,,,,,,,,,,,,,,,,,,,
,,,,,,,,,,,,l,Correct!,,,,,,t1.png,t3.png,2,0.056466,20,Female,2020-09-18_16h09.40.793,torte-2b,2020.1.3,MacIntel,60,13389,1.0828,,,,,,,,,,,,,,,,,,,,,,,,,,,,,,,,,,,,,0,82,82,63,1,,,,,,,,,,,,,,,,,,,,,,,,
,,,,,,,,,,,,a,Correct!,,,,,,t5.png,t5.png,0,0.978,20,Female,2020-09-18_16h09.40.793,torte-2b,2020.1.3,MacIntel,60,13389,1.79186,,,,,,,,,,,,,,,,,,,,,,,,,,,,,,,,,,,,,0,83,83,117,1,,,,,,,,,,,,,,,,,,,,,,,,
,,,,,,,,,,,,a,Incorrect,,,,,,t4.png,t1.png,3,0.0000131,20,Female,2020-09-18_16h09.40.793,torte-2b,2020.1.3,MacIntel,60,13389,0.990045,,,,,,,,,,,,,,,,,,,,,,,,,,,,,,,,,,,,,0,84,84,48,1,,,,,,,,,,,,,,,,,,,,,,,,
,,,,,,,,,,,,a,Correct!,,,,,,t4.png,t3.png,1,0.909,20,Female,2020-09-18_16h09.40.793,torte-2b,2020.1.3,MacIntel,60,13389,0.60981,,,,,,,,,,,,,,,,,,,,,,,,,,,,,,,,,,,,,0,85,85,20,1,,,,,,,,,,,,,,,,,,,,,,,,
,,,,,,,,,,,,a,Correct!,,,,,,t5.png,t4.png,1,0.9,20,Female,2020-09-18_16h09.40.793,torte-2b,2020.1.3,MacIntel,60,13389,0.58624,,,,,,,,,,,,,,,,,,,,,,,,,,,,,,,,,,,,,0,86,86,76,1,,,,,,,,,,,,,,,,,,,,,,,,
,,,,,,,,,,,,l,Correct!,,,,,,t2.png,t5.png,3,0.0000131,20,Female,2020-09-18_16h09.40.793,torte-2b,2020.1.3,MacIntel,60,13389,0.561805,,,,,,,,,,,,,,,,,,,,,,,,,,,,,,,,,,,,,0,87,87,40,1,,,,,,,,,,,,,,,,,,,,,,,,
,,,,,,,,,,,,a,Correct!,,,,,,t4.png,t4.png,0,0.98115,20,Female,2020-09-18_16h09.40.793,torte-2b,2020.1.3,MacIntel,60,13389,0.723155,,,,,,,,,,,,,,,,,,,,,,,,,,,,,,,,,,,,,0,88,88,52,1,,,,,,,,,,,,,,,,,,,,,,,,
,,,,,,,,,,,,a,Incorrect,,,,,,t2.png,t1.png,1,0.90025,20,Female,2020-09-18_16h09.40.793,torte-2b,2020.1.3,MacIntel,60,13389,0.467015,,,,,,,,,,,,,,,,,,,,,,,,,,,,,,,,,,,,,0,89,89,4,1,,,,,,,,,,,,,,,,,,,,,,,,
,,,,,,,,,,,,a,Correct!,,,,,,t3.png,t2.png,1,0.90855,20,Female,2020-09-18_16h09.40.793,torte-2b,2020.1.3,MacIntel,60,13389,0.524305,,,,,,,,,,,,,,,,,,,,,,,,,,,,,,,,,,,,,0,90,90,18,1,,,,,,,,,,,,,,,,,,,,,,,,
,,,,,,,,,,,,a,Incorrect,,,,,,t5.png,t3.png,2,0.056466,20,Female,2020-09-18_16h09.40.793,torte-2b,2020.1.3,MacIntel,60,13389,0.401115,,,,,,,,,,,,,,,,,,,,,,,,,,,,,,,,,,,,,0,91,91,114,1,,,,,,,,,,,,,,,,,,,,,,,,
,,,,,,,,,,,,a,Correct!,,,,,,t4.png,t4.png,0,0.98115,20,Female,2020-09-18_16h09.40.793,torte-2b,2020.1.3,MacIntel,60,13389,0.56908,,,,,,,,,,,,,,,,,,,,,,,,,,,,,,,,,,,,,0,92,92,79,1,,,,,,,,,,,,,,,,,,,,,,,,
,,,,,,,,,,,,l,Correct!,,,,,,t3.png,t4.png,1,0.90855,20,Female,2020-09-18_16h09.40.793,torte-2b,2020.1.3,MacIntel,60,13389,0.540335,,,,,,,,,,,,,,,,,,,,,,,,,,,,,,,,,,,,,0,93,93,96,1,,,,,,,,,,,,,,,,,,,,,,,,
,,,,,,,,,,,,a,Correct!,,,,,,t2.png,t1.png,1,0.90025,20,Female,2020-09-18_16h09.40.793,torte-2b,2020.1.3,MacIntel,60,13389,0.476195,,,,,,,,,,,,,,,,,,,,,,,,,,,,,,,,,,,,,0,94,94,5,1,,,,,,,,,,,,,,,,,,,,,,,,
,,,,,,,,,,,,l,Incorrect,,,,,,t1.png,t2.png,1,0.90025,20,Female,2020-09-18_16h09.40.793,torte-2b,2020.1.3,MacIntel,60,13389,0.6334,,,,,,,,,,,,,,,,,,,,,,,,,,,,,,,,,,,,,0,95,95,72,1,,,,,,,,,,,,,,,,,,,,,,,,
,,,,,,,,,,,,l,Correct!,,,,,,t1.png,t5.png,4,9.55E-11,20,Female,2020-09-18_16h09.40.793,torte-2b,2020.1.3,MacIntel,60,13389,1.554965,,,,,,,,,,,,,,,,,,,,,,,,,,,,,,,,,,,,,0,96,96,12,1,,,,,,,,,,,,,,,,,,,,,,,,
,,,,,,,,,,,,l,Incorrect,,,,,,t2.png,t3.png,1,0.90855,20,Female,2020-09-18_16h09.40.793,torte-2b,2020.1.3,MacIntel,60,13389,0.62086,,,,,,,,,,,,,,,,,,,,,,,,,,,,,,,,,,,,,0,97,97,68,1,,,,,,,,,,,,,,,,,,,,,,,,
,,,,,,,,,,,,l,Correct!,,,,,,t1.png,t3.png,2,0.056466,20,Female,2020-09-18_16h09.40.793,torte-2b,2020.1.3,MacIntel,60,13389,0.435435,,,,,,,,,,,,,,,,,,,,,,,,,,,,,,,,,,,,,0,98,98,60,1,,,,,,,,,,,,,,,,,,,,,,,,
,,,,,,,,,,,,l,Correct!,,,,,,t3.png,t5.png,2,0.056466,20,Female,2020-09-18_16h09.40.793,torte-2b,2020.1.3,MacIntel,60,13389,0.92168,,,,,,,,,,,,,,,,,,,,,,,,,,,,,,,,,,,,,0,99,99,14,1,,,,,,,,,,,,,,,,,,,,,,,,
,,,,,,,,,,,,l,Correct!,,,,,,t1.png,t4.png,3,0.0000131,20,Female,2020-09-18_16h09.40.793,torte-2b,2020.1.3,MacIntel,60,13389,1.22932,,,,,,,,,,,,,,,,,,,,,,,,,,,,,,,,,,,,,0,100,100,107,1,,,,,,,,,,,,,,,,,,,,,,,,
,,,,,,,,,,,,a,Correct!,,,,,,t1.png,t1.png,0,0.97829,20,Female,2020-09-18_16h09.40.793,torte-2b,2020.1.3,MacIntel,60,13389,0.683725,,,,,,,,,,,,,,,,,,,,,,,,,,,,,,,,,,,,,0,101,101,67,1,,,,,,,,,,,,,,,,,,,,,,,,
,,,,,,,,,,,,l,Correct!,,,,,,t1.png,t3.png,2,0.056466,20,Female,2020-09-18_16h09.40.793,torte-2b,2020.1.3,MacIntel,60,13389,0.457075,,,,,,,,,,,,,,,,,,,,,,,,,,,,,,,,,,,,,0,102,102,87,1,,,,,,,,,,,,,,,,,,,,,,,,
,,,,,,,,,,,,a,Incorrect,,,,,,t5.png,t4.png,1,0.90025,20,Female,2020-09-18_16h09.40.793,torte-2b,2020.1.3,MacIntel,60,13389,0.934425,,,,,,,,,,,,,,,,,,,,,,,,,,,,,,,,,,,,,0,103,103,27,1,,,,,,,,,,,,,,,,,,,,,,,,
,,,,,,,,,,,,a,Correct!,,,,,,t4.png,t3.png,1,0.90855,20,Female,2020-09-18_16h09.40.793,torte-2b,2020.1.3,MacIntel,60,13389,0.82183,,,,,,,,,,,,,,,,,,,,,,,,,,,,,,,,,,,,,0,104,104,75,1,,,,,,,,,,,,,,,,,,,,,,,,
,,,,,,,,,,,,l,Correct!,,,,,,t2.png,t4.png,2,0.059078,20,Female,2020-09-18_16h09.40.793,torte-2b,2020.1.3,MacIntel,60,13389,0.48372,,,,,,,,,,,,,,,,,,,,,,,,,,,,,,,,,,,,,0,105,105,37,1,,,,,,,,,,,,,,,,,,,,,,,,
,,,,,,,,,,,,a,Incorrect,,,,,,t3.png,t1.png,2,0.056466,20,Female,2020-09-18_16h09.40.793,torte-2b,2020.1.3,MacIntel,60,13389,0.60032,,,,,,,,,,,,,,,,,,,,,,,,,,,,,,,,,,,,,0,106,106,32,1,,,,,,,,,,,,,,,,,,,,,,,,
,,,,,,,,,,,,a,Incorrect,,,,,,t4.png,t2.png,2,0.059078,20,Female,2020-09-18_16h09.40.793,torte-2b,2020.1.3,MacIntel,60,13389,0.48239,,,,,,,,,,,,,,,,,,,,,,,,,,,,,,,,,,,,,0,107,107,109,1,,,,,,,,,,,,,,,,,,,,,,,,
,,,,,,,,,,,,a,Incorrect,,,,,,t5.png,t1.png,4,9.55E-11,20,Female,2020-09-18_16h09.40.793,torte-2b,2020.1.3,MacIntel,60,13389,0.52487,,,,,,,,,,,,,,,,,,,,,,,,,,,,,,,,,,,,,0,108,108,43,1,,,,,,,,,,,,,,,,,,,,,,,,
,,,,,,,,,,,,a,Incorrect,,,,,,t4.png,t1.png,3,0.0000131,20,Female,2020-09-18_16h09.40.793,torte-2b,2020.1.3,MacIntel,60,13389,0.42576,,,,,,,,,,,,,,,,,,,,,,,,,,,,,,,,,,,,,0,109,109,61,1,,,,,,,,,,,,,,,,,,,,,,,,
,,,,,,,,,,,,a,Correct!,,,,,,t2.png,t1.png,1,0.90025,20,Female,2020-09-18_16h09.40.793,torte-2b,2020.1.3,MacIntel,60,13389,0.534475,,,,,,,,,,,,,,,,,,,,,,,,,,,,,,,,,,,,,0,110,110,19,1,,,,,,,,,,,,,,,,,,,,,,,,
,,,,,,,,,,,,l,Incorrect,,,,,,t1.png,t2.png,1,0.90025,20,Female,2020-09-18_16h09.40.793,torte-2b,2020.1.3,MacIntel,60,13389,0.63274,,,,,,,,,,,,,,,,,,,,,,,,,,,,,,,,,,,,,0,111,111,33,1,,,,,,,,,,,,,,,,,,,,,,,,
,,,,,,,,,,,,a,Correct!,,,,,,t2.png,t1.png,1,0.9,20,Female,2020-09-18_16h09.40.793,torte-2b,2020.1.3,MacIntel,60,13389,0.47324,,,,,,,,,,,,,,,,,,,,,,,,,,,,,,,,,,,,,0,112,112,118,1,,,,,,,,,,,,,,,,,,,,,,,,
,,,,,,,,,,,,a,Correct!,,,,,,t3.png,t2.png,1,0.90855,20,Female,2020-09-18_16h09.40.793,torte-2b,2020.1.3,MacIntel,60,13389,0.41716,,,,,,,,,,,,,,,,,,,,,,,,,,,,,,,,,,,,,0,113,113,53,1,,,,,,,,,,,,,,,,,,,,,,,,
,,,,,,,,,,,,l,Incorrect,,,,,,t5.png,t5.png,0,0.97829,20,Female,2020-09-18_16h09.40.793,torte-2b,2020.1.3,MacIntel,60,13389,0.98379,,,,,,,,,,,,,,,,,,,,,,,,,,,,,,,,,,,,,0,114,114,70,1,,,,,,,,,,,,,,,,,,,,,,,,
,,,,,,,,,,,,a,Correct!,,,,,,t2.png,t1.png,1,0.90025,20,Female,2020-09-18_16h09.40.793,torte-2b,2020.1.3,MacIntel,60,13389,0.53871,,,,,,,,,,,,,,,,,,,,,,,,,,,,,,,,,,,,,0,115,115,62,1,,,,,,,,,,,,,,,,,,,,,,,,
,,,,,,,,,,,,l,Incorrect,,,,,,t3.png,t4.png,1,0.90855,20,Female,2020-09-18_16h09.40.793,torte-2b,2020.1.3,MacIntel,60,13389,0.50081,,,,,,,,,,,,,,,,,,,,,,,,,,,,,,,,,,,,,0,116,116,84,1,,,,,,,,,,,,,,,,,,,,,,,,
,,,,,,,,,,,,a,Incorrect,,,,,,t3.png,t1.png,2,0.056466,20,Female,2020-09-18_16h09.40.793,torte-2b,2020.1.3,MacIntel,60,13389,0.43659,,,,,,,,,,,,,,,,,,,,,,,,,,,,,,,,,,,,,0,117,117,0,1,,,,,,,,,,,,,,,,,,,,,,,,
,,,,,,,,,,,,l,Incorrect,,,,,,t2.png,t3.png,1,0.90855,20,Female,2020-09-18_16h09.40.793,torte-2b,2020.1.3,MacIntel,60,13389,0.45161,,,,,,,,,,,,,,,,,,,,,,,,,,,,,,,,,,,,,0,118,118,111,1,,,,,,,,,,,,,,,,,,,,,,,,
,,,,,,,,,,,,l,Incorrect,,,,,,t4.png,t5.png,1,0.90025,20,Female,2020-09-18_16h09.40.793,torte-2b,2020.1.3,MacIntel,60,13389,0.825385,,,,,,,,,,,,,,,,,,,,,,,,,,,,,,,,,,,,,0,119,119,47,1,,,,,,,,,,,,,,,,,,,,,,,,
,,,,,,,,,,,,,,,,,,,,,,,20,Female,2020-09-18_16h09.40.793,torte-2b,2020.1.3,MacIntel,60,13389,,l,1.13378,,,,,,,,,,,,,,,,,,,,,,,,,,,,,,,,,,,,,,,,-33.69921875,170.7460938,1,0,0,s1,46.8828125,94.8125,1,0,0,t1,199.9492188,-95.6640625,1,0,0,proceed,l,3.21602,k,0.782305,u,0.948885
