key_resp_8.keys,key_resp_8.rt,key_resp_9.keys,key_resp_9.rt,key_resp_10.keys,key_resp_10.rt,key_resp_11.keys,key_resp_11.rt,key_resp_2.keys,key_resp_2.rt,key_resp_3.keys,key_resp_3.rt,key_resp.keys,Feedback,train.thisRepN,train.thisTrialN,train.thisN,train.thisIndex,train.ran,torta_sx,torta_dx,difference,probability,age,gender,date,expName,psychopyVersion,OS,frameRate,participant,key_resp.rt,key_resp_15.keys,key_resp_15.rt,key_resp_6.keys,key_resp_6.rt,test1.thisRepN,test1.thisTrialN,test1.thisN,test1.thisIndex,test1.ran,key_resp_4.keys,key_resp_4.rt,key_resp_5.keys,back1.thisRepN,back1.thisTrialN,back1.thisN,back1.thisIndex,back1.ran,letter,key_resp_5.rt,back2.thisRepN,back2.thisTrialN,back2.thisN,back2.thisIndex,back2.ran,back3.thisRepN,back3.thisTrialN,back3.thisN,back3.thisIndex,back3.ran,back4.thisRepN,back4.thisTrialN,back4.thisN,back4.thisIndex,back4.ran,key_resp_7.keys,key_resp_7.rt,test2.thisRepN,test2.thisTrialN,test2.thisN,test2.thisIndex,test2.ran,mouse.x,mouse.y,mouse.leftButton,mouse.midButton,mouse.rightButton,mouse.clicked_name,mouse_2.x,mouse_2.y,mouse_2.leftButton,mouse_2.midButton,mouse_2.rightButton,mouse_2.clicked_name,mouse_3.x,mouse_3.y,mouse_3.leftButton,mouse_3.midButton,mouse_3.rightButton,mouse_3.clicked_name,key_resp_12.keys,key_resp_12.rt,key_resp_13.keys,key_resp_13.rt,key_resp_14.keys,key_resp_14.rt
space,1.892,space,0.981,space,0.421,space,0.991,space,12.933,space,18.622,,Too slow :(,0,0,0,15,1,t2.png,t3.png,1,0.90855,20,female,2020-08-24_14h06.48.734,torte-2b,2020.1.3,MacIntel,60,13394,,,,,,,,,,,,,,,,,,,,,,,,,,,,,,,,,,,,,,,,,,,,,,,,,,,,,,,,,,,,,,,,,,
,,,,,,,,,,,,,Too slow :(,0,1,1,75,1,t2.png,t3.png,1,0.90855,20,female,2020-08-24_14h06.48.734,torte-2b,2020.1.3,MacIntel,60,13394,,,,,,,,,,,,,,,,,,,,,,,,,,,,,,,,,,,,,,,,,,,,,,,,,,,,,,,,,,,,,,,,,,
,,,,,,,,,,,,,Too slow :(,0,2,2,76,1,t4.png,t1.png,3,0.059078,20,female,2020-08-24_14h06.48.734,torte-2b,2020.1.3,MacIntel,60,13394,,,,,,,,,,,,,,,,,,,,,,,,,,,,,,,,,,,,,,,,,,,,,,,,,,,,,,,,,,,,,,,,,,
,,,,,,,,,,,,,Too slow :(,0,3,3,86,1,t5.png,t4.png,1,0.90025,20,female,2020-08-24_14h06.48.734,torte-2b,2020.1.3,MacIntel,60,13394,,,,,,,,,,,,,,,,,,,,,,,,,,,,,,,,,,,,,,,,,,,,,,,,,,,,,,,,,,,,,,,,,,
,,,,,,,,,,,,a,Correct!,0,4,4,12,1,t5.png,t5.png,0,0.97829,20,female,2020-08-24_14h06.48.734,torte-2b,2020.1.3,MacIntel,60,13394,1.115,,,,,,,,,,,,,,,,,,,,,,,,,,,,,,,,,,,,,,,,,,,,,,,,,,,,,,,,,,,,,,,,,
,,,,,,,,,,,,a,Correct!,0,5,5,69,1,t5.png,t4.png,1,0.90025,20,female,2020-08-24_14h06.48.734,torte-2b,2020.1.3,MacIntel,60,13394,0.848,,,,,,,,,,,,,,,,,,,,,,,,,,,,,,,,,,,,,,,,,,,,,,,,,,,,,,,,,,,,,,,,,
,,,,,,,,,,,,l,Incorrect,0,6,6,84,1,t2.png,t3.png,1,0.90855,20,female,2020-08-24_14h06.48.734,torte-2b,2020.1.3,MacIntel,60,13394,1.182,,,,,,,,,,,,,,,,,,,,,,,,,,,,,,,,,,,,,,,,,,,,,,,,,,,,,,,,,,,,,,,,,
,,,,,,,,,,,,a,Incorrect,0,7,7,50,1,t1.png,t5.png,4,9.55E-11,20,female,2020-08-24_14h06.48.734,torte-2b,2020.1.3,MacIntel,60,13394,0.289,,,,,,,,,,,,,,,,,,,,,,,,,,,,,,,,,,,,,,,,,,,,,,,,,,,,,,,,,,,,,,,,,
,,,,,,,,,,,,l,Correct!,0,8,8,17,1,t4.png,t1.png,3,0.059078,20,female,2020-08-24_14h06.48.734,torte-2b,2020.1.3,MacIntel,60,13394,0.911,,,,,,,,,,,,,,,,,,,,,,,,,,,,,,,,,,,,,,,,,,,,,,,,,,,,,,,,,,,,,,,,,
,,,,,,,,,,,,a,Correct!,0,9,9,41,1,t4.png,t5.png,1,0.90025,20,female,2020-08-24_14h06.48.734,torte-2b,2020.1.3,MacIntel,60,13394,0.381,,,,,,,,,,,,,,,,,,,,,,,,,,,,,,,,,,,,,,,,,,,,,,,,,,,,,,,,,,,,,,,,,
,,,,,,,,,,,,a,Incorrect,0,10,10,33,1,t3.png,t2.png,1,0.90855,20,female,2020-08-24_14h06.48.734,torte-2b,2020.1.3,MacIntel,60,13394,0.632,,,,,,,,,,,,,,,,,,,,,,,,,,,,,,,,,,,,,,,,,,,,,,,,,,,,,,,,,,,,,,,,,
,,,,,,,,,,,,l,Incorrect,0,11,11,0,1,t3.png,t2.png,1,0.90855,20,female,2020-08-24_14h06.48.734,torte-2b,2020.1.3,MacIntel,60,13394,0.869,,,,,,,,,,,,,,,,,,,,,,,,,,,,,,,,,,,,,,,,,,,,,,,,,,,,,,,,,,,,,,,,,
,,,,,,,,,,,,l,Correct!,0,12,12,11,1,t1.png,t4.png,3,0.0000131,20,female,2020-08-24_14h06.48.734,torte-2b,2020.1.3,MacIntel,60,13394,0.868,,,,,,,,,,,,,,,,,,,,,,,,,,,,,,,,,,,,,,,,,,,,,,,,,,,,,,,,,,,,,,,,,
,,,,,,,,,,,,l,Correct!,0,13,13,52,1,t2.png,t3.png,1,0.90855,20,female,2020-08-24_14h06.48.734,torte-2b,2020.1.3,MacIntel,60,13394,0.622,,,,,,,,,,,,,,,,,,,,,,,,,,,,,,,,,,,,,,,,,,,,,,,,,,,,,,,,,,,,,,,,,
,,,,,,,,,,,,a,Correct!,0,14,14,100,1,t3.png,t2.png,1,0.90855,20,female,2020-08-24_14h06.48.734,torte-2b,2020.1.3,MacIntel,60,13394,0.537,,,,,,,,,,,,,,,,,,,,,,,,,,,,,,,,,,,,,,,,,,,,,,,,,,,,,,,,,,,,,,,,,
,,,,,,,,,,,,l,Incorrect,0,15,15,25,1,t1.png,t1.png,0,0.97829,20,female,2020-08-24_14h06.48.734,torte-2b,2020.1.3,MacIntel,60,13394,1.888,,,,,,,,,,,,,,,,,,,,,,,,,,,,,,,,,,,,,,,,,,,,,,,,,,,,,,,,,,,,,,,,,
,,,,,,,,,,,,l,Correct!,0,16,16,34,1,t1.png,t5.png,4,9.55E-11,20,female,2020-08-24_14h06.48.734,torte-2b,2020.1.3,MacIntel,60,13394,0.581,,,,,,,,,,,,,,,,,,,,,,,,,,,,,,,,,,,,,,,,,,,,,,,,,,,,,,,,,,,,,,,,,
,,,,,,,,,,,,l,Correct!,0,17,17,96,1,t2.png,t4.png,2,0.059078,20,female,2020-08-24_14h06.48.734,torte-2b,2020.1.3,MacIntel,60,13394,1.905,,,,,,,,,,,,,,,,,,,,,,,,,,,,,,,,,,,,,,,,,,,,,,,,,,,,,,,,,,,,,,,,,
,,,,,,,,,,,,l,Correct!,0,18,18,13,1,t2.png,t4.png,2,0.059078,20,female,2020-08-24_14h06.48.734,torte-2b,2020.1.3,MacIntel,60,13394,0.632,,,,,,,,,,,,,,,,,,,,,,,,,,,,,,,,,,,,,,,,,,,,,,,,,,,,,,,,,,,,,,,,,
,,,,,,,,,,,,a,Incorrect,0,19,19,54,1,t3.png,t1.png,2,0.056466,20,female,2020-08-24_14h06.48.734,torte-2b,2020.1.3,MacIntel,60,13394,1.121,,,,,,,,,,,,,,,,,,,,,,,,,,,,,,,,,,,,,,,,,,,,,,,,,,,,,,,,,,,,,,,,,
,,,,,,,,,,,,l,Correct!,0,20,20,19,1,t2.png,t4.png,2,0.059078,20,female,2020-08-24_14h06.48.734,torte-2b,2020.1.3,MacIntel,60,13394,0.997,,,,,,,,,,,,,,,,,,,,,,,,,,,,,,,,,,,,,,,,,,,,,,,,,,,,,,,,,,,,,,,,,
,,,,,,,,,,,,,Too slow :(,0,21,21,113,1,t5.png,t1.png,4,9.55E-11,20,female,2020-08-24_14h06.48.734,torte-2b,2020.1.3,MacIntel,60,13394,,,,,,,,,,,,,,,,,,,,,,,,,,,,,,,,,,,,,,,,,,,,,,,,,,,,,,,,,,,,,,,,,,
,,,,,,,,,,,,a,Incorrect,0,22,22,68,1,t2.png,t4.png,2,0.059078,20,female,2020-08-24_14h06.48.734,torte-2b,2020.1.3,MacIntel,60,13394,2.15,,,,,,,,,,,,,,,,,,,,,,,,,,,,,,,,,,,,,,,,,,,,,,,,,,,,,,,,,,,,,,,,,
,,,,,,,,,,,,a,Correct!,0,23,23,114,1,t5.png,t4.png,1,0.90025,20,female,2020-08-24_14h06.48.734,torte-2b,2020.1.3,MacIntel,60,13394,2.356,,,,,,,,,,,,,,,,,,,,,,,,,,,,,,,,,,,,,,,,,,,,,,,,,,,,,,,,,,,,,,,,,
,,,,,,,,,,,,a,Correct!,0,24,24,119,1,t5.png,t4.png,1,0.90025,20,female,2020-08-24_14h06.48.734,torte-2b,2020.1.3,MacIntel,60,13394,1.19,,,,,,,,,,,,,,,,,,,,,,,,,,,,,,,,,,,,,,,,,,,,,,,,,,,,,,,,,,,,,,,,,
,,,,,,,,,,,,l,Correct!,0,25,25,46,1,t1.png,t1.png,0,0.97829,20,female,2020-08-24_14h06.48.734,torte-2b,2020.1.3,MacIntel,60,13394,1.231,,,,,,,,,,,,,,,,,,,,,,,,,,,,,,,,,,,,,,,,,,,,,,,,,,,,,,,,,,,,,,,,,
,,,,,,,,,,,,a,Correct!,0,26,26,5,1,t5.png,t5.png,0,0.97829,20,female,2020-08-24_14h06.48.734,torte-2b,2020.1.3,MacIntel,60,13394,1.016,,,,,,,,,,,,,,,,,,,,,,,,,,,,,,,,,,,,,,,,,,,,,,,,,,,,,,,,,,,,,,,,,
,,,,,,,,,,,,l,Incorrect,0,27,27,58,1,t4.png,t5.png,1,0.90025,20,female,2020-08-24_14h06.48.734,torte-2b,2020.1.3,MacIntel,60,13394,0.965,,,,,,,,,,,,,,,,,,,,,,,,,,,,,,,,,,,,,,,,,,,,,,,,,,,,,,,,,,,,,,,,,
,,,,,,,,,,,,l,Correct!,0,28,28,95,1,t1.png,t4.png,3,0.0000131,20,female,2020-08-24_14h06.48.734,torte-2b,2020.1.3,MacIntel,60,13394,0.497,,,,,,,,,,,,,,,,,,,,,,,,,,,,,,,,,,,,,,,,,,,,,,,,,,,,,,,,,,,,,,,,,
,,,,,,,,,,,,a,Incorrect,0,29,29,57,1,t3.png,t1.png,2,0.056466,20,female,2020-08-24_14h06.48.734,torte-2b,2020.1.3,MacIntel,60,13394,1.554,,,,,,,,,,,,,,,,,,,,,,,,,,,,,,,,,,,,,,,,,,,,,,,,,,,,,,,,,,,,,,,,,
,,,,,,,,,,,,l,Incorrect,0,30,30,47,1,t2.png,t3.png,1,0.90855,20,female,2020-08-24_14h06.48.734,torte-2b,2020.1.3,MacIntel,60,13394,1.323,,,,,,,,,,,,,,,,,,,,,,,,,,,,,,,,,,,,,,,,,,,,,,,,,,,,,,,,,,,,,,,,,
,,,,,,,,,,,,a,Incorrect,0,31,31,6,1,t5.png,t1.png,4,9.55E-11,20,female,2020-08-24_14h06.48.734,torte-2b,2020.1.3,MacIntel,60,13394,1.088,,,,,,,,,,,,,,,,,,,,,,,,,,,,,,,,,,,,,,,,,,,,,,,,,,,,,,,,,,,,,,,,,
,,,,,,,,,,,,l,Incorrect,0,32,32,72,1,t5.png,t5.png,0,0.97829,20,female,2020-08-24_14h06.48.734,torte-2b,2020.1.3,MacIntel,60,13394,1.02,,,,,,,,,,,,,,,,,,,,,,,,,,,,,,,,,,,,,,,,,,,,,,,,,,,,,,,,,,,,,,,,,
,,,,,,,,,,,,a,Incorrect,0,33,33,82,1,t3.png,t1.png,2,0.056466,20,female,2020-08-24_14h06.48.734,torte-2b,2020.1.3,MacIntel,60,13394,1.316,,,,,,,,,,,,,,,,,,,,,,,,,,,,,,,,,,,,,,,,,,,,,,,,,,,,,,,,,,,,,,,,,
,,,,,,,,,,,,a,Incorrect,0,34,34,43,1,t3.png,t1.png,2,0.056466,20,female,2020-08-24_14h06.48.734,torte-2b,2020.1.3,MacIntel,60,13394,0.932,,,,,,,,,,,,,,,,,,,,,,,,,,,,,,,,,,,,,,,,,,,,,,,,,,,,,,,,,,,,,,,,,
,,,,,,,,,,,,l,Incorrect,0,35,35,48,1,t2.png,t3.png,1,0.90855,20,female,2020-08-24_14h06.48.734,torte-2b,2020.1.3,MacIntel,60,13394,1.271,,,,,,,,,,,,,,,,,,,,,,,,,,,,,,,,,,,,,,,,,,,,,,,,,,,,,,,,,,,,,,,,,
,,,,,,,,,,,,l,Correct!,0,36,36,2,1,t3.png,t1.png,2,0.056466,20,female,2020-08-24_14h06.48.734,torte-2b,2020.1.3,MacIntel,60,13394,0.336,,,,,,,,,,,,,,,,,,,,,,,,,,,,,,,,,,,,,,,,,,,,,,,,,,,,,,,,,,,,,,,,,
,,,,,,,,,,,,l,Incorrect,0,37,37,42,1,t5.png,t5.png,0,0.97829,20,female,2020-08-24_14h06.48.734,torte-2b,2020.1.3,MacIntel,60,13394,0.346,,,,,,,,,,,,,,,,,,,,,,,,,,,,,,,,,,,,,,,,,,,,,,,,,,,,,,,,,,,,,,,,,
,,,,,,,,,,,,l,Incorrect,0,38,38,31,1,t1.png,t1.png,0,0.97829,20,female,2020-08-24_14h06.48.734,torte-2b,2020.1.3,MacIntel,60,13394,0.867,,,,,,,,,,,,,,,,,,,,,,,,,,,,,,,,,,,,,,,,,,,,,,,,,,,,,,,,,,,,,,,,,
,,,,,,,,,,,,l,Correct!,0,39,39,108,1,t3.png,t1.png,2,0.056466,20,female,2020-08-24_14h06.48.734,torte-2b,2020.1.3,MacIntel,60,13394,0.764,,,,,,,,,,,,,,,,,,,,,,,,,,,,,,,,,,,,,,,,,,,,,,,,,,,,,,,,,,,,,,,,,
,,,,,,,,,,,,,Too slow :(,0,40,40,118,1,t1.png,t5.png,4,9.55E-11,20,female,2020-08-24_14h06.48.734,torte-2b,2020.1.3,MacIntel,60,13394,,,,,,,,,,,,,,,,,,,,,,,,,,,,,,,,,,,,,,,,,,,,,,,,,,,,,,,,,,,,,,,,,,
,,,,,,,,,,,,,Too slow :(,0,41,41,101,1,t5.png,t4.png,1,0.90025,20,female,2020-08-24_14h06.48.734,torte-2b,2020.1.3,MacIntel,60,13394,,,,,,,,,,,,,,,,,,,,,,,,,,,,,,,,,,,,,,,,,,,,,,,,,,,,,,,,,,,,,,,,,,
,,,,,,,,,,,,l,Correct!,0,42,42,92,1,t5.png,t1.png,4,9.55E-11,20,female,2020-08-24_14h06.48.734,torte-2b,2020.1.3,MacIntel,60,13394,0.823,,,,,,,,,,,,,,,,,,,,,,,,,,,,,,,,,,,,,,,,,,,,,,,,,,,,,,,,,,,,,,,,,
,,,,,,,,,,,,l,Correct!,0,43,43,27,1,t1.png,t5.png,4,9.55E-11,20,female,2020-08-24_14h06.48.734,torte-2b,2020.1.3,MacIntel,60,13394,1.537,,,,,,,,,,,,,,,,,,,,,,,,,,,,,,,,,,,,,,,,,,,,,,,,,,,,,,,,,,,,,,,,,
,,,,,,,,,,,,l,Correct!,0,44,44,40,1,t2.png,t4.png,2,0.059078,20,female,2020-08-24_14h06.48.734,torte-2b,2020.1.3,MacIntel,60,13394,0.646,,,,,,,,,,,,,,,,,,,,,,,,,,,,,,,,,,,,,,,,,,,,,,,,,,,,,,,,,,,,,,,,,
,,,,,,,,,,,,l,Correct!,0,45,45,44,1,t1.png,t4.png,3,0.0000131,20,female,2020-08-24_14h06.48.734,torte-2b,2020.1.3,MacIntel,60,13394,0.882,,,,,,,,,,,,,,,,,,,,,,,,,,,,,,,,,,,,,,,,,,,,,,,,,,,,,,,,,,,,,,,,,
,,,,,,,,,,,,a,Correct!,0,46,46,90,1,t4.png,t5.png,1,0.90025,20,female,2020-08-24_14h06.48.734,torte-2b,2020.1.3,MacIntel,60,13394,1.616,,,,,,,,,,,,,,,,,,,,,,,,,,,,,,,,,,,,,,,,,,,,,,,,,,,,,,,,,,,,,,,,,
,,,,,,,,,,,,a,Correct!,0,47,47,55,1,t1.png,t1.png,0,0.97829,20,female,2020-08-24_14h06.48.734,torte-2b,2020.1.3,MacIntel,60,13394,1.965,,,,,,,,,,,,,,,,,,,,,,,,,,,,,,,,,,,,,,,,,,,,,,,,,,,,,,,,,,,,,,,,,
,,,,,,,,,,,,a,Incorrect,0,48,48,1,1,t3.png,t1.png,2,0.056466,20,female,2020-08-24_14h06.48.734,torte-2b,2020.1.3,MacIntel,60,13394,1.025,,,,,,,,,,,,,,,,,,,,,,,,,,,,,,,,,,,,,,,,,,,,,,,,,,,,,,,,,,,,,,,,,
,,,,,,,,,,,,l,Incorrect,0,49,49,32,1,t3.png,t2.png,1,0.90855,20,female,2020-08-24_14h06.48.734,torte-2b,2020.1.3,MacIntel,60,13394,2.033,,,,,,,,,,,,,,,,,,,,,,,,,,,,,,,,,,,,,,,,,,,,,,,,,,,,,,,,,,,,,,,,,
,,,,,,,,,,,,l,Incorrect,0,50,50,20,1,t5.png,t5.png,0,0.97829,20,female,2020-08-24_14h06.48.734,torte-2b,2020.1.3,MacIntel,60,13394,1.274,,,,,,,,,,,,,,,,,,,,,,,,,,,,,,,,,,,,,,,,,,,,,,,,,,,,,,,,,,,,,,,,,
,,,,,,,,,,,,l,Correct!,0,51,51,9,1,t1.png,t5.png,4,9.55E-11,20,female,2020-08-24_14h06.48.734,torte-2b,2020.1.3,MacIntel,60,13394,0.871,,,,,,,,,,,,,,,,,,,,,,,,,,,,,,,,,,,,,,,,,,,,,,,,,,,,,,,,,,,,,,,,,
,,,,,,,,,,,,l,Correct!,0,52,52,36,1,t1.png,t4.png,3,0.0000131,20,female,2020-08-24_14h06.48.734,torte-2b,2020.1.3,MacIntel,60,13394,0.538,,,,,,,,,,,,,,,,,,,,,,,,,,,,,,,,,,,,,,,,,,,,,,,,,,,,,,,,,,,,,,,,,
,,,,,,,,,,,,l,Correct!,0,53,53,39,1,t2.png,t4.png,2,0.059078,20,female,2020-08-24_14h06.48.734,torte-2b,2020.1.3,MacIntel,60,13394,0.588,,,,,,,,,,,,,,,,,,,,,,,,,,,,,,,,,,,,,,,,,,,,,,,,,,,,,,,,,,,,,,,,,
,,,,,,,,,,,,l,Incorrect,0,54,54,38,1,t1.png,t1.png,0,0.97829,20,female,2020-08-24_14h06.48.734,torte-2b,2020.1.3,MacIntel,60,13394,0.415,,,,,,,,,,,,,,,,,,,,,,,,,,,,,,,,,,,,,,,,,,,,,,,,,,,,,,,,,,,,,,,,,
,,,,,,,,,,,,l,Incorrect,0,55,55,109,1,t5.png,t5.png,0,0.97829,20,female,2020-08-24_14h06.48.734,torte-2b,2020.1.3,MacIntel,60,13394,0.789,,,,,,,,,,,,,,,,,,,,,,,,,,,,,,,,,,,,,,,,,,,,,,,,,,,,,,,,,,,,,,,,,
,,,,,,,,,,,,l,Incorrect,0,56,56,45,1,t4.png,t5.png,1,0.90025,20,female,2020-08-24_14h06.48.734,torte-2b,2020.1.3,MacIntel,60,13394,0.738,,,,,,,,,,,,,,,,,,,,,,,,,,,,,,,,,,,,,,,,,,,,,,,,,,,,,,,,,,,,,,,,,
,,,,,,,,,,,,l,Correct!,0,57,57,10,1,t4.png,t1.png,3,0.059078,20,female,2020-08-24_14h06.48.734,torte-2b,2020.1.3,MacIntel,60,13394,1.273,,,,,,,,,,,,,,,,,,,,,,,,,,,,,,,,,,,,,,,,,,,,,,,,,,,,,,,,,,,,,,,,,
,,,,,,,,,,,,l,Incorrect,0,58,58,23,1,t4.png,t5.png,1,0.90025,20,female,2020-08-24_14h06.48.734,torte-2b,2020.1.3,MacIntel,60,13394,0.713,,,,,,,,,,,,,,,,,,,,,,,,,,,,,,,,,,,,,,,,,,,,,,,,,,,,,,,,,,,,,,,,,
,,,,,,,,,,,,l,Incorrect,0,59,59,61,1,t1.png,t1.png,0,0.97829,20,female,2020-08-24_14h06.48.734,torte-2b,2020.1.3,MacIntel,60,13394,1.902,,,,,,,,,,,,,,,,,,,,,,,,,,,,,,,,,,,,,,,,,,,,,,,,,,,,,,,,,,,,,,,,,
,,,,,,,,,,,,l,Incorrect,0,60,60,22,1,t5.png,t5.png,0,0.97829,20,female,2020-08-24_14h06.48.734,torte-2b,2020.1.3,MacIntel,60,13394,1.539,,,,,,,,,,,,,,,,,,,,,,,,,,,,,,,,,,,,,,,,,,,,,,,,,,,,,,,,,,,,,,,,,
,,,,,,,,,,,,l,Correct!,0,61,61,107,1,t1.png,t4.png,3,0.0000131,20,female,2020-08-24_14h06.48.734,torte-2b,2020.1.3,MacIntel,60,13394,1.956,,,,,,,,,,,,,,,,,,,,,,,,,,,,,,,,,,,,,,,,,,,,,,,,,,,,,,,,,,,,,,,,,
,,,,,,,,,,,,a,Correct!,0,62,62,21,1,t5.png,t4.png,1,0.90025,20,female,2020-08-24_14h06.48.734,torte-2b,2020.1.3,MacIntel,60,13394,2.215,,,,,,,,,,,,,,,,,,,,,,,,,,,,,,,,,,,,,,,,,,,,,,,,,,,,,,,,,,,,,,,,,
,,,,,,,,,,,,l,Incorrect,0,63,63,116,1,t4.png,t5.png,1,0.90025,20,female,2020-08-24_14h06.48.734,torte-2b,2020.1.3,MacIntel,60,13394,1.683,,,,,,,,,,,,,,,,,,,,,,,,,,,,,,,,,,,,,,,,,,,,,,,,,,,,,,,,,,,,,,,,,
,,,,,,,,,,,,a,Incorrect,0,64,64,103,1,t4.png,t1.png,3,0.059078,20,female,2020-08-24_14h06.48.734,torte-2b,2020.1.3,MacIntel,60,13394,1.369,,,,,,,,,,,,,,,,,,,,,,,,,,,,,,,,,,,,,,,,,,,,,,,,,,,,,,,,,,,,,,,,,
,,,,,,,,,,,,l,Incorrect,0,65,65,29,1,t3.png,t2.png,1,0.90855,20,female,2020-08-24_14h06.48.734,torte-2b,2020.1.3,MacIntel,60,13394,1.354,,,,,,,,,,,,,,,,,,,,,,,,,,,,,,,,,,,,,,,,,,,,,,,,,,,,,,,,,,,,,,,,,
,,,,,,,,,,,,l,Incorrect,0,66,66,30,1,t2.png,t3.png,1,0.90855,20,female,2020-08-24_14h06.48.734,torte-2b,2020.1.3,MacIntel,60,13394,0.541,,,,,,,,,,,,,,,,,,,,,,,,,,,,,,,,,,,,,,,,,,,,,,,,,,,,,,,,,,,,,,,,,
,,,,,,,,,,,,l,Incorrect,0,67,67,8,1,t5.png,t5.png,0,0.97829,20,female,2020-08-24_14h06.48.734,torte-2b,2020.1.3,MacIntel,60,13394,0.637,,,,,,,,,,,,,,,,,,,,,,,,,,,,,,,,,,,,,,,,,,,,,,,,,,,,,,,,,,,,,,,,,
,,,,,,,,,,,,l,Correct!,0,68,68,89,1,t1.png,t5.png,4,9.55E-11,20,female,2020-08-24_14h06.48.734,torte-2b,2020.1.3,MacIntel,60,13394,2.105,,,,,,,,,,,,,,,,,,,,,,,,,,,,,,,,,,,,,,,,,,,,,,,,,,,,,,,,,,,,,,,,,
,,,,,,,,,,,,l,Correct!,0,69,69,87,1,t5.png,t1.png,4,9.55E-11,20,female,2020-08-24_14h06.48.734,torte-2b,2020.1.3,MacIntel,60,13394,0.772,,,,,,,,,,,,,,,,,,,,,,,,,,,,,,,,,,,,,,,,,,,,,,,,,,,,,,,,,,,,,,,,,
,,,,,,,,,,,,l,Correct!,0,70,70,16,1,t1.png,t5.png,4,9.55E-11,20,female,2020-08-24_14h06.48.734,torte-2b,2020.1.3,MacIntel,60,13394,1.27,,,,,,,,,,,,,,,,,,,,,,,,,,,,,,,,,,,,,,,,,,,,,,,,,,,,,,,,,,,,,,,,,
,,,,,,,,,,,,l,Correct!,0,71,71,37,1,t2.png,t4.png,2,0.059078,20,female,2020-08-24_14h06.48.734,torte-2b,2020.1.3,MacIntel,60,13394,1.232,,,,,,,,,,,,,,,,,,,,,,,,,,,,,,,,,,,,,,,,,,,,,,,,,,,,,,,,,,,,,,,,,
,,,,,,,,,,,,l,Incorrect,0,72,72,7,1,t3.png,t2.png,1,0.90855,20,female,2020-08-24_14h06.48.734,torte-2b,2020.1.3,MacIntel,60,13394,0.706,,,,,,,,,,,,,,,,,,,,,,,,,,,,,,,,,,,,,,,,,,,,,,,,,,,,,,,,,,,,,,,,,
,,,,,,,,,,,,l,Incorrect,0,73,73,53,1,t1.png,t1.png,0,0.97829,20,female,2020-08-24_14h06.48.734,torte-2b,2020.1.3,MacIntel,60,13394,0.798,,,,,,,,,,,,,,,,,,,,,,,,,,,,,,,,,,,,,,,,,,,,,,,,,,,,,,,,,,,,,,,,,
,,,,,,,,,,,,l,Correct!,0,74,74,63,1,t1.png,t5.png,4,9.55E-11,20,female,2020-08-24_14h06.48.734,torte-2b,2020.1.3,MacIntel,60,13394,1.049,,,,,,,,,,,,,,,,,,,,,,,,,,,,,,,,,,,,,,,,,,,,,,,,,,,,,,,,,,,,,,,,,
,,,,,,,,,,,,,Too slow :(,0,75,75,3,1,t4.png,t1.png,3,0.059078,20,female,2020-08-24_14h06.48.734,torte-2b,2020.1.3,MacIntel,60,13394,,,,,,,,,,,,,,,,,,,,,,,,,,,,,,,,,,,,,,,,,,,,,,,,,,,,,,,,,,,,,,,,,,
,,,,,,,,,,,,,Too slow :(,0,76,76,102,1,t2.png,t4.png,2,0.059078,20,female,2020-08-24_14h06.48.734,torte-2b,2020.1.3,MacIntel,60,13394,,,,,,,,,,,,,,,,,,,,,,,,,,,,,,,,,,,,,,,,,,,,,,,,,,,,,,,,,,,,,,,,,,
,,,,,,,,,,,,l,Incorrect,0,77,77,71,1,t4.png,t5.png,1,0.90025,20,female,2020-08-24_14h06.48.734,torte-2b,2020.1.3,MacIntel,60,13394,0.665,,,,,,,,,,,,,,,,,,,,,,,,,,,,,,,,,,,,,,,,,,,,,,,,,,,,,,,,,,,,,,,,,
,,,,,,,,,,,,l,Correct!,0,78,78,49,1,t5.png,t1.png,4,9.55E-11,20,female,2020-08-24_14h06.48.734,torte-2b,2020.1.3,MacIntel,60,13394,0.971,,,,,,,,,,,,,,,,,,,,,,,,,,,,,,,,,,,,,,,,,,,,,,,,,,,,,,,,,,,,,,,,,
,,,,,,,,,,,,l,Correct!,0,79,79,77,1,t3.png,t2.png,1,0.90855,20,female,2020-08-24_14h06.48.734,torte-2b,2020.1.3,MacIntel,60,13394,0.883,,,,,,,,,,,,,,,,,,,,,,,,,,,,,,,,,,,,,,,,,,,,,,,,,,,,,,,,,,,,,,,,,
,,,,,,,,,,,,l,Incorrect,0,80,80,104,1,t4.png,t5.png,1,0.90025,20,female,2020-08-24_14h06.48.734,torte-2b,2020.1.3,MacIntel,60,13394,0.925,,,,,,,,,,,,,,,,,,,,,,,,,,,,,,,,,,,,,,,,,,,,,,,,,,,,,,,,,,,,,,,,,
,,,,,,,,,,,,l,Correct!,0,81,81,64,1,t5.png,t1.png,4,9.55E-11,20,female,2020-08-24_14h06.48.734,torte-2b,2020.1.3,MacIntel,60,13394,1.605,,,,,,,,,,,,,,,,,,,,,,,,,,,,,,,,,,,,,,,,,,,,,,,,,,,,,,,,,,,,,,,,,
,,,,,,,,,,,,l,Incorrect,0,82,82,110,1,t4.png,t5.png,1,0.90025,20,female,2020-08-24_14h06.48.734,torte-2b,2020.1.3,MacIntel,60,13394,1.85,,,,,,,,,,,,,,,,,,,,,,,,,,,,,,,,,,,,,,,,,,,,,,,,,,,,,,,,,,,,,,,,,
,,,,,,,,,,,,l,Correct!,0,83,83,115,1,t2.png,t4.png,2,0.059078,20,female,2020-08-24_14h06.48.734,torte-2b,2020.1.3,MacIntel,60,13394,1.738,,,,,,,,,,,,,,,,,,,,,,,,,,,,,,,,,,,,,,,,,,,,,,,,,,,,,,,,,,,,,,,,,
,,,,,,,,,,,,,Too slow :(,0,84,84,67,1,t3.png,t2.png,1,0.90855,20,female,2020-08-24_14h06.48.734,torte-2b,2020.1.3,MacIntel,60,13394,,,,,,,,,,,,,,,,,,,,,,,,,,,,,,,,,,,,,,,,,,,,,,,,,,,,,,,,,,,,,,,,,,
,,,,,,,,,,,,l,Correct!,0,85,85,94,1,t3.png,t1.png,2,0.056466,20,female,2020-08-24_14h06.48.734,torte-2b,2020.1.3,MacIntel,60,13394,0.583,,,,,,,,,,,,,,,,,,,,,,,,,,,,,,,,,,,,,,,,,,,,,,,,,,,,,,,,,,,,,,,,,
,,,,,,,,,,,,l,Incorrect,0,86,86,65,1,t5.png,t5.png,0,0.97829,20,female,2020-08-24_14h06.48.734,torte-2b,2020.1.3,MacIntel,60,13394,0.467,,,,,,,,,,,,,,,,,,,,,,,,,,,,,,,,,,,,,,,,,,,,,,,,,,,,,,,,,,,,,,,,,
,,,,,,,,,,,,l,Correct!,0,87,87,81,1,t3.png,t1.png,2,0.056466,20,female,2020-08-24_14h06.48.734,torte-2b,2020.1.3,MacIntel,60,13394,1.633,,,,,,,,,,,,,,,,,,,,,,,,,,,,,,,,,,,,,,,,,,,,,,,,,,,,,,,,,,,,,,,,,
,,,,,,,,,,,,l,Correct!,0,88,88,99,1,t4.png,t1.png,3,0.059078,20,female,2020-08-24_14h06.48.734,torte-2b,2020.1.3,MacIntel,60,13394,2.282,,,,,,,,,,,,,,,,,,,,,,,,,,,,,,,,,,,,,,,,,,,,,,,,,,,,,,,,,,,,,,,,,
,,,,,,,,,,,,l,Incorrect,0,89,89,85,1,t5.png,t4.png,1,0.90025,20,female,2020-08-24_14h06.48.734,torte-2b,2020.1.3,MacIntel,60,13394,0.855,,,,,,,,,,,,,,,,,,,,,,,,,,,,,,,,,,,,,,,,,,,,,,,,,,,,,,,,,,,,,,,,,
,,,,,,,,,,,,l,Incorrect,0,90,90,83,1,t3.png,t2.png,1,0.90855,20,female,2020-08-24_14h06.48.734,torte-2b,2020.1.3,MacIntel,60,13394,1.25,,,,,,,,,,,,,,,,,,,,,,,,,,,,,,,,,,,,,,,,,,,,,,,,,,,,,,,,,,,,,,,,,
,,,,,,,,,,,,l,Incorrect,0,91,91,51,1,t4.png,t1.png,3,0.059078,20,female,2020-08-24_14h06.48.734,torte-2b,2020.1.3,MacIntel,60,13394,0.6,,,,,,,,,,,,,,,,,,,,,,,,,,,,,,,,,,,,,,,,,,,,,,,,,,,,,,,,,,,,,,,,,
,,,,,,,,,,,,l,Correct!,0,92,92,66,1,t5.png,t1.png,4,9.55E-11,20,female,2020-08-24_14h06.48.734,torte-2b,2020.1.3,MacIntel,60,13394,0.433,,,,,,,,,,,,,,,,,,,,,,,,,,,,,,,,,,,,,,,,,,,,,,,,,,,,,,,,,,,,,,,,,
,,,,,,,,,,,,,Too slow :(,0,93,93,18,1,t2.png,t3.png,1,0.90855,20,female,2020-08-24_14h06.48.734,torte-2b,2020.1.3,MacIntel,60,13394,,,,,,,,,,,,,,,,,,,,,,,,,,,,,,,,,,,,,,,,,,,,,,,,,,,,,,,,,,,,,,,,,,
,,,,,,,,,,,,l,Correct!,0,94,94,28,1,t1.png,t4.png,3,0.0000131,20,female,2020-08-24_14h06.48.734,torte-2b,2020.1.3,MacIntel,60,13394,0.367,,,,,,,,,,,,,,,,,,,,,,,,,,,,,,,,,,,,,,,,,,,,,,,,,,,,,,,,,,,,,,,,,
,,,,,,,,,,,,l,Incorrect,0,95,95,93,1,t5.png,t4.png,1,0.90025,20,female,2020-08-24_14h06.48.734,torte-2b,2020.1.3,MacIntel,60,13394,0.549,,,,,,,,,,,,,,,,,,,,,,,,,,,,,,,,,,,,,,,,,,,,,,,,,,,,,,,,,,,,,,,,,
,,,,,,,,,,,,l,Correct!,0,96,96,80,1,t4.png,t1.png,3,0.059078,20,female,2020-08-24_14h06.48.734,torte-2b,2020.1.3,MacIntel,60,13394,0.554,,,,,,,,,,,,,,,,,,,,,,,,,,,,,,,,,,,,,,,,,,,,,,,,,,,,,,,,,,,,,,,,,
,,,,,,,,,,,,l,Incorrect,0,97,97,14,1,t2.png,t3.png,1,0.90855,20,female,2020-08-24_14h06.48.734,torte-2b,2020.1.3,MacIntel,60,13394,0.555,,,,,,,,,,,,,,,,,,,,,,,,,,,,,,,,,,,,,,,,,,,,,,,,,,,,,,,,,,,,,,,,,
,,,,,,,,,,,,l,Incorrect,0,98,98,97,1,t1.png,t1.png,0,0.97829,20,female,2020-08-24_14h06.48.734,torte-2b,2020.1.3,MacIntel,60,13394,0.932,,,,,,,,,,,,,,,,,,,,,,,,,,,,,,,,,,,,,,,,,,,,,,,,,,,,,,,,,,,,,,,,,
,,,,,,,,,,,,,Too slow :(,0,99,99,60,1,t4.png,t5.png,1,0.90025,20,female,2020-08-24_14h06.48.734,torte-2b,2020.1.3,MacIntel,60,13394,,,,,,,,,,,,,,,,,,,,,,,,,,,,,,,,,,,,,,,,,,,,,,,,,,,,,,,,,,,,,,,,,,
,,,,,,,,,,,,a,Incorrect,0,100,100,62,1,t1.png,t4.png,3,0.0000131,20,female,2020-08-24_14h06.48.734,torte-2b,2020.1.3,MacIntel,60,13394,1.984,,,,,,,,,,,,,,,,,,,,,,,,,,,,,,,,,,,,,,,,,,,,,,,,,,,,,,,,,,,,,,,,,
,,,,,,,,,,,,,Too slow :(,0,101,101,59,1,t5.png,t1.png,4,9.55E-11,20,female,2020-08-24_14h06.48.734,torte-2b,2020.1.3,MacIntel,60,13394,,,,,,,,,,,,,,,,,,,,,,,,,,,,,,,,,,,,,,,,,,,,,,,,,,,,,,,,,,,,,,,,,,
,,,,,,,,,,,,l,Incorrect,0,102,102,4,1,t3.png,t2.png,1,0.90855,20,female,2020-08-24_14h06.48.734,torte-2b,2020.1.3,MacIntel,60,13394,2.431,,,,,,,,,,,,,,,,,,,,,,,,,,,,,,,,,,,,,,,,,,,,,,,,,,,,,,,,,,,,,,,,,
,,,,,,,,,,,,a,Incorrect,0,103,103,70,1,t1.png,t5.png,4,9.55E-11,20,female,2020-08-24_14h06.48.734,torte-2b,2020.1.3,MacIntel,60,13394,1.27,,,,,,,,,,,,,,,,,,,,,,,,,,,,,,,,,,,,,,,,,,,,,,,,,,,,,,,,,,,,,,,,,
,,,,,,,,,,,,,Too slow :(,0,104,104,24,1,t5.png,t5.png,0,0.97829,20,female,2020-08-24_14h06.48.734,torte-2b,2020.1.3,MacIntel,60,13394,,,,,,,,,,,,,,,,,,,,,,,,,,,,,,,,,,,,,,,,,,,,,,,,,,,,,,,,,,,,,,,,,,
,,,,,,,,,,,,l,Correct!,0,105,105,26,1,t1.png,t5.png,4,9.55E-11,20,female,2020-08-24_14h06.48.734,torte-2b,2020.1.3,MacIntel,60,13394,1.321,,,,,,,,,,,,,,,,,,,,,,,,,,,,,,,,,,,,,,,,,,,,,,,,,,,,,,,,,,,,,,,,,
,,,,,,,,,,,,l,Correct!,0,106,106,35,1,t1.png,t4.png,3,0.0000131,20,female,2020-08-24_14h06.48.734,torte-2b,2020.1.3,MacIntel,60,13394,0.636,,,,,,,,,,,,,,,,,,,,,,,,,,,,,,,,,,,,,,,,,,,,,,,,,,,,,,,,,,,,,,,,,
,,,,,,,,,,,,l,Correct!,0,107,107,74,1,t5.png,t1.png,4,9.55E-11,20,female,2020-08-24_14h06.48.734,torte-2b,2020.1.3,MacIntel,60,13394,0.798,,,,,,,,,,,,,,,,,,,,,,,,,,,,,,,,,,,,,,,,,,,,,,,,,,,,,,,,,,,,,,,,,
,,,,,,,,,,,,l,Incorrect,0,108,108,111,1,t1.png,t1.png,0,0.97829,20,female,2020-08-24_14h06.48.734,torte-2b,2020.1.3,MacIntel,60,13394,0.183,,,,,,,,,,,,,,,,,,,,,,,,,,,,,,,,,,,,,,,,,,,,,,,,,,,,,,,,,,,,,,,,,
,,,,,,,,,,,,l,Correct!,0,109,109,106,1,t4.png,t1.png,3,0.059078,20,female,2020-08-24_14h06.48.734,torte-2b,2020.1.3,MacIntel,60,13394,0.44,,,,,,,,,,,,,,,,,,,,,,,,,,,,,,,,,,,,,,,,,,,,,,,,,,,,,,,,,,,,,,,,,
,,,,,,,,,,,,,Too slow :(,0,110,110,79,1,t1.png,t4.png,3,0.0000131,20,female,2020-08-24_14h06.48.734,torte-2b,2020.1.3,MacIntel,60,13394,,,,,,,,,,,,,,,,,,,,,,,,,,,,,,,,,,,,,,,,,,,,,,,,,,,,,,,,,,,,,,,,,,
,,,,,,,,,,,,l,Incorrect,0,111,111,91,1,t5.png,t4.png,1,0.90025,20,female,2020-08-24_14h06.48.734,torte-2b,2020.1.3,MacIntel,60,13394,0.368,,,,,,,,,,,,,,,,,,,,,,,,,,,,,,,,,,,,,,,,,,,,,,,,,,,,,,,,,,,,,,,,,
,,,,,,,,,,,,l,Correct!,0,112,112,98,1,t5.png,t1.png,4,9.55E-11,20,female,2020-08-24_14h06.48.734,torte-2b,2020.1.3,MacIntel,60,13394,0.981,,,,,,,,,,,,,,,,,,,,,,,,,,,,,,,,,,,,,,,,,,,,,,,,,,,,,,,,,,,,,,,,,
,,,,,,,,,,,,l,Correct!,0,113,113,78,1,t1.png,t4.png,3,0.0000131,20,female,2020-08-24_14h06.48.734,torte-2b,2020.1.3,MacIntel,60,13394,1.49,,,,,,,,,,,,,,,,,,,,,,,,,,,,,,,,,,,,,,,,,,,,,,,,,,,,,,,,,,,,,,,,,
,,,,,,,,,,,,l,Correct!,0,114,114,73,1,t3.png,t1.png,2,0.056466,20,female,2020-08-24_14h06.48.734,torte-2b,2020.1.3,MacIntel,60,13394,0.367,,,,,,,,,,,,,,,,,,,,,,,,,,,,,,,,,,,,,,,,,,,,,,,,,,,,,,,,,,,,,,,,,
,,,,,,,,,,,,,Too slow :(,0,115,115,112,1,t5.png,t4.png,1,0.90025,20,female,2020-08-24_14h06.48.734,torte-2b,2020.1.3,MacIntel,60,13394,,,,,,,,,,,,,,,,,,,,,,,,,,,,,,,,,,,,,,,,,,,,,,,,,,,,,,,,,,,,,,,,,,
,,,,,,,,,,,,,Too slow :(,0,116,116,88,1,t1.png,t1.png,0,0.97829,20,female,2020-08-24_14h06.48.734,torte-2b,2020.1.3,MacIntel,60,13394,,,,,,,,,,,,,,,,,,,,,,,,,,,,,,,,,,,,,,,,,,,,,,,,,,,,,,,,,,,,,,,,,,
,,,,,,,,,,,,,Too slow :(,0,117,117,56,1,t2.png,t3.png,1,0.90855,20,female,2020-08-24_14h06.48.734,torte-2b,2020.1.3,MacIntel,60,13394,,,,,,,,,,,,,,,,,,,,,,,,,,,,,,,,,,,,,,,,,,,,,,,,,,,,,,,,,,,,,,,,,,
,,,,,,,,,,,,l,Incorrect,0,118,118,117,1,t2.png,t4.png,2,0.059078,20,female,2020-08-24_14h06.48.734,torte-2b,2020.1.3,MacIntel,60,13394,0.556,,,,,,,,,,,,,,,,,,,,,,,,,,,,,,,,,,,,,,,,,,,,,,,,,,,,,,,,,,,,,,,,,
,,,,,,,,,,,,l,Correct!,0,119,119,105,1,t4.png,t1.png,3,0.059078,20,female,2020-08-24_14h06.48.734,torte-2b,2020.1.3,MacIntel,60,13394,0.951,,,,,,,,,,,,,,,,,,,,,,,,,,,,,,,,,,,,,,,,,,,,,,,,,,,,,,,,,,,,,,,,,
,,,,,,,,,,,,a,Incorrect,,,,,,t5.png,t1.png,4,9.55E-11,20,female,2020-08-24_14h06.48.734,torte-2b,2020.1.3,MacIntel,60,13394,2.117,l,1.552,space,753.069,0,0,0,101,1,,,,,,,,,,,,,,,,,,,,,,,,,,,,,,,,,,,,,,,,,,,,,,,,,,,,,,,,
,,,,,,,,,,,,a,Correct!,,,,,,t4.png,t5.png,1,0.9,20,female,2020-08-24_14h06.48.734,torte-2b,2020.1.3,MacIntel,60,13394,0.849,,,,,0,1,1,81,1,,,,,,,,,,,,,,,,,,,,,,,,,,,,,,,,,,,,,,,,,,,,,,,,,,,,,,,,
,,,,,,,,,,,,a,Correct!,,,,,,t5.png,t4.png,1,0.90025,20,female,2020-08-24_14h06.48.734,torte-2b,2020.1.3,MacIntel,60,13394,0.499,,,,,0,2,2,38,1,,,,,,,,,,,,,,,,,,,,,,,,,,,,,,,,,,,,,,,,,,,,,,,,,,,,,,,,
,,,,,,,,,,,,a,Correct!,,,,,,t2.png,t3.png,1,0.909,20,female,2020-08-24_14h06.48.734,torte-2b,2020.1.3,MacIntel,60,13394,1.035,,,,,0,3,3,8,1,,,,,,,,,,,,,,,,,,,,,,,,,,,,,,,,,,,,,,,,,,,,,,,,,,,,,,,,
,,,,,,,,,,,,a,Correct!,,,,,,t3.png,t4.png,1,0.90855,20,female,2020-08-24_14h06.48.734,torte-2b,2020.1.3,MacIntel,60,13394,0.902,,,,,0,4,4,9,1,,,,,,,,,,,,,,,,,,,,,,,,,,,,,,,,,,,,,,,,,,,,,,,,,,,,,,,,
,,,,,,,,,,,,l,Correct!,,,,,,t4.png,t1.png,3,0.0000131,20,female,2020-08-24_14h06.48.734,torte-2b,2020.1.3,MacIntel,60,13394,1.186,,,,,0,5,5,28,1,,,,,,,,,,,,,,,,,,,,,,,,,,,,,,,,,,,,,,,,,,,,,,,,,,,,,,,,
,,,,,,,,,,,,a,Incorrect,,,,,,t5.png,t3.png,2,0.056466,20,female,2020-08-24_14h06.48.734,torte-2b,2020.1.3,MacIntel,60,13394,1.669,,,,,0,6,6,80,1,,,,,,,,,,,,,,,,,,,,,,,,,,,,,,,,,,,,,,,,,,,,,,,,,,,,,,,,
,,,,,,,,,,,,l,Correct!,,,,,,t1.png,t4.png,3,0.0000131,20,female,2020-08-24_14h06.48.734,torte-2b,2020.1.3,MacIntel,60,13394,1.122,,,,,0,7,7,74,1,,,,,,,,,,,,,,,,,,,,,,,,,,,,,,,,,,,,,,,,,,,,,,,,,,,,,,,,
,,,,,,,,,,,,l,Incorrect,,,,,,t3.png,t4.png,1,0.90855,20,female,2020-08-24_14h06.48.734,torte-2b,2020.1.3,MacIntel,60,13394,0.531,,,,,0,8,8,58,1,,,,,,,,,,,,,,,,,,,,,,,,,,,,,,,,,,,,,,,,,,,,,,,,,,,,,,,,
,,,,,,,,,,,,l,Incorrect,,,,,,t3.png,t4.png,1,0.90855,20,female,2020-08-24_14h06.48.734,torte-2b,2020.1.3,MacIntel,60,13394,1.097,,,,,0,9,9,111,1,,,,,,,,,,,,,,,,,,,,,,,,,,,,,,,,,,,,,,,,,,,,,,,,,,,,,,,,
,,,,,,,,,,,,l,Incorrect,,,,,,t4.png,t5.png,1,0.90025,20,female,2020-08-24_14h06.48.734,torte-2b,2020.1.3,MacIntel,60,13394,2.248,,,,,0,10,10,33,1,,,,,,,,,,,,,,,,,,,,,,,,,,,,,,,,,,,,,,,,,,,,,,,,,,,,,,,,
,,,,,,,,,,,,l,Incorrect,,,,,,t2.png,t2.png,0,0.981,20,female,2020-08-24_14h06.48.734,torte-2b,2020.1.3,MacIntel,60,13394,0.922,,,,,0,11,11,98,1,,,,,,,,,,,,,,,,,,,,,,,,,,,,,,,,,,,,,,,,,,,,,,,,,,,,,,,,
,,,,,,,,,,,,l,Correct!,,,,,,t3.png,t5.png,2,0.0565,20,female,2020-08-24_14h06.48.734,torte-2b,2020.1.3,MacIntel,60,13394,0.398,,,,,0,12,12,71,1,,,,,,,,,,,,,,,,,,,,,,,,,,,,,,,,,,,,,,,,,,,,,,,,,,,,,,,,
,,,,,,,,,,,,l,Correct!,,,,,,t2.png,t5.png,3,0.0000131,20,female,2020-08-24_14h06.48.734,torte-2b,2020.1.3,MacIntel,60,13394,0.718,,,,,0,13,13,115,1,,,,,,,,,,,,,,,,,,,,,,,,,,,,,,,,,,,,,,,,,,,,,,,,,,,,,,,,
,,,,,,,,,,,,l,Incorrect,,,,,,t2.png,t2.png,0,0.98115,20,female,2020-08-24_14h06.48.734,torte-2b,2020.1.3,MacIntel,60,13394,0.265,,,,,0,14,14,7,1,,,,,,,,,,,,,,,,,,,,,,,,,,,,,,,,,,,,,,,,,,,,,,,,,,,,,,,,
,,,,,,,,,,,,l,Correct!,,,,,,t1.png,t5.png,4,9.55E-11,20,female,2020-08-24_14h06.48.734,torte-2b,2020.1.3,MacIntel,60,13394,0.321,,,,,0,15,15,1,1,,,,,,,,,,,,,,,,,,,,,,,,,,,,,,,,,,,,,,,,,,,,,,,,,,,,,,,,
,,,,,,,,,,,,l,Correct!,,,,,,t5.png,t1.png,4,9.55E-11,20,female,2020-08-24_14h06.48.734,torte-2b,2020.1.3,MacIntel,60,13394,0.319,,,,,0,16,16,89,1,,,,,,,,,,,,,,,,,,,,,,,,,,,,,,,,,,,,,,,,,,,,,,,,,,,,,,,,
,,,,,,,,,,,,l,Correct!,,,,,,t4.png,t1.png,3,0.059078,20,female,2020-08-24_14h06.48.734,torte-2b,2020.1.3,MacIntel,60,13394,0.397,,,,,0,17,17,75,1,,,,,,,,,,,,,,,,,,,,,,,,,,,,,,,,,,,,,,,,,,,,,,,,,,,,,,,,
,,,,,,,,,,,,l,Incorrect,,,,,,t3.png,t5.png,2,0.056466,20,female,2020-08-24_14h06.48.734,torte-2b,2020.1.3,MacIntel,60,13394,0.655,,,,,0,18,18,60,1,,,,,,,,,,,,,,,,,,,,,,,,,,,,,,,,,,,,,,,,,,,,,,,,,,,,,,,,
,,,,,,,,,,,,,Too slow :(,,,,,,t4.png,t1.png,3,0.0000131,20,female,2020-08-24_14h06.48.734,torte-2b,2020.1.3,MacIntel,60,13394,,,,,,0,19,19,49,1,,,,,,,,,,,,,,,,,,,,,,,,,,,,,,,,,,,,,,,,,,,,,,,,,,,,,,,,
,,,,,,,,,,,,l,Correct!,,,,,,t1.png,t4.png,3,0.0000131,20,female,2020-08-24_14h06.48.734,torte-2b,2020.1.3,MacIntel,60,13394,1.091,,,,,0,20,20,106,1,,,,,,,,,,,,,,,,,,,,,,,,,,,,,,,,,,,,,,,,,,,,,,,,,,,,,,,,
,,,,,,,,,,,,l,Correct!,,,,,,t1.png,t4.png,3,0.0000131,20,female,2020-08-24_14h06.48.734,torte-2b,2020.1.3,MacIntel,60,13394,0.499,,,,,0,21,21,16,1,,,,,,,,,,,,,,,,,,,,,,,,,,,,,,,,,,,,,,,,,,,,,,,,,,,,,,,,
,,,,,,,,,,,,l,Correct!,,,,,,t1.png,t3.png,2,0.056466,20,female,2020-08-24_14h06.48.734,torte-2b,2020.1.3,MacIntel,60,13394,0.482,,,,,0,22,22,24,1,,,,,,,,,,,,,,,,,,,,,,,,,,,,,,,,,,,,,,,,,,,,,,,,,,,,,,,,
,,,,,,,,,,,,l,Correct!,,,,,,t1.png,t4.png,3,0.0000131,20,female,2020-08-24_14h06.48.734,torte-2b,2020.1.3,MacIntel,60,13394,0.372,,,,,0,23,23,36,1,,,,,,,,,,,,,,,,,,,,,,,,,,,,,,,,,,,,,,,,,,,,,,,,,,,,,,,,
,,,,,,,,,,,,,Too slow :(,,,,,,t3.png,t1.png,2,0.056466,20,female,2020-08-24_14h06.48.734,torte-2b,2020.1.3,MacIntel,60,13394,,,,,,0,24,24,34,1,,,,,,,,,,,,,,,,,,,,,,,,,,,,,,,,,,,,,,,,,,,,,,,,,,,,,,,,
,,,,,,,,,,,,l,Incorrect,,,,,,t2.png,t3.png,1,0.90855,20,female,2020-08-24_14h06.48.734,torte-2b,2020.1.3,MacIntel,60,13394,0.705,,,,,0,25,25,79,1,,,,,,,,,,,,,,,,,,,,,,,,,,,,,,,,,,,,,,,,,,,,,,,,,,,,,,,,
,,,,,,,,,,,,l,Incorrect,,,,,,t4.png,t4.png,0,0.98115,20,female,2020-08-24_14h06.48.734,torte-2b,2020.1.3,MacIntel,60,13394,0.665,,,,,0,26,26,52,1,,,,,,,,,,,,,,,,,,,,,,,,,,,,,,,,,,,,,,,,,,,,,,,,,,,,,,,,
,,,,,,,,,,,,l,Incorrect,,,,,,t3.png,t2.png,1,0.90855,20,female,2020-08-24_14h06.48.734,torte-2b,2020.1.3,MacIntel,60,13394,1.316,,,,,0,27,27,108,1,,,,,,,,,,,,,,,,,,,,,,,,,,,,,,,,,,,,,,,,,,,,,,,,,,,,,,,,
,,,,,,,,,,,,l,Incorrect,,,,,,t1.png,t2.png,1,0.9,20,female,2020-08-24_14h06.48.734,torte-2b,2020.1.3,MacIntel,60,13394,0.772,,,,,0,28,28,17,1,,,,,,,,,,,,,,,,,,,,,,,,,,,,,,,,,,,,,,,,,,,,,,,,,,,,,,,,
,,,,,,,,,,,,l,Incorrect,,,,,,t1.png,t1.png,0,0.978,20,female,2020-08-24_14h06.48.734,torte-2b,2020.1.3,MacIntel,60,13394,0.4,,,,,0,29,29,13,1,,,,,,,,,,,,,,,,,,,,,,,,,,,,,,,,,,,,,,,,,,,,,,,,,,,,,,,,
,,,,,,,,,,,,l,Correct!,,,,,,t5.png,t2.png,3,0.0000131,20,female,2020-08-24_14h06.48.734,torte-2b,2020.1.3,MacIntel,60,13394,0.771,,,,,0,30,30,83,1,,,,,,,,,,,,,,,,,,,,,,,,,,,,,,,,,,,,,,,,,,,,,,,,,,,,,,,,
,,,,,,,,,,,,l,Incorrect,,,,,,t2.png,t1.png,1,0.9,20,female,2020-08-24_14h06.48.734,torte-2b,2020.1.3,MacIntel,60,13394,0.683,,,,,0,31,31,93,1,,,,,,,,,,,,,,,,,,,,,,,,,,,,,,,,,,,,,,,,,,,,,,,,,,,,,,,,
,,,,,,,,,,,,,Too slow :(,,,,,,t1.png,t5.png,4,9.55E-11,20,female,2020-08-24_14h06.48.734,torte-2b,2020.1.3,MacIntel,60,13394,,,,,,0,32,32,30,1,,,,,,,,,,,,,,,,,,,,,,,,,,,,,,,,,,,,,,,,,,,,,,,,,,,,,,,,
,,,,,,,,,,,,l,Correct!,,,,,,t2.png,t4.png,2,0.059078,20,female,2020-08-24_14h06.48.734,torte-2b,2020.1.3,MacIntel,60,13394,0.423,,,,,0,33,33,18,1,,,,,,,,,,,,,,,,,,,,,,,,,,,,,,,,,,,,,,,,,,,,,,,,,,,,,,,,
,,,,,,,,,,,,,Too slow :(,,,,,,t4.png,t5.png,1,0.90025,20,female,2020-08-24_14h06.48.734,torte-2b,2020.1.3,MacIntel,60,13394,,,,,,0,34,34,21,1,,,,,,,,,,,,,,,,,,,,,,,,,,,,,,,,,,,,,,,,,,,,,,,,,,,,,,,,
,,,,,,,,,,,,l,Correct!,,,,,,t3.png,t5.png,2,0.056466,20,female,2020-08-24_14h06.48.734,torte-2b,2020.1.3,MacIntel,60,13394,0.572,,,,,0,35,35,45,1,,,,,,,,,,,,,,,,,,,,,,,,,,,,,,,,,,,,,,,,,,,,,,,,,,,,,,,,
,,,,,,,,,,,,l,Correct!,,,,,,t4.png,t1.png,3,0.059078,20,female,2020-08-24_14h06.48.734,torte-2b,2020.1.3,MacIntel,60,13394,0.784,,,,,0,36,36,62,1,,,,,,,,,,,,,,,,,,,,,,,,,,,,,,,,,,,,,,,,,,,,,,,,,,,,,,,,
,,,,,,,,,,,,l,Correct!,,,,,,t5.png,t4.png,1,0.90025,20,female,2020-08-24_14h06.48.734,torte-2b,2020.1.3,MacIntel,60,13394,0.798,,,,,0,37,37,14,1,,,,,,,,,,,,,,,,,,,,,,,,,,,,,,,,,,,,,,,,,,,,,,,,,,,,,,,,
,,,,,,,,,,,,l,Incorrect,,,,,,t4.png,t5.png,1,0.90025,20,female,2020-08-24_14h06.48.734,torte-2b,2020.1.3,MacIntel,60,13394,1.82,,,,,0,38,38,63,1,,,,,,,,,,,,,,,,,,,,,,,,,,,,,,,,,,,,,,,,,,,,,,,,,,,,,,,,
,,,,,,,,,,,,l,Incorrect,,,,,,t1.png,t1.png,0,0.97829,20,female,2020-08-24_14h06.48.734,torte-2b,2020.1.3,MacIntel,60,13394,1.418,,,,,0,39,39,4,1,,,,,,,,,,,,,,,,,,,,,,,,,,,,,,,,,,,,,,,,,,,,,,,,,,,,,,,,
,,,,,,,,,,,,l,Correct!,,,,,,t1.png,t3.png,2,0.0565,20,female,2020-08-24_14h06.48.734,torte-2b,2020.1.3,MacIntel,60,13394,1.066,,,,,0,40,40,42,1,,,,,,,,,,,,,,,,,,,,,,,,,,,,,,,,,,,,,,,,,,,,,,,,,,,,,,,,
,,,,,,,,,,,,l,Incorrect,,,,,,t5.png,t4.png,1,0.9,20,female,2020-08-24_14h06.48.734,torte-2b,2020.1.3,MacIntel,60,13394,1.65,,,,,0,41,41,92,1,,,,,,,,,,,,,,,,,,,,,,,,,,,,,,,,,,,,,,,,,,,,,,,,,,,,,,,,
,,,,,,,,,,,,l,Incorrect,,,,,,t4.png,t3.png,1,0.909,20,female,2020-08-24_14h06.48.734,torte-2b,2020.1.3,MacIntel,60,13394,0.781,,,,,0,42,42,119,1,,,,,,,,,,,,,,,,,,,,,,,,,,,,,,,,,,,,,,,,,,,,,,,,,,,,,,,,
,,,,,,,,,,,,l,Incorrect,,,,,,t5.png,t5.png,0,0.97829,20,female,2020-08-24_14h06.48.734,torte-2b,2020.1.3,MacIntel,60,13394,0.833,,,,,0,43,43,35,1,,,,,,,,,,,,,,,,,,,,,,,,,,,,,,,,,,,,,,,,,,,,,,,,,,,,,,,,
,,,,,,,,,,,,l,Incorrect,,,,,,t4.png,t3.png,1,0.909,20,female,2020-08-24_14h06.48.734,torte-2b,2020.1.3,MacIntel,60,13394,0.7,,,,,0,44,44,107,1,,,,,,,,,,,,,,,,,,,,,,,,,,,,,,,,,,,,,,,,,,,,,,,,,,,,,,,,
,,,,,,,,,,,,l,Correct!,,,,,,t2.png,t4.png,2,0.059078,20,female,2020-08-24_14h06.48.734,torte-2b,2020.1.3,MacIntel,60,13394,0.648,,,,,0,45,45,97,1,,,,,,,,,,,,,,,,,,,,,,,,,,,,,,,,,,,,,,,,,,,,,,,,,,,,,,,,
,,,,,,,,,,,,l,Correct!,,,,,,t4.png,t5.png,1,0.90025,20,female,2020-08-24_14h06.48.734,torte-2b,2020.1.3,MacIntel,60,13394,0.672,,,,,0,46,46,86,1,,,,,,,,,,,,,,,,,,,,,,,,,,,,,,,,,,,,,,,,,,,,,,,,,,,,,,,,
,,,,,,,,,,,,l,Correct!,,,,,,t5.png,t2.png,3,0.0000131,20,female,2020-08-24_14h06.48.734,torte-2b,2020.1.3,MacIntel,60,13394,1.248,,,,,0,47,47,66,1,,,,,,,,,,,,,,,,,,,,,,,,,,,,,,,,,,,,,,,,,,,,,,,,,,,,,,,,
,,,,,,,,,,,,l,Correct!,,,,,,t5.png,t3.png,2,0.056466,20,female,2020-08-24_14h06.48.734,torte-2b,2020.1.3,MacIntel,60,13394,0.433,,,,,0,48,48,37,1,,,,,,,,,,,,,,,,,,,,,,,,,,,,,,,,,,,,,,,,,,,,,,,,,,,,,,,,
,,,,,,,,,,,,l,Incorrect,,,,,,t4.png,t3.png,1,0.90855,20,female,2020-08-24_14h06.48.734,torte-2b,2020.1.3,MacIntel,60,13394,1.067,,,,,0,49,49,11,1,,,,,,,,,,,,,,,,,,,,,,,,,,,,,,,,,,,,,,,,,,,,,,,,,,,,,,,,
,,,,,,,,,,,,l,Incorrect,,,,,,t1.png,t1.png,0,0.978,20,female,2020-08-24_14h06.48.734,torte-2b,2020.1.3,MacIntel,60,13394,0.519,,,,,0,50,50,22,1,,,,,,,,,,,,,,,,,,,,,,,,,,,,,,,,,,,,,,,,,,,,,,,,,,,,,,,,
,,,,,,,,,,,,l,Incorrect,,,,,,t2.png,t3.png,1,0.90855,20,female,2020-08-24_14h06.48.734,torte-2b,2020.1.3,MacIntel,60,13394,0.455,,,,,0,51,51,64,1,,,,,,,,,,,,,,,,,,,,,,,,,,,,,,,,,,,,,,,,,,,,,,,,,,,,,,,,
,,,,,,,,,,,,l,Correct!,,,,,,t2.png,t4.png,2,0.059078,20,female,2020-08-24_14h06.48.734,torte-2b,2020.1.3,MacIntel,60,13394,0.802,,,,,0,52,52,84,1,,,,,,,,,,,,,,,,,,,,,,,,,,,,,,,,,,,,,,,,,,,,,,,,,,,,,,,,
,,,,,,,,,,,,l,Correct!,,,,,,t1.png,t5.png,4,9.55E-11,20,female,2020-08-24_14h06.48.734,torte-2b,2020.1.3,MacIntel,60,13394,0.504,,,,,0,53,53,20,1,,,,,,,,,,,,,,,,,,,,,,,,,,,,,,,,,,,,,,,,,,,,,,,,,,,,,,,,
,,,,,,,,,,,,,Too slow :(,,,,,,t1.png,t5.png,4,9.55E-11,20,female,2020-08-24_14h06.48.734,torte-2b,2020.1.3,MacIntel,60,13394,,,,,,0,54,54,3,1,,,,,,,,,,,,,,,,,,,,,,,,,,,,,,,,,,,,,,,,,,,,,,,,,,,,,,,,
,,,,,,,,,,,,l,Incorrect,,,,,,t5.png,t5.png,0,0.978,20,female,2020-08-24_14h06.48.734,torte-2b,2020.1.3,MacIntel,60,13394,0.524,,,,,0,55,55,116,1,,,,,,,,,,,,,,,,,,,,,,,,,,,,,,,,,,,,,,,,,,,,,,,,,,,,,,,,
,,,,,,,,,,,,l,Incorrect,,,,,,t4.png,t3.png,1,0.90855,20,female,2020-08-24_14h06.48.734,torte-2b,2020.1.3,MacIntel,60,13394,0.317,,,,,0,56,56,56,1,,,,,,,,,,,,,,,,,,,,,,,,,,,,,,,,,,,,,,,,,,,,,,,,,,,,,,,,
,,,,,,,,,,,,l,Correct!,,,,,,t1.png,t3.png,2,0.056466,20,female,2020-08-24_14h06.48.734,torte-2b,2020.1.3,MacIntel,60,13394,1.238,,,,,0,57,57,32,1,,,,,,,,,,,,,,,,,,,,,,,,,,,,,,,,,,,,,,,,,,,,,,,,,,,,,,,,
,,,,,,,,,,,,l,Incorrect,,,,,,t2.png,t1.png,1,0.90025,20,female,2020-08-24_14h06.48.734,torte-2b,2020.1.3,MacIntel,60,13394,0.371,,,,,0,58,58,65,1,,,,,,,,,,,,,,,,,,,,,,,,,,,,,,,,,,,,,,,,,,,,,,,,,,,,,,,,
,,,,,,,,,,,,l,Correct!,,,,,,t2.png,t5.png,3,0.0000131,20,female,2020-08-24_14h06.48.734,torte-2b,2020.1.3,MacIntel,60,13394,0.27,,,,,0,59,59,85,1,,,,,,,,,,,,,,,,,,,,,,,,,,,,,,,,,,,,,,,,,,,,,,,,,,,,,,,,
,,,,,,,,,,,,l,Correct!,,,,,,t5.png,t2.png,3,0.0000131,20,female,2020-08-24_14h06.48.734,torte-2b,2020.1.3,MacIntel,60,13394,0.906,,,,,0,60,60,82,1,,,,,,,,,,,,,,,,,,,,,,,,,,,,,,,,,,,,,,,,,,,,,,,,,,,,,,,,
,,,,,,,,,,,,l,Correct!,,,,,,t5.png,t2.png,3,0.0000131,20,female,2020-08-24_14h06.48.734,torte-2b,2020.1.3,MacIntel,60,13394,0.581,,,,,0,61,61,48,1,,,,,,,,,,,,,,,,,,,,,,,,,,,,,,,,,,,,,,,,,,,,,,,,,,,,,,,,
,,,,,,,,,,,,l,Correct!,,,,,,t4.png,t1.png,3,0.059078,20,female,2020-08-24_14h06.48.734,torte-2b,2020.1.3,MacIntel,60,13394,0.734,,,,,0,62,62,57,1,,,,,,,,,,,,,,,,,,,,,,,,,,,,,,,,,,,,,,,,,,,,,,,,,,,,,,,,
,,,,,,,,,,,,,Too slow :(,,,,,,t1.png,t2.png,1,0.9,20,female,2020-08-24_14h06.48.734,torte-2b,2020.1.3,MacIntel,60,13394,,,,,,0,63,63,61,1,,,,,,,,,,,,,,,,,,,,,,,,,,,,,,,,,,,,,,,,,,,,,,,,,,,,,,,,
,,,,,,,,,,,,l,Incorrect,,,,,,t1.png,t2.png,1,0.90025,20,female,2020-08-24_14h06.48.734,torte-2b,2020.1.3,MacIntel,60,13394,0.265,,,,,0,64,64,6,1,,,,,,,,,,,,,,,,,,,,,,,,,,,,,,,,,,,,,,,,,,,,,,,,,,,,,,,,
,,,,,,,,,,,,l,Incorrect,,,,,,t1.png,t1.png,0,0.97829,20,female,2020-08-24_14h06.48.734,torte-2b,2020.1.3,MacIntel,60,13394,0.304,,,,,0,65,65,110,1,,,,,,,,,,,,,,,,,,,,,,,,,,,,,,,,,,,,,,,,,,,,,,,,,,,,,,,,
,,,,,,,,,,,,l,Incorrect,,,,,,t4.png,t3.png,1,0.90855,20,female,2020-08-24_14h06.48.734,torte-2b,2020.1.3,MacIntel,60,13394,0.663,,,,,0,66,66,29,1,,,,,,,,,,,,,,,,,,,,,,,,,,,,,,,,,,,,,,,,,,,,,,,,,,,,,,,,
,,,,,,,,,,,,l,Correct!,,,,,,t2.png,t5.png,3,0.0000131,20,female,2020-08-24_14h06.48.734,torte-2b,2020.1.3,MacIntel,60,13394,0.883,,,,,0,67,67,46,1,,,,,,,,,,,,,,,,,,,,,,,,,,,,,,,,,,,,,,,,,,,,,,,,,,,,,,,,
,,,,,,,,,,,,l,Incorrect,,,,,,t3.png,t2.png,1,0.90855,20,female,2020-08-24_14h06.48.734,torte-2b,2020.1.3,MacIntel,60,13394,0.47,,,,,0,68,68,99,1,,,,,,,,,,,,,,,,,,,,,,,,,,,,,,,,,,,,,,,,,,,,,,,,,,,,,,,,
,,,,,,,,,,,,l,Correct!,,,,,,t2.png,t5.png,3,0.0000131,20,female,2020-08-24_14h06.48.734,torte-2b,2020.1.3,MacIntel,60,13394,0.839,,,,,0,69,69,39,1,,,,,,,,,,,,,,,,,,,,,,,,,,,,,,,,,,,,,,,,,,,,,,,,,,,,,,,,
,,,,,,,,,,,,l,Incorrect,,,,,,t2.png,t2.png,0,0.98115,20,female,2020-08-24_14h06.48.734,torte-2b,2020.1.3,MacIntel,60,13394,0.601,,,,,0,70,70,112,1,,,,,,,,,,,,,,,,,,,,,,,,,,,,,,,,,,,,,,,,,,,,,,,,,,,,,,,,
,,,,,,,,,,,,l,Correct!,,,,,,t1.png,t3.png,2,0.0565,20,female,2020-08-24_14h06.48.734,torte-2b,2020.1.3,MacIntel,60,13394,0.433,,,,,0,71,71,95,1,,,,,,,,,,,,,,,,,,,,,,,,,,,,,,,,,,,,,,,,,,,,,,,,,,,,,,,,
,,,,,,,,,,,,,Too slow :(,,,,,,t3.png,t2.png,1,0.90855,20,female,2020-08-24_14h06.48.734,torte-2b,2020.1.3,MacIntel,60,13394,,,,,,0,72,72,0,1,,,,,,,,,,,,,,,,,,,,,,,,,,,,,,,,,,,,,,,,,,,,,,,,,,,,,,,,
,,,,,,,,,,,,l,Incorrect,,,,,,t2.png,t3.png,1,0.90855,20,female,2020-08-24_14h06.48.734,torte-2b,2020.1.3,MacIntel,60,13394,0.647,,,,,0,73,73,113,1,,,,,,,,,,,,,,,,,,,,,,,,,,,,,,,,,,,,,,,,,,,,,,,,,,,,,,,,
,,,,,,,,,,,,l,Incorrect,,,,,,t4.png,t4.png,0,0.98115,20,female,2020-08-24_14h06.48.734,torte-2b,2020.1.3,MacIntel,60,13394,0.834,,,,,0,74,74,19,1,,,,,,,,,,,,,,,,,,,,,,,,,,,,,,,,,,,,,,,,,,,,,,,,,,,,,,,,
,,,,,,,,,,,,l,Incorrect,,,,,,t2.png,t1.png,1,0.9,20,female,2020-08-24_14h06.48.734,torte-2b,2020.1.3,MacIntel,60,13394,0.398,,,,,0,75,75,100,1,,,,,,,,,,,,,,,,,,,,,,,,,,,,,,,,,,,,,,,,,,,,,,,,,,,,,,,,
,,,,,,,,,,,,l,Incorrect,,,,,,t5.png,t5.png,0,0.978,20,female,2020-08-24_14h06.48.734,torte-2b,2020.1.3,MacIntel,60,13394,0.766,,,,,0,76,76,51,1,,,,,,,,,,,,,,,,,,,,,,,,,,,,,,,,,,,,,,,,,,,,,,,,,,,,,,,,
,,,,,,,,,,,,l,Incorrect,,,,,,t2.png,t4.png,2,0.059078,20,female,2020-08-24_14h06.48.734,torte-2b,2020.1.3,MacIntel,60,13394,0.547,,,,,0,77,77,67,1,,,,,,,,,,,,,,,,,,,,,,,,,,,,,,,,,,,,,,,,,,,,,,,,,,,,,,,,
,,,,,,,,,,,,l,Correct!,,,,,,t3.png,t1.png,2,0.0565,20,female,2020-08-24_14h06.48.734,torte-2b,2020.1.3,MacIntel,60,13394,1.369,,,,,0,78,78,104,1,,,,,,,,,,,,,,,,,,,,,,,,,,,,,,,,,,,,,,,,,,,,,,,,,,,,,,,,
,,,,,,,,,,,,l,Incorrect,,,,,,t2.png,t1.png,1,0.90025,20,female,2020-08-24_14h06.48.734,torte-2b,2020.1.3,MacIntel,60,13394,0.336,,,,,0,79,79,105,1,,,,,,,,,,,,,,,,,,,,,,,,,,,,,,,,,,,,,,,,,,,,,,,,,,,,,,,,
,,,,,,,,,,,,l,Incorrect,,,,,,t3.png,t4.png,1,0.90855,20,female,2020-08-24_14h06.48.734,torte-2b,2020.1.3,MacIntel,60,13394,0.723,,,,,0,80,80,5,1,,,,,,,,,,,,,,,,,,,,,,,,,,,,,,,,,,,,,,,,,,,,,,,,,,,,,,,,
,,,,,,,,,,,,,Too slow :(,,,,,,t5.png,t1.png,4,9.55E-11,20,female,2020-08-24_14h06.48.734,torte-2b,2020.1.3,MacIntel,60,13394,,,,,,0,81,81,31,1,,,,,,,,,,,,,,,,,,,,,,,,,,,,,,,,,,,,,,,,,,,,,,,,,,,,,,,,
,,,,,,,,,,,,,Too slow :(,,,,,,t5.png,t4.png,1,0.9,20,female,2020-08-24_14h06.48.734,torte-2b,2020.1.3,MacIntel,60,13394,,,,,,0,82,82,55,1,,,,,,,,,,,,,,,,,,,,,,,,,,,,,,,,,,,,,,,,,,,,,,,,,,,,,,,,
,,,,,,,,,,,,l,Correct!,,,,,,t5.png,t3.png,2,0.056466,20,female,2020-08-24_14h06.48.734,torte-2b,2020.1.3,MacIntel,60,13394,1.356,,,,,0,83,83,27,1,,,,,,,,,,,,,,,,,,,,,,,,,,,,,,,,,,,,,,,,,,,,,,,,,,,,,,,,
,,,,,,,,,,,,l,Incorrect,,,,,,t5.png,t5.png,0,0.97829,20,female,2020-08-24_14h06.48.734,torte-2b,2020.1.3,MacIntel,60,13394,0.534,,,,,0,84,84,2,1,,,,,,,,,,,,,,,,,,,,,,,,,,,,,,,,,,,,,,,,,,,,,,,,,,,,,,,,
,,,,,,,,,,,,l,Correct!,,,,,,t3.png,t5.png,2,0.056466,20,female,2020-08-24_14h06.48.734,torte-2b,2020.1.3,MacIntel,60,13394,1.014,,,,,0,85,85,78,1,,,,,,,,,,,,,,,,,,,,,,,,,,,,,,,,,,,,,,,,,,,,,,,,,,,,,,,,
,,,,,,,,,,,,l,Incorrect,,,,,,t2.png,t2.png,0,0.98115,20,female,2020-08-24_14h06.48.734,torte-2b,2020.1.3,MacIntel,60,13394,0.451,,,,,0,86,86,69,1,,,,,,,,,,,,,,,,,,,,,,,,,,,,,,,,,,,,,,,,,,,,,,,,,,,,,,,,
,,,,,,,,,,,,l,Incorrect,,,,,,t2.png,t4.png,2,0.059078,20,female,2020-08-24_14h06.48.734,torte-2b,2020.1.3,MacIntel,60,13394,0.7,,,,,0,87,87,53,1,,,,,,,,,,,,,,,,,,,,,,,,,,,,,,,,,,,,,,,,,,,,,,,,,,,,,,,,
,,,,,,,,,,,,l,Correct!,,,,,,t4.png,t1.png,3,0.0000131,20,female,2020-08-24_14h06.48.734,torte-2b,2020.1.3,MacIntel,60,13394,0.433,,,,,0,88,88,76,1,,,,,,,,,,,,,,,,,,,,,,,,,,,,,,,,,,,,,,,,,,,,,,,,,,,,,,,,
,,,,,,,,,,,,a,Correct!,,,,,,t5.png,t5.png,0,0.97829,20,female,2020-08-24_14h06.48.734,torte-2b,2020.1.3,MacIntel,60,13394,0.602,,,,,0,89,89,77,1,,,,,,,,,,,,,,,,,,,,,,,,,,,,,,,,,,,,,,,,,,,,,,,,,,,,,,,,
,,,,,,,,,,,,l,Correct!,,,,,,t5.png,t1.png,4,9.55E-11,20,female,2020-08-24_14h06.48.734,torte-2b,2020.1.3,MacIntel,60,13394,1.842,,,,,0,90,90,15,1,,,,,,,,,,,,,,,,,,,,,,,,,,,,,,,,,,,,,,,,,,,,,,,,,,,,,,,,
,,,,,,,,,,,,l,Incorrect,,,,,,t5.png,t4.png,1,0.90025,20,female,2020-08-24_14h06.48.734,torte-2b,2020.1.3,MacIntel,60,13394,0.34,,,,,0,91,91,25,1,,,,,,,,,,,,,,,,,,,,,,,,,,,,,,,,,,,,,,,,,,,,,,,,,,,,,,,,
,,,,,,,,,,,,l,Correct!,,,,,,t5.png,t1.png,4,9.55E-11,20,female,2020-08-24_14h06.48.734,torte-2b,2020.1.3,MacIntel,60,13394,0.333,,,,,0,92,92,117,1,,,,,,,,,,,,,,,,,,,,,,,,,,,,,,,,,,,,,,,,,,,,,,,,,,,,,,,,
,,,,,,,,,,,,l,Correct!,,,,,,t3.png,t5.png,2,0.056466,20,female,2020-08-24_14h06.48.734,torte-2b,2020.1.3,MacIntel,60,13394,0.417,,,,,0,93,93,47,1,,,,,,,,,,,,,,,,,,,,,,,,,,,,,,,,,,,,,,,,,,,,,,,,,,,,,,,,
,,,,,,,,,,,,a,Correct!,,,,,,t4.png,t4.png,0,0.98115,20,female,2020-08-24_14h06.48.734,torte-2b,2020.1.3,MacIntel,60,13394,0.298,,,,,0,94,94,59,1,,,,,,,,,,,,,,,,,,,,,,,,,,,,,,,,,,,,,,,,,,,,,,,,,,,,,,,,
,,,,,,,,,,,,a,Incorrect,,,,,,t4.png,t1.png,3,0.0000131,20,female,2020-08-24_14h06.48.734,torte-2b,2020.1.3,MacIntel,60,13394,0.825,,,,,0,95,95,102,1,,,,,,,,,,,,,,,,,,,,,,,,,,,,,,,,,,,,,,,,,,,,,,,,,,,,,,,,
,,,,,,,,,,,,a,Correct!,,,,,,t1.png,t1.png,0,0.97829,20,female,2020-08-24_14h06.48.734,torte-2b,2020.1.3,MacIntel,60,13394,0.286,,,,,0,96,96,114,1,,,,,,,,,,,,,,,,,,,,,,,,,,,,,,,,,,,,,,,,,,,,,,,,,,,,,,,,
,,,,,,,,,,,,a,Correct!,,,,,,t4.png,t4.png,0,0.98115,20,female,2020-08-24_14h06.48.734,torte-2b,2020.1.3,MacIntel,60,13394,0.091,,,,,0,97,97,68,1,,,,,,,,,,,,,,,,,,,,,,,,,,,,,,,,,,,,,,,,,,,,,,,,,,,,,,,,
,,,,,,,,,,,,a,Incorrect,,,,,,t1.png,t4.png,3,0.0000131,20,female,2020-08-24_14h06.48.734,torte-2b,2020.1.3,MacIntel,60,13394,0.57,,,,,0,98,98,23,1,,,,,,,,,,,,,,,,,,,,,,,,,,,,,,,,,,,,,,,,,,,,,,,,,,,,,,,,
,,,,,,,,,,,,a,Correct!,,,,,,t4.png,t4.png,0,0.98115,20,female,2020-08-24_14h06.48.734,torte-2b,2020.1.3,MacIntel,60,13394,0.001,,,,,0,99,99,88,1,,,,,,,,,,,,,,,,,,,,,,,,,,,,,,,,,,,,,,,,,,,,,,,,,,,,,,,,
,,,,,,,,,,,,a,Correct!,,,,,,t3.png,t2.png,1,0.90855,20,female,2020-08-24_14h06.48.734,torte-2b,2020.1.3,MacIntel,60,13394,0.204,,,,,0,100,100,10,1,,,,,,,,,,,,,,,,,,,,,,,,,,,,,,,,,,,,,,,,,,,,,,,,,,,,,,,,
,,,,,,,,,,,,a,Correct!,,,,,,t3.png,t4.png,1,0.90855,20,female,2020-08-24_14h06.48.734,torte-2b,2020.1.3,MacIntel,60,13394,0.19,,,,,0,101,101,103,1,,,,,,,,,,,,,,,,,,,,,,,,,,,,,,,,,,,,,,,,,,,,,,,,,,,,,,,,
,,,,,,,,,,,,a,Incorrect,,,,,,t4.png,t1.png,3,0.0000131,20,female,2020-08-24_14h06.48.734,torte-2b,2020.1.3,MacIntel,60,13394,0.2,,,,,0,102,102,91,1,,,,,,,,,,,,,,,,,,,,,,,,,,,,,,,,,,,,,,,,,,,,,,,,,,,,,,,,
,,,,,,,,,,,,a,Incorrect,,,,,,t5.png,t3.png,2,0.056466,20,female,2020-08-24_14h06.48.734,torte-2b,2020.1.3,MacIntel,60,13394,0.025,,,,,0,103,103,26,1,,,,,,,,,,,,,,,,,,,,,,,,,,,,,,,,,,,,,,,,,,,,,,,,,,,,,,,,
,,,,,,,,,,,,a,Correct!,,,,,,t2.png,t1.png,1,0.90025,20,female,2020-08-24_14h06.48.734,torte-2b,2020.1.3,MacIntel,60,13394,0.165,,,,,0,104,104,44,1,,,,,,,,,,,,,,,,,,,,,,,,,,,,,,,,,,,,,,,,,,,,,,,,,,,,,,,,
,,,,,,,,,,,,l,Incorrect,,,,,,t3.png,t2.png,1,0.90855,20,female,2020-08-24_14h06.48.734,torte-2b,2020.1.3,MacIntel,60,13394,0.265,,,,,0,105,105,94,1,,,,,,,,,,,,,,,,,,,,,,,,,,,,,,,,,,,,,,,,,,,,,,,,,,,,,,,,
,,,,,,,,,,,,l,Correct!,,,,,,t1.png,t3.png,2,0.0565,20,female,2020-08-24_14h06.48.734,torte-2b,2020.1.3,MacIntel,60,13394,0.05,,,,,0,106,106,12,1,,,,,,,,,,,,,,,,,,,,,,,,,,,,,,,,,,,,,,,,,,,,,,,,,,,,,,,,
,,,,,,,,,,,,,Too slow :(,,,,,,t2.png,t3.png,1,0.90855,20,female,2020-08-24_14h06.48.734,torte-2b,2020.1.3,MacIntel,60,13394,,,,,,0,107,107,70,1,,,,,,,,,,,,,,,,,,,,,,,,,,,,,,,,,,,,,,,,,,,,,,,,,,,,,,,,
,,,,,,,,,,,,l,Correct!,,,,,,t5.png,t3.png,2,0.0565,20,female,2020-08-24_14h06.48.734,torte-2b,2020.1.3,MacIntel,60,13394,1.855,,,,,0,108,108,50,1,,,,,,,,,,,,,,,,,,,,,,,,,,,,,,,,,,,,,,,,,,,,,,,,,,,,,,,,
,,,,,,,,,,,,l,Incorrect,,,,,,t1.png,t2.png,1,0.90025,20,female,2020-08-24_14h06.48.734,torte-2b,2020.1.3,MacIntel,60,13394,1.505,,,,,0,109,109,96,1,,,,,,,,,,,,,,,,,,,,,,,,,,,,,,,,,,,,,,,,,,,,,,,,,,,,,,,,
,,,,,,,,,,,,l,Correct!,,,,,,t4.png,t1.png,3,0.059078,20,female,2020-08-24_14h06.48.734,torte-2b,2020.1.3,MacIntel,60,13394,0.414,,,,,0,110,110,87,1,,,,,,,,,,,,,,,,,,,,,,,,,,,,,,,,,,,,,,,,,,,,,,,,,,,,,,,,
,,,,,,,,,,,,l,Correct!,,,,,,t3.png,t1.png,2,0.0565,20,female,2020-08-24_14h06.48.734,torte-2b,2020.1.3,MacIntel,60,13394,0.367,,,,,0,111,111,40,1,,,,,,,,,,,,,,,,,,,,,,,,,,,,,,,,,,,,,,,,,,,,,,,,,,,,,,,,
,,,,,,,,,,,,l,Incorrect,,,,,,t1.png,t2.png,1,0.9,20,female,2020-08-24_14h06.48.734,torte-2b,2020.1.3,MacIntel,60,13394,1.215,,,,,0,112,112,41,1,,,,,,,,,,,,,,,,,,,,,,,,,,,,,,,,,,,,,,,,,,,,,,,,,,,,,,,,
,,,,,,,,,,,,a,Incorrect,,,,,,t2.png,t5.png,3,0.0000131,20,female,2020-08-24_14h06.48.734,torte-2b,2020.1.3,MacIntel,60,13394,0.799,,,,,0,113,113,54,1,,,,,,,,,,,,,,,,,,,,,,,,,,,,,,,,,,,,,,,,,,,,,,,,,,,,,,,,
,,,,,,,,,,,,a,Correct!,,,,,,t3.png,t1.png,2,0.056466,20,female,2020-08-24_14h06.48.734,torte-2b,2020.1.3,MacIntel,60,13394,0.399,,,,,0,114,114,109,1,,,,,,,,,,,,,,,,,,,,,,,,,,,,,,,,,,,,,,,,,,,,,,,,,,,,,,,,
,,,,,,,,,,,,a,Incorrect,,,,,,t1.png,t5.png,4,9.55E-11,20,female,2020-08-24_14h06.48.734,torte-2b,2020.1.3,MacIntel,60,13394,0.39,,,,,0,115,115,118,1,,,,,,,,,,,,,,,,,,,,,,,,,,,,,,,,,,,,,,,,,,,,,,,,,,,,,,,,
,,,,,,,,,,,,l,Correct!,,,,,,t5.png,t2.png,3,0.0000131,20,female,2020-08-24_14h06.48.734,torte-2b,2020.1.3,MacIntel,60,13394,0.681,,,,,0,116,116,43,1,,,,,,,,,,,,,,,,,,,,,,,,,,,,,,,,,,,,,,,,,,,,,,,,,,,,,,,,
,,,,,,,,,,,,l,Correct!,,,,,,t3.png,t1.png,2,0.056466,20,female,2020-08-24_14h06.48.734,torte-2b,2020.1.3,MacIntel,60,13394,0.621,,,,,0,117,117,72,1,,,,,,,,,,,,,,,,,,,,,,,,,,,,,,,,,,,,,,,,,,,,,,,,,,,,,,,,
,,,,,,,,,,,,l,Incorrect,,,,,,t2.png,t2.png,0,0.98115,20,female,2020-08-24_14h06.48.734,torte-2b,2020.1.3,MacIntel,60,13394,0.623,,,,,0,118,118,90,1,,,,,,,,,,,,,,,,,,,,,,,,,,,,,,,,,,,,,,,,,,,,,,,,,,,,,,,,
,,,,,,,,,,,,l,Incorrect,,,,,,t4.png,t1.png,3,0.059078,20,female,2020-08-24_14h06.48.734,torte-2b,2020.1.3,MacIntel,60,13394,0.656,,,,,0,119,119,73,1,,,,,,,,,,,,,,,,,,,,,,,,,,,,,,,,,,,,,,,,,,,,,,,,,,,,,,,,
,,,,,,,,,,,,,,,,,,,,,,,20,female,2020-08-24_14h06.48.734,torte-2b,2020.1.3,MacIntel,60,13394,,l,1.572,,,,,,,,space,383.631,,0,0,0,0,1,6,,,,,,,,,,,,,,,,,,,,,,,,,,,,,,,,,,,,,,,,,,,,,,,
,,,,,,,,,,,,,,,,,,,,,,,20,female,2020-08-24_14h06.48.734,torte-2b,2020.1.3,MacIntel,60,13394,,,,,,,,,,,,,,0,1,1,1,1,7,,,,,,,,,,,,,,,,,,,,,,,,,,,,,,,,,,,,,,,,,,,,,,,
,,,,,,,,,,,,,,,,,,,,,,,20,female,2020-08-24_14h06.48.734,torte-2b,2020.1.3,MacIntel,60,13394,,,,,,,,,,,,,space,0,2,2,2,1,6,0.593,,,,,,,,,,,,,,,,,,,,,,,,,,,,,,,,,,,,,,,,,,,,,,
,,,,,,,,,,,,,,,,,,,,,,,20,female,2020-08-24_14h06.48.734,torte-2b,2020.1.3,MacIntel,60,13394,,,,,,,,,,,,,,0,3,3,3,1,7,,,,,,,,,,,,,,,,,,,,,,,,,,,,,,,,,,,,,,,,,,,,,,,
,,,,,,,,,,,,,,,,,,,,,,,20,female,2020-08-24_14h06.48.734,torte-2b,2020.1.3,MacIntel,60,13394,,,,,,,,,,,,,,0,4,4,4,1,5,,,,,,,,,,,,,,,,,,,,,,,,,,,,,,,,,,,,,,,,,,,,,,,
,,,,,,,,,,,,,,,,,,,,,,,20,female,2020-08-24_14h06.48.734,torte-2b,2020.1.3,MacIntel,60,13394,,,,,,,,,,,,,space,0,5,5,5,1,7,0.56,,,,,,,,,,,,,,,,,,,,,,,,,,,,,,,,,,,,,,,,,,,,,,
,,,,,,,,,,,,,,,,,,,,,,,20,female,2020-08-24_14h06.48.734,torte-2b,2020.1.3,MacIntel,60,13394,,,,,,,,,,,,,,0,6,6,6,1,2,,,,,,,,,,,,,,,,,,,,,,,,,,,,,,,,,,,,,,,,,,,,,,,
,,,,,,,,,,,,,,,,,,,,,,,20,female,2020-08-24_14h06.48.734,torte-2b,2020.1.3,MacIntel,60,13394,,,,,,,,,,,,,,0,7,7,7,1,4,,,,,,,,,,,,,,,,,,,,,,,,,,,,,,,,,,,,,,,,,,,,,,,
,,,,,,,,,,,,,,,,,,,,,,,20,female,2020-08-24_14h06.48.734,torte-2b,2020.1.3,MacIntel,60,13394,,,,,,,,,,,,,space,0,8,8,8,1,7,0.278,,,,,,,,,,,,,,,,,,,,,,,,,,,,,,,,,,,,,,,,,,,,,,
,,,,,,,,,,,,,,,,,,,,,,,20,female,2020-08-24_14h06.48.734,torte-2b,2020.1.3,MacIntel,60,13394,,,,,,,,,,,,,,0,9,9,9,1,4,,,,,,,,,,,,,,,,,,,,,,,,,,,,,,,,,,,,,,,,,,,,,,,
,,,,,,,,,,,,,,,,,,,,,,,20,female,2020-08-24_14h06.48.734,torte-2b,2020.1.3,MacIntel,60,13394,,,,,,,,,,,,,,0,10,10,10,1,7,,,,,,,,,,,,,,,,,,,,,,,,,,,,,,,,,,,,,,,,,,,,,,,
,,,,,,,,,,,,,,,,,,,,,,,20,female,2020-08-24_14h06.48.734,torte-2b,2020.1.3,MacIntel,60,13394,,,,,,,,,,,,,space,0,11,11,11,1,7,0.07,,,,,,,,,,,,,,,,,,,,,,,,,,,,,,,,,,,,,,,,,,,,,,
,,,,,,,,,,,,,,,,,,,,,,,20,female,2020-08-24_14h06.48.734,torte-2b,2020.1.3,MacIntel,60,13394,,,,,,,,,,,,,,0,12,12,12,1,7,,,,,,,,,,,,,,,,,,,,,,,,,,,,,,,,,,,,,,,,,,,,,,,
,,,,,,,,,,,,,,,,,,,,,,,20,female,2020-08-24_14h06.48.734,torte-2b,2020.1.3,MacIntel,60,13394,,,,,,,,,,,,,,0,13,13,13,1,4,,,,,,,,,,,,,,,,,,,,,,,,,,,,,,,,,,,,,,,,,,,,,,,
,,,,,,,,,,,,,,,,,,,,,,,20,female,2020-08-24_14h06.48.734,torte-2b,2020.1.3,MacIntel,60,13394,,,,,,,,,,,,,,0,14,14,14,1,6,,,,,,,,,,,,,,,,,,,,,,,,,,,,,,,,,,,,,,,,,,,,,,,
,,,,,,,,,,,,,,,,,,,,,,,20,female,2020-08-24_14h06.48.734,torte-2b,2020.1.3,MacIntel,60,13394,,,,,,,,,,,,,space,0,15,15,15,1,4,0.644,,,,,,,,,,,,,,,,,,,,,,,,,,,,,,,,,,,,,,,,,,,,,,
,,,,,,,,,,,,,,,,,,,,,,,20,female,2020-08-24_14h06.48.734,torte-2b,2020.1.3,MacIntel,60,13394,,,,,,,,,,,,,,0,16,16,16,1,6,,,,,,,,,,,,,,,,,,,,,,,,,,,,,,,,,,,,,,,,,,,,,,,
,,,,,,,,,,,,,,,,,,,,,,,20,female,2020-08-24_14h06.48.734,torte-2b,2020.1.3,MacIntel,60,13394,,,,,,,,,,,,,,0,17,17,17,1,7,,,,,,,,,,,,,,,,,,,,,,,,,,,,,,,,,,,,,,,,,,,,,,,
,,,,,,,,,,,,,,,,,,,,,,,20,female,2020-08-24_14h06.48.734,torte-2b,2020.1.3,MacIntel,60,13394,,,,,,,,,,,,,space,0,18,18,18,1,6,0.447,,,,,,,,,,,,,,,,,,,,,,,,,,,,,,,,,,,,,,,,,,,,,,
,,,,,,,,,,,,,,,,,,,,,,,20,female,2020-08-24_14h06.48.734,torte-2b,2020.1.3,MacIntel,60,13394,,,,,,,,,,,,,space,0,19,19,19,1,7,0.339,,,,,,,,,,,,,,,,,,,,,,,,,,,,,,,,,,,,,,,,,,,,,,
,,,,,,,,,,,,,,,,,,,,,,,20,female,2020-08-24_14h06.48.734,torte-2b,2020.1.3,MacIntel,60,13394,,,,,,,,,,,,,,0,20,20,20,1,5,,,,,,,,,,,,,,,,,,,,,,,,,,,,,,,,,,,,,,,,,,,,,,,
,,,,,,,,,,,,,,,,,,,,,,,20,female,2020-08-24_14h06.48.734,torte-2b,2020.1.3,MacIntel,60,13394,,,,,,,,,,,,,,0,21,21,21,1,1,,,,,,,,,,,,,,,,,,,,,,,,,,,,,,,,,,,,,,,,,,,,,,,
,,,,,,,,,,,,,,,,,,,,,,,20,female,2020-08-24_14h06.48.734,torte-2b,2020.1.3,MacIntel,60,13394,,,,,,,,,,,,,,0,22,22,22,1,6,,,,,,,,,,,,,,,,,,,,,,,,,,,,,,,,,,,,,,,,,,,,,,,
,,,,,,,,,,,,,,,,,,,,,,,20,female,2020-08-24_14h06.48.734,torte-2b,2020.1.3,MacIntel,60,13394,,,,,,,,,,,,,space,0,23,23,23,1,1,0.884,,,,,,,,,,,,,,,,,,,,,,,,,,,,,,,,,,,,,,,,,,,,,,
,,,,,,,,,,,,,,,,,,,,,,,20,female,2020-08-24_14h06.48.734,torte-2b,2020.1.3,MacIntel,60,13394,,,,,,,,,,,,,,0,24,24,24,1,5,,,,,,,,,,,,,,,,,,,,,,,,,,,,,,,,,,,,,,,,,,,,,,,
,,,,,,,,,,,,,,,,,,,,,,,20,female,2020-08-24_14h06.48.734,torte-2b,2020.1.3,MacIntel,60,13394,,,,,,,,,,,,,,0,25,25,25,1,6,,,,,,,,,,,,,,,,,,,,,,,,,,,,,,,,,,,,,,,,,,,,,,,
,,,,,,,,,,,,,,,,,,,,,,,20,female,2020-08-24_14h06.48.734,torte-2b,2020.1.3,MacIntel,60,13394,,,,,,,,,,,,,,0,26,26,26,1,6,,,,,,,,,,,,,,,,,,,,,,,,,,,,,,,,,,,,,,,,,,,,,,,
,,,,,,,,,,,,,,,,,,,,,,,20,female,2020-08-24_14h06.48.734,torte-2b,2020.1.3,MacIntel,60,13394,,,,,,,,,,,,,space,0,27,27,27,1,6,0.495,,,,,,,,,,,,,,,,,,,,,,,,,,,,,,,,,,,,,,,,,,,,,,
,,,,,,,,,,,,,,,,,,,,,,,20,female,2020-08-24_14h06.48.734,torte-2b,2020.1.3,MacIntel,60,13394,,,,,,,,,,,,,,0,28,28,28,1,5,,,,,,,,,,,,,,,,,,,,,,,,,,,,,,,,,,,,,,,,,,,,,,,
,,,,,,,,,,,,,,,,,,,,,,,20,female,2020-08-24_14h06.48.734,torte-2b,2020.1.3,MacIntel,60,13394,,,,,,,,,,,,,,0,29,29,29,1,2,,,,,,,,,,,,,,,,,,,,,,,,,,,,,,,,,,,,,,,,,,,,,,,
,,,,,,,,,,,,,,,,,,,,,,,20,female,2020-08-24_14h06.48.734,torte-2b,2020.1.3,MacIntel,60,13394,,,,,,,,,,,,,space,0,30,30,30,1,5,0.527,,,,,,,,,,,,,,,,,,,,,,,,,,,,,,,,,,,,,,,,,,,,,,
,,,,,,,,,,,,,,,,,,,,,,,20,female,2020-08-24_14h06.48.734,torte-2b,2020.1.3,MacIntel,60,13394,,,,,,,,,,,,,,0,31,31,31,1,2,,,,,,,,,,,,,,,,,,,,,,,,,,,,,,,,,,,,,,,,,,,,,,,
,,,,,,,,,,,,,,,,,,,,,,,20,female,2020-08-24_14h06.48.734,torte-2b,2020.1.3,MacIntel,60,13394,,,,,,,,,,,,,,0,32,32,32,1,5,,,,,,,,,,,,,,,,,,,,,,,,,,,,,,,,,,,,,,,,,,,,,,,
,,,,,,,,,,,,,,,,,,,,,,,20,female,2020-08-24_14h06.48.734,torte-2b,2020.1.3,MacIntel,60,13394,,,,,,,,,,,,,,0,33,33,33,1,1,,,,,,,,,,,,,,,,,,,,,,,,,,,,,,,,,,,,,,,,,,,,,,,
,,,,,,,,,,,,,,,,,,,,,,,20,female,2020-08-24_14h06.48.734,torte-2b,2020.1.3,MacIntel,60,13394,,,,,,,,,,,,,space,0,34,34,34,1,1,0.605,,,,,,,,,,,,,,,,,,,,,,,,,,,,,,,,,,,,,,,,,,,,,,
,,,,,,,,,,,,,,,,,,,,,,,20,female,2020-08-24_14h06.48.734,torte-2b,2020.1.3,MacIntel,60,13394,,,,,,,,,,,,,,,,,,,2,,0,0,0,0,1,,,,,,,,,,,,,,,,,,,,,,,,,,,,,,,,,,,,,,,,,
,,,,,,,,,,,,,,,,,,,,,,,20,female,2020-08-24_14h06.48.734,torte-2b,2020.1.3,MacIntel,60,13394,,,,,,,,,,,,,,,,,,,2,,0,1,1,1,1,,,,,,,,,,,,,,,,,,,,,,,,,,,,,,,,,,,,,,,,,
,,,,,,,,,,,,,,,,,,,,,,,20,female,2020-08-24_14h06.48.734,torte-2b,2020.1.3,MacIntel,60,13394,,,,,,,,,,,,,,,,,,,6,,0,2,2,2,1,,,,,,,,,,,,,,,,,,,,,,,,,,,,,,,,,,,,,,,,,
,,,,,,,,,,,,,,,,,,,,,,,20,female,2020-08-24_14h06.48.734,torte-2b,2020.1.3,MacIntel,60,13394,,,,,,,,,,,,,space,,,,,,2,0.499,0,3,3,3,1,,,,,,,,,,,,,,,,,,,,,,,,,,,,,,,,,,,,,,,,,
,,,,,,,,,,,,,,,,,,,,,,,20,female,2020-08-24_14h06.48.734,torte-2b,2020.1.3,MacIntel,60,13394,,,,,,,,,,,,,,,,,,,6,,0,4,4,4,1,,,,,,,,,,,,,,,,,,,,,,,,,,,,,,,,,,,,,,,,,
,,,,,,,,,,,,,,,,,,,,,,,20,female,2020-08-24_14h06.48.734,torte-2b,2020.1.3,MacIntel,60,13394,,,,,,,,,,,,,space,,,,,,2,0.702,0,5,5,5,1,,,,,,,,,,,,,,,,,,,,,,,,,,,,,,,,,,,,,,,,,
,,,,,,,,,,,,,,,,,,,,,,,20,female,2020-08-24_14h06.48.734,torte-2b,2020.1.3,MacIntel,60,13394,,,,,,,,,,,,,,,,,,,7,,0,6,6,6,1,,,,,,,,,,,,,,,,,,,,,,,,,,,,,,,,,,,,,,,,,
,,,,,,,,,,,,,,,,,,,,,,,20,female,2020-08-24_14h06.48.734,torte-2b,2020.1.3,MacIntel,60,13394,,,,,,,,,,,,,space,,,,,,2,0.645,0,7,7,7,1,,,,,,,,,,,,,,,,,,,,,,,,,,,,,,,,,,,,,,,,,
,,,,,,,,,,,,,,,,,,,,,,,20,female,2020-08-24_14h06.48.734,torte-2b,2020.1.3,MacIntel,60,13394,,,,,,,,,,,,,,,,,,,7,,0,8,8,8,1,,,,,,,,,,,,,,,,,,,,,,,,,,,,,,,,,,,,,,,,,
,,,,,,,,,,,,,,,,,,,,,,,20,female,2020-08-24_14h06.48.734,torte-2b,2020.1.3,MacIntel,60,13394,,,,,,,,,,,,,,,,,,,2,,0,9,9,9,1,,,,,,,,,,,,,,,,,,,,,,,,,,,,,,,,,,,,,,,,,
,,,,,,,,,,,,,,,,,,,,,,,20,female,2020-08-24_14h06.48.734,torte-2b,2020.1.3,MacIntel,60,13394,,,,,,,,,,,,,,,,,,,5,,0,10,10,10,1,,,,,,,,,,,,,,,,,,,,,,,,,,,,,,,,,,,,,,,,,
,,,,,,,,,,,,,,,,,,,,,,,20,female,2020-08-24_14h06.48.734,torte-2b,2020.1.3,MacIntel,60,13394,,,,,,,,,,,,,,,,,,,4,,0,11,11,11,1,,,,,,,,,,,,,,,,,,,,,,,,,,,,,,,,,,,,,,,,,
,,,,,,,,,,,,,,,,,,,,,,,20,female,2020-08-24_14h06.48.734,torte-2b,2020.1.3,MacIntel,60,13394,,,,,,,,,,,,,,,,,,,5,,0,12,12,12,1,,,,,,,,,,,,,,,,,,,,,,,,,,,,,,,,,,,,,,,,,
,,,,,,,,,,,,,,,,,,,,,,,20,female,2020-08-24_14h06.48.734,torte-2b,2020.1.3,MacIntel,60,13394,,,,,,,,,,,,,,,,,,,6,,0,13,13,13,1,,,,,,,,,,,,,,,,,,,,,,,,,,,,,,,,,,,,,,,,,
,,,,,,,,,,,,,,,,,,,,,,,20,female,2020-08-24_14h06.48.734,torte-2b,2020.1.3,MacIntel,60,13394,,,,,,,,,,,,,,,,,,,5,,0,14,14,14,1,,,,,,,,,,,,,,,,,,,,,,,,,,,,,,,,,,,,,,,,,
,,,,,,,,,,,,,,,,,,,,,,,20,female,2020-08-24_14h06.48.734,torte-2b,2020.1.3,MacIntel,60,13394,,,,,,,,,,,,,,,,,,,4,,0,15,15,15,1,,,,,,,,,,,,,,,,,,,,,,,,,,,,,,,,,,,,,,,,,
,,,,,,,,,,,,,,,,,,,,,,,20,female,2020-08-24_14h06.48.734,torte-2b,2020.1.3,MacIntel,60,13394,,,,,,,,,,,,,,,,,,,5,,0,16,16,16,1,,,,,,,,,,,,,,,,,,,,,,,,,,,,,,,,,,,,,,,,,
,,,,,,,,,,,,,,,,,,,,,,,20,female,2020-08-24_14h06.48.734,torte-2b,2020.1.3,MacIntel,60,13394,,,,,,,,,,,,,,,,,,,3,,0,17,17,17,1,,,,,,,,,,,,,,,,,,,,,,,,,,,,,,,,,,,,,,,,,
,,,,,,,,,,,,,,,,,,,,,,,20,female,2020-08-24_14h06.48.734,torte-2b,2020.1.3,MacIntel,60,13394,,,,,,,,,,,,,space,,,,,,6,1.056,0,18,18,18,1,,,,,,,,,,,,,,,,,,,,,,,,,,,,,,,,,,,,,,,,,
,,,,,,,,,,,,,,,,,,,,,,,20,female,2020-08-24_14h06.48.734,torte-2b,2020.1.3,MacIntel,60,13394,,,,,,,,,,,,,,,,,,,6,,0,19,19,19,1,,,,,,,,,,,,,,,,,,,,,,,,,,,,,,,,,,,,,,,,,
,,,,,,,,,,,,,,,,,,,,,,,20,female,2020-08-24_14h06.48.734,torte-2b,2020.1.3,MacIntel,60,13394,,,,,,,,,,,,,space,,,,,,6,0.484,0,20,20,20,1,,,,,,,,,,,,,,,,,,,,,,,,,,,,,,,,,,,,,,,,,
,,,,,,,,,,,,,,,,,,,,,,,20,female,2020-08-24_14h06.48.734,torte-2b,2020.1.3,MacIntel,60,13394,,,,,,,,,,,,,,,,,,,4,,0,21,21,21,1,,,,,,,,,,,,,,,,,,,,,,,,,,,,,,,,,,,,,,,,,
,,,,,,,,,,,,,,,,,,,,,,,20,female,2020-08-24_14h06.48.734,torte-2b,2020.1.3,MacIntel,60,13394,,,,,,,,,,,,,,,,,,,6,,0,22,22,22,1,,,,,,,,,,,,,,,,,,,,,,,,,,,,,,,,,,,,,,,,,
,,,,,,,,,,,,,,,,,,,,,,,20,female,2020-08-24_14h06.48.734,torte-2b,2020.1.3,MacIntel,60,13394,,,,,,,,,,,,,space,,,,,,4,0.422,0,23,23,23,1,,,,,,,,,,,,,,,,,,,,,,,,,,,,,,,,,,,,,,,,,
,,,,,,,,,,,,,,,,,,,,,,,20,female,2020-08-24_14h06.48.734,torte-2b,2020.1.3,MacIntel,60,13394,,,,,,,,,,,,,,,,,,,6,,0,24,24,24,1,,,,,,,,,,,,,,,,,,,,,,,,,,,,,,,,,,,,,,,,,
,,,,,,,,,,,,,,,,,,,,,,,20,female,2020-08-24_14h06.48.734,torte-2b,2020.1.3,MacIntel,60,13394,,,,,,,,,,,,,space,,,,,,6,0.513,0,25,25,25,1,,,,,,,,,,,,,,,,,,,,,,,,,,,,,,,,,,,,,,,,,
,,,,,,,,,,,,,,,,,,,,,,,20,female,2020-08-24_14h06.48.734,torte-2b,2020.1.3,MacIntel,60,13394,,,,,,,,,,,,,,,,,,,7,,0,26,26,26,1,,,,,,,,,,,,,,,,,,,,,,,,,,,,,,,,,,,,,,,,,
,,,,,,,,,,,,,,,,,,,,,,,20,female,2020-08-24_14h06.48.734,torte-2b,2020.1.3,MacIntel,60,13394,,,,,,,,,,,,,,,,,,,1,,0,27,27,27,1,,,,,,,,,,,,,,,,,,,,,,,,,,,,,,,,,,,,,,,,,
,,,,,,,,,,,,,,,,,,,,,,,20,female,2020-08-24_14h06.48.734,torte-2b,2020.1.3,MacIntel,60,13394,,,,,,,,,,,,,space,,,,,,7,0.619,0,28,28,28,1,,,,,,,,,,,,,,,,,,,,,,,,,,,,,,,,,,,,,,,,,
,,,,,,,,,,,,,,,,,,,,,,,20,female,2020-08-24_14h06.48.734,torte-2b,2020.1.3,MacIntel,60,13394,,,,,,,,,,,,,,,,,,,4,,0,29,29,29,1,,,,,,,,,,,,,,,,,,,,,,,,,,,,,,,,,,,,,,,,,
,,,,,,,,,,,,,,,,,,,,,,,20,female,2020-08-24_14h06.48.734,torte-2b,2020.1.3,MacIntel,60,13394,,,,,,,,,,,,,,,,,,,7,,0,30,30,30,1,,,,,,,,,,,,,,,,,,,,,,,,,,,,,,,,,,,,,,,,,
,,,,,,,,,,,,,,,,,,,,,,,20,female,2020-08-24_14h06.48.734,torte-2b,2020.1.3,MacIntel,60,13394,,,,,,,,,,,,,,,,,,,3,,0,31,31,31,1,,,,,,,,,,,,,,,,,,,,,,,,,,,,,,,,,,,,,,,,,
,,,,,,,,,,,,,,,,,,,,,,,20,female,2020-08-24_14h06.48.734,torte-2b,2020.1.3,MacIntel,60,13394,,,,,,,,,,,,,,,,,,,2,,0,32,32,32,1,,,,,,,,,,,,,,,,,,,,,,,,,,,,,,,,,,,,,,,,,
,,,,,,,,,,,,,,,,,,,,,,,20,female,2020-08-24_14h06.48.734,torte-2b,2020.1.3,MacIntel,60,13394,,,,,,,,,,,,,,,,,,,6,,0,33,33,33,1,,,,,,,,,,,,,,,,,,,,,,,,,,,,,,,,,,,,,,,,,
,,,,,,,,,,,,,,,,,,,,,,,20,female,2020-08-24_14h06.48.734,torte-2b,2020.1.3,MacIntel,60,13394,,,,,,,,,,,,,,,,,,,3,,0,34,34,34,1,,,,,,,,,,,,,,,,,,,,,,,,,,,,,,,,,,,,,,,,,
,,,,,,,,,,,,,,,,,,,,,,,20,female,2020-08-24_14h06.48.734,torte-2b,2020.1.3,MacIntel,60,13394,,,,,,,,,,,,,,,,,,,7,,,,,,,0,0,0,0,1,,,,,,,,,,,,,,,,,,,,,,,,,,,,,,,,,,,,
,,,,,,,,,,,,,,,,,,,,,,,20,female,2020-08-24_14h06.48.734,torte-2b,2020.1.3,MacIntel,60,13394,,,,,,,,,,,,,,,,,,,5,,,,,,,0,1,1,1,1,,,,,,,,,,,,,,,,,,,,,,,,,,,,,,,,,,,,
,,,,,,,,,,,,,,,,,,,,,,,20,female,2020-08-24_14h06.48.734,torte-2b,2020.1.3,MacIntel,60,13394,,,,,,,,,,,,,,,,,,,4,,,,,,,0,2,2,2,1,,,,,,,,,,,,,,,,,,,,,,,,,,,,,,,,,,,,
,,,,,,,,,,,,,,,,,,,,,,,20,female,2020-08-24_14h06.48.734,torte-2b,2020.1.3,MacIntel,60,13394,,,,,,,,,,,,,space,,,,,,5,0.804,,,,,,0,3,3,3,1,,,,,,,,,,,,,,,,,,,,,,,,,,,,,,,,,,,,
,,,,,,,,,,,,,,,,,,,,,,,20,female,2020-08-24_14h06.48.734,torte-2b,2020.1.3,MacIntel,60,13394,,,,,,,,,,,,,,,,,,,6,,,,,,,0,4,4,4,1,,,,,,,,,,,,,,,,,,,,,,,,,,,,,,,,,,,,
,,,,,,,,,,,,,,,,,,,,,,,20,female,2020-08-24_14h06.48.734,torte-2b,2020.1.3,MacIntel,60,13394,,,,,,,,,,,,,,,,,,,5,,,,,,,0,5,5,5,1,,,,,,,,,,,,,,,,,,,,,,,,,,,,,,,,,,,,
,,,,,,,,,,,,,,,,,,,,,,,20,female,2020-08-24_14h06.48.734,torte-2b,2020.1.3,MacIntel,60,13394,,,,,,,,,,,,,,,,,,,3,,,,,,,0,6,6,6,1,,,,,,,,,,,,,,,,,,,,,,,,,,,,,,,,,,,,
,,,,,,,,,,,,,,,,,,,,,,,20,female,2020-08-24_14h06.48.734,torte-2b,2020.1.3,MacIntel,60,13394,,,,,,,,,,,,,,,,,,,4,,,,,,,0,7,7,7,1,,,,,,,,,,,,,,,,,,,,,,,,,,,,,,,,,,,,
,,,,,,,,,,,,,,,,,,,,,,,20,female,2020-08-24_14h06.48.734,torte-2b,2020.1.3,MacIntel,60,13394,,,,,,,,,,,,,,,,,,,3,,,,,,,0,8,8,8,1,,,,,,,,,,,,,,,,,,,,,,,,,,,,,,,,,,,,
,,,,,,,,,,,,,,,,,,,,,,,20,female,2020-08-24_14h06.48.734,torte-2b,2020.1.3,MacIntel,60,13394,,,,,,,,,,,,,,,,,,,1,,,,,,,0,9,9,9,1,,,,,,,,,,,,,,,,,,,,,,,,,,,,,,,,,,,,
,,,,,,,,,,,,,,,,,,,,,,,20,female,2020-08-24_14h06.48.734,torte-2b,2020.1.3,MacIntel,60,13394,,,,,,,,,,,,,,,,,,,2,,,,,,,0,10,10,10,1,,,,,,,,,,,,,,,,,,,,,,,,,,,,,,,,,,,,
,,,,,,,,,,,,,,,,,,,,,,,20,female,2020-08-24_14h06.48.734,torte-2b,2020.1.3,MacIntel,60,13394,,,,,,,,,,,,,space,,,,,,1,0.437,,,,,,0,11,11,11,1,,,,,,,,,,,,,,,,,,,,,,,,,,,,,,,,,,,,
,,,,,,,,,,,,,,,,,,,,,,,20,female,2020-08-24_14h06.48.734,torte-2b,2020.1.3,MacIntel,60,13394,,,,,,,,,,,,,,,,,,,2,,,,,,,0,12,12,12,1,,,,,,,,,,,,,,,,,,,,,,,,,,,,,,,,,,,,
,,,,,,,,,,,,,,,,,,,,,,,20,female,2020-08-24_14h06.48.734,torte-2b,2020.1.3,MacIntel,60,13394,,,,,,,,,,,,,,,,,,,1,,,,,,,0,13,13,13,1,,,,,,,,,,,,,,,,,,,,,,,,,,,,,,,,,,,,
,,,,,,,,,,,,,,,,,,,,,,,20,female,2020-08-24_14h06.48.734,torte-2b,2020.1.3,MacIntel,60,13394,,,,,,,,,,,,,,,,,,,3,,,,,,,0,14,14,14,1,,,,,,,,,,,,,,,,,,,,,,,,,,,,,,,,,,,,
,,,,,,,,,,,,,,,,,,,,,,,20,female,2020-08-24_14h06.48.734,torte-2b,2020.1.3,MacIntel,60,13394,,,,,,,,,,,,,,,,,,,1,,,,,,,0,15,15,15,1,,,,,,,,,,,,,,,,,,,,,,,,,,,,,,,,,,,,
,,,,,,,,,,,,,,,,,,,,,,,20,female,2020-08-24_14h06.48.734,torte-2b,2020.1.3,MacIntel,60,13394,,,,,,,,,,,,,,,,,,,7,,,,,,,0,16,16,16,1,,,,,,,,,,,,,,,,,,,,,,,,,,,,,,,,,,,,
,,,,,,,,,,,,,,,,,,,,,,,20,female,2020-08-24_14h06.48.734,torte-2b,2020.1.3,MacIntel,60,13394,,,,,,,,,,,,,,,,,,,7,,,,,,,0,17,17,17,1,,,,,,,,,,,,,,,,,,,,,,,,,,,,,,,,,,,,
,,,,,,,,,,,,,,,,,,,,,,,20,female,2020-08-24_14h06.48.734,torte-2b,2020.1.3,MacIntel,60,13394,,,,,,,,,,,,,,,,,,,4,,,,,,,0,18,18,18,1,,,,,,,,,,,,,,,,,,,,,,,,,,,,,,,,,,,,
,,,,,,,,,,,,,,,,,,,,,,,20,female,2020-08-24_14h06.48.734,torte-2b,2020.1.3,MacIntel,60,13394,,,,,,,,,,,,,,,,,,,7,,,,,,,0,19,19,19,1,,,,,,,,,,,,,,,,,,,,,,,,,,,,,,,,,,,,
,,,,,,,,,,,,,,,,,,,,,,,20,female,2020-08-24_14h06.48.734,torte-2b,2020.1.3,MacIntel,60,13394,,,,,,,,,,,,,,,,,,,3,,,,,,,0,20,20,20,1,,,,,,,,,,,,,,,,,,,,,,,,,,,,,,,,,,,,
,,,,,,,,,,,,,,,,,,,,,,,20,female,2020-08-24_14h06.48.734,torte-2b,2020.1.3,MacIntel,60,13394,,,,,,,,,,,,,,,,,,,7,,,,,,,0,21,21,21,1,,,,,,,,,,,,,,,,,,,,,,,,,,,,,,,,,,,,
,,,,,,,,,,,,,,,,,,,,,,,20,female,2020-08-24_14h06.48.734,torte-2b,2020.1.3,MacIntel,60,13394,,,,,,,,,,,,,space,,,,,,3,0.819,,,,,,0,22,22,22,1,,,,,,,,,,,,,,,,,,,,,,,,,,,,,,,,,,,,
,,,,,,,,,,,,,,,,,,,,,,,20,female,2020-08-24_14h06.48.734,torte-2b,2020.1.3,MacIntel,60,13394,,,,,,,,,,,,,,,,,,,1,,,,,,,0,23,23,23,1,,,,,,,,,,,,,,,,,,,,,,,,,,,,,,,,,,,,
,,,,,,,,,,,,,,,,,,,,,,,20,female,2020-08-24_14h06.48.734,torte-2b,2020.1.3,MacIntel,60,13394,,,,,,,,,,,,,,,,,,,6,,,,,,,0,24,24,24,1,,,,,,,,,,,,,,,,,,,,,,,,,,,,,,,,,,,,
,,,,,,,,,,,,,,,,,,,,,,,20,female,2020-08-24_14h06.48.734,torte-2b,2020.1.3,MacIntel,60,13394,,,,,,,,,,,,,,,,,,,3,,,,,,,0,25,25,25,1,,,,,,,,,,,,,,,,,,,,,,,,,,,,,,,,,,,,
,,,,,,,,,,,,,,,,,,,,,,,20,female,2020-08-24_14h06.48.734,torte-2b,2020.1.3,MacIntel,60,13394,,,,,,,,,,,,,space,,,,,,2,0.4,,,,,,0,26,26,26,1,,,,,,,,,,,,,,,,,,,,,,,,,,,,,,,,,,,,
,,,,,,,,,,,,,,,,,,,,,,,20,female,2020-08-24_14h06.48.734,torte-2b,2020.1.3,MacIntel,60,13394,,,,,,,,,,,,,,,,,,,3,,,,,,,0,27,27,27,1,,,,,,,,,,,,,,,,,,,,,,,,,,,,,,,,,,,,
,,,,,,,,,,,,,,,,,,,,,,,20,female,2020-08-24_14h06.48.734,torte-2b,2020.1.3,MacIntel,60,13394,,,,,,,,,,,,,space,,,,,,1,0.936,,,,,,0,28,28,28,1,,,,,,,,,,,,,,,,,,,,,,,,,,,,,,,,,,,,
,,,,,,,,,,,,,,,,,,,,,,,20,female,2020-08-24_14h06.48.734,torte-2b,2020.1.3,MacIntel,60,13394,,,,,,,,,,,,,,,,,,,3,,,,,,,0,29,29,29,1,,,,,,,,,,,,,,,,,,,,,,,,,,,,,,,,,,,,
,,,,,,,,,,,,,,,,,,,,,,,20,female,2020-08-24_14h06.48.734,torte-2b,2020.1.3,MacIntel,60,13394,,,,,,,,,,,,,,,,,,,1,,,,,,,0,30,30,30,1,,,,,,,,,,,,,,,,,,,,,,,,,,,,,,,,,,,,
,,,,,,,,,,,,,,,,,,,,,,,20,female,2020-08-24_14h06.48.734,torte-2b,2020.1.3,MacIntel,60,13394,,,,,,,,,,,,,,,,,,,7,,,,,,,0,31,31,31,1,,,,,,,,,,,,,,,,,,,,,,,,,,,,,,,,,,,,
,,,,,,,,,,,,,,,,,,,,,,,20,female,2020-08-24_14h06.48.734,torte-2b,2020.1.3,MacIntel,60,13394,,,,,,,,,,,,,,,,,,,5,,,,,,,0,32,32,32,1,,,,,,,,,,,,,,,,,,,,,,,,,,,,,,,,,,,,
,,,,,,,,,,,,,,,,,,,,,,,20,female,2020-08-24_14h06.48.734,torte-2b,2020.1.3,MacIntel,60,13394,,,,,,,,,,,,,,,,,,,7,,,,,,,0,33,33,33,1,,,,,,,,,,,,,,,,,,,,,,,,,,,,,,,,,,,,
,,,,,,,,,,,,,,,,,,,,,,,20,female,2020-08-24_14h06.48.734,torte-2b,2020.1.3,MacIntel,60,13394,,,,,,,,,,,,,space,,,,,,2,1.001,,,,,,0,34,34,34,1,,,,,,,,,,,,,,,,,,,,,,,,,,,,,,,,,,,,
,,,,,,,,,,,,,,,,,,,,,,,20,female,2020-08-24_14h06.48.734,torte-2b,2020.1.3,MacIntel,60,13394,,,,,,,,,,,,,,,,,,,3,,,,,,,,,,,,0,0,0,0,1,,,,,,,,,,,,,,,,,,,,,,,,,,,,,,,
,,,,,,,,,,,,,,,,,,,,,,,20,female,2020-08-24_14h06.48.734,torte-2b,2020.1.3,MacIntel,60,13394,,,,,,,,,,,,,,,,,,,7,,,,,,,,,,,,0,1,1,1,1,,,,,,,,,,,,,,,,,,,,,,,,,,,,,,,
,,,,,,,,,,,,,,,,,,,,,,,20,female,2020-08-24_14h06.48.734,torte-2b,2020.1.3,MacIntel,60,13394,,,,,,,,,,,,,,,,,,,7,,,,,,,,,,,,0,2,2,2,1,,,,,,,,,,,,,,,,,,,,,,,,,,,,,,,
,,,,,,,,,,,,,,,,,,,,,,,20,female,2020-08-24_14h06.48.734,torte-2b,2020.1.3,MacIntel,60,13394,,,,,,,,,,,,,,,,,,,4,,,,,,,,,,,,0,3,3,3,1,,,,,,,,,,,,,,,,,,,,,,,,,,,,,,,
,,,,,,,,,,,,,,,,,,,,,,,20,female,2020-08-24_14h06.48.734,torte-2b,2020.1.3,MacIntel,60,13394,,,,,,,,,,,,,,,,,,,5,,,,,,,,,,,,0,4,4,4,1,,,,,,,,,,,,,,,,,,,,,,,,,,,,,,,
,,,,,,,,,,,,,,,,,,,,,,,20,female,2020-08-24_14h06.48.734,torte-2b,2020.1.3,MacIntel,60,13394,,,,,,,,,,,,,,,,,,,4,,,,,,,,,,,,0,5,5,5,1,,,,,,,,,,,,,,,,,,,,,,,,,,,,,,,
,,,,,,,,,,,,,,,,,,,,,,,20,female,2020-08-24_14h06.48.734,torte-2b,2020.1.3,MacIntel,60,13394,,,,,,,,,,,,,,,,,,,2,,,,,,,,,,,,0,6,6,6,1,,,,,,,,,,,,,,,,,,,,,,,,,,,,,,,
,,,,,,,,,,,,,,,,,,,,,,,20,female,2020-08-24_14h06.48.734,torte-2b,2020.1.3,MacIntel,60,13394,,,,,,,,,,,,,,,,,,,4,,,,,,,,,,,,0,7,7,7,1,,,,,,,,,,,,,,,,,,,,,,,,,,,,,,,
,,,,,,,,,,,,,,,,,,,,,,,20,female,2020-08-24_14h06.48.734,torte-2b,2020.1.3,MacIntel,60,13394,,,,,,,,,,,,,,,,,,,2,,,,,,,,,,,,0,8,8,8,1,,,,,,,,,,,,,,,,,,,,,,,,,,,,,,,
,,,,,,,,,,,,,,,,,,,,,,,20,female,2020-08-24_14h06.48.734,torte-2b,2020.1.3,MacIntel,60,13394,,,,,,,,,,,,,,,,,,,2,,,,,,,,,,,,0,9,9,9,1,,,,,,,,,,,,,,,,,,,,,,,,,,,,,,,
,,,,,,,,,,,,,,,,,,,,,,,20,female,2020-08-24_14h06.48.734,torte-2b,2020.1.3,MacIntel,60,13394,,,,,,,,,,,,,,,,,,,6,,,,,,,,,,,,0,10,10,10,1,,,,,,,,,,,,,,,,,,,,,,,,,,,,,,,
,,,,,,,,,,,,,,,,,,,,,,,20,female,2020-08-24_14h06.48.734,torte-2b,2020.1.3,MacIntel,60,13394,,,,,,,,,,,,,,,,,,,2,,,,,,,,,,,,0,11,11,11,1,,,,,,,,,,,,,,,,,,,,,,,,,,,,,,,
,,,,,,,,,,,,,,,,,,,,,,,20,female,2020-08-24_14h06.48.734,torte-2b,2020.1.3,MacIntel,60,13394,,,,,,,,,,,,,,,,,,,2,,,,,,,,,,,,0,12,12,12,1,,,,,,,,,,,,,,,,,,,,,,,,,,,,,,,
,,,,,,,,,,,,,,,,,,,,,,,20,female,2020-08-24_14h06.48.734,torte-2b,2020.1.3,MacIntel,60,13394,,,,,,,,,,,,,space,,,,,,2,0.496,,,,,,,,,,,0,13,13,13,1,,,,,,,,,,,,,,,,,,,,,,,,,,,,,,,
,,,,,,,,,,,,,,,,,,,,,,,20,female,2020-08-24_14h06.48.734,torte-2b,2020.1.3,MacIntel,60,13394,,,,,,,,,,,,,space,,,,,,2,0.528,,,,,,,,,,,0,14,14,14,1,,,,,,,,,,,,,,,,,,,,,,,,,,,,,,,
,,,,,,,,,,,,,,,,,,,,,,,20,female,2020-08-24_14h06.48.734,torte-2b,2020.1.3,MacIntel,60,13394,,,,,,,,,,,,,,,,,,,4,,,,,,,,,,,,0,15,15,15,1,,,,,,,,,,,,,,,,,,,,,,,,,,,,,,,
,,,,,,,,,,,,,,,,,,,,,,,20,female,2020-08-24_14h06.48.734,torte-2b,2020.1.3,MacIntel,60,13394,,,,,,,,,,,,,,,,,,,3,,,,,,,,,,,,0,16,16,16,1,,,,,,,,,,,,,,,,,,,,,,,,,,,,,,,
,,,,,,,,,,,,,,,,,,,,,,,20,female,2020-08-24_14h06.48.734,torte-2b,2020.1.3,MacIntel,60,13394,,,,,,,,,,,,,,,,,,,7,,,,,,,,,,,,0,17,17,17,1,,,,,,,,,,,,,,,,,,,,,,,,,,,,,,,
,,,,,,,,,,,,,,,,,,,,,,,20,female,2020-08-24_14h06.48.734,torte-2b,2020.1.3,MacIntel,60,13394,,,,,,,,,,,,,space,,,,,,4,0.685,,,,,,,,,,,0,18,18,18,1,,,,,,,,,,,,,,,,,,,,,,,,,,,,,,,
,,,,,,,,,,,,,,,,,,,,,,,20,female,2020-08-24_14h06.48.734,torte-2b,2020.1.3,MacIntel,60,13394,,,,,,,,,,,,,,,,,,,7,,,,,,,,,,,,0,19,19,19,1,,,,,,,,,,,,,,,,,,,,,,,,,,,,,,,
,,,,,,,,,,,,,,,,,,,,,,,20,female,2020-08-24_14h06.48.734,torte-2b,2020.1.3,MacIntel,60,13394,,,,,,,,,,,,,space,,,,,,7,0.612,,,,,,,,,,,0,20,20,20,1,,,,,,,,,,,,,,,,,,,,,,,,,,,,,,,
,,,,,,,,,,,,,,,,,,,,,,,20,female,2020-08-24_14h06.48.734,torte-2b,2020.1.3,MacIntel,60,13394,,,,,,,,,,,,,,,,,,,7,,,,,,,,,,,,0,21,21,21,1,,,,,,,,,,,,,,,,,,,,,,,,,,,,,,,
,,,,,,,,,,,,,,,,,,,,,,,20,female,2020-08-24_14h06.48.734,torte-2b,2020.1.3,MacIntel,60,13394,,,,,,,,,,,,,space,,,,,,7,0.429,,,,,,,,,,,0,22,22,22,1,,,,,,,,,,,,,,,,,,,,,,,,,,,,,,,
,,,,,,,,,,,,,,,,,,,,,,,20,female,2020-08-24_14h06.48.734,torte-2b,2020.1.3,MacIntel,60,13394,,,,,,,,,,,,,,,,,,,1,,,,,,,,,,,,0,23,23,23,1,,,,,,,,,,,,,,,,,,,,,,,,,,,,,,,
,,,,,,,,,,,,,,,,,,,,,,,20,female,2020-08-24_14h06.48.734,torte-2b,2020.1.3,MacIntel,60,13394,,,,,,,,,,,,,space,,,,,,7,0.449,,,,,,,,,,,0,24,24,24,1,,,,,,,,,,,,,,,,,,,,,,,,,,,,,,,
,,,,,,,,,,,,,,,,,,,,,,,20,female,2020-08-24_14h06.48.734,torte-2b,2020.1.3,MacIntel,60,13394,,,,,,,,,,,,,space,,,,,,1,0.863,,,,,,,,,,,0,25,25,25,1,,,,,,,,,,,,,,,,,,,,,,,,,,,,,,,
,,,,,,,,,,,,,,,,,,,,,,,20,female,2020-08-24_14h06.48.734,torte-2b,2020.1.3,MacIntel,60,13394,,,,,,,,,,,,,space,,,,,,7,0.696,,,,,,,,,,,0,26,26,26,1,,,,,,,,,,,,,,,,,,,,,,,,,,,,,,,
,,,,,,,,,,,,,,,,,,,,,,,20,female,2020-08-24_14h06.48.734,torte-2b,2020.1.3,MacIntel,60,13394,,,,,,,,,,,,,,,,,,,2,,,,,,,,,,,,0,27,27,27,1,,,,,,,,,,,,,,,,,,,,,,,,,,,,,,,
,,,,,,,,,,,,,,,,,,,,,,,20,female,2020-08-24_14h06.48.734,torte-2b,2020.1.3,MacIntel,60,13394,,,,,,,,,,,,,,,,,,,5,,,,,,,,,,,,0,28,28,28,1,,,,,,,,,,,,,,,,,,,,,,,,,,,,,,,
,,,,,,,,,,,,,,,,,,,,,,,20,female,2020-08-24_14h06.48.734,torte-2b,2020.1.3,MacIntel,60,13394,,,,,,,,,,,,,space,,,,,,5,0.559,,,,,,,,,,,0,29,29,29,1,,,,,,,,,,,,,,,,,,,,,,,,,,,,,,,
,,,,,,,,,,,,,,,,,,,,,,,20,female,2020-08-24_14h06.48.734,torte-2b,2020.1.3,MacIntel,60,13394,,,,,,,,,,,,,,,,,,,5,,,,,,,,,,,,0,30,30,30,1,,,,,,,,,,,,,,,,,,,,,,,,,,,,,,,
,,,,,,,,,,,,,,,,,,,,,,,20,female,2020-08-24_14h06.48.734,torte-2b,2020.1.3,MacIntel,60,13394,,,,,,,,,,,,,,,,,,,1,,,,,,,,,,,,0,31,31,31,1,,,,,,,,,,,,,,,,,,,,,,,,,,,,,,,
,,,,,,,,,,,,,,,,,,,,,,,20,female,2020-08-24_14h06.48.734,torte-2b,2020.1.3,MacIntel,60,13394,,,,,,,,,,,,,,,,,,,5,,,,,,,,,,,,0,32,32,32,1,,,,,,,,,,,,,,,,,,,,,,,,,,,,,,,
,,,,,,,,,,,,,,,,,,,,,,,20,female,2020-08-24_14h06.48.734,torte-2b,2020.1.3,MacIntel,60,13394,,,,,,,,,,,,,,,,,,,3,,,,,,,,,,,,0,33,33,33,1,,,,,,,,,,,,,,,,,,,,,,,,,,,,,,,
,,,,,,,,,,,,,,,,,,,,,,,20,female,2020-08-24_14h06.48.734,torte-2b,2020.1.3,MacIntel,60,13394,,,,,,,,,,,,,,,,,,,3,,,,,,,,,,,,0,34,34,34,1,,,,,,,,,,,,,,,,,,,,,,,,,,,,,,,
,,,,,,,,,,,,a,Incorrect,,,,,,t3.png,t1.png,2,0.056466,20,female,2020-08-24_14h06.48.734,torte-2b,2020.1.3,MacIntel,60,13394,1.286,space,1.014,,,,,,,,,,,,,,,,,,,,,,,,,,,,,,,,,space,2.052,0,0,0,72,1,,,,,,,,,,,,,,,,,,,,,,,,
,,,,,,,,,,,,a,Correct!,,,,,,t2.png,t2.png,0,0.981,20,female,2020-08-24_14h06.48.734,torte-2b,2020.1.3,MacIntel,60,13394,0.657,,,,,,,,,,,,,,,,,,,,,,,,,,,,,,,,,,,,,0,1,1,98,1,,,,,,,,,,,,,,,,,,,,,,,,
,,,,,,,,,,,,l,Correct!,,,,,,t4.png,t1.png,3,0.0000131,20,female,2020-08-24_14h06.48.734,torte-2b,2020.1.3,MacIntel,60,13394,0.423,,,,,,,,,,,,,,,,,,,,,,,,,,,,,,,,,,,,,0,2,2,102,1,,,,,,,,,,,,,,,,,,,,,,,,
,,,,,,,,,,,,l,Incorrect,,,,,,t1.png,t1.png,0,0.97829,20,female,2020-08-24_14h06.48.734,torte-2b,2020.1.3,MacIntel,60,13394,0.8,,,,,,,,,,,,,,,,,,,,,,,,,,,,,,,,,,,,,0,3,3,4,1,,,,,,,,,,,,,,,,,,,,,,,,
,,,,,,,,,,,,a,Correct!,,,,,,t5.png,t4.png,1,0.90025,20,female,2020-08-24_14h06.48.734,torte-2b,2020.1.3,MacIntel,60,13394,1.804,,,,,,,,,,,,,,,,,,,,,,,,,,,,,,,,,,,,,0,4,4,38,1,,,,,,,,,,,,,,,,,,,,,,,,
,,,,,,,,,,,,l,Incorrect,,,,,,t5.png,t4.png,1,0.90025,20,female,2020-08-24_14h06.48.734,torte-2b,2020.1.3,MacIntel,60,13394,1.301,,,,,,,,,,,,,,,,,,,,,,,,,,,,,,,,,,,,,0,5,5,25,1,,,,,,,,,,,,,,,,,,,,,,,,
,,,,,,,,,,,,a,Incorrect,,,,,,t5.png,t1.png,4,9.55E-11,20,female,2020-08-24_14h06.48.734,torte-2b,2020.1.3,MacIntel,60,13394,1.403,,,,,,,,,,,,,,,,,,,,,,,,,,,,,,,,,,,,,0,6,6,117,1,,,,,,,,,,,,,,,,,,,,,,,,
,,,,,,,,,,,,l,Incorrect,,,,,,t5.png,t4.png,1,0.9,20,female,2020-08-24_14h06.48.734,torte-2b,2020.1.3,MacIntel,60,13394,0.783,,,,,,,,,,,,,,,,,,,,,,,,,,,,,,,,,,,,,0,7,7,92,1,,,,,,,,,,,,,,,,,,,,,,,,
,,,,,,,,,,,,l,Incorrect,,,,,,t3.png,t4.png,1,0.90855,20,female,2020-08-24_14h06.48.734,torte-2b,2020.1.3,MacIntel,60,13394,1.653,,,,,,,,,,,,,,,,,,,,,,,,,,,,,,,,,,,,,0,8,8,5,1,,,,,,,,,,,,,,,,,,,,,,,,
,,,,,,,,,,,,l,Incorrect,,,,,,t2.png,t1.png,1,0.9,20,female,2020-08-24_14h06.48.734,torte-2b,2020.1.3,MacIntel,60,13394,1.105,,,,,,,,,,,,,,,,,,,,,,,,,,,,,,,,,,,,,0,9,9,93,1,,,,,,,,,,,,,,,,,,,,,,,,
,,,,,,,,,,,,l,Incorrect,,,,,,t1.png,t2.png,1,0.9,20,female,2020-08-24_14h06.48.734,torte-2b,2020.1.3,MacIntel,60,13394,0.635,,,,,,,,,,,,,,,,,,,,,,,,,,,,,,,,,,,,,0,10,10,17,1,,,,,,,,,,,,,,,,,,,,,,,,
,,,,,,,,,,,,l,Incorrect,,,,,,t1.png,t1.png,0,0.978,20,female,2020-08-24_14h06.48.734,torte-2b,2020.1.3,MacIntel,60,13394,0.672,,,,,,,,,,,,,,,,,,,,,,,,,,,,,,,,,,,,,0,11,11,22,1,,,,,,,,,,,,,,,,,,,,,,,,
,,,,,,,,,,,,l,Incorrect,,,,,,t2.png,t3.png,1,0.90855,20,female,2020-08-24_14h06.48.734,torte-2b,2020.1.3,MacIntel,60,13394,0.617,,,,,,,,,,,,,,,,,,,,,,,,,,,,,,,,,,,,,0,12,12,64,1,,,,,,,,,,,,,,,,,,,,,,,,
,,,,,,,,,,,,a,Incorrect,,,,,,t5.png,t3.png,2,0.056466,20,female,2020-08-24_14h06.48.734,torte-2b,2020.1.3,MacIntel,60,13394,1.94,,,,,,,,,,,,,,,,,,,,,,,,,,,,,,,,,,,,,0,13,13,80,1,,,,,,,,,,,,,,,,,,,,,,,,
,,,,,,,,,,,,l,Correct!,,,,,,t4.png,t1.png,3,0.059078,20,female,2020-08-24_14h06.48.734,torte-2b,2020.1.3,MacIntel,60,13394,1.314,,,,,,,,,,,,,,,,,,,,,,,,,,,,,,,,,,,,,0,14,14,57,1,,,,,,,,,,,,,,,,,,,,,,,,
,,,,,,,,,,,,l,Correct!,,,,,,t3.png,t5.png,2,0.056466,20,female,2020-08-24_14h06.48.734,torte-2b,2020.1.3,MacIntel,60,13394,0.848,,,,,,,,,,,,,,,,,,,,,,,,,,,,,,,,,,,,,0,15,15,45,1,,,,,,,,,,,,,,,,,,,,,,,,
,,,,,,,,,,,,,Too slow :(,,,,,,t1.png,t2.png,1,0.9,20,female,2020-08-24_14h06.48.734,torte-2b,2020.1.3,MacIntel,60,13394,,,,,,,,,,,,,,,,,,,,,,,,,,,,,,,,,,,,,,0,16,16,61,1,,,,,,,,,,,,,,,,,,,,,,,,
,,,,,,,,,,,,a,Correct!,,,,,,t2.png,t3.png,1,0.90855,20,female,2020-08-24_14h06.48.734,torte-2b,2020.1.3,MacIntel,60,13394,1.201,,,,,,,,,,,,,,,,,,,,,,,,,,,,,,,,,,,,,0,17,17,70,1,,,,,,,,,,,,,,,,,,,,,,,,
,,,,,,,,,,,,l,Incorrect,,,,,,t1.png,t1.png,0,0.978,20,female,2020-08-24_14h06.48.734,torte-2b,2020.1.3,MacIntel,60,13394,1.171,,,,,,,,,,,,,,,,,,,,,,,,,,,,,,,,,,,,,0,18,18,13,1,,,,,,,,,,,,,,,,,,,,,,,,
,,,,,,,,,,,,l,Incorrect,,,,,,t4.png,t3.png,1,0.90855,20,female,2020-08-24_14h06.48.734,torte-2b,2020.1.3,MacIntel,60,13394,0.782,,,,,,,,,,,,,,,,,,,,,,,,,,,,,,,,,,,,,0,19,19,56,1,,,,,,,,,,,,,,,,,,,,,,,,
,,,,,,,,,,,,l,Incorrect,,,,,,t2.png,t1.png,1,0.9,20,female,2020-08-24_14h06.48.734,torte-2b,2020.1.3,MacIntel,60,13394,0.615,,,,,,,,,,,,,,,,,,,,,,,,,,,,,,,,,,,,,0,20,20,100,1,,,,,,,,,,,,,,,,,,,,,,,,
,,,,,,,,,,,,l,Incorrect,,,,,,t1.png,t1.png,0,0.97829,20,female,2020-08-24_14h06.48.734,torte-2b,2020.1.3,MacIntel,60,13394,0.62,,,,,,,,,,,,,,,,,,,,,,,,,,,,,,,,,,,,,0,21,21,110,1,,,,,,,,,,,,,,,,,,,,,,,,
,,,,,,,,,,,,l,Correct!,,,,,,t2.png,t3.png,1,0.90855,20,female,2020-08-24_14h06.48.734,torte-2b,2020.1.3,MacIntel,60,13394,1.155,,,,,,,,,,,,,,,,,,,,,,,,,,,,,,,,,,,,,0,22,22,113,1,,,,,,,,,,,,,,,,,,,,,,,,
,,,,,,,,,,,,l,Correct!,,,,,,t2.png,t4.png,2,0.059078,20,female,2020-08-24_14h06.48.734,torte-2b,2020.1.3,MacIntel,60,13394,2.032,,,,,,,,,,,,,,,,,,,,,,,,,,,,,,,,,,,,,0,23,23,97,1,,,,,,,,,,,,,,,,,,,,,,,,
,,,,,,,,,,,,l,Correct!,,,,,,t5.png,t1.png,4,9.55E-11,20,female,2020-08-24_14h06.48.734,torte-2b,2020.1.3,MacIntel,60,13394,1.491,,,,,,,,,,,,,,,,,,,,,,,,,,,,,,,,,,,,,0,24,24,101,1,,,,,,,,,,,,,,,,,,,,,,,,
,,,,,,,,,,,,a,Incorrect,,,,,,t5.png,t3.png,2,0.056466,20,female,2020-08-24_14h06.48.734,torte-2b,2020.1.3,MacIntel,60,13394,2.232,,,,,,,,,,,,,,,,,,,,,,,,,,,,,,,,,,,,,0,25,25,37,1,,,,,,,,,,,,,,,,,,,,,,,,
,,,,,,,,,,,,l,Correct!,,,,,,t2.png,t5.png,3,0.0000131,20,female,2020-08-24_14h06.48.734,torte-2b,2020.1.3,MacIntel,60,13394,1.322,,,,,,,,,,,,,,,,,,,,,,,,,,,,,,,,,,,,,0,26,26,85,1,,,,,,,,,,,,,,,,,,,,,,,,
,,,,,,,,,,,,l,Incorrect,,,,,,t5.png,t5.png,0,0.978,20,female,2020-08-24_14h06.48.734,torte-2b,2020.1.3,MacIntel,60,13394,0.572,,,,,,,,,,,,,,,,,,,,,,,,,,,,,,,,,,,,,0,27,27,51,1,,,,,,,,,,,,,,,,,,,,,,,,
,,,,,,,,,,,,l,Correct!,,,,,,t3.png,t1.png,2,0.056466,20,female,2020-08-24_14h06.48.734,torte-2b,2020.1.3,MacIntel,60,13394,0.57,,,,,,,,,,,,,,,,,,,,,,,,,,,,,,,,,,,,,0,28,28,34,1,,,,,,,,,,,,,,,,,,,,,,,,
,,,,,,,,,,,,l,Correct!,,,,,,t3.png,t1.png,2,0.056466,20,female,2020-08-24_14h06.48.734,torte-2b,2020.1.3,MacIntel,60,13394,0.555,,,,,,,,,,,,,,,,,,,,,,,,,,,,,,,,,,,,,0,29,29,109,1,,,,,,,,,,,,,,,,,,,,,,,,
,,,,,,,,,,,,a,Correct!,,,,,,t1.png,t2.png,1,0.9,20,female,2020-08-24_14h06.48.734,torte-2b,2020.1.3,MacIntel,60,13394,1.199,,,,,,,,,,,,,,,,,,,,,,,,,,,,,,,,,,,,,0,30,30,41,1,,,,,,,,,,,,,,,,,,,,,,,,
,,,,,,,,,,,,l,Correct!,,,,,,t5.png,t1.png,4,9.55E-11,20,female,2020-08-24_14h06.48.734,torte-2b,2020.1.3,MacIntel,60,13394,1.085,,,,,,,,,,,,,,,,,,,,,,,,,,,,,,,,,,,,,0,31,31,89,1,,,,,,,,,,,,,,,,,,,,,,,,
,,,,,,,,,,,,a,Incorrect,,,,,,t2.png,t5.png,3,0.0000131,20,female,2020-08-24_14h06.48.734,torte-2b,2020.1.3,MacIntel,60,13394,1.203,,,,,,,,,,,,,,,,,,,,,,,,,,,,,,,,,,,,,0,32,32,46,1,,,,,,,,,,,,,,,,,,,,,,,,
,,,,,,,,,,,,l,Incorrect,,,,,,t2.png,t1.png,1,0.90025,20,female,2020-08-24_14h06.48.734,torte-2b,2020.1.3,MacIntel,60,13394,1.031,,,,,,,,,,,,,,,,,,,,,,,,,,,,,,,,,,,,,0,33,33,65,1,,,,,,,,,,,,,,,,,,,,,,,,
,,,,,,,,,,,,a,Incorrect,,,,,,t5.png,t2.png,3,0.0000131,20,female,2020-08-24_14h06.48.734,torte-2b,2020.1.3,MacIntel,60,13394,1.34,,,,,,,,,,,,,,,,,,,,,,,,,,,,,,,,,,,,,0,34,34,66,1,,,,,,,,,,,,,,,,,,,,,,,,
,,,,,,,,,,,,a,Incorrect,,,,,,t5.png,t3.png,2,0.0565,20,female,2020-08-24_14h06.48.734,torte-2b,2020.1.3,MacIntel,60,13394,1.088,,,,,,,,,,,,,,,,,,,,,,,,,,,,,,,,,,,,,0,35,35,50,1,,,,,,,,,,,,,,,,,,,,,,,,
,,,,,,,,,,,,l,Incorrect,,,,,,t4.png,t5.png,1,0.90025,20,female,2020-08-24_14h06.48.734,torte-2b,2020.1.3,MacIntel,60,13394,1.498,,,,,,,,,,,,,,,,,,,,,,,,,,,,,,,,,,,,,0,36,36,63,1,,,,,,,,,,,,,,,,,,,,,,,,
,,,,,,,,,,,,l,Correct!,,,,,,t2.png,t5.png,3,0.0000131,20,female,2020-08-24_14h06.48.734,torte-2b,2020.1.3,MacIntel,60,13394,0.43,,,,,,,,,,,,,,,,,,,,,,,,,,,,,,,,,,,,,0,37,37,39,1,,,,,,,,,,,,,,,,,,,,,,,,
,,,,,,,,,,,,l,Incorrect,,,,,,t4.png,t5.png,1,0.90025,20,female,2020-08-24_14h06.48.734,torte-2b,2020.1.3,MacIntel,60,13394,1.215,,,,,,,,,,,,,,,,,,,,,,,,,,,,,,,,,,,,,0,38,38,86,1,,,,,,,,,,,,,,,,,,,,,,,,
,,,,,,,,,,,,l,Correct!,,,,,,t2.png,t4.png,2,0.059078,20,female,2020-08-24_14h06.48.734,torte-2b,2020.1.3,MacIntel,60,13394,0.648,,,,,,,,,,,,,,,,,,,,,,,,,,,,,,,,,,,,,0,39,39,67,1,,,,,,,,,,,,,,,,,,,,,,,,
,,,,,,,,,,,,l,Incorrect,,,,,,t4.png,t3.png,1,0.909,20,female,2020-08-24_14h06.48.734,torte-2b,2020.1.3,MacIntel,60,13394,0.983,,,,,,,,,,,,,,,,,,,,,,,,,,,,,,,,,,,,,0,40,40,107,1,,,,,,,,,,,,,,,,,,,,,,,,
,,,,,,,,,,,,,Too slow :(,,,,,,t2.png,t3.png,1,0.909,20,female,2020-08-24_14h06.48.734,torte-2b,2020.1.3,MacIntel,60,13394,,,,,,,,,,,,,,,,,,,,,,,,,,,,,,,,,,,,,,0,41,41,8,1,,,,,,,,,,,,,,,,,,,,,,,,
,,,,,,,,,,,,l,Incorrect,,,,,,t5.png,t5.png,0,0.97829,20,female,2020-08-24_14h06.48.734,torte-2b,2020.1.3,MacIntel,60,13394,1.802,,,,,,,,,,,,,,,,,,,,,,,,,,,,,,,,,,,,,0,42,42,2,1,,,,,,,,,,,,,,,,,,,,,,,,
,,,,,,,,,,,,,Too slow :(,,,,,,t2.png,t2.png,0,0.98115,20,female,2020-08-24_14h06.48.734,torte-2b,2020.1.3,MacIntel,60,13394,,,,,,,,,,,,,,,,,,,,,,,,,,,,,,,,,,,,,,0,43,43,7,1,,,,,,,,,,,,,,,,,,,,,,,,
,,,,,,,,,,,,a,Correct!,,,,,,t4.png,t3.png,1,0.90855,20,female,2020-08-24_14h06.48.734,torte-2b,2020.1.3,MacIntel,60,13394,1.268,,,,,,,,,,,,,,,,,,,,,,,,,,,,,,,,,,,,,0,44,44,11,1,,,,,,,,,,,,,,,,,,,,,,,,
,,,,,,,,,,,,l,Correct!,,,,,,t2.png,t1.png,1,0.90025,20,female,2020-08-24_14h06.48.734,torte-2b,2020.1.3,MacIntel,60,13394,1.081,,,,,,,,,,,,,,,,,,,,,,,,,,,,,,,,,,,,,0,45,45,105,1,,,,,,,,,,,,,,,,,,,,,,,,
,,,,,,,,,,,,a,Incorrect,,,,,,t5.png,t2.png,3,0.0000131,20,female,2020-08-24_14h06.48.734,torte-2b,2020.1.3,MacIntel,60,13394,1.782,,,,,,,,,,,,,,,,,,,,,,,,,,,,,,,,,,,,,0,46,46,83,1,,,,,,,,,,,,,,,,,,,,,,,,
,,,,,,,,,,,,a,Incorrect,,,,,,t1.png,t2.png,1,0.90025,20,female,2020-08-24_14h06.48.734,torte-2b,2020.1.3,MacIntel,60,13394,1.283,,,,,,,,,,,,,,,,,,,,,,,,,,,,,,,,,,,,,0,47,47,6,1,,,,,,,,,,,,,,,,,,,,,,,,
,,,,,,,,,,,,l,Incorrect,,,,,,t2.png,t2.png,0,0.98115,20,female,2020-08-24_14h06.48.734,torte-2b,2020.1.3,MacIntel,60,13394,1.233,,,,,,,,,,,,,,,,,,,,,,,,,,,,,,,,,,,,,0,48,48,90,1,,,,,,,,,,,,,,,,,,,,,,,,
,,,,,,,,,,,,a,Incorrect,,,,,,t1.png,t5.png,4,9.55E-11,20,female,2020-08-24_14h06.48.734,torte-2b,2020.1.3,MacIntel,60,13394,1.054,,,,,,,,,,,,,,,,,,,,,,,,,,,,,,,,,,,,,0,49,49,3,1,,,,,,,,,,,,,,,,,,,,,,,,
,,,,,,,,,,,,a,Incorrect,,,,,,t3.png,t5.png,2,0.056466,20,female,2020-08-24_14h06.48.734,torte-2b,2020.1.3,MacIntel,60,13394,1.032,,,,,,,,,,,,,,,,,,,,,,,,,,,,,,,,,,,,,0,50,50,60,1,,,,,,,,,,,,,,,,,,,,,,,,
,,,,,,,,,,,,a,Incorrect,,,,,,t1.png,t4.png,3,0.0000131,20,female,2020-08-24_14h06.48.734,torte-2b,2020.1.3,MacIntel,60,13394,1.014,,,,,,,,,,,,,,,,,,,,,,,,,,,,,,,,,,,,,0,51,51,23,1,,,,,,,,,,,,,,,,,,,,,,,,
,,,,,,,,,,,,a,Incorrect,,,,,,t5.png,t2.png,3,0.0000131,20,female,2020-08-24_14h06.48.734,torte-2b,2020.1.3,MacIntel,60,13394,0.805,,,,,,,,,,,,,,,,,,,,,,,,,,,,,,,,,,,,,0,52,52,82,1,,,,,,,,,,,,,,,,,,,,,,,,
,,,,,,,,,,,,a,Incorrect,,,,,,t4.png,t1.png,3,0.0000131,20,female,2020-08-24_14h06.48.734,torte-2b,2020.1.3,MacIntel,60,13394,1.719,,,,,,,,,,,,,,,,,,,,,,,,,,,,,,,,,,,,,0,53,53,49,1,,,,,,,,,,,,,,,,,,,,,,,,
,,,,,,,,,,,,a,Incorrect,,,,,,t5.png,t3.png,2,0.056466,20,female,2020-08-24_14h06.48.734,torte-2b,2020.1.3,MacIntel,60,13394,0.57,,,,,,,,,,,,,,,,,,,,,,,,,,,,,,,,,,,,,0,54,54,26,1,,,,,,,,,,,,,,,,,,,,,,,,
,,,,,,,,,,,,a,Incorrect,,,,,,t5.png,t1.png,4,9.55E-11,20,female,2020-08-24_14h06.48.734,torte-2b,2020.1.3,MacIntel,60,13394,0.573,,,,,,,,,,,,,,,,,,,,,,,,,,,,,,,,,,,,,0,55,55,31,1,,,,,,,,,,,,,,,,,,,,,,,,
,,,,,,,,,,,,a,Correct!,,,,,,t4.png,t5.png,1,0.9,20,female,2020-08-24_14h06.48.734,torte-2b,2020.1.3,MacIntel,60,13394,0.705,,,,,,,,,,,,,,,,,,,,,,,,,,,,,,,,,,,,,0,56,56,81,1,,,,,,,,,,,,,,,,,,,,,,,,
,,,,,,,,,,,,a,Correct!,,,,,,t5.png,t4.png,1,0.90025,20,female,2020-08-24_14h06.48.734,torte-2b,2020.1.3,MacIntel,60,13394,1.107,,,,,,,,,,,,,,,,,,,,,,,,,,,,,,,,,,,,,0,57,57,14,1,,,,,,,,,,,,,,,,,,,,,,,,
,,,,,,,,,,,,l,Incorrect,,,,,,t4.png,t5.png,1,0.90025,20,female,2020-08-24_14h06.48.734,torte-2b,2020.1.3,MacIntel,60,13394,1.164,,,,,,,,,,,,,,,,,,,,,,,,,,,,,,,,,,,,,0,58,58,33,1,,,,,,,,,,,,,,,,,,,,,,,,
,,,,,,,,,,,,l,Incorrect,,,,,,t4.png,t4.png,0,0.98115,20,female,2020-08-24_14h06.48.734,torte-2b,2020.1.3,MacIntel,60,13394,1.282,,,,,,,,,,,,,,,,,,,,,,,,,,,,,,,,,,,,,0,59,59,68,1,,,,,,,,,,,,,,,,,,,,,,,,
,,,,,,,,,,,,a,Incorrect,,,,,,t4.png,t3.png,1,0.90855,20,female,2020-08-24_14h06.48.734,torte-2b,2020.1.3,MacIntel,60,13394,0.788,,,,,,,,,,,,,,,,,,,,,,,,,,,,,,,,,,,,,0,60,60,29,1,,,,,,,,,,,,,,,,,,,,,,,,
,,,,,,,,,,,,a,Correct!,,,,,,t2.png,t1.png,1,0.90025,20,female,2020-08-24_14h06.48.734,torte-2b,2020.1.3,MacIntel,60,13394,0.774,,,,,,,,,,,,,,,,,,,,,,,,,,,,,,,,,,,,,0,61,61,44,1,,,,,,,,,,,,,,,,,,,,,,,,
,,,,,,,,,,,,l,Correct!,,,,,,t3.png,t1.png,2,0.0565,20,female,2020-08-24_14h06.48.734,torte-2b,2020.1.3,MacIntel,60,13394,1.048,,,,,,,,,,,,,,,,,,,,,,,,,,,,,,,,,,,,,0,62,62,40,1,,,,,,,,,,,,,,,,,,,,,,,,
,,,,,,,,,,,,a,Correct!,,,,,,t3.png,t2.png,1,0.90855,20,female,2020-08-24_14h06.48.734,torte-2b,2020.1.3,MacIntel,60,13394,1.251,,,,,,,,,,,,,,,,,,,,,,,,,,,,,,,,,,,,,0,63,63,0,1,,,,,,,,,,,,,,,,,,,,,,,,
,,,,,,,,,,,,a,Incorrect,,,,,,t1.png,t3.png,2,0.056466,20,female,2020-08-24_14h06.48.734,torte-2b,2020.1.3,MacIntel,60,13394,0.807,,,,,,,,,,,,,,,,,,,,,,,,,,,,,,,,,,,,,0,64,64,32,1,,,,,,,,,,,,,,,,,,,,,,,,
,,,,,,,,,,,,l,Correct!,,,,,,t4.png,t1.png,3,0.059078,20,female,2020-08-24_14h06.48.734,torte-2b,2020.1.3,MacIntel,60,13394,1.132,,,,,,,,,,,,,,,,,,,,,,,,,,,,,,,,,,,,,0,65,65,62,1,,,,,,,,,,,,,,,,,,,,,,,,
,,,,,,,,,,,,l,Incorrect,,,,,,t3.png,t4.png,1,0.90855,20,female,2020-08-24_14h06.48.734,torte-2b,2020.1.3,MacIntel,60,13394,0.572,,,,,,,,,,,,,,,,,,,,,,,,,,,,,,,,,,,,,0,66,66,9,1,,,,,,,,,,,,,,,,,,,,,,,,
,,,,,,,,,,,,l,Correct!,,,,,,t3.png,t5.png,2,0.056466,20,female,2020-08-24_14h06.48.734,torte-2b,2020.1.3,MacIntel,60,13394,0.568,,,,,,,,,,,,,,,,,,,,,,,,,,,,,,,,,,,,,0,67,67,47,1,,,,,,,,,,,,,,,,,,,,,,,,
,,,,,,,,,,,,l,Incorrect,,,,,,t4.png,t4.png,0,0.98115,20,female,2020-08-24_14h06.48.734,torte-2b,2020.1.3,MacIntel,60,13394,0.717,,,,,,,,,,,,,,,,,,,,,,,,,,,,,,,,,,,,,0,68,68,52,1,,,,,,,,,,,,,,,,,,,,,,,,
,,,,,,,,,,,,l,Correct!,,,,,,t2.png,t4.png,2,0.059078,20,female,2020-08-24_14h06.48.734,torte-2b,2020.1.3,MacIntel,60,13394,0.949,,,,,,,,,,,,,,,,,,,,,,,,,,,,,,,,,,,,,0,69,69,53,1,,,,,,,,,,,,,,,,,,,,,,,,
,,,,,,,,,,,,l,Incorrect,,,,,,t4.png,t4.png,0,0.98115,20,female,2020-08-24_14h06.48.734,torte-2b,2020.1.3,MacIntel,60,13394,0.675,,,,,,,,,,,,,,,,,,,,,,,,,,,,,,,,,,,,,0,70,70,88,1,,,,,,,,,,,,,,,,,,,,,,,,
,,,,,,,,,,,,l,Correct!,,,,,,t2.png,t4.png,2,0.059078,20,female,2020-08-24_14h06.48.734,torte-2b,2020.1.3,MacIntel,60,13394,0.654,,,,,,,,,,,,,,,,,,,,,,,,,,,,,,,,,,,,,0,71,71,18,1,,,,,,,,,,,,,,,,,,,,,,,,
,,,,,,,,,,,,l,Incorrect,,,,,,t3.png,t2.png,1,0.90855,20,female,2020-08-24_14h06.48.734,torte-2b,2020.1.3,MacIntel,60,13394,0.855,,,,,,,,,,,,,,,,,,,,,,,,,,,,,,,,,,,,,0,72,72,108,1,,,,,,,,,,,,,,,,,,,,,,,,
,,,,,,,,,,,,l,Correct!,,,,,,t4.png,t1.png,3,0.059078,20,female,2020-08-24_14h06.48.734,torte-2b,2020.1.3,MacIntel,60,13394,0.814,,,,,,,,,,,,,,,,,,,,,,,,,,,,,,,,,,,,,0,73,73,75,1,,,,,,,,,,,,,,,,,,,,,,,,
,,,,,,,,,,,,l,Correct!,,,,,,t1.png,t5.png,4,9.55E-11,20,female,2020-08-24_14h06.48.734,torte-2b,2020.1.3,MacIntel,60,13394,0.417,,,,,,,,,,,,,,,,,,,,,,,,,,,,,,,,,,,,,0,74,74,1,1,,,,,,,,,,,,,,,,,,,,,,,,
,,,,,,,,,,,,l,Correct!,,,,,,t4.png,t1.png,3,0.0000131,20,female,2020-08-24_14h06.48.734,torte-2b,2020.1.3,MacIntel,60,13394,0.355,,,,,,,,,,,,,,,,,,,,,,,,,,,,,,,,,,,,,0,75,75,76,1,,,,,,,,,,,,,,,,,,,,,,,,
,,,,,,,,,,,,l,Correct!,,,,,,t5.png,t2.png,3,0.0000131,20,female,2020-08-24_14h06.48.734,torte-2b,2020.1.3,MacIntel,60,13394,0.487,,,,,,,,,,,,,,,,,,,,,,,,,,,,,,,,,,,,,0,76,76,48,1,,,,,,,,,,,,,,,,,,,,,,,,
,,,,,,,,,,,,l,Correct!,,,,,,t2.png,t5.png,3,0.0000131,20,female,2020-08-24_14h06.48.734,torte-2b,2020.1.3,MacIntel,60,13394,0.971,,,,,,,,,,,,,,,,,,,,,,,,,,,,,,,,,,,,,0,77,77,54,1,,,,,,,,,,,,,,,,,,,,,,,,
,,,,,,,,,,,,l,Correct!,,,,,,t2.png,t4.png,2,0.059078,20,female,2020-08-24_14h06.48.734,torte-2b,2020.1.3,MacIntel,60,13394,0.917,,,,,,,,,,,,,,,,,,,,,,,,,,,,,,,,,,,,,0,78,78,84,1,,,,,,,,,,,,,,,,,,,,,,,,
,,,,,,,,,,,,l,Correct!,,,,,,t1.png,t3.png,2,0.0565,20,female,2020-08-24_14h06.48.734,torte-2b,2020.1.3,MacIntel,60,13394,0.837,,,,,,,,,,,,,,,,,,,,,,,,,,,,,,,,,,,,,0,79,79,95,1,,,,,,,,,,,,,,,,,,,,,,,,
,,,,,,,,,,,,,Too slow :(,,,,,,t2.png,t5.png,3,0.0000131,20,female,2020-08-24_14h06.48.734,torte-2b,2020.1.3,MacIntel,60,13394,,,,,,,,,,,,,,,,,,,,,,,,,,,,,,,,,,,,,,0,80,80,115,1,,,,,,,,,,,,,,,,,,,,,,,,
,,,,,,,,,,,,l,Incorrect,,,,,,t2.png,t3.png,1,0.90855,20,female,2020-08-24_14h06.48.734,torte-2b,2020.1.3,MacIntel,60,13394,0.586,,,,,,,,,,,,,,,,,,,,,,,,,,,,,,,,,,,,,0,81,81,79,1,,,,,,,,,,,,,,,,,,,,,,,,
,,,,,,,,,,,,l,Correct!,,,,,,t1.png,t4.png,3,0.0000131,20,female,2020-08-24_14h06.48.734,torte-2b,2020.1.3,MacIntel,60,13394,0.399,,,,,,,,,,,,,,,,,,,,,,,,,,,,,,,,,,,,,0,82,82,36,1,,,,,,,,,,,,,,,,,,,,,,,,
,,,,,,,,,,,,l,Incorrect,,,,,,t4.png,t1.png,3,0.059078,20,female,2020-08-24_14h06.48.734,torte-2b,2020.1.3,MacIntel,60,13394,0.367,,,,,,,,,,,,,,,,,,,,,,,,,,,,,,,,,,,,,0,83,83,87,1,,,,,,,,,,,,,,,,,,,,,,,,
,,,,,,,,,,,,,Too slow :(,,,,,,t1.png,t2.png,1,0.90025,20,female,2020-08-24_14h06.48.734,torte-2b,2020.1.3,MacIntel,60,13394,,,,,,,,,,,,,,,,,,,,,,,,,,,,,,,,,,,,,,0,84,84,96,1,,,,,,,,,,,,,,,,,,,,,,,,
,,,,,,,,,,,,l,Correct!,,,,,,t1.png,t5.png,4,9.55E-11,20,female,2020-08-24_14h06.48.734,torte-2b,2020.1.3,MacIntel,60,13394,0.484,,,,,,,,,,,,,,,,,,,,,,,,,,,,,,,,,,,,,0,85,85,20,1,,,,,,,,,,,,,,,,,,,,,,,,
,,,,,,,,,,,,l,Correct!,,,,,,t1.png,t5.png,4,9.55E-11,20,female,2020-08-24_14h06.48.734,torte-2b,2020.1.3,MacIntel,60,13394,0.707,,,,,,,,,,,,,,,,,,,,,,,,,,,,,,,,,,,,,0,86,86,30,1,,,,,,,,,,,,,,,,,,,,,,,,
,,,,,,,,,,,,l,Incorrect,,,,,,t5.png,t5.png,0,0.978,20,female,2020-08-24_14h06.48.734,torte-2b,2020.1.3,MacIntel,60,13394,0.467,,,,,,,,,,,,,,,,,,,,,,,,,,,,,,,,,,,,,0,87,87,116,1,,,,,,,,,,,,,,,,,,,,,,,,
,,,,,,,,,,,,l,Incorrect,,,,,,t3.png,t2.png,1,0.90855,20,female,2020-08-24_14h06.48.734,torte-2b,2020.1.3,MacIntel,60,13394,0.081,,,,,,,,,,,,,,,,,,,,,,,,,,,,,,,,,,,,,0,88,88,10,1,,,,,,,,,,,,,,,,,,,,,,,,
,,,,,,,,,,,,l,Correct!,,,,,,t3.png,t2.png,1,0.90855,20,female,2020-08-24_14h06.48.734,torte-2b,2020.1.3,MacIntel,60,13394,0.316,,,,,,,,,,,,,,,,,,,,,,,,,,,,,,,,,,,,,0,89,89,94,1,,,,,,,,,,,,,,,,,,,,,,,,
,,,,,,,,,,,,l,Incorrect,,,,,,t3.png,t4.png,1,0.90855,20,female,2020-08-24_14h06.48.734,torte-2b,2020.1.3,MacIntel,60,13394,0.636,,,,,,,,,,,,,,,,,,,,,,,,,,,,,,,,,,,,,0,90,90,58,1,,,,,,,,,,,,,,,,,,,,,,,,
,,,,,,,,,,,,l,Incorrect,,,,,,t3.png,t4.png,1,0.90855,20,female,2020-08-24_14h06.48.734,torte-2b,2020.1.3,MacIntel,60,13394,0.256,,,,,,,,,,,,,,,,,,,,,,,,,,,,,,,,,,,,,0,91,91,111,1,,,,,,,,,,,,,,,,,,,,,,,,
,,,,,,,,,,,,l,Correct!,,,,,,t1.png,t4.png,3,0.0000131,20,female,2020-08-24_14h06.48.734,torte-2b,2020.1.3,MacIntel,60,13394,0.731,,,,,,,,,,,,,,,,,,,,,,,,,,,,,,,,,,,,,0,92,92,74,1,,,,,,,,,,,,,,,,,,,,,,,,
,,,,,,,,,,,,a,Correct!,,,,,,t2.png,t2.png,0,0.98115,20,female,2020-08-24_14h06.48.734,torte-2b,2020.1.3,MacIntel,60,13394,1.073,,,,,,,,,,,,,,,,,,,,,,,,,,,,,,,,,,,,,0,93,93,112,1,,,,,,,,,,,,,,,,,,,,,,,,
,,,,,,,,,,,,a,Incorrect,,,,,,t1.png,t3.png,2,0.0565,20,female,2020-08-24_14h06.48.734,torte-2b,2020.1.3,MacIntel,60,13394,0.467,,,,,,,,,,,,,,,,,,,,,,,,,,,,,,,,,,,,,0,94,94,12,1,,,,,,,,,,,,,,,,,,,,,,,,
,,,,,,,,,,,,l,Incorrect,,,,,,t4.png,t1.png,3,0.059078,20,female,2020-08-24_14h06.48.734,torte-2b,2020.1.3,MacIntel,60,13394,1.316,,,,,,,,,,,,,,,,,,,,,,,,,,,,,,,,,,,,,0,95,95,73,1,,,,,,,,,,,,,,,,,,,,,,,,
,,,,,,,,,,,,l,Correct!,,,,,,t4.png,t1.png,3,0.0000131,20,female,2020-08-24_14h06.48.734,torte-2b,2020.1.3,MacIntel,60,13394,0.52,,,,,,,,,,,,,,,,,,,,,,,,,,,,,,,,,,,,,0,96,96,28,1,,,,,,,,,,,,,,,,,,,,,,,,
,,,,,,,,,,,,a,Incorrect,,,,,,t5.png,t3.png,2,0.056466,20,female,2020-08-24_14h06.48.734,torte-2b,2020.1.3,MacIntel,60,13394,1.616,,,,,,,,,,,,,,,,,,,,,,,,,,,,,,,,,,,,,0,97,97,27,1,,,,,,,,,,,,,,,,,,,,,,,,
,,,,,,,,,,,,l,Correct!,,,,,,t3.png,t5.png,2,0.0565,20,female,2020-08-24_14h06.48.734,torte-2b,2020.1.3,MacIntel,60,13394,1.15,,,,,,,,,,,,,,,,,,,,,,,,,,,,,,,,,,,,,0,98,98,71,1,,,,,,,,,,,,,,,,,,,,,,,,
,,,,,,,,,,,,l,Incorrect,,,,,,t5.png,t5.png,0,0.97829,20,female,2020-08-24_14h06.48.734,torte-2b,2020.1.3,MacIntel,60,13394,0.988,,,,,,,,,,,,,,,,,,,,,,,,,,,,,,,,,,,,,0,99,99,77,1,,,,,,,,,,,,,,,,,,,,,,,,
,,,,,,,,,,,,a,Correct!,,,,,,t2.png,t2.png,0,0.98115,20,female,2020-08-24_14h06.48.734,torte-2b,2020.1.3,MacIntel,60,13394,1.1,,,,,,,,,,,,,,,,,,,,,,,,,,,,,,,,,,,,,0,100,100,69,1,,,,,,,,,,,,,,,,,,,,,,,,
,,,,,,,,,,,,a,Incorrect,,,,,,t5.png,t1.png,4,9.55E-11,20,female,2020-08-24_14h06.48.734,torte-2b,2020.1.3,MacIntel,60,13394,0.606,,,,,,,,,,,,,,,,,,,,,,,,,,,,,,,,,,,,,0,101,101,15,1,,,,,,,,,,,,,,,,,,,,,,,,
,,,,,,,,,,,,a,Correct!,,,,,,t5.png,t5.png,0,0.97829,20,female,2020-08-24_14h06.48.734,torte-2b,2020.1.3,MacIntel,60,13394,0.681,,,,,,,,,,,,,,,,,,,,,,,,,,,,,,,,,,,,,0,102,102,35,1,,,,,,,,,,,,,,,,,,,,,,,,
,,,,,,,,,,,,l,Incorrect,,,,,,t4.png,t4.png,0,0.98115,20,female,2020-08-24_14h06.48.734,torte-2b,2020.1.3,MacIntel,60,13394,1.188,,,,,,,,,,,,,,,,,,,,,,,,,,,,,,,,,,,,,0,103,103,19,1,,,,,,,,,,,,,,,,,,,,,,,,
,,,,,,,,,,,,a,Correct!,,,,,,t3.png,t2.png,1,0.90855,20,female,2020-08-24_14h06.48.734,torte-2b,2020.1.3,MacIntel,60,13394,1.699,,,,,,,,,,,,,,,,,,,,,,,,,,,,,,,,,,,,,0,104,104,99,1,,,,,,,,,,,,,,,,,,,,,,,,
,,,,,,,,,,,,l,Correct!,,,,,,t3.png,t5.png,2,0.056466,20,female,2020-08-24_14h06.48.734,torte-2b,2020.1.3,MacIntel,60,13394,1.058,,,,,,,,,,,,,,,,,,,,,,,,,,,,,,,,,,,,,0,105,105,78,1,,,,,,,,,,,,,,,,,,,,,,,,
,,,,,,,,,,,,l,Correct!,,,,,,t1.png,t4.png,3,0.0000131,20,female,2020-08-24_14h06.48.734,torte-2b,2020.1.3,MacIntel,60,13394,1.103,,,,,,,,,,,,,,,,,,,,,,,,,,,,,,,,,,,,,0,106,106,16,1,,,,,,,,,,,,,,,,,,,,,,,,
,,,,,,,,,,,,l,Incorrect,,,,,,t4.png,t5.png,1,0.90025,20,female,2020-08-24_14h06.48.734,torte-2b,2020.1.3,MacIntel,60,13394,0.766,,,,,,,,,,,,,,,,,,,,,,,,,,,,,,,,,,,,,0,107,107,21,1,,,,,,,,,,,,,,,,,,,,,,,,
,,,,,,,,,,,,l,Incorrect,,,,,,t1.png,t1.png,0,0.97829,20,female,2020-08-24_14h06.48.734,torte-2b,2020.1.3,MacIntel,60,13394,1.04,,,,,,,,,,,,,,,,,,,,,,,,,,,,,,,,,,,,,0,108,108,114,1,,,,,,,,,,,,,,,,,,,,,,,,
,,,,,,,,,,,,l,Incorrect,,,,,,t3.png,t4.png,1,0.90855,20,female,2020-08-24_14h06.48.734,torte-2b,2020.1.3,MacIntel,60,13394,1.23,,,,,,,,,,,,,,,,,,,,,,,,,,,,,,,,,,,,,0,109,109,103,1,,,,,,,,,,,,,,,,,,,,,,,,
,,,,,,,,,,,,a,Incorrect,,,,,,t1.png,t4.png,3,0.0000131,20,female,2020-08-24_14h06.48.734,torte-2b,2020.1.3,MacIntel,60,13394,1.903,,,,,,,,,,,,,,,,,,,,,,,,,,,,,,,,,,,,,0,110,110,106,1,,,,,,,,,,,,,,,,,,,,,,,,
,,,,,,,,,,,,l,Correct!,,,,,,t3.png,t1.png,2,0.0565,20,female,2020-08-24_14h06.48.734,torte-2b,2020.1.3,MacIntel,60,13394,0.938,,,,,,,,,,,,,,,,,,,,,,,,,,,,,,,,,,,,,0,111,111,104,1,,,,,,,,,,,,,,,,,,,,,,,,
,,,,,,,,,,,,l,Correct!,,,,,,t1.png,t3.png,2,0.056466,20,female,2020-08-24_14h06.48.734,torte-2b,2020.1.3,MacIntel,60,13394,0.432,,,,,,,,,,,,,,,,,,,,,,,,,,,,,,,,,,,,,0,112,112,24,1,,,,,,,,,,,,,,,,,,,,,,,,
,,,,,,,,,,,,l,Incorrect,,,,,,t4.png,t3.png,1,0.909,20,female,2020-08-24_14h06.48.734,torte-2b,2020.1.3,MacIntel,60,13394,0.253,,,,,,,,,,,,,,,,,,,,,,,,,,,,,,,,,,,,,0,113,113,119,1,,,,,,,,,,,,,,,,,,,,,,,,
,,,,,,,,,,,,l,Correct!,,,,,,t1.png,t5.png,4,9.55E-11,20,female,2020-08-24_14h06.48.734,torte-2b,2020.1.3,MacIntel,60,13394,0.63,,,,,,,,,,,,,,,,,,,,,,,,,,,,,,,,,,,,,0,114,114,118,1,,,,,,,,,,,,,,,,,,,,,,,,
,,,,,,,,,,,,l,Correct!,,,,,,t5.png,t2.png,3,0.0000131,20,female,2020-08-24_14h06.48.734,torte-2b,2020.1.3,MacIntel,60,13394,0.6,,,,,,,,,,,,,,,,,,,,,,,,,,,,,,,,,,,,,0,115,115,43,1,,,,,,,,,,,,,,,,,,,,,,,,
,,,,,,,,,,,,,Too slow :(,,,,,,t4.png,t4.png,0,0.98115,20,female,2020-08-24_14h06.48.734,torte-2b,2020.1.3,MacIntel,60,13394,,,,,,,,,,,,,,,,,,,,,,,,,,,,,,,,,,,,,,0,116,116,59,1,,,,,,,,,,,,,,,,,,,,,,,,
,,,,,,,,,,,,a,Incorrect,,,,,,t1.png,t3.png,2,0.0565,20,female,2020-08-24_14h06.48.734,torte-2b,2020.1.3,MacIntel,60,13394,1.149,,,,,,,,,,,,,,,,,,,,,,,,,,,,,,,,,,,,,0,117,117,42,1,,,,,,,,,,,,,,,,,,,,,,,,
,,,,,,,,,,,,l,Correct!,,,,,,t4.png,t1.png,3,0.0000131,20,female,2020-08-24_14h06.48.734,torte-2b,2020.1.3,MacIntel,60,13394,1.417,,,,,,,,,,,,,,,,,,,,,,,,,,,,,,,,,,,,,0,118,118,91,1,,,,,,,,,,,,,,,,,,,,,,,,
,,,,,,,,,,,,l,Incorrect,,,,,,t5.png,t4.png,1,0.9,20,female,2020-08-24_14h06.48.734,torte-2b,2020.1.3,MacIntel,60,13394,0.797,,,,,,,,,,,,,,,,,,,,,,,,,,,,,,,,,,,,,0,119,119,55,1,,,,,,,,,,,,,,,,,,,,,,,,
,,,,,,,,,,,,,,,,,,,,,,,20,female,2020-08-24_14h06.48.734,torte-2b,2020.1.3,MacIntel,60,13394,,l,4.967,,,,,,,,,,,,,,,,,,,,,,,,,,,,,,,,,,,,,,,,1,116,1,0,0,s2,13,34,1,0,0,t2,170,-112,1,0,0,proceed,space,1.645,space,0.613,space,4.211
