key_resp_8.keys,key_resp_8.rt,key_resp_9.keys,key_resp_9.rt,key_resp_10.keys,key_resp_10.rt,key_resp_11.keys,key_resp_11.rt,key_resp_2.keys,key_resp_2.rt,key_resp_3.keys,key_resp_3.rt,key_resp.keys,Feedback,train.thisRepN,train.thisTrialN,train.thisN,train.thisIndex,train.ran,torta_sx,torta_dx,difference,probability,age,gender,date,expName,psychopyVersion,OS,frameRate,participant,key_resp.rt,key_resp_15.keys,key_resp_15.rt,key_resp_6.keys,key_resp_6.rt,test1.thisRepN,test1.thisTrialN,test1.thisN,test1.thisIndex,test1.ran,key_resp_4.keys,key_resp_4.rt,key_resp_5.keys,back1.thisRepN,back1.thisTrialN,back1.thisN,back1.thisIndex,back1.ran,letter,key_resp_5.rt,back2.thisRepN,back2.thisTrialN,back2.thisN,back2.thisIndex,back2.ran,back3.thisRepN,back3.thisTrialN,back3.thisN,back3.thisIndex,back3.ran,back4.thisRepN,back4.thisTrialN,back4.thisN,back4.thisIndex,back4.ran,key_resp_7.keys,key_resp_7.rt,test2.thisRepN,test2.thisTrialN,test2.thisN,test2.thisIndex,test2.ran,mouse.x,mouse.y,mouse.leftButton,mouse.midButton,mouse.rightButton,mouse.clicked_name,mouse_2.x,mouse_2.y,mouse_2.leftButton,mouse_2.midButton,mouse_2.rightButton,mouse_2.clicked_name,mouse_3.x,mouse_3.y,mouse_3.leftButton,mouse_3.midButton,mouse_3.rightButton,mouse_3.clicked_name,key_resp_12.keys,key_resp_12.rt,key_resp_13.keys,key_resp_13.rt,key_resp_14.keys,key_resp_14.rt
space,19.65,space,0.645,space,0.788,space,2.231,space,11.703,space,11.395,,Too slow :(,0,0,0,21,1,t5.png,t4.png,1,0.90025,20,female,2020-08-06_11h59.37.834,torte-2b,2020.1.3,MacIntel,60,13396,,,,,,,,,,,,,,,,,,,,,,,,,,,,,,,,,,,,,,,,,,,,,,,,,,,,,,,,,,,,,,,,,,
,,,,,,,,,,,,l,Correct!,0,1,1,28,1,t1.png,t4.png,3,0.0000131,20,female,2020-08-06_11h59.37.834,torte-2b,2020.1.3,MacIntel,60,13396,0.978,,,,,,,,,,,,,,,,,,,,,,,,,,,,,,,,,,,,,,,,,,,,,,,,,,,,,,,,,,,,,,,,,
,,,,,,,,,,,,a,Incorrect,0,2,2,73,1,t3.png,t1.png,2,0.056466,20,female,2020-08-06_11h59.37.834,torte-2b,2020.1.3,MacIntel,60,13396,0.668,,,,,,,,,,,,,,,,,,,,,,,,,,,,,,,,,,,,,,,,,,,,,,,,,,,,,,,,,,,,,,,,,
,,,,,,,,,,,,a,Correct!,0,3,3,119,1,t5.png,t4.png,1,0.90025,20,female,2020-08-06_11h59.37.834,torte-2b,2020.1.3,MacIntel,60,13396,0.825,,,,,,,,,,,,,,,,,,,,,,,,,,,,,,,,,,,,,,,,,,,,,,,,,,,,,,,,,,,,,,,,,
,,,,,,,,,,,,l,Correct!,0,4,4,115,1,t2.png,t4.png,2,0.059078,20,female,2020-08-06_11h59.37.834,torte-2b,2020.1.3,MacIntel,60,13396,0.671,,,,,,,,,,,,,,,,,,,,,,,,,,,,,,,,,,,,,,,,,,,,,,,,,,,,,,,,,,,,,,,,,
,,,,,,,,,,,,a,Incorrect,0,5,5,1,1,t3.png,t1.png,2,0.056466,20,female,2020-08-06_11h59.37.834,torte-2b,2020.1.3,MacIntel,60,13396,0.724,,,,,,,,,,,,,,,,,,,,,,,,,,,,,,,,,,,,,,,,,,,,,,,,,,,,,,,,,,,,,,,,,
,,,,,,,,,,,,a,Incorrect,0,6,6,59,1,t5.png,t1.png,4,9.55E-11,20,female,2020-08-06_11h59.37.834,torte-2b,2020.1.3,MacIntel,60,13396,0.835,,,,,,,,,,,,,,,,,,,,,,,,,,,,,,,,,,,,,,,,,,,,,,,,,,,,,,,,,,,,,,,,,
,,,,,,,,,,,,l,Incorrect,0,7,7,53,1,t1.png,t1.png,0,0.97829,20,female,2020-08-06_11h59.37.834,torte-2b,2020.1.3,MacIntel,60,13396,1.285,,,,,,,,,,,,,,,,,,,,,,,,,,,,,,,,,,,,,,,,,,,,,,,,,,,,,,,,,,,,,,,,,
,,,,,,,,,,,,a,Correct!,0,8,8,109,1,t5.png,t5.png,0,0.97829,20,female,2020-08-06_11h59.37.834,torte-2b,2020.1.3,MacIntel,60,13396,2.028,,,,,,,,,,,,,,,,,,,,,,,,,,,,,,,,,,,,,,,,,,,,,,,,,,,,,,,,,,,,,,,,,
,,,,,,,,,,,,l,Correct!,0,9,9,49,1,t5.png,t1.png,4,9.55E-11,20,female,2020-08-06_11h59.37.834,torte-2b,2020.1.3,MacIntel,60,13396,1.566,,,,,,,,,,,,,,,,,,,,,,,,,,,,,,,,,,,,,,,,,,,,,,,,,,,,,,,,,,,,,,,,,
,,,,,,,,,,,,l,Incorrect,0,10,10,45,1,t4.png,t5.png,1,0.90025,20,female,2020-08-06_11h59.37.834,torte-2b,2020.1.3,MacIntel,60,13396,1.796,,,,,,,,,,,,,,,,,,,,,,,,,,,,,,,,,,,,,,,,,,,,,,,,,,,,,,,,,,,,,,,,,
,,,,,,,,,,,,a,Incorrect,0,11,11,63,1,t1.png,t5.png,4,9.55E-11,20,female,2020-08-06_11h59.37.834,torte-2b,2020.1.3,MacIntel,60,13396,0.837,,,,,,,,,,,,,,,,,,,,,,,,,,,,,,,,,,,,,,,,,,,,,,,,,,,,,,,,,,,,,,,,,
,,,,,,,,,,,,a,Incorrect,0,12,12,92,1,t5.png,t1.png,4,9.55E-11,20,female,2020-08-06_11h59.37.834,torte-2b,2020.1.3,MacIntel,60,13396,1.275,,,,,,,,,,,,,,,,,,,,,,,,,,,,,,,,,,,,,,,,,,,,,,,,,,,,,,,,,,,,,,,,,
,,,,,,,,,,,,l,Correct!,0,13,13,11,1,t1.png,t4.png,3,0.0000131,20,female,2020-08-06_11h59.37.834,torte-2b,2020.1.3,MacIntel,60,13396,0.72,,,,,,,,,,,,,,,,,,,,,,,,,,,,,,,,,,,,,,,,,,,,,,,,,,,,,,,,,,,,,,,,,
,,,,,,,,,,,,l,Incorrect,0,14,14,91,1,t5.png,t4.png,1,0.90025,20,female,2020-08-06_11h59.37.834,torte-2b,2020.1.3,MacIntel,60,13396,1.892,,,,,,,,,,,,,,,,,,,,,,,,,,,,,,,,,,,,,,,,,,,,,,,,,,,,,,,,,,,,,,,,,
,,,,,,,,,,,,a,Incorrect,0,15,15,118,1,t1.png,t5.png,4,9.55E-11,20,female,2020-08-06_11h59.37.834,torte-2b,2020.1.3,MacIntel,60,13396,2.045,,,,,,,,,,,,,,,,,,,,,,,,,,,,,,,,,,,,,,,,,,,,,,,,,,,,,,,,,,,,,,,,,
,,,,,,,,,,,,l,Incorrect,0,16,16,85,1,t5.png,t4.png,1,0.90025,20,female,2020-08-06_11h59.37.834,torte-2b,2020.1.3,MacIntel,60,13396,1.535,,,,,,,,,,,,,,,,,,,,,,,,,,,,,,,,,,,,,,,,,,,,,,,,,,,,,,,,,,,,,,,,,
,,,,,,,,,,,,a,Incorrect,0,17,17,37,1,t2.png,t4.png,2,0.059078,20,female,2020-08-06_11h59.37.834,torte-2b,2020.1.3,MacIntel,60,13396,0.958,,,,,,,,,,,,,,,,,,,,,,,,,,,,,,,,,,,,,,,,,,,,,,,,,,,,,,,,,,,,,,,,,
,,,,,,,,,,,,l,Incorrect,0,18,18,5,1,t5.png,t5.png,0,0.97829,20,female,2020-08-06_11h59.37.834,torte-2b,2020.1.3,MacIntel,60,13396,1.55,,,,,,,,,,,,,,,,,,,,,,,,,,,,,,,,,,,,,,,,,,,,,,,,,,,,,,,,,,,,,,,,,
,,,,,,,,,,,,a,Incorrect,0,19,19,89,1,t1.png,t5.png,4,9.55E-11,20,female,2020-08-06_11h59.37.834,torte-2b,2020.1.3,MacIntel,60,13396,1.593,,,,,,,,,,,,,,,,,,,,,,,,,,,,,,,,,,,,,,,,,,,,,,,,,,,,,,,,,,,,,,,,,
,,,,,,,,,,,,a,Correct!,0,20,20,55,1,t1.png,t1.png,0,0.97829,20,female,2020-08-06_11h59.37.834,torte-2b,2020.1.3,MacIntel,60,13396,0.372,,,,,,,,,,,,,,,,,,,,,,,,,,,,,,,,,,,,,,,,,,,,,,,,,,,,,,,,,,,,,,,,,
,,,,,,,,,,,,a,Incorrect,0,21,21,94,1,t3.png,t1.png,2,0.056466,20,female,2020-08-06_11h59.37.834,torte-2b,2020.1.3,MacIntel,60,13396,0.359,,,,,,,,,,,,,,,,,,,,,,,,,,,,,,,,,,,,,,,,,,,,,,,,,,,,,,,,,,,,,,,,,
,,,,,,,,,,,,l,Correct!,0,22,22,35,1,t1.png,t4.png,3,0.0000131,20,female,2020-08-06_11h59.37.834,torte-2b,2020.1.3,MacIntel,60,13396,0.644,,,,,,,,,,,,,,,,,,,,,,,,,,,,,,,,,,,,,,,,,,,,,,,,,,,,,,,,,,,,,,,,,
,,,,,,,,,,,,a,Incorrect,0,23,23,74,1,t5.png,t1.png,4,9.55E-11,20,female,2020-08-06_11h59.37.834,torte-2b,2020.1.3,MacIntel,60,13396,0.574,,,,,,,,,,,,,,,,,,,,,,,,,,,,,,,,,,,,,,,,,,,,,,,,,,,,,,,,,,,,,,,,,
,,,,,,,,,,,,l,Incorrect,0,24,24,71,1,t4.png,t5.png,1,0.90025,20,female,2020-08-06_11h59.37.834,torte-2b,2020.1.3,MacIntel,60,13396,0.935,,,,,,,,,,,,,,,,,,,,,,,,,,,,,,,,,,,,,,,,,,,,,,,,,,,,,,,,,,,,,,,,,
,,,,,,,,,,,,a,Correct!,0,25,25,97,1,t1.png,t1.png,0,0.97829,20,female,2020-08-06_11h59.37.834,torte-2b,2020.1.3,MacIntel,60,13396,1.173,,,,,,,,,,,,,,,,,,,,,,,,,,,,,,,,,,,,,,,,,,,,,,,,,,,,,,,,,,,,,,,,,
,,,,,,,,,,,,a,Incorrect,0,26,26,95,1,t1.png,t4.png,3,0.0000131,20,female,2020-08-06_11h59.37.834,torte-2b,2020.1.3,MacIntel,60,13396,1.596,,,,,,,,,,,,,,,,,,,,,,,,,,,,,,,,,,,,,,,,,,,,,,,,,,,,,,,,,,,,,,,,,
,,,,,,,,,,,,l,Incorrect,0,27,27,14,1,t2.png,t3.png,1,0.90855,20,female,2020-08-06_11h59.37.834,torte-2b,2020.1.3,MacIntel,60,13396,1.358,,,,,,,,,,,,,,,,,,,,,,,,,,,,,,,,,,,,,,,,,,,,,,,,,,,,,,,,,,,,,,,,,
,,,,,,,,,,,,a,Incorrect,0,28,28,103,1,t4.png,t1.png,3,0.059078,20,female,2020-08-06_11h59.37.834,torte-2b,2020.1.3,MacIntel,60,13396,1.023,,,,,,,,,,,,,,,,,,,,,,,,,,,,,,,,,,,,,,,,,,,,,,,,,,,,,,,,,,,,,,,,,
,,,,,,,,,,,,l,Incorrect,0,29,29,100,1,t3.png,t2.png,1,0.90855,20,female,2020-08-06_11h59.37.834,torte-2b,2020.1.3,MacIntel,60,13396,1.316,,,,,,,,,,,,,,,,,,,,,,,,,,,,,,,,,,,,,,,,,,,,,,,,,,,,,,,,,,,,,,,,,
,,,,,,,,,,,,a,Incorrect,0,30,30,62,1,t1.png,t4.png,3,0.0000131,20,female,2020-08-06_11h59.37.834,torte-2b,2020.1.3,MacIntel,60,13396,1.536,,,,,,,,,,,,,,,,,,,,,,,,,,,,,,,,,,,,,,,,,,,,,,,,,,,,,,,,,,,,,,,,,
,,,,,,,,,,,,a,Incorrect,0,31,31,75,1,t2.png,t3.png,1,0.90855,20,female,2020-08-06_11h59.37.834,torte-2b,2020.1.3,MacIntel,60,13396,1.183,,,,,,,,,,,,,,,,,,,,,,,,,,,,,,,,,,,,,,,,,,,,,,,,,,,,,,,,,,,,,,,,,
,,,,,,,,,,,,a,Correct!,0,32,32,4,1,t3.png,t2.png,1,0.90855,20,female,2020-08-06_11h59.37.834,torte-2b,2020.1.3,MacIntel,60,13396,1.408,,,,,,,,,,,,,,,,,,,,,,,,,,,,,,,,,,,,,,,,,,,,,,,,,,,,,,,,,,,,,,,,,
,,,,,,,,,,,,l,Incorrect,0,33,33,52,1,t2.png,t3.png,1,0.90855,20,female,2020-08-06_11h59.37.834,torte-2b,2020.1.3,MacIntel,60,13396,1.491,,,,,,,,,,,,,,,,,,,,,,,,,,,,,,,,,,,,,,,,,,,,,,,,,,,,,,,,,,,,,,,,,
,,,,,,,,,,,,l,Correct!,0,34,34,36,1,t1.png,t4.png,3,0.0000131,20,female,2020-08-06_11h59.37.834,torte-2b,2020.1.3,MacIntel,60,13396,1.308,,,,,,,,,,,,,,,,,,,,,,,,,,,,,,,,,,,,,,,,,,,,,,,,,,,,,,,,,,,,,,,,,
,,,,,,,,,,,,a,Correct!,0,35,35,42,1,t5.png,t5.png,0,0.97829,20,female,2020-08-06_11h59.37.834,torte-2b,2020.1.3,MacIntel,60,13396,0.831,,,,,,,,,,,,,,,,,,,,,,,,,,,,,,,,,,,,,,,,,,,,,,,,,,,,,,,,,,,,,,,,,
,,,,,,,,,,,,l,Incorrect,0,36,36,58,1,t4.png,t5.png,1,0.90025,20,female,2020-08-06_11h59.37.834,torte-2b,2020.1.3,MacIntel,60,13396,0.303,,,,,,,,,,,,,,,,,,,,,,,,,,,,,,,,,,,,,,,,,,,,,,,,,,,,,,,,,,,,,,,,,
,,,,,,,,,,,,l,Correct!,0,37,37,81,1,t3.png,t1.png,2,0.056466,20,female,2020-08-06_11h59.37.834,torte-2b,2020.1.3,MacIntel,60,13396,0.51,,,,,,,,,,,,,,,,,,,,,,,,,,,,,,,,,,,,,,,,,,,,,,,,,,,,,,,,,,,,,,,,,
,,,,,,,,,,,,a,Incorrect,0,38,38,96,1,t2.png,t4.png,2,0.059078,20,female,2020-08-06_11h59.37.834,torte-2b,2020.1.3,MacIntel,60,13396,0.658,,,,,,,,,,,,,,,,,,,,,,,,,,,,,,,,,,,,,,,,,,,,,,,,,,,,,,,,,,,,,,,,,
,,,,,,,,,,,,l,Correct!,0,39,39,117,1,t2.png,t4.png,2,0.059078,20,female,2020-08-06_11h59.37.834,torte-2b,2020.1.3,MacIntel,60,13396,1.299,,,,,,,,,,,,,,,,,,,,,,,,,,,,,,,,,,,,,,,,,,,,,,,,,,,,,,,,,,,,,,,,,
,,,,,,,,,,,,l,Correct!,0,40,40,50,1,t1.png,t5.png,4,9.55E-11,20,female,2020-08-06_11h59.37.834,torte-2b,2020.1.3,MacIntel,60,13396,0.4,,,,,,,,,,,,,,,,,,,,,,,,,,,,,,,,,,,,,,,,,,,,,,,,,,,,,,,,,,,,,,,,,
,,,,,,,,,,,,a,Incorrect,0,41,41,9,1,t1.png,t5.png,4,9.55E-11,20,female,2020-08-06_11h59.37.834,torte-2b,2020.1.3,MacIntel,60,13396,0.303,,,,,,,,,,,,,,,,,,,,,,,,,,,,,,,,,,,,,,,,,,,,,,,,,,,,,,,,,,,,,,,,,
,,,,,,,,,,,,a,Incorrect,0,42,42,99,1,t4.png,t1.png,3,0.059078,20,female,2020-08-06_11h59.37.834,torte-2b,2020.1.3,MacIntel,60,13396,0.421,,,,,,,,,,,,,,,,,,,,,,,,,,,,,,,,,,,,,,,,,,,,,,,,,,,,,,,,,,,,,,,,,
,,,,,,,,,,,,l,Incorrect,0,43,43,41,1,t4.png,t5.png,1,0.90025,20,female,2020-08-06_11h59.37.834,torte-2b,2020.1.3,MacIntel,60,13396,0.319,,,,,,,,,,,,,,,,,,,,,,,,,,,,,,,,,,,,,,,,,,,,,,,,,,,,,,,,,,,,,,,,,
,,,,,,,,,,,,a,Incorrect,0,44,44,64,1,t5.png,t1.png,4,9.55E-11,20,female,2020-08-06_11h59.37.834,torte-2b,2020.1.3,MacIntel,60,13396,0.296,,,,,,,,,,,,,,,,,,,,,,,,,,,,,,,,,,,,,,,,,,,,,,,,,,,,,,,,,,,,,,,,,
,,,,,,,,,,,,a,Correct!,0,45,45,80,1,t4.png,t1.png,3,0.059078,20,female,2020-08-06_11h59.37.834,torte-2b,2020.1.3,MacIntel,60,13396,0.661,,,,,,,,,,,,,,,,,,,,,,,,,,,,,,,,,,,,,,,,,,,,,,,,,,,,,,,,,,,,,,,,,
,,,,,,,,,,,,a,Incorrect,0,46,46,6,1,t5.png,t1.png,4,9.55E-11,20,female,2020-08-06_11h59.37.834,torte-2b,2020.1.3,MacIntel,60,13396,0.466,,,,,,,,,,,,,,,,,,,,,,,,,,,,,,,,,,,,,,,,,,,,,,,,,,,,,,,,,,,,,,,,,
,,,,,,,,,,,,l,Incorrect,0,47,47,46,1,t1.png,t1.png,0,0.97829,20,female,2020-08-06_11h59.37.834,torte-2b,2020.1.3,MacIntel,60,13396,1.066,,,,,,,,,,,,,,,,,,,,,,,,,,,,,,,,,,,,,,,,,,,,,,,,,,,,,,,,,,,,,,,,,
,,,,,,,,,,,,l,Incorrect,0,48,48,56,1,t2.png,t3.png,1,0.90855,20,female,2020-08-06_11h59.37.834,torte-2b,2020.1.3,MacIntel,60,13396,0.851,,,,,,,,,,,,,,,,,,,,,,,,,,,,,,,,,,,,,,,,,,,,,,,,,,,,,,,,,,,,,,,,,
,,,,,,,,,,,,l,Correct!,0,49,49,51,1,t4.png,t1.png,3,0.059078,20,female,2020-08-06_11h59.37.834,torte-2b,2020.1.3,MacIntel,60,13396,0.999,,,,,,,,,,,,,,,,,,,,,,,,,,,,,,,,,,,,,,,,,,,,,,,,,,,,,,,,,,,,,,,,,
,,,,,,,,,,,,l,Correct!,0,50,50,3,1,t4.png,t1.png,3,0.059078,20,female,2020-08-06_11h59.37.834,torte-2b,2020.1.3,MacIntel,60,13396,0.54,,,,,,,,,,,,,,,,,,,,,,,,,,,,,,,,,,,,,,,,,,,,,,,,,,,,,,,,,,,,,,,,,
,,,,,,,,,,,,l,Correct!,0,51,51,57,1,t3.png,t1.png,2,0.056466,20,female,2020-08-06_11h59.37.834,torte-2b,2020.1.3,MacIntel,60,13396,0.458,,,,,,,,,,,,,,,,,,,,,,,,,,,,,,,,,,,,,,,,,,,,,,,,,,,,,,,,,,,,,,,,,
,,,,,,,,,,,,a,Correct!,0,52,52,30,1,t2.png,t3.png,1,0.90855,20,female,2020-08-06_11h59.37.834,torte-2b,2020.1.3,MacIntel,60,13396,1.085,,,,,,,,,,,,,,,,,,,,,,,,,,,,,,,,,,,,,,,,,,,,,,,,,,,,,,,,,,,,,,,,,
,,,,,,,,,,,,a,Incorrect,0,53,53,34,1,t1.png,t5.png,4,9.55E-11,20,female,2020-08-06_11h59.37.834,torte-2b,2020.1.3,MacIntel,60,13396,1.35,,,,,,,,,,,,,,,,,,,,,,,,,,,,,,,,,,,,,,,,,,,,,,,,,,,,,,,,,,,,,,,,,
,,,,,,,,,,,,l,Correct!,0,54,54,54,1,t3.png,t1.png,2,0.056466,20,female,2020-08-06_11h59.37.834,torte-2b,2020.1.3,MacIntel,60,13396,0.794,,,,,,,,,,,,,,,,,,,,,,,,,,,,,,,,,,,,,,,,,,,,,,,,,,,,,,,,,,,,,,,,,
,,,,,,,,,,,,l,Correct!,0,55,55,76,1,t4.png,t1.png,3,0.059078,20,female,2020-08-06_11h59.37.834,torte-2b,2020.1.3,MacIntel,60,13396,0.684,,,,,,,,,,,,,,,,,,,,,,,,,,,,,,,,,,,,,,,,,,,,,,,,,,,,,,,,,,,,,,,,,
,,,,,,,,,,,,l,Correct!,0,56,56,17,1,t4.png,t1.png,3,0.059078,20,female,2020-08-06_11h59.37.834,torte-2b,2020.1.3,MacIntel,60,13396,0.724,,,,,,,,,,,,,,,,,,,,,,,,,,,,,,,,,,,,,,,,,,,,,,,,,,,,,,,,,,,,,,,,,
,,,,,,,,,,,,a,Correct!,0,57,57,29,1,t3.png,t2.png,1,0.90855,20,female,2020-08-06_11h59.37.834,torte-2b,2020.1.3,MacIntel,60,13396,1.422,,,,,,,,,,,,,,,,,,,,,,,,,,,,,,,,,,,,,,,,,,,,,,,,,,,,,,,,,,,,,,,,,
,,,,,,,,,,,,l,Correct!,0,58,58,82,1,t3.png,t1.png,2,0.056466,20,female,2020-08-06_11h59.37.834,torte-2b,2020.1.3,MacIntel,60,13396,1.048,,,,,,,,,,,,,,,,,,,,,,,,,,,,,,,,,,,,,,,,,,,,,,,,,,,,,,,,,,,,,,,,,
,,,,,,,,,,,,l,Correct!,0,59,59,40,1,t2.png,t4.png,2,0.059078,20,female,2020-08-06_11h59.37.834,torte-2b,2020.1.3,MacIntel,60,13396,1.648,,,,,,,,,,,,,,,,,,,,,,,,,,,,,,,,,,,,,,,,,,,,,,,,,,,,,,,,,,,,,,,,,
,,,,,,,,,,,,l,Incorrect,0,60,60,22,1,t5.png,t5.png,0,0.97829,20,female,2020-08-06_11h59.37.834,torte-2b,2020.1.3,MacIntel,60,13396,1.401,,,,,,,,,,,,,,,,,,,,,,,,,,,,,,,,,,,,,,,,,,,,,,,,,,,,,,,,,,,,,,,,,
,,,,,,,,,,,,l,Incorrect,0,61,61,33,1,t3.png,t2.png,1,0.90855,20,female,2020-08-06_11h59.37.834,torte-2b,2020.1.3,MacIntel,60,13396,1.082,,,,,,,,,,,,,,,,,,,,,,,,,,,,,,,,,,,,,,,,,,,,,,,,,,,,,,,,,,,,,,,,,
,,,,,,,,,,,,l,Incorrect,0,62,62,47,1,t2.png,t3.png,1,0.90855,20,female,2020-08-06_11h59.37.834,torte-2b,2020.1.3,MacIntel,60,13396,1.932,,,,,,,,,,,,,,,,,,,,,,,,,,,,,,,,,,,,,,,,,,,,,,,,,,,,,,,,,,,,,,,,,
,,,,,,,,,,,,l,Incorrect,0,63,63,7,1,t3.png,t2.png,1,0.90855,20,female,2020-08-06_11h59.37.834,torte-2b,2020.1.3,MacIntel,60,13396,1.04,,,,,,,,,,,,,,,,,,,,,,,,,,,,,,,,,,,,,,,,,,,,,,,,,,,,,,,,,,,,,,,,,
,,,,,,,,,,,,a,Incorrect,0,64,64,44,1,t1.png,t4.png,3,0.0000131,20,female,2020-08-06_11h59.37.834,torte-2b,2020.1.3,MacIntel,60,13396,1.822,,,,,,,,,,,,,,,,,,,,,,,,,,,,,,,,,,,,,,,,,,,,,,,,,,,,,,,,,,,,,,,,,
,,,,,,,,,,,,l,Correct!,0,65,65,2,1,t3.png,t1.png,2,0.056466,20,female,2020-08-06_11h59.37.834,torte-2b,2020.1.3,MacIntel,60,13396,0.732,,,,,,,,,,,,,,,,,,,,,,,,,,,,,,,,,,,,,,,,,,,,,,,,,,,,,,,,,,,,,,,,,
,,,,,,,,,,,,a,Correct!,0,66,66,8,1,t5.png,t5.png,0,0.97829,20,female,2020-08-06_11h59.37.834,torte-2b,2020.1.3,MacIntel,60,13396,1.534,,,,,,,,,,,,,,,,,,,,,,,,,,,,,,,,,,,,,,,,,,,,,,,,,,,,,,,,,,,,,,,,,
,,,,,,,,,,,,a,Correct!,0,67,67,83,1,t3.png,t2.png,1,0.90855,20,female,2020-08-06_11h59.37.834,torte-2b,2020.1.3,MacIntel,60,13396,1.182,,,,,,,,,,,,,,,,,,,,,,,,,,,,,,,,,,,,,,,,,,,,,,,,,,,,,,,,,,,,,,,,,
,,,,,,,,,,,,l,Correct!,0,68,68,79,1,t1.png,t4.png,3,0.0000131,20,female,2020-08-06_11h59.37.834,torte-2b,2020.1.3,MacIntel,60,13396,1.467,,,,,,,,,,,,,,,,,,,,,,,,,,,,,,,,,,,,,,,,,,,,,,,,,,,,,,,,,,,,,,,,,
,,,,,,,,,,,,a,Correct!,0,69,69,38,1,t1.png,t1.png,0,0.97829,20,female,2020-08-06_11h59.37.834,torte-2b,2020.1.3,MacIntel,60,13396,1.697,,,,,,,,,,,,,,,,,,,,,,,,,,,,,,,,,,,,,,,,,,,,,,,,,,,,,,,,,,,,,,,,,
,,,,,,,,,,,,l,Correct!,0,70,70,107,1,t1.png,t4.png,3,0.0000131,20,female,2020-08-06_11h59.37.834,torte-2b,2020.1.3,MacIntel,60,13396,0.868,,,,,,,,,,,,,,,,,,,,,,,,,,,,,,,,,,,,,,,,,,,,,,,,,,,,,,,,,,,,,,,,,
,,,,,,,,,,,,l,Correct!,0,71,71,26,1,t1.png,t5.png,4,9.55E-11,20,female,2020-08-06_11h59.37.834,torte-2b,2020.1.3,MacIntel,60,13396,1.036,,,,,,,,,,,,,,,,,,,,,,,,,,,,,,,,,,,,,,,,,,,,,,,,,,,,,,,,,,,,,,,,,
,,,,,,,,,,,,l,Incorrect,0,72,72,101,1,t5.png,t4.png,1,0.90025,20,female,2020-08-06_11h59.37.834,torte-2b,2020.1.3,MacIntel,60,13396,1.673,,,,,,,,,,,,,,,,,,,,,,,,,,,,,,,,,,,,,,,,,,,,,,,,,,,,,,,,,,,,,,,,,
,,,,,,,,,,,,a,Correct!,0,73,73,23,1,t4.png,t5.png,1,0.90025,20,female,2020-08-06_11h59.37.834,torte-2b,2020.1.3,MacIntel,60,13396,1.428,,,,,,,,,,,,,,,,,,,,,,,,,,,,,,,,,,,,,,,,,,,,,,,,,,,,,,,,,,,,,,,,,
,,,,,,,,,,,,l,Correct!,0,74,74,10,1,t4.png,t1.png,3,0.059078,20,female,2020-08-06_11h59.37.834,torte-2b,2020.1.3,MacIntel,60,13396,0.8,,,,,,,,,,,,,,,,,,,,,,,,,,,,,,,,,,,,,,,,,,,,,,,,,,,,,,,,,,,,,,,,,
,,,,,,,,,,,,l,Correct!,0,75,75,87,1,t5.png,t1.png,4,9.55E-11,20,female,2020-08-06_11h59.37.834,torte-2b,2020.1.3,MacIntel,60,13396,0.743,,,,,,,,,,,,,,,,,,,,,,,,,,,,,,,,,,,,,,,,,,,,,,,,,,,,,,,,,,,,,,,,,
,,,,,,,,,,,,l,Incorrect,0,76,76,86,1,t5.png,t4.png,1,0.90025,20,female,2020-08-06_11h59.37.834,torte-2b,2020.1.3,MacIntel,60,13396,1.416,,,,,,,,,,,,,,,,,,,,,,,,,,,,,,,,,,,,,,,,,,,,,,,,,,,,,,,,,,,,,,,,,
,,,,,,,,,,,,l,Incorrect,0,77,77,0,1,t3.png,t2.png,1,0.90855,20,female,2020-08-06_11h59.37.834,torte-2b,2020.1.3,MacIntel,60,13396,0.817,,,,,,,,,,,,,,,,,,,,,,,,,,,,,,,,,,,,,,,,,,,,,,,,,,,,,,,,,,,,,,,,,
,,,,,,,,,,,,l,Incorrect,0,78,78,93,1,t5.png,t4.png,1,0.90025,20,female,2020-08-06_11h59.37.834,torte-2b,2020.1.3,MacIntel,60,13396,1.594,,,,,,,,,,,,,,,,,,,,,,,,,,,,,,,,,,,,,,,,,,,,,,,,,,,,,,,,,,,,,,,,,
,,,,,,,,,,,,a,Correct!,0,79,79,112,1,t5.png,t4.png,1,0.90025,20,female,2020-08-06_11h59.37.834,torte-2b,2020.1.3,MacIntel,60,13396,1.583,,,,,,,,,,,,,,,,,,,,,,,,,,,,,,,,,,,,,,,,,,,,,,,,,,,,,,,,,,,,,,,,,
,,,,,,,,,,,,l,Correct!,0,80,80,98,1,t5.png,t1.png,4,9.55E-11,20,female,2020-08-06_11h59.37.834,torte-2b,2020.1.3,MacIntel,60,13396,0.793,,,,,,,,,,,,,,,,,,,,,,,,,,,,,,,,,,,,,,,,,,,,,,,,,,,,,,,,,,,,,,,,,
,,,,,,,,,,,,l,Correct!,0,81,81,78,1,t1.png,t4.png,3,0.0000131,20,female,2020-08-06_11h59.37.834,torte-2b,2020.1.3,MacIntel,60,13396,1.803,,,,,,,,,,,,,,,,,,,,,,,,,,,,,,,,,,,,,,,,,,,,,,,,,,,,,,,,,,,,,,,,,
,,,,,,,,,,,,l,Correct!,0,82,82,108,1,t3.png,t1.png,2,0.056466,20,female,2020-08-06_11h59.37.834,torte-2b,2020.1.3,MacIntel,60,13396,0.782,,,,,,,,,,,,,,,,,,,,,,,,,,,,,,,,,,,,,,,,,,,,,,,,,,,,,,,,,,,,,,,,,
,,,,,,,,,,,,a,Correct!,0,83,83,110,1,t4.png,t5.png,1,0.90025,20,female,2020-08-06_11h59.37.834,torte-2b,2020.1.3,MacIntel,60,13396,1.464,,,,,,,,,,,,,,,,,,,,,,,,,,,,,,,,,,,,,,,,,,,,,,,,,,,,,,,,,,,,,,,,,
,,,,,,,,,,,,l,Correct!,0,84,84,13,1,t2.png,t4.png,2,0.059078,20,female,2020-08-06_11h59.37.834,torte-2b,2020.1.3,MacIntel,60,13396,1.436,,,,,,,,,,,,,,,,,,,,,,,,,,,,,,,,,,,,,,,,,,,,,,,,,,,,,,,,,,,,,,,,,
,,,,,,,,,,,,l,Correct!,0,85,85,70,1,t1.png,t5.png,4,9.55E-11,20,female,2020-08-06_11h59.37.834,torte-2b,2020.1.3,MacIntel,60,13396,2.235,,,,,,,,,,,,,,,,,,,,,,,,,,,,,,,,,,,,,,,,,,,,,,,,,,,,,,,,,,,,,,,,,
,,,,,,,,,,,,a,Correct!,0,86,86,65,1,t5.png,t5.png,0,0.97829,20,female,2020-08-06_11h59.37.834,torte-2b,2020.1.3,MacIntel,60,13396,1.267,,,,,,,,,,,,,,,,,,,,,,,,,,,,,,,,,,,,,,,,,,,,,,,,,,,,,,,,,,,,,,,,,
,,,,,,,,,,,,a,Correct!,0,87,87,72,1,t5.png,t5.png,0,0.97829,20,female,2020-08-06_11h59.37.834,torte-2b,2020.1.3,MacIntel,60,13396,0.812,,,,,,,,,,,,,,,,,,,,,,,,,,,,,,,,,,,,,,,,,,,,,,,,,,,,,,,,,,,,,,,,,
,,,,,,,,,,,,a,Correct!,0,88,88,12,1,t5.png,t5.png,0,0.97829,20,female,2020-08-06_11h59.37.834,torte-2b,2020.1.3,MacIntel,60,13396,0.687,,,,,,,,,,,,,,,,,,,,,,,,,,,,,,,,,,,,,,,,,,,,,,,,,,,,,,,,,,,,,,,,,
,,,,,,,,,,,,l,Correct!,0,89,89,113,1,t5.png,t1.png,4,9.55E-11,20,female,2020-08-06_11h59.37.834,torte-2b,2020.1.3,MacIntel,60,13396,0.911,,,,,,,,,,,,,,,,,,,,,,,,,,,,,,,,,,,,,,,,,,,,,,,,,,,,,,,,,,,,,,,,,
,,,,,,,,,,,,a,Incorrect,0,90,90,19,1,t2.png,t4.png,2,0.059078,20,female,2020-08-06_11h59.37.834,torte-2b,2020.1.3,MacIntel,60,13396,1.394,,,,,,,,,,,,,,,,,,,,,,,,,,,,,,,,,,,,,,,,,,,,,,,,,,,,,,,,,,,,,,,,,
,,,,,,,,,,,,a,Correct!,0,91,91,18,1,t2.png,t3.png,1,0.90855,20,female,2020-08-06_11h59.37.834,torte-2b,2020.1.3,MacIntel,60,13396,1.573,,,,,,,,,,,,,,,,,,,,,,,,,,,,,,,,,,,,,,,,,,,,,,,,,,,,,,,,,,,,,,,,,
,,,,,,,,,,,,a,Correct!,0,92,92,111,1,t1.png,t1.png,0,0.97829,20,female,2020-08-06_11h59.37.834,torte-2b,2020.1.3,MacIntel,60,13396,1.115,,,,,,,,,,,,,,,,,,,,,,,,,,,,,,,,,,,,,,,,,,,,,,,,,,,,,,,,,,,,,,,,,
,,,,,,,,,,,,a,Correct!,0,93,93,84,1,t2.png,t3.png,1,0.90855,20,female,2020-08-06_11h59.37.834,torte-2b,2020.1.3,MacIntel,60,13396,1.19,,,,,,,,,,,,,,,,,,,,,,,,,,,,,,,,,,,,,,,,,,,,,,,,,,,,,,,,,,,,,,,,,
,,,,,,,,,,,,l,Correct!,0,94,94,106,1,t4.png,t1.png,3,0.059078,20,female,2020-08-06_11h59.37.834,torte-2b,2020.1.3,MacIntel,60,13396,0.693,,,,,,,,,,,,,,,,,,,,,,,,,,,,,,,,,,,,,,,,,,,,,,,,,,,,,,,,,,,,,,,,,
,,,,,,,,,,,,a,Correct!,0,95,95,104,1,t4.png,t5.png,1,0.90025,20,female,2020-08-06_11h59.37.834,torte-2b,2020.1.3,MacIntel,60,13396,1.426,,,,,,,,,,,,,,,,,,,,,,,,,,,,,,,,,,,,,,,,,,,,,,,,,,,,,,,,,,,,,,,,,
,,,,,,,,,,,,a,Correct!,0,96,96,20,1,t5.png,t5.png,0,0.97829,20,female,2020-08-06_11h59.37.834,torte-2b,2020.1.3,MacIntel,60,13396,1.002,,,,,,,,,,,,,,,,,,,,,,,,,,,,,,,,,,,,,,,,,,,,,,,,,,,,,,,,,,,,,,,,,
,,,,,,,,,,,,a,Correct!,0,97,97,15,1,t2.png,t3.png,1,0.90855,20,female,2020-08-06_11h59.37.834,torte-2b,2020.1.3,MacIntel,60,13396,1.251,,,,,,,,,,,,,,,,,,,,,,,,,,,,,,,,,,,,,,,,,,,,,,,,,,,,,,,,,,,,,,,,,
,,,,,,,,,,,,l,Incorrect,0,98,98,67,1,t3.png,t2.png,1,0.90855,20,female,2020-08-06_11h59.37.834,torte-2b,2020.1.3,MacIntel,60,13396,1.359,,,,,,,,,,,,,,,,,,,,,,,,,,,,,,,,,,,,,,,,,,,,,,,,,,,,,,,,,,,,,,,,,
,,,,,,,,,,,,a,Incorrect,0,99,99,39,1,t2.png,t4.png,2,0.059078,20,female,2020-08-06_11h59.37.834,torte-2b,2020.1.3,MacIntel,60,13396,1.8,,,,,,,,,,,,,,,,,,,,,,,,,,,,,,,,,,,,,,,,,,,,,,,,,,,,,,,,,,,,,,,,,
,,,,,,,,,,,,l,Incorrect,0,100,100,31,1,t1.png,t1.png,0,0.97829,20,female,2020-08-06_11h59.37.834,torte-2b,2020.1.3,MacIntel,60,13396,0.666,,,,,,,,,,,,,,,,,,,,,,,,,,,,,,,,,,,,,,,,,,,,,,,,,,,,,,,,,,,,,,,,,
,,,,,,,,,,,,a,Incorrect,0,101,101,102,1,t2.png,t4.png,2,0.059078,20,female,2020-08-06_11h59.37.834,torte-2b,2020.1.3,MacIntel,60,13396,1.004,,,,,,,,,,,,,,,,,,,,,,,,,,,,,,,,,,,,,,,,,,,,,,,,,,,,,,,,,,,,,,,,,
,,,,,,,,,,,,a,Correct!,0,102,102,114,1,t5.png,t4.png,1,0.90025,20,female,2020-08-06_11h59.37.834,torte-2b,2020.1.3,MacIntel,60,13396,1.723,,,,,,,,,,,,,,,,,,,,,,,,,,,,,,,,,,,,,,,,,,,,,,,,,,,,,,,,,,,,,,,,,
,,,,,,,,,,,,a,Incorrect,0,103,103,27,1,t1.png,t5.png,4,9.55E-11,20,female,2020-08-06_11h59.37.834,torte-2b,2020.1.3,MacIntel,60,13396,1.1,,,,,,,,,,,,,,,,,,,,,,,,,,,,,,,,,,,,,,,,,,,,,,,,,,,,,,,,,,,,,,,,,
,,,,,,,,,,,,a,Correct!,0,104,104,24,1,t5.png,t5.png,0,0.97829,20,female,2020-08-06_11h59.37.834,torte-2b,2020.1.3,MacIntel,60,13396,0.872,,,,,,,,,,,,,,,,,,,,,,,,,,,,,,,,,,,,,,,,,,,,,,,,,,,,,,,,,,,,,,,,,
,,,,,,,,,,,,a,Correct!,0,105,105,90,1,t4.png,t5.png,1,0.90025,20,female,2020-08-06_11h59.37.834,torte-2b,2020.1.3,MacIntel,60,13396,1.21,,,,,,,,,,,,,,,,,,,,,,,,,,,,,,,,,,,,,,,,,,,,,,,,,,,,,,,,,,,,,,,,,
,,,,,,,,,,,,a,Correct!,0,106,106,61,1,t1.png,t1.png,0,0.97829,20,female,2020-08-06_11h59.37.834,torte-2b,2020.1.3,MacIntel,60,13396,1.705,,,,,,,,,,,,,,,,,,,,,,,,,,,,,,,,,,,,,,,,,,,,,,,,,,,,,,,,,,,,,,,,,
,,,,,,,,,,,,l,Correct!,0,107,107,68,1,t2.png,t4.png,2,0.059078,20,female,2020-08-06_11h59.37.834,torte-2b,2020.1.3,MacIntel,60,13396,1.393,,,,,,,,,,,,,,,,,,,,,,,,,,,,,,,,,,,,,,,,,,,,,,,,,,,,,,,,,,,,,,,,,
,,,,,,,,,,,,a,Correct!,0,108,108,60,1,t4.png,t5.png,1,0.90025,20,female,2020-08-06_11h59.37.834,torte-2b,2020.1.3,MacIntel,60,13396,1.473,,,,,,,,,,,,,,,,,,,,,,,,,,,,,,,,,,,,,,,,,,,,,,,,,,,,,,,,,,,,,,,,,
,,,,,,,,,,,,a,Correct!,0,109,109,48,1,t2.png,t3.png,1,0.90855,20,female,2020-08-06_11h59.37.834,torte-2b,2020.1.3,MacIntel,60,13396,1.783,,,,,,,,,,,,,,,,,,,,,,,,,,,,,,,,,,,,,,,,,,,,,,,,,,,,,,,,,,,,,,,,,
,,,,,,,,,,,,l,Incorrect,0,110,110,32,1,t3.png,t2.png,1,0.90855,20,female,2020-08-06_11h59.37.834,torte-2b,2020.1.3,MacIntel,60,13396,1.266,,,,,,,,,,,,,,,,,,,,,,,,,,,,,,,,,,,,,,,,,,,,,,,,,,,,,,,,,,,,,,,,,
,,,,,,,,,,,,a,Incorrect,0,111,111,16,1,t1.png,t5.png,4,9.55E-11,20,female,2020-08-06_11h59.37.834,torte-2b,2020.1.3,MacIntel,60,13396,0.898,,,,,,,,,,,,,,,,,,,,,,,,,,,,,,,,,,,,,,,,,,,,,,,,,,,,,,,,,,,,,,,,,
,,,,,,,,,,,,l,Correct!,0,112,112,43,1,t3.png,t1.png,2,0.056466,20,female,2020-08-06_11h59.37.834,torte-2b,2020.1.3,MacIntel,60,13396,0.784,,,,,,,,,,,,,,,,,,,,,,,,,,,,,,,,,,,,,,,,,,,,,,,,,,,,,,,,,,,,,,,,,
,,,,,,,,,,,,a,Correct!,0,113,113,25,1,t1.png,t1.png,0,0.97829,20,female,2020-08-06_11h59.37.834,torte-2b,2020.1.3,MacIntel,60,13396,0.762,,,,,,,,,,,,,,,,,,,,,,,,,,,,,,,,,,,,,,,,,,,,,,,,,,,,,,,,,,,,,,,,,
,,,,,,,,,,,,l,Correct!,0,114,114,66,1,t5.png,t1.png,4,9.55E-11,20,female,2020-08-06_11h59.37.834,torte-2b,2020.1.3,MacIntel,60,13396,0.874,,,,,,,,,,,,,,,,,,,,,,,,,,,,,,,,,,,,,,,,,,,,,,,,,,,,,,,,,,,,,,,,,
,,,,,,,,,,,,l,Incorrect,0,115,115,69,1,t5.png,t4.png,1,0.90025,20,female,2020-08-06_11h59.37.834,torte-2b,2020.1.3,MacIntel,60,13396,1.558,,,,,,,,,,,,,,,,,,,,,,,,,,,,,,,,,,,,,,,,,,,,,,,,,,,,,,,,,,,,,,,,,
,,,,,,,,,,,,l,Correct!,0,116,116,105,1,t4.png,t1.png,3,0.059078,20,female,2020-08-06_11h59.37.834,torte-2b,2020.1.3,MacIntel,60,13396,0.743,,,,,,,,,,,,,,,,,,,,,,,,,,,,,,,,,,,,,,,,,,,,,,,,,,,,,,,,,,,,,,,,,
,,,,,,,,,,,,l,Incorrect,0,117,117,77,1,t3.png,t2.png,1,0.90855,20,female,2020-08-06_11h59.37.834,torte-2b,2020.1.3,MacIntel,60,13396,1.326,,,,,,,,,,,,,,,,,,,,,,,,,,,,,,,,,,,,,,,,,,,,,,,,,,,,,,,,,,,,,,,,,
,,,,,,,,,,,,a,Correct!,0,118,118,116,1,t4.png,t5.png,1,0.90025,20,female,2020-08-06_11h59.37.834,torte-2b,2020.1.3,MacIntel,60,13396,1.017,,,,,,,,,,,,,,,,,,,,,,,,,,,,,,,,,,,,,,,,,,,,,,,,,,,,,,,,,,,,,,,,,
,,,,,,,,,,,,a,Correct!,0,119,119,88,1,t1.png,t1.png,0,0.97829,20,female,2020-08-06_11h59.37.834,torte-2b,2020.1.3,MacIntel,60,13396,0.787,,,,,,,,,,,,,,,,,,,,,,,,,,,,,,,,,,,,,,,,,,,,,,,,,,,,,,,,,,,,,,,,,
,,,,,,,,,,,,a,Incorrect,,,,,,t3.png,t5.png,2,0.056466,20,female,2020-08-06_11h59.37.834,torte-2b,2020.1.3,MacIntel,60,13396,1.356,space,1.729,space,19.411,0,0,0,60,1,,,,,,,,,,,,,,,,,,,,,,,,,,,,,,,,,,,,,,,,,,,,,,,,,,,,,,,,
,,,,,,,,,,,,l,Correct!,,,,,,t1.png,t3.png,2,0.056466,20,female,2020-08-06_11h59.37.834,torte-2b,2020.1.3,MacIntel,60,13396,1.619,,,,,0,1,1,32,1,,,,,,,,,,,,,,,,,,,,,,,,,,,,,,,,,,,,,,,,,,,,,,,,,,,,,,,,
,,,,,,,,,,,,a,Correct!,,,,,,t1.png,t1.png,0,0.97829,20,female,2020-08-06_11h59.37.834,torte-2b,2020.1.3,MacIntel,60,13396,1.401,,,,,0,2,2,114,1,,,,,,,,,,,,,,,,,,,,,,,,,,,,,,,,,,,,,,,,,,,,,,,,,,,,,,,,
,,,,,,,,,,,,l,Correct!,,,,,,t4.png,t1.png,3,0.059078,20,female,2020-08-06_11h59.37.834,torte-2b,2020.1.3,MacIntel,60,13396,0.961,,,,,0,3,3,73,1,,,,,,,,,,,,,,,,,,,,,,,,,,,,,,,,,,,,,,,,,,,,,,,,,,,,,,,,
,,,,,,,,,,,,l,Correct!,,,,,,t1.png,t5.png,4,9.55E-11,20,female,2020-08-06_11h59.37.834,torte-2b,2020.1.3,MacIntel,60,13396,1.353,,,,,0,4,4,1,1,,,,,,,,,,,,,,,,,,,,,,,,,,,,,,,,,,,,,,,,,,,,,,,,,,,,,,,,
,,,,,,,,,,,,l,Incorrect,,,,,,t2.png,t3.png,1,0.90855,20,female,2020-08-06_11h59.37.834,torte-2b,2020.1.3,MacIntel,60,13396,1.793,,,,,0,5,5,113,1,,,,,,,,,,,,,,,,,,,,,,,,,,,,,,,,,,,,,,,,,,,,,,,,,,,,,,,,
,,,,,,,,,,,,l,Incorrect,,,,,,t1.png,t2.png,1,0.90025,20,female,2020-08-06_11h59.37.834,torte-2b,2020.1.3,MacIntel,60,13396,1.636,,,,,0,6,6,6,1,,,,,,,,,,,,,,,,,,,,,,,,,,,,,,,,,,,,,,,,,,,,,,,,,,,,,,,,
,,,,,,,,,,,,l,Correct!,,,,,,t2.png,t4.png,2,0.059078,20,female,2020-08-06_11h59.37.834,torte-2b,2020.1.3,MacIntel,60,13396,1.166,,,,,0,7,7,53,1,,,,,,,,,,,,,,,,,,,,,,,,,,,,,,,,,,,,,,,,,,,,,,,,,,,,,,,,
,,,,,,,,,,,,l,Correct!,,,,,,t1.png,t3.png,2,0.056466,20,female,2020-08-06_11h59.37.834,torte-2b,2020.1.3,MacIntel,60,13396,1.193,,,,,0,8,8,24,1,,,,,,,,,,,,,,,,,,,,,,,,,,,,,,,,,,,,,,,,,,,,,,,,,,,,,,,,
,,,,,,,,,,,,l,Incorrect,,,,,,t2.png,t3.png,1,0.909,20,female,2020-08-06_11h59.37.834,torte-2b,2020.1.3,MacIntel,60,13396,1.162,,,,,0,9,9,8,1,,,,,,,,,,,,,,,,,,,,,,,,,,,,,,,,,,,,,,,,,,,,,,,,,,,,,,,,
,,,,,,,,,,,,l,Incorrect,,,,,,t3.png,t4.png,1,0.90855,20,female,2020-08-06_11h59.37.834,torte-2b,2020.1.3,MacIntel,60,13396,1.563,,,,,0,10,10,103,1,,,,,,,,,,,,,,,,,,,,,,,,,,,,,,,,,,,,,,,,,,,,,,,,,,,,,,,,
,,,,,,,,,,,,l,Correct!,,,,,,t2.png,t5.png,3,0.0000131,20,female,2020-08-06_11h59.37.834,torte-2b,2020.1.3,MacIntel,60,13396,1.748,,,,,0,11,11,39,1,,,,,,,,,,,,,,,,,,,,,,,,,,,,,,,,,,,,,,,,,,,,,,,,,,,,,,,,
,,,,,,,,,,,,a,Incorrect,,,,,,t5.png,t3.png,2,0.056466,20,female,2020-08-06_11h59.37.834,torte-2b,2020.1.3,MacIntel,60,13396,1.003,,,,,0,12,12,26,1,,,,,,,,,,,,,,,,,,,,,,,,,,,,,,,,,,,,,,,,,,,,,,,,,,,,,,,,
,,,,,,,,,,,,l,Correct!,,,,,,t3.png,t1.png,2,0.056466,20,female,2020-08-06_11h59.37.834,torte-2b,2020.1.3,MacIntel,60,13396,0.854,,,,,0,13,13,34,1,,,,,,,,,,,,,,,,,,,,,,,,,,,,,,,,,,,,,,,,,,,,,,,,,,,,,,,,
,,,,,,,,,,,,a,Correct!,,,,,,t1.png,t1.png,0,0.978,20,female,2020-08-06_11h59.37.834,torte-2b,2020.1.3,MacIntel,60,13396,0.91,,,,,0,14,14,13,1,,,,,,,,,,,,,,,,,,,,,,,,,,,,,,,,,,,,,,,,,,,,,,,,,,,,,,,,
,,,,,,,,,,,,l,Correct!,,,,,,t3.png,t1.png,2,0.0565,20,female,2020-08-06_11h59.37.834,torte-2b,2020.1.3,MacIntel,60,13396,1.335,,,,,0,15,15,104,1,,,,,,,,,,,,,,,,,,,,,,,,,,,,,,,,,,,,,,,,,,,,,,,,,,,,,,,,
,,,,,,,,,,,,l,Incorrect,,,,,,t1.png,t2.png,1,0.9,20,female,2020-08-06_11h59.37.834,torte-2b,2020.1.3,MacIntel,60,13396,1.265,,,,,0,16,16,17,1,,,,,,,,,,,,,,,,,,,,,,,,,,,,,,,,,,,,,,,,,,,,,,,,,,,,,,,,
,,,,,,,,,,,,l,Correct!,,,,,,t3.png,t5.png,2,0.0565,20,female,2020-08-06_11h59.37.834,torte-2b,2020.1.3,MacIntel,60,13396,0.956,,,,,0,17,17,71,1,,,,,,,,,,,,,,,,,,,,,,,,,,,,,,,,,,,,,,,,,,,,,,,,,,,,,,,,
,,,,,,,,,,,,l,Correct!,,,,,,t1.png,t3.png,2,0.0565,20,female,2020-08-06_11h59.37.834,torte-2b,2020.1.3,MacIntel,60,13396,1.007,,,,,0,18,18,95,1,,,,,,,,,,,,,,,,,,,,,,,,,,,,,,,,,,,,,,,,,,,,,,,,,,,,,,,,
,,,,,,,,,,,,a,Correct!,,,,,,t1.png,t1.png,0,0.978,20,female,2020-08-06_11h59.37.834,torte-2b,2020.1.3,MacIntel,60,13396,0.907,,,,,0,19,19,22,1,,,,,,,,,,,,,,,,,,,,,,,,,,,,,,,,,,,,,,,,,,,,,,,,,,,,,,,,
,,,,,,,,,,,,a,Incorrect,,,,,,t5.png,t3.png,2,0.056466,20,female,2020-08-06_11h59.37.834,torte-2b,2020.1.3,MacIntel,60,13396,1.045,,,,,0,20,20,27,1,,,,,,,,,,,,,,,,,,,,,,,,,,,,,,,,,,,,,,,,,,,,,,,,,,,,,,,,
,,,,,,,,,,,,a,Incorrect,,,,,,t5.png,t2.png,3,0.0000131,20,female,2020-08-06_11h59.37.834,torte-2b,2020.1.3,MacIntel,60,13396,0.574,,,,,0,21,21,48,1,,,,,,,,,,,,,,,,,,,,,,,,,,,,,,,,,,,,,,,,,,,,,,,,,,,,,,,,
,,,,,,,,,,,,l,Correct!,,,,,,t1.png,t4.png,3,0.0000131,20,female,2020-08-06_11h59.37.834,torte-2b,2020.1.3,MacIntel,60,13396,1.224,,,,,0,22,22,23,1,,,,,,,,,,,,,,,,,,,,,,,,,,,,,,,,,,,,,,,,,,,,,,,,,,,,,,,,
,,,,,,,,,,,,a,Incorrect,,,,,,t5.png,t4.png,1,0.90025,20,female,2020-08-06_11h59.37.834,torte-2b,2020.1.3,MacIntel,60,13396,1.194,,,,,0,23,23,14,1,,,,,,,,,,,,,,,,,,,,,,,,,,,,,,,,,,,,,,,,,,,,,,,,,,,,,,,,
,,,,,,,,,,,,l,Incorrect,,,,,,t2.png,t3.png,1,0.90855,20,female,2020-08-06_11h59.37.834,torte-2b,2020.1.3,MacIntel,60,13396,0.841,,,,,0,24,24,64,1,,,,,,,,,,,,,,,,,,,,,,,,,,,,,,,,,,,,,,,,,,,,,,,,,,,,,,,,
,,,,,,,,,,,,l,Incorrect,,,,,,t1.png,t2.png,1,0.9,20,female,2020-08-06_11h59.37.834,torte-2b,2020.1.3,MacIntel,60,13396,1.686,,,,,0,25,25,61,1,,,,,,,,,,,,,,,,,,,,,,,,,,,,,,,,,,,,,,,,,,,,,,,,,,,,,,,,
,,,,,,,,,,,,l,Incorrect,,,,,,t3.png,t2.png,1,0.90855,20,female,2020-08-06_11h59.37.834,torte-2b,2020.1.3,MacIntel,60,13396,0.692,,,,,0,26,26,99,1,,,,,,,,,,,,,,,,,,,,,,,,,,,,,,,,,,,,,,,,,,,,,,,,,,,,,,,,
,,,,,,,,,,,,a,Correct!,,,,,,t5.png,t5.png,0,0.978,20,female,2020-08-06_11h59.37.834,torte-2b,2020.1.3,MacIntel,60,13396,0.963,,,,,0,27,27,51,1,,,,,,,,,,,,,,,,,,,,,,,,,,,,,,,,,,,,,,,,,,,,,,,,,,,,,,,,
,,,,,,,,,,,,l,Correct!,,,,,,t3.png,t1.png,2,0.056466,20,female,2020-08-06_11h59.37.834,torte-2b,2020.1.3,MacIntel,60,13396,0.77,,,,,0,28,28,109,1,,,,,,,,,,,,,,,,,,,,,,,,,,,,,,,,,,,,,,,,,,,,,,,,,,,,,,,,
,,,,,,,,,,,,l,Incorrect,,,,,,t3.png,t4.png,1,0.90855,20,female,2020-08-06_11h59.37.834,torte-2b,2020.1.3,MacIntel,60,13396,1.146,,,,,0,29,29,5,1,,,,,,,,,,,,,,,,,,,,,,,,,,,,,,,,,,,,,,,,,,,,,,,,,,,,,,,,
,,,,,,,,,,,,a,Incorrect,,,,,,t2.png,t5.png,3,0.0000131,20,female,2020-08-06_11h59.37.834,torte-2b,2020.1.3,MacIntel,60,13396,1.116,,,,,0,30,30,46,1,,,,,,,,,,,,,,,,,,,,,,,,,,,,,,,,,,,,,,,,,,,,,,,,,,,,,,,,
,,,,,,,,,,,,l,Correct!,,,,,,t1.png,t3.png,2,0.0565,20,female,2020-08-06_11h59.37.834,torte-2b,2020.1.3,MacIntel,60,13396,1.077,,,,,0,31,31,42,1,,,,,,,,,,,,,,,,,,,,,,,,,,,,,,,,,,,,,,,,,,,,,,,,,,,,,,,,
,,,,,,,,,,,,l,Correct!,,,,,,t5.png,t1.png,4,9.55E-11,20,female,2020-08-06_11h59.37.834,torte-2b,2020.1.3,MacIntel,60,13396,0.544,,,,,0,32,32,89,1,,,,,,,,,,,,,,,,,,,,,,,,,,,,,,,,,,,,,,,,,,,,,,,,,,,,,,,,
,,,,,,,,,,,,a,Correct!,,,,,,t5.png,t5.png,0,0.97829,20,female,2020-08-06_11h59.37.834,torte-2b,2020.1.3,MacIntel,60,13396,0.852,,,,,0,33,33,35,1,,,,,,,,,,,,,,,,,,,,,,,,,,,,,,,,,,,,,,,,,,,,,,,,,,,,,,,,
,,,,,,,,,,,,l,Correct!,,,,,,t1.png,t5.png,4,9.55E-11,20,female,2020-08-06_11h59.37.834,torte-2b,2020.1.3,MacIntel,60,13396,0.828,,,,,0,34,34,118,1,,,,,,,,,,,,,,,,,,,,,,,,,,,,,,,,,,,,,,,,,,,,,,,,,,,,,,,,
,,,,,,,,,,,,a,Correct!,,,,,,t3.png,t2.png,1,0.90855,20,female,2020-08-06_11h59.37.834,torte-2b,2020.1.3,MacIntel,60,13396,2.308,,,,,0,35,35,108,1,,,,,,,,,,,,,,,,,,,,,,,,,,,,,,,,,,,,,,,,,,,,,,,,,,,,,,,,
,,,,,,,,,,,,l,Incorrect,,,,,,t3.png,t2.png,1,0.90855,20,female,2020-08-06_11h59.37.834,torte-2b,2020.1.3,MacIntel,60,13396,1.144,,,,,0,36,36,0,1,,,,,,,,,,,,,,,,,,,,,,,,,,,,,,,,,,,,,,,,,,,,,,,,,,,,,,,,
,,,,,,,,,,,,a,Correct!,,,,,,t4.png,t5.png,1,0.90025,20,female,2020-08-06_11h59.37.834,torte-2b,2020.1.3,MacIntel,60,13396,0.834,,,,,0,37,37,33,1,,,,,,,,,,,,,,,,,,,,,,,,,,,,,,,,,,,,,,,,,,,,,,,,,,,,,,,,
,,,,,,,,,,,,l,Incorrect,,,,,,t4.png,t3.png,1,0.909,20,female,2020-08-06_11h59.37.834,torte-2b,2020.1.3,MacIntel,60,13396,1.052,,,,,0,38,38,119,1,,,,,,,,,,,,,,,,,,,,,,,,,,,,,,,,,,,,,,,,,,,,,,,,,,,,,,,,
,,,,,,,,,,,,l,Incorrect,,,,,,t2.png,t1.png,1,0.90025,20,female,2020-08-06_11h59.37.834,torte-2b,2020.1.3,MacIntel,60,13396,0.701,,,,,0,39,39,44,1,,,,,,,,,,,,,,,,,,,,,,,,,,,,,,,,,,,,,,,,,,,,,,,,,,,,,,,,
,,,,,,,,,,,,l,Correct!,,,,,,t5.png,t1.png,4,9.55E-11,20,female,2020-08-06_11h59.37.834,torte-2b,2020.1.3,MacIntel,60,13396,0.504,,,,,0,40,40,101,1,,,,,,,,,,,,,,,,,,,,,,,,,,,,,,,,,,,,,,,,,,,,,,,,,,,,,,,,
,,,,,,,,,,,,l,Correct!,,,,,,t3.png,t5.png,2,0.056466,20,female,2020-08-06_11h59.37.834,torte-2b,2020.1.3,MacIntel,60,13396,1.352,,,,,0,41,41,78,1,,,,,,,,,,,,,,,,,,,,,,,,,,,,,,,,,,,,,,,,,,,,,,,,,,,,,,,,
,,,,,,,,,,,,l,Correct!,,,,,,t2.png,t5.png,3,0.0000131,20,female,2020-08-06_11h59.37.834,torte-2b,2020.1.3,MacIntel,60,13396,1.567,,,,,0,42,42,115,1,,,,,,,,,,,,,,,,,,,,,,,,,,,,,,,,,,,,,,,,,,,,,,,,,,,,,,,,
,,,,,,,,,,,,a,Correct!,,,,,,t1.png,t1.png,0,0.97829,20,female,2020-08-06_11h59.37.834,torte-2b,2020.1.3,MacIntel,60,13396,1.012,,,,,0,43,43,4,1,,,,,,,,,,,,,,,,,,,,,,,,,,,,,,,,,,,,,,,,,,,,,,,,,,,,,,,,
,,,,,,,,,,,,a,Correct!,,,,,,t5.png,t4.png,1,0.9,20,female,2020-08-06_11h59.37.834,torte-2b,2020.1.3,MacIntel,60,13396,1.469,,,,,0,44,44,92,1,,,,,,,,,,,,,,,,,,,,,,,,,,,,,,,,,,,,,,,,,,,,,,,,,,,,,,,,
,,,,,,,,,,,,l,Correct!,,,,,,t1.png,t4.png,3,0.0000131,20,female,2020-08-06_11h59.37.834,torte-2b,2020.1.3,MacIntel,60,13396,1.259,,,,,0,45,45,74,1,,,,,,,,,,,,,,,,,,,,,,,,,,,,,,,,,,,,,,,,,,,,,,,,,,,,,,,,
,,,,,,,,,,,,l,Correct!,,,,,,t4.png,t1.png,3,0.059078,20,female,2020-08-06_11h59.37.834,torte-2b,2020.1.3,MacIntel,60,13396,0.567,,,,,0,46,46,87,1,,,,,,,,,,,,,,,,,,,,,,,,,,,,,,,,,,,,,,,,,,,,,,,,,,,,,,,,
,,,,,,,,,,,,l,Incorrect,,,,,,t5.png,t4.png,1,0.90025,20,female,2020-08-06_11h59.37.834,torte-2b,2020.1.3,MacIntel,60,13396,1.258,,,,,0,47,47,38,1,,,,,,,,,,,,,,,,,,,,,,,,,,,,,,,,,,,,,,,,,,,,,,,,,,,,,,,,
,,,,,,,,,,,,l,Correct!,,,,,,t4.png,t1.png,3,0.0000131,20,female,2020-08-06_11h59.37.834,torte-2b,2020.1.3,MacIntel,60,13396,0.704,,,,,0,48,48,91,1,,,,,,,,,,,,,,,,,,,,,,,,,,,,,,,,,,,,,,,,,,,,,,,,,,,,,,,,
,,,,,,,,,,,,l,Incorrect,,,,,,t2.png,t1.png,1,0.9,20,female,2020-08-06_11h59.37.834,torte-2b,2020.1.3,MacIntel,60,13396,0.66,,,,,0,49,49,93,1,,,,,,,,,,,,,,,,,,,,,,,,,,,,,,,,,,,,,,,,,,,,,,,,,,,,,,,,
,,,,,,,,,,,,l,Incorrect,,,,,,t2.png,t1.png,1,0.90025,20,female,2020-08-06_11h59.37.834,torte-2b,2020.1.3,MacIntel,60,13396,0.542,,,,,0,50,50,65,1,,,,,,,,,,,,,,,,,,,,,,,,,,,,,,,,,,,,,,,,,,,,,,,,,,,,,,,,
,,,,,,,,,,,,a,Incorrect,,,,,,t5.png,t3.png,2,0.056466,20,female,2020-08-06_11h59.37.834,torte-2b,2020.1.3,MacIntel,60,13396,1.143,,,,,0,51,51,37,1,,,,,,,,,,,,,,,,,,,,,,,,,,,,,,,,,,,,,,,,,,,,,,,,,,,,,,,,
,,,,,,,,,,,,l,Correct!,,,,,,t1.png,t5.png,4,9.55E-11,20,female,2020-08-06_11h59.37.834,torte-2b,2020.1.3,MacIntel,60,13396,0.961,,,,,0,52,52,30,1,,,,,,,,,,,,,,,,,,,,,,,,,,,,,,,,,,,,,,,,,,,,,,,,,,,,,,,,
,,,,,,,,,,,,a,Correct!,,,,,,t5.png,t5.png,0,0.978,20,female,2020-08-06_11h59.37.834,torte-2b,2020.1.3,MacIntel,60,13396,0.936,,,,,0,53,53,116,1,,,,,,,,,,,,,,,,,,,,,,,,,,,,,,,,,,,,,,,,,,,,,,,,,,,,,,,,
,,,,,,,,,,,,l,Incorrect,,,,,,t4.png,t1.png,3,0.059078,20,female,2020-08-06_11h59.37.834,torte-2b,2020.1.3,MacIntel,60,13396,0.667,,,,,0,54,54,62,1,,,,,,,,,,,,,,,,,,,,,,,,,,,,,,,,,,,,,,,,,,,,,,,,,,,,,,,,
,,,,,,,,,,,,l,Correct!,,,,,,t3.png,t1.png,2,0.0565,20,female,2020-08-06_11h59.37.834,torte-2b,2020.1.3,MacIntel,60,13396,0.687,,,,,0,55,55,40,1,,,,,,,,,,,,,,,,,,,,,,,,,,,,,,,,,,,,,,,,,,,,,,,,,,,,,,,,
,,,,,,,,,,,,l,Incorrect,,,,,,t5.png,t4.png,1,0.90025,20,female,2020-08-06_11h59.37.834,torte-2b,2020.1.3,MacIntel,60,13396,1.735,,,,,0,56,56,25,1,,,,,,,,,,,,,,,,,,,,,,,,,,,,,,,,,,,,,,,,,,,,,,,,,,,,,,,,
,,,,,,,,,,,,l,Incorrect,,,,,,t1.png,t2.png,1,0.9,20,female,2020-08-06_11h59.37.834,torte-2b,2020.1.3,MacIntel,60,13396,1.036,,,,,0,57,57,41,1,,,,,,,,,,,,,,,,,,,,,,,,,,,,,,,,,,,,,,,,,,,,,,,,,,,,,,,,
,,,,,,,,,,,,a,Correct!,,,,,,t3.png,t2.png,1,0.90855,20,female,2020-08-06_11h59.37.834,torte-2b,2020.1.3,MacIntel,60,13396,1.133,,,,,0,58,58,94,1,,,,,,,,,,,,,,,,,,,,,,,,,,,,,,,,,,,,,,,,,,,,,,,,,,,,,,,,
,,,,,,,,,,,,a,Correct!,,,,,,t4.png,t3.png,1,0.90855,20,female,2020-08-06_11h59.37.834,torte-2b,2020.1.3,MacIntel,60,13396,1.499,,,,,0,59,59,11,1,,,,,,,,,,,,,,,,,,,,,,,,,,,,,,,,,,,,,,,,,,,,,,,,,,,,,,,,
,,,,,,,,,,,,l,Correct!,,,,,,t2.png,t5.png,3,0.0000131,20,female,2020-08-06_11h59.37.834,torte-2b,2020.1.3,MacIntel,60,13396,1.253,,,,,0,60,60,54,1,,,,,,,,,,,,,,,,,,,,,,,,,,,,,,,,,,,,,,,,,,,,,,,,,,,,,,,,
,,,,,,,,,,,,a,Incorrect,,,,,,t5.png,t3.png,2,0.0565,20,female,2020-08-06_11h59.37.834,torte-2b,2020.1.3,MacIntel,60,13396,1.099,,,,,0,61,61,50,1,,,,,,,,,,,,,,,,,,,,,,,,,,,,,,,,,,,,,,,,,,,,,,,,,,,,,,,,
,,,,,,,,,,,,a,Correct!,,,,,,t4.png,t5.png,1,0.90025,20,female,2020-08-06_11h59.37.834,torte-2b,2020.1.3,MacIntel,60,13396,1.216,,,,,0,62,62,63,1,,,,,,,,,,,,,,,,,,,,,,,,,,,,,,,,,,,,,,,,,,,,,,,,,,,,,,,,
,,,,,,,,,,,,l,Incorrect,,,,,,t1.png,t1.png,0,0.97829,20,female,2020-08-06_11h59.37.834,torte-2b,2020.1.3,MacIntel,60,13396,0.552,,,,,0,63,63,110,1,,,,,,,,,,,,,,,,,,,,,,,,,,,,,,,,,,,,,,,,,,,,,,,,,,,,,,,,
,,,,,,,,,,,,a,Correct!,,,,,,t2.png,t2.png,0,0.981,20,female,2020-08-06_11h59.37.834,torte-2b,2020.1.3,MacIntel,60,13396,1.135,,,,,0,64,64,98,1,,,,,,,,,,,,,,,,,,,,,,,,,,,,,,,,,,,,,,,,,,,,,,,,,,,,,,,,
,,,,,,,,,,,,l,Incorrect,,,,,,t2.png,t1.png,1,0.90025,20,female,2020-08-06_11h59.37.834,torte-2b,2020.1.3,MacIntel,60,13396,0.759,,,,,0,65,65,105,1,,,,,,,,,,,,,,,,,,,,,,,,,,,,,,,,,,,,,,,,,,,,,,,,,,,,,,,,
,,,,,,,,,,,,a,Correct!,,,,,,t5.png,t5.png,0,0.97829,20,female,2020-08-06_11h59.37.834,torte-2b,2020.1.3,MacIntel,60,13396,1.083,,,,,0,66,66,77,1,,,,,,,,,,,,,,,,,,,,,,,,,,,,,,,,,,,,,,,,,,,,,,,,,,,,,,,,
,,,,,,,,,,,,a,Correct!,,,,,,t5.png,t4.png,1,0.9,20,female,2020-08-06_11h59.37.834,torte-2b,2020.1.3,MacIntel,60,13396,1.077,,,,,0,67,67,55,1,,,,,,,,,,,,,,,,,,,,,,,,,,,,,,,,,,,,,,,,,,,,,,,,,,,,,,,,
,,,,,,,,,,,,a,Incorrect,,,,,,t5.png,t2.png,3,0.0000131,20,female,2020-08-06_11h59.37.834,torte-2b,2020.1.3,MacIntel,60,13396,1.451,,,,,0,68,68,82,1,,,,,,,,,,,,,,,,,,,,,,,,,,,,,,,,,,,,,,,,,,,,,,,,,,,,,,,,
,,,,,,,,,,,,a,Correct!,,,,,,t2.png,t3.png,1,0.90855,20,female,2020-08-06_11h59.37.834,torte-2b,2020.1.3,MacIntel,60,13396,1.976,,,,,0,69,69,70,1,,,,,,,,,,,,,,,,,,,,,,,,,,,,,,,,,,,,,,,,,,,,,,,,,,,,,,,,
,,,,,,,,,,,,l,Incorrect,,,,,,t4.png,t5.png,1,0.90025,20,female,2020-08-06_11h59.37.834,torte-2b,2020.1.3,MacIntel,60,13396,1.853,,,,,0,70,70,21,1,,,,,,,,,,,,,,,,,,,,,,,,,,,,,,,,,,,,,,,,,,,,,,,,,,,,,,,,
,,,,,,,,,,,,a,Correct!,,,,,,t4.png,t4.png,0,0.98115,20,female,2020-08-06_11h59.37.834,torte-2b,2020.1.3,MacIntel,60,13396,1.315,,,,,0,71,71,52,1,,,,,,,,,,,,,,,,,,,,,,,,,,,,,,,,,,,,,,,,,,,,,,,,,,,,,,,,
,,,,,,,,,,,,a,Correct!,,,,,,t5.png,t5.png,0,0.97829,20,female,2020-08-06_11h59.37.834,torte-2b,2020.1.3,MacIntel,60,13396,0.99,,,,,0,72,72,2,1,,,,,,,,,,,,,,,,,,,,,,,,,,,,,,,,,,,,,,,,,,,,,,,,,,,,,,,,
,,,,,,,,,,,,l,Correct!,,,,,,t3.png,t4.png,1,0.90855,20,female,2020-08-06_11h59.37.834,torte-2b,2020.1.3,MacIntel,60,13396,1.643,,,,,0,73,73,9,1,,,,,,,,,,,,,,,,,,,,,,,,,,,,,,,,,,,,,,,,,,,,,,,,,,,,,,,,
,,,,,,,,,,,,l,Incorrect,,,,,,t4.png,t5.png,1,0.90025,20,female,2020-08-06_11h59.37.834,torte-2b,2020.1.3,MacIntel,60,13396,1.457,,,,,0,74,74,86,1,,,,,,,,,,,,,,,,,,,,,,,,,,,,,,,,,,,,,,,,,,,,,,,,,,,,,,,,
,,,,,,,,,,,,l,Incorrect,,,,,,t2.png,t4.png,2,0.059078,20,female,2020-08-06_11h59.37.834,torte-2b,2020.1.3,MacIntel,60,13396,1.312,,,,,0,75,75,67,1,,,,,,,,,,,,,,,,,,,,,,,,,,,,,,,,,,,,,,,,,,,,,,,,,,,,,,,,
,,,,,,,,,,,,l,Incorrect,,,,,,t3.png,t4.png,1,0.90855,20,female,2020-08-06_11h59.37.834,torte-2b,2020.1.3,MacIntel,60,13396,1.118,,,,,0,76,76,111,1,,,,,,,,,,,,,,,,,,,,,,,,,,,,,,,,,,,,,,,,,,,,,,,,,,,,,,,,
,,,,,,,,,,,,l,Correct!,,,,,,t1.png,t4.png,3,0.0000131,20,female,2020-08-06_11h59.37.834,torte-2b,2020.1.3,MacIntel,60,13396,0.817,,,,,0,77,77,106,1,,,,,,,,,,,,,,,,,,,,,,,,,,,,,,,,,,,,,,,,,,,,,,,,,,,,,,,,
,,,,,,,,,,,,l,Correct!,,,,,,t5.png,t1.png,4,9.55E-11,20,female,2020-08-06_11h59.37.834,torte-2b,2020.1.3,MacIntel,60,13396,0.628,,,,,0,78,78,31,1,,,,,,,,,,,,,,,,,,,,,,,,,,,,,,,,,,,,,,,,,,,,,,,,,,,,,,,,
,,,,,,,,,,,,a,Correct!,,,,,,t2.png,t2.png,0,0.98115,20,female,2020-08-06_11h59.37.834,torte-2b,2020.1.3,MacIntel,60,13396,0.957,,,,,0,79,79,7,1,,,,,,,,,,,,,,,,,,,,,,,,,,,,,,,,,,,,,,,,,,,,,,,,,,,,,,,,
,,,,,,,,,,,,l,Correct!,,,,,,t4.png,t1.png,3,0.0000131,20,female,2020-08-06_11h59.37.834,torte-2b,2020.1.3,MacIntel,60,13396,0.842,,,,,0,80,80,49,1,,,,,,,,,,,,,,,,,,,,,,,,,,,,,,,,,,,,,,,,,,,,,,,,,,,,,,,,
,,,,,,,,,,,,a,Correct!,,,,,,t4.png,t3.png,1,0.90855,20,female,2020-08-06_11h59.37.834,torte-2b,2020.1.3,MacIntel,60,13396,1.073,,,,,0,81,81,29,1,,,,,,,,,,,,,,,,,,,,,,,,,,,,,,,,,,,,,,,,,,,,,,,,,,,,,,,,
,,,,,,,,,,,,l,Incorrect,,,,,,t4.png,t5.png,1,0.9,20,female,2020-08-06_11h59.37.834,torte-2b,2020.1.3,MacIntel,60,13396,1.321,,,,,0,82,82,81,1,,,,,,,,,,,,,,,,,,,,,,,,,,,,,,,,,,,,,,,,,,,,,,,,,,,,,,,,
,,,,,,,,,,,,l,Correct!,,,,,,t2.png,t3.png,1,0.90855,20,female,2020-08-06_11h59.37.834,torte-2b,2020.1.3,MacIntel,60,13396,1.112,,,,,0,83,83,79,1,,,,,,,,,,,,,,,,,,,,,,,,,,,,,,,,,,,,,,,,,,,,,,,,,,,,,,,,
,,,,,,,,,,,,a,Correct!,,,,,,t2.png,t2.png,0,0.98115,20,female,2020-08-06_11h59.37.834,torte-2b,2020.1.3,MacIntel,60,13396,0.862,,,,,0,84,84,112,1,,,,,,,,,,,,,,,,,,,,,,,,,,,,,,,,,,,,,,,,,,,,,,,,,,,,,,,,
,,,,,,,,,,,,l,Correct!,,,,,,t3.png,t5.png,2,0.056466,20,female,2020-08-06_11h59.37.834,torte-2b,2020.1.3,MacIntel,60,13396,0.802,,,,,0,85,85,47,1,,,,,,,,,,,,,,,,,,,,,,,,,,,,,,,,,,,,,,,,,,,,,,,,,,,,,,,,
,,,,,,,,,,,,l,Correct!,,,,,,t4.png,t1.png,3,0.0000131,20,female,2020-08-06_11h59.37.834,torte-2b,2020.1.3,MacIntel,60,13396,0.641,,,,,0,86,86,28,1,,,,,,,,,,,,,,,,,,,,,,,,,,,,,,,,,,,,,,,,,,,,,,,,,,,,,,,,
,,,,,,,,,,,,l,Correct!,,,,,,t1.png,t5.png,4,9.55E-11,20,female,2020-08-06_11h59.37.834,torte-2b,2020.1.3,MacIntel,60,13396,2.101,,,,,0,87,87,20,1,,,,,,,,,,,,,,,,,,,,,,,,,,,,,,,,,,,,,,,,,,,,,,,,,,,,,,,,
,,,,,,,,,,,,a,Correct!,,,,,,t4.png,t4.png,0,0.98115,20,female,2020-08-06_11h59.37.834,torte-2b,2020.1.3,MacIntel,60,13396,1.158,,,,,0,88,88,68,1,,,,,,,,,,,,,,,,,,,,,,,,,,,,,,,,,,,,,,,,,,,,,,,,,,,,,,,,
,,,,,,,,,,,,l,Incorrect,,,,,,t1.png,t2.png,1,0.90025,20,female,2020-08-06_11h59.37.834,torte-2b,2020.1.3,MacIntel,60,13396,2.053,,,,,0,89,89,96,1,,,,,,,,,,,,,,,,,,,,,,,,,,,,,,,,,,,,,,,,,,,,,,,,,,,,,,,,
,,,,,,,,,,,,l,Correct!,,,,,,t1.png,t4.png,3,0.0000131,20,female,2020-08-06_11h59.37.834,torte-2b,2020.1.3,MacIntel,60,13396,1.821,,,,,0,90,90,16,1,,,,,,,,,,,,,,,,,,,,,,,,,,,,,,,,,,,,,,,,,,,,,,,,,,,,,,,,
,,,,,,,,,,,,l,Correct!,,,,,,t2.png,t4.png,2,0.059078,20,female,2020-08-06_11h59.37.834,torte-2b,2020.1.3,MacIntel,60,13396,1.243,,,,,0,91,91,97,1,,,,,,,,,,,,,,,,,,,,,,,,,,,,,,,,,,,,,,,,,,,,,,,,,,,,,,,,
,,,,,,,,,,,,l,Correct!,,,,,,t1.png,t3.png,2,0.0565,20,female,2020-08-06_11h59.37.834,torte-2b,2020.1.3,MacIntel,60,13396,1.862,,,,,0,92,92,12,1,,,,,,,,,,,,,,,,,,,,,,,,,,,,,,,,,,,,,,,,,,,,,,,,,,,,,,,,
,,,,,,,,,,,,a,Incorrect,,,,,,t3.png,t2.png,1,0.90855,20,female,2020-08-06_11h59.37.834,torte-2b,2020.1.3,MacIntel,60,13396,1.556,,,,,0,93,93,10,1,,,,,,,,,,,,,,,,,,,,,,,,,,,,,,,,,,,,,,,,,,,,,,,,,,,,,,,,
,,,,,,,,,,,,l,Correct!,,,,,,t2.png,t4.png,2,0.059078,20,female,2020-08-06_11h59.37.834,torte-2b,2020.1.3,MacIntel,60,13396,1.69,,,,,0,94,94,18,1,,,,,,,,,,,,,,,,,,,,,,,,,,,,,,,,,,,,,,,,,,,,,,,,,,,,,,,,
,,,,,,,,,,,,l,Correct!,,,,,,t4.png,t1.png,3,0.0000131,20,female,2020-08-06_11h59.37.834,torte-2b,2020.1.3,MacIntel,60,13396,0.817,,,,,0,95,95,102,1,,,,,,,,,,,,,,,,,,,,,,,,,,,,,,,,,,,,,,,,,,,,,,,,,,,,,,,,
,,,,,,,,,,,,l,Correct!,,,,,,t4.png,t1.png,3,0.0000131,20,female,2020-08-06_11h59.37.834,torte-2b,2020.1.3,MacIntel,60,13396,0.658,,,,,0,96,96,76,1,,,,,,,,,,,,,,,,,,,,,,,,,,,,,,,,,,,,,,,,,,,,,,,,,,,,,,,,
,,,,,,,,,,,,l,Correct!,,,,,,t2.png,t4.png,2,0.059078,20,female,2020-08-06_11h59.37.834,torte-2b,2020.1.3,MacIntel,60,13396,0.96,,,,,0,97,97,84,1,,,,,,,,,,,,,,,,,,,,,,,,,,,,,,,,,,,,,,,,,,,,,,,,,,,,,,,,
,,,,,,,,,,,,a,Correct!,,,,,,t4.png,t4.png,0,0.98115,20,female,2020-08-06_11h59.37.834,torte-2b,2020.1.3,MacIntel,60,13396,1.46,,,,,0,98,98,19,1,,,,,,,,,,,,,,,,,,,,,,,,,,,,,,,,,,,,,,,,,,,,,,,,,,,,,,,,
,,,,,,,,,,,,l,Correct!,,,,,,t5.png,t1.png,4,9.55E-11,20,female,2020-08-06_11h59.37.834,torte-2b,2020.1.3,MacIntel,60,13396,0.583,,,,,0,99,99,117,1,,,,,,,,,,,,,,,,,,,,,,,,,,,,,,,,,,,,,,,,,,,,,,,,,,,,,,,,
,,,,,,,,,,,,a,Correct!,,,,,,t2.png,t2.png,0,0.98115,20,female,2020-08-06_11h59.37.834,torte-2b,2020.1.3,MacIntel,60,13396,0.824,,,,,0,100,100,69,1,,,,,,,,,,,,,,,,,,,,,,,,,,,,,,,,,,,,,,,,,,,,,,,,,,,,,,,,
,,,,,,,,,,,,a,Correct!,,,,,,t5.png,t3.png,2,0.056466,20,female,2020-08-06_11h59.37.834,torte-2b,2020.1.3,MacIntel,60,13396,0.914,,,,,0,101,101,80,1,,,,,,,,,,,,,,,,,,,,,,,,,,,,,,,,,,,,,,,,,,,,,,,,,,,,,,,,
,,,,,,,,,,,,l,Incorrect,,,,,,t4.png,t1.png,3,0.059078,20,female,2020-08-06_11h59.37.834,torte-2b,2020.1.3,MacIntel,60,13396,0.496,,,,,0,102,102,75,1,,,,,,,,,,,,,,,,,,,,,,,,,,,,,,,,,,,,,,,,,,,,,,,,,,,,,,,,
,,,,,,,,,,,,l,Correct!,,,,,,t4.png,t1.png,3,0.059078,20,female,2020-08-06_11h59.37.834,torte-2b,2020.1.3,MacIntel,60,13396,0.493,,,,,0,103,103,57,1,,,,,,,,,,,,,,,,,,,,,,,,,,,,,,,,,,,,,,,,,,,,,,,,,,,,,,,,
,,,,,,,,,,,,a,Correct!,,,,,,t4.png,t4.png,0,0.98115,20,female,2020-08-06_11h59.37.834,torte-2b,2020.1.3,MacIntel,60,13396,0.742,,,,,0,104,104,59,1,,,,,,,,,,,,,,,,,,,,,,,,,,,,,,,,,,,,,,,,,,,,,,,,,,,,,,,,
,,,,,,,,,,,,l,Correct!,,,,,,t3.png,t5.png,2,0.056466,20,female,2020-08-06_11h59.37.834,torte-2b,2020.1.3,MacIntel,60,13396,0.936,,,,,0,105,105,45,1,,,,,,,,,,,,,,,,,,,,,,,,,,,,,,,,,,,,,,,,,,,,,,,,,,,,,,,,
,,,,,,,,,,,,a,Correct!,,,,,,t4.png,t3.png,1,0.90855,20,female,2020-08-06_11h59.37.834,torte-2b,2020.1.3,MacIntel,60,13396,0.855,,,,,0,106,106,56,1,,,,,,,,,,,,,,,,,,,,,,,,,,,,,,,,,,,,,,,,,,,,,,,,,,,,,,,,
,,,,,,,,,,,,a,Correct!,,,,,,t2.png,t2.png,0,0.98115,20,female,2020-08-06_11h59.37.834,torte-2b,2020.1.3,MacIntel,60,13396,0.9,,,,,0,107,107,90,1,,,,,,,,,,,,,,,,,,,,,,,,,,,,,,,,,,,,,,,,,,,,,,,,,,,,,,,,
,,,,,,,,,,,,a,Incorrect,,,,,,t1.png,t5.png,4,9.55E-11,20,female,2020-08-06_11h59.37.834,torte-2b,2020.1.3,MacIntel,60,13396,0.861,,,,,0,108,108,3,1,,,,,,,,,,,,,,,,,,,,,,,,,,,,,,,,,,,,,,,,,,,,,,,,,,,,,,,,
,,,,,,,,,,,,a,Correct!,,,,,,t4.png,t3.png,1,0.909,20,female,2020-08-06_11h59.37.834,torte-2b,2020.1.3,MacIntel,60,13396,1.006,,,,,0,109,109,107,1,,,,,,,,,,,,,,,,,,,,,,,,,,,,,,,,,,,,,,,,,,,,,,,,,,,,,,,,
,,,,,,,,,,,,a,Incorrect,,,,,,t5.png,t2.png,3,0.0000131,20,female,2020-08-06_11h59.37.834,torte-2b,2020.1.3,MacIntel,60,13396,1.225,,,,,0,110,110,66,1,,,,,,,,,,,,,,,,,,,,,,,,,,,,,,,,,,,,,,,,,,,,,,,,,,,,,,,,
,,,,,,,,,,,,l,Correct!,,,,,,t5.png,t2.png,3,0.0000131,20,female,2020-08-06_11h59.37.834,torte-2b,2020.1.3,MacIntel,60,13396,0.99,,,,,0,111,111,83,1,,,,,,,,,,,,,,,,,,,,,,,,,,,,,,,,,,,,,,,,,,,,,,,,,,,,,,,,
,,,,,,,,,,,,l,Incorrect,,,,,,t2.png,t1.png,1,0.9,20,female,2020-08-06_11h59.37.834,torte-2b,2020.1.3,MacIntel,60,13396,0.652,,,,,0,112,112,100,1,,,,,,,,,,,,,,,,,,,,,,,,,,,,,,,,,,,,,,,,,,,,,,,,,,,,,,,,
,,,,,,,,,,,,l,Correct!,,,,,,t5.png,t1.png,4,9.55E-11,20,female,2020-08-06_11h59.37.834,torte-2b,2020.1.3,MacIntel,60,13396,0.598,,,,,0,113,113,15,1,,,,,,,,,,,,,,,,,,,,,,,,,,,,,,,,,,,,,,,,,,,,,,,,,,,,,,,,
,,,,,,,,,,,,a,Incorrect,,,,,,t5.png,t2.png,3,0.0000131,20,female,2020-08-06_11h59.37.834,torte-2b,2020.1.3,MacIntel,60,13396,1.203,,,,,0,114,114,43,1,,,,,,,,,,,,,,,,,,,,,,,,,,,,,,,,,,,,,,,,,,,,,,,,,,,,,,,,
,,,,,,,,,,,,l,Correct!,,,,,,t2.png,t5.png,3,0.0000131,20,female,2020-08-06_11h59.37.834,torte-2b,2020.1.3,MacIntel,60,13396,0.788,,,,,0,115,115,85,1,,,,,,,,,,,,,,,,,,,,,,,,,,,,,,,,,,,,,,,,,,,,,,,,,,,,,,,,
,,,,,,,,,,,,l,Correct!,,,,,,t1.png,t4.png,3,0.0000131,20,female,2020-08-06_11h59.37.834,torte-2b,2020.1.3,MacIntel,60,13396,0.834,,,,,0,116,116,36,1,,,,,,,,,,,,,,,,,,,,,,,,,,,,,,,,,,,,,,,,,,,,,,,,,,,,,,,,
,,,,,,,,,,,,l,Correct!,,,,,,t3.png,t1.png,2,0.056466,20,female,2020-08-06_11h59.37.834,torte-2b,2020.1.3,MacIntel,60,13396,0.493,,,,,0,117,117,72,1,,,,,,,,,,,,,,,,,,,,,,,,,,,,,,,,,,,,,,,,,,,,,,,,,,,,,,,,
,,,,,,,,,,,,a,Correct!,,,,,,t3.png,t4.png,1,0.90855,20,female,2020-08-06_11h59.37.834,torte-2b,2020.1.3,MacIntel,60,13396,0.685,,,,,0,118,118,58,1,,,,,,,,,,,,,,,,,,,,,,,,,,,,,,,,,,,,,,,,,,,,,,,,,,,,,,,,
,,,,,,,,,,,,a,Correct!,,,,,,t4.png,t4.png,0,0.98115,20,female,2020-08-06_11h59.37.834,torte-2b,2020.1.3,MacIntel,60,13396,0.757,,,,,0,119,119,88,1,,,,,,,,,,,,,,,,,,,,,,,,,,,,,,,,,,,,,,,,,,,,,,,,,,,,,,,,
,,,,,,,,,,,,,,,,,,,,,,,20,female,2020-08-06_11h59.37.834,torte-2b,2020.1.3,MacIntel,60,13396,,space,1.223,,,,,,,,space,40.558,,0,0,0,0,1,6,,,,,,,,,,,,,,,,,,,,,,,,,,,,,,,,,,,,,,,,,,,,,,,
,,,,,,,,,,,,,,,,,,,,,,,20,female,2020-08-06_11h59.37.834,torte-2b,2020.1.3,MacIntel,60,13396,,,,,,,,,,,,,,0,1,1,1,1,7,,,,,,,,,,,,,,,,,,,,,,,,,,,,,,,,,,,,,,,,,,,,,,,
,,,,,,,,,,,,,,,,,,,,,,,20,female,2020-08-06_11h59.37.834,torte-2b,2020.1.3,MacIntel,60,13396,,,,,,,,,,,,,space,0,2,2,2,1,6,0.469,,,,,,,,,,,,,,,,,,,,,,,,,,,,,,,,,,,,,,,,,,,,,,
,,,,,,,,,,,,,,,,,,,,,,,20,female,2020-08-06_11h59.37.834,torte-2b,2020.1.3,MacIntel,60,13396,,,,,,,,,,,,,,0,3,3,3,1,7,,,,,,,,,,,,,,,,,,,,,,,,,,,,,,,,,,,,,,,,,,,,,,,
,,,,,,,,,,,,,,,,,,,,,,,20,female,2020-08-06_11h59.37.834,torte-2b,2020.1.3,MacIntel,60,13396,,,,,,,,,,,,,,0,4,4,4,1,5,,,,,,,,,,,,,,,,,,,,,,,,,,,,,,,,,,,,,,,,,,,,,,,
,,,,,,,,,,,,,,,,,,,,,,,20,female,2020-08-06_11h59.37.834,torte-2b,2020.1.3,MacIntel,60,13396,,,,,,,,,,,,,space,0,5,5,5,1,7,0.45,,,,,,,,,,,,,,,,,,,,,,,,,,,,,,,,,,,,,,,,,,,,,,
,,,,,,,,,,,,,,,,,,,,,,,20,female,2020-08-06_11h59.37.834,torte-2b,2020.1.3,MacIntel,60,13396,,,,,,,,,,,,,,0,6,6,6,1,2,,,,,,,,,,,,,,,,,,,,,,,,,,,,,,,,,,,,,,,,,,,,,,,
,,,,,,,,,,,,,,,,,,,,,,,20,female,2020-08-06_11h59.37.834,torte-2b,2020.1.3,MacIntel,60,13396,,,,,,,,,,,,,,0,7,7,7,1,4,,,,,,,,,,,,,,,,,,,,,,,,,,,,,,,,,,,,,,,,,,,,,,,
,,,,,,,,,,,,,,,,,,,,,,,20,female,2020-08-06_11h59.37.834,torte-2b,2020.1.3,MacIntel,60,13396,,,,,,,,,,,,,space,0,8,8,8,1,7,0.649,,,,,,,,,,,,,,,,,,,,,,,,,,,,,,,,,,,,,,,,,,,,,,
,,,,,,,,,,,,,,,,,,,,,,,20,female,2020-08-06_11h59.37.834,torte-2b,2020.1.3,MacIntel,60,13396,,,,,,,,,,,,,,0,9,9,9,1,4,,,,,,,,,,,,,,,,,,,,,,,,,,,,,,,,,,,,,,,,,,,,,,,
,,,,,,,,,,,,,,,,,,,,,,,20,female,2020-08-06_11h59.37.834,torte-2b,2020.1.3,MacIntel,60,13396,,,,,,,,,,,,,space,0,10,10,10,1,7,0.614,,,,,,,,,,,,,,,,,,,,,,,,,,,,,,,,,,,,,,,,,,,,,,
,,,,,,,,,,,,,,,,,,,,,,,20,female,2020-08-06_11h59.37.834,torte-2b,2020.1.3,MacIntel,60,13396,,,,,,,,,,,,,,0,11,11,11,1,7,,,,,,,,,,,,,,,,,,,,,,,,,,,,,,,,,,,,,,,,,,,,,,,
,,,,,,,,,,,,,,,,,,,,,,,20,female,2020-08-06_11h59.37.834,torte-2b,2020.1.3,MacIntel,60,13396,,,,,,,,,,,,,space,0,12,12,12,1,7,0.431,,,,,,,,,,,,,,,,,,,,,,,,,,,,,,,,,,,,,,,,,,,,,,
,,,,,,,,,,,,,,,,,,,,,,,20,female,2020-08-06_11h59.37.834,torte-2b,2020.1.3,MacIntel,60,13396,,,,,,,,,,,,,,0,13,13,13,1,4,,,,,,,,,,,,,,,,,,,,,,,,,,,,,,,,,,,,,,,,,,,,,,,
,,,,,,,,,,,,,,,,,,,,,,,20,female,2020-08-06_11h59.37.834,torte-2b,2020.1.3,MacIntel,60,13396,,,,,,,,,,,,,,0,14,14,14,1,6,,,,,,,,,,,,,,,,,,,,,,,,,,,,,,,,,,,,,,,,,,,,,,,
,,,,,,,,,,,,,,,,,,,,,,,20,female,2020-08-06_11h59.37.834,torte-2b,2020.1.3,MacIntel,60,13396,,,,,,,,,,,,,space,0,15,15,15,1,4,0.436,,,,,,,,,,,,,,,,,,,,,,,,,,,,,,,,,,,,,,,,,,,,,,
,,,,,,,,,,,,,,,,,,,,,,,20,female,2020-08-06_11h59.37.834,torte-2b,2020.1.3,MacIntel,60,13396,,,,,,,,,,,,,space,0,16,16,16,1,6,0.598,,,,,,,,,,,,,,,,,,,,,,,,,,,,,,,,,,,,,,,,,,,,,,
,,,,,,,,,,,,,,,,,,,,,,,20,female,2020-08-06_11h59.37.834,torte-2b,2020.1.3,MacIntel,60,13396,,,,,,,,,,,,,,0,17,17,17,1,7,,,,,,,,,,,,,,,,,,,,,,,,,,,,,,,,,,,,,,,,,,,,,,,
,,,,,,,,,,,,,,,,,,,,,,,20,female,2020-08-06_11h59.37.834,torte-2b,2020.1.3,MacIntel,60,13396,,,,,,,,,,,,,space,0,18,18,18,1,6,0.385,,,,,,,,,,,,,,,,,,,,,,,,,,,,,,,,,,,,,,,,,,,,,,
,,,,,,,,,,,,,,,,,,,,,,,20,female,2020-08-06_11h59.37.834,torte-2b,2020.1.3,MacIntel,60,13396,,,,,,,,,,,,,space,0,19,19,19,1,7,0.401,,,,,,,,,,,,,,,,,,,,,,,,,,,,,,,,,,,,,,,,,,,,,,
,,,,,,,,,,,,,,,,,,,,,,,20,female,2020-08-06_11h59.37.834,torte-2b,2020.1.3,MacIntel,60,13396,,,,,,,,,,,,,,0,20,20,20,1,5,,,,,,,,,,,,,,,,,,,,,,,,,,,,,,,,,,,,,,,,,,,,,,,
,,,,,,,,,,,,,,,,,,,,,,,20,female,2020-08-06_11h59.37.834,torte-2b,2020.1.3,MacIntel,60,13396,,,,,,,,,,,,,,0,21,21,21,1,1,,,,,,,,,,,,,,,,,,,,,,,,,,,,,,,,,,,,,,,,,,,,,,,
,,,,,,,,,,,,,,,,,,,,,,,20,female,2020-08-06_11h59.37.834,torte-2b,2020.1.3,MacIntel,60,13396,,,,,,,,,,,,,,0,22,22,22,1,6,,,,,,,,,,,,,,,,,,,,,,,,,,,,,,,,,,,,,,,,,,,,,,,
,,,,,,,,,,,,,,,,,,,,,,,20,female,2020-08-06_11h59.37.834,torte-2b,2020.1.3,MacIntel,60,13396,,,,,,,,,,,,,space,0,23,23,23,1,1,0.465,,,,,,,,,,,,,,,,,,,,,,,,,,,,,,,,,,,,,,,,,,,,,,
,,,,,,,,,,,,,,,,,,,,,,,20,female,2020-08-06_11h59.37.834,torte-2b,2020.1.3,MacIntel,60,13396,,,,,,,,,,,,,space,0,24,24,24,1,5,0.931,,,,,,,,,,,,,,,,,,,,,,,,,,,,,,,,,,,,,,,,,,,,,,
,,,,,,,,,,,,,,,,,,,,,,,20,female,2020-08-06_11h59.37.834,torte-2b,2020.1.3,MacIntel,60,13396,,,,,,,,,,,,,space,0,25,25,25,1,6,0.521,,,,,,,,,,,,,,,,,,,,,,,,,,,,,,,,,,,,,,,,,,,,,,
,,,,,,,,,,,,,,,,,,,,,,,20,female,2020-08-06_11h59.37.834,torte-2b,2020.1.3,MacIntel,60,13396,,,,,,,,,,,,,,0,26,26,26,1,6,,,,,,,,,,,,,,,,,,,,,,,,,,,,,,,,,,,,,,,,,,,,,,,
,,,,,,,,,,,,,,,,,,,,,,,20,female,2020-08-06_11h59.37.834,torte-2b,2020.1.3,MacIntel,60,13396,,,,,,,,,,,,,space,0,27,27,27,1,6,0.568,,,,,,,,,,,,,,,,,,,,,,,,,,,,,,,,,,,,,,,,,,,,,,
,,,,,,,,,,,,,,,,,,,,,,,20,female,2020-08-06_11h59.37.834,torte-2b,2020.1.3,MacIntel,60,13396,,,,,,,,,,,,,space,0,28,28,28,1,5,0.976,,,,,,,,,,,,,,,,,,,,,,,,,,,,,,,,,,,,,,,,,,,,,,
,,,,,,,,,,,,,,,,,,,,,,,20,female,2020-08-06_11h59.37.834,torte-2b,2020.1.3,MacIntel,60,13396,,,,,,,,,,,,,,0,29,29,29,1,2,,,,,,,,,,,,,,,,,,,,,,,,,,,,,,,,,,,,,,,,,,,,,,,
,,,,,,,,,,,,,,,,,,,,,,,20,female,2020-08-06_11h59.37.834,torte-2b,2020.1.3,MacIntel,60,13396,,,,,,,,,,,,,space,0,30,30,30,1,5,0.488,,,,,,,,,,,,,,,,,,,,,,,,,,,,,,,,,,,,,,,,,,,,,,
,,,,,,,,,,,,,,,,,,,,,,,20,female,2020-08-06_11h59.37.834,torte-2b,2020.1.3,MacIntel,60,13396,,,,,,,,,,,,,space,0,31,31,31,1,2,0.855,,,,,,,,,,,,,,,,,,,,,,,,,,,,,,,,,,,,,,,,,,,,,,
,,,,,,,,,,,,,,,,,,,,,,,20,female,2020-08-06_11h59.37.834,torte-2b,2020.1.3,MacIntel,60,13396,,,,,,,,,,,,,space,0,32,32,32,1,5,0.967,,,,,,,,,,,,,,,,,,,,,,,,,,,,,,,,,,,,,,,,,,,,,,
,,,,,,,,,,,,,,,,,,,,,,,20,female,2020-08-06_11h59.37.834,torte-2b,2020.1.3,MacIntel,60,13396,,,,,,,,,,,,,,0,33,33,33,1,1,,,,,,,,,,,,,,,,,,,,,,,,,,,,,,,,,,,,,,,,,,,,,,,
,,,,,,,,,,,,,,,,,,,,,,,20,female,2020-08-06_11h59.37.834,torte-2b,2020.1.3,MacIntel,60,13396,,,,,,,,,,,,,,0,34,34,34,1,1,,,,,,,,,,,,,,,,,,,,,,,,,,,,,,,,,,,,,,,,,,,,,,,
,,,,,,,,,,,,,,,,,,,,,,,20,female,2020-08-06_11h59.37.834,torte-2b,2020.1.3,MacIntel,60,13396,,,,,,,,,,,,,,,,,,,2,,0,0,0,0,1,,,,,,,,,,,,,,,,,,,,,,,,,,,,,,,,,,,,,,,,,
,,,,,,,,,,,,,,,,,,,,,,,20,female,2020-08-06_11h59.37.834,torte-2b,2020.1.3,MacIntel,60,13396,,,,,,,,,,,,,,,,,,,2,,0,1,1,1,1,,,,,,,,,,,,,,,,,,,,,,,,,,,,,,,,,,,,,,,,,
,,,,,,,,,,,,,,,,,,,,,,,20,female,2020-08-06_11h59.37.834,torte-2b,2020.1.3,MacIntel,60,13396,,,,,,,,,,,,,,,,,,,6,,0,2,2,2,1,,,,,,,,,,,,,,,,,,,,,,,,,,,,,,,,,,,,,,,,,
,,,,,,,,,,,,,,,,,,,,,,,20,female,2020-08-06_11h59.37.834,torte-2b,2020.1.3,MacIntel,60,13396,,,,,,,,,,,,,space,,,,,,2,0.373,0,3,3,3,1,,,,,,,,,,,,,,,,,,,,,,,,,,,,,,,,,,,,,,,,,
,,,,,,,,,,,,,,,,,,,,,,,20,female,2020-08-06_11h59.37.834,torte-2b,2020.1.3,MacIntel,60,13396,,,,,,,,,,,,,space,,,,,,6,0.391,0,4,4,4,1,,,,,,,,,,,,,,,,,,,,,,,,,,,,,,,,,,,,,,,,,
,,,,,,,,,,,,,,,,,,,,,,,20,female,2020-08-06_11h59.37.834,torte-2b,2020.1.3,MacIntel,60,13396,,,,,,,,,,,,,space,,,,,,2,0.396,0,5,5,5,1,,,,,,,,,,,,,,,,,,,,,,,,,,,,,,,,,,,,,,,,,
,,,,,,,,,,,,,,,,,,,,,,,20,female,2020-08-06_11h59.37.834,torte-2b,2020.1.3,MacIntel,60,13396,,,,,,,,,,,,,,,,,,,7,,0,6,6,6,1,,,,,,,,,,,,,,,,,,,,,,,,,,,,,,,,,,,,,,,,,
,,,,,,,,,,,,,,,,,,,,,,,20,female,2020-08-06_11h59.37.834,torte-2b,2020.1.3,MacIntel,60,13396,,,,,,,,,,,,,space,,,,,,2,0.5,0,7,7,7,1,,,,,,,,,,,,,,,,,,,,,,,,,,,,,,,,,,,,,,,,,
,,,,,,,,,,,,,,,,,,,,,,,20,female,2020-08-06_11h59.37.834,torte-2b,2020.1.3,MacIntel,60,13396,,,,,,,,,,,,,space,,,,,,7,0.547,0,8,8,8,1,,,,,,,,,,,,,,,,,,,,,,,,,,,,,,,,,,,,,,,,,
,,,,,,,,,,,,,,,,,,,,,,,20,female,2020-08-06_11h59.37.834,torte-2b,2020.1.3,MacIntel,60,13396,,,,,,,,,,,,,space,,,,,,2,0.464,0,9,9,9,1,,,,,,,,,,,,,,,,,,,,,,,,,,,,,,,,,,,,,,,,,
,,,,,,,,,,,,,,,,,,,,,,,20,female,2020-08-06_11h59.37.834,torte-2b,2020.1.3,MacIntel,60,13396,,,,,,,,,,,,,,,,,,,5,,0,10,10,10,1,,,,,,,,,,,,,,,,,,,,,,,,,,,,,,,,,,,,,,,,,
,,,,,,,,,,,,,,,,,,,,,,,20,female,2020-08-06_11h59.37.834,torte-2b,2020.1.3,MacIntel,60,13396,,,,,,,,,,,,,,,,,,,4,,0,11,11,11,1,,,,,,,,,,,,,,,,,,,,,,,,,,,,,,,,,,,,,,,,,
,,,,,,,,,,,,,,,,,,,,,,,20,female,2020-08-06_11h59.37.834,torte-2b,2020.1.3,MacIntel,60,13396,,,,,,,,,,,,,space,,,,,,5,0.552,0,12,12,12,1,,,,,,,,,,,,,,,,,,,,,,,,,,,,,,,,,,,,,,,,,
,,,,,,,,,,,,,,,,,,,,,,,20,female,2020-08-06_11h59.37.834,torte-2b,2020.1.3,MacIntel,60,13396,,,,,,,,,,,,,,,,,,,6,,0,13,13,13,1,,,,,,,,,,,,,,,,,,,,,,,,,,,,,,,,,,,,,,,,,
,,,,,,,,,,,,,,,,,,,,,,,20,female,2020-08-06_11h59.37.834,torte-2b,2020.1.3,MacIntel,60,13396,,,,,,,,,,,,,space,,,,,,5,0.749,0,14,14,14,1,,,,,,,,,,,,,,,,,,,,,,,,,,,,,,,,,,,,,,,,,
,,,,,,,,,,,,,,,,,,,,,,,20,female,2020-08-06_11h59.37.834,torte-2b,2020.1.3,MacIntel,60,13396,,,,,,,,,,,,,,,,,,,4,,0,15,15,15,1,,,,,,,,,,,,,,,,,,,,,,,,,,,,,,,,,,,,,,,,,
,,,,,,,,,,,,,,,,,,,,,,,20,female,2020-08-06_11h59.37.834,torte-2b,2020.1.3,MacIntel,60,13396,,,,,,,,,,,,,,,,,,,5,,0,16,16,16,1,,,,,,,,,,,,,,,,,,,,,,,,,,,,,,,,,,,,,,,,,
,,,,,,,,,,,,,,,,,,,,,,,20,female,2020-08-06_11h59.37.834,torte-2b,2020.1.3,MacIntel,60,13396,,,,,,,,,,,,,,,,,,,3,,0,17,17,17,1,,,,,,,,,,,,,,,,,,,,,,,,,,,,,,,,,,,,,,,,,
,,,,,,,,,,,,,,,,,,,,,,,20,female,2020-08-06_11h59.37.834,torte-2b,2020.1.3,MacIntel,60,13396,,,,,,,,,,,,,,,,,,,6,,0,18,18,18,1,,,,,,,,,,,,,,,,,,,,,,,,,,,,,,,,,,,,,,,,,
,,,,,,,,,,,,,,,,,,,,,,,20,female,2020-08-06_11h59.37.834,torte-2b,2020.1.3,MacIntel,60,13396,,,,,,,,,,,,,space,,,,,,6,0.558,0,19,19,19,1,,,,,,,,,,,,,,,,,,,,,,,,,,,,,,,,,,,,,,,,,
,,,,,,,,,,,,,,,,,,,,,,,20,female,2020-08-06_11h59.37.834,torte-2b,2020.1.3,MacIntel,60,13396,,,,,,,,,,,,,space,,,,,,6,0.341,0,20,20,20,1,,,,,,,,,,,,,,,,,,,,,,,,,,,,,,,,,,,,,,,,,
,,,,,,,,,,,,,,,,,,,,,,,20,female,2020-08-06_11h59.37.834,torte-2b,2020.1.3,MacIntel,60,13396,,,,,,,,,,,,,space,,,,,,4,0.527,0,21,21,21,1,,,,,,,,,,,,,,,,,,,,,,,,,,,,,,,,,,,,,,,,,
,,,,,,,,,,,,,,,,,,,,,,,20,female,2020-08-06_11h59.37.834,torte-2b,2020.1.3,MacIntel,60,13396,,,,,,,,,,,,,space,,,,,,6,1.163,0,22,22,22,1,,,,,,,,,,,,,,,,,,,,,,,,,,,,,,,,,,,,,,,,,
,,,,,,,,,,,,,,,,,,,,,,,20,female,2020-08-06_11h59.37.834,torte-2b,2020.1.3,MacIntel,60,13396,,,,,,,,,,,,,space,,,,,,4,1.353,0,23,23,23,1,,,,,,,,,,,,,,,,,,,,,,,,,,,,,,,,,,,,,,,,,
,,,,,,,,,,,,,,,,,,,,,,,20,female,2020-08-06_11h59.37.834,torte-2b,2020.1.3,MacIntel,60,13396,,,,,,,,,,,,,space,,,,,,6,0.819,0,24,24,24,1,,,,,,,,,,,,,,,,,,,,,,,,,,,,,,,,,,,,,,,,,
,,,,,,,,,,,,,,,,,,,,,,,20,female,2020-08-06_11h59.37.834,torte-2b,2020.1.3,MacIntel,60,13396,,,,,,,,,,,,,space,,,,,,6,0.4,0,25,25,25,1,,,,,,,,,,,,,,,,,,,,,,,,,,,,,,,,,,,,,,,,,
,,,,,,,,,,,,,,,,,,,,,,,20,female,2020-08-06_11h59.37.834,torte-2b,2020.1.3,MacIntel,60,13396,,,,,,,,,,,,,,,,,,,7,,0,26,26,26,1,,,,,,,,,,,,,,,,,,,,,,,,,,,,,,,,,,,,,,,,,
,,,,,,,,,,,,,,,,,,,,,,,20,female,2020-08-06_11h59.37.834,torte-2b,2020.1.3,MacIntel,60,13396,,,,,,,,,,,,,,,,,,,1,,0,27,27,27,1,,,,,,,,,,,,,,,,,,,,,,,,,,,,,,,,,,,,,,,,,
,,,,,,,,,,,,,,,,,,,,,,,20,female,2020-08-06_11h59.37.834,torte-2b,2020.1.3,MacIntel,60,13396,,,,,,,,,,,,,space,,,,,,7,0.571,0,28,28,28,1,,,,,,,,,,,,,,,,,,,,,,,,,,,,,,,,,,,,,,,,,
,,,,,,,,,,,,,,,,,,,,,,,20,female,2020-08-06_11h59.37.834,torte-2b,2020.1.3,MacIntel,60,13396,,,,,,,,,,,,,,,,,,,4,,0,29,29,29,1,,,,,,,,,,,,,,,,,,,,,,,,,,,,,,,,,,,,,,,,,
,,,,,,,,,,,,,,,,,,,,,,,20,female,2020-08-06_11h59.37.834,torte-2b,2020.1.3,MacIntel,60,13396,,,,,,,,,,,,,space,,,,,,7,0.624,0,30,30,30,1,,,,,,,,,,,,,,,,,,,,,,,,,,,,,,,,,,,,,,,,,
,,,,,,,,,,,,,,,,,,,,,,,20,female,2020-08-06_11h59.37.834,torte-2b,2020.1.3,MacIntel,60,13396,,,,,,,,,,,,,,,,,,,3,,0,31,31,31,1,,,,,,,,,,,,,,,,,,,,,,,,,,,,,,,,,,,,,,,,,
,,,,,,,,,,,,,,,,,,,,,,,20,female,2020-08-06_11h59.37.834,torte-2b,2020.1.3,MacIntel,60,13396,,,,,,,,,,,,,,,,,,,2,,0,32,32,32,1,,,,,,,,,,,,,,,,,,,,,,,,,,,,,,,,,,,,,,,,,
,,,,,,,,,,,,,,,,,,,,,,,20,female,2020-08-06_11h59.37.834,torte-2b,2020.1.3,MacIntel,60,13396,,,,,,,,,,,,,,,,,,,6,,0,33,33,33,1,,,,,,,,,,,,,,,,,,,,,,,,,,,,,,,,,,,,,,,,,
,,,,,,,,,,,,,,,,,,,,,,,20,female,2020-08-06_11h59.37.834,torte-2b,2020.1.3,MacIntel,60,13396,,,,,,,,,,,,,,,,,,,3,,0,34,34,34,1,,,,,,,,,,,,,,,,,,,,,,,,,,,,,,,,,,,,,,,,,
,,,,,,,,,,,,,,,,,,,,,,,20,female,2020-08-06_11h59.37.834,torte-2b,2020.1.3,MacIntel,60,13396,,,,,,,,,,,,,,,,,,,7,,,,,,,0,0,0,0,1,,,,,,,,,,,,,,,,,,,,,,,,,,,,,,,,,,,,
,,,,,,,,,,,,,,,,,,,,,,,20,female,2020-08-06_11h59.37.834,torte-2b,2020.1.3,MacIntel,60,13396,,,,,,,,,,,,,,,,,,,5,,,,,,,0,1,1,1,1,,,,,,,,,,,,,,,,,,,,,,,,,,,,,,,,,,,,
,,,,,,,,,,,,,,,,,,,,,,,20,female,2020-08-06_11h59.37.834,torte-2b,2020.1.3,MacIntel,60,13396,,,,,,,,,,,,,,,,,,,4,,,,,,,0,2,2,2,1,,,,,,,,,,,,,,,,,,,,,,,,,,,,,,,,,,,,
,,,,,,,,,,,,,,,,,,,,,,,20,female,2020-08-06_11h59.37.834,torte-2b,2020.1.3,MacIntel,60,13396,,,,,,,,,,,,,space,,,,,,5,0.522,,,,,,0,3,3,3,1,,,,,,,,,,,,,,,,,,,,,,,,,,,,,,,,,,,,
,,,,,,,,,,,,,,,,,,,,,,,20,female,2020-08-06_11h59.37.834,torte-2b,2020.1.3,MacIntel,60,13396,,,,,,,,,,,,,,,,,,,6,,,,,,,0,4,4,4,1,,,,,,,,,,,,,,,,,,,,,,,,,,,,,,,,,,,,
,,,,,,,,,,,,,,,,,,,,,,,20,female,2020-08-06_11h59.37.834,torte-2b,2020.1.3,MacIntel,60,13396,,,,,,,,,,,,,space,,,,,,5,0.41,,,,,,0,5,5,5,1,,,,,,,,,,,,,,,,,,,,,,,,,,,,,,,,,,,,
,,,,,,,,,,,,,,,,,,,,,,,20,female,2020-08-06_11h59.37.834,torte-2b,2020.1.3,MacIntel,60,13396,,,,,,,,,,,,,,,,,,,3,,,,,,,0,6,6,6,1,,,,,,,,,,,,,,,,,,,,,,,,,,,,,,,,,,,,
,,,,,,,,,,,,,,,,,,,,,,,20,female,2020-08-06_11h59.37.834,torte-2b,2020.1.3,MacIntel,60,13396,,,,,,,,,,,,,space,,,,,,4,0.688,,,,,,0,7,7,7,1,,,,,,,,,,,,,,,,,,,,,,,,,,,,,,,,,,,,
,,,,,,,,,,,,,,,,,,,,,,,20,female,2020-08-06_11h59.37.834,torte-2b,2020.1.3,MacIntel,60,13396,,,,,,,,,,,,,space,,,,,,3,0.495,,,,,,0,8,8,8,1,,,,,,,,,,,,,,,,,,,,,,,,,,,,,,,,,,,,
,,,,,,,,,,,,,,,,,,,,,,,20,female,2020-08-06_11h59.37.834,torte-2b,2020.1.3,MacIntel,60,13396,,,,,,,,,,,,,,,,,,,1,,,,,,,0,9,9,9,1,,,,,,,,,,,,,,,,,,,,,,,,,,,,,,,,,,,,
,,,,,,,,,,,,,,,,,,,,,,,20,female,2020-08-06_11h59.37.834,torte-2b,2020.1.3,MacIntel,60,13396,,,,,,,,,,,,,,,,,,,2,,,,,,,0,10,10,10,1,,,,,,,,,,,,,,,,,,,,,,,,,,,,,,,,,,,,
,,,,,,,,,,,,,,,,,,,,,,,20,female,2020-08-06_11h59.37.834,torte-2b,2020.1.3,MacIntel,60,13396,,,,,,,,,,,,,space,,,,,,1,0.374,,,,,,0,11,11,11,1,,,,,,,,,,,,,,,,,,,,,,,,,,,,,,,,,,,,
,,,,,,,,,,,,,,,,,,,,,,,20,female,2020-08-06_11h59.37.834,torte-2b,2020.1.3,MacIntel,60,13396,,,,,,,,,,,,,space,,,,,,2,0.377,,,,,,0,12,12,12,1,,,,,,,,,,,,,,,,,,,,,,,,,,,,,,,,,,,,
,,,,,,,,,,,,,,,,,,,,,,,20,female,2020-08-06_11h59.37.834,torte-2b,2020.1.3,MacIntel,60,13396,,,,,,,,,,,,,space,,,,,,1,0.35,,,,,,0,13,13,13,1,,,,,,,,,,,,,,,,,,,,,,,,,,,,,,,,,,,,
,,,,,,,,,,,,,,,,,,,,,,,20,female,2020-08-06_11h59.37.834,torte-2b,2020.1.3,MacIntel,60,13396,,,,,,,,,,,,,,,,,,,3,,,,,,,0,14,14,14,1,,,,,,,,,,,,,,,,,,,,,,,,,,,,,,,,,,,,
,,,,,,,,,,,,,,,,,,,,,,,20,female,2020-08-06_11h59.37.834,torte-2b,2020.1.3,MacIntel,60,13396,,,,,,,,,,,,,space,,,,,,1,0.386,,,,,,0,15,15,15,1,,,,,,,,,,,,,,,,,,,,,,,,,,,,,,,,,,,,
,,,,,,,,,,,,,,,,,,,,,,,20,female,2020-08-06_11h59.37.834,torte-2b,2020.1.3,MacIntel,60,13396,,,,,,,,,,,,,,,,,,,7,,,,,,,0,16,16,16,1,,,,,,,,,,,,,,,,,,,,,,,,,,,,,,,,,,,,
,,,,,,,,,,,,,,,,,,,,,,,20,female,2020-08-06_11h59.37.834,torte-2b,2020.1.3,MacIntel,60,13396,,,,,,,,,,,,,space,,,,,,7,0.963,,,,,,0,17,17,17,1,,,,,,,,,,,,,,,,,,,,,,,,,,,,,,,,,,,,
,,,,,,,,,,,,,,,,,,,,,,,20,female,2020-08-06_11h59.37.834,torte-2b,2020.1.3,MacIntel,60,13396,,,,,,,,,,,,,,,,,,,4,,,,,,,0,18,18,18,1,,,,,,,,,,,,,,,,,,,,,,,,,,,,,,,,,,,,
,,,,,,,,,,,,,,,,,,,,,,,20,female,2020-08-06_11h59.37.834,torte-2b,2020.1.3,MacIntel,60,13396,,,,,,,,,,,,,space,,,,,,7,0.572,,,,,,0,19,19,19,1,,,,,,,,,,,,,,,,,,,,,,,,,,,,,,,,,,,,
,,,,,,,,,,,,,,,,,,,,,,,20,female,2020-08-06_11h59.37.834,torte-2b,2020.1.3,MacIntel,60,13396,,,,,,,,,,,,,,,,,,,3,,,,,,,0,20,20,20,1,,,,,,,,,,,,,,,,,,,,,,,,,,,,,,,,,,,,
,,,,,,,,,,,,,,,,,,,,,,,20,female,2020-08-06_11h59.37.834,torte-2b,2020.1.3,MacIntel,60,13396,,,,,,,,,,,,,space,,,,,,7,0.305,,,,,,0,21,21,21,1,,,,,,,,,,,,,,,,,,,,,,,,,,,,,,,,,,,,
,,,,,,,,,,,,,,,,,,,,,,,20,female,2020-08-06_11h59.37.834,torte-2b,2020.1.3,MacIntel,60,13396,,,,,,,,,,,,,space,,,,,,3,1.109,,,,,,0,22,22,22,1,,,,,,,,,,,,,,,,,,,,,,,,,,,,,,,,,,,,
,,,,,,,,,,,,,,,,,,,,,,,20,female,2020-08-06_11h59.37.834,torte-2b,2020.1.3,MacIntel,60,13396,,,,,,,,,,,,,,,,,,,1,,,,,,,0,23,23,23,1,,,,,,,,,,,,,,,,,,,,,,,,,,,,,,,,,,,,
,,,,,,,,,,,,,,,,,,,,,,,20,female,2020-08-06_11h59.37.834,torte-2b,2020.1.3,MacIntel,60,13396,,,,,,,,,,,,,,,,,,,6,,,,,,,0,24,24,24,1,,,,,,,,,,,,,,,,,,,,,,,,,,,,,,,,,,,,
,,,,,,,,,,,,,,,,,,,,,,,20,female,2020-08-06_11h59.37.834,torte-2b,2020.1.3,MacIntel,60,13396,,,,,,,,,,,,,,,,,,,3,,,,,,,0,25,25,25,1,,,,,,,,,,,,,,,,,,,,,,,,,,,,,,,,,,,,
,,,,,,,,,,,,,,,,,,,,,,,20,female,2020-08-06_11h59.37.834,torte-2b,2020.1.3,MacIntel,60,13396,,,,,,,,,,,,,,,,,,,2,,,,,,,0,26,26,26,1,,,,,,,,,,,,,,,,,,,,,,,,,,,,,,,,,,,,
,,,,,,,,,,,,,,,,,,,,,,,20,female,2020-08-06_11h59.37.834,torte-2b,2020.1.3,MacIntel,60,13396,,,,,,,,,,,,,space,,,,,,3,1.174,,,,,,0,27,27,27,1,,,,,,,,,,,,,,,,,,,,,,,,,,,,,,,,,,,,
,,,,,,,,,,,,,,,,,,,,,,,20,female,2020-08-06_11h59.37.834,torte-2b,2020.1.3,MacIntel,60,13396,,,,,,,,,,,,,,,,,,,1,,,,,,,0,28,28,28,1,,,,,,,,,,,,,,,,,,,,,,,,,,,,,,,,,,,,
,,,,,,,,,,,,,,,,,,,,,,,20,female,2020-08-06_11h59.37.834,torte-2b,2020.1.3,MacIntel,60,13396,,,,,,,,,,,,,space,,,,,,3,0.5,,,,,,0,29,29,29,1,,,,,,,,,,,,,,,,,,,,,,,,,,,,,,,,,,,,
,,,,,,,,,,,,,,,,,,,,,,,20,female,2020-08-06_11h59.37.834,torte-2b,2020.1.3,MacIntel,60,13396,,,,,,,,,,,,,space,,,,,,1,0.673,,,,,,0,30,30,30,1,,,,,,,,,,,,,,,,,,,,,,,,,,,,,,,,,,,,
,,,,,,,,,,,,,,,,,,,,,,,20,female,2020-08-06_11h59.37.834,torte-2b,2020.1.3,MacIntel,60,13396,,,,,,,,,,,,,,,,,,,7,,,,,,,0,31,31,31,1,,,,,,,,,,,,,,,,,,,,,,,,,,,,,,,,,,,,
,,,,,,,,,,,,,,,,,,,,,,,20,female,2020-08-06_11h59.37.834,torte-2b,2020.1.3,MacIntel,60,13396,,,,,,,,,,,,,,,,,,,5,,,,,,,0,32,32,32,1,,,,,,,,,,,,,,,,,,,,,,,,,,,,,,,,,,,,
,,,,,,,,,,,,,,,,,,,,,,,20,female,2020-08-06_11h59.37.834,torte-2b,2020.1.3,MacIntel,60,13396,,,,,,,,,,,,,space,,,,,,7,0.397,,,,,,0,33,33,33,1,,,,,,,,,,,,,,,,,,,,,,,,,,,,,,,,,,,,
,,,,,,,,,,,,,,,,,,,,,,,20,female,2020-08-06_11h59.37.834,torte-2b,2020.1.3,MacIntel,60,13396,,,,,,,,,,,,,,,,,,,2,,,,,,,0,34,34,34,1,,,,,,,,,,,,,,,,,,,,,,,,,,,,,,,,,,,,
,,,,,,,,,,,,,,,,,,,,,,,20,female,2020-08-06_11h59.37.834,torte-2b,2020.1.3,MacIntel,60,13396,,,,,,,,,,,,,,,,,,,3,,,,,,,,,,,,0,0,0,0,1,,,,,,,,,,,,,,,,,,,,,,,,,,,,,,,
,,,,,,,,,,,,,,,,,,,,,,,20,female,2020-08-06_11h59.37.834,torte-2b,2020.1.3,MacIntel,60,13396,,,,,,,,,,,,,,,,,,,7,,,,,,,,,,,,0,1,1,1,1,,,,,,,,,,,,,,,,,,,,,,,,,,,,,,,
,,,,,,,,,,,,,,,,,,,,,,,20,female,2020-08-06_11h59.37.834,torte-2b,2020.1.3,MacIntel,60,13396,,,,,,,,,,,,,space,,,,,,7,0.527,,,,,,,,,,,0,2,2,2,1,,,,,,,,,,,,,,,,,,,,,,,,,,,,,,,
,,,,,,,,,,,,,,,,,,,,,,,20,female,2020-08-06_11h59.37.834,torte-2b,2020.1.3,MacIntel,60,13396,,,,,,,,,,,,,space,,,,,,4,0.693,,,,,,,,,,,0,3,3,3,1,,,,,,,,,,,,,,,,,,,,,,,,,,,,,,,
,,,,,,,,,,,,,,,,,,,,,,,20,female,2020-08-06_11h59.37.834,torte-2b,2020.1.3,MacIntel,60,13396,,,,,,,,,,,,,,,,,,,5,,,,,,,,,,,,0,4,4,4,1,,,,,,,,,,,,,,,,,,,,,,,,,,,,,,,
,,,,,,,,,,,,,,,,,,,,,,,20,female,2020-08-06_11h59.37.834,torte-2b,2020.1.3,MacIntel,60,13396,,,,,,,,,,,,,space,,,,,,4,0.417,,,,,,,,,,,0,5,5,5,1,,,,,,,,,,,,,,,,,,,,,,,,,,,,,,,
,,,,,,,,,,,,,,,,,,,,,,,20,female,2020-08-06_11h59.37.834,torte-2b,2020.1.3,MacIntel,60,13396,,,,,,,,,,,,,,,,,,,2,,,,,,,,,,,,0,6,6,6,1,,,,,,,,,,,,,,,,,,,,,,,,,,,,,,,
,,,,,,,,,,,,,,,,,,,,,,,20,female,2020-08-06_11h59.37.834,torte-2b,2020.1.3,MacIntel,60,13396,,,,,,,,,,,,,space,,,,,,4,0.356,,,,,,,,,,,0,7,7,7,1,,,,,,,,,,,,,,,,,,,,,,,,,,,,,,,
,,,,,,,,,,,,,,,,,,,,,,,20,female,2020-08-06_11h59.37.834,torte-2b,2020.1.3,MacIntel,60,13396,,,,,,,,,,,,,space,,,,,,2,0.376,,,,,,,,,,,0,8,8,8,1,,,,,,,,,,,,,,,,,,,,,,,,,,,,,,,
,,,,,,,,,,,,,,,,,,,,,,,20,female,2020-08-06_11h59.37.834,torte-2b,2020.1.3,MacIntel,60,13396,,,,,,,,,,,,,,,,,,,2,,,,,,,,,,,,0,9,9,9,1,,,,,,,,,,,,,,,,,,,,,,,,,,,,,,,
,,,,,,,,,,,,,,,,,,,,,,,20,female,2020-08-06_11h59.37.834,torte-2b,2020.1.3,MacIntel,60,13396,,,,,,,,,,,,,,,,,,,6,,,,,,,,,,,,0,10,10,10,1,,,,,,,,,,,,,,,,,,,,,,,,,,,,,,,
,,,,,,,,,,,,,,,,,,,,,,,20,female,2020-08-06_11h59.37.834,torte-2b,2020.1.3,MacIntel,60,13396,,,,,,,,,,,,,space,,,,,,2,0.407,,,,,,,,,,,0,11,11,11,1,,,,,,,,,,,,,,,,,,,,,,,,,,,,,,,
,,,,,,,,,,,,,,,,,,,,,,,20,female,2020-08-06_11h59.37.834,torte-2b,2020.1.3,MacIntel,60,13396,,,,,,,,,,,,,space,,,,,,2,0.543,,,,,,,,,,,0,12,12,12,1,,,,,,,,,,,,,,,,,,,,,,,,,,,,,,,
,,,,,,,,,,,,,,,,,,,,,,,20,female,2020-08-06_11h59.37.834,torte-2b,2020.1.3,MacIntel,60,13396,,,,,,,,,,,,,space,,,,,,2,0.392,,,,,,,,,,,0,13,13,13,1,,,,,,,,,,,,,,,,,,,,,,,,,,,,,,,
,,,,,,,,,,,,,,,,,,,,,,,20,female,2020-08-06_11h59.37.834,torte-2b,2020.1.3,MacIntel,60,13396,,,,,,,,,,,,,space,,,,,,2,0.803,,,,,,,,,,,0,14,14,14,1,,,,,,,,,,,,,,,,,,,,,,,,,,,,,,,
,,,,,,,,,,,,,,,,,,,,,,,20,female,2020-08-06_11h59.37.834,torte-2b,2020.1.3,MacIntel,60,13396,,,,,,,,,,,,,,,,,,,4,,,,,,,,,,,,0,15,15,15,1,,,,,,,,,,,,,,,,,,,,,,,,,,,,,,,
,,,,,,,,,,,,,,,,,,,,,,,20,female,2020-08-06_11h59.37.834,torte-2b,2020.1.3,MacIntel,60,13396,,,,,,,,,,,,,,,,,,,3,,,,,,,,,,,,0,16,16,16,1,,,,,,,,,,,,,,,,,,,,,,,,,,,,,,,
,,,,,,,,,,,,,,,,,,,,,,,20,female,2020-08-06_11h59.37.834,torte-2b,2020.1.3,MacIntel,60,13396,,,,,,,,,,,,,,,,,,,7,,,,,,,,,,,,0,17,17,17,1,,,,,,,,,,,,,,,,,,,,,,,,,,,,,,,
,,,,,,,,,,,,,,,,,,,,,,,20,female,2020-08-06_11h59.37.834,torte-2b,2020.1.3,MacIntel,60,13396,,,,,,,,,,,,,space,,,,,,4,0.658,,,,,,,,,,,0,18,18,18,1,,,,,,,,,,,,,,,,,,,,,,,,,,,,,,,
,,,,,,,,,,,,,,,,,,,,,,,20,female,2020-08-06_11h59.37.834,torte-2b,2020.1.3,MacIntel,60,13396,,,,,,,,,,,,,,,,,,,7,,,,,,,,,,,,0,19,19,19,1,,,,,,,,,,,,,,,,,,,,,,,,,,,,,,,
,,,,,,,,,,,,,,,,,,,,,,,20,female,2020-08-06_11h59.37.834,torte-2b,2020.1.3,MacIntel,60,13396,,,,,,,,,,,,,,,,,,,7,,,,,,,,,,,,0,20,20,20,1,,,,,,,,,,,,,,,,,,,,,,,,,,,,,,,
,,,,,,,,,,,,,,,,,,,,,,,20,female,2020-08-06_11h59.37.834,torte-2b,2020.1.3,MacIntel,60,13396,,,,,,,,,,,,,space,,,,,,7,0.564,,,,,,,,,,,0,21,21,21,1,,,,,,,,,,,,,,,,,,,,,,,,,,,,,,,
,,,,,,,,,,,,,,,,,,,,,,,20,female,2020-08-06_11h59.37.834,torte-2b,2020.1.3,MacIntel,60,13396,,,,,,,,,,,,,,,,,,,7,,,,,,,,,,,,0,22,22,22,1,,,,,,,,,,,,,,,,,,,,,,,,,,,,,,,
,,,,,,,,,,,,,,,,,,,,,,,20,female,2020-08-06_11h59.37.834,torte-2b,2020.1.3,MacIntel,60,13396,,,,,,,,,,,,,,,,,,,1,,,,,,,,,,,,0,23,23,23,1,,,,,,,,,,,,,,,,,,,,,,,,,,,,,,,
,,,,,,,,,,,,,,,,,,,,,,,20,female,2020-08-06_11h59.37.834,torte-2b,2020.1.3,MacIntel,60,13396,,,,,,,,,,,,,space,,,,,,7,0.381,,,,,,,,,,,0,24,24,24,1,,,,,,,,,,,,,,,,,,,,,,,,,,,,,,,
,,,,,,,,,,,,,,,,,,,,,,,20,female,2020-08-06_11h59.37.834,torte-2b,2020.1.3,MacIntel,60,13396,,,,,,,,,,,,,space,,,,,,1,0.367,,,,,,,,,,,0,25,25,25,1,,,,,,,,,,,,,,,,,,,,,,,,,,,,,,,
,,,,,,,,,,,,,,,,,,,,,,,20,female,2020-08-06_11h59.37.834,torte-2b,2020.1.3,MacIntel,60,13396,,,,,,,,,,,,,space,,,,,,7,0.39,,,,,,,,,,,0,26,26,26,1,,,,,,,,,,,,,,,,,,,,,,,,,,,,,,,
,,,,,,,,,,,,,,,,,,,,,,,20,female,2020-08-06_11h59.37.834,torte-2b,2020.1.3,MacIntel,60,13396,,,,,,,,,,,,,,,,,,,2,,,,,,,,,,,,0,27,27,27,1,,,,,,,,,,,,,,,,,,,,,,,,,,,,,,,
,,,,,,,,,,,,,,,,,,,,,,,20,female,2020-08-06_11h59.37.834,torte-2b,2020.1.3,MacIntel,60,13396,,,,,,,,,,,,,,,,,,,5,,,,,,,,,,,,0,28,28,28,1,,,,,,,,,,,,,,,,,,,,,,,,,,,,,,,
,,,,,,,,,,,,,,,,,,,,,,,20,female,2020-08-06_11h59.37.834,torte-2b,2020.1.3,MacIntel,60,13396,,,,,,,,,,,,,,,,,,,5,,,,,,,,,,,,0,29,29,29,1,,,,,,,,,,,,,,,,,,,,,,,,,,,,,,,
,,,,,,,,,,,,,,,,,,,,,,,20,female,2020-08-06_11h59.37.834,torte-2b,2020.1.3,MacIntel,60,13396,,,,,,,,,,,,,space,,,,,,5,0.382,,,,,,,,,,,0,30,30,30,1,,,,,,,,,,,,,,,,,,,,,,,,,,,,,,,
,,,,,,,,,,,,,,,,,,,,,,,20,female,2020-08-06_11h59.37.834,torte-2b,2020.1.3,MacIntel,60,13396,,,,,,,,,,,,,,,,,,,1,,,,,,,,,,,,0,31,31,31,1,,,,,,,,,,,,,,,,,,,,,,,,,,,,,,,
,,,,,,,,,,,,,,,,,,,,,,,20,female,2020-08-06_11h59.37.834,torte-2b,2020.1.3,MacIntel,60,13396,,,,,,,,,,,,,space,,,,,,5,0.683,,,,,,,,,,,0,32,32,32,1,,,,,,,,,,,,,,,,,,,,,,,,,,,,,,,
,,,,,,,,,,,,,,,,,,,,,,,20,female,2020-08-06_11h59.37.834,torte-2b,2020.1.3,MacIntel,60,13396,,,,,,,,,,,,,,,,,,,3,,,,,,,,,,,,0,33,33,33,1,,,,,,,,,,,,,,,,,,,,,,,,,,,,,,,
,,,,,,,,,,,,,,,,,,,,,,,20,female,2020-08-06_11h59.37.834,torte-2b,2020.1.3,MacIntel,60,13396,,,,,,,,,,,,,,,,,,,3,,,,,,,,,,,,0,34,34,34,1,,,,,,,,,,,,,,,,,,,,,,,,,,,,,,,
,,,,,,,,,,,,l,Incorrect,,,,,,t1.png,t2.png,1,0.90025,20,female,2020-08-06_11h59.37.834,torte-2b,2020.1.3,MacIntel,60,13396,1.335,space,1.654,,,,,,,,,,,,,,,,,,,,,,,,,,,,,,,,,space,22.805,0,0,0,6,1,,,,,,,,,,,,,,,,,,,,,,,,
,,,,,,,,,,,,l,Correct!,,,,,,t4.png,t1.png,3,0.059078,20,female,2020-08-06_11h59.37.834,torte-2b,2020.1.3,MacIntel,60,13396,0.814,,,,,,,,,,,,,,,,,,,,,,,,,,,,,,,,,,,,,0,1,1,57,1,,,,,,,,,,,,,,,,,,,,,,,,
,,,,,,,,,,,,l,Incorrect,,,,,,t1.png,t1.png,0,0.97829,20,female,2020-08-06_11h59.37.834,torte-2b,2020.1.3,MacIntel,60,13396,0.724,,,,,,,,,,,,,,,,,,,,,,,,,,,,,,,,,,,,,0,2,2,114,1,,,,,,,,,,,,,,,,,,,,,,,,
,,,,,,,,,,,,a,Correct!,,,,,,t5.png,t5.png,0,0.978,20,female,2020-08-06_11h59.37.834,torte-2b,2020.1.3,MacIntel,60,13396,1.429,,,,,,,,,,,,,,,,,,,,,,,,,,,,,,,,,,,,,0,3,3,51,1,,,,,,,,,,,,,,,,,,,,,,,,
,,,,,,,,,,,,a,Correct!,,,,,,t1.png,t1.png,0,0.97829,20,female,2020-08-06_11h59.37.834,torte-2b,2020.1.3,MacIntel,60,13396,1.174,,,,,,,,,,,,,,,,,,,,,,,,,,,,,,,,,,,,,0,4,4,4,1,,,,,,,,,,,,,,,,,,,,,,,,
,,,,,,,,,,,,l,Correct!,,,,,,t2.png,t1.png,1,0.90025,20,female,2020-08-06_11h59.37.834,torte-2b,2020.1.3,MacIntel,60,13396,0.878,,,,,,,,,,,,,,,,,,,,,,,,,,,,,,,,,,,,,0,5,5,44,1,,,,,,,,,,,,,,,,,,,,,,,,
,,,,,,,,,,,,a,Correct!,,,,,,t1.png,t1.png,0,0.978,20,female,2020-08-06_11h59.37.834,torte-2b,2020.1.3,MacIntel,60,13396,0.7,,,,,,,,,,,,,,,,,,,,,,,,,,,,,,,,,,,,,0,6,6,22,1,,,,,,,,,,,,,,,,,,,,,,,,
,,,,,,,,,,,,l,Correct!,,,,,,t2.png,t5.png,3,0.0000131,20,female,2020-08-06_11h59.37.834,torte-2b,2020.1.3,MacIntel,60,13396,0.902,,,,,,,,,,,,,,,,,,,,,,,,,,,,,,,,,,,,,0,7,7,39,1,,,,,,,,,,,,,,,,,,,,,,,,
,,,,,,,,,,,,a,Incorrect,,,,,,t5.png,t2.png,3,0.0000131,20,female,2020-08-06_11h59.37.834,torte-2b,2020.1.3,MacIntel,60,13396,0.807,,,,,,,,,,,,,,,,,,,,,,,,,,,,,,,,,,,,,0,8,8,82,1,,,,,,,,,,,,,,,,,,,,,,,,
,,,,,,,,,,,,l,Incorrect,,,,,,t4.png,t5.png,1,0.90025,20,female,2020-08-06_11h59.37.834,torte-2b,2020.1.3,MacIntel,60,13396,1.085,,,,,,,,,,,,,,,,,,,,,,,,,,,,,,,,,,,,,0,9,9,33,1,,,,,,,,,,,,,,,,,,,,,,,,
,,,,,,,,,,,,a,Incorrect,,,,,,t5.png,t2.png,3,0.0000131,20,female,2020-08-06_11h59.37.834,torte-2b,2020.1.3,MacIntel,60,13396,0.723,,,,,,,,,,,,,,,,,,,,,,,,,,,,,,,,,,,,,0,10,10,66,1,,,,,,,,,,,,,,,,,,,,,,,,
,,,,,,,,,,,,l,Correct!,,,,,,t5.png,t1.png,4,9.55E-11,20,female,2020-08-06_11h59.37.834,torte-2b,2020.1.3,MacIntel,60,13396,0.535,,,,,,,,,,,,,,,,,,,,,,,,,,,,,,,,,,,,,0,11,11,15,1,,,,,,,,,,,,,,,,,,,,,,,,
,,,,,,,,,,,,l,Correct!,,,,,,t1.png,t4.png,3,0.0000131,20,female,2020-08-06_11h59.37.834,torte-2b,2020.1.3,MacIntel,60,13396,1.021,,,,,,,,,,,,,,,,,,,,,,,,,,,,,,,,,,,,,0,12,12,23,1,,,,,,,,,,,,,,,,,,,,,,,,
,,,,,,,,,,,,l,Correct!,,,,,,t2.png,t5.png,3,0.0000131,20,female,2020-08-06_11h59.37.834,torte-2b,2020.1.3,MacIntel,60,13396,0.759,,,,,,,,,,,,,,,,,,,,,,,,,,,,,,,,,,,,,0,13,13,54,1,,,,,,,,,,,,,,,,,,,,,,,,
,,,,,,,,,,,,l,Correct!,,,,,,t1.png,t3.png,2,0.056466,20,female,2020-08-06_11h59.37.834,torte-2b,2020.1.3,MacIntel,60,13396,1.382,,,,,,,,,,,,,,,,,,,,,,,,,,,,,,,,,,,,,0,14,14,32,1,,,,,,,,,,,,,,,,,,,,,,,,
,,,,,,,,,,,,a,Correct!,,,,,,t5.png,t5.png,0,0.97829,20,female,2020-08-06_11h59.37.834,torte-2b,2020.1.3,MacIntel,60,13396,0.736,,,,,,,,,,,,,,,,,,,,,,,,,,,,,,,,,,,,,0,15,15,77,1,,,,,,,,,,,,,,,,,,,,,,,,
,,,,,,,,,,,,a,Correct!,,,,,,t5.png,t4.png,1,0.90025,20,female,2020-08-06_11h59.37.834,torte-2b,2020.1.3,MacIntel,60,13396,1.174,,,,,,,,,,,,,,,,,,,,,,,,,,,,,,,,,,,,,0,16,16,25,1,,,,,,,,,,,,,,,,,,,,,,,,
,,,,,,,,,,,,l,Correct!,,,,,,t4.png,t1.png,3,0.059078,20,female,2020-08-06_11h59.37.834,torte-2b,2020.1.3,MacIntel,60,13396,0.606,,,,,,,,,,,,,,,,,,,,,,,,,,,,,,,,,,,,,0,17,17,75,1,,,,,,,,,,,,,,,,,,,,,,,,
,,,,,,,,,,,,l,Correct!,,,,,,t4.png,t1.png,3,0.059078,20,female,2020-08-06_11h59.37.834,torte-2b,2020.1.3,MacIntel,60,13396,0.548,,,,,,,,,,,,,,,,,,,,,,,,,,,,,,,,,,,,,0,18,18,73,1,,,,,,,,,,,,,,,,,,,,,,,,
,,,,,,,,,,,,a,Correct!,,,,,,t5.png,t4.png,1,0.90025,20,female,2020-08-06_11h59.37.834,torte-2b,2020.1.3,MacIntel,60,13396,0.743,,,,,,,,,,,,,,,,,,,,,,,,,,,,,,,,,,,,,0,19,19,38,1,,,,,,,,,,,,,,,,,,,,,,,,
,,,,,,,,,,,,l,Correct!,,,,,,t3.png,t1.png,2,0.0565,20,female,2020-08-06_11h59.37.834,torte-2b,2020.1.3,MacIntel,60,13396,0.552,,,,,,,,,,,,,,,,,,,,,,,,,,,,,,,,,,,,,0,20,20,104,1,,,,,,,,,,,,,,,,,,,,,,,,
,,,,,,,,,,,,l,Correct!,,,,,,t1.png,t5.png,4,9.55E-11,20,female,2020-08-06_11h59.37.834,torte-2b,2020.1.3,MacIntel,60,13396,0.824,,,,,,,,,,,,,,,,,,,,,,,,,,,,,,,,,,,,,0,21,21,20,1,,,,,,,,,,,,,,,,,,,,,,,,
,,,,,,,,,,,,l,Incorrect,,,,,,t1.png,t1.png,0,0.978,20,female,2020-08-06_11h59.37.834,torte-2b,2020.1.3,MacIntel,60,13396,0.566,,,,,,,,,,,,,,,,,,,,,,,,,,,,,,,,,,,,,0,22,22,13,1,,,,,,,,,,,,,,,,,,,,,,,,
,,,,,,,,,,,,l,Correct!,,,,,,t2.png,t5.png,3,0.0000131,20,female,2020-08-06_11h59.37.834,torte-2b,2020.1.3,MacIntel,60,13396,0.901,,,,,,,,,,,,,,,,,,,,,,,,,,,,,,,,,,,,,0,23,23,46,1,,,,,,,,,,,,,,,,,,,,,,,,
,,,,,,,,,,,,l,Correct!,,,,,,t3.png,t1.png,2,0.056466,20,female,2020-08-06_11h59.37.834,torte-2b,2020.1.3,MacIntel,60,13396,0.535,,,,,,,,,,,,,,,,,,,,,,,,,,,,,,,,,,,,,0,24,24,72,1,,,,,,,,,,,,,,,,,,,,,,,,
,,,,,,,,,,,,l,Incorrect,,,,,,t3.png,t4.png,1,0.90855,20,female,2020-08-06_11h59.37.834,torte-2b,2020.1.3,MacIntel,60,13396,0.721,,,,,,,,,,,,,,,,,,,,,,,,,,,,,,,,,,,,,0,25,25,58,1,,,,,,,,,,,,,,,,,,,,,,,,
,,,,,,,,,,,,a,Correct!,,,,,,t4.png,t4.png,0,0.98115,20,female,2020-08-06_11h59.37.834,torte-2b,2020.1.3,MacIntel,60,13396,0.95,,,,,,,,,,,,,,,,,,,,,,,,,,,,,,,,,,,,,0,26,26,19,1,,,,,,,,,,,,,,,,,,,,,,,,
,,,,,,,,,,,,l,Correct!,,,,,,t1.png,t3.png,2,0.056466,20,female,2020-08-06_11h59.37.834,torte-2b,2020.1.3,MacIntel,60,13396,0.858,,,,,,,,,,,,,,,,,,,,,,,,,,,,,,,,,,,,,0,27,27,24,1,,,,,,,,,,,,,,,,,,,,,,,,
,,,,,,,,,,,,l,Incorrect,,,,,,t4.png,t5.png,1,0.90025,20,female,2020-08-06_11h59.37.834,torte-2b,2020.1.3,MacIntel,60,13396,1.173,,,,,,,,,,,,,,,,,,,,,,,,,,,,,,,,,,,,,0,28,28,86,1,,,,,,,,,,,,,,,,,,,,,,,,
,,,,,,,,,,,,a,Correct!,,,,,,t5.png,t4.png,1,0.90025,20,female,2020-08-06_11h59.37.834,torte-2b,2020.1.3,MacIntel,60,13396,0.686,,,,,,,,,,,,,,,,,,,,,,,,,,,,,,,,,,,,,0,29,29,14,1,,,,,,,,,,,,,,,,,,,,,,,,
,,,,,,,,,,,,a,Incorrect,,,,,,t5.png,t2.png,3,0.0000131,20,female,2020-08-06_11h59.37.834,torte-2b,2020.1.3,MacIntel,60,13396,0.644,,,,,,,,,,,,,,,,,,,,,,,,,,,,,,,,,,,,,0,30,30,48,1,,,,,,,,,,,,,,,,,,,,,,,,
,,,,,,,,,,,,l,Correct!,,,,,,t3.png,t5.png,2,0.056466,20,female,2020-08-06_11h59.37.834,torte-2b,2020.1.3,MacIntel,60,13396,0.695,,,,,,,,,,,,,,,,,,,,,,,,,,,,,,,,,,,,,0,31,31,78,1,,,,,,,,,,,,,,,,,,,,,,,,
,,,,,,,,,,,,a,Incorrect,,,,,,t5.png,t2.png,3,0.0000131,20,female,2020-08-06_11h59.37.834,torte-2b,2020.1.3,MacIntel,60,13396,0.901,,,,,,,,,,,,,,,,,,,,,,,,,,,,,,,,,,,,,0,32,32,43,1,,,,,,,,,,,,,,,,,,,,,,,,
,,,,,,,,,,,,a,Correct!,,,,,,t5.png,t4.png,1,0.9,20,female,2020-08-06_11h59.37.834,torte-2b,2020.1.3,MacIntel,60,13396,1.056,,,,,,,,,,,,,,,,,,,,,,,,,,,,,,,,,,,,,0,33,33,55,1,,,,,,,,,,,,,,,,,,,,,,,,
,,,,,,,,,,,,l,Correct!,,,,,,t1.png,t3.png,2,0.0565,20,female,2020-08-06_11h59.37.834,torte-2b,2020.1.3,MacIntel,60,13396,0.782,,,,,,,,,,,,,,,,,,,,,,,,,,,,,,,,,,,,,0,34,34,12,1,,,,,,,,,,,,,,,,,,,,,,,,
,,,,,,,,,,,,a,Correct!,,,,,,t2.png,t2.png,0,0.98115,20,female,2020-08-06_11h59.37.834,torte-2b,2020.1.3,MacIntel,60,13396,1.188,,,,,,,,,,,,,,,,,,,,,,,,,,,,,,,,,,,,,0,35,35,7,1,,,,,,,,,,,,,,,,,,,,,,,,
,,,,,,,,,,,,l,Incorrect,,,,,,t3.png,t4.png,1,0.90855,20,female,2020-08-06_11h59.37.834,torte-2b,2020.1.3,MacIntel,60,13396,0.9,,,,,,,,,,,,,,,,,,,,,,,,,,,,,,,,,,,,,0,36,36,5,1,,,,,,,,,,,,,,,,,,,,,,,,
,,,,,,,,,,,,l,Correct!,,,,,,t3.png,t5.png,2,0.056466,20,female,2020-08-06_11h59.37.834,torte-2b,2020.1.3,MacIntel,60,13396,0.786,,,,,,,,,,,,,,,,,,,,,,,,,,,,,,,,,,,,,0,37,37,45,1,,,,,,,,,,,,,,,,,,,,,,,,
,,,,,,,,,,,,l,Correct!,,,,,,t1.png,t3.png,2,0.0565,20,female,2020-08-06_11h59.37.834,torte-2b,2020.1.3,MacIntel,60,13396,0.861,,,,,,,,,,,,,,,,,,,,,,,,,,,,,,,,,,,,,0,38,38,42,1,,,,,,,,,,,,,,,,,,,,,,,,
,,,,,,,,,,,,l,Incorrect,,,,,,t2.png,t3.png,1,0.90855,20,female,2020-08-06_11h59.37.834,torte-2b,2020.1.3,MacIntel,60,13396,0.81,,,,,,,,,,,,,,,,,,,,,,,,,,,,,,,,,,,,,0,39,39,64,1,,,,,,,,,,,,,,,,,,,,,,,,
,,,,,,,,,,,,a,Correct!,,,,,,t5.png,t5.png,0,0.978,20,female,2020-08-06_11h59.37.834,torte-2b,2020.1.3,MacIntel,60,13396,0.658,,,,,,,,,,,,,,,,,,,,,,,,,,,,,,,,,,,,,0,40,40,116,1,,,,,,,,,,,,,,,,,,,,,,,,
,,,,,,,,,,,,a,Correct!,,,,,,t2.png,t1.png,1,0.9,20,female,2020-08-06_11h59.37.834,torte-2b,2020.1.3,MacIntel,60,13396,0.981,,,,,,,,,,,,,,,,,,,,,,,,,,,,,,,,,,,,,0,41,41,93,1,,,,,,,,,,,,,,,,,,,,,,,,
,,,,,,,,,,,,a,Incorrect,,,,,,t5.png,t3.png,2,0.056466,20,female,2020-08-06_11h59.37.834,torte-2b,2020.1.3,MacIntel,60,13396,0.91,,,,,,,,,,,,,,,,,,,,,,,,,,,,,,,,,,,,,0,42,42,26,1,,,,,,,,,,,,,,,,,,,,,,,,
,,,,,,,,,,,,l,Correct!,,,,,,t3.png,t5.png,2,0.056466,20,female,2020-08-06_11h59.37.834,torte-2b,2020.1.3,MacIntel,60,13396,0.852,,,,,,,,,,,,,,,,,,,,,,,,,,,,,,,,,,,,,0,43,43,60,1,,,,,,,,,,,,,,,,,,,,,,,,
,,,,,,,,,,,,a,Correct!,,,,,,t1.png,t1.png,0,0.97829,20,female,2020-08-06_11h59.37.834,torte-2b,2020.1.3,MacIntel,60,13396,0.956,,,,,,,,,,,,,,,,,,,,,,,,,,,,,,,,,,,,,0,44,44,110,1,,,,,,,,,,,,,,,,,,,,,,,,
,,,,,,,,,,,,l,Incorrect,,,,,,t2.png,t1.png,1,0.90025,20,female,2020-08-06_11h59.37.834,torte-2b,2020.1.3,MacIntel,60,13396,0.852,,,,,,,,,,,,,,,,,,,,,,,,,,,,,,,,,,,,,0,45,45,105,1,,,,,,,,,,,,,,,,,,,,,,,,
,,,,,,,,,,,,l,Incorrect,,,,,,t1.png,t2.png,1,0.9,20,female,2020-08-06_11h59.37.834,torte-2b,2020.1.3,MacIntel,60,13396,1.218,,,,,,,,,,,,,,,,,,,,,,,,,,,,,,,,,,,,,0,46,46,61,1,,,,,,,,,,,,,,,,,,,,,,,,
,,,,,,,,,,,,l,Correct!,,,,,,t5.png,t1.png,4,9.55E-11,20,female,2020-08-06_11h59.37.834,torte-2b,2020.1.3,MacIntel,60,13396,0.633,,,,,,,,,,,,,,,,,,,,,,,,,,,,,,,,,,,,,0,47,47,101,1,,,,,,,,,,,,,,,,,,,,,,,,
,,,,,,,,,,,,l,Correct!,,,,,,t5.png,t1.png,4,9.55E-11,20,female,2020-08-06_11h59.37.834,torte-2b,2020.1.3,MacIntel,60,13396,0.721,,,,,,,,,,,,,,,,,,,,,,,,,,,,,,,,,,,,,0,48,48,117,1,,,,,,,,,,,,,,,,,,,,,,,,
,,,,,,,,,,,,l,Correct!,,,,,,t1.png,t5.png,4,9.55E-11,20,female,2020-08-06_11h59.37.834,torte-2b,2020.1.3,MacIntel,60,13396,0.844,,,,,,,,,,,,,,,,,,,,,,,,,,,,,,,,,,,,,0,49,49,30,1,,,,,,,,,,,,,,,,,,,,,,,,
,,,,,,,,,,,,a,Incorrect,,,,,,t4.png,t1.png,3,0.0000131,20,female,2020-08-06_11h59.37.834,torte-2b,2020.1.3,MacIntel,60,13396,0.573,,,,,,,,,,,,,,,,,,,,,,,,,,,,,,,,,,,,,0,50,50,91,1,,,,,,,,,,,,,,,,,,,,,,,,
,,,,,,,,,,,,a,Incorrect,,,,,,t5.png,t3.png,2,0.056466,20,female,2020-08-06_11h59.37.834,torte-2b,2020.1.3,MacIntel,60,13396,0.606,,,,,,,,,,,,,,,,,,,,,,,,,,,,,,,,,,,,,0,51,51,27,1,,,,,,,,,,,,,,,,,,,,,,,,
,,,,,,,,,,,,l,Correct!,,,,,,t3.png,t1.png,2,0.0565,20,female,2020-08-06_11h59.37.834,torte-2b,2020.1.3,MacIntel,60,13396,0.704,,,,,,,,,,,,,,,,,,,,,,,,,,,,,,,,,,,,,0,52,52,40,1,,,,,,,,,,,,,,,,,,,,,,,,
,,,,,,,,,,,,a,Correct!,,,,,,t4.png,t3.png,1,0.90855,20,female,2020-08-06_11h59.37.834,torte-2b,2020.1.3,MacIntel,60,13396,0.775,,,,,,,,,,,,,,,,,,,,,,,,,,,,,,,,,,,,,0,53,53,11,1,,,,,,,,,,,,,,,,,,,,,,,,
,,,,,,,,,,,,a,Correct!,,,,,,t4.png,t5.png,1,0.90025,20,female,2020-08-06_11h59.37.834,torte-2b,2020.1.3,MacIntel,60,13396,0.759,,,,,,,,,,,,,,,,,,,,,,,,,,,,,,,,,,,,,0,54,54,21,1,,,,,,,,,,,,,,,,,,,,,,,,
,,,,,,,,,,,,l,Correct!,,,,,,t4.png,t1.png,3,0.0000131,20,female,2020-08-06_11h59.37.834,torte-2b,2020.1.3,MacIntel,60,13396,0.588,,,,,,,,,,,,,,,,,,,,,,,,,,,,,,,,,,,,,0,55,55,49,1,,,,,,,,,,,,,,,,,,,,,,,,
,,,,,,,,,,,,a,Correct!,,,,,,t2.png,t2.png,0,0.981,20,female,2020-08-06_11h59.37.834,torte-2b,2020.1.3,MacIntel,60,13396,0.916,,,,,,,,,,,,,,,,,,,,,,,,,,,,,,,,,,,,,0,56,56,98,1,,,,,,,,,,,,,,,,,,,,,,,,
,,,,,,,,,,,,l,Correct!,,,,,,t1.png,t3.png,2,0.0565,20,female,2020-08-06_11h59.37.834,torte-2b,2020.1.3,MacIntel,60,13396,0.883,,,,,,,,,,,,,,,,,,,,,,,,,,,,,,,,,,,,,0,57,57,95,1,,,,,,,,,,,,,,,,,,,,,,,,
,,,,,,,,,,,,l,Incorrect,,,,,,t2.png,t3.png,1,0.90855,20,female,2020-08-06_11h59.37.834,torte-2b,2020.1.3,MacIntel,60,13396,0.676,,,,,,,,,,,,,,,,,,,,,,,,,,,,,,,,,,,,,0,58,58,113,1,,,,,,,,,,,,,,,,,,,,,,,,
,,,,,,,,,,,,l,Incorrect,,,,,,t2.png,t3.png,1,0.909,20,female,2020-08-06_11h59.37.834,torte-2b,2020.1.3,MacIntel,60,13396,0.744,,,,,,,,,,,,,,,,,,,,,,,,,,,,,,,,,,,,,0,59,59,8,1,,,,,,,,,,,,,,,,,,,,,,,,
,,,,,,,,,,,,a,Correct!,,,,,,t3.png,t2.png,1,0.90855,20,female,2020-08-06_11h59.37.834,torte-2b,2020.1.3,MacIntel,60,13396,0.816,,,,,,,,,,,,,,,,,,,,,,,,,,,,,,,,,,,,,0,60,60,108,1,,,,,,,,,,,,,,,,,,,,,,,,
,,,,,,,,,,,,a,Correct!,,,,,,t3.png,t2.png,1,0.90855,20,female,2020-08-06_11h59.37.834,torte-2b,2020.1.3,MacIntel,60,13396,0.645,,,,,,,,,,,,,,,,,,,,,,,,,,,,,,,,,,,,,0,61,61,94,1,,,,,,,,,,,,,,,,,,,,,,,,
,,,,,,,,,,,,a,Incorrect,,,,,,t5.png,t3.png,2,0.0565,20,female,2020-08-06_11h59.37.834,torte-2b,2020.1.3,MacIntel,60,13396,0.487,,,,,,,,,,,,,,,,,,,,,,,,,,,,,,,,,,,,,0,62,62,50,1,,,,,,,,,,,,,,,,,,,,,,,,
,,,,,,,,,,,,l,Correct!,,,,,,t1.png,t4.png,3,0.0000131,20,female,2020-08-06_11h59.37.834,torte-2b,2020.1.3,MacIntel,60,13396,0.614,,,,,,,,,,,,,,,,,,,,,,,,,,,,,,,,,,,,,0,63,63,16,1,,,,,,,,,,,,,,,,,,,,,,,,
,,,,,,,,,,,,l,Correct!,,,,,,t3.png,t5.png,2,0.056466,20,female,2020-08-06_11h59.37.834,torte-2b,2020.1.3,MacIntel,60,13396,0.629,,,,,,,,,,,,,,,,,,,,,,,,,,,,,,,,,,,,,0,64,64,47,1,,,,,,,,,,,,,,,,,,,,,,,,
,,,,,,,,,,,,a,Correct!,,,,,,t4.png,t4.png,0,0.98115,20,female,2020-08-06_11h59.37.834,torte-2b,2020.1.3,MacIntel,60,13396,0.67,,,,,,,,,,,,,,,,,,,,,,,,,,,,,,,,,,,,,0,65,65,52,1,,,,,,,,,,,,,,,,,,,,,,,,
,,,,,,,,,,,,l,Correct!,,,,,,t1.png,t5.png,4,9.55E-11,20,female,2020-08-06_11h59.37.834,torte-2b,2020.1.3,MacIntel,60,13396,0.494,,,,,,,,,,,,,,,,,,,,,,,,,,,,,,,,,,,,,0,66,66,3,1,,,,,,,,,,,,,,,,,,,,,,,,
,,,,,,,,,,,,l,Correct!,,,,,,t1.png,t4.png,3,0.0000131,20,female,2020-08-06_11h59.37.834,torte-2b,2020.1.3,MacIntel,60,13396,0.477,,,,,,,,,,,,,,,,,,,,,,,,,,,,,,,,,,,,,0,67,67,106,1,,,,,,,,,,,,,,,,,,,,,,,,
,,,,,,,,,,,,a,Correct!,,,,,,t2.png,t2.png,0,0.98115,20,female,2020-08-06_11h59.37.834,torte-2b,2020.1.3,MacIntel,60,13396,0.756,,,,,,,,,,,,,,,,,,,,,,,,,,,,,,,,,,,,,0,68,68,112,1,,,,,,,,,,,,,,,,,,,,,,,,
,,,,,,,,,,,,l,Correct!,,,,,,t2.png,t3.png,1,0.90855,20,female,2020-08-06_11h59.37.834,torte-2b,2020.1.3,MacIntel,60,13396,0.519,,,,,,,,,,,,,,,,,,,,,,,,,,,,,,,,,,,,,0,69,69,70,1,,,,,,,,,,,,,,,,,,,,,,,,
,,,,,,,,,,,,a,Correct!,,,,,,t3.png,t1.png,2,0.056466,20,female,2020-08-06_11h59.37.834,torte-2b,2020.1.3,MacIntel,60,13396,0.492,,,,,,,,,,,,,,,,,,,,,,,,,,,,,,,,,,,,,0,70,70,34,1,,,,,,,,,,,,,,,,,,,,,,,,
,,,,,,,,,,,,l,Incorrect,,,,,,t3.png,t4.png,1,0.90855,20,female,2020-08-06_11h59.37.834,torte-2b,2020.1.3,MacIntel,60,13396,0.832,,,,,,,,,,,,,,,,,,,,,,,,,,,,,,,,,,,,,0,71,71,111,1,,,,,,,,,,,,,,,,,,,,,,,,
,,,,,,,,,,,,l,Correct!,,,,,,t2.png,t5.png,3,0.0000131,20,female,2020-08-06_11h59.37.834,torte-2b,2020.1.3,MacIntel,60,13396,0.51,,,,,,,,,,,,,,,,,,,,,,,,,,,,,,,,,,,,,0,72,72,85,1,,,,,,,,,,,,,,,,,,,,,,,,
,,,,,,,,,,,,l,Incorrect,,,,,,t3.png,t4.png,1,0.90855,20,female,2020-08-06_11h59.37.834,torte-2b,2020.1.3,MacIntel,60,13396,0.661,,,,,,,,,,,,,,,,,,,,,,,,,,,,,,,,,,,,,0,73,73,9,1,,,,,,,,,,,,,,,,,,,,,,,,
,,,,,,,,,,,,a,Correct!,,,,,,t4.png,t3.png,1,0.90855,20,female,2020-08-06_11h59.37.834,torte-2b,2020.1.3,MacIntel,60,13396,0.607,,,,,,,,,,,,,,,,,,,,,,,,,,,,,,,,,,,,,0,74,74,56,1,,,,,,,,,,,,,,,,,,,,,,,,
,,,,,,,,,,,,a,Incorrect,,,,,,t4.png,t1.png,3,0.059078,20,female,2020-08-06_11h59.37.834,torte-2b,2020.1.3,MacIntel,60,13396,0.483,,,,,,,,,,,,,,,,,,,,,,,,,,,,,,,,,,,,,0,75,75,62,1,,,,,,,,,,,,,,,,,,,,,,,,
,,,,,,,,,,,,l,Correct!,,,,,,t1.png,t5.png,4,9.55E-11,20,female,2020-08-06_11h59.37.834,torte-2b,2020.1.3,MacIntel,60,13396,1.001,,,,,,,,,,,,,,,,,,,,,,,,,,,,,,,,,,,,,0,76,76,1,1,,,,,,,,,,,,,,,,,,,,,,,,
,,,,,,,,,,,,a,Correct!,,,,,,t4.png,t4.png,0,0.98115,20,female,2020-08-06_11h59.37.834,torte-2b,2020.1.3,MacIntel,60,13396,1.042,,,,,,,,,,,,,,,,,,,,,,,,,,,,,,,,,,,,,0,77,77,59,1,,,,,,,,,,,,,,,,,,,,,,,,
,,,,,,,,,,,,l,Correct!,,,,,,t1.png,t5.png,4,9.55E-11,20,female,2020-08-06_11h59.37.834,torte-2b,2020.1.3,MacIntel,60,13396,0.704,,,,,,,,,,,,,,,,,,,,,,,,,,,,,,,,,,,,,0,78,78,118,1,,,,,,,,,,,,,,,,,,,,,,,,
,,,,,,,,,,,,l,Correct!,,,,,,t1.png,t4.png,3,0.0000131,20,female,2020-08-06_11h59.37.834,torte-2b,2020.1.3,MacIntel,60,13396,0.96,,,,,,,,,,,,,,,,,,,,,,,,,,,,,,,,,,,,,0,79,79,74,1,,,,,,,,,,,,,,,,,,,,,,,,
,,,,,,,,,,,,a,Correct!,,,,,,t4.png,t4.png,0,0.98115,20,female,2020-08-06_11h59.37.834,torte-2b,2020.1.3,MacIntel,60,13396,0.919,,,,,,,,,,,,,,,,,,,,,,,,,,,,,,,,,,,,,0,80,80,68,1,,,,,,,,,,,,,,,,,,,,,,,,
,,,,,,,,,,,,l,Incorrect,,,,,,t2.png,t4.png,2,0.059078,20,female,2020-08-06_11h59.37.834,torte-2b,2020.1.3,MacIntel,60,13396,0.66,,,,,,,,,,,,,,,,,,,,,,,,,,,,,,,,,,,,,0,81,81,18,1,,,,,,,,,,,,,,,,,,,,,,,,
,,,,,,,,,,,,l,Correct!,,,,,,t4.png,t1.png,3,0.0000131,20,female,2020-08-06_11h59.37.834,torte-2b,2020.1.3,MacIntel,60,13396,0.565,,,,,,,,,,,,,,,,,,,,,,,,,,,,,,,,,,,,,0,82,82,76,1,,,,,,,,,,,,,,,,,,,,,,,,
,,,,,,,,,,,,l,Correct!,,,,,,t2.png,t4.png,2,0.059078,20,female,2020-08-06_11h59.37.834,torte-2b,2020.1.3,MacIntel,60,13396,0.83,,,,,,,,,,,,,,,,,,,,,,,,,,,,,,,,,,,,,0,83,83,84,1,,,,,,,,,,,,,,,,,,,,,,,,
,,,,,,,,,,,,l,Correct!,,,,,,t5.png,t1.png,4,9.55E-11,20,female,2020-08-06_11h59.37.834,torte-2b,2020.1.3,MacIntel,60,13396,0.592,,,,,,,,,,,,,,,,,,,,,,,,,,,,,,,,,,,,,0,84,84,31,1,,,,,,,,,,,,,,,,,,,,,,,,
,,,,,,,,,,,,l,Incorrect,,,,,,t5.png,t4.png,1,0.9,20,female,2020-08-06_11h59.37.834,torte-2b,2020.1.3,MacIntel,60,13396,1.519,,,,,,,,,,,,,,,,,,,,,,,,,,,,,,,,,,,,,0,85,85,92,1,,,,,,,,,,,,,,,,,,,,,,,,
,,,,,,,,,,,,l,Correct!,,,,,,t2.png,t4.png,2,0.059078,20,female,2020-08-06_11h59.37.834,torte-2b,2020.1.3,MacIntel,60,13396,0.632,,,,,,,,,,,,,,,,,,,,,,,,,,,,,,,,,,,,,0,86,86,97,1,,,,,,,,,,,,,,,,,,,,,,,,
,,,,,,,,,,,,a,Incorrect,,,,,,t5.png,t2.png,3,0.0000131,20,female,2020-08-06_11h59.37.834,torte-2b,2020.1.3,MacIntel,60,13396,0.767,,,,,,,,,,,,,,,,,,,,,,,,,,,,,,,,,,,,,0,87,87,83,1,,,,,,,,,,,,,,,,,,,,,,,,
,,,,,,,,,,,,l,Incorrect,,,,,,t2.png,t1.png,1,0.9,20,female,2020-08-06_11h59.37.834,torte-2b,2020.1.3,MacIntel,60,13396,0.609,,,,,,,,,,,,,,,,,,,,,,,,,,,,,,,,,,,,,0,88,88,100,1,,,,,,,,,,,,,,,,,,,,,,,,
,,,,,,,,,,,,l,Correct!,,,,,,t1.png,t4.png,3,0.0000131,20,female,2020-08-06_11h59.37.834,torte-2b,2020.1.3,MacIntel,60,13396,0.609,,,,,,,,,,,,,,,,,,,,,,,,,,,,,,,,,,,,,0,89,89,36,1,,,,,,,,,,,,,,,,,,,,,,,,
,,,,,,,,,,,,l,Correct!,,,,,,t3.png,t5.png,2,0.0565,20,female,2020-08-06_11h59.37.834,torte-2b,2020.1.3,MacIntel,60,13396,0.709,,,,,,,,,,,,,,,,,,,,,,,,,,,,,,,,,,,,,0,90,90,71,1,,,,,,,,,,,,,,,,,,,,,,,,
,,,,,,,,,,,,l,Correct!,,,,,,t3.png,t1.png,2,0.056466,20,female,2020-08-06_11h59.37.834,torte-2b,2020.1.3,MacIntel,60,13396,0.621,,,,,,,,,,,,,,,,,,,,,,,,,,,,,,,,,,,,,0,91,91,109,1,,,,,,,,,,,,,,,,,,,,,,,,
,,,,,,,,,,,,a,Correct!,,,,,,t3.png,t2.png,1,0.90855,20,female,2020-08-06_11h59.37.834,torte-2b,2020.1.3,MacIntel,60,13396,0.715,,,,,,,,,,,,,,,,,,,,,,,,,,,,,,,,,,,,,0,92,92,0,1,,,,,,,,,,,,,,,,,,,,,,,,
,,,,,,,,,,,,a,Correct!,,,,,,t5.png,t5.png,0,0.97829,20,female,2020-08-06_11h59.37.834,torte-2b,2020.1.3,MacIntel,60,13396,0.726,,,,,,,,,,,,,,,,,,,,,,,,,,,,,,,,,,,,,0,93,93,35,1,,,,,,,,,,,,,,,,,,,,,,,,
,,,,,,,,,,,,a,Correct!,,,,,,t4.png,t3.png,1,0.90855,20,female,2020-08-06_11h59.37.834,torte-2b,2020.1.3,MacIntel,60,13396,0.682,,,,,,,,,,,,,,,,,,,,,,,,,,,,,,,,,,,,,0,94,94,29,1,,,,,,,,,,,,,,,,,,,,,,,,
,,,,,,,,,,,,a,Correct!,,,,,,t3.png,t2.png,1,0.90855,20,female,2020-08-06_11h59.37.834,torte-2b,2020.1.3,MacIntel,60,13396,0.77,,,,,,,,,,,,,,,,,,,,,,,,,,,,,,,,,,,,,0,95,95,99,1,,,,,,,,,,,,,,,,,,,,,,,,
,,,,,,,,,,,,l,Incorrect,,,,,,t1.png,t2.png,1,0.9,20,female,2020-08-06_11h59.37.834,torte-2b,2020.1.3,MacIntel,60,13396,0.675,,,,,,,,,,,,,,,,,,,,,,,,,,,,,,,,,,,,,0,96,96,17,1,,,,,,,,,,,,,,,,,,,,,,,,
,,,,,,,,,,,,a,Correct!,,,,,,t4.png,t3.png,1,0.909,20,female,2020-08-06_11h59.37.834,torte-2b,2020.1.3,MacIntel,60,13396,0.565,,,,,,,,,,,,,,,,,,,,,,,,,,,,,,,,,,,,,0,97,97,107,1,,,,,,,,,,,,,,,,,,,,,,,,
,,,,,,,,,,,,l,Correct!,,,,,,t2.png,t4.png,2,0.059078,20,female,2020-08-06_11h59.37.834,torte-2b,2020.1.3,MacIntel,60,13396,0.565,,,,,,,,,,,,,,,,,,,,,,,,,,,,,,,,,,,,,0,98,98,53,1,,,,,,,,,,,,,,,,,,,,,,,,
,,,,,,,,,,,,l,Correct!,,,,,,t2.png,t3.png,1,0.90855,20,female,2020-08-06_11h59.37.834,torte-2b,2020.1.3,MacIntel,60,13396,0.732,,,,,,,,,,,,,,,,,,,,,,,,,,,,,,,,,,,,,0,99,99,79,1,,,,,,,,,,,,,,,,,,,,,,,,
,,,,,,,,,,,,a,Correct!,,,,,,t2.png,t2.png,0,0.98115,20,female,2020-08-06_11h59.37.834,torte-2b,2020.1.3,MacIntel,60,13396,0.793,,,,,,,,,,,,,,,,,,,,,,,,,,,,,,,,,,,,,0,100,100,90,1,,,,,,,,,,,,,,,,,,,,,,,,
,,,,,,,,,,,,l,Correct!,,,,,,t4.png,t1.png,3,0.0000131,20,female,2020-08-06_11h59.37.834,torte-2b,2020.1.3,MacIntel,60,13396,0.787,,,,,,,,,,,,,,,,,,,,,,,,,,,,,,,,,,,,,0,101,101,102,1,,,,,,,,,,,,,,,,,,,,,,,,
,,,,,,,,,,,,a,Correct!,,,,,,t2.png,t2.png,0,0.98115,20,female,2020-08-06_11h59.37.834,torte-2b,2020.1.3,MacIntel,60,13396,0.885,,,,,,,,,,,,,,,,,,,,,,,,,,,,,,,,,,,,,0,102,102,69,1,,,,,,,,,,,,,,,,,,,,,,,,
,,,,,,,,,,,,l,Incorrect,,,,,,t1.png,t2.png,1,0.9,20,female,2020-08-06_11h59.37.834,torte-2b,2020.1.3,MacIntel,60,13396,1.332,,,,,,,,,,,,,,,,,,,,,,,,,,,,,,,,,,,,,0,103,103,41,1,,,,,,,,,,,,,,,,,,,,,,,,
,,,,,,,,,,,,a,Correct!,,,,,,t5.png,t5.png,0,0.97829,20,female,2020-08-06_11h59.37.834,torte-2b,2020.1.3,MacIntel,60,13396,0.903,,,,,,,,,,,,,,,,,,,,,,,,,,,,,,,,,,,,,0,104,104,2,1,,,,,,,,,,,,,,,,,,,,,,,,
,,,,,,,,,,,,l,Incorrect,,,,,,t4.png,t5.png,1,0.9,20,female,2020-08-06_11h59.37.834,torte-2b,2020.1.3,MacIntel,60,13396,1.334,,,,,,,,,,,,,,,,,,,,,,,,,,,,,,,,,,,,,0,105,105,81,1,,,,,,,,,,,,,,,,,,,,,,,,
,,,,,,,,,,,,l,Incorrect,,,,,,t4.png,t5.png,1,0.90025,20,female,2020-08-06_11h59.37.834,torte-2b,2020.1.3,MacIntel,60,13396,1.149,,,,,,,,,,,,,,,,,,,,,,,,,,,,,,,,,,,,,0,106,106,63,1,,,,,,,,,,,,,,,,,,,,,,,,
,,,,,,,,,,,,l,Incorrect,,,,,,t3.png,t4.png,1,0.90855,20,female,2020-08-06_11h59.37.834,torte-2b,2020.1.3,MacIntel,60,13396,0.79,,,,,,,,,,,,,,,,,,,,,,,,,,,,,,,,,,,,,0,107,107,103,1,,,,,,,,,,,,,,,,,,,,,,,,
,,,,,,,,,,,,a,Correct!,,,,,,t4.png,t4.png,0,0.98115,20,female,2020-08-06_11h59.37.834,torte-2b,2020.1.3,MacIntel,60,13396,1.243,,,,,,,,,,,,,,,,,,,,,,,,,,,,,,,,,,,,,0,108,108,88,1,,,,,,,,,,,,,,,,,,,,,,,,
,,,,,,,,,,,,a,Incorrect,,,,,,t4.png,t3.png,1,0.909,20,female,2020-08-06_11h59.37.834,torte-2b,2020.1.3,MacIntel,60,13396,0.795,,,,,,,,,,,,,,,,,,,,,,,,,,,,,,,,,,,,,0,109,109,119,1,,,,,,,,,,,,,,,,,,,,,,,,
,,,,,,,,,,,,l,Correct!,,,,,,t5.png,t1.png,4,9.55E-11,20,female,2020-08-06_11h59.37.834,torte-2b,2020.1.3,MacIntel,60,13396,0.549,,,,,,,,,,,,,,,,,,,,,,,,,,,,,,,,,,,,,0,110,110,89,1,,,,,,,,,,,,,,,,,,,,,,,,
,,,,,,,,,,,,,Too slow :(,,,,,,t3.png,t2.png,1,0.90855,20,female,2020-08-06_11h59.37.834,torte-2b,2020.1.3,MacIntel,60,13396,,,,,,,,,,,,,,,,,,,,,,,,,,,,,,,,,,,,,,0,111,111,10,1,,,,,,,,,,,,,,,,,,,,,,,,
,,,,,,,,,,,,l,Incorrect,,,,,,t1.png,t2.png,1,0.90025,20,female,2020-08-06_11h59.37.834,torte-2b,2020.1.3,MacIntel,60,13396,1.492,,,,,,,,,,,,,,,,,,,,,,,,,,,,,,,,,,,,,0,112,112,96,1,,,,,,,,,,,,,,,,,,,,,,,,
,,,,,,,,,,,,l,Correct!,,,,,,t2.png,t5.png,3,0.0000131,20,female,2020-08-06_11h59.37.834,torte-2b,2020.1.3,MacIntel,60,13396,0.726,,,,,,,,,,,,,,,,,,,,,,,,,,,,,,,,,,,,,0,113,113,115,1,,,,,,,,,,,,,,,,,,,,,,,,
,,,,,,,,,,,,l,Correct!,,,,,,t2.png,t4.png,2,0.059078,20,female,2020-08-06_11h59.37.834,torte-2b,2020.1.3,MacIntel,60,13396,0.991,,,,,,,,,,,,,,,,,,,,,,,,,,,,,,,,,,,,,0,114,114,67,1,,,,,,,,,,,,,,,,,,,,,,,,
,,,,,,,,,,,,a,Incorrect,,,,,,t5.png,t3.png,2,0.056466,20,female,2020-08-06_11h59.37.834,torte-2b,2020.1.3,MacIntel,60,13396,0.586,,,,,,,,,,,,,,,,,,,,,,,,,,,,,,,,,,,,,0,115,115,80,1,,,,,,,,,,,,,,,,,,,,,,,,
,,,,,,,,,,,,a,Incorrect,,,,,,t5.png,t3.png,2,0.056466,20,female,2020-08-06_11h59.37.834,torte-2b,2020.1.3,MacIntel,60,13396,0.484,,,,,,,,,,,,,,,,,,,,,,,,,,,,,,,,,,,,,0,116,116,37,1,,,,,,,,,,,,,,,,,,,,,,,,
,,,,,,,,,,,,l,Incorrect,,,,,,t2.png,t1.png,1,0.90025,20,female,2020-08-06_11h59.37.834,torte-2b,2020.1.3,MacIntel,60,13396,0.553,,,,,,,,,,,,,,,,,,,,,,,,,,,,,,,,,,,,,0,117,117,65,1,,,,,,,,,,,,,,,,,,,,,,,,
,,,,,,,,,,,,l,Correct!,,,,,,t4.png,t1.png,3,0.059078,20,female,2020-08-06_11h59.37.834,torte-2b,2020.1.3,MacIntel,60,13396,0.609,,,,,,,,,,,,,,,,,,,,,,,,,,,,,,,,,,,,,0,118,118,87,1,,,,,,,,,,,,,,,,,,,,,,,,
,,,,,,,,,,,,l,Correct!,,,,,,t4.png,t1.png,3,0.0000131,20,female,2020-08-06_11h59.37.834,torte-2b,2020.1.3,MacIntel,60,13396,0.568,,,,,,,,,,,,,,,,,,,,,,,,,,,,,,,,,,,,,0,119,119,28,1,,,,,,,,,,,,,,,,,,,,,,,,
,,,,,,,,,,,,,,,,,,,,,,,20,female,2020-08-06_11h59.37.834,torte-2b,2020.1.3,MacIntel,60,13396,,space,1.528,,,,,,,,,,,,,,,,,,,,,,,,,,,,,,,,,,,,,,,,-45,-191,1,0,0,s7,0,29,1,0,0,t2,203,-102,1,0,0,proceed,space,0.971,space,2.835,space,2.49
