key_resp_8.keys,key_resp_8.rt,key_resp_9.keys,key_resp_9.rt,key_resp_10.keys,key_resp_10.rt,key_resp_11.keys,key_resp_11.rt,key_resp_2.keys,key_resp_2.rt,key_resp_3.keys,key_resp_3.rt,key_resp.keys,Feedback,train.thisRepN,train.thisTrialN,train.thisN,train.thisIndex,train.ran,torta_sx,torta_dx,difference,probability,age,gender,date,expName,psychopyVersion,OS,frameRate,participant,key_resp.rt,key_resp_15.keys,key_resp_15.rt,key_resp_6.keys,key_resp_6.rt,test1.thisRepN,test1.thisTrialN,test1.thisN,test1.thisIndex,test1.ran,key_resp_4.keys,key_resp_4.rt,key_resp_5.keys,back1.thisRepN,back1.thisTrialN,back1.thisN,back1.thisIndex,back1.ran,letter,key_resp_5.rt,back2.thisRepN,back2.thisTrialN,back2.thisN,back2.thisIndex,back2.ran,back3.thisRepN,back3.thisTrialN,back3.thisN,back3.thisIndex,back3.ran,back4.thisRepN,back4.thisTrialN,back4.thisN,back4.thisIndex,back4.ran,key_resp_7.keys,key_resp_7.rt,test2.thisRepN,test2.thisTrialN,test2.thisN,test2.thisIndex,test2.ran,mouse.x,mouse.y,mouse.leftButton,mouse.midButton,mouse.rightButton,mouse.clicked_name,mouse_2.x,mouse_2.y,mouse_2.leftButton,mouse_2.midButton,mouse_2.rightButton,mouse_2.clicked_name,mouse_3.x,mouse_3.y,mouse_3.leftButton,mouse_3.midButton,mouse_3.rightButton,mouse_3.clicked_name,key_resp_12.keys,key_resp_12.rt,key_resp_13.keys,key_resp_13.rt,key_resp_14.keys,key_resp_14.rt
space,9.927,space,6.60083,space,2.769705,space,2.77703,space,10.899505,space,46.43502,,Too slow :(,0,0,0,85,1,t3.png,t2.png,1,0.90855,19,Female,2020-11-20_11h00.28.906,torte-2b,2020.1.3,Win32,60,13415,,,,,,,,,,,,,,,,,,,,,,,,,,,,,,,,,,,,,,,,,,,,,,,,,,,,,,,,,,,,,,,,,,
,,,,,,,,,,,,l,Incorrect,0,1,1,107,1,t1.png,t1.png,0,0.978,19,Female,2020-11-20_11h00.28.906,torte-2b,2020.1.3,Win32,60,13415,0.763115,,,,,,,,,,,,,,,,,,,,,,,,,,,,,,,,,,,,,,,,,,,,,,,,,,,,,,,,,,,,,,,,,
,,,,,,,,,,,,l,Incorrect,0,2,2,21,1,t5.png,t4.png,1,0.90025,19,Female,2020-11-20_11h00.28.906,torte-2b,2020.1.3,Win32,60,13415,0.44578,,,,,,,,,,,,,,,,,,,,,,,,,,,,,,,,,,,,,,,,,,,,,,,,,,,,,,,,,,,,,,,,,
,,,,,,,,,,,,l,Incorrect,0,3,3,97,1,t5.png,t5.png,0,0.97829,19,Female,2020-11-20_11h00.28.906,torte-2b,2020.1.3,Win32,60,13415,0.76906,,,,,,,,,,,,,,,,,,,,,,,,,,,,,,,,,,,,,,,,,,,,,,,,,,,,,,,,,,,,,,,,,
,,,,,,,,,,,,l,Incorrect,0,4,4,44,1,t2.png,t3.png,1,0.909,19,Female,2020-11-20_11h00.28.906,torte-2b,2020.1.3,Win32,60,13415,0.616555,,,,,,,,,,,,,,,,,,,,,,,,,,,,,,,,,,,,,,,,,,,,,,,,,,,,,,,,,,,,,,,,,
,,,,,,,,,,,,a,Incorrect,0,5,5,102,1,t4.png,t2.png,2,0.059078,19,Female,2020-11-20_11h00.28.906,torte-2b,2020.1.3,Win32,60,13415,0.59906,,,,,,,,,,,,,,,,,,,,,,,,,,,,,,,,,,,,,,,,,,,,,,,,,,,,,,,,,,,,,,,,,
,,,,,,,,,,,,a,Incorrect,0,6,6,14,1,t2.png,t4.png,2,0.059078,19,Female,2020-11-20_11h00.28.906,torte-2b,2020.1.3,Win32,60,13415,0.57183,,,,,,,,,,,,,,,,,,,,,,,,,,,,,,,,,,,,,,,,,,,,,,,,,,,,,,,,,,,,,,,,,
,,,,,,,,,,,,l,Incorrect,0,7,7,49,1,t4.png,t5.png,1,0.9,19,Female,2020-11-20_11h00.28.906,torte-2b,2020.1.3,Win32,60,13415,1.46647,,,,,,,,,,,,,,,,,,,,,,,,,,,,,,,,,,,,,,,,,,,,,,,,,,,,,,,,,,,,,,,,,
,,,,,,,,,,,,a,Correct!,0,8,8,23,1,t5.png,t4.png,1,0.90025,19,Female,2020-11-20_11h00.28.906,torte-2b,2020.1.3,Win32,60,13415,0.613935,,,,,,,,,,,,,,,,,,,,,,,,,,,,,,,,,,,,,,,,,,,,,,,,,,,,,,,,,,,,,,,,,
,,,,,,,,,,,,a,Incorrect,0,9,9,80,1,t1.png,t4.png,3,0.0000131,19,Female,2020-11-20_11h00.28.906,torte-2b,2020.1.3,Win32,60,13415,1.57065,,,,,,,,,,,,,,,,,,,,,,,,,,,,,,,,,,,,,,,,,,,,,,,,,,,,,,,,,,,,,,,,,
,,,,,,,,,,,,a,Correct!,0,10,10,58,1,t5.png,t4.png,1,0.90025,19,Female,2020-11-20_11h00.28.906,torte-2b,2020.1.3,Win32,60,13415,1.32505,,,,,,,,,,,,,,,,,,,,,,,,,,,,,,,,,,,,,,,,,,,,,,,,,,,,,,,,,,,,,,,,,
,,,,,,,,,,,,a,Correct!,0,11,11,39,1,t3.png,t2.png,1,0.90855,19,Female,2020-11-20_11h00.28.906,torte-2b,2020.1.3,Win32,60,13415,1.43046,,,,,,,,,,,,,,,,,,,,,,,,,,,,,,,,,,,,,,,,,,,,,,,,,,,,,,,,,,,,,,,,,
,,,,,,,,,,,,l,Correct!,0,12,12,5,1,t2.png,t4.png,2,0.059078,19,Female,2020-11-20_11h00.28.906,torte-2b,2020.1.3,Win32,60,13415,1.25485,,,,,,,,,,,,,,,,,,,,,,,,,,,,,,,,,,,,,,,,,,,,,,,,,,,,,,,,,,,,,,,,,
,,,,,,,,,,,,l,Correct!,0,13,13,32,1,t4.png,t5.png,1,0.90025,19,Female,2020-11-20_11h00.28.906,torte-2b,2020.1.3,Win32,60,13415,1.268935,,,,,,,,,,,,,,,,,,,,,,,,,,,,,,,,,,,,,,,,,,,,,,,,,,,,,,,,,,,,,,,,,
,,,,,,,,,,,,l,Incorrect,0,14,14,25,1,t5.png,t5.png,0,0.97829,19,Female,2020-11-20_11h00.28.906,torte-2b,2020.1.3,Win32,60,13415,1.48996,,,,,,,,,,,,,,,,,,,,,,,,,,,,,,,,,,,,,,,,,,,,,,,,,,,,,,,,,,,,,,,,,
,,,,,,,,,,,,a,Incorrect,0,15,15,88,1,t3.png,t1.png,2,0.056466,19,Female,2020-11-20_11h00.28.906,torte-2b,2020.1.3,Win32,60,13415,1.202345,,,,,,,,,,,,,,,,,,,,,,,,,,,,,,,,,,,,,,,,,,,,,,,,,,,,,,,,,,,,,,,,,
,,,,,,,,,,,,a,Correct!,0,16,16,77,1,t1.png,t1.png,0,0.97829,19,Female,2020-11-20_11h00.28.906,torte-2b,2020.1.3,Win32,60,13415,1.23048,,,,,,,,,,,,,,,,,,,,,,,,,,,,,,,,,,,,,,,,,,,,,,,,,,,,,,,,,,,,,,,,,
,,,,,,,,,,,,a,Correct!,0,17,17,15,1,t3.png,t2.png,1,0.90855,19,Female,2020-11-20_11h00.28.906,torte-2b,2020.1.3,Win32,60,13415,1.155945,,,,,,,,,,,,,,,,,,,,,,,,,,,,,,,,,,,,,,,,,,,,,,,,,,,,,,,,,,,,,,,,,
,,,,,,,,,,,,a,Correct!,0,18,18,10,1,t2.png,t3.png,1,0.90855,19,Female,2020-11-20_11h00.28.906,torte-2b,2020.1.3,Win32,60,13415,0.77235,,,,,,,,,,,,,,,,,,,,,,,,,,,,,,,,,,,,,,,,,,,,,,,,,,,,,,,,,,,,,,,,,
,,,,,,,,,,,,l,Incorrect,0,19,19,9,1,t4.png,t5.png,1,0.9,19,Female,2020-11-20_11h00.28.906,torte-2b,2020.1.3,Win32,60,13415,0.502235,,,,,,,,,,,,,,,,,,,,,,,,,,,,,,,,,,,,,,,,,,,,,,,,,,,,,,,,,,,,,,,,,
,,,,,,,,,,,,l,Correct!,0,20,20,30,1,t3.png,t1.png,2,0.056466,19,Female,2020-11-20_11h00.28.906,torte-2b,2020.1.3,Win32,60,13415,0.429905,,,,,,,,,,,,,,,,,,,,,,,,,,,,,,,,,,,,,,,,,,,,,,,,,,,,,,,,,,,,,,,,,
,,,,,,,,,,,,l,Correct!,0,21,21,55,1,t2.png,t4.png,2,0.059078,19,Female,2020-11-20_11h00.28.906,torte-2b,2020.1.3,Win32,60,13415,0.795985,,,,,,,,,,,,,,,,,,,,,,,,,,,,,,,,,,,,,,,,,,,,,,,,,,,,,,,,,,,,,,,,,
,,,,,,,,,,,,l,Correct!,0,22,22,17,1,t1.png,t4.png,3,0.0000131,19,Female,2020-11-20_11h00.28.906,torte-2b,2020.1.3,Win32,60,13415,0.931025,,,,,,,,,,,,,,,,,,,,,,,,,,,,,,,,,,,,,,,,,,,,,,,,,,,,,,,,,,,,,,,,,
,,,,,,,,,,,,l,Incorrect,0,23,23,43,1,t4.png,t2.png,2,0.059078,19,Female,2020-11-20_11h00.28.906,torte-2b,2020.1.3,Win32,60,13415,1.19641,,,,,,,,,,,,,,,,,,,,,,,,,,,,,,,,,,,,,,,,,,,,,,,,,,,,,,,,,,,,,,,,,
,,,,,,,,,,,,l,Incorrect,0,24,24,7,1,t4.png,t5.png,1,0.90025,19,Female,2020-11-20_11h00.28.906,torte-2b,2020.1.3,Win32,60,13415,0.674355,,,,,,,,,,,,,,,,,,,,,,,,,,,,,,,,,,,,,,,,,,,,,,,,,,,,,,,,,,,,,,,,,
,,,,,,,,,,,,l,Incorrect,0,25,25,63,1,t2.png,t3.png,1,0.909,19,Female,2020-11-20_11h00.28.906,torte-2b,2020.1.3,Win32,60,13415,0.95256,,,,,,,,,,,,,,,,,,,,,,,,,,,,,,,,,,,,,,,,,,,,,,,,,,,,,,,,,,,,,,,,,
,,,,,,,,,,,,l,Incorrect,0,26,26,45,1,t3.png,t2.png,1,0.90855,19,Female,2020-11-20_11h00.28.906,torte-2b,2020.1.3,Win32,60,13415,1.255165,,,,,,,,,,,,,,,,,,,,,,,,,,,,,,,,,,,,,,,,,,,,,,,,,,,,,,,,,,,,,,,,,
,,,,,,,,,,,,l,Correct!,0,27,27,83,1,t3.png,t1.png,2,0.056466,19,Female,2020-11-20_11h00.28.906,torte-2b,2020.1.3,Win32,60,13415,1.06103,,,,,,,,,,,,,,,,,,,,,,,,,,,,,,,,,,,,,,,,,,,,,,,,,,,,,,,,,,,,,,,,,
,,,,,,,,,,,,l,Incorrect,0,28,28,96,1,t1.png,t1.png,0,0.97829,19,Female,2020-11-20_11h00.28.906,torte-2b,2020.1.3,Win32,60,13415,0.525635,,,,,,,,,,,,,,,,,,,,,,,,,,,,,,,,,,,,,,,,,,,,,,,,,,,,,,,,,,,,,,,,,
,,,,,,,,,,,,a,Correct!,0,29,29,48,1,t5.png,t5.png,0,0.97829,19,Female,2020-11-20_11h00.28.906,torte-2b,2020.1.3,Win32,60,13415,0.49436,,,,,,,,,,,,,,,,,,,,,,,,,,,,,,,,,,,,,,,,,,,,,,,,,,,,,,,,,,,,,,,,,
,,,,,,,,,,,,a,Incorrect,0,30,30,89,1,t1.png,t4.png,3,0.0000131,19,Female,2020-11-20_11h00.28.906,torte-2b,2020.1.3,Win32,60,13415,0.589635,,,,,,,,,,,,,,,,,,,,,,,,,,,,,,,,,,,,,,,,,,,,,,,,,,,,,,,,,,,,,,,,,
,,,,,,,,,,,,a,Correct!,0,31,31,78,1,t1.png,t1.png,0,0.978,19,Female,2020-11-20_11h00.28.906,torte-2b,2020.1.3,Win32,60,13415,0.53967,,,,,,,,,,,,,,,,,,,,,,,,,,,,,,,,,,,,,,,,,,,,,,,,,,,,,,,,,,,,,,,,,
,,,,,,,,,,,,a,Correct!,0,32,32,2,1,t3.png,t2.png,1,0.90855,19,Female,2020-11-20_11h00.28.906,torte-2b,2020.1.3,Win32,60,13415,0.284665,,,,,,,,,,,,,,,,,,,,,,,,,,,,,,,,,,,,,,,,,,,,,,,,,,,,,,,,,,,,,,,,,
,,,,,,,,,,,,l,Incorrect,0,33,33,65,1,t4.png,t5.png,1,0.90025,19,Female,2020-11-20_11h00.28.906,torte-2b,2020.1.3,Win32,60,13415,0.27206,,,,,,,,,,,,,,,,,,,,,,,,,,,,,,,,,,,,,,,,,,,,,,,,,,,,,,,,,,,,,,,,,
,,,,,,,,,,,,l,Incorrect,0,34,34,13,1,t5.png,t5.png,0,0.97829,19,Female,2020-11-20_11h00.28.906,torte-2b,2020.1.3,Win32,60,13415,0.274445,,,,,,,,,,,,,,,,,,,,,,,,,,,,,,,,,,,,,,,,,,,,,,,,,,,,,,,,,,,,,,,,,
,,,,,,,,,,,,a,Correct!,0,35,35,62,1,t5.png,t5.png,0,0.978,19,Female,2020-11-20_11h00.28.906,torte-2b,2020.1.3,Win32,60,13415,0.335985,,,,,,,,,,,,,,,,,,,,,,,,,,,,,,,,,,,,,,,,,,,,,,,,,,,,,,,,,,,,,,,,,
,,,,,,,,,,,,a,Correct!,0,36,36,29,1,t5.png,t5.png,0,0.97829,19,Female,2020-11-20_11h00.28.906,torte-2b,2020.1.3,Win32,60,13415,0.521055,,,,,,,,,,,,,,,,,,,,,,,,,,,,,,,,,,,,,,,,,,,,,,,,,,,,,,,,,,,,,,,,,
,,,,,,,,,,,,l,Correct!,0,37,37,4,1,t1.png,t5.png,4,9.55E-11,19,Female,2020-11-20_11h00.28.906,torte-2b,2020.1.3,Win32,60,13415,0.77957,,,,,,,,,,,,,,,,,,,,,,,,,,,,,,,,,,,,,,,,,,,,,,,,,,,,,,,,,,,,,,,,,
,,,,,,,,,,,,l,Incorrect,0,38,38,42,1,t5.png,t4.png,1,0.90025,19,Female,2020-11-20_11h00.28.906,torte-2b,2020.1.3,Win32,60,13415,0.80702,,,,,,,,,,,,,,,,,,,,,,,,,,,,,,,,,,,,,,,,,,,,,,,,,,,,,,,,,,,,,,,,,
,,,,,,,,,,,,l,Correct!,0,39,39,115,1,t2.png,t4.png,2,0.059078,19,Female,2020-11-20_11h00.28.906,torte-2b,2020.1.3,Win32,60,13415,0.621025,,,,,,,,,,,,,,,,,,,,,,,,,,,,,,,,,,,,,,,,,,,,,,,,,,,,,,,,,,,,,,,,,
,,,,,,,,,,,,l,Incorrect,0,40,40,104,1,t2.png,t3.png,1,0.90855,19,Female,2020-11-20_11h00.28.906,torte-2b,2020.1.3,Win32,60,13415,0.630345,,,,,,,,,,,,,,,,,,,,,,,,,,,,,,,,,,,,,,,,,,,,,,,,,,,,,,,,,,,,,,,,,
,,,,,,,,,,,,a,Incorrect,0,41,41,90,1,t1.png,t5.png,4,9.55E-11,19,Female,2020-11-20_11h00.28.906,torte-2b,2020.1.3,Win32,60,13415,0.707545,,,,,,,,,,,,,,,,,,,,,,,,,,,,,,,,,,,,,,,,,,,,,,,,,,,,,,,,,,,,,,,,,
,,,,,,,,,,,,a,Incorrect,0,42,42,53,1,t3.png,t1.png,2,0.056466,19,Female,2020-11-20_11h00.28.906,torte-2b,2020.1.3,Win32,60,13415,0.852215,,,,,,,,,,,,,,,,,,,,,,,,,,,,,,,,,,,,,,,,,,,,,,,,,,,,,,,,,,,,,,,,,
,,,,,,,,,,,,a,Incorrect,0,43,43,38,1,t3.png,t1.png,2,0.056466,19,Female,2020-11-20_11h00.28.906,torte-2b,2020.1.3,Win32,60,13415,0.61691,,,,,,,,,,,,,,,,,,,,,,,,,,,,,,,,,,,,,,,,,,,,,,,,,,,,,,,,,,,,,,,,,
,,,,,,,,,,,,a,Incorrect,0,44,44,82,1,t5.png,t1.png,4,9.55E-11,19,Female,2020-11-20_11h00.28.906,torte-2b,2020.1.3,Win32,60,13415,0.84005,,,,,,,,,,,,,,,,,,,,,,,,,,,,,,,,,,,,,,,,,,,,,,,,,,,,,,,,,,,,,,,,,
,,,,,,,,,,,,a,Incorrect,0,45,45,3,1,t1.png,t5.png,4,9.55E-11,19,Female,2020-11-20_11h00.28.906,torte-2b,2020.1.3,Win32,60,13415,0.42541,,,,,,,,,,,,,,,,,,,,,,,,,,,,,,,,,,,,,,,,,,,,,,,,,,,,,,,,,,,,,,,,,
,,,,,,,,,,,,a,Incorrect,0,46,46,1,1,t2.png,t4.png,2,0.059078,19,Female,2020-11-20_11h00.28.906,torte-2b,2020.1.3,Win32,60,13415,0.4541,,,,,,,,,,,,,,,,,,,,,,,,,,,,,,,,,,,,,,,,,,,,,,,,,,,,,,,,,,,,,,,,,
,,,,,,,,,,,,l,Correct!,0,47,47,57,1,t2.png,t4.png,2,0.059078,19,Female,2020-11-20_11h00.28.906,torte-2b,2020.1.3,Win32,60,13415,0.35654,,,,,,,,,,,,,,,,,,,,,,,,,,,,,,,,,,,,,,,,,,,,,,,,,,,,,,,,,,,,,,,,,
,,,,,,,,,,,,l,Incorrect,0,48,48,81,1,t1.png,t1.png,0,0.97829,19,Female,2020-11-20_11h00.28.906,torte-2b,2020.1.3,Win32,60,13415,0.43049,,,,,,,,,,,,,,,,,,,,,,,,,,,,,,,,,,,,,,,,,,,,,,,,,,,,,,,,,,,,,,,,,
,,,,,,,,,,,,a,Correct!,0,49,49,95,1,t1.png,t1.png,0,0.978,19,Female,2020-11-20_11h00.28.906,torte-2b,2020.1.3,Win32,60,13415,0.26894,,,,,,,,,,,,,,,,,,,,,,,,,,,,,,,,,,,,,,,,,,,,,,,,,,,,,,,,,,,,,,,,,
,,,,,,,,,,,,a,Correct!,0,50,50,75,1,t1.png,t1.png,0,0.97829,19,Female,2020-11-20_11h00.28.906,torte-2b,2020.1.3,Win32,60,13415,0.31654,,,,,,,,,,,,,,,,,,,,,,,,,,,,,,,,,,,,,,,,,,,,,,,,,,,,,,,,,,,,,,,,,
,,,,,,,,,,,,a,Correct!,0,51,51,116,1,t5.png,t4.png,1,0.90025,19,Female,2020-11-20_11h00.28.906,torte-2b,2020.1.3,Win32,60,13415,0.259715,,,,,,,,,,,,,,,,,,,,,,,,,,,,,,,,,,,,,,,,,,,,,,,,,,,,,,,,,,,,,,,,,
,,,,,,,,,,,,a,Incorrect,0,52,52,54,1,t1.png,t5.png,4,9.55E-11,19,Female,2020-11-20_11h00.28.906,torte-2b,2020.1.3,Win32,60,13415,0.485365,,,,,,,,,,,,,,,,,,,,,,,,,,,,,,,,,,,,,,,,,,,,,,,,,,,,,,,,,,,,,,,,,
,,,,,,,,,,,,l,Correct!,0,53,53,26,1,t4.png,t2.png,2,0.0591,19,Female,2020-11-20_11h00.28.906,torte-2b,2020.1.3,Win32,60,13415,0.26416,,,,,,,,,,,,,,,,,,,,,,,,,,,,,,,,,,,,,,,,,,,,,,,,,,,,,,,,,,,,,,,,,
,,,,,,,,,,,,l,Incorrect,0,54,54,8,1,t3.png,t2.png,1,0.90855,19,Female,2020-11-20_11h00.28.906,torte-2b,2020.1.3,Win32,60,13415,0.58677,,,,,,,,,,,,,,,,,,,,,,,,,,,,,,,,,,,,,,,,,,,,,,,,,,,,,,,,,,,,,,,,,
,,,,,,,,,,,,a,Incorrect,0,55,55,27,1,t3.png,t1.png,2,0.0565,19,Female,2020-11-20_11h00.28.906,torte-2b,2020.1.3,Win32,60,13415,0.49391,,,,,,,,,,,,,,,,,,,,,,,,,,,,,,,,,,,,,,,,,,,,,,,,,,,,,,,,,,,,,,,,,
,,,,,,,,,,,,l,Incorrect,0,56,56,76,1,t3.png,t2.png,1,0.90855,19,Female,2020-11-20_11h00.28.906,torte-2b,2020.1.3,Win32,60,13415,0.66552,,,,,,,,,,,,,,,,,,,,,,,,,,,,,,,,,,,,,,,,,,,,,,,,,,,,,,,,,,,,,,,,,
,,,,,,,,,,,,a,Incorrect,0,57,57,73,1,t4.png,t2.png,2,0.059078,19,Female,2020-11-20_11h00.28.906,torte-2b,2020.1.3,Win32,60,13415,0.36959,,,,,,,,,,,,,,,,,,,,,,,,,,,,,,,,,,,,,,,,,,,,,,,,,,,,,,,,,,,,,,,,,
,,,,,,,,,,,,a,Correct!,0,58,58,59,1,t5.png,t4.png,1,0.9,19,Female,2020-11-20_11h00.28.906,torte-2b,2020.1.3,Win32,60,13415,0.33819,,,,,,,,,,,,,,,,,,,,,,,,,,,,,,,,,,,,,,,,,,,,,,,,,,,,,,,,,,,,,,,,,
,,,,,,,,,,,,l,Incorrect,0,59,59,110,1,t4.png,t5.png,1,0.90025,19,Female,2020-11-20_11h00.28.906,torte-2b,2020.1.3,Win32,60,13415,0.37982,,,,,,,,,,,,,,,,,,,,,,,,,,,,,,,,,,,,,,,,,,,,,,,,,,,,,,,,,,,,,,,,,
,,,,,,,,,,,,l,Incorrect,0,60,60,41,1,t3.png,t2.png,1,0.90855,19,Female,2020-11-20_11h00.28.906,torte-2b,2020.1.3,Win32,60,13415,0.619145,,,,,,,,,,,,,,,,,,,,,,,,,,,,,,,,,,,,,,,,,,,,,,,,,,,,,,,,,,,,,,,,,
,,,,,,,,,,,,a,Incorrect,0,61,61,61,1,t1.png,t4.png,3,0.0000131,19,Female,2020-11-20_11h00.28.906,torte-2b,2020.1.3,Win32,60,13415,0.342815,,,,,,,,,,,,,,,,,,,,,,,,,,,,,,,,,,,,,,,,,,,,,,,,,,,,,,,,,,,,,,,,,
,,,,,,,,,,,,a,Correct!,0,62,62,84,1,t1.png,t1.png,0,0.97829,19,Female,2020-11-20_11h00.28.906,torte-2b,2020.1.3,Win32,60,13415,0.45568,,,,,,,,,,,,,,,,,,,,,,,,,,,,,,,,,,,,,,,,,,,,,,,,,,,,,,,,,,,,,,,,,
,,,,,,,,,,,,a,Incorrect,0,63,63,37,1,t1.png,t4.png,3,0.0000131,19,Female,2020-11-20_11h00.28.906,torte-2b,2020.1.3,Win32,60,13415,0.5726,,,,,,,,,,,,,,,,,,,,,,,,,,,,,,,,,,,,,,,,,,,,,,,,,,,,,,,,,,,,,,,,,
,,,,,,,,,,,,a,Correct!,0,64,64,28,1,t2.png,t3.png,1,0.909,19,Female,2020-11-20_11h00.28.906,torte-2b,2020.1.3,Win32,60,13415,0.67549,,,,,,,,,,,,,,,,,,,,,,,,,,,,,,,,,,,,,,,,,,,,,,,,,,,,,,,,,,,,,,,,,
,,,,,,,,,,,,a,Correct!,0,65,65,112,1,t1.png,t1.png,0,0.97829,19,Female,2020-11-20_11h00.28.906,torte-2b,2020.1.3,Win32,60,13415,0.462665,,,,,,,,,,,,,,,,,,,,,,,,,,,,,,,,,,,,,,,,,,,,,,,,,,,,,,,,,,,,,,,,,
,,,,,,,,,,,,l,Correct!,0,66,66,11,1,t1.png,t4.png,3,0.0000131,19,Female,2020-11-20_11h00.28.906,torte-2b,2020.1.3,Win32,60,13415,0.52012,,,,,,,,,,,,,,,,,,,,,,,,,,,,,,,,,,,,,,,,,,,,,,,,,,,,,,,,,,,,,,,,,
,,,,,,,,,,,,a,Correct!,0,67,67,106,1,t2.png,t3.png,1,0.90855,19,Female,2020-11-20_11h00.28.906,torte-2b,2020.1.3,Win32,60,13415,0.35261,,,,,,,,,,,,,,,,,,,,,,,,,,,,,,,,,,,,,,,,,,,,,,,,,,,,,,,,,,,,,,,,,
,,,,,,,,,,,,a,Incorrect,0,68,68,50,1,t5.png,t1.png,4,9.55E-11,19,Female,2020-11-20_11h00.28.906,torte-2b,2020.1.3,Win32,60,13415,0.414075,,,,,,,,,,,,,,,,,,,,,,,,,,,,,,,,,,,,,,,,,,,,,,,,,,,,,,,,,,,,,,,,,
,,,,,,,,,,,,l,Correct!,0,69,69,68,1,t1.png,t4.png,3,0.0000131,19,Female,2020-11-20_11h00.28.906,torte-2b,2020.1.3,Win32,60,13415,0.047535,,,,,,,,,,,,,,,,,,,,,,,,,,,,,,,,,,,,,,,,,,,,,,,,,,,,,,,,,,,,,,,,,
,,,,,,,,,,,,l,Correct!,0,70,70,51,1,t3.png,t1.png,2,0.056466,19,Female,2020-11-20_11h00.28.906,torte-2b,2020.1.3,Win32,60,13415,0.419555,,,,,,,,,,,,,,,,,,,,,,,,,,,,,,,,,,,,,,,,,,,,,,,,,,,,,,,,,,,,,,,,,
,,,,,,,,,,,,a,Correct!,0,71,71,70,1,t5.png,t5.png,0,0.978,19,Female,2020-11-20_11h00.28.906,torte-2b,2020.1.3,Win32,60,13415,0.334395,,,,,,,,,,,,,,,,,,,,,,,,,,,,,,,,,,,,,,,,,,,,,,,,,,,,,,,,,,,,,,,,,
,,,,,,,,,,,,l,Correct!,0,72,72,19,1,t4.png,t2.png,2,0.059078,19,Female,2020-11-20_11h00.28.906,torte-2b,2020.1.3,Win32,60,13415,0.494375,,,,,,,,,,,,,,,,,,,,,,,,,,,,,,,,,,,,,,,,,,,,,,,,,,,,,,,,,,,,,,,,,
,,,,,,,,,,,,l,Correct!,0,73,73,93,1,t2.png,t4.png,2,0.059078,19,Female,2020-11-20_11h00.28.906,torte-2b,2020.1.3,Win32,60,13415,0.45731,,,,,,,,,,,,,,,,,,,,,,,,,,,,,,,,,,,,,,,,,,,,,,,,,,,,,,,,,,,,,,,,,
,,,,,,,,,,,,l,Correct!,0,74,74,117,1,t1.png,t5.png,4,9.55E-11,19,Female,2020-11-20_11h00.28.906,torte-2b,2020.1.3,Win32,60,13415,0.423245,,,,,,,,,,,,,,,,,,,,,,,,,,,,,,,,,,,,,,,,,,,,,,,,,,,,,,,,,,,,,,,,,
,,,,,,,,,,,,a,Incorrect,0,75,75,12,1,t5.png,t1.png,4,9.55E-11,19,Female,2020-11-20_11h00.28.906,torte-2b,2020.1.3,Win32,60,13415,0.315375,,,,,,,,,,,,,,,,,,,,,,,,,,,,,,,,,,,,,,,,,,,,,,,,,,,,,,,,,,,,,,,,,
,,,,,,,,,,,,a,Correct!,0,76,76,22,1,t2.png,t3.png,1,0.90855,19,Female,2020-11-20_11h00.28.906,torte-2b,2020.1.3,Win32,60,13415,0.34748,,,,,,,,,,,,,,,,,,,,,,,,,,,,,,,,,,,,,,,,,,,,,,,,,,,,,,,,,,,,,,,,,
,,,,,,,,,,,,a,Incorrect,0,77,77,56,1,t5.png,t1.png,4,9.55E-11,19,Female,2020-11-20_11h00.28.906,torte-2b,2020.1.3,Win32,60,13415,0.43158,,,,,,,,,,,,,,,,,,,,,,,,,,,,,,,,,,,,,,,,,,,,,,,,,,,,,,,,,,,,,,,,,
,,,,,,,,,,,,a,Correct!,0,78,78,113,1,t5.png,t4.png,1,0.9,19,Female,2020-11-20_11h00.28.906,torte-2b,2020.1.3,Win32,60,13415,0.299525,,,,,,,,,,,,,,,,,,,,,,,,,,,,,,,,,,,,,,,,,,,,,,,,,,,,,,,,,,,,,,,,,
,,,,,,,,,,,,a,Incorrect,0,79,79,101,1,t4.png,t5.png,1,0.90025,19,Female,2020-11-20_11h00.28.906,torte-2b,2020.1.3,Win32,60,13415,0.35306,,,,,,,,,,,,,,,,,,,,,,,,,,,,,,,,,,,,,,,,,,,,,,,,,,,,,,,,,,,,,,,,,
,,,,,,,,,,,,l,Correct!,0,80,80,105,1,t3.png,t2.png,1,0.90855,19,Female,2020-11-20_11h00.28.906,torte-2b,2020.1.3,Win32,60,13415,0.282945,,,,,,,,,,,,,,,,,,,,,,,,,,,,,,,,,,,,,,,,,,,,,,,,,,,,,,,,,,,,,,,,,
,,,,,,,,,,,,l,Incorrect,0,81,81,66,1,t4.png,t5.png,1,0.9,19,Female,2020-11-20_11h00.28.906,torte-2b,2020.1.3,Win32,60,13415,0.35901,,,,,,,,,,,,,,,,,,,,,,,,,,,,,,,,,,,,,,,,,,,,,,,,,,,,,,,,,,,,,,,,,
,,,,,,,,,,,,l,Correct!,0,82,82,111,1,t5.png,t1.png,4,9.55E-11,19,Female,2020-11-20_11h00.28.906,torte-2b,2020.1.3,Win32,60,13415,0.28951,,,,,,,,,,,,,,,,,,,,,,,,,,,,,,,,,,,,,,,,,,,,,,,,,,,,,,,,,,,,,,,,,
,,,,,,,,,,,,l,Incorrect,0,83,83,92,1,t2.png,t3.png,1,0.909,19,Female,2020-11-20_11h00.28.906,torte-2b,2020.1.3,Win32,60,13415,0.3186,,,,,,,,,,,,,,,,,,,,,,,,,,,,,,,,,,,,,,,,,,,,,,,,,,,,,,,,,,,,,,,,,
,,,,,,,,,,,,a,Incorrect,0,84,84,52,1,t2.png,t4.png,2,0.059078,19,Female,2020-11-20_11h00.28.906,torte-2b,2020.1.3,Win32,60,13415,0.36101,,,,,,,,,,,,,,,,,,,,,,,,,,,,,,,,,,,,,,,,,,,,,,,,,,,,,,,,,,,,,,,,,
,,,,,,,,,,,,a,Incorrect,0,85,85,33,1,t5.png,t1.png,4,9.55E-11,19,Female,2020-11-20_11h00.28.906,torte-2b,2020.1.3,Win32,60,13415,0.470325,,,,,,,,,,,,,,,,,,,,,,,,,,,,,,,,,,,,,,,,,,,,,,,,,,,,,,,,,,,,,,,,,
,,,,,,,,,,,,a,Incorrect,0,86,86,91,1,t1.png,t4.png,3,0.0000131,19,Female,2020-11-20_11h00.28.906,torte-2b,2020.1.3,Win32,60,13415,0.31918,,,,,,,,,,,,,,,,,,,,,,,,,,,,,,,,,,,,,,,,,,,,,,,,,,,,,,,,,,,,,,,,,
,,,,,,,,,,,,l,Incorrect,0,87,87,71,1,t5.png,t5.png,0,0.97829,19,Female,2020-11-20_11h00.28.906,torte-2b,2020.1.3,Win32,60,13415,0.452565,,,,,,,,,,,,,,,,,,,,,,,,,,,,,,,,,,,,,,,,,,,,,,,,,,,,,,,,,,,,,,,,,
,,,,,,,,,,,,l,Correct!,0,88,88,98,1,t2.png,t4.png,2,0.0591,19,Female,2020-11-20_11h00.28.906,torte-2b,2020.1.3,Win32,60,13415,0.297435,,,,,,,,,,,,,,,,,,,,,,,,,,,,,,,,,,,,,,,,,,,,,,,,,,,,,,,,,,,,,,,,,
,,,,,,,,,,,,l,Incorrect,0,89,89,64,1,t1.png,t1.png,0,0.978,19,Female,2020-11-20_11h00.28.906,torte-2b,2020.1.3,Win32,60,13415,0.53914,,,,,,,,,,,,,,,,,,,,,,,,,,,,,,,,,,,,,,,,,,,,,,,,,,,,,,,,,,,,,,,,,
,,,,,,,,,,,,l,Correct!,0,90,90,108,1,t5.png,t1.png,4,9.55E-11,19,Female,2020-11-20_11h00.28.906,torte-2b,2020.1.3,Win32,60,13415,0.83682,,,,,,,,,,,,,,,,,,,,,,,,,,,,,,,,,,,,,,,,,,,,,,,,,,,,,,,,,,,,,,,,,
,,,,,,,,,,,,l,Incorrect,0,91,91,24,1,t4.png,t2.png,2,0.059078,19,Female,2020-11-20_11h00.28.906,torte-2b,2020.1.3,Win32,60,13415,0.63806,,,,,,,,,,,,,,,,,,,,,,,,,,,,,,,,,,,,,,,,,,,,,,,,,,,,,,,,,,,,,,,,,
,,,,,,,,,,,,l,Correct!,0,92,92,31,1,t1.png,t5.png,4,9.55E-11,19,Female,2020-11-20_11h00.28.906,torte-2b,2020.1.3,Win32,60,13415,0.36862,,,,,,,,,,,,,,,,,,,,,,,,,,,,,,,,,,,,,,,,,,,,,,,,,,,,,,,,,,,,,,,,,
,,,,,,,,,,,,a,Correct!,0,93,93,103,1,t3.png,t1.png,2,0.056466,19,Female,2020-11-20_11h00.28.906,torte-2b,2020.1.3,Win32,60,13415,0.55956,,,,,,,,,,,,,,,,,,,,,,,,,,,,,,,,,,,,,,,,,,,,,,,,,,,,,,,,,,,,,,,,,
,,,,,,,,,,,,a,Incorrect,0,94,94,6,1,t1.png,t4.png,3,0.0000131,19,Female,2020-11-20_11h00.28.906,torte-2b,2020.1.3,Win32,60,13415,0.64574,,,,,,,,,,,,,,,,,,,,,,,,,,,,,,,,,,,,,,,,,,,,,,,,,,,,,,,,,,,,,,,,,
,,,,,,,,,,,,a,Incorrect,0,95,95,99,1,t1.png,t5.png,4,9.55E-11,19,Female,2020-11-20_11h00.28.906,torte-2b,2020.1.3,Win32,60,13415,0.75641,,,,,,,,,,,,,,,,,,,,,,,,,,,,,,,,,,,,,,,,,,,,,,,,,,,,,,,,,,,,,,,,,
,,,,,,,,,,,,l,Correct!,0,96,96,69,1,t4.png,t2.png,2,0.059078,19,Female,2020-11-20_11h00.28.906,torte-2b,2020.1.3,Win32,60,13415,0.735985,,,,,,,,,,,,,,,,,,,,,,,,,,,,,,,,,,,,,,,,,,,,,,,,,,,,,,,,,,,,,,,,,
,,,,,,,,,,,,l,Incorrect,0,97,97,109,1,t5.png,t5.png,0,0.97829,19,Female,2020-11-20_11h00.28.906,torte-2b,2020.1.3,Win32,60,13415,0.66929,,,,,,,,,,,,,,,,,,,,,,,,,,,,,,,,,,,,,,,,,,,,,,,,,,,,,,,,,,,,,,,,,
,,,,,,,,,,,,l,Incorrect,0,98,98,20,1,t2.png,t3.png,1,0.90855,19,Female,2020-11-20_11h00.28.906,torte-2b,2020.1.3,Win32,60,13415,0.2918,,,,,,,,,,,,,,,,,,,,,,,,,,,,,,,,,,,,,,,,,,,,,,,,,,,,,,,,,,,,,,,,,
,,,,,,,,,,,,l,Correct!,0,99,99,67,1,t1.png,t5.png,4,9.55E-11,19,Female,2020-11-20_11h00.28.906,torte-2b,2020.1.3,Win32,60,13415,0.56448,,,,,,,,,,,,,,,,,,,,,,,,,,,,,,,,,,,,,,,,,,,,,,,,,,,,,,,,,,,,,,,,,
,,,,,,,,,,,,a,Incorrect,0,100,100,86,1,t3.png,t1.png,2,0.056466,19,Female,2020-11-20_11h00.28.906,torte-2b,2020.1.3,Win32,60,13415,0.7358,,,,,,,,,,,,,,,,,,,,,,,,,,,,,,,,,,,,,,,,,,,,,,,,,,,,,,,,,,,,,,,,,
,,,,,,,,,,,,a,Correct!,0,101,101,16,1,t5.png,t4.png,1,0.9,19,Female,2020-11-20_11h00.28.906,torte-2b,2020.1.3,Win32,60,13415,0.347705,,,,,,,,,,,,,,,,,,,,,,,,,,,,,,,,,,,,,,,,,,,,,,,,,,,,,,,,,,,,,,,,,
,,,,,,,,,,,,a,Correct!,0,102,102,18,1,t4.png,t5.png,1,0.90025,19,Female,2020-11-20_11h00.28.906,torte-2b,2020.1.3,Win32,60,13415,0.77262,,,,,,,,,,,,,,,,,,,,,,,,,,,,,,,,,,,,,,,,,,,,,,,,,,,,,,,,,,,,,,,,,
,,,,,,,,,,,,l,Incorrect,0,103,103,74,1,t5.png,t4.png,1,0.9,19,Female,2020-11-20_11h00.28.906,torte-2b,2020.1.3,Win32,60,13415,0.35412,,,,,,,,,,,,,,,,,,,,,,,,,,,,,,,,,,,,,,,,,,,,,,,,,,,,,,,,,,,,,,,,,
,,,,,,,,,,,,l,Correct!,0,104,104,36,1,t3.png,t1.png,2,0.0565,19,Female,2020-11-20_11h00.28.906,torte-2b,2020.1.3,Win32,60,13415,0.39287,,,,,,,,,,,,,,,,,,,,,,,,,,,,,,,,,,,,,,,,,,,,,,,,,,,,,,,,,,,,,,,,,
,,,,,,,,,,,,l,Correct!,0,105,105,0,1,t5.png,t1.png,4,9.55E-11,19,Female,2020-11-20_11h00.28.906,torte-2b,2020.1.3,Win32,60,13415,0.62324,,,,,,,,,,,,,,,,,,,,,,,,,,,,,,,,,,,,,,,,,,,,,,,,,,,,,,,,,,,,,,,,,
,,,,,,,,,,,,a,Incorrect,0,106,106,40,1,t1.png,t5.png,4,9.55E-11,19,Female,2020-11-20_11h00.28.906,torte-2b,2020.1.3,Win32,60,13415,0.65843,,,,,,,,,,,,,,,,,,,,,,,,,,,,,,,,,,,,,,,,,,,,,,,,,,,,,,,,,,,,,,,,,
,,,,,,,,,,,,a,Correct!,0,107,107,118,1,t5.png,t5.png,0,0.978,19,Female,2020-11-20_11h00.28.906,torte-2b,2020.1.3,Win32,60,13415,0.41178,,,,,,,,,,,,,,,,,,,,,,,,,,,,,,,,,,,,,,,,,,,,,,,,,,,,,,,,,,,,,,,,,
,,,,,,,,,,,,a,Incorrect,0,108,108,60,1,t2.png,t4.png,2,0.059078,19,Female,2020-11-20_11h00.28.906,torte-2b,2020.1.3,Win32,60,13415,0.636085,,,,,,,,,,,,,,,,,,,,,,,,,,,,,,,,,,,,,,,,,,,,,,,,,,,,,,,,,,,,,,,,,
,,,,,,,,,,,,l,Correct!,0,109,109,35,1,t1.png,t4.png,3,0.0000131,19,Female,2020-11-20_11h00.28.906,torte-2b,2020.1.3,Win32,60,13415,0.248115,,,,,,,,,,,,,,,,,,,,,,,,,,,,,,,,,,,,,,,,,,,,,,,,,,,,,,,,,,,,,,,,,
,,,,,,,,,,,,l,Correct!,0,110,110,119,1,t1.png,t5.png,4,9.55E-11,19,Female,2020-11-20_11h00.28.906,torte-2b,2020.1.3,Win32,60,13415,0.541055,,,,,,,,,,,,,,,,,,,,,,,,,,,,,,,,,,,,,,,,,,,,,,,,,,,,,,,,,,,,,,,,,
,,,,,,,,,,,,a,Correct!,0,111,111,114,1,t2.png,t3.png,1,0.90855,19,Female,2020-11-20_11h00.28.906,torte-2b,2020.1.3,Win32,60,13415,0.81916,,,,,,,,,,,,,,,,,,,,,,,,,,,,,,,,,,,,,,,,,,,,,,,,,,,,,,,,,,,,,,,,,
,,,,,,,,,,,,a,Incorrect,0,112,112,46,1,t4.png,t2.png,2,0.059078,19,Female,2020-11-20_11h00.28.906,torte-2b,2020.1.3,Win32,60,13415,0.569335,,,,,,,,,,,,,,,,,,,,,,,,,,,,,,,,,,,,,,,,,,,,,,,,,,,,,,,,,,,,,,,,,
,,,,,,,,,,,,a,Incorrect,0,113,113,72,1,t4.png,t2.png,2,0.059078,19,Female,2020-11-20_11h00.28.906,torte-2b,2020.1.3,Win32,60,13415,0.315255,,,,,,,,,,,,,,,,,,,,,,,,,,,,,,,,,,,,,,,,,,,,,,,,,,,,,,,,,,,,,,,,,
,,,,,,,,,,,,a,Incorrect,0,114,114,94,1,t5.png,t1.png,4,9.55E-11,19,Female,2020-11-20_11h00.28.906,torte-2b,2020.1.3,Win32,60,13415,0.944535,,,,,,,,,,,,,,,,,,,,,,,,,,,,,,,,,,,,,,,,,,,,,,,,,,,,,,,,,,,,,,,,,
,,,,,,,,,,,,a,Incorrect,0,115,115,47,1,t4.png,t2.png,2,0.059078,19,Female,2020-11-20_11h00.28.906,torte-2b,2020.1.3,Win32,60,13415,0.556205,,,,,,,,,,,,,,,,,,,,,,,,,,,,,,,,,,,,,,,,,,,,,,,,,,,,,,,,,,,,,,,,,
,,,,,,,,,,,,l,Correct!,0,116,116,79,1,t3.png,t2.png,1,0.909,19,Female,2020-11-20_11h00.28.906,torte-2b,2020.1.3,Win32,60,13415,0.346475,,,,,,,,,,,,,,,,,,,,,,,,,,,,,,,,,,,,,,,,,,,,,,,,,,,,,,,,,,,,,,,,,
,,,,,,,,,,,,l,Correct!,0,117,117,34,1,t5.png,t4.png,1,0.9,19,Female,2020-11-20_11h00.28.906,torte-2b,2020.1.3,Win32,60,13415,0.555015,,,,,,,,,,,,,,,,,,,,,,,,,,,,,,,,,,,,,,,,,,,,,,,,,,,,,,,,,,,,,,,,,
,,,,,,,,,,,,a,Correct!,0,118,118,100,1,t4.png,t5.png,1,0.90025,19,Female,2020-11-20_11h00.28.906,torte-2b,2020.1.3,Win32,60,13415,0.643355,,,,,,,,,,,,,,,,,,,,,,,,,,,,,,,,,,,,,,,,,,,,,,,,,,,,,,,,,,,,,,,,,
,,,,,,,,,,,,a,Incorrect,0,119,119,87,1,t5.png,t1.png,4,9.55E-11,19,Female,2020-11-20_11h00.28.906,torte-2b,2020.1.3,Win32,60,13415,0.78586,,,,,,,,,,,,,,,,,,,,,,,,,,,,,,,,,,,,,,,,,,,,,,,,,,,,,,,,,,,,,,,,,
,,,,,,,,,,,,a,Incorrect,,,,,,t1.png,t3.png,2,0.056466,19,Female,2020-11-20_11h00.28.906,torte-2b,2020.1.3,Win32,60,13415,0.498905,space,1.46209,space,15.246165,0,0,0,60,1,,,,,,,,,,,,,,,,,,,,,,,,,,,,,,,,,,,,,,,,,,,,,,,,,,,,,,,,
,,,,,,,,,,,,a,Correct!,,,,,,t3.png,t2.png,1,0.909,19,Female,2020-11-20_11h00.28.906,torte-2b,2020.1.3,Win32,60,13415,0.60596,,,,,0,1,1,23,1,,,,,,,,,,,,,,,,,,,,,,,,,,,,,,,,,,,,,,,,,,,,,,,,,,,,,,,,
,,,,,,,,,,,,l,Correct!,,,,,,t3.png,t5.png,2,0.056466,19,Female,2020-11-20_11h00.28.906,torte-2b,2020.1.3,Win32,60,13415,0.34141,,,,,0,2,2,6,1,,,,,,,,,,,,,,,,,,,,,,,,,,,,,,,,,,,,,,,,,,,,,,,,,,,,,,,,
,,,,,,,,,,,,a,Incorrect,,,,,,t5.png,t4.png,1,0.9,19,Female,2020-11-20_11h00.28.906,torte-2b,2020.1.3,Win32,60,13415,0.59408,,,,,0,3,3,76,1,,,,,,,,,,,,,,,,,,,,,,,,,,,,,,,,,,,,,,,,,,,,,,,,,,,,,,,,
,,,,,,,,,,,,l,Incorrect,,,,,,t4.png,t4.png,0,0.98115,19,Female,2020-11-20_11h00.28.906,torte-2b,2020.1.3,Win32,60,13415,0.453265,,,,,0,4,4,80,1,,,,,,,,,,,,,,,,,,,,,,,,,,,,,,,,,,,,,,,,,,,,,,,,,,,,,,,,
,,,,,,,,,,,,l,Incorrect,,,,,,t5.png,t4.png,1,0.90025,19,Female,2020-11-20_11h00.28.906,torte-2b,2020.1.3,Win32,60,13415,0.250695,,,,,0,5,5,34,1,,,,,,,,,,,,,,,,,,,,,,,,,,,,,,,,,,,,,,,,,,,,,,,,,,,,,,,,
,,,,,,,,,,,,l,Correct!,,,,,,t1.png,t5.png,4,9.55E-11,19,Female,2020-11-20_11h00.28.906,torte-2b,2020.1.3,Win32,60,13415,0.36923,,,,,0,6,6,41,1,,,,,,,,,,,,,,,,,,,,,,,,,,,,,,,,,,,,,,,,,,,,,,,,,,,,,,,,
,,,,,,,,,,,,l,Correct!,,,,,,t5.png,t1.png,4,9.55E-11,19,Female,2020-11-20_11h00.28.906,torte-2b,2020.1.3,Win32,60,13415,0.344005,,,,,0,7,7,71,1,,,,,,,,,,,,,,,,,,,,,,,,,,,,,,,,,,,,,,,,,,,,,,,,,,,,,,,,
,,,,,,,,,,,,l,Correct!,,,,,,t5.png,t3.png,2,0.056466,19,Female,2020-11-20_11h00.28.906,torte-2b,2020.1.3,Win32,60,13415,0.360675,,,,,0,8,8,108,1,,,,,,,,,,,,,,,,,,,,,,,,,,,,,,,,,,,,,,,,,,,,,,,,,,,,,,,,
,,,,,,,,,,,,a,Correct!,,,,,,t5.png,t4.png,1,0.9,19,Female,2020-11-20_11h00.28.906,torte-2b,2020.1.3,Win32,60,13415,0.33606,,,,,0,9,9,49,1,,,,,,,,,,,,,,,,,,,,,,,,,,,,,,,,,,,,,,,,,,,,,,,,,,,,,,,,
,,,,,,,,,,,,a,Correct!,,,,,,t1.png,t2.png,1,0.90025,19,Female,2020-11-20_11h00.28.906,torte-2b,2020.1.3,Win32,60,13415,0.37952,,,,,0,10,10,33,1,,,,,,,,,,,,,,,,,,,,,,,,,,,,,,,,,,,,,,,,,,,,,,,,,,,,,,,,
,,,,,,,,,,,,l,Incorrect,,,,,,t2.png,t3.png,1,0.90855,19,Female,2020-11-20_11h00.28.906,torte-2b,2020.1.3,Win32,60,13415,0.406245,,,,,0,11,11,10,1,,,,,,,,,,,,,,,,,,,,,,,,,,,,,,,,,,,,,,,,,,,,,,,,,,,,,,,,
,,,,,,,,,,,,a,Incorrect,,,,,,t3.png,t5.png,2,0.0565,19,Female,2020-11-20_11h00.28.906,torte-2b,2020.1.3,Win32,60,13415,0.33941,,,,,0,12,12,30,1,,,,,,,,,,,,,,,,,,,,,,,,,,,,,,,,,,,,,,,,,,,,,,,,,,,,,,,,
,,,,,,,,,,,,a,Correct!,,,,,,t3.png,t4.png,1,0.90855,19,Female,2020-11-20_11h00.28.906,torte-2b,2020.1.3,Win32,60,13415,0.272805,,,,,0,13,13,96,1,,,,,,,,,,,,,,,,,,,,,,,,,,,,,,,,,,,,,,,,,,,,,,,,,,,,,,,,
,,,,,,,,,,,,l,Incorrect,,,,,,t1.png,t2.png,1,0.90025,19,Female,2020-11-20_11h00.28.906,torte-2b,2020.1.3,Win32,60,13415,0.31411,,,,,0,14,14,105,1,,,,,,,,,,,,,,,,,,,,,,,,,,,,,,,,,,,,,,,,,,,,,,,,,,,,,,,,
,,,,,,,,,,,,a,Correct!,,,,,,t3.png,t2.png,1,0.909,19,Female,2020-11-20_11h00.28.906,torte-2b,2020.1.3,Win32,60,13415,0.26133,,,,,0,15,15,3,1,,,,,,,,,,,,,,,,,,,,,,,,,,,,,,,,,,,,,,,,,,,,,,,,,,,,,,,,
,,,,,,,,,,,,l,Correct!,,,,,,t5.png,t3.png,2,0.056466,19,Female,2020-11-20_11h00.28.906,torte-2b,2020.1.3,Win32,60,13415,0.24369,,,,,0,16,16,38,1,,,,,,,,,,,,,,,,,,,,,,,,,,,,,,,,,,,,,,,,,,,,,,,,,,,,,,,,
,,,,,,,,,,,,l,Correct!,,,,,,t5.png,t1.png,4,9.55E-11,19,Female,2020-11-20_11h00.28.906,torte-2b,2020.1.3,Win32,60,13415,0.199215,,,,,0,17,17,102,1,,,,,,,,,,,,,,,,,,,,,,,,,,,,,,,,,,,,,,,,,,,,,,,,,,,,,,,,
,,,,,,,,,,,,l,Correct!,,,,,,t2.png,t5.png,3,0.0000131,19,Female,2020-11-20_11h00.28.906,torte-2b,2020.1.3,Win32,60,13415,0.353225,,,,,0,18,18,95,1,,,,,,,,,,,,,,,,,,,,,,,,,,,,,,,,,,,,,,,,,,,,,,,,,,,,,,,,
,,,,,,,,,,,,l,Correct!,,,,,,t3.png,t1.png,2,0.056466,19,Female,2020-11-20_11h00.28.906,torte-2b,2020.1.3,Win32,60,13415,0.320595,,,,,0,19,19,64,1,,,,,,,,,,,,,,,,,,,,,,,,,,,,,,,,,,,,,,,,,,,,,,,,,,,,,,,,
,,,,,,,,,,,,a,Correct!,,,,,,t3.png,t4.png,1,0.909,19,Female,2020-11-20_11h00.28.906,torte-2b,2020.1.3,Win32,60,13415,0.285875,,,,,0,20,20,89,1,,,,,,,,,,,,,,,,,,,,,,,,,,,,,,,,,,,,,,,,,,,,,,,,,,,,,,,,
,,,,,,,,,,,,l,Incorrect,,,,,,t2.png,t3.png,1,0.90855,19,Female,2020-11-20_11h00.28.906,torte-2b,2020.1.3,Win32,60,13415,0.25472,,,,,0,21,21,111,1,,,,,,,,,,,,,,,,,,,,,,,,,,,,,,,,,,,,,,,,,,,,,,,,,,,,,,,,
,,,,,,,,,,,,a,Incorrect,,,,,,t5.png,t2.png,3,0.0000131,19,Female,2020-11-20_11h00.28.906,torte-2b,2020.1.3,Win32,60,13415,0.234775,,,,,0,22,22,98,1,,,,,,,,,,,,,,,,,,,,,,,,,,,,,,,,,,,,,,,,,,,,,,,,,,,,,,,,
,,,,,,,,,,,,a,Correct!,,,,,,t5.png,t5.png,0,0.97829,19,Female,2020-11-20_11h00.28.906,torte-2b,2020.1.3,Win32,60,13415,0.25692,,,,,0,23,23,73,1,,,,,,,,,,,,,,,,,,,,,,,,,,,,,,,,,,,,,,,,,,,,,,,,,,,,,,,,
,,,,,,,,,,,,a,Incorrect,,,,,,t1.png,t3.png,2,0.056466,19,Female,2020-11-20_11h00.28.906,torte-2b,2020.1.3,Win32,60,13415,0.33675,,,,,0,24,24,99,1,,,,,,,,,,,,,,,,,,,,,,,,,,,,,,,,,,,,,,,,,,,,,,,,,,,,,,,,
,,,,,,,,,,,,l,Incorrect,,,,,,t1.png,t1.png,0,0.97829,19,Female,2020-11-20_11h00.28.906,torte-2b,2020.1.3,Win32,60,13415,0.333165,,,,,0,25,25,67,1,,,,,,,,,,,,,,,,,,,,,,,,,,,,,,,,,,,,,,,,,,,,,,,,,,,,,,,,
,,,,,,,,,,,,l,Incorrect,,,,,,t2.png,t2.png,0,0.981,19,Female,2020-11-20_11h00.28.906,torte-2b,2020.1.3,Win32,60,13415,0.28131,,,,,0,26,26,101,1,,,,,,,,,,,,,,,,,,,,,,,,,,,,,,,,,,,,,,,,,,,,,,,,,,,,,,,,
,,,,,,,,,,,,a,Correct!,,,,,,t2.png,t1.png,1,0.90025,19,Female,2020-11-20_11h00.28.906,torte-2b,2020.1.3,Win32,60,13415,0.218685,,,,,0,27,27,19,1,,,,,,,,,,,,,,,,,,,,,,,,,,,,,,,,,,,,,,,,,,,,,,,,,,,,,,,,
,,,,,,,,,,,,l,Incorrect,,,,,,t2.png,t3.png,1,0.909,19,Female,2020-11-20_11h00.28.906,torte-2b,2020.1.3,Win32,60,13415,0.24025,,,,,0,28,28,74,1,,,,,,,,,,,,,,,,,,,,,,,,,,,,,,,,,,,,,,,,,,,,,,,,,,,,,,,,
,,,,,,,,,,,,l,Incorrect,,,,,,t1.png,t1.png,0,0.97829,19,Female,2020-11-20_11h00.28.906,torte-2b,2020.1.3,Win32,60,13415,0.38769,,,,,0,29,29,78,1,,,,,,,,,,,,,,,,,,,,,,,,,,,,,,,,,,,,,,,,,,,,,,,,,,,,,,,,
,,,,,,,,,,,,l,Incorrect,,,,,,t2.png,t3.png,1,0.90855,19,Female,2020-11-20_11h00.28.906,torte-2b,2020.1.3,Win32,60,13415,0.1938,,,,,0,30,30,68,1,,,,,,,,,,,,,,,,,,,,,,,,,,,,,,,,,,,,,,,,,,,,,,,,,,,,,,,,
,,,,,,,,,,,,l,Correct!,,,,,,t3.png,t5.png,2,0.0565,19,Female,2020-11-20_11h00.28.906,torte-2b,2020.1.3,Win32,60,13415,0.26957,,,,,0,31,31,83,1,,,,,,,,,,,,,,,,,,,,,,,,,,,,,,,,,,,,,,,,,,,,,,,,,,,,,,,,
,,,,,,,,,,,,a,Correct!,,,,,,t4.png,t4.png,0,0.98115,19,Female,2020-11-20_11h00.28.906,torte-2b,2020.1.3,Win32,60,13415,0.21663,,,,,0,32,32,90,1,,,,,,,,,,,,,,,,,,,,,,,,,,,,,,,,,,,,,,,,,,,,,,,,,,,,,,,,
,,,,,,,,,,,,a,Incorrect,,,,,,t2.png,t2.png,0,0.98115,19,Female,2020-11-20_11h00.28.906,torte-2b,2020.1.3,Win32,60,13415,0.281735,,,,,0,33,33,57,1,,,,,,,,,,,,,,,,,,,,,,,,,,,,,,,,,,,,,,,,,,,,,,,,,,,,,,,,
,,,,,,,,,,,,a,Correct!,,,,,,t4.png,t2.png,2,0.0591,19,Female,2020-11-20_11h00.28.906,torte-2b,2020.1.3,Win32,60,13415,0.42021,,,,,0,34,34,36,1,,,,,,,,,,,,,,,,,,,,,,,,,,,,,,,,,,,,,,,,,,,,,,,,,,,,,,,,
,,,,,,,,,,,,a,Incorrect,,,,,,t4.png,t2.png,2,0.059078,19,Female,2020-11-20_11h00.28.906,torte-2b,2020.1.3,Win32,60,13415,0.370865,,,,,0,35,35,88,1,,,,,,,,,,,,,,,,,,,,,,,,,,,,,,,,,,,,,,,,,,,,,,,,,,,,,,,,
,,,,,,,,,,,,a,Correct!,,,,,,t1.png,t1.png,0,0.978,19,Female,2020-11-20_11h00.28.906,torte-2b,2020.1.3,Win32,60,13415,0.24247,,,,,0,36,36,54,1,,,,,,,,,,,,,,,,,,,,,,,,,,,,,,,,,,,,,,,,,,,,,,,,,,,,,,,,
,,,,,,,,,,,,l,Correct!,,,,,,t1.png,t3.png,2,0.056466,19,Female,2020-11-20_11h00.28.906,torte-2b,2020.1.3,Win32,60,13415,0.20677,,,,,0,37,37,63,1,,,,,,,,,,,,,,,,,,,,,,,,,,,,,,,,,,,,,,,,,,,,,,,,,,,,,,,,
,,,,,,,,,,,,l,Correct!,,,,,,t3.png,t4.png,1,0.909,19,Female,2020-11-20_11h00.28.906,torte-2b,2020.1.3,Win32,60,13415,0.43103,,,,,0,38,38,106,1,,,,,,,,,,,,,,,,,,,,,,,,,,,,,,,,,,,,,,,,,,,,,,,,,,,,,,,,
,,,,,,,,,,,,l,Correct!,,,,,,t3.png,t5.png,2,0.056466,19,Female,2020-11-20_11h00.28.906,torte-2b,2020.1.3,Win32,60,13415,0.3663,,,,,0,39,39,14,1,,,,,,,,,,,,,,,,,,,,,,,,,,,,,,,,,,,,,,,,,,,,,,,,,,,,,,,,
,,,,,,,,,,,,l,Correct!,,,,,,t1.png,t4.png,3,0.0000131,19,Female,2020-11-20_11h00.28.906,torte-2b,2020.1.3,Win32,60,13415,0.33837,,,,,0,40,40,50,1,,,,,,,,,,,,,,,,,,,,,,,,,,,,,,,,,,,,,,,,,,,,,,,,,,,,,,,,
,,,,,,,,,,,,l,Correct!,,,,,,t2.png,t5.png,3,0.0000131,19,Female,2020-11-20_11h00.28.906,torte-2b,2020.1.3,Win32,60,13415,0.33987,,,,,0,41,41,8,1,,,,,,,,,,,,,,,,,,,,,,,,,,,,,,,,,,,,,,,,,,,,,,,,,,,,,,,,
,,,,,,,,,,,,l,Incorrect,,,,,,t1.png,t1.png,0,0.97829,19,Female,2020-11-20_11h00.28.906,torte-2b,2020.1.3,Win32,60,13415,0.358375,,,,,0,42,42,9,1,,,,,,,,,,,,,,,,,,,,,,,,,,,,,,,,,,,,,,,,,,,,,,,,,,,,,,,,
,,,,,,,,,,,,l,Correct!,,,,,,t3.png,t1.png,2,0.056466,19,Female,2020-11-20_11h00.28.906,torte-2b,2020.1.3,Win32,60,13415,0.37074,,,,,0,43,43,0,1,,,,,,,,,,,,,,,,,,,,,,,,,,,,,,,,,,,,,,,,,,,,,,,,,,,,,,,,
,,,,,,,,,,,,l,Correct!,,,,,,t2.png,t4.png,2,0.059078,19,Female,2020-11-20_11h00.28.906,torte-2b,2020.1.3,Win32,60,13415,0.123315,,,,,0,44,44,24,1,,,,,,,,,,,,,,,,,,,,,,,,,,,,,,,,,,,,,,,,,,,,,,,,,,,,,,,,
,,,,,,,,,,,,a,Correct!,,,,,,t4.png,t3.png,1,0.90855,19,Female,2020-11-20_11h00.28.906,torte-2b,2020.1.3,Win32,60,13415,0.60608,,,,,0,45,45,75,1,,,,,,,,,,,,,,,,,,,,,,,,,,,,,,,,,,,,,,,,,,,,,,,,,,,,,,,,
,,,,,,,,,,,,a,Correct!,,,,,,t2.png,t4.png,2,0.0591,19,Female,2020-11-20_11h00.28.906,torte-2b,2020.1.3,Win32,60,13415,0.45151,,,,,0,46,46,15,1,,,,,,,,,,,,,,,,,,,,,,,,,,,,,,,,,,,,,,,,,,,,,,,,,,,,,,,,
,,,,,,,,,,,,a,Correct!,,,,,,t5.png,t5.png,0,0.97829,19,Female,2020-11-20_11h00.28.906,torte-2b,2020.1.3,Win32,60,13415,0.38575,,,,,0,47,47,70,1,,,,,,,,,,,,,,,,,,,,,,,,,,,,,,,,,,,,,,,,,,,,,,,,,,,,,,,,
,,,,,,,,,,,,l,Correct!,,,,,,t4.png,t1.png,3,0.0000131,19,Female,2020-11-20_11h00.28.906,torte-2b,2020.1.3,Win32,60,13415,0.264035,,,,,0,48,48,61,1,,,,,,,,,,,,,,,,,,,,,,,,,,,,,,,,,,,,,,,,,,,,,,,,,,,,,,,,
,,,,,,,,,,,,a,Correct!,,,,,,t2.png,t2.png,0,0.98115,19,Female,2020-11-20_11h00.28.906,torte-2b,2020.1.3,Win32,60,13415,0.20385,,,,,0,49,49,2,1,,,,,,,,,,,,,,,,,,,,,,,,,,,,,,,,,,,,,,,,,,,,,,,,,,,,,,,,
,,,,,,,,,,,,l,Correct!,,,,,,t1.png,t4.png,3,0.0000131,19,Female,2020-11-20_11h00.28.906,torte-2b,2020.1.3,Win32,60,13415,0.216105,,,,,0,50,50,92,1,,,,,,,,,,,,,,,,,,,,,,,,,,,,,,,,,,,,,,,,,,,,,,,,,,,,,,,,
,,,,,,,,,,,,a,Correct!,,,,,,t1.png,t2.png,1,0.90025,19,Female,2020-11-20_11h00.28.906,torte-2b,2020.1.3,Win32,60,13415,0.139775,,,,,0,51,51,112,1,,,,,,,,,,,,,,,,,,,,,,,,,,,,,,,,,,,,,,,,,,,,,,,,,,,,,,,,
,,,,,,,,,,,,a,Correct!,,,,,,t1.png,t2.png,1,0.9,19,Female,2020-11-20_11h00.28.906,torte-2b,2020.1.3,Win32,60,13415,0.20631,,,,,0,52,52,1,1,,,,,,,,,,,,,,,,,,,,,,,,,,,,,,,,,,,,,,,,,,,,,,,,,,,,,,,,
,,,,,,,,,,,,a,Incorrect,,,,,,t5.png,t2.png,3,0.0000131,19,Female,2020-11-20_11h00.28.906,torte-2b,2020.1.3,Win32,60,13415,0.18621,,,,,0,53,53,116,1,,,,,,,,,,,,,,,,,,,,,,,,,,,,,,,,,,,,,,,,,,,,,,,,,,,,,,,,
,,,,,,,,,,,,a,Incorrect,,,,,,t2.png,t4.png,2,0.059078,19,Female,2020-11-20_11h00.28.906,torte-2b,2020.1.3,Win32,60,13415,0.1762,,,,,0,54,54,77,1,,,,,,,,,,,,,,,,,,,,,,,,,,,,,,,,,,,,,,,,,,,,,,,,,,,,,,,,
,,,,,,,,,,,,a,Correct!,,,,,,t4.png,t5.png,1,0.90025,19,Female,2020-11-20_11h00.28.906,torte-2b,2020.1.3,Win32,60,13415,0.75673,,,,,0,55,55,58,1,,,,,,,,,,,,,,,,,,,,,,,,,,,,,,,,,,,,,,,,,,,,,,,,,,,,,,,,
,,,,,,,,,,,,a,Correct!,,,,,,t1.png,t2.png,1,0.90025,19,Female,2020-11-20_11h00.28.906,torte-2b,2020.1.3,Win32,60,13415,0.291025,,,,,0,56,56,72,1,,,,,,,,,,,,,,,,,,,,,,,,,,,,,,,,,,,,,,,,,,,,,,,,,,,,,,,,
,,,,,,,,,,,,l,Correct!,,,,,,t2.png,t5.png,3,0.0000131,19,Female,2020-11-20_11h00.28.906,torte-2b,2020.1.3,Win32,60,13415,0.30208,,,,,0,57,57,40,1,,,,,,,,,,,,,,,,,,,,,,,,,,,,,,,,,,,,,,,,,,,,,,,,,,,,,,,,
,,,,,,,,,,,,l,Correct!,,,,,,t1.png,t4.png,3,0.0000131,19,Female,2020-11-20_11h00.28.906,torte-2b,2020.1.3,Win32,60,13415,0.18623,,,,,0,58,58,107,1,,,,,,,,,,,,,,,,,,,,,,,,,,,,,,,,,,,,,,,,,,,,,,,,,,,,,,,,
,,,,,,,,,,,,a,Correct!,,,,,,t2.png,t1.png,1,0.9,19,Female,2020-11-20_11h00.28.906,torte-2b,2020.1.3,Win32,60,13415,0.267625,,,,,0,59,59,118,1,,,,,,,,,,,,,,,,,,,,,,,,,,,,,,,,,,,,,,,,,,,,,,,,,,,,,,,,
,,,,,,,,,,,,a,Incorrect,,,,,,t4.png,t1.png,3,0.0000131,19,Female,2020-11-20_11h00.28.906,torte-2b,2020.1.3,Win32,60,13415,0.27007,,,,,0,60,60,42,1,,,,,,,,,,,,,,,,,,,,,,,,,,,,,,,,,,,,,,,,,,,,,,,,,,,,,,,,
,,,,,,,,,,,,a,Incorrect,,,,,,t1.png,t3.png,2,0.056466,19,Female,2020-11-20_11h00.28.906,torte-2b,2020.1.3,Win32,60,13415,0.24875,,,,,0,61,61,69,1,,,,,,,,,,,,,,,,,,,,,,,,,,,,,,,,,,,,,,,,,,,,,,,,,,,,,,,,
,,,,,,,,,,,,l,Correct!,,,,,,t1.png,t5.png,4,9.55E-11,19,Female,2020-11-20_11h00.28.906,torte-2b,2020.1.3,Win32,60,13415,0.27388,,,,,0,62,62,85,1,,,,,,,,,,,,,,,,,,,,,,,,,,,,,,,,,,,,,,,,,,,,,,,,,,,,,,,,
,,,,,,,,,,,,l,Incorrect,,,,,,t3.png,t2.png,1,0.90855,19,Female,2020-11-20_11h00.28.906,torte-2b,2020.1.3,Win32,60,13415,0.239845,,,,,0,63,63,18,1,,,,,,,,,,,,,,,,,,,,,,,,,,,,,,,,,,,,,,,,,,,,,,,,,,,,,,,,
,,,,,,,,,,,,a,Correct!,,,,,,t5.png,t4.png,1,0.90025,19,Female,2020-11-20_11h00.28.906,torte-2b,2020.1.3,Win32,60,13415,0.168685,,,,,0,64,64,27,1,,,,,,,,,,,,,,,,,,,,,,,,,,,,,,,,,,,,,,,,,,,,,,,,,,,,,,,,
,,,,,,,,,,,,l,Correct!,,,,,,t5.png,t3.png,2,0.0565,19,Female,2020-11-20_11h00.28.906,torte-2b,2020.1.3,Win32,60,13415,0.036695,,,,,0,65,65,39,1,,,,,,,,,,,,,,,,,,,,,,,,,,,,,,,,,,,,,,,,,,,,,,,,,,,,,,,,
,,,,,,,,,,,,l,Incorrect,,,,,,t3.png,t4.png,1,0.909,19,Female,2020-11-20_11h00.28.906,torte-2b,2020.1.3,Win32,60,13415,0.572575,,,,,0,66,66,82,1,,,,,,,,,,,,,,,,,,,,,,,,,,,,,,,,,,,,,,,,,,,,,,,,,,,,,,,,
,,,,,,,,,,,,l,Correct!,,,,,,t2.png,t4.png,2,0.059078,19,Female,2020-11-20_11h00.28.906,torte-2b,2020.1.3,Win32,60,13415,0.232715,,,,,0,67,67,37,1,,,,,,,,,,,,,,,,,,,,,,,,,,,,,,,,,,,,,,,,,,,,,,,,,,,,,,,,
,,,,,,,,,,,,l,Correct!,,,,,,t1.png,t5.png,4,9.55E-11,19,Female,2020-11-20_11h00.28.906,torte-2b,2020.1.3,Win32,60,13415,0.25625,,,,,0,68,68,55,1,,,,,,,,,,,,,,,,,,,,,,,,,,,,,,,,,,,,,,,,,,,,,,,,,,,,,,,,
,,,,,,,,,,,,l,Correct!,,,,,,t1.png,t4.png,3,0.0000131,19,Female,2020-11-20_11h00.28.906,torte-2b,2020.1.3,Win32,60,13415,0.24802,,,,,0,69,69,81,1,,,,,,,,,,,,,,,,,,,,,,,,,,,,,,,,,,,,,,,,,,,,,,,,,,,,,,,,
,,,,,,,,,,,,l,Correct!,,,,,,t5.png,t2.png,3,0.0000131,19,Female,2020-11-20_11h00.28.906,torte-2b,2020.1.3,Win32,60,13415,0.335635,,,,,0,70,70,51,1,,,,,,,,,,,,,,,,,,,,,,,,,,,,,,,,,,,,,,,,,,,,,,,,,,,,,,,,
,,,,,,,,,,,,l,Correct!,,,,,,t5.png,t2.png,3,0.0000131,19,Female,2020-11-20_11h00.28.906,torte-2b,2020.1.3,Win32,60,13415,0.252965,,,,,0,71,71,119,1,,,,,,,,,,,,,,,,,,,,,,,,,,,,,,,,,,,,,,,,,,,,,,,,,,,,,,,,
,,,,,,,,,,,,l,Incorrect,,,,,,t2.png,t2.png,0,0.98115,19,Female,2020-11-20_11h00.28.906,torte-2b,2020.1.3,Win32,60,13415,0.21439,,,,,0,72,72,7,1,,,,,,,,,,,,,,,,,,,,,,,,,,,,,,,,,,,,,,,,,,,,,,,,,,,,,,,,
,,,,,,,,,,,,a,Incorrect,,,,,,t5.png,t2.png,3,0.0000131,19,Female,2020-11-20_11h00.28.906,torte-2b,2020.1.3,Win32,60,13415,0.236185,,,,,0,73,73,91,1,,,,,,,,,,,,,,,,,,,,,,,,,,,,,,,,,,,,,,,,,,,,,,,,,,,,,,,,
,,,,,,,,,,,,a,Incorrect,,,,,,t5.png,t1.png,4,9.55E-11,19,Female,2020-11-20_11h00.28.906,torte-2b,2020.1.3,Win32,60,13415,0.222125,,,,,0,74,74,22,1,,,,,,,,,,,,,,,,,,,,,,,,,,,,,,,,,,,,,,,,,,,,,,,,,,,,,,,,
,,,,,,,,,,,,a,Correct!,,,,,,t3.png,t4.png,1,0.90855,19,Female,2020-11-20_11h00.28.906,torte-2b,2020.1.3,Win32,60,13415,0.306775,,,,,0,75,75,84,1,,,,,,,,,,,,,,,,,,,,,,,,,,,,,,,,,,,,,,,,,,,,,,,,,,,,,,,,
,,,,,,,,,,,,l,Incorrect,,,,,,t4.png,t4.png,0,0.98115,19,Female,2020-11-20_11h00.28.906,torte-2b,2020.1.3,Win32,60,13415,0.315795,,,,,0,76,76,79,1,,,,,,,,,,,,,,,,,,,,,,,,,,,,,,,,,,,,,,,,,,,,,,,,,,,,,,,,
,,,,,,,,,,,,l,Incorrect,,,,,,t2.png,t1.png,1,0.90025,19,Female,2020-11-20_11h00.28.906,torte-2b,2020.1.3,Win32,60,13415,0.33937,,,,,0,77,77,4,1,,,,,,,,,,,,,,,,,,,,,,,,,,,,,,,,,,,,,,,,,,,,,,,,,,,,,,,,
,,,,,,,,,,,,l,Correct!,,,,,,t4.png,t2.png,2,0.059078,19,Female,2020-11-20_11h00.28.906,torte-2b,2020.1.3,Win32,60,13415,0.29165,,,,,0,78,78,110,1,,,,,,,,,,,,,,,,,,,,,,,,,,,,,,,,,,,,,,,,,,,,,,,,,,,,,,,,
,,,,,,,,,,,,a,Incorrect,,,,,,t3.png,t1.png,2,0.0565,19,Female,2020-11-20_11h00.28.906,torte-2b,2020.1.3,Win32,60,13415,0.298955,,,,,0,79,79,31,1,,,,,,,,,,,,,,,,,,,,,,,,,,,,,,,,,,,,,,,,,,,,,,,,,,,,,,,,
,,,,,,,,,,,,l,Incorrect,,,,,,t5.png,t4.png,1,0.90025,19,Female,2020-11-20_11h00.28.906,torte-2b,2020.1.3,Win32,60,13415,0.13951,,,,,0,80,80,26,1,,,,,,,,,,,,,,,,,,,,,,,,,,,,,,,,,,,,,,,,,,,,,,,,,,,,,,,,
,,,,,,,,,,,,l,Incorrect,,,,,,t4.png,t5.png,1,0.90025,19,Female,2020-11-20_11h00.28.906,torte-2b,2020.1.3,Win32,60,13415,0.22379,,,,,0,81,81,113,1,,,,,,,,,,,,,,,,,,,,,,,,,,,,,,,,,,,,,,,,,,,,,,,,,,,,,,,,
,,,,,,,,,,,,a,Incorrect,,,,,,t2.png,t1.png,1,0.90025,19,Female,2020-11-20_11h00.28.906,torte-2b,2020.1.3,Win32,60,13415,0.26965,,,,,0,82,82,62,1,,,,,,,,,,,,,,,,,,,,,,,,,,,,,,,,,,,,,,,,,,,,,,,,,,,,,,,,
,,,,,,,,,,,,a,Correct!,,,,,,t4.png,t4.png,0,0.98115,19,Female,2020-11-20_11h00.28.906,torte-2b,2020.1.3,Win32,60,13415,0.22961,,,,,0,83,83,52,1,,,,,,,,,,,,,,,,,,,,,,,,,,,,,,,,,,,,,,,,,,,,,,,,,,,,,,,,
,,,,,,,,,,,,a,Incorrect,,,,,,t2.png,t5.png,3,0.0000131,19,Female,2020-11-20_11h00.28.906,torte-2b,2020.1.3,Win32,60,13415,0.230365,,,,,0,84,84,66,1,,,,,,,,,,,,,,,,,,,,,,,,,,,,,,,,,,,,,,,,,,,,,,,,,,,,,,,,
,,,,,,,,,,,,a,Incorrect,,,,,,t5.png,t1.png,4,9.55E-11,19,Female,2020-11-20_11h00.28.906,torte-2b,2020.1.3,Win32,60,13415,0.26703,,,,,0,85,85,43,1,,,,,,,,,,,,,,,,,,,,,,,,,,,,,,,,,,,,,,,,,,,,,,,,,,,,,,,,
,,,,,,,,,,,,a,Incorrect,,,,,,t4.png,t2.png,2,0.059078,19,Female,2020-11-20_11h00.28.906,torte-2b,2020.1.3,Win32,60,13415,0.214145,,,,,0,86,86,109,1,,,,,,,,,,,,,,,,,,,,,,,,,,,,,,,,,,,,,,,,,,,,,,,,,,,,,,,,
,,,,,,,,,,,,l,Incorrect,,,,,,t4.png,t5.png,1,0.9,19,Female,2020-11-20_11h00.28.906,torte-2b,2020.1.3,Win32,60,13415,0.26478,,,,,0,87,87,115,1,,,,,,,,,,,,,,,,,,,,,,,,,,,,,,,,,,,,,,,,,,,,,,,,,,,,,,,,
,,,,,,,,,,,,a,Incorrect,,,,,,t2.png,t5.png,3,0.0000131,19,Female,2020-11-20_11h00.28.906,torte-2b,2020.1.3,Win32,60,13415,0.32563,,,,,0,88,88,104,1,,,,,,,,,,,,,,,,,,,,,,,,,,,,,,,,,,,,,,,,,,,,,,,,,,,,,,,,
,,,,,,,,,,,,l,Incorrect,,,,,,t4.png,t5.png,1,0.90025,19,Female,2020-11-20_11h00.28.906,torte-2b,2020.1.3,Win32,60,13415,0.12907,,,,,0,89,89,103,1,,,,,,,,,,,,,,,,,,,,,,,,,,,,,,,,,,,,,,,,,,,,,,,,,,,,,,,,
,,,,,,,,,,,,l,Incorrect,,,,,,t4.png,t3.png,1,0.909,19,Female,2020-11-20_11h00.28.906,torte-2b,2020.1.3,Win32,60,13415,0.398365,,,,,0,90,90,46,1,,,,,,,,,,,,,,,,,,,,,,,,,,,,,,,,,,,,,,,,,,,,,,,,,,,,,,,,
,,,,,,,,,,,,l,Incorrect,,,,,,t4.png,t4.png,0,0.98115,19,Female,2020-11-20_11h00.28.906,torte-2b,2020.1.3,Win32,60,13415,0.220165,,,,,0,91,91,21,1,,,,,,,,,,,,,,,,,,,,,,,,,,,,,,,,,,,,,,,,,,,,,,,,,,,,,,,,
,,,,,,,,,,,,a,Incorrect,,,,,,t3.png,t1.png,2,0.056466,19,Female,2020-11-20_11h00.28.906,torte-2b,2020.1.3,Win32,60,13415,0.258685,,,,,0,92,92,32,1,,,,,,,,,,,,,,,,,,,,,,,,,,,,,,,,,,,,,,,,,,,,,,,,,,,,,,,,
,,,,,,,,,,,,l,Incorrect,,,,,,t3.png,t2.png,1,0.90855,19,Female,2020-11-20_11h00.28.906,torte-2b,2020.1.3,Win32,60,13415,0.568395,,,,,0,93,93,53,1,,,,,,,,,,,,,,,,,,,,,,,,,,,,,,,,,,,,,,,,,,,,,,,,,,,,,,,,
,,,,,,,,,,,,a,Correct!,,,,,,t4.png,t3.png,1,0.90855,19,Female,2020-11-20_11h00.28.906,torte-2b,2020.1.3,Win32,60,13415,0.05664,,,,,0,94,94,45,1,,,,,,,,,,,,,,,,,,,,,,,,,,,,,,,,,,,,,,,,,,,,,,,,,,,,,,,,
,,,,,,,,,,,,a,Correct!,,,,,,t5.png,t5.png,0,0.97829,19,Female,2020-11-20_11h00.28.906,torte-2b,2020.1.3,Win32,60,13415,0.10056,,,,,0,95,95,94,1,,,,,,,,,,,,,,,,,,,,,,,,,,,,,,,,,,,,,,,,,,,,,,,,,,,,,,,,
,,,,,,,,,,,,a,Correct!,,,,,,t4.png,t3.png,1,0.909,19,Female,2020-11-20_11h00.28.906,torte-2b,2020.1.3,Win32,60,13415,0.182775,,,,,0,96,96,20,1,,,,,,,,,,,,,,,,,,,,,,,,,,,,,,,,,,,,,,,,,,,,,,,,,,,,,,,,
,,,,,,,,,,,,a,Incorrect,,,,,,t5.png,t3.png,2,0.056466,19,Female,2020-11-20_11h00.28.906,torte-2b,2020.1.3,Win32,60,13415,0.004195,,,,,0,97,97,56,1,,,,,,,,,,,,,,,,,,,,,,,,,,,,,,,,,,,,,,,,,,,,,,,,,,,,,,,,
,,,,,,,,,,,,a,Incorrect,,,,,,t4.png,t1.png,3,0.0000131,19,Female,2020-11-20_11h00.28.906,torte-2b,2020.1.3,Win32,60,13415,0.5881,,,,,0,98,98,13,1,,,,,,,,,,,,,,,,,,,,,,,,,,,,,,,,,,,,,,,,,,,,,,,,,,,,,,,,
,,,,,,,,,,,,a,Correct!,,,,,,t2.png,t2.png,0,0.98115,19,Female,2020-11-20_11h00.28.906,torte-2b,2020.1.3,Win32,60,13415,0.07059,,,,,0,99,99,59,1,,,,,,,,,,,,,,,,,,,,,,,,,,,,,,,,,,,,,,,,,,,,,,,,,,,,,,,,
,,,,,,,,,,,,a,Incorrect,,,,,,t4.png,t1.png,3,0.0000131,19,Female,2020-11-20_11h00.28.906,torte-2b,2020.1.3,Win32,60,13415,0.24142,,,,,0,100,100,48,1,,,,,,,,,,,,,,,,,,,,,,,,,,,,,,,,,,,,,,,,,,,,,,,,,,,,,,,,
,,,,,,,,,,,,l,Incorrect,,,,,,t2.png,t1.png,1,0.90025,19,Female,2020-11-20_11h00.28.906,torte-2b,2020.1.3,Win32,60,13415,0.20721,,,,,0,101,101,5,1,,,,,,,,,,,,,,,,,,,,,,,,,,,,,,,,,,,,,,,,,,,,,,,,,,,,,,,,
,,,,,,,,,,,,l,Incorrect,,,,,,t4.png,t3.png,1,0.90855,19,Female,2020-11-20_11h00.28.906,torte-2b,2020.1.3,Win32,60,13415,0.218185,,,,,0,102,102,35,1,,,,,,,,,,,,,,,,,,,,,,,,,,,,,,,,,,,,,,,,,,,,,,,,,,,,,,,,
,,,,,,,,,,,,a,Incorrect,,,,,,t4.png,t1.png,3,0.0000131,19,Female,2020-11-20_11h00.28.906,torte-2b,2020.1.3,Win32,60,13415,0.273695,,,,,0,103,103,93,1,,,,,,,,,,,,,,,,,,,,,,,,,,,,,,,,,,,,,,,,,,,,,,,,,,,,,,,,
,,,,,,,,,,,,a,Incorrect,,,,,,t2.png,t4.png,2,0.059078,19,Female,2020-11-20_11h00.28.906,torte-2b,2020.1.3,Win32,60,13415,0.3358,,,,,0,104,104,11,1,,,,,,,,,,,,,,,,,,,,,,,,,,,,,,,,,,,,,,,,,,,,,,,,,,,,,,,,
,,,,,,,,,,,,l,Incorrect,,,,,,t5.png,t5.png,0,0.97829,19,Female,2020-11-20_11h00.28.906,torte-2b,2020.1.3,Win32,60,13415,0.26925,,,,,0,105,105,25,1,,,,,,,,,,,,,,,,,,,,,,,,,,,,,,,,,,,,,,,,,,,,,,,,,,,,,,,,
,,,,,,,,,,,,l,Correct!,,,,,,t1.png,t3.png,2,0.056466,19,Female,2020-11-20_11h00.28.906,torte-2b,2020.1.3,Win32,60,13415,0.27671,,,,,0,106,106,87,1,,,,,,,,,,,,,,,,,,,,,,,,,,,,,,,,,,,,,,,,,,,,,,,,,,,,,,,,
,,,,,,,,,,,,l,Correct!,,,,,,t5.png,t1.png,4,9.55E-11,19,Female,2020-11-20_11h00.28.906,torte-2b,2020.1.3,Win32,60,13415,0.269145,,,,,0,107,107,100,1,,,,,,,,,,,,,,,,,,,,,,,,,,,,,,,,,,,,,,,,,,,,,,,,,,,,,,,,
,,,,,,,,,,,,a,Incorrect,,,,,,t3.png,t1.png,2,0.056466,19,Female,2020-11-20_11h00.28.906,torte-2b,2020.1.3,Win32,60,13415,0.281515,,,,,0,108,108,29,1,,,,,,,,,,,,,,,,,,,,,,,,,,,,,,,,,,,,,,,,,,,,,,,,,,,,,,,,
,,,,,,,,,,,,l,Correct!,,,,,,t4.png,t2.png,2,0.059078,19,Female,2020-11-20_11h00.28.906,torte-2b,2020.1.3,Win32,60,13415,0.078655,,,,,0,109,109,86,1,,,,,,,,,,,,,,,,,,,,,,,,,,,,,,,,,,,,,,,,,,,,,,,,,,,,,,,,
,,,,,,,,,,,,l,Incorrect,,,,,,t1.png,t1.png,0,0.978,19,Female,2020-11-20_11h00.28.906,torte-2b,2020.1.3,Win32,60,13415,0.27189,,,,,0,110,110,28,1,,,,,,,,,,,,,,,,,,,,,,,,,,,,,,,,,,,,,,,,,,,,,,,,,,,,,,,,
,,,,,,,,,,,,a,Incorrect,,,,,,t5.png,t3.png,2,0.056466,19,Female,2020-11-20_11h00.28.906,torte-2b,2020.1.3,Win32,60,13415,0.306975,,,,,0,111,111,114,1,,,,,,,,,,,,,,,,,,,,,,,,,,,,,,,,,,,,,,,,,,,,,,,,,,,,,,,,
,,,,,,,,,,,,a,Correct!,,,,,,t5.png,t5.png,0,0.978,19,Female,2020-11-20_11h00.28.906,torte-2b,2020.1.3,Win32,60,13415,0.22787,,,,,0,112,112,117,1,,,,,,,,,,,,,,,,,,,,,,,,,,,,,,,,,,,,,,,,,,,,,,,,,,,,,,,,
,,,,,,,,,,,,a,Incorrect,,,,,,t1.png,t4.png,3,0.0000131,19,Female,2020-11-20_11h00.28.906,torte-2b,2020.1.3,Win32,60,13415,0.23136,,,,,0,113,113,17,1,,,,,,,,,,,,,,,,,,,,,,,,,,,,,,,,,,,,,,,,,,,,,,,,,,,,,,,,
,,,,,,,,,,,,a,Incorrect,,,,,,t1.png,t5.png,4,9.55E-11,19,Female,2020-11-20_11h00.28.906,torte-2b,2020.1.3,Win32,60,13415,0.22655,,,,,0,114,114,12,1,,,,,,,,,,,,,,,,,,,,,,,,,,,,,,,,,,,,,,,,,,,,,,,,,,,,,,,,
,,,,,,,,,,,,a,Correct!,,,,,,t3.png,t2.png,1,0.90855,19,Female,2020-11-20_11h00.28.906,torte-2b,2020.1.3,Win32,60,13415,0.26008,,,,,0,115,115,97,1,,,,,,,,,,,,,,,,,,,,,,,,,,,,,,,,,,,,,,,,,,,,,,,,,,,,,,,,
,,,,,,,,,,,,a,Correct!,,,,,,t2.png,t3.png,1,0.90855,19,Female,2020-11-20_11h00.28.906,torte-2b,2020.1.3,Win32,60,13415,0.19087,,,,,0,116,116,65,1,,,,,,,,,,,,,,,,,,,,,,,,,,,,,,,,,,,,,,,,,,,,,,,,,,,,,,,,
,,,,,,,,,,,,a,Correct!,,,,,,t4.png,t5.png,1,0.90025,19,Female,2020-11-20_11h00.28.906,torte-2b,2020.1.3,Win32,60,13415,0.25645,,,,,0,117,117,47,1,,,,,,,,,,,,,,,,,,,,,,,,,,,,,,,,,,,,,,,,,,,,,,,,,,,,,,,,
,,,,,,,,,,,,l,Incorrect,,,,,,t3.png,t5.png,2,0.056466,19,Female,2020-11-20_11h00.28.906,torte-2b,2020.1.3,Win32,60,13415,0.186035,,,,,0,118,118,44,1,,,,,,,,,,,,,,,,,,,,,,,,,,,,,,,,,,,,,,,,,,,,,,,,,,,,,,,,
,,,,,,,,,,,,l,Correct!,,,,,,t1.png,t5.png,4,9.55E-11,19,Female,2020-11-20_11h00.28.906,torte-2b,2020.1.3,Win32,60,13415,0.14834,,,,,0,119,119,16,1,,,,,,,,,,,,,,,,,,,,,,,,,,,,,,,,,,,,,,,,,,,,,,,,,,,,,,,,
,,,,,,,,,,,,,,,,,,,,,,,19,Female,2020-11-20_11h00.28.906,torte-2b,2020.1.3,Win32,60,13415,,space,1.72204,,,,,,,,space,30.53874,,0,0,0,0,1,6,,,,,,,,,,,,,,,,,,,,,,,,,,,,,,,,,,,,,,,,,,,,,,,
,,,,,,,,,,,,,,,,,,,,,,,19,Female,2020-11-20_11h00.28.906,torte-2b,2020.1.3,Win32,60,13415,,,,,,,,,,,,,,0,1,1,1,1,7,,,,,,,,,,,,,,,,,,,,,,,,,,,,,,,,,,,,,,,,,,,,,,,
,,,,,,,,,,,,,,,,,,,,,,,19,Female,2020-11-20_11h00.28.906,torte-2b,2020.1.3,Win32,60,13415,,,,,,,,,,,,,space,0,2,2,2,1,6,1.313365,,,,,,,,,,,,,,,,,,,,,,,,,,,,,,,,,,,,,,,,,,,,,,
,,,,,,,,,,,,,,,,,,,,,,,19,Female,2020-11-20_11h00.28.906,torte-2b,2020.1.3,Win32,60,13415,,,,,,,,,,,,,,0,3,3,3,1,7,,,,,,,,,,,,,,,,,,,,,,,,,,,,,,,,,,,,,,,,,,,,,,,
,,,,,,,,,,,,,,,,,,,,,,,19,Female,2020-11-20_11h00.28.906,torte-2b,2020.1.3,Win32,60,13415,,,,,,,,,,,,,,0,4,4,4,1,5,,,,,,,,,,,,,,,,,,,,,,,,,,,,,,,,,,,,,,,,,,,,,,,
,,,,,,,,,,,,,,,,,,,,,,,19,Female,2020-11-20_11h00.28.906,torte-2b,2020.1.3,Win32,60,13415,,,,,,,,,,,,,space,0,5,5,5,1,7,0.79797,,,,,,,,,,,,,,,,,,,,,,,,,,,,,,,,,,,,,,,,,,,,,,
,,,,,,,,,,,,,,,,,,,,,,,19,Female,2020-11-20_11h00.28.906,torte-2b,2020.1.3,Win32,60,13415,,,,,,,,,,,,,,0,6,6,6,1,2,,,,,,,,,,,,,,,,,,,,,,,,,,,,,,,,,,,,,,,,,,,,,,,
,,,,,,,,,,,,,,,,,,,,,,,19,Female,2020-11-20_11h00.28.906,torte-2b,2020.1.3,Win32,60,13415,,,,,,,,,,,,,,0,7,7,7,1,4,,,,,,,,,,,,,,,,,,,,,,,,,,,,,,,,,,,,,,,,,,,,,,,
,,,,,,,,,,,,,,,,,,,,,,,19,Female,2020-11-20_11h00.28.906,torte-2b,2020.1.3,Win32,60,13415,,,,,,,,,,,,,,0,8,8,8,1,7,,,,,,,,,,,,,,,,,,,,,,,,,,,,,,,,,,,,,,,,,,,,,,,
,,,,,,,,,,,,,,,,,,,,,,,19,Female,2020-11-20_11h00.28.906,torte-2b,2020.1.3,Win32,60,13415,,,,,,,,,,,,,space,0,9,9,9,1,4,1.446555,,,,,,,,,,,,,,,,,,,,,,,,,,,,,,,,,,,,,,,,,,,,,,
,,,,,,,,,,,,,,,,,,,,,,,19,Female,2020-11-20_11h00.28.906,torte-2b,2020.1.3,Win32,60,13415,,,,,,,,,,,,,,0,10,10,10,1,7,,,,,,,,,,,,,,,,,,,,,,,,,,,,,,,,,,,,,,,,,,,,,,,
,,,,,,,,,,,,,,,,,,,,,,,19,Female,2020-11-20_11h00.28.906,torte-2b,2020.1.3,Win32,60,13415,,,,,,,,,,,,,space,0,11,11,11,1,7,0.32621,,,,,,,,,,,,,,,,,,,,,,,,,,,,,,,,,,,,,,,,,,,,,,
,,,,,,,,,,,,,,,,,,,,,,,19,Female,2020-11-20_11h00.28.906,torte-2b,2020.1.3,Win32,60,13415,,,,,,,,,,,,,space,0,12,12,12,1,7,0.023925,,,,,,,,,,,,,,,,,,,,,,,,,,,,,,,,,,,,,,,,,,,,,,
,,,,,,,,,,,,,,,,,,,,,,,19,Female,2020-11-20_11h00.28.906,torte-2b,2020.1.3,Win32,60,13415,,,,,,,,,,,,,,0,13,13,13,1,4,,,,,,,,,,,,,,,,,,,,,,,,,,,,,,,,,,,,,,,,,,,,,,,
,,,,,,,,,,,,,,,,,,,,,,,19,Female,2020-11-20_11h00.28.906,torte-2b,2020.1.3,Win32,60,13415,,,,,,,,,,,,,,0,14,14,14,1,6,,,,,,,,,,,,,,,,,,,,,,,,,,,,,,,,,,,,,,,,,,,,,,,
,,,,,,,,,,,,,,,,,,,,,,,19,Female,2020-11-20_11h00.28.906,torte-2b,2020.1.3,Win32,60,13415,,,,,,,,,,,,,space,0,15,15,15,1,4,1.95791,,,,,,,,,,,,,,,,,,,,,,,,,,,,,,,,,,,,,,,,,,,,,,
,,,,,,,,,,,,,,,,,,,,,,,19,Female,2020-11-20_11h00.28.906,torte-2b,2020.1.3,Win32,60,13415,,,,,,,,,,,,,,0,16,16,16,1,6,,,,,,,,,,,,,,,,,,,,,,,,,,,,,,,,,,,,,,,,,,,,,,,
,,,,,,,,,,,,,,,,,,,,,,,19,Female,2020-11-20_11h00.28.906,torte-2b,2020.1.3,Win32,60,13415,,,,,,,,,,,,,,0,17,17,17,1,7,,,,,,,,,,,,,,,,,,,,,,,,,,,,,,,,,,,,,,,,,,,,,,,
,,,,,,,,,,,,,,,,,,,,,,,19,Female,2020-11-20_11h00.28.906,torte-2b,2020.1.3,Win32,60,13415,,,,,,,,,,,,,space,0,18,18,18,1,6,0.63979,,,,,,,,,,,,,,,,,,,,,,,,,,,,,,,,,,,,,,,,,,,,,,
,,,,,,,,,,,,,,,,,,,,,,,19,Female,2020-11-20_11h00.28.906,torte-2b,2020.1.3,Win32,60,13415,,,,,,,,,,,,,,0,19,19,19,1,7,,,,,,,,,,,,,,,,,,,,,,,,,,,,,,,,,,,,,,,,,,,,,,,
,,,,,,,,,,,,,,,,,,,,,,,19,Female,2020-11-20_11h00.28.906,torte-2b,2020.1.3,Win32,60,13415,,,,,,,,,,,,,,0,20,20,20,1,5,,,,,,,,,,,,,,,,,,,,,,,,,,,,,,,,,,,,,,,,,,,,,,,
,,,,,,,,,,,,,,,,,,,,,,,19,Female,2020-11-20_11h00.28.906,torte-2b,2020.1.3,Win32,60,13415,,,,,,,,,,,,,,0,21,21,21,1,1,,,,,,,,,,,,,,,,,,,,,,,,,,,,,,,,,,,,,,,,,,,,,,,
,,,,,,,,,,,,,,,,,,,,,,,19,Female,2020-11-20_11h00.28.906,torte-2b,2020.1.3,Win32,60,13415,,,,,,,,,,,,,,0,22,22,22,1,6,,,,,,,,,,,,,,,,,,,,,,,,,,,,,,,,,,,,,,,,,,,,,,,
,,,,,,,,,,,,,,,,,,,,,,,19,Female,2020-11-20_11h00.28.906,torte-2b,2020.1.3,Win32,60,13415,,,,,,,,,,,,,space,0,23,23,23,1,1,0.65603,,,,,,,,,,,,,,,,,,,,,,,,,,,,,,,,,,,,,,,,,,,,,,
,,,,,,,,,,,,,,,,,,,,,,,19,Female,2020-11-20_11h00.28.906,torte-2b,2020.1.3,Win32,60,13415,,,,,,,,,,,,,,0,24,24,24,1,5,,,,,,,,,,,,,,,,,,,,,,,,,,,,,,,,,,,,,,,,,,,,,,,
,,,,,,,,,,,,,,,,,,,,,,,19,Female,2020-11-20_11h00.28.906,torte-2b,2020.1.3,Win32,60,13415,,,,,,,,,,,,,,0,25,25,25,1,6,,,,,,,,,,,,,,,,,,,,,,,,,,,,,,,,,,,,,,,,,,,,,,,
,,,,,,,,,,,,,,,,,,,,,,,19,Female,2020-11-20_11h00.28.906,torte-2b,2020.1.3,Win32,60,13415,,,,,,,,,,,,,,0,26,26,26,1,6,,,,,,,,,,,,,,,,,,,,,,,,,,,,,,,,,,,,,,,,,,,,,,,
,,,,,,,,,,,,,,,,,,,,,,,19,Female,2020-11-20_11h00.28.906,torte-2b,2020.1.3,Win32,60,13415,,,,,,,,,,,,,space,0,27,27,27,1,6,1.168495,,,,,,,,,,,,,,,,,,,,,,,,,,,,,,,,,,,,,,,,,,,,,,
,,,,,,,,,,,,,,,,,,,,,,,19,Female,2020-11-20_11h00.28.906,torte-2b,2020.1.3,Win32,60,13415,,,,,,,,,,,,,,0,28,28,28,1,5,,,,,,,,,,,,,,,,,,,,,,,,,,,,,,,,,,,,,,,,,,,,,,,
,,,,,,,,,,,,,,,,,,,,,,,19,Female,2020-11-20_11h00.28.906,torte-2b,2020.1.3,Win32,60,13415,,,,,,,,,,,,,,0,29,29,29,1,2,,,,,,,,,,,,,,,,,,,,,,,,,,,,,,,,,,,,,,,,,,,,,,,
,,,,,,,,,,,,,,,,,,,,,,,19,Female,2020-11-20_11h00.28.906,torte-2b,2020.1.3,Win32,60,13415,,,,,,,,,,,,,space,0,30,30,30,1,5,0.814915,,,,,,,,,,,,,,,,,,,,,,,,,,,,,,,,,,,,,,,,,,,,,,
,,,,,,,,,,,,,,,,,,,,,,,19,Female,2020-11-20_11h00.28.906,torte-2b,2020.1.3,Win32,60,13415,,,,,,,,,,,,,,0,31,31,31,1,2,,,,,,,,,,,,,,,,,,,,,,,,,,,,,,,,,,,,,,,,,,,,,,,
,,,,,,,,,,,,,,,,,,,,,,,19,Female,2020-11-20_11h00.28.906,torte-2b,2020.1.3,Win32,60,13415,,,,,,,,,,,,,,0,32,32,32,1,5,,,,,,,,,,,,,,,,,,,,,,,,,,,,,,,,,,,,,,,,,,,,,,,
,,,,,,,,,,,,,,,,,,,,,,,19,Female,2020-11-20_11h00.28.906,torte-2b,2020.1.3,Win32,60,13415,,,,,,,,,,,,,,0,33,33,33,1,1,,,,,,,,,,,,,,,,,,,,,,,,,,,,,,,,,,,,,,,,,,,,,,,
,,,,,,,,,,,,,,,,,,,,,,,19,Female,2020-11-20_11h00.28.906,torte-2b,2020.1.3,Win32,60,13415,,,,,,,,,,,,,,0,34,34,34,1,1,,,,,,,,,,,,,,,,,,,,,,,,,,,,,,,,,,,,,,,,,,,,,,,
,,,,,,,,,,,,,,,,,,,,,,,19,Female,2020-11-20_11h00.28.906,torte-2b,2020.1.3,Win32,60,13415,,,,,,,,,,,,,,,,,,,2,,0,0,0,0,1,,,,,,,,,,,,,,,,,,,,,,,,,,,,,,,,,,,,,,,,,
,,,,,,,,,,,,,,,,,,,,,,,19,Female,2020-11-20_11h00.28.906,torte-2b,2020.1.3,Win32,60,13415,,,,,,,,,,,,,,,,,,,2,,0,1,1,1,1,,,,,,,,,,,,,,,,,,,,,,,,,,,,,,,,,,,,,,,,,
,,,,,,,,,,,,,,,,,,,,,,,19,Female,2020-11-20_11h00.28.906,torte-2b,2020.1.3,Win32,60,13415,,,,,,,,,,,,,,,,,,,6,,0,2,2,2,1,,,,,,,,,,,,,,,,,,,,,,,,,,,,,,,,,,,,,,,,,
,,,,,,,,,,,,,,,,,,,,,,,19,Female,2020-11-20_11h00.28.906,torte-2b,2020.1.3,Win32,60,13415,,,,,,,,,,,,,space,,,,,,2,0.756205,0,3,3,3,1,,,,,,,,,,,,,,,,,,,,,,,,,,,,,,,,,,,,,,,,,
,,,,,,,,,,,,,,,,,,,,,,,19,Female,2020-11-20_11h00.28.906,torte-2b,2020.1.3,Win32,60,13415,,,,,,,,,,,,,,,,,,,6,,0,4,4,4,1,,,,,,,,,,,,,,,,,,,,,,,,,,,,,,,,,,,,,,,,,
,,,,,,,,,,,,,,,,,,,,,,,19,Female,2020-11-20_11h00.28.906,torte-2b,2020.1.3,Win32,60,13415,,,,,,,,,,,,,,,,,,,2,,0,5,5,5,1,,,,,,,,,,,,,,,,,,,,,,,,,,,,,,,,,,,,,,,,,
,,,,,,,,,,,,,,,,,,,,,,,19,Female,2020-11-20_11h00.28.906,torte-2b,2020.1.3,Win32,60,13415,,,,,,,,,,,,,,,,,,,7,,0,6,6,6,1,,,,,,,,,,,,,,,,,,,,,,,,,,,,,,,,,,,,,,,,,
,,,,,,,,,,,,,,,,,,,,,,,19,Female,2020-11-20_11h00.28.906,torte-2b,2020.1.3,Win32,60,13415,,,,,,,,,,,,,space,,,,,,2,0.65505,0,7,7,7,1,,,,,,,,,,,,,,,,,,,,,,,,,,,,,,,,,,,,,,,,,
,,,,,,,,,,,,,,,,,,,,,,,19,Female,2020-11-20_11h00.28.906,torte-2b,2020.1.3,Win32,60,13415,,,,,,,,,,,,,,,,,,,7,,0,8,8,8,1,,,,,,,,,,,,,,,,,,,,,,,,,,,,,,,,,,,,,,,,,
,,,,,,,,,,,,,,,,,,,,,,,19,Female,2020-11-20_11h00.28.906,torte-2b,2020.1.3,Win32,60,13415,,,,,,,,,,,,,,,,,,,2,,0,9,9,9,1,,,,,,,,,,,,,,,,,,,,,,,,,,,,,,,,,,,,,,,,,
,,,,,,,,,,,,,,,,,,,,,,,19,Female,2020-11-20_11h00.28.906,torte-2b,2020.1.3,Win32,60,13415,,,,,,,,,,,,,,,,,,,5,,0,10,10,10,1,,,,,,,,,,,,,,,,,,,,,,,,,,,,,,,,,,,,,,,,,
,,,,,,,,,,,,,,,,,,,,,,,19,Female,2020-11-20_11h00.28.906,torte-2b,2020.1.3,Win32,60,13415,,,,,,,,,,,,,,,,,,,4,,0,11,11,11,1,,,,,,,,,,,,,,,,,,,,,,,,,,,,,,,,,,,,,,,,,
,,,,,,,,,,,,,,,,,,,,,,,19,Female,2020-11-20_11h00.28.906,torte-2b,2020.1.3,Win32,60,13415,,,,,,,,,,,,,space,,,,,,5,0.72311,0,12,12,12,1,,,,,,,,,,,,,,,,,,,,,,,,,,,,,,,,,,,,,,,,,
,,,,,,,,,,,,,,,,,,,,,,,19,Female,2020-11-20_11h00.28.906,torte-2b,2020.1.3,Win32,60,13415,,,,,,,,,,,,,,,,,,,6,,0,13,13,13,1,,,,,,,,,,,,,,,,,,,,,,,,,,,,,,,,,,,,,,,,,
,,,,,,,,,,,,,,,,,,,,,,,19,Female,2020-11-20_11h00.28.906,torte-2b,2020.1.3,Win32,60,13415,,,,,,,,,,,,,,,,,,,5,,0,14,14,14,1,,,,,,,,,,,,,,,,,,,,,,,,,,,,,,,,,,,,,,,,,
,,,,,,,,,,,,,,,,,,,,,,,19,Female,2020-11-20_11h00.28.906,torte-2b,2020.1.3,Win32,60,13415,,,,,,,,,,,,,,,,,,,4,,0,15,15,15,1,,,,,,,,,,,,,,,,,,,,,,,,,,,,,,,,,,,,,,,,,
,,,,,,,,,,,,,,,,,,,,,,,19,Female,2020-11-20_11h00.28.906,torte-2b,2020.1.3,Win32,60,13415,,,,,,,,,,,,,space,,,,,,5,1.089075,0,16,16,16,1,,,,,,,,,,,,,,,,,,,,,,,,,,,,,,,,,,,,,,,,,
,,,,,,,,,,,,,,,,,,,,,,,19,Female,2020-11-20_11h00.28.906,torte-2b,2020.1.3,Win32,60,13415,,,,,,,,,,,,,,,,,,,3,,0,17,17,17,1,,,,,,,,,,,,,,,,,,,,,,,,,,,,,,,,,,,,,,,,,
,,,,,,,,,,,,,,,,,,,,,,,19,Female,2020-11-20_11h00.28.906,torte-2b,2020.1.3,Win32,60,13415,,,,,,,,,,,,,,,,,,,6,,0,18,18,18,1,,,,,,,,,,,,,,,,,,,,,,,,,,,,,,,,,,,,,,,,,
,,,,,,,,,,,,,,,,,,,,,,,19,Female,2020-11-20_11h00.28.906,torte-2b,2020.1.3,Win32,60,13415,,,,,,,,,,,,,,,,,,,6,,0,19,19,19,1,,,,,,,,,,,,,,,,,,,,,,,,,,,,,,,,,,,,,,,,,
,,,,,,,,,,,,,,,,,,,,,,,19,Female,2020-11-20_11h00.28.906,torte-2b,2020.1.3,Win32,60,13415,,,,,,,,,,,,,space,,,,,,6,0.68931,0,20,20,20,1,,,,,,,,,,,,,,,,,,,,,,,,,,,,,,,,,,,,,,,,,
,,,,,,,,,,,,,,,,,,,,,,,19,Female,2020-11-20_11h00.28.906,torte-2b,2020.1.3,Win32,60,13415,,,,,,,,,,,,,,,,,,,4,,0,21,21,21,1,,,,,,,,,,,,,,,,,,,,,,,,,,,,,,,,,,,,,,,,,
,,,,,,,,,,,,,,,,,,,,,,,19,Female,2020-11-20_11h00.28.906,torte-2b,2020.1.3,Win32,60,13415,,,,,,,,,,,,,,,,,,,6,,0,22,22,22,1,,,,,,,,,,,,,,,,,,,,,,,,,,,,,,,,,,,,,,,,,
,,,,,,,,,,,,,,,,,,,,,,,19,Female,2020-11-20_11h00.28.906,torte-2b,2020.1.3,Win32,60,13415,,,,,,,,,,,,,space,,,,,,4,0.755805,0,23,23,23,1,,,,,,,,,,,,,,,,,,,,,,,,,,,,,,,,,,,,,,,,,
,,,,,,,,,,,,,,,,,,,,,,,19,Female,2020-11-20_11h00.28.906,torte-2b,2020.1.3,Win32,60,13415,,,,,,,,,,,,,,,,,,,6,,0,24,24,24,1,,,,,,,,,,,,,,,,,,,,,,,,,,,,,,,,,,,,,,,,,
,,,,,,,,,,,,,,,,,,,,,,,19,Female,2020-11-20_11h00.28.906,torte-2b,2020.1.3,Win32,60,13415,,,,,,,,,,,,,,,,,,,6,,0,25,25,25,1,,,,,,,,,,,,,,,,,,,,,,,,,,,,,,,,,,,,,,,,,
,,,,,,,,,,,,,,,,,,,,,,,19,Female,2020-11-20_11h00.28.906,torte-2b,2020.1.3,Win32,60,13415,,,,,,,,,,,,,,,,,,,7,,0,26,26,26,1,,,,,,,,,,,,,,,,,,,,,,,,,,,,,,,,,,,,,,,,,
,,,,,,,,,,,,,,,,,,,,,,,19,Female,2020-11-20_11h00.28.906,torte-2b,2020.1.3,Win32,60,13415,,,,,,,,,,,,,,,,,,,1,,0,27,27,27,1,,,,,,,,,,,,,,,,,,,,,,,,,,,,,,,,,,,,,,,,,
,,,,,,,,,,,,,,,,,,,,,,,19,Female,2020-11-20_11h00.28.906,torte-2b,2020.1.3,Win32,60,13415,,,,,,,,,,,,,space,,,,,,7,0.75825,0,28,28,28,1,,,,,,,,,,,,,,,,,,,,,,,,,,,,,,,,,,,,,,,,,
,,,,,,,,,,,,,,,,,,,,,,,19,Female,2020-11-20_11h00.28.906,torte-2b,2020.1.3,Win32,60,13415,,,,,,,,,,,,,,,,,,,4,,0,29,29,29,1,,,,,,,,,,,,,,,,,,,,,,,,,,,,,,,,,,,,,,,,,
,,,,,,,,,,,,,,,,,,,,,,,19,Female,2020-11-20_11h00.28.906,torte-2b,2020.1.3,Win32,60,13415,,,,,,,,,,,,,,,,,,,7,,0,30,30,30,1,,,,,,,,,,,,,,,,,,,,,,,,,,,,,,,,,,,,,,,,,
,,,,,,,,,,,,,,,,,,,,,,,19,Female,2020-11-20_11h00.28.906,torte-2b,2020.1.3,Win32,60,13415,,,,,,,,,,,,,,,,,,,3,,0,31,31,31,1,,,,,,,,,,,,,,,,,,,,,,,,,,,,,,,,,,,,,,,,,
,,,,,,,,,,,,,,,,,,,,,,,19,Female,2020-11-20_11h00.28.906,torte-2b,2020.1.3,Win32,60,13415,,,,,,,,,,,,,,,,,,,2,,0,32,32,32,1,,,,,,,,,,,,,,,,,,,,,,,,,,,,,,,,,,,,,,,,,
,,,,,,,,,,,,,,,,,,,,,,,19,Female,2020-11-20_11h00.28.906,torte-2b,2020.1.3,Win32,60,13415,,,,,,,,,,,,,space,,,,,,6,0.48934,0,33,33,33,1,,,,,,,,,,,,,,,,,,,,,,,,,,,,,,,,,,,,,,,,,
,,,,,,,,,,,,,,,,,,,,,,,19,Female,2020-11-20_11h00.28.906,torte-2b,2020.1.3,Win32,60,13415,,,,,,,,,,,,,,,,,,,3,,0,34,34,34,1,,,,,,,,,,,,,,,,,,,,,,,,,,,,,,,,,,,,,,,,,
,,,,,,,,,,,,,,,,,,,,,,,19,Female,2020-11-20_11h00.28.906,torte-2b,2020.1.3,Win32,60,13415,,,,,,,,,,,,,,,,,,,7,,,,,,,0,0,0,0,1,,,,,,,,,,,,,,,,,,,,,,,,,,,,,,,,,,,,
,,,,,,,,,,,,,,,,,,,,,,,19,Female,2020-11-20_11h00.28.906,torte-2b,2020.1.3,Win32,60,13415,,,,,,,,,,,,,,,,,,,5,,,,,,,0,1,1,1,1,,,,,,,,,,,,,,,,,,,,,,,,,,,,,,,,,,,,
,,,,,,,,,,,,,,,,,,,,,,,19,Female,2020-11-20_11h00.28.906,torte-2b,2020.1.3,Win32,60,13415,,,,,,,,,,,,,,,,,,,4,,,,,,,0,2,2,2,1,,,,,,,,,,,,,,,,,,,,,,,,,,,,,,,,,,,,
,,,,,,,,,,,,,,,,,,,,,,,19,Female,2020-11-20_11h00.28.906,torte-2b,2020.1.3,Win32,60,13415,,,,,,,,,,,,,space,,,,,,5,0.874555,,,,,,0,3,3,3,1,,,,,,,,,,,,,,,,,,,,,,,,,,,,,,,,,,,,
,,,,,,,,,,,,,,,,,,,,,,,19,Female,2020-11-20_11h00.28.906,torte-2b,2020.1.3,Win32,60,13415,,,,,,,,,,,,,,,,,,,6,,,,,,,0,4,4,4,1,,,,,,,,,,,,,,,,,,,,,,,,,,,,,,,,,,,,
,,,,,,,,,,,,,,,,,,,,,,,19,Female,2020-11-20_11h00.28.906,torte-2b,2020.1.3,Win32,60,13415,,,,,,,,,,,,,,,,,,,5,,,,,,,0,5,5,5,1,,,,,,,,,,,,,,,,,,,,,,,,,,,,,,,,,,,,
,,,,,,,,,,,,,,,,,,,,,,,19,Female,2020-11-20_11h00.28.906,torte-2b,2020.1.3,Win32,60,13415,,,,,,,,,,,,,,,,,,,3,,,,,,,0,6,6,6,1,,,,,,,,,,,,,,,,,,,,,,,,,,,,,,,,,,,,
,,,,,,,,,,,,,,,,,,,,,,,19,Female,2020-11-20_11h00.28.906,torte-2b,2020.1.3,Win32,60,13415,,,,,,,,,,,,,,,,,,,4,,,,,,,0,7,7,7,1,,,,,,,,,,,,,,,,,,,,,,,,,,,,,,,,,,,,
,,,,,,,,,,,,,,,,,,,,,,,19,Female,2020-11-20_11h00.28.906,torte-2b,2020.1.3,Win32,60,13415,,,,,,,,,,,,,space,,,,,,3,1.39239,,,,,,0,8,8,8,1,,,,,,,,,,,,,,,,,,,,,,,,,,,,,,,,,,,,
,,,,,,,,,,,,,,,,,,,,,,,19,Female,2020-11-20_11h00.28.906,torte-2b,2020.1.3,Win32,60,13415,,,,,,,,,,,,,,,,,,,1,,,,,,,0,9,9,9,1,,,,,,,,,,,,,,,,,,,,,,,,,,,,,,,,,,,,
,,,,,,,,,,,,,,,,,,,,,,,19,Female,2020-11-20_11h00.28.906,torte-2b,2020.1.3,Win32,60,13415,,,,,,,,,,,,,,,,,,,2,,,,,,,0,10,10,10,1,,,,,,,,,,,,,,,,,,,,,,,,,,,,,,,,,,,,
,,,,,,,,,,,,,,,,,,,,,,,19,Female,2020-11-20_11h00.28.906,torte-2b,2020.1.3,Win32,60,13415,,,,,,,,,,,,,space,,,,,,1,1.054765,,,,,,0,11,11,11,1,,,,,,,,,,,,,,,,,,,,,,,,,,,,,,,,,,,,
,,,,,,,,,,,,,,,,,,,,,,,19,Female,2020-11-20_11h00.28.906,torte-2b,2020.1.3,Win32,60,13415,,,,,,,,,,,,,,,,,,,2,,,,,,,0,12,12,12,1,,,,,,,,,,,,,,,,,,,,,,,,,,,,,,,,,,,,
,,,,,,,,,,,,,,,,,,,,,,,19,Female,2020-11-20_11h00.28.906,torte-2b,2020.1.3,Win32,60,13415,,,,,,,,,,,,,,,,,,,1,,,,,,,0,13,13,13,1,,,,,,,,,,,,,,,,,,,,,,,,,,,,,,,,,,,,
,,,,,,,,,,,,,,,,,,,,,,,19,Female,2020-11-20_11h00.28.906,torte-2b,2020.1.3,Win32,60,13415,,,,,,,,,,,,,,,,,,,3,,,,,,,0,14,14,14,1,,,,,,,,,,,,,,,,,,,,,,,,,,,,,,,,,,,,
,,,,,,,,,,,,,,,,,,,,,,,19,Female,2020-11-20_11h00.28.906,torte-2b,2020.1.3,Win32,60,13415,,,,,,,,,,,,,space,,,,,,1,0.831565,,,,,,0,15,15,15,1,,,,,,,,,,,,,,,,,,,,,,,,,,,,,,,,,,,,
,,,,,,,,,,,,,,,,,,,,,,,19,Female,2020-11-20_11h00.28.906,torte-2b,2020.1.3,Win32,60,13415,,,,,,,,,,,,,space,,,,,,7,1.46866,,,,,,0,16,16,16,1,,,,,,,,,,,,,,,,,,,,,,,,,,,,,,,,,,,,
,,,,,,,,,,,,,,,,,,,,,,,19,Female,2020-11-20_11h00.28.906,torte-2b,2020.1.3,Win32,60,13415,,,,,,,,,,,,,,,,,,,7,,,,,,,0,17,17,17,1,,,,,,,,,,,,,,,,,,,,,,,,,,,,,,,,,,,,
,,,,,,,,,,,,,,,,,,,,,,,19,Female,2020-11-20_11h00.28.906,torte-2b,2020.1.3,Win32,60,13415,,,,,,,,,,,,,,,,,,,4,,,,,,,0,18,18,18,1,,,,,,,,,,,,,,,,,,,,,,,,,,,,,,,,,,,,
,,,,,,,,,,,,,,,,,,,,,,,19,Female,2020-11-20_11h00.28.906,torte-2b,2020.1.3,Win32,60,13415,,,,,,,,,,,,,space,,,,,,7,0.44692,,,,,,0,19,19,19,1,,,,,,,,,,,,,,,,,,,,,,,,,,,,,,,,,,,,
,,,,,,,,,,,,,,,,,,,,,,,19,Female,2020-11-20_11h00.28.906,torte-2b,2020.1.3,Win32,60,13415,,,,,,,,,,,,,,,,,,,3,,,,,,,0,20,20,20,1,,,,,,,,,,,,,,,,,,,,,,,,,,,,,,,,,,,,
,,,,,,,,,,,,,,,,,,,,,,,19,Female,2020-11-20_11h00.28.906,torte-2b,2020.1.3,Win32,60,13415,,,,,,,,,,,,,,,,,,,7,,,,,,,0,21,21,21,1,,,,,,,,,,,,,,,,,,,,,,,,,,,,,,,,,,,,
,,,,,,,,,,,,,,,,,,,,,,,19,Female,2020-11-20_11h00.28.906,torte-2b,2020.1.3,Win32,60,13415,,,,,,,,,,,,,space,,,,,,3,0.72266,,,,,,0,22,22,22,1,,,,,,,,,,,,,,,,,,,,,,,,,,,,,,,,,,,,
,,,,,,,,,,,,,,,,,,,,,,,19,Female,2020-11-20_11h00.28.906,torte-2b,2020.1.3,Win32,60,13415,,,,,,,,,,,,,,,,,,,1,,,,,,,0,23,23,23,1,,,,,,,,,,,,,,,,,,,,,,,,,,,,,,,,,,,,
,,,,,,,,,,,,,,,,,,,,,,,19,Female,2020-11-20_11h00.28.906,torte-2b,2020.1.3,Win32,60,13415,,,,,,,,,,,,,,,,,,,6,,,,,,,0,24,24,24,1,,,,,,,,,,,,,,,,,,,,,,,,,,,,,,,,,,,,
,,,,,,,,,,,,,,,,,,,,,,,19,Female,2020-11-20_11h00.28.906,torte-2b,2020.1.3,Win32,60,13415,,,,,,,,,,,,,,,,,,,3,,,,,,,0,25,25,25,1,,,,,,,,,,,,,,,,,,,,,,,,,,,,,,,,,,,,
,,,,,,,,,,,,,,,,,,,,,,,19,Female,2020-11-20_11h00.28.906,torte-2b,2020.1.3,Win32,60,13415,,,,,,,,,,,,,,,,,,,2,,,,,,,0,26,26,26,1,,,,,,,,,,,,,,,,,,,,,,,,,,,,,,,,,,,,
,,,,,,,,,,,,,,,,,,,,,,,19,Female,2020-11-20_11h00.28.906,torte-2b,2020.1.3,Win32,60,13415,,,,,,,,,,,,,space,,,,,,3,0.63916,,,,,,0,27,27,27,1,,,,,,,,,,,,,,,,,,,,,,,,,,,,,,,,,,,,
,,,,,,,,,,,,,,,,,,,,,,,19,Female,2020-11-20_11h00.28.906,torte-2b,2020.1.3,Win32,60,13415,,,,,,,,,,,,,,,,,,,1,,,,,,,0,28,28,28,1,,,,,,,,,,,,,,,,,,,,,,,,,,,,,,,,,,,,
,,,,,,,,,,,,,,,,,,,,,,,19,Female,2020-11-20_11h00.28.906,torte-2b,2020.1.3,Win32,60,13415,,,,,,,,,,,,,,,,,,,3,,,,,,,0,29,29,29,1,,,,,,,,,,,,,,,,,,,,,,,,,,,,,,,,,,,,
,,,,,,,,,,,,,,,,,,,,,,,19,Female,2020-11-20_11h00.28.906,torte-2b,2020.1.3,Win32,60,13415,,,,,,,,,,,,,space,,,,,,1,0.783905,,,,,,0,30,30,30,1,,,,,,,,,,,,,,,,,,,,,,,,,,,,,,,,,,,,
,,,,,,,,,,,,,,,,,,,,,,,19,Female,2020-11-20_11h00.28.906,torte-2b,2020.1.3,Win32,60,13415,,,,,,,,,,,,,,,,,,,7,,,,,,,0,31,31,31,1,,,,,,,,,,,,,,,,,,,,,,,,,,,,,,,,,,,,
,,,,,,,,,,,,,,,,,,,,,,,19,Female,2020-11-20_11h00.28.906,torte-2b,2020.1.3,Win32,60,13415,,,,,,,,,,,,,,,,,,,5,,,,,,,0,32,32,32,1,,,,,,,,,,,,,,,,,,,,,,,,,,,,,,,,,,,,
,,,,,,,,,,,,,,,,,,,,,,,19,Female,2020-11-20_11h00.28.906,torte-2b,2020.1.3,Win32,60,13415,,,,,,,,,,,,,space,,,,,,7,0.697425,,,,,,0,33,33,33,1,,,,,,,,,,,,,,,,,,,,,,,,,,,,,,,,,,,,
,,,,,,,,,,,,,,,,,,,,,,,19,Female,2020-11-20_11h00.28.906,torte-2b,2020.1.3,Win32,60,13415,,,,,,,,,,,,,,,,,,,2,,,,,,,0,34,34,34,1,,,,,,,,,,,,,,,,,,,,,,,,,,,,,,,,,,,,
,,,,,,,,,,,,,,,,,,,,,,,19,Female,2020-11-20_11h00.28.906,torte-2b,2020.1.3,Win32,60,13415,,,,,,,,,,,,,,,,,,,3,,,,,,,,,,,,0,0,0,0,1,,,,,,,,,,,,,,,,,,,,,,,,,,,,,,,
,,,,,,,,,,,,,,,,,,,,,,,19,Female,2020-11-20_11h00.28.906,torte-2b,2020.1.3,Win32,60,13415,,,,,,,,,,,,,,,,,,,7,,,,,,,,,,,,0,1,1,1,1,,,,,,,,,,,,,,,,,,,,,,,,,,,,,,,
,,,,,,,,,,,,,,,,,,,,,,,19,Female,2020-11-20_11h00.28.906,torte-2b,2020.1.3,Win32,60,13415,,,,,,,,,,,,,,,,,,,7,,,,,,,,,,,,0,2,2,2,1,,,,,,,,,,,,,,,,,,,,,,,,,,,,,,,
,,,,,,,,,,,,,,,,,,,,,,,19,Female,2020-11-20_11h00.28.906,torte-2b,2020.1.3,Win32,60,13415,,,,,,,,,,,,,,,,,,,4,,,,,,,,,,,,0,3,3,3,1,,,,,,,,,,,,,,,,,,,,,,,,,,,,,,,
,,,,,,,,,,,,,,,,,,,,,,,19,Female,2020-11-20_11h00.28.906,torte-2b,2020.1.3,Win32,60,13415,,,,,,,,,,,,,,,,,,,5,,,,,,,,,,,,0,4,4,4,1,,,,,,,,,,,,,,,,,,,,,,,,,,,,,,,
,,,,,,,,,,,,,,,,,,,,,,,19,Female,2020-11-20_11h00.28.906,torte-2b,2020.1.3,Win32,60,13415,,,,,,,,,,,,,space,,,,,,4,0.343805,,,,,,,,,,,0,5,5,5,1,,,,,,,,,,,,,,,,,,,,,,,,,,,,,,,
,,,,,,,,,,,,,,,,,,,,,,,19,Female,2020-11-20_11h00.28.906,torte-2b,2020.1.3,Win32,60,13415,,,,,,,,,,,,,,,,,,,2,,,,,,,,,,,,0,6,6,6,1,,,,,,,,,,,,,,,,,,,,,,,,,,,,,,,
,,,,,,,,,,,,,,,,,,,,,,,19,Female,2020-11-20_11h00.28.906,torte-2b,2020.1.3,Win32,60,13415,,,,,,,,,,,,,,,,,,,4,,,,,,,,,,,,0,7,7,7,1,,,,,,,,,,,,,,,,,,,,,,,,,,,,,,,
,,,,,,,,,,,,,,,,,,,,,,,19,Female,2020-11-20_11h00.28.906,torte-2b,2020.1.3,Win32,60,13415,,,,,,,,,,,,,space,,,,,,2,0.36423,,,,,,,,,,,0,8,8,8,1,,,,,,,,,,,,,,,,,,,,,,,,,,,,,,,
,,,,,,,,,,,,,,,,,,,,,,,19,Female,2020-11-20_11h00.28.906,torte-2b,2020.1.3,Win32,60,13415,,,,,,,,,,,,,,,,,,,2,,,,,,,,,,,,0,9,9,9,1,,,,,,,,,,,,,,,,,,,,,,,,,,,,,,,
,,,,,,,,,,,,,,,,,,,,,,,19,Female,2020-11-20_11h00.28.906,torte-2b,2020.1.3,Win32,60,13415,,,,,,,,,,,,,,,,,,,6,,,,,,,,,,,,0,10,10,10,1,,,,,,,,,,,,,,,,,,,,,,,,,,,,,,,
,,,,,,,,,,,,,,,,,,,,,,,19,Female,2020-11-20_11h00.28.906,torte-2b,2020.1.3,Win32,60,13415,,,,,,,,,,,,,space,,,,,,2,0.45672,,,,,,,,,,,0,11,11,11,1,,,,,,,,,,,,,,,,,,,,,,,,,,,,,,,
,,,,,,,,,,,,,,,,,,,,,,,19,Female,2020-11-20_11h00.28.906,torte-2b,2020.1.3,Win32,60,13415,,,,,,,,,,,,,,,,,,,2,,,,,,,,,,,,0,12,12,12,1,,,,,,,,,,,,,,,,,,,,,,,,,,,,,,,
,,,,,,,,,,,,,,,,,,,,,,,19,Female,2020-11-20_11h00.28.906,torte-2b,2020.1.3,Win32,60,13415,,,,,,,,,,,,,,,,,,,2,,,,,,,,,,,,0,13,13,13,1,,,,,,,,,,,,,,,,,,,,,,,,,,,,,,,
,,,,,,,,,,,,,,,,,,,,,,,19,Female,2020-11-20_11h00.28.906,torte-2b,2020.1.3,Win32,60,13415,,,,,,,,,,,,,space,,,,,,2,0.363735,,,,,,,,,,,0,14,14,14,1,,,,,,,,,,,,,,,,,,,,,,,,,,,,,,,
,,,,,,,,,,,,,,,,,,,,,,,19,Female,2020-11-20_11h00.28.906,torte-2b,2020.1.3,Win32,60,13415,,,,,,,,,,,,,,,,,,,4,,,,,,,,,,,,0,15,15,15,1,,,,,,,,,,,,,,,,,,,,,,,,,,,,,,,
,,,,,,,,,,,,,,,,,,,,,,,19,Female,2020-11-20_11h00.28.906,torte-2b,2020.1.3,Win32,60,13415,,,,,,,,,,,,,,,,,,,3,,,,,,,,,,,,0,16,16,16,1,,,,,,,,,,,,,,,,,,,,,,,,,,,,,,,
,,,,,,,,,,,,,,,,,,,,,,,19,Female,2020-11-20_11h00.28.906,torte-2b,2020.1.3,Win32,60,13415,,,,,,,,,,,,,,,,,,,7,,,,,,,,,,,,0,17,17,17,1,,,,,,,,,,,,,,,,,,,,,,,,,,,,,,,
,,,,,,,,,,,,,,,,,,,,,,,19,Female,2020-11-20_11h00.28.906,torte-2b,2020.1.3,Win32,60,13415,,,,,,,,,,,,,,,,,,,4,,,,,,,,,,,,0,18,18,18,1,,,,,,,,,,,,,,,,,,,,,,,,,,,,,,,
,,,,,,,,,,,,,,,,,,,,,,,19,Female,2020-11-20_11h00.28.906,torte-2b,2020.1.3,Win32,60,13415,,,,,,,,,,,,,space,,,,,,7,0.35663,,,,,,,,,,,0,19,19,19,1,,,,,,,,,,,,,,,,,,,,,,,,,,,,,,,
,,,,,,,,,,,,,,,,,,,,,,,19,Female,2020-11-20_11h00.28.906,torte-2b,2020.1.3,Win32,60,13415,,,,,,,,,,,,,,,,,,,7,,,,,,,,,,,,0,20,20,20,1,,,,,,,,,,,,,,,,,,,,,,,,,,,,,,,
,,,,,,,,,,,,,,,,,,,,,,,19,Female,2020-11-20_11h00.28.906,torte-2b,2020.1.3,Win32,60,13415,,,,,,,,,,,,,,,,,,,7,,,,,,,,,,,,0,21,21,21,1,,,,,,,,,,,,,,,,,,,,,,,,,,,,,,,
,,,,,,,,,,,,,,,,,,,,,,,19,Female,2020-11-20_11h00.28.906,torte-2b,2020.1.3,Win32,60,13415,,,,,,,,,,,,,space,,,,,,7,0.35574,,,,,,,,,,,0,22,22,22,1,,,,,,,,,,,,,,,,,,,,,,,,,,,,,,,
,,,,,,,,,,,,,,,,,,,,,,,19,Female,2020-11-20_11h00.28.906,torte-2b,2020.1.3,Win32,60,13415,,,,,,,,,,,,,,,,,,,1,,,,,,,,,,,,0,23,23,23,1,,,,,,,,,,,,,,,,,,,,,,,,,,,,,,,
,,,,,,,,,,,,,,,,,,,,,,,19,Female,2020-11-20_11h00.28.906,torte-2b,2020.1.3,Win32,60,13415,,,,,,,,,,,,,,,,,,,7,,,,,,,,,,,,0,24,24,24,1,,,,,,,,,,,,,,,,,,,,,,,,,,,,,,,
,,,,,,,,,,,,,,,,,,,,,,,19,Female,2020-11-20_11h00.28.906,torte-2b,2020.1.3,Win32,60,13415,,,,,,,,,,,,,space,,,,,,1,0.35367,,,,,,,,,,,0,25,25,25,1,,,,,,,,,,,,,,,,,,,,,,,,,,,,,,,
,,,,,,,,,,,,,,,,,,,,,,,19,Female,2020-11-20_11h00.28.906,torte-2b,2020.1.3,Win32,60,13415,,,,,,,,,,,,,,,,,,,7,,,,,,,,,,,,0,26,26,26,1,,,,,,,,,,,,,,,,,,,,,,,,,,,,,,,
,,,,,,,,,,,,,,,,,,,,,,,19,Female,2020-11-20_11h00.28.906,torte-2b,2020.1.3,Win32,60,13415,,,,,,,,,,,,,,,,,,,2,,,,,,,,,,,,0,27,27,27,1,,,,,,,,,,,,,,,,,,,,,,,,,,,,,,,
,,,,,,,,,,,,,,,,,,,,,,,19,Female,2020-11-20_11h00.28.906,torte-2b,2020.1.3,Win32,60,13415,,,,,,,,,,,,,,,,,,,5,,,,,,,,,,,,0,28,28,28,1,,,,,,,,,,,,,,,,,,,,,,,,,,,,,,,
,,,,,,,,,,,,,,,,,,,,,,,19,Female,2020-11-20_11h00.28.906,torte-2b,2020.1.3,Win32,60,13415,,,,,,,,,,,,,,,,,,,5,,,,,,,,,,,,0,29,29,29,1,,,,,,,,,,,,,,,,,,,,,,,,,,,,,,,
,,,,,,,,,,,,,,,,,,,,,,,19,Female,2020-11-20_11h00.28.906,torte-2b,2020.1.3,Win32,60,13415,,,,,,,,,,,,,space,,,,,,5,0.313725,,,,,,,,,,,0,30,30,30,1,,,,,,,,,,,,,,,,,,,,,,,,,,,,,,,
,,,,,,,,,,,,,,,,,,,,,,,19,Female,2020-11-20_11h00.28.906,torte-2b,2020.1.3,Win32,60,13415,,,,,,,,,,,,,,,,,,,1,,,,,,,,,,,,0,31,31,31,1,,,,,,,,,,,,,,,,,,,,,,,,,,,,,,,
,,,,,,,,,,,,,,,,,,,,,,,19,Female,2020-11-20_11h00.28.906,torte-2b,2020.1.3,Win32,60,13415,,,,,,,,,,,,,,,,,,,5,,,,,,,,,,,,0,32,32,32,1,,,,,,,,,,,,,,,,,,,,,,,,,,,,,,,
,,,,,,,,,,,,,,,,,,,,,,,19,Female,2020-11-20_11h00.28.906,torte-2b,2020.1.3,Win32,60,13415,,,,,,,,,,,,,,,,,,,3,,,,,,,,,,,,0,33,33,33,1,,,,,,,,,,,,,,,,,,,,,,,,,,,,,,,
,,,,,,,,,,,,,,,,,,,,,,,19,Female,2020-11-20_11h00.28.906,torte-2b,2020.1.3,Win32,60,13415,,,,,,,,,,,,,,,,,,,3,,,,,,,,,,,,0,34,34,34,1,,,,,,,,,,,,,,,,,,,,,,,,,,,,,,,
,,,,,,,,,,,,a,Correct!,,,,,,t2.png,t2.png,0,0.98115,19,Female,2020-11-20_11h00.28.906,torte-2b,2020.1.3,Win32,60,13415,0.84376,space,1.35673,,,,,,,,,,,,,,,,,,,,,,,,,,,,,,,,,space,46.96227,0,0,0,7,1,,,,,,,,,,,,,,,,,,,,,,,,
,,,,,,,,,,,,a,Incorrect,,,,,,t3.png,t5.png,2,0.056466,19,Female,2020-11-20_11h00.28.906,torte-2b,2020.1.3,Win32,60,13415,0.706725,,,,,,,,,,,,,,,,,,,,,,,,,,,,,,,,,,,,,0,1,1,44,1,,,,,,,,,,,,,,,,,,,,,,,,
,,,,,,,,,,,,a,Correct!,,,,,,t4.png,t3.png,1,0.909,19,Female,2020-11-20_11h00.28.906,torte-2b,2020.1.3,Win32,60,13415,0.356605,,,,,,,,,,,,,,,,,,,,,,,,,,,,,,,,,,,,,0,2,2,20,1,,,,,,,,,,,,,,,,,,,,,,,,
,,,,,,,,,,,,l,Incorrect,,,,,,t2.png,t1.png,1,0.90025,19,Female,2020-11-20_11h00.28.906,torte-2b,2020.1.3,Win32,60,13415,0.24553,,,,,,,,,,,,,,,,,,,,,,,,,,,,,,,,,,,,,0,3,3,5,1,,,,,,,,,,,,,,,,,,,,,,,,
,,,,,,,,,,,,a,Incorrect,,,,,,t3.png,t5.png,2,0.056466,19,Female,2020-11-20_11h00.28.906,torte-2b,2020.1.3,Win32,60,13415,0.284025,,,,,,,,,,,,,,,,,,,,,,,,,,,,,,,,,,,,,0,4,4,6,1,,,,,,,,,,,,,,,,,,,,,,,,
,,,,,,,,,,,,l,Correct!,,,,,,t1.png,t4.png,3,0.0000131,19,Female,2020-11-20_11h00.28.906,torte-2b,2020.1.3,Win32,60,13415,0.21966,,,,,,,,,,,,,,,,,,,,,,,,,,,,,,,,,,,,,0,5,5,92,1,,,,,,,,,,,,,,,,,,,,,,,,
,,,,,,,,,,,,l,Incorrect,,,,,,t2.png,t3.png,1,0.90855,19,Female,2020-11-20_11h00.28.906,torte-2b,2020.1.3,Win32,60,13415,0.187975,,,,,,,,,,,,,,,,,,,,,,,,,,,,,,,,,,,,,0,6,6,68,1,,,,,,,,,,,,,,,,,,,,,,,,
,,,,,,,,,,,,l,Correct!,,,,,,t1.png,t5.png,4,9.55E-11,19,Female,2020-11-20_11h00.28.906,torte-2b,2020.1.3,Win32,60,13415,0.073795,,,,,,,,,,,,,,,,,,,,,,,,,,,,,,,,,,,,,0,7,7,85,1,,,,,,,,,,,,,,,,,,,,,,,,
,,,,,,,,,,,,l,Correct!,,,,,,t1.png,t4.png,3,0.0000131,19,Female,2020-11-20_11h00.28.906,torte-2b,2020.1.3,Win32,60,13415,0.215275,,,,,,,,,,,,,,,,,,,,,,,,,,,,,,,,,,,,,0,8,8,50,1,,,,,,,,,,,,,,,,,,,,,,,,
,,,,,,,,,,,,a,Incorrect,,,,,,t5.png,t2.png,3,0.0000131,19,Female,2020-11-20_11h00.28.906,torte-2b,2020.1.3,Win32,60,13415,0.073105,,,,,,,,,,,,,,,,,,,,,,,,,,,,,,,,,,,,,0,9,9,51,1,,,,,,,,,,,,,,,,,,,,,,,,
,,,,,,,,,,,,a,Correct!,,,,,,t3.png,t4.png,1,0.909,19,Female,2020-11-20_11h00.28.906,torte-2b,2020.1.3,Win32,60,13415,0.003615,,,,,,,,,,,,,,,,,,,,,,,,,,,,,,,,,,,,,0,10,10,106,1,,,,,,,,,,,,,,,,,,,,,,,,
,,,,,,,,,,,,a,Correct!,,,,,,t2.png,t3.png,1,0.90855,19,Female,2020-11-20_11h00.28.906,torte-2b,2020.1.3,Win32,60,13415,0.01143,,,,,,,,,,,,,,,,,,,,,,,,,,,,,,,,,,,,,0,11,11,65,1,,,,,,,,,,,,,,,,,,,,,,,,
,,,,,,,,,,,,a,Correct!,,,,,,t4.png,t3.png,1,0.90855,19,Female,2020-11-20_11h00.28.906,torte-2b,2020.1.3,Win32,60,13415,0.102395,,,,,,,,,,,,,,,,,,,,,,,,,,,,,,,,,,,,,0,12,12,75,1,,,,,,,,,,,,,,,,,,,,,,,,
,,,,,,,,,,,,a,Correct!,,,,,,t4.png,t5.png,1,0.90025,19,Female,2020-11-20_11h00.28.906,torte-2b,2020.1.3,Win32,60,13415,0.215865,,,,,,,,,,,,,,,,,,,,,,,,,,,,,,,,,,,,,0,13,13,58,1,,,,,,,,,,,,,,,,,,,,,,,,
,,,,,,,,,,,,l,Incorrect,,,,,,t1.png,t1.png,0,0.978,19,Female,2020-11-20_11h00.28.906,torte-2b,2020.1.3,Win32,60,13415,0.23393,,,,,,,,,,,,,,,,,,,,,,,,,,,,,,,,,,,,,0,14,14,54,1,,,,,,,,,,,,,,,,,,,,,,,,
,,,,,,,,,,,,l,Correct!,,,,,,t5.png,t1.png,4,9.55E-11,19,Female,2020-11-20_11h00.28.906,torte-2b,2020.1.3,Win32,60,13415,0.177445,,,,,,,,,,,,,,,,,,,,,,,,,,,,,,,,,,,,,0,15,15,71,1,,,,,,,,,,,,,,,,,,,,,,,,
,,,,,,,,,,,,l,Incorrect,,,,,,t1.png,t2.png,1,0.90025,19,Female,2020-11-20_11h00.28.906,torte-2b,2020.1.3,Win32,60,13415,0.20246,,,,,,,,,,,,,,,,,,,,,,,,,,,,,,,,,,,,,0,16,16,33,1,,,,,,,,,,,,,,,,,,,,,,,,
,,,,,,,,,,,,a,Correct!,,,,,,t3.png,t2.png,1,0.90855,19,Female,2020-11-20_11h00.28.906,torte-2b,2020.1.3,Win32,60,13415,0.010975,,,,,,,,,,,,,,,,,,,,,,,,,,,,,,,,,,,,,0,17,17,18,1,,,,,,,,,,,,,,,,,,,,,,,,
,,,,,,,,,,,,l,Incorrect,,,,,,t1.png,t1.png,0,0.97829,19,Female,2020-11-20_11h00.28.906,torte-2b,2020.1.3,Win32,60,13415,0.18901,,,,,,,,,,,,,,,,,,,,,,,,,,,,,,,,,,,,,0,18,18,9,1,,,,,,,,,,,,,,,,,,,,,,,,
,,,,,,,,,,,,a,Incorrect,,,,,,t3.png,t1.png,2,0.056466,19,Female,2020-11-20_11h00.28.906,torte-2b,2020.1.3,Win32,60,13415,0.185935,,,,,,,,,,,,,,,,,,,,,,,,,,,,,,,,,,,,,0,19,19,32,1,,,,,,,,,,,,,,,,,,,,,,,,
,,,,,,,,,,,,a,Incorrect,,,,,,t3.png,t1.png,2,0.056466,19,Female,2020-11-20_11h00.28.906,torte-2b,2020.1.3,Win32,60,13415,0.26599,,,,,,,,,,,,,,,,,,,,,,,,,,,,,,,,,,,,,0,20,20,29,1,,,,,,,,,,,,,,,,,,,,,,,,
,,,,,,,,,,,,a,Incorrect,,,,,,t1.png,t5.png,4,9.55E-11,19,Female,2020-11-20_11h00.28.906,torte-2b,2020.1.3,Win32,60,13415,0.20422,,,,,,,,,,,,,,,,,,,,,,,,,,,,,,,,,,,,,0,21,21,41,1,,,,,,,,,,,,,,,,,,,,,,,,
,,,,,,,,,,,,a,Incorrect,,,,,,t4.png,t2.png,2,0.059078,19,Female,2020-11-20_11h00.28.906,torte-2b,2020.1.3,Win32,60,13415,0.141635,,,,,,,,,,,,,,,,,,,,,,,,,,,,,,,,,,,,,0,22,22,110,1,,,,,,,,,,,,,,,,,,,,,,,,
,,,,,,,,,,,,l,Correct!,,,,,,t5.png,t2.png,3,0.0000131,19,Female,2020-11-20_11h00.28.906,torte-2b,2020.1.3,Win32,60,13415,0.251735,,,,,,,,,,,,,,,,,,,,,,,,,,,,,,,,,,,,,0,23,23,91,1,,,,,,,,,,,,,,,,,,,,,,,,
,,,,,,,,,,,,l,Correct!,,,,,,t3.png,t5.png,2,0.0565,19,Female,2020-11-20_11h00.28.906,torte-2b,2020.1.3,Win32,60,13415,0.21786,,,,,,,,,,,,,,,,,,,,,,,,,,,,,,,,,,,,,0,24,24,30,1,,,,,,,,,,,,,,,,,,,,,,,,
,,,,,,,,,,,,a,Incorrect,,,,,,t1.png,t3.png,2,0.056466,19,Female,2020-11-20_11h00.28.906,torte-2b,2020.1.3,Win32,60,13415,0.252875,,,,,,,,,,,,,,,,,,,,,,,,,,,,,,,,,,,,,0,25,25,99,1,,,,,,,,,,,,,,,,,,,,,,,,
,,,,,,,,,,,,l,Correct!,,,,,,t4.png,t3.png,1,0.909,19,Female,2020-11-20_11h00.28.906,torte-2b,2020.1.3,Win32,60,13415,0.07159,,,,,,,,,,,,,,,,,,,,,,,,,,,,,,,,,,,,,0,26,26,46,1,,,,,,,,,,,,,,,,,,,,,,,,
,,,,,,,,,,,,a,Correct!,,,,,,t2.png,t3.png,1,0.90855,19,Female,2020-11-20_11h00.28.906,torte-2b,2020.1.3,Win32,60,13415,0.109535,,,,,,,,,,,,,,,,,,,,,,,,,,,,,,,,,,,,,0,27,27,10,1,,,,,,,,,,,,,,,,,,,,,,,,
,,,,,,,,,,,,a,Incorrect,,,,,,t3.png,t5.png,2,0.0565,19,Female,2020-11-20_11h00.28.906,torte-2b,2020.1.3,Win32,60,13415,0.18648,,,,,,,,,,,,,,,,,,,,,,,,,,,,,,,,,,,,,0,28,28,83,1,,,,,,,,,,,,,,,,,,,,,,,,
,,,,,,,,,,,,a,Correct!,,,,,,t2.png,t1.png,1,0.90025,19,Female,2020-11-20_11h00.28.906,torte-2b,2020.1.3,Win32,60,13415,0.003585,,,,,,,,,,,,,,,,,,,,,,,,,,,,,,,,,,,,,0,29,29,62,1,,,,,,,,,,,,,,,,,,,,,,,,
,,,,,,,,,,,,a,Correct!,,,,,,t1.png,t1.png,0,0.97829,19,Female,2020-11-20_11h00.28.906,torte-2b,2020.1.3,Win32,60,13415,0.013585,,,,,,,,,,,,,,,,,,,,,,,,,,,,,,,,,,,,,0,30,30,78,1,,,,,,,,,,,,,,,,,,,,,,,,
,,,,,,,,,,,,a,Incorrect,,,,,,t2.png,t5.png,3,0.0000131,19,Female,2020-11-20_11h00.28.906,torte-2b,2020.1.3,Win32,60,13415,0.09013,,,,,,,,,,,,,,,,,,,,,,,,,,,,,,,,,,,,,0,31,31,104,1,,,,,,,,,,,,,,,,,,,,,,,,
,,,,,,,,,,,,a,Incorrect,,,,,,t4.png,t1.png,3,0.0000131,19,Female,2020-11-20_11h00.28.906,torte-2b,2020.1.3,Win32,60,13415,0.31045,,,,,,,,,,,,,,,,,,,,,,,,,,,,,,,,,,,,,0,32,32,13,1,,,,,,,,,,,,,,,,,,,,,,,,
,,,,,,,,,,,,l,Correct!,,,,,,t2.png,t4.png,2,0.059078,19,Female,2020-11-20_11h00.28.906,torte-2b,2020.1.3,Win32,60,13415,0.274535,,,,,,,,,,,,,,,,,,,,,,,,,,,,,,,,,,,,,0,33,33,24,1,,,,,,,,,,,,,,,,,,,,,,,,
,,,,,,,,,,,,l,Correct!,,,,,,t5.png,t3.png,2,0.0565,19,Female,2020-11-20_11h00.28.906,torte-2b,2020.1.3,Win32,60,13415,0.320155,,,,,,,,,,,,,,,,,,,,,,,,,,,,,,,,,,,,,0,34,34,39,1,,,,,,,,,,,,,,,,,,,,,,,,
,,,,,,,,,,,,l,Correct!,,,,,,t4.png,t1.png,3,0.0000131,19,Female,2020-11-20_11h00.28.906,torte-2b,2020.1.3,Win32,60,13415,0.08502,,,,,,,,,,,,,,,,,,,,,,,,,,,,,,,,,,,,,0,35,35,42,1,,,,,,,,,,,,,,,,,,,,,,,,
,,,,,,,,,,,,l,Correct!,,,,,,t1.png,t5.png,4,9.55E-11,19,Female,2020-11-20_11h00.28.906,torte-2b,2020.1.3,Win32,60,13415,0.198005,,,,,,,,,,,,,,,,,,,,,,,,,,,,,,,,,,,,,0,36,36,55,1,,,,,,,,,,,,,,,,,,,,,,,,
,,,,,,,,,,,,l,Correct!,,,,,,t5.png,t5.png,0,0.97829,19,Female,2020-11-20_11h00.28.906,torte-2b,2020.1.3,Win32,60,13415,0.27453,,,,,,,,,,,,,,,,,,,,,,,,,,,,,,,,,,,,,0,37,37,73,1,,,,,,,,,,,,,,,,,,,,,,,,
,,,,,,,,,,,,l,Correct!,,,,,,t5.png,t1.png,4,9.55E-11,19,Female,2020-11-20_11h00.28.906,torte-2b,2020.1.3,Win32,60,13415,0.37246,,,,,,,,,,,,,,,,,,,,,,,,,,,,,,,,,,,,,0,38,38,22,1,,,,,,,,,,,,,,,,,,,,,,,,
,,,,,,,,,,,,l,Incorrect,,,,,,t5.png,t4.png,1,0.9,19,Female,2020-11-20_11h00.28.906,torte-2b,2020.1.3,Win32,60,13415,0.19994,,,,,,,,,,,,,,,,,,,,,,,,,,,,,,,,,,,,,0,39,39,76,1,,,,,,,,,,,,,,,,,,,,,,,,
,,,,,,,,,,,,a,Correct!,,,,,,t5.png,t4.png,1,0.90025,19,Female,2020-11-20_11h00.28.906,torte-2b,2020.1.3,Win32,60,13415,0.129155,,,,,,,,,,,,,,,,,,,,,,,,,,,,,,,,,,,,,0,40,40,26,1,,,,,,,,,,,,,,,,,,,,,,,,
,,,,,,,,,,,,a,Correct!,,,,,,t2.png,t2.png,0,0.98115,19,Female,2020-11-20_11h00.28.906,torte-2b,2020.1.3,Win32,60,13415,0.003895,,,,,,,,,,,,,,,,,,,,,,,,,,,,,,,,,,,,,0,41,41,2,1,,,,,,,,,,,,,,,,,,,,,,,,
,,,,,,,,,,,,a,Correct!,,,,,,t1.png,t2.png,1,0.90025,19,Female,2020-11-20_11h00.28.906,torte-2b,2020.1.3,Win32,60,13415,0.016365,,,,,,,,,,,,,,,,,,,,,,,,,,,,,,,,,,,,,0,42,42,72,1,,,,,,,,,,,,,,,,,,,,,,,,
,,,,,,,,,,,,a,Incorrect,,,,,,t2.png,t5.png,3,0.0000131,19,Female,2020-11-20_11h00.28.906,torte-2b,2020.1.3,Win32,60,13415,0.20254,,,,,,,,,,,,,,,,,,,,,,,,,,,,,,,,,,,,,0,43,43,8,1,,,,,,,,,,,,,,,,,,,,,,,,
,,,,,,,,,,,,a,Incorrect,,,,,,t5.png,t3.png,2,0.056466,19,Female,2020-11-20_11h00.28.906,torte-2b,2020.1.3,Win32,60,13415,0.067035,,,,,,,,,,,,,,,,,,,,,,,,,,,,,,,,,,,,,0,44,44,56,1,,,,,,,,,,,,,,,,,,,,,,,,
,,,,,,,,,,,,a,Correct!,,,,,,t4.png,t3.png,1,0.90855,19,Female,2020-11-20_11h00.28.906,torte-2b,2020.1.3,Win32,60,13415,0.02682,,,,,,,,,,,,,,,,,,,,,,,,,,,,,,,,,,,,,0,45,45,45,1,,,,,,,,,,,,,,,,,,,,,,,,
,,,,,,,,,,,,a,Incorrect,,,,,,t3.png,t5.png,2,0.056466,19,Female,2020-11-20_11h00.28.906,torte-2b,2020.1.3,Win32,60,13415,0.43909,,,,,,,,,,,,,,,,,,,,,,,,,,,,,,,,,,,,,0,46,46,14,1,,,,,,,,,,,,,,,,,,,,,,,,
,,,,,,,,,,,,l,Incorrect,,,,,,t4.png,t4.png,0,0.98115,19,Female,2020-11-20_11h00.28.906,torte-2b,2020.1.3,Win32,60,13415,0.08902,,,,,,,,,,,,,,,,,,,,,,,,,,,,,,,,,,,,,0,47,47,21,1,,,,,,,,,,,,,,,,,,,,,,,,
,,,,,,,,,,,,l,Correct!,,,,,,t2.png,t5.png,3,0.0000131,19,Female,2020-11-20_11h00.28.906,torte-2b,2020.1.3,Win32,60,13415,0.119735,,,,,,,,,,,,,,,,,,,,,,,,,,,,,,,,,,,,,0,48,48,66,1,,,,,,,,,,,,,,,,,,,,,,,,
,,,,,,,,,,,,l,Correct!,,,,,,t4.png,t1.png,3,0.0000131,19,Female,2020-11-20_11h00.28.906,torte-2b,2020.1.3,Win32,60,13415,0.503925,,,,,,,,,,,,,,,,,,,,,,,,,,,,,,,,,,,,,0,49,49,93,1,,,,,,,,,,,,,,,,,,,,,,,,
,,,,,,,,,,,,l,Correct!,,,,,,t4.png,t1.png,3,0.0000131,19,Female,2020-11-20_11h00.28.906,torte-2b,2020.1.3,Win32,60,13415,0.284275,,,,,,,,,,,,,,,,,,,,,,,,,,,,,,,,,,,,,0,50,50,61,1,,,,,,,,,,,,,,,,,,,,,,,,
,,,,,,,,,,,,a,Correct!,,,,,,t4.png,t5.png,1,0.90025,19,Female,2020-11-20_11h00.28.906,torte-2b,2020.1.3,Win32,60,13415,0.22719,,,,,,,,,,,,,,,,,,,,,,,,,,,,,,,,,,,,,0,51,51,113,1,,,,,,,,,,,,,,,,,,,,,,,,
,,,,,,,,,,,,a,Correct!,,,,,,t4.png,t5.png,1,0.9,19,Female,2020-11-20_11h00.28.906,torte-2b,2020.1.3,Win32,60,13415,0.05906,,,,,,,,,,,,,,,,,,,,,,,,,,,,,,,,,,,,,0,52,52,115,1,,,,,,,,,,,,,,,,,,,,,,,,
,,,,,,,,,,,,l,Correct!,,,,,,t2.png,t4.png,2,0.059078,19,Female,2020-11-20_11h00.28.906,torte-2b,2020.1.3,Win32,60,13415,0.28007,,,,,,,,,,,,,,,,,,,,,,,,,,,,,,,,,,,,,0,53,53,77,1,,,,,,,,,,,,,,,,,,,,,,,,
,,,,,,,,,,,,l,Incorrect,,,,,,t5.png,t4.png,1,0.9,19,Female,2020-11-20_11h00.28.906,torte-2b,2020.1.3,Win32,60,13415,0.415585,,,,,,,,,,,,,,,,,,,,,,,,,,,,,,,,,,,,,0,54,54,49,1,,,,,,,,,,,,,,,,,,,,,,,,
,,,,,,,,,,,,l,Incorrect,,,,,,t2.png,t3.png,1,0.909,19,Female,2020-11-20_11h00.28.906,torte-2b,2020.1.3,Win32,60,13415,0.203615,,,,,,,,,,,,,,,,,,,,,,,,,,,,,,,,,,,,,0,55,55,74,1,,,,,,,,,,,,,,,,,,,,,,,,
,,,,,,,,,,,,l,Incorrect,,,,,,t1.png,t2.png,1,0.90025,19,Female,2020-11-20_11h00.28.906,torte-2b,2020.1.3,Win32,60,13415,0.366905,,,,,,,,,,,,,,,,,,,,,,,,,,,,,,,,,,,,,0,56,56,112,1,,,,,,,,,,,,,,,,,,,,,,,,
,,,,,,,,,,,,a,Correct!,,,,,,t3.png,t2.png,1,0.909,19,Female,2020-11-20_11h00.28.906,torte-2b,2020.1.3,Win32,60,13415,0.104795,,,,,,,,,,,,,,,,,,,,,,,,,,,,,,,,,,,,,0,57,57,23,1,,,,,,,,,,,,,,,,,,,,,,,,
,,,,,,,,,,,,a,Correct!,,,,,,t5.png,t5.png,0,0.97829,19,Female,2020-11-20_11h00.28.906,torte-2b,2020.1.3,Win32,60,13415,0.24023,,,,,,,,,,,,,,,,,,,,,,,,,,,,,,,,,,,,,0,58,58,25,1,,,,,,,,,,,,,,,,,,,,,,,,
,,,,,,,,,,,,l,Correct!,,,,,,t5.png,t3.png,2,0.056466,19,Female,2020-11-20_11h00.28.906,torte-2b,2020.1.3,Win32,60,13415,0.089525,,,,,,,,,,,,,,,,,,,,,,,,,,,,,,,,,,,,,0,59,59,114,1,,,,,,,,,,,,,,,,,,,,,,,,
,,,,,,,,,,,,a,Correct!,,,,,,t4.png,t4.png,0,0.98115,19,Female,2020-11-20_11h00.28.906,torte-2b,2020.1.3,Win32,60,13415,0.003665,,,,,,,,,,,,,,,,,,,,,,,,,,,,,,,,,,,,,0,60,60,52,1,,,,,,,,,,,,,,,,,,,,,,,,
,,,,,,,,,,,,a,Correct!,,,,,,t5.png,t5.png,0,0.978,19,Female,2020-11-20_11h00.28.906,torte-2b,2020.1.3,Win32,60,13415,0.06626,,,,,,,,,,,,,,,,,,,,,,,,,,,,,,,,,,,,,0,61,61,117,1,,,,,,,,,,,,,,,,,,,,,,,,
,,,,,,,,,,,,a,Incorrect,,,,,,t1.png,t4.png,3,0.0000131,19,Female,2020-11-20_11h00.28.906,torte-2b,2020.1.3,Win32,60,13415,0.035835,,,,,,,,,,,,,,,,,,,,,,,,,,,,,,,,,,,,,0,62,62,107,1,,,,,,,,,,,,,,,,,,,,,,,,
,,,,,,,,,,,,a,Correct!,,,,,,t4.png,t2.png,2,0.059078,19,Female,2020-11-20_11h00.28.906,torte-2b,2020.1.3,Win32,60,13415,0.00313,,,,,,,,,,,,,,,,,,,,,,,,,,,,,,,,,,,,,0,63,63,109,1,,,,,,,,,,,,,,,,,,,,,,,,
,,,,,,,,,,,,a,Incorrect,,,,,,t1.png,t4.png,3,0.0000131,19,Female,2020-11-20_11h00.28.906,torte-2b,2020.1.3,Win32,60,13415,0.05223,,,,,,,,,,,,,,,,,,,,,,,,,,,,,,,,,,,,,0,64,64,81,1,,,,,,,,,,,,,,,,,,,,,,,,
,,,,,,,,,,,,l,Correct!,,,,,,t4.png,t2.png,2,0.059078,19,Female,2020-11-20_11h00.28.906,torte-2b,2020.1.3,Win32,60,13415,0.68957,,,,,,,,,,,,,,,,,,,,,,,,,,,,,,,,,,,,,0,65,65,88,1,,,,,,,,,,,,,,,,,,,,,,,,
,,,,,,,,,,,,l,Correct!,,,,,,t5.png,t1.png,4,9.55E-11,19,Female,2020-11-20_11h00.28.906,torte-2b,2020.1.3,Win32,60,13415,0.28722,,,,,,,,,,,,,,,,,,,,,,,,,,,,,,,,,,,,,0,66,66,43,1,,,,,,,,,,,,,,,,,,,,,,,,
,,,,,,,,,,,,a,Correct!,,,,,,t1.png,t2.png,1,0.90025,19,Female,2020-11-20_11h00.28.906,torte-2b,2020.1.3,Win32,60,13415,0.233725,,,,,,,,,,,,,,,,,,,,,,,,,,,,,,,,,,,,,0,67,67,105,1,,,,,,,,,,,,,,,,,,,,,,,,
,,,,,,,,,,,,l,Correct!,,,,,,t5.png,t2.png,3,0.0000131,19,Female,2020-11-20_11h00.28.906,torte-2b,2020.1.3,Win32,60,13415,0.04256,,,,,,,,,,,,,,,,,,,,,,,,,,,,,,,,,,,,,0,68,68,98,1,,,,,,,,,,,,,,,,,,,,,,,,
,,,,,,,,,,,,l,Incorrect,,,,,,t1.png,t2.png,1,0.9,19,Female,2020-11-20_11h00.28.906,torte-2b,2020.1.3,Win32,60,13415,0.269375,,,,,,,,,,,,,,,,,,,,,,,,,,,,,,,,,,,,,0,69,69,1,1,,,,,,,,,,,,,,,,,,,,,,,,
,,,,,,,,,,,,l,Correct!,,,,,,t1.png,t3.png,2,0.056466,19,Female,2020-11-20_11h00.28.906,torte-2b,2020.1.3,Win32,60,13415,0.003505,,,,,,,,,,,,,,,,,,,,,,,,,,,,,,,,,,,,,0,70,70,69,1,,,,,,,,,,,,,,,,,,,,,,,,
,,,,,,,,,,,,a,Incorrect,,,,,,t5.png,t1.png,4,9.55E-11,19,Female,2020-11-20_11h00.28.906,torte-2b,2020.1.3,Win32,60,13415,0.53582,,,,,,,,,,,,,,,,,,,,,,,,,,,,,,,,,,,,,0,71,71,102,1,,,,,,,,,,,,,,,,,,,,,,,,
,,,,,,,,,,,,a,Correct!,,,,,,t4.png,t5.png,1,0.90025,19,Female,2020-11-20_11h00.28.906,torte-2b,2020.1.3,Win32,60,13415,0.380855,,,,,,,,,,,,,,,,,,,,,,,,,,,,,,,,,,,,,0,72,72,103,1,,,,,,,,,,,,,,,,,,,,,,,,
,,,,,,,,,,,,l,Correct!,,,,,,t1.png,t3.png,2,0.056466,19,Female,2020-11-20_11h00.28.906,torte-2b,2020.1.3,Win32,60,13415,0.318255,,,,,,,,,,,,,,,,,,,,,,,,,,,,,,,,,,,,,0,73,73,60,1,,,,,,,,,,,,,,,,,,,,,,,,
,,,,,,,,,,,,a,Incorrect,,,,,,t1.png,t5.png,4,9.55E-11,19,Female,2020-11-20_11h00.28.906,torte-2b,2020.1.3,Win32,60,13415,0.29284,,,,,,,,,,,,,,,,,,,,,,,,,,,,,,,,,,,,,0,74,74,16,1,,,,,,,,,,,,,,,,,,,,,,,,
,,,,,,,,,,,,a,Incorrect,,,,,,t1.png,t5.png,4,9.55E-11,19,Female,2020-11-20_11h00.28.906,torte-2b,2020.1.3,Win32,60,13415,0.273305,,,,,,,,,,,,,,,,,,,,,,,,,,,,,,,,,,,,,0,75,75,12,1,,,,,,,,,,,,,,,,,,,,,,,,
,,,,,,,,,,,,a,Correct!,,,,,,t3.png,t4.png,1,0.90855,19,Female,2020-11-20_11h00.28.906,torte-2b,2020.1.3,Win32,60,13415,0.2559,,,,,,,,,,,,,,,,,,,,,,,,,,,,,,,,,,,,,0,76,76,96,1,,,,,,,,,,,,,,,,,,,,,,,,
,,,,,,,,,,,,l,Incorrect,,,,,,t3.png,t2.png,1,0.90855,19,Female,2020-11-20_11h00.28.906,torte-2b,2020.1.3,Win32,60,13415,0.22422,,,,,,,,,,,,,,,,,,,,,,,,,,,,,,,,,,,,,0,77,77,97,1,,,,,,,,,,,,,,,,,,,,,,,,
,,,,,,,,,,,,a,Correct!,,,,,,t2.png,t1.png,1,0.90025,19,Female,2020-11-20_11h00.28.906,torte-2b,2020.1.3,Win32,60,13415,0.340275,,,,,,,,,,,,,,,,,,,,,,,,,,,,,,,,,,,,,0,78,78,19,1,,,,,,,,,,,,,,,,,,,,,,,,
,,,,,,,,,,,,l,Incorrect,,,,,,t4.png,t3.png,1,0.90855,19,Female,2020-11-20_11h00.28.906,torte-2b,2020.1.3,Win32,60,13415,0.20658,,,,,,,,,,,,,,,,,,,,,,,,,,,,,,,,,,,,,0,79,79,35,1,,,,,,,,,,,,,,,,,,,,,,,,
,,,,,,,,,,,,l,Correct!,,,,,,t1.png,t4.png,3,0.0000131,19,Female,2020-11-20_11h00.28.906,torte-2b,2020.1.3,Win32,60,13415,0.303155,,,,,,,,,,,,,,,,,,,,,,,,,,,,,,,,,,,,,0,80,80,17,1,,,,,,,,,,,,,,,,,,,,,,,,
,,,,,,,,,,,,l,Correct!,,,,,,t2.png,t5.png,3,0.0000131,19,Female,2020-11-20_11h00.28.906,torte-2b,2020.1.3,Win32,60,13415,0.11572,,,,,,,,,,,,,,,,,,,,,,,,,,,,,,,,,,,,,0,81,81,40,1,,,,,,,,,,,,,,,,,,,,,,,,
,,,,,,,,,,,,l,Incorrect,,,,,,t2.png,t1.png,1,0.9,19,Female,2020-11-20_11h00.28.906,torte-2b,2020.1.3,Win32,60,13415,0.311335,,,,,,,,,,,,,,,,,,,,,,,,,,,,,,,,,,,,,0,82,82,118,1,,,,,,,,,,,,,,,,,,,,,,,,
,,,,,,,,,,,,l,Incorrect,,,,,,t5.png,t4.png,1,0.90025,19,Female,2020-11-20_11h00.28.906,torte-2b,2020.1.3,Win32,60,13415,0.06346,,,,,,,,,,,,,,,,,,,,,,,,,,,,,,,,,,,,,0,83,83,34,1,,,,,,,,,,,,,,,,,,,,,,,,
,,,,,,,,,,,,l,Correct!,,,,,,t5.png,t3.png,2,0.056466,19,Female,2020-11-20_11h00.28.906,torte-2b,2020.1.3,Win32,60,13415,0.1693,,,,,,,,,,,,,,,,,,,,,,,,,,,,,,,,,,,,,0,84,84,38,1,,,,,,,,,,,,,,,,,,,,,,,,
,,,,,,,,,,,,l,Incorrect,,,,,,t2.png,t2.png,0,0.98115,19,Female,2020-11-20_11h00.28.906,torte-2b,2020.1.3,Win32,60,13415,0.2365,,,,,,,,,,,,,,,,,,,,,,,,,,,,,,,,,,,,,0,85,85,57,1,,,,,,,,,,,,,,,,,,,,,,,,
,,,,,,,,,,,,a,Incorrect,,,,,,t5.png,t1.png,4,9.55E-11,19,Female,2020-11-20_11h00.28.906,torte-2b,2020.1.3,Win32,60,13415,0.28594,,,,,,,,,,,,,,,,,,,,,,,,,,,,,,,,,,,,,0,86,86,100,1,,,,,,,,,,,,,,,,,,,,,,,,
,,,,,,,,,,,,l,Correct!,,,,,,t5.png,t3.png,2,0.056466,19,Female,2020-11-20_11h00.28.906,torte-2b,2020.1.3,Win32,60,13415,0.270235,,,,,,,,,,,,,,,,,,,,,,,,,,,,,,,,,,,,,0,87,87,108,1,,,,,,,,,,,,,,,,,,,,,,,,
,,,,,,,,,,,,a,Incorrect,,,,,,t4.png,t2.png,2,0.0591,19,Female,2020-11-20_11h00.28.906,torte-2b,2020.1.3,Win32,60,13415,0.17124,,,,,,,,,,,,,,,,,,,,,,,,,,,,,,,,,,,,,0,88,88,36,1,,,,,,,,,,,,,,,,,,,,,,,,
,,,,,,,,,,,,a,Incorrect,,,,,,t2.png,t4.png,2,0.059078,19,Female,2020-11-20_11h00.28.906,torte-2b,2020.1.3,Win32,60,13415,0.064905,,,,,,,,,,,,,,,,,,,,,,,,,,,,,,,,,,,,,0,89,89,11,1,,,,,,,,,,,,,,,,,,,,,,,,
,,,,,,,,,,,,a,Incorrect,,,,,,t4.png,t1.png,3,0.0000131,19,Female,2020-11-20_11h00.28.906,torte-2b,2020.1.3,Win32,60,13415,0.202305,,,,,,,,,,,,,,,,,,,,,,,,,,,,,,,,,,,,,0,90,90,48,1,,,,,,,,,,,,,,,,,,,,,,,,
,,,,,,,,,,,,a,Incorrect,,,,,,t4.png,t2.png,2,0.059078,19,Female,2020-11-20_11h00.28.906,torte-2b,2020.1.3,Win32,60,13415,0.003285,,,,,,,,,,,,,,,,,,,,,,,,,,,,,,,,,,,,,0,91,91,86,1,,,,,,,,,,,,,,,,,,,,,,,,
,,,,,,,,,,,,a,Incorrect,,,,,,t3.png,t1.png,2,0.056466,19,Female,2020-11-20_11h00.28.906,torte-2b,2020.1.3,Win32,60,13415,0.202385,,,,,,,,,,,,,,,,,,,,,,,,,,,,,,,,,,,,,0,92,92,0,1,,,,,,,,,,,,,,,,,,,,,,,,
,,,,,,,,,,,,a,Incorrect,,,,,,t2.png,t4.png,2,0.0591,19,Female,2020-11-20_11h00.28.906,torte-2b,2020.1.3,Win32,60,13415,0.15097,,,,,,,,,,,,,,,,,,,,,,,,,,,,,,,,,,,,,0,93,93,15,1,,,,,,,,,,,,,,,,,,,,,,,,
,,,,,,,,,,,,l,Correct!,,,,,,t5.png,t2.png,3,0.0000131,19,Female,2020-11-20_11h00.28.906,torte-2b,2020.1.3,Win32,60,13415,0.11965,,,,,,,,,,,,,,,,,,,,,,,,,,,,,,,,,,,,,0,94,94,116,1,,,,,,,,,,,,,,,,,,,,,,,,
,,,,,,,,,,,,a,Correct!,,,,,,t3.png,t4.png,1,0.909,19,Female,2020-11-20_11h00.28.906,torte-2b,2020.1.3,Win32,60,13415,0.05844,,,,,,,,,,,,,,,,,,,,,,,,,,,,,,,,,,,,,0,95,95,82,1,,,,,,,,,,,,,,,,,,,,,,,,
,,,,,,,,,,,,l,Incorrect,,,,,,t4.png,t4.png,0,0.98115,19,Female,2020-11-20_11h00.28.906,torte-2b,2020.1.3,Win32,60,13415,0.165405,,,,,,,,,,,,,,,,,,,,,,,,,,,,,,,,,,,,,0,96,96,79,1,,,,,,,,,,,,,,,,,,,,,,,,
,,,,,,,,,,,,l,Incorrect,,,,,,t1.png,t1.png,0,0.97829,19,Female,2020-11-20_11h00.28.906,torte-2b,2020.1.3,Win32,60,13415,0.21927,,,,,,,,,,,,,,,,,,,,,,,,,,,,,,,,,,,,,0,97,97,67,1,,,,,,,,,,,,,,,,,,,,,,,,
,,,,,,,,,,,,l,Incorrect,,,,,,t4.png,t5.png,1,0.90025,19,Female,2020-11-20_11h00.28.906,torte-2b,2020.1.3,Win32,60,13415,0.003355,,,,,,,,,,,,,,,,,,,,,,,,,,,,,,,,,,,,,0,98,98,47,1,,,,,,,,,,,,,,,,,,,,,,,,
,,,,,,,,,,,,l,Incorrect,,,,,,t3.png,t4.png,1,0.90855,19,Female,2020-11-20_11h00.28.906,torte-2b,2020.1.3,Win32,60,13415,0.17057,,,,,,,,,,,,,,,,,,,,,,,,,,,,,,,,,,,,,0,99,99,84,1,,,,,,,,,,,,,,,,,,,,,,,,
,,,,,,,,,,,,l,Incorrect,,,,,,t2.png,t2.png,0,0.98115,19,Female,2020-11-20_11h00.28.906,torte-2b,2020.1.3,Win32,60,13415,0.20267,,,,,,,,,,,,,,,,,,,,,,,,,,,,,,,,,,,,,0,100,100,59,1,,,,,,,,,,,,,,,,,,,,,,,,
,,,,,,,,,,,,a,Correct!,,,,,,t5.png,t5.png,0,0.97829,19,Female,2020-11-20_11h00.28.906,torte-2b,2020.1.3,Win32,60,13415,0.11623,,,,,,,,,,,,,,,,,,,,,,,,,,,,,,,,,,,,,0,101,101,94,1,,,,,,,,,,,,,,,,,,,,,,,,
,,,,,,,,,,,,a,Correct!,,,,,,t4.png,t4.png,0,0.98115,19,Female,2020-11-20_11h00.28.906,torte-2b,2020.1.3,Win32,60,13415,0.077165,,,,,,,,,,,,,,,,,,,,,,,,,,,,,,,,,,,,,0,102,102,80,1,,,,,,,,,,,,,,,,,,,,,,,,
,,,,,,,,,,,,a,Incorrect,,,,,,t5.png,t4.png,1,0.90025,19,Female,2020-11-20_11h00.28.906,torte-2b,2020.1.3,Win32,60,13415,0.02596,,,,,,,,,,,,,,,,,,,,,,,,,,,,,,,,,,,,,0,103,103,27,1,,,,,,,,,,,,,,,,,,,,,,,,
,,,,,,,,,,,,a,Correct!,,,,,,t4.png,t4.png,0,0.98115,19,Female,2020-11-20_11h00.28.906,torte-2b,2020.1.3,Win32,60,13415,0.173995,,,,,,,,,,,,,,,,,,,,,,,,,,,,,,,,,,,,,0,104,104,90,1,,,,,,,,,,,,,,,,,,,,,,,,
,,,,,,,,,,,,l,Incorrect,,,,,,t3.png,t4.png,1,0.909,19,Female,2020-11-20_11h00.28.906,torte-2b,2020.1.3,Win32,60,13415,0.09388,,,,,,,,,,,,,,,,,,,,,,,,,,,,,,,,,,,,,0,105,105,89,1,,,,,,,,,,,,,,,,,,,,,,,,
,,,,,,,,,,,,l,Incorrect,,,,,,t2.png,t2.png,0,0.981,19,Female,2020-11-20_11h00.28.906,torte-2b,2020.1.3,Win32,60,13415,0.262885,,,,,,,,,,,,,,,,,,,,,,,,,,,,,,,,,,,,,0,106,106,101,1,,,,,,,,,,,,,,,,,,,,,,,,
,,,,,,,,,,,,a,Correct!,,,,,,t3.png,t2.png,1,0.909,19,Female,2020-11-20_11h00.28.906,torte-2b,2020.1.3,Win32,60,13415,0.003245,,,,,,,,,,,,,,,,,,,,,,,,,,,,,,,,,,,,,0,107,107,3,1,,,,,,,,,,,,,,,,,,,,,,,,
,,,,,,,,,,,,a,Incorrect,,,,,,t2.png,t4.png,2,0.059078,19,Female,2020-11-20_11h00.28.906,torte-2b,2020.1.3,Win32,60,13415,0.098895,,,,,,,,,,,,,,,,,,,,,,,,,,,,,,,,,,,,,0,108,108,37,1,,,,,,,,,,,,,,,,,,,,,,,,
,,,,,,,,,,,,a,Incorrect,,,,,,t2.png,t5.png,3,0.0000131,19,Female,2020-11-20_11h00.28.906,torte-2b,2020.1.3,Win32,60,13415,0.239995,,,,,,,,,,,,,,,,,,,,,,,,,,,,,,,,,,,,,0,109,109,95,1,,,,,,,,,,,,,,,,,,,,,,,,
,,,,,,,,,,,,a,Incorrect,,,,,,t5.png,t2.png,3,0.0000131,19,Female,2020-11-20_11h00.28.906,torte-2b,2020.1.3,Win32,60,13415,0.25623,,,,,,,,,,,,,,,,,,,,,,,,,,,,,,,,,,,,,0,110,110,119,1,,,,,,,,,,,,,,,,,,,,,,,,
,,,,,,,,,,,,a,Incorrect,,,,,,t1.png,t3.png,2,0.056466,19,Female,2020-11-20_11h00.28.906,torte-2b,2020.1.3,Win32,60,13415,0.00329,,,,,,,,,,,,,,,,,,,,,,,,,,,,,,,,,,,,,0,111,111,87,1,,,,,,,,,,,,,,,,,,,,,,,,
,,,,,,,,,,,,l,Correct!,,,,,,t3.png,t1.png,2,0.056466,19,Female,2020-11-20_11h00.28.906,torte-2b,2020.1.3,Win32,60,13415,0.005765,,,,,,,,,,,,,,,,,,,,,,,,,,,,,,,,,,,,,0,112,112,64,1,,,,,,,,,,,,,,,,,,,,,,,,
,,,,,,,,,,,,l,Incorrect,,,,,,t2.png,t3.png,1,0.90855,19,Female,2020-11-20_11h00.28.906,torte-2b,2020.1.3,Win32,60,13415,0.102865,,,,,,,,,,,,,,,,,,,,,,,,,,,,,,,,,,,,,0,113,113,111,1,,,,,,,,,,,,,,,,,,,,,,,,
,,,,,,,,,,,,l,Incorrect,,,,,,t1.png,t1.png,0,0.978,19,Female,2020-11-20_11h00.28.906,torte-2b,2020.1.3,Win32,60,13415,0.50526,,,,,,,,,,,,,,,,,,,,,,,,,,,,,,,,,,,,,0,114,114,28,1,,,,,,,,,,,,,,,,,,,,,,,,
,,,,,,,,,,,,a,Incorrect,,,,,,t3.png,t1.png,2,0.0565,19,Female,2020-11-20_11h00.28.906,torte-2b,2020.1.3,Win32,60,13415,0.20665,,,,,,,,,,,,,,,,,,,,,,,,,,,,,,,,,,,,,0,115,115,31,1,,,,,,,,,,,,,,,,,,,,,,,,
,,,,,,,,,,,,l,Incorrect,,,,,,t5.png,t5.png,0,0.97829,19,Female,2020-11-20_11h00.28.906,torte-2b,2020.1.3,Win32,60,13415,0.26437,,,,,,,,,,,,,,,,,,,,,,,,,,,,,,,,,,,,,0,116,116,70,1,,,,,,,,,,,,,,,,,,,,,,,,
,,,,,,,,,,,,l,Incorrect,,,,,,t1.png,t3.png,2,0.056466,19,Female,2020-11-20_11h00.28.906,torte-2b,2020.1.3,Win32,60,13415,0.20623,,,,,,,,,,,,,,,,,,,,,,,,,,,,,,,,,,,,,0,117,117,63,1,,,,,,,,,,,,,,,,,,,,,,,,
,,,,,,,,,,,,a,Correct!,,,,,,t2.png,t1.png,1,0.90025,19,Female,2020-11-20_11h00.28.906,torte-2b,2020.1.3,Win32,60,13415,0.439235,,,,,,,,,,,,,,,,,,,,,,,,,,,,,,,,,,,,,0,118,118,4,1,,,,,,,,,,,,,,,,,,,,,,,,
,,,,,,,,,,,,a,Incorrect,,,,,,t3.png,t2.png,1,0.90855,19,Female,2020-11-20_11h00.28.906,torte-2b,2020.1.3,Win32,60,13415,0.19767,,,,,,,,,,,,,,,,,,,,,,,,,,,,,,,,,,,,,0,119,119,53,1,,,,,,,,,,,,,,,,,,,,,,,,
,,,,,,,,,,,,,,,,,,,,,,,19,Female,2020-11-20_11h00.28.906,torte-2b,2020.1.3,Win32,60,13415,,a,0.10267,,,,,,,,,,,,,,,,,,,,,,,,,,,,,,,,,,,,,,,,-47.99998927,65.59999454,1,0,0,s3,-35.99998909,109.5999952,1,0,0,t1,148.8000137,-100.8000079,1,0,0,proceed,space,7.98265,space,1.49967,space,0.40269
