key_resp_8.keys,key_resp_8.rt,key_resp_9.keys,key_resp_9.rt,key_resp_10.keys,key_resp_10.rt,key_resp_11.keys,key_resp_11.rt,key_resp_2.keys,key_resp_2.rt,key_resp_3.keys,key_resp_3.rt,key_resp.keys,Feedback,train.thisRepN,train.thisTrialN,train.thisN,train.thisIndex,train.ran,torta_sx,torta_dx,difference,probability,age,gender,date,expName,psychopyVersion,OS,frameRate,participant,key_resp.rt,key_resp_15.keys,key_resp_15.rt,key_resp_6.keys,key_resp_6.rt,test1.thisRepN,test1.thisTrialN,test1.thisN,test1.thisIndex,test1.ran,key_resp_4.keys,key_resp_4.rt,key_resp_5.keys,back1.thisRepN,back1.thisTrialN,back1.thisN,back1.thisIndex,back1.ran,letter,key_resp_5.rt,back2.thisRepN,back2.thisTrialN,back2.thisN,back2.thisIndex,back2.ran,back3.thisRepN,back3.thisTrialN,back3.thisN,back3.thisIndex,back3.ran,back4.thisRepN,back4.thisTrialN,back4.thisN,back4.thisIndex,back4.ran,key_resp_7.keys,key_resp_7.rt,test2.thisRepN,test2.thisTrialN,test2.thisN,test2.thisIndex,test2.ran,mouse.x,mouse.y,mouse.leftButton,mouse.midButton,mouse.rightButton,mouse.clicked_name,mouse_2.x,mouse_2.y,mouse_2.leftButton,mouse_2.midButton,mouse_2.rightButton,mouse_2.clicked_name,mouse_3.x,mouse_3.y,mouse_3.leftButton,mouse_3.midButton,mouse_3.rightButton,mouse_3.clicked_name,key_resp_12.keys,key_resp_12.rt,key_resp_13.keys,key_resp_13.rt,key_resp_14.keys,key_resp_14.rt
space,1.102,space,1.581,space,0.509,space,2.502,space,13.639,space,50.518,,Too slow :(,0,0,0,48,1,t5.png,t5.png,0,0.97829,19,female,2020-08-28_13h11.36.764,torte-2b,2020.1.3,MacIntel,60,13439,,,,,,,,,,,,,,,,,,,,,,,,,,,,,,,,,,,,,,,,,,,,,,,,,,,,,,,,,,,,,,,,,,
,,,,,,,,,,,,a,Correct!,0,1,1,59,1,t5.png,t4.png,1,0.9,19,female,2020-08-28_13h11.36.764,torte-2b,2020.1.3,MacIntel,60,13439,1.798,,,,,,,,,,,,,,,,,,,,,,,,,,,,,,,,,,,,,,,,,,,,,,,,,,,,,,,,,,,,,,,,,
,,,,,,,,,,,,a,Correct!,0,2,2,79,1,t3.png,t2.png,1,0.909,19,female,2020-08-28_13h11.36.764,torte-2b,2020.1.3,MacIntel,60,13439,0.969,,,,,,,,,,,,,,,,,,,,,,,,,,,,,,,,,,,,,,,,,,,,,,,,,,,,,,,,,,,,,,,,,
,,,,,,,,,,,,l,Incorrect,0,3,3,110,1,t4.png,t5.png,1,0.90025,19,female,2020-08-28_13h11.36.764,torte-2b,2020.1.3,MacIntel,60,13439,1.274,,,,,,,,,,,,,,,,,,,,,,,,,,,,,,,,,,,,,,,,,,,,,,,,,,,,,,,,,,,,,,,,,
,,,,,,,,,,,,l,Incorrect,0,4,4,109,1,t5.png,t5.png,0,0.97829,19,female,2020-08-28_13h11.36.764,torte-2b,2020.1.3,MacIntel,60,13439,1.884,,,,,,,,,,,,,,,,,,,,,,,,,,,,,,,,,,,,,,,,,,,,,,,,,,,,,,,,,,,,,,,,,
,,,,,,,,,,,,l,Incorrect,0,5,5,7,1,t4.png,t5.png,1,0.90025,19,female,2020-08-28_13h11.36.764,torte-2b,2020.1.3,MacIntel,60,13439,1.118,,,,,,,,,,,,,,,,,,,,,,,,,,,,,,,,,,,,,,,,,,,,,,,,,,,,,,,,,,,,,,,,,
,,,,,,,,,,,,l,Incorrect,0,6,6,18,1,t4.png,t5.png,1,0.90025,19,female,2020-08-28_13h11.36.764,torte-2b,2020.1.3,MacIntel,60,13439,1.189,,,,,,,,,,,,,,,,,,,,,,,,,,,,,,,,,,,,,,,,,,,,,,,,,,,,,,,,,,,,,,,,,
,,,,,,,,,,,,a,Correct!,0,7,7,118,1,t5.png,t5.png,0,0.978,19,female,2020-08-28_13h11.36.764,torte-2b,2020.1.3,MacIntel,60,13439,1.003,,,,,,,,,,,,,,,,,,,,,,,,,,,,,,,,,,,,,,,,,,,,,,,,,,,,,,,,,,,,,,,,,
,,,,,,,,,,,,a,Incorrect,0,8,8,104,1,t2.png,t3.png,1,0.90855,19,female,2020-08-28_13h11.36.764,torte-2b,2020.1.3,MacIntel,60,13439,1.147,,,,,,,,,,,,,,,,,,,,,,,,,,,,,,,,,,,,,,,,,,,,,,,,,,,,,,,,,,,,,,,,,
,,,,,,,,,,,,l,Correct!,0,9,9,98,1,t2.png,t4.png,2,0.0591,19,female,2020-08-28_13h11.36.764,torte-2b,2020.1.3,MacIntel,60,13439,0.849,,,,,,,,,,,,,,,,,,,,,,,,,,,,,,,,,,,,,,,,,,,,,,,,,,,,,,,,,,,,,,,,,
,,,,,,,,,,,,a,Correct!,0,10,10,105,1,t3.png,t2.png,1,0.90855,19,female,2020-08-28_13h11.36.764,torte-2b,2020.1.3,MacIntel,60,13439,1.27,,,,,,,,,,,,,,,,,,,,,,,,,,,,,,,,,,,,,,,,,,,,,,,,,,,,,,,,,,,,,,,,,
,,,,,,,,,,,,l,Incorrect,0,11,11,22,1,t2.png,t3.png,1,0.90855,19,female,2020-08-28_13h11.36.764,torte-2b,2020.1.3,MacIntel,60,13439,1.622,,,,,,,,,,,,,,,,,,,,,,,,,,,,,,,,,,,,,,,,,,,,,,,,,,,,,,,,,,,,,,,,,
,,,,,,,,,,,,a,Correct!,0,12,12,39,1,t3.png,t2.png,1,0.90855,19,female,2020-08-28_13h11.36.764,torte-2b,2020.1.3,MacIntel,60,13439,1.008,,,,,,,,,,,,,,,,,,,,,,,,,,,,,,,,,,,,,,,,,,,,,,,,,,,,,,,,,,,,,,,,,
,,,,,,,,,,,,,Too slow :(,0,13,13,50,1,t5.png,t1.png,4,9.55E-11,19,female,2020-08-28_13h11.36.764,torte-2b,2020.1.3,MacIntel,60,13439,,,,,,,,,,,,,,,,,,,,,,,,,,,,,,,,,,,,,,,,,,,,,,,,,,,,,,,,,,,,,,,,,,
,,,,,,,,,,,,l,Incorrect,0,14,14,63,1,t2.png,t3.png,1,0.909,19,female,2020-08-28_13h11.36.764,torte-2b,2020.1.3,MacIntel,60,13439,1.246,,,,,,,,,,,,,,,,,,,,,,,,,,,,,,,,,,,,,,,,,,,,,,,,,,,,,,,,,,,,,,,,,
,,,,,,,,,,,,l,Correct!,0,15,15,93,1,t2.png,t4.png,2,0.059078,19,female,2020-08-28_13h11.36.764,torte-2b,2020.1.3,MacIntel,60,13439,1.256,,,,,,,,,,,,,,,,,,,,,,,,,,,,,,,,,,,,,,,,,,,,,,,,,,,,,,,,,,,,,,,,,
,,,,,,,,,,,,a,Correct!,0,16,16,29,1,t5.png,t5.png,0,0.97829,19,female,2020-08-28_13h11.36.764,torte-2b,2020.1.3,MacIntel,60,13439,2.239,,,,,,,,,,,,,,,,,,,,,,,,,,,,,,,,,,,,,,,,,,,,,,,,,,,,,,,,,,,,,,,,,
,,,,,,,,,,,,a,Correct!,0,17,17,62,1,t5.png,t5.png,0,0.978,19,female,2020-08-28_13h11.36.764,torte-2b,2020.1.3,MacIntel,60,13439,2.023,,,,,,,,,,,,,,,,,,,,,,,,,,,,,,,,,,,,,,,,,,,,,,,,,,,,,,,,,,,,,,,,,
,,,,,,,,,,,,,Too slow :(,0,18,18,74,1,t5.png,t4.png,1,0.9,19,female,2020-08-28_13h11.36.764,torte-2b,2020.1.3,MacIntel,60,13439,,,,,,,,,,,,,,,,,,,,,,,,,,,,,,,,,,,,,,,,,,,,,,,,,,,,,,,,,,,,,,,,,,
,,,,,,,,,,,,a,Incorrect,0,19,19,82,1,t5.png,t1.png,4,9.55E-11,19,female,2020-08-28_13h11.36.764,torte-2b,2020.1.3,MacIntel,60,13439,1.323,,,,,,,,,,,,,,,,,,,,,,,,,,,,,,,,,,,,,,,,,,,,,,,,,,,,,,,,,,,,,,,,,
,,,,,,,,,,,,a,Correct!,0,20,20,78,1,t1.png,t1.png,0,0.978,19,female,2020-08-28_13h11.36.764,torte-2b,2020.1.3,MacIntel,60,13439,1.858,,,,,,,,,,,,,,,,,,,,,,,,,,,,,,,,,,,,,,,,,,,,,,,,,,,,,,,,,,,,,,,,,
,,,,,,,,,,,,l,Correct!,0,21,21,1,1,t2.png,t4.png,2,0.059078,19,female,2020-08-28_13h11.36.764,torte-2b,2020.1.3,MacIntel,60,13439,0.786,,,,,,,,,,,,,,,,,,,,,,,,,,,,,,,,,,,,,,,,,,,,,,,,,,,,,,,,,,,,,,,,,
,,,,,,,,,,,,l,Incorrect,0,22,22,96,1,t1.png,t1.png,0,0.97829,19,female,2020-08-28_13h11.36.764,torte-2b,2020.1.3,MacIntel,60,13439,1.031,,,,,,,,,,,,,,,,,,,,,,,,,,,,,,,,,,,,,,,,,,,,,,,,,,,,,,,,,,,,,,,,,
,,,,,,,,,,,,a,Incorrect,0,23,23,111,1,t5.png,t1.png,4,9.55E-11,19,female,2020-08-28_13h11.36.764,torte-2b,2020.1.3,MacIntel,60,13439,0.917,,,,,,,,,,,,,,,,,,,,,,,,,,,,,,,,,,,,,,,,,,,,,,,,,,,,,,,,,,,,,,,,,
,,,,,,,,,,,,l,Correct!,0,24,24,61,1,t1.png,t4.png,3,0.0000131,19,female,2020-08-28_13h11.36.764,torte-2b,2020.1.3,MacIntel,60,13439,0.705,,,,,,,,,,,,,,,,,,,,,,,,,,,,,,,,,,,,,,,,,,,,,,,,,,,,,,,,,,,,,,,,,
,,,,,,,,,,,,a,Incorrect,0,25,25,103,1,t3.png,t1.png,2,0.056466,19,female,2020-08-28_13h11.36.764,torte-2b,2020.1.3,MacIntel,60,13439,0.787,,,,,,,,,,,,,,,,,,,,,,,,,,,,,,,,,,,,,,,,,,,,,,,,,,,,,,,,,,,,,,,,,
,,,,,,,,,,,,l,Incorrect,0,26,26,20,1,t2.png,t3.png,1,0.90855,19,female,2020-08-28_13h11.36.764,torte-2b,2020.1.3,MacIntel,60,13439,1.569,,,,,,,,,,,,,,,,,,,,,,,,,,,,,,,,,,,,,,,,,,,,,,,,,,,,,,,,,,,,,,,,,
,,,,,,,,,,,,a,Incorrect,0,27,27,94,1,t5.png,t1.png,4,9.55E-11,19,female,2020-08-28_13h11.36.764,torte-2b,2020.1.3,MacIntel,60,13439,1.252,,,,,,,,,,,,,,,,,,,,,,,,,,,,,,,,,,,,,,,,,,,,,,,,,,,,,,,,,,,,,,,,,
,,,,,,,,,,,,l,Incorrect,0,28,28,23,1,t5.png,t4.png,1,0.90025,19,female,2020-08-28_13h11.36.764,torte-2b,2020.1.3,MacIntel,60,13439,1.591,,,,,,,,,,,,,,,,,,,,,,,,,,,,,,,,,,,,,,,,,,,,,,,,,,,,,,,,,,,,,,,,,
,,,,,,,,,,,,l,Correct!,0,29,29,119,1,t1.png,t5.png,4,9.55E-11,19,female,2020-08-28_13h11.36.764,torte-2b,2020.1.3,MacIntel,60,13439,0.681,,,,,,,,,,,,,,,,,,,,,,,,,,,,,,,,,,,,,,,,,,,,,,,,,,,,,,,,,,,,,,,,,
,,,,,,,,,,,,l,Incorrect,0,30,30,112,1,t1.png,t1.png,0,0.97829,19,female,2020-08-28_13h11.36.764,torte-2b,2020.1.3,MacIntel,60,13439,1.269,,,,,,,,,,,,,,,,,,,,,,,,,,,,,,,,,,,,,,,,,,,,,,,,,,,,,,,,,,,,,,,,,
,,,,,,,,,,,,a,Incorrect,0,31,31,30,1,t3.png,t1.png,2,0.056466,19,female,2020-08-28_13h11.36.764,torte-2b,2020.1.3,MacIntel,60,13439,0.903,,,,,,,,,,,,,,,,,,,,,,,,,,,,,,,,,,,,,,,,,,,,,,,,,,,,,,,,,,,,,,,,,
,,,,,,,,,,,,a,Correct!,0,32,32,58,1,t5.png,t4.png,1,0.90025,19,female,2020-08-28_13h11.36.764,torte-2b,2020.1.3,MacIntel,60,13439,1.265,,,,,,,,,,,,,,,,,,,,,,,,,,,,,,,,,,,,,,,,,,,,,,,,,,,,,,,,,,,,,,,,,
,,,,,,,,,,,,a,Incorrect,0,33,33,88,1,t3.png,t1.png,2,0.056466,19,female,2020-08-28_13h11.36.764,torte-2b,2020.1.3,MacIntel,60,13439,0.864,,,,,,,,,,,,,,,,,,,,,,,,,,,,,,,,,,,,,,,,,,,,,,,,,,,,,,,,,,,,,,,,,
,,,,,,,,,,,,a,Incorrect,0,34,34,102,1,t4.png,t2.png,2,0.059078,19,female,2020-08-28_13h11.36.764,torte-2b,2020.1.3,MacIntel,60,13439,0.804,,,,,,,,,,,,,,,,,,,,,,,,,,,,,,,,,,,,,,,,,,,,,,,,,,,,,,,,,,,,,,,,,
,,,,,,,,,,,,a,Incorrect,0,35,35,47,1,t4.png,t2.png,2,0.059078,19,female,2020-08-28_13h11.36.764,torte-2b,2020.1.3,MacIntel,60,13439,0.715,,,,,,,,,,,,,,,,,,,,,,,,,,,,,,,,,,,,,,,,,,,,,,,,,,,,,,,,,,,,,,,,,
,,,,,,,,,,,,a,Incorrect,0,36,36,53,1,t3.png,t1.png,2,0.056466,19,female,2020-08-28_13h11.36.764,torte-2b,2020.1.3,MacIntel,60,13439,0.672,,,,,,,,,,,,,,,,,,,,,,,,,,,,,,,,,,,,,,,,,,,,,,,,,,,,,,,,,,,,,,,,,
,,,,,,,,,,,,a,Incorrect,0,37,37,83,1,t3.png,t1.png,2,0.056466,19,female,2020-08-28_13h11.36.764,torte-2b,2020.1.3,MacIntel,60,13439,0.907,,,,,,,,,,,,,,,,,,,,,,,,,,,,,,,,,,,,,,,,,,,,,,,,,,,,,,,,,,,,,,,,,
,,,,,,,,,,,,a,Correct!,0,38,38,64,1,t1.png,t1.png,0,0.978,19,female,2020-08-28_13h11.36.764,torte-2b,2020.1.3,MacIntel,60,13439,1.204,,,,,,,,,,,,,,,,,,,,,,,,,,,,,,,,,,,,,,,,,,,,,,,,,,,,,,,,,,,,,,,,,
,,,,,,,,,,,,l,Correct!,0,39,39,31,1,t1.png,t5.png,4,9.55E-11,19,female,2020-08-28_13h11.36.764,torte-2b,2020.1.3,MacIntel,60,13439,0.597,,,,,,,,,,,,,,,,,,,,,,,,,,,,,,,,,,,,,,,,,,,,,,,,,,,,,,,,,,,,,,,,,
,,,,,,,,,,,,l,Incorrect,0,40,40,9,1,t4.png,t5.png,1,0.9,19,female,2020-08-28_13h11.36.764,torte-2b,2020.1.3,MacIntel,60,13439,1.156,,,,,,,,,,,,,,,,,,,,,,,,,,,,,,,,,,,,,,,,,,,,,,,,,,,,,,,,,,,,,,,,,
,,,,,,,,,,,,a,Correct!,0,41,41,42,1,t5.png,t4.png,1,0.90025,19,female,2020-08-28_13h11.36.764,torte-2b,2020.1.3,MacIntel,60,13439,0.815,,,,,,,,,,,,,,,,,,,,,,,,,,,,,,,,,,,,,,,,,,,,,,,,,,,,,,,,,,,,,,,,,
,,,,,,,,,,,,a,Incorrect,0,42,42,46,1,t4.png,t2.png,2,0.059078,19,female,2020-08-28_13h11.36.764,torte-2b,2020.1.3,MacIntel,60,13439,1.169,,,,,,,,,,,,,,,,,,,,,,,,,,,,,,,,,,,,,,,,,,,,,,,,,,,,,,,,,,,,,,,,,
,,,,,,,,,,,,a,Correct!,0,43,43,85,1,t3.png,t2.png,1,0.90855,19,female,2020-08-28_13h11.36.764,torte-2b,2020.1.3,MacIntel,60,13439,0.736,,,,,,,,,,,,,,,,,,,,,,,,,,,,,,,,,,,,,,,,,,,,,,,,,,,,,,,,,,,,,,,,,
,,,,,,,,,,,,l,Incorrect,0,44,44,107,1,t1.png,t1.png,0,0.978,19,female,2020-08-28_13h11.36.764,torte-2b,2020.1.3,MacIntel,60,13439,0.757,,,,,,,,,,,,,,,,,,,,,,,,,,,,,,,,,,,,,,,,,,,,,,,,,,,,,,,,,,,,,,,,,
,,,,,,,,,,,,l,Correct!,0,45,45,99,1,t1.png,t5.png,4,9.55E-11,19,female,2020-08-28_13h11.36.764,torte-2b,2020.1.3,MacIntel,60,13439,0.553,,,,,,,,,,,,,,,,,,,,,,,,,,,,,,,,,,,,,,,,,,,,,,,,,,,,,,,,,,,,,,,,,
,,,,,,,,,,,,l,Correct!,0,46,46,80,1,t1.png,t4.png,3,0.0000131,19,female,2020-08-28_13h11.36.764,torte-2b,2020.1.3,MacIntel,60,13439,0.548,,,,,,,,,,,,,,,,,,,,,,,,,,,,,,,,,,,,,,,,,,,,,,,,,,,,,,,,,,,,,,,,,
,,,,,,,,,,,,l,Incorrect,0,47,47,49,1,t4.png,t5.png,1,0.9,19,female,2020-08-28_13h11.36.764,torte-2b,2020.1.3,MacIntel,60,13439,1.158,,,,,,,,,,,,,,,,,,,,,,,,,,,,,,,,,,,,,,,,,,,,,,,,,,,,,,,,,,,,,,,,,
,,,,,,,,,,,,l,Incorrect,0,48,48,44,1,t2.png,t3.png,1,0.909,19,female,2020-08-28_13h11.36.764,torte-2b,2020.1.3,MacIntel,60,13439,0.74,,,,,,,,,,,,,,,,,,,,,,,,,,,,,,,,,,,,,,,,,,,,,,,,,,,,,,,,,,,,,,,,,
,,,,,,,,,,,,a,Correct!,0,49,49,77,1,t1.png,t1.png,0,0.97829,19,female,2020-08-28_13h11.36.764,torte-2b,2020.1.3,MacIntel,60,13439,1.165,,,,,,,,,,,,,,,,,,,,,,,,,,,,,,,,,,,,,,,,,,,,,,,,,,,,,,,,,,,,,,,,,
,,,,,,,,,,,,a,Incorrect,0,50,50,56,1,t5.png,t1.png,4,9.55E-11,19,female,2020-08-28_13h11.36.764,torte-2b,2020.1.3,MacIntel,60,13439,0.504,,,,,,,,,,,,,,,,,,,,,,,,,,,,,,,,,,,,,,,,,,,,,,,,,,,,,,,,,,,,,,,,,
,,,,,,,,,,,,l,Incorrect,0,51,51,32,1,t4.png,t5.png,1,0.90025,19,female,2020-08-28_13h11.36.764,torte-2b,2020.1.3,MacIntel,60,13439,0.832,,,,,,,,,,,,,,,,,,,,,,,,,,,,,,,,,,,,,,,,,,,,,,,,,,,,,,,,,,,,,,,,,
,,,,,,,,,,,,l,Incorrect,0,52,52,28,1,t2.png,t3.png,1,0.909,19,female,2020-08-28_13h11.36.764,torte-2b,2020.1.3,MacIntel,60,13439,0.624,,,,,,,,,,,,,,,,,,,,,,,,,,,,,,,,,,,,,,,,,,,,,,,,,,,,,,,,,,,,,,,,,
,,,,,,,,,,,,a,Incorrect,0,53,53,57,1,t2.png,t4.png,2,0.059078,19,female,2020-08-28_13h11.36.764,torte-2b,2020.1.3,MacIntel,60,13439,1.874,,,,,,,,,,,,,,,,,,,,,,,,,,,,,,,,,,,,,,,,,,,,,,,,,,,,,,,,,,,,,,,,,
,,,,,,,,,,,,a,Incorrect,0,54,54,115,1,t2.png,t4.png,2,0.059078,19,female,2020-08-28_13h11.36.764,torte-2b,2020.1.3,MacIntel,60,13439,1.478,,,,,,,,,,,,,,,,,,,,,,,,,,,,,,,,,,,,,,,,,,,,,,,,,,,,,,,,,,,,,,,,,
,,,,,,,,,,,,a,Incorrect,0,55,55,26,1,t4.png,t2.png,2,0.0591,19,female,2020-08-28_13h11.36.764,torte-2b,2020.1.3,MacIntel,60,13439,0.943,,,,,,,,,,,,,,,,,,,,,,,,,,,,,,,,,,,,,,,,,,,,,,,,,,,,,,,,,,,,,,,,,
,,,,,,,,,,,,l,Incorrect,0,56,56,75,1,t1.png,t1.png,0,0.97829,19,female,2020-08-28_13h11.36.764,torte-2b,2020.1.3,MacIntel,60,13439,1.619,,,,,,,,,,,,,,,,,,,,,,,,,,,,,,,,,,,,,,,,,,,,,,,,,,,,,,,,,,,,,,,,,
,,,,,,,,,,,,l,Correct!,0,57,57,17,1,t1.png,t4.png,3,0.0000131,19,female,2020-08-28_13h11.36.764,torte-2b,2020.1.3,MacIntel,60,13439,0.553,,,,,,,,,,,,,,,,,,,,,,,,,,,,,,,,,,,,,,,,,,,,,,,,,,,,,,,,,,,,,,,,,
,,,,,,,,,,,,a,Correct!,0,58,58,13,1,t5.png,t5.png,0,0.97829,19,female,2020-08-28_13h11.36.764,torte-2b,2020.1.3,MacIntel,60,13439,2.223,,,,,,,,,,,,,,,,,,,,,,,,,,,,,,,,,,,,,,,,,,,,,,,,,,,,,,,,,,,,,,,,,
,,,,,,,,,,,,,Too slow :(,0,59,59,66,1,t4.png,t5.png,1,0.9,19,female,2020-08-28_13h11.36.764,torte-2b,2020.1.3,MacIntel,60,13439,,,,,,,,,,,,,,,,,,,,,,,,,,,,,,,,,,,,,,,,,,,,,,,,,,,,,,,,,,,,,,,,,,
,,,,,,,,,,,,a,Incorrect,0,60,60,72,1,t4.png,t2.png,2,0.059078,19,female,2020-08-28_13h11.36.764,torte-2b,2020.1.3,MacIntel,60,13439,1.536,,,,,,,,,,,,,,,,,,,,,,,,,,,,,,,,,,,,,,,,,,,,,,,,,,,,,,,,,,,,,,,,,
,,,,,,,,,,,,,Too slow :(,0,61,61,76,1,t3.png,t2.png,1,0.90855,19,female,2020-08-28_13h11.36.764,torte-2b,2020.1.3,MacIntel,60,13439,,,,,,,,,,,,,,,,,,,,,,,,,,,,,,,,,,,,,,,,,,,,,,,,,,,,,,,,,,,,,,,,,,
,,,,,,,,,,,,a,Correct!,0,62,62,71,1,t5.png,t5.png,0,0.97829,19,female,2020-08-28_13h11.36.764,torte-2b,2020.1.3,MacIntel,60,13439,1.365,,,,,,,,,,,,,,,,,,,,,,,,,,,,,,,,,,,,,,,,,,,,,,,,,,,,,,,,,,,,,,,,,
,,,,,,,,,,,,l,Correct!,0,63,63,117,1,t1.png,t5.png,4,9.55E-11,19,female,2020-08-28_13h11.36.764,torte-2b,2020.1.3,MacIntel,60,13439,1.603,,,,,,,,,,,,,,,,,,,,,,,,,,,,,,,,,,,,,,,,,,,,,,,,,,,,,,,,,,,,,,,,,
,,,,,,,,,,,,a,Incorrect,0,64,64,2,1,t3.png,t2.png,1,0.90855,19,female,2020-08-28_13h11.36.764,torte-2b,2020.1.3,MacIntel,60,13439,1.454,,,,,,,,,,,,,,,,,,,,,,,,,,,,,,,,,,,,,,,,,,,,,,,,,,,,,,,,,,,,,,,,,
,,,,,,,,,,,,l,Correct!,0,65,65,5,1,t2.png,t4.png,2,0.059078,19,female,2020-08-28_13h11.36.764,torte-2b,2020.1.3,MacIntel,60,13439,0.894,,,,,,,,,,,,,,,,,,,,,,,,,,,,,,,,,,,,,,,,,,,,,,,,,,,,,,,,,,,,,,,,,
,,,,,,,,,,,,a,Incorrect,0,66,66,0,1,t5.png,t1.png,4,9.55E-11,19,female,2020-08-28_13h11.36.764,torte-2b,2020.1.3,MacIntel,60,13439,0.688,,,,,,,,,,,,,,,,,,,,,,,,,,,,,,,,,,,,,,,,,,,,,,,,,,,,,,,,,,,,,,,,,
,,,,,,,,,,,,a,Correct!,0,67,67,84,1,t1.png,t1.png,0,0.97829,19,female,2020-08-28_13h11.36.764,torte-2b,2020.1.3,MacIntel,60,13439,0.967,,,,,,,,,,,,,,,,,,,,,,,,,,,,,,,,,,,,,,,,,,,,,,,,,,,,,,,,,,,,,,,,,
,,,,,,,,,,,,a,Correct!,0,68,68,97,1,t5.png,t5.png,0,0.97829,19,female,2020-08-28_13h11.36.764,torte-2b,2020.1.3,MacIntel,60,13439,1.34,,,,,,,,,,,,,,,,,,,,,,,,,,,,,,,,,,,,,,,,,,,,,,,,,,,,,,,,,,,,,,,,,
,,,,,,,,,,,,l,Correct!,0,69,69,3,1,t1.png,t5.png,4,9.55E-11,19,female,2020-08-28_13h11.36.764,torte-2b,2020.1.3,MacIntel,60,13439,1.17,,,,,,,,,,,,,,,,,,,,,,,,,,,,,,,,,,,,,,,,,,,,,,,,,,,,,,,,,,,,,,,,,
,,,,,,,,,,,,a,Correct!,0,70,70,70,1,t5.png,t5.png,0,0.978,19,female,2020-08-28_13h11.36.764,torte-2b,2020.1.3,MacIntel,60,13439,0.904,,,,,,,,,,,,,,,,,,,,,,,,,,,,,,,,,,,,,,,,,,,,,,,,,,,,,,,,,,,,,,,,,
,,,,,,,,,,,,a,Incorrect,0,71,71,6,1,t1.png,t4.png,3,0.0000131,19,female,2020-08-28_13h11.36.764,torte-2b,2020.1.3,MacIntel,60,13439,1.616,,,,,,,,,,,,,,,,,,,,,,,,,,,,,,,,,,,,,,,,,,,,,,,,,,,,,,,,,,,,,,,,,
,,,,,,,,,,,,a,Incorrect,0,72,72,36,1,t3.png,t1.png,2,0.0565,19,female,2020-08-28_13h11.36.764,torte-2b,2020.1.3,MacIntel,60,13439,1.716,,,,,,,,,,,,,,,,,,,,,,,,,,,,,,,,,,,,,,,,,,,,,,,,,,,,,,,,,,,,,,,,,
,,,,,,,,,,,,l,Correct!,0,73,73,43,1,t4.png,t2.png,2,0.059078,19,female,2020-08-28_13h11.36.764,torte-2b,2020.1.3,MacIntel,60,13439,1.237,,,,,,,,,,,,,,,,,,,,,,,,,,,,,,,,,,,,,,,,,,,,,,,,,,,,,,,,,,,,,,,,,
,,,,,,,,,,,,,Too slow :(,0,74,74,34,1,t5.png,t4.png,1,0.9,19,female,2020-08-28_13h11.36.764,torte-2b,2020.1.3,MacIntel,60,13439,,,,,,,,,,,,,,,,,,,,,,,,,,,,,,,,,,,,,,,,,,,,,,,,,,,,,,,,,,,,,,,,,,
,,,,,,,,,,,,a,Incorrect,0,75,75,89,1,t1.png,t4.png,3,0.0000131,19,female,2020-08-28_13h11.36.764,torte-2b,2020.1.3,MacIntel,60,13439,1.365,,,,,,,,,,,,,,,,,,,,,,,,,,,,,,,,,,,,,,,,,,,,,,,,,,,,,,,,,,,,,,,,,
,,,,,,,,,,,,a,Incorrect,0,76,76,12,1,t5.png,t1.png,4,9.55E-11,19,female,2020-08-28_13h11.36.764,torte-2b,2020.1.3,MacIntel,60,13439,1.155,,,,,,,,,,,,,,,,,,,,,,,,,,,,,,,,,,,,,,,,,,,,,,,,,,,,,,,,,,,,,,,,,
,,,,,,,,,,,,a,Incorrect,0,77,77,51,1,t3.png,t1.png,2,0.056466,19,female,2020-08-28_13h11.36.764,torte-2b,2020.1.3,MacIntel,60,13439,1.297,,,,,,,,,,,,,,,,,,,,,,,,,,,,,,,,,,,,,,,,,,,,,,,,,,,,,,,,,,,,,,,,,
,,,,,,,,,,,,l,Correct!,0,78,78,24,1,t4.png,t2.png,2,0.059078,19,female,2020-08-28_13h11.36.764,torte-2b,2020.1.3,MacIntel,60,13439,1.356,,,,,,,,,,,,,,,,,,,,,,,,,,,,,,,,,,,,,,,,,,,,,,,,,,,,,,,,,,,,,,,,,
,,,,,,,,,,,,a,Incorrect,0,79,79,55,1,t2.png,t4.png,2,0.059078,19,female,2020-08-28_13h11.36.764,torte-2b,2020.1.3,MacIntel,60,13439,1.342,,,,,,,,,,,,,,,,,,,,,,,,,,,,,,,,,,,,,,,,,,,,,,,,,,,,,,,,,,,,,,,,,
,,,,,,,,,,,,l,Incorrect,0,80,80,101,1,t4.png,t5.png,1,0.90025,19,female,2020-08-28_13h11.36.764,torte-2b,2020.1.3,MacIntel,60,13439,1.297,,,,,,,,,,,,,,,,,,,,,,,,,,,,,,,,,,,,,,,,,,,,,,,,,,,,,,,,,,,,,,,,,
,,,,,,,,,,,,a,Correct!,0,81,81,21,1,t5.png,t4.png,1,0.90025,19,female,2020-08-28_13h11.36.764,torte-2b,2020.1.3,MacIntel,60,13439,1.065,,,,,,,,,,,,,,,,,,,,,,,,,,,,,,,,,,,,,,,,,,,,,,,,,,,,,,,,,,,,,,,,,
,,,,,,,,,,,,,Too slow :(,0,82,82,4,1,t1.png,t5.png,4,9.55E-11,19,female,2020-08-28_13h11.36.764,torte-2b,2020.1.3,MacIntel,60,13439,,,,,,,,,,,,,,,,,,,,,,,,,,,,,,,,,,,,,,,,,,,,,,,,,,,,,,,,,,,,,,,,,,
,,,,,,,,,,,,l,Incorrect,0,83,83,52,1,t2.png,t4.png,2,0.059078,19,female,2020-08-28_13h11.36.764,torte-2b,2020.1.3,MacIntel,60,13439,1.653,,,,,,,,,,,,,,,,,,,,,,,,,,,,,,,,,,,,,,,,,,,,,,,,,,,,,,,,,,,,,,,,,
,,,,,,,,,,,,a,Incorrect,0,84,84,40,1,t1.png,t5.png,4,9.55E-11,19,female,2020-08-28_13h11.36.764,torte-2b,2020.1.3,MacIntel,60,13439,1.415,,,,,,,,,,,,,,,,,,,,,,,,,,,,,,,,,,,,,,,,,,,,,,,,,,,,,,,,,,,,,,,,,
,,,,,,,,,,,,l,Incorrect,0,85,85,114,1,t2.png,t3.png,1,0.90855,19,female,2020-08-28_13h11.36.764,torte-2b,2020.1.3,MacIntel,60,13439,0.733,,,,,,,,,,,,,,,,,,,,,,,,,,,,,,,,,,,,,,,,,,,,,,,,,,,,,,,,,,,,,,,,,
,,,,,,,,,,,,a,Incorrect,0,86,86,45,1,t3.png,t2.png,1,0.90855,19,female,2020-08-28_13h11.36.764,torte-2b,2020.1.3,MacIntel,60,13439,0.832,,,,,,,,,,,,,,,,,,,,,,,,,,,,,,,,,,,,,,,,,,,,,,,,,,,,,,,,,,,,,,,,,
,,,,,,,,,,,,a,Incorrect,0,87,87,69,1,t4.png,t2.png,2,0.059078,19,female,2020-08-28_13h11.36.764,torte-2b,2020.1.3,MacIntel,60,13439,0.946,,,,,,,,,,,,,,,,,,,,,,,,,,,,,,,,,,,,,,,,,,,,,,,,,,,,,,,,,,,,,,,,,
,,,,,,,,,,,,a,Incorrect,0,88,88,54,1,t1.png,t5.png,4,9.55E-11,19,female,2020-08-28_13h11.36.764,torte-2b,2020.1.3,MacIntel,60,13439,0.769,,,,,,,,,,,,,,,,,,,,,,,,,,,,,,,,,,,,,,,,,,,,,,,,,,,,,,,,,,,,,,,,,
,,,,,,,,,,,,l,Incorrect,0,89,89,25,1,t5.png,t5.png,0,0.97829,19,female,2020-08-28_13h11.36.764,torte-2b,2020.1.3,MacIntel,60,13439,0.865,,,,,,,,,,,,,,,,,,,,,,,,,,,,,,,,,,,,,,,,,,,,,,,,,,,,,,,,,,,,,,,,,
,,,,,,,,,,,,l,Incorrect,0,90,90,65,1,t4.png,t5.png,1,0.90025,19,female,2020-08-28_13h11.36.764,torte-2b,2020.1.3,MacIntel,60,13439,1.998,,,,,,,,,,,,,,,,,,,,,,,,,,,,,,,,,,,,,,,,,,,,,,,,,,,,,,,,,,,,,,,,,
,,,,,,,,,,,,a,Correct!,0,91,91,10,1,t2.png,t3.png,1,0.90855,19,female,2020-08-28_13h11.36.764,torte-2b,2020.1.3,MacIntel,60,13439,1.404,,,,,,,,,,,,,,,,,,,,,,,,,,,,,,,,,,,,,,,,,,,,,,,,,,,,,,,,,,,,,,,,,
,,,,,,,,,,,,a,Incorrect,0,92,92,38,1,t3.png,t1.png,2,0.056466,19,female,2020-08-28_13h11.36.764,torte-2b,2020.1.3,MacIntel,60,13439,1.482,,,,,,,,,,,,,,,,,,,,,,,,,,,,,,,,,,,,,,,,,,,,,,,,,,,,,,,,,,,,,,,,,
,,,,,,,,,,,,a,Incorrect,0,93,93,86,1,t3.png,t1.png,2,0.056466,19,female,2020-08-28_13h11.36.764,torte-2b,2020.1.3,MacIntel,60,13439,1.436,,,,,,,,,,,,,,,,,,,,,,,,,,,,,,,,,,,,,,,,,,,,,,,,,,,,,,,,,,,,,,,,,
,,,,,,,,,,,,,Too slow :(,0,94,94,16,1,t5.png,t4.png,1,0.9,19,female,2020-08-28_13h11.36.764,torte-2b,2020.1.3,MacIntel,60,13439,,,,,,,,,,,,,,,,,,,,,,,,,,,,,,,,,,,,,,,,,,,,,,,,,,,,,,,,,,,,,,,,,,
,,,,,,,,,,,,a,Correct!,0,95,95,81,1,t1.png,t1.png,0,0.97829,19,female,2020-08-28_13h11.36.764,torte-2b,2020.1.3,MacIntel,60,13439,2,,,,,,,,,,,,,,,,,,,,,,,,,,,,,,,,,,,,,,,,,,,,,,,,,,,,,,,,,,,,,,,,,
,,,,,,,,,,,,l,Correct!,0,96,96,35,1,t1.png,t4.png,3,0.0000131,19,female,2020-08-28_13h11.36.764,torte-2b,2020.1.3,MacIntel,60,13439,0.683,,,,,,,,,,,,,,,,,,,,,,,,,,,,,,,,,,,,,,,,,,,,,,,,,,,,,,,,,,,,,,,,,
,,,,,,,,,,,,a,Incorrect,0,97,97,87,1,t5.png,t1.png,4,9.55E-11,19,female,2020-08-28_13h11.36.764,torte-2b,2020.1.3,MacIntel,60,13439,0.5,,,,,,,,,,,,,,,,,,,,,,,,,,,,,,,,,,,,,,,,,,,,,,,,,,,,,,,,,,,,,,,,,
,,,,,,,,,,,,l,Correct!,0,98,98,91,1,t1.png,t4.png,3,0.0000131,19,female,2020-08-28_13h11.36.764,torte-2b,2020.1.3,MacIntel,60,13439,0.603,,,,,,,,,,,,,,,,,,,,,,,,,,,,,,,,,,,,,,,,,,,,,,,,,,,,,,,,,,,,,,,,,
,,,,,,,,,,,,l,Correct!,0,99,99,116,1,t5.png,t4.png,1,0.90025,19,female,2020-08-28_13h11.36.764,torte-2b,2020.1.3,MacIntel,60,13439,0.973,,,,,,,,,,,,,,,,,,,,,,,,,,,,,,,,,,,,,,,,,,,,,,,,,,,,,,,,,,,,,,,,,
,,,,,,,,,,,,a,Correct!,0,100,100,8,1,t3.png,t2.png,1,0.90855,19,female,2020-08-28_13h11.36.764,torte-2b,2020.1.3,MacIntel,60,13439,1.634,,,,,,,,,,,,,,,,,,,,,,,,,,,,,,,,,,,,,,,,,,,,,,,,,,,,,,,,,,,,,,,,,
,,,,,,,,,,,,l,Incorrect,0,101,101,95,1,t1.png,t1.png,0,0.978,19,female,2020-08-28_13h11.36.764,torte-2b,2020.1.3,MacIntel,60,13439,1.906,,,,,,,,,,,,,,,,,,,,,,,,,,,,,,,,,,,,,,,,,,,,,,,,,,,,,,,,,,,,,,,,,
,,,,,,,,,,,,l,Correct!,0,102,102,90,1,t1.png,t5.png,4,9.55E-11,19,female,2020-08-28_13h11.36.764,torte-2b,2020.1.3,MacIntel,60,13439,1.289,,,,,,,,,,,,,,,,,,,,,,,,,,,,,,,,,,,,,,,,,,,,,,,,,,,,,,,,,,,,,,,,,
,,,,,,,,,,,,l,Correct!,0,103,103,60,1,t2.png,t4.png,2,0.059078,19,female,2020-08-28_13h11.36.764,torte-2b,2020.1.3,MacIntel,60,13439,1.972,,,,,,,,,,,,,,,,,,,,,,,,,,,,,,,,,,,,,,,,,,,,,,,,,,,,,,,,,,,,,,,,,
,,,,,,,,,,,,l,Correct!,0,104,104,67,1,t1.png,t5.png,4,9.55E-11,19,female,2020-08-28_13h11.36.764,torte-2b,2020.1.3,MacIntel,60,13439,0.815,,,,,,,,,,,,,,,,,,,,,,,,,,,,,,,,,,,,,,,,,,,,,,,,,,,,,,,,,,,,,,,,,
,,,,,,,,,,,,l,Correct!,0,105,105,19,1,t4.png,t2.png,2,0.059078,19,female,2020-08-28_13h11.36.764,torte-2b,2020.1.3,MacIntel,60,13439,0.936,,,,,,,,,,,,,,,,,,,,,,,,,,,,,,,,,,,,,,,,,,,,,,,,,,,,,,,,,,,,,,,,,
,,,,,,,,,,,,a,Correct!,0,106,106,92,1,t2.png,t3.png,1,0.909,19,female,2020-08-28_13h11.36.764,torte-2b,2020.1.3,MacIntel,60,13439,1.559,,,,,,,,,,,,,,,,,,,,,,,,,,,,,,,,,,,,,,,,,,,,,,,,,,,,,,,,,,,,,,,,,
,,,,,,,,,,,,a,Incorrect,0,107,107,37,1,t1.png,t4.png,3,0.0000131,19,female,2020-08-28_13h11.36.764,torte-2b,2020.1.3,MacIntel,60,13439,1.114,,,,,,,,,,,,,,,,,,,,,,,,,,,,,,,,,,,,,,,,,,,,,,,,,,,,,,,,,,,,,,,,,
,,,,,,,,,,,,l,Correct!,0,108,108,11,1,t1.png,t4.png,3,0.0000131,19,female,2020-08-28_13h11.36.764,torte-2b,2020.1.3,MacIntel,60,13439,1.381,,,,,,,,,,,,,,,,,,,,,,,,,,,,,,,,,,,,,,,,,,,,,,,,,,,,,,,,,,,,,,,,,
,,,,,,,,,,,,a,Correct!,0,109,109,113,1,t5.png,t4.png,1,0.9,19,female,2020-08-28_13h11.36.764,torte-2b,2020.1.3,MacIntel,60,13439,1.674,,,,,,,,,,,,,,,,,,,,,,,,,,,,,,,,,,,,,,,,,,,,,,,,,,,,,,,,,,,,,,,,,
,,,,,,,,,,,,l,Correct!,0,110,110,108,1,t5.png,t1.png,4,9.55E-11,19,female,2020-08-28_13h11.36.764,torte-2b,2020.1.3,MacIntel,60,13439,1.18,,,,,,,,,,,,,,,,,,,,,,,,,,,,,,,,,,,,,,,,,,,,,,,,,,,,,,,,,,,,,,,,,
,,,,,,,,,,,,l,Incorrect,0,111,111,27,1,t3.png,t1.png,2,0.0565,19,female,2020-08-28_13h11.36.764,torte-2b,2020.1.3,MacIntel,60,13439,2.432,,,,,,,,,,,,,,,,,,,,,,,,,,,,,,,,,,,,,,,,,,,,,,,,,,,,,,,,,,,,,,,,,
,,,,,,,,,,,,l,Correct!,0,112,112,14,1,t2.png,t4.png,2,0.059078,19,female,2020-08-28_13h11.36.764,torte-2b,2020.1.3,MacIntel,60,13439,1.189,,,,,,,,,,,,,,,,,,,,,,,,,,,,,,,,,,,,,,,,,,,,,,,,,,,,,,,,,,,,,,,,,
,,,,,,,,,,,,a,Correct!,0,113,113,41,1,t3.png,t2.png,1,0.90855,19,female,2020-08-28_13h11.36.764,torte-2b,2020.1.3,MacIntel,60,13439,1.2,,,,,,,,,,,,,,,,,,,,,,,,,,,,,,,,,,,,,,,,,,,,,,,,,,,,,,,,,,,,,,,,,
,,,,,,,,,,,,l,Correct!,0,114,114,68,1,t1.png,t4.png,3,0.0000131,19,female,2020-08-28_13h11.36.764,torte-2b,2020.1.3,MacIntel,60,13439,1.216,,,,,,,,,,,,,,,,,,,,,,,,,,,,,,,,,,,,,,,,,,,,,,,,,,,,,,,,,,,,,,,,,
,,,,,,,,,,,,l,Incorrect,0,115,115,100,1,t4.png,t5.png,1,0.90025,19,female,2020-08-28_13h11.36.764,torte-2b,2020.1.3,MacIntel,60,13439,1.266,,,,,,,,,,,,,,,,,,,,,,,,,,,,,,,,,,,,,,,,,,,,,,,,,,,,,,,,,,,,,,,,,
,,,,,,,,,,,,l,Correct!,0,116,116,73,1,t4.png,t2.png,2,0.059078,19,female,2020-08-28_13h11.36.764,torte-2b,2020.1.3,MacIntel,60,13439,1.273,,,,,,,,,,,,,,,,,,,,,,,,,,,,,,,,,,,,,,,,,,,,,,,,,,,,,,,,,,,,,,,,,
,,,,,,,,,,,,a,Incorrect,0,117,117,106,1,t2.png,t3.png,1,0.90855,19,female,2020-08-28_13h11.36.764,torte-2b,2020.1.3,MacIntel,60,13439,1.647,,,,,,,,,,,,,,,,,,,,,,,,,,,,,,,,,,,,,,,,,,,,,,,,,,,,,,,,,,,,,,,,,
,,,,,,,,,,,,l,Correct!,0,118,118,33,1,t5.png,t1.png,4,9.55E-11,19,female,2020-08-28_13h11.36.764,torte-2b,2020.1.3,MacIntel,60,13439,0.92,,,,,,,,,,,,,,,,,,,,,,,,,,,,,,,,,,,,,,,,,,,,,,,,,,,,,,,,,,,,,,,,,
,,,,,,,,,,,,a,Correct!,0,119,119,15,1,t3.png,t2.png,1,0.90855,19,female,2020-08-28_13h11.36.764,torte-2b,2020.1.3,MacIntel,60,13439,1.497,,,,,,,,,,,,,,,,,,,,,,,,,,,,,,,,,,,,,,,,,,,,,,,,,,,,,,,,,,,,,,,,,
,,,,,,,,,,,,a,Correct!,,,,,,t5.png,t4.png,1,0.90025,19,female,2020-08-28_13h11.36.764,torte-2b,2020.1.3,MacIntel,60,13439,1.249,space,1.963,space,35.979,0,0,0,27,1,,,,,,,,,,,,,,,,,,,,,,,,,,,,,,,,,,,,,,,,,,,,,,,,,,,,,,,,
,,,,,,,,,,,,l,Incorrect,,,,,,t5.png,t4.png,1,0.9,19,female,2020-08-28_13h11.36.764,torte-2b,2020.1.3,MacIntel,60,13439,2.028,,,,,0,1,1,76,1,,,,,,,,,,,,,,,,,,,,,,,,,,,,,,,,,,,,,,,,,,,,,,,,,,,,,,,,
,,,,,,,,,,,,l,Correct!,,,,,,t1.png,t5.png,4,9.55E-11,19,female,2020-08-28_13h11.36.764,torte-2b,2020.1.3,MacIntel,60,13439,0.724,,,,,0,2,2,12,1,,,,,,,,,,,,,,,,,,,,,,,,,,,,,,,,,,,,,,,,,,,,,,,,,,,,,,,,
,,,,,,,,,,,,a,Correct!,,,,,,t1.png,t2.png,1,0.9,19,female,2020-08-28_13h11.36.764,torte-2b,2020.1.3,MacIntel,60,13439,0.988,,,,,0,3,3,1,1,,,,,,,,,,,,,,,,,,,,,,,,,,,,,,,,,,,,,,,,,,,,,,,,,,,,,,,,
,,,,,,,,,,,,a,Incorrect,,,,,,t1.png,t4.png,3,0.0000131,19,female,2020-08-28_13h11.36.764,torte-2b,2020.1.3,MacIntel,60,13439,1.637,,,,,0,4,4,107,1,,,,,,,,,,,,,,,,,,,,,,,,,,,,,,,,,,,,,,,,,,,,,,,,,,,,,,,,
,,,,,,,,,,,,a,Correct!,,,,,,t1.png,t1.png,0,0.97829,19,female,2020-08-28_13h11.36.764,torte-2b,2020.1.3,MacIntel,60,13439,0.9,,,,,0,5,5,67,1,,,,,,,,,,,,,,,,,,,,,,,,,,,,,,,,,,,,,,,,,,,,,,,,,,,,,,,,
,,,,,,,,,,,,l,Correct!,,,,,,t5.png,t3.png,2,0.056466,19,female,2020-08-28_13h11.36.764,torte-2b,2020.1.3,MacIntel,60,13439,1.718,,,,,0,6,6,108,1,,,,,,,,,,,,,,,,,,,,,,,,,,,,,,,,,,,,,,,,,,,,,,,,,,,,,,,,
,,,,,,,,,,,,l,Incorrect,,,,,,t5.png,t5.png,0,0.97829,19,female,2020-08-28_13h11.36.764,torte-2b,2020.1.3,MacIntel,60,13439,1.603,,,,,0,7,7,94,1,,,,,,,,,,,,,,,,,,,,,,,,,,,,,,,,,,,,,,,,,,,,,,,,,,,,,,,,
,,,,,,,,,,,,,Too slow :(,,,,,,t5.png,t2.png,3,0.0000131,19,female,2020-08-28_13h11.36.764,torte-2b,2020.1.3,MacIntel,60,13439,,,,,,0,8,8,91,1,,,,,,,,,,,,,,,,,,,,,,,,,,,,,,,,,,,,,,,,,,,,,,,,,,,,,,,,
,,,,,,,,,,,,l,Incorrect,,,,,,t2.png,t3.png,1,0.90855,19,female,2020-08-28_13h11.36.764,torte-2b,2020.1.3,MacIntel,60,13439,1.464,,,,,0,9,9,65,1,,,,,,,,,,,,,,,,,,,,,,,,,,,,,,,,,,,,,,,,,,,,,,,,,,,,,,,,
,,,,,,,,,,,,l,Correct!,,,,,,t5.png,t2.png,3,0.0000131,19,female,2020-08-28_13h11.36.764,torte-2b,2020.1.3,MacIntel,60,13439,1.051,,,,,0,10,10,51,1,,,,,,,,,,,,,,,,,,,,,,,,,,,,,,,,,,,,,,,,,,,,,,,,,,,,,,,,
,,,,,,,,,,,,a,Incorrect,,,,,,t5.png,t2.png,3,0.0000131,19,female,2020-08-28_13h11.36.764,torte-2b,2020.1.3,MacIntel,60,13439,1.106,,,,,0,11,11,116,1,,,,,,,,,,,,,,,,,,,,,,,,,,,,,,,,,,,,,,,,,,,,,,,,,,,,,,,,
,,,,,,,,,,,,l,Incorrect,,,,,,t1.png,t1.png,0,0.97829,19,female,2020-08-28_13h11.36.764,torte-2b,2020.1.3,MacIntel,60,13439,1.665,,,,,0,12,12,9,1,,,,,,,,,,,,,,,,,,,,,,,,,,,,,,,,,,,,,,,,,,,,,,,,,,,,,,,,
,,,,,,,,,,,,l,Incorrect,,,,,,t5.png,t4.png,1,0.90025,19,female,2020-08-28_13h11.36.764,torte-2b,2020.1.3,MacIntel,60,13439,1.334,,,,,0,13,13,34,1,,,,,,,,,,,,,,,,,,,,,,,,,,,,,,,,,,,,,,,,,,,,,,,,,,,,,,,,
,,,,,,,,,,,,a,Correct!,,,,,,t2.png,t3.png,1,0.90855,19,female,2020-08-28_13h11.36.764,torte-2b,2020.1.3,MacIntel,60,13439,1.419,,,,,0,14,14,111,1,,,,,,,,,,,,,,,,,,,,,,,,,,,,,,,,,,,,,,,,,,,,,,,,,,,,,,,,
,,,,,,,,,,,,a,Correct!,,,,,,t2.png,t1.png,1,0.90025,19,female,2020-08-28_13h11.36.764,torte-2b,2020.1.3,MacIntel,60,13439,1.266,,,,,0,15,15,4,1,,,,,,,,,,,,,,,,,,,,,,,,,,,,,,,,,,,,,,,,,,,,,,,,,,,,,,,,
,,,,,,,,,,,,l,Correct!,,,,,,t5.png,t2.png,3,0.0000131,19,female,2020-08-28_13h11.36.764,torte-2b,2020.1.3,MacIntel,60,13439,0.699,,,,,0,16,16,119,1,,,,,,,,,,,,,,,,,,,,,,,,,,,,,,,,,,,,,,,,,,,,,,,,,,,,,,,,
,,,,,,,,,,,,a,Correct!,,,,,,t2.png,t1.png,1,0.90025,19,female,2020-08-28_13h11.36.764,torte-2b,2020.1.3,MacIntel,60,13439,1.332,,,,,0,17,17,62,1,,,,,,,,,,,,,,,,,,,,,,,,,,,,,,,,,,,,,,,,,,,,,,,,,,,,,,,,
,,,,,,,,,,,,a,Correct!,,,,,,t2.png,t1.png,1,0.90025,19,female,2020-08-28_13h11.36.764,torte-2b,2020.1.3,MacIntel,60,13439,0.953,,,,,0,18,18,5,1,,,,,,,,,,,,,,,,,,,,,,,,,,,,,,,,,,,,,,,,,,,,,,,,,,,,,,,,
,,,,,,,,,,,,l,Incorrect,,,,,,t5.png,t5.png,0,0.978,19,female,2020-08-28_13h11.36.764,torte-2b,2020.1.3,MacIntel,60,13439,1.467,,,,,0,19,19,117,1,,,,,,,,,,,,,,,,,,,,,,,,,,,,,,,,,,,,,,,,,,,,,,,,,,,,,,,,
,,,,,,,,,,,,a,Correct!,,,,,,t3.png,t2.png,1,0.90855,19,female,2020-08-28_13h11.36.764,torte-2b,2020.1.3,MacIntel,60,13439,1.178,,,,,0,20,20,97,1,,,,,,,,,,,,,,,,,,,,,,,,,,,,,,,,,,,,,,,,,,,,,,,,,,,,,,,,
,,,,,,,,,,,,l,Incorrect,,,,,,t4.png,t4.png,0,0.98115,19,female,2020-08-28_13h11.36.764,torte-2b,2020.1.3,MacIntel,60,13439,1.464,,,,,0,21,21,21,1,,,,,,,,,,,,,,,,,,,,,,,,,,,,,,,,,,,,,,,,,,,,,,,,,,,,,,,,
,,,,,,,,,,,,a,Correct!,,,,,,t3.png,t4.png,1,0.909,19,female,2020-08-28_13h11.36.764,torte-2b,2020.1.3,MacIntel,60,13439,1.686,,,,,0,22,22,82,1,,,,,,,,,,,,,,,,,,,,,,,,,,,,,,,,,,,,,,,,,,,,,,,,,,,,,,,,
,,,,,,,,,,,,l,Correct!,,,,,,t1.png,t4.png,3,0.0000131,19,female,2020-08-28_13h11.36.764,torte-2b,2020.1.3,MacIntel,60,13439,1.234,,,,,0,23,23,81,1,,,,,,,,,,,,,,,,,,,,,,,,,,,,,,,,,,,,,,,,,,,,,,,,,,,,,,,,
,,,,,,,,,,,,a,Incorrect,,,,,,t5.png,t1.png,4,9.55E-11,19,female,2020-08-28_13h11.36.764,torte-2b,2020.1.3,MacIntel,60,13439,0.933,,,,,0,24,24,102,1,,,,,,,,,,,,,,,,,,,,,,,,,,,,,,,,,,,,,,,,,,,,,,,,,,,,,,,,
,,,,,,,,,,,,,Too slow :(,,,,,,t1.png,t3.png,2,0.056466,19,female,2020-08-28_13h11.36.764,torte-2b,2020.1.3,MacIntel,60,13439,,,,,,0,25,25,60,1,,,,,,,,,,,,,,,,,,,,,,,,,,,,,,,,,,,,,,,,,,,,,,,,,,,,,,,,
,,,,,,,,,,,,l,Incorrect,,,,,,t2.png,t3.png,1,0.909,19,female,2020-08-28_13h11.36.764,torte-2b,2020.1.3,MacIntel,60,13439,0.932,,,,,0,26,26,74,1,,,,,,,,,,,,,,,,,,,,,,,,,,,,,,,,,,,,,,,,,,,,,,,,,,,,,,,,
,,,,,,,,,,,,l,Incorrect,,,,,,t4.png,t4.png,0,0.98115,19,female,2020-08-28_13h11.36.764,torte-2b,2020.1.3,MacIntel,60,13439,1.381,,,,,0,27,27,80,1,,,,,,,,,,,,,,,,,,,,,,,,,,,,,,,,,,,,,,,,,,,,,,,,,,,,,,,,
,,,,,,,,,,,,l,Correct!,,,,,,t2.png,t5.png,3,0.0000131,19,female,2020-08-28_13h11.36.764,torte-2b,2020.1.3,MacIntel,60,13439,1.755,,,,,0,28,28,8,1,,,,,,,,,,,,,,,,,,,,,,,,,,,,,,,,,,,,,,,,,,,,,,,,,,,,,,,,
,,,,,,,,,,,,a,Correct!,,,,,,t4.png,t5.png,1,0.90025,19,female,2020-08-28_13h11.36.764,torte-2b,2020.1.3,MacIntel,60,13439,2.303,,,,,0,29,29,103,1,,,,,,,,,,,,,,,,,,,,,,,,,,,,,,,,,,,,,,,,,,,,,,,,,,,,,,,,
,,,,,,,,,,,,l,Correct!,,,,,,t1.png,t4.png,3,0.0000131,19,female,2020-08-28_13h11.36.764,torte-2b,2020.1.3,MacIntel,60,13439,1.375,,,,,0,30,30,17,1,,,,,,,,,,,,,,,,,,,,,,,,,,,,,,,,,,,,,,,,,,,,,,,,,,,,,,,,
,,,,,,,,,,,,a,Correct!,,,,,,t1.png,t2.png,1,0.90025,19,female,2020-08-28_13h11.36.764,torte-2b,2020.1.3,MacIntel,60,13439,1.221,,,,,0,31,31,33,1,,,,,,,,,,,,,,,,,,,,,,,,,,,,,,,,,,,,,,,,,,,,,,,,,,,,,,,,
,,,,,,,,,,,,l,Correct!,,,,,,t2.png,t4.png,2,0.059078,19,female,2020-08-28_13h11.36.764,torte-2b,2020.1.3,MacIntel,60,13439,0.685,,,,,0,32,32,11,1,,,,,,,,,,,,,,,,,,,,,,,,,,,,,,,,,,,,,,,,,,,,,,,,,,,,,,,,
,,,,,,,,,,,,a,Correct!,,,,,,t5.png,t4.png,1,0.90025,19,female,2020-08-28_13h11.36.764,torte-2b,2020.1.3,MacIntel,60,13439,1.048,,,,,0,33,33,26,1,,,,,,,,,,,,,,,,,,,,,,,,,,,,,,,,,,,,,,,,,,,,,,,,,,,,,,,,
,,,,,,,,,,,,l,Correct!,,,,,,t4.png,t1.png,3,0.0000131,19,female,2020-08-28_13h11.36.764,torte-2b,2020.1.3,MacIntel,60,13439,1.019,,,,,0,34,34,48,1,,,,,,,,,,,,,,,,,,,,,,,,,,,,,,,,,,,,,,,,,,,,,,,,,,,,,,,,
,,,,,,,,,,,,l,Correct!,,,,,,t2.png,t5.png,3,0.0000131,19,female,2020-08-28_13h11.36.764,torte-2b,2020.1.3,MacIntel,60,13439,0.717,,,,,0,35,35,40,1,,,,,,,,,,,,,,,,,,,,,,,,,,,,,,,,,,,,,,,,,,,,,,,,,,,,,,,,
,,,,,,,,,,,,a,Incorrect,,,,,,t3.png,t1.png,2,0.056466,19,female,2020-08-28_13h11.36.764,torte-2b,2020.1.3,MacIntel,60,13439,0.877,,,,,0,36,36,32,1,,,,,,,,,,,,,,,,,,,,,,,,,,,,,,,,,,,,,,,,,,,,,,,,,,,,,,,,
,,,,,,,,,,,,l,Correct!,,,,,,t4.png,t1.png,3,0.0000131,19,female,2020-08-28_13h11.36.764,torte-2b,2020.1.3,MacIntel,60,13439,1.452,,,,,0,37,37,61,1,,,,,,,,,,,,,,,,,,,,,,,,,,,,,,,,,,,,,,,,,,,,,,,,,,,,,,,,
,,,,,,,,,,,,l,Correct!,,,,,,t2.png,t4.png,2,0.059078,19,female,2020-08-28_13h11.36.764,torte-2b,2020.1.3,MacIntel,60,13439,1.499,,,,,0,38,38,77,1,,,,,,,,,,,,,,,,,,,,,,,,,,,,,,,,,,,,,,,,,,,,,,,,,,,,,,,,
,,,,,,,,,,,,l,Correct!,,,,,,t4.png,t2.png,2,0.059078,19,female,2020-08-28_13h11.36.764,torte-2b,2020.1.3,MacIntel,60,13439,0.782,,,,,0,39,39,109,1,,,,,,,,,,,,,,,,,,,,,,,,,,,,,,,,,,,,,,,,,,,,,,,,,,,,,,,,
,,,,,,,,,,,,a,Incorrect,,,,,,t2.png,t1.png,1,0.90025,19,female,2020-08-28_13h11.36.764,torte-2b,2020.1.3,MacIntel,60,13439,0.997,,,,,0,40,40,19,1,,,,,,,,,,,,,,,,,,,,,,,,,,,,,,,,,,,,,,,,,,,,,,,,,,,,,,,,
,,,,,,,,,,,,l,Correct!,,,,,,t4.png,t2.png,2,0.059078,19,female,2020-08-28_13h11.36.764,torte-2b,2020.1.3,MacIntel,60,13439,0.832,,,,,0,41,41,110,1,,,,,,,,,,,,,,,,,,,,,,,,,,,,,,,,,,,,,,,,,,,,,,,,,,,,,,,,
,,,,,,,,,,,,a,Incorrect,,,,,,t3.png,t1.png,2,0.056466,19,female,2020-08-28_13h11.36.764,torte-2b,2020.1.3,MacIntel,60,13439,1.19,,,,,0,42,42,0,1,,,,,,,,,,,,,,,,,,,,,,,,,,,,,,,,,,,,,,,,,,,,,,,,,,,,,,,,
,,,,,,,,,,,,l,Correct!,,,,,,t3.png,t5.png,2,0.056466,19,female,2020-08-28_13h11.36.764,torte-2b,2020.1.3,MacIntel,60,13439,1.42,,,,,0,43,43,14,1,,,,,,,,,,,,,,,,,,,,,,,,,,,,,,,,,,,,,,,,,,,,,,,,,,,,,,,,
,,,,,,,,,,,,l,Incorrect,,,,,,t2.png,t3.png,1,0.90855,19,female,2020-08-28_13h11.36.764,torte-2b,2020.1.3,MacIntel,60,13439,2.054,,,,,0,44,44,68,1,,,,,,,,,,,,,,,,,,,,,,,,,,,,,,,,,,,,,,,,,,,,,,,,,,,,,,,,
,,,,,,,,,,,,l,Correct!,,,,,,t2.png,t3.png,1,0.90855,19,female,2020-08-28_13h11.36.764,torte-2b,2020.1.3,MacIntel,60,13439,1.204,,,,,0,45,45,10,1,,,,,,,,,,,,,,,,,,,,,,,,,,,,,,,,,,,,,,,,,,,,,,,,,,,,,,,,
,,,,,,,,,,,,a,Incorrect,,,,,,t4.png,t1.png,3,0.0000131,19,female,2020-08-28_13h11.36.764,torte-2b,2020.1.3,MacIntel,60,13439,1.258,,,,,0,46,46,93,1,,,,,,,,,,,,,,,,,,,,,,,,,,,,,,,,,,,,,,,,,,,,,,,,,,,,,,,,
,,,,,,,,,,,,l,Correct!,,,,,,t1.png,t5.png,4,9.55E-11,19,female,2020-08-28_13h11.36.764,torte-2b,2020.1.3,MacIntel,60,13439,1.049,,,,,0,47,47,16,1,,,,,,,,,,,,,,,,,,,,,,,,,,,,,,,,,,,,,,,,,,,,,,,,,,,,,,,,
,,,,,,,,,,,,l,Correct!,,,,,,t4.png,t2.png,2,0.059078,19,female,2020-08-28_13h11.36.764,torte-2b,2020.1.3,MacIntel,60,13439,0.898,,,,,0,48,48,88,1,,,,,,,,,,,,,,,,,,,,,,,,,,,,,,,,,,,,,,,,,,,,,,,,,,,,,,,,
,,,,,,,,,,,,l,Correct!,,,,,,t3.png,t5.png,2,0.0565,19,female,2020-08-28_13h11.36.764,torte-2b,2020.1.3,MacIntel,60,13439,0.915,,,,,0,49,49,30,1,,,,,,,,,,,,,,,,,,,,,,,,,,,,,,,,,,,,,,,,,,,,,,,,,,,,,,,,
,,,,,,,,,,,,a,Correct!,,,,,,t1.png,t2.png,1,0.90025,19,female,2020-08-28_13h11.36.764,torte-2b,2020.1.3,MacIntel,60,13439,1.24,,,,,0,50,50,72,1,,,,,,,,,,,,,,,,,,,,,,,,,,,,,,,,,,,,,,,,,,,,,,,,,,,,,,,,
,,,,,,,,,,,,l,Correct!,,,,,,t1.png,t5.png,4,9.55E-11,19,female,2020-08-28_13h11.36.764,torte-2b,2020.1.3,MacIntel,60,13439,0.64,,,,,0,51,51,41,1,,,,,,,,,,,,,,,,,,,,,,,,,,,,,,,,,,,,,,,,,,,,,,,,,,,,,,,,
,,,,,,,,,,,,a,Correct!,,,,,,t2.png,t2.png,0,0.98115,19,female,2020-08-28_13h11.36.764,torte-2b,2020.1.3,MacIntel,60,13439,1.132,,,,,0,52,52,57,1,,,,,,,,,,,,,,,,,,,,,,,,,,,,,,,,,,,,,,,,,,,,,,,,,,,,,,,,
,,,,,,,,,,,,l,Correct!,,,,,,t5.png,t1.png,4,9.55E-11,19,female,2020-08-28_13h11.36.764,torte-2b,2020.1.3,MacIntel,60,13439,1.087,,,,,0,53,53,22,1,,,,,,,,,,,,,,,,,,,,,,,,,,,,,,,,,,,,,,,,,,,,,,,,,,,,,,,,
,,,,,,,,,,,,l,Incorrect,,,,,,t4.png,t5.png,1,0.90025,19,female,2020-08-28_13h11.36.764,torte-2b,2020.1.3,MacIntel,60,13439,1.783,,,,,0,54,54,113,1,,,,,,,,,,,,,,,,,,,,,,,,,,,,,,,,,,,,,,,,,,,,,,,,,,,,,,,,
,,,,,,,,,,,,a,Correct!,,,,,,t2.png,t2.png,0,0.98115,19,female,2020-08-28_13h11.36.764,torte-2b,2020.1.3,MacIntel,60,13439,1.141,,,,,0,55,55,59,1,,,,,,,,,,,,,,,,,,,,,,,,,,,,,,,,,,,,,,,,,,,,,,,,,,,,,,,,
,,,,,,,,,,,,l,Correct!,,,,,,t2.png,t4.png,2,0.059078,19,female,2020-08-28_13h11.36.764,torte-2b,2020.1.3,MacIntel,60,13439,1.057,,,,,0,56,56,24,1,,,,,,,,,,,,,,,,,,,,,,,,,,,,,,,,,,,,,,,,,,,,,,,,,,,,,,,,
,,,,,,,,,,,,l,Correct!,,,,,,t2.png,t4.png,2,0.0591,19,female,2020-08-28_13h11.36.764,torte-2b,2020.1.3,MacIntel,60,13439,0.873,,,,,0,57,57,15,1,,,,,,,,,,,,,,,,,,,,,,,,,,,,,,,,,,,,,,,,,,,,,,,,,,,,,,,,
,,,,,,,,,,,,l,Correct!,,,,,,t4.png,t1.png,3,0.0000131,19,female,2020-08-28_13h11.36.764,torte-2b,2020.1.3,MacIntel,60,13439,0.9,,,,,0,58,58,42,1,,,,,,,,,,,,,,,,,,,,,,,,,,,,,,,,,,,,,,,,,,,,,,,,,,,,,,,,
,,,,,,,,,,,,a,Incorrect,,,,,,t1.png,t3.png,2,0.056466,19,female,2020-08-28_13h11.36.764,torte-2b,2020.1.3,MacIntel,60,13439,0.948,,,,,0,59,59,69,1,,,,,,,,,,,,,,,,,,,,,,,,,,,,,,,,,,,,,,,,,,,,,,,,,,,,,,,,
,,,,,,,,,,,,l,Incorrect,,,,,,t5.png,t5.png,0,0.97829,19,female,2020-08-28_13h11.36.764,torte-2b,2020.1.3,MacIntel,60,13439,0.635,,,,,0,60,60,70,1,,,,,,,,,,,,,,,,,,,,,,,,,,,,,,,,,,,,,,,,,,,,,,,,,,,,,,,,
,,,,,,,,,,,,l,Correct!,,,,,,t1.png,t5.png,4,9.55E-11,19,female,2020-08-28_13h11.36.764,torte-2b,2020.1.3,MacIntel,60,13439,0.8,,,,,0,61,61,55,1,,,,,,,,,,,,,,,,,,,,,,,,,,,,,,,,,,,,,,,,,,,,,,,,,,,,,,,,
,,,,,,,,,,,,a,Incorrect,,,,,,t4.png,t3.png,1,0.90855,19,female,2020-08-28_13h11.36.764,torte-2b,2020.1.3,MacIntel,60,13439,1.049,,,,,0,62,62,45,1,,,,,,,,,,,,,,,,,,,,,,,,,,,,,,,,,,,,,,,,,,,,,,,,,,,,,,,,
,,,,,,,,,,,,a,Correct!,,,,,,t4.png,t4.png,0,0.98115,19,female,2020-08-28_13h11.36.764,torte-2b,2020.1.3,MacIntel,60,13439,1.737,,,,,0,63,63,79,1,,,,,,,,,,,,,,,,,,,,,,,,,,,,,,,,,,,,,,,,,,,,,,,,,,,,,,,,
,,,,,,,,,,,,l,Incorrect,,,,,,t2.png,t4.png,2,0.059078,19,female,2020-08-28_13h11.36.764,torte-2b,2020.1.3,MacIntel,60,13439,0.851,,,,,0,64,64,37,1,,,,,,,,,,,,,,,,,,,,,,,,,,,,,,,,,,,,,,,,,,,,,,,,,,,,,,,,
,,,,,,,,,,,,a,Incorrect,,,,,,t3.png,t1.png,2,0.056466,19,female,2020-08-28_13h11.36.764,torte-2b,2020.1.3,MacIntel,60,13439,0.851,,,,,0,65,65,29,1,,,,,,,,,,,,,,,,,,,,,,,,,,,,,,,,,,,,,,,,,,,,,,,,,,,,,,,,
,,,,,,,,,,,,l,Incorrect,,,,,,t3.png,t2.png,1,0.90855,19,female,2020-08-28_13h11.36.764,torte-2b,2020.1.3,MacIntel,60,13439,1.375,,,,,0,66,66,53,1,,,,,,,,,,,,,,,,,,,,,,,,,,,,,,,,,,,,,,,,,,,,,,,,,,,,,,,,
,,,,,,,,,,,,a,Incorrect,,,,,,t4.png,t1.png,3,0.0000131,19,female,2020-08-28_13h11.36.764,torte-2b,2020.1.3,MacIntel,60,13439,1.875,,,,,0,67,67,13,1,,,,,,,,,,,,,,,,,,,,,,,,,,,,,,,,,,,,,,,,,,,,,,,,,,,,,,,,
,,,,,,,,,,,,l,Incorrect,,,,,,t4.png,t5.png,1,0.90025,19,female,2020-08-28_13h11.36.764,torte-2b,2020.1.3,MacIntel,60,13439,1.23,,,,,0,68,68,58,1,,,,,,,,,,,,,,,,,,,,,,,,,,,,,,,,,,,,,,,,,,,,,,,,,,,,,,,,
,,,,,,,,,,,,a,Correct!,,,,,,t1.png,t1.png,0,0.978,19,female,2020-08-28_13h11.36.764,torte-2b,2020.1.3,MacIntel,60,13439,1.092,,,,,0,69,69,28,1,,,,,,,,,,,,,,,,,,,,,,,,,,,,,,,,,,,,,,,,,,,,,,,,,,,,,,,,
,,,,,,,,,,,,l,Incorrect,,,,,,t4.png,t3.png,1,0.909,19,female,2020-08-28_13h11.36.764,torte-2b,2020.1.3,MacIntel,60,13439,1.225,,,,,0,70,70,20,1,,,,,,,,,,,,,,,,,,,,,,,,,,,,,,,,,,,,,,,,,,,,,,,,,,,,,,,,
,,,,,,,,,,,,a,Incorrect,,,,,,t5.png,t2.png,3,0.0000131,19,female,2020-08-28_13h11.36.764,torte-2b,2020.1.3,MacIntel,60,13439,1.14,,,,,0,71,71,98,1,,,,,,,,,,,,,,,,,,,,,,,,,,,,,,,,,,,,,,,,,,,,,,,,,,,,,,,,
,,,,,,,,,,,,l,Incorrect,,,,,,t4.png,t4.png,0,0.98115,19,female,2020-08-28_13h11.36.764,torte-2b,2020.1.3,MacIntel,60,13439,1.464,,,,,0,72,72,90,1,,,,,,,,,,,,,,,,,,,,,,,,,,,,,,,,,,,,,,,,,,,,,,,,,,,,,,,,
,,,,,,,,,,,,a,Incorrect,,,,,,t3.png,t5.png,2,0.0565,19,female,2020-08-28_13h11.36.764,torte-2b,2020.1.3,MacIntel,60,13439,0.95,,,,,0,73,73,83,1,,,,,,,,,,,,,,,,,,,,,,,,,,,,,,,,,,,,,,,,,,,,,,,,,,,,,,,,
,,,,,,,,,,,,a,Incorrect,,,,,,t3.png,t1.png,2,0.056466,19,female,2020-08-28_13h11.36.764,torte-2b,2020.1.3,MacIntel,60,13439,0.903,,,,,0,74,74,64,1,,,,,,,,,,,,,,,,,,,,,,,,,,,,,,,,,,,,,,,,,,,,,,,,,,,,,,,,
,,,,,,,,,,,,a,Incorrect,,,,,,t3.png,t1.png,2,0.0565,19,female,2020-08-28_13h11.36.764,torte-2b,2020.1.3,MacIntel,60,13439,1.082,,,,,0,75,75,31,1,,,,,,,,,,,,,,,,,,,,,,,,,,,,,,,,,,,,,,,,,,,,,,,,,,,,,,,,
,,,,,,,,,,,,a,Incorrect,,,,,,t1.png,t3.png,2,0.056466,19,female,2020-08-28_13h11.36.764,torte-2b,2020.1.3,MacIntel,60,13439,1.449,,,,,0,76,76,99,1,,,,,,,,,,,,,,,,,,,,,,,,,,,,,,,,,,,,,,,,,,,,,,,,,,,,,,,,
,,,,,,,,,,,,a,Incorrect,,,,,,t5.png,t3.png,2,0.056466,19,female,2020-08-28_13h11.36.764,torte-2b,2020.1.3,MacIntel,60,13439,1.223,,,,,0,77,77,56,1,,,,,,,,,,,,,,,,,,,,,,,,,,,,,,,,,,,,,,,,,,,,,,,,,,,,,,,,
,,,,,,,,,,,,a,Correct!,,,,,,t2.png,t2.png,0,0.98115,19,female,2020-08-28_13h11.36.764,torte-2b,2020.1.3,MacIntel,60,13439,1,,,,,0,78,78,7,1,,,,,,,,,,,,,,,,,,,,,,,,,,,,,,,,,,,,,,,,,,,,,,,,,,,,,,,,
,,,,,,,,,,,,l,Correct!,,,,,,t3.png,t5.png,2,0.056466,19,female,2020-08-28_13h11.36.764,torte-2b,2020.1.3,MacIntel,60,13439,0.807,,,,,0,79,79,6,1,,,,,,,,,,,,,,,,,,,,,,,,,,,,,,,,,,,,,,,,,,,,,,,,,,,,,,,,
,,,,,,,,,,,,l,Incorrect,,,,,,t4.png,t3.png,1,0.909,19,female,2020-08-28_13h11.36.764,torte-2b,2020.1.3,MacIntel,60,13439,1.215,,,,,0,80,80,46,1,,,,,,,,,,,,,,,,,,,,,,,,,,,,,,,,,,,,,,,,,,,,,,,,,,,,,,,,
,,,,,,,,,,,,l,Correct!,,,,,,t5.png,t3.png,2,0.056466,19,female,2020-08-28_13h11.36.764,torte-2b,2020.1.3,MacIntel,60,13439,0.924,,,,,0,81,81,38,1,,,,,,,,,,,,,,,,,,,,,,,,,,,,,,,,,,,,,,,,,,,,,,,,,,,,,,,,
,,,,,,,,,,,,l,Correct!,,,,,,t5.png,t3.png,2,0.056466,19,female,2020-08-28_13h11.36.764,torte-2b,2020.1.3,MacIntel,60,13439,1.088,,,,,0,82,82,114,1,,,,,,,,,,,,,,,,,,,,,,,,,,,,,,,,,,,,,,,,,,,,,,,,,,,,,,,,
,,,,,,,,,,,,l,Incorrect,,,,,,t3.png,t4.png,1,0.90855,19,female,2020-08-28_13h11.36.764,torte-2b,2020.1.3,MacIntel,60,13439,0.83,,,,,0,83,83,84,1,,,,,,,,,,,,,,,,,,,,,,,,,,,,,,,,,,,,,,,,,,,,,,,,,,,,,,,,
,,,,,,,,,,,,l,Incorrect,,,,,,t5.png,t5.png,0,0.97829,19,female,2020-08-28_13h11.36.764,torte-2b,2020.1.3,MacIntel,60,13439,0.183,,,,,0,84,84,73,1,,,,,,,,,,,,,,,,,,,,,,,,,,,,,,,,,,,,,,,,,,,,,,,,,,,,,,,,
,,,,,,,,,,,,l,Correct!,,,,,,t1.png,t4.png,3,0.0000131,19,female,2020-08-28_13h11.36.764,torte-2b,2020.1.3,MacIntel,60,13439,0.872,,,,,0,85,85,50,1,,,,,,,,,,,,,,,,,,,,,,,,,,,,,,,,,,,,,,,,,,,,,,,,,,,,,,,,
,,,,,,,,,,,,l,Correct!,,,,,,t2.png,t5.png,3,0.0000131,19,female,2020-08-28_13h11.36.764,torte-2b,2020.1.3,MacIntel,60,13439,0.925,,,,,0,86,86,66,1,,,,,,,,,,,,,,,,,,,,,,,,,,,,,,,,,,,,,,,,,,,,,,,,,,,,,,,,
,,,,,,,,,,,,l,Correct!,,,,,,t1.png,t3.png,2,0.056466,19,female,2020-08-28_13h11.36.764,torte-2b,2020.1.3,MacIntel,60,13439,0.804,,,,,0,87,87,87,1,,,,,,,,,,,,,,,,,,,,,,,,,,,,,,,,,,,,,,,,,,,,,,,,,,,,,,,,
,,,,,,,,,,,,l,Incorrect,,,,,,t4.png,t4.png,0,0.98115,19,female,2020-08-28_13h11.36.764,torte-2b,2020.1.3,MacIntel,60,13439,1.074,,,,,0,88,88,52,1,,,,,,,,,,,,,,,,,,,,,,,,,,,,,,,,,,,,,,,,,,,,,,,,,,,,,,,,
,,,,,,,,,,,,a,Incorrect,,,,,,t2.png,t5.png,3,0.0000131,19,female,2020-08-28_13h11.36.764,torte-2b,2020.1.3,MacIntel,60,13439,1.715,,,,,0,89,89,95,1,,,,,,,,,,,,,,,,,,,,,,,,,,,,,,,,,,,,,,,,,,,,,,,,,,,,,,,,
,,,,,,,,,,,,l,Correct!,,,,,,t1.png,t5.png,4,9.55E-11,19,female,2020-08-28_13h11.36.764,torte-2b,2020.1.3,MacIntel,60,13439,1.147,,,,,0,90,90,85,1,,,,,,,,,,,,,,,,,,,,,,,,,,,,,,,,,,,,,,,,,,,,,,,,,,,,,,,,
,,,,,,,,,,,,a,Correct!,,,,,,t3.png,t2.png,1,0.90855,19,female,2020-08-28_13h11.36.764,torte-2b,2020.1.3,MacIntel,60,13439,0.237,,,,,0,91,91,18,1,,,,,,,,,,,,,,,,,,,,,,,,,,,,,,,,,,,,,,,,,,,,,,,,,,,,,,,,
,,,,,,,,,,,,l,Correct!,,,,,,t2.png,t5.png,3,0.0000131,19,female,2020-08-28_13h11.36.764,torte-2b,2020.1.3,MacIntel,60,13439,0.951,,,,,0,92,92,104,1,,,,,,,,,,,,,,,,,,,,,,,,,,,,,,,,,,,,,,,,,,,,,,,,,,,,,,,,
,,,,,,,,,,,,l,Correct!,,,,,,t1.png,t4.png,3,0.0000131,19,female,2020-08-28_13h11.36.764,torte-2b,2020.1.3,MacIntel,60,13439,1.383,,,,,0,93,93,92,1,,,,,,,,,,,,,,,,,,,,,,,,,,,,,,,,,,,,,,,,,,,,,,,,,,,,,,,,
,,,,,,,,,,,,l,Correct!,,,,,,t4.png,t2.png,2,0.059078,19,female,2020-08-28_13h11.36.764,torte-2b,2020.1.3,MacIntel,60,13439,1.3,,,,,0,94,94,86,1,,,,,,,,,,,,,,,,,,,,,,,,,,,,,,,,,,,,,,,,,,,,,,,,,,,,,,,,
,,,,,,,,,,,,a,Correct!,,,,,,t1.png,t1.png,0,0.97829,19,female,2020-08-28_13h11.36.764,torte-2b,2020.1.3,MacIntel,60,13439,1.571,,,,,0,95,95,78,1,,,,,,,,,,,,,,,,,,,,,,,,,,,,,,,,,,,,,,,,,,,,,,,,,,,,,,,,
,,,,,,,,,,,,l,Incorrect,,,,,,t3.png,t4.png,1,0.90855,19,female,2020-08-28_13h11.36.764,torte-2b,2020.1.3,MacIntel,60,13439,0.65,,,,,0,96,96,96,1,,,,,,,,,,,,,,,,,,,,,,,,,,,,,,,,,,,,,,,,,,,,,,,,,,,,,,,,
,,,,,,,,,,,,l,Correct!,,,,,,t4.png,t2.png,2,0.0591,19,female,2020-08-28_13h11.36.764,torte-2b,2020.1.3,MacIntel,60,13439,1.213,,,,,0,97,97,36,1,,,,,,,,,,,,,,,,,,,,,,,,,,,,,,,,,,,,,,,,,,,,,,,,,,,,,,,,
,,,,,,,,,,,,a,Incorrect,,,,,,t1.png,t3.png,2,0.056466,19,female,2020-08-28_13h11.36.764,torte-2b,2020.1.3,MacIntel,60,13439,1.081,,,,,0,98,98,63,1,,,,,,,,,,,,,,,,,,,,,,,,,,,,,,,,,,,,,,,,,,,,,,,,,,,,,,,,
,,,,,,,,,,,,a,Correct!,,,,,,t1.png,t1.png,0,0.978,19,female,2020-08-28_13h11.36.764,torte-2b,2020.1.3,MacIntel,60,13439,0.637,,,,,0,99,99,54,1,,,,,,,,,,,,,,,,,,,,,,,,,,,,,,,,,,,,,,,,,,,,,,,,,,,,,,,,
,,,,,,,,,,,,l,Incorrect,,,,,,t1.png,t2.png,1,0.90025,19,female,2020-08-28_13h11.36.764,torte-2b,2020.1.3,MacIntel,60,13439,0.632,,,,,0,100,100,112,1,,,,,,,,,,,,,,,,,,,,,,,,,,,,,,,,,,,,,,,,,,,,,,,,,,,,,,,,
,,,,,,,,,,,,a,Correct!,,,,,,t4.png,t3.png,1,0.90855,19,female,2020-08-28_13h11.36.764,torte-2b,2020.1.3,MacIntel,60,13439,1.713,,,,,0,101,101,75,1,,,,,,,,,,,,,,,,,,,,,,,,,,,,,,,,,,,,,,,,,,,,,,,,,,,,,,,,
,,,,,,,,,,,,a,Correct!,,,,,,t2.png,t1.png,1,0.9,19,female,2020-08-28_13h11.36.764,torte-2b,2020.1.3,MacIntel,60,13439,0.914,,,,,0,102,102,118,1,,,,,,,,,,,,,,,,,,,,,,,,,,,,,,,,,,,,,,,,,,,,,,,,,,,,,,,,
,,,,,,,,,,,,a,Correct!,,,,,,t3.png,t2.png,1,0.909,19,female,2020-08-28_13h11.36.764,torte-2b,2020.1.3,MacIntel,60,13439,1.059,,,,,0,103,103,3,1,,,,,,,,,,,,,,,,,,,,,,,,,,,,,,,,,,,,,,,,,,,,,,,,,,,,,,,,
,,,,,,,,,,,,l,Correct!,,,,,,t3.png,t5.png,2,0.056466,19,female,2020-08-28_13h11.36.764,torte-2b,2020.1.3,MacIntel,60,13439,0.623,,,,,0,104,104,44,1,,,,,,,,,,,,,,,,,,,,,,,,,,,,,,,,,,,,,,,,,,,,,,,,,,,,,,,,
,,,,,,,,,,,,l,Correct!,,,,,,t5.png,t3.png,2,0.0565,19,female,2020-08-28_13h11.36.764,torte-2b,2020.1.3,MacIntel,60,13439,0.662,,,,,0,105,105,39,1,,,,,,,,,,,,,,,,,,,,,,,,,,,,,,,,,,,,,,,,,,,,,,,,,,,,,,,,
,,,,,,,,,,,,l,Incorrect,,,,,,t4.png,t5.png,1,0.90025,19,female,2020-08-28_13h11.36.764,torte-2b,2020.1.3,MacIntel,60,13439,0.938,,,,,0,106,106,47,1,,,,,,,,,,,,,,,,,,,,,,,,,,,,,,,,,,,,,,,,,,,,,,,,,,,,,,,,
,,,,,,,,,,,,l,Correct!,,,,,,t4.png,t3.png,1,0.90855,19,female,2020-08-28_13h11.36.764,torte-2b,2020.1.3,MacIntel,60,13439,1.973,,,,,0,107,107,35,1,,,,,,,,,,,,,,,,,,,,,,,,,,,,,,,,,,,,,,,,,,,,,,,,,,,,,,,,
,,,,,,,,,,,,a,Correct!,,,,,,t2.png,t2.png,0,0.98115,19,female,2020-08-28_13h11.36.764,torte-2b,2020.1.3,MacIntel,60,13439,1.357,,,,,0,108,108,2,1,,,,,,,,,,,,,,,,,,,,,,,,,,,,,,,,,,,,,,,,,,,,,,,,,,,,,,,,
,,,,,,,,,,,,l,Correct!,,,,,,t5.png,t1.png,4,9.55E-11,19,female,2020-08-28_13h11.36.764,torte-2b,2020.1.3,MacIntel,60,13439,0.736,,,,,0,109,109,71,1,,,,,,,,,,,,,,,,,,,,,,,,,,,,,,,,,,,,,,,,,,,,,,,,,,,,,,,,
,,,,,,,,,,,,l,Incorrect,,,,,,t2.png,t2.png,0,0.981,19,female,2020-08-28_13h11.36.764,torte-2b,2020.1.3,MacIntel,60,13439,0.675,,,,,0,110,110,101,1,,,,,,,,,,,,,,,,,,,,,,,,,,,,,,,,,,,,,,,,,,,,,,,,,,,,,,,,
,,,,,,,,,,,,l,Correct!,,,,,,t5.png,t1.png,4,9.55E-11,19,female,2020-08-28_13h11.36.764,torte-2b,2020.1.3,MacIntel,60,13439,0.943,,,,,0,111,111,100,1,,,,,,,,,,,,,,,,,,,,,,,,,,,,,,,,,,,,,,,,,,,,,,,,,,,,,,,,
,,,,,,,,,,,,l,Incorrect,,,,,,t4.png,t5.png,1,0.9,19,female,2020-08-28_13h11.36.764,torte-2b,2020.1.3,MacIntel,60,13439,1.851,,,,,0,112,112,115,1,,,,,,,,,,,,,,,,,,,,,,,,,,,,,,,,,,,,,,,,,,,,,,,,,,,,,,,,
,,,,,,,,,,,,l,Correct!,,,,,,t5.png,t1.png,4,9.55E-11,19,female,2020-08-28_13h11.36.764,torte-2b,2020.1.3,MacIntel,60,13439,1.437,,,,,0,113,113,43,1,,,,,,,,,,,,,,,,,,,,,,,,,,,,,,,,,,,,,,,,,,,,,,,,,,,,,,,,
,,,,,,,,,,,,a,Correct!,,,,,,t3.png,t4.png,1,0.909,19,female,2020-08-28_13h11.36.764,torte-2b,2020.1.3,MacIntel,60,13439,1.589,,,,,0,114,114,106,1,,,,,,,,,,,,,,,,,,,,,,,,,,,,,,,,,,,,,,,,,,,,,,,,,,,,,,,,
,,,,,,,,,,,,a,Correct!,,,,,,t1.png,t2.png,1,0.90025,19,female,2020-08-28_13h11.36.764,torte-2b,2020.1.3,MacIntel,60,13439,1.008,,,,,0,115,115,105,1,,,,,,,,,,,,,,,,,,,,,,,,,,,,,,,,,,,,,,,,,,,,,,,,,,,,,,,,
,,,,,,,,,,,,l,Incorrect,,,,,,t5.png,t5.png,0,0.97829,19,female,2020-08-28_13h11.36.764,torte-2b,2020.1.3,MacIntel,60,13439,1.112,,,,,0,116,116,25,1,,,,,,,,,,,,,,,,,,,,,,,,,,,,,,,,,,,,,,,,,,,,,,,,,,,,,,,,
,,,,,,,,,,,,l,Incorrect,,,,,,t3.png,t4.png,1,0.909,19,female,2020-08-28_13h11.36.764,torte-2b,2020.1.3,MacIntel,60,13439,0.89,,,,,0,117,117,89,1,,,,,,,,,,,,,,,,,,,,,,,,,,,,,,,,,,,,,,,,,,,,,,,,,,,,,,,,
,,,,,,,,,,,,l,Incorrect,,,,,,t5.png,t4.png,1,0.9,19,female,2020-08-28_13h11.36.764,torte-2b,2020.1.3,MacIntel,60,13439,1.248,,,,,0,118,118,49,1,,,,,,,,,,,,,,,,,,,,,,,,,,,,,,,,,,,,,,,,,,,,,,,,,,,,,,,,
,,,,,,,,,,,,a,Correct!,,,,,,t3.png,t2.png,1,0.909,19,female,2020-08-28_13h11.36.764,torte-2b,2020.1.3,MacIntel,60,13439,1.057,,,,,0,119,119,23,1,,,,,,,,,,,,,,,,,,,,,,,,,,,,,,,,,,,,,,,,,,,,,,,,,,,,,,,,
,,,,,,,,,,,,,,,,,,,,,,,19,female,2020-08-28_13h11.36.764,torte-2b,2020.1.3,MacIntel,60,13439,,space,1.389,,,,,,,,space,65.911,,0,0,0,0,1,6,,,,,,,,,,,,,,,,,,,,,,,,,,,,,,,,,,,,,,,,,,,,,,,
,,,,,,,,,,,,,,,,,,,,,,,19,female,2020-08-28_13h11.36.764,torte-2b,2020.1.3,MacIntel,60,13439,,,,,,,,,,,,,,0,1,1,1,1,7,,,,,,,,,,,,,,,,,,,,,,,,,,,,,,,,,,,,,,,,,,,,,,,
,,,,,,,,,,,,,,,,,,,,,,,19,female,2020-08-28_13h11.36.764,torte-2b,2020.1.3,MacIntel,60,13439,,,,,,,,,,,,,space,0,2,2,2,1,6,0.465,,,,,,,,,,,,,,,,,,,,,,,,,,,,,,,,,,,,,,,,,,,,,,
,,,,,,,,,,,,,,,,,,,,,,,19,female,2020-08-28_13h11.36.764,torte-2b,2020.1.3,MacIntel,60,13439,,,,,,,,,,,,,space,0,3,3,3,1,7,0.721,,,,,,,,,,,,,,,,,,,,,,,,,,,,,,,,,,,,,,,,,,,,,,
,,,,,,,,,,,,,,,,,,,,,,,19,female,2020-08-28_13h11.36.764,torte-2b,2020.1.3,MacIntel,60,13439,,,,,,,,,,,,,,0,4,4,4,1,5,,,,,,,,,,,,,,,,,,,,,,,,,,,,,,,,,,,,,,,,,,,,,,,
,,,,,,,,,,,,,,,,,,,,,,,19,female,2020-08-28_13h11.36.764,torte-2b,2020.1.3,MacIntel,60,13439,,,,,,,,,,,,,space,0,5,5,5,1,7,0.745,,,,,,,,,,,,,,,,,,,,,,,,,,,,,,,,,,,,,,,,,,,,,,
,,,,,,,,,,,,,,,,,,,,,,,19,female,2020-08-28_13h11.36.764,torte-2b,2020.1.3,MacIntel,60,13439,,,,,,,,,,,,,,0,6,6,6,1,2,,,,,,,,,,,,,,,,,,,,,,,,,,,,,,,,,,,,,,,,,,,,,,,
,,,,,,,,,,,,,,,,,,,,,,,19,female,2020-08-28_13h11.36.764,torte-2b,2020.1.3,MacIntel,60,13439,,,,,,,,,,,,,,0,7,7,7,1,4,,,,,,,,,,,,,,,,,,,,,,,,,,,,,,,,,,,,,,,,,,,,,,,
,,,,,,,,,,,,,,,,,,,,,,,19,female,2020-08-28_13h11.36.764,torte-2b,2020.1.3,MacIntel,60,13439,,,,,,,,,,,,,,0,8,8,8,1,7,,,,,,,,,,,,,,,,,,,,,,,,,,,,,,,,,,,,,,,,,,,,,,,
,,,,,,,,,,,,,,,,,,,,,,,19,female,2020-08-28_13h11.36.764,torte-2b,2020.1.3,MacIntel,60,13439,,,,,,,,,,,,,space,0,9,9,9,1,4,0.53,,,,,,,,,,,,,,,,,,,,,,,,,,,,,,,,,,,,,,,,,,,,,,
,,,,,,,,,,,,,,,,,,,,,,,19,female,2020-08-28_13h11.36.764,torte-2b,2020.1.3,MacIntel,60,13439,,,,,,,,,,,,,space,0,10,10,10,1,7,1.667,,,,,,,,,,,,,,,,,,,,,,,,,,,,,,,,,,,,,,,,,,,,,,
,,,,,,,,,,,,,,,,,,,,,,,19,female,2020-08-28_13h11.36.764,torte-2b,2020.1.3,MacIntel,60,13439,,,,,,,,,,,,,space,0,11,11,11,1,7,1.014,,,,,,,,,,,,,,,,,,,,,,,,,,,,,,,,,,,,,,,,,,,,,,
,,,,,,,,,,,,,,,,,,,,,,,19,female,2020-08-28_13h11.36.764,torte-2b,2020.1.3,MacIntel,60,13439,,,,,,,,,,,,,space,0,12,12,12,1,7,0.948,,,,,,,,,,,,,,,,,,,,,,,,,,,,,,,,,,,,,,,,,,,,,,
,,,,,,,,,,,,,,,,,,,,,,,19,female,2020-08-28_13h11.36.764,torte-2b,2020.1.3,MacIntel,60,13439,,,,,,,,,,,,,,0,13,13,13,1,4,,,,,,,,,,,,,,,,,,,,,,,,,,,,,,,,,,,,,,,,,,,,,,,
,,,,,,,,,,,,,,,,,,,,,,,19,female,2020-08-28_13h11.36.764,torte-2b,2020.1.3,MacIntel,60,13439,,,,,,,,,,,,,,0,14,14,14,1,6,,,,,,,,,,,,,,,,,,,,,,,,,,,,,,,,,,,,,,,,,,,,,,,
,,,,,,,,,,,,,,,,,,,,,,,19,female,2020-08-28_13h11.36.764,torte-2b,2020.1.3,MacIntel,60,13439,,,,,,,,,,,,,space,0,15,15,15,1,4,0.693,,,,,,,,,,,,,,,,,,,,,,,,,,,,,,,,,,,,,,,,,,,,,,
,,,,,,,,,,,,,,,,,,,,,,,19,female,2020-08-28_13h11.36.764,torte-2b,2020.1.3,MacIntel,60,13439,,,,,,,,,,,,,space,0,16,16,16,1,6,0.363,,,,,,,,,,,,,,,,,,,,,,,,,,,,,,,,,,,,,,,,,,,,,,
,,,,,,,,,,,,,,,,,,,,,,,19,female,2020-08-28_13h11.36.764,torte-2b,2020.1.3,MacIntel,60,13439,,,,,,,,,,,,,,0,17,17,17,1,7,,,,,,,,,,,,,,,,,,,,,,,,,,,,,,,,,,,,,,,,,,,,,,,
,,,,,,,,,,,,,,,,,,,,,,,19,female,2020-08-28_13h11.36.764,torte-2b,2020.1.3,MacIntel,60,13439,,,,,,,,,,,,,space,0,18,18,18,1,6,1.119,,,,,,,,,,,,,,,,,,,,,,,,,,,,,,,,,,,,,,,,,,,,,,
,,,,,,,,,,,,,,,,,,,,,,,19,female,2020-08-28_13h11.36.764,torte-2b,2020.1.3,MacIntel,60,13439,,,,,,,,,,,,,space,0,19,19,19,1,7,0.566,,,,,,,,,,,,,,,,,,,,,,,,,,,,,,,,,,,,,,,,,,,,,,
,,,,,,,,,,,,,,,,,,,,,,,19,female,2020-08-28_13h11.36.764,torte-2b,2020.1.3,MacIntel,60,13439,,,,,,,,,,,,,,0,20,20,20,1,5,,,,,,,,,,,,,,,,,,,,,,,,,,,,,,,,,,,,,,,,,,,,,,,
,,,,,,,,,,,,,,,,,,,,,,,19,female,2020-08-28_13h11.36.764,torte-2b,2020.1.3,MacIntel,60,13439,,,,,,,,,,,,,,0,21,21,21,1,1,,,,,,,,,,,,,,,,,,,,,,,,,,,,,,,,,,,,,,,,,,,,,,,
,,,,,,,,,,,,,,,,,,,,,,,19,female,2020-08-28_13h11.36.764,torte-2b,2020.1.3,MacIntel,60,13439,,,,,,,,,,,,,,0,22,22,22,1,6,,,,,,,,,,,,,,,,,,,,,,,,,,,,,,,,,,,,,,,,,,,,,,,
,,,,,,,,,,,,,,,,,,,,,,,19,female,2020-08-28_13h11.36.764,torte-2b,2020.1.3,MacIntel,60,13439,,,,,,,,,,,,,space,0,23,23,23,1,1,0.628,,,,,,,,,,,,,,,,,,,,,,,,,,,,,,,,,,,,,,,,,,,,,,
,,,,,,,,,,,,,,,,,,,,,,,19,female,2020-08-28_13h11.36.764,torte-2b,2020.1.3,MacIntel,60,13439,,,,,,,,,,,,,,0,24,24,24,1,5,,,,,,,,,,,,,,,,,,,,,,,,,,,,,,,,,,,,,,,,,,,,,,,
,,,,,,,,,,,,,,,,,,,,,,,19,female,2020-08-28_13h11.36.764,torte-2b,2020.1.3,MacIntel,60,13439,,,,,,,,,,,,,space,0,25,25,25,1,6,0.553,,,,,,,,,,,,,,,,,,,,,,,,,,,,,,,,,,,,,,,,,,,,,,
,,,,,,,,,,,,,,,,,,,,,,,19,female,2020-08-28_13h11.36.764,torte-2b,2020.1.3,MacIntel,60,13439,,,,,,,,,,,,,,0,26,26,26,1,6,,,,,,,,,,,,,,,,,,,,,,,,,,,,,,,,,,,,,,,,,,,,,,,
,,,,,,,,,,,,,,,,,,,,,,,19,female,2020-08-28_13h11.36.764,torte-2b,2020.1.3,MacIntel,60,13439,,,,,,,,,,,,,space,0,27,27,27,1,6,0.475,,,,,,,,,,,,,,,,,,,,,,,,,,,,,,,,,,,,,,,,,,,,,,
,,,,,,,,,,,,,,,,,,,,,,,19,female,2020-08-28_13h11.36.764,torte-2b,2020.1.3,MacIntel,60,13439,,,,,,,,,,,,,,0,28,28,28,1,5,,,,,,,,,,,,,,,,,,,,,,,,,,,,,,,,,,,,,,,,,,,,,,,
,,,,,,,,,,,,,,,,,,,,,,,19,female,2020-08-28_13h11.36.764,torte-2b,2020.1.3,MacIntel,60,13439,,,,,,,,,,,,,,0,29,29,29,1,2,,,,,,,,,,,,,,,,,,,,,,,,,,,,,,,,,,,,,,,,,,,,,,,
,,,,,,,,,,,,,,,,,,,,,,,19,female,2020-08-28_13h11.36.764,torte-2b,2020.1.3,MacIntel,60,13439,,,,,,,,,,,,,space,0,30,30,30,1,5,0.461,,,,,,,,,,,,,,,,,,,,,,,,,,,,,,,,,,,,,,,,,,,,,,
,,,,,,,,,,,,,,,,,,,,,,,19,female,2020-08-28_13h11.36.764,torte-2b,2020.1.3,MacIntel,60,13439,,,,,,,,,,,,,space,0,31,31,31,1,2,0.747,,,,,,,,,,,,,,,,,,,,,,,,,,,,,,,,,,,,,,,,,,,,,,
,,,,,,,,,,,,,,,,,,,,,,,19,female,2020-08-28_13h11.36.764,torte-2b,2020.1.3,MacIntel,60,13439,,,,,,,,,,,,,space,0,32,32,32,1,5,0.727,,,,,,,,,,,,,,,,,,,,,,,,,,,,,,,,,,,,,,,,,,,,,,
,,,,,,,,,,,,,,,,,,,,,,,19,female,2020-08-28_13h11.36.764,torte-2b,2020.1.3,MacIntel,60,13439,,,,,,,,,,,,,,0,33,33,33,1,1,,,,,,,,,,,,,,,,,,,,,,,,,,,,,,,,,,,,,,,,,,,,,,,
,,,,,,,,,,,,,,,,,,,,,,,19,female,2020-08-28_13h11.36.764,torte-2b,2020.1.3,MacIntel,60,13439,,,,,,,,,,,,,,0,34,34,34,1,1,,,,,,,,,,,,,,,,,,,,,,,,,,,,,,,,,,,,,,,,,,,,,,,
,,,,,,,,,,,,,,,,,,,,,,,19,female,2020-08-28_13h11.36.764,torte-2b,2020.1.3,MacIntel,60,13439,,,,,,,,,,,,,,,,,,,2,,0,0,0,0,1,,,,,,,,,,,,,,,,,,,,,,,,,,,,,,,,,,,,,,,,,
,,,,,,,,,,,,,,,,,,,,,,,19,female,2020-08-28_13h11.36.764,torte-2b,2020.1.3,MacIntel,60,13439,,,,,,,,,,,,,,,,,,,2,,0,1,1,1,1,,,,,,,,,,,,,,,,,,,,,,,,,,,,,,,,,,,,,,,,,
,,,,,,,,,,,,,,,,,,,,,,,19,female,2020-08-28_13h11.36.764,torte-2b,2020.1.3,MacIntel,60,13439,,,,,,,,,,,,,,,,,,,6,,0,2,2,2,1,,,,,,,,,,,,,,,,,,,,,,,,,,,,,,,,,,,,,,,,,
,,,,,,,,,,,,,,,,,,,,,,,19,female,2020-08-28_13h11.36.764,torte-2b,2020.1.3,MacIntel,60,13439,,,,,,,,,,,,,space,,,,,,2,0.495,0,3,3,3,1,,,,,,,,,,,,,,,,,,,,,,,,,,,,,,,,,,,,,,,,,
,,,,,,,,,,,,,,,,,,,,,,,19,female,2020-08-28_13h11.36.764,torte-2b,2020.1.3,MacIntel,60,13439,,,,,,,,,,,,,space,,,,,,6,0.485,0,4,4,4,1,,,,,,,,,,,,,,,,,,,,,,,,,,,,,,,,,,,,,,,,,
,,,,,,,,,,,,,,,,,,,,,,,19,female,2020-08-28_13h11.36.764,torte-2b,2020.1.3,MacIntel,60,13439,,,,,,,,,,,,,space,,,,,,2,0.432,0,5,5,5,1,,,,,,,,,,,,,,,,,,,,,,,,,,,,,,,,,,,,,,,,,
,,,,,,,,,,,,,,,,,,,,,,,19,female,2020-08-28_13h11.36.764,torte-2b,2020.1.3,MacIntel,60,13439,,,,,,,,,,,,,,,,,,,7,,0,6,6,6,1,,,,,,,,,,,,,,,,,,,,,,,,,,,,,,,,,,,,,,,,,
,,,,,,,,,,,,,,,,,,,,,,,19,female,2020-08-28_13h11.36.764,torte-2b,2020.1.3,MacIntel,60,13439,,,,,,,,,,,,,space,,,,,,2,0.673,0,7,7,7,1,,,,,,,,,,,,,,,,,,,,,,,,,,,,,,,,,,,,,,,,,
,,,,,,,,,,,,,,,,,,,,,,,19,female,2020-08-28_13h11.36.764,torte-2b,2020.1.3,MacIntel,60,13439,,,,,,,,,,,,,space,,,,,,7,0.584,0,8,8,8,1,,,,,,,,,,,,,,,,,,,,,,,,,,,,,,,,,,,,,,,,,
,,,,,,,,,,,,,,,,,,,,,,,19,female,2020-08-28_13h11.36.764,torte-2b,2020.1.3,MacIntel,60,13439,,,,,,,,,,,,,space,,,,,,2,0.564,0,9,9,9,1,,,,,,,,,,,,,,,,,,,,,,,,,,,,,,,,,,,,,,,,,
,,,,,,,,,,,,,,,,,,,,,,,19,female,2020-08-28_13h11.36.764,torte-2b,2020.1.3,MacIntel,60,13439,,,,,,,,,,,,,,,,,,,5,,0,10,10,10,1,,,,,,,,,,,,,,,,,,,,,,,,,,,,,,,,,,,,,,,,,
,,,,,,,,,,,,,,,,,,,,,,,19,female,2020-08-28_13h11.36.764,torte-2b,2020.1.3,MacIntel,60,13439,,,,,,,,,,,,,,,,,,,4,,0,11,11,11,1,,,,,,,,,,,,,,,,,,,,,,,,,,,,,,,,,,,,,,,,,
,,,,,,,,,,,,,,,,,,,,,,,19,female,2020-08-28_13h11.36.764,torte-2b,2020.1.3,MacIntel,60,13439,,,,,,,,,,,,,space,,,,,,5,0.345,0,12,12,12,1,,,,,,,,,,,,,,,,,,,,,,,,,,,,,,,,,,,,,,,,,
,,,,,,,,,,,,,,,,,,,,,,,19,female,2020-08-28_13h11.36.764,torte-2b,2020.1.3,MacIntel,60,13439,,,,,,,,,,,,,,,,,,,6,,0,13,13,13,1,,,,,,,,,,,,,,,,,,,,,,,,,,,,,,,,,,,,,,,,,
,,,,,,,,,,,,,,,,,,,,,,,19,female,2020-08-28_13h11.36.764,torte-2b,2020.1.3,MacIntel,60,13439,,,,,,,,,,,,,,,,,,,5,,0,14,14,14,1,,,,,,,,,,,,,,,,,,,,,,,,,,,,,,,,,,,,,,,,,
,,,,,,,,,,,,,,,,,,,,,,,19,female,2020-08-28_13h11.36.764,torte-2b,2020.1.3,MacIntel,60,13439,,,,,,,,,,,,,,,,,,,4,,0,15,15,15,1,,,,,,,,,,,,,,,,,,,,,,,,,,,,,,,,,,,,,,,,,
,,,,,,,,,,,,,,,,,,,,,,,19,female,2020-08-28_13h11.36.764,torte-2b,2020.1.3,MacIntel,60,13439,,,,,,,,,,,,,space,,,,,,5,0.367,0,16,16,16,1,,,,,,,,,,,,,,,,,,,,,,,,,,,,,,,,,,,,,,,,,
,,,,,,,,,,,,,,,,,,,,,,,19,female,2020-08-28_13h11.36.764,torte-2b,2020.1.3,MacIntel,60,13439,,,,,,,,,,,,,,,,,,,3,,0,17,17,17,1,,,,,,,,,,,,,,,,,,,,,,,,,,,,,,,,,,,,,,,,,
,,,,,,,,,,,,,,,,,,,,,,,19,female,2020-08-28_13h11.36.764,torte-2b,2020.1.3,MacIntel,60,13439,,,,,,,,,,,,,,,,,,,6,,0,18,18,18,1,,,,,,,,,,,,,,,,,,,,,,,,,,,,,,,,,,,,,,,,,
,,,,,,,,,,,,,,,,,,,,,,,19,female,2020-08-28_13h11.36.764,torte-2b,2020.1.3,MacIntel,60,13439,,,,,,,,,,,,,,,,,,,6,,0,19,19,19,1,,,,,,,,,,,,,,,,,,,,,,,,,,,,,,,,,,,,,,,,,
,,,,,,,,,,,,,,,,,,,,,,,19,female,2020-08-28_13h11.36.764,torte-2b,2020.1.3,MacIntel,60,13439,,,,,,,,,,,,,space,,,,,,6,1.143,0,20,20,20,1,,,,,,,,,,,,,,,,,,,,,,,,,,,,,,,,,,,,,,,,,
,,,,,,,,,,,,,,,,,,,,,,,19,female,2020-08-28_13h11.36.764,torte-2b,2020.1.3,MacIntel,60,13439,,,,,,,,,,,,,,,,,,,4,,0,21,21,21,1,,,,,,,,,,,,,,,,,,,,,,,,,,,,,,,,,,,,,,,,,
,,,,,,,,,,,,,,,,,,,,,,,19,female,2020-08-28_13h11.36.764,torte-2b,2020.1.3,MacIntel,60,13439,,,,,,,,,,,,,space,,,,,,6,1.034,0,22,22,22,1,,,,,,,,,,,,,,,,,,,,,,,,,,,,,,,,,,,,,,,,,
,,,,,,,,,,,,,,,,,,,,,,,19,female,2020-08-28_13h11.36.764,torte-2b,2020.1.3,MacIntel,60,13439,,,,,,,,,,,,,space,,,,,,4,0.644,0,23,23,23,1,,,,,,,,,,,,,,,,,,,,,,,,,,,,,,,,,,,,,,,,,
,,,,,,,,,,,,,,,,,,,,,,,19,female,2020-08-28_13h11.36.764,torte-2b,2020.1.3,MacIntel,60,13439,,,,,,,,,,,,,space,,,,,,6,1.807,0,24,24,24,1,,,,,,,,,,,,,,,,,,,,,,,,,,,,,,,,,,,,,,,,,
,,,,,,,,,,,,,,,,,,,,,,,19,female,2020-08-28_13h11.36.764,torte-2b,2020.1.3,MacIntel,60,13439,,,,,,,,,,,,,space,,,,,,6,0.544,0,25,25,25,1,,,,,,,,,,,,,,,,,,,,,,,,,,,,,,,,,,,,,,,,,
,,,,,,,,,,,,,,,,,,,,,,,19,female,2020-08-28_13h11.36.764,torte-2b,2020.1.3,MacIntel,60,13439,,,,,,,,,,,,,,,,,,,7,,0,26,26,26,1,,,,,,,,,,,,,,,,,,,,,,,,,,,,,,,,,,,,,,,,,
,,,,,,,,,,,,,,,,,,,,,,,19,female,2020-08-28_13h11.36.764,torte-2b,2020.1.3,MacIntel,60,13439,,,,,,,,,,,,,,,,,,,1,,0,27,27,27,1,,,,,,,,,,,,,,,,,,,,,,,,,,,,,,,,,,,,,,,,,
,,,,,,,,,,,,,,,,,,,,,,,19,female,2020-08-28_13h11.36.764,torte-2b,2020.1.3,MacIntel,60,13439,,,,,,,,,,,,,space,,,,,,7,0.471,0,28,28,28,1,,,,,,,,,,,,,,,,,,,,,,,,,,,,,,,,,,,,,,,,,
,,,,,,,,,,,,,,,,,,,,,,,19,female,2020-08-28_13h11.36.764,torte-2b,2020.1.3,MacIntel,60,13439,,,,,,,,,,,,,,,,,,,4,,0,29,29,29,1,,,,,,,,,,,,,,,,,,,,,,,,,,,,,,,,,,,,,,,,,
,,,,,,,,,,,,,,,,,,,,,,,19,female,2020-08-28_13h11.36.764,torte-2b,2020.1.3,MacIntel,60,13439,,,,,,,,,,,,,space,,,,,,7,0.388,0,30,30,30,1,,,,,,,,,,,,,,,,,,,,,,,,,,,,,,,,,,,,,,,,,
,,,,,,,,,,,,,,,,,,,,,,,19,female,2020-08-28_13h11.36.764,torte-2b,2020.1.3,MacIntel,60,13439,,,,,,,,,,,,,,,,,,,3,,0,31,31,31,1,,,,,,,,,,,,,,,,,,,,,,,,,,,,,,,,,,,,,,,,,
,,,,,,,,,,,,,,,,,,,,,,,19,female,2020-08-28_13h11.36.764,torte-2b,2020.1.3,MacIntel,60,13439,,,,,,,,,,,,,,,,,,,2,,0,32,32,32,1,,,,,,,,,,,,,,,,,,,,,,,,,,,,,,,,,,,,,,,,,
,,,,,,,,,,,,,,,,,,,,,,,19,female,2020-08-28_13h11.36.764,torte-2b,2020.1.3,MacIntel,60,13439,,,,,,,,,,,,,,,,,,,6,,0,33,33,33,1,,,,,,,,,,,,,,,,,,,,,,,,,,,,,,,,,,,,,,,,,
,,,,,,,,,,,,,,,,,,,,,,,19,female,2020-08-28_13h11.36.764,torte-2b,2020.1.3,MacIntel,60,13439,,,,,,,,,,,,,,,,,,,3,,0,34,34,34,1,,,,,,,,,,,,,,,,,,,,,,,,,,,,,,,,,,,,,,,,,
,,,,,,,,,,,,,,,,,,,,,,,19,female,2020-08-28_13h11.36.764,torte-2b,2020.1.3,MacIntel,60,13439,,,,,,,,,,,,,,,,,,,7,,,,,,,0,0,0,0,1,,,,,,,,,,,,,,,,,,,,,,,,,,,,,,,,,,,,
,,,,,,,,,,,,,,,,,,,,,,,19,female,2020-08-28_13h11.36.764,torte-2b,2020.1.3,MacIntel,60,13439,,,,,,,,,,,,,,,,,,,5,,,,,,,0,1,1,1,1,,,,,,,,,,,,,,,,,,,,,,,,,,,,,,,,,,,,
,,,,,,,,,,,,,,,,,,,,,,,19,female,2020-08-28_13h11.36.764,torte-2b,2020.1.3,MacIntel,60,13439,,,,,,,,,,,,,,,,,,,4,,,,,,,0,2,2,2,1,,,,,,,,,,,,,,,,,,,,,,,,,,,,,,,,,,,,
,,,,,,,,,,,,,,,,,,,,,,,19,female,2020-08-28_13h11.36.764,torte-2b,2020.1.3,MacIntel,60,13439,,,,,,,,,,,,,space,,,,,,5,0.466,,,,,,0,3,3,3,1,,,,,,,,,,,,,,,,,,,,,,,,,,,,,,,,,,,,
,,,,,,,,,,,,,,,,,,,,,,,19,female,2020-08-28_13h11.36.764,torte-2b,2020.1.3,MacIntel,60,13439,,,,,,,,,,,,,,,,,,,6,,,,,,,0,4,4,4,1,,,,,,,,,,,,,,,,,,,,,,,,,,,,,,,,,,,,
,,,,,,,,,,,,,,,,,,,,,,,19,female,2020-08-28_13h11.36.764,torte-2b,2020.1.3,MacIntel,60,13439,,,,,,,,,,,,,space,,,,,,5,0.487,,,,,,0,5,5,5,1,,,,,,,,,,,,,,,,,,,,,,,,,,,,,,,,,,,,
,,,,,,,,,,,,,,,,,,,,,,,19,female,2020-08-28_13h11.36.764,torte-2b,2020.1.3,MacIntel,60,13439,,,,,,,,,,,,,,,,,,,3,,,,,,,0,6,6,6,1,,,,,,,,,,,,,,,,,,,,,,,,,,,,,,,,,,,,
,,,,,,,,,,,,,,,,,,,,,,,19,female,2020-08-28_13h11.36.764,torte-2b,2020.1.3,MacIntel,60,13439,,,,,,,,,,,,,,,,,,,4,,,,,,,0,7,7,7,1,,,,,,,,,,,,,,,,,,,,,,,,,,,,,,,,,,,,
,,,,,,,,,,,,,,,,,,,,,,,19,female,2020-08-28_13h11.36.764,torte-2b,2020.1.3,MacIntel,60,13439,,,,,,,,,,,,,space,,,,,,3,0.483,,,,,,0,8,8,8,1,,,,,,,,,,,,,,,,,,,,,,,,,,,,,,,,,,,,
,,,,,,,,,,,,,,,,,,,,,,,19,female,2020-08-28_13h11.36.764,torte-2b,2020.1.3,MacIntel,60,13439,,,,,,,,,,,,,,,,,,,1,,,,,,,0,9,9,9,1,,,,,,,,,,,,,,,,,,,,,,,,,,,,,,,,,,,,
,,,,,,,,,,,,,,,,,,,,,,,19,female,2020-08-28_13h11.36.764,torte-2b,2020.1.3,MacIntel,60,13439,,,,,,,,,,,,,,,,,,,2,,,,,,,0,10,10,10,1,,,,,,,,,,,,,,,,,,,,,,,,,,,,,,,,,,,,
,,,,,,,,,,,,,,,,,,,,,,,19,female,2020-08-28_13h11.36.764,torte-2b,2020.1.3,MacIntel,60,13439,,,,,,,,,,,,,space,,,,,,1,0.478,,,,,,0,11,11,11,1,,,,,,,,,,,,,,,,,,,,,,,,,,,,,,,,,,,,
,,,,,,,,,,,,,,,,,,,,,,,19,female,2020-08-28_13h11.36.764,torte-2b,2020.1.3,MacIntel,60,13439,,,,,,,,,,,,,space,,,,,,2,0.414,,,,,,0,12,12,12,1,,,,,,,,,,,,,,,,,,,,,,,,,,,,,,,,,,,,
,,,,,,,,,,,,,,,,,,,,,,,19,female,2020-08-28_13h11.36.764,torte-2b,2020.1.3,MacIntel,60,13439,,,,,,,,,,,,,space,,,,,,1,0.5,,,,,,0,13,13,13,1,,,,,,,,,,,,,,,,,,,,,,,,,,,,,,,,,,,,
,,,,,,,,,,,,,,,,,,,,,,,19,female,2020-08-28_13h11.36.764,torte-2b,2020.1.3,MacIntel,60,13439,,,,,,,,,,,,,,,,,,,3,,,,,,,0,14,14,14,1,,,,,,,,,,,,,,,,,,,,,,,,,,,,,,,,,,,,
,,,,,,,,,,,,,,,,,,,,,,,19,female,2020-08-28_13h11.36.764,torte-2b,2020.1.3,MacIntel,60,13439,,,,,,,,,,,,,space,,,,,,1,0.528,,,,,,0,15,15,15,1,,,,,,,,,,,,,,,,,,,,,,,,,,,,,,,,,,,,
,,,,,,,,,,,,,,,,,,,,,,,19,female,2020-08-28_13h11.36.764,torte-2b,2020.1.3,MacIntel,60,13439,,,,,,,,,,,,,,,,,,,7,,,,,,,0,16,16,16,1,,,,,,,,,,,,,,,,,,,,,,,,,,,,,,,,,,,,
,,,,,,,,,,,,,,,,,,,,,,,19,female,2020-08-28_13h11.36.764,torte-2b,2020.1.3,MacIntel,60,13439,,,,,,,,,,,,,,,,,,,7,,,,,,,0,17,17,17,1,,,,,,,,,,,,,,,,,,,,,,,,,,,,,,,,,,,,
,,,,,,,,,,,,,,,,,,,,,,,19,female,2020-08-28_13h11.36.764,torte-2b,2020.1.3,MacIntel,60,13439,,,,,,,,,,,,,,,,,,,4,,,,,,,0,18,18,18,1,,,,,,,,,,,,,,,,,,,,,,,,,,,,,,,,,,,,
,,,,,,,,,,,,,,,,,,,,,,,19,female,2020-08-28_13h11.36.764,torte-2b,2020.1.3,MacIntel,60,13439,,,,,,,,,,,,,space,,,,,,7,0.604,,,,,,0,19,19,19,1,,,,,,,,,,,,,,,,,,,,,,,,,,,,,,,,,,,,
,,,,,,,,,,,,,,,,,,,,,,,19,female,2020-08-28_13h11.36.764,torte-2b,2020.1.3,MacIntel,60,13439,,,,,,,,,,,,,,,,,,,3,,,,,,,0,20,20,20,1,,,,,,,,,,,,,,,,,,,,,,,,,,,,,,,,,,,,
,,,,,,,,,,,,,,,,,,,,,,,19,female,2020-08-28_13h11.36.764,torte-2b,2020.1.3,MacIntel,60,13439,,,,,,,,,,,,,space,,,,,,7,0.602,,,,,,0,21,21,21,1,,,,,,,,,,,,,,,,,,,,,,,,,,,,,,,,,,,,
,,,,,,,,,,,,,,,,,,,,,,,19,female,2020-08-28_13h11.36.764,torte-2b,2020.1.3,MacIntel,60,13439,,,,,,,,,,,,,space,,,,,,3,0.344,,,,,,0,22,22,22,1,,,,,,,,,,,,,,,,,,,,,,,,,,,,,,,,,,,,
,,,,,,,,,,,,,,,,,,,,,,,19,female,2020-08-28_13h11.36.764,torte-2b,2020.1.3,MacIntel,60,13439,,,,,,,,,,,,,,,,,,,1,,,,,,,0,23,23,23,1,,,,,,,,,,,,,,,,,,,,,,,,,,,,,,,,,,,,
,,,,,,,,,,,,,,,,,,,,,,,19,female,2020-08-28_13h11.36.764,torte-2b,2020.1.3,MacIntel,60,13439,,,,,,,,,,,,,,,,,,,6,,,,,,,0,24,24,24,1,,,,,,,,,,,,,,,,,,,,,,,,,,,,,,,,,,,,
,,,,,,,,,,,,,,,,,,,,,,,19,female,2020-08-28_13h11.36.764,torte-2b,2020.1.3,MacIntel,60,13439,,,,,,,,,,,,,,,,,,,3,,,,,,,0,25,25,25,1,,,,,,,,,,,,,,,,,,,,,,,,,,,,,,,,,,,,
,,,,,,,,,,,,,,,,,,,,,,,19,female,2020-08-28_13h11.36.764,torte-2b,2020.1.3,MacIntel,60,13439,,,,,,,,,,,,,,,,,,,2,,,,,,,0,26,26,26,1,,,,,,,,,,,,,,,,,,,,,,,,,,,,,,,,,,,,
,,,,,,,,,,,,,,,,,,,,,,,19,female,2020-08-28_13h11.36.764,torte-2b,2020.1.3,MacIntel,60,13439,,,,,,,,,,,,,space,,,,,,3,0.573,,,,,,0,27,27,27,1,,,,,,,,,,,,,,,,,,,,,,,,,,,,,,,,,,,,
,,,,,,,,,,,,,,,,,,,,,,,19,female,2020-08-28_13h11.36.764,torte-2b,2020.1.3,MacIntel,60,13439,,,,,,,,,,,,,,,,,,,1,,,,,,,0,28,28,28,1,,,,,,,,,,,,,,,,,,,,,,,,,,,,,,,,,,,,
,,,,,,,,,,,,,,,,,,,,,,,19,female,2020-08-28_13h11.36.764,torte-2b,2020.1.3,MacIntel,60,13439,,,,,,,,,,,,,space,,,,,,3,0.33,,,,,,0,29,29,29,1,,,,,,,,,,,,,,,,,,,,,,,,,,,,,,,,,,,,
,,,,,,,,,,,,,,,,,,,,,,,19,female,2020-08-28_13h11.36.764,torte-2b,2020.1.3,MacIntel,60,13439,,,,,,,,,,,,,space,,,,,,1,0.354,,,,,,0,30,30,30,1,,,,,,,,,,,,,,,,,,,,,,,,,,,,,,,,,,,,
,,,,,,,,,,,,,,,,,,,,,,,19,female,2020-08-28_13h11.36.764,torte-2b,2020.1.3,MacIntel,60,13439,,,,,,,,,,,,,,,,,,,7,,,,,,,0,31,31,31,1,,,,,,,,,,,,,,,,,,,,,,,,,,,,,,,,,,,,
,,,,,,,,,,,,,,,,,,,,,,,19,female,2020-08-28_13h11.36.764,torte-2b,2020.1.3,MacIntel,60,13439,,,,,,,,,,,,,,,,,,,5,,,,,,,0,32,32,32,1,,,,,,,,,,,,,,,,,,,,,,,,,,,,,,,,,,,,
,,,,,,,,,,,,,,,,,,,,,,,19,female,2020-08-28_13h11.36.764,torte-2b,2020.1.3,MacIntel,60,13439,,,,,,,,,,,,,space,,,,,,7,0.517,,,,,,0,33,33,33,1,,,,,,,,,,,,,,,,,,,,,,,,,,,,,,,,,,,,
,,,,,,,,,,,,,,,,,,,,,,,19,female,2020-08-28_13h11.36.764,torte-2b,2020.1.3,MacIntel,60,13439,,,,,,,,,,,,,,,,,,,2,,,,,,,0,34,34,34,1,,,,,,,,,,,,,,,,,,,,,,,,,,,,,,,,,,,,
,,,,,,,,,,,,,,,,,,,,,,,19,female,2020-08-28_13h11.36.764,torte-2b,2020.1.3,MacIntel,60,13439,,,,,,,,,,,,,,,,,,,3,,,,,,,,,,,,0,0,0,0,1,,,,,,,,,,,,,,,,,,,,,,,,,,,,,,,
,,,,,,,,,,,,,,,,,,,,,,,19,female,2020-08-28_13h11.36.764,torte-2b,2020.1.3,MacIntel,60,13439,,,,,,,,,,,,,,,,,,,7,,,,,,,,,,,,0,1,1,1,1,,,,,,,,,,,,,,,,,,,,,,,,,,,,,,,
,,,,,,,,,,,,,,,,,,,,,,,19,female,2020-08-28_13h11.36.764,torte-2b,2020.1.3,MacIntel,60,13439,,,,,,,,,,,,,,,,,,,7,,,,,,,,,,,,0,2,2,2,1,,,,,,,,,,,,,,,,,,,,,,,,,,,,,,,
,,,,,,,,,,,,,,,,,,,,,,,19,female,2020-08-28_13h11.36.764,torte-2b,2020.1.3,MacIntel,60,13439,,,,,,,,,,,,,,,,,,,4,,,,,,,,,,,,0,3,3,3,1,,,,,,,,,,,,,,,,,,,,,,,,,,,,,,,
,,,,,,,,,,,,,,,,,,,,,,,19,female,2020-08-28_13h11.36.764,torte-2b,2020.1.3,MacIntel,60,13439,,,,,,,,,,,,,,,,,,,5,,,,,,,,,,,,0,4,4,4,1,,,,,,,,,,,,,,,,,,,,,,,,,,,,,,,
,,,,,,,,,,,,,,,,,,,,,,,19,female,2020-08-28_13h11.36.764,torte-2b,2020.1.3,MacIntel,60,13439,,,,,,,,,,,,,space,,,,,,4,0.771,,,,,,,,,,,0,5,5,5,1,,,,,,,,,,,,,,,,,,,,,,,,,,,,,,,
,,,,,,,,,,,,,,,,,,,,,,,19,female,2020-08-28_13h11.36.764,torte-2b,2020.1.3,MacIntel,60,13439,,,,,,,,,,,,,,,,,,,2,,,,,,,,,,,,0,6,6,6,1,,,,,,,,,,,,,,,,,,,,,,,,,,,,,,,
,,,,,,,,,,,,,,,,,,,,,,,19,female,2020-08-28_13h11.36.764,torte-2b,2020.1.3,MacIntel,60,13439,,,,,,,,,,,,,space,,,,,,4,0.329,,,,,,,,,,,0,7,7,7,1,,,,,,,,,,,,,,,,,,,,,,,,,,,,,,,
,,,,,,,,,,,,,,,,,,,,,,,19,female,2020-08-28_13h11.36.764,torte-2b,2020.1.3,MacIntel,60,13439,,,,,,,,,,,,,space,,,,,,2,0.479,,,,,,,,,,,0,8,8,8,1,,,,,,,,,,,,,,,,,,,,,,,,,,,,,,,
,,,,,,,,,,,,,,,,,,,,,,,19,female,2020-08-28_13h11.36.764,torte-2b,2020.1.3,MacIntel,60,13439,,,,,,,,,,,,,space,,,,,,2,0.498,,,,,,,,,,,0,9,9,9,1,,,,,,,,,,,,,,,,,,,,,,,,,,,,,,,
,,,,,,,,,,,,,,,,,,,,,,,19,female,2020-08-28_13h11.36.764,torte-2b,2020.1.3,MacIntel,60,13439,,,,,,,,,,,,,,,,,,,6,,,,,,,,,,,,0,10,10,10,1,,,,,,,,,,,,,,,,,,,,,,,,,,,,,,,
,,,,,,,,,,,,,,,,,,,,,,,19,female,2020-08-28_13h11.36.764,torte-2b,2020.1.3,MacIntel,60,13439,,,,,,,,,,,,,space,,,,,,2,0.346,,,,,,,,,,,0,11,11,11,1,,,,,,,,,,,,,,,,,,,,,,,,,,,,,,,
,,,,,,,,,,,,,,,,,,,,,,,19,female,2020-08-28_13h11.36.764,torte-2b,2020.1.3,MacIntel,60,13439,,,,,,,,,,,,,space,,,,,,2,0.544,,,,,,,,,,,0,12,12,12,1,,,,,,,,,,,,,,,,,,,,,,,,,,,,,,,
,,,,,,,,,,,,,,,,,,,,,,,19,female,2020-08-28_13h11.36.764,torte-2b,2020.1.3,MacIntel,60,13439,,,,,,,,,,,,,space,,,,,,2,0.397,,,,,,,,,,,0,13,13,13,1,,,,,,,,,,,,,,,,,,,,,,,,,,,,,,,
,,,,,,,,,,,,,,,,,,,,,,,19,female,2020-08-28_13h11.36.764,torte-2b,2020.1.3,MacIntel,60,13439,,,,,,,,,,,,,space,,,,,,2,0.726,,,,,,,,,,,0,14,14,14,1,,,,,,,,,,,,,,,,,,,,,,,,,,,,,,,
,,,,,,,,,,,,,,,,,,,,,,,19,female,2020-08-28_13h11.36.764,torte-2b,2020.1.3,MacIntel,60,13439,,,,,,,,,,,,,,,,,,,4,,,,,,,,,,,,0,15,15,15,1,,,,,,,,,,,,,,,,,,,,,,,,,,,,,,,
,,,,,,,,,,,,,,,,,,,,,,,19,female,2020-08-28_13h11.36.764,torte-2b,2020.1.3,MacIntel,60,13439,,,,,,,,,,,,,space,,,,,,3,0.581,,,,,,,,,,,0,16,16,16,1,,,,,,,,,,,,,,,,,,,,,,,,,,,,,,,
,,,,,,,,,,,,,,,,,,,,,,,19,female,2020-08-28_13h11.36.764,torte-2b,2020.1.3,MacIntel,60,13439,,,,,,,,,,,,,,,,,,,7,,,,,,,,,,,,0,17,17,17,1,,,,,,,,,,,,,,,,,,,,,,,,,,,,,,,
,,,,,,,,,,,,,,,,,,,,,,,19,female,2020-08-28_13h11.36.764,torte-2b,2020.1.3,MacIntel,60,13439,,,,,,,,,,,,,,,,,,,4,,,,,,,,,,,,0,18,18,18,1,,,,,,,,,,,,,,,,,,,,,,,,,,,,,,,
,,,,,,,,,,,,,,,,,,,,,,,19,female,2020-08-28_13h11.36.764,torte-2b,2020.1.3,MacIntel,60,13439,,,,,,,,,,,,,space,,,,,,7,0.919,,,,,,,,,,,0,19,19,19,1,,,,,,,,,,,,,,,,,,,,,,,,,,,,,,,
,,,,,,,,,,,,,,,,,,,,,,,19,female,2020-08-28_13h11.36.764,torte-2b,2020.1.3,MacIntel,60,13439,,,,,,,,,,,,,space,,,,,,7,0.529,,,,,,,,,,,0,20,20,20,1,,,,,,,,,,,,,,,,,,,,,,,,,,,,,,,
,,,,,,,,,,,,,,,,,,,,,,,19,female,2020-08-28_13h11.36.764,torte-2b,2020.1.3,MacIntel,60,13439,,,,,,,,,,,,,space,,,,,,7,0.362,,,,,,,,,,,0,21,21,21,1,,,,,,,,,,,,,,,,,,,,,,,,,,,,,,,
,,,,,,,,,,,,,,,,,,,,,,,19,female,2020-08-28_13h11.36.764,torte-2b,2020.1.3,MacIntel,60,13439,,,,,,,,,,,,,space,,,,,,7,0.533,,,,,,,,,,,0,22,22,22,1,,,,,,,,,,,,,,,,,,,,,,,,,,,,,,,
,,,,,,,,,,,,,,,,,,,,,,,19,female,2020-08-28_13h11.36.764,torte-2b,2020.1.3,MacIntel,60,13439,,,,,,,,,,,,,,,,,,,1,,,,,,,,,,,,0,23,23,23,1,,,,,,,,,,,,,,,,,,,,,,,,,,,,,,,
,,,,,,,,,,,,,,,,,,,,,,,19,female,2020-08-28_13h11.36.764,torte-2b,2020.1.3,MacIntel,60,13439,,,,,,,,,,,,,space,,,,,,7,0.37,,,,,,,,,,,0,24,24,24,1,,,,,,,,,,,,,,,,,,,,,,,,,,,,,,,
,,,,,,,,,,,,,,,,,,,,,,,19,female,2020-08-28_13h11.36.764,torte-2b,2020.1.3,MacIntel,60,13439,,,,,,,,,,,,,space,,,,,,1,0.464,,,,,,,,,,,0,25,25,25,1,,,,,,,,,,,,,,,,,,,,,,,,,,,,,,,
,,,,,,,,,,,,,,,,,,,,,,,19,female,2020-08-28_13h11.36.764,torte-2b,2020.1.3,MacIntel,60,13439,,,,,,,,,,,,,space,,,,,,7,0.593,,,,,,,,,,,0,26,26,26,1,,,,,,,,,,,,,,,,,,,,,,,,,,,,,,,
,,,,,,,,,,,,,,,,,,,,,,,19,female,2020-08-28_13h11.36.764,torte-2b,2020.1.3,MacIntel,60,13439,,,,,,,,,,,,,,,,,,,2,,,,,,,,,,,,0,27,27,27,1,,,,,,,,,,,,,,,,,,,,,,,,,,,,,,,
,,,,,,,,,,,,,,,,,,,,,,,19,female,2020-08-28_13h11.36.764,torte-2b,2020.1.3,MacIntel,60,13439,,,,,,,,,,,,,,,,,,,5,,,,,,,,,,,,0,28,28,28,1,,,,,,,,,,,,,,,,,,,,,,,,,,,,,,,
,,,,,,,,,,,,,,,,,,,,,,,19,female,2020-08-28_13h11.36.764,torte-2b,2020.1.3,MacIntel,60,13439,,,,,,,,,,,,,,,,,,,5,,,,,,,,,,,,0,29,29,29,1,,,,,,,,,,,,,,,,,,,,,,,,,,,,,,,
,,,,,,,,,,,,,,,,,,,,,,,19,female,2020-08-28_13h11.36.764,torte-2b,2020.1.3,MacIntel,60,13439,,,,,,,,,,,,,space,,,,,,5,0.37,,,,,,,,,,,0,30,30,30,1,,,,,,,,,,,,,,,,,,,,,,,,,,,,,,,
,,,,,,,,,,,,,,,,,,,,,,,19,female,2020-08-28_13h11.36.764,torte-2b,2020.1.3,MacIntel,60,13439,,,,,,,,,,,,,,,,,,,1,,,,,,,,,,,,0,31,31,31,1,,,,,,,,,,,,,,,,,,,,,,,,,,,,,,,
,,,,,,,,,,,,,,,,,,,,,,,19,female,2020-08-28_13h11.36.764,torte-2b,2020.1.3,MacIntel,60,13439,,,,,,,,,,,,,space,,,,,,5,0.413,,,,,,,,,,,0,32,32,32,1,,,,,,,,,,,,,,,,,,,,,,,,,,,,,,,
,,,,,,,,,,,,,,,,,,,,,,,19,female,2020-08-28_13h11.36.764,torte-2b,2020.1.3,MacIntel,60,13439,,,,,,,,,,,,,,,,,,,3,,,,,,,,,,,,0,33,33,33,1,,,,,,,,,,,,,,,,,,,,,,,,,,,,,,,
,,,,,,,,,,,,,,,,,,,,,,,19,female,2020-08-28_13h11.36.764,torte-2b,2020.1.3,MacIntel,60,13439,,,,,,,,,,,,,space,,,,,,3,0.538,,,,,,,,,,,0,34,34,34,1,,,,,,,,,,,,,,,,,,,,,,,,,,,,,,,
,,,,,,,,,,,,,Too slow :(,,,,,,t3.png,t1.png,2,0.0565,19,female,2020-08-28_13h11.36.764,torte-2b,2020.1.3,MacIntel,60,13439,,space,0.816,,,,,,,,,,,,,,,,,,,,,,,,,,,,,,,,,space,9.129,0,0,0,31,1,,,,,,,,,,,,,,,,,,,,,,,,
,,,,,,,,,,,,a,Correct!,,,,,,t5.png,t4.png,1,0.90025,19,female,2020-08-28_13h11.36.764,torte-2b,2020.1.3,MacIntel,60,13439,1.939,,,,,,,,,,,,,,,,,,,,,,,,,,,,,,,,,,,,,0,1,1,27,1,,,,,,,,,,,,,,,,,,,,,,,,
,,,,,,,,,,,,l,Incorrect,,,,,,t1.png,t1.png,0,0.97829,19,female,2020-08-28_13h11.36.764,torte-2b,2020.1.3,MacIntel,60,13439,2.048,,,,,,,,,,,,,,,,,,,,,,,,,,,,,,,,,,,,,0,2,2,9,1,,,,,,,,,,,,,,,,,,,,,,,,
,,,,,,,,,,,,l,Correct!,,,,,,t3.png,t5.png,2,0.0565,19,female,2020-08-28_13h11.36.764,torte-2b,2020.1.3,MacIntel,60,13439,0.951,,,,,,,,,,,,,,,,,,,,,,,,,,,,,,,,,,,,,0,3,3,30,1,,,,,,,,,,,,,,,,,,,,,,,,
,,,,,,,,,,,,l,Incorrect,,,,,,t2.png,t3.png,1,0.90855,19,female,2020-08-28_13h11.36.764,torte-2b,2020.1.3,MacIntel,60,13439,1.338,,,,,,,,,,,,,,,,,,,,,,,,,,,,,,,,,,,,,0,4,4,68,1,,,,,,,,,,,,,,,,,,,,,,,,
,,,,,,,,,,,,a,Correct!,,,,,,t4.png,t3.png,1,0.90855,19,female,2020-08-28_13h11.36.764,torte-2b,2020.1.3,MacIntel,60,13439,1.075,,,,,,,,,,,,,,,,,,,,,,,,,,,,,,,,,,,,,0,5,5,75,1,,,,,,,,,,,,,,,,,,,,,,,,
,,,,,,,,,,,,l,Incorrect,,,,,,t4.png,t5.png,1,0.90025,19,female,2020-08-28_13h11.36.764,torte-2b,2020.1.3,MacIntel,60,13439,0.853,,,,,,,,,,,,,,,,,,,,,,,,,,,,,,,,,,,,,0,6,6,58,1,,,,,,,,,,,,,,,,,,,,,,,,
,,,,,,,,,,,,l,Correct!,,,,,,t5.png,t2.png,3,0.0000131,19,female,2020-08-28_13h11.36.764,torte-2b,2020.1.3,MacIntel,60,13439,0.956,,,,,,,,,,,,,,,,,,,,,,,,,,,,,,,,,,,,,0,7,7,119,1,,,,,,,,,,,,,,,,,,,,,,,,
,,,,,,,,,,,,l,Correct!,,,,,,t4.png,t2.png,2,0.059078,19,female,2020-08-28_13h11.36.764,torte-2b,2020.1.3,MacIntel,60,13439,0.93,,,,,,,,,,,,,,,,,,,,,,,,,,,,,,,,,,,,,0,8,8,86,1,,,,,,,,,,,,,,,,,,,,,,,,
,,,,,,,,,,,,a,Correct!,,,,,,t2.png,t2.png,0,0.98115,19,female,2020-08-28_13h11.36.764,torte-2b,2020.1.3,MacIntel,60,13439,0.868,,,,,,,,,,,,,,,,,,,,,,,,,,,,,,,,,,,,,0,9,9,7,1,,,,,,,,,,,,,,,,,,,,,,,,
,,,,,,,,,,,,l,Correct!,,,,,,t2.png,t4.png,2,0.0591,19,female,2020-08-28_13h11.36.764,torte-2b,2020.1.3,MacIntel,60,13439,0.606,,,,,,,,,,,,,,,,,,,,,,,,,,,,,,,,,,,,,0,10,10,15,1,,,,,,,,,,,,,,,,,,,,,,,,
,,,,,,,,,,,,l,Incorrect,,,,,,t5.png,t5.png,0,0.97829,19,female,2020-08-28_13h11.36.764,torte-2b,2020.1.3,MacIntel,60,13439,0.683,,,,,,,,,,,,,,,,,,,,,,,,,,,,,,,,,,,,,0,11,11,70,1,,,,,,,,,,,,,,,,,,,,,,,,
,,,,,,,,,,,,l,Correct!,,,,,,t4.png,t1.png,3,0.0000131,19,female,2020-08-28_13h11.36.764,torte-2b,2020.1.3,MacIntel,60,13439,1.197,,,,,,,,,,,,,,,,,,,,,,,,,,,,,,,,,,,,,0,12,12,93,1,,,,,,,,,,,,,,,,,,,,,,,,
,,,,,,,,,,,,l,Incorrect,,,,,,t5.png,t5.png,0,0.978,19,female,2020-08-28_13h11.36.764,torte-2b,2020.1.3,MacIntel,60,13439,0.882,,,,,,,,,,,,,,,,,,,,,,,,,,,,,,,,,,,,,0,13,13,117,1,,,,,,,,,,,,,,,,,,,,,,,,
,,,,,,,,,,,,a,Incorrect,,,,,,t4.png,t3.png,1,0.909,19,female,2020-08-28_13h11.36.764,torte-2b,2020.1.3,MacIntel,60,13439,0.761,,,,,,,,,,,,,,,,,,,,,,,,,,,,,,,,,,,,,0,14,14,20,1,,,,,,,,,,,,,,,,,,,,,,,,
,,,,,,,,,,,,l,Correct!,,,,,,t3.png,t5.png,2,0.056466,19,female,2020-08-28_13h11.36.764,torte-2b,2020.1.3,MacIntel,60,13439,0.749,,,,,,,,,,,,,,,,,,,,,,,,,,,,,,,,,,,,,0,15,15,6,1,,,,,,,,,,,,,,,,,,,,,,,,
,,,,,,,,,,,,a,Incorrect,,,,,,t5.png,t1.png,4,9.55E-11,19,female,2020-08-28_13h11.36.764,torte-2b,2020.1.3,MacIntel,60,13439,0.902,,,,,,,,,,,,,,,,,,,,,,,,,,,,,,,,,,,,,0,16,16,100,1,,,,,,,,,,,,,,,,,,,,,,,,
,,,,,,,,,,,,l,Correct!,,,,,,t1.png,t5.png,4,9.55E-11,19,female,2020-08-28_13h11.36.764,torte-2b,2020.1.3,MacIntel,60,13439,0.651,,,,,,,,,,,,,,,,,,,,,,,,,,,,,,,,,,,,,0,17,17,12,1,,,,,,,,,,,,,,,,,,,,,,,,
,,,,,,,,,,,,l,Correct!,,,,,,t1.png,t4.png,3,0.0000131,19,female,2020-08-28_13h11.36.764,torte-2b,2020.1.3,MacIntel,60,13439,0.713,,,,,,,,,,,,,,,,,,,,,,,,,,,,,,,,,,,,,0,18,18,92,1,,,,,,,,,,,,,,,,,,,,,,,,
,,,,,,,,,,,,l,Correct!,,,,,,t5.png,t4.png,1,0.90025,19,female,2020-08-28_13h11.36.764,torte-2b,2020.1.3,MacIntel,60,13439,0.733,,,,,,,,,,,,,,,,,,,,,,,,,,,,,,,,,,,,,0,19,19,34,1,,,,,,,,,,,,,,,,,,,,,,,,
,,,,,,,,,,,,a,Correct!,,,,,,t3.png,t2.png,1,0.90855,19,female,2020-08-28_13h11.36.764,torte-2b,2020.1.3,MacIntel,60,13439,0.989,,,,,,,,,,,,,,,,,,,,,,,,,,,,,,,,,,,,,0,20,20,53,1,,,,,,,,,,,,,,,,,,,,,,,,
,,,,,,,,,,,,l,Correct!,,,,,,t4.png,t2.png,2,0.0591,19,female,2020-08-28_13h11.36.764,torte-2b,2020.1.3,MacIntel,60,13439,1.014,,,,,,,,,,,,,,,,,,,,,,,,,,,,,,,,,,,,,0,21,21,36,1,,,,,,,,,,,,,,,,,,,,,,,,
,,,,,,,,,,,,l,Incorrect,,,,,,t2.png,t1.png,1,0.90025,19,female,2020-08-28_13h11.36.764,torte-2b,2020.1.3,MacIntel,60,13439,0.849,,,,,,,,,,,,,,,,,,,,,,,,,,,,,,,,,,,,,0,22,22,19,1,,,,,,,,,,,,,,,,,,,,,,,,
,,,,,,,,,,,,a,Correct!,,,,,,t2.png,t3.png,1,0.90855,19,female,2020-08-28_13h11.36.764,torte-2b,2020.1.3,MacIntel,60,13439,1.448,,,,,,,,,,,,,,,,,,,,,,,,,,,,,,,,,,,,,0,23,23,10,1,,,,,,,,,,,,,,,,,,,,,,,,
,,,,,,,,,,,,l,Correct!,,,,,,t2.png,t4.png,2,0.059078,19,female,2020-08-28_13h11.36.764,torte-2b,2020.1.3,MacIntel,60,13439,0.636,,,,,,,,,,,,,,,,,,,,,,,,,,,,,,,,,,,,,0,24,24,37,1,,,,,,,,,,,,,,,,,,,,,,,,
,,,,,,,,,,,,l,Correct!,,,,,,t4.png,t1.png,3,0.0000131,19,female,2020-08-28_13h11.36.764,torte-2b,2020.1.3,MacIntel,60,13439,1.248,,,,,,,,,,,,,,,,,,,,,,,,,,,,,,,,,,,,,0,25,25,42,1,,,,,,,,,,,,,,,,,,,,,,,,
,,,,,,,,,,,,l,Correct!,,,,,,t2.png,t4.png,2,0.059078,19,female,2020-08-28_13h11.36.764,torte-2b,2020.1.3,MacIntel,60,13439,0.937,,,,,,,,,,,,,,,,,,,,,,,,,,,,,,,,,,,,,0,26,26,77,1,,,,,,,,,,,,,,,,,,,,,,,,
,,,,,,,,,,,,a,Correct!,,,,,,t2.png,t2.png,0,0.98115,19,female,2020-08-28_13h11.36.764,torte-2b,2020.1.3,MacIntel,60,13439,0.753,,,,,,,,,,,,,,,,,,,,,,,,,,,,,,,,,,,,,0,27,27,59,1,,,,,,,,,,,,,,,,,,,,,,,,
,,,,,,,,,,,,l,Incorrect,,,,,,t2.png,t4.png,2,0.059078,19,female,2020-08-28_13h11.36.764,torte-2b,2020.1.3,MacIntel,60,13439,0.715,,,,,,,,,,,,,,,,,,,,,,,,,,,,,,,,,,,,,0,28,28,24,1,,,,,,,,,,,,,,,,,,,,,,,,
,,,,,,,,,,,,l,Correct!,,,,,,t4.png,t2.png,2,0.059078,19,female,2020-08-28_13h11.36.764,torte-2b,2020.1.3,MacIntel,60,13439,0.625,,,,,,,,,,,,,,,,,,,,,,,,,,,,,,,,,,,,,0,29,29,109,1,,,,,,,,,,,,,,,,,,,,,,,,
,,,,,,,,,,,,l,Correct!,,,,,,t5.png,t4.png,1,0.9,19,female,2020-08-28_13h11.36.764,torte-2b,2020.1.3,MacIntel,60,13439,0.765,,,,,,,,,,,,,,,,,,,,,,,,,,,,,,,,,,,,,0,30,30,49,1,,,,,,,,,,,,,,,,,,,,,,,,
,,,,,,,,,,,,l,Correct!,,,,,,t4.png,t1.png,3,0.0000131,19,female,2020-08-28_13h11.36.764,torte-2b,2020.1.3,MacIntel,60,13439,1.094,,,,,,,,,,,,,,,,,,,,,,,,,,,,,,,,,,,,,0,31,31,13,1,,,,,,,,,,,,,,,,,,,,,,,,
,,,,,,,,,,,,l,Correct!,,,,,,t3.png,t5.png,2,0.056466,19,female,2020-08-28_13h11.36.764,torte-2b,2020.1.3,MacIntel,60,13439,0.916,,,,,,,,,,,,,,,,,,,,,,,,,,,,,,,,,,,,,0,32,32,14,1,,,,,,,,,,,,,,,,,,,,,,,,
,,,,,,,,,,,,a,Correct!,,,,,,t1.png,t2.png,1,0.90025,19,female,2020-08-28_13h11.36.764,torte-2b,2020.1.3,MacIntel,60,13439,0.947,,,,,,,,,,,,,,,,,,,,,,,,,,,,,,,,,,,,,0,33,33,112,1,,,,,,,,,,,,,,,,,,,,,,,,
,,,,,,,,,,,,l,Correct!,,,,,,t5.png,t3.png,2,0.056466,19,female,2020-08-28_13h11.36.764,torte-2b,2020.1.3,MacIntel,60,13439,0.821,,,,,,,,,,,,,,,,,,,,,,,,,,,,,,,,,,,,,0,34,34,108,1,,,,,,,,,,,,,,,,,,,,,,,,
,,,,,,,,,,,,l,Incorrect,,,,,,t4.png,t4.png,0,0.98115,19,female,2020-08-28_13h11.36.764,torte-2b,2020.1.3,MacIntel,60,13439,1.258,,,,,,,,,,,,,,,,,,,,,,,,,,,,,,,,,,,,,0,35,35,52,1,,,,,,,,,,,,,,,,,,,,,,,,
,,,,,,,,,,,,a,Incorrect,,,,,,t2.png,t5.png,3,0.0000131,19,female,2020-08-28_13h11.36.764,torte-2b,2020.1.3,MacIntel,60,13439,1.334,,,,,,,,,,,,,,,,,,,,,,,,,,,,,,,,,,,,,0,36,36,66,1,,,,,,,,,,,,,,,,,,,,,,,,
,,,,,,,,,,,,a,Correct!,,,,,,t1.png,t2.png,1,0.9,19,female,2020-08-28_13h11.36.764,torte-2b,2020.1.3,MacIntel,60,13439,0.83,,,,,,,,,,,,,,,,,,,,,,,,,,,,,,,,,,,,,0,37,37,1,1,,,,,,,,,,,,,,,,,,,,,,,,
,,,,,,,,,,,,l,Correct!,,,,,,t1.png,t5.png,4,9.55E-11,19,female,2020-08-28_13h11.36.764,torte-2b,2020.1.3,MacIntel,60,13439,1.155,,,,,,,,,,,,,,,,,,,,,,,,,,,,,,,,,,,,,0,38,38,16,1,,,,,,,,,,,,,,,,,,,,,,,,
,,,,,,,,,,,,l,Correct!,,,,,,t3.png,t4.png,1,0.90855,19,female,2020-08-28_13h11.36.764,torte-2b,2020.1.3,MacIntel,60,13439,1.358,,,,,,,,,,,,,,,,,,,,,,,,,,,,,,,,,,,,,0,39,39,84,1,,,,,,,,,,,,,,,,,,,,,,,,
,,,,,,,,,,,,a,Correct!,,,,,,t1.png,t1.png,0,0.978,19,female,2020-08-28_13h11.36.764,torte-2b,2020.1.3,MacIntel,60,13439,0.814,,,,,,,,,,,,,,,,,,,,,,,,,,,,,,,,,,,,,0,40,40,28,1,,,,,,,,,,,,,,,,,,,,,,,,
,,,,,,,,,,,,a,Correct!,,,,,,t4.png,t4.png,0,0.98115,19,female,2020-08-28_13h11.36.764,torte-2b,2020.1.3,MacIntel,60,13439,1.598,,,,,,,,,,,,,,,,,,,,,,,,,,,,,,,,,,,,,0,41,41,80,1,,,,,,,,,,,,,,,,,,,,,,,,
,,,,,,,,,,,,l,Incorrect,,,,,,t4.png,t5.png,1,0.9,19,female,2020-08-28_13h11.36.764,torte-2b,2020.1.3,MacIntel,60,13439,1.232,,,,,,,,,,,,,,,,,,,,,,,,,,,,,,,,,,,,,0,42,42,115,1,,,,,,,,,,,,,,,,,,,,,,,,
,,,,,,,,,,,,l,Correct!,,,,,,t5.png,t3.png,2,0.056466,19,female,2020-08-28_13h11.36.764,torte-2b,2020.1.3,MacIntel,60,13439,1.691,,,,,,,,,,,,,,,,,,,,,,,,,,,,,,,,,,,,,0,43,43,38,1,,,,,,,,,,,,,,,,,,,,,,,,
,,,,,,,,,,,,l,Correct!,,,,,,t1.png,t5.png,4,9.55E-11,19,female,2020-08-28_13h11.36.764,torte-2b,2020.1.3,MacIntel,60,13439,0.941,,,,,,,,,,,,,,,,,,,,,,,,,,,,,,,,,,,,,0,44,44,85,1,,,,,,,,,,,,,,,,,,,,,,,,
,,,,,,,,,,,,l,Correct!,,,,,,t2.png,t5.png,3,0.0000131,19,female,2020-08-28_13h11.36.764,torte-2b,2020.1.3,MacIntel,60,13439,0.916,,,,,,,,,,,,,,,,,,,,,,,,,,,,,,,,,,,,,0,45,45,95,1,,,,,,,,,,,,,,,,,,,,,,,,
,,,,,,,,,,,,a,Correct!,,,,,,t2.png,t3.png,1,0.90855,19,female,2020-08-28_13h11.36.764,torte-2b,2020.1.3,MacIntel,60,13439,0.793,,,,,,,,,,,,,,,,,,,,,,,,,,,,,,,,,,,,,0,46,46,65,1,,,,,,,,,,,,,,,,,,,,,,,,
,,,,,,,,,,,,l,Incorrect,,,,,,t4.png,t4.png,0,0.98115,19,female,2020-08-28_13h11.36.764,torte-2b,2020.1.3,MacIntel,60,13439,0.765,,,,,,,,,,,,,,,,,,,,,,,,,,,,,,,,,,,,,0,47,47,90,1,,,,,,,,,,,,,,,,,,,,,,,,
,,,,,,,,,,,,a,Correct!,,,,,,t3.png,t2.png,1,0.90855,19,female,2020-08-28_13h11.36.764,torte-2b,2020.1.3,MacIntel,60,13439,1.024,,,,,,,,,,,,,,,,,,,,,,,,,,,,,,,,,,,,,0,48,48,97,1,,,,,,,,,,,,,,,,,,,,,,,,
,,,,,,,,,,,,l,Correct!,,,,,,t5.png,t1.png,4,9.55E-11,19,female,2020-08-28_13h11.36.764,torte-2b,2020.1.3,MacIntel,60,13439,1.039,,,,,,,,,,,,,,,,,,,,,,,,,,,,,,,,,,,,,0,49,49,71,1,,,,,,,,,,,,,,,,,,,,,,,,
,,,,,,,,,,,,l,Incorrect,,,,,,t2.png,t2.png,0,0.98115,19,female,2020-08-28_13h11.36.764,torte-2b,2020.1.3,MacIntel,60,13439,1.047,,,,,,,,,,,,,,,,,,,,,,,,,,,,,,,,,,,,,0,50,50,2,1,,,,,,,,,,,,,,,,,,,,,,,,
,,,,,,,,,,,,l,Correct!,,,,,,t2.png,t5.png,3,0.0000131,19,female,2020-08-28_13h11.36.764,torte-2b,2020.1.3,MacIntel,60,13439,1.091,,,,,,,,,,,,,,,,,,,,,,,,,,,,,,,,,,,,,0,51,51,40,1,,,,,,,,,,,,,,,,,,,,,,,,
,,,,,,,,,,,,l,Correct!,,,,,,t5.png,t2.png,3,0.0000131,19,female,2020-08-28_13h11.36.764,torte-2b,2020.1.3,MacIntel,60,13439,0.888,,,,,,,,,,,,,,,,,,,,,,,,,,,,,,,,,,,,,0,52,52,91,1,,,,,,,,,,,,,,,,,,,,,,,,
,,,,,,,,,,,,l,Correct!,,,,,,t1.png,t4.png,3,0.0000131,19,female,2020-08-28_13h11.36.764,torte-2b,2020.1.3,MacIntel,60,13439,1.314,,,,,,,,,,,,,,,,,,,,,,,,,,,,,,,,,,,,,0,53,53,107,1,,,,,,,,,,,,,,,,,,,,,,,,
,,,,,,,,,,,,l,Correct!,,,,,,t5.png,t2.png,3,0.0000131,19,female,2020-08-28_13h11.36.764,torte-2b,2020.1.3,MacIntel,60,13439,0.831,,,,,,,,,,,,,,,,,,,,,,,,,,,,,,,,,,,,,0,54,54,98,1,,,,,,,,,,,,,,,,,,,,,,,,
,,,,,,,,,,,,a,Incorrect,,,,,,t1.png,t3.png,2,0.056466,19,female,2020-08-28_13h11.36.764,torte-2b,2020.1.3,MacIntel,60,13439,1.564,,,,,,,,,,,,,,,,,,,,,,,,,,,,,,,,,,,,,0,55,55,99,1,,,,,,,,,,,,,,,,,,,,,,,,
,,,,,,,,,,,,a,Correct!,,,,,,t2.png,t1.png,1,0.9,19,female,2020-08-28_13h11.36.764,torte-2b,2020.1.3,MacIntel,60,13439,1.088,,,,,,,,,,,,,,,,,,,,,,,,,,,,,,,,,,,,,0,56,56,118,1,,,,,,,,,,,,,,,,,,,,,,,,
,,,,,,,,,,,,l,Incorrect,,,,,,t3.png,t4.png,1,0.909,19,female,2020-08-28_13h11.36.764,torte-2b,2020.1.3,MacIntel,60,13439,1.329,,,,,,,,,,,,,,,,,,,,,,,,,,,,,,,,,,,,,0,57,57,89,1,,,,,,,,,,,,,,,,,,,,,,,,
,,,,,,,,,,,,a,Correct!,,,,,,t3.png,t4.png,1,0.909,19,female,2020-08-28_13h11.36.764,torte-2b,2020.1.3,MacIntel,60,13439,1.298,,,,,,,,,,,,,,,,,,,,,,,,,,,,,,,,,,,,,0,58,58,82,1,,,,,,,,,,,,,,,,,,,,,,,,
,,,,,,,,,,,,l,Incorrect,,,,,,t4.png,t4.png,0,0.98115,19,female,2020-08-28_13h11.36.764,torte-2b,2020.1.3,MacIntel,60,13439,0.92,,,,,,,,,,,,,,,,,,,,,,,,,,,,,,,,,,,,,0,59,59,79,1,,,,,,,,,,,,,,,,,,,,,,,,
,,,,,,,,,,,,a,Correct!,,,,,,t2.png,t2.png,0,0.981,19,female,2020-08-28_13h11.36.764,torte-2b,2020.1.3,MacIntel,60,13439,0.872,,,,,,,,,,,,,,,,,,,,,,,,,,,,,,,,,,,,,0,60,60,101,1,,,,,,,,,,,,,,,,,,,,,,,,
,,,,,,,,,,,,a,Correct!,,,,,,t1.png,t1.png,0,0.97829,19,female,2020-08-28_13h11.36.764,torte-2b,2020.1.3,MacIntel,60,13439,0.698,,,,,,,,,,,,,,,,,,,,,,,,,,,,,,,,,,,,,0,61,61,78,1,,,,,,,,,,,,,,,,,,,,,,,,
,,,,,,,,,,,,a,Incorrect,,,,,,t1.png,t3.png,2,0.056466,19,female,2020-08-28_13h11.36.764,torte-2b,2020.1.3,MacIntel,60,13439,0.864,,,,,,,,,,,,,,,,,,,,,,,,,,,,,,,,,,,,,0,62,62,87,1,,,,,,,,,,,,,,,,,,,,,,,,
,,,,,,,,,,,,l,Incorrect,,,,,,t4.png,t5.png,1,0.90025,19,female,2020-08-28_13h11.36.764,torte-2b,2020.1.3,MacIntel,60,13439,0.685,,,,,,,,,,,,,,,,,,,,,,,,,,,,,,,,,,,,,0,63,63,103,1,,,,,,,,,,,,,,,,,,,,,,,,
,,,,,,,,,,,,a,Incorrect,,,,,,t1.png,t4.png,3,0.0000131,19,female,2020-08-28_13h11.36.764,torte-2b,2020.1.3,MacIntel,60,13439,0.813,,,,,,,,,,,,,,,,,,,,,,,,,,,,,,,,,,,,,0,64,64,50,1,,,,,,,,,,,,,,,,,,,,,,,,
,,,,,,,,,,,,a,Correct!,,,,,,t2.png,t1.png,1,0.90025,19,female,2020-08-28_13h11.36.764,torte-2b,2020.1.3,MacIntel,60,13439,0.833,,,,,,,,,,,,,,,,,,,,,,,,,,,,,,,,,,,,,0,65,65,62,1,,,,,,,,,,,,,,,,,,,,,,,,
,,,,,,,,,,,,a,Incorrect,,,,,,t1.png,t3.png,2,0.056466,19,female,2020-08-28_13h11.36.764,torte-2b,2020.1.3,MacIntel,60,13439,0.823,,,,,,,,,,,,,,,,,,,,,,,,,,,,,,,,,,,,,0,66,66,60,1,,,,,,,,,,,,,,,,,,,,,,,,
,,,,,,,,,,,,l,Correct!,,,,,,t4.png,t2.png,2,0.059078,19,female,2020-08-28_13h11.36.764,torte-2b,2020.1.3,MacIntel,60,13439,0.764,,,,,,,,,,,,,,,,,,,,,,,,,,,,,,,,,,,,,0,67,67,110,1,,,,,,,,,,,,,,,,,,,,,,,,
,,,,,,,,,,,,l,Incorrect,,,,,,t4.png,t3.png,1,0.90855,19,female,2020-08-28_13h11.36.764,torte-2b,2020.1.3,MacIntel,60,13439,0.989,,,,,,,,,,,,,,,,,,,,,,,,,,,,,,,,,,,,,0,68,68,45,1,,,,,,,,,,,,,,,,,,,,,,,,
,,,,,,,,,,,,l,Incorrect,,,,,,t5.png,t5.png,0,0.97829,19,female,2020-08-28_13h11.36.764,torte-2b,2020.1.3,MacIntel,60,13439,0.617,,,,,,,,,,,,,,,,,,,,,,,,,,,,,,,,,,,,,0,69,69,94,1,,,,,,,,,,,,,,,,,,,,,,,,
,,,,,,,,,,,,a,Correct!,,,,,,t2.png,t3.png,1,0.909,19,female,2020-08-28_13h11.36.764,torte-2b,2020.1.3,MacIntel,60,13439,1.121,,,,,,,,,,,,,,,,,,,,,,,,,,,,,,,,,,,,,0,70,70,74,1,,,,,,,,,,,,,,,,,,,,,,,,
,,,,,,,,,,,,l,Incorrect,,,,,,t5.png,t5.png,0,0.97829,19,female,2020-08-28_13h11.36.764,torte-2b,2020.1.3,MacIntel,60,13439,0.541,,,,,,,,,,,,,,,,,,,,,,,,,,,,,,,,,,,,,0,71,71,73,1,,,,,,,,,,,,,,,,,,,,,,,,
,,,,,,,,,,,,a,Correct!,,,,,,t1.png,t2.png,1,0.90025,19,female,2020-08-28_13h11.36.764,torte-2b,2020.1.3,MacIntel,60,13439,0.732,,,,,,,,,,,,,,,,,,,,,,,,,,,,,,,,,,,,,0,72,72,33,1,,,,,,,,,,,,,,,,,,,,,,,,
,,,,,,,,,,,,a,Correct!,,,,,,t2.png,t2.png,0,0.98115,19,female,2020-08-28_13h11.36.764,torte-2b,2020.1.3,MacIntel,60,13439,1.023,,,,,,,,,,,,,,,,,,,,,,,,,,,,,,,,,,,,,0,73,73,57,1,,,,,,,,,,,,,,,,,,,,,,,,
,,,,,,,,,,,,l,Incorrect,,,,,,t4.png,t5.png,1,0.90025,19,female,2020-08-28_13h11.36.764,torte-2b,2020.1.3,MacIntel,60,13439,0.565,,,,,,,,,,,,,,,,,,,,,,,,,,,,,,,,,,,,,0,74,74,47,1,,,,,,,,,,,,,,,,,,,,,,,,
,,,,,,,,,,,,l,Correct!,,,,,,t3.png,t2.png,1,0.90855,19,female,2020-08-28_13h11.36.764,torte-2b,2020.1.3,MacIntel,60,13439,1.669,,,,,,,,,,,,,,,,,,,,,,,,,,,,,,,,,,,,,0,75,75,18,1,,,,,,,,,,,,,,,,,,,,,,,,
,,,,,,,,,,,,a,Incorrect,,,,,,t1.png,t4.png,3,0.0000131,19,female,2020-08-28_13h11.36.764,torte-2b,2020.1.3,MacIntel,60,13439,1.388,,,,,,,,,,,,,,,,,,,,,,,,,,,,,,,,,,,,,0,76,76,81,1,,,,,,,,,,,,,,,,,,,,,,,,
,,,,,,,,,,,,l,Incorrect,,,,,,t2.png,t3.png,1,0.90855,19,female,2020-08-28_13h11.36.764,torte-2b,2020.1.3,MacIntel,60,13439,0.956,,,,,,,,,,,,,,,,,,,,,,,,,,,,,,,,,,,,,0,77,77,111,1,,,,,,,,,,,,,,,,,,,,,,,,
,,,,,,,,,,,,l,Incorrect,,,,,,t4.png,t3.png,1,0.90855,19,female,2020-08-28_13h11.36.764,torte-2b,2020.1.3,MacIntel,60,13439,0.857,,,,,,,,,,,,,,,,,,,,,,,,,,,,,,,,,,,,,0,78,78,35,1,,,,,,,,,,,,,,,,,,,,,,,,
,,,,,,,,,,,,l,Correct!,,,,,,t1.png,t5.png,4,9.55E-11,19,female,2020-08-28_13h11.36.764,torte-2b,2020.1.3,MacIntel,60,13439,0.748,,,,,,,,,,,,,,,,,,,,,,,,,,,,,,,,,,,,,0,79,79,55,1,,,,,,,,,,,,,,,,,,,,,,,,
,,,,,,,,,,,,l,Incorrect,,,,,,t3.png,t4.png,1,0.909,19,female,2020-08-28_13h11.36.764,torte-2b,2020.1.3,MacIntel,60,13439,0.731,,,,,,,,,,,,,,,,,,,,,,,,,,,,,,,,,,,,,0,80,80,106,1,,,,,,,,,,,,,,,,,,,,,,,,
,,,,,,,,,,,,a,Correct!,,,,,,t1.png,t2.png,1,0.90025,19,female,2020-08-28_13h11.36.764,torte-2b,2020.1.3,MacIntel,60,13439,0.8,,,,,,,,,,,,,,,,,,,,,,,,,,,,,,,,,,,,,0,81,81,72,1,,,,,,,,,,,,,,,,,,,,,,,,
,,,,,,,,,,,,a,Correct!,,,,,,t3.png,t2.png,1,0.909,19,female,2020-08-28_13h11.36.764,torte-2b,2020.1.3,MacIntel,60,13439,0.991,,,,,,,,,,,,,,,,,,,,,,,,,,,,,,,,,,,,,0,82,82,3,1,,,,,,,,,,,,,,,,,,,,,,,,
,,,,,,,,,,,,l,Correct!,,,,,,t5.png,t1.png,4,9.55E-11,19,female,2020-08-28_13h11.36.764,torte-2b,2020.1.3,MacIntel,60,13439,1.016,,,,,,,,,,,,,,,,,,,,,,,,,,,,,,,,,,,,,0,83,83,43,1,,,,,,,,,,,,,,,,,,,,,,,,
,,,,,,,,,,,,l,Incorrect,,,,,,t4.png,t5.png,1,0.90025,19,female,2020-08-28_13h11.36.764,torte-2b,2020.1.3,MacIntel,60,13439,0.866,,,,,,,,,,,,,,,,,,,,,,,,,,,,,,,,,,,,,0,84,84,113,1,,,,,,,,,,,,,,,,,,,,,,,,
,,,,,,,,,,,,l,Correct!,,,,,,t1.png,t4.png,3,0.0000131,19,female,2020-08-28_13h11.36.764,torte-2b,2020.1.3,MacIntel,60,13439,0.805,,,,,,,,,,,,,,,,,,,,,,,,,,,,,,,,,,,,,0,85,85,17,1,,,,,,,,,,,,,,,,,,,,,,,,
,,,,,,,,,,,,l,Incorrect,,,,,,t5.png,t4.png,1,0.9,19,female,2020-08-28_13h11.36.764,torte-2b,2020.1.3,MacIntel,60,13439,0.773,,,,,,,,,,,,,,,,,,,,,,,,,,,,,,,,,,,,,0,86,86,76,1,,,,,,,,,,,,,,,,,,,,,,,,
,,,,,,,,,,,,a,Correct!,,,,,,t1.png,t1.png,0,0.978,19,female,2020-08-28_13h11.36.764,torte-2b,2020.1.3,MacIntel,60,13439,0.787,,,,,,,,,,,,,,,,,,,,,,,,,,,,,,,,,,,,,0,87,87,54,1,,,,,,,,,,,,,,,,,,,,,,,,
,,,,,,,,,,,,l,Correct!,,,,,,t5.png,t3.png,2,0.056466,19,female,2020-08-28_13h11.36.764,torte-2b,2020.1.3,MacIntel,60,13439,0.681,,,,,,,,,,,,,,,,,,,,,,,,,,,,,,,,,,,,,0,88,88,114,1,,,,,,,,,,,,,,,,,,,,,,,,
,,,,,,,,,,,,a,Incorrect,,,,,,t4.png,t2.png,2,0.059078,19,female,2020-08-28_13h11.36.764,torte-2b,2020.1.3,MacIntel,60,13439,0.881,,,,,,,,,,,,,,,,,,,,,,,,,,,,,,,,,,,,,0,89,89,88,1,,,,,,,,,,,,,,,,,,,,,,,,
,,,,,,,,,,,,l,Correct!,,,,,,t3.png,t1.png,2,0.056466,19,female,2020-08-28_13h11.36.764,torte-2b,2020.1.3,MacIntel,60,13439,0.799,,,,,,,,,,,,,,,,,,,,,,,,,,,,,,,,,,,,,0,90,90,64,1,,,,,,,,,,,,,,,,,,,,,,,,
,,,,,,,,,,,,l,Correct!,,,,,,t5.png,t1.png,4,9.55E-11,19,female,2020-08-28_13h11.36.764,torte-2b,2020.1.3,MacIntel,60,13439,1.222,,,,,,,,,,,,,,,,,,,,,,,,,,,,,,,,,,,,,0,91,91,22,1,,,,,,,,,,,,,,,,,,,,,,,,
,,,,,,,,,,,,a,Correct!,,,,,,t1.png,t1.png,0,0.97829,19,female,2020-08-28_13h11.36.764,torte-2b,2020.1.3,MacIntel,60,13439,0.688,,,,,,,,,,,,,,,,,,,,,,,,,,,,,,,,,,,,,0,92,92,67,1,,,,,,,,,,,,,,,,,,,,,,,,
,,,,,,,,,,,,l,Correct!,,,,,,t3.png,t5.png,2,0.0565,19,female,2020-08-28_13h11.36.764,torte-2b,2020.1.3,MacIntel,60,13439,0.991,,,,,,,,,,,,,,,,,,,,,,,,,,,,,,,,,,,,,0,93,93,83,1,,,,,,,,,,,,,,,,,,,,,,,,
,,,,,,,,,,,,a,Correct!,,,,,,t2.png,t1.png,1,0.90025,19,female,2020-08-28_13h11.36.764,torte-2b,2020.1.3,MacIntel,60,13439,0.58,,,,,,,,,,,,,,,,,,,,,,,,,,,,,,,,,,,,,0,94,94,5,1,,,,,,,,,,,,,,,,,,,,,,,,
,,,,,,,,,,,,l,Incorrect,,,,,,t4.png,t4.png,0,0.98115,19,female,2020-08-28_13h11.36.764,torte-2b,2020.1.3,MacIntel,60,13439,0.657,,,,,,,,,,,,,,,,,,,,,,,,,,,,,,,,,,,,,0,95,95,21,1,,,,,,,,,,,,,,,,,,,,,,,,
,,,,,,,,,,,,l,Incorrect,,,,,,t5.png,t3.png,2,0.056466,19,female,2020-08-28_13h11.36.764,torte-2b,2020.1.3,MacIntel,60,13439,0.938,,,,,,,,,,,,,,,,,,,,,,,,,,,,,,,,,,,,,0,96,96,56,1,,,,,,,,,,,,,,,,,,,,,,,,
,,,,,,,,,,,,l,Incorrect,,,,,,t4.png,t3.png,1,0.909,19,female,2020-08-28_13h11.36.764,torte-2b,2020.1.3,MacIntel,60,13439,0.62,,,,,,,,,,,,,,,,,,,,,,,,,,,,,,,,,,,,,0,97,97,46,1,,,,,,,,,,,,,,,,,,,,,,,,
,,,,,,,,,,,,l,Correct!,,,,,,t4.png,t1.png,3,0.0000131,19,female,2020-08-28_13h11.36.764,torte-2b,2020.1.3,MacIntel,60,13439,1.602,,,,,,,,,,,,,,,,,,,,,,,,,,,,,,,,,,,,,0,98,98,61,1,,,,,,,,,,,,,,,,,,,,,,,,
,,,,,,,,,,,,a,Incorrect,,,,,,t3.png,t1.png,2,0.056466,19,female,2020-08-28_13h11.36.764,torte-2b,2020.1.3,MacIntel,60,13439,0.851,,,,,,,,,,,,,,,,,,,,,,,,,,,,,,,,,,,,,0,99,99,29,1,,,,,,,,,,,,,,,,,,,,,,,,
,,,,,,,,,,,,a,Incorrect,,,,,,t1.png,t3.png,2,0.056466,19,female,2020-08-28_13h11.36.764,torte-2b,2020.1.3,MacIntel,60,13439,0.748,,,,,,,,,,,,,,,,,,,,,,,,,,,,,,,,,,,,,0,100,100,63,1,,,,,,,,,,,,,,,,,,,,,,,,
,,,,,,,,,,,,l,Correct!,,,,,,t4.png,t1.png,3,0.0000131,19,female,2020-08-28_13h11.36.764,torte-2b,2020.1.3,MacIntel,60,13439,1.236,,,,,,,,,,,,,,,,,,,,,,,,,,,,,,,,,,,,,0,101,101,48,1,,,,,,,,,,,,,,,,,,,,,,,,
,,,,,,,,,,,,l,Incorrect,,,,,,t5.png,t4.png,1,0.90025,19,female,2020-08-28_13h11.36.764,torte-2b,2020.1.3,MacIntel,60,13439,1.049,,,,,,,,,,,,,,,,,,,,,,,,,,,,,,,,,,,,,0,102,102,26,1,,,,,,,,,,,,,,,,,,,,,,,,
,,,,,,,,,,,,l,Correct!,,,,,,t2.png,t4.png,2,0.059078,19,female,2020-08-28_13h11.36.764,torte-2b,2020.1.3,MacIntel,60,13439,0.997,,,,,,,,,,,,,,,,,,,,,,,,,,,,,,,,,,,,,0,103,103,11,1,,,,,,,,,,,,,,,,,,,,,,,,
,,,,,,,,,,,,l,Correct!,,,,,,t5.png,t2.png,3,0.0000131,19,female,2020-08-28_13h11.36.764,torte-2b,2020.1.3,MacIntel,60,13439,1.434,,,,,,,,,,,,,,,,,,,,,,,,,,,,,,,,,,,,,0,104,104,51,1,,,,,,,,,,,,,,,,,,,,,,,,
,,,,,,,,,,,,l,Incorrect,,,,,,t5.png,t5.png,0,0.97829,19,female,2020-08-28_13h11.36.764,torte-2b,2020.1.3,MacIntel,60,13439,0.771,,,,,,,,,,,,,,,,,,,,,,,,,,,,,,,,,,,,,0,105,105,25,1,,,,,,,,,,,,,,,,,,,,,,,,
,,,,,,,,,,,,l,Correct!,,,,,,t5.png,t1.png,4,9.55E-11,19,female,2020-08-28_13h11.36.764,torte-2b,2020.1.3,MacIntel,60,13439,0.53,,,,,,,,,,,,,,,,,,,,,,,,,,,,,,,,,,,,,0,106,106,102,1,,,,,,,,,,,,,,,,,,,,,,,,
,,,,,,,,,,,,l,Correct!,,,,,,t2.png,t5.png,3,0.0000131,19,female,2020-08-28_13h11.36.764,torte-2b,2020.1.3,MacIntel,60,13439,0.616,,,,,,,,,,,,,,,,,,,,,,,,,,,,,,,,,,,,,0,107,107,104,1,,,,,,,,,,,,,,,,,,,,,,,,
,,,,,,,,,,,,l,Correct!,,,,,,t5.png,t2.png,3,0.0000131,19,female,2020-08-28_13h11.36.764,torte-2b,2020.1.3,MacIntel,60,13439,0.681,,,,,,,,,,,,,,,,,,,,,,,,,,,,,,,,,,,,,0,108,108,116,1,,,,,,,,,,,,,,,,,,,,,,,,
,,,,,,,,,,,,l,Correct!,,,,,,t3.png,t5.png,2,0.056466,19,female,2020-08-28_13h11.36.764,torte-2b,2020.1.3,MacIntel,60,13439,0.708,,,,,,,,,,,,,,,,,,,,,,,,,,,,,,,,,,,,,0,109,109,44,1,,,,,,,,,,,,,,,,,,,,,,,,
,,,,,,,,,,,,l,Correct!,,,,,,t3.png,t1.png,2,0.056466,19,female,2020-08-28_13h11.36.764,torte-2b,2020.1.3,MacIntel,60,13439,1.126,,,,,,,,,,,,,,,,,,,,,,,,,,,,,,,,,,,,,0,110,110,0,1,,,,,,,,,,,,,,,,,,,,,,,,
,,,,,,,,,,,,l,Incorrect,,,,,,t2.png,t1.png,1,0.90025,19,female,2020-08-28_13h11.36.764,torte-2b,2020.1.3,MacIntel,60,13439,0.748,,,,,,,,,,,,,,,,,,,,,,,,,,,,,,,,,,,,,0,111,111,4,1,,,,,,,,,,,,,,,,,,,,,,,,
,,,,,,,,,,,,a,Incorrect,,,,,,t3.png,t1.png,2,0.056466,19,female,2020-08-28_13h11.36.764,torte-2b,2020.1.3,MacIntel,60,13439,0.682,,,,,,,,,,,,,,,,,,,,,,,,,,,,,,,,,,,,,0,112,112,32,1,,,,,,,,,,,,,,,,,,,,,,,,
,,,,,,,,,,,,l,Correct!,,,,,,t3.png,t4.png,1,0.90855,19,female,2020-08-28_13h11.36.764,torte-2b,2020.1.3,MacIntel,60,13439,0.799,,,,,,,,,,,,,,,,,,,,,,,,,,,,,,,,,,,,,0,113,113,96,1,,,,,,,,,,,,,,,,,,,,,,,,
,,,,,,,,,,,,l,Correct!,,,,,,t1.png,t5.png,4,9.55E-11,19,female,2020-08-28_13h11.36.764,torte-2b,2020.1.3,MacIntel,60,13439,0.625,,,,,,,,,,,,,,,,,,,,,,,,,,,,,,,,,,,,,0,114,114,41,1,,,,,,,,,,,,,,,,,,,,,,,,
,,,,,,,,,,,,l,Correct!,,,,,,t5.png,t3.png,2,0.0565,19,female,2020-08-28_13h11.36.764,torte-2b,2020.1.3,MacIntel,60,13439,0.8,,,,,,,,,,,,,,,,,,,,,,,,,,,,,,,,,,,,,0,115,115,39,1,,,,,,,,,,,,,,,,,,,,,,,,
,,,,,,,,,,,,l,Incorrect,,,,,,t1.png,t2.png,1,0.90025,19,female,2020-08-28_13h11.36.764,torte-2b,2020.1.3,MacIntel,60,13439,0.54,,,,,,,,,,,,,,,,,,,,,,,,,,,,,,,,,,,,,0,116,116,105,1,,,,,,,,,,,,,,,,,,,,,,,,
,,,,,,,,,,,,a,Incorrect,,,,,,t1.png,t3.png,2,0.056466,19,female,2020-08-28_13h11.36.764,torte-2b,2020.1.3,MacIntel,60,13439,0.766,,,,,,,,,,,,,,,,,,,,,,,,,,,,,,,,,,,,,0,117,117,69,1,,,,,,,,,,,,,,,,,,,,,,,,
,,,,,,,,,,,,a,Correct!,,,,,,t3.png,t2.png,1,0.909,19,female,2020-08-28_13h11.36.764,torte-2b,2020.1.3,MacIntel,60,13439,1.036,,,,,,,,,,,,,,,,,,,,,,,,,,,,,,,,,,,,,0,118,118,23,1,,,,,,,,,,,,,,,,,,,,,,,,
,,,,,,,,,,,,l,Correct!,,,,,,t2.png,t5.png,3,0.0000131,19,female,2020-08-28_13h11.36.764,torte-2b,2020.1.3,MacIntel,60,13439,0.749,,,,,,,,,,,,,,,,,,,,,,,,,,,,,,,,,,,,,0,119,119,8,1,,,,,,,,,,,,,,,,,,,,,,,,
,,,,,,,,,,,,,,,,,,,,,,,19,female,2020-08-28_13h11.36.764,torte-2b,2020.1.3,MacIntel,60,13439,,space,2.051,,,,,,,,,,,,,,,,,,,,,,,,,,,,,,,,,,,,,,,,53,-69,1,0,0,s5,75,31,1,0,0,t2,195,-105,1,0,0,proceed,space,0.878,space,0.392,space,0.211
