key_resp_8.keys,key_resp_8.rt,key_resp_9.keys,key_resp_9.rt,key_resp_10.keys,key_resp_10.rt,key_resp_11.keys,key_resp_11.rt,key_resp_2.keys,key_resp_2.rt,key_resp_3.keys,key_resp_3.rt,key_resp.keys,Feedback,train.thisRepN,train.thisTrialN,train.thisN,train.thisIndex,train.ran,torta_sx,torta_dx,difference,probability,age,gender,date,expName,psychopyVersion,OS,frameRate,participant,key_resp.rt,key_resp_15.keys,key_resp_15.rt,key_resp_6.keys,key_resp_6.rt,test1.thisRepN,test1.thisTrialN,test1.thisN,test1.thisIndex,test1.ran,key_resp_4.keys,key_resp_4.rt,key_resp_5.keys,back1.thisRepN,back1.thisTrialN,back1.thisN,back1.thisIndex,back1.ran,letter,key_resp_5.rt,back2.thisRepN,back2.thisTrialN,back2.thisN,back2.thisIndex,back2.ran,back3.thisRepN,back3.thisTrialN,back3.thisN,back3.thisIndex,back3.ran,back4.thisRepN,back4.thisTrialN,back4.thisN,back4.thisIndex,back4.ran,key_resp_7.keys,key_resp_7.rt,test2.thisRepN,test2.thisTrialN,test2.thisN,test2.thisIndex,test2.ran,mouse.x,mouse.y,mouse.leftButton,mouse.midButton,mouse.rightButton,mouse.clicked_name,mouse_2.x,mouse_2.y,mouse_2.leftButton,mouse_2.midButton,mouse_2.rightButton,mouse_2.clicked_name,mouse_3.x,mouse_3.y,mouse_3.leftButton,mouse_3.midButton,mouse_3.rightButton,mouse_3.clicked_name,key_resp_12.keys,key_resp_12.rt,key_resp_13.keys,key_resp_13.rt,key_resp_14.keys,key_resp_14.rt
space,0.91371,space,0.58285,space,0.84606,space,0.339395,space,32.474615,space,0.886125,,Too slow :(,0,0,0,100,1,t4.png,t5.png,1,0.90025,19,Female,2020-08-26_18h00.52.025,torte-2b,2020.1.3,Win32,60,13445,,,,,,,,,,,,,,,,,,,,,,,,,,,,,,,,,,,,,,,,,,,,,,,,,,,,,,,,,,,,,,,,,,
,,,,,,,,,,,,l,Incorrect,0,1,1,85,1,t3.png,t2.png,1,0.90855,19,Female,2020-08-26_18h00.52.025,torte-2b,2020.1.3,Win32,60,13445,2.34168,,,,,,,,,,,,,,,,,,,,,,,,,,,,,,,,,,,,,,,,,,,,,,,,,,,,,,,,,,,,,,,,,
,,,,,,,,,,,,a,Incorrect,0,2,2,51,1,t3.png,t1.png,2,0.056466,19,Female,2020-08-26_18h00.52.025,torte-2b,2020.1.3,Win32,60,13445,1.832695,,,,,,,,,,,,,,,,,,,,,,,,,,,,,,,,,,,,,,,,,,,,,,,,,,,,,,,,,,,,,,,,,
,,,,,,,,,,,,l,Correct!,0,3,3,98,1,t2.png,t4.png,2,0.0591,19,Female,2020-08-26_18h00.52.025,torte-2b,2020.1.3,Win32,60,13445,1.01899,,,,,,,,,,,,,,,,,,,,,,,,,,,,,,,,,,,,,,,,,,,,,,,,,,,,,,,,,,,,,,,,,
,,,,,,,,,,,,,Too slow :(,0,4,4,58,1,t5.png,t4.png,1,0.90025,19,Female,2020-08-26_18h00.52.025,torte-2b,2020.1.3,Win32,60,13445,,,,,,,,,,,,,,,,,,,,,,,,,,,,,,,,,,,,,,,,,,,,,,,,,,,,,,,,,,,,,,,,,,
,,,,,,,,,,,,a,Incorrect,0,5,5,57,1,t2.png,t4.png,2,0.059078,19,Female,2020-08-26_18h00.52.025,torte-2b,2020.1.3,Win32,60,13445,1.950365,,,,,,,,,,,,,,,,,,,,,,,,,,,,,,,,,,,,,,,,,,,,,,,,,,,,,,,,,,,,,,,,,
,,,,,,,,,,,,l,Incorrect,0,6,6,113,1,t5.png,t4.png,1,0.9,19,Female,2020-08-26_18h00.52.025,torte-2b,2020.1.3,Win32,60,13445,1.400925,,,,,,,,,,,,,,,,,,,,,,,,,,,,,,,,,,,,,,,,,,,,,,,,,,,,,,,,,,,,,,,,,
,,,,,,,,,,,,,Too slow :(,0,7,7,17,1,t1.png,t4.png,3,0.0000131,19,Female,2020-08-26_18h00.52.025,torte-2b,2020.1.3,Win32,60,13445,,,,,,,,,,,,,,,,,,,,,,,,,,,,,,,,,,,,,,,,,,,,,,,,,,,,,,,,,,,,,,,,,,
,,,,,,,,,,,,l,Incorrect,0,8,8,101,1,t4.png,t5.png,1,0.90025,19,Female,2020-08-26_18h00.52.025,torte-2b,2020.1.3,Win32,60,13445,1.057565,,,,,,,,,,,,,,,,,,,,,,,,,,,,,,,,,,,,,,,,,,,,,,,,,,,,,,,,,,,,,,,,,
,,,,,,,,,,,,a,Correct!,0,9,9,103,1,t3.png,t1.png,2,0.056466,19,Female,2020-08-26_18h00.52.025,torte-2b,2020.1.3,Win32,60,13445,0.994555,,,,,,,,,,,,,,,,,,,,,,,,,,,,,,,,,,,,,,,,,,,,,,,,,,,,,,,,,,,,,,,,,
,,,,,,,,,,,,l,Correct!,0,10,10,102,1,t4.png,t2.png,2,0.059078,19,Female,2020-08-26_18h00.52.025,torte-2b,2020.1.3,Win32,60,13445,1.41467,,,,,,,,,,,,,,,,,,,,,,,,,,,,,,,,,,,,,,,,,,,,,,,,,,,,,,,,,,,,,,,,,
,,,,,,,,,,,,a,Correct!,0,11,11,15,1,t3.png,t2.png,1,0.90855,19,Female,2020-08-26_18h00.52.025,torte-2b,2020.1.3,Win32,60,13445,0.87024,,,,,,,,,,,,,,,,,,,,,,,,,,,,,,,,,,,,,,,,,,,,,,,,,,,,,,,,,,,,,,,,,
,,,,,,,,,,,,l,Incorrect,0,12,12,65,1,t4.png,t5.png,1,0.90025,19,Female,2020-08-26_18h00.52.025,torte-2b,2020.1.3,Win32,60,13445,2.150765,,,,,,,,,,,,,,,,,,,,,,,,,,,,,,,,,,,,,,,,,,,,,,,,,,,,,,,,,,,,,,,,,
,,,,,,,,,,,,l,Correct!,0,13,13,89,1,t1.png,t4.png,3,0.0000131,19,Female,2020-08-26_18h00.52.025,torte-2b,2020.1.3,Win32,60,13445,1.71697,,,,,,,,,,,,,,,,,,,,,,,,,,,,,,,,,,,,,,,,,,,,,,,,,,,,,,,,,,,,,,,,,
,,,,,,,,,,,,l,Correct!,0,14,14,54,1,t1.png,t5.png,4,9.55E-11,19,Female,2020-08-26_18h00.52.025,torte-2b,2020.1.3,Win32,60,13445,1.78337,,,,,,,,,,,,,,,,,,,,,,,,,,,,,,,,,,,,,,,,,,,,,,,,,,,,,,,,,,,,,,,,,
,,,,,,,,,,,,a,Incorrect,0,15,15,55,1,t2.png,t4.png,2,0.059078,19,Female,2020-08-26_18h00.52.025,torte-2b,2020.1.3,Win32,60,13445,1.712835,,,,,,,,,,,,,,,,,,,,,,,,,,,,,,,,,,,,,,,,,,,,,,,,,,,,,,,,,,,,,,,,,
,,,,,,,,,,,,a,Correct!,0,16,16,62,1,t5.png,t5.png,0,0.978,19,Female,2020-08-26_18h00.52.025,torte-2b,2020.1.3,Win32,60,13445,1.83624,,,,,,,,,,,,,,,,,,,,,,,,,,,,,,,,,,,,,,,,,,,,,,,,,,,,,,,,,,,,,,,,,
,,,,,,,,,,,,a,Correct!,0,17,17,28,1,t2.png,t3.png,1,0.909,19,Female,2020-08-26_18h00.52.025,torte-2b,2020.1.3,Win32,60,13445,1.54964,,,,,,,,,,,,,,,,,,,,,,,,,,,,,,,,,,,,,,,,,,,,,,,,,,,,,,,,,,,,,,,,,
,,,,,,,,,,,,a,Incorrect,0,18,18,83,1,t3.png,t1.png,2,0.056466,19,Female,2020-08-26_18h00.52.025,torte-2b,2020.1.3,Win32,60,13445,0.65489,,,,,,,,,,,,,,,,,,,,,,,,,,,,,,,,,,,,,,,,,,,,,,,,,,,,,,,,,,,,,,,,,
,,,,,,,,,,,,a,Correct!,0,19,19,118,1,t5.png,t5.png,0,0.978,19,Female,2020-08-26_18h00.52.025,torte-2b,2020.1.3,Win32,60,13445,2.3435,,,,,,,,,,,,,,,,,,,,,,,,,,,,,,,,,,,,,,,,,,,,,,,,,,,,,,,,,,,,,,,,,
,,,,,,,,,,,,a,Correct!,0,20,20,39,1,t3.png,t2.png,1,0.90855,19,Female,2020-08-26_18h00.52.025,torte-2b,2020.1.3,Win32,60,13445,0.617715,,,,,,,,,,,,,,,,,,,,,,,,,,,,,,,,,,,,,,,,,,,,,,,,,,,,,,,,,,,,,,,,,
,,,,,,,,,,,,a,Incorrect,0,21,21,38,1,t3.png,t1.png,2,0.056466,19,Female,2020-08-26_18h00.52.025,torte-2b,2020.1.3,Win32,60,13445,1.682205,,,,,,,,,,,,,,,,,,,,,,,,,,,,,,,,,,,,,,,,,,,,,,,,,,,,,,,,,,,,,,,,,
,,,,,,,,,,,,l,Correct!,0,22,22,82,1,t5.png,t1.png,4,9.55E-11,19,Female,2020-08-26_18h00.52.025,torte-2b,2020.1.3,Win32,60,13445,0.893375,,,,,,,,,,,,,,,,,,,,,,,,,,,,,,,,,,,,,,,,,,,,,,,,,,,,,,,,,,,,,,,,,
,,,,,,,,,,,,l,Incorrect,0,23,23,110,1,t4.png,t5.png,1,0.90025,19,Female,2020-08-26_18h00.52.025,torte-2b,2020.1.3,Win32,60,13445,2.171035,,,,,,,,,,,,,,,,,,,,,,,,,,,,,,,,,,,,,,,,,,,,,,,,,,,,,,,,,,,,,,,,,
,,,,,,,,,,,,a,Correct!,0,24,24,78,1,t1.png,t1.png,0,0.978,19,Female,2020-08-26_18h00.52.025,torte-2b,2020.1.3,Win32,60,13445,1.55589,,,,,,,,,,,,,,,,,,,,,,,,,,,,,,,,,,,,,,,,,,,,,,,,,,,,,,,,,,,,,,,,,
,,,,,,,,,,,,a,Correct!,0,25,25,97,1,t5.png,t5.png,0,0.97829,19,Female,2020-08-26_18h00.52.025,torte-2b,2020.1.3,Win32,60,13445,2.38136,,,,,,,,,,,,,,,,,,,,,,,,,,,,,,,,,,,,,,,,,,,,,,,,,,,,,,,,,,,,,,,,,
,,,,,,,,,,,,a,Correct!,0,26,26,45,1,t3.png,t2.png,1,0.90855,19,Female,2020-08-26_18h00.52.025,torte-2b,2020.1.3,Win32,60,13445,2.21364,,,,,,,,,,,,,,,,,,,,,,,,,,,,,,,,,,,,,,,,,,,,,,,,,,,,,,,,,,,,,,,,,
,,,,,,,,,,,,a,Correct!,0,27,27,104,1,t2.png,t3.png,1,0.90855,19,Female,2020-08-26_18h00.52.025,torte-2b,2020.1.3,Win32,60,13445,1.6148,,,,,,,,,,,,,,,,,,,,,,,,,,,,,,,,,,,,,,,,,,,,,,,,,,,,,,,,,,,,,,,,,
,,,,,,,,,,,,a,Incorrect,0,28,28,60,1,t2.png,t4.png,2,0.059078,19,Female,2020-08-26_18h00.52.025,torte-2b,2020.1.3,Win32,60,13445,2.201275,,,,,,,,,,,,,,,,,,,,,,,,,,,,,,,,,,,,,,,,,,,,,,,,,,,,,,,,,,,,,,,,,
,,,,,,,,,,,,,Too slow :(,0,29,29,23,1,t5.png,t4.png,1,0.90025,19,Female,2020-08-26_18h00.52.025,torte-2b,2020.1.3,Win32,60,13445,,,,,,,,,,,,,,,,,,,,,,,,,,,,,,,,,,,,,,,,,,,,,,,,,,,,,,,,,,,,,,,,,,
,,,,,,,,,,,,,Too slow :(,0,30,30,43,1,t4.png,t2.png,2,0.059078,19,Female,2020-08-26_18h00.52.025,torte-2b,2020.1.3,Win32,60,13445,,,,,,,,,,,,,,,,,,,,,,,,,,,,,,,,,,,,,,,,,,,,,,,,,,,,,,,,,,,,,,,,,,
,,,,,,,,,,,,,Too slow :(,0,31,31,74,1,t5.png,t4.png,1,0.9,19,Female,2020-08-26_18h00.52.025,torte-2b,2020.1.3,Win32,60,13445,,,,,,,,,,,,,,,,,,,,,,,,,,,,,,,,,,,,,,,,,,,,,,,,,,,,,,,,,,,,,,,,,,
,,,,,,,,,,,,l,Correct!,0,32,32,31,1,t1.png,t5.png,4,9.55E-11,19,Female,2020-08-26_18h00.52.025,torte-2b,2020.1.3,Win32,60,13445,0.833905,,,,,,,,,,,,,,,,,,,,,,,,,,,,,,,,,,,,,,,,,,,,,,,,,,,,,,,,,,,,,,,,,
,,,,,,,,,,,,l,Incorrect,0,33,33,77,1,t1.png,t1.png,0,0.97829,19,Female,2020-08-26_18h00.52.025,torte-2b,2020.1.3,Win32,60,13445,1.666375,,,,,,,,,,,,,,,,,,,,,,,,,,,,,,,,,,,,,,,,,,,,,,,,,,,,,,,,,,,,,,,,,
,,,,,,,,,,,,a,Correct!,0,34,34,114,1,t2.png,t3.png,1,0.90855,19,Female,2020-08-26_18h00.52.025,torte-2b,2020.1.3,Win32,60,13445,1.33884,,,,,,,,,,,,,,,,,,,,,,,,,,,,,,,,,,,,,,,,,,,,,,,,,,,,,,,,,,,,,,,,,
,,,,,,,,,,,,a,Incorrect,0,35,35,3,1,t1.png,t5.png,4,9.55E-11,19,Female,2020-08-26_18h00.52.025,torte-2b,2020.1.3,Win32,60,13445,1.63316,,,,,,,,,,,,,,,,,,,,,,,,,,,,,,,,,,,,,,,,,,,,,,,,,,,,,,,,,,,,,,,,,
,,,,,,,,,,,,a,Correct!,0,36,36,107,1,t1.png,t1.png,0,0.978,19,Female,2020-08-26_18h00.52.025,torte-2b,2020.1.3,Win32,60,13445,0.90408,,,,,,,,,,,,,,,,,,,,,,,,,,,,,,,,,,,,,,,,,,,,,,,,,,,,,,,,,,,,,,,,,
,,,,,,,,,,,,a,Incorrect,0,37,37,117,1,t1.png,t5.png,4,9.55E-11,19,Female,2020-08-26_18h00.52.025,torte-2b,2020.1.3,Win32,60,13445,1.21841,,,,,,,,,,,,,,,,,,,,,,,,,,,,,,,,,,,,,,,,,,,,,,,,,,,,,,,,,,,,,,,,,
,,,,,,,,,,,,a,Incorrect,0,38,38,35,1,t1.png,t4.png,3,0.0000131,19,Female,2020-08-26_18h00.52.025,torte-2b,2020.1.3,Win32,60,13445,0.91652,,,,,,,,,,,,,,,,,,,,,,,,,,,,,,,,,,,,,,,,,,,,,,,,,,,,,,,,,,,,,,,,,
,,,,,,,,,,,,a,Incorrect,0,39,39,14,1,t2.png,t4.png,2,0.059078,19,Female,2020-08-26_18h00.52.025,torte-2b,2020.1.3,Win32,60,13445,0.918035,,,,,,,,,,,,,,,,,,,,,,,,,,,,,,,,,,,,,,,,,,,,,,,,,,,,,,,,,,,,,,,,,
,,,,,,,,,,,,a,Incorrect,0,40,40,94,1,t5.png,t1.png,4,9.55E-11,19,Female,2020-08-26_18h00.52.025,torte-2b,2020.1.3,Win32,60,13445,0.981515,,,,,,,,,,,,,,,,,,,,,,,,,,,,,,,,,,,,,,,,,,,,,,,,,,,,,,,,,,,,,,,,,
,,,,,,,,,,,,a,Correct!,0,41,41,70,1,t5.png,t5.png,0,0.978,19,Female,2020-08-26_18h00.52.025,torte-2b,2020.1.3,Win32,60,13445,1.08135,,,,,,,,,,,,,,,,,,,,,,,,,,,,,,,,,,,,,,,,,,,,,,,,,,,,,,,,,,,,,,,,,
,,,,,,,,,,,,a,Correct!,0,42,42,25,1,t5.png,t5.png,0,0.97829,19,Female,2020-08-26_18h00.52.025,torte-2b,2020.1.3,Win32,60,13445,1.13628,,,,,,,,,,,,,,,,,,,,,,,,,,,,,,,,,,,,,,,,,,,,,,,,,,,,,,,,,,,,,,,,,
,,,,,,,,,,,,l,Correct!,0,43,43,108,1,t5.png,t1.png,4,9.55E-11,19,Female,2020-08-26_18h00.52.025,torte-2b,2020.1.3,Win32,60,13445,2.446675,,,,,,,,,,,,,,,,,,,,,,,,,,,,,,,,,,,,,,,,,,,,,,,,,,,,,,,,,,,,,,,,,
,,,,,,,,,,,,a,Correct!,0,44,44,44,1,t2.png,t3.png,1,0.909,19,Female,2020-08-26_18h00.52.025,torte-2b,2020.1.3,Win32,60,13445,1.75265,,,,,,,,,,,,,,,,,,,,,,,,,,,,,,,,,,,,,,,,,,,,,,,,,,,,,,,,,,,,,,,,,
,,,,,,,,,,,,l,Correct!,0,45,45,69,1,t4.png,t2.png,2,0.059078,19,Female,2020-08-26_18h00.52.025,torte-2b,2020.1.3,Win32,60,13445,2.069985,,,,,,,,,,,,,,,,,,,,,,,,,,,,,,,,,,,,,,,,,,,,,,,,,,,,,,,,,,,,,,,,,
,,,,,,,,,,,,a,Incorrect,0,46,46,86,1,t3.png,t1.png,2,0.056466,19,Female,2020-08-26_18h00.52.025,torte-2b,2020.1.3,Win32,60,13445,0.736465,,,,,,,,,,,,,,,,,,,,,,,,,,,,,,,,,,,,,,,,,,,,,,,,,,,,,,,,,,,,,,,,,
,,,,,,,,,,,,l,Correct!,0,47,47,72,1,t4.png,t2.png,2,0.059078,19,Female,2020-08-26_18h00.52.025,torte-2b,2020.1.3,Win32,60,13445,1.17421,,,,,,,,,,,,,,,,,,,,,,,,,,,,,,,,,,,,,,,,,,,,,,,,,,,,,,,,,,,,,,,,,
,,,,,,,,,,,,l,Correct!,0,48,48,24,1,t4.png,t2.png,2,0.059078,19,Female,2020-08-26_18h00.52.025,torte-2b,2020.1.3,Win32,60,13445,1.069505,,,,,,,,,,,,,,,,,,,,,,,,,,,,,,,,,,,,,,,,,,,,,,,,,,,,,,,,,,,,,,,,,
,,,,,,,,,,,,a,Correct!,0,49,49,29,1,t5.png,t5.png,0,0.97829,19,Female,2020-08-26_18h00.52.025,torte-2b,2020.1.3,Win32,60,13445,1.38225,,,,,,,,,,,,,,,,,,,,,,,,,,,,,,,,,,,,,,,,,,,,,,,,,,,,,,,,,,,,,,,,,
,,,,,,,,,,,,a,Correct!,0,50,50,9,1,t4.png,t5.png,1,0.9,19,Female,2020-08-26_18h00.52.025,torte-2b,2020.1.3,Win32,60,13445,1.76727,,,,,,,,,,,,,,,,,,,,,,,,,,,,,,,,,,,,,,,,,,,,,,,,,,,,,,,,,,,,,,,,,
,,,,,,,,,,,,l,Correct!,0,51,51,46,1,t4.png,t2.png,2,0.059078,19,Female,2020-08-26_18h00.52.025,torte-2b,2020.1.3,Win32,60,13445,1.36428,,,,,,,,,,,,,,,,,,,,,,,,,,,,,,,,,,,,,,,,,,,,,,,,,,,,,,,,,,,,,,,,,
,,,,,,,,,,,,a,Incorrect,0,52,52,6,1,t1.png,t4.png,3,0.0000131,19,Female,2020-08-26_18h00.52.025,torte-2b,2020.1.3,Win32,60,13445,2.047355,,,,,,,,,,,,,,,,,,,,,,,,,,,,,,,,,,,,,,,,,,,,,,,,,,,,,,,,,,,,,,,,,
,,,,,,,,,,,,l,Correct!,0,53,53,73,1,t4.png,t2.png,2,0.059078,19,Female,2020-08-26_18h00.52.025,torte-2b,2020.1.3,Win32,60,13445,1.46891,,,,,,,,,,,,,,,,,,,,,,,,,,,,,,,,,,,,,,,,,,,,,,,,,,,,,,,,,,,,,,,,,
,,,,,,,,,,,,a,Incorrect,0,54,54,88,1,t3.png,t1.png,2,0.056466,19,Female,2020-08-26_18h00.52.025,torte-2b,2020.1.3,Win32,60,13445,0.970275,,,,,,,,,,,,,,,,,,,,,,,,,,,,,,,,,,,,,,,,,,,,,,,,,,,,,,,,,,,,,,,,,
,,,,,,,,,,,,l,Correct!,0,55,55,10,1,t2.png,t3.png,1,0.90855,19,Female,2020-08-26_18h00.52.025,torte-2b,2020.1.3,Win32,60,13445,1.32533,,,,,,,,,,,,,,,,,,,,,,,,,,,,,,,,,,,,,,,,,,,,,,,,,,,,,,,,,,,,,,,,,
,,,,,,,,,,,,a,Correct!,0,56,56,42,1,t5.png,t4.png,1,0.90025,19,Female,2020-08-26_18h00.52.025,torte-2b,2020.1.3,Win32,60,13445,0.93436,,,,,,,,,,,,,,,,,,,,,,,,,,,,,,,,,,,,,,,,,,,,,,,,,,,,,,,,,,,,,,,,,
,,,,,,,,,,,,l,Incorrect,0,57,57,48,1,t5.png,t5.png,0,0.97829,19,Female,2020-08-26_18h00.52.025,torte-2b,2020.1.3,Win32,60,13445,1.39843,,,,,,,,,,,,,,,,,,,,,,,,,,,,,,,,,,,,,,,,,,,,,,,,,,,,,,,,,,,,,,,,,
,,,,,,,,,,,,a,Incorrect,0,58,58,68,1,t1.png,t4.png,3,0.0000131,19,Female,2020-08-26_18h00.52.025,torte-2b,2020.1.3,Win32,60,13445,1.49926,,,,,,,,,,,,,,,,,,,,,,,,,,,,,,,,,,,,,,,,,,,,,,,,,,,,,,,,,,,,,,,,,
,,,,,,,,,,,,l,Correct!,0,59,59,91,1,t1.png,t4.png,3,0.0000131,19,Female,2020-08-26_18h00.52.025,torte-2b,2020.1.3,Win32,60,13445,2.35893,,,,,,,,,,,,,,,,,,,,,,,,,,,,,,,,,,,,,,,,,,,,,,,,,,,,,,,,,,,,,,,,,
,,,,,,,,,,,,a,Incorrect,0,60,60,116,1,t5.png,t4.png,1,0.90025,19,Female,2020-08-26_18h00.52.025,torte-2b,2020.1.3,Win32,60,13445,1.550915,,,,,,,,,,,,,,,,,,,,,,,,,,,,,,,,,,,,,,,,,,,,,,,,,,,,,,,,,,,,,,,,,
,,,,,,,,,,,,l,Correct!,0,61,61,90,1,t1.png,t5.png,4,9.55E-11,19,Female,2020-08-26_18h00.52.025,torte-2b,2020.1.3,Win32,60,13445,1.115085,,,,,,,,,,,,,,,,,,,,,,,,,,,,,,,,,,,,,,,,,,,,,,,,,,,,,,,,,,,,,,,,,
,,,,,,,,,,,,a,Incorrect,0,62,62,87,1,t5.png,t1.png,4,9.55E-11,19,Female,2020-08-26_18h00.52.025,torte-2b,2020.1.3,Win32,60,13445,1.38611,,,,,,,,,,,,,,,,,,,,,,,,,,,,,,,,,,,,,,,,,,,,,,,,,,,,,,,,,,,,,,,,,
,,,,,,,,,,,,l,Correct!,0,63,63,12,1,t5.png,t1.png,4,9.55E-11,19,Female,2020-08-26_18h00.52.025,torte-2b,2020.1.3,Win32,60,13445,1.707225,,,,,,,,,,,,,,,,,,,,,,,,,,,,,,,,,,,,,,,,,,,,,,,,,,,,,,,,,,,,,,,,,
,,,,,,,,,,,,a,Incorrect,0,64,64,119,1,t1.png,t5.png,4,9.55E-11,19,Female,2020-08-26_18h00.52.025,torte-2b,2020.1.3,Win32,60,13445,0.89626,,,,,,,,,,,,,,,,,,,,,,,,,,,,,,,,,,,,,,,,,,,,,,,,,,,,,,,,,,,,,,,,,
,,,,,,,,,,,,a,Incorrect,0,65,65,36,1,t3.png,t1.png,2,0.0565,19,Female,2020-08-26_18h00.52.025,torte-2b,2020.1.3,Win32,60,13445,1.89038,,,,,,,,,,,,,,,,,,,,,,,,,,,,,,,,,,,,,,,,,,,,,,,,,,,,,,,,,,,,,,,,,
,,,,,,,,,,,,l,Incorrect,0,66,66,34,1,t5.png,t4.png,1,0.9,19,Female,2020-08-26_18h00.52.025,torte-2b,2020.1.3,Win32,60,13445,1.250425,,,,,,,,,,,,,,,,,,,,,,,,,,,,,,,,,,,,,,,,,,,,,,,,,,,,,,,,,,,,,,,,,
,,,,,,,,,,,,l,Incorrect,0,67,67,49,1,t4.png,t5.png,1,0.9,19,Female,2020-08-26_18h00.52.025,torte-2b,2020.1.3,Win32,60,13445,1.654735,,,,,,,,,,,,,,,,,,,,,,,,,,,,,,,,,,,,,,,,,,,,,,,,,,,,,,,,,,,,,,,,,
,,,,,,,,,,,,l,Incorrect,0,68,68,96,1,t1.png,t1.png,0,0.97829,19,Female,2020-08-26_18h00.52.025,torte-2b,2020.1.3,Win32,60,13445,1.214545,,,,,,,,,,,,,,,,,,,,,,,,,,,,,,,,,,,,,,,,,,,,,,,,,,,,,,,,,,,,,,,,,
,,,,,,,,,,,,l,Incorrect,0,69,69,71,1,t5.png,t5.png,0,0.97829,19,Female,2020-08-26_18h00.52.025,torte-2b,2020.1.3,Win32,60,13445,0.5715,,,,,,,,,,,,,,,,,,,,,,,,,,,,,,,,,,,,,,,,,,,,,,,,,,,,,,,,,,,,,,,,,
,,,,,,,,,,,,l,Correct!,0,70,70,37,1,t1.png,t4.png,3,0.0000131,19,Female,2020-08-26_18h00.52.025,torte-2b,2020.1.3,Win32,60,13445,0.853695,,,,,,,,,,,,,,,,,,,,,,,,,,,,,,,,,,,,,,,,,,,,,,,,,,,,,,,,,,,,,,,,,
,,,,,,,,,,,,l,Correct!,0,71,71,5,1,t2.png,t4.png,2,0.059078,19,Female,2020-08-26_18h00.52.025,torte-2b,2020.1.3,Win32,60,13445,2.38385,,,,,,,,,,,,,,,,,,,,,,,,,,,,,,,,,,,,,,,,,,,,,,,,,,,,,,,,,,,,,,,,,
,,,,,,,,,,,,a,Correct!,0,72,72,21,1,t5.png,t4.png,1,0.90025,19,Female,2020-08-26_18h00.52.025,torte-2b,2020.1.3,Win32,60,13445,1.17239,,,,,,,,,,,,,,,,,,,,,,,,,,,,,,,,,,,,,,,,,,,,,,,,,,,,,,,,,,,,,,,,,
,,,,,,,,,,,,l,Incorrect,0,73,73,63,1,t2.png,t3.png,1,0.909,19,Female,2020-08-26_18h00.52.025,torte-2b,2020.1.3,Win32,60,13445,1.233425,,,,,,,,,,,,,,,,,,,,,,,,,,,,,,,,,,,,,,,,,,,,,,,,,,,,,,,,,,,,,,,,,
,,,,,,,,,,,,a,Incorrect,0,74,74,47,1,t4.png,t2.png,2,0.059078,19,Female,2020-08-26_18h00.52.025,torte-2b,2020.1.3,Win32,60,13445,0.715045,,,,,,,,,,,,,,,,,,,,,,,,,,,,,,,,,,,,,,,,,,,,,,,,,,,,,,,,,,,,,,,,,
,,,,,,,,,,,,l,Incorrect,0,75,75,105,1,t3.png,t2.png,1,0.90855,19,Female,2020-08-26_18h00.52.025,torte-2b,2020.1.3,Win32,60,13445,1.46354,,,,,,,,,,,,,,,,,,,,,,,,,,,,,,,,,,,,,,,,,,,,,,,,,,,,,,,,,,,,,,,,,
,,,,,,,,,,,,l,Incorrect,0,76,76,20,1,t2.png,t3.png,1,0.90855,19,Female,2020-08-26_18h00.52.025,torte-2b,2020.1.3,Win32,60,13445,1.248575,,,,,,,,,,,,,,,,,,,,,,,,,,,,,,,,,,,,,,,,,,,,,,,,,,,,,,,,,,,,,,,,,
,,,,,,,,,,,,l,Incorrect,0,77,77,13,1,t5.png,t5.png,0,0.97829,19,Female,2020-08-26_18h00.52.025,torte-2b,2020.1.3,Win32,60,13445,1.16562,,,,,,,,,,,,,,,,,,,,,,,,,,,,,,,,,,,,,,,,,,,,,,,,,,,,,,,,,,,,,,,,,
,,,,,,,,,,,,l,Correct!,0,78,78,50,1,t5.png,t1.png,4,9.55E-11,19,Female,2020-08-26_18h00.52.025,torte-2b,2020.1.3,Win32,60,13445,1.668655,,,,,,,,,,,,,,,,,,,,,,,,,,,,,,,,,,,,,,,,,,,,,,,,,,,,,,,,,,,,,,,,,
,,,,,,,,,,,,l,Correct!,0,79,79,0,1,t5.png,t1.png,4,9.55E-11,19,Female,2020-08-26_18h00.52.025,torte-2b,2020.1.3,Win32,60,13445,1.772505,,,,,,,,,,,,,,,,,,,,,,,,,,,,,,,,,,,,,,,,,,,,,,,,,,,,,,,,,,,,,,,,,
,,,,,,,,,,,,l,Incorrect,0,80,80,22,1,t2.png,t3.png,1,0.90855,19,Female,2020-08-26_18h00.52.025,torte-2b,2020.1.3,Win32,60,13445,0.73419,,,,,,,,,,,,,,,,,,,,,,,,,,,,,,,,,,,,,,,,,,,,,,,,,,,,,,,,,,,,,,,,,
,,,,,,,,,,,,l,Incorrect,0,81,81,64,1,t1.png,t1.png,0,0.978,19,Female,2020-08-26_18h00.52.025,torte-2b,2020.1.3,Win32,60,13445,1.383115,,,,,,,,,,,,,,,,,,,,,,,,,,,,,,,,,,,,,,,,,,,,,,,,,,,,,,,,,,,,,,,,,
,,,,,,,,,,,,l,Correct!,0,82,82,93,1,t2.png,t4.png,2,0.059078,19,Female,2020-08-26_18h00.52.025,torte-2b,2020.1.3,Win32,60,13445,1.069505,,,,,,,,,,,,,,,,,,,,,,,,,,,,,,,,,,,,,,,,,,,,,,,,,,,,,,,,,,,,,,,,,
,,,,,,,,,,,,,Too slow :(,0,83,83,40,1,t1.png,t5.png,4,9.55E-11,19,Female,2020-08-26_18h00.52.025,torte-2b,2020.1.3,Win32,60,13445,,,,,,,,,,,,,,,,,,,,,,,,,,,,,,,,,,,,,,,,,,,,,,,,,,,,,,,,,,,,,,,,,,
,,,,,,,,,,,,,Too slow :(,0,84,84,2,1,t3.png,t2.png,1,0.90855,19,Female,2020-08-26_18h00.52.025,torte-2b,2020.1.3,Win32,60,13445,,,,,,,,,,,,,,,,,,,,,,,,,,,,,,,,,,,,,,,,,,,,,,,,,,,,,,,,,,,,,,,,,,
,,,,,,,,,,,,a,Correct!,0,85,85,16,1,t5.png,t4.png,1,0.9,19,Female,2020-08-26_18h00.52.025,torte-2b,2020.1.3,Win32,60,13445,1.979965,,,,,,,,,,,,,,,,,,,,,,,,,,,,,,,,,,,,,,,,,,,,,,,,,,,,,,,,,,,,,,,,,
,,,,,,,,,,,,,Too slow :(,0,86,86,33,1,t5.png,t1.png,4,9.55E-11,19,Female,2020-08-26_18h00.52.025,torte-2b,2020.1.3,Win32,60,13445,,,,,,,,,,,,,,,,,,,,,,,,,,,,,,,,,,,,,,,,,,,,,,,,,,,,,,,,,,,,,,,,,,
,,,,,,,,,,,,a,Correct!,0,87,87,95,1,t1.png,t1.png,0,0.978,19,Female,2020-08-26_18h00.52.025,torte-2b,2020.1.3,Win32,60,13445,2.098605,,,,,,,,,,,,,,,,,,,,,,,,,,,,,,,,,,,,,,,,,,,,,,,,,,,,,,,,,,,,,,,,,
,,,,,,,,,,,,l,Incorrect,0,88,88,41,1,t3.png,t2.png,1,0.90855,19,Female,2020-08-26_18h00.52.025,torte-2b,2020.1.3,Win32,60,13445,2.300545,,,,,,,,,,,,,,,,,,,,,,,,,,,,,,,,,,,,,,,,,,,,,,,,,,,,,,,,,,,,,,,,,
,,,,,,,,,,,,,Too slow :(,0,89,89,81,1,t1.png,t1.png,0,0.97829,19,Female,2020-08-26_18h00.52.025,torte-2b,2020.1.3,Win32,60,13445,,,,,,,,,,,,,,,,,,,,,,,,,,,,,,,,,,,,,,,,,,,,,,,,,,,,,,,,,,,,,,,,,,
,,,,,,,,,,,,a,Correct!,0,90,90,76,1,t3.png,t2.png,1,0.90855,19,Female,2020-08-26_18h00.52.025,torte-2b,2020.1.3,Win32,60,13445,0.919055,,,,,,,,,,,,,,,,,,,,,,,,,,,,,,,,,,,,,,,,,,,,,,,,,,,,,,,,,,,,,,,,,
,,,,,,,,,,,,l,Correct!,0,91,91,52,1,t2.png,t4.png,2,0.059078,19,Female,2020-08-26_18h00.52.025,torte-2b,2020.1.3,Win32,60,13445,0.815785,,,,,,,,,,,,,,,,,,,,,,,,,,,,,,,,,,,,,,,,,,,,,,,,,,,,,,,,,,,,,,,,,
,,,,,,,,,,,,l,Correct!,0,92,92,56,1,t5.png,t1.png,4,9.55E-11,19,Female,2020-08-26_18h00.52.025,torte-2b,2020.1.3,Win32,60,13445,0.587205,,,,,,,,,,,,,,,,,,,,,,,,,,,,,,,,,,,,,,,,,,,,,,,,,,,,,,,,,,,,,,,,,
,,,,,,,,,,,,a,Incorrect,0,93,93,30,1,t3.png,t1.png,2,0.056466,19,Female,2020-08-26_18h00.52.025,torte-2b,2020.1.3,Win32,60,13445,0.597025,,,,,,,,,,,,,,,,,,,,,,,,,,,,,,,,,,,,,,,,,,,,,,,,,,,,,,,,,,,,,,,,,
,,,,,,,,,,,,l,Incorrect,0,94,94,84,1,t1.png,t1.png,0,0.97829,19,Female,2020-08-26_18h00.52.025,torte-2b,2020.1.3,Win32,60,13445,0.56793,,,,,,,,,,,,,,,,,,,,,,,,,,,,,,,,,,,,,,,,,,,,,,,,,,,,,,,,,,,,,,,,,
,,,,,,,,,,,,a,Incorrect,0,95,95,53,1,t3.png,t1.png,2,0.056466,19,Female,2020-08-26_18h00.52.025,torte-2b,2020.1.3,Win32,60,13445,0.569895,,,,,,,,,,,,,,,,,,,,,,,,,,,,,,,,,,,,,,,,,,,,,,,,,,,,,,,,,,,,,,,,,
,,,,,,,,,,,,l,Incorrect,0,96,96,66,1,t4.png,t5.png,1,0.9,19,Female,2020-08-26_18h00.52.025,torte-2b,2020.1.3,Win32,60,13445,0.79896,,,,,,,,,,,,,,,,,,,,,,,,,,,,,,,,,,,,,,,,,,,,,,,,,,,,,,,,,,,,,,,,,
,,,,,,,,,,,,l,Incorrect,0,97,97,109,1,t5.png,t5.png,0,0.97829,19,Female,2020-08-26_18h00.52.025,torte-2b,2020.1.3,Win32,60,13445,1.234965,,,,,,,,,,,,,,,,,,,,,,,,,,,,,,,,,,,,,,,,,,,,,,,,,,,,,,,,,,,,,,,,,
,,,,,,,,,,,,a,Correct!,0,98,98,8,1,t3.png,t2.png,1,0.90855,19,Female,2020-08-26_18h00.52.025,torte-2b,2020.1.3,Win32,60,13445,0.848255,,,,,,,,,,,,,,,,,,,,,,,,,,,,,,,,,,,,,,,,,,,,,,,,,,,,,,,,,,,,,,,,,
,,,,,,,,,,,,,Too slow :(,0,99,99,92,1,t2.png,t3.png,1,0.909,19,Female,2020-08-26_18h00.52.025,torte-2b,2020.1.3,Win32,60,13445,,,,,,,,,,,,,,,,,,,,,,,,,,,,,,,,,,,,,,,,,,,,,,,,,,,,,,,,,,,,,,,,,,
,,,,,,,,,,,,,Too slow :(,0,100,100,27,1,t3.png,t1.png,2,0.0565,19,Female,2020-08-26_18h00.52.025,torte-2b,2020.1.3,Win32,60,13445,,,,,,,,,,,,,,,,,,,,,,,,,,,,,,,,,,,,,,,,,,,,,,,,,,,,,,,,,,,,,,,,,,
,,,,,,,,,,,,l,Incorrect,0,101,101,75,1,t1.png,t1.png,0,0.97829,19,Female,2020-08-26_18h00.52.025,torte-2b,2020.1.3,Win32,60,13445,1.001155,,,,,,,,,,,,,,,,,,,,,,,,,,,,,,,,,,,,,,,,,,,,,,,,,,,,,,,,,,,,,,,,,
,,,,,,,,,,,,l,Correct!,0,102,102,61,1,t1.png,t4.png,3,0.0000131,19,Female,2020-08-26_18h00.52.025,torte-2b,2020.1.3,Win32,60,13445,1.254945,,,,,,,,,,,,,,,,,,,,,,,,,,,,,,,,,,,,,,,,,,,,,,,,,,,,,,,,,,,,,,,,,
,,,,,,,,,,,,l,Correct!,0,103,103,4,1,t1.png,t5.png,4,9.55E-11,19,Female,2020-08-26_18h00.52.025,torte-2b,2020.1.3,Win32,60,13445,0.853345,,,,,,,,,,,,,,,,,,,,,,,,,,,,,,,,,,,,,,,,,,,,,,,,,,,,,,,,,,,,,,,,,
,,,,,,,,,,,,l,Correct!,0,104,104,80,1,t1.png,t4.png,3,0.0000131,19,Female,2020-08-26_18h00.52.025,torte-2b,2020.1.3,Win32,60,13445,0.768225,,,,,,,,,,,,,,,,,,,,,,,,,,,,,,,,,,,,,,,,,,,,,,,,,,,,,,,,,,,,,,,,,
,,,,,,,,,,,,l,Correct!,0,105,105,115,1,t2.png,t4.png,2,0.059078,19,Female,2020-08-26_18h00.52.025,torte-2b,2020.1.3,Win32,60,13445,2.08307,,,,,,,,,,,,,,,,,,,,,,,,,,,,,,,,,,,,,,,,,,,,,,,,,,,,,,,,,,,,,,,,,
,,,,,,,,,,,,l,Correct!,0,106,106,26,1,t4.png,t2.png,2,0.0591,19,Female,2020-08-26_18h00.52.025,torte-2b,2020.1.3,Win32,60,13445,1.670585,,,,,,,,,,,,,,,,,,,,,,,,,,,,,,,,,,,,,,,,,,,,,,,,,,,,,,,,,,,,,,,,,
,,,,,,,,,,,,l,Incorrect,0,107,107,79,1,t3.png,t2.png,1,0.909,19,Female,2020-08-26_18h00.52.025,torte-2b,2020.1.3,Win32,60,13445,0.771375,,,,,,,,,,,,,,,,,,,,,,,,,,,,,,,,,,,,,,,,,,,,,,,,,,,,,,,,,,,,,,,,,
,,,,,,,,,,,,l,Incorrect,0,108,108,18,1,t4.png,t5.png,1,0.90025,19,Female,2020-08-26_18h00.52.025,torte-2b,2020.1.3,Win32,60,13445,1.899395,,,,,,,,,,,,,,,,,,,,,,,,,,,,,,,,,,,,,,,,,,,,,,,,,,,,,,,,,,,,,,,,,
,,,,,,,,,,,,l,Correct!,0,109,109,99,1,t1.png,t5.png,4,9.55E-11,19,Female,2020-08-26_18h00.52.025,torte-2b,2020.1.3,Win32,60,13445,0.967205,,,,,,,,,,,,,,,,,,,,,,,,,,,,,,,,,,,,,,,,,,,,,,,,,,,,,,,,,,,,,,,,,
,,,,,,,,,,,,l,Correct!,0,110,110,67,1,t1.png,t5.png,4,9.55E-11,19,Female,2020-08-26_18h00.52.025,torte-2b,2020.1.3,Win32,60,13445,1.44087,,,,,,,,,,,,,,,,,,,,,,,,,,,,,,,,,,,,,,,,,,,,,,,,,,,,,,,,,,,,,,,,,
,,,,,,,,,,,,l,Correct!,0,111,111,111,1,t5.png,t1.png,4,9.55E-11,19,Female,2020-08-26_18h00.52.025,torte-2b,2020.1.3,Win32,60,13445,1.55497,,,,,,,,,,,,,,,,,,,,,,,,,,,,,,,,,,,,,,,,,,,,,,,,,,,,,,,,,,,,,,,,,
,,,,,,,,,,,,a,Correct!,0,112,112,32,1,t4.png,t5.png,1,0.90025,19,Female,2020-08-26_18h00.52.025,torte-2b,2020.1.3,Win32,60,13445,2.33967,,,,,,,,,,,,,,,,,,,,,,,,,,,,,,,,,,,,,,,,,,,,,,,,,,,,,,,,,,,,,,,,,
,,,,,,,,,,,,l,Correct!,0,113,113,11,1,t1.png,t4.png,3,0.0000131,19,Female,2020-08-26_18h00.52.025,torte-2b,2020.1.3,Win32,60,13445,1.71632,,,,,,,,,,,,,,,,,,,,,,,,,,,,,,,,,,,,,,,,,,,,,,,,,,,,,,,,,,,,,,,,,
,,,,,,,,,,,,l,Incorrect,0,114,114,112,1,t1.png,t1.png,0,0.97829,19,Female,2020-08-26_18h00.52.025,torte-2b,2020.1.3,Win32,60,13445,0.79486,,,,,,,,,,,,,,,,,,,,,,,,,,,,,,,,,,,,,,,,,,,,,,,,,,,,,,,,,,,,,,,,,
,,,,,,,,,,,,l,Incorrect,0,115,115,19,1,t4.png,t2.png,2,0.059078,19,Female,2020-08-26_18h00.52.025,torte-2b,2020.1.3,Win32,60,13445,1.636785,,,,,,,,,,,,,,,,,,,,,,,,,,,,,,,,,,,,,,,,,,,,,,,,,,,,,,,,,,,,,,,,,
,,,,,,,,,,,,a,Correct!,0,116,116,7,1,t4.png,t5.png,1,0.90025,19,Female,2020-08-26_18h00.52.025,torte-2b,2020.1.3,Win32,60,13445,1.481055,,,,,,,,,,,,,,,,,,,,,,,,,,,,,,,,,,,,,,,,,,,,,,,,,,,,,,,,,,,,,,,,,
,,,,,,,,,,,,a,Correct!,0,117,117,59,1,t5.png,t4.png,1,0.9,19,Female,2020-08-26_18h00.52.025,torte-2b,2020.1.3,Win32,60,13445,1.733215,,,,,,,,,,,,,,,,,,,,,,,,,,,,,,,,,,,,,,,,,,,,,,,,,,,,,,,,,,,,,,,,,
,,,,,,,,,,,,a,Incorrect,0,118,118,1,1,t2.png,t4.png,2,0.059078,19,Female,2020-08-26_18h00.52.025,torte-2b,2020.1.3,Win32,60,13445,1.583615,,,,,,,,,,,,,,,,,,,,,,,,,,,,,,,,,,,,,,,,,,,,,,,,,,,,,,,,,,,,,,,,,
,,,,,,,,,,,,a,Correct!,0,119,119,106,1,t2.png,t3.png,1,0.90855,19,Female,2020-08-26_18h00.52.025,torte-2b,2020.1.3,Win32,60,13445,1.13489,,,,,,,,,,,,,,,,,,,,,,,,,,,,,,,,,,,,,,,,,,,,,,,,,,,,,,,,,,,,,,,,,
,,,,,,,,,,,,a,Incorrect,,,,,,t5.png,t3.png,2,0.056466,19,Female,2020-08-26_18h00.52.025,torte-2b,2020.1.3,Win32,60,13445,1.622735,space,2.597925,space,2.136165,0,0,0,56,1,,,,,,,,,,,,,,,,,,,,,,,,,,,,,,,,,,,,,,,,,,,,,,,,,,,,,,,,
,,,,,,,,,,,,l,Correct!,,,,,,t1.png,t3.png,2,0.056466,19,Female,2020-08-26_18h00.52.025,torte-2b,2020.1.3,Win32,60,13445,1.99842,,,,,0,1,1,60,1,,,,,,,,,,,,,,,,,,,,,,,,,,,,,,,,,,,,,,,,,,,,,,,,,,,,,,,,
,,,,,,,,,,,,a,Correct!,,,,,,t2.png,t1.png,1,0.90025,19,Female,2020-08-26_18h00.52.025,torte-2b,2020.1.3,Win32,60,13445,2.021575,,,,,0,2,2,19,1,,,,,,,,,,,,,,,,,,,,,,,,,,,,,,,,,,,,,,,,,,,,,,,,,,,,,,,,
,,,,,,,,,,,,a,Correct!,,,,,,t4.png,t3.png,1,0.90855,19,Female,2020-08-26_18h00.52.025,torte-2b,2020.1.3,Win32,60,13445,1.53505,,,,,0,3,3,45,1,,,,,,,,,,,,,,,,,,,,,,,,,,,,,,,,,,,,,,,,,,,,,,,,,,,,,,,,
,,,,,,,,,,,,,Too slow :(,,,,,,t1.png,t4.png,3,0.0000131,19,Female,2020-08-26_18h00.52.025,torte-2b,2020.1.3,Win32,60,13445,,,,,,0,4,4,92,1,,,,,,,,,,,,,,,,,,,,,,,,,,,,,,,,,,,,,,,,,,,,,,,,,,,,,,,,
,,,,,,,,,,,,l,Correct!,,,,,,t4.png,t2.png,2,0.0591,19,Female,2020-08-26_18h00.52.025,torte-2b,2020.1.3,Win32,60,13445,1.465785,,,,,0,5,5,36,1,,,,,,,,,,,,,,,,,,,,,,,,,,,,,,,,,,,,,,,,,,,,,,,,,,,,,,,,
,,,,,,,,,,,,,Too slow :(,,,,,,t5.png,t4.png,1,0.9,19,Female,2020-08-26_18h00.52.025,torte-2b,2020.1.3,Win32,60,13445,,,,,,0,6,6,76,1,,,,,,,,,,,,,,,,,,,,,,,,,,,,,,,,,,,,,,,,,,,,,,,,,,,,,,,,
,,,,,,,,,,,,l,Correct!,,,,,,t4.png,t1.png,3,0.0000131,19,Female,2020-08-26_18h00.52.025,torte-2b,2020.1.3,Win32,60,13445,2.335415,,,,,0,7,7,48,1,,,,,,,,,,,,,,,,,,,,,,,,,,,,,,,,,,,,,,,,,,,,,,,,,,,,,,,,
,,,,,,,,,,,,l,Correct!,,,,,,t4.png,t2.png,2,0.059078,19,Female,2020-08-26_18h00.52.025,torte-2b,2020.1.3,Win32,60,13445,1.132295,,,,,0,8,8,86,1,,,,,,,,,,,,,,,,,,,,,,,,,,,,,,,,,,,,,,,,,,,,,,,,,,,,,,,,
,,,,,,,,,,,,a,Incorrect,,,,,,t5.png,t1.png,4,9.55E-11,19,Female,2020-08-26_18h00.52.025,torte-2b,2020.1.3,Win32,60,13445,1.27843,,,,,0,9,9,100,1,,,,,,,,,,,,,,,,,,,,,,,,,,,,,,,,,,,,,,,,,,,,,,,,,,,,,,,,
,,,,,,,,,,,,a,Correct!,,,,,,t4.png,t4.png,0,0.98115,19,Female,2020-08-26_18h00.52.025,torte-2b,2020.1.3,Win32,60,13445,1.9666,,,,,0,10,10,90,1,,,,,,,,,,,,,,,,,,,,,,,,,,,,,,,,,,,,,,,,,,,,,,,,,,,,,,,,
,,,,,,,,,,,,l,Correct!,,,,,,t4.png,t2.png,2,0.059078,19,Female,2020-08-26_18h00.52.025,torte-2b,2020.1.3,Win32,60,13445,1.22877,,,,,0,11,11,110,1,,,,,,,,,,,,,,,,,,,,,,,,,,,,,,,,,,,,,,,,,,,,,,,,,,,,,,,,
,,,,,,,,,,,,l,Incorrect,,,,,,t2.png,t3.png,1,0.90855,19,Female,2020-08-26_18h00.52.025,torte-2b,2020.1.3,Win32,60,13445,2.11602,,,,,0,12,12,68,1,,,,,,,,,,,,,,,,,,,,,,,,,,,,,,,,,,,,,,,,,,,,,,,,,,,,,,,,
,,,,,,,,,,,,,Too slow :(,,,,,,t4.png,t5.png,1,0.9,19,Female,2020-08-26_18h00.52.025,torte-2b,2020.1.3,Win32,60,13445,,,,,,0,13,13,115,1,,,,,,,,,,,,,,,,,,,,,,,,,,,,,,,,,,,,,,,,,,,,,,,,,,,,,,,,
,,,,,,,,,,,,a,Incorrect,,,,,,t5.png,t2.png,3,0.0000131,19,Female,2020-08-26_18h00.52.025,torte-2b,2020.1.3,Win32,60,13445,1.75203,,,,,0,14,14,116,1,,,,,,,,,,,,,,,,,,,,,,,,,,,,,,,,,,,,,,,,,,,,,,,,,,,,,,,,
,,,,,,,,,,,,l,Incorrect,,,,,,t4.png,t5.png,1,0.90025,19,Female,2020-08-26_18h00.52.025,torte-2b,2020.1.3,Win32,60,13445,1.56431,,,,,0,15,15,113,1,,,,,,,,,,,,,,,,,,,,,,,,,,,,,,,,,,,,,,,,,,,,,,,,,,,,,,,,
,,,,,,,,,,,,a,Incorrect,,,,,,t1.png,t3.png,2,0.056466,19,Female,2020-08-26_18h00.52.025,torte-2b,2020.1.3,Win32,60,13445,1.55079,,,,,0,16,16,87,1,,,,,,,,,,,,,,,,,,,,,,,,,,,,,,,,,,,,,,,,,,,,,,,,,,,,,,,,
,,,,,,,,,,,,l,Correct!,,,,,,t2.png,t5.png,3,0.0000131,19,Female,2020-08-26_18h00.52.025,torte-2b,2020.1.3,Win32,60,13445,1.815055,,,,,0,17,17,40,1,,,,,,,,,,,,,,,,,,,,,,,,,,,,,,,,,,,,,,,,,,,,,,,,,,,,,,,,
,,,,,,,,,,,,a,Correct!,,,,,,t2.png,t3.png,1,0.90855,19,Female,2020-08-26_18h00.52.025,torte-2b,2020.1.3,Win32,60,13445,2.118805,,,,,0,18,18,10,1,,,,,,,,,,,,,,,,,,,,,,,,,,,,,,,,,,,,,,,,,,,,,,,,,,,,,,,,
,,,,,,,,,,,,a,Incorrect,,,,,,t1.png,t5.png,4,9.55E-11,19,Female,2020-08-26_18h00.52.025,torte-2b,2020.1.3,Win32,60,13445,1.920495,,,,,0,19,19,85,1,,,,,,,,,,,,,,,,,,,,,,,,,,,,,,,,,,,,,,,,,,,,,,,,,,,,,,,,
,,,,,,,,,,,,a,Correct!,,,,,,t4.png,t3.png,1,0.909,19,Female,2020-08-26_18h00.52.025,torte-2b,2020.1.3,Win32,60,13445,1.603095,,,,,0,20,20,20,1,,,,,,,,,,,,,,,,,,,,,,,,,,,,,,,,,,,,,,,,,,,,,,,,,,,,,,,,
,,,,,,,,,,,,l,Correct!,,,,,,t2.png,t4.png,2,0.059078,19,Female,2020-08-26_18h00.52.025,torte-2b,2020.1.3,Win32,60,13445,2.34923,,,,,0,21,21,77,1,,,,,,,,,,,,,,,,,,,,,,,,,,,,,,,,,,,,,,,,,,,,,,,,,,,,,,,,
,,,,,,,,,,,,a,Incorrect,,,,,,t3.png,t5.png,2,0.056466,19,Female,2020-08-26_18h00.52.025,torte-2b,2020.1.3,Win32,60,13445,2.13723,,,,,0,22,22,14,1,,,,,,,,,,,,,,,,,,,,,,,,,,,,,,,,,,,,,,,,,,,,,,,,,,,,,,,,
,,,,,,,,,,,,l,Incorrect,,,,,,t2.png,t2.png,0,0.98115,19,Female,2020-08-26_18h00.52.025,torte-2b,2020.1.3,Win32,60,13445,1.400685,,,,,0,23,23,59,1,,,,,,,,,,,,,,,,,,,,,,,,,,,,,,,,,,,,,,,,,,,,,,,,,,,,,,,,
,,,,,,,,,,,,,Too slow :(,,,,,,t3.png,t5.png,2,0.056466,19,Female,2020-08-26_18h00.52.025,torte-2b,2020.1.3,Win32,60,13445,,,,,,0,24,24,44,1,,,,,,,,,,,,,,,,,,,,,,,,,,,,,,,,,,,,,,,,,,,,,,,,,,,,,,,,
,,,,,,,,,,,,l,Incorrect,,,,,,t1.png,t2.png,1,0.9,19,Female,2020-08-26_18h00.52.025,torte-2b,2020.1.3,Win32,60,13445,2.23287,,,,,0,25,25,1,1,,,,,,,,,,,,,,,,,,,,,,,,,,,,,,,,,,,,,,,,,,,,,,,,,,,,,,,,
,,,,,,,,,,,,a,Incorrect,,,,,,t3.png,t1.png,2,0.056466,19,Female,2020-08-26_18h00.52.025,torte-2b,2020.1.3,Win32,60,13445,0.9324,,,,,0,26,26,0,1,,,,,,,,,,,,,,,,,,,,,,,,,,,,,,,,,,,,,,,,,,,,,,,,,,,,,,,,
,,,,,,,,,,,,a,Incorrect,,,,,,t1.png,t3.png,2,0.056466,19,Female,2020-08-26_18h00.52.025,torte-2b,2020.1.3,Win32,60,13445,1.092295,,,,,0,27,27,99,1,,,,,,,,,,,,,,,,,,,,,,,,,,,,,,,,,,,,,,,,,,,,,,,,,,,,,,,,
,,,,,,,,,,,,l,Incorrect,,,,,,t3.png,t2.png,1,0.90855,19,Female,2020-08-26_18h00.52.025,torte-2b,2020.1.3,Win32,60,13445,2.099355,,,,,0,28,28,18,1,,,,,,,,,,,,,,,,,,,,,,,,,,,,,,,,,,,,,,,,,,,,,,,,,,,,,,,,
,,,,,,,,,,,,a,Incorrect,,,,,,t1.png,t3.png,2,0.056466,19,Female,2020-08-26_18h00.52.025,torte-2b,2020.1.3,Win32,60,13445,1.849275,,,,,0,29,29,63,1,,,,,,,,,,,,,,,,,,,,,,,,,,,,,,,,,,,,,,,,,,,,,,,,,,,,,,,,
,,,,,,,,,,,,l,Incorrect,,,,,,t1.png,t2.png,1,0.90025,19,Female,2020-08-26_18h00.52.025,torte-2b,2020.1.3,Win32,60,13445,2.351195,,,,,0,30,30,105,1,,,,,,,,,,,,,,,,,,,,,,,,,,,,,,,,,,,,,,,,,,,,,,,,,,,,,,,,
,,,,,,,,,,,,l,Correct!,,,,,,t1.png,t5.png,4,9.55E-11,19,Female,2020-08-26_18h00.52.025,torte-2b,2020.1.3,Win32,60,13445,2.081595,,,,,0,31,31,41,1,,,,,,,,,,,,,,,,,,,,,,,,,,,,,,,,,,,,,,,,,,,,,,,,,,,,,,,,
,,,,,,,,,,,,l,Incorrect,,,,,,t3.png,t2.png,1,0.909,19,Female,2020-08-26_18h00.52.025,torte-2b,2020.1.3,Win32,60,13445,1.771435,,,,,0,32,32,23,1,,,,,,,,,,,,,,,,,,,,,,,,,,,,,,,,,,,,,,,,,,,,,,,,,,,,,,,,
,,,,,,,,,,,,,Too slow :(,,,,,,t2.png,t5.png,3,0.0000131,19,Female,2020-08-26_18h00.52.025,torte-2b,2020.1.3,Win32,60,13445,,,,,,0,33,33,8,1,,,,,,,,,,,,,,,,,,,,,,,,,,,,,,,,,,,,,,,,,,,,,,,,,,,,,,,,
,,,,,,,,,,,,,Too slow :(,,,,,,t2.png,t1.png,1,0.90025,19,Female,2020-08-26_18h00.52.025,torte-2b,2020.1.3,Win32,60,13445,,,,,,0,34,34,5,1,,,,,,,,,,,,,,,,,,,,,,,,,,,,,,,,,,,,,,,,,,,,,,,,,,,,,,,,
,,,,,,,,,,,,a,Incorrect,,,,,,t1.png,t3.png,2,0.056466,19,Female,2020-08-26_18h00.52.025,torte-2b,2020.1.3,Win32,60,13445,1.705695,,,,,0,35,35,69,1,,,,,,,,,,,,,,,,,,,,,,,,,,,,,,,,,,,,,,,,,,,,,,,,,,,,,,,,
,,,,,,,,,,,,l,Incorrect,,,,,,t2.png,t2.png,0,0.981,19,Female,2020-08-26_18h00.52.025,torte-2b,2020.1.3,Win32,60,13445,1.48371,,,,,0,36,36,101,1,,,,,,,,,,,,,,,,,,,,,,,,,,,,,,,,,,,,,,,,,,,,,,,,,,,,,,,,
,,,,,,,,,,,,,Too slow :(,,,,,,t2.png,t5.png,3,0.0000131,19,Female,2020-08-26_18h00.52.025,torte-2b,2020.1.3,Win32,60,13445,,,,,,0,37,37,104,1,,,,,,,,,,,,,,,,,,,,,,,,,,,,,,,,,,,,,,,,,,,,,,,,,,,,,,,,
,,,,,,,,,,,,l,Incorrect,,,,,,t5.png,t5.png,0,0.97829,19,Female,2020-08-26_18h00.52.025,torte-2b,2020.1.3,Win32,60,13445,1.52462,,,,,0,38,38,94,1,,,,,,,,,,,,,,,,,,,,,,,,,,,,,,,,,,,,,,,,,,,,,,,,,,,,,,,,
,,,,,,,,,,,,a,Incorrect,,,,,,t1.png,t2.png,1,0.90025,19,Female,2020-08-26_18h00.52.025,torte-2b,2020.1.3,Win32,60,13445,1.888205,,,,,0,39,39,112,1,,,,,,,,,,,,,,,,,,,,,,,,,,,,,,,,,,,,,,,,,,,,,,,,,,,,,,,,
,,,,,,,,,,,,l,Correct!,,,,,,t4.png,t1.png,3,0.0000131,19,Female,2020-08-26_18h00.52.025,torte-2b,2020.1.3,Win32,60,13445,2.08833,,,,,0,40,40,93,1,,,,,,,,,,,,,,,,,,,,,,,,,,,,,,,,,,,,,,,,,,,,,,,,,,,,,,,,
,,,,,,,,,,,,a,Correct!,,,,,,t3.png,t2.png,1,0.90855,19,Female,2020-08-26_18h00.52.025,torte-2b,2020.1.3,Win32,60,13445,0.916585,,,,,0,41,41,97,1,,,,,,,,,,,,,,,,,,,,,,,,,,,,,,,,,,,,,,,,,,,,,,,,,,,,,,,,
,,,,,,,,,,,,l,Correct!,,,,,,t2.png,t4.png,2,0.059078,19,Female,2020-08-26_18h00.52.025,torte-2b,2020.1.3,Win32,60,13445,1.20006,,,,,0,42,42,24,1,,,,,,,,,,,,,,,,,,,,,,,,,,,,,,,,,,,,,,,,,,,,,,,,,,,,,,,,
,,,,,,,,,,,,l,Correct!,,,,,,t5.png,t3.png,2,0.056466,19,Female,2020-08-26_18h00.52.025,torte-2b,2020.1.3,Win32,60,13445,1.684325,,,,,0,43,43,108,1,,,,,,,,,,,,,,,,,,,,,,,,,,,,,,,,,,,,,,,,,,,,,,,,,,,,,,,,
,,,,,,,,,,,,a,Correct!,,,,,,t2.png,t3.png,1,0.909,19,Female,2020-08-26_18h00.52.025,torte-2b,2020.1.3,Win32,60,13445,1.73124,,,,,0,44,44,74,1,,,,,,,,,,,,,,,,,,,,,,,,,,,,,,,,,,,,,,,,,,,,,,,,,,,,,,,,
,,,,,,,,,,,,l,Correct!,,,,,,t1.png,t5.png,4,9.55E-11,19,Female,2020-08-26_18h00.52.025,torte-2b,2020.1.3,Win32,60,13445,1.84835,,,,,0,45,45,55,1,,,,,,,,,,,,,,,,,,,,,,,,,,,,,,,,,,,,,,,,,,,,,,,,,,,,,,,,
,,,,,,,,,,,,a,Incorrect,,,,,,t2.png,t4.png,2,0.059078,19,Female,2020-08-26_18h00.52.025,torte-2b,2020.1.3,Win32,60,13445,1.915805,,,,,0,46,46,37,1,,,,,,,,,,,,,,,,,,,,,,,,,,,,,,,,,,,,,,,,,,,,,,,,,,,,,,,,
,,,,,,,,,,,,l,Correct!,,,,,,t4.png,t5.png,1,0.90025,19,Female,2020-08-26_18h00.52.025,torte-2b,2020.1.3,Win32,60,13445,0.765625,,,,,0,47,47,47,1,,,,,,,,,,,,,,,,,,,,,,,,,,,,,,,,,,,,,,,,,,,,,,,,,,,,,,,,
,,,,,,,,,,,,a,Incorrect,,,,,,t5.png,t1.png,4,9.55E-11,19,Female,2020-08-26_18h00.52.025,torte-2b,2020.1.3,Win32,60,13445,0.971015,,,,,0,48,48,102,1,,,,,,,,,,,,,,,,,,,,,,,,,,,,,,,,,,,,,,,,,,,,,,,,,,,,,,,,
,,,,,,,,,,,,l,Incorrect,,,,,,t4.png,t4.png,0,0.98115,19,Female,2020-08-26_18h00.52.025,torte-2b,2020.1.3,Win32,60,13445,1.182965,,,,,0,49,49,21,1,,,,,,,,,,,,,,,,,,,,,,,,,,,,,,,,,,,,,,,,,,,,,,,,,,,,,,,,
,,,,,,,,,,,,a,Correct!,,,,,,t5.png,t3.png,2,0.0565,19,Female,2020-08-26_18h00.52.025,torte-2b,2020.1.3,Win32,60,13445,2.15271,,,,,0,50,50,39,1,,,,,,,,,,,,,,,,,,,,,,,,,,,,,,,,,,,,,,,,,,,,,,,,,,,,,,,,
,,,,,,,,,,,,l,Correct!,,,,,,t5.png,t2.png,3,0.0000131,19,Female,2020-08-26_18h00.52.025,torte-2b,2020.1.3,Win32,60,13445,1.19067,,,,,0,51,51,98,1,,,,,,,,,,,,,,,,,,,,,,,,,,,,,,,,,,,,,,,,,,,,,,,,,,,,,,,,
,,,,,,,,,,,,a,Correct!,,,,,,t3.png,t2.png,1,0.909,19,Female,2020-08-26_18h00.52.025,torte-2b,2020.1.3,Win32,60,13445,1.668905,,,,,0,52,52,3,1,,,,,,,,,,,,,,,,,,,,,,,,,,,,,,,,,,,,,,,,,,,,,,,,,,,,,,,,
,,,,,,,,,,,,a,Correct!,,,,,,t4.png,t4.png,0,0.98115,19,Female,2020-08-26_18h00.52.025,torte-2b,2020.1.3,Win32,60,13445,2.450885,,,,,0,53,53,52,1,,,,,,,,,,,,,,,,,,,,,,,,,,,,,,,,,,,,,,,,,,,,,,,,,,,,,,,,
,,,,,,,,,,,,l,Correct!,,,,,,t5.png,t1.png,4,9.55E-11,19,Female,2020-08-26_18h00.52.025,torte-2b,2020.1.3,Win32,60,13445,2.283395,,,,,0,54,54,71,1,,,,,,,,,,,,,,,,,,,,,,,,,,,,,,,,,,,,,,,,,,,,,,,,,,,,,,,,
,,,,,,,,,,,,a,Correct!,,,,,,t4.png,t4.png,0,0.98115,19,Female,2020-08-26_18h00.52.025,torte-2b,2020.1.3,Win32,60,13445,1.316865,,,,,0,55,55,80,1,,,,,,,,,,,,,,,,,,,,,,,,,,,,,,,,,,,,,,,,,,,,,,,,,,,,,,,,
,,,,,,,,,,,,a,Incorrect,,,,,,t1.png,t5.png,4,9.55E-11,19,Female,2020-08-26_18h00.52.025,torte-2b,2020.1.3,Win32,60,13445,1.31742,,,,,0,56,56,16,1,,,,,,,,,,,,,,,,,,,,,,,,,,,,,,,,,,,,,,,,,,,,,,,,,,,,,,,,
,,,,,,,,,,,,l,Correct!,,,,,,t2.png,t5.png,3,0.0000131,19,Female,2020-08-26_18h00.52.025,torte-2b,2020.1.3,Win32,60,13445,1.783795,,,,,0,57,57,66,1,,,,,,,,,,,,,,,,,,,,,,,,,,,,,,,,,,,,,,,,,,,,,,,,,,,,,,,,
,,,,,,,,,,,,l,Correct!,,,,,,t4.png,t2.png,2,0.059078,19,Female,2020-08-26_18h00.52.025,torte-2b,2020.1.3,Win32,60,13445,1.76637,,,,,0,58,58,88,1,,,,,,,,,,,,,,,,,,,,,,,,,,,,,,,,,,,,,,,,,,,,,,,,,,,,,,,,
,,,,,,,,,,,,a,Correct!,,,,,,t3.png,t4.png,1,0.909,19,Female,2020-08-26_18h00.52.025,torte-2b,2020.1.3,Win32,60,13445,1.005125,,,,,0,59,59,82,1,,,,,,,,,,,,,,,,,,,,,,,,,,,,,,,,,,,,,,,,,,,,,,,,,,,,,,,,
,,,,,,,,,,,,a,Incorrect,,,,,,t4.png,t1.png,3,0.0000131,19,Female,2020-08-26_18h00.52.025,torte-2b,2020.1.3,Win32,60,13445,2.183065,,,,,0,60,60,42,1,,,,,,,,,,,,,,,,,,,,,,,,,,,,,,,,,,,,,,,,,,,,,,,,,,,,,,,,
,,,,,,,,,,,,a,Incorrect,,,,,,t5.png,t3.png,2,0.056466,19,Female,2020-08-26_18h00.52.025,torte-2b,2020.1.3,Win32,60,13445,1.41954,,,,,0,61,61,38,1,,,,,,,,,,,,,,,,,,,,,,,,,,,,,,,,,,,,,,,,,,,,,,,,,,,,,,,,
,,,,,,,,,,,,l,Correct!,,,,,,t1.png,t4.png,3,0.0000131,19,Female,2020-08-26_18h00.52.025,torte-2b,2020.1.3,Win32,60,13445,1.133665,,,,,0,62,62,81,1,,,,,,,,,,,,,,,,,,,,,,,,,,,,,,,,,,,,,,,,,,,,,,,,,,,,,,,,
,,,,,,,,,,,,a,Correct!,,,,,,t3.png,t4.png,1,0.90855,19,Female,2020-08-26_18h00.52.025,torte-2b,2020.1.3,Win32,60,13445,1.22451,,,,,0,63,63,84,1,,,,,,,,,,,,,,,,,,,,,,,,,,,,,,,,,,,,,,,,,,,,,,,,,,,,,,,,
,,,,,,,,,,,,l,Incorrect,,,,,,t2.png,t1.png,1,0.9,19,Female,2020-08-26_18h00.52.025,torte-2b,2020.1.3,Win32,60,13445,1.100895,,,,,0,64,64,118,1,,,,,,,,,,,,,,,,,,,,,,,,,,,,,,,,,,,,,,,,,,,,,,,,,,,,,,,,
,,,,,,,,,,,,l,Incorrect,,,,,,t2.png,t2.png,0,0.98115,19,Female,2020-08-26_18h00.52.025,torte-2b,2020.1.3,Win32,60,13445,1.683465,,,,,0,65,65,2,1,,,,,,,,,,,,,,,,,,,,,,,,,,,,,,,,,,,,,,,,,,,,,,,,,,,,,,,,
,,,,,,,,,,,,a,Correct!,,,,,,t4.png,t3.png,1,0.909,19,Female,2020-08-26_18h00.52.025,torte-2b,2020.1.3,Win32,60,13445,1.526835,,,,,0,66,66,46,1,,,,,,,,,,,,,,,,,,,,,,,,,,,,,,,,,,,,,,,,,,,,,,,,,,,,,,,,
,,,,,,,,,,,,a,Incorrect,,,,,,t3.png,t5.png,2,0.056466,19,Female,2020-08-26_18h00.52.025,torte-2b,2020.1.3,Win32,60,13445,2.19996,,,,,0,67,67,6,1,,,,,,,,,,,,,,,,,,,,,,,,,,,,,,,,,,,,,,,,,,,,,,,,,,,,,,,,
,,,,,,,,,,,,l,Incorrect,,,,,,t4.png,t5.png,1,0.90025,19,Female,2020-08-26_18h00.52.025,torte-2b,2020.1.3,Win32,60,13445,1.163825,,,,,0,68,68,58,1,,,,,,,,,,,,,,,,,,,,,,,,,,,,,,,,,,,,,,,,,,,,,,,,,,,,,,,,
,,,,,,,,,,,,l,Incorrect,,,,,,t1.png,t1.png,0,0.97829,19,Female,2020-08-26_18h00.52.025,torte-2b,2020.1.3,Win32,60,13445,1.061855,,,,,0,69,69,9,1,,,,,,,,,,,,,,,,,,,,,,,,,,,,,,,,,,,,,,,,,,,,,,,,,,,,,,,,
,,,,,,,,,,,,a,Correct!,,,,,,t3.png,t4.png,1,0.90855,19,Female,2020-08-26_18h00.52.025,torte-2b,2020.1.3,Win32,60,13445,2.420855,,,,,0,70,70,96,1,,,,,,,,,,,,,,,,,,,,,,,,,,,,,,,,,,,,,,,,,,,,,,,,,,,,,,,,
,,,,,,,,,,,,l,Incorrect,,,,,,t1.png,t2.png,1,0.90025,19,Female,2020-08-26_18h00.52.025,torte-2b,2020.1.3,Win32,60,13445,0.83702,,,,,0,71,71,33,1,,,,,,,,,,,,,,,,,,,,,,,,,,,,,,,,,,,,,,,,,,,,,,,,,,,,,,,,
,,,,,,,,,,,,l,Incorrect,,,,,,t5.png,t5.png,0,0.978,19,Female,2020-08-26_18h00.52.025,torte-2b,2020.1.3,Win32,60,13445,1.859535,,,,,0,72,72,117,1,,,,,,,,,,,,,,,,,,,,,,,,,,,,,,,,,,,,,,,,,,,,,,,,,,,,,,,,
,,,,,,,,,,,,a,Correct!,,,,,,t1.png,t1.png,0,0.97829,19,Female,2020-08-26_18h00.52.025,torte-2b,2020.1.3,Win32,60,13445,1.852505,,,,,0,73,73,78,1,,,,,,,,,,,,,,,,,,,,,,,,,,,,,,,,,,,,,,,,,,,,,,,,,,,,,,,,
,,,,,,,,,,,,l,Correct!,,,,,,t4.png,t2.png,2,0.059078,19,Female,2020-08-26_18h00.52.025,torte-2b,2020.1.3,Win32,60,13445,1.70201,,,,,0,74,74,109,1,,,,,,,,,,,,,,,,,,,,,,,,,,,,,,,,,,,,,,,,,,,,,,,,,,,,,,,,
,,,,,,,,,,,,a,Correct!,,,,,,t2.png,t1.png,1,0.90025,19,Female,2020-08-26_18h00.52.025,torte-2b,2020.1.3,Win32,60,13445,1.83026,,,,,0,75,75,62,1,,,,,,,,,,,,,,,,,,,,,,,,,,,,,,,,,,,,,,,,,,,,,,,,,,,,,,,,
,,,,,,,,,,,,a,Incorrect,,,,,,t3.png,t5.png,2,0.0565,19,Female,2020-08-26_18h00.52.025,torte-2b,2020.1.3,Win32,60,13445,0.816475,,,,,0,76,76,30,1,,,,,,,,,,,,,,,,,,,,,,,,,,,,,,,,,,,,,,,,,,,,,,,,,,,,,,,,
,,,,,,,,,,,,,Too slow :(,,,,,,t1.png,t4.png,3,0.0000131,19,Female,2020-08-26_18h00.52.025,torte-2b,2020.1.3,Win32,60,13445,,,,,,0,77,77,50,1,,,,,,,,,,,,,,,,,,,,,,,,,,,,,,,,,,,,,,,,,,,,,,,,,,,,,,,,
,,,,,,,,,,,,a,Incorrect,,,,,,t4.png,t1.png,3,0.0000131,19,Female,2020-08-26_18h00.52.025,torte-2b,2020.1.3,Win32,60,13445,1.929635,,,,,0,78,78,61,1,,,,,,,,,,,,,,,,,,,,,,,,,,,,,,,,,,,,,,,,,,,,,,,,,,,,,,,,
,,,,,,,,,,,,a,Correct!,,,,,,t3.png,t1.png,2,0.056466,19,Female,2020-08-26_18h00.52.025,torte-2b,2020.1.3,Win32,60,13445,1.556855,,,,,0,79,79,29,1,,,,,,,,,,,,,,,,,,,,,,,,,,,,,,,,,,,,,,,,,,,,,,,,,,,,,,,,
,,,,,,,,,,,,a,Correct!,,,,,,t5.png,t5.png,0,0.97829,19,Female,2020-08-26_18h00.52.025,torte-2b,2020.1.3,Win32,60,13445,1.732535,,,,,0,80,80,25,1,,,,,,,,,,,,,,,,,,,,,,,,,,,,,,,,,,,,,,,,,,,,,,,,,,,,,,,,
,,,,,,,,,,,,l,Incorrect,,,,,,t2.png,t4.png,2,0.059078,19,Female,2020-08-26_18h00.52.025,torte-2b,2020.1.3,Win32,60,13445,1.28538,,,,,0,81,81,11,1,,,,,,,,,,,,,,,,,,,,,,,,,,,,,,,,,,,,,,,,,,,,,,,,,,,,,,,,
,,,,,,,,,,,,a,Incorrect,,,,,,t3.png,t1.png,2,0.0565,19,Female,2020-08-26_18h00.52.025,torte-2b,2020.1.3,Win32,60,13445,0.866145,,,,,0,82,82,31,1,,,,,,,,,,,,,,,,,,,,,,,,,,,,,,,,,,,,,,,,,,,,,,,,,,,,,,,,
,,,,,,,,,,,,a,Correct!,,,,,,t5.png,t4.png,1,0.9,19,Female,2020-08-26_18h00.52.025,torte-2b,2020.1.3,Win32,60,13445,1.9473,,,,,0,83,83,49,1,,,,,,,,,,,,,,,,,,,,,,,,,,,,,,,,,,,,,,,,,,,,,,,,,,,,,,,,
,,,,,,,,,,,,a,Incorrect,,,,,,t3.png,t5.png,2,0.0565,19,Female,2020-08-26_18h00.52.025,torte-2b,2020.1.3,Win32,60,13445,0.825,,,,,0,84,84,83,1,,,,,,,,,,,,,,,,,,,,,,,,,,,,,,,,,,,,,,,,,,,,,,,,,,,,,,,,
,,,,,,,,,,,,a,Correct!,,,,,,t3.png,t4.png,1,0.909,19,Female,2020-08-26_18h00.52.025,torte-2b,2020.1.3,Win32,60,13445,0.731395,,,,,0,85,85,106,1,,,,,,,,,,,,,,,,,,,,,,,,,,,,,,,,,,,,,,,,,,,,,,,,,,,,,,,,
,,,,,,,,,,,,a,Correct!,,,,,,t5.png,t5.png,0,0.97829,19,Female,2020-08-26_18h00.52.025,torte-2b,2020.1.3,Win32,60,13445,1.384865,,,,,0,86,86,73,1,,,,,,,,,,,,,,,,,,,,,,,,,,,,,,,,,,,,,,,,,,,,,,,,,,,,,,,,
,,,,,,,,,,,,l,Correct!,,,,,,t5.png,t1.png,4,9.55E-11,19,Female,2020-08-26_18h00.52.025,torte-2b,2020.1.3,Win32,60,13445,2.337575,,,,,0,87,87,22,1,,,,,,,,,,,,,,,,,,,,,,,,,,,,,,,,,,,,,,,,,,,,,,,,,,,,,,,,
,,,,,,,,,,,,l,Correct!,,,,,,t1.png,t4.png,3,0.0000131,19,Female,2020-08-26_18h00.52.025,torte-2b,2020.1.3,Win32,60,13445,1.174435,,,,,0,88,88,17,1,,,,,,,,,,,,,,,,,,,,,,,,,,,,,,,,,,,,,,,,,,,,,,,,,,,,,,,,
,,,,,,,,,,,,,Too slow :(,,,,,,t5.png,t2.png,3,0.0000131,19,Female,2020-08-26_18h00.52.025,torte-2b,2020.1.3,Win32,60,13445,,,,,,0,89,89,51,1,,,,,,,,,,,,,,,,,,,,,,,,,,,,,,,,,,,,,,,,,,,,,,,,,,,,,,,,
,,,,,,,,,,,,l,Incorrect,,,,,,t2.png,t3.png,1,0.90855,19,Female,2020-08-26_18h00.52.025,torte-2b,2020.1.3,Win32,60,13445,0.697835,,,,,0,90,90,65,1,,,,,,,,,,,,,,,,,,,,,,,,,,,,,,,,,,,,,,,,,,,,,,,,,,,,,,,,
,,,,,,,,,,,,,Too slow :(,,,,,,t5.png,t5.png,0,0.97829,19,Female,2020-08-26_18h00.52.025,torte-2b,2020.1.3,Win32,60,13445,,,,,,0,91,91,70,1,,,,,,,,,,,,,,,,,,,,,,,,,,,,,,,,,,,,,,,,,,,,,,,,,,,,,,,,
,,,,,,,,,,,,,Too slow :(,,,,,,t1.png,t2.png,1,0.90025,19,Female,2020-08-26_18h00.52.025,torte-2b,2020.1.3,Win32,60,13445,,,,,,0,92,92,72,1,,,,,,,,,,,,,,,,,,,,,,,,,,,,,,,,,,,,,,,,,,,,,,,,,,,,,,,,
,,,,,,,,,,,,,Too slow :(,,,,,,t5.png,t4.png,1,0.90025,19,Female,2020-08-26_18h00.52.025,torte-2b,2020.1.3,Win32,60,13445,,,,,,0,93,93,26,1,,,,,,,,,,,,,,,,,,,,,,,,,,,,,,,,,,,,,,,,,,,,,,,,,,,,,,,,
,,,,,,,,,,,,l,Incorrect,,,,,,t2.png,t2.png,0,0.98115,19,Female,2020-08-26_18h00.52.025,torte-2b,2020.1.3,Win32,60,13445,1.736775,,,,,0,94,94,57,1,,,,,,,,,,,,,,,,,,,,,,,,,,,,,,,,,,,,,,,,,,,,,,,,,,,,,,,,
,,,,,,,,,,,,l,Correct!,,,,,,t2.png,t5.png,3,0.0000131,19,Female,2020-08-26_18h00.52.025,torte-2b,2020.1.3,Win32,60,13445,1.666495,,,,,0,95,95,95,1,,,,,,,,,,,,,,,,,,,,,,,,,,,,,,,,,,,,,,,,,,,,,,,,,,,,,,,,
,,,,,,,,,,,,,Too slow :(,,,,,,t1.png,t5.png,4,9.55E-11,19,Female,2020-08-26_18h00.52.025,torte-2b,2020.1.3,Win32,60,13445,,,,,,0,96,96,12,1,,,,,,,,,,,,,,,,,,,,,,,,,,,,,,,,,,,,,,,,,,,,,,,,,,,,,,,,
,,,,,,,,,,,,a,Correct!,,,,,,t1.png,t1.png,0,0.978,19,Female,2020-08-26_18h00.52.025,torte-2b,2020.1.3,Win32,60,13445,2.08355,,,,,0,97,97,54,1,,,,,,,,,,,,,,,,,,,,,,,,,,,,,,,,,,,,,,,,,,,,,,,,,,,,,,,,
,,,,,,,,,,,,l,Incorrect,,,,,,t2.png,t1.png,1,0.90025,19,Female,2020-08-26_18h00.52.025,torte-2b,2020.1.3,Win32,60,13445,1.520155,,,,,0,98,98,4,1,,,,,,,,,,,,,,,,,,,,,,,,,,,,,,,,,,,,,,,,,,,,,,,,,,,,,,,,
,,,,,,,,,,,,,Too slow :(,,,,,,t4.png,t3.png,1,0.90855,19,Female,2020-08-26_18h00.52.025,torte-2b,2020.1.3,Win32,60,13445,,,,,,0,99,99,35,1,,,,,,,,,,,,,,,,,,,,,,,,,,,,,,,,,,,,,,,,,,,,,,,,,,,,,,,,
,,,,,,,,,,,,a,Correct!,,,,,,t4.png,t3.png,1,0.90855,19,Female,2020-08-26_18h00.52.025,torte-2b,2020.1.3,Win32,60,13445,1.56586,,,,,0,100,100,75,1,,,,,,,,,,,,,,,,,,,,,,,,,,,,,,,,,,,,,,,,,,,,,,,,,,,,,,,,
,,,,,,,,,,,,a,Incorrect,,,,,,t3.png,t4.png,1,0.909,19,Female,2020-08-26_18h00.52.025,torte-2b,2020.1.3,Win32,60,13445,1.341265,,,,,0,101,101,89,1,,,,,,,,,,,,,,,,,,,,,,,,,,,,,,,,,,,,,,,,,,,,,,,,,,,,,,,,
,,,,,,,,,,,,,Too slow :(,,,,,,t3.png,t2.png,1,0.90855,19,Female,2020-08-26_18h00.52.025,torte-2b,2020.1.3,Win32,60,13445,,,,,,0,102,102,53,1,,,,,,,,,,,,,,,,,,,,,,,,,,,,,,,,,,,,,,,,,,,,,,,,,,,,,,,,
,,,,,,,,,,,,l,Correct!,,,,,,t5.png,t4.png,1,0.90025,19,Female,2020-08-26_18h00.52.025,torte-2b,2020.1.3,Win32,60,13445,1.85062,,,,,0,103,103,27,1,,,,,,,,,,,,,,,,,,,,,,,,,,,,,,,,,,,,,,,,,,,,,,,,,,,,,,,,
,,,,,,,,,,,,l,Incorrect,,,,,,t5.png,t4.png,1,0.90025,19,Female,2020-08-26_18h00.52.025,torte-2b,2020.1.3,Win32,60,13445,1.606705,,,,,0,104,104,34,1,,,,,,,,,,,,,,,,,,,,,,,,,,,,,,,,,,,,,,,,,,,,,,,,,,,,,,,,
,,,,,,,,,,,,a,Incorrect,,,,,,t3.png,t1.png,2,0.056466,19,Female,2020-08-26_18h00.52.025,torte-2b,2020.1.3,Win32,60,13445,0.852,,,,,0,105,105,64,1,,,,,,,,,,,,,,,,,,,,,,,,,,,,,,,,,,,,,,,,,,,,,,,,,,,,,,,,
,,,,,,,,,,,,l,Correct!,,,,,,t2.png,t4.png,2,0.0591,19,Female,2020-08-26_18h00.52.025,torte-2b,2020.1.3,Win32,60,13445,1.682535,,,,,0,106,106,15,1,,,,,,,,,,,,,,,,,,,,,,,,,,,,,,,,,,,,,,,,,,,,,,,,,,,,,,,,
,,,,,,,,,,,,l,Incorrect,,,,,,t2.png,t2.png,0,0.98115,19,Female,2020-08-26_18h00.52.025,torte-2b,2020.1.3,Win32,60,13445,0.7947,,,,,0,107,107,7,1,,,,,,,,,,,,,,,,,,,,,,,,,,,,,,,,,,,,,,,,,,,,,,,,,,,,,,,,
,,,,,,,,,,,,a,Incorrect,,,,,,t4.png,t1.png,3,0.0000131,19,Female,2020-08-26_18h00.52.025,torte-2b,2020.1.3,Win32,60,13445,0.95082,,,,,0,108,108,13,1,,,,,,,,,,,,,,,,,,,,,,,,,,,,,,,,,,,,,,,,,,,,,,,,,,,,,,,,
,,,,,,,,,,,,,Too slow :(,,,,,,t5.png,t1.png,4,9.55E-11,19,Female,2020-08-26_18h00.52.025,torte-2b,2020.1.3,Win32,60,13445,,,,,,0,109,109,43,1,,,,,,,,,,,,,,,,,,,,,,,,,,,,,,,,,,,,,,,,,,,,,,,,,,,,,,,,
,,,,,,,,,,,,l,Incorrect,,,,,,t1.png,t1.png,0,0.978,19,Female,2020-08-26_18h00.52.025,torte-2b,2020.1.3,Win32,60,13445,0.63889,,,,,0,110,110,28,1,,,,,,,,,,,,,,,,,,,,,,,,,,,,,,,,,,,,,,,,,,,,,,,,,,,,,,,,
,,,,,,,,,,,,,Too slow :(,,,,,,t4.png,t4.png,0,0.98115,19,Female,2020-08-26_18h00.52.025,torte-2b,2020.1.3,Win32,60,13445,,,,,,0,111,111,79,1,,,,,,,,,,,,,,,,,,,,,,,,,,,,,,,,,,,,,,,,,,,,,,,,,,,,,,,,
,,,,,,,,,,,,a,Incorrect,,,,,,t1.png,t4.png,3,0.0000131,19,Female,2020-08-26_18h00.52.025,torte-2b,2020.1.3,Win32,60,13445,0.94886,,,,,0,112,112,107,1,,,,,,,,,,,,,,,,,,,,,,,,,,,,,,,,,,,,,,,,,,,,,,,,,,,,,,,,
,,,,,,,,,,,,,Too slow :(,,,,,,t5.png,t2.png,3,0.0000131,19,Female,2020-08-26_18h00.52.025,torte-2b,2020.1.3,Win32,60,13445,,,,,,0,113,113,91,1,,,,,,,,,,,,,,,,,,,,,,,,,,,,,,,,,,,,,,,,,,,,,,,,,,,,,,,,
,,,,,,,,,,,,a,Incorrect,,,,,,t5.png,t2.png,3,0.0000131,19,Female,2020-08-26_18h00.52.025,torte-2b,2020.1.3,Win32,60,13445,0.70459,,,,,0,114,114,119,1,,,,,,,,,,,,,,,,,,,,,,,,,,,,,,,,,,,,,,,,,,,,,,,,,,,,,,,,
,,,,,,,,,,,,a,Correct!,,,,,,t1.png,t1.png,0,0.97829,19,Female,2020-08-26_18h00.52.025,torte-2b,2020.1.3,Win32,60,13445,0.287425,,,,,0,115,115,67,1,,,,,,,,,,,,,,,,,,,,,,,,,,,,,,,,,,,,,,,,,,,,,,,,,,,,,,,,
,,,,,,,,,,,,a,Correct!,,,,,,t4.png,t5.png,1,0.90025,19,Female,2020-08-26_18h00.52.025,torte-2b,2020.1.3,Win32,60,13445,0.81976,,,,,0,116,116,103,1,,,,,,,,,,,,,,,,,,,,,,,,,,,,,,,,,,,,,,,,,,,,,,,,,,,,,,,,
,,,,,,,,,,,,a,Correct!,,,,,,t2.png,t3.png,1,0.90855,19,Female,2020-08-26_18h00.52.025,torte-2b,2020.1.3,Win32,60,13445,1.06807,,,,,0,117,117,111,1,,,,,,,,,,,,,,,,,,,,,,,,,,,,,,,,,,,,,,,,,,,,,,,,,,,,,,,,
,,,,,,,,,,,,a,Correct!,,,,,,t5.png,t3.png,2,0.056466,19,Female,2020-08-26_18h00.52.025,torte-2b,2020.1.3,Win32,60,13445,1.41529,,,,,0,118,118,114,1,,,,,,,,,,,,,,,,,,,,,,,,,,,,,,,,,,,,,,,,,,,,,,,,,,,,,,,,
,,,,,,,,,,,,a,Incorrect,,,,,,t3.png,t1.png,2,0.056466,19,Female,2020-08-26_18h00.52.025,torte-2b,2020.1.3,Win32,60,13445,0.69211,,,,,0,119,119,32,1,,,,,,,,,,,,,,,,,,,,,,,,,,,,,,,,,,,,,,,,,,,,,,,,,,,,,,,,
,,,,,,,,,,,,,,,,,,,,,,,19,Female,2020-08-26_18h00.52.025,torte-2b,2020.1.3,Win32,60,13445,,space,1.400425,,,,,,,,space,339.346035,,0,0,0,0,1,6,,,,,,,,,,,,,,,,,,,,,,,,,,,,,,,,,,,,,,,,,,,,,,,
,,,,,,,,,,,,,,,,,,,,,,,19,Female,2020-08-26_18h00.52.025,torte-2b,2020.1.3,Win32,60,13445,,,,,,,,,,,,,,0,1,1,1,1,7,,,,,,,,,,,,,,,,,,,,,,,,,,,,,,,,,,,,,,,,,,,,,,,
,,,,,,,,,,,,,,,,,,,,,,,19,Female,2020-08-26_18h00.52.025,torte-2b,2020.1.3,Win32,60,13445,,,,,,,,,,,,,,0,2,2,2,1,6,,,,,,,,,,,,,,,,,,,,,,,,,,,,,,,,,,,,,,,,,,,,,,,
,,,,,,,,,,,,,,,,,,,,,,,19,Female,2020-08-26_18h00.52.025,torte-2b,2020.1.3,Win32,60,13445,,,,,,,,,,,,,,0,3,3,3,1,7,,,,,,,,,,,,,,,,,,,,,,,,,,,,,,,,,,,,,,,,,,,,,,,
,,,,,,,,,,,,,,,,,,,,,,,19,Female,2020-08-26_18h00.52.025,torte-2b,2020.1.3,Win32,60,13445,,,,,,,,,,,,,,0,4,4,4,1,5,,,,,,,,,,,,,,,,,,,,,,,,,,,,,,,,,,,,,,,,,,,,,,,
,,,,,,,,,,,,,,,,,,,,,,,19,Female,2020-08-26_18h00.52.025,torte-2b,2020.1.3,Win32,60,13445,,,,,,,,,,,,,space,0,5,5,5,1,7,0.28701,,,,,,,,,,,,,,,,,,,,,,,,,,,,,,,,,,,,,,,,,,,,,,
,,,,,,,,,,,,,,,,,,,,,,,19,Female,2020-08-26_18h00.52.025,torte-2b,2020.1.3,Win32,60,13445,,,,,,,,,,,,,,0,6,6,6,1,2,,,,,,,,,,,,,,,,,,,,,,,,,,,,,,,,,,,,,,,,,,,,,,,
,,,,,,,,,,,,,,,,,,,,,,,19,Female,2020-08-26_18h00.52.025,torte-2b,2020.1.3,Win32,60,13445,,,,,,,,,,,,,,0,7,7,7,1,4,,,,,,,,,,,,,,,,,,,,,,,,,,,,,,,,,,,,,,,,,,,,,,,
,,,,,,,,,,,,,,,,,,,,,,,19,Female,2020-08-26_18h00.52.025,torte-2b,2020.1.3,Win32,60,13445,,,,,,,,,,,,,space,0,8,8,8,1,7,0.254455,,,,,,,,,,,,,,,,,,,,,,,,,,,,,,,,,,,,,,,,,,,,,,
,,,,,,,,,,,,,,,,,,,,,,,19,Female,2020-08-26_18h00.52.025,torte-2b,2020.1.3,Win32,60,13445,,,,,,,,,,,,,,0,9,9,9,1,4,,,,,,,,,,,,,,,,,,,,,,,,,,,,,,,,,,,,,,,,,,,,,,,
,,,,,,,,,,,,,,,,,,,,,,,19,Female,2020-08-26_18h00.52.025,torte-2b,2020.1.3,Win32,60,13445,,,,,,,,,,,,,,0,10,10,10,1,7,,,,,,,,,,,,,,,,,,,,,,,,,,,,,,,,,,,,,,,,,,,,,,,
,,,,,,,,,,,,,,,,,,,,,,,19,Female,2020-08-26_18h00.52.025,torte-2b,2020.1.3,Win32,60,13445,,,,,,,,,,,,,,0,11,11,11,1,7,,,,,,,,,,,,,,,,,,,,,,,,,,,,,,,,,,,,,,,,,,,,,,,
,,,,,,,,,,,,,,,,,,,,,,,19,Female,2020-08-26_18h00.52.025,torte-2b,2020.1.3,Win32,60,13445,,,,,,,,,,,,,,0,12,12,12,1,7,,,,,,,,,,,,,,,,,,,,,,,,,,,,,,,,,,,,,,,,,,,,,,,
,,,,,,,,,,,,,,,,,,,,,,,19,Female,2020-08-26_18h00.52.025,torte-2b,2020.1.3,Win32,60,13445,,,,,,,,,,,,,,0,13,13,13,1,4,,,,,,,,,,,,,,,,,,,,,,,,,,,,,,,,,,,,,,,,,,,,,,,
,,,,,,,,,,,,,,,,,,,,,,,19,Female,2020-08-26_18h00.52.025,torte-2b,2020.1.3,Win32,60,13445,,,,,,,,,,,,,,0,14,14,14,1,6,,,,,,,,,,,,,,,,,,,,,,,,,,,,,,,,,,,,,,,,,,,,,,,
,,,,,,,,,,,,,,,,,,,,,,,19,Female,2020-08-26_18h00.52.025,torte-2b,2020.1.3,Win32,60,13445,,,,,,,,,,,,,,0,15,15,15,1,4,,,,,,,,,,,,,,,,,,,,,,,,,,,,,,,,,,,,,,,,,,,,,,,
,,,,,,,,,,,,,,,,,,,,,,,19,Female,2020-08-26_18h00.52.025,torte-2b,2020.1.3,Win32,60,13445,,,,,,,,,,,,,,0,16,16,16,1,6,,,,,,,,,,,,,,,,,,,,,,,,,,,,,,,,,,,,,,,,,,,,,,,
,,,,,,,,,,,,,,,,,,,,,,,19,Female,2020-08-26_18h00.52.025,torte-2b,2020.1.3,Win32,60,13445,,,,,,,,,,,,,,0,17,17,17,1,7,,,,,,,,,,,,,,,,,,,,,,,,,,,,,,,,,,,,,,,,,,,,,,,
,,,,,,,,,,,,,,,,,,,,,,,19,Female,2020-08-26_18h00.52.025,torte-2b,2020.1.3,Win32,60,13445,,,,,,,,,,,,,,0,18,18,18,1,6,,,,,,,,,,,,,,,,,,,,,,,,,,,,,,,,,,,,,,,,,,,,,,,
,,,,,,,,,,,,,,,,,,,,,,,19,Female,2020-08-26_18h00.52.025,torte-2b,2020.1.3,Win32,60,13445,,,,,,,,,,,,,,0,19,19,19,1,7,,,,,,,,,,,,,,,,,,,,,,,,,,,,,,,,,,,,,,,,,,,,,,,
,,,,,,,,,,,,,,,,,,,,,,,19,Female,2020-08-26_18h00.52.025,torte-2b,2020.1.3,Win32,60,13445,,,,,,,,,,,,,,0,20,20,20,1,5,,,,,,,,,,,,,,,,,,,,,,,,,,,,,,,,,,,,,,,,,,,,,,,
,,,,,,,,,,,,,,,,,,,,,,,19,Female,2020-08-26_18h00.52.025,torte-2b,2020.1.3,Win32,60,13445,,,,,,,,,,,,,,0,21,21,21,1,1,,,,,,,,,,,,,,,,,,,,,,,,,,,,,,,,,,,,,,,,,,,,,,,
,,,,,,,,,,,,,,,,,,,,,,,19,Female,2020-08-26_18h00.52.025,torte-2b,2020.1.3,Win32,60,13445,,,,,,,,,,,,,,0,22,22,22,1,6,,,,,,,,,,,,,,,,,,,,,,,,,,,,,,,,,,,,,,,,,,,,,,,
,,,,,,,,,,,,,,,,,,,,,,,19,Female,2020-08-26_18h00.52.025,torte-2b,2020.1.3,Win32,60,13445,,,,,,,,,,,,,,0,23,23,23,1,1,,,,,,,,,,,,,,,,,,,,,,,,,,,,,,,,,,,,,,,,,,,,,,,
,,,,,,,,,,,,,,,,,,,,,,,19,Female,2020-08-26_18h00.52.025,torte-2b,2020.1.3,Win32,60,13445,,,,,,,,,,,,,space,0,24,24,24,1,5,0.76716,,,,,,,,,,,,,,,,,,,,,,,,,,,,,,,,,,,,,,,,,,,,,,
,,,,,,,,,,,,,,,,,,,,,,,19,Female,2020-08-26_18h00.52.025,torte-2b,2020.1.3,Win32,60,13445,,,,,,,,,,,,,,0,25,25,25,1,6,,,,,,,,,,,,,,,,,,,,,,,,,,,,,,,,,,,,,,,,,,,,,,,
,,,,,,,,,,,,,,,,,,,,,,,19,Female,2020-08-26_18h00.52.025,torte-2b,2020.1.3,Win32,60,13445,,,,,,,,,,,,,space,0,26,26,26,1,6,0.91036,,,,,,,,,,,,,,,,,,,,,,,,,,,,,,,,,,,,,,,,,,,,,,
,,,,,,,,,,,,,,,,,,,,,,,19,Female,2020-08-26_18h00.52.025,torte-2b,2020.1.3,Win32,60,13445,,,,,,,,,,,,,space,0,27,27,27,1,6,1.43002,,,,,,,,,,,,,,,,,,,,,,,,,,,,,,,,,,,,,,,,,,,,,,
,,,,,,,,,,,,,,,,,,,,,,,19,Female,2020-08-26_18h00.52.025,torte-2b,2020.1.3,Win32,60,13445,,,,,,,,,,,,,space,0,28,28,28,1,5,1.73168,,,,,,,,,,,,,,,,,,,,,,,,,,,,,,,,,,,,,,,,,,,,,,
,,,,,,,,,,,,,,,,,,,,,,,19,Female,2020-08-26_18h00.52.025,torte-2b,2020.1.3,Win32,60,13445,,,,,,,,,,,,,,0,29,29,29,1,2,,,,,,,,,,,,,,,,,,,,,,,,,,,,,,,,,,,,,,,,,,,,,,,
,,,,,,,,,,,,,,,,,,,,,,,19,Female,2020-08-26_18h00.52.025,torte-2b,2020.1.3,Win32,60,13445,,,,,,,,,,,,,,0,30,30,30,1,5,,,,,,,,,,,,,,,,,,,,,,,,,,,,,,,,,,,,,,,,,,,,,,,
,,,,,,,,,,,,,,,,,,,,,,,19,Female,2020-08-26_18h00.52.025,torte-2b,2020.1.3,Win32,60,13445,,,,,,,,,,,,,,0,31,31,31,1,2,,,,,,,,,,,,,,,,,,,,,,,,,,,,,,,,,,,,,,,,,,,,,,,
,,,,,,,,,,,,,,,,,,,,,,,19,Female,2020-08-26_18h00.52.025,torte-2b,2020.1.3,Win32,60,13445,,,,,,,,,,,,,,0,32,32,32,1,5,,,,,,,,,,,,,,,,,,,,,,,,,,,,,,,,,,,,,,,,,,,,,,,
,,,,,,,,,,,,,,,,,,,,,,,19,Female,2020-08-26_18h00.52.025,torte-2b,2020.1.3,Win32,60,13445,,,,,,,,,,,,,,0,33,33,33,1,1,,,,,,,,,,,,,,,,,,,,,,,,,,,,,,,,,,,,,,,,,,,,,,,
,,,,,,,,,,,,,,,,,,,,,,,19,Female,2020-08-26_18h00.52.025,torte-2b,2020.1.3,Win32,60,13445,,,,,,,,,,,,,,0,34,34,34,1,1,,,,,,,,,,,,,,,,,,,,,,,,,,,,,,,,,,,,,,,,,,,,,,,
,,,,,,,,,,,,,,,,,,,,,,,19,Female,2020-08-26_18h00.52.025,torte-2b,2020.1.3,Win32,60,13445,,,,,,,,,,,,,,,,,,,2,,0,0,0,0,1,,,,,,,,,,,,,,,,,,,,,,,,,,,,,,,,,,,,,,,,,
,,,,,,,,,,,,,,,,,,,,,,,19,Female,2020-08-26_18h00.52.025,torte-2b,2020.1.3,Win32,60,13445,,,,,,,,,,,,,,,,,,,2,,0,1,1,1,1,,,,,,,,,,,,,,,,,,,,,,,,,,,,,,,,,,,,,,,,,
,,,,,,,,,,,,,,,,,,,,,,,19,Female,2020-08-26_18h00.52.025,torte-2b,2020.1.3,Win32,60,13445,,,,,,,,,,,,,,,,,,,6,,0,2,2,2,1,,,,,,,,,,,,,,,,,,,,,,,,,,,,,,,,,,,,,,,,,
,,,,,,,,,,,,,,,,,,,,,,,19,Female,2020-08-26_18h00.52.025,torte-2b,2020.1.3,Win32,60,13445,,,,,,,,,,,,,space,,,,,,2,0.35254,0,3,3,3,1,,,,,,,,,,,,,,,,,,,,,,,,,,,,,,,,,,,,,,,,,
,,,,,,,,,,,,,,,,,,,,,,,19,Female,2020-08-26_18h00.52.025,torte-2b,2020.1.3,Win32,60,13445,,,,,,,,,,,,,space,,,,,,6,0.715175,0,4,4,4,1,,,,,,,,,,,,,,,,,,,,,,,,,,,,,,,,,,,,,,,,,
,,,,,,,,,,,,,,,,,,,,,,,19,Female,2020-08-26_18h00.52.025,torte-2b,2020.1.3,Win32,60,13445,,,,,,,,,,,,,space,,,,,,2,0.59499,0,5,5,5,1,,,,,,,,,,,,,,,,,,,,,,,,,,,,,,,,,,,,,,,,,
,,,,,,,,,,,,,,,,,,,,,,,19,Female,2020-08-26_18h00.52.025,torte-2b,2020.1.3,Win32,60,13445,,,,,,,,,,,,,,,,,,,7,,0,6,6,6,1,,,,,,,,,,,,,,,,,,,,,,,,,,,,,,,,,,,,,,,,,
,,,,,,,,,,,,,,,,,,,,,,,19,Female,2020-08-26_18h00.52.025,torte-2b,2020.1.3,Win32,60,13445,,,,,,,,,,,,,,,,,,,2,,0,7,7,7,1,,,,,,,,,,,,,,,,,,,,,,,,,,,,,,,,,,,,,,,,,
,,,,,,,,,,,,,,,,,,,,,,,19,Female,2020-08-26_18h00.52.025,torte-2b,2020.1.3,Win32,60,13445,,,,,,,,,,,,,,,,,,,7,,0,8,8,8,1,,,,,,,,,,,,,,,,,,,,,,,,,,,,,,,,,,,,,,,,,
,,,,,,,,,,,,,,,,,,,,,,,19,Female,2020-08-26_18h00.52.025,torte-2b,2020.1.3,Win32,60,13445,,,,,,,,,,,,,space,,,,,,2,0.503885,0,9,9,9,1,,,,,,,,,,,,,,,,,,,,,,,,,,,,,,,,,,,,,,,,,
,,,,,,,,,,,,,,,,,,,,,,,19,Female,2020-08-26_18h00.52.025,torte-2b,2020.1.3,Win32,60,13445,,,,,,,,,,,,,,,,,,,5,,0,10,10,10,1,,,,,,,,,,,,,,,,,,,,,,,,,,,,,,,,,,,,,,,,,
,,,,,,,,,,,,,,,,,,,,,,,19,Female,2020-08-26_18h00.52.025,torte-2b,2020.1.3,Win32,60,13445,,,,,,,,,,,,,,,,,,,4,,0,11,11,11,1,,,,,,,,,,,,,,,,,,,,,,,,,,,,,,,,,,,,,,,,,
,,,,,,,,,,,,,,,,,,,,,,,19,Female,2020-08-26_18h00.52.025,torte-2b,2020.1.3,Win32,60,13445,,,,,,,,,,,,,space,,,,,,5,0.329155,0,12,12,12,1,,,,,,,,,,,,,,,,,,,,,,,,,,,,,,,,,,,,,,,,,
,,,,,,,,,,,,,,,,,,,,,,,19,Female,2020-08-26_18h00.52.025,torte-2b,2020.1.3,Win32,60,13445,,,,,,,,,,,,,,,,,,,6,,0,13,13,13,1,,,,,,,,,,,,,,,,,,,,,,,,,,,,,,,,,,,,,,,,,
,,,,,,,,,,,,,,,,,,,,,,,19,Female,2020-08-26_18h00.52.025,torte-2b,2020.1.3,Win32,60,13445,,,,,,,,,,,,,,,,,,,5,,0,14,14,14,1,,,,,,,,,,,,,,,,,,,,,,,,,,,,,,,,,,,,,,,,,
,,,,,,,,,,,,,,,,,,,,,,,19,Female,2020-08-26_18h00.52.025,torte-2b,2020.1.3,Win32,60,13445,,,,,,,,,,,,,,,,,,,4,,0,15,15,15,1,,,,,,,,,,,,,,,,,,,,,,,,,,,,,,,,,,,,,,,,,
,,,,,,,,,,,,,,,,,,,,,,,19,Female,2020-08-26_18h00.52.025,torte-2b,2020.1.3,Win32,60,13445,,,,,,,,,,,,,,,,,,,5,,0,16,16,16,1,,,,,,,,,,,,,,,,,,,,,,,,,,,,,,,,,,,,,,,,,
,,,,,,,,,,,,,,,,,,,,,,,19,Female,2020-08-26_18h00.52.025,torte-2b,2020.1.3,Win32,60,13445,,,,,,,,,,,,,,,,,,,3,,0,17,17,17,1,,,,,,,,,,,,,,,,,,,,,,,,,,,,,,,,,,,,,,,,,
,,,,,,,,,,,,,,,,,,,,,,,19,Female,2020-08-26_18h00.52.025,torte-2b,2020.1.3,Win32,60,13445,,,,,,,,,,,,,,,,,,,6,,0,18,18,18,1,,,,,,,,,,,,,,,,,,,,,,,,,,,,,,,,,,,,,,,,,
,,,,,,,,,,,,,,,,,,,,,,,19,Female,2020-08-26_18h00.52.025,torte-2b,2020.1.3,Win32,60,13445,,,,,,,,,,,,,space,,,,,,6,0.643875,0,19,19,19,1,,,,,,,,,,,,,,,,,,,,,,,,,,,,,,,,,,,,,,,,,
,,,,,,,,,,,,,,,,,,,,,,,19,Female,2020-08-26_18h00.52.025,torte-2b,2020.1.3,Win32,60,13445,,,,,,,,,,,,,,,,,,,6,,0,20,20,20,1,,,,,,,,,,,,,,,,,,,,,,,,,,,,,,,,,,,,,,,,,
,,,,,,,,,,,,,,,,,,,,,,,19,Female,2020-08-26_18h00.52.025,torte-2b,2020.1.3,Win32,60,13445,,,,,,,,,,,,,,,,,,,4,,0,21,21,21,1,,,,,,,,,,,,,,,,,,,,,,,,,,,,,,,,,,,,,,,,,
,,,,,,,,,,,,,,,,,,,,,,,19,Female,2020-08-26_18h00.52.025,torte-2b,2020.1.3,Win32,60,13445,,,,,,,,,,,,,,,,,,,6,,0,22,22,22,1,,,,,,,,,,,,,,,,,,,,,,,,,,,,,,,,,,,,,,,,,
,,,,,,,,,,,,,,,,,,,,,,,19,Female,2020-08-26_18h00.52.025,torte-2b,2020.1.3,Win32,60,13445,,,,,,,,,,,,,,,,,,,4,,0,23,23,23,1,,,,,,,,,,,,,,,,,,,,,,,,,,,,,,,,,,,,,,,,,
,,,,,,,,,,,,,,,,,,,,,,,19,Female,2020-08-26_18h00.52.025,torte-2b,2020.1.3,Win32,60,13445,,,,,,,,,,,,,space,,,,,,6,0.685335,0,24,24,24,1,,,,,,,,,,,,,,,,,,,,,,,,,,,,,,,,,,,,,,,,,
,,,,,,,,,,,,,,,,,,,,,,,19,Female,2020-08-26_18h00.52.025,torte-2b,2020.1.3,Win32,60,13445,,,,,,,,,,,,,space,,,,,,6,0.78299,0,25,25,25,1,,,,,,,,,,,,,,,,,,,,,,,,,,,,,,,,,,,,,,,,,
,,,,,,,,,,,,,,,,,,,,,,,19,Female,2020-08-26_18h00.52.025,torte-2b,2020.1.3,Win32,60,13445,,,,,,,,,,,,,,,,,,,7,,0,26,26,26,1,,,,,,,,,,,,,,,,,,,,,,,,,,,,,,,,,,,,,,,,,
,,,,,,,,,,,,,,,,,,,,,,,19,Female,2020-08-26_18h00.52.025,torte-2b,2020.1.3,Win32,60,13445,,,,,,,,,,,,,,,,,,,1,,0,27,27,27,1,,,,,,,,,,,,,,,,,,,,,,,,,,,,,,,,,,,,,,,,,
,,,,,,,,,,,,,,,,,,,,,,,19,Female,2020-08-26_18h00.52.025,torte-2b,2020.1.3,Win32,60,13445,,,,,,,,,,,,,,,,,,,7,,0,28,28,28,1,,,,,,,,,,,,,,,,,,,,,,,,,,,,,,,,,,,,,,,,,
,,,,,,,,,,,,,,,,,,,,,,,19,Female,2020-08-26_18h00.52.025,torte-2b,2020.1.3,Win32,60,13445,,,,,,,,,,,,,,,,,,,4,,0,29,29,29,1,,,,,,,,,,,,,,,,,,,,,,,,,,,,,,,,,,,,,,,,,
,,,,,,,,,,,,,,,,,,,,,,,19,Female,2020-08-26_18h00.52.025,torte-2b,2020.1.3,Win32,60,13445,,,,,,,,,,,,,space,,,,,,7,0.467175,0,30,30,30,1,,,,,,,,,,,,,,,,,,,,,,,,,,,,,,,,,,,,,,,,,
,,,,,,,,,,,,,,,,,,,,,,,19,Female,2020-08-26_18h00.52.025,torte-2b,2020.1.3,Win32,60,13445,,,,,,,,,,,,,,,,,,,3,,0,31,31,31,1,,,,,,,,,,,,,,,,,,,,,,,,,,,,,,,,,,,,,,,,,
,,,,,,,,,,,,,,,,,,,,,,,19,Female,2020-08-26_18h00.52.025,torte-2b,2020.1.3,Win32,60,13445,,,,,,,,,,,,,,,,,,,2,,0,32,32,32,1,,,,,,,,,,,,,,,,,,,,,,,,,,,,,,,,,,,,,,,,,
,,,,,,,,,,,,,,,,,,,,,,,19,Female,2020-08-26_18h00.52.025,torte-2b,2020.1.3,Win32,60,13445,,,,,,,,,,,,,,,,,,,6,,0,33,33,33,1,,,,,,,,,,,,,,,,,,,,,,,,,,,,,,,,,,,,,,,,,
,,,,,,,,,,,,,,,,,,,,,,,19,Female,2020-08-26_18h00.52.025,torte-2b,2020.1.3,Win32,60,13445,,,,,,,,,,,,,,,,,,,3,,0,34,34,34,1,,,,,,,,,,,,,,,,,,,,,,,,,,,,,,,,,,,,,,,,,
,,,,,,,,,,,,,,,,,,,,,,,19,Female,2020-08-26_18h00.52.025,torte-2b,2020.1.3,Win32,60,13445,,,,,,,,,,,,,,,,,,,7,,,,,,,0,0,0,0,1,,,,,,,,,,,,,,,,,,,,,,,,,,,,,,,,,,,,
,,,,,,,,,,,,,,,,,,,,,,,19,Female,2020-08-26_18h00.52.025,torte-2b,2020.1.3,Win32,60,13445,,,,,,,,,,,,,,,,,,,5,,,,,,,0,1,1,1,1,,,,,,,,,,,,,,,,,,,,,,,,,,,,,,,,,,,,
,,,,,,,,,,,,,,,,,,,,,,,19,Female,2020-08-26_18h00.52.025,torte-2b,2020.1.3,Win32,60,13445,,,,,,,,,,,,,,,,,,,4,,,,,,,0,2,2,2,1,,,,,,,,,,,,,,,,,,,,,,,,,,,,,,,,,,,,
,,,,,,,,,,,,,,,,,,,,,,,19,Female,2020-08-26_18h00.52.025,torte-2b,2020.1.3,Win32,60,13445,,,,,,,,,,,,,space,,,,,,5,1.049985,,,,,,0,3,3,3,1,,,,,,,,,,,,,,,,,,,,,,,,,,,,,,,,,,,,
,,,,,,,,,,,,,,,,,,,,,,,19,Female,2020-08-26_18h00.52.025,torte-2b,2020.1.3,Win32,60,13445,,,,,,,,,,,,,,,,,,,6,,,,,,,0,4,4,4,1,,,,,,,,,,,,,,,,,,,,,,,,,,,,,,,,,,,,
,,,,,,,,,,,,,,,,,,,,,,,19,Female,2020-08-26_18h00.52.025,torte-2b,2020.1.3,Win32,60,13445,,,,,,,,,,,,,space,,,,,,5,1.297375,,,,,,0,5,5,5,1,,,,,,,,,,,,,,,,,,,,,,,,,,,,,,,,,,,,
,,,,,,,,,,,,,,,,,,,,,,,19,Female,2020-08-26_18h00.52.025,torte-2b,2020.1.3,Win32,60,13445,,,,,,,,,,,,,,,,,,,3,,,,,,,0,6,6,6,1,,,,,,,,,,,,,,,,,,,,,,,,,,,,,,,,,,,,
,,,,,,,,,,,,,,,,,,,,,,,19,Female,2020-08-26_18h00.52.025,torte-2b,2020.1.3,Win32,60,13445,,,,,,,,,,,,,,,,,,,4,,,,,,,0,7,7,7,1,,,,,,,,,,,,,,,,,,,,,,,,,,,,,,,,,,,,
,,,,,,,,,,,,,,,,,,,,,,,19,Female,2020-08-26_18h00.52.025,torte-2b,2020.1.3,Win32,60,13445,,,,,,,,,,,,,space,,,,,,3,0.454885,,,,,,0,8,8,8,1,,,,,,,,,,,,,,,,,,,,,,,,,,,,,,,,,,,,
,,,,,,,,,,,,,,,,,,,,,,,19,Female,2020-08-26_18h00.52.025,torte-2b,2020.1.3,Win32,60,13445,,,,,,,,,,,,,,,,,,,1,,,,,,,0,9,9,9,1,,,,,,,,,,,,,,,,,,,,,,,,,,,,,,,,,,,,
,,,,,,,,,,,,,,,,,,,,,,,19,Female,2020-08-26_18h00.52.025,torte-2b,2020.1.3,Win32,60,13445,,,,,,,,,,,,,,,,,,,2,,,,,,,0,10,10,10,1,,,,,,,,,,,,,,,,,,,,,,,,,,,,,,,,,,,,
,,,,,,,,,,,,,,,,,,,,,,,19,Female,2020-08-26_18h00.52.025,torte-2b,2020.1.3,Win32,60,13445,,,,,,,,,,,,,space,,,,,,1,0.349985,,,,,,0,11,11,11,1,,,,,,,,,,,,,,,,,,,,,,,,,,,,,,,,,,,,
,,,,,,,,,,,,,,,,,,,,,,,19,Female,2020-08-26_18h00.52.025,torte-2b,2020.1.3,Win32,60,13445,,,,,,,,,,,,,,,,,,,2,,,,,,,0,12,12,12,1,,,,,,,,,,,,,,,,,,,,,,,,,,,,,,,,,,,,
,,,,,,,,,,,,,,,,,,,,,,,19,Female,2020-08-26_18h00.52.025,torte-2b,2020.1.3,Win32,60,13445,,,,,,,,,,,,,,,,,,,1,,,,,,,0,13,13,13,1,,,,,,,,,,,,,,,,,,,,,,,,,,,,,,,,,,,,
,,,,,,,,,,,,,,,,,,,,,,,19,Female,2020-08-26_18h00.52.025,torte-2b,2020.1.3,Win32,60,13445,,,,,,,,,,,,,,,,,,,3,,,,,,,0,14,14,14,1,,,,,,,,,,,,,,,,,,,,,,,,,,,,,,,,,,,,
,,,,,,,,,,,,,,,,,,,,,,,19,Female,2020-08-26_18h00.52.025,torte-2b,2020.1.3,Win32,60,13445,,,,,,,,,,,,,space,,,,,,1,0.668345,,,,,,0,15,15,15,1,,,,,,,,,,,,,,,,,,,,,,,,,,,,,,,,,,,,
,,,,,,,,,,,,,,,,,,,,,,,19,Female,2020-08-26_18h00.52.025,torte-2b,2020.1.3,Win32,60,13445,,,,,,,,,,,,,,,,,,,7,,,,,,,0,16,16,16,1,,,,,,,,,,,,,,,,,,,,,,,,,,,,,,,,,,,,
,,,,,,,,,,,,,,,,,,,,,,,19,Female,2020-08-26_18h00.52.025,torte-2b,2020.1.3,Win32,60,13445,,,,,,,,,,,,,,,,,,,7,,,,,,,0,17,17,17,1,,,,,,,,,,,,,,,,,,,,,,,,,,,,,,,,,,,,
,,,,,,,,,,,,,,,,,,,,,,,19,Female,2020-08-26_18h00.52.025,torte-2b,2020.1.3,Win32,60,13445,,,,,,,,,,,,,,,,,,,4,,,,,,,0,18,18,18,1,,,,,,,,,,,,,,,,,,,,,,,,,,,,,,,,,,,,
,,,,,,,,,,,,,,,,,,,,,,,19,Female,2020-08-26_18h00.52.025,torte-2b,2020.1.3,Win32,60,13445,,,,,,,,,,,,,space,,,,,,7,0.780135,,,,,,0,19,19,19,1,,,,,,,,,,,,,,,,,,,,,,,,,,,,,,,,,,,,
,,,,,,,,,,,,,,,,,,,,,,,19,Female,2020-08-26_18h00.52.025,torte-2b,2020.1.3,Win32,60,13445,,,,,,,,,,,,,,,,,,,3,,,,,,,0,20,20,20,1,,,,,,,,,,,,,,,,,,,,,,,,,,,,,,,,,,,,
,,,,,,,,,,,,,,,,,,,,,,,19,Female,2020-08-26_18h00.52.025,torte-2b,2020.1.3,Win32,60,13445,,,,,,,,,,,,,,,,,,,7,,,,,,,0,21,21,21,1,,,,,,,,,,,,,,,,,,,,,,,,,,,,,,,,,,,,
,,,,,,,,,,,,,,,,,,,,,,,19,Female,2020-08-26_18h00.52.025,torte-2b,2020.1.3,Win32,60,13445,,,,,,,,,,,,,,,,,,,3,,,,,,,0,22,22,22,1,,,,,,,,,,,,,,,,,,,,,,,,,,,,,,,,,,,,
,,,,,,,,,,,,,,,,,,,,,,,19,Female,2020-08-26_18h00.52.025,torte-2b,2020.1.3,Win32,60,13445,,,,,,,,,,,,,,,,,,,1,,,,,,,0,23,23,23,1,,,,,,,,,,,,,,,,,,,,,,,,,,,,,,,,,,,,
,,,,,,,,,,,,,,,,,,,,,,,19,Female,2020-08-26_18h00.52.025,torte-2b,2020.1.3,Win32,60,13445,,,,,,,,,,,,,,,,,,,6,,,,,,,0,24,24,24,1,,,,,,,,,,,,,,,,,,,,,,,,,,,,,,,,,,,,
,,,,,,,,,,,,,,,,,,,,,,,19,Female,2020-08-26_18h00.52.025,torte-2b,2020.1.3,Win32,60,13445,,,,,,,,,,,,,,,,,,,3,,,,,,,0,25,25,25,1,,,,,,,,,,,,,,,,,,,,,,,,,,,,,,,,,,,,
,,,,,,,,,,,,,,,,,,,,,,,19,Female,2020-08-26_18h00.52.025,torte-2b,2020.1.3,Win32,60,13445,,,,,,,,,,,,,,,,,,,2,,,,,,,0,26,26,26,1,,,,,,,,,,,,,,,,,,,,,,,,,,,,,,,,,,,,
,,,,,,,,,,,,,,,,,,,,,,,19,Female,2020-08-26_18h00.52.025,torte-2b,2020.1.3,Win32,60,13445,,,,,,,,,,,,,,,,,,,3,,,,,,,0,27,27,27,1,,,,,,,,,,,,,,,,,,,,,,,,,,,,,,,,,,,,
,,,,,,,,,,,,,,,,,,,,,,,19,Female,2020-08-26_18h00.52.025,torte-2b,2020.1.3,Win32,60,13445,,,,,,,,,,,,,,,,,,,1,,,,,,,0,28,28,28,1,,,,,,,,,,,,,,,,,,,,,,,,,,,,,,,,,,,,
,,,,,,,,,,,,,,,,,,,,,,,19,Female,2020-08-26_18h00.52.025,torte-2b,2020.1.3,Win32,60,13445,,,,,,,,,,,,,space,,,,,,3,0.8636,,,,,,0,29,29,29,1,,,,,,,,,,,,,,,,,,,,,,,,,,,,,,,,,,,,
,,,,,,,,,,,,,,,,,,,,,,,19,Female,2020-08-26_18h00.52.025,torte-2b,2020.1.3,Win32,60,13445,,,,,,,,,,,,,,,,,,,1,,,,,,,0,30,30,30,1,,,,,,,,,,,,,,,,,,,,,,,,,,,,,,,,,,,,
,,,,,,,,,,,,,,,,,,,,,,,19,Female,2020-08-26_18h00.52.025,torte-2b,2020.1.3,Win32,60,13445,,,,,,,,,,,,,,,,,,,7,,,,,,,0,31,31,31,1,,,,,,,,,,,,,,,,,,,,,,,,,,,,,,,,,,,,
,,,,,,,,,,,,,,,,,,,,,,,19,Female,2020-08-26_18h00.52.025,torte-2b,2020.1.3,Win32,60,13445,,,,,,,,,,,,,,,,,,,5,,,,,,,0,32,32,32,1,,,,,,,,,,,,,,,,,,,,,,,,,,,,,,,,,,,,
,,,,,,,,,,,,,,,,,,,,,,,19,Female,2020-08-26_18h00.52.025,torte-2b,2020.1.3,Win32,60,13445,,,,,,,,,,,,,,,,,,,7,,,,,,,0,33,33,33,1,,,,,,,,,,,,,,,,,,,,,,,,,,,,,,,,,,,,
,,,,,,,,,,,,,,,,,,,,,,,19,Female,2020-08-26_18h00.52.025,torte-2b,2020.1.3,Win32,60,13445,,,,,,,,,,,,,,,,,,,2,,,,,,,0,34,34,34,1,,,,,,,,,,,,,,,,,,,,,,,,,,,,,,,,,,,,
,,,,,,,,,,,,,,,,,,,,,,,19,Female,2020-08-26_18h00.52.025,torte-2b,2020.1.3,Win32,60,13445,,,,,,,,,,,,,,,,,,,3,,,,,,,,,,,,0,0,0,0,1,,,,,,,,,,,,,,,,,,,,,,,,,,,,,,,
,,,,,,,,,,,,,,,,,,,,,,,19,Female,2020-08-26_18h00.52.025,torte-2b,2020.1.3,Win32,60,13445,,,,,,,,,,,,,,,,,,,7,,,,,,,,,,,,0,1,1,1,1,,,,,,,,,,,,,,,,,,,,,,,,,,,,,,,
,,,,,,,,,,,,,,,,,,,,,,,19,Female,2020-08-26_18h00.52.025,torte-2b,2020.1.3,Win32,60,13445,,,,,,,,,,,,,,,,,,,7,,,,,,,,,,,,0,2,2,2,1,,,,,,,,,,,,,,,,,,,,,,,,,,,,,,,
,,,,,,,,,,,,,,,,,,,,,,,19,Female,2020-08-26_18h00.52.025,torte-2b,2020.1.3,Win32,60,13445,,,,,,,,,,,,,,,,,,,4,,,,,,,,,,,,0,3,3,3,1,,,,,,,,,,,,,,,,,,,,,,,,,,,,,,,
,,,,,,,,,,,,,,,,,,,,,,,19,Female,2020-08-26_18h00.52.025,torte-2b,2020.1.3,Win32,60,13445,,,,,,,,,,,,,,,,,,,5,,,,,,,,,,,,0,4,4,4,1,,,,,,,,,,,,,,,,,,,,,,,,,,,,,,,
,,,,,,,,,,,,,,,,,,,,,,,19,Female,2020-08-26_18h00.52.025,torte-2b,2020.1.3,Win32,60,13445,,,,,,,,,,,,,space,,,,,,4,0.73115,,,,,,,,,,,0,5,5,5,1,,,,,,,,,,,,,,,,,,,,,,,,,,,,,,,
,,,,,,,,,,,,,,,,,,,,,,,19,Female,2020-08-26_18h00.52.025,torte-2b,2020.1.3,Win32,60,13445,,,,,,,,,,,,,,,,,,,2,,,,,,,,,,,,0,6,6,6,1,,,,,,,,,,,,,,,,,,,,,,,,,,,,,,,
,,,,,,,,,,,,,,,,,,,,,,,19,Female,2020-08-26_18h00.52.025,torte-2b,2020.1.3,Win32,60,13445,,,,,,,,,,,,,,,,,,,4,,,,,,,,,,,,0,7,7,7,1,,,,,,,,,,,,,,,,,,,,,,,,,,,,,,,
,,,,,,,,,,,,,,,,,,,,,,,19,Female,2020-08-26_18h00.52.025,torte-2b,2020.1.3,Win32,60,13445,,,,,,,,,,,,,,,,,,,2,,,,,,,,,,,,0,8,8,8,1,,,,,,,,,,,,,,,,,,,,,,,,,,,,,,,
,,,,,,,,,,,,,,,,,,,,,,,19,Female,2020-08-26_18h00.52.025,torte-2b,2020.1.3,Win32,60,13445,,,,,,,,,,,,,,,,,,,2,,,,,,,,,,,,0,9,9,9,1,,,,,,,,,,,,,,,,,,,,,,,,,,,,,,,
,,,,,,,,,,,,,,,,,,,,,,,19,Female,2020-08-26_18h00.52.025,torte-2b,2020.1.3,Win32,60,13445,,,,,,,,,,,,,,,,,,,6,,,,,,,,,,,,0,10,10,10,1,,,,,,,,,,,,,,,,,,,,,,,,,,,,,,,
,,,,,,,,,,,,,,,,,,,,,,,19,Female,2020-08-26_18h00.52.025,torte-2b,2020.1.3,Win32,60,13445,,,,,,,,,,,,,space,,,,,,2,0.55488,,,,,,,,,,,0,11,11,11,1,,,,,,,,,,,,,,,,,,,,,,,,,,,,,,,
,,,,,,,,,,,,,,,,,,,,,,,19,Female,2020-08-26_18h00.52.025,torte-2b,2020.1.3,Win32,60,13445,,,,,,,,,,,,,,,,,,,2,,,,,,,,,,,,0,12,12,12,1,,,,,,,,,,,,,,,,,,,,,,,,,,,,,,,
,,,,,,,,,,,,,,,,,,,,,,,19,Female,2020-08-26_18h00.52.025,torte-2b,2020.1.3,Win32,60,13445,,,,,,,,,,,,,,,,,,,2,,,,,,,,,,,,0,13,13,13,1,,,,,,,,,,,,,,,,,,,,,,,,,,,,,,,
,,,,,,,,,,,,,,,,,,,,,,,19,Female,2020-08-26_18h00.52.025,torte-2b,2020.1.3,Win32,60,13445,,,,,,,,,,,,,space,,,,,,2,0.73475,,,,,,,,,,,0,14,14,14,1,,,,,,,,,,,,,,,,,,,,,,,,,,,,,,,
,,,,,,,,,,,,,,,,,,,,,,,19,Female,2020-08-26_18h00.52.025,torte-2b,2020.1.3,Win32,60,13445,,,,,,,,,,,,,,,,,,,4,,,,,,,,,,,,0,15,15,15,1,,,,,,,,,,,,,,,,,,,,,,,,,,,,,,,
,,,,,,,,,,,,,,,,,,,,,,,19,Female,2020-08-26_18h00.52.025,torte-2b,2020.1.3,Win32,60,13445,,,,,,,,,,,,,,,,,,,3,,,,,,,,,,,,0,16,16,16,1,,,,,,,,,,,,,,,,,,,,,,,,,,,,,,,
,,,,,,,,,,,,,,,,,,,,,,,19,Female,2020-08-26_18h00.52.025,torte-2b,2020.1.3,Win32,60,13445,,,,,,,,,,,,,,,,,,,7,,,,,,,,,,,,0,17,17,17,1,,,,,,,,,,,,,,,,,,,,,,,,,,,,,,,
,,,,,,,,,,,,,,,,,,,,,,,19,Female,2020-08-26_18h00.52.025,torte-2b,2020.1.3,Win32,60,13445,,,,,,,,,,,,,,,,,,,4,,,,,,,,,,,,0,18,18,18,1,,,,,,,,,,,,,,,,,,,,,,,,,,,,,,,
,,,,,,,,,,,,,,,,,,,,,,,19,Female,2020-08-26_18h00.52.025,torte-2b,2020.1.3,Win32,60,13445,,,,,,,,,,,,,,,,,,,7,,,,,,,,,,,,0,19,19,19,1,,,,,,,,,,,,,,,,,,,,,,,,,,,,,,,
,,,,,,,,,,,,,,,,,,,,,,,19,Female,2020-08-26_18h00.52.025,torte-2b,2020.1.3,Win32,60,13445,,,,,,,,,,,,,,,,,,,7,,,,,,,,,,,,0,20,20,20,1,,,,,,,,,,,,,,,,,,,,,,,,,,,,,,,
,,,,,,,,,,,,,,,,,,,,,,,19,Female,2020-08-26_18h00.52.025,torte-2b,2020.1.3,Win32,60,13445,,,,,,,,,,,,,space,,,,,,7,0.505665,,,,,,,,,,,0,21,21,21,1,,,,,,,,,,,,,,,,,,,,,,,,,,,,,,,
,,,,,,,,,,,,,,,,,,,,,,,19,Female,2020-08-26_18h00.52.025,torte-2b,2020.1.3,Win32,60,13445,,,,,,,,,,,,,space,,,,,,7,1.185045,,,,,,,,,,,0,22,22,22,1,,,,,,,,,,,,,,,,,,,,,,,,,,,,,,,
,,,,,,,,,,,,,,,,,,,,,,,19,Female,2020-08-26_18h00.52.025,torte-2b,2020.1.3,Win32,60,13445,,,,,,,,,,,,,,,,,,,1,,,,,,,,,,,,0,23,23,23,1,,,,,,,,,,,,,,,,,,,,,,,,,,,,,,,
,,,,,,,,,,,,,,,,,,,,,,,19,Female,2020-08-26_18h00.52.025,torte-2b,2020.1.3,Win32,60,13445,,,,,,,,,,,,,,,,,,,7,,,,,,,,,,,,0,24,24,24,1,,,,,,,,,,,,,,,,,,,,,,,,,,,,,,,
,,,,,,,,,,,,,,,,,,,,,,,19,Female,2020-08-26_18h00.52.025,torte-2b,2020.1.3,Win32,60,13445,,,,,,,,,,,,,space,,,,,,1,0.746575,,,,,,,,,,,0,25,25,25,1,,,,,,,,,,,,,,,,,,,,,,,,,,,,,,,
,,,,,,,,,,,,,,,,,,,,,,,19,Female,2020-08-26_18h00.52.025,torte-2b,2020.1.3,Win32,60,13445,,,,,,,,,,,,,space,,,,,,7,1.10097,,,,,,,,,,,0,26,26,26,1,,,,,,,,,,,,,,,,,,,,,,,,,,,,,,,
,,,,,,,,,,,,,,,,,,,,,,,19,Female,2020-08-26_18h00.52.025,torte-2b,2020.1.3,Win32,60,13445,,,,,,,,,,,,,,,,,,,2,,,,,,,,,,,,0,27,27,27,1,,,,,,,,,,,,,,,,,,,,,,,,,,,,,,,
,,,,,,,,,,,,,,,,,,,,,,,19,Female,2020-08-26_18h00.52.025,torte-2b,2020.1.3,Win32,60,13445,,,,,,,,,,,,,,,,,,,5,,,,,,,,,,,,0,28,28,28,1,,,,,,,,,,,,,,,,,,,,,,,,,,,,,,,
,,,,,,,,,,,,,,,,,,,,,,,19,Female,2020-08-26_18h00.52.025,torte-2b,2020.1.3,Win32,60,13445,,,,,,,,,,,,,,,,,,,5,,,,,,,,,,,,0,29,29,29,1,,,,,,,,,,,,,,,,,,,,,,,,,,,,,,,
,,,,,,,,,,,,,,,,,,,,,,,19,Female,2020-08-26_18h00.52.025,torte-2b,2020.1.3,Win32,60,13445,,,,,,,,,,,,,space,,,,,,5,0.33376,,,,,,,,,,,0,30,30,30,1,,,,,,,,,,,,,,,,,,,,,,,,,,,,,,,
,,,,,,,,,,,,,,,,,,,,,,,19,Female,2020-08-26_18h00.52.025,torte-2b,2020.1.3,Win32,60,13445,,,,,,,,,,,,,,,,,,,1,,,,,,,,,,,,0,31,31,31,1,,,,,,,,,,,,,,,,,,,,,,,,,,,,,,,
,,,,,,,,,,,,,,,,,,,,,,,19,Female,2020-08-26_18h00.52.025,torte-2b,2020.1.3,Win32,60,13445,,,,,,,,,,,,,space,,,,,,5,1.432095,,,,,,,,,,,0,32,32,32,1,,,,,,,,,,,,,,,,,,,,,,,,,,,,,,,
,,,,,,,,,,,,,,,,,,,,,,,19,Female,2020-08-26_18h00.52.025,torte-2b,2020.1.3,Win32,60,13445,,,,,,,,,,,,,,,,,,,3,,,,,,,,,,,,0,33,33,33,1,,,,,,,,,,,,,,,,,,,,,,,,,,,,,,,
,,,,,,,,,,,,,,,,,,,,,,,19,Female,2020-08-26_18h00.52.025,torte-2b,2020.1.3,Win32,60,13445,,,,,,,,,,,,,,,,,,,3,,,,,,,,,,,,0,34,34,34,1,,,,,,,,,,,,,,,,,,,,,,,,,,,,,,,
,,,,,,,,,,,,a,Incorrect,,,,,,t4.png,t2.png,2,0.059078,19,Female,2020-08-26_18h00.52.025,torte-2b,2020.1.3,Win32,60,13445,1.79876,space,1.45555,,,,,,,,,,,,,,,,,,,,,,,,,,,,,,,,,space,32.43816,0,0,0,110,1,,,,,,,,,,,,,,,,,,,,,,,,
,,,,,,,,,,,,a,Correct!,,,,,,t5.png,t4.png,1,0.90025,19,Female,2020-08-26_18h00.52.025,torte-2b,2020.1.3,Win32,60,13445,1.53544,,,,,,,,,,,,,,,,,,,,,,,,,,,,,,,,,,,,,0,1,1,27,1,,,,,,,,,,,,,,,,,,,,,,,,
,,,,,,,,,,,,a,Correct!,,,,,,t5.png,t5.png,0,0.97829,19,Female,2020-08-26_18h00.52.025,torte-2b,2020.1.3,Win32,60,13445,1.546705,,,,,,,,,,,,,,,,,,,,,,,,,,,,,,,,,,,,,0,2,2,25,1,,,,,,,,,,,,,,,,,,,,,,,,
,,,,,,,,,,,,a,Correct!,,,,,,t3.png,t2.png,1,0.909,19,Female,2020-08-26_18h00.52.025,torte-2b,2020.1.3,Win32,60,13445,1.228265,,,,,,,,,,,,,,,,,,,,,,,,,,,,,,,,,,,,,0,3,3,3,1,,,,,,,,,,,,,,,,,,,,,,,,
,,,,,,,,,,,,l,Correct!,,,,,,t5.png,t2.png,3,0.0000131,19,Female,2020-08-26_18h00.52.025,torte-2b,2020.1.3,Win32,60,13445,0.93931,,,,,,,,,,,,,,,,,,,,,,,,,,,,,,,,,,,,,0,4,4,91,1,,,,,,,,,,,,,,,,,,,,,,,,
,,,,,,,,,,,,l,Correct!,,,,,,t1.png,t4.png,3,0.0000131,19,Female,2020-08-26_18h00.52.025,torte-2b,2020.1.3,Win32,60,13445,1.13336,,,,,,,,,,,,,,,,,,,,,,,,,,,,,,,,,,,,,0,5,5,92,1,,,,,,,,,,,,,,,,,,,,,,,,
,,,,,,,,,,,,a,Correct!,,,,,,t3.png,t4.png,1,0.909,19,Female,2020-08-26_18h00.52.025,torte-2b,2020.1.3,Win32,60,13445,1.055545,,,,,,,,,,,,,,,,,,,,,,,,,,,,,,,,,,,,,0,6,6,82,1,,,,,,,,,,,,,,,,,,,,,,,,
,,,,,,,,,,,,a,Incorrect,,,,,,t3.png,t1.png,2,0.056466,19,Female,2020-08-26_18h00.52.025,torte-2b,2020.1.3,Win32,60,13445,1.07338,,,,,,,,,,,,,,,,,,,,,,,,,,,,,,,,,,,,,0,7,7,0,1,,,,,,,,,,,,,,,,,,,,,,,,
,,,,,,,,,,,,l,Incorrect,,,,,,t4.png,t4.png,0,0.98115,19,Female,2020-08-26_18h00.52.025,torte-2b,2020.1.3,Win32,60,13445,1.67137,,,,,,,,,,,,,,,,,,,,,,,,,,,,,,,,,,,,,0,8,8,79,1,,,,,,,,,,,,,,,,,,,,,,,,
,,,,,,,,,,,,l,Incorrect,,,,,,t1.png,t2.png,1,0.9,19,Female,2020-08-26_18h00.52.025,torte-2b,2020.1.3,Win32,60,13445,0.95413,,,,,,,,,,,,,,,,,,,,,,,,,,,,,,,,,,,,,0,9,9,1,1,,,,,,,,,,,,,,,,,,,,,,,,
,,,,,,,,,,,,a,Correct!,,,,,,t5.png,t5.png,0,0.978,19,Female,2020-08-26_18h00.52.025,torte-2b,2020.1.3,Win32,60,13445,0.96666,,,,,,,,,,,,,,,,,,,,,,,,,,,,,,,,,,,,,0,10,10,117,1,,,,,,,,,,,,,,,,,,,,,,,,
,,,,,,,,,,,,a,Correct!,,,,,,t4.png,t3.png,1,0.90855,19,Female,2020-08-26_18h00.52.025,torte-2b,2020.1.3,Win32,60,13445,1.057055,,,,,,,,,,,,,,,,,,,,,,,,,,,,,,,,,,,,,0,11,11,35,1,,,,,,,,,,,,,,,,,,,,,,,,
,,,,,,,,,,,,a,Correct!,,,,,,t4.png,t4.png,0,0.98115,19,Female,2020-08-26_18h00.52.025,torte-2b,2020.1.3,Win32,60,13445,1.165505,,,,,,,,,,,,,,,,,,,,,,,,,,,,,,,,,,,,,0,12,12,90,1,,,,,,,,,,,,,,,,,,,,,,,,
,,,,,,,,,,,,a,Correct!,,,,,,t3.png,t2.png,1,0.90855,19,Female,2020-08-26_18h00.52.025,torte-2b,2020.1.3,Win32,60,13445,0.917485,,,,,,,,,,,,,,,,,,,,,,,,,,,,,,,,,,,,,0,13,13,97,1,,,,,,,,,,,,,,,,,,,,,,,,
,,,,,,,,,,,,l,Correct!,,,,,,t5.png,t2.png,3,0.0000131,19,Female,2020-08-26_18h00.52.025,torte-2b,2020.1.3,Win32,60,13445,1.59969,,,,,,,,,,,,,,,,,,,,,,,,,,,,,,,,,,,,,0,14,14,98,1,,,,,,,,,,,,,,,,,,,,,,,,
,,,,,,,,,,,,l,Correct!,,,,,,t4.png,t1.png,3,0.0000131,19,Female,2020-08-26_18h00.52.025,torte-2b,2020.1.3,Win32,60,13445,1.032295,,,,,,,,,,,,,,,,,,,,,,,,,,,,,,,,,,,,,0,15,15,61,1,,,,,,,,,,,,,,,,,,,,,,,,
,,,,,,,,,,,,a,Correct!,,,,,,t1.png,t3.png,2,0.056466,19,Female,2020-08-26_18h00.52.025,torte-2b,2020.1.3,Win32,60,13445,1.399455,,,,,,,,,,,,,,,,,,,,,,,,,,,,,,,,,,,,,0,16,16,60,1,,,,,,,,,,,,,,,,,,,,,,,,
,,,,,,,,,,,,l,Correct!,,,,,,t2.png,t5.png,3,0.0000131,19,Female,2020-08-26_18h00.52.025,torte-2b,2020.1.3,Win32,60,13445,1.878945,,,,,,,,,,,,,,,,,,,,,,,,,,,,,,,,,,,,,0,17,17,95,1,,,,,,,,,,,,,,,,,,,,,,,,
,,,,,,,,,,,,a,Incorrect,,,,,,t1.png,t3.png,2,0.056466,19,Female,2020-08-26_18h00.52.025,torte-2b,2020.1.3,Win32,60,13445,1.054775,,,,,,,,,,,,,,,,,,,,,,,,,,,,,,,,,,,,,0,18,18,87,1,,,,,,,,,,,,,,,,,,,,,,,,
,,,,,,,,,,,,a,Correct!,,,,,,t1.png,t2.png,1,0.90025,19,Female,2020-08-26_18h00.52.025,torte-2b,2020.1.3,Win32,60,13445,1.316975,,,,,,,,,,,,,,,,,,,,,,,,,,,,,,,,,,,,,0,19,19,112,1,,,,,,,,,,,,,,,,,,,,,,,,
,,,,,,,,,,,,a,Correct!,,,,,,t4.png,t3.png,1,0.90855,19,Female,2020-08-26_18h00.52.025,torte-2b,2020.1.3,Win32,60,13445,1.24947,,,,,,,,,,,,,,,,,,,,,,,,,,,,,,,,,,,,,0,20,20,45,1,,,,,,,,,,,,,,,,,,,,,,,,
,,,,,,,,,,,,a,Correct!,,,,,,t3.png,t4.png,1,0.909,19,Female,2020-08-26_18h00.52.025,torte-2b,2020.1.3,Win32,60,13445,0.61908,,,,,,,,,,,,,,,,,,,,,,,,,,,,,,,,,,,,,0,21,21,106,1,,,,,,,,,,,,,,,,,,,,,,,,
,,,,,,,,,,,,l,Incorrect,,,,,,t2.png,t1.png,1,0.90025,19,Female,2020-08-26_18h00.52.025,torte-2b,2020.1.3,Win32,60,13445,2.09849,,,,,,,,,,,,,,,,,,,,,,,,,,,,,,,,,,,,,0,22,22,4,1,,,,,,,,,,,,,,,,,,,,,,,,
,,,,,,,,,,,,a,Correct!,,,,,,t3.png,t4.png,1,0.90855,19,Female,2020-08-26_18h00.52.025,torte-2b,2020.1.3,Win32,60,13445,1.100955,,,,,,,,,,,,,,,,,,,,,,,,,,,,,,,,,,,,,0,23,23,96,1,,,,,,,,,,,,,,,,,,,,,,,,
,,,,,,,,,,,,l,Correct!,,,,,,t2.png,t4.png,2,0.059078,19,Female,2020-08-26_18h00.52.025,torte-2b,2020.1.3,Win32,60,13445,1.718785,,,,,,,,,,,,,,,,,,,,,,,,,,,,,,,,,,,,,0,24,24,11,1,,,,,,,,,,,,,,,,,,,,,,,,
,,,,,,,,,,,,l,Incorrect,,,,,,t5.png,t4.png,1,0.90025,19,Female,2020-08-26_18h00.52.025,torte-2b,2020.1.3,Win32,60,13445,1.76765,,,,,,,,,,,,,,,,,,,,,,,,,,,,,,,,,,,,,0,25,25,34,1,,,,,,,,,,,,,,,,,,,,,,,,
,,,,,,,,,,,,a,Incorrect,,,,,,t3.png,t5.png,2,0.056466,19,Female,2020-08-26_18h00.52.025,torte-2b,2020.1.3,Win32,60,13445,1.183605,,,,,,,,,,,,,,,,,,,,,,,,,,,,,,,,,,,,,0,26,26,44,1,,,,,,,,,,,,,,,,,,,,,,,,
,,,,,,,,,,,,l,Incorrect,,,,,,t4.png,t4.png,0,0.98115,19,Female,2020-08-26_18h00.52.025,torte-2b,2020.1.3,Win32,60,13445,1.06667,,,,,,,,,,,,,,,,,,,,,,,,,,,,,,,,,,,,,0,27,27,80,1,,,,,,,,,,,,,,,,,,,,,,,,
,,,,,,,,,,,,l,Correct!,,,,,,t5.png,t1.png,4,9.55E-11,19,Female,2020-08-26_18h00.52.025,torte-2b,2020.1.3,Win32,60,13445,1.99742,,,,,,,,,,,,,,,,,,,,,,,,,,,,,,,,,,,,,0,28,28,102,1,,,,,,,,,,,,,,,,,,,,,,,,
,,,,,,,,,,,,a,Incorrect,,,,,,t3.png,t5.png,2,0.0565,19,Female,2020-08-26_18h00.52.025,torte-2b,2020.1.3,Win32,60,13445,0.791615,,,,,,,,,,,,,,,,,,,,,,,,,,,,,,,,,,,,,0,29,29,30,1,,,,,,,,,,,,,,,,,,,,,,,,
,,,,,,,,,,,,l,Incorrect,,,,,,t4.png,t4.png,0,0.98115,19,Female,2020-08-26_18h00.52.025,torte-2b,2020.1.3,Win32,60,13445,0.75008,,,,,,,,,,,,,,,,,,,,,,,,,,,,,,,,,,,,,0,30,30,52,1,,,,,,,,,,,,,,,,,,,,,,,,
,,,,,,,,,,,,l,Incorrect,,,,,,t1.png,t2.png,1,0.90025,19,Female,2020-08-26_18h00.52.025,torte-2b,2020.1.3,Win32,60,13445,1.065875,,,,,,,,,,,,,,,,,,,,,,,,,,,,,,,,,,,,,0,31,31,33,1,,,,,,,,,,,,,,,,,,,,,,,,
,,,,,,,,,,,,a,Incorrect,,,,,,t5.png,t3.png,2,0.056466,19,Female,2020-08-26_18h00.52.025,torte-2b,2020.1.3,Win32,60,13445,1.166355,,,,,,,,,,,,,,,,,,,,,,,,,,,,,,,,,,,,,0,32,32,56,1,,,,,,,,,,,,,,,,,,,,,,,,
,,,,,,,,,,,,l,Incorrect,,,,,,t4.png,t3.png,1,0.909,19,Female,2020-08-26_18h00.52.025,torte-2b,2020.1.3,Win32,60,13445,0.80191,,,,,,,,,,,,,,,,,,,,,,,,,,,,,,,,,,,,,0,33,33,46,1,,,,,,,,,,,,,,,,,,,,,,,,
,,,,,,,,,,,,a,Correct!,,,,,,t4.png,t3.png,1,0.90855,19,Female,2020-08-26_18h00.52.025,torte-2b,2020.1.3,Win32,60,13445,1.642755,,,,,,,,,,,,,,,,,,,,,,,,,,,,,,,,,,,,,0,34,34,75,1,,,,,,,,,,,,,,,,,,,,,,,,
,,,,,,,,,,,,,Too slow :(,,,,,,t1.png,t4.png,3,0.0000131,19,Female,2020-08-26_18h00.52.025,torte-2b,2020.1.3,Win32,60,13445,,,,,,,,,,,,,,,,,,,,,,,,,,,,,,,,,,,,,,0,35,35,81,1,,,,,,,,,,,,,,,,,,,,,,,,
,,,,,,,,,,,,l,Correct!,,,,,,t5.png,t1.png,4,9.55E-11,19,Female,2020-08-26_18h00.52.025,torte-2b,2020.1.3,Win32,60,13445,2.42243,,,,,,,,,,,,,,,,,,,,,,,,,,,,,,,,,,,,,0,36,36,100,1,,,,,,,,,,,,,,,,,,,,,,,,
,,,,,,,,,,,,l,Incorrect,,,,,,t2.png,t1.png,1,0.9,19,Female,2020-08-26_18h00.52.025,torte-2b,2020.1.3,Win32,60,13445,1.90173,,,,,,,,,,,,,,,,,,,,,,,,,,,,,,,,,,,,,0,37,37,118,1,,,,,,,,,,,,,,,,,,,,,,,,
,,,,,,,,,,,,l,Correct!,,,,,,t4.png,t1.png,3,0.0000131,19,Female,2020-08-26_18h00.52.025,torte-2b,2020.1.3,Win32,60,13445,1.624655,,,,,,,,,,,,,,,,,,,,,,,,,,,,,,,,,,,,,0,38,38,42,1,,,,,,,,,,,,,,,,,,,,,,,,
,,,,,,,,,,,,a,Correct!,,,,,,t4.png,t3.png,1,0.909,19,Female,2020-08-26_18h00.52.025,torte-2b,2020.1.3,Win32,60,13445,1.36482,,,,,,,,,,,,,,,,,,,,,,,,,,,,,,,,,,,,,0,39,39,20,1,,,,,,,,,,,,,,,,,,,,,,,,
,,,,,,,,,,,,l,Correct!,,,,,,t2.png,t4.png,2,0.0591,19,Female,2020-08-26_18h00.52.025,torte-2b,2020.1.3,Win32,60,13445,1.266225,,,,,,,,,,,,,,,,,,,,,,,,,,,,,,,,,,,,,0,40,40,15,1,,,,,,,,,,,,,,,,,,,,,,,,
,,,,,,,,,,,,l,Correct!,,,,,,t5.png,t1.png,4,9.55E-11,19,Female,2020-08-26_18h00.52.025,torte-2b,2020.1.3,Win32,60,13445,1.31658,,,,,,,,,,,,,,,,,,,,,,,,,,,,,,,,,,,,,0,41,41,22,1,,,,,,,,,,,,,,,,,,,,,,,,
,,,,,,,,,,,,l,Correct!,,,,,,t5.png,t2.png,3,0.0000131,19,Female,2020-08-26_18h00.52.025,torte-2b,2020.1.3,Win32,60,13445,1.449515,,,,,,,,,,,,,,,,,,,,,,,,,,,,,,,,,,,,,0,42,42,119,1,,,,,,,,,,,,,,,,,,,,,,,,
,,,,,,,,,,,,a,Incorrect,,,,,,t5.png,t2.png,3,0.0000131,19,Female,2020-08-26_18h00.52.025,torte-2b,2020.1.3,Win32,60,13445,1.19865,,,,,,,,,,,,,,,,,,,,,,,,,,,,,,,,,,,,,0,43,43,116,1,,,,,,,,,,,,,,,,,,,,,,,,
,,,,,,,,,,,,l,Incorrect,,,,,,t1.png,t2.png,1,0.90025,19,Female,2020-08-26_18h00.52.025,torte-2b,2020.1.3,Win32,60,13445,0.9007,,,,,,,,,,,,,,,,,,,,,,,,,,,,,,,,,,,,,0,44,44,105,1,,,,,,,,,,,,,,,,,,,,,,,,
,,,,,,,,,,,,a,Correct!,,,,,,t3.png,t2.png,1,0.90855,19,Female,2020-08-26_18h00.52.025,torte-2b,2020.1.3,Win32,60,13445,1.319505,,,,,,,,,,,,,,,,,,,,,,,,,,,,,,,,,,,,,0,45,45,18,1,,,,,,,,,,,,,,,,,,,,,,,,
,,,,,,,,,,,,l,Incorrect,,,,,,t2.png,t2.png,0,0.98115,19,Female,2020-08-26_18h00.52.025,torte-2b,2020.1.3,Win32,60,13445,0.65354,,,,,,,,,,,,,,,,,,,,,,,,,,,,,,,,,,,,,0,46,46,7,1,,,,,,,,,,,,,,,,,,,,,,,,
,,,,,,,,,,,,,Too slow :(,,,,,,t2.png,t4.png,2,0.059078,19,Female,2020-08-26_18h00.52.025,torte-2b,2020.1.3,Win32,60,13445,,,,,,,,,,,,,,,,,,,,,,,,,,,,,,,,,,,,,,0,47,47,24,1,,,,,,,,,,,,,,,,,,,,,,,,
,,,,,,,,,,,,a,Incorrect,,,,,,t5.png,t1.png,4,9.55E-11,19,Female,2020-08-26_18h00.52.025,torte-2b,2020.1.3,Win32,60,13445,1.53987,,,,,,,,,,,,,,,,,,,,,,,,,,,,,,,,,,,,,0,48,48,71,1,,,,,,,,,,,,,,,,,,,,,,,,
,,,,,,,,,,,,l,Incorrect,,,,,,t2.png,t2.png,0,0.98115,19,Female,2020-08-26_18h00.52.025,torte-2b,2020.1.3,Win32,60,13445,0.79853,,,,,,,,,,,,,,,,,,,,,,,,,,,,,,,,,,,,,0,49,49,59,1,,,,,,,,,,,,,,,,,,,,,,,,
,,,,,,,,,,,,l,Correct!,,,,,,t1.png,t4.png,3,0.0000131,19,Female,2020-08-26_18h00.52.025,torte-2b,2020.1.3,Win32,60,13445,1.118185,,,,,,,,,,,,,,,,,,,,,,,,,,,,,,,,,,,,,0,50,50,107,1,,,,,,,,,,,,,,,,,,,,,,,,
,,,,,,,,,,,,a,Incorrect,,,,,,t3.png,t1.png,2,0.0565,19,Female,2020-08-26_18h00.52.025,torte-2b,2020.1.3,Win32,60,13445,1.15606,,,,,,,,,,,,,,,,,,,,,,,,,,,,,,,,,,,,,0,51,51,31,1,,,,,,,,,,,,,,,,,,,,,,,,
,,,,,,,,,,,,l,Incorrect,,,,,,t5.png,t4.png,1,0.90025,19,Female,2020-08-26_18h00.52.025,torte-2b,2020.1.3,Win32,60,13445,1.601695,,,,,,,,,,,,,,,,,,,,,,,,,,,,,,,,,,,,,0,52,52,26,1,,,,,,,,,,,,,,,,,,,,,,,,
,,,,,,,,,,,,l,Correct!,,,,,,t4.png,t2.png,2,0.0591,19,Female,2020-08-26_18h00.52.025,torte-2b,2020.1.3,Win32,60,13445,1.093075,,,,,,,,,,,,,,,,,,,,,,,,,,,,,,,,,,,,,0,53,53,36,1,,,,,,,,,,,,,,,,,,,,,,,,
,,,,,,,,,,,,a,Correct!,,,,,,t4.png,t5.png,1,0.90025,19,Female,2020-08-26_18h00.52.025,torte-2b,2020.1.3,Win32,60,13445,2.40118,,,,,,,,,,,,,,,,,,,,,,,,,,,,,,,,,,,,,0,54,54,47,1,,,,,,,,,,,,,,,,,,,,,,,,
,,,,,,,,,,,,,Too slow :(,,,,,,t4.png,t5.png,1,0.90025,19,Female,2020-08-26_18h00.52.025,torte-2b,2020.1.3,Win32,60,13445,,,,,,,,,,,,,,,,,,,,,,,,,,,,,,,,,,,,,,0,55,55,103,1,,,,,,,,,,,,,,,,,,,,,,,,
,,,,,,,,,,,,a,Correct!,,,,,,t1.png,t1.png,0,0.97829,19,Female,2020-08-26_18h00.52.025,torte-2b,2020.1.3,Win32,60,13445,2.00263,,,,,,,,,,,,,,,,,,,,,,,,,,,,,,,,,,,,,0,56,56,9,1,,,,,,,,,,,,,,,,,,,,,,,,
,,,,,,,,,,,,a,Incorrect,,,,,,t3.png,t1.png,2,0.056466,19,Female,2020-08-26_18h00.52.025,torte-2b,2020.1.3,Win32,60,13445,1.23896,,,,,,,,,,,,,,,,,,,,,,,,,,,,,,,,,,,,,0,57,57,64,1,,,,,,,,,,,,,,,,,,,,,,,,
,,,,,,,,,,,,,Too slow :(,,,,,,t1.png,t3.png,2,0.056466,19,Female,2020-08-26_18h00.52.025,torte-2b,2020.1.3,Win32,60,13445,,,,,,,,,,,,,,,,,,,,,,,,,,,,,,,,,,,,,,0,58,58,69,1,,,,,,,,,,,,,,,,,,,,,,,,
,,,,,,,,,,,,l,Correct!,,,,,,t5.png,t3.png,2,0.0565,19,Female,2020-08-26_18h00.52.025,torte-2b,2020.1.3,Win32,60,13445,1.45548,,,,,,,,,,,,,,,,,,,,,,,,,,,,,,,,,,,,,0,59,59,39,1,,,,,,,,,,,,,,,,,,,,,,,,
,,,,,,,,,,,,a,Incorrect,,,,,,t3.png,t1.png,2,0.056466,19,Female,2020-08-26_18h00.52.025,torte-2b,2020.1.3,Win32,60,13445,0.86669,,,,,,,,,,,,,,,,,,,,,,,,,,,,,,,,,,,,,0,60,60,32,1,,,,,,,,,,,,,,,,,,,,,,,,
,,,,,,,,,,,,l,Correct!,,,,,,t1.png,t4.png,3,0.0000131,19,Female,2020-08-26_18h00.52.025,torte-2b,2020.1.3,Win32,60,13445,1.4999,,,,,,,,,,,,,,,,,,,,,,,,,,,,,,,,,,,,,0,61,61,17,1,,,,,,,,,,,,,,,,,,,,,,,,
,,,,,,,,,,,,a,Incorrect,,,,,,t5.png,t3.png,2,0.056466,19,Female,2020-08-26_18h00.52.025,torte-2b,2020.1.3,Win32,60,13445,0.99926,,,,,,,,,,,,,,,,,,,,,,,,,,,,,,,,,,,,,0,62,62,38,1,,,,,,,,,,,,,,,,,,,,,,,,
,,,,,,,,,,,,a,Correct!,,,,,,t2.png,t3.png,1,0.90855,19,Female,2020-08-26_18h00.52.025,torte-2b,2020.1.3,Win32,60,13445,1.224525,,,,,,,,,,,,,,,,,,,,,,,,,,,,,,,,,,,,,0,63,63,10,1,,,,,,,,,,,,,,,,,,,,,,,,
,,,,,,,,,,,,a,Incorrect,,,,,,t1.png,t5.png,4,9.55E-11,19,Female,2020-08-26_18h00.52.025,torte-2b,2020.1.3,Win32,60,13445,2.033755,,,,,,,,,,,,,,,,,,,,,,,,,,,,,,,,,,,,,0,64,64,55,1,,,,,,,,,,,,,,,,,,,,,,,,
,,,,,,,,,,,,l,Incorrect,,,,,,t2.png,t2.png,0,0.98115,19,Female,2020-08-26_18h00.52.025,torte-2b,2020.1.3,Win32,60,13445,2.01952,,,,,,,,,,,,,,,,,,,,,,,,,,,,,,,,,,,,,0,65,65,2,1,,,,,,,,,,,,,,,,,,,,,,,,
,,,,,,,,,,,,l,Incorrect,,,,,,t5.png,t4.png,1,0.9,19,Female,2020-08-26_18h00.52.025,torte-2b,2020.1.3,Win32,60,13445,1.34942,,,,,,,,,,,,,,,,,,,,,,,,,,,,,,,,,,,,,0,66,66,76,1,,,,,,,,,,,,,,,,,,,,,,,,
,,,,,,,,,,,,a,Incorrect,,,,,,t3.png,t5.png,2,0.056466,19,Female,2020-08-26_18h00.52.025,torte-2b,2020.1.3,Win32,60,13445,1.1514,,,,,,,,,,,,,,,,,,,,,,,,,,,,,,,,,,,,,0,67,67,14,1,,,,,,,,,,,,,,,,,,,,,,,,
,,,,,,,,,,,,l,Correct!,,,,,,t2.png,t5.png,3,0.0000131,19,Female,2020-08-26_18h00.52.025,torte-2b,2020.1.3,Win32,60,13445,1.465265,,,,,,,,,,,,,,,,,,,,,,,,,,,,,,,,,,,,,0,68,68,104,1,,,,,,,,,,,,,,,,,,,,,,,,
,,,,,,,,,,,,a,Incorrect,,,,,,t1.png,t4.png,3,0.0000131,19,Female,2020-08-26_18h00.52.025,torte-2b,2020.1.3,Win32,60,13445,1.854755,,,,,,,,,,,,,,,,,,,,,,,,,,,,,,,,,,,,,0,69,69,50,1,,,,,,,,,,,,,,,,,,,,,,,,
,,,,,,,,,,,,a,Correct!,,,,,,t5.png,t4.png,1,0.9,19,Female,2020-08-26_18h00.52.025,torte-2b,2020.1.3,Win32,60,13445,1.53257,,,,,,,,,,,,,,,,,,,,,,,,,,,,,,,,,,,,,0,70,70,49,1,,,,,,,,,,,,,,,,,,,,,,,,
,,,,,,,,,,,,,Too slow :(,,,,,,t1.png,t1.png,0,0.978,19,Female,2020-08-26_18h00.52.025,torte-2b,2020.1.3,Win32,60,13445,,,,,,,,,,,,,,,,,,,,,,,,,,,,,,,,,,,,,,0,71,71,54,1,,,,,,,,,,,,,,,,,,,,,,,,
,,,,,,,,,,,,,Too slow :(,,,,,,t2.png,t2.png,0,0.981,19,Female,2020-08-26_18h00.52.025,torte-2b,2020.1.3,Win32,60,13445,,,,,,,,,,,,,,,,,,,,,,,,,,,,,,,,,,,,,,0,72,72,101,1,,,,,,,,,,,,,,,,,,,,,,,,
,,,,,,,,,,,,a,Incorrect,,,,,,t5.png,t2.png,3,0.0000131,19,Female,2020-08-26_18h00.52.025,torte-2b,2020.1.3,Win32,60,13445,1.36633,,,,,,,,,,,,,,,,,,,,,,,,,,,,,,,,,,,,,0,73,73,51,1,,,,,,,,,,,,,,,,,,,,,,,,
,,,,,,,,,,,,l,Correct!,,,,,,t1.png,t5.png,4,9.55E-11,19,Female,2020-08-26_18h00.52.025,torte-2b,2020.1.3,Win32,60,13445,1.08395,,,,,,,,,,,,,,,,,,,,,,,,,,,,,,,,,,,,,0,74,74,85,1,,,,,,,,,,,,,,,,,,,,,,,,
,,,,,,,,,,,,l,Incorrect,,,,,,t2.png,t3.png,1,0.90855,19,Female,2020-08-26_18h00.52.025,torte-2b,2020.1.3,Win32,60,13445,1.115785,,,,,,,,,,,,,,,,,,,,,,,,,,,,,,,,,,,,,0,75,75,68,1,,,,,,,,,,,,,,,,,,,,,,,,
,,,,,,,,,,,,a,Incorrect,,,,,,t3.png,t5.png,2,0.0565,19,Female,2020-08-26_18h00.52.025,torte-2b,2020.1.3,Win32,60,13445,1.10762,,,,,,,,,,,,,,,,,,,,,,,,,,,,,,,,,,,,,0,76,76,83,1,,,,,,,,,,,,,,,,,,,,,,,,
,,,,,,,,,,,,a,Incorrect,,,,,,t4.png,t1.png,3,0.0000131,19,Female,2020-08-26_18h00.52.025,torte-2b,2020.1.3,Win32,60,13445,1.238145,,,,,,,,,,,,,,,,,,,,,,,,,,,,,,,,,,,,,0,77,77,13,1,,,,,,,,,,,,,,,,,,,,,,,,
,,,,,,,,,,,,l,Correct!,,,,,,t4.png,t2.png,2,0.059078,19,Female,2020-08-26_18h00.52.025,torte-2b,2020.1.3,Win32,60,13445,1.680585,,,,,,,,,,,,,,,,,,,,,,,,,,,,,,,,,,,,,0,78,78,109,1,,,,,,,,,,,,,,,,,,,,,,,,
,,,,,,,,,,,,a,Incorrect,,,,,,t3.png,t5.png,2,0.056466,19,Female,2020-08-26_18h00.52.025,torte-2b,2020.1.3,Win32,60,13445,0.93819,,,,,,,,,,,,,,,,,,,,,,,,,,,,,,,,,,,,,0,79,79,6,1,,,,,,,,,,,,,,,,,,,,,,,,
,,,,,,,,,,,,l,Correct!,,,,,,t2.png,t4.png,2,0.059078,19,Female,2020-08-26_18h00.52.025,torte-2b,2020.1.3,Win32,60,13445,1.98859,,,,,,,,,,,,,,,,,,,,,,,,,,,,,,,,,,,,,0,80,80,37,1,,,,,,,,,,,,,,,,,,,,,,,,
,,,,,,,,,,,,a,Correct!,,,,,,t5.png,t5.png,0,0.97829,19,Female,2020-08-26_18h00.52.025,torte-2b,2020.1.3,Win32,60,13445,2.23459,,,,,,,,,,,,,,,,,,,,,,,,,,,,,,,,,,,,,0,81,81,94,1,,,,,,,,,,,,,,,,,,,,,,,,
,,,,,,,,,,,,l,Correct!,,,,,,t2.png,t5.png,3,0.0000131,19,Female,2020-08-26_18h00.52.025,torte-2b,2020.1.3,Win32,60,13445,1.38059,,,,,,,,,,,,,,,,,,,,,,,,,,,,,,,,,,,,,0,82,82,66,1,,,,,,,,,,,,,,,,,,,,,,,,
,,,,,,,,,,,,l,Correct!,,,,,,t1.png,t5.png,4,9.55E-11,19,Female,2020-08-26_18h00.52.025,torte-2b,2020.1.3,Win32,60,13445,1.704875,,,,,,,,,,,,,,,,,,,,,,,,,,,,,,,,,,,,,0,83,83,41,1,,,,,,,,,,,,,,,,,,,,,,,,
,,,,,,,,,,,,a,Correct!,,,,,,t4.png,t5.png,1,0.9,19,Female,2020-08-26_18h00.52.025,torte-2b,2020.1.3,Win32,60,13445,2.053565,,,,,,,,,,,,,,,,,,,,,,,,,,,,,,,,,,,,,0,84,84,115,1,,,,,,,,,,,,,,,,,,,,,,,,
,,,,,,,,,,,,a,Correct!,,,,,,t1.png,t1.png,0,0.978,19,Female,2020-08-26_18h00.52.025,torte-2b,2020.1.3,Win32,60,13445,1.787105,,,,,,,,,,,,,,,,,,,,,,,,,,,,,,,,,,,,,0,85,85,28,1,,,,,,,,,,,,,,,,,,,,,,,,
,,,,,,,,,,,,a,Incorrect,,,,,,t5.png,t3.png,2,0.056466,19,Female,2020-08-26_18h00.52.025,torte-2b,2020.1.3,Win32,60,13445,1.39131,,,,,,,,,,,,,,,,,,,,,,,,,,,,,,,,,,,,,0,86,86,108,1,,,,,,,,,,,,,,,,,,,,,,,,
,,,,,,,,,,,,,Too slow :(,,,,,,t3.png,t2.png,1,0.909,19,Female,2020-08-26_18h00.52.025,torte-2b,2020.1.3,Win32,60,13445,,,,,,,,,,,,,,,,,,,,,,,,,,,,,,,,,,,,,,0,87,87,23,1,,,,,,,,,,,,,,,,,,,,,,,,
,,,,,,,,,,,,,Too slow :(,,,,,,t2.png,t1.png,1,0.90025,19,Female,2020-08-26_18h00.52.025,torte-2b,2020.1.3,Win32,60,13445,,,,,,,,,,,,,,,,,,,,,,,,,,,,,,,,,,,,,,0,88,88,19,1,,,,,,,,,,,,,,,,,,,,,,,,
,,,,,,,,,,,,,Too slow :(,,,,,,t2.png,t4.png,2,0.059078,19,Female,2020-08-26_18h00.52.025,torte-2b,2020.1.3,Win32,60,13445,,,,,,,,,,,,,,,,,,,,,,,,,,,,,,,,,,,,,,0,89,89,77,1,,,,,,,,,,,,,,,,,,,,,,,,
,,,,,,,,,,,,a,Correct!,,,,,,t5.png,t5.png,0,0.97829,19,Female,2020-08-26_18h00.52.025,torte-2b,2020.1.3,Win32,60,13445,1.15035,,,,,,,,,,,,,,,,,,,,,,,,,,,,,,,,,,,,,0,90,90,70,1,,,,,,,,,,,,,,,,,,,,,,,,
,,,,,,,,,,,,a,Incorrect,,,,,,t1.png,t3.png,2,0.056466,19,Female,2020-08-26_18h00.52.025,torte-2b,2020.1.3,Win32,60,13445,1.38494,,,,,,,,,,,,,,,,,,,,,,,,,,,,,,,,,,,,,0,91,91,99,1,,,,,,,,,,,,,,,,,,,,,,,,
,,,,,,,,,,,,a,Correct!,,,,,,t5.png,t5.png,0,0.97829,19,Female,2020-08-26_18h00.52.025,torte-2b,2020.1.3,Win32,60,13445,1.15095,,,,,,,,,,,,,,,,,,,,,,,,,,,,,,,,,,,,,0,92,92,73,1,,,,,,,,,,,,,,,,,,,,,,,,
,,,,,,,,,,,,l,Incorrect,,,,,,t1.png,t2.png,1,0.90025,19,Female,2020-08-26_18h00.52.025,torte-2b,2020.1.3,Win32,60,13445,1.709095,,,,,,,,,,,,,,,,,,,,,,,,,,,,,,,,,,,,,0,93,93,72,1,,,,,,,,,,,,,,,,,,,,,,,,
,,,,,,,,,,,,a,Incorrect,,,,,,t2.png,t5.png,3,0.0000131,19,Female,2020-08-26_18h00.52.025,torte-2b,2020.1.3,Win32,60,13445,1.254045,,,,,,,,,,,,,,,,,,,,,,,,,,,,,,,,,,,,,0,94,94,40,1,,,,,,,,,,,,,,,,,,,,,,,,
,,,,,,,,,,,,a,Incorrect,,,,,,t5.png,t1.png,4,9.55E-11,19,Female,2020-08-26_18h00.52.025,torte-2b,2020.1.3,Win32,60,13445,1.101335,,,,,,,,,,,,,,,,,,,,,,,,,,,,,,,,,,,,,0,95,95,43,1,,,,,,,,,,,,,,,,,,,,,,,,
,,,,,,,,,,,,a,Correct!,,,,,,t1.png,t1.png,0,0.97829,19,Female,2020-08-26_18h00.52.025,torte-2b,2020.1.3,Win32,60,13445,1.05739,,,,,,,,,,,,,,,,,,,,,,,,,,,,,,,,,,,,,0,96,96,67,1,,,,,,,,,,,,,,,,,,,,,,,,
,,,,,,,,,,,,a,Correct!,,,,,,t2.png,t3.png,1,0.90855,19,Female,2020-08-26_18h00.52.025,torte-2b,2020.1.3,Win32,60,13445,1.84926,,,,,,,,,,,,,,,,,,,,,,,,,,,,,,,,,,,,,0,97,97,111,1,,,,,,,,,,,,,,,,,,,,,,,,
,,,,,,,,,,,,l,Incorrect,,,,,,t2.png,t1.png,1,0.90025,19,Female,2020-08-26_18h00.52.025,torte-2b,2020.1.3,Win32,60,13445,1.53353,,,,,,,,,,,,,,,,,,,,,,,,,,,,,,,,,,,,,0,98,98,5,1,,,,,,,,,,,,,,,,,,,,,,,,
,,,,,,,,,,,,a,Incorrect,,,,,,t4.png,t1.png,3,0.0000131,19,Female,2020-08-26_18h00.52.025,torte-2b,2020.1.3,Win32,60,13445,1.03454,,,,,,,,,,,,,,,,,,,,,,,,,,,,,,,,,,,,,0,99,99,48,1,,,,,,,,,,,,,,,,,,,,,,,,
,,,,,,,,,,,,l,Correct!,,,,,,t4.png,t2.png,2,0.059078,19,Female,2020-08-26_18h00.52.025,torte-2b,2020.1.3,Win32,60,13445,1.58596,,,,,,,,,,,,,,,,,,,,,,,,,,,,,,,,,,,,,0,100,100,88,1,,,,,,,,,,,,,,,,,,,,,,,,
,,,,,,,,,,,,l,Correct!,,,,,,t2.png,t5.png,3,0.0000131,19,Female,2020-08-26_18h00.52.025,torte-2b,2020.1.3,Win32,60,13445,2.136175,,,,,,,,,,,,,,,,,,,,,,,,,,,,,,,,,,,,,0,101,101,8,1,,,,,,,,,,,,,,,,,,,,,,,,
,,,,,,,,,,,,l,Correct!,,,,,,t1.png,t5.png,4,9.55E-11,19,Female,2020-08-26_18h00.52.025,torte-2b,2020.1.3,Win32,60,13445,1.72594,,,,,,,,,,,,,,,,,,,,,,,,,,,,,,,,,,,,,0,102,102,12,1,,,,,,,,,,,,,,,,,,,,,,,,
,,,,,,,,,,,,a,Incorrect,,,,,,t5.png,t3.png,2,0.056466,19,Female,2020-08-26_18h00.52.025,torte-2b,2020.1.3,Win32,60,13445,1.918185,,,,,,,,,,,,,,,,,,,,,,,,,,,,,,,,,,,,,0,103,103,114,1,,,,,,,,,,,,,,,,,,,,,,,,
,,,,,,,,,,,,l,Incorrect,,,,,,t4.png,t5.png,1,0.90025,19,Female,2020-08-26_18h00.52.025,torte-2b,2020.1.3,Win32,60,13445,1.134415,,,,,,,,,,,,,,,,,,,,,,,,,,,,,,,,,,,,,0,104,104,113,1,,,,,,,,,,,,,,,,,,,,,,,,
,,,,,,,,,,,,a,Correct!,,,,,,t3.png,t4.png,1,0.909,19,Female,2020-08-26_18h00.52.025,torte-2b,2020.1.3,Win32,60,13445,1.275035,,,,,,,,,,,,,,,,,,,,,,,,,,,,,,,,,,,,,0,105,105,89,1,,,,,,,,,,,,,,,,,,,,,,,,
,,,,,,,,,,,,l,Incorrect,,,,,,t2.png,t3.png,1,0.90855,19,Female,2020-08-26_18h00.52.025,torte-2b,2020.1.3,Win32,60,13445,1.691495,,,,,,,,,,,,,,,,,,,,,,,,,,,,,,,,,,,,,0,106,106,65,1,,,,,,,,,,,,,,,,,,,,,,,,
,,,,,,,,,,,,a,Incorrect,,,,,,t3.png,t1.png,2,0.056466,19,Female,2020-08-26_18h00.52.025,torte-2b,2020.1.3,Win32,60,13445,1.487605,,,,,,,,,,,,,,,,,,,,,,,,,,,,,,,,,,,,,0,107,107,29,1,,,,,,,,,,,,,,,,,,,,,,,,
,,,,,,,,,,,,l,Correct!,,,,,,t2.png,t3.png,1,0.909,19,Female,2020-08-26_18h00.52.025,torte-2b,2020.1.3,Win32,60,13445,2.137945,,,,,,,,,,,,,,,,,,,,,,,,,,,,,,,,,,,,,0,108,108,74,1,,,,,,,,,,,,,,,,,,,,,,,,
,,,,,,,,,,,,,Too slow :(,,,,,,t1.png,t1.png,0,0.97829,19,Female,2020-08-26_18h00.52.025,torte-2b,2020.1.3,Win32,60,13445,,,,,,,,,,,,,,,,,,,,,,,,,,,,,,,,,,,,,,0,109,109,78,1,,,,,,,,,,,,,,,,,,,,,,,,
,,,,,,,,,,,,a,Correct!,,,,,,t4.png,t4.png,0,0.98115,19,Female,2020-08-26_18h00.52.025,torte-2b,2020.1.3,Win32,60,13445,1.87034,,,,,,,,,,,,,,,,,,,,,,,,,,,,,,,,,,,,,0,110,110,21,1,,,,,,,,,,,,,,,,,,,,,,,,
,,,,,,,,,,,,a,Correct!,,,,,,t1.png,t3.png,2,0.056466,19,Female,2020-08-26_18h00.52.025,torte-2b,2020.1.3,Win32,60,13445,1.535715,,,,,,,,,,,,,,,,,,,,,,,,,,,,,,,,,,,,,0,111,111,63,1,,,,,,,,,,,,,,,,,,,,,,,,
,,,,,,,,,,,,a,Correct!,,,,,,t3.png,t2.png,1,0.90855,19,Female,2020-08-26_18h00.52.025,torte-2b,2020.1.3,Win32,60,13445,1.016035,,,,,,,,,,,,,,,,,,,,,,,,,,,,,,,,,,,,,0,112,112,53,1,,,,,,,,,,,,,,,,,,,,,,,,
,,,,,,,,,,,,a,Correct!,,,,,,t3.png,t4.png,1,0.90855,19,Female,2020-08-26_18h00.52.025,torte-2b,2020.1.3,Win32,60,13445,1.4034,,,,,,,,,,,,,,,,,,,,,,,,,,,,,,,,,,,,,0,113,113,84,1,,,,,,,,,,,,,,,,,,,,,,,,
,,,,,,,,,,,,,Too slow :(,,,,,,t2.png,t1.png,1,0.90025,19,Female,2020-08-26_18h00.52.025,torte-2b,2020.1.3,Win32,60,13445,,,,,,,,,,,,,,,,,,,,,,,,,,,,,,,,,,,,,,0,114,114,62,1,,,,,,,,,,,,,,,,,,,,,,,,
,,,,,,,,,,,,a,Correct!,,,,,,t4.png,t2.png,2,0.059078,19,Female,2020-08-26_18h00.52.025,torte-2b,2020.1.3,Win32,60,13445,2.286995,,,,,,,,,,,,,,,,,,,,,,,,,,,,,,,,,,,,,0,115,115,86,1,,,,,,,,,,,,,,,,,,,,,,,,
,,,,,,,,,,,,l,Incorrect,,,,,,t2.png,t2.png,0,0.98115,19,Female,2020-08-26_18h00.52.025,torte-2b,2020.1.3,Win32,60,13445,1.58952,,,,,,,,,,,,,,,,,,,,,,,,,,,,,,,,,,,,,0,116,116,57,1,,,,,,,,,,,,,,,,,,,,,,,,
,,,,,,,,,,,,,Too slow :(,,,,,,t4.png,t1.png,3,0.0000131,19,Female,2020-08-26_18h00.52.025,torte-2b,2020.1.3,Win32,60,13445,,,,,,,,,,,,,,,,,,,,,,,,,,,,,,,,,,,,,,0,117,117,93,1,,,,,,,,,,,,,,,,,,,,,,,,
,,,,,,,,,,,,l,Correct!,,,,,,t1.png,t5.png,4,9.55E-11,19,Female,2020-08-26_18h00.52.025,torte-2b,2020.1.3,Win32,60,13445,1.468525,,,,,,,,,,,,,,,,,,,,,,,,,,,,,,,,,,,,,0,118,118,16,1,,,,,,,,,,,,,,,,,,,,,,,,
,,,,,,,,,,,,,Too slow :(,,,,,,t4.png,t5.png,1,0.90025,19,Female,2020-08-26_18h00.52.025,torte-2b,2020.1.3,Win32,60,13445,,,,,,,,,,,,,,,,,,,,,,,,,,,,,,,,,,,,,,0,119,119,58,1,,,,,,,,,,,,,,,,,,,,,,,,
,,,,,,,,,,,,,,,,,,,,,,,19,Female,2020-08-26_18h00.52.025,torte-2b,2020.1.3,Win32,60,13445,,space,1.25539,,,,,,,,,,,,,,,,,,,,,,,,,,,,,,,,,,,,,,,,29.50002801,-182.6666874,1,0,0,s7,140.1667794,97.33332098,1,0,0,t1,269.5000352,-93.33339206,1,0,0,proceed,space,0.61454,space,0.353305,space,0.316685
