key_resp_8.keys,key_resp_8.rt,key_resp_9.keys,key_resp_9.rt,key_resp_10.keys,key_resp_10.rt,key_resp_11.keys,key_resp_11.rt,key_resp_2.keys,key_resp_2.rt,key_resp_3.keys,key_resp_3.rt,key_resp.keys,Feedback,train.thisRepN,train.thisTrialN,train.thisN,train.thisIndex,train.ran,torta_sx,torta_dx,difference,probability,age,gender,date,expName,psychopyVersion,OS,frameRate,participant,key_resp.rt,key_resp_15.keys,key_resp_15.rt,key_resp_6.keys,key_resp_6.rt,test1.thisRepN,test1.thisTrialN,test1.thisN,test1.thisIndex,test1.ran,key_resp_4.keys,key_resp_4.rt,key_resp_5.keys,back1.thisRepN,back1.thisTrialN,back1.thisN,back1.thisIndex,back1.ran,letter,key_resp_5.rt,back2.thisRepN,back2.thisTrialN,back2.thisN,back2.thisIndex,back2.ran,back3.thisRepN,back3.thisTrialN,back3.thisN,back3.thisIndex,back3.ran,back4.thisRepN,back4.thisTrialN,back4.thisN,back4.thisIndex,back4.ran,key_resp_7.keys,key_resp_7.rt,test2.thisRepN,test2.thisTrialN,test2.thisN,test2.thisIndex,test2.ran,mouse.x,mouse.y,mouse.leftButton,mouse.midButton,mouse.rightButton,mouse.clicked_name,mouse_2.x,mouse_2.y,mouse_2.leftButton,mouse_2.midButton,mouse_2.rightButton,mouse_2.clicked_name,mouse_3.x,mouse_3.y,mouse_3.leftButton,mouse_3.midButton,mouse_3.rightButton,mouse_3.clicked_name,key_resp_12.keys,key_resp_12.rt,key_resp_13.keys,key_resp_13.rt,key_resp_14.keys,key_resp_14.rt
space,0.341,space,0.45,space,0.499,space,0.314,space,0.916,space,122.104,,Too slow :(,0,0,0,67,1,t1.png,t5.png,4,9.55E-11,19,female,2020-08-30_21h16.11.338,torte-2b,2020.1.3,MacIntel,60,13449,,,,,,,,,,,,,,,,,,,,,,,,,,,,,,,,,,,,,,,,,,,,,,,,,,,,,,,,,,,,,,,,,,
,,,,,,,,,,,,a,Correct!,0,1,1,112,1,t1.png,t1.png,0,0.97829,19,female,2020-08-30_21h16.11.338,torte-2b,2020.1.3,MacIntel,60,13449,0.422,,,,,,,,,,,,,,,,,,,,,,,,,,,,,,,,,,,,,,,,,,,,,,,,,,,,,,,,,,,,,,,,,
,,,,,,,,,,,,a,Correct!,0,2,2,71,1,t5.png,t5.png,0,0.97829,19,female,2020-08-30_21h16.11.338,torte-2b,2020.1.3,MacIntel,60,13449,1.916,,,,,,,,,,,,,,,,,,,,,,,,,,,,,,,,,,,,,,,,,,,,,,,,,,,,,,,,,,,,,,,,,
,,,,,,,,,,,,l,Correct!,0,3,3,91,1,t1.png,t4.png,3,0.0000131,19,female,2020-08-30_21h16.11.338,torte-2b,2020.1.3,MacIntel,60,13449,1.779,,,,,,,,,,,,,,,,,,,,,,,,,,,,,,,,,,,,,,,,,,,,,,,,,,,,,,,,,,,,,,,,,
,,,,,,,,,,,,a,Incorrect,0,4,4,94,1,t5.png,t1.png,4,9.55E-11,19,female,2020-08-30_21h16.11.338,torte-2b,2020.1.3,MacIntel,60,13449,1.282,,,,,,,,,,,,,,,,,,,,,,,,,,,,,,,,,,,,,,,,,,,,,,,,,,,,,,,,,,,,,,,,,
,,,,,,,,,,,,a,Incorrect,0,5,5,88,1,t3.png,t1.png,2,0.056466,19,female,2020-08-30_21h16.11.338,torte-2b,2020.1.3,MacIntel,60,13449,2.356,,,,,,,,,,,,,,,,,,,,,,,,,,,,,,,,,,,,,,,,,,,,,,,,,,,,,,,,,,,,,,,,,
,,,,,,,,,,,,,Too slow :(,0,6,6,29,1,t5.png,t5.png,0,0.97829,19,female,2020-08-30_21h16.11.338,torte-2b,2020.1.3,MacIntel,60,13449,,,,,,,,,,,,,,,,,,,,,,,,,,,,,,,,,,,,,,,,,,,,,,,,,,,,,,,,,,,,,,,,,,
,,,,,,,,,,,,,Too slow :(,0,7,7,101,1,t4.png,t5.png,1,0.90025,19,female,2020-08-30_21h16.11.338,torte-2b,2020.1.3,MacIntel,60,13449,,,,,,,,,,,,,,,,,,,,,,,,,,,,,,,,,,,,,,,,,,,,,,,,,,,,,,,,,,,,,,,,,,
,,,,,,,,,,,,,Too slow :(,0,8,8,21,1,t5.png,t4.png,1,0.90025,19,female,2020-08-30_21h16.11.338,torte-2b,2020.1.3,MacIntel,60,13449,,,,,,,,,,,,,,,,,,,,,,,,,,,,,,,,,,,,,,,,,,,,,,,,,,,,,,,,,,,,,,,,,,
,,,,,,,,,,,,,Too slow :(,0,9,9,89,1,t1.png,t4.png,3,0.0000131,19,female,2020-08-30_21h16.11.338,torte-2b,2020.1.3,MacIntel,60,13449,,,,,,,,,,,,,,,,,,,,,,,,,,,,,,,,,,,,,,,,,,,,,,,,,,,,,,,,,,,,,,,,,,
,,,,,,,,,,,,a,Incorrect,0,10,10,102,1,t4.png,t2.png,2,0.059078,19,female,2020-08-30_21h16.11.338,torte-2b,2020.1.3,MacIntel,60,13449,0.882,,,,,,,,,,,,,,,,,,,,,,,,,,,,,,,,,,,,,,,,,,,,,,,,,,,,,,,,,,,,,,,,,
,,,,,,,,,,,,l,Incorrect,0,11,11,92,1,t2.png,t3.png,1,0.909,19,female,2020-08-30_21h16.11.338,torte-2b,2020.1.3,MacIntel,60,13449,1.915,,,,,,,,,,,,,,,,,,,,,,,,,,,,,,,,,,,,,,,,,,,,,,,,,,,,,,,,,,,,,,,,,
,,,,,,,,,,,,l,Incorrect,0,12,12,114,1,t2.png,t3.png,1,0.90855,19,female,2020-08-30_21h16.11.338,torte-2b,2020.1.3,MacIntel,60,13449,1.202,,,,,,,,,,,,,,,,,,,,,,,,,,,,,,,,,,,,,,,,,,,,,,,,,,,,,,,,,,,,,,,,,
,,,,,,,,,,,,l,Incorrect,0,13,13,95,1,t1.png,t1.png,0,0.978,19,female,2020-08-30_21h16.11.338,torte-2b,2020.1.3,MacIntel,60,13449,2.438,,,,,,,,,,,,,,,,,,,,,,,,,,,,,,,,,,,,,,,,,,,,,,,,,,,,,,,,,,,,,,,,,
,,,,,,,,,,,,a,Correct!,0,14,14,97,1,t5.png,t5.png,0,0.97829,19,female,2020-08-30_21h16.11.338,torte-2b,2020.1.3,MacIntel,60,13449,0.731,,,,,,,,,,,,,,,,,,,,,,,,,,,,,,,,,,,,,,,,,,,,,,,,,,,,,,,,,,,,,,,,,
,,,,,,,,,,,,a,Correct!,0,15,15,105,1,t3.png,t2.png,1,0.90855,19,female,2020-08-30_21h16.11.338,torte-2b,2020.1.3,MacIntel,60,13449,1.188,,,,,,,,,,,,,,,,,,,,,,,,,,,,,,,,,,,,,,,,,,,,,,,,,,,,,,,,,,,,,,,,,
,,,,,,,,,,,,l,Correct!,0,16,16,117,1,t1.png,t5.png,4,9.55E-11,19,female,2020-08-30_21h16.11.338,torte-2b,2020.1.3,MacIntel,60,13449,1.849,,,,,,,,,,,,,,,,,,,,,,,,,,,,,,,,,,,,,,,,,,,,,,,,,,,,,,,,,,,,,,,,,
,,,,,,,,,,,,,Too slow :(,0,17,17,23,1,t5.png,t4.png,1,0.90025,19,female,2020-08-30_21h16.11.338,torte-2b,2020.1.3,MacIntel,60,13449,,,,,,,,,,,,,,,,,,,,,,,,,,,,,,,,,,,,,,,,,,,,,,,,,,,,,,,,,,,,,,,,,,
,,,,,,,,,,,,l,Correct!,0,18,18,36,1,t3.png,t1.png,2,0.0565,19,female,2020-08-30_21h16.11.338,torte-2b,2020.1.3,MacIntel,60,13449,1.638,,,,,,,,,,,,,,,,,,,,,,,,,,,,,,,,,,,,,,,,,,,,,,,,,,,,,,,,,,,,,,,,,
,,,,,,,,,,,,a,Correct!,0,19,19,25,1,t5.png,t5.png,0,0.97829,19,female,2020-08-30_21h16.11.338,torte-2b,2020.1.3,MacIntel,60,13449,1.057,,,,,,,,,,,,,,,,,,,,,,,,,,,,,,,,,,,,,,,,,,,,,,,,,,,,,,,,,,,,,,,,,
,,,,,,,,,,,,l,Correct!,0,20,20,4,1,t1.png,t5.png,4,9.55E-11,19,female,2020-08-30_21h16.11.338,torte-2b,2020.1.3,MacIntel,60,13449,0.965,,,,,,,,,,,,,,,,,,,,,,,,,,,,,,,,,,,,,,,,,,,,,,,,,,,,,,,,,,,,,,,,,
,,,,,,,,,,,,,Too slow :(,0,21,21,26,1,t4.png,t2.png,2,0.0591,19,female,2020-08-30_21h16.11.338,torte-2b,2020.1.3,MacIntel,60,13449,,,,,,,,,,,,,,,,,,,,,,,,,,,,,,,,,,,,,,,,,,,,,,,,,,,,,,,,,,,,,,,,,,
,,,,,,,,,,,,a,Incorrect,0,22,22,33,1,t5.png,t1.png,4,9.55E-11,19,female,2020-08-30_21h16.11.338,torte-2b,2020.1.3,MacIntel,60,13449,1.2,,,,,,,,,,,,,,,,,,,,,,,,,,,,,,,,,,,,,,,,,,,,,,,,,,,,,,,,,,,,,,,,,
,,,,,,,,,,,,a,Correct!,0,23,23,66,1,t4.png,t5.png,1,0.9,19,female,2020-08-30_21h16.11.338,torte-2b,2020.1.3,MacIntel,60,13449,0.159,,,,,,,,,,,,,,,,,,,,,,,,,,,,,,,,,,,,,,,,,,,,,,,,,,,,,,,,,,,,,,,,,
,,,,,,,,,,,,l,Correct!,0,24,24,35,1,t1.png,t4.png,3,0.0000131,19,female,2020-08-30_21h16.11.338,torte-2b,2020.1.3,MacIntel,60,13449,1.273,,,,,,,,,,,,,,,,,,,,,,,,,,,,,,,,,,,,,,,,,,,,,,,,,,,,,,,,,,,,,,,,,
,,,,,,,,,,,,l,Incorrect,0,25,25,62,1,t5.png,t5.png,0,0.978,19,female,2020-08-30_21h16.11.338,torte-2b,2020.1.3,MacIntel,60,13449,1.585,,,,,,,,,,,,,,,,,,,,,,,,,,,,,,,,,,,,,,,,,,,,,,,,,,,,,,,,,,,,,,,,,
,,,,,,,,,,,,a,Incorrect,0,26,26,30,1,t3.png,t1.png,2,0.056466,19,female,2020-08-30_21h16.11.338,torte-2b,2020.1.3,MacIntel,60,13449,0.458,,,,,,,,,,,,,,,,,,,,,,,,,,,,,,,,,,,,,,,,,,,,,,,,,,,,,,,,,,,,,,,,,
,,,,,,,,,,,,,Too slow :(,0,27,27,31,1,t1.png,t5.png,4,9.55E-11,19,female,2020-08-30_21h16.11.338,torte-2b,2020.1.3,MacIntel,60,13449,,,,,,,,,,,,,,,,,,,,,,,,,,,,,,,,,,,,,,,,,,,,,,,,,,,,,,,,,,,,,,,,,,
,,,,,,,,,,,,a,Correct!,0,28,28,15,1,t3.png,t2.png,1,0.90855,19,female,2020-08-30_21h16.11.338,torte-2b,2020.1.3,MacIntel,60,13449,0.404,,,,,,,,,,,,,,,,,,,,,,,,,,,,,,,,,,,,,,,,,,,,,,,,,,,,,,,,,,,,,,,,,
,,,,,,,,,,,,a,Incorrect,0,29,29,87,1,t5.png,t1.png,4,9.55E-11,19,female,2020-08-30_21h16.11.338,torte-2b,2020.1.3,MacIntel,60,13449,1.398,,,,,,,,,,,,,,,,,,,,,,,,,,,,,,,,,,,,,,,,,,,,,,,,,,,,,,,,,,,,,,,,,
,,,,,,,,,,,,a,Correct!,0,30,30,79,1,t3.png,t2.png,1,0.909,19,female,2020-08-30_21h16.11.338,torte-2b,2020.1.3,MacIntel,60,13449,1.756,,,,,,,,,,,,,,,,,,,,,,,,,,,,,,,,,,,,,,,,,,,,,,,,,,,,,,,,,,,,,,,,,
,,,,,,,,,,,,l,Correct!,0,31,31,55,1,t2.png,t4.png,2,0.059078,19,female,2020-08-30_21h16.11.338,torte-2b,2020.1.3,MacIntel,60,13449,0.683,,,,,,,,,,,,,,,,,,,,,,,,,,,,,,,,,,,,,,,,,,,,,,,,,,,,,,,,,,,,,,,,,
,,,,,,,,,,,,l,Incorrect,0,32,32,49,1,t4.png,t5.png,1,0.9,19,female,2020-08-30_21h16.11.338,torte-2b,2020.1.3,MacIntel,60,13449,0.889,,,,,,,,,,,,,,,,,,,,,,,,,,,,,,,,,,,,,,,,,,,,,,,,,,,,,,,,,,,,,,,,,
,,,,,,,,,,,,a,Incorrect,0,33,33,46,1,t4.png,t2.png,2,0.059078,19,female,2020-08-30_21h16.11.338,torte-2b,2020.1.3,MacIntel,60,13449,0.707,,,,,,,,,,,,,,,,,,,,,,,,,,,,,,,,,,,,,,,,,,,,,,,,,,,,,,,,,,,,,,,,,
,,,,,,,,,,,,a,Incorrect,0,34,34,68,1,t1.png,t4.png,3,0.0000131,19,female,2020-08-30_21h16.11.338,torte-2b,2020.1.3,MacIntel,60,13449,1.507,,,,,,,,,,,,,,,,,,,,,,,,,,,,,,,,,,,,,,,,,,,,,,,,,,,,,,,,,,,,,,,,,
,,,,,,,,,,,,a,Correct!,0,35,35,64,1,t1.png,t1.png,0,0.978,19,female,2020-08-30_21h16.11.338,torte-2b,2020.1.3,MacIntel,60,13449,0.665,,,,,,,,,,,,,,,,,,,,,,,,,,,,,,,,,,,,,,,,,,,,,,,,,,,,,,,,,,,,,,,,,
,,,,,,,,,,,,l,Correct!,0,36,36,82,1,t5.png,t1.png,4,9.55E-11,19,female,2020-08-30_21h16.11.338,torte-2b,2020.1.3,MacIntel,60,13449,0.865,,,,,,,,,,,,,,,,,,,,,,,,,,,,,,,,,,,,,,,,,,,,,,,,,,,,,,,,,,,,,,,,,
,,,,,,,,,,,,a,Incorrect,0,37,37,12,1,t5.png,t1.png,4,9.55E-11,19,female,2020-08-30_21h16.11.338,torte-2b,2020.1.3,MacIntel,60,13449,0.767,,,,,,,,,,,,,,,,,,,,,,,,,,,,,,,,,,,,,,,,,,,,,,,,,,,,,,,,,,,,,,,,,
,,,,,,,,,,,,l,Incorrect,0,38,38,20,1,t2.png,t3.png,1,0.90855,19,female,2020-08-30_21h16.11.338,torte-2b,2020.1.3,MacIntel,60,13449,1.215,,,,,,,,,,,,,,,,,,,,,,,,,,,,,,,,,,,,,,,,,,,,,,,,,,,,,,,,,,,,,,,,,
,,,,,,,,,,,,a,Incorrect,0,39,39,56,1,t5.png,t1.png,4,9.55E-11,19,female,2020-08-30_21h16.11.338,torte-2b,2020.1.3,MacIntel,60,13449,2.32,,,,,,,,,,,,,,,,,,,,,,,,,,,,,,,,,,,,,,,,,,,,,,,,,,,,,,,,,,,,,,,,,
,,,,,,,,,,,,a,Incorrect,0,40,40,47,1,t4.png,t2.png,2,0.059078,19,female,2020-08-30_21h16.11.338,torte-2b,2020.1.3,MacIntel,60,13449,0.533,,,,,,,,,,,,,,,,,,,,,,,,,,,,,,,,,,,,,,,,,,,,,,,,,,,,,,,,,,,,,,,,,
,,,,,,,,,,,,a,Incorrect,0,41,41,76,1,t3.png,t2.png,1,0.90855,19,female,2020-08-30_21h16.11.338,torte-2b,2020.1.3,MacIntel,60,13449,1.181,,,,,,,,,,,,,,,,,,,,,,,,,,,,,,,,,,,,,,,,,,,,,,,,,,,,,,,,,,,,,,,,,
,,,,,,,,,,,,a,Correct!,0,42,42,16,1,t5.png,t4.png,1,0.9,19,female,2020-08-30_21h16.11.338,torte-2b,2020.1.3,MacIntel,60,13449,0.632,,,,,,,,,,,,,,,,,,,,,,,,,,,,,,,,,,,,,,,,,,,,,,,,,,,,,,,,,,,,,,,,,
,,,,,,,,,,,,a,Correct!,0,43,43,53,1,t3.png,t1.png,2,0.056466,19,female,2020-08-30_21h16.11.338,torte-2b,2020.1.3,MacIntel,60,13449,2.355,,,,,,,,,,,,,,,,,,,,,,,,,,,,,,,,,,,,,,,,,,,,,,,,,,,,,,,,,,,,,,,,,
,,,,,,,,,,,,a,Incorrect,0,44,44,111,1,t5.png,t1.png,4,9.55E-11,19,female,2020-08-30_21h16.11.338,torte-2b,2020.1.3,MacIntel,60,13449,0.45,,,,,,,,,,,,,,,,,,,,,,,,,,,,,,,,,,,,,,,,,,,,,,,,,,,,,,,,,,,,,,,,,
,,,,,,,,,,,,a,Correct!,0,45,45,2,1,t3.png,t2.png,1,0.90855,19,female,2020-08-30_21h16.11.338,torte-2b,2020.1.3,MacIntel,60,13449,0.964,,,,,,,,,,,,,,,,,,,,,,,,,,,,,,,,,,,,,,,,,,,,,,,,,,,,,,,,,,,,,,,,,
,,,,,,,,,,,,l,Correct!,0,46,46,115,1,t2.png,t4.png,2,0.059078,19,female,2020-08-30_21h16.11.338,torte-2b,2020.1.3,MacIntel,60,13449,1.966,,,,,,,,,,,,,,,,,,,,,,,,,,,,,,,,,,,,,,,,,,,,,,,,,,,,,,,,,,,,,,,,,
,,,,,,,,,,,,l,Correct!,0,47,47,5,1,t2.png,t4.png,2,0.059078,19,female,2020-08-30_21h16.11.338,torte-2b,2020.1.3,MacIntel,60,13449,1.181,,,,,,,,,,,,,,,,,,,,,,,,,,,,,,,,,,,,,,,,,,,,,,,,,,,,,,,,,,,,,,,,,
,,,,,,,,,,,,l,Correct!,0,48,48,57,1,t2.png,t4.png,2,0.059078,19,female,2020-08-30_21h16.11.338,torte-2b,2020.1.3,MacIntel,60,13449,0.565,,,,,,,,,,,,,,,,,,,,,,,,,,,,,,,,,,,,,,,,,,,,,,,,,,,,,,,,,,,,,,,,,
,,,,,,,,,,,,l,Incorrect,0,49,49,104,1,t2.png,t3.png,1,0.90855,19,female,2020-08-30_21h16.11.338,torte-2b,2020.1.3,MacIntel,60,13449,0.808,,,,,,,,,,,,,,,,,,,,,,,,,,,,,,,,,,,,,,,,,,,,,,,,,,,,,,,,,,,,,,,,,
,,,,,,,,,,,,l,Incorrect,0,50,50,110,1,t4.png,t5.png,1,0.90025,19,female,2020-08-30_21h16.11.338,torte-2b,2020.1.3,MacIntel,60,13449,0.698,,,,,,,,,,,,,,,,,,,,,,,,,,,,,,,,,,,,,,,,,,,,,,,,,,,,,,,,,,,,,,,,,
,,,,,,,,,,,,l,Correct!,0,51,51,14,1,t2.png,t4.png,2,0.059078,19,female,2020-08-30_21h16.11.338,torte-2b,2020.1.3,MacIntel,60,13449,1.931,,,,,,,,,,,,,,,,,,,,,,,,,,,,,,,,,,,,,,,,,,,,,,,,,,,,,,,,,,,,,,,,,
,,,,,,,,,,,,a,Incorrect,0,52,52,69,1,t4.png,t2.png,2,0.059078,19,female,2020-08-30_21h16.11.338,torte-2b,2020.1.3,MacIntel,60,13449,0.669,,,,,,,,,,,,,,,,,,,,,,,,,,,,,,,,,,,,,,,,,,,,,,,,,,,,,,,,,,,,,,,,,
,,,,,,,,,,,,l,Incorrect,0,53,53,93,1,t2.png,t4.png,2,0.059078,19,female,2020-08-30_21h16.11.338,torte-2b,2020.1.3,MacIntel,60,13449,0.572,,,,,,,,,,,,,,,,,,,,,,,,,,,,,,,,,,,,,,,,,,,,,,,,,,,,,,,,,,,,,,,,,
,,,,,,,,,,,,a,Incorrect,0,54,54,19,1,t4.png,t2.png,2,0.059078,19,female,2020-08-30_21h16.11.338,torte-2b,2020.1.3,MacIntel,60,13449,0.675,,,,,,,,,,,,,,,,,,,,,,,,,,,,,,,,,,,,,,,,,,,,,,,,,,,,,,,,,,,,,,,,,
,,,,,,,,,,,,l,Correct!,0,55,55,54,1,t1.png,t5.png,4,9.55E-11,19,female,2020-08-30_21h16.11.338,torte-2b,2020.1.3,MacIntel,60,13449,0.8,,,,,,,,,,,,,,,,,,,,,,,,,,,,,,,,,,,,,,,,,,,,,,,,,,,,,,,,,,,,,,,,,
,,,,,,,,,,,,l,Correct!,0,56,56,3,1,t1.png,t5.png,4,9.55E-11,19,female,2020-08-30_21h16.11.338,torte-2b,2020.1.3,MacIntel,60,13449,0.698,,,,,,,,,,,,,,,,,,,,,,,,,,,,,,,,,,,,,,,,,,,,,,,,,,,,,,,,,,,,,,,,,
,,,,,,,,,,,,l,Incorrect,0,57,57,28,1,t2.png,t3.png,1,0.909,19,female,2020-08-30_21h16.11.338,torte-2b,2020.1.3,MacIntel,60,13449,2.081,,,,,,,,,,,,,,,,,,,,,,,,,,,,,,,,,,,,,,,,,,,,,,,,,,,,,,,,,,,,,,,,,
,,,,,,,,,,,,l,Correct!,0,58,58,72,1,t4.png,t2.png,2,0.059078,19,female,2020-08-30_21h16.11.338,torte-2b,2020.1.3,MacIntel,60,13449,1.699,,,,,,,,,,,,,,,,,,,,,,,,,,,,,,,,,,,,,,,,,,,,,,,,,,,,,,,,,,,,,,,,,
,,,,,,,,,,,,,Too slow :(,0,59,59,90,1,t1.png,t5.png,4,9.55E-11,19,female,2020-08-30_21h16.11.338,torte-2b,2020.1.3,MacIntel,60,13449,,,,,,,,,,,,,,,,,,,,,,,,,,,,,,,,,,,,,,,,,,,,,,,,,,,,,,,,,,,,,,,,,,
,,,,,,,,,,,,l,Incorrect,0,60,60,106,1,t2.png,t3.png,1,0.90855,19,female,2020-08-30_21h16.11.338,torte-2b,2020.1.3,MacIntel,60,13449,0.522,,,,,,,,,,,,,,,,,,,,,,,,,,,,,,,,,,,,,,,,,,,,,,,,,,,,,,,,,,,,,,,,,
,,,,,,,,,,,,a,Correct!,0,61,61,77,1,t1.png,t1.png,0,0.97829,19,female,2020-08-30_21h16.11.338,torte-2b,2020.1.3,MacIntel,60,13449,1.915,,,,,,,,,,,,,,,,,,,,,,,,,,,,,,,,,,,,,,,,,,,,,,,,,,,,,,,,,,,,,,,,,
,,,,,,,,,,,,a,Correct!,0,62,62,70,1,t5.png,t5.png,0,0.978,19,female,2020-08-30_21h16.11.338,torte-2b,2020.1.3,MacIntel,60,13449,0.653,,,,,,,,,,,,,,,,,,,,,,,,,,,,,,,,,,,,,,,,,,,,,,,,,,,,,,,,,,,,,,,,,
,,,,,,,,,,,,a,Incorrect,0,63,63,24,1,t4.png,t2.png,2,0.059078,19,female,2020-08-30_21h16.11.338,torte-2b,2020.1.3,MacIntel,60,13449,1.255,,,,,,,,,,,,,,,,,,,,,,,,,,,,,,,,,,,,,,,,,,,,,,,,,,,,,,,,,,,,,,,,,
,,,,,,,,,,,,a,Correct!,0,64,64,58,1,t5.png,t4.png,1,0.90025,19,female,2020-08-30_21h16.11.338,torte-2b,2020.1.3,MacIntel,60,13449,0.657,,,,,,,,,,,,,,,,,,,,,,,,,,,,,,,,,,,,,,,,,,,,,,,,,,,,,,,,,,,,,,,,,
,,,,,,,,,,,,,Too slow :(,0,65,65,80,1,t1.png,t4.png,3,0.0000131,19,female,2020-08-30_21h16.11.338,torte-2b,2020.1.3,MacIntel,60,13449,,,,,,,,,,,,,,,,,,,,,,,,,,,,,,,,,,,,,,,,,,,,,,,,,,,,,,,,,,,,,,,,,,
,,,,,,,,,,,,a,Correct!,0,66,66,34,1,t5.png,t4.png,1,0.9,19,female,2020-08-30_21h16.11.338,torte-2b,2020.1.3,MacIntel,60,13449,1.048,,,,,,,,,,,,,,,,,,,,,,,,,,,,,,,,,,,,,,,,,,,,,,,,,,,,,,,,,,,,,,,,,
,,,,,,,,,,,,l,Correct!,0,67,67,17,1,t1.png,t4.png,3,0.0000131,19,female,2020-08-30_21h16.11.338,torte-2b,2020.1.3,MacIntel,60,13449,1.332,,,,,,,,,,,,,,,,,,,,,,,,,,,,,,,,,,,,,,,,,,,,,,,,,,,,,,,,,,,,,,,,,
,,,,,,,,,,,,l,Incorrect,0,68,68,118,1,t5.png,t5.png,0,0.978,19,female,2020-08-30_21h16.11.338,torte-2b,2020.1.3,MacIntel,60,13449,1.567,,,,,,,,,,,,,,,,,,,,,,,,,,,,,,,,,,,,,,,,,,,,,,,,,,,,,,,,,,,,,,,,,
,,,,,,,,,,,,,Too slow :(,0,69,69,50,1,t5.png,t1.png,4,9.55E-11,19,female,2020-08-30_21h16.11.338,torte-2b,2020.1.3,MacIntel,60,13449,,,,,,,,,,,,,,,,,,,,,,,,,,,,,,,,,,,,,,,,,,,,,,,,,,,,,,,,,,,,,,,,,,
,,,,,,,,,,,,,Too slow :(,0,70,70,39,1,t3.png,t2.png,1,0.90855,19,female,2020-08-30_21h16.11.338,torte-2b,2020.1.3,MacIntel,60,13449,,,,,,,,,,,,,,,,,,,,,,,,,,,,,,,,,,,,,,,,,,,,,,,,,,,,,,,,,,,,,,,,,,
,,,,,,,,,,,,,Too slow :(,0,71,71,73,1,t4.png,t2.png,2,0.059078,19,female,2020-08-30_21h16.11.338,torte-2b,2020.1.3,MacIntel,60,13449,,,,,,,,,,,,,,,,,,,,,,,,,,,,,,,,,,,,,,,,,,,,,,,,,,,,,,,,,,,,,,,,,,
,,,,,,,,,,,,l,Correct!,0,72,72,40,1,t1.png,t5.png,4,9.55E-11,19,female,2020-08-30_21h16.11.338,torte-2b,2020.1.3,MacIntel,60,13449,0.932,,,,,,,,,,,,,,,,,,,,,,,,,,,,,,,,,,,,,,,,,,,,,,,,,,,,,,,,,,,,,,,,,
,,,,,,,,,,,,a,Correct!,0,73,73,45,1,t3.png,t2.png,1,0.90855,19,female,2020-08-30_21h16.11.338,torte-2b,2020.1.3,MacIntel,60,13449,1.925,,,,,,,,,,,,,,,,,,,,,,,,,,,,,,,,,,,,,,,,,,,,,,,,,,,,,,,,,,,,,,,,,
,,,,,,,,,,,,l,Incorrect,0,74,74,100,1,t4.png,t5.png,1,0.90025,19,female,2020-08-30_21h16.11.338,torte-2b,2020.1.3,MacIntel,60,13449,1.657,,,,,,,,,,,,,,,,,,,,,,,,,,,,,,,,,,,,,,,,,,,,,,,,,,,,,,,,,,,,,,,,,
,,,,,,,,,,,,,Too slow :(,0,75,75,63,1,t2.png,t3.png,1,0.909,19,female,2020-08-30_21h16.11.338,torte-2b,2020.1.3,MacIntel,60,13449,,,,,,,,,,,,,,,,,,,,,,,,,,,,,,,,,,,,,,,,,,,,,,,,,,,,,,,,,,,,,,,,,,
,,,,,,,,,,,,a,Correct!,0,76,76,81,1,t1.png,t1.png,0,0.97829,19,female,2020-08-30_21h16.11.338,torte-2b,2020.1.3,MacIntel,60,13449,1.416,,,,,,,,,,,,,,,,,,,,,,,,,,,,,,,,,,,,,,,,,,,,,,,,,,,,,,,,,,,,,,,,,
,,,,,,,,,,,,a,Correct!,0,77,77,48,1,t5.png,t5.png,0,0.97829,19,female,2020-08-30_21h16.11.338,torte-2b,2020.1.3,MacIntel,60,13449,0.54,,,,,,,,,,,,,,,,,,,,,,,,,,,,,,,,,,,,,,,,,,,,,,,,,,,,,,,,,,,,,,,,,
,,,,,,,,,,,,l,Incorrect,0,78,78,22,1,t2.png,t3.png,1,0.90855,19,female,2020-08-30_21h16.11.338,torte-2b,2020.1.3,MacIntel,60,13449,0.732,,,,,,,,,,,,,,,,,,,,,,,,,,,,,,,,,,,,,,,,,,,,,,,,,,,,,,,,,,,,,,,,,
,,,,,,,,,,,,a,Incorrect,0,79,79,103,1,t3.png,t1.png,2,0.056466,19,female,2020-08-30_21h16.11.338,torte-2b,2020.1.3,MacIntel,60,13449,0.591,,,,,,,,,,,,,,,,,,,,,,,,,,,,,,,,,,,,,,,,,,,,,,,,,,,,,,,,,,,,,,,,,
,,,,,,,,,,,,a,Correct!,0,80,80,113,1,t5.png,t4.png,1,0.9,19,female,2020-08-30_21h16.11.338,torte-2b,2020.1.3,MacIntel,60,13449,1.148,,,,,,,,,,,,,,,,,,,,,,,,,,,,,,,,,,,,,,,,,,,,,,,,,,,,,,,,,,,,,,,,,
,,,,,,,,,,,,l,Incorrect,0,81,81,84,1,t1.png,t1.png,0,0.97829,19,female,2020-08-30_21h16.11.338,torte-2b,2020.1.3,MacIntel,60,13449,1.048,,,,,,,,,,,,,,,,,,,,,,,,,,,,,,,,,,,,,,,,,,,,,,,,,,,,,,,,,,,,,,,,,
,,,,,,,,,,,,a,Incorrect,0,82,82,86,1,t3.png,t1.png,2,0.056466,19,female,2020-08-30_21h16.11.338,torte-2b,2020.1.3,MacIntel,60,13449,1.255,,,,,,,,,,,,,,,,,,,,,,,,,,,,,,,,,,,,,,,,,,,,,,,,,,,,,,,,,,,,,,,,,
,,,,,,,,,,,,l,Correct!,0,83,83,6,1,t1.png,t4.png,3,0.0000131,19,female,2020-08-30_21h16.11.338,torte-2b,2020.1.3,MacIntel,60,13449,0.832,,,,,,,,,,,,,,,,,,,,,,,,,,,,,,,,,,,,,,,,,,,,,,,,,,,,,,,,,,,,,,,,,
,,,,,,,,,,,,,Too slow :(,0,84,84,9,1,t4.png,t5.png,1,0.9,19,female,2020-08-30_21h16.11.338,torte-2b,2020.1.3,MacIntel,60,13449,,,,,,,,,,,,,,,,,,,,,,,,,,,,,,,,,,,,,,,,,,,,,,,,,,,,,,,,,,,,,,,,,,
,,,,,,,,,,,,a,Correct!,0,85,85,107,1,t1.png,t1.png,0,0.978,19,female,2020-08-30_21h16.11.338,torte-2b,2020.1.3,MacIntel,60,13449,1.071,,,,,,,,,,,,,,,,,,,,,,,,,,,,,,,,,,,,,,,,,,,,,,,,,,,,,,,,,,,,,,,,,
,,,,,,,,,,,,l,Incorrect,0,86,86,96,1,t1.png,t1.png,0,0.97829,19,female,2020-08-30_21h16.11.338,torte-2b,2020.1.3,MacIntel,60,13449,0.917,,,,,,,,,,,,,,,,,,,,,,,,,,,,,,,,,,,,,,,,,,,,,,,,,,,,,,,,,,,,,,,,,
,,,,,,,,,,,,a,Incorrect,0,87,87,0,1,t5.png,t1.png,4,9.55E-11,19,female,2020-08-30_21h16.11.338,torte-2b,2020.1.3,MacIntel,60,13449,0.95,,,,,,,,,,,,,,,,,,,,,,,,,,,,,,,,,,,,,,,,,,,,,,,,,,,,,,,,,,,,,,,,,
,,,,,,,,,,,,l,Incorrect,0,88,88,32,1,t4.png,t5.png,1,0.90025,19,female,2020-08-30_21h16.11.338,torte-2b,2020.1.3,MacIntel,60,13449,0.597,,,,,,,,,,,,,,,,,,,,,,,,,,,,,,,,,,,,,,,,,,,,,,,,,,,,,,,,,,,,,,,,,
,,,,,,,,,,,,l,Incorrect,0,89,89,44,1,t2.png,t3.png,1,0.909,19,female,2020-08-30_21h16.11.338,torte-2b,2020.1.3,MacIntel,60,13449,0.433,,,,,,,,,,,,,,,,,,,,,,,,,,,,,,,,,,,,,,,,,,,,,,,,,,,,,,,,,,,,,,,,,
,,,,,,,,,,,,a,Correct!,0,90,90,41,1,t3.png,t2.png,1,0.90855,19,female,2020-08-30_21h16.11.338,torte-2b,2020.1.3,MacIntel,60,13449,0.773,,,,,,,,,,,,,,,,,,,,,,,,,,,,,,,,,,,,,,,,,,,,,,,,,,,,,,,,,,,,,,,,,
,,,,,,,,,,,,l,Correct!,0,91,91,61,1,t1.png,t4.png,3,0.0000131,19,female,2020-08-30_21h16.11.338,torte-2b,2020.1.3,MacIntel,60,13449,1.032,,,,,,,,,,,,,,,,,,,,,,,,,,,,,,,,,,,,,,,,,,,,,,,,,,,,,,,,,,,,,,,,,
,,,,,,,,,,,,l,Correct!,0,92,92,60,1,t2.png,t4.png,2,0.059078,19,female,2020-08-30_21h16.11.338,torte-2b,2020.1.3,MacIntel,60,13449,0.464,,,,,,,,,,,,,,,,,,,,,,,,,,,,,,,,,,,,,,,,,,,,,,,,,,,,,,,,,,,,,,,,,
,,,,,,,,,,,,a,Incorrect,0,93,93,43,1,t4.png,t2.png,2,0.059078,19,female,2020-08-30_21h16.11.338,torte-2b,2020.1.3,MacIntel,60,13449,0.507,,,,,,,,,,,,,,,,,,,,,,,,,,,,,,,,,,,,,,,,,,,,,,,,,,,,,,,,,,,,,,,,,
,,,,,,,,,,,,a,Correct!,0,94,94,85,1,t3.png,t2.png,1,0.90855,19,female,2020-08-30_21h16.11.338,torte-2b,2020.1.3,MacIntel,60,13449,0.873,,,,,,,,,,,,,,,,,,,,,,,,,,,,,,,,,,,,,,,,,,,,,,,,,,,,,,,,,,,,,,,,,
,,,,,,,,,,,,a,Correct!,0,95,95,74,1,t5.png,t4.png,1,0.9,19,female,2020-08-30_21h16.11.338,torte-2b,2020.1.3,MacIntel,60,13449,0.687,,,,,,,,,,,,,,,,,,,,,,,,,,,,,,,,,,,,,,,,,,,,,,,,,,,,,,,,,,,,,,,,,
,,,,,,,,,,,,l,Incorrect,0,96,96,13,1,t5.png,t5.png,0,0.97829,19,female,2020-08-30_21h16.11.338,torte-2b,2020.1.3,MacIntel,60,13449,0.506,,,,,,,,,,,,,,,,,,,,,,,,,,,,,,,,,,,,,,,,,,,,,,,,,,,,,,,,,,,,,,,,,
,,,,,,,,,,,,a,Correct!,0,97,97,51,1,t3.png,t1.png,2,0.056466,19,female,2020-08-30_21h16.11.338,torte-2b,2020.1.3,MacIntel,60,13449,0.474,,,,,,,,,,,,,,,,,,,,,,,,,,,,,,,,,,,,,,,,,,,,,,,,,,,,,,,,,,,,,,,,,
,,,,,,,,,,,,a,Incorrect,0,98,98,27,1,t3.png,t1.png,2,0.0565,19,female,2020-08-30_21h16.11.338,torte-2b,2020.1.3,MacIntel,60,13449,0.485,,,,,,,,,,,,,,,,,,,,,,,,,,,,,,,,,,,,,,,,,,,,,,,,,,,,,,,,,,,,,,,,,
,,,,,,,,,,,,l,Correct!,0,99,99,119,1,t1.png,t5.png,4,9.55E-11,19,female,2020-08-30_21h16.11.338,torte-2b,2020.1.3,MacIntel,60,13449,0.604,,,,,,,,,,,,,,,,,,,,,,,,,,,,,,,,,,,,,,,,,,,,,,,,,,,,,,,,,,,,,,,,,
,,,,,,,,,,,,l,Incorrect,0,100,100,116,1,t5.png,t4.png,1,0.90025,19,female,2020-08-30_21h16.11.338,torte-2b,2020.1.3,MacIntel,60,13449,0.767,,,,,,,,,,,,,,,,,,,,,,,,,,,,,,,,,,,,,,,,,,,,,,,,,,,,,,,,,,,,,,,,,
,,,,,,,,,,,,a,Correct!,0,101,101,75,1,t1.png,t1.png,0,0.97829,19,female,2020-08-30_21h16.11.338,torte-2b,2020.1.3,MacIntel,60,13449,0.772,,,,,,,,,,,,,,,,,,,,,,,,,,,,,,,,,,,,,,,,,,,,,,,,,,,,,,,,,,,,,,,,,
,,,,,,,,,,,,a,Correct!,0,102,102,42,1,t5.png,t4.png,1,0.90025,19,female,2020-08-30_21h16.11.338,torte-2b,2020.1.3,MacIntel,60,13449,0.508,,,,,,,,,,,,,,,,,,,,,,,,,,,,,,,,,,,,,,,,,,,,,,,,,,,,,,,,,,,,,,,,,
,,,,,,,,,,,,a,Correct!,0,103,103,8,1,t3.png,t2.png,1,0.90855,19,female,2020-08-30_21h16.11.338,torte-2b,2020.1.3,MacIntel,60,13449,0.791,,,,,,,,,,,,,,,,,,,,,,,,,,,,,,,,,,,,,,,,,,,,,,,,,,,,,,,,,,,,,,,,,
,,,,,,,,,,,,l,Incorrect,0,104,104,65,1,t4.png,t5.png,1,0.90025,19,female,2020-08-30_21h16.11.338,torte-2b,2020.1.3,MacIntel,60,13449,0.724,,,,,,,,,,,,,,,,,,,,,,,,,,,,,,,,,,,,,,,,,,,,,,,,,,,,,,,,,,,,,,,,,
,,,,,,,,,,,,l,Correct!,0,105,105,99,1,t1.png,t5.png,4,9.55E-11,19,female,2020-08-30_21h16.11.338,torte-2b,2020.1.3,MacIntel,60,13449,0.722,,,,,,,,,,,,,,,,,,,,,,,,,,,,,,,,,,,,,,,,,,,,,,,,,,,,,,,,,,,,,,,,,
,,,,,,,,,,,,l,Correct!,0,106,106,98,1,t2.png,t4.png,2,0.0591,19,female,2020-08-30_21h16.11.338,torte-2b,2020.1.3,MacIntel,60,13449,0.541,,,,,,,,,,,,,,,,,,,,,,,,,,,,,,,,,,,,,,,,,,,,,,,,,,,,,,,,,,,,,,,,,
,,,,,,,,,,,,a,Correct!,0,107,107,59,1,t5.png,t4.png,1,0.9,19,female,2020-08-30_21h16.11.338,torte-2b,2020.1.3,MacIntel,60,13449,1.224,,,,,,,,,,,,,,,,,,,,,,,,,,,,,,,,,,,,,,,,,,,,,,,,,,,,,,,,,,,,,,,,,
,,,,,,,,,,,,l,Correct!,0,108,108,1,1,t2.png,t4.png,2,0.059078,19,female,2020-08-30_21h16.11.338,torte-2b,2020.1.3,MacIntel,60,13449,0.682,,,,,,,,,,,,,,,,,,,,,,,,,,,,,,,,,,,,,,,,,,,,,,,,,,,,,,,,,,,,,,,,,
,,,,,,,,,,,,l,Incorrect,0,109,109,109,1,t5.png,t5.png,0,0.97829,19,female,2020-08-30_21h16.11.338,torte-2b,2020.1.3,MacIntel,60,13449,0.649,,,,,,,,,,,,,,,,,,,,,,,,,,,,,,,,,,,,,,,,,,,,,,,,,,,,,,,,,,,,,,,,,
,,,,,,,,,,,,l,Incorrect,0,110,110,18,1,t4.png,t5.png,1,0.90025,19,female,2020-08-30_21h16.11.338,torte-2b,2020.1.3,MacIntel,60,13449,1.991,,,,,,,,,,,,,,,,,,,,,,,,,,,,,,,,,,,,,,,,,,,,,,,,,,,,,,,,,,,,,,,,,
,,,,,,,,,,,,l,Correct!,0,111,111,11,1,t1.png,t4.png,3,0.0000131,19,female,2020-08-30_21h16.11.338,torte-2b,2020.1.3,MacIntel,60,13449,1.42,,,,,,,,,,,,,,,,,,,,,,,,,,,,,,,,,,,,,,,,,,,,,,,,,,,,,,,,,,,,,,,,,
,,,,,,,,,,,,l,Incorrect,0,112,112,78,1,t1.png,t1.png,0,0.978,19,female,2020-08-30_21h16.11.338,torte-2b,2020.1.3,MacIntel,60,13449,0.782,,,,,,,,,,,,,,,,,,,,,,,,,,,,,,,,,,,,,,,,,,,,,,,,,,,,,,,,,,,,,,,,,
,,,,,,,,,,,,l,Correct!,0,113,113,37,1,t1.png,t4.png,3,0.0000131,19,female,2020-08-30_21h16.11.338,torte-2b,2020.1.3,MacIntel,60,13449,0.825,,,,,,,,,,,,,,,,,,,,,,,,,,,,,,,,,,,,,,,,,,,,,,,,,,,,,,,,,,,,,,,,,
,,,,,,,,,,,,l,Incorrect,0,114,114,7,1,t4.png,t5.png,1,0.90025,19,female,2020-08-30_21h16.11.338,torte-2b,2020.1.3,MacIntel,60,13449,0.487,,,,,,,,,,,,,,,,,,,,,,,,,,,,,,,,,,,,,,,,,,,,,,,,,,,,,,,,,,,,,,,,,
,,,,,,,,,,,,l,Correct!,0,115,115,52,1,t2.png,t4.png,2,0.059078,19,female,2020-08-30_21h16.11.338,torte-2b,2020.1.3,MacIntel,60,13449,0.516,,,,,,,,,,,,,,,,,,,,,,,,,,,,,,,,,,,,,,,,,,,,,,,,,,,,,,,,,,,,,,,,,
,,,,,,,,,,,,,Too slow :(,0,116,116,10,1,t2.png,t3.png,1,0.90855,19,female,2020-08-30_21h16.11.338,torte-2b,2020.1.3,MacIntel,60,13449,,,,,,,,,,,,,,,,,,,,,,,,,,,,,,,,,,,,,,,,,,,,,,,,,,,,,,,,,,,,,,,,,,
,,,,,,,,,,,,a,Incorrect,0,117,117,83,1,t3.png,t1.png,2,0.056466,19,female,2020-08-30_21h16.11.338,torte-2b,2020.1.3,MacIntel,60,13449,1.489,,,,,,,,,,,,,,,,,,,,,,,,,,,,,,,,,,,,,,,,,,,,,,,,,,,,,,,,,,,,,,,,,
,,,,,,,,,,,,a,Incorrect,0,118,118,108,1,t5.png,t1.png,4,9.55E-11,19,female,2020-08-30_21h16.11.338,torte-2b,2020.1.3,MacIntel,60,13449,0.815,,,,,,,,,,,,,,,,,,,,,,,,,,,,,,,,,,,,,,,,,,,,,,,,,,,,,,,,,,,,,,,,,
,,,,,,,,,,,,a,Incorrect,0,119,119,38,1,t3.png,t1.png,2,0.056466,19,female,2020-08-30_21h16.11.338,torte-2b,2020.1.3,MacIntel,60,13449,0.832,,,,,,,,,,,,,,,,,,,,,,,,,,,,,,,,,,,,,,,,,,,,,,,,,,,,,,,,,,,,,,,,,
,,,,,,,,,,,,a,Correct!,,,,,,t1.png,t1.png,0,0.978,19,female,2020-08-30_21h16.11.338,torte-2b,2020.1.3,MacIntel,60,13449,1.282,k,1.918,j,0.639,0,0,0,54,1,,,,,,,,,,,,,,,,,,,,,,,,,,,,,,,,,,,,,,,,,,,,,,,,,,,,,,,,
,,,,,,,,,,,,a,Incorrect,,,,,,t5.png,t3.png,2,0.0565,19,female,2020-08-30_21h16.11.338,torte-2b,2020.1.3,MacIntel,60,13449,0.903,,,,,0,1,1,39,1,,,,,,,,,,,,,,,,,,,,,,,,,,,,,,,,,,,,,,,,,,,,,,,,,,,,,,,,
,,,,,,,,,,,,l,Correct!,,,,,,t2.png,t5.png,3,0.0000131,19,female,2020-08-30_21h16.11.338,torte-2b,2020.1.3,MacIntel,60,13449,0.957,,,,,0,2,2,8,1,,,,,,,,,,,,,,,,,,,,,,,,,,,,,,,,,,,,,,,,,,,,,,,,,,,,,,,,
,,,,,,,,,,,,l,Correct!,,,,,,t1.png,t4.png,3,0.0000131,19,female,2020-08-30_21h16.11.338,torte-2b,2020.1.3,MacIntel,60,13449,0.724,,,,,0,3,3,17,1,,,,,,,,,,,,,,,,,,,,,,,,,,,,,,,,,,,,,,,,,,,,,,,,,,,,,,,,
,,,,,,,,,,,,l,Incorrect,,,,,,t1.png,t2.png,1,0.90025,19,female,2020-08-30_21h16.11.338,torte-2b,2020.1.3,MacIntel,60,13449,1.216,,,,,0,4,4,33,1,,,,,,,,,,,,,,,,,,,,,,,,,,,,,,,,,,,,,,,,,,,,,,,,,,,,,,,,
,,,,,,,,,,,,l,Correct!,,,,,,t1.png,t5.png,4,9.55E-11,19,female,2020-08-30_21h16.11.338,torte-2b,2020.1.3,MacIntel,60,13449,0.674,,,,,0,5,5,12,1,,,,,,,,,,,,,,,,,,,,,,,,,,,,,,,,,,,,,,,,,,,,,,,,,,,,,,,,
,,,,,,,,,,,,l,Correct!,,,,,,t2.png,t5.png,3,0.0000131,19,female,2020-08-30_21h16.11.338,torte-2b,2020.1.3,MacIntel,60,13449,0.776,,,,,0,6,6,66,1,,,,,,,,,,,,,,,,,,,,,,,,,,,,,,,,,,,,,,,,,,,,,,,,,,,,,,,,
,,,,,,,,,,,,l,Incorrect,,,,,,t2.png,t2.png,0,0.981,19,female,2020-08-30_21h16.11.338,torte-2b,2020.1.3,MacIntel,60,13449,1.19,,,,,0,7,7,101,1,,,,,,,,,,,,,,,,,,,,,,,,,,,,,,,,,,,,,,,,,,,,,,,,,,,,,,,,
,,,,,,,,,,,,a,Correct!,,,,,,t4.png,t2.png,2,0.0591,19,female,2020-08-30_21h16.11.338,torte-2b,2020.1.3,MacIntel,60,13449,0.938,,,,,0,8,8,36,1,,,,,,,,,,,,,,,,,,,,,,,,,,,,,,,,,,,,,,,,,,,,,,,,,,,,,,,,
,,,,,,,,,,,,l,Correct!,,,,,,t1.png,t4.png,3,0.0000131,19,female,2020-08-30_21h16.11.338,torte-2b,2020.1.3,MacIntel,60,13449,0.664,,,,,0,9,9,92,1,,,,,,,,,,,,,,,,,,,,,,,,,,,,,,,,,,,,,,,,,,,,,,,,,,,,,,,,
,,,,,,,,,,,,l,Incorrect,,,,,,t3.png,t4.png,1,0.90855,19,female,2020-08-30_21h16.11.338,torte-2b,2020.1.3,MacIntel,60,13449,0.741,,,,,0,10,10,84,1,,,,,,,,,,,,,,,,,,,,,,,,,,,,,,,,,,,,,,,,,,,,,,,,,,,,,,,,
,,,,,,,,,,,,l,Incorrect,,,,,,t5.png,t5.png,0,0.97829,19,female,2020-08-30_21h16.11.338,torte-2b,2020.1.3,MacIntel,60,13449,0.957,,,,,0,11,11,25,1,,,,,,,,,,,,,,,,,,,,,,,,,,,,,,,,,,,,,,,,,,,,,,,,,,,,,,,,
,,,,,,,,,,,,l,Correct!,,,,,,t1.png,t4.png,3,0.0000131,19,female,2020-08-30_21h16.11.338,torte-2b,2020.1.3,MacIntel,60,13449,0.599,,,,,0,12,12,50,1,,,,,,,,,,,,,,,,,,,,,,,,,,,,,,,,,,,,,,,,,,,,,,,,,,,,,,,,
,,,,,,,,,,,,a,Incorrect,,,,,,t4.png,t1.png,3,0.0000131,19,female,2020-08-30_21h16.11.338,torte-2b,2020.1.3,MacIntel,60,13449,0.849,,,,,0,13,13,93,1,,,,,,,,,,,,,,,,,,,,,,,,,,,,,,,,,,,,,,,,,,,,,,,,,,,,,,,,
,,,,,,,,,,,,l,Incorrect,,,,,,t4.png,t5.png,1,0.90025,19,female,2020-08-30_21h16.11.338,torte-2b,2020.1.3,MacIntel,60,13449,0.756,,,,,0,14,14,47,1,,,,,,,,,,,,,,,,,,,,,,,,,,,,,,,,,,,,,,,,,,,,,,,,,,,,,,,,
,,,,,,,,,,,,a,Incorrect,,,,,,t4.png,t2.png,2,0.059078,19,female,2020-08-30_21h16.11.338,torte-2b,2020.1.3,MacIntel,60,13449,1.168,,,,,0,15,15,109,1,,,,,,,,,,,,,,,,,,,,,,,,,,,,,,,,,,,,,,,,,,,,,,,,,,,,,,,,
,,,,,,,,,,,,l,Incorrect,,,,,,t5.png,t5.png,0,0.97829,19,female,2020-08-30_21h16.11.338,torte-2b,2020.1.3,MacIntel,60,13449,1.205,,,,,0,16,16,94,1,,,,,,,,,,,,,,,,,,,,,,,,,,,,,,,,,,,,,,,,,,,,,,,,,,,,,,,,
,,,,,,,,,,,,l,Incorrect,,,,,,t3.png,t4.png,1,0.909,19,female,2020-08-30_21h16.11.338,torte-2b,2020.1.3,MacIntel,60,13449,0.615,,,,,0,17,17,106,1,,,,,,,,,,,,,,,,,,,,,,,,,,,,,,,,,,,,,,,,,,,,,,,,,,,,,,,,
,,,,,,,,,,,,l,Correct!,,,,,,t1.png,t5.png,4,9.55E-11,19,female,2020-08-30_21h16.11.338,torte-2b,2020.1.3,MacIntel,60,13449,0.683,,,,,0,18,18,41,1,,,,,,,,,,,,,,,,,,,,,,,,,,,,,,,,,,,,,,,,,,,,,,,,,,,,,,,,
,,,,,,,,,,,,l,Incorrect,,,,,,t5.png,t4.png,1,0.90025,19,female,2020-08-30_21h16.11.338,torte-2b,2020.1.3,MacIntel,60,13449,1.121,,,,,0,19,19,34,1,,,,,,,,,,,,,,,,,,,,,,,,,,,,,,,,,,,,,,,,,,,,,,,,,,,,,,,,
,,,,,,,,,,,,l,Correct!,,,,,,t1.png,t5.png,4,9.55E-11,19,female,2020-08-30_21h16.11.338,torte-2b,2020.1.3,MacIntel,60,13449,0.804,,,,,0,20,20,16,1,,,,,,,,,,,,,,,,,,,,,,,,,,,,,,,,,,,,,,,,,,,,,,,,,,,,,,,,
,,,,,,,,,,,,l,Correct!,,,,,,t3.png,t5.png,2,0.056466,19,female,2020-08-30_21h16.11.338,torte-2b,2020.1.3,MacIntel,60,13449,0.532,,,,,0,21,21,6,1,,,,,,,,,,,,,,,,,,,,,,,,,,,,,,,,,,,,,,,,,,,,,,,,,,,,,,,,
,,,,,,,,,,,,a,Incorrect,,,,,,t4.png,t2.png,2,0.059078,19,female,2020-08-30_21h16.11.338,torte-2b,2020.1.3,MacIntel,60,13449,1.098,,,,,0,22,22,110,1,,,,,,,,,,,,,,,,,,,,,,,,,,,,,,,,,,,,,,,,,,,,,,,,,,,,,,,,
,,,,,,,,,,,,l,Incorrect,,,,,,t5.png,t5.png,0,0.97829,19,female,2020-08-30_21h16.11.338,torte-2b,2020.1.3,MacIntel,60,13449,0.784,,,,,0,23,23,73,1,,,,,,,,,,,,,,,,,,,,,,,,,,,,,,,,,,,,,,,,,,,,,,,,,,,,,,,,
,,,,,,,,,,,,l,Incorrect,,,,,,t1.png,t3.png,2,0.056466,19,female,2020-08-30_21h16.11.338,torte-2b,2020.1.3,MacIntel,60,13449,0.921,,,,,0,24,24,63,1,,,,,,,,,,,,,,,,,,,,,,,,,,,,,,,,,,,,,,,,,,,,,,,,,,,,,,,,
,,,,,,,,,,,,l,Incorrect,,,,,,t2.png,t3.png,1,0.90855,19,female,2020-08-30_21h16.11.338,torte-2b,2020.1.3,MacIntel,60,13449,2.39,,,,,0,25,25,65,1,,,,,,,,,,,,,,,,,,,,,,,,,,,,,,,,,,,,,,,,,,,,,,,,,,,,,,,,
,,,,,,,,,,,,a,Incorrect,,,,,,t3.png,t1.png,2,0.056466,19,female,2020-08-30_21h16.11.338,torte-2b,2020.1.3,MacIntel,60,13449,1.108,,,,,0,26,26,64,1,,,,,,,,,,,,,,,,,,,,,,,,,,,,,,,,,,,,,,,,,,,,,,,,,,,,,,,,
,,,,,,,,,,,,l,Correct!,,,,,,t2.png,t4.png,2,0.059078,19,female,2020-08-30_21h16.11.338,torte-2b,2020.1.3,MacIntel,60,13449,0.582,,,,,0,27,27,37,1,,,,,,,,,,,,,,,,,,,,,,,,,,,,,,,,,,,,,,,,,,,,,,,,,,,,,,,,
,,,,,,,,,,,,a,Incorrect,,,,,,t4.png,t2.png,2,0.059078,19,female,2020-08-30_21h16.11.338,torte-2b,2020.1.3,MacIntel,60,13449,1.224,,,,,0,28,28,86,1,,,,,,,,,,,,,,,,,,,,,,,,,,,,,,,,,,,,,,,,,,,,,,,,,,,,,,,,
,,,,,,,,,,,,l,Incorrect,,,,,,t4.png,t4.png,0,0.98115,19,female,2020-08-30_21h16.11.338,torte-2b,2020.1.3,MacIntel,60,13449,1.633,,,,,0,29,29,80,1,,,,,,,,,,,,,,,,,,,,,,,,,,,,,,,,,,,,,,,,,,,,,,,,,,,,,,,,
,,,,,,,,,,,,l,Incorrect,,,,,,t2.png,t3.png,1,0.90855,19,female,2020-08-30_21h16.11.338,torte-2b,2020.1.3,MacIntel,60,13449,1.156,,,,,0,30,30,68,1,,,,,,,,,,,,,,,,,,,,,,,,,,,,,,,,,,,,,,,,,,,,,,,,,,,,,,,,
,,,,,,,,,,,,l,Correct!,,,,,,t4.png,t5.png,1,0.90025,19,female,2020-08-30_21h16.11.338,torte-2b,2020.1.3,MacIntel,60,13449,1.621,,,,,0,31,31,113,1,,,,,,,,,,,,,,,,,,,,,,,,,,,,,,,,,,,,,,,,,,,,,,,,,,,,,,,,
,,,,,,,,,,,,l,Correct!,,,,,,t3.png,t4.png,1,0.90855,19,female,2020-08-30_21h16.11.338,torte-2b,2020.1.3,MacIntel,60,13449,1.205,,,,,0,32,32,96,1,,,,,,,,,,,,,,,,,,,,,,,,,,,,,,,,,,,,,,,,,,,,,,,,,,,,,,,,
,,,,,,,,,,,,a,Incorrect,,,,,,t4.png,t1.png,3,0.0000131,19,female,2020-08-30_21h16.11.338,torte-2b,2020.1.3,MacIntel,60,13449,1.614,,,,,0,33,33,13,1,,,,,,,,,,,,,,,,,,,,,,,,,,,,,,,,,,,,,,,,,,,,,,,,,,,,,,,,
,,,,,,,,,,,,,Too slow :(,,,,,,t1.png,t4.png,3,0.0000131,19,female,2020-08-30_21h16.11.338,torte-2b,2020.1.3,MacIntel,60,13449,,,,,,0,34,34,107,1,,,,,,,,,,,,,,,,,,,,,,,,,,,,,,,,,,,,,,,,,,,,,,,,,,,,,,,,
,,,,,,,,,,,,,Too slow :(,,,,,,t3.png,t5.png,2,0.056466,19,female,2020-08-30_21h16.11.338,torte-2b,2020.1.3,MacIntel,60,13449,,,,,,0,35,35,14,1,,,,,,,,,,,,,,,,,,,,,,,,,,,,,,,,,,,,,,,,,,,,,,,,,,,,,,,,
,,,,,,,,,,,,a,Incorrect,,,,,,t3.png,t2.png,1,0.909,19,female,2020-08-30_21h16.11.338,torte-2b,2020.1.3,MacIntel,60,13449,1.181,,,,,0,36,36,23,1,,,,,,,,,,,,,,,,,,,,,,,,,,,,,,,,,,,,,,,,,,,,,,,,,,,,,,,,
,,,,,,,,,,,,,Too slow :(,,,,,,t2.png,t1.png,1,0.90025,19,female,2020-08-30_21h16.11.338,torte-2b,2020.1.3,MacIntel,60,13449,,,,,,0,37,37,4,1,,,,,,,,,,,,,,,,,,,,,,,,,,,,,,,,,,,,,,,,,,,,,,,,,,,,,,,,
,,,,,,,,,,,,a,Incorrect,,,,,,t5.png,t1.png,4,9.55E-11,19,female,2020-08-30_21h16.11.338,torte-2b,2020.1.3,MacIntel,60,13449,1.259,,,,,0,38,38,43,1,,,,,,,,,,,,,,,,,,,,,,,,,,,,,,,,,,,,,,,,,,,,,,,,,,,,,,,,
,,,,,,,,,,,,a,Correct!,,,,,,t2.png,t2.png,0,0.98115,19,female,2020-08-30_21h16.11.338,torte-2b,2020.1.3,MacIntel,60,13449,1.516,,,,,0,39,39,2,1,,,,,,,,,,,,,,,,,,,,,,,,,,,,,,,,,,,,,,,,,,,,,,,,,,,,,,,,
,,,,,,,,,,,,a,Correct!,,,,,,t5.png,t4.png,1,0.9,19,female,2020-08-30_21h16.11.338,torte-2b,2020.1.3,MacIntel,60,13449,1.65,,,,,0,40,40,49,1,,,,,,,,,,,,,,,,,,,,,,,,,,,,,,,,,,,,,,,,,,,,,,,,,,,,,,,,
,,,,,,,,,,,,,Too slow :(,,,,,,t5.png,t4.png,1,0.90025,19,female,2020-08-30_21h16.11.338,torte-2b,2020.1.3,MacIntel,60,13449,,,,,,0,41,41,26,1,,,,,,,,,,,,,,,,,,,,,,,,,,,,,,,,,,,,,,,,,,,,,,,,,,,,,,,,
,,,,,,,,,,,,,Too slow :(,,,,,,t4.png,t4.png,0,0.98115,19,female,2020-08-30_21h16.11.338,torte-2b,2020.1.3,MacIntel,60,13449,,,,,,0,42,42,90,1,,,,,,,,,,,,,,,,,,,,,,,,,,,,,,,,,,,,,,,,,,,,,,,,,,,,,,,,
,,,,,,,,,,,,l,Incorrect,,,,,,t3.png,t4.png,1,0.909,19,female,2020-08-30_21h16.11.338,torte-2b,2020.1.3,MacIntel,60,13449,1.116,,,,,0,43,43,82,1,,,,,,,,,,,,,,,,,,,,,,,,,,,,,,,,,,,,,,,,,,,,,,,,,,,,,,,,
,,,,,,,,,,,,l,Incorrect,,,,,,t1.png,t2.png,1,0.90025,19,female,2020-08-30_21h16.11.338,torte-2b,2020.1.3,MacIntel,60,13449,2.241,,,,,0,44,44,105,1,,,,,,,,,,,,,,,,,,,,,,,,,,,,,,,,,,,,,,,,,,,,,,,,,,,,,,,,
,,,,,,,,,,,,a,Correct!,,,,,,t3.png,t2.png,1,0.90855,19,female,2020-08-30_21h16.11.338,torte-2b,2020.1.3,MacIntel,60,13449,0.89,,,,,0,45,45,97,1,,,,,,,,,,,,,,,,,,,,,,,,,,,,,,,,,,,,,,,,,,,,,,,,,,,,,,,,
,,,,,,,,,,,,l,Incorrect,,,,,,t1.png,t1.png,0,0.97829,19,female,2020-08-30_21h16.11.338,torte-2b,2020.1.3,MacIntel,60,13449,1.507,,,,,0,46,46,78,1,,,,,,,,,,,,,,,,,,,,,,,,,,,,,,,,,,,,,,,,,,,,,,,,,,,,,,,,
,,,,,,,,,,,,l,Incorrect,,,,,,t1.png,t1.png,0,0.97829,19,female,2020-08-30_21h16.11.338,torte-2b,2020.1.3,MacIntel,60,13449,0.876,,,,,0,47,47,9,1,,,,,,,,,,,,,,,,,,,,,,,,,,,,,,,,,,,,,,,,,,,,,,,,,,,,,,,,
,,,,,,,,,,,,a,Correct!,,,,,,t4.png,t4.png,0,0.98115,19,female,2020-08-30_21h16.11.338,torte-2b,2020.1.3,MacIntel,60,13449,0.859,,,,,0,48,48,52,1,,,,,,,,,,,,,,,,,,,,,,,,,,,,,,,,,,,,,,,,,,,,,,,,,,,,,,,,
,,,,,,,,,,,,,Too slow :(,,,,,,t1.png,t3.png,2,0.056466,19,female,2020-08-30_21h16.11.338,torte-2b,2020.1.3,MacIntel,60,13449,,,,,,0,49,49,87,1,,,,,,,,,,,,,,,,,,,,,,,,,,,,,,,,,,,,,,,,,,,,,,,,,,,,,,,,
,,,,,,,,,,,,l,Incorrect,,,,,,t5.png,t5.png,0,0.97829,19,female,2020-08-30_21h16.11.338,torte-2b,2020.1.3,MacIntel,60,13449,0.532,,,,,0,50,50,70,1,,,,,,,,,,,,,,,,,,,,,,,,,,,,,,,,,,,,,,,,,,,,,,,,,,,,,,,,
,,,,,,,,,,,,a,Correct!,,,,,,t5.png,t3.png,2,0.056466,19,female,2020-08-30_21h16.11.338,torte-2b,2020.1.3,MacIntel,60,13449,1.133,,,,,0,51,51,114,1,,,,,,,,,,,,,,,,,,,,,,,,,,,,,,,,,,,,,,,,,,,,,,,,,,,,,,,,
,,,,,,,,,,,,l,Correct!,,,,,,t2.png,t4.png,2,0.059078,19,female,2020-08-30_21h16.11.338,torte-2b,2020.1.3,MacIntel,60,13449,0.74,,,,,0,52,52,24,1,,,,,,,,,,,,,,,,,,,,,,,,,,,,,,,,,,,,,,,,,,,,,,,,,,,,,,,,
,,,,,,,,,,,,a,Correct!,,,,,,t4.png,t3.png,1,0.90855,19,female,2020-08-30_21h16.11.338,torte-2b,2020.1.3,MacIntel,60,13449,1.967,,,,,0,53,53,35,1,,,,,,,,,,,,,,,,,,,,,,,,,,,,,,,,,,,,,,,,,,,,,,,,,,,,,,,,
,,,,,,,,,,,,a,Correct!,,,,,,t4.png,t3.png,1,0.909,19,female,2020-08-30_21h16.11.338,torte-2b,2020.1.3,MacIntel,60,13449,1.2,,,,,0,54,54,46,1,,,,,,,,,,,,,,,,,,,,,,,,,,,,,,,,,,,,,,,,,,,,,,,,,,,,,,,,
,,,,,,,,,,,,,Too slow :(,,,,,,t3.png,t1.png,2,0.056466,19,female,2020-08-30_21h16.11.338,torte-2b,2020.1.3,MacIntel,60,13449,,,,,,0,55,55,0,1,,,,,,,,,,,,,,,,,,,,,,,,,,,,,,,,,,,,,,,,,,,,,,,,,,,,,,,,
,,,,,,,,,,,,a,Correct!,,,,,,t4.png,t3.png,1,0.90855,19,female,2020-08-30_21h16.11.338,torte-2b,2020.1.3,MacIntel,60,13449,0.55,,,,,0,56,56,75,1,,,,,,,,,,,,,,,,,,,,,,,,,,,,,,,,,,,,,,,,,,,,,,,,,,,,,,,,
,,,,,,,,,,,,l,Incorrect,,,,,,t2.png,t2.png,0,0.98115,19,female,2020-08-30_21h16.11.338,torte-2b,2020.1.3,MacIntel,60,13449,1.574,,,,,0,57,57,7,1,,,,,,,,,,,,,,,,,,,,,,,,,,,,,,,,,,,,,,,,,,,,,,,,,,,,,,,,
,,,,,,,,,,,,l,Correct!,,,,,,t2.png,t5.png,3,0.0000131,19,female,2020-08-30_21h16.11.338,torte-2b,2020.1.3,MacIntel,60,13449,1.001,,,,,0,58,58,104,1,,,,,,,,,,,,,,,,,,,,,,,,,,,,,,,,,,,,,,,,,,,,,,,,,,,,,,,,
,,,,,,,,,,,,,Too slow :(,,,,,,t5.png,t1.png,4,9.55E-11,19,female,2020-08-30_21h16.11.338,torte-2b,2020.1.3,MacIntel,60,13449,,,,,,0,59,59,22,1,,,,,,,,,,,,,,,,,,,,,,,,,,,,,,,,,,,,,,,,,,,,,,,,,,,,,,,,
,,,,,,,,,,,,l,Correct!,,,,,,t1.png,t3.png,2,0.056466,19,female,2020-08-30_21h16.11.338,torte-2b,2020.1.3,MacIntel,60,13449,0.891,,,,,0,60,60,60,1,,,,,,,,,,,,,,,,,,,,,,,,,,,,,,,,,,,,,,,,,,,,,,,,,,,,,,,,
,,,,,,,,,,,,l,Incorrect,,,,,,t4.png,t5.png,1,0.90025,19,female,2020-08-30_21h16.11.338,torte-2b,2020.1.3,MacIntel,60,13449,0.915,,,,,0,61,61,58,1,,,,,,,,,,,,,,,,,,,,,,,,,,,,,,,,,,,,,,,,,,,,,,,,,,,,,,,,
,,,,,,,,,,,,a,Correct!,,,,,,t4.png,t3.png,1,0.90855,19,female,2020-08-30_21h16.11.338,torte-2b,2020.1.3,MacIntel,60,13449,1.282,,,,,0,62,62,45,1,,,,,,,,,,,,,,,,,,,,,,,,,,,,,,,,,,,,,,,,,,,,,,,,,,,,,,,,
,,,,,,,,,,,,a,Correct!,,,,,,t5.png,t4.png,1,0.90025,19,female,2020-08-30_21h16.11.338,torte-2b,2020.1.3,MacIntel,60,13449,1.742,,,,,0,63,63,27,1,,,,,,,,,,,,,,,,,,,,,,,,,,,,,,,,,,,,,,,,,,,,,,,,,,,,,,,,
,,,,,,,,,,,,a,Incorrect,,,,,,t5.png,t2.png,3,0.0000131,19,female,2020-08-30_21h16.11.338,torte-2b,2020.1.3,MacIntel,60,13449,1.075,,,,,0,64,64,98,1,,,,,,,,,,,,,,,,,,,,,,,,,,,,,,,,,,,,,,,,,,,,,,,,,,,,,,,,
,,,,,,,,,,,,l,Correct!,,,,,,t2.png,t5.png,3,0.0000131,19,female,2020-08-30_21h16.11.338,torte-2b,2020.1.3,MacIntel,60,13449,0.866,,,,,0,65,65,40,1,,,,,,,,,,,,,,,,,,,,,,,,,,,,,,,,,,,,,,,,,,,,,,,,,,,,,,,,
,,,,,,,,,,,,l,Incorrect,,,,,,t2.png,t3.png,1,0.909,19,female,2020-08-30_21h16.11.338,torte-2b,2020.1.3,MacIntel,60,13449,0.967,,,,,0,66,66,74,1,,,,,,,,,,,,,,,,,,,,,,,,,,,,,,,,,,,,,,,,,,,,,,,,,,,,,,,,
,,,,,,,,,,,,a,Incorrect,,,,,,t4.png,t1.png,3,0.0000131,19,female,2020-08-30_21h16.11.338,torte-2b,2020.1.3,MacIntel,60,13449,1.031,,,,,0,67,67,48,1,,,,,,,,,,,,,,,,,,,,,,,,,,,,,,,,,,,,,,,,,,,,,,,,,,,,,,,,
,,,,,,,,,,,,a,Correct!,,,,,,t2.png,t1.png,1,0.90025,19,female,2020-08-30_21h16.11.338,torte-2b,2020.1.3,MacIntel,60,13449,0.975,,,,,0,68,68,5,1,,,,,,,,,,,,,,,,,,,,,,,,,,,,,,,,,,,,,,,,,,,,,,,,,,,,,,,,
,,,,,,,,,,,,a,Incorrect,,,,,,t5.png,t1.png,4,9.55E-11,19,female,2020-08-30_21h16.11.338,torte-2b,2020.1.3,MacIntel,60,13449,0.899,,,,,0,69,69,71,1,,,,,,,,,,,,,,,,,,,,,,,,,,,,,,,,,,,,,,,,,,,,,,,,,,,,,,,,
,,,,,,,,,,,,a,Correct!,,,,,,t5.png,t4.png,1,0.9,19,female,2020-08-30_21h16.11.338,torte-2b,2020.1.3,MacIntel,60,13449,1.216,,,,,0,70,70,76,1,,,,,,,,,,,,,,,,,,,,,,,,,,,,,,,,,,,,,,,,,,,,,,,,,,,,,,,,
,,,,,,,,,,,,l,Incorrect,,,,,,t2.png,t3.png,1,0.90855,19,female,2020-08-30_21h16.11.338,torte-2b,2020.1.3,MacIntel,60,13449,1.05,,,,,0,71,71,111,1,,,,,,,,,,,,,,,,,,,,,,,,,,,,,,,,,,,,,,,,,,,,,,,,,,,,,,,,
,,,,,,,,,,,,,Too slow :(,,,,,,t2.png,t2.png,0,0.98115,19,female,2020-08-30_21h16.11.338,torte-2b,2020.1.3,MacIntel,60,13449,,,,,,0,72,72,57,1,,,,,,,,,,,,,,,,,,,,,,,,,,,,,,,,,,,,,,,,,,,,,,,,,,,,,,,,
,,,,,,,,,,,,a,Incorrect,,,,,,t3.png,t1.png,2,0.056466,19,female,2020-08-30_21h16.11.338,torte-2b,2020.1.3,MacIntel,60,13449,0.95,,,,,0,73,73,29,1,,,,,,,,,,,,,,,,,,,,,,,,,,,,,,,,,,,,,,,,,,,,,,,,,,,,,,,,
,,,,,,,,,,,,l,Incorrect,,,,,,t1.png,t2.png,1,0.90025,19,female,2020-08-30_21h16.11.338,torte-2b,2020.1.3,MacIntel,60,13449,1.099,,,,,0,74,74,72,1,,,,,,,,,,,,,,,,,,,,,,,,,,,,,,,,,,,,,,,,,,,,,,,,,,,,,,,,
,,,,,,,,,,,,l,Correct!,,,,,,t3.png,t5.png,2,0.056466,19,female,2020-08-30_21h16.11.338,torte-2b,2020.1.3,MacIntel,60,13449,1.033,,,,,0,75,75,44,1,,,,,,,,,,,,,,,,,,,,,,,,,,,,,,,,,,,,,,,,,,,,,,,,,,,,,,,,
,,,,,,,,,,,,l,Correct!,,,,,,t2.png,t4.png,2,0.059078,19,female,2020-08-30_21h16.11.338,torte-2b,2020.1.3,MacIntel,60,13449,0.842,,,,,0,76,76,77,1,,,,,,,,,,,,,,,,,,,,,,,,,,,,,,,,,,,,,,,,,,,,,,,,,,,,,,,,
,,,,,,,,,,,,l,Incorrect,,,,,,t1.png,t1.png,0,0.978,19,female,2020-08-30_21h16.11.338,torte-2b,2020.1.3,MacIntel,60,13449,0.567,,,,,0,77,77,28,1,,,,,,,,,,,,,,,,,,,,,,,,,,,,,,,,,,,,,,,,,,,,,,,,,,,,,,,,
,,,,,,,,,,,,l,Correct!,,,,,,t3.png,t5.png,2,0.0565,19,female,2020-08-30_21h16.11.338,torte-2b,2020.1.3,MacIntel,60,13449,0.833,,,,,0,78,78,30,1,,,,,,,,,,,,,,,,,,,,,,,,,,,,,,,,,,,,,,,,,,,,,,,,,,,,,,,,
,,,,,,,,,,,,a,Incorrect,,,,,,t5.png,t3.png,2,0.056466,19,female,2020-08-30_21h16.11.338,torte-2b,2020.1.3,MacIntel,60,13449,2.172,,,,,0,79,79,108,1,,,,,,,,,,,,,,,,,,,,,,,,,,,,,,,,,,,,,,,,,,,,,,,,,,,,,,,,
,,,,,,,,,,,,a,Incorrect,,,,,,t4.png,t2.png,2,0.059078,19,female,2020-08-30_21h16.11.338,torte-2b,2020.1.3,MacIntel,60,13449,0.85,,,,,0,80,80,88,1,,,,,,,,,,,,,,,,,,,,,,,,,,,,,,,,,,,,,,,,,,,,,,,,,,,,,,,,
,,,,,,,,,,,,a,Correct!,,,,,,t2.png,t1.png,1,0.90025,19,female,2020-08-30_21h16.11.338,torte-2b,2020.1.3,MacIntel,60,13449,0.798,,,,,0,81,81,62,1,,,,,,,,,,,,,,,,,,,,,,,,,,,,,,,,,,,,,,,,,,,,,,,,,,,,,,,,
,,,,,,,,,,,,l,Incorrect,,,,,,t4.png,t4.png,0,0.98115,19,female,2020-08-30_21h16.11.338,torte-2b,2020.1.3,MacIntel,60,13449,0.869,,,,,0,82,82,21,1,,,,,,,,,,,,,,,,,,,,,,,,,,,,,,,,,,,,,,,,,,,,,,,,,,,,,,,,
,,,,,,,,,,,,a,Correct!,,,,,,t2.png,t1.png,1,0.90025,19,female,2020-08-30_21h16.11.338,torte-2b,2020.1.3,MacIntel,60,13449,0.966,,,,,0,83,83,19,1,,,,,,,,,,,,,,,,,,,,,,,,,,,,,,,,,,,,,,,,,,,,,,,,,,,,,,,,
,,,,,,,,,,,,l,Incorrect,,,,,,t1.png,t1.png,0,0.97829,19,female,2020-08-30_21h16.11.338,torte-2b,2020.1.3,MacIntel,60,13449,2.198,,,,,0,84,84,67,1,,,,,,,,,,,,,,,,,,,,,,,,,,,,,,,,,,,,,,,,,,,,,,,,,,,,,,,,
,,,,,,,,,,,,a,Correct!,,,,,,t3.png,t2.png,1,0.909,19,female,2020-08-30_21h16.11.338,torte-2b,2020.1.3,MacIntel,60,13449,1.222,,,,,0,85,85,3,1,,,,,,,,,,,,,,,,,,,,,,,,,,,,,,,,,,,,,,,,,,,,,,,,,,,,,,,,
,,,,,,,,,,,,l,Incorrect,,,,,,t4.png,t5.png,1,0.90025,19,female,2020-08-30_21h16.11.338,torte-2b,2020.1.3,MacIntel,60,13449,1.159,,,,,0,86,86,103,1,,,,,,,,,,,,,,,,,,,,,,,,,,,,,,,,,,,,,,,,,,,,,,,,,,,,,,,,
,,,,,,,,,,,,a,Correct!,,,,,,t2.png,t2.png,0,0.98115,19,female,2020-08-30_21h16.11.338,torte-2b,2020.1.3,MacIntel,60,13449,1.389,,,,,0,87,87,59,1,,,,,,,,,,,,,,,,,,,,,,,,,,,,,,,,,,,,,,,,,,,,,,,,,,,,,,,,
,,,,,,,,,,,,a,Correct!,,,,,,t4.png,t3.png,1,0.909,19,female,2020-08-30_21h16.11.338,torte-2b,2020.1.3,MacIntel,60,13449,0.926,,,,,0,88,88,20,1,,,,,,,,,,,,,,,,,,,,,,,,,,,,,,,,,,,,,,,,,,,,,,,,,,,,,,,,
,,,,,,,,,,,,a,Correct!,,,,,,t4.png,t4.png,0,0.98115,19,female,2020-08-30_21h16.11.338,torte-2b,2020.1.3,MacIntel,60,13449,1.209,,,,,0,89,89,79,1,,,,,,,,,,,,,,,,,,,,,,,,,,,,,,,,,,,,,,,,,,,,,,,,,,,,,,,,
,,,,,,,,,,,,l,Correct!,,,,,,t2.png,t4.png,2,0.0591,19,female,2020-08-30_21h16.11.338,torte-2b,2020.1.3,MacIntel,60,13449,0.849,,,,,0,90,90,15,1,,,,,,,,,,,,,,,,,,,,,,,,,,,,,,,,,,,,,,,,,,,,,,,,,,,,,,,,
,,,,,,,,,,,,a,Incorrect,,,,,,t5.png,t3.png,2,0.056466,19,female,2020-08-30_21h16.11.338,torte-2b,2020.1.3,MacIntel,60,13449,1.817,,,,,0,91,91,38,1,,,,,,,,,,,,,,,,,,,,,,,,,,,,,,,,,,,,,,,,,,,,,,,,,,,,,,,,
,,,,,,,,,,,,l,Incorrect,,,,,,t1.png,t2.png,1,0.9,19,female,2020-08-30_21h16.11.338,torte-2b,2020.1.3,MacIntel,60,13449,1.224,,,,,0,92,92,1,1,,,,,,,,,,,,,,,,,,,,,,,,,,,,,,,,,,,,,,,,,,,,,,,,,,,,,,,,
,,,,,,,,,,,,l,Correct!,,,,,,t2.png,t4.png,2,0.059078,19,female,2020-08-30_21h16.11.338,torte-2b,2020.1.3,MacIntel,60,13449,1.716,,,,,0,93,93,11,1,,,,,,,,,,,,,,,,,,,,,,,,,,,,,,,,,,,,,,,,,,,,,,,,,,,,,,,,
,,,,,,,,,,,,a,Correct!,,,,,,t3.png,t2.png,1,0.90855,19,female,2020-08-30_21h16.11.338,torte-2b,2020.1.3,MacIntel,60,13449,1.466,,,,,0,94,94,18,1,,,,,,,,,,,,,,,,,,,,,,,,,,,,,,,,,,,,,,,,,,,,,,,,,,,,,,,,
,,,,,,,,,,,,l,Correct!,,,,,,t1.png,t3.png,2,0.056466,19,female,2020-08-30_21h16.11.338,torte-2b,2020.1.3,MacIntel,60,13449,0.86,,,,,0,95,95,69,1,,,,,,,,,,,,,,,,,,,,,,,,,,,,,,,,,,,,,,,,,,,,,,,,,,,,,,,,
,,,,,,,,,,,,a,Incorrect,,,,,,t5.png,t2.png,3,0.0000131,19,female,2020-08-30_21h16.11.338,torte-2b,2020.1.3,MacIntel,60,13449,0.967,,,,,0,96,96,119,1,,,,,,,,,,,,,,,,,,,,,,,,,,,,,,,,,,,,,,,,,,,,,,,,,,,,,,,,
,,,,,,,,,,,,a,Incorrect,,,,,,t4.png,t1.png,3,0.0000131,19,female,2020-08-30_21h16.11.338,torte-2b,2020.1.3,MacIntel,60,13449,0.817,,,,,0,97,97,42,1,,,,,,,,,,,,,,,,,,,,,,,,,,,,,,,,,,,,,,,,,,,,,,,,,,,,,,,,
,,,,,,,,,,,,l,Incorrect,,,,,,t1.png,t2.png,1,0.90025,19,female,2020-08-30_21h16.11.338,torte-2b,2020.1.3,MacIntel,60,13449,1.06,,,,,0,98,98,112,1,,,,,,,,,,,,,,,,,,,,,,,,,,,,,,,,,,,,,,,,,,,,,,,,,,,,,,,,
,,,,,,,,,,,,a,Correct!,,,,,,t3.png,t2.png,1,0.90855,19,female,2020-08-30_21h16.11.338,torte-2b,2020.1.3,MacIntel,60,13449,0.966,,,,,0,99,99,53,1,,,,,,,,,,,,,,,,,,,,,,,,,,,,,,,,,,,,,,,,,,,,,,,,,,,,,,,,
,,,,,,,,,,,,a,Incorrect,,,,,,t5.png,t3.png,2,0.056466,19,female,2020-08-30_21h16.11.338,torte-2b,2020.1.3,MacIntel,60,13449,0.849,,,,,0,100,100,56,1,,,,,,,,,,,,,,,,,,,,,,,,,,,,,,,,,,,,,,,,,,,,,,,,,,,,,,,,
,,,,,,,,,,,,a,Correct!,,,,,,t2.png,t1.png,1,0.9,19,female,2020-08-30_21h16.11.338,torte-2b,2020.1.3,MacIntel,60,13449,1.617,,,,,0,101,101,118,1,,,,,,,,,,,,,,,,,,,,,,,,,,,,,,,,,,,,,,,,,,,,,,,,,,,,,,,,
,,,,,,,,,,,,l,Incorrect,,,,,,t5.png,t5.png,0,0.978,19,female,2020-08-30_21h16.11.338,torte-2b,2020.1.3,MacIntel,60,13449,1.283,,,,,0,102,102,117,1,,,,,,,,,,,,,,,,,,,,,,,,,,,,,,,,,,,,,,,,,,,,,,,,,,,,,,,,
,,,,,,,,,,,,l,Correct!,,,,,,t3.png,t5.png,2,0.0565,19,female,2020-08-30_21h16.11.338,torte-2b,2020.1.3,MacIntel,60,13449,0.459,,,,,0,103,103,83,1,,,,,,,,,,,,,,,,,,,,,,,,,,,,,,,,,,,,,,,,,,,,,,,,,,,,,,,,
,,,,,,,,,,,,l,Incorrect,,,,,,t3.png,t4.png,1,0.909,19,female,2020-08-30_21h16.11.338,torte-2b,2020.1.3,MacIntel,60,13449,2.034,,,,,0,104,104,89,1,,,,,,,,,,,,,,,,,,,,,,,,,,,,,,,,,,,,,,,,,,,,,,,,,,,,,,,,
,,,,,,,,,,,,a,Incorrect,,,,,,t5.png,t1.png,4,9.55E-11,19,female,2020-08-30_21h16.11.338,torte-2b,2020.1.3,MacIntel,60,13449,0.908,,,,,0,105,105,102,1,,,,,,,,,,,,,,,,,,,,,,,,,,,,,,,,,,,,,,,,,,,,,,,,,,,,,,,,
,,,,,,,,,,,,l,Correct!,,,,,,t1.png,t4.png,3,0.0000131,19,female,2020-08-30_21h16.11.338,torte-2b,2020.1.3,MacIntel,60,13449,0.593,,,,,0,106,106,81,1,,,,,,,,,,,,,,,,,,,,,,,,,,,,,,,,,,,,,,,,,,,,,,,,,,,,,,,,
,,,,,,,,,,,,l,Incorrect,,,,,,t4.png,t5.png,1,0.9,19,female,2020-08-30_21h16.11.338,torte-2b,2020.1.3,MacIntel,60,13449,0.6,,,,,0,107,107,115,1,,,,,,,,,,,,,,,,,,,,,,,,,,,,,,,,,,,,,,,,,,,,,,,,,,,,,,,,
,,,,,,,,,,,,l,Correct!,,,,,,t1.png,t5.png,4,9.55E-11,19,female,2020-08-30_21h16.11.338,torte-2b,2020.1.3,MacIntel,60,13449,0.515,,,,,0,108,108,55,1,,,,,,,,,,,,,,,,,,,,,,,,,,,,,,,,,,,,,,,,,,,,,,,,,,,,,,,,
,,,,,,,,,,,,a,Incorrect,,,,,,t5.png,t2.png,3,0.0000131,19,female,2020-08-30_21h16.11.338,torte-2b,2020.1.3,MacIntel,60,13449,0.867,,,,,0,109,109,51,1,,,,,,,,,,,,,,,,,,,,,,,,,,,,,,,,,,,,,,,,,,,,,,,,,,,,,,,,
,,,,,,,,,,,,l,Incorrect,,,,,,t2.png,t3.png,1,0.90855,19,female,2020-08-30_21h16.11.338,torte-2b,2020.1.3,MacIntel,60,13449,0.75,,,,,0,110,110,10,1,,,,,,,,,,,,,,,,,,,,,,,,,,,,,,,,,,,,,,,,,,,,,,,,,,,,,,,,
,,,,,,,,,,,,l,Correct!,,,,,,t2.png,t5.png,3,0.0000131,19,female,2020-08-30_21h16.11.338,torte-2b,2020.1.3,MacIntel,60,13449,0.525,,,,,0,111,111,95,1,,,,,,,,,,,,,,,,,,,,,,,,,,,,,,,,,,,,,,,,,,,,,,,,,,,,,,,,
,,,,,,,,,,,,a,Incorrect,,,,,,t3.png,t1.png,2,0.056466,19,female,2020-08-30_21h16.11.338,torte-2b,2020.1.3,MacIntel,60,13449,0.925,,,,,0,112,112,32,1,,,,,,,,,,,,,,,,,,,,,,,,,,,,,,,,,,,,,,,,,,,,,,,,,,,,,,,,
,,,,,,,,,,,,a,Incorrect,,,,,,t5.png,t2.png,3,0.0000131,19,female,2020-08-30_21h16.11.338,torte-2b,2020.1.3,MacIntel,60,13449,0.991,,,,,0,113,113,91,1,,,,,,,,,,,,,,,,,,,,,,,,,,,,,,,,,,,,,,,,,,,,,,,,,,,,,,,,
,,,,,,,,,,,,a,Incorrect,,,,,,t5.png,t2.png,3,0.0000131,19,female,2020-08-30_21h16.11.338,torte-2b,2020.1.3,MacIntel,60,13449,1.126,,,,,0,114,114,116,1,,,,,,,,,,,,,,,,,,,,,,,,,,,,,,,,,,,,,,,,,,,,,,,,,,,,,,,,
,,,,,,,,,,,,a,Incorrect,,,,,,t4.png,t1.png,3,0.0000131,19,female,2020-08-30_21h16.11.338,torte-2b,2020.1.3,MacIntel,60,13449,1.233,,,,,0,115,115,61,1,,,,,,,,,,,,,,,,,,,,,,,,,,,,,,,,,,,,,,,,,,,,,,,,,,,,,,,,
,,,,,,,,,,,,l,Correct!,,,,,,t1.png,t5.png,4,9.55E-11,19,female,2020-08-30_21h16.11.338,torte-2b,2020.1.3,MacIntel,60,13449,1,,,,,0,116,116,85,1,,,,,,,,,,,,,,,,,,,,,,,,,,,,,,,,,,,,,,,,,,,,,,,,,,,,,,,,
,,,,,,,,,,,,l,Correct!,,,,,,t1.png,t3.png,2,0.056466,19,female,2020-08-30_21h16.11.338,torte-2b,2020.1.3,MacIntel,60,13449,0.877,,,,,0,117,117,99,1,,,,,,,,,,,,,,,,,,,,,,,,,,,,,,,,,,,,,,,,,,,,,,,,,,,,,,,,
,,,,,,,,,,,,a,Incorrect,,,,,,t5.png,t1.png,4,9.55E-11,19,female,2020-08-30_21h16.11.338,torte-2b,2020.1.3,MacIntel,60,13449,1.1,,,,,0,118,118,100,1,,,,,,,,,,,,,,,,,,,,,,,,,,,,,,,,,,,,,,,,,,,,,,,,,,,,,,,,
,,,,,,,,,,,,a,Incorrect,,,,,,t3.png,t1.png,2,0.0565,19,female,2020-08-30_21h16.11.338,torte-2b,2020.1.3,MacIntel,60,13449,0.834,,,,,0,119,119,31,1,,,,,,,,,,,,,,,,,,,,,,,,,,,,,,,,,,,,,,,,,,,,,,,,,,,,,,,,
,,,,,,,,,,,,,,,,,,,,,,,19,female,2020-08-30_21h16.11.338,torte-2b,2020.1.3,MacIntel,60,13449,,o,2,,,,,,,,space,40.149,,0,0,0,0,1,6,,,,,,,,,,,,,,,,,,,,,,,,,,,,,,,,,,,,,,,,,,,,,,,
,,,,,,,,,,,,,,,,,,,,,,,19,female,2020-08-30_21h16.11.338,torte-2b,2020.1.3,MacIntel,60,13449,,,,,,,,,,,,,,0,1,1,1,1,7,,,,,,,,,,,,,,,,,,,,,,,,,,,,,,,,,,,,,,,,,,,,,,,
,,,,,,,,,,,,,,,,,,,,,,,19,female,2020-08-30_21h16.11.338,torte-2b,2020.1.3,MacIntel,60,13449,,,,,,,,,,,,,,0,2,2,2,1,6,,,,,,,,,,,,,,,,,,,,,,,,,,,,,,,,,,,,,,,,,,,,,,,
,,,,,,,,,,,,,,,,,,,,,,,19,female,2020-08-30_21h16.11.338,torte-2b,2020.1.3,MacIntel,60,13449,,,,,,,,,,,,,space,0,3,3,3,1,7,0.365,,,,,,,,,,,,,,,,,,,,,,,,,,,,,,,,,,,,,,,,,,,,,,
,,,,,,,,,,,,,,,,,,,,,,,19,female,2020-08-30_21h16.11.338,torte-2b,2020.1.3,MacIntel,60,13449,,,,,,,,,,,,,,0,4,4,4,1,5,,,,,,,,,,,,,,,,,,,,,,,,,,,,,,,,,,,,,,,,,,,,,,,
,,,,,,,,,,,,,,,,,,,,,,,19,female,2020-08-30_21h16.11.338,torte-2b,2020.1.3,MacIntel,60,13449,,,,,,,,,,,,,space,0,5,5,5,1,7,0.28,,,,,,,,,,,,,,,,,,,,,,,,,,,,,,,,,,,,,,,,,,,,,,
,,,,,,,,,,,,,,,,,,,,,,,19,female,2020-08-30_21h16.11.338,torte-2b,2020.1.3,MacIntel,60,13449,,,,,,,,,,,,,,0,6,6,6,1,2,,,,,,,,,,,,,,,,,,,,,,,,,,,,,,,,,,,,,,,,,,,,,,,
,,,,,,,,,,,,,,,,,,,,,,,19,female,2020-08-30_21h16.11.338,torte-2b,2020.1.3,MacIntel,60,13449,,,,,,,,,,,,,,0,7,7,7,1,4,,,,,,,,,,,,,,,,,,,,,,,,,,,,,,,,,,,,,,,,,,,,,,,
,,,,,,,,,,,,,,,,,,,,,,,19,female,2020-08-30_21h16.11.338,torte-2b,2020.1.3,MacIntel,60,13449,,,,,,,,,,,,,,0,8,8,8,1,7,,,,,,,,,,,,,,,,,,,,,,,,,,,,,,,,,,,,,,,,,,,,,,,
,,,,,,,,,,,,,,,,,,,,,,,19,female,2020-08-30_21h16.11.338,torte-2b,2020.1.3,MacIntel,60,13449,,,,,,,,,,,,,space,0,9,9,9,1,4,0.346,,,,,,,,,,,,,,,,,,,,,,,,,,,,,,,,,,,,,,,,,,,,,,
,,,,,,,,,,,,,,,,,,,,,,,19,female,2020-08-30_21h16.11.338,torte-2b,2020.1.3,MacIntel,60,13449,,,,,,,,,,,,,space,0,10,10,10,1,7,0.324,,,,,,,,,,,,,,,,,,,,,,,,,,,,,,,,,,,,,,,,,,,,,,
,,,,,,,,,,,,,,,,,,,,,,,19,female,2020-08-30_21h16.11.338,torte-2b,2020.1.3,MacIntel,60,13449,,,,,,,,,,,,,space,0,11,11,11,1,7,0.464,,,,,,,,,,,,,,,,,,,,,,,,,,,,,,,,,,,,,,,,,,,,,,
,,,,,,,,,,,,,,,,,,,,,,,19,female,2020-08-30_21h16.11.338,torte-2b,2020.1.3,MacIntel,60,13449,,,,,,,,,,,,,space,0,12,12,12,1,7,0.596,,,,,,,,,,,,,,,,,,,,,,,,,,,,,,,,,,,,,,,,,,,,,,
,,,,,,,,,,,,,,,,,,,,,,,19,female,2020-08-30_21h16.11.338,torte-2b,2020.1.3,MacIntel,60,13449,,,,,,,,,,,,,,0,13,13,13,1,4,,,,,,,,,,,,,,,,,,,,,,,,,,,,,,,,,,,,,,,,,,,,,,,
,,,,,,,,,,,,,,,,,,,,,,,19,female,2020-08-30_21h16.11.338,torte-2b,2020.1.3,MacIntel,60,13449,,,,,,,,,,,,,,0,14,14,14,1,6,,,,,,,,,,,,,,,,,,,,,,,,,,,,,,,,,,,,,,,,,,,,,,,
,,,,,,,,,,,,,,,,,,,,,,,19,female,2020-08-30_21h16.11.338,torte-2b,2020.1.3,MacIntel,60,13449,,,,,,,,,,,,,,0,15,15,15,1,4,,,,,,,,,,,,,,,,,,,,,,,,,,,,,,,,,,,,,,,,,,,,,,,
,,,,,,,,,,,,,,,,,,,,,,,19,female,2020-08-30_21h16.11.338,torte-2b,2020.1.3,MacIntel,60,13449,,,,,,,,,,,,,space,0,16,16,16,1,6,0.181,,,,,,,,,,,,,,,,,,,,,,,,,,,,,,,,,,,,,,,,,,,,,,
,,,,,,,,,,,,,,,,,,,,,,,19,female,2020-08-30_21h16.11.338,torte-2b,2020.1.3,MacIntel,60,13449,,,,,,,,,,,,,,0,17,17,17,1,7,,,,,,,,,,,,,,,,,,,,,,,,,,,,,,,,,,,,,,,,,,,,,,,
,,,,,,,,,,,,,,,,,,,,,,,19,female,2020-08-30_21h16.11.338,torte-2b,2020.1.3,MacIntel,60,13449,,,,,,,,,,,,,space,0,18,18,18,1,6,0.439,,,,,,,,,,,,,,,,,,,,,,,,,,,,,,,,,,,,,,,,,,,,,,
,,,,,,,,,,,,,,,,,,,,,,,19,female,2020-08-30_21h16.11.338,torte-2b,2020.1.3,MacIntel,60,13449,,,,,,,,,,,,,space,0,19,19,19,1,7,0.464,,,,,,,,,,,,,,,,,,,,,,,,,,,,,,,,,,,,,,,,,,,,,,
,,,,,,,,,,,,,,,,,,,,,,,19,female,2020-08-30_21h16.11.338,torte-2b,2020.1.3,MacIntel,60,13449,,,,,,,,,,,,,,0,20,20,20,1,5,,,,,,,,,,,,,,,,,,,,,,,,,,,,,,,,,,,,,,,,,,,,,,,
,,,,,,,,,,,,,,,,,,,,,,,19,female,2020-08-30_21h16.11.338,torte-2b,2020.1.3,MacIntel,60,13449,,,,,,,,,,,,,,0,21,21,21,1,1,,,,,,,,,,,,,,,,,,,,,,,,,,,,,,,,,,,,,,,,,,,,,,,
,,,,,,,,,,,,,,,,,,,,,,,19,female,2020-08-30_21h16.11.338,torte-2b,2020.1.3,MacIntel,60,13449,,,,,,,,,,,,,space,0,22,22,22,1,6,0.315,,,,,,,,,,,,,,,,,,,,,,,,,,,,,,,,,,,,,,,,,,,,,,
,,,,,,,,,,,,,,,,,,,,,,,19,female,2020-08-30_21h16.11.338,torte-2b,2020.1.3,MacIntel,60,13449,,,,,,,,,,,,,space,0,23,23,23,1,1,0.354,,,,,,,,,,,,,,,,,,,,,,,,,,,,,,,,,,,,,,,,,,,,,,
,,,,,,,,,,,,,,,,,,,,,,,19,female,2020-08-30_21h16.11.338,torte-2b,2020.1.3,MacIntel,60,13449,,,,,,,,,,,,,,0,24,24,24,1,5,,,,,,,,,,,,,,,,,,,,,,,,,,,,,,,,,,,,,,,,,,,,,,,
,,,,,,,,,,,,,,,,,,,,,,,19,female,2020-08-30_21h16.11.338,torte-2b,2020.1.3,MacIntel,60,13449,,,,,,,,,,,,,,0,25,25,25,1,6,,,,,,,,,,,,,,,,,,,,,,,,,,,,,,,,,,,,,,,,,,,,,,,
,,,,,,,,,,,,,,,,,,,,,,,19,female,2020-08-30_21h16.11.338,torte-2b,2020.1.3,MacIntel,60,13449,,,,,,,,,,,,,,0,26,26,26,1,6,,,,,,,,,,,,,,,,,,,,,,,,,,,,,,,,,,,,,,,,,,,,,,,
,,,,,,,,,,,,,,,,,,,,,,,19,female,2020-08-30_21h16.11.338,torte-2b,2020.1.3,MacIntel,60,13449,,,,,,,,,,,,,space,0,27,27,27,1,6,0.832,,,,,,,,,,,,,,,,,,,,,,,,,,,,,,,,,,,,,,,,,,,,,,
,,,,,,,,,,,,,,,,,,,,,,,19,female,2020-08-30_21h16.11.338,torte-2b,2020.1.3,MacIntel,60,13449,,,,,,,,,,,,,,0,28,28,28,1,5,,,,,,,,,,,,,,,,,,,,,,,,,,,,,,,,,,,,,,,,,,,,,,,
,,,,,,,,,,,,,,,,,,,,,,,19,female,2020-08-30_21h16.11.338,torte-2b,2020.1.3,MacIntel,60,13449,,,,,,,,,,,,,,0,29,29,29,1,2,,,,,,,,,,,,,,,,,,,,,,,,,,,,,,,,,,,,,,,,,,,,,,,
,,,,,,,,,,,,,,,,,,,,,,,19,female,2020-08-30_21h16.11.338,torte-2b,2020.1.3,MacIntel,60,13449,,,,,,,,,,,,,,0,30,30,30,1,5,,,,,,,,,,,,,,,,,,,,,,,,,,,,,,,,,,,,,,,,,,,,,,,
,,,,,,,,,,,,,,,,,,,,,,,19,female,2020-08-30_21h16.11.338,torte-2b,2020.1.3,MacIntel,60,13449,,,,,,,,,,,,,space,0,31,31,31,1,2,0.364,,,,,,,,,,,,,,,,,,,,,,,,,,,,,,,,,,,,,,,,,,,,,,
,,,,,,,,,,,,,,,,,,,,,,,19,female,2020-08-30_21h16.11.338,torte-2b,2020.1.3,MacIntel,60,13449,,,,,,,,,,,,,space,0,32,32,32,1,5,0.383,,,,,,,,,,,,,,,,,,,,,,,,,,,,,,,,,,,,,,,,,,,,,,
,,,,,,,,,,,,,,,,,,,,,,,19,female,2020-08-30_21h16.11.338,torte-2b,2020.1.3,MacIntel,60,13449,,,,,,,,,,,,,,0,33,33,33,1,1,,,,,,,,,,,,,,,,,,,,,,,,,,,,,,,,,,,,,,,,,,,,,,,
,,,,,,,,,,,,,,,,,,,,,,,19,female,2020-08-30_21h16.11.338,torte-2b,2020.1.3,MacIntel,60,13449,,,,,,,,,,,,,space,0,34,34,34,1,1,0.73,,,,,,,,,,,,,,,,,,,,,,,,,,,,,,,,,,,,,,,,,,,,,,
,,,,,,,,,,,,,,,,,,,,,,,19,female,2020-08-30_21h16.11.338,torte-2b,2020.1.3,MacIntel,60,13449,,,,,,,,,,,,,,,,,,,2,,0,0,0,0,1,,,,,,,,,,,,,,,,,,,,,,,,,,,,,,,,,,,,,,,,,
,,,,,,,,,,,,,,,,,,,,,,,19,female,2020-08-30_21h16.11.338,torte-2b,2020.1.3,MacIntel,60,13449,,,,,,,,,,,,,space,,,,,,2,0.465,0,1,1,1,1,,,,,,,,,,,,,,,,,,,,,,,,,,,,,,,,,,,,,,,,,
,,,,,,,,,,,,,,,,,,,,,,,19,female,2020-08-30_21h16.11.338,torte-2b,2020.1.3,MacIntel,60,13449,,,,,,,,,,,,,,,,,,,6,,0,2,2,2,1,,,,,,,,,,,,,,,,,,,,,,,,,,,,,,,,,,,,,,,,,
,,,,,,,,,,,,,,,,,,,,,,,19,female,2020-08-30_21h16.11.338,torte-2b,2020.1.3,MacIntel,60,13449,,,,,,,,,,,,,space,,,,,,2,0.764,0,3,3,3,1,,,,,,,,,,,,,,,,,,,,,,,,,,,,,,,,,,,,,,,,,
,,,,,,,,,,,,,,,,,,,,,,,19,female,2020-08-30_21h16.11.338,torte-2b,2020.1.3,MacIntel,60,13449,,,,,,,,,,,,,space,,,,,,6,0.498,0,4,4,4,1,,,,,,,,,,,,,,,,,,,,,,,,,,,,,,,,,,,,,,,,,
,,,,,,,,,,,,,,,,,,,,,,,19,female,2020-08-30_21h16.11.338,torte-2b,2020.1.3,MacIntel,60,13449,,,,,,,,,,,,,,,,,,,2,,0,5,5,5,1,,,,,,,,,,,,,,,,,,,,,,,,,,,,,,,,,,,,,,,,,
,,,,,,,,,,,,,,,,,,,,,,,19,female,2020-08-30_21h16.11.338,torte-2b,2020.1.3,MacIntel,60,13449,,,,,,,,,,,,,,,,,,,7,,0,6,6,6,1,,,,,,,,,,,,,,,,,,,,,,,,,,,,,,,,,,,,,,,,,
,,,,,,,,,,,,,,,,,,,,,,,19,female,2020-08-30_21h16.11.338,torte-2b,2020.1.3,MacIntel,60,13449,,,,,,,,,,,,,space,,,,,,2,0.245,0,7,7,7,1,,,,,,,,,,,,,,,,,,,,,,,,,,,,,,,,,,,,,,,,,
,,,,,,,,,,,,,,,,,,,,,,,19,female,2020-08-30_21h16.11.338,torte-2b,2020.1.3,MacIntel,60,13449,,,,,,,,,,,,,space,,,,,,7,0.359,0,8,8,8,1,,,,,,,,,,,,,,,,,,,,,,,,,,,,,,,,,,,,,,,,,
,,,,,,,,,,,,,,,,,,,,,,,19,female,2020-08-30_21h16.11.338,torte-2b,2020.1.3,MacIntel,60,13449,,,,,,,,,,,,,space,,,,,,2,0.447,0,9,9,9,1,,,,,,,,,,,,,,,,,,,,,,,,,,,,,,,,,,,,,,,,,
,,,,,,,,,,,,,,,,,,,,,,,19,female,2020-08-30_21h16.11.338,torte-2b,2020.1.3,MacIntel,60,13449,,,,,,,,,,,,,,,,,,,5,,0,10,10,10,1,,,,,,,,,,,,,,,,,,,,,,,,,,,,,,,,,,,,,,,,,
,,,,,,,,,,,,,,,,,,,,,,,19,female,2020-08-30_21h16.11.338,torte-2b,2020.1.3,MacIntel,60,13449,,,,,,,,,,,,,,,,,,,4,,0,11,11,11,1,,,,,,,,,,,,,,,,,,,,,,,,,,,,,,,,,,,,,,,,,
,,,,,,,,,,,,,,,,,,,,,,,19,female,2020-08-30_21h16.11.338,torte-2b,2020.1.3,MacIntel,60,13449,,,,,,,,,,,,,space,,,,,,5,0.445,0,12,12,12,1,,,,,,,,,,,,,,,,,,,,,,,,,,,,,,,,,,,,,,,,,
,,,,,,,,,,,,,,,,,,,,,,,19,female,2020-08-30_21h16.11.338,torte-2b,2020.1.3,MacIntel,60,13449,,,,,,,,,,,,,,,,,,,6,,0,13,13,13,1,,,,,,,,,,,,,,,,,,,,,,,,,,,,,,,,,,,,,,,,,
,,,,,,,,,,,,,,,,,,,,,,,19,female,2020-08-30_21h16.11.338,torte-2b,2020.1.3,MacIntel,60,13449,,,,,,,,,,,,,,,,,,,5,,0,14,14,14,1,,,,,,,,,,,,,,,,,,,,,,,,,,,,,,,,,,,,,,,,,
,,,,,,,,,,,,,,,,,,,,,,,19,female,2020-08-30_21h16.11.338,torte-2b,2020.1.3,MacIntel,60,13449,,,,,,,,,,,,,,,,,,,4,,0,15,15,15,1,,,,,,,,,,,,,,,,,,,,,,,,,,,,,,,,,,,,,,,,,
,,,,,,,,,,,,,,,,,,,,,,,19,female,2020-08-30_21h16.11.338,torte-2b,2020.1.3,MacIntel,60,13449,,,,,,,,,,,,,space,,,,,,5,0.324,0,16,16,16,1,,,,,,,,,,,,,,,,,,,,,,,,,,,,,,,,,,,,,,,,,
,,,,,,,,,,,,,,,,,,,,,,,19,female,2020-08-30_21h16.11.338,torte-2b,2020.1.3,MacIntel,60,13449,,,,,,,,,,,,,,,,,,,3,,0,17,17,17,1,,,,,,,,,,,,,,,,,,,,,,,,,,,,,,,,,,,,,,,,,
,,,,,,,,,,,,,,,,,,,,,,,19,female,2020-08-30_21h16.11.338,torte-2b,2020.1.3,MacIntel,60,13449,,,,,,,,,,,,,,,,,,,6,,0,18,18,18,1,,,,,,,,,,,,,,,,,,,,,,,,,,,,,,,,,,,,,,,,,
,,,,,,,,,,,,,,,,,,,,,,,19,female,2020-08-30_21h16.11.338,torte-2b,2020.1.3,MacIntel,60,13449,,,,,,,,,,,,,space,,,,,,6,0.473,0,19,19,19,1,,,,,,,,,,,,,,,,,,,,,,,,,,,,,,,,,,,,,,,,,
,,,,,,,,,,,,,,,,,,,,,,,19,female,2020-08-30_21h16.11.338,torte-2b,2020.1.3,MacIntel,60,13449,,,,,,,,,,,,,space,,,,,,6,0.723,0,20,20,20,1,,,,,,,,,,,,,,,,,,,,,,,,,,,,,,,,,,,,,,,,,
,,,,,,,,,,,,,,,,,,,,,,,19,female,2020-08-30_21h16.11.338,torte-2b,2020.1.3,MacIntel,60,13449,,,,,,,,,,,,,,,,,,,4,,0,21,21,21,1,,,,,,,,,,,,,,,,,,,,,,,,,,,,,,,,,,,,,,,,,
,,,,,,,,,,,,,,,,,,,,,,,19,female,2020-08-30_21h16.11.338,torte-2b,2020.1.3,MacIntel,60,13449,,,,,,,,,,,,,space,,,,,,6,0.347,0,22,22,22,1,,,,,,,,,,,,,,,,,,,,,,,,,,,,,,,,,,,,,,,,,
,,,,,,,,,,,,,,,,,,,,,,,19,female,2020-08-30_21h16.11.338,torte-2b,2020.1.3,MacIntel,60,13449,,,,,,,,,,,,,space,,,,,,4,0.391,0,23,23,23,1,,,,,,,,,,,,,,,,,,,,,,,,,,,,,,,,,,,,,,,,,
,,,,,,,,,,,,,,,,,,,,,,,19,female,2020-08-30_21h16.11.338,torte-2b,2020.1.3,MacIntel,60,13449,,,,,,,,,,,,,space,,,,,,6,0.337,0,24,24,24,1,,,,,,,,,,,,,,,,,,,,,,,,,,,,,,,,,,,,,,,,,
,,,,,,,,,,,,,,,,,,,,,,,19,female,2020-08-30_21h16.11.338,torte-2b,2020.1.3,MacIntel,60,13449,,,,,,,,,,,,,,,,,,,6,,0,25,25,25,1,,,,,,,,,,,,,,,,,,,,,,,,,,,,,,,,,,,,,,,,,
,,,,,,,,,,,,,,,,,,,,,,,19,female,2020-08-30_21h16.11.338,torte-2b,2020.1.3,MacIntel,60,13449,,,,,,,,,,,,,space,,,,,,7,0.308,0,26,26,26,1,,,,,,,,,,,,,,,,,,,,,,,,,,,,,,,,,,,,,,,,,
,,,,,,,,,,,,,,,,,,,,,,,19,female,2020-08-30_21h16.11.338,torte-2b,2020.1.3,MacIntel,60,13449,,,,,,,,,,,,,,,,,,,1,,0,27,27,27,1,,,,,,,,,,,,,,,,,,,,,,,,,,,,,,,,,,,,,,,,,
,,,,,,,,,,,,,,,,,,,,,,,19,female,2020-08-30_21h16.11.338,torte-2b,2020.1.3,MacIntel,60,13449,,,,,,,,,,,,,space,,,,,,7,0.48,0,28,28,28,1,,,,,,,,,,,,,,,,,,,,,,,,,,,,,,,,,,,,,,,,,
,,,,,,,,,,,,,,,,,,,,,,,19,female,2020-08-30_21h16.11.338,torte-2b,2020.1.3,MacIntel,60,13449,,,,,,,,,,,,,,,,,,,4,,0,29,29,29,1,,,,,,,,,,,,,,,,,,,,,,,,,,,,,,,,,,,,,,,,,
,,,,,,,,,,,,,,,,,,,,,,,19,female,2020-08-30_21h16.11.338,torte-2b,2020.1.3,MacIntel,60,13449,,,,,,,,,,,,,,,,,,,7,,0,30,30,30,1,,,,,,,,,,,,,,,,,,,,,,,,,,,,,,,,,,,,,,,,,
,,,,,,,,,,,,,,,,,,,,,,,19,female,2020-08-30_21h16.11.338,torte-2b,2020.1.3,MacIntel,60,13449,,,,,,,,,,,,,,,,,,,3,,0,31,31,31,1,,,,,,,,,,,,,,,,,,,,,,,,,,,,,,,,,,,,,,,,,
,,,,,,,,,,,,,,,,,,,,,,,19,female,2020-08-30_21h16.11.338,torte-2b,2020.1.3,MacIntel,60,13449,,,,,,,,,,,,,,,,,,,2,,0,32,32,32,1,,,,,,,,,,,,,,,,,,,,,,,,,,,,,,,,,,,,,,,,,
,,,,,,,,,,,,,,,,,,,,,,,19,female,2020-08-30_21h16.11.338,torte-2b,2020.1.3,MacIntel,60,13449,,,,,,,,,,,,,,,,,,,6,,0,33,33,33,1,,,,,,,,,,,,,,,,,,,,,,,,,,,,,,,,,,,,,,,,,
,,,,,,,,,,,,,,,,,,,,,,,19,female,2020-08-30_21h16.11.338,torte-2b,2020.1.3,MacIntel,60,13449,,,,,,,,,,,,,,,,,,,3,,0,34,34,34,1,,,,,,,,,,,,,,,,,,,,,,,,,,,,,,,,,,,,,,,,,
,,,,,,,,,,,,,,,,,,,,,,,19,female,2020-08-30_21h16.11.338,torte-2b,2020.1.3,MacIntel,60,13449,,,,,,,,,,,,,,,,,,,7,,,,,,,0,0,0,0,1,,,,,,,,,,,,,,,,,,,,,,,,,,,,,,,,,,,,
,,,,,,,,,,,,,,,,,,,,,,,19,female,2020-08-30_21h16.11.338,torte-2b,2020.1.3,MacIntel,60,13449,,,,,,,,,,,,,,,,,,,5,,,,,,,0,1,1,1,1,,,,,,,,,,,,,,,,,,,,,,,,,,,,,,,,,,,,
,,,,,,,,,,,,,,,,,,,,,,,19,female,2020-08-30_21h16.11.338,torte-2b,2020.1.3,MacIntel,60,13449,,,,,,,,,,,,,,,,,,,4,,,,,,,0,2,2,2,1,,,,,,,,,,,,,,,,,,,,,,,,,,,,,,,,,,,,
,,,,,,,,,,,,,,,,,,,,,,,19,female,2020-08-30_21h16.11.338,torte-2b,2020.1.3,MacIntel,60,13449,,,,,,,,,,,,,,,,,,,5,,,,,,,0,3,3,3,1,,,,,,,,,,,,,,,,,,,,,,,,,,,,,,,,,,,,
,,,,,,,,,,,,,,,,,,,,,,,19,female,2020-08-30_21h16.11.338,torte-2b,2020.1.3,MacIntel,60,13449,,,,,,,,,,,,,,,,,,,6,,,,,,,0,4,4,4,1,,,,,,,,,,,,,,,,,,,,,,,,,,,,,,,,,,,,
,,,,,,,,,,,,,,,,,,,,,,,19,female,2020-08-30_21h16.11.338,torte-2b,2020.1.3,MacIntel,60,13449,,,,,,,,,,,,,space,,,,,,5,0.313,,,,,,0,5,5,5,1,,,,,,,,,,,,,,,,,,,,,,,,,,,,,,,,,,,,
,,,,,,,,,,,,,,,,,,,,,,,19,female,2020-08-30_21h16.11.338,torte-2b,2020.1.3,MacIntel,60,13449,,,,,,,,,,,,,,,,,,,3,,,,,,,0,6,6,6,1,,,,,,,,,,,,,,,,,,,,,,,,,,,,,,,,,,,,
,,,,,,,,,,,,,,,,,,,,,,,19,female,2020-08-30_21h16.11.338,torte-2b,2020.1.3,MacIntel,60,13449,,,,,,,,,,,,,,,,,,,4,,,,,,,0,7,7,7,1,,,,,,,,,,,,,,,,,,,,,,,,,,,,,,,,,,,,
,,,,,,,,,,,,,,,,,,,,,,,19,female,2020-08-30_21h16.11.338,torte-2b,2020.1.3,MacIntel,60,13449,,,,,,,,,,,,,space,,,,,,3,0.582,,,,,,0,8,8,8,1,,,,,,,,,,,,,,,,,,,,,,,,,,,,,,,,,,,,
,,,,,,,,,,,,,,,,,,,,,,,19,female,2020-08-30_21h16.11.338,torte-2b,2020.1.3,MacIntel,60,13449,,,,,,,,,,,,,,,,,,,1,,,,,,,0,9,9,9,1,,,,,,,,,,,,,,,,,,,,,,,,,,,,,,,,,,,,
,,,,,,,,,,,,,,,,,,,,,,,19,female,2020-08-30_21h16.11.338,torte-2b,2020.1.3,MacIntel,60,13449,,,,,,,,,,,,,,,,,,,2,,,,,,,0,10,10,10,1,,,,,,,,,,,,,,,,,,,,,,,,,,,,,,,,,,,,
,,,,,,,,,,,,,,,,,,,,,,,19,female,2020-08-30_21h16.11.338,torte-2b,2020.1.3,MacIntel,60,13449,,,,,,,,,,,,,space,,,,,,1,0.389,,,,,,0,11,11,11,1,,,,,,,,,,,,,,,,,,,,,,,,,,,,,,,,,,,,
,,,,,,,,,,,,,,,,,,,,,,,19,female,2020-08-30_21h16.11.338,torte-2b,2020.1.3,MacIntel,60,13449,,,,,,,,,,,,,space,,,,,,2,0.711,,,,,,0,12,12,12,1,,,,,,,,,,,,,,,,,,,,,,,,,,,,,,,,,,,,
,,,,,,,,,,,,,,,,,,,,,,,19,female,2020-08-30_21h16.11.338,torte-2b,2020.1.3,MacIntel,60,13449,,,,,,,,,,,,,,,,,,,1,,,,,,,0,13,13,13,1,,,,,,,,,,,,,,,,,,,,,,,,,,,,,,,,,,,,
,,,,,,,,,,,,,,,,,,,,,,,19,female,2020-08-30_21h16.11.338,torte-2b,2020.1.3,MacIntel,60,13449,,,,,,,,,,,,,,,,,,,3,,,,,,,0,14,14,14,1,,,,,,,,,,,,,,,,,,,,,,,,,,,,,,,,,,,,
,,,,,,,,,,,,,,,,,,,,,,,19,female,2020-08-30_21h16.11.338,torte-2b,2020.1.3,MacIntel,60,13449,,,,,,,,,,,,,space,,,,,,1,0.263,,,,,,0,15,15,15,1,,,,,,,,,,,,,,,,,,,,,,,,,,,,,,,,,,,,
,,,,,,,,,,,,,,,,,,,,,,,19,female,2020-08-30_21h16.11.338,torte-2b,2020.1.3,MacIntel,60,13449,,,,,,,,,,,,,space,,,,,,7,0.313,,,,,,0,16,16,16,1,,,,,,,,,,,,,,,,,,,,,,,,,,,,,,,,,,,,
,,,,,,,,,,,,,,,,,,,,,,,19,female,2020-08-30_21h16.11.338,torte-2b,2020.1.3,MacIntel,60,13449,,,,,,,,,,,,,,,,,,,7,,,,,,,0,17,17,17,1,,,,,,,,,,,,,,,,,,,,,,,,,,,,,,,,,,,,
,,,,,,,,,,,,,,,,,,,,,,,19,female,2020-08-30_21h16.11.338,torte-2b,2020.1.3,MacIntel,60,13449,,,,,,,,,,,,,,,,,,,4,,,,,,,0,18,18,18,1,,,,,,,,,,,,,,,,,,,,,,,,,,,,,,,,,,,,
,,,,,,,,,,,,,,,,,,,,,,,19,female,2020-08-30_21h16.11.338,torte-2b,2020.1.3,MacIntel,60,13449,,,,,,,,,,,,,space,,,,,,7,0.298,,,,,,0,19,19,19,1,,,,,,,,,,,,,,,,,,,,,,,,,,,,,,,,,,,,
,,,,,,,,,,,,,,,,,,,,,,,19,female,2020-08-30_21h16.11.338,torte-2b,2020.1.3,MacIntel,60,13449,,,,,,,,,,,,,,,,,,,3,,,,,,,0,20,20,20,1,,,,,,,,,,,,,,,,,,,,,,,,,,,,,,,,,,,,
,,,,,,,,,,,,,,,,,,,,,,,19,female,2020-08-30_21h16.11.338,torte-2b,2020.1.3,MacIntel,60,13449,,,,,,,,,,,,,,,,,,,7,,,,,,,0,21,21,21,1,,,,,,,,,,,,,,,,,,,,,,,,,,,,,,,,,,,,
,,,,,,,,,,,,,,,,,,,,,,,19,female,2020-08-30_21h16.11.338,torte-2b,2020.1.3,MacIntel,60,13449,,,,,,,,,,,,,space,,,,,,3,0.457,,,,,,0,22,22,22,1,,,,,,,,,,,,,,,,,,,,,,,,,,,,,,,,,,,,
,,,,,,,,,,,,,,,,,,,,,,,19,female,2020-08-30_21h16.11.338,torte-2b,2020.1.3,MacIntel,60,13449,,,,,,,,,,,,,,,,,,,1,,,,,,,0,23,23,23,1,,,,,,,,,,,,,,,,,,,,,,,,,,,,,,,,,,,,
,,,,,,,,,,,,,,,,,,,,,,,19,female,2020-08-30_21h16.11.338,torte-2b,2020.1.3,MacIntel,60,13449,,,,,,,,,,,,,,,,,,,6,,,,,,,0,24,24,24,1,,,,,,,,,,,,,,,,,,,,,,,,,,,,,,,,,,,,
,,,,,,,,,,,,,,,,,,,,,,,19,female,2020-08-30_21h16.11.338,torte-2b,2020.1.3,MacIntel,60,13449,,,,,,,,,,,,,,,,,,,3,,,,,,,0,25,25,25,1,,,,,,,,,,,,,,,,,,,,,,,,,,,,,,,,,,,,
,,,,,,,,,,,,,,,,,,,,,,,19,female,2020-08-30_21h16.11.338,torte-2b,2020.1.3,MacIntel,60,13449,,,,,,,,,,,,,,,,,,,2,,,,,,,0,26,26,26,1,,,,,,,,,,,,,,,,,,,,,,,,,,,,,,,,,,,,
,,,,,,,,,,,,,,,,,,,,,,,19,female,2020-08-30_21h16.11.338,torte-2b,2020.1.3,MacIntel,60,13449,,,,,,,,,,,,,,,,,,,3,,,,,,,0,27,27,27,1,,,,,,,,,,,,,,,,,,,,,,,,,,,,,,,,,,,,
,,,,,,,,,,,,,,,,,,,,,,,19,female,2020-08-30_21h16.11.338,torte-2b,2020.1.3,MacIntel,60,13449,,,,,,,,,,,,,,,,,,,1,,,,,,,0,28,28,28,1,,,,,,,,,,,,,,,,,,,,,,,,,,,,,,,,,,,,
,,,,,,,,,,,,,,,,,,,,,,,19,female,2020-08-30_21h16.11.338,torte-2b,2020.1.3,MacIntel,60,13449,,,,,,,,,,,,,,,,,,,3,,,,,,,0,29,29,29,1,,,,,,,,,,,,,,,,,,,,,,,,,,,,,,,,,,,,
,,,,,,,,,,,,,,,,,,,,,,,19,female,2020-08-30_21h16.11.338,torte-2b,2020.1.3,MacIntel,60,13449,,,,,,,,,,,,,,,,,,,1,,,,,,,0,30,30,30,1,,,,,,,,,,,,,,,,,,,,,,,,,,,,,,,,,,,,
,,,,,,,,,,,,,,,,,,,,,,,19,female,2020-08-30_21h16.11.338,torte-2b,2020.1.3,MacIntel,60,13449,,,,,,,,,,,,,,,,,,,7,,,,,,,0,31,31,31,1,,,,,,,,,,,,,,,,,,,,,,,,,,,,,,,,,,,,
,,,,,,,,,,,,,,,,,,,,,,,19,female,2020-08-30_21h16.11.338,torte-2b,2020.1.3,MacIntel,60,13449,,,,,,,,,,,,,,,,,,,5,,,,,,,0,32,32,32,1,,,,,,,,,,,,,,,,,,,,,,,,,,,,,,,,,,,,
,,,,,,,,,,,,,,,,,,,,,,,19,female,2020-08-30_21h16.11.338,torte-2b,2020.1.3,MacIntel,60,13449,,,,,,,,,,,,,space,,,,,,7,0.746,,,,,,0,33,33,33,1,,,,,,,,,,,,,,,,,,,,,,,,,,,,,,,,,,,,
,,,,,,,,,,,,,,,,,,,,,,,19,female,2020-08-30_21h16.11.338,torte-2b,2020.1.3,MacIntel,60,13449,,,,,,,,,,,,,,,,,,,2,,,,,,,0,34,34,34,1,,,,,,,,,,,,,,,,,,,,,,,,,,,,,,,,,,,,
,,,,,,,,,,,,,,,,,,,,,,,19,female,2020-08-30_21h16.11.338,torte-2b,2020.1.3,MacIntel,60,13449,,,,,,,,,,,,,,,,,,,3,,,,,,,,,,,,0,0,0,0,1,,,,,,,,,,,,,,,,,,,,,,,,,,,,,,,
,,,,,,,,,,,,,,,,,,,,,,,19,female,2020-08-30_21h16.11.338,torte-2b,2020.1.3,MacIntel,60,13449,,,,,,,,,,,,,,,,,,,7,,,,,,,,,,,,0,1,1,1,1,,,,,,,,,,,,,,,,,,,,,,,,,,,,,,,
,,,,,,,,,,,,,,,,,,,,,,,19,female,2020-08-30_21h16.11.338,torte-2b,2020.1.3,MacIntel,60,13449,,,,,,,,,,,,,,,,,,,7,,,,,,,,,,,,0,2,2,2,1,,,,,,,,,,,,,,,,,,,,,,,,,,,,,,,
,,,,,,,,,,,,,,,,,,,,,,,19,female,2020-08-30_21h16.11.338,torte-2b,2020.1.3,MacIntel,60,13449,,,,,,,,,,,,,,,,,,,4,,,,,,,,,,,,0,3,3,3,1,,,,,,,,,,,,,,,,,,,,,,,,,,,,,,,
,,,,,,,,,,,,,,,,,,,,,,,19,female,2020-08-30_21h16.11.338,torte-2b,2020.1.3,MacIntel,60,13449,,,,,,,,,,,,,,,,,,,5,,,,,,,,,,,,0,4,4,4,1,,,,,,,,,,,,,,,,,,,,,,,,,,,,,,,
,,,,,,,,,,,,,,,,,,,,,,,19,female,2020-08-30_21h16.11.338,torte-2b,2020.1.3,MacIntel,60,13449,,,,,,,,,,,,,space,,,,,,4,0.289,,,,,,,,,,,0,5,5,5,1,,,,,,,,,,,,,,,,,,,,,,,,,,,,,,,
,,,,,,,,,,,,,,,,,,,,,,,19,female,2020-08-30_21h16.11.338,torte-2b,2020.1.3,MacIntel,60,13449,,,,,,,,,,,,,,,,,,,2,,,,,,,,,,,,0,6,6,6,1,,,,,,,,,,,,,,,,,,,,,,,,,,,,,,,
,,,,,,,,,,,,,,,,,,,,,,,19,female,2020-08-30_21h16.11.338,torte-2b,2020.1.3,MacIntel,60,13449,,,,,,,,,,,,,,,,,,,4,,,,,,,,,,,,0,7,7,7,1,,,,,,,,,,,,,,,,,,,,,,,,,,,,,,,
,,,,,,,,,,,,,,,,,,,,,,,19,female,2020-08-30_21h16.11.338,torte-2b,2020.1.3,MacIntel,60,13449,,,,,,,,,,,,,,,,,,,2,,,,,,,,,,,,0,8,8,8,1,,,,,,,,,,,,,,,,,,,,,,,,,,,,,,,
,,,,,,,,,,,,,,,,,,,,,,,19,female,2020-08-30_21h16.11.338,torte-2b,2020.1.3,MacIntel,60,13449,,,,,,,,,,,,,space,,,,,,2,0.588,,,,,,,,,,,0,9,9,9,1,,,,,,,,,,,,,,,,,,,,,,,,,,,,,,,
,,,,,,,,,,,,,,,,,,,,,,,19,female,2020-08-30_21h16.11.338,torte-2b,2020.1.3,MacIntel,60,13449,,,,,,,,,,,,,,,,,,,6,,,,,,,,,,,,0,10,10,10,1,,,,,,,,,,,,,,,,,,,,,,,,,,,,,,,
,,,,,,,,,,,,,,,,,,,,,,,19,female,2020-08-30_21h16.11.338,torte-2b,2020.1.3,MacIntel,60,13449,,,,,,,,,,,,,space,,,,,,2,0.681,,,,,,,,,,,0,11,11,11,1,,,,,,,,,,,,,,,,,,,,,,,,,,,,,,,
,,,,,,,,,,,,,,,,,,,,,,,19,female,2020-08-30_21h16.11.338,torte-2b,2020.1.3,MacIntel,60,13449,,,,,,,,,,,,,,,,,,,2,,,,,,,,,,,,0,12,12,12,1,,,,,,,,,,,,,,,,,,,,,,,,,,,,,,,
,,,,,,,,,,,,,,,,,,,,,,,19,female,2020-08-30_21h16.11.338,torte-2b,2020.1.3,MacIntel,60,13449,,,,,,,,,,,,,space,,,,,,2,0.714,,,,,,,,,,,0,13,13,13,1,,,,,,,,,,,,,,,,,,,,,,,,,,,,,,,
,,,,,,,,,,,,,,,,,,,,,,,19,female,2020-08-30_21h16.11.338,torte-2b,2020.1.3,MacIntel,60,13449,,,,,,,,,,,,,space,,,,,,2,0.772,,,,,,,,,,,0,14,14,14,1,,,,,,,,,,,,,,,,,,,,,,,,,,,,,,,
,,,,,,,,,,,,,,,,,,,,,,,19,female,2020-08-30_21h16.11.338,torte-2b,2020.1.3,MacIntel,60,13449,,,,,,,,,,,,,,,,,,,4,,,,,,,,,,,,0,15,15,15,1,,,,,,,,,,,,,,,,,,,,,,,,,,,,,,,
,,,,,,,,,,,,,,,,,,,,,,,19,female,2020-08-30_21h16.11.338,torte-2b,2020.1.3,MacIntel,60,13449,,,,,,,,,,,,,space,,,,,,3,0.28,,,,,,,,,,,0,16,16,16,1,,,,,,,,,,,,,,,,,,,,,,,,,,,,,,,
,,,,,,,,,,,,,,,,,,,,,,,19,female,2020-08-30_21h16.11.338,torte-2b,2020.1.3,MacIntel,60,13449,,,,,,,,,,,,,,,,,,,7,,,,,,,,,,,,0,17,17,17,1,,,,,,,,,,,,,,,,,,,,,,,,,,,,,,,
,,,,,,,,,,,,,,,,,,,,,,,19,female,2020-08-30_21h16.11.338,torte-2b,2020.1.3,MacIntel,60,13449,,,,,,,,,,,,,,,,,,,4,,,,,,,,,,,,0,18,18,18,1,,,,,,,,,,,,,,,,,,,,,,,,,,,,,,,
,,,,,,,,,,,,,,,,,,,,,,,19,female,2020-08-30_21h16.11.338,torte-2b,2020.1.3,MacIntel,60,13449,,,,,,,,,,,,,,,,,,,7,,,,,,,,,,,,0,19,19,19,1,,,,,,,,,,,,,,,,,,,,,,,,,,,,,,,
,,,,,,,,,,,,,,,,,,,,,,,19,female,2020-08-30_21h16.11.338,torte-2b,2020.1.3,MacIntel,60,13449,,,,,,,,,,,,,,,,,,,7,,,,,,,,,,,,0,20,20,20,1,,,,,,,,,,,,,,,,,,,,,,,,,,,,,,,
,,,,,,,,,,,,,,,,,,,,,,,19,female,2020-08-30_21h16.11.338,torte-2b,2020.1.3,MacIntel,60,13449,,,,,,,,,,,,,space,,,,,,7,0.398,,,,,,,,,,,0,21,21,21,1,,,,,,,,,,,,,,,,,,,,,,,,,,,,,,,
,,,,,,,,,,,,,,,,,,,,,,,19,female,2020-08-30_21h16.11.338,torte-2b,2020.1.3,MacIntel,60,13449,,,,,,,,,,,,,space,,,,,,7,0.595,,,,,,,,,,,0,22,22,22,1,,,,,,,,,,,,,,,,,,,,,,,,,,,,,,,
,,,,,,,,,,,,,,,,,,,,,,,19,female,2020-08-30_21h16.11.338,torte-2b,2020.1.3,MacIntel,60,13449,,,,,,,,,,,,,,,,,,,1,,,,,,,,,,,,0,23,23,23,1,,,,,,,,,,,,,,,,,,,,,,,,,,,,,,,
,,,,,,,,,,,,,,,,,,,,,,,19,female,2020-08-30_21h16.11.338,torte-2b,2020.1.3,MacIntel,60,13449,,,,,,,,,,,,,space,,,,,,7,0.795,,,,,,,,,,,0,24,24,24,1,,,,,,,,,,,,,,,,,,,,,,,,,,,,,,,
,,,,,,,,,,,,,,,,,,,,,,,19,female,2020-08-30_21h16.11.338,torte-2b,2020.1.3,MacIntel,60,13449,,,,,,,,,,,,,,,,,,,1,,,,,,,,,,,,0,25,25,25,1,,,,,,,,,,,,,,,,,,,,,,,,,,,,,,,
,,,,,,,,,,,,,,,,,,,,,,,19,female,2020-08-30_21h16.11.338,torte-2b,2020.1.3,MacIntel,60,13449,,,,,,,,,,,,,,,,,,,7,,,,,,,,,,,,0,26,26,26,1,,,,,,,,,,,,,,,,,,,,,,,,,,,,,,,
,,,,,,,,,,,,,,,,,,,,,,,19,female,2020-08-30_21h16.11.338,torte-2b,2020.1.3,MacIntel,60,13449,,,,,,,,,,,,,,,,,,,2,,,,,,,,,,,,0,27,27,27,1,,,,,,,,,,,,,,,,,,,,,,,,,,,,,,,
,,,,,,,,,,,,,,,,,,,,,,,19,female,2020-08-30_21h16.11.338,torte-2b,2020.1.3,MacIntel,60,13449,,,,,,,,,,,,,,,,,,,5,,,,,,,,,,,,0,28,28,28,1,,,,,,,,,,,,,,,,,,,,,,,,,,,,,,,
,,,,,,,,,,,,,,,,,,,,,,,19,female,2020-08-30_21h16.11.338,torte-2b,2020.1.3,MacIntel,60,13449,,,,,,,,,,,,,space,,,,,,5,0.579,,,,,,,,,,,0,29,29,29,1,,,,,,,,,,,,,,,,,,,,,,,,,,,,,,,
,,,,,,,,,,,,,,,,,,,,,,,19,female,2020-08-30_21h16.11.338,torte-2b,2020.1.3,MacIntel,60,13449,,,,,,,,,,,,,,,,,,,5,,,,,,,,,,,,0,30,30,30,1,,,,,,,,,,,,,,,,,,,,,,,,,,,,,,,
,,,,,,,,,,,,,,,,,,,,,,,19,female,2020-08-30_21h16.11.338,torte-2b,2020.1.3,MacIntel,60,13449,,,,,,,,,,,,,,,,,,,1,,,,,,,,,,,,0,31,31,31,1,,,,,,,,,,,,,,,,,,,,,,,,,,,,,,,
,,,,,,,,,,,,,,,,,,,,,,,19,female,2020-08-30_21h16.11.338,torte-2b,2020.1.3,MacIntel,60,13449,,,,,,,,,,,,,space,,,,,,5,0.397,,,,,,,,,,,0,32,32,32,1,,,,,,,,,,,,,,,,,,,,,,,,,,,,,,,
,,,,,,,,,,,,,,,,,,,,,,,19,female,2020-08-30_21h16.11.338,torte-2b,2020.1.3,MacIntel,60,13449,,,,,,,,,,,,,,,,,,,3,,,,,,,,,,,,0,33,33,33,1,,,,,,,,,,,,,,,,,,,,,,,,,,,,,,,
,,,,,,,,,,,,,,,,,,,,,,,19,female,2020-08-30_21h16.11.338,torte-2b,2020.1.3,MacIntel,60,13449,,,,,,,,,,,,,,,,,,,3,,,,,,,,,,,,0,34,34,34,1,,,,,,,,,,,,,,,,,,,,,,,,,,,,,,,
,,,,,,,,,,,,l,Incorrect,,,,,,t2.png,t3.png,1,0.90855,19,female,2020-08-30_21h16.11.338,torte-2b,2020.1.3,MacIntel,60,13449,1.167,space,0.565,,,,,,,,,,,,,,,,,,,,,,,,,,,,,,,,,semicolon,0.924,0,0,0,68,1,,,,,,,,,,,,,,,,,,,,,,,,
,,,,,,,,,,,,l,Incorrect,,,,,,t4.png,t4.png,0,0.98115,19,female,2020-08-30_21h16.11.338,torte-2b,2020.1.3,MacIntel,60,13449,0.849,,,,,,,,,,,,,,,,,,,,,,,,,,,,,,,,,,,,,0,1,1,90,1,,,,,,,,,,,,,,,,,,,,,,,,
,,,,,,,,,,,,l,Correct!,,,,,,t2.png,t4.png,2,0.059078,19,female,2020-08-30_21h16.11.338,torte-2b,2020.1.3,MacIntel,60,13449,0.917,,,,,,,,,,,,,,,,,,,,,,,,,,,,,,,,,,,,,0,2,2,77,1,,,,,,,,,,,,,,,,,,,,,,,,
,,,,,,,,,,,,a,Incorrect,,,,,,t5.png,t2.png,3,0.0000131,19,female,2020-08-30_21h16.11.338,torte-2b,2020.1.3,MacIntel,60,13449,0.465,,,,,,,,,,,,,,,,,,,,,,,,,,,,,,,,,,,,,0,3,3,119,1,,,,,,,,,,,,,,,,,,,,,,,,
,,,,,,,,,,,,l,Incorrect,,,,,,t4.png,t4.png,0,0.98115,19,female,2020-08-30_21h16.11.338,torte-2b,2020.1.3,MacIntel,60,13449,1.009,,,,,,,,,,,,,,,,,,,,,,,,,,,,,,,,,,,,,0,4,4,80,1,,,,,,,,,,,,,,,,,,,,,,,,
,,,,,,,,,,,,l,Incorrect,,,,,,t2.png,t3.png,1,0.90855,19,female,2020-08-30_21h16.11.338,torte-2b,2020.1.3,MacIntel,60,13449,0.865,,,,,,,,,,,,,,,,,,,,,,,,,,,,,,,,,,,,,0,5,5,10,1,,,,,,,,,,,,,,,,,,,,,,,,
,,,,,,,,,,,,l,Correct!,,,,,,t1.png,t5.png,4,9.55E-11,19,female,2020-08-30_21h16.11.338,torte-2b,2020.1.3,MacIntel,60,13449,0.655,,,,,,,,,,,,,,,,,,,,,,,,,,,,,,,,,,,,,0,6,6,55,1,,,,,,,,,,,,,,,,,,,,,,,,
,,,,,,,,,,,,a,Incorrect,,,,,,t5.png,t1.png,4,9.55E-11,19,female,2020-08-30_21h16.11.338,torte-2b,2020.1.3,MacIntel,60,13449,0.532,,,,,,,,,,,,,,,,,,,,,,,,,,,,,,,,,,,,,0,7,7,71,1,,,,,,,,,,,,,,,,,,,,,,,,
,,,,,,,,,,,,l,Incorrect,,,,,,t2.png,t2.png,0,0.98115,19,female,2020-08-30_21h16.11.338,torte-2b,2020.1.3,MacIntel,60,13449,0.615,,,,,,,,,,,,,,,,,,,,,,,,,,,,,,,,,,,,,0,8,8,59,1,,,,,,,,,,,,,,,,,,,,,,,,
,,,,,,,,,,,,l,Correct!,,,,,,t1.png,t3.png,2,0.056466,19,female,2020-08-30_21h16.11.338,torte-2b,2020.1.3,MacIntel,60,13449,0.791,,,,,,,,,,,,,,,,,,,,,,,,,,,,,,,,,,,,,0,9,9,99,1,,,,,,,,,,,,,,,,,,,,,,,,
,,,,,,,,,,,,l,Correct!,,,,,,t3.png,t5.png,2,0.056466,19,female,2020-08-30_21h16.11.338,torte-2b,2020.1.3,MacIntel,60,13449,0.467,,,,,,,,,,,,,,,,,,,,,,,,,,,,,,,,,,,,,0,10,10,44,1,,,,,,,,,,,,,,,,,,,,,,,,
,,,,,,,,,,,,l,Correct!,,,,,,t1.png,t4.png,3,0.0000131,19,female,2020-08-30_21h16.11.338,torte-2b,2020.1.3,MacIntel,60,13449,0.482,,,,,,,,,,,,,,,,,,,,,,,,,,,,,,,,,,,,,0,11,11,50,1,,,,,,,,,,,,,,,,,,,,,,,,
,,,,,,,,,,,,l,Incorrect,,,,,,t4.png,t5.png,1,0.90025,19,female,2020-08-30_21h16.11.338,torte-2b,2020.1.3,MacIntel,60,13449,0.708,,,,,,,,,,,,,,,,,,,,,,,,,,,,,,,,,,,,,0,12,12,47,1,,,,,,,,,,,,,,,,,,,,,,,,
,,,,,,,,,,,,a,Correct!,,,,,,t3.png,t2.png,1,0.909,19,female,2020-08-30_21h16.11.338,torte-2b,2020.1.3,MacIntel,60,13449,0.541,,,,,,,,,,,,,,,,,,,,,,,,,,,,,,,,,,,,,0,13,13,3,1,,,,,,,,,,,,,,,,,,,,,,,,
,,,,,,,,,,,,l,Correct!,,,,,,t2.png,t5.png,3,0.0000131,19,female,2020-08-30_21h16.11.338,torte-2b,2020.1.3,MacIntel,60,13449,0.572,,,,,,,,,,,,,,,,,,,,,,,,,,,,,,,,,,,,,0,14,14,66,1,,,,,,,,,,,,,,,,,,,,,,,,
,,,,,,,,,,,,l,Correct!,,,,,,t2.png,t5.png,3,0.0000131,19,female,2020-08-30_21h16.11.338,torte-2b,2020.1.3,MacIntel,60,13449,0.457,,,,,,,,,,,,,,,,,,,,,,,,,,,,,,,,,,,,,0,15,15,104,1,,,,,,,,,,,,,,,,,,,,,,,,
,,,,,,,,,,,,a,Correct!,,,,,,t1.png,t1.png,0,0.97829,19,female,2020-08-30_21h16.11.338,torte-2b,2020.1.3,MacIntel,60,13449,0.633,,,,,,,,,,,,,,,,,,,,,,,,,,,,,,,,,,,,,0,16,16,67,1,,,,,,,,,,,,,,,,,,,,,,,,
,,,,,,,,,,,,a,Correct!,,,,,,t4.png,t3.png,1,0.90855,19,female,2020-08-30_21h16.11.338,torte-2b,2020.1.3,MacIntel,60,13449,0.598,,,,,,,,,,,,,,,,,,,,,,,,,,,,,,,,,,,,,0,17,17,75,1,,,,,,,,,,,,,,,,,,,,,,,,
,,,,,,,,,,,,l,Incorrect,,,,,,t2.png,t3.png,1,0.909,19,female,2020-08-30_21h16.11.338,torte-2b,2020.1.3,MacIntel,60,13449,0.631,,,,,,,,,,,,,,,,,,,,,,,,,,,,,,,,,,,,,0,18,18,74,1,,,,,,,,,,,,,,,,,,,,,,,,
,,,,,,,,,,,,l,Incorrect,,,,,,t1.png,t2.png,1,0.90025,19,female,2020-08-30_21h16.11.338,torte-2b,2020.1.3,MacIntel,60,13449,0.75,,,,,,,,,,,,,,,,,,,,,,,,,,,,,,,,,,,,,0,19,19,105,1,,,,,,,,,,,,,,,,,,,,,,,,
,,,,,,,,,,,,l,Correct!,,,,,,t1.png,t2.png,1,0.90025,19,female,2020-08-30_21h16.11.338,torte-2b,2020.1.3,MacIntel,60,13449,0.781,,,,,,,,,,,,,,,,,,,,,,,,,,,,,,,,,,,,,0,20,20,33,1,,,,,,,,,,,,,,,,,,,,,,,,
,,,,,,,,,,,,l,Correct!,,,,,,t1.png,t5.png,4,9.55E-11,19,female,2020-08-30_21h16.11.338,torte-2b,2020.1.3,MacIntel,60,13449,0.882,,,,,,,,,,,,,,,,,,,,,,,,,,,,,,,,,,,,,0,21,21,85,1,,,,,,,,,,,,,,,,,,,,,,,,
,,,,,,,,,,,,l,Incorrect,,,,,,t5.png,t5.png,0,0.97829,19,female,2020-08-30_21h16.11.338,torte-2b,2020.1.3,MacIntel,60,13449,0.591,,,,,,,,,,,,,,,,,,,,,,,,,,,,,,,,,,,,,0,22,22,70,1,,,,,,,,,,,,,,,,,,,,,,,,
,,,,,,,,,,,,a,Incorrect,,,,,,t3.png,t1.png,2,0.056466,19,female,2020-08-30_21h16.11.338,torte-2b,2020.1.3,MacIntel,60,13449,0.555,,,,,,,,,,,,,,,,,,,,,,,,,,,,,,,,,,,,,0,23,23,29,1,,,,,,,,,,,,,,,,,,,,,,,,
,,,,,,,,,,,,l,Correct!,,,,,,t1.png,t5.png,4,9.55E-11,19,female,2020-08-30_21h16.11.338,torte-2b,2020.1.3,MacIntel,60,13449,0.468,,,,,,,,,,,,,,,,,,,,,,,,,,,,,,,,,,,,,0,24,24,16,1,,,,,,,,,,,,,,,,,,,,,,,,
,,,,,,,,,,,,l,Incorrect,,,,,,t4.png,t4.png,0,0.98115,19,female,2020-08-30_21h16.11.338,torte-2b,2020.1.3,MacIntel,60,13449,0.933,,,,,,,,,,,,,,,,,,,,,,,,,,,,,,,,,,,,,0,25,25,52,1,,,,,,,,,,,,,,,,,,,,,,,,
,,,,,,,,,,,,a,Correct!,,,,,,t2.png,t2.png,0,0.981,19,female,2020-08-30_21h16.11.338,torte-2b,2020.1.3,MacIntel,60,13449,0.817,,,,,,,,,,,,,,,,,,,,,,,,,,,,,,,,,,,,,0,26,26,101,1,,,,,,,,,,,,,,,,,,,,,,,,
,,,,,,,,,,,,a,Correct!,,,,,,t2.png,t1.png,1,0.90025,19,female,2020-08-30_21h16.11.338,torte-2b,2020.1.3,MacIntel,60,13449,0.839,,,,,,,,,,,,,,,,,,,,,,,,,,,,,,,,,,,,,0,27,27,62,1,,,,,,,,,,,,,,,,,,,,,,,,
,,,,,,,,,,,,l,Correct!,,,,,,t1.png,t4.png,3,0.0000131,19,female,2020-08-30_21h16.11.338,torte-2b,2020.1.3,MacIntel,60,13449,0.706,,,,,,,,,,,,,,,,,,,,,,,,,,,,,,,,,,,,,0,28,28,107,1,,,,,,,,,,,,,,,,,,,,,,,,
,,,,,,,,,,,,a,Incorrect,,,,,,t5.png,t4.png,1,0.90025,19,female,2020-08-30_21h16.11.338,torte-2b,2020.1.3,MacIntel,60,13449,1.034,,,,,,,,,,,,,,,,,,,,,,,,,,,,,,,,,,,,,0,29,29,27,1,,,,,,,,,,,,,,,,,,,,,,,,
,,,,,,,,,,,,a,Correct!,,,,,,t2.png,t1.png,1,0.90025,19,female,2020-08-30_21h16.11.338,torte-2b,2020.1.3,MacIntel,60,13449,0.525,,,,,,,,,,,,,,,,,,,,,,,,,,,,,,,,,,,,,0,30,30,4,1,,,,,,,,,,,,,,,,,,,,,,,,
,,,,,,,,,,,,a,Incorrect,,,,,,t5.png,t2.png,3,0.0000131,19,female,2020-08-30_21h16.11.338,torte-2b,2020.1.3,MacIntel,60,13449,0.498,,,,,,,,,,,,,,,,,,,,,,,,,,,,,,,,,,,,,0,31,31,98,1,,,,,,,,,,,,,,,,,,,,,,,,
,,,,,,,,,,,,l,Incorrect,,,,,,t5.png,t5.png,0,0.97829,19,female,2020-08-30_21h16.11.338,torte-2b,2020.1.3,MacIntel,60,13449,0.826,,,,,,,,,,,,,,,,,,,,,,,,,,,,,,,,,,,,,0,32,32,25,1,,,,,,,,,,,,,,,,,,,,,,,,
,,,,,,,,,,,,l,Incorrect,,,,,,t3.png,t4.png,1,0.909,19,female,2020-08-30_21h16.11.338,torte-2b,2020.1.3,MacIntel,60,13449,0.931,,,,,,,,,,,,,,,,,,,,,,,,,,,,,,,,,,,,,0,33,33,89,1,,,,,,,,,,,,,,,,,,,,,,,,
,,,,,,,,,,,,l,Correct!,,,,,,t3.png,t5.png,2,0.0565,19,female,2020-08-30_21h16.11.338,torte-2b,2020.1.3,MacIntel,60,13449,0.84,,,,,,,,,,,,,,,,,,,,,,,,,,,,,,,,,,,,,0,34,34,83,1,,,,,,,,,,,,,,,,,,,,,,,,
,,,,,,,,,,,,a,Correct!,,,,,,t1.png,t1.png,0,0.97829,19,female,2020-08-30_21h16.11.338,torte-2b,2020.1.3,MacIntel,60,13449,0.806,,,,,,,,,,,,,,,,,,,,,,,,,,,,,,,,,,,,,0,35,35,78,1,,,,,,,,,,,,,,,,,,,,,,,,
,,,,,,,,,,,,a,Incorrect,,,,,,t5.png,t2.png,3,0.0000131,19,female,2020-08-30_21h16.11.338,torte-2b,2020.1.3,MacIntel,60,13449,0.69,,,,,,,,,,,,,,,,,,,,,,,,,,,,,,,,,,,,,0,36,36,116,1,,,,,,,,,,,,,,,,,,,,,,,,
,,,,,,,,,,,,l,Incorrect,,,,,,t4.png,t5.png,1,0.90025,19,female,2020-08-30_21h16.11.338,torte-2b,2020.1.3,MacIntel,60,13449,0.955,,,,,,,,,,,,,,,,,,,,,,,,,,,,,,,,,,,,,0,37,37,58,1,,,,,,,,,,,,,,,,,,,,,,,,
,,,,,,,,,,,,a,Correct!,,,,,,t2.png,t2.png,0,0.98115,19,female,2020-08-30_21h16.11.338,torte-2b,2020.1.3,MacIntel,60,13449,0.923,,,,,,,,,,,,,,,,,,,,,,,,,,,,,,,,,,,,,0,38,38,7,1,,,,,,,,,,,,,,,,,,,,,,,,
,,,,,,,,,,,,a,Incorrect,,,,,,t5.png,t4.png,1,0.90025,19,female,2020-08-30_21h16.11.338,torte-2b,2020.1.3,MacIntel,60,13449,0.9,,,,,,,,,,,,,,,,,,,,,,,,,,,,,,,,,,,,,0,39,39,34,1,,,,,,,,,,,,,,,,,,,,,,,,
,,,,,,,,,,,,a,Incorrect,,,,,,t5.png,t3.png,2,0.0565,19,female,2020-08-30_21h16.11.338,torte-2b,2020.1.3,MacIntel,60,13449,0.699,,,,,,,,,,,,,,,,,,,,,,,,,,,,,,,,,,,,,0,40,40,39,1,,,,,,,,,,,,,,,,,,,,,,,,
,,,,,,,,,,,,a,Incorrect,,,,,,t4.png,t2.png,2,0.059078,19,female,2020-08-30_21h16.11.338,torte-2b,2020.1.3,MacIntel,60,13449,0.487,,,,,,,,,,,,,,,,,,,,,,,,,,,,,,,,,,,,,0,41,41,109,1,,,,,,,,,,,,,,,,,,,,,,,,
,,,,,,,,,,,,l,Correct!,,,,,,t2.png,t4.png,2,0.059078,19,female,2020-08-30_21h16.11.338,torte-2b,2020.1.3,MacIntel,60,13449,0.658,,,,,,,,,,,,,,,,,,,,,,,,,,,,,,,,,,,,,0,42,42,24,1,,,,,,,,,,,,,,,,,,,,,,,,
,,,,,,,,,,,,a,Incorrect,,,,,,t5.png,t3.png,2,0.056466,19,female,2020-08-30_21h16.11.338,torte-2b,2020.1.3,MacIntel,60,13449,0.566,,,,,,,,,,,,,,,,,,,,,,,,,,,,,,,,,,,,,0,43,43,114,1,,,,,,,,,,,,,,,,,,,,,,,,
,,,,,,,,,,,,l,Incorrect,,,,,,t2.png,t3.png,1,0.90855,19,female,2020-08-30_21h16.11.338,torte-2b,2020.1.3,MacIntel,60,13449,0.468,,,,,,,,,,,,,,,,,,,,,,,,,,,,,,,,,,,,,0,44,44,111,1,,,,,,,,,,,,,,,,,,,,,,,,
,,,,,,,,,,,,l,Incorrect,,,,,,t2.png,t3.png,1,0.90855,19,female,2020-08-30_21h16.11.338,torte-2b,2020.1.3,MacIntel,60,13449,0.442,,,,,,,,,,,,,,,,,,,,,,,,,,,,,,,,,,,,,0,45,45,65,1,,,,,,,,,,,,,,,,,,,,,,,,
,,,,,,,,,,,,l,Correct!,,,,,,t1.png,t5.png,4,9.55E-11,19,female,2020-08-30_21h16.11.338,torte-2b,2020.1.3,MacIntel,60,13449,0.433,,,,,,,,,,,,,,,,,,,,,,,,,,,,,,,,,,,,,0,46,46,12,1,,,,,,,,,,,,,,,,,,,,,,,,
,,,,,,,,,,,,a,Incorrect,,,,,,t4.png,t2.png,2,0.059078,19,female,2020-08-30_21h16.11.338,torte-2b,2020.1.3,MacIntel,60,13449,0.732,,,,,,,,,,,,,,,,,,,,,,,,,,,,,,,,,,,,,0,47,47,110,1,,,,,,,,,,,,,,,,,,,,,,,,
,,,,,,,,,,,,a,Correct!,,,,,,t3.png,t2.png,1,0.90855,19,female,2020-08-30_21h16.11.338,torte-2b,2020.1.3,MacIntel,60,13449,1.048,,,,,,,,,,,,,,,,,,,,,,,,,,,,,,,,,,,,,0,48,48,53,1,,,,,,,,,,,,,,,,,,,,,,,,
,,,,,,,,,,,,a,Incorrect,,,,,,t4.png,t3.png,1,0.90855,19,female,2020-08-30_21h16.11.338,torte-2b,2020.1.3,MacIntel,60,13449,0.783,,,,,,,,,,,,,,,,,,,,,,,,,,,,,,,,,,,,,0,49,49,35,1,,,,,,,,,,,,,,,,,,,,,,,,
,,,,,,,,,,,,a,Incorrect,,,,,,t3.png,t2.png,1,0.909,19,female,2020-08-30_21h16.11.338,torte-2b,2020.1.3,MacIntel,60,13449,1.208,,,,,,,,,,,,,,,,,,,,,,,,,,,,,,,,,,,,,0,50,50,23,1,,,,,,,,,,,,,,,,,,,,,,,,
,,,,,,,,,,,,a,Correct!,,,,,,t2.png,t1.png,1,0.90025,19,female,2020-08-30_21h16.11.338,torte-2b,2020.1.3,MacIntel,60,13449,0.799,,,,,,,,,,,,,,,,,,,,,,,,,,,,,,,,,,,,,0,51,51,5,1,,,,,,,,,,,,,,,,,,,,,,,,
,,,,,,,,,,,,l,Correct!,,,,,,t1.png,t4.png,3,0.0000131,19,female,2020-08-30_21h16.11.338,torte-2b,2020.1.3,MacIntel,60,13449,1.368,,,,,,,,,,,,,,,,,,,,,,,,,,,,,,,,,,,,,0,52,52,92,1,,,,,,,,,,,,,,,,,,,,,,,,
,,,,,,,,,,,,l,Correct!,,,,,,t1.png,t3.png,2,0.056466,19,female,2020-08-30_21h16.11.338,torte-2b,2020.1.3,MacIntel,60,13449,0.656,,,,,,,,,,,,,,,,,,,,,,,,,,,,,,,,,,,,,0,53,53,87,1,,,,,,,,,,,,,,,,,,,,,,,,
,,,,,,,,,,,,a,Correct!,,,,,,t5.png,t5.png,0,0.978,19,female,2020-08-30_21h16.11.338,torte-2b,2020.1.3,MacIntel,60,13449,0.9,,,,,,,,,,,,,,,,,,,,,,,,,,,,,,,,,,,,,0,54,54,117,1,,,,,,,,,,,,,,,,,,,,,,,,
,,,,,,,,,,,,l,Incorrect,,,,,,t3.png,t4.png,1,0.909,19,female,2020-08-30_21h16.11.338,torte-2b,2020.1.3,MacIntel,60,13449,0.653,,,,,,,,,,,,,,,,,,,,,,,,,,,,,,,,,,,,,0,55,55,106,1,,,,,,,,,,,,,,,,,,,,,,,,
,,,,,,,,,,,,l,Incorrect,,,,,,t5.png,t4.png,1,0.90025,19,female,2020-08-30_21h16.11.338,torte-2b,2020.1.3,MacIntel,60,13449,1.122,,,,,,,,,,,,,,,,,,,,,,,,,,,,,,,,,,,,,0,56,56,26,1,,,,,,,,,,,,,,,,,,,,,,,,
,,,,,,,,,,,,a,Correct!,,,,,,t5.png,t4.png,1,0.9,19,female,2020-08-30_21h16.11.338,torte-2b,2020.1.3,MacIntel,60,13449,0.84,,,,,,,,,,,,,,,,,,,,,,,,,,,,,,,,,,,,,0,57,57,76,1,,,,,,,,,,,,,,,,,,,,,,,,
,,,,,,,,,,,,a,Incorrect,,,,,,t5.png,t2.png,3,0.0000131,19,female,2020-08-30_21h16.11.338,torte-2b,2020.1.3,MacIntel,60,13449,0.554,,,,,,,,,,,,,,,,,,,,,,,,,,,,,,,,,,,,,0,58,58,51,1,,,,,,,,,,,,,,,,,,,,,,,,
,,,,,,,,,,,,a,Correct!,,,,,,t2.png,t1.png,1,0.9,19,female,2020-08-30_21h16.11.338,torte-2b,2020.1.3,MacIntel,60,13449,0.617,,,,,,,,,,,,,,,,,,,,,,,,,,,,,,,,,,,,,0,59,59,118,1,,,,,,,,,,,,,,,,,,,,,,,,
,,,,,,,,,,,,l,Incorrect,,,,,,t4.png,t5.png,1,0.9,19,female,2020-08-30_21h16.11.338,torte-2b,2020.1.3,MacIntel,60,13449,1.04,,,,,,,,,,,,,,,,,,,,,,,,,,,,,,,,,,,,,0,60,60,115,1,,,,,,,,,,,,,,,,,,,,,,,,
,,,,,,,,,,,,a,Incorrect,,,,,,t4.png,t1.png,3,0.0000131,19,female,2020-08-30_21h16.11.338,torte-2b,2020.1.3,MacIntel,60,13449,0.949,,,,,,,,,,,,,,,,,,,,,,,,,,,,,,,,,,,,,0,61,61,93,1,,,,,,,,,,,,,,,,,,,,,,,,
,,,,,,,,,,,,l,Correct!,,,,,,t2.png,t4.png,2,0.059078,19,female,2020-08-30_21h16.11.338,torte-2b,2020.1.3,MacIntel,60,13449,0.566,,,,,,,,,,,,,,,,,,,,,,,,,,,,,,,,,,,,,0,62,62,37,1,,,,,,,,,,,,,,,,,,,,,,,,
,,,,,,,,,,,,l,Correct!,,,,,,t1.png,t3.png,2,0.056466,19,female,2020-08-30_21h16.11.338,torte-2b,2020.1.3,MacIntel,60,13449,0.982,,,,,,,,,,,,,,,,,,,,,,,,,,,,,,,,,,,,,0,63,63,63,1,,,,,,,,,,,,,,,,,,,,,,,,
,,,,,,,,,,,,a,Incorrect,,,,,,t5.png,t1.png,4,9.55E-11,19,female,2020-08-30_21h16.11.338,torte-2b,2020.1.3,MacIntel,60,13449,0.842,,,,,,,,,,,,,,,,,,,,,,,,,,,,,,,,,,,,,0,64,64,100,1,,,,,,,,,,,,,,,,,,,,,,,,
,,,,,,,,,,,,l,Correct!,,,,,,t1.png,t3.png,2,0.056466,19,female,2020-08-30_21h16.11.338,torte-2b,2020.1.3,MacIntel,60,13449,0.95,,,,,,,,,,,,,,,,,,,,,,,,,,,,,,,,,,,,,0,65,65,69,1,,,,,,,,,,,,,,,,,,,,,,,,
,,,,,,,,,,,,l,Correct!,,,,,,t3.png,t5.png,2,0.056466,19,female,2020-08-30_21h16.11.338,torte-2b,2020.1.3,MacIntel,60,13449,0.436,,,,,,,,,,,,,,,,,,,,,,,,,,,,,,,,,,,,,0,66,66,14,1,,,,,,,,,,,,,,,,,,,,,,,,
,,,,,,,,,,,,l,Incorrect,,,,,,t3.png,t4.png,1,0.909,19,female,2020-08-30_21h16.11.338,torte-2b,2020.1.3,MacIntel,60,13449,0.72,,,,,,,,,,,,,,,,,,,,,,,,,,,,,,,,,,,,,0,67,67,82,1,,,,,,,,,,,,,,,,,,,,,,,,
,,,,,,,,,,,,a,Correct!,,,,,,t2.png,t2.png,0,0.98115,19,female,2020-08-30_21h16.11.338,torte-2b,2020.1.3,MacIntel,60,13449,1.274,,,,,,,,,,,,,,,,,,,,,,,,,,,,,,,,,,,,,0,68,68,2,1,,,,,,,,,,,,,,,,,,,,,,,,
,,,,,,,,,,,,l,Incorrect,,,,,,t3.png,t5.png,2,0.0565,19,female,2020-08-30_21h16.11.338,torte-2b,2020.1.3,MacIntel,60,13449,0.751,,,,,,,,,,,,,,,,,,,,,,,,,,,,,,,,,,,,,0,69,69,30,1,,,,,,,,,,,,,,,,,,,,,,,,
,,,,,,,,,,,,a,Incorrect,,,,,,t3.png,t1.png,2,0.056466,19,female,2020-08-30_21h16.11.338,torte-2b,2020.1.3,MacIntel,60,13449,0.748,,,,,,,,,,,,,,,,,,,,,,,,,,,,,,,,,,,,,0,70,70,0,1,,,,,,,,,,,,,,,,,,,,,,,,
,,,,,,,,,,,,a,Incorrect,,,,,,t5.png,t3.png,2,0.056466,19,female,2020-08-30_21h16.11.338,torte-2b,2020.1.3,MacIntel,60,13449,0.633,,,,,,,,,,,,,,,,,,,,,,,,,,,,,,,,,,,,,0,71,71,38,1,,,,,,,,,,,,,,,,,,,,,,,,
,,,,,,,,,,,,a,Incorrect,,,,,,t4.png,t2.png,2,0.059078,19,female,2020-08-30_21h16.11.338,torte-2b,2020.1.3,MacIntel,60,13449,0.575,,,,,,,,,,,,,,,,,,,,,,,,,,,,,,,,,,,,,0,72,72,88,1,,,,,,,,,,,,,,,,,,,,,,,,
,,,,,,,,,,,,l,Correct!,,,,,,t4.png,t5.png,1,0.90025,19,female,2020-08-30_21h16.11.338,torte-2b,2020.1.3,MacIntel,60,13449,1.19,,,,,,,,,,,,,,,,,,,,,,,,,,,,,,,,,,,,,0,73,73,113,1,,,,,,,,,,,,,,,,,,,,,,,,
,,,,,,,,,,,,a,Correct!,,,,,,t5.png,t4.png,1,0.9,19,female,2020-08-30_21h16.11.338,torte-2b,2020.1.3,MacIntel,60,13449,1.266,,,,,,,,,,,,,,,,,,,,,,,,,,,,,,,,,,,,,0,74,74,49,1,,,,,,,,,,,,,,,,,,,,,,,,
,,,,,,,,,,,,a,Incorrect,,,,,,t5.png,t1.png,4,9.55E-11,19,female,2020-08-30_21h16.11.338,torte-2b,2020.1.3,MacIntel,60,13449,0.605,,,,,,,,,,,,,,,,,,,,,,,,,,,,,,,,,,,,,0,75,75,43,1,,,,,,,,,,,,,,,,,,,,,,,,
,,,,,,,,,,,,l,Correct!,,,,,,t1.png,t5.png,4,9.55E-11,19,female,2020-08-30_21h16.11.338,torte-2b,2020.1.3,MacIntel,60,13449,0.865,,,,,,,,,,,,,,,,,,,,,,,,,,,,,,,,,,,,,0,76,76,41,1,,,,,,,,,,,,,,,,,,,,,,,,
,,,,,,,,,,,,l,Incorrect,,,,,,t3.png,t4.png,1,0.90855,19,female,2020-08-30_21h16.11.338,torte-2b,2020.1.3,MacIntel,60,13449,1.056,,,,,,,,,,,,,,,,,,,,,,,,,,,,,,,,,,,,,0,77,77,84,1,,,,,,,,,,,,,,,,,,,,,,,,
,,,,,,,,,,,,l,Correct!,,,,,,t2.png,t5.png,3,0.0000131,19,female,2020-08-30_21h16.11.338,torte-2b,2020.1.3,MacIntel,60,13449,0.75,,,,,,,,,,,,,,,,,,,,,,,,,,,,,,,,,,,,,0,78,78,8,1,,,,,,,,,,,,,,,,,,,,,,,,
,,,,,,,,,,,,a,Correct!,,,,,,t4.png,t3.png,1,0.909,19,female,2020-08-30_21h16.11.338,torte-2b,2020.1.3,MacIntel,60,13449,1.139,,,,,,,,,,,,,,,,,,,,,,,,,,,,,,,,,,,,,0,79,79,20,1,,,,,,,,,,,,,,,,,,,,,,,,
,,,,,,,,,,,,a,Incorrect,,,,,,t4.png,t1.png,3,0.0000131,19,female,2020-08-30_21h16.11.338,torte-2b,2020.1.3,MacIntel,60,13449,1.208,,,,,,,,,,,,,,,,,,,,,,,,,,,,,,,,,,,,,0,80,80,61,1,,,,,,,,,,,,,,,,,,,,,,,,
,,,,,,,,,,,,a,Incorrect,,,,,,t5.png,t3.png,2,0.056466,19,female,2020-08-30_21h16.11.338,torte-2b,2020.1.3,MacIntel,60,13449,0.608,,,,,,,,,,,,,,,,,,,,,,,,,,,,,,,,,,,,,0,81,81,56,1,,,,,,,,,,,,,,,,,,,,,,,,
,,,,,,,,,,,,a,Incorrect,,,,,,t3.png,t1.png,2,0.056466,19,female,2020-08-30_21h16.11.338,torte-2b,2020.1.3,MacIntel,60,13449,0.869,,,,,,,,,,,,,,,,,,,,,,,,,,,,,,,,,,,,,0,82,82,32,1,,,,,,,,,,,,,,,,,,,,,,,,
,,,,,,,,,,,,l,Incorrect,,,,,,t4.png,t4.png,0,0.98115,19,female,2020-08-30_21h16.11.338,torte-2b,2020.1.3,MacIntel,60,13449,1.306,,,,,,,,,,,,,,,,,,,,,,,,,,,,,,,,,,,,,0,83,83,21,1,,,,,,,,,,,,,,,,,,,,,,,,
,,,,,,,,,,,,l,Incorrect,,,,,,t3.png,t4.png,1,0.90855,19,female,2020-08-30_21h16.11.338,torte-2b,2020.1.3,MacIntel,60,13449,0.866,,,,,,,,,,,,,,,,,,,,,,,,,,,,,,,,,,,,,0,84,84,96,1,,,,,,,,,,,,,,,,,,,,,,,,
,,,,,,,,,,,,a,Correct!,,,,,,t2.png,t1.png,1,0.90025,19,female,2020-08-30_21h16.11.338,torte-2b,2020.1.3,MacIntel,60,13449,0.486,,,,,,,,,,,,,,,,,,,,,,,,,,,,,,,,,,,,,0,85,85,19,1,,,,,,,,,,,,,,,,,,,,,,,,
,,,,,,,,,,,,a,Incorrect,,,,,,t5.png,t1.png,4,9.55E-11,19,female,2020-08-30_21h16.11.338,torte-2b,2020.1.3,MacIntel,60,13449,0.576,,,,,,,,,,,,,,,,,,,,,,,,,,,,,,,,,,,,,0,86,86,102,1,,,,,,,,,,,,,,,,,,,,,,,,
,,,,,,,,,,,,a,Incorrect,,,,,,t3.png,t2.png,1,0.90855,19,female,2020-08-30_21h16.11.338,torte-2b,2020.1.3,MacIntel,60,13449,0.49,,,,,,,,,,,,,,,,,,,,,,,,,,,,,,,,,,,,,0,87,87,97,1,,,,,,,,,,,,,,,,,,,,,,,,
,,,,,,,,,,,,l,Incorrect,,,,,,t5.png,t5.png,0,0.97829,19,female,2020-08-30_21h16.11.338,torte-2b,2020.1.3,MacIntel,60,13449,0.967,,,,,,,,,,,,,,,,,,,,,,,,,,,,,,,,,,,,,0,88,88,94,1,,,,,,,,,,,,,,,,,,,,,,,,
,,,,,,,,,,,,a,Correct!,,,,,,t5.png,t5.png,0,0.97829,19,female,2020-08-30_21h16.11.338,torte-2b,2020.1.3,MacIntel,60,13449,0.624,,,,,,,,,,,,,,,,,,,,,,,,,,,,,,,,,,,,,0,89,89,73,1,,,,,,,,,,,,,,,,,,,,,,,,
,,,,,,,,,,,,a,Correct!,,,,,,t1.png,t2.png,1,0.90025,19,female,2020-08-30_21h16.11.338,torte-2b,2020.1.3,MacIntel,60,13449,0.585,,,,,,,,,,,,,,,,,,,,,,,,,,,,,,,,,,,,,0,90,90,112,1,,,,,,,,,,,,,,,,,,,,,,,,
,,,,,,,,,,,,a,Incorrect,,,,,,t4.png,t2.png,2,0.0591,19,female,2020-08-30_21h16.11.338,torte-2b,2020.1.3,MacIntel,60,13449,0.565,,,,,,,,,,,,,,,,,,,,,,,,,,,,,,,,,,,,,0,91,91,36,1,,,,,,,,,,,,,,,,,,,,,,,,
,,,,,,,,,,,,a,Correct!,,,,,,t1.png,t1.png,0,0.97829,19,female,2020-08-30_21h16.11.338,torte-2b,2020.1.3,MacIntel,60,13449,0.925,,,,,,,,,,,,,,,,,,,,,,,,,,,,,,,,,,,,,0,92,92,9,1,,,,,,,,,,,,,,,,,,,,,,,,
,,,,,,,,,,,,a,Correct!,,,,,,t4.png,t4.png,0,0.98115,19,female,2020-08-30_21h16.11.338,torte-2b,2020.1.3,MacIntel,60,13449,0.549,,,,,,,,,,,,,,,,,,,,,,,,,,,,,,,,,,,,,0,93,93,79,1,,,,,,,,,,,,,,,,,,,,,,,,
,,,,,,,,,,,,a,Incorrect,,,,,,t3.png,t1.png,2,0.0565,19,female,2020-08-30_21h16.11.338,torte-2b,2020.1.3,MacIntel,60,13449,0.566,,,,,,,,,,,,,,,,,,,,,,,,,,,,,,,,,,,,,0,94,94,31,1,,,,,,,,,,,,,,,,,,,,,,,,
,,,,,,,,,,,,l,Incorrect,,,,,,t1.png,t1.png,0,0.978,19,female,2020-08-30_21h16.11.338,torte-2b,2020.1.3,MacIntel,60,13449,1.074,,,,,,,,,,,,,,,,,,,,,,,,,,,,,,,,,,,,,0,95,95,28,1,,,,,,,,,,,,,,,,,,,,,,,,
,,,,,,,,,,,,a,Incorrect,,,,,,t5.png,t2.png,3,0.0000131,19,female,2020-08-30_21h16.11.338,torte-2b,2020.1.3,MacIntel,60,13449,0.488,,,,,,,,,,,,,,,,,,,,,,,,,,,,,,,,,,,,,0,96,96,91,1,,,,,,,,,,,,,,,,,,,,,,,,
,,,,,,,,,,,,a,Incorrect,,,,,,t4.png,t1.png,3,0.0000131,19,female,2020-08-30_21h16.11.338,torte-2b,2020.1.3,MacIntel,60,13449,0.624,,,,,,,,,,,,,,,,,,,,,,,,,,,,,,,,,,,,,0,97,97,13,1,,,,,,,,,,,,,,,,,,,,,,,,
,,,,,,,,,,,,l,Correct!,,,,,,t2.png,t5.png,3,0.0000131,19,female,2020-08-30_21h16.11.338,torte-2b,2020.1.3,MacIntel,60,13449,0.615,,,,,,,,,,,,,,,,,,,,,,,,,,,,,,,,,,,,,0,98,98,40,1,,,,,,,,,,,,,,,,,,,,,,,,
,,,,,,,,,,,,a,Incorrect,,,,,,t4.png,t3.png,1,0.909,19,female,2020-08-30_21h16.11.338,torte-2b,2020.1.3,MacIntel,60,13449,0.489,,,,,,,,,,,,,,,,,,,,,,,,,,,,,,,,,,,,,0,99,99,46,1,,,,,,,,,,,,,,,,,,,,,,,,
,,,,,,,,,,,,a,Incorrect,,,,,,t5.png,t3.png,2,0.056466,19,female,2020-08-30_21h16.11.338,torte-2b,2020.1.3,MacIntel,60,13449,0.807,,,,,,,,,,,,,,,,,,,,,,,,,,,,,,,,,,,,,0,100,100,108,1,,,,,,,,,,,,,,,,,,,,,,,,
,,,,,,,,,,,,l,Incorrect,,,,,,t1.png,t2.png,1,0.9,19,female,2020-08-30_21h16.11.338,torte-2b,2020.1.3,MacIntel,60,13449,0.847,,,,,,,,,,,,,,,,,,,,,,,,,,,,,,,,,,,,,0,101,101,1,1,,,,,,,,,,,,,,,,,,,,,,,,
,,,,,,,,,,,,a,Correct!,,,,,,t4.png,t3.png,1,0.90855,19,female,2020-08-30_21h16.11.338,torte-2b,2020.1.3,MacIntel,60,13449,0.508,,,,,,,,,,,,,,,,,,,,,,,,,,,,,,,,,,,,,0,102,102,45,1,,,,,,,,,,,,,,,,,,,,,,,,
,,,,,,,,,,,,l,Correct!,,,,,,t2.png,t4.png,2,0.0591,19,female,2020-08-30_21h16.11.338,torte-2b,2020.1.3,MacIntel,60,13449,0.432,,,,,,,,,,,,,,,,,,,,,,,,,,,,,,,,,,,,,0,103,103,15,1,,,,,,,,,,,,,,,,,,,,,,,,
,,,,,,,,,,,,a,Incorrect,,,,,,t4.png,t1.png,3,0.0000131,19,female,2020-08-30_21h16.11.338,torte-2b,2020.1.3,MacIntel,60,13449,0.519,,,,,,,,,,,,,,,,,,,,,,,,,,,,,,,,,,,,,0,104,104,42,1,,,,,,,,,,,,,,,,,,,,,,,,
,,,,,,,,,,,,l,Correct!,,,,,,t2.png,t4.png,2,0.059078,19,female,2020-08-30_21h16.11.338,torte-2b,2020.1.3,MacIntel,60,13449,1.092,,,,,,,,,,,,,,,,,,,,,,,,,,,,,,,,,,,,,0,105,105,11,1,,,,,,,,,,,,,,,,,,,,,,,,
,,,,,,,,,,,,a,Incorrect,,,,,,t4.png,t2.png,2,0.059078,19,female,2020-08-30_21h16.11.338,torte-2b,2020.1.3,MacIntel,60,13449,0.968,,,,,,,,,,,,,,,,,,,,,,,,,,,,,,,,,,,,,0,106,106,86,1,,,,,,,,,,,,,,,,,,,,,,,,
,,,,,,,,,,,,l,Correct!,,,,,,t1.png,t3.png,2,0.056466,19,female,2020-08-30_21h16.11.338,torte-2b,2020.1.3,MacIntel,60,13449,0.859,,,,,,,,,,,,,,,,,,,,,,,,,,,,,,,,,,,,,0,107,107,60,1,,,,,,,,,,,,,,,,,,,,,,,,
,,,,,,,,,,,,l,Correct!,,,,,,t2.png,t5.png,3,0.0000131,19,female,2020-08-30_21h16.11.338,torte-2b,2020.1.3,MacIntel,60,13449,0.951,,,,,,,,,,,,,,,,,,,,,,,,,,,,,,,,,,,,,0,108,108,95,1,,,,,,,,,,,,,,,,,,,,,,,,
,,,,,,,,,,,,l,Incorrect,,,,,,t1.png,t2.png,1,0.90025,19,female,2020-08-30_21h16.11.338,torte-2b,2020.1.3,MacIntel,60,13449,0.559,,,,,,,,,,,,,,,,,,,,,,,,,,,,,,,,,,,,,0,109,109,72,1,,,,,,,,,,,,,,,,,,,,,,,,
,,,,,,,,,,,,a,Incorrect,,,,,,t5.png,t1.png,4,9.55E-11,19,female,2020-08-30_21h16.11.338,torte-2b,2020.1.3,MacIntel,60,13449,1.465,,,,,,,,,,,,,,,,,,,,,,,,,,,,,,,,,,,,,0,110,110,22,1,,,,,,,,,,,,,,,,,,,,,,,,
,,,,,,,,,,,,l,Incorrect,,,,,,t4.png,t5.png,1,0.90025,19,female,2020-08-30_21h16.11.338,torte-2b,2020.1.3,MacIntel,60,13449,0.431,,,,,,,,,,,,,,,,,,,,,,,,,,,,,,,,,,,,,0,111,111,103,1,,,,,,,,,,,,,,,,,,,,,,,,
,,,,,,,,,,,,a,Incorrect,,,,,,t4.png,t1.png,3,0.0000131,19,female,2020-08-30_21h16.11.338,torte-2b,2020.1.3,MacIntel,60,13449,0.399,,,,,,,,,,,,,,,,,,,,,,,,,,,,,,,,,,,,,0,112,112,48,1,,,,,,,,,,,,,,,,,,,,,,,,
,,,,,,,,,,,,a,Correct!,,,,,,t3.png,t2.png,1,0.90855,19,female,2020-08-30_21h16.11.338,torte-2b,2020.1.3,MacIntel,60,13449,0.439,,,,,,,,,,,,,,,,,,,,,,,,,,,,,,,,,,,,,0,113,113,18,1,,,,,,,,,,,,,,,,,,,,,,,,
,,,,,,,,,,,,l,Correct!,,,,,,t3.png,t5.png,2,0.056466,19,female,2020-08-30_21h16.11.338,torte-2b,2020.1.3,MacIntel,60,13449,0.866,,,,,,,,,,,,,,,,,,,,,,,,,,,,,,,,,,,,,0,114,114,6,1,,,,,,,,,,,,,,,,,,,,,,,,
,,,,,,,,,,,,l,Correct!,,,,,,t1.png,t4.png,3,0.0000131,19,female,2020-08-30_21h16.11.338,torte-2b,2020.1.3,MacIntel,60,13449,2.033,,,,,,,,,,,,,,,,,,,,,,,,,,,,,,,,,,,,,0,115,115,81,1,,,,,,,,,,,,,,,,,,,,,,,,
,,,,,,,,,,,,a,Correct!,,,,,,t2.png,t2.png,0,0.98115,19,female,2020-08-30_21h16.11.338,torte-2b,2020.1.3,MacIntel,60,13449,0.465,,,,,,,,,,,,,,,,,,,,,,,,,,,,,,,,,,,,,0,116,116,57,1,,,,,,,,,,,,,,,,,,,,,,,,
,,,,,,,,,,,,a,Correct!,,,,,,t1.png,t1.png,0,0.978,19,female,2020-08-30_21h16.11.338,torte-2b,2020.1.3,MacIntel,60,13449,2.099,,,,,,,,,,,,,,,,,,,,,,,,,,,,,,,,,,,,,0,117,117,54,1,,,,,,,,,,,,,,,,,,,,,,,,
,,,,,,,,,,,,l,Correct!,,,,,,t1.png,t4.png,3,0.0000131,19,female,2020-08-30_21h16.11.338,torte-2b,2020.1.3,MacIntel,60,13449,1.065,,,,,,,,,,,,,,,,,,,,,,,,,,,,,,,,,,,,,0,118,118,17,1,,,,,,,,,,,,,,,,,,,,,,,,
,,,,,,,,,,,,a,Incorrect,,,,,,t3.png,t1.png,2,0.056466,19,female,2020-08-30_21h16.11.338,torte-2b,2020.1.3,MacIntel,60,13449,0.939,,,,,,,,,,,,,,,,,,,,,,,,,,,,,,,,,,,,,0,119,119,64,1,,,,,,,,,,,,,,,,,,,,,,,,
,,,,,,,,,,,,,,,,,,,,,,,19,female,2020-08-30_21h16.11.338,torte-2b,2020.1.3,MacIntel,60,13449,,m,1.148,,,,,,,,,,,,,,,,,,,,,,,,,,,,,,,,,,,,,,,,-75,63,1,0,0,s3,-19,79,1,0,0,t1,140,-108,1,0,0,proceed,space,1.05,space,1.927,m,0.418
