key_resp_8.keys,key_resp_8.rt,key_resp_9.keys,key_resp_9.rt,key_resp_10.keys,key_resp_10.rt,key_resp_11.keys,key_resp_11.rt,key_resp_2.keys,key_resp_2.rt,key_resp_3.keys,key_resp_3.rt,key_resp.keys,key_resp.rt,Feedback,train.thisRepN,train.thisTrialN,train.thisN,train.thisIndex,train.ran,torta_sx,torta_dx,difference,probability,age,gender,date,expName,psychopyVersion,OS,frameRate,participant,key_resp_15.keys,key_resp_15.rt,key_resp_6.keys,key_resp_6.rt,test1.thisRepN,test1.thisTrialN,test1.thisN,test1.thisIndex,test1.ran,key_resp_4.keys,key_resp_4.rt,key_resp_5.keys,back1.thisRepN,back1.thisTrialN,back1.thisN,back1.thisIndex,back1.ran,letter,key_resp_5.rt,back2.thisRepN,back2.thisTrialN,back2.thisN,back2.thisIndex,back2.ran,back3.thisRepN,back3.thisTrialN,back3.thisN,back3.thisIndex,back3.ran,back4.thisRepN,back4.thisTrialN,back4.thisN,back4.thisIndex,back4.ran,key_resp_7.keys,key_resp_7.rt,test2.thisRepN,test2.thisTrialN,test2.thisN,test2.thisIndex,test2.ran,mouse.x,mouse.y,mouse.leftButton,mouse.midButton,mouse.rightButton,mouse.clicked_name,mouse_2.x,mouse_2.y,mouse_2.leftButton,mouse_2.midButton,mouse_2.rightButton,mouse_2.clicked_name,mouse_3.x,mouse_3.y,mouse_3.leftButton,mouse_3.midButton,mouse_3.rightButton,mouse_3.clicked_name,key_resp_12.keys,key_resp_12.rt,key_resp_13.keys,key_resp_13.rt,key_resp_14.keys,key_resp_14.rt
space,20.697805,space,1.611695,space,9.64634,space,11.161425,space,1.105655,space,28.99064,l,1.102225,Correct!,0,0,0,91,1,t1.png,t4.png,3,0.0000131,20,male,2020-09-11_21h50.21.761,torte-2b,2020.1.3,Win32,60,13451,,,,,,,,,,,,,,,,,,,,,,,,,,,,,,,,,,,,,,,,,,,,,,,,,,,,,,,,,,,,,,,,,
,,,,,,,,,,,,a,0.769935,Incorrect,0,1,1,53,1,t3.png,t1.png,2,0.056466,20,male,2020-09-11_21h50.21.761,torte-2b,2020.1.3,Win32,60,13451,,,,,,,,,,,,,,,,,,,,,,,,,,,,,,,,,,,,,,,,,,,,,,,,,,,,,,,,,,,,,,,,,
,,,,,,,,,,,,a,0.87564,Incorrect,0,2,2,19,1,t4.png,t2.png,2,0.059078,20,male,2020-09-11_21h50.21.761,torte-2b,2020.1.3,Win32,60,13451,,,,,,,,,,,,,,,,,,,,,,,,,,,,,,,,,,,,,,,,,,,,,,,,,,,,,,,,,,,,,,,,,
,,,,,,,,,,,,l,0.694105,Incorrect,0,3,3,116,1,t5.png,t4.png,1,0.90025,20,male,2020-09-11_21h50.21.761,torte-2b,2020.1.3,Win32,60,13451,,,,,,,,,,,,,,,,,,,,,,,,,,,,,,,,,,,,,,,,,,,,,,,,,,,,,,,,,,,,,,,,,
,,,,,,,,,,,,l,1.03511,Incorrect,0,4,4,107,1,t1.png,t1.png,0,0.978,20,male,2020-09-11_21h50.21.761,torte-2b,2020.1.3,Win32,60,13451,,,,,,,,,,,,,,,,,,,,,,,,,,,,,,,,,,,,,,,,,,,,,,,,,,,,,,,,,,,,,,,,,
,,,,,,,,,,,,a,1.28011,Correct!,0,5,5,105,1,t3.png,t2.png,1,0.90855,20,male,2020-09-11_21h50.21.761,torte-2b,2020.1.3,Win32,60,13451,,,,,,,,,,,,,,,,,,,,,,,,,,,,,,,,,,,,,,,,,,,,,,,,,,,,,,,,,,,,,,,,,
,,,,,,,,,,,,l,1.23836,Incorrect,0,6,6,7,1,t4.png,t5.png,1,0.90025,20,male,2020-09-11_21h50.21.761,torte-2b,2020.1.3,Win32,60,13451,,,,,,,,,,,,,,,,,,,,,,,,,,,,,,,,,,,,,,,,,,,,,,,,,,,,,,,,,,,,,,,,,
,,,,,,,,,,,,a,1.05053,Correct!,0,7,7,10,1,t2.png,t3.png,1,0.90855,20,male,2020-09-11_21h50.21.761,torte-2b,2020.1.3,Win32,60,13451,,,,,,,,,,,,,,,,,,,,,,,,,,,,,,,,,,,,,,,,,,,,,,,,,,,,,,,,,,,,,,,,,
,,,,,,,,,,,,l,0.65528,Correct!,0,8,8,30,1,t3.png,t1.png,2,0.056466,20,male,2020-09-11_21h50.21.761,torte-2b,2020.1.3,Win32,60,13451,,,,,,,,,,,,,,,,,,,,,,,,,,,,,,,,,,,,,,,,,,,,,,,,,,,,,,,,,,,,,,,,,
,,,,,,,,,,,,a,1.001715,Correct!,0,9,9,100,1,t4.png,t5.png,1,0.90025,20,male,2020-09-11_21h50.21.761,torte-2b,2020.1.3,Win32,60,13451,,,,,,,,,,,,,,,,,,,,,,,,,,,,,,,,,,,,,,,,,,,,,,,,,,,,,,,,,,,,,,,,,
,,,,,,,,,,,,a,0.52032,Incorrect,0,10,10,3,1,t1.png,t5.png,4,9.55E-11,20,male,2020-09-11_21h50.21.761,torte-2b,2020.1.3,Win32,60,13451,,,,,,,,,,,,,,,,,,,,,,,,,,,,,,,,,,,,,,,,,,,,,,,,,,,,,,,,,,,,,,,,,
,,,,,,,,,,,,a,0.75985,Incorrect,0,11,11,40,1,t1.png,t5.png,4,9.55E-11,20,male,2020-09-11_21h50.21.761,torte-2b,2020.1.3,Win32,60,13451,,,,,,,,,,,,,,,,,,,,,,,,,,,,,,,,,,,,,,,,,,,,,,,,,,,,,,,,,,,,,,,,,
,,,,,,,,,,,,a,1.63348,Correct!,0,12,12,47,1,t4.png,t2.png,2,0.059078,20,male,2020-09-11_21h50.21.761,torte-2b,2020.1.3,Win32,60,13451,,,,,,,,,,,,,,,,,,,,,,,,,,,,,,,,,,,,,,,,,,,,,,,,,,,,,,,,,,,,,,,,,
,,,,,,,,,,,,a,0.80608,Incorrect,0,13,13,56,1,t5.png,t1.png,4,9.55E-11,20,male,2020-09-11_21h50.21.761,torte-2b,2020.1.3,Win32,60,13451,,,,,,,,,,,,,,,,,,,,,,,,,,,,,,,,,,,,,,,,,,,,,,,,,,,,,,,,,,,,,,,,,
,,,,,,,,,,,,l,0.878875,Incorrect,0,14,14,42,1,t5.png,t4.png,1,0.90025,20,male,2020-09-11_21h50.21.761,torte-2b,2020.1.3,Win32,60,13451,,,,,,,,,,,,,,,,,,,,,,,,,,,,,,,,,,,,,,,,,,,,,,,,,,,,,,,,,,,,,,,,,
,,,,,,,,,,,,a,1.31402,Correct!,0,15,15,96,1,t1.png,t1.png,0,0.97829,20,male,2020-09-11_21h50.21.761,torte-2b,2020.1.3,Win32,60,13451,,,,,,,,,,,,,,,,,,,,,,,,,,,,,,,,,,,,,,,,,,,,,,,,,,,,,,,,,,,,,,,,,
,,,,,,,,,,,,a,0.829055,Correct!,0,16,16,84,1,t1.png,t1.png,0,0.97829,20,male,2020-09-11_21h50.21.761,torte-2b,2020.1.3,Win32,60,13451,,,,,,,,,,,,,,,,,,,,,,,,,,,,,,,,,,,,,,,,,,,,,,,,,,,,,,,,,,,,,,,,,
,,,,,,,,,,,,a,1.05818,Correct!,0,17,17,25,1,t5.png,t5.png,0,0.97829,20,male,2020-09-11_21h50.21.761,torte-2b,2020.1.3,Win32,60,13451,,,,,,,,,,,,,,,,,,,,,,,,,,,,,,,,,,,,,,,,,,,,,,,,,,,,,,,,,,,,,,,,,
,,,,,,,,,,,,a,0.86227,Correct!,0,18,18,41,1,t3.png,t2.png,1,0.90855,20,male,2020-09-11_21h50.21.761,torte-2b,2020.1.3,Win32,60,13451,,,,,,,,,,,,,,,,,,,,,,,,,,,,,,,,,,,,,,,,,,,,,,,,,,,,,,,,,,,,,,,,,
,,,,,,,,,,,,a,0.606015,Incorrect,0,19,19,117,1,t1.png,t5.png,4,9.55E-11,20,male,2020-09-11_21h50.21.761,torte-2b,2020.1.3,Win32,60,13451,,,,,,,,,,,,,,,,,,,,,,,,,,,,,,,,,,,,,,,,,,,,,,,,,,,,,,,,,,,,,,,,,
,,,,,,,,,,,,l,0.160505,Incorrect,0,20,20,85,1,t3.png,t2.png,1,0.90855,20,male,2020-09-11_21h50.21.761,torte-2b,2020.1.3,Win32,60,13451,,,,,,,,,,,,,,,,,,,,,,,,,,,,,,,,,,,,,,,,,,,,,,,,,,,,,,,,,,,,,,,,,
,,,,,,,,,,,,l,1.37924,Incorrect,0,21,21,32,1,t4.png,t5.png,1,0.90025,20,male,2020-09-11_21h50.21.761,torte-2b,2020.1.3,Win32,60,13451,,,,,,,,,,,,,,,,,,,,,,,,,,,,,,,,,,,,,,,,,,,,,,,,,,,,,,,,,,,,,,,,,
,,,,,,,,,,,,l,0.62607,Incorrect,0,22,22,97,1,t5.png,t5.png,0,0.97829,20,male,2020-09-11_21h50.21.761,torte-2b,2020.1.3,Win32,60,13451,,,,,,,,,,,,,,,,,,,,,,,,,,,,,,,,,,,,,,,,,,,,,,,,,,,,,,,,,,,,,,,,,
,,,,,,,,,,,,a,0.271775,Correct!,0,23,23,29,1,t5.png,t5.png,0,0.97829,20,male,2020-09-11_21h50.21.761,torte-2b,2020.1.3,Win32,60,13451,,,,,,,,,,,,,,,,,,,,,,,,,,,,,,,,,,,,,,,,,,,,,,,,,,,,,,,,,,,,,,,,,
,,,,,,,,,,,,a,0.67003,Incorrect,0,24,24,119,1,t1.png,t5.png,4,9.55E-11,20,male,2020-09-11_21h50.21.761,torte-2b,2020.1.3,Win32,60,13451,,,,,,,,,,,,,,,,,,,,,,,,,,,,,,,,,,,,,,,,,,,,,,,,,,,,,,,,,,,,,,,,,
,,,,,,,,,,,,a,2.204735,Incorrect,0,25,25,72,1,t4.png,t2.png,2,0.059078,20,male,2020-09-11_21h50.21.761,torte-2b,2020.1.3,Win32,60,13451,,,,,,,,,,,,,,,,,,,,,,,,,,,,,,,,,,,,,,,,,,,,,,,,,,,,,,,,,,,,,,,,,
,,,,,,,,,,,,l,0.49447,Correct!,0,26,26,108,1,t5.png,t1.png,4,9.55E-11,20,male,2020-09-11_21h50.21.761,torte-2b,2020.1.3,Win32,60,13451,,,,,,,,,,,,,,,,,,,,,,,,,,,,,,,,,,,,,,,,,,,,,,,,,,,,,,,,,,,,,,,,,
,,,,,,,,,,,,l,1.084485,Correct!,0,27,27,104,1,t2.png,t3.png,1,0.90855,20,male,2020-09-11_21h50.21.761,torte-2b,2020.1.3,Win32,60,13451,,,,,,,,,,,,,,,,,,,,,,,,,,,,,,,,,,,,,,,,,,,,,,,,,,,,,,,,,,,,,,,,,
,,,,,,,,,,,,l,1.973775,Incorrect,0,28,28,70,1,t5.png,t5.png,0,0.978,20,male,2020-09-11_21h50.21.761,torte-2b,2020.1.3,Win32,60,13451,,,,,,,,,,,,,,,,,,,,,,,,,,,,,,,,,,,,,,,,,,,,,,,,,,,,,,,,,,,,,,,,,
,,,,,,,,,,,,a,2.420415,Incorrect,0,29,29,28,1,t2.png,t3.png,1,0.909,20,male,2020-09-11_21h50.21.761,torte-2b,2020.1.3,Win32,60,13451,,,,,,,,,,,,,,,,,,,,,,,,,,,,,,,,,,,,,,,,,,,,,,,,,,,,,,,,,,,,,,,,,
,,,,,,,,,,,,a,0.93207,Incorrect,0,30,30,83,1,t3.png,t1.png,2,0.056466,20,male,2020-09-11_21h50.21.761,torte-2b,2020.1.3,Win32,60,13451,,,,,,,,,,,,,,,,,,,,,,,,,,,,,,,,,,,,,,,,,,,,,,,,,,,,,,,,,,,,,,,,,
,,,,,,,,,,,,l,0.452495,Correct!,0,31,31,94,1,t5.png,t1.png,4,9.55E-11,20,male,2020-09-11_21h50.21.761,torte-2b,2020.1.3,Win32,60,13451,,,,,,,,,,,,,,,,,,,,,,,,,,,,,,,,,,,,,,,,,,,,,,,,,,,,,,,,,,,,,,,,,
,,,,,,,,,,,,a,0.244015,Incorrect,0,32,32,21,1,t5.png,t4.png,1,0.90025,20,male,2020-09-11_21h50.21.761,torte-2b,2020.1.3,Win32,60,13451,,,,,,,,,,,,,,,,,,,,,,,,,,,,,,,,,,,,,,,,,,,,,,,,,,,,,,,,,,,,,,,,,
,,,,,,,,,,,,l,0.202815,Incorrect,0,33,33,114,1,t2.png,t3.png,1,0.90855,20,male,2020-09-11_21h50.21.761,torte-2b,2020.1.3,Win32,60,13451,,,,,,,,,,,,,,,,,,,,,,,,,,,,,,,,,,,,,,,,,,,,,,,,,,,,,,,,,,,,,,,,,
,,,,,,,,,,,,a,0.18847,Correct!,0,34,34,106,1,t2.png,t3.png,1,0.90855,20,male,2020-09-11_21h50.21.761,torte-2b,2020.1.3,Win32,60,13451,,,,,,,,,,,,,,,,,,,,,,,,,,,,,,,,,,,,,,,,,,,,,,,,,,,,,,,,,,,,,,,,,
,,,,,,,,,,,,a,0.126915,Incorrect,0,35,35,50,1,t5.png,t1.png,4,9.55E-11,20,male,2020-09-11_21h50.21.761,torte-2b,2020.1.3,Win32,60,13451,,,,,,,,,,,,,,,,,,,,,,,,,,,,,,,,,,,,,,,,,,,,,,,,,,,,,,,,,,,,,,,,,
,,,,,,,,,,,,l,0.906275,Incorrect,0,36,36,14,1,t2.png,t4.png,2,0.059078,20,male,2020-09-11_21h50.21.761,torte-2b,2020.1.3,Win32,60,13451,,,,,,,,,,,,,,,,,,,,,,,,,,,,,,,,,,,,,,,,,,,,,,,,,,,,,,,,,,,,,,,,,
,,,,,,,,,,,,a,1.66759,Correct!,0,37,37,75,1,t1.png,t1.png,0,0.97829,20,male,2020-09-11_21h50.21.761,torte-2b,2020.1.3,Win32,60,13451,,,,,,,,,,,,,,,,,,,,,,,,,,,,,,,,,,,,,,,,,,,,,,,,,,,,,,,,,,,,,,,,,
,,,,,,,,,,,,a,1.405015,Correct!,0,38,38,74,1,t5.png,t4.png,1,0.9,20,male,2020-09-11_21h50.21.761,torte-2b,2020.1.3,Win32,60,13451,,,,,,,,,,,,,,,,,,,,,,,,,,,,,,,,,,,,,,,,,,,,,,,,,,,,,,,,,,,,,,,,,
,,,,,,,,,,,,a,1.94189,Correct!,0,39,39,22,1,t2.png,t3.png,1,0.90855,20,male,2020-09-11_21h50.21.761,torte-2b,2020.1.3,Win32,60,13451,,,,,,,,,,,,,,,,,,,,,,,,,,,,,,,,,,,,,,,,,,,,,,,,,,,,,,,,,,,,,,,,,
,,,,,,,,,,,,,,Too slow :(,0,40,40,23,1,t5.png,t4.png,1,0.90025,20,male,2020-09-11_21h50.21.761,torte-2b,2020.1.3,Win32,60,13451,,,,,,,,,,,,,,,,,,,,,,,,,,,,,,,,,,,,,,,,,,,,,,,,,,,,,,,,,,,,,,,,,
,,,,,,,,,,,,l,1.2228,Correct!,0,41,41,38,1,t3.png,t1.png,2,0.056466,20,male,2020-09-11_21h50.21.761,torte-2b,2020.1.3,Win32,60,13451,,,,,,,,,,,,,,,,,,,,,,,,,,,,,,,,,,,,,,,,,,,,,,,,,,,,,,,,,,,,,,,,,
,,,,,,,,,,,,a,0.195875,Correct!,0,42,42,2,1,t3.png,t2.png,1,0.90855,20,male,2020-09-11_21h50.21.761,torte-2b,2020.1.3,Win32,60,13451,,,,,,,,,,,,,,,,,,,,,,,,,,,,,,,,,,,,,,,,,,,,,,,,,,,,,,,,,,,,,,,,,
,,,,,,,,,,,,l,0.633455,Correct!,0,43,43,111,1,t5.png,t1.png,4,9.55E-11,20,male,2020-09-11_21h50.21.761,torte-2b,2020.1.3,Win32,60,13451,,,,,,,,,,,,,,,,,,,,,,,,,,,,,,,,,,,,,,,,,,,,,,,,,,,,,,,,,,,,,,,,,
,,,,,,,,,,,,a,1.087305,Incorrect,0,44,44,31,1,t1.png,t5.png,4,9.55E-11,20,male,2020-09-11_21h50.21.761,torte-2b,2020.1.3,Win32,60,13451,,,,,,,,,,,,,,,,,,,,,,,,,,,,,,,,,,,,,,,,,,,,,,,,,,,,,,,,,,,,,,,,,
,,,,,,,,,,,,l,1.271815,Incorrect,0,45,45,118,1,t5.png,t5.png,0,0.978,20,male,2020-09-11_21h50.21.761,torte-2b,2020.1.3,Win32,60,13451,,,,,,,,,,,,,,,,,,,,,,,,,,,,,,,,,,,,,,,,,,,,,,,,,,,,,,,,,,,,,,,,,
,,,,,,,,,,,,l,2.12798,Incorrect,0,46,46,110,1,t4.png,t5.png,1,0.90025,20,male,2020-09-11_21h50.21.761,torte-2b,2020.1.3,Win32,60,13451,,,,,,,,,,,,,,,,,,,,,,,,,,,,,,,,,,,,,,,,,,,,,,,,,,,,,,,,,,,,,,,,,
,,,,,,,,,,,,l,1.584595,Correct!,0,47,47,6,1,t1.png,t4.png,3,0.0000131,20,male,2020-09-11_21h50.21.761,torte-2b,2020.1.3,Win32,60,13451,,,,,,,,,,,,,,,,,,,,,,,,,,,,,,,,,,,,,,,,,,,,,,,,,,,,,,,,,,,,,,,,,
,,,,,,,,,,,,a,1.010245,Incorrect,0,48,48,88,1,t3.png,t1.png,2,0.056466,20,male,2020-09-11_21h50.21.761,torte-2b,2020.1.3,Win32,60,13451,,,,,,,,,,,,,,,,,,,,,,,,,,,,,,,,,,,,,,,,,,,,,,,,,,,,,,,,,,,,,,,,,
,,,,,,,,,,,,l,1.744595,Incorrect,0,49,49,95,1,t1.png,t1.png,0,0.978,20,male,2020-09-11_21h50.21.761,torte-2b,2020.1.3,Win32,60,13451,,,,,,,,,,,,,,,,,,,,,,,,,,,,,,,,,,,,,,,,,,,,,,,,,,,,,,,,,,,,,,,,,
,,,,,,,,,,,,a,0.05122,Incorrect,0,50,50,43,1,t4.png,t2.png,2,0.059078,20,male,2020-09-11_21h50.21.761,torte-2b,2020.1.3,Win32,60,13451,,,,,,,,,,,,,,,,,,,,,,,,,,,,,,,,,,,,,,,,,,,,,,,,,,,,,,,,,,,,,,,,,
,,,,,,,,,,,,l,0.19053,Correct!,0,51,51,26,1,t4.png,t2.png,2,0.0591,20,male,2020-09-11_21h50.21.761,torte-2b,2020.1.3,Win32,60,13451,,,,,,,,,,,,,,,,,,,,,,,,,,,,,,,,,,,,,,,,,,,,,,,,,,,,,,,,,,,,,,,,,
,,,,,,,,,,,,l,0.23119,Incorrect,0,52,52,44,1,t2.png,t3.png,1,0.909,20,male,2020-09-11_21h50.21.761,torte-2b,2020.1.3,Win32,60,13451,,,,,,,,,,,,,,,,,,,,,,,,,,,,,,,,,,,,,,,,,,,,,,,,,,,,,,,,,,,,,,,,,
,,,,,,,,,,,,a,0.06466,Correct!,0,53,53,20,1,t2.png,t3.png,1,0.90855,20,male,2020-09-11_21h50.21.761,torte-2b,2020.1.3,Win32,60,13451,,,,,,,,,,,,,,,,,,,,,,,,,,,,,,,,,,,,,,,,,,,,,,,,,,,,,,,,,,,,,,,,,
,,,,,,,,,,,,a,1.03615,Incorrect,0,54,54,57,1,t2.png,t4.png,2,0.059078,20,male,2020-09-11_21h50.21.761,torte-2b,2020.1.3,Win32,60,13451,,,,,,,,,,,,,,,,,,,,,,,,,,,,,,,,,,,,,,,,,,,,,,,,,,,,,,,,,,,,,,,,,
,,,,,,,,,,,,a,1.815675,Incorrect,0,55,55,69,1,t4.png,t2.png,2,0.059078,20,male,2020-09-11_21h50.21.761,torte-2b,2020.1.3,Win32,60,13451,,,,,,,,,,,,,,,,,,,,,,,,,,,,,,,,,,,,,,,,,,,,,,,,,,,,,,,,,,,,,,,,,
,,,,,,,,,,,,l,1.437955,Correct!,0,56,56,55,1,t2.png,t4.png,2,0.059078,20,male,2020-09-11_21h50.21.761,torte-2b,2020.1.3,Win32,60,13451,,,,,,,,,,,,,,,,,,,,,,,,,,,,,,,,,,,,,,,,,,,,,,,,,,,,,,,,,,,,,,,,,
,,,,,,,,,,,,a,1.834415,Incorrect,0,57,57,24,1,t4.png,t2.png,2,0.059078,20,male,2020-09-11_21h50.21.761,torte-2b,2020.1.3,Win32,60,13451,,,,,,,,,,,,,,,,,,,,,,,,,,,,,,,,,,,,,,,,,,,,,,,,,,,,,,,,,,,,,,,,,
,,,,,,,,,,,,l,0.140075,Correct!,0,58,58,35,1,t1.png,t4.png,3,0.0000131,20,male,2020-09-11_21h50.21.761,torte-2b,2020.1.3,Win32,60,13451,,,,,,,,,,,,,,,,,,,,,,,,,,,,,,,,,,,,,,,,,,,,,,,,,,,,,,,,,,,,,,,,,
,,,,,,,,,,,,a,1.647435,Correct!,0,59,59,34,1,t5.png,t4.png,1,0.9,20,male,2020-09-11_21h50.21.761,torte-2b,2020.1.3,Win32,60,13451,,,,,,,,,,,,,,,,,,,,,,,,,,,,,,,,,,,,,,,,,,,,,,,,,,,,,,,,,,,,,,,,,
,,,,,,,,,,,,a,1.47312,Correct!,0,60,60,48,1,t5.png,t5.png,0,0.97829,20,male,2020-09-11_21h50.21.761,torte-2b,2020.1.3,Win32,60,13451,,,,,,,,,,,,,,,,,,,,,,,,,,,,,,,,,,,,,,,,,,,,,,,,,,,,,,,,,,,,,,,,,
,,,,,,,,,,,,l,1.39756,Correct!,0,61,61,80,1,t1.png,t4.png,3,0.0000131,20,male,2020-09-11_21h50.21.761,torte-2b,2020.1.3,Win32,60,13451,,,,,,,,,,,,,,,,,,,,,,,,,,,,,,,,,,,,,,,,,,,,,,,,,,,,,,,,,,,,,,,,,
,,,,,,,,,,,,l,1.841055,Correct!,0,62,62,61,1,t1.png,t4.png,3,0.0000131,20,male,2020-09-11_21h50.21.761,torte-2b,2020.1.3,Win32,60,13451,,,,,,,,,,,,,,,,,,,,,,,,,,,,,,,,,,,,,,,,,,,,,,,,,,,,,,,,,,,,,,,,,
,,,,,,,,,,,,a,1.17472,Correct!,0,63,63,13,1,t5.png,t5.png,0,0.97829,20,male,2020-09-11_21h50.21.761,torte-2b,2020.1.3,Win32,60,13451,,,,,,,,,,,,,,,,,,,,,,,,,,,,,,,,,,,,,,,,,,,,,,,,,,,,,,,,,,,,,,,,,
,,,,,,,,,,,,l,0.899705,Correct!,0,64,64,86,1,t3.png,t1.png,2,0.056466,20,male,2020-09-11_21h50.21.761,torte-2b,2020.1.3,Win32,60,13451,,,,,,,,,,,,,,,,,,,,,,,,,,,,,,,,,,,,,,,,,,,,,,,,,,,,,,,,,,,,,,,,,
,,,,,,,,,,,,a,1.72631,Incorrect,0,65,65,73,1,t4.png,t2.png,2,0.059078,20,male,2020-09-11_21h50.21.761,torte-2b,2020.1.3,Win32,60,13451,,,,,,,,,,,,,,,,,,,,,,,,,,,,,,,,,,,,,,,,,,,,,,,,,,,,,,,,,,,,,,,,,
,,,,,,,,,,,,a,1.41078,Incorrect,0,66,66,33,1,t5.png,t1.png,4,9.55E-11,20,male,2020-09-11_21h50.21.761,torte-2b,2020.1.3,Win32,60,13451,,,,,,,,,,,,,,,,,,,,,,,,,,,,,,,,,,,,,,,,,,,,,,,,,,,,,,,,,,,,,,,,,
,,,,,,,,,,,,l,1.34213,Correct!,0,67,67,5,1,t2.png,t4.png,2,0.059078,20,male,2020-09-11_21h50.21.761,torte-2b,2020.1.3,Win32,60,13451,,,,,,,,,,,,,,,,,,,,,,,,,,,,,,,,,,,,,,,,,,,,,,,,,,,,,,,,,,,,,,,,,
,,,,,,,,,,,,l,1.58443,Correct!,0,68,68,98,1,t2.png,t4.png,2,0.0591,20,male,2020-09-11_21h50.21.761,torte-2b,2020.1.3,Win32,60,13451,,,,,,,,,,,,,,,,,,,,,,,,,,,,,,,,,,,,,,,,,,,,,,,,,,,,,,,,,,,,,,,,,
,,,,,,,,,,,,l,1.4597,Incorrect,0,69,69,78,1,t1.png,t1.png,0,0.978,20,male,2020-09-11_21h50.21.761,torte-2b,2020.1.3,Win32,60,13451,,,,,,,,,,,,,,,,,,,,,,,,,,,,,,,,,,,,,,,,,,,,,,,,,,,,,,,,,,,,,,,,,
,,,,,,,,,,,,a,0.81474,Correct!,0,70,70,77,1,t1.png,t1.png,0,0.97829,20,male,2020-09-11_21h50.21.761,torte-2b,2020.1.3,Win32,60,13451,,,,,,,,,,,,,,,,,,,,,,,,,,,,,,,,,,,,,,,,,,,,,,,,,,,,,,,,,,,,,,,,,
,,,,,,,,,,,,l,1.732235,Correct!,0,71,71,0,1,t5.png,t1.png,4,9.55E-11,20,male,2020-09-11_21h50.21.761,torte-2b,2020.1.3,Win32,60,13451,,,,,,,,,,,,,,,,,,,,,,,,,,,,,,,,,,,,,,,,,,,,,,,,,,,,,,,,,,,,,,,,,
,,,,,,,,,,,,a,1.626905,Correct!,0,72,72,92,1,t2.png,t3.png,1,0.909,20,male,2020-09-11_21h50.21.761,torte-2b,2020.1.3,Win32,60,13451,,,,,,,,,,,,,,,,,,,,,,,,,,,,,,,,,,,,,,,,,,,,,,,,,,,,,,,,,,,,,,,,,
,,,,,,,,,,,,a,2.217655,Correct!,0,73,73,65,1,t4.png,t5.png,1,0.90025,20,male,2020-09-11_21h50.21.761,torte-2b,2020.1.3,Win32,60,13451,,,,,,,,,,,,,,,,,,,,,,,,,,,,,,,,,,,,,,,,,,,,,,,,,,,,,,,,,,,,,,,,,
,,,,,,,,,,,,l,1.320225,Correct!,0,74,74,17,1,t1.png,t4.png,3,0.0000131,20,male,2020-09-11_21h50.21.761,torte-2b,2020.1.3,Win32,60,13451,,,,,,,,,,,,,,,,,,,,,,,,,,,,,,,,,,,,,,,,,,,,,,,,,,,,,,,,,,,,,,,,,
,,,,,,,,,,,,,,Too slow :(,0,75,75,99,1,t1.png,t5.png,4,9.55E-11,20,male,2020-09-11_21h50.21.761,torte-2b,2020.1.3,Win32,60,13451,,,,,,,,,,,,,,,,,,,,,,,,,,,,,,,,,,,,,,,,,,,,,,,,,,,,,,,,,,,,,,,,,
,,,,,,,,,,,,a,1.73012,Incorrect,0,76,76,102,1,t4.png,t2.png,2,0.059078,20,male,2020-09-11_21h50.21.761,torte-2b,2020.1.3,Win32,60,13451,,,,,,,,,,,,,,,,,,,,,,,,,,,,,,,,,,,,,,,,,,,,,,,,,,,,,,,,,,,,,,,,,
,,,,,,,,,,,,a,1.43921,Incorrect,0,77,77,68,1,t1.png,t4.png,3,0.0000131,20,male,2020-09-11_21h50.21.761,torte-2b,2020.1.3,Win32,60,13451,,,,,,,,,,,,,,,,,,,,,,,,,,,,,,,,,,,,,,,,,,,,,,,,,,,,,,,,,,,,,,,,,
,,,,,,,,,,,,l,1.36886,Correct!,0,78,78,67,1,t1.png,t5.png,4,9.55E-11,20,male,2020-09-11_21h50.21.761,torte-2b,2020.1.3,Win32,60,13451,,,,,,,,,,,,,,,,,,,,,,,,,,,,,,,,,,,,,,,,,,,,,,,,,,,,,,,,,,,,,,,,,
,,,,,,,,,,,,a,2.27257,Correct!,0,79,79,52,1,t2.png,t4.png,2,0.059078,20,male,2020-09-11_21h50.21.761,torte-2b,2020.1.3,Win32,60,13451,,,,,,,,,,,,,,,,,,,,,,,,,,,,,,,,,,,,,,,,,,,,,,,,,,,,,,,,,,,,,,,,,
,,,,,,,,,,,,l,1.88563,Incorrect,0,80,80,39,1,t3.png,t2.png,1,0.90855,20,male,2020-09-11_21h50.21.761,torte-2b,2020.1.3,Win32,60,13451,,,,,,,,,,,,,,,,,,,,,,,,,,,,,,,,,,,,,,,,,,,,,,,,,,,,,,,,,,,,,,,,,
,,,,,,,,,,,,a,1.22291,Correct!,0,81,81,59,1,t5.png,t4.png,1,0.9,20,male,2020-09-11_21h50.21.761,torte-2b,2020.1.3,Win32,60,13451,,,,,,,,,,,,,,,,,,,,,,,,,,,,,,,,,,,,,,,,,,,,,,,,,,,,,,,,,,,,,,,,,
,,,,,,,,,,,,l,0.328425,Correct!,0,82,82,93,1,t2.png,t4.png,2,0.059078,20,male,2020-09-11_21h50.21.761,torte-2b,2020.1.3,Win32,60,13451,,,,,,,,,,,,,,,,,,,,,,,,,,,,,,,,,,,,,,,,,,,,,,,,,,,,,,,,,,,,,,,,,
,,,,,,,,,,,,l,0.89691,Correct!,0,83,83,90,1,t1.png,t5.png,4,9.55E-11,20,male,2020-09-11_21h50.21.761,torte-2b,2020.1.3,Win32,60,13451,,,,,,,,,,,,,,,,,,,,,,,,,,,,,,,,,,,,,,,,,,,,,,,,,,,,,,,,,,,,,,,,,
,,,,,,,,,,,,a,1.42571,Incorrect,0,84,84,1,1,t2.png,t4.png,2,0.059078,20,male,2020-09-11_21h50.21.761,torte-2b,2020.1.3,Win32,60,13451,,,,,,,,,,,,,,,,,,,,,,,,,,,,,,,,,,,,,,,,,,,,,,,,,,,,,,,,,,,,,,,,,
,,,,,,,,,,,,l,1.321815,Correct!,0,85,85,46,1,t4.png,t2.png,2,0.059078,20,male,2020-09-11_21h50.21.761,torte-2b,2020.1.3,Win32,60,13451,,,,,,,,,,,,,,,,,,,,,,,,,,,,,,,,,,,,,,,,,,,,,,,,,,,,,,,,,,,,,,,,,
,,,,,,,,,,,,a,1.113385,Correct!,0,86,86,64,1,t1.png,t1.png,0,0.978,20,male,2020-09-11_21h50.21.761,torte-2b,2020.1.3,Win32,60,13451,,,,,,,,,,,,,,,,,,,,,,,,,,,,,,,,,,,,,,,,,,,,,,,,,,,,,,,,,,,,,,,,,
,,,,,,,,,,,,a,1.02936,Correct!,0,87,87,66,1,t4.png,t5.png,1,0.9,20,male,2020-09-11_21h50.21.761,torte-2b,2020.1.3,Win32,60,13451,,,,,,,,,,,,,,,,,,,,,,,,,,,,,,,,,,,,,,,,,,,,,,,,,,,,,,,,,,,,,,,,,
,,,,,,,,,,,,l,1.25451,Correct!,0,88,88,27,1,t3.png,t1.png,2,0.0565,20,male,2020-09-11_21h50.21.761,torte-2b,2020.1.3,Win32,60,13451,,,,,,,,,,,,,,,,,,,,,,,,,,,,,,,,,,,,,,,,,,,,,,,,,,,,,,,,,,,,,,,,,
,,,,,,,,,,,,a,1.64689,Correct!,0,89,89,9,1,t4.png,t5.png,1,0.9,20,male,2020-09-11_21h50.21.761,torte-2b,2020.1.3,Win32,60,13451,,,,,,,,,,,,,,,,,,,,,,,,,,,,,,,,,,,,,,,,,,,,,,,,,,,,,,,,,,,,,,,,,
,,,,,,,,,,,,l,1.11895,Correct!,0,90,90,87,1,t5.png,t1.png,4,9.55E-11,20,male,2020-09-11_21h50.21.761,torte-2b,2020.1.3,Win32,60,13451,,,,,,,,,,,,,,,,,,,,,,,,,,,,,,,,,,,,,,,,,,,,,,,,,,,,,,,,,,,,,,,,,
,,,,,,,,,,,,l,1.7443,Correct!,0,91,91,37,1,t1.png,t4.png,3,0.0000131,20,male,2020-09-11_21h50.21.761,torte-2b,2020.1.3,Win32,60,13451,,,,,,,,,,,,,,,,,,,,,,,,,,,,,,,,,,,,,,,,,,,,,,,,,,,,,,,,,,,,,,,,,
,,,,,,,,,,,,l,0.98732,Correct!,0,92,92,60,1,t2.png,t4.png,2,0.059078,20,male,2020-09-11_21h50.21.761,torte-2b,2020.1.3,Win32,60,13451,,,,,,,,,,,,,,,,,,,,,,,,,,,,,,,,,,,,,,,,,,,,,,,,,,,,,,,,,,,,,,,,,
,,,,,,,,,,,,l,1.001005,Incorrect,0,93,93,63,1,t2.png,t3.png,1,0.909,20,male,2020-09-11_21h50.21.761,torte-2b,2020.1.3,Win32,60,13451,,,,,,,,,,,,,,,,,,,,,,,,,,,,,,,,,,,,,,,,,,,,,,,,,,,,,,,,,,,,,,,,,
,,,,,,,,,,,,l,1.7108,Correct!,0,94,94,89,1,t1.png,t4.png,3,0.0000131,20,male,2020-09-11_21h50.21.761,torte-2b,2020.1.3,Win32,60,13451,,,,,,,,,,,,,,,,,,,,,,,,,,,,,,,,,,,,,,,,,,,,,,,,,,,,,,,,,,,,,,,,,
,,,,,,,,,,,,l,1.16256,Correct!,0,95,95,76,1,t3.png,t2.png,1,0.90855,20,male,2020-09-11_21h50.21.761,torte-2b,2020.1.3,Win32,60,13451,,,,,,,,,,,,,,,,,,,,,,,,,,,,,,,,,,,,,,,,,,,,,,,,,,,,,,,,,,,,,,,,,
,,,,,,,,,,,,a,1.627905,Correct!,0,96,96,109,1,t5.png,t5.png,0,0.97829,20,male,2020-09-11_21h50.21.761,torte-2b,2020.1.3,Win32,60,13451,,,,,,,,,,,,,,,,,,,,,,,,,,,,,,,,,,,,,,,,,,,,,,,,,,,,,,,,,,,,,,,,,
,,,,,,,,,,,,a,0.84864,Correct!,0,97,97,71,1,t5.png,t5.png,0,0.97829,20,male,2020-09-11_21h50.21.761,torte-2b,2020.1.3,Win32,60,13451,,,,,,,,,,,,,,,,,,,,,,,,,,,,,,,,,,,,,,,,,,,,,,,,,,,,,,,,,,,,,,,,,
,,,,,,,,,,,,l,1.17644,Incorrect,0,98,98,16,1,t5.png,t4.png,1,0.9,20,male,2020-09-11_21h50.21.761,torte-2b,2020.1.3,Win32,60,13451,,,,,,,,,,,,,,,,,,,,,,,,,,,,,,,,,,,,,,,,,,,,,,,,,,,,,,,,,,,,,,,,,
,,,,,,,,,,,,l,1.046605,Incorrect,0,99,99,79,1,t3.png,t2.png,1,0.909,20,male,2020-09-11_21h50.21.761,torte-2b,2020.1.3,Win32,60,13451,,,,,,,,,,,,,,,,,,,,,,,,,,,,,,,,,,,,,,,,,,,,,,,,,,,,,,,,,,,,,,,,,
,,,,,,,,,,,,a,0.92582,Correct!,0,100,100,58,1,t5.png,t4.png,1,0.90025,20,male,2020-09-11_21h50.21.761,torte-2b,2020.1.3,Win32,60,13451,,,,,,,,,,,,,,,,,,,,,,,,,,,,,,,,,,,,,,,,,,,,,,,,,,,,,,,,,,,,,,,,,
,,,,,,,,,,,,a,1.022065,Incorrect,0,101,101,8,1,t3.png,t2.png,1,0.90855,20,male,2020-09-11_21h50.21.761,torte-2b,2020.1.3,Win32,60,13451,,,,,,,,,,,,,,,,,,,,,,,,,,,,,,,,,,,,,,,,,,,,,,,,,,,,,,,,,,,,,,,,,
,,,,,,,,,,,,l,0.91091,Incorrect,0,102,102,36,1,t3.png,t1.png,2,0.0565,20,male,2020-09-11_21h50.21.761,torte-2b,2020.1.3,Win32,60,13451,,,,,,,,,,,,,,,,,,,,,,,,,,,,,,,,,,,,,,,,,,,,,,,,,,,,,,,,,,,,,,,,,
,,,,,,,,,,,,a,0.36533,Correct!,0,103,103,15,1,t3.png,t2.png,1,0.90855,20,male,2020-09-11_21h50.21.761,torte-2b,2020.1.3,Win32,60,13451,,,,,,,,,,,,,,,,,,,,,,,,,,,,,,,,,,,,,,,,,,,,,,,,,,,,,,,,,,,,,,,,,
,,,,,,,,,,,,l,0.939055,Correct!,0,104,104,4,1,t1.png,t5.png,4,9.55E-11,20,male,2020-09-11_21h50.21.761,torte-2b,2020.1.3,Win32,60,13451,,,,,,,,,,,,,,,,,,,,,,,,,,,,,,,,,,,,,,,,,,,,,,,,,,,,,,,,,,,,,,,,,
,,,,,,,,,,,,a,0.36928,Correct!,0,105,105,112,1,t1.png,t1.png,0,0.97829,20,male,2020-09-11_21h50.21.761,torte-2b,2020.1.3,Win32,60,13451,,,,,,,,,,,,,,,,,,,,,,,,,,,,,,,,,,,,,,,,,,,,,,,,,,,,,,,,,,,,,,,,,
,,,,,,,,,,,,a,0.656385,Incorrect,0,106,106,12,1,t5.png,t1.png,4,9.55E-11,20,male,2020-09-11_21h50.21.761,torte-2b,2020.1.3,Win32,60,13451,,,,,,,,,,,,,,,,,,,,,,,,,,,,,,,,,,,,,,,,,,,,,,,,,,,,,,,,,,,,,,,,,
,,,,,,,,,,,,a,2.036745,Incorrect,0,107,107,11,1,t1.png,t4.png,3,0.0000131,20,male,2020-09-11_21h50.21.761,torte-2b,2020.1.3,Win32,60,13451,,,,,,,,,,,,,,,,,,,,,,,,,,,,,,,,,,,,,,,,,,,,,,,,,,,,,,,,,,,,,,,,,
,,,,,,,,,,,,l,1.48216,Correct!,0,108,108,103,1,t3.png,t1.png,2,0.056466,20,male,2020-09-11_21h50.21.761,torte-2b,2020.1.3,Win32,60,13451,,,,,,,,,,,,,,,,,,,,,,,,,,,,,,,,,,,,,,,,,,,,,,,,,,,,,,,,,,,,,,,,,
,,,,,,,,,,,,l,1.3414,Correct!,0,109,109,82,1,t5.png,t1.png,4,9.55E-11,20,male,2020-09-11_21h50.21.761,torte-2b,2020.1.3,Win32,60,13451,,,,,,,,,,,,,,,,,,,,,,,,,,,,,,,,,,,,,,,,,,,,,,,,,,,,,,,,,,,,,,,,,
,,,,,,,,,,,,l,0.73681,Incorrect,0,110,110,81,1,t1.png,t1.png,0,0.97829,20,male,2020-09-11_21h50.21.761,torte-2b,2020.1.3,Win32,60,13451,,,,,,,,,,,,,,,,,,,,,,,,,,,,,,,,,,,,,,,,,,,,,,,,,,,,,,,,,,,,,,,,,
,,,,,,,,,,,,l,0.66295,Incorrect,0,111,111,115,1,t2.png,t4.png,2,0.059078,20,male,2020-09-11_21h50.21.761,torte-2b,2020.1.3,Win32,60,13451,,,,,,,,,,,,,,,,,,,,,,,,,,,,,,,,,,,,,,,,,,,,,,,,,,,,,,,,,,,,,,,,,
,,,,,,,,,,,,a,0.04259,Incorrect,0,112,112,51,1,t3.png,t1.png,2,0.056466,20,male,2020-09-11_21h50.21.761,torte-2b,2020.1.3,Win32,60,13451,,,,,,,,,,,,,,,,,,,,,,,,,,,,,,,,,,,,,,,,,,,,,,,,,,,,,,,,,,,,,,,,,
,,,,,,,,,,,,a,0.0933,Correct!,0,113,113,18,1,t4.png,t5.png,1,0.90025,20,male,2020-09-11_21h50.21.761,torte-2b,2020.1.3,Win32,60,13451,,,,,,,,,,,,,,,,,,,,,,,,,,,,,,,,,,,,,,,,,,,,,,,,,,,,,,,,,,,,,,,,,
,,,,,,,,,,,,l,0.77905,Incorrect,0,114,114,45,1,t3.png,t2.png,1,0.90855,20,male,2020-09-11_21h50.21.761,torte-2b,2020.1.3,Win32,60,13451,,,,,,,,,,,,,,,,,,,,,,,,,,,,,,,,,,,,,,,,,,,,,,,,,,,,,,,,,,,,,,,,,
,,,,,,,,,,,,a,0.246565,Incorrect,0,115,115,54,1,t1.png,t5.png,4,9.55E-11,20,male,2020-09-11_21h50.21.761,torte-2b,2020.1.3,Win32,60,13451,,,,,,,,,,,,,,,,,,,,,,,,,,,,,,,,,,,,,,,,,,,,,,,,,,,,,,,,,,,,,,,,,
,,,,,,,,,,,,a,0.07046,Correct!,0,116,116,113,1,t5.png,t4.png,1,0.9,20,male,2020-09-11_21h50.21.761,torte-2b,2020.1.3,Win32,60,13451,,,,,,,,,,,,,,,,,,,,,,,,,,,,,,,,,,,,,,,,,,,,,,,,,,,,,,,,,,,,,,,,,
,,,,,,,,,,,,a,0.25273,Correct!,0,117,117,101,1,t4.png,t5.png,1,0.90025,20,male,2020-09-11_21h50.21.761,torte-2b,2020.1.3,Win32,60,13451,,,,,,,,,,,,,,,,,,,,,,,,,,,,,,,,,,,,,,,,,,,,,,,,,,,,,,,,,,,,,,,,,
,,,,,,,,,,,,l,0.059525,Incorrect,0,118,118,49,1,t4.png,t5.png,1,0.9,20,male,2020-09-11_21h50.21.761,torte-2b,2020.1.3,Win32,60,13451,,,,,,,,,,,,,,,,,,,,,,,,,,,,,,,,,,,,,,,,,,,,,,,,,,,,,,,,,,,,,,,,,
,,,,,,,,,,,,l,0.11529,Incorrect,0,119,119,62,1,t5.png,t5.png,0,0.978,20,male,2020-09-11_21h50.21.761,torte-2b,2020.1.3,Win32,60,13451,,,,,,,,,,,,,,,,,,,,,,,,,,,,,,,,,,,,,,,,,,,,,,,,,,,,,,,,,,,,,,,,,
,,,,,,,,,,,,l,1.313225,Incorrect,,,,,,t5.png,t4.png,1,0.90025,20,male,2020-09-11_21h50.21.761,torte-2b,2020.1.3,Win32,60,13451,a,0.016955,a,22.082145,0,0,0,27,1,,,,,,,,,,,,,,,,,,,,,,,,,,,,,,,,,,,,,,,,,,,,,,,,,,,,,,,,
,,,,,,,,,,,,a,1.217805,Correct!,,,,,,t1.png,t2.png,1,0.90025,20,male,2020-09-11_21h50.21.761,torte-2b,2020.1.3,Win32,60,13451,,,,,0,1,1,33,1,,,,,,,,,,,,,,,,,,,,,,,,,,,,,,,,,,,,,,,,,,,,,,,,,,,,,,,,
,,,,,,,,,,,,a,2.375665,Incorrect,,,,,,t4.png,t2.png,2,0.059078,20,male,2020-09-11_21h50.21.761,torte-2b,2020.1.3,Win32,60,13451,,,,,0,2,2,109,1,,,,,,,,,,,,,,,,,,,,,,,,,,,,,,,,,,,,,,,,,,,,,,,,,,,,,,,,
,,,,,,,,,,,,l,2.111175,Correct!,,,,,,t2.png,t4.png,2,0.059078,20,male,2020-09-11_21h50.21.761,torte-2b,2020.1.3,Win32,60,13451,,,,,0,3,3,77,1,,,,,,,,,,,,,,,,,,,,,,,,,,,,,,,,,,,,,,,,,,,,,,,,,,,,,,,,
,,,,,,,,,,,,,,Too slow :(,,,,,,t5.png,t2.png,3,0.0000131,20,male,2020-09-11_21h50.21.761,torte-2b,2020.1.3,Win32,60,13451,,,,,0,4,4,116,1,,,,,,,,,,,,,,,,,,,,,,,,,,,,,,,,,,,,,,,,,,,,,,,,,,,,,,,,
,,,,,,,,,,,,l,1.39728,Incorrect,,,,,,t3.png,t2.png,1,0.90855,20,male,2020-09-11_21h50.21.761,torte-2b,2020.1.3,Win32,60,13451,,,,,0,5,5,97,1,,,,,,,,,,,,,,,,,,,,,,,,,,,,,,,,,,,,,,,,,,,,,,,,,,,,,,,,
,,,,,,,,,,,,a,1.90722,Incorrect,,,,,,t4.png,t3.png,1,0.90855,20,male,2020-09-11_21h50.21.761,torte-2b,2020.1.3,Win32,60,13451,,,,,0,6,6,35,1,,,,,,,,,,,,,,,,,,,,,,,,,,,,,,,,,,,,,,,,,,,,,,,,,,,,,,,,
,,,,,,,,,,,,a,1.577585,Incorrect,,,,,,t5.png,t1.png,4,9.55E-11,20,male,2020-09-11_21h50.21.761,torte-2b,2020.1.3,Win32,60,13451,,,,,0,7,7,71,1,,,,,,,,,,,,,,,,,,,,,,,,,,,,,,,,,,,,,,,,,,,,,,,,,,,,,,,,
,,,,,,,,,,,,l,1.357595,Incorrect,,,,,,t1.png,t1.png,0,0.97829,20,male,2020-09-11_21h50.21.761,torte-2b,2020.1.3,Win32,60,13451,,,,,0,8,8,78,1,,,,,,,,,,,,,,,,,,,,,,,,,,,,,,,,,,,,,,,,,,,,,,,,,,,,,,,,
,,,,,,,,,,,,,,Too slow :(,,,,,,t4.png,t3.png,1,0.909,20,male,2020-09-11_21h50.21.761,torte-2b,2020.1.3,Win32,60,13451,,,,,0,9,9,46,1,,,,,,,,,,,,,,,,,,,,,,,,,,,,,,,,,,,,,,,,,,,,,,,,,,,,,,,,
,,,,,,,,,,,,a,1.405135,Incorrect,,,,,,t3.png,t5.png,2,0.0565,20,male,2020-09-11_21h50.21.761,torte-2b,2020.1.3,Win32,60,13451,,,,,0,10,10,30,1,,,,,,,,,,,,,,,,,,,,,,,,,,,,,,,,,,,,,,,,,,,,,,,,,,,,,,,,
,,,,,,,,,,,,l,1.301325,Correct!,,,,,,t3.png,t1.png,2,0.056466,20,male,2020-09-11_21h50.21.761,torte-2b,2020.1.3,Win32,60,13451,,,,,0,11,11,32,1,,,,,,,,,,,,,,,,,,,,,,,,,,,,,,,,,,,,,,,,,,,,,,,,,,,,,,,,
,,,,,,,,,,,,a,1.29274,Correct!,,,,,,t4.png,t4.png,0,0.98115,20,male,2020-09-11_21h50.21.761,torte-2b,2020.1.3,Win32,60,13451,,,,,0,12,12,52,1,,,,,,,,,,,,,,,,,,,,,,,,,,,,,,,,,,,,,,,,,,,,,,,,,,,,,,,,
,,,,,,,,,,,,a,1.601485,Incorrect,,,,,,t5.png,t2.png,3,0.0000131,20,male,2020-09-11_21h50.21.761,torte-2b,2020.1.3,Win32,60,13451,,,,,0,13,13,119,1,,,,,,,,,,,,,,,,,,,,,,,,,,,,,,,,,,,,,,,,,,,,,,,,,,,,,,,,
,,,,,,,,,,,,l,1.619525,Correct!,,,,,,t4.png,t1.png,3,0.0000131,20,male,2020-09-11_21h50.21.761,torte-2b,2020.1.3,Win32,60,13451,,,,,0,14,14,61,1,,,,,,,,,,,,,,,,,,,,,,,,,,,,,,,,,,,,,,,,,,,,,,,,,,,,,,,,
,,,,,,,,,,,,l,1.09909,Incorrect,,,,,,t2.png,t2.png,0,0.98115,20,male,2020-09-11_21h50.21.761,torte-2b,2020.1.3,Win32,60,13451,,,,,0,15,15,7,1,,,,,,,,,,,,,,,,,,,,,,,,,,,,,,,,,,,,,,,,,,,,,,,,,,,,,,,,
,,,,,,,,,,,,l,1.56337,Correct!,,,,,,t2.png,t1.png,1,0.90025,20,male,2020-09-11_21h50.21.761,torte-2b,2020.1.3,Win32,60,13451,,,,,0,16,16,19,1,,,,,,,,,,,,,,,,,,,,,,,,,,,,,,,,,,,,,,,,,,,,,,,,,,,,,,,,
,,,,,,,,,,,,a,1.33488,Correct!,,,,,,t1.png,t1.png,0,0.978,20,male,2020-09-11_21h50.21.761,torte-2b,2020.1.3,Win32,60,13451,,,,,0,17,17,54,1,,,,,,,,,,,,,,,,,,,,,,,,,,,,,,,,,,,,,,,,,,,,,,,,,,,,,,,,
,,,,,,,,,,,,l,1.798975,Incorrect,,,,,,t2.png,t2.png,0,0.981,20,male,2020-09-11_21h50.21.761,torte-2b,2020.1.3,Win32,60,13451,,,,,0,18,18,101,1,,,,,,,,,,,,,,,,,,,,,,,,,,,,,,,,,,,,,,,,,,,,,,,,,,,,,,,,
,,,,,,,,,,,,a,1.78567,Incorrect,,,,,,t5.png,t2.png,3,0.0000131,20,male,2020-09-11_21h50.21.761,torte-2b,2020.1.3,Win32,60,13451,,,,,0,19,19,98,1,,,,,,,,,,,,,,,,,,,,,,,,,,,,,,,,,,,,,,,,,,,,,,,,,,,,,,,,
,,,,,,,,,,,,l,0.94737,Incorrect,,,,,,t3.png,t2.png,1,0.90855,20,male,2020-09-11_21h50.21.761,torte-2b,2020.1.3,Win32,60,13451,,,,,0,20,20,18,1,,,,,,,,,,,,,,,,,,,,,,,,,,,,,,,,,,,,,,,,,,,,,,,,,,,,,,,,
,,,,,,,,,,,,l,0.899675,Incorrect,,,,,,t1.png,t1.png,0,0.97829,20,male,2020-09-11_21h50.21.761,torte-2b,2020.1.3,Win32,60,13451,,,,,0,21,21,9,1,,,,,,,,,,,,,,,,,,,,,,,,,,,,,,,,,,,,,,,,,,,,,,,,,,,,,,,,
,,,,,,,,,,,,a,0.621345,Incorrect,,,,,,t4.png,t2.png,2,0.059078,20,male,2020-09-11_21h50.21.761,torte-2b,2020.1.3,Win32,60,13451,,,,,0,22,22,110,1,,,,,,,,,,,,,,,,,,,,,,,,,,,,,,,,,,,,,,,,,,,,,,,,,,,,,,,,
,,,,,,,,,,,,a,0.191015,Correct!,,,,,,t3.png,t2.png,1,0.90855,20,male,2020-09-11_21h50.21.761,torte-2b,2020.1.3,Win32,60,13451,,,,,0,23,23,53,1,,,,,,,,,,,,,,,,,,,,,,,,,,,,,,,,,,,,,,,,,,,,,,,,,,,,,,,,
,,,,,,,,,,,,a,1.13943,Correct!,,,,,,t5.png,t5.png,0,0.97829,20,male,2020-09-11_21h50.21.761,torte-2b,2020.1.3,Win32,60,13451,,,,,0,24,24,94,1,,,,,,,,,,,,,,,,,,,,,,,,,,,,,,,,,,,,,,,,,,,,,,,,,,,,,,,,
,,,,,,,,,,,,l,0.857735,Incorrect,,,,,,t1.png,t2.png,1,0.90025,20,male,2020-09-11_21h50.21.761,torte-2b,2020.1.3,Win32,60,13451,,,,,0,25,25,72,1,,,,,,,,,,,,,,,,,,,,,,,,,,,,,,,,,,,,,,,,,,,,,,,,,,,,,,,,
,,,,,,,,,,,,a,0.445605,Correct!,,,,,,t3.png,t4.png,1,0.90855,20,male,2020-09-11_21h50.21.761,torte-2b,2020.1.3,Win32,60,13451,,,,,0,26,26,96,1,,,,,,,,,,,,,,,,,,,,,,,,,,,,,,,,,,,,,,,,,,,,,,,,,,,,,,,,
,,,,,,,,,,,,a,0.965935,Incorrect,,,,,,t5.png,t2.png,3,0.0000131,20,male,2020-09-11_21h50.21.761,torte-2b,2020.1.3,Win32,60,13451,,,,,0,27,27,91,1,,,,,,,,,,,,,,,,,,,,,,,,,,,,,,,,,,,,,,,,,,,,,,,,,,,,,,,,
,,,,,,,,,,,,a,1.384965,Correct!,,,,,,t4.png,t5.png,1,0.90025,20,male,2020-09-11_21h50.21.761,torte-2b,2020.1.3,Win32,60,13451,,,,,0,28,28,103,1,,,,,,,,,,,,,,,,,,,,,,,,,,,,,,,,,,,,,,,,,,,,,,,,,,,,,,,,
,,,,,,,,,,,,l,1.38753,Correct!,,,,,,t1.png,t5.png,4,9.55E-11,20,male,2020-09-11_21h50.21.761,torte-2b,2020.1.3,Win32,60,13451,,,,,0,29,29,16,1,,,,,,,,,,,,,,,,,,,,,,,,,,,,,,,,,,,,,,,,,,,,,,,,,,,,,,,,
,,,,,,,,,,,,l,1.59391,Correct!,,,,,,t3.png,t1.png,2,0.056466,20,male,2020-09-11_21h50.21.761,torte-2b,2020.1.3,Win32,60,13451,,,,,0,30,30,29,1,,,,,,,,,,,,,,,,,,,,,,,,,,,,,,,,,,,,,,,,,,,,,,,,,,,,,,,,
,,,,,,,,,,,,l,2.09151,Incorrect,,,,,,t2.png,t3.png,1,0.90855,20,male,2020-09-11_21h50.21.761,torte-2b,2020.1.3,Win32,60,13451,,,,,0,31,31,65,1,,,,,,,,,,,,,,,,,,,,,,,,,,,,,,,,,,,,,,,,,,,,,,,,,,,,,,,,
,,,,,,,,,,,,l,1.86259,Correct!,,,,,,t4.png,t1.png,3,0.0000131,20,male,2020-09-11_21h50.21.761,torte-2b,2020.1.3,Win32,60,13451,,,,,0,32,32,93,1,,,,,,,,,,,,,,,,,,,,,,,,,,,,,,,,,,,,,,,,,,,,,,,,,,,,,,,,
,,,,,,,,,,,,a,0.632625,Correct!,,,,,,t4.png,t5.png,1,0.90025,20,male,2020-09-11_21h50.21.761,torte-2b,2020.1.3,Win32,60,13451,,,,,0,33,33,58,1,,,,,,,,,,,,,,,,,,,,,,,,,,,,,,,,,,,,,,,,,,,,,,,,,,,,,,,,
,,,,,,,,,,,,a,1.60462,Correct!,,,,,,t4.png,t3.png,1,0.909,20,male,2020-09-11_21h50.21.761,torte-2b,2020.1.3,Win32,60,13451,,,,,0,34,34,20,1,,,,,,,,,,,,,,,,,,,,,,,,,,,,,,,,,,,,,,,,,,,,,,,,,,,,,,,,
,,,,,,,,,,,,l,1.60653,Incorrect,,,,,,t5.png,t5.png,0,0.97829,20,male,2020-09-11_21h50.21.761,torte-2b,2020.1.3,Win32,60,13451,,,,,0,35,35,25,1,,,,,,,,,,,,,,,,,,,,,,,,,,,,,,,,,,,,,,,,,,,,,,,,,,,,,,,,
,,,,,,,,,,,,l,1.966315,Correct!,,,,,,t1.png,t3.png,2,0.056466,20,male,2020-09-11_21h50.21.761,torte-2b,2020.1.3,Win32,60,13451,,,,,0,36,36,99,1,,,,,,,,,,,,,,,,,,,,,,,,,,,,,,,,,,,,,,,,,,,,,,,,,,,,,,,,
,,,,,,,,,,,,a,1.154,Incorrect,,,,,,t5.png,t3.png,2,0.0565,20,male,2020-09-11_21h50.21.761,torte-2b,2020.1.3,Win32,60,13451,,,,,0,37,37,39,1,,,,,,,,,,,,,,,,,,,,,,,,,,,,,,,,,,,,,,,,,,,,,,,,,,,,,,,,
,,,,,,,,,,,,a,1.89721,Incorrect,,,,,,t5.png,t2.png,3,0.0000131,20,male,2020-09-11_21h50.21.761,torte-2b,2020.1.3,Win32,60,13451,,,,,0,38,38,51,1,,,,,,,,,,,,,,,,,,,,,,,,,,,,,,,,,,,,,,,,,,,,,,,,,,,,,,,,
,,,,,,,,,,,,l,2.059045,Incorrect,,,,,,t4.png,t3.png,1,0.90855,20,male,2020-09-11_21h50.21.761,torte-2b,2020.1.3,Win32,60,13451,,,,,0,39,39,75,1,,,,,,,,,,,,,,,,,,,,,,,,,,,,,,,,,,,,,,,,,,,,,,,,,,,,,,,,
,,,,,,,,,,,,a,1.676095,Correct!,,,,,,t3.png,t4.png,1,0.909,20,male,2020-09-11_21h50.21.761,torte-2b,2020.1.3,Win32,60,13451,,,,,0,40,40,82,1,,,,,,,,,,,,,,,,,,,,,,,,,,,,,,,,,,,,,,,,,,,,,,,,,,,,,,,,
,,,,,,,,,,,,l,2.105145,Correct!,,,,,,t5.png,t1.png,4,9.55E-11,20,male,2020-09-11_21h50.21.761,torte-2b,2020.1.3,Win32,60,13451,,,,,0,41,41,22,1,,,,,,,,,,,,,,,,,,,,,,,,,,,,,,,,,,,,,,,,,,,,,,,,,,,,,,,,
,,,,,,,,,,,,l,1.778445,Correct!,,,,,,t1.png,t4.png,3,0.0000131,20,male,2020-09-11_21h50.21.761,torte-2b,2020.1.3,Win32,60,13451,,,,,0,42,42,17,1,,,,,,,,,,,,,,,,,,,,,,,,,,,,,,,,,,,,,,,,,,,,,,,,,,,,,,,,
,,,,,,,,,,,,a,1.36276,Incorrect,,,,,,t5.png,t3.png,2,0.056466,20,male,2020-09-11_21h50.21.761,torte-2b,2020.1.3,Win32,60,13451,,,,,0,43,43,56,1,,,,,,,,,,,,,,,,,,,,,,,,,,,,,,,,,,,,,,,,,,,,,,,,,,,,,,,,
,,,,,,,,,,,,l,2.07276,Correct!,,,,,,t5.png,t1.png,4,9.55E-11,20,male,2020-09-11_21h50.21.761,torte-2b,2020.1.3,Win32,60,13451,,,,,0,44,44,100,1,,,,,,,,,,,,,,,,,,,,,,,,,,,,,,,,,,,,,,,,,,,,,,,,,,,,,,,,
,,,,,,,,,,,,a,1.7586,Incorrect,,,,,,t2.png,t5.png,3,0.0000131,20,male,2020-09-11_21h50.21.761,torte-2b,2020.1.3,Win32,60,13451,,,,,0,45,45,66,1,,,,,,,,,,,,,,,,,,,,,,,,,,,,,,,,,,,,,,,,,,,,,,,,,,,,,,,,
,,,,,,,,,,,,l,1.279705,Incorrect,,,,,,t2.png,t2.png,0,0.98115,20,male,2020-09-11_21h50.21.761,torte-2b,2020.1.3,Win32,60,13451,,,,,0,46,46,57,1,,,,,,,,,,,,,,,,,,,,,,,,,,,,,,,,,,,,,,,,,,,,,,,,,,,,,,,,
,,,,,,,,,,,,a,1.58463,Incorrect,,,,,,t3.png,t1.png,2,0.056466,20,male,2020-09-11_21h50.21.761,torte-2b,2020.1.3,Win32,60,13451,,,,,0,47,47,0,1,,,,,,,,,,,,,,,,,,,,,,,,,,,,,,,,,,,,,,,,,,,,,,,,,,,,,,,,
,,,,,,,,,,,,a,2.341275,Correct!,,,,,,t3.png,t2.png,1,0.909,20,male,2020-09-11_21h50.21.761,torte-2b,2020.1.3,Win32,60,13451,,,,,0,48,48,23,1,,,,,,,,,,,,,,,,,,,,,,,,,,,,,,,,,,,,,,,,,,,,,,,,,,,,,,,,
,,,,,,,,,,,,l,0.6825,Incorrect,,,,,,t2.png,t2.png,0,0.98115,20,male,2020-09-11_21h50.21.761,torte-2b,2020.1.3,Win32,60,13451,,,,,0,49,49,59,1,,,,,,,,,,,,,,,,,,,,,,,,,,,,,,,,,,,,,,,,,,,,,,,,,,,,,,,,
,,,,,,,,,,,,l,1.7469,Incorrect,,,,,,t2.png,t3.png,1,0.90855,20,male,2020-09-11_21h50.21.761,torte-2b,2020.1.3,Win32,60,13451,,,,,0,50,50,111,1,,,,,,,,,,,,,,,,,,,,,,,,,,,,,,,,,,,,,,,,,,,,,,,,,,,,,,,,
,,,,,,,,,,,,l,1.854685,Correct!,,,,,,t4.png,t2.png,2,0.059078,20,male,2020-09-11_21h50.21.761,torte-2b,2020.1.3,Win32,60,13451,,,,,0,51,51,86,1,,,,,,,,,,,,,,,,,,,,,,,,,,,,,,,,,,,,,,,,,,,,,,,,,,,,,,,,
,,,,,,,,,,,,a,1.2029,Incorrect,,,,,,t4.png,t3.png,1,0.90855,20,male,2020-09-11_21h50.21.761,torte-2b,2020.1.3,Win32,60,13451,,,,,0,52,52,45,1,,,,,,,,,,,,,,,,,,,,,,,,,,,,,,,,,,,,,,,,,,,,,,,,,,,,,,,,
,,,,,,,,,,,,l,0.308325,Correct!,,,,,,t5.png,t1.png,4,9.55E-11,20,male,2020-09-11_21h50.21.761,torte-2b,2020.1.3,Win32,60,13451,,,,,0,53,53,43,1,,,,,,,,,,,,,,,,,,,,,,,,,,,,,,,,,,,,,,,,,,,,,,,,,,,,,,,,
,,,,,,,,,,,,l,0.08792,Correct!,,,,,,t2.png,t4.png,2,0.0591,20,male,2020-09-11_21h50.21.761,torte-2b,2020.1.3,Win32,60,13451,,,,,0,54,54,15,1,,,,,,,,,,,,,,,,,,,,,,,,,,,,,,,,,,,,,,,,,,,,,,,,,,,,,,,,
,,,,,,,,,,,,l,1.86193,Correct!,,,,,,t1.png,t4.png,3,0.0000131,20,male,2020-09-11_21h50.21.761,torte-2b,2020.1.3,Win32,60,13451,,,,,0,55,55,107,1,,,,,,,,,,,,,,,,,,,,,,,,,,,,,,,,,,,,,,,,,,,,,,,,,,,,,,,,
,,,,,,,,,,,,a,1.807285,Incorrect,,,,,,t3.png,t5.png,2,0.056466,20,male,2020-09-11_21h50.21.761,torte-2b,2020.1.3,Win32,60,13451,,,,,0,56,56,6,1,,,,,,,,,,,,,,,,,,,,,,,,,,,,,,,,,,,,,,,,,,,,,,,,,,,,,,,,
,,,,,,,,,,,,a,1.38268,Correct!,,,,,,t3.png,t4.png,1,0.909,20,male,2020-09-11_21h50.21.761,torte-2b,2020.1.3,Win32,60,13451,,,,,0,57,57,106,1,,,,,,,,,,,,,,,,,,,,,,,,,,,,,,,,,,,,,,,,,,,,,,,,,,,,,,,,
,,,,,,,,,,,,l,1.543105,Correct!,,,,,,t4.png,t1.png,3,0.0000131,20,male,2020-09-11_21h50.21.761,torte-2b,2020.1.3,Win32,60,13451,,,,,0,58,58,48,1,,,,,,,,,,,,,,,,,,,,,,,,,,,,,,,,,,,,,,,,,,,,,,,,,,,,,,,,
,,,,,,,,,,,,a,1.508435,Correct!,,,,,,t5.png,t4.png,1,0.90025,20,male,2020-09-11_21h50.21.761,torte-2b,2020.1.3,Win32,60,13451,,,,,0,59,59,26,1,,,,,,,,,,,,,,,,,,,,,,,,,,,,,,,,,,,,,,,,,,,,,,,,,,,,,,,,
,,,,,,,,,,,,a,2.251215,Correct!,,,,,,t4.png,t5.png,1,0.90025,20,male,2020-09-11_21h50.21.761,torte-2b,2020.1.3,Win32,60,13451,,,,,0,60,60,113,1,,,,,,,,,,,,,,,,,,,,,,,,,,,,,,,,,,,,,,,,,,,,,,,,,,,,,,,,
,,,,,,,,,,,,a,2.100115,Incorrect,,,,,,t2.png,t4.png,2,0.059078,20,male,2020-09-11_21h50.21.761,torte-2b,2020.1.3,Win32,60,13451,,,,,0,61,61,24,1,,,,,,,,,,,,,,,,,,,,,,,,,,,,,,,,,,,,,,,,,,,,,,,,,,,,,,,,
,,,,,,,,,,,,a,1.092015,Correct!,,,,,,t5.png,t5.png,0,0.97829,20,male,2020-09-11_21h50.21.761,torte-2b,2020.1.3,Win32,60,13451,,,,,0,62,62,70,1,,,,,,,,,,,,,,,,,,,,,,,,,,,,,,,,,,,,,,,,,,,,,,,,,,,,,,,,
,,,,,,,,,,,,a,2.141065,Correct!,,,,,,t5.png,t3.png,2,0.056466,20,male,2020-09-11_21h50.21.761,torte-2b,2020.1.3,Win32,60,13451,,,,,0,63,63,114,1,,,,,,,,,,,,,,,,,,,,,,,,,,,,,,,,,,,,,,,,,,,,,,,,,,,,,,,,
,,,,,,,,,,,,l,1.875735,Correct!,,,,,,t4.png,t1.png,3,0.0000131,20,male,2020-09-11_21h50.21.761,torte-2b,2020.1.3,Win32,60,13451,,,,,0,64,64,42,1,,,,,,,,,,,,,,,,,,,,,,,,,,,,,,,,,,,,,,,,,,,,,,,,,,,,,,,,
,,,,,,,,,,,,,,Too slow :(,,,,,,t1.png,t2.png,1,0.90025,20,male,2020-09-11_21h50.21.761,torte-2b,2020.1.3,Win32,60,13451,,,,,0,65,65,105,1,,,,,,,,,,,,,,,,,,,,,,,,,,,,,,,,,,,,,,,,,,,,,,,,,,,,,,,,
,,,,,,,,,,,,a,2.077505,Incorrect,,,,,,t3.png,t5.png,2,0.056466,20,male,2020-09-11_21h50.21.761,torte-2b,2020.1.3,Win32,60,13451,,,,,0,66,66,14,1,,,,,,,,,,,,,,,,,,,,,,,,,,,,,,,,,,,,,,,,,,,,,,,,,,,,,,,,
,,,,,,,,,,,,l,0.08477,Incorrect,,,,,,t5.png,t4.png,1,0.9,20,male,2020-09-11_21h50.21.761,torte-2b,2020.1.3,Win32,60,13451,,,,,0,67,67,76,1,,,,,,,,,,,,,,,,,,,,,,,,,,,,,,,,,,,,,,,,,,,,,,,,,,,,,,,,
,,,,,,,,,,,,l,1.45362,Correct!,,,,,,t1.png,t4.png,3,0.0000131,20,male,2020-09-11_21h50.21.761,torte-2b,2020.1.3,Win32,60,13451,,,,,0,68,68,50,1,,,,,,,,,,,,,,,,,,,,,,,,,,,,,,,,,,,,,,,,,,,,,,,,,,,,,,,,
,,,,,,,,,,,,l,0.924305,Correct!,,,,,,t1.png,t3.png,2,0.056466,20,male,2020-09-11_21h50.21.761,torte-2b,2020.1.3,Win32,60,13451,,,,,0,69,69,60,1,,,,,,,,,,,,,,,,,,,,,,,,,,,,,,,,,,,,,,,,,,,,,,,,,,,,,,,,
,,,,,,,,,,,,l,0.785815,Incorrect,,,,,,t2.png,t1.png,1,0.90025,20,male,2020-09-11_21h50.21.761,torte-2b,2020.1.3,Win32,60,13451,,,,,0,70,70,5,1,,,,,,,,,,,,,,,,,,,,,,,,,,,,,,,,,,,,,,,,,,,,,,,,,,,,,,,,
,,,,,,,,,,,,a,0.74446,Correct!,,,,,,t4.png,t5.png,1,0.9,20,male,2020-09-11_21h50.21.761,torte-2b,2020.1.3,Win32,60,13451,,,,,0,71,71,115,1,,,,,,,,,,,,,,,,,,,,,,,,,,,,,,,,,,,,,,,,,,,,,,,,,,,,,,,,
,,,,,,,,,,,,a,1.64026,Incorrect,,,,,,t3.png,t5.png,2,0.056466,20,male,2020-09-11_21h50.21.761,torte-2b,2020.1.3,Win32,60,13451,,,,,0,72,72,44,1,,,,,,,,,,,,,,,,,,,,,,,,,,,,,,,,,,,,,,,,,,,,,,,,,,,,,,,,
,,,,,,,,,,,,l,0.792765,Correct!,,,,,,t1.png,t3.png,2,0.056466,20,male,2020-09-11_21h50.21.761,torte-2b,2020.1.3,Win32,60,13451,,,,,0,73,73,87,1,,,,,,,,,,,,,,,,,,,,,,,,,,,,,,,,,,,,,,,,,,,,,,,,,,,,,,,,
,,,,,,,,,,,,l,1.11922,Correct!,,,,,,t4.png,t1.png,3,0.0000131,20,male,2020-09-11_21h50.21.761,torte-2b,2020.1.3,Win32,60,13451,,,,,0,74,74,13,1,,,,,,,,,,,,,,,,,,,,,,,,,,,,,,,,,,,,,,,,,,,,,,,,,,,,,,,,
,,,,,,,,,,,,l,1.08432,Incorrect,,,,,,t2.png,t1.png,1,0.9,20,male,2020-09-11_21h50.21.761,torte-2b,2020.1.3,Win32,60,13451,,,,,0,75,75,118,1,,,,,,,,,,,,,,,,,,,,,,,,,,,,,,,,,,,,,,,,,,,,,,,,,,,,,,,,
,,,,,,,,,,,,a,1.27124,Incorrect,,,,,,t1.png,t5.png,4,9.55E-11,20,male,2020-09-11_21h50.21.761,torte-2b,2020.1.3,Win32,60,13451,,,,,0,76,76,85,1,,,,,,,,,,,,,,,,,,,,,,,,,,,,,,,,,,,,,,,,,,,,,,,,,,,,,,,,
,,,,,,,,,,,,l,1.23885,Incorrect,,,,,,t2.png,t3.png,1,0.90855,20,male,2020-09-11_21h50.21.761,torte-2b,2020.1.3,Win32,60,13451,,,,,0,77,77,68,1,,,,,,,,,,,,,,,,,,,,,,,,,,,,,,,,,,,,,,,,,,,,,,,,,,,,,,,,
,,,,,,,,,,,,a,1.13265,Incorrect,,,,,,t2.png,t5.png,3,0.0000131,20,male,2020-09-11_21h50.21.761,torte-2b,2020.1.3,Win32,60,13451,,,,,0,78,78,8,1,,,,,,,,,,,,,,,,,,,,,,,,,,,,,,,,,,,,,,,,,,,,,,,,,,,,,,,,
,,,,,,,,,,,,l,2.030185,Correct!,,,,,,t1.png,t5.png,4,9.55E-11,20,male,2020-09-11_21h50.21.761,torte-2b,2020.1.3,Win32,60,13451,,,,,0,79,79,55,1,,,,,,,,,,,,,,,,,,,,,,,,,,,,,,,,,,,,,,,,,,,,,,,,,,,,,,,,
,,,,,,,,,,,,l,2.14686,Correct!,,,,,,t1.png,t3.png,2,0.056466,20,male,2020-09-11_21h50.21.761,torte-2b,2020.1.3,Win32,60,13451,,,,,0,80,80,63,1,,,,,,,,,,,,,,,,,,,,,,,,,,,,,,,,,,,,,,,,,,,,,,,,,,,,,,,,
,,,,,,,,,,,,a,2.01582,Correct!,,,,,,t4.png,t4.png,0,0.98115,20,male,2020-09-11_21h50.21.761,torte-2b,2020.1.3,Win32,60,13451,,,,,0,81,81,79,1,,,,,,,,,,,,,,,,,,,,,,,,,,,,,,,,,,,,,,,,,,,,,,,,,,,,,,,,
,,,,,,,,,,,,l,1.543285,Correct!,,,,,,t2.png,t1.png,1,0.90025,20,male,2020-09-11_21h50.21.761,torte-2b,2020.1.3,Win32,60,13451,,,,,0,82,82,62,1,,,,,,,,,,,,,,,,,,,,,,,,,,,,,,,,,,,,,,,,,,,,,,,,,,,,,,,,
,,,,,,,,,,,,a,1.59914,Correct!,,,,,,t4.png,t4.png,0,0.98115,20,male,2020-09-11_21h50.21.761,torte-2b,2020.1.3,Win32,60,13451,,,,,0,83,83,90,1,,,,,,,,,,,,,,,,,,,,,,,,,,,,,,,,,,,,,,,,,,,,,,,,,,,,,,,,
,,,,,,,,,,,,l,2.24476,Correct!,,,,,,t4.png,t2.png,2,0.0591,20,male,2020-09-11_21h50.21.761,torte-2b,2020.1.3,Win32,60,13451,,,,,0,84,84,36,1,,,,,,,,,,,,,,,,,,,,,,,,,,,,,,,,,,,,,,,,,,,,,,,,,,,,,,,,
,,,,,,,,,,,,,,Too slow :(,,,,,,t3.png,t4.png,1,0.90855,20,male,2020-09-11_21h50.21.761,torte-2b,2020.1.3,Win32,60,13451,,,,,0,85,85,84,1,,,,,,,,,,,,,,,,,,,,,,,,,,,,,,,,,,,,,,,,,,,,,,,,,,,,,,,,
,,,,,,,,,,,,a,1.994185,Incorrect,,,,,,t5.png,t3.png,2,0.056466,20,male,2020-09-11_21h50.21.761,torte-2b,2020.1.3,Win32,60,13451,,,,,0,86,86,108,1,,,,,,,,,,,,,,,,,,,,,,,,,,,,,,,,,,,,,,,,,,,,,,,,,,,,,,,,
,,,,,,,,,,,,a,1.132585,Correct!,,,,,,t5.png,t5.png,0,0.97829,20,male,2020-09-11_21h50.21.761,torte-2b,2020.1.3,Win32,60,13451,,,,,0,87,87,73,1,,,,,,,,,,,,,,,,,,,,,,,,,,,,,,,,,,,,,,,,,,,,,,,,,,,,,,,,
,,,,,,,,,,,,a,1.632845,Correct!,,,,,,t4.png,t4.png,0,0.98115,20,male,2020-09-11_21h50.21.761,torte-2b,2020.1.3,Win32,60,13451,,,,,0,88,88,21,1,,,,,,,,,,,,,,,,,,,,,,,,,,,,,,,,,,,,,,,,,,,,,,,,,,,,,,,,
,,,,,,,,,,,,l,1.329035,Incorrect,,,,,,t2.png,t1.png,1,0.90025,20,male,2020-09-11_21h50.21.761,torte-2b,2020.1.3,Win32,60,13451,,,,,0,89,89,4,1,,,,,,,,,,,,,,,,,,,,,,,,,,,,,,,,,,,,,,,,,,,,,,,,,,,,,,,,
,,,,,,,,,,,,a,0.768055,Incorrect,,,,,,t2.png,t4.png,2,0.059078,20,male,2020-09-11_21h50.21.761,torte-2b,2020.1.3,Win32,60,13451,,,,,0,90,90,11,1,,,,,,,,,,,,,,,,,,,,,,,,,,,,,,,,,,,,,,,,,,,,,,,,,,,,,,,,
,,,,,,,,,,,,l,1.19609,Correct!,,,,,,t5.png,t1.png,4,9.55E-11,20,male,2020-09-11_21h50.21.761,torte-2b,2020.1.3,Win32,60,13451,,,,,0,91,91,102,1,,,,,,,,,,,,,,,,,,,,,,,,,,,,,,,,,,,,,,,,,,,,,,,,,,,,,,,,
,,,,,,,,,,,,a,2.433355,Incorrect,,,,,,t5.png,t3.png,2,0.056466,20,male,2020-09-11_21h50.21.761,torte-2b,2020.1.3,Win32,60,13451,,,,,0,92,92,38,1,,,,,,,,,,,,,,,,,,,,,,,,,,,,,,,,,,,,,,,,,,,,,,,,,,,,,,,,
,,,,,,,,,,,,l,2.015315,Correct!,,,,,,t1.png,t3.png,2,0.056466,20,male,2020-09-11_21h50.21.761,torte-2b,2020.1.3,Win32,60,13451,,,,,0,93,93,69,1,,,,,,,,,,,,,,,,,,,,,,,,,,,,,,,,,,,,,,,,,,,,,,,,,,,,,,,,
,,,,,,,,,,,,l,1.93806,Correct!,,,,,,t1.png,t4.png,3,0.0000131,20,male,2020-09-11_21h50.21.761,torte-2b,2020.1.3,Win32,60,13451,,,,,0,94,94,92,1,,,,,,,,,,,,,,,,,,,,,,,,,,,,,,,,,,,,,,,,,,,,,,,,,,,,,,,,
,,,,,,,,,,,,a,1.3694,Incorrect,,,,,,t2.png,t5.png,3,0.0000131,20,male,2020-09-11_21h50.21.761,torte-2b,2020.1.3,Win32,60,13451,,,,,0,95,95,104,1,,,,,,,,,,,,,,,,,,,,,,,,,,,,,,,,,,,,,,,,,,,,,,,,,,,,,,,,
,,,,,,,,,,,,a,2.06399,Incorrect,,,,,,t2.png,t5.png,3,0.0000131,20,male,2020-09-11_21h50.21.761,torte-2b,2020.1.3,Win32,60,13451,,,,,0,96,96,95,1,,,,,,,,,,,,,,,,,,,,,,,,,,,,,,,,,,,,,,,,,,,,,,,,,,,,,,,,
,,,,,,,,,,,,l,1.71148,Correct!,,,,,,t1.png,t5.png,4,9.55E-11,20,male,2020-09-11_21h50.21.761,torte-2b,2020.1.3,Win32,60,13451,,,,,0,97,97,12,1,,,,,,,,,,,,,,,,,,,,,,,,,,,,,,,,,,,,,,,,,,,,,,,,,,,,,,,,
,,,,,,,,,,,,a,1.54976,Incorrect,,,,,,t3.png,t1.png,2,0.0565,20,male,2020-09-11_21h50.21.761,torte-2b,2020.1.3,Win32,60,13451,,,,,0,98,98,31,1,,,,,,,,,,,,,,,,,,,,,,,,,,,,,,,,,,,,,,,,,,,,,,,,,,,,,,,,
,,,,,,,,,,,,l,1.550515,Correct!,,,,,,t1.png,t4.png,3,0.0000131,20,male,2020-09-11_21h50.21.761,torte-2b,2020.1.3,Win32,60,13451,,,,,0,99,99,81,1,,,,,,,,,,,,,,,,,,,,,,,,,,,,,,,,,,,,,,,,,,,,,,,,,,,,,,,,
,,,,,,,,,,,,l,1.32062,Incorrect,,,,,,t2.png,t3.png,1,0.90855,20,male,2020-09-11_21h50.21.761,torte-2b,2020.1.3,Win32,60,13451,,,,,0,100,100,10,1,,,,,,,,,,,,,,,,,,,,,,,,,,,,,,,,,,,,,,,,,,,,,,,,,,,,,,,,
,,,,,,,,,,,,l,1.029315,Incorrect,,,,,,t2.png,t3.png,1,0.909,20,male,2020-09-11_21h50.21.761,torte-2b,2020.1.3,Win32,60,13451,,,,,0,101,101,74,1,,,,,,,,,,,,,,,,,,,,,,,,,,,,,,,,,,,,,,,,,,,,,,,,,,,,,,,,
,,,,,,,,,,,,a,1.919665,Correct!,,,,,,t4.png,t5.png,1,0.90025,20,male,2020-09-11_21h50.21.761,torte-2b,2020.1.3,Win32,60,13451,,,,,0,102,102,47,1,,,,,,,,,,,,,,,,,,,,,,,,,,,,,,,,,,,,,,,,,,,,,,,,,,,,,,,,
,,,,,,,,,,,,l,1.316335,Incorrect,,,,,,t3.png,t2.png,1,0.909,20,male,2020-09-11_21h50.21.761,torte-2b,2020.1.3,Win32,60,13451,,,,,0,103,103,3,1,,,,,,,,,,,,,,,,,,,,,,,,,,,,,,,,,,,,,,,,,,,,,,,,,,,,,,,,
,,,,,,,,,,,,l,1.362635,Incorrect,,,,,,t1.png,t2.png,1,0.90025,20,male,2020-09-11_21h50.21.761,torte-2b,2020.1.3,Win32,60,13451,,,,,0,104,104,112,1,,,,,,,,,,,,,,,,,,,,,,,,,,,,,,,,,,,,,,,,,,,,,,,,,,,,,,,,
,,,,,,,,,,,,l,1.31343,Correct!,,,,,,t4.png,t2.png,2,0.059078,20,male,2020-09-11_21h50.21.761,torte-2b,2020.1.3,Win32,60,13451,,,,,0,105,105,88,1,,,,,,,,,,,,,,,,,,,,,,,,,,,,,,,,,,,,,,,,,,,,,,,,,,,,,,,,
,,,,,,,,,,,,l,1.781425,Incorrect,,,,,,t3.png,t4.png,1,0.909,20,male,2020-09-11_21h50.21.761,torte-2b,2020.1.3,Win32,60,13451,,,,,0,106,106,89,1,,,,,,,,,,,,,,,,,,,,,,,,,,,,,,,,,,,,,,,,,,,,,,,,,,,,,,,,
,,,,,,,,,,,,l,2.182145,Incorrect,,,,,,t5.png,t4.png,1,0.90025,20,male,2020-09-11_21h50.21.761,torte-2b,2020.1.3,Win32,60,13451,,,,,0,107,107,34,1,,,,,,,,,,,,,,,,,,,,,,,,,,,,,,,,,,,,,,,,,,,,,,,,,,,,,,,,
,,,,,,,,,,,,a,1.59432,Incorrect,,,,,,t2.png,t5.png,3,0.0000131,20,male,2020-09-11_21h50.21.761,torte-2b,2020.1.3,Win32,60,13451,,,,,0,108,108,40,1,,,,,,,,,,,,,,,,,,,,,,,,,,,,,,,,,,,,,,,,,,,,,,,,,,,,,,,,
,,,,,,,,,,,,a,1.53729,Correct!,,,,,,t5.png,t4.png,1,0.9,20,male,2020-09-11_21h50.21.761,torte-2b,2020.1.3,Win32,60,13451,,,,,0,109,109,49,1,,,,,,,,,,,,,,,,,,,,,,,,,,,,,,,,,,,,,,,,,,,,,,,,,,,,,,,,
,,,,,,,,,,,,,,Too slow :(,,,,,,t2.png,t4.png,2,0.059078,20,male,2020-09-11_21h50.21.761,torte-2b,2020.1.3,Win32,60,13451,,,,,0,110,110,37,1,,,,,,,,,,,,,,,,,,,,,,,,,,,,,,,,,,,,,,,,,,,,,,,,,,,,,,,,
,,,,,,,,,,,,l,1.8441,Correct!,,,,,,t3.png,t5.png,2,0.0565,20,male,2020-09-11_21h50.21.761,torte-2b,2020.1.3,Win32,60,13451,,,,,0,111,111,83,1,,,,,,,,,,,,,,,,,,,,,,,,,,,,,,,,,,,,,,,,,,,,,,,,,,,,,,,,
,,,,,,,,,,,,a,1.361965,Incorrect,,,,,,t3.png,t1.png,2,0.056466,20,male,2020-09-11_21h50.21.761,torte-2b,2020.1.3,Win32,60,13451,,,,,0,112,112,64,1,,,,,,,,,,,,,,,,,,,,,,,,,,,,,,,,,,,,,,,,,,,,,,,,,,,,,,,,
,,,,,,,,,,,,l,0.84112,Incorrect,,,,,,t1.png,t1.png,0,0.97829,20,male,2020-09-11_21h50.21.761,torte-2b,2020.1.3,Win32,60,13451,,,,,0,113,113,67,1,,,,,,,,,,,,,,,,,,,,,,,,,,,,,,,,,,,,,,,,,,,,,,,,,,,,,,,,
,,,,,,,,,,,,a,1.115575,Correct!,,,,,,t1.png,t1.png,0,0.978,20,male,2020-09-11_21h50.21.761,torte-2b,2020.1.3,Win32,60,13451,,,,,0,114,114,28,1,,,,,,,,,,,,,,,,,,,,,,,,,,,,,,,,,,,,,,,,,,,,,,,,,,,,,,,,
,,,,,,,,,,,,a,1.73054,Correct!,,,,,,t2.png,t2.png,0,0.98115,20,male,2020-09-11_21h50.21.761,torte-2b,2020.1.3,Win32,60,13451,,,,,0,115,115,2,1,,,,,,,,,,,,,,,,,,,,,,,,,,,,,,,,,,,,,,,,,,,,,,,,,,,,,,,,
,,,,,,,,,,,,a,1.07939,Correct!,,,,,,t5.png,t5.png,0,0.978,20,male,2020-09-11_21h50.21.761,torte-2b,2020.1.3,Win32,60,13451,,,,,0,116,116,117,1,,,,,,,,,,,,,,,,,,,,,,,,,,,,,,,,,,,,,,,,,,,,,,,,,,,,,,,,
,,,,,,,,,,,,l,2.077565,Correct!,,,,,,t1.png,t5.png,4,9.55E-11,20,male,2020-09-11_21h50.21.761,torte-2b,2020.1.3,Win32,60,13451,,,,,0,117,117,41,1,,,,,,,,,,,,,,,,,,,,,,,,,,,,,,,,,,,,,,,,,,,,,,,,,,,,,,,,
,,,,,,,,,,,,l,1.16138,Incorrect,,,,,,t1.png,t2.png,1,0.9,20,male,2020-09-11_21h50.21.761,torte-2b,2020.1.3,Win32,60,13451,,,,,0,118,118,1,1,,,,,,,,,,,,,,,,,,,,,,,,,,,,,,,,,,,,,,,,,,,,,,,,,,,,,,,,
,,,,,,,,,,,,a,1.218845,Correct!,,,,,,t4.png,t4.png,0,0.98115,20,male,2020-09-11_21h50.21.761,torte-2b,2020.1.3,Win32,60,13451,,,,,0,119,119,80,1,,,,,,,,,,,,,,,,,,,,,,,,,,,,,,,,,,,,,,,,,,,,,,,,,,,,,,,,
,,,,,,,,,,,,,,,,,,,,,,,,20,male,2020-09-11_21h50.21.761,torte-2b,2020.1.3,Win32,60,13451,a,1.23057,,,,,,,,space,28.45633,,0,0,0,0,1,6,,,,,,,,,,,,,,,,,,,,,,,,,,,,,,,,,,,,,,,,,,,,,,,
,,,,,,,,,,,,,,,,,,,,,,,,20,male,2020-09-11_21h50.21.761,torte-2b,2020.1.3,Win32,60,13451,,,,,,,,,,,,,0,1,1,1,1,7,,,,,,,,,,,,,,,,,,,,,,,,,,,,,,,,,,,,,,,,,,,,,,,
,,,,,,,,,,,,,,,,,,,,,,,,20,male,2020-09-11_21h50.21.761,torte-2b,2020.1.3,Win32,60,13451,,,,,,,,,,,,space,0,2,2,2,1,6,0.53612,,,,,,,,,,,,,,,,,,,,,,,,,,,,,,,,,,,,,,,,,,,,,,
,,,,,,,,,,,,,,,,,,,,,,,,20,male,2020-09-11_21h50.21.761,torte-2b,2020.1.3,Win32,60,13451,,,,,,,,,,,,space,0,3,3,3,1,7,0.475035,,,,,,,,,,,,,,,,,,,,,,,,,,,,,,,,,,,,,,,,,,,,,,
,,,,,,,,,,,,,,,,,,,,,,,,20,male,2020-09-11_21h50.21.761,torte-2b,2020.1.3,Win32,60,13451,,,,,,,,,,,,,0,4,4,4,1,5,,,,,,,,,,,,,,,,,,,,,,,,,,,,,,,,,,,,,,,,,,,,,,,
,,,,,,,,,,,,,,,,,,,,,,,,20,male,2020-09-11_21h50.21.761,torte-2b,2020.1.3,Win32,60,13451,,,,,,,,,,,,,0,5,5,5,1,7,,,,,,,,,,,,,,,,,,,,,,,,,,,,,,,,,,,,,,,,,,,,,,,
,,,,,,,,,,,,,,,,,,,,,,,,20,male,2020-09-11_21h50.21.761,torte-2b,2020.1.3,Win32,60,13451,,,,,,,,,,,,,0,6,6,6,1,2,,,,,,,,,,,,,,,,,,,,,,,,,,,,,,,,,,,,,,,,,,,,,,,
,,,,,,,,,,,,,,,,,,,,,,,,20,male,2020-09-11_21h50.21.761,torte-2b,2020.1.3,Win32,60,13451,,,,,,,,,,,,,0,7,7,7,1,4,,,,,,,,,,,,,,,,,,,,,,,,,,,,,,,,,,,,,,,,,,,,,,,
,,,,,,,,,,,,,,,,,,,,,,,,20,male,2020-09-11_21h50.21.761,torte-2b,2020.1.3,Win32,60,13451,,,,,,,,,,,,space,0,8,8,8,1,7,0.57148,,,,,,,,,,,,,,,,,,,,,,,,,,,,,,,,,,,,,,,,,,,,,,
,,,,,,,,,,,,,,,,,,,,,,,,20,male,2020-09-11_21h50.21.761,torte-2b,2020.1.3,Win32,60,13451,,,,,,,,,,,,space,0,9,9,9,1,4,0.61287,,,,,,,,,,,,,,,,,,,,,,,,,,,,,,,,,,,,,,,,,,,,,,
,,,,,,,,,,,,,,,,,,,,,,,,20,male,2020-09-11_21h50.21.761,torte-2b,2020.1.3,Win32,60,13451,,,,,,,,,,,,,0,10,10,10,1,7,,,,,,,,,,,,,,,,,,,,,,,,,,,,,,,,,,,,,,,,,,,,,,,
,,,,,,,,,,,,,,,,,,,,,,,,20,male,2020-09-11_21h50.21.761,torte-2b,2020.1.3,Win32,60,13451,,,,,,,,,,,,,0,11,11,11,1,7,,,,,,,,,,,,,,,,,,,,,,,,,,,,,,,,,,,,,,,,,,,,,,,
,,,,,,,,,,,,,,,,,,,,,,,,20,male,2020-09-11_21h50.21.761,torte-2b,2020.1.3,Win32,60,13451,,,,,,,,,,,,space,0,12,12,12,1,7,0.89147,,,,,,,,,,,,,,,,,,,,,,,,,,,,,,,,,,,,,,,,,,,,,,
,,,,,,,,,,,,,,,,,,,,,,,,20,male,2020-09-11_21h50.21.761,torte-2b,2020.1.3,Win32,60,13451,,,,,,,,,,,,,0,13,13,13,1,4,,,,,,,,,,,,,,,,,,,,,,,,,,,,,,,,,,,,,,,,,,,,,,,
,,,,,,,,,,,,,,,,,,,,,,,,20,male,2020-09-11_21h50.21.761,torte-2b,2020.1.3,Win32,60,13451,,,,,,,,,,,,,0,14,14,14,1,6,,,,,,,,,,,,,,,,,,,,,,,,,,,,,,,,,,,,,,,,,,,,,,,
,,,,,,,,,,,,,,,,,,,,,,,,20,male,2020-09-11_21h50.21.761,torte-2b,2020.1.3,Win32,60,13451,,,,,,,,,,,,space,0,15,15,15,1,4,0.55022,,,,,,,,,,,,,,,,,,,,,,,,,,,,,,,,,,,,,,,,,,,,,,
,,,,,,,,,,,,,,,,,,,,,,,,20,male,2020-09-11_21h50.21.761,torte-2b,2020.1.3,Win32,60,13451,,,,,,,,,,,,space,0,16,16,16,1,6,0.641585,,,,,,,,,,,,,,,,,,,,,,,,,,,,,,,,,,,,,,,,,,,,,,
,,,,,,,,,,,,,,,,,,,,,,,,20,male,2020-09-11_21h50.21.761,torte-2b,2020.1.3,Win32,60,13451,,,,,,,,,,,,,0,17,17,17,1,7,,,,,,,,,,,,,,,,,,,,,,,,,,,,,,,,,,,,,,,,,,,,,,,
,,,,,,,,,,,,,,,,,,,,,,,,20,male,2020-09-11_21h50.21.761,torte-2b,2020.1.3,Win32,60,13451,,,,,,,,,,,,,0,18,18,18,1,6,,,,,,,,,,,,,,,,,,,,,,,,,,,,,,,,,,,,,,,,,,,,,,,
,,,,,,,,,,,,,,,,,,,,,,,,20,male,2020-09-11_21h50.21.761,torte-2b,2020.1.3,Win32,60,13451,,,,,,,,,,,,space,0,19,19,19,1,7,0.35586,,,,,,,,,,,,,,,,,,,,,,,,,,,,,,,,,,,,,,,,,,,,,,
,,,,,,,,,,,,,,,,,,,,,,,,20,male,2020-09-11_21h50.21.761,torte-2b,2020.1.3,Win32,60,13451,,,,,,,,,,,,,0,20,20,20,1,5,,,,,,,,,,,,,,,,,,,,,,,,,,,,,,,,,,,,,,,,,,,,,,,
,,,,,,,,,,,,,,,,,,,,,,,,20,male,2020-09-11_21h50.21.761,torte-2b,2020.1.3,Win32,60,13451,,,,,,,,,,,,,0,21,21,21,1,1,,,,,,,,,,,,,,,,,,,,,,,,,,,,,,,,,,,,,,,,,,,,,,,
,,,,,,,,,,,,,,,,,,,,,,,,20,male,2020-09-11_21h50.21.761,torte-2b,2020.1.3,Win32,60,13451,,,,,,,,,,,,,0,22,22,22,1,6,,,,,,,,,,,,,,,,,,,,,,,,,,,,,,,,,,,,,,,,,,,,,,,
,,,,,,,,,,,,,,,,,,,,,,,,20,male,2020-09-11_21h50.21.761,torte-2b,2020.1.3,Win32,60,13451,,,,,,,,,,,,space,0,23,23,23,1,1,0.383625,,,,,,,,,,,,,,,,,,,,,,,,,,,,,,,,,,,,,,,,,,,,,,
,,,,,,,,,,,,,,,,,,,,,,,,20,male,2020-09-11_21h50.21.761,torte-2b,2020.1.3,Win32,60,13451,,,,,,,,,,,,,0,24,24,24,1,5,,,,,,,,,,,,,,,,,,,,,,,,,,,,,,,,,,,,,,,,,,,,,,,
,,,,,,,,,,,,,,,,,,,,,,,,20,male,2020-09-11_21h50.21.761,torte-2b,2020.1.3,Win32,60,13451,,,,,,,,,,,,,0,25,25,25,1,6,,,,,,,,,,,,,,,,,,,,,,,,,,,,,,,,,,,,,,,,,,,,,,,
,,,,,,,,,,,,,,,,,,,,,,,,20,male,2020-09-11_21h50.21.761,torte-2b,2020.1.3,Win32,60,13451,,,,,,,,,,,,,0,26,26,26,1,6,,,,,,,,,,,,,,,,,,,,,,,,,,,,,,,,,,,,,,,,,,,,,,,
,,,,,,,,,,,,,,,,,,,,,,,,20,male,2020-09-11_21h50.21.761,torte-2b,2020.1.3,Win32,60,13451,,,,,,,,,,,,space,0,27,27,27,1,6,0.348575,,,,,,,,,,,,,,,,,,,,,,,,,,,,,,,,,,,,,,,,,,,,,,
,,,,,,,,,,,,,,,,,,,,,,,,20,male,2020-09-11_21h50.21.761,torte-2b,2020.1.3,Win32,60,13451,,,,,,,,,,,,,0,28,28,28,1,5,,,,,,,,,,,,,,,,,,,,,,,,,,,,,,,,,,,,,,,,,,,,,,,
,,,,,,,,,,,,,,,,,,,,,,,,20,male,2020-09-11_21h50.21.761,torte-2b,2020.1.3,Win32,60,13451,,,,,,,,,,,,,0,29,29,29,1,2,,,,,,,,,,,,,,,,,,,,,,,,,,,,,,,,,,,,,,,,,,,,,,,
,,,,,,,,,,,,,,,,,,,,,,,,20,male,2020-09-11_21h50.21.761,torte-2b,2020.1.3,Win32,60,13451,,,,,,,,,,,,space,0,30,30,30,1,5,0.441385,,,,,,,,,,,,,,,,,,,,,,,,,,,,,,,,,,,,,,,,,,,,,,
,,,,,,,,,,,,,,,,,,,,,,,,20,male,2020-09-11_21h50.21.761,torte-2b,2020.1.3,Win32,60,13451,,,,,,,,,,,,space,0,31,31,31,1,2,0.62583,,,,,,,,,,,,,,,,,,,,,,,,,,,,,,,,,,,,,,,,,,,,,,
,,,,,,,,,,,,,,,,,,,,,,,,20,male,2020-09-11_21h50.21.761,torte-2b,2020.1.3,Win32,60,13451,,,,,,,,,,,,space,0,32,32,32,1,5,0.64656,,,,,,,,,,,,,,,,,,,,,,,,,,,,,,,,,,,,,,,,,,,,,,
,,,,,,,,,,,,,,,,,,,,,,,,20,male,2020-09-11_21h50.21.761,torte-2b,2020.1.3,Win32,60,13451,,,,,,,,,,,,,0,33,33,33,1,1,,,,,,,,,,,,,,,,,,,,,,,,,,,,,,,,,,,,,,,,,,,,,,,
,,,,,,,,,,,,,,,,,,,,,,,,20,male,2020-09-11_21h50.21.761,torte-2b,2020.1.3,Win32,60,13451,,,,,,,,,,,,,0,34,34,34,1,1,,,,,,,,,,,,,,,,,,,,,,,,,,,,,,,,,,,,,,,,,,,,,,,
,,,,,,,,,,,,,,,,,,,,,,,,20,male,2020-09-11_21h50.21.761,torte-2b,2020.1.3,Win32,60,13451,,,,,,,,,,,,,,,,,,2,,0,0,0,0,1,,,,,,,,,,,,,,,,,,,,,,,,,,,,,,,,,,,,,,,,,
,,,,,,,,,,,,,,,,,,,,,,,,20,male,2020-09-11_21h50.21.761,torte-2b,2020.1.3,Win32,60,13451,,,,,,,,,,,,,,,,,,2,,0,1,1,1,1,,,,,,,,,,,,,,,,,,,,,,,,,,,,,,,,,,,,,,,,,
,,,,,,,,,,,,,,,,,,,,,,,,20,male,2020-09-11_21h50.21.761,torte-2b,2020.1.3,Win32,60,13451,,,,,,,,,,,,,,,,,,6,,0,2,2,2,1,,,,,,,,,,,,,,,,,,,,,,,,,,,,,,,,,,,,,,,,,
,,,,,,,,,,,,,,,,,,,,,,,,20,male,2020-09-11_21h50.21.761,torte-2b,2020.1.3,Win32,60,13451,,,,,,,,,,,,space,,,,,,2,0.38386,0,3,3,3,1,,,,,,,,,,,,,,,,,,,,,,,,,,,,,,,,,,,,,,,,,
,,,,,,,,,,,,,,,,,,,,,,,,20,male,2020-09-11_21h50.21.761,torte-2b,2020.1.3,Win32,60,13451,,,,,,,,,,,,space,,,,,,6,0.56268,0,4,4,4,1,,,,,,,,,,,,,,,,,,,,,,,,,,,,,,,,,,,,,,,,,
,,,,,,,,,,,,,,,,,,,,,,,,20,male,2020-09-11_21h50.21.761,torte-2b,2020.1.3,Win32,60,13451,,,,,,,,,,,,space,,,,,,2,0.38064,0,5,5,5,1,,,,,,,,,,,,,,,,,,,,,,,,,,,,,,,,,,,,,,,,,
,,,,,,,,,,,,,,,,,,,,,,,,20,male,2020-09-11_21h50.21.761,torte-2b,2020.1.3,Win32,60,13451,,,,,,,,,,,,,,,,,,7,,0,6,6,6,1,,,,,,,,,,,,,,,,,,,,,,,,,,,,,,,,,,,,,,,,,
,,,,,,,,,,,,,,,,,,,,,,,,20,male,2020-09-11_21h50.21.761,torte-2b,2020.1.3,Win32,60,13451,,,,,,,,,,,,space,,,,,,2,0.56233,0,7,7,7,1,,,,,,,,,,,,,,,,,,,,,,,,,,,,,,,,,,,,,,,,,
,,,,,,,,,,,,,,,,,,,,,,,,20,male,2020-09-11_21h50.21.761,torte-2b,2020.1.3,Win32,60,13451,,,,,,,,,,,,space,,,,,,7,0.424475,0,8,8,8,1,,,,,,,,,,,,,,,,,,,,,,,,,,,,,,,,,,,,,,,,,
,,,,,,,,,,,,,,,,,,,,,,,,20,male,2020-09-11_21h50.21.761,torte-2b,2020.1.3,Win32,60,13451,,,,,,,,,,,,space,,,,,,2,0.45891,0,9,9,9,1,,,,,,,,,,,,,,,,,,,,,,,,,,,,,,,,,,,,,,,,,
,,,,,,,,,,,,,,,,,,,,,,,,20,male,2020-09-11_21h50.21.761,torte-2b,2020.1.3,Win32,60,13451,,,,,,,,,,,,,,,,,,5,,0,10,10,10,1,,,,,,,,,,,,,,,,,,,,,,,,,,,,,,,,,,,,,,,,,
,,,,,,,,,,,,,,,,,,,,,,,,20,male,2020-09-11_21h50.21.761,torte-2b,2020.1.3,Win32,60,13451,,,,,,,,,,,,,,,,,,4,,0,11,11,11,1,,,,,,,,,,,,,,,,,,,,,,,,,,,,,,,,,,,,,,,,,
,,,,,,,,,,,,,,,,,,,,,,,,20,male,2020-09-11_21h50.21.761,torte-2b,2020.1.3,Win32,60,13451,,,,,,,,,,,,space,,,,,,5,0.45744,0,12,12,12,1,,,,,,,,,,,,,,,,,,,,,,,,,,,,,,,,,,,,,,,,,
,,,,,,,,,,,,,,,,,,,,,,,,20,male,2020-09-11_21h50.21.761,torte-2b,2020.1.3,Win32,60,13451,,,,,,,,,,,,,,,,,,6,,0,13,13,13,1,,,,,,,,,,,,,,,,,,,,,,,,,,,,,,,,,,,,,,,,,
,,,,,,,,,,,,,,,,,,,,,,,,20,male,2020-09-11_21h50.21.761,torte-2b,2020.1.3,Win32,60,13451,,,,,,,,,,,,space,,,,,,5,0.334185,0,14,14,14,1,,,,,,,,,,,,,,,,,,,,,,,,,,,,,,,,,,,,,,,,,
,,,,,,,,,,,,,,,,,,,,,,,,20,male,2020-09-11_21h50.21.761,torte-2b,2020.1.3,Win32,60,13451,,,,,,,,,,,,,,,,,,4,,0,15,15,15,1,,,,,,,,,,,,,,,,,,,,,,,,,,,,,,,,,,,,,,,,,
,,,,,,,,,,,,,,,,,,,,,,,,20,male,2020-09-11_21h50.21.761,torte-2b,2020.1.3,Win32,60,13451,,,,,,,,,,,,space,,,,,,5,0.343,0,16,16,16,1,,,,,,,,,,,,,,,,,,,,,,,,,,,,,,,,,,,,,,,,,
,,,,,,,,,,,,,,,,,,,,,,,,20,male,2020-09-11_21h50.21.761,torte-2b,2020.1.3,Win32,60,13451,,,,,,,,,,,,space,,,,,,3,0.38459,0,17,17,17,1,,,,,,,,,,,,,,,,,,,,,,,,,,,,,,,,,,,,,,,,,
,,,,,,,,,,,,,,,,,,,,,,,,20,male,2020-09-11_21h50.21.761,torte-2b,2020.1.3,Win32,60,13451,,,,,,,,,,,,,,,,,,6,,0,18,18,18,1,,,,,,,,,,,,,,,,,,,,,,,,,,,,,,,,,,,,,,,,,
,,,,,,,,,,,,,,,,,,,,,,,,20,male,2020-09-11_21h50.21.761,torte-2b,2020.1.3,Win32,60,13451,,,,,,,,,,,,,,,,,,6,,0,19,19,19,1,,,,,,,,,,,,,,,,,,,,,,,,,,,,,,,,,,,,,,,,,
,,,,,,,,,,,,,,,,,,,,,,,,20,male,2020-09-11_21h50.21.761,torte-2b,2020.1.3,Win32,60,13451,,,,,,,,,,,,space,,,,,,6,0.30707,0,20,20,20,1,,,,,,,,,,,,,,,,,,,,,,,,,,,,,,,,,,,,,,,,,
,,,,,,,,,,,,,,,,,,,,,,,,20,male,2020-09-11_21h50.21.761,torte-2b,2020.1.3,Win32,60,13451,,,,,,,,,,,,,,,,,,4,,0,21,21,21,1,,,,,,,,,,,,,,,,,,,,,,,,,,,,,,,,,,,,,,,,,
,,,,,,,,,,,,,,,,,,,,,,,,20,male,2020-09-11_21h50.21.761,torte-2b,2020.1.3,Win32,60,13451,,,,,,,,,,,,space,,,,,,6,0.390995,0,22,22,22,1,,,,,,,,,,,,,,,,,,,,,,,,,,,,,,,,,,,,,,,,,
,,,,,,,,,,,,,,,,,,,,,,,,20,male,2020-09-11_21h50.21.761,torte-2b,2020.1.3,Win32,60,13451,,,,,,,,,,,,space,,,,,,4,0.614675,0,23,23,23,1,,,,,,,,,,,,,,,,,,,,,,,,,,,,,,,,,,,,,,,,,
,,,,,,,,,,,,,,,,,,,,,,,,20,male,2020-09-11_21h50.21.761,torte-2b,2020.1.3,Win32,60,13451,,,,,,,,,,,,space,,,,,,6,0.440915,0,24,24,24,1,,,,,,,,,,,,,,,,,,,,,,,,,,,,,,,,,,,,,,,,,
,,,,,,,,,,,,,,,,,,,,,,,,20,male,2020-09-11_21h50.21.761,torte-2b,2020.1.3,Win32,60,13451,,,,,,,,,,,,,,,,,,6,,0,25,25,25,1,,,,,,,,,,,,,,,,,,,,,,,,,,,,,,,,,,,,,,,,,
,,,,,,,,,,,,,,,,,,,,,,,,20,male,2020-09-11_21h50.21.761,torte-2b,2020.1.3,Win32,60,13451,,,,,,,,,,,,,,,,,,7,,0,26,26,26,1,,,,,,,,,,,,,,,,,,,,,,,,,,,,,,,,,,,,,,,,,
,,,,,,,,,,,,,,,,,,,,,,,,20,male,2020-09-11_21h50.21.761,torte-2b,2020.1.3,Win32,60,13451,,,,,,,,,,,,,,,,,,1,,0,27,27,27,1,,,,,,,,,,,,,,,,,,,,,,,,,,,,,,,,,,,,,,,,,
,,,,,,,,,,,,,,,,,,,,,,,,20,male,2020-09-11_21h50.21.761,torte-2b,2020.1.3,Win32,60,13451,,,,,,,,,,,,space,,,,,,7,0.39684,0,28,28,28,1,,,,,,,,,,,,,,,,,,,,,,,,,,,,,,,,,,,,,,,,,
,,,,,,,,,,,,,,,,,,,,,,,,20,male,2020-09-11_21h50.21.761,torte-2b,2020.1.3,Win32,60,13451,,,,,,,,,,,,,,,,,,4,,0,29,29,29,1,,,,,,,,,,,,,,,,,,,,,,,,,,,,,,,,,,,,,,,,,
,,,,,,,,,,,,,,,,,,,,,,,,20,male,2020-09-11_21h50.21.761,torte-2b,2020.1.3,Win32,60,13451,,,,,,,,,,,,space,,,,,,7,0.494575,0,30,30,30,1,,,,,,,,,,,,,,,,,,,,,,,,,,,,,,,,,,,,,,,,,
,,,,,,,,,,,,,,,,,,,,,,,,20,male,2020-09-11_21h50.21.761,torte-2b,2020.1.3,Win32,60,13451,,,,,,,,,,,,,,,,,,3,,0,31,31,31,1,,,,,,,,,,,,,,,,,,,,,,,,,,,,,,,,,,,,,,,,,
,,,,,,,,,,,,,,,,,,,,,,,,20,male,2020-09-11_21h50.21.761,torte-2b,2020.1.3,Win32,60,13451,,,,,,,,,,,,,,,,,,2,,0,32,32,32,1,,,,,,,,,,,,,,,,,,,,,,,,,,,,,,,,,,,,,,,,,
,,,,,,,,,,,,,,,,,,,,,,,,20,male,2020-09-11_21h50.21.761,torte-2b,2020.1.3,Win32,60,13451,,,,,,,,,,,,,,,,,,6,,0,33,33,33,1,,,,,,,,,,,,,,,,,,,,,,,,,,,,,,,,,,,,,,,,,
,,,,,,,,,,,,,,,,,,,,,,,,20,male,2020-09-11_21h50.21.761,torte-2b,2020.1.3,Win32,60,13451,,,,,,,,,,,,,,,,,,3,,0,34,34,34,1,,,,,,,,,,,,,,,,,,,,,,,,,,,,,,,,,,,,,,,,,
,,,,,,,,,,,,,,,,,,,,,,,,20,male,2020-09-11_21h50.21.761,torte-2b,2020.1.3,Win32,60,13451,,,,,,,,,,,,,,,,,,7,,,,,,,0,0,0,0,1,,,,,,,,,,,,,,,,,,,,,,,,,,,,,,,,,,,,
,,,,,,,,,,,,,,,,,,,,,,,,20,male,2020-09-11_21h50.21.761,torte-2b,2020.1.3,Win32,60,13451,,,,,,,,,,,,,,,,,,5,,,,,,,0,1,1,1,1,,,,,,,,,,,,,,,,,,,,,,,,,,,,,,,,,,,,
,,,,,,,,,,,,,,,,,,,,,,,,20,male,2020-09-11_21h50.21.761,torte-2b,2020.1.3,Win32,60,13451,,,,,,,,,,,,,,,,,,4,,,,,,,0,2,2,2,1,,,,,,,,,,,,,,,,,,,,,,,,,,,,,,,,,,,,
,,,,,,,,,,,,,,,,,,,,,,,,20,male,2020-09-11_21h50.21.761,torte-2b,2020.1.3,Win32,60,13451,,,,,,,,,,,,space,,,,,,5,0.445925,,,,,,0,3,3,3,1,,,,,,,,,,,,,,,,,,,,,,,,,,,,,,,,,,,,
,,,,,,,,,,,,,,,,,,,,,,,,20,male,2020-09-11_21h50.21.761,torte-2b,2020.1.3,Win32,60,13451,,,,,,,,,,,,,,,,,,6,,,,,,,0,4,4,4,1,,,,,,,,,,,,,,,,,,,,,,,,,,,,,,,,,,,,
,,,,,,,,,,,,,,,,,,,,,,,,20,male,2020-09-11_21h50.21.761,torte-2b,2020.1.3,Win32,60,13451,,,,,,,,,,,,space,,,,,,5,0.549965,,,,,,0,5,5,5,1,,,,,,,,,,,,,,,,,,,,,,,,,,,,,,,,,,,,
,,,,,,,,,,,,,,,,,,,,,,,,20,male,2020-09-11_21h50.21.761,torte-2b,2020.1.3,Win32,60,13451,,,,,,,,,,,,,,,,,,3,,,,,,,0,6,6,6,1,,,,,,,,,,,,,,,,,,,,,,,,,,,,,,,,,,,,
,,,,,,,,,,,,,,,,,,,,,,,,20,male,2020-09-11_21h50.21.761,torte-2b,2020.1.3,Win32,60,13451,,,,,,,,,,,,,,,,,,4,,,,,,,0,7,7,7,1,,,,,,,,,,,,,,,,,,,,,,,,,,,,,,,,,,,,
,,,,,,,,,,,,,,,,,,,,,,,,20,male,2020-09-11_21h50.21.761,torte-2b,2020.1.3,Win32,60,13451,,,,,,,,,,,,space,,,,,,3,0.47486,,,,,,0,8,8,8,1,,,,,,,,,,,,,,,,,,,,,,,,,,,,,,,,,,,,
,,,,,,,,,,,,,,,,,,,,,,,,20,male,2020-09-11_21h50.21.761,torte-2b,2020.1.3,Win32,60,13451,,,,,,,,,,,,,,,,,,1,,,,,,,0,9,9,9,1,,,,,,,,,,,,,,,,,,,,,,,,,,,,,,,,,,,,
,,,,,,,,,,,,,,,,,,,,,,,,20,male,2020-09-11_21h50.21.761,torte-2b,2020.1.3,Win32,60,13451,,,,,,,,,,,,,,,,,,2,,,,,,,0,10,10,10,1,,,,,,,,,,,,,,,,,,,,,,,,,,,,,,,,,,,,
,,,,,,,,,,,,,,,,,,,,,,,,20,male,2020-09-11_21h50.21.761,torte-2b,2020.1.3,Win32,60,13451,,,,,,,,,,,,space,,,,,,1,0.384435,,,,,,0,11,11,11,1,,,,,,,,,,,,,,,,,,,,,,,,,,,,,,,,,,,,
,,,,,,,,,,,,,,,,,,,,,,,,20,male,2020-09-11_21h50.21.761,torte-2b,2020.1.3,Win32,60,13451,,,,,,,,,,,,,,,,,,2,,,,,,,0,12,12,12,1,,,,,,,,,,,,,,,,,,,,,,,,,,,,,,,,,,,,
,,,,,,,,,,,,,,,,,,,,,,,,20,male,2020-09-11_21h50.21.761,torte-2b,2020.1.3,Win32,60,13451,,,,,,,,,,,,space,,,,,,1,0.377595,,,,,,0,13,13,13,1,,,,,,,,,,,,,,,,,,,,,,,,,,,,,,,,,,,,
,,,,,,,,,,,,,,,,,,,,,,,,20,male,2020-09-11_21h50.21.761,torte-2b,2020.1.3,Win32,60,13451,,,,,,,,,,,,,,,,,,3,,,,,,,0,14,14,14,1,,,,,,,,,,,,,,,,,,,,,,,,,,,,,,,,,,,,
,,,,,,,,,,,,,,,,,,,,,,,,20,male,2020-09-11_21h50.21.761,torte-2b,2020.1.3,Win32,60,13451,,,,,,,,,,,,space,,,,,,1,0.358185,,,,,,0,15,15,15,1,,,,,,,,,,,,,,,,,,,,,,,,,,,,,,,,,,,,
,,,,,,,,,,,,,,,,,,,,,,,,20,male,2020-09-11_21h50.21.761,torte-2b,2020.1.3,Win32,60,13451,,,,,,,,,,,,space,,,,,,7,0.362295,,,,,,0,16,16,16,1,,,,,,,,,,,,,,,,,,,,,,,,,,,,,,,,,,,,
,,,,,,,,,,,,,,,,,,,,,,,,20,male,2020-09-11_21h50.21.761,torte-2b,2020.1.3,Win32,60,13451,,,,,,,,,,,,,,,,,,7,,,,,,,0,17,17,17,1,,,,,,,,,,,,,,,,,,,,,,,,,,,,,,,,,,,,
,,,,,,,,,,,,,,,,,,,,,,,,20,male,2020-09-11_21h50.21.761,torte-2b,2020.1.3,Win32,60,13451,,,,,,,,,,,,,,,,,,4,,,,,,,0,18,18,18,1,,,,,,,,,,,,,,,,,,,,,,,,,,,,,,,,,,,,
,,,,,,,,,,,,,,,,,,,,,,,,20,male,2020-09-11_21h50.21.761,torte-2b,2020.1.3,Win32,60,13451,,,,,,,,,,,,space,,,,,,7,0.563475,,,,,,0,19,19,19,1,,,,,,,,,,,,,,,,,,,,,,,,,,,,,,,,,,,,
,,,,,,,,,,,,,,,,,,,,,,,,20,male,2020-09-11_21h50.21.761,torte-2b,2020.1.3,Win32,60,13451,,,,,,,,,,,,,,,,,,3,,,,,,,0,20,20,20,1,,,,,,,,,,,,,,,,,,,,,,,,,,,,,,,,,,,,
,,,,,,,,,,,,,,,,,,,,,,,,20,male,2020-09-11_21h50.21.761,torte-2b,2020.1.3,Win32,60,13451,,,,,,,,,,,,,,,,,,7,,,,,,,0,21,21,21,1,,,,,,,,,,,,,,,,,,,,,,,,,,,,,,,,,,,,
,,,,,,,,,,,,,,,,,,,,,,,,20,male,2020-09-11_21h50.21.761,torte-2b,2020.1.3,Win32,60,13451,,,,,,,,,,,,space,,,,,,3,0.870905,,,,,,0,22,22,22,1,,,,,,,,,,,,,,,,,,,,,,,,,,,,,,,,,,,,
,,,,,,,,,,,,,,,,,,,,,,,,20,male,2020-09-11_21h50.21.761,torte-2b,2020.1.3,Win32,60,13451,,,,,,,,,,,,,,,,,,1,,,,,,,0,23,23,23,1,,,,,,,,,,,,,,,,,,,,,,,,,,,,,,,,,,,,
,,,,,,,,,,,,,,,,,,,,,,,,20,male,2020-09-11_21h50.21.761,torte-2b,2020.1.3,Win32,60,13451,,,,,,,,,,,,,,,,,,6,,,,,,,0,24,24,24,1,,,,,,,,,,,,,,,,,,,,,,,,,,,,,,,,,,,,
,,,,,,,,,,,,,,,,,,,,,,,,20,male,2020-09-11_21h50.21.761,torte-2b,2020.1.3,Win32,60,13451,,,,,,,,,,,,,,,,,,3,,,,,,,0,25,25,25,1,,,,,,,,,,,,,,,,,,,,,,,,,,,,,,,,,,,,
,,,,,,,,,,,,,,,,,,,,,,,,20,male,2020-09-11_21h50.21.761,torte-2b,2020.1.3,Win32,60,13451,,,,,,,,,,,,,,,,,,2,,,,,,,0,26,26,26,1,,,,,,,,,,,,,,,,,,,,,,,,,,,,,,,,,,,,
,,,,,,,,,,,,,,,,,,,,,,,,20,male,2020-09-11_21h50.21.761,torte-2b,2020.1.3,Win32,60,13451,,,,,,,,,,,,space,,,,,,3,0.39264,,,,,,0,27,27,27,1,,,,,,,,,,,,,,,,,,,,,,,,,,,,,,,,,,,,
,,,,,,,,,,,,,,,,,,,,,,,,20,male,2020-09-11_21h50.21.761,torte-2b,2020.1.3,Win32,60,13451,,,,,,,,,,,,,,,,,,1,,,,,,,0,28,28,28,1,,,,,,,,,,,,,,,,,,,,,,,,,,,,,,,,,,,,
,,,,,,,,,,,,,,,,,,,,,,,,20,male,2020-09-11_21h50.21.761,torte-2b,2020.1.3,Win32,60,13451,,,,,,,,,,,,,,,,,,3,,,,,,,0,29,29,29,1,,,,,,,,,,,,,,,,,,,,,,,,,,,,,,,,,,,,
,,,,,,,,,,,,,,,,,,,,,,,,20,male,2020-09-11_21h50.21.761,torte-2b,2020.1.3,Win32,60,13451,,,,,,,,,,,,space,,,,,,1,0.50417,,,,,,0,30,30,30,1,,,,,,,,,,,,,,,,,,,,,,,,,,,,,,,,,,,,
,,,,,,,,,,,,,,,,,,,,,,,,20,male,2020-09-11_21h50.21.761,torte-2b,2020.1.3,Win32,60,13451,,,,,,,,,,,,,,,,,,7,,,,,,,0,31,31,31,1,,,,,,,,,,,,,,,,,,,,,,,,,,,,,,,,,,,,
,,,,,,,,,,,,,,,,,,,,,,,,20,male,2020-09-11_21h50.21.761,torte-2b,2020.1.3,Win32,60,13451,,,,,,,,,,,,,,,,,,5,,,,,,,0,32,32,32,1,,,,,,,,,,,,,,,,,,,,,,,,,,,,,,,,,,,,
,,,,,,,,,,,,,,,,,,,,,,,,20,male,2020-09-11_21h50.21.761,torte-2b,2020.1.3,Win32,60,13451,,,,,,,,,,,,space,,,,,,7,0.320365,,,,,,0,33,33,33,1,,,,,,,,,,,,,,,,,,,,,,,,,,,,,,,,,,,,
,,,,,,,,,,,,,,,,,,,,,,,,20,male,2020-09-11_21h50.21.761,torte-2b,2020.1.3,Win32,60,13451,,,,,,,,,,,,,,,,,,2,,,,,,,0,34,34,34,1,,,,,,,,,,,,,,,,,,,,,,,,,,,,,,,,,,,,
,,,,,,,,,,,,,,,,,,,,,,,,20,male,2020-09-11_21h50.21.761,torte-2b,2020.1.3,Win32,60,13451,,,,,,,,,,,,,,,,,,3,,,,,,,,,,,,0,0,0,0,1,,,,,,,,,,,,,,,,,,,,,,,,,,,,,,,
,,,,,,,,,,,,,,,,,,,,,,,,20,male,2020-09-11_21h50.21.761,torte-2b,2020.1.3,Win32,60,13451,,,,,,,,,,,,,,,,,,7,,,,,,,,,,,,0,1,1,1,1,,,,,,,,,,,,,,,,,,,,,,,,,,,,,,,
,,,,,,,,,,,,,,,,,,,,,,,,20,male,2020-09-11_21h50.21.761,torte-2b,2020.1.3,Win32,60,13451,,,,,,,,,,,,,,,,,,7,,,,,,,,,,,,0,2,2,2,1,,,,,,,,,,,,,,,,,,,,,,,,,,,,,,,
,,,,,,,,,,,,,,,,,,,,,,,,20,male,2020-09-11_21h50.21.761,torte-2b,2020.1.3,Win32,60,13451,,,,,,,,,,,,,,,,,,4,,,,,,,,,,,,0,3,3,3,1,,,,,,,,,,,,,,,,,,,,,,,,,,,,,,,
,,,,,,,,,,,,,,,,,,,,,,,,20,male,2020-09-11_21h50.21.761,torte-2b,2020.1.3,Win32,60,13451,,,,,,,,,,,,,,,,,,5,,,,,,,,,,,,0,4,4,4,1,,,,,,,,,,,,,,,,,,,,,,,,,,,,,,,
,,,,,,,,,,,,,,,,,,,,,,,,20,male,2020-09-11_21h50.21.761,torte-2b,2020.1.3,Win32,60,13451,,,,,,,,,,,,space,,,,,,4,0.98808,,,,,,,,,,,0,5,5,5,1,,,,,,,,,,,,,,,,,,,,,,,,,,,,,,,
,,,,,,,,,,,,,,,,,,,,,,,,20,male,2020-09-11_21h50.21.761,torte-2b,2020.1.3,Win32,60,13451,,,,,,,,,,,,,,,,,,2,,,,,,,,,,,,0,6,6,6,1,,,,,,,,,,,,,,,,,,,,,,,,,,,,,,,
,,,,,,,,,,,,,,,,,,,,,,,,20,male,2020-09-11_21h50.21.761,torte-2b,2020.1.3,Win32,60,13451,,,,,,,,,,,,space,,,,,,4,0.412095,,,,,,,,,,,0,7,7,7,1,,,,,,,,,,,,,,,,,,,,,,,,,,,,,,,
,,,,,,,,,,,,,,,,,,,,,,,,20,male,2020-09-11_21h50.21.761,torte-2b,2020.1.3,Win32,60,13451,,,,,,,,,,,,space,,,,,,2,0.376505,,,,,,,,,,,0,8,8,8,1,,,,,,,,,,,,,,,,,,,,,,,,,,,,,,,
,,,,,,,,,,,,,,,,,,,,,,,,20,male,2020-09-11_21h50.21.761,torte-2b,2020.1.3,Win32,60,13451,,,,,,,,,,,,space,,,,,,2,0.551595,,,,,,,,,,,0,9,9,9,1,,,,,,,,,,,,,,,,,,,,,,,,,,,,,,,
,,,,,,,,,,,,,,,,,,,,,,,,20,male,2020-09-11_21h50.21.761,torte-2b,2020.1.3,Win32,60,13451,,,,,,,,,,,,,,,,,,6,,,,,,,,,,,,0,10,10,10,1,,,,,,,,,,,,,,,,,,,,,,,,,,,,,,,
,,,,,,,,,,,,,,,,,,,,,,,,20,male,2020-09-11_21h50.21.761,torte-2b,2020.1.3,Win32,60,13451,,,,,,,,,,,,space,,,,,,2,0.58418,,,,,,,,,,,0,11,11,11,1,,,,,,,,,,,,,,,,,,,,,,,,,,,,,,,
,,,,,,,,,,,,,,,,,,,,,,,,20,male,2020-09-11_21h50.21.761,torte-2b,2020.1.3,Win32,60,13451,,,,,,,,,,,,space,,,,,,2,0.60556,,,,,,,,,,,0,12,12,12,1,,,,,,,,,,,,,,,,,,,,,,,,,,,,,,,
,,,,,,,,,,,,,,,,,,,,,,,,20,male,2020-09-11_21h50.21.761,torte-2b,2020.1.3,Win32,60,13451,,,,,,,,,,,,space,,,,,,2,0.53622,,,,,,,,,,,0,13,13,13,1,,,,,,,,,,,,,,,,,,,,,,,,,,,,,,,
,,,,,,,,,,,,,,,,,,,,,,,,20,male,2020-09-11_21h50.21.761,torte-2b,2020.1.3,Win32,60,13451,,,,,,,,,,,,,,,,,,2,,,,,,,,,,,,0,14,14,14,1,,,,,,,,,,,,,,,,,,,,,,,,,,,,,,,
,,,,,,,,,,,,,,,,,,,,,,,,20,male,2020-09-11_21h50.21.761,torte-2b,2020.1.3,Win32,60,13451,,,,,,,,,,,,,,,,,,4,,,,,,,,,,,,0,15,15,15,1,,,,,,,,,,,,,,,,,,,,,,,,,,,,,,,
,,,,,,,,,,,,,,,,,,,,,,,,20,male,2020-09-11_21h50.21.761,torte-2b,2020.1.3,Win32,60,13451,,,,,,,,,,,,space,,,,,,3,0.542495,,,,,,,,,,,0,16,16,16,1,,,,,,,,,,,,,,,,,,,,,,,,,,,,,,,
,,,,,,,,,,,,,,,,,,,,,,,,20,male,2020-09-11_21h50.21.761,torte-2b,2020.1.3,Win32,60,13451,,,,,,,,,,,,space,,,,,,7,0.486855,,,,,,,,,,,0,17,17,17,1,,,,,,,,,,,,,,,,,,,,,,,,,,,,,,,
,,,,,,,,,,,,,,,,,,,,,,,,20,male,2020-09-11_21h50.21.761,torte-2b,2020.1.3,Win32,60,13451,,,,,,,,,,,,,,,,,,4,,,,,,,,,,,,0,18,18,18,1,,,,,,,,,,,,,,,,,,,,,,,,,,,,,,,
,,,,,,,,,,,,,,,,,,,,,,,,20,male,2020-09-11_21h50.21.761,torte-2b,2020.1.3,Win32,60,13451,,,,,,,,,,,,space,,,,,,7,0.537285,,,,,,,,,,,0,19,19,19,1,,,,,,,,,,,,,,,,,,,,,,,,,,,,,,,
,,,,,,,,,,,,,,,,,,,,,,,,20,male,2020-09-11_21h50.21.761,torte-2b,2020.1.3,Win32,60,13451,,,,,,,,,,,,,,,,,,7,,,,,,,,,,,,0,20,20,20,1,,,,,,,,,,,,,,,,,,,,,,,,,,,,,,,
,,,,,,,,,,,,,,,,,,,,,,,,20,male,2020-09-11_21h50.21.761,torte-2b,2020.1.3,Win32,60,13451,,,,,,,,,,,,space,,,,,,7,0.48681,,,,,,,,,,,0,21,21,21,1,,,,,,,,,,,,,,,,,,,,,,,,,,,,,,,
,,,,,,,,,,,,,,,,,,,,,,,,20,male,2020-09-11_21h50.21.761,torte-2b,2020.1.3,Win32,60,13451,,,,,,,,,,,,space,,,,,,7,0.375915,,,,,,,,,,,0,22,22,22,1,,,,,,,,,,,,,,,,,,,,,,,,,,,,,,,
,,,,,,,,,,,,,,,,,,,,,,,,20,male,2020-09-11_21h50.21.761,torte-2b,2020.1.3,Win32,60,13451,,,,,,,,,,,,,,,,,,1,,,,,,,,,,,,0,23,23,23,1,,,,,,,,,,,,,,,,,,,,,,,,,,,,,,,
,,,,,,,,,,,,,,,,,,,,,,,,20,male,2020-09-11_21h50.21.761,torte-2b,2020.1.3,Win32,60,13451,,,,,,,,,,,,,,,,,,7,,,,,,,,,,,,0,24,24,24,1,,,,,,,,,,,,,,,,,,,,,,,,,,,,,,,
,,,,,,,,,,,,,,,,,,,,,,,,20,male,2020-09-11_21h50.21.761,torte-2b,2020.1.3,Win32,60,13451,,,,,,,,,,,,space,,,,,,1,0.653535,,,,,,,,,,,0,25,25,25,1,,,,,,,,,,,,,,,,,,,,,,,,,,,,,,,
,,,,,,,,,,,,,,,,,,,,,,,,20,male,2020-09-11_21h50.21.761,torte-2b,2020.1.3,Win32,60,13451,,,,,,,,,,,,space,,,,,,7,0.355195,,,,,,,,,,,0,26,26,26,1,,,,,,,,,,,,,,,,,,,,,,,,,,,,,,,
,,,,,,,,,,,,,,,,,,,,,,,,20,male,2020-09-11_21h50.21.761,torte-2b,2020.1.3,Win32,60,13451,,,,,,,,,,,,,,,,,,2,,,,,,,,,,,,0,27,27,27,1,,,,,,,,,,,,,,,,,,,,,,,,,,,,,,,
,,,,,,,,,,,,,,,,,,,,,,,,20,male,2020-09-11_21h50.21.761,torte-2b,2020.1.3,Win32,60,13451,,,,,,,,,,,,,,,,,,5,,,,,,,,,,,,0,28,28,28,1,,,,,,,,,,,,,,,,,,,,,,,,,,,,,,,
,,,,,,,,,,,,,,,,,,,,,,,,20,male,2020-09-11_21h50.21.761,torte-2b,2020.1.3,Win32,60,13451,,,,,,,,,,,,,,,,,,5,,,,,,,,,,,,0,29,29,29,1,,,,,,,,,,,,,,,,,,,,,,,,,,,,,,,
,,,,,,,,,,,,,,,,,,,,,,,,20,male,2020-09-11_21h50.21.761,torte-2b,2020.1.3,Win32,60,13451,,,,,,,,,,,,space,,,,,,5,0.35517,,,,,,,,,,,0,30,30,30,1,,,,,,,,,,,,,,,,,,,,,,,,,,,,,,,
,,,,,,,,,,,,,,,,,,,,,,,,20,male,2020-09-11_21h50.21.761,torte-2b,2020.1.3,Win32,60,13451,,,,,,,,,,,,,,,,,,1,,,,,,,,,,,,0,31,31,31,1,,,,,,,,,,,,,,,,,,,,,,,,,,,,,,,
,,,,,,,,,,,,,,,,,,,,,,,,20,male,2020-09-11_21h50.21.761,torte-2b,2020.1.3,Win32,60,13451,,,,,,,,,,,,,,,,,,5,,,,,,,,,,,,0,32,32,32,1,,,,,,,,,,,,,,,,,,,,,,,,,,,,,,,
,,,,,,,,,,,,,,,,,,,,,,,,20,male,2020-09-11_21h50.21.761,torte-2b,2020.1.3,Win32,60,13451,,,,,,,,,,,,,,,,,,3,,,,,,,,,,,,0,33,33,33,1,,,,,,,,,,,,,,,,,,,,,,,,,,,,,,,
,,,,,,,,,,,,,,,,,,,,,,,,20,male,2020-09-11_21h50.21.761,torte-2b,2020.1.3,Win32,60,13451,,,,,,,,,,,,,,,,,,3,,,,,,,,,,,,0,34,34,34,1,,,,,,,,,,,,,,,,,,,,,,,,,,,,,,,
,,,,,,,,,,,,a,1.26164,Correct!,,,,,,t2.png,t1.png,1,0.9,20,male,2020-09-11_21h50.21.761,torte-2b,2020.1.3,Win32,60,13451,space,1.076885,,,,,,,,,,,,,,,,,,,,,,,,,,,,,,,,,a,13.67959,0,0,0,118,1,,,,,,,,,,,,,,,,,,,,,,,,
,,,,,,,,,,,,l,1.550055,Correct!,,,,,,t4.png,t2.png,2,0.059078,20,male,2020-09-11_21h50.21.761,torte-2b,2020.1.3,Win32,60,13451,,,,,,,,,,,,,,,,,,,,,,,,,,,,,,,,,,,,,0,1,1,86,1,,,,,,,,,,,,,,,,,,,,,,,,
,,,,,,,,,,,,l,1.389645,Incorrect,,,,,,t2.png,t3.png,1,0.90855,20,male,2020-09-11_21h50.21.761,torte-2b,2020.1.3,Win32,60,13451,,,,,,,,,,,,,,,,,,,,,,,,,,,,,,,,,,,,,0,2,2,65,1,,,,,,,,,,,,,,,,,,,,,,,,
,,,,,,,,,,,,a,1.4306,Correct!,,,,,,t5.png,t4.png,1,0.9,20,male,2020-09-11_21h50.21.761,torte-2b,2020.1.3,Win32,60,13451,,,,,,,,,,,,,,,,,,,,,,,,,,,,,,,,,,,,,0,3,3,76,1,,,,,,,,,,,,,,,,,,,,,,,,
,,,,,,,,,,,,l,0.77076,Incorrect,,,,,,t1.png,t2.png,1,0.90025,20,male,2020-09-11_21h50.21.761,torte-2b,2020.1.3,Win32,60,13451,,,,,,,,,,,,,,,,,,,,,,,,,,,,,,,,,,,,,0,4,4,105,1,,,,,,,,,,,,,,,,,,,,,,,,
,,,,,,,,,,,,l,0.95956,Incorrect,,,,,,t2.png,t2.png,0,0.981,20,male,2020-09-11_21h50.21.761,torte-2b,2020.1.3,Win32,60,13451,,,,,,,,,,,,,,,,,,,,,,,,,,,,,,,,,,,,,0,5,5,101,1,,,,,,,,,,,,,,,,,,,,,,,,
,,,,,,,,,,,,l,1.05833,Incorrect,,,,,,t3.png,t1.png,2,0.056466,20,male,2020-09-11_21h50.21.761,torte-2b,2020.1.3,Win32,60,13451,,,,,,,,,,,,,,,,,,,,,,,,,,,,,,,,,,,,,0,6,6,29,1,,,,,,,,,,,,,,,,,,,,,,,,
,,,,,,,,,,,,a,0.8696,Correct!,,,,,,t4.png,t4.png,0,0.98115,20,male,2020-09-11_21h50.21.761,torte-2b,2020.1.3,Win32,60,13451,,,,,,,,,,,,,,,,,,,,,,,,,,,,,,,,,,,,,0,7,7,79,1,,,,,,,,,,,,,,,,,,,,,,,,
,,,,,,,,,,,,a,0.92498,Incorrect,,,,,,t4.png,t3.png,1,0.90855,20,male,2020-09-11_21h50.21.761,torte-2b,2020.1.3,Win32,60,13451,,,,,,,,,,,,,,,,,,,,,,,,,,,,,,,,,,,,,0,8,8,45,1,,,,,,,,,,,,,,,,,,,,,,,,
,,,,,,,,,,,,l,0.795525,Incorrect,,,,,,t2.png,t1.png,1,0.90025,20,male,2020-09-11_21h50.21.761,torte-2b,2020.1.3,Win32,60,13451,,,,,,,,,,,,,,,,,,,,,,,,,,,,,,,,,,,,,0,9,9,19,1,,,,,,,,,,,,,,,,,,,,,,,,
,,,,,,,,,,,,l,0.66033,Incorrect,,,,,,t1.png,t1.png,0,0.97829,20,male,2020-09-11_21h50.21.761,torte-2b,2020.1.3,Win32,60,13451,,,,,,,,,,,,,,,,,,,,,,,,,,,,,,,,,,,,,0,10,10,78,1,,,,,,,,,,,,,,,,,,,,,,,,
,,,,,,,,,,,,a,1.35104,Incorrect,,,,,,t2.png,t5.png,3,0.0000131,20,male,2020-09-11_21h50.21.761,torte-2b,2020.1.3,Win32,60,13451,,,,,,,,,,,,,,,,,,,,,,,,,,,,,,,,,,,,,0,11,11,40,1,,,,,,,,,,,,,,,,,,,,,,,,
,,,,,,,,,,,,a,1.22281,Incorrect,,,,,,t2.png,t4.png,2,0.059078,20,male,2020-09-11_21h50.21.761,torte-2b,2020.1.3,Win32,60,13451,,,,,,,,,,,,,,,,,,,,,,,,,,,,,,,,,,,,,0,12,12,77,1,,,,,,,,,,,,,,,,,,,,,,,,
,,,,,,,,,,,,l,0.88265,Incorrect,,,,,,t2.png,t3.png,1,0.90855,20,male,2020-09-11_21h50.21.761,torte-2b,2020.1.3,Win32,60,13451,,,,,,,,,,,,,,,,,,,,,,,,,,,,,,,,,,,,,0,13,13,111,1,,,,,,,,,,,,,,,,,,,,,,,,
,,,,,,,,,,,,a,1.36755,Incorrect,,,,,,t2.png,t4.png,2,0.059078,20,male,2020-09-11_21h50.21.761,torte-2b,2020.1.3,Win32,60,13451,,,,,,,,,,,,,,,,,,,,,,,,,,,,,,,,,,,,,0,14,14,37,1,,,,,,,,,,,,,,,,,,,,,,,,
,,,,,,,,,,,,a,1.08455,Incorrect,,,,,,t5.png,t3.png,2,0.056466,20,male,2020-09-11_21h50.21.761,torte-2b,2020.1.3,Win32,60,13451,,,,,,,,,,,,,,,,,,,,,,,,,,,,,,,,,,,,,0,15,15,108,1,,,,,,,,,,,,,,,,,,,,,,,,
,,,,,,,,,,,,l,1.363025,Correct!,,,,,,t2.png,t4.png,2,0.0591,20,male,2020-09-11_21h50.21.761,torte-2b,2020.1.3,Win32,60,13451,,,,,,,,,,,,,,,,,,,,,,,,,,,,,,,,,,,,,0,16,16,15,1,,,,,,,,,,,,,,,,,,,,,,,,
,,,,,,,,,,,,a,1.129805,Incorrect,,,,,,t5.png,t2.png,3,0.0000131,20,male,2020-09-11_21h50.21.761,torte-2b,2020.1.3,Win32,60,13451,,,,,,,,,,,,,,,,,,,,,,,,,,,,,,,,,,,,,0,17,17,91,1,,,,,,,,,,,,,,,,,,,,,,,,
,,,,,,,,,,,,l,1.6896,Correct!,,,,,,t4.png,t1.png,3,0.0000131,20,male,2020-09-11_21h50.21.761,torte-2b,2020.1.3,Win32,60,13451,,,,,,,,,,,,,,,,,,,,,,,,,,,,,,,,,,,,,0,18,18,93,1,,,,,,,,,,,,,,,,,,,,,,,,
,,,,,,,,,,,,a,0.893835,Incorrect,,,,,,t5.png,t2.png,3,0.0000131,20,male,2020-09-11_21h50.21.761,torte-2b,2020.1.3,Win32,60,13451,,,,,,,,,,,,,,,,,,,,,,,,,,,,,,,,,,,,,0,19,19,98,1,,,,,,,,,,,,,,,,,,,,,,,,
,,,,,,,,,,,,a,0.49437,Correct!,,,,,,t4.png,t4.png,0,0.98115,20,male,2020-09-11_21h50.21.761,torte-2b,2020.1.3,Win32,60,13451,,,,,,,,,,,,,,,,,,,,,,,,,,,,,,,,,,,,,0,20,20,80,1,,,,,,,,,,,,,,,,,,,,,,,,
,,,,,,,,,,,,l,1.03596,Incorrect,,,,,,t5.png,t5.png,0,0.97829,20,male,2020-09-11_21h50.21.761,torte-2b,2020.1.3,Win32,60,13451,,,,,,,,,,,,,,,,,,,,,,,,,,,,,,,,,,,,,0,21,21,94,1,,,,,,,,,,,,,,,,,,,,,,,,
,,,,,,,,,,,,a,1.071895,Correct!,,,,,,t1.png,t2.png,1,0.90025,20,male,2020-09-11_21h50.21.761,torte-2b,2020.1.3,Win32,60,13451,,,,,,,,,,,,,,,,,,,,,,,,,,,,,,,,,,,,,0,22,22,72,1,,,,,,,,,,,,,,,,,,,,,,,,
,,,,,,,,,,,,l,0.911275,Incorrect,,,,,,t1.png,t1.png,0,0.97829,20,male,2020-09-11_21h50.21.761,torte-2b,2020.1.3,Win32,60,13451,,,,,,,,,,,,,,,,,,,,,,,,,,,,,,,,,,,,,0,23,23,9,1,,,,,,,,,,,,,,,,,,,,,,,,
,,,,,,,,,,,,a,1.13827,Incorrect,,,,,,t4.png,t2.png,2,0.0591,20,male,2020-09-11_21h50.21.761,torte-2b,2020.1.3,Win32,60,13451,,,,,,,,,,,,,,,,,,,,,,,,,,,,,,,,,,,,,0,24,24,36,1,,,,,,,,,,,,,,,,,,,,,,,,
,,,,,,,,,,,,a,1.361315,Incorrect,,,,,,t5.png,t3.png,2,0.056466,20,male,2020-09-11_21h50.21.761,torte-2b,2020.1.3,Win32,60,13451,,,,,,,,,,,,,,,,,,,,,,,,,,,,,,,,,,,,,0,25,25,38,1,,,,,,,,,,,,,,,,,,,,,,,,
,,,,,,,,,,,,a,0.910955,Incorrect,,,,,,t4.png,t2.png,2,0.059078,20,male,2020-09-11_21h50.21.761,torte-2b,2020.1.3,Win32,60,13451,,,,,,,,,,,,,,,,,,,,,,,,,,,,,,,,,,,,,0,26,26,109,1,,,,,,,,,,,,,,,,,,,,,,,,
,,,,,,,,,,,,l,0.85438,Correct!,,,,,,t4.png,t1.png,3,0.0000131,20,male,2020-09-11_21h50.21.761,torte-2b,2020.1.3,Win32,60,13451,,,,,,,,,,,,,,,,,,,,,,,,,,,,,,,,,,,,,0,27,27,42,1,,,,,,,,,,,,,,,,,,,,,,,,
,,,,,,,,,,,,a,1.32094,Incorrect,,,,,,t5.png,t3.png,2,0.056466,20,male,2020-09-11_21h50.21.761,torte-2b,2020.1.3,Win32,60,13451,,,,,,,,,,,,,,,,,,,,,,,,,,,,,,,,,,,,,0,28,28,56,1,,,,,,,,,,,,,,,,,,,,,,,,
,,,,,,,,,,,,l,1.00688,Correct!,,,,,,t5.png,t1.png,4,9.55E-11,20,male,2020-09-11_21h50.21.761,torte-2b,2020.1.3,Win32,60,13451,,,,,,,,,,,,,,,,,,,,,,,,,,,,,,,,,,,,,0,29,29,100,1,,,,,,,,,,,,,,,,,,,,,,,,
,,,,,,,,,,,,a,1.11155,Correct!,,,,,,t4.png,t5.png,1,0.90025,20,male,2020-09-11_21h50.21.761,torte-2b,2020.1.3,Win32,60,13451,,,,,,,,,,,,,,,,,,,,,,,,,,,,,,,,,,,,,0,30,30,58,1,,,,,,,,,,,,,,,,,,,,,,,,
,,,,,,,,,,,,a,0.832785,Incorrect,,,,,,t5.png,t3.png,2,0.056466,20,male,2020-09-11_21h50.21.761,torte-2b,2020.1.3,Win32,60,13451,,,,,,,,,,,,,,,,,,,,,,,,,,,,,,,,,,,,,0,31,31,114,1,,,,,,,,,,,,,,,,,,,,,,,,
,,,,,,,,,,,,a,0.95735,Incorrect,,,,,,t3.png,t5.png,2,0.0565,20,male,2020-09-11_21h50.21.761,torte-2b,2020.1.3,Win32,60,13451,,,,,,,,,,,,,,,,,,,,,,,,,,,,,,,,,,,,,0,32,32,83,1,,,,,,,,,,,,,,,,,,,,,,,,
,,,,,,,,,,,,l,0.83442,Incorrect,,,,,,t1.png,t1.png,0,0.978,20,male,2020-09-11_21h50.21.761,torte-2b,2020.1.3,Win32,60,13451,,,,,,,,,,,,,,,,,,,,,,,,,,,,,,,,,,,,,0,33,33,28,1,,,,,,,,,,,,,,,,,,,,,,,,
,,,,,,,,,,,,l,1.127445,Correct!,,,,,,t4.png,t1.png,3,0.0000131,20,male,2020-09-11_21h50.21.761,torte-2b,2020.1.3,Win32,60,13451,,,,,,,,,,,,,,,,,,,,,,,,,,,,,,,,,,,,,0,34,34,13,1,,,,,,,,,,,,,,,,,,,,,,,,
,,,,,,,,,,,,l,0.7789,Correct!,,,,,,t5.png,t1.png,4,9.55E-11,20,male,2020-09-11_21h50.21.761,torte-2b,2020.1.3,Win32,60,13451,,,,,,,,,,,,,,,,,,,,,,,,,,,,,,,,,,,,,0,35,35,43,1,,,,,,,,,,,,,,,,,,,,,,,,
,,,,,,,,,,,,l,1.22193,Correct!,,,,,,t3.png,t1.png,2,0.0565,20,male,2020-09-11_21h50.21.761,torte-2b,2020.1.3,Win32,60,13451,,,,,,,,,,,,,,,,,,,,,,,,,,,,,,,,,,,,,0,36,36,31,1,,,,,,,,,,,,,,,,,,,,,,,,
,,,,,,,,,,,,l,1.521665,Incorrect,,,,,,t3.png,t2.png,1,0.909,20,male,2020-09-11_21h50.21.761,torte-2b,2020.1.3,Win32,60,13451,,,,,,,,,,,,,,,,,,,,,,,,,,,,,,,,,,,,,0,37,37,23,1,,,,,,,,,,,,,,,,,,,,,,,,
,,,,,,,,,,,,l,0.625735,Incorrect,,,,,,t3.png,t1.png,2,0.056466,20,male,2020-09-11_21h50.21.761,torte-2b,2020.1.3,Win32,60,13451,,,,,,,,,,,,,,,,,,,,,,,,,,,,,,,,,,,,,0,38,38,64,1,,,,,,,,,,,,,,,,,,,,,,,,
,,,,,,,,,,,,l,0.64689,Correct!,,,,,,t1.png,t4.png,3,0.0000131,20,male,2020-09-11_21h50.21.761,torte-2b,2020.1.3,Win32,60,13451,,,,,,,,,,,,,,,,,,,,,,,,,,,,,,,,,,,,,0,39,39,17,1,,,,,,,,,,,,,,,,,,,,,,,,
,,,,,,,,,,,,l,0.736955,Correct!,,,,,,t1.png,t4.png,3,0.0000131,20,male,2020-09-11_21h50.21.761,torte-2b,2020.1.3,Win32,60,13451,,,,,,,,,,,,,,,,,,,,,,,,,,,,,,,,,,,,,0,40,40,50,1,,,,,,,,,,,,,,,,,,,,,,,,
,,,,,,,,,,,,a,1.108345,Correct!,,,,,,t3.png,t4.png,1,0.90855,20,male,2020-09-11_21h50.21.761,torte-2b,2020.1.3,Win32,60,13451,,,,,,,,,,,,,,,,,,,,,,,,,,,,,,,,,,,,,0,41,41,84,1,,,,,,,,,,,,,,,,,,,,,,,,
,,,,,,,,,,,,l,0.69601,Incorrect,,,,,,t1.png,t2.png,1,0.90025,20,male,2020-09-11_21h50.21.761,torte-2b,2020.1.3,Win32,60,13451,,,,,,,,,,,,,,,,,,,,,,,,,,,,,,,,,,,,,0,42,42,112,1,,,,,,,,,,,,,,,,,,,,,,,,
,,,,,,,,,,,,a,0.62603,Incorrect,,,,,,t4.png,t2.png,2,0.059078,20,male,2020-09-11_21h50.21.761,torte-2b,2020.1.3,Win32,60,13451,,,,,,,,,,,,,,,,,,,,,,,,,,,,,,,,,,,,,0,43,43,110,1,,,,,,,,,,,,,,,,,,,,,,,,
,,,,,,,,,,,,l,1.209095,Correct!,,,,,,t3.png,t1.png,2,0.056466,20,male,2020-09-11_21h50.21.761,torte-2b,2020.1.3,Win32,60,13451,,,,,,,,,,,,,,,,,,,,,,,,,,,,,,,,,,,,,0,44,44,32,1,,,,,,,,,,,,,,,,,,,,,,,,
,,,,,,,,,,,,l,0.864295,Incorrect,,,,,,t2.png,t3.png,1,0.909,20,male,2020-09-11_21h50.21.761,torte-2b,2020.1.3,Win32,60,13451,,,,,,,,,,,,,,,,,,,,,,,,,,,,,,,,,,,,,0,45,45,74,1,,,,,,,,,,,,,,,,,,,,,,,,
,,,,,,,,,,,,a,1.558685,Incorrect,,,,,,t3.png,t1.png,2,0.056466,20,male,2020-09-11_21h50.21.761,torte-2b,2020.1.3,Win32,60,13451,,,,,,,,,,,,,,,,,,,,,,,,,,,,,,,,,,,,,0,46,46,0,1,,,,,,,,,,,,,,,,,,,,,,,,
,,,,,,,,,,,,a,1.05166,Incorrect,,,,,,t3.png,t4.png,1,0.90855,20,male,2020-09-11_21h50.21.761,torte-2b,2020.1.3,Win32,60,13451,,,,,,,,,,,,,,,,,,,,,,,,,,,,,,,,,,,,,0,47,47,96,1,,,,,,,,,,,,,,,,,,,,,,,,
,,,,,,,,,,,,l,1.133735,Correct!,,,,,,t1.png,t3.png,2,0.056466,20,male,2020-09-11_21h50.21.761,torte-2b,2020.1.3,Win32,60,13451,,,,,,,,,,,,,,,,,,,,,,,,,,,,,,,,,,,,,0,48,48,63,1,,,,,,,,,,,,,,,,,,,,,,,,
,,,,,,,,,,,,l,1.208435,Incorrect,,,,,,t3.png,t2.png,1,0.909,20,male,2020-09-11_21h50.21.761,torte-2b,2020.1.3,Win32,60,13451,,,,,,,,,,,,,,,,,,,,,,,,,,,,,,,,,,,,,0,49,49,3,1,,,,,,,,,,,,,,,,,,,,,,,,
,,,,,,,,,,,,l,1.447095,Correct!,,,,,,t1.png,t4.png,3,0.0000131,20,male,2020-09-11_21h50.21.761,torte-2b,2020.1.3,Win32,60,13451,,,,,,,,,,,,,,,,,,,,,,,,,,,,,,,,,,,,,0,50,50,81,1,,,,,,,,,,,,,,,,,,,,,,,,
,,,,,,,,,,,,l,0.967655,Correct!,,,,,,t1.png,t3.png,2,0.056466,20,male,2020-09-11_21h50.21.761,torte-2b,2020.1.3,Win32,60,13451,,,,,,,,,,,,,,,,,,,,,,,,,,,,,,,,,,,,,0,51,51,60,1,,,,,,,,,,,,,,,,,,,,,,,,
,,,,,,,,,,,,l,0.94503,Incorrect,,,,,,t3.png,t2.png,1,0.90855,20,male,2020-09-11_21h50.21.761,torte-2b,2020.1.3,Win32,60,13451,,,,,,,,,,,,,,,,,,,,,,,,,,,,,,,,,,,,,0,52,52,97,1,,,,,,,,,,,,,,,,,,,,,,,,
,,,,,,,,,,,,a,1.715445,Incorrect,,,,,,t5.png,t3.png,2,0.0565,20,male,2020-09-11_21h50.21.761,torte-2b,2020.1.3,Win32,60,13451,,,,,,,,,,,,,,,,,,,,,,,,,,,,,,,,,,,,,0,53,53,39,1,,,,,,,,,,,,,,,,,,,,,,,,
,,,,,,,,,,,,l,0.84798,Correct!,,,,,,t2.png,t4.png,2,0.059078,20,male,2020-09-11_21h50.21.761,torte-2b,2020.1.3,Win32,60,13451,,,,,,,,,,,,,,,,,,,,,,,,,,,,,,,,,,,,,0,54,54,24,1,,,,,,,,,,,,,,,,,,,,,,,,
,,,,,,,,,,,,a,0.95938,Incorrect,,,,,,t5.png,t2.png,3,0.0000131,20,male,2020-09-11_21h50.21.761,torte-2b,2020.1.3,Win32,60,13451,,,,,,,,,,,,,,,,,,,,,,,,,,,,,,,,,,,,,0,55,55,116,1,,,,,,,,,,,,,,,,,,,,,,,,
,,,,,,,,,,,,l,1.619025,Incorrect,,,,,,t3.png,t2.png,1,0.90855,20,male,2020-09-11_21h50.21.761,torte-2b,2020.1.3,Win32,60,13451,,,,,,,,,,,,,,,,,,,,,,,,,,,,,,,,,,,,,0,56,56,18,1,,,,,,,,,,,,,,,,,,,,,,,,
,,,,,,,,,,,,l,2.069775,Correct!,,,,,,t3.png,t5.png,2,0.0565,20,male,2020-09-11_21h50.21.761,torte-2b,2020.1.3,Win32,60,13451,,,,,,,,,,,,,,,,,,,,,,,,,,,,,,,,,,,,,0,57,57,30,1,,,,,,,,,,,,,,,,,,,,,,,,
,,,,,,,,,,,,a,1.618715,Correct!,,,,,,t4.png,t5.png,1,0.90025,20,male,2020-09-11_21h50.21.761,torte-2b,2020.1.3,Win32,60,13451,,,,,,,,,,,,,,,,,,,,,,,,,,,,,,,,,,,,,0,58,58,113,1,,,,,,,,,,,,,,,,,,,,,,,,
,,,,,,,,,,,,l,1.486945,Correct!,,,,,,t2.png,t3.png,1,0.90855,20,male,2020-09-11_21h50.21.761,torte-2b,2020.1.3,Win32,60,13451,,,,,,,,,,,,,,,,,,,,,,,,,,,,,,,,,,,,,0,59,59,10,1,,,,,,,,,,,,,,,,,,,,,,,,
,,,,,,,,,,,,a,1.188055,Incorrect,,,,,,t2.png,t5.png,3,0.0000131,20,male,2020-09-11_21h50.21.761,torte-2b,2020.1.3,Win32,60,13451,,,,,,,,,,,,,,,,,,,,,,,,,,,,,,,,,,,,,0,60,60,95,1,,,,,,,,,,,,,,,,,,,,,,,,
,,,,,,,,,,,,a,1.39805,Correct!,,,,,,t5.png,t4.png,1,0.9,20,male,2020-09-11_21h50.21.761,torte-2b,2020.1.3,Win32,60,13451,,,,,,,,,,,,,,,,,,,,,,,,,,,,,,,,,,,,,0,61,61,49,1,,,,,,,,,,,,,,,,,,,,,,,,
,,,,,,,,,,,,l,1.586945,Incorrect,,,,,,t1.png,t2.png,1,0.9,20,male,2020-09-11_21h50.21.761,torte-2b,2020.1.3,Win32,60,13451,,,,,,,,,,,,,,,,,,,,,,,,,,,,,,,,,,,,,0,62,62,1,1,,,,,,,,,,,,,,,,,,,,,,,,
,,,,,,,,,,,,a,1.68278,Incorrect,,,,,,t4.png,t2.png,2,0.059078,20,male,2020-09-11_21h50.21.761,torte-2b,2020.1.3,Win32,60,13451,,,,,,,,,,,,,,,,,,,,,,,,,,,,,,,,,,,,,0,63,63,88,1,,,,,,,,,,,,,,,,,,,,,,,,
,,,,,,,,,,,,a,1.931785,Correct!,,,,,,t4.png,t4.png,0,0.98115,20,male,2020-09-11_21h50.21.761,torte-2b,2020.1.3,Win32,60,13451,,,,,,,,,,,,,,,,,,,,,,,,,,,,,,,,,,,,,0,64,64,21,1,,,,,,,,,,,,,,,,,,,,,,,,
,,,,,,,,,,,,l,1.28829,Incorrect,,,,,,t1.png,t2.png,1,0.90025,20,male,2020-09-11_21h50.21.761,torte-2b,2020.1.3,Win32,60,13451,,,,,,,,,,,,,,,,,,,,,,,,,,,,,,,,,,,,,0,65,65,33,1,,,,,,,,,,,,,,,,,,,,,,,,
,,,,,,,,,,,,a,1.974025,Correct!,,,,,,t5.png,t5.png,0,0.978,20,male,2020-09-11_21h50.21.761,torte-2b,2020.1.3,Win32,60,13451,,,,,,,,,,,,,,,,,,,,,,,,,,,,,,,,,,,,,0,66,66,117,1,,,,,,,,,,,,,,,,,,,,,,,,
,,,,,,,,,,,,a,2.360065,Correct!,,,,,,t5.png,t4.png,1,0.90025,20,male,2020-09-11_21h50.21.761,torte-2b,2020.1.3,Win32,60,13451,,,,,,,,,,,,,,,,,,,,,,,,,,,,,,,,,,,,,0,67,67,26,1,,,,,,,,,,,,,,,,,,,,,,,,
,,,,,,,,,,,,a,0.80055,Correct!,,,,,,t4.png,t3.png,1,0.90855,20,male,2020-09-11_21h50.21.761,torte-2b,2020.1.3,Win32,60,13451,,,,,,,,,,,,,,,,,,,,,,,,,,,,,,,,,,,,,0,68,68,35,1,,,,,,,,,,,,,,,,,,,,,,,,
,,,,,,,,,,,,a,0.37003,Correct!,,,,,,t3.png,t4.png,1,0.909,20,male,2020-09-11_21h50.21.761,torte-2b,2020.1.3,Win32,60,13451,,,,,,,,,,,,,,,,,,,,,,,,,,,,,,,,,,,,,0,69,69,82,1,,,,,,,,,,,,,,,,,,,,,,,,
,,,,,,,,,,,,l,0.730435,Correct!,,,,,,t4.png,t1.png,3,0.0000131,20,male,2020-09-11_21h50.21.761,torte-2b,2020.1.3,Win32,60,13451,,,,,,,,,,,,,,,,,,,,,,,,,,,,,,,,,,,,,0,70,70,61,1,,,,,,,,,,,,,,,,,,,,,,,,
,,,,,,,,,,,,l,0.936625,Correct!,,,,,,t1.png,t4.png,3,0.0000131,20,male,2020-09-11_21h50.21.761,torte-2b,2020.1.3,Win32,60,13451,,,,,,,,,,,,,,,,,,,,,,,,,,,,,,,,,,,,,0,71,71,92,1,,,,,,,,,,,,,,,,,,,,,,,,
,,,,,,,,,,,,l,1.773175,Incorrect,,,,,,t2.png,t1.png,1,0.90025,20,male,2020-09-11_21h50.21.761,torte-2b,2020.1.3,Win32,60,13451,,,,,,,,,,,,,,,,,,,,,,,,,,,,,,,,,,,,,0,72,72,5,1,,,,,,,,,,,,,,,,,,,,,,,,
,,,,,,,,,,,,a,1.290555,Incorrect,,,,,,t2.png,t5.png,3,0.0000131,20,male,2020-09-11_21h50.21.761,torte-2b,2020.1.3,Win32,60,13451,,,,,,,,,,,,,,,,,,,,,,,,,,,,,,,,,,,,,0,73,73,66,1,,,,,,,,,,,,,,,,,,,,,,,,
,,,,,,,,,,,,l,0.855615,Incorrect,,,,,,t4.png,t5.png,1,0.90025,20,male,2020-09-11_21h50.21.761,torte-2b,2020.1.3,Win32,60,13451,,,,,,,,,,,,,,,,,,,,,,,,,,,,,,,,,,,,,0,74,74,103,1,,,,,,,,,,,,,,,,,,,,,,,,
,,,,,,,,,,,,l,1.522105,Correct!,,,,,,t1.png,t5.png,4,9.55E-11,20,male,2020-09-11_21h50.21.761,torte-2b,2020.1.3,Win32,60,13451,,,,,,,,,,,,,,,,,,,,,,,,,,,,,,,,,,,,,0,75,75,41,1,,,,,,,,,,,,,,,,,,,,,,,,
,,,,,,,,,,,,a,0.95957,Correct!,,,,,,t4.png,t4.png,0,0.98115,20,male,2020-09-11_21h50.21.761,torte-2b,2020.1.3,Win32,60,13451,,,,,,,,,,,,,,,,,,,,,,,,,,,,,,,,,,,,,0,76,76,90,1,,,,,,,,,,,,,,,,,,,,,,,,
,,,,,,,,,,,,l,1.24375,Incorrect,,,,,,t2.png,t3.png,1,0.90855,20,male,2020-09-11_21h50.21.761,torte-2b,2020.1.3,Win32,60,13451,,,,,,,,,,,,,,,,,,,,,,,,,,,,,,,,,,,,,0,77,77,68,1,,,,,,,,,,,,,,,,,,,,,,,,
,,,,,,,,,,,,a,1.299735,Incorrect,,,,,,t5.png,t2.png,3,0.0000131,20,male,2020-09-11_21h50.21.761,torte-2b,2020.1.3,Win32,60,13451,,,,,,,,,,,,,,,,,,,,,,,,,,,,,,,,,,,,,0,78,78,51,1,,,,,,,,,,,,,,,,,,,,,,,,
,,,,,,,,,,,,l,0.714415,Incorrect,,,,,,t1.png,t1.png,0,0.978,20,male,2020-09-11_21h50.21.761,torte-2b,2020.1.3,Win32,60,13451,,,,,,,,,,,,,,,,,,,,,,,,,,,,,,,,,,,,,0,79,79,54,1,,,,,,,,,,,,,,,,,,,,,,,,
,,,,,,,,,,,,a,1.618355,Correct!,,,,,,t4.png,t5.png,1,0.90025,20,male,2020-09-11_21h50.21.761,torte-2b,2020.1.3,Win32,60,13451,,,,,,,,,,,,,,,,,,,,,,,,,,,,,,,,,,,,,0,80,80,47,1,,,,,,,,,,,,,,,,,,,,,,,,
,,,,,,,,,,,,l,1.716395,Correct!,,,,,,t1.png,t3.png,2,0.056466,20,male,2020-09-11_21h50.21.761,torte-2b,2020.1.3,Win32,60,13451,,,,,,,,,,,,,,,,,,,,,,,,,,,,,,,,,,,,,0,81,81,69,1,,,,,,,,,,,,,,,,,,,,,,,,
,,,,,,,,,,,,a,0.734665,Correct!,,,,,,t5.png,t5.png,0,0.97829,20,male,2020-09-11_21h50.21.761,torte-2b,2020.1.3,Win32,60,13451,,,,,,,,,,,,,,,,,,,,,,,,,,,,,,,,,,,,,0,82,82,73,1,,,,,,,,,,,,,,,,,,,,,,,,
,,,,,,,,,,,,a,1.17994,Incorrect,,,,,,t5.png,t1.png,4,9.55E-11,20,male,2020-09-11_21h50.21.761,torte-2b,2020.1.3,Win32,60,13451,,,,,,,,,,,,,,,,,,,,,,,,,,,,,,,,,,,,,0,83,83,71,1,,,,,,,,,,,,,,,,,,,,,,,,
,,,,,,,,,,,,l,1.639655,Correct!,,,,,,t4.png,t1.png,3,0.0000131,20,male,2020-09-11_21h50.21.761,torte-2b,2020.1.3,Win32,60,13451,,,,,,,,,,,,,,,,,,,,,,,,,,,,,,,,,,,,,0,84,84,48,1,,,,,,,,,,,,,,,,,,,,,,,,
,,,,,,,,,,,,a,1.390665,Incorrect,,,,,,t5.png,t2.png,3,0.0000131,20,male,2020-09-11_21h50.21.761,torte-2b,2020.1.3,Win32,60,13451,,,,,,,,,,,,,,,,,,,,,,,,,,,,,,,,,,,,,0,85,85,119,1,,,,,,,,,,,,,,,,,,,,,,,,
,,,,,,,,,,,,l,1.924025,Incorrect,,,,,,t2.png,t1.png,1,0.90025,20,male,2020-09-11_21h50.21.761,torte-2b,2020.1.3,Win32,60,13451,,,,,,,,,,,,,,,,,,,,,,,,,,,,,,,,,,,,,0,86,86,4,1,,,,,,,,,,,,,,,,,,,,,,,,
,,,,,,,,,,,,l,1.575345,Incorrect,,,,,,t3.png,t4.png,1,0.909,20,male,2020-09-11_21h50.21.761,torte-2b,2020.1.3,Win32,60,13451,,,,,,,,,,,,,,,,,,,,,,,,,,,,,,,,,,,,,0,87,87,106,1,,,,,,,,,,,,,,,,,,,,,,,,
,,,,,,,,,,,,l,0.973905,Correct!,,,,,,t3.png,t5.png,2,0.056466,20,male,2020-09-11_21h50.21.761,torte-2b,2020.1.3,Win32,60,13451,,,,,,,,,,,,,,,,,,,,,,,,,,,,,,,,,,,,,0,88,88,14,1,,,,,,,,,,,,,,,,,,,,,,,,
,,,,,,,,,,,,l,0.70972,Correct!,,,,,,t5.png,t1.png,4,9.55E-11,20,male,2020-09-11_21h50.21.761,torte-2b,2020.1.3,Win32,60,13451,,,,,,,,,,,,,,,,,,,,,,,,,,,,,,,,,,,,,0,89,89,22,1,,,,,,,,,,,,,,,,,,,,,,,,
,,,,,,,,,,,,l,0.937305,Incorrect,,,,,,t3.png,t2.png,1,0.90855,20,male,2020-09-11_21h50.21.761,torte-2b,2020.1.3,Win32,60,13451,,,,,,,,,,,,,,,,,,,,,,,,,,,,,,,,,,,,,0,90,90,53,1,,,,,,,,,,,,,,,,,,,,,,,,
,,,,,,,,,,,,a,0.486905,Incorrect,,,,,,t5.png,t1.png,4,9.55E-11,20,male,2020-09-11_21h50.21.761,torte-2b,2020.1.3,Win32,60,13451,,,,,,,,,,,,,,,,,,,,,,,,,,,,,,,,,,,,,0,91,91,102,1,,,,,,,,,,,,,,,,,,,,,,,,
,,,,,,,,,,,,l,1.464585,Incorrect,,,,,,t2.png,t1.png,1,0.90025,20,male,2020-09-11_21h50.21.761,torte-2b,2020.1.3,Win32,60,13451,,,,,,,,,,,,,,,,,,,,,,,,,,,,,,,,,,,,,0,92,92,62,1,,,,,,,,,,,,,,,,,,,,,,,,
,,,,,,,,,,,,a,1.981735,Correct!,,,,,,t3.png,t4.png,1,0.909,20,male,2020-09-11_21h50.21.761,torte-2b,2020.1.3,Win32,60,13451,,,,,,,,,,,,,,,,,,,,,,,,,,,,,,,,,,,,,0,93,93,89,1,,,,,,,,,,,,,,,,,,,,,,,,
,,,,,,,,,,,,a,1.833365,Incorrect,,,,,,t3.png,t5.png,2,0.056466,20,male,2020-09-11_21h50.21.761,torte-2b,2020.1.3,Win32,60,13451,,,,,,,,,,,,,,,,,,,,,,,,,,,,,,,,,,,,,0,94,94,44,1,,,,,,,,,,,,,,,,,,,,,,,,
,,,,,,,,,,,,a,1.51468,Correct!,,,,,,t4.png,t3.png,1,0.90855,20,male,2020-09-11_21h50.21.761,torte-2b,2020.1.3,Win32,60,13451,,,,,,,,,,,,,,,,,,,,,,,,,,,,,,,,,,,,,0,95,95,75,1,,,,,,,,,,,,,,,,,,,,,,,,
,,,,,,,,,,,,a,1.162825,Incorrect,,,,,,t4.png,t3.png,1,0.909,20,male,2020-09-11_21h50.21.761,torte-2b,2020.1.3,Win32,60,13451,,,,,,,,,,,,,,,,,,,,,,,,,,,,,,,,,,,,,0,96,96,20,1,,,,,,,,,,,,,,,,,,,,,,,,
,,,,,,,,,,,,l,0.97719,Correct!,,,,,,t1.png,t4.png,3,0.0000131,20,male,2020-09-11_21h50.21.761,torte-2b,2020.1.3,Win32,60,13451,,,,,,,,,,,,,,,,,,,,,,,,,,,,,,,,,,,,,0,97,97,107,1,,,,,,,,,,,,,,,,,,,,,,,,
,,,,,,,,,,,,a,1.37581,Correct!,,,,,,t2.png,t2.png,0,0.98115,20,male,2020-09-11_21h50.21.761,torte-2b,2020.1.3,Win32,60,13451,,,,,,,,,,,,,,,,,,,,,,,,,,,,,,,,,,,,,0,98,98,59,1,,,,,,,,,,,,,,,,,,,,,,,,
,,,,,,,,,,,,a,2.266285,Correct!,,,,,,t5.png,t5.png,0,0.97829,20,male,2020-09-11_21h50.21.761,torte-2b,2020.1.3,Win32,60,13451,,,,,,,,,,,,,,,,,,,,,,,,,,,,,,,,,,,,,0,99,99,70,1,,,,,,,,,,,,,,,,,,,,,,,,
,,,,,,,,,,,,l,1.146185,Correct!,,,,,,t1.png,t3.png,2,0.056466,20,male,2020-09-11_21h50.21.761,torte-2b,2020.1.3,Win32,60,13451,,,,,,,,,,,,,,,,,,,,,,,,,,,,,,,,,,,,,0,100,100,87,1,,,,,,,,,,,,,,,,,,,,,,,,
,,,,,,,,,,,,a,1.89145,Incorrect,,,,,,t2.png,t5.png,3,0.0000131,20,male,2020-09-11_21h50.21.761,torte-2b,2020.1.3,Win32,60,13451,,,,,,,,,,,,,,,,,,,,,,,,,,,,,,,,,,,,,0,101,101,8,1,,,,,,,,,,,,,,,,,,,,,,,,
,,,,,,,,,,,,l,2.146145,Correct!,,,,,,t1.png,t5.png,4,9.55E-11,20,male,2020-09-11_21h50.21.761,torte-2b,2020.1.3,Win32,60,13451,,,,,,,,,,,,,,,,,,,,,,,,,,,,,,,,,,,,,0,102,102,12,1,,,,,,,,,,,,,,,,,,,,,,,,
,,,,,,,,,,,,l,1.764975,Correct!,,,,,,t1.png,t5.png,4,9.55E-11,20,male,2020-09-11_21h50.21.761,torte-2b,2020.1.3,Win32,60,13451,,,,,,,,,,,,,,,,,,,,,,,,,,,,,,,,,,,,,0,103,103,16,1,,,,,,,,,,,,,,,,,,,,,,,,
,,,,,,,,,,,,,,Too slow :(,,,,,,t4.png,t5.png,1,0.9,20,male,2020-09-11_21h50.21.761,torte-2b,2020.1.3,Win32,60,13451,,,,,,,,,,,,,,,,,,,,,,,,,,,,,,,,,,,,,0,104,104,115,1,,,,,,,,,,,,,,,,,,,,,,,,
,,,,,,,,,,,,a,2.313955,Incorrect,,,,,,t3.png,t5.png,2,0.056466,20,male,2020-09-11_21h50.21.761,torte-2b,2020.1.3,Win32,60,13451,,,,,,,,,,,,,,,,,,,,,,,,,,,,,,,,,,,,,0,105,105,6,1,,,,,,,,,,,,,,,,,,,,,,,,
,,,,,,,,,,,,a,1.188945,Correct!,,,,,,t2.png,t2.png,0,0.98115,20,male,2020-09-11_21h50.21.761,torte-2b,2020.1.3,Win32,60,13451,,,,,,,,,,,,,,,,,,,,,,,,,,,,,,,,,,,,,0,106,106,2,1,,,,,,,,,,,,,,,,,,,,,,,,
,,,,,,,,,,,,a,1.29989,Correct!,,,,,,t5.png,t5.png,0,0.97829,20,male,2020-09-11_21h50.21.761,torte-2b,2020.1.3,Win32,60,13451,,,,,,,,,,,,,,,,,,,,,,,,,,,,,,,,,,,,,0,107,107,25,1,,,,,,,,,,,,,,,,,,,,,,,,
,,,,,,,,,,,,a,0.585125,Correct!,,,,,,t5.png,t4.png,1,0.90025,20,male,2020-09-11_21h50.21.761,torte-2b,2020.1.3,Win32,60,13451,,,,,,,,,,,,,,,,,,,,,,,,,,,,,,,,,,,,,0,108,108,27,1,,,,,,,,,,,,,,,,,,,,,,,,
,,,,,,,,,,,,a,1.570625,Correct!,,,,,,t4.png,t3.png,1,0.909,20,male,2020-09-11_21h50.21.761,torte-2b,2020.1.3,Win32,60,13451,,,,,,,,,,,,,,,,,,,,,,,,,,,,,,,,,,,,,0,109,109,46,1,,,,,,,,,,,,,,,,,,,,,,,,
,,,,,,,,,,,,a,0.933475,Incorrect,,,,,,t2.png,t4.png,2,0.059078,20,male,2020-09-11_21h50.21.761,torte-2b,2020.1.3,Win32,60,13451,,,,,,,,,,,,,,,,,,,,,,,,,,,,,,,,,,,,,0,110,110,11,1,,,,,,,,,,,,,,,,,,,,,,,,
,,,,,,,,,,,,l,1.07852,Correct!,,,,,,t1.png,t5.png,4,9.55E-11,20,male,2020-09-11_21h50.21.761,torte-2b,2020.1.3,Win32,60,13451,,,,,,,,,,,,,,,,,,,,,,,,,,,,,,,,,,,,,0,111,111,85,1,,,,,,,,,,,,,,,,,,,,,,,,
,,,,,,,,,,,,l,1.32091,Correct!,,,,,,t1.png,t5.png,4,9.55E-11,20,male,2020-09-11_21h50.21.761,torte-2b,2020.1.3,Win32,60,13451,,,,,,,,,,,,,,,,,,,,,,,,,,,,,,,,,,,,,0,112,112,55,1,,,,,,,,,,,,,,,,,,,,,,,,
,,,,,,,,,,,,a,1.010435,Correct!,,,,,,t2.png,t2.png,0,0.98115,20,male,2020-09-11_21h50.21.761,torte-2b,2020.1.3,Win32,60,13451,,,,,,,,,,,,,,,,,,,,,,,,,,,,,,,,,,,,,0,113,113,57,1,,,,,,,,,,,,,,,,,,,,,,,,
,,,,,,,,,,,,a,0.70984,Incorrect,,,,,,t1.png,t3.png,2,0.056466,20,male,2020-09-11_21h50.21.761,torte-2b,2020.1.3,Win32,60,13451,,,,,,,,,,,,,,,,,,,,,,,,,,,,,,,,,,,,,0,114,114,99,1,,,,,,,,,,,,,,,,,,,,,,,,
,,,,,,,,,,,,a,0.6147,Correct!,,,,,,t4.png,t4.png,0,0.98115,20,male,2020-09-11_21h50.21.761,torte-2b,2020.1.3,Win32,60,13451,,,,,,,,,,,,,,,,,,,,,,,,,,,,,,,,,,,,,0,115,115,52,1,,,,,,,,,,,,,,,,,,,,,,,,
,,,,,,,,,,,,a,0.695865,Correct!,,,,,,t2.png,t2.png,0,0.98115,20,male,2020-09-11_21h50.21.761,torte-2b,2020.1.3,Win32,60,13451,,,,,,,,,,,,,,,,,,,,,,,,,,,,,,,,,,,,,0,116,116,7,1,,,,,,,,,,,,,,,,,,,,,,,,
,,,,,,,,,,,,a,0.05887,Correct!,,,,,,t1.png,t1.png,0,0.97829,20,male,2020-09-11_21h50.21.761,torte-2b,2020.1.3,Win32,60,13451,,,,,,,,,,,,,,,,,,,,,,,,,,,,,,,,,,,,,0,117,117,67,1,,,,,,,,,,,,,,,,,,,,,,,,
,,,,,,,,,,,,a,1.34325,Incorrect,,,,,,t5.png,t4.png,1,0.90025,20,male,2020-09-11_21h50.21.761,torte-2b,2020.1.3,Win32,60,13451,,,,,,,,,,,,,,,,,,,,,,,,,,,,,,,,,,,,,0,118,118,34,1,,,,,,,,,,,,,,,,,,,,,,,,
,,,,,,,,,,,,l,2.117105,Correct!,,,,,,t2.png,t5.png,3,0.0000131,20,male,2020-09-11_21h50.21.761,torte-2b,2020.1.3,Win32,60,13451,,,,,,,,,,,,,,,,,,,,,,,,,,,,,,,,,,,,,0,119,119,104,1,,,,,,,,,,,,,,,,,,,,,,,,
,,,,,,,,,,,,,,,,,,,,,,,,20,male,2020-09-11_21h50.21.761,torte-2b,2020.1.3,Win32,60,13451,a,0.97969,,,,,,,,,,,,,,,,,,,,,,,,,,,,,,,,,,,,,,,,85,2,1,0,0,s4,65,87,1,0,0,t1,228,-101,1,0,0,proceed,space,2.514945,space,0.028955,space,0.547325
