key_resp_8.keys,key_resp_8.rt,key_resp_9.keys,key_resp_9.rt,key_resp_10.keys,key_resp_10.rt,key_resp_11.keys,key_resp_11.rt,key_resp_2.keys,key_resp_2.rt,key_resp_3.keys,key_resp_3.rt,key_resp.keys,Feedback,train.thisRepN,train.thisTrialN,train.thisN,train.thisIndex,train.ran,torta_sx,torta_dx,difference,probability,age,gender,date,expName,psychopyVersion,OS,frameRate,participant,key_resp.rt,key_resp_15.keys,key_resp_15.rt,key_resp_6.keys,key_resp_6.rt,test1.thisRepN,test1.thisTrialN,test1.thisN,test1.thisIndex,test1.ran,key_resp_4.keys,key_resp_4.rt,key_resp_5.keys,back1.thisRepN,back1.thisTrialN,back1.thisN,back1.thisIndex,back1.ran,letter,key_resp_5.rt,back2.thisRepN,back2.thisTrialN,back2.thisN,back2.thisIndex,back2.ran,back3.thisRepN,back3.thisTrialN,back3.thisN,back3.thisIndex,back3.ran,back4.thisRepN,back4.thisTrialN,back4.thisN,back4.thisIndex,back4.ran,key_resp_7.keys,key_resp_7.rt,test2.thisRepN,test2.thisTrialN,test2.thisN,test2.thisIndex,test2.ran,mouse.x,mouse.y,mouse.leftButton,mouse.midButton,mouse.rightButton,mouse.clicked_name,mouse_2.x,mouse_2.y,mouse_2.leftButton,mouse_2.midButton,mouse_2.rightButton,mouse_2.clicked_name,mouse_3.x,mouse_3.y,mouse_3.leftButton,mouse_3.midButton,mouse_3.rightButton,mouse_3.clicked_name,key_resp_12.keys,key_resp_12.rt,key_resp_13.keys,key_resp_13.rt,key_resp_14.keys,key_resp_14.rt
space,1.433,space,1.523,space,0.436,space,1.909,space,0.58,space,36.991,,Too slow :(,0,0,0,96,1,t1.png,t1.png,0,0.97829,20,Female,2020-09-13_19h02.43.889,torte-2b,2020.1.3,MacIntel,60,12746,,,,,,,,,,,,,,,,,,,,,,,,,,,,,,,,,,,,,,,,,,,,,,,,,,,,,,,,,,,,,,,,,,
,,,,,,,,,,,,a,Correct!,0,1,1,48,1,t5.png,t5.png,0,0.97829,20,Female,2020-09-13_19h02.43.889,torte-2b,2020.1.3,MacIntel,60,12746,0.357,,,,,,,,,,,,,,,,,,,,,,,,,,,,,,,,,,,,,,,,,,,,,,,,,,,,,,,,,,,,,,,,,
,,,,,,,,,,,,l,Correct!,0,2,2,52,1,t2.png,t4.png,2,0.059078,20,Female,2020-09-13_19h02.43.889,torte-2b,2020.1.3,MacIntel,60,12746,0.705,,,,,,,,,,,,,,,,,,,,,,,,,,,,,,,,,,,,,,,,,,,,,,,,,,,,,,,,,,,,,,,,,
,,,,,,,,,,,,l,Correct!,0,3,3,11,1,t1.png,t4.png,3,0.0000131,20,Female,2020-09-13_19h02.43.889,torte-2b,2020.1.3,MacIntel,60,12746,1.323,,,,,,,,,,,,,,,,,,,,,,,,,,,,,,,,,,,,,,,,,,,,,,,,,,,,,,,,,,,,,,,,,
,,,,,,,,,,,,l,Correct!,0,4,4,119,1,t1.png,t5.png,4,9.55E-11,20,Female,2020-09-13_19h02.43.889,torte-2b,2020.1.3,MacIntel,60,12746,0.935,,,,,,,,,,,,,,,,,,,,,,,,,,,,,,,,,,,,,,,,,,,,,,,,,,,,,,,,,,,,,,,,,
,,,,,,,,,,,,a,Correct!,0,5,5,104,1,t2.png,t3.png,1,0.90855,20,Female,2020-09-13_19h02.43.889,torte-2b,2020.1.3,MacIntel,60,12746,1.419,,,,,,,,,,,,,,,,,,,,,,,,,,,,,,,,,,,,,,,,,,,,,,,,,,,,,,,,,,,,,,,,,
,,,,,,,,,,,,l,Incorrect,0,6,6,49,1,t4.png,t5.png,1,0.9,20,Female,2020-09-13_19h02.43.889,torte-2b,2020.1.3,MacIntel,60,12746,0.919,,,,,,,,,,,,,,,,,,,,,,,,,,,,,,,,,,,,,,,,,,,,,,,,,,,,,,,,,,,,,,,,,
,,,,,,,,,,,,a,Correct!,0,7,7,21,1,t5.png,t4.png,1,0.90025,20,Female,2020-09-13_19h02.43.889,torte-2b,2020.1.3,MacIntel,60,12746,1.042,,,,,,,,,,,,,,,,,,,,,,,,,,,,,,,,,,,,,,,,,,,,,,,,,,,,,,,,,,,,,,,,,
,,,,,,,,,,,,a,Incorrect,0,8,8,50,1,t5.png,t1.png,4,9.55E-11,20,Female,2020-09-13_19h02.43.889,torte-2b,2020.1.3,MacIntel,60,12746,0.572,,,,,,,,,,,,,,,,,,,,,,,,,,,,,,,,,,,,,,,,,,,,,,,,,,,,,,,,,,,,,,,,,
,,,,,,,,,,,,l,Correct!,0,9,9,80,1,t1.png,t4.png,3,0.0000131,20,Female,2020-09-13_19h02.43.889,torte-2b,2020.1.3,MacIntel,60,12746,0.994,,,,,,,,,,,,,,,,,,,,,,,,,,,,,,,,,,,,,,,,,,,,,,,,,,,,,,,,,,,,,,,,,
,,,,,,,,,,,,l,Incorrect,0,10,10,36,1,t3.png,t1.png,2,0.0565,20,Female,2020-09-13_19h02.43.889,torte-2b,2020.1.3,MacIntel,60,12746,0.777,,,,,,,,,,,,,,,,,,,,,,,,,,,,,,,,,,,,,,,,,,,,,,,,,,,,,,,,,,,,,,,,,
,,,,,,,,,,,,a,Incorrect,0,11,11,85,1,t3.png,t2.png,1,0.90855,20,Female,2020-09-13_19h02.43.889,torte-2b,2020.1.3,MacIntel,60,12746,1.58,,,,,,,,,,,,,,,,,,,,,,,,,,,,,,,,,,,,,,,,,,,,,,,,,,,,,,,,,,,,,,,,,
,,,,,,,,,,,,l,Correct!,0,12,12,4,1,t1.png,t5.png,4,9.55E-11,20,Female,2020-09-13_19h02.43.889,torte-2b,2020.1.3,MacIntel,60,12746,0.44,,,,,,,,,,,,,,,,,,,,,,,,,,,,,,,,,,,,,,,,,,,,,,,,,,,,,,,,,,,,,,,,,
,,,,,,,,,,,,l,Correct!,0,13,13,60,1,t2.png,t4.png,2,0.059078,20,Female,2020-09-13_19h02.43.889,torte-2b,2020.1.3,MacIntel,60,12746,0.587,,,,,,,,,,,,,,,,,,,,,,,,,,,,,,,,,,,,,,,,,,,,,,,,,,,,,,,,,,,,,,,,,
,,,,,,,,,,,,l,Correct!,0,14,14,6,1,t1.png,t4.png,3,0.0000131,20,Female,2020-09-13_19h02.43.889,torte-2b,2020.1.3,MacIntel,60,12746,0.34,,,,,,,,,,,,,,,,,,,,,,,,,,,,,,,,,,,,,,,,,,,,,,,,,,,,,,,,,,,,,,,,,
,,,,,,,,,,,,a,Incorrect,0,15,15,68,1,t1.png,t4.png,3,0.0000131,20,Female,2020-09-13_19h02.43.889,torte-2b,2020.1.3,MacIntel,60,12746,0.223,,,,,,,,,,,,,,,,,,,,,,,,,,,,,,,,,,,,,,,,,,,,,,,,,,,,,,,,,,,,,,,,,
,,,,,,,,,,,,l,Incorrect,0,16,16,64,1,t1.png,t1.png,0,0.978,20,Female,2020-09-13_19h02.43.889,torte-2b,2020.1.3,MacIntel,60,12746,0.34,,,,,,,,,,,,,,,,,,,,,,,,,,,,,,,,,,,,,,,,,,,,,,,,,,,,,,,,,,,,,,,,,
,,,,,,,,,,,,a,Correct!,0,17,17,77,1,t1.png,t1.png,0,0.97829,20,Female,2020-09-13_19h02.43.889,torte-2b,2020.1.3,MacIntel,60,12746,0.625,,,,,,,,,,,,,,,,,,,,,,,,,,,,,,,,,,,,,,,,,,,,,,,,,,,,,,,,,,,,,,,,,
,,,,,,,,,,,,l,Correct!,0,18,18,46,1,t4.png,t2.png,2,0.059078,20,Female,2020-09-13_19h02.43.889,torte-2b,2020.1.3,MacIntel,60,12746,0.802,,,,,,,,,,,,,,,,,,,,,,,,,,,,,,,,,,,,,,,,,,,,,,,,,,,,,,,,,,,,,,,,,
,,,,,,,,,,,,a,Incorrect,0,19,19,94,1,t5.png,t1.png,4,9.55E-11,20,Female,2020-09-13_19h02.43.889,torte-2b,2020.1.3,MacIntel,60,12746,0.589,,,,,,,,,,,,,,,,,,,,,,,,,,,,,,,,,,,,,,,,,,,,,,,,,,,,,,,,,,,,,,,,,
,,,,,,,,,,,,l,Incorrect,0,20,20,100,1,t4.png,t5.png,1,0.90025,20,Female,2020-09-13_19h02.43.889,torte-2b,2020.1.3,MacIntel,60,12746,1.077,,,,,,,,,,,,,,,,,,,,,,,,,,,,,,,,,,,,,,,,,,,,,,,,,,,,,,,,,,,,,,,,,
,,,,,,,,,,,,a,Incorrect,0,21,21,24,1,t4.png,t2.png,2,0.059078,20,Female,2020-09-13_19h02.43.889,torte-2b,2020.1.3,MacIntel,60,12746,0.869,,,,,,,,,,,,,,,,,,,,,,,,,,,,,,,,,,,,,,,,,,,,,,,,,,,,,,,,,,,,,,,,,
,,,,,,,,,,,,a,Correct!,0,22,22,2,1,t3.png,t2.png,1,0.90855,20,Female,2020-09-13_19h02.43.889,torte-2b,2020.1.3,MacIntel,60,12746,0.343,,,,,,,,,,,,,,,,,,,,,,,,,,,,,,,,,,,,,,,,,,,,,,,,,,,,,,,,,,,,,,,,,
,,,,,,,,,,,,l,Correct!,0,23,23,29,1,t5.png,t5.png,0,0.97829,20,Female,2020-09-13_19h02.43.889,torte-2b,2020.1.3,MacIntel,60,12746,0.619,,,,,,,,,,,,,,,,,,,,,,,,,,,,,,,,,,,,,,,,,,,,,,,,,,,,,,,,,,,,,,,,,
,,,,,,,,,,,,l,Correct!,0,24,24,38,1,t3.png,t1.png,2,0.056466,20,Female,2020-09-13_19h02.43.889,torte-2b,2020.1.3,MacIntel,60,12746,0.44,,,,,,,,,,,,,,,,,,,,,,,,,,,,,,,,,,,,,,,,,,,,,,,,,,,,,,,,,,,,,,,,,
,,,,,,,,,,,,a,Correct!,0,25,25,105,1,t3.png,t2.png,1,0.90855,20,Female,2020-09-13_19h02.43.889,torte-2b,2020.1.3,MacIntel,60,12746,0.691,,,,,,,,,,,,,,,,,,,,,,,,,,,,,,,,,,,,,,,,,,,,,,,,,,,,,,,,,,,,,,,,,
,,,,,,,,,,,,l,Correct!,0,26,26,111,1,t5.png,t1.png,4,9.55E-11,20,Female,2020-09-13_19h02.43.889,torte-2b,2020.1.3,MacIntel,60,12746,0.571,,,,,,,,,,,,,,,,,,,,,,,,,,,,,,,,,,,,,,,,,,,,,,,,,,,,,,,,,,,,,,,,,
,,,,,,,,,,,,l,Correct!,0,27,27,108,1,t5.png,t1.png,4,9.55E-11,20,Female,2020-09-13_19h02.43.889,torte-2b,2020.1.3,MacIntel,60,12746,0.59,,,,,,,,,,,,,,,,,,,,,,,,,,,,,,,,,,,,,,,,,,,,,,,,,,,,,,,,,,,,,,,,,
,,,,,,,,,,,,a,Incorrect,0,28,28,1,1,t2.png,t4.png,2,0.059078,20,Female,2020-09-13_19h02.43.889,torte-2b,2020.1.3,MacIntel,60,12746,0.924,,,,,,,,,,,,,,,,,,,,,,,,,,,,,,,,,,,,,,,,,,,,,,,,,,,,,,,,,,,,,,,,,
,,,,,,,,,,,,a,Correct!,0,29,29,34,1,t5.png,t4.png,1,0.9,20,Female,2020-09-13_19h02.43.889,torte-2b,2020.1.3,MacIntel,60,12746,1.034,,,,,,,,,,,,,,,,,,,,,,,,,,,,,,,,,,,,,,,,,,,,,,,,,,,,,,,,,,,,,,,,,
,,,,,,,,,,,,l,Correct!,0,30,30,14,1,t2.png,t4.png,2,0.059078,20,Female,2020-09-13_19h02.43.889,torte-2b,2020.1.3,MacIntel,60,12746,0.671,,,,,,,,,,,,,,,,,,,,,,,,,,,,,,,,,,,,,,,,,,,,,,,,,,,,,,,,,,,,,,,,,
,,,,,,,,,,,,l,Correct!,0,31,31,31,1,t1.png,t5.png,4,9.55E-11,20,Female,2020-09-13_19h02.43.889,torte-2b,2020.1.3,MacIntel,60,12746,0.592,,,,,,,,,,,,,,,,,,,,,,,,,,,,,,,,,,,,,,,,,,,,,,,,,,,,,,,,,,,,,,,,,
,,,,,,,,,,,,a,Correct!,0,32,32,39,1,t3.png,t2.png,1,0.90855,20,Female,2020-09-13_19h02.43.889,torte-2b,2020.1.3,MacIntel,60,12746,0.284,,,,,,,,,,,,,,,,,,,,,,,,,,,,,,,,,,,,,,,,,,,,,,,,,,,,,,,,,,,,,,,,,
,,,,,,,,,,,,a,Correct!,0,33,33,110,1,t4.png,t5.png,1,0.90025,20,Female,2020-09-13_19h02.43.889,torte-2b,2020.1.3,MacIntel,60,12746,0.358,,,,,,,,,,,,,,,,,,,,,,,,,,,,,,,,,,,,,,,,,,,,,,,,,,,,,,,,,,,,,,,,,
,,,,,,,,,,,,a,Correct!,0,34,34,81,1,t1.png,t1.png,0,0.97829,20,Female,2020-09-13_19h02.43.889,torte-2b,2020.1.3,MacIntel,60,12746,0.39,,,,,,,,,,,,,,,,,,,,,,,,,,,,,,,,,,,,,,,,,,,,,,,,,,,,,,,,,,,,,,,,,
,,,,,,,,,,,,l,Correct!,0,35,35,3,1,t1.png,t5.png,4,9.55E-11,20,Female,2020-09-13_19h02.43.889,torte-2b,2020.1.3,MacIntel,60,12746,0.623,,,,,,,,,,,,,,,,,,,,,,,,,,,,,,,,,,,,,,,,,,,,,,,,,,,,,,,,,,,,,,,,,
,,,,,,,,,,,,l,Incorrect,0,36,36,114,1,t2.png,t3.png,1,0.90855,20,Female,2020-09-13_19h02.43.889,torte-2b,2020.1.3,MacIntel,60,12746,0.557,,,,,,,,,,,,,,,,,,,,,,,,,,,,,,,,,,,,,,,,,,,,,,,,,,,,,,,,,,,,,,,,,
,,,,,,,,,,,,a,Correct!,0,37,37,13,1,t5.png,t5.png,0,0.97829,20,Female,2020-09-13_19h02.43.889,torte-2b,2020.1.3,MacIntel,60,12746,0.376,,,,,,,,,,,,,,,,,,,,,,,,,,,,,,,,,,,,,,,,,,,,,,,,,,,,,,,,,,,,,,,,,
,,,,,,,,,,,,l,Incorrect,0,38,38,95,1,t1.png,t1.png,0,0.978,20,Female,2020-09-13_19h02.43.889,torte-2b,2020.1.3,MacIntel,60,12746,0.671,,,,,,,,,,,,,,,,,,,,,,,,,,,,,,,,,,,,,,,,,,,,,,,,,,,,,,,,,,,,,,,,,
,,,,,,,,,,,,a,Incorrect,0,39,39,53,1,t3.png,t1.png,2,0.056466,20,Female,2020-09-13_19h02.43.889,torte-2b,2020.1.3,MacIntel,60,12746,0.756,,,,,,,,,,,,,,,,,,,,,,,,,,,,,,,,,,,,,,,,,,,,,,,,,,,,,,,,,,,,,,,,,
,,,,,,,,,,,,l,Correct!,0,40,40,57,1,t2.png,t4.png,2,0.059078,20,Female,2020-09-13_19h02.43.889,torte-2b,2020.1.3,MacIntel,60,12746,0.642,,,,,,,,,,,,,,,,,,,,,,,,,,,,,,,,,,,,,,,,,,,,,,,,,,,,,,,,,,,,,,,,,
,,,,,,,,,,,,l,Incorrect,0,41,41,20,1,t2.png,t3.png,1,0.90855,20,Female,2020-09-13_19h02.43.889,torte-2b,2020.1.3,MacIntel,60,12746,0.456,,,,,,,,,,,,,,,,,,,,,,,,,,,,,,,,,,,,,,,,,,,,,,,,,,,,,,,,,,,,,,,,,
,,,,,,,,,,,,l,Incorrect,0,42,42,25,1,t5.png,t5.png,0,0.97829,20,Female,2020-09-13_19h02.43.889,torte-2b,2020.1.3,MacIntel,60,12746,0.624,,,,,,,,,,,,,,,,,,,,,,,,,,,,,,,,,,,,,,,,,,,,,,,,,,,,,,,,,,,,,,,,,
,,,,,,,,,,,,l,Incorrect,0,43,43,66,1,t4.png,t5.png,1,0.9,20,Female,2020-09-13_19h02.43.889,torte-2b,2020.1.3,MacIntel,60,12746,0.004,,,,,,,,,,,,,,,,,,,,,,,,,,,,,,,,,,,,,,,,,,,,,,,,,,,,,,,,,,,,,,,,,
,,,,,,,,,,,,a,Correct!,0,44,44,97,1,t5.png,t5.png,0,0.97829,20,Female,2020-09-13_19h02.43.889,torte-2b,2020.1.3,MacIntel,60,12746,0.321,,,,,,,,,,,,,,,,,,,,,,,,,,,,,,,,,,,,,,,,,,,,,,,,,,,,,,,,,,,,,,,,,
,,,,,,,,,,,,l,Incorrect,0,45,45,71,1,t5.png,t5.png,0,0.97829,20,Female,2020-09-13_19h02.43.889,torte-2b,2020.1.3,MacIntel,60,12746,0.742,,,,,,,,,,,,,,,,,,,,,,,,,,,,,,,,,,,,,,,,,,,,,,,,,,,,,,,,,,,,,,,,,
,,,,,,,,,,,,a,Incorrect,0,46,46,55,1,t2.png,t4.png,2,0.059078,20,Female,2020-09-13_19h02.43.889,torte-2b,2020.1.3,MacIntel,60,12746,0.366,,,,,,,,,,,,,,,,,,,,,,,,,,,,,,,,,,,,,,,,,,,,,,,,,,,,,,,,,,,,,,,,,
,,,,,,,,,,,,l,Correct!,0,47,47,47,1,t4.png,t2.png,2,0.059078,20,Female,2020-09-13_19h02.43.889,torte-2b,2020.1.3,MacIntel,60,12746,1.324,,,,,,,,,,,,,,,,,,,,,,,,,,,,,,,,,,,,,,,,,,,,,,,,,,,,,,,,,,,,,,,,,
,,,,,,,,,,,,l,Incorrect,0,48,48,109,1,t5.png,t5.png,0,0.97829,20,Female,2020-09-13_19h02.43.889,torte-2b,2020.1.3,MacIntel,60,12746,0.358,,,,,,,,,,,,,,,,,,,,,,,,,,,,,,,,,,,,,,,,,,,,,,,,,,,,,,,,,,,,,,,,,
,,,,,,,,,,,,l,Incorrect,0,49,49,101,1,t4.png,t5.png,1,0.90025,20,Female,2020-09-13_19h02.43.889,torte-2b,2020.1.3,MacIntel,60,12746,0.524,,,,,,,,,,,,,,,,,,,,,,,,,,,,,,,,,,,,,,,,,,,,,,,,,,,,,,,,,,,,,,,,,
,,,,,,,,,,,,l,Incorrect,0,50,50,32,1,t4.png,t5.png,1,0.90025,20,Female,2020-09-13_19h02.43.889,torte-2b,2020.1.3,MacIntel,60,12746,0.575,,,,,,,,,,,,,,,,,,,,,,,,,,,,,,,,,,,,,,,,,,,,,,,,,,,,,,,,,,,,,,,,,
,,,,,,,,,,,,a,Incorrect,0,51,51,87,1,t5.png,t1.png,4,9.55E-11,20,Female,2020-09-13_19h02.43.889,torte-2b,2020.1.3,MacIntel,60,12746,0.523,,,,,,,,,,,,,,,,,,,,,,,,,,,,,,,,,,,,,,,,,,,,,,,,,,,,,,,,,,,,,,,,,
,,,,,,,,,,,,l,Correct!,0,52,52,115,1,t2.png,t4.png,2,0.059078,20,Female,2020-09-13_19h02.43.889,torte-2b,2020.1.3,MacIntel,60,12746,0.595,,,,,,,,,,,,,,,,,,,,,,,,,,,,,,,,,,,,,,,,,,,,,,,,,,,,,,,,,,,,,,,,,
,,,,,,,,,,,,l,Incorrect,0,53,53,63,1,t2.png,t3.png,1,0.909,20,Female,2020-09-13_19h02.43.889,torte-2b,2020.1.3,MacIntel,60,12746,0.309,,,,,,,,,,,,,,,,,,,,,,,,,,,,,,,,,,,,,,,,,,,,,,,,,,,,,,,,,,,,,,,,,
,,,,,,,,,,,,l,Correct!,0,54,54,19,1,t4.png,t2.png,2,0.059078,20,Female,2020-09-13_19h02.43.889,torte-2b,2020.1.3,MacIntel,60,12746,0.357,,,,,,,,,,,,,,,,,,,,,,,,,,,,,,,,,,,,,,,,,,,,,,,,,,,,,,,,,,,,,,,,,
,,,,,,,,,,,,l,Correct!,0,55,55,5,1,t2.png,t4.png,2,0.059078,20,Female,2020-09-13_19h02.43.889,torte-2b,2020.1.3,MacIntel,60,12746,0.603,,,,,,,,,,,,,,,,,,,,,,,,,,,,,,,,,,,,,,,,,,,,,,,,,,,,,,,,,,,,,,,,,
,,,,,,,,,,,,a,Correct!,0,56,56,118,1,t5.png,t5.png,0,0.978,20,Female,2020-09-13_19h02.43.889,torte-2b,2020.1.3,MacIntel,60,12746,0.809,,,,,,,,,,,,,,,,,,,,,,,,,,,,,,,,,,,,,,,,,,,,,,,,,,,,,,,,,,,,,,,,,
,,,,,,,,,,,,a,Correct!,0,57,57,70,1,t5.png,t5.png,0,0.978,20,Female,2020-09-13_19h02.43.889,torte-2b,2020.1.3,MacIntel,60,12746,0.484,,,,,,,,,,,,,,,,,,,,,,,,,,,,,,,,,,,,,,,,,,,,,,,,,,,,,,,,,,,,,,,,,
,,,,,,,,,,,,l,Incorrect,0,58,58,116,1,t5.png,t4.png,1,0.90025,20,Female,2020-09-13_19h02.43.889,torte-2b,2020.1.3,MacIntel,60,12746,0.539,,,,,,,,,,,,,,,,,,,,,,,,,,,,,,,,,,,,,,,,,,,,,,,,,,,,,,,,,,,,,,,,,
,,,,,,,,,,,,l,Correct!,0,59,59,93,1,t2.png,t4.png,2,0.059078,20,Female,2020-09-13_19h02.43.889,torte-2b,2020.1.3,MacIntel,60,12746,0.477,,,,,,,,,,,,,,,,,,,,,,,,,,,,,,,,,,,,,,,,,,,,,,,,,,,,,,,,,,,,,,,,,
,,,,,,,,,,,,l,Correct!,0,60,60,88,1,t3.png,t1.png,2,0.056466,20,Female,2020-09-13_19h02.43.889,torte-2b,2020.1.3,MacIntel,60,12746,0.42,,,,,,,,,,,,,,,,,,,,,,,,,,,,,,,,,,,,,,,,,,,,,,,,,,,,,,,,,,,,,,,,,
,,,,,,,,,,,,a,Correct!,0,61,61,75,1,t1.png,t1.png,0,0.97829,20,Female,2020-09-13_19h02.43.889,torte-2b,2020.1.3,MacIntel,60,12746,0.392,,,,,,,,,,,,,,,,,,,,,,,,,,,,,,,,,,,,,,,,,,,,,,,,,,,,,,,,,,,,,,,,,
,,,,,,,,,,,,a,Incorrect,0,62,62,56,1,t5.png,t1.png,4,9.55E-11,20,Female,2020-09-13_19h02.43.889,torte-2b,2020.1.3,MacIntel,60,12746,0.525,,,,,,,,,,,,,,,,,,,,,,,,,,,,,,,,,,,,,,,,,,,,,,,,,,,,,,,,,,,,,,,,,
,,,,,,,,,,,,l,Incorrect,0,63,63,78,1,t1.png,t1.png,0,0.978,20,Female,2020-09-13_19h02.43.889,torte-2b,2020.1.3,MacIntel,60,12746,0.241,,,,,,,,,,,,,,,,,,,,,,,,,,,,,,,,,,,,,,,,,,,,,,,,,,,,,,,,,,,,,,,,,
,,,,,,,,,,,,a,Incorrect,0,64,64,82,1,t5.png,t1.png,4,9.55E-11,20,Female,2020-09-13_19h02.43.889,torte-2b,2020.1.3,MacIntel,60,12746,0.623,,,,,,,,,,,,,,,,,,,,,,,,,,,,,,,,,,,,,,,,,,,,,,,,,,,,,,,,,,,,,,,,,
,,,,,,,,,,,,a,Incorrect,0,65,65,102,1,t4.png,t2.png,2,0.059078,20,Female,2020-09-13_19h02.43.889,torte-2b,2020.1.3,MacIntel,60,12746,0.389,,,,,,,,,,,,,,,,,,,,,,,,,,,,,,,,,,,,,,,,,,,,,,,,,,,,,,,,,,,,,,,,,
,,,,,,,,,,,,,Too slow :(,0,66,66,18,1,t4.png,t5.png,1,0.90025,20,Female,2020-09-13_19h02.43.889,torte-2b,2020.1.3,MacIntel,60,12746,,,,,,,,,,,,,,,,,,,,,,,,,,,,,,,,,,,,,,,,,,,,,,,,,,,,,,,,,,,,,,,,,,
,,,,,,,,,,,,l,Incorrect,0,67,67,28,1,t2.png,t3.png,1,0.909,20,Female,2020-09-13_19h02.43.889,torte-2b,2020.1.3,MacIntel,60,12746,0.437,,,,,,,,,,,,,,,,,,,,,,,,,,,,,,,,,,,,,,,,,,,,,,,,,,,,,,,,,,,,,,,,,
,,,,,,,,,,,,a,Correct!,0,68,68,15,1,t3.png,t2.png,1,0.90855,20,Female,2020-09-13_19h02.43.889,torte-2b,2020.1.3,MacIntel,60,12746,0.488,,,,,,,,,,,,,,,,,,,,,,,,,,,,,,,,,,,,,,,,,,,,,,,,,,,,,,,,,,,,,,,,,
,,,,,,,,,,,,l,Incorrect,0,69,69,107,1,t1.png,t1.png,0,0.978,20,Female,2020-09-13_19h02.43.889,torte-2b,2020.1.3,MacIntel,60,12746,0.557,,,,,,,,,,,,,,,,,,,,,,,,,,,,,,,,,,,,,,,,,,,,,,,,,,,,,,,,,,,,,,,,,
,,,,,,,,,,,,a,Correct!,0,70,70,8,1,t3.png,t2.png,1,0.90855,20,Female,2020-09-13_19h02.43.889,torte-2b,2020.1.3,MacIntel,60,12746,0.528,,,,,,,,,,,,,,,,,,,,,,,,,,,,,,,,,,,,,,,,,,,,,,,,,,,,,,,,,,,,,,,,,
,,,,,,,,,,,,a,Incorrect,0,71,71,92,1,t2.png,t3.png,1,0.909,20,Female,2020-09-13_19h02.43.889,torte-2b,2020.1.3,MacIntel,60,12746,0.287,,,,,,,,,,,,,,,,,,,,,,,,,,,,,,,,,,,,,,,,,,,,,,,,,,,,,,,,,,,,,,,,,
,,,,,,,,,,,,l,Correct!,0,72,72,86,1,t3.png,t1.png,2,0.056466,20,Female,2020-09-13_19h02.43.889,torte-2b,2020.1.3,MacIntel,60,12746,0.471,,,,,,,,,,,,,,,,,,,,,,,,,,,,,,,,,,,,,,,,,,,,,,,,,,,,,,,,,,,,,,,,,
,,,,,,,,,,,,a,Incorrect,0,73,73,0,1,t5.png,t1.png,4,9.55E-11,20,Female,2020-09-13_19h02.43.889,torte-2b,2020.1.3,MacIntel,60,12746,0.658,,,,,,,,,,,,,,,,,,,,,,,,,,,,,,,,,,,,,,,,,,,,,,,,,,,,,,,,,,,,,,,,,
,,,,,,,,,,,,l,Correct!,0,74,74,91,1,t1.png,t4.png,3,0.0000131,20,Female,2020-09-13_19h02.43.889,torte-2b,2020.1.3,MacIntel,60,12746,0.336,,,,,,,,,,,,,,,,,,,,,,,,,,,,,,,,,,,,,,,,,,,,,,,,,,,,,,,,,,,,,,,,,
,,,,,,,,,,,,l,Incorrect,0,75,75,41,1,t3.png,t2.png,1,0.90855,20,Female,2020-09-13_19h02.43.889,torte-2b,2020.1.3,MacIntel,60,12746,0.49,,,,,,,,,,,,,,,,,,,,,,,,,,,,,,,,,,,,,,,,,,,,,,,,,,,,,,,,,,,,,,,,,
,,,,,,,,,,,,l,Correct!,0,76,76,99,1,t1.png,t5.png,4,9.55E-11,20,Female,2020-09-13_19h02.43.889,torte-2b,2020.1.3,MacIntel,60,12746,0.353,,,,,,,,,,,,,,,,,,,,,,,,,,,,,,,,,,,,,,,,,,,,,,,,,,,,,,,,,,,,,,,,,
,,,,,,,,,,,,l,Incorrect,0,77,77,106,1,t2.png,t3.png,1,0.90855,20,Female,2020-09-13_19h02.43.889,torte-2b,2020.1.3,MacIntel,60,12746,0.606,,,,,,,,,,,,,,,,,,,,,,,,,,,,,,,,,,,,,,,,,,,,,,,,,,,,,,,,,,,,,,,,,
,,,,,,,,,,,,l,Correct!,0,78,78,67,1,t1.png,t5.png,4,9.55E-11,20,Female,2020-09-13_19h02.43.889,torte-2b,2020.1.3,MacIntel,60,12746,0.654,,,,,,,,,,,,,,,,,,,,,,,,,,,,,,,,,,,,,,,,,,,,,,,,,,,,,,,,,,,,,,,,,
,,,,,,,,,,,,l,Incorrect,0,79,79,76,1,t3.png,t2.png,1,0.90855,20,Female,2020-09-13_19h02.43.889,torte-2b,2020.1.3,MacIntel,60,12746,1.19,,,,,,,,,,,,,,,,,,,,,,,,,,,,,,,,,,,,,,,,,,,,,,,,,,,,,,,,,,,,,,,,,
,,,,,,,,,,,,l,Correct!,0,80,80,54,1,t1.png,t5.png,4,9.55E-11,20,Female,2020-09-13_19h02.43.889,torte-2b,2020.1.3,MacIntel,60,12746,0.69,,,,,,,,,,,,,,,,,,,,,,,,,,,,,,,,,,,,,,,,,,,,,,,,,,,,,,,,,,,,,,,,,
,,,,,,,,,,,,l,Incorrect,0,81,81,10,1,t2.png,t3.png,1,0.90855,20,Female,2020-09-13_19h02.43.889,torte-2b,2020.1.3,MacIntel,60,12746,0.358,,,,,,,,,,,,,,,,,,,,,,,,,,,,,,,,,,,,,,,,,,,,,,,,,,,,,,,,,,,,,,,,,
,,,,,,,,,,,,a,Correct!,0,82,82,22,1,t2.png,t3.png,1,0.90855,20,Female,2020-09-13_19h02.43.889,torte-2b,2020.1.3,MacIntel,60,12746,0.574,,,,,,,,,,,,,,,,,,,,,,,,,,,,,,,,,,,,,,,,,,,,,,,,,,,,,,,,,,,,,,,,,
,,,,,,,,,,,,l,Correct!,0,83,83,72,1,t4.png,t2.png,2,0.059078,20,Female,2020-09-13_19h02.43.889,torte-2b,2020.1.3,MacIntel,60,12746,0.407,,,,,,,,,,,,,,,,,,,,,,,,,,,,,,,,,,,,,,,,,,,,,,,,,,,,,,,,,,,,,,,,,
,,,,,,,,,,,,l,Incorrect,0,84,84,45,1,t3.png,t2.png,1,0.90855,20,Female,2020-09-13_19h02.43.889,torte-2b,2020.1.3,MacIntel,60,12746,0.801,,,,,,,,,,,,,,,,,,,,,,,,,,,,,,,,,,,,,,,,,,,,,,,,,,,,,,,,,,,,,,,,,
,,,,,,,,,,,,l,Correct!,0,85,85,98,1,t2.png,t4.png,2,0.0591,20,Female,2020-09-13_19h02.43.889,torte-2b,2020.1.3,MacIntel,60,12746,0.293,,,,,,,,,,,,,,,,,,,,,,,,,,,,,,,,,,,,,,,,,,,,,,,,,,,,,,,,,,,,,,,,,
,,,,,,,,,,,,a,Correct!,0,86,86,7,1,t4.png,t5.png,1,0.90025,20,Female,2020-09-13_19h02.43.889,torte-2b,2020.1.3,MacIntel,60,12746,0.46,,,,,,,,,,,,,,,,,,,,,,,,,,,,,,,,,,,,,,,,,,,,,,,,,,,,,,,,,,,,,,,,,
,,,,,,,,,,,,l,Correct!,0,87,87,43,1,t4.png,t2.png,2,0.059078,20,Female,2020-09-13_19h02.43.889,torte-2b,2020.1.3,MacIntel,60,12746,0.303,,,,,,,,,,,,,,,,,,,,,,,,,,,,,,,,,,,,,,,,,,,,,,,,,,,,,,,,,,,,,,,,,
,,,,,,,,,,,,l,Incorrect,0,88,88,84,1,t1.png,t1.png,0,0.97829,20,Female,2020-09-13_19h02.43.889,torte-2b,2020.1.3,MacIntel,60,12746,0.29,,,,,,,,,,,,,,,,,,,,,,,,,,,,,,,,,,,,,,,,,,,,,,,,,,,,,,,,,,,,,,,,,
,,,,,,,,,,,,l,Correct!,0,89,89,73,1,t4.png,t2.png,2,0.059078,20,Female,2020-09-13_19h02.43.889,torte-2b,2020.1.3,MacIntel,60,12746,0.444,,,,,,,,,,,,,,,,,,,,,,,,,,,,,,,,,,,,,,,,,,,,,,,,,,,,,,,,,,,,,,,,,
,,,,,,,,,,,,l,Correct!,0,90,90,61,1,t1.png,t4.png,3,0.0000131,20,Female,2020-09-13_19h02.43.889,torte-2b,2020.1.3,MacIntel,60,12746,0.612,,,,,,,,,,,,,,,,,,,,,,,,,,,,,,,,,,,,,,,,,,,,,,,,,,,,,,,,,,,,,,,,,
,,,,,,,,,,,,l,Incorrect,0,91,91,44,1,t2.png,t3.png,1,0.909,20,Female,2020-09-13_19h02.43.889,torte-2b,2020.1.3,MacIntel,60,12746,0.423,,,,,,,,,,,,,,,,,,,,,,,,,,,,,,,,,,,,,,,,,,,,,,,,,,,,,,,,,,,,,,,,,
,,,,,,,,,,,,l,Incorrect,0,92,92,42,1,t5.png,t4.png,1,0.90025,20,Female,2020-09-13_19h02.43.889,torte-2b,2020.1.3,MacIntel,60,12746,0.52,,,,,,,,,,,,,,,,,,,,,,,,,,,,,,,,,,,,,,,,,,,,,,,,,,,,,,,,,,,,,,,,,
,,,,,,,,,,,,l,Incorrect,0,93,93,112,1,t1.png,t1.png,0,0.97829,20,Female,2020-09-13_19h02.43.889,torte-2b,2020.1.3,MacIntel,60,12746,1.411,,,,,,,,,,,,,,,,,,,,,,,,,,,,,,,,,,,,,,,,,,,,,,,,,,,,,,,,,,,,,,,,,
,,,,,,,,,,,,,Too slow :(,0,94,94,35,1,t1.png,t4.png,3,0.0000131,20,Female,2020-09-13_19h02.43.889,torte-2b,2020.1.3,MacIntel,60,12746,,,,,,,,,,,,,,,,,,,,,,,,,,,,,,,,,,,,,,,,,,,,,,,,,,,,,,,,,,,,,,,,,,
,,,,,,,,,,,,l,Correct!,0,95,95,12,1,t5.png,t1.png,4,9.55E-11,20,Female,2020-09-13_19h02.43.889,torte-2b,2020.1.3,MacIntel,60,12746,0.29,,,,,,,,,,,,,,,,,,,,,,,,,,,,,,,,,,,,,,,,,,,,,,,,,,,,,,,,,,,,,,,,,
,,,,,,,,,,,,l,Incorrect,0,96,96,23,1,t5.png,t4.png,1,0.90025,20,Female,2020-09-13_19h02.43.889,torte-2b,2020.1.3,MacIntel,60,12746,0.386,,,,,,,,,,,,,,,,,,,,,,,,,,,,,,,,,,,,,,,,,,,,,,,,,,,,,,,,,,,,,,,,,
,,,,,,,,,,,,l,Correct!,0,97,97,37,1,t1.png,t4.png,3,0.0000131,20,Female,2020-09-13_19h02.43.889,torte-2b,2020.1.3,MacIntel,60,12746,1.235,,,,,,,,,,,,,,,,,,,,,,,,,,,,,,,,,,,,,,,,,,,,,,,,,,,,,,,,,,,,,,,,,
,,,,,,,,,,,,l,Incorrect,0,98,98,62,1,t5.png,t5.png,0,0.978,20,Female,2020-09-13_19h02.43.889,torte-2b,2020.1.3,MacIntel,60,12746,0.586,,,,,,,,,,,,,,,,,,,,,,,,,,,,,,,,,,,,,,,,,,,,,,,,,,,,,,,,,,,,,,,,,
,,,,,,,,,,,,l,Correct!,0,99,99,30,1,t3.png,t1.png,2,0.056466,20,Female,2020-09-13_19h02.43.889,torte-2b,2020.1.3,MacIntel,60,12746,0.623,,,,,,,,,,,,,,,,,,,,,,,,,,,,,,,,,,,,,,,,,,,,,,,,,,,,,,,,,,,,,,,,,
,,,,,,,,,,,,l,Incorrect,0,100,100,65,1,t4.png,t5.png,1,0.90025,20,Female,2020-09-13_19h02.43.889,torte-2b,2020.1.3,MacIntel,60,12746,1.008,,,,,,,,,,,,,,,,,,,,,,,,,,,,,,,,,,,,,,,,,,,,,,,,,,,,,,,,,,,,,,,,,
,,,,,,,,,,,,l,Correct!,0,101,101,17,1,t1.png,t4.png,3,0.0000131,20,Female,2020-09-13_19h02.43.889,torte-2b,2020.1.3,MacIntel,60,12746,0.306,,,,,,,,,,,,,,,,,,,,,,,,,,,,,,,,,,,,,,,,,,,,,,,,,,,,,,,,,,,,,,,,,
,,,,,,,,,,,,l,Incorrect,0,102,102,79,1,t3.png,t2.png,1,0.909,20,Female,2020-09-13_19h02.43.889,torte-2b,2020.1.3,MacIntel,60,12746,0.49,,,,,,,,,,,,,,,,,,,,,,,,,,,,,,,,,,,,,,,,,,,,,,,,,,,,,,,,,,,,,,,,,
,,,,,,,,,,,,l,Incorrect,0,103,103,16,1,t5.png,t4.png,1,0.9,20,Female,2020-09-13_19h02.43.889,torte-2b,2020.1.3,MacIntel,60,12746,0.567,,,,,,,,,,,,,,,,,,,,,,,,,,,,,,,,,,,,,,,,,,,,,,,,,,,,,,,,,,,,,,,,,
,,,,,,,,,,,,l,Correct!,0,104,104,51,1,t3.png,t1.png,2,0.056466,20,Female,2020-09-13_19h02.43.889,torte-2b,2020.1.3,MacIntel,60,12746,1.141,,,,,,,,,,,,,,,,,,,,,,,,,,,,,,,,,,,,,,,,,,,,,,,,,,,,,,,,,,,,,,,,,
,,,,,,,,,,,,l,Incorrect,0,105,105,74,1,t5.png,t4.png,1,0.9,20,Female,2020-09-13_19h02.43.889,torte-2b,2020.1.3,MacIntel,60,12746,0.768,,,,,,,,,,,,,,,,,,,,,,,,,,,,,,,,,,,,,,,,,,,,,,,,,,,,,,,,,,,,,,,,,
,,,,,,,,,,,,a,Incorrect,0,106,106,27,1,t3.png,t1.png,2,0.0565,20,Female,2020-09-13_19h02.43.889,torte-2b,2020.1.3,MacIntel,60,12746,1.089,,,,,,,,,,,,,,,,,,,,,,,,,,,,,,,,,,,,,,,,,,,,,,,,,,,,,,,,,,,,,,,,,
,,,,,,,,,,,,l,Incorrect,0,107,107,113,1,t5.png,t4.png,1,0.9,20,Female,2020-09-13_19h02.43.889,torte-2b,2020.1.3,MacIntel,60,12746,0.574,,,,,,,,,,,,,,,,,,,,,,,,,,,,,,,,,,,,,,,,,,,,,,,,,,,,,,,,,,,,,,,,,
,,,,,,,,,,,,l,Correct!,0,108,108,26,1,t4.png,t2.png,2,0.0591,20,Female,2020-09-13_19h02.43.889,torte-2b,2020.1.3,MacIntel,60,12746,0.976,,,,,,,,,,,,,,,,,,,,,,,,,,,,,,,,,,,,,,,,,,,,,,,,,,,,,,,,,,,,,,,,,
,,,,,,,,,,,,l,Incorrect,0,109,109,58,1,t5.png,t4.png,1,0.90025,20,Female,2020-09-13_19h02.43.889,torte-2b,2020.1.3,MacIntel,60,12746,1.126,,,,,,,,,,,,,,,,,,,,,,,,,,,,,,,,,,,,,,,,,,,,,,,,,,,,,,,,,,,,,,,,,
,,,,,,,,,,,,a,Incorrect,0,110,110,33,1,t5.png,t1.png,4,9.55E-11,20,Female,2020-09-13_19h02.43.889,torte-2b,2020.1.3,MacIntel,60,12746,0.875,,,,,,,,,,,,,,,,,,,,,,,,,,,,,,,,,,,,,,,,,,,,,,,,,,,,,,,,,,,,,,,,,
,,,,,,,,,,,,l,Correct!,0,111,111,40,1,t1.png,t5.png,4,9.55E-11,20,Female,2020-09-13_19h02.43.889,torte-2b,2020.1.3,MacIntel,60,12746,0.39,,,,,,,,,,,,,,,,,,,,,,,,,,,,,,,,,,,,,,,,,,,,,,,,,,,,,,,,,,,,,,,,,
,,,,,,,,,,,,l,Correct!,0,112,112,103,1,t3.png,t1.png,2,0.056466,20,Female,2020-09-13_19h02.43.889,torte-2b,2020.1.3,MacIntel,60,12746,0.641,,,,,,,,,,,,,,,,,,,,,,,,,,,,,,,,,,,,,,,,,,,,,,,,,,,,,,,,,,,,,,,,,
,,,,,,,,,,,,a,Correct!,0,113,113,9,1,t4.png,t5.png,1,0.9,20,Female,2020-09-13_19h02.43.889,torte-2b,2020.1.3,MacIntel,60,12746,0.743,,,,,,,,,,,,,,,,,,,,,,,,,,,,,,,,,,,,,,,,,,,,,,,,,,,,,,,,,,,,,,,,,
,,,,,,,,,,,,l,Correct!,0,114,114,83,1,t3.png,t1.png,2,0.056466,20,Female,2020-09-13_19h02.43.889,torte-2b,2020.1.3,MacIntel,60,12746,0.525,,,,,,,,,,,,,,,,,,,,,,,,,,,,,,,,,,,,,,,,,,,,,,,,,,,,,,,,,,,,,,,,,
,,,,,,,,,,,,l,Incorrect,0,115,115,59,1,t5.png,t4.png,1,0.9,20,Female,2020-09-13_19h02.43.889,torte-2b,2020.1.3,MacIntel,60,12746,0.504,,,,,,,,,,,,,,,,,,,,,,,,,,,,,,,,,,,,,,,,,,,,,,,,,,,,,,,,,,,,,,,,,
,,,,,,,,,,,,l,Correct!,0,116,116,69,1,t4.png,t2.png,2,0.059078,20,Female,2020-09-13_19h02.43.889,torte-2b,2020.1.3,MacIntel,60,12746,1.041,,,,,,,,,,,,,,,,,,,,,,,,,,,,,,,,,,,,,,,,,,,,,,,,,,,,,,,,,,,,,,,,,
,,,,,,,,,,,,l,Correct!,0,117,117,89,1,t1.png,t4.png,3,0.0000131,20,Female,2020-09-13_19h02.43.889,torte-2b,2020.1.3,MacIntel,60,12746,2.178,,,,,,,,,,,,,,,,,,,,,,,,,,,,,,,,,,,,,,,,,,,,,,,,,,,,,,,,,,,,,,,,,
,,,,,,,,,,,,l,Correct!,0,118,118,90,1,t1.png,t5.png,4,9.55E-11,20,Female,2020-09-13_19h02.43.889,torte-2b,2020.1.3,MacIntel,60,12746,0.566,,,,,,,,,,,,,,,,,,,,,,,,,,,,,,,,,,,,,,,,,,,,,,,,,,,,,,,,,,,,,,,,,
,,,,,,,,,,,,l,Correct!,0,119,119,117,1,t1.png,t5.png,4,9.55E-11,20,Female,2020-09-13_19h02.43.889,torte-2b,2020.1.3,MacIntel,60,12746,1.336,,,,,,,,,,,,,,,,,,,,,,,,,,,,,,,,,,,,,,,,,,,,,,,,,,,,,,,,,,,,,,,,,
,,,,,,,,,,,,l,Incorrect,,,,,,t4.png,t4.png,0,0.98115,20,Female,2020-09-13_19h02.43.889,torte-2b,2020.1.3,MacIntel,60,12746,0.551,l,2.509,space,11.753,0,0,0,52,1,,,,,,,,,,,,,,,,,,,,,,,,,,,,,,,,,,,,,,,,,,,,,,,,,,,,,,,,
,,,,,,,,,,,,l,Incorrect,,,,,,t5.png,t5.png,0,0.97829,20,Female,2020-09-13_19h02.43.889,torte-2b,2020.1.3,MacIntel,60,12746,0.972,,,,,0,1,1,70,1,,,,,,,,,,,,,,,,,,,,,,,,,,,,,,,,,,,,,,,,,,,,,,,,,,,,,,,,
,,,,,,,,,,,,a,Correct!,,,,,,t3.png,t2.png,1,0.909,20,Female,2020-09-13_19h02.43.889,torte-2b,2020.1.3,MacIntel,60,12746,1.025,,,,,0,2,2,3,1,,,,,,,,,,,,,,,,,,,,,,,,,,,,,,,,,,,,,,,,,,,,,,,,,,,,,,,,
,,,,,,,,,,,,a,Incorrect,,,,,,t5.png,t2.png,3,0.0000131,20,Female,2020-09-13_19h02.43.889,torte-2b,2020.1.3,MacIntel,60,12746,0.793,,,,,0,3,3,91,1,,,,,,,,,,,,,,,,,,,,,,,,,,,,,,,,,,,,,,,,,,,,,,,,,,,,,,,,
,,,,,,,,,,,,l,Incorrect,,,,,,t4.png,t3.png,1,0.909,20,Female,2020-09-13_19h02.43.889,torte-2b,2020.1.3,MacIntel,60,12746,0.322,,,,,0,4,4,20,1,,,,,,,,,,,,,,,,,,,,,,,,,,,,,,,,,,,,,,,,,,,,,,,,,,,,,,,,
,,,,,,,,,,,,a,Correct!,,,,,,t3.png,t2.png,1,0.90855,20,Female,2020-09-13_19h02.43.889,torte-2b,2020.1.3,MacIntel,60,12746,0.418,,,,,0,5,5,18,1,,,,,,,,,,,,,,,,,,,,,,,,,,,,,,,,,,,,,,,,,,,,,,,,,,,,,,,,
,,,,,,,,,,,,a,Incorrect,,,,,,t5.png,t3.png,2,0.056466,20,Female,2020-09-13_19h02.43.889,torte-2b,2020.1.3,MacIntel,60,12746,0.689,,,,,0,6,6,114,1,,,,,,,,,,,,,,,,,,,,,,,,,,,,,,,,,,,,,,,,,,,,,,,,,,,,,,,,
,,,,,,,,,,,,l,Incorrect,,,,,,t4.png,t4.png,0,0.98115,20,Female,2020-09-13_19h02.43.889,torte-2b,2020.1.3,MacIntel,60,12746,0.323,,,,,0,7,7,79,1,,,,,,,,,,,,,,,,,,,,,,,,,,,,,,,,,,,,,,,,,,,,,,,,,,,,,,,,
,,,,,,,,,,,,l,Correct!,,,,,,t4.png,t2.png,2,0.059078,20,Female,2020-09-13_19h02.43.889,torte-2b,2020.1.3,MacIntel,60,12746,0.374,,,,,0,8,8,110,1,,,,,,,,,,,,,,,,,,,,,,,,,,,,,,,,,,,,,,,,,,,,,,,,,,,,,,,,
,,,,,,,,,,,,l,Incorrect,,,,,,t4.png,t5.png,1,0.90025,20,Female,2020-09-13_19h02.43.889,torte-2b,2020.1.3,MacIntel,60,12746,0.557,,,,,0,9,9,103,1,,,,,,,,,,,,,,,,,,,,,,,,,,,,,,,,,,,,,,,,,,,,,,,,,,,,,,,,
,,,,,,,,,,,,l,Correct!,,,,,,t5.png,t1.png,4,9.55E-11,20,Female,2020-09-13_19h02.43.889,torte-2b,2020.1.3,MacIntel,60,12746,1.729,,,,,0,10,10,43,1,,,,,,,,,,,,,,,,,,,,,,,,,,,,,,,,,,,,,,,,,,,,,,,,,,,,,,,,
,,,,,,,,,,,,l,Incorrect,,,,,,t1.png,t1.png,0,0.97829,20,Female,2020-09-13_19h02.43.889,torte-2b,2020.1.3,MacIntel,60,12746,0.758,,,,,0,11,11,67,1,,,,,,,,,,,,,,,,,,,,,,,,,,,,,,,,,,,,,,,,,,,,,,,,,,,,,,,,
,,,,,,,,,,,,l,Correct!,,,,,,t1.png,t4.png,3,0.0000131,20,Female,2020-09-13_19h02.43.889,torte-2b,2020.1.3,MacIntel,60,12746,0.669,,,,,0,12,12,92,1,,,,,,,,,,,,,,,,,,,,,,,,,,,,,,,,,,,,,,,,,,,,,,,,,,,,,,,,
,,,,,,,,,,,,,Too slow :(,,,,,,t4.png,t4.png,0,0.98115,20,Female,2020-09-13_19h02.43.889,torte-2b,2020.1.3,MacIntel,60,12746,,,,,,0,13,13,80,1,,,,,,,,,,,,,,,,,,,,,,,,,,,,,,,,,,,,,,,,,,,,,,,,,,,,,,,,
,,,,,,,,,,,,l,Incorrect,,,,,,t1.png,t1.png,0,0.978,20,Female,2020-09-13_19h02.43.889,torte-2b,2020.1.3,MacIntel,60,12746,0.473,,,,,0,14,14,28,1,,,,,,,,,,,,,,,,,,,,,,,,,,,,,,,,,,,,,,,,,,,,,,,,,,,,,,,,
,,,,,,,,,,,,l,Correct!,,,,,,t3.png,t1.png,2,0.056466,20,Female,2020-09-13_19h02.43.889,torte-2b,2020.1.3,MacIntel,60,12746,2.26,,,,,0,15,15,64,1,,,,,,,,,,,,,,,,,,,,,,,,,,,,,,,,,,,,,,,,,,,,,,,,,,,,,,,,
,,,,,,,,,,,,a,Incorrect,,,,,,t3.png,t1.png,2,0.056466,20,Female,2020-09-13_19h02.43.889,torte-2b,2020.1.3,MacIntel,60,12746,0.909,,,,,0,16,16,0,1,,,,,,,,,,,,,,,,,,,,,,,,,,,,,,,,,,,,,,,,,,,,,,,,,,,,,,,,
,,,,,,,,,,,,a,Incorrect,,,,,,t4.png,t1.png,3,0.0000131,20,Female,2020-09-13_19h02.43.889,torte-2b,2020.1.3,MacIntel,60,12746,0.677,,,,,0,17,17,48,1,,,,,,,,,,,,,,,,,,,,,,,,,,,,,,,,,,,,,,,,,,,,,,,,,,,,,,,,
,,,,,,,,,,,,l,Incorrect,,,,,,t1.png,t1.png,0,0.978,20,Female,2020-09-13_19h02.43.889,torte-2b,2020.1.3,MacIntel,60,12746,0.519,,,,,0,18,18,54,1,,,,,,,,,,,,,,,,,,,,,,,,,,,,,,,,,,,,,,,,,,,,,,,,,,,,,,,,
,,,,,,,,,,,,l,Incorrect,,,,,,t2.png,t1.png,1,0.90025,20,Female,2020-09-13_19h02.43.889,torte-2b,2020.1.3,MacIntel,60,12746,0.57,,,,,0,19,19,5,1,,,,,,,,,,,,,,,,,,,,,,,,,,,,,,,,,,,,,,,,,,,,,,,,,,,,,,,,
,,,,,,,,,,,,l,Correct!,,,,,,t1.png,t3.png,2,0.056466,20,Female,2020-09-13_19h02.43.889,torte-2b,2020.1.3,MacIntel,60,12746,0.433,,,,,0,20,20,60,1,,,,,,,,,,,,,,,,,,,,,,,,,,,,,,,,,,,,,,,,,,,,,,,,,,,,,,,,
,,,,,,,,,,,,,Too slow :(,,,,,,t3.png,t4.png,1,0.90855,20,Female,2020-09-13_19h02.43.889,torte-2b,2020.1.3,MacIntel,60,12746,,,,,,0,21,21,84,1,,,,,,,,,,,,,,,,,,,,,,,,,,,,,,,,,,,,,,,,,,,,,,,,,,,,,,,,
,,,,,,,,,,,,l,Incorrect,,,,,,t2.png,t3.png,1,0.90855,20,Female,2020-09-13_19h02.43.889,torte-2b,2020.1.3,MacIntel,60,12746,0.539,,,,,0,22,22,10,1,,,,,,,,,,,,,,,,,,,,,,,,,,,,,,,,,,,,,,,,,,,,,,,,,,,,,,,,
,,,,,,,,,,,,l,Incorrect,,,,,,t4.png,t5.png,1,0.9,20,Female,2020-09-13_19h02.43.889,torte-2b,2020.1.3,MacIntel,60,12746,0.565,,,,,0,23,23,115,1,,,,,,,,,,,,,,,,,,,,,,,,,,,,,,,,,,,,,,,,,,,,,,,,,,,,,,,,
,,,,,,,,,,,,l,Correct!,,,,,,t2.png,t5.png,3,0.0000131,20,Female,2020-09-13_19h02.43.889,torte-2b,2020.1.3,MacIntel,60,12746,0.505,,,,,0,24,24,95,1,,,,,,,,,,,,,,,,,,,,,,,,,,,,,,,,,,,,,,,,,,,,,,,,,,,,,,,,
,,,,,,,,,,,,a,Incorrect,,,,,,t5.png,t1.png,4,9.55E-11,20,Female,2020-09-13_19h02.43.889,torte-2b,2020.1.3,MacIntel,60,12746,0.739,,,,,0,25,25,100,1,,,,,,,,,,,,,,,,,,,,,,,,,,,,,,,,,,,,,,,,,,,,,,,,,,,,,,,,
,,,,,,,,,,,,l,Correct!,,,,,,t2.png,t4.png,2,0.0591,20,Female,2020-09-13_19h02.43.889,torte-2b,2020.1.3,MacIntel,60,12746,1.923,,,,,0,26,26,15,1,,,,,,,,,,,,,,,,,,,,,,,,,,,,,,,,,,,,,,,,,,,,,,,,,,,,,,,,
,,,,,,,,,,,,l,Correct!,,,,,,t4.png,t2.png,2,0.059078,20,Female,2020-09-13_19h02.43.889,torte-2b,2020.1.3,MacIntel,60,12746,0.674,,,,,0,27,27,109,1,,,,,,,,,,,,,,,,,,,,,,,,,,,,,,,,,,,,,,,,,,,,,,,,,,,,,,,,
,,,,,,,,,,,,l,Incorrect,,,,,,t2.png,t2.png,0,0.98115,20,Female,2020-09-13_19h02.43.889,torte-2b,2020.1.3,MacIntel,60,12746,0.958,,,,,0,28,28,57,1,,,,,,,,,,,,,,,,,,,,,,,,,,,,,,,,,,,,,,,,,,,,,,,,,,,,,,,,
,,,,,,,,,,,,l,Correct!,,,,,,t2.png,t4.png,2,0.059078,20,Female,2020-09-13_19h02.43.889,torte-2b,2020.1.3,MacIntel,60,12746,1.227,,,,,0,29,29,24,1,,,,,,,,,,,,,,,,,,,,,,,,,,,,,,,,,,,,,,,,,,,,,,,,,,,,,,,,
,,,,,,,,,,,,l,Incorrect,,,,,,t4.png,t4.png,0,0.98115,20,Female,2020-09-13_19h02.43.889,torte-2b,2020.1.3,MacIntel,60,12746,0.879,,,,,0,30,30,90,1,,,,,,,,,,,,,,,,,,,,,,,,,,,,,,,,,,,,,,,,,,,,,,,,,,,,,,,,
,,,,,,,,,,,,l,Incorrect,,,,,,t2.png,t2.png,0,0.98115,20,Female,2020-09-13_19h02.43.889,torte-2b,2020.1.3,MacIntel,60,12746,0.488,,,,,0,31,31,59,1,,,,,,,,,,,,,,,,,,,,,,,,,,,,,,,,,,,,,,,,,,,,,,,,,,,,,,,,
,,,,,,,,,,,,l,Correct!,,,,,,t4.png,t3.png,1,0.90855,20,Female,2020-09-13_19h02.43.889,torte-2b,2020.1.3,MacIntel,60,12746,1.009,,,,,0,32,32,45,1,,,,,,,,,,,,,,,,,,,,,,,,,,,,,,,,,,,,,,,,,,,,,,,,,,,,,,,,
,,,,,,,,,,,,l,Correct!,,,,,,t3.png,t5.png,2,0.056466,20,Female,2020-09-13_19h02.43.889,torte-2b,2020.1.3,MacIntel,60,12746,0.556,,,,,0,33,33,44,1,,,,,,,,,,,,,,,,,,,,,,,,,,,,,,,,,,,,,,,,,,,,,,,,,,,,,,,,
,,,,,,,,,,,,l,Correct!,,,,,,t1.png,t5.png,4,9.55E-11,20,Female,2020-09-13_19h02.43.889,torte-2b,2020.1.3,MacIntel,60,12746,1.468,,,,,0,34,34,16,1,,,,,,,,,,,,,,,,,,,,,,,,,,,,,,,,,,,,,,,,,,,,,,,,,,,,,,,,
,,,,,,,,,,,,l,Incorrect,,,,,,t2.png,t1.png,1,0.9,20,Female,2020-09-13_19h02.43.889,torte-2b,2020.1.3,MacIntel,60,12746,0.707,,,,,0,35,35,118,1,,,,,,,,,,,,,,,,,,,,,,,,,,,,,,,,,,,,,,,,,,,,,,,,,,,,,,,,
,,,,,,,,,,,,l,Incorrect,,,,,,t2.png,t1.png,1,0.90025,20,Female,2020-09-13_19h02.43.889,torte-2b,2020.1.3,MacIntel,60,12746,0.677,,,,,0,36,36,19,1,,,,,,,,,,,,,,,,,,,,,,,,,,,,,,,,,,,,,,,,,,,,,,,,,,,,,,,,
,,,,,,,,,,,,a,Correct!,,,,,,t5.png,t5.png,0,0.978,20,Female,2020-09-13_19h02.43.889,torte-2b,2020.1.3,MacIntel,60,12746,0.441,,,,,0,37,37,117,1,,,,,,,,,,,,,,,,,,,,,,,,,,,,,,,,,,,,,,,,,,,,,,,,,,,,,,,,
,,,,,,,,,,,,l,Incorrect,,,,,,t5.png,t4.png,1,0.90025,20,Female,2020-09-13_19h02.43.889,torte-2b,2020.1.3,MacIntel,60,12746,0.638,,,,,0,38,38,26,1,,,,,,,,,,,,,,,,,,,,,,,,,,,,,,,,,,,,,,,,,,,,,,,,,,,,,,,,
,,,,,,,,,,,,l,Correct!,,,,,,t5.png,t3.png,2,0.056466,20,Female,2020-09-13_19h02.43.889,torte-2b,2020.1.3,MacIntel,60,12746,0.658,,,,,0,39,39,108,1,,,,,,,,,,,,,,,,,,,,,,,,,,,,,,,,,,,,,,,,,,,,,,,,,,,,,,,,
,,,,,,,,,,,,l,Correct!,,,,,,t1.png,t5.png,4,9.55E-11,20,Female,2020-09-13_19h02.43.889,torte-2b,2020.1.3,MacIntel,60,12746,0.556,,,,,0,40,40,12,1,,,,,,,,,,,,,,,,,,,,,,,,,,,,,,,,,,,,,,,,,,,,,,,,,,,,,,,,
,,,,,,,,,,,,l,Correct!,,,,,,t5.png,t2.png,3,0.0000131,20,Female,2020-09-13_19h02.43.889,torte-2b,2020.1.3,MacIntel,60,12746,0.889,,,,,0,41,41,51,1,,,,,,,,,,,,,,,,,,,,,,,,,,,,,,,,,,,,,,,,,,,,,,,,,,,,,,,,
,,,,,,,,,,,,l,Correct!,,,,,,t4.png,t2.png,2,0.0591,20,Female,2020-09-13_19h02.43.889,torte-2b,2020.1.3,MacIntel,60,12746,0.617,,,,,0,42,42,36,1,,,,,,,,,,,,,,,,,,,,,,,,,,,,,,,,,,,,,,,,,,,,,,,,,,,,,,,,
,,,,,,,,,,,,l,Incorrect,,,,,,t3.png,t2.png,1,0.90855,20,Female,2020-09-13_19h02.43.889,torte-2b,2020.1.3,MacIntel,60,12746,0.69,,,,,0,43,43,97,1,,,,,,,,,,,,,,,,,,,,,,,,,,,,,,,,,,,,,,,,,,,,,,,,,,,,,,,,
,,,,,,,,,,,,l,Correct!,,,,,,t4.png,t5.png,1,0.90025,20,Female,2020-09-13_19h02.43.889,torte-2b,2020.1.3,MacIntel,60,12746,2.38,,,,,0,44,44,47,1,,,,,,,,,,,,,,,,,,,,,,,,,,,,,,,,,,,,,,,,,,,,,,,,,,,,,,,,
,,,,,,,,,,,,l,Correct!,,,,,,t3.png,t1.png,2,0.056466,20,Female,2020-09-13_19h02.43.889,torte-2b,2020.1.3,MacIntel,60,12746,0.94,,,,,0,45,45,32,1,,,,,,,,,,,,,,,,,,,,,,,,,,,,,,,,,,,,,,,,,,,,,,,,,,,,,,,,
,,,,,,,,,,,,l,Correct!,,,,,,t1.png,t3.png,2,0.056466,20,Female,2020-09-13_19h02.43.889,torte-2b,2020.1.3,MacIntel,60,12746,1.778,,,,,0,46,46,63,1,,,,,,,,,,,,,,,,,,,,,,,,,,,,,,,,,,,,,,,,,,,,,,,,,,,,,,,,
,,,,,,,,,,,,l,Correct!,,,,,,t5.png,t2.png,3,0.0000131,20,Female,2020-09-13_19h02.43.889,torte-2b,2020.1.3,MacIntel,60,12746,1.843,,,,,0,47,47,119,1,,,,,,,,,,,,,,,,,,,,,,,,,,,,,,,,,,,,,,,,,,,,,,,,,,,,,,,,
,,,,,,,,,,,,a,Correct!,,,,,,t2.png,t1.png,1,0.90025,20,Female,2020-09-13_19h02.43.889,torte-2b,2020.1.3,MacIntel,60,12746,0.718,,,,,0,48,48,62,1,,,,,,,,,,,,,,,,,,,,,,,,,,,,,,,,,,,,,,,,,,,,,,,,,,,,,,,,
,,,,,,,,,,,,l,Correct!,,,,,,t3.png,t5.png,2,0.0565,20,Female,2020-09-13_19h02.43.889,torte-2b,2020.1.3,MacIntel,60,12746,0.523,,,,,0,49,49,83,1,,,,,,,,,,,,,,,,,,,,,,,,,,,,,,,,,,,,,,,,,,,,,,,,,,,,,,,,
,,,,,,,,,,,,l,Correct!,,,,,,t3.png,t5.png,2,0.056466,20,Female,2020-09-13_19h02.43.889,torte-2b,2020.1.3,MacIntel,60,12746,0.975,,,,,0,50,50,6,1,,,,,,,,,,,,,,,,,,,,,,,,,,,,,,,,,,,,,,,,,,,,,,,,,,,,,,,,
,,,,,,,,,,,,l,Incorrect,,,,,,t5.png,t4.png,1,0.90025,20,Female,2020-09-13_19h02.43.889,torte-2b,2020.1.3,MacIntel,60,12746,2.097,,,,,0,51,51,34,1,,,,,,,,,,,,,,,,,,,,,,,,,,,,,,,,,,,,,,,,,,,,,,,,,,,,,,,,
,,,,,,,,,,,,l,Incorrect,,,,,,t2.png,t3.png,1,0.909,20,Female,2020-09-13_19h02.43.889,torte-2b,2020.1.3,MacIntel,60,12746,1.425,,,,,0,52,52,74,1,,,,,,,,,,,,,,,,,,,,,,,,,,,,,,,,,,,,,,,,,,,,,,,,,,,,,,,,
,,,,,,,,,,,,l,Incorrect,,,,,,t5.png,t4.png,1,0.9,20,Female,2020-09-13_19h02.43.889,torte-2b,2020.1.3,MacIntel,60,12746,0.89,,,,,0,53,53,49,1,,,,,,,,,,,,,,,,,,,,,,,,,,,,,,,,,,,,,,,,,,,,,,,,,,,,,,,,
,,,,,,,,,,,,l,Incorrect,,,,,,t1.png,t2.png,1,0.90025,20,Female,2020-09-13_19h02.43.889,torte-2b,2020.1.3,MacIntel,60,12746,0.79,,,,,0,54,54,33,1,,,,,,,,,,,,,,,,,,,,,,,,,,,,,,,,,,,,,,,,,,,,,,,,,,,,,,,,
,,,,,,,,,,,,l,Correct!,,,,,,t3.png,t1.png,2,0.0565,20,Female,2020-09-13_19h02.43.889,torte-2b,2020.1.3,MacIntel,60,12746,0.738,,,,,0,55,55,31,1,,,,,,,,,,,,,,,,,,,,,,,,,,,,,,,,,,,,,,,,,,,,,,,,,,,,,,,,
,,,,,,,,,,,,l,Incorrect,,,,,,t2.png,t3.png,1,0.90855,20,Female,2020-09-13_19h02.43.889,torte-2b,2020.1.3,MacIntel,60,12746,0.555,,,,,0,56,56,65,1,,,,,,,,,,,,,,,,,,,,,,,,,,,,,,,,,,,,,,,,,,,,,,,,,,,,,,,,
,,,,,,,,,,,,l,Incorrect,,,,,,t4.png,t3.png,1,0.90855,20,Female,2020-09-13_19h02.43.889,torte-2b,2020.1.3,MacIntel,60,12746,0.576,,,,,0,57,57,75,1,,,,,,,,,,,,,,,,,,,,,,,,,,,,,,,,,,,,,,,,,,,,,,,,,,,,,,,,
,,,,,,,,,,,,l,Incorrect,,,,,,t4.png,t4.png,0,0.98115,20,Female,2020-09-13_19h02.43.889,torte-2b,2020.1.3,MacIntel,60,12746,0.759,,,,,0,58,58,21,1,,,,,,,,,,,,,,,,,,,,,,,,,,,,,,,,,,,,,,,,,,,,,,,,,,,,,,,,
,,,,,,,,,,,,a,Incorrect,,,,,,t2.png,t5.png,3,0.0000131,20,Female,2020-09-13_19h02.43.889,torte-2b,2020.1.3,MacIntel,60,12746,0.319,,,,,0,59,59,8,1,,,,,,,,,,,,,,,,,,,,,,,,,,,,,,,,,,,,,,,,,,,,,,,,,,,,,,,,
,,,,,,,,,,,,l,Incorrect,,,,,,t2.png,t2.png,0,0.98115,20,Female,2020-09-13_19h02.43.889,torte-2b,2020.1.3,MacIntel,60,12746,0.456,,,,,0,60,60,7,1,,,,,,,,,,,,,,,,,,,,,,,,,,,,,,,,,,,,,,,,,,,,,,,,,,,,,,,,
,,,,,,,,,,,,l,Incorrect,,,,,,t2.png,t3.png,1,0.90855,20,Female,2020-09-13_19h02.43.889,torte-2b,2020.1.3,MacIntel,60,12746,0.837,,,,,0,61,61,68,1,,,,,,,,,,,,,,,,,,,,,,,,,,,,,,,,,,,,,,,,,,,,,,,,,,,,,,,,
,,,,,,,,,,,,a,Incorrect,,,,,,t4.png,t1.png,3,0.0000131,20,Female,2020-09-13_19h02.43.889,torte-2b,2020.1.3,MacIntel,60,12746,0.63,,,,,0,62,62,93,1,,,,,,,,,,,,,,,,,,,,,,,,,,,,,,,,,,,,,,,,,,,,,,,,,,,,,,,,
,,,,,,,,,,,,l,Correct!,,,,,,t4.png,t1.png,3,0.0000131,20,Female,2020-09-13_19h02.43.889,torte-2b,2020.1.3,MacIntel,60,12746,0.873,,,,,0,63,63,61,1,,,,,,,,,,,,,,,,,,,,,,,,,,,,,,,,,,,,,,,,,,,,,,,,,,,,,,,,
,,,,,,,,,,,,l,Incorrect,,,,,,t4.png,t5.png,1,0.90025,20,Female,2020-09-13_19h02.43.889,torte-2b,2020.1.3,MacIntel,60,12746,0.791,,,,,0,64,64,113,1,,,,,,,,,,,,,,,,,,,,,,,,,,,,,,,,,,,,,,,,,,,,,,,,,,,,,,,,
,,,,,,,,,,,,l,Incorrect,,,,,,t5.png,t5.png,0,0.97829,20,Female,2020-09-13_19h02.43.889,torte-2b,2020.1.3,MacIntel,60,12746,0.574,,,,,0,65,65,25,1,,,,,,,,,,,,,,,,,,,,,,,,,,,,,,,,,,,,,,,,,,,,,,,,,,,,,,,,
,,,,,,,,,,,,l,Correct!,,,,,,t5.png,t4.png,1,0.9,20,Female,2020-09-13_19h02.43.889,torte-2b,2020.1.3,MacIntel,60,12746,1.505,,,,,0,66,66,76,1,,,,,,,,,,,,,,,,,,,,,,,,,,,,,,,,,,,,,,,,,,,,,,,,,,,,,,,,
,,,,,,,,,,,,,Too slow :(,,,,,,t3.png,t2.png,1,0.90855,20,Female,2020-09-13_19h02.43.889,torte-2b,2020.1.3,MacIntel,60,12746,,,,,,0,67,67,53,1,,,,,,,,,,,,,,,,,,,,,,,,,,,,,,,,,,,,,,,,,,,,,,,,,,,,,,,,
,,,,,,,,,,,,l,Correct!,,,,,,t1.png,t5.png,4,9.55E-11,20,Female,2020-09-13_19h02.43.889,torte-2b,2020.1.3,MacIntel,60,12746,0.407,,,,,0,68,68,55,1,,,,,,,,,,,,,,,,,,,,,,,,,,,,,,,,,,,,,,,,,,,,,,,,,,,,,,,,
,,,,,,,,,,,,l,Incorrect,,,,,,t1.png,t2.png,1,0.9,20,Female,2020-09-13_19h02.43.889,torte-2b,2020.1.3,MacIntel,60,12746,0.459,,,,,0,69,69,1,1,,,,,,,,,,,,,,,,,,,,,,,,,,,,,,,,,,,,,,,,,,,,,,,,,,,,,,,,
,,,,,,,,,,,,l,Correct!,,,,,,t2.png,t5.png,3,0.0000131,20,Female,2020-09-13_19h02.43.889,torte-2b,2020.1.3,MacIntel,60,12746,2.304,,,,,0,70,70,66,1,,,,,,,,,,,,,,,,,,,,,,,,,,,,,,,,,,,,,,,,,,,,,,,,,,,,,,,,
,,,,,,,,,,,,l,Correct!,,,,,,t4.png,t1.png,3,0.0000131,20,Female,2020-09-13_19h02.43.889,torte-2b,2020.1.3,MacIntel,60,12746,0.657,,,,,0,71,71,42,1,,,,,,,,,,,,,,,,,,,,,,,,,,,,,,,,,,,,,,,,,,,,,,,,,,,,,,,,
,,,,,,,,,,,,a,Incorrect,,,,,,t4.png,t1.png,3,0.0000131,20,Female,2020-09-13_19h02.43.889,torte-2b,2020.1.3,MacIntel,60,12746,0.734,,,,,0,72,72,13,1,,,,,,,,,,,,,,,,,,,,,,,,,,,,,,,,,,,,,,,,,,,,,,,,,,,,,,,,
,,,,,,,,,,,,l,Incorrect,,,,,,t1.png,t1.png,0,0.97829,20,Female,2020-09-13_19h02.43.889,torte-2b,2020.1.3,MacIntel,60,12746,0.476,,,,,0,73,73,78,1,,,,,,,,,,,,,,,,,,,,,,,,,,,,,,,,,,,,,,,,,,,,,,,,,,,,,,,,
,,,,,,,,,,,,l,Correct!,,,,,,t4.png,t2.png,2,0.059078,20,Female,2020-09-13_19h02.43.889,torte-2b,2020.1.3,MacIntel,60,12746,2.078,,,,,0,74,74,86,1,,,,,,,,,,,,,,,,,,,,,,,,,,,,,,,,,,,,,,,,,,,,,,,,,,,,,,,,
,,,,,,,,,,,,l,Correct!,,,,,,t3.png,t5.png,2,0.0565,20,Female,2020-09-13_19h02.43.889,torte-2b,2020.1.3,MacIntel,60,12746,0.824,,,,,0,75,75,30,1,,,,,,,,,,,,,,,,,,,,,,,,,,,,,,,,,,,,,,,,,,,,,,,,,,,,,,,,
,,,,,,,,,,,,a,Correct!,,,,,,t2.png,t2.png,0,0.981,20,Female,2020-09-13_19h02.43.889,torte-2b,2020.1.3,MacIntel,60,12746,0.374,,,,,0,76,76,101,1,,,,,,,,,,,,,,,,,,,,,,,,,,,,,,,,,,,,,,,,,,,,,,,,,,,,,,,,
,,,,,,,,,,,,l,Correct!,,,,,,t5.png,t3.png,2,0.0565,20,Female,2020-09-13_19h02.43.889,torte-2b,2020.1.3,MacIntel,60,12746,0.375,,,,,0,77,77,39,1,,,,,,,,,,,,,,,,,,,,,,,,,,,,,,,,,,,,,,,,,,,,,,,,,,,,,,,,
,,,,,,,,,,,,l,Correct!,,,,,,t5.png,t1.png,4,9.55E-11,20,Female,2020-09-13_19h02.43.889,torte-2b,2020.1.3,MacIntel,60,12746,0.374,,,,,0,78,78,102,1,,,,,,,,,,,,,,,,,,,,,,,,,,,,,,,,,,,,,,,,,,,,,,,,,,,,,,,,
,,,,,,,,,,,,l,Correct!,,,,,,t2.png,t4.png,2,0.059078,20,Female,2020-09-13_19h02.43.889,torte-2b,2020.1.3,MacIntel,60,12746,0.442,,,,,0,79,79,77,1,,,,,,,,,,,,,,,,,,,,,,,,,,,,,,,,,,,,,,,,,,,,,,,,,,,,,,,,
,,,,,,,,,,,,l,Incorrect,,,,,,t4.png,t5.png,1,0.90025,20,Female,2020-09-13_19h02.43.889,torte-2b,2020.1.3,MacIntel,60,12746,0.74,,,,,0,80,80,58,1,,,,,,,,,,,,,,,,,,,,,,,,,,,,,,,,,,,,,,,,,,,,,,,,,,,,,,,,
,,,,,,,,,,,,l,Correct!,,,,,,t1.png,t4.png,3,0.0000131,20,Female,2020-09-13_19h02.43.889,torte-2b,2020.1.3,MacIntel,60,12746,1.357,,,,,0,81,81,17,1,,,,,,,,,,,,,,,,,,,,,,,,,,,,,,,,,,,,,,,,,,,,,,,,,,,,,,,,
,,,,,,,,,,,,,Too slow :(,,,,,,t5.png,t3.png,2,0.056466,20,Female,2020-09-13_19h02.43.889,torte-2b,2020.1.3,MacIntel,60,12746,,,,,,0,82,82,56,1,,,,,,,,,,,,,,,,,,,,,,,,,,,,,,,,,,,,,,,,,,,,,,,,,,,,,,,,
,,,,,,,,,,,,,Too slow :(,,,,,,t4.png,t2.png,2,0.059078,20,Female,2020-09-13_19h02.43.889,torte-2b,2020.1.3,MacIntel,60,12746,,,,,,0,83,83,88,1,,,,,,,,,,,,,,,,,,,,,,,,,,,,,,,,,,,,,,,,,,,,,,,,,,,,,,,,
,,,,,,,,,,,,l,Incorrect,,,,,,t2.png,t2.png,0,0.98115,20,Female,2020-09-13_19h02.43.889,torte-2b,2020.1.3,MacIntel,60,12746,0.773,,,,,0,84,84,2,1,,,,,,,,,,,,,,,,,,,,,,,,,,,,,,,,,,,,,,,,,,,,,,,,,,,,,,,,
,,,,,,,,,,,,l,Correct!,,,,,,t2.png,t4.png,2,0.059078,20,Female,2020-09-13_19h02.43.889,torte-2b,2020.1.3,MacIntel,60,12746,0.49,,,,,0,85,85,37,1,,,,,,,,,,,,,,,,,,,,,,,,,,,,,,,,,,,,,,,,,,,,,,,,,,,,,,,,
,,,,,,,,,,,,l,Correct!,,,,,,t3.png,t5.png,2,0.056466,20,Female,2020-09-13_19h02.43.889,torte-2b,2020.1.3,MacIntel,60,12746,2.412,,,,,0,86,86,14,1,,,,,,,,,,,,,,,,,,,,,,,,,,,,,,,,,,,,,,,,,,,,,,,,,,,,,,,,
,,,,,,,,,,,,l,Incorrect,,,,,,t1.png,t2.png,1,0.90025,20,Female,2020-09-13_19h02.43.889,torte-2b,2020.1.3,MacIntel,60,12746,0.802,,,,,0,87,87,72,1,,,,,,,,,,,,,,,,,,,,,,,,,,,,,,,,,,,,,,,,,,,,,,,,,,,,,,,,
,,,,,,,,,,,,l,Incorrect,,,,,,t3.png,t2.png,1,0.909,20,Female,2020-09-13_19h02.43.889,torte-2b,2020.1.3,MacIntel,60,12746,0.037,,,,,0,88,88,23,1,,,,,,,,,,,,,,,,,,,,,,,,,,,,,,,,,,,,,,,,,,,,,,,,,,,,,,,,
,,,,,,,,,,,,l,Correct!,,,,,,t1.png,t4.png,3,0.0000131,20,Female,2020-09-13_19h02.43.889,torte-2b,2020.1.3,MacIntel,60,12746,0.517,,,,,0,89,89,50,1,,,,,,,,,,,,,,,,,,,,,,,,,,,,,,,,,,,,,,,,,,,,,,,,,,,,,,,,
,,,,,,,,,,,,l,Incorrect,,,,,,t3.png,t4.png,1,0.90855,20,Female,2020-09-13_19h02.43.889,torte-2b,2020.1.3,MacIntel,60,12746,1.946,,,,,0,90,90,96,1,,,,,,,,,,,,,,,,,,,,,,,,,,,,,,,,,,,,,,,,,,,,,,,,,,,,,,,,
,,,,,,,,,,,,l,Correct!,,,,,,t2.png,t4.png,2,0.059078,20,Female,2020-09-13_19h02.43.889,torte-2b,2020.1.3,MacIntel,60,12746,0.374,,,,,0,91,91,11,1,,,,,,,,,,,,,,,,,,,,,,,,,,,,,,,,,,,,,,,,,,,,,,,,,,,,,,,,
,,,,,,,,,,,,l,Correct!,,,,,,t5.png,t3.png,2,0.056466,20,Female,2020-09-13_19h02.43.889,torte-2b,2020.1.3,MacIntel,60,12746,0.351,,,,,0,92,92,38,1,,,,,,,,,,,,,,,,,,,,,,,,,,,,,,,,,,,,,,,,,,,,,,,,,,,,,,,,
,,,,,,,,,,,,l,Correct!,,,,,,t5.png,t1.png,4,9.55E-11,20,Female,2020-09-13_19h02.43.889,torte-2b,2020.1.3,MacIntel,60,12746,0.282,,,,,0,93,93,71,1,,,,,,,,,,,,,,,,,,,,,,,,,,,,,,,,,,,,,,,,,,,,,,,,,,,,,,,,
,,,,,,,,,,,,a,Correct!,,,,,,t3.png,t4.png,1,0.909,20,Female,2020-09-13_19h02.43.889,torte-2b,2020.1.3,MacIntel,60,12746,0.523,,,,,0,94,94,82,1,,,,,,,,,,,,,,,,,,,,,,,,,,,,,,,,,,,,,,,,,,,,,,,,,,,,,,,,
,,,,,,,,,,,,,Too slow :(,,,,,,t5.png,t5.png,0,0.97829,20,Female,2020-09-13_19h02.43.889,torte-2b,2020.1.3,MacIntel,60,12746,,,,,,0,95,95,73,1,,,,,,,,,,,,,,,,,,,,,,,,,,,,,,,,,,,,,,,,,,,,,,,,,,,,,,,,
,,,,,,,,,,,,l,Incorrect,,,,,,t1.png,t2.png,1,0.90025,20,Female,2020-09-13_19h02.43.889,torte-2b,2020.1.3,MacIntel,60,12746,0.526,,,,,0,96,96,112,1,,,,,,,,,,,,,,,,,,,,,,,,,,,,,,,,,,,,,,,,,,,,,,,,,,,,,,,,
,,,,,,,,,,,,l,Incorrect,,,,,,t2.png,t1.png,1,0.90025,20,Female,2020-09-13_19h02.43.889,torte-2b,2020.1.3,MacIntel,60,12746,0.417,,,,,0,97,97,4,1,,,,,,,,,,,,,,,,,,,,,,,,,,,,,,,,,,,,,,,,,,,,,,,,,,,,,,,,
,,,,,,,,,,,,l,Incorrect,,,,,,t3.png,t4.png,1,0.909,20,Female,2020-09-13_19h02.43.889,torte-2b,2020.1.3,MacIntel,60,12746,2.059,,,,,0,98,98,89,1,,,,,,,,,,,,,,,,,,,,,,,,,,,,,,,,,,,,,,,,,,,,,,,,,,,,,,,,
,,,,,,,,,,,,,Too slow :(,,,,,,t4.png,t3.png,1,0.90855,20,Female,2020-09-13_19h02.43.889,torte-2b,2020.1.3,MacIntel,60,12746,,,,,,0,99,99,35,1,,,,,,,,,,,,,,,,,,,,,,,,,,,,,,,,,,,,,,,,,,,,,,,,,,,,,,,,
,,,,,,,,,,,,l,Incorrect,,,,,,t2.png,t3.png,1,0.90855,20,Female,2020-09-13_19h02.43.889,torte-2b,2020.1.3,MacIntel,60,12746,0.25,,,,,0,100,100,111,1,,,,,,,,,,,,,,,,,,,,,,,,,,,,,,,,,,,,,,,,,,,,,,,,,,,,,,,,
,,,,,,,,,,,,l,Correct!,,,,,,t1.png,t5.png,4,9.55E-11,20,Female,2020-09-13_19h02.43.889,torte-2b,2020.1.3,MacIntel,60,12746,0.273,,,,,0,101,101,85,1,,,,,,,,,,,,,,,,,,,,,,,,,,,,,,,,,,,,,,,,,,,,,,,,,,,,,,,,
,,,,,,,,,,,,l,Incorrect,,,,,,t5.png,t5.png,0,0.97829,20,Female,2020-09-13_19h02.43.889,torte-2b,2020.1.3,MacIntel,60,12746,0.789,,,,,0,102,102,94,1,,,,,,,,,,,,,,,,,,,,,,,,,,,,,,,,,,,,,,,,,,,,,,,,,,,,,,,,
,,,,,,,,,,,,l,Correct!,,,,,,t1.png,t5.png,4,9.55E-11,20,Female,2020-09-13_19h02.43.889,torte-2b,2020.1.3,MacIntel,60,12746,0.457,,,,,0,103,103,41,1,,,,,,,,,,,,,,,,,,,,,,,,,,,,,,,,,,,,,,,,,,,,,,,,,,,,,,,,
,,,,,,,,,,,,l,Correct!,,,,,,t1.png,t3.png,2,0.056466,20,Female,2020-09-13_19h02.43.889,torte-2b,2020.1.3,MacIntel,60,12746,0.35,,,,,0,104,104,69,1,,,,,,,,,,,,,,,,,,,,,,,,,,,,,,,,,,,,,,,,,,,,,,,,,,,,,,,,
,,,,,,,,,,,,a,Incorrect,,,,,,t5.png,t2.png,3,0.0000131,20,Female,2020-09-13_19h02.43.889,torte-2b,2020.1.3,MacIntel,60,12746,1.244,,,,,0,105,105,116,1,,,,,,,,,,,,,,,,,,,,,,,,,,,,,,,,,,,,,,,,,,,,,,,,,,,,,,,,
,,,,,,,,,,,,a,Incorrect,,,,,,t1.png,t3.png,2,0.056466,20,Female,2020-09-13_19h02.43.889,torte-2b,2020.1.3,MacIntel,60,12746,0.809,,,,,0,106,106,87,1,,,,,,,,,,,,,,,,,,,,,,,,,,,,,,,,,,,,,,,,,,,,,,,,,,,,,,,,
,,,,,,,,,,,,l,Correct!,,,,,,t3.png,t1.png,2,0.056466,20,Female,2020-09-13_19h02.43.889,torte-2b,2020.1.3,MacIntel,60,12746,0.82,,,,,0,107,107,29,1,,,,,,,,,,,,,,,,,,,,,,,,,,,,,,,,,,,,,,,,,,,,,,,,,,,,,,,,
,,,,,,,,,,,,a,Correct!,,,,,,t3.png,t4.png,1,0.909,20,Female,2020-09-13_19h02.43.889,torte-2b,2020.1.3,MacIntel,60,12746,0.592,,,,,0,108,108,106,1,,,,,,,,,,,,,,,,,,,,,,,,,,,,,,,,,,,,,,,,,,,,,,,,,,,,,,,,
,,,,,,,,,,,,l,Incorrect,,,,,,t1.png,t2.png,1,0.90025,20,Female,2020-09-13_19h02.43.889,torte-2b,2020.1.3,MacIntel,60,12746,1.061,,,,,0,109,109,105,1,,,,,,,,,,,,,,,,,,,,,,,,,,,,,,,,,,,,,,,,,,,,,,,,,,,,,,,,
,,,,,,,,,,,,,Too slow :(,,,,,,t2.png,t5.png,3,0.0000131,20,Female,2020-09-13_19h02.43.889,torte-2b,2020.1.3,MacIntel,60,12746,,,,,,0,110,110,104,1,,,,,,,,,,,,,,,,,,,,,,,,,,,,,,,,,,,,,,,,,,,,,,,,,,,,,,,,
,,,,,,,,,,,,l,Correct!,,,,,,t1.png,t3.png,2,0.056466,20,Female,2020-09-13_19h02.43.889,torte-2b,2020.1.3,MacIntel,60,12746,0.293,,,,,0,111,111,99,1,,,,,,,,,,,,,,,,,,,,,,,,,,,,,,,,,,,,,,,,,,,,,,,,,,,,,,,,
,,,,,,,,,,,,l,Correct!,,,,,,t2.png,t5.png,3,0.0000131,20,Female,2020-09-13_19h02.43.889,torte-2b,2020.1.3,MacIntel,60,12746,0.307,,,,,0,112,112,40,1,,,,,,,,,,,,,,,,,,,,,,,,,,,,,,,,,,,,,,,,,,,,,,,,,,,,,,,,
,,,,,,,,,,,,l,Incorrect,,,,,,t5.png,t4.png,1,0.90025,20,Female,2020-09-13_19h02.43.889,torte-2b,2020.1.3,MacIntel,60,12746,1.358,,,,,0,113,113,27,1,,,,,,,,,,,,,,,,,,,,,,,,,,,,,,,,,,,,,,,,,,,,,,,,,,,,,,,,
,,,,,,,,,,,,l,Correct!,,,,,,t5.png,t1.png,4,9.55E-11,20,Female,2020-09-13_19h02.43.889,torte-2b,2020.1.3,MacIntel,60,12746,1.025,,,,,0,114,114,22,1,,,,,,,,,,,,,,,,,,,,,,,,,,,,,,,,,,,,,,,,,,,,,,,,,,,,,,,,
,,,,,,,,,,,,a,Correct!,,,,,,t4.png,t3.png,1,0.909,20,Female,2020-09-13_19h02.43.889,torte-2b,2020.1.3,MacIntel,60,12746,0.477,,,,,0,115,115,46,1,,,,,,,,,,,,,,,,,,,,,,,,,,,,,,,,,,,,,,,,,,,,,,,,,,,,,,,,
,,,,,,,,,,,,,Too slow :(,,,,,,t1.png,t1.png,0,0.97829,20,Female,2020-09-13_19h02.43.889,torte-2b,2020.1.3,MacIntel,60,12746,,,,,,0,116,116,9,1,,,,,,,,,,,,,,,,,,,,,,,,,,,,,,,,,,,,,,,,,,,,,,,,,,,,,,,,
,,,,,,,,,,,,l,Correct!,,,,,,t1.png,t4.png,3,0.0000131,20,Female,2020-09-13_19h02.43.889,torte-2b,2020.1.3,MacIntel,60,12746,0.282,,,,,0,117,117,107,1,,,,,,,,,,,,,,,,,,,,,,,,,,,,,,,,,,,,,,,,,,,,,,,,,,,,,,,,
,,,,,,,,,,,,a,Incorrect,,,,,,t5.png,t2.png,3,0.0000131,20,Female,2020-09-13_19h02.43.889,torte-2b,2020.1.3,MacIntel,60,12746,0.357,,,,,0,118,118,98,1,,,,,,,,,,,,,,,,,,,,,,,,,,,,,,,,,,,,,,,,,,,,,,,,,,,,,,,,
,,,,,,,,,,,,l,Correct!,,,,,,t1.png,t4.png,3,0.0000131,20,Female,2020-09-13_19h02.43.889,torte-2b,2020.1.3,MacIntel,60,12746,0.541,,,,,0,119,119,81,1,,,,,,,,,,,,,,,,,,,,,,,,,,,,,,,,,,,,,,,,,,,,,,,,,,,,,,,,
,,,,,,,,,,,,,,,,,,,,,,,20,Female,2020-09-13_19h02.43.889,torte-2b,2020.1.3,MacIntel,60,12746,,space,2.716,,,,,,,,space,85.214,,0,0,0,0,1,6,,,,,,,,,,,,,,,,,,,,,,,,,,,,,,,,,,,,,,,,,,,,,,,
,,,,,,,,,,,,,,,,,,,,,,,20,Female,2020-09-13_19h02.43.889,torte-2b,2020.1.3,MacIntel,60,12746,,,,,,,,,,,,,,0,1,1,1,1,7,,,,,,,,,,,,,,,,,,,,,,,,,,,,,,,,,,,,,,,,,,,,,,,
,,,,,,,,,,,,,,,,,,,,,,,20,Female,2020-09-13_19h02.43.889,torte-2b,2020.1.3,MacIntel,60,12746,,,,,,,,,,,,,space,0,2,2,2,1,6,0.423,,,,,,,,,,,,,,,,,,,,,,,,,,,,,,,,,,,,,,,,,,,,,,
,,,,,,,,,,,,,,,,,,,,,,,20,Female,2020-09-13_19h02.43.889,torte-2b,2020.1.3,MacIntel,60,12746,,,,,,,,,,,,,space,0,3,3,3,1,7,0.49,,,,,,,,,,,,,,,,,,,,,,,,,,,,,,,,,,,,,,,,,,,,,,
,,,,,,,,,,,,,,,,,,,,,,,20,Female,2020-09-13_19h02.43.889,torte-2b,2020.1.3,MacIntel,60,12746,,,,,,,,,,,,,,0,4,4,4,1,5,,,,,,,,,,,,,,,,,,,,,,,,,,,,,,,,,,,,,,,,,,,,,,,
,,,,,,,,,,,,,,,,,,,,,,,20,Female,2020-09-13_19h02.43.889,torte-2b,2020.1.3,MacIntel,60,12746,,,,,,,,,,,,,space,0,5,5,5,1,7,0.503,,,,,,,,,,,,,,,,,,,,,,,,,,,,,,,,,,,,,,,,,,,,,,
,,,,,,,,,,,,,,,,,,,,,,,20,Female,2020-09-13_19h02.43.889,torte-2b,2020.1.3,MacIntel,60,12746,,,,,,,,,,,,,,0,6,6,6,1,2,,,,,,,,,,,,,,,,,,,,,,,,,,,,,,,,,,,,,,,,,,,,,,,
,,,,,,,,,,,,,,,,,,,,,,,20,Female,2020-09-13_19h02.43.889,torte-2b,2020.1.3,MacIntel,60,12746,,,,,,,,,,,,,,0,7,7,7,1,4,,,,,,,,,,,,,,,,,,,,,,,,,,,,,,,,,,,,,,,,,,,,,,,
,,,,,,,,,,,,,,,,,,,,,,,20,Female,2020-09-13_19h02.43.889,torte-2b,2020.1.3,MacIntel,60,12746,,,,,,,,,,,,,space,0,8,8,8,1,7,0.809,,,,,,,,,,,,,,,,,,,,,,,,,,,,,,,,,,,,,,,,,,,,,,
,,,,,,,,,,,,,,,,,,,,,,,20,Female,2020-09-13_19h02.43.889,torte-2b,2020.1.3,MacIntel,60,12746,,,,,,,,,,,,,space,0,9,9,9,1,4,0.768,,,,,,,,,,,,,,,,,,,,,,,,,,,,,,,,,,,,,,,,,,,,,,
,,,,,,,,,,,,,,,,,,,,,,,20,Female,2020-09-13_19h02.43.889,torte-2b,2020.1.3,MacIntel,60,12746,,,,,,,,,,,,,space,0,10,10,10,1,7,0.616,,,,,,,,,,,,,,,,,,,,,,,,,,,,,,,,,,,,,,,,,,,,,,
,,,,,,,,,,,,,,,,,,,,,,,20,Female,2020-09-13_19h02.43.889,torte-2b,2020.1.3,MacIntel,60,12746,,,,,,,,,,,,,space,0,11,11,11,1,7,0.42,,,,,,,,,,,,,,,,,,,,,,,,,,,,,,,,,,,,,,,,,,,,,,
,,,,,,,,,,,,,,,,,,,,,,,20,Female,2020-09-13_19h02.43.889,torte-2b,2020.1.3,MacIntel,60,12746,,,,,,,,,,,,,space,0,12,12,12,1,7,0.84,,,,,,,,,,,,,,,,,,,,,,,,,,,,,,,,,,,,,,,,,,,,,,
,,,,,,,,,,,,,,,,,,,,,,,20,Female,2020-09-13_19h02.43.889,torte-2b,2020.1.3,MacIntel,60,12746,,,,,,,,,,,,,space,0,13,13,13,1,4,0.786,,,,,,,,,,,,,,,,,,,,,,,,,,,,,,,,,,,,,,,,,,,,,,
,,,,,,,,,,,,,,,,,,,,,,,20,Female,2020-09-13_19h02.43.889,torte-2b,2020.1.3,MacIntel,60,12746,,,,,,,,,,,,,,0,14,14,14,1,6,,,,,,,,,,,,,,,,,,,,,,,,,,,,,,,,,,,,,,,,,,,,,,,
,,,,,,,,,,,,,,,,,,,,,,,20,Female,2020-09-13_19h02.43.889,torte-2b,2020.1.3,MacIntel,60,12746,,,,,,,,,,,,,,0,15,15,15,1,4,,,,,,,,,,,,,,,,,,,,,,,,,,,,,,,,,,,,,,,,,,,,,,,
,,,,,,,,,,,,,,,,,,,,,,,20,Female,2020-09-13_19h02.43.889,torte-2b,2020.1.3,MacIntel,60,12746,,,,,,,,,,,,,space,0,16,16,16,1,6,0.56,,,,,,,,,,,,,,,,,,,,,,,,,,,,,,,,,,,,,,,,,,,,,,
,,,,,,,,,,,,,,,,,,,,,,,20,Female,2020-09-13_19h02.43.889,torte-2b,2020.1.3,MacIntel,60,12746,,,,,,,,,,,,,,0,17,17,17,1,7,,,,,,,,,,,,,,,,,,,,,,,,,,,,,,,,,,,,,,,,,,,,,,,
,,,,,,,,,,,,,,,,,,,,,,,20,Female,2020-09-13_19h02.43.889,torte-2b,2020.1.3,MacIntel,60,12746,,,,,,,,,,,,,space,0,18,18,18,1,6,1.055,,,,,,,,,,,,,,,,,,,,,,,,,,,,,,,,,,,,,,,,,,,,,,
,,,,,,,,,,,,,,,,,,,,,,,20,Female,2020-09-13_19h02.43.889,torte-2b,2020.1.3,MacIntel,60,12746,,,,,,,,,,,,,space,0,19,19,19,1,7,0.709,,,,,,,,,,,,,,,,,,,,,,,,,,,,,,,,,,,,,,,,,,,,,,
,,,,,,,,,,,,,,,,,,,,,,,20,Female,2020-09-13_19h02.43.889,torte-2b,2020.1.3,MacIntel,60,12746,,,,,,,,,,,,,,0,20,20,20,1,5,,,,,,,,,,,,,,,,,,,,,,,,,,,,,,,,,,,,,,,,,,,,,,,
,,,,,,,,,,,,,,,,,,,,,,,20,Female,2020-09-13_19h02.43.889,torte-2b,2020.1.3,MacIntel,60,12746,,,,,,,,,,,,,,0,21,21,21,1,1,,,,,,,,,,,,,,,,,,,,,,,,,,,,,,,,,,,,,,,,,,,,,,,
,,,,,,,,,,,,,,,,,,,,,,,20,Female,2020-09-13_19h02.43.889,torte-2b,2020.1.3,MacIntel,60,12746,,,,,,,,,,,,,space,0,22,22,22,1,6,0.368,,,,,,,,,,,,,,,,,,,,,,,,,,,,,,,,,,,,,,,,,,,,,,
,,,,,,,,,,,,,,,,,,,,,,,20,Female,2020-09-13_19h02.43.889,torte-2b,2020.1.3,MacIntel,60,12746,,,,,,,,,,,,,space,0,23,23,23,1,1,0.974,,,,,,,,,,,,,,,,,,,,,,,,,,,,,,,,,,,,,,,,,,,,,,
,,,,,,,,,,,,,,,,,,,,,,,20,Female,2020-09-13_19h02.43.889,torte-2b,2020.1.3,MacIntel,60,12746,,,,,,,,,,,,,space,0,24,24,24,1,5,1.772,,,,,,,,,,,,,,,,,,,,,,,,,,,,,,,,,,,,,,,,,,,,,,
,,,,,,,,,,,,,,,,,,,,,,,20,Female,2020-09-13_19h02.43.889,torte-2b,2020.1.3,MacIntel,60,12746,,,,,,,,,,,,,space,0,25,25,25,1,6,0.124,,,,,,,,,,,,,,,,,,,,,,,,,,,,,,,,,,,,,,,,,,,,,,
,,,,,,,,,,,,,,,,,,,,,,,20,Female,2020-09-13_19h02.43.889,torte-2b,2020.1.3,MacIntel,60,12746,,,,,,,,,,,,,,0,26,26,26,1,6,,,,,,,,,,,,,,,,,,,,,,,,,,,,,,,,,,,,,,,,,,,,,,,
,,,,,,,,,,,,,,,,,,,,,,,20,Female,2020-09-13_19h02.43.889,torte-2b,2020.1.3,MacIntel,60,12746,,,,,,,,,,,,,space,0,27,27,27,1,6,0.759,,,,,,,,,,,,,,,,,,,,,,,,,,,,,,,,,,,,,,,,,,,,,,
,,,,,,,,,,,,,,,,,,,,,,,20,Female,2020-09-13_19h02.43.889,torte-2b,2020.1.3,MacIntel,60,12746,,,,,,,,,,,,,,0,28,28,28,1,5,,,,,,,,,,,,,,,,,,,,,,,,,,,,,,,,,,,,,,,,,,,,,,,
,,,,,,,,,,,,,,,,,,,,,,,20,Female,2020-09-13_19h02.43.889,torte-2b,2020.1.3,MacIntel,60,12746,,,,,,,,,,,,,,0,29,29,29,1,2,,,,,,,,,,,,,,,,,,,,,,,,,,,,,,,,,,,,,,,,,,,,,,,
,,,,,,,,,,,,,,,,,,,,,,,20,Female,2020-09-13_19h02.43.889,torte-2b,2020.1.3,MacIntel,60,12746,,,,,,,,,,,,,space,0,30,30,30,1,5,0.526,,,,,,,,,,,,,,,,,,,,,,,,,,,,,,,,,,,,,,,,,,,,,,
,,,,,,,,,,,,,,,,,,,,,,,20,Female,2020-09-13_19h02.43.889,torte-2b,2020.1.3,MacIntel,60,12746,,,,,,,,,,,,,space,0,31,31,31,1,2,0.568,,,,,,,,,,,,,,,,,,,,,,,,,,,,,,,,,,,,,,,,,,,,,,
,,,,,,,,,,,,,,,,,,,,,,,20,Female,2020-09-13_19h02.43.889,torte-2b,2020.1.3,MacIntel,60,12746,,,,,,,,,,,,,space,0,32,32,32,1,5,0.474,,,,,,,,,,,,,,,,,,,,,,,,,,,,,,,,,,,,,,,,,,,,,,
,,,,,,,,,,,,,,,,,,,,,,,20,Female,2020-09-13_19h02.43.889,torte-2b,2020.1.3,MacIntel,60,12746,,,,,,,,,,,,,,0,33,33,33,1,1,,,,,,,,,,,,,,,,,,,,,,,,,,,,,,,,,,,,,,,,,,,,,,,
,,,,,,,,,,,,,,,,,,,,,,,20,Female,2020-09-13_19h02.43.889,torte-2b,2020.1.3,MacIntel,60,12746,,,,,,,,,,,,,,0,34,34,34,1,1,,,,,,,,,,,,,,,,,,,,,,,,,,,,,,,,,,,,,,,,,,,,,,,
,,,,,,,,,,,,,,,,,,,,,,,20,Female,2020-09-13_19h02.43.889,torte-2b,2020.1.3,MacIntel,60,12746,,,,,,,,,,,,,,,,,,,2,,0,0,0,0,1,,,,,,,,,,,,,,,,,,,,,,,,,,,,,,,,,,,,,,,,,
,,,,,,,,,,,,,,,,,,,,,,,20,Female,2020-09-13_19h02.43.889,torte-2b,2020.1.3,MacIntel,60,12746,,,,,,,,,,,,,,,,,,,2,,0,1,1,1,1,,,,,,,,,,,,,,,,,,,,,,,,,,,,,,,,,,,,,,,,,
,,,,,,,,,,,,,,,,,,,,,,,20,Female,2020-09-13_19h02.43.889,torte-2b,2020.1.3,MacIntel,60,12746,,,,,,,,,,,,,,,,,,,6,,0,2,2,2,1,,,,,,,,,,,,,,,,,,,,,,,,,,,,,,,,,,,,,,,,,
,,,,,,,,,,,,,,,,,,,,,,,20,Female,2020-09-13_19h02.43.889,torte-2b,2020.1.3,MacIntel,60,12746,,,,,,,,,,,,,space,,,,,,2,0.441,0,3,3,3,1,,,,,,,,,,,,,,,,,,,,,,,,,,,,,,,,,,,,,,,,,
,,,,,,,,,,,,,,,,,,,,,,,20,Female,2020-09-13_19h02.43.889,torte-2b,2020.1.3,MacIntel,60,12746,,,,,,,,,,,,,space,,,,,,6,0.593,0,4,4,4,1,,,,,,,,,,,,,,,,,,,,,,,,,,,,,,,,,,,,,,,,,
,,,,,,,,,,,,,,,,,,,,,,,20,Female,2020-09-13_19h02.43.889,torte-2b,2020.1.3,MacIntel,60,12746,,,,,,,,,,,,,space,,,,,,2,0.423,0,5,5,5,1,,,,,,,,,,,,,,,,,,,,,,,,,,,,,,,,,,,,,,,,,
,,,,,,,,,,,,,,,,,,,,,,,20,Female,2020-09-13_19h02.43.889,torte-2b,2020.1.3,MacIntel,60,12746,,,,,,,,,,,,,,,,,,,7,,0,6,6,6,1,,,,,,,,,,,,,,,,,,,,,,,,,,,,,,,,,,,,,,,,,
,,,,,,,,,,,,,,,,,,,,,,,20,Female,2020-09-13_19h02.43.889,torte-2b,2020.1.3,MacIntel,60,12746,,,,,,,,,,,,,space,,,,,,2,0.389,0,7,7,7,1,,,,,,,,,,,,,,,,,,,,,,,,,,,,,,,,,,,,,,,,,
,,,,,,,,,,,,,,,,,,,,,,,20,Female,2020-09-13_19h02.43.889,torte-2b,2020.1.3,MacIntel,60,12746,,,,,,,,,,,,,space,,,,,,7,0.424,0,8,8,8,1,,,,,,,,,,,,,,,,,,,,,,,,,,,,,,,,,,,,,,,,,
,,,,,,,,,,,,,,,,,,,,,,,20,Female,2020-09-13_19h02.43.889,torte-2b,2020.1.3,MacIntel,60,12746,,,,,,,,,,,,,space,,,,,,2,0.474,0,9,9,9,1,,,,,,,,,,,,,,,,,,,,,,,,,,,,,,,,,,,,,,,,,
,,,,,,,,,,,,,,,,,,,,,,,20,Female,2020-09-13_19h02.43.889,torte-2b,2020.1.3,MacIntel,60,12746,,,,,,,,,,,,,,,,,,,5,,0,10,10,10,1,,,,,,,,,,,,,,,,,,,,,,,,,,,,,,,,,,,,,,,,,
,,,,,,,,,,,,,,,,,,,,,,,20,Female,2020-09-13_19h02.43.889,torte-2b,2020.1.3,MacIntel,60,12746,,,,,,,,,,,,,,,,,,,4,,0,11,11,11,1,,,,,,,,,,,,,,,,,,,,,,,,,,,,,,,,,,,,,,,,,
,,,,,,,,,,,,,,,,,,,,,,,20,Female,2020-09-13_19h02.43.889,torte-2b,2020.1.3,MacIntel,60,12746,,,,,,,,,,,,,space,,,,,,5,0.436,0,12,12,12,1,,,,,,,,,,,,,,,,,,,,,,,,,,,,,,,,,,,,,,,,,
,,,,,,,,,,,,,,,,,,,,,,,20,Female,2020-09-13_19h02.43.889,torte-2b,2020.1.3,MacIntel,60,12746,,,,,,,,,,,,,,,,,,,6,,0,13,13,13,1,,,,,,,,,,,,,,,,,,,,,,,,,,,,,,,,,,,,,,,,,
,,,,,,,,,,,,,,,,,,,,,,,20,Female,2020-09-13_19h02.43.889,torte-2b,2020.1.3,MacIntel,60,12746,,,,,,,,,,,,,space,,,,,,5,0.406,0,14,14,14,1,,,,,,,,,,,,,,,,,,,,,,,,,,,,,,,,,,,,,,,,,
,,,,,,,,,,,,,,,,,,,,,,,20,Female,2020-09-13_19h02.43.889,torte-2b,2020.1.3,MacIntel,60,12746,,,,,,,,,,,,,,,,,,,4,,0,15,15,15,1,,,,,,,,,,,,,,,,,,,,,,,,,,,,,,,,,,,,,,,,,
,,,,,,,,,,,,,,,,,,,,,,,20,Female,2020-09-13_19h02.43.889,torte-2b,2020.1.3,MacIntel,60,12746,,,,,,,,,,,,,space,,,,,,5,0.375,0,16,16,16,1,,,,,,,,,,,,,,,,,,,,,,,,,,,,,,,,,,,,,,,,,
,,,,,,,,,,,,,,,,,,,,,,,20,Female,2020-09-13_19h02.43.889,torte-2b,2020.1.3,MacIntel,60,12746,,,,,,,,,,,,,,,,,,,3,,0,17,17,17,1,,,,,,,,,,,,,,,,,,,,,,,,,,,,,,,,,,,,,,,,,
,,,,,,,,,,,,,,,,,,,,,,,20,Female,2020-09-13_19h02.43.889,torte-2b,2020.1.3,MacIntel,60,12746,,,,,,,,,,,,,,,,,,,6,,0,18,18,18,1,,,,,,,,,,,,,,,,,,,,,,,,,,,,,,,,,,,,,,,,,
,,,,,,,,,,,,,,,,,,,,,,,20,Female,2020-09-13_19h02.43.889,torte-2b,2020.1.3,MacIntel,60,12746,,,,,,,,,,,,,,,,,,,6,,0,19,19,19,1,,,,,,,,,,,,,,,,,,,,,,,,,,,,,,,,,,,,,,,,,
,,,,,,,,,,,,,,,,,,,,,,,20,Female,2020-09-13_19h02.43.889,torte-2b,2020.1.3,MacIntel,60,12746,,,,,,,,,,,,,space,,,,,,6,0.639,0,20,20,20,1,,,,,,,,,,,,,,,,,,,,,,,,,,,,,,,,,,,,,,,,,
,,,,,,,,,,,,,,,,,,,,,,,20,Female,2020-09-13_19h02.43.889,torte-2b,2020.1.3,MacIntel,60,12746,,,,,,,,,,,,,space,,,,,,4,0.95,0,21,21,21,1,,,,,,,,,,,,,,,,,,,,,,,,,,,,,,,,,,,,,,,,,
,,,,,,,,,,,,,,,,,,,,,,,20,Female,2020-09-13_19h02.43.889,torte-2b,2020.1.3,MacIntel,60,12746,,,,,,,,,,,,,space,,,,,,6,0.942,0,22,22,22,1,,,,,,,,,,,,,,,,,,,,,,,,,,,,,,,,,,,,,,,,,
,,,,,,,,,,,,,,,,,,,,,,,20,Female,2020-09-13_19h02.43.889,torte-2b,2020.1.3,MacIntel,60,12746,,,,,,,,,,,,,space,,,,,,4,0.628,0,23,23,23,1,,,,,,,,,,,,,,,,,,,,,,,,,,,,,,,,,,,,,,,,,
,,,,,,,,,,,,,,,,,,,,,,,20,Female,2020-09-13_19h02.43.889,torte-2b,2020.1.3,MacIntel,60,12746,,,,,,,,,,,,,space,,,,,,6,0.667,0,24,24,24,1,,,,,,,,,,,,,,,,,,,,,,,,,,,,,,,,,,,,,,,,,
,,,,,,,,,,,,,,,,,,,,,,,20,Female,2020-09-13_19h02.43.889,torte-2b,2020.1.3,MacIntel,60,12746,,,,,,,,,,,,,,,,,,,6,,0,25,25,25,1,,,,,,,,,,,,,,,,,,,,,,,,,,,,,,,,,,,,,,,,,
,,,,,,,,,,,,,,,,,,,,,,,20,Female,2020-09-13_19h02.43.889,torte-2b,2020.1.3,MacIntel,60,12746,,,,,,,,,,,,,space,,,,,,7,1.873,0,26,26,26,1,,,,,,,,,,,,,,,,,,,,,,,,,,,,,,,,,,,,,,,,,
,,,,,,,,,,,,,,,,,,,,,,,20,Female,2020-09-13_19h02.43.889,torte-2b,2020.1.3,MacIntel,60,12746,,,,,,,,,,,,,,,,,,,1,,0,27,27,27,1,,,,,,,,,,,,,,,,,,,,,,,,,,,,,,,,,,,,,,,,,
,,,,,,,,,,,,,,,,,,,,,,,20,Female,2020-09-13_19h02.43.889,torte-2b,2020.1.3,MacIntel,60,12746,,,,,,,,,,,,,space,,,,,,7,0.637,0,28,28,28,1,,,,,,,,,,,,,,,,,,,,,,,,,,,,,,,,,,,,,,,,,
,,,,,,,,,,,,,,,,,,,,,,,20,Female,2020-09-13_19h02.43.889,torte-2b,2020.1.3,MacIntel,60,12746,,,,,,,,,,,,,,,,,,,4,,0,29,29,29,1,,,,,,,,,,,,,,,,,,,,,,,,,,,,,,,,,,,,,,,,,
,,,,,,,,,,,,,,,,,,,,,,,20,Female,2020-09-13_19h02.43.889,torte-2b,2020.1.3,MacIntel,60,12746,,,,,,,,,,,,,space,,,,,,7,0.504,0,30,30,30,1,,,,,,,,,,,,,,,,,,,,,,,,,,,,,,,,,,,,,,,,,
,,,,,,,,,,,,,,,,,,,,,,,20,Female,2020-09-13_19h02.43.889,torte-2b,2020.1.3,MacIntel,60,12746,,,,,,,,,,,,,,,,,,,3,,0,31,31,31,1,,,,,,,,,,,,,,,,,,,,,,,,,,,,,,,,,,,,,,,,,
,,,,,,,,,,,,,,,,,,,,,,,20,Female,2020-09-13_19h02.43.889,torte-2b,2020.1.3,MacIntel,60,12746,,,,,,,,,,,,,,,,,,,2,,0,32,32,32,1,,,,,,,,,,,,,,,,,,,,,,,,,,,,,,,,,,,,,,,,,
,,,,,,,,,,,,,,,,,,,,,,,20,Female,2020-09-13_19h02.43.889,torte-2b,2020.1.3,MacIntel,60,12746,,,,,,,,,,,,,,,,,,,6,,0,33,33,33,1,,,,,,,,,,,,,,,,,,,,,,,,,,,,,,,,,,,,,,,,,
,,,,,,,,,,,,,,,,,,,,,,,20,Female,2020-09-13_19h02.43.889,torte-2b,2020.1.3,MacIntel,60,12746,,,,,,,,,,,,,,,,,,,3,,0,34,34,34,1,,,,,,,,,,,,,,,,,,,,,,,,,,,,,,,,,,,,,,,,,
,,,,,,,,,,,,,,,,,,,,,,,20,Female,2020-09-13_19h02.43.889,torte-2b,2020.1.3,MacIntel,60,12746,,,,,,,,,,,,,,,,,,,7,,,,,,,0,0,0,0,1,,,,,,,,,,,,,,,,,,,,,,,,,,,,,,,,,,,,
,,,,,,,,,,,,,,,,,,,,,,,20,Female,2020-09-13_19h02.43.889,torte-2b,2020.1.3,MacIntel,60,12746,,,,,,,,,,,,,,,,,,,5,,,,,,,0,1,1,1,1,,,,,,,,,,,,,,,,,,,,,,,,,,,,,,,,,,,,
,,,,,,,,,,,,,,,,,,,,,,,20,Female,2020-09-13_19h02.43.889,torte-2b,2020.1.3,MacIntel,60,12746,,,,,,,,,,,,,,,,,,,4,,,,,,,0,2,2,2,1,,,,,,,,,,,,,,,,,,,,,,,,,,,,,,,,,,,,
,,,,,,,,,,,,,,,,,,,,,,,20,Female,2020-09-13_19h02.43.889,torte-2b,2020.1.3,MacIntel,60,12746,,,,,,,,,,,,,space,,,,,,5,0.49,,,,,,0,3,3,3,1,,,,,,,,,,,,,,,,,,,,,,,,,,,,,,,,,,,,
,,,,,,,,,,,,,,,,,,,,,,,20,Female,2020-09-13_19h02.43.889,torte-2b,2020.1.3,MacIntel,60,12746,,,,,,,,,,,,,,,,,,,6,,,,,,,0,4,4,4,1,,,,,,,,,,,,,,,,,,,,,,,,,,,,,,,,,,,,
,,,,,,,,,,,,,,,,,,,,,,,20,Female,2020-09-13_19h02.43.889,torte-2b,2020.1.3,MacIntel,60,12746,,,,,,,,,,,,,space,,,,,,5,0.333,,,,,,0,5,5,5,1,,,,,,,,,,,,,,,,,,,,,,,,,,,,,,,,,,,,
,,,,,,,,,,,,,,,,,,,,,,,20,Female,2020-09-13_19h02.43.889,torte-2b,2020.1.3,MacIntel,60,12746,,,,,,,,,,,,,space,,,,,,3,1.96,,,,,,0,6,6,6,1,,,,,,,,,,,,,,,,,,,,,,,,,,,,,,,,,,,,
,,,,,,,,,,,,,,,,,,,,,,,20,Female,2020-09-13_19h02.43.889,torte-2b,2020.1.3,MacIntel,60,12746,,,,,,,,,,,,,space,,,,,,4,0.537,,,,,,0,7,7,7,1,,,,,,,,,,,,,,,,,,,,,,,,,,,,,,,,,,,,
,,,,,,,,,,,,,,,,,,,,,,,20,Female,2020-09-13_19h02.43.889,torte-2b,2020.1.3,MacIntel,60,12746,,,,,,,,,,,,,space,,,,,,3,0.608,,,,,,0,8,8,8,1,,,,,,,,,,,,,,,,,,,,,,,,,,,,,,,,,,,,
,,,,,,,,,,,,,,,,,,,,,,,20,Female,2020-09-13_19h02.43.889,torte-2b,2020.1.3,MacIntel,60,12746,,,,,,,,,,,,,,,,,,,1,,,,,,,0,9,9,9,1,,,,,,,,,,,,,,,,,,,,,,,,,,,,,,,,,,,,
,,,,,,,,,,,,,,,,,,,,,,,20,Female,2020-09-13_19h02.43.889,torte-2b,2020.1.3,MacIntel,60,12746,,,,,,,,,,,,,,,,,,,2,,,,,,,0,10,10,10,1,,,,,,,,,,,,,,,,,,,,,,,,,,,,,,,,,,,,
,,,,,,,,,,,,,,,,,,,,,,,20,Female,2020-09-13_19h02.43.889,torte-2b,2020.1.3,MacIntel,60,12746,,,,,,,,,,,,,space,,,,,,1,0.571,,,,,,0,11,11,11,1,,,,,,,,,,,,,,,,,,,,,,,,,,,,,,,,,,,,
,,,,,,,,,,,,,,,,,,,,,,,20,Female,2020-09-13_19h02.43.889,torte-2b,2020.1.3,MacIntel,60,12746,,,,,,,,,,,,,space,,,,,,2,0.693,,,,,,0,12,12,12,1,,,,,,,,,,,,,,,,,,,,,,,,,,,,,,,,,,,,
,,,,,,,,,,,,,,,,,,,,,,,20,Female,2020-09-13_19h02.43.889,torte-2b,2020.1.3,MacIntel,60,12746,,,,,,,,,,,,,space,,,,,,1,0.439,,,,,,0,13,13,13,1,,,,,,,,,,,,,,,,,,,,,,,,,,,,,,,,,,,,
,,,,,,,,,,,,,,,,,,,,,,,20,Female,2020-09-13_19h02.43.889,torte-2b,2020.1.3,MacIntel,60,12746,,,,,,,,,,,,,,,,,,,3,,,,,,,0,14,14,14,1,,,,,,,,,,,,,,,,,,,,,,,,,,,,,,,,,,,,
,,,,,,,,,,,,,,,,,,,,,,,20,Female,2020-09-13_19h02.43.889,torte-2b,2020.1.3,MacIntel,60,12746,,,,,,,,,,,,,space,,,,,,1,0.307,,,,,,0,15,15,15,1,,,,,,,,,,,,,,,,,,,,,,,,,,,,,,,,,,,,
,,,,,,,,,,,,,,,,,,,,,,,20,Female,2020-09-13_19h02.43.889,torte-2b,2020.1.3,MacIntel,60,12746,,,,,,,,,,,,,space,,,,,,7,0.555,,,,,,0,16,16,16,1,,,,,,,,,,,,,,,,,,,,,,,,,,,,,,,,,,,,
,,,,,,,,,,,,,,,,,,,,,,,20,Female,2020-09-13_19h02.43.889,torte-2b,2020.1.3,MacIntel,60,12746,,,,,,,,,,,,,space,,,,,,7,0.506,,,,,,0,17,17,17,1,,,,,,,,,,,,,,,,,,,,,,,,,,,,,,,,,,,,
,,,,,,,,,,,,,,,,,,,,,,,20,Female,2020-09-13_19h02.43.889,torte-2b,2020.1.3,MacIntel,60,12746,,,,,,,,,,,,,space,,,,,,4,0.909,,,,,,0,18,18,18,1,,,,,,,,,,,,,,,,,,,,,,,,,,,,,,,,,,,,
,,,,,,,,,,,,,,,,,,,,,,,20,Female,2020-09-13_19h02.43.889,torte-2b,2020.1.3,MacIntel,60,12746,,,,,,,,,,,,,space,,,,,,7,0.891,,,,,,0,19,19,19,1,,,,,,,,,,,,,,,,,,,,,,,,,,,,,,,,,,,,
,,,,,,,,,,,,,,,,,,,,,,,20,Female,2020-09-13_19h02.43.889,torte-2b,2020.1.3,MacIntel,60,12746,,,,,,,,,,,,,,,,,,,3,,,,,,,0,20,20,20,1,,,,,,,,,,,,,,,,,,,,,,,,,,,,,,,,,,,,
,,,,,,,,,,,,,,,,,,,,,,,20,Female,2020-09-13_19h02.43.889,torte-2b,2020.1.3,MacIntel,60,12746,,,,,,,,,,,,,space,,,,,,7,0.35,,,,,,0,21,21,21,1,,,,,,,,,,,,,,,,,,,,,,,,,,,,,,,,,,,,
,,,,,,,,,,,,,,,,,,,,,,,20,Female,2020-09-13_19h02.43.889,torte-2b,2020.1.3,MacIntel,60,12746,,,,,,,,,,,,,space,,,,,,3,0.324,,,,,,0,22,22,22,1,,,,,,,,,,,,,,,,,,,,,,,,,,,,,,,,,,,,
,,,,,,,,,,,,,,,,,,,,,,,20,Female,2020-09-13_19h02.43.889,torte-2b,2020.1.3,MacIntel,60,12746,,,,,,,,,,,,,,,,,,,1,,,,,,,0,23,23,23,1,,,,,,,,,,,,,,,,,,,,,,,,,,,,,,,,,,,,
,,,,,,,,,,,,,,,,,,,,,,,20,Female,2020-09-13_19h02.43.889,torte-2b,2020.1.3,MacIntel,60,12746,,,,,,,,,,,,,,,,,,,6,,,,,,,0,24,24,24,1,,,,,,,,,,,,,,,,,,,,,,,,,,,,,,,,,,,,
,,,,,,,,,,,,,,,,,,,,,,,20,Female,2020-09-13_19h02.43.889,torte-2b,2020.1.3,MacIntel,60,12746,,,,,,,,,,,,,space,,,,,,3,0.493,,,,,,0,25,25,25,1,,,,,,,,,,,,,,,,,,,,,,,,,,,,,,,,,,,,
,,,,,,,,,,,,,,,,,,,,,,,20,Female,2020-09-13_19h02.43.889,torte-2b,2020.1.3,MacIntel,60,12746,,,,,,,,,,,,,,,,,,,2,,,,,,,0,26,26,26,1,,,,,,,,,,,,,,,,,,,,,,,,,,,,,,,,,,,,
,,,,,,,,,,,,,,,,,,,,,,,20,Female,2020-09-13_19h02.43.889,torte-2b,2020.1.3,MacIntel,60,12746,,,,,,,,,,,,,space,,,,,,3,0.439,,,,,,0,27,27,27,1,,,,,,,,,,,,,,,,,,,,,,,,,,,,,,,,,,,,
,,,,,,,,,,,,,,,,,,,,,,,20,Female,2020-09-13_19h02.43.889,torte-2b,2020.1.3,MacIntel,60,12746,,,,,,,,,,,,,space,,,,,,1,0.556,,,,,,0,28,28,28,1,,,,,,,,,,,,,,,,,,,,,,,,,,,,,,,,,,,,
,,,,,,,,,,,,,,,,,,,,,,,20,Female,2020-09-13_19h02.43.889,torte-2b,2020.1.3,MacIntel,60,12746,,,,,,,,,,,,,space,,,,,,3,0.289,,,,,,0,29,29,29,1,,,,,,,,,,,,,,,,,,,,,,,,,,,,,,,,,,,,
,,,,,,,,,,,,,,,,,,,,,,,20,Female,2020-09-13_19h02.43.889,torte-2b,2020.1.3,MacIntel,60,12746,,,,,,,,,,,,,space,,,,,,1,0.324,,,,,,0,30,30,30,1,,,,,,,,,,,,,,,,,,,,,,,,,,,,,,,,,,,,
,,,,,,,,,,,,,,,,,,,,,,,20,Female,2020-09-13_19h02.43.889,torte-2b,2020.1.3,MacIntel,60,12746,,,,,,,,,,,,,,,,,,,7,,,,,,,0,31,31,31,1,,,,,,,,,,,,,,,,,,,,,,,,,,,,,,,,,,,,
,,,,,,,,,,,,,,,,,,,,,,,20,Female,2020-09-13_19h02.43.889,torte-2b,2020.1.3,MacIntel,60,12746,,,,,,,,,,,,,space,,,,,,5,0.372,,,,,,0,32,32,32,1,,,,,,,,,,,,,,,,,,,,,,,,,,,,,,,,,,,,
,,,,,,,,,,,,,,,,,,,,,,,20,Female,2020-09-13_19h02.43.889,torte-2b,2020.1.3,MacIntel,60,12746,,,,,,,,,,,,,space,,,,,,7,0.553,,,,,,0,33,33,33,1,,,,,,,,,,,,,,,,,,,,,,,,,,,,,,,,,,,,
,,,,,,,,,,,,,,,,,,,,,,,20,Female,2020-09-13_19h02.43.889,torte-2b,2020.1.3,MacIntel,60,12746,,,,,,,,,,,,,space,,,,,,2,0.574,,,,,,0,34,34,34,1,,,,,,,,,,,,,,,,,,,,,,,,,,,,,,,,,,,,
,,,,,,,,,,,,,,,,,,,,,,,20,Female,2020-09-13_19h02.43.889,torte-2b,2020.1.3,MacIntel,60,12746,,,,,,,,,,,,,,,,,,,3,,,,,,,,,,,,0,0,0,0,1,,,,,,,,,,,,,,,,,,,,,,,,,,,,,,,
,,,,,,,,,,,,,,,,,,,,,,,20,Female,2020-09-13_19h02.43.889,torte-2b,2020.1.3,MacIntel,60,12746,,,,,,,,,,,,,,,,,,,7,,,,,,,,,,,,0,1,1,1,1,,,,,,,,,,,,,,,,,,,,,,,,,,,,,,,
,,,,,,,,,,,,,,,,,,,,,,,20,Female,2020-09-13_19h02.43.889,torte-2b,2020.1.3,MacIntel,60,12746,,,,,,,,,,,,,space,,,,,,7,0.451,,,,,,,,,,,0,2,2,2,1,,,,,,,,,,,,,,,,,,,,,,,,,,,,,,,
,,,,,,,,,,,,,,,,,,,,,,,20,Female,2020-09-13_19h02.43.889,torte-2b,2020.1.3,MacIntel,60,12746,,,,,,,,,,,,,space,,,,,,4,0.559,,,,,,,,,,,0,3,3,3,1,,,,,,,,,,,,,,,,,,,,,,,,,,,,,,,
,,,,,,,,,,,,,,,,,,,,,,,20,Female,2020-09-13_19h02.43.889,torte-2b,2020.1.3,MacIntel,60,12746,,,,,,,,,,,,,,,,,,,5,,,,,,,,,,,,0,4,4,4,1,,,,,,,,,,,,,,,,,,,,,,,,,,,,,,,
,,,,,,,,,,,,,,,,,,,,,,,20,Female,2020-09-13_19h02.43.889,torte-2b,2020.1.3,MacIntel,60,12746,,,,,,,,,,,,,,,,,,,4,,,,,,,,,,,,0,5,5,5,1,,,,,,,,,,,,,,,,,,,,,,,,,,,,,,,
,,,,,,,,,,,,,,,,,,,,,,,20,Female,2020-09-13_19h02.43.889,torte-2b,2020.1.3,MacIntel,60,12746,,,,,,,,,,,,,,,,,,,2,,,,,,,,,,,,0,6,6,6,1,,,,,,,,,,,,,,,,,,,,,,,,,,,,,,,
,,,,,,,,,,,,,,,,,,,,,,,20,Female,2020-09-13_19h02.43.889,torte-2b,2020.1.3,MacIntel,60,12746,,,,,,,,,,,,,space,,,,,,4,0.371,,,,,,,,,,,0,7,7,7,1,,,,,,,,,,,,,,,,,,,,,,,,,,,,,,,
,,,,,,,,,,,,,,,,,,,,,,,20,Female,2020-09-13_19h02.43.889,torte-2b,2020.1.3,MacIntel,60,12746,,,,,,,,,,,,,space,,,,,,2,0.557,,,,,,,,,,,0,8,8,8,1,,,,,,,,,,,,,,,,,,,,,,,,,,,,,,,
,,,,,,,,,,,,,,,,,,,,,,,20,Female,2020-09-13_19h02.43.889,torte-2b,2020.1.3,MacIntel,60,12746,,,,,,,,,,,,,space,,,,,,2,0.541,,,,,,,,,,,0,9,9,9,1,,,,,,,,,,,,,,,,,,,,,,,,,,,,,,,
,,,,,,,,,,,,,,,,,,,,,,,20,Female,2020-09-13_19h02.43.889,torte-2b,2020.1.3,MacIntel,60,12746,,,,,,,,,,,,,,,,,,,6,,,,,,,,,,,,0,10,10,10,1,,,,,,,,,,,,,,,,,,,,,,,,,,,,,,,
,,,,,,,,,,,,,,,,,,,,,,,20,Female,2020-09-13_19h02.43.889,torte-2b,2020.1.3,MacIntel,60,12746,,,,,,,,,,,,,space,,,,,,2,0.726,,,,,,,,,,,0,11,11,11,1,,,,,,,,,,,,,,,,,,,,,,,,,,,,,,,
,,,,,,,,,,,,,,,,,,,,,,,20,Female,2020-09-13_19h02.43.889,torte-2b,2020.1.3,MacIntel,60,12746,,,,,,,,,,,,,space,,,,,,2,0.573,,,,,,,,,,,0,12,12,12,1,,,,,,,,,,,,,,,,,,,,,,,,,,,,,,,
,,,,,,,,,,,,,,,,,,,,,,,20,Female,2020-09-13_19h02.43.889,torte-2b,2020.1.3,MacIntel,60,12746,,,,,,,,,,,,,space,,,,,,2,0.913,,,,,,,,,,,0,13,13,13,1,,,,,,,,,,,,,,,,,,,,,,,,,,,,,,,
,,,,,,,,,,,,,,,,,,,,,,,20,Female,2020-09-13_19h02.43.889,torte-2b,2020.1.3,MacIntel,60,12746,,,,,,,,,,,,,,,,,,,2,,,,,,,,,,,,0,14,14,14,1,,,,,,,,,,,,,,,,,,,,,,,,,,,,,,,
,,,,,,,,,,,,,,,,,,,,,,,20,Female,2020-09-13_19h02.43.889,torte-2b,2020.1.3,MacIntel,60,12746,,,,,,,,,,,,,space,,,,,,4,0.103,,,,,,,,,,,0,15,15,15,1,,,,,,,,,,,,,,,,,,,,,,,,,,,,,,,
,,,,,,,,,,,,,,,,,,,,,,,20,Female,2020-09-13_19h02.43.889,torte-2b,2020.1.3,MacIntel,60,12746,,,,,,,,,,,,,,,,,,,3,,,,,,,,,,,,0,16,16,16,1,,,,,,,,,,,,,,,,,,,,,,,,,,,,,,,
,,,,,,,,,,,,,,,,,,,,,,,20,Female,2020-09-13_19h02.43.889,torte-2b,2020.1.3,MacIntel,60,12746,,,,,,,,,,,,,space,,,,,,7,1.21,,,,,,,,,,,0,17,17,17,1,,,,,,,,,,,,,,,,,,,,,,,,,,,,,,,
,,,,,,,,,,,,,,,,,,,,,,,20,Female,2020-09-13_19h02.43.889,torte-2b,2020.1.3,MacIntel,60,12746,,,,,,,,,,,,,space,,,,,,4,0.37,,,,,,,,,,,0,18,18,18,1,,,,,,,,,,,,,,,,,,,,,,,,,,,,,,,
,,,,,,,,,,,,,,,,,,,,,,,20,Female,2020-09-13_19h02.43.889,torte-2b,2020.1.3,MacIntel,60,12746,,,,,,,,,,,,,space,,,,,,7,1.192,,,,,,,,,,,0,19,19,19,1,,,,,,,,,,,,,,,,,,,,,,,,,,,,,,,
,,,,,,,,,,,,,,,,,,,,,,,20,Female,2020-09-13_19h02.43.889,torte-2b,2020.1.3,MacIntel,60,12746,,,,,,,,,,,,,,,,,,,7,,,,,,,,,,,,0,20,20,20,1,,,,,,,,,,,,,,,,,,,,,,,,,,,,,,,
,,,,,,,,,,,,,,,,,,,,,,,20,Female,2020-09-13_19h02.43.889,torte-2b,2020.1.3,MacIntel,60,12746,,,,,,,,,,,,,space,,,,,,7,0.327,,,,,,,,,,,0,21,21,21,1,,,,,,,,,,,,,,,,,,,,,,,,,,,,,,,
,,,,,,,,,,,,,,,,,,,,,,,20,Female,2020-09-13_19h02.43.889,torte-2b,2020.1.3,MacIntel,60,12746,,,,,,,,,,,,,,,,,,,7,,,,,,,,,,,,0,22,22,22,1,,,,,,,,,,,,,,,,,,,,,,,,,,,,,,,
,,,,,,,,,,,,,,,,,,,,,,,20,Female,2020-09-13_19h02.43.889,torte-2b,2020.1.3,MacIntel,60,12746,,,,,,,,,,,,,,,,,,,1,,,,,,,,,,,,0,23,23,23,1,,,,,,,,,,,,,,,,,,,,,,,,,,,,,,,
,,,,,,,,,,,,,,,,,,,,,,,20,Female,2020-09-13_19h02.43.889,torte-2b,2020.1.3,MacIntel,60,12746,,,,,,,,,,,,,,,,,,,7,,,,,,,,,,,,0,24,24,24,1,,,,,,,,,,,,,,,,,,,,,,,,,,,,,,,
,,,,,,,,,,,,,,,,,,,,,,,20,Female,2020-09-13_19h02.43.889,torte-2b,2020.1.3,MacIntel,60,12746,,,,,,,,,,,,,space,,,,,,1,0.309,,,,,,,,,,,0,25,25,25,1,,,,,,,,,,,,,,,,,,,,,,,,,,,,,,,
,,,,,,,,,,,,,,,,,,,,,,,20,Female,2020-09-13_19h02.43.889,torte-2b,2020.1.3,MacIntel,60,12746,,,,,,,,,,,,,space,,,,,,7,1.909,,,,,,,,,,,0,26,26,26,1,,,,,,,,,,,,,,,,,,,,,,,,,,,,,,,
,,,,,,,,,,,,,,,,,,,,,,,20,Female,2020-09-13_19h02.43.889,torte-2b,2020.1.3,MacIntel,60,12746,,,,,,,,,,,,,,,,,,,2,,,,,,,,,,,,0,27,27,27,1,,,,,,,,,,,,,,,,,,,,,,,,,,,,,,,
,,,,,,,,,,,,,,,,,,,,,,,20,Female,2020-09-13_19h02.43.889,torte-2b,2020.1.3,MacIntel,60,12746,,,,,,,,,,,,,,,,,,,5,,,,,,,,,,,,0,28,28,28,1,,,,,,,,,,,,,,,,,,,,,,,,,,,,,,,
,,,,,,,,,,,,,,,,,,,,,,,20,Female,2020-09-13_19h02.43.889,torte-2b,2020.1.3,MacIntel,60,12746,,,,,,,,,,,,,,,,,,,5,,,,,,,,,,,,0,29,29,29,1,,,,,,,,,,,,,,,,,,,,,,,,,,,,,,,
,,,,,,,,,,,,,,,,,,,,,,,20,Female,2020-09-13_19h02.43.889,torte-2b,2020.1.3,MacIntel,60,12746,,,,,,,,,,,,,space,,,,,,5,0.524,,,,,,,,,,,0,30,30,30,1,,,,,,,,,,,,,,,,,,,,,,,,,,,,,,,
,,,,,,,,,,,,,,,,,,,,,,,20,Female,2020-09-13_19h02.43.889,torte-2b,2020.1.3,MacIntel,60,12746,,,,,,,,,,,,,space,,,,,,1,0.425,,,,,,,,,,,0,31,31,31,1,,,,,,,,,,,,,,,,,,,,,,,,,,,,,,,
,,,,,,,,,,,,,,,,,,,,,,,20,Female,2020-09-13_19h02.43.889,torte-2b,2020.1.3,MacIntel,60,12746,,,,,,,,,,,,,space,,,,,,5,0.842,,,,,,,,,,,0,32,32,32,1,,,,,,,,,,,,,,,,,,,,,,,,,,,,,,,
,,,,,,,,,,,,,,,,,,,,,,,20,Female,2020-09-13_19h02.43.889,torte-2b,2020.1.3,MacIntel,60,12746,,,,,,,,,,,,,,,,,,,3,,,,,,,,,,,,0,33,33,33,1,,,,,,,,,,,,,,,,,,,,,,,,,,,,,,,
,,,,,,,,,,,,,,,,,,,,,,,20,Female,2020-09-13_19h02.43.889,torte-2b,2020.1.3,MacIntel,60,12746,,,,,,,,,,,,,space,,,,,,3,0.635,,,,,,,,,,,0,34,34,34,1,,,,,,,,,,,,,,,,,,,,,,,,,,,,,,,
,,,,,,,,,,,,l,Incorrect,,,,,,t3.png,t4.png,1,0.90855,20,Female,2020-09-13_19h02.43.889,torte-2b,2020.1.3,MacIntel,60,12746,0.622,space,4.77,,,,,,,,,,,,,,,,,,,,,,,,,,,,,,,,,b,0.152,0,0,0,84,1,,,,,,,,,,,,,,,,,,,,,,,,
,,,,,,,,,,,,l,Correct!,,,,,,t1.png,t4.png,3,0.0000131,20,Female,2020-09-13_19h02.43.889,torte-2b,2020.1.3,MacIntel,60,12746,0.457,,,,,,,,,,,,,,,,,,,,,,,,,,,,,,,,,,,,,0,1,1,81,1,,,,,,,,,,,,,,,,,,,,,,,,
,,,,,,,,,,,,a,Correct!,,,,,,t5.png,t4.png,1,0.90025,20,Female,2020-09-13_19h02.43.889,torte-2b,2020.1.3,MacIntel,60,12746,0.325,,,,,,,,,,,,,,,,,,,,,,,,,,,,,,,,,,,,,0,2,2,34,1,,,,,,,,,,,,,,,,,,,,,,,,
,,,,,,,,,,,,l,Incorrect,,,,,,t3.png,t4.png,1,0.90855,20,Female,2020-09-13_19h02.43.889,torte-2b,2020.1.3,MacIntel,60,12746,0.406,,,,,,,,,,,,,,,,,,,,,,,,,,,,,,,,,,,,,0,3,3,96,1,,,,,,,,,,,,,,,,,,,,,,,,
,,,,,,,,,,,,l,Correct!,,,,,,t5.png,t2.png,3,0.0000131,20,Female,2020-09-13_19h02.43.889,torte-2b,2020.1.3,MacIntel,60,12746,0.46,,,,,,,,,,,,,,,,,,,,,,,,,,,,,,,,,,,,,0,4,4,51,1,,,,,,,,,,,,,,,,,,,,,,,,
,,,,,,,,,,,,a,Correct!,,,,,,t5.png,t5.png,0,0.97829,20,Female,2020-09-13_19h02.43.889,torte-2b,2020.1.3,MacIntel,60,12746,0.623,,,,,,,,,,,,,,,,,,,,,,,,,,,,,,,,,,,,,0,5,5,73,1,,,,,,,,,,,,,,,,,,,,,,,,
,,,,,,,,,,,,l,Correct!,,,,,,t4.png,t3.png,1,0.909,20,Female,2020-09-13_19h02.43.889,torte-2b,2020.1.3,MacIntel,60,12746,0.605,,,,,,,,,,,,,,,,,,,,,,,,,,,,,,,,,,,,,0,6,6,20,1,,,,,,,,,,,,,,,,,,,,,,,,
,,,,,,,,,,,,a,Incorrect,,,,,,t5.png,t3.png,2,0.056466,20,Female,2020-09-13_19h02.43.889,torte-2b,2020.1.3,MacIntel,60,12746,0.572,,,,,,,,,,,,,,,,,,,,,,,,,,,,,,,,,,,,,0,7,7,114,1,,,,,,,,,,,,,,,,,,,,,,,,
,,,,,,,,,,,,l,Correct!,,,,,,t1.png,t5.png,4,9.55E-11,20,Female,2020-09-13_19h02.43.889,torte-2b,2020.1.3,MacIntel,60,12746,0.534,,,,,,,,,,,,,,,,,,,,,,,,,,,,,,,,,,,,,0,8,8,85,1,,,,,,,,,,,,,,,,,,,,,,,,
,,,,,,,,,,,,l,Incorrect,,,,,,t1.png,t1.png,0,0.978,20,Female,2020-09-13_19h02.43.889,torte-2b,2020.1.3,MacIntel,60,12746,0.824,,,,,,,,,,,,,,,,,,,,,,,,,,,,,,,,,,,,,0,9,9,28,1,,,,,,,,,,,,,,,,,,,,,,,,
,,,,,,,,,,,,a,Incorrect,,,,,,t3.png,t5.png,2,0.056466,20,Female,2020-09-13_19h02.43.889,torte-2b,2020.1.3,MacIntel,60,12746,0.289,,,,,,,,,,,,,,,,,,,,,,,,,,,,,,,,,,,,,0,10,10,14,1,,,,,,,,,,,,,,,,,,,,,,,,
,,,,,,,,,,,,l,Correct!,,,,,,t1.png,t5.png,4,9.55E-11,20,Female,2020-09-13_19h02.43.889,torte-2b,2020.1.3,MacIntel,60,12746,0.419,,,,,,,,,,,,,,,,,,,,,,,,,,,,,,,,,,,,,0,11,11,12,1,,,,,,,,,,,,,,,,,,,,,,,,
,,,,,,,,,,,,l,Correct!,,,,,,t1.png,t3.png,2,0.056466,20,Female,2020-09-13_19h02.43.889,torte-2b,2020.1.3,MacIntel,60,12746,0.701,,,,,,,,,,,,,,,,,,,,,,,,,,,,,,,,,,,,,0,12,12,99,1,,,,,,,,,,,,,,,,,,,,,,,,
,,,,,,,,,,,,l,Incorrect,,,,,,t4.png,t3.png,1,0.909,20,Female,2020-09-13_19h02.43.889,torte-2b,2020.1.3,MacIntel,60,12746,0.372,,,,,,,,,,,,,,,,,,,,,,,,,,,,,,,,,,,,,0,13,13,46,1,,,,,,,,,,,,,,,,,,,,,,,,
,,,,,,,,,,,,l,Correct!,,,,,,t2.png,t4.png,2,0.059078,20,Female,2020-09-13_19h02.43.889,torte-2b,2020.1.3,MacIntel,60,12746,0.34,,,,,,,,,,,,,,,,,,,,,,,,,,,,,,,,,,,,,0,14,14,24,1,,,,,,,,,,,,,,,,,,,,,,,,
,,,,,,,,,,,,l,Correct!,,,,,,t2.png,t4.png,2,0.059078,20,Female,2020-09-13_19h02.43.889,torte-2b,2020.1.3,MacIntel,60,12746,0.399,,,,,,,,,,,,,,,,,,,,,,,,,,,,,,,,,,,,,0,15,15,11,1,,,,,,,,,,,,,,,,,,,,,,,,
,,,,,,,,,,,,l,Correct!,,,,,,t3.png,t5.png,2,0.0565,20,Female,2020-09-13_19h02.43.889,torte-2b,2020.1.3,MacIntel,60,12746,0.337,,,,,,,,,,,,,,,,,,,,,,,,,,,,,,,,,,,,,0,16,16,83,1,,,,,,,,,,,,,,,,,,,,,,,,
,,,,,,,,,,,,a,Correct!,,,,,,t2.png,t1.png,1,0.90025,20,Female,2020-09-13_19h02.43.889,torte-2b,2020.1.3,MacIntel,60,12746,0.457,,,,,,,,,,,,,,,,,,,,,,,,,,,,,,,,,,,,,0,17,17,4,1,,,,,,,,,,,,,,,,,,,,,,,,
,,,,,,,,,,,,a,Incorrect,,,,,,t4.png,t1.png,3,0.0000131,20,Female,2020-09-13_19h02.43.889,torte-2b,2020.1.3,MacIntel,60,12746,0.489,,,,,,,,,,,,,,,,,,,,,,,,,,,,,,,,,,,,,0,18,18,13,1,,,,,,,,,,,,,,,,,,,,,,,,
,,,,,,,,,,,,l,Correct!,,,,,,t2.png,t5.png,3,0.0000131,20,Female,2020-09-13_19h02.43.889,torte-2b,2020.1.3,MacIntel,60,12746,0.539,,,,,,,,,,,,,,,,,,,,,,,,,,,,,,,,,,,,,0,19,19,95,1,,,,,,,,,,,,,,,,,,,,,,,,
,,,,,,,,,,,,a,Incorrect,,,,,,t4.png,t1.png,3,0.0000131,20,Female,2020-09-13_19h02.43.889,torte-2b,2020.1.3,MacIntel,60,12746,0.374,,,,,,,,,,,,,,,,,,,,,,,,,,,,,,,,,,,,,0,20,20,48,1,,,,,,,,,,,,,,,,,,,,,,,,
,,,,,,,,,,,,a,Correct!,,,,,,t4.png,t4.png,0,0.98115,20,Female,2020-09-13_19h02.43.889,torte-2b,2020.1.3,MacIntel,60,12746,0.458,,,,,,,,,,,,,,,,,,,,,,,,,,,,,,,,,,,,,0,21,21,21,1,,,,,,,,,,,,,,,,,,,,,,,,
,,,,,,,,,,,,l,Incorrect,,,,,,t5.png,t5.png,0,0.97829,20,Female,2020-09-13_19h02.43.889,torte-2b,2020.1.3,MacIntel,60,12746,0.641,,,,,,,,,,,,,,,,,,,,,,,,,,,,,,,,,,,,,0,22,22,94,1,,,,,,,,,,,,,,,,,,,,,,,,
,,,,,,,,,,,,a,Incorrect,,,,,,t4.png,t2.png,2,0.059078,20,Female,2020-09-13_19h02.43.889,torte-2b,2020.1.3,MacIntel,60,12746,0.439,,,,,,,,,,,,,,,,,,,,,,,,,,,,,,,,,,,,,0,23,23,109,1,,,,,,,,,,,,,,,,,,,,,,,,
,,,,,,,,,,,,l,Incorrect,,,,,,t1.png,t2.png,1,0.90025,20,Female,2020-09-13_19h02.43.889,torte-2b,2020.1.3,MacIntel,60,12746,0.64,,,,,,,,,,,,,,,,,,,,,,,,,,,,,,,,,,,,,0,24,24,33,1,,,,,,,,,,,,,,,,,,,,,,,,
,,,,,,,,,,,,a,Correct!,,,,,,t4.png,t5.png,1,0.90025,20,Female,2020-09-13_19h02.43.889,torte-2b,2020.1.3,MacIntel,60,12746,0.373,,,,,,,,,,,,,,,,,,,,,,,,,,,,,,,,,,,,,0,25,25,58,1,,,,,,,,,,,,,,,,,,,,,,,,
,,,,,,,,,,,,a,Correct!,,,,,,t1.png,t1.png,0,0.978,20,Female,2020-09-13_19h02.43.889,torte-2b,2020.1.3,MacIntel,60,12746,0.539,,,,,,,,,,,,,,,,,,,,,,,,,,,,,,,,,,,,,0,26,26,54,1,,,,,,,,,,,,,,,,,,,,,,,,
,,,,,,,,,,,,l,Correct!,,,,,,t1.png,t3.png,2,0.056466,20,Female,2020-09-13_19h02.43.889,torte-2b,2020.1.3,MacIntel,60,12746,0.873,,,,,,,,,,,,,,,,,,,,,,,,,,,,,,,,,,,,,0,27,27,87,1,,,,,,,,,,,,,,,,,,,,,,,,
,,,,,,,,,,,,l,Correct!,,,,,,t3.png,t5.png,2,0.056466,20,Female,2020-09-13_19h02.43.889,torte-2b,2020.1.3,MacIntel,60,12746,1.144,,,,,,,,,,,,,,,,,,,,,,,,,,,,,,,,,,,,,0,28,28,44,1,,,,,,,,,,,,,,,,,,,,,,,,
,,,,,,,,,,,,a,Incorrect,,,,,,t5.png,t2.png,3,0.0000131,20,Female,2020-09-13_19h02.43.889,torte-2b,2020.1.3,MacIntel,60,12746,0.491,,,,,,,,,,,,,,,,,,,,,,,,,,,,,,,,,,,,,0,29,29,98,1,,,,,,,,,,,,,,,,,,,,,,,,
,,,,,,,,,,,,a,Incorrect,,,,,,t4.png,t1.png,3,0.0000131,20,Female,2020-09-13_19h02.43.889,torte-2b,2020.1.3,MacIntel,60,12746,0.804,,,,,,,,,,,,,,,,,,,,,,,,,,,,,,,,,,,,,0,30,30,61,1,,,,,,,,,,,,,,,,,,,,,,,,
,,,,,,,,,,,,l,Correct!,,,,,,t4.png,t5.png,1,0.90025,20,Female,2020-09-13_19h02.43.889,torte-2b,2020.1.3,MacIntel,60,12746,0.467,,,,,,,,,,,,,,,,,,,,,,,,,,,,,,,,,,,,,0,31,31,103,1,,,,,,,,,,,,,,,,,,,,,,,,
,,,,,,,,,,,,l,Incorrect,,,,,,t2.png,t1.png,1,0.90025,20,Female,2020-09-13_19h02.43.889,torte-2b,2020.1.3,MacIntel,60,12746,0.472,,,,,,,,,,,,,,,,,,,,,,,,,,,,,,,,,,,,,0,32,32,19,1,,,,,,,,,,,,,,,,,,,,,,,,
,,,,,,,,,,,,a,Incorrect,,,,,,t4.png,t2.png,2,0.0591,20,Female,2020-09-13_19h02.43.889,torte-2b,2020.1.3,MacIntel,60,12746,0.425,,,,,,,,,,,,,,,,,,,,,,,,,,,,,,,,,,,,,0,33,33,36,1,,,,,,,,,,,,,,,,,,,,,,,,
,,,,,,,,,,,,l,Correct!,,,,,,t1.png,t4.png,3,0.0000131,20,Female,2020-09-13_19h02.43.889,torte-2b,2020.1.3,MacIntel,60,12746,0.405,,,,,,,,,,,,,,,,,,,,,,,,,,,,,,,,,,,,,0,34,34,17,1,,,,,,,,,,,,,,,,,,,,,,,,
,,,,,,,,,,,,l,Incorrect,,,,,,t1.png,t2.png,1,0.90025,20,Female,2020-09-13_19h02.43.889,torte-2b,2020.1.3,MacIntel,60,12746,0.527,,,,,,,,,,,,,,,,,,,,,,,,,,,,,,,,,,,,,0,35,35,72,1,,,,,,,,,,,,,,,,,,,,,,,,
,,,,,,,,,,,,a,Incorrect,,,,,,t2.png,t4.png,2,0.059078,20,Female,2020-09-13_19h02.43.889,torte-2b,2020.1.3,MacIntel,60,12746,0.779,,,,,,,,,,,,,,,,,,,,,,,,,,,,,,,,,,,,,0,36,36,37,1,,,,,,,,,,,,,,,,,,,,,,,,
,,,,,,,,,,,,l,Incorrect,,,,,,t1.png,t2.png,1,0.9,20,Female,2020-09-13_19h02.43.889,torte-2b,2020.1.3,MacIntel,60,12746,0.393,,,,,,,,,,,,,,,,,,,,,,,,,,,,,,,,,,,,,0,37,37,1,1,,,,,,,,,,,,,,,,,,,,,,,,
,,,,,,,,,,,,a,Incorrect,,,,,,t5.png,t2.png,3,0.0000131,20,Female,2020-09-13_19h02.43.889,torte-2b,2020.1.3,MacIntel,60,12746,0.424,,,,,,,,,,,,,,,,,,,,,,,,,,,,,,,,,,,,,0,38,38,116,1,,,,,,,,,,,,,,,,,,,,,,,,
,,,,,,,,,,,,a,Incorrect,,,,,,t5.png,t3.png,2,0.056466,20,Female,2020-09-13_19h02.43.889,torte-2b,2020.1.3,MacIntel,60,12746,0.473,,,,,,,,,,,,,,,,,,,,,,,,,,,,,,,,,,,,,0,39,39,56,1,,,,,,,,,,,,,,,,,,,,,,,,
,,,,,,,,,,,,l,Incorrect,,,,,,t4.png,t5.png,1,0.90025,20,Female,2020-09-13_19h02.43.889,torte-2b,2020.1.3,MacIntel,60,12746,0.718,,,,,,,,,,,,,,,,,,,,,,,,,,,,,,,,,,,,,0,40,40,47,1,,,,,,,,,,,,,,,,,,,,,,,,
,,,,,,,,,,,,l,Incorrect,,,,,,t2.png,t3.png,1,0.90855,20,Female,2020-09-13_19h02.43.889,torte-2b,2020.1.3,MacIntel,60,12746,0.793,,,,,,,,,,,,,,,,,,,,,,,,,,,,,,,,,,,,,0,41,41,10,1,,,,,,,,,,,,,,,,,,,,,,,,
,,,,,,,,,,,,a,Correct!,,,,,,t5.png,t4.png,1,0.9,20,Female,2020-09-13_19h02.43.889,torte-2b,2020.1.3,MacIntel,60,12746,0.424,,,,,,,,,,,,,,,,,,,,,,,,,,,,,,,,,,,,,0,42,42,76,1,,,,,,,,,,,,,,,,,,,,,,,,
,,,,,,,,,,,,l,Correct!,,,,,,t1.png,t4.png,3,0.0000131,20,Female,2020-09-13_19h02.43.889,torte-2b,2020.1.3,MacIntel,60,12746,0.542,,,,,,,,,,,,,,,,,,,,,,,,,,,,,,,,,,,,,0,43,43,50,1,,,,,,,,,,,,,,,,,,,,,,,,
,,,,,,,,,,,,l,Incorrect,,,,,,t2.png,t2.png,0,0.981,20,Female,2020-09-13_19h02.43.889,torte-2b,2020.1.3,MacIntel,60,12746,0.686,,,,,,,,,,,,,,,,,,,,,,,,,,,,,,,,,,,,,0,44,44,101,1,,,,,,,,,,,,,,,,,,,,,,,,
,,,,,,,,,,,,l,Incorrect,,,,,,t2.png,t2.png,0,0.98115,20,Female,2020-09-13_19h02.43.889,torte-2b,2020.1.3,MacIntel,60,12746,0.357,,,,,,,,,,,,,,,,,,,,,,,,,,,,,,,,,,,,,0,45,45,57,1,,,,,,,,,,,,,,,,,,,,,,,,
,,,,,,,,,,,,a,Incorrect,,,,,,t5.png,t2.png,3,0.0000131,20,Female,2020-09-13_19h02.43.889,torte-2b,2020.1.3,MacIntel,60,12746,0.511,,,,,,,,,,,,,,,,,,,,,,,,,,,,,,,,,,,,,0,46,46,91,1,,,,,,,,,,,,,,,,,,,,,,,,
,,,,,,,,,,,,a,Incorrect,,,,,,t5.png,t3.png,2,0.0565,20,Female,2020-09-13_19h02.43.889,torte-2b,2020.1.3,MacIntel,60,12746,0.719,,,,,,,,,,,,,,,,,,,,,,,,,,,,,,,,,,,,,0,47,47,39,1,,,,,,,,,,,,,,,,,,,,,,,,
,,,,,,,,,,,,l,Correct!,,,,,,t4.png,t2.png,2,0.059078,20,Female,2020-09-13_19h02.43.889,torte-2b,2020.1.3,MacIntel,60,12746,0.269,,,,,,,,,,,,,,,,,,,,,,,,,,,,,,,,,,,,,0,48,48,88,1,,,,,,,,,,,,,,,,,,,,,,,,
,,,,,,,,,,,,l,Incorrect,,,,,,t3.png,t1.png,2,0.056466,20,Female,2020-09-13_19h02.43.889,torte-2b,2020.1.3,MacIntel,60,12746,0.341,,,,,,,,,,,,,,,,,,,,,,,,,,,,,,,,,,,,,0,49,49,64,1,,,,,,,,,,,,,,,,,,,,,,,,
,,,,,,,,,,,,a,Incorrect,,,,,,t3.png,t1.png,2,0.056466,20,Female,2020-09-13_19h02.43.889,torte-2b,2020.1.3,MacIntel,60,12746,0.437,,,,,,,,,,,,,,,,,,,,,,,,,,,,,,,,,,,,,0,50,50,29,1,,,,,,,,,,,,,,,,,,,,,,,,
,,,,,,,,,,,,l,Incorrect,,,,,,t2.png,t3.png,1,0.90855,20,Female,2020-09-13_19h02.43.889,torte-2b,2020.1.3,MacIntel,60,12746,0.359,,,,,,,,,,,,,,,,,,,,,,,,,,,,,,,,,,,,,0,51,51,111,1,,,,,,,,,,,,,,,,,,,,,,,,
,,,,,,,,,,,,l,Incorrect,,,,,,t3.png,t5.png,2,0.056466,20,Female,2020-09-13_19h02.43.889,torte-2b,2020.1.3,MacIntel,60,12746,0.788,,,,,,,,,,,,,,,,,,,,,,,,,,,,,,,,,,,,,0,52,52,6,1,,,,,,,,,,,,,,,,,,,,,,,,
,,,,,,,,,,,,l,Incorrect,,,,,,t5.png,t4.png,1,0.9,20,Female,2020-09-13_19h02.43.889,torte-2b,2020.1.3,MacIntel,60,12746,0.407,,,,,,,,,,,,,,,,,,,,,,,,,,,,,,,,,,,,,0,53,53,49,1,,,,,,,,,,,,,,,,,,,,,,,,
,,,,,,,,,,,,l,Correct!,,,,,,t2.png,t5.png,3,0.0000131,20,Female,2020-09-13_19h02.43.889,torte-2b,2020.1.3,MacIntel,60,12746,0.374,,,,,,,,,,,,,,,,,,,,,,,,,,,,,,,,,,,,,0,54,54,8,1,,,,,,,,,,,,,,,,,,,,,,,,
,,,,,,,,,,,,l,Incorrect,,,,,,t3.png,t2.png,1,0.90855,20,Female,2020-09-13_19h02.43.889,torte-2b,2020.1.3,MacIntel,60,12746,1.608,,,,,,,,,,,,,,,,,,,,,,,,,,,,,,,,,,,,,0,55,55,97,1,,,,,,,,,,,,,,,,,,,,,,,,
,,,,,,,,,,,,l,Incorrect,,,,,,t2.png,t3.png,1,0.90855,20,Female,2020-09-13_19h02.43.889,torte-2b,2020.1.3,MacIntel,60,12746,0.708,,,,,,,,,,,,,,,,,,,,,,,,,,,,,,,,,,,,,0,56,56,68,1,,,,,,,,,,,,,,,,,,,,,,,,
,,,,,,,,,,,,l,Correct!,,,,,,t5.png,t3.png,2,0.056466,20,Female,2020-09-13_19h02.43.889,torte-2b,2020.1.3,MacIntel,60,12746,0.588,,,,,,,,,,,,,,,,,,,,,,,,,,,,,,,,,,,,,0,57,57,38,1,,,,,,,,,,,,,,,,,,,,,,,,
,,,,,,,,,,,,l,Incorrect,,,,,,t5.png,t4.png,1,0.90025,20,Female,2020-09-13_19h02.43.889,torte-2b,2020.1.3,MacIntel,60,12746,0.341,,,,,,,,,,,,,,,,,,,,,,,,,,,,,,,,,,,,,0,58,58,27,1,,,,,,,,,,,,,,,,,,,,,,,,
,,,,,,,,,,,,a,Correct!,,,,,,t4.png,t3.png,1,0.90855,20,Female,2020-09-13_19h02.43.889,torte-2b,2020.1.3,MacIntel,60,12746,0.509,,,,,,,,,,,,,,,,,,,,,,,,,,,,,,,,,,,,,0,59,59,35,1,,,,,,,,,,,,,,,,,,,,,,,,
,,,,,,,,,,,,l,Incorrect,,,,,,t3.png,t2.png,1,0.90855,20,Female,2020-09-13_19h02.43.889,torte-2b,2020.1.3,MacIntel,60,12746,0.321,,,,,,,,,,,,,,,,,,,,,,,,,,,,,,,,,,,,,0,60,60,18,1,,,,,,,,,,,,,,,,,,,,,,,,
,,,,,,,,,,,,a,Incorrect,,,,,,t5.png,t2.png,3,0.0000131,20,Female,2020-09-13_19h02.43.889,torte-2b,2020.1.3,MacIntel,60,12746,0.293,,,,,,,,,,,,,,,,,,,,,,,,,,,,,,,,,,,,,0,61,61,119,1,,,,,,,,,,,,,,,,,,,,,,,,
,,,,,,,,,,,,l,Correct!,,,,,,t4.png,t2.png,2,0.059078,20,Female,2020-09-13_19h02.43.889,torte-2b,2020.1.3,MacIntel,60,12746,0.352,,,,,,,,,,,,,,,,,,,,,,,,,,,,,,,,,,,,,0,62,62,110,1,,,,,,,,,,,,,,,,,,,,,,,,
,,,,,,,,,,,,a,Incorrect,,,,,,t1.png,t3.png,2,0.056466,20,Female,2020-09-13_19h02.43.889,torte-2b,2020.1.3,MacIntel,60,12746,0.356,,,,,,,,,,,,,,,,,,,,,,,,,,,,,,,,,,,,,0,63,63,63,1,,,,,,,,,,,,,,,,,,,,,,,,
,,,,,,,,,,,,l,Correct!,,,,,,t2.png,t5.png,3,0.0000131,20,Female,2020-09-13_19h02.43.889,torte-2b,2020.1.3,MacIntel,60,12746,0.302,,,,,,,,,,,,,,,,,,,,,,,,,,,,,,,,,,,,,0,64,64,66,1,,,,,,,,,,,,,,,,,,,,,,,,
,,,,,,,,,,,,l,Incorrect,,,,,,t4.png,t4.png,0,0.98115,20,Female,2020-09-13_19h02.43.889,torte-2b,2020.1.3,MacIntel,60,12746,0.308,,,,,,,,,,,,,,,,,,,,,,,,,,,,,,,,,,,,,0,65,65,79,1,,,,,,,,,,,,,,,,,,,,,,,,
,,,,,,,,,,,,l,Incorrect,,,,,,t5.png,t4.png,1,0.90025,20,Female,2020-09-13_19h02.43.889,torte-2b,2020.1.3,MacIntel,60,12746,0.273,,,,,,,,,,,,,,,,,,,,,,,,,,,,,,,,,,,,,0,66,66,26,1,,,,,,,,,,,,,,,,,,,,,,,,
,,,,,,,,,,,,a,Correct!,,,,,,t2.png,t2.png,0,0.98115,20,Female,2020-09-13_19h02.43.889,torte-2b,2020.1.3,MacIntel,60,12746,0.304,,,,,,,,,,,,,,,,,,,,,,,,,,,,,,,,,,,,,0,67,67,7,1,,,,,,,,,,,,,,,,,,,,,,,,
,,,,,,,,,,,,l,Correct!,,,,,,t3.png,t1.png,2,0.056466,20,Female,2020-09-13_19h02.43.889,torte-2b,2020.1.3,MacIntel,60,12746,0.169,,,,,,,,,,,,,,,,,,,,,,,,,,,,,,,,,,,,,0,68,68,32,1,,,,,,,,,,,,,,,,,,,,,,,,
,,,,,,,,,,,,a,Incorrect,,,,,,t5.png,t1.png,4,9.55E-11,20,Female,2020-09-13_19h02.43.889,torte-2b,2020.1.3,MacIntel,60,12746,0.121,,,,,,,,,,,,,,,,,,,,,,,,,,,,,,,,,,,,,0,69,69,71,1,,,,,,,,,,,,,,,,,,,,,,,,
,,,,,,,,,,,,a,Correct!,,,,,,t3.png,t2.png,1,0.909,20,Female,2020-09-13_19h02.43.889,torte-2b,2020.1.3,MacIntel,60,12746,0.758,,,,,,,,,,,,,,,,,,,,,,,,,,,,,,,,,,,,,0,70,70,23,1,,,,,,,,,,,,,,,,,,,,,,,,
,,,,,,,,,,,,l,Incorrect,,,,,,t3.png,t4.png,1,0.909,20,Female,2020-09-13_19h02.43.889,torte-2b,2020.1.3,MacIntel,60,12746,0.318,,,,,,,,,,,,,,,,,,,,,,,,,,,,,,,,,,,,,0,71,71,82,1,,,,,,,,,,,,,,,,,,,,,,,,
,,,,,,,,,,,,a,Incorrect,,,,,,t2.png,t4.png,2,0.0591,20,Female,2020-09-13_19h02.43.889,torte-2b,2020.1.3,MacIntel,60,12746,0.256,,,,,,,,,,,,,,,,,,,,,,,,,,,,,,,,,,,,,0,72,72,15,1,,,,,,,,,,,,,,,,,,,,,,,,
,,,,,,,,,,,,l,Incorrect,,,,,,t5.png,t5.png,0,0.97829,20,Female,2020-09-13_19h02.43.889,torte-2b,2020.1.3,MacIntel,60,12746,0.286,,,,,,,,,,,,,,,,,,,,,,,,,,,,,,,,,,,,,0,73,73,70,1,,,,,,,,,,,,,,,,,,,,,,,,
,,,,,,,,,,,,a,Correct!,,,,,,t1.png,t1.png,0,0.97829,20,Female,2020-09-13_19h02.43.889,torte-2b,2020.1.3,MacIntel,60,12746,0.288,,,,,,,,,,,,,,,,,,,,,,,,,,,,,,,,,,,,,0,74,74,78,1,,,,,,,,,,,,,,,,,,,,,,,,
,,,,,,,,,,,,l,Correct!,,,,,,t1.png,t3.png,2,0.056466,20,Female,2020-09-13_19h02.43.889,torte-2b,2020.1.3,MacIntel,60,12746,0.316,,,,,,,,,,,,,,,,,,,,,,,,,,,,,,,,,,,,,0,75,75,60,1,,,,,,,,,,,,,,,,,,,,,,,,
,,,,,,,,,,,,l,Incorrect,,,,,,t4.png,t4.png,0,0.98115,20,Female,2020-09-13_19h02.43.889,torte-2b,2020.1.3,MacIntel,60,12746,0.103,,,,,,,,,,,,,,,,,,,,,,,,,,,,,,,,,,,,,0,76,76,90,1,,,,,,,,,,,,,,,,,,,,,,,,
,,,,,,,,,,,,l,Correct!,,,,,,t3.png,t5.png,2,0.0565,20,Female,2020-09-13_19h02.43.889,torte-2b,2020.1.3,MacIntel,60,12746,0.285,,,,,,,,,,,,,,,,,,,,,,,,,,,,,,,,,,,,,0,77,77,30,1,,,,,,,,,,,,,,,,,,,,,,,,
,,,,,,,,,,,,l,Correct!,,,,,,t1.png,t3.png,2,0.056466,20,Female,2020-09-13_19h02.43.889,torte-2b,2020.1.3,MacIntel,60,12746,0.289,,,,,,,,,,,,,,,,,,,,,,,,,,,,,,,,,,,,,0,78,78,69,1,,,,,,,,,,,,,,,,,,,,,,,,
,,,,,,,,,,,,l,Correct!,,,,,,t4.png,t1.png,3,0.0000131,20,Female,2020-09-13_19h02.43.889,torte-2b,2020.1.3,MacIntel,60,12746,0.287,,,,,,,,,,,,,,,,,,,,,,,,,,,,,,,,,,,,,0,79,79,93,1,,,,,,,,,,,,,,,,,,,,,,,,
,,,,,,,,,,,,l,Incorrect,,,,,,t5.png,t5.png,0,0.978,20,Female,2020-09-13_19h02.43.889,torte-2b,2020.1.3,MacIntel,60,12746,0.306,,,,,,,,,,,,,,,,,,,,,,,,,,,,,,,,,,,,,0,80,80,117,1,,,,,,,,,,,,,,,,,,,,,,,,
,,,,,,,,,,,,l,Correct!,,,,,,t4.png,t3.png,1,0.90855,20,Female,2020-09-13_19h02.43.889,torte-2b,2020.1.3,MacIntel,60,12746,0.322,,,,,,,,,,,,,,,,,,,,,,,,,,,,,,,,,,,,,0,81,81,45,1,,,,,,,,,,,,,,,,,,,,,,,,
,,,,,,,,,,,,l,Correct!,,,,,,t1.png,t5.png,4,9.55E-11,20,Female,2020-09-13_19h02.43.889,torte-2b,2020.1.3,MacIntel,60,12746,0.272,,,,,,,,,,,,,,,,,,,,,,,,,,,,,,,,,,,,,0,82,82,41,1,,,,,,,,,,,,,,,,,,,,,,,,
,,,,,,,,,,,,l,Correct!,,,,,,t5.png,t1.png,4,9.55E-11,20,Female,2020-09-13_19h02.43.889,torte-2b,2020.1.3,MacIntel,60,12746,0.165,,,,,,,,,,,,,,,,,,,,,,,,,,,,,,,,,,,,,0,83,83,100,1,,,,,,,,,,,,,,,,,,,,,,,,
,,,,,,,,,,,,l,Incorrect,,,,,,t4.png,t4.png,0,0.98115,20,Female,2020-09-13_19h02.43.889,torte-2b,2020.1.3,MacIntel,60,12746,0.34,,,,,,,,,,,,,,,,,,,,,,,,,,,,,,,,,,,,,0,84,84,80,1,,,,,,,,,,,,,,,,,,,,,,,,
,,,,,,,,,,,,l,Correct!,,,,,,t1.png,t5.png,4,9.55E-11,20,Female,2020-09-13_19h02.43.889,torte-2b,2020.1.3,MacIntel,60,12746,0.268,,,,,,,,,,,,,,,,,,,,,,,,,,,,,,,,,,,,,0,85,85,55,1,,,,,,,,,,,,,,,,,,,,,,,,
,,,,,,,,,,,,l,Correct!,,,,,,t4.png,t1.png,3,0.0000131,20,Female,2020-09-13_19h02.43.889,torte-2b,2020.1.3,MacIntel,60,12746,0.459,,,,,,,,,,,,,,,,,,,,,,,,,,,,,,,,,,,,,0,86,86,42,1,,,,,,,,,,,,,,,,,,,,,,,,
,,,,,,,,,,,,l,Correct!,,,,,,t5.png,t1.png,4,9.55E-11,20,Female,2020-09-13_19h02.43.889,torte-2b,2020.1.3,MacIntel,60,12746,0.341,,,,,,,,,,,,,,,,,,,,,,,,,,,,,,,,,,,,,0,87,87,102,1,,,,,,,,,,,,,,,,,,,,,,,,
,,,,,,,,,,,,l,Correct!,,,,,,t1.png,t4.png,3,0.0000131,20,Female,2020-09-13_19h02.43.889,torte-2b,2020.1.3,MacIntel,60,12746,0.456,,,,,,,,,,,,,,,,,,,,,,,,,,,,,,,,,,,,,0,88,88,92,1,,,,,,,,,,,,,,,,,,,,,,,,
,,,,,,,,,,,,l,Incorrect,,,,,,t2.png,t2.png,0,0.98115,20,Female,2020-09-13_19h02.43.889,torte-2b,2020.1.3,MacIntel,60,12746,0.52,,,,,,,,,,,,,,,,,,,,,,,,,,,,,,,,,,,,,0,89,89,59,1,,,,,,,,,,,,,,,,,,,,,,,,
,,,,,,,,,,,,l,Incorrect,,,,,,t1.png,t1.png,0,0.97829,20,Female,2020-09-13_19h02.43.889,torte-2b,2020.1.3,MacIntel,60,12746,0.576,,,,,,,,,,,,,,,,,,,,,,,,,,,,,,,,,,,,,0,90,90,67,1,,,,,,,,,,,,,,,,,,,,,,,,
,,,,,,,,,,,,l,Incorrect,,,,,,t4.png,t5.png,1,0.9,20,Female,2020-09-13_19h02.43.889,torte-2b,2020.1.3,MacIntel,60,12746,0.54,,,,,,,,,,,,,,,,,,,,,,,,,,,,,,,,,,,,,0,91,91,115,1,,,,,,,,,,,,,,,,,,,,,,,,
,,,,,,,,,,,,l,Correct!,,,,,,t5.png,t1.png,4,9.55E-11,20,Female,2020-09-13_19h02.43.889,torte-2b,2020.1.3,MacIntel,60,12746,0.159,,,,,,,,,,,,,,,,,,,,,,,,,,,,,,,,,,,,,0,92,92,22,1,,,,,,,,,,,,,,,,,,,,,,,,
,,,,,,,,,,,,l,Correct!,,,,,,t2.png,t5.png,3,0.0000131,20,Female,2020-09-13_19h02.43.889,torte-2b,2020.1.3,MacIntel,60,12746,0.374,,,,,,,,,,,,,,,,,,,,,,,,,,,,,,,,,,,,,0,93,93,40,1,,,,,,,,,,,,,,,,,,,,,,,,
,,,,,,,,,,,,l,Incorrect,,,,,,t1.png,t2.png,1,0.90025,20,Female,2020-09-13_19h02.43.889,torte-2b,2020.1.3,MacIntel,60,12746,0.306,,,,,,,,,,,,,,,,,,,,,,,,,,,,,,,,,,,,,0,94,94,112,1,,,,,,,,,,,,,,,,,,,,,,,,
,,,,,,,,,,,,l,Incorrect,,,,,,t4.png,t3.png,1,0.90855,20,Female,2020-09-13_19h02.43.889,torte-2b,2020.1.3,MacIntel,60,12746,0.399,,,,,,,,,,,,,,,,,,,,,,,,,,,,,,,,,,,,,0,95,95,75,1,,,,,,,,,,,,,,,,,,,,,,,,
,,,,,,,,,,,,l,Correct!,,,,,,t5.png,t3.png,2,0.056466,20,Female,2020-09-13_19h02.43.889,torte-2b,2020.1.3,MacIntel,60,12746,0.423,,,,,,,,,,,,,,,,,,,,,,,,,,,,,,,,,,,,,0,96,96,108,1,,,,,,,,,,,,,,,,,,,,,,,,
,,,,,,,,,,,,l,Incorrect,,,,,,t3.png,t4.png,1,0.909,20,Female,2020-09-13_19h02.43.889,torte-2b,2020.1.3,MacIntel,60,12746,0.473,,,,,,,,,,,,,,,,,,,,,,,,,,,,,,,,,,,,,0,97,97,106,1,,,,,,,,,,,,,,,,,,,,,,,,
,,,,,,,,,,,,l,Correct!,,,,,,t3.png,t2.png,1,0.909,20,Female,2020-09-13_19h02.43.889,torte-2b,2020.1.3,MacIntel,60,12746,0.323,,,,,,,,,,,,,,,,,,,,,,,,,,,,,,,,,,,,,0,98,98,3,1,,,,,,,,,,,,,,,,,,,,,,,,
,,,,,,,,,,,,l,Correct!,,,,,,t3.png,t1.png,2,0.0565,20,Female,2020-09-13_19h02.43.889,torte-2b,2020.1.3,MacIntel,60,12746,0.287,,,,,,,,,,,,,,,,,,,,,,,,,,,,,,,,,,,,,0,99,99,31,1,,,,,,,,,,,,,,,,,,,,,,,,
,,,,,,,,,,,,l,Incorrect,,,,,,t5.png,t5.png,0,0.97829,20,Female,2020-09-13_19h02.43.889,torte-2b,2020.1.3,MacIntel,60,12746,0.439,,,,,,,,,,,,,,,,,,,,,,,,,,,,,,,,,,,,,0,100,100,25,1,,,,,,,,,,,,,,,,,,,,,,,,
,,,,,,,,,,,,l,Incorrect,,,,,,t2.png,t1.png,1,0.90025,20,Female,2020-09-13_19h02.43.889,torte-2b,2020.1.3,MacIntel,60,12746,1.862,,,,,,,,,,,,,,,,,,,,,,,,,,,,,,,,,,,,,0,101,101,5,1,,,,,,,,,,,,,,,,,,,,,,,,
,,,,,,,,,,,,l,Correct!,,,,,,t1.png,t5.png,4,9.55E-11,20,Female,2020-09-13_19h02.43.889,torte-2b,2020.1.3,MacIntel,60,12746,0.459,,,,,,,,,,,,,,,,,,,,,,,,,,,,,,,,,,,,,0,102,102,16,1,,,,,,,,,,,,,,,,,,,,,,,,
,,,,,,,,,,,,l,Incorrect,,,,,,t3.png,t4.png,1,0.909,20,Female,2020-09-13_19h02.43.889,torte-2b,2020.1.3,MacIntel,60,12746,1.659,,,,,,,,,,,,,,,,,,,,,,,,,,,,,,,,,,,,,0,103,103,89,1,,,,,,,,,,,,,,,,,,,,,,,,
,,,,,,,,,,,,l,Correct!,,,,,,t2.png,t5.png,3,0.0000131,20,Female,2020-09-13_19h02.43.889,torte-2b,2020.1.3,MacIntel,60,12746,0.275,,,,,,,,,,,,,,,,,,,,,,,,,,,,,,,,,,,,,0,104,104,104,1,,,,,,,,,,,,,,,,,,,,,,,,
,,,,,,,,,,,,l,Incorrect,,,,,,t2.png,t1.png,1,0.9,20,Female,2020-09-13_19h02.43.889,torte-2b,2020.1.3,MacIntel,60,12746,0.292,,,,,,,,,,,,,,,,,,,,,,,,,,,,,,,,,,,,,0,105,105,118,1,,,,,,,,,,,,,,,,,,,,,,,,
,,,,,,,,,,,,a,Incorrect,,,,,,t2.png,t4.png,2,0.059078,20,Female,2020-09-13_19h02.43.889,torte-2b,2020.1.3,MacIntel,60,12746,0.102,,,,,,,,,,,,,,,,,,,,,,,,,,,,,,,,,,,,,0,106,106,77,1,,,,,,,,,,,,,,,,,,,,,,,,
,,,,,,,,,,,,l,Incorrect,,,,,,t2.png,t3.png,1,0.90855,20,Female,2020-09-13_19h02.43.889,torte-2b,2020.1.3,MacIntel,60,12746,0.372,,,,,,,,,,,,,,,,,,,,,,,,,,,,,,,,,,,,,0,107,107,65,1,,,,,,,,,,,,,,,,,,,,,,,,
,,,,,,,,,,,,l,Incorrect,,,,,,t4.png,t5.png,1,0.90025,20,Female,2020-09-13_19h02.43.889,torte-2b,2020.1.3,MacIntel,60,12746,0.087,,,,,,,,,,,,,,,,,,,,,,,,,,,,,,,,,,,,,0,108,108,113,1,,,,,,,,,,,,,,,,,,,,,,,,
,,,,,,,,,,,,l,Incorrect,,,,,,t1.png,t2.png,1,0.90025,20,Female,2020-09-13_19h02.43.889,torte-2b,2020.1.3,MacIntel,60,12746,0.119,,,,,,,,,,,,,,,,,,,,,,,,,,,,,,,,,,,,,0,109,109,105,1,,,,,,,,,,,,,,,,,,,,,,,,
,,,,,,,,,,,,l,Incorrect,,,,,,t2.png,t1.png,1,0.90025,20,Female,2020-09-13_19h02.43.889,torte-2b,2020.1.3,MacIntel,60,12746,0.388,,,,,,,,,,,,,,,,,,,,,,,,,,,,,,,,,,,,,0,110,110,62,1,,,,,,,,,,,,,,,,,,,,,,,,
,,,,,,,,,,,,l,Correct!,,,,,,t5.png,t1.png,4,9.55E-11,20,Female,2020-09-13_19h02.43.889,torte-2b,2020.1.3,MacIntel,60,12746,0.757,,,,,,,,,,,,,,,,,,,,,,,,,,,,,,,,,,,,,0,111,111,43,1,,,,,,,,,,,,,,,,,,,,,,,,
,,,,,,,,,,,,l,Correct!,,,,,,t4.png,t2.png,2,0.059078,20,Female,2020-09-13_19h02.43.889,torte-2b,2020.1.3,MacIntel,60,12746,0.405,,,,,,,,,,,,,,,,,,,,,,,,,,,,,,,,,,,,,0,112,112,86,1,,,,,,,,,,,,,,,,,,,,,,,,
,,,,,,,,,,,,l,Incorrect,,,,,,t1.png,t1.png,0,0.97829,20,Female,2020-09-13_19h02.43.889,torte-2b,2020.1.3,MacIntel,60,12746,0.692,,,,,,,,,,,,,,,,,,,,,,,,,,,,,,,,,,,,,0,113,113,9,1,,,,,,,,,,,,,,,,,,,,,,,,
,,,,,,,,,,,,l,Incorrect,,,,,,t2.png,t2.png,0,0.98115,20,Female,2020-09-13_19h02.43.889,torte-2b,2020.1.3,MacIntel,60,12746,0.433,,,,,,,,,,,,,,,,,,,,,,,,,,,,,,,,,,,,,0,114,114,2,1,,,,,,,,,,,,,,,,,,,,,,,,
,,,,,,,,,,,,a,Incorrect,,,,,,t3.png,t2.png,1,0.90855,20,Female,2020-09-13_19h02.43.889,torte-2b,2020.1.3,MacIntel,60,12746,0.399,,,,,,,,,,,,,,,,,,,,,,,,,,,,,,,,,,,,,0,115,115,53,1,,,,,,,,,,,,,,,,,,,,,,,,
,,,,,,,,,,,,l,Incorrect,,,,,,t4.png,t4.png,0,0.98115,20,Female,2020-09-13_19h02.43.889,torte-2b,2020.1.3,MacIntel,60,12746,1.507,,,,,,,,,,,,,,,,,,,,,,,,,,,,,,,,,,,,,0,116,116,52,1,,,,,,,,,,,,,,,,,,,,,,,,
,,,,,,,,,,,,l,Incorrect,,,,,,t2.png,t3.png,1,0.909,20,Female,2020-09-13_19h02.43.889,torte-2b,2020.1.3,MacIntel,60,12746,0.106,,,,,,,,,,,,,,,,,,,,,,,,,,,,,,,,,,,,,0,117,117,74,1,,,,,,,,,,,,,,,,,,,,,,,,
,,,,,,,,,,,,l,Correct!,,,,,,t3.png,t1.png,2,0.056466,20,Female,2020-09-13_19h02.43.889,torte-2b,2020.1.3,MacIntel,60,12746,0.489,,,,,,,,,,,,,,,,,,,,,,,,,,,,,,,,,,,,,0,118,118,0,1,,,,,,,,,,,,,,,,,,,,,,,,
,,,,,,,,,,,,l,Correct!,,,,,,t1.png,t4.png,3,0.0000131,20,Female,2020-09-13_19h02.43.889,torte-2b,2020.1.3,MacIntel,60,12746,1.156,,,,,,,,,,,,,,,,,,,,,,,,,,,,,,,,,,,,,0,119,119,107,1,,,,,,,,,,,,,,,,,,,,,,,,
,,,,,,,,,,,,,,,,,,,,,,,20,Female,2020-09-13_19h02.43.889,torte-2b,2020.1.3,MacIntel,60,12746,,space,3.798,,,,,,,,,,,,,,,,,,,,,,,,,,,,,,,,,,,,,,,,-148,109,1,0,0,s2,-85,-94,1,0,0,t4,164,-104,1,0,0,proceed,space,0.576,space,0.539,space,0.305
