key_resp_8.keys,key_resp_8.rt,key_resp_9.keys,key_resp_9.rt,key_resp_10.keys,key_resp_10.rt,key_resp_11.keys,key_resp_11.rt,key_resp_2.keys,key_resp_2.rt,key_resp_3.keys,key_resp_3.rt,key_resp.keys,key_resp.rt,Feedback,train.thisRepN,train.thisTrialN,train.thisN,train.thisIndex,train.ran,torta_sx,torta_dx,difference,probability,age,gender,date,expName,psychopyVersion,OS,frameRate,participant,key_resp_15.keys,key_resp_15.rt,key_resp_6.keys,key_resp_6.rt,test1.thisRepN,test1.thisTrialN,test1.thisN,test1.thisIndex,test1.ran,key_resp_4.keys,key_resp_4.rt,key_resp_5.keys,back1.thisRepN,back1.thisTrialN,back1.thisN,back1.thisIndex,back1.ran,letter,key_resp_5.rt,back2.thisRepN,back2.thisTrialN,back2.thisN,back2.thisIndex,back2.ran,back3.thisRepN,back3.thisTrialN,back3.thisN,back3.thisIndex,back3.ran,back4.thisRepN,back4.thisTrialN,back4.thisN,back4.thisIndex,back4.ran,key_resp_7.keys,key_resp_7.rt,test2.thisRepN,test2.thisTrialN,test2.thisN,test2.thisIndex,test2.ran,mouse.x,mouse.y,mouse.leftButton,mouse.midButton,mouse.rightButton,mouse.clicked_name,mouse_2.x,mouse_2.y,mouse_2.leftButton,mouse_2.midButton,mouse_2.rightButton,mouse_2.clicked_name,mouse_3.x,mouse_3.y,mouse_3.leftButton,mouse_3.midButton,mouse_3.rightButton,mouse_3.clicked_name,key_resp_12.keys,key_resp_12.rt,key_resp_13.keys,key_resp_13.rt,key_resp_14.keys,key_resp_14.rt
space,70.72929,space,28.55435,space,2.38998,space,16.93613,space,18.86703,space,30.32107,a,2.15338,Incorrect,0,0,0,115,1,t2.png,t4.png,2,0.059078,20,male,2020-08-18_19h17.58.872,torte-2b,2020.1.3,Win32,60,12844,,,,,,,,,,,,,,,,,,,,,,,,,,,,,,,,,,,,,,,,,,,,,,,,,,,,,,,,,,,,,,,,,
,,,,,,,,,,,,a,1.61742,Incorrect,0,1,1,44,1,t1.png,t4.png,3,0.0000131,20,male,2020-08-18_19h17.58.872,torte-2b,2020.1.3,Win32,60,12844,,,,,,,,,,,,,,,,,,,,,,,,,,,,,,,,,,,,,,,,,,,,,,,,,,,,,,,,,,,,,,,,,
,,,,,,,,,,,,l,1.4705,Incorrect,0,2,2,60,1,t4.png,t5.png,1,0.90025,20,male,2020-08-18_19h17.58.872,torte-2b,2020.1.3,Win32,60,12844,,,,,,,,,,,,,,,,,,,,,,,,,,,,,,,,,,,,,,,,,,,,,,,,,,,,,,,,,,,,,,,,,
,,,,,,,,,,,,l,1.271885,Correct!,0,3,3,107,1,t1.png,t4.png,3,0.0000131,20,male,2020-08-18_19h17.58.872,torte-2b,2020.1.3,Win32,60,12844,,,,,,,,,,,,,,,,,,,,,,,,,,,,,,,,,,,,,,,,,,,,,,,,,,,,,,,,,,,,,,,,,
,,,,,,,,,,,,l,0.940375,Correct!,0,4,4,68,1,t2.png,t4.png,2,0.059078,20,male,2020-08-18_19h17.58.872,torte-2b,2020.1.3,Win32,60,12844,,,,,,,,,,,,,,,,,,,,,,,,,,,,,,,,,,,,,,,,,,,,,,,,,,,,,,,,,,,,,,,,,
,,,,,,,,,,,,a,1.29197,Incorrect,0,5,5,82,1,t3.png,t1.png,2,0.056466,20,male,2020-08-18_19h17.58.872,torte-2b,2020.1.3,Win32,60,12844,,,,,,,,,,,,,,,,,,,,,,,,,,,,,,,,,,,,,,,,,,,,,,,,,,,,,,,,,,,,,,,,,
,,,,,,,,,,,,l,0.81544,Correct!,0,6,6,28,1,t1.png,t4.png,3,0.0000131,20,male,2020-08-18_19h17.58.872,torte-2b,2020.1.3,Win32,60,12844,,,,,,,,,,,,,,,,,,,,,,,,,,,,,,,,,,,,,,,,,,,,,,,,,,,,,,,,,,,,,,,,,
,,,,,,,,,,,,l,1.215925,Incorrect,0,7,7,45,1,t4.png,t5.png,1,0.90025,20,male,2020-08-18_19h17.58.872,torte-2b,2020.1.3,Win32,60,12844,,,,,,,,,,,,,,,,,,,,,,,,,,,,,,,,,,,,,,,,,,,,,,,,,,,,,,,,,,,,,,,,,
,,,,,,,,,,,,a,1.41599,Correct!,0,8,8,32,1,t3.png,t2.png,1,0.90855,20,male,2020-08-18_19h17.58.872,torte-2b,2020.1.3,Win32,60,12844,,,,,,,,,,,,,,,,,,,,,,,,,,,,,,,,,,,,,,,,,,,,,,,,,,,,,,,,,,,,,,,,,
,,,,,,,,,,,,a,1.215055,Correct!,0,9,9,72,1,t5.png,t5.png,0,0.97829,20,male,2020-08-18_19h17.58.872,torte-2b,2020.1.3,Win32,60,12844,,,,,,,,,,,,,,,,,,,,,,,,,,,,,,,,,,,,,,,,,,,,,,,,,,,,,,,,,,,,,,,,,
,,,,,,,,,,,,a,1.58915,Incorrect,0,10,10,81,1,t3.png,t1.png,2,0.056466,20,male,2020-08-18_19h17.58.872,torte-2b,2020.1.3,Win32,60,12844,,,,,,,,,,,,,,,,,,,,,,,,,,,,,,,,,,,,,,,,,,,,,,,,,,,,,,,,,,,,,,,,,
,,,,,,,,,,,,a,1.330275,Incorrect,0,11,11,47,1,t2.png,t3.png,1,0.90855,20,male,2020-08-18_19h17.58.872,torte-2b,2020.1.3,Win32,60,12844,,,,,,,,,,,,,,,,,,,,,,,,,,,,,,,,,,,,,,,,,,,,,,,,,,,,,,,,,,,,,,,,,
,,,,,,,,,,,,l,1.74719,Correct!,0,12,12,105,1,t4.png,t1.png,3,0.059078,20,male,2020-08-18_19h17.58.872,torte-2b,2020.1.3,Win32,60,12844,,,,,,,,,,,,,,,,,,,,,,,,,,,,,,,,,,,,,,,,,,,,,,,,,,,,,,,,,,,,,,,,,
,,,,,,,,,,,,a,1.016305,Correct!,0,13,13,109,1,t5.png,t5.png,0,0.97829,20,male,2020-08-18_19h17.58.872,torte-2b,2020.1.3,Win32,60,12844,,,,,,,,,,,,,,,,,,,,,,,,,,,,,,,,,,,,,,,,,,,,,,,,,,,,,,,,,,,,,,,,,
,,,,,,,,,,,,l,1.396975,Correct!,0,14,14,70,1,t1.png,t5.png,4,9.55E-11,20,male,2020-08-18_19h17.58.872,torte-2b,2020.1.3,Win32,60,12844,,,,,,,,,,,,,,,,,,,,,,,,,,,,,,,,,,,,,,,,,,,,,,,,,,,,,,,,,,,,,,,,,
,,,,,,,,,,,,a,0.99366,Correct!,0,15,15,77,1,t3.png,t2.png,1,0.90855,20,male,2020-08-18_19h17.58.872,torte-2b,2020.1.3,Win32,60,12844,,,,,,,,,,,,,,,,,,,,,,,,,,,,,,,,,,,,,,,,,,,,,,,,,,,,,,,,,,,,,,,,,
,,,,,,,,,,,,a,1.585015,Incorrect,0,16,16,2,1,t3.png,t1.png,2,0.056466,20,male,2020-08-18_19h17.58.872,torte-2b,2020.1.3,Win32,60,12844,,,,,,,,,,,,,,,,,,,,,,,,,,,,,,,,,,,,,,,,,,,,,,,,,,,,,,,,,,,,,,,,,
,,,,,,,,,,,,a,1.366445,Correct!,0,17,17,8,1,t5.png,t5.png,0,0.97829,20,male,2020-08-18_19h17.58.872,torte-2b,2020.1.3,Win32,60,12844,,,,,,,,,,,,,,,,,,,,,,,,,,,,,,,,,,,,,,,,,,,,,,,,,,,,,,,,,,,,,,,,,
,,,,,,,,,,,,l,0.98549,Correct!,0,18,18,66,1,t5.png,t1.png,4,9.55E-11,20,male,2020-08-18_19h17.58.872,torte-2b,2020.1.3,Win32,60,12844,,,,,,,,,,,,,,,,,,,,,,,,,,,,,,,,,,,,,,,,,,,,,,,,,,,,,,,,,,,,,,,,,
,,,,,,,,,,,,l,0.87146,Correct!,0,19,19,35,1,t1.png,t4.png,3,0.0000131,20,male,2020-08-18_19h17.58.872,torte-2b,2020.1.3,Win32,60,12844,,,,,,,,,,,,,,,,,,,,,,,,,,,,,,,,,,,,,,,,,,,,,,,,,,,,,,,,,,,,,,,,,
,,,,,,,,,,,,l,0.829415,Correct!,0,20,20,79,1,t1.png,t4.png,3,0.0000131,20,male,2020-08-18_19h17.58.872,torte-2b,2020.1.3,Win32,60,12844,,,,,,,,,,,,,,,,,,,,,,,,,,,,,,,,,,,,,,,,,,,,,,,,,,,,,,,,,,,,,,,,,
,,,,,,,,,,,,l,0.737665,Correct!,0,21,21,6,1,t5.png,t1.png,4,9.55E-11,20,male,2020-08-18_19h17.58.872,torte-2b,2020.1.3,Win32,60,12844,,,,,,,,,,,,,,,,,,,,,,,,,,,,,,,,,,,,,,,,,,,,,,,,,,,,,,,,,,,,,,,,,
,,,,,,,,,,,,a,1.142465,Correct!,0,22,22,29,1,t3.png,t2.png,1,0.90855,20,male,2020-08-18_19h17.58.872,torte-2b,2020.1.3,Win32,60,12844,,,,,,,,,,,,,,,,,,,,,,,,,,,,,,,,,,,,,,,,,,,,,,,,,,,,,,,,,,,,,,,,,
,,,,,,,,,,,,l,0.99761,Incorrect,0,23,23,5,1,t5.png,t5.png,0,0.97829,20,male,2020-08-18_19h17.58.872,torte-2b,2020.1.3,Win32,60,12844,,,,,,,,,,,,,,,,,,,,,,,,,,,,,,,,,,,,,,,,,,,,,,,,,,,,,,,,,,,,,,,,,
,,,,,,,,,,,,a,1.0408,Correct!,0,24,24,25,1,t1.png,t1.png,0,0.97829,20,male,2020-08-18_19h17.58.872,torte-2b,2020.1.3,Win32,60,12844,,,,,,,,,,,,,,,,,,,,,,,,,,,,,,,,,,,,,,,,,,,,,,,,,,,,,,,,,,,,,,,,,
,,,,,,,,,,,,l,1.67737,Correct!,0,25,25,19,1,t2.png,t4.png,2,0.059078,20,male,2020-08-18_19h17.58.872,torte-2b,2020.1.3,Win32,60,12844,,,,,,,,,,,,,,,,,,,,,,,,,,,,,,,,,,,,,,,,,,,,,,,,,,,,,,,,,,,,,,,,,
,,,,,,,,,,,,l,1.103455,Correct!,0,26,26,13,1,t2.png,t4.png,2,0.059078,20,male,2020-08-18_19h17.58.872,torte-2b,2020.1.3,Win32,60,12844,,,,,,,,,,,,,,,,,,,,,,,,,,,,,,,,,,,,,,,,,,,,,,,,,,,,,,,,,,,,,,,,,
,,,,,,,,,,,,a,1.094065,Correct!,0,27,27,52,1,t2.png,t3.png,1,0.90855,20,male,2020-08-18_19h17.58.872,torte-2b,2020.1.3,Win32,60,12844,,,,,,,,,,,,,,,,,,,,,,,,,,,,,,,,,,,,,,,,,,,,,,,,,,,,,,,,,,,,,,,,,
,,,,,,,,,,,,a,0.87071,Correct!,0,28,28,48,1,t2.png,t3.png,1,0.90855,20,male,2020-08-18_19h17.58.872,torte-2b,2020.1.3,Win32,60,12844,,,,,,,,,,,,,,,,,,,,,,,,,,,,,,,,,,,,,,,,,,,,,,,,,,,,,,,,,,,,,,,,,
,,,,,,,,,,,,a,1.02461,Correct!,0,29,29,24,1,t5.png,t5.png,0,0.97829,20,male,2020-08-18_19h17.58.872,torte-2b,2020.1.3,Win32,60,12844,,,,,,,,,,,,,,,,,,,,,,,,,,,,,,,,,,,,,,,,,,,,,,,,,,,,,,,,,,,,,,,,,
,,,,,,,,,,,,a,0.60349,Correct!,0,30,30,93,1,t5.png,t4.png,1,0.90025,20,male,2020-08-18_19h17.58.872,torte-2b,2020.1.3,Win32,60,12844,,,,,,,,,,,,,,,,,,,,,,,,,,,,,,,,,,,,,,,,,,,,,,,,,,,,,,,,,,,,,,,,,
,,,,,,,,,,,,l,0.87641,Correct!,0,31,31,11,1,t1.png,t4.png,3,0.0000131,20,male,2020-08-18_19h17.58.872,torte-2b,2020.1.3,Win32,60,12844,,,,,,,,,,,,,,,,,,,,,,,,,,,,,,,,,,,,,,,,,,,,,,,,,,,,,,,,,,,,,,,,,
,,,,,,,,,,,,a,1.256555,Correct!,0,32,32,119,1,t5.png,t4.png,1,0.90025,20,male,2020-08-18_19h17.58.872,torte-2b,2020.1.3,Win32,60,12844,,,,,,,,,,,,,,,,,,,,,,,,,,,,,,,,,,,,,,,,,,,,,,,,,,,,,,,,,,,,,,,,,
,,,,,,,,,,,,l,1.0635,Correct!,0,33,33,59,1,t5.png,t1.png,4,9.55E-11,20,male,2020-08-18_19h17.58.872,torte-2b,2020.1.3,Win32,60,12844,,,,,,,,,,,,,,,,,,,,,,,,,,,,,,,,,,,,,,,,,,,,,,,,,,,,,,,,,,,,,,,,,
,,,,,,,,,,,,a,0.937685,Incorrect,0,34,34,113,1,t5.png,t1.png,4,9.55E-11,20,male,2020-08-18_19h17.58.872,torte-2b,2020.1.3,Win32,60,12844,,,,,,,,,,,,,,,,,,,,,,,,,,,,,,,,,,,,,,,,,,,,,,,,,,,,,,,,,,,,,,,,,
,,,,,,,,,,,,a,0.92376,Correct!,0,35,35,18,1,t2.png,t3.png,1,0.90855,20,male,2020-08-18_19h17.58.872,torte-2b,2020.1.3,Win32,60,12844,,,,,,,,,,,,,,,,,,,,,,,,,,,,,,,,,,,,,,,,,,,,,,,,,,,,,,,,,,,,,,,,,
,,,,,,,,,,,,l,1.772825,Correct!,0,36,36,37,1,t2.png,t4.png,2,0.059078,20,male,2020-08-18_19h17.58.872,torte-2b,2020.1.3,Win32,60,12844,,,,,,,,,,,,,,,,,,,,,,,,,,,,,,,,,,,,,,,,,,,,,,,,,,,,,,,,,,,,,,,,,
,,,,,,,,,,,,a,1.588875,Correct!,0,37,37,116,1,t4.png,t5.png,1,0.90025,20,male,2020-08-18_19h17.58.872,torte-2b,2020.1.3,Win32,60,12844,,,,,,,,,,,,,,,,,,,,,,,,,,,,,,,,,,,,,,,,,,,,,,,,,,,,,,,,,,,,,,,,,
,,,,,,,,,,,,a,1.170145,Correct!,0,38,38,61,1,t1.png,t1.png,0,0.97829,20,male,2020-08-18_19h17.58.872,torte-2b,2020.1.3,Win32,60,12844,,,,,,,,,,,,,,,,,,,,,,,,,,,,,,,,,,,,,,,,,,,,,,,,,,,,,,,,,,,,,,,,,
,,,,,,,,,,,,a,1.00968,Correct!,0,39,39,38,1,t1.png,t1.png,0,0.97829,20,male,2020-08-18_19h17.58.872,torte-2b,2020.1.3,Win32,60,12844,,,,,,,,,,,,,,,,,,,,,,,,,,,,,,,,,,,,,,,,,,,,,,,,,,,,,,,,,,,,,,,,,
,,,,,,,,,,,,l,0.955955,Correct!,0,40,40,64,1,t5.png,t1.png,4,9.55E-11,20,male,2020-08-18_19h17.58.872,torte-2b,2020.1.3,Win32,60,12844,,,,,,,,,,,,,,,,,,,,,,,,,,,,,,,,,,,,,,,,,,,,,,,,,,,,,,,,,,,,,,,,,
,,,,,,,,,,,,l,1.063255,Correct!,0,41,41,106,1,t4.png,t1.png,3,0.059078,20,male,2020-08-18_19h17.58.872,torte-2b,2020.1.3,Win32,60,12844,,,,,,,,,,,,,,,,,,,,,,,,,,,,,,,,,,,,,,,,,,,,,,,,,,,,,,,,,,,,,,,,,
,,,,,,,,,,,,l,0.901765,Correct!,0,42,42,108,1,t3.png,t1.png,2,0.056466,20,male,2020-08-18_19h17.58.872,torte-2b,2020.1.3,Win32,60,12844,,,,,,,,,,,,,,,,,,,,,,,,,,,,,,,,,,,,,,,,,,,,,,,,,,,,,,,,,,,,,,,,,
,,,,,,,,,,,,l,0.60949,Correct!,0,43,43,74,1,t5.png,t1.png,4,9.55E-11,20,male,2020-08-18_19h17.58.872,torte-2b,2020.1.3,Win32,60,12844,,,,,,,,,,,,,,,,,,,,,,,,,,,,,,,,,,,,,,,,,,,,,,,,,,,,,,,,,,,,,,,,,
,,,,,,,,,,,,a,1.13176,Correct!,0,44,44,69,1,t5.png,t4.png,1,0.90025,20,male,2020-08-18_19h17.58.872,torte-2b,2020.1.3,Win32,60,12844,,,,,,,,,,,,,,,,,,,,,,,,,,,,,,,,,,,,,,,,,,,,,,,,,,,,,,,,,,,,,,,,,
,,,,,,,,,,,,a,0.77058,Correct!,0,45,45,111,1,t1.png,t1.png,0,0.97829,20,male,2020-08-18_19h17.58.872,torte-2b,2020.1.3,Win32,60,12844,,,,,,,,,,,,,,,,,,,,,,,,,,,,,,,,,,,,,,,,,,,,,,,,,,,,,,,,,,,,,,,,,
,,,,,,,,,,,,l,1.24255,Correct!,0,46,46,102,1,t2.png,t4.png,2,0.059078,20,male,2020-08-18_19h17.58.872,torte-2b,2020.1.3,Win32,60,12844,,,,,,,,,,,,,,,,,,,,,,,,,,,,,,,,,,,,,,,,,,,,,,,,,,,,,,,,,,,,,,,,,
,,,,,,,,,,,,a,0.860945,Correct!,0,47,47,65,1,t5.png,t5.png,0,0.97829,20,male,2020-08-18_19h17.58.872,torte-2b,2020.1.3,Win32,60,12844,,,,,,,,,,,,,,,,,,,,,,,,,,,,,,,,,,,,,,,,,,,,,,,,,,,,,,,,,,,,,,,,,
,,,,,,,,,,,,a,2.2271,Correct!,0,48,48,84,1,t2.png,t3.png,1,0.90855,20,male,2020-08-18_19h17.58.872,torte-2b,2020.1.3,Win32,60,12844,,,,,,,,,,,,,,,,,,,,,,,,,,,,,,,,,,,,,,,,,,,,,,,,,,,,,,,,,,,,,,,,,
,,,,,,,,,,,,a,0.916745,Correct!,0,49,49,42,1,t5.png,t5.png,0,0.97829,20,male,2020-08-18_19h17.58.872,torte-2b,2020.1.3,Win32,60,12844,,,,,,,,,,,,,,,,,,,,,,,,,,,,,,,,,,,,,,,,,,,,,,,,,,,,,,,,,,,,,,,,,
,,,,,,,,,,,,a,1.378115,Incorrect,0,50,50,73,1,t3.png,t1.png,2,0.056466,20,male,2020-08-18_19h17.58.872,torte-2b,2020.1.3,Win32,60,12844,,,,,,,,,,,,,,,,,,,,,,,,,,,,,,,,,,,,,,,,,,,,,,,,,,,,,,,,,,,,,,,,,
,,,,,,,,,,,,a,0.85445,Incorrect,0,51,51,88,1,t1.png,t1.png,0,0.97829,20,male,2020-08-18_19h17.58.872,torte-2b,2020.1.3,Win32,60,12844,,,,,,,,,,,,,,,,,,,,,,,,,,,,,,,,,,,,,,,,,,,,,,,,,,,,,,,,,,,,,,,,,
,,,,,,,,,,,,a,1.826485,Correct!,0,52,52,30,1,t2.png,t3.png,1,0.90855,20,male,2020-08-18_19h17.58.872,torte-2b,2020.1.3,Win32,60,12844,,,,,,,,,,,,,,,,,,,,,,,,,,,,,,,,,,,,,,,,,,,,,,,,,,,,,,,,,,,,,,,,,
,,,,,,,,,,,,a,1.085995,Correct!,0,53,53,33,1,t3.png,t2.png,1,0.90855,20,male,2020-08-18_19h17.58.872,torte-2b,2020.1.3,Win32,60,12844,,,,,,,,,,,,,,,,,,,,,,,,,,,,,,,,,,,,,,,,,,,,,,,,,,,,,,,,,,,,,,,,,
,,,,,,,,,,,,l,0.898475,Correct!,0,54,54,78,1,t1.png,t4.png,3,0.0000131,20,male,2020-08-18_19h17.58.872,torte-2b,2020.1.3,Win32,60,12844,,,,,,,,,,,,,,,,,,,,,,,,,,,,,,,,,,,,,,,,,,,,,,,,,,,,,,,,,,,,,,,,,
,,,,,,,,,,,,l,0.99732,Correct!,0,55,55,27,1,t1.png,t5.png,4,9.55E-11,20,male,2020-08-18_19h17.58.872,torte-2b,2020.1.3,Win32,60,12844,,,,,,,,,,,,,,,,,,,,,,,,,,,,,,,,,,,,,,,,,,,,,,,,,,,,,,,,,,,,,,,,,
,,,,,,,,,,,,a,1.468565,Correct!,0,56,56,15,1,t2.png,t3.png,1,0.90855,20,male,2020-08-18_19h17.58.872,torte-2b,2020.1.3,Win32,60,12844,,,,,,,,,,,,,,,,,,,,,,,,,,,,,,,,,,,,,,,,,,,,,,,,,,,,,,,,,,,,,,,,,
,,,,,,,,,,,,a,0.888035,Correct!,0,57,57,55,1,t1.png,t1.png,0,0.97829,20,male,2020-08-18_19h17.58.872,torte-2b,2020.1.3,Win32,60,12844,,,,,,,,,,,,,,,,,,,,,,,,,,,,,,,,,,,,,,,,,,,,,,,,,,,,,,,,,,,,,,,,,
,,,,,,,,,,,,a,1.65782,Correct!,0,58,58,23,1,t4.png,t5.png,1,0.90025,20,male,2020-08-18_19h17.58.872,torte-2b,2020.1.3,Win32,60,12844,,,,,,,,,,,,,,,,,,,,,,,,,,,,,,,,,,,,,,,,,,,,,,,,,,,,,,,,,,,,,,,,,
,,,,,,,,,,,,a,1.383655,Correct!,0,59,59,56,1,t2.png,t3.png,1,0.90855,20,male,2020-08-18_19h17.58.872,torte-2b,2020.1.3,Win32,60,12844,,,,,,,,,,,,,,,,,,,,,,,,,,,,,,,,,,,,,,,,,,,,,,,,,,,,,,,,,,,,,,,,,
,,,,,,,,,,,,l,1.25709,Correct!,0,60,60,39,1,t2.png,t4.png,2,0.059078,20,male,2020-08-18_19h17.58.872,torte-2b,2020.1.3,Win32,60,12844,,,,,,,,,,,,,,,,,,,,,,,,,,,,,,,,,,,,,,,,,,,,,,,,,,,,,,,,,,,,,,,,,
,,,,,,,,,,,,a,1.70152,Incorrect,0,61,61,101,1,t5.png,t4.png,1,0.90025,20,male,2020-08-18_19h17.58.872,torte-2b,2020.1.3,Win32,60,12844,,,,,,,,,,,,,,,,,,,,,,,,,,,,,,,,,,,,,,,,,,,,,,,,,,,,,,,,,,,,,,,,,
,,,,,,,,,,,,l,1.092045,Correct!,0,62,62,34,1,t1.png,t5.png,4,9.55E-11,20,male,2020-08-18_19h17.58.872,torte-2b,2020.1.3,Win32,60,12844,,,,,,,,,,,,,,,,,,,,,,,,,,,,,,,,,,,,,,,,,,,,,,,,,,,,,,,,,,,,,,,,,
,,,,,,,,,,,,l,0.730785,Correct!,0,63,63,63,1,t1.png,t5.png,4,9.55E-11,20,male,2020-08-18_19h17.58.872,torte-2b,2020.1.3,Win32,60,12844,,,,,,,,,,,,,,,,,,,,,,,,,,,,,,,,,,,,,,,,,,,,,,,,,,,,,,,,,,,,,,,,,
,,,,,,,,,,,,a,1.153015,Correct!,0,64,64,58,1,t4.png,t5.png,1,0.90025,20,male,2020-08-18_19h17.58.872,torte-2b,2020.1.3,Win32,60,12844,,,,,,,,,,,,,,,,,,,,,,,,,,,,,,,,,,,,,,,,,,,,,,,,,,,,,,,,,,,,,,,,,
,,,,,,,,,,,,l,1.31054,Correct!,0,65,65,9,1,t1.png,t5.png,4,9.55E-11,20,male,2020-08-18_19h17.58.872,torte-2b,2020.1.3,Win32,60,12844,,,,,,,,,,,,,,,,,,,,,,,,,,,,,,,,,,,,,,,,,,,,,,,,,,,,,,,,,,,,,,,,,
,,,,,,,,,,,,a,1.528675,Correct!,0,66,66,4,1,t3.png,t2.png,1,0.90855,20,male,2020-08-18_19h17.58.872,torte-2b,2020.1.3,Win32,60,12844,,,,,,,,,,,,,,,,,,,,,,,,,,,,,,,,,,,,,,,,,,,,,,,,,,,,,,,,,,,,,,,,,
,,,,,,,,,,,,l,1.14933,Correct!,0,67,67,3,1,t4.png,t1.png,3,0.059078,20,male,2020-08-18_19h17.58.872,torte-2b,2020.1.3,Win32,60,12844,,,,,,,,,,,,,,,,,,,,,,,,,,,,,,,,,,,,,,,,,,,,,,,,,,,,,,,,,,,,,,,,,
,,,,,,,,,,,,a,1.093465,Correct!,0,68,68,7,1,t3.png,t2.png,1,0.90855,20,male,2020-08-18_19h17.58.872,torte-2b,2020.1.3,Win32,60,12844,,,,,,,,,,,,,,,,,,,,,,,,,,,,,,,,,,,,,,,,,,,,,,,,,,,,,,,,,,,,,,,,,
,,,,,,,,,,,,l,1.416245,Correct!,0,69,69,10,1,t4.png,t1.png,3,0.059078,20,male,2020-08-18_19h17.58.872,torte-2b,2020.1.3,Win32,60,12844,,,,,,,,,,,,,,,,,,,,,,,,,,,,,,,,,,,,,,,,,,,,,,,,,,,,,,,,,,,,,,,,,
,,,,,,,,,,,,l,1.582115,Correct!,0,70,70,96,1,t2.png,t4.png,2,0.059078,20,male,2020-08-18_19h17.58.872,torte-2b,2020.1.3,Win32,60,12844,,,,,,,,,,,,,,,,,,,,,,,,,,,,,,,,,,,,,,,,,,,,,,,,,,,,,,,,,,,,,,,,,
,,,,,,,,,,,,l,1.07034,Correct!,0,71,71,57,1,t3.png,t1.png,2,0.056466,20,male,2020-08-18_19h17.58.872,torte-2b,2020.1.3,Win32,60,12844,,,,,,,,,,,,,,,,,,,,,,,,,,,,,,,,,,,,,,,,,,,,,,,,,,,,,,,,,,,,,,,,,
,,,,,,,,,,,,l,0.93845,Correct!,0,72,72,95,1,t1.png,t4.png,3,0.0000131,20,male,2020-08-18_19h17.58.872,torte-2b,2020.1.3,Win32,60,12844,,,,,,,,,,,,,,,,,,,,,,,,,,,,,,,,,,,,,,,,,,,,,,,,,,,,,,,,,,,,,,,,,
,,,,,,,,,,,,a,0.869375,Correct!,0,73,73,22,1,t5.png,t5.png,0,0.97829,20,male,2020-08-18_19h17.58.872,torte-2b,2020.1.3,Win32,60,12844,,,,,,,,,,,,,,,,,,,,,,,,,,,,,,,,,,,,,,,,,,,,,,,,,,,,,,,,,,,,,,,,,
,,,,,,,,,,,,a,1.08348,Correct!,0,74,74,83,1,t3.png,t2.png,1,0.90855,20,male,2020-08-18_19h17.58.872,torte-2b,2020.1.3,Win32,60,12844,,,,,,,,,,,,,,,,,,,,,,,,,,,,,,,,,,,,,,,,,,,,,,,,,,,,,,,,,,,,,,,,,
,,,,,,,,,,,,l,0.782315,Correct!,0,75,75,36,1,t1.png,t4.png,3,0.0000131,20,male,2020-08-18_19h17.58.872,torte-2b,2020.1.3,Win32,60,12844,,,,,,,,,,,,,,,,,,,,,,,,,,,,,,,,,,,,,,,,,,,,,,,,,,,,,,,,,,,,,,,,,
,,,,,,,,,,,,l,1.027655,Incorrect,0,76,76,117,1,t2.png,t4.png,2,0.059078,20,male,2020-08-18_19h17.58.872,torte-2b,2020.1.3,Win32,60,12844,,,,,,,,,,,,,,,,,,,,,,,,,,,,,,,,,,,,,,,,,,,,,,,,,,,,,,,,,,,,,,,,,
,,,,,,,,,,,,l,1.18999,Correct!,0,77,77,17,1,t4.png,t1.png,3,0.059078,20,male,2020-08-18_19h17.58.872,torte-2b,2020.1.3,Win32,60,12844,,,,,,,,,,,,,,,,,,,,,,,,,,,,,,,,,,,,,,,,,,,,,,,,,,,,,,,,,,,,,,,,,
,,,,,,,,,,,,l,0.68535,Correct!,0,78,78,76,1,t4.png,t1.png,3,0.059078,20,male,2020-08-18_19h17.58.872,torte-2b,2020.1.3,Win32,60,12844,,,,,,,,,,,,,,,,,,,,,,,,,,,,,,,,,,,,,,,,,,,,,,,,,,,,,,,,,,,,,,,,,
,,,,,,,,,,,,a,1.046285,Correct!,0,79,79,12,1,t5.png,t5.png,0,0.97829,20,male,2020-08-18_19h17.58.872,torte-2b,2020.1.3,Win32,60,12844,,,,,,,,,,,,,,,,,,,,,,,,,,,,,,,,,,,,,,,,,,,,,,,,,,,,,,,,,,,,,,,,,
,,,,,,,,,,,,a,1.17238,Correct!,0,80,80,114,1,t5.png,t4.png,1,0.90025,20,male,2020-08-18_19h17.58.872,torte-2b,2020.1.3,Win32,60,12844,,,,,,,,,,,,,,,,,,,,,,,,,,,,,,,,,,,,,,,,,,,,,,,,,,,,,,,,,,,,,,,,,
,,,,,,,,,,,,a,0.875585,Correct!,0,81,81,46,1,t1.png,t1.png,0,0.97829,20,male,2020-08-18_19h17.58.872,torte-2b,2020.1.3,Win32,60,12844,,,,,,,,,,,,,,,,,,,,,,,,,,,,,,,,,,,,,,,,,,,,,,,,,,,,,,,,,,,,,,,,,
,,,,,,,,,,,,a,0.81767,Correct!,0,82,82,90,1,t4.png,t5.png,1,0.90025,20,male,2020-08-18_19h17.58.872,torte-2b,2020.1.3,Win32,60,12844,,,,,,,,,,,,,,,,,,,,,,,,,,,,,,,,,,,,,,,,,,,,,,,,,,,,,,,,,,,,,,,,,
,,,,,,,,,,,,l,1.302025,Correct!,0,83,83,103,1,t4.png,t1.png,3,0.059078,20,male,2020-08-18_19h17.58.872,torte-2b,2020.1.3,Win32,60,12844,,,,,,,,,,,,,,,,,,,,,,,,,,,,,,,,,,,,,,,,,,,,,,,,,,,,,,,,,,,,,,,,,
,,,,,,,,,,,,l,1.09799,Correct!,0,84,84,94,1,t3.png,t1.png,2,0.056466,20,male,2020-08-18_19h17.58.872,torte-2b,2020.1.3,Win32,60,12844,,,,,,,,,,,,,,,,,,,,,,,,,,,,,,,,,,,,,,,,,,,,,,,,,,,,,,,,,,,,,,,,,
,,,,,,,,,,,,l,0.89633,Correct!,0,85,85,49,1,t5.png,t1.png,4,9.55E-11,20,male,2020-08-18_19h17.58.872,torte-2b,2020.1.3,Win32,60,12844,,,,,,,,,,,,,,,,,,,,,,,,,,,,,,,,,,,,,,,,,,,,,,,,,,,,,,,,,,,,,,,,,
,,,,,,,,,,,,l,0.897545,Correct!,0,86,86,62,1,t1.png,t4.png,3,0.0000131,20,male,2020-08-18_19h17.58.872,torte-2b,2020.1.3,Win32,60,12844,,,,,,,,,,,,,,,,,,,,,,,,,,,,,,,,,,,,,,,,,,,,,,,,,,,,,,,,,,,,,,,,,
,,,,,,,,,,,,l,1.14883,Correct!,0,87,87,54,1,t3.png,t1.png,2,0.056466,20,male,2020-08-18_19h17.58.872,torte-2b,2020.1.3,Win32,60,12844,,,,,,,,,,,,,,,,,,,,,,,,,,,,,,,,,,,,,,,,,,,,,,,,,,,,,,,,,,,,,,,,,
,,,,,,,,,,,,l,1.037755,Correct!,0,88,88,80,1,t4.png,t1.png,3,0.059078,20,male,2020-08-18_19h17.58.872,torte-2b,2020.1.3,Win32,60,12844,,,,,,,,,,,,,,,,,,,,,,,,,,,,,,,,,,,,,,,,,,,,,,,,,,,,,,,,,,,,,,,,,
,,,,,,,,,,,,l,0.769185,Correct!,0,89,89,51,1,t4.png,t1.png,3,0.059078,20,male,2020-08-18_19h17.58.872,torte-2b,2020.1.3,Win32,60,12844,,,,,,,,,,,,,,,,,,,,,,,,,,,,,,,,,,,,,,,,,,,,,,,,,,,,,,,,,,,,,,,,,
,,,,,,,,,,,,a,0.890575,Correct!,0,90,90,53,1,t1.png,t1.png,0,0.97829,20,male,2020-08-18_19h17.58.872,torte-2b,2020.1.3,Win32,60,12844,,,,,,,,,,,,,,,,,,,,,,,,,,,,,,,,,,,,,,,,,,,,,,,,,,,,,,,,,,,,,,,,,
,,,,,,,,,,,,a,1.38874,Correct!,0,91,91,67,1,t3.png,t2.png,1,0.90855,20,male,2020-08-18_19h17.58.872,torte-2b,2020.1.3,Win32,60,12844,,,,,,,,,,,,,,,,,,,,,,,,,,,,,,,,,,,,,,,,,,,,,,,,,,,,,,,,,,,,,,,,,
,,,,,,,,,,,,l,0.961455,Correct!,0,92,92,50,1,t1.png,t5.png,4,9.55E-11,20,male,2020-08-18_19h17.58.872,torte-2b,2020.1.3,Win32,60,12844,,,,,,,,,,,,,,,,,,,,,,,,,,,,,,,,,,,,,,,,,,,,,,,,,,,,,,,,,,,,,,,,,
,,,,,,,,,,,,a,1.32959,Incorrect,0,93,93,104,1,t4.png,t5.png,1,0.90025,20,male,2020-08-18_19h17.58.872,torte-2b,2020.1.3,Win32,60,12844,,,,,,,,,,,,,,,,,,,,,,,,,,,,,,,,,,,,,,,,,,,,,,,,,,,,,,,,,,,,,,,,,
,,,,,,,,,,,,a,1.830425,Incorrect,0,94,94,43,1,t3.png,t1.png,2,0.056466,20,male,2020-08-18_19h17.58.872,torte-2b,2020.1.3,Win32,60,12844,,,,,,,,,,,,,,,,,,,,,,,,,,,,,,,,,,,,,,,,,,,,,,,,,,,,,,,,,,,,,,,,,
,,,,,,,,,,,,a,1.2421,Correct!,0,95,95,85,1,t5.png,t4.png,1,0.90025,20,male,2020-08-18_19h17.58.872,torte-2b,2020.1.3,Win32,60,12844,,,,,,,,,,,,,,,,,,,,,,,,,,,,,,,,,,,,,,,,,,,,,,,,,,,,,,,,,,,,,,,,,
,,,,,,,,,,,,a,1.07371,Correct!,0,96,96,100,1,t3.png,t2.png,1,0.90855,20,male,2020-08-18_19h17.58.872,torte-2b,2020.1.3,Win32,60,12844,,,,,,,,,,,,,,,,,,,,,,,,,,,,,,,,,,,,,,,,,,,,,,,,,,,,,,,,,,,,,,,,,
,,,,,,,,,,,,a,1.32221,Correct!,0,97,97,41,1,t4.png,t5.png,1,0.90025,20,male,2020-08-18_19h17.58.872,torte-2b,2020.1.3,Win32,60,12844,,,,,,,,,,,,,,,,,,,,,,,,,,,,,,,,,,,,,,,,,,,,,,,,,,,,,,,,,,,,,,,,,
,,,,,,,,,,,,l,0.685895,Correct!,0,98,98,118,1,t1.png,t5.png,4,9.55E-11,20,male,2020-08-18_19h17.58.872,torte-2b,2020.1.3,Win32,60,12844,,,,,,,,,,,,,,,,,,,,,,,,,,,,,,,,,,,,,,,,,,,,,,,,,,,,,,,,,,,,,,,,,
,,,,,,,,,,,,a,0.79641,Correct!,0,99,99,14,1,t2.png,t3.png,1,0.90855,20,male,2020-08-18_19h17.58.872,torte-2b,2020.1.3,Win32,60,12844,,,,,,,,,,,,,,,,,,,,,,,,,,,,,,,,,,,,,,,,,,,,,,,,,,,,,,,,,,,,,,,,,
,,,,,,,,,,,,a,1.33117,Correct!,0,100,100,112,1,t5.png,t4.png,1,0.90025,20,male,2020-08-18_19h17.58.872,torte-2b,2020.1.3,Win32,60,12844,,,,,,,,,,,,,,,,,,,,,,,,,,,,,,,,,,,,,,,,,,,,,,,,,,,,,,,,,,,,,,,,,
,,,,,,,,,,,,l,0.940685,Correct!,0,101,101,92,1,t5.png,t1.png,4,9.55E-11,20,male,2020-08-18_19h17.58.872,torte-2b,2020.1.3,Win32,60,12844,,,,,,,,,,,,,,,,,,,,,,,,,,,,,,,,,,,,,,,,,,,,,,,,,,,,,,,,,,,,,,,,,
,,,,,,,,,,,,a,0.757765,Correct!,0,102,102,110,1,t4.png,t5.png,1,0.90025,20,male,2020-08-18_19h17.58.872,torte-2b,2020.1.3,Win32,60,12844,,,,,,,,,,,,,,,,,,,,,,,,,,,,,,,,,,,,,,,,,,,,,,,,,,,,,,,,,,,,,,,,,
,,,,,,,,,,,,a,0.962175,Correct!,0,103,103,86,1,t5.png,t4.png,1,0.90025,20,male,2020-08-18_19h17.58.872,torte-2b,2020.1.3,Win32,60,12844,,,,,,,,,,,,,,,,,,,,,,,,,,,,,,,,,,,,,,,,,,,,,,,,,,,,,,,,,,,,,,,,,
,,,,,,,,,,,,l,0.72292,Correct!,0,104,104,89,1,t1.png,t5.png,4,9.55E-11,20,male,2020-08-18_19h17.58.872,torte-2b,2020.1.3,Win32,60,12844,,,,,,,,,,,,,,,,,,,,,,,,,,,,,,,,,,,,,,,,,,,,,,,,,,,,,,,,,,,,,,,,,
,,,,,,,,,,,,l,0.81689,Correct!,0,105,105,16,1,t1.png,t5.png,4,9.55E-11,20,male,2020-08-18_19h17.58.872,torte-2b,2020.1.3,Win32,60,12844,,,,,,,,,,,,,,,,,,,,,,,,,,,,,,,,,,,,,,,,,,,,,,,,,,,,,,,,,,,,,,,,,
,,,,,,,,,,,,l,1.1287,Correct!,0,106,106,1,1,t3.png,t1.png,2,0.056466,20,male,2020-08-18_19h17.58.872,torte-2b,2020.1.3,Win32,60,12844,,,,,,,,,,,,,,,,,,,,,,,,,,,,,,,,,,,,,,,,,,,,,,,,,,,,,,,,,,,,,,,,,
,,,,,,,,,,,,a,0.798115,Incorrect,0,107,107,0,1,t3.png,t2.png,1,0.90855,20,male,2020-08-18_19h17.58.872,torte-2b,2020.1.3,Win32,60,12844,,,,,,,,,,,,,,,,,,,,,,,,,,,,,,,,,,,,,,,,,,,,,,,,,,,,,,,,,,,,,,,,,
,,,,,,,,,,,,a,1.106445,Correct!,0,108,108,91,1,t5.png,t4.png,1,0.90025,20,male,2020-08-18_19h17.58.872,torte-2b,2020.1.3,Win32,60,12844,,,,,,,,,,,,,,,,,,,,,,,,,,,,,,,,,,,,,,,,,,,,,,,,,,,,,,,,,,,,,,,,,
,,,,,,,,,,,,l,1.16445,Correct!,0,109,109,40,1,t2.png,t4.png,2,0.059078,20,male,2020-08-18_19h17.58.872,torte-2b,2020.1.3,Win32,60,12844,,,,,,,,,,,,,,,,,,,,,,,,,,,,,,,,,,,,,,,,,,,,,,,,,,,,,,,,,,,,,,,,,
,,,,,,,,,,,,l,1.0242,Correct!,0,110,110,26,1,t1.png,t5.png,4,9.55E-11,20,male,2020-08-18_19h17.58.872,torte-2b,2020.1.3,Win32,60,12844,,,,,,,,,,,,,,,,,,,,,,,,,,,,,,,,,,,,,,,,,,,,,,,,,,,,,,,,,,,,,,,,,
,,,,,,,,,,,,l,0.81626,Correct!,0,111,111,98,1,t5.png,t1.png,4,9.55E-11,20,male,2020-08-18_19h17.58.872,torte-2b,2020.1.3,Win32,60,12844,,,,,,,,,,,,,,,,,,,,,,,,,,,,,,,,,,,,,,,,,,,,,,,,,,,,,,,,,,,,,,,,,
,,,,,,,,,,,,l,0.662495,Correct!,0,112,112,87,1,t5.png,t1.png,4,9.55E-11,20,male,2020-08-18_19h17.58.872,torte-2b,2020.1.3,Win32,60,12844,,,,,,,,,,,,,,,,,,,,,,,,,,,,,,,,,,,,,,,,,,,,,,,,,,,,,,,,,,,,,,,,,
,,,,,,,,,,,,a,0.83252,Correct!,0,113,113,97,1,t1.png,t1.png,0,0.97829,20,male,2020-08-18_19h17.58.872,torte-2b,2020.1.3,Win32,60,12844,,,,,,,,,,,,,,,,,,,,,,,,,,,,,,,,,,,,,,,,,,,,,,,,,,,,,,,,,,,,,,,,,
,,,,,,,,,,,,a,0.98447,Correct!,0,114,114,71,1,t4.png,t5.png,1,0.90025,20,male,2020-08-18_19h17.58.872,torte-2b,2020.1.3,Win32,60,12844,,,,,,,,,,,,,,,,,,,,,,,,,,,,,,,,,,,,,,,,,,,,,,,,,,,,,,,,,,,,,,,,,
,,,,,,,,,,,,a,1.362235,Correct!,0,115,115,21,1,t5.png,t4.png,1,0.90025,20,male,2020-08-18_19h17.58.872,torte-2b,2020.1.3,Win32,60,12844,,,,,,,,,,,,,,,,,,,,,,,,,,,,,,,,,,,,,,,,,,,,,,,,,,,,,,,,,,,,,,,,,
,,,,,,,,,,,,a,0.96798,Correct!,0,116,116,75,1,t2.png,t3.png,1,0.90855,20,male,2020-08-18_19h17.58.872,torte-2b,2020.1.3,Win32,60,12844,,,,,,,,,,,,,,,,,,,,,,,,,,,,,,,,,,,,,,,,,,,,,,,,,,,,,,,,,,,,,,,,,
,,,,,,,,,,,,l,0.745785,Correct!,0,117,117,99,1,t4.png,t1.png,3,0.059078,20,male,2020-08-18_19h17.58.872,torte-2b,2020.1.3,Win32,60,12844,,,,,,,,,,,,,,,,,,,,,,,,,,,,,,,,,,,,,,,,,,,,,,,,,,,,,,,,,,,,,,,,,
,,,,,,,,,,,,a,0.86323,Correct!,0,118,118,31,1,t1.png,t1.png,0,0.97829,20,male,2020-08-18_19h17.58.872,torte-2b,2020.1.3,Win32,60,12844,,,,,,,,,,,,,,,,,,,,,,,,,,,,,,,,,,,,,,,,,,,,,,,,,,,,,,,,,,,,,,,,,
,,,,,,,,,,,,a,0.843065,Correct!,0,119,119,20,1,t5.png,t5.png,0,0.97829,20,male,2020-08-18_19h17.58.872,torte-2b,2020.1.3,Win32,60,12844,,,,,,,,,,,,,,,,,,,,,,,,,,,,,,,,,,,,,,,,,,,,,,,,,,,,,,,,,,,,,,,,,
,,,,,,,,,,,,a,0.73851,Correct!,,,,,,t2.png,t2.png,0,0.98115,20,male,2020-08-18_19h17.58.872,torte-2b,2020.1.3,Win32,60,12844,space,2.118495,space,5.7183,0,0,0,7,1,,,,,,,,,,,,,,,,,,,,,,,,,,,,,,,,,,,,,,,,,,,,,,,,,,,,,,,,
,,,,,,,,,,,,a,0.86269,Correct!,,,,,,t4.png,t4.png,0,0.98115,20,male,2020-08-18_19h17.58.872,torte-2b,2020.1.3,Win32,60,12844,,,,,0,1,1,68,1,,,,,,,,,,,,,,,,,,,,,,,,,,,,,,,,,,,,,,,,,,,,,,,,,,,,,,,,
,,,,,,,,,,,,l,0.677565,Correct!,,,,,,t3.png,t5.png,2,0.056466,20,male,2020-08-18_19h17.58.872,torte-2b,2020.1.3,Win32,60,12844,,,,,0,2,2,78,1,,,,,,,,,,,,,,,,,,,,,,,,,,,,,,,,,,,,,,,,,,,,,,,,,,,,,,,,
,,,,,,,,,,,,l,1.02289,Correct!,,,,,,t3.png,t1.png,2,0.056466,20,male,2020-08-18_19h17.58.872,torte-2b,2020.1.3,Win32,60,12844,,,,,0,3,3,34,1,,,,,,,,,,,,,,,,,,,,,,,,,,,,,,,,,,,,,,,,,,,,,,,,,,,,,,,,
,,,,,,,,,,,,l,0.703625,Correct!,,,,,,t5.png,t1.png,4,9.55E-11,20,male,2020-08-18_19h17.58.872,torte-2b,2020.1.3,Win32,60,12844,,,,,0,4,4,117,1,,,,,,,,,,,,,,,,,,,,,,,,,,,,,,,,,,,,,,,,,,,,,,,,,,,,,,,,
,,,,,,,,,,,,a,1.29988,Correct!,,,,,,t3.png,t4.png,1,0.90855,20,male,2020-08-18_19h17.58.872,torte-2b,2020.1.3,Win32,60,12844,,,,,0,5,5,5,1,,,,,,,,,,,,,,,,,,,,,,,,,,,,,,,,,,,,,,,,,,,,,,,,,,,,,,,,
,,,,,,,,,,,,l,0.95439,Correct!,,,,,,t5.png,t2.png,3,0.0000131,20,male,2020-08-18_19h17.58.872,torte-2b,2020.1.3,Win32,60,12844,,,,,0,6,6,48,1,,,,,,,,,,,,,,,,,,,,,,,,,,,,,,,,,,,,,,,,,,,,,,,,,,,,,,,,
,,,,,,,,,,,,l,0.99472,Correct!,,,,,,t5.png,t2.png,3,0.0000131,20,male,2020-08-18_19h17.58.872,torte-2b,2020.1.3,Win32,60,12844,,,,,0,7,7,66,1,,,,,,,,,,,,,,,,,,,,,,,,,,,,,,,,,,,,,,,,,,,,,,,,,,,,,,,,
,,,,,,,,,,,,a,0.906675,Correct!,,,,,,t2.png,t1.png,1,0.90025,20,male,2020-08-18_19h17.58.872,torte-2b,2020.1.3,Win32,60,12844,,,,,0,8,8,44,1,,,,,,,,,,,,,,,,,,,,,,,,,,,,,,,,,,,,,,,,,,,,,,,,,,,,,,,,
,,,,,,,,,,,,a,0.778285,Correct!,,,,,,t3.png,t2.png,1,0.90855,20,male,2020-08-18_19h17.58.872,torte-2b,2020.1.3,Win32,60,12844,,,,,0,9,9,10,1,,,,,,,,,,,,,,,,,,,,,,,,,,,,,,,,,,,,,,,,,,,,,,,,,,,,,,,,
,,,,,,,,,,,,a,1.03831,Correct!,,,,,,t4.png,t5.png,1,0.9,20,male,2020-08-18_19h17.58.872,torte-2b,2020.1.3,Win32,60,12844,,,,,0,10,10,81,1,,,,,,,,,,,,,,,,,,,,,,,,,,,,,,,,,,,,,,,,,,,,,,,,,,,,,,,,
,,,,,,,,,,,,a,0.848825,Correct!,,,,,,t4.png,t4.png,0,0.98115,20,male,2020-08-18_19h17.58.872,torte-2b,2020.1.3,Win32,60,12844,,,,,0,11,11,59,1,,,,,,,,,,,,,,,,,,,,,,,,,,,,,,,,,,,,,,,,,,,,,,,,,,,,,,,,
,,,,,,,,,,,,l,0.85998,Correct!,,,,,,t5.png,t2.png,3,0.0000131,20,male,2020-08-18_19h17.58.872,torte-2b,2020.1.3,Win32,60,12844,,,,,0,12,12,43,1,,,,,,,,,,,,,,,,,,,,,,,,,,,,,,,,,,,,,,,,,,,,,,,,,,,,,,,,
,,,,,,,,,,,,a,1.05949,Correct!,,,,,,t5.png,t5.png,0,0.978,20,male,2020-08-18_19h17.58.872,torte-2b,2020.1.3,Win32,60,12844,,,,,0,13,13,116,1,,,,,,,,,,,,,,,,,,,,,,,,,,,,,,,,,,,,,,,,,,,,,,,,,,,,,,,,
,,,,,,,,,,,,l,0.927185,Correct!,,,,,,t5.png,t1.png,4,9.55E-11,20,male,2020-08-18_19h17.58.872,torte-2b,2020.1.3,Win32,60,12844,,,,,0,14,14,15,1,,,,,,,,,,,,,,,,,,,,,,,,,,,,,,,,,,,,,,,,,,,,,,,,,,,,,,,,
,,,,,,,,,,,,a,0.719715,Correct!,,,,,,t1.png,t2.png,1,0.9,20,male,2020-08-18_19h17.58.872,torte-2b,2020.1.3,Win32,60,12844,,,,,0,15,15,61,1,,,,,,,,,,,,,,,,,,,,,,,,,,,,,,,,,,,,,,,,,,,,,,,,,,,,,,,,
,,,,,,,,,,,,a,0.85441,Correct!,,,,,,t5.png,t4.png,1,0.90025,20,male,2020-08-18_19h17.58.872,torte-2b,2020.1.3,Win32,60,12844,,,,,0,16,16,38,1,,,,,,,,,,,,,,,,,,,,,,,,,,,,,,,,,,,,,,,,,,,,,,,,,,,,,,,,
,,,,,,,,,,,,l,0.869815,Correct!,,,,,,t2.png,t4.png,2,0.059078,20,male,2020-08-18_19h17.58.872,torte-2b,2020.1.3,Win32,60,12844,,,,,0,17,17,97,1,,,,,,,,,,,,,,,,,,,,,,,,,,,,,,,,,,,,,,,,,,,,,,,,,,,,,,,,
,,,,,,,,,,,,a,1.478665,Correct!,,,,,,t5.png,t5.png,0,0.97829,20,male,2020-08-18_19h17.58.872,torte-2b,2020.1.3,Win32,60,12844,,,,,0,18,18,77,1,,,,,,,,,,,,,,,,,,,,,,,,,,,,,,,,,,,,,,,,,,,,,,,,,,,,,,,,
,,,,,,,,,,,,l,1.42598,Correct!,,,,,,t5.png,t3.png,2,0.056466,20,male,2020-08-18_19h17.58.872,torte-2b,2020.1.3,Win32,60,12844,,,,,0,19,19,80,1,,,,,,,,,,,,,,,,,,,,,,,,,,,,,,,,,,,,,,,,,,,,,,,,,,,,,,,,
,,,,,,,,,,,,a,0.72964,Correct!,,,,,,t1.png,t1.png,0,0.978,20,male,2020-08-18_19h17.58.872,torte-2b,2020.1.3,Win32,60,12844,,,,,0,20,20,13,1,,,,,,,,,,,,,,,,,,,,,,,,,,,,,,,,,,,,,,,,,,,,,,,,,,,,,,,,
,,,,,,,,,,,,l,0.76725,Correct!,,,,,,t1.png,t5.png,4,9.55E-11,20,male,2020-08-18_19h17.58.872,torte-2b,2020.1.3,Win32,60,12844,,,,,0,21,21,30,1,,,,,,,,,,,,,,,,,,,,,,,,,,,,,,,,,,,,,,,,,,,,,,,,,,,,,,,,
,,,,,,,,,,,,a,1.249565,Correct!,,,,,,t3.png,t4.png,1,0.90855,20,male,2020-08-18_19h17.58.872,torte-2b,2020.1.3,Win32,60,12844,,,,,0,22,22,58,1,,,,,,,,,,,,,,,,,,,,,,,,,,,,,,,,,,,,,,,,,,,,,,,,,,,,,,,,
,,,,,,,,,,,,l,0.687975,Correct!,,,,,,t2.png,t5.png,3,0.0000131,20,male,2020-08-18_19h17.58.872,torte-2b,2020.1.3,Win32,60,12844,,,,,0,23,23,85,1,,,,,,,,,,,,,,,,,,,,,,,,,,,,,,,,,,,,,,,,,,,,,,,,,,,,,,,,
,,,,,,,,,,,,l,1.634095,Correct!,,,,,,t5.png,t3.png,2,0.056466,20,male,2020-08-18_19h17.58.872,torte-2b,2020.1.3,Win32,60,12844,,,,,0,24,24,27,1,,,,,,,,,,,,,,,,,,,,,,,,,,,,,,,,,,,,,,,,,,,,,,,,,,,,,,,,
,,,,,,,,,,,,a,0.89271,Correct!,,,,,,t4.png,t4.png,0,0.98115,20,male,2020-08-18_19h17.58.872,torte-2b,2020.1.3,Win32,60,12844,,,,,0,25,25,19,1,,,,,,,,,,,,,,,,,,,,,,,,,,,,,,,,,,,,,,,,,,,,,,,,,,,,,,,,
,,,,,,,,,,,,a,1.308125,Correct!,,,,,,t2.png,t1.png,1,0.90025,20,male,2020-08-18_19h17.58.872,torte-2b,2020.1.3,Win32,60,12844,,,,,0,26,26,65,1,,,,,,,,,,,,,,,,,,,,,,,,,,,,,,,,,,,,,,,,,,,,,,,,,,,,,,,,
,,,,,,,,,,,,a,0.97596,Correct!,,,,,,t1.png,t2.png,1,0.90025,20,male,2020-08-18_19h17.58.872,torte-2b,2020.1.3,Win32,60,12844,,,,,0,27,27,96,1,,,,,,,,,,,,,,,,,,,,,,,,,,,,,,,,,,,,,,,,,,,,,,,,,,,,,,,,
,,,,,,,,,,,,l,0.59745,Correct!,,,,,,t4.png,t1.png,3,0.0000131,20,male,2020-08-18_19h17.58.872,torte-2b,2020.1.3,Win32,60,12844,,,,,0,28,28,91,1,,,,,,,,,,,,,,,,,,,,,,,,,,,,,,,,,,,,,,,,,,,,,,,,,,,,,,,,
,,,,,,,,,,,,a,1.00016,Incorrect,,,,,,t5.png,t2.png,3,0.0000131,20,male,2020-08-18_19h17.58.872,torte-2b,2020.1.3,Win32,60,12844,,,,,0,29,29,82,1,,,,,,,,,,,,,,,,,,,,,,,,,,,,,,,,,,,,,,,,,,,,,,,,,,,,,,,,
,,,,,,,,,,,,a,1.147485,Correct!,,,,,,t5.png,t4.png,1,0.90025,20,male,2020-08-18_19h17.58.872,torte-2b,2020.1.3,Win32,60,12844,,,,,0,30,30,25,1,,,,,,,,,,,,,,,,,,,,,,,,,,,,,,,,,,,,,,,,,,,,,,,,,,,,,,,,
,,,,,,,,,,,,a,1.015855,Correct!,,,,,,t4.png,t5.png,1,0.90025,20,male,2020-08-18_19h17.58.872,torte-2b,2020.1.3,Win32,60,12844,,,,,0,31,31,33,1,,,,,,,,,,,,,,,,,,,,,,,,,,,,,,,,,,,,,,,,,,,,,,,,,,,,,,,,
,,,,,,,,,,,,l,0.80192,Correct!,,,,,,t1.png,t5.png,4,9.55E-11,20,male,2020-08-18_19h17.58.872,torte-2b,2020.1.3,Win32,60,12844,,,,,0,32,32,3,1,,,,,,,,,,,,,,,,,,,,,,,,,,,,,,,,,,,,,,,,,,,,,,,,,,,,,,,,
,,,,,,,,,,,,a,0.91493,Correct!,,,,,,t3.png,t4.png,1,0.90855,20,male,2020-08-18_19h17.58.872,torte-2b,2020.1.3,Win32,60,12844,,,,,0,33,33,103,1,,,,,,,,,,,,,,,,,,,,,,,,,,,,,,,,,,,,,,,,,,,,,,,,,,,,,,,,
,,,,,,,,,,,,l,1.17328,Incorrect,,,,,,t3.png,t2.png,1,0.90855,20,male,2020-08-18_19h17.58.872,torte-2b,2020.1.3,Win32,60,12844,,,,,0,34,34,108,1,,,,,,,,,,,,,,,,,,,,,,,,,,,,,,,,,,,,,,,,,,,,,,,,,,,,,,,,
,,,,,,,,,,,,a,1.425255,Correct!,,,,,,t4.png,t3.png,1,0.90855,20,male,2020-08-18_19h17.58.872,torte-2b,2020.1.3,Win32,60,12844,,,,,0,35,35,11,1,,,,,,,,,,,,,,,,,,,,,,,,,,,,,,,,,,,,,,,,,,,,,,,,,,,,,,,,
,,,,,,,,,,,,a,0.963665,Correct!,,,,,,t4.png,t3.png,1,0.90855,20,male,2020-08-18_19h17.58.872,torte-2b,2020.1.3,Win32,60,12844,,,,,0,36,36,29,1,,,,,,,,,,,,,,,,,,,,,,,,,,,,,,,,,,,,,,,,,,,,,,,,,,,,,,,,
,,,,,,,,,,,,a,0.91526,Correct!,,,,,,t2.png,t3.png,1,0.90855,20,male,2020-08-18_19h17.58.872,torte-2b,2020.1.3,Win32,60,12844,,,,,0,37,37,113,1,,,,,,,,,,,,,,,,,,,,,,,,,,,,,,,,,,,,,,,,,,,,,,,,,,,,,,,,
,,,,,,,,,,,,l,0.73019,Correct!,,,,,,t3.png,t1.png,2,0.0565,20,male,2020-08-18_19h17.58.872,torte-2b,2020.1.3,Win32,60,12844,,,,,0,38,38,40,1,,,,,,,,,,,,,,,,,,,,,,,,,,,,,,,,,,,,,,,,,,,,,,,,,,,,,,,,
,,,,,,,,,,,,l,0.909885,Correct!,,,,,,t3.png,t5.png,2,0.056466,20,male,2020-08-18_19h17.58.872,torte-2b,2020.1.3,Win32,60,12844,,,,,0,39,39,60,1,,,,,,,,,,,,,,,,,,,,,,,,,,,,,,,,,,,,,,,,,,,,,,,,,,,,,,,,
,,,,,,,,,,,,l,0.786255,Correct!,,,,,,t4.png,t1.png,3,0.059078,20,male,2020-08-18_19h17.58.872,torte-2b,2020.1.3,Win32,60,12844,,,,,0,40,40,87,1,,,,,,,,,,,,,,,,,,,,,,,,,,,,,,,,,,,,,,,,,,,,,,,,,,,,,,,,
,,,,,,,,,,,,l,0.7817,Correct!,,,,,,t5.png,t1.png,4,9.55E-11,20,male,2020-08-18_19h17.58.872,torte-2b,2020.1.3,Win32,60,12844,,,,,0,41,41,31,1,,,,,,,,,,,,,,,,,,,,,,,,,,,,,,,,,,,,,,,,,,,,,,,,,,,,,,,,
,,,,,,,,,,,,a,0.650645,Correct!,,,,,,t1.png,t1.png,0,0.97829,20,male,2020-08-18_19h17.58.872,torte-2b,2020.1.3,Win32,60,12844,,,,,0,42,42,4,1,,,,,,,,,,,,,,,,,,,,,,,,,,,,,,,,,,,,,,,,,,,,,,,,,,,,,,,,
,,,,,,,,,,,,a,0.86676,Correct!,,,,,,t5.png,t5.png,0,0.97829,20,male,2020-08-18_19h17.58.872,torte-2b,2020.1.3,Win32,60,12844,,,,,0,43,43,2,1,,,,,,,,,,,,,,,,,,,,,,,,,,,,,,,,,,,,,,,,,,,,,,,,,,,,,,,,
,,,,,,,,,,,,l,0.648035,Correct!,,,,,,t1.png,t5.png,4,9.55E-11,20,male,2020-08-18_19h17.58.872,torte-2b,2020.1.3,Win32,60,12844,,,,,0,44,44,20,1,,,,,,,,,,,,,,,,,,,,,,,,,,,,,,,,,,,,,,,,,,,,,,,,,,,,,,,,
,,,,,,,,,,,,a,0.90778,Correct!,,,,,,t3.png,t2.png,1,0.90855,20,male,2020-08-18_19h17.58.872,torte-2b,2020.1.3,Win32,60,12844,,,,,0,45,45,0,1,,,,,,,,,,,,,,,,,,,,,,,,,,,,,,,,,,,,,,,,,,,,,,,,,,,,,,,,
,,,,,,,,,,,,l,0.726555,Correct!,,,,,,t3.png,t1.png,2,0.0565,20,male,2020-08-18_19h17.58.872,torte-2b,2020.1.3,Win32,60,12844,,,,,0,46,46,104,1,,,,,,,,,,,,,,,,,,,,,,,,,,,,,,,,,,,,,,,,,,,,,,,,,,,,,,,,
,,,,,,,,,,,,a,0.884665,Correct!,,,,,,t1.png,t2.png,1,0.9,20,male,2020-08-18_19h17.58.872,torte-2b,2020.1.3,Win32,60,12844,,,,,0,47,47,41,1,,,,,,,,,,,,,,,,,,,,,,,,,,,,,,,,,,,,,,,,,,,,,,,,,,,,,,,,
,,,,,,,,,,,,l,0.596375,Correct!,,,,,,t5.png,t1.png,4,9.55E-11,20,male,2020-08-18_19h17.58.872,torte-2b,2020.1.3,Win32,60,12844,,,,,0,48,48,89,1,,,,,,,,,,,,,,,,,,,,,,,,,,,,,,,,,,,,,,,,,,,,,,,,,,,,,,,,
,,,,,,,,,,,,a,1.31656,Correct!,,,,,,t1.png,t2.png,1,0.90025,20,male,2020-08-18_19h17.58.872,torte-2b,2020.1.3,Win32,60,12844,,,,,0,49,49,6,1,,,,,,,,,,,,,,,,,,,,,,,,,,,,,,,,,,,,,,,,,,,,,,,,,,,,,,,,
,,,,,,,,,,,,l,0.72573,Correct!,,,,,,t2.png,t5.png,3,0.0000131,20,male,2020-08-18_19h17.58.872,torte-2b,2020.1.3,Win32,60,12844,,,,,0,50,50,39,1,,,,,,,,,,,,,,,,,,,,,,,,,,,,,,,,,,,,,,,,,,,,,,,,,,,,,,,,
,,,,,,,,,,,,a,0.772095,Correct!,,,,,,t2.png,t2.png,0,0.98115,20,male,2020-08-18_19h17.58.872,torte-2b,2020.1.3,Win32,60,12844,,,,,0,51,51,90,1,,,,,,,,,,,,,,,,,,,,,,,,,,,,,,,,,,,,,,,,,,,,,,,,,,,,,,,,
,,,,,,,,,,,,a,0.892405,Incorrect,,,,,,t5.png,t4.png,1,0.9,20,male,2020-08-18_19h17.58.872,torte-2b,2020.1.3,Win32,60,12844,,,,,0,52,52,55,1,,,,,,,,,,,,,,,,,,,,,,,,,,,,,,,,,,,,,,,,,,,,,,,,,,,,,,,,
,,,,,,,,,,,,l,0.748565,Correct!,,,,,,t5.png,t2.png,3,0.0000131,20,male,2020-08-18_19h17.58.872,torte-2b,2020.1.3,Win32,60,12844,,,,,0,53,53,83,1,,,,,,,,,,,,,,,,,,,,,,,,,,,,,,,,,,,,,,,,,,,,,,,,,,,,,,,,
,,,,,,,,,,,,l,1.39132,Correct!,,,,,,t1.png,t4.png,3,0.0000131,20,male,2020-08-18_19h17.58.872,torte-2b,2020.1.3,Win32,60,12844,,,,,0,54,54,16,1,,,,,,,,,,,,,,,,,,,,,,,,,,,,,,,,,,,,,,,,,,,,,,,,,,,,,,,,
,,,,,,,,,,,,a,0.78144,Correct!,,,,,,t5.png,t5.png,0,0.97829,20,male,2020-08-18_19h17.58.872,torte-2b,2020.1.3,Win32,60,12844,,,,,0,55,55,35,1,,,,,,,,,,,,,,,,,,,,,,,,,,,,,,,,,,,,,,,,,,,,,,,,,,,,,,,,
,,,,,,,,,,,,a,1.4983,Correct!,,,,,,t3.png,t4.png,1,0.90855,20,male,2020-08-18_19h17.58.872,torte-2b,2020.1.3,Win32,60,12844,,,,,0,56,56,9,1,,,,,,,,,,,,,,,,,,,,,,,,,,,,,,,,,,,,,,,,,,,,,,,,,,,,,,,,
,,,,,,,,,,,,l,1.03605,Correct!,,,,,,t2.png,t5.png,3,0.0000131,20,male,2020-08-18_19h17.58.872,torte-2b,2020.1.3,Win32,60,12844,,,,,0,57,57,115,1,,,,,,,,,,,,,,,,,,,,,,,,,,,,,,,,,,,,,,,,,,,,,,,,,,,,,,,,
,,,,,,,,,,,,a,1.121705,Correct!,,,,,,t2.png,t3.png,1,0.90855,20,male,2020-08-18_19h17.58.872,torte-2b,2020.1.3,Win32,60,12844,,,,,0,58,58,64,1,,,,,,,,,,,,,,,,,,,,,,,,,,,,,,,,,,,,,,,,,,,,,,,,,,,,,,,,
,,,,,,,,,,,,a,0.809755,Correct!,,,,,,t2.png,t2.png,0,0.98115,20,male,2020-08-18_19h17.58.872,torte-2b,2020.1.3,Win32,60,12844,,,,,0,59,59,69,1,,,,,,,,,,,,,,,,,,,,,,,,,,,,,,,,,,,,,,,,,,,,,,,,,,,,,,,,
,,,,,,,,,,,,a,1.075775,Correct!,,,,,,t4.png,t3.png,1,0.909,20,male,2020-08-18_19h17.58.872,torte-2b,2020.1.3,Win32,60,12844,,,,,0,60,60,119,1,,,,,,,,,,,,,,,,,,,,,,,,,,,,,,,,,,,,,,,,,,,,,,,,,,,,,,,,
,,,,,,,,,,,,a,0.87074,Correct!,,,,,,t2.png,t3.png,1,0.909,20,male,2020-08-18_19h17.58.872,torte-2b,2020.1.3,Win32,60,12844,,,,,0,61,61,8,1,,,,,,,,,,,,,,,,,,,,,,,,,,,,,,,,,,,,,,,,,,,,,,,,,,,,,,,,
,,,,,,,,,,,,l,0.91068,Correct!,,,,,,t1.png,t3.png,2,0.0565,20,male,2020-08-18_19h17.58.872,torte-2b,2020.1.3,Win32,60,12844,,,,,0,62,62,42,1,,,,,,,,,,,,,,,,,,,,,,,,,,,,,,,,,,,,,,,,,,,,,,,,,,,,,,,,
,,,,,,,,,,,,l,0.848195,Correct!,,,,,,t1.png,t3.png,2,0.0565,20,male,2020-08-18_19h17.58.872,torte-2b,2020.1.3,Win32,60,12844,,,,,0,63,63,95,1,,,,,,,,,,,,,,,,,,,,,,,,,,,,,,,,,,,,,,,,,,,,,,,,,,,,,,,,
,,,,,,,,,,,,l,0.788775,Correct!,,,,,,t1.png,t3.png,2,0.0565,20,male,2020-08-18_19h17.58.872,torte-2b,2020.1.3,Win32,60,12844,,,,,0,64,64,12,1,,,,,,,,,,,,,,,,,,,,,,,,,,,,,,,,,,,,,,,,,,,,,,,,,,,,,,,,
,,,,,,,,,,,,l,1.06498,Correct!,,,,,,t1.png,t4.png,3,0.0000131,20,male,2020-08-18_19h17.58.872,torte-2b,2020.1.3,Win32,60,12844,,,,,0,65,65,74,1,,,,,,,,,,,,,,,,,,,,,,,,,,,,,,,,,,,,,,,,,,,,,,,,,,,,,,,,
,,,,,,,,,,,,l,0.564155,Correct!,,,,,,t1.png,t5.png,4,9.55E-11,20,male,2020-08-18_19h17.58.872,torte-2b,2020.1.3,Win32,60,12844,,,,,0,66,66,118,1,,,,,,,,,,,,,,,,,,,,,,,,,,,,,,,,,,,,,,,,,,,,,,,,,,,,,,,,
,,,,,,,,,,,,a,0.85317,Correct!,,,,,,t4.png,t4.png,0,0.98115,20,male,2020-08-18_19h17.58.872,torte-2b,2020.1.3,Win32,60,12844,,,,,0,67,67,88,1,,,,,,,,,,,,,,,,,,,,,,,,,,,,,,,,,,,,,,,,,,,,,,,,,,,,,,,,
,,,,,,,,,,,,a,0.613755,Correct!,,,,,,t4.png,t4.png,0,0.98115,20,male,2020-08-18_19h17.58.872,torte-2b,2020.1.3,Win32,60,12844,,,,,0,68,68,52,1,,,,,,,,,,,,,,,,,,,,,,,,,,,,,,,,,,,,,,,,,,,,,,,,,,,,,,,,
,,,,,,,,,,,,a,0.829,Correct!,,,,,,t4.png,t5.png,1,0.90025,20,male,2020-08-18_19h17.58.872,torte-2b,2020.1.3,Win32,60,12844,,,,,0,69,69,63,1,,,,,,,,,,,,,,,,,,,,,,,,,,,,,,,,,,,,,,,,,,,,,,,,,,,,,,,,
,,,,,,,,,,,,l,0.74903,Correct!,,,,,,t4.png,t1.png,3,0.0000131,20,male,2020-08-18_19h17.58.872,torte-2b,2020.1.3,Win32,60,12844,,,,,0,70,70,49,1,,,,,,,,,,,,,,,,,,,,,,,,,,,,,,,,,,,,,,,,,,,,,,,,,,,,,,,,
,,,,,,,,,,,,l,1.082515,Correct!,,,,,,t3.png,t1.png,2,0.056466,20,male,2020-08-18_19h17.58.872,torte-2b,2020.1.3,Win32,60,12844,,,,,0,71,71,72,1,,,,,,,,,,,,,,,,,,,,,,,,,,,,,,,,,,,,,,,,,,,,,,,,,,,,,,,,
,,,,,,,,,,,,l,0.842905,Correct!,,,,,,t5.png,t3.png,2,0.056466,20,male,2020-08-18_19h17.58.872,torte-2b,2020.1.3,Win32,60,12844,,,,,0,72,72,26,1,,,,,,,,,,,,,,,,,,,,,,,,,,,,,,,,,,,,,,,,,,,,,,,,,,,,,,,,
,,,,,,,,,,,,l,1.41139,Incorrect,,,,,,t2.png,t4.png,2,0.059078,20,male,2020-08-18_19h17.58.872,torte-2b,2020.1.3,Win32,60,12844,,,,,0,73,73,53,1,,,,,,,,,,,,,,,,,,,,,,,,,,,,,,,,,,,,,,,,,,,,,,,,,,,,,,,,
,,,,,,,,,,,,l,0.78746,Correct!,,,,,,t3.png,t5.png,2,0.0565,20,male,2020-08-18_19h17.58.872,torte-2b,2020.1.3,Win32,60,12844,,,,,0,74,74,71,1,,,,,,,,,,,,,,,,,,,,,,,,,,,,,,,,,,,,,,,,,,,,,,,,,,,,,,,,
,,,,,,,,,,,,l,0.85577,Correct!,,,,,,t1.png,t4.png,3,0.0000131,20,male,2020-08-18_19h17.58.872,torte-2b,2020.1.3,Win32,60,12844,,,,,0,75,75,23,1,,,,,,,,,,,,,,,,,,,,,,,,,,,,,,,,,,,,,,,,,,,,,,,,,,,,,,,,
,,,,,,,,,,,,a,0.74273,Correct!,,,,,,t2.png,t2.png,0,0.981,20,male,2020-08-18_19h17.58.872,torte-2b,2020.1.3,Win32,60,12844,,,,,0,76,76,98,1,,,,,,,,,,,,,,,,,,,,,,,,,,,,,,,,,,,,,,,,,,,,,,,,,,,,,,,,
,,,,,,,,,,,,l,0.5948,Correct!,,,,,,t2.png,t5.png,3,0.0000131,20,male,2020-08-18_19h17.58.872,torte-2b,2020.1.3,Win32,60,12844,,,,,0,77,77,54,1,,,,,,,,,,,,,,,,,,,,,,,,,,,,,,,,,,,,,,,,,,,,,,,,,,,,,,,,
,,,,,,,,,,,,l,1.024805,Correct!,,,,,,t1.png,t3.png,2,0.056466,20,male,2020-08-18_19h17.58.872,torte-2b,2020.1.3,Win32,60,12844,,,,,0,78,78,32,1,,,,,,,,,,,,,,,,,,,,,,,,,,,,,,,,,,,,,,,,,,,,,,,,,,,,,,,,
,,,,,,,,,,,,a,1.301395,Correct!,,,,,,t3.png,t4.png,1,0.90855,20,male,2020-08-18_19h17.58.872,torte-2b,2020.1.3,Win32,60,12844,,,,,0,79,79,111,1,,,,,,,,,,,,,,,,,,,,,,,,,,,,,,,,,,,,,,,,,,,,,,,,,,,,,,,,
,,,,,,,,,,,,a,1.107875,Correct!,,,,,,t2.png,t3.png,1,0.90855,20,male,2020-08-18_19h17.58.872,torte-2b,2020.1.3,Win32,60,12844,,,,,0,80,80,70,1,,,,,,,,,,,,,,,,,,,,,,,,,,,,,,,,,,,,,,,,,,,,,,,,,,,,,,,,
,,,,,,,,,,,,a,1.354595,Correct!,,,,,,t4.png,t3.png,1,0.909,20,male,2020-08-18_19h17.58.872,torte-2b,2020.1.3,Win32,60,12844,,,,,0,81,81,107,1,,,,,,,,,,,,,,,,,,,,,,,,,,,,,,,,,,,,,,,,,,,,,,,,,,,,,,,,
,,,,,,,,,,,,l,1.23548,Correct!,,,,,,t4.png,t1.png,3,0.059078,20,male,2020-08-18_19h17.58.872,torte-2b,2020.1.3,Win32,60,12844,,,,,0,82,82,75,1,,,,,,,,,,,,,,,,,,,,,,,,,,,,,,,,,,,,,,,,,,,,,,,,,,,,,,,,
,,,,,,,,,,,,l,0.8616,Correct!,,,,,,t4.png,t1.png,3,0.0000131,20,male,2020-08-18_19h17.58.872,torte-2b,2020.1.3,Win32,60,12844,,,,,0,83,83,102,1,,,,,,,,,,,,,,,,,,,,,,,,,,,,,,,,,,,,,,,,,,,,,,,,,,,,,,,,
,,,,,,,,,,,,a,1.27415,Correct!,,,,,,t4.png,t5.png,1,0.90025,20,male,2020-08-18_19h17.58.872,torte-2b,2020.1.3,Win32,60,12844,,,,,0,84,84,21,1,,,,,,,,,,,,,,,,,,,,,,,,,,,,,,,,,,,,,,,,,,,,,,,,,,,,,,,,
,,,,,,,,,,,,a,1.16625,Correct!,,,,,,t4.png,t3.png,1,0.90855,20,male,2020-08-18_19h17.58.872,torte-2b,2020.1.3,Win32,60,12844,,,,,0,85,85,56,1,,,,,,,,,,,,,,,,,,,,,,,,,,,,,,,,,,,,,,,,,,,,,,,,,,,,,,,,
,,,,,,,,,,,,a,0.89794,Correct!,,,,,,t1.png,t2.png,1,0.9,20,male,2020-08-18_19h17.58.872,torte-2b,2020.1.3,Win32,60,12844,,,,,0,86,86,17,1,,,,,,,,,,,,,,,,,,,,,,,,,,,,,,,,,,,,,,,,,,,,,,,,,,,,,,,,
,,,,,,,,,,,,a,0.657755,Correct!,,,,,,t2.png,t1.png,1,0.90025,20,male,2020-08-18_19h17.58.872,torte-2b,2020.1.3,Win32,60,12844,,,,,0,87,87,105,1,,,,,,,,,,,,,,,,,,,,,,,,,,,,,,,,,,,,,,,,,,,,,,,,,,,,,,,,
,,,,,,,,,,,,l,0.769555,Correct!,,,,,,t4.png,t1.png,3,0.059078,20,male,2020-08-18_19h17.58.872,torte-2b,2020.1.3,Win32,60,12844,,,,,0,88,88,57,1,,,,,,,,,,,,,,,,,,,,,,,,,,,,,,,,,,,,,,,,,,,,,,,,,,,,,,,,
,,,,,,,,,,,,l,0.900295,Correct!,,,,,,t3.png,t5.png,2,0.056466,20,male,2020-08-18_19h17.58.872,torte-2b,2020.1.3,Win32,60,12844,,,,,0,89,89,45,1,,,,,,,,,,,,,,,,,,,,,,,,,,,,,,,,,,,,,,,,,,,,,,,,,,,,,,,,
,,,,,,,,,,,,a,0.8666,Incorrect,,,,,,t2.png,t3.png,1,0.90855,20,male,2020-08-18_19h17.58.872,torte-2b,2020.1.3,Win32,60,12844,,,,,0,90,90,79,1,,,,,,,,,,,,,,,,,,,,,,,,,,,,,,,,,,,,,,,,,,,,,,,,,,,,,,,,
,,,,,,,,,,,,l,0.64771,Correct!,,,,,,t4.png,t1.png,3,0.0000131,20,male,2020-08-18_19h17.58.872,torte-2b,2020.1.3,Win32,60,12844,,,,,0,91,91,28,1,,,,,,,,,,,,,,,,,,,,,,,,,,,,,,,,,,,,,,,,,,,,,,,,,,,,,,,,
,,,,,,,,,,,,l,0.74528,Correct!,,,,,,t2.png,t4.png,2,0.059078,20,male,2020-08-18_19h17.58.872,torte-2b,2020.1.3,Win32,60,12844,,,,,0,92,92,18,1,,,,,,,,,,,,,,,,,,,,,,,,,,,,,,,,,,,,,,,,,,,,,,,,,,,,,,,,
,,,,,,,,,,,,l,0.703465,Correct!,,,,,,t1.png,t4.png,3,0.0000131,20,male,2020-08-18_19h17.58.872,torte-2b,2020.1.3,Win32,60,12844,,,,,0,93,93,106,1,,,,,,,,,,,,,,,,,,,,,,,,,,,,,,,,,,,,,,,,,,,,,,,,,,,,,,,,
,,,,,,,,,,,,a,0.99772,Correct!,,,,,,t1.png,t1.png,0,0.978,20,male,2020-08-18_19h17.58.872,torte-2b,2020.1.3,Win32,60,12844,,,,,0,94,94,22,1,,,,,,,,,,,,,,,,,,,,,,,,,,,,,,,,,,,,,,,,,,,,,,,,,,,,,,,,
,,,,,,,,,,,,a,0.86677,Correct!,,,,,,t5.png,t4.png,1,0.90025,20,male,2020-08-18_19h17.58.872,torte-2b,2020.1.3,Win32,60,12844,,,,,0,95,95,14,1,,,,,,,,,,,,,,,,,,,,,,,,,,,,,,,,,,,,,,,,,,,,,,,,,,,,,,,,
,,,,,,,,,,,,l,1.389335,Correct!,,,,,,t4.png,t1.png,3,0.059078,20,male,2020-08-18_19h17.58.872,torte-2b,2020.1.3,Win32,60,12844,,,,,0,96,96,73,1,,,,,,,,,,,,,,,,,,,,,,,,,,,,,,,,,,,,,,,,,,,,,,,,,,,,,,,,
,,,,,,,,,,,,l,1.096205,Correct!,,,,,,t3.png,t5.png,2,0.056466,20,male,2020-08-18_19h17.58.872,torte-2b,2020.1.3,Win32,60,12844,,,,,0,97,97,47,1,,,,,,,,,,,,,,,,,,,,,,,,,,,,,,,,,,,,,,,,,,,,,,,,,,,,,,,,
,,,,,,,,,,,,a,0.681365,Correct!,,,,,,t1.png,t1.png,0,0.97829,20,male,2020-08-18_19h17.58.872,torte-2b,2020.1.3,Win32,60,12844,,,,,0,98,98,114,1,,,,,,,,,,,,,,,,,,,,,,,,,,,,,,,,,,,,,,,,,,,,,,,,,,,,,,,,
,,,,,,,,,,,,a,0.85073,Correct!,,,,,,t5.png,t5.png,0,0.978,20,male,2020-08-18_19h17.58.872,torte-2b,2020.1.3,Win32,60,12844,,,,,0,99,99,51,1,,,,,,,,,,,,,,,,,,,,,,,,,,,,,,,,,,,,,,,,,,,,,,,,,,,,,,,,
,,,,,,,,,,,,a,0.771615,Correct!,,,,,,t5.png,t4.png,1,0.9,20,male,2020-08-18_19h17.58.872,torte-2b,2020.1.3,Win32,60,12844,,,,,0,100,100,92,1,,,,,,,,,,,,,,,,,,,,,,,,,,,,,,,,,,,,,,,,,,,,,,,,,,,,,,,,
,,,,,,,,,,,,l,1.068065,Correct!,,,,,,t5.png,t1.png,4,9.55E-11,20,male,2020-08-18_19h17.58.872,torte-2b,2020.1.3,Win32,60,12844,,,,,0,101,101,101,1,,,,,,,,,,,,,,,,,,,,,,,,,,,,,,,,,,,,,,,,,,,,,,,,,,,,,,,,
,,,,,,,,,,,,a,0.765225,Correct!,,,,,,t1.png,t1.png,0,0.97829,20,male,2020-08-18_19h17.58.872,torte-2b,2020.1.3,Win32,60,12844,,,,,0,102,102,110,1,,,,,,,,,,,,,,,,,,,,,,,,,,,,,,,,,,,,,,,,,,,,,,,,,,,,,,,,
,,,,,,,,,,,,l,1.60456,Correct!,,,,,,t4.png,t1.png,3,0.0000131,20,male,2020-08-18_19h17.58.872,torte-2b,2020.1.3,Win32,60,12844,,,,,0,103,103,76,1,,,,,,,,,,,,,,,,,,,,,,,,,,,,,,,,,,,,,,,,,,,,,,,,,,,,,,,,
,,,,,,,,,,,,l,1.6943,Correct!,,,,,,t2.png,t4.png,2,0.059078,20,male,2020-08-18_19h17.58.872,torte-2b,2020.1.3,Win32,60,12844,,,,,0,104,104,67,1,,,,,,,,,,,,,,,,,,,,,,,,,,,,,,,,,,,,,,,,,,,,,,,,,,,,,,,,
,,,,,,,,,,,,l,1.14769,Correct!,,,,,,t5.png,t3.png,2,0.056466,20,male,2020-08-18_19h17.58.872,torte-2b,2020.1.3,Win32,60,12844,,,,,0,105,105,37,1,,,,,,,,,,,,,,,,,,,,,,,,,,,,,,,,,,,,,,,,,,,,,,,,,,,,,,,,
,,,,,,,,,,,,l,0.832095,Correct!,,,,,,t2.png,t5.png,3,0.0000131,20,male,2020-08-18_19h17.58.872,torte-2b,2020.1.3,Win32,60,12844,,,,,0,106,106,46,1,,,,,,,,,,,,,,,,,,,,,,,,,,,,,,,,,,,,,,,,,,,,,,,,,,,,,,,,
,,,,,,,,,,,,a,0.73784,Correct!,,,,,,t2.png,t2.png,0,0.98115,20,male,2020-08-18_19h17.58.872,torte-2b,2020.1.3,Win32,60,12844,,,,,0,107,107,112,1,,,,,,,,,,,,,,,,,,,,,,,,,,,,,,,,,,,,,,,,,,,,,,,,,,,,,,,,
,,,,,,,,,,,,a,0.794365,Correct!,,,,,,t2.png,t1.png,1,0.9,20,male,2020-08-18_19h17.58.872,torte-2b,2020.1.3,Win32,60,12844,,,,,0,108,108,100,1,,,,,,,,,,,,,,,,,,,,,,,,,,,,,,,,,,,,,,,,,,,,,,,,,,,,,,,,
,,,,,,,,,,,,l,1.010695,Correct!,,,,,,t3.png,t1.png,2,0.056466,20,male,2020-08-18_19h17.58.872,torte-2b,2020.1.3,Win32,60,12844,,,,,0,109,109,109,1,,,,,,,,,,,,,,,,,,,,,,,,,,,,,,,,,,,,,,,,,,,,,,,,,,,,,,,,
,,,,,,,,,,,,l,1.200245,Correct!,,,,,,t4.png,t1.png,3,0.059078,20,male,2020-08-18_19h17.58.872,torte-2b,2020.1.3,Win32,60,12844,,,,,0,110,110,62,1,,,,,,,,,,,,,,,,,,,,,,,,,,,,,,,,,,,,,,,,,,,,,,,,,,,,,,,,
,,,,,,,,,,,,l,0.82626,Correct!,,,,,,t1.png,t5.png,4,9.55E-11,20,male,2020-08-18_19h17.58.872,torte-2b,2020.1.3,Win32,60,12844,,,,,0,111,111,1,1,,,,,,,,,,,,,,,,,,,,,,,,,,,,,,,,,,,,,,,,,,,,,,,,,,,,,,,,
,,,,,,,,,,,,a,1.70621,Correct!,,,,,,t3.png,t2.png,1,0.90855,20,male,2020-08-18_19h17.58.872,torte-2b,2020.1.3,Win32,60,12844,,,,,0,112,112,94,1,,,,,,,,,,,,,,,,,,,,,,,,,,,,,,,,,,,,,,,,,,,,,,,,,,,,,,,,
,,,,,,,,,,,,a,1.66412,Correct!,,,,,,t4.png,t5.png,1,0.90025,20,male,2020-08-18_19h17.58.872,torte-2b,2020.1.3,Win32,60,12844,,,,,0,113,113,86,1,,,,,,,,,,,,,,,,,,,,,,,,,,,,,,,,,,,,,,,,,,,,,,,,,,,,,,,,
,,,,,,,,,,,,l,0.87755,Correct!,,,,,,t2.png,t4.png,2,0.059078,20,male,2020-08-18_19h17.58.872,torte-2b,2020.1.3,Win32,60,12844,,,,,0,114,114,84,1,,,,,,,,,,,,,,,,,,,,,,,,,,,,,,,,,,,,,,,,,,,,,,,,,,,,,,,,
,,,,,,,,,,,,l,1.66156,Correct!,,,,,,t5.png,t3.png,2,0.0565,20,male,2020-08-18_19h17.58.872,torte-2b,2020.1.3,Win32,60,12844,,,,,0,115,115,50,1,,,,,,,,,,,,,,,,,,,,,,,,,,,,,,,,,,,,,,,,,,,,,,,,,,,,,,,,
,,,,,,,,,,,,l,0.963705,Correct!,,,,,,t1.png,t3.png,2,0.056466,20,male,2020-08-18_19h17.58.872,torte-2b,2020.1.3,Win32,60,12844,,,,,0,116,116,24,1,,,,,,,,,,,,,,,,,,,,,,,,,,,,,,,,,,,,,,,,,,,,,,,,,,,,,,,,
,,,,,,,,,,,,a,1.13235,Correct!,,,,,,t3.png,t2.png,1,0.90855,20,male,2020-08-18_19h17.58.872,torte-2b,2020.1.3,Win32,60,12844,,,,,0,117,117,99,1,,,,,,,,,,,,,,,,,,,,,,,,,,,,,,,,,,,,,,,,,,,,,,,,,,,,,,,,
,,,,,,,,,,,,l,0.83348,Correct!,,,,,,t1.png,t4.png,3,0.0000131,20,male,2020-08-18_19h17.58.872,torte-2b,2020.1.3,Win32,60,12844,,,,,0,118,118,36,1,,,,,,,,,,,,,,,,,,,,,,,,,,,,,,,,,,,,,,,,,,,,,,,,,,,,,,,,
,,,,,,,,,,,,a,0.75088,Correct!,,,,,,t2.png,t1.png,1,0.9,20,male,2020-08-18_19h17.58.872,torte-2b,2020.1.3,Win32,60,12844,,,,,0,119,119,93,1,,,,,,,,,,,,,,,,,,,,,,,,,,,,,,,,,,,,,,,,,,,,,,,,,,,,,,,,
,,,,,,,,,,,,,,,,,,,,,,,,20,male,2020-08-18_19h17.58.872,torte-2b,2020.1.3,Win32,60,12844,space,1.537425,,,,,,,,space,21.64327,,0,0,0,0,1,6,,,,,,,,,,,,,,,,,,,,,,,,,,,,,,,,,,,,,,,,,,,,,,,
,,,,,,,,,,,,,,,,,,,,,,,,20,male,2020-08-18_19h17.58.872,torte-2b,2020.1.3,Win32,60,12844,,,,,,,,,,,,,0,1,1,1,1,7,,,,,,,,,,,,,,,,,,,,,,,,,,,,,,,,,,,,,,,,,,,,,,,
,,,,,,,,,,,,,,,,,,,,,,,,20,male,2020-08-18_19h17.58.872,torte-2b,2020.1.3,Win32,60,12844,,,,,,,,,,,,space,0,2,2,2,1,6,0.63502,,,,,,,,,,,,,,,,,,,,,,,,,,,,,,,,,,,,,,,,,,,,,,
,,,,,,,,,,,,,,,,,,,,,,,,20,male,2020-08-18_19h17.58.872,torte-2b,2020.1.3,Win32,60,12844,,,,,,,,,,,,space,0,3,3,3,1,7,0.425445,,,,,,,,,,,,,,,,,,,,,,,,,,,,,,,,,,,,,,,,,,,,,,
,,,,,,,,,,,,,,,,,,,,,,,,20,male,2020-08-18_19h17.58.872,torte-2b,2020.1.3,Win32,60,12844,,,,,,,,,,,,,0,4,4,4,1,5,,,,,,,,,,,,,,,,,,,,,,,,,,,,,,,,,,,,,,,,,,,,,,,
,,,,,,,,,,,,,,,,,,,,,,,,20,male,2020-08-18_19h17.58.872,torte-2b,2020.1.3,Win32,60,12844,,,,,,,,,,,,space,0,5,5,5,1,7,0.417425,,,,,,,,,,,,,,,,,,,,,,,,,,,,,,,,,,,,,,,,,,,,,,
,,,,,,,,,,,,,,,,,,,,,,,,20,male,2020-08-18_19h17.58.872,torte-2b,2020.1.3,Win32,60,12844,,,,,,,,,,,,,0,6,6,6,1,2,,,,,,,,,,,,,,,,,,,,,,,,,,,,,,,,,,,,,,,,,,,,,,,
,,,,,,,,,,,,,,,,,,,,,,,,20,male,2020-08-18_19h17.58.872,torte-2b,2020.1.3,Win32,60,12844,,,,,,,,,,,,,0,7,7,7,1,4,,,,,,,,,,,,,,,,,,,,,,,,,,,,,,,,,,,,,,,,,,,,,,,
,,,,,,,,,,,,,,,,,,,,,,,,20,male,2020-08-18_19h17.58.872,torte-2b,2020.1.3,Win32,60,12844,,,,,,,,,,,,,0,8,8,8,1,7,,,,,,,,,,,,,,,,,,,,,,,,,,,,,,,,,,,,,,,,,,,,,,,
,,,,,,,,,,,,,,,,,,,,,,,,20,male,2020-08-18_19h17.58.872,torte-2b,2020.1.3,Win32,60,12844,,,,,,,,,,,,space,0,9,9,9,1,4,0.830525,,,,,,,,,,,,,,,,,,,,,,,,,,,,,,,,,,,,,,,,,,,,,,
,,,,,,,,,,,,,,,,,,,,,,,,20,male,2020-08-18_19h17.58.872,torte-2b,2020.1.3,Win32,60,12844,,,,,,,,,,,,space,0,10,10,10,1,7,0.43787,,,,,,,,,,,,,,,,,,,,,,,,,,,,,,,,,,,,,,,,,,,,,,
,,,,,,,,,,,,,,,,,,,,,,,,20,male,2020-08-18_19h17.58.872,torte-2b,2020.1.3,Win32,60,12844,,,,,,,,,,,,,0,11,11,11,1,7,,,,,,,,,,,,,,,,,,,,,,,,,,,,,,,,,,,,,,,,,,,,,,,
,,,,,,,,,,,,,,,,,,,,,,,,20,male,2020-08-18_19h17.58.872,torte-2b,2020.1.3,Win32,60,12844,,,,,,,,,,,,space,0,12,12,12,1,7,0.63436,,,,,,,,,,,,,,,,,,,,,,,,,,,,,,,,,,,,,,,,,,,,,,
,,,,,,,,,,,,,,,,,,,,,,,,20,male,2020-08-18_19h17.58.872,torte-2b,2020.1.3,Win32,60,12844,,,,,,,,,,,,,0,13,13,13,1,4,,,,,,,,,,,,,,,,,,,,,,,,,,,,,,,,,,,,,,,,,,,,,,,
,,,,,,,,,,,,,,,,,,,,,,,,20,male,2020-08-18_19h17.58.872,torte-2b,2020.1.3,Win32,60,12844,,,,,,,,,,,,,0,14,14,14,1,6,,,,,,,,,,,,,,,,,,,,,,,,,,,,,,,,,,,,,,,,,,,,,,,
,,,,,,,,,,,,,,,,,,,,,,,,20,male,2020-08-18_19h17.58.872,torte-2b,2020.1.3,Win32,60,12844,,,,,,,,,,,,space,0,15,15,15,1,4,0.471565,,,,,,,,,,,,,,,,,,,,,,,,,,,,,,,,,,,,,,,,,,,,,,
,,,,,,,,,,,,,,,,,,,,,,,,20,male,2020-08-18_19h17.58.872,torte-2b,2020.1.3,Win32,60,12844,,,,,,,,,,,,space,0,16,16,16,1,6,0.56743,,,,,,,,,,,,,,,,,,,,,,,,,,,,,,,,,,,,,,,,,,,,,,
,,,,,,,,,,,,,,,,,,,,,,,,20,male,2020-08-18_19h17.58.872,torte-2b,2020.1.3,Win32,60,12844,,,,,,,,,,,,,0,17,17,17,1,7,,,,,,,,,,,,,,,,,,,,,,,,,,,,,,,,,,,,,,,,,,,,,,,
,,,,,,,,,,,,,,,,,,,,,,,,20,male,2020-08-18_19h17.58.872,torte-2b,2020.1.3,Win32,60,12844,,,,,,,,,,,,space,0,18,18,18,1,6,0.520865,,,,,,,,,,,,,,,,,,,,,,,,,,,,,,,,,,,,,,,,,,,,,,
,,,,,,,,,,,,,,,,,,,,,,,,20,male,2020-08-18_19h17.58.872,torte-2b,2020.1.3,Win32,60,12844,,,,,,,,,,,,space,0,19,19,19,1,7,0.448245,,,,,,,,,,,,,,,,,,,,,,,,,,,,,,,,,,,,,,,,,,,,,,
,,,,,,,,,,,,,,,,,,,,,,,,20,male,2020-08-18_19h17.58.872,torte-2b,2020.1.3,Win32,60,12844,,,,,,,,,,,,,0,20,20,20,1,5,,,,,,,,,,,,,,,,,,,,,,,,,,,,,,,,,,,,,,,,,,,,,,,
,,,,,,,,,,,,,,,,,,,,,,,,20,male,2020-08-18_19h17.58.872,torte-2b,2020.1.3,Win32,60,12844,,,,,,,,,,,,,0,21,21,21,1,1,,,,,,,,,,,,,,,,,,,,,,,,,,,,,,,,,,,,,,,,,,,,,,,
,,,,,,,,,,,,,,,,,,,,,,,,20,male,2020-08-18_19h17.58.872,torte-2b,2020.1.3,Win32,60,12844,,,,,,,,,,,,,0,22,22,22,1,6,,,,,,,,,,,,,,,,,,,,,,,,,,,,,,,,,,,,,,,,,,,,,,,
,,,,,,,,,,,,,,,,,,,,,,,,20,male,2020-08-18_19h17.58.872,torte-2b,2020.1.3,Win32,60,12844,,,,,,,,,,,,space,0,23,23,23,1,1,0.39983,,,,,,,,,,,,,,,,,,,,,,,,,,,,,,,,,,,,,,,,,,,,,,
,,,,,,,,,,,,,,,,,,,,,,,,20,male,2020-08-18_19h17.58.872,torte-2b,2020.1.3,Win32,60,12844,,,,,,,,,,,,,0,24,24,24,1,5,,,,,,,,,,,,,,,,,,,,,,,,,,,,,,,,,,,,,,,,,,,,,,,
,,,,,,,,,,,,,,,,,,,,,,,,20,male,2020-08-18_19h17.58.872,torte-2b,2020.1.3,Win32,60,12844,,,,,,,,,,,,,0,25,25,25,1,6,,,,,,,,,,,,,,,,,,,,,,,,,,,,,,,,,,,,,,,,,,,,,,,
,,,,,,,,,,,,,,,,,,,,,,,,20,male,2020-08-18_19h17.58.872,torte-2b,2020.1.3,Win32,60,12844,,,,,,,,,,,,,0,26,26,26,1,6,,,,,,,,,,,,,,,,,,,,,,,,,,,,,,,,,,,,,,,,,,,,,,,
,,,,,,,,,,,,,,,,,,,,,,,,20,male,2020-08-18_19h17.58.872,torte-2b,2020.1.3,Win32,60,12844,,,,,,,,,,,,space,0,27,27,27,1,6,0.40123,,,,,,,,,,,,,,,,,,,,,,,,,,,,,,,,,,,,,,,,,,,,,,
,,,,,,,,,,,,,,,,,,,,,,,,20,male,2020-08-18_19h17.58.872,torte-2b,2020.1.3,Win32,60,12844,,,,,,,,,,,,,0,28,28,28,1,5,,,,,,,,,,,,,,,,,,,,,,,,,,,,,,,,,,,,,,,,,,,,,,,
,,,,,,,,,,,,,,,,,,,,,,,,20,male,2020-08-18_19h17.58.872,torte-2b,2020.1.3,Win32,60,12844,,,,,,,,,,,,,0,29,29,29,1,2,,,,,,,,,,,,,,,,,,,,,,,,,,,,,,,,,,,,,,,,,,,,,,,
,,,,,,,,,,,,,,,,,,,,,,,,20,male,2020-08-18_19h17.58.872,torte-2b,2020.1.3,Win32,60,12844,,,,,,,,,,,,space,0,30,30,30,1,5,0.41167,,,,,,,,,,,,,,,,,,,,,,,,,,,,,,,,,,,,,,,,,,,,,,
,,,,,,,,,,,,,,,,,,,,,,,,20,male,2020-08-18_19h17.58.872,torte-2b,2020.1.3,Win32,60,12844,,,,,,,,,,,,space,0,31,31,31,1,2,0.422865,,,,,,,,,,,,,,,,,,,,,,,,,,,,,,,,,,,,,,,,,,,,,,
,,,,,,,,,,,,,,,,,,,,,,,,20,male,2020-08-18_19h17.58.872,torte-2b,2020.1.3,Win32,60,12844,,,,,,,,,,,,space,0,32,32,32,1,5,0.381505,,,,,,,,,,,,,,,,,,,,,,,,,,,,,,,,,,,,,,,,,,,,,,
,,,,,,,,,,,,,,,,,,,,,,,,20,male,2020-08-18_19h17.58.872,torte-2b,2020.1.3,Win32,60,12844,,,,,,,,,,,,,0,33,33,33,1,1,,,,,,,,,,,,,,,,,,,,,,,,,,,,,,,,,,,,,,,,,,,,,,,
,,,,,,,,,,,,,,,,,,,,,,,,20,male,2020-08-18_19h17.58.872,torte-2b,2020.1.3,Win32,60,12844,,,,,,,,,,,,,0,34,34,34,1,1,,,,,,,,,,,,,,,,,,,,,,,,,,,,,,,,,,,,,,,,,,,,,,,
,,,,,,,,,,,,,,,,,,,,,,,,20,male,2020-08-18_19h17.58.872,torte-2b,2020.1.3,Win32,60,12844,,,,,,,,,,,,,,,,,,2,,0,0,0,0,1,,,,,,,,,,,,,,,,,,,,,,,,,,,,,,,,,,,,,,,,,
,,,,,,,,,,,,,,,,,,,,,,,,20,male,2020-08-18_19h17.58.872,torte-2b,2020.1.3,Win32,60,12844,,,,,,,,,,,,,,,,,,2,,0,1,1,1,1,,,,,,,,,,,,,,,,,,,,,,,,,,,,,,,,,,,,,,,,,
,,,,,,,,,,,,,,,,,,,,,,,,20,male,2020-08-18_19h17.58.872,torte-2b,2020.1.3,Win32,60,12844,,,,,,,,,,,,,,,,,,6,,0,2,2,2,1,,,,,,,,,,,,,,,,,,,,,,,,,,,,,,,,,,,,,,,,,
,,,,,,,,,,,,,,,,,,,,,,,,20,male,2020-08-18_19h17.58.872,torte-2b,2020.1.3,Win32,60,12844,,,,,,,,,,,,space,,,,,,2,0.391935,0,3,3,3,1,,,,,,,,,,,,,,,,,,,,,,,,,,,,,,,,,,,,,,,,,
,,,,,,,,,,,,,,,,,,,,,,,,20,male,2020-08-18_19h17.58.872,torte-2b,2020.1.3,Win32,60,12844,,,,,,,,,,,,space,,,,,,6,0.38513,0,4,4,4,1,,,,,,,,,,,,,,,,,,,,,,,,,,,,,,,,,,,,,,,,,
,,,,,,,,,,,,,,,,,,,,,,,,20,male,2020-08-18_19h17.58.872,torte-2b,2020.1.3,Win32,60,12844,,,,,,,,,,,,space,,,,,,2,0.354595,0,5,5,5,1,,,,,,,,,,,,,,,,,,,,,,,,,,,,,,,,,,,,,,,,,
,,,,,,,,,,,,,,,,,,,,,,,,20,male,2020-08-18_19h17.58.872,torte-2b,2020.1.3,Win32,60,12844,,,,,,,,,,,,,,,,,,7,,0,6,6,6,1,,,,,,,,,,,,,,,,,,,,,,,,,,,,,,,,,,,,,,,,,
,,,,,,,,,,,,,,,,,,,,,,,,20,male,2020-08-18_19h17.58.872,torte-2b,2020.1.3,Win32,60,12844,,,,,,,,,,,,space,,,,,,2,0.365255,0,7,7,7,1,,,,,,,,,,,,,,,,,,,,,,,,,,,,,,,,,,,,,,,,,
,,,,,,,,,,,,,,,,,,,,,,,,20,male,2020-08-18_19h17.58.872,torte-2b,2020.1.3,Win32,60,12844,,,,,,,,,,,,space,,,,,,7,0.371185,0,8,8,8,1,,,,,,,,,,,,,,,,,,,,,,,,,,,,,,,,,,,,,,,,,
,,,,,,,,,,,,,,,,,,,,,,,,20,male,2020-08-18_19h17.58.872,torte-2b,2020.1.3,Win32,60,12844,,,,,,,,,,,,space,,,,,,2,0.464385,0,9,9,9,1,,,,,,,,,,,,,,,,,,,,,,,,,,,,,,,,,,,,,,,,,
,,,,,,,,,,,,,,,,,,,,,,,,20,male,2020-08-18_19h17.58.872,torte-2b,2020.1.3,Win32,60,12844,,,,,,,,,,,,,,,,,,5,,0,10,10,10,1,,,,,,,,,,,,,,,,,,,,,,,,,,,,,,,,,,,,,,,,,
,,,,,,,,,,,,,,,,,,,,,,,,20,male,2020-08-18_19h17.58.872,torte-2b,2020.1.3,Win32,60,12844,,,,,,,,,,,,,,,,,,4,,0,11,11,11,1,,,,,,,,,,,,,,,,,,,,,,,,,,,,,,,,,,,,,,,,,
,,,,,,,,,,,,,,,,,,,,,,,,20,male,2020-08-18_19h17.58.872,torte-2b,2020.1.3,Win32,60,12844,,,,,,,,,,,,space,,,,,,5,0.63172,0,12,12,12,1,,,,,,,,,,,,,,,,,,,,,,,,,,,,,,,,,,,,,,,,,
,,,,,,,,,,,,,,,,,,,,,,,,20,male,2020-08-18_19h17.58.872,torte-2b,2020.1.3,Win32,60,12844,,,,,,,,,,,,,,,,,,6,,0,13,13,13,1,,,,,,,,,,,,,,,,,,,,,,,,,,,,,,,,,,,,,,,,,
,,,,,,,,,,,,,,,,,,,,,,,,20,male,2020-08-18_19h17.58.872,torte-2b,2020.1.3,Win32,60,12844,,,,,,,,,,,,space,,,,,,5,0.3227,0,14,14,14,1,,,,,,,,,,,,,,,,,,,,,,,,,,,,,,,,,,,,,,,,,
,,,,,,,,,,,,,,,,,,,,,,,,20,male,2020-08-18_19h17.58.872,torte-2b,2020.1.3,Win32,60,12844,,,,,,,,,,,,,,,,,,4,,0,15,15,15,1,,,,,,,,,,,,,,,,,,,,,,,,,,,,,,,,,,,,,,,,,
,,,,,,,,,,,,,,,,,,,,,,,,20,male,2020-08-18_19h17.58.872,torte-2b,2020.1.3,Win32,60,12844,,,,,,,,,,,,space,,,,,,5,0.4179,0,16,16,16,1,,,,,,,,,,,,,,,,,,,,,,,,,,,,,,,,,,,,,,,,,
,,,,,,,,,,,,,,,,,,,,,,,,20,male,2020-08-18_19h17.58.872,torte-2b,2020.1.3,Win32,60,12844,,,,,,,,,,,,,,,,,,3,,0,17,17,17,1,,,,,,,,,,,,,,,,,,,,,,,,,,,,,,,,,,,,,,,,,
,,,,,,,,,,,,,,,,,,,,,,,,20,male,2020-08-18_19h17.58.872,torte-2b,2020.1.3,Win32,60,12844,,,,,,,,,,,,,,,,,,6,,0,18,18,18,1,,,,,,,,,,,,,,,,,,,,,,,,,,,,,,,,,,,,,,,,,
,,,,,,,,,,,,,,,,,,,,,,,,20,male,2020-08-18_19h17.58.872,torte-2b,2020.1.3,Win32,60,12844,,,,,,,,,,,,,,,,,,6,,0,19,19,19,1,,,,,,,,,,,,,,,,,,,,,,,,,,,,,,,,,,,,,,,,,
,,,,,,,,,,,,,,,,,,,,,,,,20,male,2020-08-18_19h17.58.872,torte-2b,2020.1.3,Win32,60,12844,,,,,,,,,,,,space,,,,,,6,0.38417,0,20,20,20,1,,,,,,,,,,,,,,,,,,,,,,,,,,,,,,,,,,,,,,,,,
,,,,,,,,,,,,,,,,,,,,,,,,20,male,2020-08-18_19h17.58.872,torte-2b,2020.1.3,Win32,60,12844,,,,,,,,,,,,,,,,,,4,,0,21,21,21,1,,,,,,,,,,,,,,,,,,,,,,,,,,,,,,,,,,,,,,,,,
,,,,,,,,,,,,,,,,,,,,,,,,20,male,2020-08-18_19h17.58.872,torte-2b,2020.1.3,Win32,60,12844,,,,,,,,,,,,space,,,,,,6,0.464825,0,22,22,22,1,,,,,,,,,,,,,,,,,,,,,,,,,,,,,,,,,,,,,,,,,
,,,,,,,,,,,,,,,,,,,,,,,,20,male,2020-08-18_19h17.58.872,torte-2b,2020.1.3,Win32,60,12844,,,,,,,,,,,,space,,,,,,4,0.329895,0,23,23,23,1,,,,,,,,,,,,,,,,,,,,,,,,,,,,,,,,,,,,,,,,,
,,,,,,,,,,,,,,,,,,,,,,,,20,male,2020-08-18_19h17.58.872,torte-2b,2020.1.3,Win32,60,12844,,,,,,,,,,,,space,,,,,,6,0.39677,0,24,24,24,1,,,,,,,,,,,,,,,,,,,,,,,,,,,,,,,,,,,,,,,,,
,,,,,,,,,,,,,,,,,,,,,,,,20,male,2020-08-18_19h17.58.872,torte-2b,2020.1.3,Win32,60,12844,,,,,,,,,,,,space,,,,,,6,0.741735,0,25,25,25,1,,,,,,,,,,,,,,,,,,,,,,,,,,,,,,,,,,,,,,,,,
,,,,,,,,,,,,,,,,,,,,,,,,20,male,2020-08-18_19h17.58.872,torte-2b,2020.1.3,Win32,60,12844,,,,,,,,,,,,,,,,,,7,,0,26,26,26,1,,,,,,,,,,,,,,,,,,,,,,,,,,,,,,,,,,,,,,,,,
,,,,,,,,,,,,,,,,,,,,,,,,20,male,2020-08-18_19h17.58.872,torte-2b,2020.1.3,Win32,60,12844,,,,,,,,,,,,space,,,,,,1,0.425695,0,27,27,27,1,,,,,,,,,,,,,,,,,,,,,,,,,,,,,,,,,,,,,,,,,
,,,,,,,,,,,,,,,,,,,,,,,,20,male,2020-08-18_19h17.58.872,torte-2b,2020.1.3,Win32,60,12844,,,,,,,,,,,,space,,,,,,7,0.69381,0,28,28,28,1,,,,,,,,,,,,,,,,,,,,,,,,,,,,,,,,,,,,,,,,,
,,,,,,,,,,,,,,,,,,,,,,,,20,male,2020-08-18_19h17.58.872,torte-2b,2020.1.3,Win32,60,12844,,,,,,,,,,,,,,,,,,4,,0,29,29,29,1,,,,,,,,,,,,,,,,,,,,,,,,,,,,,,,,,,,,,,,,,
,,,,,,,,,,,,,,,,,,,,,,,,20,male,2020-08-18_19h17.58.872,torte-2b,2020.1.3,Win32,60,12844,,,,,,,,,,,,space,,,,,,7,0.424105,0,30,30,30,1,,,,,,,,,,,,,,,,,,,,,,,,,,,,,,,,,,,,,,,,,
,,,,,,,,,,,,,,,,,,,,,,,,20,male,2020-08-18_19h17.58.872,torte-2b,2020.1.3,Win32,60,12844,,,,,,,,,,,,,,,,,,3,,0,31,31,31,1,,,,,,,,,,,,,,,,,,,,,,,,,,,,,,,,,,,,,,,,,
,,,,,,,,,,,,,,,,,,,,,,,,20,male,2020-08-18_19h17.58.872,torte-2b,2020.1.3,Win32,60,12844,,,,,,,,,,,,,,,,,,2,,0,32,32,32,1,,,,,,,,,,,,,,,,,,,,,,,,,,,,,,,,,,,,,,,,,
,,,,,,,,,,,,,,,,,,,,,,,,20,male,2020-08-18_19h17.58.872,torte-2b,2020.1.3,Win32,60,12844,,,,,,,,,,,,,,,,,,6,,0,33,33,33,1,,,,,,,,,,,,,,,,,,,,,,,,,,,,,,,,,,,,,,,,,
,,,,,,,,,,,,,,,,,,,,,,,,20,male,2020-08-18_19h17.58.872,torte-2b,2020.1.3,Win32,60,12844,,,,,,,,,,,,,,,,,,3,,0,34,34,34,1,,,,,,,,,,,,,,,,,,,,,,,,,,,,,,,,,,,,,,,,,
,,,,,,,,,,,,,,,,,,,,,,,,20,male,2020-08-18_19h17.58.872,torte-2b,2020.1.3,Win32,60,12844,,,,,,,,,,,,,,,,,,7,,,,,,,0,0,0,0,1,,,,,,,,,,,,,,,,,,,,,,,,,,,,,,,,,,,,
,,,,,,,,,,,,,,,,,,,,,,,,20,male,2020-08-18_19h17.58.872,torte-2b,2020.1.3,Win32,60,12844,,,,,,,,,,,,,,,,,,5,,,,,,,0,1,1,1,1,,,,,,,,,,,,,,,,,,,,,,,,,,,,,,,,,,,,
,,,,,,,,,,,,,,,,,,,,,,,,20,male,2020-08-18_19h17.58.872,torte-2b,2020.1.3,Win32,60,12844,,,,,,,,,,,,,,,,,,4,,,,,,,0,2,2,2,1,,,,,,,,,,,,,,,,,,,,,,,,,,,,,,,,,,,,
,,,,,,,,,,,,,,,,,,,,,,,,20,male,2020-08-18_19h17.58.872,torte-2b,2020.1.3,Win32,60,12844,,,,,,,,,,,,space,,,,,,5,0.54026,,,,,,0,3,3,3,1,,,,,,,,,,,,,,,,,,,,,,,,,,,,,,,,,,,,
,,,,,,,,,,,,,,,,,,,,,,,,20,male,2020-08-18_19h17.58.872,torte-2b,2020.1.3,Win32,60,12844,,,,,,,,,,,,,,,,,,6,,,,,,,0,4,4,4,1,,,,,,,,,,,,,,,,,,,,,,,,,,,,,,,,,,,,
,,,,,,,,,,,,,,,,,,,,,,,,20,male,2020-08-18_19h17.58.872,torte-2b,2020.1.3,Win32,60,12844,,,,,,,,,,,,space,,,,,,5,0.591615,,,,,,0,5,5,5,1,,,,,,,,,,,,,,,,,,,,,,,,,,,,,,,,,,,,
,,,,,,,,,,,,,,,,,,,,,,,,20,male,2020-08-18_19h17.58.872,torte-2b,2020.1.3,Win32,60,12844,,,,,,,,,,,,,,,,,,3,,,,,,,0,6,6,6,1,,,,,,,,,,,,,,,,,,,,,,,,,,,,,,,,,,,,
,,,,,,,,,,,,,,,,,,,,,,,,20,male,2020-08-18_19h17.58.872,torte-2b,2020.1.3,Win32,60,12844,,,,,,,,,,,,,,,,,,4,,,,,,,0,7,7,7,1,,,,,,,,,,,,,,,,,,,,,,,,,,,,,,,,,,,,
,,,,,,,,,,,,,,,,,,,,,,,,20,male,2020-08-18_19h17.58.872,torte-2b,2020.1.3,Win32,60,12844,,,,,,,,,,,,space,,,,,,3,0.39314,,,,,,0,8,8,8,1,,,,,,,,,,,,,,,,,,,,,,,,,,,,,,,,,,,,
,,,,,,,,,,,,,,,,,,,,,,,,20,male,2020-08-18_19h17.58.872,torte-2b,2020.1.3,Win32,60,12844,,,,,,,,,,,,,,,,,,1,,,,,,,0,9,9,9,1,,,,,,,,,,,,,,,,,,,,,,,,,,,,,,,,,,,,
,,,,,,,,,,,,,,,,,,,,,,,,20,male,2020-08-18_19h17.58.872,torte-2b,2020.1.3,Win32,60,12844,,,,,,,,,,,,,,,,,,2,,,,,,,0,10,10,10,1,,,,,,,,,,,,,,,,,,,,,,,,,,,,,,,,,,,,
,,,,,,,,,,,,,,,,,,,,,,,,20,male,2020-08-18_19h17.58.872,torte-2b,2020.1.3,Win32,60,12844,,,,,,,,,,,,space,,,,,,1,0.356485,,,,,,0,11,11,11,1,,,,,,,,,,,,,,,,,,,,,,,,,,,,,,,,,,,,
,,,,,,,,,,,,,,,,,,,,,,,,20,male,2020-08-18_19h17.58.872,torte-2b,2020.1.3,Win32,60,12844,,,,,,,,,,,,space,,,,,,2,0.406175,,,,,,0,12,12,12,1,,,,,,,,,,,,,,,,,,,,,,,,,,,,,,,,,,,,
,,,,,,,,,,,,,,,,,,,,,,,,20,male,2020-08-18_19h17.58.872,torte-2b,2020.1.3,Win32,60,12844,,,,,,,,,,,,space,,,,,,1,0.47897,,,,,,0,13,13,13,1,,,,,,,,,,,,,,,,,,,,,,,,,,,,,,,,,,,,
,,,,,,,,,,,,,,,,,,,,,,,,20,male,2020-08-18_19h17.58.872,torte-2b,2020.1.3,Win32,60,12844,,,,,,,,,,,,,,,,,,3,,,,,,,0,14,14,14,1,,,,,,,,,,,,,,,,,,,,,,,,,,,,,,,,,,,,
,,,,,,,,,,,,,,,,,,,,,,,,20,male,2020-08-18_19h17.58.872,torte-2b,2020.1.3,Win32,60,12844,,,,,,,,,,,,space,,,,,,1,0.37797,,,,,,0,15,15,15,1,,,,,,,,,,,,,,,,,,,,,,,,,,,,,,,,,,,,
,,,,,,,,,,,,,,,,,,,,,,,,20,male,2020-08-18_19h17.58.872,torte-2b,2020.1.3,Win32,60,12844,,,,,,,,,,,,,,,,,,7,,,,,,,0,16,16,16,1,,,,,,,,,,,,,,,,,,,,,,,,,,,,,,,,,,,,
,,,,,,,,,,,,,,,,,,,,,,,,20,male,2020-08-18_19h17.58.872,torte-2b,2020.1.3,Win32,60,12844,,,,,,,,,,,,,,,,,,7,,,,,,,0,17,17,17,1,,,,,,,,,,,,,,,,,,,,,,,,,,,,,,,,,,,,
,,,,,,,,,,,,,,,,,,,,,,,,20,male,2020-08-18_19h17.58.872,torte-2b,2020.1.3,Win32,60,12844,,,,,,,,,,,,,,,,,,4,,,,,,,0,18,18,18,1,,,,,,,,,,,,,,,,,,,,,,,,,,,,,,,,,,,,
,,,,,,,,,,,,,,,,,,,,,,,,20,male,2020-08-18_19h17.58.872,torte-2b,2020.1.3,Win32,60,12844,,,,,,,,,,,,space,,,,,,7,0.39913,,,,,,0,19,19,19,1,,,,,,,,,,,,,,,,,,,,,,,,,,,,,,,,,,,,
,,,,,,,,,,,,,,,,,,,,,,,,20,male,2020-08-18_19h17.58.872,torte-2b,2020.1.3,Win32,60,12844,,,,,,,,,,,,,,,,,,3,,,,,,,0,20,20,20,1,,,,,,,,,,,,,,,,,,,,,,,,,,,,,,,,,,,,
,,,,,,,,,,,,,,,,,,,,,,,,20,male,2020-08-18_19h17.58.872,torte-2b,2020.1.3,Win32,60,12844,,,,,,,,,,,,space,,,,,,7,0.401205,,,,,,0,21,21,21,1,,,,,,,,,,,,,,,,,,,,,,,,,,,,,,,,,,,,
,,,,,,,,,,,,,,,,,,,,,,,,20,male,2020-08-18_19h17.58.872,torte-2b,2020.1.3,Win32,60,12844,,,,,,,,,,,,space,,,,,,3,0.44007,,,,,,0,22,22,22,1,,,,,,,,,,,,,,,,,,,,,,,,,,,,,,,,,,,,
,,,,,,,,,,,,,,,,,,,,,,,,20,male,2020-08-18_19h17.58.872,torte-2b,2020.1.3,Win32,60,12844,,,,,,,,,,,,,,,,,,1,,,,,,,0,23,23,23,1,,,,,,,,,,,,,,,,,,,,,,,,,,,,,,,,,,,,
,,,,,,,,,,,,,,,,,,,,,,,,20,male,2020-08-18_19h17.58.872,torte-2b,2020.1.3,Win32,60,12844,,,,,,,,,,,,,,,,,,6,,,,,,,0,24,24,24,1,,,,,,,,,,,,,,,,,,,,,,,,,,,,,,,,,,,,
,,,,,,,,,,,,,,,,,,,,,,,,20,male,2020-08-18_19h17.58.872,torte-2b,2020.1.3,Win32,60,12844,,,,,,,,,,,,,,,,,,3,,,,,,,0,25,25,25,1,,,,,,,,,,,,,,,,,,,,,,,,,,,,,,,,,,,,
,,,,,,,,,,,,,,,,,,,,,,,,20,male,2020-08-18_19h17.58.872,torte-2b,2020.1.3,Win32,60,12844,,,,,,,,,,,,,,,,,,2,,,,,,,0,26,26,26,1,,,,,,,,,,,,,,,,,,,,,,,,,,,,,,,,,,,,
,,,,,,,,,,,,,,,,,,,,,,,,20,male,2020-08-18_19h17.58.872,torte-2b,2020.1.3,Win32,60,12844,,,,,,,,,,,,space,,,,,,3,0.35861,,,,,,0,27,27,27,1,,,,,,,,,,,,,,,,,,,,,,,,,,,,,,,,,,,,
,,,,,,,,,,,,,,,,,,,,,,,,20,male,2020-08-18_19h17.58.872,torte-2b,2020.1.3,Win32,60,12844,,,,,,,,,,,,space,,,,,,1,0.48618,,,,,,0,28,28,28,1,,,,,,,,,,,,,,,,,,,,,,,,,,,,,,,,,,,,
,,,,,,,,,,,,,,,,,,,,,,,,20,male,2020-08-18_19h17.58.872,torte-2b,2020.1.3,Win32,60,12844,,,,,,,,,,,,,,,,,,3,,,,,,,0,29,29,29,1,,,,,,,,,,,,,,,,,,,,,,,,,,,,,,,,,,,,
,,,,,,,,,,,,,,,,,,,,,,,,20,male,2020-08-18_19h17.58.872,torte-2b,2020.1.3,Win32,60,12844,,,,,,,,,,,,space,,,,,,1,0.388635,,,,,,0,30,30,30,1,,,,,,,,,,,,,,,,,,,,,,,,,,,,,,,,,,,,
,,,,,,,,,,,,,,,,,,,,,,,,20,male,2020-08-18_19h17.58.872,torte-2b,2020.1.3,Win32,60,12844,,,,,,,,,,,,,,,,,,7,,,,,,,0,31,31,31,1,,,,,,,,,,,,,,,,,,,,,,,,,,,,,,,,,,,,
,,,,,,,,,,,,,,,,,,,,,,,,20,male,2020-08-18_19h17.58.872,torte-2b,2020.1.3,Win32,60,12844,,,,,,,,,,,,,,,,,,5,,,,,,,0,32,32,32,1,,,,,,,,,,,,,,,,,,,,,,,,,,,,,,,,,,,,
,,,,,,,,,,,,,,,,,,,,,,,,20,male,2020-08-18_19h17.58.872,torte-2b,2020.1.3,Win32,60,12844,,,,,,,,,,,,space,,,,,,7,0.57212,,,,,,0,33,33,33,1,,,,,,,,,,,,,,,,,,,,,,,,,,,,,,,,,,,,
,,,,,,,,,,,,,,,,,,,,,,,,20,male,2020-08-18_19h17.58.872,torte-2b,2020.1.3,Win32,60,12844,,,,,,,,,,,,,,,,,,2,,,,,,,0,34,34,34,1,,,,,,,,,,,,,,,,,,,,,,,,,,,,,,,,,,,,
,,,,,,,,,,,,,,,,,,,,,,,,20,male,2020-08-18_19h17.58.872,torte-2b,2020.1.3,Win32,60,12844,,,,,,,,,,,,,,,,,,3,,,,,,,,,,,,0,0,0,0,1,,,,,,,,,,,,,,,,,,,,,,,,,,,,,,,
,,,,,,,,,,,,,,,,,,,,,,,,20,male,2020-08-18_19h17.58.872,torte-2b,2020.1.3,Win32,60,12844,,,,,,,,,,,,,,,,,,7,,,,,,,,,,,,0,1,1,1,1,,,,,,,,,,,,,,,,,,,,,,,,,,,,,,,
,,,,,,,,,,,,,,,,,,,,,,,,20,male,2020-08-18_19h17.58.872,torte-2b,2020.1.3,Win32,60,12844,,,,,,,,,,,,,,,,,,7,,,,,,,,,,,,0,2,2,2,1,,,,,,,,,,,,,,,,,,,,,,,,,,,,,,,
,,,,,,,,,,,,,,,,,,,,,,,,20,male,2020-08-18_19h17.58.872,torte-2b,2020.1.3,Win32,60,12844,,,,,,,,,,,,,,,,,,4,,,,,,,,,,,,0,3,3,3,1,,,,,,,,,,,,,,,,,,,,,,,,,,,,,,,
,,,,,,,,,,,,,,,,,,,,,,,,20,male,2020-08-18_19h17.58.872,torte-2b,2020.1.3,Win32,60,12844,,,,,,,,,,,,,,,,,,5,,,,,,,,,,,,0,4,4,4,1,,,,,,,,,,,,,,,,,,,,,,,,,,,,,,,
,,,,,,,,,,,,,,,,,,,,,,,,20,male,2020-08-18_19h17.58.872,torte-2b,2020.1.3,Win32,60,12844,,,,,,,,,,,,space,,,,,,4,0.45164,,,,,,,,,,,0,5,5,5,1,,,,,,,,,,,,,,,,,,,,,,,,,,,,,,,
,,,,,,,,,,,,,,,,,,,,,,,,20,male,2020-08-18_19h17.58.872,torte-2b,2020.1.3,Win32,60,12844,,,,,,,,,,,,,,,,,,2,,,,,,,,,,,,0,6,6,6,1,,,,,,,,,,,,,,,,,,,,,,,,,,,,,,,
,,,,,,,,,,,,,,,,,,,,,,,,20,male,2020-08-18_19h17.58.872,torte-2b,2020.1.3,Win32,60,12844,,,,,,,,,,,,space,,,,,,4,0.479975,,,,,,,,,,,0,7,7,7,1,,,,,,,,,,,,,,,,,,,,,,,,,,,,,,,
,,,,,,,,,,,,,,,,,,,,,,,,20,male,2020-08-18_19h17.58.872,torte-2b,2020.1.3,Win32,60,12844,,,,,,,,,,,,space,,,,,,2,0.46555,,,,,,,,,,,0,8,8,8,1,,,,,,,,,,,,,,,,,,,,,,,,,,,,,,,
,,,,,,,,,,,,,,,,,,,,,,,,20,male,2020-08-18_19h17.58.872,torte-2b,2020.1.3,Win32,60,12844,,,,,,,,,,,,,,,,,,2,,,,,,,,,,,,0,9,9,9,1,,,,,,,,,,,,,,,,,,,,,,,,,,,,,,,
,,,,,,,,,,,,,,,,,,,,,,,,20,male,2020-08-18_19h17.58.872,torte-2b,2020.1.3,Win32,60,12844,,,,,,,,,,,,,,,,,,6,,,,,,,,,,,,0,10,10,10,1,,,,,,,,,,,,,,,,,,,,,,,,,,,,,,,
,,,,,,,,,,,,,,,,,,,,,,,,20,male,2020-08-18_19h17.58.872,torte-2b,2020.1.3,Win32,60,12844,,,,,,,,,,,,space,,,,,,2,0.472645,,,,,,,,,,,0,11,11,11,1,,,,,,,,,,,,,,,,,,,,,,,,,,,,,,,
,,,,,,,,,,,,,,,,,,,,,,,,20,male,2020-08-18_19h17.58.872,torte-2b,2020.1.3,Win32,60,12844,,,,,,,,,,,,,,,,,,2,,,,,,,,,,,,0,12,12,12,1,,,,,,,,,,,,,,,,,,,,,,,,,,,,,,,
,,,,,,,,,,,,,,,,,,,,,,,,20,male,2020-08-18_19h17.58.872,torte-2b,2020.1.3,Win32,60,12844,,,,,,,,,,,,space,,,,,,2,0.39122,,,,,,,,,,,0,13,13,13,1,,,,,,,,,,,,,,,,,,,,,,,,,,,,,,,
,,,,,,,,,,,,,,,,,,,,,,,,20,male,2020-08-18_19h17.58.872,torte-2b,2020.1.3,Win32,60,12844,,,,,,,,,,,,space,,,,,,2,0.35273,,,,,,,,,,,0,14,14,14,1,,,,,,,,,,,,,,,,,,,,,,,,,,,,,,,
,,,,,,,,,,,,,,,,,,,,,,,,20,male,2020-08-18_19h17.58.872,torte-2b,2020.1.3,Win32,60,12844,,,,,,,,,,,,,,,,,,4,,,,,,,,,,,,0,15,15,15,1,,,,,,,,,,,,,,,,,,,,,,,,,,,,,,,
,,,,,,,,,,,,,,,,,,,,,,,,20,male,2020-08-18_19h17.58.872,torte-2b,2020.1.3,Win32,60,12844,,,,,,,,,,,,,,,,,,3,,,,,,,,,,,,0,16,16,16,1,,,,,,,,,,,,,,,,,,,,,,,,,,,,,,,
,,,,,,,,,,,,,,,,,,,,,,,,20,male,2020-08-18_19h17.58.872,torte-2b,2020.1.3,Win32,60,12844,,,,,,,,,,,,,,,,,,7,,,,,,,,,,,,0,17,17,17,1,,,,,,,,,,,,,,,,,,,,,,,,,,,,,,,
,,,,,,,,,,,,,,,,,,,,,,,,20,male,2020-08-18_19h17.58.872,torte-2b,2020.1.3,Win32,60,12844,,,,,,,,,,,,,,,,,,4,,,,,,,,,,,,0,18,18,18,1,,,,,,,,,,,,,,,,,,,,,,,,,,,,,,,
,,,,,,,,,,,,,,,,,,,,,,,,20,male,2020-08-18_19h17.58.872,torte-2b,2020.1.3,Win32,60,12844,,,,,,,,,,,,space,,,,,,7,0.5792,,,,,,,,,,,0,19,19,19,1,,,,,,,,,,,,,,,,,,,,,,,,,,,,,,,
,,,,,,,,,,,,,,,,,,,,,,,,20,male,2020-08-18_19h17.58.872,torte-2b,2020.1.3,Win32,60,12844,,,,,,,,,,,,space,,,,,,7,0.57112,,,,,,,,,,,0,20,20,20,1,,,,,,,,,,,,,,,,,,,,,,,,,,,,,,,
,,,,,,,,,,,,,,,,,,,,,,,,20,male,2020-08-18_19h17.58.872,torte-2b,2020.1.3,Win32,60,12844,,,,,,,,,,,,space,,,,,,7,0.477425,,,,,,,,,,,0,21,21,21,1,,,,,,,,,,,,,,,,,,,,,,,,,,,,,,,
,,,,,,,,,,,,,,,,,,,,,,,,20,male,2020-08-18_19h17.58.872,torte-2b,2020.1.3,Win32,60,12844,,,,,,,,,,,,space,,,,,,7,0.523655,,,,,,,,,,,0,22,22,22,1,,,,,,,,,,,,,,,,,,,,,,,,,,,,,,,
,,,,,,,,,,,,,,,,,,,,,,,,20,male,2020-08-18_19h17.58.872,torte-2b,2020.1.3,Win32,60,12844,,,,,,,,,,,,,,,,,,1,,,,,,,,,,,,0,23,23,23,1,,,,,,,,,,,,,,,,,,,,,,,,,,,,,,,
,,,,,,,,,,,,,,,,,,,,,,,,20,male,2020-08-18_19h17.58.872,torte-2b,2020.1.3,Win32,60,12844,,,,,,,,,,,,space,,,,,,7,0.464255,,,,,,,,,,,0,24,24,24,1,,,,,,,,,,,,,,,,,,,,,,,,,,,,,,,
,,,,,,,,,,,,,,,,,,,,,,,,20,male,2020-08-18_19h17.58.872,torte-2b,2020.1.3,Win32,60,12844,,,,,,,,,,,,space,,,,,,1,0.35518,,,,,,,,,,,0,25,25,25,1,,,,,,,,,,,,,,,,,,,,,,,,,,,,,,,
,,,,,,,,,,,,,,,,,,,,,,,,20,male,2020-08-18_19h17.58.872,torte-2b,2020.1.3,Win32,60,12844,,,,,,,,,,,,space,,,,,,7,0.57705,,,,,,,,,,,0,26,26,26,1,,,,,,,,,,,,,,,,,,,,,,,,,,,,,,,
,,,,,,,,,,,,,,,,,,,,,,,,20,male,2020-08-18_19h17.58.872,torte-2b,2020.1.3,Win32,60,12844,,,,,,,,,,,,,,,,,,2,,,,,,,,,,,,0,27,27,27,1,,,,,,,,,,,,,,,,,,,,,,,,,,,,,,,
,,,,,,,,,,,,,,,,,,,,,,,,20,male,2020-08-18_19h17.58.872,torte-2b,2020.1.3,Win32,60,12844,,,,,,,,,,,,,,,,,,5,,,,,,,,,,,,0,28,28,28,1,,,,,,,,,,,,,,,,,,,,,,,,,,,,,,,
,,,,,,,,,,,,,,,,,,,,,,,,20,male,2020-08-18_19h17.58.872,torte-2b,2020.1.3,Win32,60,12844,,,,,,,,,,,,,,,,,,5,,,,,,,,,,,,0,29,29,29,1,,,,,,,,,,,,,,,,,,,,,,,,,,,,,,,
,,,,,,,,,,,,,,,,,,,,,,,,20,male,2020-08-18_19h17.58.872,torte-2b,2020.1.3,Win32,60,12844,,,,,,,,,,,,space,,,,,,5,0.352095,,,,,,,,,,,0,30,30,30,1,,,,,,,,,,,,,,,,,,,,,,,,,,,,,,,
,,,,,,,,,,,,,,,,,,,,,,,,20,male,2020-08-18_19h17.58.872,torte-2b,2020.1.3,Win32,60,12844,,,,,,,,,,,,,,,,,,1,,,,,,,,,,,,0,31,31,31,1,,,,,,,,,,,,,,,,,,,,,,,,,,,,,,,
,,,,,,,,,,,,,,,,,,,,,,,,20,male,2020-08-18_19h17.58.872,torte-2b,2020.1.3,Win32,60,12844,,,,,,,,,,,,space,,,,,,5,0.43011,,,,,,,,,,,0,32,32,32,1,,,,,,,,,,,,,,,,,,,,,,,,,,,,,,,
,,,,,,,,,,,,,,,,,,,,,,,,20,male,2020-08-18_19h17.58.872,torte-2b,2020.1.3,Win32,60,12844,,,,,,,,,,,,,,,,,,3,,,,,,,,,,,,0,33,33,33,1,,,,,,,,,,,,,,,,,,,,,,,,,,,,,,,
,,,,,,,,,,,,,,,,,,,,,,,,20,male,2020-08-18_19h17.58.872,torte-2b,2020.1.3,Win32,60,12844,,,,,,,,,,,,,,,,,,3,,,,,,,,,,,,0,34,34,34,1,,,,,,,,,,,,,,,,,,,,,,,,,,,,,,,
,,,,,,,,,,,,l,1.203605,Incorrect,,,,,,t2.png,t4.png,2,0.059078,20,male,2020-08-18_19h17.58.872,torte-2b,2020.1.3,Win32,60,12844,space,5.858525,,,,,,,,,,,,,,,,,,,,,,,,,,,,,,,,,space,1.811135,0,0,0,97,1,,,,,,,,,,,,,,,,,,,,,,,,
,,,,,,,,,,,,a,1.216935,Correct!,,,,,,t3.png,t4.png,1,0.90855,20,male,2020-08-18_19h17.58.872,torte-2b,2020.1.3,Win32,60,12844,,,,,,,,,,,,,,,,,,,,,,,,,,,,,,,,,,,,,0,1,1,103,1,,,,,,,,,,,,,,,,,,,,,,,,
,,,,,,,,,,,,l,1.047295,Correct!,,,,,,t4.png,t1.png,3,0.059078,20,male,2020-08-18_19h17.58.872,torte-2b,2020.1.3,Win32,60,12844,,,,,,,,,,,,,,,,,,,,,,,,,,,,,,,,,,,,,0,2,2,62,1,,,,,,,,,,,,,,,,,,,,,,,,
,,,,,,,,,,,,l,0.70823,Correct!,,,,,,t3.png,t1.png,2,0.056466,20,male,2020-08-18_19h17.58.872,torte-2b,2020.1.3,Win32,60,12844,,,,,,,,,,,,,,,,,,,,,,,,,,,,,,,,,,,,,0,3,3,72,1,,,,,,,,,,,,,,,,,,,,,,,,
,,,,,,,,,,,,l,1.124625,Correct!,,,,,,t5.png,t3.png,2,0.056466,20,male,2020-08-18_19h17.58.872,torte-2b,2020.1.3,Win32,60,12844,,,,,,,,,,,,,,,,,,,,,,,,,,,,,,,,,,,,,0,4,4,26,1,,,,,,,,,,,,,,,,,,,,,,,,
,,,,,,,,,,,,l,0.828175,Correct!,,,,,,t5.png,t2.png,3,0.0000131,20,male,2020-08-18_19h17.58.872,torte-2b,2020.1.3,Win32,60,12844,,,,,,,,,,,,,,,,,,,,,,,,,,,,,,,,,,,,,0,5,5,83,1,,,,,,,,,,,,,,,,,,,,,,,,
,,,,,,,,,,,,a,0.788645,Correct!,,,,,,t5.png,t5.png,0,0.97829,20,male,2020-08-18_19h17.58.872,torte-2b,2020.1.3,Win32,60,12844,,,,,,,,,,,,,,,,,,,,,,,,,,,,,,,,,,,,,0,6,6,77,1,,,,,,,,,,,,,,,,,,,,,,,,
,,,,,,,,,,,,l,0.76095,Correct!,,,,,,t1.png,t5.png,4,9.55E-11,20,male,2020-08-18_19h17.58.872,torte-2b,2020.1.3,Win32,60,12844,,,,,,,,,,,,,,,,,,,,,,,,,,,,,,,,,,,,,0,7,7,3,1,,,,,,,,,,,,,,,,,,,,,,,,
,,,,,,,,,,,,l,1.18777,Correct!,,,,,,t5.png,t2.png,3,0.0000131,20,male,2020-08-18_19h17.58.872,torte-2b,2020.1.3,Win32,60,12844,,,,,,,,,,,,,,,,,,,,,,,,,,,,,,,,,,,,,0,8,8,82,1,,,,,,,,,,,,,,,,,,,,,,,,
,,,,,,,,,,,,a,0.995405,Correct!,,,,,,t3.png,t4.png,1,0.90855,20,male,2020-08-18_19h17.58.872,torte-2b,2020.1.3,Win32,60,12844,,,,,,,,,,,,,,,,,,,,,,,,,,,,,,,,,,,,,0,9,9,9,1,,,,,,,,,,,,,,,,,,,,,,,,
,,,,,,,,,,,,a,0.730355,Correct!,,,,,,t2.png,t2.png,0,0.98115,20,male,2020-08-18_19h17.58.872,torte-2b,2020.1.3,Win32,60,12844,,,,,,,,,,,,,,,,,,,,,,,,,,,,,,,,,,,,,0,10,10,7,1,,,,,,,,,,,,,,,,,,,,,,,,
,,,,,,,,,,,,l,1.04367,Correct!,,,,,,t1.png,t4.png,3,0.0000131,20,male,2020-08-18_19h17.58.872,torte-2b,2020.1.3,Win32,60,12844,,,,,,,,,,,,,,,,,,,,,,,,,,,,,,,,,,,,,0,11,11,16,1,,,,,,,,,,,,,,,,,,,,,,,,
,,,,,,,,,,,,l,1.848925,Correct!,,,,,,t3.png,t5.png,2,0.056466,20,male,2020-08-18_19h17.58.872,torte-2b,2020.1.3,Win32,60,12844,,,,,,,,,,,,,,,,,,,,,,,,,,,,,,,,,,,,,0,12,12,45,1,,,,,,,,,,,,,,,,,,,,,,,,
,,,,,,,,,,,,l,1.424745,Correct!,,,,,,t1.png,t3.png,2,0.0565,20,male,2020-08-18_19h17.58.872,torte-2b,2020.1.3,Win32,60,12844,,,,,,,,,,,,,,,,,,,,,,,,,,,,,,,,,,,,,0,13,13,95,1,,,,,,,,,,,,,,,,,,,,,,,,
,,,,,,,,,,,,l,0.74935,Correct!,,,,,,t4.png,t1.png,3,0.059078,20,male,2020-08-18_19h17.58.872,torte-2b,2020.1.3,Win32,60,12844,,,,,,,,,,,,,,,,,,,,,,,,,,,,,,,,,,,,,0,14,14,75,1,,,,,,,,,,,,,,,,,,,,,,,,
,,,,,,,,,,,,a,0.86425,Correct!,,,,,,t3.png,t4.png,1,0.90855,20,male,2020-08-18_19h17.58.872,torte-2b,2020.1.3,Win32,60,12844,,,,,,,,,,,,,,,,,,,,,,,,,,,,,,,,,,,,,0,15,15,111,1,,,,,,,,,,,,,,,,,,,,,,,,
,,,,,,,,,,,,a,0.740805,Correct!,,,,,,t2.png,t2.png,0,0.98115,20,male,2020-08-18_19h17.58.872,torte-2b,2020.1.3,Win32,60,12844,,,,,,,,,,,,,,,,,,,,,,,,,,,,,,,,,,,,,0,16,16,112,1,,,,,,,,,,,,,,,,,,,,,,,,
,,,,,,,,,,,,l,1.19223,Correct!,,,,,,t4.png,t1.png,3,0.059078,20,male,2020-08-18_19h17.58.872,torte-2b,2020.1.3,Win32,60,12844,,,,,,,,,,,,,,,,,,,,,,,,,,,,,,,,,,,,,0,17,17,87,1,,,,,,,,,,,,,,,,,,,,,,,,
,,,,,,,,,,,,a,1.255175,Correct!,,,,,,t5.png,t4.png,1,0.9,20,male,2020-08-18_19h17.58.872,torte-2b,2020.1.3,Win32,60,12844,,,,,,,,,,,,,,,,,,,,,,,,,,,,,,,,,,,,,0,18,18,55,1,,,,,,,,,,,,,,,,,,,,,,,,
,,,,,,,,,,,,a,0.709725,Correct!,,,,,,t1.png,t1.png,0,0.97829,20,male,2020-08-18_19h17.58.872,torte-2b,2020.1.3,Win32,60,12844,,,,,,,,,,,,,,,,,,,,,,,,,,,,,,,,,,,,,0,19,19,4,1,,,,,,,,,,,,,,,,,,,,,,,,
,,,,,,,,,,,,l,0.723525,Correct!,,,,,,t5.png,t1.png,4,9.55E-11,20,male,2020-08-18_19h17.58.872,torte-2b,2020.1.3,Win32,60,12844,,,,,,,,,,,,,,,,,,,,,,,,,,,,,,,,,,,,,0,20,20,15,1,,,,,,,,,,,,,,,,,,,,,,,,
,,,,,,,,,,,,l,1.3699,Correct!,,,,,,t2.png,t5.png,3,0.0000131,20,male,2020-08-18_19h17.58.872,torte-2b,2020.1.3,Win32,60,12844,,,,,,,,,,,,,,,,,,,,,,,,,,,,,,,,,,,,,0,21,21,85,1,,,,,,,,,,,,,,,,,,,,,,,,
,,,,,,,,,,,,l,0.95355,Correct!,,,,,,t5.png,t1.png,4,9.55E-11,20,male,2020-08-18_19h17.58.872,torte-2b,2020.1.3,Win32,60,12844,,,,,,,,,,,,,,,,,,,,,,,,,,,,,,,,,,,,,0,22,22,89,1,,,,,,,,,,,,,,,,,,,,,,,,
,,,,,,,,,,,,l,1.23123,Correct!,,,,,,t4.png,t1.png,3,0.059078,20,male,2020-08-18_19h17.58.872,torte-2b,2020.1.3,Win32,60,12844,,,,,,,,,,,,,,,,,,,,,,,,,,,,,,,,,,,,,0,23,23,57,1,,,,,,,,,,,,,,,,,,,,,,,,
,,,,,,,,,,,,l,0.532575,Correct!,,,,,,t4.png,t1.png,3,0.0000131,20,male,2020-08-18_19h17.58.872,torte-2b,2020.1.3,Win32,60,12844,,,,,,,,,,,,,,,,,,,,,,,,,,,,,,,,,,,,,0,24,24,102,1,,,,,,,,,,,,,,,,,,,,,,,,
,,,,,,,,,,,,l,0.75569,Correct!,,,,,,t1.png,t4.png,3,0.0000131,20,male,2020-08-18_19h17.58.872,torte-2b,2020.1.3,Win32,60,12844,,,,,,,,,,,,,,,,,,,,,,,,,,,,,,,,,,,,,0,25,25,74,1,,,,,,,,,,,,,,,,,,,,,,,,
,,,,,,,,,,,,l,0.748365,Incorrect,,,,,,t4.png,t5.png,1,0.90025,20,male,2020-08-18_19h17.58.872,torte-2b,2020.1.3,Win32,60,12844,,,,,,,,,,,,,,,,,,,,,,,,,,,,,,,,,,,,,0,26,26,21,1,,,,,,,,,,,,,,,,,,,,,,,,
,,,,,,,,,,,,l,0.96107,Correct!,,,,,,t2.png,t5.png,3,0.0000131,20,male,2020-08-18_19h17.58.872,torte-2b,2020.1.3,Win32,60,12844,,,,,,,,,,,,,,,,,,,,,,,,,,,,,,,,,,,,,0,27,27,39,1,,,,,,,,,,,,,,,,,,,,,,,,
,,,,,,,,,,,,a,0.868295,Correct!,,,,,,t1.png,t2.png,1,0.9,20,male,2020-08-18_19h17.58.872,torte-2b,2020.1.3,Win32,60,12844,,,,,,,,,,,,,,,,,,,,,,,,,,,,,,,,,,,,,0,28,28,41,1,,,,,,,,,,,,,,,,,,,,,,,,
,,,,,,,,,,,,a,1.095605,Correct!,,,,,,t4.png,t5.png,1,0.90025,20,male,2020-08-18_19h17.58.872,torte-2b,2020.1.3,Win32,60,12844,,,,,,,,,,,,,,,,,,,,,,,,,,,,,,,,,,,,,0,29,29,33,1,,,,,,,,,,,,,,,,,,,,,,,,
,,,,,,,,,,,,a,1.060705,Correct!,,,,,,t1.png,t1.png,0,0.978,20,male,2020-08-18_19h17.58.872,torte-2b,2020.1.3,Win32,60,12844,,,,,,,,,,,,,,,,,,,,,,,,,,,,,,,,,,,,,0,30,30,22,1,,,,,,,,,,,,,,,,,,,,,,,,
,,,,,,,,,,,,l,0.626755,Correct!,,,,,,t5.png,t1.png,4,9.55E-11,20,male,2020-08-18_19h17.58.872,torte-2b,2020.1.3,Win32,60,12844,,,,,,,,,,,,,,,,,,,,,,,,,,,,,,,,,,,,,0,31,31,101,1,,,,,,,,,,,,,,,,,,,,,,,,
,,,,,,,,,,,,a,0.856825,Correct!,,,,,,t5.png,t4.png,1,0.90025,20,male,2020-08-18_19h17.58.872,torte-2b,2020.1.3,Win32,60,12844,,,,,,,,,,,,,,,,,,,,,,,,,,,,,,,,,,,,,0,32,32,38,1,,,,,,,,,,,,,,,,,,,,,,,,
,,,,,,,,,,,,l,1.079365,Correct!,,,,,,t3.png,t5.png,2,0.056466,20,male,2020-08-18_19h17.58.872,torte-2b,2020.1.3,Win32,60,12844,,,,,,,,,,,,,,,,,,,,,,,,,,,,,,,,,,,,,0,33,33,47,1,,,,,,,,,,,,,,,,,,,,,,,,
,,,,,,,,,,,,a,1.040795,Correct!,,,,,,t2.png,t2.png,0,0.981,20,male,2020-08-18_19h17.58.872,torte-2b,2020.1.3,Win32,60,12844,,,,,,,,,,,,,,,,,,,,,,,,,,,,,,,,,,,,,0,34,34,98,1,,,,,,,,,,,,,,,,,,,,,,,,
,,,,,,,,,,,,a,0.56753,Correct!,,,,,,t2.png,t3.png,1,0.90855,20,male,2020-08-18_19h17.58.872,torte-2b,2020.1.3,Win32,60,12844,,,,,,,,,,,,,,,,,,,,,,,,,,,,,,,,,,,,,0,35,35,64,1,,,,,,,,,,,,,,,,,,,,,,,,
,,,,,,,,,,,,l,0.6629,Correct!,,,,,,t5.png,t1.png,4,9.55E-11,20,male,2020-08-18_19h17.58.872,torte-2b,2020.1.3,Win32,60,12844,,,,,,,,,,,,,,,,,,,,,,,,,,,,,,,,,,,,,0,36,36,117,1,,,,,,,,,,,,,,,,,,,,,,,,
,,,,,,,,,,,,l,1.452285,Correct!,,,,,,t5.png,t2.png,3,0.0000131,20,male,2020-08-18_19h17.58.872,torte-2b,2020.1.3,Win32,60,12844,,,,,,,,,,,,,,,,,,,,,,,,,,,,,,,,,,,,,0,37,37,48,1,,,,,,,,,,,,,,,,,,,,,,,,
,,,,,,,,,,,,l,0.890395,Correct!,,,,,,t4.png,t1.png,3,0.0000131,20,male,2020-08-18_19h17.58.872,torte-2b,2020.1.3,Win32,60,12844,,,,,,,,,,,,,,,,,,,,,,,,,,,,,,,,,,,,,0,38,38,91,1,,,,,,,,,,,,,,,,,,,,,,,,
,,,,,,,,,,,,l,0.90738,Correct!,,,,,,t3.png,t5.png,2,0.056466,20,male,2020-08-18_19h17.58.872,torte-2b,2020.1.3,Win32,60,12844,,,,,,,,,,,,,,,,,,,,,,,,,,,,,,,,,,,,,0,39,39,60,1,,,,,,,,,,,,,,,,,,,,,,,,
,,,,,,,,,,,,a,0.949215,Correct!,,,,,,t5.png,t4.png,1,0.90025,20,male,2020-08-18_19h17.58.872,torte-2b,2020.1.3,Win32,60,12844,,,,,,,,,,,,,,,,,,,,,,,,,,,,,,,,,,,,,0,40,40,14,1,,,,,,,,,,,,,,,,,,,,,,,,
,,,,,,,,,,,,a,1.373345,Correct!,,,,,,t4.png,t4.png,0,0.98115,20,male,2020-08-18_19h17.58.872,torte-2b,2020.1.3,Win32,60,12844,,,,,,,,,,,,,,,,,,,,,,,,,,,,,,,,,,,,,0,41,41,88,1,,,,,,,,,,,,,,,,,,,,,,,,
,,,,,,,,,,,,l,0.60351,Correct!,,,,,,t4.png,t1.png,3,0.0000131,20,male,2020-08-18_19h17.58.872,torte-2b,2020.1.3,Win32,60,12844,,,,,,,,,,,,,,,,,,,,,,,,,,,,,,,,,,,,,0,42,42,76,1,,,,,,,,,,,,,,,,,,,,,,,,
,,,,,,,,,,,,l,1.07809,Correct!,,,,,,t2.png,t4.png,2,0.059078,20,male,2020-08-18_19h17.58.872,torte-2b,2020.1.3,Win32,60,12844,,,,,,,,,,,,,,,,,,,,,,,,,,,,,,,,,,,,,0,43,43,67,1,,,,,,,,,,,,,,,,,,,,,,,,
,,,,,,,,,,,,a,1.008195,Correct!,,,,,,t1.png,t2.png,1,0.90025,20,male,2020-08-18_19h17.58.872,torte-2b,2020.1.3,Win32,60,12844,,,,,,,,,,,,,,,,,,,,,,,,,,,,,,,,,,,,,0,44,44,96,1,,,,,,,,,,,,,,,,,,,,,,,,
,,,,,,,,,,,,a,0.736585,Correct!,,,,,,t1.png,t2.png,1,0.9,20,male,2020-08-18_19h17.58.872,torte-2b,2020.1.3,Win32,60,12844,,,,,,,,,,,,,,,,,,,,,,,,,,,,,,,,,,,,,0,45,45,17,1,,,,,,,,,,,,,,,,,,,,,,,,
,,,,,,,,,,,,a,0.83812,Correct!,,,,,,t3.png,t2.png,1,0.90855,20,male,2020-08-18_19h17.58.872,torte-2b,2020.1.3,Win32,60,12844,,,,,,,,,,,,,,,,,,,,,,,,,,,,,,,,,,,,,0,46,46,10,1,,,,,,,,,,,,,,,,,,,,,,,,
,,,,,,,,,,,,l,1.32952,Correct!,,,,,,t5.png,t3.png,2,0.0565,20,male,2020-08-18_19h17.58.872,torte-2b,2020.1.3,Win32,60,12844,,,,,,,,,,,,,,,,,,,,,,,,,,,,,,,,,,,,,0,47,47,50,1,,,,,,,,,,,,,,,,,,,,,,,,
,,,,,,,,,,,,a,0.672695,Correct!,,,,,,t1.png,t2.png,1,0.9,20,male,2020-08-18_19h17.58.872,torte-2b,2020.1.3,Win32,60,12844,,,,,,,,,,,,,,,,,,,,,,,,,,,,,,,,,,,,,0,48,48,61,1,,,,,,,,,,,,,,,,,,,,,,,,
,,,,,,,,,,,,a,0.641395,Incorrect,,,,,,t2.png,t3.png,1,0.90855,20,male,2020-08-18_19h17.58.872,torte-2b,2020.1.3,Win32,60,12844,,,,,,,,,,,,,,,,,,,,,,,,,,,,,,,,,,,,,0,49,49,70,1,,,,,,,,,,,,,,,,,,,,,,,,
,,,,,,,,,,,,l,0.63269,Correct!,,,,,,t1.png,t4.png,3,0.0000131,20,male,2020-08-18_19h17.58.872,torte-2b,2020.1.3,Win32,60,12844,,,,,,,,,,,,,,,,,,,,,,,,,,,,,,,,,,,,,0,50,50,23,1,,,,,,,,,,,,,,,,,,,,,,,,
,,,,,,,,,,,,l,0.9941,Correct!,,,,,,t2.png,t4.png,2,0.059078,20,male,2020-08-18_19h17.58.872,torte-2b,2020.1.3,Win32,60,12844,,,,,,,,,,,,,,,,,,,,,,,,,,,,,,,,,,,,,0,51,51,18,1,,,,,,,,,,,,,,,,,,,,,,,,
,,,,,,,,,,,,l,0.64167,Correct!,,,,,,t5.png,t3.png,2,0.056466,20,male,2020-08-18_19h17.58.872,torte-2b,2020.1.3,Win32,60,12844,,,,,,,,,,,,,,,,,,,,,,,,,,,,,,,,,,,,,0,52,52,80,1,,,,,,,,,,,,,,,,,,,,,,,,
,,,,,,,,,,,,a,0.78644,Correct!,,,,,,t4.png,t4.png,0,0.98115,20,male,2020-08-18_19h17.58.872,torte-2b,2020.1.3,Win32,60,12844,,,,,,,,,,,,,,,,,,,,,,,,,,,,,,,,,,,,,0,53,53,68,1,,,,,,,,,,,,,,,,,,,,,,,,
,,,,,,,,,,,,l,0.98185,Correct!,,,,,,t5.png,t3.png,2,0.056466,20,male,2020-08-18_19h17.58.872,torte-2b,2020.1.3,Win32,60,12844,,,,,,,,,,,,,,,,,,,,,,,,,,,,,,,,,,,,,0,54,54,27,1,,,,,,,,,,,,,,,,,,,,,,,,
,,,,,,,,,,,,a,0.94248,Correct!,,,,,,t3.png,t4.png,1,0.90855,20,male,2020-08-18_19h17.58.872,torte-2b,2020.1.3,Win32,60,12844,,,,,,,,,,,,,,,,,,,,,,,,,,,,,,,,,,,,,0,55,55,5,1,,,,,,,,,,,,,,,,,,,,,,,,
,,,,,,,,,,,,a,0.668295,Correct!,,,,,,t4.png,t3.png,1,0.90855,20,male,2020-08-18_19h17.58.872,torte-2b,2020.1.3,Win32,60,12844,,,,,,,,,,,,,,,,,,,,,,,,,,,,,,,,,,,,,0,56,56,11,1,,,,,,,,,,,,,,,,,,,,,,,,
,,,,,,,,,,,,l,0.54688,Correct!,,,,,,t1.png,t5.png,4,9.55E-11,20,male,2020-08-18_19h17.58.872,torte-2b,2020.1.3,Win32,60,12844,,,,,,,,,,,,,,,,,,,,,,,,,,,,,,,,,,,,,0,57,57,118,1,,,,,,,,,,,,,,,,,,,,,,,,
,,,,,,,,,,,,l,0.6718,Correct!,,,,,,t3.png,t1.png,2,0.0565,20,male,2020-08-18_19h17.58.872,torte-2b,2020.1.3,Win32,60,12844,,,,,,,,,,,,,,,,,,,,,,,,,,,,,,,,,,,,,0,58,58,40,1,,,,,,,,,,,,,,,,,,,,,,,,
,,,,,,,,,,,,a,0.8097,Correct!,,,,,,t2.png,t1.png,1,0.90025,20,male,2020-08-18_19h17.58.872,torte-2b,2020.1.3,Win32,60,12844,,,,,,,,,,,,,,,,,,,,,,,,,,,,,,,,,,,,,0,59,59,44,1,,,,,,,,,,,,,,,,,,,,,,,,
,,,,,,,,,,,,l,0.8619,Correct!,,,,,,t2.png,t5.png,3,0.0000131,20,male,2020-08-18_19h17.58.872,torte-2b,2020.1.3,Win32,60,12844,,,,,,,,,,,,,,,,,,,,,,,,,,,,,,,,,,,,,0,60,60,46,1,,,,,,,,,,,,,,,,,,,,,,,,
,,,,,,,,,,,,a,0.7704,Correct!,,,,,,t5.png,t5.png,0,0.978,20,male,2020-08-18_19h17.58.872,torte-2b,2020.1.3,Win32,60,12844,,,,,,,,,,,,,,,,,,,,,,,,,,,,,,,,,,,,,0,61,61,51,1,,,,,,,,,,,,,,,,,,,,,,,,
,,,,,,,,,,,,a,0.56401,Correct!,,,,,,t5.png,t5.png,0,0.97829,20,male,2020-08-18_19h17.58.872,torte-2b,2020.1.3,Win32,60,12844,,,,,,,,,,,,,,,,,,,,,,,,,,,,,,,,,,,,,0,62,62,2,1,,,,,,,,,,,,,,,,,,,,,,,,
,,,,,,,,,,,,l,0.839355,Correct!,,,,,,t1.png,t3.png,2,0.0565,20,male,2020-08-18_19h17.58.872,torte-2b,2020.1.3,Win32,60,12844,,,,,,,,,,,,,,,,,,,,,,,,,,,,,,,,,,,,,0,63,63,42,1,,,,,,,,,,,,,,,,,,,,,,,,
,,,,,,,,,,,,l,0.91732,Correct!,,,,,,t1.png,t3.png,2,0.0565,20,male,2020-08-18_19h17.58.872,torte-2b,2020.1.3,Win32,60,12844,,,,,,,,,,,,,,,,,,,,,,,,,,,,,,,,,,,,,0,64,64,12,1,,,,,,,,,,,,,,,,,,,,,,,,
,,,,,,,,,,,,l,0.7201,Correct!,,,,,,t4.png,t1.png,3,0.0000131,20,male,2020-08-18_19h17.58.872,torte-2b,2020.1.3,Win32,60,12844,,,,,,,,,,,,,,,,,,,,,,,,,,,,,,,,,,,,,0,65,65,28,1,,,,,,,,,,,,,,,,,,,,,,,,
,,,,,,,,,,,,a,0.800605,Correct!,,,,,,t2.png,t3.png,1,0.90855,20,male,2020-08-18_19h17.58.872,torte-2b,2020.1.3,Win32,60,12844,,,,,,,,,,,,,,,,,,,,,,,,,,,,,,,,,,,,,0,66,66,79,1,,,,,,,,,,,,,,,,,,,,,,,,
,,,,,,,,,,,,a,1.090005,Correct!,,,,,,t4.png,t3.png,1,0.90855,20,male,2020-08-18_19h17.58.872,torte-2b,2020.1.3,Win32,60,12844,,,,,,,,,,,,,,,,,,,,,,,,,,,,,,,,,,,,,0,67,67,29,1,,,,,,,,,,,,,,,,,,,,,,,,
,,,,,,,,,,,,a,1.03346,Correct!,,,,,,t4.png,t5.png,1,0.90025,20,male,2020-08-18_19h17.58.872,torte-2b,2020.1.3,Win32,60,12844,,,,,,,,,,,,,,,,,,,,,,,,,,,,,,,,,,,,,0,68,68,86,1,,,,,,,,,,,,,,,,,,,,,,,,
,,,,,,,,,,,,l,0.7664,Correct!,,,,,,t3.png,t1.png,2,0.0565,20,male,2020-08-18_19h17.58.872,torte-2b,2020.1.3,Win32,60,12844,,,,,,,,,,,,,,,,,,,,,,,,,,,,,,,,,,,,,0,69,69,104,1,,,,,,,,,,,,,,,,,,,,,,,,
,,,,,,,,,,,,a,0.746425,Correct!,,,,,,t5.png,t5.png,0,0.978,20,male,2020-08-18_19h17.58.872,torte-2b,2020.1.3,Win32,60,12844,,,,,,,,,,,,,,,,,,,,,,,,,,,,,,,,,,,,,0,70,70,116,1,,,,,,,,,,,,,,,,,,,,,,,,
,,,,,,,,,,,,a,0.765055,Correct!,,,,,,t2.png,t3.png,1,0.909,20,male,2020-08-18_19h17.58.872,torte-2b,2020.1.3,Win32,60,12844,,,,,,,,,,,,,,,,,,,,,,,,,,,,,,,,,,,,,0,71,71,8,1,,,,,,,,,,,,,,,,,,,,,,,,
,,,,,,,,,,,,l,0.671095,Correct!,,,,,,t1.png,t5.png,4,9.55E-11,20,male,2020-08-18_19h17.58.872,torte-2b,2020.1.3,Win32,60,12844,,,,,,,,,,,,,,,,,,,,,,,,,,,,,,,,,,,,,0,72,72,1,1,,,,,,,,,,,,,,,,,,,,,,,,
,,,,,,,,,,,,l,0.7926,Correct!,,,,,,t5.png,t2.png,3,0.0000131,20,male,2020-08-18_19h17.58.872,torte-2b,2020.1.3,Win32,60,12844,,,,,,,,,,,,,,,,,,,,,,,,,,,,,,,,,,,,,0,73,73,43,1,,,,,,,,,,,,,,,,,,,,,,,,
,,,,,,,,,,,,a,0.922595,Correct!,,,,,,t4.png,t5.png,1,0.9,20,male,2020-08-18_19h17.58.872,torte-2b,2020.1.3,Win32,60,12844,,,,,,,,,,,,,,,,,,,,,,,,,,,,,,,,,,,,,0,74,74,81,1,,,,,,,,,,,,,,,,,,,,,,,,
,,,,,,,,,,,,a,0.820375,Correct!,,,,,,t3.png,t2.png,1,0.90855,20,male,2020-08-18_19h17.58.872,torte-2b,2020.1.3,Win32,60,12844,,,,,,,,,,,,,,,,,,,,,,,,,,,,,,,,,,,,,0,75,75,108,1,,,,,,,,,,,,,,,,,,,,,,,,
,,,,,,,,,,,,a,0.67497,Correct!,,,,,,t4.png,t5.png,1,0.90025,20,male,2020-08-18_19h17.58.872,torte-2b,2020.1.3,Win32,60,12844,,,,,,,,,,,,,,,,,,,,,,,,,,,,,,,,,,,,,0,76,76,63,1,,,,,,,,,,,,,,,,,,,,,,,,
,,,,,,,,,,,,l,0.90658,Correct!,,,,,,t5.png,t2.png,3,0.0000131,20,male,2020-08-18_19h17.58.872,torte-2b,2020.1.3,Win32,60,12844,,,,,,,,,,,,,,,,,,,,,,,,,,,,,,,,,,,,,0,77,77,66,1,,,,,,,,,,,,,,,,,,,,,,,,
,,,,,,,,,,,,a,0.68654,Correct!,,,,,,t4.png,t4.png,0,0.98115,20,male,2020-08-18_19h17.58.872,torte-2b,2020.1.3,Win32,60,12844,,,,,,,,,,,,,,,,,,,,,,,,,,,,,,,,,,,,,0,78,78,19,1,,,,,,,,,,,,,,,,,,,,,,,,
,,,,,,,,,,,,l,0.72665,Correct!,,,,,,t3.png,t1.png,2,0.056466,20,male,2020-08-18_19h17.58.872,torte-2b,2020.1.3,Win32,60,12844,,,,,,,,,,,,,,,,,,,,,,,,,,,,,,,,,,,,,0,79,79,34,1,,,,,,,,,,,,,,,,,,,,,,,,
,,,,,,,,,,,,a,0.69598,Correct!,,,,,,t5.png,t4.png,1,0.9,20,male,2020-08-18_19h17.58.872,torte-2b,2020.1.3,Win32,60,12844,,,,,,,,,,,,,,,,,,,,,,,,,,,,,,,,,,,,,0,80,80,92,1,,,,,,,,,,,,,,,,,,,,,,,,
,,,,,,,,,,,,l,0.96717,Correct!,,,,,,t2.png,t5.png,3,0.0000131,20,male,2020-08-18_19h17.58.872,torte-2b,2020.1.3,Win32,60,12844,,,,,,,,,,,,,,,,,,,,,,,,,,,,,,,,,,,,,0,81,81,115,1,,,,,,,,,,,,,,,,,,,,,,,,
,,,,,,,,,,,,a,0.71641,Correct!,,,,,,t3.png,t2.png,1,0.90855,20,male,2020-08-18_19h17.58.872,torte-2b,2020.1.3,Win32,60,12844,,,,,,,,,,,,,,,,,,,,,,,,,,,,,,,,,,,,,0,82,82,0,1,,,,,,,,,,,,,,,,,,,,,,,,
,,,,,,,,,,,,a,0.79005,Correct!,,,,,,t4.png,t4.png,0,0.98115,20,male,2020-08-18_19h17.58.872,torte-2b,2020.1.3,Win32,60,12844,,,,,,,,,,,,,,,,,,,,,,,,,,,,,,,,,,,,,0,83,83,59,1,,,,,,,,,,,,,,,,,,,,,,,,
,,,,,,,,,,,,a,0.768425,Correct!,,,,,,t4.png,t3.png,1,0.90855,20,male,2020-08-18_19h17.58.872,torte-2b,2020.1.3,Win32,60,12844,,,,,,,,,,,,,,,,,,,,,,,,,,,,,,,,,,,,,0,84,84,56,1,,,,,,,,,,,,,,,,,,,,,,,,
,,,,,,,,,,,,l,1.41173,Correct!,,,,,,t2.png,t4.png,2,0.059078,20,male,2020-08-18_19h17.58.872,torte-2b,2020.1.3,Win32,60,12844,,,,,,,,,,,,,,,,,,,,,,,,,,,,,,,,,,,,,0,85,85,84,1,,,,,,,,,,,,,,,,,,,,,,,,
,,,,,,,,,,,,a,0.75931,Correct!,,,,,,t2.png,t1.png,1,0.90025,20,male,2020-08-18_19h17.58.872,torte-2b,2020.1.3,Win32,60,12844,,,,,,,,,,,,,,,,,,,,,,,,,,,,,,,,,,,,,0,86,86,65,1,,,,,,,,,,,,,,,,,,,,,,,,
,,,,,,,,,,,,a,1.558225,Correct!,,,,,,t1.png,t1.png,0,0.978,20,male,2020-08-18_19h17.58.872,torte-2b,2020.1.3,Win32,60,12844,,,,,,,,,,,,,,,,,,,,,,,,,,,,,,,,,,,,,0,87,87,13,1,,,,,,,,,,,,,,,,,,,,,,,,
,,,,,,,,,,,,a,0.672265,Correct!,,,,,,t2.png,t2.png,0,0.98115,20,male,2020-08-18_19h17.58.872,torte-2b,2020.1.3,Win32,60,12844,,,,,,,,,,,,,,,,,,,,,,,,,,,,,,,,,,,,,0,88,88,90,1,,,,,,,,,,,,,,,,,,,,,,,,
,,,,,,,,,,,,l,0.81125,Correct!,,,,,,t4.png,t1.png,3,0.059078,20,male,2020-08-18_19h17.58.872,torte-2b,2020.1.3,Win32,60,12844,,,,,,,,,,,,,,,,,,,,,,,,,,,,,,,,,,,,,0,89,89,73,1,,,,,,,,,,,,,,,,,,,,,,,,
,,,,,,,,,,,,l,0.775305,Correct!,,,,,,t1.png,t5.png,4,9.55E-11,20,male,2020-08-18_19h17.58.872,torte-2b,2020.1.3,Win32,60,12844,,,,,,,,,,,,,,,,,,,,,,,,,,,,,,,,,,,,,0,90,90,20,1,,,,,,,,,,,,,,,,,,,,,,,,
,,,,,,,,,,,,l,0.7994,Correct!,,,,,,t4.png,t1.png,3,0.0000131,20,male,2020-08-18_19h17.58.872,torte-2b,2020.1.3,Win32,60,12844,,,,,,,,,,,,,,,,,,,,,,,,,,,,,,,,,,,,,0,91,91,49,1,,,,,,,,,,,,,,,,,,,,,,,,
,,,,,,,,,,,,a,0.70636,Incorrect,,,,,,t4.png,t3.png,1,0.909,20,male,2020-08-18_19h17.58.872,torte-2b,2020.1.3,Win32,60,12844,,,,,,,,,,,,,,,,,,,,,,,,,,,,,,,,,,,,,0,92,92,107,1,,,,,,,,,,,,,,,,,,,,,,,,
,,,,,,,,,,,,l,0.84585,Correct!,,,,,,t3.png,t5.png,2,0.0565,20,male,2020-08-18_19h17.58.872,torte-2b,2020.1.3,Win32,60,12844,,,,,,,,,,,,,,,,,,,,,,,,,,,,,,,,,,,,,0,93,93,71,1,,,,,,,,,,,,,,,,,,,,,,,,
,,,,,,,,,,,,a,0.780925,Correct!,,,,,,t2.png,t3.png,1,0.90855,20,male,2020-08-18_19h17.58.872,torte-2b,2020.1.3,Win32,60,12844,,,,,,,,,,,,,,,,,,,,,,,,,,,,,,,,,,,,,0,94,94,113,1,,,,,,,,,,,,,,,,,,,,,,,,
,,,,,,,,,,,,a,0.76877,Correct!,,,,,,t1.png,t1.png,0,0.97829,20,male,2020-08-18_19h17.58.872,torte-2b,2020.1.3,Win32,60,12844,,,,,,,,,,,,,,,,,,,,,,,,,,,,,,,,,,,,,0,95,95,114,1,,,,,,,,,,,,,,,,,,,,,,,,
,,,,,,,,,,,,l,0.79275,Incorrect,,,,,,t3.png,t5.png,2,0.056466,20,male,2020-08-18_19h17.58.872,torte-2b,2020.1.3,Win32,60,12844,,,,,,,,,,,,,,,,,,,,,,,,,,,,,,,,,,,,,0,96,96,78,1,,,,,,,,,,,,,,,,,,,,,,,,
,,,,,,,,,,,,a,0.87959,Correct!,,,,,,t2.png,t2.png,0,0.98115,20,male,2020-08-18_19h17.58.872,torte-2b,2020.1.3,Win32,60,12844,,,,,,,,,,,,,,,,,,,,,,,,,,,,,,,,,,,,,0,97,97,69,1,,,,,,,,,,,,,,,,,,,,,,,,
,,,,,,,,,,,,l,0.992125,Correct!,,,,,,t1.png,t3.png,2,0.056466,20,male,2020-08-18_19h17.58.872,torte-2b,2020.1.3,Win32,60,12844,,,,,,,,,,,,,,,,,,,,,,,,,,,,,,,,,,,,,0,98,98,32,1,,,,,,,,,,,,,,,,,,,,,,,,
,,,,,,,,,,,,a,0.762945,Incorrect,,,,,,t1.png,t5.png,4,9.55E-11,20,male,2020-08-18_19h17.58.872,torte-2b,2020.1.3,Win32,60,12844,,,,,,,,,,,,,,,,,,,,,,,,,,,,,,,,,,,,,0,99,99,30,1,,,,,,,,,,,,,,,,,,,,,,,,
,,,,,,,,,,,,a,1.021285,Incorrect,,,,,,t4.png,t3.png,1,0.909,20,male,2020-08-18_19h17.58.872,torte-2b,2020.1.3,Win32,60,12844,,,,,,,,,,,,,,,,,,,,,,,,,,,,,,,,,,,,,0,100,100,119,1,,,,,,,,,,,,,,,,,,,,,,,,
,,,,,,,,,,,,a,0.9513,Correct!,,,,,,t3.png,t2.png,1,0.90855,20,male,2020-08-18_19h17.58.872,torte-2b,2020.1.3,Win32,60,12844,,,,,,,,,,,,,,,,,,,,,,,,,,,,,,,,,,,,,0,101,101,99,1,,,,,,,,,,,,,,,,,,,,,,,,
,,,,,,,,,,,,l,0.657425,Correct!,,,,,,t5.png,t1.png,4,9.55E-11,20,male,2020-08-18_19h17.58.872,torte-2b,2020.1.3,Win32,60,12844,,,,,,,,,,,,,,,,,,,,,,,,,,,,,,,,,,,,,0,102,102,31,1,,,,,,,,,,,,,,,,,,,,,,,,
,,,,,,,,,,,,l,0.739195,Correct!,,,,,,t1.png,t4.png,3,0.0000131,20,male,2020-08-18_19h17.58.872,torte-2b,2020.1.3,Win32,60,12844,,,,,,,,,,,,,,,,,,,,,,,,,,,,,,,,,,,,,0,103,103,36,1,,,,,,,,,,,,,,,,,,,,,,,,
,,,,,,,,,,,,l,0.927265,Correct!,,,,,,t2.png,t5.png,3,0.0000131,20,male,2020-08-18_19h17.58.872,torte-2b,2020.1.3,Win32,60,12844,,,,,,,,,,,,,,,,,,,,,,,,,,,,,,,,,,,,,0,104,104,54,1,,,,,,,,,,,,,,,,,,,,,,,,
,,,,,,,,,,,,a,0.608435,Incorrect,,,,,,t3.png,t1.png,2,0.056466,20,male,2020-08-18_19h17.58.872,torte-2b,2020.1.3,Win32,60,12844,,,,,,,,,,,,,,,,,,,,,,,,,,,,,,,,,,,,,0,105,105,109,1,,,,,,,,,,,,,,,,,,,,,,,,
,,,,,,,,,,,,a,0.912705,Correct!,,,,,,t3.png,t2.png,1,0.90855,20,male,2020-08-18_19h17.58.872,torte-2b,2020.1.3,Win32,60,12844,,,,,,,,,,,,,,,,,,,,,,,,,,,,,,,,,,,,,0,106,106,94,1,,,,,,,,,,,,,,,,,,,,,,,,
,,,,,,,,,,,,a,0.799155,Correct!,,,,,,t1.png,t2.png,1,0.90025,20,male,2020-08-18_19h17.58.872,torte-2b,2020.1.3,Win32,60,12844,,,,,,,,,,,,,,,,,,,,,,,,,,,,,,,,,,,,,0,107,107,6,1,,,,,,,,,,,,,,,,,,,,,,,,
,,,,,,,,,,,,a,0.75474,Correct!,,,,,,t2.png,t1.png,1,0.90025,20,male,2020-08-18_19h17.58.872,torte-2b,2020.1.3,Win32,60,12844,,,,,,,,,,,,,,,,,,,,,,,,,,,,,,,,,,,,,0,108,108,105,1,,,,,,,,,,,,,,,,,,,,,,,,
,,,,,,,,,,,,a,1.34135,Correct!,,,,,,t3.png,t4.png,1,0.90855,20,male,2020-08-18_19h17.58.872,torte-2b,2020.1.3,Win32,60,12844,,,,,,,,,,,,,,,,,,,,,,,,,,,,,,,,,,,,,0,109,109,58,1,,,,,,,,,,,,,,,,,,,,,,,,
,,,,,,,,,,,,l,0.89796,Correct!,,,,,,t5.png,t3.png,2,0.056466,20,male,2020-08-18_19h17.58.872,torte-2b,2020.1.3,Win32,60,12844,,,,,,,,,,,,,,,,,,,,,,,,,,,,,,,,,,,,,0,110,110,37,1,,,,,,,,,,,,,,,,,,,,,,,,
,,,,,,,,,,,,l,0.7634,Correct!,,,,,,t1.png,t4.png,3,0.0000131,20,male,2020-08-18_19h17.58.872,torte-2b,2020.1.3,Win32,60,12844,,,,,,,,,,,,,,,,,,,,,,,,,,,,,,,,,,,,,0,111,111,106,1,,,,,,,,,,,,,,,,,,,,,,,,
,,,,,,,,,,,,a,0.76637,Correct!,,,,,,t1.png,t1.png,0,0.97829,20,male,2020-08-18_19h17.58.872,torte-2b,2020.1.3,Win32,60,12844,,,,,,,,,,,,,,,,,,,,,,,,,,,,,,,,,,,,,0,112,112,110,1,,,,,,,,,,,,,,,,,,,,,,,,
,,,,,,,,,,,,a,0.683755,Correct!,,,,,,t2.png,t1.png,1,0.9,20,male,2020-08-18_19h17.58.872,torte-2b,2020.1.3,Win32,60,12844,,,,,,,,,,,,,,,,,,,,,,,,,,,,,,,,,,,,,0,113,113,93,1,,,,,,,,,,,,,,,,,,,,,,,,
,,,,,,,,,,,,a,1.04848,Correct!,,,,,,t5.png,t5.png,0,0.97829,20,male,2020-08-18_19h17.58.872,torte-2b,2020.1.3,Win32,60,12844,,,,,,,,,,,,,,,,,,,,,,,,,,,,,,,,,,,,,0,114,114,35,1,,,,,,,,,,,,,,,,,,,,,,,,
,,,,,,,,,,,,a,0.58217,Correct!,,,,,,t5.png,t4.png,1,0.90025,20,male,2020-08-18_19h17.58.872,torte-2b,2020.1.3,Win32,60,12844,,,,,,,,,,,,,,,,,,,,,,,,,,,,,,,,,,,,,0,115,115,25,1,,,,,,,,,,,,,,,,,,,,,,,,
,,,,,,,,,,,,l,1.331075,Correct!,,,,,,t2.png,t4.png,2,0.059078,20,male,2020-08-18_19h17.58.872,torte-2b,2020.1.3,Win32,60,12844,,,,,,,,,,,,,,,,,,,,,,,,,,,,,,,,,,,,,0,116,116,53,1,,,,,,,,,,,,,,,,,,,,,,,,
,,,,,,,,,,,,a,0.71859,Correct!,,,,,,t4.png,t4.png,0,0.98115,20,male,2020-08-18_19h17.58.872,torte-2b,2020.1.3,Win32,60,12844,,,,,,,,,,,,,,,,,,,,,,,,,,,,,,,,,,,,,0,117,117,52,1,,,,,,,,,,,,,,,,,,,,,,,,
,,,,,,,,,,,,l,1.10762,Correct!,,,,,,t1.png,t3.png,2,0.056466,20,male,2020-08-18_19h17.58.872,torte-2b,2020.1.3,Win32,60,12844,,,,,,,,,,,,,,,,,,,,,,,,,,,,,,,,,,,,,0,118,118,24,1,,,,,,,,,,,,,,,,,,,,,,,,
,,,,,,,,,,,,a,0.85744,Incorrect,,,,,,t2.png,t1.png,1,0.9,20,male,2020-08-18_19h17.58.872,torte-2b,2020.1.3,Win32,60,12844,,,,,,,,,,,,,,,,,,,,,,,,,,,,,,,,,,,,,0,119,119,100,1,,,,,,,,,,,,,,,,,,,,,,,,
,,,,,,,,,,,,,,,,,,,,,,,,20,male,2020-08-18_19h17.58.872,torte-2b,2020.1.3,Win32,60,12844,space,1.643575,,,,,,,,,,,,,,,,,,,,,,,,,,,,,,,,,,,,,,,,52.00001603,187.9999942,1,0,0,s1,28.80001569,91.99999279,1,0,0,t1,443.2001195,-104.8000101,1,0,0,proceed,space,22.505355,space,1.267455,space,0.793375
