key_resp_8.keys,key_resp_8.rt,key_resp_9.keys,key_resp_9.rt,key_resp_10.keys,key_resp_10.rt,key_resp_11.keys,key_resp_11.rt,key_resp_2.keys,key_resp_2.rt,key_resp_3.keys,key_resp_3.rt,key_resp.keys,key_resp.rt,Feedback,train.thisRepN,train.thisTrialN,train.thisN,train.thisIndex,train.ran,torta_sx,torta_dx,difference,probability,age,gender,date,expName,psychopyVersion,OS,frameRate,participant,key_resp_15.keys,key_resp_15.rt,key_resp_6.keys,key_resp_6.rt,test1.thisRepN,test1.thisTrialN,test1.thisN,test1.thisIndex,test1.ran,key_resp_4.keys,key_resp_4.rt,key_resp_5.keys,back1.thisRepN,back1.thisTrialN,back1.thisN,back1.thisIndex,back1.ran,letter,key_resp_5.rt,back2.thisRepN,back2.thisTrialN,back2.thisN,back2.thisIndex,back2.ran,back3.thisRepN,back3.thisTrialN,back3.thisN,back3.thisIndex,back3.ran,back4.thisRepN,back4.thisTrialN,back4.thisN,back4.thisIndex,back4.ran,key_resp_7.keys,key_resp_7.rt,test2.thisRepN,test2.thisTrialN,test2.thisN,test2.thisIndex,test2.ran,mouse.x,mouse.y,mouse.leftButton,mouse.midButton,mouse.rightButton,mouse.clicked_name,mouse_2.x,mouse_2.y,mouse_2.leftButton,mouse_2.midButton,mouse_2.rightButton,mouse_2.clicked_name,mouse_3.x,mouse_3.y,mouse_3.leftButton,mouse_3.midButton,mouse_3.rightButton,mouse_3.clicked_name,key_resp_12.keys,key_resp_12.rt,key_resp_13.keys,key_resp_13.rt,key_resp_14.keys,key_resp_14.rt
space,1.80522,space,0.63623,space,3.070865,space,3.38272,space,14.788,space,41.69077,l,0.91035,Correct!,0,0,0,15,1,t2.png,t3.png,1,0.90855,25,Male,2020-07-31_13h36.19.211,torte-2b,2020.1.3,Win32,60,12917,,,,,,,,,,,,,,,,,,,,,,,,,,,,,,,,,,,,,,,,,,,,,,,,,,,,,,,,,,,,,,,,,
,,,,,,,,,,,,l,1.10417,Incorrect,0,1,1,58,1,t4.png,t5.png,1,0.90025,25,Male,2020-07-31_13h36.19.211,torte-2b,2020.1.3,Win32,60,12917,,,,,,,,,,,,,,,,,,,,,,,,,,,,,,,,,,,,,,,,,,,,,,,,,,,,,,,,,,,,,,,,,
,,,,,,,,,,,,a,0.841475,Correct!,0,2,2,12,1,t5.png,t5.png,0,0.97829,25,Male,2020-07-31_13h36.19.211,torte-2b,2020.1.3,Win32,60,12917,,,,,,,,,,,,,,,,,,,,,,,,,,,,,,,,,,,,,,,,,,,,,,,,,,,,,,,,,,,,,,,,,
,,,,,,,,,,,,a,0.987995,Correct!,0,3,3,29,1,t3.png,t2.png,1,0.90855,25,Male,2020-07-31_13h36.19.211,torte-2b,2020.1.3,Win32,60,12917,,,,,,,,,,,,,,,,,,,,,,,,,,,,,,,,,,,,,,,,,,,,,,,,,,,,,,,,,,,,,,,,,
,,,,,,,,,,,,l,0.68582,Correct!,0,4,4,62,1,t1.png,t4.png,3,0.0000131,25,Male,2020-07-31_13h36.19.211,torte-2b,2020.1.3,Win32,60,12917,,,,,,,,,,,,,,,,,,,,,,,,,,,,,,,,,,,,,,,,,,,,,,,,,,,,,,,,,,,,,,,,,
,,,,,,,,,,,,a,0.86803,Correct!,0,5,5,111,1,t1.png,t1.png,0,0.97829,25,Male,2020-07-31_13h36.19.211,torte-2b,2020.1.3,Win32,60,12917,,,,,,,,,,,,,,,,,,,,,,,,,,,,,,,,,,,,,,,,,,,,,,,,,,,,,,,,,,,,,,,,,
,,,,,,,,,,,,l,0.618955,Correct!,0,6,6,36,1,t1.png,t4.png,3,0.0000131,25,Male,2020-07-31_13h36.19.211,torte-2b,2020.1.3,Win32,60,12917,,,,,,,,,,,,,,,,,,,,,,,,,,,,,,,,,,,,,,,,,,,,,,,,,,,,,,,,,,,,,,,,,
,,,,,,,,,,,,l,0.50112,Correct!,0,7,7,34,1,t1.png,t5.png,4,9.55E-11,25,Male,2020-07-31_13h36.19.211,torte-2b,2020.1.3,Win32,60,12917,,,,,,,,,,,,,,,,,,,,,,,,,,,,,,,,,,,,,,,,,,,,,,,,,,,,,,,,,,,,,,,,,
,,,,,,,,,,,,a,0.51098,Incorrect,0,8,8,101,1,t5.png,t4.png,1,0.90025,25,Male,2020-07-31_13h36.19.211,torte-2b,2020.1.3,Win32,60,12917,,,,,,,,,,,,,,,,,,,,,,,,,,,,,,,,,,,,,,,,,,,,,,,,,,,,,,,,,,,,,,,,,
,,,,,,,,,,,,a,0.86117,Correct!,0,9,9,93,1,t5.png,t4.png,1,0.90025,25,Male,2020-07-31_13h36.19.211,torte-2b,2020.1.3,Win32,60,12917,,,,,,,,,,,,,,,,,,,,,,,,,,,,,,,,,,,,,,,,,,,,,,,,,,,,,,,,,,,,,,,,,
,,,,,,,,,,,,a,0.573985,Correct!,0,10,10,22,1,t5.png,t5.png,0,0.97829,25,Male,2020-07-31_13h36.19.211,torte-2b,2020.1.3,Win32,60,12917,,,,,,,,,,,,,,,,,,,,,,,,,,,,,,,,,,,,,,,,,,,,,,,,,,,,,,,,,,,,,,,,,
,,,,,,,,,,,,l,0.778825,Incorrect,0,11,11,42,1,t5.png,t5.png,0,0.97829,25,Male,2020-07-31_13h36.19.211,torte-2b,2020.1.3,Win32,60,12917,,,,,,,,,,,,,,,,,,,,,,,,,,,,,,,,,,,,,,,,,,,,,,,,,,,,,,,,,,,,,,,,,
,,,,,,,,,,,,a,0.715815,Correct!,0,12,12,4,1,t3.png,t2.png,1,0.90855,25,Male,2020-07-31_13h36.19.211,torte-2b,2020.1.3,Win32,60,12917,,,,,,,,,,,,,,,,,,,,,,,,,,,,,,,,,,,,,,,,,,,,,,,,,,,,,,,,,,,,,,,,,
,,,,,,,,,,,,l,0.48006,Correct!,0,13,13,70,1,t1.png,t5.png,4,9.55E-11,25,Male,2020-07-31_13h36.19.211,torte-2b,2020.1.3,Win32,60,12917,,,,,,,,,,,,,,,,,,,,,,,,,,,,,,,,,,,,,,,,,,,,,,,,,,,,,,,,,,,,,,,,,
,,,,,,,,,,,,l,0.640305,Correct!,0,14,14,104,1,t4.png,t5.png,1,0.90025,25,Male,2020-07-31_13h36.19.211,torte-2b,2020.1.3,Win32,60,12917,,,,,,,,,,,,,,,,,,,,,,,,,,,,,,,,,,,,,,,,,,,,,,,,,,,,,,,,,,,,,,,,,
,,,,,,,,,,,,l,0.556535,Correct!,0,15,15,96,1,t2.png,t4.png,2,0.059078,25,Male,2020-07-31_13h36.19.211,torte-2b,2020.1.3,Win32,60,12917,,,,,,,,,,,,,,,,,,,,,,,,,,,,,,,,,,,,,,,,,,,,,,,,,,,,,,,,,,,,,,,,,
,,,,,,,,,,,,l,0.63513,Incorrect,0,16,16,60,1,t4.png,t5.png,1,0.90025,25,Male,2020-07-31_13h36.19.211,torte-2b,2020.1.3,Win32,60,12917,,,,,,,,,,,,,,,,,,,,,,,,,,,,,,,,,,,,,,,,,,,,,,,,,,,,,,,,,,,,,,,,,
,,,,,,,,,,,,l,0.58335,Incorrect,0,17,17,56,1,t2.png,t3.png,1,0.90855,25,Male,2020-07-31_13h36.19.211,torte-2b,2020.1.3,Win32,60,12917,,,,,,,,,,,,,,,,,,,,,,,,,,,,,,,,,,,,,,,,,,,,,,,,,,,,,,,,,,,,,,,,,
,,,,,,,,,,,,a,0.51919,Incorrect,0,18,18,105,1,t4.png,t1.png,3,0.059078,25,Male,2020-07-31_13h36.19.211,torte-2b,2020.1.3,Win32,60,12917,,,,,,,,,,,,,,,,,,,,,,,,,,,,,,,,,,,,,,,,,,,,,,,,,,,,,,,,,,,,,,,,,
,,,,,,,,,,,,a,0.4384,Correct!,0,19,19,103,1,t4.png,t1.png,3,0.059078,25,Male,2020-07-31_13h36.19.211,torte-2b,2020.1.3,Win32,60,12917,,,,,,,,,,,,,,,,,,,,,,,,,,,,,,,,,,,,,,,,,,,,,,,,,,,,,,,,,,,,,,,,,
,,,,,,,,,,,,l,0.41932,Correct!,0,20,20,16,1,t1.png,t5.png,4,9.55E-11,25,Male,2020-07-31_13h36.19.211,torte-2b,2020.1.3,Win32,60,12917,,,,,,,,,,,,,,,,,,,,,,,,,,,,,,,,,,,,,,,,,,,,,,,,,,,,,,,,,,,,,,,,,
,,,,,,,,,,,,l,0.56924,Correct!,0,21,21,71,1,t4.png,t5.png,1,0.90025,25,Male,2020-07-31_13h36.19.211,torte-2b,2020.1.3,Win32,60,12917,,,,,,,,,,,,,,,,,,,,,,,,,,,,,,,,,,,,,,,,,,,,,,,,,,,,,,,,,,,,,,,,,
,,,,,,,,,,,,l,0.49447,Correct!,0,22,22,37,1,t2.png,t4.png,2,0.059078,25,Male,2020-07-31_13h36.19.211,torte-2b,2020.1.3,Win32,60,12917,,,,,,,,,,,,,,,,,,,,,,,,,,,,,,,,,,,,,,,,,,,,,,,,,,,,,,,,,,,,,,,,,
,,,,,,,,,,,,l,0.420895,Correct!,0,23,23,115,1,t2.png,t4.png,2,0.059078,25,Male,2020-07-31_13h36.19.211,torte-2b,2020.1.3,Win32,60,12917,,,,,,,,,,,,,,,,,,,,,,,,,,,,,,,,,,,,,,,,,,,,,,,,,,,,,,,,,,,,,,,,,
,,,,,,,,,,,,a,0.525915,Correct!,0,24,24,72,1,t5.png,t5.png,0,0.97829,25,Male,2020-07-31_13h36.19.211,torte-2b,2020.1.3,Win32,60,12917,,,,,,,,,,,,,,,,,,,,,,,,,,,,,,,,,,,,,,,,,,,,,,,,,,,,,,,,,,,,,,,,,
,,,,,,,,,,,,a,0.61696,Correct!,0,25,25,109,1,t5.png,t5.png,0,0.97829,25,Male,2020-07-31_13h36.19.211,torte-2b,2020.1.3,Win32,60,12917,,,,,,,,,,,,,,,,,,,,,,,,,,,,,,,,,,,,,,,,,,,,,,,,,,,,,,,,,,,,,,,,,
,,,,,,,,,,,,a,0.758485,Incorrect,0,26,26,1,1,t3.png,t1.png,2,0.056466,25,Male,2020-07-31_13h36.19.211,torte-2b,2020.1.3,Win32,60,12917,,,,,,,,,,,,,,,,,,,,,,,,,,,,,,,,,,,,,,,,,,,,,,,,,,,,,,,,,,,,,,,,,
,,,,,,,,,,,,a,0.43018,Incorrect,0,27,27,87,1,t5.png,t1.png,4,9.55E-11,25,Male,2020-07-31_13h36.19.211,torte-2b,2020.1.3,Win32,60,12917,,,,,,,,,,,,,,,,,,,,,,,,,,,,,,,,,,,,,,,,,,,,,,,,,,,,,,,,,,,,,,,,,
,,,,,,,,,,,,l,0.452605,Correct!,0,28,28,118,1,t1.png,t5.png,4,9.55E-11,25,Male,2020-07-31_13h36.19.211,torte-2b,2020.1.3,Win32,60,12917,,,,,,,,,,,,,,,,,,,,,,,,,,,,,,,,,,,,,,,,,,,,,,,,,,,,,,,,,,,,,,,,,
,,,,,,,,,,,,a,0.59416,Correct!,0,29,29,83,1,t3.png,t2.png,1,0.90855,25,Male,2020-07-31_13h36.19.211,torte-2b,2020.1.3,Win32,60,12917,,,,,,,,,,,,,,,,,,,,,,,,,,,,,,,,,,,,,,,,,,,,,,,,,,,,,,,,,,,,,,,,,
,,,,,,,,,,,,a,0.59944,Correct!,0,30,30,32,1,t3.png,t2.png,1,0.90855,25,Male,2020-07-31_13h36.19.211,torte-2b,2020.1.3,Win32,60,12917,,,,,,,,,,,,,,,,,,,,,,,,,,,,,,,,,,,,,,,,,,,,,,,,,,,,,,,,,,,,,,,,,
,,,,,,,,,,,,a,0.451605,Correct!,0,31,31,94,1,t3.png,t1.png,2,0.056466,25,Male,2020-07-31_13h36.19.211,torte-2b,2020.1.3,Win32,60,12917,,,,,,,,,,,,,,,,,,,,,,,,,,,,,,,,,,,,,,,,,,,,,,,,,,,,,,,,,,,,,,,,,
,,,,,,,,,,,,l,0.40659,Correct!,0,32,32,40,1,t2.png,t4.png,2,0.059078,25,Male,2020-07-31_13h36.19.211,torte-2b,2020.1.3,Win32,60,12917,,,,,,,,,,,,,,,,,,,,,,,,,,,,,,,,,,,,,,,,,,,,,,,,,,,,,,,,,,,,,,,,,
,,,,,,,,,,,,l,0.50129,Correct!,0,33,33,89,1,t1.png,t5.png,4,9.55E-11,25,Male,2020-07-31_13h36.19.211,torte-2b,2020.1.3,Win32,60,12917,,,,,,,,,,,,,,,,,,,,,,,,,,,,,,,,,,,,,,,,,,,,,,,,,,,,,,,,,,,,,,,,,
,,,,,,,,,,,,l,0.395815,Incorrect,0,34,34,31,1,t1.png,t1.png,0,0.97829,25,Male,2020-07-31_13h36.19.211,torte-2b,2020.1.3,Win32,60,12917,,,,,,,,,,,,,,,,,,,,,,,,,,,,,,,,,,,,,,,,,,,,,,,,,,,,,,,,,,,,,,,,,
,,,,,,,,,,,,a,0.394845,Incorrect,0,35,35,74,1,t5.png,t1.png,4,9.55E-11,25,Male,2020-07-31_13h36.19.211,torte-2b,2020.1.3,Win32,60,12917,,,,,,,,,,,,,,,,,,,,,,,,,,,,,,,,,,,,,,,,,,,,,,,,,,,,,,,,,,,,,,,,,
,,,,,,,,,,,,l,0.39245,Correct!,0,36,36,102,1,t2.png,t4.png,2,0.059078,25,Male,2020-07-31_13h36.19.211,torte-2b,2020.1.3,Win32,60,12917,,,,,,,,,,,,,,,,,,,,,,,,,,,,,,,,,,,,,,,,,,,,,,,,,,,,,,,,,,,,,,,,,
,,,,,,,,,,,,a,0.4286,Incorrect,0,37,37,54,1,t3.png,t1.png,2,0.056466,25,Male,2020-07-31_13h36.19.211,torte-2b,2020.1.3,Win32,60,12917,,,,,,,,,,,,,,,,,,,,,,,,,,,,,,,,,,,,,,,,,,,,,,,,,,,,,,,,,,,,,,,,,
,,,,,,,,,,,,a,0.50903,Correct!,0,38,38,67,1,t3.png,t2.png,1,0.90855,25,Male,2020-07-31_13h36.19.211,torte-2b,2020.1.3,Win32,60,12917,,,,,,,,,,,,,,,,,,,,,,,,,,,,,,,,,,,,,,,,,,,,,,,,,,,,,,,,,,,,,,,,,
,,,,,,,,,,,,a,0.392465,Correct!,0,39,39,85,1,t5.png,t4.png,1,0.90025,25,Male,2020-07-31_13h36.19.211,torte-2b,2020.1.3,Win32,60,12917,,,,,,,,,,,,,,,,,,,,,,,,,,,,,,,,,,,,,,,,,,,,,,,,,,,,,,,,,,,,,,,,,
,,,,,,,,,,,,a,0.403285,Incorrect,0,40,40,113,1,t5.png,t1.png,4,9.55E-11,25,Male,2020-07-31_13h36.19.211,torte-2b,2020.1.3,Win32,60,12917,,,,,,,,,,,,,,,,,,,,,,,,,,,,,,,,,,,,,,,,,,,,,,,,,,,,,,,,,,,,,,,,,
,,,,,,,,,,,,a,0.418755,Incorrect,0,41,41,106,1,t4.png,t1.png,3,0.059078,25,Male,2020-07-31_13h36.19.211,torte-2b,2020.1.3,Win32,60,12917,,,,,,,,,,,,,,,,,,,,,,,,,,,,,,,,,,,,,,,,,,,,,,,,,,,,,,,,,,,,,,,,,
,,,,,,,,,,,,a,0.396015,Incorrect,0,42,42,59,1,t5.png,t1.png,4,9.55E-11,25,Male,2020-07-31_13h36.19.211,torte-2b,2020.1.3,Win32,60,12917,,,,,,,,,,,,,,,,,,,,,,,,,,,,,,,,,,,,,,,,,,,,,,,,,,,,,,,,,,,,,,,,,
,,,,,,,,,,,,a,0.42303,Correct!,0,43,43,110,1,t4.png,t5.png,1,0.90025,25,Male,2020-07-31_13h36.19.211,torte-2b,2020.1.3,Win32,60,12917,,,,,,,,,,,,,,,,,,,,,,,,,,,,,,,,,,,,,,,,,,,,,,,,,,,,,,,,,,,,,,,,,
,,,,,,,,,,,,l,1.06555,Incorrect,0,44,44,52,1,t2.png,t3.png,1,0.90855,25,Male,2020-07-31_13h36.19.211,torte-2b,2020.1.3,Win32,60,12917,,,,,,,,,,,,,,,,,,,,,,,,,,,,,,,,,,,,,,,,,,,,,,,,,,,,,,,,,,,,,,,,,
,,,,,,,,,,,,a,0.520845,Incorrect,0,45,45,10,1,t4.png,t1.png,3,0.059078,25,Male,2020-07-31_13h36.19.211,torte-2b,2020.1.3,Win32,60,12917,,,,,,,,,,,,,,,,,,,,,,,,,,,,,,,,,,,,,,,,,,,,,,,,,,,,,,,,,,,,,,,,,
,,,,,,,,,,,,a,0.64965,Correct!,0,46,46,69,1,t5.png,t4.png,1,0.90025,25,Male,2020-07-31_13h36.19.211,torte-2b,2020.1.3,Win32,60,12917,,,,,,,,,,,,,,,,,,,,,,,,,,,,,,,,,,,,,,,,,,,,,,,,,,,,,,,,,,,,,,,,,
,,,,,,,,,,,,l,0.42299,Correct!,0,47,47,95,1,t1.png,t4.png,3,0.0000131,25,Male,2020-07-31_13h36.19.211,torte-2b,2020.1.3,Win32,60,12917,,,,,,,,,,,,,,,,,,,,,,,,,,,,,,,,,,,,,,,,,,,,,,,,,,,,,,,,,,,,,,,,,
,,,,,,,,,,,,a,0.695755,Correct!,0,48,48,24,1,t5.png,t5.png,0,0.97829,25,Male,2020-07-31_13h36.19.211,torte-2b,2020.1.3,Win32,60,12917,,,,,,,,,,,,,,,,,,,,,,,,,,,,,,,,,,,,,,,,,,,,,,,,,,,,,,,,,,,,,,,,,
,,,,,,,,,,,,l,0.644765,Incorrect,0,49,49,53,1,t1.png,t1.png,0,0.97829,25,Male,2020-07-31_13h36.19.211,torte-2b,2020.1.3,Win32,60,12917,,,,,,,,,,,,,,,,,,,,,,,,,,,,,,,,,,,,,,,,,,,,,,,,,,,,,,,,,,,,,,,,,
,,,,,,,,,,,,l,0.59362,Incorrect,0,50,50,18,1,t2.png,t3.png,1,0.90855,25,Male,2020-07-31_13h36.19.211,torte-2b,2020.1.3,Win32,60,12917,,,,,,,,,,,,,,,,,,,,,,,,,,,,,,,,,,,,,,,,,,,,,,,,,,,,,,,,,,,,,,,,,
,,,,,,,,,,,,a,0.474155,Incorrect,0,51,51,82,1,t3.png,t1.png,2,0.056466,25,Male,2020-07-31_13h36.19.211,torte-2b,2020.1.3,Win32,60,12917,,,,,,,,,,,,,,,,,,,,,,,,,,,,,,,,,,,,,,,,,,,,,,,,,,,,,,,,,,,,,,,,,
,,,,,,,,,,,,l,0.461705,Correct!,0,52,52,44,1,t1.png,t4.png,3,0.0000131,25,Male,2020-07-31_13h36.19.211,torte-2b,2020.1.3,Win32,60,12917,,,,,,,,,,,,,,,,,,,,,,,,,,,,,,,,,,,,,,,,,,,,,,,,,,,,,,,,,,,,,,,,,
,,,,,,,,,,,,l,0.52249,Incorrect,0,53,53,46,1,t1.png,t1.png,0,0.97829,25,Male,2020-07-31_13h36.19.211,torte-2b,2020.1.3,Win32,60,12917,,,,,,,,,,,,,,,,,,,,,,,,,,,,,,,,,,,,,,,,,,,,,,,,,,,,,,,,,,,,,,,,,
,,,,,,,,,,,,l,0.48169,Correct!,0,54,54,35,1,t1.png,t4.png,3,0.0000131,25,Male,2020-07-31_13h36.19.211,torte-2b,2020.1.3,Win32,60,12917,,,,,,,,,,,,,,,,,,,,,,,,,,,,,,,,,,,,,,,,,,,,,,,,,,,,,,,,,,,,,,,,,
,,,,,,,,,,,,a,0.3877,Incorrect,0,55,55,3,1,t4.png,t1.png,3,0.059078,25,Male,2020-07-31_13h36.19.211,torte-2b,2020.1.3,Win32,60,12917,,,,,,,,,,,,,,,,,,,,,,,,,,,,,,,,,,,,,,,,,,,,,,,,,,,,,,,,,,,,,,,,,
,,,,,,,,,,,,a,0.402515,Incorrect,0,56,56,6,1,t5.png,t1.png,4,9.55E-11,25,Male,2020-07-31_13h36.19.211,torte-2b,2020.1.3,Win32,60,12917,,,,,,,,,,,,,,,,,,,,,,,,,,,,,,,,,,,,,,,,,,,,,,,,,,,,,,,,,,,,,,,,,
,,,,,,,,,,,,l,0.47073,Incorrect,0,57,57,38,1,t1.png,t1.png,0,0.97829,25,Male,2020-07-31_13h36.19.211,torte-2b,2020.1.3,Win32,60,12917,,,,,,,,,,,,,,,,,,,,,,,,,,,,,,,,,,,,,,,,,,,,,,,,,,,,,,,,,,,,,,,,,
,,,,,,,,,,,,a,0.32088,Incorrect,0,58,58,17,1,t4.png,t1.png,3,0.059078,25,Male,2020-07-31_13h36.19.211,torte-2b,2020.1.3,Win32,60,12917,,,,,,,,,,,,,,,,,,,,,,,,,,,,,,,,,,,,,,,,,,,,,,,,,,,,,,,,,,,,,,,,,
,,,,,,,,,,,,a,0.446265,Incorrect,0,59,59,2,1,t3.png,t1.png,2,0.056466,25,Male,2020-07-31_13h36.19.211,torte-2b,2020.1.3,Win32,60,12917,,,,,,,,,,,,,,,,,,,,,,,,,,,,,,,,,,,,,,,,,,,,,,,,,,,,,,,,,,,,,,,,,
,,,,,,,,,,,,a,0.32078,Incorrect,0,60,60,80,1,t4.png,t1.png,3,0.059078,25,Male,2020-07-31_13h36.19.211,torte-2b,2020.1.3,Win32,60,12917,,,,,,,,,,,,,,,,,,,,,,,,,,,,,,,,,,,,,,,,,,,,,,,,,,,,,,,,,,,,,,,,,
,,,,,,,,,,,,l,0.41575,Correct!,0,61,61,9,1,t1.png,t5.png,4,9.55E-11,25,Male,2020-07-31_13h36.19.211,torte-2b,2020.1.3,Win32,60,12917,,,,,,,,,,,,,,,,,,,,,,,,,,,,,,,,,,,,,,,,,,,,,,,,,,,,,,,,,,,,,,,,,
,,,,,,,,,,,,l,0.534345,Incorrect,0,62,62,84,1,t2.png,t3.png,1,0.90855,25,Male,2020-07-31_13h36.19.211,torte-2b,2020.1.3,Win32,60,12917,,,,,,,,,,,,,,,,,,,,,,,,,,,,,,,,,,,,,,,,,,,,,,,,,,,,,,,,,,,,,,,,,
,,,,,,,,,,,,a,0.461695,Incorrect,0,63,63,43,1,t3.png,t1.png,2,0.056466,25,Male,2020-07-31_13h36.19.211,torte-2b,2020.1.3,Win32,60,12917,,,,,,,,,,,,,,,,,,,,,,,,,,,,,,,,,,,,,,,,,,,,,,,,,,,,,,,,,,,,,,,,,
,,,,,,,,,,,,l,0.383075,Correct!,0,64,64,78,1,t1.png,t4.png,3,0.0000131,25,Male,2020-07-31_13h36.19.211,torte-2b,2020.1.3,Win32,60,12917,,,,,,,,,,,,,,,,,,,,,,,,,,,,,,,,,,,,,,,,,,,,,,,,,,,,,,,,,,,,,,,,,
,,,,,,,,,,,,l,0.37509,Correct!,0,65,65,13,1,t2.png,t4.png,2,0.059078,25,Male,2020-07-31_13h36.19.211,torte-2b,2020.1.3,Win32,60,12917,,,,,,,,,,,,,,,,,,,,,,,,,,,,,,,,,,,,,,,,,,,,,,,,,,,,,,,,,,,,,,,,,
,,,,,,,,,,,,l,0.36792,Correct!,0,66,66,117,1,t2.png,t4.png,2,0.059078,25,Male,2020-07-31_13h36.19.211,torte-2b,2020.1.3,Win32,60,12917,,,,,,,,,,,,,,,,,,,,,,,,,,,,,,,,,,,,,,,,,,,,,,,,,,,,,,,,,,,,,,,,,
,,,,,,,,,,,,l,0.316225,Correct!,0,67,67,107,1,t1.png,t4.png,3,0.0000131,25,Male,2020-07-31_13h36.19.211,torte-2b,2020.1.3,Win32,60,12917,,,,,,,,,,,,,,,,,,,,,,,,,,,,,,,,,,,,,,,,,,,,,,,,,,,,,,,,,,,,,,,,,
,,,,,,,,,,,,l,0.31545,Incorrect,0,68,68,100,1,t3.png,t2.png,1,0.90855,25,Male,2020-07-31_13h36.19.211,torte-2b,2020.1.3,Win32,60,12917,,,,,,,,,,,,,,,,,,,,,,,,,,,,,,,,,,,,,,,,,,,,,,,,,,,,,,,,,,,,,,,,,
,,,,,,,,,,,,l,0.577805,Incorrect,0,69,69,23,1,t4.png,t5.png,1,0.90025,25,Male,2020-07-31_13h36.19.211,torte-2b,2020.1.3,Win32,60,12917,,,,,,,,,,,,,,,,,,,,,,,,,,,,,,,,,,,,,,,,,,,,,,,,,,,,,,,,,,,,,,,,,
,,,,,,,,,,,,a,0.582505,Correct!,0,70,70,61,1,t1.png,t1.png,0,0.97829,25,Male,2020-07-31_13h36.19.211,torte-2b,2020.1.3,Win32,60,12917,,,,,,,,,,,,,,,,,,,,,,,,,,,,,,,,,,,,,,,,,,,,,,,,,,,,,,,,,,,,,,,,,
,,,,,,,,,,,,a,0.460815,Incorrect,0,71,71,81,1,t3.png,t1.png,2,0.056466,25,Male,2020-07-31_13h36.19.211,torte-2b,2020.1.3,Win32,60,12917,,,,,,,,,,,,,,,,,,,,,,,,,,,,,,,,,,,,,,,,,,,,,,,,,,,,,,,,,,,,,,,,,
,,,,,,,,,,,,l,0.438105,Incorrect,0,72,72,19,1,t2.png,t4.png,2,0.059078,25,Male,2020-07-31_13h36.19.211,torte-2b,2020.1.3,Win32,60,12917,,,,,,,,,,,,,,,,,,,,,,,,,,,,,,,,,,,,,,,,,,,,,,,,,,,,,,,,,,,,,,,,,
,,,,,,,,,,,,l,0.592705,Incorrect,0,73,73,116,1,t4.png,t5.png,1,0.90025,25,Male,2020-07-31_13h36.19.211,torte-2b,2020.1.3,Win32,60,12917,,,,,,,,,,,,,,,,,,,,,,,,,,,,,,,,,,,,,,,,,,,,,,,,,,,,,,,,,,,,,,,,,
,,,,,,,,,,,,a,0.478105,Correct!,0,74,74,7,1,t3.png,t2.png,1,0.90855,25,Male,2020-07-31_13h36.19.211,torte-2b,2020.1.3,Win32,60,12917,,,,,,,,,,,,,,,,,,,,,,,,,,,,,,,,,,,,,,,,,,,,,,,,,,,,,,,,,,,,,,,,,
,,,,,,,,,,,,l,0.63833,Incorrect,0,75,75,47,1,t2.png,t3.png,1,0.90855,25,Male,2020-07-31_13h36.19.211,torte-2b,2020.1.3,Win32,60,12917,,,,,,,,,,,,,,,,,,,,,,,,,,,,,,,,,,,,,,,,,,,,,,,,,,,,,,,,,,,,,,,,,
,,,,,,,,,,,,a,0.543175,Correct!,0,76,76,86,1,t5.png,t4.png,1,0.90025,25,Male,2020-07-31_13h36.19.211,torte-2b,2020.1.3,Win32,60,12917,,,,,,,,,,,,,,,,,,,,,,,,,,,,,,,,,,,,,,,,,,,,,,,,,,,,,,,,,,,,,,,,,
,,,,,,,,,,,,a,0.581965,Correct!,0,77,77,91,1,t5.png,t4.png,1,0.90025,25,Male,2020-07-31_13h36.19.211,torte-2b,2020.1.3,Win32,60,12917,,,,,,,,,,,,,,,,,,,,,,,,,,,,,,,,,,,,,,,,,,,,,,,,,,,,,,,,,,,,,,,,,
,,,,,,,,,,,,l,0.685855,Incorrect,0,78,78,30,1,t2.png,t3.png,1,0.90855,25,Male,2020-07-31_13h36.19.211,torte-2b,2020.1.3,Win32,60,12917,,,,,,,,,,,,,,,,,,,,,,,,,,,,,,,,,,,,,,,,,,,,,,,,,,,,,,,,,,,,,,,,,
,,,,,,,,,,,,l,0.594105,Incorrect,0,79,79,45,1,t4.png,t5.png,1,0.90025,25,Male,2020-07-31_13h36.19.211,torte-2b,2020.1.3,Win32,60,12917,,,,,,,,,,,,,,,,,,,,,,,,,,,,,,,,,,,,,,,,,,,,,,,,,,,,,,,,,,,,,,,,,
,,,,,,,,,,,,a,0.41934,Correct!,0,80,80,21,1,t5.png,t4.png,1,0.90025,25,Male,2020-07-31_13h36.19.211,torte-2b,2020.1.3,Win32,60,12917,,,,,,,,,,,,,,,,,,,,,,,,,,,,,,,,,,,,,,,,,,,,,,,,,,,,,,,,,,,,,,,,,
,,,,,,,,,,,,l,0.399235,Correct!,0,81,81,63,1,t1.png,t5.png,4,9.55E-11,25,Male,2020-07-31_13h36.19.211,torte-2b,2020.1.3,Win32,60,12917,,,,,,,,,,,,,,,,,,,,,,,,,,,,,,,,,,,,,,,,,,,,,,,,,,,,,,,,,,,,,,,,,
,,,,,,,,,,,,a,0.48787,Correct!,0,82,82,20,1,t5.png,t5.png,0,0.97829,25,Male,2020-07-31_13h36.19.211,torte-2b,2020.1.3,Win32,60,12917,,,,,,,,,,,,,,,,,,,,,,,,,,,,,,,,,,,,,,,,,,,,,,,,,,,,,,,,,,,,,,,,,
,,,,,,,,,,,,l,0.59254,Incorrect,0,83,83,41,1,t4.png,t5.png,1,0.90025,25,Male,2020-07-31_13h36.19.211,torte-2b,2020.1.3,Win32,60,12917,,,,,,,,,,,,,,,,,,,,,,,,,,,,,,,,,,,,,,,,,,,,,,,,,,,,,,,,,,,,,,,,,
,,,,,,,,,,,,a,0.48704,Correct!,0,84,84,112,1,t5.png,t4.png,1,0.90025,25,Male,2020-07-31_13h36.19.211,torte-2b,2020.1.3,Win32,60,12917,,,,,,,,,,,,,,,,,,,,,,,,,,,,,,,,,,,,,,,,,,,,,,,,,,,,,,,,,,,,,,,,,
,,,,,,,,,,,,a,0.467715,Incorrect,0,85,85,99,1,t4.png,t1.png,3,0.059078,25,Male,2020-07-31_13h36.19.211,torte-2b,2020.1.3,Win32,60,12917,,,,,,,,,,,,,,,,,,,,,,,,,,,,,,,,,,,,,,,,,,,,,,,,,,,,,,,,,,,,,,,,,
,,,,,,,,,,,,a,0.43922,Correct!,0,86,86,77,1,t3.png,t2.png,1,0.90855,25,Male,2020-07-31_13h36.19.211,torte-2b,2020.1.3,Win32,60,12917,,,,,,,,,,,,,,,,,,,,,,,,,,,,,,,,,,,,,,,,,,,,,,,,,,,,,,,,,,,,,,,,,
,,,,,,,,,,,,l,0.373675,Correct!,0,87,87,28,1,t1.png,t4.png,3,0.0000131,25,Male,2020-07-31_13h36.19.211,torte-2b,2020.1.3,Win32,60,12917,,,,,,,,,,,,,,,,,,,,,,,,,,,,,,,,,,,,,,,,,,,,,,,,,,,,,,,,,,,,,,,,,
,,,,,,,,,,,,l,0.38844,Incorrect,0,88,88,75,1,t2.png,t3.png,1,0.90855,25,Male,2020-07-31_13h36.19.211,torte-2b,2020.1.3,Win32,60,12917,,,,,,,,,,,,,,,,,,,,,,,,,,,,,,,,,,,,,,,,,,,,,,,,,,,,,,,,,,,,,,,,,
,,,,,,,,,,,,l,0.5698,Incorrect,0,89,89,90,1,t4.png,t5.png,1,0.90025,25,Male,2020-07-31_13h36.19.211,torte-2b,2020.1.3,Win32,60,12917,,,,,,,,,,,,,,,,,,,,,,,,,,,,,,,,,,,,,,,,,,,,,,,,,,,,,,,,,,,,,,,,,
,,,,,,,,,,,,l,0.398615,Correct!,0,90,90,11,1,t1.png,t4.png,3,0.0000131,25,Male,2020-07-31_13h36.19.211,torte-2b,2020.1.3,Win32,60,12917,,,,,,,,,,,,,,,,,,,,,,,,,,,,,,,,,,,,,,,,,,,,,,,,,,,,,,,,,,,,,,,,,
,,,,,,,,,,,,a,0.399525,Correct!,0,91,91,5,1,t5.png,t5.png,0,0.97829,25,Male,2020-07-31_13h36.19.211,torte-2b,2020.1.3,Win32,60,12917,,,,,,,,,,,,,,,,,,,,,,,,,,,,,,,,,,,,,,,,,,,,,,,,,,,,,,,,,,,,,,,,,
,,,,,,,,,,,,a,0.558065,Correct!,0,92,92,114,1,t5.png,t4.png,1,0.90025,25,Male,2020-07-31_13h36.19.211,torte-2b,2020.1.3,Win32,60,12917,,,,,,,,,,,,,,,,,,,,,,,,,,,,,,,,,,,,,,,,,,,,,,,,,,,,,,,,,,,,,,,,,
,,,,,,,,,,,,a,0.40453,Incorrect,0,93,93,49,1,t5.png,t1.png,4,9.55E-11,25,Male,2020-07-31_13h36.19.211,torte-2b,2020.1.3,Win32,60,12917,,,,,,,,,,,,,,,,,,,,,,,,,,,,,,,,,,,,,,,,,,,,,,,,,,,,,,,,,,,,,,,,,
,,,,,,,,,,,,a,0.404115,Incorrect,0,94,94,66,1,t5.png,t1.png,4,9.55E-11,25,Male,2020-07-31_13h36.19.211,torte-2b,2020.1.3,Win32,60,12917,,,,,,,,,,,,,,,,,,,,,,,,,,,,,,,,,,,,,,,,,,,,,,,,,,,,,,,,,,,,,,,,,
,,,,,,,,,,,,l,0.454395,Correct!,0,95,95,79,1,t1.png,t4.png,3,0.0000131,25,Male,2020-07-31_13h36.19.211,torte-2b,2020.1.3,Win32,60,12917,,,,,,,,,,,,,,,,,,,,,,,,,,,,,,,,,,,,,,,,,,,,,,,,,,,,,,,,,,,,,,,,,
,,,,,,,,,,,,a,0.40395,Incorrect,0,96,96,92,1,t5.png,t1.png,4,9.55E-11,25,Male,2020-07-31_13h36.19.211,torte-2b,2020.1.3,Win32,60,12917,,,,,,,,,,,,,,,,,,,,,,,,,,,,,,,,,,,,,,,,,,,,,,,,,,,,,,,,,,,,,,,,,
,,,,,,,,,,,,l,0.641155,Incorrect,0,97,97,55,1,t1.png,t1.png,0,0.97829,25,Male,2020-07-31_13h36.19.211,torte-2b,2020.1.3,Win32,60,12917,,,,,,,,,,,,,,,,,,,,,,,,,,,,,,,,,,,,,,,,,,,,,,,,,,,,,,,,,,,,,,,,,
,,,,,,,,,,,,a,0.373405,Incorrect,0,98,98,76,1,t4.png,t1.png,3,0.059078,25,Male,2020-07-31_13h36.19.211,torte-2b,2020.1.3,Win32,60,12917,,,,,,,,,,,,,,,,,,,,,,,,,,,,,,,,,,,,,,,,,,,,,,,,,,,,,,,,,,,,,,,,,
,,,,,,,,,,,,l,0.51144,Incorrect,0,99,99,88,1,t1.png,t1.png,0,0.97829,25,Male,2020-07-31_13h36.19.211,torte-2b,2020.1.3,Win32,60,12917,,,,,,,,,,,,,,,,,,,,,,,,,,,,,,,,,,,,,,,,,,,,,,,,,,,,,,,,,,,,,,,,,
,,,,,,,,,,,,l,0.51642,Incorrect,0,100,100,25,1,t1.png,t1.png,0,0.97829,25,Male,2020-07-31_13h36.19.211,torte-2b,2020.1.3,Win32,60,12917,,,,,,,,,,,,,,,,,,,,,,,,,,,,,,,,,,,,,,,,,,,,,,,,,,,,,,,,,,,,,,,,,
,,,,,,,,,,,,l,0.448655,Correct!,0,101,101,39,1,t2.png,t4.png,2,0.059078,25,Male,2020-07-31_13h36.19.211,torte-2b,2020.1.3,Win32,60,12917,,,,,,,,,,,,,,,,,,,,,,,,,,,,,,,,,,,,,,,,,,,,,,,,,,,,,,,,,,,,,,,,,
,,,,,,,,,,,,l,0.4075,Correct!,0,102,102,27,1,t1.png,t5.png,4,9.55E-11,25,Male,2020-07-31_13h36.19.211,torte-2b,2020.1.3,Win32,60,12917,,,,,,,,,,,,,,,,,,,,,,,,,,,,,,,,,,,,,,,,,,,,,,,,,,,,,,,,,,,,,,,,,
,,,,,,,,,,,,a,0.441725,Incorrect,0,103,103,51,1,t4.png,t1.png,3,0.059078,25,Male,2020-07-31_13h36.19.211,torte-2b,2020.1.3,Win32,60,12917,,,,,,,,,,,,,,,,,,,,,,,,,,,,,,,,,,,,,,,,,,,,,,,,,,,,,,,,,,,,,,,,,
,,,,,,,,,,,,l,0.651745,Incorrect,0,104,104,8,1,t5.png,t5.png,0,0.97829,25,Male,2020-07-31_13h36.19.211,torte-2b,2020.1.3,Win32,60,12917,,,,,,,,,,,,,,,,,,,,,,,,,,,,,,,,,,,,,,,,,,,,,,,,,,,,,,,,,,,,,,,,,
,,,,,,,,,,,,a,0.517795,Incorrect,0,105,105,73,1,t3.png,t1.png,2,0.056466,25,Male,2020-07-31_13h36.19.211,torte-2b,2020.1.3,Win32,60,12917,,,,,,,,,,,,,,,,,,,,,,,,,,,,,,,,,,,,,,,,,,,,,,,,,,,,,,,,,,,,,,,,,
,,,,,,,,,,,,a,0.371305,Incorrect,0,106,106,98,1,t5.png,t1.png,4,9.55E-11,25,Male,2020-07-31_13h36.19.211,torte-2b,2020.1.3,Win32,60,12917,,,,,,,,,,,,,,,,,,,,,,,,,,,,,,,,,,,,,,,,,,,,,,,,,,,,,,,,,,,,,,,,,
,,,,,,,,,,,,l,0.390775,Correct!,0,107,107,26,1,t1.png,t5.png,4,9.55E-11,25,Male,2020-07-31_13h36.19.211,torte-2b,2020.1.3,Win32,60,12917,,,,,,,,,,,,,,,,,,,,,,,,,,,,,,,,,,,,,,,,,,,,,,,,,,,,,,,,,,,,,,,,,
,,,,,,,,,,,,a,0.422405,Incorrect,0,108,108,57,1,t3.png,t1.png,2,0.056466,25,Male,2020-07-31_13h36.19.211,torte-2b,2020.1.3,Win32,60,12917,,,,,,,,,,,,,,,,,,,,,,,,,,,,,,,,,,,,,,,,,,,,,,,,,,,,,,,,,,,,,,,,,
,,,,,,,,,,,,l,0.64098,Incorrect,0,109,109,14,1,t2.png,t3.png,1,0.90855,25,Male,2020-07-31_13h36.19.211,torte-2b,2020.1.3,Win32,60,12917,,,,,,,,,,,,,,,,,,,,,,,,,,,,,,,,,,,,,,,,,,,,,,,,,,,,,,,,,,,,,,,,,
,,,,,,,,,,,,l,0.40246,Correct!,0,110,110,68,1,t2.png,t4.png,2,0.059078,25,Male,2020-07-31_13h36.19.211,torte-2b,2020.1.3,Win32,60,12917,,,,,,,,,,,,,,,,,,,,,,,,,,,,,,,,,,,,,,,,,,,,,,,,,,,,,,,,,,,,,,,,,
,,,,,,,,,,,,l,0.454975,Incorrect,0,111,111,48,1,t2.png,t3.png,1,0.90855,25,Male,2020-07-31_13h36.19.211,torte-2b,2020.1.3,Win32,60,12917,,,,,,,,,,,,,,,,,,,,,,,,,,,,,,,,,,,,,,,,,,,,,,,,,,,,,,,,,,,,,,,,,
,,,,,,,,,,,,a,0.39037,Incorrect,0,112,112,108,1,t3.png,t1.png,2,0.056466,25,Male,2020-07-31_13h36.19.211,torte-2b,2020.1.3,Win32,60,12917,,,,,,,,,,,,,,,,,,,,,,,,,,,,,,,,,,,,,,,,,,,,,,,,,,,,,,,,,,,,,,,,,
,,,,,,,,,,,,a,0.584345,Correct!,0,113,113,119,1,t5.png,t4.png,1,0.90025,25,Male,2020-07-31_13h36.19.211,torte-2b,2020.1.3,Win32,60,12917,,,,,,,,,,,,,,,,,,,,,,,,,,,,,,,,,,,,,,,,,,,,,,,,,,,,,,,,,,,,,,,,,
,,,,,,,,,,,,a,0.583195,Correct!,0,114,114,65,1,t5.png,t5.png,0,0.97829,25,Male,2020-07-31_13h36.19.211,torte-2b,2020.1.3,Win32,60,12917,,,,,,,,,,,,,,,,,,,,,,,,,,,,,,,,,,,,,,,,,,,,,,,,,,,,,,,,,,,,,,,,,
,,,,,,,,,,,,l,0.467305,Correct!,0,115,115,50,1,t1.png,t5.png,4,9.55E-11,25,Male,2020-07-31_13h36.19.211,torte-2b,2020.1.3,Win32,60,12917,,,,,,,,,,,,,,,,,,,,,,,,,,,,,,,,,,,,,,,,,,,,,,,,,,,,,,,,,,,,,,,,,
,,,,,,,,,,,,a,0.49646,Correct!,0,116,116,0,1,t3.png,t2.png,1,0.90855,25,Male,2020-07-31_13h36.19.211,torte-2b,2020.1.3,Win32,60,12917,,,,,,,,,,,,,,,,,,,,,,,,,,,,,,,,,,,,,,,,,,,,,,,,,,,,,,,,,,,,,,,,,
,,,,,,,,,,,,l,0.462395,Incorrect,0,117,117,97,1,t1.png,t1.png,0,0.97829,25,Male,2020-07-31_13h36.19.211,torte-2b,2020.1.3,Win32,60,12917,,,,,,,,,,,,,,,,,,,,,,,,,,,,,,,,,,,,,,,,,,,,,,,,,,,,,,,,,,,,,,,,,
,,,,,,,,,,,,a,0.473685,Incorrect,0,118,118,64,1,t5.png,t1.png,4,9.55E-11,25,Male,2020-07-31_13h36.19.211,torte-2b,2020.1.3,Win32,60,12917,,,,,,,,,,,,,,,,,,,,,,,,,,,,,,,,,,,,,,,,,,,,,,,,,,,,,,,,,,,,,,,,,
,,,,,,,,,,,,a,0.54928,Correct!,0,119,119,33,1,t3.png,t2.png,1,0.90855,25,Male,2020-07-31_13h36.19.211,torte-2b,2020.1.3,Win32,60,12917,,,,,,,,,,,,,,,,,,,,,,,,,,,,,,,,,,,,,,,,,,,,,,,,,,,,,,,,,,,,,,,,,
,,,,,,,,,,,,a,0.892385,Correct!,,,,,,t4.png,t3.png,1,0.90855,25,Male,2020-07-31_13h36.19.211,torte-2b,2020.1.3,Win32,60,12917,space,2.358055,space,16.5115,0,0,0,29,1,,,,,,,,,,,,,,,,,,,,,,,,,,,,,,,,,,,,,,,,,,,,,,,,,,,,,,,,
,,,,,,,,,,,,l,0.563205,Incorrect,,,,,,t3.png,t4.png,1,0.90855,25,Male,2020-07-31_13h36.19.211,torte-2b,2020.1.3,Win32,60,12917,,,,,0,1,1,9,1,,,,,,,,,,,,,,,,,,,,,,,,,,,,,,,,,,,,,,,,,,,,,,,,,,,,,,,,
,,,,,,,,,,,,a,0.449875,Incorrect,,,,,,t5.png,t2.png,3,0.0000131,25,Male,2020-07-31_13h36.19.211,torte-2b,2020.1.3,Win32,60,12917,,,,,0,2,2,48,1,,,,,,,,,,,,,,,,,,,,,,,,,,,,,,,,,,,,,,,,,,,,,,,,,,,,,,,,
,,,,,,,,,,,,l,0.566065,Incorrect,,,,,,t4.png,t5.png,1,0.9,25,Male,2020-07-31_13h36.19.211,torte-2b,2020.1.3,Win32,60,12917,,,,,0,3,3,81,1,,,,,,,,,,,,,,,,,,,,,,,,,,,,,,,,,,,,,,,,,,,,,,,,,,,,,,,,
,,,,,,,,,,,,a,0.408785,Incorrect,,,,,,t4.png,t1.png,3,0.0000131,25,Male,2020-07-31_13h36.19.211,torte-2b,2020.1.3,Win32,60,12917,,,,,0,4,4,102,1,,,,,,,,,,,,,,,,,,,,,,,,,,,,,,,,,,,,,,,,,,,,,,,,,,,,,,,,
,,,,,,,,,,,,a,0.60319,Correct!,,,,,,t4.png,t4.png,0,0.98115,25,Male,2020-07-31_13h36.19.211,torte-2b,2020.1.3,Win32,60,12917,,,,,0,5,5,19,1,,,,,,,,,,,,,,,,,,,,,,,,,,,,,,,,,,,,,,,,,,,,,,,,,,,,,,,,
,,,,,,,,,,,,a,0.427675,Incorrect,,,,,,t5.png,t1.png,4,9.55E-11,25,Male,2020-07-31_13h36.19.211,torte-2b,2020.1.3,Win32,60,12917,,,,,0,6,6,101,1,,,,,,,,,,,,,,,,,,,,,,,,,,,,,,,,,,,,,,,,,,,,,,,,,,,,,,,,
,,,,,,,,,,,,a,0.46313,Correct!,,,,,,t3.png,t2.png,1,0.90855,25,Male,2020-07-31_13h36.19.211,torte-2b,2020.1.3,Win32,60,12917,,,,,0,7,7,108,1,,,,,,,,,,,,,,,,,,,,,,,,,,,,,,,,,,,,,,,,,,,,,,,,,,,,,,,,
,,,,,,,,,,,,l,0.6918,Incorrect,,,,,,t4.png,t4.png,0,0.98115,25,Male,2020-07-31_13h36.19.211,torte-2b,2020.1.3,Win32,60,12917,,,,,0,8,8,68,1,,,,,,,,,,,,,,,,,,,,,,,,,,,,,,,,,,,,,,,,,,,,,,,,,,,,,,,,
,,,,,,,,,,,,a,0.82841,Correct!,,,,,,t2.png,t2.png,0,0.98115,25,Male,2020-07-31_13h36.19.211,torte-2b,2020.1.3,Win32,60,12917,,,,,0,9,9,69,1,,,,,,,,,,,,,,,,,,,,,,,,,,,,,,,,,,,,,,,,,,,,,,,,,,,,,,,,
,,,,,,,,,,,,a,0.401035,Correct!,,,,,,t5.png,t4.png,1,0.9,25,Male,2020-07-31_13h36.19.211,torte-2b,2020.1.3,Win32,60,12917,,,,,0,10,10,55,1,,,,,,,,,,,,,,,,,,,,,,,,,,,,,,,,,,,,,,,,,,,,,,,,,,,,,,,,
,,,,,,,,,,,,a,0.472175,Incorrect,,,,,,t4.png,t1.png,3,0.0000131,25,Male,2020-07-31_13h36.19.211,torte-2b,2020.1.3,Win32,60,12917,,,,,0,11,11,49,1,,,,,,,,,,,,,,,,,,,,,,,,,,,,,,,,,,,,,,,,,,,,,,,,,,,,,,,,
,,,,,,,,,,,,a,0.411625,Incorrect,,,,,,t4.png,t1.png,3,0.0000131,25,Male,2020-07-31_13h36.19.211,torte-2b,2020.1.3,Win32,60,12917,,,,,0,12,12,91,1,,,,,,,,,,,,,,,,,,,,,,,,,,,,,,,,,,,,,,,,,,,,,,,,,,,,,,,,
,,,,,,,,,,,,l,0.80528,Incorrect,,,,,,t5.png,t5.png,0,0.97829,25,Male,2020-07-31_13h36.19.211,torte-2b,2020.1.3,Win32,60,12917,,,,,0,13,13,77,1,,,,,,,,,,,,,,,,,,,,,,,,,,,,,,,,,,,,,,,,,,,,,,,,,,,,,,,,
,,,,,,,,,,,,l,0.59075,Incorrect,,,,,,t4.png,t5.png,1,0.90025,25,Male,2020-07-31_13h36.19.211,torte-2b,2020.1.3,Win32,60,12917,,,,,0,14,14,21,1,,,,,,,,,,,,,,,,,,,,,,,,,,,,,,,,,,,,,,,,,,,,,,,,,,,,,,,,
,,,,,,,,,,,,a,0.437115,Incorrect,,,,,,t4.png,t1.png,3,0.0000131,25,Male,2020-07-31_13h36.19.211,torte-2b,2020.1.3,Win32,60,12917,,,,,0,15,15,28,1,,,,,,,,,,,,,,,,,,,,,,,,,,,,,,,,,,,,,,,,,,,,,,,,,,,,,,,,
,,,,,,,,,,,,a,0.494955,Incorrect,,,,,,t3.png,t1.png,2,0.0565,25,Male,2020-07-31_13h36.19.211,torte-2b,2020.1.3,Win32,60,12917,,,,,0,16,16,104,1,,,,,,,,,,,,,,,,,,,,,,,,,,,,,,,,,,,,,,,,,,,,,,,,,,,,,,,,
,,,,,,,,,,,,a,0.38468,Incorrect,,,,,,t4.png,t1.png,3,0.059078,25,Male,2020-07-31_13h36.19.211,torte-2b,2020.1.3,Win32,60,12917,,,,,0,17,17,73,1,,,,,,,,,,,,,,,,,,,,,,,,,,,,,,,,,,,,,,,,,,,,,,,,,,,,,,,,
,,,,,,,,,,,,l,0.396705,Correct!,,,,,,t3.png,t5.png,2,0.056466,25,Male,2020-07-31_13h36.19.211,torte-2b,2020.1.3,Win32,60,12917,,,,,0,18,18,60,1,,,,,,,,,,,,,,,,,,,,,,,,,,,,,,,,,,,,,,,,,,,,,,,,,,,,,,,,
,,,,,,,,,,,,a,0.40346,Correct!,,,,,,t3.png,t2.png,1,0.90855,25,Male,2020-07-31_13h36.19.211,torte-2b,2020.1.3,Win32,60,12917,,,,,0,19,19,10,1,,,,,,,,,,,,,,,,,,,,,,,,,,,,,,,,,,,,,,,,,,,,,,,,,,,,,,,,
,,,,,,,,,,,,a,0.395875,Correct!,,,,,,t4.png,t4.png,0,0.98115,25,Male,2020-07-31_13h36.19.211,torte-2b,2020.1.3,Win32,60,12917,,,,,0,20,20,88,1,,,,,,,,,,,,,,,,,,,,,,,,,,,,,,,,,,,,,,,,,,,,,,,,,,,,,,,,
,,,,,,,,,,,,a,0.36665,Incorrect,,,,,,t3.png,t1.png,2,0.0565,25,Male,2020-07-31_13h36.19.211,torte-2b,2020.1.3,Win32,60,12917,,,,,0,21,21,40,1,,,,,,,,,,,,,,,,,,,,,,,,,,,,,,,,,,,,,,,,,,,,,,,,,,,,,,,,
,,,,,,,,,,,,l,0.46026,Correct!,,,,,,t2.png,t4.png,2,0.059078,25,Male,2020-07-31_13h36.19.211,torte-2b,2020.1.3,Win32,60,12917,,,,,0,22,22,97,1,,,,,,,,,,,,,,,,,,,,,,,,,,,,,,,,,,,,,,,,,,,,,,,,,,,,,,,,
,,,,,,,,,,,,l,0.48198,Incorrect,,,,,,t1.png,t2.png,1,0.9,25,Male,2020-07-31_13h36.19.211,torte-2b,2020.1.3,Win32,60,12917,,,,,0,23,23,41,1,,,,,,,,,,,,,,,,,,,,,,,,,,,,,,,,,,,,,,,,,,,,,,,,,,,,,,,,
,,,,,,,,,,,,l,0.410975,Correct!,,,,,,t1.png,t3.png,2,0.056466,25,Male,2020-07-31_13h36.19.211,torte-2b,2020.1.3,Win32,60,12917,,,,,0,24,24,32,1,,,,,,,,,,,,,,,,,,,,,,,,,,,,,,,,,,,,,,,,,,,,,,,,,,,,,,,,
,,,,,,,,,,,,l,0.389545,Correct!,,,,,,t2.png,t4.png,2,0.059078,25,Male,2020-07-31_13h36.19.211,torte-2b,2020.1.3,Win32,60,12917,,,,,0,25,25,84,1,,,,,,,,,,,,,,,,,,,,,,,,,,,,,,,,,,,,,,,,,,,,,,,,,,,,,,,,
,,,,,,,,,,,,l,0.42638,Incorrect,,,,,,t1.png,t2.png,1,0.9,25,Male,2020-07-31_13h36.19.211,torte-2b,2020.1.3,Win32,60,12917,,,,,0,26,26,17,1,,,,,,,,,,,,,,,,,,,,,,,,,,,,,,,,,,,,,,,,,,,,,,,,,,,,,,,,
,,,,,,,,,,,,l,0.478565,Incorrect,,,,,,t2.png,t3.png,1,0.90855,25,Male,2020-07-31_13h36.19.211,torte-2b,2020.1.3,Win32,60,12917,,,,,0,27,27,113,1,,,,,,,,,,,,,,,,,,,,,,,,,,,,,,,,,,,,,,,,,,,,,,,,,,,,,,,,
,,,,,,,,,,,,l,0.535485,Incorrect,,,,,,t5.png,t5.png,0,0.97829,25,Male,2020-07-31_13h36.19.211,torte-2b,2020.1.3,Win32,60,12917,,,,,0,28,28,2,1,,,,,,,,,,,,,,,,,,,,,,,,,,,,,,,,,,,,,,,,,,,,,,,,,,,,,,,,
,,,,,,,,,,,,a,0.43254,Correct!,,,,,,t5.png,t5.png,0,0.978,25,Male,2020-07-31_13h36.19.211,torte-2b,2020.1.3,Win32,60,12917,,,,,0,29,29,116,1,,,,,,,,,,,,,,,,,,,,,,,,,,,,,,,,,,,,,,,,,,,,,,,,,,,,,,,,
,,,,,,,,,,,,l,0.42044,Incorrect,,,,,,t3.png,t4.png,1,0.90855,25,Male,2020-07-31_13h36.19.211,torte-2b,2020.1.3,Win32,60,12917,,,,,0,30,30,58,1,,,,,,,,,,,,,,,,,,,,,,,,,,,,,,,,,,,,,,,,,,,,,,,,,,,,,,,,
,,,,,,,,,,,,a,0.376595,Incorrect,,,,,,t5.png,t1.png,4,9.55E-11,25,Male,2020-07-31_13h36.19.211,torte-2b,2020.1.3,Win32,60,12917,,,,,0,31,31,15,1,,,,,,,,,,,,,,,,,,,,,,,,,,,,,,,,,,,,,,,,,,,,,,,,,,,,,,,,
,,,,,,,,,,,,l,0.371225,Incorrect,,,,,,t1.png,t1.png,0,0.97829,25,Male,2020-07-31_13h36.19.211,torte-2b,2020.1.3,Win32,60,12917,,,,,0,32,32,4,1,,,,,,,,,,,,,,,,,,,,,,,,,,,,,,,,,,,,,,,,,,,,,,,,,,,,,,,,
,,,,,,,,,,,,a,0.34022,Correct!,,,,,,t2.png,t1.png,1,0.90025,25,Male,2020-07-31_13h36.19.211,torte-2b,2020.1.3,Win32,60,12917,,,,,0,33,33,44,1,,,,,,,,,,,,,,,,,,,,,,,,,,,,,,,,,,,,,,,,,,,,,,,,,,,,,,,,
,,,,,,,,,,,,a,0.30354,Correct!,,,,,,t3.png,t2.png,1,0.90855,25,Male,2020-07-31_13h36.19.211,torte-2b,2020.1.3,Win32,60,12917,,,,,0,34,34,99,1,,,,,,,,,,,,,,,,,,,,,,,,,,,,,,,,,,,,,,,,,,,,,,,,,,,,,,,,
,,,,,,,,,,,,l,0.358915,Correct!,,,,,,t2.png,t4.png,2,0.059078,25,Male,2020-07-31_13h36.19.211,torte-2b,2020.1.3,Win32,60,12917,,,,,0,35,35,53,1,,,,,,,,,,,,,,,,,,,,,,,,,,,,,,,,,,,,,,,,,,,,,,,,,,,,,,,,
,,,,,,,,,,,,a,0.33127,Incorrect,,,,,,t5.png,t2.png,3,0.0000131,25,Male,2020-07-31_13h36.19.211,torte-2b,2020.1.3,Win32,60,12917,,,,,0,36,36,43,1,,,,,,,,,,,,,,,,,,,,,,,,,,,,,,,,,,,,,,,,,,,,,,,,,,,,,,,,
,,,,,,,,,,,,a,0.34444,Incorrect,,,,,,t5.png,t2.png,3,0.0000131,25,Male,2020-07-31_13h36.19.211,torte-2b,2020.1.3,Win32,60,12917,,,,,0,37,37,83,1,,,,,,,,,,,,,,,,,,,,,,,,,,,,,,,,,,,,,,,,,,,,,,,,,,,,,,,,
,,,,,,,,,,,,l,0.465405,Correct!,,,,,,t3.png,t1.png,2,0.056466,25,Male,2020-07-31_13h36.19.211,torte-2b,2020.1.3,Win32,60,12917,,,,,0,38,38,109,1,,,,,,,,,,,,,,,,,,,,,,,,,,,,,,,,,,,,,,,,,,,,,,,,,,,,,,,,
,,,,,,,,,,,,l,0.47721,Correct!,,,,,,t1.png,t3.png,2,0.0565,25,Male,2020-07-31_13h36.19.211,torte-2b,2020.1.3,Win32,60,12917,,,,,0,39,39,95,1,,,,,,,,,,,,,,,,,,,,,,,,,,,,,,,,,,,,,,,,,,,,,,,,,,,,,,,,
,,,,,,,,,,,,l,0.567655,Incorrect,,,,,,t2.png,t3.png,1,0.90855,25,Male,2020-07-31_13h36.19.211,torte-2b,2020.1.3,Win32,60,12917,,,,,0,40,40,79,1,,,,,,,,,,,,,,,,,,,,,,,,,,,,,,,,,,,,,,,,,,,,,,,,,,,,,,,,
,,,,,,,,,,,,l,0.44571,Correct!,,,,,,t1.png,t3.png,2,0.0565,25,Male,2020-07-31_13h36.19.211,torte-2b,2020.1.3,Win32,60,12917,,,,,0,41,41,42,1,,,,,,,,,,,,,,,,,,,,,,,,,,,,,,,,,,,,,,,,,,,,,,,,,,,,,,,,
,,,,,,,,,,,,a,0.39693,Incorrect,,,,,,t4.png,t1.png,3,0.059078,25,Male,2020-07-31_13h36.19.211,torte-2b,2020.1.3,Win32,60,12917,,,,,0,42,42,87,1,,,,,,,,,,,,,,,,,,,,,,,,,,,,,,,,,,,,,,,,,,,,,,,,,,,,,,,,
,,,,,,,,,,,,l,0.41742,Correct!,,,,,,t1.png,t5.png,4,9.55E-11,25,Male,2020-07-31_13h36.19.211,torte-2b,2020.1.3,Win32,60,12917,,,,,0,43,43,118,1,,,,,,,,,,,,,,,,,,,,,,,,,,,,,,,,,,,,,,,,,,,,,,,,,,,,,,,,
,,,,,,,,,,,,l,0.36797,Correct!,,,,,,t1.png,t5.png,4,9.55E-11,25,Male,2020-07-31_13h36.19.211,torte-2b,2020.1.3,Win32,60,12917,,,,,0,44,44,1,1,,,,,,,,,,,,,,,,,,,,,,,,,,,,,,,,,,,,,,,,,,,,,,,,,,,,,,,,
,,,,,,,,,,,,a,0.486875,Correct!,,,,,,t2.png,t2.png,0,0.981,25,Male,2020-07-31_13h36.19.211,torte-2b,2020.1.3,Win32,60,12917,,,,,0,45,45,98,1,,,,,,,,,,,,,,,,,,,,,,,,,,,,,,,,,,,,,,,,,,,,,,,,,,,,,,,,
,,,,,,,,,,,,a,0.353285,Incorrect,,,,,,t5.png,t2.png,3,0.0000131,25,Male,2020-07-31_13h36.19.211,torte-2b,2020.1.3,Win32,60,12917,,,,,0,46,46,66,1,,,,,,,,,,,,,,,,,,,,,,,,,,,,,,,,,,,,,,,,,,,,,,,,,,,,,,,,
,,,,,,,,,,,,l,0.506215,Incorrect,,,,,,t3.png,t4.png,1,0.90855,25,Male,2020-07-31_13h36.19.211,torte-2b,2020.1.3,Win32,60,12917,,,,,0,47,47,103,1,,,,,,,,,,,,,,,,,,,,,,,,,,,,,,,,,,,,,,,,,,,,,,,,,,,,,,,,
,,,,,,,,,,,,a,0.386585,Incorrect,,,,,,t3.png,t1.png,2,0.056466,25,Male,2020-07-31_13h36.19.211,torte-2b,2020.1.3,Win32,60,12917,,,,,0,48,48,34,1,,,,,,,,,,,,,,,,,,,,,,,,,,,,,,,,,,,,,,,,,,,,,,,,,,,,,,,,
,,,,,,,,,,,,a,0.566715,Correct!,,,,,,t1.png,t1.png,0,0.978,25,Male,2020-07-31_13h36.19.211,torte-2b,2020.1.3,Win32,60,12917,,,,,0,49,49,13,1,,,,,,,,,,,,,,,,,,,,,,,,,,,,,,,,,,,,,,,,,,,,,,,,,,,,,,,,
,,,,,,,,,,,,a,0.34654,Incorrect,,,,,,t5.png,t2.png,3,0.0000131,25,Male,2020-07-31_13h36.19.211,torte-2b,2020.1.3,Win32,60,12917,,,,,0,50,50,82,1,,,,,,,,,,,,,,,,,,,,,,,,,,,,,,,,,,,,,,,,,,,,,,,,,,,,,,,,
,,,,,,,,,,,,a,0.5195,Incorrect,,,,,,t2.png,t1.png,1,0.9,25,Male,2020-07-31_13h36.19.211,torte-2b,2020.1.3,Win32,60,12917,,,,,0,51,51,100,1,,,,,,,,,,,,,,,,,,,,,,,,,,,,,,,,,,,,,,,,,,,,,,,,,,,,,,,,
,,,,,,,,,,,,a,0.341065,Correct!,,,,,,t5.png,t4.png,1,0.90025,25,Male,2020-07-31_13h36.19.211,torte-2b,2020.1.3,Win32,60,12917,,,,,0,52,52,38,1,,,,,,,,,,,,,,,,,,,,,,,,,,,,,,,,,,,,,,,,,,,,,,,,,,,,,,,,
,,,,,,,,,,,,a,0.42939,Incorrect,,,,,,t5.png,t3.png,2,0.056466,25,Male,2020-07-31_13h36.19.211,torte-2b,2020.1.3,Win32,60,12917,,,,,0,53,53,80,1,,,,,,,,,,,,,,,,,,,,,,,,,,,,,,,,,,,,,,,,,,,,,,,,,,,,,,,,
,,,,,,,,,,,,l,0.40446,Correct!,,,,,,t1.png,t4.png,3,0.0000131,25,Male,2020-07-31_13h36.19.211,torte-2b,2020.1.3,Win32,60,12917,,,,,0,54,54,106,1,,,,,,,,,,,,,,,,,,,,,,,,,,,,,,,,,,,,,,,,,,,,,,,,,,,,,,,,
,,,,,,,,,,,,a,0.407835,Correct!,,,,,,t4.png,t3.png,1,0.909,25,Male,2020-07-31_13h36.19.211,torte-2b,2020.1.3,Win32,60,12917,,,,,0,55,55,119,1,,,,,,,,,,,,,,,,,,,,,,,,,,,,,,,,,,,,,,,,,,,,,,,,,,,,,,,,
,,,,,,,,,,,,l,0.3576,Correct!,,,,,,t2.png,t5.png,3,0.0000131,25,Male,2020-07-31_13h36.19.211,torte-2b,2020.1.3,Win32,60,12917,,,,,0,56,56,85,1,,,,,,,,,,,,,,,,,,,,,,,,,,,,,,,,,,,,,,,,,,,,,,,,,,,,,,,,
,,,,,,,,,,,,a,0.37274,Correct!,,,,,,t4.png,t3.png,1,0.90855,25,Male,2020-07-31_13h36.19.211,torte-2b,2020.1.3,Win32,60,12917,,,,,0,57,57,11,1,,,,,,,,,,,,,,,,,,,,,,,,,,,,,,,,,,,,,,,,,,,,,,,,,,,,,,,,
,,,,,,,,,,,,a,0.46881,Correct!,,,,,,t3.png,t2.png,1,0.90855,25,Male,2020-07-31_13h36.19.211,torte-2b,2020.1.3,Win32,60,12917,,,,,0,58,58,94,1,,,,,,,,,,,,,,,,,,,,,,,,,,,,,,,,,,,,,,,,,,,,,,,,,,,,,,,,
,,,,,,,,,,,,l,0.41148,Correct!,,,,,,t1.png,t4.png,3,0.0000131,25,Male,2020-07-31_13h36.19.211,torte-2b,2020.1.3,Win32,60,12917,,,,,0,59,59,74,1,,,,,,,,,,,,,,,,,,,,,,,,,,,,,,,,,,,,,,,,,,,,,,,,,,,,,,,,
,,,,,,,,,,,,l,0.82796,Incorrect,,,,,,t4.png,t4.png,0,0.98115,25,Male,2020-07-31_13h36.19.211,torte-2b,2020.1.3,Win32,60,12917,,,,,0,60,60,52,1,,,,,,,,,,,,,,,,,,,,,,,,,,,,,,,,,,,,,,,,,,,,,,,,,,,,,,,,
,,,,,,,,,,,,l,0.43816,Correct!,,,,,,t1.png,t4.png,3,0.0000131,25,Male,2020-07-31_13h36.19.211,torte-2b,2020.1.3,Win32,60,12917,,,,,0,61,61,36,1,,,,,,,,,,,,,,,,,,,,,,,,,,,,,,,,,,,,,,,,,,,,,,,,,,,,,,,,
,,,,,,,,,,,,l,0.396295,Correct!,,,,,,t2.png,t5.png,3,0.0000131,25,Male,2020-07-31_13h36.19.211,torte-2b,2020.1.3,Win32,60,12917,,,,,0,62,62,46,1,,,,,,,,,,,,,,,,,,,,,,,,,,,,,,,,,,,,,,,,,,,,,,,,,,,,,,,,
,,,,,,,,,,,,a,0.46955,Incorrect,,,,,,t4.png,t1.png,3,0.0000131,25,Male,2020-07-31_13h36.19.211,torte-2b,2020.1.3,Win32,60,12917,,,,,0,63,63,76,1,,,,,,,,,,,,,,,,,,,,,,,,,,,,,,,,,,,,,,,,,,,,,,,,,,,,,,,,
,,,,,,,,,,,,a,0.39933,Incorrect,,,,,,t4.png,t1.png,3,0.059078,25,Male,2020-07-31_13h36.19.211,torte-2b,2020.1.3,Win32,60,12917,,,,,0,64,64,57,1,,,,,,,,,,,,,,,,,,,,,,,,,,,,,,,,,,,,,,,,,,,,,,,,,,,,,,,,
,,,,,,,,,,,,l,0.389835,Correct!,,,,,,t2.png,t5.png,3,0.0000131,25,Male,2020-07-31_13h36.19.211,torte-2b,2020.1.3,Win32,60,12917,,,,,0,65,65,115,1,,,,,,,,,,,,,,,,,,,,,,,,,,,,,,,,,,,,,,,,,,,,,,,,,,,,,,,,
,,,,,,,,,,,,a,0.625035,Correct!,,,,,,t5.png,t4.png,1,0.9,25,Male,2020-07-31_13h36.19.211,torte-2b,2020.1.3,Win32,60,12917,,,,,0,66,66,92,1,,,,,,,,,,,,,,,,,,,,,,,,,,,,,,,,,,,,,,,,,,,,,,,,,,,,,,,,
,,,,,,,,,,,,l,0.450845,Incorrect,,,,,,t1.png,t2.png,1,0.90025,25,Male,2020-07-31_13h36.19.211,torte-2b,2020.1.3,Win32,60,12917,,,,,0,67,67,6,1,,,,,,,,,,,,,,,,,,,,,,,,,,,,,,,,,,,,,,,,,,,,,,,,,,,,,,,,
,,,,,,,,,,,,l,0.362615,Correct!,,,,,,t1.png,t4.png,3,0.0000131,25,Male,2020-07-31_13h36.19.211,torte-2b,2020.1.3,Win32,60,12917,,,,,0,68,68,16,1,,,,,,,,,,,,,,,,,,,,,,,,,,,,,,,,,,,,,,,,,,,,,,,,,,,,,,,,
,,,,,,,,,,,,l,0.435125,Incorrect,,,,,,t3.png,t4.png,1,0.90855,25,Male,2020-07-31_13h36.19.211,torte-2b,2020.1.3,Win32,60,12917,,,,,0,69,69,5,1,,,,,,,,,,,,,,,,,,,,,,,,,,,,,,,,,,,,,,,,,,,,,,,,,,,,,,,,
,,,,,,,,,,,,l,0.399705,Incorrect,,,,,,t4.png,t5.png,1,0.90025,25,Male,2020-07-31_13h36.19.211,torte-2b,2020.1.3,Win32,60,12917,,,,,0,70,70,33,1,,,,,,,,,,,,,,,,,,,,,,,,,,,,,,,,,,,,,,,,,,,,,,,,,,,,,,,,
,,,,,,,,,,,,a,0.529425,Incorrect,,,,,,t2.png,t1.png,1,0.90025,25,Male,2020-07-31_13h36.19.211,torte-2b,2020.1.3,Win32,60,12917,,,,,0,71,71,65,1,,,,,,,,,,,,,,,,,,,,,,,,,,,,,,,,,,,,,,,,,,,,,,,,,,,,,,,,
,,,,,,,,,,,,a,0.55271,Incorrect,,,,,,t3.png,t1.png,2,0.056466,25,Male,2020-07-31_13h36.19.211,torte-2b,2020.1.3,Win32,60,12917,,,,,0,72,72,72,1,,,,,,,,,,,,,,,,,,,,,,,,,,,,,,,,,,,,,,,,,,,,,,,,,,,,,,,,
,,,,,,,,,,,,l,0.407175,Correct!,,,,,,t3.png,t5.png,2,0.056466,25,Male,2020-07-31_13h36.19.211,torte-2b,2020.1.3,Win32,60,12917,,,,,0,73,73,78,1,,,,,,,,,,,,,,,,,,,,,,,,,,,,,,,,,,,,,,,,,,,,,,,,,,,,,,,,
,,,,,,,,,,,,l,0.38246,Incorrect,,,,,,t3.png,t4.png,1,0.90855,25,Male,2020-07-31_13h36.19.211,torte-2b,2020.1.3,Win32,60,12917,,,,,0,74,74,111,1,,,,,,,,,,,,,,,,,,,,,,,,,,,,,,,,,,,,,,,,,,,,,,,,,,,,,,,,
,,,,,,,,,,,,l,0.474265,Correct!,,,,,,t2.png,t3.png,1,0.909,25,Male,2020-07-31_13h36.19.211,torte-2b,2020.1.3,Win32,60,12917,,,,,0,75,75,8,1,,,,,,,,,,,,,,,,,,,,,,,,,,,,,,,,,,,,,,,,,,,,,,,,,,,,,,,,
,,,,,,,,,,,,l,0.403415,Correct!,,,,,,t3.png,t5.png,2,0.056466,25,Male,2020-07-31_13h36.19.211,torte-2b,2020.1.3,Win32,60,12917,,,,,0,76,76,45,1,,,,,,,,,,,,,,,,,,,,,,,,,,,,,,,,,,,,,,,,,,,,,,,,,,,,,,,,
,,,,,,,,,,,,l,0.34598,Correct!,,,,,,t1.png,t4.png,3,0.0000131,25,Male,2020-07-31_13h36.19.211,torte-2b,2020.1.3,Win32,60,12917,,,,,0,77,77,23,1,,,,,,,,,,,,,,,,,,,,,,,,,,,,,,,,,,,,,,,,,,,,,,,,,,,,,,,,
,,,,,,,,,,,,a,0.3449,Incorrect,,,,,,t5.png,t1.png,4,9.55E-11,25,Male,2020-07-31_13h36.19.211,torte-2b,2020.1.3,Win32,60,12917,,,,,0,78,78,117,1,,,,,,,,,,,,,,,,,,,,,,,,,,,,,,,,,,,,,,,,,,,,,,,,,,,,,,,,
,,,,,,,,,,,,l,0.32143,Correct!,,,,,,t1.png,t5.png,4,9.55E-11,25,Male,2020-07-31_13h36.19.211,torte-2b,2020.1.3,Win32,60,12917,,,,,0,79,79,3,1,,,,,,,,,,,,,,,,,,,,,,,,,,,,,,,,,,,,,,,,,,,,,,,,,,,,,,,,
,,,,,,,,,,,,l,0.34565,Correct!,,,,,,t1.png,t5.png,4,9.55E-11,25,Male,2020-07-31_13h36.19.211,torte-2b,2020.1.3,Win32,60,12917,,,,,0,80,80,20,1,,,,,,,,,,,,,,,,,,,,,,,,,,,,,,,,,,,,,,,,,,,,,,,,,,,,,,,,
,,,,,,,,,,,,l,0.351185,Incorrect,,,,,,t4.png,t5.png,1,0.90025,25,Male,2020-07-31_13h36.19.211,torte-2b,2020.1.3,Win32,60,12917,,,,,0,81,81,86,1,,,,,,,,,,,,,,,,,,,,,,,,,,,,,,,,,,,,,,,,,,,,,,,,,,,,,,,,
,,,,,,,,,,,,l,0.531005,Incorrect,,,,,,t2.png,t2.png,0,0.98115,25,Male,2020-07-31_13h36.19.211,torte-2b,2020.1.3,Win32,60,12917,,,,,0,82,82,112,1,,,,,,,,,,,,,,,,,,,,,,,,,,,,,,,,,,,,,,,,,,,,,,,,,,,,,,,,
,,,,,,,,,,,,l,0.42365,Correct!,,,,,,t1.png,t3.png,2,0.056466,25,Male,2020-07-31_13h36.19.211,torte-2b,2020.1.3,Win32,60,12917,,,,,0,83,83,24,1,,,,,,,,,,,,,,,,,,,,,,,,,,,,,,,,,,,,,,,,,,,,,,,,,,,,,,,,
,,,,,,,,,,,,l,0.33409,Incorrect,,,,,,t5.png,t5.png,0,0.978,25,Male,2020-07-31_13h36.19.211,torte-2b,2020.1.3,Win32,60,12917,,,,,0,84,84,51,1,,,,,,,,,,,,,,,,,,,,,,,,,,,,,,,,,,,,,,,,,,,,,,,,,,,,,,,,
,,,,,,,,,,,,l,0.4568,Incorrect,,,,,,t2.png,t2.png,0,0.98115,25,Male,2020-07-31_13h36.19.211,torte-2b,2020.1.3,Win32,60,12917,,,,,0,85,85,90,1,,,,,,,,,,,,,,,,,,,,,,,,,,,,,,,,,,,,,,,,,,,,,,,,,,,,,,,,
,,,,,,,,,,,,l,0.50575,Correct!,,,,,,t2.png,t4.png,2,0.059078,25,Male,2020-07-31_13h36.19.211,torte-2b,2020.1.3,Win32,60,12917,,,,,0,86,86,67,1,,,,,,,,,,,,,,,,,,,,,,,,,,,,,,,,,,,,,,,,,,,,,,,,,,,,,,,,
,,,,,,,,,,,,l,0.373315,Correct!,,,,,,t1.png,t5.png,4,9.55E-11,25,Male,2020-07-31_13h36.19.211,torte-2b,2020.1.3,Win32,60,12917,,,,,0,87,87,30,1,,,,,,,,,,,,,,,,,,,,,,,,,,,,,,,,,,,,,,,,,,,,,,,,,,,,,,,,
,,,,,,,,,,,,a,0.562545,Correct!,,,,,,t2.png,t1.png,1,0.9,25,Male,2020-07-31_13h36.19.211,torte-2b,2020.1.3,Win32,60,12917,,,,,0,88,88,93,1,,,,,,,,,,,,,,,,,,,,,,,,,,,,,,,,,,,,,,,,,,,,,,,,,,,,,,,,
,,,,,,,,,,,,l,0.545995,Incorrect,,,,,,t5.png,t4.png,1,0.90025,25,Male,2020-07-31_13h36.19.211,torte-2b,2020.1.3,Win32,60,12917,,,,,0,89,89,14,1,,,,,,,,,,,,,,,,,,,,,,,,,,,,,,,,,,,,,,,,,,,,,,,,,,,,,,,,
,,,,,,,,,,,,a,0.73478,Incorrect,,,,,,t5.png,t4.png,1,0.90025,25,Male,2020-07-31_13h36.19.211,torte-2b,2020.1.3,Win32,60,12917,,,,,0,90,90,25,1,,,,,,,,,,,,,,,,,,,,,,,,,,,,,,,,,,,,,,,,,,,,,,,,,,,,,,,,
,,,,,,,,,,,,a,0.76472,Correct!,,,,,,t4.png,t3.png,1,0.90855,25,Male,2020-07-31_13h36.19.211,torte-2b,2020.1.3,Win32,60,12917,,,,,0,91,91,56,1,,,,,,,,,,,,,,,,,,,,,,,,,,,,,,,,,,,,,,,,,,,,,,,,,,,,,,,,
,,,,,,,,,,,,a,0.573275,Correct!,,,,,,t5.png,t5.png,0,0.97829,25,Male,2020-07-31_13h36.19.211,torte-2b,2020.1.3,Win32,60,12917,,,,,0,92,92,35,1,,,,,,,,,,,,,,,,,,,,,,,,,,,,,,,,,,,,,,,,,,,,,,,,,,,,,,,,
,,,,,,,,,,,,l,0.691425,Incorrect,,,,,,t1.png,t1.png,0,0.978,25,Male,2020-07-31_13h36.19.211,torte-2b,2020.1.3,Win32,60,12917,,,,,0,93,93,22,1,,,,,,,,,,,,,,,,,,,,,,,,,,,,,,,,,,,,,,,,,,,,,,,,,,,,,,,,
,,,,,,,,,,,,a,0.365885,Incorrect,,,,,,t4.png,t1.png,3,0.059078,25,Male,2020-07-31_13h36.19.211,torte-2b,2020.1.3,Win32,60,12917,,,,,0,94,94,75,1,,,,,,,,,,,,,,,,,,,,,,,,,,,,,,,,,,,,,,,,,,,,,,,,,,,,,,,,
,,,,,,,,,,,,l,0.571855,Correct!,,,,,,t3.png,t5.png,2,0.0565,25,Male,2020-07-31_13h36.19.211,torte-2b,2020.1.3,Win32,60,12917,,,,,0,95,95,71,1,,,,,,,,,,,,,,,,,,,,,,,,,,,,,,,,,,,,,,,,,,,,,,,,,,,,,,,,
,,,,,,,,,,,,l,0.582565,Incorrect,,,,,,t1.png,t2.png,1,0.9,25,Male,2020-07-31_13h36.19.211,torte-2b,2020.1.3,Win32,60,12917,,,,,0,96,96,61,1,,,,,,,,,,,,,,,,,,,,,,,,,,,,,,,,,,,,,,,,,,,,,,,,,,,,,,,,
,,,,,,,,,,,,l,0.391405,Correct!,,,,,,t2.png,t5.png,3,0.0000131,25,Male,2020-07-31_13h36.19.211,torte-2b,2020.1.3,Win32,60,12917,,,,,0,97,97,54,1,,,,,,,,,,,,,,,,,,,,,,,,,,,,,,,,,,,,,,,,,,,,,,,,,,,,,,,,
,,,,,,,,,,,,a,0.40963,Incorrect,,,,,,t5.png,t1.png,4,9.55E-11,25,Male,2020-07-31_13h36.19.211,torte-2b,2020.1.3,Win32,60,12917,,,,,0,98,98,89,1,,,,,,,,,,,,,,,,,,,,,,,,,,,,,,,,,,,,,,,,,,,,,,,,,,,,,,,,
,,,,,,,,,,,,a,0.346695,Incorrect,,,,,,t5.png,t3.png,2,0.056466,25,Male,2020-07-31_13h36.19.211,torte-2b,2020.1.3,Win32,60,12917,,,,,0,99,99,37,1,,,,,,,,,,,,,,,,,,,,,,,,,,,,,,,,,,,,,,,,,,,,,,,,,,,,,,,,
,,,,,,,,,,,,l,0.389735,Incorrect,,,,,,t1.png,t1.png,0,0.97829,25,Male,2020-07-31_13h36.19.211,torte-2b,2020.1.3,Win32,60,12917,,,,,0,100,100,114,1,,,,,,,,,,,,,,,,,,,,,,,,,,,,,,,,,,,,,,,,,,,,,,,,,,,,,,,,
,,,,,,,,,,,,l,0.369535,Incorrect,,,,,,t2.png,t3.png,1,0.90855,25,Male,2020-07-31_13h36.19.211,torte-2b,2020.1.3,Win32,60,12917,,,,,0,101,101,64,1,,,,,,,,,,,,,,,,,,,,,,,,,,,,,,,,,,,,,,,,,,,,,,,,,,,,,,,,
,,,,,,,,,,,,l,0.351185,Correct!,,,,,,t2.png,t5.png,3,0.0000131,25,Male,2020-07-31_13h36.19.211,torte-2b,2020.1.3,Win32,60,12917,,,,,0,102,102,39,1,,,,,,,,,,,,,,,,,,,,,,,,,,,,,,,,,,,,,,,,,,,,,,,,,,,,,,,,
,,,,,,,,,,,,a,0.443935,Correct!,,,,,,t2.png,t1.png,1,0.90025,25,Male,2020-07-31_13h36.19.211,torte-2b,2020.1.3,Win32,60,12917,,,,,0,103,103,105,1,,,,,,,,,,,,,,,,,,,,,,,,,,,,,,,,,,,,,,,,,,,,,,,,,,,,,,,,
,,,,,,,,,,,,a,0.34274,Incorrect,,,,,,t5.png,t3.png,2,0.056466,25,Male,2020-07-31_13h36.19.211,torte-2b,2020.1.3,Win32,60,12917,,,,,0,104,104,27,1,,,,,,,,,,,,,,,,,,,,,,,,,,,,,,,,,,,,,,,,,,,,,,,,,,,,,,,,
,,,,,,,,,,,,a,0.36949,Incorrect,,,,,,t4.png,t1.png,3,0.059078,25,Male,2020-07-31_13h36.19.211,torte-2b,2020.1.3,Win32,60,12917,,,,,0,105,105,62,1,,,,,,,,,,,,,,,,,,,,,,,,,,,,,,,,,,,,,,,,,,,,,,,,,,,,,,,,
,,,,,,,,,,,,l,0.398755,Correct!,,,,,,t2.png,t4.png,2,0.059078,25,Male,2020-07-31_13h36.19.211,torte-2b,2020.1.3,Win32,60,12917,,,,,0,106,106,18,1,,,,,,,,,,,,,,,,,,,,,,,,,,,,,,,,,,,,,,,,,,,,,,,,,,,,,,,,
,,,,,,,,,,,,l,0.5181,Correct!,,,,,,t2.png,t3.png,1,0.90855,25,Male,2020-07-31_13h36.19.211,torte-2b,2020.1.3,Win32,60,12917,,,,,0,107,107,70,1,,,,,,,,,,,,,,,,,,,,,,,,,,,,,,,,,,,,,,,,,,,,,,,,,,,,,,,,
,,,,,,,,,,,,l,0.59288,Incorrect,,,,,,t4.png,t4.png,0,0.98115,25,Male,2020-07-31_13h36.19.211,torte-2b,2020.1.3,Win32,60,12917,,,,,0,108,108,59,1,,,,,,,,,,,,,,,,,,,,,,,,,,,,,,,,,,,,,,,,,,,,,,,,,,,,,,,,
,,,,,,,,,,,,a,0.583075,Correct!,,,,,,t4.png,t3.png,1,0.909,25,Male,2020-07-31_13h36.19.211,torte-2b,2020.1.3,Win32,60,12917,,,,,0,109,109,107,1,,,,,,,,,,,,,,,,,,,,,,,,,,,,,,,,,,,,,,,,,,,,,,,,,,,,,,,,
,,,,,,,,,,,,l,0.527145,Correct!,,,,,,t1.png,t3.png,2,0.0565,25,Male,2020-07-31_13h36.19.211,torte-2b,2020.1.3,Win32,60,12917,,,,,0,110,110,12,1,,,,,,,,,,,,,,,,,,,,,,,,,,,,,,,,,,,,,,,,,,,,,,,,,,,,,,,,
,,,,,,,,,,,,l,0.44955,Incorrect,,,,,,t1.png,t2.png,1,0.90025,25,Male,2020-07-31_13h36.19.211,torte-2b,2020.1.3,Win32,60,12917,,,,,0,111,111,96,1,,,,,,,,,,,,,,,,,,,,,,,,,,,,,,,,,,,,,,,,,,,,,,,,,,,,,,,,
,,,,,,,,,,,,a,0.443865,Incorrect,,,,,,t5.png,t3.png,2,0.056466,25,Male,2020-07-31_13h36.19.211,torte-2b,2020.1.3,Win32,60,12917,,,,,0,112,112,26,1,,,,,,,,,,,,,,,,,,,,,,,,,,,,,,,,,,,,,,,,,,,,,,,,,,,,,,,,
,,,,,,,,,,,,l,0.63721,Incorrect,,,,,,t1.png,t1.png,0,0.97829,25,Male,2020-07-31_13h36.19.211,torte-2b,2020.1.3,Win32,60,12917,,,,,0,113,113,110,1,,,,,,,,,,,,,,,,,,,,,,,,,,,,,,,,,,,,,,,,,,,,,,,,,,,,,,,,
,,,,,,,,,,,,a,0.521025,Correct!,,,,,,t2.png,t2.png,0,0.98115,25,Male,2020-07-31_13h36.19.211,torte-2b,2020.1.3,Win32,60,12917,,,,,0,114,114,7,1,,,,,,,,,,,,,,,,,,,,,,,,,,,,,,,,,,,,,,,,,,,,,,,,,,,,,,,,
,,,,,,,,,,,,a,0.39054,Incorrect,,,,,,t3.png,t5.png,2,0.056466,25,Male,2020-07-31_13h36.19.211,torte-2b,2020.1.3,Win32,60,12917,,,,,0,115,115,47,1,,,,,,,,,,,,,,,,,,,,,,,,,,,,,,,,,,,,,,,,,,,,,,,,,,,,,,,,
,,,,,,,,,,,,a,0.432995,Incorrect,,,,,,t5.png,t1.png,4,9.55E-11,25,Male,2020-07-31_13h36.19.211,torte-2b,2020.1.3,Win32,60,12917,,,,,0,116,116,31,1,,,,,,,,,,,,,,,,,,,,,,,,,,,,,,,,,,,,,,,,,,,,,,,,,,,,,,,,
,,,,,,,,,,,,l,0.38839,Incorrect,,,,,,t4.png,t5.png,1,0.90025,25,Male,2020-07-31_13h36.19.211,torte-2b,2020.1.3,Win32,60,12917,,,,,0,117,117,63,1,,,,,,,,,,,,,,,,,,,,,,,,,,,,,,,,,,,,,,,,,,,,,,,,,,,,,,,,
,,,,,,,,,,,,a,0.45309,Correct!,,,,,,t3.png,t2.png,1,0.90855,25,Male,2020-07-31_13h36.19.211,torte-2b,2020.1.3,Win32,60,12917,,,,,0,118,118,0,1,,,,,,,,,,,,,,,,,,,,,,,,,,,,,,,,,,,,,,,,,,,,,,,,,,,,,,,,
,,,,,,,,,,,,a,0.345635,Incorrect,,,,,,t5.png,t3.png,2,0.0565,25,Male,2020-07-31_13h36.19.211,torte-2b,2020.1.3,Win32,60,12917,,,,,0,119,119,50,1,,,,,,,,,,,,,,,,,,,,,,,,,,,,,,,,,,,,,,,,,,,,,,,,,,,,,,,,
,,,,,,,,,,,,,,,,,,,,,,,,25,Male,2020-07-31_13h36.19.211,torte-2b,2020.1.3,Win32,60,12917,space,1.236255,,,,,,,,space,26.796565,,0,0,0,0,1,6,,,,,,,,,,,,,,,,,,,,,,,,,,,,,,,,,,,,,,,,,,,,,,,
,,,,,,,,,,,,,,,,,,,,,,,,25,Male,2020-07-31_13h36.19.211,torte-2b,2020.1.3,Win32,60,12917,,,,,,,,,,,,,0,1,1,1,1,7,,,,,,,,,,,,,,,,,,,,,,,,,,,,,,,,,,,,,,,,,,,,,,,
,,,,,,,,,,,,,,,,,,,,,,,,25,Male,2020-07-31_13h36.19.211,torte-2b,2020.1.3,Win32,60,12917,,,,,,,,,,,,space,0,2,2,2,1,6,0.292305,,,,,,,,,,,,,,,,,,,,,,,,,,,,,,,,,,,,,,,,,,,,,,
,,,,,,,,,,,,,,,,,,,,,,,,25,Male,2020-07-31_13h36.19.211,torte-2b,2020.1.3,Win32,60,12917,,,,,,,,,,,,space,0,3,3,3,1,7,0.55052,,,,,,,,,,,,,,,,,,,,,,,,,,,,,,,,,,,,,,,,,,,,,,
,,,,,,,,,,,,,,,,,,,,,,,,25,Male,2020-07-31_13h36.19.211,torte-2b,2020.1.3,Win32,60,12917,,,,,,,,,,,,,0,4,4,4,1,5,,,,,,,,,,,,,,,,,,,,,,,,,,,,,,,,,,,,,,,,,,,,,,,
,,,,,,,,,,,,,,,,,,,,,,,,25,Male,2020-07-31_13h36.19.211,torte-2b,2020.1.3,Win32,60,12917,,,,,,,,,,,,space,0,5,5,5,1,7,0.45456,,,,,,,,,,,,,,,,,,,,,,,,,,,,,,,,,,,,,,,,,,,,,,
,,,,,,,,,,,,,,,,,,,,,,,,25,Male,2020-07-31_13h36.19.211,torte-2b,2020.1.3,Win32,60,12917,,,,,,,,,,,,,0,6,6,6,1,2,,,,,,,,,,,,,,,,,,,,,,,,,,,,,,,,,,,,,,,,,,,,,,,
,,,,,,,,,,,,,,,,,,,,,,,,25,Male,2020-07-31_13h36.19.211,torte-2b,2020.1.3,Win32,60,12917,,,,,,,,,,,,,0,7,7,7,1,4,,,,,,,,,,,,,,,,,,,,,,,,,,,,,,,,,,,,,,,,,,,,,,,
,,,,,,,,,,,,,,,,,,,,,,,,25,Male,2020-07-31_13h36.19.211,torte-2b,2020.1.3,Win32,60,12917,,,,,,,,,,,,space,0,8,8,8,1,7,0.428605,,,,,,,,,,,,,,,,,,,,,,,,,,,,,,,,,,,,,,,,,,,,,,
,,,,,,,,,,,,,,,,,,,,,,,,25,Male,2020-07-31_13h36.19.211,torte-2b,2020.1.3,Win32,60,12917,,,,,,,,,,,,space,0,9,9,9,1,4,0.477555,,,,,,,,,,,,,,,,,,,,,,,,,,,,,,,,,,,,,,,,,,,,,,
,,,,,,,,,,,,,,,,,,,,,,,,25,Male,2020-07-31_13h36.19.211,torte-2b,2020.1.3,Win32,60,12917,,,,,,,,,,,,,0,10,10,10,1,7,,,,,,,,,,,,,,,,,,,,,,,,,,,,,,,,,,,,,,,,,,,,,,,
,,,,,,,,,,,,,,,,,,,,,,,,25,Male,2020-07-31_13h36.19.211,torte-2b,2020.1.3,Win32,60,12917,,,,,,,,,,,,space,0,11,11,11,1,7,0.448355,,,,,,,,,,,,,,,,,,,,,,,,,,,,,,,,,,,,,,,,,,,,,,
,,,,,,,,,,,,,,,,,,,,,,,,25,Male,2020-07-31_13h36.19.211,torte-2b,2020.1.3,Win32,60,12917,,,,,,,,,,,,space,0,12,12,12,1,7,0.63755,,,,,,,,,,,,,,,,,,,,,,,,,,,,,,,,,,,,,,,,,,,,,,
,,,,,,,,,,,,,,,,,,,,,,,,25,Male,2020-07-31_13h36.19.211,torte-2b,2020.1.3,Win32,60,12917,,,,,,,,,,,,,0,13,13,13,1,4,,,,,,,,,,,,,,,,,,,,,,,,,,,,,,,,,,,,,,,,,,,,,,,
,,,,,,,,,,,,,,,,,,,,,,,,25,Male,2020-07-31_13h36.19.211,torte-2b,2020.1.3,Win32,60,12917,,,,,,,,,,,,,0,14,14,14,1,6,,,,,,,,,,,,,,,,,,,,,,,,,,,,,,,,,,,,,,,,,,,,,,,
,,,,,,,,,,,,,,,,,,,,,,,,25,Male,2020-07-31_13h36.19.211,torte-2b,2020.1.3,Win32,60,12917,,,,,,,,,,,,space,0,15,15,15,1,4,0.26852,,,,,,,,,,,,,,,,,,,,,,,,,,,,,,,,,,,,,,,,,,,,,,
,,,,,,,,,,,,,,,,,,,,,,,,25,Male,2020-07-31_13h36.19.211,torte-2b,2020.1.3,Win32,60,12917,,,,,,,,,,,,,0,16,16,16,1,6,,,,,,,,,,,,,,,,,,,,,,,,,,,,,,,,,,,,,,,,,,,,,,,
,,,,,,,,,,,,,,,,,,,,,,,,25,Male,2020-07-31_13h36.19.211,torte-2b,2020.1.3,Win32,60,12917,,,,,,,,,,,,,0,17,17,17,1,7,,,,,,,,,,,,,,,,,,,,,,,,,,,,,,,,,,,,,,,,,,,,,,,
,,,,,,,,,,,,,,,,,,,,,,,,25,Male,2020-07-31_13h36.19.211,torte-2b,2020.1.3,Win32,60,12917,,,,,,,,,,,,space,0,18,18,18,1,6,0.32473,,,,,,,,,,,,,,,,,,,,,,,,,,,,,,,,,,,,,,,,,,,,,,
,,,,,,,,,,,,,,,,,,,,,,,,25,Male,2020-07-31_13h36.19.211,torte-2b,2020.1.3,Win32,60,12917,,,,,,,,,,,,,0,19,19,19,1,7,,,,,,,,,,,,,,,,,,,,,,,,,,,,,,,,,,,,,,,,,,,,,,,
,,,,,,,,,,,,,,,,,,,,,,,,25,Male,2020-07-31_13h36.19.211,torte-2b,2020.1.3,Win32,60,12917,,,,,,,,,,,,,0,20,20,20,1,5,,,,,,,,,,,,,,,,,,,,,,,,,,,,,,,,,,,,,,,,,,,,,,,
,,,,,,,,,,,,,,,,,,,,,,,,25,Male,2020-07-31_13h36.19.211,torte-2b,2020.1.3,Win32,60,12917,,,,,,,,,,,,,0,21,21,21,1,1,,,,,,,,,,,,,,,,,,,,,,,,,,,,,,,,,,,,,,,,,,,,,,,
,,,,,,,,,,,,,,,,,,,,,,,,25,Male,2020-07-31_13h36.19.211,torte-2b,2020.1.3,Win32,60,12917,,,,,,,,,,,,space,0,22,22,22,1,6,0.592115,,,,,,,,,,,,,,,,,,,,,,,,,,,,,,,,,,,,,,,,,,,,,,
,,,,,,,,,,,,,,,,,,,,,,,,25,Male,2020-07-31_13h36.19.211,torte-2b,2020.1.3,Win32,60,12917,,,,,,,,,,,,space,0,23,23,23,1,1,0.899515,,,,,,,,,,,,,,,,,,,,,,,,,,,,,,,,,,,,,,,,,,,,,,
,,,,,,,,,,,,,,,,,,,,,,,,25,Male,2020-07-31_13h36.19.211,torte-2b,2020.1.3,Win32,60,12917,,,,,,,,,,,,,0,24,24,24,1,5,,,,,,,,,,,,,,,,,,,,,,,,,,,,,,,,,,,,,,,,,,,,,,,
,,,,,,,,,,,,,,,,,,,,,,,,25,Male,2020-07-31_13h36.19.211,torte-2b,2020.1.3,Win32,60,12917,,,,,,,,,,,,space,0,25,25,25,1,6,0.67438,,,,,,,,,,,,,,,,,,,,,,,,,,,,,,,,,,,,,,,,,,,,,,
,,,,,,,,,,,,,,,,,,,,,,,,25,Male,2020-07-31_13h36.19.211,torte-2b,2020.1.3,Win32,60,12917,,,,,,,,,,,,space,0,26,26,26,1,6,0.58708,,,,,,,,,,,,,,,,,,,,,,,,,,,,,,,,,,,,,,,,,,,,,,
,,,,,,,,,,,,,,,,,,,,,,,,25,Male,2020-07-31_13h36.19.211,torte-2b,2020.1.3,Win32,60,12917,,,,,,,,,,,,space,0,27,27,27,1,6,0.880455,,,,,,,,,,,,,,,,,,,,,,,,,,,,,,,,,,,,,,,,,,,,,,
,,,,,,,,,,,,,,,,,,,,,,,,25,Male,2020-07-31_13h36.19.211,torte-2b,2020.1.3,Win32,60,12917,,,,,,,,,,,,,0,28,28,28,1,5,,,,,,,,,,,,,,,,,,,,,,,,,,,,,,,,,,,,,,,,,,,,,,,
,,,,,,,,,,,,,,,,,,,,,,,,25,Male,2020-07-31_13h36.19.211,torte-2b,2020.1.3,Win32,60,12917,,,,,,,,,,,,,0,29,29,29,1,2,,,,,,,,,,,,,,,,,,,,,,,,,,,,,,,,,,,,,,,,,,,,,,,
,,,,,,,,,,,,,,,,,,,,,,,,25,Male,2020-07-31_13h36.19.211,torte-2b,2020.1.3,Win32,60,12917,,,,,,,,,,,,space,0,30,30,30,1,5,0.507345,,,,,,,,,,,,,,,,,,,,,,,,,,,,,,,,,,,,,,,,,,,,,,
,,,,,,,,,,,,,,,,,,,,,,,,25,Male,2020-07-31_13h36.19.211,torte-2b,2020.1.3,Win32,60,12917,,,,,,,,,,,,space,0,31,31,31,1,2,0.317035,,,,,,,,,,,,,,,,,,,,,,,,,,,,,,,,,,,,,,,,,,,,,,
,,,,,,,,,,,,,,,,,,,,,,,,25,Male,2020-07-31_13h36.19.211,torte-2b,2020.1.3,Win32,60,12917,,,,,,,,,,,,space,0,32,32,32,1,5,0.72782,,,,,,,,,,,,,,,,,,,,,,,,,,,,,,,,,,,,,,,,,,,,,,
,,,,,,,,,,,,,,,,,,,,,,,,25,Male,2020-07-31_13h36.19.211,torte-2b,2020.1.3,Win32,60,12917,,,,,,,,,,,,,0,33,33,33,1,1,,,,,,,,,,,,,,,,,,,,,,,,,,,,,,,,,,,,,,,,,,,,,,,
,,,,,,,,,,,,,,,,,,,,,,,,25,Male,2020-07-31_13h36.19.211,torte-2b,2020.1.3,Win32,60,12917,,,,,,,,,,,,,0,34,34,34,1,1,,,,,,,,,,,,,,,,,,,,,,,,,,,,,,,,,,,,,,,,,,,,,,,
,,,,,,,,,,,,,,,,,,,,,,,,25,Male,2020-07-31_13h36.19.211,torte-2b,2020.1.3,Win32,60,12917,,,,,,,,,,,,,,,,,,2,,0,0,0,0,1,,,,,,,,,,,,,,,,,,,,,,,,,,,,,,,,,,,,,,,,,
,,,,,,,,,,,,,,,,,,,,,,,,25,Male,2020-07-31_13h36.19.211,torte-2b,2020.1.3,Win32,60,12917,,,,,,,,,,,,,,,,,,2,,0,1,1,1,1,,,,,,,,,,,,,,,,,,,,,,,,,,,,,,,,,,,,,,,,,
,,,,,,,,,,,,,,,,,,,,,,,,25,Male,2020-07-31_13h36.19.211,torte-2b,2020.1.3,Win32,60,12917,,,,,,,,,,,,,,,,,,6,,0,2,2,2,1,,,,,,,,,,,,,,,,,,,,,,,,,,,,,,,,,,,,,,,,,
,,,,,,,,,,,,,,,,,,,,,,,,25,Male,2020-07-31_13h36.19.211,torte-2b,2020.1.3,Win32,60,12917,,,,,,,,,,,,space,,,,,,2,0.54391,0,3,3,3,1,,,,,,,,,,,,,,,,,,,,,,,,,,,,,,,,,,,,,,,,,
,,,,,,,,,,,,,,,,,,,,,,,,25,Male,2020-07-31_13h36.19.211,torte-2b,2020.1.3,Win32,60,12917,,,,,,,,,,,,space,,,,,,6,0.401235,0,4,4,4,1,,,,,,,,,,,,,,,,,,,,,,,,,,,,,,,,,,,,,,,,,
,,,,,,,,,,,,,,,,,,,,,,,,25,Male,2020-07-31_13h36.19.211,torte-2b,2020.1.3,Win32,60,12917,,,,,,,,,,,,space,,,,,,2,0.76882,0,5,5,5,1,,,,,,,,,,,,,,,,,,,,,,,,,,,,,,,,,,,,,,,,,
,,,,,,,,,,,,,,,,,,,,,,,,25,Male,2020-07-31_13h36.19.211,torte-2b,2020.1.3,Win32,60,12917,,,,,,,,,,,,,,,,,,7,,0,6,6,6,1,,,,,,,,,,,,,,,,,,,,,,,,,,,,,,,,,,,,,,,,,
,,,,,,,,,,,,,,,,,,,,,,,,25,Male,2020-07-31_13h36.19.211,torte-2b,2020.1.3,Win32,60,12917,,,,,,,,,,,,,,,,,,2,,0,7,7,7,1,,,,,,,,,,,,,,,,,,,,,,,,,,,,,,,,,,,,,,,,,
,,,,,,,,,,,,,,,,,,,,,,,,25,Male,2020-07-31_13h36.19.211,torte-2b,2020.1.3,Win32,60,12917,,,,,,,,,,,,space,,,,,,7,0.39514,0,8,8,8,1,,,,,,,,,,,,,,,,,,,,,,,,,,,,,,,,,,,,,,,,,
,,,,,,,,,,,,,,,,,,,,,,,,25,Male,2020-07-31_13h36.19.211,torte-2b,2020.1.3,Win32,60,12917,,,,,,,,,,,,,,,,,,2,,0,9,9,9,1,,,,,,,,,,,,,,,,,,,,,,,,,,,,,,,,,,,,,,,,,
,,,,,,,,,,,,,,,,,,,,,,,,25,Male,2020-07-31_13h36.19.211,torte-2b,2020.1.3,Win32,60,12917,,,,,,,,,,,,space,,,,,,5,0.857405,0,10,10,10,1,,,,,,,,,,,,,,,,,,,,,,,,,,,,,,,,,,,,,,,,,
,,,,,,,,,,,,,,,,,,,,,,,,25,Male,2020-07-31_13h36.19.211,torte-2b,2020.1.3,Win32,60,12917,,,,,,,,,,,,,,,,,,4,,0,11,11,11,1,,,,,,,,,,,,,,,,,,,,,,,,,,,,,,,,,,,,,,,,,
,,,,,,,,,,,,,,,,,,,,,,,,25,Male,2020-07-31_13h36.19.211,torte-2b,2020.1.3,Win32,60,12917,,,,,,,,,,,,,,,,,,5,,0,12,12,12,1,,,,,,,,,,,,,,,,,,,,,,,,,,,,,,,,,,,,,,,,,
,,,,,,,,,,,,,,,,,,,,,,,,25,Male,2020-07-31_13h36.19.211,torte-2b,2020.1.3,Win32,60,12917,,,,,,,,,,,,,,,,,,6,,0,13,13,13,1,,,,,,,,,,,,,,,,,,,,,,,,,,,,,,,,,,,,,,,,,
,,,,,,,,,,,,,,,,,,,,,,,,25,Male,2020-07-31_13h36.19.211,torte-2b,2020.1.3,Win32,60,12917,,,,,,,,,,,,space,,,,,,5,0.40145,0,14,14,14,1,,,,,,,,,,,,,,,,,,,,,,,,,,,,,,,,,,,,,,,,,
,,,,,,,,,,,,,,,,,,,,,,,,25,Male,2020-07-31_13h36.19.211,torte-2b,2020.1.3,Win32,60,12917,,,,,,,,,,,,space,,,,,,4,0.54825,0,15,15,15,1,,,,,,,,,,,,,,,,,,,,,,,,,,,,,,,,,,,,,,,,,
,,,,,,,,,,,,,,,,,,,,,,,,25,Male,2020-07-31_13h36.19.211,torte-2b,2020.1.3,Win32,60,12917,,,,,,,,,,,,,,,,,,5,,0,16,16,16,1,,,,,,,,,,,,,,,,,,,,,,,,,,,,,,,,,,,,,,,,,
,,,,,,,,,,,,,,,,,,,,,,,,25,Male,2020-07-31_13h36.19.211,torte-2b,2020.1.3,Win32,60,12917,,,,,,,,,,,,,,,,,,3,,0,17,17,17,1,,,,,,,,,,,,,,,,,,,,,,,,,,,,,,,,,,,,,,,,,
,,,,,,,,,,,,,,,,,,,,,,,,25,Male,2020-07-31_13h36.19.211,torte-2b,2020.1.3,Win32,60,12917,,,,,,,,,,,,,,,,,,6,,0,18,18,18,1,,,,,,,,,,,,,,,,,,,,,,,,,,,,,,,,,,,,,,,,,
,,,,,,,,,,,,,,,,,,,,,,,,25,Male,2020-07-31_13h36.19.211,torte-2b,2020.1.3,Win32,60,12917,,,,,,,,,,,,space,,,,,,6,0.566035,0,19,19,19,1,,,,,,,,,,,,,,,,,,,,,,,,,,,,,,,,,,,,,,,,,
,,,,,,,,,,,,,,,,,,,,,,,,25,Male,2020-07-31_13h36.19.211,torte-2b,2020.1.3,Win32,60,12917,,,,,,,,,,,,space,,,,,,6,0.51563,0,20,20,20,1,,,,,,,,,,,,,,,,,,,,,,,,,,,,,,,,,,,,,,,,,
,,,,,,,,,,,,,,,,,,,,,,,,25,Male,2020-07-31_13h36.19.211,torte-2b,2020.1.3,Win32,60,12917,,,,,,,,,,,,,,,,,,4,,0,21,21,21,1,,,,,,,,,,,,,,,,,,,,,,,,,,,,,,,,,,,,,,,,,
,,,,,,,,,,,,,,,,,,,,,,,,25,Male,2020-07-31_13h36.19.211,torte-2b,2020.1.3,Win32,60,12917,,,,,,,,,,,,,,,,,,6,,0,22,22,22,1,,,,,,,,,,,,,,,,,,,,,,,,,,,,,,,,,,,,,,,,,
,,,,,,,,,,,,,,,,,,,,,,,,25,Male,2020-07-31_13h36.19.211,torte-2b,2020.1.3,Win32,60,12917,,,,,,,,,,,,space,,,,,,4,1.44521,0,23,23,23,1,,,,,,,,,,,,,,,,,,,,,,,,,,,,,,,,,,,,,,,,,
,,,,,,,,,,,,,,,,,,,,,,,,25,Male,2020-07-31_13h36.19.211,torte-2b,2020.1.3,Win32,60,12917,,,,,,,,,,,,space,,,,,,6,0.981745,0,24,24,24,1,,,,,,,,,,,,,,,,,,,,,,,,,,,,,,,,,,,,,,,,,
,,,,,,,,,,,,,,,,,,,,,,,,25,Male,2020-07-31_13h36.19.211,torte-2b,2020.1.3,Win32,60,12917,,,,,,,,,,,,,,,,,,6,,0,25,25,25,1,,,,,,,,,,,,,,,,,,,,,,,,,,,,,,,,,,,,,,,,,
,,,,,,,,,,,,,,,,,,,,,,,,25,Male,2020-07-31_13h36.19.211,torte-2b,2020.1.3,Win32,60,12917,,,,,,,,,,,,,,,,,,7,,0,26,26,26,1,,,,,,,,,,,,,,,,,,,,,,,,,,,,,,,,,,,,,,,,,
,,,,,,,,,,,,,,,,,,,,,,,,25,Male,2020-07-31_13h36.19.211,torte-2b,2020.1.3,Win32,60,12917,,,,,,,,,,,,,,,,,,1,,0,27,27,27,1,,,,,,,,,,,,,,,,,,,,,,,,,,,,,,,,,,,,,,,,,
,,,,,,,,,,,,,,,,,,,,,,,,25,Male,2020-07-31_13h36.19.211,torte-2b,2020.1.3,Win32,60,12917,,,,,,,,,,,,space,,,,,,7,0.717205,0,28,28,28,1,,,,,,,,,,,,,,,,,,,,,,,,,,,,,,,,,,,,,,,,,
,,,,,,,,,,,,,,,,,,,,,,,,25,Male,2020-07-31_13h36.19.211,torte-2b,2020.1.3,Win32,60,12917,,,,,,,,,,,,,,,,,,4,,0,29,29,29,1,,,,,,,,,,,,,,,,,,,,,,,,,,,,,,,,,,,,,,,,,
,,,,,,,,,,,,,,,,,,,,,,,,25,Male,2020-07-31_13h36.19.211,torte-2b,2020.1.3,Win32,60,12917,,,,,,,,,,,,,,,,,,7,,0,30,30,30,1,,,,,,,,,,,,,,,,,,,,,,,,,,,,,,,,,,,,,,,,,
,,,,,,,,,,,,,,,,,,,,,,,,25,Male,2020-07-31_13h36.19.211,torte-2b,2020.1.3,Win32,60,12917,,,,,,,,,,,,,,,,,,3,,0,31,31,31,1,,,,,,,,,,,,,,,,,,,,,,,,,,,,,,,,,,,,,,,,,
,,,,,,,,,,,,,,,,,,,,,,,,25,Male,2020-07-31_13h36.19.211,torte-2b,2020.1.3,Win32,60,12917,,,,,,,,,,,,space,,,,,,2,0.10499,0,32,32,32,1,,,,,,,,,,,,,,,,,,,,,,,,,,,,,,,,,,,,,,,,,
,,,,,,,,,,,,,,,,,,,,,,,,25,Male,2020-07-31_13h36.19.211,torte-2b,2020.1.3,Win32,60,12917,,,,,,,,,,,,,,,,,,6,,0,33,33,33,1,,,,,,,,,,,,,,,,,,,,,,,,,,,,,,,,,,,,,,,,,
,,,,,,,,,,,,,,,,,,,,,,,,25,Male,2020-07-31_13h36.19.211,torte-2b,2020.1.3,Win32,60,12917,,,,,,,,,,,,,,,,,,3,,0,34,34,34,1,,,,,,,,,,,,,,,,,,,,,,,,,,,,,,,,,,,,,,,,,
,,,,,,,,,,,,,,,,,,,,,,,,25,Male,2020-07-31_13h36.19.211,torte-2b,2020.1.3,Win32,60,12917,,,,,,,,,,,,,,,,,,7,,,,,,,0,0,0,0,1,,,,,,,,,,,,,,,,,,,,,,,,,,,,,,,,,,,,
,,,,,,,,,,,,,,,,,,,,,,,,25,Male,2020-07-31_13h36.19.211,torte-2b,2020.1.3,Win32,60,12917,,,,,,,,,,,,,,,,,,5,,,,,,,0,1,1,1,1,,,,,,,,,,,,,,,,,,,,,,,,,,,,,,,,,,,,
,,,,,,,,,,,,,,,,,,,,,,,,25,Male,2020-07-31_13h36.19.211,torte-2b,2020.1.3,Win32,60,12917,,,,,,,,,,,,,,,,,,4,,,,,,,0,2,2,2,1,,,,,,,,,,,,,,,,,,,,,,,,,,,,,,,,,,,,
,,,,,,,,,,,,,,,,,,,,,,,,25,Male,2020-07-31_13h36.19.211,torte-2b,2020.1.3,Win32,60,12917,,,,,,,,,,,,space,,,,,,5,0.77617,,,,,,0,3,3,3,1,,,,,,,,,,,,,,,,,,,,,,,,,,,,,,,,,,,,
,,,,,,,,,,,,,,,,,,,,,,,,25,Male,2020-07-31_13h36.19.211,torte-2b,2020.1.3,Win32,60,12917,,,,,,,,,,,,,,,,,,6,,,,,,,0,4,4,4,1,,,,,,,,,,,,,,,,,,,,,,,,,,,,,,,,,,,,
,,,,,,,,,,,,,,,,,,,,,,,,25,Male,2020-07-31_13h36.19.211,torte-2b,2020.1.3,Win32,60,12917,,,,,,,,,,,,space,,,,,,5,0.57926,,,,,,0,5,5,5,1,,,,,,,,,,,,,,,,,,,,,,,,,,,,,,,,,,,,
,,,,,,,,,,,,,,,,,,,,,,,,25,Male,2020-07-31_13h36.19.211,torte-2b,2020.1.3,Win32,60,12917,,,,,,,,,,,,,,,,,,3,,,,,,,0,6,6,6,1,,,,,,,,,,,,,,,,,,,,,,,,,,,,,,,,,,,,
,,,,,,,,,,,,,,,,,,,,,,,,25,Male,2020-07-31_13h36.19.211,torte-2b,2020.1.3,Win32,60,12917,,,,,,,,,,,,,,,,,,4,,,,,,,0,7,7,7,1,,,,,,,,,,,,,,,,,,,,,,,,,,,,,,,,,,,,
,,,,,,,,,,,,,,,,,,,,,,,,25,Male,2020-07-31_13h36.19.211,torte-2b,2020.1.3,Win32,60,12917,,,,,,,,,,,,space,,,,,,3,1.77997,,,,,,0,8,8,8,1,,,,,,,,,,,,,,,,,,,,,,,,,,,,,,,,,,,,
,,,,,,,,,,,,,,,,,,,,,,,,25,Male,2020-07-31_13h36.19.211,torte-2b,2020.1.3,Win32,60,12917,,,,,,,,,,,,,,,,,,1,,,,,,,0,9,9,9,1,,,,,,,,,,,,,,,,,,,,,,,,,,,,,,,,,,,,
,,,,,,,,,,,,,,,,,,,,,,,,25,Male,2020-07-31_13h36.19.211,torte-2b,2020.1.3,Win32,60,12917,,,,,,,,,,,,,,,,,,2,,,,,,,0,10,10,10,1,,,,,,,,,,,,,,,,,,,,,,,,,,,,,,,,,,,,
,,,,,,,,,,,,,,,,,,,,,,,,25,Male,2020-07-31_13h36.19.211,torte-2b,2020.1.3,Win32,60,12917,,,,,,,,,,,,space,,,,,,1,0.415825,,,,,,0,11,11,11,1,,,,,,,,,,,,,,,,,,,,,,,,,,,,,,,,,,,,
,,,,,,,,,,,,,,,,,,,,,,,,25,Male,2020-07-31_13h36.19.211,torte-2b,2020.1.3,Win32,60,12917,,,,,,,,,,,,space,,,,,,2,1.128955,,,,,,0,12,12,12,1,,,,,,,,,,,,,,,,,,,,,,,,,,,,,,,,,,,,
,,,,,,,,,,,,,,,,,,,,,,,,25,Male,2020-07-31_13h36.19.211,torte-2b,2020.1.3,Win32,60,12917,,,,,,,,,,,,space,,,,,,1,0.81609,,,,,,0,13,13,13,1,,,,,,,,,,,,,,,,,,,,,,,,,,,,,,,,,,,,
,,,,,,,,,,,,,,,,,,,,,,,,25,Male,2020-07-31_13h36.19.211,torte-2b,2020.1.3,Win32,60,12917,,,,,,,,,,,,,,,,,,3,,,,,,,0,14,14,14,1,,,,,,,,,,,,,,,,,,,,,,,,,,,,,,,,,,,,
,,,,,,,,,,,,,,,,,,,,,,,,25,Male,2020-07-31_13h36.19.211,torte-2b,2020.1.3,Win32,60,12917,,,,,,,,,,,,space,,,,,,1,1.06852,,,,,,0,15,15,15,1,,,,,,,,,,,,,,,,,,,,,,,,,,,,,,,,,,,,
,,,,,,,,,,,,,,,,,,,,,,,,25,Male,2020-07-31_13h36.19.211,torte-2b,2020.1.3,Win32,60,12917,,,,,,,,,,,,,,,,,,7,,,,,,,0,16,16,16,1,,,,,,,,,,,,,,,,,,,,,,,,,,,,,,,,,,,,
,,,,,,,,,,,,,,,,,,,,,,,,25,Male,2020-07-31_13h36.19.211,torte-2b,2020.1.3,Win32,60,12917,,,,,,,,,,,,,,,,,,7,,,,,,,0,17,17,17,1,,,,,,,,,,,,,,,,,,,,,,,,,,,,,,,,,,,,
,,,,,,,,,,,,,,,,,,,,,,,,25,Male,2020-07-31_13h36.19.211,torte-2b,2020.1.3,Win32,60,12917,,,,,,,,,,,,space,,,,,,4,0.821535,,,,,,0,18,18,18,1,,,,,,,,,,,,,,,,,,,,,,,,,,,,,,,,,,,,
,,,,,,,,,,,,,,,,,,,,,,,,25,Male,2020-07-31_13h36.19.211,torte-2b,2020.1.3,Win32,60,12917,,,,,,,,,,,,space,,,,,,7,0.70818,,,,,,0,19,19,19,1,,,,,,,,,,,,,,,,,,,,,,,,,,,,,,,,,,,,
,,,,,,,,,,,,,,,,,,,,,,,,25,Male,2020-07-31_13h36.19.211,torte-2b,2020.1.3,Win32,60,12917,,,,,,,,,,,,,,,,,,3,,,,,,,0,20,20,20,1,,,,,,,,,,,,,,,,,,,,,,,,,,,,,,,,,,,,
,,,,,,,,,,,,,,,,,,,,,,,,25,Male,2020-07-31_13h36.19.211,torte-2b,2020.1.3,Win32,60,12917,,,,,,,,,,,,space,,,,,,7,1.065505,,,,,,0,21,21,21,1,,,,,,,,,,,,,,,,,,,,,,,,,,,,,,,,,,,,
,,,,,,,,,,,,,,,,,,,,,,,,25,Male,2020-07-31_13h36.19.211,torte-2b,2020.1.3,Win32,60,12917,,,,,,,,,,,,space,,,,,,3,0.88414,,,,,,0,22,22,22,1,,,,,,,,,,,,,,,,,,,,,,,,,,,,,,,,,,,,
,,,,,,,,,,,,,,,,,,,,,,,,25,Male,2020-07-31_13h36.19.211,torte-2b,2020.1.3,Win32,60,12917,,,,,,,,,,,,,,,,,,1,,,,,,,0,23,23,23,1,,,,,,,,,,,,,,,,,,,,,,,,,,,,,,,,,,,,
,,,,,,,,,,,,,,,,,,,,,,,,25,Male,2020-07-31_13h36.19.211,torte-2b,2020.1.3,Win32,60,12917,,,,,,,,,,,,,,,,,,6,,,,,,,0,24,24,24,1,,,,,,,,,,,,,,,,,,,,,,,,,,,,,,,,,,,,
,,,,,,,,,,,,,,,,,,,,,,,,25,Male,2020-07-31_13h36.19.211,torte-2b,2020.1.3,Win32,60,12917,,,,,,,,,,,,,,,,,,3,,,,,,,0,25,25,25,1,,,,,,,,,,,,,,,,,,,,,,,,,,,,,,,,,,,,
,,,,,,,,,,,,,,,,,,,,,,,,25,Male,2020-07-31_13h36.19.211,torte-2b,2020.1.3,Win32,60,12917,,,,,,,,,,,,,,,,,,2,,,,,,,0,26,26,26,1,,,,,,,,,,,,,,,,,,,,,,,,,,,,,,,,,,,,
,,,,,,,,,,,,,,,,,,,,,,,,25,Male,2020-07-31_13h36.19.211,torte-2b,2020.1.3,Win32,60,12917,,,,,,,,,,,,space,,,,,,3,0.854135,,,,,,0,27,27,27,1,,,,,,,,,,,,,,,,,,,,,,,,,,,,,,,,,,,,
,,,,,,,,,,,,,,,,,,,,,,,,25,Male,2020-07-31_13h36.19.211,torte-2b,2020.1.3,Win32,60,12917,,,,,,,,,,,,,,,,,,1,,,,,,,0,28,28,28,1,,,,,,,,,,,,,,,,,,,,,,,,,,,,,,,,,,,,
,,,,,,,,,,,,,,,,,,,,,,,,25,Male,2020-07-31_13h36.19.211,torte-2b,2020.1.3,Win32,60,12917,,,,,,,,,,,,,,,,,,3,,,,,,,0,29,29,29,1,,,,,,,,,,,,,,,,,,,,,,,,,,,,,,,,,,,,
,,,,,,,,,,,,,,,,,,,,,,,,25,Male,2020-07-31_13h36.19.211,torte-2b,2020.1.3,Win32,60,12917,,,,,,,,,,,,space,,,,,,1,0.82356,,,,,,0,30,30,30,1,,,,,,,,,,,,,,,,,,,,,,,,,,,,,,,,,,,,
,,,,,,,,,,,,,,,,,,,,,,,,25,Male,2020-07-31_13h36.19.211,torte-2b,2020.1.3,Win32,60,12917,,,,,,,,,,,,,,,,,,7,,,,,,,0,31,31,31,1,,,,,,,,,,,,,,,,,,,,,,,,,,,,,,,,,,,,
,,,,,,,,,,,,,,,,,,,,,,,,25,Male,2020-07-31_13h36.19.211,torte-2b,2020.1.3,Win32,60,12917,,,,,,,,,,,,,,,,,,5,,,,,,,0,32,32,32,1,,,,,,,,,,,,,,,,,,,,,,,,,,,,,,,,,,,,
,,,,,,,,,,,,,,,,,,,,,,,,25,Male,2020-07-31_13h36.19.211,torte-2b,2020.1.3,Win32,60,12917,,,,,,,,,,,,space,,,,,,7,0.67716,,,,,,0,33,33,33,1,,,,,,,,,,,,,,,,,,,,,,,,,,,,,,,,,,,,
,,,,,,,,,,,,,,,,,,,,,,,,25,Male,2020-07-31_13h36.19.211,torte-2b,2020.1.3,Win32,60,12917,,,,,,,,,,,,,,,,,,2,,,,,,,0,34,34,34,1,,,,,,,,,,,,,,,,,,,,,,,,,,,,,,,,,,,,
,,,,,,,,,,,,,,,,,,,,,,,,25,Male,2020-07-31_13h36.19.211,torte-2b,2020.1.3,Win32,60,12917,,,,,,,,,,,,,,,,,,3,,,,,,,,,,,,0,0,0,0,1,,,,,,,,,,,,,,,,,,,,,,,,,,,,,,,
,,,,,,,,,,,,,,,,,,,,,,,,25,Male,2020-07-31_13h36.19.211,torte-2b,2020.1.3,Win32,60,12917,,,,,,,,,,,,,,,,,,7,,,,,,,,,,,,0,1,1,1,1,,,,,,,,,,,,,,,,,,,,,,,,,,,,,,,
,,,,,,,,,,,,,,,,,,,,,,,,25,Male,2020-07-31_13h36.19.211,torte-2b,2020.1.3,Win32,60,12917,,,,,,,,,,,,,,,,,,7,,,,,,,,,,,,0,2,2,2,1,,,,,,,,,,,,,,,,,,,,,,,,,,,,,,,
,,,,,,,,,,,,,,,,,,,,,,,,25,Male,2020-07-31_13h36.19.211,torte-2b,2020.1.3,Win32,60,12917,,,,,,,,,,,,,,,,,,4,,,,,,,,,,,,0,3,3,3,1,,,,,,,,,,,,,,,,,,,,,,,,,,,,,,,
,,,,,,,,,,,,,,,,,,,,,,,,25,Male,2020-07-31_13h36.19.211,torte-2b,2020.1.3,Win32,60,12917,,,,,,,,,,,,,,,,,,5,,,,,,,,,,,,0,4,4,4,1,,,,,,,,,,,,,,,,,,,,,,,,,,,,,,,
,,,,,,,,,,,,,,,,,,,,,,,,25,Male,2020-07-31_13h36.19.211,torte-2b,2020.1.3,Win32,60,12917,,,,,,,,,,,,space,,,,,,4,0.750895,,,,,,,,,,,0,5,5,5,1,,,,,,,,,,,,,,,,,,,,,,,,,,,,,,,
,,,,,,,,,,,,,,,,,,,,,,,,25,Male,2020-07-31_13h36.19.211,torte-2b,2020.1.3,Win32,60,12917,,,,,,,,,,,,,,,,,,2,,,,,,,,,,,,0,6,6,6,1,,,,,,,,,,,,,,,,,,,,,,,,,,,,,,,
,,,,,,,,,,,,,,,,,,,,,,,,25,Male,2020-07-31_13h36.19.211,torte-2b,2020.1.3,Win32,60,12917,,,,,,,,,,,,space,,,,,,4,0.84672,,,,,,,,,,,0,7,7,7,1,,,,,,,,,,,,,,,,,,,,,,,,,,,,,,,
,,,,,,,,,,,,,,,,,,,,,,,,25,Male,2020-07-31_13h36.19.211,torte-2b,2020.1.3,Win32,60,12917,,,,,,,,,,,,space,,,,,,2,0.812355,,,,,,,,,,,0,8,8,8,1,,,,,,,,,,,,,,,,,,,,,,,,,,,,,,,
,,,,,,,,,,,,,,,,,,,,,,,,25,Male,2020-07-31_13h36.19.211,torte-2b,2020.1.3,Win32,60,12917,,,,,,,,,,,,,,,,,,2,,,,,,,,,,,,0,9,9,9,1,,,,,,,,,,,,,,,,,,,,,,,,,,,,,,,
,,,,,,,,,,,,,,,,,,,,,,,,25,Male,2020-07-31_13h36.19.211,torte-2b,2020.1.3,Win32,60,12917,,,,,,,,,,,,space,,,,,,6,0.990485,,,,,,,,,,,0,10,10,10,1,,,,,,,,,,,,,,,,,,,,,,,,,,,,,,,
,,,,,,,,,,,,,,,,,,,,,,,,25,Male,2020-07-31_13h36.19.211,torte-2b,2020.1.3,Win32,60,12917,,,,,,,,,,,,space,,,,,,2,0.755455,,,,,,,,,,,0,11,11,11,1,,,,,,,,,,,,,,,,,,,,,,,,,,,,,,,
,,,,,,,,,,,,,,,,,,,,,,,,25,Male,2020-07-31_13h36.19.211,torte-2b,2020.1.3,Win32,60,12917,,,,,,,,,,,,,,,,,,2,,,,,,,,,,,,0,12,12,12,1,,,,,,,,,,,,,,,,,,,,,,,,,,,,,,,
,,,,,,,,,,,,,,,,,,,,,,,,25,Male,2020-07-31_13h36.19.211,torte-2b,2020.1.3,Win32,60,12917,,,,,,,,,,,,space,,,,,,2,0.73528,,,,,,,,,,,0,13,13,13,1,,,,,,,,,,,,,,,,,,,,,,,,,,,,,,,
,,,,,,,,,,,,,,,,,,,,,,,,25,Male,2020-07-31_13h36.19.211,torte-2b,2020.1.3,Win32,60,12917,,,,,,,,,,,,space,,,,,,2,0.80681,,,,,,,,,,,0,14,14,14,1,,,,,,,,,,,,,,,,,,,,,,,,,,,,,,,
,,,,,,,,,,,,,,,,,,,,,,,,25,Male,2020-07-31_13h36.19.211,torte-2b,2020.1.3,Win32,60,12917,,,,,,,,,,,,,,,,,,4,,,,,,,,,,,,0,15,15,15,1,,,,,,,,,,,,,,,,,,,,,,,,,,,,,,,
,,,,,,,,,,,,,,,,,,,,,,,,25,Male,2020-07-31_13h36.19.211,torte-2b,2020.1.3,Win32,60,12917,,,,,,,,,,,,,,,,,,3,,,,,,,,,,,,0,16,16,16,1,,,,,,,,,,,,,,,,,,,,,,,,,,,,,,,
,,,,,,,,,,,,,,,,,,,,,,,,25,Male,2020-07-31_13h36.19.211,torte-2b,2020.1.3,Win32,60,12917,,,,,,,,,,,,,,,,,,7,,,,,,,,,,,,0,17,17,17,1,,,,,,,,,,,,,,,,,,,,,,,,,,,,,,,
,,,,,,,,,,,,,,,,,,,,,,,,25,Male,2020-07-31_13h36.19.211,torte-2b,2020.1.3,Win32,60,12917,,,,,,,,,,,,,,,,,,4,,,,,,,,,,,,0,18,18,18,1,,,,,,,,,,,,,,,,,,,,,,,,,,,,,,,
,,,,,,,,,,,,,,,,,,,,,,,,25,Male,2020-07-31_13h36.19.211,torte-2b,2020.1.3,Win32,60,12917,,,,,,,,,,,,space,,,,,,7,1.11747,,,,,,,,,,,0,19,19,19,1,,,,,,,,,,,,,,,,,,,,,,,,,,,,,,,
,,,,,,,,,,,,,,,,,,,,,,,,25,Male,2020-07-31_13h36.19.211,torte-2b,2020.1.3,Win32,60,12917,,,,,,,,,,,,,,,,,,7,,,,,,,,,,,,0,20,20,20,1,,,,,,,,,,,,,,,,,,,,,,,,,,,,,,,
,,,,,,,,,,,,,,,,,,,,,,,,25,Male,2020-07-31_13h36.19.211,torte-2b,2020.1.3,Win32,60,12917,,,,,,,,,,,,space,,,,,,7,0.777275,,,,,,,,,,,0,21,21,21,1,,,,,,,,,,,,,,,,,,,,,,,,,,,,,,,
,,,,,,,,,,,,,,,,,,,,,,,,25,Male,2020-07-31_13h36.19.211,torte-2b,2020.1.3,Win32,60,12917,,,,,,,,,,,,space,,,,,,7,0.941675,,,,,,,,,,,0,22,22,22,1,,,,,,,,,,,,,,,,,,,,,,,,,,,,,,,
,,,,,,,,,,,,,,,,,,,,,,,,25,Male,2020-07-31_13h36.19.211,torte-2b,2020.1.3,Win32,60,12917,,,,,,,,,,,,,,,,,,1,,,,,,,,,,,,0,23,23,23,1,,,,,,,,,,,,,,,,,,,,,,,,,,,,,,,
,,,,,,,,,,,,,,,,,,,,,,,,25,Male,2020-07-31_13h36.19.211,torte-2b,2020.1.3,Win32,60,12917,,,,,,,,,,,,space,,,,,,7,0.799345,,,,,,,,,,,0,24,24,24,1,,,,,,,,,,,,,,,,,,,,,,,,,,,,,,,
,,,,,,,,,,,,,,,,,,,,,,,,25,Male,2020-07-31_13h36.19.211,torte-2b,2020.1.3,Win32,60,12917,,,,,,,,,,,,space,,,,,,1,0.957535,,,,,,,,,,,0,25,25,25,1,,,,,,,,,,,,,,,,,,,,,,,,,,,,,,,
,,,,,,,,,,,,,,,,,,,,,,,,25,Male,2020-07-31_13h36.19.211,torte-2b,2020.1.3,Win32,60,12917,,,,,,,,,,,,space,,,,,,7,0.728705,,,,,,,,,,,0,26,26,26,1,,,,,,,,,,,,,,,,,,,,,,,,,,,,,,,
,,,,,,,,,,,,,,,,,,,,,,,,25,Male,2020-07-31_13h36.19.211,torte-2b,2020.1.3,Win32,60,12917,,,,,,,,,,,,,,,,,,2,,,,,,,,,,,,0,27,27,27,1,,,,,,,,,,,,,,,,,,,,,,,,,,,,,,,
,,,,,,,,,,,,,,,,,,,,,,,,25,Male,2020-07-31_13h36.19.211,torte-2b,2020.1.3,Win32,60,12917,,,,,,,,,,,,,,,,,,5,,,,,,,,,,,,0,28,28,28,1,,,,,,,,,,,,,,,,,,,,,,,,,,,,,,,
,,,,,,,,,,,,,,,,,,,,,,,,25,Male,2020-07-31_13h36.19.211,torte-2b,2020.1.3,Win32,60,12917,,,,,,,,,,,,space,,,,,,5,0.577725,,,,,,,,,,,0,29,29,29,1,,,,,,,,,,,,,,,,,,,,,,,,,,,,,,,
,,,,,,,,,,,,,,,,,,,,,,,,25,Male,2020-07-31_13h36.19.211,torte-2b,2020.1.3,Win32,60,12917,,,,,,,,,,,,space,,,,,,5,0.606065,,,,,,,,,,,0,30,30,30,1,,,,,,,,,,,,,,,,,,,,,,,,,,,,,,,
,,,,,,,,,,,,,,,,,,,,,,,,25,Male,2020-07-31_13h36.19.211,torte-2b,2020.1.3,Win32,60,12917,,,,,,,,,,,,,,,,,,1,,,,,,,,,,,,0,31,31,31,1,,,,,,,,,,,,,,,,,,,,,,,,,,,,,,,
,,,,,,,,,,,,,,,,,,,,,,,,25,Male,2020-07-31_13h36.19.211,torte-2b,2020.1.3,Win32,60,12917,,,,,,,,,,,,space,,,,,,5,0.61113,,,,,,,,,,,0,32,32,32,1,,,,,,,,,,,,,,,,,,,,,,,,,,,,,,,
,,,,,,,,,,,,,,,,,,,,,,,,25,Male,2020-07-31_13h36.19.211,torte-2b,2020.1.3,Win32,60,12917,,,,,,,,,,,,,,,,,,3,,,,,,,,,,,,0,33,33,33,1,,,,,,,,,,,,,,,,,,,,,,,,,,,,,,,
,,,,,,,,,,,,,,,,,,,,,,,,25,Male,2020-07-31_13h36.19.211,torte-2b,2020.1.3,Win32,60,12917,,,,,,,,,,,,,,,,,,3,,,,,,,,,,,,0,34,34,34,1,,,,,,,,,,,,,,,,,,,,,,,,,,,,,,,
,,,,,,,,,,,,a,0.54484,Incorrect,,,,,,t4.png,t1.png,3,0.059078,25,Male,2020-07-31_13h36.19.211,torte-2b,2020.1.3,Win32,60,12917,space,1.25947,,,,,,,,,,,,,,,,,,,,,,,,,,,,,,,,,space,6.334205,0,0,0,62,1,,,,,,,,,,,,,,,,,,,,,,,,
,,,,,,,,,,,,a,0.56833,Correct!,,,,,,t3.png,t2.png,1,0.90855,25,Male,2020-07-31_13h36.19.211,torte-2b,2020.1.3,Win32,60,12917,,,,,,,,,,,,,,,,,,,,,,,,,,,,,,,,,,,,,0,1,1,0,1,,,,,,,,,,,,,,,,,,,,,,,,
,,,,,,,,,,,,l,0.46605,Correct!,,,,,,t2.png,t5.png,3,0.0000131,25,Male,2020-07-31_13h36.19.211,torte-2b,2020.1.3,Win32,60,12917,,,,,,,,,,,,,,,,,,,,,,,,,,,,,,,,,,,,,0,2,2,46,1,,,,,,,,,,,,,,,,,,,,,,,,
,,,,,,,,,,,,l,0.41566,Correct!,,,,,,t1.png,t5.png,4,9.55E-11,25,Male,2020-07-31_13h36.19.211,torte-2b,2020.1.3,Win32,60,12917,,,,,,,,,,,,,,,,,,,,,,,,,,,,,,,,,,,,,0,3,3,118,1,,,,,,,,,,,,,,,,,,,,,,,,
,,,,,,,,,,,,a,0.55686,Correct!,,,,,,t5.png,t4.png,1,0.90025,25,Male,2020-07-31_13h36.19.211,torte-2b,2020.1.3,Win32,60,12917,,,,,,,,,,,,,,,,,,,,,,,,,,,,,,,,,,,,,0,4,4,38,1,,,,,,,,,,,,,,,,,,,,,,,,
,,,,,,,,,,,,a,0.39945,Incorrect,,,,,,t5.png,t1.png,4,9.55E-11,25,Male,2020-07-31_13h36.19.211,torte-2b,2020.1.3,Win32,60,12917,,,,,,,,,,,,,,,,,,,,,,,,,,,,,,,,,,,,,0,5,5,101,1,,,,,,,,,,,,,,,,,,,,,,,,
,,,,,,,,,,,,a,0.39547,Incorrect,,,,,,t4.png,t1.png,3,0.0000131,25,Male,2020-07-31_13h36.19.211,torte-2b,2020.1.3,Win32,60,12917,,,,,,,,,,,,,,,,,,,,,,,,,,,,,,,,,,,,,0,6,6,91,1,,,,,,,,,,,,,,,,,,,,,,,,
,,,,,,,,,,,,l,0.55179,Incorrect,,,,,,t4.png,t5.png,1,0.90025,25,Male,2020-07-31_13h36.19.211,torte-2b,2020.1.3,Win32,60,12917,,,,,,,,,,,,,,,,,,,,,,,,,,,,,,,,,,,,,0,7,7,21,1,,,,,,,,,,,,,,,,,,,,,,,,
,,,,,,,,,,,,a,0.42231,Incorrect,,,,,,t3.png,t1.png,2,0.056466,25,Male,2020-07-31_13h36.19.211,torte-2b,2020.1.3,Win32,60,12917,,,,,,,,,,,,,,,,,,,,,,,,,,,,,,,,,,,,,0,8,8,109,1,,,,,,,,,,,,,,,,,,,,,,,,
,,,,,,,,,,,,l,0.623805,Correct!,,,,,,t3.png,t5.png,2,0.0565,25,Male,2020-07-31_13h36.19.211,torte-2b,2020.1.3,Win32,60,12917,,,,,,,,,,,,,,,,,,,,,,,,,,,,,,,,,,,,,0,9,9,71,1,,,,,,,,,,,,,,,,,,,,,,,,
,,,,,,,,,,,,l,0.39962,Correct!,,,,,,t3.png,t5.png,2,0.056466,25,Male,2020-07-31_13h36.19.211,torte-2b,2020.1.3,Win32,60,12917,,,,,,,,,,,,,,,,,,,,,,,,,,,,,,,,,,,,,0,10,10,47,1,,,,,,,,,,,,,,,,,,,,,,,,
,,,,,,,,,,,,l,0.77423,Incorrect,,,,,,t2.png,t3.png,1,0.90855,25,Male,2020-07-31_13h36.19.211,torte-2b,2020.1.3,Win32,60,12917,,,,,,,,,,,,,,,,,,,,,,,,,,,,,,,,,,,,,0,11,11,113,1,,,,,,,,,,,,,,,,,,,,,,,,
,,,,,,,,,,,,a,0.452995,Incorrect,,,,,,t5.png,t2.png,3,0.0000131,25,Male,2020-07-31_13h36.19.211,torte-2b,2020.1.3,Win32,60,12917,,,,,,,,,,,,,,,,,,,,,,,,,,,,,,,,,,,,,0,12,12,66,1,,,,,,,,,,,,,,,,,,,,,,,,
,,,,,,,,,,,,a,0.48651,Correct!,,,,,,t2.png,t1.png,1,0.9,25,Male,2020-07-31_13h36.19.211,torte-2b,2020.1.3,Win32,60,12917,,,,,,,,,,,,,,,,,,,,,,,,,,,,,,,,,,,,,0,13,13,93,1,,,,,,,,,,,,,,,,,,,,,,,,
,,,,,,,,,,,,l,0.734045,Incorrect,,,,,,t1.png,t1.png,0,0.97829,25,Male,2020-07-31_13h36.19.211,torte-2b,2020.1.3,Win32,60,12917,,,,,,,,,,,,,,,,,,,,,,,,,,,,,,,,,,,,,0,14,14,114,1,,,,,,,,,,,,,,,,,,,,,,,,
,,,,,,,,,,,,a,0.398685,Correct!,,,,,,t4.png,t5.png,1,0.90025,25,Male,2020-07-31_13h36.19.211,torte-2b,2020.1.3,Win32,60,12917,,,,,,,,,,,,,,,,,,,,,,,,,,,,,,,,,,,,,0,15,15,63,1,,,,,,,,,,,,,,,,,,,,,,,,
,,,,,,,,,,,,l,0.63951,Correct!,,,,,,t1.png,t3.png,2,0.0565,25,Male,2020-07-31_13h36.19.211,torte-2b,2020.1.3,Win32,60,12917,,,,,,,,,,,,,,,,,,,,,,,,,,,,,,,,,,,,,0,16,16,42,1,,,,,,,,,,,,,,,,,,,,,,,,
,,,,,,,,,,,,l,0.445375,Incorrect,,,,,,t1.png,t2.png,1,0.9,25,Male,2020-07-31_13h36.19.211,torte-2b,2020.1.3,Win32,60,12917,,,,,,,,,,,,,,,,,,,,,,,,,,,,,,,,,,,,,0,17,17,41,1,,,,,,,,,,,,,,,,,,,,,,,,
,,,,,,,,,,,,l,0.41734,Incorrect,,,,,,t1.png,t2.png,1,0.90025,25,Male,2020-07-31_13h36.19.211,torte-2b,2020.1.3,Win32,60,12917,,,,,,,,,,,,,,,,,,,,,,,,,,,,,,,,,,,,,0,18,18,6,1,,,,,,,,,,,,,,,,,,,,,,,,
,,,,,,,,,,,,a,0.602155,Correct!,,,,,,t2.png,t1.png,1,0.90025,25,Male,2020-07-31_13h36.19.211,torte-2b,2020.1.3,Win32,60,12917,,,,,,,,,,,,,,,,,,,,,,,,,,,,,,,,,,,,,0,19,19,105,1,,,,,,,,,,,,,,,,,,,,,,,,
,,,,,,,,,,,,a,0.419725,Correct!,,,,,,t4.png,t3.png,1,0.90855,25,Male,2020-07-31_13h36.19.211,torte-2b,2020.1.3,Win32,60,12917,,,,,,,,,,,,,,,,,,,,,,,,,,,,,,,,,,,,,0,20,20,29,1,,,,,,,,,,,,,,,,,,,,,,,,
,,,,,,,,,,,,l,0.432295,Correct!,,,,,,t2.png,t5.png,3,0.0000131,25,Male,2020-07-31_13h36.19.211,torte-2b,2020.1.3,Win32,60,12917,,,,,,,,,,,,,,,,,,,,,,,,,,,,,,,,,,,,,0,21,21,115,1,,,,,,,,,,,,,,,,,,,,,,,,
,,,,,,,,,,,,l,0.51894,Incorrect,,,,,,t1.png,t1.png,0,0.97829,25,Male,2020-07-31_13h36.19.211,torte-2b,2020.1.3,Win32,60,12917,,,,,,,,,,,,,,,,,,,,,,,,,,,,,,,,,,,,,0,22,22,110,1,,,,,,,,,,,,,,,,,,,,,,,,
,,,,,,,,,,,,a,0.632525,Correct!,,,,,,t4.png,t4.png,0,0.98115,25,Male,2020-07-31_13h36.19.211,torte-2b,2020.1.3,Win32,60,12917,,,,,,,,,,,,,,,,,,,,,,,,,,,,,,,,,,,,,0,23,23,52,1,,,,,,,,,,,,,,,,,,,,,,,,
,,,,,,,,,,,,l,0.437005,Correct!,,,,,,t2.png,t4.png,2,0.059078,25,Male,2020-07-31_13h36.19.211,torte-2b,2020.1.3,Win32,60,12917,,,,,,,,,,,,,,,,,,,,,,,,,,,,,,,,,,,,,0,24,24,67,1,,,,,,,,,,,,,,,,,,,,,,,,
,,,,,,,,,,,,a,0.423105,Incorrect,,,,,,t3.png,t1.png,2,0.0565,25,Male,2020-07-31_13h36.19.211,torte-2b,2020.1.3,Win32,60,12917,,,,,,,,,,,,,,,,,,,,,,,,,,,,,,,,,,,,,0,25,25,40,1,,,,,,,,,,,,,,,,,,,,,,,,
,,,,,,,,,,,,l,0.412015,Correct!,,,,,,t2.png,t4.png,2,0.059078,25,Male,2020-07-31_13h36.19.211,torte-2b,2020.1.3,Win32,60,12917,,,,,,,,,,,,,,,,,,,,,,,,,,,,,,,,,,,,,0,26,26,97,1,,,,,,,,,,,,,,,,,,,,,,,,
,,,,,,,,,,,,a,0.49345,Correct!,,,,,,t2.png,t1.png,1,0.90025,25,Male,2020-07-31_13h36.19.211,torte-2b,2020.1.3,Win32,60,12917,,,,,,,,,,,,,,,,,,,,,,,,,,,,,,,,,,,,,0,27,27,44,1,,,,,,,,,,,,,,,,,,,,,,,,
,,,,,,,,,,,,a,0.401255,Incorrect,,,,,,t5.png,t1.png,4,9.55E-11,25,Male,2020-07-31_13h36.19.211,torte-2b,2020.1.3,Win32,60,12917,,,,,,,,,,,,,,,,,,,,,,,,,,,,,,,,,,,,,0,28,28,15,1,,,,,,,,,,,,,,,,,,,,,,,,
,,,,,,,,,,,,l,0.4017,Correct!,,,,,,t3.png,t5.png,2,0.056466,25,Male,2020-07-31_13h36.19.211,torte-2b,2020.1.3,Win32,60,12917,,,,,,,,,,,,,,,,,,,,,,,,,,,,,,,,,,,,,0,29,29,45,1,,,,,,,,,,,,,,,,,,,,,,,,
,,,,,,,,,,,,a,0.39622,Incorrect,,,,,,t4.png,t1.png,3,0.0000131,25,Male,2020-07-31_13h36.19.211,torte-2b,2020.1.3,Win32,60,12917,,,,,,,,,,,,,,,,,,,,,,,,,,,,,,,,,,,,,0,30,30,28,1,,,,,,,,,,,,,,,,,,,,,,,,
,,,,,,,,,,,,a,0.373285,Incorrect,,,,,,t5.png,t2.png,3,0.0000131,25,Male,2020-07-31_13h36.19.211,torte-2b,2020.1.3,Win32,60,12917,,,,,,,,,,,,,,,,,,,,,,,,,,,,,,,,,,,,,0,31,31,83,1,,,,,,,,,,,,,,,,,,,,,,,,
,,,,,,,,,,,,l,0.375635,Correct!,,,,,,t1.png,t4.png,3,0.0000131,25,Male,2020-07-31_13h36.19.211,torte-2b,2020.1.3,Win32,60,12917,,,,,,,,,,,,,,,,,,,,,,,,,,,,,,,,,,,,,0,32,32,74,1,,,,,,,,,,,,,,,,,,,,,,,,
,,,,,,,,,,,,a,0.667245,Correct!,,,,,,t2.png,t2.png,0,0.98115,25,Male,2020-07-31_13h36.19.211,torte-2b,2020.1.3,Win32,60,12917,,,,,,,,,,,,,,,,,,,,,,,,,,,,,,,,,,,,,0,33,33,90,1,,,,,,,,,,,,,,,,,,,,,,,,
,,,,,,,,,,,,l,0.4509,Correct!,,,,,,t1.png,t3.png,2,0.056466,25,Male,2020-07-31_13h36.19.211,torte-2b,2020.1.3,Win32,60,12917,,,,,,,,,,,,,,,,,,,,,,,,,,,,,,,,,,,,,0,34,34,24,1,,,,,,,,,,,,,,,,,,,,,,,,
,,,,,,,,,,,,l,0.51175,Incorrect,,,,,,t3.png,t4.png,1,0.90855,25,Male,2020-07-31_13h36.19.211,torte-2b,2020.1.3,Win32,60,12917,,,,,,,,,,,,,,,,,,,,,,,,,,,,,,,,,,,,,0,35,35,5,1,,,,,,,,,,,,,,,,,,,,,,,,
,,,,,,,,,,,,a,0.45937,Incorrect,,,,,,t3.png,t1.png,2,0.056466,25,Male,2020-07-31_13h36.19.211,torte-2b,2020.1.3,Win32,60,12917,,,,,,,,,,,,,,,,,,,,,,,,,,,,,,,,,,,,,0,36,36,72,1,,,,,,,,,,,,,,,,,,,,,,,,
,,,,,,,,,,,,l,0.37666,Correct!,,,,,,t1.png,t5.png,4,9.55E-11,25,Male,2020-07-31_13h36.19.211,torte-2b,2020.1.3,Win32,60,12917,,,,,,,,,,,,,,,,,,,,,,,,,,,,,,,,,,,,,0,37,37,30,1,,,,,,,,,,,,,,,,,,,,,,,,
,,,,,,,,,,,,l,0.50451,Incorrect,,,,,,t4.png,t5.png,1,0.9,25,Male,2020-07-31_13h36.19.211,torte-2b,2020.1.3,Win32,60,12917,,,,,,,,,,,,,,,,,,,,,,,,,,,,,,,,,,,,,0,38,38,81,1,,,,,,,,,,,,,,,,,,,,,,,,
,,,,,,,,,,,,a,0.821225,Correct!,,,,,,t5.png,t4.png,1,0.9,25,Male,2020-07-31_13h36.19.211,torte-2b,2020.1.3,Win32,60,12917,,,,,,,,,,,,,,,,,,,,,,,,,,,,,,,,,,,,,0,39,39,55,1,,,,,,,,,,,,,,,,,,,,,,,,
,,,,,,,,,,,,l,0.438835,Correct!,,,,,,t1.png,t5.png,4,9.55E-11,25,Male,2020-07-31_13h36.19.211,torte-2b,2020.1.3,Win32,60,12917,,,,,,,,,,,,,,,,,,,,,,,,,,,,,,,,,,,,,0,40,40,1,1,,,,,,,,,,,,,,,,,,,,,,,,
,,,,,,,,,,,,l,0.43316,Correct!,,,,,,t2.png,t4.png,2,0.059078,25,Male,2020-07-31_13h36.19.211,torte-2b,2020.1.3,Win32,60,12917,,,,,,,,,,,,,,,,,,,,,,,,,,,,,,,,,,,,,0,41,41,84,1,,,,,,,,,,,,,,,,,,,,,,,,
,,,,,,,,,,,,a,0.45096,Incorrect,,,,,,t5.png,t3.png,2,0.056466,25,Male,2020-07-31_13h36.19.211,torte-2b,2020.1.3,Win32,60,12917,,,,,,,,,,,,,,,,,,,,,,,,,,,,,,,,,,,,,0,42,42,26,1,,,,,,,,,,,,,,,,,,,,,,,,
,,,,,,,,,,,,a,0.32533,Incorrect,,,,,,t5.png,t1.png,4,9.55E-11,25,Male,2020-07-31_13h36.19.211,torte-2b,2020.1.3,Win32,60,12917,,,,,,,,,,,,,,,,,,,,,,,,,,,,,,,,,,,,,0,43,43,89,1,,,,,,,,,,,,,,,,,,,,,,,,
,,,,,,,,,,,,l,0.51027,Incorrect,,,,,,t1.png,t1.png,0,0.97829,25,Male,2020-07-31_13h36.19.211,torte-2b,2020.1.3,Win32,60,12917,,,,,,,,,,,,,,,,,,,,,,,,,,,,,,,,,,,,,0,44,44,4,1,,,,,,,,,,,,,,,,,,,,,,,,
,,,,,,,,,,,,l,0.367465,Correct!,,,,,,t1.png,t4.png,3,0.0000131,25,Male,2020-07-31_13h36.19.211,torte-2b,2020.1.3,Win32,60,12917,,,,,,,,,,,,,,,,,,,,,,,,,,,,,,,,,,,,,0,45,45,36,1,,,,,,,,,,,,,,,,,,,,,,,,
,,,,,,,,,,,,a,0.561745,Correct!,,,,,,t4.png,t4.png,0,0.98115,25,Male,2020-07-31_13h36.19.211,torte-2b,2020.1.3,Win32,60,12917,,,,,,,,,,,,,,,,,,,,,,,,,,,,,,,,,,,,,0,46,46,59,1,,,,,,,,,,,,,,,,,,,,,,,,
,,,,,,,,,,,,l,0.37093,Correct!,,,,,,t2.png,t4.png,2,0.059078,25,Male,2020-07-31_13h36.19.211,torte-2b,2020.1.3,Win32,60,12917,,,,,,,,,,,,,,,,,,,,,,,,,,,,,,,,,,,,,0,47,47,53,1,,,,,,,,,,,,,,,,,,,,,,,,
,,,,,,,,,,,,l,0.392545,Incorrect,,,,,,t2.png,t3.png,1,0.90855,25,Male,2020-07-31_13h36.19.211,torte-2b,2020.1.3,Win32,60,12917,,,,,,,,,,,,,,,,,,,,,,,,,,,,,,,,,,,,,0,48,48,70,1,,,,,,,,,,,,,,,,,,,,,,,,
,,,,,,,,,,,,l,0.548965,Incorrect,,,,,,t2.png,t2.png,0,0.981,25,Male,2020-07-31_13h36.19.211,torte-2b,2020.1.3,Win32,60,12917,,,,,,,,,,,,,,,,,,,,,,,,,,,,,,,,,,,,,0,49,49,98,1,,,,,,,,,,,,,,,,,,,,,,,,
,,,,,,,,,,,,a,0.64555,Correct!,,,,,,t5.png,t4.png,1,0.90025,25,Male,2020-07-31_13h36.19.211,torte-2b,2020.1.3,Win32,60,12917,,,,,,,,,,,,,,,,,,,,,,,,,,,,,,,,,,,,,0,50,50,25,1,,,,,,,,,,,,,,,,,,,,,,,,
,,,,,,,,,,,,a,0.444745,Correct!,,,,,,t2.png,t3.png,1,0.90855,25,Male,2020-07-31_13h36.19.211,torte-2b,2020.1.3,Win32,60,12917,,,,,,,,,,,,,,,,,,,,,,,,,,,,,,,,,,,,,0,51,51,64,1,,,,,,,,,,,,,,,,,,,,,,,,
,,,,,,,,,,,,l,0.416365,Incorrect,,,,,,t3.png,t4.png,1,0.90855,25,Male,2020-07-31_13h36.19.211,torte-2b,2020.1.3,Win32,60,12917,,,,,,,,,,,,,,,,,,,,,,,,,,,,,,,,,,,,,0,52,52,9,1,,,,,,,,,,,,,,,,,,,,,,,,
,,,,,,,,,,,,a,0.63934,Correct!,,,,,,t2.png,t2.png,0,0.98115,25,Male,2020-07-31_13h36.19.211,torte-2b,2020.1.3,Win32,60,12917,,,,,,,,,,,,,,,,,,,,,,,,,,,,,,,,,,,,,0,53,53,112,1,,,,,,,,,,,,,,,,,,,,,,,,
,,,,,,,,,,,,a,0.3844,Correct!,,,,,,t4.png,t1.png,3,0.059078,25,Male,2020-07-31_13h36.19.211,torte-2b,2020.1.3,Win32,60,12917,,,,,,,,,,,,,,,,,,,,,,,,,,,,,,,,,,,,,0,54,54,57,1,,,,,,,,,,,,,,,,,,,,,,,,
,,,,,,,,,,,,l,0.47418,Correct!,,,,,,t1.png,t2.png,1,0.9,25,Male,2020-07-31_13h36.19.211,torte-2b,2020.1.3,Win32,60,12917,,,,,,,,,,,,,,,,,,,,,,,,,,,,,,,,,,,,,0,55,55,61,1,,,,,,,,,,,,,,,,,,,,,,,,
,,,,,,,,,,,,a,0.376345,Incorrect,,,,,,t5.png,t2.png,3,0.0000131,25,Male,2020-07-31_13h36.19.211,torte-2b,2020.1.3,Win32,60,12917,,,,,,,,,,,,,,,,,,,,,,,,,,,,,,,,,,,,,0,56,56,82,1,,,,,,,,,,,,,,,,,,,,,,,,
,,,,,,,,,,,,l,0.41249,Incorrect,,,,,,t2.png,t3.png,1,0.90855,25,Male,2020-07-31_13h36.19.211,torte-2b,2020.1.3,Win32,60,12917,,,,,,,,,,,,,,,,,,,,,,,,,,,,,,,,,,,,,0,57,57,79,1,,,,,,,,,,,,,,,,,,,,,,,,
,,,,,,,,,,,,a,0.525695,Incorrect,,,,,,t3.png,t2.png,1,0.90855,25,Male,2020-07-31_13h36.19.211,torte-2b,2020.1.3,Win32,60,12917,,,,,,,,,,,,,,,,,,,,,,,,,,,,,,,,,,,,,0,58,58,94,1,,,,,,,,,,,,,,,,,,,,,,,,
,,,,,,,,,,,,l,0.416675,Incorrect,,,,,,t1.png,t1.png,0,0.978,25,Male,2020-07-31_13h36.19.211,torte-2b,2020.1.3,Win32,60,12917,,,,,,,,,,,,,,,,,,,,,,,,,,,,,,,,,,,,,0,59,59,13,1,,,,,,,,,,,,,,,,,,,,,,,,
,,,,,,,,,,,,a,0.35289,Incorrect,,,,,,t4.png,t3.png,1,0.909,25,Male,2020-07-31_13h36.19.211,torte-2b,2020.1.3,Win32,60,12917,,,,,,,,,,,,,,,,,,,,,,,,,,,,,,,,,,,,,0,60,60,107,1,,,,,,,,,,,,,,,,,,,,,,,,
,,,,,,,,,,,,l,0.418635,Correct!,,,,,,t1.png,t3.png,2,0.0565,25,Male,2020-07-31_13h36.19.211,torte-2b,2020.1.3,Win32,60,12917,,,,,,,,,,,,,,,,,,,,,,,,,,,,,,,,,,,,,0,61,61,95,1,,,,,,,,,,,,,,,,,,,,,,,,
,,,,,,,,,,,,l,0.384645,Correct!,,,,,,t1.png,t5.png,4,9.55E-11,25,Male,2020-07-31_13h36.19.211,torte-2b,2020.1.3,Win32,60,12917,,,,,,,,,,,,,,,,,,,,,,,,,,,,,,,,,,,,,0,62,62,20,1,,,,,,,,,,,,,,,,,,,,,,,,
,,,,,,,,,,,,a,0.41745,Correct!,,,,,,t3.png,t2.png,1,0.90855,25,Male,2020-07-31_13h36.19.211,torte-2b,2020.1.3,Win32,60,12917,,,,,,,,,,,,,,,,,,,,,,,,,,,,,,,,,,,,,0,63,63,10,1,,,,,,,,,,,,,,,,,,,,,,,,
,,,,,,,,,,,,l,0.44422,Incorrect,,,,,,t5.png,t5.png,0,0.97829,25,Male,2020-07-31_13h36.19.211,torte-2b,2020.1.3,Win32,60,12917,,,,,,,,,,,,,,,,,,,,,,,,,,,,,,,,,,,,,0,64,64,77,1,,,,,,,,,,,,,,,,,,,,,,,,
,,,,,,,,,,,,a,0.36543,Incorrect,,,,,,t3.png,t1.png,2,0.056466,25,Male,2020-07-31_13h36.19.211,torte-2b,2020.1.3,Win32,60,12917,,,,,,,,,,,,,,,,,,,,,,,,,,,,,,,,,,,,,0,65,65,34,1,,,,,,,,,,,,,,,,,,,,,,,,
,,,,,,,,,,,,a,0.4125,Correct!,,,,,,t4.png,t4.png,0,0.98115,25,Male,2020-07-31_13h36.19.211,torte-2b,2020.1.3,Win32,60,12917,,,,,,,,,,,,,,,,,,,,,,,,,,,,,,,,,,,,,0,66,66,88,1,,,,,,,,,,,,,,,,,,,,,,,,
,,,,,,,,,,,,l,0.39413,Correct!,,,,,,t1.png,t5.png,4,9.55E-11,25,Male,2020-07-31_13h36.19.211,torte-2b,2020.1.3,Win32,60,12917,,,,,,,,,,,,,,,,,,,,,,,,,,,,,,,,,,,,,0,67,67,3,1,,,,,,,,,,,,,,,,,,,,,,,,
,,,,,,,,,,,,l,0.41112,Correct!,,,,,,t1.png,t4.png,3,0.0000131,25,Male,2020-07-31_13h36.19.211,torte-2b,2020.1.3,Win32,60,12917,,,,,,,,,,,,,,,,,,,,,,,,,,,,,,,,,,,,,0,68,68,106,1,,,,,,,,,,,,,,,,,,,,,,,,
,,,,,,,,,,,,a,0.7687,Correct!,,,,,,t5.png,t4.png,1,0.90025,25,Male,2020-07-31_13h36.19.211,torte-2b,2020.1.3,Win32,60,12917,,,,,,,,,,,,,,,,,,,,,,,,,,,,,,,,,,,,,0,69,69,14,1,,,,,,,,,,,,,,,,,,,,,,,,
,,,,,,,,,,,,l,0.549525,Correct!,,,,,,t2.png,t5.png,3,0.0000131,25,Male,2020-07-31_13h36.19.211,torte-2b,2020.1.3,Win32,60,12917,,,,,,,,,,,,,,,,,,,,,,,,,,,,,,,,,,,,,0,70,70,39,1,,,,,,,,,,,,,,,,,,,,,,,,
,,,,,,,,,,,,a,0.391905,Incorrect,,,,,,t5.png,t3.png,2,0.056466,25,Male,2020-07-31_13h36.19.211,torte-2b,2020.1.3,Win32,60,12917,,,,,,,,,,,,,,,,,,,,,,,,,,,,,,,,,,,,,0,71,71,80,1,,,,,,,,,,,,,,,,,,,,,,,,
,,,,,,,,,,,,l,0.55656,Incorrect,,,,,,t1.png,t1.png,0,0.978,25,Male,2020-07-31_13h36.19.211,torte-2b,2020.1.3,Win32,60,12917,,,,,,,,,,,,,,,,,,,,,,,,,,,,,,,,,,,,,0,72,72,22,1,,,,,,,,,,,,,,,,,,,,,,,,
,,,,,,,,,,,,l,0.35724,Incorrect,,,,,,t2.png,t2.png,0,0.98115,25,Male,2020-07-31_13h36.19.211,torte-2b,2020.1.3,Win32,60,12917,,,,,,,,,,,,,,,,,,,,,,,,,,,,,,,,,,,,,0,73,73,7,1,,,,,,,,,,,,,,,,,,,,,,,,
,,,,,,,,,,,,a,0.384375,Incorrect,,,,,,t5.png,t2.png,3,0.0000131,25,Male,2020-07-31_13h36.19.211,torte-2b,2020.1.3,Win32,60,12917,,,,,,,,,,,,,,,,,,,,,,,,,,,,,,,,,,,,,0,74,74,48,1,,,,,,,,,,,,,,,,,,,,,,,,
,,,,,,,,,,,,l,0.36962,Correct!,,,,,,t2.png,t5.png,3,0.0000131,25,Male,2020-07-31_13h36.19.211,torte-2b,2020.1.3,Win32,60,12917,,,,,,,,,,,,,,,,,,,,,,,,,,,,,,,,,,,,,0,75,75,85,1,,,,,,,,,,,,,,,,,,,,,,,,
,,,,,,,,,,,,l,0.370795,Correct!,,,,,,t1.png,t3.png,2,0.056466,25,Male,2020-07-31_13h36.19.211,torte-2b,2020.1.3,Win32,60,12917,,,,,,,,,,,,,,,,,,,,,,,,,,,,,,,,,,,,,0,76,76,32,1,,,,,,,,,,,,,,,,,,,,,,,,
,,,,,,,,,,,,a,0.3545,Correct!,,,,,,t4.png,t4.png,0,0.98115,25,Male,2020-07-31_13h36.19.211,torte-2b,2020.1.3,Win32,60,12917,,,,,,,,,,,,,,,,,,,,,,,,,,,,,,,,,,,,,0,77,77,19,1,,,,,,,,,,,,,,,,,,,,,,,,
,,,,,,,,,,,,l,0.47633,Incorrect,,,,,,t4.png,t5.png,1,0.90025,25,Male,2020-07-31_13h36.19.211,torte-2b,2020.1.3,Win32,60,12917,,,,,,,,,,,,,,,,,,,,,,,,,,,,,,,,,,,,,0,78,78,33,1,,,,,,,,,,,,,,,,,,,,,,,,
,,,,,,,,,,,,a,0.422105,Incorrect,,,,,,t3.png,t1.png,2,0.0565,25,Male,2020-07-31_13h36.19.211,torte-2b,2020.1.3,Win32,60,12917,,,,,,,,,,,,,,,,,,,,,,,,,,,,,,,,,,,,,0,79,79,104,1,,,,,,,,,,,,,,,,,,,,,,,,
,,,,,,,,,,,,l,0.421345,Correct!,,,,,,t3.png,t5.png,2,0.056466,25,Male,2020-07-31_13h36.19.211,torte-2b,2020.1.3,Win32,60,12917,,,,,,,,,,,,,,,,,,,,,,,,,,,,,,,,,,,,,0,80,80,78,1,,,,,,,,,,,,,,,,,,,,,,,,
,,,,,,,,,,,,a,0.552075,Incorrect,,,,,,t5.png,t3.png,2,0.056466,25,Male,2020-07-31_13h36.19.211,torte-2b,2020.1.3,Win32,60,12917,,,,,,,,,,,,,,,,,,,,,,,,,,,,,,,,,,,,,0,81,81,27,1,,,,,,,,,,,,,,,,,,,,,,,,
,,,,,,,,,,,,a,0.345195,Incorrect,,,,,,t5.png,t3.png,2,0.0565,25,Male,2020-07-31_13h36.19.211,torte-2b,2020.1.3,Win32,60,12917,,,,,,,,,,,,,,,,,,,,,,,,,,,,,,,,,,,,,0,82,82,50,1,,,,,,,,,,,,,,,,,,,,,,,,
,,,,,,,,,,,,a,0.33775,Correct!,,,,,,t4.png,t3.png,1,0.909,25,Male,2020-07-31_13h36.19.211,torte-2b,2020.1.3,Win32,60,12917,,,,,,,,,,,,,,,,,,,,,,,,,,,,,,,,,,,,,0,83,83,119,1,,,,,,,,,,,,,,,,,,,,,,,,
,,,,,,,,,,,,l,0.38713,Incorrect,,,,,,t2.png,t3.png,1,0.909,25,Male,2020-07-31_13h36.19.211,torte-2b,2020.1.3,Win32,60,12917,,,,,,,,,,,,,,,,,,,,,,,,,,,,,,,,,,,,,0,84,84,8,1,,,,,,,,,,,,,,,,,,,,,,,,
,,,,,,,,,,,,a,0.316205,Incorrect,,,,,,t4.png,t1.png,3,0.0000131,25,Male,2020-07-31_13h36.19.211,torte-2b,2020.1.3,Win32,60,12917,,,,,,,,,,,,,,,,,,,,,,,,,,,,,,,,,,,,,0,85,85,49,1,,,,,,,,,,,,,,,,,,,,,,,,
,,,,,,,,,,,,a,0.332885,Incorrect,,,,,,t4.png,t1.png,3,0.059078,25,Male,2020-07-31_13h36.19.211,torte-2b,2020.1.3,Win32,60,12917,,,,,,,,,,,,,,,,,,,,,,,,,,,,,,,,,,,,,0,86,86,75,1,,,,,,,,,,,,,,,,,,,,,,,,
,,,,,,,,,,,,a,0.308915,Incorrect,,,,,,t4.png,t1.png,3,0.0000131,25,Male,2020-07-31_13h36.19.211,torte-2b,2020.1.3,Win32,60,12917,,,,,,,,,,,,,,,,,,,,,,,,,,,,,,,,,,,,,0,87,87,102,1,,,,,,,,,,,,,,,,,,,,,,,,
,,,,,,,,,,,,l,0.46807,Incorrect,,,,,,t3.png,t4.png,1,0.90855,25,Male,2020-07-31_13h36.19.211,torte-2b,2020.1.3,Win32,60,12917,,,,,,,,,,,,,,,,,,,,,,,,,,,,,,,,,,,,,0,88,88,103,1,,,,,,,,,,,,,,,,,,,,,,,,
,,,,,,,,,,,,l,0.38341,Incorrect,,,,,,t4.png,t5.png,1,0.90025,25,Male,2020-07-31_13h36.19.211,torte-2b,2020.1.3,Win32,60,12917,,,,,,,,,,,,,,,,,,,,,,,,,,,,,,,,,,,,,0,89,89,86,1,,,,,,,,,,,,,,,,,,,,,,,,
,,,,,,,,,,,,l,0.35218,Correct!,,,,,,t2.png,t4.png,2,0.059078,25,Male,2020-07-31_13h36.19.211,torte-2b,2020.1.3,Win32,60,12917,,,,,,,,,,,,,,,,,,,,,,,,,,,,,,,,,,,,,0,90,90,18,1,,,,,,,,,,,,,,,,,,,,,,,,
,,,,,,,,,,,,l,0.342885,Correct!,,,,,,t1.png,t4.png,3,0.0000131,25,Male,2020-07-31_13h36.19.211,torte-2b,2020.1.3,Win32,60,12917,,,,,,,,,,,,,,,,,,,,,,,,,,,,,,,,,,,,,0,91,91,16,1,,,,,,,,,,,,,,,,,,,,,,,,
,,,,,,,,,,,,a,0.44472,Incorrect,,,,,,t4.png,t1.png,3,0.059078,25,Male,2020-07-31_13h36.19.211,torte-2b,2020.1.3,Win32,60,12917,,,,,,,,,,,,,,,,,,,,,,,,,,,,,,,,,,,,,0,92,92,73,1,,,,,,,,,,,,,,,,,,,,,,,,
,,,,,,,,,,,,a,0.390775,Correct!,,,,,,t5.png,t5.png,0,0.978,25,Male,2020-07-31_13h36.19.211,torte-2b,2020.1.3,Win32,60,12917,,,,,,,,,,,,,,,,,,,,,,,,,,,,,,,,,,,,,0,93,93,51,1,,,,,,,,,,,,,,,,,,,,,,,,
,,,,,,,,,,,,l,0.41065,Incorrect,,,,,,t3.png,t4.png,1,0.90855,25,Male,2020-07-31_13h36.19.211,torte-2b,2020.1.3,Win32,60,12917,,,,,,,,,,,,,,,,,,,,,,,,,,,,,,,,,,,,,0,94,94,58,1,,,,,,,,,,,,,,,,,,,,,,,,
,,,,,,,,,,,,a,0.556355,Correct!,,,,,,t2.png,t1.png,1,0.9,25,Male,2020-07-31_13h36.19.211,torte-2b,2020.1.3,Win32,60,12917,,,,,,,,,,,,,,,,,,,,,,,,,,,,,,,,,,,,,0,95,95,100,1,,,,,,,,,,,,,,,,,,,,,,,,
,,,,,,,,,,,,a,0.37983,Correct!,,,,,,t3.png,t2.png,1,0.90855,25,Male,2020-07-31_13h36.19.211,torte-2b,2020.1.3,Win32,60,12917,,,,,,,,,,,,,,,,,,,,,,,,,,,,,,,,,,,,,0,96,96,99,1,,,,,,,,,,,,,,,,,,,,,,,,
,,,,,,,,,,,,a,0.345385,Incorrect,,,,,,t5.png,t1.png,4,9.55E-11,25,Male,2020-07-31_13h36.19.211,torte-2b,2020.1.3,Win32,60,12917,,,,,,,,,,,,,,,,,,,,,,,,,,,,,,,,,,,,,0,97,97,117,1,,,,,,,,,,,,,,,,,,,,,,,,
,,,,,,,,,,,,a,0.405735,Incorrect,,,,,,t4.png,t1.png,3,0.059078,25,Male,2020-07-31_13h36.19.211,torte-2b,2020.1.3,Win32,60,12917,,,,,,,,,,,,,,,,,,,,,,,,,,,,,,,,,,,,,0,98,98,87,1,,,,,,,,,,,,,,,,,,,,,,,,
,,,,,,,,,,,,a,0.401865,Correct!,,,,,,t2.png,t1.png,1,0.90025,25,Male,2020-07-31_13h36.19.211,torte-2b,2020.1.3,Win32,60,12917,,,,,,,,,,,,,,,,,,,,,,,,,,,,,,,,,,,,,0,99,99,65,1,,,,,,,,,,,,,,,,,,,,,,,,
,,,,,,,,,,,,a,0.346925,Incorrect,,,,,,t5.png,t1.png,4,9.55E-11,25,Male,2020-07-31_13h36.19.211,torte-2b,2020.1.3,Win32,60,12917,,,,,,,,,,,,,,,,,,,,,,,,,,,,,,,,,,,,,0,100,100,31,1,,,,,,,,,,,,,,,,,,,,,,,,
,,,,,,,,,,,,a,0.31797,Incorrect,,,,,,t4.png,t1.png,3,0.0000131,25,Male,2020-07-31_13h36.19.211,torte-2b,2020.1.3,Win32,60,12917,,,,,,,,,,,,,,,,,,,,,,,,,,,,,,,,,,,,,0,101,101,76,1,,,,,,,,,,,,,,,,,,,,,,,,
,,,,,,,,,,,,l,0.60877,Correct!,,,,,,t2.png,t5.png,3,0.0000131,25,Male,2020-07-31_13h36.19.211,torte-2b,2020.1.3,Win32,60,12917,,,,,,,,,,,,,,,,,,,,,,,,,,,,,,,,,,,,,0,102,102,54,1,,,,,,,,,,,,,,,,,,,,,,,,
,,,,,,,,,,,,l,0.42865,Incorrect,,,,,,t1.png,t2.png,1,0.9,25,Male,2020-07-31_13h36.19.211,torte-2b,2020.1.3,Win32,60,12917,,,,,,,,,,,,,,,,,,,,,,,,,,,,,,,,,,,,,0,103,103,17,1,,,,,,,,,,,,,,,,,,,,,,,,
,,,,,,,,,,,,l,0.462325,Correct!,,,,,,t1.png,t3.png,2,0.0565,25,Male,2020-07-31_13h36.19.211,torte-2b,2020.1.3,Win32,60,12917,,,,,,,,,,,,,,,,,,,,,,,,,,,,,,,,,,,,,0,104,104,12,1,,,,,,,,,,,,,,,,,,,,,,,,
,,,,,,,,,,,,a,0.58343,Correct!,,,,,,t5.png,t5.png,0,0.97829,25,Male,2020-07-31_13h36.19.211,torte-2b,2020.1.3,Win32,60,12917,,,,,,,,,,,,,,,,,,,,,,,,,,,,,,,,,,,,,0,105,105,2,1,,,,,,,,,,,,,,,,,,,,,,,,
,,,,,,,,,,,,l,0.517475,Incorrect,,,,,,t1.png,t2.png,1,0.90025,25,Male,2020-07-31_13h36.19.211,torte-2b,2020.1.3,Win32,60,12917,,,,,,,,,,,,,,,,,,,,,,,,,,,,,,,,,,,,,0,106,106,96,1,,,,,,,,,,,,,,,,,,,,,,,,
,,,,,,,,,,,,a,0.35354,Incorrect,,,,,,t5.png,t3.png,2,0.056466,25,Male,2020-07-31_13h36.19.211,torte-2b,2020.1.3,Win32,60,12917,,,,,,,,,,,,,,,,,,,,,,,,,,,,,,,,,,,,,0,107,107,37,1,,,,,,,,,,,,,,,,,,,,,,,,
,,,,,,,,,,,,a,0.430125,Correct!,,,,,,t3.png,t4.png,1,0.90855,25,Male,2020-07-31_13h36.19.211,torte-2b,2020.1.3,Win32,60,12917,,,,,,,,,,,,,,,,,,,,,,,,,,,,,,,,,,,,,0,108,108,111,1,,,,,,,,,,,,,,,,,,,,,,,,
,,,,,,,,,,,,l,0.532345,Incorrect,,,,,,t2.png,t2.png,0,0.98115,25,Male,2020-07-31_13h36.19.211,torte-2b,2020.1.3,Win32,60,12917,,,,,,,,,,,,,,,,,,,,,,,,,,,,,,,,,,,,,0,109,109,69,1,,,,,,,,,,,,,,,,,,,,,,,,
,,,,,,,,,,,,a,0.360275,Correct!,,,,,,t4.png,t4.png,0,0.98115,25,Male,2020-07-31_13h36.19.211,torte-2b,2020.1.3,Win32,60,12917,,,,,,,,,,,,,,,,,,,,,,,,,,,,,,,,,,,,,0,110,110,68,1,,,,,,,,,,,,,,,,,,,,,,,,
,,,,,,,,,,,,l,0.3566,Correct!,,,,,,t1.png,t4.png,3,0.0000131,25,Male,2020-07-31_13h36.19.211,torte-2b,2020.1.3,Win32,60,12917,,,,,,,,,,,,,,,,,,,,,,,,,,,,,,,,,,,,,0,111,111,23,1,,,,,,,,,,,,,,,,,,,,,,,,
,,,,,,,,,,,,a,0.379145,Incorrect,,,,,,t5.png,t4.png,1,0.9,25,Male,2020-07-31_13h36.19.211,torte-2b,2020.1.3,Win32,60,12917,,,,,,,,,,,,,,,,,,,,,,,,,,,,,,,,,,,,,0,112,112,92,1,,,,,,,,,,,,,,,,,,,,,,,,
,,,,,,,,,,,,a,0.37109,Incorrect,,,,,,t5.png,t2.png,3,0.0000131,25,Male,2020-07-31_13h36.19.211,torte-2b,2020.1.3,Win32,60,12917,,,,,,,,,,,,,,,,,,,,,,,,,,,,,,,,,,,,,0,113,113,43,1,,,,,,,,,,,,,,,,,,,,,,,,
,,,,,,,,,,,,l,0.44907,Correct!,,,,,,t3.png,t5.png,2,0.056466,25,Male,2020-07-31_13h36.19.211,torte-2b,2020.1.3,Win32,60,12917,,,,,,,,,,,,,,,,,,,,,,,,,,,,,,,,,,,,,0,114,114,60,1,,,,,,,,,,,,,,,,,,,,,,,,
,,,,,,,,,,,,a,0.683675,Correct!,,,,,,t4.png,t3.png,1,0.90855,25,Male,2020-07-31_13h36.19.211,torte-2b,2020.1.3,Win32,60,12917,,,,,,,,,,,,,,,,,,,,,,,,,,,,,,,,,,,,,0,115,115,56,1,,,,,,,,,,,,,,,,,,,,,,,,
,,,,,,,,,,,,a,0.45653,Correct!,,,,,,t4.png,t3.png,1,0.90855,25,Male,2020-07-31_13h36.19.211,torte-2b,2020.1.3,Win32,60,12917,,,,,,,,,,,,,,,,,,,,,,,,,,,,,,,,,,,,,0,116,116,11,1,,,,,,,,,,,,,,,,,,,,,,,,
,,,,,,,,,,,,a,0.35724,Correct!,,,,,,t5.png,t5.png,0,0.97829,25,Male,2020-07-31_13h36.19.211,torte-2b,2020.1.3,Win32,60,12917,,,,,,,,,,,,,,,,,,,,,,,,,,,,,,,,,,,,,0,117,117,35,1,,,,,,,,,,,,,,,,,,,,,,,,
,,,,,,,,,,,,a,0.50846,Correct!,,,,,,t5.png,t5.png,0,0.978,25,Male,2020-07-31_13h36.19.211,torte-2b,2020.1.3,Win32,60,12917,,,,,,,,,,,,,,,,,,,,,,,,,,,,,,,,,,,,,0,118,118,116,1,,,,,,,,,,,,,,,,,,,,,,,,
,,,,,,,,,,,,a,0.544885,Correct!,,,,,,t3.png,t2.png,1,0.90855,25,Male,2020-07-31_13h36.19.211,torte-2b,2020.1.3,Win32,60,12917,,,,,,,,,,,,,,,,,,,,,,,,,,,,,,,,,,,,,0,119,119,108,1,,,,,,,,,,,,,,,,,,,,,,,,
,,,,,,,,,,,,,,,,,,,,,,,,25,Male,2020-07-31_13h36.19.211,torte-2b,2020.1.3,Win32,60,12917,space,1.510265,,,,,,,,,,,,,,,,,,,,,,,,,,,,,,,,,,,,,,,,15.20001167,182.3999963,1,0,0,s1,72.80001253,20.79999387,1,0,0,t2,212.0000146,-103.200008,1,0,0,proceed,space,0.69276,space,0.37796,space,1.15008
