key_resp_8.keys,key_resp_8.rt,key_resp_9.keys,key_resp_9.rt,key_resp_10.keys,key_resp_10.rt,key_resp_11.keys,key_resp_11.rt,key_resp_2.keys,key_resp_2.rt,key_resp_3.keys,key_resp_3.rt,key_resp.keys,key_resp.rt,Feedback,train.thisRepN,train.thisTrialN,train.thisN,train.thisIndex,train.ran,torta_sx,torta_dx,difference,probability,age,gender,date,expName,psychopyVersion,OS,frameRate,participant,key_resp_15.keys,key_resp_15.rt,key_resp_6.keys,key_resp_6.rt,test1.thisRepN,test1.thisTrialN,test1.thisN,test1.thisIndex,test1.ran,key_resp_4.keys,key_resp_4.rt,key_resp_5.keys,key_resp_5.rt,back1.thisRepN,back1.thisTrialN,back1.thisN,back1.thisIndex,back1.ran,letter,back2.thisRepN,back2.thisTrialN,back2.thisN,back2.thisIndex,back2.ran,back3.thisRepN,back3.thisTrialN,back3.thisN,back3.thisIndex,back3.ran,back4.thisRepN,back4.thisTrialN,back4.thisN,back4.thisIndex,back4.ran,key_resp_7.keys,key_resp_7.rt,test2.thisRepN,test2.thisTrialN,test2.thisN,test2.thisIndex,test2.ran,mouse.x,mouse.y,mouse.leftButton,mouse.midButton,mouse.rightButton,mouse.clicked_name,mouse_2.x,mouse_2.y,mouse_2.leftButton,mouse_2.midButton,mouse_2.rightButton,mouse_2.clicked_name,mouse_3.x,mouse_3.y,mouse_3.leftButton,mouse_3.midButton,mouse_3.rightButton,mouse_3.clicked_name,key_resp_12.keys,key_resp_12.rt,key_resp_13.keys,key_resp_13.rt,key_resp_14.keys,key_resp_14.rt
space,1.338555,space,0.182975,space,0.167255,space,0.08467,space,1.317135,space,10.650325,l,0.808365,Incorrect,0,0,0,92,1,t2.png,t3.png,1,0.909,20,female,2020-09-28_13h26.56.040,torte-2b,2020.1.3,MacIntel,60,12941,,,,,,,,,,,,,,,,,,,,,,,,,,,,,,,,,,,,,,,,,,,,,,,,,,,,,,,,,,,,,,,,,
,,,,,,,,,,,,a,1.18488,Correct!,0,1,1,110,1,t4.png,t5.png,1,0.90025,20,female,2020-09-28_13h26.56.040,torte-2b,2020.1.3,MacIntel,60,12941,,,,,,,,,,,,,,,,,,,,,,,,,,,,,,,,,,,,,,,,,,,,,,,,,,,,,,,,,,,,,,,,,
,,,,,,,,,,,,a,1.61681,Correct!,0,2,2,39,1,t3.png,t2.png,1,0.90855,20,female,2020-09-28_13h26.56.040,torte-2b,2020.1.3,MacIntel,60,12941,,,,,,,,,,,,,,,,,,,,,,,,,,,,,,,,,,,,,,,,,,,,,,,,,,,,,,,,,,,,,,,,,
,,,,,,,,,,,,a,1.33459,Incorrect,0,3,3,111,1,t5.png,t1.png,4,9.55E-11,20,female,2020-09-28_13h26.56.040,torte-2b,2020.1.3,MacIntel,60,12941,,,,,,,,,,,,,,,,,,,,,,,,,,,,,,,,,,,,,,,,,,,,,,,,,,,,,,,,,,,,,,,,,
,,,,,,,,,,,,l,2.418065,Correct!,0,4,4,88,1,t3.png,t1.png,2,0.056466,20,female,2020-09-28_13h26.56.040,torte-2b,2020.1.3,MacIntel,60,12941,,,,,,,,,,,,,,,,,,,,,,,,,,,,,,,,,,,,,,,,,,,,,,,,,,,,,,,,,,,,,,,,,
,,,,,,,,,,,,a,1.2671,Incorrect,0,5,5,109,1,t5.png,t5.png,0,0.97829,20,female,2020-09-28_13h26.56.040,torte-2b,2020.1.3,MacIntel,60,12941,,,,,,,,,,,,,,,,,,,,,,,,,,,,,,,,,,,,,,,,,,,,,,,,,,,,,,,,,,,,,,,,,
,,,,,,,,,,,,l,1.11828,Incorrect,0,6,6,29,1,t5.png,t5.png,0,0.97829,20,female,2020-09-28_13h26.56.040,torte-2b,2020.1.3,MacIntel,60,12941,,,,,,,,,,,,,,,,,,,,,,,,,,,,,,,,,,,,,,,,,,,,,,,,,,,,,,,,,,,,,,,,,
,,,,,,,,,,,,a,1.434025,Incorrect,0,7,7,108,1,t5.png,t1.png,4,9.55E-11,20,female,2020-09-28_13h26.56.040,torte-2b,2020.1.3,MacIntel,60,12941,,,,,,,,,,,,,,,,,,,,,,,,,,,,,,,,,,,,,,,,,,,,,,,,,,,,,,,,,,,,,,,,,
,,,,,,,,,,,,l,1.20075,Incorrect,0,8,8,103,1,t3.png,t1.png,2,0.056466,20,female,2020-09-28_13h26.56.040,torte-2b,2020.1.3,MacIntel,60,12941,,,,,,,,,,,,,,,,,,,,,,,,,,,,,,,,,,,,,,,,,,,,,,,,,,,,,,,,,,,,,,,,,
,,,,,,,,,,,,,,Too slow :(,0,9,9,99,1,t1.png,t5.png,4,9.55E-11,20,female,2020-09-28_13h26.56.040,torte-2b,2020.1.3,MacIntel,60,12941,,,,,,,,,,,,,,,,,,,,,,,,,,,,,,,,,,,,,,,,,,,,,,,,,,,,,,,,,,,,,,,,,
,,,,,,,,,,,,,,Too slow :(,0,10,10,16,1,t5.png,t4.png,1,0.9,20,female,2020-09-28_13h26.56.040,torte-2b,2020.1.3,MacIntel,60,12941,,,,,,,,,,,,,,,,,,,,,,,,,,,,,,,,,,,,,,,,,,,,,,,,,,,,,,,,,,,,,,,,,
,,,,,,,,,,,,l,1.000915,Correct!,0,11,11,52,1,t2.png,t4.png,2,0.059078,20,female,2020-09-28_13h26.56.040,torte-2b,2020.1.3,MacIntel,60,12941,,,,,,,,,,,,,,,,,,,,,,,,,,,,,,,,,,,,,,,,,,,,,,,,,,,,,,,,,,,,,,,,,
,,,,,,,,,,,,a,2.3186,Correct!,0,12,12,24,1,t4.png,t2.png,2,0.059078,20,female,2020-09-28_13h26.56.040,torte-2b,2020.1.3,MacIntel,60,12941,,,,,,,,,,,,,,,,,,,,,,,,,,,,,,,,,,,,,,,,,,,,,,,,,,,,,,,,,,,,,,,,,
,,,,,,,,,,,,a,1.000825,Incorrect,0,13,13,26,1,t4.png,t2.png,2,0.0591,20,female,2020-09-28_13h26.56.040,torte-2b,2020.1.3,MacIntel,60,12941,,,,,,,,,,,,,,,,,,,,,,,,,,,,,,,,,,,,,,,,,,,,,,,,,,,,,,,,,,,,,,,,,
,,,,,,,,,,,,l,0.900875,Incorrect,0,14,14,75,1,t1.png,t1.png,0,0.97829,20,female,2020-09-28_13h26.56.040,torte-2b,2020.1.3,MacIntel,60,12941,,,,,,,,,,,,,,,,,,,,,,,,,,,,,,,,,,,,,,,,,,,,,,,,,,,,,,,,,,,,,,,,,
,,,,,,,,,,,,l,1.66726,Correct!,0,15,15,60,1,t2.png,t4.png,2,0.059078,20,female,2020-09-28_13h26.56.040,torte-2b,2020.1.3,MacIntel,60,12941,,,,,,,,,,,,,,,,,,,,,,,,,,,,,,,,,,,,,,,,,,,,,,,,,,,,,,,,,,,,,,,,,
,,,,,,,,,,,,l,0.98376,Incorrect,0,16,16,65,1,t4.png,t5.png,1,0.90025,20,female,2020-09-28_13h26.56.040,torte-2b,2020.1.3,MacIntel,60,12941,,,,,,,,,,,,,,,,,,,,,,,,,,,,,,,,,,,,,,,,,,,,,,,,,,,,,,,,,,,,,,,,,
,,,,,,,,,,,,a,0.166835,Incorrect,0,17,17,27,1,t3.png,t1.png,2,0.0565,20,female,2020-09-28_13h26.56.040,torte-2b,2020.1.3,MacIntel,60,12941,,,,,,,,,,,,,,,,,,,,,,,,,,,,,,,,,,,,,,,,,,,,,,,,,,,,,,,,,,,,,,,,,
,,,,,,,,,,,,l,0.867385,Incorrect,0,18,18,95,1,t1.png,t1.png,0,0.978,20,female,2020-09-28_13h26.56.040,torte-2b,2020.1.3,MacIntel,60,12941,,,,,,,,,,,,,,,,,,,,,,,,,,,,,,,,,,,,,,,,,,,,,,,,,,,,,,,,,,,,,,,,,
,,,,,,,,,,,,l,1.667125,Correct!,0,19,19,1,1,t2.png,t4.png,2,0.059078,20,female,2020-09-28_13h26.56.040,torte-2b,2020.1.3,MacIntel,60,12941,,,,,,,,,,,,,,,,,,,,,,,,,,,,,,,,,,,,,,,,,,,,,,,,,,,,,,,,,,,,,,,,,
,,,,,,,,,,,,a,1.236255,Correct!,0,20,20,48,1,t5.png,t5.png,0,0.97829,20,female,2020-09-28_13h26.56.040,torte-2b,2020.1.3,MacIntel,60,12941,,,,,,,,,,,,,,,,,,,,,,,,,,,,,,,,,,,,,,,,,,,,,,,,,,,,,,,,,,,,,,,,,
,,,,,,,,,,,,a,0.968325,Correct!,0,21,21,25,1,t5.png,t5.png,0,0.97829,20,female,2020-09-28_13h26.56.040,torte-2b,2020.1.3,MacIntel,60,12941,,,,,,,,,,,,,,,,,,,,,,,,,,,,,,,,,,,,,,,,,,,,,,,,,,,,,,,,,,,,,,,,,
,,,,,,,,,,,,a,1.466125,Incorrect,0,22,22,82,1,t5.png,t1.png,4,9.55E-11,20,female,2020-09-28_13h26.56.040,torte-2b,2020.1.3,MacIntel,60,12941,,,,,,,,,,,,,,,,,,,,,,,,,,,,,,,,,,,,,,,,,,,,,,,,,,,,,,,,,,,,,,,,,
,,,,,,,,,,,,l,0.87286,Correct!,0,23,23,12,1,t5.png,t1.png,4,9.55E-11,20,female,2020-09-28_13h26.56.040,torte-2b,2020.1.3,MacIntel,60,12941,,,,,,,,,,,,,,,,,,,,,,,,,,,,,,,,,,,,,,,,,,,,,,,,,,,,,,,,,,,,,,,,,
,,,,,,,,,,,,l,1.63745,Incorrect,0,24,24,7,1,t4.png,t5.png,1,0.90025,20,female,2020-09-28_13h26.56.040,torte-2b,2020.1.3,MacIntel,60,12941,,,,,,,,,,,,,,,,,,,,,,,,,,,,,,,,,,,,,,,,,,,,,,,,,,,,,,,,,,,,,,,,,
,,,,,,,,,,,,l,1.133415,Correct!,0,25,25,6,1,t1.png,t4.png,3,0.0000131,20,female,2020-09-28_13h26.56.040,torte-2b,2020.1.3,MacIntel,60,12941,,,,,,,,,,,,,,,,,,,,,,,,,,,,,,,,,,,,,,,,,,,,,,,,,,,,,,,,,,,,,,,,,
,,,,,,,,,,,,a,1.100725,Correct!,0,26,26,45,1,t3.png,t2.png,1,0.90855,20,female,2020-09-28_13h26.56.040,torte-2b,2020.1.3,MacIntel,60,12941,,,,,,,,,,,,,,,,,,,,,,,,,,,,,,,,,,,,,,,,,,,,,,,,,,,,,,,,,,,,,,,,,
,,,,,,,,,,,,l,1.7168,Correct!,0,27,27,31,1,t1.png,t5.png,4,9.55E-11,20,female,2020-09-28_13h26.56.040,torte-2b,2020.1.3,MacIntel,60,12941,,,,,,,,,,,,,,,,,,,,,,,,,,,,,,,,,,,,,,,,,,,,,,,,,,,,,,,,,,,,,,,,,
,,,,,,,,,,,,,,Too slow :(,0,28,28,104,1,t2.png,t3.png,1,0.90855,20,female,2020-09-28_13h26.56.040,torte-2b,2020.1.3,MacIntel,60,12941,,,,,,,,,,,,,,,,,,,,,,,,,,,,,,,,,,,,,,,,,,,,,,,,,,,,,,,,,,,,,,,,,
,,,,,,,,,,,,l,0.753725,Correct!,0,29,29,80,1,t1.png,t4.png,3,0.0000131,20,female,2020-09-28_13h26.56.040,torte-2b,2020.1.3,MacIntel,60,12941,,,,,,,,,,,,,,,,,,,,,,,,,,,,,,,,,,,,,,,,,,,,,,,,,,,,,,,,,,,,,,,,,
,,,,,,,,,,,,l,2.334555,Correct!,0,30,30,50,1,t5.png,t1.png,4,9.55E-11,20,female,2020-09-28_13h26.56.040,torte-2b,2020.1.3,MacIntel,60,12941,,,,,,,,,,,,,,,,,,,,,,,,,,,,,,,,,,,,,,,,,,,,,,,,,,,,,,,,,,,,,,,,,
,,,,,,,,,,,,a,2.03322,Correct!,0,31,31,105,1,t3.png,t2.png,1,0.90855,20,female,2020-09-28_13h26.56.040,torte-2b,2020.1.3,MacIntel,60,12941,,,,,,,,,,,,,,,,,,,,,,,,,,,,,,,,,,,,,,,,,,,,,,,,,,,,,,,,,,,,,,,,,
,,,,,,,,,,,,a,1.402935,Correct!,0,32,32,83,1,t3.png,t1.png,2,0.056466,20,female,2020-09-28_13h26.56.040,torte-2b,2020.1.3,MacIntel,60,12941,,,,,,,,,,,,,,,,,,,,,,,,,,,,,,,,,,,,,,,,,,,,,,,,,,,,,,,,,,,,,,,,,
,,,,,,,,,,,,a,1.116665,Correct!,0,33,33,41,1,t3.png,t2.png,1,0.90855,20,female,2020-09-28_13h26.56.040,torte-2b,2020.1.3,MacIntel,60,12941,,,,,,,,,,,,,,,,,,,,,,,,,,,,,,,,,,,,,,,,,,,,,,,,,,,,,,,,,,,,,,,,,
,,,,,,,,,,,,a,0.900745,Correct!,0,34,34,107,1,t1.png,t1.png,0,0.978,20,female,2020-09-28_13h26.56.040,torte-2b,2020.1.3,MacIntel,60,12941,,,,,,,,,,,,,,,,,,,,,,,,,,,,,,,,,,,,,,,,,,,,,,,,,,,,,,,,,,,,,,,,,
,,,,,,,,,,,,a,1.117065,Incorrect,0,35,35,36,1,t3.png,t1.png,2,0.0565,20,female,2020-09-28_13h26.56.040,torte-2b,2020.1.3,MacIntel,60,12941,,,,,,,,,,,,,,,,,,,,,,,,,,,,,,,,,,,,,,,,,,,,,,,,,,,,,,,,,,,,,,,,,
,,,,,,,,,,,,a,1.387825,Correct!,0,36,36,21,1,t5.png,t4.png,1,0.90025,20,female,2020-09-28_13h26.56.040,torte-2b,2020.1.3,MacIntel,60,12941,,,,,,,,,,,,,,,,,,,,,,,,,,,,,,,,,,,,,,,,,,,,,,,,,,,,,,,,,,,,,,,,,
,,,,,,,,,,,,l,1.86822,Incorrect,0,37,37,18,1,t4.png,t5.png,1,0.90025,20,female,2020-09-28_13h26.56.040,torte-2b,2020.1.3,MacIntel,60,12941,,,,,,,,,,,,,,,,,,,,,,,,,,,,,,,,,,,,,,,,,,,,,,,,,,,,,,,,,,,,,,,,,
,,,,,,,,,,,,,,Too slow :(,0,38,38,71,1,t5.png,t5.png,0,0.97829,20,female,2020-09-28_13h26.56.040,torte-2b,2020.1.3,MacIntel,60,12941,,,,,,,,,,,,,,,,,,,,,,,,,,,,,,,,,,,,,,,,,,,,,,,,,,,,,,,,,,,,,,,,,
,,,,,,,,,,,,l,1.353445,Incorrect,0,39,39,64,1,t1.png,t1.png,0,0.978,20,female,2020-09-28_13h26.56.040,torte-2b,2020.1.3,MacIntel,60,12941,,,,,,,,,,,,,,,,,,,,,,,,,,,,,,,,,,,,,,,,,,,,,,,,,,,,,,,,,,,,,,,,,
,,,,,,,,,,,,a,1.367055,Incorrect,0,40,40,28,1,t2.png,t3.png,1,0.909,20,female,2020-09-28_13h26.56.040,torte-2b,2020.1.3,MacIntel,60,12941,,,,,,,,,,,,,,,,,,,,,,,,,,,,,,,,,,,,,,,,,,,,,,,,,,,,,,,,,,,,,,,,,
,,,,,,,,,,,,,,Too slow :(,0,41,41,42,1,t5.png,t4.png,1,0.90025,20,female,2020-09-28_13h26.56.040,torte-2b,2020.1.3,MacIntel,60,12941,,,,,,,,,,,,,,,,,,,,,,,,,,,,,,,,,,,,,,,,,,,,,,,,,,,,,,,,,,,,,,,,,
,,,,,,,,,,,,,,Too slow :(,0,42,42,17,1,t1.png,t4.png,3,0.0000131,20,female,2020-09-28_13h26.56.040,torte-2b,2020.1.3,MacIntel,60,12941,,,,,,,,,,,,,,,,,,,,,,,,,,,,,,,,,,,,,,,,,,,,,,,,,,,,,,,,,,,,,,,,,
,,,,,,,,,,,,,,Too slow :(,0,43,43,56,1,t5.png,t1.png,4,9.55E-11,20,female,2020-09-28_13h26.56.040,torte-2b,2020.1.3,MacIntel,60,12941,,,,,,,,,,,,,,,,,,,,,,,,,,,,,,,,,,,,,,,,,,,,,,,,,,,,,,,,,,,,,,,,,
,,,,,,,,,,,,,,Too slow :(,0,44,44,58,1,t5.png,t4.png,1,0.90025,20,female,2020-09-28_13h26.56.040,torte-2b,2020.1.3,MacIntel,60,12941,,,,,,,,,,,,,,,,,,,,,,,,,,,,,,,,,,,,,,,,,,,,,,,,,,,,,,,,,,,,,,,,,
,,,,,,,,,,,,l,0.900675,Correct!,0,45,45,35,1,t1.png,t4.png,3,0.0000131,20,female,2020-09-28_13h26.56.040,torte-2b,2020.1.3,MacIntel,60,12941,,,,,,,,,,,,,,,,,,,,,,,,,,,,,,,,,,,,,,,,,,,,,,,,,,,,,,,,,,,,,,,,,
,,,,,,,,,,,,a,1.035135,Correct!,0,46,46,23,1,t5.png,t4.png,1,0.90025,20,female,2020-09-28_13h26.56.040,torte-2b,2020.1.3,MacIntel,60,12941,,,,,,,,,,,,,,,,,,,,,,,,,,,,,,,,,,,,,,,,,,,,,,,,,,,,,,,,,,,,,,,,,
,,,,,,,,,,,,a,0.834235,Incorrect,0,47,47,79,1,t3.png,t2.png,1,0.909,20,female,2020-09-28_13h26.56.040,torte-2b,2020.1.3,MacIntel,60,12941,,,,,,,,,,,,,,,,,,,,,,,,,,,,,,,,,,,,,,,,,,,,,,,,,,,,,,,,,,,,,,,,,
,,,,,,,,,,,,l,0.90152,Incorrect,0,48,48,66,1,t4.png,t5.png,1,0.9,20,female,2020-09-28_13h26.56.040,torte-2b,2020.1.3,MacIntel,60,12941,,,,,,,,,,,,,,,,,,,,,,,,,,,,,,,,,,,,,,,,,,,,,,,,,,,,,,,,,,,,,,,,,
,,,,,,,,,,,,,,Too slow :(,0,49,49,112,1,t1.png,t1.png,0,0.97829,20,female,2020-09-28_13h26.56.040,torte-2b,2020.1.3,MacIntel,60,12941,,,,,,,,,,,,,,,,,,,,,,,,,,,,,,,,,,,,,,,,,,,,,,,,,,,,,,,,,,,,,,,,,
,,,,,,,,,,,,,,Too slow :(,0,50,50,86,1,t3.png,t1.png,2,0.056466,20,female,2020-09-28_13h26.56.040,torte-2b,2020.1.3,MacIntel,60,12941,,,,,,,,,,,,,,,,,,,,,,,,,,,,,,,,,,,,,,,,,,,,,,,,,,,,,,,,,,,,,,,,,
,,,,,,,,,,,,,,Too slow :(,0,51,51,20,1,t2.png,t3.png,1,0.90855,20,female,2020-09-28_13h26.56.040,torte-2b,2020.1.3,MacIntel,60,12941,,,,,,,,,,,,,,,,,,,,,,,,,,,,,,,,,,,,,,,,,,,,,,,,,,,,,,,,,,,,,,,,,
,,,,,,,,,,,,,,Too slow :(,0,52,52,49,1,t4.png,t5.png,1,0.9,20,female,2020-09-28_13h26.56.040,torte-2b,2020.1.3,MacIntel,60,12941,,,,,,,,,,,,,,,,,,,,,,,,,,,,,,,,,,,,,,,,,,,,,,,,,,,,,,,,,,,,,,,,,
,,,,,,,,,,,,,,Too slow :(,0,53,53,59,1,t5.png,t4.png,1,0.9,20,female,2020-09-28_13h26.56.040,torte-2b,2020.1.3,MacIntel,60,12941,,,,,,,,,,,,,,,,,,,,,,,,,,,,,,,,,,,,,,,,,,,,,,,,,,,,,,,,,,,,,,,,,
,,,,,,,,,,,,,,Too slow :(,0,54,54,9,1,t4.png,t5.png,1,0.9,20,female,2020-09-28_13h26.56.040,torte-2b,2020.1.3,MacIntel,60,12941,,,,,,,,,,,,,,,,,,,,,,,,,,,,,,,,,,,,,,,,,,,,,,,,,,,,,,,,,,,,,,,,,
,,,,,,,,,,,,,,Too slow :(,0,55,55,116,1,t5.png,t4.png,1,0.90025,20,female,2020-09-28_13h26.56.040,torte-2b,2020.1.3,MacIntel,60,12941,,,,,,,,,,,,,,,,,,,,,,,,,,,,,,,,,,,,,,,,,,,,,,,,,,,,,,,,,,,,,,,,,
,,,,,,,,,,,,,,Too slow :(,0,56,56,2,1,t3.png,t2.png,1,0.90855,20,female,2020-09-28_13h26.56.040,torte-2b,2020.1.3,MacIntel,60,12941,,,,,,,,,,,,,,,,,,,,,,,,,,,,,,,,,,,,,,,,,,,,,,,,,,,,,,,,,,,,,,,,,
,,,,,,,,,,,,,,Too slow :(,0,57,57,10,1,t2.png,t3.png,1,0.90855,20,female,2020-09-28_13h26.56.040,torte-2b,2020.1.3,MacIntel,60,12941,,,,,,,,,,,,,,,,,,,,,,,,,,,,,,,,,,,,,,,,,,,,,,,,,,,,,,,,,,,,,,,,,
,,,,,,,,,,,,,,Too slow :(,0,58,58,46,1,t4.png,t2.png,2,0.059078,20,female,2020-09-28_13h26.56.040,torte-2b,2020.1.3,MacIntel,60,12941,,,,,,,,,,,,,,,,,,,,,,,,,,,,,,,,,,,,,,,,,,,,,,,,,,,,,,,,,,,,,,,,,
,,,,,,,,,,,,,,Too slow :(,0,59,59,117,1,t1.png,t5.png,4,9.55E-11,20,female,2020-09-28_13h26.56.040,torte-2b,2020.1.3,MacIntel,60,12941,,,,,,,,,,,,,,,,,,,,,,,,,,,,,,,,,,,,,,,,,,,,,,,,,,,,,,,,,,,,,,,,,
,,,,,,,,,,,,,,Too slow :(,0,60,60,3,1,t1.png,t5.png,4,9.55E-11,20,female,2020-09-28_13h26.56.040,torte-2b,2020.1.3,MacIntel,60,12941,,,,,,,,,,,,,,,,,,,,,,,,,,,,,,,,,,,,,,,,,,,,,,,,,,,,,,,,,,,,,,,,,
,,,,,,,,,,,,,,Too slow :(,0,61,61,87,1,t5.png,t1.png,4,9.55E-11,20,female,2020-09-28_13h26.56.040,torte-2b,2020.1.3,MacIntel,60,12941,,,,,,,,,,,,,,,,,,,,,,,,,,,,,,,,,,,,,,,,,,,,,,,,,,,,,,,,,,,,,,,,,
,,,,,,,,,,,,,,Too slow :(,0,62,62,72,1,t4.png,t2.png,2,0.059078,20,female,2020-09-28_13h26.56.040,torte-2b,2020.1.3,MacIntel,60,12941,,,,,,,,,,,,,,,,,,,,,,,,,,,,,,,,,,,,,,,,,,,,,,,,,,,,,,,,,,,,,,,,,
,,,,,,,,,,,,,,Too slow :(,0,63,63,5,1,t2.png,t4.png,2,0.059078,20,female,2020-09-28_13h26.56.040,torte-2b,2020.1.3,MacIntel,60,12941,,,,,,,,,,,,,,,,,,,,,,,,,,,,,,,,,,,,,,,,,,,,,,,,,,,,,,,,,,,,,,,,,
,,,,,,,,,,,,,,Too slow :(,0,64,64,4,1,t1.png,t5.png,4,9.55E-11,20,female,2020-09-28_13h26.56.040,torte-2b,2020.1.3,MacIntel,60,12941,,,,,,,,,,,,,,,,,,,,,,,,,,,,,,,,,,,,,,,,,,,,,,,,,,,,,,,,,,,,,,,,,
,,,,,,,,,,,,,,Too slow :(,0,65,65,93,1,t2.png,t4.png,2,0.059078,20,female,2020-09-28_13h26.56.040,torte-2b,2020.1.3,MacIntel,60,12941,,,,,,,,,,,,,,,,,,,,,,,,,,,,,,,,,,,,,,,,,,,,,,,,,,,,,,,,,,,,,,,,,
,,,,,,,,,,,,,,Too slow :(,0,66,66,78,1,t1.png,t1.png,0,0.978,20,female,2020-09-28_13h26.56.040,torte-2b,2020.1.3,MacIntel,60,12941,,,,,,,,,,,,,,,,,,,,,,,,,,,,,,,,,,,,,,,,,,,,,,,,,,,,,,,,,,,,,,,,,
,,,,,,,,,,,,,,Too slow :(,0,67,67,14,1,t2.png,t4.png,2,0.059078,20,female,2020-09-28_13h26.56.040,torte-2b,2020.1.3,MacIntel,60,12941,,,,,,,,,,,,,,,,,,,,,,,,,,,,,,,,,,,,,,,,,,,,,,,,,,,,,,,,,,,,,,,,,
,,,,,,,,,,,,,,Too slow :(,0,68,68,101,1,t4.png,t5.png,1,0.90025,20,female,2020-09-28_13h26.56.040,torte-2b,2020.1.3,MacIntel,60,12941,,,,,,,,,,,,,,,,,,,,,,,,,,,,,,,,,,,,,,,,,,,,,,,,,,,,,,,,,,,,,,,,,
,,,,,,,,,,,,,,Too slow :(,0,69,69,37,1,t1.png,t4.png,3,0.0000131,20,female,2020-09-28_13h26.56.040,torte-2b,2020.1.3,MacIntel,60,12941,,,,,,,,,,,,,,,,,,,,,,,,,,,,,,,,,,,,,,,,,,,,,,,,,,,,,,,,,,,,,,,,,
,,,,,,,,,,,,,,Too slow :(,0,70,70,32,1,t4.png,t5.png,1,0.90025,20,female,2020-09-28_13h26.56.040,torte-2b,2020.1.3,MacIntel,60,12941,,,,,,,,,,,,,,,,,,,,,,,,,,,,,,,,,,,,,,,,,,,,,,,,,,,,,,,,,,,,,,,,,
,,,,,,,,,,,,,,Too slow :(,0,71,71,51,1,t3.png,t1.png,2,0.056466,20,female,2020-09-28_13h26.56.040,torte-2b,2020.1.3,MacIntel,60,12941,,,,,,,,,,,,,,,,,,,,,,,,,,,,,,,,,,,,,,,,,,,,,,,,,,,,,,,,,,,,,,,,,
,,,,,,,,,,,,,,Too slow :(,0,72,72,89,1,t1.png,t4.png,3,0.0000131,20,female,2020-09-28_13h26.56.040,torte-2b,2020.1.3,MacIntel,60,12941,,,,,,,,,,,,,,,,,,,,,,,,,,,,,,,,,,,,,,,,,,,,,,,,,,,,,,,,,,,,,,,,,
,,,,,,,,,,,,,,Too slow :(,0,73,73,114,1,t2.png,t3.png,1,0.90855,20,female,2020-09-28_13h26.56.040,torte-2b,2020.1.3,MacIntel,60,12941,,,,,,,,,,,,,,,,,,,,,,,,,,,,,,,,,,,,,,,,,,,,,,,,,,,,,,,,,,,,,,,,,
,,,,,,,,,,,,,,Too slow :(,0,74,74,33,1,t5.png,t1.png,4,9.55E-11,20,female,2020-09-28_13h26.56.040,torte-2b,2020.1.3,MacIntel,60,12941,,,,,,,,,,,,,,,,,,,,,,,,,,,,,,,,,,,,,,,,,,,,,,,,,,,,,,,,,,,,,,,,,
,,,,,,,,,,,,,,Too slow :(,0,75,75,62,1,t5.png,t5.png,0,0.978,20,female,2020-09-28_13h26.56.040,torte-2b,2020.1.3,MacIntel,60,12941,,,,,,,,,,,,,,,,,,,,,,,,,,,,,,,,,,,,,,,,,,,,,,,,,,,,,,,,,,,,,,,,,
,,,,,,,,,,,,,,Too slow :(,0,76,76,54,1,t1.png,t5.png,4,9.55E-11,20,female,2020-09-28_13h26.56.040,torte-2b,2020.1.3,MacIntel,60,12941,,,,,,,,,,,,,,,,,,,,,,,,,,,,,,,,,,,,,,,,,,,,,,,,,,,,,,,,,,,,,,,,,
,,,,,,,,,,,,,,Too slow :(,0,77,77,57,1,t2.png,t4.png,2,0.059078,20,female,2020-09-28_13h26.56.040,torte-2b,2020.1.3,MacIntel,60,12941,,,,,,,,,,,,,,,,,,,,,,,,,,,,,,,,,,,,,,,,,,,,,,,,,,,,,,,,,,,,,,,,,
,,,,,,,,,,,,,,Too slow :(,0,78,78,40,1,t1.png,t5.png,4,9.55E-11,20,female,2020-09-28_13h26.56.040,torte-2b,2020.1.3,MacIntel,60,12941,,,,,,,,,,,,,,,,,,,,,,,,,,,,,,,,,,,,,,,,,,,,,,,,,,,,,,,,,,,,,,,,,
,,,,,,,,,,,,,,Too slow :(,0,79,79,61,1,t1.png,t4.png,3,0.0000131,20,female,2020-09-28_13h26.56.040,torte-2b,2020.1.3,MacIntel,60,12941,,,,,,,,,,,,,,,,,,,,,,,,,,,,,,,,,,,,,,,,,,,,,,,,,,,,,,,,,,,,,,,,,
,,,,,,,,,,,,,,Too slow :(,0,80,80,73,1,t4.png,t2.png,2,0.059078,20,female,2020-09-28_13h26.56.040,torte-2b,2020.1.3,MacIntel,60,12941,,,,,,,,,,,,,,,,,,,,,,,,,,,,,,,,,,,,,,,,,,,,,,,,,,,,,,,,,,,,,,,,,
,,,,,,,,,,,,,,Too slow :(,0,81,81,74,1,t5.png,t4.png,1,0.9,20,female,2020-09-28_13h26.56.040,torte-2b,2020.1.3,MacIntel,60,12941,,,,,,,,,,,,,,,,,,,,,,,,,,,,,,,,,,,,,,,,,,,,,,,,,,,,,,,,,,,,,,,,,
,,,,,,,,,,,,,,Too slow :(,0,82,82,76,1,t3.png,t2.png,1,0.90855,20,female,2020-09-28_13h26.56.040,torte-2b,2020.1.3,MacIntel,60,12941,,,,,,,,,,,,,,,,,,,,,,,,,,,,,,,,,,,,,,,,,,,,,,,,,,,,,,,,,,,,,,,,,
,,,,,,,,,,,,,,Too slow :(,0,83,83,34,1,t5.png,t4.png,1,0.9,20,female,2020-09-28_13h26.56.040,torte-2b,2020.1.3,MacIntel,60,12941,,,,,,,,,,,,,,,,,,,,,,,,,,,,,,,,,,,,,,,,,,,,,,,,,,,,,,,,,,,,,,,,,
,,,,,,,,,,,,,,Too slow :(,0,84,84,84,1,t1.png,t1.png,0,0.97829,20,female,2020-09-28_13h26.56.040,torte-2b,2020.1.3,MacIntel,60,12941,,,,,,,,,,,,,,,,,,,,,,,,,,,,,,,,,,,,,,,,,,,,,,,,,,,,,,,,,,,,,,,,,
,,,,,,,,,,,,,,Too slow :(,0,85,85,91,1,t1.png,t4.png,3,0.0000131,20,female,2020-09-28_13h26.56.040,torte-2b,2020.1.3,MacIntel,60,12941,,,,,,,,,,,,,,,,,,,,,,,,,,,,,,,,,,,,,,,,,,,,,,,,,,,,,,,,,,,,,,,,,
,,,,,,,,,,,,,,Too slow :(,0,86,86,44,1,t2.png,t3.png,1,0.909,20,female,2020-09-28_13h26.56.040,torte-2b,2020.1.3,MacIntel,60,12941,,,,,,,,,,,,,,,,,,,,,,,,,,,,,,,,,,,,,,,,,,,,,,,,,,,,,,,,,,,,,,,,,
,,,,,,,,,,,,,,Too slow :(,0,87,87,98,1,t2.png,t4.png,2,0.0591,20,female,2020-09-28_13h26.56.040,torte-2b,2020.1.3,MacIntel,60,12941,,,,,,,,,,,,,,,,,,,,,,,,,,,,,,,,,,,,,,,,,,,,,,,,,,,,,,,,,,,,,,,,,
,,,,,,,,,,,,,,Too slow :(,0,88,88,68,1,t1.png,t4.png,3,0.0000131,20,female,2020-09-28_13h26.56.040,torte-2b,2020.1.3,MacIntel,60,12941,,,,,,,,,,,,,,,,,,,,,,,,,,,,,,,,,,,,,,,,,,,,,,,,,,,,,,,,,,,,,,,,,
,,,,,,,,,,,,,,Too slow :(,0,89,89,115,1,t2.png,t4.png,2,0.059078,20,female,2020-09-28_13h26.56.040,torte-2b,2020.1.3,MacIntel,60,12941,,,,,,,,,,,,,,,,,,,,,,,,,,,,,,,,,,,,,,,,,,,,,,,,,,,,,,,,,,,,,,,,,
,,,,,,,,,,,,,,Too slow :(,0,90,90,67,1,t1.png,t5.png,4,9.55E-11,20,female,2020-09-28_13h26.56.040,torte-2b,2020.1.3,MacIntel,60,12941,,,,,,,,,,,,,,,,,,,,,,,,,,,,,,,,,,,,,,,,,,,,,,,,,,,,,,,,,,,,,,,,,
,,,,,,,,,,,,,,Too slow :(,0,91,91,106,1,t2.png,t3.png,1,0.90855,20,female,2020-09-28_13h26.56.040,torte-2b,2020.1.3,MacIntel,60,12941,,,,,,,,,,,,,,,,,,,,,,,,,,,,,,,,,,,,,,,,,,,,,,,,,,,,,,,,,,,,,,,,,
,,,,,,,,,,,,,,Too slow :(,0,92,92,15,1,t3.png,t2.png,1,0.90855,20,female,2020-09-28_13h26.56.040,torte-2b,2020.1.3,MacIntel,60,12941,,,,,,,,,,,,,,,,,,,,,,,,,,,,,,,,,,,,,,,,,,,,,,,,,,,,,,,,,,,,,,,,,
,,,,,,,,,,,,,,Too slow :(,0,93,93,77,1,t1.png,t1.png,0,0.97829,20,female,2020-09-28_13h26.56.040,torte-2b,2020.1.3,MacIntel,60,12941,,,,,,,,,,,,,,,,,,,,,,,,,,,,,,,,,,,,,,,,,,,,,,,,,,,,,,,,,,,,,,,,,
,,,,,,,,,,,,,,Too slow :(,0,94,94,11,1,t1.png,t4.png,3,0.0000131,20,female,2020-09-28_13h26.56.040,torte-2b,2020.1.3,MacIntel,60,12941,,,,,,,,,,,,,,,,,,,,,,,,,,,,,,,,,,,,,,,,,,,,,,,,,,,,,,,,,,,,,,,,,
,,,,,,,,,,,,,,Too slow :(,0,95,95,0,1,t5.png,t1.png,4,9.55E-11,20,female,2020-09-28_13h26.56.040,torte-2b,2020.1.3,MacIntel,60,12941,,,,,,,,,,,,,,,,,,,,,,,,,,,,,,,,,,,,,,,,,,,,,,,,,,,,,,,,,,,,,,,,,
,,,,,,,,,,,,,,Too slow :(,0,96,96,119,1,t1.png,t5.png,4,9.55E-11,20,female,2020-09-28_13h26.56.040,torte-2b,2020.1.3,MacIntel,60,12941,,,,,,,,,,,,,,,,,,,,,,,,,,,,,,,,,,,,,,,,,,,,,,,,,,,,,,,,,,,,,,,,,
,,,,,,,,,,,,,,Too slow :(,0,97,97,8,1,t3.png,t2.png,1,0.90855,20,female,2020-09-28_13h26.56.040,torte-2b,2020.1.3,MacIntel,60,12941,,,,,,,,,,,,,,,,,,,,,,,,,,,,,,,,,,,,,,,,,,,,,,,,,,,,,,,,,,,,,,,,,
,,,,,,,,,,,,,,Too slow :(,0,98,98,22,1,t2.png,t3.png,1,0.90855,20,female,2020-09-28_13h26.56.040,torte-2b,2020.1.3,MacIntel,60,12941,,,,,,,,,,,,,,,,,,,,,,,,,,,,,,,,,,,,,,,,,,,,,,,,,,,,,,,,,,,,,,,,,
,,,,,,,,,,,,,,Too slow :(,0,99,99,118,1,t5.png,t5.png,0,0.978,20,female,2020-09-28_13h26.56.040,torte-2b,2020.1.3,MacIntel,60,12941,,,,,,,,,,,,,,,,,,,,,,,,,,,,,,,,,,,,,,,,,,,,,,,,,,,,,,,,,,,,,,,,,
,,,,,,,,,,,,,,Too slow :(,0,100,100,69,1,t4.png,t2.png,2,0.059078,20,female,2020-09-28_13h26.56.040,torte-2b,2020.1.3,MacIntel,60,12941,,,,,,,,,,,,,,,,,,,,,,,,,,,,,,,,,,,,,,,,,,,,,,,,,,,,,,,,,,,,,,,,,
,,,,,,,,,,,,,,Too slow :(,0,101,101,100,1,t4.png,t5.png,1,0.90025,20,female,2020-09-28_13h26.56.040,torte-2b,2020.1.3,MacIntel,60,12941,,,,,,,,,,,,,,,,,,,,,,,,,,,,,,,,,,,,,,,,,,,,,,,,,,,,,,,,,,,,,,,,,
,,,,,,,,,,,,,,Too slow :(,0,102,102,63,1,t2.png,t3.png,1,0.909,20,female,2020-09-28_13h26.56.040,torte-2b,2020.1.3,MacIntel,60,12941,,,,,,,,,,,,,,,,,,,,,,,,,,,,,,,,,,,,,,,,,,,,,,,,,,,,,,,,,,,,,,,,,
,,,,,,,,,,,,,,Too slow :(,0,103,103,55,1,t2.png,t4.png,2,0.059078,20,female,2020-09-28_13h26.56.040,torte-2b,2020.1.3,MacIntel,60,12941,,,,,,,,,,,,,,,,,,,,,,,,,,,,,,,,,,,,,,,,,,,,,,,,,,,,,,,,,,,,,,,,,
,,,,,,,,,,,,,,Too slow :(,0,104,104,94,1,t5.png,t1.png,4,9.55E-11,20,female,2020-09-28_13h26.56.040,torte-2b,2020.1.3,MacIntel,60,12941,,,,,,,,,,,,,,,,,,,,,,,,,,,,,,,,,,,,,,,,,,,,,,,,,,,,,,,,,,,,,,,,,
,,,,,,,,,,,,,,Too slow :(,0,105,105,90,1,t1.png,t5.png,4,9.55E-11,20,female,2020-09-28_13h26.56.040,torte-2b,2020.1.3,MacIntel,60,12941,,,,,,,,,,,,,,,,,,,,,,,,,,,,,,,,,,,,,,,,,,,,,,,,,,,,,,,,,,,,,,,,,
,,,,,,,,,,,,,,Too slow :(,0,106,106,19,1,t4.png,t2.png,2,0.059078,20,female,2020-09-28_13h26.56.040,torte-2b,2020.1.3,MacIntel,60,12941,,,,,,,,,,,,,,,,,,,,,,,,,,,,,,,,,,,,,,,,,,,,,,,,,,,,,,,,,,,,,,,,,
,,,,,,,,,,,,,,Too slow :(,0,107,107,113,1,t5.png,t4.png,1,0.9,20,female,2020-09-28_13h26.56.040,torte-2b,2020.1.3,MacIntel,60,12941,,,,,,,,,,,,,,,,,,,,,,,,,,,,,,,,,,,,,,,,,,,,,,,,,,,,,,,,,,,,,,,,,
,,,,,,,,,,,,,,Too slow :(,0,108,108,81,1,t1.png,t1.png,0,0.97829,20,female,2020-09-28_13h26.56.040,torte-2b,2020.1.3,MacIntel,60,12941,,,,,,,,,,,,,,,,,,,,,,,,,,,,,,,,,,,,,,,,,,,,,,,,,,,,,,,,,,,,,,,,,
,,,,,,,,,,,,,,Too slow :(,0,109,109,96,1,t1.png,t1.png,0,0.97829,20,female,2020-09-28_13h26.56.040,torte-2b,2020.1.3,MacIntel,60,12941,,,,,,,,,,,,,,,,,,,,,,,,,,,,,,,,,,,,,,,,,,,,,,,,,,,,,,,,,,,,,,,,,
,,,,,,,,,,,,,,Too slow :(,0,110,110,85,1,t3.png,t2.png,1,0.90855,20,female,2020-09-28_13h26.56.040,torte-2b,2020.1.3,MacIntel,60,12941,,,,,,,,,,,,,,,,,,,,,,,,,,,,,,,,,,,,,,,,,,,,,,,,,,,,,,,,,,,,,,,,,
,,,,,,,,,,,,,,Too slow :(,0,111,111,102,1,t4.png,t2.png,2,0.059078,20,female,2020-09-28_13h26.56.040,torte-2b,2020.1.3,MacIntel,60,12941,,,,,,,,,,,,,,,,,,,,,,,,,,,,,,,,,,,,,,,,,,,,,,,,,,,,,,,,,,,,,,,,,
,,,,,,,,,,,,,,Too slow :(,0,112,112,47,1,t4.png,t2.png,2,0.059078,20,female,2020-09-28_13h26.56.040,torte-2b,2020.1.3,MacIntel,60,12941,,,,,,,,,,,,,,,,,,,,,,,,,,,,,,,,,,,,,,,,,,,,,,,,,,,,,,,,,,,,,,,,,
,,,,,,,,,,,,,,Too slow :(,0,113,113,30,1,t3.png,t1.png,2,0.056466,20,female,2020-09-28_13h26.56.040,torte-2b,2020.1.3,MacIntel,60,12941,,,,,,,,,,,,,,,,,,,,,,,,,,,,,,,,,,,,,,,,,,,,,,,,,,,,,,,,,,,,,,,,,
,,,,,,,,,,,,,,Too slow :(,0,114,114,43,1,t4.png,t2.png,2,0.059078,20,female,2020-09-28_13h26.56.040,torte-2b,2020.1.3,MacIntel,60,12941,,,,,,,,,,,,,,,,,,,,,,,,,,,,,,,,,,,,,,,,,,,,,,,,,,,,,,,,,,,,,,,,,
,,,,,,,,,,,,,,Too slow :(,0,115,115,70,1,t5.png,t5.png,0,0.978,20,female,2020-09-28_13h26.56.040,torte-2b,2020.1.3,MacIntel,60,12941,,,,,,,,,,,,,,,,,,,,,,,,,,,,,,,,,,,,,,,,,,,,,,,,,,,,,,,,,,,,,,,,,
,,,,,,,,,,,,,,Too slow :(,0,116,116,97,1,t5.png,t5.png,0,0.97829,20,female,2020-09-28_13h26.56.040,torte-2b,2020.1.3,MacIntel,60,12941,,,,,,,,,,,,,,,,,,,,,,,,,,,,,,,,,,,,,,,,,,,,,,,,,,,,,,,,,,,,,,,,,
,,,,,,,,,,,,,,Too slow :(,0,117,117,38,1,t3.png,t1.png,2,0.056466,20,female,2020-09-28_13h26.56.040,torte-2b,2020.1.3,MacIntel,60,12941,,,,,,,,,,,,,,,,,,,,,,,,,,,,,,,,,,,,,,,,,,,,,,,,,,,,,,,,,,,,,,,,,
,,,,,,,,,,,,,,Too slow :(,0,118,118,53,1,t3.png,t1.png,2,0.056466,20,female,2020-09-28_13h26.56.040,torte-2b,2020.1.3,MacIntel,60,12941,,,,,,,,,,,,,,,,,,,,,,,,,,,,,,,,,,,,,,,,,,,,,,,,,,,,,,,,,,,,,,,,,
,,,,,,,,,,,,,,Too slow :(,0,119,119,13,1,t5.png,t5.png,0,0.97829,20,female,2020-09-28_13h26.56.040,torte-2b,2020.1.3,MacIntel,60,12941,,,,,,,,,,,,,,,,,,,,,,,,,,,,,,,,,,,,,,,,,,,,,,,,,,,,,,,,,,,,,,,,,
,,,,,,,,,,,,,,Too slow :(,,,,,,t1.png,t4.png,3,0.0000131,20,female,2020-09-28_13h26.56.040,torte-2b,2020.1.3,MacIntel,60,12941,space,1.145365,space,0.951195,0,0,0,107,1,,,,,,,,,,,,,,,,,,,,,,,,,,,,,,,,,,,,,,,,,,,,,,,,,,,,,,,,
,,,,,,,,,,,,,,Too slow :(,,,,,,t4.png,t1.png,3,0.0000131,20,female,2020-09-28_13h26.56.040,torte-2b,2020.1.3,MacIntel,60,12941,,,,,0,1,1,93,1,,,,,,,,,,,,,,,,,,,,,,,,,,,,,,,,,,,,,,,,,,,,,,,,,,,,,,,,
,,,,,,,,,,,,,,Too slow :(,,,,,,t5.png,t4.png,1,0.9,20,female,2020-09-28_13h26.56.040,torte-2b,2020.1.3,MacIntel,60,12941,,,,,0,2,2,49,1,,,,,,,,,,,,,,,,,,,,,,,,,,,,,,,,,,,,,,,,,,,,,,,,,,,,,,,,
,,,,,,,,,,,,,,Too slow :(,,,,,,t1.png,t5.png,4,9.55E-11,20,female,2020-09-28_13h26.56.040,torte-2b,2020.1.3,MacIntel,60,12941,,,,,0,3,3,85,1,,,,,,,,,,,,,,,,,,,,,,,,,,,,,,,,,,,,,,,,,,,,,,,,,,,,,,,,
,,,,,,,,,,,,,,Too slow :(,,,,,,t2.png,t1.png,1,0.90025,20,female,2020-09-28_13h26.56.040,torte-2b,2020.1.3,MacIntel,60,12941,,,,,0,4,4,62,1,,,,,,,,,,,,,,,,,,,,,,,,,,,,,,,,,,,,,,,,,,,,,,,,,,,,,,,,
,,,,,,,,,,,,,,Too slow :(,,,,,,t2.png,t5.png,3,0.0000131,20,female,2020-09-28_13h26.56.040,torte-2b,2020.1.3,MacIntel,60,12941,,,,,0,5,5,104,1,,,,,,,,,,,,,,,,,,,,,,,,,,,,,,,,,,,,,,,,,,,,,,,,,,,,,,,,
,,,,,,,,,,,,,,Too slow :(,,,,,,t1.png,t1.png,0,0.97829,20,female,2020-09-28_13h26.56.040,torte-2b,2020.1.3,MacIntel,60,12941,,,,,0,6,6,67,1,,,,,,,,,,,,,,,,,,,,,,,,,,,,,,,,,,,,,,,,,,,,,,,,,,,,,,,,
,,,,,,,,,,,,,,Too slow :(,,,,,,t5.png,t2.png,3,0.0000131,20,female,2020-09-28_13h26.56.040,torte-2b,2020.1.3,MacIntel,60,12941,,,,,0,7,7,51,1,,,,,,,,,,,,,,,,,,,,,,,,,,,,,,,,,,,,,,,,,,,,,,,,,,,,,,,,
,,,,,,,,,,,,,,Too slow :(,,,,,,t2.png,t3.png,1,0.90855,20,female,2020-09-28_13h26.56.040,torte-2b,2020.1.3,MacIntel,60,12941,,,,,0,8,8,65,1,,,,,,,,,,,,,,,,,,,,,,,,,,,,,,,,,,,,,,,,,,,,,,,,,,,,,,,,
,,,,,,,,,,,,,,Too slow :(,,,,,,t2.png,t2.png,0,0.981,20,female,2020-09-28_13h26.56.040,torte-2b,2020.1.3,MacIntel,60,12941,,,,,0,9,9,101,1,,,,,,,,,,,,,,,,,,,,,,,,,,,,,,,,,,,,,,,,,,,,,,,,,,,,,,,,
,,,,,,,,,,,,,,Too slow :(,,,,,,t4.png,t5.png,1,0.90025,20,female,2020-09-28_13h26.56.040,torte-2b,2020.1.3,MacIntel,60,12941,,,,,0,10,10,58,1,,,,,,,,,,,,,,,,,,,,,,,,,,,,,,,,,,,,,,,,,,,,,,,,,,,,,,,,
,,,,,,,,,,,,,,Too slow :(,,,,,,t2.png,t3.png,1,0.90855,20,female,2020-09-28_13h26.56.040,torte-2b,2020.1.3,MacIntel,60,12941,,,,,0,11,11,10,1,,,,,,,,,,,,,,,,,,,,,,,,,,,,,,,,,,,,,,,,,,,,,,,,,,,,,,,,
,,,,,,,,,,,,,,Too slow :(,,,,,,t5.png,t1.png,4,9.55E-11,20,female,2020-09-28_13h26.56.040,torte-2b,2020.1.3,MacIntel,60,12941,,,,,0,12,12,22,1,,,,,,,,,,,,,,,,,,,,,,,,,,,,,,,,,,,,,,,,,,,,,,,,,,,,,,,,
,,,,,,,,,,,,,,Too slow :(,,,,,,t1.png,t5.png,4,9.55E-11,20,female,2020-09-28_13h26.56.040,torte-2b,2020.1.3,MacIntel,60,12941,,,,,0,13,13,55,1,,,,,,,,,,,,,,,,,,,,,,,,,,,,,,,,,,,,,,,,,,,,,,,,,,,,,,,,
,,,,,,,,,,,,,,Too slow :(,,,,,,t2.png,t3.png,1,0.909,20,female,2020-09-28_13h26.56.040,torte-2b,2020.1.3,MacIntel,60,12941,,,,,0,14,14,74,1,,,,,,,,,,,,,,,,,,,,,,,,,,,,,,,,,,,,,,,,,,,,,,,,,,,,,,,,
,,,,,,,,,,,,,,Too slow :(,,,,,,t2.png,t4.png,2,0.059078,20,female,2020-09-28_13h26.56.040,torte-2b,2020.1.3,MacIntel,60,12941,,,,,0,15,15,37,1,,,,,,,,,,,,,,,,,,,,,,,,,,,,,,,,,,,,,,,,,,,,,,,,,,,,,,,,
,,,,,,,,,,,,,,Too slow :(,,,,,,t1.png,t2.png,1,0.90025,20,female,2020-09-28_13h26.56.040,torte-2b,2020.1.3,MacIntel,60,12941,,,,,0,16,16,33,1,,,,,,,,,,,,,,,,,,,,,,,,,,,,,,,,,,,,,,,,,,,,,,,,,,,,,,,,
,,,,,,,,,,,,,,Too slow :(,,,,,,t3.png,t4.png,1,0.90855,20,female,2020-09-28_13h26.56.040,torte-2b,2020.1.3,MacIntel,60,12941,,,,,0,17,17,84,1,,,,,,,,,,,,,,,,,,,,,,,,,,,,,,,,,,,,,,,,,,,,,,,,,,,,,,,,
,,,,,,,,,,,,,,Too slow :(,,,,,,t2.png,t1.png,1,0.9,20,female,2020-09-28_13h26.56.040,torte-2b,2020.1.3,MacIntel,60,12941,,,,,0,18,18,118,1,,,,,,,,,,,,,,,,,,,,,,,,,,,,,,,,,,,,,,,,,,,,,,,,,,,,,,,,
,,,,,,,,,,,,,,Too slow :(,,,,,,t4.png,t3.png,1,0.90855,20,female,2020-09-28_13h26.56.040,torte-2b,2020.1.3,MacIntel,60,12941,,,,,0,19,19,45,1,,,,,,,,,,,,,,,,,,,,,,,,,,,,,,,,,,,,,,,,,,,,,,,,,,,,,,,,
,,,,,,,,,,,,,,Too slow :(,,,,,,t3.png,t4.png,1,0.909,20,female,2020-09-28_13h26.56.040,torte-2b,2020.1.3,MacIntel,60,12941,,,,,0,20,20,82,1,,,,,,,,,,,,,,,,,,,,,,,,,,,,,,,,,,,,,,,,,,,,,,,,,,,,,,,,
,,,,,,,,,,,,,,Too slow :(,,,,,,t2.png,t4.png,2,0.059078,20,female,2020-09-28_13h26.56.040,torte-2b,2020.1.3,MacIntel,60,12941,,,,,0,21,21,11,1,,,,,,,,,,,,,,,,,,,,,,,,,,,,,,,,,,,,,,,,,,,,,,,,,,,,,,,,
,,,,,,,,,,,,,,Too slow :(,,,,,,t3.png,t2.png,1,0.90855,20,female,2020-09-28_13h26.56.040,torte-2b,2020.1.3,MacIntel,60,12941,,,,,0,22,22,53,1,,,,,,,,,,,,,,,,,,,,,,,,,,,,,,,,,,,,,,,,,,,,,,,,,,,,,,,,
,,,,,,,,,,,,,,Too slow :(,,,,,,t5.png,t2.png,3,0.0000131,20,female,2020-09-28_13h26.56.040,torte-2b,2020.1.3,MacIntel,60,12941,,,,,0,23,23,91,1,,,,,,,,,,,,,,,,,,,,,,,,,,,,,,,,,,,,,,,,,,,,,,,,,,,,,,,,
,,,,,,,,,,,,,,Too slow :(,,,,,,t2.png,t1.png,1,0.90025,20,female,2020-09-28_13h26.56.040,torte-2b,2020.1.3,MacIntel,60,12941,,,,,0,24,24,4,1,,,,,,,,,,,,,,,,,,,,,,,,,,,,,,,,,,,,,,,,,,,,,,,,,,,,,,,,
,,,,,,,,,,,,,,Too slow :(,,,,,,t3.png,t5.png,2,0.0565,20,female,2020-09-28_13h26.56.040,torte-2b,2020.1.3,MacIntel,60,12941,,,,,0,25,25,30,1,,,,,,,,,,,,,,,,,,,,,,,,,,,,,,,,,,,,,,,,,,,,,,,,,,,,,,,,
,,,,,,,,,,,,,,Too slow :(,,,,,,t1.png,t2.png,1,0.9,20,female,2020-09-28_13h26.56.040,torte-2b,2020.1.3,MacIntel,60,12941,,,,,0,26,26,1,1,,,,,,,,,,,,,,,,,,,,,,,,,,,,,,,,,,,,,,,,,,,,,,,,,,,,,,,,
,,,,,,,,,,,,,,Too slow :(,,,,,,t5.png,t1.png,4,9.55E-11,20,female,2020-09-28_13h26.56.040,torte-2b,2020.1.3,MacIntel,60,12941,,,,,0,27,27,102,1,,,,,,,,,,,,,,,,,,,,,,,,,,,,,,,,,,,,,,,,,,,,,,,,,,,,,,,,
,,,,,,,,,,,,,,Too slow :(,,,,,,t1.png,t2.png,1,0.90025,20,female,2020-09-28_13h26.56.040,torte-2b,2020.1.3,MacIntel,60,12941,,,,,0,28,28,105,1,,,,,,,,,,,,,,,,,,,,,,,,,,,,,,,,,,,,,,,,,,,,,,,,,,,,,,,,
,,,,,,,,,,,,,,Too slow :(,,,,,,t5.png,t3.png,2,0.056466,20,female,2020-09-28_13h26.56.040,torte-2b,2020.1.3,MacIntel,60,12941,,,,,0,29,29,114,1,,,,,,,,,,,,,,,,,,,,,,,,,,,,,,,,,,,,,,,,,,,,,,,,,,,,,,,,
,,,,,,,,,,,,,,Too slow :(,,,,,,t1.png,t2.png,1,0.90025,20,female,2020-09-28_13h26.56.040,torte-2b,2020.1.3,MacIntel,60,12941,,,,,0,30,30,72,1,,,,,,,,,,,,,,,,,,,,,,,,,,,,,,,,,,,,,,,,,,,,,,,,,,,,,,,,
,,,,,,,,,,,,,,Too slow :(,,,,,,t5.png,t1.png,4,9.55E-11,20,female,2020-09-28_13h26.56.040,torte-2b,2020.1.3,MacIntel,60,12941,,,,,0,31,31,100,1,,,,,,,,,,,,,,,,,,,,,,,,,,,,,,,,,,,,,,,,,,,,,,,,,,,,,,,,
,,,,,,,,,,,,,,Too slow :(,,,,,,t3.png,t4.png,1,0.909,20,female,2020-09-28_13h26.56.040,torte-2b,2020.1.3,MacIntel,60,12941,,,,,0,32,32,89,1,,,,,,,,,,,,,,,,,,,,,,,,,,,,,,,,,,,,,,,,,,,,,,,,,,,,,,,,
,,,,,,,,,,,,,,Too slow :(,,,,,,t3.png,t5.png,2,0.056466,20,female,2020-09-28_13h26.56.040,torte-2b,2020.1.3,MacIntel,60,12941,,,,,0,33,33,14,1,,,,,,,,,,,,,,,,,,,,,,,,,,,,,,,,,,,,,,,,,,,,,,,,,,,,,,,,
,,,,,,,,,,,,,,Too slow :(,,,,,,t1.png,t5.png,4,9.55E-11,20,female,2020-09-28_13h26.56.040,torte-2b,2020.1.3,MacIntel,60,12941,,,,,0,34,34,12,1,,,,,,,,,,,,,,,,,,,,,,,,,,,,,,,,,,,,,,,,,,,,,,,,,,,,,,,,
,,,,,,,,,,,,,,Too slow :(,,,,,,t5.png,t5.png,0,0.97829,20,female,2020-09-28_13h26.56.040,torte-2b,2020.1.3,MacIntel,60,12941,,,,,0,35,35,25,1,,,,,,,,,,,,,,,,,,,,,,,,,,,,,,,,,,,,,,,,,,,,,,,,,,,,,,,,
,,,,,,,,,,,,,,Too slow :(,,,,,,t4.png,t4.png,0,0.98115,20,female,2020-09-28_13h26.56.040,torte-2b,2020.1.3,MacIntel,60,12941,,,,,0,36,36,80,1,,,,,,,,,,,,,,,,,,,,,,,,,,,,,,,,,,,,,,,,,,,,,,,,,,,,,,,,
,,,,,,,,,,,,,,Too slow :(,,,,,,t2.png,t4.png,2,0.059078,20,female,2020-09-28_13h26.56.040,torte-2b,2020.1.3,MacIntel,60,12941,,,,,0,37,37,24,1,,,,,,,,,,,,,,,,,,,,,,,,,,,,,,,,,,,,,,,,,,,,,,,,,,,,,,,,
,,,,,,,,,,,,,,Too slow :(,,,,,,t4.png,t3.png,1,0.90855,20,female,2020-09-28_13h26.56.040,torte-2b,2020.1.3,MacIntel,60,12941,,,,,0,38,38,35,1,,,,,,,,,,,,,,,,,,,,,,,,,,,,,,,,,,,,,,,,,,,,,,,,,,,,,,,,
,,,,,,,,,,,,,,Too slow :(,,,,,,t5.png,t5.png,0,0.97829,20,female,2020-09-28_13h26.56.040,torte-2b,2020.1.3,MacIntel,60,12941,,,,,0,39,39,73,1,,,,,,,,,,,,,,,,,,,,,,,,,,,,,,,,,,,,,,,,,,,,,,,,,,,,,,,,
,,,,,,,,,,,,,,Too slow :(,,,,,,t5.png,t5.png,0,0.978,20,female,2020-09-28_13h26.56.040,torte-2b,2020.1.3,MacIntel,60,12941,,,,,0,40,40,117,1,,,,,,,,,,,,,,,,,,,,,,,,,,,,,,,,,,,,,,,,,,,,,,,,,,,,,,,,
,,,,,,,,,,,,,,Too slow :(,,,,,,t5.png,t2.png,3,0.0000131,20,female,2020-09-28_13h26.56.040,torte-2b,2020.1.3,MacIntel,60,12941,,,,,0,41,41,119,1,,,,,,,,,,,,,,,,,,,,,,,,,,,,,,,,,,,,,,,,,,,,,,,,,,,,,,,,
,,,,,,,,,,,,,,Too slow :(,,,,,,t4.png,t4.png,0,0.98115,20,female,2020-09-28_13h26.56.040,torte-2b,2020.1.3,MacIntel,60,12941,,,,,0,42,42,79,1,,,,,,,,,,,,,,,,,,,,,,,,,,,,,,,,,,,,,,,,,,,,,,,,,,,,,,,,
,,,,,,,,,,,,,,Too slow :(,,,,,,t4.png,t4.png,0,0.98115,20,female,2020-09-28_13h26.56.040,torte-2b,2020.1.3,MacIntel,60,12941,,,,,0,43,43,21,1,,,,,,,,,,,,,,,,,,,,,,,,,,,,,,,,,,,,,,,,,,,,,,,,,,,,,,,,
,,,,,,,,,,,,,,Too slow :(,,,,,,t4.png,t3.png,1,0.90855,20,female,2020-09-28_13h26.56.040,torte-2b,2020.1.3,MacIntel,60,12941,,,,,0,44,44,75,1,,,,,,,,,,,,,,,,,,,,,,,,,,,,,,,,,,,,,,,,,,,,,,,,,,,,,,,,
,,,,,,,,,,,,,,Too slow :(,,,,,,t3.png,t1.png,2,0.056466,20,female,2020-09-28_13h26.56.040,torte-2b,2020.1.3,MacIntel,60,12941,,,,,0,45,45,64,1,,,,,,,,,,,,,,,,,,,,,,,,,,,,,,,,,,,,,,,,,,,,,,,,,,,,,,,,
,,,,,,,,,,,,,,Too slow :(,,,,,,t4.png,t5.png,1,0.90025,20,female,2020-09-28_13h26.56.040,torte-2b,2020.1.3,MacIntel,60,12941,,,,,0,46,46,47,1,,,,,,,,,,,,,,,,,,,,,,,,,,,,,,,,,,,,,,,,,,,,,,,,,,,,,,,,
,,,,,,,,,,,,,,Too slow :(,,,,,,t3.png,t1.png,2,0.056466,20,female,2020-09-28_13h26.56.040,torte-2b,2020.1.3,MacIntel,60,12941,,,,,0,47,47,32,1,,,,,,,,,,,,,,,,,,,,,,,,,,,,,,,,,,,,,,,,,,,,,,,,,,,,,,,,
,,,,,,,,,,,,,,Too slow :(,,,,,,t3.png,t1.png,2,0.0565,20,female,2020-09-28_13h26.56.040,torte-2b,2020.1.3,MacIntel,60,12941,,,,,0,48,48,31,1,,,,,,,,,,,,,,,,,,,,,,,,,,,,,,,,,,,,,,,,,,,,,,,,,,,,,,,,
,,,,,,,,,,,,,,Too slow :(,,,,,,t4.png,t4.png,0,0.98115,20,female,2020-09-28_13h26.56.040,torte-2b,2020.1.3,MacIntel,60,12941,,,,,0,49,49,52,1,,,,,,,,,,,,,,,,,,,,,,,,,,,,,,,,,,,,,,,,,,,,,,,,,,,,,,,,
,,,,,,,,,,,,,,Too slow :(,,,,,,t5.png,t3.png,2,0.056466,20,female,2020-09-28_13h26.56.040,torte-2b,2020.1.3,MacIntel,60,12941,,,,,0,50,50,56,1,,,,,,,,,,,,,,,,,,,,,,,,,,,,,,,,,,,,,,,,,,,,,,,,,,,,,,,,
,,,,,,,,,,,,,,Too slow :(,,,,,,t1.png,t4.png,3,0.0000131,20,female,2020-09-28_13h26.56.040,torte-2b,2020.1.3,MacIntel,60,12941,,,,,0,51,51,92,1,,,,,,,,,,,,,,,,,,,,,,,,,,,,,,,,,,,,,,,,,,,,,,,,,,,,,,,,
,,,,,,,,,,,,,,Too slow :(,,,,,,t2.png,t1.png,1,0.90025,20,female,2020-09-28_13h26.56.040,torte-2b,2020.1.3,MacIntel,60,12941,,,,,0,52,52,19,1,,,,,,,,,,,,,,,,,,,,,,,,,,,,,,,,,,,,,,,,,,,,,,,,,,,,,,,,
,,,,,,,,,,,,,,Too slow :(,,,,,,t2.png,t2.png,0,0.98115,20,female,2020-09-28_13h26.56.040,torte-2b,2020.1.3,MacIntel,60,12941,,,,,0,53,53,59,1,,,,,,,,,,,,,,,,,,,,,,,,,,,,,,,,,,,,,,,,,,,,,,,,,,,,,,,,
,,,,,,,,,,,,,,Too slow :(,,,,,,t3.png,t2.png,1,0.909,20,female,2020-09-28_13h26.56.040,torte-2b,2020.1.3,MacIntel,60,12941,,,,,0,54,54,23,1,,,,,,,,,,,,,,,,,,,,,,,,,,,,,,,,,,,,,,,,,,,,,,,,,,,,,,,,
,,,,,,,,,,,,,,Too slow :(,,,,,,t1.png,t3.png,2,0.056466,20,female,2020-09-28_13h26.56.040,torte-2b,2020.1.3,MacIntel,60,12941,,,,,0,55,55,63,1,,,,,,,,,,,,,,,,,,,,,,,,,,,,,,,,,,,,,,,,,,,,,,,,,,,,,,,,
,,,,,,,,,,,,,,Too slow :(,,,,,,t1.png,t1.png,0,0.978,20,female,2020-09-28_13h26.56.040,torte-2b,2020.1.3,MacIntel,60,12941,,,,,0,56,56,54,1,,,,,,,,,,,,,,,,,,,,,,,,,,,,,,,,,,,,,,,,,,,,,,,,,,,,,,,,
,,,,,,,,,,,,,,Too slow :(,,,,,,t5.png,t4.png,1,0.9,20,female,2020-09-28_13h26.56.040,torte-2b,2020.1.3,MacIntel,60,12941,,,,,0,57,57,76,1,,,,,,,,,,,,,,,,,,,,,,,,,,,,,,,,,,,,,,,,,,,,,,,,,,,,,,,,
,,,,,,,,,,,,,,Too slow :(,,,,,,t1.png,t2.png,1,0.90025,20,female,2020-09-28_13h26.56.040,torte-2b,2020.1.3,MacIntel,60,12941,,,,,0,58,58,112,1,,,,,,,,,,,,,,,,,,,,,,,,,,,,,,,,,,,,,,,,,,,,,,,,,,,,,,,,
,,,,,,,,,,,,,,Too slow :(,,,,,,t3.png,t5.png,2,0.0565,20,female,2020-09-28_13h26.56.040,torte-2b,2020.1.3,MacIntel,60,12941,,,,,0,59,59,83,1,,,,,,,,,,,,,,,,,,,,,,,,,,,,,,,,,,,,,,,,,,,,,,,,,,,,,,,,
,,,,,,,,,,,,,,Too slow :(,,,,,,t4.png,t2.png,2,0.0591,20,female,2020-09-28_13h26.56.040,torte-2b,2020.1.3,MacIntel,60,12941,,,,,0,60,60,36,1,,,,,,,,,,,,,,,,,,,,,,,,,,,,,,,,,,,,,,,,,,,,,,,,,,,,,,,,
,,,,,,,,,,,,,,Too slow :(,,,,,,t5.png,t5.png,0,0.97829,20,female,2020-09-28_13h26.56.040,torte-2b,2020.1.3,MacIntel,60,12941,,,,,0,61,61,70,1,,,,,,,,,,,,,,,,,,,,,,,,,,,,,,,,,,,,,,,,,,,,,,,,,,,,,,,,
,,,,,,,,,,,,,,Too slow :(,,,,,,t5.png,t1.png,4,9.55E-11,20,female,2020-09-28_13h26.56.040,torte-2b,2020.1.3,MacIntel,60,12941,,,,,0,62,62,43,1,,,,,,,,,,,,,,,,,,,,,,,,,,,,,,,,,,,,,,,,,,,,,,,,,,,,,,,,
,,,,,,,,,,,,,,Too slow :(,,,,,,t3.png,t5.png,2,0.056466,20,female,2020-09-28_13h26.56.040,torte-2b,2020.1.3,MacIntel,60,12941,,,,,0,63,63,6,1,,,,,,,,,,,,,,,,,,,,,,,,,,,,,,,,,,,,,,,,,,,,,,,,,,,,,,,,
,,,,,,,,,,,,,,Too slow :(,,,,,,t4.png,t4.png,0,0.98115,20,female,2020-09-28_13h26.56.040,torte-2b,2020.1.3,MacIntel,60,12941,,,,,0,64,64,90,1,,,,,,,,,,,,,,,,,,,,,,,,,,,,,,,,,,,,,,,,,,,,,,,,,,,,,,,,
,,,,,,,,,,,,,,Too slow :(,,,,,,t4.png,t3.png,1,0.909,20,female,2020-09-28_13h26.56.040,torte-2b,2020.1.3,MacIntel,60,12941,,,,,0,65,65,46,1,,,,,,,,,,,,,,,,,,,,,,,,,,,,,,,,,,,,,,,,,,,,,,,,,,,,,,,,
,,,,,,,,,,,,,,Too slow :(,,,,,,t5.png,t2.png,3,0.0000131,20,female,2020-09-28_13h26.56.040,torte-2b,2020.1.3,MacIntel,60,12941,,,,,0,66,66,98,1,,,,,,,,,,,,,,,,,,,,,,,,,,,,,,,,,,,,,,,,,,,,,,,,,,,,,,,,
,,,,,,,,,,,,,,Too slow :(,,,,,,t3.png,t2.png,1,0.909,20,female,2020-09-28_13h26.56.040,torte-2b,2020.1.3,MacIntel,60,12941,,,,,0,67,67,3,1,,,,,,,,,,,,,,,,,,,,,,,,,,,,,,,,,,,,,,,,,,,,,,,,,,,,,,,,
,,,,,,,,,,,,,,Too slow :(,,,,,,t4.png,t1.png,3,0.0000131,20,female,2020-09-28_13h26.56.040,torte-2b,2020.1.3,MacIntel,60,12941,,,,,0,68,68,48,1,,,,,,,,,,,,,,,,,,,,,,,,,,,,,,,,,,,,,,,,,,,,,,,,,,,,,,,,
,,,,,,,,,,,,,,Too slow :(,,,,,,t4.png,t2.png,2,0.059078,20,female,2020-09-28_13h26.56.040,torte-2b,2020.1.3,MacIntel,60,12941,,,,,0,69,69,88,1,,,,,,,,,,,,,,,,,,,,,,,,,,,,,,,,,,,,,,,,,,,,,,,,,,,,,,,,
,,,,,,,,,,,,,,Too slow :(,,,,,,t5.png,t4.png,1,0.90025,20,female,2020-09-28_13h26.56.040,torte-2b,2020.1.3,MacIntel,60,12941,,,,,0,70,70,27,1,,,,,,,,,,,,,,,,,,,,,,,,,,,,,,,,,,,,,,,,,,,,,,,,,,,,,,,,
,,,,,,,,,,,,,,Too slow :(,,,,,,t4.png,t1.png,3,0.0000131,20,female,2020-09-28_13h26.56.040,torte-2b,2020.1.3,MacIntel,60,12941,,,,,0,71,71,13,1,,,,,,,,,,,,,,,,,,,,,,,,,,,,,,,,,,,,,,,,,,,,,,,,,,,,,,,,
,,,,,,,,,,,,,,Too slow :(,,,,,,t3.png,t4.png,1,0.90855,20,female,2020-09-28_13h26.56.040,torte-2b,2020.1.3,MacIntel,60,12941,,,,,0,72,72,96,1,,,,,,,,,,,,,,,,,,,,,,,,,,,,,,,,,,,,,,,,,,,,,,,,,,,,,,,,
,,,,,,,,,,,,,,Too slow :(,,,,,,t5.png,t3.png,2,0.056466,20,female,2020-09-28_13h26.56.040,torte-2b,2020.1.3,MacIntel,60,12941,,,,,0,73,73,38,1,,,,,,,,,,,,,,,,,,,,,,,,,,,,,,,,,,,,,,,,,,,,,,,,,,,,,,,,
,,,,,,,,,,,,,,Too slow :(,,,,,,t1.png,t1.png,0,0.978,20,female,2020-09-28_13h26.56.040,torte-2b,2020.1.3,MacIntel,60,12941,,,,,0,74,74,28,1,,,,,,,,,,,,,,,,,,,,,,,,,,,,,,,,,,,,,,,,,,,,,,,,,,,,,,,,
,,,,,,,,,,,,,,Too slow :(,,,,,,t3.png,t5.png,2,0.056466,20,female,2020-09-28_13h26.56.040,torte-2b,2020.1.3,MacIntel,60,12941,,,,,0,75,75,44,1,,,,,,,,,,,,,,,,,,,,,,,,,,,,,,,,,,,,,,,,,,,,,,,,,,,,,,,,
,,,,,,,,,,,,,,Too slow :(,,,,,,t2.png,t2.png,0,0.98115,20,female,2020-09-28_13h26.56.040,torte-2b,2020.1.3,MacIntel,60,12941,,,,,0,76,76,57,1,,,,,,,,,,,,,,,,,,,,,,,,,,,,,,,,,,,,,,,,,,,,,,,,,,,,,,,,
,,,,,,,,,,,,,,Too slow :(,,,,,,t1.png,t3.png,2,0.056466,20,female,2020-09-28_13h26.56.040,torte-2b,2020.1.3,MacIntel,60,12941,,,,,0,77,77,69,1,,,,,,,,,,,,,,,,,,,,,,,,,,,,,,,,,,,,,,,,,,,,,,,,,,,,,,,,
,,,,,,,,,,,,,,Too slow :(,,,,,,t1.png,t1.png,0,0.97829,20,female,2020-09-28_13h26.56.040,torte-2b,2020.1.3,MacIntel,60,12941,,,,,0,78,78,78,1,,,,,,,,,,,,,,,,,,,,,,,,,,,,,,,,,,,,,,,,,,,,,,,,,,,,,,,,
,,,,,,,,,,,,,,Too slow :(,,,,,,t4.png,t2.png,2,0.059078,20,female,2020-09-28_13h26.56.040,torte-2b,2020.1.3,MacIntel,60,12941,,,,,0,79,79,110,1,,,,,,,,,,,,,,,,,,,,,,,,,,,,,,,,,,,,,,,,,,,,,,,,,,,,,,,,
,,,,,,,,,,,,,,Too slow :(,,,,,,t1.png,t1.png,0,0.97829,20,female,2020-09-28_13h26.56.040,torte-2b,2020.1.3,MacIntel,60,12941,,,,,0,80,80,9,1,,,,,,,,,,,,,,,,,,,,,,,,,,,,,,,,,,,,,,,,,,,,,,,,,,,,,,,,
,,,,,,,,,,,,,,Too slow :(,,,,,,t5.png,t3.png,2,0.0565,20,female,2020-09-28_13h26.56.040,torte-2b,2020.1.3,MacIntel,60,12941,,,,,0,81,81,39,1,,,,,,,,,,,,,,,,,,,,,,,,,,,,,,,,,,,,,,,,,,,,,,,,,,,,,,,,
,,,,,,,,,,,,,,Too slow :(,,,,,,t2.png,t5.png,3,0.0000131,20,female,2020-09-28_13h26.56.040,torte-2b,2020.1.3,MacIntel,60,12941,,,,,0,82,82,66,1,,,,,,,,,,,,,,,,,,,,,,,,,,,,,,,,,,,,,,,,,,,,,,,,,,,,,,,,
,,,,,,,,,,,,,,Too slow :(,,,,,,t4.png,t5.png,1,0.90025,20,female,2020-09-28_13h26.56.040,torte-2b,2020.1.3,MacIntel,60,12941,,,,,0,83,83,113,1,,,,,,,,,,,,,,,,,,,,,,,,,,,,,,,,,,,,,,,,,,,,,,,,,,,,,,,,
,,,,,,,,,,,,,,Too slow :(,,,,,,t3.png,t4.png,1,0.909,20,female,2020-09-28_13h26.56.040,torte-2b,2020.1.3,MacIntel,60,12941,,,,,0,84,84,106,1,,,,,,,,,,,,,,,,,,,,,,,,,,,,,,,,,,,,,,,,,,,,,,,,,,,,,,,,
,,,,,,,,,,,,,,Too slow :(,,,,,,t1.png,t4.png,3,0.0000131,20,female,2020-09-28_13h26.56.040,torte-2b,2020.1.3,MacIntel,60,12941,,,,,0,85,85,81,1,,,,,,,,,,,,,,,,,,,,,,,,,,,,,,,,,,,,,,,,,,,,,,,,,,,,,,,,
,,,,,,,,,,,,,,Too slow :(,,,,,,t3.png,t2.png,1,0.90855,20,female,2020-09-28_13h26.56.040,torte-2b,2020.1.3,MacIntel,60,12941,,,,,0,86,86,18,1,,,,,,,,,,,,,,,,,,,,,,,,,,,,,,,,,,,,,,,,,,,,,,,,,,,,,,,,
,,,,,,,,,,,,,,Too slow :(,,,,,,t1.png,t5.png,4,9.55E-11,20,female,2020-09-28_13h26.56.040,torte-2b,2020.1.3,MacIntel,60,12941,,,,,0,87,87,41,1,,,,,,,,,,,,,,,,,,,,,,,,,,,,,,,,,,,,,,,,,,,,,,,,,,,,,,,,
,,,,,,,,,,,,,,Too slow :(,,,,,,t4.png,t5.png,1,0.9,20,female,2020-09-28_13h26.56.040,torte-2b,2020.1.3,MacIntel,60,12941,,,,,0,88,88,115,1,,,,,,,,,,,,,,,,,,,,,,,,,,,,,,,,,,,,,,,,,,,,,,,,,,,,,,,,
,,,,,,,,,,,,,,Too slow :(,,,,,,t5.png,t4.png,1,0.90025,20,female,2020-09-28_13h26.56.040,torte-2b,2020.1.3,MacIntel,60,12941,,,,,0,89,89,26,1,,,,,,,,,,,,,,,,,,,,,,,,,,,,,,,,,,,,,,,,,,,,,,,,,,,,,,,,
,,,,,,,,,,,,,,Too slow :(,,,,,,t5.png,t2.png,3,0.0000131,20,female,2020-09-28_13h26.56.040,torte-2b,2020.1.3,MacIntel,60,12941,,,,,0,90,90,116,1,,,,,,,,,,,,,,,,,,,,,,,,,,,,,,,,,,,,,,,,,,,,,,,,,,,,,,,,
,,,,,,,,,,,,,,Too slow :(,,,,,,t1.png,t3.png,2,0.056466,20,female,2020-09-28_13h26.56.040,torte-2b,2020.1.3,MacIntel,60,12941,,,,,0,91,91,99,1,,,,,,,,,,,,,,,,,,,,,,,,,,,,,,,,,,,,,,,,,,,,,,,,,,,,,,,,
,,,,,,,,,,,,,,Too slow :(,,,,,,t4.png,t3.png,1,0.909,20,female,2020-09-28_13h26.56.040,torte-2b,2020.1.3,MacIntel,60,12941,,,,,0,92,92,20,1,,,,,,,,,,,,,,,,,,,,,,,,,,,,,,,,,,,,,,,,,,,,,,,,,,,,,,,,
,,,,,,,,,,,,,,Too slow :(,,,,,,t4.png,t2.png,2,0.059078,20,female,2020-09-28_13h26.56.040,torte-2b,2020.1.3,MacIntel,60,12941,,,,,0,93,93,86,1,,,,,,,,,,,,,,,,,,,,,,,,,,,,,,,,,,,,,,,,,,,,,,,,,,,,,,,,
,,,,,,,,,,,,,,Too slow :(,,,,,,t5.png,t5.png,0,0.97829,20,female,2020-09-28_13h26.56.040,torte-2b,2020.1.3,MacIntel,60,12941,,,,,0,94,94,94,1,,,,,,,,,,,,,,,,,,,,,,,,,,,,,,,,,,,,,,,,,,,,,,,,,,,,,,,,
,,,,,,,,,,,,,,Too slow :(,,,,,,t1.png,t4.png,3,0.0000131,20,female,2020-09-28_13h26.56.040,torte-2b,2020.1.3,MacIntel,60,12941,,,,,0,95,95,50,1,,,,,,,,,,,,,,,,,,,,,,,,,,,,,,,,,,,,,,,,,,,,,,,,,,,,,,,,
,,,,,,,,,,,,,,Too slow :(,,,,,,t1.png,t3.png,2,0.056466,20,female,2020-09-28_13h26.56.040,torte-2b,2020.1.3,MacIntel,60,12941,,,,,0,96,96,60,1,,,,,,,,,,,,,,,,,,,,,,,,,,,,,,,,,,,,,,,,,,,,,,,,,,,,,,,,
,,,,,,,,,,,,,,Too slow :(,,,,,,t4.png,t5.png,1,0.90025,20,female,2020-09-28_13h26.56.040,torte-2b,2020.1.3,MacIntel,60,12941,,,,,0,97,97,103,1,,,,,,,,,,,,,,,,,,,,,,,,,,,,,,,,,,,,,,,,,,,,,,,,,,,,,,,,
,,,,,,,,,,,,,,Too slow :(,,,,,,t4.png,t1.png,3,0.0000131,20,female,2020-09-28_13h26.56.040,torte-2b,2020.1.3,MacIntel,60,12941,,,,,0,98,98,61,1,,,,,,,,,,,,,,,,,,,,,,,,,,,,,,,,,,,,,,,,,,,,,,,,,,,,,,,,
,,,,,,,,,,,,,,Too slow :(,,,,,,t2.png,t2.png,0,0.98115,20,female,2020-09-28_13h26.56.040,torte-2b,2020.1.3,MacIntel,60,12941,,,,,0,99,99,2,1,,,,,,,,,,,,,,,,,,,,,,,,,,,,,,,,,,,,,,,,,,,,,,,,,,,,,,,,
,,,,,,,,,,,,,,Too slow :(,,,,,,t2.png,t3.png,1,0.90855,20,female,2020-09-28_13h26.56.040,torte-2b,2020.1.3,MacIntel,60,12941,,,,,0,100,100,68,1,,,,,,,,,,,,,,,,,,,,,,,,,,,,,,,,,,,,,,,,,,,,,,,,,,,,,,,,
,,,,,,,,,,,,,,Too slow :(,,,,,,t2.png,t4.png,2,0.059078,20,female,2020-09-28_13h26.56.040,torte-2b,2020.1.3,MacIntel,60,12941,,,,,0,101,101,77,1,,,,,,,,,,,,,,,,,,,,,,,,,,,,,,,,,,,,,,,,,,,,,,,,,,,,,,,,
,,,,,,,,,,,,,,Too slow :(,,,,,,t1.png,t4.png,3,0.0000131,20,female,2020-09-28_13h26.56.040,torte-2b,2020.1.3,MacIntel,60,12941,,,,,0,102,102,17,1,,,,,,,,,,,,,,,,,,,,,,,,,,,,,,,,,,,,,,,,,,,,,,,,,,,,,,,,
,,,,,,,,,,,,,,Too slow :(,,,,,,t2.png,t1.png,1,0.90025,20,female,2020-09-28_13h26.56.040,torte-2b,2020.1.3,MacIntel,60,12941,,,,,0,103,103,5,1,,,,,,,,,,,,,,,,,,,,,,,,,,,,,,,,,,,,,,,,,,,,,,,,,,,,,,,,
,,,,,,,,,,,,,,Too slow :(,,,,,,t3.png,t1.png,2,0.056466,20,female,2020-09-28_13h26.56.040,torte-2b,2020.1.3,MacIntel,60,12941,,,,,0,104,104,0,1,,,,,,,,,,,,,,,,,,,,,,,,,,,,,,,,,,,,,,,,,,,,,,,,,,,,,,,,
,,,,,,,,,,,,,,Too slow :(,,,,,,t2.png,t5.png,3,0.0000131,20,female,2020-09-28_13h26.56.040,torte-2b,2020.1.3,MacIntel,60,12941,,,,,0,105,105,8,1,,,,,,,,,,,,,,,,,,,,,,,,,,,,,,,,,,,,,,,,,,,,,,,,,,,,,,,,
,,,,,,,,,,,,,,Too slow :(,,,,,,t3.png,t1.png,2,0.056466,20,female,2020-09-28_13h26.56.040,torte-2b,2020.1.3,MacIntel,60,12941,,,,,0,106,106,29,1,,,,,,,,,,,,,,,,,,,,,,,,,,,,,,,,,,,,,,,,,,,,,,,,,,,,,,,,
,,,,,,,,,,,,,,Too slow :(,,,,,,t2.png,t3.png,1,0.90855,20,female,2020-09-28_13h26.56.040,torte-2b,2020.1.3,MacIntel,60,12941,,,,,0,107,107,111,1,,,,,,,,,,,,,,,,,,,,,,,,,,,,,,,,,,,,,,,,,,,,,,,,,,,,,,,,
,,,,,,,,,,,,,,Too slow :(,,,,,,t2.png,t4.png,2,0.0591,20,female,2020-09-28_13h26.56.040,torte-2b,2020.1.3,MacIntel,60,12941,,,,,0,108,108,15,1,,,,,,,,,,,,,,,,,,,,,,,,,,,,,,,,,,,,,,,,,,,,,,,,,,,,,,,,
,,,,,,,,,,,,,,Too slow :(,,,,,,t2.png,t5.png,3,0.0000131,20,female,2020-09-28_13h26.56.040,torte-2b,2020.1.3,MacIntel,60,12941,,,,,0,109,109,95,1,,,,,,,,,,,,,,,,,,,,,,,,,,,,,,,,,,,,,,,,,,,,,,,,,,,,,,,,
,,,,,,,,,,,,,,Too slow :(,,,,,,t1.png,t3.png,2,0.056466,20,female,2020-09-28_13h26.56.040,torte-2b,2020.1.3,MacIntel,60,12941,,,,,0,110,110,87,1,,,,,,,,,,,,,,,,,,,,,,,,,,,,,,,,,,,,,,,,,,,,,,,,,,,,,,,,
,,,,,,,,,,,,,,Too slow :(,,,,,,t5.png,t4.png,1,0.90025,20,female,2020-09-28_13h26.56.040,torte-2b,2020.1.3,MacIntel,60,12941,,,,,0,111,111,34,1,,,,,,,,,,,,,,,,,,,,,,,,,,,,,,,,,,,,,,,,,,,,,,,,,,,,,,,,
,,,,,,,,,,,,,,Too slow :(,,,,,,t2.png,t2.png,0,0.98115,20,female,2020-09-28_13h26.56.040,torte-2b,2020.1.3,MacIntel,60,12941,,,,,0,112,112,7,1,,,,,,,,,,,,,,,,,,,,,,,,,,,,,,,,,,,,,,,,,,,,,,,,,,,,,,,,
,,,,,,,,,,,,,,Too slow :(,,,,,,t4.png,t2.png,2,0.059078,20,female,2020-09-28_13h26.56.040,torte-2b,2020.1.3,MacIntel,60,12941,,,,,0,113,113,109,1,,,,,,,,,,,,,,,,,,,,,,,,,,,,,,,,,,,,,,,,,,,,,,,,,,,,,,,,
,,,,,,,,,,,,,,Too slow :(,,,,,,t2.png,t5.png,3,0.0000131,20,female,2020-09-28_13h26.56.040,torte-2b,2020.1.3,MacIntel,60,12941,,,,,0,114,114,40,1,,,,,,,,,,,,,,,,,,,,,,,,,,,,,,,,,,,,,,,,,,,,,,,,,,,,,,,,
,,,,,,,,,,,,,,Too slow :(,,,,,,t4.png,t1.png,3,0.0000131,20,female,2020-09-28_13h26.56.040,torte-2b,2020.1.3,MacIntel,60,12941,,,,,0,115,115,42,1,,,,,,,,,,,,,,,,,,,,,,,,,,,,,,,,,,,,,,,,,,,,,,,,,,,,,,,,
,,,,,,,,,,,,,,Too slow :(,,,,,,t3.png,t2.png,1,0.90855,20,female,2020-09-28_13h26.56.040,torte-2b,2020.1.3,MacIntel,60,12941,,,,,0,116,116,97,1,,,,,,,,,,,,,,,,,,,,,,,,,,,,,,,,,,,,,,,,,,,,,,,,,,,,,,,,
,,,,,,,,,,,,,,Too slow :(,,,,,,t5.png,t3.png,2,0.056466,20,female,2020-09-28_13h26.56.040,torte-2b,2020.1.3,MacIntel,60,12941,,,,,0,117,117,108,1,,,,,,,,,,,,,,,,,,,,,,,,,,,,,,,,,,,,,,,,,,,,,,,,,,,,,,,,
,,,,,,,,,,,,,,Too slow :(,,,,,,t5.png,t1.png,4,9.55E-11,20,female,2020-09-28_13h26.56.040,torte-2b,2020.1.3,MacIntel,60,12941,,,,,0,118,118,71,1,,,,,,,,,,,,,,,,,,,,,,,,,,,,,,,,,,,,,,,,,,,,,,,,,,,,,,,,
,,,,,,,,,,,,,,Too slow :(,,,,,,t1.png,t5.png,4,9.55E-11,20,female,2020-09-28_13h26.56.040,torte-2b,2020.1.3,MacIntel,60,12941,,,,,0,119,119,16,1,,,,,,,,,,,,,,,,,,,,,,,,,,,,,,,,,,,,,,,,,,,,,,,,,,,,,,,,
,,,,,,,,,,,,,,,,,,,,,,,,20,female,2020-09-28_13h26.56.040,torte-2b,2020.1.3,MacIntel,60,12941,space,1.04764,,,,,,,,space,0.084425,space,0.141105,0,0,0,0,1,6,,,,,,,,,,,,,,,,,,,,,,,,,,,,,,,,,,,,,,,,,,,,,,
,,,,,,,,,,,,,,,,,,,,,,,,20,female,2020-09-28_13h26.56.040,torte-2b,2020.1.3,MacIntel,60,12941,,,,,,,,,,,,,,0,1,1,1,1,7,,,,,,,,,,,,,,,,,,,,,,,,,,,,,,,,,,,,,,,,,,,,,,
,,,,,,,,,,,,,,,,,,,,,,,,20,female,2020-09-28_13h26.56.040,torte-2b,2020.1.3,MacIntel,60,12941,,,,,,,,,,,,,,0,2,2,2,1,6,,,,,,,,,,,,,,,,,,,,,,,,,,,,,,,,,,,,,,,,,,,,,,
,,,,,,,,,,,,,,,,,,,,,,,,20,female,2020-09-28_13h26.56.040,torte-2b,2020.1.3,MacIntel,60,12941,,,,,,,,,,,,,,0,3,3,3,1,7,,,,,,,,,,,,,,,,,,,,,,,,,,,,,,,,,,,,,,,,,,,,,,
,,,,,,,,,,,,,,,,,,,,,,,,20,female,2020-09-28_13h26.56.040,torte-2b,2020.1.3,MacIntel,60,12941,,,,,,,,,,,,,,0,4,4,4,1,5,,,,,,,,,,,,,,,,,,,,,,,,,,,,,,,,,,,,,,,,,,,,,,
,,,,,,,,,,,,,,,,,,,,,,,,20,female,2020-09-28_13h26.56.040,torte-2b,2020.1.3,MacIntel,60,12941,,,,,,,,,,,,,,0,5,5,5,1,7,,,,,,,,,,,,,,,,,,,,,,,,,,,,,,,,,,,,,,,,,,,,,,
,,,,,,,,,,,,,,,,,,,,,,,,20,female,2020-09-28_13h26.56.040,torte-2b,2020.1.3,MacIntel,60,12941,,,,,,,,,,,,,,0,6,6,6,1,2,,,,,,,,,,,,,,,,,,,,,,,,,,,,,,,,,,,,,,,,,,,,,,
,,,,,,,,,,,,,,,,,,,,,,,,20,female,2020-09-28_13h26.56.040,torte-2b,2020.1.3,MacIntel,60,12941,,,,,,,,,,,,,,0,7,7,7,1,4,,,,,,,,,,,,,,,,,,,,,,,,,,,,,,,,,,,,,,,,,,,,,,
,,,,,,,,,,,,,,,,,,,,,,,,20,female,2020-09-28_13h26.56.040,torte-2b,2020.1.3,MacIntel,60,12941,,,,,,,,,,,,,,0,8,8,8,1,7,,,,,,,,,,,,,,,,,,,,,,,,,,,,,,,,,,,,,,,,,,,,,,
,,,,,,,,,,,,,,,,,,,,,,,,20,female,2020-09-28_13h26.56.040,torte-2b,2020.1.3,MacIntel,60,12941,,,,,,,,,,,,,,0,9,9,9,1,4,,,,,,,,,,,,,,,,,,,,,,,,,,,,,,,,,,,,,,,,,,,,,,
,,,,,,,,,,,,,,,,,,,,,,,,20,female,2020-09-28_13h26.56.040,torte-2b,2020.1.3,MacIntel,60,12941,,,,,,,,,,,,,,0,10,10,10,1,7,,,,,,,,,,,,,,,,,,,,,,,,,,,,,,,,,,,,,,,,,,,,,,
,,,,,,,,,,,,,,,,,,,,,,,,20,female,2020-09-28_13h26.56.040,torte-2b,2020.1.3,MacIntel,60,12941,,,,,,,,,,,,,,0,11,11,11,1,7,,,,,,,,,,,,,,,,,,,,,,,,,,,,,,,,,,,,,,,,,,,,,,
,,,,,,,,,,,,,,,,,,,,,,,,20,female,2020-09-28_13h26.56.040,torte-2b,2020.1.3,MacIntel,60,12941,,,,,,,,,,,,,,0,12,12,12,1,7,,,,,,,,,,,,,,,,,,,,,,,,,,,,,,,,,,,,,,,,,,,,,,
,,,,,,,,,,,,,,,,,,,,,,,,20,female,2020-09-28_13h26.56.040,torte-2b,2020.1.3,MacIntel,60,12941,,,,,,,,,,,,,,0,13,13,13,1,4,,,,,,,,,,,,,,,,,,,,,,,,,,,,,,,,,,,,,,,,,,,,,,
,,,,,,,,,,,,,,,,,,,,,,,,20,female,2020-09-28_13h26.56.040,torte-2b,2020.1.3,MacIntel,60,12941,,,,,,,,,,,,,,0,14,14,14,1,6,,,,,,,,,,,,,,,,,,,,,,,,,,,,,,,,,,,,,,,,,,,,,,
,,,,,,,,,,,,,,,,,,,,,,,,20,female,2020-09-28_13h26.56.040,torte-2b,2020.1.3,MacIntel,60,12941,,,,,,,,,,,,,,0,15,15,15,1,4,,,,,,,,,,,,,,,,,,,,,,,,,,,,,,,,,,,,,,,,,,,,,,
,,,,,,,,,,,,,,,,,,,,,,,,20,female,2020-09-28_13h26.56.040,torte-2b,2020.1.3,MacIntel,60,12941,,,,,,,,,,,,,,0,16,16,16,1,6,,,,,,,,,,,,,,,,,,,,,,,,,,,,,,,,,,,,,,,,,,,,,,
,,,,,,,,,,,,,,,,,,,,,,,,20,female,2020-09-28_13h26.56.040,torte-2b,2020.1.3,MacIntel,60,12941,,,,,,,,,,,,,,0,17,17,17,1,7,,,,,,,,,,,,,,,,,,,,,,,,,,,,,,,,,,,,,,,,,,,,,,
,,,,,,,,,,,,,,,,,,,,,,,,20,female,2020-09-28_13h26.56.040,torte-2b,2020.1.3,MacIntel,60,12941,,,,,,,,,,,,,,0,18,18,18,1,6,,,,,,,,,,,,,,,,,,,,,,,,,,,,,,,,,,,,,,,,,,,,,,
,,,,,,,,,,,,,,,,,,,,,,,,20,female,2020-09-28_13h26.56.040,torte-2b,2020.1.3,MacIntel,60,12941,,,,,,,,,,,,,,0,19,19,19,1,7,,,,,,,,,,,,,,,,,,,,,,,,,,,,,,,,,,,,,,,,,,,,,,
,,,,,,,,,,,,,,,,,,,,,,,,20,female,2020-09-28_13h26.56.040,torte-2b,2020.1.3,MacIntel,60,12941,,,,,,,,,,,,,,0,20,20,20,1,5,,,,,,,,,,,,,,,,,,,,,,,,,,,,,,,,,,,,,,,,,,,,,,
,,,,,,,,,,,,,,,,,,,,,,,,20,female,2020-09-28_13h26.56.040,torte-2b,2020.1.3,MacIntel,60,12941,,,,,,,,,,,,,,0,21,21,21,1,1,,,,,,,,,,,,,,,,,,,,,,,,,,,,,,,,,,,,,,,,,,,,,,
,,,,,,,,,,,,,,,,,,,,,,,,20,female,2020-09-28_13h26.56.040,torte-2b,2020.1.3,MacIntel,60,12941,,,,,,,,,,,,,,0,22,22,22,1,6,,,,,,,,,,,,,,,,,,,,,,,,,,,,,,,,,,,,,,,,,,,,,,
,,,,,,,,,,,,,,,,,,,,,,,,20,female,2020-09-28_13h26.56.040,torte-2b,2020.1.3,MacIntel,60,12941,,,,,,,,,,,,,,0,23,23,23,1,1,,,,,,,,,,,,,,,,,,,,,,,,,,,,,,,,,,,,,,,,,,,,,,
,,,,,,,,,,,,,,,,,,,,,,,,20,female,2020-09-28_13h26.56.040,torte-2b,2020.1.3,MacIntel,60,12941,,,,,,,,,,,,,,0,24,24,24,1,5,,,,,,,,,,,,,,,,,,,,,,,,,,,,,,,,,,,,,,,,,,,,,,
,,,,,,,,,,,,,,,,,,,,,,,,20,female,2020-09-28_13h26.56.040,torte-2b,2020.1.3,MacIntel,60,12941,,,,,,,,,,,,,,0,25,25,25,1,6,,,,,,,,,,,,,,,,,,,,,,,,,,,,,,,,,,,,,,,,,,,,,,
,,,,,,,,,,,,,,,,,,,,,,,,20,female,2020-09-28_13h26.56.040,torte-2b,2020.1.3,MacIntel,60,12941,,,,,,,,,,,,,,0,26,26,26,1,6,,,,,,,,,,,,,,,,,,,,,,,,,,,,,,,,,,,,,,,,,,,,,,
,,,,,,,,,,,,,,,,,,,,,,,,20,female,2020-09-28_13h26.56.040,torte-2b,2020.1.3,MacIntel,60,12941,,,,,,,,,,,,,,0,27,27,27,1,6,,,,,,,,,,,,,,,,,,,,,,,,,,,,,,,,,,,,,,,,,,,,,,
,,,,,,,,,,,,,,,,,,,,,,,,20,female,2020-09-28_13h26.56.040,torte-2b,2020.1.3,MacIntel,60,12941,,,,,,,,,,,,,,0,28,28,28,1,5,,,,,,,,,,,,,,,,,,,,,,,,,,,,,,,,,,,,,,,,,,,,,,
,,,,,,,,,,,,,,,,,,,,,,,,20,female,2020-09-28_13h26.56.040,torte-2b,2020.1.3,MacIntel,60,12941,,,,,,,,,,,,,,0,29,29,29,1,2,,,,,,,,,,,,,,,,,,,,,,,,,,,,,,,,,,,,,,,,,,,,,,
,,,,,,,,,,,,,,,,,,,,,,,,20,female,2020-09-28_13h26.56.040,torte-2b,2020.1.3,MacIntel,60,12941,,,,,,,,,,,,,,0,30,30,30,1,5,,,,,,,,,,,,,,,,,,,,,,,,,,,,,,,,,,,,,,,,,,,,,,
,,,,,,,,,,,,,,,,,,,,,,,,20,female,2020-09-28_13h26.56.040,torte-2b,2020.1.3,MacIntel,60,12941,,,,,,,,,,,,,,0,31,31,31,1,2,,,,,,,,,,,,,,,,,,,,,,,,,,,,,,,,,,,,,,,,,,,,,,
,,,,,,,,,,,,,,,,,,,,,,,,20,female,2020-09-28_13h26.56.040,torte-2b,2020.1.3,MacIntel,60,12941,,,,,,,,,,,,,,0,32,32,32,1,5,,,,,,,,,,,,,,,,,,,,,,,,,,,,,,,,,,,,,,,,,,,,,,
,,,,,,,,,,,,,,,,,,,,,,,,20,female,2020-09-28_13h26.56.040,torte-2b,2020.1.3,MacIntel,60,12941,,,,,,,,,,,,,,0,33,33,33,1,1,,,,,,,,,,,,,,,,,,,,,,,,,,,,,,,,,,,,,,,,,,,,,,
,,,,,,,,,,,,,,,,,,,,,,,,20,female,2020-09-28_13h26.56.040,torte-2b,2020.1.3,MacIntel,60,12941,,,,,,,,,,,,,,0,34,34,34,1,1,,,,,,,,,,,,,,,,,,,,,,,,,,,,,,,,,,,,,,,,,,,,,,
,,,,,,,,,,,,,,,,,,,,,,,,20,female,2020-09-28_13h26.56.040,torte-2b,2020.1.3,MacIntel,60,12941,,,,,,,,,,,,,,,,,,,2,0,0,0,0,1,,,,,,,,,,,,,,,,,,,,,,,,,,,,,,,,,,,,,,,,,
,,,,,,,,,,,,,,,,,,,,,,,,20,female,2020-09-28_13h26.56.040,torte-2b,2020.1.3,MacIntel,60,12941,,,,,,,,,,,,,,,,,,,2,0,1,1,1,1,,,,,,,,,,,,,,,,,,,,,,,,,,,,,,,,,,,,,,,,,
,,,,,,,,,,,,,,,,,,,,,,,,20,female,2020-09-28_13h26.56.040,torte-2b,2020.1.3,MacIntel,60,12941,,,,,,,,,,,,,,,,,,,6,0,2,2,2,1,,,,,,,,,,,,,,,,,,,,,,,,,,,,,,,,,,,,,,,,,
,,,,,,,,,,,,,,,,,,,,,,,,20,female,2020-09-28_13h26.56.040,torte-2b,2020.1.3,MacIntel,60,12941,,,,,,,,,,,,,,,,,,,2,0,3,3,3,1,,,,,,,,,,,,,,,,,,,,,,,,,,,,,,,,,,,,,,,,,
,,,,,,,,,,,,,,,,,,,,,,,,20,female,2020-09-28_13h26.56.040,torte-2b,2020.1.3,MacIntel,60,12941,,,,,,,,,,,,,,,,,,,6,0,4,4,4,1,,,,,,,,,,,,,,,,,,,,,,,,,,,,,,,,,,,,,,,,,
,,,,,,,,,,,,,,,,,,,,,,,,20,female,2020-09-28_13h26.56.040,torte-2b,2020.1.3,MacIntel,60,12941,,,,,,,,,,,,,,,,,,,2,0,5,5,5,1,,,,,,,,,,,,,,,,,,,,,,,,,,,,,,,,,,,,,,,,,
,,,,,,,,,,,,,,,,,,,,,,,,20,female,2020-09-28_13h26.56.040,torte-2b,2020.1.3,MacIntel,60,12941,,,,,,,,,,,,,,,,,,,7,0,6,6,6,1,,,,,,,,,,,,,,,,,,,,,,,,,,,,,,,,,,,,,,,,,
,,,,,,,,,,,,,,,,,,,,,,,,20,female,2020-09-28_13h26.56.040,torte-2b,2020.1.3,MacIntel,60,12941,,,,,,,,,,,,,,,,,,,2,0,7,7,7,1,,,,,,,,,,,,,,,,,,,,,,,,,,,,,,,,,,,,,,,,,
,,,,,,,,,,,,,,,,,,,,,,,,20,female,2020-09-28_13h26.56.040,torte-2b,2020.1.3,MacIntel,60,12941,,,,,,,,,,,,,,,,,,,7,0,8,8,8,1,,,,,,,,,,,,,,,,,,,,,,,,,,,,,,,,,,,,,,,,,
,,,,,,,,,,,,,,,,,,,,,,,,20,female,2020-09-28_13h26.56.040,torte-2b,2020.1.3,MacIntel,60,12941,,,,,,,,,,,,,,,,,,,2,0,9,9,9,1,,,,,,,,,,,,,,,,,,,,,,,,,,,,,,,,,,,,,,,,,
,,,,,,,,,,,,,,,,,,,,,,,,20,female,2020-09-28_13h26.56.040,torte-2b,2020.1.3,MacIntel,60,12941,,,,,,,,,,,,,,,,,,,5,0,10,10,10,1,,,,,,,,,,,,,,,,,,,,,,,,,,,,,,,,,,,,,,,,,
,,,,,,,,,,,,,,,,,,,,,,,,20,female,2020-09-28_13h26.56.040,torte-2b,2020.1.3,MacIntel,60,12941,,,,,,,,,,,,,,,,,,,4,0,11,11,11,1,,,,,,,,,,,,,,,,,,,,,,,,,,,,,,,,,,,,,,,,,
,,,,,,,,,,,,,,,,,,,,,,,,20,female,2020-09-28_13h26.56.040,torte-2b,2020.1.3,MacIntel,60,12941,,,,,,,,,,,,,,,,,,,5,0,12,12,12,1,,,,,,,,,,,,,,,,,,,,,,,,,,,,,,,,,,,,,,,,,
,,,,,,,,,,,,,,,,,,,,,,,,20,female,2020-09-28_13h26.56.040,torte-2b,2020.1.3,MacIntel,60,12941,,,,,,,,,,,,,,,,,,,6,0,13,13,13,1,,,,,,,,,,,,,,,,,,,,,,,,,,,,,,,,,,,,,,,,,
,,,,,,,,,,,,,,,,,,,,,,,,20,female,2020-09-28_13h26.56.040,torte-2b,2020.1.3,MacIntel,60,12941,,,,,,,,,,,,,,,,,,,5,0,14,14,14,1,,,,,,,,,,,,,,,,,,,,,,,,,,,,,,,,,,,,,,,,,
,,,,,,,,,,,,,,,,,,,,,,,,20,female,2020-09-28_13h26.56.040,torte-2b,2020.1.3,MacIntel,60,12941,,,,,,,,,,,,,,,,,,,4,0,15,15,15,1,,,,,,,,,,,,,,,,,,,,,,,,,,,,,,,,,,,,,,,,,
,,,,,,,,,,,,,,,,,,,,,,,,20,female,2020-09-28_13h26.56.040,torte-2b,2020.1.3,MacIntel,60,12941,,,,,,,,,,,,,,,,,,,5,0,16,16,16,1,,,,,,,,,,,,,,,,,,,,,,,,,,,,,,,,,,,,,,,,,
,,,,,,,,,,,,,,,,,,,,,,,,20,female,2020-09-28_13h26.56.040,torte-2b,2020.1.3,MacIntel,60,12941,,,,,,,,,,,,,,,,,,,3,0,17,17,17,1,,,,,,,,,,,,,,,,,,,,,,,,,,,,,,,,,,,,,,,,,
,,,,,,,,,,,,,,,,,,,,,,,,20,female,2020-09-28_13h26.56.040,torte-2b,2020.1.3,MacIntel,60,12941,,,,,,,,,,,,,,,,,,,6,0,18,18,18,1,,,,,,,,,,,,,,,,,,,,,,,,,,,,,,,,,,,,,,,,,
,,,,,,,,,,,,,,,,,,,,,,,,20,female,2020-09-28_13h26.56.040,torte-2b,2020.1.3,MacIntel,60,12941,,,,,,,,,,,,,,,,,,,6,0,19,19,19,1,,,,,,,,,,,,,,,,,,,,,,,,,,,,,,,,,,,,,,,,,
,,,,,,,,,,,,,,,,,,,,,,,,20,female,2020-09-28_13h26.56.040,torte-2b,2020.1.3,MacIntel,60,12941,,,,,,,,,,,,,,,,,,,6,0,20,20,20,1,,,,,,,,,,,,,,,,,,,,,,,,,,,,,,,,,,,,,,,,,
,,,,,,,,,,,,,,,,,,,,,,,,20,female,2020-09-28_13h26.56.040,torte-2b,2020.1.3,MacIntel,60,12941,,,,,,,,,,,,,,,,,,,4,0,21,21,21,1,,,,,,,,,,,,,,,,,,,,,,,,,,,,,,,,,,,,,,,,,
,,,,,,,,,,,,,,,,,,,,,,,,20,female,2020-09-28_13h26.56.040,torte-2b,2020.1.3,MacIntel,60,12941,,,,,,,,,,,,,,,,,,,6,0,22,22,22,1,,,,,,,,,,,,,,,,,,,,,,,,,,,,,,,,,,,,,,,,,
,,,,,,,,,,,,,,,,,,,,,,,,20,female,2020-09-28_13h26.56.040,torte-2b,2020.1.3,MacIntel,60,12941,,,,,,,,,,,,,,,,,,,4,0,23,23,23,1,,,,,,,,,,,,,,,,,,,,,,,,,,,,,,,,,,,,,,,,,
,,,,,,,,,,,,,,,,,,,,,,,,20,female,2020-09-28_13h26.56.040,torte-2b,2020.1.3,MacIntel,60,12941,,,,,,,,,,,,,,,,,,,6,0,24,24,24,1,,,,,,,,,,,,,,,,,,,,,,,,,,,,,,,,,,,,,,,,,
,,,,,,,,,,,,,,,,,,,,,,,,20,female,2020-09-28_13h26.56.040,torte-2b,2020.1.3,MacIntel,60,12941,,,,,,,,,,,,,,,,,,,6,0,25,25,25,1,,,,,,,,,,,,,,,,,,,,,,,,,,,,,,,,,,,,,,,,,
,,,,,,,,,,,,,,,,,,,,,,,,20,female,2020-09-28_13h26.56.040,torte-2b,2020.1.3,MacIntel,60,12941,,,,,,,,,,,,,,,,,,,7,0,26,26,26,1,,,,,,,,,,,,,,,,,,,,,,,,,,,,,,,,,,,,,,,,,
,,,,,,,,,,,,,,,,,,,,,,,,20,female,2020-09-28_13h26.56.040,torte-2b,2020.1.3,MacIntel,60,12941,,,,,,,,,,,,,,,,,,,1,0,27,27,27,1,,,,,,,,,,,,,,,,,,,,,,,,,,,,,,,,,,,,,,,,,
,,,,,,,,,,,,,,,,,,,,,,,,20,female,2020-09-28_13h26.56.040,torte-2b,2020.1.3,MacIntel,60,12941,,,,,,,,,,,,,,,,,,,7,0,28,28,28,1,,,,,,,,,,,,,,,,,,,,,,,,,,,,,,,,,,,,,,,,,
,,,,,,,,,,,,,,,,,,,,,,,,20,female,2020-09-28_13h26.56.040,torte-2b,2020.1.3,MacIntel,60,12941,,,,,,,,,,,,,,,,,,,4,0,29,29,29,1,,,,,,,,,,,,,,,,,,,,,,,,,,,,,,,,,,,,,,,,,
,,,,,,,,,,,,,,,,,,,,,,,,20,female,2020-09-28_13h26.56.040,torte-2b,2020.1.3,MacIntel,60,12941,,,,,,,,,,,,,,,,,,,7,0,30,30,30,1,,,,,,,,,,,,,,,,,,,,,,,,,,,,,,,,,,,,,,,,,
,,,,,,,,,,,,,,,,,,,,,,,,20,female,2020-09-28_13h26.56.040,torte-2b,2020.1.3,MacIntel,60,12941,,,,,,,,,,,,,,,,,,,3,0,31,31,31,1,,,,,,,,,,,,,,,,,,,,,,,,,,,,,,,,,,,,,,,,,
,,,,,,,,,,,,,,,,,,,,,,,,20,female,2020-09-28_13h26.56.040,torte-2b,2020.1.3,MacIntel,60,12941,,,,,,,,,,,,,,,,,,,2,0,32,32,32,1,,,,,,,,,,,,,,,,,,,,,,,,,,,,,,,,,,,,,,,,,
,,,,,,,,,,,,,,,,,,,,,,,,20,female,2020-09-28_13h26.56.040,torte-2b,2020.1.3,MacIntel,60,12941,,,,,,,,,,,,,,,,,,,6,0,33,33,33,1,,,,,,,,,,,,,,,,,,,,,,,,,,,,,,,,,,,,,,,,,
,,,,,,,,,,,,,,,,,,,,,,,,20,female,2020-09-28_13h26.56.040,torte-2b,2020.1.3,MacIntel,60,12941,,,,,,,,,,,,,,,,,,,3,0,34,34,34,1,,,,,,,,,,,,,,,,,,,,,,,,,,,,,,,,,,,,,,,,,
,,,,,,,,,,,,,,,,,,,,,,,,20,female,2020-09-28_13h26.56.040,torte-2b,2020.1.3,MacIntel,60,12941,,,,,,,,,,,,,,,,,,,7,,,,,,0,0,0,0,1,,,,,,,,,,,,,,,,,,,,,,,,,,,,,,,,,,,,
,,,,,,,,,,,,,,,,,,,,,,,,20,female,2020-09-28_13h26.56.040,torte-2b,2020.1.3,MacIntel,60,12941,,,,,,,,,,,,,,,,,,,5,,,,,,0,1,1,1,1,,,,,,,,,,,,,,,,,,,,,,,,,,,,,,,,,,,,
,,,,,,,,,,,,,,,,,,,,,,,,20,female,2020-09-28_13h26.56.040,torte-2b,2020.1.3,MacIntel,60,12941,,,,,,,,,,,,,,,,,,,4,,,,,,0,2,2,2,1,,,,,,,,,,,,,,,,,,,,,,,,,,,,,,,,,,,,
,,,,,,,,,,,,,,,,,,,,,,,,20,female,2020-09-28_13h26.56.040,torte-2b,2020.1.3,MacIntel,60,12941,,,,,,,,,,,,,,,,,,,5,,,,,,0,3,3,3,1,,,,,,,,,,,,,,,,,,,,,,,,,,,,,,,,,,,,
,,,,,,,,,,,,,,,,,,,,,,,,20,female,2020-09-28_13h26.56.040,torte-2b,2020.1.3,MacIntel,60,12941,,,,,,,,,,,,,,,,,,,6,,,,,,0,4,4,4,1,,,,,,,,,,,,,,,,,,,,,,,,,,,,,,,,,,,,
,,,,,,,,,,,,,,,,,,,,,,,,20,female,2020-09-28_13h26.56.040,torte-2b,2020.1.3,MacIntel,60,12941,,,,,,,,,,,,,,,,,,,5,,,,,,0,5,5,5,1,,,,,,,,,,,,,,,,,,,,,,,,,,,,,,,,,,,,
,,,,,,,,,,,,,,,,,,,,,,,,20,female,2020-09-28_13h26.56.040,torte-2b,2020.1.3,MacIntel,60,12941,,,,,,,,,,,,,,,,,,,3,,,,,,0,6,6,6,1,,,,,,,,,,,,,,,,,,,,,,,,,,,,,,,,,,,,
,,,,,,,,,,,,,,,,,,,,,,,,20,female,2020-09-28_13h26.56.040,torte-2b,2020.1.3,MacIntel,60,12941,,,,,,,,,,,,,,,,,,,4,,,,,,0,7,7,7,1,,,,,,,,,,,,,,,,,,,,,,,,,,,,,,,,,,,,
,,,,,,,,,,,,,,,,,,,,,,,,20,female,2020-09-28_13h26.56.040,torte-2b,2020.1.3,MacIntel,60,12941,,,,,,,,,,,,,,,,,,,3,,,,,,0,8,8,8,1,,,,,,,,,,,,,,,,,,,,,,,,,,,,,,,,,,,,
,,,,,,,,,,,,,,,,,,,,,,,,20,female,2020-09-28_13h26.56.040,torte-2b,2020.1.3,MacIntel,60,12941,,,,,,,,,,,,,,,,,,,1,,,,,,0,9,9,9,1,,,,,,,,,,,,,,,,,,,,,,,,,,,,,,,,,,,,
,,,,,,,,,,,,,,,,,,,,,,,,20,female,2020-09-28_13h26.56.040,torte-2b,2020.1.3,MacIntel,60,12941,,,,,,,,,,,,,,,,,,,2,,,,,,0,10,10,10,1,,,,,,,,,,,,,,,,,,,,,,,,,,,,,,,,,,,,
,,,,,,,,,,,,,,,,,,,,,,,,20,female,2020-09-28_13h26.56.040,torte-2b,2020.1.3,MacIntel,60,12941,,,,,,,,,,,,,,,,,,,1,,,,,,0,11,11,11,1,,,,,,,,,,,,,,,,,,,,,,,,,,,,,,,,,,,,
,,,,,,,,,,,,,,,,,,,,,,,,20,female,2020-09-28_13h26.56.040,torte-2b,2020.1.3,MacIntel,60,12941,,,,,,,,,,,,,,,,,,,2,,,,,,0,12,12,12,1,,,,,,,,,,,,,,,,,,,,,,,,,,,,,,,,,,,,
,,,,,,,,,,,,,,,,,,,,,,,,20,female,2020-09-28_13h26.56.040,torte-2b,2020.1.3,MacIntel,60,12941,,,,,,,,,,,,,,,,,,,1,,,,,,0,13,13,13,1,,,,,,,,,,,,,,,,,,,,,,,,,,,,,,,,,,,,
,,,,,,,,,,,,,,,,,,,,,,,,20,female,2020-09-28_13h26.56.040,torte-2b,2020.1.3,MacIntel,60,12941,,,,,,,,,,,,,,,,,,,3,,,,,,0,14,14,14,1,,,,,,,,,,,,,,,,,,,,,,,,,,,,,,,,,,,,
,,,,,,,,,,,,,,,,,,,,,,,,20,female,2020-09-28_13h26.56.040,torte-2b,2020.1.3,MacIntel,60,12941,,,,,,,,,,,,,,,,,,,1,,,,,,0,15,15,15,1,,,,,,,,,,,,,,,,,,,,,,,,,,,,,,,,,,,,
,,,,,,,,,,,,,,,,,,,,,,,,20,female,2020-09-28_13h26.56.040,torte-2b,2020.1.3,MacIntel,60,12941,,,,,,,,,,,,,,,,,,,7,,,,,,0,16,16,16,1,,,,,,,,,,,,,,,,,,,,,,,,,,,,,,,,,,,,
,,,,,,,,,,,,,,,,,,,,,,,,20,female,2020-09-28_13h26.56.040,torte-2b,2020.1.3,MacIntel,60,12941,,,,,,,,,,,,,,,,,,,7,,,,,,0,17,17,17,1,,,,,,,,,,,,,,,,,,,,,,,,,,,,,,,,,,,,
,,,,,,,,,,,,,,,,,,,,,,,,20,female,2020-09-28_13h26.56.040,torte-2b,2020.1.3,MacIntel,60,12941,,,,,,,,,,,,,,,,,,,4,,,,,,0,18,18,18,1,,,,,,,,,,,,,,,,,,,,,,,,,,,,,,,,,,,,
,,,,,,,,,,,,,,,,,,,,,,,,20,female,2020-09-28_13h26.56.040,torte-2b,2020.1.3,MacIntel,60,12941,,,,,,,,,,,,,,,,,,,7,,,,,,0,19,19,19,1,,,,,,,,,,,,,,,,,,,,,,,,,,,,,,,,,,,,
,,,,,,,,,,,,,,,,,,,,,,,,20,female,2020-09-28_13h26.56.040,torte-2b,2020.1.3,MacIntel,60,12941,,,,,,,,,,,,,,,,,,,3,,,,,,0,20,20,20,1,,,,,,,,,,,,,,,,,,,,,,,,,,,,,,,,,,,,
,,,,,,,,,,,,,,,,,,,,,,,,20,female,2020-09-28_13h26.56.040,torte-2b,2020.1.3,MacIntel,60,12941,,,,,,,,,,,,,,,,,,,7,,,,,,0,21,21,21,1,,,,,,,,,,,,,,,,,,,,,,,,,,,,,,,,,,,,
,,,,,,,,,,,,,,,,,,,,,,,,20,female,2020-09-28_13h26.56.040,torte-2b,2020.1.3,MacIntel,60,12941,,,,,,,,,,,,,,,,,,,3,,,,,,0,22,22,22,1,,,,,,,,,,,,,,,,,,,,,,,,,,,,,,,,,,,,
,,,,,,,,,,,,,,,,,,,,,,,,20,female,2020-09-28_13h26.56.040,torte-2b,2020.1.3,MacIntel,60,12941,,,,,,,,,,,,,,,,,,,1,,,,,,0,23,23,23,1,,,,,,,,,,,,,,,,,,,,,,,,,,,,,,,,,,,,
,,,,,,,,,,,,,,,,,,,,,,,,20,female,2020-09-28_13h26.56.040,torte-2b,2020.1.3,MacIntel,60,12941,,,,,,,,,,,,,,,,,,,6,,,,,,0,24,24,24,1,,,,,,,,,,,,,,,,,,,,,,,,,,,,,,,,,,,,
,,,,,,,,,,,,,,,,,,,,,,,,20,female,2020-09-28_13h26.56.040,torte-2b,2020.1.3,MacIntel,60,12941,,,,,,,,,,,,,,,,,,,3,,,,,,0,25,25,25,1,,,,,,,,,,,,,,,,,,,,,,,,,,,,,,,,,,,,
,,,,,,,,,,,,,,,,,,,,,,,,20,female,2020-09-28_13h26.56.040,torte-2b,2020.1.3,MacIntel,60,12941,,,,,,,,,,,,,,,,,,,2,,,,,,0,26,26,26,1,,,,,,,,,,,,,,,,,,,,,,,,,,,,,,,,,,,,
,,,,,,,,,,,,,,,,,,,,,,,,20,female,2020-09-28_13h26.56.040,torte-2b,2020.1.3,MacIntel,60,12941,,,,,,,,,,,,,,,,,,,3,,,,,,0,27,27,27,1,,,,,,,,,,,,,,,,,,,,,,,,,,,,,,,,,,,,
,,,,,,,,,,,,,,,,,,,,,,,,20,female,2020-09-28_13h26.56.040,torte-2b,2020.1.3,MacIntel,60,12941,,,,,,,,,,,,,,,,,,,1,,,,,,0,28,28,28,1,,,,,,,,,,,,,,,,,,,,,,,,,,,,,,,,,,,,
,,,,,,,,,,,,,,,,,,,,,,,,20,female,2020-09-28_13h26.56.040,torte-2b,2020.1.3,MacIntel,60,12941,,,,,,,,,,,,,,,,,,,3,,,,,,0,29,29,29,1,,,,,,,,,,,,,,,,,,,,,,,,,,,,,,,,,,,,
,,,,,,,,,,,,,,,,,,,,,,,,20,female,2020-09-28_13h26.56.040,torte-2b,2020.1.3,MacIntel,60,12941,,,,,,,,,,,,,,,,,,,1,,,,,,0,30,30,30,1,,,,,,,,,,,,,,,,,,,,,,,,,,,,,,,,,,,,
,,,,,,,,,,,,,,,,,,,,,,,,20,female,2020-09-28_13h26.56.040,torte-2b,2020.1.3,MacIntel,60,12941,,,,,,,,,,,,,,,,,,,7,,,,,,0,31,31,31,1,,,,,,,,,,,,,,,,,,,,,,,,,,,,,,,,,,,,
,,,,,,,,,,,,,,,,,,,,,,,,20,female,2020-09-28_13h26.56.040,torte-2b,2020.1.3,MacIntel,60,12941,,,,,,,,,,,,,,,,,,,5,,,,,,0,32,32,32,1,,,,,,,,,,,,,,,,,,,,,,,,,,,,,,,,,,,,
,,,,,,,,,,,,,,,,,,,,,,,,20,female,2020-09-28_13h26.56.040,torte-2b,2020.1.3,MacIntel,60,12941,,,,,,,,,,,,,,,,,,,7,,,,,,0,33,33,33,1,,,,,,,,,,,,,,,,,,,,,,,,,,,,,,,,,,,,
,,,,,,,,,,,,,,,,,,,,,,,,20,female,2020-09-28_13h26.56.040,torte-2b,2020.1.3,MacIntel,60,12941,,,,,,,,,,,,,,,,,,,2,,,,,,0,34,34,34,1,,,,,,,,,,,,,,,,,,,,,,,,,,,,,,,,,,,,
,,,,,,,,,,,,,,,,,,,,,,,,20,female,2020-09-28_13h26.56.040,torte-2b,2020.1.3,MacIntel,60,12941,,,,,,,,,,,,,,,,,,,3,,,,,,,,,,,0,0,0,0,1,,,,,,,,,,,,,,,,,,,,,,,,,,,,,,,
,,,,,,,,,,,,,,,,,,,,,,,,20,female,2020-09-28_13h26.56.040,torte-2b,2020.1.3,MacIntel,60,12941,,,,,,,,,,,,,,,,,,,7,,,,,,,,,,,0,1,1,1,1,,,,,,,,,,,,,,,,,,,,,,,,,,,,,,,
,,,,,,,,,,,,,,,,,,,,,,,,20,female,2020-09-28_13h26.56.040,torte-2b,2020.1.3,MacIntel,60,12941,,,,,,,,,,,,,,,,,,,7,,,,,,,,,,,0,2,2,2,1,,,,,,,,,,,,,,,,,,,,,,,,,,,,,,,
,,,,,,,,,,,,,,,,,,,,,,,,20,female,2020-09-28_13h26.56.040,torte-2b,2020.1.3,MacIntel,60,12941,,,,,,,,,,,,,,,,,,,4,,,,,,,,,,,0,3,3,3,1,,,,,,,,,,,,,,,,,,,,,,,,,,,,,,,
,,,,,,,,,,,,,,,,,,,,,,,,20,female,2020-09-28_13h26.56.040,torte-2b,2020.1.3,MacIntel,60,12941,,,,,,,,,,,,,,,,,,,5,,,,,,,,,,,0,4,4,4,1,,,,,,,,,,,,,,,,,,,,,,,,,,,,,,,
,,,,,,,,,,,,,,,,,,,,,,,,20,female,2020-09-28_13h26.56.040,torte-2b,2020.1.3,MacIntel,60,12941,,,,,,,,,,,,,,,,,,,4,,,,,,,,,,,0,5,5,5,1,,,,,,,,,,,,,,,,,,,,,,,,,,,,,,,
,,,,,,,,,,,,,,,,,,,,,,,,20,female,2020-09-28_13h26.56.040,torte-2b,2020.1.3,MacIntel,60,12941,,,,,,,,,,,,,,,,,,,2,,,,,,,,,,,0,6,6,6,1,,,,,,,,,,,,,,,,,,,,,,,,,,,,,,,
,,,,,,,,,,,,,,,,,,,,,,,,20,female,2020-09-28_13h26.56.040,torte-2b,2020.1.3,MacIntel,60,12941,,,,,,,,,,,,,,,,,,,4,,,,,,,,,,,0,7,7,7,1,,,,,,,,,,,,,,,,,,,,,,,,,,,,,,,
,,,,,,,,,,,,,,,,,,,,,,,,20,female,2020-09-28_13h26.56.040,torte-2b,2020.1.3,MacIntel,60,12941,,,,,,,,,,,,,,,,,,,2,,,,,,,,,,,0,8,8,8,1,,,,,,,,,,,,,,,,,,,,,,,,,,,,,,,
,,,,,,,,,,,,,,,,,,,,,,,,20,female,2020-09-28_13h26.56.040,torte-2b,2020.1.3,MacIntel,60,12941,,,,,,,,,,,,,,,,,,,2,,,,,,,,,,,0,9,9,9,1,,,,,,,,,,,,,,,,,,,,,,,,,,,,,,,
,,,,,,,,,,,,,,,,,,,,,,,,20,female,2020-09-28_13h26.56.040,torte-2b,2020.1.3,MacIntel,60,12941,,,,,,,,,,,,,,,,,,,6,,,,,,,,,,,0,10,10,10,1,,,,,,,,,,,,,,,,,,,,,,,,,,,,,,,
,,,,,,,,,,,,,,,,,,,,,,,,20,female,2020-09-28_13h26.56.040,torte-2b,2020.1.3,MacIntel,60,12941,,,,,,,,,,,,,,,,,,,2,,,,,,,,,,,0,11,11,11,1,,,,,,,,,,,,,,,,,,,,,,,,,,,,,,,
,,,,,,,,,,,,,,,,,,,,,,,,20,female,2020-09-28_13h26.56.040,torte-2b,2020.1.3,MacIntel,60,12941,,,,,,,,,,,,,,,,,,,2,,,,,,,,,,,0,12,12,12,1,,,,,,,,,,,,,,,,,,,,,,,,,,,,,,,
,,,,,,,,,,,,,,,,,,,,,,,,20,female,2020-09-28_13h26.56.040,torte-2b,2020.1.3,MacIntel,60,12941,,,,,,,,,,,,,,,,,,,2,,,,,,,,,,,0,13,13,13,1,,,,,,,,,,,,,,,,,,,,,,,,,,,,,,,
,,,,,,,,,,,,,,,,,,,,,,,,20,female,2020-09-28_13h26.56.040,torte-2b,2020.1.3,MacIntel,60,12941,,,,,,,,,,,,,,,,,,,2,,,,,,,,,,,0,14,14,14,1,,,,,,,,,,,,,,,,,,,,,,,,,,,,,,,
,,,,,,,,,,,,,,,,,,,,,,,,20,female,2020-09-28_13h26.56.040,torte-2b,2020.1.3,MacIntel,60,12941,,,,,,,,,,,,,,,,,,,4,,,,,,,,,,,0,15,15,15,1,,,,,,,,,,,,,,,,,,,,,,,,,,,,,,,
,,,,,,,,,,,,,,,,,,,,,,,,20,female,2020-09-28_13h26.56.040,torte-2b,2020.1.3,MacIntel,60,12941,,,,,,,,,,,,,,,,,,,3,,,,,,,,,,,0,16,16,16,1,,,,,,,,,,,,,,,,,,,,,,,,,,,,,,,
,,,,,,,,,,,,,,,,,,,,,,,,20,female,2020-09-28_13h26.56.040,torte-2b,2020.1.3,MacIntel,60,12941,,,,,,,,,,,,,,,,,,,7,,,,,,,,,,,0,17,17,17,1,,,,,,,,,,,,,,,,,,,,,,,,,,,,,,,
,,,,,,,,,,,,,,,,,,,,,,,,20,female,2020-09-28_13h26.56.040,torte-2b,2020.1.3,MacIntel,60,12941,,,,,,,,,,,,,,,,,,,4,,,,,,,,,,,0,18,18,18,1,,,,,,,,,,,,,,,,,,,,,,,,,,,,,,,
,,,,,,,,,,,,,,,,,,,,,,,,20,female,2020-09-28_13h26.56.040,torte-2b,2020.1.3,MacIntel,60,12941,,,,,,,,,,,,,,,,,,,7,,,,,,,,,,,0,19,19,19,1,,,,,,,,,,,,,,,,,,,,,,,,,,,,,,,
,,,,,,,,,,,,,,,,,,,,,,,,20,female,2020-09-28_13h26.56.040,torte-2b,2020.1.3,MacIntel,60,12941,,,,,,,,,,,,,,,,,,,7,,,,,,,,,,,0,20,20,20,1,,,,,,,,,,,,,,,,,,,,,,,,,,,,,,,
,,,,,,,,,,,,,,,,,,,,,,,,20,female,2020-09-28_13h26.56.040,torte-2b,2020.1.3,MacIntel,60,12941,,,,,,,,,,,,,,,,,,,7,,,,,,,,,,,0,21,21,21,1,,,,,,,,,,,,,,,,,,,,,,,,,,,,,,,
,,,,,,,,,,,,,,,,,,,,,,,,20,female,2020-09-28_13h26.56.040,torte-2b,2020.1.3,MacIntel,60,12941,,,,,,,,,,,,,,,,,,,7,,,,,,,,,,,0,22,22,22,1,,,,,,,,,,,,,,,,,,,,,,,,,,,,,,,
,,,,,,,,,,,,,,,,,,,,,,,,20,female,2020-09-28_13h26.56.040,torte-2b,2020.1.3,MacIntel,60,12941,,,,,,,,,,,,,,,,,,,1,,,,,,,,,,,0,23,23,23,1,,,,,,,,,,,,,,,,,,,,,,,,,,,,,,,
,,,,,,,,,,,,,,,,,,,,,,,,20,female,2020-09-28_13h26.56.040,torte-2b,2020.1.3,MacIntel,60,12941,,,,,,,,,,,,,,,,,,,7,,,,,,,,,,,0,24,24,24,1,,,,,,,,,,,,,,,,,,,,,,,,,,,,,,,
,,,,,,,,,,,,,,,,,,,,,,,,20,female,2020-09-28_13h26.56.040,torte-2b,2020.1.3,MacIntel,60,12941,,,,,,,,,,,,,,,,,,,1,,,,,,,,,,,0,25,25,25,1,,,,,,,,,,,,,,,,,,,,,,,,,,,,,,,
,,,,,,,,,,,,,,,,,,,,,,,,20,female,2020-09-28_13h26.56.040,torte-2b,2020.1.3,MacIntel,60,12941,,,,,,,,,,,,,,,,,,,7,,,,,,,,,,,0,26,26,26,1,,,,,,,,,,,,,,,,,,,,,,,,,,,,,,,
,,,,,,,,,,,,,,,,,,,,,,,,20,female,2020-09-28_13h26.56.040,torte-2b,2020.1.3,MacIntel,60,12941,,,,,,,,,,,,,,,,,,,2,,,,,,,,,,,0,27,27,27,1,,,,,,,,,,,,,,,,,,,,,,,,,,,,,,,
,,,,,,,,,,,,,,,,,,,,,,,,20,female,2020-09-28_13h26.56.040,torte-2b,2020.1.3,MacIntel,60,12941,,,,,,,,,,,,,,,,,,,5,,,,,,,,,,,0,28,28,28,1,,,,,,,,,,,,,,,,,,,,,,,,,,,,,,,
,,,,,,,,,,,,,,,,,,,,,,,,20,female,2020-09-28_13h26.56.040,torte-2b,2020.1.3,MacIntel,60,12941,,,,,,,,,,,,,,,,,,,5,,,,,,,,,,,0,29,29,29,1,,,,,,,,,,,,,,,,,,,,,,,,,,,,,,,
,,,,,,,,,,,,,,,,,,,,,,,,20,female,2020-09-28_13h26.56.040,torte-2b,2020.1.3,MacIntel,60,12941,,,,,,,,,,,,,,,,,,,5,,,,,,,,,,,0,30,30,30,1,,,,,,,,,,,,,,,,,,,,,,,,,,,,,,,
,,,,,,,,,,,,,,,,,,,,,,,,20,female,2020-09-28_13h26.56.040,torte-2b,2020.1.3,MacIntel,60,12941,,,,,,,,,,,,,,,,,,,1,,,,,,,,,,,0,31,31,31,1,,,,,,,,,,,,,,,,,,,,,,,,,,,,,,,
,,,,,,,,,,,,,,,,,,,,,,,,20,female,2020-09-28_13h26.56.040,torte-2b,2020.1.3,MacIntel,60,12941,,,,,,,,,,,,,,,,,,,5,,,,,,,,,,,0,32,32,32,1,,,,,,,,,,,,,,,,,,,,,,,,,,,,,,,
,,,,,,,,,,,,,,,,,,,,,,,,20,female,2020-09-28_13h26.56.040,torte-2b,2020.1.3,MacIntel,60,12941,,,,,,,,,,,,,,,,,,,3,,,,,,,,,,,0,33,33,33,1,,,,,,,,,,,,,,,,,,,,,,,,,,,,,,,
,,,,,,,,,,,,,,,,,,,,,,,,20,female,2020-09-28_13h26.56.040,torte-2b,2020.1.3,MacIntel,60,12941,,,,,,,,,,,,,,,,,,,3,,,,,,,,,,,0,34,34,34,1,,,,,,,,,,,,,,,,,,,,,,,,,,,,,,,
,,,,,,,,,,,,,,Too slow :(,,,,,,t2.png,t4.png,2,0.059078,20,female,2020-09-28_13h26.56.040,torte-2b,2020.1.3,MacIntel,60,12941,space,1.08813,,,,,,,,,,,,,,,,,,,,,,,,,,,,,,,,,space,0.001055,0,0,0,37,1,,,,,,,,,,,,,,,,,,,,,,,,
,,,,,,,,,,,,,,Too slow :(,,,,,,t1.png,t3.png,2,0.056466,20,female,2020-09-28_13h26.56.040,torte-2b,2020.1.3,MacIntel,60,12941,,,,,,,,,,,,,,,,,,,,,,,,,,,,,,,,,,,,,0,1,1,63,1,,,,,,,,,,,,,,,,,,,,,,,,
,,,,,,,,,,,,,,Too slow :(,,,,,,t1.png,t2.png,1,0.9,20,female,2020-09-28_13h26.56.040,torte-2b,2020.1.3,MacIntel,60,12941,,,,,,,,,,,,,,,,,,,,,,,,,,,,,,,,,,,,,0,2,2,1,1,,,,,,,,,,,,,,,,,,,,,,,,
,,,,,,,,,,,,,,Too slow :(,,,,,,t4.png,t5.png,1,0.90025,20,female,2020-09-28_13h26.56.040,torte-2b,2020.1.3,MacIntel,60,12941,,,,,,,,,,,,,,,,,,,,,,,,,,,,,,,,,,,,,0,3,3,58,1,,,,,,,,,,,,,,,,,,,,,,,,
,,,,,,,,,,,,,,Too slow :(,,,,,,t5.png,t4.png,1,0.9,20,female,2020-09-28_13h26.56.040,torte-2b,2020.1.3,MacIntel,60,12941,,,,,,,,,,,,,,,,,,,,,,,,,,,,,,,,,,,,,0,4,4,76,1,,,,,,,,,,,,,,,,,,,,,,,,
,,,,,,,,,,,,,,Too slow :(,,,,,,t2.png,t3.png,1,0.90855,20,female,2020-09-28_13h26.56.040,torte-2b,2020.1.3,MacIntel,60,12941,,,,,,,,,,,,,,,,,,,,,,,,,,,,,,,,,,,,,0,5,5,68,1,,,,,,,,,,,,,,,,,,,,,,,,
,,,,,,,,,,,,,,Too slow :(,,,,,,t2.png,t4.png,2,0.059078,20,female,2020-09-28_13h26.56.040,torte-2b,2020.1.3,MacIntel,60,12941,,,,,,,,,,,,,,,,,,,,,,,,,,,,,,,,,,,,,0,6,6,11,1,,,,,,,,,,,,,,,,,,,,,,,,
,,,,,,,,,,,,,,Too slow :(,,,,,,t1.png,t2.png,1,0.90025,20,female,2020-09-28_13h26.56.040,torte-2b,2020.1.3,MacIntel,60,12941,,,,,,,,,,,,,,,,,,,,,,,,,,,,,,,,,,,,,0,7,7,33,1,,,,,,,,,,,,,,,,,,,,,,,,
,,,,,,,,,,,,,,Too slow :(,,,,,,t4.png,t1.png,3,0.0000131,20,female,2020-09-28_13h26.56.040,torte-2b,2020.1.3,MacIntel,60,12941,,,,,,,,,,,,,,,,,,,,,,,,,,,,,,,,,,,,,0,8,8,42,1,,,,,,,,,,,,,,,,,,,,,,,,
,,,,,,,,,,,,,,Too slow :(,,,,,,t4.png,t4.png,0,0.98115,20,female,2020-09-28_13h26.56.040,torte-2b,2020.1.3,MacIntel,60,12941,,,,,,,,,,,,,,,,,,,,,,,,,,,,,,,,,,,,,0,9,9,52,1,,,,,,,,,,,,,,,,,,,,,,,,
,,,,,,,,,,,,,,Too slow :(,,,,,,t4.png,t2.png,2,0.0591,20,female,2020-09-28_13h26.56.040,torte-2b,2020.1.3,MacIntel,60,12941,,,,,,,,,,,,,,,,,,,,,,,,,,,,,,,,,,,,,0,10,10,36,1,,,,,,,,,,,,,,,,,,,,,,,,
,,,,,,,,,,,,,,Too slow :(,,,,,,t4.png,t5.png,1,0.90025,20,female,2020-09-28_13h26.56.040,torte-2b,2020.1.3,MacIntel,60,12941,,,,,,,,,,,,,,,,,,,,,,,,,,,,,,,,,,,,,0,11,11,103,1,,,,,,,,,,,,,,,,,,,,,,,,
,,,,,,,,,,,,,,Too slow :(,,,,,,t3.png,t4.png,1,0.909,20,female,2020-09-28_13h26.56.040,torte-2b,2020.1.3,MacIntel,60,12941,,,,,,,,,,,,,,,,,,,,,,,,,,,,,,,,,,,,,0,12,12,106,1,,,,,,,,,,,,,,,,,,,,,,,,
,,,,,,,,,,,,,,Too slow :(,,,,,,t1.png,t5.png,4,9.55E-11,20,female,2020-09-28_13h26.56.040,torte-2b,2020.1.3,MacIntel,60,12941,,,,,,,,,,,,,,,,,,,,,,,,,,,,,,,,,,,,,0,13,13,41,1,,,,,,,,,,,,,,,,,,,,,,,,
,,,,,,,,,,,,,,Too slow :(,,,,,,t1.png,t1.png,0,0.978,20,female,2020-09-28_13h26.56.040,torte-2b,2020.1.3,MacIntel,60,12941,,,,,,,,,,,,,,,,,,,,,,,,,,,,,,,,,,,,,0,14,14,54,1,,,,,,,,,,,,,,,,,,,,,,,,
,,,,,,,,,,,,,,Too slow :(,,,,,,t1.png,t1.png,0,0.978,20,female,2020-09-28_13h26.56.040,torte-2b,2020.1.3,MacIntel,60,12941,,,,,,,,,,,,,,,,,,,,,,,,,,,,,,,,,,,,,0,15,15,28,1,,,,,,,,,,,,,,,,,,,,,,,,
,,,,,,,,,,,,,,Too slow :(,,,,,,t5.png,t2.png,3,0.0000131,20,female,2020-09-28_13h26.56.040,torte-2b,2020.1.3,MacIntel,60,12941,,,,,,,,,,,,,,,,,,,,,,,,,,,,,,,,,,,,,0,16,16,116,1,,,,,,,,,,,,,,,,,,,,,,,,
,,,,,,,,,,,,,,Too slow :(,,,,,,t5.png,t2.png,3,0.0000131,20,female,2020-09-28_13h26.56.040,torte-2b,2020.1.3,MacIntel,60,12941,,,,,,,,,,,,,,,,,,,,,,,,,,,,,,,,,,,,,0,17,17,91,1,,,,,,,,,,,,,,,,,,,,,,,,
,,,,,,,,,,,,,,Too slow :(,,,,,,t3.png,t1.png,2,0.056466,20,female,2020-09-28_13h26.56.040,torte-2b,2020.1.3,MacIntel,60,12941,,,,,,,,,,,,,,,,,,,,,,,,,,,,,,,,,,,,,0,18,18,32,1,,,,,,,,,,,,,,,,,,,,,,,,
,,,,,,,,,,,,,,Too slow :(,,,,,,t3.png,t2.png,1,0.90855,20,female,2020-09-28_13h26.56.040,torte-2b,2020.1.3,MacIntel,60,12941,,,,,,,,,,,,,,,,,,,,,,,,,,,,,,,,,,,,,0,19,19,18,1,,,,,,,,,,,,,,,,,,,,,,,,
,,,,,,,,,,,,,,Too slow :(,,,,,,t4.png,t3.png,1,0.90855,20,female,2020-09-28_13h26.56.040,torte-2b,2020.1.3,MacIntel,60,12941,,,,,,,,,,,,,,,,,,,,,,,,,,,,,,,,,,,,,0,20,20,45,1,,,,,,,,,,,,,,,,,,,,,,,,
,,,,,,,,,,,,,,Too slow :(,,,,,,t1.png,t4.png,3,0.0000131,20,female,2020-09-28_13h26.56.040,torte-2b,2020.1.3,MacIntel,60,12941,,,,,,,,,,,,,,,,,,,,,,,,,,,,,,,,,,,,,0,21,21,107,1,,,,,,,,,,,,,,,,,,,,,,,,
,,,,,,,,,,,,,,Too slow :(,,,,,,t5.png,t1.png,4,9.55E-11,20,female,2020-09-28_13h26.56.040,torte-2b,2020.1.3,MacIntel,60,12941,,,,,,,,,,,,,,,,,,,,,,,,,,,,,,,,,,,,,0,22,22,22,1,,,,,,,,,,,,,,,,,,,,,,,,
,,,,,,,,,,,,,,Too slow :(,,,,,,t3.png,t1.png,2,0.056466,20,female,2020-09-28_13h26.56.040,torte-2b,2020.1.3,MacIntel,60,12941,,,,,,,,,,,,,,,,,,,,,,,,,,,,,,,,,,,,,0,23,23,29,1,,,,,,,,,,,,,,,,,,,,,,,,
,,,,,,,,,,,,,,Too slow :(,,,,,,t2.png,t4.png,2,0.059078,20,female,2020-09-28_13h26.56.040,torte-2b,2020.1.3,MacIntel,60,12941,,,,,,,,,,,,,,,,,,,,,,,,,,,,,,,,,,,,,0,24,24,24,1,,,,,,,,,,,,,,,,,,,,,,,,
,,,,,,,,,,,,,,Too slow :(,,,,,,t5.png,t4.png,1,0.90025,20,female,2020-09-28_13h26.56.040,torte-2b,2020.1.3,MacIntel,60,12941,,,,,,,,,,,,,,,,,,,,,,,,,,,,,,,,,,,,,0,25,25,27,1,,,,,,,,,,,,,,,,,,,,,,,,
,,,,,,,,,,,,,,Too slow :(,,,,,,t3.png,t2.png,1,0.90855,20,female,2020-09-28_13h26.56.040,torte-2b,2020.1.3,MacIntel,60,12941,,,,,,,,,,,,,,,,,,,,,,,,,,,,,,,,,,,,,0,26,26,53,1,,,,,,,,,,,,,,,,,,,,,,,,
,,,,,,,,,,,,,,Too slow :(,,,,,,t1.png,t2.png,1,0.90025,20,female,2020-09-28_13h26.56.040,torte-2b,2020.1.3,MacIntel,60,12941,,,,,,,,,,,,,,,,,,,,,,,,,,,,,,,,,,,,,0,27,27,105,1,,,,,,,,,,,,,,,,,,,,,,,,
,,,,,,,,,,,,,,Too slow :(,,,,,,t1.png,t5.png,4,9.55E-11,20,female,2020-09-28_13h26.56.040,torte-2b,2020.1.3,MacIntel,60,12941,,,,,,,,,,,,,,,,,,,,,,,,,,,,,,,,,,,,,0,28,28,16,1,,,,,,,,,,,,,,,,,,,,,,,,
,,,,,,,,,,,,,,Too slow :(,,,,,,t4.png,t5.png,1,0.90025,20,female,2020-09-28_13h26.56.040,torte-2b,2020.1.3,MacIntel,60,12941,,,,,,,,,,,,,,,,,,,,,,,,,,,,,,,,,,,,,0,29,29,113,1,,,,,,,,,,,,,,,,,,,,,,,,
,,,,,,,,,,,,,,Too slow :(,,,,,,t5.png,t3.png,2,0.056466,20,female,2020-09-28_13h26.56.040,torte-2b,2020.1.3,MacIntel,60,12941,,,,,,,,,,,,,,,,,,,,,,,,,,,,,,,,,,,,,0,30,30,114,1,,,,,,,,,,,,,,,,,,,,,,,,
,,,,,,,,,,,,,,Too slow :(,,,,,,t1.png,t3.png,2,0.056466,20,female,2020-09-28_13h26.56.040,torte-2b,2020.1.3,MacIntel,60,12941,,,,,,,,,,,,,,,,,,,,,,,,,,,,,,,,,,,,,0,31,31,99,1,,,,,,,,,,,,,,,,,,,,,,,,
,,,,,,,,,,,,,,Too slow :(,,,,,,t1.png,t1.png,0,0.97829,20,female,2020-09-28_13h26.56.040,torte-2b,2020.1.3,MacIntel,60,12941,,,,,,,,,,,,,,,,,,,,,,,,,,,,,,,,,,,,,0,32,32,9,1,,,,,,,,,,,,,,,,,,,,,,,,
,,,,,,,,,,,,,,Too slow :(,,,,,,t2.png,t5.png,3,0.0000131,20,female,2020-09-28_13h26.56.040,torte-2b,2020.1.3,MacIntel,60,12941,,,,,,,,,,,,,,,,,,,,,,,,,,,,,,,,,,,,,0,33,33,40,1,,,,,,,,,,,,,,,,,,,,,,,,
,,,,,,,,,,,,,,Too slow :(,,,,,,t4.png,t2.png,2,0.059078,20,female,2020-09-28_13h26.56.040,torte-2b,2020.1.3,MacIntel,60,12941,,,,,,,,,,,,,,,,,,,,,,,,,,,,,,,,,,,,,0,34,34,88,1,,,,,,,,,,,,,,,,,,,,,,,,
,,,,,,,,,,,,,,Too slow :(,,,,,,t3.png,t1.png,2,0.056466,20,female,2020-09-28_13h26.56.040,torte-2b,2020.1.3,MacIntel,60,12941,,,,,,,,,,,,,,,,,,,,,,,,,,,,,,,,,,,,,0,35,35,64,1,,,,,,,,,,,,,,,,,,,,,,,,
,,,,,,,,,,,,,,Too slow :(,,,,,,t1.png,t5.png,4,9.55E-11,20,female,2020-09-28_13h26.56.040,torte-2b,2020.1.3,MacIntel,60,12941,,,,,,,,,,,,,,,,,,,,,,,,,,,,,,,,,,,,,0,36,36,85,1,,,,,,,,,,,,,,,,,,,,,,,,
,,,,,,,,,,,,,,Too slow :(,,,,,,t2.png,t5.png,3,0.0000131,20,female,2020-09-28_13h26.56.040,torte-2b,2020.1.3,MacIntel,60,12941,,,,,,,,,,,,,,,,,,,,,,,,,,,,,,,,,,,,,0,37,37,66,1,,,,,,,,,,,,,,,,,,,,,,,,
,,,,,,,,,,,,,,Too slow :(,,,,,,t4.png,t3.png,1,0.909,20,female,2020-09-28_13h26.56.040,torte-2b,2020.1.3,MacIntel,60,12941,,,,,,,,,,,,,,,,,,,,,,,,,,,,,,,,,,,,,0,38,38,46,1,,,,,,,,,,,,,,,,,,,,,,,,
,,,,,,,,,,,,,,Too slow :(,,,,,,t5.png,t5.png,0,0.978,20,female,2020-09-28_13h26.56.040,torte-2b,2020.1.3,MacIntel,60,12941,,,,,,,,,,,,,,,,,,,,,,,,,,,,,,,,,,,,,0,39,39,117,1,,,,,,,,,,,,,,,,,,,,,,,,
,,,,,,,,,,,,,,Too slow :(,,,,,,t1.png,t5.png,4,9.55E-11,20,female,2020-09-28_13h26.56.040,torte-2b,2020.1.3,MacIntel,60,12941,,,,,,,,,,,,,,,,,,,,,,,,,,,,,,,,,,,,,0,40,40,55,1,,,,,,,,,,,,,,,,,,,,,,,,
,,,,,,,,,,,,,,Too slow :(,,,,,,t4.png,t3.png,1,0.90855,20,female,2020-09-28_13h26.56.040,torte-2b,2020.1.3,MacIntel,60,12941,,,,,,,,,,,,,,,,,,,,,,,,,,,,,,,,,,,,,0,41,41,35,1,,,,,,,,,,,,,,,,,,,,,,,,
,,,,,,,,,,,,,,Too slow :(,,,,,,t3.png,t5.png,2,0.0565,20,female,2020-09-28_13h26.56.040,torte-2b,2020.1.3,MacIntel,60,12941,,,,,,,,,,,,,,,,,,,,,,,,,,,,,,,,,,,,,0,42,42,83,1,,,,,,,,,,,,,,,,,,,,,,,,
,,,,,,,,,,,,,,Too slow :(,,,,,,t5.png,t2.png,3,0.0000131,20,female,2020-09-28_13h26.56.040,torte-2b,2020.1.3,MacIntel,60,12941,,,,,,,,,,,,,,,,,,,,,,,,,,,,,,,,,,,,,0,43,43,51,1,,,,,,,,,,,,,,,,,,,,,,,,
,,,,,,,,,,,,,,Too slow :(,,,,,,t3.png,t2.png,1,0.90855,20,female,2020-09-28_13h26.56.040,torte-2b,2020.1.3,MacIntel,60,12941,,,,,,,,,,,,,,,,,,,,,,,,,,,,,,,,,,,,,0,44,44,97,1,,,,,,,,,,,,,,,,,,,,,,,,
,,,,,,,,,,,,,,Too slow :(,,,,,,t1.png,t5.png,4,9.55E-11,20,female,2020-09-28_13h26.56.040,torte-2b,2020.1.3,MacIntel,60,12941,,,,,,,,,,,,,,,,,,,,,,,,,,,,,,,,,,,,,0,45,45,12,1,,,,,,,,,,,,,,,,,,,,,,,,
,,,,,,,,,,,,,,Too slow :(,,,,,,t1.png,t4.png,3,0.0000131,20,female,2020-09-28_13h26.56.040,torte-2b,2020.1.3,MacIntel,60,12941,,,,,,,,,,,,,,,,,,,,,,,,,,,,,,,,,,,,,0,46,46,17,1,,,,,,,,,,,,,,,,,,,,,,,,
,,,,,,,,,,,,,,Too slow :(,,,,,,t2.png,t1.png,1,0.9,20,female,2020-09-28_13h26.56.040,torte-2b,2020.1.3,MacIntel,60,12941,,,,,,,,,,,,,,,,,,,,,,,,,,,,,,,,,,,,,0,47,47,118,1,,,,,,,,,,,,,,,,,,,,,,,,
,,,,,,,,,,,,,,Too slow :(,,,,,,t5.png,t5.png,0,0.97829,20,female,2020-09-28_13h26.56.040,torte-2b,2020.1.3,MacIntel,60,12941,,,,,,,,,,,,,,,,,,,,,,,,,,,,,,,,,,,,,0,48,48,94,1,,,,,,,,,,,,,,,,,,,,,,,,
,,,,,,,,,,,,,,Too slow :(,,,,,,t4.png,t4.png,0,0.98115,20,female,2020-09-28_13h26.56.040,torte-2b,2020.1.3,MacIntel,60,12941,,,,,,,,,,,,,,,,,,,,,,,,,,,,,,,,,,,,,0,49,49,21,1,,,,,,,,,,,,,,,,,,,,,,,,
,,,,,,,,,,,,,,Too slow :(,,,,,,t1.png,t1.png,0,0.97829,20,female,2020-09-28_13h26.56.040,torte-2b,2020.1.3,MacIntel,60,12941,,,,,,,,,,,,,,,,,,,,,,,,,,,,,,,,,,,,,0,50,50,78,1,,,,,,,,,,,,,,,,,,,,,,,,
,,,,,,,,,,,,,,Too slow :(,,,,,,t4.png,t3.png,1,0.90855,20,female,2020-09-28_13h26.56.040,torte-2b,2020.1.3,MacIntel,60,12941,,,,,,,,,,,,,,,,,,,,,,,,,,,,,,,,,,,,,0,51,51,75,1,,,,,,,,,,,,,,,,,,,,,,,,
,,,,,,,,,,,,,,Too slow :(,,,,,,t2.png,t5.png,3,0.0000131,20,female,2020-09-28_13h26.56.040,torte-2b,2020.1.3,MacIntel,60,12941,,,,,,,,,,,,,,,,,,,,,,,,,,,,,,,,,,,,,0,52,52,8,1,,,,,,,,,,,,,,,,,,,,,,,,
,,,,,,,,,,,,,,Too slow :(,,,,,,t2.png,t4.png,2,0.059078,20,female,2020-09-28_13h26.56.040,torte-2b,2020.1.3,MacIntel,60,12941,,,,,,,,,,,,,,,,,,,,,,,,,,,,,,,,,,,,,0,53,53,77,1,,,,,,,,,,,,,,,,,,,,,,,,
,,,,,,,,,,,,,,Too slow :(,,,,,,t2.png,t2.png,0,0.981,20,female,2020-09-28_13h26.56.040,torte-2b,2020.1.3,MacIntel,60,12941,,,,,,,,,,,,,,,,,,,,,,,,,,,,,,,,,,,,,0,54,54,101,1,,,,,,,,,,,,,,,,,,,,,,,,
,,,,,,,,,,,,,,Too slow :(,,,,,,t2.png,t2.png,0,0.98115,20,female,2020-09-28_13h26.56.040,torte-2b,2020.1.3,MacIntel,60,12941,,,,,,,,,,,,,,,,,,,,,,,,,,,,,,,,,,,,,0,55,55,57,1,,,,,,,,,,,,,,,,,,,,,,,,
,,,,,,,,,,,,,,Too slow :(,,,,,,t5.png,t3.png,2,0.056466,20,female,2020-09-28_13h26.56.040,torte-2b,2020.1.3,MacIntel,60,12941,,,,,,,,,,,,,,,,,,,,,,,,,,,,,,,,,,,,,0,56,56,108,1,,,,,,,,,,,,,,,,,,,,,,,,
,,,,,,,,,,,,,,Too slow :(,,,,,,t3.png,t1.png,2,0.056466,20,female,2020-09-28_13h26.56.040,torte-2b,2020.1.3,MacIntel,60,12941,,,,,,,,,,,,,,,,,,,,,,,,,,,,,,,,,,,,,0,57,57,0,1,,,,,,,,,,,,,,,,,,,,,,,,
,,,,,,,,,,,,,,Too slow :(,,,,,,t4.png,t5.png,1,0.9,20,female,2020-09-28_13h26.56.040,torte-2b,2020.1.3,MacIntel,60,12941,,,,,,,,,,,,,,,,,,,,,,,,,,,,,,,,,,,,,0,58,58,115,1,,,,,,,,,,,,,,,,,,,,,,,,
,,,,,,,,,,,,,,Too slow :(,,,,,,t2.png,t1.png,1,0.90025,20,female,2020-09-28_13h26.56.040,torte-2b,2020.1.3,MacIntel,60,12941,,,,,,,,,,,,,,,,,,,,,,,,,,,,,,,,,,,,,0,59,59,62,1,,,,,,,,,,,,,,,,,,,,,,,,
,,,,,,,,,,,,,,Too slow :(,,,,,,t3.png,t5.png,2,0.0565,20,female,2020-09-28_13h26.56.040,torte-2b,2020.1.3,MacIntel,60,12941,,,,,,,,,,,,,,,,,,,,,,,,,,,,,,,,,,,,,0,60,60,30,1,,,,,,,,,,,,,,,,,,,,,,,,
,,,,,,,,,,,,,,Too slow :(,,,,,,t4.png,t1.png,3,0.0000131,20,female,2020-09-28_13h26.56.040,torte-2b,2020.1.3,MacIntel,60,12941,,,,,,,,,,,,,,,,,,,,,,,,,,,,,,,,,,,,,0,61,61,48,1,,,,,,,,,,,,,,,,,,,,,,,,
,,,,,,,,,,,,,,Too slow :(,,,,,,t2.png,t5.png,3,0.0000131,20,female,2020-09-28_13h26.56.040,torte-2b,2020.1.3,MacIntel,60,12941,,,,,,,,,,,,,,,,,,,,,,,,,,,,,,,,,,,,,0,62,62,104,1,,,,,,,,,,,,,,,,,,,,,,,,
,,,,,,,,,,,,,,Too slow :(,,,,,,t3.png,t4.png,1,0.909,20,female,2020-09-28_13h26.56.040,torte-2b,2020.1.3,MacIntel,60,12941,,,,,,,,,,,,,,,,,,,,,,,,,,,,,,,,,,,,,0,63,63,82,1,,,,,,,,,,,,,,,,,,,,,,,,
,,,,,,,,,,,,,,Too slow :(,,,,,,t4.png,t1.png,3,0.0000131,20,female,2020-09-28_13h26.56.040,torte-2b,2020.1.3,MacIntel,60,12941,,,,,,,,,,,,,,,,,,,,,,,,,,,,,,,,,,,,,0,64,64,93,1,,,,,,,,,,,,,,,,,,,,,,,,
,,,,,,,,,,,,,,Too slow :(,,,,,,t5.png,t1.png,4,9.55E-11,20,female,2020-09-28_13h26.56.040,torte-2b,2020.1.3,MacIntel,60,12941,,,,,,,,,,,,,,,,,,,,,,,,,,,,,,,,,,,,,0,65,65,102,1,,,,,,,,,,,,,,,,,,,,,,,,
,,,,,,,,,,,,,,Too slow :(,,,,,,t5.png,t1.png,4,9.55E-11,20,female,2020-09-28_13h26.56.040,torte-2b,2020.1.3,MacIntel,60,12941,,,,,,,,,,,,,,,,,,,,,,,,,,,,,,,,,,,,,0,66,66,43,1,,,,,,,,,,,,,,,,,,,,,,,,
,,,,,,,,,,,,,,Too slow :(,,,,,,t3.png,t5.png,2,0.056466,20,female,2020-09-28_13h26.56.040,torte-2b,2020.1.3,MacIntel,60,12941,,,,,,,,,,,,,,,,,,,,,,,,,,,,,,,,,,,,,0,67,67,14,1,,,,,,,,,,,,,,,,,,,,,,,,
,,,,,,,,,,,,,,Too slow :(,,,,,,t5.png,t2.png,3,0.0000131,20,female,2020-09-28_13h26.56.040,torte-2b,2020.1.3,MacIntel,60,12941,,,,,,,,,,,,,,,,,,,,,,,,,,,,,,,,,,,,,0,68,68,119,1,,,,,,,,,,,,,,,,,,,,,,,,
,,,,,,,,,,,,,,Too slow :(,,,,,,t5.png,t2.png,3,0.0000131,20,female,2020-09-28_13h26.56.040,torte-2b,2020.1.3,MacIntel,60,12941,,,,,,,,,,,,,,,,,,,,,,,,,,,,,,,,,,,,,0,69,69,98,1,,,,,,,,,,,,,,,,,,,,,,,,
,,,,,,,,,,,,,,Too slow :(,,,,,,t2.png,t1.png,1,0.90025,20,female,2020-09-28_13h26.56.040,torte-2b,2020.1.3,MacIntel,60,12941,,,,,,,,,,,,,,,,,,,,,,,,,,,,,,,,,,,,,0,70,70,19,1,,,,,,,,,,,,,,,,,,,,,,,,
,,,,,,,,,,,,,,Too slow :(,,,,,,t2.png,t3.png,1,0.90855,20,female,2020-09-28_13h26.56.040,torte-2b,2020.1.3,MacIntel,60,12941,,,,,,,,,,,,,,,,,,,,,,,,,,,,,,,,,,,,,0,71,71,111,1,,,,,,,,,,,,,,,,,,,,,,,,
,,,,,,,,,,,,,,Too slow :(,,,,,,t3.png,t2.png,1,0.909,20,female,2020-09-28_13h26.56.040,torte-2b,2020.1.3,MacIntel,60,12941,,,,,,,,,,,,,,,,,,,,,,,,,,,,,,,,,,,,,0,72,72,3,1,,,,,,,,,,,,,,,,,,,,,,,,
,,,,,,,,,,,,,,Too slow :(,,,,,,t2.png,t4.png,2,0.0591,20,female,2020-09-28_13h26.56.040,torte-2b,2020.1.3,MacIntel,60,12941,,,,,,,,,,,,,,,,,,,,,,,,,,,,,,,,,,,,,0,73,73,15,1,,,,,,,,,,,,,,,,,,,,,,,,
,,,,,,,,,,,,,,Too slow :(,,,,,,t2.png,t1.png,1,0.90025,20,female,2020-09-28_13h26.56.040,torte-2b,2020.1.3,MacIntel,60,12941,,,,,,,,,,,,,,,,,,,,,,,,,,,,,,,,,,,,,0,74,74,4,1,,,,,,,,,,,,,,,,,,,,,,,,
,,,,,,,,,,,,,,Too slow :(,,,,,,t3.png,t4.png,1,0.90855,20,female,2020-09-28_13h26.56.040,torte-2b,2020.1.3,MacIntel,60,12941,,,,,,,,,,,,,,,,,,,,,,,,,,,,,,,,,,,,,0,75,75,84,1,,,,,,,,,,,,,,,,,,,,,,,,
,,,,,,,,,,,,,,Too slow :(,,,,,,t2.png,t1.png,1,0.90025,20,female,2020-09-28_13h26.56.040,torte-2b,2020.1.3,MacIntel,60,12941,,,,,,,,,,,,,,,,,,,,,,,,,,,,,,,,,,,,,0,76,76,5,1,,,,,,,,,,,,,,,,,,,,,,,,
,,,,,,,,,,,,,,Too slow :(,,,,,,t2.png,t3.png,1,0.90855,20,female,2020-09-28_13h26.56.040,torte-2b,2020.1.3,MacIntel,60,12941,,,,,,,,,,,,,,,,,,,,,,,,,,,,,,,,,,,,,0,77,77,65,1,,,,,,,,,,,,,,,,,,,,,,,,
,,,,,,,,,,,,,,Too slow :(,,,,,,t1.png,t2.png,1,0.90025,20,female,2020-09-28_13h26.56.040,torte-2b,2020.1.3,MacIntel,60,12941,,,,,,,,,,,,,,,,,,,,,,,,,,,,,,,,,,,,,0,78,78,112,1,,,,,,,,,,,,,,,,,,,,,,,,
,,,,,,,,,,,,,,Too slow :(,,,,,,t3.png,t4.png,1,0.909,20,female,2020-09-28_13h26.56.040,torte-2b,2020.1.3,MacIntel,60,12941,,,,,,,,,,,,,,,,,,,,,,,,,,,,,,,,,,,,,0,79,79,89,1,,,,,,,,,,,,,,,,,,,,,,,,
,,,,,,,,,,,,,,Too slow :(,,,,,,t5.png,t5.png,0,0.97829,20,female,2020-09-28_13h26.56.040,torte-2b,2020.1.3,MacIntel,60,12941,,,,,,,,,,,,,,,,,,,,,,,,,,,,,,,,,,,,,0,80,80,25,1,,,,,,,,,,,,,,,,,,,,,,,,
,,,,,,,,,,,,,,Too slow :(,,,,,,t5.png,t1.png,4,9.55E-11,20,female,2020-09-28_13h26.56.040,torte-2b,2020.1.3,MacIntel,60,12941,,,,,,,,,,,,,,,,,,,,,,,,,,,,,,,,,,,,,0,81,81,71,1,,,,,,,,,,,,,,,,,,,,,,,,
,,,,,,,,,,,,,,Too slow :(,,,,,,t3.png,t5.png,2,0.056466,20,female,2020-09-28_13h26.56.040,torte-2b,2020.1.3,MacIntel,60,12941,,,,,,,,,,,,,,,,,,,,,,,,,,,,,,,,,,,,,0,82,82,44,1,,,,,,,,,,,,,,,,,,,,,,,,
,,,,,,,,,,,,,,Too slow :(,,,,,,t1.png,t4.png,3,0.0000131,20,female,2020-09-28_13h26.56.040,torte-2b,2020.1.3,MacIntel,60,12941,,,,,,,,,,,,,,,,,,,,,,,,,,,,,,,,,,,,,0,83,83,81,1,,,,,,,,,,,,,,,,,,,,,,,,
,,,,,,,,,,,,,,Too slow :(,,,,,,t2.png,t3.png,1,0.90855,20,female,2020-09-28_13h26.56.040,torte-2b,2020.1.3,MacIntel,60,12941,,,,,,,,,,,,,,,,,,,,,,,,,,,,,,,,,,,,,0,84,84,10,1,,,,,,,,,,,,,,,,,,,,,,,,
,,,,,,,,,,,,,,Too slow :(,,,,,,t4.png,t1.png,3,0.0000131,20,female,2020-09-28_13h26.56.040,torte-2b,2020.1.3,MacIntel,60,12941,,,,,,,,,,,,,,,,,,,,,,,,,,,,,,,,,,,,,0,85,85,61,1,,,,,,,,,,,,,,,,,,,,,,,,
,,,,,,,,,,,,,,Too slow :(,,,,,,t4.png,t2.png,2,0.059078,20,female,2020-09-28_13h26.56.040,torte-2b,2020.1.3,MacIntel,60,12941,,,,,,,,,,,,,,,,,,,,,,,,,,,,,,,,,,,,,0,86,86,86,1,,,,,,,,,,,,,,,,,,,,,,,,
,,,,,,,,,,,,,,Too slow :(,,,,,,t1.png,t2.png,1,0.90025,20,female,2020-09-28_13h26.56.040,torte-2b,2020.1.3,MacIntel,60,12941,,,,,,,,,,,,,,,,,,,,,,,,,,,,,,,,,,,,,0,87,87,72,1,,,,,,,,,,,,,,,,,,,,,,,,
,,,,,,,,,,,,,,Too slow :(,,,,,,t4.png,t4.png,0,0.98115,20,female,2020-09-28_13h26.56.040,torte-2b,2020.1.3,MacIntel,60,12941,,,,,,,,,,,,,,,,,,,,,,,,,,,,,,,,,,,,,0,88,88,80,1,,,,,,,,,,,,,,,,,,,,,,,,
,,,,,,,,,,,,,,Too slow :(,,,,,,t5.png,t1.png,4,9.55E-11,20,female,2020-09-28_13h26.56.040,torte-2b,2020.1.3,MacIntel,60,12941,,,,,,,,,,,,,,,,,,,,,,,,,,,,,,,,,,,,,0,89,89,100,1,,,,,,,,,,,,,,,,,,,,,,,,
,,,,,,,,,,,,,,Too slow :(,,,,,,t2.png,t2.png,0,0.98115,20,female,2020-09-28_13h26.56.040,torte-2b,2020.1.3,MacIntel,60,12941,,,,,,,,,,,,,,,,,,,,,,,,,,,,,,,,,,,,,0,90,90,59,1,,,,,,,,,,,,,,,,,,,,,,,,
,,,,,,,,,,,,,,Too slow :(,,,,,,t4.png,t2.png,2,0.059078,20,female,2020-09-28_13h26.56.040,torte-2b,2020.1.3,MacIntel,60,12941,,,,,,,,,,,,,,,,,,,,,,,,,,,,,,,,,,,,,0,91,91,110,1,,,,,,,,,,,,,,,,,,,,,,,,
,,,,,,,,,,,,,,Too slow :(,,,,,,t1.png,t4.png,3,0.0000131,20,female,2020-09-28_13h26.56.040,torte-2b,2020.1.3,MacIntel,60,12941,,,,,,,,,,,,,,,,,,,,,,,,,,,,,,,,,,,,,0,92,92,92,1,,,,,,,,,,,,,,,,,,,,,,,,
,,,,,,,,,,,,,,Too slow :(,,,,,,t1.png,t1.png,0,0.97829,20,female,2020-09-28_13h26.56.040,torte-2b,2020.1.3,MacIntel,60,12941,,,,,,,,,,,,,,,,,,,,,,,,,,,,,,,,,,,,,0,93,93,67,1,,,,,,,,,,,,,,,,,,,,,,,,
,,,,,,,,,,,,,,Too slow :(,,,,,,t1.png,t3.png,2,0.056466,20,female,2020-09-28_13h26.56.040,torte-2b,2020.1.3,MacIntel,60,12941,,,,,,,,,,,,,,,,,,,,,,,,,,,,,,,,,,,,,0,94,94,60,1,,,,,,,,,,,,,,,,,,,,,,,,
,,,,,,,,,,,,,,Too slow :(,,,,,,t2.png,t5.png,3,0.0000131,20,female,2020-09-28_13h26.56.040,torte-2b,2020.1.3,MacIntel,60,12941,,,,,,,,,,,,,,,,,,,,,,,,,,,,,,,,,,,,,0,95,95,95,1,,,,,,,,,,,,,,,,,,,,,,,,
,,,,,,,,,,,,,,Too slow :(,,,,,,t5.png,t4.png,1,0.9,20,female,2020-09-28_13h26.56.040,torte-2b,2020.1.3,MacIntel,60,12941,,,,,,,,,,,,,,,,,,,,,,,,,,,,,,,,,,,,,0,96,96,49,1,,,,,,,,,,,,,,,,,,,,,,,,
,,,,,,,,,,,,,,Too slow :(,,,,,,t3.png,t5.png,2,0.056466,20,female,2020-09-28_13h26.56.040,torte-2b,2020.1.3,MacIntel,60,12941,,,,,,,,,,,,,,,,,,,,,,,,,,,,,,,,,,,,,0,97,97,6,1,,,,,,,,,,,,,,,,,,,,,,,,
,,,,,,,,,,,,,,Too slow :(,,,,,,t4.png,t4.png,0,0.98115,20,female,2020-09-28_13h26.56.040,torte-2b,2020.1.3,MacIntel,60,12941,,,,,,,,,,,,,,,,,,,,,,,,,,,,,,,,,,,,,0,98,98,90,1,,,,,,,,,,,,,,,,,,,,,,,,
,,,,,,,,,,,,,,Too slow :(,,,,,,t2.png,t2.png,0,0.98115,20,female,2020-09-28_13h26.56.040,torte-2b,2020.1.3,MacIntel,60,12941,,,,,,,,,,,,,,,,,,,,,,,,,,,,,,,,,,,,,0,99,99,2,1,,,,,,,,,,,,,,,,,,,,,,,,
,,,,,,,,,,,,,,Too slow :(,,,,,,t5.png,t4.png,1,0.90025,20,female,2020-09-28_13h26.56.040,torte-2b,2020.1.3,MacIntel,60,12941,,,,,,,,,,,,,,,,,,,,,,,,,,,,,,,,,,,,,0,100,100,34,1,,,,,,,,,,,,,,,,,,,,,,,,
,,,,,,,,,,,,,,Too slow :(,,,,,,t4.png,t2.png,2,0.059078,20,female,2020-09-28_13h26.56.040,torte-2b,2020.1.3,MacIntel,60,12941,,,,,,,,,,,,,,,,,,,,,,,,,,,,,,,,,,,,,0,101,101,109,1,,,,,,,,,,,,,,,,,,,,,,,,
,,,,,,,,,,,,,,Too slow :(,,,,,,t1.png,t4.png,3,0.0000131,20,female,2020-09-28_13h26.56.040,torte-2b,2020.1.3,MacIntel,60,12941,,,,,,,,,,,,,,,,,,,,,,,,,,,,,,,,,,,,,0,102,102,50,1,,,,,,,,,,,,,,,,,,,,,,,,
,,,,,,,,,,,,,,Too slow :(,,,,,,t4.png,t3.png,1,0.909,20,female,2020-09-28_13h26.56.040,torte-2b,2020.1.3,MacIntel,60,12941,,,,,,,,,,,,,,,,,,,,,,,,,,,,,,,,,,,,,0,103,103,20,1,,,,,,,,,,,,,,,,,,,,,,,,
,,,,,,,,,,,,,,Too slow :(,,,,,,t2.png,t2.png,0,0.98115,20,female,2020-09-28_13h26.56.040,torte-2b,2020.1.3,MacIntel,60,12941,,,,,,,,,,,,,,,,,,,,,,,,,,,,,,,,,,,,,0,104,104,7,1,,,,,,,,,,,,,,,,,,,,,,,,
,,,,,,,,,,,,,,Too slow :(,,,,,,t2.png,t3.png,1,0.909,20,female,2020-09-28_13h26.56.040,torte-2b,2020.1.3,MacIntel,60,12941,,,,,,,,,,,,,,,,,,,,,,,,,,,,,,,,,,,,,0,105,105,74,1,,,,,,,,,,,,,,,,,,,,,,,,
,,,,,,,,,,,,,,Too slow :(,,,,,,t5.png,t3.png,2,0.056466,20,female,2020-09-28_13h26.56.040,torte-2b,2020.1.3,MacIntel,60,12941,,,,,,,,,,,,,,,,,,,,,,,,,,,,,,,,,,,,,0,106,106,38,1,,,,,,,,,,,,,,,,,,,,,,,,
,,,,,,,,,,,,,,Too slow :(,,,,,,t5.png,t3.png,2,0.056466,20,female,2020-09-28_13h26.56.040,torte-2b,2020.1.3,MacIntel,60,12941,,,,,,,,,,,,,,,,,,,,,,,,,,,,,,,,,,,,,0,107,107,56,1,,,,,,,,,,,,,,,,,,,,,,,,
,,,,,,,,,,,,,,Too slow :(,,,,,,t3.png,t1.png,2,0.0565,20,female,2020-09-28_13h26.56.040,torte-2b,2020.1.3,MacIntel,60,12941,,,,,,,,,,,,,,,,,,,,,,,,,,,,,,,,,,,,,0,108,108,31,1,,,,,,,,,,,,,,,,,,,,,,,,
,,,,,,,,,,,,,,Too slow :(,,,,,,t5.png,t3.png,2,0.0565,20,female,2020-09-28_13h26.56.040,torte-2b,2020.1.3,MacIntel,60,12941,,,,,,,,,,,,,,,,,,,,,,,,,,,,,,,,,,,,,0,109,109,39,1,,,,,,,,,,,,,,,,,,,,,,,,
,,,,,,,,,,,,,,Too slow :(,,,,,,t3.png,t4.png,1,0.90855,20,female,2020-09-28_13h26.56.040,torte-2b,2020.1.3,MacIntel,60,12941,,,,,,,,,,,,,,,,,,,,,,,,,,,,,,,,,,,,,0,110,110,96,1,,,,,,,,,,,,,,,,,,,,,,,,
,,,,,,,,,,,,,,Too slow :(,,,,,,t1.png,t3.png,2,0.056466,20,female,2020-09-28_13h26.56.040,torte-2b,2020.1.3,MacIntel,60,12941,,,,,,,,,,,,,,,,,,,,,,,,,,,,,,,,,,,,,0,111,111,69,1,,,,,,,,,,,,,,,,,,,,,,,,
,,,,,,,,,,,,,,Too slow :(,,,,,,t4.png,t4.png,0,0.98115,20,female,2020-09-28_13h26.56.040,torte-2b,2020.1.3,MacIntel,60,12941,,,,,,,,,,,,,,,,,,,,,,,,,,,,,,,,,,,,,0,112,112,79,1,,,,,,,,,,,,,,,,,,,,,,,,
,,,,,,,,,,,,,,Too slow :(,,,,,,t4.png,t5.png,1,0.90025,20,female,2020-09-28_13h26.56.040,torte-2b,2020.1.3,MacIntel,60,12941,,,,,,,,,,,,,,,,,,,,,,,,,,,,,,,,,,,,,0,113,113,47,1,,,,,,,,,,,,,,,,,,,,,,,,
,,,,,,,,,,,,,,Too slow :(,,,,,,t5.png,t5.png,0,0.97829,20,female,2020-09-28_13h26.56.040,torte-2b,2020.1.3,MacIntel,60,12941,,,,,,,,,,,,,,,,,,,,,,,,,,,,,,,,,,,,,0,114,114,73,1,,,,,,,,,,,,,,,,,,,,,,,,
,,,,,,,,,,,,,,Too slow :(,,,,,,t5.png,t5.png,0,0.97829,20,female,2020-09-28_13h26.56.040,torte-2b,2020.1.3,MacIntel,60,12941,,,,,,,,,,,,,,,,,,,,,,,,,,,,,,,,,,,,,0,115,115,70,1,,,,,,,,,,,,,,,,,,,,,,,,
,,,,,,,,,,,,,,Too slow :(,,,,,,t1.png,t3.png,2,0.056466,20,female,2020-09-28_13h26.56.040,torte-2b,2020.1.3,MacIntel,60,12941,,,,,,,,,,,,,,,,,,,,,,,,,,,,,,,,,,,,,0,116,116,87,1,,,,,,,,,,,,,,,,,,,,,,,,
,,,,,,,,,,,,,,Too slow :(,,,,,,t5.png,t4.png,1,0.90025,20,female,2020-09-28_13h26.56.040,torte-2b,2020.1.3,MacIntel,60,12941,,,,,,,,,,,,,,,,,,,,,,,,,,,,,,,,,,,,,0,117,117,26,1,,,,,,,,,,,,,,,,,,,,,,,,
,,,,,,,,,,,,,,Too slow :(,,,,,,t4.png,t1.png,3,0.0000131,20,female,2020-09-28_13h26.56.040,torte-2b,2020.1.3,MacIntel,60,12941,,,,,,,,,,,,,,,,,,,,,,,,,,,,,,,,,,,,,0,118,118,13,1,,,,,,,,,,,,,,,,,,,,,,,,
,,,,,,,,,,,,,,Too slow :(,,,,,,t3.png,t2.png,1,0.909,20,female,2020-09-28_13h26.56.040,torte-2b,2020.1.3,MacIntel,60,12941,,,,,,,,,,,,,,,,,,,,,,,,,,,,,,,,,,,,,0,119,119,23,1,,,,,,,,,,,,,,,,,,,,,,,,
,,,,,,,,,,,,,,,,,,,,,,,,20,female,2020-09-28_13h26.56.040,torte-2b,2020.1.3,MacIntel,60,12941,space,3.6389,,,,,,,,,,,,,,,,,,,,,,,,,,,,,,,,,,,,,,,,-11.703125,57.875,1,0,0,s3,-19.62109375,28.50390625,1,0,0,t2,321.8867188,-111.625,1,0,0,proceed,space,0.367225,space,0.43398,space,0.371185
