key_resp_8.keys,key_resp_8.rt,key_resp_9.keys,key_resp_9.rt,key_resp_10.keys,key_resp_10.rt,key_resp_11.keys,key_resp_11.rt,key_resp_2.keys,key_resp_2.rt,key_resp_3.keys,key_resp_3.rt,key_resp.keys,Feedback,train.thisRepN,train.thisTrialN,train.thisN,train.thisIndex,train.ran,torta_sx,torta_dx,difference,probability,age,gender,date,expName,psychopyVersion,OS,frameRate,participant,key_resp.rt,key_resp_15.keys,key_resp_15.rt,key_resp_6.keys,key_resp_6.rt,test1.thisRepN,test1.thisTrialN,test1.thisN,test1.thisIndex,test1.ran,key_resp_4.keys,key_resp_4.rt,key_resp_5.keys,back1.thisRepN,back1.thisTrialN,back1.thisN,back1.thisIndex,back1.ran,letter,key_resp_5.rt,back2.thisRepN,back2.thisTrialN,back2.thisN,back2.thisIndex,back2.ran,back3.thisRepN,back3.thisTrialN,back3.thisN,back3.thisIndex,back3.ran,back4.thisRepN,back4.thisTrialN,back4.thisN,back4.thisIndex,back4.ran,key_resp_7.keys,key_resp_7.rt,test2.thisRepN,test2.thisTrialN,test2.thisN,test2.thisIndex,test2.ran,mouse.x,mouse.y,mouse.leftButton,mouse.midButton,mouse.rightButton,mouse.clicked_name,mouse_2.x,mouse_2.y,mouse_2.leftButton,mouse_2.midButton,mouse_2.rightButton,mouse_2.clicked_name,mouse_3.x,mouse_3.y,mouse_3.leftButton,mouse_3.midButton,mouse_3.rightButton,mouse_3.clicked_name,key_resp_12.keys,key_resp_12.rt,key_resp_13.keys,key_resp_13.rt,key_resp_14.keys,key_resp_14.rt
space,10.922,space,0.744,space,0.395,space,0.389,space,8.898,space,51.824,,Too slow :(,0,0,0,28,1,t2.png,t3.png,1,0.909,19,female,2020-09-05_21h00.55.374,torte-2b,2020.1.3,MacIntel,60,13188,,,,,,,,,,,,,,,,,,,,,,,,,,,,,,,,,,,,,,,,,,,,,,,,,,,,,,,,,,,,,,,,,,
,,,,,,,,,,,,a,Correct!,0,1,1,71,1,t5.png,t5.png,0,0.97829,19,female,2020-09-05_21h00.55.374,torte-2b,2020.1.3,MacIntel,60,13188,1.529,,,,,,,,,,,,,,,,,,,,,,,,,,,,,,,,,,,,,,,,,,,,,,,,,,,,,,,,,,,,,,,,,
,,,,,,,,,,,,l,Correct!,0,2,2,115,1,t2.png,t4.png,2,0.059078,19,female,2020-09-05_21h00.55.374,torte-2b,2020.1.3,MacIntel,60,13188,1.133,,,,,,,,,,,,,,,,,,,,,,,,,,,,,,,,,,,,,,,,,,,,,,,,,,,,,,,,,,,,,,,,,
,,,,,,,,,,,,l,Correct!,0,3,3,11,1,t1.png,t4.png,3,0.0000131,19,female,2020-09-05_21h00.55.374,torte-2b,2020.1.3,MacIntel,60,13188,0.694,,,,,,,,,,,,,,,,,,,,,,,,,,,,,,,,,,,,,,,,,,,,,,,,,,,,,,,,,,,,,,,,,
,,,,,,,,,,,,l,Correct!,0,4,4,31,1,t1.png,t5.png,4,9.55E-11,19,female,2020-09-05_21h00.55.374,torte-2b,2020.1.3,MacIntel,60,13188,0.62,,,,,,,,,,,,,,,,,,,,,,,,,,,,,,,,,,,,,,,,,,,,,,,,,,,,,,,,,,,,,,,,,
,,,,,,,,,,,,a,Incorrect,0,5,5,30,1,t3.png,t1.png,2,0.056466,19,female,2020-09-05_21h00.55.374,torte-2b,2020.1.3,MacIntel,60,13188,0.683,,,,,,,,,,,,,,,,,,,,,,,,,,,,,,,,,,,,,,,,,,,,,,,,,,,,,,,,,,,,,,,,,
,,,,,,,,,,,,l,Incorrect,0,6,6,70,1,t5.png,t5.png,0,0.978,19,female,2020-09-05_21h00.55.374,torte-2b,2020.1.3,MacIntel,60,13188,1.782,,,,,,,,,,,,,,,,,,,,,,,,,,,,,,,,,,,,,,,,,,,,,,,,,,,,,,,,,,,,,,,,,
,,,,,,,,,,,,l,Correct!,0,7,7,37,1,t1.png,t4.png,3,0.0000131,19,female,2020-09-05_21h00.55.374,torte-2b,2020.1.3,MacIntel,60,13188,1.206,,,,,,,,,,,,,,,,,,,,,,,,,,,,,,,,,,,,,,,,,,,,,,,,,,,,,,,,,,,,,,,,,
,,,,,,,,,,,,a,Correct!,0,8,8,21,1,t5.png,t4.png,1,0.90025,19,female,2020-09-05_21h00.55.374,torte-2b,2020.1.3,MacIntel,60,13188,1.801,,,,,,,,,,,,,,,,,,,,,,,,,,,,,,,,,,,,,,,,,,,,,,,,,,,,,,,,,,,,,,,,,
,,,,,,,,,,,,l,Correct!,0,9,9,80,1,t1.png,t4.png,3,0.0000131,19,female,2020-09-05_21h00.55.374,torte-2b,2020.1.3,MacIntel,60,13188,1.158,,,,,,,,,,,,,,,,,,,,,,,,,,,,,,,,,,,,,,,,,,,,,,,,,,,,,,,,,,,,,,,,,
,,,,,,,,,,,,a,Correct!,0,10,10,76,1,t3.png,t2.png,1,0.90855,19,female,2020-09-05_21h00.55.374,torte-2b,2020.1.3,MacIntel,60,13188,1.412,,,,,,,,,,,,,,,,,,,,,,,,,,,,,,,,,,,,,,,,,,,,,,,,,,,,,,,,,,,,,,,,,
,,,,,,,,,,,,l,Correct!,0,11,11,98,1,t2.png,t4.png,2,0.0591,19,female,2020-09-05_21h00.55.374,torte-2b,2020.1.3,MacIntel,60,13188,0.717,,,,,,,,,,,,,,,,,,,,,,,,,,,,,,,,,,,,,,,,,,,,,,,,,,,,,,,,,,,,,,,,,
,,,,,,,,,,,,l,Incorrect,0,12,12,10,1,t2.png,t3.png,1,0.90855,19,female,2020-09-05_21h00.55.374,torte-2b,2020.1.3,MacIntel,60,13188,1.601,,,,,,,,,,,,,,,,,,,,,,,,,,,,,,,,,,,,,,,,,,,,,,,,,,,,,,,,,,,,,,,,,
,,,,,,,,,,,,l,Incorrect,0,13,13,78,1,t1.png,t1.png,0,0.978,19,female,2020-09-05_21h00.55.374,torte-2b,2020.1.3,MacIntel,60,13188,2.002,,,,,,,,,,,,,,,,,,,,,,,,,,,,,,,,,,,,,,,,,,,,,,,,,,,,,,,,,,,,,,,,,
,,,,,,,,,,,,l,Incorrect,0,14,14,22,1,t2.png,t3.png,1,0.90855,19,female,2020-09-05_21h00.55.374,torte-2b,2020.1.3,MacIntel,60,13188,2.452,,,,,,,,,,,,,,,,,,,,,,,,,,,,,,,,,,,,,,,,,,,,,,,,,,,,,,,,,,,,,,,,,
,,,,,,,,,,,,a,Incorrect,0,15,15,33,1,t5.png,t1.png,4,9.55E-11,19,female,2020-09-05_21h00.55.374,torte-2b,2020.1.3,MacIntel,60,13188,0.833,,,,,,,,,,,,,,,,,,,,,,,,,,,,,,,,,,,,,,,,,,,,,,,,,,,,,,,,,,,,,,,,,
,,,,,,,,,,,,,Too slow :(,0,16,16,109,1,t5.png,t5.png,0,0.97829,19,female,2020-09-05_21h00.55.374,torte-2b,2020.1.3,MacIntel,60,13188,,,,,,,,,,,,,,,,,,,,,,,,,,,,,,,,,,,,,,,,,,,,,,,,,,,,,,,,,,,,,,,,,,
,,,,,,,,,,,,l,Incorrect,0,17,17,9,1,t4.png,t5.png,1,0.9,19,female,2020-09-05_21h00.55.374,torte-2b,2020.1.3,MacIntel,60,13188,1.6,,,,,,,,,,,,,,,,,,,,,,,,,,,,,,,,,,,,,,,,,,,,,,,,,,,,,,,,,,,,,,,,,
,,,,,,,,,,,,a,Correct!,0,18,18,95,1,t1.png,t1.png,0,0.978,19,female,2020-09-05_21h00.55.374,torte-2b,2020.1.3,MacIntel,60,13188,2.167,,,,,,,,,,,,,,,,,,,,,,,,,,,,,,,,,,,,,,,,,,,,,,,,,,,,,,,,,,,,,,,,,
,,,,,,,,,,,,a,Correct!,0,19,19,77,1,t1.png,t1.png,0,0.97829,19,female,2020-09-05_21h00.55.374,torte-2b,2020.1.3,MacIntel,60,13188,1.601,,,,,,,,,,,,,,,,,,,,,,,,,,,,,,,,,,,,,,,,,,,,,,,,,,,,,,,,,,,,,,,,,
,,,,,,,,,,,,a,Incorrect,0,20,20,19,1,t4.png,t2.png,2,0.059078,19,female,2020-09-05_21h00.55.374,torte-2b,2020.1.3,MacIntel,60,13188,0.967,,,,,,,,,,,,,,,,,,,,,,,,,,,,,,,,,,,,,,,,,,,,,,,,,,,,,,,,,,,,,,,,,
,,,,,,,,,,,,a,Correct!,0,21,21,116,1,t5.png,t4.png,1,0.90025,19,female,2020-09-05_21h00.55.374,torte-2b,2020.1.3,MacIntel,60,13188,2.374,,,,,,,,,,,,,,,,,,,,,,,,,,,,,,,,,,,,,,,,,,,,,,,,,,,,,,,,,,,,,,,,,
,,,,,,,,,,,,a,Incorrect,0,22,22,46,1,t4.png,t2.png,2,0.059078,19,female,2020-09-05_21h00.55.374,torte-2b,2020.1.3,MacIntel,60,13188,0.784,,,,,,,,,,,,,,,,,,,,,,,,,,,,,,,,,,,,,,,,,,,,,,,,,,,,,,,,,,,,,,,,,
,,,,,,,,,,,,l,Incorrect,0,23,23,84,1,t1.png,t1.png,0,0.97829,19,female,2020-09-05_21h00.55.374,torte-2b,2020.1.3,MacIntel,60,13188,2.182,,,,,,,,,,,,,,,,,,,,,,,,,,,,,,,,,,,,,,,,,,,,,,,,,,,,,,,,,,,,,,,,,
,,,,,,,,,,,,l,Correct!,0,24,24,54,1,t1.png,t5.png,4,9.55E-11,19,female,2020-09-05_21h00.55.374,torte-2b,2020.1.3,MacIntel,60,13188,1.153,,,,,,,,,,,,,,,,,,,,,,,,,,,,,,,,,,,,,,,,,,,,,,,,,,,,,,,,,,,,,,,,,
,,,,,,,,,,,,a,Incorrect,0,25,25,103,1,t3.png,t1.png,2,0.056466,19,female,2020-09-05_21h00.55.374,torte-2b,2020.1.3,MacIntel,60,13188,0.864,,,,,,,,,,,,,,,,,,,,,,,,,,,,,,,,,,,,,,,,,,,,,,,,,,,,,,,,,,,,,,,,,
,,,,,,,,,,,,l,Correct!,0,26,26,93,1,t2.png,t4.png,2,0.059078,19,female,2020-09-05_21h00.55.374,torte-2b,2020.1.3,MacIntel,60,13188,1.201,,,,,,,,,,,,,,,,,,,,,,,,,,,,,,,,,,,,,,,,,,,,,,,,,,,,,,,,,,,,,,,,,
,,,,,,,,,,,,a,Incorrect,0,27,27,87,1,t5.png,t1.png,4,9.55E-11,19,female,2020-09-05_21h00.55.374,torte-2b,2020.1.3,MacIntel,60,13188,0.883,,,,,,,,,,,,,,,,,,,,,,,,,,,,,,,,,,,,,,,,,,,,,,,,,,,,,,,,,,,,,,,,,
,,,,,,,,,,,,l,Correct!,0,28,28,90,1,t1.png,t5.png,4,9.55E-11,19,female,2020-09-05_21h00.55.374,torte-2b,2020.1.3,MacIntel,60,13188,0.739,,,,,,,,,,,,,,,,,,,,,,,,,,,,,,,,,,,,,,,,,,,,,,,,,,,,,,,,,,,,,,,,,
,,,,,,,,,,,,l,Correct!,0,29,29,57,1,t2.png,t4.png,2,0.059078,19,female,2020-09-05_21h00.55.374,torte-2b,2020.1.3,MacIntel,60,13188,0.748,,,,,,,,,,,,,,,,,,,,,,,,,,,,,,,,,,,,,,,,,,,,,,,,,,,,,,,,,,,,,,,,,
,,,,,,,,,,,,a,Incorrect,0,30,30,38,1,t3.png,t1.png,2,0.056466,19,female,2020-09-05_21h00.55.374,torte-2b,2020.1.3,MacIntel,60,13188,0.782,,,,,,,,,,,,,,,,,,,,,,,,,,,,,,,,,,,,,,,,,,,,,,,,,,,,,,,,,,,,,,,,,
,,,,,,,,,,,,l,Correct!,0,31,31,1,1,t2.png,t4.png,2,0.059078,19,female,2020-09-05_21h00.55.374,torte-2b,2020.1.3,MacIntel,60,13188,0.914,,,,,,,,,,,,,,,,,,,,,,,,,,,,,,,,,,,,,,,,,,,,,,,,,,,,,,,,,,,,,,,,,
,,,,,,,,,,,,l,Incorrect,0,32,32,97,1,t5.png,t5.png,0,0.97829,19,female,2020-09-05_21h00.55.374,torte-2b,2020.1.3,MacIntel,60,13188,0.787,,,,,,,,,,,,,,,,,,,,,,,,,,,,,,,,,,,,,,,,,,,,,,,,,,,,,,,,,,,,,,,,,
,,,,,,,,,,,,a,Correct!,0,33,33,15,1,t3.png,t2.png,1,0.90855,19,female,2020-09-05_21h00.55.374,torte-2b,2020.1.3,MacIntel,60,13188,1.09,,,,,,,,,,,,,,,,,,,,,,,,,,,,,,,,,,,,,,,,,,,,,,,,,,,,,,,,,,,,,,,,,
,,,,,,,,,,,,a,Correct!,0,34,34,62,1,t5.png,t5.png,0,0.978,19,female,2020-09-05_21h00.55.374,torte-2b,2020.1.3,MacIntel,60,13188,0.782,,,,,,,,,,,,,,,,,,,,,,,,,,,,,,,,,,,,,,,,,,,,,,,,,,,,,,,,,,,,,,,,,
,,,,,,,,,,,,a,Correct!,0,35,35,69,1,t4.png,t2.png,2,0.059078,19,female,2020-09-05_21h00.55.374,torte-2b,2020.1.3,MacIntel,60,13188,1.281,,,,,,,,,,,,,,,,,,,,,,,,,,,,,,,,,,,,,,,,,,,,,,,,,,,,,,,,,,,,,,,,,
,,,,,,,,,,,,a,Incorrect,0,36,36,52,1,t2.png,t4.png,2,0.059078,19,female,2020-09-05_21h00.55.374,torte-2b,2020.1.3,MacIntel,60,13188,1.321,,,,,,,,,,,,,,,,,,,,,,,,,,,,,,,,,,,,,,,,,,,,,,,,,,,,,,,,,,,,,,,,,
,,,,,,,,,,,,l,Incorrect,0,37,37,29,1,t5.png,t5.png,0,0.97829,19,female,2020-09-05_21h00.55.374,torte-2b,2020.1.3,MacIntel,60,13188,1.487,,,,,,,,,,,,,,,,,,,,,,,,,,,,,,,,,,,,,,,,,,,,,,,,,,,,,,,,,,,,,,,,,
,,,,,,,,,,,,a,Incorrect,0,38,38,108,1,t5.png,t1.png,4,9.55E-11,19,female,2020-09-05_21h00.55.374,torte-2b,2020.1.3,MacIntel,60,13188,0.781,,,,,,,,,,,,,,,,,,,,,,,,,,,,,,,,,,,,,,,,,,,,,,,,,,,,,,,,,,,,,,,,,
,,,,,,,,,,,,a,Correct!,0,39,39,34,1,t5.png,t4.png,1,0.9,19,female,2020-09-05_21h00.55.374,torte-2b,2020.1.3,MacIntel,60,13188,1.531,,,,,,,,,,,,,,,,,,,,,,,,,,,,,,,,,,,,,,,,,,,,,,,,,,,,,,,,,,,,,,,,,
,,,,,,,,,,,,a,Incorrect,0,40,40,82,1,t5.png,t1.png,4,9.55E-11,19,female,2020-09-05_21h00.55.374,torte-2b,2020.1.3,MacIntel,60,13188,0.768,,,,,,,,,,,,,,,,,,,,,,,,,,,,,,,,,,,,,,,,,,,,,,,,,,,,,,,,,,,,,,,,,
,,,,,,,,,,,,l,Incorrect,0,41,41,101,1,t4.png,t5.png,1,0.90025,19,female,2020-09-05_21h00.55.374,torte-2b,2020.1.3,MacIntel,60,13188,0.933,,,,,,,,,,,,,,,,,,,,,,,,,,,,,,,,,,,,,,,,,,,,,,,,,,,,,,,,,,,,,,,,,
,,,,,,,,,,,,l,Correct!,0,42,42,60,1,t2.png,t4.png,2,0.059078,19,female,2020-09-05_21h00.55.374,torte-2b,2020.1.3,MacIntel,60,13188,0.738,,,,,,,,,,,,,,,,,,,,,,,,,,,,,,,,,,,,,,,,,,,,,,,,,,,,,,,,,,,,,,,,,
,,,,,,,,,,,,l,Incorrect,0,43,43,110,1,t4.png,t5.png,1,0.90025,19,female,2020-09-05_21h00.55.374,torte-2b,2020.1.3,MacIntel,60,13188,0.851,,,,,,,,,,,,,,,,,,,,,,,,,,,,,,,,,,,,,,,,,,,,,,,,,,,,,,,,,,,,,,,,,
,,,,,,,,,,,,a,Correct!,0,44,44,41,1,t3.png,t2.png,1,0.90855,19,female,2020-09-05_21h00.55.374,torte-2b,2020.1.3,MacIntel,60,13188,1.02,,,,,,,,,,,,,,,,,,,,,,,,,,,,,,,,,,,,,,,,,,,,,,,,,,,,,,,,,,,,,,,,,
,,,,,,,,,,,,a,Incorrect,0,45,45,53,1,t3.png,t1.png,2,0.056466,19,female,2020-09-05_21h00.55.374,torte-2b,2020.1.3,MacIntel,60,13188,0.683,,,,,,,,,,,,,,,,,,,,,,,,,,,,,,,,,,,,,,,,,,,,,,,,,,,,,,,,,,,,,,,,,
,,,,,,,,,,,,l,Correct!,0,46,46,83,1,t3.png,t1.png,2,0.056466,19,female,2020-09-05_21h00.55.374,torte-2b,2020.1.3,MacIntel,60,13188,1.506,,,,,,,,,,,,,,,,,,,,,,,,,,,,,,,,,,,,,,,,,,,,,,,,,,,,,,,,,,,,,,,,,
,,,,,,,,,,,,l,Correct!,0,47,47,26,1,t4.png,t2.png,2,0.0591,19,female,2020-09-05_21h00.55.374,torte-2b,2020.1.3,MacIntel,60,13188,1.718,,,,,,,,,,,,,,,,,,,,,,,,,,,,,,,,,,,,,,,,,,,,,,,,,,,,,,,,,,,,,,,,,
,,,,,,,,,,,,l,Incorrect,0,48,48,100,1,t4.png,t5.png,1,0.90025,19,female,2020-09-05_21h00.55.374,torte-2b,2020.1.3,MacIntel,60,13188,1.334,,,,,,,,,,,,,,,,,,,,,,,,,,,,,,,,,,,,,,,,,,,,,,,,,,,,,,,,,,,,,,,,,
,,,,,,,,,,,,l,Correct!,0,49,49,12,1,t5.png,t1.png,4,9.55E-11,19,female,2020-09-05_21h00.55.374,torte-2b,2020.1.3,MacIntel,60,13188,1.78,,,,,,,,,,,,,,,,,,,,,,,,,,,,,,,,,,,,,,,,,,,,,,,,,,,,,,,,,,,,,,,,,
,,,,,,,,,,,,,Too slow :(,0,50,50,32,1,t4.png,t5.png,1,0.90025,19,female,2020-09-05_21h00.55.374,torte-2b,2020.1.3,MacIntel,60,13188,,,,,,,,,,,,,,,,,,,,,,,,,,,,,,,,,,,,,,,,,,,,,,,,,,,,,,,,,,,,,,,,,,
,,,,,,,,,,,,l,Incorrect,0,51,51,49,1,t4.png,t5.png,1,0.9,19,female,2020-09-05_21h00.55.374,torte-2b,2020.1.3,MacIntel,60,13188,1.5,,,,,,,,,,,,,,,,,,,,,,,,,,,,,,,,,,,,,,,,,,,,,,,,,,,,,,,,,,,,,,,,,
,,,,,,,,,,,,l,Incorrect,0,52,52,63,1,t2.png,t3.png,1,0.909,19,female,2020-09-05_21h00.55.374,torte-2b,2020.1.3,MacIntel,60,13188,1.583,,,,,,,,,,,,,,,,,,,,,,,,,,,,,,,,,,,,,,,,,,,,,,,,,,,,,,,,,,,,,,,,,
,,,,,,,,,,,,l,Correct!,0,53,53,72,1,t4.png,t2.png,2,0.059078,19,female,2020-09-05_21h00.55.374,torte-2b,2020.1.3,MacIntel,60,13188,1.689,,,,,,,,,,,,,,,,,,,,,,,,,,,,,,,,,,,,,,,,,,,,,,,,,,,,,,,,,,,,,,,,,
,,,,,,,,,,,,l,Correct!,0,54,54,27,1,t3.png,t1.png,2,0.0565,19,female,2020-09-05_21h00.55.374,torte-2b,2020.1.3,MacIntel,60,13188,1.368,,,,,,,,,,,,,,,,,,,,,,,,,,,,,,,,,,,,,,,,,,,,,,,,,,,,,,,,,,,,,,,,,
,,,,,,,,,,,,l,Incorrect,0,55,55,81,1,t1.png,t1.png,0,0.97829,19,female,2020-09-05_21h00.55.374,torte-2b,2020.1.3,MacIntel,60,13188,1.219,,,,,,,,,,,,,,,,,,,,,,,,,,,,,,,,,,,,,,,,,,,,,,,,,,,,,,,,,,,,,,,,,
,,,,,,,,,,,,a,Incorrect,0,56,56,68,1,t1.png,t4.png,3,0.0000131,19,female,2020-09-05_21h00.55.374,torte-2b,2020.1.3,MacIntel,60,13188,1.519,,,,,,,,,,,,,,,,,,,,,,,,,,,,,,,,,,,,,,,,,,,,,,,,,,,,,,,,,,,,,,,,,
,,,,,,,,,,,,l,Correct!,0,57,57,91,1,t1.png,t4.png,3,0.0000131,19,female,2020-09-05_21h00.55.374,torte-2b,2020.1.3,MacIntel,60,13188,1.367,,,,,,,,,,,,,,,,,,,,,,,,,,,,,,,,,,,,,,,,,,,,,,,,,,,,,,,,,,,,,,,,,
,,,,,,,,,,,,a,Incorrect,0,58,58,111,1,t5.png,t1.png,4,9.55E-11,19,female,2020-09-05_21h00.55.374,torte-2b,2020.1.3,MacIntel,60,13188,1.501,,,,,,,,,,,,,,,,,,,,,,,,,,,,,,,,,,,,,,,,,,,,,,,,,,,,,,,,,,,,,,,,,
,,,,,,,,,,,,a,Correct!,0,59,59,106,1,t2.png,t3.png,1,0.90855,19,female,2020-09-05_21h00.55.374,torte-2b,2020.1.3,MacIntel,60,13188,1.455,,,,,,,,,,,,,,,,,,,,,,,,,,,,,,,,,,,,,,,,,,,,,,,,,,,,,,,,,,,,,,,,,
,,,,,,,,,,,,a,Incorrect,0,60,60,61,1,t1.png,t4.png,3,0.0000131,19,female,2020-09-05_21h00.55.374,torte-2b,2020.1.3,MacIntel,60,13188,1.686,,,,,,,,,,,,,,,,,,,,,,,,,,,,,,,,,,,,,,,,,,,,,,,,,,,,,,,,,,,,,,,,,
,,,,,,,,,,,,a,Correct!,0,61,61,107,1,t1.png,t1.png,0,0.978,19,female,2020-09-05_21h00.55.374,torte-2b,2020.1.3,MacIntel,60,13188,1.269,,,,,,,,,,,,,,,,,,,,,,,,,,,,,,,,,,,,,,,,,,,,,,,,,,,,,,,,,,,,,,,,,
,,,,,,,,,,,,l,Correct!,0,62,62,24,1,t4.png,t2.png,2,0.059078,19,female,2020-09-05_21h00.55.374,torte-2b,2020.1.3,MacIntel,60,13188,1.063,,,,,,,,,,,,,,,,,,,,,,,,,,,,,,,,,,,,,,,,,,,,,,,,,,,,,,,,,,,,,,,,,
,,,,,,,,,,,,l,Incorrect,0,63,63,105,1,t3.png,t2.png,1,0.90855,19,female,2020-09-05_21h00.55.374,torte-2b,2020.1.3,MacIntel,60,13188,1.475,,,,,,,,,,,,,,,,,,,,,,,,,,,,,,,,,,,,,,,,,,,,,,,,,,,,,,,,,,,,,,,,,
,,,,,,,,,,,,l,Correct!,0,64,64,67,1,t1.png,t5.png,4,9.55E-11,19,female,2020-09-05_21h00.55.374,torte-2b,2020.1.3,MacIntel,60,13188,1.633,,,,,,,,,,,,,,,,,,,,,,,,,,,,,,,,,,,,,,,,,,,,,,,,,,,,,,,,,,,,,,,,,
,,,,,,,,,,,,l,Incorrect,0,65,65,114,1,t2.png,t3.png,1,0.90855,19,female,2020-09-05_21h00.55.374,torte-2b,2020.1.3,MacIntel,60,13188,2.315,,,,,,,,,,,,,,,,,,,,,,,,,,,,,,,,,,,,,,,,,,,,,,,,,,,,,,,,,,,,,,,,,
,,,,,,,,,,,,a,Incorrect,0,66,66,40,1,t1.png,t5.png,4,9.55E-11,19,female,2020-09-05_21h00.55.374,torte-2b,2020.1.3,MacIntel,60,13188,2.035,,,,,,,,,,,,,,,,,,,,,,,,,,,,,,,,,,,,,,,,,,,,,,,,,,,,,,,,,,,,,,,,,
,,,,,,,,,,,,l,Correct!,0,67,67,47,1,t4.png,t2.png,2,0.059078,19,female,2020-09-05_21h00.55.374,torte-2b,2020.1.3,MacIntel,60,13188,2.04,,,,,,,,,,,,,,,,,,,,,,,,,,,,,,,,,,,,,,,,,,,,,,,,,,,,,,,,,,,,,,,,,
,,,,,,,,,,,,a,Incorrect,0,68,68,18,1,t4.png,t5.png,1,0.90025,19,female,2020-09-05_21h00.55.374,torte-2b,2020.1.3,MacIntel,60,13188,2.405,,,,,,,,,,,,,,,,,,,,,,,,,,,,,,,,,,,,,,,,,,,,,,,,,,,,,,,,,,,,,,,,,
,,,,,,,,,,,,l,Correct!,0,69,69,5,1,t2.png,t4.png,2,0.059078,19,female,2020-09-05_21h00.55.374,torte-2b,2020.1.3,MacIntel,60,13188,1.099,,,,,,,,,,,,,,,,,,,,,,,,,,,,,,,,,,,,,,,,,,,,,,,,,,,,,,,,,,,,,,,,,
,,,,,,,,,,,,l,Incorrect,0,70,70,7,1,t4.png,t5.png,1,0.90025,19,female,2020-09-05_21h00.55.374,torte-2b,2020.1.3,MacIntel,60,13188,2.203,,,,,,,,,,,,,,,,,,,,,,,,,,,,,,,,,,,,,,,,,,,,,,,,,,,,,,,,,,,,,,,,,
,,,,,,,,,,,,a,Incorrect,0,71,71,42,1,t5.png,t4.png,1,0.90025,19,female,2020-09-05_21h00.55.374,torte-2b,2020.1.3,MacIntel,60,13188,1.689,,,,,,,,,,,,,,,,,,,,,,,,,,,,,,,,,,,,,,,,,,,,,,,,,,,,,,,,,,,,,,,,,
,,,,,,,,,,,,l,Correct!,0,72,72,6,1,t1.png,t4.png,3,0.0000131,19,female,2020-09-05_21h00.55.374,torte-2b,2020.1.3,MacIntel,60,13188,1.423,,,,,,,,,,,,,,,,,,,,,,,,,,,,,,,,,,,,,,,,,,,,,,,,,,,,,,,,,,,,,,,,,
,,,,,,,,,,,,l,Incorrect,0,73,73,8,1,t3.png,t2.png,1,0.90855,19,female,2020-09-05_21h00.55.374,torte-2b,2020.1.3,MacIntel,60,13188,2.318,,,,,,,,,,,,,,,,,,,,,,,,,,,,,,,,,,,,,,,,,,,,,,,,,,,,,,,,,,,,,,,,,
,,,,,,,,,,,,l,Correct!,0,74,74,119,1,t1.png,t5.png,4,9.55E-11,19,female,2020-09-05_21h00.55.374,torte-2b,2020.1.3,MacIntel,60,13188,1.517,,,,,,,,,,,,,,,,,,,,,,,,,,,,,,,,,,,,,,,,,,,,,,,,,,,,,,,,,,,,,,,,,
,,,,,,,,,,,,l,Incorrect,0,75,75,48,1,t5.png,t5.png,0,0.97829,19,female,2020-09-05_21h00.55.374,torte-2b,2020.1.3,MacIntel,60,13188,2.152,,,,,,,,,,,,,,,,,,,,,,,,,,,,,,,,,,,,,,,,,,,,,,,,,,,,,,,,,,,,,,,,,
,,,,,,,,,,,,a,Correct!,0,76,76,74,1,t5.png,t4.png,1,0.9,19,female,2020-09-05_21h00.55.374,torte-2b,2020.1.3,MacIntel,60,13188,2.047,,,,,,,,,,,,,,,,,,,,,,,,,,,,,,,,,,,,,,,,,,,,,,,,,,,,,,,,,,,,,,,,,
,,,,,,,,,,,,l,Incorrect,0,77,77,104,1,t2.png,t3.png,1,0.90855,19,female,2020-09-05_21h00.55.374,torte-2b,2020.1.3,MacIntel,60,13188,2.134,,,,,,,,,,,,,,,,,,,,,,,,,,,,,,,,,,,,,,,,,,,,,,,,,,,,,,,,,,,,,,,,,
,,,,,,,,,,,,a,Correct!,0,78,78,39,1,t3.png,t2.png,1,0.90855,19,female,2020-09-05_21h00.55.374,torte-2b,2020.1.3,MacIntel,60,13188,1.304,,,,,,,,,,,,,,,,,,,,,,,,,,,,,,,,,,,,,,,,,,,,,,,,,,,,,,,,,,,,,,,,,
,,,,,,,,,,,,a,Incorrect,0,79,79,102,1,t4.png,t2.png,2,0.059078,19,female,2020-09-05_21h00.55.374,torte-2b,2020.1.3,MacIntel,60,13188,1.502,,,,,,,,,,,,,,,,,,,,,,,,,,,,,,,,,,,,,,,,,,,,,,,,,,,,,,,,,,,,,,,,,
,,,,,,,,,,,,a,Correct!,0,80,80,64,1,t1.png,t1.png,0,0.978,19,female,2020-09-05_21h00.55.374,torte-2b,2020.1.3,MacIntel,60,13188,1.448,,,,,,,,,,,,,,,,,,,,,,,,,,,,,,,,,,,,,,,,,,,,,,,,,,,,,,,,,,,,,,,,,
,,,,,,,,,,,,,Too slow :(,0,81,81,4,1,t1.png,t5.png,4,9.55E-11,19,female,2020-09-05_21h00.55.374,torte-2b,2020.1.3,MacIntel,60,13188,,,,,,,,,,,,,,,,,,,,,,,,,,,,,,,,,,,,,,,,,,,,,,,,,,,,,,,,,,,,,,,,,,
,,,,,,,,,,,,a,Correct!,0,82,82,85,1,t3.png,t2.png,1,0.90855,19,female,2020-09-05_21h00.55.374,torte-2b,2020.1.3,MacIntel,60,13188,1.448,,,,,,,,,,,,,,,,,,,,,,,,,,,,,,,,,,,,,,,,,,,,,,,,,,,,,,,,,,,,,,,,,
,,,,,,,,,,,,a,Incorrect,0,83,83,56,1,t5.png,t1.png,4,9.55E-11,19,female,2020-09-05_21h00.55.374,torte-2b,2020.1.3,MacIntel,60,13188,1.204,,,,,,,,,,,,,,,,,,,,,,,,,,,,,,,,,,,,,,,,,,,,,,,,,,,,,,,,,,,,,,,,,
,,,,,,,,,,,,l,Incorrect,0,84,84,14,1,t2.png,t4.png,2,0.059078,19,female,2020-09-05_21h00.55.374,torte-2b,2020.1.3,MacIntel,60,13188,2.169,,,,,,,,,,,,,,,,,,,,,,,,,,,,,,,,,,,,,,,,,,,,,,,,,,,,,,,,,,,,,,,,,
,,,,,,,,,,,,a,Correct!,0,85,85,23,1,t5.png,t4.png,1,0.90025,19,female,2020-09-05_21h00.55.374,torte-2b,2020.1.3,MacIntel,60,13188,1.266,,,,,,,,,,,,,,,,,,,,,,,,,,,,,,,,,,,,,,,,,,,,,,,,,,,,,,,,,,,,,,,,,
,,,,,,,,,,,,a,Incorrect,0,86,86,86,1,t3.png,t1.png,2,0.056466,19,female,2020-09-05_21h00.55.374,torte-2b,2020.1.3,MacIntel,60,13188,1.204,,,,,,,,,,,,,,,,,,,,,,,,,,,,,,,,,,,,,,,,,,,,,,,,,,,,,,,,,,,,,,,,,
,,,,,,,,,,,,l,Incorrect,0,87,87,13,1,t5.png,t5.png,0,0.97829,19,female,2020-09-05_21h00.55.374,torte-2b,2020.1.3,MacIntel,60,13188,1.791,,,,,,,,,,,,,,,,,,,,,,,,,,,,,,,,,,,,,,,,,,,,,,,,,,,,,,,,,,,,,,,,,
,,,,,,,,,,,,a,Incorrect,0,88,88,43,1,t4.png,t2.png,2,0.059078,19,female,2020-09-05_21h00.55.374,torte-2b,2020.1.3,MacIntel,60,13188,0.981,,,,,,,,,,,,,,,,,,,,,,,,,,,,,,,,,,,,,,,,,,,,,,,,,,,,,,,,,,,,,,,,,
,,,,,,,,,,,,l,Correct!,0,89,89,88,1,t3.png,t1.png,2,0.056466,19,female,2020-09-05_21h00.55.374,torte-2b,2020.1.3,MacIntel,60,13188,1.681,,,,,,,,,,,,,,,,,,,,,,,,,,,,,,,,,,,,,,,,,,,,,,,,,,,,,,,,,,,,,,,,,
,,,,,,,,,,,,a,Correct!,0,90,90,2,1,t3.png,t2.png,1,0.90855,19,female,2020-09-05_21h00.55.374,torte-2b,2020.1.3,MacIntel,60,13188,1.536,,,,,,,,,,,,,,,,,,,,,,,,,,,,,,,,,,,,,,,,,,,,,,,,,,,,,,,,,,,,,,,,,
,,,,,,,,,,,,a,Incorrect,0,91,91,117,1,t1.png,t5.png,4,9.55E-11,19,female,2020-09-05_21h00.55.374,torte-2b,2020.1.3,MacIntel,60,13188,1.438,,,,,,,,,,,,,,,,,,,,,,,,,,,,,,,,,,,,,,,,,,,,,,,,,,,,,,,,,,,,,,,,,
,,,,,,,,,,,,a,Correct!,0,92,92,20,1,t2.png,t3.png,1,0.90855,19,female,2020-09-05_21h00.55.374,torte-2b,2020.1.3,MacIntel,60,13188,1.2,,,,,,,,,,,,,,,,,,,,,,,,,,,,,,,,,,,,,,,,,,,,,,,,,,,,,,,,,,,,,,,,,
,,,,,,,,,,,,l,Incorrect,0,93,93,79,1,t3.png,t2.png,1,0.909,19,female,2020-09-05_21h00.55.374,torte-2b,2020.1.3,MacIntel,60,13188,1.505,,,,,,,,,,,,,,,,,,,,,,,,,,,,,,,,,,,,,,,,,,,,,,,,,,,,,,,,,,,,,,,,,
,,,,,,,,,,,,a,Correct!,0,94,94,59,1,t5.png,t4.png,1,0.9,19,female,2020-09-05_21h00.55.374,torte-2b,2020.1.3,MacIntel,60,13188,1.569,,,,,,,,,,,,,,,,,,,,,,,,,,,,,,,,,,,,,,,,,,,,,,,,,,,,,,,,,,,,,,,,,
,,,,,,,,,,,,l,Incorrect,0,95,95,92,1,t2.png,t3.png,1,0.909,19,female,2020-09-05_21h00.55.374,torte-2b,2020.1.3,MacIntel,60,13188,1.419,,,,,,,,,,,,,,,,,,,,,,,,,,,,,,,,,,,,,,,,,,,,,,,,,,,,,,,,,,,,,,,,,
,,,,,,,,,,,,a,Incorrect,0,96,96,73,1,t4.png,t2.png,2,0.059078,19,female,2020-09-05_21h00.55.374,torte-2b,2020.1.3,MacIntel,60,13188,0.7,,,,,,,,,,,,,,,,,,,,,,,,,,,,,,,,,,,,,,,,,,,,,,,,,,,,,,,,,,,,,,,,,
,,,,,,,,,,,,l,Incorrect,0,97,97,118,1,t5.png,t5.png,0,0.978,19,female,2020-09-05_21h00.55.374,torte-2b,2020.1.3,MacIntel,60,13188,0.882,,,,,,,,,,,,,,,,,,,,,,,,,,,,,,,,,,,,,,,,,,,,,,,,,,,,,,,,,,,,,,,,,
,,,,,,,,,,,,a,Correct!,0,98,98,25,1,t5.png,t5.png,0,0.97829,19,female,2020-09-05_21h00.55.374,torte-2b,2020.1.3,MacIntel,60,13188,0.952,,,,,,,,,,,,,,,,,,,,,,,,,,,,,,,,,,,,,,,,,,,,,,,,,,,,,,,,,,,,,,,,,
,,,,,,,,,,,,,Too slow :(,0,99,99,44,1,t2.png,t3.png,1,0.909,19,female,2020-09-05_21h00.55.374,torte-2b,2020.1.3,MacIntel,60,13188,,,,,,,,,,,,,,,,,,,,,,,,,,,,,,,,,,,,,,,,,,,,,,,,,,,,,,,,,,,,,,,,,,
,,,,,,,,,,,,l,Incorrect,0,100,100,113,1,t5.png,t4.png,1,0.9,19,female,2020-09-05_21h00.55.374,torte-2b,2020.1.3,MacIntel,60,13188,0.982,,,,,,,,,,,,,,,,,,,,,,,,,,,,,,,,,,,,,,,,,,,,,,,,,,,,,,,,,,,,,,,,,
,,,,,,,,,,,,l,Incorrect,0,101,101,112,1,t1.png,t1.png,0,0.97829,19,female,2020-09-05_21h00.55.374,torte-2b,2020.1.3,MacIntel,60,13188,0.916,,,,,,,,,,,,,,,,,,,,,,,,,,,,,,,,,,,,,,,,,,,,,,,,,,,,,,,,,,,,,,,,,
,,,,,,,,,,,,l,Incorrect,0,102,102,66,1,t4.png,t5.png,1,0.9,19,female,2020-09-05_21h00.55.374,torte-2b,2020.1.3,MacIntel,60,13188,1.363,,,,,,,,,,,,,,,,,,,,,,,,,,,,,,,,,,,,,,,,,,,,,,,,,,,,,,,,,,,,,,,,,
,,,,,,,,,,,,a,Incorrect,0,103,103,94,1,t5.png,t1.png,4,9.55E-11,19,female,2020-09-05_21h00.55.374,torte-2b,2020.1.3,MacIntel,60,13188,1.324,,,,,,,,,,,,,,,,,,,,,,,,,,,,,,,,,,,,,,,,,,,,,,,,,,,,,,,,,,,,,,,,,
,,,,,,,,,,,,a,Incorrect,0,104,104,51,1,t3.png,t1.png,2,0.056466,19,female,2020-09-05_21h00.55.374,torte-2b,2020.1.3,MacIntel,60,13188,1.234,,,,,,,,,,,,,,,,,,,,,,,,,,,,,,,,,,,,,,,,,,,,,,,,,,,,,,,,,,,,,,,,,
,,,,,,,,,,,,l,Incorrect,0,105,105,45,1,t3.png,t2.png,1,0.90855,19,female,2020-09-05_21h00.55.374,torte-2b,2020.1.3,MacIntel,60,13188,0.886,,,,,,,,,,,,,,,,,,,,,,,,,,,,,,,,,,,,,,,,,,,,,,,,,,,,,,,,,,,,,,,,,
,,,,,,,,,,,,a,Incorrect,0,106,106,0,1,t5.png,t1.png,4,9.55E-11,19,female,2020-09-05_21h00.55.374,torte-2b,2020.1.3,MacIntel,60,13188,0.7,,,,,,,,,,,,,,,,,,,,,,,,,,,,,,,,,,,,,,,,,,,,,,,,,,,,,,,,,,,,,,,,,
,,,,,,,,,,,,a,Incorrect,0,107,107,17,1,t1.png,t4.png,3,0.0000131,19,female,2020-09-05_21h00.55.374,torte-2b,2020.1.3,MacIntel,60,13188,1.065,,,,,,,,,,,,,,,,,,,,,,,,,,,,,,,,,,,,,,,,,,,,,,,,,,,,,,,,,,,,,,,,,
,,,,,,,,,,,,l,Correct!,0,108,108,3,1,t1.png,t5.png,4,9.55E-11,19,female,2020-09-05_21h00.55.374,torte-2b,2020.1.3,MacIntel,60,13188,0.868,,,,,,,,,,,,,,,,,,,,,,,,,,,,,,,,,,,,,,,,,,,,,,,,,,,,,,,,,,,,,,,,,
,,,,,,,,,,,,a,Correct!,0,109,109,75,1,t1.png,t1.png,0,0.97829,19,female,2020-09-05_21h00.55.374,torte-2b,2020.1.3,MacIntel,60,13188,1.398,,,,,,,,,,,,,,,,,,,,,,,,,,,,,,,,,,,,,,,,,,,,,,,,,,,,,,,,,,,,,,,,,
,,,,,,,,,,,,l,Correct!,0,110,110,89,1,t1.png,t4.png,3,0.0000131,19,female,2020-09-05_21h00.55.374,torte-2b,2020.1.3,MacIntel,60,13188,1.191,,,,,,,,,,,,,,,,,,,,,,,,,,,,,,,,,,,,,,,,,,,,,,,,,,,,,,,,,,,,,,,,,
,,,,,,,,,,,,a,Incorrect,0,111,111,99,1,t1.png,t5.png,4,9.55E-11,19,female,2020-09-05_21h00.55.374,torte-2b,2020.1.3,MacIntel,60,13188,0.597,,,,,,,,,,,,,,,,,,,,,,,,,,,,,,,,,,,,,,,,,,,,,,,,,,,,,,,,,,,,,,,,,
,,,,,,,,,,,,l,Incorrect,0,112,112,65,1,t4.png,t5.png,1,0.90025,19,female,2020-09-05_21h00.55.374,torte-2b,2020.1.3,MacIntel,60,13188,1.068,,,,,,,,,,,,,,,,,,,,,,,,,,,,,,,,,,,,,,,,,,,,,,,,,,,,,,,,,,,,,,,,,
,,,,,,,,,,,,l,Correct!,0,113,113,55,1,t2.png,t4.png,2,0.059078,19,female,2020-09-05_21h00.55.374,torte-2b,2020.1.3,MacIntel,60,13188,0.788,,,,,,,,,,,,,,,,,,,,,,,,,,,,,,,,,,,,,,,,,,,,,,,,,,,,,,,,,,,,,,,,,
,,,,,,,,,,,,a,Incorrect,0,114,114,50,1,t5.png,t1.png,4,9.55E-11,19,female,2020-09-05_21h00.55.374,torte-2b,2020.1.3,MacIntel,60,13188,1.065,,,,,,,,,,,,,,,,,,,,,,,,,,,,,,,,,,,,,,,,,,,,,,,,,,,,,,,,,,,,,,,,,
,,,,,,,,,,,,a,Correct!,0,115,115,16,1,t5.png,t4.png,1,0.9,19,female,2020-09-05_21h00.55.374,torte-2b,2020.1.3,MacIntel,60,13188,1.329,,,,,,,,,,,,,,,,,,,,,,,,,,,,,,,,,,,,,,,,,,,,,,,,,,,,,,,,,,,,,,,,,
,,,,,,,,,,,,,Too slow :(,0,116,116,36,1,t3.png,t1.png,2,0.0565,19,female,2020-09-05_21h00.55.374,torte-2b,2020.1.3,MacIntel,60,13188,,,,,,,,,,,,,,,,,,,,,,,,,,,,,,,,,,,,,,,,,,,,,,,,,,,,,,,,,,,,,,,,,,
,,,,,,,,,,,,l,Correct!,0,117,117,35,1,t1.png,t4.png,3,0.0000131,19,female,2020-09-05_21h00.55.374,torte-2b,2020.1.3,MacIntel,60,13188,1.1,,,,,,,,,,,,,,,,,,,,,,,,,,,,,,,,,,,,,,,,,,,,,,,,,,,,,,,,,,,,,,,,,
,,,,,,,,,,,,a,Correct!,0,118,118,58,1,t5.png,t4.png,1,0.90025,19,female,2020-09-05_21h00.55.374,torte-2b,2020.1.3,MacIntel,60,13188,0.684,,,,,,,,,,,,,,,,,,,,,,,,,,,,,,,,,,,,,,,,,,,,,,,,,,,,,,,,,,,,,,,,,
,,,,,,,,,,,,l,Incorrect,0,119,119,96,1,t1.png,t1.png,0,0.97829,19,female,2020-09-05_21h00.55.374,torte-2b,2020.1.3,MacIntel,60,13188,0.851,,,,,,,,,,,,,,,,,,,,,,,,,,,,,,,,,,,,,,,,,,,,,,,,,,,,,,,,,,,,,,,,,
,,,,,,,,,,,,l,Incorrect,,,,,,t2.png,t3.png,1,0.90855,19,female,2020-09-05_21h00.55.374,torte-2b,2020.1.3,MacIntel,60,13188,1.149,space,41.158,space,44.285,0,0,0,68,1,,,,,,,,,,,,,,,,,,,,,,,,,,,,,,,,,,,,,,,,,,,,,,,,,,,,,,,,
,,,,,,,,,,,,a,Correct!,,,,,,t3.png,t2.png,1,0.90855,19,female,2020-09-05_21h00.55.374,torte-2b,2020.1.3,MacIntel,60,13188,1.45,,,,,0,1,1,53,1,,,,,,,,,,,,,,,,,,,,,,,,,,,,,,,,,,,,,,,,,,,,,,,,,,,,,,,,
,,,,,,,,,,,,a,Incorrect,,,,,,t5.png,t3.png,2,0.0565,19,female,2020-09-05_21h00.55.374,torte-2b,2020.1.3,MacIntel,60,13188,0.886,,,,,0,2,2,39,1,,,,,,,,,,,,,,,,,,,,,,,,,,,,,,,,,,,,,,,,,,,,,,,,,,,,,,,,
,,,,,,,,,,,,l,Incorrect,,,,,,t1.png,t1.png,0,0.97829,19,female,2020-09-05_21h00.55.374,torte-2b,2020.1.3,MacIntel,60,13188,1.537,,,,,0,3,3,9,1,,,,,,,,,,,,,,,,,,,,,,,,,,,,,,,,,,,,,,,,,,,,,,,,,,,,,,,,
,,,,,,,,,,,,l,Correct!,,,,,,t3.png,t5.png,2,0.056466,19,female,2020-09-05_21h00.55.374,torte-2b,2020.1.3,MacIntel,60,13188,1.113,,,,,0,4,4,44,1,,,,,,,,,,,,,,,,,,,,,,,,,,,,,,,,,,,,,,,,,,,,,,,,,,,,,,,,
,,,,,,,,,,,,a,Correct!,,,,,,t4.png,t3.png,1,0.90855,19,female,2020-09-05_21h00.55.374,torte-2b,2020.1.3,MacIntel,60,13188,0.656,,,,,0,5,5,45,1,,,,,,,,,,,,,,,,,,,,,,,,,,,,,,,,,,,,,,,,,,,,,,,,,,,,,,,,
,,,,,,,,,,,,a,Incorrect,,,,,,t5.png,t3.png,2,0.056466,19,female,2020-09-05_21h00.55.374,torte-2b,2020.1.3,MacIntel,60,13188,0.535,,,,,0,6,6,38,1,,,,,,,,,,,,,,,,,,,,,,,,,,,,,,,,,,,,,,,,,,,,,,,,,,,,,,,,
,,,,,,,,,,,,l,Correct!,,,,,,t3.png,t1.png,2,0.056466,19,female,2020-09-05_21h00.55.374,torte-2b,2020.1.3,MacIntel,60,13188,1,,,,,0,7,7,0,1,,,,,,,,,,,,,,,,,,,,,,,,,,,,,,,,,,,,,,,,,,,,,,,,,,,,,,,,
,,,,,,,,,,,,l,Correct!,,,,,,t2.png,t5.png,3,0.0000131,19,female,2020-09-05_21h00.55.374,torte-2b,2020.1.3,MacIntel,60,13188,0.773,,,,,0,8,8,66,1,,,,,,,,,,,,,,,,,,,,,,,,,,,,,,,,,,,,,,,,,,,,,,,,,,,,,,,,
,,,,,,,,,,,,l,Correct!,,,,,,t4.png,t1.png,3,0.0000131,19,female,2020-09-05_21h00.55.374,torte-2b,2020.1.3,MacIntel,60,13188,1.114,,,,,0,9,9,93,1,,,,,,,,,,,,,,,,,,,,,,,,,,,,,,,,,,,,,,,,,,,,,,,,,,,,,,,,
,,,,,,,,,,,,a,Incorrect,,,,,,t5.png,t2.png,3,0.0000131,19,female,2020-09-05_21h00.55.374,torte-2b,2020.1.3,MacIntel,60,13188,0.617,,,,,0,10,10,119,1,,,,,,,,,,,,,,,,,,,,,,,,,,,,,,,,,,,,,,,,,,,,,,,,,,,,,,,,
,,,,,,,,,,,,l,Incorrect,,,,,,t4.png,t5.png,1,0.90025,19,female,2020-09-05_21h00.55.374,torte-2b,2020.1.3,MacIntel,60,13188,0.63,,,,,0,11,11,113,1,,,,,,,,,,,,,,,,,,,,,,,,,,,,,,,,,,,,,,,,,,,,,,,,,,,,,,,,
,,,,,,,,,,,,l,Correct!,,,,,,t1.png,t3.png,2,0.056466,19,female,2020-09-05_21h00.55.374,torte-2b,2020.1.3,MacIntel,60,13188,0.579,,,,,0,12,12,87,1,,,,,,,,,,,,,,,,,,,,,,,,,,,,,,,,,,,,,,,,,,,,,,,,,,,,,,,,
,,,,,,,,,,,,l,Incorrect,,,,,,t1.png,t2.png,1,0.90025,19,female,2020-09-05_21h00.55.374,torte-2b,2020.1.3,MacIntel,60,13188,0.652,,,,,0,13,13,33,1,,,,,,,,,,,,,,,,,,,,,,,,,,,,,,,,,,,,,,,,,,,,,,,,,,,,,,,,
,,,,,,,,,,,,l,Correct!,,,,,,t1.png,t4.png,3,0.0000131,19,female,2020-09-05_21h00.55.374,torte-2b,2020.1.3,MacIntel,60,13188,0.655,,,,,0,14,14,81,1,,,,,,,,,,,,,,,,,,,,,,,,,,,,,,,,,,,,,,,,,,,,,,,,,,,,,,,,
,,,,,,,,,,,,l,Correct!,,,,,,t2.png,t5.png,3,0.0000131,19,female,2020-09-05_21h00.55.374,torte-2b,2020.1.3,MacIntel,60,13188,0.468,,,,,0,15,15,104,1,,,,,,,,,,,,,,,,,,,,,,,,,,,,,,,,,,,,,,,,,,,,,,,,,,,,,,,,
,,,,,,,,,,,,l,Incorrect,,,,,,t2.png,t3.png,1,0.90855,19,female,2020-09-05_21h00.55.374,torte-2b,2020.1.3,MacIntel,60,13188,1.319,,,,,0,16,16,65,1,,,,,,,,,,,,,,,,,,,,,,,,,,,,,,,,,,,,,,,,,,,,,,,,,,,,,,,,
,,,,,,,,,,,,l,Correct!,,,,,,t2.png,t5.png,3,0.0000131,19,female,2020-09-05_21h00.55.374,torte-2b,2020.1.3,MacIntel,60,13188,1.451,,,,,0,17,17,8,1,,,,,,,,,,,,,,,,,,,,,,,,,,,,,,,,,,,,,,,,,,,,,,,,,,,,,,,,
,,,,,,,,,,,,a,Correct!,,,,,,t4.png,t5.png,1,0.90025,19,female,2020-09-05_21h00.55.374,torte-2b,2020.1.3,MacIntel,60,13188,0.885,,,,,0,18,18,103,1,,,,,,,,,,,,,,,,,,,,,,,,,,,,,,,,,,,,,,,,,,,,,,,,,,,,,,,,
,,,,,,,,,,,,a,Correct!,,,,,,t1.png,t1.png,0,0.978,19,female,2020-09-05_21h00.55.374,torte-2b,2020.1.3,MacIntel,60,13188,1.323,,,,,0,19,19,28,1,,,,,,,,,,,,,,,,,,,,,,,,,,,,,,,,,,,,,,,,,,,,,,,,,,,,,,,,
,,,,,,,,,,,,a,Incorrect,,,,,,t4.png,t2.png,2,0.059078,19,female,2020-09-05_21h00.55.374,torte-2b,2020.1.3,MacIntel,60,13188,0.786,,,,,0,20,20,110,1,,,,,,,,,,,,,,,,,,,,,,,,,,,,,,,,,,,,,,,,,,,,,,,,,,,,,,,,
,,,,,,,,,,,,a,Incorrect,,,,,,t5.png,t2.png,3,0.0000131,19,female,2020-09-05_21h00.55.374,torte-2b,2020.1.3,MacIntel,60,13188,0.668,,,,,0,21,21,51,1,,,,,,,,,,,,,,,,,,,,,,,,,,,,,,,,,,,,,,,,,,,,,,,,,,,,,,,,
,,,,,,,,,,,,a,Correct!,,,,,,t5.png,t4.png,1,0.9,19,female,2020-09-05_21h00.55.374,torte-2b,2020.1.3,MacIntel,60,13188,0.935,,,,,0,22,22,76,1,,,,,,,,,,,,,,,,,,,,,,,,,,,,,,,,,,,,,,,,,,,,,,,,,,,,,,,,
,,,,,,,,,,,,l,Correct!,,,,,,t1.png,t5.png,4,9.55E-11,19,female,2020-09-05_21h00.55.374,torte-2b,2020.1.3,MacIntel,60,13188,0.75,,,,,0,23,23,85,1,,,,,,,,,,,,,,,,,,,,,,,,,,,,,,,,,,,,,,,,,,,,,,,,,,,,,,,,
,,,,,,,,,,,,l,Correct!,,,,,,t2.png,t4.png,2,0.059078,19,female,2020-09-05_21h00.55.374,torte-2b,2020.1.3,MacIntel,60,13188,0.971,,,,,0,24,24,24,1,,,,,,,,,,,,,,,,,,,,,,,,,,,,,,,,,,,,,,,,,,,,,,,,,,,,,,,,
,,,,,,,,,,,,a,Incorrect,,,,,,t4.png,t2.png,2,0.059078,19,female,2020-09-05_21h00.55.374,torte-2b,2020.1.3,MacIntel,60,13188,0.856,,,,,0,25,25,109,1,,,,,,,,,,,,,,,,,,,,,,,,,,,,,,,,,,,,,,,,,,,,,,,,,,,,,,,,
,,,,,,,,,,,,a,Incorrect,,,,,,t5.png,t2.png,3,0.0000131,19,female,2020-09-05_21h00.55.374,torte-2b,2020.1.3,MacIntel,60,13188,0.549,,,,,0,26,26,116,1,,,,,,,,,,,,,,,,,,,,,,,,,,,,,,,,,,,,,,,,,,,,,,,,,,,,,,,,
,,,,,,,,,,,,l,Incorrect,,,,,,t5.png,t5.png,0,0.97829,19,female,2020-09-05_21h00.55.374,torte-2b,2020.1.3,MacIntel,60,13188,0.73,,,,,0,27,27,70,1,,,,,,,,,,,,,,,,,,,,,,,,,,,,,,,,,,,,,,,,,,,,,,,,,,,,,,,,
,,,,,,,,,,,,a,Correct!,,,,,,t3.png,t2.png,1,0.90855,19,female,2020-09-05_21h00.55.374,torte-2b,2020.1.3,MacIntel,60,13188,0.637,,,,,0,28,28,97,1,,,,,,,,,,,,,,,,,,,,,,,,,,,,,,,,,,,,,,,,,,,,,,,,,,,,,,,,
,,,,,,,,,,,,l,Correct!,,,,,,t4.png,t3.png,1,0.90855,19,female,2020-09-05_21h00.55.374,torte-2b,2020.1.3,MacIntel,60,13188,1.754,,,,,0,29,29,75,1,,,,,,,,,,,,,,,,,,,,,,,,,,,,,,,,,,,,,,,,,,,,,,,,,,,,,,,,
,,,,,,,,,,,,a,Correct!,,,,,,t4.png,t4.png,0,0.98115,19,female,2020-09-05_21h00.55.374,torte-2b,2020.1.3,MacIntel,60,13188,2.374,,,,,0,30,30,79,1,,,,,,,,,,,,,,,,,,,,,,,,,,,,,,,,,,,,,,,,,,,,,,,,,,,,,,,,
,,,,,,,,,,,,l,Correct!,,,,,,t4.png,t5.png,1,0.9,19,female,2020-09-05_21h00.55.374,torte-2b,2020.1.3,MacIntel,60,13188,0.816,,,,,0,31,31,115,1,,,,,,,,,,,,,,,,,,,,,,,,,,,,,,,,,,,,,,,,,,,,,,,,,,,,,,,,
,,,,,,,,,,,,l,Correct!,,,,,,t2.png,t5.png,3,0.0000131,19,female,2020-09-05_21h00.55.374,torte-2b,2020.1.3,MacIntel,60,13188,0.613,,,,,0,32,32,95,1,,,,,,,,,,,,,,,,,,,,,,,,,,,,,,,,,,,,,,,,,,,,,,,,,,,,,,,,
,,,,,,,,,,,,l,Incorrect,,,,,,t3.png,t4.png,1,0.90855,19,female,2020-09-05_21h00.55.374,torte-2b,2020.1.3,MacIntel,60,13188,0.908,,,,,0,33,33,96,1,,,,,,,,,,,,,,,,,,,,,,,,,,,,,,,,,,,,,,,,,,,,,,,,,,,,,,,,
,,,,,,,,,,,,a,Incorrect,,,,,,t4.png,t1.png,3,0.0000131,19,female,2020-09-05_21h00.55.374,torte-2b,2020.1.3,MacIntel,60,13188,0.617,,,,,0,34,34,42,1,,,,,,,,,,,,,,,,,,,,,,,,,,,,,,,,,,,,,,,,,,,,,,,,,,,,,,,,
,,,,,,,,,,,,a,Incorrect,,,,,,t5.png,t3.png,2,0.056466,19,female,2020-09-05_21h00.55.374,torte-2b,2020.1.3,MacIntel,60,13188,1,,,,,0,35,35,108,1,,,,,,,,,,,,,,,,,,,,,,,,,,,,,,,,,,,,,,,,,,,,,,,,,,,,,,,,
,,,,,,,,,,,,l,Correct!,,,,,,t1.png,t4.png,3,0.0000131,19,female,2020-09-05_21h00.55.374,torte-2b,2020.1.3,MacIntel,60,13188,0.551,,,,,0,36,36,17,1,,,,,,,,,,,,,,,,,,,,,,,,,,,,,,,,,,,,,,,,,,,,,,,,,,,,,,,,
,,,,,,,,,,,,l,Incorrect,,,,,,t1.png,t2.png,1,0.9,19,female,2020-09-05_21h00.55.374,torte-2b,2020.1.3,MacIntel,60,13188,0.606,,,,,0,37,37,1,1,,,,,,,,,,,,,,,,,,,,,,,,,,,,,,,,,,,,,,,,,,,,,,,,,,,,,,,,
,,,,,,,,,,,,l,Correct!,,,,,,t3.png,t5.png,2,0.056466,19,female,2020-09-05_21h00.55.374,torte-2b,2020.1.3,MacIntel,60,13188,0.673,,,,,0,38,38,6,1,,,,,,,,,,,,,,,,,,,,,,,,,,,,,,,,,,,,,,,,,,,,,,,,,,,,,,,,
,,,,,,,,,,,,a,Correct!,,,,,,t2.png,t1.png,1,0.90025,19,female,2020-09-05_21h00.55.374,torte-2b,2020.1.3,MacIntel,60,13188,0.587,,,,,0,39,39,4,1,,,,,,,,,,,,,,,,,,,,,,,,,,,,,,,,,,,,,,,,,,,,,,,,,,,,,,,,
,,,,,,,,,,,,l,Incorrect,,,,,,t2.png,t3.png,1,0.909,19,female,2020-09-05_21h00.55.374,torte-2b,2020.1.3,MacIntel,60,13188,0.571,,,,,0,40,40,74,1,,,,,,,,,,,,,,,,,,,,,,,,,,,,,,,,,,,,,,,,,,,,,,,,,,,,,,,,
,,,,,,,,,,,,a,Correct!,,,,,,t4.png,t3.png,1,0.909,19,female,2020-09-05_21h00.55.374,torte-2b,2020.1.3,MacIntel,60,13188,0.652,,,,,0,41,41,46,1,,,,,,,,,,,,,,,,,,,,,,,,,,,,,,,,,,,,,,,,,,,,,,,,,,,,,,,,
,,,,,,,,,,,,a,Correct!,,,,,,t5.png,t4.png,1,0.90025,19,female,2020-09-05_21h00.55.374,torte-2b,2020.1.3,MacIntel,60,13188,0.501,,,,,0,42,42,34,1,,,,,,,,,,,,,,,,,,,,,,,,,,,,,,,,,,,,,,,,,,,,,,,,,,,,,,,,
,,,,,,,,,,,,l,Incorrect,,,,,,t2.png,t2.png,0,0.98115,19,female,2020-09-05_21h00.55.374,torte-2b,2020.1.3,MacIntel,60,13188,0.534,,,,,0,43,43,7,1,,,,,,,,,,,,,,,,,,,,,,,,,,,,,,,,,,,,,,,,,,,,,,,,,,,,,,,,
,,,,,,,,,,,,l,Correct!,,,,,,t1.png,t5.png,4,9.55E-11,19,female,2020-09-05_21h00.55.374,torte-2b,2020.1.3,MacIntel,60,13188,0.531,,,,,0,44,44,16,1,,,,,,,,,,,,,,,,,,,,,,,,,,,,,,,,,,,,,,,,,,,,,,,,,,,,,,,,
,,,,,,,,,,,,l,Incorrect,,,,,,t2.png,t2.png,0,0.981,19,female,2020-09-05_21h00.55.374,torte-2b,2020.1.3,MacIntel,60,13188,0.667,,,,,0,45,45,101,1,,,,,,,,,,,,,,,,,,,,,,,,,,,,,,,,,,,,,,,,,,,,,,,,,,,,,,,,
,,,,,,,,,,,,l,Correct!,,,,,,t1.png,t5.png,4,9.55E-11,19,female,2020-09-05_21h00.55.374,torte-2b,2020.1.3,MacIntel,60,13188,0.467,,,,,0,46,46,41,1,,,,,,,,,,,,,,,,,,,,,,,,,,,,,,,,,,,,,,,,,,,,,,,,,,,,,,,,
,,,,,,,,,,,,a,Incorrect,,,,,,t3.png,t1.png,2,0.056466,19,female,2020-09-05_21h00.55.374,torte-2b,2020.1.3,MacIntel,60,13188,0.589,,,,,0,47,47,29,1,,,,,,,,,,,,,,,,,,,,,,,,,,,,,,,,,,,,,,,,,,,,,,,,,,,,,,,,
,,,,,,,,,,,,a,Incorrect,,,,,,t5.png,t2.png,3,0.0000131,19,female,2020-09-05_21h00.55.374,torte-2b,2020.1.3,MacIntel,60,13188,0.537,,,,,0,48,48,98,1,,,,,,,,,,,,,,,,,,,,,,,,,,,,,,,,,,,,,,,,,,,,,,,,,,,,,,,,
,,,,,,,,,,,,l,Correct!,,,,,,t1.png,t4.png,3,0.0000131,19,female,2020-09-05_21h00.55.374,torte-2b,2020.1.3,MacIntel,60,13188,0.479,,,,,0,49,49,50,1,,,,,,,,,,,,,,,,,,,,,,,,,,,,,,,,,,,,,,,,,,,,,,,,,,,,,,,,
,,,,,,,,,,,,l,Incorrect,,,,,,t4.png,t5.png,1,0.90025,19,female,2020-09-05_21h00.55.374,torte-2b,2020.1.3,MacIntel,60,13188,0.536,,,,,0,50,50,58,1,,,,,,,,,,,,,,,,,,,,,,,,,,,,,,,,,,,,,,,,,,,,,,,,,,,,,,,,
,,,,,,,,,,,,a,Incorrect,,,,,,t5.png,t1.png,4,9.55E-11,19,female,2020-09-05_21h00.55.374,torte-2b,2020.1.3,MacIntel,60,13188,0.533,,,,,0,51,51,102,1,,,,,,,,,,,,,,,,,,,,,,,,,,,,,,,,,,,,,,,,,,,,,,,,,,,,,,,,
,,,,,,,,,,,,l,Incorrect,,,,,,t5.png,t5.png,0,0.97829,19,female,2020-09-05_21h00.55.374,torte-2b,2020.1.3,MacIntel,60,13188,0.482,,,,,0,52,52,25,1,,,,,,,,,,,,,,,,,,,,,,,,,,,,,,,,,,,,,,,,,,,,,,,,,,,,,,,,
,,,,,,,,,,,,a,Correct!,,,,,,t4.png,t4.png,0,0.98115,19,female,2020-09-05_21h00.55.374,torte-2b,2020.1.3,MacIntel,60,13188,0.536,,,,,0,53,53,90,1,,,,,,,,,,,,,,,,,,,,,,,,,,,,,,,,,,,,,,,,,,,,,,,,,,,,,,,,
,,,,,,,,,,,,l,Correct!,,,,,,t2.png,t4.png,2,0.059078,19,female,2020-09-05_21h00.55.374,torte-2b,2020.1.3,MacIntel,60,13188,0.437,,,,,0,54,54,37,1,,,,,,,,,,,,,,,,,,,,,,,,,,,,,,,,,,,,,,,,,,,,,,,,,,,,,,,,
,,,,,,,,,,,,a,Incorrect,,,,,,t5.png,t4.png,1,0.9,19,female,2020-09-05_21h00.55.374,torte-2b,2020.1.3,MacIntel,60,13188,0.502,,,,,0,55,55,49,1,,,,,,,,,,,,,,,,,,,,,,,,,,,,,,,,,,,,,,,,,,,,,,,,,,,,,,,,
,,,,,,,,,,,,l,Incorrect,,,,,,t1.png,t1.png,0,0.97829,19,female,2020-09-05_21h00.55.374,torte-2b,2020.1.3,MacIntel,60,13188,0.531,,,,,0,56,56,67,1,,,,,,,,,,,,,,,,,,,,,,,,,,,,,,,,,,,,,,,,,,,,,,,,,,,,,,,,
,,,,,,,,,,,,l,Incorrect,,,,,,t2.png,t3.png,1,0.90855,19,female,2020-09-05_21h00.55.374,torte-2b,2020.1.3,MacIntel,60,13188,0.642,,,,,0,57,57,10,1,,,,,,,,,,,,,,,,,,,,,,,,,,,,,,,,,,,,,,,,,,,,,,,,,,,,,,,,
,,,,,,,,,,,,l,Incorrect,,,,,,t3.png,t4.png,1,0.909,19,female,2020-09-05_21h00.55.374,torte-2b,2020.1.3,MacIntel,60,13188,0.568,,,,,0,58,58,82,1,,,,,,,,,,,,,,,,,,,,,,,,,,,,,,,,,,,,,,,,,,,,,,,,,,,,,,,,
,,,,,,,,,,,,a,Correct!,,,,,,t5.png,t4.png,1,0.90025,19,female,2020-09-05_21h00.55.374,torte-2b,2020.1.3,MacIntel,60,13188,0.466,,,,,0,59,59,27,1,,,,,,,,,,,,,,,,,,,,,,,,,,,,,,,,,,,,,,,,,,,,,,,,,,,,,,,,
,,,,,,,,,,,,a,Incorrect,,,,,,t4.png,t1.png,3,0.0000131,19,female,2020-09-05_21h00.55.374,torte-2b,2020.1.3,MacIntel,60,13188,0.62,,,,,0,60,60,61,1,,,,,,,,,,,,,,,,,,,,,,,,,,,,,,,,,,,,,,,,,,,,,,,,,,,,,,,,
,,,,,,,,,,,,a,Incorrect,,,,,,t3.png,t1.png,2,0.056466,19,female,2020-09-05_21h00.55.374,torte-2b,2020.1.3,MacIntel,60,13188,0.599,,,,,0,61,61,32,1,,,,,,,,,,,,,,,,,,,,,,,,,,,,,,,,,,,,,,,,,,,,,,,,,,,,,,,,
,,,,,,,,,,,,a,Correct!,,,,,,t3.png,t2.png,1,0.90855,19,female,2020-09-05_21h00.55.374,torte-2b,2020.1.3,MacIntel,60,13188,0.546,,,,,0,62,62,18,1,,,,,,,,,,,,,,,,,,,,,,,,,,,,,,,,,,,,,,,,,,,,,,,,,,,,,,,,
,,,,,,,,,,,,a,Correct!,,,,,,t2.png,t1.png,1,0.9,19,female,2020-09-05_21h00.55.374,torte-2b,2020.1.3,MacIntel,60,13188,0.653,,,,,0,63,63,118,1,,,,,,,,,,,,,,,,,,,,,,,,,,,,,,,,,,,,,,,,,,,,,,,,,,,,,,,,
,,,,,,,,,,,,l,Incorrect,,,,,,t1.png,t2.png,1,0.90025,19,female,2020-09-05_21h00.55.374,torte-2b,2020.1.3,MacIntel,60,13188,0.49,,,,,0,64,64,105,1,,,,,,,,,,,,,,,,,,,,,,,,,,,,,,,,,,,,,,,,,,,,,,,,,,,,,,,,
,,,,,,,,,,,,a,Incorrect,,,,,,t5.png,t2.png,3,0.0000131,19,female,2020-09-05_21h00.55.374,torte-2b,2020.1.3,MacIntel,60,13188,0.501,,,,,0,65,65,91,1,,,,,,,,,,,,,,,,,,,,,,,,,,,,,,,,,,,,,,,,,,,,,,,,,,,,,,,,
,,,,,,,,,,,,l,Incorrect,,,,,,t5.png,t5.png,0,0.97829,19,female,2020-09-05_21h00.55.374,torte-2b,2020.1.3,MacIntel,60,13188,0.884,,,,,0,66,66,73,1,,,,,,,,,,,,,,,,,,,,,,,,,,,,,,,,,,,,,,,,,,,,,,,,,,,,,,,,
,,,,,,,,,,,,a,Incorrect,,,,,,t1.png,t3.png,2,0.056466,19,female,2020-09-05_21h00.55.374,torte-2b,2020.1.3,MacIntel,60,13188,0.667,,,,,0,67,67,63,1,,,,,,,,,,,,,,,,,,,,,,,,,,,,,,,,,,,,,,,,,,,,,,,,,,,,,,,,
,,,,,,,,,,,,l,Correct!,,,,,,t1.png,t5.png,4,9.55E-11,19,female,2020-09-05_21h00.55.374,torte-2b,2020.1.3,MacIntel,60,13188,0.504,,,,,0,68,68,55,1,,,,,,,,,,,,,,,,,,,,,,,,,,,,,,,,,,,,,,,,,,,,,,,,,,,,,,,,
,,,,,,,,,,,,a,Incorrect,,,,,,t4.png,t1.png,3,0.0000131,19,female,2020-09-05_21h00.55.374,torte-2b,2020.1.3,MacIntel,60,13188,0.921,,,,,0,69,69,48,1,,,,,,,,,,,,,,,,,,,,,,,,,,,,,,,,,,,,,,,,,,,,,,,,,,,,,,,,
,,,,,,,,,,,,a,Incorrect,,,,,,t4.png,t1.png,3,0.0000131,19,female,2020-09-05_21h00.55.374,torte-2b,2020.1.3,MacIntel,60,13188,0.517,,,,,0,70,70,13,1,,,,,,,,,,,,,,,,,,,,,,,,,,,,,,,,,,,,,,,,,,,,,,,,,,,,,,,,
,,,,,,,,,,,,a,Correct!,,,,,,t4.png,t3.png,1,0.909,19,female,2020-09-05_21h00.55.374,torte-2b,2020.1.3,MacIntel,60,13188,0.465,,,,,0,71,71,20,1,,,,,,,,,,,,,,,,,,,,,,,,,,,,,,,,,,,,,,,,,,,,,,,,,,,,,,,,
,,,,,,,,,,,,l,Correct!,,,,,,t3.png,t5.png,2,0.056466,19,female,2020-09-05_21h00.55.374,torte-2b,2020.1.3,MacIntel,60,13188,0.551,,,,,0,72,72,14,1,,,,,,,,,,,,,,,,,,,,,,,,,,,,,,,,,,,,,,,,,,,,,,,,,,,,,,,,
,,,,,,,,,,,,a,Incorrect,,,,,,t5.png,t3.png,2,0.056466,19,female,2020-09-05_21h00.55.374,torte-2b,2020.1.3,MacIntel,60,13188,0.463,,,,,0,73,73,114,1,,,,,,,,,,,,,,,,,,,,,,,,,,,,,,,,,,,,,,,,,,,,,,,,,,,,,,,,
,,,,,,,,,,,,a,Incorrect,,,,,,t5.png,t3.png,2,0.056466,19,female,2020-09-05_21h00.55.374,torte-2b,2020.1.3,MacIntel,60,13188,0.433,,,,,0,74,74,56,1,,,,,,,,,,,,,,,,,,,,,,,,,,,,,,,,,,,,,,,,,,,,,,,,,,,,,,,,
,,,,,,,,,,,,a,Correct!,,,,,,t2.png,t2.png,0,0.98115,19,female,2020-09-05_21h00.55.374,torte-2b,2020.1.3,MacIntel,60,13188,0.602,,,,,0,75,75,2,1,,,,,,,,,,,,,,,,,,,,,,,,,,,,,,,,,,,,,,,,,,,,,,,,,,,,,,,,
,,,,,,,,,,,,a,Correct!,,,,,,t4.png,t5.png,1,0.90025,19,female,2020-09-05_21h00.55.374,torte-2b,2020.1.3,MacIntel,60,13188,0.551,,,,,0,76,76,47,1,,,,,,,,,,,,,,,,,,,,,,,,,,,,,,,,,,,,,,,,,,,,,,,,,,,,,,,,
,,,,,,,,,,,,l,Incorrect,,,,,,t2.png,t3.png,1,0.90855,19,female,2020-09-05_21h00.55.374,torte-2b,2020.1.3,MacIntel,60,13188,0.854,,,,,0,77,77,111,1,,,,,,,,,,,,,,,,,,,,,,,,,,,,,,,,,,,,,,,,,,,,,,,,,,,,,,,,
,,,,,,,,,,,,a,Incorrect,,,,,,t4.png,t2.png,2,0.0591,19,female,2020-09-05_21h00.55.374,torte-2b,2020.1.3,MacIntel,60,13188,0.533,,,,,0,78,78,36,1,,,,,,,,,,,,,,,,,,,,,,,,,,,,,,,,,,,,,,,,,,,,,,,,,,,,,,,,
,,,,,,,,,,,,a,Incorrect,,,,,,t3.png,t1.png,2,0.0565,19,female,2020-09-05_21h00.55.374,torte-2b,2020.1.3,MacIntel,60,13188,0.55,,,,,0,79,79,31,1,,,,,,,,,,,,,,,,,,,,,,,,,,,,,,,,,,,,,,,,,,,,,,,,,,,,,,,,
,,,,,,,,,,,,l,Incorrect,,,,,,t3.png,t4.png,1,0.909,19,female,2020-09-05_21h00.55.374,torte-2b,2020.1.3,MacIntel,60,13188,0.533,,,,,0,80,80,89,1,,,,,,,,,,,,,,,,,,,,,,,,,,,,,,,,,,,,,,,,,,,,,,,,,,,,,,,,
,,,,,,,,,,,,a,Correct!,,,,,,t2.png,t2.png,0,0.98115,19,female,2020-09-05_21h00.55.374,torte-2b,2020.1.3,MacIntel,60,13188,0.552,,,,,0,81,81,57,1,,,,,,,,,,,,,,,,,,,,,,,,,,,,,,,,,,,,,,,,,,,,,,,,,,,,,,,,
,,,,,,,,,,,,l,Correct!,,,,,,t2.png,t4.png,2,0.059078,19,female,2020-09-05_21h00.55.374,torte-2b,2020.1.3,MacIntel,60,13188,0.429,,,,,0,82,82,11,1,,,,,,,,,,,,,,,,,,,,,,,,,,,,,,,,,,,,,,,,,,,,,,,,,,,,,,,,
,,,,,,,,,,,,a,Correct!,,,,,,t4.png,t3.png,1,0.90855,19,female,2020-09-05_21h00.55.374,torte-2b,2020.1.3,MacIntel,60,13188,0.485,,,,,0,83,83,35,1,,,,,,,,,,,,,,,,,,,,,,,,,,,,,,,,,,,,,,,,,,,,,,,,,,,,,,,,
,,,,,,,,,,,,l,Correct!,,,,,,t1.png,t3.png,2,0.056466,19,female,2020-09-05_21h00.55.374,torte-2b,2020.1.3,MacIntel,60,13188,0.519,,,,,0,84,84,99,1,,,,,,,,,,,,,,,,,,,,,,,,,,,,,,,,,,,,,,,,,,,,,,,,,,,,,,,,
,,,,,,,,,,,,l,Incorrect,,,,,,t1.png,t2.png,1,0.90025,19,female,2020-09-05_21h00.55.374,torte-2b,2020.1.3,MacIntel,60,13188,0.603,,,,,0,85,85,72,1,,,,,,,,,,,,,,,,,,,,,,,,,,,,,,,,,,,,,,,,,,,,,,,,,,,,,,,,
,,,,,,,,,,,,a,Correct!,,,,,,t4.png,t4.png,0,0.98115,19,female,2020-09-05_21h00.55.374,torte-2b,2020.1.3,MacIntel,60,13188,0.599,,,,,0,86,86,52,1,,,,,,,,,,,,,,,,,,,,,,,,,,,,,,,,,,,,,,,,,,,,,,,,,,,,,,,,
,,,,,,,,,,,,a,Incorrect,,,,,,t5.png,t4.png,1,0.90025,19,female,2020-09-05_21h00.55.374,torte-2b,2020.1.3,MacIntel,60,13188,0.703,,,,,0,87,87,26,1,,,,,,,,,,,,,,,,,,,,,,,,,,,,,,,,,,,,,,,,,,,,,,,,,,,,,,,,
,,,,,,,,,,,,a,Incorrect,,,,,,t5.png,t1.png,4,9.55E-11,19,female,2020-09-05_21h00.55.374,torte-2b,2020.1.3,MacIntel,60,13188,0.505,,,,,0,88,88,43,1,,,,,,,,,,,,,,,,,,,,,,,,,,,,,,,,,,,,,,,,,,,,,,,,,,,,,,,,
,,,,,,,,,,,,l,Incorrect,,,,,,t2.png,t1.png,1,0.90025,19,female,2020-09-05_21h00.55.374,torte-2b,2020.1.3,MacIntel,60,13188,1.05,,,,,0,89,89,19,1,,,,,,,,,,,,,,,,,,,,,,,,,,,,,,,,,,,,,,,,,,,,,,,,,,,,,,,,
,,,,,,,,,,,,l,Incorrect,,,,,,t3.png,t4.png,1,0.90855,19,female,2020-09-05_21h00.55.374,torte-2b,2020.1.3,MacIntel,60,13188,0.785,,,,,0,90,90,84,1,,,,,,,,,,,,,,,,,,,,,,,,,,,,,,,,,,,,,,,,,,,,,,,,,,,,,,,,
,,,,,,,,,,,,l,Correct!,,,,,,t2.png,t5.png,3,0.0000131,19,female,2020-09-05_21h00.55.374,torte-2b,2020.1.3,MacIntel,60,13188,0.63,,,,,0,91,91,40,1,,,,,,,,,,,,,,,,,,,,,,,,,,,,,,,,,,,,,,,,,,,,,,,,,,,,,,,,
,,,,,,,,,,,,l,Correct!,,,,,,t1.png,t3.png,2,0.056466,19,female,2020-09-05_21h00.55.374,torte-2b,2020.1.3,MacIntel,60,13188,0.915,,,,,0,92,92,60,1,,,,,,,,,,,,,,,,,,,,,,,,,,,,,,,,,,,,,,,,,,,,,,,,,,,,,,,,
,,,,,,,,,,,,a,Incorrect,,,,,,t4.png,t2.png,2,0.059078,19,female,2020-09-05_21h00.55.374,torte-2b,2020.1.3,MacIntel,60,13188,1.486,,,,,0,93,93,86,1,,,,,,,,,,,,,,,,,,,,,,,,,,,,,,,,,,,,,,,,,,,,,,,,,,,,,,,,
,,,,,,,,,,,,l,Correct!,,,,,,t1.png,t2.png,1,0.90025,19,female,2020-09-05_21h00.55.374,torte-2b,2020.1.3,MacIntel,60,13188,0.685,,,,,0,94,94,112,1,,,,,,,,,,,,,,,,,,,,,,,,,,,,,,,,,,,,,,,,,,,,,,,,,,,,,,,,
,,,,,,,,,,,,l,Incorrect,,,,,,t4.png,t4.png,0,0.98115,19,female,2020-09-05_21h00.55.374,torte-2b,2020.1.3,MacIntel,60,13188,1.249,,,,,0,95,95,80,1,,,,,,,,,,,,,,,,,,,,,,,,,,,,,,,,,,,,,,,,,,,,,,,,,,,,,,,,
,,,,,,,,,,,,l,Correct!,,,,,,t1.png,t4.png,3,0.0000131,19,female,2020-09-05_21h00.55.374,torte-2b,2020.1.3,MacIntel,60,13188,0.567,,,,,0,96,96,107,1,,,,,,,,,,,,,,,,,,,,,,,,,,,,,,,,,,,,,,,,,,,,,,,,,,,,,,,,
,,,,,,,,,,,,l,Incorrect,,,,,,t5.png,t5.png,0,0.97829,19,female,2020-09-05_21h00.55.374,torte-2b,2020.1.3,MacIntel,60,13188,0.798,,,,,0,97,97,94,1,,,,,,,,,,,,,,,,,,,,,,,,,,,,,,,,,,,,,,,,,,,,,,,,,,,,,,,,
,,,,,,,,,,,,l,Incorrect,,,,,,t5.png,t5.png,0,0.978,19,female,2020-09-05_21h00.55.374,torte-2b,2020.1.3,MacIntel,60,13188,0.633,,,,,0,98,98,117,1,,,,,,,,,,,,,,,,,,,,,,,,,,,,,,,,,,,,,,,,,,,,,,,,,,,,,,,,
,,,,,,,,,,,,a,Incorrect,,,,,,t3.png,t1.png,2,0.056466,19,female,2020-09-05_21h00.55.374,torte-2b,2020.1.3,MacIntel,60,13188,0.818,,,,,0,99,99,64,1,,,,,,,,,,,,,,,,,,,,,,,,,,,,,,,,,,,,,,,,,,,,,,,,,,,,,,,,
,,,,,,,,,,,,l,Incorrect,,,,,,t2.png,t2.png,0,0.98115,19,female,2020-09-05_21h00.55.374,torte-2b,2020.1.3,MacIntel,60,13188,0.785,,,,,0,100,100,59,1,,,,,,,,,,,,,,,,,,,,,,,,,,,,,,,,,,,,,,,,,,,,,,,,,,,,,,,,
,,,,,,,,,,,,l,Correct!,,,,,,t1.png,t5.png,4,9.55E-11,19,female,2020-09-05_21h00.55.374,torte-2b,2020.1.3,MacIntel,60,13188,0.622,,,,,0,101,101,12,1,,,,,,,,,,,,,,,,,,,,,,,,,,,,,,,,,,,,,,,,,,,,,,,,,,,,,,,,
,,,,,,,,,,,,a,Incorrect,,,,,,t5.png,t1.png,4,9.55E-11,19,female,2020-09-05_21h00.55.374,torte-2b,2020.1.3,MacIntel,60,13188,0.531,,,,,0,102,102,22,1,,,,,,,,,,,,,,,,,,,,,,,,,,,,,,,,,,,,,,,,,,,,,,,,,,,,,,,,
,,,,,,,,,,,,,Too slow :(,,,,,,t3.png,t4.png,1,0.909,19,female,2020-09-05_21h00.55.374,torte-2b,2020.1.3,MacIntel,60,13188,,,,,,0,103,103,106,1,,,,,,,,,,,,,,,,,,,,,,,,,,,,,,,,,,,,,,,,,,,,,,,,,,,,,,,,
,,,,,,,,,,,,l,Incorrect,,,,,,t1.png,t1.png,0,0.97829,19,female,2020-09-05_21h00.55.374,torte-2b,2020.1.3,MacIntel,60,13188,0.732,,,,,0,104,104,78,1,,,,,,,,,,,,,,,,,,,,,,,,,,,,,,,,,,,,,,,,,,,,,,,,,,,,,,,,
,,,,,,,,,,,,a,Correct!,,,,,,t2.png,t1.png,1,0.90025,19,female,2020-09-05_21h00.55.374,torte-2b,2020.1.3,MacIntel,60,13188,0.72,,,,,0,105,105,5,1,,,,,,,,,,,,,,,,,,,,,,,,,,,,,,,,,,,,,,,,,,,,,,,,,,,,,,,,
,,,,,,,,,,,,a,Correct!,,,,,,t2.png,t1.png,1,0.90025,19,female,2020-09-05_21h00.55.374,torte-2b,2020.1.3,MacIntel,60,13188,1.987,,,,,0,106,106,62,1,,,,,,,,,,,,,,,,,,,,,,,,,,,,,,,,,,,,,,,,,,,,,,,,,,,,,,,,
,,,,,,,,,,,,a,Incorrect,,,,,,t5.png,t1.png,4,9.55E-11,19,female,2020-09-05_21h00.55.374,torte-2b,2020.1.3,MacIntel,60,13188,0.634,,,,,0,107,107,100,1,,,,,,,,,,,,,,,,,,,,,,,,,,,,,,,,,,,,,,,,,,,,,,,,,,,,,,,,
,,,,,,,,,,,,a,Correct!,,,,,,t3.png,t2.png,1,0.909,19,female,2020-09-05_21h00.55.374,torte-2b,2020.1.3,MacIntel,60,13188,0.89,,,,,0,108,108,3,1,,,,,,,,,,,,,,,,,,,,,,,,,,,,,,,,,,,,,,,,,,,,,,,,,,,,,,,,
,,,,,,,,,,,,a,Incorrect,,,,,,t5.png,t1.png,4,9.55E-11,19,female,2020-09-05_21h00.55.374,torte-2b,2020.1.3,MacIntel,60,13188,0.519,,,,,0,109,109,71,1,,,,,,,,,,,,,,,,,,,,,,,,,,,,,,,,,,,,,,,,,,,,,,,,,,,,,,,,
,,,,,,,,,,,,l,Correct!,,,,,,t3.png,t5.png,2,0.0565,19,female,2020-09-05_21h00.55.374,torte-2b,2020.1.3,MacIntel,60,13188,0.573,,,,,0,110,110,83,1,,,,,,,,,,,,,,,,,,,,,,,,,,,,,,,,,,,,,,,,,,,,,,,,,,,,,,,,
,,,,,,,,,,,,l,Correct!,,,,,,t1.png,t3.png,2,0.056466,19,female,2020-09-05_21h00.55.374,torte-2b,2020.1.3,MacIntel,60,13188,0.746,,,,,0,111,111,69,1,,,,,,,,,,,,,,,,,,,,,,,,,,,,,,,,,,,,,,,,,,,,,,,,,,,,,,,,
,,,,,,,,,,,,l,Correct!,,,,,,t2.png,t4.png,2,0.0591,19,female,2020-09-05_21h00.55.374,torte-2b,2020.1.3,MacIntel,60,13188,0.598,,,,,0,112,112,15,1,,,,,,,,,,,,,,,,,,,,,,,,,,,,,,,,,,,,,,,,,,,,,,,,,,,,,,,,
,,,,,,,,,,,,a,Correct!,,,,,,t4.png,t4.png,0,0.98115,19,female,2020-09-05_21h00.55.374,torte-2b,2020.1.3,MacIntel,60,13188,1.106,,,,,0,113,113,21,1,,,,,,,,,,,,,,,,,,,,,,,,,,,,,,,,,,,,,,,,,,,,,,,,,,,,,,,,
,,,,,,,,,,,,l,Correct!,,,,,,t2.png,t4.png,2,0.059078,19,female,2020-09-05_21h00.55.374,torte-2b,2020.1.3,MacIntel,60,13188,0.982,,,,,0,114,114,77,1,,,,,,,,,,,,,,,,,,,,,,,,,,,,,,,,,,,,,,,,,,,,,,,,,,,,,,,,
,,,,,,,,,,,,l,Incorrect,,,,,,t1.png,t1.png,0,0.978,19,female,2020-09-05_21h00.55.374,torte-2b,2020.1.3,MacIntel,60,13188,0.849,,,,,0,115,115,54,1,,,,,,,,,,,,,,,,,,,,,,,,,,,,,,,,,,,,,,,,,,,,,,,,,,,,,,,,
,,,,,,,,,,,,a,Correct!,,,,,,t3.png,t2.png,1,0.909,19,female,2020-09-05_21h00.55.374,torte-2b,2020.1.3,MacIntel,60,13188,0.763,,,,,0,116,116,23,1,,,,,,,,,,,,,,,,,,,,,,,,,,,,,,,,,,,,,,,,,,,,,,,,,,,,,,,,
,,,,,,,,,,,,l,Correct!,,,,,,t3.png,t5.png,2,0.0565,19,female,2020-09-05_21h00.55.374,torte-2b,2020.1.3,MacIntel,60,13188,0.519,,,,,0,117,117,30,1,,,,,,,,,,,,,,,,,,,,,,,,,,,,,,,,,,,,,,,,,,,,,,,,,,,,,,,,
,,,,,,,,,,,,l,Correct!,,,,,,t1.png,t4.png,3,0.0000131,19,female,2020-09-05_21h00.55.374,torte-2b,2020.1.3,MacIntel,60,13188,0.492,,,,,0,118,118,92,1,,,,,,,,,,,,,,,,,,,,,,,,,,,,,,,,,,,,,,,,,,,,,,,,,,,,,,,,
,,,,,,,,,,,,a,Incorrect,,,,,,t4.png,t2.png,2,0.059078,19,female,2020-09-05_21h00.55.374,torte-2b,2020.1.3,MacIntel,60,13188,0.552,,,,,0,119,119,88,1,,,,,,,,,,,,,,,,,,,,,,,,,,,,,,,,,,,,,,,,,,,,,,,,,,,,,,,,
,,,,,,,,,,,,,,,,,,,,,,,19,female,2020-09-05_21h00.55.374,torte-2b,2020.1.3,MacIntel,60,13188,,space,71.935,,,,,,,,space,30.9,,0,0,0,0,1,6,,,,,,,,,,,,,,,,,,,,,,,,,,,,,,,,,,,,,,,,,,,,,,,
,,,,,,,,,,,,,,,,,,,,,,,19,female,2020-09-05_21h00.55.374,torte-2b,2020.1.3,MacIntel,60,13188,,,,,,,,,,,,,,0,1,1,1,1,7,,,,,,,,,,,,,,,,,,,,,,,,,,,,,,,,,,,,,,,,,,,,,,,
,,,,,,,,,,,,,,,,,,,,,,,19,female,2020-09-05_21h00.55.374,torte-2b,2020.1.3,MacIntel,60,13188,,,,,,,,,,,,,space,0,2,2,2,1,6,0.512,,,,,,,,,,,,,,,,,,,,,,,,,,,,,,,,,,,,,,,,,,,,,,
,,,,,,,,,,,,,,,,,,,,,,,19,female,2020-09-05_21h00.55.374,torte-2b,2020.1.3,MacIntel,60,13188,,,,,,,,,,,,,space,0,3,3,3,1,7,0.682,,,,,,,,,,,,,,,,,,,,,,,,,,,,,,,,,,,,,,,,,,,,,,
,,,,,,,,,,,,,,,,,,,,,,,19,female,2020-09-05_21h00.55.374,torte-2b,2020.1.3,MacIntel,60,13188,,,,,,,,,,,,,,0,4,4,4,1,5,,,,,,,,,,,,,,,,,,,,,,,,,,,,,,,,,,,,,,,,,,,,,,,
,,,,,,,,,,,,,,,,,,,,,,,19,female,2020-09-05_21h00.55.374,torte-2b,2020.1.3,MacIntel,60,13188,,,,,,,,,,,,,space,0,5,5,5,1,7,0.598,,,,,,,,,,,,,,,,,,,,,,,,,,,,,,,,,,,,,,,,,,,,,,
,,,,,,,,,,,,,,,,,,,,,,,19,female,2020-09-05_21h00.55.374,torte-2b,2020.1.3,MacIntel,60,13188,,,,,,,,,,,,,,0,6,6,6,1,2,,,,,,,,,,,,,,,,,,,,,,,,,,,,,,,,,,,,,,,,,,,,,,,
,,,,,,,,,,,,,,,,,,,,,,,19,female,2020-09-05_21h00.55.374,torte-2b,2020.1.3,MacIntel,60,13188,,,,,,,,,,,,,,0,7,7,7,1,4,,,,,,,,,,,,,,,,,,,,,,,,,,,,,,,,,,,,,,,,,,,,,,,
,,,,,,,,,,,,,,,,,,,,,,,19,female,2020-09-05_21h00.55.374,torte-2b,2020.1.3,MacIntel,60,13188,,,,,,,,,,,,,,0,8,8,8,1,7,,,,,,,,,,,,,,,,,,,,,,,,,,,,,,,,,,,,,,,,,,,,,,,
,,,,,,,,,,,,,,,,,,,,,,,19,female,2020-09-05_21h00.55.374,torte-2b,2020.1.3,MacIntel,60,13188,,,,,,,,,,,,,space,0,9,9,9,1,4,0.433,,,,,,,,,,,,,,,,,,,,,,,,,,,,,,,,,,,,,,,,,,,,,,
,,,,,,,,,,,,,,,,,,,,,,,19,female,2020-09-05_21h00.55.374,torte-2b,2020.1.3,MacIntel,60,13188,,,,,,,,,,,,,space,0,10,10,10,1,7,1.114,,,,,,,,,,,,,,,,,,,,,,,,,,,,,,,,,,,,,,,,,,,,,,
,,,,,,,,,,,,,,,,,,,,,,,19,female,2020-09-05_21h00.55.374,torte-2b,2020.1.3,MacIntel,60,13188,,,,,,,,,,,,,,0,11,11,11,1,7,,,,,,,,,,,,,,,,,,,,,,,,,,,,,,,,,,,,,,,,,,,,,,,
,,,,,,,,,,,,,,,,,,,,,,,19,female,2020-09-05_21h00.55.374,torte-2b,2020.1.3,MacIntel,60,13188,,,,,,,,,,,,,space,0,12,12,12,1,7,0.648,,,,,,,,,,,,,,,,,,,,,,,,,,,,,,,,,,,,,,,,,,,,,,
,,,,,,,,,,,,,,,,,,,,,,,19,female,2020-09-05_21h00.55.374,torte-2b,2020.1.3,MacIntel,60,13188,,,,,,,,,,,,,space,0,13,13,13,1,4,0.577,,,,,,,,,,,,,,,,,,,,,,,,,,,,,,,,,,,,,,,,,,,,,,
,,,,,,,,,,,,,,,,,,,,,,,19,female,2020-09-05_21h00.55.374,torte-2b,2020.1.3,MacIntel,60,13188,,,,,,,,,,,,,,0,14,14,14,1,6,,,,,,,,,,,,,,,,,,,,,,,,,,,,,,,,,,,,,,,,,,,,,,,
,,,,,,,,,,,,,,,,,,,,,,,19,female,2020-09-05_21h00.55.374,torte-2b,2020.1.3,MacIntel,60,13188,,,,,,,,,,,,,space,0,15,15,15,1,4,0.513,,,,,,,,,,,,,,,,,,,,,,,,,,,,,,,,,,,,,,,,,,,,,,
,,,,,,,,,,,,,,,,,,,,,,,19,female,2020-09-05_21h00.55.374,torte-2b,2020.1.3,MacIntel,60,13188,,,,,,,,,,,,,space,0,16,16,16,1,6,0.634,,,,,,,,,,,,,,,,,,,,,,,,,,,,,,,,,,,,,,,,,,,,,,
,,,,,,,,,,,,,,,,,,,,,,,19,female,2020-09-05_21h00.55.374,torte-2b,2020.1.3,MacIntel,60,13188,,,,,,,,,,,,,space,0,17,17,17,1,7,0.518,,,,,,,,,,,,,,,,,,,,,,,,,,,,,,,,,,,,,,,,,,,,,,
,,,,,,,,,,,,,,,,,,,,,,,19,female,2020-09-05_21h00.55.374,torte-2b,2020.1.3,MacIntel,60,13188,,,,,,,,,,,,,space,0,18,18,18,1,6,0.925,,,,,,,,,,,,,,,,,,,,,,,,,,,,,,,,,,,,,,,,,,,,,,
,,,,,,,,,,,,,,,,,,,,,,,19,female,2020-09-05_21h00.55.374,torte-2b,2020.1.3,MacIntel,60,13188,,,,,,,,,,,,,space,0,19,19,19,1,7,0.953,,,,,,,,,,,,,,,,,,,,,,,,,,,,,,,,,,,,,,,,,,,,,,
,,,,,,,,,,,,,,,,,,,,,,,19,female,2020-09-05_21h00.55.374,torte-2b,2020.1.3,MacIntel,60,13188,,,,,,,,,,,,,,0,20,20,20,1,5,,,,,,,,,,,,,,,,,,,,,,,,,,,,,,,,,,,,,,,,,,,,,,,
,,,,,,,,,,,,,,,,,,,,,,,19,female,2020-09-05_21h00.55.374,torte-2b,2020.1.3,MacIntel,60,13188,,,,,,,,,,,,,,0,21,21,21,1,1,,,,,,,,,,,,,,,,,,,,,,,,,,,,,,,,,,,,,,,,,,,,,,,
,,,,,,,,,,,,,,,,,,,,,,,19,female,2020-09-05_21h00.55.374,torte-2b,2020.1.3,MacIntel,60,13188,,,,,,,,,,,,,,0,22,22,22,1,6,,,,,,,,,,,,,,,,,,,,,,,,,,,,,,,,,,,,,,,,,,,,,,,
,,,,,,,,,,,,,,,,,,,,,,,19,female,2020-09-05_21h00.55.374,torte-2b,2020.1.3,MacIntel,60,13188,,,,,,,,,,,,,space,0,23,23,23,1,1,0.351,,,,,,,,,,,,,,,,,,,,,,,,,,,,,,,,,,,,,,,,,,,,,,
,,,,,,,,,,,,,,,,,,,,,,,19,female,2020-09-05_21h00.55.374,torte-2b,2020.1.3,MacIntel,60,13188,,,,,,,,,,,,,,0,24,24,24,1,5,,,,,,,,,,,,,,,,,,,,,,,,,,,,,,,,,,,,,,,,,,,,,,,
,,,,,,,,,,,,,,,,,,,,,,,19,female,2020-09-05_21h00.55.374,torte-2b,2020.1.3,MacIntel,60,13188,,,,,,,,,,,,,space,0,25,25,25,1,6,0.847,,,,,,,,,,,,,,,,,,,,,,,,,,,,,,,,,,,,,,,,,,,,,,
,,,,,,,,,,,,,,,,,,,,,,,19,female,2020-09-05_21h00.55.374,torte-2b,2020.1.3,MacIntel,60,13188,,,,,,,,,,,,,,0,26,26,26,1,6,,,,,,,,,,,,,,,,,,,,,,,,,,,,,,,,,,,,,,,,,,,,,,,
,,,,,,,,,,,,,,,,,,,,,,,19,female,2020-09-05_21h00.55.374,torte-2b,2020.1.3,MacIntel,60,13188,,,,,,,,,,,,,space,0,27,27,27,1,6,0.666,,,,,,,,,,,,,,,,,,,,,,,,,,,,,,,,,,,,,,,,,,,,,,
,,,,,,,,,,,,,,,,,,,,,,,19,female,2020-09-05_21h00.55.374,torte-2b,2020.1.3,MacIntel,60,13188,,,,,,,,,,,,,,0,28,28,28,1,5,,,,,,,,,,,,,,,,,,,,,,,,,,,,,,,,,,,,,,,,,,,,,,,
,,,,,,,,,,,,,,,,,,,,,,,19,female,2020-09-05_21h00.55.374,torte-2b,2020.1.3,MacIntel,60,13188,,,,,,,,,,,,,,0,29,29,29,1,2,,,,,,,,,,,,,,,,,,,,,,,,,,,,,,,,,,,,,,,,,,,,,,,
,,,,,,,,,,,,,,,,,,,,,,,19,female,2020-09-05_21h00.55.374,torte-2b,2020.1.3,MacIntel,60,13188,,,,,,,,,,,,,space,0,30,30,30,1,5,0.652,,,,,,,,,,,,,,,,,,,,,,,,,,,,,,,,,,,,,,,,,,,,,,
,,,,,,,,,,,,,,,,,,,,,,,19,female,2020-09-05_21h00.55.374,torte-2b,2020.1.3,MacIntel,60,13188,,,,,,,,,,,,,space,0,31,31,31,1,2,0.681,,,,,,,,,,,,,,,,,,,,,,,,,,,,,,,,,,,,,,,,,,,,,,
,,,,,,,,,,,,,,,,,,,,,,,19,female,2020-09-05_21h00.55.374,torte-2b,2020.1.3,MacIntel,60,13188,,,,,,,,,,,,,space,0,32,32,32,1,5,0.912,,,,,,,,,,,,,,,,,,,,,,,,,,,,,,,,,,,,,,,,,,,,,,
,,,,,,,,,,,,,,,,,,,,,,,19,female,2020-09-05_21h00.55.374,torte-2b,2020.1.3,MacIntel,60,13188,,,,,,,,,,,,,,0,33,33,33,1,1,,,,,,,,,,,,,,,,,,,,,,,,,,,,,,,,,,,,,,,,,,,,,,,
,,,,,,,,,,,,,,,,,,,,,,,19,female,2020-09-05_21h00.55.374,torte-2b,2020.1.3,MacIntel,60,13188,,,,,,,,,,,,,,0,34,34,34,1,1,,,,,,,,,,,,,,,,,,,,,,,,,,,,,,,,,,,,,,,,,,,,,,,
,,,,,,,,,,,,,,,,,,,,,,,19,female,2020-09-05_21h00.55.374,torte-2b,2020.1.3,MacIntel,60,13188,,,,,,,,,,,,,,,,,,,2,,0,0,0,0,1,,,,,,,,,,,,,,,,,,,,,,,,,,,,,,,,,,,,,,,,,
,,,,,,,,,,,,,,,,,,,,,,,19,female,2020-09-05_21h00.55.374,torte-2b,2020.1.3,MacIntel,60,13188,,,,,,,,,,,,,,,,,,,2,,0,1,1,1,1,,,,,,,,,,,,,,,,,,,,,,,,,,,,,,,,,,,,,,,,,
,,,,,,,,,,,,,,,,,,,,,,,19,female,2020-09-05_21h00.55.374,torte-2b,2020.1.3,MacIntel,60,13188,,,,,,,,,,,,,,,,,,,6,,0,2,2,2,1,,,,,,,,,,,,,,,,,,,,,,,,,,,,,,,,,,,,,,,,,
,,,,,,,,,,,,,,,,,,,,,,,19,female,2020-09-05_21h00.55.374,torte-2b,2020.1.3,MacIntel,60,13188,,,,,,,,,,,,,space,,,,,,2,0.403,0,3,3,3,1,,,,,,,,,,,,,,,,,,,,,,,,,,,,,,,,,,,,,,,,,
,,,,,,,,,,,,,,,,,,,,,,,19,female,2020-09-05_21h00.55.374,torte-2b,2020.1.3,MacIntel,60,13188,,,,,,,,,,,,,space,,,,,,6,0.612,0,4,4,4,1,,,,,,,,,,,,,,,,,,,,,,,,,,,,,,,,,,,,,,,,,
,,,,,,,,,,,,,,,,,,,,,,,19,female,2020-09-05_21h00.55.374,torte-2b,2020.1.3,MacIntel,60,13188,,,,,,,,,,,,,space,,,,,,2,0.682,0,5,5,5,1,,,,,,,,,,,,,,,,,,,,,,,,,,,,,,,,,,,,,,,,,
,,,,,,,,,,,,,,,,,,,,,,,19,female,2020-09-05_21h00.55.374,torte-2b,2020.1.3,MacIntel,60,13188,,,,,,,,,,,,,,,,,,,7,,0,6,6,6,1,,,,,,,,,,,,,,,,,,,,,,,,,,,,,,,,,,,,,,,,,
,,,,,,,,,,,,,,,,,,,,,,,19,female,2020-09-05_21h00.55.374,torte-2b,2020.1.3,MacIntel,60,13188,,,,,,,,,,,,,space,,,,,,2,0.418,0,7,7,7,1,,,,,,,,,,,,,,,,,,,,,,,,,,,,,,,,,,,,,,,,,
,,,,,,,,,,,,,,,,,,,,,,,19,female,2020-09-05_21h00.55.374,torte-2b,2020.1.3,MacIntel,60,13188,,,,,,,,,,,,,space,,,,,,7,0.536,0,8,8,8,1,,,,,,,,,,,,,,,,,,,,,,,,,,,,,,,,,,,,,,,,,
,,,,,,,,,,,,,,,,,,,,,,,19,female,2020-09-05_21h00.55.374,torte-2b,2020.1.3,MacIntel,60,13188,,,,,,,,,,,,,space,,,,,,2,0.883,0,9,9,9,1,,,,,,,,,,,,,,,,,,,,,,,,,,,,,,,,,,,,,,,,,
,,,,,,,,,,,,,,,,,,,,,,,19,female,2020-09-05_21h00.55.374,torte-2b,2020.1.3,MacIntel,60,13188,,,,,,,,,,,,,,,,,,,5,,0,10,10,10,1,,,,,,,,,,,,,,,,,,,,,,,,,,,,,,,,,,,,,,,,,
,,,,,,,,,,,,,,,,,,,,,,,19,female,2020-09-05_21h00.55.374,torte-2b,2020.1.3,MacIntel,60,13188,,,,,,,,,,,,,,,,,,,4,,0,11,11,11,1,,,,,,,,,,,,,,,,,,,,,,,,,,,,,,,,,,,,,,,,,
,,,,,,,,,,,,,,,,,,,,,,,19,female,2020-09-05_21h00.55.374,torte-2b,2020.1.3,MacIntel,60,13188,,,,,,,,,,,,,space,,,,,,5,0.494,0,12,12,12,1,,,,,,,,,,,,,,,,,,,,,,,,,,,,,,,,,,,,,,,,,
,,,,,,,,,,,,,,,,,,,,,,,19,female,2020-09-05_21h00.55.374,torte-2b,2020.1.3,MacIntel,60,13188,,,,,,,,,,,,,,,,,,,6,,0,13,13,13,1,,,,,,,,,,,,,,,,,,,,,,,,,,,,,,,,,,,,,,,,,
,,,,,,,,,,,,,,,,,,,,,,,19,female,2020-09-05_21h00.55.374,torte-2b,2020.1.3,MacIntel,60,13188,,,,,,,,,,,,,space,,,,,,5,0.604,0,14,14,14,1,,,,,,,,,,,,,,,,,,,,,,,,,,,,,,,,,,,,,,,,,
,,,,,,,,,,,,,,,,,,,,,,,19,female,2020-09-05_21h00.55.374,torte-2b,2020.1.3,MacIntel,60,13188,,,,,,,,,,,,,space,,,,,,4,0.553,0,15,15,15,1,,,,,,,,,,,,,,,,,,,,,,,,,,,,,,,,,,,,,,,,,
,,,,,,,,,,,,,,,,,,,,,,,19,female,2020-09-05_21h00.55.374,torte-2b,2020.1.3,MacIntel,60,13188,,,,,,,,,,,,,,,,,,,5,,0,16,16,16,1,,,,,,,,,,,,,,,,,,,,,,,,,,,,,,,,,,,,,,,,,
,,,,,,,,,,,,,,,,,,,,,,,19,female,2020-09-05_21h00.55.374,torte-2b,2020.1.3,MacIntel,60,13188,,,,,,,,,,,,,space,,,,,,3,1.364,0,17,17,17,1,,,,,,,,,,,,,,,,,,,,,,,,,,,,,,,,,,,,,,,,,
,,,,,,,,,,,,,,,,,,,,,,,19,female,2020-09-05_21h00.55.374,torte-2b,2020.1.3,MacIntel,60,13188,,,,,,,,,,,,,,,,,,,6,,0,18,18,18,1,,,,,,,,,,,,,,,,,,,,,,,,,,,,,,,,,,,,,,,,,
,,,,,,,,,,,,,,,,,,,,,,,19,female,2020-09-05_21h00.55.374,torte-2b,2020.1.3,MacIntel,60,13188,,,,,,,,,,,,,space,,,,,,6,0.814,0,19,19,19,1,,,,,,,,,,,,,,,,,,,,,,,,,,,,,,,,,,,,,,,,,
,,,,,,,,,,,,,,,,,,,,,,,19,female,2020-09-05_21h00.55.374,torte-2b,2020.1.3,MacIntel,60,13188,,,,,,,,,,,,,space,,,,,,6,0.814,0,20,20,20,1,,,,,,,,,,,,,,,,,,,,,,,,,,,,,,,,,,,,,,,,,
,,,,,,,,,,,,,,,,,,,,,,,19,female,2020-09-05_21h00.55.374,torte-2b,2020.1.3,MacIntel,60,13188,,,,,,,,,,,,,,,,,,,4,,0,21,21,21,1,,,,,,,,,,,,,,,,,,,,,,,,,,,,,,,,,,,,,,,,,
,,,,,,,,,,,,,,,,,,,,,,,19,female,2020-09-05_21h00.55.374,torte-2b,2020.1.3,MacIntel,60,13188,,,,,,,,,,,,,space,,,,,,6,0.499,0,22,22,22,1,,,,,,,,,,,,,,,,,,,,,,,,,,,,,,,,,,,,,,,,,
,,,,,,,,,,,,,,,,,,,,,,,19,female,2020-09-05_21h00.55.374,torte-2b,2020.1.3,MacIntel,60,13188,,,,,,,,,,,,,space,,,,,,4,0.513,0,23,23,23,1,,,,,,,,,,,,,,,,,,,,,,,,,,,,,,,,,,,,,,,,,
,,,,,,,,,,,,,,,,,,,,,,,19,female,2020-09-05_21h00.55.374,torte-2b,2020.1.3,MacIntel,60,13188,,,,,,,,,,,,,space,,,,,,6,0.504,0,24,24,24,1,,,,,,,,,,,,,,,,,,,,,,,,,,,,,,,,,,,,,,,,,
,,,,,,,,,,,,,,,,,,,,,,,19,female,2020-09-05_21h00.55.374,torte-2b,2020.1.3,MacIntel,60,13188,,,,,,,,,,,,,,,,,,,6,,0,25,25,25,1,,,,,,,,,,,,,,,,,,,,,,,,,,,,,,,,,,,,,,,,,
,,,,,,,,,,,,,,,,,,,,,,,19,female,2020-09-05_21h00.55.374,torte-2b,2020.1.3,MacIntel,60,13188,,,,,,,,,,,,,,,,,,,7,,0,26,26,26,1,,,,,,,,,,,,,,,,,,,,,,,,,,,,,,,,,,,,,,,,,
,,,,,,,,,,,,,,,,,,,,,,,19,female,2020-09-05_21h00.55.374,torte-2b,2020.1.3,MacIntel,60,13188,,,,,,,,,,,,,,,,,,,1,,0,27,27,27,1,,,,,,,,,,,,,,,,,,,,,,,,,,,,,,,,,,,,,,,,,
,,,,,,,,,,,,,,,,,,,,,,,19,female,2020-09-05_21h00.55.374,torte-2b,2020.1.3,MacIntel,60,13188,,,,,,,,,,,,,space,,,,,,7,0.979,0,28,28,28,1,,,,,,,,,,,,,,,,,,,,,,,,,,,,,,,,,,,,,,,,,
,,,,,,,,,,,,,,,,,,,,,,,19,female,2020-09-05_21h00.55.374,torte-2b,2020.1.3,MacIntel,60,13188,,,,,,,,,,,,,,,,,,,4,,0,29,29,29,1,,,,,,,,,,,,,,,,,,,,,,,,,,,,,,,,,,,,,,,,,
,,,,,,,,,,,,,,,,,,,,,,,19,female,2020-09-05_21h00.55.374,torte-2b,2020.1.3,MacIntel,60,13188,,,,,,,,,,,,,space,,,,,,7,0.605,0,30,30,30,1,,,,,,,,,,,,,,,,,,,,,,,,,,,,,,,,,,,,,,,,,
,,,,,,,,,,,,,,,,,,,,,,,19,female,2020-09-05_21h00.55.374,torte-2b,2020.1.3,MacIntel,60,13188,,,,,,,,,,,,,,,,,,,3,,0,31,31,31,1,,,,,,,,,,,,,,,,,,,,,,,,,,,,,,,,,,,,,,,,,
,,,,,,,,,,,,,,,,,,,,,,,19,female,2020-09-05_21h00.55.374,torte-2b,2020.1.3,MacIntel,60,13188,,,,,,,,,,,,,,,,,,,2,,0,32,32,32,1,,,,,,,,,,,,,,,,,,,,,,,,,,,,,,,,,,,,,,,,,
,,,,,,,,,,,,,,,,,,,,,,,19,female,2020-09-05_21h00.55.374,torte-2b,2020.1.3,MacIntel,60,13188,,,,,,,,,,,,,,,,,,,6,,0,33,33,33,1,,,,,,,,,,,,,,,,,,,,,,,,,,,,,,,,,,,,,,,,,
,,,,,,,,,,,,,,,,,,,,,,,19,female,2020-09-05_21h00.55.374,torte-2b,2020.1.3,MacIntel,60,13188,,,,,,,,,,,,,space,,,,,,3,0.434,0,34,34,34,1,,,,,,,,,,,,,,,,,,,,,,,,,,,,,,,,,,,,,,,,,
,,,,,,,,,,,,,,,,,,,,,,,19,female,2020-09-05_21h00.55.374,torte-2b,2020.1.3,MacIntel,60,13188,,,,,,,,,,,,,,,,,,,7,,,,,,,0,0,0,0,1,,,,,,,,,,,,,,,,,,,,,,,,,,,,,,,,,,,,
,,,,,,,,,,,,,,,,,,,,,,,19,female,2020-09-05_21h00.55.374,torte-2b,2020.1.3,MacIntel,60,13188,,,,,,,,,,,,,,,,,,,5,,,,,,,0,1,1,1,1,,,,,,,,,,,,,,,,,,,,,,,,,,,,,,,,,,,,
,,,,,,,,,,,,,,,,,,,,,,,19,female,2020-09-05_21h00.55.374,torte-2b,2020.1.3,MacIntel,60,13188,,,,,,,,,,,,,,,,,,,4,,,,,,,0,2,2,2,1,,,,,,,,,,,,,,,,,,,,,,,,,,,,,,,,,,,,
,,,,,,,,,,,,,,,,,,,,,,,19,female,2020-09-05_21h00.55.374,torte-2b,2020.1.3,MacIntel,60,13188,,,,,,,,,,,,,space,,,,,,5,0.515,,,,,,0,3,3,3,1,,,,,,,,,,,,,,,,,,,,,,,,,,,,,,,,,,,,
,,,,,,,,,,,,,,,,,,,,,,,19,female,2020-09-05_21h00.55.374,torte-2b,2020.1.3,MacIntel,60,13188,,,,,,,,,,,,,,,,,,,6,,,,,,,0,4,4,4,1,,,,,,,,,,,,,,,,,,,,,,,,,,,,,,,,,,,,
,,,,,,,,,,,,,,,,,,,,,,,19,female,2020-09-05_21h00.55.374,torte-2b,2020.1.3,MacIntel,60,13188,,,,,,,,,,,,,space,,,,,,5,0.52,,,,,,0,5,5,5,1,,,,,,,,,,,,,,,,,,,,,,,,,,,,,,,,,,,,
,,,,,,,,,,,,,,,,,,,,,,,19,female,2020-09-05_21h00.55.374,torte-2b,2020.1.3,MacIntel,60,13188,,,,,,,,,,,,,,,,,,,3,,,,,,,0,6,6,6,1,,,,,,,,,,,,,,,,,,,,,,,,,,,,,,,,,,,,
,,,,,,,,,,,,,,,,,,,,,,,19,female,2020-09-05_21h00.55.374,torte-2b,2020.1.3,MacIntel,60,13188,,,,,,,,,,,,,,,,,,,4,,,,,,,0,7,7,7,1,,,,,,,,,,,,,,,,,,,,,,,,,,,,,,,,,,,,
,,,,,,,,,,,,,,,,,,,,,,,19,female,2020-09-05_21h00.55.374,torte-2b,2020.1.3,MacIntel,60,13188,,,,,,,,,,,,,space,,,,,,3,0.549,,,,,,0,8,8,8,1,,,,,,,,,,,,,,,,,,,,,,,,,,,,,,,,,,,,
,,,,,,,,,,,,,,,,,,,,,,,19,female,2020-09-05_21h00.55.374,torte-2b,2020.1.3,MacIntel,60,13188,,,,,,,,,,,,,,,,,,,1,,,,,,,0,9,9,9,1,,,,,,,,,,,,,,,,,,,,,,,,,,,,,,,,,,,,
,,,,,,,,,,,,,,,,,,,,,,,19,female,2020-09-05_21h00.55.374,torte-2b,2020.1.3,MacIntel,60,13188,,,,,,,,,,,,,,,,,,,2,,,,,,,0,10,10,10,1,,,,,,,,,,,,,,,,,,,,,,,,,,,,,,,,,,,,
,,,,,,,,,,,,,,,,,,,,,,,19,female,2020-09-05_21h00.55.374,torte-2b,2020.1.3,MacIntel,60,13188,,,,,,,,,,,,,space,,,,,,1,1.196,,,,,,0,11,11,11,1,,,,,,,,,,,,,,,,,,,,,,,,,,,,,,,,,,,,
,,,,,,,,,,,,,,,,,,,,,,,19,female,2020-09-05_21h00.55.374,torte-2b,2020.1.3,MacIntel,60,13188,,,,,,,,,,,,,,,,,,,2,,,,,,,0,12,12,12,1,,,,,,,,,,,,,,,,,,,,,,,,,,,,,,,,,,,,
,,,,,,,,,,,,,,,,,,,,,,,19,female,2020-09-05_21h00.55.374,torte-2b,2020.1.3,MacIntel,60,13188,,,,,,,,,,,,,space,,,,,,1,0.583,,,,,,0,13,13,13,1,,,,,,,,,,,,,,,,,,,,,,,,,,,,,,,,,,,,
,,,,,,,,,,,,,,,,,,,,,,,19,female,2020-09-05_21h00.55.374,torte-2b,2020.1.3,MacIntel,60,13188,,,,,,,,,,,,,,,,,,,3,,,,,,,0,14,14,14,1,,,,,,,,,,,,,,,,,,,,,,,,,,,,,,,,,,,,
,,,,,,,,,,,,,,,,,,,,,,,19,female,2020-09-05_21h00.55.374,torte-2b,2020.1.3,MacIntel,60,13188,,,,,,,,,,,,,space,,,,,,1,0.566,,,,,,0,15,15,15,1,,,,,,,,,,,,,,,,,,,,,,,,,,,,,,,,,,,,
,,,,,,,,,,,,,,,,,,,,,,,19,female,2020-09-05_21h00.55.374,torte-2b,2020.1.3,MacIntel,60,13188,,,,,,,,,,,,,,,,,,,7,,,,,,,0,16,16,16,1,,,,,,,,,,,,,,,,,,,,,,,,,,,,,,,,,,,,
,,,,,,,,,,,,,,,,,,,,,,,19,female,2020-09-05_21h00.55.374,torte-2b,2020.1.3,MacIntel,60,13188,,,,,,,,,,,,,,,,,,,7,,,,,,,0,17,17,17,1,,,,,,,,,,,,,,,,,,,,,,,,,,,,,,,,,,,,
,,,,,,,,,,,,,,,,,,,,,,,19,female,2020-09-05_21h00.55.374,torte-2b,2020.1.3,MacIntel,60,13188,,,,,,,,,,,,,,,,,,,4,,,,,,,0,18,18,18,1,,,,,,,,,,,,,,,,,,,,,,,,,,,,,,,,,,,,
,,,,,,,,,,,,,,,,,,,,,,,19,female,2020-09-05_21h00.55.374,torte-2b,2020.1.3,MacIntel,60,13188,,,,,,,,,,,,,space,,,,,,7,0.43,,,,,,0,19,19,19,1,,,,,,,,,,,,,,,,,,,,,,,,,,,,,,,,,,,,
,,,,,,,,,,,,,,,,,,,,,,,19,female,2020-09-05_21h00.55.374,torte-2b,2020.1.3,MacIntel,60,13188,,,,,,,,,,,,,,,,,,,3,,,,,,,0,20,20,20,1,,,,,,,,,,,,,,,,,,,,,,,,,,,,,,,,,,,,
,,,,,,,,,,,,,,,,,,,,,,,19,female,2020-09-05_21h00.55.374,torte-2b,2020.1.3,MacIntel,60,13188,,,,,,,,,,,,,space,,,,,,7,0.4,,,,,,0,21,21,21,1,,,,,,,,,,,,,,,,,,,,,,,,,,,,,,,,,,,,
,,,,,,,,,,,,,,,,,,,,,,,19,female,2020-09-05_21h00.55.374,torte-2b,2020.1.3,MacIntel,60,13188,,,,,,,,,,,,,space,,,,,,3,0.884,,,,,,0,22,22,22,1,,,,,,,,,,,,,,,,,,,,,,,,,,,,,,,,,,,,
,,,,,,,,,,,,,,,,,,,,,,,19,female,2020-09-05_21h00.55.374,torte-2b,2020.1.3,MacIntel,60,13188,,,,,,,,,,,,,,,,,,,1,,,,,,,0,23,23,23,1,,,,,,,,,,,,,,,,,,,,,,,,,,,,,,,,,,,,
,,,,,,,,,,,,,,,,,,,,,,,19,female,2020-09-05_21h00.55.374,torte-2b,2020.1.3,MacIntel,60,13188,,,,,,,,,,,,,,,,,,,6,,,,,,,0,24,24,24,1,,,,,,,,,,,,,,,,,,,,,,,,,,,,,,,,,,,,
,,,,,,,,,,,,,,,,,,,,,,,19,female,2020-09-05_21h00.55.374,torte-2b,2020.1.3,MacIntel,60,13188,,,,,,,,,,,,,space,,,,,,3,0.48,,,,,,0,25,25,25,1,,,,,,,,,,,,,,,,,,,,,,,,,,,,,,,,,,,,
,,,,,,,,,,,,,,,,,,,,,,,19,female,2020-09-05_21h00.55.374,torte-2b,2020.1.3,MacIntel,60,13188,,,,,,,,,,,,,,,,,,,2,,,,,,,0,26,26,26,1,,,,,,,,,,,,,,,,,,,,,,,,,,,,,,,,,,,,
,,,,,,,,,,,,,,,,,,,,,,,19,female,2020-09-05_21h00.55.374,torte-2b,2020.1.3,MacIntel,60,13188,,,,,,,,,,,,,,,,,,,3,,,,,,,0,27,27,27,1,,,,,,,,,,,,,,,,,,,,,,,,,,,,,,,,,,,,
,,,,,,,,,,,,,,,,,,,,,,,19,female,2020-09-05_21h00.55.374,torte-2b,2020.1.3,MacIntel,60,13188,,,,,,,,,,,,,,,,,,,1,,,,,,,0,28,28,28,1,,,,,,,,,,,,,,,,,,,,,,,,,,,,,,,,,,,,
,,,,,,,,,,,,,,,,,,,,,,,19,female,2020-09-05_21h00.55.374,torte-2b,2020.1.3,MacIntel,60,13188,,,,,,,,,,,,,space,,,,,,3,0.629,,,,,,0,29,29,29,1,,,,,,,,,,,,,,,,,,,,,,,,,,,,,,,,,,,,
,,,,,,,,,,,,,,,,,,,,,,,19,female,2020-09-05_21h00.55.374,torte-2b,2020.1.3,MacIntel,60,13188,,,,,,,,,,,,,,,,,,,1,,,,,,,0,30,30,30,1,,,,,,,,,,,,,,,,,,,,,,,,,,,,,,,,,,,,
,,,,,,,,,,,,,,,,,,,,,,,19,female,2020-09-05_21h00.55.374,torte-2b,2020.1.3,MacIntel,60,13188,,,,,,,,,,,,,,,,,,,7,,,,,,,0,31,31,31,1,,,,,,,,,,,,,,,,,,,,,,,,,,,,,,,,,,,,
,,,,,,,,,,,,,,,,,,,,,,,19,female,2020-09-05_21h00.55.374,torte-2b,2020.1.3,MacIntel,60,13188,,,,,,,,,,,,,,,,,,,5,,,,,,,0,32,32,32,1,,,,,,,,,,,,,,,,,,,,,,,,,,,,,,,,,,,,
,,,,,,,,,,,,,,,,,,,,,,,19,female,2020-09-05_21h00.55.374,torte-2b,2020.1.3,MacIntel,60,13188,,,,,,,,,,,,,space,,,,,,7,0.465,,,,,,0,33,33,33,1,,,,,,,,,,,,,,,,,,,,,,,,,,,,,,,,,,,,
,,,,,,,,,,,,,,,,,,,,,,,19,female,2020-09-05_21h00.55.374,torte-2b,2020.1.3,MacIntel,60,13188,,,,,,,,,,,,,,,,,,,2,,,,,,,0,34,34,34,1,,,,,,,,,,,,,,,,,,,,,,,,,,,,,,,,,,,,
,,,,,,,,,,,,,,,,,,,,,,,19,female,2020-09-05_21h00.55.374,torte-2b,2020.1.3,MacIntel,60,13188,,,,,,,,,,,,,,,,,,,3,,,,,,,,,,,,0,0,0,0,1,,,,,,,,,,,,,,,,,,,,,,,,,,,,,,,
,,,,,,,,,,,,,,,,,,,,,,,19,female,2020-09-05_21h00.55.374,torte-2b,2020.1.3,MacIntel,60,13188,,,,,,,,,,,,,,,,,,,7,,,,,,,,,,,,0,1,1,1,1,,,,,,,,,,,,,,,,,,,,,,,,,,,,,,,
,,,,,,,,,,,,,,,,,,,,,,,19,female,2020-09-05_21h00.55.374,torte-2b,2020.1.3,MacIntel,60,13188,,,,,,,,,,,,,,,,,,,7,,,,,,,,,,,,0,2,2,2,1,,,,,,,,,,,,,,,,,,,,,,,,,,,,,,,
,,,,,,,,,,,,,,,,,,,,,,,19,female,2020-09-05_21h00.55.374,torte-2b,2020.1.3,MacIntel,60,13188,,,,,,,,,,,,,,,,,,,4,,,,,,,,,,,,0,3,3,3,1,,,,,,,,,,,,,,,,,,,,,,,,,,,,,,,
,,,,,,,,,,,,,,,,,,,,,,,19,female,2020-09-05_21h00.55.374,torte-2b,2020.1.3,MacIntel,60,13188,,,,,,,,,,,,,,,,,,,5,,,,,,,,,,,,0,4,4,4,1,,,,,,,,,,,,,,,,,,,,,,,,,,,,,,,
,,,,,,,,,,,,,,,,,,,,,,,19,female,2020-09-05_21h00.55.374,torte-2b,2020.1.3,MacIntel,60,13188,,,,,,,,,,,,,,,,,,,4,,,,,,,,,,,,0,5,5,5,1,,,,,,,,,,,,,,,,,,,,,,,,,,,,,,,
,,,,,,,,,,,,,,,,,,,,,,,19,female,2020-09-05_21h00.55.374,torte-2b,2020.1.3,MacIntel,60,13188,,,,,,,,,,,,,,,,,,,2,,,,,,,,,,,,0,6,6,6,1,,,,,,,,,,,,,,,,,,,,,,,,,,,,,,,
,,,,,,,,,,,,,,,,,,,,,,,19,female,2020-09-05_21h00.55.374,torte-2b,2020.1.3,MacIntel,60,13188,,,,,,,,,,,,,space,,,,,,4,0.784,,,,,,,,,,,0,7,7,7,1,,,,,,,,,,,,,,,,,,,,,,,,,,,,,,,
,,,,,,,,,,,,,,,,,,,,,,,19,female,2020-09-05_21h00.55.374,torte-2b,2020.1.3,MacIntel,60,13188,,,,,,,,,,,,,space,,,,,,2,0.834,,,,,,,,,,,0,8,8,8,1,,,,,,,,,,,,,,,,,,,,,,,,,,,,,,,
,,,,,,,,,,,,,,,,,,,,,,,19,female,2020-09-05_21h00.55.374,torte-2b,2020.1.3,MacIntel,60,13188,,,,,,,,,,,,,,,,,,,2,,,,,,,,,,,,0,9,9,9,1,,,,,,,,,,,,,,,,,,,,,,,,,,,,,,,
,,,,,,,,,,,,,,,,,,,,,,,19,female,2020-09-05_21h00.55.374,torte-2b,2020.1.3,MacIntel,60,13188,,,,,,,,,,,,,,,,,,,6,,,,,,,,,,,,0,10,10,10,1,,,,,,,,,,,,,,,,,,,,,,,,,,,,,,,
,,,,,,,,,,,,,,,,,,,,,,,19,female,2020-09-05_21h00.55.374,torte-2b,2020.1.3,MacIntel,60,13188,,,,,,,,,,,,,space,,,,,,2,0.495,,,,,,,,,,,0,11,11,11,1,,,,,,,,,,,,,,,,,,,,,,,,,,,,,,,
,,,,,,,,,,,,,,,,,,,,,,,19,female,2020-09-05_21h00.55.374,torte-2b,2020.1.3,MacIntel,60,13188,,,,,,,,,,,,,space,,,,,,2,0.898,,,,,,,,,,,0,12,12,12,1,,,,,,,,,,,,,,,,,,,,,,,,,,,,,,,
,,,,,,,,,,,,,,,,,,,,,,,19,female,2020-09-05_21h00.55.374,torte-2b,2020.1.3,MacIntel,60,13188,,,,,,,,,,,,,space,,,,,,2,0.888,,,,,,,,,,,0,13,13,13,1,,,,,,,,,,,,,,,,,,,,,,,,,,,,,,,
,,,,,,,,,,,,,,,,,,,,,,,19,female,2020-09-05_21h00.55.374,torte-2b,2020.1.3,MacIntel,60,13188,,,,,,,,,,,,,,,,,,,2,,,,,,,,,,,,0,14,14,14,1,,,,,,,,,,,,,,,,,,,,,,,,,,,,,,,
,,,,,,,,,,,,,,,,,,,,,,,19,female,2020-09-05_21h00.55.374,torte-2b,2020.1.3,MacIntel,60,13188,,,,,,,,,,,,,,,,,,,4,,,,,,,,,,,,0,15,15,15,1,,,,,,,,,,,,,,,,,,,,,,,,,,,,,,,
,,,,,,,,,,,,,,,,,,,,,,,19,female,2020-09-05_21h00.55.374,torte-2b,2020.1.3,MacIntel,60,13188,,,,,,,,,,,,,,,,,,,3,,,,,,,,,,,,0,16,16,16,1,,,,,,,,,,,,,,,,,,,,,,,,,,,,,,,
,,,,,,,,,,,,,,,,,,,,,,,19,female,2020-09-05_21h00.55.374,torte-2b,2020.1.3,MacIntel,60,13188,,,,,,,,,,,,,,,,,,,7,,,,,,,,,,,,0,17,17,17,1,,,,,,,,,,,,,,,,,,,,,,,,,,,,,,,
,,,,,,,,,,,,,,,,,,,,,,,19,female,2020-09-05_21h00.55.374,torte-2b,2020.1.3,MacIntel,60,13188,,,,,,,,,,,,,space,,,,,,4,0.717,,,,,,,,,,,0,18,18,18,1,,,,,,,,,,,,,,,,,,,,,,,,,,,,,,,
,,,,,,,,,,,,,,,,,,,,,,,19,female,2020-09-05_21h00.55.374,torte-2b,2020.1.3,MacIntel,60,13188,,,,,,,,,,,,,,,,,,,7,,,,,,,,,,,,0,19,19,19,1,,,,,,,,,,,,,,,,,,,,,,,,,,,,,,,
,,,,,,,,,,,,,,,,,,,,,,,19,female,2020-09-05_21h00.55.374,torte-2b,2020.1.3,MacIntel,60,13188,,,,,,,,,,,,,,,,,,,7,,,,,,,,,,,,0,20,20,20,1,,,,,,,,,,,,,,,,,,,,,,,,,,,,,,,
,,,,,,,,,,,,,,,,,,,,,,,19,female,2020-09-05_21h00.55.374,torte-2b,2020.1.3,MacIntel,60,13188,,,,,,,,,,,,,,,,,,,7,,,,,,,,,,,,0,21,21,21,1,,,,,,,,,,,,,,,,,,,,,,,,,,,,,,,
,,,,,,,,,,,,,,,,,,,,,,,19,female,2020-09-05_21h00.55.374,torte-2b,2020.1.3,MacIntel,60,13188,,,,,,,,,,,,,space,,,,,,7,0.432,,,,,,,,,,,0,22,22,22,1,,,,,,,,,,,,,,,,,,,,,,,,,,,,,,,
,,,,,,,,,,,,,,,,,,,,,,,19,female,2020-09-05_21h00.55.374,torte-2b,2020.1.3,MacIntel,60,13188,,,,,,,,,,,,,,,,,,,1,,,,,,,,,,,,0,23,23,23,1,,,,,,,,,,,,,,,,,,,,,,,,,,,,,,,
,,,,,,,,,,,,,,,,,,,,,,,19,female,2020-09-05_21h00.55.374,torte-2b,2020.1.3,MacIntel,60,13188,,,,,,,,,,,,,space,,,,,,7,0.497,,,,,,,,,,,0,24,24,24,1,,,,,,,,,,,,,,,,,,,,,,,,,,,,,,,
,,,,,,,,,,,,,,,,,,,,,,,19,female,2020-09-05_21h00.55.374,torte-2b,2020.1.3,MacIntel,60,13188,,,,,,,,,,,,,space,,,,,,1,0.837,,,,,,,,,,,0,25,25,25,1,,,,,,,,,,,,,,,,,,,,,,,,,,,,,,,
,,,,,,,,,,,,,,,,,,,,,,,19,female,2020-09-05_21h00.55.374,torte-2b,2020.1.3,MacIntel,60,13188,,,,,,,,,,,,,space,,,,,,7,0.719,,,,,,,,,,,0,26,26,26,1,,,,,,,,,,,,,,,,,,,,,,,,,,,,,,,
,,,,,,,,,,,,,,,,,,,,,,,19,female,2020-09-05_21h00.55.374,torte-2b,2020.1.3,MacIntel,60,13188,,,,,,,,,,,,,,,,,,,2,,,,,,,,,,,,0,27,27,27,1,,,,,,,,,,,,,,,,,,,,,,,,,,,,,,,
,,,,,,,,,,,,,,,,,,,,,,,19,female,2020-09-05_21h00.55.374,torte-2b,2020.1.3,MacIntel,60,13188,,,,,,,,,,,,,,,,,,,5,,,,,,,,,,,,0,28,28,28,1,,,,,,,,,,,,,,,,,,,,,,,,,,,,,,,
,,,,,,,,,,,,,,,,,,,,,,,19,female,2020-09-05_21h00.55.374,torte-2b,2020.1.3,MacIntel,60,13188,,,,,,,,,,,,,,,,,,,5,,,,,,,,,,,,0,29,29,29,1,,,,,,,,,,,,,,,,,,,,,,,,,,,,,,,
,,,,,,,,,,,,,,,,,,,,,,,19,female,2020-09-05_21h00.55.374,torte-2b,2020.1.3,MacIntel,60,13188,,,,,,,,,,,,,space,,,,,,5,0.416,,,,,,,,,,,0,30,30,30,1,,,,,,,,,,,,,,,,,,,,,,,,,,,,,,,
,,,,,,,,,,,,,,,,,,,,,,,19,female,2020-09-05_21h00.55.374,torte-2b,2020.1.3,MacIntel,60,13188,,,,,,,,,,,,,,,,,,,1,,,,,,,,,,,,0,31,31,31,1,,,,,,,,,,,,,,,,,,,,,,,,,,,,,,,
,,,,,,,,,,,,,,,,,,,,,,,19,female,2020-09-05_21h00.55.374,torte-2b,2020.1.3,MacIntel,60,13188,,,,,,,,,,,,,space,,,,,,5,0.899,,,,,,,,,,,0,32,32,32,1,,,,,,,,,,,,,,,,,,,,,,,,,,,,,,,
,,,,,,,,,,,,,,,,,,,,,,,19,female,2020-09-05_21h00.55.374,torte-2b,2020.1.3,MacIntel,60,13188,,,,,,,,,,,,,,,,,,,3,,,,,,,,,,,,0,33,33,33,1,,,,,,,,,,,,,,,,,,,,,,,,,,,,,,,
,,,,,,,,,,,,,,,,,,,,,,,19,female,2020-09-05_21h00.55.374,torte-2b,2020.1.3,MacIntel,60,13188,,,,,,,,,,,,,,,,,,,3,,,,,,,,,,,,0,34,34,34,1,,,,,,,,,,,,,,,,,,,,,,,,,,,,,,,
,,,,,,,,,,,,l,Incorrect,,,,,,t4.png,t5.png,1,0.9,19,female,2020-09-05_21h00.55.374,torte-2b,2020.1.3,MacIntel,60,13188,0.966,space,103.878,,,,,,,,,,,,,,,,,,,,,,,,,,,,,,,,,space,102.623,0,0,0,115,1,,,,,,,,,,,,,,,,,,,,,,,,
,,,,,,,,,,,,a,Incorrect,,,,,,t2.png,t1.png,1,0.9,19,female,2020-09-05_21h00.55.374,torte-2b,2020.1.3,MacIntel,60,13188,0.921,,,,,,,,,,,,,,,,,,,,,,,,,,,,,,,,,,,,,0,1,1,118,1,,,,,,,,,,,,,,,,,,,,,,,,
,,,,,,,,,,,,a,Incorrect,,,,,,t4.png,t2.png,2,0.0591,19,female,2020-09-05_21h00.55.374,torte-2b,2020.1.3,MacIntel,60,13188,0.748,,,,,,,,,,,,,,,,,,,,,,,,,,,,,,,,,,,,,0,2,2,36,1,,,,,,,,,,,,,,,,,,,,,,,,
,,,,,,,,,,,,l,Correct!,,,,,,t1.png,t5.png,4,9.55E-11,19,female,2020-09-05_21h00.55.374,torte-2b,2020.1.3,MacIntel,60,13188,0.601,,,,,,,,,,,,,,,,,,,,,,,,,,,,,,,,,,,,,0,3,3,55,1,,,,,,,,,,,,,,,,,,,,,,,,
,,,,,,,,,,,,l,Correct!,,,,,,t2.png,t5.png,3,0.0000131,19,female,2020-09-05_21h00.55.374,torte-2b,2020.1.3,MacIntel,60,13188,0.604,,,,,,,,,,,,,,,,,,,,,,,,,,,,,,,,,,,,,0,4,4,66,1,,,,,,,,,,,,,,,,,,,,,,,,
,,,,,,,,,,,,a,Correct!,,,,,,t3.png,t2.png,1,0.909,19,female,2020-09-05_21h00.55.374,torte-2b,2020.1.3,MacIntel,60,13188,0.536,,,,,,,,,,,,,,,,,,,,,,,,,,,,,,,,,,,,,0,5,5,23,1,,,,,,,,,,,,,,,,,,,,,,,,
,,,,,,,,,,,,l,Correct!,,,,,,t2.png,t5.png,3,0.0000131,19,female,2020-09-05_21h00.55.374,torte-2b,2020.1.3,MacIntel,60,13188,0.454,,,,,,,,,,,,,,,,,,,,,,,,,,,,,,,,,,,,,0,6,6,104,1,,,,,,,,,,,,,,,,,,,,,,,,
,,,,,,,,,,,,a,Incorrect,,,,,,t4.png,t2.png,2,0.059078,19,female,2020-09-05_21h00.55.374,torte-2b,2020.1.3,MacIntel,60,13188,0.464,,,,,,,,,,,,,,,,,,,,,,,,,,,,,,,,,,,,,0,7,7,86,1,,,,,,,,,,,,,,,,,,,,,,,,
,,,,,,,,,,,,l,Correct!,,,,,,t1.png,t1.png,0,0.97829,19,female,2020-09-05_21h00.55.374,torte-2b,2020.1.3,MacIntel,60,13188,0.435,,,,,,,,,,,,,,,,,,,,,,,,,,,,,,,,,,,,,0,8,8,67,1,,,,,,,,,,,,,,,,,,,,,,,,
,,,,,,,,,,,,a,Correct!,,,,,,t5.png,t3.png,2,0.056466,19,female,2020-09-05_21h00.55.374,torte-2b,2020.1.3,MacIntel,60,13188,0.452,,,,,,,,,,,,,,,,,,,,,,,,,,,,,,,,,,,,,0,9,9,108,1,,,,,,,,,,,,,,,,,,,,,,,,
,,,,,,,,,,,,l,Correct!,,,,,,t3.png,t5.png,2,0.056466,19,female,2020-09-05_21h00.55.374,torte-2b,2020.1.3,MacIntel,60,13188,0.452,,,,,,,,,,,,,,,,,,,,,,,,,,,,,,,,,,,,,0,10,10,44,1,,,,,,,,,,,,,,,,,,,,,,,,
,,,,,,,,,,,,l,Correct!,,,,,,t1.png,t4.png,3,0.0000131,19,female,2020-09-05_21h00.55.374,torte-2b,2020.1.3,MacIntel,60,13188,0.615,,,,,,,,,,,,,,,,,,,,,,,,,,,,,,,,,,,,,0,11,11,92,1,,,,,,,,,,,,,,,,,,,,,,,,
,,,,,,,,,,,,a,Incorrect,,,,,,t5.png,t3.png,2,0.0565,19,female,2020-09-05_21h00.55.374,torte-2b,2020.1.3,MacIntel,60,13188,0.515,,,,,,,,,,,,,,,,,,,,,,,,,,,,,,,,,,,,,0,12,12,39,1,,,,,,,,,,,,,,,,,,,,,,,,
,,,,,,,,,,,,l,Incorrect,,,,,,t2.png,t3.png,1,0.90855,19,female,2020-09-05_21h00.55.374,torte-2b,2020.1.3,MacIntel,60,13188,0.549,,,,,,,,,,,,,,,,,,,,,,,,,,,,,,,,,,,,,0,13,13,65,1,,,,,,,,,,,,,,,,,,,,,,,,
,,,,,,,,,,,,l,Correct!,,,,,,t1.png,t3.png,2,0.056466,19,female,2020-09-05_21h00.55.374,torte-2b,2020.1.3,MacIntel,60,13188,0.455,,,,,,,,,,,,,,,,,,,,,,,,,,,,,,,,,,,,,0,14,14,69,1,,,,,,,,,,,,,,,,,,,,,,,,
,,,,,,,,,,,,a,Correct!,,,,,,t2.png,t1.png,1,0.90025,19,female,2020-09-05_21h00.55.374,torte-2b,2020.1.3,MacIntel,60,13188,0.618,,,,,,,,,,,,,,,,,,,,,,,,,,,,,,,,,,,,,0,15,15,5,1,,,,,,,,,,,,,,,,,,,,,,,,
,,,,,,,,,,,,l,Correct!,,,,,,t1.png,t5.png,4,9.55E-11,19,female,2020-09-05_21h00.55.374,torte-2b,2020.1.3,MacIntel,60,13188,0.507,,,,,,,,,,,,,,,,,,,,,,,,,,,,,,,,,,,,,0,16,16,85,1,,,,,,,,,,,,,,,,,,,,,,,,
,,,,,,,,,,,,l,Correct!,,,,,,t3.png,t5.png,2,0.0565,19,female,2020-09-05_21h00.55.374,torte-2b,2020.1.3,MacIntel,60,13188,0.503,,,,,,,,,,,,,,,,,,,,,,,,,,,,,,,,,,,,,0,17,17,30,1,,,,,,,,,,,,,,,,,,,,,,,,
,,,,,,,,,,,,l,Correct!,,,,,,t1.png,t3.png,2,0.056466,19,female,2020-09-05_21h00.55.374,torte-2b,2020.1.3,MacIntel,60,13188,0.569,,,,,,,,,,,,,,,,,,,,,,,,,,,,,,,,,,,,,0,18,18,99,1,,,,,,,,,,,,,,,,,,,,,,,,
,,,,,,,,,,,,a,Correct!,,,,,,t3.png,t2.png,1,0.90855,19,female,2020-09-05_21h00.55.374,torte-2b,2020.1.3,MacIntel,60,13188,0.486,,,,,,,,,,,,,,,,,,,,,,,,,,,,,,,,,,,,,0,19,19,18,1,,,,,,,,,,,,,,,,,,,,,,,,
,,,,,,,,,,,,l,Incorrect,,,,,,t1.png,t2.png,1,0.90025,19,female,2020-09-05_21h00.55.374,torte-2b,2020.1.3,MacIntel,60,13188,0.431,,,,,,,,,,,,,,,,,,,,,,,,,,,,,,,,,,,,,0,20,20,72,1,,,,,,,,,,,,,,,,,,,,,,,,
,,,,,,,,,,,,a,Correct!,,,,,,t3.png,t2.png,1,0.90855,19,female,2020-09-05_21h00.55.374,torte-2b,2020.1.3,MacIntel,60,13188,0.589,,,,,,,,,,,,,,,,,,,,,,,,,,,,,,,,,,,,,0,21,21,53,1,,,,,,,,,,,,,,,,,,,,,,,,
,,,,,,,,,,,,a,Incorrect,,,,,,t5.png,t2.png,3,0.0000131,19,female,2020-09-05_21h00.55.374,torte-2b,2020.1.3,MacIntel,60,13188,0.515,,,,,,,,,,,,,,,,,,,,,,,,,,,,,,,,,,,,,0,22,22,98,1,,,,,,,,,,,,,,,,,,,,,,,,
,,,,,,,,,,,,l,Incorrect,,,,,,t3.png,t4.png,1,0.909,19,female,2020-09-05_21h00.55.374,torte-2b,2020.1.3,MacIntel,60,13188,0.489,,,,,,,,,,,,,,,,,,,,,,,,,,,,,,,,,,,,,0,23,23,89,1,,,,,,,,,,,,,,,,,,,,,,,,
,,,,,,,,,,,,a,Incorrect,,,,,,t5.png,t2.png,3,0.0000131,19,female,2020-09-05_21h00.55.374,torte-2b,2020.1.3,MacIntel,60,13188,0.584,,,,,,,,,,,,,,,,,,,,,,,,,,,,,,,,,,,,,0,24,24,116,1,,,,,,,,,,,,,,,,,,,,,,,,
,,,,,,,,,,,,l,Incorrect,,,,,,t3.png,t4.png,1,0.90855,19,female,2020-09-05_21h00.55.374,torte-2b,2020.1.3,MacIntel,60,13188,0.501,,,,,,,,,,,,,,,,,,,,,,,,,,,,,,,,,,,,,0,25,25,96,1,,,,,,,,,,,,,,,,,,,,,,,,
,,,,,,,,,,,,a,Incorrect,,,,,,t3.png,t1.png,2,0.056466,19,female,2020-09-05_21h00.55.374,torte-2b,2020.1.3,MacIntel,60,13188,0.521,,,,,,,,,,,,,,,,,,,,,,,,,,,,,,,,,,,,,0,26,26,0,1,,,,,,,,,,,,,,,,,,,,,,,,
,,,,,,,,,,,,a,Incorrect,,,,,,t5.png,t1.png,4,9.55E-11,19,female,2020-09-05_21h00.55.374,torte-2b,2020.1.3,MacIntel,60,13188,0.584,,,,,,,,,,,,,,,,,,,,,,,,,,,,,,,,,,,,,0,27,27,71,1,,,,,,,,,,,,,,,,,,,,,,,,
,,,,,,,,,,,,l,Correct!,,,,,,t2.png,t4.png,2,0.0591,19,female,2020-09-05_21h00.55.374,torte-2b,2020.1.3,MacIntel,60,13188,0.518,,,,,,,,,,,,,,,,,,,,,,,,,,,,,,,,,,,,,0,28,28,15,1,,,,,,,,,,,,,,,,,,,,,,,,
,,,,,,,,,,,,a,Incorrect,,,,,,t4.png,t1.png,3,0.0000131,19,female,2020-09-05_21h00.55.374,torte-2b,2020.1.3,MacIntel,60,13188,0.933,,,,,,,,,,,,,,,,,,,,,,,,,,,,,,,,,,,,,0,29,29,93,1,,,,,,,,,,,,,,,,,,,,,,,,
,,,,,,,,,,,,l,Incorrect,,,,,,t2.png,t2.png,0,0.98115,19,female,2020-09-05_21h00.55.374,torte-2b,2020.1.3,MacIntel,60,13188,0.499,,,,,,,,,,,,,,,,,,,,,,,,,,,,,,,,,,,,,0,30,30,2,1,,,,,,,,,,,,,,,,,,,,,,,,
,,,,,,,,,,,,a,Correct!,,,,,,t2.png,t2.png,0,0.98115,19,female,2020-09-05_21h00.55.374,torte-2b,2020.1.3,MacIntel,60,13188,0.548,,,,,,,,,,,,,,,,,,,,,,,,,,,,,,,,,,,,,0,31,31,59,1,,,,,,,,,,,,,,,,,,,,,,,,
,,,,,,,,,,,,a,Correct!,,,,,,t3.png,t2.png,1,0.90855,19,female,2020-09-05_21h00.55.374,torte-2b,2020.1.3,MacIntel,60,13188,0.597,,,,,,,,,,,,,,,,,,,,,,,,,,,,,,,,,,,,,0,32,32,97,1,,,,,,,,,,,,,,,,,,,,,,,,
,,,,,,,,,,,,a,Incorrect,,,,,,t4.png,t2.png,2,0.059078,19,female,2020-09-05_21h00.55.374,torte-2b,2020.1.3,MacIntel,60,13188,0.438,,,,,,,,,,,,,,,,,,,,,,,,,,,,,,,,,,,,,0,33,33,88,1,,,,,,,,,,,,,,,,,,,,,,,,
,,,,,,,,,,,,a,Incorrect,,,,,,t4.png,t2.png,2,0.059078,19,female,2020-09-05_21h00.55.374,torte-2b,2020.1.3,MacIntel,60,13188,0.463,,,,,,,,,,,,,,,,,,,,,,,,,,,,,,,,,,,,,0,34,34,109,1,,,,,,,,,,,,,,,,,,,,,,,,
,,,,,,,,,,,,l,Correct!,,,,,,t3.png,t5.png,2,0.056466,19,female,2020-09-05_21h00.55.374,torte-2b,2020.1.3,MacIntel,60,13188,0.564,,,,,,,,,,,,,,,,,,,,,,,,,,,,,,,,,,,,,0,35,35,14,1,,,,,,,,,,,,,,,,,,,,,,,,
,,,,,,,,,,,,l,Incorrect,,,,,,t1.png,t1.png,0,0.97829,19,female,2020-09-05_21h00.55.374,torte-2b,2020.1.3,MacIntel,60,13188,0.554,,,,,,,,,,,,,,,,,,,,,,,,,,,,,,,,,,,,,0,36,36,9,1,,,,,,,,,,,,,,,,,,,,,,,,
,,,,,,,,,,,,l,Correct!,,,,,,t1.png,t4.png,3,0.0000131,19,female,2020-09-05_21h00.55.374,torte-2b,2020.1.3,MacIntel,60,13188,0.548,,,,,,,,,,,,,,,,,,,,,,,,,,,,,,,,,,,,,0,37,37,50,1,,,,,,,,,,,,,,,,,,,,,,,,
,,,,,,,,,,,,a,Incorrect,,,,,,t5.png,t1.png,4,9.55E-11,19,female,2020-09-05_21h00.55.374,torte-2b,2020.1.3,MacIntel,60,13188,0.488,,,,,,,,,,,,,,,,,,,,,,,,,,,,,,,,,,,,,0,38,38,102,1,,,,,,,,,,,,,,,,,,,,,,,,
,,,,,,,,,,,,a,Correct!,,,,,,t5.png,t4.png,1,0.90025,19,female,2020-09-05_21h00.55.374,torte-2b,2020.1.3,MacIntel,60,13188,0.924,,,,,,,,,,,,,,,,,,,,,,,,,,,,,,,,,,,,,0,39,39,27,1,,,,,,,,,,,,,,,,,,,,,,,,
,,,,,,,,,,,,l,Incorrect,,,,,,t5.png,t5.png,0,0.97829,19,female,2020-09-05_21h00.55.374,torte-2b,2020.1.3,MacIntel,60,13188,0.635,,,,,,,,,,,,,,,,,,,,,,,,,,,,,,,,,,,,,0,40,40,73,1,,,,,,,,,,,,,,,,,,,,,,,,
,,,,,,,,,,,,a,Correct!,,,,,,t4.png,t3.png,1,0.90855,19,female,2020-09-05_21h00.55.374,torte-2b,2020.1.3,MacIntel,60,13188,0.504,,,,,,,,,,,,,,,,,,,,,,,,,,,,,,,,,,,,,0,41,41,35,1,,,,,,,,,,,,,,,,,,,,,,,,
,,,,,,,,,,,,l,Incorrect,,,,,,t2.png,t2.png,0,0.98115,19,female,2020-09-05_21h00.55.374,torte-2b,2020.1.3,MacIntel,60,13188,0.532,,,,,,,,,,,,,,,,,,,,,,,,,,,,,,,,,,,,,0,42,42,7,1,,,,,,,,,,,,,,,,,,,,,,,,
,,,,,,,,,,,,l,Correct!,,,,,,t3.png,t5.png,2,0.0565,19,female,2020-09-05_21h00.55.374,torte-2b,2020.1.3,MacIntel,60,13188,0.549,,,,,,,,,,,,,,,,,,,,,,,,,,,,,,,,,,,,,0,43,43,83,1,,,,,,,,,,,,,,,,,,,,,,,,
,,,,,,,,,,,,a,Correct!,,,,,,t3.png,t2.png,1,0.909,19,female,2020-09-05_21h00.55.374,torte-2b,2020.1.3,MacIntel,60,13188,0.565,,,,,,,,,,,,,,,,,,,,,,,,,,,,,,,,,,,,,0,44,44,3,1,,,,,,,,,,,,,,,,,,,,,,,,
,,,,,,,,,,,,a,Correct!,,,,,,t2.png,t1.png,1,0.90025,19,female,2020-09-05_21h00.55.374,torte-2b,2020.1.3,MacIntel,60,13188,0.67,,,,,,,,,,,,,,,,,,,,,,,,,,,,,,,,,,,,,0,45,45,4,1,,,,,,,,,,,,,,,,,,,,,,,,
,,,,,,,,,,,,l,Incorrect,,,,,,t1.png,t1.png,0,0.978,19,female,2020-09-05_21h00.55.374,torte-2b,2020.1.3,MacIntel,60,13188,0.701,,,,,,,,,,,,,,,,,,,,,,,,,,,,,,,,,,,,,0,46,46,54,1,,,,,,,,,,,,,,,,,,,,,,,,
,,,,,,,,,,,,l,Correct!,,,,,,t1.png,t3.png,2,0.056466,19,female,2020-09-05_21h00.55.374,torte-2b,2020.1.3,MacIntel,60,13188,0.767,,,,,,,,,,,,,,,,,,,,,,,,,,,,,,,,,,,,,0,47,47,87,1,,,,,,,,,,,,,,,,,,,,,,,,
,,,,,,,,,,,,a,Correct!,,,,,,t5.png,t4.png,1,0.90025,19,female,2020-09-05_21h00.55.374,torte-2b,2020.1.3,MacIntel,60,13188,0.764,,,,,,,,,,,,,,,,,,,,,,,,,,,,,,,,,,,,,0,48,48,26,1,,,,,,,,,,,,,,,,,,,,,,,,
,,,,,,,,,,,,a,Incorrect,,,,,,t5.png,t3.png,2,0.056466,19,female,2020-09-05_21h00.55.374,torte-2b,2020.1.3,MacIntel,60,13188,0.654,,,,,,,,,,,,,,,,,,,,,,,,,,,,,,,,,,,,,0,49,49,38,1,,,,,,,,,,,,,,,,,,,,,,,,
,,,,,,,,,,,,a,Incorrect,,,,,,t4.png,t1.png,3,0.0000131,19,female,2020-09-05_21h00.55.374,torte-2b,2020.1.3,MacIntel,60,13188,0.618,,,,,,,,,,,,,,,,,,,,,,,,,,,,,,,,,,,,,0,50,50,13,1,,,,,,,,,,,,,,,,,,,,,,,,
,,,,,,,,,,,,a,Correct!,,,,,,t5.png,t4.png,1,0.9,19,female,2020-09-05_21h00.55.374,torte-2b,2020.1.3,MacIntel,60,13188,0.57,,,,,,,,,,,,,,,,,,,,,,,,,,,,,,,,,,,,,0,51,51,49,1,,,,,,,,,,,,,,,,,,,,,,,,
,,,,,,,,,,,,l,Incorrect,,,,,,t4.png,t5.png,1,0.90025,19,female,2020-09-05_21h00.55.374,torte-2b,2020.1.3,MacIntel,60,13188,0.634,,,,,,,,,,,,,,,,,,,,,,,,,,,,,,,,,,,,,0,52,52,47,1,,,,,,,,,,,,,,,,,,,,,,,,
,,,,,,,,,,,,l,Correct!,,,,,,t3.png,t5.png,2,0.056466,19,female,2020-09-05_21h00.55.374,torte-2b,2020.1.3,MacIntel,60,13188,0.531,,,,,,,,,,,,,,,,,,,,,,,,,,,,,,,,,,,,,0,53,53,6,1,,,,,,,,,,,,,,,,,,,,,,,,
,,,,,,,,,,,,a,Incorrect,,,,,,t3.png,t1.png,2,0.056466,19,female,2020-09-05_21h00.55.374,torte-2b,2020.1.3,MacIntel,60,13188,0.934,,,,,,,,,,,,,,,,,,,,,,,,,,,,,,,,,,,,,0,54,54,29,1,,,,,,,,,,,,,,,,,,,,,,,,
,,,,,,,,,,,,l,Incorrect,,,,,,t4.png,t4.png,0,0.98115,19,female,2020-09-05_21h00.55.374,torte-2b,2020.1.3,MacIntel,60,13188,0.766,,,,,,,,,,,,,,,,,,,,,,,,,,,,,,,,,,,,,0,55,55,21,1,,,,,,,,,,,,,,,,,,,,,,,,
,,,,,,,,,,,,l,Incorrect,,,,,,t1.png,t2.png,1,0.90025,19,female,2020-09-05_21h00.55.374,torte-2b,2020.1.3,MacIntel,60,13188,0.503,,,,,,,,,,,,,,,,,,,,,,,,,,,,,,,,,,,,,0,56,56,112,1,,,,,,,,,,,,,,,,,,,,,,,,
,,,,,,,,,,,,a,Correct!,,,,,,t5.png,t5.png,0,0.97829,19,female,2020-09-05_21h00.55.374,torte-2b,2020.1.3,MacIntel,60,13188,0.602,,,,,,,,,,,,,,,,,,,,,,,,,,,,,,,,,,,,,0,57,57,25,1,,,,,,,,,,,,,,,,,,,,,,,,
,,,,,,,,,,,,l,Incorrect,,,,,,t1.png,t1.png,0,0.978,19,female,2020-09-05_21h00.55.374,torte-2b,2020.1.3,MacIntel,60,13188,0.518,,,,,,,,,,,,,,,,,,,,,,,,,,,,,,,,,,,,,0,58,58,28,1,,,,,,,,,,,,,,,,,,,,,,,,
,,,,,,,,,,,,a,Incorrect,,,,,,t4.png,t1.png,3,0.0000131,19,female,2020-09-05_21h00.55.374,torte-2b,2020.1.3,MacIntel,60,13188,0.486,,,,,,,,,,,,,,,,,,,,,,,,,,,,,,,,,,,,,0,59,59,61,1,,,,,,,,,,,,,,,,,,,,,,,,
,,,,,,,,,,,,l,Incorrect,,,,,,t2.png,t2.png,0,0.981,19,female,2020-09-05_21h00.55.374,torte-2b,2020.1.3,MacIntel,60,13188,0.421,,,,,,,,,,,,,,,,,,,,,,,,,,,,,,,,,,,,,0,60,60,101,1,,,,,,,,,,,,,,,,,,,,,,,,
,,,,,,,,,,,,a,Correct!,,,,,,t5.png,t4.png,1,0.90025,19,female,2020-09-05_21h00.55.374,torte-2b,2020.1.3,MacIntel,60,13188,0.421,,,,,,,,,,,,,,,,,,,,,,,,,,,,,,,,,,,,,0,61,61,34,1,,,,,,,,,,,,,,,,,,,,,,,,
,,,,,,,,,,,,a,Correct!,,,,,,t4.png,t3.png,1,0.909,19,female,2020-09-05_21h00.55.374,torte-2b,2020.1.3,MacIntel,60,13188,0.498,,,,,,,,,,,,,,,,,,,,,,,,,,,,,,,,,,,,,0,62,62,20,1,,,,,,,,,,,,,,,,,,,,,,,,
,,,,,,,,,,,,a,Incorrect,,,,,,t5.png,t1.png,4,9.55E-11,19,female,2020-09-05_21h00.55.374,torte-2b,2020.1.3,MacIntel,60,13188,0.386,,,,,,,,,,,,,,,,,,,,,,,,,,,,,,,,,,,,,0,63,63,43,1,,,,,,,,,,,,,,,,,,,,,,,,
,,,,,,,,,,,,l,Correct!,,,,,,t1.png,t5.png,4,9.55E-11,19,female,2020-09-05_21h00.55.374,torte-2b,2020.1.3,MacIntel,60,13188,0.431,,,,,,,,,,,,,,,,,,,,,,,,,,,,,,,,,,,,,0,64,64,41,1,,,,,,,,,,,,,,,,,,,,,,,,
,,,,,,,,,,,,l,Correct!,,,,,,t2.png,t5.png,3,0.0000131,19,female,2020-09-05_21h00.55.374,torte-2b,2020.1.3,MacIntel,60,13188,0.419,,,,,,,,,,,,,,,,,,,,,,,,,,,,,,,,,,,,,0,65,65,8,1,,,,,,,,,,,,,,,,,,,,,,,,
,,,,,,,,,,,,l,Correct!,,,,,,t2.png,t5.png,3,0.0000131,19,female,2020-09-05_21h00.55.374,torte-2b,2020.1.3,MacIntel,60,13188,0.431,,,,,,,,,,,,,,,,,,,,,,,,,,,,,,,,,,,,,0,66,66,95,1,,,,,,,,,,,,,,,,,,,,,,,,
,,,,,,,,,,,,a,Incorrect,,,,,,t4.png,t1.png,3,0.0000131,19,female,2020-09-05_21h00.55.374,torte-2b,2020.1.3,MacIntel,60,13188,0.399,,,,,,,,,,,,,,,,,,,,,,,,,,,,,,,,,,,,,0,67,67,48,1,,,,,,,,,,,,,,,,,,,,,,,,
,,,,,,,,,,,,l,Correct!,,,,,,t1.png,t4.png,3,0.0000131,19,female,2020-09-05_21h00.55.374,torte-2b,2020.1.3,MacIntel,60,13188,0.419,,,,,,,,,,,,,,,,,,,,,,,,,,,,,,,,,,,,,0,68,68,107,1,,,,,,,,,,,,,,,,,,,,,,,,
,,,,,,,,,,,,l,Incorrect,,,,,,t2.png,t3.png,1,0.90855,19,female,2020-09-05_21h00.55.374,torte-2b,2020.1.3,MacIntel,60,13188,0.481,,,,,,,,,,,,,,,,,,,,,,,,,,,,,,,,,,,,,0,69,69,10,1,,,,,,,,,,,,,,,,,,,,,,,,
,,,,,,,,,,,,a,Incorrect,,,,,,t3.png,t1.png,2,0.056466,19,female,2020-09-05_21h00.55.374,torte-2b,2020.1.3,MacIntel,60,13188,0.417,,,,,,,,,,,,,,,,,,,,,,,,,,,,,,,,,,,,,0,70,70,32,1,,,,,,,,,,,,,,,,,,,,,,,,
,,,,,,,,,,,,a,Incorrect,,,,,,t5.png,t2.png,3,0.0000131,19,female,2020-09-05_21h00.55.374,torte-2b,2020.1.3,MacIntel,60,13188,0.382,,,,,,,,,,,,,,,,,,,,,,,,,,,,,,,,,,,,,0,71,71,119,1,,,,,,,,,,,,,,,,,,,,,,,,
,,,,,,,,,,,,a,Incorrect,,,,,,t5.png,t2.png,3,0.0000131,19,female,2020-09-05_21h00.55.374,torte-2b,2020.1.3,MacIntel,60,13188,0.416,,,,,,,,,,,,,,,,,,,,,,,,,,,,,,,,,,,,,0,72,72,91,1,,,,,,,,,,,,,,,,,,,,,,,,
,,,,,,,,,,,,l,Correct!,,,,,,t2.png,t5.png,3,0.0000131,19,female,2020-09-05_21h00.55.374,torte-2b,2020.1.3,MacIntel,60,13188,0.414,,,,,,,,,,,,,,,,,,,,,,,,,,,,,,,,,,,,,0,73,73,40,1,,,,,,,,,,,,,,,,,,,,,,,,
,,,,,,,,,,,,l,Correct!,,,,,,t1.png,t2.png,1,0.90025,19,female,2020-09-05_21h00.55.374,torte-2b,2020.1.3,MacIntel,60,13188,0.455,,,,,,,,,,,,,,,,,,,,,,,,,,,,,,,,,,,,,0,74,74,33,1,,,,,,,,,,,,,,,,,,,,,,,,
,,,,,,,,,,,,a,Correct!,,,,,,t3.png,t4.png,1,0.909,19,female,2020-09-05_21h00.55.374,torte-2b,2020.1.3,MacIntel,60,13188,0.472,,,,,,,,,,,,,,,,,,,,,,,,,,,,,,,,,,,,,0,75,75,106,1,,,,,,,,,,,,,,,,,,,,,,,,
,,,,,,,,,,,,a,Correct!,,,,,,t4.png,t4.png,0,0.98115,19,female,2020-09-05_21h00.55.374,torte-2b,2020.1.3,MacIntel,60,13188,0.567,,,,,,,,,,,,,,,,,,,,,,,,,,,,,,,,,,,,,0,76,76,90,1,,,,,,,,,,,,,,,,,,,,,,,,
,,,,,,,,,,,,l,Correct!,,,,,,t1.png,t3.png,2,0.056466,19,female,2020-09-05_21h00.55.374,torte-2b,2020.1.3,MacIntel,60,13188,0.464,,,,,,,,,,,,,,,,,,,,,,,,,,,,,,,,,,,,,0,77,77,60,1,,,,,,,,,,,,,,,,,,,,,,,,
,,,,,,,,,,,,l,Correct!,,,,,,t1.png,t4.png,3,0.0000131,19,female,2020-09-05_21h00.55.374,torte-2b,2020.1.3,MacIntel,60,13188,0.398,,,,,,,,,,,,,,,,,,,,,,,,,,,,,,,,,,,,,0,78,78,17,1,,,,,,,,,,,,,,,,,,,,,,,,
,,,,,,,,,,,,l,Incorrect,,,,,,t3.png,t4.png,1,0.90855,19,female,2020-09-05_21h00.55.374,torte-2b,2020.1.3,MacIntel,60,13188,0.422,,,,,,,,,,,,,,,,,,,,,,,,,,,,,,,,,,,,,0,79,79,84,1,,,,,,,,,,,,,,,,,,,,,,,,
,,,,,,,,,,,,l,Correct!,,,,,,t2.png,t4.png,2,0.059078,19,female,2020-09-05_21h00.55.374,torte-2b,2020.1.3,MacIntel,60,13188,0.416,,,,,,,,,,,,,,,,,,,,,,,,,,,,,,,,,,,,,0,80,80,11,1,,,,,,,,,,,,,,,,,,,,,,,,
,,,,,,,,,,,,a,Incorrect,,,,,,t3.png,t1.png,2,0.0565,19,female,2020-09-05_21h00.55.374,torte-2b,2020.1.3,MacIntel,60,13188,0.482,,,,,,,,,,,,,,,,,,,,,,,,,,,,,,,,,,,,,0,81,81,31,1,,,,,,,,,,,,,,,,,,,,,,,,
,,,,,,,,,,,,l,Incorrect,,,,,,t2.png,t2.png,0,0.98115,19,female,2020-09-05_21h00.55.374,torte-2b,2020.1.3,MacIntel,60,13188,0.42,,,,,,,,,,,,,,,,,,,,,,,,,,,,,,,,,,,,,0,82,82,57,1,,,,,,,,,,,,,,,,,,,,,,,,
,,,,,,,,,,,,l,Incorrect,,,,,,t3.png,t4.png,1,0.909,19,female,2020-09-05_21h00.55.374,torte-2b,2020.1.3,MacIntel,60,13188,0.472,,,,,,,,,,,,,,,,,,,,,,,,,,,,,,,,,,,,,0,83,83,82,1,,,,,,,,,,,,,,,,,,,,,,,,
,,,,,,,,,,,,l,Incorrect,,,,,,t2.png,t3.png,1,0.909,19,female,2020-09-05_21h00.55.374,torte-2b,2020.1.3,MacIntel,60,13188,0.47,,,,,,,,,,,,,,,,,,,,,,,,,,,,,,,,,,,,,0,84,84,74,1,,,,,,,,,,,,,,,,,,,,,,,,
,,,,,,,,,,,,l,Incorrect,,,,,,t4.png,t4.png,0,0.98115,19,female,2020-09-05_21h00.55.374,torte-2b,2020.1.3,MacIntel,60,13188,0.455,,,,,,,,,,,,,,,,,,,,,,,,,,,,,,,,,,,,,0,85,85,80,1,,,,,,,,,,,,,,,,,,,,,,,,
,,,,,,,,,,,,a,Correct!,,,,,,t4.png,t3.png,1,0.90855,19,female,2020-09-05_21h00.55.374,torte-2b,2020.1.3,MacIntel,60,13188,0.521,,,,,,,,,,,,,,,,,,,,,,,,,,,,,,,,,,,,,0,86,86,75,1,,,,,,,,,,,,,,,,,,,,,,,,
,,,,,,,,,,,,a,Incorrect,,,,,,t5.png,t3.png,2,0.056466,19,female,2020-09-05_21h00.55.374,torte-2b,2020.1.3,MacIntel,60,13188,0.491,,,,,,,,,,,,,,,,,,,,,,,,,,,,,,,,,,,,,0,87,87,56,1,,,,,,,,,,,,,,,,,,,,,,,,
,,,,,,,,,,,,l,Correct!,,,,,,t1.png,t4.png,3,0.0000131,19,female,2020-09-05_21h00.55.374,torte-2b,2020.1.3,MacIntel,60,13188,0.415,,,,,,,,,,,,,,,,,,,,,,,,,,,,,,,,,,,,,0,88,88,81,1,,,,,,,,,,,,,,,,,,,,,,,,
,,,,,,,,,,,,a,Correct!,,,,,,t2.png,t1.png,1,0.90025,19,female,2020-09-05_21h00.55.374,torte-2b,2020.1.3,MacIntel,60,13188,0.472,,,,,,,,,,,,,,,,,,,,,,,,,,,,,,,,,,,,,0,89,89,62,1,,,,,,,,,,,,,,,,,,,,,,,,
,,,,,,,,,,,,a,Incorrect,,,,,,t5.png,t3.png,2,0.056466,19,female,2020-09-05_21h00.55.374,torte-2b,2020.1.3,MacIntel,60,13188,0.449,,,,,,,,,,,,,,,,,,,,,,,,,,,,,,,,,,,,,0,90,90,114,1,,,,,,,,,,,,,,,,,,,,,,,,
,,,,,,,,,,,,a,Correct!,,,,,,t4.png,t3.png,1,0.90855,19,female,2020-09-05_21h00.55.374,torte-2b,2020.1.3,MacIntel,60,13188,0.417,,,,,,,,,,,,,,,,,,,,,,,,,,,,,,,,,,,,,0,91,91,45,1,,,,,,,,,,,,,,,,,,,,,,,,
,,,,,,,,,,,,l,Correct!,,,,,,t2.png,t4.png,2,0.059078,19,female,2020-09-05_21h00.55.374,torte-2b,2020.1.3,MacIntel,60,13188,0.439,,,,,,,,,,,,,,,,,,,,,,,,,,,,,,,,,,,,,0,92,92,37,1,,,,,,,,,,,,,,,,,,,,,,,,
,,,,,,,,,,,,a,Correct!,,,,,,t5.png,t5.png,0,0.97829,19,female,2020-09-05_21h00.55.374,torte-2b,2020.1.3,MacIntel,60,13188,0.57,,,,,,,,,,,,,,,,,,,,,,,,,,,,,,,,,,,,,0,93,93,94,1,,,,,,,,,,,,,,,,,,,,,,,,
,,,,,,,,,,,,l,Correct!,,,,,,t1.png,t3.png,2,0.056466,19,female,2020-09-05_21h00.55.374,torte-2b,2020.1.3,MacIntel,60,13188,0.418,,,,,,,,,,,,,,,,,,,,,,,,,,,,,,,,,,,,,0,94,94,63,1,,,,,,,,,,,,,,,,,,,,,,,,
,,,,,,,,,,,,a,Incorrect,,,,,,t5.png,t1.png,4,9.55E-11,19,female,2020-09-05_21h00.55.374,torte-2b,2020.1.3,MacIntel,60,13188,0.399,,,,,,,,,,,,,,,,,,,,,,,,,,,,,,,,,,,,,0,95,95,22,1,,,,,,,,,,,,,,,,,,,,,,,,
,,,,,,,,,,,,l,Correct!,,,,,,t1.png,t5.png,4,9.55E-11,19,female,2020-09-05_21h00.55.374,torte-2b,2020.1.3,MacIntel,60,13188,0.404,,,,,,,,,,,,,,,,,,,,,,,,,,,,,,,,,,,,,0,96,96,12,1,,,,,,,,,,,,,,,,,,,,,,,,
,,,,,,,,,,,,a,Correct!,,,,,,t5.png,t5.png,0,0.978,19,female,2020-09-05_21h00.55.374,torte-2b,2020.1.3,MacIntel,60,13188,0.387,,,,,,,,,,,,,,,,,,,,,,,,,,,,,,,,,,,,,0,97,97,117,1,,,,,,,,,,,,,,,,,,,,,,,,
,,,,,,,,,,,,l,Correct!,,,,,,t1.png,t5.png,4,9.55E-11,19,female,2020-09-05_21h00.55.374,torte-2b,2020.1.3,MacIntel,60,13188,0.404,,,,,,,,,,,,,,,,,,,,,,,,,,,,,,,,,,,,,0,98,98,16,1,,,,,,,,,,,,,,,,,,,,,,,,
,,,,,,,,,,,,l,Incorrect,,,,,,t4.png,t5.png,1,0.90025,19,female,2020-09-05_21h00.55.374,torte-2b,2020.1.3,MacIntel,60,13188,0.45,,,,,,,,,,,,,,,,,,,,,,,,,,,,,,,,,,,,,0,99,99,58,1,,,,,,,,,,,,,,,,,,,,,,,,
,,,,,,,,,,,,l,Correct!,,,,,,t2.png,t4.png,2,0.059078,19,female,2020-09-05_21h00.55.374,torte-2b,2020.1.3,MacIntel,60,13188,0.531,,,,,,,,,,,,,,,,,,,,,,,,,,,,,,,,,,,,,0,100,100,24,1,,,,,,,,,,,,,,,,,,,,,,,,
,,,,,,,,,,,,a,Correct!,,,,,,t4.png,t3.png,1,0.909,19,female,2020-09-05_21h00.55.374,torte-2b,2020.1.3,MacIntel,60,13188,0.482,,,,,,,,,,,,,,,,,,,,,,,,,,,,,,,,,,,,,0,101,101,46,1,,,,,,,,,,,,,,,,,,,,,,,,
,,,,,,,,,,,,a,Correct!,,,,,,t2.png,t1.png,1,0.90025,19,female,2020-09-05_21h00.55.374,torte-2b,2020.1.3,MacIntel,60,13188,0.617,,,,,,,,,,,,,,,,,,,,,,,,,,,,,,,,,,,,,0,102,102,19,1,,,,,,,,,,,,,,,,,,,,,,,,
,,,,,,,,,,,,a,Incorrect,,,,,,t4.png,t1.png,3,0.0000131,19,female,2020-09-05_21h00.55.374,torte-2b,2020.1.3,MacIntel,60,13188,0.433,,,,,,,,,,,,,,,,,,,,,,,,,,,,,,,,,,,,,0,103,103,42,1,,,,,,,,,,,,,,,,,,,,,,,,
,,,,,,,,,,,,l,Incorrect,,,,,,t1.png,t2.png,1,0.90025,19,female,2020-09-05_21h00.55.374,torte-2b,2020.1.3,MacIntel,60,13188,0.416,,,,,,,,,,,,,,,,,,,,,,,,,,,,,,,,,,,,,0,104,104,105,1,,,,,,,,,,,,,,,,,,,,,,,,
,,,,,,,,,,,,l,Incorrect,,,,,,t4.png,t5.png,1,0.90025,19,female,2020-09-05_21h00.55.374,torte-2b,2020.1.3,MacIntel,60,13188,0.548,,,,,,,,,,,,,,,,,,,,,,,,,,,,,,,,,,,,,0,105,105,103,1,,,,,,,,,,,,,,,,,,,,,,,,
,,,,,,,,,,,,l,Incorrect,,,,,,t4.png,t5.png,1,0.90025,19,female,2020-09-05_21h00.55.374,torte-2b,2020.1.3,MacIntel,60,13188,0.449,,,,,,,,,,,,,,,,,,,,,,,,,,,,,,,,,,,,,0,106,106,113,1,,,,,,,,,,,,,,,,,,,,,,,,
,,,,,,,,,,,,a,Incorrect,,,,,,t4.png,t2.png,2,0.059078,19,female,2020-09-05_21h00.55.374,torte-2b,2020.1.3,MacIntel,60,13188,0.419,,,,,,,,,,,,,,,,,,,,,,,,,,,,,,,,,,,,,0,107,107,110,1,,,,,,,,,,,,,,,,,,,,,,,,
,,,,,,,,,,,,a,Incorrect,,,,,,t3.png,t1.png,2,0.056466,19,female,2020-09-05_21h00.55.374,torte-2b,2020.1.3,MacIntel,60,13188,0.468,,,,,,,,,,,,,,,,,,,,,,,,,,,,,,,,,,,,,0,108,108,64,1,,,,,,,,,,,,,,,,,,,,,,,,
,,,,,,,,,,,,l,Incorrect,,,,,,t1.png,t1.png,0,0.97829,19,female,2020-09-05_21h00.55.374,torte-2b,2020.1.3,MacIntel,60,13188,0.447,,,,,,,,,,,,,,,,,,,,,,,,,,,,,,,,,,,,,0,109,109,78,1,,,,,,,,,,,,,,,,,,,,,,,,
,,,,,,,,,,,,l,Incorrect,,,,,,t5.png,t5.png,0,0.97829,19,female,2020-09-05_21h00.55.374,torte-2b,2020.1.3,MacIntel,60,13188,1.118,,,,,,,,,,,,,,,,,,,,,,,,,,,,,,,,,,,,,0,110,110,70,1,,,,,,,,,,,,,,,,,,,,,,,,
,,,,,,,,,,,,l,Incorrect,,,,,,t2.png,t3.png,1,0.90855,19,female,2020-09-05_21h00.55.374,torte-2b,2020.1.3,MacIntel,60,13188,0.837,,,,,,,,,,,,,,,,,,,,,,,,,,,,,,,,,,,,,0,111,111,68,1,,,,,,,,,,,,,,,,,,,,,,,,
,,,,,,,,,,,,l,Incorrect,,,,,,t4.png,t4.png,0,0.98115,19,female,2020-09-05_21h00.55.374,torte-2b,2020.1.3,MacIntel,60,13188,0.984,,,,,,,,,,,,,,,,,,,,,,,,,,,,,,,,,,,,,0,112,112,52,1,,,,,,,,,,,,,,,,,,,,,,,,
,,,,,,,,,,,,a,Incorrect,,,,,,t5.png,t1.png,4,9.55E-11,19,female,2020-09-05_21h00.55.374,torte-2b,2020.1.3,MacIntel,60,13188,0.733,,,,,,,,,,,,,,,,,,,,,,,,,,,,,,,,,,,,,0,113,113,100,1,,,,,,,,,,,,,,,,,,,,,,,,
,,,,,,,,,,,,l,Incorrect,,,,,,t4.png,t4.png,0,0.98115,19,female,2020-09-05_21h00.55.374,torte-2b,2020.1.3,MacIntel,60,13188,0.734,,,,,,,,,,,,,,,,,,,,,,,,,,,,,,,,,,,,,0,114,114,79,1,,,,,,,,,,,,,,,,,,,,,,,,
,,,,,,,,,,,,l,Incorrect,,,,,,t2.png,t3.png,1,0.90855,19,female,2020-09-05_21h00.55.374,torte-2b,2020.1.3,MacIntel,60,13188,1.24,,,,,,,,,,,,,,,,,,,,,,,,,,,,,,,,,,,,,0,115,115,111,1,,,,,,,,,,,,,,,,,,,,,,,,
,,,,,,,,,,,,l,Correct!,,,,,,t2.png,t4.png,2,0.059078,19,female,2020-09-05_21h00.55.374,torte-2b,2020.1.3,MacIntel,60,13188,0.539,,,,,,,,,,,,,,,,,,,,,,,,,,,,,,,,,,,,,0,116,116,77,1,,,,,,,,,,,,,,,,,,,,,,,,
,,,,,,,,,,,,a,Incorrect,,,,,,t5.png,t2.png,3,0.0000131,19,female,2020-09-05_21h00.55.374,torte-2b,2020.1.3,MacIntel,60,13188,0.456,,,,,,,,,,,,,,,,,,,,,,,,,,,,,,,,,,,,,0,117,117,51,1,,,,,,,,,,,,,,,,,,,,,,,,
,,,,,,,,,,,,l,Correct!,,,,,,t1.png,t2.png,1,0.9,19,female,2020-09-05_21h00.55.374,torte-2b,2020.1.3,MacIntel,60,13188,0.65,,,,,,,,,,,,,,,,,,,,,,,,,,,,,,,,,,,,,0,118,118,1,1,,,,,,,,,,,,,,,,,,,,,,,,
,,,,,,,,,,,,l,Incorrect,,,,,,t5.png,t4.png,1,0.9,19,female,2020-09-05_21h00.55.374,torte-2b,2020.1.3,MacIntel,60,13188,0.704,,,,,,,,,,,,,,,,,,,,,,,,,,,,,,,,,,,,,0,119,119,76,1,,,,,,,,,,,,,,,,,,,,,,,,
,,,,,,,,,,,,,,,,,,,,,,,19,female,2020-09-05_21h00.55.374,torte-2b,2020.1.3,MacIntel,60,13188,,space,125.845,,,,,,,,,,,,,,,,,,,,,,,,,,,,,,,,,,,,,,,,-31,48,1,0,0,s3,-23,82,1,0,0,t1,129,-99,1,0,0,proceed,space,0.587,space,0.567,space,1.682
