key_resp_8.keys,key_resp_8.rt,key_resp_9.keys,key_resp_9.rt,key_resp_10.keys,key_resp_10.rt,key_resp_11.keys,key_resp_11.rt,key_resp_2.keys,key_resp_2.rt,key_resp_3.keys,key_resp_3.rt,key_resp.keys,key_resp.rt,Feedback,train.thisRepN,train.thisTrialN,train.thisN,train.thisIndex,train.ran,torta_sx,torta_dx,difference,probability,age,gender,date,expName,psychopyVersion,OS,frameRate,participant,key_resp_15.keys,key_resp_15.rt,key_resp_6.keys,key_resp_6.rt,test1.thisRepN,test1.thisTrialN,test1.thisN,test1.thisIndex,test1.ran,key_resp_4.keys,key_resp_4.rt,key_resp_5.keys,back1.thisRepN,back1.thisTrialN,back1.thisN,back1.thisIndex,back1.ran,letter,key_resp_5.rt,back2.thisRepN,back2.thisTrialN,back2.thisN,back2.thisIndex,back2.ran,back3.thisRepN,back3.thisTrialN,back3.thisN,back3.thisIndex,back3.ran,back4.thisRepN,back4.thisTrialN,back4.thisN,back4.thisIndex,back4.ran,key_resp_7.keys,key_resp_7.rt,test2.thisRepN,test2.thisTrialN,test2.thisN,test2.thisIndex,test2.ran,mouse.x,mouse.y,mouse.leftButton,mouse.midButton,mouse.rightButton,mouse.clicked_name,mouse_2.x,mouse_2.y,mouse_2.leftButton,mouse_2.midButton,mouse_2.rightButton,mouse_2.clicked_name,mouse_3.x,mouse_3.y,mouse_3.leftButton,mouse_3.midButton,mouse_3.rightButton,mouse_3.clicked_name,key_resp_12.keys,key_resp_12.rt,key_resp_13.keys,key_resp_13.rt,key_resp_14.keys,key_resp_14.rt
space,0.97513,space,1.42983,space,1.414335,space,1.06338,space,3.23575,down,75.24198,a,2.38382,Correct!,0,0,0,91,1,t5.png,t4.png,1,0.90025,21,female,2020-07-27_19h48.20.080,torte-2b,2020.1.3,Win32,60,13193,,,,,,,,,,,,,,,,,,,,,,,,,,,,,,,,,,,,,,,,,,,,,,,,,,,,,,,,,,,,,,,,,
,,,,,,,,,,,,a,1.1309,Correct!,0,1,1,20,1,t5.png,t5.png,0,0.97829,21,female,2020-07-27_19h48.20.080,torte-2b,2020.1.3,Win32,60,13193,,,,,,,,,,,,,,,,,,,,,,,,,,,,,,,,,,,,,,,,,,,,,,,,,,,,,,,,,,,,,,,,,
,,,,,,,,,,,,l,1.70468,Correct!,0,2,2,76,1,t4.png,t1.png,3,0.059078,21,female,2020-07-27_19h48.20.080,torte-2b,2020.1.3,Win32,60,13193,,,,,,,,,,,,,,,,,,,,,,,,,,,,,,,,,,,,,,,,,,,,,,,,,,,,,,,,,,,,,,,,,
,,,,,,,,,,,,l,0.884125,Correct!,0,3,3,43,1,t3.png,t1.png,2,0.056466,21,female,2020-07-27_19h48.20.080,torte-2b,2020.1.3,Win32,60,13193,,,,,,,,,,,,,,,,,,,,,,,,,,,,,,,,,,,,,,,,,,,,,,,,,,,,,,,,,,,,,,,,,
,,,,,,,,,,,,l,2.16578,Correct!,0,4,4,50,1,t1.png,t5.png,4,9.55E-11,21,female,2020-07-27_19h48.20.080,torte-2b,2020.1.3,Win32,60,13193,,,,,,,,,,,,,,,,,,,,,,,,,,,,,,,,,,,,,,,,,,,,,,,,,,,,,,,,,,,,,,,,,
,,,,,,,,,,,,l,1.46923,Correct!,0,5,5,27,1,t1.png,t5.png,4,9.55E-11,21,female,2020-07-27_19h48.20.080,torte-2b,2020.1.3,Win32,60,13193,,,,,,,,,,,,,,,,,,,,,,,,,,,,,,,,,,,,,,,,,,,,,,,,,,,,,,,,,,,,,,,,,
,,,,,,,,,,,,a,0.536805,Correct!,0,6,6,65,1,t5.png,t5.png,0,0.97829,21,female,2020-07-27_19h48.20.080,torte-2b,2020.1.3,Win32,60,13193,,,,,,,,,,,,,,,,,,,,,,,,,,,,,,,,,,,,,,,,,,,,,,,,,,,,,,,,,,,,,,,,,
,,,,,,,,,,,,l,0.805545,Correct!,0,7,7,16,1,t1.png,t5.png,4,9.55E-11,21,female,2020-07-27_19h48.20.080,torte-2b,2020.1.3,Win32,60,13193,,,,,,,,,,,,,,,,,,,,,,,,,,,,,,,,,,,,,,,,,,,,,,,,,,,,,,,,,,,,,,,,,
,,,,,,,,,,,,l,1.68856,Correct!,0,8,8,17,1,t4.png,t1.png,3,0.059078,21,female,2020-07-27_19h48.20.080,torte-2b,2020.1.3,Win32,60,13193,,,,,,,,,,,,,,,,,,,,,,,,,,,,,,,,,,,,,,,,,,,,,,,,,,,,,,,,,,,,,,,,,
,,,,,,,,,,,,l,1.16322,Incorrect,0,9,9,84,1,t2.png,t3.png,1,0.90855,21,female,2020-07-27_19h48.20.080,torte-2b,2020.1.3,Win32,60,13193,,,,,,,,,,,,,,,,,,,,,,,,,,,,,,,,,,,,,,,,,,,,,,,,,,,,,,,,,,,,,,,,,
,,,,,,,,,,,,l,1.56845,Correct!,0,10,10,11,1,t1.png,t4.png,3,0.0000131,21,female,2020-07-27_19h48.20.080,torte-2b,2020.1.3,Win32,60,13193,,,,,,,,,,,,,,,,,,,,,,,,,,,,,,,,,,,,,,,,,,,,,,,,,,,,,,,,,,,,,,,,,
,,,,,,,,,,,,l,1.2484,Incorrect,0,11,11,88,1,t1.png,t1.png,0,0.97829,21,female,2020-07-27_19h48.20.080,torte-2b,2020.1.3,Win32,60,13193,,,,,,,,,,,,,,,,,,,,,,,,,,,,,,,,,,,,,,,,,,,,,,,,,,,,,,,,,,,,,,,,,
,,,,,,,,,,,,a,1.02521,Correct!,0,12,12,24,1,t5.png,t5.png,0,0.97829,21,female,2020-07-27_19h48.20.080,torte-2b,2020.1.3,Win32,60,13193,,,,,,,,,,,,,,,,,,,,,,,,,,,,,,,,,,,,,,,,,,,,,,,,,,,,,,,,,,,,,,,,,
,,,,,,,,,,,,a,0.832065,Correct!,0,13,13,42,1,t5.png,t5.png,0,0.97829,21,female,2020-07-27_19h48.20.080,torte-2b,2020.1.3,Win32,60,13193,,,,,,,,,,,,,,,,,,,,,,,,,,,,,,,,,,,,,,,,,,,,,,,,,,,,,,,,,,,,,,,,,
,,,,,,,,,,,,l,2.27082,Correct!,0,14,14,13,1,t2.png,t4.png,2,0.059078,21,female,2020-07-27_19h48.20.080,torte-2b,2020.1.3,Win32,60,13193,,,,,,,,,,,,,,,,,,,,,,,,,,,,,,,,,,,,,,,,,,,,,,,,,,,,,,,,,,,,,,,,,
,,,,,,,,,,,,l,1.475245,Incorrect,0,15,15,100,1,t3.png,t2.png,1,0.90855,21,female,2020-07-27_19h48.20.080,torte-2b,2020.1.3,Win32,60,13193,,,,,,,,,,,,,,,,,,,,,,,,,,,,,,,,,,,,,,,,,,,,,,,,,,,,,,,,,,,,,,,,,
,,,,,,,,,,,,l,2.316825,Correct!,0,16,16,19,1,t2.png,t4.png,2,0.059078,21,female,2020-07-27_19h48.20.080,torte-2b,2020.1.3,Win32,60,13193,,,,,,,,,,,,,,,,,,,,,,,,,,,,,,,,,,,,,,,,,,,,,,,,,,,,,,,,,,,,,,,,,
,,,,,,,,,,,,a,1.149755,Incorrect,0,17,17,56,1,t2.png,t3.png,1,0.90855,21,female,2020-07-27_19h48.20.080,torte-2b,2020.1.3,Win32,60,13193,,,,,,,,,,,,,,,,,,,,,,,,,,,,,,,,,,,,,,,,,,,,,,,,,,,,,,,,,,,,,,,,,
,,,,,,,,,,,,l,1.198985,Correct!,0,18,18,40,1,t2.png,t4.png,2,0.059078,21,female,2020-07-27_19h48.20.080,torte-2b,2020.1.3,Win32,60,13193,,,,,,,,,,,,,,,,,,,,,,,,,,,,,,,,,,,,,,,,,,,,,,,,,,,,,,,,,,,,,,,,,
,,,,,,,,,,,,a,1.3203,Correct!,0,19,19,67,1,t3.png,t2.png,1,0.90855,21,female,2020-07-27_19h48.20.080,torte-2b,2020.1.3,Win32,60,13193,,,,,,,,,,,,,,,,,,,,,,,,,,,,,,,,,,,,,,,,,,,,,,,,,,,,,,,,,,,,,,,,,
,,,,,,,,,,,,l,2.049055,Correct!,0,20,20,1,1,t3.png,t1.png,2,0.056466,21,female,2020-07-27_19h48.20.080,torte-2b,2020.1.3,Win32,60,13193,,,,,,,,,,,,,,,,,,,,,,,,,,,,,,,,,,,,,,,,,,,,,,,,,,,,,,,,,,,,,,,,,
,,,,,,,,,,,,a,1.27304,Incorrect,0,21,21,41,1,t4.png,t5.png,1,0.90025,21,female,2020-07-27_19h48.20.080,torte-2b,2020.1.3,Win32,60,13193,,,,,,,,,,,,,,,,,,,,,,,,,,,,,,,,,,,,,,,,,,,,,,,,,,,,,,,,,,,,,,,,,
,,,,,,,,,,,,a,1.02346,Correct!,0,22,22,69,1,t5.png,t4.png,1,0.90025,21,female,2020-07-27_19h48.20.080,torte-2b,2020.1.3,Win32,60,13193,,,,,,,,,,,,,,,,,,,,,,,,,,,,,,,,,,,,,,,,,,,,,,,,,,,,,,,,,,,,,,,,,
,,,,,,,,,,,,a,1.4157,Correct!,0,23,23,8,1,t5.png,t5.png,0,0.97829,21,female,2020-07-27_19h48.20.080,torte-2b,2020.1.3,Win32,60,13193,,,,,,,,,,,,,,,,,,,,,,,,,,,,,,,,,,,,,,,,,,,,,,,,,,,,,,,,,,,,,,,,,
,,,,,,,,,,,,a,1.74948,Incorrect,0,24,24,45,1,t4.png,t5.png,1,0.90025,21,female,2020-07-27_19h48.20.080,torte-2b,2020.1.3,Win32,60,13193,,,,,,,,,,,,,,,,,,,,,,,,,,,,,,,,,,,,,,,,,,,,,,,,,,,,,,,,,,,,,,,,,
,,,,,,,,,,,,a,0.69014,Incorrect,0,25,25,74,1,t5.png,t1.png,4,9.55E-11,21,female,2020-07-27_19h48.20.080,torte-2b,2020.1.3,Win32,60,13193,,,,,,,,,,,,,,,,,,,,,,,,,,,,,,,,,,,,,,,,,,,,,,,,,,,,,,,,,,,,,,,,,
,,,,,,,,,,,,a,0.768705,Incorrect,0,26,26,73,1,t3.png,t1.png,2,0.056466,21,female,2020-07-27_19h48.20.080,torte-2b,2020.1.3,Win32,60,13193,,,,,,,,,,,,,,,,,,,,,,,,,,,,,,,,,,,,,,,,,,,,,,,,,,,,,,,,,,,,,,,,,
,,,,,,,,,,,,l,2.089105,Correct!,0,27,27,35,1,t1.png,t4.png,3,0.0000131,21,female,2020-07-27_19h48.20.080,torte-2b,2020.1.3,Win32,60,13193,,,,,,,,,,,,,,,,,,,,,,,,,,,,,,,,,,,,,,,,,,,,,,,,,,,,,,,,,,,,,,,,,
,,,,,,,,,,,,l,1.3991,Correct!,0,28,28,98,1,t5.png,t1.png,4,9.55E-11,21,female,2020-07-27_19h48.20.080,torte-2b,2020.1.3,Win32,60,13193,,,,,,,,,,,,,,,,,,,,,,,,,,,,,,,,,,,,,,,,,,,,,,,,,,,,,,,,,,,,,,,,,
,,,,,,,,,,,,a,1.584105,Correct!,0,29,29,116,1,t4.png,t5.png,1,0.90025,21,female,2020-07-27_19h48.20.080,torte-2b,2020.1.3,Win32,60,13193,,,,,,,,,,,,,,,,,,,,,,,,,,,,,,,,,,,,,,,,,,,,,,,,,,,,,,,,,,,,,,,,,
,,,,,,,,,,,,a,1.11874,Correct!,0,30,30,112,1,t5.png,t4.png,1,0.90025,21,female,2020-07-27_19h48.20.080,torte-2b,2020.1.3,Win32,60,13193,,,,,,,,,,,,,,,,,,,,,,,,,,,,,,,,,,,,,,,,,,,,,,,,,,,,,,,,,,,,,,,,,
,,,,,,,,,,,,l,0.698995,Correct!,0,31,31,117,1,t2.png,t4.png,2,0.059078,21,female,2020-07-27_19h48.20.080,torte-2b,2020.1.3,Win32,60,13193,,,,,,,,,,,,,,,,,,,,,,,,,,,,,,,,,,,,,,,,,,,,,,,,,,,,,,,,,,,,,,,,,
,,,,,,,,,,,,l,0.784215,Correct!,0,32,32,68,1,t2.png,t4.png,2,0.059078,21,female,2020-07-27_19h48.20.080,torte-2b,2020.1.3,Win32,60,13193,,,,,,,,,,,,,,,,,,,,,,,,,,,,,,,,,,,,,,,,,,,,,,,,,,,,,,,,,,,,,,,,,
,,,,,,,,,,,,a,1.032745,Incorrect,0,33,33,77,1,t3.png,t2.png,1,0.90855,21,female,2020-07-27_19h48.20.080,torte-2b,2020.1.3,Win32,60,13193,,,,,,,,,,,,,,,,,,,,,,,,,,,,,,,,,,,,,,,,,,,,,,,,,,,,,,,,,,,,,,,,,
,,,,,,,,,,,,l,1.86696,Correct!,0,34,34,59,1,t5.png,t1.png,4,9.55E-11,21,female,2020-07-27_19h48.20.080,torte-2b,2020.1.3,Win32,60,13193,,,,,,,,,,,,,,,,,,,,,,,,,,,,,,,,,,,,,,,,,,,,,,,,,,,,,,,,,,,,,,,,,
,,,,,,,,,,,,l,1.00073,Incorrect,0,35,35,111,1,t1.png,t1.png,0,0.97829,21,female,2020-07-27_19h48.20.080,torte-2b,2020.1.3,Win32,60,13193,,,,,,,,,,,,,,,,,,,,,,,,,,,,,,,,,,,,,,,,,,,,,,,,,,,,,,,,,,,,,,,,,
,,,,,,,,,,,,a,0.749275,Correct!,0,36,36,4,1,t3.png,t2.png,1,0.90855,21,female,2020-07-27_19h48.20.080,torte-2b,2020.1.3,Win32,60,13193,,,,,,,,,,,,,,,,,,,,,,,,,,,,,,,,,,,,,,,,,,,,,,,,,,,,,,,,,,,,,,,,,
,,,,,,,,,,,,l,1.18527,Incorrect,0,37,37,61,1,t1.png,t1.png,0,0.97829,21,female,2020-07-27_19h48.20.080,torte-2b,2020.1.3,Win32,60,13193,,,,,,,,,,,,,,,,,,,,,,,,,,,,,,,,,,,,,,,,,,,,,,,,,,,,,,,,,,,,,,,,,
,,,,,,,,,,,,a,0.75429,Incorrect,0,38,38,2,1,t3.png,t1.png,2,0.056466,21,female,2020-07-27_19h48.20.080,torte-2b,2020.1.3,Win32,60,13193,,,,,,,,,,,,,,,,,,,,,,,,,,,,,,,,,,,,,,,,,,,,,,,,,,,,,,,,,,,,,,,,,
,,,,,,,,,,,,a,0.781615,Correct!,0,39,39,38,1,t1.png,t1.png,0,0.97829,21,female,2020-07-27_19h48.20.080,torte-2b,2020.1.3,Win32,60,13193,,,,,,,,,,,,,,,,,,,,,,,,,,,,,,,,,,,,,,,,,,,,,,,,,,,,,,,,,,,,,,,,,
,,,,,,,,,,,,l,1.04436,Correct!,0,40,40,70,1,t1.png,t5.png,4,9.55E-11,21,female,2020-07-27_19h48.20.080,torte-2b,2020.1.3,Win32,60,13193,,,,,,,,,,,,,,,,,,,,,,,,,,,,,,,,,,,,,,,,,,,,,,,,,,,,,,,,,,,,,,,,,
,,,,,,,,,,,,l,0.773725,Correct!,0,41,41,26,1,t1.png,t5.png,4,9.55E-11,21,female,2020-07-27_19h48.20.080,torte-2b,2020.1.3,Win32,60,13193,,,,,,,,,,,,,,,,,,,,,,,,,,,,,,,,,,,,,,,,,,,,,,,,,,,,,,,,,,,,,,,,,
,,,,,,,,,,,,a,1.03806,Correct!,0,42,42,58,1,t4.png,t5.png,1,0.90025,21,female,2020-07-27_19h48.20.080,torte-2b,2020.1.3,Win32,60,13193,,,,,,,,,,,,,,,,,,,,,,,,,,,,,,,,,,,,,,,,,,,,,,,,,,,,,,,,,,,,,,,,,
,,,,,,,,,,,,l,1.50209,Correct!,0,43,43,118,1,t1.png,t5.png,4,9.55E-11,21,female,2020-07-27_19h48.20.080,torte-2b,2020.1.3,Win32,60,13193,,,,,,,,,,,,,,,,,,,,,,,,,,,,,,,,,,,,,,,,,,,,,,,,,,,,,,,,,,,,,,,,,
,,,,,,,,,,,,l,1.532545,Incorrect,0,44,44,83,1,t3.png,t2.png,1,0.90855,21,female,2020-07-27_19h48.20.080,torte-2b,2020.1.3,Win32,60,13193,,,,,,,,,,,,,,,,,,,,,,,,,,,,,,,,,,,,,,,,,,,,,,,,,,,,,,,,,,,,,,,,,
,,,,,,,,,,,,l,1.58779,Correct!,0,45,45,106,1,t4.png,t1.png,3,0.059078,21,female,2020-07-27_19h48.20.080,torte-2b,2020.1.3,Win32,60,13193,,,,,,,,,,,,,,,,,,,,,,,,,,,,,,,,,,,,,,,,,,,,,,,,,,,,,,,,,,,,,,,,,
,,,,,,,,,,,,a,1.63545,Correct!,0,46,46,93,1,t5.png,t4.png,1,0.90025,21,female,2020-07-27_19h48.20.080,torte-2b,2020.1.3,Win32,60,13193,,,,,,,,,,,,,,,,,,,,,,,,,,,,,,,,,,,,,,,,,,,,,,,,,,,,,,,,,,,,,,,,,
,,,,,,,,,,,,a,1.2012,Correct!,0,47,47,5,1,t5.png,t5.png,0,0.97829,21,female,2020-07-27_19h48.20.080,torte-2b,2020.1.3,Win32,60,13193,,,,,,,,,,,,,,,,,,,,,,,,,,,,,,,,,,,,,,,,,,,,,,,,,,,,,,,,,,,,,,,,,
,,,,,,,,,,,,l,0.898805,Correct!,0,48,48,102,1,t2.png,t4.png,2,0.059078,21,female,2020-07-27_19h48.20.080,torte-2b,2020.1.3,Win32,60,13193,,,,,,,,,,,,,,,,,,,,,,,,,,,,,,,,,,,,,,,,,,,,,,,,,,,,,,,,,,,,,,,,,
,,,,,,,,,,,,a,0.931865,Correct!,0,49,49,0,1,t3.png,t2.png,1,0.90855,21,female,2020-07-27_19h48.20.080,torte-2b,2020.1.3,Win32,60,13193,,,,,,,,,,,,,,,,,,,,,,,,,,,,,,,,,,,,,,,,,,,,,,,,,,,,,,,,,,,,,,,,,
,,,,,,,,,,,,a,0.60459,Incorrect,0,50,50,64,1,t5.png,t1.png,4,9.55E-11,21,female,2020-07-27_19h48.20.080,torte-2b,2020.1.3,Win32,60,13193,,,,,,,,,,,,,,,,,,,,,,,,,,,,,,,,,,,,,,,,,,,,,,,,,,,,,,,,,,,,,,,,,
,,,,,,,,,,,,a,1.30006,Correct!,0,51,51,90,1,t4.png,t5.png,1,0.90025,21,female,2020-07-27_19h48.20.080,torte-2b,2020.1.3,Win32,60,13193,,,,,,,,,,,,,,,,,,,,,,,,,,,,,,,,,,,,,,,,,,,,,,,,,,,,,,,,,,,,,,,,,
,,,,,,,,,,,,a,0.84032,Correct!,0,52,52,71,1,t4.png,t5.png,1,0.90025,21,female,2020-07-27_19h48.20.080,torte-2b,2020.1.3,Win32,60,13193,,,,,,,,,,,,,,,,,,,,,,,,,,,,,,,,,,,,,,,,,,,,,,,,,,,,,,,,,,,,,,,,,
,,,,,,,,,,,,a,1.450795,Incorrect,0,53,53,32,1,t3.png,t2.png,1,0.90855,21,female,2020-07-27_19h48.20.080,torte-2b,2020.1.3,Win32,60,13193,,,,,,,,,,,,,,,,,,,,,,,,,,,,,,,,,,,,,,,,,,,,,,,,,,,,,,,,,,,,,,,,,
,,,,,,,,,,,,l,0.99454,Correct!,0,54,54,62,1,t1.png,t4.png,3,0.0000131,21,female,2020-07-27_19h48.20.080,torte-2b,2020.1.3,Win32,60,13193,,,,,,,,,,,,,,,,,,,,,,,,,,,,,,,,,,,,,,,,,,,,,,,,,,,,,,,,,,,,,,,,,
,,,,,,,,,,,,a,0.880385,Correct!,0,55,55,114,1,t5.png,t4.png,1,0.90025,21,female,2020-07-27_19h48.20.080,torte-2b,2020.1.3,Win32,60,13193,,,,,,,,,,,,,,,,,,,,,,,,,,,,,,,,,,,,,,,,,,,,,,,,,,,,,,,,,,,,,,,,,
,,,,,,,,,,,,l,1.02127,Correct!,0,56,56,81,1,t3.png,t1.png,2,0.056466,21,female,2020-07-27_19h48.20.080,torte-2b,2020.1.3,Win32,60,13193,,,,,,,,,,,,,,,,,,,,,,,,,,,,,,,,,,,,,,,,,,,,,,,,,,,,,,,,,,,,,,,,,
,,,,,,,,,,,,l,0.867895,Incorrect,0,57,57,46,1,t1.png,t1.png,0,0.97829,21,female,2020-07-27_19h48.20.080,torte-2b,2020.1.3,Win32,60,13193,,,,,,,,,,,,,,,,,,,,,,,,,,,,,,,,,,,,,,,,,,,,,,,,,,,,,,,,,,,,,,,,,
,,,,,,,,,,,,a,0.651815,Correct!,0,58,58,31,1,t1.png,t1.png,0,0.97829,21,female,2020-07-27_19h48.20.080,torte-2b,2020.1.3,Win32,60,13193,,,,,,,,,,,,,,,,,,,,,,,,,,,,,,,,,,,,,,,,,,,,,,,,,,,,,,,,,,,,,,,,,
,,,,,,,,,,,,l,1.807725,Correct!,0,59,59,87,1,t5.png,t1.png,4,9.55E-11,21,female,2020-07-27_19h48.20.080,torte-2b,2020.1.3,Win32,60,13193,,,,,,,,,,,,,,,,,,,,,,,,,,,,,,,,,,,,,,,,,,,,,,,,,,,,,,,,,,,,,,,,,
,,,,,,,,,,,,a,1.18485,Correct!,0,60,60,60,1,t4.png,t5.png,1,0.90025,21,female,2020-07-27_19h48.20.080,torte-2b,2020.1.3,Win32,60,13193,,,,,,,,,,,,,,,,,,,,,,,,,,,,,,,,,,,,,,,,,,,,,,,,,,,,,,,,,,,,,,,,,
,,,,,,,,,,,,a,1.6156,Correct!,0,61,61,72,1,t5.png,t5.png,0,0.97829,21,female,2020-07-27_19h48.20.080,torte-2b,2020.1.3,Win32,60,13193,,,,,,,,,,,,,,,,,,,,,,,,,,,,,,,,,,,,,,,,,,,,,,,,,,,,,,,,,,,,,,,,,
,,,,,,,,,,,,l,1.06543,Correct!,0,62,62,108,1,t3.png,t1.png,2,0.056466,21,female,2020-07-27_19h48.20.080,torte-2b,2020.1.3,Win32,60,13193,,,,,,,,,,,,,,,,,,,,,,,,,,,,,,,,,,,,,,,,,,,,,,,,,,,,,,,,,,,,,,,,,
,,,,,,,,,,,,l,1.256645,Correct!,0,63,63,66,1,t5.png,t1.png,4,9.55E-11,21,female,2020-07-27_19h48.20.080,torte-2b,2020.1.3,Win32,60,13193,,,,,,,,,,,,,,,,,,,,,,,,,,,,,,,,,,,,,,,,,,,,,,,,,,,,,,,,,,,,,,,,,
,,,,,,,,,,,,l,1.249965,Incorrect,0,64,64,75,1,t2.png,t3.png,1,0.90855,21,female,2020-07-27_19h48.20.080,torte-2b,2020.1.3,Win32,60,13193,,,,,,,,,,,,,,,,,,,,,,,,,,,,,,,,,,,,,,,,,,,,,,,,,,,,,,,,,,,,,,,,,
,,,,,,,,,,,,a,0.95665,Correct!,0,65,65,101,1,t5.png,t4.png,1,0.90025,21,female,2020-07-27_19h48.20.080,torte-2b,2020.1.3,Win32,60,13193,,,,,,,,,,,,,,,,,,,,,,,,,,,,,,,,,,,,,,,,,,,,,,,,,,,,,,,,,,,,,,,,,
,,,,,,,,,,,,l,1.118305,Correct!,0,66,66,49,1,t5.png,t1.png,4,9.55E-11,21,female,2020-07-27_19h48.20.080,torte-2b,2020.1.3,Win32,60,13193,,,,,,,,,,,,,,,,,,,,,,,,,,,,,,,,,,,,,,,,,,,,,,,,,,,,,,,,,,,,,,,,,
,,,,,,,,,,,,l,1.515465,Correct!,0,67,67,39,1,t2.png,t4.png,2,0.059078,21,female,2020-07-27_19h48.20.080,torte-2b,2020.1.3,Win32,60,13193,,,,,,,,,,,,,,,,,,,,,,,,,,,,,,,,,,,,,,,,,,,,,,,,,,,,,,,,,,,,,,,,,
,,,,,,,,,,,,a,0.968625,Correct!,0,68,68,104,1,t4.png,t5.png,1,0.90025,21,female,2020-07-27_19h48.20.080,torte-2b,2020.1.3,Win32,60,13193,,,,,,,,,,,,,,,,,,,,,,,,,,,,,,,,,,,,,,,,,,,,,,,,,,,,,,,,,,,,,,,,,
,,,,,,,,,,,,l,0.900765,Correct!,0,69,69,78,1,t1.png,t4.png,3,0.0000131,21,female,2020-07-27_19h48.20.080,torte-2b,2020.1.3,Win32,60,13193,,,,,,,,,,,,,,,,,,,,,,,,,,,,,,,,,,,,,,,,,,,,,,,,,,,,,,,,,,,,,,,,,
,,,,,,,,,,,,l,1.01618,Correct!,0,70,70,82,1,t3.png,t1.png,2,0.056466,21,female,2020-07-27_19h48.20.080,torte-2b,2020.1.3,Win32,60,13193,,,,,,,,,,,,,,,,,,,,,,,,,,,,,,,,,,,,,,,,,,,,,,,,,,,,,,,,,,,,,,,,,
,,,,,,,,,,,,l,0.848705,Correct!,0,71,71,63,1,t1.png,t5.png,4,9.55E-11,21,female,2020-07-27_19h48.20.080,torte-2b,2020.1.3,Win32,60,13193,,,,,,,,,,,,,,,,,,,,,,,,,,,,,,,,,,,,,,,,,,,,,,,,,,,,,,,,,,,,,,,,,
,,,,,,,,,,,,l,0.96538,Correct!,0,72,72,44,1,t1.png,t4.png,3,0.0000131,21,female,2020-07-27_19h48.20.080,torte-2b,2020.1.3,Win32,60,13193,,,,,,,,,,,,,,,,,,,,,,,,,,,,,,,,,,,,,,,,,,,,,,,,,,,,,,,,,,,,,,,,,
,,,,,,,,,,,,l,1.36794,Correct!,0,73,73,115,1,t2.png,t4.png,2,0.059078,21,female,2020-07-27_19h48.20.080,torte-2b,2020.1.3,Win32,60,13193,,,,,,,,,,,,,,,,,,,,,,,,,,,,,,,,,,,,,,,,,,,,,,,,,,,,,,,,,,,,,,,,,
,,,,,,,,,,,,,,Too slow :(,0,74,74,15,1,t2.png,t3.png,1,0.90855,21,female,2020-07-27_19h48.20.080,torte-2b,2020.1.3,Win32,60,13193,,,,,,,,,,,,,,,,,,,,,,,,,,,,,,,,,,,,,,,,,,,,,,,,,,,,,,,,,,,,,,,,,
,,,,,,,,,,,,a,0.83547,Incorrect,0,75,75,52,1,t2.png,t3.png,1,0.90855,21,female,2020-07-27_19h48.20.080,torte-2b,2020.1.3,Win32,60,13193,,,,,,,,,,,,,,,,,,,,,,,,,,,,,,,,,,,,,,,,,,,,,,,,,,,,,,,,,,,,,,,,,
,,,,,,,,,,,,l,1.124035,Correct!,0,76,76,80,1,t4.png,t1.png,3,0.059078,21,female,2020-07-27_19h48.20.080,torte-2b,2020.1.3,Win32,60,13193,,,,,,,,,,,,,,,,,,,,,,,,,,,,,,,,,,,,,,,,,,,,,,,,,,,,,,,,,,,,,,,,,
,,,,,,,,,,,,l,0.45683,Correct!,0,77,77,107,1,t1.png,t4.png,3,0.0000131,21,female,2020-07-27_19h48.20.080,torte-2b,2020.1.3,Win32,60,13193,,,,,,,,,,,,,,,,,,,,,,,,,,,,,,,,,,,,,,,,,,,,,,,,,,,,,,,,,,,,,,,,,
,,,,,,,,,,,,l,0.77318,Correct!,0,78,78,92,1,t5.png,t1.png,4,9.55E-11,21,female,2020-07-27_19h48.20.080,torte-2b,2020.1.3,Win32,60,13193,,,,,,,,,,,,,,,,,,,,,,,,,,,,,,,,,,,,,,,,,,,,,,,,,,,,,,,,,,,,,,,,,
,,,,,,,,,,,,l,0.51568,Correct!,0,79,79,105,1,t4.png,t1.png,3,0.059078,21,female,2020-07-27_19h48.20.080,torte-2b,2020.1.3,Win32,60,13193,,,,,,,,,,,,,,,,,,,,,,,,,,,,,,,,,,,,,,,,,,,,,,,,,,,,,,,,,,,,,,,,,
,,,,,,,,,,,,a,0.48558,Correct!,0,80,80,119,1,t5.png,t4.png,1,0.90025,21,female,2020-07-27_19h48.20.080,torte-2b,2020.1.3,Win32,60,13193,,,,,,,,,,,,,,,,,,,,,,,,,,,,,,,,,,,,,,,,,,,,,,,,,,,,,,,,,,,,,,,,,
,,,,,,,,,,,,a,0.524995,Correct!,0,81,81,110,1,t4.png,t5.png,1,0.90025,21,female,2020-07-27_19h48.20.080,torte-2b,2020.1.3,Win32,60,13193,,,,,,,,,,,,,,,,,,,,,,,,,,,,,,,,,,,,,,,,,,,,,,,,,,,,,,,,,,,,,,,,,
,,,,,,,,,,,,a,0.515175,Correct!,0,82,82,86,1,t5.png,t4.png,1,0.90025,21,female,2020-07-27_19h48.20.080,torte-2b,2020.1.3,Win32,60,13193,,,,,,,,,,,,,,,,,,,,,,,,,,,,,,,,,,,,,,,,,,,,,,,,,,,,,,,,,,,,,,,,,
,,,,,,,,,,,,l,0.76626,Incorrect,0,83,83,33,1,t3.png,t2.png,1,0.90855,21,female,2020-07-27_19h48.20.080,torte-2b,2020.1.3,Win32,60,13193,,,,,,,,,,,,,,,,,,,,,,,,,,,,,,,,,,,,,,,,,,,,,,,,,,,,,,,,,,,,,,,,,
,,,,,,,,,,,,l,1.17784,Correct!,0,84,84,79,1,t1.png,t4.png,3,0.0000131,21,female,2020-07-27_19h48.20.080,torte-2b,2020.1.3,Win32,60,13193,,,,,,,,,,,,,,,,,,,,,,,,,,,,,,,,,,,,,,,,,,,,,,,,,,,,,,,,,,,,,,,,,
,,,,,,,,,,,,a,1.08055,Correct!,0,85,85,48,1,t2.png,t3.png,1,0.90855,21,female,2020-07-27_19h48.20.080,torte-2b,2020.1.3,Win32,60,13193,,,,,,,,,,,,,,,,,,,,,,,,,,,,,,,,,,,,,,,,,,,,,,,,,,,,,,,,,,,,,,,,,
,,,,,,,,,,,,a,1.055215,Correct!,0,86,86,14,1,t2.png,t3.png,1,0.90855,21,female,2020-07-27_19h48.20.080,torte-2b,2020.1.3,Win32,60,13193,,,,,,,,,,,,,,,,,,,,,,,,,,,,,,,,,,,,,,,,,,,,,,,,,,,,,,,,,,,,,,,,,
,,,,,,,,,,,,l,0.88294,Correct!,0,87,87,103,1,t4.png,t1.png,3,0.059078,21,female,2020-07-27_19h48.20.080,torte-2b,2020.1.3,Win32,60,13193,,,,,,,,,,,,,,,,,,,,,,,,,,,,,,,,,,,,,,,,,,,,,,,,,,,,,,,,,,,,,,,,,
,,,,,,,,,,,,a,0.843985,Correct!,0,88,88,85,1,t5.png,t4.png,1,0.90025,21,female,2020-07-27_19h48.20.080,torte-2b,2020.1.3,Win32,60,13193,,,,,,,,,,,,,,,,,,,,,,,,,,,,,,,,,,,,,,,,,,,,,,,,,,,,,,,,,,,,,,,,,
,,,,,,,,,,,,l,0.815075,Correct!,0,89,89,9,1,t1.png,t5.png,4,9.55E-11,21,female,2020-07-27_19h48.20.080,torte-2b,2020.1.3,Win32,60,13193,,,,,,,,,,,,,,,,,,,,,,,,,,,,,,,,,,,,,,,,,,,,,,,,,,,,,,,,,,,,,,,,,
,,,,,,,,,,,,l,1.852565,Correct!,0,90,90,54,1,t3.png,t1.png,2,0.056466,21,female,2020-07-27_19h48.20.080,torte-2b,2020.1.3,Win32,60,13193,,,,,,,,,,,,,,,,,,,,,,,,,,,,,,,,,,,,,,,,,,,,,,,,,,,,,,,,,,,,,,,,,
,,,,,,,,,,,,l,0.69938,Correct!,0,91,91,10,1,t4.png,t1.png,3,0.059078,21,female,2020-07-27_19h48.20.080,torte-2b,2020.1.3,Win32,60,13193,,,,,,,,,,,,,,,,,,,,,,,,,,,,,,,,,,,,,,,,,,,,,,,,,,,,,,,,,,,,,,,,,
,,,,,,,,,,,,l,0.54816,Correct!,0,92,92,51,1,t4.png,t1.png,3,0.059078,21,female,2020-07-27_19h48.20.080,torte-2b,2020.1.3,Win32,60,13193,,,,,,,,,,,,,,,,,,,,,,,,,,,,,,,,,,,,,,,,,,,,,,,,,,,,,,,,,,,,,,,,,
,,,,,,,,,,,,l,0.640175,Correct!,0,93,93,36,1,t1.png,t4.png,3,0.0000131,21,female,2020-07-27_19h48.20.080,torte-2b,2020.1.3,Win32,60,13193,,,,,,,,,,,,,,,,,,,,,,,,,,,,,,,,,,,,,,,,,,,,,,,,,,,,,,,,,,,,,,,,,
,,,,,,,,,,,,l,0.65542,Correct!,0,94,94,37,1,t2.png,t4.png,2,0.059078,21,female,2020-07-27_19h48.20.080,torte-2b,2020.1.3,Win32,60,13193,,,,,,,,,,,,,,,,,,,,,,,,,,,,,,,,,,,,,,,,,,,,,,,,,,,,,,,,,,,,,,,,,
,,,,,,,,,,,,l,0.633255,Incorrect,0,95,95,30,1,t2.png,t3.png,1,0.90855,21,female,2020-07-27_19h48.20.080,torte-2b,2020.1.3,Win32,60,13193,,,,,,,,,,,,,,,,,,,,,,,,,,,,,,,,,,,,,,,,,,,,,,,,,,,,,,,,,,,,,,,,,
,,,,,,,,,,,,l,1.267415,Correct!,0,96,96,34,1,t1.png,t5.png,4,9.55E-11,21,female,2020-07-27_19h48.20.080,torte-2b,2020.1.3,Win32,60,13193,,,,,,,,,,,,,,,,,,,,,,,,,,,,,,,,,,,,,,,,,,,,,,,,,,,,,,,,,,,,,,,,,
,,,,,,,,,,,,l,1.60138,Correct!,0,97,97,96,1,t2.png,t4.png,2,0.059078,21,female,2020-07-27_19h48.20.080,torte-2b,2020.1.3,Win32,60,13193,,,,,,,,,,,,,,,,,,,,,,,,,,,,,,,,,,,,,,,,,,,,,,,,,,,,,,,,,,,,,,,,,
,,,,,,,,,,,,l,0.87149,Correct!,0,98,98,28,1,t1.png,t4.png,3,0.0000131,21,female,2020-07-27_19h48.20.080,torte-2b,2020.1.3,Win32,60,13193,,,,,,,,,,,,,,,,,,,,,,,,,,,,,,,,,,,,,,,,,,,,,,,,,,,,,,,,,,,,,,,,,
,,,,,,,,,,,,a,1.12272,Correct!,0,99,99,7,1,t3.png,t2.png,1,0.90855,21,female,2020-07-27_19h48.20.080,torte-2b,2020.1.3,Win32,60,13193,,,,,,,,,,,,,,,,,,,,,,,,,,,,,,,,,,,,,,,,,,,,,,,,,,,,,,,,,,,,,,,,,
,,,,,,,,,,,,l,0.78232,Correct!,0,100,100,95,1,t1.png,t4.png,3,0.0000131,21,female,2020-07-27_19h48.20.080,torte-2b,2020.1.3,Win32,60,13193,,,,,,,,,,,,,,,,,,,,,,,,,,,,,,,,,,,,,,,,,,,,,,,,,,,,,,,,,,,,,,,,,
,,,,,,,,,,,,a,0.89829,Correct!,0,101,101,22,1,t5.png,t5.png,0,0.97829,21,female,2020-07-27_19h48.20.080,torte-2b,2020.1.3,Win32,60,13193,,,,,,,,,,,,,,,,,,,,,,,,,,,,,,,,,,,,,,,,,,,,,,,,,,,,,,,,,,,,,,,,,
,,,,,,,,,,,,a,0.60305,Correct!,0,102,102,12,1,t5.png,t5.png,0,0.97829,21,female,2020-07-27_19h48.20.080,torte-2b,2020.1.3,Win32,60,13193,,,,,,,,,,,,,,,,,,,,,,,,,,,,,,,,,,,,,,,,,,,,,,,,,,,,,,,,,,,,,,,,,
,,,,,,,,,,,,l,0.95712,Incorrect,0,103,103,3,1,t4.png,t1.png,3,0.059078,21,female,2020-07-27_19h48.20.080,torte-2b,2020.1.3,Win32,60,13193,,,,,,,,,,,,,,,,,,,,,,,,,,,,,,,,,,,,,,,,,,,,,,,,,,,,,,,,,,,,,,,,,
,,,,,,,,,,,,l,1.436145,Incorrect,0,104,104,47,1,t2.png,t3.png,1,0.90855,21,female,2020-07-27_19h48.20.080,torte-2b,2020.1.3,Win32,60,13193,,,,,,,,,,,,,,,,,,,,,,,,,,,,,,,,,,,,,,,,,,,,,,,,,,,,,,,,,,,,,,,,,
,,,,,,,,,,,,a,0.82442,Correct!,0,105,105,29,1,t3.png,t2.png,1,0.90855,21,female,2020-07-27_19h48.20.080,torte-2b,2020.1.3,Win32,60,13193,,,,,,,,,,,,,,,,,,,,,,,,,,,,,,,,,,,,,,,,,,,,,,,,,,,,,,,,,,,,,,,,,
,,,,,,,,,,,,a,0.91645,Correct!,0,106,106,21,1,t5.png,t4.png,1,0.90025,21,female,2020-07-27_19h48.20.080,torte-2b,2020.1.3,Win32,60,13193,,,,,,,,,,,,,,,,,,,,,,,,,,,,,,,,,,,,,,,,,,,,,,,,,,,,,,,,,,,,,,,,,
,,,,,,,,,,,,a,1.31859,Correct!,0,107,107,18,1,t2.png,t3.png,1,0.90855,21,female,2020-07-27_19h48.20.080,torte-2b,2020.1.3,Win32,60,13193,,,,,,,,,,,,,,,,,,,,,,,,,,,,,,,,,,,,,,,,,,,,,,,,,,,,,,,,,,,,,,,,,
,,,,,,,,,,,,a,2.21695,Correct!,0,108,108,25,1,t1.png,t1.png,0,0.97829,21,female,2020-07-27_19h48.20.080,torte-2b,2020.1.3,Win32,60,13193,,,,,,,,,,,,,,,,,,,,,,,,,,,,,,,,,,,,,,,,,,,,,,,,,,,,,,,,,,,,,,,,,
,,,,,,,,,,,,l,1.781845,Correct!,0,109,109,89,1,t1.png,t5.png,4,9.55E-11,21,female,2020-07-27_19h48.20.080,torte-2b,2020.1.3,Win32,60,13193,,,,,,,,,,,,,,,,,,,,,,,,,,,,,,,,,,,,,,,,,,,,,,,,,,,,,,,,,,,,,,,,,
,,,,,,,,,,,,a,1.05023,Correct!,0,110,110,55,1,t1.png,t1.png,0,0.97829,21,female,2020-07-27_19h48.20.080,torte-2b,2020.1.3,Win32,60,13193,,,,,,,,,,,,,,,,,,,,,,,,,,,,,,,,,,,,,,,,,,,,,,,,,,,,,,,,,,,,,,,,,
,,,,,,,,,,,,l,0.97236,Correct!,0,111,111,99,1,t4.png,t1.png,3,0.059078,21,female,2020-07-27_19h48.20.080,torte-2b,2020.1.3,Win32,60,13193,,,,,,,,,,,,,,,,,,,,,,,,,,,,,,,,,,,,,,,,,,,,,,,,,,,,,,,,,,,,,,,,,
,,,,,,,,,,,,a,1.799395,Correct!,0,112,112,53,1,t1.png,t1.png,0,0.97829,21,female,2020-07-27_19h48.20.080,torte-2b,2020.1.3,Win32,60,13193,,,,,,,,,,,,,,,,,,,,,,,,,,,,,,,,,,,,,,,,,,,,,,,,,,,,,,,,,,,,,,,,,
,,,,,,,,,,,,a,1.465225,Correct!,0,113,113,23,1,t4.png,t5.png,1,0.90025,21,female,2020-07-27_19h48.20.080,torte-2b,2020.1.3,Win32,60,13193,,,,,,,,,,,,,,,,,,,,,,,,,,,,,,,,,,,,,,,,,,,,,,,,,,,,,,,,,,,,,,,,,
,,,,,,,,,,,,a,0.7897,Correct!,0,114,114,97,1,t1.png,t1.png,0,0.97829,21,female,2020-07-27_19h48.20.080,torte-2b,2020.1.3,Win32,60,13193,,,,,,,,,,,,,,,,,,,,,,,,,,,,,,,,,,,,,,,,,,,,,,,,,,,,,,,,,,,,,,,,,
,,,,,,,,,,,,l,1.735965,Correct!,0,115,115,94,1,t3.png,t1.png,2,0.056466,21,female,2020-07-27_19h48.20.080,torte-2b,2020.1.3,Win32,60,13193,,,,,,,,,,,,,,,,,,,,,,,,,,,,,,,,,,,,,,,,,,,,,,,,,,,,,,,,,,,,,,,,,
,,,,,,,,,,,,l,1.433095,Correct!,0,116,116,6,1,t5.png,t1.png,4,9.55E-11,21,female,2020-07-27_19h48.20.080,torte-2b,2020.1.3,Win32,60,13193,,,,,,,,,,,,,,,,,,,,,,,,,,,,,,,,,,,,,,,,,,,,,,,,,,,,,,,,,,,,,,,,,
,,,,,,,,,,,,a,0.68373,Correct!,0,117,117,109,1,t5.png,t5.png,0,0.97829,21,female,2020-07-27_19h48.20.080,torte-2b,2020.1.3,Win32,60,13193,,,,,,,,,,,,,,,,,,,,,,,,,,,,,,,,,,,,,,,,,,,,,,,,,,,,,,,,,,,,,,,,,
,,,,,,,,,,,,l,0.83941,Correct!,0,118,118,57,1,t3.png,t1.png,2,0.056466,21,female,2020-07-27_19h48.20.080,torte-2b,2020.1.3,Win32,60,13193,,,,,,,,,,,,,,,,,,,,,,,,,,,,,,,,,,,,,,,,,,,,,,,,,,,,,,,,,,,,,,,,,
,,,,,,,,,,,,l,0.97576,Correct!,0,119,119,113,1,t5.png,t1.png,4,9.55E-11,21,female,2020-07-27_19h48.20.080,torte-2b,2020.1.3,Win32,60,13193,,,,,,,,,,,,,,,,,,,,,,,,,,,,,,,,,,,,,,,,,,,,,,,,,,,,,,,,,,,,,,,,,
,,,,,,,,,,,,l,0.823905,Incorrect,,,,,,t2.png,t2.png,0,0.98115,21,female,2020-07-27_19h48.20.080,torte-2b,2020.1.3,Win32,60,13193,space,4.96278,space,12.52949,0,0,0,90,1,,,,,,,,,,,,,,,,,,,,,,,,,,,,,,,,,,,,,,,,,,,,,,,,,,,,,,,,
,,,,,,,,,,,,a,0.847265,Correct!,,,,,,t4.png,t5.png,1,0.90025,21,female,2020-07-27_19h48.20.080,torte-2b,2020.1.3,Win32,60,13193,,,,,0,1,1,33,1,,,,,,,,,,,,,,,,,,,,,,,,,,,,,,,,,,,,,,,,,,,,,,,,,,,,,,,,
,,,,,,,,,,,,l,0.99063,Correct!,,,,,,t5.png,t1.png,4,9.55E-11,21,female,2020-07-27_19h48.20.080,torte-2b,2020.1.3,Win32,60,13193,,,,,0,2,2,101,1,,,,,,,,,,,,,,,,,,,,,,,,,,,,,,,,,,,,,,,,,,,,,,,,,,,,,,,,
,,,,,,,,,,,,l,0.71583,Correct!,,,,,,t3.png,t1.png,2,0.056466,21,female,2020-07-27_19h48.20.080,torte-2b,2020.1.3,Win32,60,13193,,,,,0,3,3,72,1,,,,,,,,,,,,,,,,,,,,,,,,,,,,,,,,,,,,,,,,,,,,,,,,,,,,,,,,
,,,,,,,,,,,,l,1.119265,Incorrect,,,,,,t1.png,t2.png,1,0.90025,21,female,2020-07-27_19h48.20.080,torte-2b,2020.1.3,Win32,60,13193,,,,,0,4,4,6,1,,,,,,,,,,,,,,,,,,,,,,,,,,,,,,,,,,,,,,,,,,,,,,,,,,,,,,,,
,,,,,,,,,,,,a,0.95404,Correct!,,,,,,t3.png,t2.png,1,0.90855,21,female,2020-07-27_19h48.20.080,torte-2b,2020.1.3,Win32,60,13193,,,,,0,5,5,99,1,,,,,,,,,,,,,,,,,,,,,,,,,,,,,,,,,,,,,,,,,,,,,,,,,,,,,,,,
,,,,,,,,,,,,l,1.027385,Correct!,,,,,,t3.png,t5.png,2,0.056466,21,female,2020-07-27_19h48.20.080,torte-2b,2020.1.3,Win32,60,13193,,,,,0,6,6,45,1,,,,,,,,,,,,,,,,,,,,,,,,,,,,,,,,,,,,,,,,,,,,,,,,,,,,,,,,
,,,,,,,,,,,,a,1.682235,Correct!,,,,,,t3.png,t4.png,1,0.90855,21,female,2020-07-27_19h48.20.080,torte-2b,2020.1.3,Win32,60,13193,,,,,0,7,7,58,1,,,,,,,,,,,,,,,,,,,,,,,,,,,,,,,,,,,,,,,,,,,,,,,,,,,,,,,,
,,,,,,,,,,,,l,1.00836,Correct!,,,,,,t1.png,t5.png,4,9.55E-11,21,female,2020-07-27_19h48.20.080,torte-2b,2020.1.3,Win32,60,13193,,,,,0,8,8,118,1,,,,,,,,,,,,,,,,,,,,,,,,,,,,,,,,,,,,,,,,,,,,,,,,,,,,,,,,
,,,,,,,,,,,,l,0.83284,Correct!,,,,,,t2.png,t1.png,1,0.9,21,female,2020-07-27_19h48.20.080,torte-2b,2020.1.3,Win32,60,13193,,,,,0,9,9,93,1,,,,,,,,,,,,,,,,,,,,,,,,,,,,,,,,,,,,,,,,,,,,,,,,,,,,,,,,
,,,,,,,,,,,,a,1.665855,Correct!,,,,,,t3.png,t4.png,1,0.90855,21,female,2020-07-27_19h48.20.080,torte-2b,2020.1.3,Win32,60,13193,,,,,0,10,10,5,1,,,,,,,,,,,,,,,,,,,,,,,,,,,,,,,,,,,,,,,,,,,,,,,,,,,,,,,,
,,,,,,,,,,,,a,0.895985,Correct!,,,,,,t1.png,t1.png,0,0.978,21,female,2020-07-27_19h48.20.080,torte-2b,2020.1.3,Win32,60,13193,,,,,0,11,11,22,1,,,,,,,,,,,,,,,,,,,,,,,,,,,,,,,,,,,,,,,,,,,,,,,,,,,,,,,,
,,,,,,,,,,,,a,1.25207,Correct!,,,,,,t3.png,t5.png,2,0.056466,21,female,2020-07-27_19h48.20.080,torte-2b,2020.1.3,Win32,60,13193,,,,,0,12,12,60,1,,,,,,,,,,,,,,,,,,,,,,,,,,,,,,,,,,,,,,,,,,,,,,,,,,,,,,,,
,,,,,,,,,,,,a,1.603475,Incorrect,,,,,,t5.png,t2.png,3,0.0000131,21,female,2020-07-27_19h48.20.080,torte-2b,2020.1.3,Win32,60,13193,,,,,0,13,13,48,1,,,,,,,,,,,,,,,,,,,,,,,,,,,,,,,,,,,,,,,,,,,,,,,,,,,,,,,,
,,,,,,,,,,,,l,1.05791,Correct!,,,,,,t2.png,t4.png,2,0.059078,21,female,2020-07-27_19h48.20.080,torte-2b,2020.1.3,Win32,60,13193,,,,,0,14,14,53,1,,,,,,,,,,,,,,,,,,,,,,,,,,,,,,,,,,,,,,,,,,,,,,,,,,,,,,,,
,,,,,,,,,,,,a,0.688155,Correct!,,,,,,t1.png,t1.png,0,0.97829,21,female,2020-07-27_19h48.20.080,torte-2b,2020.1.3,Win32,60,13193,,,,,0,15,15,4,1,,,,,,,,,,,,,,,,,,,,,,,,,,,,,,,,,,,,,,,,,,,,,,,,,,,,,,,,
,,,,,,,,,,,,a,1.16738,Incorrect,,,,,,t3.png,t5.png,2,0.0565,21,female,2020-07-27_19h48.20.080,torte-2b,2020.1.3,Win32,60,13193,,,,,0,16,16,71,1,,,,,,,,,,,,,,,,,,,,,,,,,,,,,,,,,,,,,,,,,,,,,,,,,,,,,,,,
,,,,,,,,,,,,a,0.853955,Correct!,,,,,,t4.png,t5.png,1,0.90025,21,female,2020-07-27_19h48.20.080,torte-2b,2020.1.3,Win32,60,13193,,,,,0,17,17,21,1,,,,,,,,,,,,,,,,,,,,,,,,,,,,,,,,,,,,,,,,,,,,,,,,,,,,,,,,
,,,,,,,,,,,,a,0.773345,Correct!,,,,,,t5.png,t5.png,0,0.97829,21,female,2020-07-27_19h48.20.080,torte-2b,2020.1.3,Win32,60,13193,,,,,0,18,18,35,1,,,,,,,,,,,,,,,,,,,,,,,,,,,,,,,,,,,,,,,,,,,,,,,,,,,,,,,,
,,,,,,,,,,,,l,1.33668,Incorrect,,,,,,t2.png,t2.png,0,0.981,21,female,2020-07-27_19h48.20.080,torte-2b,2020.1.3,Win32,60,13193,,,,,0,19,19,98,1,,,,,,,,,,,,,,,,,,,,,,,,,,,,,,,,,,,,,,,,,,,,,,,,,,,,,,,,
,,,,,,,,,,,,a,0.79233,Correct!,,,,,,t5.png,t5.png,0,0.97829,21,female,2020-07-27_19h48.20.080,torte-2b,2020.1.3,Win32,60,13193,,,,,0,20,20,77,1,,,,,,,,,,,,,,,,,,,,,,,,,,,,,,,,,,,,,,,,,,,,,,,,,,,,,,,,
,,,,,,,,,,,,a,0.788115,Correct!,,,,,,t4.png,t3.png,1,0.90855,21,female,2020-07-27_19h48.20.080,torte-2b,2020.1.3,Win32,60,13193,,,,,0,21,21,56,1,,,,,,,,,,,,,,,,,,,,,,,,,,,,,,,,,,,,,,,,,,,,,,,,,,,,,,,,
,,,,,,,,,,,,a,1.09871,Incorrect,,,,,,t2.png,t5.png,3,0.0000131,21,female,2020-07-27_19h48.20.080,torte-2b,2020.1.3,Win32,60,13193,,,,,0,22,22,85,1,,,,,,,,,,,,,,,,,,,,,,,,,,,,,,,,,,,,,,,,,,,,,,,,,,,,,,,,
,,,,,,,,,,,,l,1.05164,Incorrect,,,,,,t2.png,t2.png,0,0.98115,21,female,2020-07-27_19h48.20.080,torte-2b,2020.1.3,Win32,60,13193,,,,,0,23,23,69,1,,,,,,,,,,,,,,,,,,,,,,,,,,,,,,,,,,,,,,,,,,,,,,,,,,,,,,,,
,,,,,,,,,,,,,,Too slow :(,,,,,,t3.png,t4.png,1,0.90855,21,female,2020-07-27_19h48.20.080,torte-2b,2020.1.3,Win32,60,13193,,,,,0,24,24,103,1,,,,,,,,,,,,,,,,,,,,,,,,,,,,,,,,,,,,,,,,,,,,,,,,,,,,,,,,
,,,,,,,,,,,,l,1.332715,Incorrect,,,,,,t2.png,t3.png,1,0.909,21,female,2020-07-27_19h48.20.080,torte-2b,2020.1.3,Win32,60,13193,,,,,0,25,25,8,1,,,,,,,,,,,,,,,,,,,,,,,,,,,,,,,,,,,,,,,,,,,,,,,,,,,,,,,,
,,,,,,,,,,,,a,1.47844,Incorrect,,,,,,t5.png,t2.png,3,0.0000131,21,female,2020-07-27_19h48.20.080,torte-2b,2020.1.3,Win32,60,13193,,,,,0,26,26,82,1,,,,,,,,,,,,,,,,,,,,,,,,,,,,,,,,,,,,,,,,,,,,,,,,,,,,,,,,
,,,,,,,,,,,,l,1.349435,Correct!,,,,,,t4.png,t1.png,3,0.059078,21,female,2020-07-27_19h48.20.080,torte-2b,2020.1.3,Win32,60,13193,,,,,0,27,27,87,1,,,,,,,,,,,,,,,,,,,,,,,,,,,,,,,,,,,,,,,,,,,,,,,,,,,,,,,,
,,,,,,,,,,,,a,1.645315,Incorrect,,,,,,t5.png,t2.png,3,0.0000131,21,female,2020-07-27_19h48.20.080,torte-2b,2020.1.3,Win32,60,13193,,,,,0,28,28,83,1,,,,,,,,,,,,,,,,,,,,,,,,,,,,,,,,,,,,,,,,,,,,,,,,,,,,,,,,
,,,,,,,,,,,,l,1.283235,Correct!,,,,,,t2.png,t4.png,2,0.059078,21,female,2020-07-27_19h48.20.080,torte-2b,2020.1.3,Win32,60,13193,,,,,0,29,29,18,1,,,,,,,,,,,,,,,,,,,,,,,,,,,,,,,,,,,,,,,,,,,,,,,,,,,,,,,,
,,,,,,,,,,,,a,1.23591,Correct!,,,,,,t4.png,t3.png,1,0.90855,21,female,2020-07-27_19h48.20.080,torte-2b,2020.1.3,Win32,60,13193,,,,,0,30,30,29,1,,,,,,,,,,,,,,,,,,,,,,,,,,,,,,,,,,,,,,,,,,,,,,,,,,,,,,,,
,,,,,,,,,,,,a,1.748255,Correct!,,,,,,t5.png,t4.png,1,0.90025,21,female,2020-07-27_19h48.20.080,torte-2b,2020.1.3,Win32,60,13193,,,,,0,31,31,38,1,,,,,,,,,,,,,,,,,,,,,,,,,,,,,,,,,,,,,,,,,,,,,,,,,,,,,,,,
,,,,,,,,,,,,l,1.115465,Incorrect,,,,,,t1.png,t2.png,1,0.9,21,female,2020-07-27_19h48.20.080,torte-2b,2020.1.3,Win32,60,13193,,,,,0,32,32,17,1,,,,,,,,,,,,,,,,,,,,,,,,,,,,,,,,,,,,,,,,,,,,,,,,,,,,,,,,
,,,,,,,,,,,,a,1.717865,Correct!,,,,,,t4.png,t5.png,1,0.90025,21,female,2020-07-27_19h48.20.080,torte-2b,2020.1.3,Win32,60,13193,,,,,0,33,33,63,1,,,,,,,,,,,,,,,,,,,,,,,,,,,,,,,,,,,,,,,,,,,,,,,,,,,,,,,,
,,,,,,,,,,,,l,1.29438,Incorrect,,,,,,t2.png,t1.png,1,0.90025,21,female,2020-07-27_19h48.20.080,torte-2b,2020.1.3,Win32,60,13193,,,,,0,34,34,65,1,,,,,,,,,,,,,,,,,,,,,,,,,,,,,,,,,,,,,,,,,,,,,,,,,,,,,,,,
,,,,,,,,,,,,l,1.318715,Correct!,,,,,,t5.png,t1.png,4,9.55E-11,21,female,2020-07-27_19h48.20.080,torte-2b,2020.1.3,Win32,60,13193,,,,,0,35,35,117,1,,,,,,,,,,,,,,,,,,,,,,,,,,,,,,,,,,,,,,,,,,,,,,,,,,,,,,,,
,,,,,,,,,,,,l,0.832555,Correct!,,,,,,t4.png,t1.png,3,0.0000131,21,female,2020-07-27_19h48.20.080,torte-2b,2020.1.3,Win32,60,13193,,,,,0,36,36,28,1,,,,,,,,,,,,,,,,,,,,,,,,,,,,,,,,,,,,,,,,,,,,,,,,,,,,,,,,
,,,,,,,,,,,,a,0.721555,Correct!,,,,,,t5.png,t4.png,1,0.9,21,female,2020-07-27_19h48.20.080,torte-2b,2020.1.3,Win32,60,13193,,,,,0,37,37,92,1,,,,,,,,,,,,,,,,,,,,,,,,,,,,,,,,,,,,,,,,,,,,,,,,,,,,,,,,
,,,,,,,,,,,,a,0.85239,Incorrect,,,,,,t1.png,t4.png,3,0.0000131,21,female,2020-07-27_19h48.20.080,torte-2b,2020.1.3,Win32,60,13193,,,,,0,38,38,23,1,,,,,,,,,,,,,,,,,,,,,,,,,,,,,,,,,,,,,,,,,,,,,,,,,,,,,,,,
,,,,,,,,,,,,l,0.702095,Correct!,,,,,,t4.png,t1.png,3,0.0000131,21,female,2020-07-27_19h48.20.080,torte-2b,2020.1.3,Win32,60,13193,,,,,0,39,39,91,1,,,,,,,,,,,,,,,,,,,,,,,,,,,,,,,,,,,,,,,,,,,,,,,,,,,,,,,,
,,,,,,,,,,,,a,0.84475,Correct!,,,,,,t4.png,t4.png,0,0.98115,21,female,2020-07-27_19h48.20.080,torte-2b,2020.1.3,Win32,60,13193,,,,,0,40,40,88,1,,,,,,,,,,,,,,,,,,,,,,,,,,,,,,,,,,,,,,,,,,,,,,,,,,,,,,,,
,,,,,,,,,,,,a,0.557,Correct!,,,,,,t5.png,t5.png,0,0.97829,21,female,2020-07-27_19h48.20.080,torte-2b,2020.1.3,Win32,60,13193,,,,,0,41,41,2,1,,,,,,,,,,,,,,,,,,,,,,,,,,,,,,,,,,,,,,,,,,,,,,,,,,,,,,,,
,,,,,,,,,,,,a,1.415695,Incorrect,,,,,,t5.png,t2.png,3,0.0000131,21,female,2020-07-27_19h48.20.080,torte-2b,2020.1.3,Win32,60,13193,,,,,0,42,42,66,1,,,,,,,,,,,,,,,,,,,,,,,,,,,,,,,,,,,,,,,,,,,,,,,,,,,,,,,,
,,,,,,,,,,,,a,0.680185,Incorrect,,,,,,t3.png,t5.png,2,0.056466,21,female,2020-07-27_19h48.20.080,torte-2b,2020.1.3,Win32,60,13193,,,,,0,43,43,78,1,,,,,,,,,,,,,,,,,,,,,,,,,,,,,,,,,,,,,,,,,,,,,,,,,,,,,,,,
,,,,,,,,,,,,l,0.97561,Correct!,,,,,,t1.png,t5.png,4,9.55E-11,21,female,2020-07-27_19h48.20.080,torte-2b,2020.1.3,Win32,60,13193,,,,,0,44,44,3,1,,,,,,,,,,,,,,,,,,,,,,,,,,,,,,,,,,,,,,,,,,,,,,,,,,,,,,,,
,,,,,,,,,,,,l,0.865975,Incorrect,,,,,,t1.png,t3.png,2,0.056466,21,female,2020-07-27_19h48.20.080,torte-2b,2020.1.3,Win32,60,13193,,,,,0,45,45,32,1,,,,,,,,,,,,,,,,,,,,,,,,,,,,,,,,,,,,,,,,,,,,,,,,,,,,,,,,
,,,,,,,,,,,,l,0.747835,Correct!,,,,,,t1.png,t5.png,4,9.55E-11,21,female,2020-07-27_19h48.20.080,torte-2b,2020.1.3,Win32,60,13193,,,,,0,46,46,20,1,,,,,,,,,,,,,,,,,,,,,,,,,,,,,,,,,,,,,,,,,,,,,,,,,,,,,,,,
,,,,,,,,,,,,a,0.899085,Correct!,,,,,,t4.png,t3.png,1,0.909,21,female,2020-07-27_19h48.20.080,torte-2b,2020.1.3,Win32,60,13193,,,,,0,47,47,119,1,,,,,,,,,,,,,,,,,,,,,,,,,,,,,,,,,,,,,,,,,,,,,,,,,,,,,,,,
,,,,,,,,,,,,l,0.649135,Incorrect,,,,,,t1.png,t1.png,0,0.97829,21,female,2020-07-27_19h48.20.080,torte-2b,2020.1.3,Win32,60,13193,,,,,0,48,48,114,1,,,,,,,,,,,,,,,,,,,,,,,,,,,,,,,,,,,,,,,,,,,,,,,,,,,,,,,,
,,,,,,,,,,,,l,0.81723,Correct!,,,,,,t3.png,t1.png,2,0.056466,21,female,2020-07-27_19h48.20.080,torte-2b,2020.1.3,Win32,60,13193,,,,,0,49,49,34,1,,,,,,,,,,,,,,,,,,,,,,,,,,,,,,,,,,,,,,,,,,,,,,,,,,,,,,,,
,,,,,,,,,,,,a,1.433155,Correct!,,,,,,t4.png,t5.png,1,0.90025,21,female,2020-07-27_19h48.20.080,torte-2b,2020.1.3,Win32,60,13193,,,,,0,50,50,86,1,,,,,,,,,,,,,,,,,,,,,,,,,,,,,,,,,,,,,,,,,,,,,,,,,,,,,,,,
,,,,,,,,,,,,l,1.01976,Correct!,,,,,,t1.png,t3.png,2,0.0565,21,female,2020-07-27_19h48.20.080,torte-2b,2020.1.3,Win32,60,13193,,,,,0,51,51,12,1,,,,,,,,,,,,,,,,,,,,,,,,,,,,,,,,,,,,,,,,,,,,,,,,,,,,,,,,
,,,,,,,,,,,,l,0.69196,Correct!,,,,,,t4.png,t1.png,3,0.059078,21,female,2020-07-27_19h48.20.080,torte-2b,2020.1.3,Win32,60,13193,,,,,0,52,52,73,1,,,,,,,,,,,,,,,,,,,,,,,,,,,,,,,,,,,,,,,,,,,,,,,,,,,,,,,,
,,,,,,,,,,,,a,1.1367,Incorrect,,,,,,t2.png,t5.png,3,0.0000131,21,female,2020-07-27_19h48.20.080,torte-2b,2020.1.3,Win32,60,13193,,,,,0,53,53,54,1,,,,,,,,,,,,,,,,,,,,,,,,,,,,,,,,,,,,,,,,,,,,,,,,,,,,,,,,
,,,,,,,,,,,,l,0.79797,Incorrect,,,,,,t2.png,t1.png,1,0.90025,21,female,2020-07-27_19h48.20.080,torte-2b,2020.1.3,Win32,60,13193,,,,,0,54,54,44,1,,,,,,,,,,,,,,,,,,,,,,,,,,,,,,,,,,,,,,,,,,,,,,,,,,,,,,,,
,,,,,,,,,,,,l,1.079555,Incorrect,,,,,,t2.png,t3.png,1,0.90855,21,female,2020-07-27_19h48.20.080,torte-2b,2020.1.3,Win32,60,13193,,,,,0,55,55,70,1,,,,,,,,,,,,,,,,,,,,,,,,,,,,,,,,,,,,,,,,,,,,,,,,,,,,,,,,
,,,,,,,,,,,,l,0.817945,Incorrect,,,,,,t2.png,t1.png,1,0.9,21,female,2020-07-27_19h48.20.080,torte-2b,2020.1.3,Win32,60,13193,,,,,0,56,56,100,1,,,,,,,,,,,,,,,,,,,,,,,,,,,,,,,,,,,,,,,,,,,,,,,,,,,,,,,,
,,,,,,,,,,,,a,0.71907,Correct!,,,,,,t1.png,t1.png,0,0.978,21,female,2020-07-27_19h48.20.080,torte-2b,2020.1.3,Win32,60,13193,,,,,0,57,57,13,1,,,,,,,,,,,,,,,,,,,,,,,,,,,,,,,,,,,,,,,,,,,,,,,,,,,,,,,,
,,,,,,,,,,,,a,1.420445,Correct!,,,,,,t4.png,t3.png,1,0.90855,21,female,2020-07-27_19h48.20.080,torte-2b,2020.1.3,Win32,60,13193,,,,,0,58,58,11,1,,,,,,,,,,,,,,,,,,,,,,,,,,,,,,,,,,,,,,,,,,,,,,,,,,,,,,,,
,,,,,,,,,,,,a,0.702635,Correct!,,,,,,t5.png,t5.png,0,0.978,21,female,2020-07-27_19h48.20.080,torte-2b,2020.1.3,Win32,60,13193,,,,,0,59,59,116,1,,,,,,,,,,,,,,,,,,,,,,,,,,,,,,,,,,,,,,,,,,,,,,,,,,,,,,,,
,,,,,,,,,,,,l,0.836595,Correct!,,,,,,t1.png,t4.png,3,0.0000131,21,female,2020-07-27_19h48.20.080,torte-2b,2020.1.3,Win32,60,13193,,,,,0,60,60,36,1,,,,,,,,,,,,,,,,,,,,,,,,,,,,,,,,,,,,,,,,,,,,,,,,,,,,,,,,
,,,,,,,,,,,,a,1.052815,Incorrect,,,,,,t2.png,t5.png,3,0.0000131,21,female,2020-07-27_19h48.20.080,torte-2b,2020.1.3,Win32,60,13193,,,,,0,61,61,46,1,,,,,,,,,,,,,,,,,,,,,,,,,,,,,,,,,,,,,,,,,,,,,,,,,,,,,,,,
,,,,,,,,,,,,a,0.82269,Correct!,,,,,,t4.png,t4.png,0,0.98115,21,female,2020-07-27_19h48.20.080,torte-2b,2020.1.3,Win32,60,13193,,,,,0,62,62,68,1,,,,,,,,,,,,,,,,,,,,,,,,,,,,,,,,,,,,,,,,,,,,,,,,,,,,,,,,
,,,,,,,,,,,,a,1.418205,Correct!,,,,,,t1.png,t2.png,1,0.9,21,female,2020-07-27_19h48.20.080,torte-2b,2020.1.3,Win32,60,13193,,,,,0,63,63,41,1,,,,,,,,,,,,,,,,,,,,,,,,,,,,,,,,,,,,,,,,,,,,,,,,,,,,,,,,
,,,,,,,,,,,,a,0.701485,Correct!,,,,,,t5.png,t4.png,1,0.90025,21,female,2020-07-27_19h48.20.080,torte-2b,2020.1.3,Win32,60,13193,,,,,0,64,64,25,1,,,,,,,,,,,,,,,,,,,,,,,,,,,,,,,,,,,,,,,,,,,,,,,,,,,,,,,,
,,,,,,,,,,,,a,1.40197,Incorrect,,,,,,t2.png,t5.png,3,0.0000131,21,female,2020-07-27_19h48.20.080,torte-2b,2020.1.3,Win32,60,13193,,,,,0,65,65,39,1,,,,,,,,,,,,,,,,,,,,,,,,,,,,,,,,,,,,,,,,,,,,,,,,,,,,,,,,
,,,,,,,,,,,,l,0.73285,Correct!,,,,,,t1.png,t4.png,3,0.0000131,21,female,2020-07-27_19h48.20.080,torte-2b,2020.1.3,Win32,60,13193,,,,,0,66,66,106,1,,,,,,,,,,,,,,,,,,,,,,,,,,,,,,,,,,,,,,,,,,,,,,,,,,,,,,,,
,,,,,,,,,,,,l,0.566105,Incorrect,,,,,,t1.png,t1.png,0,0.97829,21,female,2020-07-27_19h48.20.080,torte-2b,2020.1.3,Win32,60,13193,,,,,0,67,67,110,1,,,,,,,,,,,,,,,,,,,,,,,,,,,,,,,,,,,,,,,,,,,,,,,,,,,,,,,,
,,,,,,,,,,,,a,0.66314,Incorrect,,,,,,t5.png,t3.png,2,0.0565,21,female,2020-07-27_19h48.20.080,torte-2b,2020.1.3,Win32,60,13193,,,,,0,68,68,50,1,,,,,,,,,,,,,,,,,,,,,,,,,,,,,,,,,,,,,,,,,,,,,,,,,,,,,,,,
,,,,,,,,,,,,a,0.83166,Correct!,,,,,,t5.png,t5.png,0,0.978,21,female,2020-07-27_19h48.20.080,torte-2b,2020.1.3,Win32,60,13193,,,,,0,69,69,51,1,,,,,,,,,,,,,,,,,,,,,,,,,,,,,,,,,,,,,,,,,,,,,,,,,,,,,,,,
,,,,,,,,,,,,l,1.35125,Correct!,,,,,,t5.png,t1.png,4,9.55E-11,21,female,2020-07-27_19h48.20.080,torte-2b,2020.1.3,Win32,60,13193,,,,,0,70,70,89,1,,,,,,,,,,,,,,,,,,,,,,,,,,,,,,,,,,,,,,,,,,,,,,,,,,,,,,,,
,,,,,,,,,,,,a,2.158305,Correct!,,,,,,t3.png,t4.png,1,0.90855,21,female,2020-07-27_19h48.20.080,torte-2b,2020.1.3,Win32,60,13193,,,,,0,71,71,111,1,,,,,,,,,,,,,,,,,,,,,,,,,,,,,,,,,,,,,,,,,,,,,,,,,,,,,,,,
,,,,,,,,,,,,a,0.8824,Correct!,,,,,,t4.png,t4.png,0,0.98115,21,female,2020-07-27_19h48.20.080,torte-2b,2020.1.3,Win32,60,13193,,,,,0,72,72,19,1,,,,,,,,,,,,,,,,,,,,,,,,,,,,,,,,,,,,,,,,,,,,,,,,,,,,,,,,
,,,,,,,,,,,,l,1.12112,Correct!,,,,,,t4.png,t1.png,3,0.059078,21,female,2020-07-27_19h48.20.080,torte-2b,2020.1.3,Win32,60,13193,,,,,0,73,73,57,1,,,,,,,,,,,,,,,,,,,,,,,,,,,,,,,,,,,,,,,,,,,,,,,,,,,,,,,,
,,,,,,,,,,,,l,1.77115,Incorrect,,,,,,t2.png,t2.png,0,0.98115,21,female,2020-07-27_19h48.20.080,torte-2b,2020.1.3,Win32,60,13193,,,,,0,74,74,112,1,,,,,,,,,,,,,,,,,,,,,,,,,,,,,,,,,,,,,,,,,,,,,,,,,,,,,,,,
,,,,,,,,,,,,a,2.0006,Correct!,,,,,,t4.png,t3.png,1,0.909,21,female,2020-07-27_19h48.20.080,torte-2b,2020.1.3,Win32,60,13193,,,,,0,75,75,107,1,,,,,,,,,,,,,,,,,,,,,,,,,,,,,,,,,,,,,,,,,,,,,,,,,,,,,,,,
,,,,,,,,,,,,l,1.010425,Incorrect,,,,,,t3.png,t2.png,1,0.90855,21,female,2020-07-27_19h48.20.080,torte-2b,2020.1.3,Win32,60,13193,,,,,0,76,76,10,1,,,,,,,,,,,,,,,,,,,,,,,,,,,,,,,,,,,,,,,,,,,,,,,,,,,,,,,,
,,,,,,,,,,,,a,0.8223,Correct!,,,,,,t5.png,t4.png,1,0.90025,21,female,2020-07-27_19h48.20.080,torte-2b,2020.1.3,Win32,60,13193,,,,,0,77,77,14,1,,,,,,,,,,,,,,,,,,,,,,,,,,,,,,,,,,,,,,,,,,,,,,,,,,,,,,,,
,,,,,,,,,,,,l,0.801405,Incorrect,,,,,,t2.png,t1.png,1,0.90025,21,female,2020-07-27_19h48.20.080,torte-2b,2020.1.3,Win32,60,13193,,,,,0,78,78,105,1,,,,,,,,,,,,,,,,,,,,,,,,,,,,,,,,,,,,,,,,,,,,,,,,,,,,,,,,
,,,,,,,,,,,,l,0.589435,Incorrect,,,,,,t1.png,t2.png,1,0.90025,21,female,2020-07-27_19h48.20.080,torte-2b,2020.1.3,Win32,60,13193,,,,,0,79,79,96,1,,,,,,,,,,,,,,,,,,,,,,,,,,,,,,,,,,,,,,,,,,,,,,,,,,,,,,,,
,,,,,,,,,,,,l,1.074325,Correct!,,,,,,t5.png,t1.png,4,9.55E-11,21,female,2020-07-27_19h48.20.080,torte-2b,2020.1.3,Win32,60,13193,,,,,0,80,80,31,1,,,,,,,,,,,,,,,,,,,,,,,,,,,,,,,,,,,,,,,,,,,,,,,,,,,,,,,,
,,,,,,,,,,,,a,2.26596,Incorrect,,,,,,t2.png,t5.png,3,0.0000131,21,female,2020-07-27_19h48.20.080,torte-2b,2020.1.3,Win32,60,13193,,,,,0,81,81,115,1,,,,,,,,,,,,,,,,,,,,,,,,,,,,,,,,,,,,,,,,,,,,,,,,,,,,,,,,
,,,,,,,,,,,,a,0.866195,Incorrect,,,,,,t5.png,t2.png,3,0.0000131,21,female,2020-07-27_19h48.20.080,torte-2b,2020.1.3,Win32,60,13193,,,,,0,82,82,43,1,,,,,,,,,,,,,,,,,,,,,,,,,,,,,,,,,,,,,,,,,,,,,,,,,,,,,,,,
,,,,,,,,,,,,a,0.735675,Correct!,,,,,,t5.png,t4.png,1,0.9,21,female,2020-07-27_19h48.20.080,torte-2b,2020.1.3,Win32,60,13193,,,,,0,83,83,55,1,,,,,,,,,,,,,,,,,,,,,,,,,,,,,,,,,,,,,,,,,,,,,,,,,,,,,,,,
,,,,,,,,,,,,a,0.61599,Incorrect,,,,,,t5.png,t3.png,2,0.056466,21,female,2020-07-27_19h48.20.080,torte-2b,2020.1.3,Win32,60,13193,,,,,0,84,84,27,1,,,,,,,,,,,,,,,,,,,,,,,,,,,,,,,,,,,,,,,,,,,,,,,,,,,,,,,,
,,,,,,,,,,,,l,1.232645,Correct!,,,,,,t2.png,t4.png,2,0.059078,21,female,2020-07-27_19h48.20.080,torte-2b,2020.1.3,Win32,60,13193,,,,,0,85,85,84,1,,,,,,,,,,,,,,,,,,,,,,,,,,,,,,,,,,,,,,,,,,,,,,,,,,,,,,,,
,,,,,,,,,,,,l,0.949385,Correct!,,,,,,t5.png,t1.png,4,9.55E-11,21,female,2020-07-27_19h48.20.080,torte-2b,2020.1.3,Win32,60,13193,,,,,0,86,86,15,1,,,,,,,,,,,,,,,,,,,,,,,,,,,,,,,,,,,,,,,,,,,,,,,,,,,,,,,,
,,,,,,,,,,,,l,2.36072,Correct!,,,,,,t4.png,t1.png,3,0.059078,21,female,2020-07-27_19h48.20.080,torte-2b,2020.1.3,Win32,60,13193,,,,,0,87,87,62,1,,,,,,,,,,,,,,,,,,,,,,,,,,,,,,,,,,,,,,,,,,,,,,,,,,,,,,,,
,,,,,,,,,,,,a,0.681005,Incorrect,,,,,,t5.png,t3.png,2,0.056466,21,female,2020-07-27_19h48.20.080,torte-2b,2020.1.3,Win32,60,13193,,,,,0,88,88,26,1,,,,,,,,,,,,,,,,,,,,,,,,,,,,,,,,,,,,,,,,,,,,,,,,,,,,,,,,
,,,,,,,,,,,,l,1.600955,Correct!,,,,,,t3.png,t1.png,2,0.056466,21,female,2020-07-27_19h48.20.080,torte-2b,2020.1.3,Win32,60,13193,,,,,0,89,89,109,1,,,,,,,,,,,,,,,,,,,,,,,,,,,,,,,,,,,,,,,,,,,,,,,,,,,,,,,,
,,,,,,,,,,,,l,0.59852,Correct!,,,,,,t4.png,t1.png,3,0.0000131,21,female,2020-07-27_19h48.20.080,torte-2b,2020.1.3,Win32,60,13193,,,,,0,90,90,76,1,,,,,,,,,,,,,,,,,,,,,,,,,,,,,,,,,,,,,,,,,,,,,,,,,,,,,,,,
,,,,,,,,,,,,a,0.73396,Incorrect,,,,,,t5.png,t3.png,2,0.056466,21,female,2020-07-27_19h48.20.080,torte-2b,2020.1.3,Win32,60,13193,,,,,0,91,91,37,1,,,,,,,,,,,,,,,,,,,,,,,,,,,,,,,,,,,,,,,,,,,,,,,,,,,,,,,,
,,,,,,,,,,,,a,1.2321,Correct!,,,,,,t2.png,t3.png,1,0.90855,21,female,2020-07-27_19h48.20.080,torte-2b,2020.1.3,Win32,60,13193,,,,,0,92,92,113,1,,,,,,,,,,,,,,,,,,,,,,,,,,,,,,,,,,,,,,,,,,,,,,,,,,,,,,,,
,,,,,,,,,,,,l,0.94981,Correct!,,,,,,t1.png,t3.png,2,0.056466,21,female,2020-07-27_19h48.20.080,torte-2b,2020.1.3,Win32,60,13193,,,,,0,93,93,24,1,,,,,,,,,,,,,,,,,,,,,,,,,,,,,,,,,,,,,,,,,,,,,,,,,,,,,,,,
,,,,,,,,,,,,l,1.11578,Correct!,,,,,,t3.png,t1.png,2,0.0565,21,female,2020-07-27_19h48.20.080,torte-2b,2020.1.3,Win32,60,13193,,,,,0,94,94,104,1,,,,,,,,,,,,,,,,,,,,,,,,,,,,,,,,,,,,,,,,,,,,,,,,,,,,,,,,
,,,,,,,,,,,,l,0.51067,Correct!,,,,,,t3.png,t1.png,2,0.0565,21,female,2020-07-27_19h48.20.080,torte-2b,2020.1.3,Win32,60,13193,,,,,0,95,95,40,1,,,,,,,,,,,,,,,,,,,,,,,,,,,,,,,,,,,,,,,,,,,,,,,,,,,,,,,,
,,,,,,,,,,,,l,0.84475,Correct!,,,,,,t1.png,t4.png,3,0.0000131,21,female,2020-07-27_19h48.20.080,torte-2b,2020.1.3,Win32,60,13193,,,,,0,96,96,74,1,,,,,,,,,,,,,,,,,,,,,,,,,,,,,,,,,,,,,,,,,,,,,,,,,,,,,,,,
,,,,,,,,,,,,a,1.201875,Correct!,,,,,,t3.png,t4.png,1,0.90855,21,female,2020-07-27_19h48.20.080,torte-2b,2020.1.3,Win32,60,13193,,,,,0,97,97,9,1,,,,,,,,,,,,,,,,,,,,,,,,,,,,,,,,,,,,,,,,,,,,,,,,,,,,,,,,
,,,,,,,,,,,,l,0.832535,Incorrect,,,,,,t3.png,t2.png,1,0.90855,21,female,2020-07-27_19h48.20.080,torte-2b,2020.1.3,Win32,60,13193,,,,,0,98,98,108,1,,,,,,,,,,,,,,,,,,,,,,,,,,,,,,,,,,,,,,,,,,,,,,,,,,,,,,,,
,,,,,,,,,,,,l,0.635125,Correct!,,,,,,t1.png,t3.png,2,0.0565,21,female,2020-07-27_19h48.20.080,torte-2b,2020.1.3,Win32,60,13193,,,,,0,99,99,42,1,,,,,,,,,,,,,,,,,,,,,,,,,,,,,,,,,,,,,,,,,,,,,,,,,,,,,,,,
,,,,,,,,,,,,a,0.607315,Incorrect,,,,,,t5.png,t3.png,2,0.056466,21,female,2020-07-27_19h48.20.080,torte-2b,2020.1.3,Win32,60,13193,,,,,0,100,100,80,1,,,,,,,,,,,,,,,,,,,,,,,,,,,,,,,,,,,,,,,,,,,,,,,,,,,,,,,,
,,,,,,,,,,,,l,0.591365,Incorrect,,,,,,t1.png,t2.png,1,0.9,21,female,2020-07-27_19h48.20.080,torte-2b,2020.1.3,Win32,60,13193,,,,,0,101,101,61,1,,,,,,,,,,,,,,,,,,,,,,,,,,,,,,,,,,,,,,,,,,,,,,,,,,,,,,,,
,,,,,,,,,,,,l,0.805365,Incorrect,,,,,,t3.png,t2.png,1,0.90855,21,female,2020-07-27_19h48.20.080,torte-2b,2020.1.3,Win32,60,13193,,,,,0,102,102,0,1,,,,,,,,,,,,,,,,,,,,,,,,,,,,,,,,,,,,,,,,,,,,,,,,,,,,,,,,
,,,,,,,,,,,,l,0.61617,Incorrect,,,,,,t3.png,t2.png,1,0.90855,21,female,2020-07-27_19h48.20.080,torte-2b,2020.1.3,Win32,60,13193,,,,,0,103,103,94,1,,,,,,,,,,,,,,,,,,,,,,,,,,,,,,,,,,,,,,,,,,,,,,,,,,,,,,,,
,,,,,,,,,,,,a,0.65472,Correct!,,,,,,t2.png,t2.png,0,0.98115,21,female,2020-07-27_19h48.20.080,torte-2b,2020.1.3,Win32,60,13193,,,,,0,104,104,7,1,,,,,,,,,,,,,,,,,,,,,,,,,,,,,,,,,,,,,,,,,,,,,,,,,,,,,,,,
,,,,,,,,,,,,a,0.81557,Correct!,,,,,,t4.png,t4.png,0,0.98115,21,female,2020-07-27_19h48.20.080,torte-2b,2020.1.3,Win32,60,13193,,,,,0,105,105,59,1,,,,,,,,,,,,,,,,,,,,,,,,,,,,,,,,,,,,,,,,,,,,,,,,,,,,,,,,
,,,,,,,,,,,,l,0.799125,Incorrect,,,,,,t2.png,t3.png,1,0.90855,21,female,2020-07-27_19h48.20.080,torte-2b,2020.1.3,Win32,60,13193,,,,,0,106,106,79,1,,,,,,,,,,,,,,,,,,,,,,,,,,,,,,,,,,,,,,,,,,,,,,,,,,,,,,,,
,,,,,,,,,,,,l,0.605475,Incorrect,,,,,,t4.png,t5.png,1,0.9,21,female,2020-07-27_19h48.20.080,torte-2b,2020.1.3,Win32,60,13193,,,,,0,107,107,81,1,,,,,,,,,,,,,,,,,,,,,,,,,,,,,,,,,,,,,,,,,,,,,,,,,,,,,,,,
,,,,,,,,,,,,l,0.804465,Correct!,,,,,,t4.png,t1.png,3,0.0000131,21,female,2020-07-27_19h48.20.080,torte-2b,2020.1.3,Win32,60,13193,,,,,0,108,108,49,1,,,,,,,,,,,,,,,,,,,,,,,,,,,,,,,,,,,,,,,,,,,,,,,,,,,,,,,,
,,,,,,,,,,,,l,0.738535,Correct!,,,,,,t2.png,t4.png,2,0.059078,21,female,2020-07-27_19h48.20.080,torte-2b,2020.1.3,Win32,60,13193,,,,,0,109,109,67,1,,,,,,,,,,,,,,,,,,,,,,,,,,,,,,,,,,,,,,,,,,,,,,,,,,,,,,,,
,,,,,,,,,,,,l,0.776925,Correct!,,,,,,t4.png,t1.png,3,0.059078,21,female,2020-07-27_19h48.20.080,torte-2b,2020.1.3,Win32,60,13193,,,,,0,110,110,75,1,,,,,,,,,,,,,,,,,,,,,,,,,,,,,,,,,,,,,,,,,,,,,,,,,,,,,,,,
,,,,,,,,,,,,l,0.51605,Correct!,,,,,,t2.png,t4.png,2,0.059078,21,female,2020-07-27_19h48.20.080,torte-2b,2020.1.3,Win32,60,13193,,,,,0,111,111,97,1,,,,,,,,,,,,,,,,,,,,,,,,,,,,,,,,,,,,,,,,,,,,,,,,,,,,,,,,
,,,,,,,,,,,,a,0.794895,Correct!,,,,,,t4.png,t4.png,0,0.98115,21,female,2020-07-27_19h48.20.080,torte-2b,2020.1.3,Win32,60,13193,,,,,0,112,112,52,1,,,,,,,,,,,,,,,,,,,,,,,,,,,,,,,,,,,,,,,,,,,,,,,,,,,,,,,,
,,,,,,,,,,,,l,0.66905,Correct!,,,,,,t1.png,t5.png,4,9.55E-11,21,female,2020-07-27_19h48.20.080,torte-2b,2020.1.3,Win32,60,13193,,,,,0,113,113,1,1,,,,,,,,,,,,,,,,,,,,,,,,,,,,,,,,,,,,,,,,,,,,,,,,,,,,,,,,
,,,,,,,,,,,,a,0.95042,Correct!,,,,,,t2.png,t3.png,1,0.90855,21,female,2020-07-27_19h48.20.080,torte-2b,2020.1.3,Win32,60,13193,,,,,0,114,114,64,1,,,,,,,,,,,,,,,,,,,,,,,,,,,,,,,,,,,,,,,,,,,,,,,,,,,,,,,,
,,,,,,,,,,,,a,1.048985,Incorrect,,,,,,t3.png,t5.png,2,0.056466,21,female,2020-07-27_19h48.20.080,torte-2b,2020.1.3,Win32,60,13193,,,,,0,115,115,47,1,,,,,,,,,,,,,,,,,,,,,,,,,,,,,,,,,,,,,,,,,,,,,,,,,,,,,,,,
,,,,,,,,,,,,l,1.08696,Correct!,,,,,,t1.png,t4.png,3,0.0000131,21,female,2020-07-27_19h48.20.080,torte-2b,2020.1.3,Win32,60,13193,,,,,0,116,116,16,1,,,,,,,,,,,,,,,,,,,,,,,,,,,,,,,,,,,,,,,,,,,,,,,,,,,,,,,,
,,,,,,,,,,,,l,0.638255,Correct!,,,,,,t4.png,t1.png,3,0.0000131,21,female,2020-07-27_19h48.20.080,torte-2b,2020.1.3,Win32,60,13193,,,,,0,117,117,102,1,,,,,,,,,,,,,,,,,,,,,,,,,,,,,,,,,,,,,,,,,,,,,,,,,,,,,,,,
,,,,,,,,,,,,l,0.698945,Correct!,,,,,,t1.png,t5.png,4,9.55E-11,21,female,2020-07-27_19h48.20.080,torte-2b,2020.1.3,Win32,60,13193,,,,,0,118,118,30,1,,,,,,,,,,,,,,,,,,,,,,,,,,,,,,,,,,,,,,,,,,,,,,,,,,,,,,,,
,,,,,,,,,,,,l,0.915185,Correct!,,,,,,t1.png,t3.png,2,0.0565,21,female,2020-07-27_19h48.20.080,torte-2b,2020.1.3,Win32,60,13193,,,,,0,119,119,95,1,,,,,,,,,,,,,,,,,,,,,,,,,,,,,,,,,,,,,,,,,,,,,,,,,,,,,,,,
,,,,,,,,,,,,,,,,,,,,,,,,21,female,2020-07-27_19h48.20.080,torte-2b,2020.1.3,Win32,60,13193,space,2.07941,,,,,,,,space,36.818385,,0,0,0,0,1,6,,,,,,,,,,,,,,,,,,,,,,,,,,,,,,,,,,,,,,,,,,,,,,,
,,,,,,,,,,,,,,,,,,,,,,,,21,female,2020-07-27_19h48.20.080,torte-2b,2020.1.3,Win32,60,13193,,,,,,,,,,,,,0,1,1,1,1,7,,,,,,,,,,,,,,,,,,,,,,,,,,,,,,,,,,,,,,,,,,,,,,,
,,,,,,,,,,,,,,,,,,,,,,,,21,female,2020-07-27_19h48.20.080,torte-2b,2020.1.3,Win32,60,13193,,,,,,,,,,,,space,0,2,2,2,1,6,0.372795,,,,,,,,,,,,,,,,,,,,,,,,,,,,,,,,,,,,,,,,,,,,,,
,,,,,,,,,,,,,,,,,,,,,,,,21,female,2020-07-27_19h48.20.080,torte-2b,2020.1.3,Win32,60,13193,,,,,,,,,,,,space,0,3,3,3,1,7,0.36183,,,,,,,,,,,,,,,,,,,,,,,,,,,,,,,,,,,,,,,,,,,,,,
,,,,,,,,,,,,,,,,,,,,,,,,21,female,2020-07-27_19h48.20.080,torte-2b,2020.1.3,Win32,60,13193,,,,,,,,,,,,,0,4,4,4,1,5,,,,,,,,,,,,,,,,,,,,,,,,,,,,,,,,,,,,,,,,,,,,,,,
,,,,,,,,,,,,,,,,,,,,,,,,21,female,2020-07-27_19h48.20.080,torte-2b,2020.1.3,Win32,60,13193,,,,,,,,,,,,space,0,5,5,5,1,7,0.384615,,,,,,,,,,,,,,,,,,,,,,,,,,,,,,,,,,,,,,,,,,,,,,
,,,,,,,,,,,,,,,,,,,,,,,,21,female,2020-07-27_19h48.20.080,torte-2b,2020.1.3,Win32,60,13193,,,,,,,,,,,,,0,6,6,6,1,2,,,,,,,,,,,,,,,,,,,,,,,,,,,,,,,,,,,,,,,,,,,,,,,
,,,,,,,,,,,,,,,,,,,,,,,,21,female,2020-07-27_19h48.20.080,torte-2b,2020.1.3,Win32,60,13193,,,,,,,,,,,,,0,7,7,7,1,4,,,,,,,,,,,,,,,,,,,,,,,,,,,,,,,,,,,,,,,,,,,,,,,
,,,,,,,,,,,,,,,,,,,,,,,,21,female,2020-07-27_19h48.20.080,torte-2b,2020.1.3,Win32,60,13193,,,,,,,,,,,,space,0,8,8,8,1,7,0.49867,,,,,,,,,,,,,,,,,,,,,,,,,,,,,,,,,,,,,,,,,,,,,,
,,,,,,,,,,,,,,,,,,,,,,,,21,female,2020-07-27_19h48.20.080,torte-2b,2020.1.3,Win32,60,13193,,,,,,,,,,,,,0,9,9,9,1,4,,,,,,,,,,,,,,,,,,,,,,,,,,,,,,,,,,,,,,,,,,,,,,,
,,,,,,,,,,,,,,,,,,,,,,,,21,female,2020-07-27_19h48.20.080,torte-2b,2020.1.3,Win32,60,13193,,,,,,,,,,,,,0,10,10,10,1,7,,,,,,,,,,,,,,,,,,,,,,,,,,,,,,,,,,,,,,,,,,,,,,,
,,,,,,,,,,,,,,,,,,,,,,,,21,female,2020-07-27_19h48.20.080,torte-2b,2020.1.3,Win32,60,13193,,,,,,,,,,,,,0,11,11,11,1,7,,,,,,,,,,,,,,,,,,,,,,,,,,,,,,,,,,,,,,,,,,,,,,,
,,,,,,,,,,,,,,,,,,,,,,,,21,female,2020-07-27_19h48.20.080,torte-2b,2020.1.3,Win32,60,13193,,,,,,,,,,,,space,0,12,12,12,1,7,0.41691,,,,,,,,,,,,,,,,,,,,,,,,,,,,,,,,,,,,,,,,,,,,,,
,,,,,,,,,,,,,,,,,,,,,,,,21,female,2020-07-27_19h48.20.080,torte-2b,2020.1.3,Win32,60,13193,,,,,,,,,,,,,0,13,13,13,1,4,,,,,,,,,,,,,,,,,,,,,,,,,,,,,,,,,,,,,,,,,,,,,,,
,,,,,,,,,,,,,,,,,,,,,,,,21,female,2020-07-27_19h48.20.080,torte-2b,2020.1.3,Win32,60,13193,,,,,,,,,,,,,0,14,14,14,1,6,,,,,,,,,,,,,,,,,,,,,,,,,,,,,,,,,,,,,,,,,,,,,,,
,,,,,,,,,,,,,,,,,,,,,,,,21,female,2020-07-27_19h48.20.080,torte-2b,2020.1.3,Win32,60,13193,,,,,,,,,,,,space,0,15,15,15,1,4,0.34655,,,,,,,,,,,,,,,,,,,,,,,,,,,,,,,,,,,,,,,,,,,,,,
,,,,,,,,,,,,,,,,,,,,,,,,21,female,2020-07-27_19h48.20.080,torte-2b,2020.1.3,Win32,60,13193,,,,,,,,,,,,,0,16,16,16,1,6,,,,,,,,,,,,,,,,,,,,,,,,,,,,,,,,,,,,,,,,,,,,,,,
,,,,,,,,,,,,,,,,,,,,,,,,21,female,2020-07-27_19h48.20.080,torte-2b,2020.1.3,Win32,60,13193,,,,,,,,,,,,,0,17,17,17,1,7,,,,,,,,,,,,,,,,,,,,,,,,,,,,,,,,,,,,,,,,,,,,,,,
,,,,,,,,,,,,,,,,,,,,,,,,21,female,2020-07-27_19h48.20.080,torte-2b,2020.1.3,Win32,60,13193,,,,,,,,,,,,space,0,18,18,18,1,6,0.430725,,,,,,,,,,,,,,,,,,,,,,,,,,,,,,,,,,,,,,,,,,,,,,
,,,,,,,,,,,,,,,,,,,,,,,,21,female,2020-07-27_19h48.20.080,torte-2b,2020.1.3,Win32,60,13193,,,,,,,,,,,,,0,19,19,19,1,7,,,,,,,,,,,,,,,,,,,,,,,,,,,,,,,,,,,,,,,,,,,,,,,
,,,,,,,,,,,,,,,,,,,,,,,,21,female,2020-07-27_19h48.20.080,torte-2b,2020.1.3,Win32,60,13193,,,,,,,,,,,,,0,20,20,20,1,5,,,,,,,,,,,,,,,,,,,,,,,,,,,,,,,,,,,,,,,,,,,,,,,
,,,,,,,,,,,,,,,,,,,,,,,,21,female,2020-07-27_19h48.20.080,torte-2b,2020.1.3,Win32,60,13193,,,,,,,,,,,,,0,21,21,21,1,1,,,,,,,,,,,,,,,,,,,,,,,,,,,,,,,,,,,,,,,,,,,,,,,
,,,,,,,,,,,,,,,,,,,,,,,,21,female,2020-07-27_19h48.20.080,torte-2b,2020.1.3,Win32,60,13193,,,,,,,,,,,,,0,22,22,22,1,6,,,,,,,,,,,,,,,,,,,,,,,,,,,,,,,,,,,,,,,,,,,,,,,
,,,,,,,,,,,,,,,,,,,,,,,,21,female,2020-07-27_19h48.20.080,torte-2b,2020.1.3,Win32,60,13193,,,,,,,,,,,,space,0,23,23,23,1,1,0.270615,,,,,,,,,,,,,,,,,,,,,,,,,,,,,,,,,,,,,,,,,,,,,,
,,,,,,,,,,,,,,,,,,,,,,,,21,female,2020-07-27_19h48.20.080,torte-2b,2020.1.3,Win32,60,13193,,,,,,,,,,,,space,0,24,24,24,1,5,0.63661,,,,,,,,,,,,,,,,,,,,,,,,,,,,,,,,,,,,,,,,,,,,,,
,,,,,,,,,,,,,,,,,,,,,,,,21,female,2020-07-27_19h48.20.080,torte-2b,2020.1.3,Win32,60,13193,,,,,,,,,,,,,0,25,25,25,1,6,,,,,,,,,,,,,,,,,,,,,,,,,,,,,,,,,,,,,,,,,,,,,,,
,,,,,,,,,,,,,,,,,,,,,,,,21,female,2020-07-27_19h48.20.080,torte-2b,2020.1.3,Win32,60,13193,,,,,,,,,,,,,0,26,26,26,1,6,,,,,,,,,,,,,,,,,,,,,,,,,,,,,,,,,,,,,,,,,,,,,,,
,,,,,,,,,,,,,,,,,,,,,,,,21,female,2020-07-27_19h48.20.080,torte-2b,2020.1.3,Win32,60,13193,,,,,,,,,,,,,0,27,27,27,1,6,,,,,,,,,,,,,,,,,,,,,,,,,,,,,,,,,,,,,,,,,,,,,,,
,,,,,,,,,,,,,,,,,,,,,,,,21,female,2020-07-27_19h48.20.080,torte-2b,2020.1.3,Win32,60,13193,,,,,,,,,,,,,0,28,28,28,1,5,,,,,,,,,,,,,,,,,,,,,,,,,,,,,,,,,,,,,,,,,,,,,,,
,,,,,,,,,,,,,,,,,,,,,,,,21,female,2020-07-27_19h48.20.080,torte-2b,2020.1.3,Win32,60,13193,,,,,,,,,,,,,0,29,29,29,1,2,,,,,,,,,,,,,,,,,,,,,,,,,,,,,,,,,,,,,,,,,,,,,,,
,,,,,,,,,,,,,,,,,,,,,,,,21,female,2020-07-27_19h48.20.080,torte-2b,2020.1.3,Win32,60,13193,,,,,,,,,,,,space,0,30,30,30,1,5,0.96774,,,,,,,,,,,,,,,,,,,,,,,,,,,,,,,,,,,,,,,,,,,,,,
,,,,,,,,,,,,,,,,,,,,,,,,21,female,2020-07-27_19h48.20.080,torte-2b,2020.1.3,Win32,60,13193,,,,,,,,,,,,,0,31,31,31,1,2,,,,,,,,,,,,,,,,,,,,,,,,,,,,,,,,,,,,,,,,,,,,,,,
,,,,,,,,,,,,,,,,,,,,,,,,21,female,2020-07-27_19h48.20.080,torte-2b,2020.1.3,Win32,60,13193,,,,,,,,,,,,,0,32,32,32,1,5,,,,,,,,,,,,,,,,,,,,,,,,,,,,,,,,,,,,,,,,,,,,,,,
,,,,,,,,,,,,,,,,,,,,,,,,21,female,2020-07-27_19h48.20.080,torte-2b,2020.1.3,Win32,60,13193,,,,,,,,,,,,,0,33,33,33,1,1,,,,,,,,,,,,,,,,,,,,,,,,,,,,,,,,,,,,,,,,,,,,,,,
,,,,,,,,,,,,,,,,,,,,,,,,21,female,2020-07-27_19h48.20.080,torte-2b,2020.1.3,Win32,60,13193,,,,,,,,,,,,,0,34,34,34,1,1,,,,,,,,,,,,,,,,,,,,,,,,,,,,,,,,,,,,,,,,,,,,,,,
,,,,,,,,,,,,,,,,,,,,,,,,21,female,2020-07-27_19h48.20.080,torte-2b,2020.1.3,Win32,60,13193,,,,,,,,,,,,,,,,,,2,,0,0,0,0,1,,,,,,,,,,,,,,,,,,,,,,,,,,,,,,,,,,,,,,,,,
,,,,,,,,,,,,,,,,,,,,,,,,21,female,2020-07-27_19h48.20.080,torte-2b,2020.1.3,Win32,60,13193,,,,,,,,,,,,,,,,,,2,,0,1,1,1,1,,,,,,,,,,,,,,,,,,,,,,,,,,,,,,,,,,,,,,,,,
,,,,,,,,,,,,,,,,,,,,,,,,21,female,2020-07-27_19h48.20.080,torte-2b,2020.1.3,Win32,60,13193,,,,,,,,,,,,,,,,,,6,,0,2,2,2,1,,,,,,,,,,,,,,,,,,,,,,,,,,,,,,,,,,,,,,,,,
,,,,,,,,,,,,,,,,,,,,,,,,21,female,2020-07-27_19h48.20.080,torte-2b,2020.1.3,Win32,60,13193,,,,,,,,,,,,space,,,,,,2,0.80628,0,3,3,3,1,,,,,,,,,,,,,,,,,,,,,,,,,,,,,,,,,,,,,,,,,
,,,,,,,,,,,,,,,,,,,,,,,,21,female,2020-07-27_19h48.20.080,torte-2b,2020.1.3,Win32,60,13193,,,,,,,,,,,,,,,,,,6,,0,4,4,4,1,,,,,,,,,,,,,,,,,,,,,,,,,,,,,,,,,,,,,,,,,
,,,,,,,,,,,,,,,,,,,,,,,,21,female,2020-07-27_19h48.20.080,torte-2b,2020.1.3,Win32,60,13193,,,,,,,,,,,,space,,,,,,2,0.739495,0,5,5,5,1,,,,,,,,,,,,,,,,,,,,,,,,,,,,,,,,,,,,,,,,,
,,,,,,,,,,,,,,,,,,,,,,,,21,female,2020-07-27_19h48.20.080,torte-2b,2020.1.3,Win32,60,13193,,,,,,,,,,,,,,,,,,7,,0,6,6,6,1,,,,,,,,,,,,,,,,,,,,,,,,,,,,,,,,,,,,,,,,,
,,,,,,,,,,,,,,,,,,,,,,,,21,female,2020-07-27_19h48.20.080,torte-2b,2020.1.3,Win32,60,13193,,,,,,,,,,,,space,,,,,,2,0.63497,0,7,7,7,1,,,,,,,,,,,,,,,,,,,,,,,,,,,,,,,,,,,,,,,,,
,,,,,,,,,,,,,,,,,,,,,,,,21,female,2020-07-27_19h48.20.080,torte-2b,2020.1.3,Win32,60,13193,,,,,,,,,,,,space,,,,,,7,0.90588,0,8,8,8,1,,,,,,,,,,,,,,,,,,,,,,,,,,,,,,,,,,,,,,,,,
,,,,,,,,,,,,,,,,,,,,,,,,21,female,2020-07-27_19h48.20.080,torte-2b,2020.1.3,Win32,60,13193,,,,,,,,,,,,,,,,,,2,,0,9,9,9,1,,,,,,,,,,,,,,,,,,,,,,,,,,,,,,,,,,,,,,,,,
,,,,,,,,,,,,,,,,,,,,,,,,21,female,2020-07-27_19h48.20.080,torte-2b,2020.1.3,Win32,60,13193,,,,,,,,,,,,,,,,,,5,,0,10,10,10,1,,,,,,,,,,,,,,,,,,,,,,,,,,,,,,,,,,,,,,,,,
,,,,,,,,,,,,,,,,,,,,,,,,21,female,2020-07-27_19h48.20.080,torte-2b,2020.1.3,Win32,60,13193,,,,,,,,,,,,,,,,,,4,,0,11,11,11,1,,,,,,,,,,,,,,,,,,,,,,,,,,,,,,,,,,,,,,,,,
,,,,,,,,,,,,,,,,,,,,,,,,21,female,2020-07-27_19h48.20.080,torte-2b,2020.1.3,Win32,60,13193,,,,,,,,,,,,space,,,,,,5,0.81232,0,12,12,12,1,,,,,,,,,,,,,,,,,,,,,,,,,,,,,,,,,,,,,,,,,
,,,,,,,,,,,,,,,,,,,,,,,,21,female,2020-07-27_19h48.20.080,torte-2b,2020.1.3,Win32,60,13193,,,,,,,,,,,,,,,,,,6,,0,13,13,13,1,,,,,,,,,,,,,,,,,,,,,,,,,,,,,,,,,,,,,,,,,
,,,,,,,,,,,,,,,,,,,,,,,,21,female,2020-07-27_19h48.20.080,torte-2b,2020.1.3,Win32,60,13193,,,,,,,,,,,,space,,,,,,5,0.95317,0,14,14,14,1,,,,,,,,,,,,,,,,,,,,,,,,,,,,,,,,,,,,,,,,,
,,,,,,,,,,,,,,,,,,,,,,,,21,female,2020-07-27_19h48.20.080,torte-2b,2020.1.3,Win32,60,13193,,,,,,,,,,,,space,,,,,,4,0.916675,0,15,15,15,1,,,,,,,,,,,,,,,,,,,,,,,,,,,,,,,,,,,,,,,,,
,,,,,,,,,,,,,,,,,,,,,,,,21,female,2020-07-27_19h48.20.080,torte-2b,2020.1.3,Win32,60,13193,,,,,,,,,,,,space,,,,,,5,1.501055,0,16,16,16,1,,,,,,,,,,,,,,,,,,,,,,,,,,,,,,,,,,,,,,,,,
,,,,,,,,,,,,,,,,,,,,,,,,21,female,2020-07-27_19h48.20.080,torte-2b,2020.1.3,Win32,60,13193,,,,,,,,,,,,,,,,,,3,,0,17,17,17,1,,,,,,,,,,,,,,,,,,,,,,,,,,,,,,,,,,,,,,,,,
,,,,,,,,,,,,,,,,,,,,,,,,21,female,2020-07-27_19h48.20.080,torte-2b,2020.1.3,Win32,60,13193,,,,,,,,,,,,,,,,,,6,,0,18,18,18,1,,,,,,,,,,,,,,,,,,,,,,,,,,,,,,,,,,,,,,,,,
,,,,,,,,,,,,,,,,,,,,,,,,21,female,2020-07-27_19h48.20.080,torte-2b,2020.1.3,Win32,60,13193,,,,,,,,,,,,,,,,,,6,,0,19,19,19,1,,,,,,,,,,,,,,,,,,,,,,,,,,,,,,,,,,,,,,,,,
,,,,,,,,,,,,,,,,,,,,,,,,21,female,2020-07-27_19h48.20.080,torte-2b,2020.1.3,Win32,60,13193,,,,,,,,,,,,space,,,,,,6,0.680595,0,20,20,20,1,,,,,,,,,,,,,,,,,,,,,,,,,,,,,,,,,,,,,,,,,
,,,,,,,,,,,,,,,,,,,,,,,,21,female,2020-07-27_19h48.20.080,torte-2b,2020.1.3,Win32,60,13193,,,,,,,,,,,,,,,,,,4,,0,21,21,21,1,,,,,,,,,,,,,,,,,,,,,,,,,,,,,,,,,,,,,,,,,
,,,,,,,,,,,,,,,,,,,,,,,,21,female,2020-07-27_19h48.20.080,torte-2b,2020.1.3,Win32,60,13193,,,,,,,,,,,,space,,,,,,6,0.763435,0,22,22,22,1,,,,,,,,,,,,,,,,,,,,,,,,,,,,,,,,,,,,,,,,,
,,,,,,,,,,,,,,,,,,,,,,,,21,female,2020-07-27_19h48.20.080,torte-2b,2020.1.3,Win32,60,13193,,,,,,,,,,,,space,,,,,,4,0.732805,0,23,23,23,1,,,,,,,,,,,,,,,,,,,,,,,,,,,,,,,,,,,,,,,,,
,,,,,,,,,,,,,,,,,,,,,,,,21,female,2020-07-27_19h48.20.080,torte-2b,2020.1.3,Win32,60,13193,,,,,,,,,,,,space,,,,,,6,1.53523,0,24,24,24,1,,,,,,,,,,,,,,,,,,,,,,,,,,,,,,,,,,,,,,,,,
,,,,,,,,,,,,,,,,,,,,,,,,21,female,2020-07-27_19h48.20.080,torte-2b,2020.1.3,Win32,60,13193,,,,,,,,,,,,,,,,,,6,,0,25,25,25,1,,,,,,,,,,,,,,,,,,,,,,,,,,,,,,,,,,,,,,,,,
,,,,,,,,,,,,,,,,,,,,,,,,21,female,2020-07-27_19h48.20.080,torte-2b,2020.1.3,Win32,60,13193,,,,,,,,,,,,,,,,,,7,,0,26,26,26,1,,,,,,,,,,,,,,,,,,,,,,,,,,,,,,,,,,,,,,,,,
,,,,,,,,,,,,,,,,,,,,,,,,21,female,2020-07-27_19h48.20.080,torte-2b,2020.1.3,Win32,60,13193,,,,,,,,,,,,,,,,,,1,,0,27,27,27,1,,,,,,,,,,,,,,,,,,,,,,,,,,,,,,,,,,,,,,,,,
,,,,,,,,,,,,,,,,,,,,,,,,21,female,2020-07-27_19h48.20.080,torte-2b,2020.1.3,Win32,60,13193,,,,,,,,,,,,space,,,,,,7,1.047365,0,28,28,28,1,,,,,,,,,,,,,,,,,,,,,,,,,,,,,,,,,,,,,,,,,
,,,,,,,,,,,,,,,,,,,,,,,,21,female,2020-07-27_19h48.20.080,torte-2b,2020.1.3,Win32,60,13193,,,,,,,,,,,,,,,,,,4,,0,29,29,29,1,,,,,,,,,,,,,,,,,,,,,,,,,,,,,,,,,,,,,,,,,
,,,,,,,,,,,,,,,,,,,,,,,,21,female,2020-07-27_19h48.20.080,torte-2b,2020.1.3,Win32,60,13193,,,,,,,,,,,,space,,,,,,7,0.96249,0,30,30,30,1,,,,,,,,,,,,,,,,,,,,,,,,,,,,,,,,,,,,,,,,,
,,,,,,,,,,,,,,,,,,,,,,,,21,female,2020-07-27_19h48.20.080,torte-2b,2020.1.3,Win32,60,13193,,,,,,,,,,,,,,,,,,3,,0,31,31,31,1,,,,,,,,,,,,,,,,,,,,,,,,,,,,,,,,,,,,,,,,,
,,,,,,,,,,,,,,,,,,,,,,,,21,female,2020-07-27_19h48.20.080,torte-2b,2020.1.3,Win32,60,13193,,,,,,,,,,,,,,,,,,2,,0,32,32,32,1,,,,,,,,,,,,,,,,,,,,,,,,,,,,,,,,,,,,,,,,,
,,,,,,,,,,,,,,,,,,,,,,,,21,female,2020-07-27_19h48.20.080,torte-2b,2020.1.3,Win32,60,13193,,,,,,,,,,,,,,,,,,6,,0,33,33,33,1,,,,,,,,,,,,,,,,,,,,,,,,,,,,,,,,,,,,,,,,,
,,,,,,,,,,,,,,,,,,,,,,,,21,female,2020-07-27_19h48.20.080,torte-2b,2020.1.3,Win32,60,13193,,,,,,,,,,,,space,,,,,,3,0.897795,0,34,34,34,1,,,,,,,,,,,,,,,,,,,,,,,,,,,,,,,,,,,,,,,,,
,,,,,,,,,,,,,,,,,,,,,,,,21,female,2020-07-27_19h48.20.080,torte-2b,2020.1.3,Win32,60,13193,,,,,,,,,,,,,,,,,,7,,,,,,,0,0,0,0,1,,,,,,,,,,,,,,,,,,,,,,,,,,,,,,,,,,,,
,,,,,,,,,,,,,,,,,,,,,,,,21,female,2020-07-27_19h48.20.080,torte-2b,2020.1.3,Win32,60,13193,,,,,,,,,,,,,,,,,,5,,,,,,,0,1,1,1,1,,,,,,,,,,,,,,,,,,,,,,,,,,,,,,,,,,,,
,,,,,,,,,,,,,,,,,,,,,,,,21,female,2020-07-27_19h48.20.080,torte-2b,2020.1.3,Win32,60,13193,,,,,,,,,,,,,,,,,,4,,,,,,,0,2,2,2,1,,,,,,,,,,,,,,,,,,,,,,,,,,,,,,,,,,,,
,,,,,,,,,,,,,,,,,,,,,,,,21,female,2020-07-27_19h48.20.080,torte-2b,2020.1.3,Win32,60,13193,,,,,,,,,,,,space,,,,,,5,0.85003,,,,,,0,3,3,3,1,,,,,,,,,,,,,,,,,,,,,,,,,,,,,,,,,,,,
,,,,,,,,,,,,,,,,,,,,,,,,21,female,2020-07-27_19h48.20.080,torte-2b,2020.1.3,Win32,60,13193,,,,,,,,,,,,,,,,,,6,,,,,,,0,4,4,4,1,,,,,,,,,,,,,,,,,,,,,,,,,,,,,,,,,,,,
,,,,,,,,,,,,,,,,,,,,,,,,21,female,2020-07-27_19h48.20.080,torte-2b,2020.1.3,Win32,60,13193,,,,,,,,,,,,space,,,,,,5,0.985205,,,,,,0,5,5,5,1,,,,,,,,,,,,,,,,,,,,,,,,,,,,,,,,,,,,
,,,,,,,,,,,,,,,,,,,,,,,,21,female,2020-07-27_19h48.20.080,torte-2b,2020.1.3,Win32,60,13193,,,,,,,,,,,,,,,,,,3,,,,,,,0,6,6,6,1,,,,,,,,,,,,,,,,,,,,,,,,,,,,,,,,,,,,
,,,,,,,,,,,,,,,,,,,,,,,,21,female,2020-07-27_19h48.20.080,torte-2b,2020.1.3,Win32,60,13193,,,,,,,,,,,,,,,,,,4,,,,,,,0,7,7,7,1,,,,,,,,,,,,,,,,,,,,,,,,,,,,,,,,,,,,
,,,,,,,,,,,,,,,,,,,,,,,,21,female,2020-07-27_19h48.20.080,torte-2b,2020.1.3,Win32,60,13193,,,,,,,,,,,,space,,,,,,3,0.87175,,,,,,0,8,8,8,1,,,,,,,,,,,,,,,,,,,,,,,,,,,,,,,,,,,,
,,,,,,,,,,,,,,,,,,,,,,,,21,female,2020-07-27_19h48.20.080,torte-2b,2020.1.3,Win32,60,13193,,,,,,,,,,,,,,,,,,1,,,,,,,0,9,9,9,1,,,,,,,,,,,,,,,,,,,,,,,,,,,,,,,,,,,,
,,,,,,,,,,,,,,,,,,,,,,,,21,female,2020-07-27_19h48.20.080,torte-2b,2020.1.3,Win32,60,13193,,,,,,,,,,,,space,,,,,,2,1.763785,,,,,,0,10,10,10,1,,,,,,,,,,,,,,,,,,,,,,,,,,,,,,,,,,,,
,,,,,,,,,,,,,,,,,,,,,,,,21,female,2020-07-27_19h48.20.080,torte-2b,2020.1.3,Win32,60,13193,,,,,,,,,,,,space,,,,,,1,0.8396,,,,,,0,11,11,11,1,,,,,,,,,,,,,,,,,,,,,,,,,,,,,,,,,,,,
,,,,,,,,,,,,,,,,,,,,,,,,21,female,2020-07-27_19h48.20.080,torte-2b,2020.1.3,Win32,60,13193,,,,,,,,,,,,space,,,,,,2,0.812645,,,,,,0,12,12,12,1,,,,,,,,,,,,,,,,,,,,,,,,,,,,,,,,,,,,
,,,,,,,,,,,,,,,,,,,,,,,,21,female,2020-07-27_19h48.20.080,torte-2b,2020.1.3,Win32,60,13193,,,,,,,,,,,,space,,,,,,1,0.829635,,,,,,0,13,13,13,1,,,,,,,,,,,,,,,,,,,,,,,,,,,,,,,,,,,,
,,,,,,,,,,,,,,,,,,,,,,,,21,female,2020-07-27_19h48.20.080,torte-2b,2020.1.3,Win32,60,13193,,,,,,,,,,,,,,,,,,3,,,,,,,0,14,14,14,1,,,,,,,,,,,,,,,,,,,,,,,,,,,,,,,,,,,,
,,,,,,,,,,,,,,,,,,,,,,,,21,female,2020-07-27_19h48.20.080,torte-2b,2020.1.3,Win32,60,13193,,,,,,,,,,,,space,,,,,,1,0.7676,,,,,,0,15,15,15,1,,,,,,,,,,,,,,,,,,,,,,,,,,,,,,,,,,,,
,,,,,,,,,,,,,,,,,,,,,,,,21,female,2020-07-27_19h48.20.080,torte-2b,2020.1.3,Win32,60,13193,,,,,,,,,,,,,,,,,,7,,,,,,,0,16,16,16,1,,,,,,,,,,,,,,,,,,,,,,,,,,,,,,,,,,,,
,,,,,,,,,,,,,,,,,,,,,,,,21,female,2020-07-27_19h48.20.080,torte-2b,2020.1.3,Win32,60,13193,,,,,,,,,,,,,,,,,,7,,,,,,,0,17,17,17,1,,,,,,,,,,,,,,,,,,,,,,,,,,,,,,,,,,,,
,,,,,,,,,,,,,,,,,,,,,,,,21,female,2020-07-27_19h48.20.080,torte-2b,2020.1.3,Win32,60,13193,,,,,,,,,,,,,,,,,,4,,,,,,,0,18,18,18,1,,,,,,,,,,,,,,,,,,,,,,,,,,,,,,,,,,,,
,,,,,,,,,,,,,,,,,,,,,,,,21,female,2020-07-27_19h48.20.080,torte-2b,2020.1.3,Win32,60,13193,,,,,,,,,,,,space,,,,,,7,0.796865,,,,,,0,19,19,19,1,,,,,,,,,,,,,,,,,,,,,,,,,,,,,,,,,,,,
,,,,,,,,,,,,,,,,,,,,,,,,21,female,2020-07-27_19h48.20.080,torte-2b,2020.1.3,Win32,60,13193,,,,,,,,,,,,,,,,,,3,,,,,,,0,20,20,20,1,,,,,,,,,,,,,,,,,,,,,,,,,,,,,,,,,,,,
,,,,,,,,,,,,,,,,,,,,,,,,21,female,2020-07-27_19h48.20.080,torte-2b,2020.1.3,Win32,60,13193,,,,,,,,,,,,space,,,,,,7,0.966225,,,,,,0,21,21,21,1,,,,,,,,,,,,,,,,,,,,,,,,,,,,,,,,,,,,
,,,,,,,,,,,,,,,,,,,,,,,,21,female,2020-07-27_19h48.20.080,torte-2b,2020.1.3,Win32,60,13193,,,,,,,,,,,,space,,,,,,3,0.979595,,,,,,0,22,22,22,1,,,,,,,,,,,,,,,,,,,,,,,,,,,,,,,,,,,,
,,,,,,,,,,,,,,,,,,,,,,,,21,female,2020-07-27_19h48.20.080,torte-2b,2020.1.3,Win32,60,13193,,,,,,,,,,,,,,,,,,1,,,,,,,0,23,23,23,1,,,,,,,,,,,,,,,,,,,,,,,,,,,,,,,,,,,,
,,,,,,,,,,,,,,,,,,,,,,,,21,female,2020-07-27_19h48.20.080,torte-2b,2020.1.3,Win32,60,13193,,,,,,,,,,,,,,,,,,6,,,,,,,0,24,24,24,1,,,,,,,,,,,,,,,,,,,,,,,,,,,,,,,,,,,,
,,,,,,,,,,,,,,,,,,,,,,,,21,female,2020-07-27_19h48.20.080,torte-2b,2020.1.3,Win32,60,13193,,,,,,,,,,,,,,,,,,3,,,,,,,0,25,25,25,1,,,,,,,,,,,,,,,,,,,,,,,,,,,,,,,,,,,,
,,,,,,,,,,,,,,,,,,,,,,,,21,female,2020-07-27_19h48.20.080,torte-2b,2020.1.3,Win32,60,13193,,,,,,,,,,,,,,,,,,2,,,,,,,0,26,26,26,1,,,,,,,,,,,,,,,,,,,,,,,,,,,,,,,,,,,,
,,,,,,,,,,,,,,,,,,,,,,,,21,female,2020-07-27_19h48.20.080,torte-2b,2020.1.3,Win32,60,13193,,,,,,,,,,,,space,,,,,,3,0.83008,,,,,,0,27,27,27,1,,,,,,,,,,,,,,,,,,,,,,,,,,,,,,,,,,,,
,,,,,,,,,,,,,,,,,,,,,,,,21,female,2020-07-27_19h48.20.080,torte-2b,2020.1.3,Win32,60,13193,,,,,,,,,,,,,,,,,,1,,,,,,,0,28,28,28,1,,,,,,,,,,,,,,,,,,,,,,,,,,,,,,,,,,,,
,,,,,,,,,,,,,,,,,,,,,,,,21,female,2020-07-27_19h48.20.080,torte-2b,2020.1.3,Win32,60,13193,,,,,,,,,,,,space,,,,,,3,0.846575,,,,,,0,29,29,29,1,,,,,,,,,,,,,,,,,,,,,,,,,,,,,,,,,,,,
,,,,,,,,,,,,,,,,,,,,,,,,21,female,2020-07-27_19h48.20.080,torte-2b,2020.1.3,Win32,60,13193,,,,,,,,,,,,space,,,,,,1,1.38046,,,,,,0,30,30,30,1,,,,,,,,,,,,,,,,,,,,,,,,,,,,,,,,,,,,
,,,,,,,,,,,,,,,,,,,,,,,,21,female,2020-07-27_19h48.20.080,torte-2b,2020.1.3,Win32,60,13193,,,,,,,,,,,,,,,,,,7,,,,,,,0,31,31,31,1,,,,,,,,,,,,,,,,,,,,,,,,,,,,,,,,,,,,
,,,,,,,,,,,,,,,,,,,,,,,,21,female,2020-07-27_19h48.20.080,torte-2b,2020.1.3,Win32,60,13193,,,,,,,,,,,,,,,,,,5,,,,,,,0,32,32,32,1,,,,,,,,,,,,,,,,,,,,,,,,,,,,,,,,,,,,
,,,,,,,,,,,,,,,,,,,,,,,,21,female,2020-07-27_19h48.20.080,torte-2b,2020.1.3,Win32,60,13193,,,,,,,,,,,,space,,,,,,7,0.796125,,,,,,0,33,33,33,1,,,,,,,,,,,,,,,,,,,,,,,,,,,,,,,,,,,,
,,,,,,,,,,,,,,,,,,,,,,,,21,female,2020-07-27_19h48.20.080,torte-2b,2020.1.3,Win32,60,13193,,,,,,,,,,,,,,,,,,2,,,,,,,0,34,34,34,1,,,,,,,,,,,,,,,,,,,,,,,,,,,,,,,,,,,,
,,,,,,,,,,,,,,,,,,,,,,,,21,female,2020-07-27_19h48.20.080,torte-2b,2020.1.3,Win32,60,13193,,,,,,,,,,,,,,,,,,3,,,,,,,,,,,,0,0,0,0,1,,,,,,,,,,,,,,,,,,,,,,,,,,,,,,,
,,,,,,,,,,,,,,,,,,,,,,,,21,female,2020-07-27_19h48.20.080,torte-2b,2020.1.3,Win32,60,13193,,,,,,,,,,,,,,,,,,7,,,,,,,,,,,,0,1,1,1,1,,,,,,,,,,,,,,,,,,,,,,,,,,,,,,,
,,,,,,,,,,,,,,,,,,,,,,,,21,female,2020-07-27_19h48.20.080,torte-2b,2020.1.3,Win32,60,13193,,,,,,,,,,,,,,,,,,7,,,,,,,,,,,,0,2,2,2,1,,,,,,,,,,,,,,,,,,,,,,,,,,,,,,,
,,,,,,,,,,,,,,,,,,,,,,,,21,female,2020-07-27_19h48.20.080,torte-2b,2020.1.3,Win32,60,13193,,,,,,,,,,,,,,,,,,4,,,,,,,,,,,,0,3,3,3,1,,,,,,,,,,,,,,,,,,,,,,,,,,,,,,,
,,,,,,,,,,,,,,,,,,,,,,,,21,female,2020-07-27_19h48.20.080,torte-2b,2020.1.3,Win32,60,13193,,,,,,,,,,,,,,,,,,5,,,,,,,,,,,,0,4,4,4,1,,,,,,,,,,,,,,,,,,,,,,,,,,,,,,,
,,,,,,,,,,,,,,,,,,,,,,,,21,female,2020-07-27_19h48.20.080,torte-2b,2020.1.3,Win32,60,13193,,,,,,,,,,,,space,,,,,,4,0.831835,,,,,,,,,,,0,5,5,5,1,,,,,,,,,,,,,,,,,,,,,,,,,,,,,,,
,,,,,,,,,,,,,,,,,,,,,,,,21,female,2020-07-27_19h48.20.080,torte-2b,2020.1.3,Win32,60,13193,,,,,,,,,,,,,,,,,,2,,,,,,,,,,,,0,6,6,6,1,,,,,,,,,,,,,,,,,,,,,,,,,,,,,,,
,,,,,,,,,,,,,,,,,,,,,,,,21,female,2020-07-27_19h48.20.080,torte-2b,2020.1.3,Win32,60,13193,,,,,,,,,,,,space,,,,,,4,0.79701,,,,,,,,,,,0,7,7,7,1,,,,,,,,,,,,,,,,,,,,,,,,,,,,,,,
,,,,,,,,,,,,,,,,,,,,,,,,21,female,2020-07-27_19h48.20.080,torte-2b,2020.1.3,Win32,60,13193,,,,,,,,,,,,space,,,,,,2,1.013575,,,,,,,,,,,0,8,8,8,1,,,,,,,,,,,,,,,,,,,,,,,,,,,,,,,
,,,,,,,,,,,,,,,,,,,,,,,,21,female,2020-07-27_19h48.20.080,torte-2b,2020.1.3,Win32,60,13193,,,,,,,,,,,,,,,,,,2,,,,,,,,,,,,0,9,9,9,1,,,,,,,,,,,,,,,,,,,,,,,,,,,,,,,
,,,,,,,,,,,,,,,,,,,,,,,,21,female,2020-07-27_19h48.20.080,torte-2b,2020.1.3,Win32,60,13193,,,,,,,,,,,,,,,,,,6,,,,,,,,,,,,0,10,10,10,1,,,,,,,,,,,,,,,,,,,,,,,,,,,,,,,
,,,,,,,,,,,,,,,,,,,,,,,,21,female,2020-07-27_19h48.20.080,torte-2b,2020.1.3,Win32,60,13193,,,,,,,,,,,,space,,,,,,2,0.964105,,,,,,,,,,,0,11,11,11,1,,,,,,,,,,,,,,,,,,,,,,,,,,,,,,,
,,,,,,,,,,,,,,,,,,,,,,,,21,female,2020-07-27_19h48.20.080,torte-2b,2020.1.3,Win32,60,13193,,,,,,,,,,,,,,,,,,2,,,,,,,,,,,,0,12,12,12,1,,,,,,,,,,,,,,,,,,,,,,,,,,,,,,,
,,,,,,,,,,,,,,,,,,,,,,,,21,female,2020-07-27_19h48.20.080,torte-2b,2020.1.3,Win32,60,13193,,,,,,,,,,,,space,,,,,,2,0.84724,,,,,,,,,,,0,13,13,13,1,,,,,,,,,,,,,,,,,,,,,,,,,,,,,,,
,,,,,,,,,,,,,,,,,,,,,,,,21,female,2020-07-27_19h48.20.080,torte-2b,2020.1.3,Win32,60,13193,,,,,,,,,,,,,,,,,,2,,,,,,,,,,,,0,14,14,14,1,,,,,,,,,,,,,,,,,,,,,,,,,,,,,,,
,,,,,,,,,,,,,,,,,,,,,,,,21,female,2020-07-27_19h48.20.080,torte-2b,2020.1.3,Win32,60,13193,,,,,,,,,,,,,,,,,,4,,,,,,,,,,,,0,15,15,15,1,,,,,,,,,,,,,,,,,,,,,,,,,,,,,,,
,,,,,,,,,,,,,,,,,,,,,,,,21,female,2020-07-27_19h48.20.080,torte-2b,2020.1.3,Win32,60,13193,,,,,,,,,,,,,,,,,,3,,,,,,,,,,,,0,16,16,16,1,,,,,,,,,,,,,,,,,,,,,,,,,,,,,,,
,,,,,,,,,,,,,,,,,,,,,,,,21,female,2020-07-27_19h48.20.080,torte-2b,2020.1.3,Win32,60,13193,,,,,,,,,,,,,,,,,,7,,,,,,,,,,,,0,17,17,17,1,,,,,,,,,,,,,,,,,,,,,,,,,,,,,,,
,,,,,,,,,,,,,,,,,,,,,,,,21,female,2020-07-27_19h48.20.080,torte-2b,2020.1.3,Win32,60,13193,,,,,,,,,,,,space,,,,,,4,0.817525,,,,,,,,,,,0,18,18,18,1,,,,,,,,,,,,,,,,,,,,,,,,,,,,,,,
,,,,,,,,,,,,,,,,,,,,,,,,21,female,2020-07-27_19h48.20.080,torte-2b,2020.1.3,Win32,60,13193,,,,,,,,,,,,space,,,,,,7,1.06391,,,,,,,,,,,0,19,19,19,1,,,,,,,,,,,,,,,,,,,,,,,,,,,,,,,
,,,,,,,,,,,,,,,,,,,,,,,,21,female,2020-07-27_19h48.20.080,torte-2b,2020.1.3,Win32,60,13193,,,,,,,,,,,,,,,,,,7,,,,,,,,,,,,0,20,20,20,1,,,,,,,,,,,,,,,,,,,,,,,,,,,,,,,
,,,,,,,,,,,,,,,,,,,,,,,,21,female,2020-07-27_19h48.20.080,torte-2b,2020.1.3,Win32,60,13193,,,,,,,,,,,,space,,,,,,7,0.81476,,,,,,,,,,,0,21,21,21,1,,,,,,,,,,,,,,,,,,,,,,,,,,,,,,,
,,,,,,,,,,,,,,,,,,,,,,,,21,female,2020-07-27_19h48.20.080,torte-2b,2020.1.3,Win32,60,13193,,,,,,,,,,,,,,,,,,7,,,,,,,,,,,,0,22,22,22,1,,,,,,,,,,,,,,,,,,,,,,,,,,,,,,,
,,,,,,,,,,,,,,,,,,,,,,,,21,female,2020-07-27_19h48.20.080,torte-2b,2020.1.3,Win32,60,13193,,,,,,,,,,,,space,,,,,,1,0.83787,,,,,,,,,,,0,23,23,23,1,,,,,,,,,,,,,,,,,,,,,,,,,,,,,,,
,,,,,,,,,,,,,,,,,,,,,,,,21,female,2020-07-27_19h48.20.080,torte-2b,2020.1.3,Win32,60,13193,,,,,,,,,,,,space,,,,,,7,1.73716,,,,,,,,,,,0,24,24,24,1,,,,,,,,,,,,,,,,,,,,,,,,,,,,,,,
,,,,,,,,,,,,,,,,,,,,,,,,21,female,2020-07-27_19h48.20.080,torte-2b,2020.1.3,Win32,60,13193,,,,,,,,,,,,space,,,,,,1,0.966025,,,,,,,,,,,0,25,25,25,1,,,,,,,,,,,,,,,,,,,,,,,,,,,,,,,
,,,,,,,,,,,,,,,,,,,,,,,,21,female,2020-07-27_19h48.20.080,torte-2b,2020.1.3,Win32,60,13193,,,,,,,,,,,,space,,,,,,7,0.880445,,,,,,,,,,,0,26,26,26,1,,,,,,,,,,,,,,,,,,,,,,,,,,,,,,,
,,,,,,,,,,,,,,,,,,,,,,,,21,female,2020-07-27_19h48.20.080,torte-2b,2020.1.3,Win32,60,13193,,,,,,,,,,,,,,,,,,2,,,,,,,,,,,,0,27,27,27,1,,,,,,,,,,,,,,,,,,,,,,,,,,,,,,,
,,,,,,,,,,,,,,,,,,,,,,,,21,female,2020-07-27_19h48.20.080,torte-2b,2020.1.3,Win32,60,13193,,,,,,,,,,,,,,,,,,5,,,,,,,,,,,,0,28,28,28,1,,,,,,,,,,,,,,,,,,,,,,,,,,,,,,,
,,,,,,,,,,,,,,,,,,,,,,,,21,female,2020-07-27_19h48.20.080,torte-2b,2020.1.3,Win32,60,13193,,,,,,,,,,,,,,,,,,5,,,,,,,,,,,,0,29,29,29,1,,,,,,,,,,,,,,,,,,,,,,,,,,,,,,,
,,,,,,,,,,,,,,,,,,,,,,,,21,female,2020-07-27_19h48.20.080,torte-2b,2020.1.3,Win32,60,13193,,,,,,,,,,,,space,,,,,,5,1.4624,,,,,,,,,,,0,30,30,30,1,,,,,,,,,,,,,,,,,,,,,,,,,,,,,,,
,,,,,,,,,,,,,,,,,,,,,,,,21,female,2020-07-27_19h48.20.080,torte-2b,2020.1.3,Win32,60,13193,,,,,,,,,,,,,,,,,,1,,,,,,,,,,,,0,31,31,31,1,,,,,,,,,,,,,,,,,,,,,,,,,,,,,,,
,,,,,,,,,,,,,,,,,,,,,,,,21,female,2020-07-27_19h48.20.080,torte-2b,2020.1.3,Win32,60,13193,,,,,,,,,,,,space,,,,,,5,0.90972,,,,,,,,,,,0,32,32,32,1,,,,,,,,,,,,,,,,,,,,,,,,,,,,,,,
,,,,,,,,,,,,,,,,,,,,,,,,21,female,2020-07-27_19h48.20.080,torte-2b,2020.1.3,Win32,60,13193,,,,,,,,,,,,,,,,,,3,,,,,,,,,,,,0,33,33,33,1,,,,,,,,,,,,,,,,,,,,,,,,,,,,,,,
,,,,,,,,,,,,,,,,,,,,,,,,21,female,2020-07-27_19h48.20.080,torte-2b,2020.1.3,Win32,60,13193,,,,,,,,,,,,space,,,,,,3,0.896935,,,,,,,,,,,0,34,34,34,1,,,,,,,,,,,,,,,,,,,,,,,,,,,,,,,
,,,,,,,,,,,,l,1.2467,Incorrect,,,,,,t3.png,t2.png,1,0.90855,21,female,2020-07-27_19h48.20.080,torte-2b,2020.1.3,Win32,60,13193,space,1.584125,,,,,,,,,,,,,,,,,,,,,,,,,,,,,,,,,space,5.218995,0,0,0,94,1,,,,,,,,,,,,,,,,,,,,,,,,
,,,,,,,,,,,,l,0.66893,Incorrect,,,,,,t1.png,t1.png,0,0.97829,21,female,2020-07-27_19h48.20.080,torte-2b,2020.1.3,Win32,60,13193,,,,,,,,,,,,,,,,,,,,,,,,,,,,,,,,,,,,,0,1,1,110,1,,,,,,,,,,,,,,,,,,,,,,,,
,,,,,,,,,,,,l,0.67084,Correct!,,,,,,t3.png,t1.png,2,0.0565,21,female,2020-07-27_19h48.20.080,torte-2b,2020.1.3,Win32,60,13193,,,,,,,,,,,,,,,,,,,,,,,,,,,,,,,,,,,,,0,2,2,40,1,,,,,,,,,,,,,,,,,,,,,,,,
,,,,,,,,,,,,l,0.73257,Correct!,,,,,,t1.png,t5.png,4,9.55E-11,21,female,2020-07-27_19h48.20.080,torte-2b,2020.1.3,Win32,60,13193,,,,,,,,,,,,,,,,,,,,,,,,,,,,,,,,,,,,,0,3,3,1,1,,,,,,,,,,,,,,,,,,,,,,,,
,,,,,,,,,,,,l,1.167955,Correct!,,,,,,t3.png,t1.png,2,0.056466,21,female,2020-07-27_19h48.20.080,torte-2b,2020.1.3,Win32,60,13193,,,,,,,,,,,,,,,,,,,,,,,,,,,,,,,,,,,,,0,4,4,34,1,,,,,,,,,,,,,,,,,,,,,,,,
,,,,,,,,,,,,a,0.753215,Correct!,,,,,,t5.png,t4.png,1,0.9,21,female,2020-07-27_19h48.20.080,torte-2b,2020.1.3,Win32,60,13193,,,,,,,,,,,,,,,,,,,,,,,,,,,,,,,,,,,,,0,5,5,92,1,,,,,,,,,,,,,,,,,,,,,,,,
,,,,,,,,,,,,l,0.804605,Incorrect,,,,,,t2.png,t2.png,0,0.98115,21,female,2020-07-27_19h48.20.080,torte-2b,2020.1.3,Win32,60,13193,,,,,,,,,,,,,,,,,,,,,,,,,,,,,,,,,,,,,0,6,6,90,1,,,,,,,,,,,,,,,,,,,,,,,,
,,,,,,,,,,,,a,1.65813,Incorrect,,,,,,t5.png,t2.png,3,0.0000131,21,female,2020-07-27_19h48.20.080,torte-2b,2020.1.3,Win32,60,13193,,,,,,,,,,,,,,,,,,,,,,,,,,,,,,,,,,,,,0,7,7,43,1,,,,,,,,,,,,,,,,,,,,,,,,
,,,,,,,,,,,,a,0.74881,Correct!,,,,,,t1.png,t1.png,0,0.978,21,female,2020-07-27_19h48.20.080,torte-2b,2020.1.3,Win32,60,13193,,,,,,,,,,,,,,,,,,,,,,,,,,,,,,,,,,,,,0,8,8,22,1,,,,,,,,,,,,,,,,,,,,,,,,
,,,,,,,,,,,,a,0.60756,Incorrect,,,,,,t5.png,t2.png,3,0.0000131,21,female,2020-07-27_19h48.20.080,torte-2b,2020.1.3,Win32,60,13193,,,,,,,,,,,,,,,,,,,,,,,,,,,,,,,,,,,,,0,9,9,66,1,,,,,,,,,,,,,,,,,,,,,,,,
,,,,,,,,,,,,l,0.967015,Correct!,,,,,,t1.png,t3.png,2,0.0565,21,female,2020-07-27_19h48.20.080,torte-2b,2020.1.3,Win32,60,13193,,,,,,,,,,,,,,,,,,,,,,,,,,,,,,,,,,,,,0,10,10,42,1,,,,,,,,,,,,,,,,,,,,,,,,
,,,,,,,,,,,,a,1.34899,Correct!,,,,,,t3.png,t4.png,1,0.90855,21,female,2020-07-27_19h48.20.080,torte-2b,2020.1.3,Win32,60,13193,,,,,,,,,,,,,,,,,,,,,,,,,,,,,,,,,,,,,0,11,11,58,1,,,,,,,,,,,,,,,,,,,,,,,,
,,,,,,,,,,,,a,0.869245,Correct!,,,,,,t3.png,t4.png,1,0.90855,21,female,2020-07-27_19h48.20.080,torte-2b,2020.1.3,Win32,60,13193,,,,,,,,,,,,,,,,,,,,,,,,,,,,,,,,,,,,,0,12,12,103,1,,,,,,,,,,,,,,,,,,,,,,,,
,,,,,,,,,,,,l,0.73754,Incorrect,,,,,,t2.png,t1.png,1,0.90025,21,female,2020-07-27_19h48.20.080,torte-2b,2020.1.3,Win32,60,13193,,,,,,,,,,,,,,,,,,,,,,,,,,,,,,,,,,,,,0,13,13,65,1,,,,,,,,,,,,,,,,,,,,,,,,
,,,,,,,,,,,,l,0.83019,Incorrect,,,,,,t3.png,t2.png,1,0.90855,21,female,2020-07-27_19h48.20.080,torte-2b,2020.1.3,Win32,60,13193,,,,,,,,,,,,,,,,,,,,,,,,,,,,,,,,,,,,,0,14,14,108,1,,,,,,,,,,,,,,,,,,,,,,,,
,,,,,,,,,,,,l,0.950015,Correct!,,,,,,t5.png,t1.png,4,9.55E-11,21,female,2020-07-27_19h48.20.080,torte-2b,2020.1.3,Win32,60,13193,,,,,,,,,,,,,,,,,,,,,,,,,,,,,,,,,,,,,0,15,15,117,1,,,,,,,,,,,,,,,,,,,,,,,,
,,,,,,,,,,,,a,0.86467,Correct!,,,,,,t3.png,t2.png,1,0.90855,21,female,2020-07-27_19h48.20.080,torte-2b,2020.1.3,Win32,60,13193,,,,,,,,,,,,,,,,,,,,,,,,,,,,,,,,,,,,,0,16,16,0,1,,,,,,,,,,,,,,,,,,,,,,,,
,,,,,,,,,,,,l,0.68534,Correct!,,,,,,t1.png,t3.png,2,0.0565,21,female,2020-07-27_19h48.20.080,torte-2b,2020.1.3,Win32,60,13193,,,,,,,,,,,,,,,,,,,,,,,,,,,,,,,,,,,,,0,17,17,95,1,,,,,,,,,,,,,,,,,,,,,,,,
,,,,,,,,,,,,l,1.17152,Correct!,,,,,,t4.png,t1.png,3,0.0000131,21,female,2020-07-27_19h48.20.080,torte-2b,2020.1.3,Win32,60,13193,,,,,,,,,,,,,,,,,,,,,,,,,,,,,,,,,,,,,0,18,18,49,1,,,,,,,,,,,,,,,,,,,,,,,,
,,,,,,,,,,,,l,0.71587,Correct!,,,,,,t4.png,t1.png,3,0.0000131,21,female,2020-07-27_19h48.20.080,torte-2b,2020.1.3,Win32,60,13193,,,,,,,,,,,,,,,,,,,,,,,,,,,,,,,,,,,,,0,19,19,76,1,,,,,,,,,,,,,,,,,,,,,,,,
,,,,,,,,,,,,,,Too slow :(,,,,,,t4.png,t1.png,3,0.0000131,21,female,2020-07-27_19h48.20.080,torte-2b,2020.1.3,Win32,60,13193,,,,,,,,,,,,,,,,,,,,,,,,,,,,,,,,,,,,,0,20,20,91,1,,,,,,,,,,,,,,,,,,,,,,,,
,,,,,,,,,,,,a,0.67269,Correct!,,,,,,t5.png,t5.png,0,0.97829,21,female,2020-07-27_19h48.20.080,torte-2b,2020.1.3,Win32,60,13193,,,,,,,,,,,,,,,,,,,,,,,,,,,,,,,,,,,,,0,21,21,2,1,,,,,,,,,,,,,,,,,,,,,,,,
,,,,,,,,,,,,a,0.418195,Incorrect,,,,,,t5.png,t1.png,4,9.55E-11,21,female,2020-07-27_19h48.20.080,torte-2b,2020.1.3,Win32,60,13193,,,,,,,,,,,,,,,,,,,,,,,,,,,,,,,,,,,,,0,22,22,15,1,,,,,,,,,,,,,,,,,,,,,,,,
,,,,,,,,,,,,a,0.827185,Correct!,,,,,,t3.png,t2.png,1,0.90855,21,female,2020-07-27_19h48.20.080,torte-2b,2020.1.3,Win32,60,13193,,,,,,,,,,,,,,,,,,,,,,,,,,,,,,,,,,,,,0,23,23,99,1,,,,,,,,,,,,,,,,,,,,,,,,
,,,,,,,,,,,,l,0.63231,Correct!,,,,,,t5.png,t3.png,2,0.056466,21,female,2020-07-27_19h48.20.080,torte-2b,2020.1.3,Win32,60,13193,,,,,,,,,,,,,,,,,,,,,,,,,,,,,,,,,,,,,0,24,24,26,1,,,,,,,,,,,,,,,,,,,,,,,,
,,,,,,,,,,,,l,0.71594,Correct!,,,,,,t2.png,t4.png,2,0.059078,21,female,2020-07-27_19h48.20.080,torte-2b,2020.1.3,Win32,60,13193,,,,,,,,,,,,,,,,,,,,,,,,,,,,,,,,,,,,,0,25,25,18,1,,,,,,,,,,,,,,,,,,,,,,,,
,,,,,,,,,,,,a,0.520125,Correct!,,,,,,t5.png,t5.png,0,0.978,21,female,2020-07-27_19h48.20.080,torte-2b,2020.1.3,Win32,60,13193,,,,,,,,,,,,,,,,,,,,,,,,,,,,,,,,,,,,,0,26,26,116,1,,,,,,,,,,,,,,,,,,,,,,,,
,,,,,,,,,,,,a,0.582875,Correct!,,,,,,t4.png,t5.png,1,0.90025,21,female,2020-07-27_19h48.20.080,torte-2b,2020.1.3,Win32,60,13193,,,,,,,,,,,,,,,,,,,,,,,,,,,,,,,,,,,,,0,27,27,63,1,,,,,,,,,,,,,,,,,,,,,,,,
,,,,,,,,,,,,a,0.782355,Correct!,,,,,,t1.png,t1.png,0,0.97829,21,female,2020-07-27_19h48.20.080,torte-2b,2020.1.3,Win32,60,13193,,,,,,,,,,,,,,,,,,,,,,,,,,,,,,,,,,,,,0,28,28,4,1,,,,,,,,,,,,,,,,,,,,,,,,
,,,,,,,,,,,,l,0.63232,Correct!,,,,,,t2.png,t5.png,3,0.0000131,21,female,2020-07-27_19h48.20.080,torte-2b,2020.1.3,Win32,60,13193,,,,,,,,,,,,,,,,,,,,,,,,,,,,,,,,,,,,,0,29,29,39,1,,,,,,,,,,,,,,,,,,,,,,,,
,,,,,,,,,,,,l,0.774335,Correct!,,,,,,t4.png,t1.png,3,0.059078,21,female,2020-07-27_19h48.20.080,torte-2b,2020.1.3,Win32,60,13193,,,,,,,,,,,,,,,,,,,,,,,,,,,,,,,,,,,,,0,30,30,57,1,,,,,,,,,,,,,,,,,,,,,,,,
,,,,,,,,,,,,a,0.97086,Correct!,,,,,,t4.png,t4.png,0,0.98115,21,female,2020-07-27_19h48.20.080,torte-2b,2020.1.3,Win32,60,13193,,,,,,,,,,,,,,,,,,,,,,,,,,,,,,,,,,,,,0,31,31,19,1,,,,,,,,,,,,,,,,,,,,,,,,
,,,,,,,,,,,,l,0.915805,Correct!,,,,,,t5.png,t1.png,4,9.55E-11,21,female,2020-07-27_19h48.20.080,torte-2b,2020.1.3,Win32,60,13193,,,,,,,,,,,,,,,,,,,,,,,,,,,,,,,,,,,,,0,32,32,101,1,,,,,,,,,,,,,,,,,,,,,,,,
,,,,,,,,,,,,l,0.86694,Correct!,,,,,,t5.png,t1.png,4,9.55E-11,21,female,2020-07-27_19h48.20.080,torte-2b,2020.1.3,Win32,60,13193,,,,,,,,,,,,,,,,,,,,,,,,,,,,,,,,,,,,,0,33,33,31,1,,,,,,,,,,,,,,,,,,,,,,,,
,,,,,,,,,,,,l,1.7988,Correct!,,,,,,t2.png,t5.png,3,0.0000131,21,female,2020-07-27_19h48.20.080,torte-2b,2020.1.3,Win32,60,13193,,,,,,,,,,,,,,,,,,,,,,,,,,,,,,,,,,,,,0,34,34,115,1,,,,,,,,,,,,,,,,,,,,,,,,
,,,,,,,,,,,,a,0.926055,Incorrect,,,,,,t5.png,t2.png,3,0.0000131,21,female,2020-07-27_19h48.20.080,torte-2b,2020.1.3,Win32,60,13193,,,,,,,,,,,,,,,,,,,,,,,,,,,,,,,,,,,,,0,35,35,83,1,,,,,,,,,,,,,,,,,,,,,,,,
,,,,,,,,,,,,a,0.552565,Incorrect,,,,,,t5.png,t3.png,2,0.056466,21,female,2020-07-27_19h48.20.080,torte-2b,2020.1.3,Win32,60,13193,,,,,,,,,,,,,,,,,,,,,,,,,,,,,,,,,,,,,0,36,36,80,1,,,,,,,,,,,,,,,,,,,,,,,,
,,,,,,,,,,,,l,1.102775,Correct!,,,,,,t2.png,t4.png,2,0.059078,21,female,2020-07-27_19h48.20.080,torte-2b,2020.1.3,Win32,60,13193,,,,,,,,,,,,,,,,,,,,,,,,,,,,,,,,,,,,,0,37,37,84,1,,,,,,,,,,,,,,,,,,,,,,,,
,,,,,,,,,,,,a,0.9494,Correct!,,,,,,t4.png,t4.png,0,0.98115,21,female,2020-07-27_19h48.20.080,torte-2b,2020.1.3,Win32,60,13193,,,,,,,,,,,,,,,,,,,,,,,,,,,,,,,,,,,,,0,38,38,88,1,,,,,,,,,,,,,,,,,,,,,,,,
,,,,,,,,,,,,a,1.964595,Correct!,,,,,,t4.png,t3.png,1,0.90855,21,female,2020-07-27_19h48.20.080,torte-2b,2020.1.3,Win32,60,13193,,,,,,,,,,,,,,,,,,,,,,,,,,,,,,,,,,,,,0,39,39,29,1,,,,,,,,,,,,,,,,,,,,,,,,
,,,,,,,,,,,,l,0.93101,Incorrect,,,,,,t2.png,t1.png,1,0.90025,21,female,2020-07-27_19h48.20.080,torte-2b,2020.1.3,Win32,60,13193,,,,,,,,,,,,,,,,,,,,,,,,,,,,,,,,,,,,,0,40,40,105,1,,,,,,,,,,,,,,,,,,,,,,,,
,,,,,,,,,,,,l,0.986025,Correct!,,,,,,t3.png,t1.png,2,0.056466,21,female,2020-07-27_19h48.20.080,torte-2b,2020.1.3,Win32,60,13193,,,,,,,,,,,,,,,,,,,,,,,,,,,,,,,,,,,,,0,41,41,72,1,,,,,,,,,,,,,,,,,,,,,,,,
,,,,,,,,,,,,l,0.72398,Correct!,,,,,,t2.png,t4.png,2,0.059078,21,female,2020-07-27_19h48.20.080,torte-2b,2020.1.3,Win32,60,13193,,,,,,,,,,,,,,,,,,,,,,,,,,,,,,,,,,,,,0,42,42,53,1,,,,,,,,,,,,,,,,,,,,,,,,
,,,,,,,,,,,,a,1.46943,Incorrect,,,,,,t3.png,t5.png,2,0.056466,21,female,2020-07-27_19h48.20.080,torte-2b,2020.1.3,Win32,60,13193,,,,,,,,,,,,,,,,,,,,,,,,,,,,,,,,,,,,,0,43,43,45,1,,,,,,,,,,,,,,,,,,,,,,,,
,,,,,,,,,,,,l,0.703215,Incorrect,,,,,,t2.png,t3.png,1,0.90855,21,female,2020-07-27_19h48.20.080,torte-2b,2020.1.3,Win32,60,13193,,,,,,,,,,,,,,,,,,,,,,,,,,,,,,,,,,,,,0,44,44,64,1,,,,,,,,,,,,,,,,,,,,,,,,
,,,,,,,,,,,,a,0.738495,Correct!,,,,,,t5.png,t4.png,1,0.90025,21,female,2020-07-27_19h48.20.080,torte-2b,2020.1.3,Win32,60,13193,,,,,,,,,,,,,,,,,,,,,,,,,,,,,,,,,,,,,0,45,45,38,1,,,,,,,,,,,,,,,,,,,,,,,,
,,,,,,,,,,,,l,0.59874,Incorrect,,,,,,t2.png,t2.png,0,0.981,21,female,2020-07-27_19h48.20.080,torte-2b,2020.1.3,Win32,60,13193,,,,,,,,,,,,,,,,,,,,,,,,,,,,,,,,,,,,,0,46,46,98,1,,,,,,,,,,,,,,,,,,,,,,,,
,,,,,,,,,,,,a,0.63231,Correct!,,,,,,t5.png,t4.png,1,0.9,21,female,2020-07-27_19h48.20.080,torte-2b,2020.1.3,Win32,60,13193,,,,,,,,,,,,,,,,,,,,,,,,,,,,,,,,,,,,,0,47,47,55,1,,,,,,,,,,,,,,,,,,,,,,,,
,,,,,,,,,,,,a,1.254735,Incorrect,,,,,,t3.png,t4.png,1,0.90855,21,female,2020-07-27_19h48.20.080,torte-2b,2020.1.3,Win32,60,13193,,,,,,,,,,,,,,,,,,,,,,,,,,,,,,,,,,,,,0,48,48,5,1,,,,,,,,,,,,,,,,,,,,,,,,
,,,,,,,,,,,,l,0.783045,Correct!,,,,,,t4.png,t1.png,3,0.059078,21,female,2020-07-27_19h48.20.080,torte-2b,2020.1.3,Win32,60,13193,,,,,,,,,,,,,,,,,,,,,,,,,,,,,,,,,,,,,0,49,49,87,1,,,,,,,,,,,,,,,,,,,,,,,,
,,,,,,,,,,,,l,0.721935,Correct!,,,,,,t5.png,t2.png,3,0.0000131,21,female,2020-07-27_19h48.20.080,torte-2b,2020.1.3,Win32,60,13193,,,,,,,,,,,,,,,,,,,,,,,,,,,,,,,,,,,,,0,50,50,82,1,,,,,,,,,,,,,,,,,,,,,,,,
,,,,,,,,,,,,l,0.65495,Correct!,,,,,,t1.png,t2.png,1,0.90025,21,female,2020-07-27_19h48.20.080,torte-2b,2020.1.3,Win32,60,13193,,,,,,,,,,,,,,,,,,,,,,,,,,,,,,,,,,,,,0,51,51,96,1,,,,,,,,,,,,,,,,,,,,,,,,
,,,,,,,,,,,,l,0.599435,Incorrect,,,,,,t2.png,t3.png,1,0.909,21,female,2020-07-27_19h48.20.080,torte-2b,2020.1.3,Win32,60,13193,,,,,,,,,,,,,,,,,,,,,,,,,,,,,,,,,,,,,0,52,52,8,1,,,,,,,,,,,,,,,,,,,,,,,,
,,,,,,,,,,,,l,0.59169,Correct!,,,,,,t1.png,t5.png,4,9.55E-11,21,female,2020-07-27_19h48.20.080,torte-2b,2020.1.3,Win32,60,13193,,,,,,,,,,,,,,,,,,,,,,,,,,,,,,,,,,,,,0,53,53,3,1,,,,,,,,,,,,,,,,,,,,,,,,
,,,,,,,,,,,,l,0.76761,Correct!,,,,,,t1.png,t4.png,3,0.0000131,21,female,2020-07-27_19h48.20.080,torte-2b,2020.1.3,Win32,60,13193,,,,,,,,,,,,,,,,,,,,,,,,,,,,,,,,,,,,,0,54,54,106,1,,,,,,,,,,,,,,,,,,,,,,,,
,,,,,,,,,,,,l,0.637025,Correct!,,,,,,t4.png,t1.png,3,0.0000131,21,female,2020-07-27_19h48.20.080,torte-2b,2020.1.3,Win32,60,13193,,,,,,,,,,,,,,,,,,,,,,,,,,,,,,,,,,,,,0,55,55,102,1,,,,,,,,,,,,,,,,,,,,,,,,
,,,,,,,,,,,,l,0.98048,Correct!,,,,,,t1.png,t5.png,4,9.55E-11,21,female,2020-07-27_19h48.20.080,torte-2b,2020.1.3,Win32,60,13193,,,,,,,,,,,,,,,,,,,,,,,,,,,,,,,,,,,,,0,56,56,20,1,,,,,,,,,,,,,,,,,,,,,,,,
,,,,,,,,,,,,l,0.53925,Incorrect,,,,,,t2.png,t1.png,1,0.9,21,female,2020-07-27_19h48.20.080,torte-2b,2020.1.3,Win32,60,13193,,,,,,,,,,,,,,,,,,,,,,,,,,,,,,,,,,,,,0,57,57,93,1,,,,,,,,,,,,,,,,,,,,,,,,
,,,,,,,,,,,,l,0.446385,Incorrect,,,,,,t2.png,t1.png,1,0.9,21,female,2020-07-27_19h48.20.080,torte-2b,2020.1.3,Win32,60,13193,,,,,,,,,,,,,,,,,,,,,,,,,,,,,,,,,,,,,0,58,58,100,1,,,,,,,,,,,,,,,,,,,,,,,,
,,,,,,,,,,,,l,0.68475,Correct!,,,,,,t1.png,t3.png,2,0.056466,21,female,2020-07-27_19h48.20.080,torte-2b,2020.1.3,Win32,60,13193,,,,,,,,,,,,,,,,,,,,,,,,,,,,,,,,,,,,,0,59,59,24,1,,,,,,,,,,,,,,,,,,,,,,,,
,,,,,,,,,,,,l,0.49871,Incorrect,,,,,,t1.png,t2.png,1,0.9,21,female,2020-07-27_19h48.20.080,torte-2b,2020.1.3,Win32,60,13193,,,,,,,,,,,,,,,,,,,,,,,,,,,,,,,,,,,,,0,60,60,61,1,,,,,,,,,,,,,,,,,,,,,,,,
,,,,,,,,,,,,l,0.906455,Correct!,,,,,,t4.png,t1.png,3,0.059078,21,female,2020-07-27_19h48.20.080,torte-2b,2020.1.3,Win32,60,13193,,,,,,,,,,,,,,,,,,,,,,,,,,,,,,,,,,,,,0,61,61,62,1,,,,,,,,,,,,,,,,,,,,,,,,
,,,,,,,,,,,,l,1.000345,Correct!,,,,,,t2.png,t4.png,2,0.059078,21,female,2020-07-27_19h48.20.080,torte-2b,2020.1.3,Win32,60,13193,,,,,,,,,,,,,,,,,,,,,,,,,,,,,,,,,,,,,0,62,62,97,1,,,,,,,,,,,,,,,,,,,,,,,,
,,,,,,,,,,,,l,0.653995,Incorrect,,,,,,t3.png,t4.png,1,0.90855,21,female,2020-07-27_19h48.20.080,torte-2b,2020.1.3,Win32,60,13193,,,,,,,,,,,,,,,,,,,,,,,,,,,,,,,,,,,,,0,63,63,111,1,,,,,,,,,,,,,,,,,,,,,,,,
,,,,,,,,,,,,a,0.58494,Correct!,,,,,,t4.png,t4.png,0,0.98115,21,female,2020-07-27_19h48.20.080,torte-2b,2020.1.3,Win32,60,13193,,,,,,,,,,,,,,,,,,,,,,,,,,,,,,,,,,,,,0,64,64,59,1,,,,,,,,,,,,,,,,,,,,,,,,
,,,,,,,,,,,,l,0.58505,Incorrect,,,,,,t2.png,t3.png,1,0.90855,21,female,2020-07-27_19h48.20.080,torte-2b,2020.1.3,Win32,60,13193,,,,,,,,,,,,,,,,,,,,,,,,,,,,,,,,,,,,,0,65,65,79,1,,,,,,,,,,,,,,,,,,,,,,,,
,,,,,,,,,,,,a,0.50342,Correct!,,,,,,t4.png,t5.png,1,0.90025,21,female,2020-07-27_19h48.20.080,torte-2b,2020.1.3,Win32,60,13193,,,,,,,,,,,,,,,,,,,,,,,,,,,,,,,,,,,,,0,66,66,86,1,,,,,,,,,,,,,,,,,,,,,,,,
,,,,,,,,,,,,l,0.47224,Correct!,,,,,,t3.png,t1.png,2,0.0565,21,female,2020-07-27_19h48.20.080,torte-2b,2020.1.3,Win32,60,13193,,,,,,,,,,,,,,,,,,,,,,,,,,,,,,,,,,,,,0,67,67,104,1,,,,,,,,,,,,,,,,,,,,,,,,
,,,,,,,,,,,,l,0.775595,Correct!,,,,,,t4.png,t1.png,3,0.0000131,21,female,2020-07-27_19h48.20.080,torte-2b,2020.1.3,Win32,60,13193,,,,,,,,,,,,,,,,,,,,,,,,,,,,,,,,,,,,,0,68,68,28,1,,,,,,,,,,,,,,,,,,,,,,,,
,,,,,,,,,,,,a,0.94278,Correct!,,,,,,t3.png,t4.png,1,0.90855,21,female,2020-07-27_19h48.20.080,torte-2b,2020.1.3,Win32,60,13193,,,,,,,,,,,,,,,,,,,,,,,,,,,,,,,,,,,,,0,69,69,9,1,,,,,,,,,,,,,,,,,,,,,,,,
,,,,,,,,,,,,a,0.38945,Correct!,,,,,,t4.png,t5.png,1,0.90025,21,female,2020-07-27_19h48.20.080,torte-2b,2020.1.3,Win32,60,13193,,,,,,,,,,,,,,,,,,,,,,,,,,,,,,,,,,,,,0,70,70,33,1,,,,,,,,,,,,,,,,,,,,,,,,
,,,,,,,,,,,,l,0.43602,Incorrect,,,,,,t2.png,t2.png,0,0.98115,21,female,2020-07-27_19h48.20.080,torte-2b,2020.1.3,Win32,60,13193,,,,,,,,,,,,,,,,,,,,,,,,,,,,,,,,,,,,,0,71,71,69,1,,,,,,,,,,,,,,,,,,,,,,,,
,,,,,,,,,,,,a,0.865965,Correct!,,,,,,t3.png,t2.png,1,0.90855,21,female,2020-07-27_19h48.20.080,torte-2b,2020.1.3,Win32,60,13193,,,,,,,,,,,,,,,,,,,,,,,,,,,,,,,,,,,,,0,72,72,10,1,,,,,,,,,,,,,,,,,,,,,,,,
,,,,,,,,,,,,l,0.54891,Incorrect,,,,,,t4.png,t4.png,0,0.98115,21,female,2020-07-27_19h48.20.080,torte-2b,2020.1.3,Win32,60,13193,,,,,,,,,,,,,,,,,,,,,,,,,,,,,,,,,,,,,0,73,73,52,1,,,,,,,,,,,,,,,,,,,,,,,,
,,,,,,,,,,,,l,0.63172,Incorrect,,,,,,t1.png,t2.png,1,0.9,21,female,2020-07-27_19h48.20.080,torte-2b,2020.1.3,Win32,60,13193,,,,,,,,,,,,,,,,,,,,,,,,,,,,,,,,,,,,,0,74,74,41,1,,,,,,,,,,,,,,,,,,,,,,,,
,,,,,,,,,,,,a,0.56687,Incorrect,,,,,,t5.png,t3.png,2,0.0565,21,female,2020-07-27_19h48.20.080,torte-2b,2020.1.3,Win32,60,13193,,,,,,,,,,,,,,,,,,,,,,,,,,,,,,,,,,,,,0,75,75,50,1,,,,,,,,,,,,,,,,,,,,,,,,
,,,,,,,,,,,,l,0.6159,Incorrect,,,,,,t2.png,t2.png,0,0.98115,21,female,2020-07-27_19h48.20.080,torte-2b,2020.1.3,Win32,60,13193,,,,,,,,,,,,,,,,,,,,,,,,,,,,,,,,,,,,,0,76,76,112,1,,,,,,,,,,,,,,,,,,,,,,,,
,,,,,,,,,,,,a,0.46621,Incorrect,,,,,,t4.png,t1.png,3,0.059078,21,female,2020-07-27_19h48.20.080,torte-2b,2020.1.3,Win32,60,13193,,,,,,,,,,,,,,,,,,,,,,,,,,,,,,,,,,,,,0,77,77,73,1,,,,,,,,,,,,,,,,,,,,,,,,
,,,,,,,,,,,,a,0.489605,Incorrect,,,,,,t2.png,t5.png,3,0.0000131,21,female,2020-07-27_19h48.20.080,torte-2b,2020.1.3,Win32,60,13193,,,,,,,,,,,,,,,,,,,,,,,,,,,,,,,,,,,,,0,78,78,85,1,,,,,,,,,,,,,,,,,,,,,,,,
,,,,,,,,,,,,a,0.466985,Correct!,,,,,,t4.png,t5.png,1,0.90025,21,female,2020-07-27_19h48.20.080,torte-2b,2020.1.3,Win32,60,13193,,,,,,,,,,,,,,,,,,,,,,,,,,,,,,,,,,,,,0,79,79,21,1,,,,,,,,,,,,,,,,,,,,,,,,
,,,,,,,,,,,,a,0.616195,Incorrect,,,,,,t3.png,t5.png,2,0.056466,21,female,2020-07-27_19h48.20.080,torte-2b,2020.1.3,Win32,60,13193,,,,,,,,,,,,,,,,,,,,,,,,,,,,,,,,,,,,,0,80,80,47,1,,,,,,,,,,,,,,,,,,,,,,,,
,,,,,,,,,,,,l,0.553185,Incorrect,,,,,,t2.png,t3.png,1,0.90855,21,female,2020-07-27_19h48.20.080,torte-2b,2020.1.3,Win32,60,13193,,,,,,,,,,,,,,,,,,,,,,,,,,,,,,,,,,,,,0,81,81,113,1,,,,,,,,,,,,,,,,,,,,,,,,
,,,,,,,,,,,,l,0.57205,Correct!,,,,,,t2.png,t4.png,2,0.059078,21,female,2020-07-27_19h48.20.080,torte-2b,2020.1.3,Win32,60,13193,,,,,,,,,,,,,,,,,,,,,,,,,,,,,,,,,,,,,0,82,82,67,1,,,,,,,,,,,,,,,,,,,,,,,,
,,,,,,,,,,,,a,0.924325,Incorrect,,,,,,t2.png,t5.png,3,0.0000131,21,female,2020-07-27_19h48.20.080,torte-2b,2020.1.3,Win32,60,13193,,,,,,,,,,,,,,,,,,,,,,,,,,,,,,,,,,,,,0,83,83,46,1,,,,,,,,,,,,,,,,,,,,,,,,
,,,,,,,,,,,,a,0.77205,Correct!,,,,,,t1.png,t1.png,0,0.978,21,female,2020-07-27_19h48.20.080,torte-2b,2020.1.3,Win32,60,13193,,,,,,,,,,,,,,,,,,,,,,,,,,,,,,,,,,,,,0,84,84,13,1,,,,,,,,,,,,,,,,,,,,,,,,
,,,,,,,,,,,,a,0.832585,Incorrect,,,,,,t5.png,t3.png,2,0.056466,21,female,2020-07-27_19h48.20.080,torte-2b,2020.1.3,Win32,60,13193,,,,,,,,,,,,,,,,,,,,,,,,,,,,,,,,,,,,,0,85,85,37,1,,,,,,,,,,,,,,,,,,,,,,,,
,,,,,,,,,,,,l,1.18147,Correct!,,,,,,t1.png,t5.png,4,9.55E-11,21,female,2020-07-27_19h48.20.080,torte-2b,2020.1.3,Win32,60,13193,,,,,,,,,,,,,,,,,,,,,,,,,,,,,,,,,,,,,0,86,86,30,1,,,,,,,,,,,,,,,,,,,,,,,,
,,,,,,,,,,,,l,0.668335,Incorrect,,,,,,t2.png,t3.png,1,0.90855,21,female,2020-07-27_19h48.20.080,torte-2b,2020.1.3,Win32,60,13193,,,,,,,,,,,,,,,,,,,,,,,,,,,,,,,,,,,,,0,87,87,70,1,,,,,,,,,,,,,,,,,,,,,,,,
,,,,,,,,,,,,l,0.931905,Correct!,,,,,,t5.png,t1.png,4,9.55E-11,21,female,2020-07-27_19h48.20.080,torte-2b,2020.1.3,Win32,60,13193,,,,,,,,,,,,,,,,,,,,,,,,,,,,,,,,,,,,,0,88,88,89,1,,,,,,,,,,,,,,,,,,,,,,,,
,,,,,,,,,,,,l,0.6489,Incorrect,,,,,,t2.png,t2.png,0,0.98115,21,female,2020-07-27_19h48.20.080,torte-2b,2020.1.3,Win32,60,13193,,,,,,,,,,,,,,,,,,,,,,,,,,,,,,,,,,,,,0,89,89,7,1,,,,,,,,,,,,,,,,,,,,,,,,
,,,,,,,,,,,,a,0.682725,Incorrect,,,,,,t3.png,t5.png,2,0.056466,21,female,2020-07-27_19h48.20.080,torte-2b,2020.1.3,Win32,60,13193,,,,,,,,,,,,,,,,,,,,,,,,,,,,,,,,,,,,,0,90,90,60,1,,,,,,,,,,,,,,,,,,,,,,,,
,,,,,,,,,,,,a,0.604365,Correct!,,,,,,t4.png,t3.png,1,0.909,21,female,2020-07-27_19h48.20.080,torte-2b,2020.1.3,Win32,60,13193,,,,,,,,,,,,,,,,,,,,,,,,,,,,,,,,,,,,,0,91,91,119,1,,,,,,,,,,,,,,,,,,,,,,,,
,,,,,,,,,,,,a,0.49034,Correct!,,,,,,t4.png,t3.png,1,0.90855,21,female,2020-07-27_19h48.20.080,torte-2b,2020.1.3,Win32,60,13193,,,,,,,,,,,,,,,,,,,,,,,,,,,,,,,,,,,,,0,92,92,56,1,,,,,,,,,,,,,,,,,,,,,,,,
,,,,,,,,,,,,l,1.14103,Incorrect,,,,,,t1.png,t2.png,1,0.9,21,female,2020-07-27_19h48.20.080,torte-2b,2020.1.3,Win32,60,13193,,,,,,,,,,,,,,,,,,,,,,,,,,,,,,,,,,,,,0,93,93,17,1,,,,,,,,,,,,,,,,,,,,,,,,
,,,,,,,,,,,,a,1.299035,Incorrect,,,,,,t3.png,t5.png,2,0.056466,21,female,2020-07-27_19h48.20.080,torte-2b,2020.1.3,Win32,60,13193,,,,,,,,,,,,,,,,,,,,,,,,,,,,,,,,,,,,,0,94,94,78,1,,,,,,,,,,,,,,,,,,,,,,,,
,,,,,,,,,,,,a,0.599355,Correct!,,,,,,t5.png,t4.png,1,0.90025,21,female,2020-07-27_19h48.20.080,torte-2b,2020.1.3,Win32,60,13193,,,,,,,,,,,,,,,,,,,,,,,,,,,,,,,,,,,,,0,95,95,25,1,,,,,,,,,,,,,,,,,,,,,,,,
,,,,,,,,,,,,a,0.5855,Correct!,,,,,,t5.png,t5.png,0,0.97829,21,female,2020-07-27_19h48.20.080,torte-2b,2020.1.3,Win32,60,13193,,,,,,,,,,,,,,,,,,,,,,,,,,,,,,,,,,,,,0,96,96,77,1,,,,,,,,,,,,,,,,,,,,,,,,
,,,,,,,,,,,,a,0.70311,Incorrect,,,,,,t3.png,t5.png,2,0.0565,21,female,2020-07-27_19h48.20.080,torte-2b,2020.1.3,Win32,60,13193,,,,,,,,,,,,,,,,,,,,,,,,,,,,,,,,,,,,,0,97,97,71,1,,,,,,,,,,,,,,,,,,,,,,,,
,,,,,,,,,,,,a,0.38897,Incorrect,,,,,,t1.png,t4.png,3,0.0000131,21,female,2020-07-27_19h48.20.080,torte-2b,2020.1.3,Win32,60,13193,,,,,,,,,,,,,,,,,,,,,,,,,,,,,,,,,,,,,0,98,98,36,1,,,,,,,,,,,,,,,,,,,,,,,,
,,,,,,,,,,,,a,0.67342,Correct!,,,,,,t1.png,t1.png,0,0.97829,21,female,2020-07-27_19h48.20.080,torte-2b,2020.1.3,Win32,60,13193,,,,,,,,,,,,,,,,,,,,,,,,,,,,,,,,,,,,,0,99,99,114,1,,,,,,,,,,,,,,,,,,,,,,,,
,,,,,,,,,,,,l,0.78597,Correct!,,,,,,t5.png,t3.png,2,0.056466,21,female,2020-07-27_19h48.20.080,torte-2b,2020.1.3,Win32,60,13193,,,,,,,,,,,,,,,,,,,,,,,,,,,,,,,,,,,,,0,100,100,27,1,,,,,,,,,,,,,,,,,,,,,,,,
,,,,,,,,,,,,l,0.65635,Correct!,,,,,,t1.png,t3.png,2,0.056466,21,female,2020-07-27_19h48.20.080,torte-2b,2020.1.3,Win32,60,13193,,,,,,,,,,,,,,,,,,,,,,,,,,,,,,,,,,,,,0,101,101,32,1,,,,,,,,,,,,,,,,,,,,,,,,
,,,,,,,,,,,,a,2.05009,Correct!,,,,,,t2.png,t1.png,1,0.90025,21,female,2020-07-27_19h48.20.080,torte-2b,2020.1.3,Win32,60,13193,,,,,,,,,,,,,,,,,,,,,,,,,,,,,,,,,,,,,0,102,102,44,1,,,,,,,,,,,,,,,,,,,,,,,,
,,,,,,,,,,,,a,1.51611,Correct!,,,,,,t4.png,t5.png,1,0.9,21,female,2020-07-27_19h48.20.080,torte-2b,2020.1.3,Win32,60,13193,,,,,,,,,,,,,,,,,,,,,,,,,,,,,,,,,,,,,0,103,103,81,1,,,,,,,,,,,,,,,,,,,,,,,,
,,,,,,,,,,,,a,1.04053,Incorrect,,,,,,t2.png,t5.png,3,0.0000131,21,female,2020-07-27_19h48.20.080,torte-2b,2020.1.3,Win32,60,13193,,,,,,,,,,,,,,,,,,,,,,,,,,,,,,,,,,,,,0,104,104,54,1,,,,,,,,,,,,,,,,,,,,,,,,
,,,,,,,,,,,,l,1.47642,Correct!,,,,,,t3.png,t1.png,2,0.056466,21,female,2020-07-27_19h48.20.080,torte-2b,2020.1.3,Win32,60,13193,,,,,,,,,,,,,,,,,,,,,,,,,,,,,,,,,,,,,0,105,105,109,1,,,,,,,,,,,,,,,,,,,,,,,,
,,,,,,,,,,,,l,1.157265,Correct!,,,,,,t1.png,t4.png,3,0.0000131,21,female,2020-07-27_19h48.20.080,torte-2b,2020.1.3,Win32,60,13193,,,,,,,,,,,,,,,,,,,,,,,,,,,,,,,,,,,,,0,106,106,16,1,,,,,,,,,,,,,,,,,,,,,,,,
,,,,,,,,,,,,a,0.58275,Correct!,,,,,,t5.png,t5.png,0,0.97829,21,female,2020-07-27_19h48.20.080,torte-2b,2020.1.3,Win32,60,13193,,,,,,,,,,,,,,,,,,,,,,,,,,,,,,,,,,,,,0,107,107,35,1,,,,,,,,,,,,,,,,,,,,,,,,
,,,,,,,,,,,,l,1.102365,Incorrect,,,,,,t1.png,t2.png,1,0.90025,21,female,2020-07-27_19h48.20.080,torte-2b,2020.1.3,Win32,60,13193,,,,,,,,,,,,,,,,,,,,,,,,,,,,,,,,,,,,,0,108,108,6,1,,,,,,,,,,,,,,,,,,,,,,,,
,,,,,,,,,,,,a,0.65386,Correct!,,,,,,t5.png,t4.png,1,0.90025,21,female,2020-07-27_19h48.20.080,torte-2b,2020.1.3,Win32,60,13193,,,,,,,,,,,,,,,,,,,,,,,,,,,,,,,,,,,,,0,109,109,14,1,,,,,,,,,,,,,,,,,,,,,,,,
,,,,,,,,,,,,a,0.52458,Correct!,,,,,,t4.png,t3.png,1,0.90855,21,female,2020-07-27_19h48.20.080,torte-2b,2020.1.3,Win32,60,13193,,,,,,,,,,,,,,,,,,,,,,,,,,,,,,,,,,,,,0,110,110,11,1,,,,,,,,,,,,,,,,,,,,,,,,
,,,,,,,,,,,,a,0.58765,Incorrect,,,,,,t5.png,t2.png,3,0.0000131,21,female,2020-07-27_19h48.20.080,torte-2b,2020.1.3,Win32,60,13193,,,,,,,,,,,,,,,,,,,,,,,,,,,,,,,,,,,,,0,111,111,48,1,,,,,,,,,,,,,,,,,,,,,,,,
,,,,,,,,,,,,a,1.6816,Correct!,,,,,,t4.png,t3.png,1,0.909,21,female,2020-07-27_19h48.20.080,torte-2b,2020.1.3,Win32,60,13193,,,,,,,,,,,,,,,,,,,,,,,,,,,,,,,,,,,,,0,112,112,107,1,,,,,,,,,,,,,,,,,,,,,,,,
,,,,,,,,,,,,l,0.76874,Correct!,,,,,,t4.png,t1.png,3,0.059078,21,female,2020-07-27_19h48.20.080,torte-2b,2020.1.3,Win32,60,13193,,,,,,,,,,,,,,,,,,,,,,,,,,,,,,,,,,,,,0,113,113,75,1,,,,,,,,,,,,,,,,,,,,,,,,
,,,,,,,,,,,,l,0.4872,Correct!,,,,,,t1.png,t3.png,2,0.0565,21,female,2020-07-27_19h48.20.080,torte-2b,2020.1.3,Win32,60,13193,,,,,,,,,,,,,,,,,,,,,,,,,,,,,,,,,,,,,0,114,114,12,1,,,,,,,,,,,,,,,,,,,,,,,,
,,,,,,,,,,,,a,0.647005,Correct!,,,,,,t5.png,t5.png,0,0.978,21,female,2020-07-27_19h48.20.080,torte-2b,2020.1.3,Win32,60,13193,,,,,,,,,,,,,,,,,,,,,,,,,,,,,,,,,,,,,0,115,115,51,1,,,,,,,,,,,,,,,,,,,,,,,,
,,,,,,,,,,,,a,0.74839,Incorrect,,,,,,t1.png,t4.png,3,0.0000131,21,female,2020-07-27_19h48.20.080,torte-2b,2020.1.3,Win32,60,13193,,,,,,,,,,,,,,,,,,,,,,,,,,,,,,,,,,,,,0,116,116,74,1,,,,,,,,,,,,,,,,,,,,,,,,
,,,,,,,,,,,,a,0.66515,Correct!,,,,,,t4.png,t4.png,0,0.98115,21,female,2020-07-27_19h48.20.080,torte-2b,2020.1.3,Win32,60,13193,,,,,,,,,,,,,,,,,,,,,,,,,,,,,,,,,,,,,0,117,117,68,1,,,,,,,,,,,,,,,,,,,,,,,,
,,,,,,,,,,,,l,0.636495,Correct!,,,,,,t1.png,t4.png,3,0.0000131,21,female,2020-07-27_19h48.20.080,torte-2b,2020.1.3,Win32,60,13193,,,,,,,,,,,,,,,,,,,,,,,,,,,,,,,,,,,,,0,118,118,23,1,,,,,,,,,,,,,,,,,,,,,,,,
,,,,,,,,,,,,l,0.56772,Correct!,,,,,,t1.png,t5.png,4,9.55E-11,21,female,2020-07-27_19h48.20.080,torte-2b,2020.1.3,Win32,60,13193,,,,,,,,,,,,,,,,,,,,,,,,,,,,,,,,,,,,,0,119,119,118,1,,,,,,,,,,,,,,,,,,,,,,,,
,,,,,,,,,,,,,,,,,,,,,,,,21,female,2020-07-27_19h48.20.080,torte-2b,2020.1.3,Win32,60,13193,space,1.359935,,,,,,,,,,,,,,,,,,,,,,,,,,,,,,,,,,,,,,,,171.3333575,9.666658223,1,0,0,s4,219.3333589,104.9999944,1,0,0,t1,250.6666932,-93.66667819,1,0,0,proceed,space,15.530305,space,1.134525,space,0.34848
