key_resp_8.keys,key_resp_8.rt,key_resp_9.keys,key_resp_9.rt,key_resp_10.keys,key_resp_10.rt,key_resp_11.keys,key_resp_11.rt,key_resp_2.keys,key_resp_2.rt,key_resp_3.keys,key_resp_3.rt,key_resp.keys,key_resp.rt,Feedback,train.thisRepN,train.thisTrialN,train.thisN,train.thisIndex,train.ran,torta_sx,torta_dx,difference,probability,age,gender,date,expName,psychopyVersion,OS,frameRate,participant,key_resp_15.keys,key_resp_15.rt,key_resp_6.keys,key_resp_6.rt,test1.thisRepN,test1.thisTrialN,test1.thisN,test1.thisIndex,test1.ran,key_resp_4.keys,key_resp_4.rt,key_resp_5.keys,back1.thisRepN,back1.thisTrialN,back1.thisN,back1.thisIndex,back1.ran,letter,key_resp_5.rt,back2.thisRepN,back2.thisTrialN,back2.thisN,back2.thisIndex,back2.ran,back3.thisRepN,back3.thisTrialN,back3.thisN,back3.thisIndex,back3.ran,back4.thisRepN,back4.thisTrialN,back4.thisN,back4.thisIndex,back4.ran,key_resp_7.keys,key_resp_7.rt,test2.thisRepN,test2.thisTrialN,test2.thisN,test2.thisIndex,test2.ran,mouse.x,mouse.y,mouse.leftButton,mouse.midButton,mouse.rightButton,mouse.clicked_name,mouse_2.x,mouse_2.y,mouse_2.leftButton,mouse_2.midButton,mouse_2.rightButton,mouse_2.clicked_name,mouse_3.x,mouse_3.y,mouse_3.leftButton,mouse_3.midButton,mouse_3.rightButton,mouse_3.clicked_name,key_resp_12.keys,key_resp_12.rt,key_resp_13.keys,key_resp_13.rt,key_resp_14.keys,key_resp_14.rt
space,1.765865,space,0.77142,space,0.322565,space,0.338925,l,2.285815,k,0.21995,a,1.1916,Incorrect,0,0,0,51,1,t3.png,t1.png,2,0.056466,20,Female,2020-11-19_15h59.41.444,torte-2b,2020.1.3,Win32,60,13217,,,,,,,,,,,,,,,,,,,,,,,,,,,,,,,,,,,,,,,,,,,,,,,,,,,,,,,,,,,,,,,,,
,,,,,,,,,,,,l,0.50189,Correct!,0,1,1,3,1,t1.png,t5.png,4,9.55E-11,20,Female,2020-11-19_15h59.41.444,torte-2b,2020.1.3,Win32,60,13217,,,,,,,,,,,,,,,,,,,,,,,,,,,,,,,,,,,,,,,,,,,,,,,,,,,,,,,,,,,,,,,,,
,,,,,,,,,,,,a,0.425365,Correct!,0,2,2,76,1,t3.png,t2.png,1,0.90855,20,Female,2020-11-19_15h59.41.444,torte-2b,2020.1.3,Win32,60,13217,,,,,,,,,,,,,,,,,,,,,,,,,,,,,,,,,,,,,,,,,,,,,,,,,,,,,,,,,,,,,,,,,
,,,,,,,,,,,,l,0.23526,Incorrect,0,3,3,10,1,t2.png,t3.png,1,0.90855,20,Female,2020-11-19_15h59.41.444,torte-2b,2020.1.3,Win32,60,13217,,,,,,,,,,,,,,,,,,,,,,,,,,,,,,,,,,,,,,,,,,,,,,,,,,,,,,,,,,,,,,,,,
,,,,,,,,,,,,a,0.30129,Incorrect,0,4,4,31,1,t1.png,t5.png,4,9.55E-11,20,Female,2020-11-19_15h59.41.444,torte-2b,2020.1.3,Win32,60,13217,,,,,,,,,,,,,,,,,,,,,,,,,,,,,,,,,,,,,,,,,,,,,,,,,,,,,,,,,,,,,,,,,
,,,,,,,,,,,,l,0.42034,Correct!,0,5,5,62,1,t5.png,t5.png,0,0.978,20,Female,2020-11-19_15h59.41.444,torte-2b,2020.1.3,Win32,60,13217,,,,,,,,,,,,,,,,,,,,,,,,,,,,,,,,,,,,,,,,,,,,,,,,,,,,,,,,,,,,,,,,,
,,,,,,,,,,,,a,2.42659,Correct!,0,6,6,32,1,t4.png,t5.png,1,0.90025,20,Female,2020-11-19_15h59.41.444,torte-2b,2020.1.3,Win32,60,13217,,,,,,,,,,,,,,,,,,,,,,,,,,,,,,,,,,,,,,,,,,,,,,,,,,,,,,,,,,,,,,,,,
,,,,,,,,,,,,l,0.659475,Incorrect,0,7,7,84,1,t1.png,t1.png,0,0.97829,20,Female,2020-11-19_15h59.41.444,torte-2b,2020.1.3,Win32,60,13217,,,,,,,,,,,,,,,,,,,,,,,,,,,,,,,,,,,,,,,,,,,,,,,,,,,,,,,,,,,,,,,,,
,,,,,,,,,,,,a,0.302475,Incorrect,0,8,8,0,1,t5.png,t1.png,4,9.55E-11,20,Female,2020-11-19_15h59.41.444,torte-2b,2020.1.3,Win32,60,13217,,,,,,,,,,,,,,,,,,,,,,,,,,,,,,,,,,,,,,,,,,,,,,,,,,,,,,,,,,,,,,,,,
,,,,,,,,,,,,a,0.403705,Incorrect,0,9,9,1,1,t2.png,t4.png,2,0.059078,20,Female,2020-11-19_15h59.41.444,torte-2b,2020.1.3,Win32,60,13217,,,,,,,,,,,,,,,,,,,,,,,,,,,,,,,,,,,,,,,,,,,,,,,,,,,,,,,,,,,,,,,,,
,,,,,,,,,,,,l,0.2096,Correct!,0,10,10,36,1,t3.png,t1.png,2,0.0565,20,Female,2020-11-19_15h59.41.444,torte-2b,2020.1.3,Win32,60,13217,,,,,,,,,,,,,,,,,,,,,,,,,,,,,,,,,,,,,,,,,,,,,,,,,,,,,,,,,,,,,,,,,
,,,,,,,,,,,,a,0.246465,Incorrect,0,11,11,108,1,t5.png,t1.png,4,9.55E-11,20,Female,2020-11-19_15h59.41.444,torte-2b,2020.1.3,Win32,60,13217,,,,,,,,,,,,,,,,,,,,,,,,,,,,,,,,,,,,,,,,,,,,,,,,,,,,,,,,,,,,,,,,,
,,,,,,,,,,,,l,0.910035,Correct!,0,12,12,37,1,t1.png,t4.png,3,0.0000131,20,Female,2020-11-19_15h59.41.444,torte-2b,2020.1.3,Win32,60,13217,,,,,,,,,,,,,,,,,,,,,,,,,,,,,,,,,,,,,,,,,,,,,,,,,,,,,,,,,,,,,,,,,
,,,,,,,,,,,,l,0.43785,Correct!,0,13,13,103,1,t3.png,t1.png,2,0.056466,20,Female,2020-11-19_15h59.41.444,torte-2b,2020.1.3,Win32,60,13217,,,,,,,,,,,,,,,,,,,,,,,,,,,,,,,,,,,,,,,,,,,,,,,,,,,,,,,,,,,,,,,,,
,,,,,,,,,,,,a,0.27508,Incorrect,0,14,14,86,1,t3.png,t1.png,2,0.056466,20,Female,2020-11-19_15h59.41.444,torte-2b,2020.1.3,Win32,60,13217,,,,,,,,,,,,,,,,,,,,,,,,,,,,,,,,,,,,,,,,,,,,,,,,,,,,,,,,,,,,,,,,,
,,,,,,,,,,,,l,0.285635,Correct!,0,15,15,6,1,t1.png,t4.png,3,0.0000131,20,Female,2020-11-19_15h59.41.444,torte-2b,2020.1.3,Win32,60,13217,,,,,,,,,,,,,,,,,,,,,,,,,,,,,,,,,,,,,,,,,,,,,,,,,,,,,,,,,,,,,,,,,
,,,,,,,,,,,,l,0.261735,Incorrect,0,16,16,64,1,t1.png,t1.png,0,0.978,20,Female,2020-11-19_15h59.41.444,torte-2b,2020.1.3,Win32,60,13217,,,,,,,,,,,,,,,,,,,,,,,,,,,,,,,,,,,,,,,,,,,,,,,,,,,,,,,,,,,,,,,,,
,,,,,,,,,,,,l,0.42635,Correct!,0,17,17,117,1,t1.png,t5.png,4,9.55E-11,20,Female,2020-11-19_15h59.41.444,torte-2b,2020.1.3,Win32,60,13217,,,,,,,,,,,,,,,,,,,,,,,,,,,,,,,,,,,,,,,,,,,,,,,,,,,,,,,,,,,,,,,,,
,,,,,,,,,,,,a,0.33482,Incorrect,0,18,18,56,1,t5.png,t1.png,4,9.55E-11,20,Female,2020-11-19_15h59.41.444,torte-2b,2020.1.3,Win32,60,13217,,,,,,,,,,,,,,,,,,,,,,,,,,,,,,,,,,,,,,,,,,,,,,,,,,,,,,,,,,,,,,,,,
,,,,,,,,,,,,l,0.45194,Correct!,0,19,19,26,1,t4.png,t2.png,2,0.0591,20,Female,2020-11-19_15h59.41.444,torte-2b,2020.1.3,Win32,60,13217,,,,,,,,,,,,,,,,,,,,,,,,,,,,,,,,,,,,,,,,,,,,,,,,,,,,,,,,,,,,,,,,,
,,,,,,,,,,,,a,0.319115,Incorrect,0,20,20,33,1,t5.png,t1.png,4,9.55E-11,20,Female,2020-11-19_15h59.41.444,torte-2b,2020.1.3,Win32,60,13217,,,,,,,,,,,,,,,,,,,,,,,,,,,,,,,,,,,,,,,,,,,,,,,,,,,,,,,,,,,,,,,,,
,,,,,,,,,,,,l,0.33709,Incorrect,0,21,21,8,1,t3.png,t2.png,1,0.90855,20,Female,2020-11-19_15h59.41.444,torte-2b,2020.1.3,Win32,60,13217,,,,,,,,,,,,,,,,,,,,,,,,,,,,,,,,,,,,,,,,,,,,,,,,,,,,,,,,,,,,,,,,,
,,,,,,,,,,,,a,0.27855,Incorrect,0,22,22,43,1,t4.png,t2.png,2,0.059078,20,Female,2020-11-19_15h59.41.444,torte-2b,2020.1.3,Win32,60,13217,,,,,,,,,,,,,,,,,,,,,,,,,,,,,,,,,,,,,,,,,,,,,,,,,,,,,,,,,,,,,,,,,
,,,,,,,,,,,,l,0.33541,Correct!,0,23,23,80,1,t1.png,t4.png,3,0.0000131,20,Female,2020-11-19_15h59.41.444,torte-2b,2020.1.3,Win32,60,13217,,,,,,,,,,,,,,,,,,,,,,,,,,,,,,,,,,,,,,,,,,,,,,,,,,,,,,,,,,,,,,,,,
,,,,,,,,,,,,l,0.451275,Incorrect,0,24,24,81,1,t1.png,t1.png,0,0.97829,20,Female,2020-11-19_15h59.41.444,torte-2b,2020.1.3,Win32,60,13217,,,,,,,,,,,,,,,,,,,,,,,,,,,,,,,,,,,,,,,,,,,,,,,,,,,,,,,,,,,,,,,,,
,,,,,,,,,,,,a,0.574435,Correct!,0,25,25,41,1,t3.png,t2.png,1,0.90855,20,Female,2020-11-19_15h59.41.444,torte-2b,2020.1.3,Win32,60,13217,,,,,,,,,,,,,,,,,,,,,,,,,,,,,,,,,,,,,,,,,,,,,,,,,,,,,,,,,,,,,,,,,
,,,,,,,,,,,,l,0.41843,Incorrect,0,26,26,42,1,t5.png,t4.png,1,0.90025,20,Female,2020-11-19_15h59.41.444,torte-2b,2020.1.3,Win32,60,13217,,,,,,,,,,,,,,,,,,,,,,,,,,,,,,,,,,,,,,,,,,,,,,,,,,,,,,,,,,,,,,,,,
,,,,,,,,,,,,a,1.201805,Correct!,0,27,27,44,1,t2.png,t3.png,1,0.909,20,Female,2020-11-19_15h59.41.444,torte-2b,2020.1.3,Win32,60,13217,,,,,,,,,,,,,,,,,,,,,,,,,,,,,,,,,,,,,,,,,,,,,,,,,,,,,,,,,,,,,,,,,
,,,,,,,,,,,,l,0.52782,Incorrect,0,28,28,28,1,t2.png,t3.png,1,0.909,20,Female,2020-11-19_15h59.41.444,torte-2b,2020.1.3,Win32,60,13217,,,,,,,,,,,,,,,,,,,,,,,,,,,,,,,,,,,,,,,,,,,,,,,,,,,,,,,,,,,,,,,,,
,,,,,,,,,,,,l,0.63725,Correct!,0,29,29,67,1,t1.png,t5.png,4,9.55E-11,20,Female,2020-11-19_15h59.41.444,torte-2b,2020.1.3,Win32,60,13217,,,,,,,,,,,,,,,,,,,,,,,,,,,,,,,,,,,,,,,,,,,,,,,,,,,,,,,,,,,,,,,,,
,,,,,,,,,,,,l,1.78493,Correct!,0,30,30,98,1,t2.png,t4.png,2,0.0591,20,Female,2020-11-19_15h59.41.444,torte-2b,2020.1.3,Win32,60,13217,,,,,,,,,,,,,,,,,,,,,,,,,,,,,,,,,,,,,,,,,,,,,,,,,,,,,,,,,,,,,,,,,
,,,,,,,,,,,,a,1.143105,Correct!,0,31,31,77,1,t1.png,t1.png,0,0.97829,20,Female,2020-11-19_15h59.41.444,torte-2b,2020.1.3,Win32,60,13217,,,,,,,,,,,,,,,,,,,,,,,,,,,,,,,,,,,,,,,,,,,,,,,,,,,,,,,,,,,,,,,,,
,,,,,,,,,,,,l,1.44092,Correct!,0,32,32,82,1,t5.png,t1.png,4,9.55E-11,20,Female,2020-11-19_15h59.41.444,torte-2b,2020.1.3,Win32,60,13217,,,,,,,,,,,,,,,,,,,,,,,,,,,,,,,,,,,,,,,,,,,,,,,,,,,,,,,,,,,,,,,,,
,,,,,,,,,,,,a,1.384825,Incorrect,0,33,33,48,1,t5.png,t5.png,0,0.97829,20,Female,2020-11-19_15h59.41.444,torte-2b,2020.1.3,Win32,60,13217,,,,,,,,,,,,,,,,,,,,,,,,,,,,,,,,,,,,,,,,,,,,,,,,,,,,,,,,,,,,,,,,,
,,,,,,,,,,,,l,1.068455,Incorrect,0,34,34,97,1,t5.png,t5.png,0,0.97829,20,Female,2020-11-19_15h59.41.444,torte-2b,2020.1.3,Win32,60,13217,,,,,,,,,,,,,,,,,,,,,,,,,,,,,,,,,,,,,,,,,,,,,,,,,,,,,,,,,,,,,,,,,
,,,,,,,,,,,,a,1.651265,Incorrect,0,35,35,27,1,t3.png,t1.png,2,0.0565,20,Female,2020-11-19_15h59.41.444,torte-2b,2020.1.3,Win32,60,13217,,,,,,,,,,,,,,,,,,,,,,,,,,,,,,,,,,,,,,,,,,,,,,,,,,,,,,,,,,,,,,,,,
,,,,,,,,,,,,l,1.65726,Correct!,0,36,36,17,1,t1.png,t4.png,3,0.0000131,20,Female,2020-11-19_15h59.41.444,torte-2b,2020.1.3,Win32,60,13217,,,,,,,,,,,,,,,,,,,,,,,,,,,,,,,,,,,,,,,,,,,,,,,,,,,,,,,,,,,,,,,,,
,,,,,,,,,,,,a,2.259855,Incorrect,0,37,37,72,1,t4.png,t2.png,2,0.059078,20,Female,2020-11-19_15h59.41.444,torte-2b,2020.1.3,Win32,60,13217,,,,,,,,,,,,,,,,,,,,,,,,,,,,,,,,,,,,,,,,,,,,,,,,,,,,,,,,,,,,,,,,,
,,,,,,,,,,,,a,1.66801,Correct!,0,38,38,112,1,t1.png,t1.png,0,0.97829,20,Female,2020-11-19_15h59.41.444,torte-2b,2020.1.3,Win32,60,13217,,,,,,,,,,,,,,,,,,,,,,,,,,,,,,,,,,,,,,,,,,,,,,,,,,,,,,,,,,,,,,,,,
,,,,,,,,,,,,a,0.54322,Correct!,0,39,39,16,1,t5.png,t4.png,1,0.9,20,Female,2020-11-19_15h59.41.444,torte-2b,2020.1.3,Win32,60,13217,,,,,,,,,,,,,,,,,,,,,,,,,,,,,,,,,,,,,,,,,,,,,,,,,,,,,,,,,,,,,,,,,
,,,,,,,,,,,,l,0.494825,Incorrect,0,40,40,85,1,t3.png,t2.png,1,0.90855,20,Female,2020-11-19_15h59.41.444,torte-2b,2020.1.3,Win32,60,13217,,,,,,,,,,,,,,,,,,,,,,,,,,,,,,,,,,,,,,,,,,,,,,,,,,,,,,,,,,,,,,,,,
,,,,,,,,,,,,a,2.01831,Correct!,0,41,41,74,1,t5.png,t4.png,1,0.9,20,Female,2020-11-19_15h59.41.444,torte-2b,2020.1.3,Win32,60,13217,,,,,,,,,,,,,,,,,,,,,,,,,,,,,,,,,,,,,,,,,,,,,,,,,,,,,,,,,,,,,,,,,
,,,,,,,,,,,,l,0.41861,Incorrect,0,42,42,95,1,t1.png,t1.png,0,0.978,20,Female,2020-11-19_15h59.41.444,torte-2b,2020.1.3,Win32,60,13217,,,,,,,,,,,,,,,,,,,,,,,,,,,,,,,,,,,,,,,,,,,,,,,,,,,,,,,,,,,,,,,,,
,,,,,,,,,,,,a,0.44375,Incorrect,0,43,43,69,1,t4.png,t2.png,2,0.059078,20,Female,2020-11-19_15h59.41.444,torte-2b,2020.1.3,Win32,60,13217,,,,,,,,,,,,,,,,,,,,,,,,,,,,,,,,,,,,,,,,,,,,,,,,,,,,,,,,,,,,,,,,,
,,,,,,,,,,,,l,0.405015,Incorrect,0,44,44,22,1,t2.png,t3.png,1,0.90855,20,Female,2020-11-19_15h59.41.444,torte-2b,2020.1.3,Win32,60,13217,,,,,,,,,,,,,,,,,,,,,,,,,,,,,,,,,,,,,,,,,,,,,,,,,,,,,,,,,,,,,,,,,
,,,,,,,,,,,,a,0.37565,Incorrect,0,45,45,39,1,t3.png,t2.png,1,0.90855,20,Female,2020-11-19_15h59.41.444,torte-2b,2020.1.3,Win32,60,13217,,,,,,,,,,,,,,,,,,,,,,,,,,,,,,,,,,,,,,,,,,,,,,,,,,,,,,,,,,,,,,,,,
,,,,,,,,,,,,l,0.359535,Correct!,0,46,46,91,1,t1.png,t4.png,3,0.0000131,20,Female,2020-11-19_15h59.41.444,torte-2b,2020.1.3,Win32,60,13217,,,,,,,,,,,,,,,,,,,,,,,,,,,,,,,,,,,,,,,,,,,,,,,,,,,,,,,,,,,,,,,,,
,,,,,,,,,,,,a,0.373735,Incorrect,0,47,47,53,1,t3.png,t1.png,2,0.056466,20,Female,2020-11-19_15h59.41.444,torte-2b,2020.1.3,Win32,60,13217,,,,,,,,,,,,,,,,,,,,,,,,,,,,,,,,,,,,,,,,,,,,,,,,,,,,,,,,,,,,,,,,,
,,,,,,,,,,,,a,0.852135,Incorrect,0,48,48,50,1,t5.png,t1.png,4,9.55E-11,20,Female,2020-11-19_15h59.41.444,torte-2b,2020.1.3,Win32,60,13217,,,,,,,,,,,,,,,,,,,,,,,,,,,,,,,,,,,,,,,,,,,,,,,,,,,,,,,,,,,,,,,,,
,,,,,,,,,,,,l,1.02384,Incorrect,0,49,49,92,1,t2.png,t3.png,1,0.909,20,Female,2020-11-19_15h59.41.444,torte-2b,2020.1.3,Win32,60,13217,,,,,,,,,,,,,,,,,,,,,,,,,,,,,,,,,,,,,,,,,,,,,,,,,,,,,,,,,,,,,,,,,
,,,,,,,,,,,,a,0.70199,Incorrect,0,50,50,102,1,t4.png,t2.png,2,0.059078,20,Female,2020-11-19_15h59.41.444,torte-2b,2020.1.3,Win32,60,13217,,,,,,,,,,,,,,,,,,,,,,,,,,,,,,,,,,,,,,,,,,,,,,,,,,,,,,,,,,,,,,,,,
,,,,,,,,,,,,a,1.202425,Correct!,0,51,51,100,1,t4.png,t5.png,1,0.90025,20,Female,2020-11-19_15h59.41.444,torte-2b,2020.1.3,Win32,60,13217,,,,,,,,,,,,,,,,,,,,,,,,,,,,,,,,,,,,,,,,,,,,,,,,,,,,,,,,,,,,,,,,,
,,,,,,,,,,,,l,0.768145,Correct!,0,52,52,11,1,t1.png,t4.png,3,0.0000131,20,Female,2020-11-19_15h59.41.444,torte-2b,2020.1.3,Win32,60,13217,,,,,,,,,,,,,,,,,,,,,,,,,,,,,,,,,,,,,,,,,,,,,,,,,,,,,,,,,,,,,,,,,
,,,,,,,,,,,,a,0.33485,Correct!,0,53,53,38,1,t3.png,t1.png,2,0.056466,20,Female,2020-11-19_15h59.41.444,torte-2b,2020.1.3,Win32,60,13217,,,,,,,,,,,,,,,,,,,,,,,,,,,,,,,,,,,,,,,,,,,,,,,,,,,,,,,,,,,,,,,,,
,,,,,,,,,,,,l,0.27236,Incorrect,0,54,54,63,1,t2.png,t3.png,1,0.909,20,Female,2020-11-19_15h59.41.444,torte-2b,2020.1.3,Win32,60,13217,,,,,,,,,,,,,,,,,,,,,,,,,,,,,,,,,,,,,,,,,,,,,,,,,,,,,,,,,,,,,,,,,
,,,,,,,,,,,,l,0.335345,Correct!,0,55,55,60,1,t2.png,t4.png,2,0.059078,20,Female,2020-11-19_15h59.41.444,torte-2b,2020.1.3,Win32,60,13217,,,,,,,,,,,,,,,,,,,,,,,,,,,,,,,,,,,,,,,,,,,,,,,,,,,,,,,,,,,,,,,,,
,,,,,,,,,,,,a,0.30816,Incorrect,0,56,56,88,1,t3.png,t1.png,2,0.056466,20,Female,2020-11-19_15h59.41.444,torte-2b,2020.1.3,Win32,60,13217,,,,,,,,,,,,,,,,,,,,,,,,,,,,,,,,,,,,,,,,,,,,,,,,,,,,,,,,,,,,,,,,,
,,,,,,,,,,,,l,0.671725,Correct!,0,57,57,14,1,t2.png,t4.png,2,0.059078,20,Female,2020-11-19_15h59.41.444,torte-2b,2020.1.3,Win32,60,13217,,,,,,,,,,,,,,,,,,,,,,,,,,,,,,,,,,,,,,,,,,,,,,,,,,,,,,,,,,,,,,,,,
,,,,,,,,,,,,l,0.660075,Correct!,0,58,58,52,1,t2.png,t4.png,2,0.059078,20,Female,2020-11-19_15h59.41.444,torte-2b,2020.1.3,Win32,60,13217,,,,,,,,,,,,,,,,,,,,,,,,,,,,,,,,,,,,,,,,,,,,,,,,,,,,,,,,,,,,,,,,,
,,,,,,,,,,,,a,0.59538,Incorrect,0,59,59,19,1,t4.png,t2.png,2,0.059078,20,Female,2020-11-19_15h59.41.444,torte-2b,2020.1.3,Win32,60,13217,,,,,,,,,,,,,,,,,,,,,,,,,,,,,,,,,,,,,,,,,,,,,,,,,,,,,,,,,,,,,,,,,
,,,,,,,,,,,,l,0.31137,Correct!,0,60,60,115,1,t2.png,t4.png,2,0.059078,20,Female,2020-11-19_15h59.41.444,torte-2b,2020.1.3,Win32,60,13217,,,,,,,,,,,,,,,,,,,,,,,,,,,,,,,,,,,,,,,,,,,,,,,,,,,,,,,,,,,,,,,,,
,,,,,,,,,,,,a,0.675585,Correct!,0,61,61,113,1,t5.png,t4.png,1,0.9,20,Female,2020-11-19_15h59.41.444,torte-2b,2020.1.3,Win32,60,13217,,,,,,,,,,,,,,,,,,,,,,,,,,,,,,,,,,,,,,,,,,,,,,,,,,,,,,,,,,,,,,,,,
,,,,,,,,,,,,l,0.07514,Correct!,0,62,62,55,1,t2.png,t4.png,2,0.059078,20,Female,2020-11-19_15h59.41.444,torte-2b,2020.1.3,Win32,60,13217,,,,,,,,,,,,,,,,,,,,,,,,,,,,,,,,,,,,,,,,,,,,,,,,,,,,,,,,,,,,,,,,,
,,,,,,,,,,,,l,0.562355,Incorrect,0,63,63,78,1,t1.png,t1.png,0,0.978,20,Female,2020-11-19_15h59.41.444,torte-2b,2020.1.3,Win32,60,13217,,,,,,,,,,,,,,,,,,,,,,,,,,,,,,,,,,,,,,,,,,,,,,,,,,,,,,,,,,,,,,,,,
,,,,,,,,,,,,l,0.571705,Correct!,0,64,64,15,1,t3.png,t2.png,1,0.90855,20,Female,2020-11-19_15h59.41.444,torte-2b,2020.1.3,Win32,60,13217,,,,,,,,,,,,,,,,,,,,,,,,,,,,,,,,,,,,,,,,,,,,,,,,,,,,,,,,,,,,,,,,,
,,,,,,,,,,,,l,0.41944,Incorrect,0,65,65,70,1,t5.png,t5.png,0,0.978,20,Female,2020-11-19_15h59.41.444,torte-2b,2020.1.3,Win32,60,13217,,,,,,,,,,,,,,,,,,,,,,,,,,,,,,,,,,,,,,,,,,,,,,,,,,,,,,,,,,,,,,,,,
,,,,,,,,,,,,l,0.484075,Incorrect,0,66,66,7,1,t4.png,t5.png,1,0.90025,20,Female,2020-11-19_15h59.41.444,torte-2b,2020.1.3,Win32,60,13217,,,,,,,,,,,,,,,,,,,,,,,,,,,,,,,,,,,,,,,,,,,,,,,,,,,,,,,,,,,,,,,,,
,,,,,,,,,,,,a,0.580575,Correct!,0,67,67,45,1,t3.png,t2.png,1,0.90855,20,Female,2020-11-19_15h59.41.444,torte-2b,2020.1.3,Win32,60,13217,,,,,,,,,,,,,,,,,,,,,,,,,,,,,,,,,,,,,,,,,,,,,,,,,,,,,,,,,,,,,,,,,
,,,,,,,,,,,,l,1.376065,Incorrect,0,68,68,118,1,t5.png,t5.png,0,0.978,20,Female,2020-11-19_15h59.41.444,torte-2b,2020.1.3,Win32,60,13217,,,,,,,,,,,,,,,,,,,,,,,,,,,,,,,,,,,,,,,,,,,,,,,,,,,,,,,,,,,,,,,,,
,,,,,,,,,,,,a,0.834915,Correct!,0,69,69,20,1,t2.png,t3.png,1,0.90855,20,Female,2020-11-19_15h59.41.444,torte-2b,2020.1.3,Win32,60,13217,,,,,,,,,,,,,,,,,,,,,,,,,,,,,,,,,,,,,,,,,,,,,,,,,,,,,,,,,,,,,,,,,
,,,,,,,,,,,,l,1.738385,Correct!,0,70,70,87,1,t5.png,t1.png,4,9.55E-11,20,Female,2020-11-19_15h59.41.444,torte-2b,2020.1.3,Win32,60,13217,,,,,,,,,,,,,,,,,,,,,,,,,,,,,,,,,,,,,,,,,,,,,,,,,,,,,,,,,,,,,,,,,
,,,,,,,,,,,,a,1.862015,Correct!,0,71,71,79,1,t3.png,t2.png,1,0.909,20,Female,2020-11-19_15h59.41.444,torte-2b,2020.1.3,Win32,60,13217,,,,,,,,,,,,,,,,,,,,,,,,,,,,,,,,,,,,,,,,,,,,,,,,,,,,,,,,,,,,,,,,,
,,,,,,,,,,,,,,Too slow :(,0,72,72,66,1,t4.png,t5.png,1,0.9,20,Female,2020-11-19_15h59.41.444,torte-2b,2020.1.3,Win32,60,13217,,,,,,,,,,,,,,,,,,,,,,,,,,,,,,,,,,,,,,,,,,,,,,,,,,,,,,,,,,,,,,,,,
,,,,,,,,,,,,a,1.69687,Incorrect,0,73,73,73,1,t4.png,t2.png,2,0.059078,20,Female,2020-11-19_15h59.41.444,torte-2b,2020.1.3,Win32,60,13217,,,,,,,,,,,,,,,,,,,,,,,,,,,,,,,,,,,,,,,,,,,,,,,,,,,,,,,,,,,,,,,,,
,,,,,,,,,,,,l,0.951515,Incorrect,0,74,74,110,1,t4.png,t5.png,1,0.90025,20,Female,2020-11-19_15h59.41.444,torte-2b,2020.1.3,Win32,60,13217,,,,,,,,,,,,,,,,,,,,,,,,,,,,,,,,,,,,,,,,,,,,,,,,,,,,,,,,,,,,,,,,,
,,,,,,,,,,,,a,1.88935,Incorrect,0,75,75,99,1,t1.png,t5.png,4,9.55E-11,20,Female,2020-11-19_15h59.41.444,torte-2b,2020.1.3,Win32,60,13217,,,,,,,,,,,,,,,,,,,,,,,,,,,,,,,,,,,,,,,,,,,,,,,,,,,,,,,,,,,,,,,,,
,,,,,,,,,,,,l,0.91099,Correct!,0,76,76,61,1,t1.png,t4.png,3,0.0000131,20,Female,2020-11-19_15h59.41.444,torte-2b,2020.1.3,Win32,60,13217,,,,,,,,,,,,,,,,,,,,,,,,,,,,,,,,,,,,,,,,,,,,,,,,,,,,,,,,,,,,,,,,,
,,,,,,,,,,,,l,0.43775,Correct!,0,77,77,46,1,t4.png,t2.png,2,0.059078,20,Female,2020-11-19_15h59.41.444,torte-2b,2020.1.3,Win32,60,13217,,,,,,,,,,,,,,,,,,,,,,,,,,,,,,,,,,,,,,,,,,,,,,,,,,,,,,,,,,,,,,,,,
,,,,,,,,,,,,l,0.5515,Incorrect,0,78,78,18,1,t4.png,t5.png,1,0.90025,20,Female,2020-11-19_15h59.41.444,torte-2b,2020.1.3,Win32,60,13217,,,,,,,,,,,,,,,,,,,,,,,,,,,,,,,,,,,,,,,,,,,,,,,,,,,,,,,,,,,,,,,,,
,,,,,,,,,,,,a,0.394465,Correct!,0,79,79,59,1,t5.png,t4.png,1,0.9,20,Female,2020-11-19_15h59.41.444,torte-2b,2020.1.3,Win32,60,13217,,,,,,,,,,,,,,,,,,,,,,,,,,,,,,,,,,,,,,,,,,,,,,,,,,,,,,,,,,,,,,,,,
,,,,,,,,,,,,l,0.36951,Correct!,0,80,80,35,1,t1.png,t4.png,3,0.0000131,20,Female,2020-11-19_15h59.41.444,torte-2b,2020.1.3,Win32,60,13217,,,,,,,,,,,,,,,,,,,,,,,,,,,,,,,,,,,,,,,,,,,,,,,,,,,,,,,,,,,,,,,,,
,,,,,,,,,,,,a,0.601785,Correct!,0,81,81,25,1,t5.png,t5.png,0,0.97829,20,Female,2020-11-19_15h59.41.444,torte-2b,2020.1.3,Win32,60,13217,,,,,,,,,,,,,,,,,,,,,,,,,,,,,,,,,,,,,,,,,,,,,,,,,,,,,,,,,,,,,,,,,
,,,,,,,,,,,,l,0.601155,Correct!,0,82,82,94,1,t5.png,t1.png,4,9.55E-11,20,Female,2020-11-19_15h59.41.444,torte-2b,2020.1.3,Win32,60,13217,,,,,,,,,,,,,,,,,,,,,,,,,,,,,,,,,,,,,,,,,,,,,,,,,,,,,,,,,,,,,,,,,
,,,,,,,,,,,,a,0.817775,Incorrect,0,83,83,93,1,t2.png,t4.png,2,0.059078,20,Female,2020-11-19_15h59.41.444,torte-2b,2020.1.3,Win32,60,13217,,,,,,,,,,,,,,,,,,,,,,,,,,,,,,,,,,,,,,,,,,,,,,,,,,,,,,,,,,,,,,,,,
,,,,,,,,,,,,l,0.50177,Incorrect,0,84,84,34,1,t5.png,t4.png,1,0.9,20,Female,2020-11-19_15h59.41.444,torte-2b,2020.1.3,Win32,60,13217,,,,,,,,,,,,,,,,,,,,,,,,,,,,,,,,,,,,,,,,,,,,,,,,,,,,,,,,,,,,,,,,,
,,,,,,,,,,,,a,0.57005,Correct!,0,85,85,65,1,t4.png,t5.png,1,0.90025,20,Female,2020-11-19_15h59.41.444,torte-2b,2020.1.3,Win32,60,13217,,,,,,,,,,,,,,,,,,,,,,,,,,,,,,,,,,,,,,,,,,,,,,,,,,,,,,,,,,,,,,,,,
,,,,,,,,,,,,l,0.323685,Incorrect,0,86,86,23,1,t5.png,t4.png,1,0.90025,20,Female,2020-11-19_15h59.41.444,torte-2b,2020.1.3,Win32,60,13217,,,,,,,,,,,,,,,,,,,,,,,,,,,,,,,,,,,,,,,,,,,,,,,,,,,,,,,,,,,,,,,,,
,,,,,,,,,,,,a,0.68463,Incorrect,0,87,87,47,1,t4.png,t2.png,2,0.059078,20,Female,2020-11-19_15h59.41.444,torte-2b,2020.1.3,Win32,60,13217,,,,,,,,,,,,,,,,,,,,,,,,,,,,,,,,,,,,,,,,,,,,,,,,,,,,,,,,,,,,,,,,,
,,,,,,,,,,,,l,0.52328,Incorrect,0,88,88,114,1,t2.png,t3.png,1,0.90855,20,Female,2020-11-19_15h59.41.444,torte-2b,2020.1.3,Win32,60,13217,,,,,,,,,,,,,,,,,,,,,,,,,,,,,,,,,,,,,,,,,,,,,,,,,,,,,,,,,,,,,,,,,
,,,,,,,,,,,,l,0.880235,Incorrect,0,89,89,13,1,t5.png,t5.png,0,0.97829,20,Female,2020-11-19_15h59.41.444,torte-2b,2020.1.3,Win32,60,13217,,,,,,,,,,,,,,,,,,,,,,,,,,,,,,,,,,,,,,,,,,,,,,,,,,,,,,,,,,,,,,,,,
,,,,,,,,,,,,l,0.819845,Correct!,0,90,90,57,1,t2.png,t4.png,2,0.059078,20,Female,2020-11-19_15h59.41.444,torte-2b,2020.1.3,Win32,60,13217,,,,,,,,,,,,,,,,,,,,,,,,,,,,,,,,,,,,,,,,,,,,,,,,,,,,,,,,,,,,,,,,,
,,,,,,,,,,,,a,1.9543,Incorrect,0,91,91,90,1,t1.png,t5.png,4,9.55E-11,20,Female,2020-11-19_15h59.41.444,torte-2b,2020.1.3,Win32,60,13217,,,,,,,,,,,,,,,,,,,,,,,,,,,,,,,,,,,,,,,,,,,,,,,,,,,,,,,,,,,,,,,,,
,,,,,,,,,,,,a,0.552155,Incorrect,0,92,92,30,1,t3.png,t1.png,2,0.056466,20,Female,2020-11-19_15h59.41.444,torte-2b,2020.1.3,Win32,60,13217,,,,,,,,,,,,,,,,,,,,,,,,,,,,,,,,,,,,,,,,,,,,,,,,,,,,,,,,,,,,,,,,,
,,,,,,,,,,,,l,0.71786,Incorrect,0,93,93,49,1,t4.png,t5.png,1,0.9,20,Female,2020-11-19_15h59.41.444,torte-2b,2020.1.3,Win32,60,13217,,,,,,,,,,,,,,,,,,,,,,,,,,,,,,,,,,,,,,,,,,,,,,,,,,,,,,,,,,,,,,,,,
,,,,,,,,,,,,l,1.00229,Correct!,0,94,94,4,1,t1.png,t5.png,4,9.55E-11,20,Female,2020-11-19_15h59.41.444,torte-2b,2020.1.3,Win32,60,13217,,,,,,,,,,,,,,,,,,,,,,,,,,,,,,,,,,,,,,,,,,,,,,,,,,,,,,,,,,,,,,,,,
,,,,,,,,,,,,a,2.102575,Incorrect,0,95,95,83,1,t3.png,t1.png,2,0.056466,20,Female,2020-11-19_15h59.41.444,torte-2b,2020.1.3,Win32,60,13217,,,,,,,,,,,,,,,,,,,,,,,,,,,,,,,,,,,,,,,,,,,,,,,,,,,,,,,,,,,,,,,,,
,,,,,,,,,,,,l,0.73559,Incorrect,0,96,96,9,1,t4.png,t5.png,1,0.9,20,Female,2020-11-19_15h59.41.444,torte-2b,2020.1.3,Win32,60,13217,,,,,,,,,,,,,,,,,,,,,,,,,,,,,,,,,,,,,,,,,,,,,,,,,,,,,,,,,,,,,,,,,
,,,,,,,,,,,,a,0.75465,Incorrect,0,97,97,12,1,t5.png,t1.png,4,9.55E-11,20,Female,2020-11-19_15h59.41.444,torte-2b,2020.1.3,Win32,60,13217,,,,,,,,,,,,,,,,,,,,,,,,,,,,,,,,,,,,,,,,,,,,,,,,,,,,,,,,,,,,,,,,,
,,,,,,,,,,,,l,1.402005,Correct!,0,98,98,24,1,t4.png,t2.png,2,0.059078,20,Female,2020-11-19_15h59.41.444,torte-2b,2020.1.3,Win32,60,13217,,,,,,,,,,,,,,,,,,,,,,,,,,,,,,,,,,,,,,,,,,,,,,,,,,,,,,,,,,,,,,,,,
,,,,,,,,,,,,l,0.918495,Incorrect,0,99,99,116,1,t5.png,t4.png,1,0.90025,20,Female,2020-11-19_15h59.41.444,torte-2b,2020.1.3,Win32,60,13217,,,,,,,,,,,,,,,,,,,,,,,,,,,,,,,,,,,,,,,,,,,,,,,,,,,,,,,,,,,,,,,,,
,,,,,,,,,,,,,,Too slow :(,0,100,100,21,1,t5.png,t4.png,1,0.90025,20,Female,2020-11-19_15h59.41.444,torte-2b,2020.1.3,Win32,60,13217,,,,,,,,,,,,,,,,,,,,,,,,,,,,,,,,,,,,,,,,,,,,,,,,,,,,,,,,,,,,,,,,,
,,,,,,,,,,,,l,0.52077,Correct!,0,101,101,54,1,t1.png,t5.png,4,9.55E-11,20,Female,2020-11-19_15h59.41.444,torte-2b,2020.1.3,Win32,60,13217,,,,,,,,,,,,,,,,,,,,,,,,,,,,,,,,,,,,,,,,,,,,,,,,,,,,,,,,,,,,,,,,,
,,,,,,,,,,,,a,0.40401,Incorrect,0,102,102,111,1,t5.png,t1.png,4,9.55E-11,20,Female,2020-11-19_15h59.41.444,torte-2b,2020.1.3,Win32,60,13217,,,,,,,,,,,,,,,,,,,,,,,,,,,,,,,,,,,,,,,,,,,,,,,,,,,,,,,,,,,,,,,,,
,,,,,,,,,,,,l,0.50951,Incorrect,0,103,103,29,1,t5.png,t5.png,0,0.97829,20,Female,2020-11-19_15h59.41.444,torte-2b,2020.1.3,Win32,60,13217,,,,,,,,,,,,,,,,,,,,,,,,,,,,,,,,,,,,,,,,,,,,,,,,,,,,,,,,,,,,,,,,,
,,,,,,,,,,,,l,0.551465,Correct!,0,104,104,40,1,t1.png,t5.png,4,9.55E-11,20,Female,2020-11-19_15h59.41.444,torte-2b,2020.1.3,Win32,60,13217,,,,,,,,,,,,,,,,,,,,,,,,,,,,,,,,,,,,,,,,,,,,,,,,,,,,,,,,,,,,,,,,,
,,,,,,,,,,,,a,0.55388,Correct!,0,105,105,96,1,t1.png,t1.png,0,0.97829,20,Female,2020-11-19_15h59.41.444,torte-2b,2020.1.3,Win32,60,13217,,,,,,,,,,,,,,,,,,,,,,,,,,,,,,,,,,,,,,,,,,,,,,,,,,,,,,,,,,,,,,,,,
,,,,,,,,,,,,l,0.36052,Incorrect,0,106,106,107,1,t1.png,t1.png,0,0.978,20,Female,2020-11-19_15h59.41.444,torte-2b,2020.1.3,Win32,60,13217,,,,,,,,,,,,,,,,,,,,,,,,,,,,,,,,,,,,,,,,,,,,,,,,,,,,,,,,,,,,,,,,,
,,,,,,,,,,,,l,0.48516,Correct!,0,107,107,89,1,t1.png,t4.png,3,0.0000131,20,Female,2020-11-19_15h59.41.444,torte-2b,2020.1.3,Win32,60,13217,,,,,,,,,,,,,,,,,,,,,,,,,,,,,,,,,,,,,,,,,,,,,,,,,,,,,,,,,,,,,,,,,
,,,,,,,,,,,,a,0.60204,Correct!,0,108,108,106,1,t2.png,t3.png,1,0.90855,20,Female,2020-11-19_15h59.41.444,torte-2b,2020.1.3,Win32,60,13217,,,,,,,,,,,,,,,,,,,,,,,,,,,,,,,,,,,,,,,,,,,,,,,,,,,,,,,,,,,,,,,,,
,,,,,,,,,,,,l,0.334335,Correct!,0,109,109,5,1,t2.png,t4.png,2,0.059078,20,Female,2020-11-19_15h59.41.444,torte-2b,2020.1.3,Win32,60,13217,,,,,,,,,,,,,,,,,,,,,,,,,,,,,,,,,,,,,,,,,,,,,,,,,,,,,,,,,,,,,,,,,
,,,,,,,,,,,,l,0.439935,Incorrect,0,110,110,109,1,t5.png,t5.png,0,0.97829,20,Female,2020-11-19_15h59.41.444,torte-2b,2020.1.3,Win32,60,13217,,,,,,,,,,,,,,,,,,,,,,,,,,,,,,,,,,,,,,,,,,,,,,,,,,,,,,,,,,,,,,,,,
,,,,,,,,,,,,l,0.40138,Incorrect,0,111,111,104,1,t2.png,t3.png,1,0.90855,20,Female,2020-11-19_15h59.41.444,torte-2b,2020.1.3,Win32,60,13217,,,,,,,,,,,,,,,,,,,,,,,,,,,,,,,,,,,,,,,,,,,,,,,,,,,,,,,,,,,,,,,,,
,,,,,,,,,,,,a,0.45706,Correct!,0,112,112,2,1,t3.png,t2.png,1,0.90855,20,Female,2020-11-19_15h59.41.444,torte-2b,2020.1.3,Win32,60,13217,,,,,,,,,,,,,,,,,,,,,,,,,,,,,,,,,,,,,,,,,,,,,,,,,,,,,,,,,,,,,,,,,
,,,,,,,,,,,,l,0.59607,Correct!,0,113,113,68,1,t1.png,t4.png,3,0.0000131,20,Female,2020-11-19_15h59.41.444,torte-2b,2020.1.3,Win32,60,13217,,,,,,,,,,,,,,,,,,,,,,,,,,,,,,,,,,,,,,,,,,,,,,,,,,,,,,,,,,,,,,,,,
,,,,,,,,,,,,l,0.576065,Correct!,0,114,114,119,1,t1.png,t5.png,4,9.55E-11,20,Female,2020-11-19_15h59.41.444,torte-2b,2020.1.3,Win32,60,13217,,,,,,,,,,,,,,,,,,,,,,,,,,,,,,,,,,,,,,,,,,,,,,,,,,,,,,,,,,,,,,,,,
,,,,,,,,,,,,a,0.444595,Correct!,0,115,115,105,1,t3.png,t2.png,1,0.90855,20,Female,2020-11-19_15h59.41.444,torte-2b,2020.1.3,Win32,60,13217,,,,,,,,,,,,,,,,,,,,,,,,,,,,,,,,,,,,,,,,,,,,,,,,,,,,,,,,,,,,,,,,,
,,,,,,,,,,,,l,0.34521,Incorrect,0,116,116,101,1,t4.png,t5.png,1,0.90025,20,Female,2020-11-19_15h59.41.444,torte-2b,2020.1.3,Win32,60,13217,,,,,,,,,,,,,,,,,,,,,,,,,,,,,,,,,,,,,,,,,,,,,,,,,,,,,,,,,,,,,,,,,
,,,,,,,,,,,,a,0.426575,Correct!,0,117,117,58,1,t5.png,t4.png,1,0.90025,20,Female,2020-11-19_15h59.41.444,torte-2b,2020.1.3,Win32,60,13217,,,,,,,,,,,,,,,,,,,,,,,,,,,,,,,,,,,,,,,,,,,,,,,,,,,,,,,,,,,,,,,,,
,,,,,,,,,,,,l,0.37159,Incorrect,0,118,118,71,1,t5.png,t5.png,0,0.97829,20,Female,2020-11-19_15h59.41.444,torte-2b,2020.1.3,Win32,60,13217,,,,,,,,,,,,,,,,,,,,,,,,,,,,,,,,,,,,,,,,,,,,,,,,,,,,,,,,,,,,,,,,,
,,,,,,,,,,,,l,0.800765,Incorrect,0,119,119,75,1,t1.png,t1.png,0,0.97829,20,Female,2020-11-19_15h59.41.444,torte-2b,2020.1.3,Win32,60,13217,,,,,,,,,,,,,,,,,,,,,,,,,,,,,,,,,,,,,,,,,,,,,,,,,,,,,,,,,,,,,,,,,
,,,,,,,,,,,,a,0.73535,Incorrect,,,,,,t1.png,t4.png,3,0.0000131,20,Female,2020-11-19_15h59.41.444,torte-2b,2020.1.3,Win32,60,13217,space,1.785105,space,70.10182,0,0,0,92,1,,,,,,,,,,,,,,,,,,,,,,,,,,,,,,,,,,,,,,,,,,,,,,,,,,,,,,,,
,,,,,,,,,,,,l,0.38488,Correct!,,,,,,t5.png,t1.png,4,9.55E-11,20,Female,2020-11-19_15h59.41.444,torte-2b,2020.1.3,Win32,60,13217,,,,,0,1,1,102,1,,,,,,,,,,,,,,,,,,,,,,,,,,,,,,,,,,,,,,,,,,,,,,,,,,,,,,,,
,,,,,,,,,,,,l,0.53544,Correct!,,,,,,t1.png,t3.png,2,0.056466,20,Female,2020-11-19_15h59.41.444,torte-2b,2020.1.3,Win32,60,13217,,,,,0,2,2,87,1,,,,,,,,,,,,,,,,,,,,,,,,,,,,,,,,,,,,,,,,,,,,,,,,,,,,,,,,
,,,,,,,,,,,,l,0.92616,Correct!,,,,,,t1.png,t5.png,4,9.55E-11,20,Female,2020-11-19_15h59.41.444,torte-2b,2020.1.3,Win32,60,13217,,,,,0,3,3,16,1,,,,,,,,,,,,,,,,,,,,,,,,,,,,,,,,,,,,,,,,,,,,,,,,,,,,,,,,
,,,,,,,,,,,,l,0.667825,Incorrect,,,,,,t3.png,t4.png,1,0.909,20,Female,2020-11-19_15h59.41.444,torte-2b,2020.1.3,Win32,60,13217,,,,,0,4,4,89,1,,,,,,,,,,,,,,,,,,,,,,,,,,,,,,,,,,,,,,,,,,,,,,,,,,,,,,,,
,,,,,,,,,,,,a,0.584805,Correct!,,,,,,t3.png,t2.png,1,0.909,20,Female,2020-11-19_15h59.41.444,torte-2b,2020.1.3,Win32,60,13217,,,,,0,5,5,23,1,,,,,,,,,,,,,,,,,,,,,,,,,,,,,,,,,,,,,,,,,,,,,,,,,,,,,,,,
,,,,,,,,,,,,l,0.701555,Correct!,,,,,,t4.png,t5.png,1,0.90025,20,Female,2020-11-19_15h59.41.444,torte-2b,2020.1.3,Win32,60,13217,,,,,0,6,6,47,1,,,,,,,,,,,,,,,,,,,,,,,,,,,,,,,,,,,,,,,,,,,,,,,,,,,,,,,,
,,,,,,,,,,,,l,0.60771,Incorrect,,,,,,t4.png,t3.png,1,0.909,20,Female,2020-11-19_15h59.41.444,torte-2b,2020.1.3,Win32,60,13217,,,,,0,7,7,20,1,,,,,,,,,,,,,,,,,,,,,,,,,,,,,,,,,,,,,,,,,,,,,,,,,,,,,,,,
,,,,,,,,,,,,l,0.4859,Correct!,,,,,,t2.png,t4.png,2,0.059078,20,Female,2020-11-19_15h59.41.444,torte-2b,2020.1.3,Win32,60,13217,,,,,0,8,8,24,1,,,,,,,,,,,,,,,,,,,,,,,,,,,,,,,,,,,,,,,,,,,,,,,,,,,,,,,,
,,,,,,,,,,,,l,1.09715,Incorrect,,,,,,t4.png,t5.png,1,0.9,20,Female,2020-11-19_15h59.41.444,torte-2b,2020.1.3,Win32,60,13217,,,,,0,9,9,115,1,,,,,,,,,,,,,,,,,,,,,,,,,,,,,,,,,,,,,,,,,,,,,,,,,,,,,,,,
,,,,,,,,,,,,a,0.9019,Correct!,,,,,,t4.png,t5.png,1,0.90025,20,Female,2020-11-19_15h59.41.444,torte-2b,2020.1.3,Win32,60,13217,,,,,0,10,10,113,1,,,,,,,,,,,,,,,,,,,,,,,,,,,,,,,,,,,,,,,,,,,,,,,,,,,,,,,,
,,,,,,,,,,,,l,0.552875,Correct!,,,,,,t1.png,t3.png,2,0.056466,20,Female,2020-11-19_15h59.41.444,torte-2b,2020.1.3,Win32,60,13217,,,,,0,11,11,69,1,,,,,,,,,,,,,,,,,,,,,,,,,,,,,,,,,,,,,,,,,,,,,,,,,,,,,,,,
,,,,,,,,,,,,l,1.045865,Incorrect,,,,,,t2.png,t2.png,0,0.98115,20,Female,2020-11-19_15h59.41.444,torte-2b,2020.1.3,Win32,60,13217,,,,,0,12,12,59,1,,,,,,,,,,,,,,,,,,,,,,,,,,,,,,,,,,,,,,,,,,,,,,,,,,,,,,,,
,,,,,,,,,,,,a,0.42845,Incorrect,,,,,,t5.png,t3.png,2,0.056466,20,Female,2020-11-19_15h59.41.444,torte-2b,2020.1.3,Win32,60,13217,,,,,0,13,13,114,1,,,,,,,,,,,,,,,,,,,,,,,,,,,,,,,,,,,,,,,,,,,,,,,,,,,,,,,,
,,,,,,,,,,,,a,0.46911,Correct!,,,,,,t4.png,t4.png,0,0.98115,20,Female,2020-11-19_15h59.41.444,torte-2b,2020.1.3,Win32,60,13217,,,,,0,14,14,21,1,,,,,,,,,,,,,,,,,,,,,,,,,,,,,,,,,,,,,,,,,,,,,,,,,,,,,,,,
,,,,,,,,,,,,l,0.484805,Correct!,,,,,,t4.png,t1.png,3,0.0000131,20,Female,2020-11-19_15h59.41.444,torte-2b,2020.1.3,Win32,60,13217,,,,,0,15,15,42,1,,,,,,,,,,,,,,,,,,,,,,,,,,,,,,,,,,,,,,,,,,,,,,,,,,,,,,,,
,,,,,,,,,,,,l,1.11859,Incorrect,,,,,,t1.png,t1.png,0,0.97829,20,Female,2020-11-19_15h59.41.444,torte-2b,2020.1.3,Win32,60,13217,,,,,0,16,16,67,1,,,,,,,,,,,,,,,,,,,,,,,,,,,,,,,,,,,,,,,,,,,,,,,,,,,,,,,,
,,,,,,,,,,,,l,0.87606,Incorrect,,,,,,t3.png,t2.png,1,0.90855,20,Female,2020-11-19_15h59.41.444,torte-2b,2020.1.3,Win32,60,13217,,,,,0,17,17,97,1,,,,,,,,,,,,,,,,,,,,,,,,,,,,,,,,,,,,,,,,,,,,,,,,,,,,,,,,
,,,,,,,,,,,,a,1.042685,Incorrect,,,,,,t4.png,t3.png,1,0.90855,20,Female,2020-11-19_15h59.41.444,torte-2b,2020.1.3,Win32,60,13217,,,,,0,18,18,75,1,,,,,,,,,,,,,,,,,,,,,,,,,,,,,,,,,,,,,,,,,,,,,,,,,,,,,,,,
,,,,,,,,,,,,l,0.52246,Correct!,,,,,,t1.png,t4.png,3,0.0000131,20,Female,2020-11-19_15h59.41.444,torte-2b,2020.1.3,Win32,60,13217,,,,,0,19,19,107,1,,,,,,,,,,,,,,,,,,,,,,,,,,,,,,,,,,,,,,,,,,,,,,,,,,,,,,,,
,,,,,,,,,,,,l,1.835665,Correct!,,,,,,t1.png,t4.png,3,0.0000131,20,Female,2020-11-19_15h59.41.444,torte-2b,2020.1.3,Win32,60,13217,,,,,0,20,20,81,1,,,,,,,,,,,,,,,,,,,,,,,,,,,,,,,,,,,,,,,,,,,,,,,,,,,,,,,,
,,,,,,,,,,,,l,0.46017,Correct!,,,,,,t1.png,t4.png,3,0.0000131,20,Female,2020-11-19_15h59.41.444,torte-2b,2020.1.3,Win32,60,13217,,,,,0,21,21,17,1,,,,,,,,,,,,,,,,,,,,,,,,,,,,,,,,,,,,,,,,,,,,,,,,,,,,,,,,
,,,,,,,,,,,,a,1.70154,Correct!,,,,,,t4.png,t3.png,1,0.90855,20,Female,2020-11-19_15h59.41.444,torte-2b,2020.1.3,Win32,60,13217,,,,,0,22,22,35,1,,,,,,,,,,,,,,,,,,,,,,,,,,,,,,,,,,,,,,,,,,,,,,,,,,,,,,,,
,,,,,,,,,,,,a,0.68584,Incorrect,,,,,,t5.png,t3.png,2,0.056466,20,Female,2020-11-19_15h59.41.444,torte-2b,2020.1.3,Win32,60,13217,,,,,0,23,23,38,1,,,,,,,,,,,,,,,,,,,,,,,,,,,,,,,,,,,,,,,,,,,,,,,,,,,,,,,,
,,,,,,,,,,,,a,1.09413,Correct!,,,,,,t5.png,t4.png,1,0.9,20,Female,2020-11-19_15h59.41.444,torte-2b,2020.1.3,Win32,60,13217,,,,,0,24,24,49,1,,,,,,,,,,,,,,,,,,,,,,,,,,,,,,,,,,,,,,,,,,,,,,,,,,,,,,,,
,,,,,,,,,,,,l,0.33463,Incorrect,,,,,,t3.png,t2.png,1,0.90855,20,Female,2020-11-19_15h59.41.444,torte-2b,2020.1.3,Win32,60,13217,,,,,0,25,25,18,1,,,,,,,,,,,,,,,,,,,,,,,,,,,,,,,,,,,,,,,,,,,,,,,,,,,,,,,,
,,,,,,,,,,,,l,0.90022,Correct!,,,,,,t3.png,t1.png,2,0.056466,20,Female,2020-11-19_15h59.41.444,torte-2b,2020.1.3,Win32,60,13217,,,,,0,26,26,0,1,,,,,,,,,,,,,,,,,,,,,,,,,,,,,,,,,,,,,,,,,,,,,,,,,,,,,,,,
,,,,,,,,,,,,a,0.610295,Incorrect,,,,,,t5.png,t3.png,2,0.056466,20,Female,2020-11-19_15h59.41.444,torte-2b,2020.1.3,Win32,60,13217,,,,,0,27,27,56,1,,,,,,,,,,,,,,,,,,,,,,,,,,,,,,,,,,,,,,,,,,,,,,,,,,,,,,,,
,,,,,,,,,,,,l,0.520355,Correct!,,,,,,t4.png,t1.png,3,0.0000131,20,Female,2020-11-19_15h59.41.444,torte-2b,2020.1.3,Win32,60,13217,,,,,0,28,28,48,1,,,,,,,,,,,,,,,,,,,,,,,,,,,,,,,,,,,,,,,,,,,,,,,,,,,,,,,,
,,,,,,,,,,,,l,0.392695,Incorrect,,,,,,t5.png,t4.png,1,0.90025,20,Female,2020-11-19_15h59.41.444,torte-2b,2020.1.3,Win32,60,13217,,,,,0,29,29,26,1,,,,,,,,,,,,,,,,,,,,,,,,,,,,,,,,,,,,,,,,,,,,,,,,,,,,,,,,
,,,,,,,,,,,,,,Too slow :(,,,,,,t3.png,t2.png,1,0.90855,20,Female,2020-11-19_15h59.41.444,torte-2b,2020.1.3,Win32,60,13217,,,,,0,30,30,53,1,,,,,,,,,,,,,,,,,,,,,,,,,,,,,,,,,,,,,,,,,,,,,,,,,,,,,,,,
,,,,,,,,,,,,a,0.28547,Incorrect,,,,,,t4.png,t1.png,3,0.0000131,20,Female,2020-11-19_15h59.41.444,torte-2b,2020.1.3,Win32,60,13217,,,,,0,31,31,93,1,,,,,,,,,,,,,,,,,,,,,,,,,,,,,,,,,,,,,,,,,,,,,,,,,,,,,,,,
,,,,,,,,,,,,a,0.49143,Correct!,,,,,,t4.png,t4.png,0,0.98115,20,Female,2020-11-19_15h59.41.444,torte-2b,2020.1.3,Win32,60,13217,,,,,0,32,32,90,1,,,,,,,,,,,,,,,,,,,,,,,,,,,,,,,,,,,,,,,,,,,,,,,,,,,,,,,,
,,,,,,,,,,,,a,0.577145,Incorrect,,,,,,t1.png,t2.png,1,0.90025,20,Female,2020-11-19_15h59.41.444,torte-2b,2020.1.3,Win32,60,13217,,,,,0,33,33,105,1,,,,,,,,,,,,,,,,,,,,,,,,,,,,,,,,,,,,,,,,,,,,,,,,,,,,,,,,
,,,,,,,,,,,,l,0.66773,Correct!,,,,,,t1.png,t3.png,2,0.056466,20,Female,2020-11-19_15h59.41.444,torte-2b,2020.1.3,Win32,60,13217,,,,,0,34,34,60,1,,,,,,,,,,,,,,,,,,,,,,,,,,,,,,,,,,,,,,,,,,,,,,,,,,,,,,,,
,,,,,,,,,,,,l,0.406245,Correct!,,,,,,t3.png,t5.png,2,0.0565,20,Female,2020-11-19_15h59.41.444,torte-2b,2020.1.3,Win32,60,13217,,,,,0,35,35,30,1,,,,,,,,,,,,,,,,,,,,,,,,,,,,,,,,,,,,,,,,,,,,,,,,,,,,,,,,
,,,,,,,,,,,,l,0.71355,Incorrect,,,,,,t4.png,t4.png,0,0.98115,20,Female,2020-11-19_15h59.41.444,torte-2b,2020.1.3,Win32,60,13217,,,,,0,36,36,79,1,,,,,,,,,,,,,,,,,,,,,,,,,,,,,,,,,,,,,,,,,,,,,,,,,,,,,,,,
,,,,,,,,,,,,l,0.567995,Incorrect,,,,,,t3.png,t4.png,1,0.909,20,Female,2020-11-19_15h59.41.444,torte-2b,2020.1.3,Win32,60,13217,,,,,0,37,37,106,1,,,,,,,,,,,,,,,,,,,,,,,,,,,,,,,,,,,,,,,,,,,,,,,,,,,,,,,,
,,,,,,,,,,,,l,0.63556,Incorrect,,,,,,t5.png,t5.png,0,0.97829,20,Female,2020-11-19_15h59.41.444,torte-2b,2020.1.3,Win32,60,13217,,,,,0,38,38,73,1,,,,,,,,,,,,,,,,,,,,,,,,,,,,,,,,,,,,,,,,,,,,,,,,,,,,,,,,
,,,,,,,,,,,,a,0.48966,Incorrect,,,,,,t3.png,t1.png,2,0.056466,20,Female,2020-11-19_15h59.41.444,torte-2b,2020.1.3,Win32,60,13217,,,,,0,39,39,29,1,,,,,,,,,,,,,,,,,,,,,,,,,,,,,,,,,,,,,,,,,,,,,,,,,,,,,,,,
,,,,,,,,,,,,l,0.55078,Incorrect,,,,,,t3.png,t2.png,1,0.909,20,Female,2020-11-19_15h59.41.444,torte-2b,2020.1.3,Win32,60,13217,,,,,0,40,40,3,1,,,,,,,,,,,,,,,,,,,,,,,,,,,,,,,,,,,,,,,,,,,,,,,,,,,,,,,,
,,,,,,,,,,,,a,0.502125,Correct!,,,,,,t4.png,t3.png,1,0.90855,20,Female,2020-11-19_15h59.41.444,torte-2b,2020.1.3,Win32,60,13217,,,,,0,41,41,45,1,,,,,,,,,,,,,,,,,,,,,,,,,,,,,,,,,,,,,,,,,,,,,,,,,,,,,,,,
,,,,,,,,,,,,l,1.351115,Incorrect,,,,,,t2.png,t1.png,1,0.90025,20,Female,2020-11-19_15h59.41.444,torte-2b,2020.1.3,Win32,60,13217,,,,,0,42,42,62,1,,,,,,,,,,,,,,,,,,,,,,,,,,,,,,,,,,,,,,,,,,,,,,,,,,,,,,,,
,,,,,,,,,,,,l,0.30276,Correct!,,,,,,t5.png,t1.png,4,9.55E-11,20,Female,2020-11-19_15h59.41.444,torte-2b,2020.1.3,Win32,60,13217,,,,,0,43,43,71,1,,,,,,,,,,,,,,,,,,,,,,,,,,,,,,,,,,,,,,,,,,,,,,,,,,,,,,,,
,,,,,,,,,,,,l,0.609375,Incorrect,,,,,,t2.png,t4.png,2,0.0591,20,Female,2020-11-19_15h59.41.444,torte-2b,2020.1.3,Win32,60,13217,,,,,0,44,44,15,1,,,,,,,,,,,,,,,,,,,,,,,,,,,,,,,,,,,,,,,,,,,,,,,,,,,,,,,,
,,,,,,,,,,,,a,0.56789,Correct!,,,,,,t4.png,t4.png,0,0.98115,20,Female,2020-11-19_15h59.41.444,torte-2b,2020.1.3,Win32,60,13217,,,,,0,45,45,52,1,,,,,,,,,,,,,,,,,,,,,,,,,,,,,,,,,,,,,,,,,,,,,,,,,,,,,,,,
,,,,,,,,,,,,l,0.45745,Correct!,,,,,,t4.png,t2.png,2,0.059078,20,Female,2020-11-19_15h59.41.444,torte-2b,2020.1.3,Win32,60,13217,,,,,0,46,46,86,1,,,,,,,,,,,,,,,,,,,,,,,,,,,,,,,,,,,,,,,,,,,,,,,,,,,,,,,,
,,,,,,,,,,,,a,0.370685,Correct!,,,,,,t5.png,t4.png,1,0.90025,20,Female,2020-11-19_15h59.41.444,torte-2b,2020.1.3,Win32,60,13217,,,,,0,47,47,34,1,,,,,,,,,,,,,,,,,,,,,,,,,,,,,,,,,,,,,,,,,,,,,,,,,,,,,,,,
,,,,,,,,,,,,a,1.427225,Correct!,,,,,,t4.png,t2.png,2,0.059078,20,Female,2020-11-19_15h59.41.444,torte-2b,2020.1.3,Win32,60,13217,,,,,0,48,48,109,1,,,,,,,,,,,,,,,,,,,,,,,,,,,,,,,,,,,,,,,,,,,,,,,,,,,,,,,,
,,,,,,,,,,,,a,1.400725,Incorrect,,,,,,t5.png,t2.png,3,0.0000131,20,Female,2020-11-19_15h59.41.444,torte-2b,2020.1.3,Win32,60,13217,,,,,0,49,49,98,1,,,,,,,,,,,,,,,,,,,,,,,,,,,,,,,,,,,,,,,,,,,,,,,,,,,,,,,,
,,,,,,,,,,,,l,0.417835,Correct!,,,,,,t5.png,t2.png,3,0.0000131,20,Female,2020-11-19_15h59.41.444,torte-2b,2020.1.3,Win32,60,13217,,,,,0,50,50,91,1,,,,,,,,,,,,,,,,,,,,,,,,,,,,,,,,,,,,,,,,,,,,,,,,,,,,,,,,
,,,,,,,,,,,,l,0.510005,Incorrect,,,,,,t4.png,t4.png,0,0.98115,20,Female,2020-11-19_15h59.41.444,torte-2b,2020.1.3,Win32,60,13217,,,,,0,51,51,80,1,,,,,,,,,,,,,,,,,,,,,,,,,,,,,,,,,,,,,,,,,,,,,,,,,,,,,,,,
,,,,,,,,,,,,a,0.8243,Correct!,,,,,,t2.png,t1.png,1,0.90025,20,Female,2020-11-19_15h59.41.444,torte-2b,2020.1.3,Win32,60,13217,,,,,0,52,52,19,1,,,,,,,,,,,,,,,,,,,,,,,,,,,,,,,,,,,,,,,,,,,,,,,,,,,,,,,,
,,,,,,,,,,,,l,0.469345,Correct!,,,,,,t2.png,t4.png,2,0.059078,20,Female,2020-11-19_15h59.41.444,torte-2b,2020.1.3,Win32,60,13217,,,,,0,53,53,11,1,,,,,,,,,,,,,,,,,,,,,,,,,,,,,,,,,,,,,,,,,,,,,,,,,,,,,,,,
,,,,,,,,,,,,l,0.6186,Incorrect,,,,,,t1.png,t1.png,0,0.978,20,Female,2020-11-19_15h59.41.444,torte-2b,2020.1.3,Win32,60,13217,,,,,0,54,54,28,1,,,,,,,,,,,,,,,,,,,,,,,,,,,,,,,,,,,,,,,,,,,,,,,,,,,,,,,,
,,,,,,,,,,,,a,1.54108,Correct!,,,,,,t2.png,t3.png,1,0.90855,20,Female,2020-11-19_15h59.41.444,torte-2b,2020.1.3,Win32,60,13217,,,,,0,55,55,10,1,,,,,,,,,,,,,,,,,,,,,,,,,,,,,,,,,,,,,,,,,,,,,,,,,,,,,,,,
,,,,,,,,,,,,l,0.826315,Correct!,,,,,,t1.png,t5.png,4,9.55E-11,20,Female,2020-11-19_15h59.41.444,torte-2b,2020.1.3,Win32,60,13217,,,,,0,56,56,55,1,,,,,,,,,,,,,,,,,,,,,,,,,,,,,,,,,,,,,,,,,,,,,,,,,,,,,,,,
,,,,,,,,,,,,a,0.77776,Incorrect,,,,,,t5.png,t2.png,3,0.0000131,20,Female,2020-11-19_15h59.41.444,torte-2b,2020.1.3,Win32,60,13217,,,,,0,57,57,51,1,,,,,,,,,,,,,,,,,,,,,,,,,,,,,,,,,,,,,,,,,,,,,,,,,,,,,,,,
,,,,,,,,,,,,a,0.885425,Incorrect,,,,,,t3.png,t5.png,2,0.056466,20,Female,2020-11-19_15h59.41.444,torte-2b,2020.1.3,Win32,60,13217,,,,,0,58,58,6,1,,,,,,,,,,,,,,,,,,,,,,,,,,,,,,,,,,,,,,,,,,,,,,,,,,,,,,,,
,,,,,,,,,,,,a,0.702495,Incorrect,,,,,,t2.png,t1.png,1,0.90025,20,Female,2020-11-19_15h59.41.444,torte-2b,2020.1.3,Win32,60,13217,,,,,0,59,59,5,1,,,,,,,,,,,,,,,,,,,,,,,,,,,,,,,,,,,,,,,,,,,,,,,,,,,,,,,,
,,,,,,,,,,,,l,0.412775,Correct!,,,,,,t2.png,t5.png,3,0.0000131,20,Female,2020-11-19_15h59.41.444,torte-2b,2020.1.3,Win32,60,13217,,,,,0,60,60,8,1,,,,,,,,,,,,,,,,,,,,,,,,,,,,,,,,,,,,,,,,,,,,,,,,,,,,,,,,
,,,,,,,,,,,,l,0.601615,Correct!,,,,,,t2.png,t5.png,3,0.0000131,20,Female,2020-11-19_15h59.41.444,torte-2b,2020.1.3,Win32,60,13217,,,,,0,61,61,40,1,,,,,,,,,,,,,,,,,,,,,,,,,,,,,,,,,,,,,,,,,,,,,,,,,,,,,,,,
,,,,,,,,,,,,l,0.95146,Correct!,,,,,,t2.png,t1.png,1,0.90025,20,Female,2020-11-19_15h59.41.444,torte-2b,2020.1.3,Win32,60,13217,,,,,0,62,62,4,1,,,,,,,,,,,,,,,,,,,,,,,,,,,,,,,,,,,,,,,,,,,,,,,,,,,,,,,,
,,,,,,,,,,,,a,0.46874,Incorrect,,,,,,t5.png,t2.png,3,0.0000131,20,Female,2020-11-19_15h59.41.444,torte-2b,2020.1.3,Win32,60,13217,,,,,0,63,63,116,1,,,,,,,,,,,,,,,,,,,,,,,,,,,,,,,,,,,,,,,,,,,,,,,,,,,,,,,,
,,,,,,,,,,,,a,1.58455,Correct!,,,,,,t2.png,t3.png,1,0.909,20,Female,2020-11-19_15h59.41.444,torte-2b,2020.1.3,Win32,60,13217,,,,,0,64,64,74,1,,,,,,,,,,,,,,,,,,,,,,,,,,,,,,,,,,,,,,,,,,,,,,,,,,,,,,,,
,,,,,,,,,,,,a,0.98552,Incorrect,,,,,,t3.png,t5.png,2,0.0565,20,Female,2020-11-19_15h59.41.444,torte-2b,2020.1.3,Win32,60,13217,,,,,0,65,65,83,1,,,,,,,,,,,,,,,,,,,,,,,,,,,,,,,,,,,,,,,,,,,,,,,,,,,,,,,,
,,,,,,,,,,,,l,0.46824,Correct!,,,,,,t1.png,t4.png,3,0.0000131,20,Female,2020-11-19_15h59.41.444,torte-2b,2020.1.3,Win32,60,13217,,,,,0,66,66,50,1,,,,,,,,,,,,,,,,,,,,,,,,,,,,,,,,,,,,,,,,,,,,,,,,,,,,,,,,
,,,,,,,,,,,,l,0.807155,Incorrect,,,,,,t1.png,t1.png,0,0.978,20,Female,2020-11-19_15h59.41.444,torte-2b,2020.1.3,Win32,60,13217,,,,,0,67,67,54,1,,,,,,,,,,,,,,,,,,,,,,,,,,,,,,,,,,,,,,,,,,,,,,,,,,,,,,,,
,,,,,,,,,,,,a,0.60373,Correct!,,,,,,t3.png,t4.png,1,0.90855,20,Female,2020-11-19_15h59.41.444,torte-2b,2020.1.3,Win32,60,13217,,,,,0,68,68,84,1,,,,,,,,,,,,,,,,,,,,,,,,,,,,,,,,,,,,,,,,,,,,,,,,,,,,,,,,
,,,,,,,,,,,,a,0.72369,Incorrect,,,,,,t4.png,t2.png,2,0.059078,20,Female,2020-11-19_15h59.41.444,torte-2b,2020.1.3,Win32,60,13217,,,,,0,69,69,88,1,,,,,,,,,,,,,,,,,,,,,,,,,,,,,,,,,,,,,,,,,,,,,,,,,,,,,,,,
,,,,,,,,,,,,l,0.7176,Incorrect,,,,,,t1.png,t2.png,1,0.90025,20,Female,2020-11-19_15h59.41.444,torte-2b,2020.1.3,Win32,60,13217,,,,,0,70,70,33,1,,,,,,,,,,,,,,,,,,,,,,,,,,,,,,,,,,,,,,,,,,,,,,,,,,,,,,,,
,,,,,,,,,,,,l,0.801865,Correct!,,,,,,t3.png,t1.png,2,0.0565,20,Female,2020-11-19_15h59.41.444,torte-2b,2020.1.3,Win32,60,13217,,,,,0,71,71,31,1,,,,,,,,,,,,,,,,,,,,,,,,,,,,,,,,,,,,,,,,,,,,,,,,,,,,,,,,
,,,,,,,,,,,,a,1.16878,Incorrect,,,,,,t5.png,t1.png,4,9.55E-11,20,Female,2020-11-19_15h59.41.444,torte-2b,2020.1.3,Win32,60,13217,,,,,0,72,72,100,1,,,,,,,,,,,,,,,,,,,,,,,,,,,,,,,,,,,,,,,,,,,,,,,,,,,,,,,,
,,,,,,,,,,,,,,Too slow :(,,,,,,t1.png,t2.png,1,0.9,20,Female,2020-11-19_15h59.41.444,torte-2b,2020.1.3,Win32,60,13217,,,,,0,73,73,1,1,,,,,,,,,,,,,,,,,,,,,,,,,,,,,,,,,,,,,,,,,,,,,,,,,,,,,,,,
,,,,,,,,,,,,l,1.367945,Incorrect,,,,,,t3.png,t4.png,1,0.909,20,Female,2020-11-19_15h59.41.444,torte-2b,2020.1.3,Win32,60,13217,,,,,0,74,74,82,1,,,,,,,,,,,,,,,,,,,,,,,,,,,,,,,,,,,,,,,,,,,,,,,,,,,,,,,,
,,,,,,,,,,,,l,2.419745,Correct!,,,,,,t2.png,t4.png,2,0.059078,20,Female,2020-11-19_15h59.41.444,torte-2b,2020.1.3,Win32,60,13217,,,,,0,75,75,77,1,,,,,,,,,,,,,,,,,,,,,,,,,,,,,,,,,,,,,,,,,,,,,,,,,,,,,,,,
,,,,,,,,,,,,,,Too slow :(,,,,,,t1.png,t1.png,0,0.97829,20,Female,2020-11-19_15h59.41.444,torte-2b,2020.1.3,Win32,60,13217,,,,,0,76,76,9,1,,,,,,,,,,,,,,,,,,,,,,,,,,,,,,,,,,,,,,,,,,,,,,,,,,,,,,,,
,,,,,,,,,,,,l,1.01929,Incorrect,,,,,,t2.png,t3.png,1,0.90855,20,Female,2020-11-19_15h59.41.444,torte-2b,2020.1.3,Win32,60,13217,,,,,0,77,77,111,1,,,,,,,,,,,,,,,,,,,,,,,,,,,,,,,,,,,,,,,,,,,,,,,,,,,,,,,,
,,,,,,,,,,,,a,1.07845,Incorrect,,,,,,t4.png,t5.png,1,0.90025,20,Female,2020-11-19_15h59.41.444,torte-2b,2020.1.3,Win32,60,13217,,,,,0,78,78,58,1,,,,,,,,,,,,,,,,,,,,,,,,,,,,,,,,,,,,,,,,,,,,,,,,,,,,,,,,
,,,,,,,,,,,,l,0.52049,Correct!,,,,,,t1.png,t3.png,2,0.056466,20,Female,2020-11-19_15h59.41.444,torte-2b,2020.1.3,Win32,60,13217,,,,,0,79,79,99,1,,,,,,,,,,,,,,,,,,,,,,,,,,,,,,,,,,,,,,,,,,,,,,,,,,,,,,,,
,,,,,,,,,,,,l,1.318245,Correct!,,,,,,t5.png,t3.png,2,0.056466,20,Female,2020-11-19_15h59.41.444,torte-2b,2020.1.3,Win32,60,13217,,,,,0,80,80,108,1,,,,,,,,,,,,,,,,,,,,,,,,,,,,,,,,,,,,,,,,,,,,,,,,,,,,,,,,
,,,,,,,,,,,,l,1.885245,Correct!,,,,,,t1.png,t5.png,4,9.55E-11,20,Female,2020-11-19_15h59.41.444,torte-2b,2020.1.3,Win32,60,13217,,,,,0,81,81,85,1,,,,,,,,,,,,,,,,,,,,,,,,,,,,,,,,,,,,,,,,,,,,,,,,,,,,,,,,
,,,,,,,,,,,,l,1.62846,Correct!,,,,,,t5.png,t1.png,4,9.55E-11,20,Female,2020-11-19_15h59.41.444,torte-2b,2020.1.3,Win32,60,13217,,,,,0,82,82,43,1,,,,,,,,,,,,,,,,,,,,,,,,,,,,,,,,,,,,,,,,,,,,,,,,,,,,,,,,
,,,,,,,,,,,,l,1.335725,Incorrect,,,,,,t2.png,t3.png,1,0.90855,20,Female,2020-11-19_15h59.41.444,torte-2b,2020.1.3,Win32,60,13217,,,,,0,83,83,65,1,,,,,,,,,,,,,,,,,,,,,,,,,,,,,,,,,,,,,,,,,,,,,,,,,,,,,,,,
,,,,,,,,,,,,,,Too slow :(,,,,,,t2.png,t3.png,1,0.90855,20,Female,2020-11-19_15h59.41.444,torte-2b,2020.1.3,Win32,60,13217,,,,,0,84,84,68,1,,,,,,,,,,,,,,,,,,,,,,,,,,,,,,,,,,,,,,,,,,,,,,,,,,,,,,,,
,,,,,,,,,,,,l,0.49108,Incorrect,,,,,,t2.png,t2.png,0,0.98115,20,Female,2020-11-19_15h59.41.444,torte-2b,2020.1.3,Win32,60,13217,,,,,0,85,85,57,1,,,,,,,,,,,,,,,,,,,,,,,,,,,,,,,,,,,,,,,,,,,,,,,,,,,,,,,,
,,,,,,,,,,,,l,0.572795,Correct!,,,,,,t3.png,t1.png,2,0.056466,20,Female,2020-11-19_15h59.41.444,torte-2b,2020.1.3,Win32,60,13217,,,,,0,86,86,32,1,,,,,,,,,,,,,,,,,,,,,,,,,,,,,,,,,,,,,,,,,,,,,,,,,,,,,,,,
,,,,,,,,,,,,a,0.556405,Correct!,,,,,,t5.png,t5.png,0,0.978,20,Female,2020-11-19_15h59.41.444,torte-2b,2020.1.3,Win32,60,13217,,,,,0,87,87,117,1,,,,,,,,,,,,,,,,,,,,,,,,,,,,,,,,,,,,,,,,,,,,,,,,,,,,,,,,
,,,,,,,,,,,,,,Too slow :(,,,,,,t1.png,t2.png,1,0.90025,20,Female,2020-11-19_15h59.41.444,torte-2b,2020.1.3,Win32,60,13217,,,,,0,88,88,72,1,,,,,,,,,,,,,,,,,,,,,,,,,,,,,,,,,,,,,,,,,,,,,,,,,,,,,,,,
,,,,,,,,,,,,a,1.584665,Incorrect,,,,,,t1.png,t5.png,4,9.55E-11,20,Female,2020-11-19_15h59.41.444,torte-2b,2020.1.3,Win32,60,13217,,,,,0,89,89,41,1,,,,,,,,,,,,,,,,,,,,,,,,,,,,,,,,,,,,,,,,,,,,,,,,,,,,,,,,
,,,,,,,,,,,,l,1.584525,Correct!,,,,,,t2.png,t1.png,1,0.9,20,Female,2020-11-19_15h59.41.444,torte-2b,2020.1.3,Win32,60,13217,,,,,0,90,90,118,1,,,,,,,,,,,,,,,,,,,,,,,,,,,,,,,,,,,,,,,,,,,,,,,,,,,,,,,,
,,,,,,,,,,,,a,0.78579,Correct!,,,,,,t5.png,t5.png,0,0.97829,20,Female,2020-11-19_15h59.41.444,torte-2b,2020.1.3,Win32,60,13217,,,,,0,91,91,70,1,,,,,,,,,,,,,,,,,,,,,,,,,,,,,,,,,,,,,,,,,,,,,,,,,,,,,,,,
,,,,,,,,,,,,l,0.45252,Incorrect,,,,,,t5.png,t5.png,0,0.97829,20,Female,2020-11-19_15h59.41.444,torte-2b,2020.1.3,Win32,60,13217,,,,,0,92,92,94,1,,,,,,,,,,,,,,,,,,,,,,,,,,,,,,,,,,,,,,,,,,,,,,,,,,,,,,,,
,,,,,,,,,,,,a,0.918565,Correct!,,,,,,t3.png,t4.png,1,0.90855,20,Female,2020-11-19_15h59.41.444,torte-2b,2020.1.3,Win32,60,13217,,,,,0,93,93,96,1,,,,,,,,,,,,,,,,,,,,,,,,,,,,,,,,,,,,,,,,,,,,,,,,,,,,,,,,
,,,,,,,,,,,,l,0.851805,Incorrect,,,,,,t5.png,t5.png,0,0.97829,20,Female,2020-11-19_15h59.41.444,torte-2b,2020.1.3,Win32,60,13217,,,,,0,94,94,25,1,,,,,,,,,,,,,,,,,,,,,,,,,,,,,,,,,,,,,,,,,,,,,,,,,,,,,,,,
,,,,,,,,,,,,l,1.352755,Correct!,,,,,,t2.png,t5.png,3,0.0000131,20,Female,2020-11-19_15h59.41.444,torte-2b,2020.1.3,Win32,60,13217,,,,,0,95,95,66,1,,,,,,,,,,,,,,,,,,,,,,,,,,,,,,,,,,,,,,,,,,,,,,,,,,,,,,,,
,,,,,,,,,,,,a,1.85677,Correct!,,,,,,t2.png,t2.png,0,0.98115,20,Female,2020-11-19_15h59.41.444,torte-2b,2020.1.3,Win32,60,13217,,,,,0,96,96,2,1,,,,,,,,,,,,,,,,,,,,,,,,,,,,,,,,,,,,,,,,,,,,,,,,,,,,,,,,
,,,,,,,,,,,,l,2.09087,Incorrect,,,,,,t1.png,t1.png,0,0.97829,20,Female,2020-11-19_15h59.41.444,torte-2b,2020.1.3,Win32,60,13217,,,,,0,97,97,78,1,,,,,,,,,,,,,,,,,,,,,,,,,,,,,,,,,,,,,,,,,,,,,,,,,,,,,,,,
,,,,,,,,,,,,a,0.605455,Correct!,,,,,,t2.png,t2.png,0,0.98115,20,Female,2020-11-19_15h59.41.444,torte-2b,2020.1.3,Win32,60,13217,,,,,0,98,98,7,1,,,,,,,,,,,,,,,,,,,,,,,,,,,,,,,,,,,,,,,,,,,,,,,,,,,,,,,,
,,,,,,,,,,,,l,1.486625,Correct!,,,,,,t4.png,t1.png,3,0.0000131,20,Female,2020-11-19_15h59.41.444,torte-2b,2020.1.3,Win32,60,13217,,,,,0,99,99,13,1,,,,,,,,,,,,,,,,,,,,,,,,,,,,,,,,,,,,,,,,,,,,,,,,,,,,,,,,
,,,,,,,,,,,,,,Too slow :(,,,,,,t5.png,t3.png,2,0.0565,20,Female,2020-11-19_15h59.41.444,torte-2b,2020.1.3,Win32,60,13217,,,,,0,100,100,39,1,,,,,,,,,,,,,,,,,,,,,,,,,,,,,,,,,,,,,,,,,,,,,,,,,,,,,,,,
,,,,,,,,,,,,l,2.22221,Correct!,,,,,,t2.png,t4.png,2,0.059078,20,Female,2020-11-19_15h59.41.444,torte-2b,2020.1.3,Win32,60,13217,,,,,0,101,101,37,1,,,,,,,,,,,,,,,,,,,,,,,,,,,,,,,,,,,,,,,,,,,,,,,,,,,,,,,,
,,,,,,,,,,,,l,1.702385,Incorrect,,,,,,t5.png,t4.png,1,0.9,20,Female,2020-11-19_15h59.41.444,torte-2b,2020.1.3,Win32,60,13217,,,,,0,102,102,76,1,,,,,,,,,,,,,,,,,,,,,,,,,,,,,,,,,,,,,,,,,,,,,,,,,,,,,,,,
,,,,,,,,,,,,l,2.144195,Correct!,,,,,,t4.png,t2.png,2,0.0591,20,Female,2020-11-19_15h59.41.444,torte-2b,2020.1.3,Win32,60,13217,,,,,0,103,103,36,1,,,,,,,,,,,,,,,,,,,,,,,,,,,,,,,,,,,,,,,,,,,,,,,,,,,,,,,,
,,,,,,,,,,,,a,1.835415,Correct!,,,,,,t4.png,t3.png,1,0.909,20,Female,2020-11-19_15h59.41.444,torte-2b,2020.1.3,Win32,60,13217,,,,,0,104,104,46,1,,,,,,,,,,,,,,,,,,,,,,,,,,,,,,,,,,,,,,,,,,,,,,,,,,,,,,,,
,,,,,,,,,,,,a,0.551845,Incorrect,,,,,,t2.png,t5.png,3,0.0000131,20,Female,2020-11-19_15h59.41.444,torte-2b,2020.1.3,Win32,60,13217,,,,,0,105,105,104,1,,,,,,,,,,,,,,,,,,,,,,,,,,,,,,,,,,,,,,,,,,,,,,,,,,,,,,,,
,,,,,,,,,,,,a,1.018275,Incorrect,,,,,,t4.png,t1.png,3,0.0000131,20,Female,2020-11-19_15h59.41.444,torte-2b,2020.1.3,Win32,60,13217,,,,,0,106,106,61,1,,,,,,,,,,,,,,,,,,,,,,,,,,,,,,,,,,,,,,,,,,,,,,,,,,,,,,,,
,,,,,,,,,,,,l,0.535105,Correct!,,,,,,t5.png,t4.png,1,0.90025,20,Female,2020-11-19_15h59.41.444,torte-2b,2020.1.3,Win32,60,13217,,,,,0,107,107,27,1,,,,,,,,,,,,,,,,,,,,,,,,,,,,,,,,,,,,,,,,,,,,,,,,,,,,,,,,
,,,,,,,,,,,,a,0.769125,Incorrect,,,,,,t3.png,t1.png,2,0.056466,20,Female,2020-11-19_15h59.41.444,torte-2b,2020.1.3,Win32,60,13217,,,,,0,108,108,64,1,,,,,,,,,,,,,,,,,,,,,,,,,,,,,,,,,,,,,,,,,,,,,,,,,,,,,,,,
,,,,,,,,,,,,,,Too slow :(,,,,,,t3.png,t5.png,2,0.056466,20,Female,2020-11-19_15h59.41.444,torte-2b,2020.1.3,Win32,60,13217,,,,,0,109,109,14,1,,,,,,,,,,,,,,,,,,,,,,,,,,,,,,,,,,,,,,,,,,,,,,,,,,,,,,,,
,,,,,,,,,,,,,,Too slow :(,,,,,,t3.png,t5.png,2,0.056466,20,Female,2020-11-19_15h59.41.444,torte-2b,2020.1.3,Win32,60,13217,,,,,0,110,110,44,1,,,,,,,,,,,,,,,,,,,,,,,,,,,,,,,,,,,,,,,,,,,,,,,,,,,,,,,,
,,,,,,,,,,,,l,0.536,Correct!,,,,,,t1.png,t3.png,2,0.056466,20,Female,2020-11-19_15h59.41.444,torte-2b,2020.1.3,Win32,60,13217,,,,,0,111,111,63,1,,,,,,,,,,,,,,,,,,,,,,,,,,,,,,,,,,,,,,,,,,,,,,,,,,,,,,,,
,,,,,,,,,,,,a,0.730065,Correct!,,,,,,t2.png,t2.png,0,0.981,20,Female,2020-11-19_15h59.41.444,torte-2b,2020.1.3,Win32,60,13217,,,,,0,112,112,101,1,,,,,,,,,,,,,,,,,,,,,,,,,,,,,,,,,,,,,,,,,,,,,,,,,,,,,,,,
,,,,,,,,,,,,l,1.733695,Incorrect,,,,,,t1.png,t2.png,1,0.90025,20,Female,2020-11-19_15h59.41.444,torte-2b,2020.1.3,Win32,60,13217,,,,,0,113,113,112,1,,,,,,,,,,,,,,,,,,,,,,,,,,,,,,,,,,,,,,,,,,,,,,,,,,,,,,,,
,,,,,,,,,,,,l,0.93431,Correct!,,,,,,t4.png,t2.png,2,0.059078,20,Female,2020-11-19_15h59.41.444,torte-2b,2020.1.3,Win32,60,13217,,,,,0,114,114,110,1,,,,,,,,,,,,,,,,,,,,,,,,,,,,,,,,,,,,,,,,,,,,,,,,,,,,,,,,
,,,,,,,,,,,,a,0.402215,Incorrect,,,,,,t1.png,t5.png,4,9.55E-11,20,Female,2020-11-19_15h59.41.444,torte-2b,2020.1.3,Win32,60,13217,,,,,0,115,115,12,1,,,,,,,,,,,,,,,,,,,,,,,,,,,,,,,,,,,,,,,,,,,,,,,,,,,,,,,,
,,,,,,,,,,,,l,0.820225,Correct!,,,,,,t5.png,t1.png,4,9.55E-11,20,Female,2020-11-19_15h59.41.444,torte-2b,2020.1.3,Win32,60,13217,,,,,0,116,116,22,1,,,,,,,,,,,,,,,,,,,,,,,,,,,,,,,,,,,,,,,,,,,,,,,,,,,,,,,,
,,,,,,,,,,,,a,0.413035,Incorrect,,,,,,t5.png,t2.png,3,0.0000131,20,Female,2020-11-19_15h59.41.444,torte-2b,2020.1.3,Win32,60,13217,,,,,0,117,117,119,1,,,,,,,,,,,,,,,,,,,,,,,,,,,,,,,,,,,,,,,,,,,,,,,,,,,,,,,,
,,,,,,,,,,,,a,0.5625,Incorrect,,,,,,t2.png,t5.png,3,0.0000131,20,Female,2020-11-19_15h59.41.444,torte-2b,2020.1.3,Win32,60,13217,,,,,0,118,118,95,1,,,,,,,,,,,,,,,,,,,,,,,,,,,,,,,,,,,,,,,,,,,,,,,,,,,,,,,,
,,,,,,,,,,,,l,0.276385,Incorrect,,,,,,t4.png,t5.png,1,0.90025,20,Female,2020-11-19_15h59.41.444,torte-2b,2020.1.3,Win32,60,13217,,,,,0,119,119,103,1,,,,,,,,,,,,,,,,,,,,,,,,,,,,,,,,,,,,,,,,,,,,,,,,,,,,,,,,
,,,,,,,,,,,,,,,,,,,,,,,,20,Female,2020-11-19_15h59.41.444,torte-2b,2020.1.3,Win32,60,13217,space,2.841085,,,,,,,,space,136.991045,,0,0,0,0,1,6,,,,,,,,,,,,,,,,,,,,,,,,,,,,,,,,,,,,,,,,,,,,,,,
,,,,,,,,,,,,,,,,,,,,,,,,20,Female,2020-11-19_15h59.41.444,torte-2b,2020.1.3,Win32,60,13217,,,,,,,,,,,,,0,1,1,1,1,7,,,,,,,,,,,,,,,,,,,,,,,,,,,,,,,,,,,,,,,,,,,,,,,
,,,,,,,,,,,,,,,,,,,,,,,,20,Female,2020-11-19_15h59.41.444,torte-2b,2020.1.3,Win32,60,13217,,,,,,,,,,,,space,0,2,2,2,1,6,0.374705,,,,,,,,,,,,,,,,,,,,,,,,,,,,,,,,,,,,,,,,,,,,,,
,,,,,,,,,,,,,,,,,,,,,,,,20,Female,2020-11-19_15h59.41.444,torte-2b,2020.1.3,Win32,60,13217,,,,,,,,,,,,space,0,3,3,3,1,7,0.61396,,,,,,,,,,,,,,,,,,,,,,,,,,,,,,,,,,,,,,,,,,,,,,
,,,,,,,,,,,,,,,,,,,,,,,,20,Female,2020-11-19_15h59.41.444,torte-2b,2020.1.3,Win32,60,13217,,,,,,,,,,,,,0,4,4,4,1,5,,,,,,,,,,,,,,,,,,,,,,,,,,,,,,,,,,,,,,,,,,,,,,,
,,,,,,,,,,,,,,,,,,,,,,,,20,Female,2020-11-19_15h59.41.444,torte-2b,2020.1.3,Win32,60,13217,,,,,,,,,,,,space,0,5,5,5,1,7,0.47239,,,,,,,,,,,,,,,,,,,,,,,,,,,,,,,,,,,,,,,,,,,,,,
,,,,,,,,,,,,,,,,,,,,,,,,20,Female,2020-11-19_15h59.41.444,torte-2b,2020.1.3,Win32,60,13217,,,,,,,,,,,,,0,6,6,6,1,2,,,,,,,,,,,,,,,,,,,,,,,,,,,,,,,,,,,,,,,,,,,,,,,
,,,,,,,,,,,,,,,,,,,,,,,,20,Female,2020-11-19_15h59.41.444,torte-2b,2020.1.3,Win32,60,13217,,,,,,,,,,,,space,0,7,7,7,1,4,0.254045,,,,,,,,,,,,,,,,,,,,,,,,,,,,,,,,,,,,,,,,,,,,,,
,,,,,,,,,,,,,,,,,,,,,,,,20,Female,2020-11-19_15h59.41.444,torte-2b,2020.1.3,Win32,60,13217,,,,,,,,,,,,,0,8,8,8,1,7,,,,,,,,,,,,,,,,,,,,,,,,,,,,,,,,,,,,,,,,,,,,,,,
,,,,,,,,,,,,,,,,,,,,,,,,20,Female,2020-11-19_15h59.41.444,torte-2b,2020.1.3,Win32,60,13217,,,,,,,,,,,,space,0,9,9,9,1,4,0.400635,,,,,,,,,,,,,,,,,,,,,,,,,,,,,,,,,,,,,,,,,,,,,,
,,,,,,,,,,,,,,,,,,,,,,,,20,Female,2020-11-19_15h59.41.444,torte-2b,2020.1.3,Win32,60,13217,,,,,,,,,,,,space,0,10,10,10,1,7,1.08894,,,,,,,,,,,,,,,,,,,,,,,,,,,,,,,,,,,,,,,,,,,,,,
,,,,,,,,,,,,,,,,,,,,,,,,20,Female,2020-11-19_15h59.41.444,torte-2b,2020.1.3,Win32,60,13217,,,,,,,,,,,,space,0,11,11,11,1,7,0.602725,,,,,,,,,,,,,,,,,,,,,,,,,,,,,,,,,,,,,,,,,,,,,,
,,,,,,,,,,,,,,,,,,,,,,,,20,Female,2020-11-19_15h59.41.444,torte-2b,2020.1.3,Win32,60,13217,,,,,,,,,,,,space,0,12,12,12,1,7,0.814095,,,,,,,,,,,,,,,,,,,,,,,,,,,,,,,,,,,,,,,,,,,,,,
,,,,,,,,,,,,,,,,,,,,,,,,20,Female,2020-11-19_15h59.41.444,torte-2b,2020.1.3,Win32,60,13217,,,,,,,,,,,,,0,13,13,13,1,4,,,,,,,,,,,,,,,,,,,,,,,,,,,,,,,,,,,,,,,,,,,,,,,
,,,,,,,,,,,,,,,,,,,,,,,,20,Female,2020-11-19_15h59.41.444,torte-2b,2020.1.3,Win32,60,13217,,,,,,,,,,,,,0,14,14,14,1,6,,,,,,,,,,,,,,,,,,,,,,,,,,,,,,,,,,,,,,,,,,,,,,,
,,,,,,,,,,,,,,,,,,,,,,,,20,Female,2020-11-19_15h59.41.444,torte-2b,2020.1.3,Win32,60,13217,,,,,,,,,,,,space,0,15,15,15,1,4,0.30474,,,,,,,,,,,,,,,,,,,,,,,,,,,,,,,,,,,,,,,,,,,,,,
,,,,,,,,,,,,,,,,,,,,,,,,20,Female,2020-11-19_15h59.41.444,torte-2b,2020.1.3,Win32,60,13217,,,,,,,,,,,,space,0,16,16,16,1,6,0.83344,,,,,,,,,,,,,,,,,,,,,,,,,,,,,,,,,,,,,,,,,,,,,,
,,,,,,,,,,,,,,,,,,,,,,,,20,Female,2020-11-19_15h59.41.444,torte-2b,2020.1.3,Win32,60,13217,,,,,,,,,,,,,0,17,17,17,1,7,,,,,,,,,,,,,,,,,,,,,,,,,,,,,,,,,,,,,,,,,,,,,,,
,,,,,,,,,,,,,,,,,,,,,,,,20,Female,2020-11-19_15h59.41.444,torte-2b,2020.1.3,Win32,60,13217,,,,,,,,,,,,space,0,18,18,18,1,6,0.29227,,,,,,,,,,,,,,,,,,,,,,,,,,,,,,,,,,,,,,,,,,,,,,
,,,,,,,,,,,,,,,,,,,,,,,,20,Female,2020-11-19_15h59.41.444,torte-2b,2020.1.3,Win32,60,13217,,,,,,,,,,,,space,0,19,19,19,1,7,0.648515,,,,,,,,,,,,,,,,,,,,,,,,,,,,,,,,,,,,,,,,,,,,,,
,,,,,,,,,,,,,,,,,,,,,,,,20,Female,2020-11-19_15h59.41.444,torte-2b,2020.1.3,Win32,60,13217,,,,,,,,,,,,,0,20,20,20,1,5,,,,,,,,,,,,,,,,,,,,,,,,,,,,,,,,,,,,,,,,,,,,,,,
,,,,,,,,,,,,,,,,,,,,,,,,20,Female,2020-11-19_15h59.41.444,torte-2b,2020.1.3,Win32,60,13217,,,,,,,,,,,,,0,21,21,21,1,1,,,,,,,,,,,,,,,,,,,,,,,,,,,,,,,,,,,,,,,,,,,,,,,
,,,,,,,,,,,,,,,,,,,,,,,,20,Female,2020-11-19_15h59.41.444,torte-2b,2020.1.3,Win32,60,13217,,,,,,,,,,,,space,0,22,22,22,1,6,0.356835,,,,,,,,,,,,,,,,,,,,,,,,,,,,,,,,,,,,,,,,,,,,,,
,,,,,,,,,,,,,,,,,,,,,,,,20,Female,2020-11-19_15h59.41.444,torte-2b,2020.1.3,Win32,60,13217,,,,,,,,,,,,space,0,23,23,23,1,1,1.00313,,,,,,,,,,,,,,,,,,,,,,,,,,,,,,,,,,,,,,,,,,,,,,
,,,,,,,,,,,,,,,,,,,,,,,,20,Female,2020-11-19_15h59.41.444,torte-2b,2020.1.3,Win32,60,13217,,,,,,,,,,,,,0,24,24,24,1,5,,,,,,,,,,,,,,,,,,,,,,,,,,,,,,,,,,,,,,,,,,,,,,,
,,,,,,,,,,,,,,,,,,,,,,,,20,Female,2020-11-19_15h59.41.444,torte-2b,2020.1.3,Win32,60,13217,,,,,,,,,,,,space,0,25,25,25,1,6,0.11361,,,,,,,,,,,,,,,,,,,,,,,,,,,,,,,,,,,,,,,,,,,,,,
,,,,,,,,,,,,,,,,,,,,,,,,20,Female,2020-11-19_15h59.41.444,torte-2b,2020.1.3,Win32,60,13217,,,,,,,,,,,,space,0,26,26,26,1,6,0.577875,,,,,,,,,,,,,,,,,,,,,,,,,,,,,,,,,,,,,,,,,,,,,,
,,,,,,,,,,,,,,,,,,,,,,,,20,Female,2020-11-19_15h59.41.444,torte-2b,2020.1.3,Win32,60,13217,,,,,,,,,,,,,0,27,27,27,1,6,,,,,,,,,,,,,,,,,,,,,,,,,,,,,,,,,,,,,,,,,,,,,,,
,,,,,,,,,,,,,,,,,,,,,,,,20,Female,2020-11-19_15h59.41.444,torte-2b,2020.1.3,Win32,60,13217,,,,,,,,,,,,space,0,28,28,28,1,5,0.00694,,,,,,,,,,,,,,,,,,,,,,,,,,,,,,,,,,,,,,,,,,,,,,
,,,,,,,,,,,,,,,,,,,,,,,,20,Female,2020-11-19_15h59.41.444,torte-2b,2020.1.3,Win32,60,13217,,,,,,,,,,,,,0,29,29,29,1,2,,,,,,,,,,,,,,,,,,,,,,,,,,,,,,,,,,,,,,,,,,,,,,,
,,,,,,,,,,,,,,,,,,,,,,,,20,Female,2020-11-19_15h59.41.444,torte-2b,2020.1.3,Win32,60,13217,,,,,,,,,,,,,0,30,30,30,1,5,,,,,,,,,,,,,,,,,,,,,,,,,,,,,,,,,,,,,,,,,,,,,,,
,,,,,,,,,,,,,,,,,,,,,,,,20,Female,2020-11-19_15h59.41.444,torte-2b,2020.1.3,Win32,60,13217,,,,,,,,,,,,space,0,31,31,31,1,2,0.27953,,,,,,,,,,,,,,,,,,,,,,,,,,,,,,,,,,,,,,,,,,,,,,
,,,,,,,,,,,,,,,,,,,,,,,,20,Female,2020-11-19_15h59.41.444,torte-2b,2020.1.3,Win32,60,13217,,,,,,,,,,,,space,0,32,32,32,1,5,1.92154,,,,,,,,,,,,,,,,,,,,,,,,,,,,,,,,,,,,,,,,,,,,,,
,,,,,,,,,,,,,,,,,,,,,,,,20,Female,2020-11-19_15h59.41.444,torte-2b,2020.1.3,Win32,60,13217,,,,,,,,,,,,,0,33,33,33,1,1,,,,,,,,,,,,,,,,,,,,,,,,,,,,,,,,,,,,,,,,,,,,,,,
,,,,,,,,,,,,,,,,,,,,,,,,20,Female,2020-11-19_15h59.41.444,torte-2b,2020.1.3,Win32,60,13217,,,,,,,,,,,,,0,34,34,34,1,1,,,,,,,,,,,,,,,,,,,,,,,,,,,,,,,,,,,,,,,,,,,,,,,
,,,,,,,,,,,,,,,,,,,,,,,,20,Female,2020-11-19_15h59.41.444,torte-2b,2020.1.3,Win32,60,13217,,,,,,,,,,,,,,,,,,2,,0,0,0,0,1,,,,,,,,,,,,,,,,,,,,,,,,,,,,,,,,,,,,,,,,,
,,,,,,,,,,,,,,,,,,,,,,,,20,Female,2020-11-19_15h59.41.444,torte-2b,2020.1.3,Win32,60,13217,,,,,,,,,,,,space,,,,,,2,0.453455,0,1,1,1,1,,,,,,,,,,,,,,,,,,,,,,,,,,,,,,,,,,,,,,,,,
,,,,,,,,,,,,,,,,,,,,,,,,20,Female,2020-11-19_15h59.41.444,torte-2b,2020.1.3,Win32,60,13217,,,,,,,,,,,,,,,,,,6,,0,2,2,2,1,,,,,,,,,,,,,,,,,,,,,,,,,,,,,,,,,,,,,,,,,
,,,,,,,,,,,,,,,,,,,,,,,,20,Female,2020-11-19_15h59.41.444,torte-2b,2020.1.3,Win32,60,13217,,,,,,,,,,,,space,,,,,,2,1.53192,0,3,3,3,1,,,,,,,,,,,,,,,,,,,,,,,,,,,,,,,,,,,,,,,,,
,,,,,,,,,,,,,,,,,,,,,,,,20,Female,2020-11-19_15h59.41.444,torte-2b,2020.1.3,Win32,60,13217,,,,,,,,,,,,space,,,,,,6,0.880375,0,4,4,4,1,,,,,,,,,,,,,,,,,,,,,,,,,,,,,,,,,,,,,,,,,
,,,,,,,,,,,,,,,,,,,,,,,,20,Female,2020-11-19_15h59.41.444,torte-2b,2020.1.3,Win32,60,13217,,,,,,,,,,,,space,,,,,,2,0.515375,0,5,5,5,1,,,,,,,,,,,,,,,,,,,,,,,,,,,,,,,,,,,,,,,,,
,,,,,,,,,,,,,,,,,,,,,,,,20,Female,2020-11-19_15h59.41.444,torte-2b,2020.1.3,Win32,60,13217,,,,,,,,,,,,,,,,,,7,,0,6,6,6,1,,,,,,,,,,,,,,,,,,,,,,,,,,,,,,,,,,,,,,,,,
,,,,,,,,,,,,,,,,,,,,,,,,20,Female,2020-11-19_15h59.41.444,torte-2b,2020.1.3,Win32,60,13217,,,,,,,,,,,,space,,,,,,2,0.352025,0,7,7,7,1,,,,,,,,,,,,,,,,,,,,,,,,,,,,,,,,,,,,,,,,,
,,,,,,,,,,,,,,,,,,,,,,,,20,Female,2020-11-19_15h59.41.444,torte-2b,2020.1.3,Win32,60,13217,,,,,,,,,,,,,,,,,,7,,0,8,8,8,1,,,,,,,,,,,,,,,,,,,,,,,,,,,,,,,,,,,,,,,,,
,,,,,,,,,,,,,,,,,,,,,,,,20,Female,2020-11-19_15h59.41.444,torte-2b,2020.1.3,Win32,60,13217,,,,,,,,,,,,space,,,,,,2,0.50484,0,9,9,9,1,,,,,,,,,,,,,,,,,,,,,,,,,,,,,,,,,,,,,,,,,
,,,,,,,,,,,,,,,,,,,,,,,,20,Female,2020-11-19_15h59.41.444,torte-2b,2020.1.3,Win32,60,13217,,,,,,,,,,,,space,,,,,,5,1.236655,0,10,10,10,1,,,,,,,,,,,,,,,,,,,,,,,,,,,,,,,,,,,,,,,,,
,,,,,,,,,,,,,,,,,,,,,,,,20,Female,2020-11-19_15h59.41.444,torte-2b,2020.1.3,Win32,60,13217,,,,,,,,,,,,,,,,,,4,,0,11,11,11,1,,,,,,,,,,,,,,,,,,,,,,,,,,,,,,,,,,,,,,,,,
,,,,,,,,,,,,,,,,,,,,,,,,20,Female,2020-11-19_15h59.41.444,torte-2b,2020.1.3,Win32,60,13217,,,,,,,,,,,,,,,,,,5,,0,12,12,12,1,,,,,,,,,,,,,,,,,,,,,,,,,,,,,,,,,,,,,,,,,
,,,,,,,,,,,,,,,,,,,,,,,,20,Female,2020-11-19_15h59.41.444,torte-2b,2020.1.3,Win32,60,13217,,,,,,,,,,,,,,,,,,6,,0,13,13,13,1,,,,,,,,,,,,,,,,,,,,,,,,,,,,,,,,,,,,,,,,,
,,,,,,,,,,,,,,,,,,,,,,,,20,Female,2020-11-19_15h59.41.444,torte-2b,2020.1.3,Win32,60,13217,,,,,,,,,,,,space,,,,,,5,0.513745,0,14,14,14,1,,,,,,,,,,,,,,,,,,,,,,,,,,,,,,,,,,,,,,,,,
,,,,,,,,,,,,,,,,,,,,,,,,20,Female,2020-11-19_15h59.41.444,torte-2b,2020.1.3,Win32,60,13217,,,,,,,,,,,,,,,,,,4,,0,15,15,15,1,,,,,,,,,,,,,,,,,,,,,,,,,,,,,,,,,,,,,,,,,
,,,,,,,,,,,,,,,,,,,,,,,,20,Female,2020-11-19_15h59.41.444,torte-2b,2020.1.3,Win32,60,13217,,,,,,,,,,,,,,,,,,5,,0,16,16,16,1,,,,,,,,,,,,,,,,,,,,,,,,,,,,,,,,,,,,,,,,,
,,,,,,,,,,,,,,,,,,,,,,,,20,Female,2020-11-19_15h59.41.444,torte-2b,2020.1.3,Win32,60,13217,,,,,,,,,,,,,,,,,,3,,0,17,17,17,1,,,,,,,,,,,,,,,,,,,,,,,,,,,,,,,,,,,,,,,,,
,,,,,,,,,,,,,,,,,,,,,,,,20,Female,2020-11-19_15h59.41.444,torte-2b,2020.1.3,Win32,60,13217,,,,,,,,,,,,space,,,,,,6,0.492315,0,18,18,18,1,,,,,,,,,,,,,,,,,,,,,,,,,,,,,,,,,,,,,,,,,
,,,,,,,,,,,,,,,,,,,,,,,,20,Female,2020-11-19_15h59.41.444,torte-2b,2020.1.3,Win32,60,13217,,,,,,,,,,,,,,,,,,6,,0,19,19,19,1,,,,,,,,,,,,,,,,,,,,,,,,,,,,,,,,,,,,,,,,,
,,,,,,,,,,,,,,,,,,,,,,,,20,Female,2020-11-19_15h59.41.444,torte-2b,2020.1.3,Win32,60,13217,,,,,,,,,,,,space,,,,,,6,0.484395,0,20,20,20,1,,,,,,,,,,,,,,,,,,,,,,,,,,,,,,,,,,,,,,,,,
,,,,,,,,,,,,,,,,,,,,,,,,20,Female,2020-11-19_15h59.41.444,torte-2b,2020.1.3,Win32,60,13217,,,,,,,,,,,,,,,,,,4,,0,21,21,21,1,,,,,,,,,,,,,,,,,,,,,,,,,,,,,,,,,,,,,,,,,
,,,,,,,,,,,,,,,,,,,,,,,,20,Female,2020-11-19_15h59.41.444,torte-2b,2020.1.3,Win32,60,13217,,,,,,,,,,,,,,,,,,6,,0,22,22,22,1,,,,,,,,,,,,,,,,,,,,,,,,,,,,,,,,,,,,,,,,,
,,,,,,,,,,,,,,,,,,,,,,,,20,Female,2020-11-19_15h59.41.444,torte-2b,2020.1.3,Win32,60,13217,,,,,,,,,,,,,,,,,,4,,0,23,23,23,1,,,,,,,,,,,,,,,,,,,,,,,,,,,,,,,,,,,,,,,,,
,,,,,,,,,,,,,,,,,,,,,,,,20,Female,2020-11-19_15h59.41.444,torte-2b,2020.1.3,Win32,60,13217,,,,,,,,,,,,space,,,,,,6,0.380395,0,24,24,24,1,,,,,,,,,,,,,,,,,,,,,,,,,,,,,,,,,,,,,,,,,
,,,,,,,,,,,,,,,,,,,,,,,,20,Female,2020-11-19_15h59.41.444,torte-2b,2020.1.3,Win32,60,13217,,,,,,,,,,,,space,,,,,,6,0.96788,0,25,25,25,1,,,,,,,,,,,,,,,,,,,,,,,,,,,,,,,,,,,,,,,,,
,,,,,,,,,,,,,,,,,,,,,,,,20,Female,2020-11-19_15h59.41.444,torte-2b,2020.1.3,Win32,60,13217,,,,,,,,,,,,,,,,,,7,,0,26,26,26,1,,,,,,,,,,,,,,,,,,,,,,,,,,,,,,,,,,,,,,,,,
,,,,,,,,,,,,,,,,,,,,,,,,20,Female,2020-11-19_15h59.41.444,torte-2b,2020.1.3,Win32,60,13217,,,,,,,,,,,,,,,,,,1,,0,27,27,27,1,,,,,,,,,,,,,,,,,,,,,,,,,,,,,,,,,,,,,,,,,
,,,,,,,,,,,,,,,,,,,,,,,,20,Female,2020-11-19_15h59.41.444,torte-2b,2020.1.3,Win32,60,13217,,,,,,,,,,,,space,,,,,,7,0.290975,0,28,28,28,1,,,,,,,,,,,,,,,,,,,,,,,,,,,,,,,,,,,,,,,,,
,,,,,,,,,,,,,,,,,,,,,,,,20,Female,2020-11-19_15h59.41.444,torte-2b,2020.1.3,Win32,60,13217,,,,,,,,,,,,,,,,,,4,,0,29,29,29,1,,,,,,,,,,,,,,,,,,,,,,,,,,,,,,,,,,,,,,,,,
,,,,,,,,,,,,,,,,,,,,,,,,20,Female,2020-11-19_15h59.41.444,torte-2b,2020.1.3,Win32,60,13217,,,,,,,,,,,,space,,,,,,7,0.539925,0,30,30,30,1,,,,,,,,,,,,,,,,,,,,,,,,,,,,,,,,,,,,,,,,,
,,,,,,,,,,,,,,,,,,,,,,,,20,Female,2020-11-19_15h59.41.444,torte-2b,2020.1.3,Win32,60,13217,,,,,,,,,,,,,,,,,,3,,0,31,31,31,1,,,,,,,,,,,,,,,,,,,,,,,,,,,,,,,,,,,,,,,,,
,,,,,,,,,,,,,,,,,,,,,,,,20,Female,2020-11-19_15h59.41.444,torte-2b,2020.1.3,Win32,60,13217,,,,,,,,,,,,space,,,,,,2,0.249845,0,32,32,32,1,,,,,,,,,,,,,,,,,,,,,,,,,,,,,,,,,,,,,,,,,
,,,,,,,,,,,,,,,,,,,,,,,,20,Female,2020-11-19_15h59.41.444,torte-2b,2020.1.3,Win32,60,13217,,,,,,,,,,,,,,,,,,6,,0,33,33,33,1,,,,,,,,,,,,,,,,,,,,,,,,,,,,,,,,,,,,,,,,,
,,,,,,,,,,,,,,,,,,,,,,,,20,Female,2020-11-19_15h59.41.444,torte-2b,2020.1.3,Win32,60,13217,,,,,,,,,,,,,,,,,,3,,0,34,34,34,1,,,,,,,,,,,,,,,,,,,,,,,,,,,,,,,,,,,,,,,,,
,,,,,,,,,,,,,,,,,,,,,,,,20,Female,2020-11-19_15h59.41.444,torte-2b,2020.1.3,Win32,60,13217,,,,,,,,,,,,space,,,,,,7,1.260105,,,,,,0,0,0,0,1,,,,,,,,,,,,,,,,,,,,,,,,,,,,,,,,,,,,
,,,,,,,,,,,,,,,,,,,,,,,,20,Female,2020-11-19_15h59.41.444,torte-2b,2020.1.3,Win32,60,13217,,,,,,,,,,,,,,,,,,5,,,,,,,0,1,1,1,1,,,,,,,,,,,,,,,,,,,,,,,,,,,,,,,,,,,,
,,,,,,,,,,,,,,,,,,,,,,,,20,Female,2020-11-19_15h59.41.444,torte-2b,2020.1.3,Win32,60,13217,,,,,,,,,,,,,,,,,,4,,,,,,,0,2,2,2,1,,,,,,,,,,,,,,,,,,,,,,,,,,,,,,,,,,,,
,,,,,,,,,,,,,,,,,,,,,,,,20,Female,2020-11-19_15h59.41.444,torte-2b,2020.1.3,Win32,60,13217,,,,,,,,,,,,space,,,,,,5,0.41956,,,,,,0,3,3,3,1,,,,,,,,,,,,,,,,,,,,,,,,,,,,,,,,,,,,
,,,,,,,,,,,,,,,,,,,,,,,,20,Female,2020-11-19_15h59.41.444,torte-2b,2020.1.3,Win32,60,13217,,,,,,,,,,,,,,,,,,6,,,,,,,0,4,4,4,1,,,,,,,,,,,,,,,,,,,,,,,,,,,,,,,,,,,,
,,,,,,,,,,,,,,,,,,,,,,,,20,Female,2020-11-19_15h59.41.444,torte-2b,2020.1.3,Win32,60,13217,,,,,,,,,,,,space,,,,,,5,0.71513,,,,,,0,5,5,5,1,,,,,,,,,,,,,,,,,,,,,,,,,,,,,,,,,,,,
,,,,,,,,,,,,,,,,,,,,,,,,20,Female,2020-11-19_15h59.41.444,torte-2b,2020.1.3,Win32,60,13217,,,,,,,,,,,,,,,,,,3,,,,,,,0,6,6,6,1,,,,,,,,,,,,,,,,,,,,,,,,,,,,,,,,,,,,
,,,,,,,,,,,,,,,,,,,,,,,,20,Female,2020-11-19_15h59.41.444,torte-2b,2020.1.3,Win32,60,13217,,,,,,,,,,,,space,,,,,,4,0.371795,,,,,,0,7,7,7,1,,,,,,,,,,,,,,,,,,,,,,,,,,,,,,,,,,,,
,,,,,,,,,,,,,,,,,,,,,,,,20,Female,2020-11-19_15h59.41.444,torte-2b,2020.1.3,Win32,60,13217,,,,,,,,,,,,,,,,,,3,,,,,,,0,8,8,8,1,,,,,,,,,,,,,,,,,,,,,,,,,,,,,,,,,,,,
,,,,,,,,,,,,,,,,,,,,,,,,20,Female,2020-11-19_15h59.41.444,torte-2b,2020.1.3,Win32,60,13217,,,,,,,,,,,,space,,,,,,1,0.498045,,,,,,0,9,9,9,1,,,,,,,,,,,,,,,,,,,,,,,,,,,,,,,,,,,,
,,,,,,,,,,,,,,,,,,,,,,,,20,Female,2020-11-19_15h59.41.444,torte-2b,2020.1.3,Win32,60,13217,,,,,,,,,,,,,,,,,,2,,,,,,,0,10,10,10,1,,,,,,,,,,,,,,,,,,,,,,,,,,,,,,,,,,,,
,,,,,,,,,,,,,,,,,,,,,,,,20,Female,2020-11-19_15h59.41.444,torte-2b,2020.1.3,Win32,60,13217,,,,,,,,,,,,space,,,,,,1,0.796595,,,,,,0,11,11,11,1,,,,,,,,,,,,,,,,,,,,,,,,,,,,,,,,,,,,
,,,,,,,,,,,,,,,,,,,,,,,,20,Female,2020-11-19_15h59.41.444,torte-2b,2020.1.3,Win32,60,13217,,,,,,,,,,,,,,,,,,2,,,,,,,0,12,12,12,1,,,,,,,,,,,,,,,,,,,,,,,,,,,,,,,,,,,,
,,,,,,,,,,,,,,,,,,,,,,,,20,Female,2020-11-19_15h59.41.444,torte-2b,2020.1.3,Win32,60,13217,,,,,,,,,,,,space,,,,,,1,0.44818,,,,,,0,13,13,13,1,,,,,,,,,,,,,,,,,,,,,,,,,,,,,,,,,,,,
,,,,,,,,,,,,,,,,,,,,,,,,20,Female,2020-11-19_15h59.41.444,torte-2b,2020.1.3,Win32,60,13217,,,,,,,,,,,,,,,,,,3,,,,,,,0,14,14,14,1,,,,,,,,,,,,,,,,,,,,,,,,,,,,,,,,,,,,
,,,,,,,,,,,,,,,,,,,,,,,,20,Female,2020-11-19_15h59.41.444,torte-2b,2020.1.3,Win32,60,13217,,,,,,,,,,,,,,,,,,1,,,,,,,0,15,15,15,1,,,,,,,,,,,,,,,,,,,,,,,,,,,,,,,,,,,,
,,,,,,,,,,,,,,,,,,,,,,,,20,Female,2020-11-19_15h59.41.444,torte-2b,2020.1.3,Win32,60,13217,,,,,,,,,,,,space,,,,,,7,1.05302,,,,,,0,16,16,16,1,,,,,,,,,,,,,,,,,,,,,,,,,,,,,,,,,,,,
,,,,,,,,,,,,,,,,,,,,,,,,20,Female,2020-11-19_15h59.41.444,torte-2b,2020.1.3,Win32,60,13217,,,,,,,,,,,,,,,,,,7,,,,,,,0,17,17,17,1,,,,,,,,,,,,,,,,,,,,,,,,,,,,,,,,,,,,
,,,,,,,,,,,,,,,,,,,,,,,,20,Female,2020-11-19_15h59.41.444,torte-2b,2020.1.3,Win32,60,13217,,,,,,,,,,,,,,,,,,4,,,,,,,0,18,18,18,1,,,,,,,,,,,,,,,,,,,,,,,,,,,,,,,,,,,,
,,,,,,,,,,,,,,,,,,,,,,,,20,Female,2020-11-19_15h59.41.444,torte-2b,2020.1.3,Win32,60,13217,,,,,,,,,,,,space,,,,,,7,0.732525,,,,,,0,19,19,19,1,,,,,,,,,,,,,,,,,,,,,,,,,,,,,,,,,,,,
,,,,,,,,,,,,,,,,,,,,,,,,20,Female,2020-11-19_15h59.41.444,torte-2b,2020.1.3,Win32,60,13217,,,,,,,,,,,,,,,,,,3,,,,,,,0,20,20,20,1,,,,,,,,,,,,,,,,,,,,,,,,,,,,,,,,,,,,
,,,,,,,,,,,,,,,,,,,,,,,,20,Female,2020-11-19_15h59.41.444,torte-2b,2020.1.3,Win32,60,13217,,,,,,,,,,,,space,,,,,,7,0.415985,,,,,,0,21,21,21,1,,,,,,,,,,,,,,,,,,,,,,,,,,,,,,,,,,,,
,,,,,,,,,,,,,,,,,,,,,,,,20,Female,2020-11-19_15h59.41.444,torte-2b,2020.1.3,Win32,60,13217,,,,,,,,,,,,space,,,,,,3,1.480755,,,,,,0,22,22,22,1,,,,,,,,,,,,,,,,,,,,,,,,,,,,,,,,,,,,
,,,,,,,,,,,,,,,,,,,,,,,,20,Female,2020-11-19_15h59.41.444,torte-2b,2020.1.3,Win32,60,13217,,,,,,,,,,,,,,,,,,1,,,,,,,0,23,23,23,1,,,,,,,,,,,,,,,,,,,,,,,,,,,,,,,,,,,,
,,,,,,,,,,,,,,,,,,,,,,,,20,Female,2020-11-19_15h59.41.444,torte-2b,2020.1.3,Win32,60,13217,,,,,,,,,,,,,,,,,,6,,,,,,,0,24,24,24,1,,,,,,,,,,,,,,,,,,,,,,,,,,,,,,,,,,,,
,,,,,,,,,,,,,,,,,,,,,,,,20,Female,2020-11-19_15h59.41.444,torte-2b,2020.1.3,Win32,60,13217,,,,,,,,,,,,space,,,,,,3,0.325635,,,,,,0,25,25,25,1,,,,,,,,,,,,,,,,,,,,,,,,,,,,,,,,,,,,
,,,,,,,,,,,,,,,,,,,,,,,,20,Female,2020-11-19_15h59.41.444,torte-2b,2020.1.3,Win32,60,13217,,,,,,,,,,,,,,,,,,2,,,,,,,0,26,26,26,1,,,,,,,,,,,,,,,,,,,,,,,,,,,,,,,,,,,,
,,,,,,,,,,,,,,,,,,,,,,,,20,Female,2020-11-19_15h59.41.444,torte-2b,2020.1.3,Win32,60,13217,,,,,,,,,,,,space,,,,,,3,0.48454,,,,,,0,27,27,27,1,,,,,,,,,,,,,,,,,,,,,,,,,,,,,,,,,,,,
,,,,,,,,,,,,,,,,,,,,,,,,20,Female,2020-11-19_15h59.41.444,torte-2b,2020.1.3,Win32,60,13217,,,,,,,,,,,,,,,,,,1,,,,,,,0,28,28,28,1,,,,,,,,,,,,,,,,,,,,,,,,,,,,,,,,,,,,
,,,,,,,,,,,,,,,,,,,,,,,,20,Female,2020-11-19_15h59.41.444,torte-2b,2020.1.3,Win32,60,13217,,,,,,,,,,,,space,,,,,,3,0.26366,,,,,,0,29,29,29,1,,,,,,,,,,,,,,,,,,,,,,,,,,,,,,,,,,,,
,,,,,,,,,,,,,,,,,,,,,,,,20,Female,2020-11-19_15h59.41.444,torte-2b,2020.1.3,Win32,60,13217,,,,,,,,,,,,,,,,,,1,,,,,,,0,30,30,30,1,,,,,,,,,,,,,,,,,,,,,,,,,,,,,,,,,,,,
,,,,,,,,,,,,,,,,,,,,,,,,20,Female,2020-11-19_15h59.41.444,torte-2b,2020.1.3,Win32,60,13217,,,,,,,,,,,,space,,,,,,7,0.472415,,,,,,0,31,31,31,1,,,,,,,,,,,,,,,,,,,,,,,,,,,,,,,,,,,,
,,,,,,,,,,,,,,,,,,,,,,,,20,Female,2020-11-19_15h59.41.444,torte-2b,2020.1.3,Win32,60,13217,,,,,,,,,,,,space,,,,,,5,1.78681,,,,,,0,32,32,32,1,,,,,,,,,,,,,,,,,,,,,,,,,,,,,,,,,,,,
,,,,,,,,,,,,,,,,,,,,,,,,20,Female,2020-11-19_15h59.41.444,torte-2b,2020.1.3,Win32,60,13217,,,,,,,,,,,,,,,,,,7,,,,,,,0,33,33,33,1,,,,,,,,,,,,,,,,,,,,,,,,,,,,,,,,,,,,
,,,,,,,,,,,,,,,,,,,,,,,,20,Female,2020-11-19_15h59.41.444,torte-2b,2020.1.3,Win32,60,13217,,,,,,,,,,,,,,,,,,2,,,,,,,0,34,34,34,1,,,,,,,,,,,,,,,,,,,,,,,,,,,,,,,,,,,,
,,,,,,,,,,,,,,,,,,,,,,,,20,Female,2020-11-19_15h59.41.444,torte-2b,2020.1.3,Win32,60,13217,,,,,,,,,,,,,,,,,,3,,,,,,,,,,,,0,0,0,0,1,,,,,,,,,,,,,,,,,,,,,,,,,,,,,,,
,,,,,,,,,,,,,,,,,,,,,,,,20,Female,2020-11-19_15h59.41.444,torte-2b,2020.1.3,Win32,60,13217,,,,,,,,,,,,space,,,,,,7,1.499315,,,,,,,,,,,0,1,1,1,1,,,,,,,,,,,,,,,,,,,,,,,,,,,,,,,
,,,,,,,,,,,,,,,,,,,,,,,,20,Female,2020-11-19_15h59.41.444,torte-2b,2020.1.3,Win32,60,13217,,,,,,,,,,,,space,,,,,,7,1.659,,,,,,,,,,,0,2,2,2,1,,,,,,,,,,,,,,,,,,,,,,,,,,,,,,,
,,,,,,,,,,,,,,,,,,,,,,,,20,Female,2020-11-19_15h59.41.444,torte-2b,2020.1.3,Win32,60,13217,,,,,,,,,,,,,,,,,,4,,,,,,,,,,,,0,3,3,3,1,,,,,,,,,,,,,,,,,,,,,,,,,,,,,,,
,,,,,,,,,,,,,,,,,,,,,,,,20,Female,2020-11-19_15h59.41.444,torte-2b,2020.1.3,Win32,60,13217,,,,,,,,,,,,space,,,,,,5,1.778255,,,,,,,,,,,0,4,4,4,1,,,,,,,,,,,,,,,,,,,,,,,,,,,,,,,
,,,,,,,,,,,,,,,,,,,,,,,,20,Female,2020-11-19_15h59.41.444,torte-2b,2020.1.3,Win32,60,13217,,,,,,,,,,,,,,,,,,4,,,,,,,,,,,,0,5,5,5,1,,,,,,,,,,,,,,,,,,,,,,,,,,,,,,,
,,,,,,,,,,,,,,,,,,,,,,,,20,Female,2020-11-19_15h59.41.444,torte-2b,2020.1.3,Win32,60,13217,,,,,,,,,,,,,,,,,,2,,,,,,,,,,,,0,6,6,6,1,,,,,,,,,,,,,,,,,,,,,,,,,,,,,,,
,,,,,,,,,,,,,,,,,,,,,,,,20,Female,2020-11-19_15h59.41.444,torte-2b,2020.1.3,Win32,60,13217,,,,,,,,,,,,,,,,,,4,,,,,,,,,,,,0,7,7,7,1,,,,,,,,,,,,,,,,,,,,,,,,,,,,,,,
,,,,,,,,,,,,,,,,,,,,,,,,20,Female,2020-11-19_15h59.41.444,torte-2b,2020.1.3,Win32,60,13217,,,,,,,,,,,,,,,,,,2,,,,,,,,,,,,0,8,8,8,1,,,,,,,,,,,,,,,,,,,,,,,,,,,,,,,
,,,,,,,,,,,,,,,,,,,,,,,,20,Female,2020-11-19_15h59.41.444,torte-2b,2020.1.3,Win32,60,13217,,,,,,,,,,,,,,,,,,2,,,,,,,,,,,,0,9,9,9,1,,,,,,,,,,,,,,,,,,,,,,,,,,,,,,,
,,,,,,,,,,,,,,,,,,,,,,,,20,Female,2020-11-19_15h59.41.444,torte-2b,2020.1.3,Win32,60,13217,,,,,,,,,,,,,,,,,,6,,,,,,,,,,,,0,10,10,10,1,,,,,,,,,,,,,,,,,,,,,,,,,,,,,,,
,,,,,,,,,,,,,,,,,,,,,,,,20,Female,2020-11-19_15h59.41.444,torte-2b,2020.1.3,Win32,60,13217,,,,,,,,,,,,,,,,,,2,,,,,,,,,,,,0,11,11,11,1,,,,,,,,,,,,,,,,,,,,,,,,,,,,,,,
,,,,,,,,,,,,,,,,,,,,,,,,20,Female,2020-11-19_15h59.41.444,torte-2b,2020.1.3,Win32,60,13217,,,,,,,,,,,,space,,,,,,2,0.562595,,,,,,,,,,,0,12,12,12,1,,,,,,,,,,,,,,,,,,,,,,,,,,,,,,,
,,,,,,,,,,,,,,,,,,,,,,,,20,Female,2020-11-19_15h59.41.444,torte-2b,2020.1.3,Win32,60,13217,,,,,,,,,,,,space,,,,,,2,0.64662,,,,,,,,,,,0,13,13,13,1,,,,,,,,,,,,,,,,,,,,,,,,,,,,,,,
,,,,,,,,,,,,,,,,,,,,,,,,20,Female,2020-11-19_15h59.41.444,torte-2b,2020.1.3,Win32,60,13217,,,,,,,,,,,,space,,,,,,2,0.50679,,,,,,,,,,,0,14,14,14,1,,,,,,,,,,,,,,,,,,,,,,,,,,,,,,,
,,,,,,,,,,,,,,,,,,,,,,,,20,Female,2020-11-19_15h59.41.444,torte-2b,2020.1.3,Win32,60,13217,,,,,,,,,,,,,,,,,,4,,,,,,,,,,,,0,15,15,15,1,,,,,,,,,,,,,,,,,,,,,,,,,,,,,,,
,,,,,,,,,,,,,,,,,,,,,,,,20,Female,2020-11-19_15h59.41.444,torte-2b,2020.1.3,Win32,60,13217,,,,,,,,,,,,,,,,,,3,,,,,,,,,,,,0,16,16,16,1,,,,,,,,,,,,,,,,,,,,,,,,,,,,,,,
,,,,,,,,,,,,,,,,,,,,,,,,20,Female,2020-11-19_15h59.41.444,torte-2b,2020.1.3,Win32,60,13217,,,,,,,,,,,,space,,,,,,7,0.55468,,,,,,,,,,,0,17,17,17,1,,,,,,,,,,,,,,,,,,,,,,,,,,,,,,,
,,,,,,,,,,,,,,,,,,,,,,,,20,Female,2020-11-19_15h59.41.444,torte-2b,2020.1.3,Win32,60,13217,,,,,,,,,,,,space,,,,,,4,0.60865,,,,,,,,,,,0,18,18,18,1,,,,,,,,,,,,,,,,,,,,,,,,,,,,,,,
,,,,,,,,,,,,,,,,,,,,,,,,20,Female,2020-11-19_15h59.41.444,torte-2b,2020.1.3,Win32,60,13217,,,,,,,,,,,,,,,,,,7,,,,,,,,,,,,0,19,19,19,1,,,,,,,,,,,,,,,,,,,,,,,,,,,,,,,
,,,,,,,,,,,,,,,,,,,,,,,,20,Female,2020-11-19_15h59.41.444,torte-2b,2020.1.3,Win32,60,13217,,,,,,,,,,,,space,,,,,,7,0.64983,,,,,,,,,,,0,20,20,20,1,,,,,,,,,,,,,,,,,,,,,,,,,,,,,,,
,,,,,,,,,,,,,,,,,,,,,,,,20,Female,2020-11-19_15h59.41.444,torte-2b,2020.1.3,Win32,60,13217,,,,,,,,,,,,space,,,,,,7,1.20297,,,,,,,,,,,0,21,21,21,1,,,,,,,,,,,,,,,,,,,,,,,,,,,,,,,
,,,,,,,,,,,,,,,,,,,,,,,,20,Female,2020-11-19_15h59.41.444,torte-2b,2020.1.3,Win32,60,13217,,,,,,,,,,,,,,,,,,7,,,,,,,,,,,,0,22,22,22,1,,,,,,,,,,,,,,,,,,,,,,,,,,,,,,,
,,,,,,,,,,,,,,,,,,,,,,,,20,Female,2020-11-19_15h59.41.444,torte-2b,2020.1.3,Win32,60,13217,,,,,,,,,,,,,,,,,,1,,,,,,,,,,,,0,23,23,23,1,,,,,,,,,,,,,,,,,,,,,,,,,,,,,,,
,,,,,,,,,,,,,,,,,,,,,,,,20,Female,2020-11-19_15h59.41.444,torte-2b,2020.1.3,Win32,60,13217,,,,,,,,,,,,space,,,,,,7,0.296645,,,,,,,,,,,0,24,24,24,1,,,,,,,,,,,,,,,,,,,,,,,,,,,,,,,
,,,,,,,,,,,,,,,,,,,,,,,,20,Female,2020-11-19_15h59.41.444,torte-2b,2020.1.3,Win32,60,13217,,,,,,,,,,,,,,,,,,1,,,,,,,,,,,,0,25,25,25,1,,,,,,,,,,,,,,,,,,,,,,,,,,,,,,,
,,,,,,,,,,,,,,,,,,,,,,,,20,Female,2020-11-19_15h59.41.444,torte-2b,2020.1.3,Win32,60,13217,,,,,,,,,,,,space,,,,,,7,0.415115,,,,,,,,,,,0,26,26,26,1,,,,,,,,,,,,,,,,,,,,,,,,,,,,,,,
,,,,,,,,,,,,,,,,,,,,,,,,20,Female,2020-11-19_15h59.41.444,torte-2b,2020.1.3,Win32,60,13217,,,,,,,,,,,,,,,,,,2,,,,,,,,,,,,0,27,27,27,1,,,,,,,,,,,,,,,,,,,,,,,,,,,,,,,
,,,,,,,,,,,,,,,,,,,,,,,,20,Female,2020-11-19_15h59.41.444,torte-2b,2020.1.3,Win32,60,13217,,,,,,,,,,,,space,,,,,,5,1.796765,,,,,,,,,,,0,28,28,28,1,,,,,,,,,,,,,,,,,,,,,,,,,,,,,,,
,,,,,,,,,,,,,,,,,,,,,,,,20,Female,2020-11-19_15h59.41.444,torte-2b,2020.1.3,Win32,60,13217,,,,,,,,,,,,space,,,,,,5,0.88239,,,,,,,,,,,0,29,29,29,1,,,,,,,,,,,,,,,,,,,,,,,,,,,,,,,
,,,,,,,,,,,,,,,,,,,,,,,,20,Female,2020-11-19_15h59.41.444,torte-2b,2020.1.3,Win32,60,13217,,,,,,,,,,,,,,,,,,5,,,,,,,,,,,,0,30,30,30,1,,,,,,,,,,,,,,,,,,,,,,,,,,,,,,,
,,,,,,,,,,,,,,,,,,,,,,,,20,Female,2020-11-19_15h59.41.444,torte-2b,2020.1.3,Win32,60,13217,,,,,,,,,,,,space,,,,,,1,0.41403,,,,,,,,,,,0,31,31,31,1,,,,,,,,,,,,,,,,,,,,,,,,,,,,,,,
,,,,,,,,,,,,,,,,,,,,,,,,20,Female,2020-11-19_15h59.41.444,torte-2b,2020.1.3,Win32,60,13217,,,,,,,,,,,,,,,,,,5,,,,,,,,,,,,0,32,32,32,1,,,,,,,,,,,,,,,,,,,,,,,,,,,,,,,
,,,,,,,,,,,,,,,,,,,,,,,,20,Female,2020-11-19_15h59.41.444,torte-2b,2020.1.3,Win32,60,13217,,,,,,,,,,,,space,,,,,,3,0.38645,,,,,,,,,,,0,33,33,33,1,,,,,,,,,,,,,,,,,,,,,,,,,,,,,,,
,,,,,,,,,,,,,,,,,,,,,,,,20,Female,2020-11-19_15h59.41.444,torte-2b,2020.1.3,Win32,60,13217,,,,,,,,,,,,,,,,,,3,,,,,,,,,,,,0,34,34,34,1,,,,,,,,,,,,,,,,,,,,,,,,,,,,,,,
,,,,,,,,,,,,a,1.71255,Correct!,,,,,,t3.png,t2.png,1,0.90855,20,Female,2020-11-19_15h59.41.444,torte-2b,2020.1.3,Win32,60,13217,space,0.965805,,,,,,,,,,,,,,,,,,,,,,,,,,,,,,,,,space,437.17791,0,0,0,97,1,,,,,,,,,,,,,,,,,,,,,,,,
,,,,,,,,,,,,l,0.763715,Incorrect,,,,,,t4.png,t5.png,1,0.90025,20,Female,2020-11-19_15h59.41.444,torte-2b,2020.1.3,Win32,60,13217,,,,,,,,,,,,,,,,,,,,,,,,,,,,,,,,,,,,,0,1,1,103,1,,,,,,,,,,,,,,,,,,,,,,,,
,,,,,,,,,,,,a,1.183585,Incorrect,,,,,,t4.png,t2.png,2,0.0591,20,Female,2020-11-19_15h59.41.444,torte-2b,2020.1.3,Win32,60,13217,,,,,,,,,,,,,,,,,,,,,,,,,,,,,,,,,,,,,0,2,2,36,1,,,,,,,,,,,,,,,,,,,,,,,,
,,,,,,,,,,,,l,0.71406,Incorrect,,,,,,t3.png,t4.png,1,0.909,20,Female,2020-11-19_15h59.41.444,torte-2b,2020.1.3,Win32,60,13217,,,,,,,,,,,,,,,,,,,,,,,,,,,,,,,,,,,,,0,3,3,89,1,,,,,,,,,,,,,,,,,,,,,,,,
,,,,,,,,,,,,a,1.130475,Incorrect,,,,,,t5.png,t1.png,4,9.55E-11,20,Female,2020-11-19_15h59.41.444,torte-2b,2020.1.3,Win32,60,13217,,,,,,,,,,,,,,,,,,,,,,,,,,,,,,,,,,,,,0,4,4,43,1,,,,,,,,,,,,,,,,,,,,,,,,
,,,,,,,,,,,,l,0.58847,Incorrect,,,,,,t2.png,t3.png,1,0.90855,20,Female,2020-11-19_15h59.41.444,torte-2b,2020.1.3,Win32,60,13217,,,,,,,,,,,,,,,,,,,,,,,,,,,,,,,,,,,,,0,5,5,68,1,,,,,,,,,,,,,,,,,,,,,,,,
,,,,,,,,,,,,l,0.77067,Incorrect,,,,,,t4.png,t5.png,1,0.90025,20,Female,2020-11-19_15h59.41.444,torte-2b,2020.1.3,Win32,60,13217,,,,,,,,,,,,,,,,,,,,,,,,,,,,,,,,,,,,,0,6,6,47,1,,,,,,,,,,,,,,,,,,,,,,,,
,,,,,,,,,,,,a,1.6923,Correct!,,,,,,t5.png,t4.png,1,0.90025,20,Female,2020-11-19_15h59.41.444,torte-2b,2020.1.3,Win32,60,13217,,,,,,,,,,,,,,,,,,,,,,,,,,,,,,,,,,,,,0,7,7,27,1,,,,,,,,,,,,,,,,,,,,,,,,
,,,,,,,,,,,,a,1.298525,Incorrect,,,,,,t3.png,t1.png,2,0.056466,20,Female,2020-11-19_15h59.41.444,torte-2b,2020.1.3,Win32,60,13217,,,,,,,,,,,,,,,,,,,,,,,,,,,,,,,,,,,,,0,8,8,0,1,,,,,,,,,,,,,,,,,,,,,,,,
,,,,,,,,,,,,l,0.882665,Incorrect,,,,,,t4.png,t4.png,0,0.98115,20,Female,2020-11-19_15h59.41.444,torte-2b,2020.1.3,Win32,60,13217,,,,,,,,,,,,,,,,,,,,,,,,,,,,,,,,,,,,,0,9,9,21,1,,,,,,,,,,,,,,,,,,,,,,,,
,,,,,,,,,,,,l,0.802255,Incorrect,,,,,,t4.png,t4.png,0,0.98115,20,Female,2020-11-19_15h59.41.444,torte-2b,2020.1.3,Win32,60,13217,,,,,,,,,,,,,,,,,,,,,,,,,,,,,,,,,,,,,0,10,10,90,1,,,,,,,,,,,,,,,,,,,,,,,,
,,,,,,,,,,,,a,1.222435,Incorrect,,,,,,t4.png,t1.png,3,0.0000131,20,Female,2020-11-19_15h59.41.444,torte-2b,2020.1.3,Win32,60,13217,,,,,,,,,,,,,,,,,,,,,,,,,,,,,,,,,,,,,0,11,11,13,1,,,,,,,,,,,,,,,,,,,,,,,,
,,,,,,,,,,,,l,0.838735,Correct!,,,,,,t1.png,t3.png,2,0.056466,20,Female,2020-11-19_15h59.41.444,torte-2b,2020.1.3,Win32,60,13217,,,,,,,,,,,,,,,,,,,,,,,,,,,,,,,,,,,,,0,12,12,87,1,,,,,,,,,,,,,,,,,,,,,,,,
,,,,,,,,,,,,l,0.899325,Incorrect,,,,,,t4.png,t4.png,0,0.98115,20,Female,2020-11-19_15h59.41.444,torte-2b,2020.1.3,Win32,60,13217,,,,,,,,,,,,,,,,,,,,,,,,,,,,,,,,,,,,,0,13,13,52,1,,,,,,,,,,,,,,,,,,,,,,,,
,,,,,,,,,,,,a,1.418165,Correct!,,,,,,t5.png,t5.png,0,0.97829,20,Female,2020-11-19_15h59.41.444,torte-2b,2020.1.3,Win32,60,13217,,,,,,,,,,,,,,,,,,,,,,,,,,,,,,,,,,,,,0,14,14,73,1,,,,,,,,,,,,,,,,,,,,,,,,
,,,,,,,,,,,,l,0.641775,Correct!,,,,,,t3.png,t5.png,2,0.056466,20,Female,2020-11-19_15h59.41.444,torte-2b,2020.1.3,Win32,60,13217,,,,,,,,,,,,,,,,,,,,,,,,,,,,,,,,,,,,,0,15,15,44,1,,,,,,,,,,,,,,,,,,,,,,,,
,,,,,,,,,,,,l,0.718535,Correct!,,,,,,t1.png,t4.png,3,0.0000131,20,Female,2020-11-19_15h59.41.444,torte-2b,2020.1.3,Win32,60,13217,,,,,,,,,,,,,,,,,,,,,,,,,,,,,,,,,,,,,0,16,16,81,1,,,,,,,,,,,,,,,,,,,,,,,,
,,,,,,,,,,,,a,0.530705,Incorrect,,,,,,t4.png,t1.png,3,0.0000131,20,Female,2020-11-19_15h59.41.444,torte-2b,2020.1.3,Win32,60,13217,,,,,,,,,,,,,,,,,,,,,,,,,,,,,,,,,,,,,0,17,17,42,1,,,,,,,,,,,,,,,,,,,,,,,,
,,,,,,,,,,,,l,0.4189,Correct!,,,,,,t3.png,t5.png,2,0.0565,20,Female,2020-11-19_15h59.41.444,torte-2b,2020.1.3,Win32,60,13217,,,,,,,,,,,,,,,,,,,,,,,,,,,,,,,,,,,,,0,18,18,30,1,,,,,,,,,,,,,,,,,,,,,,,,
,,,,,,,,,,,,a,0.797895,Incorrect,,,,,,t5.png,t2.png,3,0.0000131,20,Female,2020-11-19_15h59.41.444,torte-2b,2020.1.3,Win32,60,13217,,,,,,,,,,,,,,,,,,,,,,,,,,,,,,,,,,,,,0,19,19,98,1,,,,,,,,,,,,,,,,,,,,,,,,
,,,,,,,,,,,,l,1.0704,Incorrect,,,,,,t2.png,t2.png,0,0.98115,20,Female,2020-11-19_15h59.41.444,torte-2b,2020.1.3,Win32,60,13217,,,,,,,,,,,,,,,,,,,,,,,,,,,,,,,,,,,,,0,20,20,57,1,,,,,,,,,,,,,,,,,,,,,,,,
,,,,,,,,,,,,l,0.48492,Correct!,,,,,,t1.png,t5.png,4,9.55E-11,20,Female,2020-11-19_15h59.41.444,torte-2b,2020.1.3,Win32,60,13217,,,,,,,,,,,,,,,,,,,,,,,,,,,,,,,,,,,,,0,21,21,16,1,,,,,,,,,,,,,,,,,,,,,,,,
,,,,,,,,,,,,l,0.607215,Correct!,,,,,,t2.png,t5.png,3,0.0000131,20,Female,2020-11-19_15h59.41.444,torte-2b,2020.1.3,Win32,60,13217,,,,,,,,,,,,,,,,,,,,,,,,,,,,,,,,,,,,,0,22,22,66,1,,,,,,,,,,,,,,,,,,,,,,,,
,,,,,,,,,,,,a,0.62164,Correct!,,,,,,t2.png,t2.png,0,0.981,20,Female,2020-11-19_15h59.41.444,torte-2b,2020.1.3,Win32,60,13217,,,,,,,,,,,,,,,,,,,,,,,,,,,,,,,,,,,,,0,23,23,101,1,,,,,,,,,,,,,,,,,,,,,,,,
,,,,,,,,,,,,a,0.98131,Incorrect,,,,,,t3.png,t1.png,2,0.0565,20,Female,2020-11-19_15h59.41.444,torte-2b,2020.1.3,Win32,60,13217,,,,,,,,,,,,,,,,,,,,,,,,,,,,,,,,,,,,,0,24,24,31,1,,,,,,,,,,,,,,,,,,,,,,,,
,,,,,,,,,,,,l,0.59253,Incorrect,,,,,,t2.png,t3.png,1,0.90855,20,Female,2020-11-19_15h59.41.444,torte-2b,2020.1.3,Win32,60,13217,,,,,,,,,,,,,,,,,,,,,,,,,,,,,,,,,,,,,0,25,25,65,1,,,,,,,,,,,,,,,,,,,,,,,,
,,,,,,,,,,,,l,0.475855,Correct!,,,,,,t2.png,t4.png,2,0.059078,20,Female,2020-11-19_15h59.41.444,torte-2b,2020.1.3,Win32,60,13217,,,,,,,,,,,,,,,,,,,,,,,,,,,,,,,,,,,,,0,26,26,24,1,,,,,,,,,,,,,,,,,,,,,,,,
,,,,,,,,,,,,a,0.41954,Incorrect,,,,,,t5.png,t1.png,4,9.55E-11,20,Female,2020-11-19_15h59.41.444,torte-2b,2020.1.3,Win32,60,13217,,,,,,,,,,,,,,,,,,,,,,,,,,,,,,,,,,,,,0,27,27,71,1,,,,,,,,,,,,,,,,,,,,,,,,
,,,,,,,,,,,,l,0.793425,Incorrect,,,,,,t4.png,t5.png,1,0.9,20,Female,2020-11-19_15h59.41.444,torte-2b,2020.1.3,Win32,60,13217,,,,,,,,,,,,,,,,,,,,,,,,,,,,,,,,,,,,,0,28,28,115,1,,,,,,,,,,,,,,,,,,,,,,,,
,,,,,,,,,,,,l,0.8479,Incorrect,,,,,,t5.png,t4.png,1,0.9,20,Female,2020-11-19_15h59.41.444,torte-2b,2020.1.3,Win32,60,13217,,,,,,,,,,,,,,,,,,,,,,,,,,,,,,,,,,,,,0,29,29,76,1,,,,,,,,,,,,,,,,,,,,,,,,
,,,,,,,,,,,,l,0.63145,Incorrect,,,,,,t1.png,t1.png,0,0.978,20,Female,2020-11-19_15h59.41.444,torte-2b,2020.1.3,Win32,60,13217,,,,,,,,,,,,,,,,,,,,,,,,,,,,,,,,,,,,,0,30,30,28,1,,,,,,,,,,,,,,,,,,,,,,,,
,,,,,,,,,,,,l,0.636255,Correct!,,,,,,t1.png,t4.png,3,0.0000131,20,Female,2020-11-19_15h59.41.444,torte-2b,2020.1.3,Win32,60,13217,,,,,,,,,,,,,,,,,,,,,,,,,,,,,,,,,,,,,0,31,31,50,1,,,,,,,,,,,,,,,,,,,,,,,,
,,,,,,,,,,,,l,0.53732,Correct!,,,,,,t1.png,t5.png,4,9.55E-11,20,Female,2020-11-19_15h59.41.444,torte-2b,2020.1.3,Win32,60,13217,,,,,,,,,,,,,,,,,,,,,,,,,,,,,,,,,,,,,0,32,32,55,1,,,,,,,,,,,,,,,,,,,,,,,,
,,,,,,,,,,,,l,1.35719,Correct!,,,,,,t3.png,t4.png,1,0.909,20,Female,2020-11-19_15h59.41.444,torte-2b,2020.1.3,Win32,60,13217,,,,,,,,,,,,,,,,,,,,,,,,,,,,,,,,,,,,,0,33,33,82,1,,,,,,,,,,,,,,,,,,,,,,,,
,,,,,,,,,,,,a,1.08254,Correct!,,,,,,t5.png,t4.png,1,0.90025,20,Female,2020-11-19_15h59.41.444,torte-2b,2020.1.3,Win32,60,13217,,,,,,,,,,,,,,,,,,,,,,,,,,,,,,,,,,,,,0,34,34,34,1,,,,,,,,,,,,,,,,,,,,,,,,
,,,,,,,,,,,,a,0.59826,Incorrect,,,,,,t3.png,t1.png,2,0.056466,20,Female,2020-11-19_15h59.41.444,torte-2b,2020.1.3,Win32,60,13217,,,,,,,,,,,,,,,,,,,,,,,,,,,,,,,,,,,,,0,35,35,64,1,,,,,,,,,,,,,,,,,,,,,,,,
,,,,,,,,,,,,a,0.564685,Incorrect,,,,,,t5.png,t2.png,3,0.0000131,20,Female,2020-11-19_15h59.41.444,torte-2b,2020.1.3,Win32,60,13217,,,,,,,,,,,,,,,,,,,,,,,,,,,,,,,,,,,,,0,36,36,91,1,,,,,,,,,,,,,,,,,,,,,,,,
,,,,,,,,,,,,a,0.51787,Incorrect,,,,,,t4.png,t1.png,3,0.0000131,20,Female,2020-11-19_15h59.41.444,torte-2b,2020.1.3,Win32,60,13217,,,,,,,,,,,,,,,,,,,,,,,,,,,,,,,,,,,,,0,37,37,48,1,,,,,,,,,,,,,,,,,,,,,,,,
,,,,,,,,,,,,a,1.858365,Correct!,,,,,,t2.png,t2.png,0,0.98115,20,Female,2020-11-19_15h59.41.444,torte-2b,2020.1.3,Win32,60,13217,,,,,,,,,,,,,,,,,,,,,,,,,,,,,,,,,,,,,0,38,38,59,1,,,,,,,,,,,,,,,,,,,,,,,,
,,,,,,,,,,,,a,0.867325,Incorrect,,,,,,t4.png,t1.png,3,0.0000131,20,Female,2020-11-19_15h59.41.444,torte-2b,2020.1.3,Win32,60,13217,,,,,,,,,,,,,,,,,,,,,,,,,,,,,,,,,,,,,0,39,39,61,1,,,,,,,,,,,,,,,,,,,,,,,,
,,,,,,,,,,,,a,0.683235,Correct!,,,,,,t4.png,t2.png,2,0.059078,20,Female,2020-11-19_15h59.41.444,torte-2b,2020.1.3,Win32,60,13217,,,,,,,,,,,,,,,,,,,,,,,,,,,,,,,,,,,,,0,40,40,110,1,,,,,,,,,,,,,,,,,,,,,,,,
,,,,,,,,,,,,a,0.93204,Correct!,,,,,,t3.png,t1.png,2,0.056466,20,Female,2020-11-19_15h59.41.444,torte-2b,2020.1.3,Win32,60,13217,,,,,,,,,,,,,,,,,,,,,,,,,,,,,,,,,,,,,0,41,41,32,1,,,,,,,,,,,,,,,,,,,,,,,,
,,,,,,,,,,,,l,0.650205,Incorrect,,,,,,t2.png,t3.png,1,0.90855,20,Female,2020-11-19_15h59.41.444,torte-2b,2020.1.3,Win32,60,13217,,,,,,,,,,,,,,,,,,,,,,,,,,,,,,,,,,,,,0,42,42,10,1,,,,,,,,,,,,,,,,,,,,,,,,
,,,,,,,,,,,,l,1.14773,Incorrect,,,,,,t2.png,t3.png,1,0.90855,20,Female,2020-11-19_15h59.41.444,torte-2b,2020.1.3,Win32,60,13217,,,,,,,,,,,,,,,,,,,,,,,,,,,,,,,,,,,,,0,43,43,111,1,,,,,,,,,,,,,,,,,,,,,,,,
,,,,,,,,,,,,l,0.49018,Correct!,,,,,,t1.png,t3.png,2,0.056466,20,Female,2020-11-19_15h59.41.444,torte-2b,2020.1.3,Win32,60,13217,,,,,,,,,,,,,,,,,,,,,,,,,,,,,,,,,,,,,0,44,44,63,1,,,,,,,,,,,,,,,,,,,,,,,,
,,,,,,,,,,,,a,0.480865,Correct!,,,,,,t3.png,t2.png,1,0.90855,20,Female,2020-11-19_15h59.41.444,torte-2b,2020.1.3,Win32,60,13217,,,,,,,,,,,,,,,,,,,,,,,,,,,,,,,,,,,,,0,45,45,18,1,,,,,,,,,,,,,,,,,,,,,,,,
,,,,,,,,,,,,l,0.573655,Incorrect,,,,,,t1.png,t1.png,0,0.97829,20,Female,2020-11-19_15h59.41.444,torte-2b,2020.1.3,Win32,60,13217,,,,,,,,,,,,,,,,,,,,,,,,,,,,,,,,,,,,,0,46,46,67,1,,,,,,,,,,,,,,,,,,,,,,,,
,,,,,,,,,,,,l,0.782395,Incorrect,,,,,,t4.png,t3.png,1,0.90855,20,Female,2020-11-19_15h59.41.444,torte-2b,2020.1.3,Win32,60,13217,,,,,,,,,,,,,,,,,,,,,,,,,,,,,,,,,,,,,0,47,47,45,1,,,,,,,,,,,,,,,,,,,,,,,,
,,,,,,,,,,,,a,1.1014,Correct!,,,,,,t1.png,t1.png,0,0.97829,20,Female,2020-11-19_15h59.41.444,torte-2b,2020.1.3,Win32,60,13217,,,,,,,,,,,,,,,,,,,,,,,,,,,,,,,,,,,,,0,48,48,78,1,,,,,,,,,,,,,,,,,,,,,,,,
,,,,,,,,,,,,l,0.78192,Incorrect,,,,,,t5.png,t5.png,0,0.97829,20,Female,2020-11-19_15h59.41.444,torte-2b,2020.1.3,Win32,60,13217,,,,,,,,,,,,,,,,,,,,,,,,,,,,,,,,,,,,,0,49,49,94,1,,,,,,,,,,,,,,,,,,,,,,,,
,,,,,,,,,,,,a,0.93096,Incorrect,,,,,,t5.png,t2.png,3,0.0000131,20,Female,2020-11-19_15h59.41.444,torte-2b,2020.1.3,Win32,60,13217,,,,,,,,,,,,,,,,,,,,,,,,,,,,,,,,,,,,,0,50,50,116,1,,,,,,,,,,,,,,,,,,,,,,,,
,,,,,,,,,,,,a,1.108215,Incorrect,,,,,,t5.png,t3.png,2,0.056466,20,Female,2020-11-19_15h59.41.444,torte-2b,2020.1.3,Win32,60,13217,,,,,,,,,,,,,,,,,,,,,,,,,,,,,,,,,,,,,0,51,51,108,1,,,,,,,,,,,,,,,,,,,,,,,,
,,,,,,,,,,,,a,1.386035,Incorrect,,,,,,t5.png,t1.png,4,9.55E-11,20,Female,2020-11-19_15h59.41.444,torte-2b,2020.1.3,Win32,60,13217,,,,,,,,,,,,,,,,,,,,,,,,,,,,,,,,,,,,,0,52,52,102,1,,,,,,,,,,,,,,,,,,,,,,,,
,,,,,,,,,,,,l,0.468725,Incorrect,,,,,,t5.png,t5.png,0,0.97829,20,Female,2020-11-19_15h59.41.444,torte-2b,2020.1.3,Win32,60,13217,,,,,,,,,,,,,,,,,,,,,,,,,,,,,,,,,,,,,0,53,53,25,1,,,,,,,,,,,,,,,,,,,,,,,,
,,,,,,,,,,,,a,0.398025,Correct!,,,,,,t4.png,t3.png,1,0.90855,20,Female,2020-11-19_15h59.41.444,torte-2b,2020.1.3,Win32,60,13217,,,,,,,,,,,,,,,,,,,,,,,,,,,,,,,,,,,,,0,54,54,35,1,,,,,,,,,,,,,,,,,,,,,,,,
,,,,,,,,,,,,l,0.34764,Correct!,,,,,,t1.png,t3.png,2,0.056466,20,Female,2020-11-19_15h59.41.444,torte-2b,2020.1.3,Win32,60,13217,,,,,,,,,,,,,,,,,,,,,,,,,,,,,,,,,,,,,0,55,55,60,1,,,,,,,,,,,,,,,,,,,,,,,,
,,,,,,,,,,,,l,0.41481,Incorrect,,,,,,t1.png,t2.png,1,0.90025,20,Female,2020-11-19_15h59.41.444,torte-2b,2020.1.3,Win32,60,13217,,,,,,,,,,,,,,,,,,,,,,,,,,,,,,,,,,,,,0,56,56,33,1,,,,,,,,,,,,,,,,,,,,,,,,
,,,,,,,,,,,,l,0.357545,Correct!,,,,,,t2.png,t4.png,2,0.0591,20,Female,2020-11-19_15h59.41.444,torte-2b,2020.1.3,Win32,60,13217,,,,,,,,,,,,,,,,,,,,,,,,,,,,,,,,,,,,,0,57,57,15,1,,,,,,,,,,,,,,,,,,,,,,,,
,,,,,,,,,,,,l,0.339815,Incorrect,,,,,,t1.png,t2.png,1,0.90025,20,Female,2020-11-19_15h59.41.444,torte-2b,2020.1.3,Win32,60,13217,,,,,,,,,,,,,,,,,,,,,,,,,,,,,,,,,,,,,0,58,58,112,1,,,,,,,,,,,,,,,,,,,,,,,,
,,,,,,,,,,,,a,0.824605,Correct!,,,,,,t3.png,t2.png,1,0.909,20,Female,2020-11-19_15h59.41.444,torte-2b,2020.1.3,Win32,60,13217,,,,,,,,,,,,,,,,,,,,,,,,,,,,,,,,,,,,,0,59,59,23,1,,,,,,,,,,,,,,,,,,,,,,,,
,,,,,,,,,,,,l,0.564905,Incorrect,,,,,,t1.png,t1.png,0,0.978,20,Female,2020-11-19_15h59.41.444,torte-2b,2020.1.3,Win32,60,13217,,,,,,,,,,,,,,,,,,,,,,,,,,,,,,,,,,,,,0,60,60,54,1,,,,,,,,,,,,,,,,,,,,,,,,
,,,,,,,,,,,,a,0.90559,Correct!,,,,,,t4.png,t5.png,1,0.90025,20,Female,2020-11-19_15h59.41.444,torte-2b,2020.1.3,Win32,60,13217,,,,,,,,,,,,,,,,,,,,,,,,,,,,,,,,,,,,,0,61,61,58,1,,,,,,,,,,,,,,,,,,,,,,,,
,,,,,,,,,,,,l,0.397415,Incorrect,,,,,,t5.png,t5.png,0,0.978,20,Female,2020-11-19_15h59.41.444,torte-2b,2020.1.3,Win32,60,13217,,,,,,,,,,,,,,,,,,,,,,,,,,,,,,,,,,,,,0,62,62,117,1,,,,,,,,,,,,,,,,,,,,,,,,
,,,,,,,,,,,,a,0.70625,Incorrect,,,,,,t4.png,t2.png,2,0.059078,20,Female,2020-11-19_15h59.41.444,torte-2b,2020.1.3,Win32,60,13217,,,,,,,,,,,,,,,,,,,,,,,,,,,,,,,,,,,,,0,63,63,86,1,,,,,,,,,,,,,,,,,,,,,,,,
,,,,,,,,,,,,a,0.638205,Incorrect,,,,,,t5.png,t3.png,2,0.056466,20,Female,2020-11-19_15h59.41.444,torte-2b,2020.1.3,Win32,60,13217,,,,,,,,,,,,,,,,,,,,,,,,,,,,,,,,,,,,,0,64,64,114,1,,,,,,,,,,,,,,,,,,,,,,,,
,,,,,,,,,,,,l,0.63319,Incorrect,,,,,,t3.png,t2.png,1,0.909,20,Female,2020-11-19_15h59.41.444,torte-2b,2020.1.3,Win32,60,13217,,,,,,,,,,,,,,,,,,,,,,,,,,,,,,,,,,,,,0,65,65,3,1,,,,,,,,,,,,,,,,,,,,,,,,
,,,,,,,,,,,,l,0.485065,Correct!,,,,,,t2.png,t4.png,2,0.059078,20,Female,2020-11-19_15h59.41.444,torte-2b,2020.1.3,Win32,60,13217,,,,,,,,,,,,,,,,,,,,,,,,,,,,,,,,,,,,,0,66,66,11,1,,,,,,,,,,,,,,,,,,,,,,,,
,,,,,,,,,,,,l,0.62337,Correct!,,,,,,t3.png,t5.png,2,0.056466,20,Female,2020-11-19_15h59.41.444,torte-2b,2020.1.3,Win32,60,13217,,,,,,,,,,,,,,,,,,,,,,,,,,,,,,,,,,,,,0,67,67,6,1,,,,,,,,,,,,,,,,,,,,,,,,
,,,,,,,,,,,,a,0.456475,Incorrect,,,,,,t4.png,t2.png,2,0.059078,20,Female,2020-11-19_15h59.41.444,torte-2b,2020.1.3,Win32,60,13217,,,,,,,,,,,,,,,,,,,,,,,,,,,,,,,,,,,,,0,68,68,88,1,,,,,,,,,,,,,,,,,,,,,,,,
,,,,,,,,,,,,a,0.522125,Incorrect,,,,,,t5.png,t1.png,4,9.55E-11,20,Female,2020-11-19_15h59.41.444,torte-2b,2020.1.3,Win32,60,13217,,,,,,,,,,,,,,,,,,,,,,,,,,,,,,,,,,,,,0,69,69,100,1,,,,,,,,,,,,,,,,,,,,,,,,
,,,,,,,,,,,,l,0.439805,Correct!,,,,,,t2.png,t4.png,2,0.059078,20,Female,2020-11-19_15h59.41.444,torte-2b,2020.1.3,Win32,60,13217,,,,,,,,,,,,,,,,,,,,,,,,,,,,,,,,,,,,,0,70,70,37,1,,,,,,,,,,,,,,,,,,,,,,,,
,,,,,,,,,,,,l,0.623635,Correct!,,,,,,t2.png,t5.png,3,0.0000131,20,Female,2020-11-19_15h59.41.444,torte-2b,2020.1.3,Win32,60,13217,,,,,,,,,,,,,,,,,,,,,,,,,,,,,,,,,,,,,0,71,71,8,1,,,,,,,,,,,,,,,,,,,,,,,,
,,,,,,,,,,,,l,0.91607,Incorrect,,,,,,t5.png,t5.png,0,0.97829,20,Female,2020-11-19_15h59.41.444,torte-2b,2020.1.3,Win32,60,13217,,,,,,,,,,,,,,,,,,,,,,,,,,,,,,,,,,,,,0,72,72,70,1,,,,,,,,,,,,,,,,,,,,,,,,
,,,,,,,,,,,,a,0.45975,Incorrect,,,,,,t3.png,t1.png,2,0.056466,20,Female,2020-11-19_15h59.41.444,torte-2b,2020.1.3,Win32,60,13217,,,,,,,,,,,,,,,,,,,,,,,,,,,,,,,,,,,,,0,73,73,29,1,,,,,,,,,,,,,,,,,,,,,,,,
,,,,,,,,,,,,a,0.564695,Correct!,,,,,,t2.png,t1.png,1,0.9,20,Female,2020-11-19_15h59.41.444,torte-2b,2020.1.3,Win32,60,13217,,,,,,,,,,,,,,,,,,,,,,,,,,,,,,,,,,,,,0,74,74,118,1,,,,,,,,,,,,,,,,,,,,,,,,
,,,,,,,,,,,,l,1.49803,Incorrect,,,,,,t2.png,t1.png,1,0.90025,20,Female,2020-11-19_15h59.41.444,torte-2b,2020.1.3,Win32,60,13217,,,,,,,,,,,,,,,,,,,,,,,,,,,,,,,,,,,,,0,75,75,19,1,,,,,,,,,,,,,,,,,,,,,,,,
,,,,,,,,,,,,a,1.06583,Correct!,,,,,,t2.png,t2.png,0,0.98115,20,Female,2020-11-19_15h59.41.444,torte-2b,2020.1.3,Win32,60,13217,,,,,,,,,,,,,,,,,,,,,,,,,,,,,,,,,,,,,0,76,76,2,1,,,,,,,,,,,,,,,,,,,,,,,,
,,,,,,,,,,,,l,1.15496,Incorrect,,,,,,t3.png,t2.png,1,0.90855,20,Female,2020-11-19_15h59.41.444,torte-2b,2020.1.3,Win32,60,13217,,,,,,,,,,,,,,,,,,,,,,,,,,,,,,,,,,,,,0,77,77,53,1,,,,,,,,,,,,,,,,,,,,,,,,
,,,,,,,,,,,,l,1.14801,Correct!,,,,,,t2.png,t5.png,3,0.0000131,20,Female,2020-11-19_15h59.41.444,torte-2b,2020.1.3,Win32,60,13217,,,,,,,,,,,,,,,,,,,,,,,,,,,,,,,,,,,,,0,78,78,40,1,,,,,,,,,,,,,,,,,,,,,,,,
,,,,,,,,,,,,a,0.66855,Incorrect,,,,,,t1.png,t5.png,4,9.55E-11,20,Female,2020-11-19_15h59.41.444,torte-2b,2020.1.3,Win32,60,13217,,,,,,,,,,,,,,,,,,,,,,,,,,,,,,,,,,,,,0,79,79,85,1,,,,,,,,,,,,,,,,,,,,,,,,
,,,,,,,,,,,,l,2.13677,Incorrect,,,,,,t3.png,t4.png,1,0.909,20,Female,2020-11-19_15h59.41.444,torte-2b,2020.1.3,Win32,60,13217,,,,,,,,,,,,,,,,,,,,,,,,,,,,,,,,,,,,,0,80,80,106,1,,,,,,,,,,,,,,,,,,,,,,,,
,,,,,,,,,,,,a,1.564365,Incorrect,,,,,,t5.png,t2.png,3,0.0000131,20,Female,2020-11-19_15h59.41.444,torte-2b,2020.1.3,Win32,60,13217,,,,,,,,,,,,,,,,,,,,,,,,,,,,,,,,,,,,,0,81,81,119,1,,,,,,,,,,,,,,,,,,,,,,,,
,,,,,,,,,,,,l,0.36507,Incorrect,,,,,,t2.png,t1.png,1,0.90025,20,Female,2020-11-19_15h59.41.444,torte-2b,2020.1.3,Win32,60,13217,,,,,,,,,,,,,,,,,,,,,,,,,,,,,,,,,,,,,0,82,82,4,1,,,,,,,,,,,,,,,,,,,,,,,,
,,,,,,,,,,,,l,0.309915,Correct!,,,,,,t1.png,t5.png,4,9.55E-11,20,Female,2020-11-19_15h59.41.444,torte-2b,2020.1.3,Win32,60,13217,,,,,,,,,,,,,,,,,,,,,,,,,,,,,,,,,,,,,0,83,83,41,1,,,,,,,,,,,,,,,,,,,,,,,,
,,,,,,,,,,,,l,0.71713,Incorrect,,,,,,t4.png,t3.png,1,0.909,20,Female,2020-11-19_15h59.41.444,torte-2b,2020.1.3,Win32,60,13217,,,,,,,,,,,,,,,,,,,,,,,,,,,,,,,,,,,,,0,84,84,20,1,,,,,,,,,,,,,,,,,,,,,,,,
,,,,,,,,,,,,a,0.522865,Correct!,,,,,,t5.png,t3.png,2,0.056466,20,Female,2020-11-19_15h59.41.444,torte-2b,2020.1.3,Win32,60,13217,,,,,,,,,,,,,,,,,,,,,,,,,,,,,,,,,,,,,0,85,85,56,1,,,,,,,,,,,,,,,,,,,,,,,,
,,,,,,,,,,,,a,0.881615,Correct!,,,,,,t2.png,t2.png,0,0.98115,20,Female,2020-11-19_15h59.41.444,torte-2b,2020.1.3,Win32,60,13217,,,,,,,,,,,,,,,,,,,,,,,,,,,,,,,,,,,,,0,86,86,7,1,,,,,,,,,,,,,,,,,,,,,,,,
,,,,,,,,,,,,l,0.451775,Correct!,,,,,,t1.png,t4.png,3,0.0000131,20,Female,2020-11-19_15h59.41.444,torte-2b,2020.1.3,Win32,60,13217,,,,,,,,,,,,,,,,,,,,,,,,,,,,,,,,,,,,,0,87,87,107,1,,,,,,,,,,,,,,,,,,,,,,,,
,,,,,,,,,,,,l,0.56734,Incorrect,,,,,,t4.png,t4.png,0,0.98115,20,Female,2020-11-19_15h59.41.444,torte-2b,2020.1.3,Win32,60,13217,,,,,,,,,,,,,,,,,,,,,,,,,,,,,,,,,,,,,0,88,88,80,1,,,,,,,,,,,,,,,,,,,,,,,,
,,,,,,,,,,,,l,0.89924,Correct!,,,,,,t2.png,t5.png,3,0.0000131,20,Female,2020-11-19_15h59.41.444,torte-2b,2020.1.3,Win32,60,13217,,,,,,,,,,,,,,,,,,,,,,,,,,,,,,,,,,,,,0,89,89,95,1,,,,,,,,,,,,,,,,,,,,,,,,
,,,,,,,,,,,,l,0.381955,Incorrect,,,,,,t3.png,t4.png,1,0.90855,20,Female,2020-11-19_15h59.41.444,torte-2b,2020.1.3,Win32,60,13217,,,,,,,,,,,,,,,,,,,,,,,,,,,,,,,,,,,,,0,90,90,96,1,,,,,,,,,,,,,,,,,,,,,,,,
,,,,,,,,,,,,l,0.390285,Correct!,,,,,,t1.png,t4.png,3,0.0000131,20,Female,2020-11-19_15h59.41.444,torte-2b,2020.1.3,Win32,60,13217,,,,,,,,,,,,,,,,,,,,,,,,,,,,,,,,,,,,,0,91,91,17,1,,,,,,,,,,,,,,,,,,,,,,,,
,,,,,,,,,,,,a,0.54888,Incorrect,,,,,,t5.png,t2.png,3,0.0000131,20,Female,2020-11-19_15h59.41.444,torte-2b,2020.1.3,Win32,60,13217,,,,,,,,,,,,,,,,,,,,,,,,,,,,,,,,,,,,,0,92,92,51,1,,,,,,,,,,,,,,,,,,,,,,,,
,,,,,,,,,,,,a,0.831245,Correct!,,,,,,t4.png,t3.png,1,0.909,20,Female,2020-11-19_15h59.41.444,torte-2b,2020.1.3,Win32,60,13217,,,,,,,,,,,,,,,,,,,,,,,,,,,,,,,,,,,,,0,93,93,46,1,,,,,,,,,,,,,,,,,,,,,,,,
,,,,,,,,,,,,l,1.88171,Correct!,,,,,,t1.png,t4.png,3,0.0000131,20,Female,2020-11-19_15h59.41.444,torte-2b,2020.1.3,Win32,60,13217,,,,,,,,,,,,,,,,,,,,,,,,,,,,,,,,,,,,,0,94,94,92,1,,,,,,,,,,,,,,,,,,,,,,,,
,,,,,,,,,,,,a,1.84037,Correct!,,,,,,t4.png,t3.png,1,0.90855,20,Female,2020-11-19_15h59.41.444,torte-2b,2020.1.3,Win32,60,13217,,,,,,,,,,,,,,,,,,,,,,,,,,,,,,,,,,,,,0,95,95,75,1,,,,,,,,,,,,,,,,,,,,,,,,
,,,,,,,,,,,,l,0.9496,Incorrect,,,,,,t2.png,t3.png,1,0.909,20,Female,2020-11-19_15h59.41.444,torte-2b,2020.1.3,Win32,60,13217,,,,,,,,,,,,,,,,,,,,,,,,,,,,,,,,,,,,,0,96,96,74,1,,,,,,,,,,,,,,,,,,,,,,,,
,,,,,,,,,,,,l,0.55649,Correct!,,,,,,t1.png,t5.png,4,9.55E-11,20,Female,2020-11-19_15h59.41.444,torte-2b,2020.1.3,Win32,60,13217,,,,,,,,,,,,,,,,,,,,,,,,,,,,,,,,,,,,,0,97,97,12,1,,,,,,,,,,,,,,,,,,,,,,,,
,,,,,,,,,,,,a,1.13419,Incorrect,,,,,,t5.png,t3.png,2,0.056466,20,Female,2020-11-19_15h59.41.444,torte-2b,2020.1.3,Win32,60,13217,,,,,,,,,,,,,,,,,,,,,,,,,,,,,,,,,,,,,0,98,98,38,1,,,,,,,,,,,,,,,,,,,,,,,,
,,,,,,,,,,,,l,0.870685,Incorrect,,,,,,t1.png,t2.png,1,0.9,20,Female,2020-11-19_15h59.41.444,torte-2b,2020.1.3,Win32,60,13217,,,,,,,,,,,,,,,,,,,,,,,,,,,,,,,,,,,,,0,99,99,1,1,,,,,,,,,,,,,,,,,,,,,,,,
,,,,,,,,,,,,l,1.49846,Incorrect,,,,,,t1.png,t1.png,0,0.97829,20,Female,2020-11-19_15h59.41.444,torte-2b,2020.1.3,Win32,60,13217,,,,,,,,,,,,,,,,,,,,,,,,,,,,,,,,,,,,,0,100,100,9,1,,,,,,,,,,,,,,,,,,,,,,,,
,,,,,,,,,,,,a,2.107875,Incorrect,,,,,,t2.png,t1.png,1,0.90025,20,Female,2020-11-19_15h59.41.444,torte-2b,2020.1.3,Win32,60,13217,,,,,,,,,,,,,,,,,,,,,,,,,,,,,,,,,,,,,0,101,101,5,1,,,,,,,,,,,,,,,,,,,,,,,,
,,,,,,,,,,,,a,1.155025,Correct!,,,,,,t5.png,t4.png,1,0.90025,20,Female,2020-11-19_15h59.41.444,torte-2b,2020.1.3,Win32,60,13217,,,,,,,,,,,,,,,,,,,,,,,,,,,,,,,,,,,,,0,102,102,26,1,,,,,,,,,,,,,,,,,,,,,,,,
,,,,,,,,,,,,l,1.46491,Correct!,,,,,,t2.png,t4.png,2,0.059078,20,Female,2020-11-19_15h59.41.444,torte-2b,2020.1.3,Win32,60,13217,,,,,,,,,,,,,,,,,,,,,,,,,,,,,,,,,,,,,0,103,103,77,1,,,,,,,,,,,,,,,,,,,,,,,,
,,,,,,,,,,,,l,0.40712,Correct!,,,,,,t1.png,t3.png,2,0.056466,20,Female,2020-11-19_15h59.41.444,torte-2b,2020.1.3,Win32,60,13217,,,,,,,,,,,,,,,,,,,,,,,,,,,,,,,,,,,,,0,104,104,69,1,,,,,,,,,,,,,,,,,,,,,,,,
,,,,,,,,,,,,l,0.437995,Incorrect,,,,,,t3.png,t4.png,1,0.90855,20,Female,2020-11-19_15h59.41.444,torte-2b,2020.1.3,Win32,60,13217,,,,,,,,,,,,,,,,,,,,,,,,,,,,,,,,,,,,,0,105,105,84,1,,,,,,,,,,,,,,,,,,,,,,,,
,,,,,,,,,,,,l,0.49038,Correct!,,,,,,t1.png,t3.png,2,0.056466,20,Female,2020-11-19_15h59.41.444,torte-2b,2020.1.3,Win32,60,13217,,,,,,,,,,,,,,,,,,,,,,,,,,,,,,,,,,,,,0,106,106,99,1,,,,,,,,,,,,,,,,,,,,,,,,
,,,,,,,,,,,,a,1.0749,Correct!,,,,,,t4.png,t4.png,0,0.98115,20,Female,2020-11-19_15h59.41.444,torte-2b,2020.1.3,Win32,60,13217,,,,,,,,,,,,,,,,,,,,,,,,,,,,,,,,,,,,,0,107,107,79,1,,,,,,,,,,,,,,,,,,,,,,,,
,,,,,,,,,,,,l,0.33905,Correct!,,,,,,t2.png,t5.png,3,0.0000131,20,Female,2020-11-19_15h59.41.444,torte-2b,2020.1.3,Win32,60,13217,,,,,,,,,,,,,,,,,,,,,,,,,,,,,,,,,,,,,0,108,108,104,1,,,,,,,,,,,,,,,,,,,,,,,,
,,,,,,,,,,,,l,0.865245,Incorrect,,,,,,t4.png,t5.png,1,0.90025,20,Female,2020-11-19_15h59.41.444,torte-2b,2020.1.3,Win32,60,13217,,,,,,,,,,,,,,,,,,,,,,,,,,,,,,,,,,,,,0,109,109,113,1,,,,,,,,,,,,,,,,,,,,,,,,
,,,,,,,,,,,,a,0.44256,Correct!,,,,,,t5.png,t4.png,1,0.9,20,Female,2020-11-19_15h59.41.444,torte-2b,2020.1.3,Win32,60,13217,,,,,,,,,,,,,,,,,,,,,,,,,,,,,,,,,,,,,0,110,110,49,1,,,,,,,,,,,,,,,,,,,,,,,,
,,,,,,,,,,,,a,0.7199,Correct!,,,,,,t2.png,t1.png,1,0.90025,20,Female,2020-11-19_15h59.41.444,torte-2b,2020.1.3,Win32,60,13217,,,,,,,,,,,,,,,,,,,,,,,,,,,,,,,,,,,,,0,111,111,62,1,,,,,,,,,,,,,,,,,,,,,,,,
,,,,,,,,,,,,a,1.35716,Incorrect,,,,,,t5.png,t3.png,2,0.0565,20,Female,2020-11-19_15h59.41.444,torte-2b,2020.1.3,Win32,60,13217,,,,,,,,,,,,,,,,,,,,,,,,,,,,,,,,,,,,,0,112,112,39,1,,,,,,,,,,,,,,,,,,,,,,,,
,,,,,,,,,,,,l,0.456505,Incorrect,,,,,,t1.png,t2.png,1,0.90025,20,Female,2020-11-19_15h59.41.444,torte-2b,2020.1.3,Win32,60,13217,,,,,,,,,,,,,,,,,,,,,,,,,,,,,,,,,,,,,0,113,113,72,1,,,,,,,,,,,,,,,,,,,,,,,,
,,,,,,,,,,,,l,1.560205,Correct!,,,,,,t3.png,t5.png,2,0.0565,20,Female,2020-11-19_15h59.41.444,torte-2b,2020.1.3,Win32,60,13217,,,,,,,,,,,,,,,,,,,,,,,,,,,,,,,,,,,,,0,114,114,83,1,,,,,,,,,,,,,,,,,,,,,,,,
,,,,,,,,,,,,a,0.705885,Incorrect,,,,,,t4.png,t1.png,3,0.0000131,20,Female,2020-11-19_15h59.41.444,torte-2b,2020.1.3,Win32,60,13217,,,,,,,,,,,,,,,,,,,,,,,,,,,,,,,,,,,,,0,115,115,93,1,,,,,,,,,,,,,,,,,,,,,,,,
,,,,,,,,,,,,a,1.86702,Incorrect,,,,,,t5.png,t1.png,4,9.55E-11,20,Female,2020-11-19_15h59.41.444,torte-2b,2020.1.3,Win32,60,13217,,,,,,,,,,,,,,,,,,,,,,,,,,,,,,,,,,,,,0,116,116,22,1,,,,,,,,,,,,,,,,,,,,,,,,
,,,,,,,,,,,,l,0.56032,Correct!,,,,,,t3.png,t5.png,2,0.056466,20,Female,2020-11-19_15h59.41.444,torte-2b,2020.1.3,Win32,60,13217,,,,,,,,,,,,,,,,,,,,,,,,,,,,,,,,,,,,,0,117,117,14,1,,,,,,,,,,,,,,,,,,,,,,,,
,,,,,,,,,,,,l,1.565845,Incorrect,,,,,,t1.png,t2.png,1,0.90025,20,Female,2020-11-19_15h59.41.444,torte-2b,2020.1.3,Win32,60,13217,,,,,,,,,,,,,,,,,,,,,,,,,,,,,,,,,,,,,0,118,118,105,1,,,,,,,,,,,,,,,,,,,,,,,,
,,,,,,,,,,,,a,1.83702,Incorrect,,,,,,t4.png,t2.png,2,0.059078,20,Female,2020-11-19_15h59.41.444,torte-2b,2020.1.3,Win32,60,13217,,,,,,,,,,,,,,,,,,,,,,,,,,,,,,,,,,,,,0,119,119,109,1,,,,,,,,,,,,,,,,,,,,,,,,
,,,,,,,,,,,,,,,,,,,,,,,,20,Female,2020-11-19_15h59.41.444,torte-2b,2020.1.3,Win32,60,13217,space,1.424755,,,,,,,,,,,,,,,,,,,,,,,,,,,,,,,,,,,,,,,,46.66668713,54.66665757,1,0,0,s3,42.00002033,27.99999011,1,0,0,t2,144.0000234,-95.3333469,1,0,0,proceed,m,2.064205,m,1.51796,m,3.401155
