key_resp_8.keys,key_resp_8.rt,key_resp_9.keys,key_resp_9.rt,key_resp_10.keys,key_resp_10.rt,key_resp_11.keys,key_resp_11.rt,key_resp_2.keys,key_resp_2.rt,key_resp_3.keys,key_resp_3.rt,key_resp.keys,key_resp.rt,Feedback,train.thisRepN,train.thisTrialN,train.thisN,train.thisIndex,train.ran,torta_sx,torta_dx,difference,probability,age,gender,date,expName,psychopyVersion,OS,frameRate,participant,key_resp_15.keys,key_resp_15.rt,key_resp_6.keys,key_resp_6.rt,test1.thisRepN,test1.thisTrialN,test1.thisN,test1.thisIndex,test1.ran,key_resp_4.keys,key_resp_4.rt,key_resp_5.keys,back1.thisRepN,back1.thisTrialN,back1.thisN,back1.thisIndex,back1.ran,letter,key_resp_5.rt,back2.thisRepN,back2.thisTrialN,back2.thisN,back2.thisIndex,back2.ran,back3.thisRepN,back3.thisTrialN,back3.thisN,back3.thisIndex,back3.ran,back4.thisRepN,back4.thisTrialN,back4.thisN,back4.thisIndex,back4.ran,key_resp_7.keys,key_resp_7.rt,test2.thisRepN,test2.thisTrialN,test2.thisN,test2.thisIndex,test2.ran,mouse.x,mouse.y,mouse.leftButton,mouse.midButton,mouse.rightButton,mouse.clicked_name,mouse_2.x,mouse_2.y,mouse_2.leftButton,mouse_2.midButton,mouse_2.rightButton,mouse_2.clicked_name,mouse_3.x,mouse_3.y,mouse_3.leftButton,mouse_3.midButton,mouse_3.rightButton,mouse_3.clicked_name,key_resp_12.keys,key_resp_12.rt,key_resp_13.keys,key_resp_13.rt,key_resp_14.keys,key_resp_14.rt
space,29.568,space,5.576,space,3.295,space,4.61,space,31.233,space,54.851,a,1.741,Correct!,0,0,0,13,1,t5.png,t5.png,0,0.97829,20,Female,2020-09-24_14h19.03.737,torte-2b,2020.1.3,MacIntel,60,13224,,,,,,,,,,,,,,,,,,,,,,,,,,,,,,,,,,,,,,,,,,,,,,,,,,,,,,,,,,,,,,,,,
,,,,,,,,,,,,l,0.879,Incorrect,0,1,1,20,1,t2.png,t3.png,1,0.90855,20,Female,2020-09-24_14h19.03.737,torte-2b,2020.1.3,MacIntel,60,13224,,,,,,,,,,,,,,,,,,,,,,,,,,,,,,,,,,,,,,,,,,,,,,,,,,,,,,,,,,,,,,,,,
,,,,,,,,,,,,a,0.637,Incorrect,0,2,2,38,1,t3.png,t1.png,2,0.056466,20,Female,2020-09-24_14h19.03.737,torte-2b,2020.1.3,MacIntel,60,13224,,,,,,,,,,,,,,,,,,,,,,,,,,,,,,,,,,,,,,,,,,,,,,,,,,,,,,,,,,,,,,,,,
,,,,,,,,,,,,l,0.72,Correct!,0,3,3,102,1,t4.png,t2.png,2,0.059078,20,Female,2020-09-24_14h19.03.737,torte-2b,2020.1.3,MacIntel,60,13224,,,,,,,,,,,,,,,,,,,,,,,,,,,,,,,,,,,,,,,,,,,,,,,,,,,,,,,,,,,,,,,,,
,,,,,,,,,,,,l,0.564,Correct!,0,4,4,33,1,t5.png,t1.png,4,9.55E-11,20,Female,2020-09-24_14h19.03.737,torte-2b,2020.1.3,MacIntel,60,13224,,,,,,,,,,,,,,,,,,,,,,,,,,,,,,,,,,,,,,,,,,,,,,,,,,,,,,,,,,,,,,,,,
,,,,,,,,,,,,l,1.456,Incorrect,0,5,5,59,1,t5.png,t4.png,1,0.9,20,Female,2020-09-24_14h19.03.737,torte-2b,2020.1.3,MacIntel,60,13224,,,,,,,,,,,,,,,,,,,,,,,,,,,,,,,,,,,,,,,,,,,,,,,,,,,,,,,,,,,,,,,,,
,,,,,,,,,,,,a,0.519,Correct!,0,6,6,28,1,t2.png,t3.png,1,0.909,20,Female,2020-09-24_14h19.03.737,torte-2b,2020.1.3,MacIntel,60,13224,,,,,,,,,,,,,,,,,,,,,,,,,,,,,,,,,,,,,,,,,,,,,,,,,,,,,,,,,,,,,,,,,
,,,,,,,,,,,,a,0.582,Incorrect,0,7,7,6,1,t1.png,t4.png,3,0.0000131,20,Female,2020-09-24_14h19.03.737,torte-2b,2020.1.3,MacIntel,60,13224,,,,,,,,,,,,,,,,,,,,,,,,,,,,,,,,,,,,,,,,,,,,,,,,,,,,,,,,,,,,,,,,,
,,,,,,,,,,,,l,0.873,Correct!,0,8,8,18,1,t4.png,t5.png,1,0.90025,20,Female,2020-09-24_14h19.03.737,torte-2b,2020.1.3,MacIntel,60,13224,,,,,,,,,,,,,,,,,,,,,,,,,,,,,,,,,,,,,,,,,,,,,,,,,,,,,,,,,,,,,,,,,
,,,,,,,,,,,,a,0.899,Correct!,0,9,9,2,1,t3.png,t2.png,1,0.90855,20,Female,2020-09-24_14h19.03.737,torte-2b,2020.1.3,MacIntel,60,13224,,,,,,,,,,,,,,,,,,,,,,,,,,,,,,,,,,,,,,,,,,,,,,,,,,,,,,,,,,,,,,,,,
,,,,,,,,,,,,a,0.848,Correct!,0,10,10,39,1,t3.png,t2.png,1,0.90855,20,Female,2020-09-24_14h19.03.737,torte-2b,2020.1.3,MacIntel,60,13224,,,,,,,,,,,,,,,,,,,,,,,,,,,,,,,,,,,,,,,,,,,,,,,,,,,,,,,,,,,,,,,,,
,,,,,,,,,,,,l,0.614,Correct!,0,11,11,119,1,t1.png,t5.png,4,9.55E-11,20,Female,2020-09-24_14h19.03.737,torte-2b,2020.1.3,MacIntel,60,13224,,,,,,,,,,,,,,,,,,,,,,,,,,,,,,,,,,,,,,,,,,,,,,,,,,,,,,,,,,,,,,,,,
,,,,,,,,,,,,a,1.064,Correct!,0,12,12,23,1,t5.png,t4.png,1,0.90025,20,Female,2020-09-24_14h19.03.737,torte-2b,2020.1.3,MacIntel,60,13224,,,,,,,,,,,,,,,,,,,,,,,,,,,,,,,,,,,,,,,,,,,,,,,,,,,,,,,,,,,,,,,,,
,,,,,,,,,,,,l,0.873,Incorrect,0,13,13,32,1,t4.png,t5.png,1,0.90025,20,Female,2020-09-24_14h19.03.737,torte-2b,2020.1.3,MacIntel,60,13224,,,,,,,,,,,,,,,,,,,,,,,,,,,,,,,,,,,,,,,,,,,,,,,,,,,,,,,,,,,,,,,,,
,,,,,,,,,,,,a,1.154,Correct!,0,14,14,78,1,t1.png,t1.png,0,0.978,20,Female,2020-09-24_14h19.03.737,torte-2b,2020.1.3,MacIntel,60,13224,,,,,,,,,,,,,,,,,,,,,,,,,,,,,,,,,,,,,,,,,,,,,,,,,,,,,,,,,,,,,,,,,
,,,,,,,,,,,,l,0.983,Incorrect,0,15,15,75,1,t1.png,t1.png,0,0.97829,20,Female,2020-09-24_14h19.03.737,torte-2b,2020.1.3,MacIntel,60,13224,,,,,,,,,,,,,,,,,,,,,,,,,,,,,,,,,,,,,,,,,,,,,,,,,,,,,,,,,,,,,,,,,
,,,,,,,,,,,,a,0.883,Correct!,0,16,16,58,1,t5.png,t4.png,1,0.90025,20,Female,2020-09-24_14h19.03.737,torte-2b,2020.1.3,MacIntel,60,13224,,,,,,,,,,,,,,,,,,,,,,,,,,,,,,,,,,,,,,,,,,,,,,,,,,,,,,,,,,,,,,,,,
,,,,,,,,,,,,a,0.624,Incorrect,0,17,17,86,1,t3.png,t1.png,2,0.056466,20,Female,2020-09-24_14h19.03.737,torte-2b,2020.1.3,MacIntel,60,13224,,,,,,,,,,,,,,,,,,,,,,,,,,,,,,,,,,,,,,,,,,,,,,,,,,,,,,,,,,,,,,,,,
,,,,,,,,,,,,l,0.757,Incorrect,0,18,18,104,1,t2.png,t3.png,1,0.90855,20,Female,2020-09-24_14h19.03.737,torte-2b,2020.1.3,MacIntel,60,13224,,,,,,,,,,,,,,,,,,,,,,,,,,,,,,,,,,,,,,,,,,,,,,,,,,,,,,,,,,,,,,,,,
,,,,,,,,,,,,l,0.785,Correct!,0,19,19,60,1,t2.png,t4.png,2,0.059078,20,Female,2020-09-24_14h19.03.737,torte-2b,2020.1.3,MacIntel,60,13224,,,,,,,,,,,,,,,,,,,,,,,,,,,,,,,,,,,,,,,,,,,,,,,,,,,,,,,,,,,,,,,,,
,,,,,,,,,,,,a,0.787,Incorrect,0,20,20,30,1,t3.png,t1.png,2,0.056466,20,Female,2020-09-24_14h19.03.737,torte-2b,2020.1.3,MacIntel,60,13224,,,,,,,,,,,,,,,,,,,,,,,,,,,,,,,,,,,,,,,,,,,,,,,,,,,,,,,,,,,,,,,,,
,,,,,,,,,,,,l,0.583,Incorrect,0,21,21,77,1,t1.png,t1.png,0,0.97829,20,Female,2020-09-24_14h19.03.737,torte-2b,2020.1.3,MacIntel,60,13224,,,,,,,,,,,,,,,,,,,,,,,,,,,,,,,,,,,,,,,,,,,,,,,,,,,,,,,,,,,,,,,,,
,,,,,,,,,,,,l,0.92,Incorrect,0,22,22,95,1,t1.png,t1.png,0,0.978,20,Female,2020-09-24_14h19.03.737,torte-2b,2020.1.3,MacIntel,60,13224,,,,,,,,,,,,,,,,,,,,,,,,,,,,,,,,,,,,,,,,,,,,,,,,,,,,,,,,,,,,,,,,,
,,,,,,,,,,,,a,1.067,Correct!,0,23,23,85,1,t3.png,t2.png,1,0.90855,20,Female,2020-09-24_14h19.03.737,torte-2b,2020.1.3,MacIntel,60,13224,,,,,,,,,,,,,,,,,,,,,,,,,,,,,,,,,,,,,,,,,,,,,,,,,,,,,,,,,,,,,,,,,
,,,,,,,,,,,,a,1.717,Correct!,0,24,24,118,1,t5.png,t5.png,0,0.978,20,Female,2020-09-24_14h19.03.737,torte-2b,2020.1.3,MacIntel,60,13224,,,,,,,,,,,,,,,,,,,,,,,,,,,,,,,,,,,,,,,,,,,,,,,,,,,,,,,,,,,,,,,,,
,,,,,,,,,,,,l,1.171,Correct!,0,25,25,98,1,t2.png,t4.png,2,0.0591,20,Female,2020-09-24_14h19.03.737,torte-2b,2020.1.3,MacIntel,60,13224,,,,,,,,,,,,,,,,,,,,,,,,,,,,,,,,,,,,,,,,,,,,,,,,,,,,,,,,,,,,,,,,,
,,,,,,,,,,,,a,1.373,Correct!,0,26,26,105,1,t3.png,t2.png,1,0.90855,20,Female,2020-09-24_14h19.03.737,torte-2b,2020.1.3,MacIntel,60,13224,,,,,,,,,,,,,,,,,,,,,,,,,,,,,,,,,,,,,,,,,,,,,,,,,,,,,,,,,,,,,,,,,
,,,,,,,,,,,,a,1.083,Correct!,0,27,27,79,1,t3.png,t2.png,1,0.909,20,Female,2020-09-24_14h19.03.737,torte-2b,2020.1.3,MacIntel,60,13224,,,,,,,,,,,,,,,,,,,,,,,,,,,,,,,,,,,,,,,,,,,,,,,,,,,,,,,,,,,,,,,,,
,,,,,,,,,,,,a,1.119,Correct!,0,28,28,76,1,t3.png,t2.png,1,0.90855,20,Female,2020-09-24_14h19.03.737,torte-2b,2020.1.3,MacIntel,60,13224,,,,,,,,,,,,,,,,,,,,,,,,,,,,,,,,,,,,,,,,,,,,,,,,,,,,,,,,,,,,,,,,,
,,,,,,,,,,,,l,1.235,Correct!,0,29,29,55,1,t2.png,t4.png,2,0.059078,20,Female,2020-09-24_14h19.03.737,torte-2b,2020.1.3,MacIntel,60,13224,,,,,,,,,,,,,,,,,,,,,,,,,,,,,,,,,,,,,,,,,,,,,,,,,,,,,,,,,,,,,,,,,
,,,,,,,,,,,,l,1.432,Incorrect,0,30,30,96,1,t1.png,t1.png,0,0.97829,20,Female,2020-09-24_14h19.03.737,torte-2b,2020.1.3,MacIntel,60,13224,,,,,,,,,,,,,,,,,,,,,,,,,,,,,,,,,,,,,,,,,,,,,,,,,,,,,,,,,,,,,,,,,
,,,,,,,,,,,,l,0.601,Correct!,0,31,31,11,1,t1.png,t4.png,3,0.0000131,20,Female,2020-09-24_14h19.03.737,torte-2b,2020.1.3,MacIntel,60,13224,,,,,,,,,,,,,,,,,,,,,,,,,,,,,,,,,,,,,,,,,,,,,,,,,,,,,,,,,,,,,,,,,
,,,,,,,,,,,,l,0.567,Correct!,0,32,32,90,1,t1.png,t5.png,4,9.55E-11,20,Female,2020-09-24_14h19.03.737,torte-2b,2020.1.3,MacIntel,60,13224,,,,,,,,,,,,,,,,,,,,,,,,,,,,,,,,,,,,,,,,,,,,,,,,,,,,,,,,,,,,,,,,,
,,,,,,,,,,,,l,0.918,Incorrect,0,33,33,65,1,t4.png,t5.png,1,0.90025,20,Female,2020-09-24_14h19.03.737,torte-2b,2020.1.3,MacIntel,60,13224,,,,,,,,,,,,,,,,,,,,,,,,,,,,,,,,,,,,,,,,,,,,,,,,,,,,,,,,,,,,,,,,,
,,,,,,,,,,,,a,0.637,Incorrect,0,34,34,73,1,t4.png,t2.png,2,0.059078,20,Female,2020-09-24_14h19.03.737,torte-2b,2020.1.3,MacIntel,60,13224,,,,,,,,,,,,,,,,,,,,,,,,,,,,,,,,,,,,,,,,,,,,,,,,,,,,,,,,,,,,,,,,,
,,,,,,,,,,,,a,0.617,Incorrect,0,35,35,27,1,t3.png,t1.png,2,0.0565,20,Female,2020-09-24_14h19.03.737,torte-2b,2020.1.3,MacIntel,60,13224,,,,,,,,,,,,,,,,,,,,,,,,,,,,,,,,,,,,,,,,,,,,,,,,,,,,,,,,,,,,,,,,,
,,,,,,,,,,,,a,1.49,Incorrect,0,36,36,43,1,t4.png,t2.png,2,0.059078,20,Female,2020-09-24_14h19.03.737,torte-2b,2020.1.3,MacIntel,60,13224,,,,,,,,,,,,,,,,,,,,,,,,,,,,,,,,,,,,,,,,,,,,,,,,,,,,,,,,,,,,,,,,,
,,,,,,,,,,,,l,1.184,Incorrect,0,37,37,71,1,t5.png,t5.png,0,0.97829,20,Female,2020-09-24_14h19.03.737,torte-2b,2020.1.3,MacIntel,60,13224,,,,,,,,,,,,,,,,,,,,,,,,,,,,,,,,,,,,,,,,,,,,,,,,,,,,,,,,,,,,,,,,,
,,,,,,,,,,,,l,0.882,Incorrect,0,38,38,110,1,t4.png,t5.png,1,0.90025,20,Female,2020-09-24_14h19.03.737,torte-2b,2020.1.3,MacIntel,60,13224,,,,,,,,,,,,,,,,,,,,,,,,,,,,,,,,,,,,,,,,,,,,,,,,,,,,,,,,,,,,,,,,,
,,,,,,,,,,,,l,1.522,Incorrect,0,39,39,7,1,t4.png,t5.png,1,0.90025,20,Female,2020-09-24_14h19.03.737,torte-2b,2020.1.3,MacIntel,60,13224,,,,,,,,,,,,,,,,,,,,,,,,,,,,,,,,,,,,,,,,,,,,,,,,,,,,,,,,,,,,,,,,,
,,,,,,,,,,,,a,1.004,Incorrect,0,40,40,21,1,t5.png,t4.png,1,0.90025,20,Female,2020-09-24_14h19.03.737,torte-2b,2020.1.3,MacIntel,60,13224,,,,,,,,,,,,,,,,,,,,,,,,,,,,,,,,,,,,,,,,,,,,,,,,,,,,,,,,,,,,,,,,,
,,,,,,,,,,,,a,0.566,Incorrect,0,41,41,53,1,t3.png,t1.png,2,0.056466,20,Female,2020-09-24_14h19.03.737,torte-2b,2020.1.3,MacIntel,60,13224,,,,,,,,,,,,,,,,,,,,,,,,,,,,,,,,,,,,,,,,,,,,,,,,,,,,,,,,,,,,,,,,,
,,,,,,,,,,,,l,0.758,Correct!,0,42,42,3,1,t1.png,t5.png,4,9.55E-11,20,Female,2020-09-24_14h19.03.737,torte-2b,2020.1.3,MacIntel,60,13224,,,,,,,,,,,,,,,,,,,,,,,,,,,,,,,,,,,,,,,,,,,,,,,,,,,,,,,,,,,,,,,,,
,,,,,,,,,,,,l,0.634,Correct!,0,43,43,40,1,t1.png,t5.png,4,9.55E-11,20,Female,2020-09-24_14h19.03.737,torte-2b,2020.1.3,MacIntel,60,13224,,,,,,,,,,,,,,,,,,,,,,,,,,,,,,,,,,,,,,,,,,,,,,,,,,,,,,,,,,,,,,,,,
,,,,,,,,,,,,a,0.965,Correct!,0,44,44,62,1,t5.png,t5.png,0,0.978,20,Female,2020-09-24_14h19.03.737,torte-2b,2020.1.3,MacIntel,60,13224,,,,,,,,,,,,,,,,,,,,,,,,,,,,,,,,,,,,,,,,,,,,,,,,,,,,,,,,,,,,,,,,,
,,,,,,,,,,,,l,0.891,Incorrect,0,45,45,44,1,t2.png,t3.png,1,0.909,20,Female,2020-09-24_14h19.03.737,torte-2b,2020.1.3,MacIntel,60,13224,,,,,,,,,,,,,,,,,,,,,,,,,,,,,,,,,,,,,,,,,,,,,,,,,,,,,,,,,,,,,,,,,
,,,,,,,,,,,,a,1.137,Incorrect,0,46,46,56,1,t5.png,t1.png,4,9.55E-11,20,Female,2020-09-24_14h19.03.737,torte-2b,2020.1.3,MacIntel,60,13224,,,,,,,,,,,,,,,,,,,,,,,,,,,,,,,,,,,,,,,,,,,,,,,,,,,,,,,,,,,,,,,,,
,,,,,,,,,,,,l,0.965,Incorrect,0,47,47,92,1,t2.png,t3.png,1,0.909,20,Female,2020-09-24_14h19.03.737,torte-2b,2020.1.3,MacIntel,60,13224,,,,,,,,,,,,,,,,,,,,,,,,,,,,,,,,,,,,,,,,,,,,,,,,,,,,,,,,,,,,,,,,,
,,,,,,,,,,,,a,0.619,Incorrect,0,48,48,12,1,t5.png,t1.png,4,9.55E-11,20,Female,2020-09-24_14h19.03.737,torte-2b,2020.1.3,MacIntel,60,13224,,,,,,,,,,,,,,,,,,,,,,,,,,,,,,,,,,,,,,,,,,,,,,,,,,,,,,,,,,,,,,,,,
,,,,,,,,,,,,,,Too slow :(,0,49,49,57,1,t2.png,t4.png,2,0.059078,20,Female,2020-09-24_14h19.03.737,torte-2b,2020.1.3,MacIntel,60,13224,,,,,,,,,,,,,,,,,,,,,,,,,,,,,,,,,,,,,,,,,,,,,,,,,,,,,,,,,,,,,,,,,
,,,,,,,,,,,,l,0.499,Correct!,0,50,50,14,1,t2.png,t4.png,2,0.059078,20,Female,2020-09-24_14h19.03.737,torte-2b,2020.1.3,MacIntel,60,13224,,,,,,,,,,,,,,,,,,,,,,,,,,,,,,,,,,,,,,,,,,,,,,,,,,,,,,,,,,,,,,,,,
,,,,,,,,,,,,,,Too slow :(,0,51,51,15,1,t3.png,t2.png,1,0.90855,20,Female,2020-09-24_14h19.03.737,torte-2b,2020.1.3,MacIntel,60,13224,,,,,,,,,,,,,,,,,,,,,,,,,,,,,,,,,,,,,,,,,,,,,,,,,,,,,,,,,,,,,,,,,
,,,,,,,,,,,,a,0.822,Incorrect,0,52,52,50,1,t5.png,t1.png,4,9.55E-11,20,Female,2020-09-24_14h19.03.737,torte-2b,2020.1.3,MacIntel,60,13224,,,,,,,,,,,,,,,,,,,,,,,,,,,,,,,,,,,,,,,,,,,,,,,,,,,,,,,,,,,,,,,,,
,,,,,,,,,,,,l,1.249,Correct!,0,53,53,5,1,t2.png,t4.png,2,0.059078,20,Female,2020-09-24_14h19.03.737,torte-2b,2020.1.3,MacIntel,60,13224,,,,,,,,,,,,,,,,,,,,,,,,,,,,,,,,,,,,,,,,,,,,,,,,,,,,,,,,,,,,,,,,,
,,,,,,,,,,,,l,0.716,Correct!,0,54,54,67,1,t1.png,t5.png,4,9.55E-11,20,Female,2020-09-24_14h19.03.737,torte-2b,2020.1.3,MacIntel,60,13224,,,,,,,,,,,,,,,,,,,,,,,,,,,,,,,,,,,,,,,,,,,,,,,,,,,,,,,,,,,,,,,,,
,,,,,,,,,,,,a,0.867,Correct!,0,55,55,16,1,t5.png,t4.png,1,0.9,20,Female,2020-09-24_14h19.03.737,torte-2b,2020.1.3,MacIntel,60,13224,,,,,,,,,,,,,,,,,,,,,,,,,,,,,,,,,,,,,,,,,,,,,,,,,,,,,,,,,,,,,,,,,
,,,,,,,,,,,,l,0.535,Correct!,0,56,56,4,1,t1.png,t5.png,4,9.55E-11,20,Female,2020-09-24_14h19.03.737,torte-2b,2020.1.3,MacIntel,60,13224,,,,,,,,,,,,,,,,,,,,,,,,,,,,,,,,,,,,,,,,,,,,,,,,,,,,,,,,,,,,,,,,,
,,,,,,,,,,,,l,0.817,Incorrect,0,57,57,64,1,t1.png,t1.png,0,0.978,20,Female,2020-09-24_14h19.03.737,torte-2b,2020.1.3,MacIntel,60,13224,,,,,,,,,,,,,,,,,,,,,,,,,,,,,,,,,,,,,,,,,,,,,,,,,,,,,,,,,,,,,,,,,
,,,,,,,,,,,,a,0.701,Incorrect,0,58,58,111,1,t5.png,t1.png,4,9.55E-11,20,Female,2020-09-24_14h19.03.737,torte-2b,2020.1.3,MacIntel,60,13224,,,,,,,,,,,,,,,,,,,,,,,,,,,,,,,,,,,,,,,,,,,,,,,,,,,,,,,,,,,,,,,,,
,,,,,,,,,,,,l,1.003,Correct!,0,59,59,54,1,t1.png,t5.png,4,9.55E-11,20,Female,2020-09-24_14h19.03.737,torte-2b,2020.1.3,MacIntel,60,13224,,,,,,,,,,,,,,,,,,,,,,,,,,,,,,,,,,,,,,,,,,,,,,,,,,,,,,,,,,,,,,,,,
,,,,,,,,,,,,a,1.35,Incorrect,0,60,60,108,1,t5.png,t1.png,4,9.55E-11,20,Female,2020-09-24_14h19.03.737,torte-2b,2020.1.3,MacIntel,60,13224,,,,,,,,,,,,,,,,,,,,,,,,,,,,,,,,,,,,,,,,,,,,,,,,,,,,,,,,,,,,,,,,,
,,,,,,,,,,,,l,0.64,Incorrect,0,61,61,107,1,t1.png,t1.png,0,0.978,20,Female,2020-09-24_14h19.03.737,torte-2b,2020.1.3,MacIntel,60,13224,,,,,,,,,,,,,,,,,,,,,,,,,,,,,,,,,,,,,,,,,,,,,,,,,,,,,,,,,,,,,,,,,
,,,,,,,,,,,,l,1.086,Correct!,0,62,62,103,1,t3.png,t1.png,2,0.056466,20,Female,2020-09-24_14h19.03.737,torte-2b,2020.1.3,MacIntel,60,13224,,,,,,,,,,,,,,,,,,,,,,,,,,,,,,,,,,,,,,,,,,,,,,,,,,,,,,,,,,,,,,,,,
,,,,,,,,,,,,a,1.518,Incorrect,0,63,63,80,1,t1.png,t4.png,3,0.0000131,20,Female,2020-09-24_14h19.03.737,torte-2b,2020.1.3,MacIntel,60,13224,,,,,,,,,,,,,,,,,,,,,,,,,,,,,,,,,,,,,,,,,,,,,,,,,,,,,,,,,,,,,,,,,
,,,,,,,,,,,,a,0.454,Incorrect,0,64,64,0,1,t5.png,t1.png,4,9.55E-11,20,Female,2020-09-24_14h19.03.737,torte-2b,2020.1.3,MacIntel,60,13224,,,,,,,,,,,,,,,,,,,,,,,,,,,,,,,,,,,,,,,,,,,,,,,,,,,,,,,,,,,,,,,,,
,,,,,,,,,,,,a,1.634,Incorrect,0,65,65,113,1,t5.png,t4.png,1,0.9,20,Female,2020-09-24_14h19.03.737,torte-2b,2020.1.3,MacIntel,60,13224,,,,,,,,,,,,,,,,,,,,,,,,,,,,,,,,,,,,,,,,,,,,,,,,,,,,,,,,,,,,,,,,,
,,,,,,,,,,,,l,0.704,Correct!,0,66,66,99,1,t1.png,t5.png,4,9.55E-11,20,Female,2020-09-24_14h19.03.737,torte-2b,2020.1.3,MacIntel,60,13224,,,,,,,,,,,,,,,,,,,,,,,,,,,,,,,,,,,,,,,,,,,,,,,,,,,,,,,,,,,,,,,,,
,,,,,,,,,,,,,,Too slow :(,0,67,67,1,1,t2.png,t4.png,2,0.059078,20,Female,2020-09-24_14h19.03.737,torte-2b,2020.1.3,MacIntel,60,13224,,,,,,,,,,,,,,,,,,,,,,,,,,,,,,,,,,,,,,,,,,,,,,,,,,,,,,,,,,,,,,,,,
,,,,,,,,,,,,l,0.375,Incorrect,0,68,68,10,1,t2.png,t3.png,1,0.90855,20,Female,2020-09-24_14h19.03.737,torte-2b,2020.1.3,MacIntel,60,13224,,,,,,,,,,,,,,,,,,,,,,,,,,,,,,,,,,,,,,,,,,,,,,,,,,,,,,,,,,,,,,,,,
,,,,,,,,,,,,a,0.822,Correct!,0,69,69,112,1,t1.png,t1.png,0,0.97829,20,Female,2020-09-24_14h19.03.737,torte-2b,2020.1.3,MacIntel,60,13224,,,,,,,,,,,,,,,,,,,,,,,,,,,,,,,,,,,,,,,,,,,,,,,,,,,,,,,,,,,,,,,,,
,,,,,,,,,,,,l,0.716,Correct!,0,70,70,83,1,t3.png,t1.png,2,0.056466,20,Female,2020-09-24_14h19.03.737,torte-2b,2020.1.3,MacIntel,60,13224,,,,,,,,,,,,,,,,,,,,,,,,,,,,,,,,,,,,,,,,,,,,,,,,,,,,,,,,,,,,,,,,,
,,,,,,,,,,,,a,0.649,Incorrect,0,71,71,61,1,t1.png,t4.png,3,0.0000131,20,Female,2020-09-24_14h19.03.737,torte-2b,2020.1.3,MacIntel,60,13224,,,,,,,,,,,,,,,,,,,,,,,,,,,,,,,,,,,,,,,,,,,,,,,,,,,,,,,,,,,,,,,,,
,,,,,,,,,,,,l,0.649,Correct!,0,72,72,36,1,t3.png,t1.png,2,0.0565,20,Female,2020-09-24_14h19.03.737,torte-2b,2020.1.3,MacIntel,60,13224,,,,,,,,,,,,,,,,,,,,,,,,,,,,,,,,,,,,,,,,,,,,,,,,,,,,,,,,,,,,,,,,,
,,,,,,,,,,,,a,0.916,Correct!,0,73,73,48,1,t5.png,t5.png,0,0.97829,20,Female,2020-09-24_14h19.03.737,torte-2b,2020.1.3,MacIntel,60,13224,,,,,,,,,,,,,,,,,,,,,,,,,,,,,,,,,,,,,,,,,,,,,,,,,,,,,,,,,,,,,,,,,
,,,,,,,,,,,,a,1.021,Incorrect,0,74,74,82,1,t5.png,t1.png,4,9.55E-11,20,Female,2020-09-24_14h19.03.737,torte-2b,2020.1.3,MacIntel,60,13224,,,,,,,,,,,,,,,,,,,,,,,,,,,,,,,,,,,,,,,,,,,,,,,,,,,,,,,,,,,,,,,,,
,,,,,,,,,,,,l,0.833,Correct!,0,75,75,37,1,t1.png,t4.png,3,0.0000131,20,Female,2020-09-24_14h19.03.737,torte-2b,2020.1.3,MacIntel,60,13224,,,,,,,,,,,,,,,,,,,,,,,,,,,,,,,,,,,,,,,,,,,,,,,,,,,,,,,,,,,,,,,,,
,,,,,,,,,,,,a,0.591,Correct!,0,76,76,63,1,t2.png,t3.png,1,0.909,20,Female,2020-09-24_14h19.03.737,torte-2b,2020.1.3,MacIntel,60,13224,,,,,,,,,,,,,,,,,,,,,,,,,,,,,,,,,,,,,,,,,,,,,,,,,,,,,,,,,,,,,,,,,
,,,,,,,,,,,,l,0.699,Correct!,0,77,77,51,1,t3.png,t1.png,2,0.056466,20,Female,2020-09-24_14h19.03.737,torte-2b,2020.1.3,MacIntel,60,13224,,,,,,,,,,,,,,,,,,,,,,,,,,,,,,,,,,,,,,,,,,,,,,,,,,,,,,,,,,,,,,,,,
,,,,,,,,,,,,a,0.298,Correct!,0,78,78,81,1,t1.png,t1.png,0,0.97829,20,Female,2020-09-24_14h19.03.737,torte-2b,2020.1.3,MacIntel,60,13224,,,,,,,,,,,,,,,,,,,,,,,,,,,,,,,,,,,,,,,,,,,,,,,,,,,,,,,,,,,,,,,,,
,,,,,,,,,,,,l,0.217,Correct!,0,79,79,35,1,t1.png,t4.png,3,0.0000131,20,Female,2020-09-24_14h19.03.737,torte-2b,2020.1.3,MacIntel,60,13224,,,,,,,,,,,,,,,,,,,,,,,,,,,,,,,,,,,,,,,,,,,,,,,,,,,,,,,,,,,,,,,,,
,,,,,,,,,,,,a,0.255,Incorrect,0,80,80,91,1,t1.png,t4.png,3,0.0000131,20,Female,2020-09-24_14h19.03.737,torte-2b,2020.1.3,MacIntel,60,13224,,,,,,,,,,,,,,,,,,,,,,,,,,,,,,,,,,,,,,,,,,,,,,,,,,,,,,,,,,,,,,,,,
,,,,,,,,,,,,l,0.622,Correct!,0,81,81,89,1,t1.png,t4.png,3,0.0000131,20,Female,2020-09-24_14h19.03.737,torte-2b,2020.1.3,MacIntel,60,13224,,,,,,,,,,,,,,,,,,,,,,,,,,,,,,,,,,,,,,,,,,,,,,,,,,,,,,,,,,,,,,,,,
,,,,,,,,,,,,a,0.564,Correct!,0,82,82,41,1,t3.png,t2.png,1,0.90855,20,Female,2020-09-24_14h19.03.737,torte-2b,2020.1.3,MacIntel,60,13224,,,,,,,,,,,,,,,,,,,,,,,,,,,,,,,,,,,,,,,,,,,,,,,,,,,,,,,,,,,,,,,,,
,,,,,,,,,,,,l,0.3,Correct!,0,83,83,68,1,t1.png,t4.png,3,0.0000131,20,Female,2020-09-24_14h19.03.737,torte-2b,2020.1.3,MacIntel,60,13224,,,,,,,,,,,,,,,,,,,,,,,,,,,,,,,,,,,,,,,,,,,,,,,,,,,,,,,,,,,,,,,,,
,,,,,,,,,,,,a,0.252,Correct!,0,84,84,9,1,t4.png,t5.png,1,0.9,20,Female,2020-09-24_14h19.03.737,torte-2b,2020.1.3,MacIntel,60,13224,,,,,,,,,,,,,,,,,,,,,,,,,,,,,,,,,,,,,,,,,,,,,,,,,,,,,,,,,,,,,,,,,
,,,,,,,,,,,,l,0.221,Correct!,0,85,85,93,1,t2.png,t4.png,2,0.059078,20,Female,2020-09-24_14h19.03.737,torte-2b,2020.1.3,MacIntel,60,13224,,,,,,,,,,,,,,,,,,,,,,,,,,,,,,,,,,,,,,,,,,,,,,,,,,,,,,,,,,,,,,,,,
,,,,,,,,,,,,a,0.25,Incorrect,0,86,86,52,1,t2.png,t4.png,2,0.059078,20,Female,2020-09-24_14h19.03.737,torte-2b,2020.1.3,MacIntel,60,13224,,,,,,,,,,,,,,,,,,,,,,,,,,,,,,,,,,,,,,,,,,,,,,,,,,,,,,,,,,,,,,,,,
,,,,,,,,,,,,l,0.282,Incorrect,0,87,87,70,1,t5.png,t5.png,0,0.978,20,Female,2020-09-24_14h19.03.737,torte-2b,2020.1.3,MacIntel,60,13224,,,,,,,,,,,,,,,,,,,,,,,,,,,,,,,,,,,,,,,,,,,,,,,,,,,,,,,,,,,,,,,,,
,,,,,,,,,,,,l,0.299,Correct!,0,88,88,94,1,t5.png,t1.png,4,9.55E-11,20,Female,2020-09-24_14h19.03.737,torte-2b,2020.1.3,MacIntel,60,13224,,,,,,,,,,,,,,,,,,,,,,,,,,,,,,,,,,,,,,,,,,,,,,,,,,,,,,,,,,,,,,,,,
,,,,,,,,,,,,a,0.349,Correct!,0,89,89,101,1,t4.png,t5.png,1,0.90025,20,Female,2020-09-24_14h19.03.737,torte-2b,2020.1.3,MacIntel,60,13224,,,,,,,,,,,,,,,,,,,,,,,,,,,,,,,,,,,,,,,,,,,,,,,,,,,,,,,,,,,,,,,,,
,,,,,,,,,,,,l,0.25,Correct!,0,90,90,19,1,t4.png,t2.png,2,0.059078,20,Female,2020-09-24_14h19.03.737,torte-2b,2020.1.3,MacIntel,60,13224,,,,,,,,,,,,,,,,,,,,,,,,,,,,,,,,,,,,,,,,,,,,,,,,,,,,,,,,,,,,,,,,,
,,,,,,,,,,,,a,0.203,Correct!,0,91,91,116,1,t5.png,t4.png,1,0.90025,20,Female,2020-09-24_14h19.03.737,torte-2b,2020.1.3,MacIntel,60,13224,,,,,,,,,,,,,,,,,,,,,,,,,,,,,,,,,,,,,,,,,,,,,,,,,,,,,,,,,,,,,,,,,
,,,,,,,,,,,,l,0.2,Correct!,0,92,92,117,1,t1.png,t5.png,4,9.55E-11,20,Female,2020-09-24_14h19.03.737,torte-2b,2020.1.3,MacIntel,60,13224,,,,,,,,,,,,,,,,,,,,,,,,,,,,,,,,,,,,,,,,,,,,,,,,,,,,,,,,,,,,,,,,,
,,,,,,,,,,,,a,0.001,Correct!,0,93,93,106,1,t2.png,t3.png,1,0.90855,20,Female,2020-09-24_14h19.03.737,torte-2b,2020.1.3,MacIntel,60,13224,,,,,,,,,,,,,,,,,,,,,,,,,,,,,,,,,,,,,,,,,,,,,,,,,,,,,,,,,,,,,,,,,
,,,,,,,,,,,,l,0.25,Incorrect,0,94,94,109,1,t5.png,t5.png,0,0.97829,20,Female,2020-09-24_14h19.03.737,torte-2b,2020.1.3,MacIntel,60,13224,,,,,,,,,,,,,,,,,,,,,,,,,,,,,,,,,,,,,,,,,,,,,,,,,,,,,,,,,,,,,,,,,
,,,,,,,,,,,,l,0.285,Incorrect,0,95,95,49,1,t4.png,t5.png,1,0.9,20,Female,2020-09-24_14h19.03.737,torte-2b,2020.1.3,MacIntel,60,13224,,,,,,,,,,,,,,,,,,,,,,,,,,,,,,,,,,,,,,,,,,,,,,,,,,,,,,,,,,,,,,,,,
,,,,,,,,,,,,l,0.217,Correct!,0,96,96,115,1,t2.png,t4.png,2,0.059078,20,Female,2020-09-24_14h19.03.737,torte-2b,2020.1.3,MacIntel,60,13224,,,,,,,,,,,,,,,,,,,,,,,,,,,,,,,,,,,,,,,,,,,,,,,,,,,,,,,,,,,,,,,,,
,,,,,,,,,,,,a,0.352,Incorrect,0,97,97,72,1,t4.png,t2.png,2,0.059078,20,Female,2020-09-24_14h19.03.737,torte-2b,2020.1.3,MacIntel,60,13224,,,,,,,,,,,,,,,,,,,,,,,,,,,,,,,,,,,,,,,,,,,,,,,,,,,,,,,,,,,,,,,,,
,,,,,,,,,,,,l,0.435,Incorrect,0,98,98,100,1,t4.png,t5.png,1,0.90025,20,Female,2020-09-24_14h19.03.737,torte-2b,2020.1.3,MacIntel,60,13224,,,,,,,,,,,,,,,,,,,,,,,,,,,,,,,,,,,,,,,,,,,,,,,,,,,,,,,,,,,,,,,,,
,,,,,,,,,,,,l,0.267,Correct!,0,99,99,31,1,t1.png,t5.png,4,9.55E-11,20,Female,2020-09-24_14h19.03.737,torte-2b,2020.1.3,MacIntel,60,13224,,,,,,,,,,,,,,,,,,,,,,,,,,,,,,,,,,,,,,,,,,,,,,,,,,,,,,,,,,,,,,,,,
,,,,,,,,,,,,a,0.264,Incorrect,0,100,100,88,1,t3.png,t1.png,2,0.056466,20,Female,2020-09-24_14h19.03.737,torte-2b,2020.1.3,MacIntel,60,13224,,,,,,,,,,,,,,,,,,,,,,,,,,,,,,,,,,,,,,,,,,,,,,,,,,,,,,,,,,,,,,,,,
,,,,,,,,,,,,a,0.283,Correct!,0,101,101,84,1,t1.png,t1.png,0,0.97829,20,Female,2020-09-24_14h19.03.737,torte-2b,2020.1.3,MacIntel,60,13224,,,,,,,,,,,,,,,,,,,,,,,,,,,,,,,,,,,,,,,,,,,,,,,,,,,,,,,,,,,,,,,,,
,,,,,,,,,,,,l,0.434,Incorrect,0,102,102,74,1,t5.png,t4.png,1,0.9,20,Female,2020-09-24_14h19.03.737,torte-2b,2020.1.3,MacIntel,60,13224,,,,,,,,,,,,,,,,,,,,,,,,,,,,,,,,,,,,,,,,,,,,,,,,,,,,,,,,,,,,,,,,,
,,,,,,,,,,,,a,0.817,Correct!,0,103,103,97,1,t5.png,t5.png,0,0.97829,20,Female,2020-09-24_14h19.03.737,torte-2b,2020.1.3,MacIntel,60,13224,,,,,,,,,,,,,,,,,,,,,,,,,,,,,,,,,,,,,,,,,,,,,,,,,,,,,,,,,,,,,,,,,
,,,,,,,,,,,,l,0.915,Correct!,0,104,104,24,1,t4.png,t2.png,2,0.059078,20,Female,2020-09-24_14h19.03.737,torte-2b,2020.1.3,MacIntel,60,13224,,,,,,,,,,,,,,,,,,,,,,,,,,,,,,,,,,,,,,,,,,,,,,,,,,,,,,,,,,,,,,,,,
,,,,,,,,,,,,a,0.454,Incorrect,0,105,105,17,1,t1.png,t4.png,3,0.0000131,20,Female,2020-09-24_14h19.03.737,torte-2b,2020.1.3,MacIntel,60,13224,,,,,,,,,,,,,,,,,,,,,,,,,,,,,,,,,,,,,,,,,,,,,,,,,,,,,,,,,,,,,,,,,
,,,,,,,,,,,,a,0.932,Incorrect,0,106,106,34,1,t5.png,t4.png,1,0.9,20,Female,2020-09-24_14h19.03.737,torte-2b,2020.1.3,MacIntel,60,13224,,,,,,,,,,,,,,,,,,,,,,,,,,,,,,,,,,,,,,,,,,,,,,,,,,,,,,,,,,,,,,,,,
,,,,,,,,,,,,l,0.467,Correct!,0,107,107,46,1,t4.png,t2.png,2,0.059078,20,Female,2020-09-24_14h19.03.737,torte-2b,2020.1.3,MacIntel,60,13224,,,,,,,,,,,,,,,,,,,,,,,,,,,,,,,,,,,,,,,,,,,,,,,,,,,,,,,,,,,,,,,,,
,,,,,,,,,,,,a,1.086,Correct!,0,108,108,45,1,t3.png,t2.png,1,0.90855,20,Female,2020-09-24_14h19.03.737,torte-2b,2020.1.3,MacIntel,60,13224,,,,,,,,,,,,,,,,,,,,,,,,,,,,,,,,,,,,,,,,,,,,,,,,,,,,,,,,,,,,,,,,,
,,,,,,,,,,,,a,1.083,Incorrect,0,109,109,69,1,t4.png,t2.png,2,0.059078,20,Female,2020-09-24_14h19.03.737,torte-2b,2020.1.3,MacIntel,60,13224,,,,,,,,,,,,,,,,,,,,,,,,,,,,,,,,,,,,,,,,,,,,,,,,,,,,,,,,,,,,,,,,,
,,,,,,,,,,,,l,0.39,Incorrect,0,110,110,29,1,t5.png,t5.png,0,0.97829,20,Female,2020-09-24_14h19.03.737,torte-2b,2020.1.3,MacIntel,60,13224,,,,,,,,,,,,,,,,,,,,,,,,,,,,,,,,,,,,,,,,,,,,,,,,,,,,,,,,,,,,,,,,,
,,,,,,,,,,,,l,0.95,Incorrect,0,111,111,8,1,t3.png,t2.png,1,0.90855,20,Female,2020-09-24_14h19.03.737,torte-2b,2020.1.3,MacIntel,60,13224,,,,,,,,,,,,,,,,,,,,,,,,,,,,,,,,,,,,,,,,,,,,,,,,,,,,,,,,,,,,,,,,,
,,,,,,,,,,,,a,0.267,Incorrect,0,112,112,87,1,t5.png,t1.png,4,9.55E-11,20,Female,2020-09-24_14h19.03.737,torte-2b,2020.1.3,MacIntel,60,13224,,,,,,,,,,,,,,,,,,,,,,,,,,,,,,,,,,,,,,,,,,,,,,,,,,,,,,,,,,,,,,,,,
,,,,,,,,,,,,a,0.285,Correct!,0,113,113,114,1,t2.png,t3.png,1,0.90855,20,Female,2020-09-24_14h19.03.737,torte-2b,2020.1.3,MacIntel,60,13224,,,,,,,,,,,,,,,,,,,,,,,,,,,,,,,,,,,,,,,,,,,,,,,,,,,,,,,,,,,,,,,,,
,,,,,,,,,,,,l,0.233,Incorrect,0,114,114,42,1,t5.png,t4.png,1,0.90025,20,Female,2020-09-24_14h19.03.737,torte-2b,2020.1.3,MacIntel,60,13224,,,,,,,,,,,,,,,,,,,,,,,,,,,,,,,,,,,,,,,,,,,,,,,,,,,,,,,,,,,,,,,,,
,,,,,,,,,,,,l,0.223,Incorrect,0,115,115,22,1,t2.png,t3.png,1,0.90855,20,Female,2020-09-24_14h19.03.737,torte-2b,2020.1.3,MacIntel,60,13224,,,,,,,,,,,,,,,,,,,,,,,,,,,,,,,,,,,,,,,,,,,,,,,,,,,,,,,,,,,,,,,,,
,,,,,,,,,,,,l,0.403,Incorrect,0,116,116,25,1,t5.png,t5.png,0,0.97829,20,Female,2020-09-24_14h19.03.737,torte-2b,2020.1.3,MacIntel,60,13224,,,,,,,,,,,,,,,,,,,,,,,,,,,,,,,,,,,,,,,,,,,,,,,,,,,,,,,,,,,,,,,,,
,,,,,,,,,,,,a,0.303,Incorrect,0,117,117,47,1,t4.png,t2.png,2,0.059078,20,Female,2020-09-24_14h19.03.737,torte-2b,2020.1.3,MacIntel,60,13224,,,,,,,,,,,,,,,,,,,,,,,,,,,,,,,,,,,,,,,,,,,,,,,,,,,,,,,,,,,,,,,,,
,,,,,,,,,,,,a,0.258,Correct!,0,118,118,66,1,t4.png,t5.png,1,0.9,20,Female,2020-09-24_14h19.03.737,torte-2b,2020.1.3,MacIntel,60,13224,,,,,,,,,,,,,,,,,,,,,,,,,,,,,,,,,,,,,,,,,,,,,,,,,,,,,,,,,,,,,,,,,
,,,,,,,,,,,,a,0.366,Correct!,0,119,119,26,1,t4.png,t2.png,2,0.0591,20,Female,2020-09-24_14h19.03.737,torte-2b,2020.1.3,MacIntel,60,13224,,,,,,,,,,,,,,,,,,,,,,,,,,,,,,,,,,,,,,,,,,,,,,,,,,,,,,,,,,,,,,,,,
,,,,,,,,,,,,a,0.893,Correct!,,,,,,t4.png,t4.png,0,0.98115,20,Female,2020-09-24_14h19.03.737,torte-2b,2020.1.3,MacIntel,60,13224,l,1.784,space,187.295,0,0,0,90,1,,,,,,,,,,,,,,,,,,,,,,,,,,,,,,,,,,,,,,,,,,,,,,,,,,,,,,,,
,,,,,,,,,,,,a,1.447,Correct!,,,,,,t4.png,t3.png,1,0.909,20,Female,2020-09-24_14h19.03.737,torte-2b,2020.1.3,MacIntel,60,13224,,,,,0,1,1,46,1,,,,,,,,,,,,,,,,,,,,,,,,,,,,,,,,,,,,,,,,,,,,,,,,,,,,,,,,
,,,,,,,,,,,,a,0.502,Correct!,,,,,,t4.png,t4.png,0,0.98115,20,Female,2020-09-24_14h19.03.737,torte-2b,2020.1.3,MacIntel,60,13224,,,,,0,2,2,21,1,,,,,,,,,,,,,,,,,,,,,,,,,,,,,,,,,,,,,,,,,,,,,,,,,,,,,,,,
,,,,,,,,,,,,l,0.405,Correct!,,,,,,t1.png,t2.png,1,0.9,20,Female,2020-09-24_14h19.03.737,torte-2b,2020.1.3,MacIntel,60,13224,,,,,0,3,3,1,1,,,,,,,,,,,,,,,,,,,,,,,,,,,,,,,,,,,,,,,,,,,,,,,,,,,,,,,,
,,,,,,,,,,,,l,0.448,Incorrect,,,,,,t1.png,t2.png,1,0.90025,20,Female,2020-09-24_14h19.03.737,torte-2b,2020.1.3,MacIntel,60,13224,,,,,0,4,4,105,1,,,,,,,,,,,,,,,,,,,,,,,,,,,,,,,,,,,,,,,,,,,,,,,,,,,,,,,,
,,,,,,,,,,,,l,0.436,Correct!,,,,,,t1.png,t5.png,4,9.55E-11,20,Female,2020-09-24_14h19.03.737,torte-2b,2020.1.3,MacIntel,60,13224,,,,,0,5,5,12,1,,,,,,,,,,,,,,,,,,,,,,,,,,,,,,,,,,,,,,,,,,,,,,,,,,,,,,,,
,,,,,,,,,,,,l,0.504,Incorrect,,,,,,t1.png,t1.png,0,0.97829,20,Female,2020-09-24_14h19.03.737,torte-2b,2020.1.3,MacIntel,60,13224,,,,,0,6,6,9,1,,,,,,,,,,,,,,,,,,,,,,,,,,,,,,,,,,,,,,,,,,,,,,,,,,,,,,,,
,,,,,,,,,,,,l,0.664,Correct!,,,,,,t2.png,t4.png,2,0.059078,20,Female,2020-09-24_14h19.03.737,torte-2b,2020.1.3,MacIntel,60,13224,,,,,0,7,7,24,1,,,,,,,,,,,,,,,,,,,,,,,,,,,,,,,,,,,,,,,,,,,,,,,,,,,,,,,,
,,,,,,,,,,,,a,0.666,Incorrect,,,,,,t4.png,t1.png,3,0.0000131,20,Female,2020-09-24_14h19.03.737,torte-2b,2020.1.3,MacIntel,60,13224,,,,,0,8,8,48,1,,,,,,,,,,,,,,,,,,,,,,,,,,,,,,,,,,,,,,,,,,,,,,,,,,,,,,,,
,,,,,,,,,,,,a,0.751,Incorrect,,,,,,t5.png,t2.png,3,0.0000131,20,Female,2020-09-24_14h19.03.737,torte-2b,2020.1.3,MacIntel,60,13224,,,,,0,9,9,51,1,,,,,,,,,,,,,,,,,,,,,,,,,,,,,,,,,,,,,,,,,,,,,,,,,,,,,,,,
,,,,,,,,,,,,l,0.767,Correct!,,,,,,t2.png,t4.png,2,0.0591,20,Female,2020-09-24_14h19.03.737,torte-2b,2020.1.3,MacIntel,60,13224,,,,,0,10,10,15,1,,,,,,,,,,,,,,,,,,,,,,,,,,,,,,,,,,,,,,,,,,,,,,,,,,,,,,,,
,,,,,,,,,,,,a,0.72,Incorrect,,,,,,t3.png,t1.png,2,0.056466,20,Female,2020-09-24_14h19.03.737,torte-2b,2020.1.3,MacIntel,60,13224,,,,,0,11,11,29,1,,,,,,,,,,,,,,,,,,,,,,,,,,,,,,,,,,,,,,,,,,,,,,,,,,,,,,,,
,,,,,,,,,,,,a,0.664,Incorrect,,,,,,t5.png,t1.png,4,9.55E-11,20,Female,2020-09-24_14h19.03.737,torte-2b,2020.1.3,MacIntel,60,13224,,,,,0,12,12,100,1,,,,,,,,,,,,,,,,,,,,,,,,,,,,,,,,,,,,,,,,,,,,,,,,,,,,,,,,
,,,,,,,,,,,,l,1.006,Incorrect,,,,,,t2.png,t3.png,1,0.90855,20,Female,2020-09-24_14h19.03.737,torte-2b,2020.1.3,MacIntel,60,13224,,,,,0,13,13,65,1,,,,,,,,,,,,,,,,,,,,,,,,,,,,,,,,,,,,,,,,,,,,,,,,,,,,,,,,
,,,,,,,,,,,,l,0.498,Correct!,,,,,,t2.png,t5.png,3,0.0000131,20,Female,2020-09-24_14h19.03.737,torte-2b,2020.1.3,MacIntel,60,13224,,,,,0,14,14,104,1,,,,,,,,,,,,,,,,,,,,,,,,,,,,,,,,,,,,,,,,,,,,,,,,,,,,,,,,
,,,,,,,,,,,,l,0.732,Correct!,,,,,,t1.png,t3.png,2,0.056466,20,Female,2020-09-24_14h19.03.737,torte-2b,2020.1.3,MacIntel,60,13224,,,,,0,15,15,60,1,,,,,,,,,,,,,,,,,,,,,,,,,,,,,,,,,,,,,,,,,,,,,,,,,,,,,,,,
,,,,,,,,,,,,l,0.481,Correct!,,,,,,t1.png,t4.png,3,0.0000131,20,Female,2020-09-24_14h19.03.737,torte-2b,2020.1.3,MacIntel,60,13224,,,,,0,16,16,50,1,,,,,,,,,,,,,,,,,,,,,,,,,,,,,,,,,,,,,,,,,,,,,,,,,,,,,,,,
,,,,,,,,,,,,l,0.798,Correct!,,,,,,t3.png,t5.png,2,0.056466,20,Female,2020-09-24_14h19.03.737,torte-2b,2020.1.3,MacIntel,60,13224,,,,,0,17,17,6,1,,,,,,,,,,,,,,,,,,,,,,,,,,,,,,,,,,,,,,,,,,,,,,,,,,,,,,,,
,,,,,,,,,,,,a,0.523,Incorrect,,,,,,t5.png,t3.png,2,0.056466,20,Female,2020-09-24_14h19.03.737,torte-2b,2020.1.3,MacIntel,60,13224,,,,,0,18,18,38,1,,,,,,,,,,,,,,,,,,,,,,,,,,,,,,,,,,,,,,,,,,,,,,,,,,,,,,,,
,,,,,,,,,,,,a,0.552,Correct!,,,,,,t2.png,t1.png,1,0.90025,20,Female,2020-09-24_14h19.03.737,torte-2b,2020.1.3,MacIntel,60,13224,,,,,0,19,19,4,1,,,,,,,,,,,,,,,,,,,,,,,,,,,,,,,,,,,,,,,,,,,,,,,,,,,,,,,,
,,,,,,,,,,,,a,0.497,Incorrect,,,,,,t5.png,t2.png,3,0.0000131,20,Female,2020-09-24_14h19.03.737,torte-2b,2020.1.3,MacIntel,60,13224,,,,,0,20,20,116,1,,,,,,,,,,,,,,,,,,,,,,,,,,,,,,,,,,,,,,,,,,,,,,,,,,,,,,,,
,,,,,,,,,,,,a,0.566,Correct!,,,,,,t3.png,t2.png,1,0.90855,20,Female,2020-09-24_14h19.03.737,torte-2b,2020.1.3,MacIntel,60,13224,,,,,0,21,21,18,1,,,,,,,,,,,,,,,,,,,,,,,,,,,,,,,,,,,,,,,,,,,,,,,,,,,,,,,,
,,,,,,,,,,,,l,0.558,Incorrect,,,,,,t2.png,t2.png,0,0.98115,20,Female,2020-09-24_14h19.03.737,torte-2b,2020.1.3,MacIntel,60,13224,,,,,0,22,22,57,1,,,,,,,,,,,,,,,,,,,,,,,,,,,,,,,,,,,,,,,,,,,,,,,,,,,,,,,,
,,,,,,,,,,,,l,0.616,Incorrect,,,,,,t1.png,t1.png,0,0.97829,20,Female,2020-09-24_14h19.03.737,torte-2b,2020.1.3,MacIntel,60,13224,,,,,0,23,23,78,1,,,,,,,,,,,,,,,,,,,,,,,,,,,,,,,,,,,,,,,,,,,,,,,,,,,,,,,,
,,,,,,,,,,,,l,0.783,Correct!,,,,,,t2.png,t4.png,2,0.059078,20,Female,2020-09-24_14h19.03.737,torte-2b,2020.1.3,MacIntel,60,13224,,,,,0,24,24,11,1,,,,,,,,,,,,,,,,,,,,,,,,,,,,,,,,,,,,,,,,,,,,,,,,,,,,,,,,
,,,,,,,,,,,,l,0.654,Incorrect,,,,,,t5.png,t5.png,0,0.97829,20,Female,2020-09-24_14h19.03.737,torte-2b,2020.1.3,MacIntel,60,13224,,,,,0,25,25,73,1,,,,,,,,,,,,,,,,,,,,,,,,,,,,,,,,,,,,,,,,,,,,,,,,,,,,,,,,
,,,,,,,,,,,,l,0.553,Correct!,,,,,,t1.png,t3.png,2,0.056466,20,Female,2020-09-24_14h19.03.737,torte-2b,2020.1.3,MacIntel,60,13224,,,,,0,26,26,99,1,,,,,,,,,,,,,,,,,,,,,,,,,,,,,,,,,,,,,,,,,,,,,,,,,,,,,,,,
,,,,,,,,,,,,l,0.553,Incorrect,,,,,,t4.png,t5.png,1,0.9,20,Female,2020-09-24_14h19.03.737,torte-2b,2020.1.3,MacIntel,60,13224,,,,,0,27,27,115,1,,,,,,,,,,,,,,,,,,,,,,,,,,,,,,,,,,,,,,,,,,,,,,,,,,,,,,,,
,,,,,,,,,,,,l,0.749,Incorrect,,,,,,t1.png,t2.png,1,0.90025,20,Female,2020-09-24_14h19.03.737,torte-2b,2020.1.3,MacIntel,60,13224,,,,,0,28,28,72,1,,,,,,,,,,,,,,,,,,,,,,,,,,,,,,,,,,,,,,,,,,,,,,,,,,,,,,,,
,,,,,,,,,,,,a,0.565,Incorrect,,,,,,t2.png,t1.png,1,0.9,20,Female,2020-09-24_14h19.03.737,torte-2b,2020.1.3,MacIntel,60,13224,,,,,0,29,29,118,1,,,,,,,,,,,,,,,,,,,,,,,,,,,,,,,,,,,,,,,,,,,,,,,,,,,,,,,,
,,,,,,,,,,,,a,0.549,Incorrect,,,,,,t5.png,t1.png,4,9.55E-11,20,Female,2020-09-24_14h19.03.737,torte-2b,2020.1.3,MacIntel,60,13224,,,,,0,30,30,102,1,,,,,,,,,,,,,,,,,,,,,,,,,,,,,,,,,,,,,,,,,,,,,,,,,,,,,,,,
,,,,,,,,,,,,l,0.749,Correct!,,,,,,t1.png,t5.png,4,9.55E-11,20,Female,2020-09-24_14h19.03.737,torte-2b,2020.1.3,MacIntel,60,13224,,,,,0,31,31,55,1,,,,,,,,,,,,,,,,,,,,,,,,,,,,,,,,,,,,,,,,,,,,,,,,,,,,,,,,
,,,,,,,,,,,,l,0.565,Correct!,,,,,,t2.png,t5.png,3,0.0000131,20,Female,2020-09-24_14h19.03.737,torte-2b,2020.1.3,MacIntel,60,13224,,,,,0,32,32,40,1,,,,,,,,,,,,,,,,,,,,,,,,,,,,,,,,,,,,,,,,,,,,,,,,,,,,,,,,
,,,,,,,,,,,,l,0.499,Incorrect,,,,,,t2.png,t2.png,0,0.98115,20,Female,2020-09-24_14h19.03.737,torte-2b,2020.1.3,MacIntel,60,13224,,,,,0,33,33,59,1,,,,,,,,,,,,,,,,,,,,,,,,,,,,,,,,,,,,,,,,,,,,,,,,,,,,,,,,
,,,,,,,,,,,,a,0.023,Incorrect,,,,,,t4.png,t2.png,2,0.059078,20,Female,2020-09-24_14h19.03.737,torte-2b,2020.1.3,MacIntel,60,13224,,,,,0,34,34,88,1,,,,,,,,,,,,,,,,,,,,,,,,,,,,,,,,,,,,,,,,,,,,,,,,,,,,,,,,
,,,,,,,,,,,,a,0.822,Correct!,,,,,,t3.png,t2.png,1,0.909,20,Female,2020-09-24_14h19.03.737,torte-2b,2020.1.3,MacIntel,60,13224,,,,,0,35,35,3,1,,,,,,,,,,,,,,,,,,,,,,,,,,,,,,,,,,,,,,,,,,,,,,,,,,,,,,,,
,,,,,,,,,,,,l,1.001,Incorrect,,,,,,t2.png,t3.png,1,0.909,20,Female,2020-09-24_14h19.03.737,torte-2b,2020.1.3,MacIntel,60,13224,,,,,0,36,36,74,1,,,,,,,,,,,,,,,,,,,,,,,,,,,,,,,,,,,,,,,,,,,,,,,,,,,,,,,,
,,,,,,,,,,,,a,1.034,Correct!,,,,,,t4.png,t5.png,1,0.90025,20,Female,2020-09-24_14h19.03.737,torte-2b,2020.1.3,MacIntel,60,13224,,,,,0,37,37,113,1,,,,,,,,,,,,,,,,,,,,,,,,,,,,,,,,,,,,,,,,,,,,,,,,,,,,,,,,
,,,,,,,,,,,,l,1.133,Incorrect,,,,,,t2.png,t2.png,0,0.981,20,Female,2020-09-24_14h19.03.737,torte-2b,2020.1.3,MacIntel,60,13224,,,,,0,38,38,101,1,,,,,,,,,,,,,,,,,,,,,,,,,,,,,,,,,,,,,,,,,,,,,,,,,,,,,,,,
,,,,,,,,,,,,l,1.05,Correct!,,,,,,t1.png,t5.png,4,9.55E-11,20,Female,2020-09-24_14h19.03.737,torte-2b,2020.1.3,MacIntel,60,13224,,,,,0,39,39,85,1,,,,,,,,,,,,,,,,,,,,,,,,,,,,,,,,,,,,,,,,,,,,,,,,,,,,,,,,
,,,,,,,,,,,,a,0.921,Incorrect,,,,,,t5.png,t2.png,3,0.0000131,20,Female,2020-09-24_14h19.03.737,torte-2b,2020.1.3,MacIntel,60,13224,,,,,0,40,40,98,1,,,,,,,,,,,,,,,,,,,,,,,,,,,,,,,,,,,,,,,,,,,,,,,,,,,,,,,,
,,,,,,,,,,,,l,0.75,Incorrect,,,,,,t1.png,t2.png,1,0.90025,20,Female,2020-09-24_14h19.03.737,torte-2b,2020.1.3,MacIntel,60,13224,,,,,0,41,41,33,1,,,,,,,,,,,,,,,,,,,,,,,,,,,,,,,,,,,,,,,,,,,,,,,,,,,,,,,,
,,,,,,,,,,,,a,0.447,Correct!,,,,,,t4.png,t4.png,0,0.98115,20,Female,2020-09-24_14h19.03.737,torte-2b,2020.1.3,MacIntel,60,13224,,,,,0,42,42,52,1,,,,,,,,,,,,,,,,,,,,,,,,,,,,,,,,,,,,,,,,,,,,,,,,,,,,,,,,
,,,,,,,,,,,,l,0.433,Correct!,,,,,,t2.png,t4.png,2,0.059078,20,Female,2020-09-24_14h19.03.737,torte-2b,2020.1.3,MacIntel,60,13224,,,,,0,43,43,77,1,,,,,,,,,,,,,,,,,,,,,,,,,,,,,,,,,,,,,,,,,,,,,,,,,,,,,,,,
,,,,,,,,,,,,l,1.289,Correct!,,,,,,t1.png,t4.png,3,0.0000131,20,Female,2020-09-24_14h19.03.737,torte-2b,2020.1.3,MacIntel,60,13224,,,,,0,44,44,81,1,,,,,,,,,,,,,,,,,,,,,,,,,,,,,,,,,,,,,,,,,,,,,,,,,,,,,,,,
,,,,,,,,,,,,a,0.873,Correct!,,,,,,t2.png,t2.png,0,0.98115,20,Female,2020-09-24_14h19.03.737,torte-2b,2020.1.3,MacIntel,60,13224,,,,,0,45,45,2,1,,,,,,,,,,,,,,,,,,,,,,,,,,,,,,,,,,,,,,,,,,,,,,,,,,,,,,,,
,,,,,,,,,,,,l,0.567,Correct!,,,,,,t1.png,t3.png,2,0.056466,20,Female,2020-09-24_14h19.03.737,torte-2b,2020.1.3,MacIntel,60,13224,,,,,0,46,46,87,1,,,,,,,,,,,,,,,,,,,,,,,,,,,,,,,,,,,,,,,,,,,,,,,,,,,,,,,,
,,,,,,,,,,,,a,0.442,Incorrect,,,,,,t3.png,t1.png,2,0.0565,20,Female,2020-09-24_14h19.03.737,torte-2b,2020.1.3,MacIntel,60,13224,,,,,0,47,47,31,1,,,,,,,,,,,,,,,,,,,,,,,,,,,,,,,,,,,,,,,,,,,,,,,,,,,,,,,,
,,,,,,,,,,,,a,0.499,Correct!,,,,,,t5.png,t4.png,1,0.9,20,Female,2020-09-24_14h19.03.737,torte-2b,2020.1.3,MacIntel,60,13224,,,,,0,48,48,49,1,,,,,,,,,,,,,,,,,,,,,,,,,,,,,,,,,,,,,,,,,,,,,,,,,,,,,,,,
,,,,,,,,,,,,a,0.419,Correct!,,,,,,t3.png,t2.png,1,0.90855,20,Female,2020-09-24_14h19.03.737,torte-2b,2020.1.3,MacIntel,60,13224,,,,,0,49,49,97,1,,,,,,,,,,,,,,,,,,,,,,,,,,,,,,,,,,,,,,,,,,,,,,,,,,,,,,,,
,,,,,,,,,,,,l,0.441,Incorrect,,,,,,t2.png,t3.png,1,0.90855,20,Female,2020-09-24_14h19.03.737,torte-2b,2020.1.3,MacIntel,60,13224,,,,,0,50,50,68,1,,,,,,,,,,,,,,,,,,,,,,,,,,,,,,,,,,,,,,,,,,,,,,,,,,,,,,,,
,,,,,,,,,,,,a,0.419,Incorrect,,,,,,t4.png,t2.png,2,0.059078,20,Female,2020-09-24_14h19.03.737,torte-2b,2020.1.3,MacIntel,60,13224,,,,,0,51,51,110,1,,,,,,,,,,,,,,,,,,,,,,,,,,,,,,,,,,,,,,,,,,,,,,,,,,,,,,,,
,,,,,,,,,,,,a,0.5,Incorrect,,,,,,t4.png,t2.png,2,0.059078,20,Female,2020-09-24_14h19.03.737,torte-2b,2020.1.3,MacIntel,60,13224,,,,,0,52,52,109,1,,,,,,,,,,,,,,,,,,,,,,,,,,,,,,,,,,,,,,,,,,,,,,,,,,,,,,,,
,,,,,,,,,,,,a,0.403,Incorrect,,,,,,t4.png,t1.png,3,0.0000131,20,Female,2020-09-24_14h19.03.737,torte-2b,2020.1.3,MacIntel,60,13224,,,,,0,53,53,93,1,,,,,,,,,,,,,,,,,,,,,,,,,,,,,,,,,,,,,,,,,,,,,,,,,,,,,,,,
,,,,,,,,,,,,a,0.481,Correct!,,,,,,t4.png,t3.png,1,0.90855,20,Female,2020-09-24_14h19.03.737,torte-2b,2020.1.3,MacIntel,60,13224,,,,,0,54,54,75,1,,,,,,,,,,,,,,,,,,,,,,,,,,,,,,,,,,,,,,,,,,,,,,,,,,,,,,,,
,,,,,,,,,,,,a,0.484,Incorrect,,,,,,t5.png,t1.png,4,9.55E-11,20,Female,2020-09-24_14h19.03.737,torte-2b,2020.1.3,MacIntel,60,13224,,,,,0,55,55,71,1,,,,,,,,,,,,,,,,,,,,,,,,,,,,,,,,,,,,,,,,,,,,,,,,,,,,,,,,
,,,,,,,,,,,,a,0.453,Correct!,,,,,,t5.png,t5.png,0,0.97829,20,Female,2020-09-24_14h19.03.737,torte-2b,2020.1.3,MacIntel,60,13224,,,,,0,56,56,25,1,,,,,,,,,,,,,,,,,,,,,,,,,,,,,,,,,,,,,,,,,,,,,,,,,,,,,,,,
,,,,,,,,,,,,a,0.667,Correct!,,,,,,t3.png,t2.png,1,0.909,20,Female,2020-09-24_14h19.03.737,torte-2b,2020.1.3,MacIntel,60,13224,,,,,0,57,57,23,1,,,,,,,,,,,,,,,,,,,,,,,,,,,,,,,,,,,,,,,,,,,,,,,,,,,,,,,,
,,,,,,,,,,,,a,0.47,Correct!,,,,,,t5.png,t5.png,0,0.97829,20,Female,2020-09-24_14h19.03.737,torte-2b,2020.1.3,MacIntel,60,13224,,,,,0,58,58,94,1,,,,,,,,,,,,,,,,,,,,,,,,,,,,,,,,,,,,,,,,,,,,,,,,,,,,,,,,
,,,,,,,,,,,,l,0.549,Correct!,,,,,,t1.png,t5.png,4,9.55E-11,20,Female,2020-09-24_14h19.03.737,torte-2b,2020.1.3,MacIntel,60,13224,,,,,0,59,59,16,1,,,,,,,,,,,,,,,,,,,,,,,,,,,,,,,,,,,,,,,,,,,,,,,,,,,,,,,,
,,,,,,,,,,,,l,0.6,Incorrect,,,,,,t1.png,t3.png,2,0.056466,20,Female,2020-09-24_14h19.03.737,torte-2b,2020.1.3,MacIntel,60,13224,,,,,0,60,60,63,1,,,,,,,,,,,,,,,,,,,,,,,,,,,,,,,,,,,,,,,,,,,,,,,,,,,,,,,,
,,,,,,,,,,,,l,0.417,Incorrect,,,,,,t2.png,t3.png,1,0.90855,20,Female,2020-09-24_14h19.03.737,torte-2b,2020.1.3,MacIntel,60,13224,,,,,0,61,61,111,1,,,,,,,,,,,,,,,,,,,,,,,,,,,,,,,,,,,,,,,,,,,,,,,,,,,,,,,,
,,,,,,,,,,,,a,0.482,Incorrect,,,,,,t5.png,t3.png,2,0.056466,20,Female,2020-09-24_14h19.03.737,torte-2b,2020.1.3,MacIntel,60,13224,,,,,0,62,62,114,1,,,,,,,,,,,,,,,,,,,,,,,,,,,,,,,,,,,,,,,,,,,,,,,,,,,,,,,,
,,,,,,,,,,,,l,0.588,Incorrect,,,,,,t4.png,t5.png,1,0.90025,20,Female,2020-09-24_14h19.03.737,torte-2b,2020.1.3,MacIntel,60,13224,,,,,0,63,63,103,1,,,,,,,,,,,,,,,,,,,,,,,,,,,,,,,,,,,,,,,,,,,,,,,,,,,,,,,,
,,,,,,,,,,,,a,0.355,Correct!,,,,,,t3.png,t5.png,2,0.0565,20,Female,2020-09-24_14h19.03.737,torte-2b,2020.1.3,MacIntel,60,13224,,,,,0,64,64,83,1,,,,,,,,,,,,,,,,,,,,,,,,,,,,,,,,,,,,,,,,,,,,,,,,,,,,,,,,
,,,,,,,,,,,,l,0.47,Incorrect,,,,,,t5.png,t5.png,0,0.97829,20,Female,2020-09-24_14h19.03.737,torte-2b,2020.1.3,MacIntel,60,13224,,,,,0,65,65,70,1,,,,,,,,,,,,,,,,,,,,,,,,,,,,,,,,,,,,,,,,,,,,,,,,,,,,,,,,
,,,,,,,,,,,,l,0.298,Correct!,,,,,,t1.png,t5.png,4,9.55E-11,20,Female,2020-09-24_14h19.03.737,torte-2b,2020.1.3,MacIntel,60,13224,,,,,0,66,66,41,1,,,,,,,,,,,,,,,,,,,,,,,,,,,,,,,,,,,,,,,,,,,,,,,,,,,,,,,,
,,,,,,,,,,,,a,0.57,Correct!,,,,,,t5.png,t4.png,1,0.9,20,Female,2020-09-24_14h19.03.737,torte-2b,2020.1.3,MacIntel,60,13224,,,,,0,67,67,76,1,,,,,,,,,,,,,,,,,,,,,,,,,,,,,,,,,,,,,,,,,,,,,,,,,,,,,,,,
,,,,,,,,,,,,l,0.691,Incorrect,,,,,,t1.png,t1.png,0,0.978,20,Female,2020-09-24_14h19.03.737,torte-2b,2020.1.3,MacIntel,60,13224,,,,,0,68,68,54,1,,,,,,,,,,,,,,,,,,,,,,,,,,,,,,,,,,,,,,,,,,,,,,,,,,,,,,,,
,,,,,,,,,,,,a,0.553,Correct!,,,,,,t2.png,t1.png,1,0.90025,20,Female,2020-09-24_14h19.03.737,torte-2b,2020.1.3,MacIntel,60,13224,,,,,0,69,69,62,1,,,,,,,,,,,,,,,,,,,,,,,,,,,,,,,,,,,,,,,,,,,,,,,,,,,,,,,,
,,,,,,,,,,,,l,0.555,Incorrect,,,,,,t4.png,t5.png,1,0.90025,20,Female,2020-09-24_14h19.03.737,torte-2b,2020.1.3,MacIntel,60,13224,,,,,0,70,70,47,1,,,,,,,,,,,,,,,,,,,,,,,,,,,,,,,,,,,,,,,,,,,,,,,,,,,,,,,,
,,,,,,,,,,,,l,0.402,Correct!,,,,,,t2.png,t5.png,3,0.0000131,20,Female,2020-09-24_14h19.03.737,torte-2b,2020.1.3,MacIntel,60,13224,,,,,0,71,71,95,1,,,,,,,,,,,,,,,,,,,,,,,,,,,,,,,,,,,,,,,,,,,,,,,,,,,,,,,,
,,,,,,,,,,,,a,0.457,Incorrect,,,,,,t3.png,t1.png,2,0.056466,20,Female,2020-09-24_14h19.03.737,torte-2b,2020.1.3,MacIntel,60,13224,,,,,0,72,72,64,1,,,,,,,,,,,,,,,,,,,,,,,,,,,,,,,,,,,,,,,,,,,,,,,,,,,,,,,,
,,,,,,,,,,,,a,0.383,Incorrect,,,,,,t5.png,t3.png,2,0.056466,20,Female,2020-09-24_14h19.03.737,torte-2b,2020.1.3,MacIntel,60,13224,,,,,0,73,73,56,1,,,,,,,,,,,,,,,,,,,,,,,,,,,,,,,,,,,,,,,,,,,,,,,,,,,,,,,,
,,,,,,,,,,,,l,0.465,Incorrect,,,,,,t4.png,t5.png,1,0.90025,20,Female,2020-09-24_14h19.03.737,torte-2b,2020.1.3,MacIntel,60,13224,,,,,0,74,74,58,1,,,,,,,,,,,,,,,,,,,,,,,,,,,,,,,,,,,,,,,,,,,,,,,,,,,,,,,,
,,,,,,,,,,,,a,0.437,Incorrect,,,,,,t3.png,t1.png,2,0.056466,20,Female,2020-09-24_14h19.03.737,torte-2b,2020.1.3,MacIntel,60,13224,,,,,0,75,75,32,1,,,,,,,,,,,,,,,,,,,,,,,,,,,,,,,,,,,,,,,,,,,,,,,,,,,,,,,,
,,,,,,,,,,,,a,0.616,Incorrect,,,,,,t5.png,t1.png,4,9.55E-11,20,Female,2020-09-24_14h19.03.737,torte-2b,2020.1.3,MacIntel,60,13224,,,,,0,76,76,22,1,,,,,,,,,,,,,,,,,,,,,,,,,,,,,,,,,,,,,,,,,,,,,,,,,,,,,,,,
,,,,,,,,,,,,l,0.405,Incorrect,,,,,,t2.png,t3.png,1,0.90855,20,Female,2020-09-24_14h19.03.737,torte-2b,2020.1.3,MacIntel,60,13224,,,,,0,77,77,10,1,,,,,,,,,,,,,,,,,,,,,,,,,,,,,,,,,,,,,,,,,,,,,,,,,,,,,,,,
,,,,,,,,,,,,a,0.422,Correct!,,,,,,t4.png,t3.png,1,0.90855,20,Female,2020-09-24_14h19.03.737,torte-2b,2020.1.3,MacIntel,60,13224,,,,,0,78,78,35,1,,,,,,,,,,,,,,,,,,,,,,,,,,,,,,,,,,,,,,,,,,,,,,,,,,,,,,,,
,,,,,,,,,,,,l,0.583,Correct!,,,,,,t1.png,t4.png,3,0.0000131,20,Female,2020-09-24_14h19.03.737,torte-2b,2020.1.3,MacIntel,60,13224,,,,,0,79,79,92,1,,,,,,,,,,,,,,,,,,,,,,,,,,,,,,,,,,,,,,,,,,,,,,,,,,,,,,,,
,,,,,,,,,,,,l,0.586,Correct!,,,,,,t1.png,t4.png,3,0.0000131,20,Female,2020-09-24_14h19.03.737,torte-2b,2020.1.3,MacIntel,60,13224,,,,,0,80,80,107,1,,,,,,,,,,,,,,,,,,,,,,,,,,,,,,,,,,,,,,,,,,,,,,,,,,,,,,,,
,,,,,,,,,,,,l,0.571,Correct!,,,,,,t3.png,t5.png,2,0.056466,20,Female,2020-09-24_14h19.03.737,torte-2b,2020.1.3,MacIntel,60,13224,,,,,0,81,81,44,1,,,,,,,,,,,,,,,,,,,,,,,,,,,,,,,,,,,,,,,,,,,,,,,,,,,,,,,,
,,,,,,,,,,,,l,0.667,Correct!,,,,,,t1.png,t4.png,3,0.0000131,20,Female,2020-09-24_14h19.03.737,torte-2b,2020.1.3,MacIntel,60,13224,,,,,0,82,82,17,1,,,,,,,,,,,,,,,,,,,,,,,,,,,,,,,,,,,,,,,,,,,,,,,,,,,,,,,,
,,,,,,,,,,,,a,0.533,Correct!,,,,,,t4.png,t3.png,1,0.909,20,Female,2020-09-24_14h19.03.737,torte-2b,2020.1.3,MacIntel,60,13224,,,,,0,83,83,20,1,,,,,,,,,,,,,,,,,,,,,,,,,,,,,,,,,,,,,,,,,,,,,,,,,,,,,,,,
,,,,,,,,,,,,l,0.384,Incorrect,,,,,,t1.png,t2.png,1,0.90025,20,Female,2020-09-24_14h19.03.737,torte-2b,2020.1.3,MacIntel,60,13224,,,,,0,84,84,112,1,,,,,,,,,,,,,,,,,,,,,,,,,,,,,,,,,,,,,,,,,,,,,,,,,,,,,,,,
,,,,,,,,,,,,l,0.516,Correct!,,,,,,t2.png,t4.png,2,0.059078,20,Female,2020-09-24_14h19.03.737,torte-2b,2020.1.3,MacIntel,60,13224,,,,,0,85,85,37,1,,,,,,,,,,,,,,,,,,,,,,,,,,,,,,,,,,,,,,,,,,,,,,,,,,,,,,,,
,,,,,,,,,,,,a,0.701,Incorrect,,,,,,t3.png,t1.png,2,0.056466,20,Female,2020-09-24_14h19.03.737,torte-2b,2020.1.3,MacIntel,60,13224,,,,,0,86,86,0,1,,,,,,,,,,,,,,,,,,,,,,,,,,,,,,,,,,,,,,,,,,,,,,,,,,,,,,,,
,,,,,,,,,,,,a,0.782,Correct!,,,,,,t5.png,t4.png,1,0.90025,20,Female,2020-09-24_14h19.03.737,torte-2b,2020.1.3,MacIntel,60,13224,,,,,0,87,87,27,1,,,,,,,,,,,,,,,,,,,,,,,,,,,,,,,,,,,,,,,,,,,,,,,,,,,,,,,,
,,,,,,,,,,,,l,0.839,Incorrect,,,,,,t4.png,t4.png,0,0.98115,20,Female,2020-09-24_14h19.03.737,torte-2b,2020.1.3,MacIntel,60,13224,,,,,0,88,88,79,1,,,,,,,,,,,,,,,,,,,,,,,,,,,,,,,,,,,,,,,,,,,,,,,,,,,,,,,,
,,,,,,,,,,,,a,0.803,Correct!,,,,,,t3.png,t4.png,1,0.909,20,Female,2020-09-24_14h19.03.737,torte-2b,2020.1.3,MacIntel,60,13224,,,,,0,89,89,106,1,,,,,,,,,,,,,,,,,,,,,,,,,,,,,,,,,,,,,,,,,,,,,,,,,,,,,,,,
,,,,,,,,,,,,a,1.757,Incorrect,,,,,,t5.png,t3.png,2,0.0565,20,Female,2020-09-24_14h19.03.737,torte-2b,2020.1.3,MacIntel,60,13224,,,,,0,90,90,39,1,,,,,,,,,,,,,,,,,,,,,,,,,,,,,,,,,,,,,,,,,,,,,,,,,,,,,,,,
,,,,,,,,,,,,,,Too slow :(,,,,,,t1.png,t1.png,0,0.978,20,Female,2020-09-24_14h19.03.737,torte-2b,2020.1.3,MacIntel,60,13224,,,,,0,91,91,28,1,,,,,,,,,,,,,,,,,,,,,,,,,,,,,,,,,,,,,,,,,,,,,,,,,,,,,,,,
,,,,,,,,,,,,a,0.482,Incorrect,,,,,,t4.png,t2.png,2,0.059078,20,Female,2020-09-24_14h19.03.737,torte-2b,2020.1.3,MacIntel,60,13224,,,,,0,92,92,86,1,,,,,,,,,,,,,,,,,,,,,,,,,,,,,,,,,,,,,,,,,,,,,,,,,,,,,,,,
,,,,,,,,,,,,l,0.816,Incorrect,,,,,,t2.png,t2.png,0,0.98115,20,Female,2020-09-24_14h19.03.737,torte-2b,2020.1.3,MacIntel,60,13224,,,,,0,93,93,7,1,,,,,,,,,,,,,,,,,,,,,,,,,,,,,,,,,,,,,,,,,,,,,,,,,,,,,,,,
,,,,,,,,,,,,a,0.842,Incorrect,,,,,,t5.png,t2.png,3,0.0000131,20,Female,2020-09-24_14h19.03.737,torte-2b,2020.1.3,MacIntel,60,13224,,,,,0,94,94,119,1,,,,,,,,,,,,,,,,,,,,,,,,,,,,,,,,,,,,,,,,,,,,,,,,,,,,,,,,
,,,,,,,,,,,,a,0.817,Correct!,,,,,,t3.png,t2.png,1,0.90855,20,Female,2020-09-24_14h19.03.737,torte-2b,2020.1.3,MacIntel,60,13224,,,,,0,95,95,53,1,,,,,,,,,,,,,,,,,,,,,,,,,,,,,,,,,,,,,,,,,,,,,,,,,,,,,,,,
,,,,,,,,,,,,l,0.62,Correct!,,,,,,t2.png,t5.png,3,0.0000131,20,Female,2020-09-24_14h19.03.737,torte-2b,2020.1.3,MacIntel,60,13224,,,,,0,96,96,66,1,,,,,,,,,,,,,,,,,,,,,,,,,,,,,,,,,,,,,,,,,,,,,,,,,,,,,,,,
,,,,,,,,,,,,a,0.422,Correct!,,,,,,t2.png,t1.png,1,0.90025,20,Female,2020-09-24_14h19.03.737,torte-2b,2020.1.3,MacIntel,60,13224,,,,,0,97,97,19,1,,,,,,,,,,,,,,,,,,,,,,,,,,,,,,,,,,,,,,,,,,,,,,,,,,,,,,,,
,,,,,,,,,,,,l,0.95,Incorrect,,,,,,t4.png,t3.png,1,0.90855,20,Female,2020-09-24_14h19.03.737,torte-2b,2020.1.3,MacIntel,60,13224,,,,,0,98,98,45,1,,,,,,,,,,,,,,,,,,,,,,,,,,,,,,,,,,,,,,,,,,,,,,,,,,,,,,,,
,,,,,,,,,,,,l,0.565,Incorrect,,,,,,t1.png,t1.png,0,0.97829,20,Female,2020-09-24_14h19.03.737,torte-2b,2020.1.3,MacIntel,60,13224,,,,,0,99,99,67,1,,,,,,,,,,,,,,,,,,,,,,,,,,,,,,,,,,,,,,,,,,,,,,,,,,,,,,,,
,,,,,,,,,,,,l,0.466,Incorrect,,,,,,t3.png,t4.png,1,0.909,20,Female,2020-09-24_14h19.03.737,torte-2b,2020.1.3,MacIntel,60,13224,,,,,0,100,100,82,1,,,,,,,,,,,,,,,,,,,,,,,,,,,,,,,,,,,,,,,,,,,,,,,,,,,,,,,,
,,,,,,,,,,,,a,0.387,Correct!,,,,,,t3.png,t4.png,1,0.90855,20,Female,2020-09-24_14h19.03.737,torte-2b,2020.1.3,MacIntel,60,13224,,,,,0,101,101,84,1,,,,,,,,,,,,,,,,,,,,,,,,,,,,,,,,,,,,,,,,,,,,,,,,,,,,,,,,
,,,,,,,,,,,,a,0.465,Incorrect,,,,,,t5.png,t4.png,1,0.90025,20,Female,2020-09-24_14h19.03.737,torte-2b,2020.1.3,MacIntel,60,13224,,,,,0,102,102,26,1,,,,,,,,,,,,,,,,,,,,,,,,,,,,,,,,,,,,,,,,,,,,,,,,,,,,,,,,
,,,,,,,,,,,,a,0.418,Incorrect,,,,,,t2.png,t1.png,1,0.90025,20,Female,2020-09-24_14h19.03.737,torte-2b,2020.1.3,MacIntel,60,13224,,,,,0,103,103,5,1,,,,,,,,,,,,,,,,,,,,,,,,,,,,,,,,,,,,,,,,,,,,,,,,,,,,,,,,
,,,,,,,,,,,,a,0.533,Correct!,,,,,,t5.png,t4.png,1,0.90025,20,Female,2020-09-24_14h19.03.737,torte-2b,2020.1.3,MacIntel,60,13224,,,,,0,104,104,34,1,,,,,,,,,,,,,,,,,,,,,,,,,,,,,,,,,,,,,,,,,,,,,,,,,,,,,,,,
,,,,,,,,,,,,l,0.474,Incorrect,,,,,,t3.png,t4.png,1,0.909,20,Female,2020-09-24_14h19.03.737,torte-2b,2020.1.3,MacIntel,60,13224,,,,,0,105,105,89,1,,,,,,,,,,,,,,,,,,,,,,,,,,,,,,,,,,,,,,,,,,,,,,,,,,,,,,,,
,,,,,,,,,,,,l,0.487,Incorrect,,,,,,t3.png,t4.png,1,0.90855,20,Female,2020-09-24_14h19.03.737,torte-2b,2020.1.3,MacIntel,60,13224,,,,,0,106,106,96,1,,,,,,,,,,,,,,,,,,,,,,,,,,,,,,,,,,,,,,,,,,,,,,,,,,,,,,,,
,,,,,,,,,,,,a,0.516,Correct!,,,,,,t4.png,t4.png,0,0.98115,20,Female,2020-09-24_14h19.03.737,torte-2b,2020.1.3,MacIntel,60,13224,,,,,0,107,107,80,1,,,,,,,,,,,,,,,,,,,,,,,,,,,,,,,,,,,,,,,,,,,,,,,,,,,,,,,,
,,,,,,,,,,,,l,0.75,Correct!,,,,,,t3.png,t5.png,2,0.0565,20,Female,2020-09-24_14h19.03.737,torte-2b,2020.1.3,MacIntel,60,13224,,,,,0,108,108,30,1,,,,,,,,,,,,,,,,,,,,,,,,,,,,,,,,,,,,,,,,,,,,,,,,,,,,,,,,
,,,,,,,,,,,,a,0.638,Incorrect,,,,,,t5.png,t2.png,3,0.0000131,20,Female,2020-09-24_14h19.03.737,torte-2b,2020.1.3,MacIntel,60,13224,,,,,0,109,109,91,1,,,,,,,,,,,,,,,,,,,,,,,,,,,,,,,,,,,,,,,,,,,,,,,,,,,,,,,,
,,,,,,,,,,,,a,0.467,Incorrect,,,,,,t4.png,t1.png,3,0.0000131,20,Female,2020-09-24_14h19.03.737,torte-2b,2020.1.3,MacIntel,60,13224,,,,,0,110,110,61,1,,,,,,,,,,,,,,,,,,,,,,,,,,,,,,,,,,,,,,,,,,,,,,,,,,,,,,,,
,,,,,,,,,,,,a,0.439,Incorrect,,,,,,t4.png,t1.png,3,0.0000131,20,Female,2020-09-24_14h19.03.737,torte-2b,2020.1.3,MacIntel,60,13224,,,,,0,111,111,42,1,,,,,,,,,,,,,,,,,,,,,,,,,,,,,,,,,,,,,,,,,,,,,,,,,,,,,,,,
,,,,,,,,,,,,l,0.405,Incorrect,,,,,,t5.png,t5.png,0,0.978,20,Female,2020-09-24_14h19.03.737,torte-2b,2020.1.3,MacIntel,60,13224,,,,,0,112,112,117,1,,,,,,,,,,,,,,,,,,,,,,,,,,,,,,,,,,,,,,,,,,,,,,,,,,,,,,,,
,,,,,,,,,,,,l,0.449,Correct!,,,,,,t2.png,t5.png,3,0.0000131,20,Female,2020-09-24_14h19.03.737,torte-2b,2020.1.3,MacIntel,60,13224,,,,,0,113,113,8,1,,,,,,,,,,,,,,,,,,,,,,,,,,,,,,,,,,,,,,,,,,,,,,,,,,,,,,,,
,,,,,,,,,,,,a,0.441,Incorrect,,,,,,t4.png,t1.png,3,0.0000131,20,Female,2020-09-24_14h19.03.737,torte-2b,2020.1.3,MacIntel,60,13224,,,,,0,114,114,13,1,,,,,,,,,,,,,,,,,,,,,,,,,,,,,,,,,,,,,,,,,,,,,,,,,,,,,,,,
,,,,,,,,,,,,l,0.457,Correct!,,,,,,t3.png,t5.png,2,0.056466,20,Female,2020-09-24_14h19.03.737,torte-2b,2020.1.3,MacIntel,60,13224,,,,,0,115,115,14,1,,,,,,,,,,,,,,,,,,,,,,,,,,,,,,,,,,,,,,,,,,,,,,,,,,,,,,,,
,,,,,,,,,,,,a,0.655,Incorrect,,,,,,t4.png,t2.png,2,0.0591,20,Female,2020-09-24_14h19.03.737,torte-2b,2020.1.3,MacIntel,60,13224,,,,,0,116,116,36,1,,,,,,,,,,,,,,,,,,,,,,,,,,,,,,,,,,,,,,,,,,,,,,,,,,,,,,,,
,,,,,,,,,,,,a,0.55,Incorrect,,,,,,t5.png,t1.png,4,9.55E-11,20,Female,2020-09-24_14h19.03.737,torte-2b,2020.1.3,MacIntel,60,13224,,,,,0,117,117,43,1,,,,,,,,,,,,,,,,,,,,,,,,,,,,,,,,,,,,,,,,,,,,,,,,,,,,,,,,
,,,,,,,,,,,,l,0.67,Correct!,,,,,,t1.png,t3.png,2,0.056466,20,Female,2020-09-24_14h19.03.737,torte-2b,2020.1.3,MacIntel,60,13224,,,,,0,118,118,69,1,,,,,,,,,,,,,,,,,,,,,,,,,,,,,,,,,,,,,,,,,,,,,,,,,,,,,,,,
,,,,,,,,,,,,a,0.507,Incorrect,,,,,,t5.png,t3.png,2,0.056466,20,Female,2020-09-24_14h19.03.737,torte-2b,2020.1.3,MacIntel,60,13224,,,,,0,119,119,108,1,,,,,,,,,,,,,,,,,,,,,,,,,,,,,,,,,,,,,,,,,,,,,,,,,,,,,,,,
,,,,,,,,,,,,,,,,,,,,,,,,20,Female,2020-09-24_14h19.03.737,torte-2b,2020.1.3,MacIntel,60,13224,space,5.92,,,,,,,,space,23.62,,0,0,0,0,1,6,,,,,,,,,,,,,,,,,,,,,,,,,,,,,,,,,,,,,,,,,,,,,,,
,,,,,,,,,,,,,,,,,,,,,,,,20,Female,2020-09-24_14h19.03.737,torte-2b,2020.1.3,MacIntel,60,13224,,,,,,,,,,,,,0,1,1,1,1,7,,,,,,,,,,,,,,,,,,,,,,,,,,,,,,,,,,,,,,,,,,,,,,,
,,,,,,,,,,,,,,,,,,,,,,,,20,Female,2020-09-24_14h19.03.737,torte-2b,2020.1.3,MacIntel,60,13224,,,,,,,,,,,,space,0,2,2,2,1,6,0.366,,,,,,,,,,,,,,,,,,,,,,,,,,,,,,,,,,,,,,,,,,,,,,
,,,,,,,,,,,,,,,,,,,,,,,,20,Female,2020-09-24_14h19.03.737,torte-2b,2020.1.3,MacIntel,60,13224,,,,,,,,,,,,space,0,3,3,3,1,7,0.348,,,,,,,,,,,,,,,,,,,,,,,,,,,,,,,,,,,,,,,,,,,,,,
,,,,,,,,,,,,,,,,,,,,,,,,20,Female,2020-09-24_14h19.03.737,torte-2b,2020.1.3,MacIntel,60,13224,,,,,,,,,,,,space,0,4,4,4,1,5,0.568,,,,,,,,,,,,,,,,,,,,,,,,,,,,,,,,,,,,,,,,,,,,,,
,,,,,,,,,,,,,,,,,,,,,,,,20,Female,2020-09-24_14h19.03.737,torte-2b,2020.1.3,MacIntel,60,13224,,,,,,,,,,,,space,0,5,5,5,1,7,0.881,,,,,,,,,,,,,,,,,,,,,,,,,,,,,,,,,,,,,,,,,,,,,,
,,,,,,,,,,,,,,,,,,,,,,,,20,Female,2020-09-24_14h19.03.737,torte-2b,2020.1.3,MacIntel,60,13224,,,,,,,,,,,,space,0,6,6,6,1,2,0.237,,,,,,,,,,,,,,,,,,,,,,,,,,,,,,,,,,,,,,,,,,,,,,
,,,,,,,,,,,,,,,,,,,,,,,,20,Female,2020-09-24_14h19.03.737,torte-2b,2020.1.3,MacIntel,60,13224,,,,,,,,,,,,space,0,7,7,7,1,4,0.33,,,,,,,,,,,,,,,,,,,,,,,,,,,,,,,,,,,,,,,,,,,,,,
,,,,,,,,,,,,,,,,,,,,,,,,20,Female,2020-09-24_14h19.03.737,torte-2b,2020.1.3,MacIntel,60,13224,,,,,,,,,,,,,0,8,8,8,1,7,,,,,,,,,,,,,,,,,,,,,,,,,,,,,,,,,,,,,,,,,,,,,,,
,,,,,,,,,,,,,,,,,,,,,,,,20,Female,2020-09-24_14h19.03.737,torte-2b,2020.1.3,MacIntel,60,13224,,,,,,,,,,,,,0,9,9,9,1,4,,,,,,,,,,,,,,,,,,,,,,,,,,,,,,,,,,,,,,,,,,,,,,,
,,,,,,,,,,,,,,,,,,,,,,,,20,Female,2020-09-24_14h19.03.737,torte-2b,2020.1.3,MacIntel,60,13224,,,,,,,,,,,,space,0,10,10,10,1,7,0.356,,,,,,,,,,,,,,,,,,,,,,,,,,,,,,,,,,,,,,,,,,,,,,
,,,,,,,,,,,,,,,,,,,,,,,,20,Female,2020-09-24_14h19.03.737,torte-2b,2020.1.3,MacIntel,60,13224,,,,,,,,,,,,,0,11,11,11,1,7,,,,,,,,,,,,,,,,,,,,,,,,,,,,,,,,,,,,,,,,,,,,,,,
,,,,,,,,,,,,,,,,,,,,,,,,20,Female,2020-09-24_14h19.03.737,torte-2b,2020.1.3,MacIntel,60,13224,,,,,,,,,,,,space,0,12,12,12,1,7,0.356,,,,,,,,,,,,,,,,,,,,,,,,,,,,,,,,,,,,,,,,,,,,,,
,,,,,,,,,,,,,,,,,,,,,,,,20,Female,2020-09-24_14h19.03.737,torte-2b,2020.1.3,MacIntel,60,13224,,,,,,,,,,,,,0,13,13,13,1,4,,,,,,,,,,,,,,,,,,,,,,,,,,,,,,,,,,,,,,,,,,,,,,,
,,,,,,,,,,,,,,,,,,,,,,,,20,Female,2020-09-24_14h19.03.737,torte-2b,2020.1.3,MacIntel,60,13224,,,,,,,,,,,,space,0,14,14,14,1,6,0.565,,,,,,,,,,,,,,,,,,,,,,,,,,,,,,,,,,,,,,,,,,,,,,
,,,,,,,,,,,,,,,,,,,,,,,,20,Female,2020-09-24_14h19.03.737,torte-2b,2020.1.3,MacIntel,60,13224,,,,,,,,,,,,,0,15,15,15,1,4,,,,,,,,,,,,,,,,,,,,,,,,,,,,,,,,,,,,,,,,,,,,,,,
,,,,,,,,,,,,,,,,,,,,,,,,20,Female,2020-09-24_14h19.03.737,torte-2b,2020.1.3,MacIntel,60,13224,,,,,,,,,,,,space,0,16,16,16,1,6,0.338,,,,,,,,,,,,,,,,,,,,,,,,,,,,,,,,,,,,,,,,,,,,,,
,,,,,,,,,,,,,,,,,,,,,,,,20,Female,2020-09-24_14h19.03.737,torte-2b,2020.1.3,MacIntel,60,13224,,,,,,,,,,,,space,0,17,17,17,1,7,0.503,,,,,,,,,,,,,,,,,,,,,,,,,,,,,,,,,,,,,,,,,,,,,,
,,,,,,,,,,,,,,,,,,,,,,,,20,Female,2020-09-24_14h19.03.737,torte-2b,2020.1.3,MacIntel,60,13224,,,,,,,,,,,,space,0,18,18,18,1,6,0.501,,,,,,,,,,,,,,,,,,,,,,,,,,,,,,,,,,,,,,,,,,,,,,
,,,,,,,,,,,,,,,,,,,,,,,,20,Female,2020-09-24_14h19.03.737,torte-2b,2020.1.3,MacIntel,60,13224,,,,,,,,,,,,space,0,19,19,19,1,7,0.348,,,,,,,,,,,,,,,,,,,,,,,,,,,,,,,,,,,,,,,,,,,,,,
,,,,,,,,,,,,,,,,,,,,,,,,20,Female,2020-09-24_14h19.03.737,torte-2b,2020.1.3,MacIntel,60,13224,,,,,,,,,,,,,0,20,20,20,1,5,,,,,,,,,,,,,,,,,,,,,,,,,,,,,,,,,,,,,,,,,,,,,,,
,,,,,,,,,,,,,,,,,,,,,,,,20,Female,2020-09-24_14h19.03.737,torte-2b,2020.1.3,MacIntel,60,13224,,,,,,,,,,,,,0,21,21,21,1,1,,,,,,,,,,,,,,,,,,,,,,,,,,,,,,,,,,,,,,,,,,,,,,,
,,,,,,,,,,,,,,,,,,,,,,,,20,Female,2020-09-24_14h19.03.737,torte-2b,2020.1.3,MacIntel,60,13224,,,,,,,,,,,,space,0,22,22,22,1,6,0.338,,,,,,,,,,,,,,,,,,,,,,,,,,,,,,,,,,,,,,,,,,,,,,
,,,,,,,,,,,,,,,,,,,,,,,,20,Female,2020-09-24_14h19.03.737,torte-2b,2020.1.3,MacIntel,60,13224,,,,,,,,,,,,space,0,23,23,23,1,1,0.52,,,,,,,,,,,,,,,,,,,,,,,,,,,,,,,,,,,,,,,,,,,,,,
,,,,,,,,,,,,,,,,,,,,,,,,20,Female,2020-09-24_14h19.03.737,torte-2b,2020.1.3,MacIntel,60,13224,,,,,,,,,,,,,0,24,24,24,1,5,,,,,,,,,,,,,,,,,,,,,,,,,,,,,,,,,,,,,,,,,,,,,,,
,,,,,,,,,,,,,,,,,,,,,,,,20,Female,2020-09-24_14h19.03.737,torte-2b,2020.1.3,MacIntel,60,13224,,,,,,,,,,,,,0,25,25,25,1,6,,,,,,,,,,,,,,,,,,,,,,,,,,,,,,,,,,,,,,,,,,,,,,,
,,,,,,,,,,,,,,,,,,,,,,,,20,Female,2020-09-24_14h19.03.737,torte-2b,2020.1.3,MacIntel,60,13224,,,,,,,,,,,,,0,26,26,26,1,6,,,,,,,,,,,,,,,,,,,,,,,,,,,,,,,,,,,,,,,,,,,,,,,
,,,,,,,,,,,,,,,,,,,,,,,,20,Female,2020-09-24_14h19.03.737,torte-2b,2020.1.3,MacIntel,60,13224,,,,,,,,,,,,space,0,27,27,27,1,6,0.322,,,,,,,,,,,,,,,,,,,,,,,,,,,,,,,,,,,,,,,,,,,,,,
,,,,,,,,,,,,,,,,,,,,,,,,20,Female,2020-09-24_14h19.03.737,torte-2b,2020.1.3,MacIntel,60,13224,,,,,,,,,,,,,0,28,28,28,1,5,,,,,,,,,,,,,,,,,,,,,,,,,,,,,,,,,,,,,,,,,,,,,,,
,,,,,,,,,,,,,,,,,,,,,,,,20,Female,2020-09-24_14h19.03.737,torte-2b,2020.1.3,MacIntel,60,13224,,,,,,,,,,,,,0,29,29,29,1,2,,,,,,,,,,,,,,,,,,,,,,,,,,,,,,,,,,,,,,,,,,,,,,,
,,,,,,,,,,,,,,,,,,,,,,,,20,Female,2020-09-24_14h19.03.737,torte-2b,2020.1.3,MacIntel,60,13224,,,,,,,,,,,,space,0,30,30,30,1,5,0.43,,,,,,,,,,,,,,,,,,,,,,,,,,,,,,,,,,,,,,,,,,,,,,
,,,,,,,,,,,,,,,,,,,,,,,,20,Female,2020-09-24_14h19.03.737,torte-2b,2020.1.3,MacIntel,60,13224,,,,,,,,,,,,space,0,31,31,31,1,2,0.437,,,,,,,,,,,,,,,,,,,,,,,,,,,,,,,,,,,,,,,,,,,,,,
,,,,,,,,,,,,,,,,,,,,,,,,20,Female,2020-09-24_14h19.03.737,torte-2b,2020.1.3,MacIntel,60,13224,,,,,,,,,,,,space,0,32,32,32,1,5,0.331,,,,,,,,,,,,,,,,,,,,,,,,,,,,,,,,,,,,,,,,,,,,,,
,,,,,,,,,,,,,,,,,,,,,,,,20,Female,2020-09-24_14h19.03.737,torte-2b,2020.1.3,MacIntel,60,13224,,,,,,,,,,,,,0,33,33,33,1,1,,,,,,,,,,,,,,,,,,,,,,,,,,,,,,,,,,,,,,,,,,,,,,,
,,,,,,,,,,,,,,,,,,,,,,,,20,Female,2020-09-24_14h19.03.737,torte-2b,2020.1.3,MacIntel,60,13224,,,,,,,,,,,,space,0,34,34,34,1,1,0.368,,,,,,,,,,,,,,,,,,,,,,,,,,,,,,,,,,,,,,,,,,,,,,
,,,,,,,,,,,,,,,,,,,,,,,,20,Female,2020-09-24_14h19.03.737,torte-2b,2020.1.3,MacIntel,60,13224,,,,,,,,,,,,,,,,,,2,,0,0,0,0,1,,,,,,,,,,,,,,,,,,,,,,,,,,,,,,,,,,,,,,,,,
,,,,,,,,,,,,,,,,,,,,,,,,20,Female,2020-09-24_14h19.03.737,torte-2b,2020.1.3,MacIntel,60,13224,,,,,,,,,,,,,,,,,,2,,0,1,1,1,1,,,,,,,,,,,,,,,,,,,,,,,,,,,,,,,,,,,,,,,,,
,,,,,,,,,,,,,,,,,,,,,,,,20,Female,2020-09-24_14h19.03.737,torte-2b,2020.1.3,MacIntel,60,13224,,,,,,,,,,,,,,,,,,6,,0,2,2,2,1,,,,,,,,,,,,,,,,,,,,,,,,,,,,,,,,,,,,,,,,,
,,,,,,,,,,,,,,,,,,,,,,,,20,Female,2020-09-24_14h19.03.737,torte-2b,2020.1.3,MacIntel,60,13224,,,,,,,,,,,,space,,,,,,2,0.487,0,3,3,3,1,,,,,,,,,,,,,,,,,,,,,,,,,,,,,,,,,,,,,,,,,
,,,,,,,,,,,,,,,,,,,,,,,,20,Female,2020-09-24_14h19.03.737,torte-2b,2020.1.3,MacIntel,60,13224,,,,,,,,,,,,space,,,,,,6,0.388,0,4,4,4,1,,,,,,,,,,,,,,,,,,,,,,,,,,,,,,,,,,,,,,,,,
,,,,,,,,,,,,,,,,,,,,,,,,20,Female,2020-09-24_14h19.03.737,torte-2b,2020.1.3,MacIntel,60,13224,,,,,,,,,,,,space,,,,,,2,0.398,0,5,5,5,1,,,,,,,,,,,,,,,,,,,,,,,,,,,,,,,,,,,,,,,,,
,,,,,,,,,,,,,,,,,,,,,,,,20,Female,2020-09-24_14h19.03.737,torte-2b,2020.1.3,MacIntel,60,13224,,,,,,,,,,,,,,,,,,7,,0,6,6,6,1,,,,,,,,,,,,,,,,,,,,,,,,,,,,,,,,,,,,,,,,,
,,,,,,,,,,,,,,,,,,,,,,,,20,Female,2020-09-24_14h19.03.737,torte-2b,2020.1.3,MacIntel,60,13224,,,,,,,,,,,,space,,,,,,2,0.399,0,7,7,7,1,,,,,,,,,,,,,,,,,,,,,,,,,,,,,,,,,,,,,,,,,
,,,,,,,,,,,,,,,,,,,,,,,,20,Female,2020-09-24_14h19.03.737,torte-2b,2020.1.3,MacIntel,60,13224,,,,,,,,,,,,space,,,,,,7,0.284,0,8,8,8,1,,,,,,,,,,,,,,,,,,,,,,,,,,,,,,,,,,,,,,,,,
,,,,,,,,,,,,,,,,,,,,,,,,20,Female,2020-09-24_14h19.03.737,torte-2b,2020.1.3,MacIntel,60,13224,,,,,,,,,,,,space,,,,,,2,0.4,0,9,9,9,1,,,,,,,,,,,,,,,,,,,,,,,,,,,,,,,,,,,,,,,,,
,,,,,,,,,,,,,,,,,,,,,,,,20,Female,2020-09-24_14h19.03.737,torte-2b,2020.1.3,MacIntel,60,13224,,,,,,,,,,,,,,,,,,5,,0,10,10,10,1,,,,,,,,,,,,,,,,,,,,,,,,,,,,,,,,,,,,,,,,,
,,,,,,,,,,,,,,,,,,,,,,,,20,Female,2020-09-24_14h19.03.737,torte-2b,2020.1.3,MacIntel,60,13224,,,,,,,,,,,,,,,,,,4,,0,11,11,11,1,,,,,,,,,,,,,,,,,,,,,,,,,,,,,,,,,,,,,,,,,
,,,,,,,,,,,,,,,,,,,,,,,,20,Female,2020-09-24_14h19.03.737,torte-2b,2020.1.3,MacIntel,60,13224,,,,,,,,,,,,space,,,,,,5,0.273,0,12,12,12,1,,,,,,,,,,,,,,,,,,,,,,,,,,,,,,,,,,,,,,,,,
,,,,,,,,,,,,,,,,,,,,,,,,20,Female,2020-09-24_14h19.03.737,torte-2b,2020.1.3,MacIntel,60,13224,,,,,,,,,,,,,,,,,,6,,0,13,13,13,1,,,,,,,,,,,,,,,,,,,,,,,,,,,,,,,,,,,,,,,,,
,,,,,,,,,,,,,,,,,,,,,,,,20,Female,2020-09-24_14h19.03.737,torte-2b,2020.1.3,MacIntel,60,13224,,,,,,,,,,,,space,,,,,,5,0.347,0,14,14,14,1,,,,,,,,,,,,,,,,,,,,,,,,,,,,,,,,,,,,,,,,,
,,,,,,,,,,,,,,,,,,,,,,,,20,Female,2020-09-24_14h19.03.737,torte-2b,2020.1.3,MacIntel,60,13224,,,,,,,,,,,,,,,,,,4,,0,15,15,15,1,,,,,,,,,,,,,,,,,,,,,,,,,,,,,,,,,,,,,,,,,
,,,,,,,,,,,,,,,,,,,,,,,,20,Female,2020-09-24_14h19.03.737,torte-2b,2020.1.3,MacIntel,60,13224,,,,,,,,,,,,,,,,,,5,,0,16,16,16,1,,,,,,,,,,,,,,,,,,,,,,,,,,,,,,,,,,,,,,,,,
,,,,,,,,,,,,,,,,,,,,,,,,20,Female,2020-09-24_14h19.03.737,torte-2b,2020.1.3,MacIntel,60,13224,,,,,,,,,,,,,,,,,,3,,0,17,17,17,1,,,,,,,,,,,,,,,,,,,,,,,,,,,,,,,,,,,,,,,,,
,,,,,,,,,,,,,,,,,,,,,,,,20,Female,2020-09-24_14h19.03.737,torte-2b,2020.1.3,MacIntel,60,13224,,,,,,,,,,,,,,,,,,6,,0,18,18,18,1,,,,,,,,,,,,,,,,,,,,,,,,,,,,,,,,,,,,,,,,,
,,,,,,,,,,,,,,,,,,,,,,,,20,Female,2020-09-24_14h19.03.737,torte-2b,2020.1.3,MacIntel,60,13224,,,,,,,,,,,,space,,,,,,6,0.419,0,19,19,19,1,,,,,,,,,,,,,,,,,,,,,,,,,,,,,,,,,,,,,,,,,
,,,,,,,,,,,,,,,,,,,,,,,,20,Female,2020-09-24_14h19.03.737,torte-2b,2020.1.3,MacIntel,60,13224,,,,,,,,,,,,space,,,,,,6,0.423,0,20,20,20,1,,,,,,,,,,,,,,,,,,,,,,,,,,,,,,,,,,,,,,,,,
,,,,,,,,,,,,,,,,,,,,,,,,20,Female,2020-09-24_14h19.03.737,torte-2b,2020.1.3,MacIntel,60,13224,,,,,,,,,,,,,,,,,,4,,0,21,21,21,1,,,,,,,,,,,,,,,,,,,,,,,,,,,,,,,,,,,,,,,,,
,,,,,,,,,,,,,,,,,,,,,,,,20,Female,2020-09-24_14h19.03.737,torte-2b,2020.1.3,MacIntel,60,13224,,,,,,,,,,,,space,,,,,,6,0.347,0,22,22,22,1,,,,,,,,,,,,,,,,,,,,,,,,,,,,,,,,,,,,,,,,,
,,,,,,,,,,,,,,,,,,,,,,,,20,Female,2020-09-24_14h19.03.737,torte-2b,2020.1.3,MacIntel,60,13224,,,,,,,,,,,,space,,,,,,4,0.618,0,23,23,23,1,,,,,,,,,,,,,,,,,,,,,,,,,,,,,,,,,,,,,,,,,
,,,,,,,,,,,,,,,,,,,,,,,,20,Female,2020-09-24_14h19.03.737,torte-2b,2020.1.3,MacIntel,60,13224,,,,,,,,,,,,space,,,,,,6,0.472,0,24,24,24,1,,,,,,,,,,,,,,,,,,,,,,,,,,,,,,,,,,,,,,,,,
,,,,,,,,,,,,,,,,,,,,,,,,20,Female,2020-09-24_14h19.03.737,torte-2b,2020.1.3,MacIntel,60,13224,,,,,,,,,,,,space,,,,,,6,0.397,0,25,25,25,1,,,,,,,,,,,,,,,,,,,,,,,,,,,,,,,,,,,,,,,,,
,,,,,,,,,,,,,,,,,,,,,,,,20,Female,2020-09-24_14h19.03.737,torte-2b,2020.1.3,MacIntel,60,13224,,,,,,,,,,,,,,,,,,7,,0,26,26,26,1,,,,,,,,,,,,,,,,,,,,,,,,,,,,,,,,,,,,,,,,,
,,,,,,,,,,,,,,,,,,,,,,,,20,Female,2020-09-24_14h19.03.737,torte-2b,2020.1.3,MacIntel,60,13224,,,,,,,,,,,,,,,,,,1,,0,27,27,27,1,,,,,,,,,,,,,,,,,,,,,,,,,,,,,,,,,,,,,,,,,
,,,,,,,,,,,,,,,,,,,,,,,,20,Female,2020-09-24_14h19.03.737,torte-2b,2020.1.3,MacIntel,60,13224,,,,,,,,,,,,space,,,,,,7,0.267,0,28,28,28,1,,,,,,,,,,,,,,,,,,,,,,,,,,,,,,,,,,,,,,,,,
,,,,,,,,,,,,,,,,,,,,,,,,20,Female,2020-09-24_14h19.03.737,torte-2b,2020.1.3,MacIntel,60,13224,,,,,,,,,,,,,,,,,,4,,0,29,29,29,1,,,,,,,,,,,,,,,,,,,,,,,,,,,,,,,,,,,,,,,,,
,,,,,,,,,,,,,,,,,,,,,,,,20,Female,2020-09-24_14h19.03.737,torte-2b,2020.1.3,MacIntel,60,13224,,,,,,,,,,,,space,,,,,,7,0.388,0,30,30,30,1,,,,,,,,,,,,,,,,,,,,,,,,,,,,,,,,,,,,,,,,,
,,,,,,,,,,,,,,,,,,,,,,,,20,Female,2020-09-24_14h19.03.737,torte-2b,2020.1.3,MacIntel,60,13224,,,,,,,,,,,,,,,,,,3,,0,31,31,31,1,,,,,,,,,,,,,,,,,,,,,,,,,,,,,,,,,,,,,,,,,
,,,,,,,,,,,,,,,,,,,,,,,,20,Female,2020-09-24_14h19.03.737,torte-2b,2020.1.3,MacIntel,60,13224,,,,,,,,,,,,,,,,,,2,,0,32,32,32,1,,,,,,,,,,,,,,,,,,,,,,,,,,,,,,,,,,,,,,,,,
,,,,,,,,,,,,,,,,,,,,,,,,20,Female,2020-09-24_14h19.03.737,torte-2b,2020.1.3,MacIntel,60,13224,,,,,,,,,,,,space,,,,,,6,0.221,0,33,33,33,1,,,,,,,,,,,,,,,,,,,,,,,,,,,,,,,,,,,,,,,,,
,,,,,,,,,,,,,,,,,,,,,,,,20,Female,2020-09-24_14h19.03.737,torte-2b,2020.1.3,MacIntel,60,13224,,,,,,,,,,,,space,,,,,,3,0.812,0,34,34,34,1,,,,,,,,,,,,,,,,,,,,,,,,,,,,,,,,,,,,,,,,,
,,,,,,,,,,,,,,,,,,,,,,,,20,Female,2020-09-24_14h19.03.737,torte-2b,2020.1.3,MacIntel,60,13224,,,,,,,,,,,,,,,,,,7,,,,,,,0,0,0,0,1,,,,,,,,,,,,,,,,,,,,,,,,,,,,,,,,,,,,
,,,,,,,,,,,,,,,,,,,,,,,,20,Female,2020-09-24_14h19.03.737,torte-2b,2020.1.3,MacIntel,60,13224,,,,,,,,,,,,,,,,,,5,,,,,,,0,1,1,1,1,,,,,,,,,,,,,,,,,,,,,,,,,,,,,,,,,,,,
,,,,,,,,,,,,,,,,,,,,,,,,20,Female,2020-09-24_14h19.03.737,torte-2b,2020.1.3,MacIntel,60,13224,,,,,,,,,,,,,,,,,,4,,,,,,,0,2,2,2,1,,,,,,,,,,,,,,,,,,,,,,,,,,,,,,,,,,,,
,,,,,,,,,,,,,,,,,,,,,,,,20,Female,2020-09-24_14h19.03.737,torte-2b,2020.1.3,MacIntel,60,13224,,,,,,,,,,,,space,,,,,,5,0.466,,,,,,0,3,3,3,1,,,,,,,,,,,,,,,,,,,,,,,,,,,,,,,,,,,,
,,,,,,,,,,,,,,,,,,,,,,,,20,Female,2020-09-24_14h19.03.737,torte-2b,2020.1.3,MacIntel,60,13224,,,,,,,,,,,,,,,,,,6,,,,,,,0,4,4,4,1,,,,,,,,,,,,,,,,,,,,,,,,,,,,,,,,,,,,
,,,,,,,,,,,,,,,,,,,,,,,,20,Female,2020-09-24_14h19.03.737,torte-2b,2020.1.3,MacIntel,60,13224,,,,,,,,,,,,space,,,,,,5,0.982,,,,,,0,5,5,5,1,,,,,,,,,,,,,,,,,,,,,,,,,,,,,,,,,,,,
,,,,,,,,,,,,,,,,,,,,,,,,20,Female,2020-09-24_14h19.03.737,torte-2b,2020.1.3,MacIntel,60,13224,,,,,,,,,,,,,,,,,,3,,,,,,,0,6,6,6,1,,,,,,,,,,,,,,,,,,,,,,,,,,,,,,,,,,,,
,,,,,,,,,,,,,,,,,,,,,,,,20,Female,2020-09-24_14h19.03.737,torte-2b,2020.1.3,MacIntel,60,13224,,,,,,,,,,,,,,,,,,4,,,,,,,0,7,7,7,1,,,,,,,,,,,,,,,,,,,,,,,,,,,,,,,,,,,,
,,,,,,,,,,,,,,,,,,,,,,,,20,Female,2020-09-24_14h19.03.737,torte-2b,2020.1.3,MacIntel,60,13224,,,,,,,,,,,,space,,,,,,3,0.437,,,,,,0,8,8,8,1,,,,,,,,,,,,,,,,,,,,,,,,,,,,,,,,,,,,
,,,,,,,,,,,,,,,,,,,,,,,,20,Female,2020-09-24_14h19.03.737,torte-2b,2020.1.3,MacIntel,60,13224,,,,,,,,,,,,,,,,,,1,,,,,,,0,9,9,9,1,,,,,,,,,,,,,,,,,,,,,,,,,,,,,,,,,,,,
,,,,,,,,,,,,,,,,,,,,,,,,20,Female,2020-09-24_14h19.03.737,torte-2b,2020.1.3,MacIntel,60,13224,,,,,,,,,,,,,,,,,,2,,,,,,,0,10,10,10,1,,,,,,,,,,,,,,,,,,,,,,,,,,,,,,,,,,,,
,,,,,,,,,,,,,,,,,,,,,,,,20,Female,2020-09-24_14h19.03.737,torte-2b,2020.1.3,MacIntel,60,13224,,,,,,,,,,,,,,,,,,1,,,,,,,0,11,11,11,1,,,,,,,,,,,,,,,,,,,,,,,,,,,,,,,,,,,,
,,,,,,,,,,,,,,,,,,,,,,,,20,Female,2020-09-24_14h19.03.737,torte-2b,2020.1.3,MacIntel,60,13224,,,,,,,,,,,,space,,,,,,2,0.622,,,,,,0,12,12,12,1,,,,,,,,,,,,,,,,,,,,,,,,,,,,,,,,,,,,
,,,,,,,,,,,,,,,,,,,,,,,,20,Female,2020-09-24_14h19.03.737,torte-2b,2020.1.3,MacIntel,60,13224,,,,,,,,,,,,space,,,,,,1,0.415,,,,,,0,13,13,13,1,,,,,,,,,,,,,,,,,,,,,,,,,,,,,,,,,,,,
,,,,,,,,,,,,,,,,,,,,,,,,20,Female,2020-09-24_14h19.03.737,torte-2b,2020.1.3,MacIntel,60,13224,,,,,,,,,,,,,,,,,,3,,,,,,,0,14,14,14,1,,,,,,,,,,,,,,,,,,,,,,,,,,,,,,,,,,,,
,,,,,,,,,,,,,,,,,,,,,,,,20,Female,2020-09-24_14h19.03.737,torte-2b,2020.1.3,MacIntel,60,13224,,,,,,,,,,,,space,,,,,,1,0.33,,,,,,0,15,15,15,1,,,,,,,,,,,,,,,,,,,,,,,,,,,,,,,,,,,,
,,,,,,,,,,,,,,,,,,,,,,,,20,Female,2020-09-24_14h19.03.737,torte-2b,2020.1.3,MacIntel,60,13224,,,,,,,,,,,,,,,,,,7,,,,,,,0,16,16,16,1,,,,,,,,,,,,,,,,,,,,,,,,,,,,,,,,,,,,
,,,,,,,,,,,,,,,,,,,,,,,,20,Female,2020-09-24_14h19.03.737,torte-2b,2020.1.3,MacIntel,60,13224,,,,,,,,,,,,space,,,,,,7,0.665,,,,,,0,17,17,17,1,,,,,,,,,,,,,,,,,,,,,,,,,,,,,,,,,,,,
,,,,,,,,,,,,,,,,,,,,,,,,20,Female,2020-09-24_14h19.03.737,torte-2b,2020.1.3,MacIntel,60,13224,,,,,,,,,,,,,,,,,,4,,,,,,,0,18,18,18,1,,,,,,,,,,,,,,,,,,,,,,,,,,,,,,,,,,,,
,,,,,,,,,,,,,,,,,,,,,,,,20,Female,2020-09-24_14h19.03.737,torte-2b,2020.1.3,MacIntel,60,13224,,,,,,,,,,,,space,,,,,,7,0.439,,,,,,0,19,19,19,1,,,,,,,,,,,,,,,,,,,,,,,,,,,,,,,,,,,,
,,,,,,,,,,,,,,,,,,,,,,,,20,Female,2020-09-24_14h19.03.737,torte-2b,2020.1.3,MacIntel,60,13224,,,,,,,,,,,,,,,,,,3,,,,,,,0,20,20,20,1,,,,,,,,,,,,,,,,,,,,,,,,,,,,,,,,,,,,
,,,,,,,,,,,,,,,,,,,,,,,,20,Female,2020-09-24_14h19.03.737,torte-2b,2020.1.3,MacIntel,60,13224,,,,,,,,,,,,space,,,,,,7,0.698,,,,,,0,21,21,21,1,,,,,,,,,,,,,,,,,,,,,,,,,,,,,,,,,,,,
,,,,,,,,,,,,,,,,,,,,,,,,20,Female,2020-09-24_14h19.03.737,torte-2b,2020.1.3,MacIntel,60,13224,,,,,,,,,,,,,,,,,,3,,,,,,,0,22,22,22,1,,,,,,,,,,,,,,,,,,,,,,,,,,,,,,,,,,,,
,,,,,,,,,,,,,,,,,,,,,,,,20,Female,2020-09-24_14h19.03.737,torte-2b,2020.1.3,MacIntel,60,13224,,,,,,,,,,,,,,,,,,1,,,,,,,0,23,23,23,1,,,,,,,,,,,,,,,,,,,,,,,,,,,,,,,,,,,,
,,,,,,,,,,,,,,,,,,,,,,,,20,Female,2020-09-24_14h19.03.737,torte-2b,2020.1.3,MacIntel,60,13224,,,,,,,,,,,,,,,,,,6,,,,,,,0,24,24,24,1,,,,,,,,,,,,,,,,,,,,,,,,,,,,,,,,,,,,
,,,,,,,,,,,,,,,,,,,,,,,,20,Female,2020-09-24_14h19.03.737,torte-2b,2020.1.3,MacIntel,60,13224,,,,,,,,,,,,,,,,,,3,,,,,,,0,25,25,25,1,,,,,,,,,,,,,,,,,,,,,,,,,,,,,,,,,,,,
,,,,,,,,,,,,,,,,,,,,,,,,20,Female,2020-09-24_14h19.03.737,torte-2b,2020.1.3,MacIntel,60,13224,,,,,,,,,,,,,,,,,,2,,,,,,,0,26,26,26,1,,,,,,,,,,,,,,,,,,,,,,,,,,,,,,,,,,,,
,,,,,,,,,,,,,,,,,,,,,,,,20,Female,2020-09-24_14h19.03.737,torte-2b,2020.1.3,MacIntel,60,13224,,,,,,,,,,,,space,,,,,,3,0.33,,,,,,0,27,27,27,1,,,,,,,,,,,,,,,,,,,,,,,,,,,,,,,,,,,,
,,,,,,,,,,,,,,,,,,,,,,,,20,Female,2020-09-24_14h19.03.737,torte-2b,2020.1.3,MacIntel,60,13224,,,,,,,,,,,,,,,,,,1,,,,,,,0,28,28,28,1,,,,,,,,,,,,,,,,,,,,,,,,,,,,,,,,,,,,
,,,,,,,,,,,,,,,,,,,,,,,,20,Female,2020-09-24_14h19.03.737,torte-2b,2020.1.3,MacIntel,60,13224,,,,,,,,,,,,space,,,,,,3,0.549,,,,,,0,29,29,29,1,,,,,,,,,,,,,,,,,,,,,,,,,,,,,,,,,,,,
,,,,,,,,,,,,,,,,,,,,,,,,20,Female,2020-09-24_14h19.03.737,torte-2b,2020.1.3,MacIntel,60,13224,,,,,,,,,,,,space,,,,,,1,0.563,,,,,,0,30,30,30,1,,,,,,,,,,,,,,,,,,,,,,,,,,,,,,,,,,,,
,,,,,,,,,,,,,,,,,,,,,,,,20,Female,2020-09-24_14h19.03.737,torte-2b,2020.1.3,MacIntel,60,13224,,,,,,,,,,,,,,,,,,7,,,,,,,0,31,31,31,1,,,,,,,,,,,,,,,,,,,,,,,,,,,,,,,,,,,,
,,,,,,,,,,,,,,,,,,,,,,,,20,Female,2020-09-24_14h19.03.737,torte-2b,2020.1.3,MacIntel,60,13224,,,,,,,,,,,,space,,,,,,5,0.254,,,,,,0,32,32,32,1,,,,,,,,,,,,,,,,,,,,,,,,,,,,,,,,,,,,
,,,,,,,,,,,,,,,,,,,,,,,,20,Female,2020-09-24_14h19.03.737,torte-2b,2020.1.3,MacIntel,60,13224,,,,,,,,,,,,space,,,,,,7,0.565,,,,,,0,33,33,33,1,,,,,,,,,,,,,,,,,,,,,,,,,,,,,,,,,,,,
,,,,,,,,,,,,,,,,,,,,,,,,20,Female,2020-09-24_14h19.03.737,torte-2b,2020.1.3,MacIntel,60,13224,,,,,,,,,,,,,,,,,,2,,,,,,,0,34,34,34,1,,,,,,,,,,,,,,,,,,,,,,,,,,,,,,,,,,,,
,,,,,,,,,,,,,,,,,,,,,,,,20,Female,2020-09-24_14h19.03.737,torte-2b,2020.1.3,MacIntel,60,13224,,,,,,,,,,,,,,,,,,3,,,,,,,,,,,,0,0,0,0,1,,,,,,,,,,,,,,,,,,,,,,,,,,,,,,,
,,,,,,,,,,,,,,,,,,,,,,,,20,Female,2020-09-24_14h19.03.737,torte-2b,2020.1.3,MacIntel,60,13224,,,,,,,,,,,,,,,,,,7,,,,,,,,,,,,0,1,1,1,1,,,,,,,,,,,,,,,,,,,,,,,,,,,,,,,
,,,,,,,,,,,,,,,,,,,,,,,,20,Female,2020-09-24_14h19.03.737,torte-2b,2020.1.3,MacIntel,60,13224,,,,,,,,,,,,,,,,,,7,,,,,,,,,,,,0,2,2,2,1,,,,,,,,,,,,,,,,,,,,,,,,,,,,,,,
,,,,,,,,,,,,,,,,,,,,,,,,20,Female,2020-09-24_14h19.03.737,torte-2b,2020.1.3,MacIntel,60,13224,,,,,,,,,,,,,,,,,,4,,,,,,,,,,,,0,3,3,3,1,,,,,,,,,,,,,,,,,,,,,,,,,,,,,,,
,,,,,,,,,,,,,,,,,,,,,,,,20,Female,2020-09-24_14h19.03.737,torte-2b,2020.1.3,MacIntel,60,13224,,,,,,,,,,,,,,,,,,5,,,,,,,,,,,,0,4,4,4,1,,,,,,,,,,,,,,,,,,,,,,,,,,,,,,,
,,,,,,,,,,,,,,,,,,,,,,,,20,Female,2020-09-24_14h19.03.737,torte-2b,2020.1.3,MacIntel,60,13224,,,,,,,,,,,,space,,,,,,4,0.665,,,,,,,,,,,0,5,5,5,1,,,,,,,,,,,,,,,,,,,,,,,,,,,,,,,
,,,,,,,,,,,,,,,,,,,,,,,,20,Female,2020-09-24_14h19.03.737,torte-2b,2020.1.3,MacIntel,60,13224,,,,,,,,,,,,,,,,,,2,,,,,,,,,,,,0,6,6,6,1,,,,,,,,,,,,,,,,,,,,,,,,,,,,,,,
,,,,,,,,,,,,,,,,,,,,,,,,20,Female,2020-09-24_14h19.03.737,torte-2b,2020.1.3,MacIntel,60,13224,,,,,,,,,,,,space,,,,,,4,0.651,,,,,,,,,,,0,7,7,7,1,,,,,,,,,,,,,,,,,,,,,,,,,,,,,,,
,,,,,,,,,,,,,,,,,,,,,,,,20,Female,2020-09-24_14h19.03.737,torte-2b,2020.1.3,MacIntel,60,13224,,,,,,,,,,,,space,,,,,,2,0.346,,,,,,,,,,,0,8,8,8,1,,,,,,,,,,,,,,,,,,,,,,,,,,,,,,,
,,,,,,,,,,,,,,,,,,,,,,,,20,Female,2020-09-24_14h19.03.737,torte-2b,2020.1.3,MacIntel,60,13224,,,,,,,,,,,,space,,,,,,2,0.415,,,,,,,,,,,0,9,9,9,1,,,,,,,,,,,,,,,,,,,,,,,,,,,,,,,
,,,,,,,,,,,,,,,,,,,,,,,,20,Female,2020-09-24_14h19.03.737,torte-2b,2020.1.3,MacIntel,60,13224,,,,,,,,,,,,,,,,,,6,,,,,,,,,,,,0,10,10,10,1,,,,,,,,,,,,,,,,,,,,,,,,,,,,,,,
,,,,,,,,,,,,,,,,,,,,,,,,20,Female,2020-09-24_14h19.03.737,torte-2b,2020.1.3,MacIntel,60,13224,,,,,,,,,,,,,,,,,,2,,,,,,,,,,,,0,11,11,11,1,,,,,,,,,,,,,,,,,,,,,,,,,,,,,,,
,,,,,,,,,,,,,,,,,,,,,,,,20,Female,2020-09-24_14h19.03.737,torte-2b,2020.1.3,MacIntel,60,13224,,,,,,,,,,,,space,,,,,,2,0.34,,,,,,,,,,,0,12,12,12,1,,,,,,,,,,,,,,,,,,,,,,,,,,,,,,,
,,,,,,,,,,,,,,,,,,,,,,,,20,Female,2020-09-24_14h19.03.737,torte-2b,2020.1.3,MacIntel,60,13224,,,,,,,,,,,,,,,,,,2,,,,,,,,,,,,0,13,13,13,1,,,,,,,,,,,,,,,,,,,,,,,,,,,,,,,
,,,,,,,,,,,,,,,,,,,,,,,,20,Female,2020-09-24_14h19.03.737,torte-2b,2020.1.3,MacIntel,60,13224,,,,,,,,,,,,space,,,,,,2,0.571,,,,,,,,,,,0,14,14,14,1,,,,,,,,,,,,,,,,,,,,,,,,,,,,,,,
,,,,,,,,,,,,,,,,,,,,,,,,20,Female,2020-09-24_14h19.03.737,torte-2b,2020.1.3,MacIntel,60,13224,,,,,,,,,,,,,,,,,,4,,,,,,,,,,,,0,15,15,15,1,,,,,,,,,,,,,,,,,,,,,,,,,,,,,,,
,,,,,,,,,,,,,,,,,,,,,,,,20,Female,2020-09-24_14h19.03.737,torte-2b,2020.1.3,MacIntel,60,13224,,,,,,,,,,,,,,,,,,3,,,,,,,,,,,,0,16,16,16,1,,,,,,,,,,,,,,,,,,,,,,,,,,,,,,,
,,,,,,,,,,,,,,,,,,,,,,,,20,Female,2020-09-24_14h19.03.737,torte-2b,2020.1.3,MacIntel,60,13224,,,,,,,,,,,,space,,,,,,7,0.365,,,,,,,,,,,0,17,17,17,1,,,,,,,,,,,,,,,,,,,,,,,,,,,,,,,
,,,,,,,,,,,,,,,,,,,,,,,,20,Female,2020-09-24_14h19.03.737,torte-2b,2020.1.3,MacIntel,60,13224,,,,,,,,,,,,space,,,,,,4,0.462,,,,,,,,,,,0,18,18,18,1,,,,,,,,,,,,,,,,,,,,,,,,,,,,,,,
,,,,,,,,,,,,,,,,,,,,,,,,20,Female,2020-09-24_14h19.03.737,torte-2b,2020.1.3,MacIntel,60,13224,,,,,,,,,,,,,,,,,,7,,,,,,,,,,,,0,19,19,19,1,,,,,,,,,,,,,,,,,,,,,,,,,,,,,,,
,,,,,,,,,,,,,,,,,,,,,,,,20,Female,2020-09-24_14h19.03.737,torte-2b,2020.1.3,MacIntel,60,13224,,,,,,,,,,,,space,,,,,,7,0.352,,,,,,,,,,,0,20,20,20,1,,,,,,,,,,,,,,,,,,,,,,,,,,,,,,,
,,,,,,,,,,,,,,,,,,,,,,,,20,Female,2020-09-24_14h19.03.737,torte-2b,2020.1.3,MacIntel,60,13224,,,,,,,,,,,,space,,,,,,7,0.28,,,,,,,,,,,0,21,21,21,1,,,,,,,,,,,,,,,,,,,,,,,,,,,,,,,
,,,,,,,,,,,,,,,,,,,,,,,,20,Female,2020-09-24_14h19.03.737,torte-2b,2020.1.3,MacIntel,60,13224,,,,,,,,,,,,space,,,,,,7,0.531,,,,,,,,,,,0,22,22,22,1,,,,,,,,,,,,,,,,,,,,,,,,,,,,,,,
,,,,,,,,,,,,,,,,,,,,,,,,20,Female,2020-09-24_14h19.03.737,torte-2b,2020.1.3,MacIntel,60,13224,,,,,,,,,,,,space,,,,,,1,0.298,,,,,,,,,,,0,23,23,23,1,,,,,,,,,,,,,,,,,,,,,,,,,,,,,,,
,,,,,,,,,,,,,,,,,,,,,,,,20,Female,2020-09-24_14h19.03.737,torte-2b,2020.1.3,MacIntel,60,13224,,,,,,,,,,,,,,,,,,7,,,,,,,,,,,,0,24,24,24,1,,,,,,,,,,,,,,,,,,,,,,,,,,,,,,,
,,,,,,,,,,,,,,,,,,,,,,,,20,Female,2020-09-24_14h19.03.737,torte-2b,2020.1.3,MacIntel,60,13224,,,,,,,,,,,,space,,,,,,1,0.332,,,,,,,,,,,0,25,25,25,1,,,,,,,,,,,,,,,,,,,,,,,,,,,,,,,
,,,,,,,,,,,,,,,,,,,,,,,,20,Female,2020-09-24_14h19.03.737,torte-2b,2020.1.3,MacIntel,60,13224,,,,,,,,,,,,space,,,,,,7,0.419,,,,,,,,,,,0,26,26,26,1,,,,,,,,,,,,,,,,,,,,,,,,,,,,,,,
,,,,,,,,,,,,,,,,,,,,,,,,20,Female,2020-09-24_14h19.03.737,torte-2b,2020.1.3,MacIntel,60,13224,,,,,,,,,,,,,,,,,,2,,,,,,,,,,,,0,27,27,27,1,,,,,,,,,,,,,,,,,,,,,,,,,,,,,,,
,,,,,,,,,,,,,,,,,,,,,,,,20,Female,2020-09-24_14h19.03.737,torte-2b,2020.1.3,MacIntel,60,13224,,,,,,,,,,,,,,,,,,5,,,,,,,,,,,,0,28,28,28,1,,,,,,,,,,,,,,,,,,,,,,,,,,,,,,,
,,,,,,,,,,,,,,,,,,,,,,,,20,Female,2020-09-24_14h19.03.737,torte-2b,2020.1.3,MacIntel,60,13224,,,,,,,,,,,,space,,,,,,5,0.267,,,,,,,,,,,0,29,29,29,1,,,,,,,,,,,,,,,,,,,,,,,,,,,,,,,
,,,,,,,,,,,,,,,,,,,,,,,,20,Female,2020-09-24_14h19.03.737,torte-2b,2020.1.3,MacIntel,60,13224,,,,,,,,,,,,space,,,,,,5,0.364,,,,,,,,,,,0,30,30,30,1,,,,,,,,,,,,,,,,,,,,,,,,,,,,,,,
,,,,,,,,,,,,,,,,,,,,,,,,20,Female,2020-09-24_14h19.03.737,torte-2b,2020.1.3,MacIntel,60,13224,,,,,,,,,,,,,,,,,,1,,,,,,,,,,,,0,31,31,31,1,,,,,,,,,,,,,,,,,,,,,,,,,,,,,,,
,,,,,,,,,,,,,,,,,,,,,,,,20,Female,2020-09-24_14h19.03.737,torte-2b,2020.1.3,MacIntel,60,13224,,,,,,,,,,,,space,,,,,,5,0.315,,,,,,,,,,,0,32,32,32,1,,,,,,,,,,,,,,,,,,,,,,,,,,,,,,,
,,,,,,,,,,,,,,,,,,,,,,,,20,Female,2020-09-24_14h19.03.737,torte-2b,2020.1.3,MacIntel,60,13224,,,,,,,,,,,,space,,,,,,3,0.249,,,,,,,,,,,0,33,33,33,1,,,,,,,,,,,,,,,,,,,,,,,,,,,,,,,
,,,,,,,,,,,,,,,,,,,,,,,,20,Female,2020-09-24_14h19.03.737,torte-2b,2020.1.3,MacIntel,60,13224,,,,,,,,,,,,,,,,,,3,,,,,,,,,,,,0,34,34,34,1,,,,,,,,,,,,,,,,,,,,,,,,,,,,,,,
,,,,,,,,,,,,a,0.716,Incorrect,,,,,,t3.png,t1.png,2,0.056466,20,Female,2020-09-24_14h19.03.737,torte-2b,2020.1.3,MacIntel,60,13224,space,3.324,,,,,,,,,,,,,,,,,,,,,,,,,,,,,,,,,space,30.416,0,0,0,0,1,,,,,,,,,,,,,,,,,,,,,,,,
,,,,,,,,,,,,a,0.538,Incorrect,,,,,,t5.png,t2.png,3,0.0000131,20,Female,2020-09-24_14h19.03.737,torte-2b,2020.1.3,MacIntel,60,13224,,,,,,,,,,,,,,,,,,,,,,,,,,,,,,,,,,,,,0,1,1,116,1,,,,,,,,,,,,,,,,,,,,,,,,
,,,,,,,,,,,,l,0.519,Incorrect,,,,,,t1.png,t2.png,1,0.90025,20,Female,2020-09-24_14h19.03.737,torte-2b,2020.1.3,MacIntel,60,13224,,,,,,,,,,,,,,,,,,,,,,,,,,,,,,,,,,,,,0,2,2,72,1,,,,,,,,,,,,,,,,,,,,,,,,
,,,,,,,,,,,,a,0.567,Incorrect,,,,,,t4.png,t2.png,2,0.059078,20,Female,2020-09-24_14h19.03.737,torte-2b,2020.1.3,MacIntel,60,13224,,,,,,,,,,,,,,,,,,,,,,,,,,,,,,,,,,,,,0,3,3,110,1,,,,,,,,,,,,,,,,,,,,,,,,
,,,,,,,,,,,,a,0.433,Incorrect,,,,,,t5.png,t2.png,3,0.0000131,20,Female,2020-09-24_14h19.03.737,torte-2b,2020.1.3,MacIntel,60,13224,,,,,,,,,,,,,,,,,,,,,,,,,,,,,,,,,,,,,0,4,4,91,1,,,,,,,,,,,,,,,,,,,,,,,,
,,,,,,,,,,,,l,0.617,Incorrect,,,,,,t2.png,t2.png,0,0.98115,20,Female,2020-09-24_14h19.03.737,torte-2b,2020.1.3,MacIntel,60,13224,,,,,,,,,,,,,,,,,,,,,,,,,,,,,,,,,,,,,0,5,5,59,1,,,,,,,,,,,,,,,,,,,,,,,,
,,,,,,,,,,,,a,0.471,Incorrect,,,,,,t5.png,t2.png,3,0.0000131,20,Female,2020-09-24_14h19.03.737,torte-2b,2020.1.3,MacIntel,60,13224,,,,,,,,,,,,,,,,,,,,,,,,,,,,,,,,,,,,,0,6,6,119,1,,,,,,,,,,,,,,,,,,,,,,,,
,,,,,,,,,,,,a,0.449,Incorrect,,,,,,t5.png,t4.png,1,0.9,20,Female,2020-09-24_14h19.03.737,torte-2b,2020.1.3,MacIntel,60,13224,,,,,,,,,,,,,,,,,,,,,,,,,,,,,,,,,,,,,0,7,7,76,1,,,,,,,,,,,,,,,,,,,,,,,,
,,,,,,,,,,,,a,0.598,Correct!,,,,,,t4.png,t3.png,1,0.90855,20,Female,2020-09-24_14h19.03.737,torte-2b,2020.1.3,MacIntel,60,13224,,,,,,,,,,,,,,,,,,,,,,,,,,,,,,,,,,,,,0,8,8,35,1,,,,,,,,,,,,,,,,,,,,,,,,
,,,,,,,,,,,,a,0.65,Incorrect,,,,,,t5.png,t1.png,4,9.55E-11,20,Female,2020-09-24_14h19.03.737,torte-2b,2020.1.3,MacIntel,60,13224,,,,,,,,,,,,,,,,,,,,,,,,,,,,,,,,,,,,,0,9,9,71,1,,,,,,,,,,,,,,,,,,,,,,,,
,,,,,,,,,,,,l,0.533,Incorrect,,,,,,t4.png,t5.png,1,0.90025,20,Female,2020-09-24_14h19.03.737,torte-2b,2020.1.3,MacIntel,60,13224,,,,,,,,,,,,,,,,,,,,,,,,,,,,,,,,,,,,,0,10,10,113,1,,,,,,,,,,,,,,,,,,,,,,,,
,,,,,,,,,,,,l,0.532,Correct!,,,,,,t2.png,t5.png,3,0.0000131,20,Female,2020-09-24_14h19.03.737,torte-2b,2020.1.3,MacIntel,60,13224,,,,,,,,,,,,,,,,,,,,,,,,,,,,,,,,,,,,,0,11,11,104,1,,,,,,,,,,,,,,,,,,,,,,,,
,,,,,,,,,,,,l,0.8,Incorrect,,,,,,t5.png,t5.png,0,0.97829,20,Female,2020-09-24_14h19.03.737,torte-2b,2020.1.3,MacIntel,60,13224,,,,,,,,,,,,,,,,,,,,,,,,,,,,,,,,,,,,,0,12,12,94,1,,,,,,,,,,,,,,,,,,,,,,,,
,,,,,,,,,,,,l,0.2,Correct!,,,,,,t5.png,t3.png,2,0.056466,20,Female,2020-09-24_14h19.03.737,torte-2b,2020.1.3,MacIntel,60,13224,,,,,,,,,,,,,,,,,,,,,,,,,,,,,,,,,,,,,0,13,13,108,1,,,,,,,,,,,,,,,,,,,,,,,,
,,,,,,,,,,,,,,Too slow :(,,,,,,t5.png,t5.png,0,0.978,20,Female,2020-09-24_14h19.03.737,torte-2b,2020.1.3,MacIntel,60,13224,,,,,,,,,,,,,,,,,,,,,,,,,,,,,,,,,,,,,0,14,14,117,1,,,,,,,,,,,,,,,,,,,,,,,,
,,,,,,,,,,,,l,0.649,Incorrect,,,,,,t1.png,t1.png,0,0.97829,20,Female,2020-09-24_14h19.03.737,torte-2b,2020.1.3,MacIntel,60,13224,,,,,,,,,,,,,,,,,,,,,,,,,,,,,,,,,,,,,0,15,15,78,1,,,,,,,,,,,,,,,,,,,,,,,,
,,,,,,,,,,,,a,0.452,Incorrect,,,,,,t2.png,t5.png,3,0.0000131,20,Female,2020-09-24_14h19.03.737,torte-2b,2020.1.3,MacIntel,60,13224,,,,,,,,,,,,,,,,,,,,,,,,,,,,,,,,,,,,,0,16,16,8,1,,,,,,,,,,,,,,,,,,,,,,,,
,,,,,,,,,,,,l,0.504,Correct!,,,,,,t1.png,t5.png,4,9.55E-11,20,Female,2020-09-24_14h19.03.737,torte-2b,2020.1.3,MacIntel,60,13224,,,,,,,,,,,,,,,,,,,,,,,,,,,,,,,,,,,,,0,17,17,41,1,,,,,,,,,,,,,,,,,,,,,,,,
,,,,,,,,,,,,a,0.491,Incorrect,,,,,,t3.png,t1.png,2,0.056466,20,Female,2020-09-24_14h19.03.737,torte-2b,2020.1.3,MacIntel,60,13224,,,,,,,,,,,,,,,,,,,,,,,,,,,,,,,,,,,,,0,18,18,29,1,,,,,,,,,,,,,,,,,,,,,,,,
,,,,,,,,,,,,a,0.455,Incorrect,,,,,,t4.png,t1.png,3,0.0000131,20,Female,2020-09-24_14h19.03.737,torte-2b,2020.1.3,MacIntel,60,13224,,,,,,,,,,,,,,,,,,,,,,,,,,,,,,,,,,,,,0,19,19,13,1,,,,,,,,,,,,,,,,,,,,,,,,
,,,,,,,,,,,,a,0.484,Incorrect,,,,,,t4.png,t2.png,2,0.059078,20,Female,2020-09-24_14h19.03.737,torte-2b,2020.1.3,MacIntel,60,13224,,,,,,,,,,,,,,,,,,,,,,,,,,,,,,,,,,,,,0,20,20,88,1,,,,,,,,,,,,,,,,,,,,,,,,
,,,,,,,,,,,,l,0.687,Incorrect,,,,,,t3.png,t4.png,1,0.909,20,Female,2020-09-24_14h19.03.737,torte-2b,2020.1.3,MacIntel,60,13224,,,,,,,,,,,,,,,,,,,,,,,,,,,,,,,,,,,,,0,21,21,82,1,,,,,,,,,,,,,,,,,,,,,,,,
,,,,,,,,,,,,l,0.554,Correct!,,,,,,t1.png,t3.png,2,0.056466,20,Female,2020-09-24_14h19.03.737,torte-2b,2020.1.3,MacIntel,60,13224,,,,,,,,,,,,,,,,,,,,,,,,,,,,,,,,,,,,,0,22,22,60,1,,,,,,,,,,,,,,,,,,,,,,,,
,,,,,,,,,,,,a,0.623,Incorrect,,,,,,t4.png,t1.png,3,0.0000131,20,Female,2020-09-24_14h19.03.737,torte-2b,2020.1.3,MacIntel,60,13224,,,,,,,,,,,,,,,,,,,,,,,,,,,,,,,,,,,,,0,23,23,61,1,,,,,,,,,,,,,,,,,,,,,,,,
,,,,,,,,,,,,l,0.55,Incorrect,,,,,,t4.png,t5.png,1,0.90025,20,Female,2020-09-24_14h19.03.737,torte-2b,2020.1.3,MacIntel,60,13224,,,,,,,,,,,,,,,,,,,,,,,,,,,,,,,,,,,,,0,24,24,58,1,,,,,,,,,,,,,,,,,,,,,,,,
,,,,,,,,,,,,a,0.539,Correct!,,,,,,t5.png,t4.png,1,0.9,20,Female,2020-09-24_14h19.03.737,torte-2b,2020.1.3,MacIntel,60,13224,,,,,,,,,,,,,,,,,,,,,,,,,,,,,,,,,,,,,0,25,25,49,1,,,,,,,,,,,,,,,,,,,,,,,,
,,,,,,,,,,,,a,0.484,Incorrect,,,,,,t5.png,t3.png,2,0.0565,20,Female,2020-09-24_14h19.03.737,torte-2b,2020.1.3,MacIntel,60,13224,,,,,,,,,,,,,,,,,,,,,,,,,,,,,,,,,,,,,0,26,26,39,1,,,,,,,,,,,,,,,,,,,,,,,,
,,,,,,,,,,,,l,0.583,Incorrect,,,,,,t5.png,t4.png,1,0.90025,20,Female,2020-09-24_14h19.03.737,torte-2b,2020.1.3,MacIntel,60,13224,,,,,,,,,,,,,,,,,,,,,,,,,,,,,,,,,,,,,0,27,27,26,1,,,,,,,,,,,,,,,,,,,,,,,,
,,,,,,,,,,,,l,0.5,Incorrect,,,,,,t1.png,t2.png,1,0.90025,20,Female,2020-09-24_14h19.03.737,torte-2b,2020.1.3,MacIntel,60,13224,,,,,,,,,,,,,,,,,,,,,,,,,,,,,,,,,,,,,0,28,28,33,1,,,,,,,,,,,,,,,,,,,,,,,,
,,,,,,,,,,,,a,0.403,Incorrect,,,,,,t4.png,t2.png,2,0.059078,20,Female,2020-09-24_14h19.03.737,torte-2b,2020.1.3,MacIntel,60,13224,,,,,,,,,,,,,,,,,,,,,,,,,,,,,,,,,,,,,0,29,29,86,1,,,,,,,,,,,,,,,,,,,,,,,,
,,,,,,,,,,,,l,0.421,Incorrect,,,,,,t3.png,t4.png,1,0.909,20,Female,2020-09-24_14h19.03.737,torte-2b,2020.1.3,MacIntel,60,13224,,,,,,,,,,,,,,,,,,,,,,,,,,,,,,,,,,,,,0,30,30,106,1,,,,,,,,,,,,,,,,,,,,,,,,
,,,,,,,,,,,,l,0.384,Correct!,,,,,,t1.png,t4.png,3,0.0000131,20,Female,2020-09-24_14h19.03.737,torte-2b,2020.1.3,MacIntel,60,13224,,,,,,,,,,,,,,,,,,,,,,,,,,,,,,,,,,,,,0,31,31,50,1,,,,,,,,,,,,,,,,,,,,,,,,
,,,,,,,,,,,,l,0.4,Correct!,,,,,,t1.png,t4.png,3,0.0000131,20,Female,2020-09-24_14h19.03.737,torte-2b,2020.1.3,MacIntel,60,13224,,,,,,,,,,,,,,,,,,,,,,,,,,,,,,,,,,,,,0,32,32,17,1,,,,,,,,,,,,,,,,,,,,,,,,
,,,,,,,,,,,,l,0.374,Correct!,,,,,,t2.png,t5.png,3,0.0000131,20,Female,2020-09-24_14h19.03.737,torte-2b,2020.1.3,MacIntel,60,13224,,,,,,,,,,,,,,,,,,,,,,,,,,,,,,,,,,,,,0,33,33,40,1,,,,,,,,,,,,,,,,,,,,,,,,
,,,,,,,,,,,,a,0.503,Incorrect,,,,,,t3.png,t1.png,2,0.056466,20,Female,2020-09-24_14h19.03.737,torte-2b,2020.1.3,MacIntel,60,13224,,,,,,,,,,,,,,,,,,,,,,,,,,,,,,,,,,,,,0,34,34,64,1,,,,,,,,,,,,,,,,,,,,,,,,
,,,,,,,,,,,,a,0.8,Incorrect,,,,,,t5.png,t3.png,2,0.056466,20,Female,2020-09-24_14h19.03.737,torte-2b,2020.1.3,MacIntel,60,13224,,,,,,,,,,,,,,,,,,,,,,,,,,,,,,,,,,,,,0,35,35,56,1,,,,,,,,,,,,,,,,,,,,,,,,
,,,,,,,,,,,,a,1.173,Incorrect,,,,,,t5.png,t1.png,4,9.55E-11,20,Female,2020-09-24_14h19.03.737,torte-2b,2020.1.3,MacIntel,60,13224,,,,,,,,,,,,,,,,,,,,,,,,,,,,,,,,,,,,,0,36,36,102,1,,,,,,,,,,,,,,,,,,,,,,,,
,,,,,,,,,,,,l,0.698,Correct!,,,,,,t1.png,t5.png,4,9.55E-11,20,Female,2020-09-24_14h19.03.737,torte-2b,2020.1.3,MacIntel,60,13224,,,,,,,,,,,,,,,,,,,,,,,,,,,,,,,,,,,,,0,37,37,16,1,,,,,,,,,,,,,,,,,,,,,,,,
,,,,,,,,,,,,l,1.006,Incorrect,,,,,,t1.png,t1.png,0,0.97829,20,Female,2020-09-24_14h19.03.737,torte-2b,2020.1.3,MacIntel,60,13224,,,,,,,,,,,,,,,,,,,,,,,,,,,,,,,,,,,,,0,38,38,9,1,,,,,,,,,,,,,,,,,,,,,,,,
,,,,,,,,,,,,l,0.449,Incorrect,,,,,,t1.png,t1.png,0,0.978,20,Female,2020-09-24_14h19.03.737,torte-2b,2020.1.3,MacIntel,60,13224,,,,,,,,,,,,,,,,,,,,,,,,,,,,,,,,,,,,,0,39,39,54,1,,,,,,,,,,,,,,,,,,,,,,,,
,,,,,,,,,,,,a,0.718,Correct!,,,,,,t2.png,t1.png,1,0.90025,20,Female,2020-09-24_14h19.03.737,torte-2b,2020.1.3,MacIntel,60,13224,,,,,,,,,,,,,,,,,,,,,,,,,,,,,,,,,,,,,0,40,40,62,1,,,,,,,,,,,,,,,,,,,,,,,,
,,,,,,,,,,,,a,0.591,Incorrect,,,,,,t3.png,t1.png,2,0.056466,20,Female,2020-09-24_14h19.03.737,torte-2b,2020.1.3,MacIntel,60,13224,,,,,,,,,,,,,,,,,,,,,,,,,,,,,,,,,,,,,0,41,41,32,1,,,,,,,,,,,,,,,,,,,,,,,,
,,,,,,,,,,,,l,0.583,Incorrect,,,,,,t2.png,t3.png,1,0.90855,20,Female,2020-09-24_14h19.03.737,torte-2b,2020.1.3,MacIntel,60,13224,,,,,,,,,,,,,,,,,,,,,,,,,,,,,,,,,,,,,0,42,42,68,1,,,,,,,,,,,,,,,,,,,,,,,,
,,,,,,,,,,,,a,0.5,Correct!,,,,,,t3.png,t2.png,1,0.90855,20,Female,2020-09-24_14h19.03.737,torte-2b,2020.1.3,MacIntel,60,13224,,,,,,,,,,,,,,,,,,,,,,,,,,,,,,,,,,,,,0,43,43,18,1,,,,,,,,,,,,,,,,,,,,,,,,
,,,,,,,,,,,,l,0.501,Correct!,,,,,,t1.png,t5.png,4,9.55E-11,20,Female,2020-09-24_14h19.03.737,torte-2b,2020.1.3,MacIntel,60,13224,,,,,,,,,,,,,,,,,,,,,,,,,,,,,,,,,,,,,0,44,44,12,1,,,,,,,,,,,,,,,,,,,,,,,,
,,,,,,,,,,,,l,0.655,Correct!,,,,,,t3.png,t5.png,2,0.056466,20,Female,2020-09-24_14h19.03.737,torte-2b,2020.1.3,MacIntel,60,13224,,,,,,,,,,,,,,,,,,,,,,,,,,,,,,,,,,,,,0,45,45,14,1,,,,,,,,,,,,,,,,,,,,,,,,
,,,,,,,,,,,,a,0.769,Correct!,,,,,,t4.png,t3.png,1,0.90855,20,Female,2020-09-24_14h19.03.737,torte-2b,2020.1.3,MacIntel,60,13224,,,,,,,,,,,,,,,,,,,,,,,,,,,,,,,,,,,,,0,46,46,45,1,,,,,,,,,,,,,,,,,,,,,,,,
,,,,,,,,,,,,l,0.808,Incorrect,,,,,,t1.png,t1.png,0,0.97829,20,Female,2020-09-24_14h19.03.737,torte-2b,2020.1.3,MacIntel,60,13224,,,,,,,,,,,,,,,,,,,,,,,,,,,,,,,,,,,,,0,47,47,67,1,,,,,,,,,,,,,,,,,,,,,,,,
,,,,,,,,,,,,l,0.487,Incorrect,,,,,,t4.png,t5.png,1,0.9,20,Female,2020-09-24_14h19.03.737,torte-2b,2020.1.3,MacIntel,60,13224,,,,,,,,,,,,,,,,,,,,,,,,,,,,,,,,,,,,,0,48,48,115,1,,,,,,,,,,,,,,,,,,,,,,,,
,,,,,,,,,,,,a,0.5,Correct!,,,,,,t4.png,t3.png,1,0.909,20,Female,2020-09-24_14h19.03.737,torte-2b,2020.1.3,MacIntel,60,13224,,,,,,,,,,,,,,,,,,,,,,,,,,,,,,,,,,,,,0,49,49,20,1,,,,,,,,,,,,,,,,,,,,,,,,
,,,,,,,,,,,,l,0.438,Correct!,,,,,,t1.png,t3.png,2,0.056466,20,Female,2020-09-24_14h19.03.737,torte-2b,2020.1.3,MacIntel,60,13224,,,,,,,,,,,,,,,,,,,,,,,,,,,,,,,,,,,,,0,50,50,87,1,,,,,,,,,,,,,,,,,,,,,,,,
,,,,,,,,,,,,l,0.583,Incorrect,,,,,,t3.png,t4.png,1,0.90855,20,Female,2020-09-24_14h19.03.737,torte-2b,2020.1.3,MacIntel,60,13224,,,,,,,,,,,,,,,,,,,,,,,,,,,,,,,,,,,,,0,51,51,84,1,,,,,,,,,,,,,,,,,,,,,,,,
,,,,,,,,,,,,a,0.517,Incorrect,,,,,,t3.png,t1.png,2,0.0565,20,Female,2020-09-24_14h19.03.737,torte-2b,2020.1.3,MacIntel,60,13224,,,,,,,,,,,,,,,,,,,,,,,,,,,,,,,,,,,,,0,52,52,31,1,,,,,,,,,,,,,,,,,,,,,,,,
,,,,,,,,,,,,a,0.867,Correct!,,,,,,t2.png,t2.png,0,0.98115,20,Female,2020-09-24_14h19.03.737,torte-2b,2020.1.3,MacIntel,60,13224,,,,,,,,,,,,,,,,,,,,,,,,,,,,,,,,,,,,,0,53,53,2,1,,,,,,,,,,,,,,,,,,,,,,,,
,,,,,,,,,,,,l,0.467,Correct!,,,,,,t3.png,t5.png,2,0.0565,20,Female,2020-09-24_14h19.03.737,torte-2b,2020.1.3,MacIntel,60,13224,,,,,,,,,,,,,,,,,,,,,,,,,,,,,,,,,,,,,0,54,54,30,1,,,,,,,,,,,,,,,,,,,,,,,,
,,,,,,,,,,,,l,0.372,Correct!,,,,,,t2.png,t5.png,3,0.0000131,20,Female,2020-09-24_14h19.03.737,torte-2b,2020.1.3,MacIntel,60,13224,,,,,,,,,,,,,,,,,,,,,,,,,,,,,,,,,,,,,0,55,55,95,1,,,,,,,,,,,,,,,,,,,,,,,,
,,,,,,,,,,,,a,0.35,Incorrect,,,,,,t4.png,t2.png,2,0.059078,20,Female,2020-09-24_14h19.03.737,torte-2b,2020.1.3,MacIntel,60,13224,,,,,,,,,,,,,,,,,,,,,,,,,,,,,,,,,,,,,0,56,56,109,1,,,,,,,,,,,,,,,,,,,,,,,,
,,,,,,,,,,,,l,0.49,Incorrect,,,,,,t4.png,t4.png,0,0.98115,20,Female,2020-09-24_14h19.03.737,torte-2b,2020.1.3,MacIntel,60,13224,,,,,,,,,,,,,,,,,,,,,,,,,,,,,,,,,,,,,0,57,57,21,1,,,,,,,,,,,,,,,,,,,,,,,,
,,,,,,,,,,,,l,0.354,Incorrect,,,,,,t2.png,t2.png,0,0.981,20,Female,2020-09-24_14h19.03.737,torte-2b,2020.1.3,MacIntel,60,13224,,,,,,,,,,,,,,,,,,,,,,,,,,,,,,,,,,,,,0,58,58,101,1,,,,,,,,,,,,,,,,,,,,,,,,
,,,,,,,,,,,,a,0.334,Correct!,,,,,,t5.png,t4.png,1,0.90025,20,Female,2020-09-24_14h19.03.737,torte-2b,2020.1.3,MacIntel,60,13224,,,,,,,,,,,,,,,,,,,,,,,,,,,,,,,,,,,,,0,59,59,27,1,,,,,,,,,,,,,,,,,,,,,,,,
,,,,,,,,,,,,l,0.37,Correct!,,,,,,t1.png,t3.png,2,0.056466,20,Female,2020-09-24_14h19.03.737,torte-2b,2020.1.3,MacIntel,60,13224,,,,,,,,,,,,,,,,,,,,,,,,,,,,,,,,,,,,,0,60,60,69,1,,,,,,,,,,,,,,,,,,,,,,,,
,,,,,,,,,,,,a,0.315,Correct!,,,,,,t5.png,t5.png,0,0.97829,20,Female,2020-09-24_14h19.03.737,torte-2b,2020.1.3,MacIntel,60,13224,,,,,,,,,,,,,,,,,,,,,,,,,,,,,,,,,,,,,0,61,61,70,1,,,,,,,,,,,,,,,,,,,,,,,,
,,,,,,,,,,,,l,0.303,Correct!,,,,,,t2.png,t4.png,2,0.059078,20,Female,2020-09-24_14h19.03.737,torte-2b,2020.1.3,MacIntel,60,13224,,,,,,,,,,,,,,,,,,,,,,,,,,,,,,,,,,,,,0,62,62,37,1,,,,,,,,,,,,,,,,,,,,,,,,
,,,,,,,,,,,,a,0.382,Correct!,,,,,,t4.png,t4.png,0,0.98115,20,Female,2020-09-24_14h19.03.737,torte-2b,2020.1.3,MacIntel,60,13224,,,,,,,,,,,,,,,,,,,,,,,,,,,,,,,,,,,,,0,63,63,90,1,,,,,,,,,,,,,,,,,,,,,,,,
,,,,,,,,,,,,l,0.518,Incorrect,,,,,,t2.png,t3.png,1,0.90855,20,Female,2020-09-24_14h19.03.737,torte-2b,2020.1.3,MacIntel,60,13224,,,,,,,,,,,,,,,,,,,,,,,,,,,,,,,,,,,,,0,64,64,10,1,,,,,,,,,,,,,,,,,,,,,,,,
,,,,,,,,,,,,l,0.603,Incorrect,,,,,,t3.png,t5.png,2,0.0565,20,Female,2020-09-24_14h19.03.737,torte-2b,2020.1.3,MacIntel,60,13224,,,,,,,,,,,,,,,,,,,,,,,,,,,,,,,,,,,,,0,65,65,83,1,,,,,,,,,,,,,,,,,,,,,,,,
,,,,,,,,,,,,a,0.387,Incorrect,,,,,,t4.png,t2.png,2,0.0591,20,Female,2020-09-24_14h19.03.737,torte-2b,2020.1.3,MacIntel,60,13224,,,,,,,,,,,,,,,,,,,,,,,,,,,,,,,,,,,,,0,66,66,36,1,,,,,,,,,,,,,,,,,,,,,,,,
,,,,,,,,,,,,a,0.415,Correct!,,,,,,t3.png,t2.png,1,0.90855,20,Female,2020-09-24_14h19.03.737,torte-2b,2020.1.3,MacIntel,60,13224,,,,,,,,,,,,,,,,,,,,,,,,,,,,,,,,,,,,,0,67,67,53,1,,,,,,,,,,,,,,,,,,,,,,,,
,,,,,,,,,,,,a,0.355,Incorrect,,,,,,t5.png,t3.png,2,0.056466,20,Female,2020-09-24_14h19.03.737,torte-2b,2020.1.3,MacIntel,60,13224,,,,,,,,,,,,,,,,,,,,,,,,,,,,,,,,,,,,,0,68,68,38,1,,,,,,,,,,,,,,,,,,,,,,,,
,,,,,,,,,,,,a,0.404,Incorrect,,,,,,t4.png,t1.png,3,0.0000131,20,Female,2020-09-24_14h19.03.737,torte-2b,2020.1.3,MacIntel,60,13224,,,,,,,,,,,,,,,,,,,,,,,,,,,,,,,,,,,,,0,69,69,42,1,,,,,,,,,,,,,,,,,,,,,,,,
,,,,,,,,,,,,a,0.352,Incorrect,,,,,,t4.png,t1.png,3,0.0000131,20,Female,2020-09-24_14h19.03.737,torte-2b,2020.1.3,MacIntel,60,13224,,,,,,,,,,,,,,,,,,,,,,,,,,,,,,,,,,,,,0,70,70,48,1,,,,,,,,,,,,,,,,,,,,,,,,
,,,,,,,,,,,,l,0.505,Incorrect,,,,,,t2.png,t2.png,0,0.98115,20,Female,2020-09-24_14h19.03.737,torte-2b,2020.1.3,MacIntel,60,13224,,,,,,,,,,,,,,,,,,,,,,,,,,,,,,,,,,,,,0,71,71,57,1,,,,,,,,,,,,,,,,,,,,,,,,
,,,,,,,,,,,,a,0.324,Incorrect,,,,,,t5.png,t3.png,2,0.056466,20,Female,2020-09-24_14h19.03.737,torte-2b,2020.1.3,MacIntel,60,13224,,,,,,,,,,,,,,,,,,,,,,,,,,,,,,,,,,,,,0,72,72,114,1,,,,,,,,,,,,,,,,,,,,,,,,
,,,,,,,,,,,,a,0.341,Incorrect,,,,,,t4.png,t1.png,3,0.0000131,20,Female,2020-09-24_14h19.03.737,torte-2b,2020.1.3,MacIntel,60,13224,,,,,,,,,,,,,,,,,,,,,,,,,,,,,,,,,,,,,0,73,73,93,1,,,,,,,,,,,,,,,,,,,,,,,,
,,,,,,,,,,,,l,0.416,Incorrect,,,,,,t1.png,t2.png,1,0.90025,20,Female,2020-09-24_14h19.03.737,torte-2b,2020.1.3,MacIntel,60,13224,,,,,,,,,,,,,,,,,,,,,,,,,,,,,,,,,,,,,0,74,74,112,1,,,,,,,,,,,,,,,,,,,,,,,,
,,,,,,,,,,,,a,0.305,Correct!,,,,,,t4.png,t5.png,1,0.90025,20,Female,2020-09-24_14h19.03.737,torte-2b,2020.1.3,MacIntel,60,13224,,,,,,,,,,,,,,,,,,,,,,,,,,,,,,,,,,,,,0,75,75,47,1,,,,,,,,,,,,,,,,,,,,,,,,
,,,,,,,,,,,,a,0.404,Correct!,,,,,,t3.png,t2.png,1,0.90855,20,Female,2020-09-24_14h19.03.737,torte-2b,2020.1.3,MacIntel,60,13224,,,,,,,,,,,,,,,,,,,,,,,,,,,,,,,,,,,,,0,76,76,97,1,,,,,,,,,,,,,,,,,,,,,,,,
,,,,,,,,,,,,l,0.367,Incorrect,,,,,,t2.png,t3.png,1,0.909,20,Female,2020-09-24_14h19.03.737,torte-2b,2020.1.3,MacIntel,60,13224,,,,,,,,,,,,,,,,,,,,,,,,,,,,,,,,,,,,,0,77,77,74,1,,,,,,,,,,,,,,,,,,,,,,,,
,,,,,,,,,,,,l,0.388,Correct!,,,,,,t1.png,t1.png,0,0.978,20,Female,2020-09-24_14h19.03.737,torte-2b,2020.1.3,MacIntel,60,13224,,,,,,,,,,,,,,,,,,,,,,,,,,,,,,,,,,,,,0,78,78,28,1,,,,,,,,,,,,,,,,,,,,,,,,
,,,,,,,,,,,,a,0.387,Correct!,,,,,,t5.png,t5.png,0,0.97829,20,Female,2020-09-24_14h19.03.737,torte-2b,2020.1.3,MacIntel,60,13224,,,,,,,,,,,,,,,,,,,,,,,,,,,,,,,,,,,,,0,79,79,25,1,,,,,,,,,,,,,,,,,,,,,,,,
,,,,,,,,,,,,l,0.535,Incorrect,,,,,,t4.png,t4.png,0,0.98115,20,Female,2020-09-24_14h19.03.737,torte-2b,2020.1.3,MacIntel,60,13224,,,,,,,,,,,,,,,,,,,,,,,,,,,,,,,,,,,,,0,80,80,52,1,,,,,,,,,,,,,,,,,,,,,,,,
,,,,,,,,,,,,a,0.505,Incorrect,,,,,,t5.png,t1.png,4,9.55E-11,20,Female,2020-09-24_14h19.03.737,torte-2b,2020.1.3,MacIntel,60,13224,,,,,,,,,,,,,,,,,,,,,,,,,,,,,,,,,,,,,0,81,81,43,1,,,,,,,,,,,,,,,,,,,,,,,,
,,,,,,,,,,,,a,0.487,Correct!,,,,,,t4.png,t3.png,1,0.909,20,Female,2020-09-24_14h19.03.737,torte-2b,2020.1.3,MacIntel,60,13224,,,,,,,,,,,,,,,,,,,,,,,,,,,,,,,,,,,,,0,82,82,46,1,,,,,,,,,,,,,,,,,,,,,,,,
,,,,,,,,,,,,a,0.503,Correct!,,,,,,t2.png,t1.png,1,0.90025,20,Female,2020-09-24_14h19.03.737,torte-2b,2020.1.3,MacIntel,60,13224,,,,,,,,,,,,,,,,,,,,,,,,,,,,,,,,,,,,,0,83,83,19,1,,,,,,,,,,,,,,,,,,,,,,,,
,,,,,,,,,,,,l,0.522,Correct!,,,,,,t2.png,t4.png,2,0.059078,20,Female,2020-09-24_14h19.03.737,torte-2b,2020.1.3,MacIntel,60,13224,,,,,,,,,,,,,,,,,,,,,,,,,,,,,,,,,,,,,0,84,84,24,1,,,,,,,,,,,,,,,,,,,,,,,,
,,,,,,,,,,,,a,0.372,Correct!,,,,,,t4.png,t4.png,0,0.98115,20,Female,2020-09-24_14h19.03.737,torte-2b,2020.1.3,MacIntel,60,13224,,,,,,,,,,,,,,,,,,,,,,,,,,,,,,,,,,,,,0,85,85,79,1,,,,,,,,,,,,,,,,,,,,,,,,
,,,,,,,,,,,,l,0.598,Incorrect,,,,,,t5.png,t5.png,0,0.97829,20,Female,2020-09-24_14h19.03.737,torte-2b,2020.1.3,MacIntel,60,13224,,,,,,,,,,,,,,,,,,,,,,,,,,,,,,,,,,,,,0,86,86,73,1,,,,,,,,,,,,,,,,,,,,,,,,
,,,,,,,,,,,,l,0.424,Incorrect,,,,,,t2.png,t3.png,1,0.90855,20,Female,2020-09-24_14h19.03.737,torte-2b,2020.1.3,MacIntel,60,13224,,,,,,,,,,,,,,,,,,,,,,,,,,,,,,,,,,,,,0,87,87,65,1,,,,,,,,,,,,,,,,,,,,,,,,
,,,,,,,,,,,,l,0.387,Correct!,,,,,,t1.png,t5.png,4,9.55E-11,20,Female,2020-09-24_14h19.03.737,torte-2b,2020.1.3,MacIntel,60,13224,,,,,,,,,,,,,,,,,,,,,,,,,,,,,,,,,,,,,0,88,88,85,1,,,,,,,,,,,,,,,,,,,,,,,,
,,,,,,,,,,,,l,0.415,Correct!,,,,,,t2.png,t4.png,2,0.059078,20,Female,2020-09-24_14h19.03.737,torte-2b,2020.1.3,MacIntel,60,13224,,,,,,,,,,,,,,,,,,,,,,,,,,,,,,,,,,,,,0,89,89,77,1,,,,,,,,,,,,,,,,,,,,,,,,
,,,,,,,,,,,,l,0.399,Correct!,,,,,,t1.png,t5.png,4,9.55E-11,20,Female,2020-09-24_14h19.03.737,torte-2b,2020.1.3,MacIntel,60,13224,,,,,,,,,,,,,,,,,,,,,,,,,,,,,,,,,,,,,0,90,90,55,1,,,,,,,,,,,,,,,,,,,,,,,,
,,,,,,,,,,,,l,0.767,Incorrect,,,,,,t4.png,t4.png,0,0.98115,20,Female,2020-09-24_14h19.03.737,torte-2b,2020.1.3,MacIntel,60,13224,,,,,,,,,,,,,,,,,,,,,,,,,,,,,,,,,,,,,0,91,91,80,1,,,,,,,,,,,,,,,,,,,,,,,,
,,,,,,,,,,,,l,0.405,Incorrect,,,,,,t3.png,t4.png,1,0.90855,20,Female,2020-09-24_14h19.03.737,torte-2b,2020.1.3,MacIntel,60,13224,,,,,,,,,,,,,,,,,,,,,,,,,,,,,,,,,,,,,0,92,92,96,1,,,,,,,,,,,,,,,,,,,,,,,,
,,,,,,,,,,,,a,0.634,Correct!,,,,,,t5.png,t4.png,1,0.90025,20,Female,2020-09-24_14h19.03.737,torte-2b,2020.1.3,MacIntel,60,13224,,,,,,,,,,,,,,,,,,,,,,,,,,,,,,,,,,,,,0,93,93,34,1,,,,,,,,,,,,,,,,,,,,,,,,
,,,,,,,,,,,,a,0.539,Correct!,,,,,,t2.png,t1.png,1,0.9,20,Female,2020-09-24_14h19.03.737,torte-2b,2020.1.3,MacIntel,60,13224,,,,,,,,,,,,,,,,,,,,,,,,,,,,,,,,,,,,,0,94,94,118,1,,,,,,,,,,,,,,,,,,,,,,,,
,,,,,,,,,,,,l,0.582,Correct!,,,,,,t1.png,t4.png,3,0.0000131,20,Female,2020-09-24_14h19.03.737,torte-2b,2020.1.3,MacIntel,60,13224,,,,,,,,,,,,,,,,,,,,,,,,,,,,,,,,,,,,,0,95,95,107,1,,,,,,,,,,,,,,,,,,,,,,,,
,,,,,,,,,,,,a,0.433,Incorrect,,,,,,t5.png,t1.png,4,9.55E-11,20,Female,2020-09-24_14h19.03.737,torte-2b,2020.1.3,MacIntel,60,13224,,,,,,,,,,,,,,,,,,,,,,,,,,,,,,,,,,,,,0,96,96,22,1,,,,,,,,,,,,,,,,,,,,,,,,
,,,,,,,,,,,,l,0.701,Correct!,,,,,,t1.png,t4.png,3,0.0000131,20,Female,2020-09-24_14h19.03.737,torte-2b,2020.1.3,MacIntel,60,13224,,,,,,,,,,,,,,,,,,,,,,,,,,,,,,,,,,,,,0,97,97,92,1,,,,,,,,,,,,,,,,,,,,,,,,
,,,,,,,,,,,,l,0.522,Correct!,,,,,,t1.png,t2.png,1,0.9,20,Female,2020-09-24_14h19.03.737,torte-2b,2020.1.3,MacIntel,60,13224,,,,,,,,,,,,,,,,,,,,,,,,,,,,,,,,,,,,,0,98,98,1,1,,,,,,,,,,,,,,,,,,,,,,,,
,,,,,,,,,,,,l,0.486,Correct!,,,,,,t3.png,t4.png,1,0.909,20,Female,2020-09-24_14h19.03.737,torte-2b,2020.1.3,MacIntel,60,13224,,,,,,,,,,,,,,,,,,,,,,,,,,,,,,,,,,,,,0,99,99,89,1,,,,,,,,,,,,,,,,,,,,,,,,
,,,,,,,,,,,,a,0.483,Correct!,,,,,,t2.png,t1.png,1,0.90025,20,Female,2020-09-24_14h19.03.737,torte-2b,2020.1.3,MacIntel,60,13224,,,,,,,,,,,,,,,,,,,,,,,,,,,,,,,,,,,,,0,100,100,4,1,,,,,,,,,,,,,,,,,,,,,,,,
,,,,,,,,,,,,l,0.567,Correct!,,,,,,t2.png,t5.png,3,0.0000131,20,Female,2020-09-24_14h19.03.737,torte-2b,2020.1.3,MacIntel,60,13224,,,,,,,,,,,,,,,,,,,,,,,,,,,,,,,,,,,,,0,101,101,66,1,,,,,,,,,,,,,,,,,,,,,,,,
,,,,,,,,,,,,a,0.62,Incorrect,,,,,,t5.png,t2.png,3,0.0000131,20,Female,2020-09-24_14h19.03.737,torte-2b,2020.1.3,MacIntel,60,13224,,,,,,,,,,,,,,,,,,,,,,,,,,,,,,,,,,,,,0,102,102,98,1,,,,,,,,,,,,,,,,,,,,,,,,
,,,,,,,,,,,,l,0.487,Correct!,,,,,,t1.png,t3.png,2,0.056466,20,Female,2020-09-24_14h19.03.737,torte-2b,2020.1.3,MacIntel,60,13224,,,,,,,,,,,,,,,,,,,,,,,,,,,,,,,,,,,,,0,103,103,99,1,,,,,,,,,,,,,,,,,,,,,,,,
,,,,,,,,,,,,l,0.484,Correct!,,,,,,t4.png,t5.png,1,0.90025,20,Female,2020-09-24_14h19.03.737,torte-2b,2020.1.3,MacIntel,60,13224,,,,,,,,,,,,,,,,,,,,,,,,,,,,,,,,,,,,,0,104,104,103,1,,,,,,,,,,,,,,,,,,,,,,,,
,,,,,,,,,,,,l,0.455,Incorrect,,,,,,t1.png,t2.png,1,0.90025,20,Female,2020-09-24_14h19.03.737,torte-2b,2020.1.3,MacIntel,60,13224,,,,,,,,,,,,,,,,,,,,,,,,,,,,,,,,,,,,,0,105,105,105,1,,,,,,,,,,,,,,,,,,,,,,,,
,,,,,,,,,,,,a,0.499,Incorrect,,,,,,t5.png,t1.png,4,9.55E-11,20,Female,2020-09-24_14h19.03.737,torte-2b,2020.1.3,MacIntel,60,13224,,,,,,,,,,,,,,,,,,,,,,,,,,,,,,,,,,,,,0,106,106,100,1,,,,,,,,,,,,,,,,,,,,,,,,
,,,,,,,,,,,,a,0.554,Correct!,,,,,,t3.png,t2.png,1,0.909,20,Female,2020-09-24_14h19.03.737,torte-2b,2020.1.3,MacIntel,60,13224,,,,,,,,,,,,,,,,,,,,,,,,,,,,,,,,,,,,,0,107,107,3,1,,,,,,,,,,,,,,,,,,,,,,,,
,,,,,,,,,,,,a,0.654,Correct!,,,,,,t3.png,t2.png,1,0.909,20,Female,2020-09-24_14h19.03.737,torte-2b,2020.1.3,MacIntel,60,13224,,,,,,,,,,,,,,,,,,,,,,,,,,,,,,,,,,,,,0,108,108,23,1,,,,,,,,,,,,,,,,,,,,,,,,
,,,,,,,,,,,,l,0.899,Correct!,,,,,,t2.png,t4.png,2,0.059078,20,Female,2020-09-24_14h19.03.737,torte-2b,2020.1.3,MacIntel,60,13224,,,,,,,,,,,,,,,,,,,,,,,,,,,,,,,,,,,,,0,109,109,11,1,,,,,,,,,,,,,,,,,,,,,,,,
,,,,,,,,,,,,a,0.889,Incorrect,,,,,,t2.png,t1.png,1,0.90025,20,Female,2020-09-24_14h19.03.737,torte-2b,2020.1.3,MacIntel,60,13224,,,,,,,,,,,,,,,,,,,,,,,,,,,,,,,,,,,,,0,110,110,5,1,,,,,,,,,,,,,,,,,,,,,,,,
,,,,,,,,,,,,l,0.548,Incorrect,,,,,,t2.png,t2.png,0,0.98115,20,Female,2020-09-24_14h19.03.737,torte-2b,2020.1.3,MacIntel,60,13224,,,,,,,,,,,,,,,,,,,,,,,,,,,,,,,,,,,,,0,111,111,7,1,,,,,,,,,,,,,,,,,,,,,,,,
,,,,,,,,,,,,a,0.387,Correct!,,,,,,t4.png,t3.png,1,0.90855,20,Female,2020-09-24_14h19.03.737,torte-2b,2020.1.3,MacIntel,60,13224,,,,,,,,,,,,,,,,,,,,,,,,,,,,,,,,,,,,,0,112,112,75,1,,,,,,,,,,,,,,,,,,,,,,,,
,,,,,,,,,,,,l,0.366,Correct!,,,,,,t2.png,t4.png,2,0.0591,20,Female,2020-09-24_14h19.03.737,torte-2b,2020.1.3,MacIntel,60,13224,,,,,,,,,,,,,,,,,,,,,,,,,,,,,,,,,,,,,0,113,113,15,1,,,,,,,,,,,,,,,,,,,,,,,,
,,,,,,,,,,,,a,0.349,Incorrect,,,,,,t5.png,t2.png,3,0.0000131,20,Female,2020-09-24_14h19.03.737,torte-2b,2020.1.3,MacIntel,60,13224,,,,,,,,,,,,,,,,,,,,,,,,,,,,,,,,,,,,,0,114,114,51,1,,,,,,,,,,,,,,,,,,,,,,,,
,,,,,,,,,,,,l,0.398,Correct!,,,,,,t1.png,t4.png,3,0.0000131,20,Female,2020-09-24_14h19.03.737,torte-2b,2020.1.3,MacIntel,60,13224,,,,,,,,,,,,,,,,,,,,,,,,,,,,,,,,,,,,,0,115,115,81,1,,,,,,,,,,,,,,,,,,,,,,,,
,,,,,,,,,,,,l,0.381,Incorrect,,,,,,t2.png,t3.png,1,0.90855,20,Female,2020-09-24_14h19.03.737,torte-2b,2020.1.3,MacIntel,60,13224,,,,,,,,,,,,,,,,,,,,,,,,,,,,,,,,,,,,,0,116,116,111,1,,,,,,,,,,,,,,,,,,,,,,,,
,,,,,,,,,,,,l,0.484,Correct!,,,,,,t3.png,t5.png,2,0.056466,20,Female,2020-09-24_14h19.03.737,torte-2b,2020.1.3,MacIntel,60,13224,,,,,,,,,,,,,,,,,,,,,,,,,,,,,,,,,,,,,0,117,117,6,1,,,,,,,,,,,,,,,,,,,,,,,,
,,,,,,,,,,,,l,0.45,Correct!,,,,,,t3.png,t5.png,2,0.056466,20,Female,2020-09-24_14h19.03.737,torte-2b,2020.1.3,MacIntel,60,13224,,,,,,,,,,,,,,,,,,,,,,,,,,,,,,,,,,,,,0,118,118,44,1,,,,,,,,,,,,,,,,,,,,,,,,
,,,,,,,,,,,,l,0.405,Correct!,,,,,,t1.png,t3.png,2,0.056466,20,Female,2020-09-24_14h19.03.737,torte-2b,2020.1.3,MacIntel,60,13224,,,,,,,,,,,,,,,,,,,,,,,,,,,,,,,,,,,,,0,119,119,63,1,,,,,,,,,,,,,,,,,,,,,,,,
,,,,,,,,,,,,,,,,,,,,,,,,20,Female,2020-09-24_14h19.03.737,torte-2b,2020.1.3,MacIntel,60,13224,space,0.899,,,,,,,,,,,,,,,,,,,,,,,,,,,,,,,,,,,,,,,,22,178,1,0,1,s1,43,-92,1,0,1,t4,324,-95,1,0,1,proceed,space,30.402,space,0.801,space,0.286
