key_resp_8.keys,key_resp_8.rt,key_resp_9.keys,key_resp_9.rt,key_resp_10.keys,key_resp_10.rt,key_resp_11.keys,key_resp_11.rt,key_resp_2.keys,key_resp_2.rt,key_resp_3.keys,key_resp_3.rt,key_resp.keys,Feedback,train.thisRepN,train.thisTrialN,train.thisN,train.thisIndex,train.ran,torta_sx,torta_dx,difference,probability,age,gender,date,expName,psychopyVersion,OS,frameRate,participant,key_resp.rt,key_resp_15.keys,key_resp_15.rt,key_resp_6.keys,key_resp_6.rt,test1.thisRepN,test1.thisTrialN,test1.thisN,test1.thisIndex,test1.ran,key_resp_4.keys,key_resp_4.rt,key_resp_5.keys,back1.thisRepN,back1.thisTrialN,back1.thisN,back1.thisIndex,back1.ran,letter,key_resp_5.rt,back2.thisRepN,back2.thisTrialN,back2.thisN,back2.thisIndex,back2.ran,back3.thisRepN,back3.thisTrialN,back3.thisN,back3.thisIndex,back3.ran,back4.thisRepN,back4.thisTrialN,back4.thisN,back4.thisIndex,back4.ran,key_resp_7.keys,key_resp_7.rt,test2.thisRepN,test2.thisTrialN,test2.thisN,test2.thisIndex,test2.ran,mouse.x,mouse.y,mouse.leftButton,mouse.midButton,mouse.rightButton,mouse.clicked_name,mouse_2.x,mouse_2.y,mouse_2.leftButton,mouse_2.midButton,mouse_2.rightButton,mouse_2.clicked_name,mouse_3.x,mouse_3.y,mouse_3.leftButton,mouse_3.midButton,mouse_3.rightButton,mouse_3.clicked_name,key_resp_12.keys,key_resp_12.rt,key_resp_13.keys,key_resp_13.rt,key_resp_14.keys,key_resp_14.rt
space,0.33527,space,0.26563,space,0.36103,space,0.34448,space,0.354525,space,46.83226,,Too slow :(,0,0,0,118,1,t5.png,t5.png,0,0.978,19,female,2020-09-16_13h34.07.703,torte-2b,2020.1.3,MacIntel,60,13230,,,,,,,,,,,,,,,,,,,,,,,,,,,,,,,,,,,,,,,,,,,,,,,,,,,,,,,,,,,,,,,,,,
,,,,,,,,,,,,a,Correct!,0,1,1,109,1,t5.png,t5.png,0,0.97829,19,female,2020-09-16_13h34.07.703,torte-2b,2020.1.3,MacIntel,60,13230,1.25718,,,,,,,,,,,,,,,,,,,,,,,,,,,,,,,,,,,,,,,,,,,,,,,,,,,,,,,,,,,,,,,,,
,,,,,,,,,,,,l,Correct!,0,2,2,88,1,t3.png,t1.png,2,0.056466,19,female,2020-09-16_13h34.07.703,torte-2b,2020.1.3,MacIntel,60,13230,1.502535,,,,,,,,,,,,,,,,,,,,,,,,,,,,,,,,,,,,,,,,,,,,,,,,,,,,,,,,,,,,,,,,,
,,,,,,,,,,,,a,Correct!,0,3,3,62,1,t5.png,t5.png,0,0.978,19,female,2020-09-16_13h34.07.703,torte-2b,2020.1.3,MacIntel,60,13230,1.0978,,,,,,,,,,,,,,,,,,,,,,,,,,,,,,,,,,,,,,,,,,,,,,,,,,,,,,,,,,,,,,,,,
,,,,,,,,,,,,a,Correct!,0,4,4,58,1,t5.png,t4.png,1,0.90025,19,female,2020-09-16_13h34.07.703,torte-2b,2020.1.3,MacIntel,60,13230,0.847005,,,,,,,,,,,,,,,,,,,,,,,,,,,,,,,,,,,,,,,,,,,,,,,,,,,,,,,,,,,,,,,,,
,,,,,,,,,,,,a,Correct!,0,5,5,110,1,t4.png,t5.png,1,0.90025,19,female,2020-09-16_13h34.07.703,torte-2b,2020.1.3,MacIntel,60,13230,0.882065,,,,,,,,,,,,,,,,,,,,,,,,,,,,,,,,,,,,,,,,,,,,,,,,,,,,,,,,,,,,,,,,,
,,,,,,,,,,,,l,Correct!,0,6,6,93,1,t2.png,t4.png,2,0.059078,19,female,2020-09-16_13h34.07.703,torte-2b,2020.1.3,MacIntel,60,13230,1.773805,,,,,,,,,,,,,,,,,,,,,,,,,,,,,,,,,,,,,,,,,,,,,,,,,,,,,,,,,,,,,,,,,
,,,,,,,,,,,,l,Incorrect,0,7,7,78,1,t1.png,t1.png,0,0.978,19,female,2020-09-16_13h34.07.703,torte-2b,2020.1.3,MacIntel,60,13230,0.89773,,,,,,,,,,,,,,,,,,,,,,,,,,,,,,,,,,,,,,,,,,,,,,,,,,,,,,,,,,,,,,,,,
,,,,,,,,,,,,l,Correct!,0,8,8,80,1,t1.png,t4.png,3,0.0000131,19,female,2020-09-16_13h34.07.703,torte-2b,2020.1.3,MacIntel,60,13230,2.27459,,,,,,,,,,,,,,,,,,,,,,,,,,,,,,,,,,,,,,,,,,,,,,,,,,,,,,,,,,,,,,,,,
,,,,,,,,,,,,l,Correct!,0,9,9,102,1,t4.png,t2.png,2,0.059078,19,female,2020-09-16_13h34.07.703,torte-2b,2020.1.3,MacIntel,60,13230,1.649955,,,,,,,,,,,,,,,,,,,,,,,,,,,,,,,,,,,,,,,,,,,,,,,,,,,,,,,,,,,,,,,,,
,,,,,,,,,,,,l,Correct!,0,10,10,26,1,t4.png,t2.png,2,0.0591,19,female,2020-09-16_13h34.07.703,torte-2b,2020.1.3,MacIntel,60,13230,1.923235,,,,,,,,,,,,,,,,,,,,,,,,,,,,,,,,,,,,,,,,,,,,,,,,,,,,,,,,,,,,,,,,,
,,,,,,,,,,,,l,Correct!,0,11,11,68,1,t1.png,t4.png,3,0.0000131,19,female,2020-09-16_13h34.07.703,torte-2b,2020.1.3,MacIntel,60,13230,1.62858,,,,,,,,,,,,,,,,,,,,,,,,,,,,,,,,,,,,,,,,,,,,,,,,,,,,,,,,,,,,,,,,,
,,,,,,,,,,,,a,Incorrect,0,12,12,119,1,t1.png,t5.png,4,9.55E-11,19,female,2020-09-16_13h34.07.703,torte-2b,2020.1.3,MacIntel,60,13230,2.1452,,,,,,,,,,,,,,,,,,,,,,,,,,,,,,,,,,,,,,,,,,,,,,,,,,,,,,,,,,,,,,,,,
,,,,,,,,,,,,a,Correct!,0,13,13,29,1,t5.png,t5.png,0,0.97829,19,female,2020-09-16_13h34.07.703,torte-2b,2020.1.3,MacIntel,60,13230,1.14995,,,,,,,,,,,,,,,,,,,,,,,,,,,,,,,,,,,,,,,,,,,,,,,,,,,,,,,,,,,,,,,,,
,,,,,,,,,,,,a,Correct!,0,14,14,116,1,t5.png,t4.png,1,0.90025,19,female,2020-09-16_13h34.07.703,torte-2b,2020.1.3,MacIntel,60,13230,0.605945,,,,,,,,,,,,,,,,,,,,,,,,,,,,,,,,,,,,,,,,,,,,,,,,,,,,,,,,,,,,,,,,,
,,,,,,,,,,,,a,Correct!,0,15,15,25,1,t5.png,t5.png,0,0.97829,19,female,2020-09-16_13h34.07.703,torte-2b,2020.1.3,MacIntel,60,13230,0.617995,,,,,,,,,,,,,,,,,,,,,,,,,,,,,,,,,,,,,,,,,,,,,,,,,,,,,,,,,,,,,,,,,
,,,,,,,,,,,,l,Incorrect,0,16,16,63,1,t2.png,t3.png,1,0.909,19,female,2020-09-16_13h34.07.703,torte-2b,2020.1.3,MacIntel,60,13230,0.597835,,,,,,,,,,,,,,,,,,,,,,,,,,,,,,,,,,,,,,,,,,,,,,,,,,,,,,,,,,,,,,,,,
,,,,,,,,,,,,l,Correct!,0,17,17,37,1,t1.png,t4.png,3,0.0000131,19,female,2020-09-16_13h34.07.703,torte-2b,2020.1.3,MacIntel,60,13230,1.04966,,,,,,,,,,,,,,,,,,,,,,,,,,,,,,,,,,,,,,,,,,,,,,,,,,,,,,,,,,,,,,,,,
,,,,,,,,,,,,l,Correct!,0,18,18,44,1,t2.png,t3.png,1,0.909,19,female,2020-09-16_13h34.07.703,torte-2b,2020.1.3,MacIntel,60,13230,0.984595,,,,,,,,,,,,,,,,,,,,,,,,,,,,,,,,,,,,,,,,,,,,,,,,,,,,,,,,,,,,,,,,,
,,,,,,,,,,,,l,Correct!,0,19,19,30,1,t3.png,t1.png,2,0.056466,19,female,2020-09-16_13h34.07.703,torte-2b,2020.1.3,MacIntel,60,13230,1.448205,,,,,,,,,,,,,,,,,,,,,,,,,,,,,,,,,,,,,,,,,,,,,,,,,,,,,,,,,,,,,,,,,
,,,,,,,,,,,,l,Correct!,0,20,20,12,1,t5.png,t1.png,4,9.55E-11,19,female,2020-09-16_13h34.07.703,torte-2b,2020.1.3,MacIntel,60,13230,1.89702,,,,,,,,,,,,,,,,,,,,,,,,,,,,,,,,,,,,,,,,,,,,,,,,,,,,,,,,,,,,,,,,,
,,,,,,,,,,,,l,Incorrect,0,21,21,96,1,t1.png,t1.png,0,0.97829,19,female,2020-09-16_13h34.07.703,torte-2b,2020.1.3,MacIntel,60,13230,0.832545,,,,,,,,,,,,,,,,,,,,,,,,,,,,,,,,,,,,,,,,,,,,,,,,,,,,,,,,,,,,,,,,,
,,,,,,,,,,,,l,Correct!,0,22,22,55,1,t2.png,t4.png,2,0.059078,19,female,2020-09-16_13h34.07.703,torte-2b,2020.1.3,MacIntel,60,13230,2.090625,,,,,,,,,,,,,,,,,,,,,,,,,,,,,,,,,,,,,,,,,,,,,,,,,,,,,,,,,,,,,,,,,
,,,,,,,,,,,,l,Correct!,0,23,23,14,1,t2.png,t4.png,2,0.059078,19,female,2020-09-16_13h34.07.703,torte-2b,2020.1.3,MacIntel,60,13230,1.17074,,,,,,,,,,,,,,,,,,,,,,,,,,,,,,,,,,,,,,,,,,,,,,,,,,,,,,,,,,,,,,,,,
,,,,,,,,,,,,a,Incorrect,0,24,24,74,1,t5.png,t4.png,1,0.9,19,female,2020-09-16_13h34.07.703,torte-2b,2020.1.3,MacIntel,60,13230,0.73309,,,,,,,,,,,,,,,,,,,,,,,,,,,,,,,,,,,,,,,,,,,,,,,,,,,,,,,,,,,,,,,,,
,,,,,,,,,,,,l,Correct!,0,25,25,3,1,t1.png,t5.png,4,9.55E-11,19,female,2020-09-16_13h34.07.703,torte-2b,2020.1.3,MacIntel,60,13230,0.749175,,,,,,,,,,,,,,,,,,,,,,,,,,,,,,,,,,,,,,,,,,,,,,,,,,,,,,,,,,,,,,,,,
,,,,,,,,,,,,l,Correct!,0,26,26,31,1,t1.png,t5.png,4,9.55E-11,19,female,2020-09-16_13h34.07.703,torte-2b,2020.1.3,MacIntel,60,13230,0.754385,,,,,,,,,,,,,,,,,,,,,,,,,,,,,,,,,,,,,,,,,,,,,,,,,,,,,,,,,,,,,,,,,
,,,,,,,,,,,,a,Correct!,0,27,27,113,1,t5.png,t4.png,1,0.9,19,female,2020-09-16_13h34.07.703,torte-2b,2020.1.3,MacIntel,60,13230,1.001135,,,,,,,,,,,,,,,,,,,,,,,,,,,,,,,,,,,,,,,,,,,,,,,,,,,,,,,,,,,,,,,,,
,,,,,,,,,,,,l,Incorrect,0,28,28,77,1,t1.png,t1.png,0,0.97829,19,female,2020-09-16_13h34.07.703,torte-2b,2020.1.3,MacIntel,60,13230,1.071205,,,,,,,,,,,,,,,,,,,,,,,,,,,,,,,,,,,,,,,,,,,,,,,,,,,,,,,,,,,,,,,,,
,,,,,,,,,,,,a,Incorrect,0,29,29,79,1,t3.png,t2.png,1,0.909,19,female,2020-09-16_13h34.07.703,torte-2b,2020.1.3,MacIntel,60,13230,1.03164,,,,,,,,,,,,,,,,,,,,,,,,,,,,,,,,,,,,,,,,,,,,,,,,,,,,,,,,,,,,,,,,,
,,,,,,,,,,,,l,Correct!,0,30,30,61,1,t1.png,t4.png,3,0.0000131,19,female,2020-09-16_13h34.07.703,torte-2b,2020.1.3,MacIntel,60,13230,1.4137,,,,,,,,,,,,,,,,,,,,,,,,,,,,,,,,,,,,,,,,,,,,,,,,,,,,,,,,,,,,,,,,,
,,,,,,,,,,,,l,Correct!,0,31,31,17,1,t1.png,t4.png,3,0.0000131,19,female,2020-09-16_13h34.07.703,torte-2b,2020.1.3,MacIntel,60,13230,0.78169,,,,,,,,,,,,,,,,,,,,,,,,,,,,,,,,,,,,,,,,,,,,,,,,,,,,,,,,,,,,,,,,,
,,,,,,,,,,,,l,Correct!,0,32,32,52,1,t2.png,t4.png,2,0.059078,19,female,2020-09-16_13h34.07.703,torte-2b,2020.1.3,MacIntel,60,13230,1.199195,,,,,,,,,,,,,,,,,,,,,,,,,,,,,,,,,,,,,,,,,,,,,,,,,,,,,,,,,,,,,,,,,
,,,,,,,,,,,,l,Correct!,0,33,33,54,1,t1.png,t5.png,4,9.55E-11,19,female,2020-09-16_13h34.07.703,torte-2b,2020.1.3,MacIntel,60,13230,1.03366,,,,,,,,,,,,,,,,,,,,,,,,,,,,,,,,,,,,,,,,,,,,,,,,,,,,,,,,,,,,,,,,,
,,,,,,,,,,,,a,Incorrect,0,34,34,46,1,t4.png,t2.png,2,0.059078,19,female,2020-09-16_13h34.07.703,torte-2b,2020.1.3,MacIntel,60,13230,0.588165,,,,,,,,,,,,,,,,,,,,,,,,,,,,,,,,,,,,,,,,,,,,,,,,,,,,,,,,,,,,,,,,,
,,,,,,,,,,,,l,Correct!,0,35,35,117,1,t1.png,t5.png,4,9.55E-11,19,female,2020-09-16_13h34.07.703,torte-2b,2020.1.3,MacIntel,60,13230,0.66781,,,,,,,,,,,,,,,,,,,,,,,,,,,,,,,,,,,,,,,,,,,,,,,,,,,,,,,,,,,,,,,,,
,,,,,,,,,,,,a,Correct!,0,36,36,21,1,t5.png,t4.png,1,0.90025,19,female,2020-09-16_13h34.07.703,torte-2b,2020.1.3,MacIntel,60,13230,1.099795,,,,,,,,,,,,,,,,,,,,,,,,,,,,,,,,,,,,,,,,,,,,,,,,,,,,,,,,,,,,,,,,,
,,,,,,,,,,,,a,Incorrect,0,37,37,86,1,t3.png,t1.png,2,0.056466,19,female,2020-09-16_13h34.07.703,torte-2b,2020.1.3,MacIntel,60,13230,2.27113,,,,,,,,,,,,,,,,,,,,,,,,,,,,,,,,,,,,,,,,,,,,,,,,,,,,,,,,,,,,,,,,,
,,,,,,,,,,,,l,Incorrect,0,38,38,64,1,t1.png,t1.png,0,0.978,19,female,2020-09-16_13h34.07.703,torte-2b,2020.1.3,MacIntel,60,13230,0.9868,,,,,,,,,,,,,,,,,,,,,,,,,,,,,,,,,,,,,,,,,,,,,,,,,,,,,,,,,,,,,,,,,
,,,,,,,,,,,,a,Correct!,0,39,39,34,1,t5.png,t4.png,1,0.9,19,female,2020-09-16_13h34.07.703,torte-2b,2020.1.3,MacIntel,60,13230,1.210385,,,,,,,,,,,,,,,,,,,,,,,,,,,,,,,,,,,,,,,,,,,,,,,,,,,,,,,,,,,,,,,,,
,,,,,,,,,,,,,Too slow :(,0,40,40,82,1,t5.png,t1.png,4,9.55E-11,19,female,2020-09-16_13h34.07.703,torte-2b,2020.1.3,MacIntel,60,13230,,,,,,,,,,,,,,,,,,,,,,,,,,,,,,,,,,,,,,,,,,,,,,,,,,,,,,,,,,,,,,,,,,
,,,,,,,,,,,,a,Incorrect,0,41,41,53,1,t3.png,t1.png,2,0.056466,19,female,2020-09-16_13h34.07.703,torte-2b,2020.1.3,MacIntel,60,13230,1.525755,,,,,,,,,,,,,,,,,,,,,,,,,,,,,,,,,,,,,,,,,,,,,,,,,,,,,,,,,,,,,,,,,
,,,,,,,,,,,,a,Correct!,0,42,42,32,1,t4.png,t5.png,1,0.90025,19,female,2020-09-16_13h34.07.703,torte-2b,2020.1.3,MacIntel,60,13230,0.75082,,,,,,,,,,,,,,,,,,,,,,,,,,,,,,,,,,,,,,,,,,,,,,,,,,,,,,,,,,,,,,,,,
,,,,,,,,,,,,a,Correct!,0,43,43,16,1,t5.png,t4.png,1,0.9,19,female,2020-09-16_13h34.07.703,torte-2b,2020.1.3,MacIntel,60,13230,1.148085,,,,,,,,,,,,,,,,,,,,,,,,,,,,,,,,,,,,,,,,,,,,,,,,,,,,,,,,,,,,,,,,,
,,,,,,,,,,,,l,Incorrect,0,44,44,104,1,t2.png,t3.png,1,0.90855,19,female,2020-09-16_13h34.07.703,torte-2b,2020.1.3,MacIntel,60,13230,1.89831,,,,,,,,,,,,,,,,,,,,,,,,,,,,,,,,,,,,,,,,,,,,,,,,,,,,,,,,,,,,,,,,,
,,,,,,,,,,,,a,Incorrect,0,45,45,73,1,t4.png,t2.png,2,0.059078,19,female,2020-09-16_13h34.07.703,torte-2b,2020.1.3,MacIntel,60,13230,1.043065,,,,,,,,,,,,,,,,,,,,,,,,,,,,,,,,,,,,,,,,,,,,,,,,,,,,,,,,,,,,,,,,,
,,,,,,,,,,,,a,Incorrect,0,46,46,103,1,t3.png,t1.png,2,0.056466,19,female,2020-09-16_13h34.07.703,torte-2b,2020.1.3,MacIntel,60,13230,1.733175,,,,,,,,,,,,,,,,,,,,,,,,,,,,,,,,,,,,,,,,,,,,,,,,,,,,,,,,,,,,,,,,,
,,,,,,,,,,,,l,Incorrect,0,47,47,85,1,t3.png,t2.png,1,0.90855,19,female,2020-09-16_13h34.07.703,torte-2b,2020.1.3,MacIntel,60,13230,1.11486,,,,,,,,,,,,,,,,,,,,,,,,,,,,,,,,,,,,,,,,,,,,,,,,,,,,,,,,,,,,,,,,,
,,,,,,,,,,,,l,Incorrect,0,48,48,101,1,t4.png,t5.png,1,0.90025,19,female,2020-09-16_13h34.07.703,torte-2b,2020.1.3,MacIntel,60,13230,1.56347,,,,,,,,,,,,,,,,,,,,,,,,,,,,,,,,,,,,,,,,,,,,,,,,,,,,,,,,,,,,,,,,,
,,,,,,,,,,,,l,Correct!,0,49,49,10,1,t2.png,t3.png,1,0.90855,19,female,2020-09-16_13h34.07.703,torte-2b,2020.1.3,MacIntel,60,13230,0.972925,,,,,,,,,,,,,,,,,,,,,,,,,,,,,,,,,,,,,,,,,,,,,,,,,,,,,,,,,,,,,,,,,
,,,,,,,,,,,,l,Correct!,0,50,50,35,1,t1.png,t4.png,3,0.0000131,19,female,2020-09-16_13h34.07.703,torte-2b,2020.1.3,MacIntel,60,13230,1.05489,,,,,,,,,,,,,,,,,,,,,,,,,,,,,,,,,,,,,,,,,,,,,,,,,,,,,,,,,,,,,,,,,
,,,,,,,,,,,,l,Correct!,0,51,51,38,1,t3.png,t1.png,2,0.056466,19,female,2020-09-16_13h34.07.703,torte-2b,2020.1.3,MacIntel,60,13230,0.948135,,,,,,,,,,,,,,,,,,,,,,,,,,,,,,,,,,,,,,,,,,,,,,,,,,,,,,,,,,,,,,,,,
,,,,,,,,,,,,l,Correct!,0,52,52,57,1,t2.png,t4.png,2,0.059078,19,female,2020-09-16_13h34.07.703,torte-2b,2020.1.3,MacIntel,60,13230,2.04997,,,,,,,,,,,,,,,,,,,,,,,,,,,,,,,,,,,,,,,,,,,,,,,,,,,,,,,,,,,,,,,,,
,,,,,,,,,,,,l,Correct!,0,53,53,6,1,t1.png,t4.png,3,0.0000131,19,female,2020-09-16_13h34.07.703,torte-2b,2020.1.3,MacIntel,60,13230,1.38148,,,,,,,,,,,,,,,,,,,,,,,,,,,,,,,,,,,,,,,,,,,,,,,,,,,,,,,,,,,,,,,,,
,,,,,,,,,,,,l,Correct!,0,54,54,11,1,t1.png,t4.png,3,0.0000131,19,female,2020-09-16_13h34.07.703,torte-2b,2020.1.3,MacIntel,60,13230,0.891055,,,,,,,,,,,,,,,,,,,,,,,,,,,,,,,,,,,,,,,,,,,,,,,,,,,,,,,,,,,,,,,,,
,,,,,,,,,,,,l,Incorrect,0,55,55,2,1,t3.png,t2.png,1,0.90855,19,female,2020-09-16_13h34.07.703,torte-2b,2020.1.3,MacIntel,60,13230,1.00574,,,,,,,,,,,,,,,,,,,,,,,,,,,,,,,,,,,,,,,,,,,,,,,,,,,,,,,,,,,,,,,,,
,,,,,,,,,,,,l,Incorrect,0,56,56,66,1,t4.png,t5.png,1,0.9,19,female,2020-09-16_13h34.07.703,torte-2b,2020.1.3,MacIntel,60,13230,2.16397,,,,,,,,,,,,,,,,,,,,,,,,,,,,,,,,,,,,,,,,,,,,,,,,,,,,,,,,,,,,,,,,,
,,,,,,,,,,,,l,Correct!,0,57,57,91,1,t1.png,t4.png,3,0.0000131,19,female,2020-09-16_13h34.07.703,torte-2b,2020.1.3,MacIntel,60,13230,1.11429,,,,,,,,,,,,,,,,,,,,,,,,,,,,,,,,,,,,,,,,,,,,,,,,,,,,,,,,,,,,,,,,,
,,,,,,,,,,,,l,Correct!,0,58,58,1,1,t2.png,t4.png,2,0.059078,19,female,2020-09-16_13h34.07.703,torte-2b,2020.1.3,MacIntel,60,13230,1.097945,,,,,,,,,,,,,,,,,,,,,,,,,,,,,,,,,,,,,,,,,,,,,,,,,,,,,,,,,,,,,,,,,
,,,,,,,,,,,,a,Incorrect,0,59,59,111,1,t5.png,t1.png,4,9.55E-11,19,female,2020-09-16_13h34.07.703,torte-2b,2020.1.3,MacIntel,60,13230,0.85544,,,,,,,,,,,,,,,,,,,,,,,,,,,,,,,,,,,,,,,,,,,,,,,,,,,,,,,,,,,,,,,,,
,,,,,,,,,,,,a,Incorrect,0,60,60,43,1,t4.png,t2.png,2,0.059078,19,female,2020-09-16_13h34.07.703,torte-2b,2020.1.3,MacIntel,60,13230,0.677825,,,,,,,,,,,,,,,,,,,,,,,,,,,,,,,,,,,,,,,,,,,,,,,,,,,,,,,,,,,,,,,,,
,,,,,,,,,,,,l,Correct!,0,61,61,47,1,t4.png,t2.png,2,0.059078,19,female,2020-09-16_13h34.07.703,torte-2b,2020.1.3,MacIntel,60,13230,0.70062,,,,,,,,,,,,,,,,,,,,,,,,,,,,,,,,,,,,,,,,,,,,,,,,,,,,,,,,,,,,,,,,,
,,,,,,,,,,,,a,Correct!,0,62,62,71,1,t5.png,t5.png,0,0.97829,19,female,2020-09-16_13h34.07.703,torte-2b,2020.1.3,MacIntel,60,13230,1.085545,,,,,,,,,,,,,,,,,,,,,,,,,,,,,,,,,,,,,,,,,,,,,,,,,,,,,,,,,,,,,,,,,
,,,,,,,,,,,,a,Correct!,0,63,63,107,1,t1.png,t1.png,0,0.978,19,female,2020-09-16_13h34.07.703,torte-2b,2020.1.3,MacIntel,60,13230,1.148,,,,,,,,,,,,,,,,,,,,,,,,,,,,,,,,,,,,,,,,,,,,,,,,,,,,,,,,,,,,,,,,,
,,,,,,,,,,,,a,Correct!,0,64,64,100,1,t4.png,t5.png,1,0.90025,19,female,2020-09-16_13h34.07.703,torte-2b,2020.1.3,MacIntel,60,13230,1.6819,,,,,,,,,,,,,,,,,,,,,,,,,,,,,,,,,,,,,,,,,,,,,,,,,,,,,,,,,,,,,,,,,
,,,,,,,,,,,,a,Correct!,0,65,65,13,1,t5.png,t5.png,0,0.97829,19,female,2020-09-16_13h34.07.703,torte-2b,2020.1.3,MacIntel,60,13230,0.9664,,,,,,,,,,,,,,,,,,,,,,,,,,,,,,,,,,,,,,,,,,,,,,,,,,,,,,,,,,,,,,,,,
,,,,,,,,,,,,a,Incorrect,0,66,66,72,1,t4.png,t2.png,2,0.059078,19,female,2020-09-16_13h34.07.703,torte-2b,2020.1.3,MacIntel,60,13230,0.98163,,,,,,,,,,,,,,,,,,,,,,,,,,,,,,,,,,,,,,,,,,,,,,,,,,,,,,,,,,,,,,,,,
,,,,,,,,,,,,l,Incorrect,0,67,67,45,1,t3.png,t2.png,1,0.90855,19,female,2020-09-16_13h34.07.703,torte-2b,2020.1.3,MacIntel,60,13230,1.07462,,,,,,,,,,,,,,,,,,,,,,,,,,,,,,,,,,,,,,,,,,,,,,,,,,,,,,,,,,,,,,,,,
,,,,,,,,,,,,a,Correct!,0,68,68,97,1,t5.png,t5.png,0,0.97829,19,female,2020-09-16_13h34.07.703,torte-2b,2020.1.3,MacIntel,60,13230,1.5491,,,,,,,,,,,,,,,,,,,,,,,,,,,,,,,,,,,,,,,,,,,,,,,,,,,,,,,,,,,,,,,,,
,,,,,,,,,,,,l,Correct!,0,69,69,51,1,t3.png,t1.png,2,0.056466,19,female,2020-09-16_13h34.07.703,torte-2b,2020.1.3,MacIntel,60,13230,1.320785,,,,,,,,,,,,,,,,,,,,,,,,,,,,,,,,,,,,,,,,,,,,,,,,,,,,,,,,,,,,,,,,,
,,,,,,,,,,,,l,Incorrect,0,70,70,112,1,t1.png,t1.png,0,0.97829,19,female,2020-09-16_13h34.07.703,torte-2b,2020.1.3,MacIntel,60,13230,0.75,,,,,,,,,,,,,,,,,,,,,,,,,,,,,,,,,,,,,,,,,,,,,,,,,,,,,,,,,,,,,,,,,
,,,,,,,,,,,,a,Correct!,0,71,71,18,1,t4.png,t5.png,1,0.90025,19,female,2020-09-16_13h34.07.703,torte-2b,2020.1.3,MacIntel,60,13230,0.89931,,,,,,,,,,,,,,,,,,,,,,,,,,,,,,,,,,,,,,,,,,,,,,,,,,,,,,,,,,,,,,,,,
,,,,,,,,,,,,l,Correct!,0,72,72,99,1,t1.png,t5.png,4,9.55E-11,19,female,2020-09-16_13h34.07.703,torte-2b,2020.1.3,MacIntel,60,13230,0.710245,,,,,,,,,,,,,,,,,,,,,,,,,,,,,,,,,,,,,,,,,,,,,,,,,,,,,,,,,,,,,,,,,
,,,,,,,,,,,,l,Correct!,0,73,73,4,1,t1.png,t5.png,4,9.55E-11,19,female,2020-09-16_13h34.07.703,torte-2b,2020.1.3,MacIntel,60,13230,0.518175,,,,,,,,,,,,,,,,,,,,,,,,,,,,,,,,,,,,,,,,,,,,,,,,,,,,,,,,,,,,,,,,,
,,,,,,,,,,,,l,Incorrect,0,74,74,105,1,t3.png,t2.png,1,0.90855,19,female,2020-09-16_13h34.07.703,torte-2b,2020.1.3,MacIntel,60,13230,1.23156,,,,,,,,,,,,,,,,,,,,,,,,,,,,,,,,,,,,,,,,,,,,,,,,,,,,,,,,,,,,,,,,,
,,,,,,,,,,,,a,Correct!,0,75,75,41,1,t3.png,t2.png,1,0.90855,19,female,2020-09-16_13h34.07.703,torte-2b,2020.1.3,MacIntel,60,13230,1.214125,,,,,,,,,,,,,,,,,,,,,,,,,,,,,,,,,,,,,,,,,,,,,,,,,,,,,,,,,,,,,,,,,
,,,,,,,,,,,,a,Correct!,0,76,76,65,1,t4.png,t5.png,1,0.90025,19,female,2020-09-16_13h34.07.703,torte-2b,2020.1.3,MacIntel,60,13230,1.925105,,,,,,,,,,,,,,,,,,,,,,,,,,,,,,,,,,,,,,,,,,,,,,,,,,,,,,,,,,,,,,,,,
,,,,,,,,,,,,a,Incorrect,0,77,77,106,1,t2.png,t3.png,1,0.90855,19,female,2020-09-16_13h34.07.703,torte-2b,2020.1.3,MacIntel,60,13230,1.106185,,,,,,,,,,,,,,,,,,,,,,,,,,,,,,,,,,,,,,,,,,,,,,,,,,,,,,,,,,,,,,,,,
,,,,,,,,,,,,l,Correct!,0,78,78,115,1,t2.png,t4.png,2,0.059078,19,female,2020-09-16_13h34.07.703,torte-2b,2020.1.3,MacIntel,60,13230,1.85834,,,,,,,,,,,,,,,,,,,,,,,,,,,,,,,,,,,,,,,,,,,,,,,,,,,,,,,,,,,,,,,,,
,,,,,,,,,,,,a,Correct!,0,79,79,7,1,t4.png,t5.png,1,0.90025,19,female,2020-09-16_13h34.07.703,torte-2b,2020.1.3,MacIntel,60,13230,0.977225,,,,,,,,,,,,,,,,,,,,,,,,,,,,,,,,,,,,,,,,,,,,,,,,,,,,,,,,,,,,,,,,,
,,,,,,,,,,,,a,Incorrect,0,80,80,19,1,t4.png,t2.png,2,0.059078,19,female,2020-09-16_13h34.07.703,torte-2b,2020.1.3,MacIntel,60,13230,1.813795,,,,,,,,,,,,,,,,,,,,,,,,,,,,,,,,,,,,,,,,,,,,,,,,,,,,,,,,,,,,,,,,,
,,,,,,,,,,,,a,Incorrect,0,81,81,49,1,t4.png,t5.png,1,0.9,19,female,2020-09-16_13h34.07.703,torte-2b,2020.1.3,MacIntel,60,13230,0.83893,,,,,,,,,,,,,,,,,,,,,,,,,,,,,,,,,,,,,,,,,,,,,,,,,,,,,,,,,,,,,,,,,
,,,,,,,,,,,,a,Correct!,0,82,82,23,1,t5.png,t4.png,1,0.90025,19,female,2020-09-16_13h34.07.703,torte-2b,2020.1.3,MacIntel,60,13230,0.75093,,,,,,,,,,,,,,,,,,,,,,,,,,,,,,,,,,,,,,,,,,,,,,,,,,,,,,,,,,,,,,,,,
,,,,,,,,,,,,l,Incorrect,0,83,83,98,1,t2.png,t4.png,2,0.0591,19,female,2020-09-16_13h34.07.703,torte-2b,2020.1.3,MacIntel,60,13230,0.91752,,,,,,,,,,,,,,,,,,,,,,,,,,,,,,,,,,,,,,,,,,,,,,,,,,,,,,,,,,,,,,,,,
,,,,,,,,,,,,a,Incorrect,0,84,84,0,1,t5.png,t1.png,4,9.55E-11,19,female,2020-09-16_13h34.07.703,torte-2b,2020.1.3,MacIntel,60,13230,0.73773,,,,,,,,,,,,,,,,,,,,,,,,,,,,,,,,,,,,,,,,,,,,,,,,,,,,,,,,,,,,,,,,,
,,,,,,,,,,,,a,Incorrect,0,85,85,87,1,t5.png,t1.png,4,9.55E-11,19,female,2020-09-16_13h34.07.703,torte-2b,2020.1.3,MacIntel,60,13230,0.75705,,,,,,,,,,,,,,,,,,,,,,,,,,,,,,,,,,,,,,,,,,,,,,,,,,,,,,,,,,,,,,,,,
,,,,,,,,,,,,a,Correct!,0,86,86,9,1,t4.png,t5.png,1,0.9,19,female,2020-09-16_13h34.07.703,torte-2b,2020.1.3,MacIntel,60,13230,0.78386,,,,,,,,,,,,,,,,,,,,,,,,,,,,,,,,,,,,,,,,,,,,,,,,,,,,,,,,,,,,,,,,,
,,,,,,,,,,,,a,Incorrect,0,87,87,33,1,t5.png,t1.png,4,9.55E-11,19,female,2020-09-16_13h34.07.703,torte-2b,2020.1.3,MacIntel,60,13230,0.730225,,,,,,,,,,,,,,,,,,,,,,,,,,,,,,,,,,,,,,,,,,,,,,,,,,,,,,,,,,,,,,,,,
,,,,,,,,,,,,a,Incorrect,0,88,88,69,1,t4.png,t2.png,2,0.059078,19,female,2020-09-16_13h34.07.703,torte-2b,2020.1.3,MacIntel,60,13230,0.76745,,,,,,,,,,,,,,,,,,,,,,,,,,,,,,,,,,,,,,,,,,,,,,,,,,,,,,,,,,,,,,,,,
,,,,,,,,,,,,l,Correct!,0,89,89,89,1,t1.png,t4.png,3,0.0000131,19,female,2020-09-16_13h34.07.703,torte-2b,2020.1.3,MacIntel,60,13230,2.275815,,,,,,,,,,,,,,,,,,,,,,,,,,,,,,,,,,,,,,,,,,,,,,,,,,,,,,,,,,,,,,,,,
,,,,,,,,,,,,l,Correct!,0,90,90,56,1,t5.png,t1.png,4,9.55E-11,19,female,2020-09-16_13h34.07.703,torte-2b,2020.1.3,MacIntel,60,13230,0.46595,,,,,,,,,,,,,,,,,,,,,,,,,,,,,,,,,,,,,,,,,,,,,,,,,,,,,,,,,,,,,,,,,
,,,,,,,,,,,,l,Correct!,0,91,91,24,1,t4.png,t2.png,2,0.059078,19,female,2020-09-16_13h34.07.703,torte-2b,2020.1.3,MacIntel,60,13230,1.39921,,,,,,,,,,,,,,,,,,,,,,,,,,,,,,,,,,,,,,,,,,,,,,,,,,,,,,,,,,,,,,,,,
,,,,,,,,,,,,a,Correct!,0,92,92,75,1,t1.png,t1.png,0,0.97829,19,female,2020-09-16_13h34.07.703,torte-2b,2020.1.3,MacIntel,60,13230,0.99622,,,,,,,,,,,,,,,,,,,,,,,,,,,,,,,,,,,,,,,,,,,,,,,,,,,,,,,,,,,,,,,,,
,,,,,,,,,,,,a,Correct!,0,93,93,28,1,t2.png,t3.png,1,0.909,19,female,2020-09-16_13h34.07.703,torte-2b,2020.1.3,MacIntel,60,13230,0.999555,,,,,,,,,,,,,,,,,,,,,,,,,,,,,,,,,,,,,,,,,,,,,,,,,,,,,,,,,,,,,,,,,
,,,,,,,,,,,,l,Correct!,0,94,94,40,1,t1.png,t5.png,4,9.55E-11,19,female,2020-09-16_13h34.07.703,torte-2b,2020.1.3,MacIntel,60,13230,0.764655,,,,,,,,,,,,,,,,,,,,,,,,,,,,,,,,,,,,,,,,,,,,,,,,,,,,,,,,,,,,,,,,,
,,,,,,,,,,,,l,Correct!,0,95,95,5,1,t2.png,t4.png,2,0.059078,19,female,2020-09-16_13h34.07.703,torte-2b,2020.1.3,MacIntel,60,13230,1.09295,,,,,,,,,,,,,,,,,,,,,,,,,,,,,,,,,,,,,,,,,,,,,,,,,,,,,,,,,,,,,,,,,
,,,,,,,,,,,,l,Correct!,0,96,96,60,1,t2.png,t4.png,2,0.059078,19,female,2020-09-16_13h34.07.703,torte-2b,2020.1.3,MacIntel,60,13230,1.087975,,,,,,,,,,,,,,,,,,,,,,,,,,,,,,,,,,,,,,,,,,,,,,,,,,,,,,,,,,,,,,,,,
,,,,,,,,,,,,a,Correct!,0,97,97,95,1,t1.png,t1.png,0,0.978,19,female,2020-09-16_13h34.07.703,torte-2b,2020.1.3,MacIntel,60,13230,0.62958,,,,,,,,,,,,,,,,,,,,,,,,,,,,,,,,,,,,,,,,,,,,,,,,,,,,,,,,,,,,,,,,,
,,,,,,,,,,,,l,Correct!,0,98,98,108,1,t5.png,t1.png,4,9.55E-11,19,female,2020-09-16_13h34.07.703,torte-2b,2020.1.3,MacIntel,60,13230,1.00098,,,,,,,,,,,,,,,,,,,,,,,,,,,,,,,,,,,,,,,,,,,,,,,,,,,,,,,,,,,,,,,,,
,,,,,,,,,,,,a,Correct!,0,99,99,76,1,t3.png,t2.png,1,0.90855,19,female,2020-09-16_13h34.07.703,torte-2b,2020.1.3,MacIntel,60,13230,0.98992,,,,,,,,,,,,,,,,,,,,,,,,,,,,,,,,,,,,,,,,,,,,,,,,,,,,,,,,,,,,,,,,,
,,,,,,,,,,,,a,Correct!,0,100,100,48,1,t5.png,t5.png,0,0.97829,19,female,2020-09-16_13h34.07.703,torte-2b,2020.1.3,MacIntel,60,13230,1.25274,,,,,,,,,,,,,,,,,,,,,,,,,,,,,,,,,,,,,,,,,,,,,,,,,,,,,,,,,,,,,,,,,
,,,,,,,,,,,,a,Incorrect,0,101,101,83,1,t3.png,t1.png,2,0.056466,19,female,2020-09-16_13h34.07.703,torte-2b,2020.1.3,MacIntel,60,13230,0.72016,,,,,,,,,,,,,,,,,,,,,,,,,,,,,,,,,,,,,,,,,,,,,,,,,,,,,,,,,,,,,,,,,
,,,,,,,,,,,,a,Correct!,0,102,102,114,1,t2.png,t3.png,1,0.90855,19,female,2020-09-16_13h34.07.703,torte-2b,2020.1.3,MacIntel,60,13230,1.165855,,,,,,,,,,,,,,,,,,,,,,,,,,,,,,,,,,,,,,,,,,,,,,,,,,,,,,,,,,,,,,,,,
,,,,,,,,,,,,a,Correct!,0,103,103,59,1,t5.png,t4.png,1,0.9,19,female,2020-09-16_13h34.07.703,torte-2b,2020.1.3,MacIntel,60,13230,1.36644,,,,,,,,,,,,,,,,,,,,,,,,,,,,,,,,,,,,,,,,,,,,,,,,,,,,,,,,,,,,,,,,,
,,,,,,,,,,,,l,Correct!,0,104,104,50,1,t5.png,t1.png,4,9.55E-11,19,female,2020-09-16_13h34.07.703,torte-2b,2020.1.3,MacIntel,60,13230,1.08029,,,,,,,,,,,,,,,,,,,,,,,,,,,,,,,,,,,,,,,,,,,,,,,,,,,,,,,,,,,,,,,,,
,,,,,,,,,,,,a,Correct!,0,105,105,8,1,t3.png,t2.png,1,0.90855,19,female,2020-09-16_13h34.07.703,torte-2b,2020.1.3,MacIntel,60,13230,1.631015,,,,,,,,,,,,,,,,,,,,,,,,,,,,,,,,,,,,,,,,,,,,,,,,,,,,,,,,,,,,,,,,,
,,,,,,,,,,,,a,Correct!,0,106,106,84,1,t1.png,t1.png,0,0.97829,19,female,2020-09-16_13h34.07.703,torte-2b,2020.1.3,MacIntel,60,13230,0.821715,,,,,,,,,,,,,,,,,,,,,,,,,,,,,,,,,,,,,,,,,,,,,,,,,,,,,,,,,,,,,,,,,
,,,,,,,,,,,,a,Correct!,0,107,107,39,1,t3.png,t2.png,1,0.90855,19,female,2020-09-16_13h34.07.703,torte-2b,2020.1.3,MacIntel,60,13230,1.046595,,,,,,,,,,,,,,,,,,,,,,,,,,,,,,,,,,,,,,,,,,,,,,,,,,,,,,,,,,,,,,,,,
,,,,,,,,,,,,a,Correct!,0,108,108,92,1,t2.png,t3.png,1,0.909,19,female,2020-09-16_13h34.07.703,torte-2b,2020.1.3,MacIntel,60,13230,0.892765,,,,,,,,,,,,,,,,,,,,,,,,,,,,,,,,,,,,,,,,,,,,,,,,,,,,,,,,,,,,,,,,,
,,,,,,,,,,,,a,Correct!,0,109,109,81,1,t1.png,t1.png,0,0.97829,19,female,2020-09-16_13h34.07.703,torte-2b,2020.1.3,MacIntel,60,13230,0.712905,,,,,,,,,,,,,,,,,,,,,,,,,,,,,,,,,,,,,,,,,,,,,,,,,,,,,,,,,,,,,,,,,
,,,,,,,,,,,,l,Correct!,0,110,110,67,1,t1.png,t5.png,4,9.55E-11,19,female,2020-09-16_13h34.07.703,torte-2b,2020.1.3,MacIntel,60,13230,0.85374,,,,,,,,,,,,,,,,,,,,,,,,,,,,,,,,,,,,,,,,,,,,,,,,,,,,,,,,,,,,,,,,,
,,,,,,,,,,,,l,Correct!,0,111,111,94,1,t5.png,t1.png,4,9.55E-11,19,female,2020-09-16_13h34.07.703,torte-2b,2020.1.3,MacIntel,60,13230,1.595575,,,,,,,,,,,,,,,,,,,,,,,,,,,,,,,,,,,,,,,,,,,,,,,,,,,,,,,,,,,,,,,,,
,,,,,,,,,,,,a,Correct!,0,112,112,15,1,t3.png,t2.png,1,0.90855,19,female,2020-09-16_13h34.07.703,torte-2b,2020.1.3,MacIntel,60,13230,0.927085,,,,,,,,,,,,,,,,,,,,,,,,,,,,,,,,,,,,,,,,,,,,,,,,,,,,,,,,,,,,,,,,,
,,,,,,,,,,,,l,Correct!,0,113,113,90,1,t1.png,t5.png,4,9.55E-11,19,female,2020-09-16_13h34.07.703,torte-2b,2020.1.3,MacIntel,60,13230,1.116445,,,,,,,,,,,,,,,,,,,,,,,,,,,,,,,,,,,,,,,,,,,,,,,,,,,,,,,,,,,,,,,,,
,,,,,,,,,,,,a,Correct!,0,114,114,42,1,t5.png,t4.png,1,0.90025,19,female,2020-09-16_13h34.07.703,torte-2b,2020.1.3,MacIntel,60,13230,0.88242,,,,,,,,,,,,,,,,,,,,,,,,,,,,,,,,,,,,,,,,,,,,,,,,,,,,,,,,,,,,,,,,,
,,,,,,,,,,,,a,Incorrect,0,115,115,27,1,t3.png,t1.png,2,0.0565,19,female,2020-09-16_13h34.07.703,torte-2b,2020.1.3,MacIntel,60,13230,0.86518,,,,,,,,,,,,,,,,,,,,,,,,,,,,,,,,,,,,,,,,,,,,,,,,,,,,,,,,,,,,,,,,,
,,,,,,,,,,,,l,Correct!,0,116,116,36,1,t3.png,t1.png,2,0.0565,19,female,2020-09-16_13h34.07.703,torte-2b,2020.1.3,MacIntel,60,13230,1.016275,,,,,,,,,,,,,,,,,,,,,,,,,,,,,,,,,,,,,,,,,,,,,,,,,,,,,,,,,,,,,,,,,
,,,,,,,,,,,,a,Correct!,0,117,117,22,1,t2.png,t3.png,1,0.90855,19,female,2020-09-16_13h34.07.703,torte-2b,2020.1.3,MacIntel,60,13230,1.166135,,,,,,,,,,,,,,,,,,,,,,,,,,,,,,,,,,,,,,,,,,,,,,,,,,,,,,,,,,,,,,,,,
,,,,,,,,,,,,a,Correct!,0,118,118,20,1,t2.png,t3.png,1,0.90855,19,female,2020-09-16_13h34.07.703,torte-2b,2020.1.3,MacIntel,60,13230,0.69792,,,,,,,,,,,,,,,,,,,,,,,,,,,,,,,,,,,,,,,,,,,,,,,,,,,,,,,,,,,,,,,,,
,,,,,,,,,,,,a,Correct!,0,119,119,70,1,t5.png,t5.png,0,0.978,19,female,2020-09-16_13h34.07.703,torte-2b,2020.1.3,MacIntel,60,13230,0.76516,,,,,,,,,,,,,,,,,,,,,,,,,,,,,,,,,,,,,,,,,,,,,,,,,,,,,,,,,,,,,,,,,
,,,,,,,,,,,,a,Correct!,,,,,,t2.png,t3.png,1,0.90855,19,female,2020-09-16_13h34.07.703,torte-2b,2020.1.3,MacIntel,60,13230,1.622815,space,2.158605,space,17.88291,0,0,0,111,1,,,,,,,,,,,,,,,,,,,,,,,,,,,,,,,,,,,,,,,,,,,,,,,,,,,,,,,,
,,,,,,,,,,,,a,Incorrect,,,,,,t5.png,t3.png,2,0.056466,19,female,2020-09-16_13h34.07.703,torte-2b,2020.1.3,MacIntel,60,13230,1.27946,,,,,0,1,1,114,1,,,,,,,,,,,,,,,,,,,,,,,,,,,,,,,,,,,,,,,,,,,,,,,,,,,,,,,,
,,,,,,,,,,,,a,Incorrect,,,,,,t1.png,t4.png,3,0.0000131,19,female,2020-09-16_13h34.07.703,torte-2b,2020.1.3,MacIntel,60,13230,1.284175,,,,,0,2,2,17,1,,,,,,,,,,,,,,,,,,,,,,,,,,,,,,,,,,,,,,,,,,,,,,,,,,,,,,,,
,,,,,,,,,,,,a,Correct!,,,,,,t2.png,t1.png,1,0.90025,19,female,2020-09-16_13h34.07.703,torte-2b,2020.1.3,MacIntel,60,13230,0.822875,,,,,0,3,3,4,1,,,,,,,,,,,,,,,,,,,,,,,,,,,,,,,,,,,,,,,,,,,,,,,,,,,,,,,,
,,,,,,,,,,,,a,Correct!,,,,,,t5.png,t5.png,0,0.97829,19,female,2020-09-16_13h34.07.703,torte-2b,2020.1.3,MacIntel,60,13230,0.84532,,,,,0,4,4,73,1,,,,,,,,,,,,,,,,,,,,,,,,,,,,,,,,,,,,,,,,,,,,,,,,,,,,,,,,
,,,,,,,,,,,,l,Incorrect,,,,,,t1.png,t1.png,0,0.978,19,female,2020-09-16_13h34.07.703,torte-2b,2020.1.3,MacIntel,60,13230,2.45139,,,,,0,5,5,54,1,,,,,,,,,,,,,,,,,,,,,,,,,,,,,,,,,,,,,,,,,,,,,,,,,,,,,,,,
,,,,,,,,,,,,a,Correct!,,,,,,t1.png,t2.png,1,0.90025,19,female,2020-09-16_13h34.07.703,torte-2b,2020.1.3,MacIntel,60,13230,0.91667,,,,,0,6,6,105,1,,,,,,,,,,,,,,,,,,,,,,,,,,,,,,,,,,,,,,,,,,,,,,,,,,,,,,,,
,,,,,,,,,,,,l,Incorrect,,,,,,t2.png,t2.png,0,0.98115,19,female,2020-09-16_13h34.07.703,torte-2b,2020.1.3,MacIntel,60,13230,1.8551,,,,,0,7,7,7,1,,,,,,,,,,,,,,,,,,,,,,,,,,,,,,,,,,,,,,,,,,,,,,,,,,,,,,,,
,,,,,,,,,,,,a,Correct!,,,,,,t4.png,t4.png,0,0.98115,19,female,2020-09-16_13h34.07.703,torte-2b,2020.1.3,MacIntel,60,13230,0.912165,,,,,0,8,8,80,1,,,,,,,,,,,,,,,,,,,,,,,,,,,,,,,,,,,,,,,,,,,,,,,,,,,,,,,,
,,,,,,,,,,,,a,Correct!,,,,,,t5.png,t5.png,0,0.97829,19,female,2020-09-16_13h34.07.703,torte-2b,2020.1.3,MacIntel,60,13230,1.169815,,,,,0,9,9,70,1,,,,,,,,,,,,,,,,,,,,,,,,,,,,,,,,,,,,,,,,,,,,,,,,,,,,,,,,
,,,,,,,,,,,,a,Incorrect,,,,,,t1.png,t3.png,2,0.056466,19,female,2020-09-16_13h34.07.703,torte-2b,2020.1.3,MacIntel,60,13230,2.02193,,,,,0,10,10,60,1,,,,,,,,,,,,,,,,,,,,,,,,,,,,,,,,,,,,,,,,,,,,,,,,,,,,,,,,
,,,,,,,,,,,,a,Incorrect,,,,,,t5.png,t2.png,3,0.0000131,19,female,2020-09-16_13h34.07.703,torte-2b,2020.1.3,MacIntel,60,13230,1.17929,,,,,0,11,11,119,1,,,,,,,,,,,,,,,,,,,,,,,,,,,,,,,,,,,,,,,,,,,,,,,,,,,,,,,,
,,,,,,,,,,,,a,Correct!,,,,,,t3.png,t4.png,1,0.909,19,female,2020-09-16_13h34.07.703,torte-2b,2020.1.3,MacIntel,60,13230,1.53377,,,,,0,12,12,106,1,,,,,,,,,,,,,,,,,,,,,,,,,,,,,,,,,,,,,,,,,,,,,,,,,,,,,,,,
,,,,,,,,,,,,a,Incorrect,,,,,,t4.png,t1.png,3,0.0000131,19,female,2020-09-16_13h34.07.703,torte-2b,2020.1.3,MacIntel,60,13230,0.93754,,,,,0,13,13,48,1,,,,,,,,,,,,,,,,,,,,,,,,,,,,,,,,,,,,,,,,,,,,,,,,,,,,,,,,
,,,,,,,,,,,,l,Correct!,,,,,,t4.png,t2.png,2,0.0591,19,female,2020-09-16_13h34.07.703,torte-2b,2020.1.3,MacIntel,60,13230,0.895335,,,,,0,14,14,36,1,,,,,,,,,,,,,,,,,,,,,,,,,,,,,,,,,,,,,,,,,,,,,,,,,,,,,,,,
,,,,,,,,,,,,a,Incorrect,,,,,,t3.png,t5.png,2,0.056466,19,female,2020-09-16_13h34.07.703,torte-2b,2020.1.3,MacIntel,60,13230,0.91528,,,,,0,15,15,6,1,,,,,,,,,,,,,,,,,,,,,,,,,,,,,,,,,,,,,,,,,,,,,,,,,,,,,,,,
,,,,,,,,,,,,a,Correct!,,,,,,t3.png,t2.png,1,0.909,19,female,2020-09-16_13h34.07.703,torte-2b,2020.1.3,MacIntel,60,13230,1.253115,,,,,0,16,16,3,1,,,,,,,,,,,,,,,,,,,,,,,,,,,,,,,,,,,,,,,,,,,,,,,,,,,,,,,,
,,,,,,,,,,,,a,Correct!,,,,,,t3.png,t2.png,1,0.90855,19,female,2020-09-16_13h34.07.703,torte-2b,2020.1.3,MacIntel,60,13230,0.83257,,,,,0,17,17,53,1,,,,,,,,,,,,,,,,,,,,,,,,,,,,,,,,,,,,,,,,,,,,,,,,,,,,,,,,
,,,,,,,,,,,,a,Correct!,,,,,,t4.png,t4.png,0,0.98115,19,female,2020-09-16_13h34.07.703,torte-2b,2020.1.3,MacIntel,60,13230,0.84668,,,,,0,18,18,21,1,,,,,,,,,,,,,,,,,,,,,,,,,,,,,,,,,,,,,,,,,,,,,,,,,,,,,,,,
,,,,,,,,,,,,l,Correct!,,,,,,t4.png,t2.png,2,0.059078,19,female,2020-09-16_13h34.07.703,torte-2b,2020.1.3,MacIntel,60,13230,1.00082,,,,,0,19,19,109,1,,,,,,,,,,,,,,,,,,,,,,,,,,,,,,,,,,,,,,,,,,,,,,,,,,,,,,,,
,,,,,,,,,,,,l,Correct!,,,,,,t1.png,t5.png,4,9.55E-11,19,female,2020-09-16_13h34.07.703,torte-2b,2020.1.3,MacIntel,60,13230,0.79737,,,,,0,20,20,55,1,,,,,,,,,,,,,,,,,,,,,,,,,,,,,,,,,,,,,,,,,,,,,,,,,,,,,,,,
,,,,,,,,,,,,a,Correct!,,,,,,t4.png,t3.png,1,0.90855,19,female,2020-09-16_13h34.07.703,torte-2b,2020.1.3,MacIntel,60,13230,1.215365,,,,,0,21,21,75,1,,,,,,,,,,,,,,,,,,,,,,,,,,,,,,,,,,,,,,,,,,,,,,,,,,,,,,,,
,,,,,,,,,,,,l,Correct!,,,,,,t5.png,t1.png,4,9.55E-11,19,female,2020-09-16_13h34.07.703,torte-2b,2020.1.3,MacIntel,60,13230,0.77193,,,,,0,22,22,43,1,,,,,,,,,,,,,,,,,,,,,,,,,,,,,,,,,,,,,,,,,,,,,,,,,,,,,,,,
,,,,,,,,,,,,a,Correct!,,,,,,t4.png,t3.png,1,0.909,19,female,2020-09-16_13h34.07.703,torte-2b,2020.1.3,MacIntel,60,13230,0.96655,,,,,0,23,23,46,1,,,,,,,,,,,,,,,,,,,,,,,,,,,,,,,,,,,,,,,,,,,,,,,,,,,,,,,,
,,,,,,,,,,,,a,Incorrect,,,,,,t1.png,t4.png,3,0.0000131,19,female,2020-09-16_13h34.07.703,torte-2b,2020.1.3,MacIntel,60,13230,1.015995,,,,,0,24,24,92,1,,,,,,,,,,,,,,,,,,,,,,,,,,,,,,,,,,,,,,,,,,,,,,,,,,,,,,,,
,,,,,,,,,,,,a,Correct!,,,,,,t4.png,t5.png,1,0.90025,19,female,2020-09-16_13h34.07.703,torte-2b,2020.1.3,MacIntel,60,13230,1.703375,,,,,0,25,25,103,1,,,,,,,,,,,,,,,,,,,,,,,,,,,,,,,,,,,,,,,,,,,,,,,,,,,,,,,,
,,,,,,,,,,,,a,Correct!,,,,,,t4.png,t3.png,1,0.90855,19,female,2020-09-16_13h34.07.703,torte-2b,2020.1.3,MacIntel,60,13230,0.89823,,,,,0,26,26,45,1,,,,,,,,,,,,,,,,,,,,,,,,,,,,,,,,,,,,,,,,,,,,,,,,,,,,,,,,
,,,,,,,,,,,,a,Incorrect,,,,,,t5.png,t2.png,3,0.0000131,19,female,2020-09-16_13h34.07.703,torte-2b,2020.1.3,MacIntel,60,13230,0.795685,,,,,0,27,27,98,1,,,,,,,,,,,,,,,,,,,,,,,,,,,,,,,,,,,,,,,,,,,,,,,,,,,,,,,,
,,,,,,,,,,,,l,Correct!,,,,,,t4.png,t2.png,2,0.059078,19,female,2020-09-16_13h34.07.703,torte-2b,2020.1.3,MacIntel,60,13230,0.99915,,,,,0,28,28,110,1,,,,,,,,,,,,,,,,,,,,,,,,,,,,,,,,,,,,,,,,,,,,,,,,,,,,,,,,
,,,,,,,,,,,,a,Correct!,,,,,,t4.png,t4.png,0,0.98115,19,female,2020-09-16_13h34.07.703,torte-2b,2020.1.3,MacIntel,60,13230,0.673455,,,,,0,29,29,52,1,,,,,,,,,,,,,,,,,,,,,,,,,,,,,,,,,,,,,,,,,,,,,,,,,,,,,,,,
,,,,,,,,,,,,a,Incorrect,,,,,,t1.png,t2.png,1,0.90025,19,female,2020-09-16_13h34.07.703,torte-2b,2020.1.3,MacIntel,60,13230,0.81227,,,,,0,30,30,72,1,,,,,,,,,,,,,,,,,,,,,,,,,,,,,,,,,,,,,,,,,,,,,,,,,,,,,,,,
,,,,,,,,,,,,a,Correct!,,,,,,t2.png,t2.png,0,0.98115,19,female,2020-09-16_13h34.07.703,torte-2b,2020.1.3,MacIntel,60,13230,0.685935,,,,,0,31,31,57,1,,,,,,,,,,,,,,,,,,,,,,,,,,,,,,,,,,,,,,,,,,,,,,,,,,,,,,,,
,,,,,,,,,,,,l,Correct!,,,,,,t5.png,t1.png,4,9.55E-11,19,female,2020-09-16_13h34.07.703,torte-2b,2020.1.3,MacIntel,60,13230,0.63166,,,,,0,32,32,22,1,,,,,,,,,,,,,,,,,,,,,,,,,,,,,,,,,,,,,,,,,,,,,,,,,,,,,,,,
,,,,,,,,,,,,a,Correct!,,,,,,t5.png,t5.png,0,0.978,19,female,2020-09-16_13h34.07.703,torte-2b,2020.1.3,MacIntel,60,13230,0.75243,,,,,0,33,33,117,1,,,,,,,,,,,,,,,,,,,,,,,,,,,,,,,,,,,,,,,,,,,,,,,,,,,,,,,,
,,,,,,,,,,,,a,Incorrect,,,,,,t3.png,t1.png,2,0.0565,19,female,2020-09-16_13h34.07.703,torte-2b,2020.1.3,MacIntel,60,13230,0.704245,,,,,0,34,34,31,1,,,,,,,,,,,,,,,,,,,,,,,,,,,,,,,,,,,,,,,,,,,,,,,,,,,,,,,,
,,,,,,,,,,,,a,Incorrect,,,,,,t4.png,t1.png,3,0.0000131,19,female,2020-09-16_13h34.07.703,torte-2b,2020.1.3,MacIntel,60,13230,0.66573,,,,,0,35,35,42,1,,,,,,,,,,,,,,,,,,,,,,,,,,,,,,,,,,,,,,,,,,,,,,,,,,,,,,,,
,,,,,,,,,,,,l,Correct!,,,,,,t2.png,t4.png,2,0.0591,19,female,2020-09-16_13h34.07.703,torte-2b,2020.1.3,MacIntel,60,13230,0.930855,,,,,0,36,36,15,1,,,,,,,,,,,,,,,,,,,,,,,,,,,,,,,,,,,,,,,,,,,,,,,,,,,,,,,,
,,,,,,,,,,,,a,Correct!,,,,,,t3.png,t4.png,1,0.909,19,female,2020-09-16_13h34.07.703,torte-2b,2020.1.3,MacIntel,60,13230,0.932,,,,,0,37,37,89,1,,,,,,,,,,,,,,,,,,,,,,,,,,,,,,,,,,,,,,,,,,,,,,,,,,,,,,,,
,,,,,,,,,,,,a,Incorrect,,,,,,t2.png,t5.png,3,0.0000131,19,female,2020-09-16_13h34.07.703,torte-2b,2020.1.3,MacIntel,60,13230,1.073065,,,,,0,38,38,95,1,,,,,,,,,,,,,,,,,,,,,,,,,,,,,,,,,,,,,,,,,,,,,,,,,,,,,,,,
,,,,,,,,,,,,a,Incorrect,,,,,,t3.png,t1.png,2,0.056466,19,female,2020-09-16_13h34.07.703,torte-2b,2020.1.3,MacIntel,60,13230,0.68004,,,,,0,39,39,29,1,,,,,,,,,,,,,,,,,,,,,,,,,,,,,,,,,,,,,,,,,,,,,,,,,,,,,,,,
,,,,,,,,,,,,a,Correct!,,,,,,t2.png,t3.png,1,0.90855,19,female,2020-09-16_13h34.07.703,torte-2b,2020.1.3,MacIntel,60,13230,0.934235,,,,,0,40,40,68,1,,,,,,,,,,,,,,,,,,,,,,,,,,,,,,,,,,,,,,,,,,,,,,,,,,,,,,,,
,,,,,,,,,,,,a,Correct!,,,,,,t4.png,t3.png,1,0.90855,19,female,2020-09-16_13h34.07.703,torte-2b,2020.1.3,MacIntel,60,13230,1.148675,,,,,0,41,41,35,1,,,,,,,,,,,,,,,,,,,,,,,,,,,,,,,,,,,,,,,,,,,,,,,,,,,,,,,,
,,,,,,,,,,,,a,Incorrect,,,,,,t2.png,t5.png,3,0.0000131,19,female,2020-09-16_13h34.07.703,torte-2b,2020.1.3,MacIntel,60,13230,1.014135,,,,,0,42,42,66,1,,,,,,,,,,,,,,,,,,,,,,,,,,,,,,,,,,,,,,,,,,,,,,,,,,,,,,,,
,,,,,,,,,,,,l,Correct!,,,,,,t2.png,t4.png,2,0.059078,19,female,2020-09-16_13h34.07.703,torte-2b,2020.1.3,MacIntel,60,13230,0.879395,,,,,0,43,43,77,1,,,,,,,,,,,,,,,,,,,,,,,,,,,,,,,,,,,,,,,,,,,,,,,,,,,,,,,,
,,,,,,,,,,,,l,Correct!,,,,,,t5.png,t1.png,4,9.55E-11,19,female,2020-09-16_13h34.07.703,torte-2b,2020.1.3,MacIntel,60,13230,0.78017,,,,,0,44,44,102,1,,,,,,,,,,,,,,,,,,,,,,,,,,,,,,,,,,,,,,,,,,,,,,,,,,,,,,,,
,,,,,,,,,,,,a,Correct!,,,,,,t1.png,t2.png,1,0.90025,19,female,2020-09-16_13h34.07.703,torte-2b,2020.1.3,MacIntel,60,13230,0.674815,,,,,0,45,45,33,1,,,,,,,,,,,,,,,,,,,,,,,,,,,,,,,,,,,,,,,,,,,,,,,,,,,,,,,,
,,,,,,,,,,,,a,Correct!,,,,,,t3.png,t5.png,2,0.056466,19,female,2020-09-16_13h34.07.703,torte-2b,2020.1.3,MacIntel,60,13230,1.30431,,,,,0,46,46,44,1,,,,,,,,,,,,,,,,,,,,,,,,,,,,,,,,,,,,,,,,,,,,,,,,,,,,,,,,
,,,,,,,,,,,,a,Correct!,,,,,,t2.png,t1.png,1,0.90025,19,female,2020-09-16_13h34.07.703,torte-2b,2020.1.3,MacIntel,60,13230,0.65035,,,,,0,47,47,5,1,,,,,,,,,,,,,,,,,,,,,,,,,,,,,,,,,,,,,,,,,,,,,,,,,,,,,,,,
,,,,,,,,,,,,l,Incorrect,,,,,,t4.png,t2.png,2,0.059078,19,female,2020-09-16_13h34.07.703,torte-2b,2020.1.3,MacIntel,60,13230,0.851855,,,,,0,48,48,88,1,,,,,,,,,,,,,,,,,,,,,,,,,,,,,,,,,,,,,,,,,,,,,,,,,,,,,,,,
,,,,,,,,,,,,a,Correct!,,,,,,t2.png,t3.png,1,0.90855,19,female,2020-09-16_13h34.07.703,torte-2b,2020.1.3,MacIntel,60,13230,0.7495,,,,,0,49,49,10,1,,,,,,,,,,,,,,,,,,,,,,,,,,,,,,,,,,,,,,,,,,,,,,,,,,,,,,,,
,,,,,,,,,,,,a,Correct!,,,,,,t5.png,t4.png,1,0.90025,19,female,2020-09-16_13h34.07.703,torte-2b,2020.1.3,MacIntel,60,13230,0.831885,,,,,0,50,50,27,1,,,,,,,,,,,,,,,,,,,,,,,,,,,,,,,,,,,,,,,,,,,,,,,,,,,,,,,,
,,,,,,,,,,,,a,Correct!,,,,,,t2.png,t3.png,1,0.90855,19,female,2020-09-16_13h34.07.703,torte-2b,2020.1.3,MacIntel,60,13230,1.34935,,,,,0,51,51,65,1,,,,,,,,,,,,,,,,,,,,,,,,,,,,,,,,,,,,,,,,,,,,,,,,,,,,,,,,
,,,,,,,,,,,,a,Correct!,,,,,,t2.png,t2.png,0,0.981,19,female,2020-09-16_13h34.07.703,torte-2b,2020.1.3,MacIntel,60,13230,0.66325,,,,,0,52,52,101,1,,,,,,,,,,,,,,,,,,,,,,,,,,,,,,,,,,,,,,,,,,,,,,,,,,,,,,,,
,,,,,,,,,,,,a,Correct!,,,,,,t1.png,t1.png,0,0.97829,19,female,2020-09-16_13h34.07.703,torte-2b,2020.1.3,MacIntel,60,13230,0.455325,,,,,0,53,53,67,1,,,,,,,,,,,,,,,,,,,,,,,,,,,,,,,,,,,,,,,,,,,,,,,,,,,,,,,,
,,,,,,,,,,,,l,Correct!,,,,,,t1.png,t5.png,4,9.55E-11,19,female,2020-09-16_13h34.07.703,torte-2b,2020.1.3,MacIntel,60,13230,0.883765,,,,,0,54,54,16,1,,,,,,,,,,,,,,,,,,,,,,,,,,,,,,,,,,,,,,,,,,,,,,,,,,,,,,,,
,,,,,,,,,,,,a,Incorrect,,,,,,t5.png,t3.png,2,0.056466,19,female,2020-09-16_13h34.07.703,torte-2b,2020.1.3,MacIntel,60,13230,1.15352,,,,,0,55,55,56,1,,,,,,,,,,,,,,,,,,,,,,,,,,,,,,,,,,,,,,,,,,,,,,,,,,,,,,,,
,,,,,,,,,,,,a,Correct!,,,,,,t3.png,t2.png,1,0.90855,19,female,2020-09-16_13h34.07.703,torte-2b,2020.1.3,MacIntel,60,13230,0.884715,,,,,0,56,56,18,1,,,,,,,,,,,,,,,,,,,,,,,,,,,,,,,,,,,,,,,,,,,,,,,,,,,,,,,,
,,,,,,,,,,,,a,Correct!,,,,,,t3.png,t5.png,2,0.056466,19,female,2020-09-16_13h34.07.703,torte-2b,2020.1.3,MacIntel,60,13230,1.29012,,,,,0,57,57,14,1,,,,,,,,,,,,,,,,,,,,,,,,,,,,,,,,,,,,,,,,,,,,,,,,,,,,,,,,
,,,,,,,,,,,,a,Correct!,,,,,,t5.png,t5.png,0,0.97829,19,female,2020-09-16_13h34.07.703,torte-2b,2020.1.3,MacIntel,60,13230,0.67157,,,,,0,58,58,25,1,,,,,,,,,,,,,,,,,,,,,,,,,,,,,,,,,,,,,,,,,,,,,,,,,,,,,,,,
,,,,,,,,,,,,a,Incorrect,,,,,,t3.png,t5.png,2,0.0565,19,female,2020-09-16_13h34.07.703,torte-2b,2020.1.3,MacIntel,60,13230,0.83988,,,,,0,59,59,83,1,,,,,,,,,,,,,,,,,,,,,,,,,,,,,,,,,,,,,,,,,,,,,,,,,,,,,,,,
,,,,,,,,,,,,a,Correct!,,,,,,t1.png,t1.png,0,0.97829,19,female,2020-09-16_13h34.07.703,torte-2b,2020.1.3,MacIntel,60,13230,0.70018,,,,,0,60,60,78,1,,,,,,,,,,,,,,,,,,,,,,,,,,,,,,,,,,,,,,,,,,,,,,,,,,,,,,,,
,,,,,,,,,,,,a,Incorrect,,,,,,t3.png,t5.png,2,0.0565,19,female,2020-09-16_13h34.07.703,torte-2b,2020.1.3,MacIntel,60,13230,0.6504,,,,,0,61,61,30,1,,,,,,,,,,,,,,,,,,,,,,,,,,,,,,,,,,,,,,,,,,,,,,,,,,,,,,,,
,,,,,,,,,,,,a,Incorrect,,,,,,t3.png,t1.png,2,0.056466,19,female,2020-09-16_13h34.07.703,torte-2b,2020.1.3,MacIntel,60,13230,0.614955,,,,,0,62,62,32,1,,,,,,,,,,,,,,,,,,,,,,,,,,,,,,,,,,,,,,,,,,,,,,,,,,,,,,,,
,,,,,,,,,,,,a,Correct!,,,,,,t5.png,t4.png,1,0.90025,19,female,2020-09-16_13h34.07.703,torte-2b,2020.1.3,MacIntel,60,13230,0.558675,,,,,0,63,63,34,1,,,,,,,,,,,,,,,,,,,,,,,,,,,,,,,,,,,,,,,,,,,,,,,,,,,,,,,,
,,,,,,,,,,,,a,Correct!,,,,,,t4.png,t5.png,1,0.9,19,female,2020-09-16_13h34.07.703,torte-2b,2020.1.3,MacIntel,60,13230,0.367545,,,,,0,64,64,115,1,,,,,,,,,,,,,,,,,,,,,,,,,,,,,,,,,,,,,,,,,,,,,,,,,,,,,,,,
,,,,,,,,,,,,a,Correct!,,,,,,t4.png,t5.png,1,0.90025,19,female,2020-09-16_13h34.07.703,torte-2b,2020.1.3,MacIntel,60,13230,0.47073,,,,,0,65,65,47,1,,,,,,,,,,,,,,,,,,,,,,,,,,,,,,,,,,,,,,,,,,,,,,,,,,,,,,,,
,,,,,,,,,,,,a,Correct!,,,,,,t2.png,t3.png,1,0.909,19,female,2020-09-16_13h34.07.703,torte-2b,2020.1.3,MacIntel,60,13230,0.631755,,,,,0,66,66,74,1,,,,,,,,,,,,,,,,,,,,,,,,,,,,,,,,,,,,,,,,,,,,,,,,,,,,,,,,
,,,,,,,,,,,,a,Correct!,,,,,,t3.png,t2.png,1,0.90855,19,female,2020-09-16_13h34.07.703,torte-2b,2020.1.3,MacIntel,60,13230,0.517875,,,,,0,67,67,97,1,,,,,,,,,,,,,,,,,,,,,,,,,,,,,,,,,,,,,,,,,,,,,,,,,,,,,,,,
,,,,,,,,,,,,a,Incorrect,,,,,,t1.png,t4.png,3,0.0000131,19,female,2020-09-16_13h34.07.703,torte-2b,2020.1.3,MacIntel,60,13230,0.92212,,,,,0,68,68,81,1,,,,,,,,,,,,,,,,,,,,,,,,,,,,,,,,,,,,,,,,,,,,,,,,,,,,,,,,
,,,,,,,,,,,,a,Incorrect,,,,,,t2.png,t5.png,3,0.0000131,19,female,2020-09-16_13h34.07.703,torte-2b,2020.1.3,MacIntel,60,13230,0.664755,,,,,0,69,69,104,1,,,,,,,,,,,,,,,,,,,,,,,,,,,,,,,,,,,,,,,,,,,,,,,,,,,,,,,,
,,,,,,,,,,,,a,Correct!,,,,,,t1.png,t2.png,1,0.9,19,female,2020-09-16_13h34.07.703,torte-2b,2020.1.3,MacIntel,60,13230,0.64842,,,,,0,70,70,1,1,,,,,,,,,,,,,,,,,,,,,,,,,,,,,,,,,,,,,,,,,,,,,,,,,,,,,,,,
,,,,,,,,,,,,a,Incorrect,,,,,,t1.png,t4.png,3,0.0000131,19,female,2020-09-16_13h34.07.703,torte-2b,2020.1.3,MacIntel,60,13230,0.514975,,,,,0,71,71,50,1,,,,,,,,,,,,,,,,,,,,,,,,,,,,,,,,,,,,,,,,,,,,,,,,,,,,,,,,
,,,,,,,,,,,,a,Incorrect,,,,,,t3.png,t1.png,2,0.056466,19,female,2020-09-16_13h34.07.703,torte-2b,2020.1.3,MacIntel,60,13230,0.657485,,,,,0,72,72,64,1,,,,,,,,,,,,,,,,,,,,,,,,,,,,,,,,,,,,,,,,,,,,,,,,,,,,,,,,
,,,,,,,,,,,,l,Correct!,,,,,,t2.png,t4.png,2,0.059078,19,female,2020-09-16_13h34.07.703,torte-2b,2020.1.3,MacIntel,60,13230,0.93756,,,,,0,73,73,24,1,,,,,,,,,,,,,,,,,,,,,,,,,,,,,,,,,,,,,,,,,,,,,,,,,,,,,,,,
,,,,,,,,,,,,a,Incorrect,,,,,,t5.png,t3.png,2,0.0565,19,female,2020-09-16_13h34.07.703,torte-2b,2020.1.3,MacIntel,60,13230,0.80332,,,,,0,74,74,39,1,,,,,,,,,,,,,,,,,,,,,,,,,,,,,,,,,,,,,,,,,,,,,,,,,,,,,,,,
,,,,,,,,,,,,a,Correct!,,,,,,t1.png,t2.png,1,0.90025,19,female,2020-09-16_13h34.07.703,torte-2b,2020.1.3,MacIntel,60,13230,0.808295,,,,,0,75,75,112,1,,,,,,,,,,,,,,,,,,,,,,,,,,,,,,,,,,,,,,,,,,,,,,,,,,,,,,,,
,,,,,,,,,,,,a,Incorrect,,,,,,t5.png,t5.png,0,0.97829,19,female,2020-09-16_13h34.07.703,torte-2b,2020.1.3,MacIntel,60,13230,0.652045,,,,,0,76,76,94,1,,,,,,,,,,,,,,,,,,,,,,,,,,,,,,,,,,,,,,,,,,,,,,,,,,,,,,,,
,,,,,,,,,,,,a,Incorrect,,,,,,t2.png,t5.png,3,0.0000131,19,female,2020-09-16_13h34.07.703,torte-2b,2020.1.3,MacIntel,60,13230,0.58409,,,,,0,77,77,40,1,,,,,,,,,,,,,,,,,,,,,,,,,,,,,,,,,,,,,,,,,,,,,,,,,,,,,,,,
,,,,,,,,,,,,a,Correct!,,,,,,t2.png,t2.png,0,0.98115,19,female,2020-09-16_13h34.07.703,torte-2b,2020.1.3,MacIntel,60,13230,0.583395,,,,,0,78,78,2,1,,,,,,,,,,,,,,,,,,,,,,,,,,,,,,,,,,,,,,,,,,,,,,,,,,,,,,,,
,,,,,,,,,,,,l,Correct!,,,,,,t5.png,t1.png,4,9.55E-11,19,female,2020-09-16_13h34.07.703,torte-2b,2020.1.3,MacIntel,60,13230,0.679345,,,,,0,79,79,71,1,,,,,,,,,,,,,,,,,,,,,,,,,,,,,,,,,,,,,,,,,,,,,,,,,,,,,,,,
,,,,,,,,,,,,a,Correct!,,,,,,t1.png,t1.png,0,0.97829,19,female,2020-09-16_13h34.07.703,torte-2b,2020.1.3,MacIntel,60,13230,0.78212,,,,,0,80,80,9,1,,,,,,,,,,,,,,,,,,,,,,,,,,,,,,,,,,,,,,,,,,,,,,,,,,,,,,,,
,,,,,,,,,,,,l,Correct!,,,,,,t1.png,t5.png,4,9.55E-11,19,female,2020-09-16_13h34.07.703,torte-2b,2020.1.3,MacIntel,60,13230,0.718205,,,,,0,81,81,85,1,,,,,,,,,,,,,,,,,,,,,,,,,,,,,,,,,,,,,,,,,,,,,,,,,,,,,,,,
,,,,,,,,,,,,a,Incorrect,,,,,,t1.png,t3.png,2,0.056466,19,female,2020-09-16_13h34.07.703,torte-2b,2020.1.3,MacIntel,60,13230,0.543175,,,,,0,82,82,87,1,,,,,,,,,,,,,,,,,,,,,,,,,,,,,,,,,,,,,,,,,,,,,,,,,,,,,,,,
,,,,,,,,,,,,l,Correct!,,,,,,t2.png,t4.png,2,0.059078,19,female,2020-09-16_13h34.07.703,torte-2b,2020.1.3,MacIntel,60,13230,0.83036,,,,,0,83,83,11,1,,,,,,,,,,,,,,,,,,,,,,,,,,,,,,,,,,,,,,,,,,,,,,,,,,,,,,,,
,,,,,,,,,,,,l,Correct!,,,,,,t4.png,t2.png,2,0.059078,19,female,2020-09-16_13h34.07.703,torte-2b,2020.1.3,MacIntel,60,13230,0.98223,,,,,0,84,84,86,1,,,,,,,,,,,,,,,,,,,,,,,,,,,,,,,,,,,,,,,,,,,,,,,,,,,,,,,,
,,,,,,,,,,,,a,Correct!,,,,,,t2.png,t1.png,1,0.90025,19,female,2020-09-16_13h34.07.703,torte-2b,2020.1.3,MacIntel,60,13230,0.6521,,,,,0,85,85,19,1,,,,,,,,,,,,,,,,,,,,,,,,,,,,,,,,,,,,,,,,,,,,,,,,,,,,,,,,
,,,,,,,,,,,,a,Incorrect,,,,,,t5.png,t2.png,3,0.0000131,19,female,2020-09-16_13h34.07.703,torte-2b,2020.1.3,MacIntel,60,13230,0.780465,,,,,0,86,86,51,1,,,,,,,,,,,,,,,,,,,,,,,,,,,,,,,,,,,,,,,,,,,,,,,,,,,,,,,,
,,,,,,,,,,,,a,Correct!,,,,,,t4.png,t3.png,1,0.909,19,female,2020-09-16_13h34.07.703,torte-2b,2020.1.3,MacIntel,60,13230,0.79881,,,,,0,87,87,20,1,,,,,,,,,,,,,,,,,,,,,,,,,,,,,,,,,,,,,,,,,,,,,,,,,,,,,,,,
,,,,,,,,,,,,a,Incorrect,,,,,,t5.png,t3.png,2,0.056466,19,female,2020-09-16_13h34.07.703,torte-2b,2020.1.3,MacIntel,60,13230,0.63226,,,,,0,88,88,38,1,,,,,,,,,,,,,,,,,,,,,,,,,,,,,,,,,,,,,,,,,,,,,,,,,,,,,,,,
,,,,,,,,,,,,a,Incorrect,,,,,,t5.png,t2.png,3,0.0000131,19,female,2020-09-16_13h34.07.703,torte-2b,2020.1.3,MacIntel,60,13230,0.535015,,,,,0,89,89,91,1,,,,,,,,,,,,,,,,,,,,,,,,,,,,,,,,,,,,,,,,,,,,,,,,,,,,,,,,
,,,,,,,,,,,,a,Incorrect,,,,,,t3.png,t1.png,2,0.056466,19,female,2020-09-16_13h34.07.703,torte-2b,2020.1.3,MacIntel,60,13230,0.635855,,,,,0,90,90,0,1,,,,,,,,,,,,,,,,,,,,,,,,,,,,,,,,,,,,,,,,,,,,,,,,,,,,,,,,
,,,,,,,,,,,,a,Incorrect,,,,,,t2.png,t5.png,3,0.0000131,19,female,2020-09-16_13h34.07.703,torte-2b,2020.1.3,MacIntel,60,13230,0.985135,,,,,0,91,91,8,1,,,,,,,,,,,,,,,,,,,,,,,,,,,,,,,,,,,,,,,,,,,,,,,,,,,,,,,,
,,,,,,,,,,,,a,Incorrect,,,,,,t1.png,t4.png,3,0.0000131,19,female,2020-09-16_13h34.07.703,torte-2b,2020.1.3,MacIntel,60,13230,0.91731,,,,,0,92,92,107,1,,,,,,,,,,,,,,,,,,,,,,,,,,,,,,,,,,,,,,,,,,,,,,,,,,,,,,,,
,,,,,,,,,,,,a,Correct!,,,,,,t5.png,t4.png,1,0.9,19,female,2020-09-16_13h34.07.703,torte-2b,2020.1.3,MacIntel,60,13230,0.63211,,,,,0,93,93,49,1,,,,,,,,,,,,,,,,,,,,,,,,,,,,,,,,,,,,,,,,,,,,,,,,,,,,,,,,
,,,,,,,,,,,,l,Correct!,,,,,,t5.png,t1.png,4,9.55E-11,19,female,2020-09-16_13h34.07.703,torte-2b,2020.1.3,MacIntel,60,13230,0.74963,,,,,0,94,94,100,1,,,,,,,,,,,,,,,,,,,,,,,,,,,,,,,,,,,,,,,,,,,,,,,,,,,,,,,,
,,,,,,,,,,,,a,Correct!,,,,,,t3.png,t2.png,1,0.909,19,female,2020-09-16_13h34.07.703,torte-2b,2020.1.3,MacIntel,60,13230,0.885645,,,,,0,95,95,23,1,,,,,,,,,,,,,,,,,,,,,,,,,,,,,,,,,,,,,,,,,,,,,,,,,,,,,,,,
,,,,,,,,,,,,a,Correct!,,,,,,t4.png,t5.png,1,0.90025,19,female,2020-09-16_13h34.07.703,torte-2b,2020.1.3,MacIntel,60,13230,0.78821,,,,,0,96,96,113,1,,,,,,,,,,,,,,,,,,,,,,,,,,,,,,,,,,,,,,,,,,,,,,,,,,,,,,,,
,,,,,,,,,,,,a,Incorrect,,,,,,t4.png,t1.png,3,0.0000131,19,female,2020-09-16_13h34.07.703,torte-2b,2020.1.3,MacIntel,60,13230,0.48296,,,,,0,97,97,93,1,,,,,,,,,,,,,,,,,,,,,,,,,,,,,,,,,,,,,,,,,,,,,,,,,,,,,,,,
,,,,,,,,,,,,l,Correct!,,,,,,t1.png,t5.png,4,9.55E-11,19,female,2020-09-16_13h34.07.703,torte-2b,2020.1.3,MacIntel,60,13230,0.79901,,,,,0,98,98,12,1,,,,,,,,,,,,,,,,,,,,,,,,,,,,,,,,,,,,,,,,,,,,,,,,,,,,,,,,
,,,,,,,,,,,,l,Correct!,,,,,,t2.png,t4.png,2,0.059078,19,female,2020-09-16_13h34.07.703,torte-2b,2020.1.3,MacIntel,60,13230,0.83652,,,,,0,99,99,37,1,,,,,,,,,,,,,,,,,,,,,,,,,,,,,,,,,,,,,,,,,,,,,,,,,,,,,,,,
,,,,,,,,,,,,a,Correct!,,,,,,t3.png,t4.png,1,0.90855,19,female,2020-09-16_13h34.07.703,torte-2b,2020.1.3,MacIntel,60,13230,0.964435,,,,,0,100,100,96,1,,,,,,,,,,,,,,,,,,,,,,,,,,,,,,,,,,,,,,,,,,,,,,,,,,,,,,,,
,,,,,,,,,,,,l,Correct!,,,,,,t1.png,t5.png,4,9.55E-11,19,female,2020-09-16_13h34.07.703,torte-2b,2020.1.3,MacIntel,60,13230,0.72915,,,,,0,101,101,41,1,,,,,,,,,,,,,,,,,,,,,,,,,,,,,,,,,,,,,,,,,,,,,,,,,,,,,,,,
,,,,,,,,,,,,a,Incorrect,,,,,,t4.png,t1.png,3,0.0000131,19,female,2020-09-16_13h34.07.703,torte-2b,2020.1.3,MacIntel,60,13230,0.81967,,,,,0,102,102,61,1,,,,,,,,,,,,,,,,,,,,,,,,,,,,,,,,,,,,,,,,,,,,,,,,,,,,,,,,
,,,,,,,,,,,,a,Correct!,,,,,,t2.png,t1.png,1,0.90025,19,female,2020-09-16_13h34.07.703,torte-2b,2020.1.3,MacIntel,60,13230,0.732585,,,,,0,103,103,62,1,,,,,,,,,,,,,,,,,,,,,,,,,,,,,,,,,,,,,,,,,,,,,,,,,,,,,,,,
,,,,,,,,,,,,a,Correct!,,,,,,t3.png,t4.png,1,0.909,19,female,2020-09-16_13h34.07.703,torte-2b,2020.1.3,MacIntel,60,13230,0.87254,,,,,0,104,104,82,1,,,,,,,,,,,,,,,,,,,,,,,,,,,,,,,,,,,,,,,,,,,,,,,,,,,,,,,,
,,,,,,,,,,,,a,Correct!,,,,,,t1.png,t3.png,2,0.056466,19,female,2020-09-16_13h34.07.703,torte-2b,2020.1.3,MacIntel,60,13230,0.869675,,,,,0,105,105,63,1,,,,,,,,,,,,,,,,,,,,,,,,,,,,,,,,,,,,,,,,,,,,,,,,,,,,,,,,
,,,,,,,,,,,,a,Incorrect,,,,,,t5.png,t3.png,2,0.056466,19,female,2020-09-16_13h34.07.703,torte-2b,2020.1.3,MacIntel,60,13230,0.64921,,,,,0,106,106,108,1,,,,,,,,,,,,,,,,,,,,,,,,,,,,,,,,,,,,,,,,,,,,,,,,,,,,,,,,
,,,,,,,,,,,,a,Incorrect,,,,,,t1.png,t3.png,2,0.056466,19,female,2020-09-16_13h34.07.703,torte-2b,2020.1.3,MacIntel,60,13230,0.53496,,,,,0,107,107,99,1,,,,,,,,,,,,,,,,,,,,,,,,,,,,,,,,,,,,,,,,,,,,,,,,,,,,,,,,
,,,,,,,,,,,,a,Correct!,,,,,,t4.png,t4.png,0,0.98115,19,female,2020-09-16_13h34.07.703,torte-2b,2020.1.3,MacIntel,60,13230,0.52151,,,,,0,108,108,79,1,,,,,,,,,,,,,,,,,,,,,,,,,,,,,,,,,,,,,,,,,,,,,,,,,,,,,,,,
,,,,,,,,,,,,a,Correct!,,,,,,t2.png,t1.png,1,0.9,19,female,2020-09-16_13h34.07.703,torte-2b,2020.1.3,MacIntel,60,13230,0.701985,,,,,0,109,109,118,1,,,,,,,,,,,,,,,,,,,,,,,,,,,,,,,,,,,,,,,,,,,,,,,,,,,,,,,,
,,,,,,,,,,,,a,Correct!,,,,,,t5.png,t4.png,1,0.9,19,female,2020-09-16_13h34.07.703,torte-2b,2020.1.3,MacIntel,60,13230,0.62741,,,,,0,110,110,76,1,,,,,,,,,,,,,,,,,,,,,,,,,,,,,,,,,,,,,,,,,,,,,,,,,,,,,,,,
,,,,,,,,,,,,a,Correct!,,,,,,t4.png,t5.png,1,0.90025,19,female,2020-09-16_13h34.07.703,torte-2b,2020.1.3,MacIntel,60,13230,0.4663,,,,,0,111,111,58,1,,,,,,,,,,,,,,,,,,,,,,,,,,,,,,,,,,,,,,,,,,,,,,,,,,,,,,,,
,,,,,,,,,,,,a,Correct!,,,,,,t2.png,t2.png,0,0.98115,19,female,2020-09-16_13h34.07.703,torte-2b,2020.1.3,MacIntel,60,13230,0.39948,,,,,0,112,112,59,1,,,,,,,,,,,,,,,,,,,,,,,,,,,,,,,,,,,,,,,,,,,,,,,,,,,,,,,,
,,,,,,,,,,,,a,Incorrect,,,,,,t3.png,t4.png,1,0.90855,19,female,2020-09-16_13h34.07.703,torte-2b,2020.1.3,MacIntel,60,13230,0.454735,,,,,0,113,113,84,1,,,,,,,,,,,,,,,,,,,,,,,,,,,,,,,,,,,,,,,,,,,,,,,,,,,,,,,,
,,,,,,,,,,,,a,Correct!,,,,,,t4.png,t4.png,0,0.98115,19,female,2020-09-16_13h34.07.703,torte-2b,2020.1.3,MacIntel,60,13230,0.516215,,,,,0,114,114,90,1,,,,,,,,,,,,,,,,,,,,,,,,,,,,,,,,,,,,,,,,,,,,,,,,,,,,,,,,
,,,,,,,,,,,,a,Incorrect,,,,,,t4.png,t1.png,3,0.0000131,19,female,2020-09-16_13h34.07.703,torte-2b,2020.1.3,MacIntel,60,13230,0.88125,,,,,0,115,115,13,1,,,,,,,,,,,,,,,,,,,,,,,,,,,,,,,,,,,,,,,,,,,,,,,,,,,,,,,,
,,,,,,,,,,,,a,Incorrect,,,,,,t5.png,t2.png,3,0.0000131,19,female,2020-09-16_13h34.07.703,torte-2b,2020.1.3,MacIntel,60,13230,0.74952,,,,,0,116,116,116,1,,,,,,,,,,,,,,,,,,,,,,,,,,,,,,,,,,,,,,,,,,,,,,,,,,,,,,,,
,,,,,,,,,,,,a,Correct!,,,,,,t1.png,t1.png,0,0.978,19,female,2020-09-16_13h34.07.703,torte-2b,2020.1.3,MacIntel,60,13230,0.557385,,,,,0,117,117,28,1,,,,,,,,,,,,,,,,,,,,,,,,,,,,,,,,,,,,,,,,,,,,,,,,,,,,,,,,
,,,,,,,,,,,,a,Incorrect,,,,,,t1.png,t3.png,2,0.056466,19,female,2020-09-16_13h34.07.703,torte-2b,2020.1.3,MacIntel,60,13230,0.70285,,,,,0,118,118,69,1,,,,,,,,,,,,,,,,,,,,,,,,,,,,,,,,,,,,,,,,,,,,,,,,,,,,,,,,
,,,,,,,,,,,,a,Correct!,,,,,,t5.png,t4.png,1,0.90025,19,female,2020-09-16_13h34.07.703,torte-2b,2020.1.3,MacIntel,60,13230,0.651745,,,,,0,119,119,26,1,,,,,,,,,,,,,,,,,,,,,,,,,,,,,,,,,,,,,,,,,,,,,,,,,,,,,,,,
,,,,,,,,,,,,,,,,,,,,,,,19,female,2020-09-16_13h34.07.703,torte-2b,2020.1.3,MacIntel,60,13230,,space,1.745245,,,,,,,,space,129.06807,,0,0,0,0,1,6,,,,,,,,,,,,,,,,,,,,,,,,,,,,,,,,,,,,,,,,,,,,,,,
,,,,,,,,,,,,,,,,,,,,,,,19,female,2020-09-16_13h34.07.703,torte-2b,2020.1.3,MacIntel,60,13230,,,,,,,,,,,,,,0,1,1,1,1,7,,,,,,,,,,,,,,,,,,,,,,,,,,,,,,,,,,,,,,,,,,,,,,,
,,,,,,,,,,,,,,,,,,,,,,,19,female,2020-09-16_13h34.07.703,torte-2b,2020.1.3,MacIntel,60,13230,,,,,,,,,,,,,space,0,2,2,2,1,6,1.335035,,,,,,,,,,,,,,,,,,,,,,,,,,,,,,,,,,,,,,,,,,,,,,
,,,,,,,,,,,,,,,,,,,,,,,19,female,2020-09-16_13h34.07.703,torte-2b,2020.1.3,MacIntel,60,13230,,,,,,,,,,,,,space,0,3,3,3,1,7,1.030005,,,,,,,,,,,,,,,,,,,,,,,,,,,,,,,,,,,,,,,,,,,,,,
,,,,,,,,,,,,,,,,,,,,,,,19,female,2020-09-16_13h34.07.703,torte-2b,2020.1.3,MacIntel,60,13230,,,,,,,,,,,,,,0,4,4,4,1,5,,,,,,,,,,,,,,,,,,,,,,,,,,,,,,,,,,,,,,,,,,,,,,,
,,,,,,,,,,,,,,,,,,,,,,,19,female,2020-09-16_13h34.07.703,torte-2b,2020.1.3,MacIntel,60,13230,,,,,,,,,,,,,space,0,5,5,5,1,7,0.77106,,,,,,,,,,,,,,,,,,,,,,,,,,,,,,,,,,,,,,,,,,,,,,
,,,,,,,,,,,,,,,,,,,,,,,19,female,2020-09-16_13h34.07.703,torte-2b,2020.1.3,MacIntel,60,13230,,,,,,,,,,,,,,0,6,6,6,1,2,,,,,,,,,,,,,,,,,,,,,,,,,,,,,,,,,,,,,,,,,,,,,,,
,,,,,,,,,,,,,,,,,,,,,,,19,female,2020-09-16_13h34.07.703,torte-2b,2020.1.3,MacIntel,60,13230,,,,,,,,,,,,,,0,7,7,7,1,4,,,,,,,,,,,,,,,,,,,,,,,,,,,,,,,,,,,,,,,,,,,,,,,
,,,,,,,,,,,,,,,,,,,,,,,19,female,2020-09-16_13h34.07.703,torte-2b,2020.1.3,MacIntel,60,13230,,,,,,,,,,,,,,0,8,8,8,1,7,,,,,,,,,,,,,,,,,,,,,,,,,,,,,,,,,,,,,,,,,,,,,,,
,,,,,,,,,,,,,,,,,,,,,,,19,female,2020-09-16_13h34.07.703,torte-2b,2020.1.3,MacIntel,60,13230,,,,,,,,,,,,,space,0,9,9,9,1,4,0.613295,,,,,,,,,,,,,,,,,,,,,,,,,,,,,,,,,,,,,,,,,,,,,,
,,,,,,,,,,,,,,,,,,,,,,,19,female,2020-09-16_13h34.07.703,torte-2b,2020.1.3,MacIntel,60,13230,,,,,,,,,,,,,space,0,10,10,10,1,7,1.350435,,,,,,,,,,,,,,,,,,,,,,,,,,,,,,,,,,,,,,,,,,,,,,
,,,,,,,,,,,,,,,,,,,,,,,19,female,2020-09-16_13h34.07.703,torte-2b,2020.1.3,MacIntel,60,13230,,,,,,,,,,,,,,0,11,11,11,1,7,,,,,,,,,,,,,,,,,,,,,,,,,,,,,,,,,,,,,,,,,,,,,,,
,,,,,,,,,,,,,,,,,,,,,,,19,female,2020-09-16_13h34.07.703,torte-2b,2020.1.3,MacIntel,60,13230,,,,,,,,,,,,,space,0,12,12,12,1,7,0.61879,,,,,,,,,,,,,,,,,,,,,,,,,,,,,,,,,,,,,,,,,,,,,,
,,,,,,,,,,,,,,,,,,,,,,,19,female,2020-09-16_13h34.07.703,torte-2b,2020.1.3,MacIntel,60,13230,,,,,,,,,,,,,,0,13,13,13,1,4,,,,,,,,,,,,,,,,,,,,,,,,,,,,,,,,,,,,,,,,,,,,,,,
,,,,,,,,,,,,,,,,,,,,,,,19,female,2020-09-16_13h34.07.703,torte-2b,2020.1.3,MacIntel,60,13230,,,,,,,,,,,,,,0,14,14,14,1,6,,,,,,,,,,,,,,,,,,,,,,,,,,,,,,,,,,,,,,,,,,,,,,,
,,,,,,,,,,,,,,,,,,,,,,,19,female,2020-09-16_13h34.07.703,torte-2b,2020.1.3,MacIntel,60,13230,,,,,,,,,,,,,space,0,15,15,15,1,4,0.44831,,,,,,,,,,,,,,,,,,,,,,,,,,,,,,,,,,,,,,,,,,,,,,
,,,,,,,,,,,,,,,,,,,,,,,19,female,2020-09-16_13h34.07.703,torte-2b,2020.1.3,MacIntel,60,13230,,,,,,,,,,,,,space,0,16,16,16,1,6,1.59961,,,,,,,,,,,,,,,,,,,,,,,,,,,,,,,,,,,,,,,,,,,,,,
,,,,,,,,,,,,,,,,,,,,,,,19,female,2020-09-16_13h34.07.703,torte-2b,2020.1.3,MacIntel,60,13230,,,,,,,,,,,,,,0,17,17,17,1,7,,,,,,,,,,,,,,,,,,,,,,,,,,,,,,,,,,,,,,,,,,,,,,,
,,,,,,,,,,,,,,,,,,,,,,,19,female,2020-09-16_13h34.07.703,torte-2b,2020.1.3,MacIntel,60,13230,,,,,,,,,,,,,space,0,18,18,18,1,6,1.23236,,,,,,,,,,,,,,,,,,,,,,,,,,,,,,,,,,,,,,,,,,,,,,
,,,,,,,,,,,,,,,,,,,,,,,19,female,2020-09-16_13h34.07.703,torte-2b,2020.1.3,MacIntel,60,13230,,,,,,,,,,,,,space,0,19,19,19,1,7,1.04621,,,,,,,,,,,,,,,,,,,,,,,,,,,,,,,,,,,,,,,,,,,,,,
,,,,,,,,,,,,,,,,,,,,,,,19,female,2020-09-16_13h34.07.703,torte-2b,2020.1.3,MacIntel,60,13230,,,,,,,,,,,,,,0,20,20,20,1,5,,,,,,,,,,,,,,,,,,,,,,,,,,,,,,,,,,,,,,,,,,,,,,,
,,,,,,,,,,,,,,,,,,,,,,,19,female,2020-09-16_13h34.07.703,torte-2b,2020.1.3,MacIntel,60,13230,,,,,,,,,,,,,,0,21,21,21,1,1,,,,,,,,,,,,,,,,,,,,,,,,,,,,,,,,,,,,,,,,,,,,,,,
,,,,,,,,,,,,,,,,,,,,,,,19,female,2020-09-16_13h34.07.703,torte-2b,2020.1.3,MacIntel,60,13230,,,,,,,,,,,,,,0,22,22,22,1,6,,,,,,,,,,,,,,,,,,,,,,,,,,,,,,,,,,,,,,,,,,,,,,,
,,,,,,,,,,,,,,,,,,,,,,,19,female,2020-09-16_13h34.07.703,torte-2b,2020.1.3,MacIntel,60,13230,,,,,,,,,,,,,space,0,23,23,23,1,1,1.06147,,,,,,,,,,,,,,,,,,,,,,,,,,,,,,,,,,,,,,,,,,,,,,
,,,,,,,,,,,,,,,,,,,,,,,19,female,2020-09-16_13h34.07.703,torte-2b,2020.1.3,MacIntel,60,13230,,,,,,,,,,,,,,0,24,24,24,1,5,,,,,,,,,,,,,,,,,,,,,,,,,,,,,,,,,,,,,,,,,,,,,,,
,,,,,,,,,,,,,,,,,,,,,,,19,female,2020-09-16_13h34.07.703,torte-2b,2020.1.3,MacIntel,60,13230,,,,,,,,,,,,,space,0,25,25,25,1,6,0.7926,,,,,,,,,,,,,,,,,,,,,,,,,,,,,,,,,,,,,,,,,,,,,,
,,,,,,,,,,,,,,,,,,,,,,,19,female,2020-09-16_13h34.07.703,torte-2b,2020.1.3,MacIntel,60,13230,,,,,,,,,,,,,,0,26,26,26,1,6,,,,,,,,,,,,,,,,,,,,,,,,,,,,,,,,,,,,,,,,,,,,,,,
,,,,,,,,,,,,,,,,,,,,,,,19,female,2020-09-16_13h34.07.703,torte-2b,2020.1.3,MacIntel,60,13230,,,,,,,,,,,,,space,0,27,27,27,1,6,0.733615,,,,,,,,,,,,,,,,,,,,,,,,,,,,,,,,,,,,,,,,,,,,,,
,,,,,,,,,,,,,,,,,,,,,,,19,female,2020-09-16_13h34.07.703,torte-2b,2020.1.3,MacIntel,60,13230,,,,,,,,,,,,,,0,28,28,28,1,5,,,,,,,,,,,,,,,,,,,,,,,,,,,,,,,,,,,,,,,,,,,,,,,
,,,,,,,,,,,,,,,,,,,,,,,19,female,2020-09-16_13h34.07.703,torte-2b,2020.1.3,MacIntel,60,13230,,,,,,,,,,,,,,0,29,29,29,1,2,,,,,,,,,,,,,,,,,,,,,,,,,,,,,,,,,,,,,,,,,,,,,,,
,,,,,,,,,,,,,,,,,,,,,,,19,female,2020-09-16_13h34.07.703,torte-2b,2020.1.3,MacIntel,60,13230,,,,,,,,,,,,,space,0,30,30,30,1,5,0.698565,,,,,,,,,,,,,,,,,,,,,,,,,,,,,,,,,,,,,,,,,,,,,,
,,,,,,,,,,,,,,,,,,,,,,,19,female,2020-09-16_13h34.07.703,torte-2b,2020.1.3,MacIntel,60,13230,,,,,,,,,,,,,space,0,31,31,31,1,2,0.88443,,,,,,,,,,,,,,,,,,,,,,,,,,,,,,,,,,,,,,,,,,,,,,
,,,,,,,,,,,,,,,,,,,,,,,19,female,2020-09-16_13h34.07.703,torte-2b,2020.1.3,MacIntel,60,13230,,,,,,,,,,,,,space,0,32,32,32,1,5,0.663055,,,,,,,,,,,,,,,,,,,,,,,,,,,,,,,,,,,,,,,,,,,,,,
,,,,,,,,,,,,,,,,,,,,,,,19,female,2020-09-16_13h34.07.703,torte-2b,2020.1.3,MacIntel,60,13230,,,,,,,,,,,,,,0,33,33,33,1,1,,,,,,,,,,,,,,,,,,,,,,,,,,,,,,,,,,,,,,,,,,,,,,,
,,,,,,,,,,,,,,,,,,,,,,,19,female,2020-09-16_13h34.07.703,torte-2b,2020.1.3,MacIntel,60,13230,,,,,,,,,,,,,space,0,34,34,34,1,1,0.44457,,,,,,,,,,,,,,,,,,,,,,,,,,,,,,,,,,,,,,,,,,,,,,
,,,,,,,,,,,,,,,,,,,,,,,19,female,2020-09-16_13h34.07.703,torte-2b,2020.1.3,MacIntel,60,13230,,,,,,,,,,,,,,,,,,,2,,0,0,0,0,1,,,,,,,,,,,,,,,,,,,,,,,,,,,,,,,,,,,,,,,,,
,,,,,,,,,,,,,,,,,,,,,,,19,female,2020-09-16_13h34.07.703,torte-2b,2020.1.3,MacIntel,60,13230,,,,,,,,,,,,,,,,,,,2,,0,1,1,1,1,,,,,,,,,,,,,,,,,,,,,,,,,,,,,,,,,,,,,,,,,
,,,,,,,,,,,,,,,,,,,,,,,19,female,2020-09-16_13h34.07.703,torte-2b,2020.1.3,MacIntel,60,13230,,,,,,,,,,,,,,,,,,,6,,0,2,2,2,1,,,,,,,,,,,,,,,,,,,,,,,,,,,,,,,,,,,,,,,,,
,,,,,,,,,,,,,,,,,,,,,,,19,female,2020-09-16_13h34.07.703,torte-2b,2020.1.3,MacIntel,60,13230,,,,,,,,,,,,,space,,,,,,2,0.38214,0,3,3,3,1,,,,,,,,,,,,,,,,,,,,,,,,,,,,,,,,,,,,,,,,,
,,,,,,,,,,,,,,,,,,,,,,,19,female,2020-09-16_13h34.07.703,torte-2b,2020.1.3,MacIntel,60,13230,,,,,,,,,,,,,space,,,,,,6,0.646925,0,4,4,4,1,,,,,,,,,,,,,,,,,,,,,,,,,,,,,,,,,,,,,,,,,
,,,,,,,,,,,,,,,,,,,,,,,19,female,2020-09-16_13h34.07.703,torte-2b,2020.1.3,MacIntel,60,13230,,,,,,,,,,,,,space,,,,,,2,0.90047,0,5,5,5,1,,,,,,,,,,,,,,,,,,,,,,,,,,,,,,,,,,,,,,,,,
,,,,,,,,,,,,,,,,,,,,,,,19,female,2020-09-16_13h34.07.703,torte-2b,2020.1.3,MacIntel,60,13230,,,,,,,,,,,,,,,,,,,7,,0,6,6,6,1,,,,,,,,,,,,,,,,,,,,,,,,,,,,,,,,,,,,,,,,,
,,,,,,,,,,,,,,,,,,,,,,,19,female,2020-09-16_13h34.07.703,torte-2b,2020.1.3,MacIntel,60,13230,,,,,,,,,,,,,,,,,,,2,,0,7,7,7,1,,,,,,,,,,,,,,,,,,,,,,,,,,,,,,,,,,,,,,,,,
,,,,,,,,,,,,,,,,,,,,,,,19,female,2020-09-16_13h34.07.703,torte-2b,2020.1.3,MacIntel,60,13230,,,,,,,,,,,,,space,,,,,,7,0.62848,0,8,8,8,1,,,,,,,,,,,,,,,,,,,,,,,,,,,,,,,,,,,,,,,,,
,,,,,,,,,,,,,,,,,,,,,,,19,female,2020-09-16_13h34.07.703,torte-2b,2020.1.3,MacIntel,60,13230,,,,,,,,,,,,,space,,,,,,2,0.65189,0,9,9,9,1,,,,,,,,,,,,,,,,,,,,,,,,,,,,,,,,,,,,,,,,,
,,,,,,,,,,,,,,,,,,,,,,,19,female,2020-09-16_13h34.07.703,torte-2b,2020.1.3,MacIntel,60,13230,,,,,,,,,,,,,,,,,,,5,,0,10,10,10,1,,,,,,,,,,,,,,,,,,,,,,,,,,,,,,,,,,,,,,,,,
,,,,,,,,,,,,,,,,,,,,,,,19,female,2020-09-16_13h34.07.703,torte-2b,2020.1.3,MacIntel,60,13230,,,,,,,,,,,,,,,,,,,4,,0,11,11,11,1,,,,,,,,,,,,,,,,,,,,,,,,,,,,,,,,,,,,,,,,,
,,,,,,,,,,,,,,,,,,,,,,,19,female,2020-09-16_13h34.07.703,torte-2b,2020.1.3,MacIntel,60,13230,,,,,,,,,,,,,space,,,,,,5,0.395575,0,12,12,12,1,,,,,,,,,,,,,,,,,,,,,,,,,,,,,,,,,,,,,,,,,
,,,,,,,,,,,,,,,,,,,,,,,19,female,2020-09-16_13h34.07.703,torte-2b,2020.1.3,MacIntel,60,13230,,,,,,,,,,,,,,,,,,,6,,0,13,13,13,1,,,,,,,,,,,,,,,,,,,,,,,,,,,,,,,,,,,,,,,,,
,,,,,,,,,,,,,,,,,,,,,,,19,female,2020-09-16_13h34.07.703,torte-2b,2020.1.3,MacIntel,60,13230,,,,,,,,,,,,,space,,,,,,5,1.48026,0,14,14,14,1,,,,,,,,,,,,,,,,,,,,,,,,,,,,,,,,,,,,,,,,,
,,,,,,,,,,,,,,,,,,,,,,,19,female,2020-09-16_13h34.07.703,torte-2b,2020.1.3,MacIntel,60,13230,,,,,,,,,,,,,,,,,,,4,,0,15,15,15,1,,,,,,,,,,,,,,,,,,,,,,,,,,,,,,,,,,,,,,,,,
,,,,,,,,,,,,,,,,,,,,,,,19,female,2020-09-16_13h34.07.703,torte-2b,2020.1.3,MacIntel,60,13230,,,,,,,,,,,,,,,,,,,5,,0,16,16,16,1,,,,,,,,,,,,,,,,,,,,,,,,,,,,,,,,,,,,,,,,,
,,,,,,,,,,,,,,,,,,,,,,,19,female,2020-09-16_13h34.07.703,torte-2b,2020.1.3,MacIntel,60,13230,,,,,,,,,,,,,,,,,,,3,,0,17,17,17,1,,,,,,,,,,,,,,,,,,,,,,,,,,,,,,,,,,,,,,,,,
,,,,,,,,,,,,,,,,,,,,,,,19,female,2020-09-16_13h34.07.703,torte-2b,2020.1.3,MacIntel,60,13230,,,,,,,,,,,,,,,,,,,6,,0,18,18,18,1,,,,,,,,,,,,,,,,,,,,,,,,,,,,,,,,,,,,,,,,,
,,,,,,,,,,,,,,,,,,,,,,,19,female,2020-09-16_13h34.07.703,torte-2b,2020.1.3,MacIntel,60,13230,,,,,,,,,,,,,,,,,,,6,,0,19,19,19,1,,,,,,,,,,,,,,,,,,,,,,,,,,,,,,,,,,,,,,,,,
,,,,,,,,,,,,,,,,,,,,,,,19,female,2020-09-16_13h34.07.703,torte-2b,2020.1.3,MacIntel,60,13230,,,,,,,,,,,,,space,,,,,,6,0.67971,0,20,20,20,1,,,,,,,,,,,,,,,,,,,,,,,,,,,,,,,,,,,,,,,,,
,,,,,,,,,,,,,,,,,,,,,,,19,female,2020-09-16_13h34.07.703,torte-2b,2020.1.3,MacIntel,60,13230,,,,,,,,,,,,,,,,,,,4,,0,21,21,21,1,,,,,,,,,,,,,,,,,,,,,,,,,,,,,,,,,,,,,,,,,
,,,,,,,,,,,,,,,,,,,,,,,19,female,2020-09-16_13h34.07.703,torte-2b,2020.1.3,MacIntel,60,13230,,,,,,,,,,,,,space,,,,,,6,0.98296,0,22,22,22,1,,,,,,,,,,,,,,,,,,,,,,,,,,,,,,,,,,,,,,,,,
,,,,,,,,,,,,,,,,,,,,,,,19,female,2020-09-16_13h34.07.703,torte-2b,2020.1.3,MacIntel,60,13230,,,,,,,,,,,,,space,,,,,,4,1.426965,0,23,23,23,1,,,,,,,,,,,,,,,,,,,,,,,,,,,,,,,,,,,,,,,,,
,,,,,,,,,,,,,,,,,,,,,,,19,female,2020-09-16_13h34.07.703,torte-2b,2020.1.3,MacIntel,60,13230,,,,,,,,,,,,,,,,,,,6,,0,24,24,24,1,,,,,,,,,,,,,,,,,,,,,,,,,,,,,,,,,,,,,,,,,
,,,,,,,,,,,,,,,,,,,,,,,19,female,2020-09-16_13h34.07.703,torte-2b,2020.1.3,MacIntel,60,13230,,,,,,,,,,,,,,,,,,,6,,0,25,25,25,1,,,,,,,,,,,,,,,,,,,,,,,,,,,,,,,,,,,,,,,,,
,,,,,,,,,,,,,,,,,,,,,,,19,female,2020-09-16_13h34.07.703,torte-2b,2020.1.3,MacIntel,60,13230,,,,,,,,,,,,,,,,,,,7,,0,26,26,26,1,,,,,,,,,,,,,,,,,,,,,,,,,,,,,,,,,,,,,,,,,
,,,,,,,,,,,,,,,,,,,,,,,19,female,2020-09-16_13h34.07.703,torte-2b,2020.1.3,MacIntel,60,13230,,,,,,,,,,,,,,,,,,,1,,0,27,27,27,1,,,,,,,,,,,,,,,,,,,,,,,,,,,,,,,,,,,,,,,,,
,,,,,,,,,,,,,,,,,,,,,,,19,female,2020-09-16_13h34.07.703,torte-2b,2020.1.3,MacIntel,60,13230,,,,,,,,,,,,,space,,,,,,7,0.61329,0,28,28,28,1,,,,,,,,,,,,,,,,,,,,,,,,,,,,,,,,,,,,,,,,,
,,,,,,,,,,,,,,,,,,,,,,,19,female,2020-09-16_13h34.07.703,torte-2b,2020.1.3,MacIntel,60,13230,,,,,,,,,,,,,,,,,,,4,,0,29,29,29,1,,,,,,,,,,,,,,,,,,,,,,,,,,,,,,,,,,,,,,,,,
,,,,,,,,,,,,,,,,,,,,,,,19,female,2020-09-16_13h34.07.703,torte-2b,2020.1.3,MacIntel,60,13230,,,,,,,,,,,,,space,,,,,,7,0.646295,0,30,30,30,1,,,,,,,,,,,,,,,,,,,,,,,,,,,,,,,,,,,,,,,,,
,,,,,,,,,,,,,,,,,,,,,,,19,female,2020-09-16_13h34.07.703,torte-2b,2020.1.3,MacIntel,60,13230,,,,,,,,,,,,,,,,,,,3,,0,31,31,31,1,,,,,,,,,,,,,,,,,,,,,,,,,,,,,,,,,,,,,,,,,
,,,,,,,,,,,,,,,,,,,,,,,19,female,2020-09-16_13h34.07.703,torte-2b,2020.1.3,MacIntel,60,13230,,,,,,,,,,,,,,,,,,,2,,0,32,32,32,1,,,,,,,,,,,,,,,,,,,,,,,,,,,,,,,,,,,,,,,,,
,,,,,,,,,,,,,,,,,,,,,,,19,female,2020-09-16_13h34.07.703,torte-2b,2020.1.3,MacIntel,60,13230,,,,,,,,,,,,,,,,,,,6,,0,33,33,33,1,,,,,,,,,,,,,,,,,,,,,,,,,,,,,,,,,,,,,,,,,
,,,,,,,,,,,,,,,,,,,,,,,19,female,2020-09-16_13h34.07.703,torte-2b,2020.1.3,MacIntel,60,13230,,,,,,,,,,,,,,,,,,,3,,0,34,34,34,1,,,,,,,,,,,,,,,,,,,,,,,,,,,,,,,,,,,,,,,,,
,,,,,,,,,,,,,,,,,,,,,,,19,female,2020-09-16_13h34.07.703,torte-2b,2020.1.3,MacIntel,60,13230,,,,,,,,,,,,,,,,,,,7,,,,,,,0,0,0,0,1,,,,,,,,,,,,,,,,,,,,,,,,,,,,,,,,,,,,
,,,,,,,,,,,,,,,,,,,,,,,19,female,2020-09-16_13h34.07.703,torte-2b,2020.1.3,MacIntel,60,13230,,,,,,,,,,,,,,,,,,,5,,,,,,,0,1,1,1,1,,,,,,,,,,,,,,,,,,,,,,,,,,,,,,,,,,,,
,,,,,,,,,,,,,,,,,,,,,,,19,female,2020-09-16_13h34.07.703,torte-2b,2020.1.3,MacIntel,60,13230,,,,,,,,,,,,,,,,,,,4,,,,,,,0,2,2,2,1,,,,,,,,,,,,,,,,,,,,,,,,,,,,,,,,,,,,
,,,,,,,,,,,,,,,,,,,,,,,19,female,2020-09-16_13h34.07.703,torte-2b,2020.1.3,MacIntel,60,13230,,,,,,,,,,,,,space,,,,,,5,0.500445,,,,,,0,3,3,3,1,,,,,,,,,,,,,,,,,,,,,,,,,,,,,,,,,,,,
,,,,,,,,,,,,,,,,,,,,,,,19,female,2020-09-16_13h34.07.703,torte-2b,2020.1.3,MacIntel,60,13230,,,,,,,,,,,,,,,,,,,6,,,,,,,0,4,4,4,1,,,,,,,,,,,,,,,,,,,,,,,,,,,,,,,,,,,,
,,,,,,,,,,,,,,,,,,,,,,,19,female,2020-09-16_13h34.07.703,torte-2b,2020.1.3,MacIntel,60,13230,,,,,,,,,,,,,space,,,,,,5,0.733615,,,,,,0,5,5,5,1,,,,,,,,,,,,,,,,,,,,,,,,,,,,,,,,,,,,
,,,,,,,,,,,,,,,,,,,,,,,19,female,2020-09-16_13h34.07.703,torte-2b,2020.1.3,MacIntel,60,13230,,,,,,,,,,,,,,,,,,,3,,,,,,,0,6,6,6,1,,,,,,,,,,,,,,,,,,,,,,,,,,,,,,,,,,,,
,,,,,,,,,,,,,,,,,,,,,,,19,female,2020-09-16_13h34.07.703,torte-2b,2020.1.3,MacIntel,60,13230,,,,,,,,,,,,,,,,,,,4,,,,,,,0,7,7,7,1,,,,,,,,,,,,,,,,,,,,,,,,,,,,,,,,,,,,
,,,,,,,,,,,,,,,,,,,,,,,19,female,2020-09-16_13h34.07.703,torte-2b,2020.1.3,MacIntel,60,13230,,,,,,,,,,,,,space,,,,,,3,0.680925,,,,,,0,8,8,8,1,,,,,,,,,,,,,,,,,,,,,,,,,,,,,,,,,,,,
,,,,,,,,,,,,,,,,,,,,,,,19,female,2020-09-16_13h34.07.703,torte-2b,2020.1.3,MacIntel,60,13230,,,,,,,,,,,,,,,,,,,1,,,,,,,0,9,9,9,1,,,,,,,,,,,,,,,,,,,,,,,,,,,,,,,,,,,,
,,,,,,,,,,,,,,,,,,,,,,,19,female,2020-09-16_13h34.07.703,torte-2b,2020.1.3,MacIntel,60,13230,,,,,,,,,,,,,,,,,,,2,,,,,,,0,10,10,10,1,,,,,,,,,,,,,,,,,,,,,,,,,,,,,,,,,,,,
,,,,,,,,,,,,,,,,,,,,,,,19,female,2020-09-16_13h34.07.703,torte-2b,2020.1.3,MacIntel,60,13230,,,,,,,,,,,,,space,,,,,,1,0.44811,,,,,,0,11,11,11,1,,,,,,,,,,,,,,,,,,,,,,,,,,,,,,,,,,,,
,,,,,,,,,,,,,,,,,,,,,,,19,female,2020-09-16_13h34.07.703,torte-2b,2020.1.3,MacIntel,60,13230,,,,,,,,,,,,,space,,,,,,2,0.68163,,,,,,0,12,12,12,1,,,,,,,,,,,,,,,,,,,,,,,,,,,,,,,,,,,,
,,,,,,,,,,,,,,,,,,,,,,,19,female,2020-09-16_13h34.07.703,torte-2b,2020.1.3,MacIntel,60,13230,,,,,,,,,,,,,space,,,,,,1,1.39379,,,,,,0,13,13,13,1,,,,,,,,,,,,,,,,,,,,,,,,,,,,,,,,,,,,
,,,,,,,,,,,,,,,,,,,,,,,19,female,2020-09-16_13h34.07.703,torte-2b,2020.1.3,MacIntel,60,13230,,,,,,,,,,,,,,,,,,,3,,,,,,,0,14,14,14,1,,,,,,,,,,,,,,,,,,,,,,,,,,,,,,,,,,,,
,,,,,,,,,,,,,,,,,,,,,,,19,female,2020-09-16_13h34.07.703,torte-2b,2020.1.3,MacIntel,60,13230,,,,,,,,,,,,,space,,,,,,1,0.88799,,,,,,0,15,15,15,1,,,,,,,,,,,,,,,,,,,,,,,,,,,,,,,,,,,,
,,,,,,,,,,,,,,,,,,,,,,,19,female,2020-09-16_13h34.07.703,torte-2b,2020.1.3,MacIntel,60,13230,,,,,,,,,,,,,,,,,,,7,,,,,,,0,16,16,16,1,,,,,,,,,,,,,,,,,,,,,,,,,,,,,,,,,,,,
,,,,,,,,,,,,,,,,,,,,,,,19,female,2020-09-16_13h34.07.703,torte-2b,2020.1.3,MacIntel,60,13230,,,,,,,,,,,,,,,,,,,7,,,,,,,0,17,17,17,1,,,,,,,,,,,,,,,,,,,,,,,,,,,,,,,,,,,,
,,,,,,,,,,,,,,,,,,,,,,,19,female,2020-09-16_13h34.07.703,torte-2b,2020.1.3,MacIntel,60,13230,,,,,,,,,,,,,,,,,,,4,,,,,,,0,18,18,18,1,,,,,,,,,,,,,,,,,,,,,,,,,,,,,,,,,,,,
,,,,,,,,,,,,,,,,,,,,,,,19,female,2020-09-16_13h34.07.703,torte-2b,2020.1.3,MacIntel,60,13230,,,,,,,,,,,,,space,,,,,,7,0.612955,,,,,,0,19,19,19,1,,,,,,,,,,,,,,,,,,,,,,,,,,,,,,,,,,,,
,,,,,,,,,,,,,,,,,,,,,,,19,female,2020-09-16_13h34.07.703,torte-2b,2020.1.3,MacIntel,60,13230,,,,,,,,,,,,,,,,,,,3,,,,,,,0,20,20,20,1,,,,,,,,,,,,,,,,,,,,,,,,,,,,,,,,,,,,
,,,,,,,,,,,,,,,,,,,,,,,19,female,2020-09-16_13h34.07.703,torte-2b,2020.1.3,MacIntel,60,13230,,,,,,,,,,,,,space,,,,,,7,0.59555,,,,,,0,21,21,21,1,,,,,,,,,,,,,,,,,,,,,,,,,,,,,,,,,,,,
,,,,,,,,,,,,,,,,,,,,,,,19,female,2020-09-16_13h34.07.703,torte-2b,2020.1.3,MacIntel,60,13230,,,,,,,,,,,,,space,,,,,,3,1.01654,,,,,,0,22,22,22,1,,,,,,,,,,,,,,,,,,,,,,,,,,,,,,,,,,,,
,,,,,,,,,,,,,,,,,,,,,,,19,female,2020-09-16_13h34.07.703,torte-2b,2020.1.3,MacIntel,60,13230,,,,,,,,,,,,,,,,,,,1,,,,,,,0,23,23,23,1,,,,,,,,,,,,,,,,,,,,,,,,,,,,,,,,,,,,
,,,,,,,,,,,,,,,,,,,,,,,19,female,2020-09-16_13h34.07.703,torte-2b,2020.1.3,MacIntel,60,13230,,,,,,,,,,,,,,,,,,,6,,,,,,,0,24,24,24,1,,,,,,,,,,,,,,,,,,,,,,,,,,,,,,,,,,,,
,,,,,,,,,,,,,,,,,,,,,,,19,female,2020-09-16_13h34.07.703,torte-2b,2020.1.3,MacIntel,60,13230,,,,,,,,,,,,,space,,,,,,3,0.735995,,,,,,0,25,25,25,1,,,,,,,,,,,,,,,,,,,,,,,,,,,,,,,,,,,,
,,,,,,,,,,,,,,,,,,,,,,,19,female,2020-09-16_13h34.07.703,torte-2b,2020.1.3,MacIntel,60,13230,,,,,,,,,,,,,,,,,,,2,,,,,,,0,26,26,26,1,,,,,,,,,,,,,,,,,,,,,,,,,,,,,,,,,,,,
,,,,,,,,,,,,,,,,,,,,,,,19,female,2020-09-16_13h34.07.703,torte-2b,2020.1.3,MacIntel,60,13230,,,,,,,,,,,,,space,,,,,,3,0.498315,,,,,,0,27,27,27,1,,,,,,,,,,,,,,,,,,,,,,,,,,,,,,,,,,,,
,,,,,,,,,,,,,,,,,,,,,,,19,female,2020-09-16_13h34.07.703,torte-2b,2020.1.3,MacIntel,60,13230,,,,,,,,,,,,,,,,,,,1,,,,,,,0,28,28,28,1,,,,,,,,,,,,,,,,,,,,,,,,,,,,,,,,,,,,
,,,,,,,,,,,,,,,,,,,,,,,19,female,2020-09-16_13h34.07.703,torte-2b,2020.1.3,MacIntel,60,13230,,,,,,,,,,,,,,,,,,,3,,,,,,,0,29,29,29,1,,,,,,,,,,,,,,,,,,,,,,,,,,,,,,,,,,,,
,,,,,,,,,,,,,,,,,,,,,,,19,female,2020-09-16_13h34.07.703,torte-2b,2020.1.3,MacIntel,60,13230,,,,,,,,,,,,,space,,,,,,1,0.68047,,,,,,0,30,30,30,1,,,,,,,,,,,,,,,,,,,,,,,,,,,,,,,,,,,,
,,,,,,,,,,,,,,,,,,,,,,,19,female,2020-09-16_13h34.07.703,torte-2b,2020.1.3,MacIntel,60,13230,,,,,,,,,,,,,,,,,,,7,,,,,,,0,31,31,31,1,,,,,,,,,,,,,,,,,,,,,,,,,,,,,,,,,,,,
,,,,,,,,,,,,,,,,,,,,,,,19,female,2020-09-16_13h34.07.703,torte-2b,2020.1.3,MacIntel,60,13230,,,,,,,,,,,,,,,,,,,5,,,,,,,0,32,32,32,1,,,,,,,,,,,,,,,,,,,,,,,,,,,,,,,,,,,,
,,,,,,,,,,,,,,,,,,,,,,,19,female,2020-09-16_13h34.07.703,torte-2b,2020.1.3,MacIntel,60,13230,,,,,,,,,,,,,space,,,,,,7,0.579905,,,,,,0,33,33,33,1,,,,,,,,,,,,,,,,,,,,,,,,,,,,,,,,,,,,
,,,,,,,,,,,,,,,,,,,,,,,19,female,2020-09-16_13h34.07.703,torte-2b,2020.1.3,MacIntel,60,13230,,,,,,,,,,,,,,,,,,,2,,,,,,,0,34,34,34,1,,,,,,,,,,,,,,,,,,,,,,,,,,,,,,,,,,,,
,,,,,,,,,,,,,,,,,,,,,,,19,female,2020-09-16_13h34.07.703,torte-2b,2020.1.3,MacIntel,60,13230,,,,,,,,,,,,,,,,,,,3,,,,,,,,,,,,0,0,0,0,1,,,,,,,,,,,,,,,,,,,,,,,,,,,,,,,
,,,,,,,,,,,,,,,,,,,,,,,19,female,2020-09-16_13h34.07.703,torte-2b,2020.1.3,MacIntel,60,13230,,,,,,,,,,,,,,,,,,,7,,,,,,,,,,,,0,1,1,1,1,,,,,,,,,,,,,,,,,,,,,,,,,,,,,,,
,,,,,,,,,,,,,,,,,,,,,,,19,female,2020-09-16_13h34.07.703,torte-2b,2020.1.3,MacIntel,60,13230,,,,,,,,,,,,,,,,,,,7,,,,,,,,,,,,0,2,2,2,1,,,,,,,,,,,,,,,,,,,,,,,,,,,,,,,
,,,,,,,,,,,,,,,,,,,,,,,19,female,2020-09-16_13h34.07.703,torte-2b,2020.1.3,MacIntel,60,13230,,,,,,,,,,,,,,,,,,,4,,,,,,,,,,,,0,3,3,3,1,,,,,,,,,,,,,,,,,,,,,,,,,,,,,,,
,,,,,,,,,,,,,,,,,,,,,,,19,female,2020-09-16_13h34.07.703,torte-2b,2020.1.3,MacIntel,60,13230,,,,,,,,,,,,,,,,,,,5,,,,,,,,,,,,0,4,4,4,1,,,,,,,,,,,,,,,,,,,,,,,,,,,,,,,
,,,,,,,,,,,,,,,,,,,,,,,19,female,2020-09-16_13h34.07.703,torte-2b,2020.1.3,MacIntel,60,13230,,,,,,,,,,,,,space,,,,,,4,0.420365,,,,,,,,,,,0,5,5,5,1,,,,,,,,,,,,,,,,,,,,,,,,,,,,,,,
,,,,,,,,,,,,,,,,,,,,,,,19,female,2020-09-16_13h34.07.703,torte-2b,2020.1.3,MacIntel,60,13230,,,,,,,,,,,,,,,,,,,2,,,,,,,,,,,,0,6,6,6,1,,,,,,,,,,,,,,,,,,,,,,,,,,,,,,,
,,,,,,,,,,,,,,,,,,,,,,,19,female,2020-09-16_13h34.07.703,torte-2b,2020.1.3,MacIntel,60,13230,,,,,,,,,,,,,space,,,,,,4,0.989795,,,,,,,,,,,0,7,7,7,1,,,,,,,,,,,,,,,,,,,,,,,,,,,,,,,
,,,,,,,,,,,,,,,,,,,,,,,19,female,2020-09-16_13h34.07.703,torte-2b,2020.1.3,MacIntel,60,13230,,,,,,,,,,,,,space,,,,,,2,1.01197,,,,,,,,,,,0,8,8,8,1,,,,,,,,,,,,,,,,,,,,,,,,,,,,,,,
,,,,,,,,,,,,,,,,,,,,,,,19,female,2020-09-16_13h34.07.703,torte-2b,2020.1.3,MacIntel,60,13230,,,,,,,,,,,,,,,,,,,2,,,,,,,,,,,,0,9,9,9,1,,,,,,,,,,,,,,,,,,,,,,,,,,,,,,,
,,,,,,,,,,,,,,,,,,,,,,,19,female,2020-09-16_13h34.07.703,torte-2b,2020.1.3,MacIntel,60,13230,,,,,,,,,,,,,,,,,,,6,,,,,,,,,,,,0,10,10,10,1,,,,,,,,,,,,,,,,,,,,,,,,,,,,,,,
,,,,,,,,,,,,,,,,,,,,,,,19,female,2020-09-16_13h34.07.703,torte-2b,2020.1.3,MacIntel,60,13230,,,,,,,,,,,,,space,,,,,,2,0.46213,,,,,,,,,,,0,11,11,11,1,,,,,,,,,,,,,,,,,,,,,,,,,,,,,,,
,,,,,,,,,,,,,,,,,,,,,,,19,female,2020-09-16_13h34.07.703,torte-2b,2020.1.3,MacIntel,60,13230,,,,,,,,,,,,,,,,,,,2,,,,,,,,,,,,0,12,12,12,1,,,,,,,,,,,,,,,,,,,,,,,,,,,,,,,
,,,,,,,,,,,,,,,,,,,,,,,19,female,2020-09-16_13h34.07.703,torte-2b,2020.1.3,MacIntel,60,13230,,,,,,,,,,,,,,,,,,,2,,,,,,,,,,,,0,13,13,13,1,,,,,,,,,,,,,,,,,,,,,,,,,,,,,,,
,,,,,,,,,,,,,,,,,,,,,,,19,female,2020-09-16_13h34.07.703,torte-2b,2020.1.3,MacIntel,60,13230,,,,,,,,,,,,,space,,,,,,2,0.52271,,,,,,,,,,,0,14,14,14,1,,,,,,,,,,,,,,,,,,,,,,,,,,,,,,,
,,,,,,,,,,,,,,,,,,,,,,,19,female,2020-09-16_13h34.07.703,torte-2b,2020.1.3,MacIntel,60,13230,,,,,,,,,,,,,,,,,,,4,,,,,,,,,,,,0,15,15,15,1,,,,,,,,,,,,,,,,,,,,,,,,,,,,,,,
,,,,,,,,,,,,,,,,,,,,,,,19,female,2020-09-16_13h34.07.703,torte-2b,2020.1.3,MacIntel,60,13230,,,,,,,,,,,,,,,,,,,3,,,,,,,,,,,,0,16,16,16,1,,,,,,,,,,,,,,,,,,,,,,,,,,,,,,,
,,,,,,,,,,,,,,,,,,,,,,,19,female,2020-09-16_13h34.07.703,torte-2b,2020.1.3,MacIntel,60,13230,,,,,,,,,,,,,,,,,,,7,,,,,,,,,,,,0,17,17,17,1,,,,,,,,,,,,,,,,,,,,,,,,,,,,,,,
,,,,,,,,,,,,,,,,,,,,,,,19,female,2020-09-16_13h34.07.703,torte-2b,2020.1.3,MacIntel,60,13230,,,,,,,,,,,,,space,,,,,,4,0.945825,,,,,,,,,,,0,18,18,18,1,,,,,,,,,,,,,,,,,,,,,,,,,,,,,,,
,,,,,,,,,,,,,,,,,,,,,,,19,female,2020-09-16_13h34.07.703,torte-2b,2020.1.3,MacIntel,60,13230,,,,,,,,,,,,,space,,,,,,7,0.64382,,,,,,,,,,,0,19,19,19,1,,,,,,,,,,,,,,,,,,,,,,,,,,,,,,,
,,,,,,,,,,,,,,,,,,,,,,,19,female,2020-09-16_13h34.07.703,torte-2b,2020.1.3,MacIntel,60,13230,,,,,,,,,,,,,,,,,,,7,,,,,,,,,,,,0,20,20,20,1,,,,,,,,,,,,,,,,,,,,,,,,,,,,,,,
,,,,,,,,,,,,,,,,,,,,,,,19,female,2020-09-16_13h34.07.703,torte-2b,2020.1.3,MacIntel,60,13230,,,,,,,,,,,,,space,,,,,,7,0.399815,,,,,,,,,,,0,21,21,21,1,,,,,,,,,,,,,,,,,,,,,,,,,,,,,,,
,,,,,,,,,,,,,,,,,,,,,,,19,female,2020-09-16_13h34.07.703,torte-2b,2020.1.3,MacIntel,60,13230,,,,,,,,,,,,,,,,,,,7,,,,,,,,,,,,0,22,22,22,1,,,,,,,,,,,,,,,,,,,,,,,,,,,,,,,
,,,,,,,,,,,,,,,,,,,,,,,19,female,2020-09-16_13h34.07.703,torte-2b,2020.1.3,MacIntel,60,13230,,,,,,,,,,,,,,,,,,,1,,,,,,,,,,,,0,23,23,23,1,,,,,,,,,,,,,,,,,,,,,,,,,,,,,,,
,,,,,,,,,,,,,,,,,,,,,,,19,female,2020-09-16_13h34.07.703,torte-2b,2020.1.3,MacIntel,60,13230,,,,,,,,,,,,,space,,,,,,7,0.66201,,,,,,,,,,,0,24,24,24,1,,,,,,,,,,,,,,,,,,,,,,,,,,,,,,,
,,,,,,,,,,,,,,,,,,,,,,,19,female,2020-09-16_13h34.07.703,torte-2b,2020.1.3,MacIntel,60,13230,,,,,,,,,,,,,space,,,,,,1,0.74829,,,,,,,,,,,0,25,25,25,1,,,,,,,,,,,,,,,,,,,,,,,,,,,,,,,
,,,,,,,,,,,,,,,,,,,,,,,19,female,2020-09-16_13h34.07.703,torte-2b,2020.1.3,MacIntel,60,13230,,,,,,,,,,,,,space,,,,,,7,0.68453,,,,,,,,,,,0,26,26,26,1,,,,,,,,,,,,,,,,,,,,,,,,,,,,,,,
,,,,,,,,,,,,,,,,,,,,,,,19,female,2020-09-16_13h34.07.703,torte-2b,2020.1.3,MacIntel,60,13230,,,,,,,,,,,,,,,,,,,2,,,,,,,,,,,,0,27,27,27,1,,,,,,,,,,,,,,,,,,,,,,,,,,,,,,,
,,,,,,,,,,,,,,,,,,,,,,,19,female,2020-09-16_13h34.07.703,torte-2b,2020.1.3,MacIntel,60,13230,,,,,,,,,,,,,,,,,,,5,,,,,,,,,,,,0,28,28,28,1,,,,,,,,,,,,,,,,,,,,,,,,,,,,,,,
,,,,,,,,,,,,,,,,,,,,,,,19,female,2020-09-16_13h34.07.703,torte-2b,2020.1.3,MacIntel,60,13230,,,,,,,,,,,,,space,,,,,,5,0.498045,,,,,,,,,,,0,29,29,29,1,,,,,,,,,,,,,,,,,,,,,,,,,,,,,,,
,,,,,,,,,,,,,,,,,,,,,,,19,female,2020-09-16_13h34.07.703,torte-2b,2020.1.3,MacIntel,60,13230,,,,,,,,,,,,,space,,,,,,5,0.928275,,,,,,,,,,,0,30,30,30,1,,,,,,,,,,,,,,,,,,,,,,,,,,,,,,,
,,,,,,,,,,,,,,,,,,,,,,,19,female,2020-09-16_13h34.07.703,torte-2b,2020.1.3,MacIntel,60,13230,,,,,,,,,,,,,,,,,,,1,,,,,,,,,,,,0,31,31,31,1,,,,,,,,,,,,,,,,,,,,,,,,,,,,,,,
,,,,,,,,,,,,,,,,,,,,,,,19,female,2020-09-16_13h34.07.703,torte-2b,2020.1.3,MacIntel,60,13230,,,,,,,,,,,,,space,,,,,,5,0.95191,,,,,,,,,,,0,32,32,32,1,,,,,,,,,,,,,,,,,,,,,,,,,,,,,,,
,,,,,,,,,,,,,,,,,,,,,,,19,female,2020-09-16_13h34.07.703,torte-2b,2020.1.3,MacIntel,60,13230,,,,,,,,,,,,,,,,,,,3,,,,,,,,,,,,0,33,33,33,1,,,,,,,,,,,,,,,,,,,,,,,,,,,,,,,
,,,,,,,,,,,,,,,,,,,,,,,19,female,2020-09-16_13h34.07.703,torte-2b,2020.1.3,MacIntel,60,13230,,,,,,,,,,,,,,,,,,,3,,,,,,,,,,,,0,34,34,34,1,,,,,,,,,,,,,,,,,,,,,,,,,,,,,,,
,,,,,,,,,,,,a,Correct!,,,,,,t2.png,t3.png,1,0.90855,19,female,2020-09-16_13h34.07.703,torte-2b,2020.1.3,MacIntel,60,13230,1.68765,space,0.636815,,,,,,,,,,,,,,,,,,,,,,,,,,,,,,,,,space,4.08398,0,0,0,111,1,,,,,,,,,,,,,,,,,,,,,,,,
,,,,,,,,,,,,a,Incorrect,,,,,,t2.png,t5.png,3,0.0000131,19,female,2020-09-16_13h34.07.703,torte-2b,2020.1.3,MacIntel,60,13230,0.933735,,,,,,,,,,,,,,,,,,,,,,,,,,,,,,,,,,,,,0,1,1,95,1,,,,,,,,,,,,,,,,,,,,,,,,
,,,,,,,,,,,,a,Correct!,,,,,,t5.png,t5.png,0,0.97829,19,female,2020-09-16_13h34.07.703,torte-2b,2020.1.3,MacIntel,60,13230,0.666405,,,,,,,,,,,,,,,,,,,,,,,,,,,,,,,,,,,,,0,2,2,70,1,,,,,,,,,,,,,,,,,,,,,,,,
,,,,,,,,,,,,a,Incorrect,,,,,,t4.png,t1.png,3,0.0000131,19,female,2020-09-16_13h34.07.703,torte-2b,2020.1.3,MacIntel,60,13230,0.751435,,,,,,,,,,,,,,,,,,,,,,,,,,,,,,,,,,,,,0,3,3,13,1,,,,,,,,,,,,,,,,,,,,,,,,
,,,,,,,,,,,,a,Correct!,,,,,,t3.png,t4.png,1,0.909,19,female,2020-09-16_13h34.07.703,torte-2b,2020.1.3,MacIntel,60,13230,0.975505,,,,,,,,,,,,,,,,,,,,,,,,,,,,,,,,,,,,,0,4,4,106,1,,,,,,,,,,,,,,,,,,,,,,,,
,,,,,,,,,,,,a,Correct!,,,,,,t2.png,t3.png,1,0.90855,19,female,2020-09-16_13h34.07.703,torte-2b,2020.1.3,MacIntel,60,13230,0.616745,,,,,,,,,,,,,,,,,,,,,,,,,,,,,,,,,,,,,0,5,5,65,1,,,,,,,,,,,,,,,,,,,,,,,,
,,,,,,,,,,,,a,Incorrect,,,,,,t1.png,t3.png,2,0.056466,19,female,2020-09-16_13h34.07.703,torte-2b,2020.1.3,MacIntel,60,13230,0.72544,,,,,,,,,,,,,,,,,,,,,,,,,,,,,,,,,,,,,0,6,6,87,1,,,,,,,,,,,,,,,,,,,,,,,,
,,,,,,,,,,,,a,Incorrect,,,,,,t3.png,t1.png,2,0.056466,19,female,2020-09-16_13h34.07.703,torte-2b,2020.1.3,MacIntel,60,13230,0.590705,,,,,,,,,,,,,,,,,,,,,,,,,,,,,,,,,,,,,0,7,7,29,1,,,,,,,,,,,,,,,,,,,,,,,,
,,,,,,,,,,,,a,Incorrect,,,,,,t1.png,t3.png,2,0.056466,19,female,2020-09-16_13h34.07.703,torte-2b,2020.1.3,MacIntel,60,13230,0.49934,,,,,,,,,,,,,,,,,,,,,,,,,,,,,,,,,,,,,0,8,8,69,1,,,,,,,,,,,,,,,,,,,,,,,,
,,,,,,,,,,,,l,Correct!,,,,,,t2.png,t4.png,2,0.059078,19,female,2020-09-16_13h34.07.703,torte-2b,2020.1.3,MacIntel,60,13230,1.800635,,,,,,,,,,,,,,,,,,,,,,,,,,,,,,,,,,,,,0,9,9,37,1,,,,,,,,,,,,,,,,,,,,,,,,
,,,,,,,,,,,,a,Correct!,,,,,,t2.png,t1.png,1,0.90025,19,female,2020-09-16_13h34.07.703,torte-2b,2020.1.3,MacIntel,60,13230,0.567105,,,,,,,,,,,,,,,,,,,,,,,,,,,,,,,,,,,,,0,10,10,5,1,,,,,,,,,,,,,,,,,,,,,,,,
,,,,,,,,,,,,a,Incorrect,,,,,,t5.png,t3.png,2,0.056466,19,female,2020-09-16_13h34.07.703,torte-2b,2020.1.3,MacIntel,60,13230,0.71787,,,,,,,,,,,,,,,,,,,,,,,,,,,,,,,,,,,,,0,11,11,114,1,,,,,,,,,,,,,,,,,,,,,,,,
,,,,,,,,,,,,a,Incorrect,,,,,,t1.png,t2.png,1,0.9,19,female,2020-09-16_13h34.07.703,torte-2b,2020.1.3,MacIntel,60,13230,0.60902,,,,,,,,,,,,,,,,,,,,,,,,,,,,,,,,,,,,,0,12,12,1,1,,,,,,,,,,,,,,,,,,,,,,,,
,,,,,,,,,,,,a,Incorrect,,,,,,t3.png,t1.png,2,0.056466,19,female,2020-09-16_13h34.07.703,torte-2b,2020.1.3,MacIntel,60,13230,0.468125,,,,,,,,,,,,,,,,,,,,,,,,,,,,,,,,,,,,,0,13,13,0,1,,,,,,,,,,,,,,,,,,,,,,,,
,,,,,,,,,,,,a,Correct!,,,,,,t2.png,t2.png,0,0.98115,19,female,2020-09-16_13h34.07.703,torte-2b,2020.1.3,MacIntel,60,13230,0.7161,,,,,,,,,,,,,,,,,,,,,,,,,,,,,,,,,,,,,0,14,14,7,1,,,,,,,,,,,,,,,,,,,,,,,,
,,,,,,,,,,,,a,Correct!,,,,,,t1.png,t2.png,1,0.90025,19,female,2020-09-16_13h34.07.703,torte-2b,2020.1.3,MacIntel,60,13230,0.5663,,,,,,,,,,,,,,,,,,,,,,,,,,,,,,,,,,,,,0,15,15,112,1,,,,,,,,,,,,,,,,,,,,,,,,
,,,,,,,,,,,,a,Correct!,,,,,,t4.png,t5.png,1,0.90025,19,female,2020-09-16_13h34.07.703,torte-2b,2020.1.3,MacIntel,60,13230,0.73158,,,,,,,,,,,,,,,,,,,,,,,,,,,,,,,,,,,,,0,16,16,47,1,,,,,,,,,,,,,,,,,,,,,,,,
,,,,,,,,,,,,a,Correct!,,,,,,t2.png,t1.png,1,0.9,19,female,2020-09-16_13h34.07.703,torte-2b,2020.1.3,MacIntel,60,13230,0.567765,,,,,,,,,,,,,,,,,,,,,,,,,,,,,,,,,,,,,0,17,17,118,1,,,,,,,,,,,,,,,,,,,,,,,,
,,,,,,,,,,,,a,Correct!,,,,,,t4.png,t4.png,0,0.98115,19,female,2020-09-16_13h34.07.703,torte-2b,2020.1.3,MacIntel,60,13230,0.897775,,,,,,,,,,,,,,,,,,,,,,,,,,,,,,,,,,,,,0,18,18,79,1,,,,,,,,,,,,,,,,,,,,,,,,
,,,,,,,,,,,,a,Correct!,,,,,,t2.png,t2.png,0,0.98115,19,female,2020-09-16_13h34.07.703,torte-2b,2020.1.3,MacIntel,60,13230,0.571965,,,,,,,,,,,,,,,,,,,,,,,,,,,,,,,,,,,,,0,19,19,57,1,,,,,,,,,,,,,,,,,,,,,,,,
,,,,,,,,,,,,a,Correct!,,,,,,t4.png,t4.png,0,0.98115,19,female,2020-09-16_13h34.07.703,torte-2b,2020.1.3,MacIntel,60,13230,0.733215,,,,,,,,,,,,,,,,,,,,,,,,,,,,,,,,,,,,,0,20,20,52,1,,,,,,,,,,,,,,,,,,,,,,,,
,,,,,,,,,,,,a,Correct!,,,,,,t4.png,t2.png,2,0.059078,19,female,2020-09-16_13h34.07.703,torte-2b,2020.1.3,MacIntel,60,13230,0.515995,,,,,,,,,,,,,,,,,,,,,,,,,,,,,,,,,,,,,0,21,21,86,1,,,,,,,,,,,,,,,,,,,,,,,,
,,,,,,,,,,,,a,Incorrect,,,,,,t3.png,t5.png,2,0.056466,19,female,2020-09-16_13h34.07.703,torte-2b,2020.1.3,MacIntel,60,13230,0.79466,,,,,,,,,,,,,,,,,,,,,,,,,,,,,,,,,,,,,0,22,22,6,1,,,,,,,,,,,,,,,,,,,,,,,,
,,,,,,,,,,,,a,Correct!,,,,,,t3.png,t2.png,1,0.90855,19,female,2020-09-16_13h34.07.703,torte-2b,2020.1.3,MacIntel,60,13230,0.523735,,,,,,,,,,,,,,,,,,,,,,,,,,,,,,,,,,,,,0,23,23,18,1,,,,,,,,,,,,,,,,,,,,,,,,
,,,,,,,,,,,,a,Correct!,,,,,,t1.png,t1.png,0,0.97829,19,female,2020-09-16_13h34.07.703,torte-2b,2020.1.3,MacIntel,60,13230,0.682845,,,,,,,,,,,,,,,,,,,,,,,,,,,,,,,,,,,,,0,24,24,67,1,,,,,,,,,,,,,,,,,,,,,,,,
,,,,,,,,,,,,l,Correct!,,,,,,t5.png,t1.png,4,9.55E-11,19,female,2020-09-16_13h34.07.703,torte-2b,2020.1.3,MacIntel,60,13230,0.5483,,,,,,,,,,,,,,,,,,,,,,,,,,,,,,,,,,,,,0,25,25,102,1,,,,,,,,,,,,,,,,,,,,,,,,
,,,,,,,,,,,,a,Incorrect,,,,,,t2.png,t3.png,1,0.909,19,female,2020-09-16_13h34.07.703,torte-2b,2020.1.3,MacIntel,60,13230,0.632995,,,,,,,,,,,,,,,,,,,,,,,,,,,,,,,,,,,,,0,26,26,74,1,,,,,,,,,,,,,,,,,,,,,,,,
,,,,,,,,,,,,a,Correct!,,,,,,t4.png,t4.png,0,0.98115,19,female,2020-09-16_13h34.07.703,torte-2b,2020.1.3,MacIntel,60,13230,0.61586,,,,,,,,,,,,,,,,,,,,,,,,,,,,,,,,,,,,,0,27,27,21,1,,,,,,,,,,,,,,,,,,,,,,,,
,,,,,,,,,,,,a,Correct!,,,,,,t2.png,t1.png,1,0.90025,19,female,2020-09-16_13h34.07.703,torte-2b,2020.1.3,MacIntel,60,13230,0.56233,,,,,,,,,,,,,,,,,,,,,,,,,,,,,,,,,,,,,0,28,28,19,1,,,,,,,,,,,,,,,,,,,,,,,,
,,,,,,,,,,,,a,Incorrect,,,,,,t1.png,t3.png,2,0.056466,19,female,2020-09-16_13h34.07.703,torte-2b,2020.1.3,MacIntel,60,13230,0.416865,,,,,,,,,,,,,,,,,,,,,,,,,,,,,,,,,,,,,0,29,29,99,1,,,,,,,,,,,,,,,,,,,,,,,,
,,,,,,,,,,,,a,Correct!,,,,,,t1.png,t1.png,0,0.97829,19,female,2020-09-16_13h34.07.703,torte-2b,2020.1.3,MacIntel,60,13230,0.483895,,,,,,,,,,,,,,,,,,,,,,,,,,,,,,,,,,,,,0,30,30,9,1,,,,,,,,,,,,,,,,,,,,,,,,
,,,,,,,,,,,,a,Correct!,,,,,,t3.png,t2.png,1,0.90855,19,female,2020-09-16_13h34.07.703,torte-2b,2020.1.3,MacIntel,60,13230,0.520275,,,,,,,,,,,,,,,,,,,,,,,,,,,,,,,,,,,,,0,31,31,53,1,,,,,,,,,,,,,,,,,,,,,,,,
,,,,,,,,,,,,a,Incorrect,,,,,,t4.png,t1.png,3,0.0000131,19,female,2020-09-16_13h34.07.703,torte-2b,2020.1.3,MacIntel,60,13230,0.753095,,,,,,,,,,,,,,,,,,,,,,,,,,,,,,,,,,,,,0,32,32,93,1,,,,,,,,,,,,,,,,,,,,,,,,
,,,,,,,,,,,,a,Incorrect,,,,,,t5.png,t1.png,4,9.55E-11,19,female,2020-09-16_13h34.07.703,torte-2b,2020.1.3,MacIntel,60,13230,0.39994,,,,,,,,,,,,,,,,,,,,,,,,,,,,,,,,,,,,,0,33,33,100,1,,,,,,,,,,,,,,,,,,,,,,,,
,,,,,,,,,,,,a,Correct!,,,,,,t2.png,t2.png,0,0.98115,19,female,2020-09-16_13h34.07.703,torte-2b,2020.1.3,MacIntel,60,13230,0.570735,,,,,,,,,,,,,,,,,,,,,,,,,,,,,,,,,,,,,0,34,34,2,1,,,,,,,,,,,,,,,,,,,,,,,,
,,,,,,,,,,,,a,Incorrect,,,,,,t5.png,t3.png,2,0.056466,19,female,2020-09-16_13h34.07.703,torte-2b,2020.1.3,MacIntel,60,13230,0.73449,,,,,,,,,,,,,,,,,,,,,,,,,,,,,,,,,,,,,0,35,35,108,1,,,,,,,,,,,,,,,,,,,,,,,,
,,,,,,,,,,,,a,Correct!,,,,,,t3.png,t4.png,1,0.909,19,female,2020-09-16_13h34.07.703,torte-2b,2020.1.3,MacIntel,60,13230,0.64805,,,,,,,,,,,,,,,,,,,,,,,,,,,,,,,,,,,,,0,36,36,82,1,,,,,,,,,,,,,,,,,,,,,,,,
,,,,,,,,,,,,l,Correct!,,,,,,t1.png,t5.png,4,9.55E-11,19,female,2020-09-16_13h34.07.703,torte-2b,2020.1.3,MacIntel,60,13230,0.696455,,,,,,,,,,,,,,,,,,,,,,,,,,,,,,,,,,,,,0,37,37,55,1,,,,,,,,,,,,,,,,,,,,,,,,
,,,,,,,,,,,,a,Correct!,,,,,,t4.png,t4.png,0,0.98115,19,female,2020-09-16_13h34.07.703,torte-2b,2020.1.3,MacIntel,60,13230,0.62965,,,,,,,,,,,,,,,,,,,,,,,,,,,,,,,,,,,,,0,38,38,80,1,,,,,,,,,,,,,,,,,,,,,,,,
,,,,,,,,,,,,a,Incorrect,,,,,,t3.png,t1.png,2,0.056466,19,female,2020-09-16_13h34.07.703,torte-2b,2020.1.3,MacIntel,60,13230,0.816805,,,,,,,,,,,,,,,,,,,,,,,,,,,,,,,,,,,,,0,39,39,64,1,,,,,,,,,,,,,,,,,,,,,,,,
,,,,,,,,,,,,a,Incorrect,,,,,,t3.png,t5.png,2,0.056466,19,female,2020-09-16_13h34.07.703,torte-2b,2020.1.3,MacIntel,60,13230,0.58544,,,,,,,,,,,,,,,,,,,,,,,,,,,,,,,,,,,,,0,40,40,44,1,,,,,,,,,,,,,,,,,,,,,,,,
,,,,,,,,,,,,a,Correct!,,,,,,t5.png,t4.png,1,0.9,19,female,2020-09-16_13h34.07.703,torte-2b,2020.1.3,MacIntel,60,13230,0.969245,,,,,,,,,,,,,,,,,,,,,,,,,,,,,,,,,,,,,0,41,41,49,1,,,,,,,,,,,,,,,,,,,,,,,,
,,,,,,,,,,,,a,Correct!,,,,,,t3.png,t2.png,1,0.90855,19,female,2020-09-16_13h34.07.703,torte-2b,2020.1.3,MacIntel,60,13230,0.868315,,,,,,,,,,,,,,,,,,,,,,,,,,,,,,,,,,,,,0,42,42,97,1,,,,,,,,,,,,,,,,,,,,,,,,
,,,,,,,,,,,,l,Correct!,,,,,,t4.png,t2.png,2,0.059078,19,female,2020-09-16_13h34.07.703,torte-2b,2020.1.3,MacIntel,60,13230,0.70108,,,,,,,,,,,,,,,,,,,,,,,,,,,,,,,,,,,,,0,43,43,88,1,,,,,,,,,,,,,,,,,,,,,,,,
,,,,,,,,,,,,a,Incorrect,,,,,,t2.png,t5.png,3,0.0000131,19,female,2020-09-16_13h34.07.703,torte-2b,2020.1.3,MacIntel,60,13230,0.6692,,,,,,,,,,,,,,,,,,,,,,,,,,,,,,,,,,,,,0,44,44,40,1,,,,,,,,,,,,,,,,,,,,,,,,
,,,,,,,,,,,,a,Correct!,,,,,,t3.png,t2.png,1,0.909,19,female,2020-09-16_13h34.07.703,torte-2b,2020.1.3,MacIntel,60,13230,0.50464,,,,,,,,,,,,,,,,,,,,,,,,,,,,,,,,,,,,,0,45,45,23,1,,,,,,,,,,,,,,,,,,,,,,,,
,,,,,,,,,,,,a,Incorrect,,,,,,t1.png,t4.png,3,0.0000131,19,female,2020-09-16_13h34.07.703,torte-2b,2020.1.3,MacIntel,60,13230,0.98615,,,,,,,,,,,,,,,,,,,,,,,,,,,,,,,,,,,,,0,46,46,50,1,,,,,,,,,,,,,,,,,,,,,,,,
,,,,,,,,,,,,a,Incorrect,,,,,,t3.png,t5.png,2,0.056466,19,female,2020-09-16_13h34.07.703,torte-2b,2020.1.3,MacIntel,60,13230,0.608375,,,,,,,,,,,,,,,,,,,,,,,,,,,,,,,,,,,,,0,47,47,14,1,,,,,,,,,,,,,,,,,,,,,,,,
,,,,,,,,,,,,a,Correct!,,,,,,t4.png,t3.png,1,0.90855,19,female,2020-09-16_13h34.07.703,torte-2b,2020.1.3,MacIntel,60,13230,0.8315,,,,,,,,,,,,,,,,,,,,,,,,,,,,,,,,,,,,,0,48,48,45,1,,,,,,,,,,,,,,,,,,,,,,,,
,,,,,,,,,,,,a,Correct!,,,,,,t4.png,t3.png,1,0.90855,19,female,2020-09-16_13h34.07.703,torte-2b,2020.1.3,MacIntel,60,13230,0.70387,,,,,,,,,,,,,,,,,,,,,,,,,,,,,,,,,,,,,0,49,49,35,1,,,,,,,,,,,,,,,,,,,,,,,,
,,,,,,,,,,,,a,Correct!,,,,,,t2.png,t2.png,0,0.98115,19,female,2020-09-16_13h34.07.703,torte-2b,2020.1.3,MacIntel,60,13230,0.646705,,,,,,,,,,,,,,,,,,,,,,,,,,,,,,,,,,,,,0,50,50,59,1,,,,,,,,,,,,,,,,,,,,,,,,
,,,,,,,,,,,,a,Incorrect,,,,,,t4.png,t1.png,3,0.0000131,19,female,2020-09-16_13h34.07.703,torte-2b,2020.1.3,MacIntel,60,13230,0.666205,,,,,,,,,,,,,,,,,,,,,,,,,,,,,,,,,,,,,0,51,51,42,1,,,,,,,,,,,,,,,,,,,,,,,,
,,,,,,,,,,,,a,Incorrect,,,,,,t4.png,t1.png,3,0.0000131,19,female,2020-09-16_13h34.07.703,torte-2b,2020.1.3,MacIntel,60,13230,0.518915,,,,,,,,,,,,,,,,,,,,,,,,,,,,,,,,,,,,,0,52,52,61,1,,,,,,,,,,,,,,,,,,,,,,,,
,,,,,,,,,,,,a,Correct!,,,,,,t1.png,t1.png,0,0.978,19,female,2020-09-16_13h34.07.703,torte-2b,2020.1.3,MacIntel,60,13230,0.516695,,,,,,,,,,,,,,,,,,,,,,,,,,,,,,,,,,,,,0,53,53,28,1,,,,,,,,,,,,,,,,,,,,,,,,
,,,,,,,,,,,,a,Correct!,,,,,,t3.png,t4.png,1,0.90855,19,female,2020-09-16_13h34.07.703,torte-2b,2020.1.3,MacIntel,60,13230,0.654745,,,,,,,,,,,,,,,,,,,,,,,,,,,,,,,,,,,,,0,54,54,84,1,,,,,,,,,,,,,,,,,,,,,,,,
,,,,,,,,,,,,l,Correct!,,,,,,t5.png,t2.png,3,0.0000131,19,female,2020-09-16_13h34.07.703,torte-2b,2020.1.3,MacIntel,60,13230,0.697075,,,,,,,,,,,,,,,,,,,,,,,,,,,,,,,,,,,,,0,55,55,91,1,,,,,,,,,,,,,,,,,,,,,,,,
,,,,,,,,,,,,a,Correct!,,,,,,t4.png,t3.png,1,0.90855,19,female,2020-09-16_13h34.07.703,torte-2b,2020.1.3,MacIntel,60,13230,0.83039,,,,,,,,,,,,,,,,,,,,,,,,,,,,,,,,,,,,,0,56,56,75,1,,,,,,,,,,,,,,,,,,,,,,,,
,,,,,,,,,,,,a,Incorrect,,,,,,t5.png,t2.png,3,0.0000131,19,female,2020-09-16_13h34.07.703,torte-2b,2020.1.3,MacIntel,60,13230,0.94939,,,,,,,,,,,,,,,,,,,,,,,,,,,,,,,,,,,,,0,57,57,51,1,,,,,,,,,,,,,,,,,,,,,,,,
,,,,,,,,,,,,a,Incorrect,,,,,,t1.png,t4.png,3,0.0000131,19,female,2020-09-16_13h34.07.703,torte-2b,2020.1.3,MacIntel,60,13230,1.405,,,,,,,,,,,,,,,,,,,,,,,,,,,,,,,,,,,,,0,58,58,17,1,,,,,,,,,,,,,,,,,,,,,,,,
,,,,,,,,,,,,l,Correct!,,,,,,t2.png,t4.png,2,0.0591,19,female,2020-09-16_13h34.07.703,torte-2b,2020.1.3,MacIntel,60,13230,1.18309,,,,,,,,,,,,,,,,,,,,,,,,,,,,,,,,,,,,,0,59,59,15,1,,,,,,,,,,,,,,,,,,,,,,,,
,,,,,,,,,,,,a,Correct!,,,,,,t5.png,t5.png,0,0.97829,19,female,2020-09-16_13h34.07.703,torte-2b,2020.1.3,MacIntel,60,13230,1.717615,,,,,,,,,,,,,,,,,,,,,,,,,,,,,,,,,,,,,0,60,60,73,1,,,,,,,,,,,,,,,,,,,,,,,,
,,,,,,,,,,,,a,Incorrect,,,,,,t3.png,t5.png,2,0.0565,19,female,2020-09-16_13h34.07.703,torte-2b,2020.1.3,MacIntel,60,13230,2.20116,,,,,,,,,,,,,,,,,,,,,,,,,,,,,,,,,,,,,0,61,61,83,1,,,,,,,,,,,,,,,,,,,,,,,,
,,,,,,,,,,,,l,Correct!,,,,,,t4.png,t2.png,2,0.0591,19,female,2020-09-16_13h34.07.703,torte-2b,2020.1.3,MacIntel,60,13230,0.783095,,,,,,,,,,,,,,,,,,,,,,,,,,,,,,,,,,,,,0,62,62,36,1,,,,,,,,,,,,,,,,,,,,,,,,
,,,,,,,,,,,,l,Correct!,,,,,,t2.png,t4.png,2,0.059078,19,female,2020-09-16_13h34.07.703,torte-2b,2020.1.3,MacIntel,60,13230,0.835815,,,,,,,,,,,,,,,,,,,,,,,,,,,,,,,,,,,,,0,63,63,11,1,,,,,,,,,,,,,,,,,,,,,,,,
,,,,,,,,,,,,a,Incorrect,,,,,,t5.png,t3.png,2,0.056466,19,female,2020-09-16_13h34.07.703,torte-2b,2020.1.3,MacIntel,60,13230,0.986255,,,,,,,,,,,,,,,,,,,,,,,,,,,,,,,,,,,,,0,64,64,38,1,,,,,,,,,,,,,,,,,,,,,,,,
,,,,,,,,,,,,a,Incorrect,,,,,,t5.png,t2.png,3,0.0000131,19,female,2020-09-16_13h34.07.703,torte-2b,2020.1.3,MacIntel,60,13230,0.789015,,,,,,,,,,,,,,,,,,,,,,,,,,,,,,,,,,,,,0,65,65,119,1,,,,,,,,,,,,,,,,,,,,,,,,
,,,,,,,,,,,,a,Incorrect,,,,,,t4.png,t1.png,3,0.0000131,19,female,2020-09-16_13h34.07.703,torte-2b,2020.1.3,MacIntel,60,13230,0.93173,,,,,,,,,,,,,,,,,,,,,,,,,,,,,,,,,,,,,0,66,66,48,1,,,,,,,,,,,,,,,,,,,,,,,,
,,,,,,,,,,,,a,Correct!,,,,,,t5.png,t5.png,0,0.978,19,female,2020-09-16_13h34.07.703,torte-2b,2020.1.3,MacIntel,60,13230,0.91537,,,,,,,,,,,,,,,,,,,,,,,,,,,,,,,,,,,,,0,67,67,117,1,,,,,,,,,,,,,,,,,,,,,,,,
,,,,,,,,,,,,l,Incorrect,,,,,,t2.png,t4.png,2,0.059078,19,female,2020-09-16_13h34.07.703,torte-2b,2020.1.3,MacIntel,60,13230,0.832765,,,,,,,,,,,,,,,,,,,,,,,,,,,,,,,,,,,,,0,68,68,77,1,,,,,,,,,,,,,,,,,,,,,,,,
,,,,,,,,,,,,a,Incorrect,,,,,,t4.png,t5.png,1,0.90025,19,female,2020-09-16_13h34.07.703,torte-2b,2020.1.3,MacIntel,60,13230,0.95586,,,,,,,,,,,,,,,,,,,,,,,,,,,,,,,,,,,,,0,69,69,113,1,,,,,,,,,,,,,,,,,,,,,,,,
,,,,,,,,,,,,a,Correct!,,,,,,t4.png,t4.png,0,0.98115,19,female,2020-09-16_13h34.07.703,torte-2b,2020.1.3,MacIntel,60,13230,0.914555,,,,,,,,,,,,,,,,,,,,,,,,,,,,,,,,,,,,,0,70,70,90,1,,,,,,,,,,,,,,,,,,,,,,,,
,,,,,,,,,,,,a,Correct!,,,,,,t4.png,t5.png,1,0.90025,19,female,2020-09-16_13h34.07.703,torte-2b,2020.1.3,MacIntel,60,13230,0.847005,,,,,,,,,,,,,,,,,,,,,,,,,,,,,,,,,,,,,0,71,71,58,1,,,,,,,,,,,,,,,,,,,,,,,,
,,,,,,,,,,,,l,Correct!,,,,,,t2.png,t4.png,2,0.059078,19,female,2020-09-16_13h34.07.703,torte-2b,2020.1.3,MacIntel,60,13230,0.7331,,,,,,,,,,,,,,,,,,,,,,,,,,,,,,,,,,,,,0,72,72,24,1,,,,,,,,,,,,,,,,,,,,,,,,
,,,,,,,,,,,,a,Incorrect,,,,,,t1.png,t4.png,3,0.0000131,19,female,2020-09-16_13h34.07.703,torte-2b,2020.1.3,MacIntel,60,13230,0.864515,,,,,,,,,,,,,,,,,,,,,,,,,,,,,,,,,,,,,0,73,73,81,1,,,,,,,,,,,,,,,,,,,,,,,,
,,,,,,,,,,,,a,Incorrect,,,,,,t1.png,t4.png,3,0.0000131,19,female,2020-09-16_13h34.07.703,torte-2b,2020.1.3,MacIntel,60,13230,1.105875,,,,,,,,,,,,,,,,,,,,,,,,,,,,,,,,,,,,,0,74,74,107,1,,,,,,,,,,,,,,,,,,,,,,,,
,,,,,,,,,,,,a,Incorrect,,,,,,t1.png,t4.png,3,0.0000131,19,female,2020-09-16_13h34.07.703,torte-2b,2020.1.3,MacIntel,60,13230,0.6019,,,,,,,,,,,,,,,,,,,,,,,,,,,,,,,,,,,,,0,75,75,92,1,,,,,,,,,,,,,,,,,,,,,,,,
,,,,,,,,,,,,l,Correct!,,,,,,t1.png,t5.png,4,9.55E-11,19,female,2020-09-16_13h34.07.703,torte-2b,2020.1.3,MacIntel,60,13230,0.916025,,,,,,,,,,,,,,,,,,,,,,,,,,,,,,,,,,,,,0,76,76,12,1,,,,,,,,,,,,,,,,,,,,,,,,
,,,,,,,,,,,,a,Correct!,,,,,,t4.png,t3.png,1,0.909,19,female,2020-09-16_13h34.07.703,torte-2b,2020.1.3,MacIntel,60,13230,0.640105,,,,,,,,,,,,,,,,,,,,,,,,,,,,,,,,,,,,,0,77,77,20,1,,,,,,,,,,,,,,,,,,,,,,,,
,,,,,,,,,,,,a,Incorrect,,,,,,t2.png,t5.png,3,0.0000131,19,female,2020-09-16_13h34.07.703,torte-2b,2020.1.3,MacIntel,60,13230,0.69786,,,,,,,,,,,,,,,,,,,,,,,,,,,,,,,,,,,,,0,78,78,8,1,,,,,,,,,,,,,,,,,,,,,,,,
,,,,,,,,,,,,l,Correct!,,,,,,t5.png,t1.png,4,9.55E-11,19,female,2020-09-16_13h34.07.703,torte-2b,2020.1.3,MacIntel,60,13230,0.63637,,,,,,,,,,,,,,,,,,,,,,,,,,,,,,,,,,,,,0,79,79,71,1,,,,,,,,,,,,,,,,,,,,,,,,
,,,,,,,,,,,,a,Incorrect,,,,,,t5.png,t4.png,1,0.90025,19,female,2020-09-16_13h34.07.703,torte-2b,2020.1.3,MacIntel,60,13230,0.63251,,,,,,,,,,,,,,,,,,,,,,,,,,,,,,,,,,,,,0,80,80,26,1,,,,,,,,,,,,,,,,,,,,,,,,
,,,,,,,,,,,,a,Correct!,,,,,,t2.png,t3.png,1,0.90855,19,female,2020-09-16_13h34.07.703,torte-2b,2020.1.3,MacIntel,60,13230,0.63183,,,,,,,,,,,,,,,,,,,,,,,,,,,,,,,,,,,,,0,81,81,10,1,,,,,,,,,,,,,,,,,,,,,,,,
,,,,,,,,,,,,a,Correct!,,,,,,t2.png,t1.png,1,0.90025,19,female,2020-09-16_13h34.07.703,torte-2b,2020.1.3,MacIntel,60,13230,0.61495,,,,,,,,,,,,,,,,,,,,,,,,,,,,,,,,,,,,,0,82,82,62,1,,,,,,,,,,,,,,,,,,,,,,,,
,,,,,,,,,,,,a,Correct!,,,,,,t4.png,t5.png,1,0.90025,19,female,2020-09-16_13h34.07.703,torte-2b,2020.1.3,MacIntel,60,13230,0.70295,,,,,,,,,,,,,,,,,,,,,,,,,,,,,,,,,,,,,0,83,83,103,1,,,,,,,,,,,,,,,,,,,,,,,,
,,,,,,,,,,,,a,Incorrect,,,,,,t2.png,t5.png,3,0.0000131,19,female,2020-09-16_13h34.07.703,torte-2b,2020.1.3,MacIntel,60,13230,0.83753,,,,,,,,,,,,,,,,,,,,,,,,,,,,,,,,,,,,,0,84,84,66,1,,,,,,,,,,,,,,,,,,,,,,,,
,,,,,,,,,,,,a,Incorrect,,,,,,t3.png,t1.png,2,0.056466,19,female,2020-09-16_13h34.07.703,torte-2b,2020.1.3,MacIntel,60,13230,0.79801,,,,,,,,,,,,,,,,,,,,,,,,,,,,,,,,,,,,,0,85,85,32,1,,,,,,,,,,,,,,,,,,,,,,,,
,,,,,,,,,,,,l,Correct!,,,,,,t1.png,t5.png,4,9.55E-11,19,female,2020-09-16_13h34.07.703,torte-2b,2020.1.3,MacIntel,60,13230,0.822415,,,,,,,,,,,,,,,,,,,,,,,,,,,,,,,,,,,,,0,86,86,85,1,,,,,,,,,,,,,,,,,,,,,,,,
,,,,,,,,,,,,l,Correct!,,,,,,t1.png,t5.png,4,9.55E-11,19,female,2020-09-16_13h34.07.703,torte-2b,2020.1.3,MacIntel,60,13230,0.930685,,,,,,,,,,,,,,,,,,,,,,,,,,,,,,,,,,,,,0,87,87,41,1,,,,,,,,,,,,,,,,,,,,,,,,
,,,,,,,,,,,,a,Incorrect,,,,,,t3.png,t1.png,2,0.0565,19,female,2020-09-16_13h34.07.703,torte-2b,2020.1.3,MacIntel,60,13230,1.062805,,,,,,,,,,,,,,,,,,,,,,,,,,,,,,,,,,,,,0,88,88,31,1,,,,,,,,,,,,,,,,,,,,,,,,
,,,,,,,,,,,,a,Correct!,,,,,,t5.png,t4.png,1,0.90025,19,female,2020-09-16_13h34.07.703,torte-2b,2020.1.3,MacIntel,60,13230,0.72477,,,,,,,,,,,,,,,,,,,,,,,,,,,,,,,,,,,,,0,89,89,27,1,,,,,,,,,,,,,,,,,,,,,,,,
,,,,,,,,,,,,l,Correct!,,,,,,t1.png,t5.png,4,9.55E-11,19,female,2020-09-16_13h34.07.703,torte-2b,2020.1.3,MacIntel,60,13230,0.71496,,,,,,,,,,,,,,,,,,,,,,,,,,,,,,,,,,,,,0,90,90,16,1,,,,,,,,,,,,,,,,,,,,,,,,
,,,,,,,,,,,,a,Correct!,,,,,,t2.png,t3.png,1,0.90855,19,female,2020-09-16_13h34.07.703,torte-2b,2020.1.3,MacIntel,60,13230,0.40679,,,,,,,,,,,,,,,,,,,,,,,,,,,,,,,,,,,,,0,91,91,68,1,,,,,,,,,,,,,,,,,,,,,,,,
,,,,,,,,,,,,a,Correct!,,,,,,t2.png,t1.png,1,0.90025,19,female,2020-09-16_13h34.07.703,torte-2b,2020.1.3,MacIntel,60,13230,0.713115,,,,,,,,,,,,,,,,,,,,,,,,,,,,,,,,,,,,,0,92,92,4,1,,,,,,,,,,,,,,,,,,,,,,,,
,,,,,,,,,,,,a,Correct!,,,,,,t5.png,t4.png,1,0.90025,19,female,2020-09-16_13h34.07.703,torte-2b,2020.1.3,MacIntel,60,13230,0.830415,,,,,,,,,,,,,,,,,,,,,,,,,,,,,,,,,,,,,0,93,93,34,1,,,,,,,,,,,,,,,,,,,,,,,,
,,,,,,,,,,,,a,Correct!,,,,,,t5.png,t4.png,1,0.9,19,female,2020-09-16_13h34.07.703,torte-2b,2020.1.3,MacIntel,60,13230,0.766345,,,,,,,,,,,,,,,,,,,,,,,,,,,,,,,,,,,,,0,94,94,76,1,,,,,,,,,,,,,,,,,,,,,,,,
,,,,,,,,,,,,a,Correct!,,,,,,t3.png,t4.png,1,0.90855,19,female,2020-09-16_13h34.07.703,torte-2b,2020.1.3,MacIntel,60,13230,0.549235,,,,,,,,,,,,,,,,,,,,,,,,,,,,,,,,,,,,,0,95,95,96,1,,,,,,,,,,,,,,,,,,,,,,,,
,,,,,,,,,,,,a,Correct!,,,,,,t3.png,t4.png,1,0.909,19,female,2020-09-16_13h34.07.703,torte-2b,2020.1.3,MacIntel,60,13230,0.671685,,,,,,,,,,,,,,,,,,,,,,,,,,,,,,,,,,,,,0,96,96,89,1,,,,,,,,,,,,,,,,,,,,,,,,
,,,,,,,,,,,,a,Incorrect,,,,,,t1.png,t3.png,2,0.056466,19,female,2020-09-16_13h34.07.703,torte-2b,2020.1.3,MacIntel,60,13230,0.749435,,,,,,,,,,,,,,,,,,,,,,,,,,,,,,,,,,,,,0,97,97,60,1,,,,,,,,,,,,,,,,,,,,,,,,
,,,,,,,,,,,,a,Correct!,,,,,,t4.png,t3.png,1,0.909,19,female,2020-09-16_13h34.07.703,torte-2b,2020.1.3,MacIntel,60,13230,0.567605,,,,,,,,,,,,,,,,,,,,,,,,,,,,,,,,,,,,,0,98,98,46,1,,,,,,,,,,,,,,,,,,,,,,,,
,,,,,,,,,,,,a,Correct!,,,,,,t3.png,t2.png,1,0.909,19,female,2020-09-16_13h34.07.703,torte-2b,2020.1.3,MacIntel,60,13230,0.399835,,,,,,,,,,,,,,,,,,,,,,,,,,,,,,,,,,,,,0,99,99,3,1,,,,,,,,,,,,,,,,,,,,,,,,
,,,,,,,,,,,,a,Incorrect,,,,,,t1.png,t3.png,2,0.056466,19,female,2020-09-16_13h34.07.703,torte-2b,2020.1.3,MacIntel,60,13230,0.548775,,,,,,,,,,,,,,,,,,,,,,,,,,,,,,,,,,,,,0,100,100,63,1,,,,,,,,,,,,,,,,,,,,,,,,
,,,,,,,,,,,,a,Incorrect,,,,,,t4.png,t2.png,2,0.059078,19,female,2020-09-16_13h34.07.703,torte-2b,2020.1.3,MacIntel,60,13230,0.49572,,,,,,,,,,,,,,,,,,,,,,,,,,,,,,,,,,,,,0,101,101,110,1,,,,,,,,,,,,,,,,,,,,,,,,
,,,,,,,,,,,,a,Incorrect,,,,,,t2.png,t5.png,3,0.0000131,19,female,2020-09-16_13h34.07.703,torte-2b,2020.1.3,MacIntel,60,13230,0.86569,,,,,,,,,,,,,,,,,,,,,,,,,,,,,,,,,,,,,0,102,102,104,1,,,,,,,,,,,,,,,,,,,,,,,,
,,,,,,,,,,,,a,Incorrect,,,,,,t5.png,t3.png,2,0.056466,19,female,2020-09-16_13h34.07.703,torte-2b,2020.1.3,MacIntel,60,13230,0.751825,,,,,,,,,,,,,,,,,,,,,,,,,,,,,,,,,,,,,0,103,103,56,1,,,,,,,,,,,,,,,,,,,,,,,,
,,,,,,,,,,,,a,Correct!,,,,,,t5.png,t5.png,0,0.97829,19,female,2020-09-16_13h34.07.703,torte-2b,2020.1.3,MacIntel,60,13230,0.63449,,,,,,,,,,,,,,,,,,,,,,,,,,,,,,,,,,,,,0,104,104,25,1,,,,,,,,,,,,,,,,,,,,,,,,
,,,,,,,,,,,,a,Correct!,,,,,,t1.png,t1.png,0,0.97829,19,female,2020-09-16_13h34.07.703,torte-2b,2020.1.3,MacIntel,60,13230,0.62081,,,,,,,,,,,,,,,,,,,,,,,,,,,,,,,,,,,,,0,105,105,78,1,,,,,,,,,,,,,,,,,,,,,,,,
,,,,,,,,,,,,a,Incorrect,,,,,,t5.png,t2.png,3,0.0000131,19,female,2020-09-16_13h34.07.703,torte-2b,2020.1.3,MacIntel,60,13230,0.800705,,,,,,,,,,,,,,,,,,,,,,,,,,,,,,,,,,,,,0,106,106,116,1,,,,,,,,,,,,,,,,,,,,,,,,
,,,,,,,,,,,,a,Incorrect,,,,,,t5.png,t3.png,2,0.0565,19,female,2020-09-16_13h34.07.703,torte-2b,2020.1.3,MacIntel,60,13230,0.617055,,,,,,,,,,,,,,,,,,,,,,,,,,,,,,,,,,,,,0,107,107,39,1,,,,,,,,,,,,,,,,,,,,,,,,
,,,,,,,,,,,,l,Correct!,,,,,,t4.png,t2.png,2,0.059078,19,female,2020-09-16_13h34.07.703,torte-2b,2020.1.3,MacIntel,60,13230,0.93457,,,,,,,,,,,,,,,,,,,,,,,,,,,,,,,,,,,,,0,108,108,109,1,,,,,,,,,,,,,,,,,,,,,,,,
,,,,,,,,,,,,a,Correct!,,,,,,t4.png,t5.png,1,0.9,19,female,2020-09-16_13h34.07.703,torte-2b,2020.1.3,MacIntel,60,13230,0.74853,,,,,,,,,,,,,,,,,,,,,,,,,,,,,,,,,,,,,0,109,109,115,1,,,,,,,,,,,,,,,,,,,,,,,,
,,,,,,,,,,,,a,Incorrect,,,,,,t3.png,t5.png,2,0.0565,19,female,2020-09-16_13h34.07.703,torte-2b,2020.1.3,MacIntel,60,13230,0.63272,,,,,,,,,,,,,,,,,,,,,,,,,,,,,,,,,,,,,0,110,110,30,1,,,,,,,,,,,,,,,,,,,,,,,,
,,,,,,,,,,,,a,Correct!,,,,,,t1.png,t2.png,1,0.90025,19,female,2020-09-16_13h34.07.703,torte-2b,2020.1.3,MacIntel,60,13230,0.62977,,,,,,,,,,,,,,,,,,,,,,,,,,,,,,,,,,,,,0,111,111,105,1,,,,,,,,,,,,,,,,,,,,,,,,
,,,,,,,,,,,,a,Correct!,,,,,,t1.png,t1.png,0,0.978,19,female,2020-09-16_13h34.07.703,torte-2b,2020.1.3,MacIntel,60,13230,0.54907,,,,,,,,,,,,,,,,,,,,,,,,,,,,,,,,,,,,,0,112,112,54,1,,,,,,,,,,,,,,,,,,,,,,,,
,,,,,,,,,,,,a,Incorrect,,,,,,t5.png,t2.png,3,0.0000131,19,female,2020-09-16_13h34.07.703,torte-2b,2020.1.3,MacIntel,60,13230,0.625875,,,,,,,,,,,,,,,,,,,,,,,,,,,,,,,,,,,,,0,113,113,98,1,,,,,,,,,,,,,,,,,,,,,,,,
,,,,,,,,,,,,l,Correct!,,,,,,t5.png,t1.png,4,9.55E-11,19,female,2020-09-16_13h34.07.703,torte-2b,2020.1.3,MacIntel,60,13230,0.71492,,,,,,,,,,,,,,,,,,,,,,,,,,,,,,,,,,,,,0,114,114,43,1,,,,,,,,,,,,,,,,,,,,,,,,
,,,,,,,,,,,,a,Correct!,,,,,,t1.png,t2.png,1,0.90025,19,female,2020-09-16_13h34.07.703,torte-2b,2020.1.3,MacIntel,60,13230,0.768815,,,,,,,,,,,,,,,,,,,,,,,,,,,,,,,,,,,,,0,115,115,33,1,,,,,,,,,,,,,,,,,,,,,,,,
,,,,,,,,,,,,l,Correct!,,,,,,t5.png,t1.png,4,9.55E-11,19,female,2020-09-16_13h34.07.703,torte-2b,2020.1.3,MacIntel,60,13230,0.66591,,,,,,,,,,,,,,,,,,,,,,,,,,,,,,,,,,,,,0,116,116,22,1,,,,,,,,,,,,,,,,,,,,,,,,
,,,,,,,,,,,,a,Correct!,,,,,,t2.png,t2.png,0,0.981,19,female,2020-09-16_13h34.07.703,torte-2b,2020.1.3,MacIntel,60,13230,0.63698,,,,,,,,,,,,,,,,,,,,,,,,,,,,,,,,,,,,,0,117,117,101,1,,,,,,,,,,,,,,,,,,,,,,,,
,,,,,,,,,,,,a,Correct!,,,,,,t5.png,t5.png,0,0.97829,19,female,2020-09-16_13h34.07.703,torte-2b,2020.1.3,MacIntel,60,13230,0.78692,,,,,,,,,,,,,,,,,,,,,,,,,,,,,,,,,,,,,0,118,118,94,1,,,,,,,,,,,,,,,,,,,,,,,,
,,,,,,,,,,,,a,Incorrect,,,,,,t1.png,t2.png,1,0.90025,19,female,2020-09-16_13h34.07.703,torte-2b,2020.1.3,MacIntel,60,13230,0.66615,,,,,,,,,,,,,,,,,,,,,,,,,,,,,,,,,,,,,0,119,119,72,1,,,,,,,,,,,,,,,,,,,,,,,,
,,,,,,,,,,,,,,,,,,,,,,,19,female,2020-09-16_13h34.07.703,torte-2b,2020.1.3,MacIntel,60,13230,,space,1.36401,,,,,,,,,,,,,,,,,,,,,,,,,,,,,,,,,,,,,,,,197.390625,-183.6679688,1,0,0,s7,160.0234375,30.49609375,1,0,0,t2,148.3398438,-99.88671875,1,0,0,proceed,space,7.380625,space,3.221255,space,1.07988
