key_resp_8.keys,key_resp_8.rt,key_resp_9.keys,key_resp_9.rt,key_resp_10.keys,key_resp_10.rt,key_resp_11.keys,key_resp_11.rt,key_resp_2.keys,key_resp_2.rt,key_resp_3.keys,key_resp_3.rt,key_resp.keys,key_resp.rt,Feedback,train.thisRepN,train.thisTrialN,train.thisN,train.thisIndex,train.ran,torta_sx,torta_dx,difference,probability,age,gender,date,expName,psychopyVersion,OS,frameRate,participant,key_resp_15.keys,key_resp_15.rt,key_resp_6.keys,key_resp_6.rt,test1.thisRepN,test1.thisTrialN,test1.thisN,test1.thisIndex,test1.ran,key_resp_4.keys,key_resp_4.rt,key_resp_5.keys,back1.thisRepN,back1.thisTrialN,back1.thisN,back1.thisIndex,back1.ran,letter,key_resp_5.rt,back2.thisRepN,back2.thisTrialN,back2.thisN,back2.thisIndex,back2.ran,back3.thisRepN,back3.thisTrialN,back3.thisN,back3.thisIndex,back3.ran,back4.thisRepN,back4.thisTrialN,back4.thisN,back4.thisIndex,back4.ran,key_resp_7.keys,key_resp_7.rt,test2.thisRepN,test2.thisTrialN,test2.thisN,test2.thisIndex,test2.ran,mouse.x,mouse.y,mouse.leftButton,mouse.midButton,mouse.rightButton,mouse.clicked_name,mouse_2.x,mouse_2.y,mouse_2.leftButton,mouse_2.midButton,mouse_2.rightButton,mouse_2.clicked_name,mouse_3.x,mouse_3.y,mouse_3.leftButton,mouse_3.midButton,mouse_3.rightButton,mouse_3.clicked_name,key_resp_12.keys,key_resp_12.rt,key_resp_13.keys,key_resp_13.rt,key_resp_14.keys,key_resp_14.rt
space,0.73289,space,0.43212,space,0.201105,space,1.609605,space,12.732175,space,45.42939,l,0.992515,Correct!,0,0,0,62,1,t1.png,t4.png,3,0.0000131,19,Female,2020-07-29_12h31.25.047,torte-2b,2020.1.3,Win32,60,13248,,,,,,,,,,,,,,,,,,,,,,,,,,,,,,,,,,,,,,,,,,,,,,,,,,,,,,,,,,,,,,,,,
,,,,,,,,,,,,l,0.697755,Correct!,0,1,1,89,1,t1.png,t5.png,4,9.55E-11,19,Female,2020-07-29_12h31.25.047,torte-2b,2020.1.3,Win32,60,13248,,,,,,,,,,,,,,,,,,,,,,,,,,,,,,,,,,,,,,,,,,,,,,,,,,,,,,,,,,,,,,,,,
,,,,,,,,,,,,l,0.500485,Correct!,0,2,2,26,1,t1.png,t5.png,4,9.55E-11,19,Female,2020-07-29_12h31.25.047,torte-2b,2020.1.3,Win32,60,13248,,,,,,,,,,,,,,,,,,,,,,,,,,,,,,,,,,,,,,,,,,,,,,,,,,,,,,,,,,,,,,,,,
,,,,,,,,,,,,a,1.323675,Correct!,0,3,3,93,1,t5.png,t4.png,1,0.90025,19,Female,2020-07-29_12h31.25.047,torte-2b,2020.1.3,Win32,60,13248,,,,,,,,,,,,,,,,,,,,,,,,,,,,,,,,,,,,,,,,,,,,,,,,,,,,,,,,,,,,,,,,,
,,,,,,,,,,,,a,0.60969,Incorrect,0,4,4,99,1,t4.png,t1.png,3,0.059078,19,Female,2020-07-29_12h31.25.047,torte-2b,2020.1.3,Win32,60,13248,,,,,,,,,,,,,,,,,,,,,,,,,,,,,,,,,,,,,,,,,,,,,,,,,,,,,,,,,,,,,,,,,
,,,,,,,,,,,,l,0.793635,Incorrect,0,5,5,15,1,t2.png,t3.png,1,0.90855,19,Female,2020-07-29_12h31.25.047,torte-2b,2020.1.3,Win32,60,13248,,,,,,,,,,,,,,,,,,,,,,,,,,,,,,,,,,,,,,,,,,,,,,,,,,,,,,,,,,,,,,,,,
,,,,,,,,,,,,a,1.242745,Correct!,0,6,6,85,1,t5.png,t4.png,1,0.90025,19,Female,2020-07-29_12h31.25.047,torte-2b,2020.1.3,Win32,60,13248,,,,,,,,,,,,,,,,,,,,,,,,,,,,,,,,,,,,,,,,,,,,,,,,,,,,,,,,,,,,,,,,,
,,,,,,,,,,,,l,1.691395,Incorrect,0,7,7,22,1,t5.png,t5.png,0,0.97829,19,Female,2020-07-29_12h31.25.047,torte-2b,2020.1.3,Win32,60,13248,,,,,,,,,,,,,,,,,,,,,,,,,,,,,,,,,,,,,,,,,,,,,,,,,,,,,,,,,,,,,,,,,
,,,,,,,,,,,,a,0.55691,Incorrect,0,8,8,76,1,t4.png,t1.png,3,0.059078,19,Female,2020-07-29_12h31.25.047,torte-2b,2020.1.3,Win32,60,13248,,,,,,,,,,,,,,,,,,,,,,,,,,,,,,,,,,,,,,,,,,,,,,,,,,,,,,,,,,,,,,,,,
,,,,,,,,,,,,a,0.467285,Incorrect,0,9,9,51,1,t4.png,t1.png,3,0.059078,19,Female,2020-07-29_12h31.25.047,torte-2b,2020.1.3,Win32,60,13248,,,,,,,,,,,,,,,,,,,,,,,,,,,,,,,,,,,,,,,,,,,,,,,,,,,,,,,,,,,,,,,,,
,,,,,,,,,,,,l,0.72729,Correct!,0,10,10,37,1,t2.png,t4.png,2,0.059078,19,Female,2020-07-29_12h31.25.047,torte-2b,2020.1.3,Win32,60,13248,,,,,,,,,,,,,,,,,,,,,,,,,,,,,,,,,,,,,,,,,,,,,,,,,,,,,,,,,,,,,,,,,
,,,,,,,,,,,,a,1.372215,Correct!,0,11,11,55,1,t1.png,t1.png,0,0.97829,19,Female,2020-07-29_12h31.25.047,torte-2b,2020.1.3,Win32,60,13248,,,,,,,,,,,,,,,,,,,,,,,,,,,,,,,,,,,,,,,,,,,,,,,,,,,,,,,,,,,,,,,,,
,,,,,,,,,,,,l,0.5241,Correct!,0,12,12,95,1,t1.png,t4.png,3,0.0000131,19,Female,2020-07-29_12h31.25.047,torte-2b,2020.1.3,Win32,60,13248,,,,,,,,,,,,,,,,,,,,,,,,,,,,,,,,,,,,,,,,,,,,,,,,,,,,,,,,,,,,,,,,,
,,,,,,,,,,,,l,0.842045,Incorrect,0,13,13,48,1,t2.png,t3.png,1,0.90855,19,Female,2020-07-29_12h31.25.047,torte-2b,2020.1.3,Win32,60,13248,,,,,,,,,,,,,,,,,,,,,,,,,,,,,,,,,,,,,,,,,,,,,,,,,,,,,,,,,,,,,,,,,
,,,,,,,,,,,,a,1.13236,Incorrect,0,14,14,78,1,t1.png,t4.png,3,0.0000131,19,Female,2020-07-29_12h31.25.047,torte-2b,2020.1.3,Win32,60,13248,,,,,,,,,,,,,,,,,,,,,,,,,,,,,,,,,,,,,,,,,,,,,,,,,,,,,,,,,,,,,,,,,
,,,,,,,,,,,,l,1.866355,Incorrect,0,15,15,8,1,t5.png,t5.png,0,0.97829,19,Female,2020-07-29_12h31.25.047,torte-2b,2020.1.3,Win32,60,13248,,,,,,,,,,,,,,,,,,,,,,,,,,,,,,,,,,,,,,,,,,,,,,,,,,,,,,,,,,,,,,,,,
,,,,,,,,,,,,a,1.193425,Correct!,0,16,16,20,1,t5.png,t5.png,0,0.97829,19,Female,2020-07-29_12h31.25.047,torte-2b,2020.1.3,Win32,60,13248,,,,,,,,,,,,,,,,,,,,,,,,,,,,,,,,,,,,,,,,,,,,,,,,,,,,,,,,,,,,,,,,,
,,,,,,,,,,,,a,0.865465,Incorrect,0,17,17,6,1,t5.png,t1.png,4,9.55E-11,19,Female,2020-07-29_12h31.25.047,torte-2b,2020.1.3,Win32,60,13248,,,,,,,,,,,,,,,,,,,,,,,,,,,,,,,,,,,,,,,,,,,,,,,,,,,,,,,,,,,,,,,,,
,,,,,,,,,,,,a,1.98182,Correct!,0,18,18,7,1,t3.png,t2.png,1,0.90855,19,Female,2020-07-29_12h31.25.047,torte-2b,2020.1.3,Win32,60,13248,,,,,,,,,,,,,,,,,,,,,,,,,,,,,,,,,,,,,,,,,,,,,,,,,,,,,,,,,,,,,,,,,
,,,,,,,,,,,,l,0.447595,Correct!,0,19,19,107,1,t1.png,t4.png,3,0.0000131,19,Female,2020-07-29_12h31.25.047,torte-2b,2020.1.3,Win32,60,13248,,,,,,,,,,,,,,,,,,,,,,,,,,,,,,,,,,,,,,,,,,,,,,,,,,,,,,,,,,,,,,,,,
,,,,,,,,,,,,l,0.525085,Correct!,0,20,20,39,1,t2.png,t4.png,2,0.059078,19,Female,2020-07-29_12h31.25.047,torte-2b,2020.1.3,Win32,60,13248,,,,,,,,,,,,,,,,,,,,,,,,,,,,,,,,,,,,,,,,,,,,,,,,,,,,,,,,,,,,,,,,,
,,,,,,,,,,,,a,0.988355,Correct!,0,21,21,97,1,t1.png,t1.png,0,0.97829,19,Female,2020-07-29_12h31.25.047,torte-2b,2020.1.3,Win32,60,13248,,,,,,,,,,,,,,,,,,,,,,,,,,,,,,,,,,,,,,,,,,,,,,,,,,,,,,,,,,,,,,,,,
,,,,,,,,,,,,a,0.52012,Incorrect,0,22,22,64,1,t5.png,t1.png,4,9.55E-11,19,Female,2020-07-29_12h31.25.047,torte-2b,2020.1.3,Win32,60,13248,,,,,,,,,,,,,,,,,,,,,,,,,,,,,,,,,,,,,,,,,,,,,,,,,,,,,,,,,,,,,,,,,
,,,,,,,,,,,,a,0.65159,Incorrect,0,23,23,3,1,t4.png,t1.png,3,0.059078,19,Female,2020-07-29_12h31.25.047,torte-2b,2020.1.3,Win32,60,13248,,,,,,,,,,,,,,,,,,,,,,,,,,,,,,,,,,,,,,,,,,,,,,,,,,,,,,,,,,,,,,,,,
,,,,,,,,,,,,a,0.453175,Incorrect,0,24,24,74,1,t5.png,t1.png,4,9.55E-11,19,Female,2020-07-29_12h31.25.047,torte-2b,2020.1.3,Win32,60,13248,,,,,,,,,,,,,,,,,,,,,,,,,,,,,,,,,,,,,,,,,,,,,,,,,,,,,,,,,,,,,,,,,
,,,,,,,,,,,,l,0.92915,Incorrect,0,25,25,45,1,t4.png,t5.png,1,0.90025,19,Female,2020-07-29_12h31.25.047,torte-2b,2020.1.3,Win32,60,13248,,,,,,,,,,,,,,,,,,,,,,,,,,,,,,,,,,,,,,,,,,,,,,,,,,,,,,,,,,,,,,,,,
,,,,,,,,,,,,a,0.84148,Correct!,0,26,26,101,1,t5.png,t4.png,1,0.90025,19,Female,2020-07-29_12h31.25.047,torte-2b,2020.1.3,Win32,60,13248,,,,,,,,,,,,,,,,,,,,,,,,,,,,,,,,,,,,,,,,,,,,,,,,,,,,,,,,,,,,,,,,,
,,,,,,,,,,,,l,0.87701,Incorrect,0,27,27,56,1,t2.png,t3.png,1,0.90855,19,Female,2020-07-29_12h31.25.047,torte-2b,2020.1.3,Win32,60,13248,,,,,,,,,,,,,,,,,,,,,,,,,,,,,,,,,,,,,,,,,,,,,,,,,,,,,,,,,,,,,,,,,
,,,,,,,,,,,,l,0.89353,Incorrect,0,28,28,47,1,t2.png,t3.png,1,0.90855,19,Female,2020-07-29_12h31.25.047,torte-2b,2020.1.3,Win32,60,13248,,,,,,,,,,,,,,,,,,,,,,,,,,,,,,,,,,,,,,,,,,,,,,,,,,,,,,,,,,,,,,,,,
,,,,,,,,,,,,l,0.487455,Correct!,0,29,29,50,1,t1.png,t5.png,4,9.55E-11,19,Female,2020-07-29_12h31.25.047,torte-2b,2020.1.3,Win32,60,13248,,,,,,,,,,,,,,,,,,,,,,,,,,,,,,,,,,,,,,,,,,,,,,,,,,,,,,,,,,,,,,,,,
,,,,,,,,,,,,l,0.79242,Correct!,0,30,30,68,1,t2.png,t4.png,2,0.059078,19,Female,2020-07-29_12h31.25.047,torte-2b,2020.1.3,Win32,60,13248,,,,,,,,,,,,,,,,,,,,,,,,,,,,,,,,,,,,,,,,,,,,,,,,,,,,,,,,,,,,,,,,,
,,,,,,,,,,,,a,0.537575,Incorrect,0,31,31,98,1,t5.png,t1.png,4,9.55E-11,19,Female,2020-07-29_12h31.25.047,torte-2b,2020.1.3,Win32,60,13248,,,,,,,,,,,,,,,,,,,,,,,,,,,,,,,,,,,,,,,,,,,,,,,,,,,,,,,,,,,,,,,,,
,,,,,,,,,,,,a,1.298315,Incorrect,0,32,32,80,1,t4.png,t1.png,3,0.059078,19,Female,2020-07-29_12h31.25.047,torte-2b,2020.1.3,Win32,60,13248,,,,,,,,,,,,,,,,,,,,,,,,,,,,,,,,,,,,,,,,,,,,,,,,,,,,,,,,,,,,,,,,,
,,,,,,,,,,,,a,0.550335,Incorrect,0,33,33,73,1,t3.png,t1.png,2,0.056466,19,Female,2020-07-29_12h31.25.047,torte-2b,2020.1.3,Win32,60,13248,,,,,,,,,,,,,,,,,,,,,,,,,,,,,,,,,,,,,,,,,,,,,,,,,,,,,,,,,,,,,,,,,
,,,,,,,,,,,,l,0.500415,Incorrect,0,34,34,30,1,t2.png,t3.png,1,0.90855,19,Female,2020-07-29_12h31.25.047,torte-2b,2020.1.3,Win32,60,13248,,,,,,,,,,,,,,,,,,,,,,,,,,,,,,,,,,,,,,,,,,,,,,,,,,,,,,,,,,,,,,,,,
,,,,,,,,,,,,l,0.65842,Correct!,0,35,35,82,1,t3.png,t1.png,2,0.056466,19,Female,2020-07-29_12h31.25.047,torte-2b,2020.1.3,Win32,60,13248,,,,,,,,,,,,,,,,,,,,,,,,,,,,,,,,,,,,,,,,,,,,,,,,,,,,,,,,,,,,,,,,,
,,,,,,,,,,,,a,0.619025,Incorrect,0,36,36,63,1,t1.png,t5.png,4,9.55E-11,19,Female,2020-07-29_12h31.25.047,torte-2b,2020.1.3,Win32,60,13248,,,,,,,,,,,,,,,,,,,,,,,,,,,,,,,,,,,,,,,,,,,,,,,,,,,,,,,,,,,,,,,,,
,,,,,,,,,,,,a,0.49204,Incorrect,0,37,37,43,1,t3.png,t1.png,2,0.056466,19,Female,2020-07-29_12h31.25.047,torte-2b,2020.1.3,Win32,60,13248,,,,,,,,,,,,,,,,,,,,,,,,,,,,,,,,,,,,,,,,,,,,,,,,,,,,,,,,,,,,,,,,,
,,,,,,,,,,,,l,1.16663,Correct!,0,38,38,70,1,t1.png,t5.png,4,9.55E-11,19,Female,2020-07-29_12h31.25.047,torte-2b,2020.1.3,Win32,60,13248,,,,,,,,,,,,,,,,,,,,,,,,,,,,,,,,,,,,,,,,,,,,,,,,,,,,,,,,,,,,,,,,,
,,,,,,,,,,,,l,1.740405,Incorrect,0,39,39,0,1,t3.png,t2.png,1,0.90855,19,Female,2020-07-29_12h31.25.047,torte-2b,2020.1.3,Win32,60,13248,,,,,,,,,,,,,,,,,,,,,,,,,,,,,,,,,,,,,,,,,,,,,,,,,,,,,,,,,,,,,,,,,
,,,,,,,,,,,,l,0.801205,Incorrect,0,40,40,14,1,t2.png,t3.png,1,0.90855,19,Female,2020-07-29_12h31.25.047,torte-2b,2020.1.3,Win32,60,13248,,,,,,,,,,,,,,,,,,,,,,,,,,,,,,,,,,,,,,,,,,,,,,,,,,,,,,,,,,,,,,,,,
,,,,,,,,,,,,l,0.52834,Correct!,0,41,41,27,1,t1.png,t5.png,4,9.55E-11,19,Female,2020-07-29_12h31.25.047,torte-2b,2020.1.3,Win32,60,13248,,,,,,,,,,,,,,,,,,,,,,,,,,,,,,,,,,,,,,,,,,,,,,,,,,,,,,,,,,,,,,,,,
,,,,,,,,,,,,a,0.527205,Incorrect,0,42,42,2,1,t3.png,t1.png,2,0.056466,19,Female,2020-07-29_12h31.25.047,torte-2b,2020.1.3,Win32,60,13248,,,,,,,,,,,,,,,,,,,,,,,,,,,,,,,,,,,,,,,,,,,,,,,,,,,,,,,,,,,,,,,,,
,,,,,,,,,,,,l,0.55301,Incorrect,0,43,43,52,1,t2.png,t3.png,1,0.90855,19,Female,2020-07-29_12h31.25.047,torte-2b,2020.1.3,Win32,60,13248,,,,,,,,,,,,,,,,,,,,,,,,,,,,,,,,,,,,,,,,,,,,,,,,,,,,,,,,,,,,,,,,,
,,,,,,,,,,,,a,0.42555,Incorrect,0,44,44,57,1,t3.png,t1.png,2,0.056466,19,Female,2020-07-29_12h31.25.047,torte-2b,2020.1.3,Win32,60,13248,,,,,,,,,,,,,,,,,,,,,,,,,,,,,,,,,,,,,,,,,,,,,,,,,,,,,,,,,,,,,,,,,
,,,,,,,,,,,,l,0.436555,Correct!,0,45,45,16,1,t1.png,t5.png,4,9.55E-11,19,Female,2020-07-29_12h31.25.047,torte-2b,2020.1.3,Win32,60,13248,,,,,,,,,,,,,,,,,,,,,,,,,,,,,,,,,,,,,,,,,,,,,,,,,,,,,,,,,,,,,,,,,
,,,,,,,,,,,,a,0.53417,Incorrect,0,46,46,92,1,t5.png,t1.png,4,9.55E-11,19,Female,2020-07-29_12h31.25.047,torte-2b,2020.1.3,Win32,60,13248,,,,,,,,,,,,,,,,,,,,,,,,,,,,,,,,,,,,,,,,,,,,,,,,,,,,,,,,,,,,,,,,,
,,,,,,,,,,,,a,0.49868,Incorrect,0,47,47,49,1,t5.png,t1.png,4,9.55E-11,19,Female,2020-07-29_12h31.25.047,torte-2b,2020.1.3,Win32,60,13248,,,,,,,,,,,,,,,,,,,,,,,,,,,,,,,,,,,,,,,,,,,,,,,,,,,,,,,,,,,,,,,,,
,,,,,,,,,,,,a,0.470485,Correct!,0,48,48,32,1,t3.png,t2.png,1,0.90855,19,Female,2020-07-29_12h31.25.047,torte-2b,2020.1.3,Win32,60,13248,,,,,,,,,,,,,,,,,,,,,,,,,,,,,,,,,,,,,,,,,,,,,,,,,,,,,,,,,,,,,,,,,
,,,,,,,,,,,,a,0.393125,Incorrect,0,49,49,66,1,t5.png,t1.png,4,9.55E-11,19,Female,2020-07-29_12h31.25.047,torte-2b,2020.1.3,Win32,60,13248,,,,,,,,,,,,,,,,,,,,,,,,,,,,,,,,,,,,,,,,,,,,,,,,,,,,,,,,,,,,,,,,,
,,,,,,,,,,,,a,1.63278,Correct!,0,50,50,114,1,t5.png,t4.png,1,0.90025,19,Female,2020-07-29_12h31.25.047,torte-2b,2020.1.3,Win32,60,13248,,,,,,,,,,,,,,,,,,,,,,,,,,,,,,,,,,,,,,,,,,,,,,,,,,,,,,,,,,,,,,,,,
,,,,,,,,,,,,a,1.27434,Correct!,0,51,51,112,1,t5.png,t4.png,1,0.90025,19,Female,2020-07-29_12h31.25.047,torte-2b,2020.1.3,Win32,60,13248,,,,,,,,,,,,,,,,,,,,,,,,,,,,,,,,,,,,,,,,,,,,,,,,,,,,,,,,,,,,,,,,,
,,,,,,,,,,,,a,1.238985,Correct!,0,52,52,100,1,t3.png,t2.png,1,0.90855,19,Female,2020-07-29_12h31.25.047,torte-2b,2020.1.3,Win32,60,13248,,,,,,,,,,,,,,,,,,,,,,,,,,,,,,,,,,,,,,,,,,,,,,,,,,,,,,,,,,,,,,,,,
,,,,,,,,,,,,l,0.710745,Incorrect,0,53,53,41,1,t4.png,t5.png,1,0.90025,19,Female,2020-07-29_12h31.25.047,torte-2b,2020.1.3,Win32,60,13248,,,,,,,,,,,,,,,,,,,,,,,,,,,,,,,,,,,,,,,,,,,,,,,,,,,,,,,,,,,,,,,,,
,,,,,,,,,,,,l,0.62138,Incorrect,0,54,54,71,1,t4.png,t5.png,1,0.90025,19,Female,2020-07-29_12h31.25.047,torte-2b,2020.1.3,Win32,60,13248,,,,,,,,,,,,,,,,,,,,,,,,,,,,,,,,,,,,,,,,,,,,,,,,,,,,,,,,,,,,,,,,,
,,,,,,,,,,,,l,0.565705,Correct!,0,55,55,9,1,t1.png,t5.png,4,9.55E-11,19,Female,2020-07-29_12h31.25.047,torte-2b,2020.1.3,Win32,60,13248,,,,,,,,,,,,,,,,,,,,,,,,,,,,,,,,,,,,,,,,,,,,,,,,,,,,,,,,,,,,,,,,,
,,,,,,,,,,,,a,0.883195,Incorrect,0,56,56,113,1,t5.png,t1.png,4,9.55E-11,19,Female,2020-07-29_12h31.25.047,torte-2b,2020.1.3,Win32,60,13248,,,,,,,,,,,,,,,,,,,,,,,,,,,,,,,,,,,,,,,,,,,,,,,,,,,,,,,,,,,,,,,,,
,,,,,,,,,,,,l,0.48181,Correct!,0,57,57,44,1,t1.png,t4.png,3,0.0000131,19,Female,2020-07-29_12h31.25.047,torte-2b,2020.1.3,Win32,60,13248,,,,,,,,,,,,,,,,,,,,,,,,,,,,,,,,,,,,,,,,,,,,,,,,,,,,,,,,,,,,,,,,,
,,,,,,,,,,,,a,1.26624,Correct!,0,58,58,21,1,t5.png,t4.png,1,0.90025,19,Female,2020-07-29_12h31.25.047,torte-2b,2020.1.3,Win32,60,13248,,,,,,,,,,,,,,,,,,,,,,,,,,,,,,,,,,,,,,,,,,,,,,,,,,,,,,,,,,,,,,,,,
,,,,,,,,,,,,l,0.82933,Correct!,0,59,59,35,1,t1.png,t4.png,3,0.0000131,19,Female,2020-07-29_12h31.25.047,torte-2b,2020.1.3,Win32,60,13248,,,,,,,,,,,,,,,,,,,,,,,,,,,,,,,,,,,,,,,,,,,,,,,,,,,,,,,,,,,,,,,,,
,,,,,,,,,,,,a,0.921,Correct!,0,60,60,33,1,t3.png,t2.png,1,0.90855,19,Female,2020-07-29_12h31.25.047,torte-2b,2020.1.3,Win32,60,13248,,,,,,,,,,,,,,,,,,,,,,,,,,,,,,,,,,,,,,,,,,,,,,,,,,,,,,,,,,,,,,,,,
,,,,,,,,,,,,l,0.936485,Incorrect,0,61,61,19,1,t2.png,t4.png,2,0.059078,19,Female,2020-07-29_12h31.25.047,torte-2b,2020.1.3,Win32,60,13248,,,,,,,,,,,,,,,,,,,,,,,,,,,,,,,,,,,,,,,,,,,,,,,,,,,,,,,,,,,,,,,,,
,,,,,,,,,,,,l,0.873605,Correct!,0,62,62,115,1,t2.png,t4.png,2,0.059078,19,Female,2020-07-29_12h31.25.047,torte-2b,2020.1.3,Win32,60,13248,,,,,,,,,,,,,,,,,,,,,,,,,,,,,,,,,,,,,,,,,,,,,,,,,,,,,,,,,,,,,,,,,
,,,,,,,,,,,,l,0.842375,Incorrect,0,63,63,58,1,t4.png,t5.png,1,0.90025,19,Female,2020-07-29_12h31.25.047,torte-2b,2020.1.3,Win32,60,13248,,,,,,,,,,,,,,,,,,,,,,,,,,,,,,,,,,,,,,,,,,,,,,,,,,,,,,,,,,,,,,,,,
,,,,,,,,,,,,l,1.151315,Incorrect,0,64,64,23,1,t4.png,t5.png,1,0.90025,19,Female,2020-07-29_12h31.25.047,torte-2b,2020.1.3,Win32,60,13248,,,,,,,,,,,,,,,,,,,,,,,,,,,,,,,,,,,,,,,,,,,,,,,,,,,,,,,,,,,,,,,,,
,,,,,,,,,,,,l,0.824995,Correct!,0,65,65,34,1,t1.png,t5.png,4,9.55E-11,19,Female,2020-07-29_12h31.25.047,torte-2b,2020.1.3,Win32,60,13248,,,,,,,,,,,,,,,,,,,,,,,,,,,,,,,,,,,,,,,,,,,,,,,,,,,,,,,,,,,,,,,,,
,,,,,,,,,,,,l,1.036245,Incorrect,0,66,66,90,1,t4.png,t5.png,1,0.90025,19,Female,2020-07-29_12h31.25.047,torte-2b,2020.1.3,Win32,60,13248,,,,,,,,,,,,,,,,,,,,,,,,,,,,,,,,,,,,,,,,,,,,,,,,,,,,,,,,,,,,,,,,,
,,,,,,,,,,,,a,1.03911,Correct!,0,67,67,86,1,t5.png,t4.png,1,0.90025,19,Female,2020-07-29_12h31.25.047,torte-2b,2020.1.3,Win32,60,13248,,,,,,,,,,,,,,,,,,,,,,,,,,,,,,,,,,,,,,,,,,,,,,,,,,,,,,,,,,,,,,,,,
,,,,,,,,,,,,l,0.98211,Incorrect,0,68,68,75,1,t2.png,t3.png,1,0.90855,19,Female,2020-07-29_12h31.25.047,torte-2b,2020.1.3,Win32,60,13248,,,,,,,,,,,,,,,,,,,,,,,,,,,,,,,,,,,,,,,,,,,,,,,,,,,,,,,,,,,,,,,,,
,,,,,,,,,,,,a,0.91831,Incorrect,0,69,69,59,1,t5.png,t1.png,4,9.55E-11,19,Female,2020-07-29_12h31.25.047,torte-2b,2020.1.3,Win32,60,13248,,,,,,,,,,,,,,,,,,,,,,,,,,,,,,,,,,,,,,,,,,,,,,,,,,,,,,,,,,,,,,,,,
,,,,,,,,,,,,l,0.88159,Correct!,0,70,70,102,1,t2.png,t4.png,2,0.059078,19,Female,2020-07-29_12h31.25.047,torte-2b,2020.1.3,Win32,60,13248,,,,,,,,,,,,,,,,,,,,,,,,,,,,,,,,,,,,,,,,,,,,,,,,,,,,,,,,,,,,,,,,,
,,,,,,,,,,,,l,0.942595,Correct!,0,71,71,28,1,t1.png,t4.png,3,0.0000131,19,Female,2020-07-29_12h31.25.047,torte-2b,2020.1.3,Win32,60,13248,,,,,,,,,,,,,,,,,,,,,,,,,,,,,,,,,,,,,,,,,,,,,,,,,,,,,,,,,,,,,,,,,
,,,,,,,,,,,,a,0.85577,Incorrect,0,72,72,87,1,t5.png,t1.png,4,9.55E-11,19,Female,2020-07-29_12h31.25.047,torte-2b,2020.1.3,Win32,60,13248,,,,,,,,,,,,,,,,,,,,,,,,,,,,,,,,,,,,,,,,,,,,,,,,,,,,,,,,,,,,,,,,,
,,,,,,,,,,,,a,1.13138,Correct!,0,73,73,5,1,t5.png,t5.png,0,0.97829,19,Female,2020-07-29_12h31.25.047,torte-2b,2020.1.3,Win32,60,13248,,,,,,,,,,,,,,,,,,,,,,,,,,,,,,,,,,,,,,,,,,,,,,,,,,,,,,,,,,,,,,,,,
,,,,,,,,,,,,a,0.93904,Incorrect,0,74,74,10,1,t4.png,t1.png,3,0.059078,19,Female,2020-07-29_12h31.25.047,torte-2b,2020.1.3,Win32,60,13248,,,,,,,,,,,,,,,,,,,,,,,,,,,,,,,,,,,,,,,,,,,,,,,,,,,,,,,,,,,,,,,,,
,,,,,,,,,,,,a,0.882555,Incorrect,0,75,75,83,1,t3.png,t2.png,1,0.90855,19,Female,2020-07-29_12h31.25.047,torte-2b,2020.1.3,Win32,60,13248,,,,,,,,,,,,,,,,,,,,,,,,,,,,,,,,,,,,,,,,,,,,,,,,,,,,,,,,,,,,,,,,,
,,,,,,,,,,,,a,1.129,Correct!,0,76,76,65,1,t5.png,t5.png,0,0.97829,19,Female,2020-07-29_12h31.25.047,torte-2b,2020.1.3,Win32,60,13248,,,,,,,,,,,,,,,,,,,,,,,,,,,,,,,,,,,,,,,,,,,,,,,,,,,,,,,,,,,,,,,,,
,,,,,,,,,,,,l,1.801505,Incorrect,0,77,77,53,1,t1.png,t1.png,0,0.97829,19,Female,2020-07-29_12h31.25.047,torte-2b,2020.1.3,Win32,60,13248,,,,,,,,,,,,,,,,,,,,,,,,,,,,,,,,,,,,,,,,,,,,,,,,,,,,,,,,,,,,,,,,,
,,,,,,,,,,,,l,0.861825,Correct!,0,78,78,96,1,t2.png,t4.png,2,0.059078,19,Female,2020-07-29_12h31.25.047,torte-2b,2020.1.3,Win32,60,13248,,,,,,,,,,,,,,,,,,,,,,,,,,,,,,,,,,,,,,,,,,,,,,,,,,,,,,,,,,,,,,,,,
,,,,,,,,,,,,l,0.650675,Correct!,0,79,79,11,1,t1.png,t4.png,3,0.0000131,19,Female,2020-07-29_12h31.25.047,torte-2b,2020.1.3,Win32,60,13248,,,,,,,,,,,,,,,,,,,,,,,,,,,,,,,,,,,,,,,,,,,,,,,,,,,,,,,,,,,,,,,,,
,,,,,,,,,,,,l,0.84152,Incorrect,0,80,80,18,1,t2.png,t3.png,1,0.90855,19,Female,2020-07-29_12h31.25.047,torte-2b,2020.1.3,Win32,60,13248,,,,,,,,,,,,,,,,,,,,,,,,,,,,,,,,,,,,,,,,,,,,,,,,,,,,,,,,,,,,,,,,,
,,,,,,,,,,,,l,0.90844,Incorrect,0,81,81,111,1,t1.png,t1.png,0,0.97829,19,Female,2020-07-29_12h31.25.047,torte-2b,2020.1.3,Win32,60,13248,,,,,,,,,,,,,,,,,,,,,,,,,,,,,,,,,,,,,,,,,,,,,,,,,,,,,,,,,,,,,,,,,
,,,,,,,,,,,,a,0.899385,Incorrect,0,82,82,105,1,t4.png,t1.png,3,0.059078,19,Female,2020-07-29_12h31.25.047,torte-2b,2020.1.3,Win32,60,13248,,,,,,,,,,,,,,,,,,,,,,,,,,,,,,,,,,,,,,,,,,,,,,,,,,,,,,,,,,,,,,,,,
,,,,,,,,,,,,l,0.936045,Incorrect,0,83,83,84,1,t2.png,t3.png,1,0.90855,19,Female,2020-07-29_12h31.25.047,torte-2b,2020.1.3,Win32,60,13248,,,,,,,,,,,,,,,,,,,,,,,,,,,,,,,,,,,,,,,,,,,,,,,,,,,,,,,,,,,,,,,,,
,,,,,,,,,,,,a,0.847995,Incorrect,0,84,84,94,1,t3.png,t1.png,2,0.056466,19,Female,2020-07-29_12h31.25.047,torte-2b,2020.1.3,Win32,60,13248,,,,,,,,,,,,,,,,,,,,,,,,,,,,,,,,,,,,,,,,,,,,,,,,,,,,,,,,,,,,,,,,,
,,,,,,,,,,,,,,Too slow :(,0,85,85,72,1,t5.png,t5.png,0,0.97829,19,Female,2020-07-29_12h31.25.047,torte-2b,2020.1.3,Win32,60,13248,,,,,,,,,,,,,,,,,,,,,,,,,,,,,,,,,,,,,,,,,,,,,,,,,,,,,,,,,,,,,,,,,
,,,,,,,,,,,,l,0.8423,Correct!,0,86,86,79,1,t1.png,t4.png,3,0.0000131,19,Female,2020-07-29_12h31.25.047,torte-2b,2020.1.3,Win32,60,13248,,,,,,,,,,,,,,,,,,,,,,,,,,,,,,,,,,,,,,,,,,,,,,,,,,,,,,,,,,,,,,,,,
,,,,,,,,,,,,l,0.75164,Correct!,0,87,87,117,1,t2.png,t4.png,2,0.059078,19,Female,2020-07-29_12h31.25.047,torte-2b,2020.1.3,Win32,60,13248,,,,,,,,,,,,,,,,,,,,,,,,,,,,,,,,,,,,,,,,,,,,,,,,,,,,,,,,,,,,,,,,,
,,,,,,,,,,,,a,1.099385,Correct!,0,88,88,67,1,t3.png,t2.png,1,0.90855,19,Female,2020-07-29_12h31.25.047,torte-2b,2020.1.3,Win32,60,13248,,,,,,,,,,,,,,,,,,,,,,,,,,,,,,,,,,,,,,,,,,,,,,,,,,,,,,,,,,,,,,,,,
,,,,,,,,,,,,l,1.217215,Incorrect,0,89,89,116,1,t4.png,t5.png,1,0.90025,19,Female,2020-07-29_12h31.25.047,torte-2b,2020.1.3,Win32,60,13248,,,,,,,,,,,,,,,,,,,,,,,,,,,,,,,,,,,,,,,,,,,,,,,,,,,,,,,,,,,,,,,,,
,,,,,,,,,,,,a,0.995845,Incorrect,0,90,90,108,1,t3.png,t1.png,2,0.056466,19,Female,2020-07-29_12h31.25.047,torte-2b,2020.1.3,Win32,60,13248,,,,,,,,,,,,,,,,,,,,,,,,,,,,,,,,,,,,,,,,,,,,,,,,,,,,,,,,,,,,,,,,,
,,,,,,,,,,,,l,2.053535,Incorrect,0,91,91,42,1,t5.png,t5.png,0,0.97829,19,Female,2020-07-29_12h31.25.047,torte-2b,2020.1.3,Win32,60,13248,,,,,,,,,,,,,,,,,,,,,,,,,,,,,,,,,,,,,,,,,,,,,,,,,,,,,,,,,,,,,,,,,
,,,,,,,,,,,,a,1.050395,Correct!,0,92,92,91,1,t5.png,t4.png,1,0.90025,19,Female,2020-07-29_12h31.25.047,torte-2b,2020.1.3,Win32,60,13248,,,,,,,,,,,,,,,,,,,,,,,,,,,,,,,,,,,,,,,,,,,,,,,,,,,,,,,,,,,,,,,,,
,,,,,,,,,,,,l,0.774865,Incorrect,0,93,93,31,1,t1.png,t1.png,0,0.97829,19,Female,2020-07-29_12h31.25.047,torte-2b,2020.1.3,Win32,60,13248,,,,,,,,,,,,,,,,,,,,,,,,,,,,,,,,,,,,,,,,,,,,,,,,,,,,,,,,,,,,,,,,,
,,,,,,,,,,,,a,1.432475,Correct!,0,94,94,88,1,t1.png,t1.png,0,0.97829,19,Female,2020-07-29_12h31.25.047,torte-2b,2020.1.3,Win32,60,13248,,,,,,,,,,,,,,,,,,,,,,,,,,,,,,,,,,,,,,,,,,,,,,,,,,,,,,,,,,,,,,,,,
,,,,,,,,,,,,a,1.19354,Correct!,0,95,95,61,1,t1.png,t1.png,0,0.97829,19,Female,2020-07-29_12h31.25.047,torte-2b,2020.1.3,Win32,60,13248,,,,,,,,,,,,,,,,,,,,,,,,,,,,,,,,,,,,,,,,,,,,,,,,,,,,,,,,,,,,,,,,,
,,,,,,,,,,,,a,0.76628,Correct!,0,96,96,46,1,t1.png,t1.png,0,0.97829,19,Female,2020-07-29_12h31.25.047,torte-2b,2020.1.3,Win32,60,13248,,,,,,,,,,,,,,,,,,,,,,,,,,,,,,,,,,,,,,,,,,,,,,,,,,,,,,,,,,,,,,,,,
,,,,,,,,,,,,,,Too slow :(,0,97,97,77,1,t3.png,t2.png,1,0.90855,19,Female,2020-07-29_12h31.25.047,torte-2b,2020.1.3,Win32,60,13248,,,,,,,,,,,,,,,,,,,,,,,,,,,,,,,,,,,,,,,,,,,,,,,,,,,,,,,,,,,,,,,,,
,,,,,,,,,,,,a,0.966465,Correct!,0,98,98,119,1,t5.png,t4.png,1,0.90025,19,Female,2020-07-29_12h31.25.047,torte-2b,2020.1.3,Win32,60,13248,,,,,,,,,,,,,,,,,,,,,,,,,,,,,,,,,,,,,,,,,,,,,,,,,,,,,,,,,,,,,,,,,
,,,,,,,,,,,,a,1.208995,Correct!,0,99,99,69,1,t5.png,t4.png,1,0.90025,19,Female,2020-07-29_12h31.25.047,torte-2b,2020.1.3,Win32,60,13248,,,,,,,,,,,,,,,,,,,,,,,,,,,,,,,,,,,,,,,,,,,,,,,,,,,,,,,,,,,,,,,,,
,,,,,,,,,,,,l,0.63427,Correct!,0,100,100,110,1,t4.png,t5.png,1,0.90025,19,Female,2020-07-29_12h31.25.047,torte-2b,2020.1.3,Win32,60,13248,,,,,,,,,,,,,,,,,,,,,,,,,,,,,,,,,,,,,,,,,,,,,,,,,,,,,,,,,,,,,,,,,
,,,,,,,,,,,,a,0.655795,Correct!,0,101,101,25,1,t1.png,t1.png,0,0.97829,19,Female,2020-07-29_12h31.25.047,torte-2b,2020.1.3,Win32,60,13248,,,,,,,,,,,,,,,,,,,,,,,,,,,,,,,,,,,,,,,,,,,,,,,,,,,,,,,,,,,,,,,,,
,,,,,,,,,,,,a,1.285965,Correct!,0,102,102,29,1,t3.png,t2.png,1,0.90855,19,Female,2020-07-29_12h31.25.047,torte-2b,2020.1.3,Win32,60,13248,,,,,,,,,,,,,,,,,,,,,,,,,,,,,,,,,,,,,,,,,,,,,,,,,,,,,,,,,,,,,,,,,
,,,,,,,,,,,,l,0.891735,Incorrect,0,103,103,104,1,t4.png,t5.png,1,0.90025,19,Female,2020-07-29_12h31.25.047,torte-2b,2020.1.3,Win32,60,13248,,,,,,,,,,,,,,,,,,,,,,,,,,,,,,,,,,,,,,,,,,,,,,,,,,,,,,,,,,,,,,,,,
,,,,,,,,,,,,a,1.06605,Incorrect,0,104,104,17,1,t4.png,t1.png,3,0.059078,19,Female,2020-07-29_12h31.25.047,torte-2b,2020.1.3,Win32,60,13248,,,,,,,,,,,,,,,,,,,,,,,,,,,,,,,,,,,,,,,,,,,,,,,,,,,,,,,,,,,,,,,,,
,,,,,,,,,,,,a,1.04324,Incorrect,0,105,105,54,1,t3.png,t1.png,2,0.056466,19,Female,2020-07-29_12h31.25.047,torte-2b,2020.1.3,Win32,60,13248,,,,,,,,,,,,,,,,,,,,,,,,,,,,,,,,,,,,,,,,,,,,,,,,,,,,,,,,,,,,,,,,,
,,,,,,,,,,,,l,0.84454,Correct!,0,106,106,103,1,t4.png,t1.png,3,0.059078,19,Female,2020-07-29_12h31.25.047,torte-2b,2020.1.3,Win32,60,13248,,,,,,,,,,,,,,,,,,,,,,,,,,,,,,,,,,,,,,,,,,,,,,,,,,,,,,,,,,,,,,,,,
,,,,,,,,,,,,l,1.73267,Correct!,0,107,107,13,1,t2.png,t4.png,2,0.059078,19,Female,2020-07-29_12h31.25.047,torte-2b,2020.1.3,Win32,60,13248,,,,,,,,,,,,,,,,,,,,,,,,,,,,,,,,,,,,,,,,,,,,,,,,,,,,,,,,,,,,,,,,,
,,,,,,,,,,,,a,2.25023,Correct!,0,108,108,60,1,t4.png,t5.png,1,0.90025,19,Female,2020-07-29_12h31.25.047,torte-2b,2020.1.3,Win32,60,13248,,,,,,,,,,,,,,,,,,,,,,,,,,,,,,,,,,,,,,,,,,,,,,,,,,,,,,,,,,,,,,,,,
,,,,,,,,,,,,,,Too slow :(,0,109,109,24,1,t5.png,t5.png,0,0.97829,19,Female,2020-07-29_12h31.25.047,torte-2b,2020.1.3,Win32,60,13248,,,,,,,,,,,,,,,,,,,,,,,,,,,,,,,,,,,,,,,,,,,,,,,,,,,,,,,,,,,,,,,,,
,,,,,,,,,,,,a,0.85415,Correct!,0,110,110,12,1,t5.png,t5.png,0,0.97829,19,Female,2020-07-29_12h31.25.047,torte-2b,2020.1.3,Win32,60,13248,,,,,,,,,,,,,,,,,,,,,,,,,,,,,,,,,,,,,,,,,,,,,,,,,,,,,,,,,,,,,,,,,
,,,,,,,,,,,,l,1.349695,Correct!,0,111,111,40,1,t2.png,t4.png,2,0.059078,19,Female,2020-07-29_12h31.25.047,torte-2b,2020.1.3,Win32,60,13248,,,,,,,,,,,,,,,,,,,,,,,,,,,,,,,,,,,,,,,,,,,,,,,,,,,,,,,,,,,,,,,,,
,,,,,,,,,,,,a,1.774535,Incorrect,0,112,112,118,1,t1.png,t5.png,4,9.55E-11,19,Female,2020-07-29_12h31.25.047,torte-2b,2020.1.3,Win32,60,13248,,,,,,,,,,,,,,,,,,,,,,,,,,,,,,,,,,,,,,,,,,,,,,,,,,,,,,,,,,,,,,,,,
,,,,,,,,,,,,l,1.469795,Incorrect,0,113,113,109,1,t5.png,t5.png,0,0.97829,19,Female,2020-07-29_12h31.25.047,torte-2b,2020.1.3,Win32,60,13248,,,,,,,,,,,,,,,,,,,,,,,,,,,,,,,,,,,,,,,,,,,,,,,,,,,,,,,,,,,,,,,,,
,,,,,,,,,,,,a,1.453855,Incorrect,0,114,114,1,1,t3.png,t1.png,2,0.056466,19,Female,2020-07-29_12h31.25.047,torte-2b,2020.1.3,Win32,60,13248,,,,,,,,,,,,,,,,,,,,,,,,,,,,,,,,,,,,,,,,,,,,,,,,,,,,,,,,,,,,,,,,,
,,,,,,,,,,,,l,1.0169,Incorrect,0,115,115,4,1,t3.png,t2.png,1,0.90855,19,Female,2020-07-29_12h31.25.047,torte-2b,2020.1.3,Win32,60,13248,,,,,,,,,,,,,,,,,,,,,,,,,,,,,,,,,,,,,,,,,,,,,,,,,,,,,,,,,,,,,,,,,
,,,,,,,,,,,,a,1.2853,Correct!,0,116,116,38,1,t1.png,t1.png,0,0.97829,19,Female,2020-07-29_12h31.25.047,torte-2b,2020.1.3,Win32,60,13248,,,,,,,,,,,,,,,,,,,,,,,,,,,,,,,,,,,,,,,,,,,,,,,,,,,,,,,,,,,,,,,,,
,,,,,,,,,,,,l,1.79287,Correct!,0,117,117,106,1,t4.png,t1.png,3,0.059078,19,Female,2020-07-29_12h31.25.047,torte-2b,2020.1.3,Win32,60,13248,,,,,,,,,,,,,,,,,,,,,,,,,,,,,,,,,,,,,,,,,,,,,,,,,,,,,,,,,,,,,,,,,
,,,,,,,,,,,,a,1.172435,Incorrect,0,118,118,81,1,t3.png,t1.png,2,0.056466,19,Female,2020-07-29_12h31.25.047,torte-2b,2020.1.3,Win32,60,13248,,,,,,,,,,,,,,,,,,,,,,,,,,,,,,,,,,,,,,,,,,,,,,,,,,,,,,,,,,,,,,,,,
,,,,,,,,,,,,a,2.10063,Incorrect,0,119,119,36,1,t1.png,t4.png,3,0.0000131,19,Female,2020-07-29_12h31.25.047,torte-2b,2020.1.3,Win32,60,13248,,,,,,,,,,,,,,,,,,,,,,,,,,,,,,,,,,,,,,,,,,,,,,,,,,,,,,,,,,,,,,,,,
,,,,,,,,,,,,l,2.451765,Incorrect,,,,,,t2.png,t3.png,1,0.90855,19,Female,2020-07-29_12h31.25.047,torte-2b,2020.1.3,Win32,60,13248,space,2.23748,space,42.565495,0,0,0,70,1,,,,,,,,,,,,,,,,,,,,,,,,,,,,,,,,,,,,,,,,,,,,,,,,,,,,,,,,
,,,,,,,,,,,,a,1.54965,Incorrect,,,,,,t5.png,t3.png,2,0.0565,19,Female,2020-07-29_12h31.25.047,torte-2b,2020.1.3,Win32,60,13248,,,,,0,1,1,50,1,,,,,,,,,,,,,,,,,,,,,,,,,,,,,,,,,,,,,,,,,,,,,,,,,,,,,,,,
,,,,,,,,,,,,a,1.20537,Incorrect,,,,,,t5.png,t1.png,4,9.55E-11,19,Female,2020-07-29_12h31.25.047,torte-2b,2020.1.3,Win32,60,13248,,,,,0,2,2,31,1,,,,,,,,,,,,,,,,,,,,,,,,,,,,,,,,,,,,,,,,,,,,,,,,,,,,,,,,
,,,,,,,,,,,,a,1.930935,Incorrect,,,,,,t1.png,t4.png,3,0.0000131,19,Female,2020-07-29_12h31.25.047,torte-2b,2020.1.3,Win32,60,13248,,,,,0,3,3,74,1,,,,,,,,,,,,,,,,,,,,,,,,,,,,,,,,,,,,,,,,,,,,,,,,,,,,,,,,
,,,,,,,,,,,,l,1.87377,Correct!,,,,,,t2.png,t4.png,2,0.059078,19,Female,2020-07-29_12h31.25.047,torte-2b,2020.1.3,Win32,60,13248,,,,,0,4,4,18,1,,,,,,,,,,,,,,,,,,,,,,,,,,,,,,,,,,,,,,,,,,,,,,,,,,,,,,,,
,,,,,,,,,,,,a,1.634975,Incorrect,,,,,,t3.png,t1.png,2,0.056466,19,Female,2020-07-29_12h31.25.047,torte-2b,2020.1.3,Win32,60,13248,,,,,0,5,5,72,1,,,,,,,,,,,,,,,,,,,,,,,,,,,,,,,,,,,,,,,,,,,,,,,,,,,,,,,,
,,,,,,,,,,,,a,1.60828,Incorrect,,,,,,t2.png,t5.png,3,0.0000131,19,Female,2020-07-29_12h31.25.047,torte-2b,2020.1.3,Win32,60,13248,,,,,0,6,6,39,1,,,,,,,,,,,,,,,,,,,,,,,,,,,,,,,,,,,,,,,,,,,,,,,,,,,,,,,,
,,,,,,,,,,,,,,Too slow :(,,,,,,t5.png,t5.png,0,0.97829,19,Female,2020-07-29_12h31.25.047,torte-2b,2020.1.3,Win32,60,13248,,,,,0,7,7,35,1,,,,,,,,,,,,,,,,,,,,,,,,,,,,,,,,,,,,,,,,,,,,,,,,,,,,,,,,
,,,,,,,,,,,,l,1.393185,Correct!,,,,,,t1.png,t4.png,3,0.0000131,19,Female,2020-07-29_12h31.25.047,torte-2b,2020.1.3,Win32,60,13248,,,,,0,8,8,36,1,,,,,,,,,,,,,,,,,,,,,,,,,,,,,,,,,,,,,,,,,,,,,,,,,,,,,,,,
,,,,,,,,,,,,l,1.337305,Correct!,,,,,,t1.png,t3.png,2,0.056466,19,Female,2020-07-29_12h31.25.047,torte-2b,2020.1.3,Win32,60,13248,,,,,0,9,9,32,1,,,,,,,,,,,,,,,,,,,,,,,,,,,,,,,,,,,,,,,,,,,,,,,,,,,,,,,,
,,,,,,,,,,,,a,1.28996,Incorrect,,,,,,t3.png,t1.png,2,0.0565,19,Female,2020-07-29_12h31.25.047,torte-2b,2020.1.3,Win32,60,13248,,,,,0,10,10,104,1,,,,,,,,,,,,,,,,,,,,,,,,,,,,,,,,,,,,,,,,,,,,,,,,,,,,,,,,
,,,,,,,,,,,,,,Too slow :(,,,,,,t2.png,t2.png,0,0.98115,19,Female,2020-07-29_12h31.25.047,torte-2b,2020.1.3,Win32,60,13248,,,,,0,11,11,90,1,,,,,,,,,,,,,,,,,,,,,,,,,,,,,,,,,,,,,,,,,,,,,,,,,,,,,,,,
,,,,,,,,,,,,l,1.320565,Correct!,,,,,,t1.png,t5.png,4,9.55E-11,19,Female,2020-07-29_12h31.25.047,torte-2b,2020.1.3,Win32,60,13248,,,,,0,12,12,1,1,,,,,,,,,,,,,,,,,,,,,,,,,,,,,,,,,,,,,,,,,,,,,,,,,,,,,,,,
,,,,,,,,,,,,a,1.51458,Incorrect,,,,,,t3.png,t5.png,2,0.056466,19,Female,2020-07-29_12h31.25.047,torte-2b,2020.1.3,Win32,60,13248,,,,,0,13,13,45,1,,,,,,,,,,,,,,,,,,,,,,,,,,,,,,,,,,,,,,,,,,,,,,,,,,,,,,,,
,,,,,,,,,,,,l,1.809445,Correct!,,,,,,t5.png,t2.png,3,0.0000131,19,Female,2020-07-29_12h31.25.047,torte-2b,2020.1.3,Win32,60,13248,,,,,0,14,14,82,1,,,,,,,,,,,,,,,,,,,,,,,,,,,,,,,,,,,,,,,,,,,,,,,,,,,,,,,,
,,,,,,,,,,,,a,1.09154,Incorrect,,,,,,t5.png,t3.png,2,0.056466,19,Female,2020-07-29_12h31.25.047,torte-2b,2020.1.3,Win32,60,13248,,,,,0,15,15,80,1,,,,,,,,,,,,,,,,,,,,,,,,,,,,,,,,,,,,,,,,,,,,,,,,,,,,,,,,
,,,,,,,,,,,,l,2.024525,Correct!,,,,,,t4.png,t1.png,3,0.0000131,19,Female,2020-07-29_12h31.25.047,torte-2b,2020.1.3,Win32,60,13248,,,,,0,16,16,102,1,,,,,,,,,,,,,,,,,,,,,,,,,,,,,,,,,,,,,,,,,,,,,,,,,,,,,,,,
,,,,,,,,,,,,l,0.94123,Correct!,,,,,,t3.png,t5.png,2,0.056466,19,Female,2020-07-29_12h31.25.047,torte-2b,2020.1.3,Win32,60,13248,,,,,0,17,17,60,1,,,,,,,,,,,,,,,,,,,,,,,,,,,,,,,,,,,,,,,,,,,,,,,,,,,,,,,,
,,,,,,,,,,,,a,1.74555,Correct!,,,,,,t4.png,t4.png,0,0.98115,19,Female,2020-07-29_12h31.25.047,torte-2b,2020.1.3,Win32,60,13248,,,,,0,18,18,52,1,,,,,,,,,,,,,,,,,,,,,,,,,,,,,,,,,,,,,,,,,,,,,,,,,,,,,,,,
,,,,,,,,,,,,a,1.0822,Correct!,,,,,,t4.png,t3.png,1,0.909,19,Female,2020-07-29_12h31.25.047,torte-2b,2020.1.3,Win32,60,13248,,,,,0,19,19,119,1,,,,,,,,,,,,,,,,,,,,,,,,,,,,,,,,,,,,,,,,,,,,,,,,,,,,,,,,
,,,,,,,,,,,,l,0.833205,Correct!,,,,,,t3.png,t5.png,2,0.056466,19,Female,2020-07-29_12h31.25.047,torte-2b,2020.1.3,Win32,60,13248,,,,,0,20,20,47,1,,,,,,,,,,,,,,,,,,,,,,,,,,,,,,,,,,,,,,,,,,,,,,,,,,,,,,,,
,,,,,,,,,,,,l,2.015385,Correct!,,,,,,t5.png,t2.png,3,0.0000131,19,Female,2020-07-29_12h31.25.047,torte-2b,2020.1.3,Win32,60,13248,,,,,0,21,21,43,1,,,,,,,,,,,,,,,,,,,,,,,,,,,,,,,,,,,,,,,,,,,,,,,,,,,,,,,,
,,,,,,,,,,,,l,1.11487,Correct!,,,,,,t5.png,t2.png,3,0.0000131,19,Female,2020-07-29_12h31.25.047,torte-2b,2020.1.3,Win32,60,13248,,,,,0,22,22,66,1,,,,,,,,,,,,,,,,,,,,,,,,,,,,,,,,,,,,,,,,,,,,,,,,,,,,,,,,
,,,,,,,,,,,,a,1.599805,Correct!,,,,,,t5.png,t4.png,1,0.90025,19,Female,2020-07-29_12h31.25.047,torte-2b,2020.1.3,Win32,60,13248,,,,,0,23,23,25,1,,,,,,,,,,,,,,,,,,,,,,,,,,,,,,,,,,,,,,,,,,,,,,,,,,,,,,,,
,,,,,,,,,,,,a,1.44294,Correct!,,,,,,t2.png,t2.png,0,0.98115,19,Female,2020-07-29_12h31.25.047,torte-2b,2020.1.3,Win32,60,13248,,,,,0,24,24,112,1,,,,,,,,,,,,,,,,,,,,,,,,,,,,,,,,,,,,,,,,,,,,,,,,,,,,,,,,
,,,,,,,,,,,,l,1.79354,Incorrect,,,,,,t1.png,t2.png,1,0.90025,19,Female,2020-07-29_12h31.25.047,torte-2b,2020.1.3,Win32,60,13248,,,,,0,25,25,96,1,,,,,,,,,,,,,,,,,,,,,,,,,,,,,,,,,,,,,,,,,,,,,,,,,,,,,,,,
,,,,,,,,,,,,,,Too slow :(,,,,,,t3.png,t4.png,1,0.90855,19,Female,2020-07-29_12h31.25.047,torte-2b,2020.1.3,Win32,60,13248,,,,,0,26,26,5,1,,,,,,,,,,,,,,,,,,,,,,,,,,,,,,,,,,,,,,,,,,,,,,,,,,,,,,,,
,,,,,,,,,,,,a,1.75066,Correct!,,,,,,t2.png,t1.png,1,0.9,19,Female,2020-07-29_12h31.25.047,torte-2b,2020.1.3,Win32,60,13248,,,,,0,27,27,100,1,,,,,,,,,,,,,,,,,,,,,,,,,,,,,,,,,,,,,,,,,,,,,,,,,,,,,,,,
,,,,,,,,,,,,l,1.454495,Correct!,,,,,,t2.png,t4.png,2,0.059078,19,Female,2020-07-29_12h31.25.047,torte-2b,2020.1.3,Win32,60,13248,,,,,0,28,28,97,1,,,,,,,,,,,,,,,,,,,,,,,,,,,,,,,,,,,,,,,,,,,,,,,,,,,,,,,,
,,,,,,,,,,,,l,1.15869,Incorrect,,,,,,t1.png,t1.png,0,0.97829,19,Female,2020-07-29_12h31.25.047,torte-2b,2020.1.3,Win32,60,13248,,,,,0,29,29,110,1,,,,,,,,,,,,,,,,,,,,,,,,,,,,,,,,,,,,,,,,,,,,,,,,,,,,,,,,
,,,,,,,,,,,,a,1.931165,Correct!,,,,,,t2.png,t3.png,1,0.909,19,Female,2020-07-29_12h31.25.047,torte-2b,2020.1.3,Win32,60,13248,,,,,0,30,30,8,1,,,,,,,,,,,,,,,,,,,,,,,,,,,,,,,,,,,,,,,,,,,,,,,,,,,,,,,,
,,,,,,,,,,,,l,1.58226,Correct!,,,,,,t4.png,t1.png,3,0.0000131,19,Female,2020-07-29_12h31.25.047,torte-2b,2020.1.3,Win32,60,13248,,,,,0,31,31,28,1,,,,,,,,,,,,,,,,,,,,,,,,,,,,,,,,,,,,,,,,,,,,,,,,,,,,,,,,
,,,,,,,,,,,,l,1.663065,Incorrect,,,,,,t5.png,t5.png,0,0.978,19,Female,2020-07-29_12h31.25.047,torte-2b,2020.1.3,Win32,60,13248,,,,,0,32,32,116,1,,,,,,,,,,,,,,,,,,,,,,,,,,,,,,,,,,,,,,,,,,,,,,,,,,,,,,,,
,,,,,,,,,,,,l,1.75836,Correct!,,,,,,t4.png,t1.png,3,0.0000131,19,Female,2020-07-29_12h31.25.047,torte-2b,2020.1.3,Win32,60,13248,,,,,0,33,33,49,1,,,,,,,,,,,,,,,,,,,,,,,,,,,,,,,,,,,,,,,,,,,,,,,,,,,,,,,,
,,,,,,,,,,,,a,1.205765,Incorrect,,,,,,t3.png,t1.png,2,0.056466,19,Female,2020-07-29_12h31.25.047,torte-2b,2020.1.3,Win32,60,13248,,,,,0,34,34,109,1,,,,,,,,,,,,,,,,,,,,,,,,,,,,,,,,,,,,,,,,,,,,,,,,,,,,,,,,
,,,,,,,,,,,,a,0.78366,Incorrect,,,,,,t3.png,t1.png,2,0.0565,19,Female,2020-07-29_12h31.25.047,torte-2b,2020.1.3,Win32,60,13248,,,,,0,35,35,40,1,,,,,,,,,,,,,,,,,,,,,,,,,,,,,,,,,,,,,,,,,,,,,,,,,,,,,,,,
,,,,,,,,,,,,l,0.92609,Incorrect,,,,,,t5.png,t5.png,0,0.97829,19,Female,2020-07-29_12h31.25.047,torte-2b,2020.1.3,Win32,60,13248,,,,,0,36,36,77,1,,,,,,,,,,,,,,,,,,,,,,,,,,,,,,,,,,,,,,,,,,,,,,,,,,,,,,,,
,,,,,,,,,,,,a,2.272745,Correct!,,,,,,t2.png,t1.png,1,0.9,19,Female,2020-07-29_12h31.25.047,torte-2b,2020.1.3,Win32,60,13248,,,,,0,37,37,93,1,,,,,,,,,,,,,,,,,,,,,,,,,,,,,,,,,,,,,,,,,,,,,,,,,,,,,,,,
,,,,,,,,,,,,a,0.68101,Incorrect,,,,,,t4.png,t1.png,3,0.0000131,19,Female,2020-07-29_12h31.25.047,torte-2b,2020.1.3,Win32,60,13248,,,,,0,38,38,91,1,,,,,,,,,,,,,,,,,,,,,,,,,,,,,,,,,,,,,,,,,,,,,,,,,,,,,,,,
,,,,,,,,,,,,a,1.214575,Incorrect,,,,,,t5.png,t4.png,1,0.90025,19,Female,2020-07-29_12h31.25.047,torte-2b,2020.1.3,Win32,60,13248,,,,,0,39,39,38,1,,,,,,,,,,,,,,,,,,,,,,,,,,,,,,,,,,,,,,,,,,,,,,,,,,,,,,,,
,,,,,,,,,,,,a,1.434825,Correct!,,,,,,t1.png,t1.png,0,0.978,19,Female,2020-07-29_12h31.25.047,torte-2b,2020.1.3,Win32,60,13248,,,,,0,40,40,13,1,,,,,,,,,,,,,,,,,,,,,,,,,,,,,,,,,,,,,,,,,,,,,,,,,,,,,,,,
,,,,,,,,,,,,a,1.283455,Incorrect,,,,,,t2.png,t1.png,1,0.90025,19,Female,2020-07-29_12h31.25.047,torte-2b,2020.1.3,Win32,60,13248,,,,,0,41,41,105,1,,,,,,,,,,,,,,,,,,,,,,,,,,,,,,,,,,,,,,,,,,,,,,,,,,,,,,,,
,,,,,,,,,,,,a,1.905395,Incorrect,,,,,,t5.png,t3.png,2,0.056466,19,Female,2020-07-29_12h31.25.047,torte-2b,2020.1.3,Win32,60,13248,,,,,0,42,42,37,1,,,,,,,,,,,,,,,,,,,,,,,,,,,,,,,,,,,,,,,,,,,,,,,,,,,,,,,,
,,,,,,,,,,,,l,0.85171,Incorrect,,,,,,t4.png,t5.png,1,0.90025,19,Female,2020-07-29_12h31.25.047,torte-2b,2020.1.3,Win32,60,13248,,,,,0,43,43,63,1,,,,,,,,,,,,,,,,,,,,,,,,,,,,,,,,,,,,,,,,,,,,,,,,,,,,,,,,
,,,,,,,,,,,,l,0.937525,Incorrect,,,,,,t3.png,t5.png,2,0.056466,19,Female,2020-07-29_12h31.25.047,torte-2b,2020.1.3,Win32,60,13248,,,,,0,44,44,78,1,,,,,,,,,,,,,,,,,,,,,,,,,,,,,,,,,,,,,,,,,,,,,,,,,,,,,,,,
,,,,,,,,,,,,,,Too slow :(,,,,,,t2.png,t2.png,0,0.981,19,Female,2020-07-29_12h31.25.047,torte-2b,2020.1.3,Win32,60,13248,,,,,0,45,45,98,1,,,,,,,,,,,,,,,,,,,,,,,,,,,,,,,,,,,,,,,,,,,,,,,,,,,,,,,,
,,,,,,,,,,,,l,1.048825,Incorrect,,,,,,t1.png,t2.png,1,0.9,19,Female,2020-07-29_12h31.25.047,torte-2b,2020.1.3,Win32,60,13248,,,,,0,46,46,17,1,,,,,,,,,,,,,,,,,,,,,,,,,,,,,,,,,,,,,,,,,,,,,,,,,,,,,,,,
,,,,,,,,,,,,l,0.967485,Correct!,,,,,,t2.png,t4.png,2,0.059078,19,Female,2020-07-29_12h31.25.047,torte-2b,2020.1.3,Win32,60,13248,,,,,0,47,47,84,1,,,,,,,,,,,,,,,,,,,,,,,,,,,,,,,,,,,,,,,,,,,,,,,,,,,,,,,,
,,,,,,,,,,,,l,0.88269,Incorrect,,,,,,t4.png,t5.png,1,0.9,19,Female,2020-07-29_12h31.25.047,torte-2b,2020.1.3,Win32,60,13248,,,,,0,48,48,81,1,,,,,,,,,,,,,,,,,,,,,,,,,,,,,,,,,,,,,,,,,,,,,,,,,,,,,,,,
,,,,,,,,,,,,l,1.83232,Correct!,,,,,,t4.png,t1.png,3,0.059078,19,Female,2020-07-29_12h31.25.047,torte-2b,2020.1.3,Win32,60,13248,,,,,0,49,49,87,1,,,,,,,,,,,,,,,,,,,,,,,,,,,,,,,,,,,,,,,,,,,,,,,,,,,,,,,,
,,,,,,,,,,,,l,1.33314,Incorrect,,,,,,t1.png,t2.png,1,0.90025,19,Female,2020-07-29_12h31.25.047,torte-2b,2020.1.3,Win32,60,13248,,,,,0,50,50,6,1,,,,,,,,,,,,,,,,,,,,,,,,,,,,,,,,,,,,,,,,,,,,,,,,,,,,,,,,
,,,,,,,,,,,,a,1.68179,Incorrect,,,,,,t4.png,t1.png,3,0.0000131,19,Female,2020-07-29_12h31.25.047,torte-2b,2020.1.3,Win32,60,13248,,,,,0,51,51,76,1,,,,,,,,,,,,,,,,,,,,,,,,,,,,,,,,,,,,,,,,,,,,,,,,,,,,,,,,
,,,,,,,,,,,,l,1.350325,Correct!,,,,,,t1.png,t2.png,1,0.9,19,Female,2020-07-29_12h31.25.047,torte-2b,2020.1.3,Win32,60,13248,,,,,0,52,52,61,1,,,,,,,,,,,,,,,,,,,,,,,,,,,,,,,,,,,,,,,,,,,,,,,,,,,,,,,,
,,,,,,,,,,,,a,1.86455,Correct!,,,,,,t4.png,t3.png,1,0.90855,19,Female,2020-07-29_12h31.25.047,torte-2b,2020.1.3,Win32,60,13248,,,,,0,53,53,11,1,,,,,,,,,,,,,,,,,,,,,,,,,,,,,,,,,,,,,,,,,,,,,,,,,,,,,,,,
,,,,,,,,,,,,a,1.93721,Incorrect,,,,,,t1.png,t3.png,2,0.0565,19,Female,2020-07-29_12h31.25.047,torte-2b,2020.1.3,Win32,60,13248,,,,,0,54,54,42,1,,,,,,,,,,,,,,,,,,,,,,,,,,,,,,,,,,,,,,,,,,,,,,,,,,,,,,,,
,,,,,,,,,,,,l,1.51679,Correct!,,,,,,t1.png,t4.png,3,0.0000131,19,Female,2020-07-29_12h31.25.047,torte-2b,2020.1.3,Win32,60,13248,,,,,0,55,55,106,1,,,,,,,,,,,,,,,,,,,,,,,,,,,,,,,,,,,,,,,,,,,,,,,,,,,,,,,,
,,,,,,,,,,,,a,1.300015,Correct!,,,,,,t4.png,t3.png,1,0.909,19,Female,2020-07-29_12h31.25.047,torte-2b,2020.1.3,Win32,60,13248,,,,,0,56,56,107,1,,,,,,,,,,,,,,,,,,,,,,,,,,,,,,,,,,,,,,,,,,,,,,,,,,,,,,,,
,,,,,,,,,,,,l,0.68821,Correct!,,,,,,t2.png,t5.png,3,0.0000131,19,Female,2020-07-29_12h31.25.047,torte-2b,2020.1.3,Win32,60,13248,,,,,0,57,57,115,1,,,,,,,,,,,,,,,,,,,,,,,,,,,,,,,,,,,,,,,,,,,,,,,,,,,,,,,,
,,,,,,,,,,,,l,1.108625,Incorrect,,,,,,t1.png,t1.png,0,0.97829,19,Female,2020-07-29_12h31.25.047,torte-2b,2020.1.3,Win32,60,13248,,,,,0,58,58,114,1,,,,,,,,,,,,,,,,,,,,,,,,,,,,,,,,,,,,,,,,,,,,,,,,,,,,,,,,
,,,,,,,,,,,,,,Too slow :(,,,,,,t4.png,t1.png,3,0.059078,19,Female,2020-07-29_12h31.25.047,torte-2b,2020.1.3,Win32,60,13248,,,,,0,59,59,62,1,,,,,,,,,,,,,,,,,,,,,,,,,,,,,,,,,,,,,,,,,,,,,,,,,,,,,,,,
,,,,,,,,,,,,a,1.098545,Correct!,,,,,,t1.png,t1.png,0,0.97829,19,Female,2020-07-29_12h31.25.047,torte-2b,2020.1.3,Win32,60,13248,,,,,0,60,60,4,1,,,,,,,,,,,,,,,,,,,,,,,,,,,,,,,,,,,,,,,,,,,,,,,,,,,,,,,,
,,,,,,,,,,,,l,0.605575,Correct!,,,,,,t1.png,t5.png,4,9.55E-11,19,Female,2020-07-29_12h31.25.047,torte-2b,2020.1.3,Win32,60,13248,,,,,0,61,61,118,1,,,,,,,,,,,,,,,,,,,,,,,,,,,,,,,,,,,,,,,,,,,,,,,,,,,,,,,,
,,,,,,,,,,,,a,1.25387,Incorrect,,,,,,t2.png,t5.png,3,0.0000131,19,Female,2020-07-29_12h31.25.047,torte-2b,2020.1.3,Win32,60,13248,,,,,0,62,62,85,1,,,,,,,,,,,,,,,,,,,,,,,,,,,,,,,,,,,,,,,,,,,,,,,,,,,,,,,,
,,,,,,,,,,,,l,0.917715,Incorrect,,,,,,t1.png,t1.png,0,0.978,19,Female,2020-07-29_12h31.25.047,torte-2b,2020.1.3,Win32,60,13248,,,,,0,63,63,22,1,,,,,,,,,,,,,,,,,,,,,,,,,,,,,,,,,,,,,,,,,,,,,,,,,,,,,,,,
,,,,,,,,,,,,l,1.767775,Incorrect,,,,,,t5.png,t5.png,0,0.97829,19,Female,2020-07-29_12h31.25.047,torte-2b,2020.1.3,Win32,60,13248,,,,,0,64,64,2,1,,,,,,,,,,,,,,,,,,,,,,,,,,,,,,,,,,,,,,,,,,,,,,,,,,,,,,,,
,,,,,,,,,,,,a,2.03137,Correct!,,,,,,t3.png,t4.png,1,0.90855,19,Female,2020-07-29_12h31.25.047,torte-2b,2020.1.3,Win32,60,13248,,,,,0,65,65,103,1,,,,,,,,,,,,,,,,,,,,,,,,,,,,,,,,,,,,,,,,,,,,,,,,,,,,,,,,
,,,,,,,,,,,,a,1.56964,Incorrect,,,,,,t4.png,t3.png,1,0.90855,19,Female,2020-07-29_12h31.25.047,torte-2b,2020.1.3,Win32,60,13248,,,,,0,66,66,56,1,,,,,,,,,,,,,,,,,,,,,,,,,,,,,,,,,,,,,,,,,,,,,,,,,,,,,,,,
,,,,,,,,,,,,a,1.272645,Correct!,,,,,,t2.png,t1.png,1,0.90025,19,Female,2020-07-29_12h31.25.047,torte-2b,2020.1.3,Win32,60,13248,,,,,0,67,67,44,1,,,,,,,,,,,,,,,,,,,,,,,,,,,,,,,,,,,,,,,,,,,,,,,,,,,,,,,,
,,,,,,,,,,,,a,1.71631,Correct!,,,,,,t4.png,t4.png,0,0.98115,19,Female,2020-07-29_12h31.25.047,torte-2b,2020.1.3,Win32,60,13248,,,,,0,68,68,19,1,,,,,,,,,,,,,,,,,,,,,,,,,,,,,,,,,,,,,,,,,,,,,,,,,,,,,,,,
,,,,,,,,,,,,a,1.14182,Correct!,,,,,,t3.png,t2.png,1,0.90855,19,Female,2020-07-29_12h31.25.047,torte-2b,2020.1.3,Win32,60,13248,,,,,0,69,69,108,1,,,,,,,,,,,,,,,,,,,,,,,,,,,,,,,,,,,,,,,,,,,,,,,,,,,,,,,,
,,,,,,,,,,,,a,1.594355,Correct!,,,,,,t4.png,t4.png,0,0.98115,19,Female,2020-07-29_12h31.25.047,torte-2b,2020.1.3,Win32,60,13248,,,,,0,70,70,68,1,,,,,,,,,,,,,,,,,,,,,,,,,,,,,,,,,,,,,,,,,,,,,,,,,,,,,,,,
,,,,,,,,,,,,l,1.05431,Incorrect,,,,,,t2.png,t3.png,1,0.90855,19,Female,2020-07-29_12h31.25.047,torte-2b,2020.1.3,Win32,60,13248,,,,,0,71,71,113,1,,,,,,,,,,,,,,,,,,,,,,,,,,,,,,,,,,,,,,,,,,,,,,,,,,,,,,,,
,,,,,,,,,,,,a,1.08916,Incorrect,,,,,,t5.png,t1.png,4,9.55E-11,19,Female,2020-07-29_12h31.25.047,torte-2b,2020.1.3,Win32,60,13248,,,,,0,72,72,117,1,,,,,,,,,,,,,,,,,,,,,,,,,,,,,,,,,,,,,,,,,,,,,,,,,,,,,,,,
,,,,,,,,,,,,l,1.226745,Correct!,,,,,,t4.png,t1.png,3,0.059078,19,Female,2020-07-29_12h31.25.047,torte-2b,2020.1.3,Win32,60,13248,,,,,0,73,73,57,1,,,,,,,,,,,,,,,,,,,,,,,,,,,,,,,,,,,,,,,,,,,,,,,,,,,,,,,,
,,,,,,,,,,,,l,1.43297,Incorrect,,,,,,t3.png,t2.png,1,0.90855,19,Female,2020-07-29_12h31.25.047,torte-2b,2020.1.3,Win32,60,13248,,,,,0,74,74,10,1,,,,,,,,,,,,,,,,,,,,,,,,,,,,,,,,,,,,,,,,,,,,,,,,,,,,,,,,
,,,,,,,,,,,,a,0.930475,Incorrect,,,,,,t5.png,t4.png,1,0.9,19,Female,2020-07-29_12h31.25.047,torte-2b,2020.1.3,Win32,60,13248,,,,,0,75,75,92,1,,,,,,,,,,,,,,,,,,,,,,,,,,,,,,,,,,,,,,,,,,,,,,,,,,,,,,,,
,,,,,,,,,,,,l,1.615335,Correct!,,,,,,t1.png,t4.png,3,0.0000131,19,Female,2020-07-29_12h31.25.047,torte-2b,2020.1.3,Win32,60,13248,,,,,0,76,76,23,1,,,,,,,,,,,,,,,,,,,,,,,,,,,,,,,,,,,,,,,,,,,,,,,,,,,,,,,,
,,,,,,,,,,,,a,0.592855,Incorrect,,,,,,t4.png,t1.png,3,0.059078,19,Female,2020-07-29_12h31.25.047,torte-2b,2020.1.3,Win32,60,13248,,,,,0,77,77,75,1,,,,,,,,,,,,,,,,,,,,,,,,,,,,,,,,,,,,,,,,,,,,,,,,,,,,,,,,
,,,,,,,,,,,,l,1.382775,Incorrect,,,,,,t1.png,t2.png,1,0.9,19,Female,2020-07-29_12h31.25.047,torte-2b,2020.1.3,Win32,60,13248,,,,,0,78,78,41,1,,,,,,,,,,,,,,,,,,,,,,,,,,,,,,,,,,,,,,,,,,,,,,,,,,,,,,,,
,,,,,,,,,,,,a,0.56707,Incorrect,,,,,,t5.png,t1.png,4,9.55E-11,19,Female,2020-07-29_12h31.25.047,torte-2b,2020.1.3,Win32,60,13248,,,,,0,79,79,89,1,,,,,,,,,,,,,,,,,,,,,,,,,,,,,,,,,,,,,,,,,,,,,,,,,,,,,,,,
,,,,,,,,,,,,l,1.370405,Incorrect,,,,,,t2.png,t2.png,0,0.98115,19,Female,2020-07-29_12h31.25.047,torte-2b,2020.1.3,Win32,60,13248,,,,,0,80,80,69,1,,,,,,,,,,,,,,,,,,,,,,,,,,,,,,,,,,,,,,,,,,,,,,,,,,,,,,,,
,,,,,,,,,,,,a,1.653665,Correct!,,,,,,t2.png,t3.png,1,0.90855,19,Female,2020-07-29_12h31.25.047,torte-2b,2020.1.3,Win32,60,13248,,,,,0,81,81,64,1,,,,,,,,,,,,,,,,,,,,,,,,,,,,,,,,,,,,,,,,,,,,,,,,,,,,,,,,
,,,,,,,,,,,,l,0.591205,Correct!,,,,,,t1.png,t5.png,4,9.55E-11,19,Female,2020-07-29_12h31.25.047,torte-2b,2020.1.3,Win32,60,13248,,,,,0,82,82,3,1,,,,,,,,,,,,,,,,,,,,,,,,,,,,,,,,,,,,,,,,,,,,,,,,,,,,,,,,
,,,,,,,,,,,,l,1.347515,Correct!,,,,,,t5.png,t1.png,4,9.55E-11,19,Female,2020-07-29_12h31.25.047,torte-2b,2020.1.3,Win32,60,13248,,,,,0,83,83,15,1,,,,,,,,,,,,,,,,,,,,,,,,,,,,,,,,,,,,,,,,,,,,,,,,,,,,,,,,
,,,,,,,,,,,,a,1.273245,Incorrect,,,,,,t3.png,t5.png,2,0.0565,19,Female,2020-07-29_12h31.25.047,torte-2b,2020.1.3,Win32,60,13248,,,,,0,84,84,71,1,,,,,,,,,,,,,,,,,,,,,,,,,,,,,,,,,,,,,,,,,,,,,,,,,,,,,,,,
,,,,,,,,,,,,l,1.105075,Correct!,,,,,,t1.png,t5.png,4,9.55E-11,19,Female,2020-07-29_12h31.25.047,torte-2b,2020.1.3,Win32,60,13248,,,,,0,85,85,20,1,,,,,,,,,,,,,,,,,,,,,,,,,,,,,,,,,,,,,,,,,,,,,,,,,,,,,,,,
,,,,,,,,,,,,l,2.0013,Incorrect,,,,,,t4.png,t4.png,0,0.98115,19,Female,2020-07-29_12h31.25.047,torte-2b,2020.1.3,Win32,60,13248,,,,,0,86,86,59,1,,,,,,,,,,,,,,,,,,,,,,,,,,,,,,,,,,,,,,,,,,,,,,,,,,,,,,,,
,,,,,,,,,,,,,,Too slow :(,,,,,,t5.png,t3.png,2,0.056466,19,Female,2020-07-29_12h31.25.047,torte-2b,2020.1.3,Win32,60,13248,,,,,0,87,87,27,1,,,,,,,,,,,,,,,,,,,,,,,,,,,,,,,,,,,,,,,,,,,,,,,,,,,,,,,,
,,,,,,,,,,,,a,1.89503,Incorrect,,,,,,t1.png,t4.png,3,0.0000131,19,Female,2020-07-29_12h31.25.047,torte-2b,2020.1.3,Win32,60,13248,,,,,0,88,88,16,1,,,,,,,,,,,,,,,,,,,,,,,,,,,,,,,,,,,,,,,,,,,,,,,,,,,,,,,,
,,,,,,,,,,,,a,2.22912,Correct!,,,,,,t2.png,t2.png,0,0.98115,19,Female,2020-07-29_12h31.25.047,torte-2b,2020.1.3,Win32,60,13248,,,,,0,89,89,7,1,,,,,,,,,,,,,,,,,,,,,,,,,,,,,,,,,,,,,,,,,,,,,,,,,,,,,,,,
,,,,,,,,,,,,l,1.72052,Incorrect,,,,,,t4.png,t4.png,0,0.98115,19,Female,2020-07-29_12h31.25.047,torte-2b,2020.1.3,Win32,60,13248,,,,,0,90,90,88,1,,,,,,,,,,,,,,,,,,,,,,,,,,,,,,,,,,,,,,,,,,,,,,,,,,,,,,,,
,,,,,,,,,,,,l,1.82469,Incorrect,,,,,,t3.png,t2.png,1,0.90855,19,Female,2020-07-29_12h31.25.047,torte-2b,2020.1.3,Win32,60,13248,,,,,0,91,91,99,1,,,,,,,,,,,,,,,,,,,,,,,,,,,,,,,,,,,,,,,,,,,,,,,,,,,,,,,,
,,,,,,,,,,,,l,1.767125,Correct!,,,,,,t2.png,t4.png,2,0.059078,19,Female,2020-07-29_12h31.25.047,torte-2b,2020.1.3,Win32,60,13248,,,,,0,92,92,53,1,,,,,,,,,,,,,,,,,,,,,,,,,,,,,,,,,,,,,,,,,,,,,,,,,,,,,,,,
,,,,,,,,,,,,l,2.305615,Correct!,,,,,,t5.png,t2.png,3,0.0000131,19,Female,2020-07-29_12h31.25.047,torte-2b,2020.1.3,Win32,60,13248,,,,,0,93,93,48,1,,,,,,,,,,,,,,,,,,,,,,,,,,,,,,,,,,,,,,,,,,,,,,,,,,,,,,,,
,,,,,,,,,,,,a,2.155805,Correct!,,,,,,t4.png,t5.png,1,0.90025,19,Female,2020-07-29_12h31.25.047,torte-2b,2020.1.3,Win32,60,13248,,,,,0,94,94,33,1,,,,,,,,,,,,,,,,,,,,,,,,,,,,,,,,,,,,,,,,,,,,,,,,,,,,,,,,
,,,,,,,,,,,,,,Too slow :(,,,,,,t3.png,t2.png,1,0.90855,19,Female,2020-07-29_12h31.25.047,torte-2b,2020.1.3,Win32,60,13248,,,,,0,95,95,0,1,,,,,,,,,,,,,,,,,,,,,,,,,,,,,,,,,,,,,,,,,,,,,,,,,,,,,,,,
,,,,,,,,,,,,a,1.690955,Incorrect,,,,,,t1.png,t3.png,2,0.056466,19,Female,2020-07-29_12h31.25.047,torte-2b,2020.1.3,Win32,60,13248,,,,,0,96,96,24,1,,,,,,,,,,,,,,,,,,,,,,,,,,,,,,,,,,,,,,,,,,,,,,,,,,,,,,,,
,,,,,,,,,,,,l,1.70167,Incorrect,,,,,,t2.png,t4.png,2,0.059078,19,Female,2020-07-29_12h31.25.047,torte-2b,2020.1.3,Win32,60,13248,,,,,0,97,97,67,1,,,,,,,,,,,,,,,,,,,,,,,,,,,,,,,,,,,,,,,,,,,,,,,,,,,,,,,,
,,,,,,,,,,,,l,1.88422,Incorrect,,,,,,t2.png,t1.png,1,0.90025,19,Female,2020-07-29_12h31.25.047,torte-2b,2020.1.3,Win32,60,13248,,,,,0,98,98,65,1,,,,,,,,,,,,,,,,,,,,,,,,,,,,,,,,,,,,,,,,,,,,,,,,,,,,,,,,
,,,,,,,,,,,,,,Too slow :(,,,,,,t5.png,t5.png,0,0.978,19,Female,2020-07-29_12h31.25.047,torte-2b,2020.1.3,Win32,60,13248,,,,,0,99,99,51,1,,,,,,,,,,,,,,,,,,,,,,,,,,,,,,,,,,,,,,,,,,,,,,,,,,,,,,,,
,,,,,,,,,,,,a,2.209175,Incorrect,,,,,,t3.png,t4.png,1,0.90855,19,Female,2020-07-29_12h31.25.047,torte-2b,2020.1.3,Win32,60,13248,,,,,0,100,100,9,1,,,,,,,,,,,,,,,,,,,,,,,,,,,,,,,,,,,,,,,,,,,,,,,,,,,,,,,,
,,,,,,,,,,,,a,1.30679,Correct!,,,,,,t3.png,t4.png,1,0.90855,19,Female,2020-07-29_12h31.25.047,torte-2b,2020.1.3,Win32,60,13248,,,,,0,101,101,111,1,,,,,,,,,,,,,,,,,,,,,,,,,,,,,,,,,,,,,,,,,,,,,,,,,,,,,,,,
,,,,,,,,,,,,a,1.29116,Incorrect,,,,,,t1.png,t3.png,2,0.0565,19,Female,2020-07-29_12h31.25.047,torte-2b,2020.1.3,Win32,60,13248,,,,,0,102,102,95,1,,,,,,,,,,,,,,,,,,,,,,,,,,,,,,,,,,,,,,,,,,,,,,,,,,,,,,,,
,,,,,,,,,,,,a,2.266585,Correct!,,,,,,t3.png,t4.png,1,0.90855,19,Female,2020-07-29_12h31.25.047,torte-2b,2020.1.3,Win32,60,13248,,,,,0,103,103,58,1,,,,,,,,,,,,,,,,,,,,,,,,,,,,,,,,,,,,,,,,,,,,,,,,,,,,,,,,
,,,,,,,,,,,,l,2.25135,Incorrect,,,,,,t5.png,t4.png,1,0.9,19,Female,2020-07-29_12h31.25.047,torte-2b,2020.1.3,Win32,60,13248,,,,,0,104,104,55,1,,,,,,,,,,,,,,,,,,,,,,,,,,,,,,,,,,,,,,,,,,,,,,,,,,,,,,,,
,,,,,,,,,,,,a,1.354535,Incorrect,,,,,,t2.png,t5.png,3,0.0000131,19,Female,2020-07-29_12h31.25.047,torte-2b,2020.1.3,Win32,60,13248,,,,,0,105,105,54,1,,,,,,,,,,,,,,,,,,,,,,,,,,,,,,,,,,,,,,,,,,,,,,,,,,,,,,,,
,,,,,,,,,,,,l,2.08692,Correct!,,,,,,t1.png,t5.png,4,9.55E-11,19,Female,2020-07-29_12h31.25.047,torte-2b,2020.1.3,Win32,60,13248,,,,,0,106,106,30,1,,,,,,,,,,,,,,,,,,,,,,,,,,,,,,,,,,,,,,,,,,,,,,,,,,,,,,,,
,,,,,,,,,,,,l,1.640715,Incorrect,,,,,,t3.png,t1.png,2,0.056466,19,Female,2020-07-29_12h31.25.047,torte-2b,2020.1.3,Win32,60,13248,,,,,0,107,107,34,1,,,,,,,,,,,,,,,,,,,,,,,,,,,,,,,,,,,,,,,,,,,,,,,,,,,,,,,,
,,,,,,,,,,,,l,0.819415,Correct!,,,,,,t5.png,t1.png,4,9.55E-11,19,Female,2020-07-29_12h31.25.047,torte-2b,2020.1.3,Win32,60,13248,,,,,0,108,108,101,1,,,,,,,,,,,,,,,,,,,,,,,,,,,,,,,,,,,,,,,,,,,,,,,,,,,,,,,,
,,,,,,,,,,,,l,1.64439,Correct!,,,,,,t5.png,t3.png,2,0.056466,19,Female,2020-07-29_12h31.25.047,torte-2b,2020.1.3,Win32,60,13248,,,,,0,109,109,26,1,,,,,,,,,,,,,,,,,,,,,,,,,,,,,,,,,,,,,,,,,,,,,,,,,,,,,,,,
,,,,,,,,,,,,a,1.70024,Correct!,,,,,,t3.png,t2.png,1,0.90855,19,Female,2020-07-29_12h31.25.047,torte-2b,2020.1.3,Win32,60,13248,,,,,0,110,110,94,1,,,,,,,,,,,,,,,,,,,,,,,,,,,,,,,,,,,,,,,,,,,,,,,,,,,,,,,,
,,,,,,,,,,,,l,2.03154,Correct!,,,,,,t4.png,t1.png,3,0.059078,19,Female,2020-07-29_12h31.25.047,torte-2b,2020.1.3,Win32,60,13248,,,,,0,111,111,73,1,,,,,,,,,,,,,,,,,,,,,,,,,,,,,,,,,,,,,,,,,,,,,,,,,,,,,,,,
,,,,,,,,,,,,l,1.80074,Incorrect,,,,,,t4.png,t5.png,1,0.90025,19,Female,2020-07-29_12h31.25.047,torte-2b,2020.1.3,Win32,60,13248,,,,,0,112,112,86,1,,,,,,,,,,,,,,,,,,,,,,,,,,,,,,,,,,,,,,,,,,,,,,,,,,,,,,,,
,,,,,,,,,,,,l,2.018435,Correct!,,,,,,t1.png,t3.png,2,0.0565,19,Female,2020-07-29_12h31.25.047,torte-2b,2020.1.3,Win32,60,13248,,,,,0,113,113,12,1,,,,,,,,,,,,,,,,,,,,,,,,,,,,,,,,,,,,,,,,,,,,,,,,,,,,,,,,
,,,,,,,,,,,,a,1.63796,Incorrect,,,,,,t4.png,t3.png,1,0.90855,19,Female,2020-07-29_12h31.25.047,torte-2b,2020.1.3,Win32,60,13248,,,,,0,114,114,29,1,,,,,,,,,,,,,,,,,,,,,,,,,,,,,,,,,,,,,,,,,,,,,,,,,,,,,,,,
,,,,,,,,,,,,,,Too slow :(,,,,,,t5.png,t4.png,1,0.90025,19,Female,2020-07-29_12h31.25.047,torte-2b,2020.1.3,Win32,60,13248,,,,,0,115,115,14,1,,,,,,,,,,,,,,,,,,,,,,,,,,,,,,,,,,,,,,,,,,,,,,,,,,,,,,,,
,,,,,,,,,,,,a,1.68239,Incorrect,,,,,,t5.png,t2.png,3,0.0000131,19,Female,2020-07-29_12h31.25.047,torte-2b,2020.1.3,Win32,60,13248,,,,,0,116,116,83,1,,,,,,,,,,,,,,,,,,,,,,,,,,,,,,,,,,,,,,,,,,,,,,,,,,,,,,,,
,,,,,,,,,,,,a,2.16838,Incorrect,,,,,,t2.png,t5.png,3,0.0000131,19,Female,2020-07-29_12h31.25.047,torte-2b,2020.1.3,Win32,60,13248,,,,,0,117,117,46,1,,,,,,,,,,,,,,,,,,,,,,,,,,,,,,,,,,,,,,,,,,,,,,,,,,,,,,,,
,,,,,,,,,,,,a,1.45639,Correct!,,,,,,t2.png,t3.png,1,0.90855,19,Female,2020-07-29_12h31.25.047,torte-2b,2020.1.3,Win32,60,13248,,,,,0,118,118,79,1,,,,,,,,,,,,,,,,,,,,,,,,,,,,,,,,,,,,,,,,,,,,,,,,,,,,,,,,
,,,,,,,,,,,,a,1.545795,Correct!,,,,,,t4.png,t5.png,1,0.90025,19,Female,2020-07-29_12h31.25.047,torte-2b,2020.1.3,Win32,60,13248,,,,,0,119,119,21,1,,,,,,,,,,,,,,,,,,,,,,,,,,,,,,,,,,,,,,,,,,,,,,,,,,,,,,,,
,,,,,,,,,,,,,,,,,,,,,,,,19,Female,2020-07-29_12h31.25.047,torte-2b,2020.1.3,Win32,60,13248,space,1.59153,,,,,,,,space,51.37552,,0,0,0,0,1,6,,,,,,,,,,,,,,,,,,,,,,,,,,,,,,,,,,,,,,,,,,,,,,,
,,,,,,,,,,,,,,,,,,,,,,,,19,Female,2020-07-29_12h31.25.047,torte-2b,2020.1.3,Win32,60,13248,,,,,,,,,,,,,0,1,1,1,1,7,,,,,,,,,,,,,,,,,,,,,,,,,,,,,,,,,,,,,,,,,,,,,,,
,,,,,,,,,,,,,,,,,,,,,,,,19,Female,2020-07-29_12h31.25.047,torte-2b,2020.1.3,Win32,60,13248,,,,,,,,,,,,space,0,2,2,2,1,6,0.251535,,,,,,,,,,,,,,,,,,,,,,,,,,,,,,,,,,,,,,,,,,,,,,
,,,,,,,,,,,,,,,,,,,,,,,,19,Female,2020-07-29_12h31.25.047,torte-2b,2020.1.3,Win32,60,13248,,,,,,,,,,,,,0,3,3,3,1,7,,,,,,,,,,,,,,,,,,,,,,,,,,,,,,,,,,,,,,,,,,,,,,,
,,,,,,,,,,,,,,,,,,,,,,,,19,Female,2020-07-29_12h31.25.047,torte-2b,2020.1.3,Win32,60,13248,,,,,,,,,,,,,0,4,4,4,1,5,,,,,,,,,,,,,,,,,,,,,,,,,,,,,,,,,,,,,,,,,,,,,,,
,,,,,,,,,,,,,,,,,,,,,,,,19,Female,2020-07-29_12h31.25.047,torte-2b,2020.1.3,Win32,60,13248,,,,,,,,,,,,space,0,5,5,5,1,7,0.22465,,,,,,,,,,,,,,,,,,,,,,,,,,,,,,,,,,,,,,,,,,,,,,
,,,,,,,,,,,,,,,,,,,,,,,,19,Female,2020-07-29_12h31.25.047,torte-2b,2020.1.3,Win32,60,13248,,,,,,,,,,,,,0,6,6,6,1,2,,,,,,,,,,,,,,,,,,,,,,,,,,,,,,,,,,,,,,,,,,,,,,,
,,,,,,,,,,,,,,,,,,,,,,,,19,Female,2020-07-29_12h31.25.047,torte-2b,2020.1.3,Win32,60,13248,,,,,,,,,,,,,0,7,7,7,1,4,,,,,,,,,,,,,,,,,,,,,,,,,,,,,,,,,,,,,,,,,,,,,,,
,,,,,,,,,,,,,,,,,,,,,,,,19,Female,2020-07-29_12h31.25.047,torte-2b,2020.1.3,Win32,60,13248,,,,,,,,,,,,space,0,8,8,8,1,7,0.34722,,,,,,,,,,,,,,,,,,,,,,,,,,,,,,,,,,,,,,,,,,,,,,
,,,,,,,,,,,,,,,,,,,,,,,,19,Female,2020-07-29_12h31.25.047,torte-2b,2020.1.3,Win32,60,13248,,,,,,,,,,,,,0,9,9,9,1,4,,,,,,,,,,,,,,,,,,,,,,,,,,,,,,,,,,,,,,,,,,,,,,,
,,,,,,,,,,,,,,,,,,,,,,,,19,Female,2020-07-29_12h31.25.047,torte-2b,2020.1.3,Win32,60,13248,,,,,,,,,,,,,0,10,10,10,1,7,,,,,,,,,,,,,,,,,,,,,,,,,,,,,,,,,,,,,,,,,,,,,,,
,,,,,,,,,,,,,,,,,,,,,,,,19,Female,2020-07-29_12h31.25.047,torte-2b,2020.1.3,Win32,60,13248,,,,,,,,,,,,,0,11,11,11,1,7,,,,,,,,,,,,,,,,,,,,,,,,,,,,,,,,,,,,,,,,,,,,,,,
,,,,,,,,,,,,,,,,,,,,,,,,19,Female,2020-07-29_12h31.25.047,torte-2b,2020.1.3,Win32,60,13248,,,,,,,,,,,,,0,12,12,12,1,7,,,,,,,,,,,,,,,,,,,,,,,,,,,,,,,,,,,,,,,,,,,,,,,
,,,,,,,,,,,,,,,,,,,,,,,,19,Female,2020-07-29_12h31.25.047,torte-2b,2020.1.3,Win32,60,13248,,,,,,,,,,,,,0,13,13,13,1,4,,,,,,,,,,,,,,,,,,,,,,,,,,,,,,,,,,,,,,,,,,,,,,,
,,,,,,,,,,,,,,,,,,,,,,,,19,Female,2020-07-29_12h31.25.047,torte-2b,2020.1.3,Win32,60,13248,,,,,,,,,,,,,0,14,14,14,1,6,,,,,,,,,,,,,,,,,,,,,,,,,,,,,,,,,,,,,,,,,,,,,,,
,,,,,,,,,,,,,,,,,,,,,,,,19,Female,2020-07-29_12h31.25.047,torte-2b,2020.1.3,Win32,60,13248,,,,,,,,,,,,,0,15,15,15,1,4,,,,,,,,,,,,,,,,,,,,,,,,,,,,,,,,,,,,,,,,,,,,,,,
,,,,,,,,,,,,,,,,,,,,,,,,19,Female,2020-07-29_12h31.25.047,torte-2b,2020.1.3,Win32,60,13248,,,,,,,,,,,,space,0,16,16,16,1,6,0.32429,,,,,,,,,,,,,,,,,,,,,,,,,,,,,,,,,,,,,,,,,,,,,,
,,,,,,,,,,,,,,,,,,,,,,,,19,Female,2020-07-29_12h31.25.047,torte-2b,2020.1.3,Win32,60,13248,,,,,,,,,,,,,0,17,17,17,1,7,,,,,,,,,,,,,,,,,,,,,,,,,,,,,,,,,,,,,,,,,,,,,,,
,,,,,,,,,,,,,,,,,,,,,,,,19,Female,2020-07-29_12h31.25.047,torte-2b,2020.1.3,Win32,60,13248,,,,,,,,,,,,,0,18,18,18,1,6,,,,,,,,,,,,,,,,,,,,,,,,,,,,,,,,,,,,,,,,,,,,,,,
,,,,,,,,,,,,,,,,,,,,,,,,19,Female,2020-07-29_12h31.25.047,torte-2b,2020.1.3,Win32,60,13248,,,,,,,,,,,,space,0,19,19,19,1,7,0.23868,,,,,,,,,,,,,,,,,,,,,,,,,,,,,,,,,,,,,,,,,,,,,,
,,,,,,,,,,,,,,,,,,,,,,,,19,Female,2020-07-29_12h31.25.047,torte-2b,2020.1.3,Win32,60,13248,,,,,,,,,,,,,0,20,20,20,1,5,,,,,,,,,,,,,,,,,,,,,,,,,,,,,,,,,,,,,,,,,,,,,,,
,,,,,,,,,,,,,,,,,,,,,,,,19,Female,2020-07-29_12h31.25.047,torte-2b,2020.1.3,Win32,60,13248,,,,,,,,,,,,,0,21,21,21,1,1,,,,,,,,,,,,,,,,,,,,,,,,,,,,,,,,,,,,,,,,,,,,,,,
,,,,,,,,,,,,,,,,,,,,,,,,19,Female,2020-07-29_12h31.25.047,torte-2b,2020.1.3,Win32,60,13248,,,,,,,,,,,,,0,22,22,22,1,6,,,,,,,,,,,,,,,,,,,,,,,,,,,,,,,,,,,,,,,,,,,,,,,
,,,,,,,,,,,,,,,,,,,,,,,,19,Female,2020-07-29_12h31.25.047,torte-2b,2020.1.3,Win32,60,13248,,,,,,,,,,,,,0,23,23,23,1,1,,,,,,,,,,,,,,,,,,,,,,,,,,,,,,,,,,,,,,,,,,,,,,,
,,,,,,,,,,,,,,,,,,,,,,,,19,Female,2020-07-29_12h31.25.047,torte-2b,2020.1.3,Win32,60,13248,,,,,,,,,,,,,0,24,24,24,1,5,,,,,,,,,,,,,,,,,,,,,,,,,,,,,,,,,,,,,,,,,,,,,,,
,,,,,,,,,,,,,,,,,,,,,,,,19,Female,2020-07-29_12h31.25.047,torte-2b,2020.1.3,Win32,60,13248,,,,,,,,,,,,,0,25,25,25,1,6,,,,,,,,,,,,,,,,,,,,,,,,,,,,,,,,,,,,,,,,,,,,,,,
,,,,,,,,,,,,,,,,,,,,,,,,19,Female,2020-07-29_12h31.25.047,torte-2b,2020.1.3,Win32,60,13248,,,,,,,,,,,,,0,26,26,26,1,6,,,,,,,,,,,,,,,,,,,,,,,,,,,,,,,,,,,,,,,,,,,,,,,
,,,,,,,,,,,,,,,,,,,,,,,,19,Female,2020-07-29_12h31.25.047,torte-2b,2020.1.3,Win32,60,13248,,,,,,,,,,,,,0,27,27,27,1,6,,,,,,,,,,,,,,,,,,,,,,,,,,,,,,,,,,,,,,,,,,,,,,,
,,,,,,,,,,,,,,,,,,,,,,,,19,Female,2020-07-29_12h31.25.047,torte-2b,2020.1.3,Win32,60,13248,,,,,,,,,,,,,0,28,28,28,1,5,,,,,,,,,,,,,,,,,,,,,,,,,,,,,,,,,,,,,,,,,,,,,,,
,,,,,,,,,,,,,,,,,,,,,,,,19,Female,2020-07-29_12h31.25.047,torte-2b,2020.1.3,Win32,60,13248,,,,,,,,,,,,,0,29,29,29,1,2,,,,,,,,,,,,,,,,,,,,,,,,,,,,,,,,,,,,,,,,,,,,,,,
,,,,,,,,,,,,,,,,,,,,,,,,19,Female,2020-07-29_12h31.25.047,torte-2b,2020.1.3,Win32,60,13248,,,,,,,,,,,,space,0,30,30,30,1,5,0.299495,,,,,,,,,,,,,,,,,,,,,,,,,,,,,,,,,,,,,,,,,,,,,,
,,,,,,,,,,,,,,,,,,,,,,,,19,Female,2020-07-29_12h31.25.047,torte-2b,2020.1.3,Win32,60,13248,,,,,,,,,,,,,0,31,31,31,1,2,,,,,,,,,,,,,,,,,,,,,,,,,,,,,,,,,,,,,,,,,,,,,,,
,,,,,,,,,,,,,,,,,,,,,,,,19,Female,2020-07-29_12h31.25.047,torte-2b,2020.1.3,Win32,60,13248,,,,,,,,,,,,,0,32,32,32,1,5,,,,,,,,,,,,,,,,,,,,,,,,,,,,,,,,,,,,,,,,,,,,,,,
,,,,,,,,,,,,,,,,,,,,,,,,19,Female,2020-07-29_12h31.25.047,torte-2b,2020.1.3,Win32,60,13248,,,,,,,,,,,,,0,33,33,33,1,1,,,,,,,,,,,,,,,,,,,,,,,,,,,,,,,,,,,,,,,,,,,,,,,
,,,,,,,,,,,,,,,,,,,,,,,,19,Female,2020-07-29_12h31.25.047,torte-2b,2020.1.3,Win32,60,13248,,,,,,,,,,,,,0,34,34,34,1,1,,,,,,,,,,,,,,,,,,,,,,,,,,,,,,,,,,,,,,,,,,,,,,,
,,,,,,,,,,,,,,,,,,,,,,,,19,Female,2020-07-29_12h31.25.047,torte-2b,2020.1.3,Win32,60,13248,,,,,,,,,,,,,,,,,,2,,0,0,0,0,1,,,,,,,,,,,,,,,,,,,,,,,,,,,,,,,,,,,,,,,,,
,,,,,,,,,,,,,,,,,,,,,,,,19,Female,2020-07-29_12h31.25.047,torte-2b,2020.1.3,Win32,60,13248,,,,,,,,,,,,,,,,,,2,,0,1,1,1,1,,,,,,,,,,,,,,,,,,,,,,,,,,,,,,,,,,,,,,,,,
,,,,,,,,,,,,,,,,,,,,,,,,19,Female,2020-07-29_12h31.25.047,torte-2b,2020.1.3,Win32,60,13248,,,,,,,,,,,,,,,,,,6,,0,2,2,2,1,,,,,,,,,,,,,,,,,,,,,,,,,,,,,,,,,,,,,,,,,
,,,,,,,,,,,,,,,,,,,,,,,,19,Female,2020-07-29_12h31.25.047,torte-2b,2020.1.3,Win32,60,13248,,,,,,,,,,,,,,,,,,2,,0,3,3,3,1,,,,,,,,,,,,,,,,,,,,,,,,,,,,,,,,,,,,,,,,,
,,,,,,,,,,,,,,,,,,,,,,,,19,Female,2020-07-29_12h31.25.047,torte-2b,2020.1.3,Win32,60,13248,,,,,,,,,,,,space,,,,,,6,0.34835,0,4,4,4,1,,,,,,,,,,,,,,,,,,,,,,,,,,,,,,,,,,,,,,,,,
,,,,,,,,,,,,,,,,,,,,,,,,19,Female,2020-07-29_12h31.25.047,torte-2b,2020.1.3,Win32,60,13248,,,,,,,,,,,,,,,,,,2,,0,5,5,5,1,,,,,,,,,,,,,,,,,,,,,,,,,,,,,,,,,,,,,,,,,
,,,,,,,,,,,,,,,,,,,,,,,,19,Female,2020-07-29_12h31.25.047,torte-2b,2020.1.3,Win32,60,13248,,,,,,,,,,,,,,,,,,7,,0,6,6,6,1,,,,,,,,,,,,,,,,,,,,,,,,,,,,,,,,,,,,,,,,,
,,,,,,,,,,,,,,,,,,,,,,,,19,Female,2020-07-29_12h31.25.047,torte-2b,2020.1.3,Win32,60,13248,,,,,,,,,,,,space,,,,,,2,0.31355,0,7,7,7,1,,,,,,,,,,,,,,,,,,,,,,,,,,,,,,,,,,,,,,,,,
,,,,,,,,,,,,,,,,,,,,,,,,19,Female,2020-07-29_12h31.25.047,torte-2b,2020.1.3,Win32,60,13248,,,,,,,,,,,,,,,,,,7,,0,8,8,8,1,,,,,,,,,,,,,,,,,,,,,,,,,,,,,,,,,,,,,,,,,
,,,,,,,,,,,,,,,,,,,,,,,,19,Female,2020-07-29_12h31.25.047,torte-2b,2020.1.3,Win32,60,13248,,,,,,,,,,,,,,,,,,2,,0,9,9,9,1,,,,,,,,,,,,,,,,,,,,,,,,,,,,,,,,,,,,,,,,,
,,,,,,,,,,,,,,,,,,,,,,,,19,Female,2020-07-29_12h31.25.047,torte-2b,2020.1.3,Win32,60,13248,,,,,,,,,,,,,,,,,,5,,0,10,10,10,1,,,,,,,,,,,,,,,,,,,,,,,,,,,,,,,,,,,,,,,,,
,,,,,,,,,,,,,,,,,,,,,,,,19,Female,2020-07-29_12h31.25.047,torte-2b,2020.1.3,Win32,60,13248,,,,,,,,,,,,,,,,,,4,,0,11,11,11,1,,,,,,,,,,,,,,,,,,,,,,,,,,,,,,,,,,,,,,,,,
,,,,,,,,,,,,,,,,,,,,,,,,19,Female,2020-07-29_12h31.25.047,torte-2b,2020.1.3,Win32,60,13248,,,,,,,,,,,,space,,,,,,5,0.346955,0,12,12,12,1,,,,,,,,,,,,,,,,,,,,,,,,,,,,,,,,,,,,,,,,,
,,,,,,,,,,,,,,,,,,,,,,,,19,Female,2020-07-29_12h31.25.047,torte-2b,2020.1.3,Win32,60,13248,,,,,,,,,,,,,,,,,,6,,0,13,13,13,1,,,,,,,,,,,,,,,,,,,,,,,,,,,,,,,,,,,,,,,,,
,,,,,,,,,,,,,,,,,,,,,,,,19,Female,2020-07-29_12h31.25.047,torte-2b,2020.1.3,Win32,60,13248,,,,,,,,,,,,,,,,,,5,,0,14,14,14,1,,,,,,,,,,,,,,,,,,,,,,,,,,,,,,,,,,,,,,,,,
,,,,,,,,,,,,,,,,,,,,,,,,19,Female,2020-07-29_12h31.25.047,torte-2b,2020.1.3,Win32,60,13248,,,,,,,,,,,,,,,,,,4,,0,15,15,15,1,,,,,,,,,,,,,,,,,,,,,,,,,,,,,,,,,,,,,,,,,
,,,,,,,,,,,,,,,,,,,,,,,,19,Female,2020-07-29_12h31.25.047,torte-2b,2020.1.3,Win32,60,13248,,,,,,,,,,,,,,,,,,5,,0,16,16,16,1,,,,,,,,,,,,,,,,,,,,,,,,,,,,,,,,,,,,,,,,,
,,,,,,,,,,,,,,,,,,,,,,,,19,Female,2020-07-29_12h31.25.047,torte-2b,2020.1.3,Win32,60,13248,,,,,,,,,,,,,,,,,,3,,0,17,17,17,1,,,,,,,,,,,,,,,,,,,,,,,,,,,,,,,,,,,,,,,,,
,,,,,,,,,,,,,,,,,,,,,,,,19,Female,2020-07-29_12h31.25.047,torte-2b,2020.1.3,Win32,60,13248,,,,,,,,,,,,,,,,,,6,,0,18,18,18,1,,,,,,,,,,,,,,,,,,,,,,,,,,,,,,,,,,,,,,,,,
,,,,,,,,,,,,,,,,,,,,,,,,19,Female,2020-07-29_12h31.25.047,torte-2b,2020.1.3,Win32,60,13248,,,,,,,,,,,,,,,,,,6,,0,19,19,19,1,,,,,,,,,,,,,,,,,,,,,,,,,,,,,,,,,,,,,,,,,
,,,,,,,,,,,,,,,,,,,,,,,,19,Female,2020-07-29_12h31.25.047,torte-2b,2020.1.3,Win32,60,13248,,,,,,,,,,,,,,,,,,6,,0,20,20,20,1,,,,,,,,,,,,,,,,,,,,,,,,,,,,,,,,,,,,,,,,,
,,,,,,,,,,,,,,,,,,,,,,,,19,Female,2020-07-29_12h31.25.047,torte-2b,2020.1.3,Win32,60,13248,,,,,,,,,,,,,,,,,,4,,0,21,21,21,1,,,,,,,,,,,,,,,,,,,,,,,,,,,,,,,,,,,,,,,,,
,,,,,,,,,,,,,,,,,,,,,,,,19,Female,2020-07-29_12h31.25.047,torte-2b,2020.1.3,Win32,60,13248,,,,,,,,,,,,,,,,,,6,,0,22,22,22,1,,,,,,,,,,,,,,,,,,,,,,,,,,,,,,,,,,,,,,,,,
,,,,,,,,,,,,,,,,,,,,,,,,19,Female,2020-07-29_12h31.25.047,torte-2b,2020.1.3,Win32,60,13248,,,,,,,,,,,,space,,,,,,4,0.318775,0,23,23,23,1,,,,,,,,,,,,,,,,,,,,,,,,,,,,,,,,,,,,,,,,,
,,,,,,,,,,,,,,,,,,,,,,,,19,Female,2020-07-29_12h31.25.047,torte-2b,2020.1.3,Win32,60,13248,,,,,,,,,,,,,,,,,,6,,0,24,24,24,1,,,,,,,,,,,,,,,,,,,,,,,,,,,,,,,,,,,,,,,,,
,,,,,,,,,,,,,,,,,,,,,,,,19,Female,2020-07-29_12h31.25.047,torte-2b,2020.1.3,Win32,60,13248,,,,,,,,,,,,,,,,,,6,,0,25,25,25,1,,,,,,,,,,,,,,,,,,,,,,,,,,,,,,,,,,,,,,,,,
,,,,,,,,,,,,,,,,,,,,,,,,19,Female,2020-07-29_12h31.25.047,torte-2b,2020.1.3,Win32,60,13248,,,,,,,,,,,,,,,,,,7,,0,26,26,26,1,,,,,,,,,,,,,,,,,,,,,,,,,,,,,,,,,,,,,,,,,
,,,,,,,,,,,,,,,,,,,,,,,,19,Female,2020-07-29_12h31.25.047,torte-2b,2020.1.3,Win32,60,13248,,,,,,,,,,,,,,,,,,1,,0,27,27,27,1,,,,,,,,,,,,,,,,,,,,,,,,,,,,,,,,,,,,,,,,,
,,,,,,,,,,,,,,,,,,,,,,,,19,Female,2020-07-29_12h31.25.047,torte-2b,2020.1.3,Win32,60,13248,,,,,,,,,,,,space,,,,,,7,0.308265,0,28,28,28,1,,,,,,,,,,,,,,,,,,,,,,,,,,,,,,,,,,,,,,,,,
,,,,,,,,,,,,,,,,,,,,,,,,19,Female,2020-07-29_12h31.25.047,torte-2b,2020.1.3,Win32,60,13248,,,,,,,,,,,,,,,,,,4,,0,29,29,29,1,,,,,,,,,,,,,,,,,,,,,,,,,,,,,,,,,,,,,,,,,
,,,,,,,,,,,,,,,,,,,,,,,,19,Female,2020-07-29_12h31.25.047,torte-2b,2020.1.3,Win32,60,13248,,,,,,,,,,,,,,,,,,7,,0,30,30,30,1,,,,,,,,,,,,,,,,,,,,,,,,,,,,,,,,,,,,,,,,,
,,,,,,,,,,,,,,,,,,,,,,,,19,Female,2020-07-29_12h31.25.047,torte-2b,2020.1.3,Win32,60,13248,,,,,,,,,,,,,,,,,,3,,0,31,31,31,1,,,,,,,,,,,,,,,,,,,,,,,,,,,,,,,,,,,,,,,,,
,,,,,,,,,,,,,,,,,,,,,,,,19,Female,2020-07-29_12h31.25.047,torte-2b,2020.1.3,Win32,60,13248,,,,,,,,,,,,,,,,,,2,,0,32,32,32,1,,,,,,,,,,,,,,,,,,,,,,,,,,,,,,,,,,,,,,,,,
,,,,,,,,,,,,,,,,,,,,,,,,19,Female,2020-07-29_12h31.25.047,torte-2b,2020.1.3,Win32,60,13248,,,,,,,,,,,,,,,,,,6,,0,33,33,33,1,,,,,,,,,,,,,,,,,,,,,,,,,,,,,,,,,,,,,,,,,
,,,,,,,,,,,,,,,,,,,,,,,,19,Female,2020-07-29_12h31.25.047,torte-2b,2020.1.3,Win32,60,13248,,,,,,,,,,,,,,,,,,3,,0,34,34,34,1,,,,,,,,,,,,,,,,,,,,,,,,,,,,,,,,,,,,,,,,,
,,,,,,,,,,,,,,,,,,,,,,,,19,Female,2020-07-29_12h31.25.047,torte-2b,2020.1.3,Win32,60,13248,,,,,,,,,,,,,,,,,,7,,,,,,,0,0,0,0,1,,,,,,,,,,,,,,,,,,,,,,,,,,,,,,,,,,,,
,,,,,,,,,,,,,,,,,,,,,,,,19,Female,2020-07-29_12h31.25.047,torte-2b,2020.1.3,Win32,60,13248,,,,,,,,,,,,,,,,,,5,,,,,,,0,1,1,1,1,,,,,,,,,,,,,,,,,,,,,,,,,,,,,,,,,,,,
,,,,,,,,,,,,,,,,,,,,,,,,19,Female,2020-07-29_12h31.25.047,torte-2b,2020.1.3,Win32,60,13248,,,,,,,,,,,,,,,,,,4,,,,,,,0,2,2,2,1,,,,,,,,,,,,,,,,,,,,,,,,,,,,,,,,,,,,
,,,,,,,,,,,,,,,,,,,,,,,,19,Female,2020-07-29_12h31.25.047,torte-2b,2020.1.3,Win32,60,13248,,,,,,,,,,,,,,,,,,5,,,,,,,0,3,3,3,1,,,,,,,,,,,,,,,,,,,,,,,,,,,,,,,,,,,,
,,,,,,,,,,,,,,,,,,,,,,,,19,Female,2020-07-29_12h31.25.047,torte-2b,2020.1.3,Win32,60,13248,,,,,,,,,,,,,,,,,,6,,,,,,,0,4,4,4,1,,,,,,,,,,,,,,,,,,,,,,,,,,,,,,,,,,,,
,,,,,,,,,,,,,,,,,,,,,,,,19,Female,2020-07-29_12h31.25.047,torte-2b,2020.1.3,Win32,60,13248,,,,,,,,,,,,,,,,,,5,,,,,,,0,5,5,5,1,,,,,,,,,,,,,,,,,,,,,,,,,,,,,,,,,,,,
,,,,,,,,,,,,,,,,,,,,,,,,19,Female,2020-07-29_12h31.25.047,torte-2b,2020.1.3,Win32,60,13248,,,,,,,,,,,,,,,,,,3,,,,,,,0,6,6,6,1,,,,,,,,,,,,,,,,,,,,,,,,,,,,,,,,,,,,
,,,,,,,,,,,,,,,,,,,,,,,,19,Female,2020-07-29_12h31.25.047,torte-2b,2020.1.3,Win32,60,13248,,,,,,,,,,,,,,,,,,4,,,,,,,0,7,7,7,1,,,,,,,,,,,,,,,,,,,,,,,,,,,,,,,,,,,,
,,,,,,,,,,,,,,,,,,,,,,,,19,Female,2020-07-29_12h31.25.047,torte-2b,2020.1.3,Win32,60,13248,,,,,,,,,,,,space,,,,,,3,0.349765,,,,,,0,8,8,8,1,,,,,,,,,,,,,,,,,,,,,,,,,,,,,,,,,,,,
,,,,,,,,,,,,,,,,,,,,,,,,19,Female,2020-07-29_12h31.25.047,torte-2b,2020.1.3,Win32,60,13248,,,,,,,,,,,,,,,,,,1,,,,,,,0,9,9,9,1,,,,,,,,,,,,,,,,,,,,,,,,,,,,,,,,,,,,
,,,,,,,,,,,,,,,,,,,,,,,,19,Female,2020-07-29_12h31.25.047,torte-2b,2020.1.3,Win32,60,13248,,,,,,,,,,,,,,,,,,2,,,,,,,0,10,10,10,1,,,,,,,,,,,,,,,,,,,,,,,,,,,,,,,,,,,,
,,,,,,,,,,,,,,,,,,,,,,,,19,Female,2020-07-29_12h31.25.047,torte-2b,2020.1.3,Win32,60,13248,,,,,,,,,,,,space,,,,,,1,0.357935,,,,,,0,11,11,11,1,,,,,,,,,,,,,,,,,,,,,,,,,,,,,,,,,,,,
,,,,,,,,,,,,,,,,,,,,,,,,19,Female,2020-07-29_12h31.25.047,torte-2b,2020.1.3,Win32,60,13248,,,,,,,,,,,,,,,,,,2,,,,,,,0,12,12,12,1,,,,,,,,,,,,,,,,,,,,,,,,,,,,,,,,,,,,
,,,,,,,,,,,,,,,,,,,,,,,,19,Female,2020-07-29_12h31.25.047,torte-2b,2020.1.3,Win32,60,13248,,,,,,,,,,,,,,,,,,1,,,,,,,0,13,13,13,1,,,,,,,,,,,,,,,,,,,,,,,,,,,,,,,,,,,,
,,,,,,,,,,,,,,,,,,,,,,,,19,Female,2020-07-29_12h31.25.047,torte-2b,2020.1.3,Win32,60,13248,,,,,,,,,,,,,,,,,,3,,,,,,,0,14,14,14,1,,,,,,,,,,,,,,,,,,,,,,,,,,,,,,,,,,,,
,,,,,,,,,,,,,,,,,,,,,,,,19,Female,2020-07-29_12h31.25.047,torte-2b,2020.1.3,Win32,60,13248,,,,,,,,,,,,,,,,,,1,,,,,,,0,15,15,15,1,,,,,,,,,,,,,,,,,,,,,,,,,,,,,,,,,,,,
,,,,,,,,,,,,,,,,,,,,,,,,19,Female,2020-07-29_12h31.25.047,torte-2b,2020.1.3,Win32,60,13248,,,,,,,,,,,,,,,,,,7,,,,,,,0,16,16,16,1,,,,,,,,,,,,,,,,,,,,,,,,,,,,,,,,,,,,
,,,,,,,,,,,,,,,,,,,,,,,,19,Female,2020-07-29_12h31.25.047,torte-2b,2020.1.3,Win32,60,13248,,,,,,,,,,,,,,,,,,7,,,,,,,0,17,17,17,1,,,,,,,,,,,,,,,,,,,,,,,,,,,,,,,,,,,,
,,,,,,,,,,,,,,,,,,,,,,,,19,Female,2020-07-29_12h31.25.047,torte-2b,2020.1.3,Win32,60,13248,,,,,,,,,,,,,,,,,,4,,,,,,,0,18,18,18,1,,,,,,,,,,,,,,,,,,,,,,,,,,,,,,,,,,,,
,,,,,,,,,,,,,,,,,,,,,,,,19,Female,2020-07-29_12h31.25.047,torte-2b,2020.1.3,Win32,60,13248,,,,,,,,,,,,,,,,,,7,,,,,,,0,19,19,19,1,,,,,,,,,,,,,,,,,,,,,,,,,,,,,,,,,,,,
,,,,,,,,,,,,,,,,,,,,,,,,19,Female,2020-07-29_12h31.25.047,torte-2b,2020.1.3,Win32,60,13248,,,,,,,,,,,,,,,,,,3,,,,,,,0,20,20,20,1,,,,,,,,,,,,,,,,,,,,,,,,,,,,,,,,,,,,
,,,,,,,,,,,,,,,,,,,,,,,,19,Female,2020-07-29_12h31.25.047,torte-2b,2020.1.3,Win32,60,13248,,,,,,,,,,,,,,,,,,7,,,,,,,0,21,21,21,1,,,,,,,,,,,,,,,,,,,,,,,,,,,,,,,,,,,,
,,,,,,,,,,,,,,,,,,,,,,,,19,Female,2020-07-29_12h31.25.047,torte-2b,2020.1.3,Win32,60,13248,,,,,,,,,,,,space,,,,,,3,0.340705,,,,,,0,22,22,22,1,,,,,,,,,,,,,,,,,,,,,,,,,,,,,,,,,,,,
,,,,,,,,,,,,,,,,,,,,,,,,19,Female,2020-07-29_12h31.25.047,torte-2b,2020.1.3,Win32,60,13248,,,,,,,,,,,,,,,,,,1,,,,,,,0,23,23,23,1,,,,,,,,,,,,,,,,,,,,,,,,,,,,,,,,,,,,
,,,,,,,,,,,,,,,,,,,,,,,,19,Female,2020-07-29_12h31.25.047,torte-2b,2020.1.3,Win32,60,13248,,,,,,,,,,,,,,,,,,6,,,,,,,0,24,24,24,1,,,,,,,,,,,,,,,,,,,,,,,,,,,,,,,,,,,,
,,,,,,,,,,,,,,,,,,,,,,,,19,Female,2020-07-29_12h31.25.047,torte-2b,2020.1.3,Win32,60,13248,,,,,,,,,,,,,,,,,,3,,,,,,,0,25,25,25,1,,,,,,,,,,,,,,,,,,,,,,,,,,,,,,,,,,,,
,,,,,,,,,,,,,,,,,,,,,,,,19,Female,2020-07-29_12h31.25.047,torte-2b,2020.1.3,Win32,60,13248,,,,,,,,,,,,,,,,,,2,,,,,,,0,26,26,26,1,,,,,,,,,,,,,,,,,,,,,,,,,,,,,,,,,,,,
,,,,,,,,,,,,,,,,,,,,,,,,19,Female,2020-07-29_12h31.25.047,torte-2b,2020.1.3,Win32,60,13248,,,,,,,,,,,,space,,,,,,3,0.4061,,,,,,0,27,27,27,1,,,,,,,,,,,,,,,,,,,,,,,,,,,,,,,,,,,,
,,,,,,,,,,,,,,,,,,,,,,,,19,Female,2020-07-29_12h31.25.047,torte-2b,2020.1.3,Win32,60,13248,,,,,,,,,,,,,,,,,,1,,,,,,,0,28,28,28,1,,,,,,,,,,,,,,,,,,,,,,,,,,,,,,,,,,,,
,,,,,,,,,,,,,,,,,,,,,,,,19,Female,2020-07-29_12h31.25.047,torte-2b,2020.1.3,Win32,60,13248,,,,,,,,,,,,,,,,,,3,,,,,,,0,29,29,29,1,,,,,,,,,,,,,,,,,,,,,,,,,,,,,,,,,,,,
,,,,,,,,,,,,,,,,,,,,,,,,19,Female,2020-07-29_12h31.25.047,torte-2b,2020.1.3,Win32,60,13248,,,,,,,,,,,,,,,,,,1,,,,,,,0,30,30,30,1,,,,,,,,,,,,,,,,,,,,,,,,,,,,,,,,,,,,
,,,,,,,,,,,,,,,,,,,,,,,,19,Female,2020-07-29_12h31.25.047,torte-2b,2020.1.3,Win32,60,13248,,,,,,,,,,,,,,,,,,7,,,,,,,0,31,31,31,1,,,,,,,,,,,,,,,,,,,,,,,,,,,,,,,,,,,,
,,,,,,,,,,,,,,,,,,,,,,,,19,Female,2020-07-29_12h31.25.047,torte-2b,2020.1.3,Win32,60,13248,,,,,,,,,,,,,,,,,,5,,,,,,,0,32,32,32,1,,,,,,,,,,,,,,,,,,,,,,,,,,,,,,,,,,,,
,,,,,,,,,,,,,,,,,,,,,,,,19,Female,2020-07-29_12h31.25.047,torte-2b,2020.1.3,Win32,60,13248,,,,,,,,,,,,space,,,,,,7,0.371285,,,,,,0,33,33,33,1,,,,,,,,,,,,,,,,,,,,,,,,,,,,,,,,,,,,
,,,,,,,,,,,,,,,,,,,,,,,,19,Female,2020-07-29_12h31.25.047,torte-2b,2020.1.3,Win32,60,13248,,,,,,,,,,,,,,,,,,2,,,,,,,0,34,34,34,1,,,,,,,,,,,,,,,,,,,,,,,,,,,,,,,,,,,,
,,,,,,,,,,,,,,,,,,,,,,,,19,Female,2020-07-29_12h31.25.047,torte-2b,2020.1.3,Win32,60,13248,,,,,,,,,,,,,,,,,,3,,,,,,,,,,,,0,0,0,0,1,,,,,,,,,,,,,,,,,,,,,,,,,,,,,,,
,,,,,,,,,,,,,,,,,,,,,,,,19,Female,2020-07-29_12h31.25.047,torte-2b,2020.1.3,Win32,60,13248,,,,,,,,,,,,,,,,,,7,,,,,,,,,,,,0,1,1,1,1,,,,,,,,,,,,,,,,,,,,,,,,,,,,,,,
,,,,,,,,,,,,,,,,,,,,,,,,19,Female,2020-07-29_12h31.25.047,torte-2b,2020.1.3,Win32,60,13248,,,,,,,,,,,,,,,,,,7,,,,,,,,,,,,0,2,2,2,1,,,,,,,,,,,,,,,,,,,,,,,,,,,,,,,
,,,,,,,,,,,,,,,,,,,,,,,,19,Female,2020-07-29_12h31.25.047,torte-2b,2020.1.3,Win32,60,13248,,,,,,,,,,,,,,,,,,4,,,,,,,,,,,,0,3,3,3,1,,,,,,,,,,,,,,,,,,,,,,,,,,,,,,,
,,,,,,,,,,,,,,,,,,,,,,,,19,Female,2020-07-29_12h31.25.047,torte-2b,2020.1.3,Win32,60,13248,,,,,,,,,,,,,,,,,,5,,,,,,,,,,,,0,4,4,4,1,,,,,,,,,,,,,,,,,,,,,,,,,,,,,,,
,,,,,,,,,,,,,,,,,,,,,,,,19,Female,2020-07-29_12h31.25.047,torte-2b,2020.1.3,Win32,60,13248,,,,,,,,,,,,,,,,,,4,,,,,,,,,,,,0,5,5,5,1,,,,,,,,,,,,,,,,,,,,,,,,,,,,,,,
,,,,,,,,,,,,,,,,,,,,,,,,19,Female,2020-07-29_12h31.25.047,torte-2b,2020.1.3,Win32,60,13248,,,,,,,,,,,,,,,,,,2,,,,,,,,,,,,0,6,6,6,1,,,,,,,,,,,,,,,,,,,,,,,,,,,,,,,
,,,,,,,,,,,,,,,,,,,,,,,,19,Female,2020-07-29_12h31.25.047,torte-2b,2020.1.3,Win32,60,13248,,,,,,,,,,,,,,,,,,4,,,,,,,,,,,,0,7,7,7,1,,,,,,,,,,,,,,,,,,,,,,,,,,,,,,,
,,,,,,,,,,,,,,,,,,,,,,,,19,Female,2020-07-29_12h31.25.047,torte-2b,2020.1.3,Win32,60,13248,,,,,,,,,,,,space,,,,,,2,0.31501,,,,,,,,,,,0,8,8,8,1,,,,,,,,,,,,,,,,,,,,,,,,,,,,,,,
,,,,,,,,,,,,,,,,,,,,,,,,19,Female,2020-07-29_12h31.25.047,torte-2b,2020.1.3,Win32,60,13248,,,,,,,,,,,,,,,,,,2,,,,,,,,,,,,0,9,9,9,1,,,,,,,,,,,,,,,,,,,,,,,,,,,,,,,
,,,,,,,,,,,,,,,,,,,,,,,,19,Female,2020-07-29_12h31.25.047,torte-2b,2020.1.3,Win32,60,13248,,,,,,,,,,,,,,,,,,6,,,,,,,,,,,,0,10,10,10,1,,,,,,,,,,,,,,,,,,,,,,,,,,,,,,,
,,,,,,,,,,,,,,,,,,,,,,,,19,Female,2020-07-29_12h31.25.047,torte-2b,2020.1.3,Win32,60,13248,,,,,,,,,,,,space,,,,,,2,0.307465,,,,,,,,,,,0,11,11,11,1,,,,,,,,,,,,,,,,,,,,,,,,,,,,,,,
,,,,,,,,,,,,,,,,,,,,,,,,19,Female,2020-07-29_12h31.25.047,torte-2b,2020.1.3,Win32,60,13248,,,,,,,,,,,,,,,,,,2,,,,,,,,,,,,0,12,12,12,1,,,,,,,,,,,,,,,,,,,,,,,,,,,,,,,
,,,,,,,,,,,,,,,,,,,,,,,,19,Female,2020-07-29_12h31.25.047,torte-2b,2020.1.3,Win32,60,13248,,,,,,,,,,,,,,,,,,2,,,,,,,,,,,,0,13,13,13,1,,,,,,,,,,,,,,,,,,,,,,,,,,,,,,,
,,,,,,,,,,,,,,,,,,,,,,,,19,Female,2020-07-29_12h31.25.047,torte-2b,2020.1.3,Win32,60,13248,,,,,,,,,,,,space,,,,,,2,0.33284,,,,,,,,,,,0,14,14,14,1,,,,,,,,,,,,,,,,,,,,,,,,,,,,,,,
,,,,,,,,,,,,,,,,,,,,,,,,19,Female,2020-07-29_12h31.25.047,torte-2b,2020.1.3,Win32,60,13248,,,,,,,,,,,,,,,,,,4,,,,,,,,,,,,0,15,15,15,1,,,,,,,,,,,,,,,,,,,,,,,,,,,,,,,
,,,,,,,,,,,,,,,,,,,,,,,,19,Female,2020-07-29_12h31.25.047,torte-2b,2020.1.3,Win32,60,13248,,,,,,,,,,,,,,,,,,3,,,,,,,,,,,,0,16,16,16,1,,,,,,,,,,,,,,,,,,,,,,,,,,,,,,,
,,,,,,,,,,,,,,,,,,,,,,,,19,Female,2020-07-29_12h31.25.047,torte-2b,2020.1.3,Win32,60,13248,,,,,,,,,,,,,,,,,,7,,,,,,,,,,,,0,17,17,17,1,,,,,,,,,,,,,,,,,,,,,,,,,,,,,,,
,,,,,,,,,,,,,,,,,,,,,,,,19,Female,2020-07-29_12h31.25.047,torte-2b,2020.1.3,Win32,60,13248,,,,,,,,,,,,,,,,,,4,,,,,,,,,,,,0,18,18,18,1,,,,,,,,,,,,,,,,,,,,,,,,,,,,,,,
,,,,,,,,,,,,,,,,,,,,,,,,19,Female,2020-07-29_12h31.25.047,torte-2b,2020.1.3,Win32,60,13248,,,,,,,,,,,,space,,,,,,7,0.33693,,,,,,,,,,,0,19,19,19,1,,,,,,,,,,,,,,,,,,,,,,,,,,,,,,,
,,,,,,,,,,,,,,,,,,,,,,,,19,Female,2020-07-29_12h31.25.047,torte-2b,2020.1.3,Win32,60,13248,,,,,,,,,,,,,,,,,,7,,,,,,,,,,,,0,20,20,20,1,,,,,,,,,,,,,,,,,,,,,,,,,,,,,,,
,,,,,,,,,,,,,,,,,,,,,,,,19,Female,2020-07-29_12h31.25.047,torte-2b,2020.1.3,Win32,60,13248,,,,,,,,,,,,,,,,,,7,,,,,,,,,,,,0,21,21,21,1,,,,,,,,,,,,,,,,,,,,,,,,,,,,,,,
,,,,,,,,,,,,,,,,,,,,,,,,19,Female,2020-07-29_12h31.25.047,torte-2b,2020.1.3,Win32,60,13248,,,,,,,,,,,,space,,,,,,7,0.366855,,,,,,,,,,,0,22,22,22,1,,,,,,,,,,,,,,,,,,,,,,,,,,,,,,,
,,,,,,,,,,,,,,,,,,,,,,,,19,Female,2020-07-29_12h31.25.047,torte-2b,2020.1.3,Win32,60,13248,,,,,,,,,,,,,,,,,,1,,,,,,,,,,,,0,23,23,23,1,,,,,,,,,,,,,,,,,,,,,,,,,,,,,,,
,,,,,,,,,,,,,,,,,,,,,,,,19,Female,2020-07-29_12h31.25.047,torte-2b,2020.1.3,Win32,60,13248,,,,,,,,,,,,,,,,,,7,,,,,,,,,,,,0,24,24,24,1,,,,,,,,,,,,,,,,,,,,,,,,,,,,,,,
,,,,,,,,,,,,,,,,,,,,,,,,19,Female,2020-07-29_12h31.25.047,torte-2b,2020.1.3,Win32,60,13248,,,,,,,,,,,,space,,,,,,1,0.33537,,,,,,,,,,,0,25,25,25,1,,,,,,,,,,,,,,,,,,,,,,,,,,,,,,,
,,,,,,,,,,,,,,,,,,,,,,,,19,Female,2020-07-29_12h31.25.047,torte-2b,2020.1.3,Win32,60,13248,,,,,,,,,,,,,,,,,,7,,,,,,,,,,,,0,26,26,26,1,,,,,,,,,,,,,,,,,,,,,,,,,,,,,,,
,,,,,,,,,,,,,,,,,,,,,,,,19,Female,2020-07-29_12h31.25.047,torte-2b,2020.1.3,Win32,60,13248,,,,,,,,,,,,,,,,,,2,,,,,,,,,,,,0,27,27,27,1,,,,,,,,,,,,,,,,,,,,,,,,,,,,,,,
,,,,,,,,,,,,,,,,,,,,,,,,19,Female,2020-07-29_12h31.25.047,torte-2b,2020.1.3,Win32,60,13248,,,,,,,,,,,,,,,,,,5,,,,,,,,,,,,0,28,28,28,1,,,,,,,,,,,,,,,,,,,,,,,,,,,,,,,
,,,,,,,,,,,,,,,,,,,,,,,,19,Female,2020-07-29_12h31.25.047,torte-2b,2020.1.3,Win32,60,13248,,,,,,,,,,,,,,,,,,5,,,,,,,,,,,,0,29,29,29,1,,,,,,,,,,,,,,,,,,,,,,,,,,,,,,,
,,,,,,,,,,,,,,,,,,,,,,,,19,Female,2020-07-29_12h31.25.047,torte-2b,2020.1.3,Win32,60,13248,,,,,,,,,,,,space,,,,,,5,0.35266,,,,,,,,,,,0,30,30,30,1,,,,,,,,,,,,,,,,,,,,,,,,,,,,,,,
,,,,,,,,,,,,,,,,,,,,,,,,19,Female,2020-07-29_12h31.25.047,torte-2b,2020.1.3,Win32,60,13248,,,,,,,,,,,,,,,,,,1,,,,,,,,,,,,0,31,31,31,1,,,,,,,,,,,,,,,,,,,,,,,,,,,,,,,
,,,,,,,,,,,,,,,,,,,,,,,,19,Female,2020-07-29_12h31.25.047,torte-2b,2020.1.3,Win32,60,13248,,,,,,,,,,,,,,,,,,5,,,,,,,,,,,,0,32,32,32,1,,,,,,,,,,,,,,,,,,,,,,,,,,,,,,,
,,,,,,,,,,,,,,,,,,,,,,,,19,Female,2020-07-29_12h31.25.047,torte-2b,2020.1.3,Win32,60,13248,,,,,,,,,,,,,,,,,,3,,,,,,,,,,,,0,33,33,33,1,,,,,,,,,,,,,,,,,,,,,,,,,,,,,,,
,,,,,,,,,,,,,,,,,,,,,,,,19,Female,2020-07-29_12h31.25.047,torte-2b,2020.1.3,Win32,60,13248,,,,,,,,,,,,,,,,,,3,,,,,,,,,,,,0,34,34,34,1,,,,,,,,,,,,,,,,,,,,,,,,,,,,,,,
,,,,,,,,,,,,a,1.96504,Correct!,,,,,,t2.png,t2.png,0,0.98115,19,Female,2020-07-29_12h31.25.047,torte-2b,2020.1.3,Win32,60,13248,space,1.482115,,,,,,,,,,,,,,,,,,,,,,,,,,,,,,,,,space,7.65775,0,0,0,112,1,,,,,,,,,,,,,,,,,,,,,,,,
,,,,,,,,,,,,a,1.221855,Correct!,,,,,,t1.png,t1.png,0,0.978,19,Female,2020-07-29_12h31.25.047,torte-2b,2020.1.3,Win32,60,13248,,,,,,,,,,,,,,,,,,,,,,,,,,,,,,,,,,,,,0,1,1,13,1,,,,,,,,,,,,,,,,,,,,,,,,
,,,,,,,,,,,,l,1.10494,Correct!,,,,,,t1.png,t5.png,4,9.55E-11,19,Female,2020-07-29_12h31.25.047,torte-2b,2020.1.3,Win32,60,13248,,,,,,,,,,,,,,,,,,,,,,,,,,,,,,,,,,,,,0,2,2,20,1,,,,,,,,,,,,,,,,,,,,,,,,
,,,,,,,,,,,,l,0.86894,Incorrect,,,,,,t4.png,t4.png,0,0.98115,19,Female,2020-07-29_12h31.25.047,torte-2b,2020.1.3,Win32,60,13248,,,,,,,,,,,,,,,,,,,,,,,,,,,,,,,,,,,,,0,3,3,19,1,,,,,,,,,,,,,,,,,,,,,,,,
,,,,,,,,,,,,l,1.905815,Correct!,,,,,,t4.png,t1.png,3,0.059078,19,Female,2020-07-29_12h31.25.047,torte-2b,2020.1.3,Win32,60,13248,,,,,,,,,,,,,,,,,,,,,,,,,,,,,,,,,,,,,0,4,4,75,1,,,,,,,,,,,,,,,,,,,,,,,,
,,,,,,,,,,,,a,1.33825,Correct!,,,,,,t2.png,t3.png,1,0.90855,19,Female,2020-07-29_12h31.25.047,torte-2b,2020.1.3,Win32,60,13248,,,,,,,,,,,,,,,,,,,,,,,,,,,,,,,,,,,,,0,5,5,70,1,,,,,,,,,,,,,,,,,,,,,,,,
,,,,,,,,,,,,a,1.14972,Incorrect,,,,,,t2.png,t5.png,3,0.0000131,19,Female,2020-07-29_12h31.25.047,torte-2b,2020.1.3,Win32,60,13248,,,,,,,,,,,,,,,,,,,,,,,,,,,,,,,,,,,,,0,6,6,115,1,,,,,,,,,,,,,,,,,,,,,,,,
,,,,,,,,,,,,l,1.334925,Incorrect,,,,,,t4.png,t4.png,0,0.98115,19,Female,2020-07-29_12h31.25.047,torte-2b,2020.1.3,Win32,60,13248,,,,,,,,,,,,,,,,,,,,,,,,,,,,,,,,,,,,,0,7,7,88,1,,,,,,,,,,,,,,,,,,,,,,,,
,,,,,,,,,,,,a,1.199445,Correct!,,,,,,t5.png,t4.png,1,0.90025,19,Female,2020-07-29_12h31.25.047,torte-2b,2020.1.3,Win32,60,13248,,,,,,,,,,,,,,,,,,,,,,,,,,,,,,,,,,,,,0,8,8,38,1,,,,,,,,,,,,,,,,,,,,,,,,
,,,,,,,,,,,,a,0.54863,Incorrect,,,,,,t5.png,t3.png,2,0.056466,19,Female,2020-07-29_12h31.25.047,torte-2b,2020.1.3,Win32,60,13248,,,,,,,,,,,,,,,,,,,,,,,,,,,,,,,,,,,,,0,9,9,27,1,,,,,,,,,,,,,,,,,,,,,,,,
,,,,,,,,,,,,a,0.61473,Incorrect,,,,,,t5.png,t2.png,3,0.0000131,19,Female,2020-07-29_12h31.25.047,torte-2b,2020.1.3,Win32,60,13248,,,,,,,,,,,,,,,,,,,,,,,,,,,,,,,,,,,,,0,10,10,43,1,,,,,,,,,,,,,,,,,,,,,,,,
,,,,,,,,,,,,l,1.3792,Incorrect,,,,,,t3.png,t2.png,1,0.90855,19,Female,2020-07-29_12h31.25.047,torte-2b,2020.1.3,Win32,60,13248,,,,,,,,,,,,,,,,,,,,,,,,,,,,,,,,,,,,,0,11,11,94,1,,,,,,,,,,,,,,,,,,,,,,,,
,,,,,,,,,,,,a,0.467975,Incorrect,,,,,,t3.png,t1.png,2,0.0565,19,Female,2020-07-29_12h31.25.047,torte-2b,2020.1.3,Win32,60,13248,,,,,,,,,,,,,,,,,,,,,,,,,,,,,,,,,,,,,0,12,12,40,1,,,,,,,,,,,,,,,,,,,,,,,,
,,,,,,,,,,,,a,0.46727,Incorrect,,,,,,t4.png,t1.png,3,0.059078,19,Female,2020-07-29_12h31.25.047,torte-2b,2020.1.3,Win32,60,13248,,,,,,,,,,,,,,,,,,,,,,,,,,,,,,,,,,,,,0,13,13,73,1,,,,,,,,,,,,,,,,,,,,,,,,
,,,,,,,,,,,,l,0.8029,Correct!,,,,,,t4.png,t1.png,3,0.0000131,19,Female,2020-07-29_12h31.25.047,torte-2b,2020.1.3,Win32,60,13248,,,,,,,,,,,,,,,,,,,,,,,,,,,,,,,,,,,,,0,14,14,102,1,,,,,,,,,,,,,,,,,,,,,,,,
,,,,,,,,,,,,a,0.919235,Incorrect,,,,,,t5.png,t1.png,4,9.55E-11,19,Female,2020-07-29_12h31.25.047,torte-2b,2020.1.3,Win32,60,13248,,,,,,,,,,,,,,,,,,,,,,,,,,,,,,,,,,,,,0,15,15,117,1,,,,,,,,,,,,,,,,,,,,,,,,
,,,,,,,,,,,,a,1.649815,Correct!,,,,,,t3.png,t4.png,1,0.90855,19,Female,2020-07-29_12h31.25.047,torte-2b,2020.1.3,Win32,60,13248,,,,,,,,,,,,,,,,,,,,,,,,,,,,,,,,,,,,,0,16,16,58,1,,,,,,,,,,,,,,,,,,,,,,,,
,,,,,,,,,,,,l,1.04862,Incorrect,,,,,,t1.png,t1.png,0,0.97829,19,Female,2020-07-29_12h31.25.047,torte-2b,2020.1.3,Win32,60,13248,,,,,,,,,,,,,,,,,,,,,,,,,,,,,,,,,,,,,0,17,17,4,1,,,,,,,,,,,,,,,,,,,,,,,,
,,,,,,,,,,,,a,1.216385,Correct!,,,,,,t5.png,t4.png,1,0.90025,19,Female,2020-07-29_12h31.25.047,torte-2b,2020.1.3,Win32,60,13248,,,,,,,,,,,,,,,,,,,,,,,,,,,,,,,,,,,,,0,18,18,25,1,,,,,,,,,,,,,,,,,,,,,,,,
,,,,,,,,,,,,a,1.33726,Incorrect,,,,,,t1.png,t3.png,2,0.056466,19,Female,2020-07-29_12h31.25.047,torte-2b,2020.1.3,Win32,60,13248,,,,,,,,,,,,,,,,,,,,,,,,,,,,,,,,,,,,,0,19,19,32,1,,,,,,,,,,,,,,,,,,,,,,,,
,,,,,,,,,,,,a,2.220275,Incorrect,,,,,,t1.png,t2.png,1,0.90025,19,Female,2020-07-29_12h31.25.047,torte-2b,2020.1.3,Win32,60,13248,,,,,,,,,,,,,,,,,,,,,,,,,,,,,,,,,,,,,0,20,20,96,1,,,,,,,,,,,,,,,,,,,,,,,,
,,,,,,,,,,,,a,1.452225,Incorrect,,,,,,t1.png,t4.png,3,0.0000131,19,Female,2020-07-29_12h31.25.047,torte-2b,2020.1.3,Win32,60,13248,,,,,,,,,,,,,,,,,,,,,,,,,,,,,,,,,,,,,0,21,21,74,1,,,,,,,,,,,,,,,,,,,,,,,,
,,,,,,,,,,,,a,0.86793,Correct!,,,,,,t2.png,t2.png,0,0.98115,19,Female,2020-07-29_12h31.25.047,torte-2b,2020.1.3,Win32,60,13248,,,,,,,,,,,,,,,,,,,,,,,,,,,,,,,,,,,,,0,22,22,69,1,,,,,,,,,,,,,,,,,,,,,,,,
,,,,,,,,,,,,a,1.18263,Correct!,,,,,,t4.png,t3.png,1,0.90855,19,Female,2020-07-29_12h31.25.047,torte-2b,2020.1.3,Win32,60,13248,,,,,,,,,,,,,,,,,,,,,,,,,,,,,,,,,,,,,0,23,23,56,1,,,,,,,,,,,,,,,,,,,,,,,,
,,,,,,,,,,,,a,0.965485,Incorrect,,,,,,t2.png,t4.png,2,0.059078,19,Female,2020-07-29_12h31.25.047,torte-2b,2020.1.3,Win32,60,13248,,,,,,,,,,,,,,,,,,,,,,,,,,,,,,,,,,,,,0,24,24,84,1,,,,,,,,,,,,,,,,,,,,,,,,
,,,,,,,,,,,,l,1.60659,Correct!,,,,,,t5.png,t3.png,2,0.0565,19,Female,2020-07-29_12h31.25.047,torte-2b,2020.1.3,Win32,60,13248,,,,,,,,,,,,,,,,,,,,,,,,,,,,,,,,,,,,,0,25,25,50,1,,,,,,,,,,,,,,,,,,,,,,,,
,,,,,,,,,,,,a,0.89136,Incorrect,,,,,,t1.png,t4.png,3,0.0000131,19,Female,2020-07-29_12h31.25.047,torte-2b,2020.1.3,Win32,60,13248,,,,,,,,,,,,,,,,,,,,,,,,,,,,,,,,,,,,,0,26,26,23,1,,,,,,,,,,,,,,,,,,,,,,,,
,,,,,,,,,,,,a,0.999665,Incorrect,,,,,,t1.png,t4.png,3,0.0000131,19,Female,2020-07-29_12h31.25.047,torte-2b,2020.1.3,Win32,60,13248,,,,,,,,,,,,,,,,,,,,,,,,,,,,,,,,,,,,,0,27,27,106,1,,,,,,,,,,,,,,,,,,,,,,,,
,,,,,,,,,,,,l,1.45097,Incorrect,,,,,,t3.png,t2.png,1,0.90855,19,Female,2020-07-29_12h31.25.047,torte-2b,2020.1.3,Win32,60,13248,,,,,,,,,,,,,,,,,,,,,,,,,,,,,,,,,,,,,0,28,28,99,1,,,,,,,,,,,,,,,,,,,,,,,,
,,,,,,,,,,,,l,1.63272,Incorrect,,,,,,t4.png,t3.png,1,0.90855,19,Female,2020-07-29_12h31.25.047,torte-2b,2020.1.3,Win32,60,13248,,,,,,,,,,,,,,,,,,,,,,,,,,,,,,,,,,,,,0,29,29,11,1,,,,,,,,,,,,,,,,,,,,,,,,
,,,,,,,,,,,,a,2.34457,Correct!,,,,,,t4.png,t4.png,0,0.98115,19,Female,2020-07-29_12h31.25.047,torte-2b,2020.1.3,Win32,60,13248,,,,,,,,,,,,,,,,,,,,,,,,,,,,,,,,,,,,,0,30,30,59,1,,,,,,,,,,,,,,,,,,,,,,,,
,,,,,,,,,,,,a,1.333835,Correct!,,,,,,t4.png,t5.png,1,0.90025,19,Female,2020-07-29_12h31.25.047,torte-2b,2020.1.3,Win32,60,13248,,,,,,,,,,,,,,,,,,,,,,,,,,,,,,,,,,,,,0,31,31,33,1,,,,,,,,,,,,,,,,,,,,,,,,
,,,,,,,,,,,,a,1.118945,Correct!,,,,,,t2.png,t3.png,1,0.909,19,Female,2020-07-29_12h31.25.047,torte-2b,2020.1.3,Win32,60,13248,,,,,,,,,,,,,,,,,,,,,,,,,,,,,,,,,,,,,0,32,32,8,1,,,,,,,,,,,,,,,,,,,,,,,,
,,,,,,,,,,,,a,1.351585,Incorrect,,,,,,t1.png,t3.png,2,0.0565,19,Female,2020-07-29_12h31.25.047,torte-2b,2020.1.3,Win32,60,13248,,,,,,,,,,,,,,,,,,,,,,,,,,,,,,,,,,,,,0,33,33,42,1,,,,,,,,,,,,,,,,,,,,,,,,
,,,,,,,,,,,,l,1.269515,Correct!,,,,,,t2.png,t4.png,2,0.059078,19,Female,2020-07-29_12h31.25.047,torte-2b,2020.1.3,Win32,60,13248,,,,,,,,,,,,,,,,,,,,,,,,,,,,,,,,,,,,,0,34,34,53,1,,,,,,,,,,,,,,,,,,,,,,,,
,,,,,,,,,,,,l,1.483295,Correct!,,,,,,t5.png,t1.png,4,9.55E-11,19,Female,2020-07-29_12h31.25.047,torte-2b,2020.1.3,Win32,60,13248,,,,,,,,,,,,,,,,,,,,,,,,,,,,,,,,,,,,,0,35,35,15,1,,,,,,,,,,,,,,,,,,,,,,,,
,,,,,,,,,,,,a,1.093725,Incorrect,,,,,,t4.png,t1.png,3,0.0000131,19,Female,2020-07-29_12h31.25.047,torte-2b,2020.1.3,Win32,60,13248,,,,,,,,,,,,,,,,,,,,,,,,,,,,,,,,,,,,,0,36,36,49,1,,,,,,,,,,,,,,,,,,,,,,,,
,,,,,,,,,,,,a,1.609045,Incorrect,,,,,,t1.png,t3.png,2,0.056466,19,Female,2020-07-29_12h31.25.047,torte-2b,2020.1.3,Win32,60,13248,,,,,,,,,,,,,,,,,,,,,,,,,,,,,,,,,,,,,0,37,37,24,1,,,,,,,,,,,,,,,,,,,,,,,,
,,,,,,,,,,,,a,1.491805,Correct!,,,,,,t1.png,t1.png,0,0.978,19,Female,2020-07-29_12h31.25.047,torte-2b,2020.1.3,Win32,60,13248,,,,,,,,,,,,,,,,,,,,,,,,,,,,,,,,,,,,,0,38,38,22,1,,,,,,,,,,,,,,,,,,,,,,,,
,,,,,,,,,,,,a,1.7585,Correct!,,,,,,t5.png,t5.png,0,0.97829,19,Female,2020-07-29_12h31.25.047,torte-2b,2020.1.3,Win32,60,13248,,,,,,,,,,,,,,,,,,,,,,,,,,,,,,,,,,,,,0,39,39,35,1,,,,,,,,,,,,,,,,,,,,,,,,
,,,,,,,,,,,,l,1.200425,Correct!,,,,,,t1.png,t5.png,4,9.55E-11,19,Female,2020-07-29_12h31.25.047,torte-2b,2020.1.3,Win32,60,13248,,,,,,,,,,,,,,,,,,,,,,,,,,,,,,,,,,,,,0,40,40,118,1,,,,,,,,,,,,,,,,,,,,,,,,
,,,,,,,,,,,,a,1.28516,Correct!,,,,,,t5.png,t4.png,1,0.9,19,Female,2020-07-29_12h31.25.047,torte-2b,2020.1.3,Win32,60,13248,,,,,,,,,,,,,,,,,,,,,,,,,,,,,,,,,,,,,0,41,41,92,1,,,,,,,,,,,,,,,,,,,,,,,,
,,,,,,,,,,,,l,1.917885,Incorrect,,,,,,t4.png,t4.png,0,0.98115,19,Female,2020-07-29_12h31.25.047,torte-2b,2020.1.3,Win32,60,13248,,,,,,,,,,,,,,,,,,,,,,,,,,,,,,,,,,,,,0,42,42,68,1,,,,,,,,,,,,,,,,,,,,,,,,
,,,,,,,,,,,,a,1.315405,Correct!,,,,,,t5.png,t4.png,1,0.9,19,Female,2020-07-29_12h31.25.047,torte-2b,2020.1.3,Win32,60,13248,,,,,,,,,,,,,,,,,,,,,,,,,,,,,,,,,,,,,0,43,43,55,1,,,,,,,,,,,,,,,,,,,,,,,,
,,,,,,,,,,,,l,0.954525,Correct!,,,,,,t1.png,t5.png,4,9.55E-11,19,Female,2020-07-29_12h31.25.047,torte-2b,2020.1.3,Win32,60,13248,,,,,,,,,,,,,,,,,,,,,,,,,,,,,,,,,,,,,0,44,44,1,1,,,,,,,,,,,,,,,,,,,,,,,,
,,,,,,,,,,,,l,0.932305,Correct!,,,,,,t5.png,t1.png,4,9.55E-11,19,Female,2020-07-29_12h31.25.047,torte-2b,2020.1.3,Win32,60,13248,,,,,,,,,,,,,,,,,,,,,,,,,,,,,,,,,,,,,0,45,45,31,1,,,,,,,,,,,,,,,,,,,,,,,,
,,,,,,,,,,,,a,1.638735,Correct!,,,,,,t4.png,t4.png,0,0.98115,19,Female,2020-07-29_12h31.25.047,torte-2b,2020.1.3,Win32,60,13248,,,,,,,,,,,,,,,,,,,,,,,,,,,,,,,,,,,,,0,46,46,52,1,,,,,,,,,,,,,,,,,,,,,,,,
,,,,,,,,,,,,l,1.253365,Correct!,,,,,,t3.png,t1.png,2,0.0565,19,Female,2020-07-29_12h31.25.047,torte-2b,2020.1.3,Win32,60,13248,,,,,,,,,,,,,,,,,,,,,,,,,,,,,,,,,,,,,0,47,47,104,1,,,,,,,,,,,,,,,,,,,,,,,,
,,,,,,,,,,,,l,0.866155,Correct!,,,,,,t3.png,t1.png,2,0.056466,19,Female,2020-07-29_12h31.25.047,torte-2b,2020.1.3,Win32,60,13248,,,,,,,,,,,,,,,,,,,,,,,,,,,,,,,,,,,,,0,48,48,72,1,,,,,,,,,,,,,,,,,,,,,,,,
,,,,,,,,,,,,a,1.40312,Incorrect,,,,,,t4.png,t1.png,3,0.059078,19,Female,2020-07-29_12h31.25.047,torte-2b,2020.1.3,Win32,60,13248,,,,,,,,,,,,,,,,,,,,,,,,,,,,,,,,,,,,,0,49,49,87,1,,,,,,,,,,,,,,,,,,,,,,,,
,,,,,,,,,,,,a,1.79893,Incorrect,,,,,,t4.png,t1.png,3,0.0000131,19,Female,2020-07-29_12h31.25.047,torte-2b,2020.1.3,Win32,60,13248,,,,,,,,,,,,,,,,,,,,,,,,,,,,,,,,,,,,,0,50,50,76,1,,,,,,,,,,,,,,,,,,,,,,,,
,,,,,,,,,,,,l,1.926465,Correct!,,,,,,t5.png,t2.png,3,0.0000131,19,Female,2020-07-29_12h31.25.047,torte-2b,2020.1.3,Win32,60,13248,,,,,,,,,,,,,,,,,,,,,,,,,,,,,,,,,,,,,0,51,51,48,1,,,,,,,,,,,,,,,,,,,,,,,,
,,,,,,,,,,,,a,2.04223,Correct!,,,,,,t2.png,t1.png,1,0.90025,19,Female,2020-07-29_12h31.25.047,torte-2b,2020.1.3,Win32,60,13248,,,,,,,,,,,,,,,,,,,,,,,,,,,,,,,,,,,,,0,52,52,105,1,,,,,,,,,,,,,,,,,,,,,,,,
,,,,,,,,,,,,a,1.28181,Correct!,,,,,,t2.png,t2.png,0,0.981,19,Female,2020-07-29_12h31.25.047,torte-2b,2020.1.3,Win32,60,13248,,,,,,,,,,,,,,,,,,,,,,,,,,,,,,,,,,,,,0,53,53,98,1,,,,,,,,,,,,,,,,,,,,,,,,
,,,,,,,,,,,,a,1.33668,Incorrect,,,,,,t3.png,t5.png,2,0.056466,19,Female,2020-07-29_12h31.25.047,torte-2b,2020.1.3,Win32,60,13248,,,,,,,,,,,,,,,,,,,,,,,,,,,,,,,,,,,,,0,54,54,45,1,,,,,,,,,,,,,,,,,,,,,,,,
,,,,,,,,,,,,l,2.2225,Incorrect,,,,,,t4.png,t3.png,1,0.909,19,Female,2020-07-29_12h31.25.047,torte-2b,2020.1.3,Win32,60,13248,,,,,,,,,,,,,,,,,,,,,,,,,,,,,,,,,,,,,0,55,55,107,1,,,,,,,,,,,,,,,,,,,,,,,,
,,,,,,,,,,,,l,1.511645,Incorrect,,,,,,t5.png,t5.png,0,0.97829,19,Female,2020-07-29_12h31.25.047,torte-2b,2020.1.3,Win32,60,13248,,,,,,,,,,,,,,,,,,,,,,,,,,,,,,,,,,,,,0,56,56,2,1,,,,,,,,,,,,,,,,,,,,,,,,
,,,,,,,,,,,,l,1.572605,Correct!,,,,,,t3.png,t2.png,1,0.90855,19,Female,2020-07-29_12h31.25.047,torte-2b,2020.1.3,Win32,60,13248,,,,,,,,,,,,,,,,,,,,,,,,,,,,,,,,,,,,,0,57,57,0,1,,,,,,,,,,,,,,,,,,,,,,,,
,,,,,,,,,,,,l,1.676335,Correct!,,,,,,t4.png,t1.png,3,0.0000131,19,Female,2020-07-29_12h31.25.047,torte-2b,2020.1.3,Win32,60,13248,,,,,,,,,,,,,,,,,,,,,,,,,,,,,,,,,,,,,0,58,58,91,1,,,,,,,,,,,,,,,,,,,,,,,,
,,,,,,,,,,,,l,1.40701,Incorrect,,,,,,t1.png,t1.png,0,0.97829,19,Female,2020-07-29_12h31.25.047,torte-2b,2020.1.3,Win32,60,13248,,,,,,,,,,,,,,,,,,,,,,,,,,,,,,,,,,,,,0,59,59,114,1,,,,,,,,,,,,,,,,,,,,,,,,
,,,,,,,,,,,,a,1.27094,Correct!,,,,,,t4.png,t5.png,1,0.9,19,Female,2020-07-29_12h31.25.047,torte-2b,2020.1.3,Win32,60,13248,,,,,,,,,,,,,,,,,,,,,,,,,,,,,,,,,,,,,0,60,60,81,1,,,,,,,,,,,,,,,,,,,,,,,,
,,,,,,,,,,,,a,1.50168,Incorrect,,,,,,t5.png,t1.png,4,9.55E-11,19,Female,2020-07-29_12h31.25.047,torte-2b,2020.1.3,Win32,60,13248,,,,,,,,,,,,,,,,,,,,,,,,,,,,,,,,,,,,,0,61,61,101,1,,,,,,,,,,,,,,,,,,,,,,,,
,,,,,,,,,,,,a,1.66775,Correct!,,,,,,t4.png,t5.png,1,0.90025,19,Female,2020-07-29_12h31.25.047,torte-2b,2020.1.3,Win32,60,13248,,,,,,,,,,,,,,,,,,,,,,,,,,,,,,,,,,,,,0,62,62,21,1,,,,,,,,,,,,,,,,,,,,,,,,
,,,,,,,,,,,,a,2.00719,Incorrect,,,,,,t5.png,t1.png,4,9.55E-11,19,Female,2020-07-29_12h31.25.047,torte-2b,2020.1.3,Win32,60,13248,,,,,,,,,,,,,,,,,,,,,,,,,,,,,,,,,,,,,0,63,63,89,1,,,,,,,,,,,,,,,,,,,,,,,,
,,,,,,,,,,,,a,1.07245,Correct!,,,,,,t2.png,t3.png,1,0.90855,19,Female,2020-07-29_12h31.25.047,torte-2b,2020.1.3,Win32,60,13248,,,,,,,,,,,,,,,,,,,,,,,,,,,,,,,,,,,,,0,64,64,113,1,,,,,,,,,,,,,,,,,,,,,,,,
,,,,,,,,,,,,l,1.43176,Correct!,,,,,,t4.png,t1.png,3,0.059078,19,Female,2020-07-29_12h31.25.047,torte-2b,2020.1.3,Win32,60,13248,,,,,,,,,,,,,,,,,,,,,,,,,,,,,,,,,,,,,0,65,65,57,1,,,,,,,,,,,,,,,,,,,,,,,,
,,,,,,,,,,,,a,1.75281,Correct!,,,,,,t2.png,t1.png,1,0.9,19,Female,2020-07-29_12h31.25.047,torte-2b,2020.1.3,Win32,60,13248,,,,,,,,,,,,,,,,,,,,,,,,,,,,,,,,,,,,,0,66,66,100,1,,,,,,,,,,,,,,,,,,,,,,,,
,,,,,,,,,,,,l,1.181985,Incorrect,,,,,,t3.png,t2.png,1,0.90855,19,Female,2020-07-29_12h31.25.047,torte-2b,2020.1.3,Win32,60,13248,,,,,,,,,,,,,,,,,,,,,,,,,,,,,,,,,,,,,0,67,67,108,1,,,,,,,,,,,,,,,,,,,,,,,,
,,,,,,,,,,,,a,1.48986,Incorrect,,,,,,t5.png,t2.png,3,0.0000131,19,Female,2020-07-29_12h31.25.047,torte-2b,2020.1.3,Win32,60,13248,,,,,,,,,,,,,,,,,,,,,,,,,,,,,,,,,,,,,0,68,68,66,1,,,,,,,,,,,,,,,,,,,,,,,,
,,,,,,,,,,,,l,1.38681,Incorrect,,,,,,t1.png,t2.png,1,0.9,19,Female,2020-07-29_12h31.25.047,torte-2b,2020.1.3,Win32,60,13248,,,,,,,,,,,,,,,,,,,,,,,,,,,,,,,,,,,,,0,69,69,17,1,,,,,,,,,,,,,,,,,,,,,,,,
,,,,,,,,,,,,a,1.523205,Incorrect,,,,,,t2.png,t5.png,3,0.0000131,19,Female,2020-07-29_12h31.25.047,torte-2b,2020.1.3,Win32,60,13248,,,,,,,,,,,,,,,,,,,,,,,,,,,,,,,,,,,,,0,70,70,85,1,,,,,,,,,,,,,,,,,,,,,,,,
,,,,,,,,,,,,l,1.422885,Incorrect,,,,,,t1.png,t2.png,1,0.9,19,Female,2020-07-29_12h31.25.047,torte-2b,2020.1.3,Win32,60,13248,,,,,,,,,,,,,,,,,,,,,,,,,,,,,,,,,,,,,0,71,71,41,1,,,,,,,,,,,,,,,,,,,,,,,,
,,,,,,,,,,,,l,2.37697,Correct!,,,,,,t4.png,t1.png,3,0.059078,19,Female,2020-07-29_12h31.25.047,torte-2b,2020.1.3,Win32,60,13248,,,,,,,,,,,,,,,,,,,,,,,,,,,,,,,,,,,,,0,72,72,62,1,,,,,,,,,,,,,,,,,,,,,,,,
,,,,,,,,,,,,a,1.785085,Incorrect,,,,,,t3.png,t5.png,2,0.056466,19,Female,2020-07-29_12h31.25.047,torte-2b,2020.1.3,Win32,60,13248,,,,,,,,,,,,,,,,,,,,,,,,,,,,,,,,,,,,,0,73,73,78,1,,,,,,,,,,,,,,,,,,,,,,,,
,,,,,,,,,,,,a,2.42093,Incorrect,,,,,,t2.png,t5.png,3,0.0000131,19,Female,2020-07-29_12h31.25.047,torte-2b,2020.1.3,Win32,60,13248,,,,,,,,,,,,,,,,,,,,,,,,,,,,,,,,,,,,,0,74,74,46,1,,,,,,,,,,,,,,,,,,,,,,,,
,,,,,,,,,,,,l,1.65149,Correct!,,,,,,t2.png,t4.png,2,0.059078,19,Female,2020-07-29_12h31.25.047,torte-2b,2020.1.3,Win32,60,13248,,,,,,,,,,,,,,,,,,,,,,,,,,,,,,,,,,,,,0,75,75,67,1,,,,,,,,,,,,,,,,,,,,,,,,
,,,,,,,,,,,,l,0.9925,Correct!,,,,,,t2.png,t4.png,2,0.059078,19,Female,2020-07-29_12h31.25.047,torte-2b,2020.1.3,Win32,60,13248,,,,,,,,,,,,,,,,,,,,,,,,,,,,,,,,,,,,,0,76,76,97,1,,,,,,,,,,,,,,,,,,,,,,,,
,,,,,,,,,,,,l,1.421895,Correct!,,,,,,t5.png,t3.png,2,0.056466,19,Female,2020-07-29_12h31.25.047,torte-2b,2020.1.3,Win32,60,13248,,,,,,,,,,,,,,,,,,,,,,,,,,,,,,,,,,,,,0,77,77,26,1,,,,,,,,,,,,,,,,,,,,,,,,
,,,,,,,,,,,,a,1.4073,Incorrect,,,,,,t3.png,t1.png,2,0.056466,19,Female,2020-07-29_12h31.25.047,torte-2b,2020.1.3,Win32,60,13248,,,,,,,,,,,,,,,,,,,,,,,,,,,,,,,,,,,,,0,78,78,34,1,,,,,,,,,,,,,,,,,,,,,,,,
,,,,,,,,,,,,l,1.436305,Correct!,,,,,,t2.png,t4.png,2,0.059078,19,Female,2020-07-29_12h31.25.047,torte-2b,2020.1.3,Win32,60,13248,,,,,,,,,,,,,,,,,,,,,,,,,,,,,,,,,,,,,0,79,79,18,1,,,,,,,,,,,,,,,,,,,,,,,,
,,,,,,,,,,,,a,1.469455,Correct!,,,,,,t4.png,t5.png,1,0.90025,19,Female,2020-07-29_12h31.25.047,torte-2b,2020.1.3,Win32,60,13248,,,,,,,,,,,,,,,,,,,,,,,,,,,,,,,,,,,,,0,80,80,86,1,,,,,,,,,,,,,,,,,,,,,,,,
,,,,,,,,,,,,l,1.15891,Incorrect,,,,,,t1.png,t1.png,0,0.97829,19,Female,2020-07-29_12h31.25.047,torte-2b,2020.1.3,Win32,60,13248,,,,,,,,,,,,,,,,,,,,,,,,,,,,,,,,,,,,,0,81,81,110,1,,,,,,,,,,,,,,,,,,,,,,,,
,,,,,,,,,,,,l,1.30894,Incorrect,,,,,,t3.png,t4.png,1,0.90855,19,Female,2020-07-29_12h31.25.047,torte-2b,2020.1.3,Win32,60,13248,,,,,,,,,,,,,,,,,,,,,,,,,,,,,,,,,,,,,0,82,82,111,1,,,,,,,,,,,,,,,,,,,,,,,,
,,,,,,,,,,,,l,1.482835,Correct!,,,,,,t1.png,t5.png,4,9.55E-11,19,Female,2020-07-29_12h31.25.047,torte-2b,2020.1.3,Win32,60,13248,,,,,,,,,,,,,,,,,,,,,,,,,,,,,,,,,,,,,0,83,83,30,1,,,,,,,,,,,,,,,,,,,,,,,,
,,,,,,,,,,,,l,2.052055,Correct!,,,,,,t4.png,t1.png,3,0.0000131,19,Female,2020-07-29_12h31.25.047,torte-2b,2020.1.3,Win32,60,13248,,,,,,,,,,,,,,,,,,,,,,,,,,,,,,,,,,,,,0,84,84,28,1,,,,,,,,,,,,,,,,,,,,,,,,
,,,,,,,,,,,,l,1.645625,Incorrect,,,,,,t4.png,t3.png,1,0.909,19,Female,2020-07-29_12h31.25.047,torte-2b,2020.1.3,Win32,60,13248,,,,,,,,,,,,,,,,,,,,,,,,,,,,,,,,,,,,,0,85,85,119,1,,,,,,,,,,,,,,,,,,,,,,,,
,,,,,,,,,,,,a,1.420915,Incorrect,,,,,,t2.png,t1.png,1,0.90025,19,Female,2020-07-29_12h31.25.047,torte-2b,2020.1.3,Win32,60,13248,,,,,,,,,,,,,,,,,,,,,,,,,,,,,,,,,,,,,0,86,86,65,1,,,,,,,,,,,,,,,,,,,,,,,,
,,,,,,,,,,,,a,1.10538,Correct!,,,,,,t5.png,t5.png,0,0.978,19,Female,2020-07-29_12h31.25.047,torte-2b,2020.1.3,Win32,60,13248,,,,,,,,,,,,,,,,,,,,,,,,,,,,,,,,,,,,,0,87,87,116,1,,,,,,,,,,,,,,,,,,,,,,,,
,,,,,,,,,,,,l,1.503155,Correct!,,,,,,t3.png,t1.png,2,0.056466,19,Female,2020-07-29_12h31.25.047,torte-2b,2020.1.3,Win32,60,13248,,,,,,,,,,,,,,,,,,,,,,,,,,,,,,,,,,,,,0,88,88,109,1,,,,,,,,,,,,,,,,,,,,,,,,
,,,,,,,,,,,,a,1.39734,Incorrect,,,,,,t1.png,t4.png,3,0.0000131,19,Female,2020-07-29_12h31.25.047,torte-2b,2020.1.3,Win32,60,13248,,,,,,,,,,,,,,,,,,,,,,,,,,,,,,,,,,,,,0,89,89,16,1,,,,,,,,,,,,,,,,,,,,,,,,
,,,,,,,,,,,,a,2.136865,Correct!,,,,,,t2.png,t1.png,1,0.90025,19,Female,2020-07-29_12h31.25.047,torte-2b,2020.1.3,Win32,60,13248,,,,,,,,,,,,,,,,,,,,,,,,,,,,,,,,,,,,,0,90,90,44,1,,,,,,,,,,,,,,,,,,,,,,,,
,,,,,,,,,,,,a,1.450225,Incorrect,,,,,,t1.png,t3.png,2,0.0565,19,Female,2020-07-29_12h31.25.047,torte-2b,2020.1.3,Win32,60,13248,,,,,,,,,,,,,,,,,,,,,,,,,,,,,,,,,,,,,0,91,91,95,1,,,,,,,,,,,,,,,,,,,,,,,,
,,,,,,,,,,,,l,2.271785,Correct!,,,,,,t5.png,t3.png,2,0.056466,19,Female,2020-07-29_12h31.25.047,torte-2b,2020.1.3,Win32,60,13248,,,,,,,,,,,,,,,,,,,,,,,,,,,,,,,,,,,,,0,92,92,80,1,,,,,,,,,,,,,,,,,,,,,,,,
,,,,,,,,,,,,a,2.0075,Incorrect,,,,,,t1.png,t4.png,3,0.0000131,19,Female,2020-07-29_12h31.25.047,torte-2b,2020.1.3,Win32,60,13248,,,,,,,,,,,,,,,,,,,,,,,,,,,,,,,,,,,,,0,93,93,36,1,,,,,,,,,,,,,,,,,,,,,,,,
,,,,,,,,,,,,a,1.45301,Correct!,,,,,,t3.png,t5.png,2,0.0565,19,Female,2020-07-29_12h31.25.047,torte-2b,2020.1.3,Win32,60,13248,,,,,,,,,,,,,,,,,,,,,,,,,,,,,,,,,,,,,0,94,94,71,1,,,,,,,,,,,,,,,,,,,,,,,,
,,,,,,,,,,,,a,1.403975,Correct!,,,,,,t2.png,t3.png,1,0.90855,19,Female,2020-07-29_12h31.25.047,torte-2b,2020.1.3,Win32,60,13248,,,,,,,,,,,,,,,,,,,,,,,,,,,,,,,,,,,,,0,95,95,79,1,,,,,,,,,,,,,,,,,,,,,,,,
,,,,,,,,,,,,a,1.28591,Correct!,,,,,,t3.png,t4.png,1,0.90855,19,Female,2020-07-29_12h31.25.047,torte-2b,2020.1.3,Win32,60,13248,,,,,,,,,,,,,,,,,,,,,,,,,,,,,,,,,,,,,0,96,96,9,1,,,,,,,,,,,,,,,,,,,,,,,,
,,,,,,,,,,,,l,2.411325,Incorrect,,,,,,t2.png,t2.png,0,0.98115,19,Female,2020-07-29_12h31.25.047,torte-2b,2020.1.3,Win32,60,13248,,,,,,,,,,,,,,,,,,,,,,,,,,,,,,,,,,,,,0,97,97,7,1,,,,,,,,,,,,,,,,,,,,,,,,
,,,,,,,,,,,,,,Too slow :(,,,,,,t2.png,t5.png,3,0.0000131,19,Female,2020-07-29_12h31.25.047,torte-2b,2020.1.3,Win32,60,13248,,,,,,,,,,,,,,,,,,,,,,,,,,,,,,,,,,,,,0,98,98,54,1,,,,,,,,,,,,,,,,,,,,,,,,
,,,,,,,,,,,,l,1.575865,Incorrect,,,,,,t5.png,t5.png,0,0.97829,19,Female,2020-07-29_12h31.25.047,torte-2b,2020.1.3,Win32,60,13248,,,,,,,,,,,,,,,,,,,,,,,,,,,,,,,,,,,,,0,99,99,77,1,,,,,,,,,,,,,,,,,,,,,,,,
,,,,,,,,,,,,a,1.39864,Incorrect,,,,,,t3.png,t4.png,1,0.90855,19,Female,2020-07-29_12h31.25.047,torte-2b,2020.1.3,Win32,60,13248,,,,,,,,,,,,,,,,,,,,,,,,,,,,,,,,,,,,,0,100,100,103,1,,,,,,,,,,,,,,,,,,,,,,,,
,,,,,,,,,,,,l,1.66862,Incorrect,,,,,,t1.png,t2.png,1,0.9,19,Female,2020-07-29_12h31.25.047,torte-2b,2020.1.3,Win32,60,13248,,,,,,,,,,,,,,,,,,,,,,,,,,,,,,,,,,,,,0,101,101,61,1,,,,,,,,,,,,,,,,,,,,,,,,
,,,,,,,,,,,,l,0.917025,Incorrect,,,,,,t1.png,t2.png,1,0.90025,19,Female,2020-07-29_12h31.25.047,torte-2b,2020.1.3,Win32,60,13248,,,,,,,,,,,,,,,,,,,,,,,,,,,,,,,,,,,,,0,102,102,6,1,,,,,,,,,,,,,,,,,,,,,,,,
,,,,,,,,,,,,,,Too slow :(,,,,,,t3.png,t4.png,1,0.90855,19,Female,2020-07-29_12h31.25.047,torte-2b,2020.1.3,Win32,60,13248,,,,,,,,,,,,,,,,,,,,,,,,,,,,,,,,,,,,,0,103,103,5,1,,,,,,,,,,,,,,,,,,,,,,,,
,,,,,,,,,,,,a,1.716735,Correct!,,,,,,t5.png,t5.png,0,0.978,19,Female,2020-07-29_12h31.25.047,torte-2b,2020.1.3,Win32,60,13248,,,,,,,,,,,,,,,,,,,,,,,,,,,,,,,,,,,,,0,104,104,51,1,,,,,,,,,,,,,,,,,,,,,,,,
,,,,,,,,,,,,a,1.36636,Correct!,,,,,,t4.png,t5.png,1,0.90025,19,Female,2020-07-29_12h31.25.047,torte-2b,2020.1.3,Win32,60,13248,,,,,,,,,,,,,,,,,,,,,,,,,,,,,,,,,,,,,0,105,105,63,1,,,,,,,,,,,,,,,,,,,,,,,,
,,,,,,,,,,,,a,1.283015,Incorrect,,,,,,t5.png,t2.png,3,0.0000131,19,Female,2020-07-29_12h31.25.047,torte-2b,2020.1.3,Win32,60,13248,,,,,,,,,,,,,,,,,,,,,,,,,,,,,,,,,,,,,0,106,106,82,1,,,,,,,,,,,,,,,,,,,,,,,,
,,,,,,,,,,,,a,1.772555,Correct!,,,,,,t4.png,t3.png,1,0.90855,19,Female,2020-07-29_12h31.25.047,torte-2b,2020.1.3,Win32,60,13248,,,,,,,,,,,,,,,,,,,,,,,,,,,,,,,,,,,,,0,107,107,29,1,,,,,,,,,,,,,,,,,,,,,,,,
,,,,,,,,,,,,l,1.30009,Correct!,,,,,,t5.png,t2.png,3,0.0000131,19,Female,2020-07-29_12h31.25.047,torte-2b,2020.1.3,Win32,60,13248,,,,,,,,,,,,,,,,,,,,,,,,,,,,,,,,,,,,,0,108,108,83,1,,,,,,,,,,,,,,,,,,,,,,,,
,,,,,,,,,,,,a,1.003245,Incorrect,,,,,,t1.png,t5.png,4,9.55E-11,19,Female,2020-07-29_12h31.25.047,torte-2b,2020.1.3,Win32,60,13248,,,,,,,,,,,,,,,,,,,,,,,,,,,,,,,,,,,,,0,109,109,3,1,,,,,,,,,,,,,,,,,,,,,,,,
,,,,,,,,,,,,a,2.27214,Incorrect,,,,,,t2.png,t3.png,1,0.90855,19,Female,2020-07-29_12h31.25.047,torte-2b,2020.1.3,Win32,60,13248,,,,,,,,,,,,,,,,,,,,,,,,,,,,,,,,,,,,,0,110,110,64,1,,,,,,,,,,,,,,,,,,,,,,,,
,,,,,,,,,,,,l,1.523205,Incorrect,,,,,,t2.png,t2.png,0,0.98115,19,Female,2020-07-29_12h31.25.047,torte-2b,2020.1.3,Win32,60,13248,,,,,,,,,,,,,,,,,,,,,,,,,,,,,,,,,,,,,0,111,111,90,1,,,,,,,,,,,,,,,,,,,,,,,,
,,,,,,,,,,,,l,1.708745,Incorrect,,,,,,t5.png,t4.png,1,0.90025,19,Female,2020-07-29_12h31.25.047,torte-2b,2020.1.3,Win32,60,13248,,,,,,,,,,,,,,,,,,,,,,,,,,,,,,,,,,,,,0,112,112,14,1,,,,,,,,,,,,,,,,,,,,,,,,
,,,,,,,,,,,,a,2.41623,Incorrect,,,,,,t3.png,t5.png,2,0.056466,19,Female,2020-07-29_12h31.25.047,torte-2b,2020.1.3,Win32,60,13248,,,,,,,,,,,,,,,,,,,,,,,,,,,,,,,,,,,,,0,113,113,60,1,,,,,,,,,,,,,,,,,,,,,,,,
,,,,,,,,,,,,a,1.926825,Incorrect,,,,,,t1.png,t3.png,2,0.0565,19,Female,2020-07-29_12h31.25.047,torte-2b,2020.1.3,Win32,60,13248,,,,,,,,,,,,,,,,,,,,,,,,,,,,,,,,,,,,,0,114,114,12,1,,,,,,,,,,,,,,,,,,,,,,,,
,,,,,,,,,,,,,,Too slow :(,,,,,,t2.png,t1.png,1,0.9,19,Female,2020-07-29_12h31.25.047,torte-2b,2020.1.3,Win32,60,13248,,,,,,,,,,,,,,,,,,,,,,,,,,,,,,,,,,,,,0,115,115,93,1,,,,,,,,,,,,,,,,,,,,,,,,
,,,,,,,,,,,,l,1.970625,Correct!,,,,,,t5.png,t3.png,2,0.056466,19,Female,2020-07-29_12h31.25.047,torte-2b,2020.1.3,Win32,60,13248,,,,,,,,,,,,,,,,,,,,,,,,,,,,,,,,,,,,,0,116,116,37,1,,,,,,,,,,,,,,,,,,,,,,,,
,,,,,,,,,,,,a,1.15426,Incorrect,,,,,,t3.png,t5.png,2,0.056466,19,Female,2020-07-29_12h31.25.047,torte-2b,2020.1.3,Win32,60,13248,,,,,,,,,,,,,,,,,,,,,,,,,,,,,,,,,,,,,0,117,117,47,1,,,,,,,,,,,,,,,,,,,,,,,,
,,,,,,,,,,,,a,1.24785,Incorrect,,,,,,t2.png,t5.png,3,0.0000131,19,Female,2020-07-29_12h31.25.047,torte-2b,2020.1.3,Win32,60,13248,,,,,,,,,,,,,,,,,,,,,,,,,,,,,,,,,,,,,0,118,118,39,1,,,,,,,,,,,,,,,,,,,,,,,,
,,,,,,,,,,,,l,1.656305,Incorrect,,,,,,t3.png,t2.png,1,0.90855,19,Female,2020-07-29_12h31.25.047,torte-2b,2020.1.3,Win32,60,13248,,,,,,,,,,,,,,,,,,,,,,,,,,,,,,,,,,,,,0,119,119,10,1,,,,,,,,,,,,,,,,,,,,,,,,
,,,,,,,,,,,,,,,,,,,,,,,,19,Female,2020-07-29_12h31.25.047,torte-2b,2020.1.3,Win32,60,13248,space,2.750895,,,,,,,,,,,,,,,,,,,,,,,,,,,,,,,,,,,,,,,,133.3333564,66.66665792,1,0,0,s3,83.33335489,41.33330349,1,0,0,t2,282.0000275,-101.3333471,1,0,0,proceed,space,8.29936,space,5.834165,space,0.68279
