key_resp_8.keys,key_resp_8.rt,key_resp_9.keys,key_resp_9.rt,key_resp_10.keys,key_resp_10.rt,key_resp_11.keys,key_resp_11.rt,key_resp_2.keys,key_resp_2.rt,key_resp_3.keys,key_resp_3.rt,key_resp.keys,Feedback,train.thisRepN,train.thisTrialN,train.thisN,train.thisIndex,train.ran,torta_sx,torta_dx,difference,probability,age,gender,date,expName,psychopyVersion,OS,frameRate,participant,key_resp.rt,key_resp_15.keys,key_resp_15.rt,key_resp_6.keys,key_resp_6.rt,test1.thisRepN,test1.thisTrialN,test1.thisN,test1.thisIndex,test1.ran,key_resp_4.keys,key_resp_4.rt,key_resp_5.keys,back1.thisRepN,back1.thisTrialN,back1.thisN,back1.thisIndex,back1.ran,letter,key_resp_5.rt,back2.thisRepN,back2.thisTrialN,back2.thisN,back2.thisIndex,back2.ran,back3.thisRepN,back3.thisTrialN,back3.thisN,back3.thisIndex,back3.ran,back4.thisRepN,back4.thisTrialN,back4.thisN,back4.thisIndex,back4.ran,key_resp_7.keys,key_resp_7.rt,test2.thisRepN,test2.thisTrialN,test2.thisN,test2.thisIndex,test2.ran,mouse.x,mouse.y,mouse.leftButton,mouse.midButton,mouse.rightButton,mouse.clicked_name,mouse_2.x,mouse_2.y,mouse_2.leftButton,mouse_2.midButton,mouse_2.rightButton,mouse_2.clicked_name,mouse_3.x,mouse_3.y,mouse_3.leftButton,mouse_3.midButton,mouse_3.rightButton,mouse_3.clicked_name,key_resp_12.keys,key_resp_12.rt,key_resp_13.keys,key_resp_13.rt,key_resp_14.keys,key_resp_14.rt
space,3.08985,space,6.15482,space,4.114195,space,13.377865,space,5.115255,space,44.101535,,Too slow :(,0,0,0,84,1,t1.png,t1.png,0,0.97829,20,female,2020-09-28_11h02.26.129,torte-2b,2020.1.3,Win32,60,13269,,,,,,,,,,,,,,,,,,,,,,,,,,,,,,,,,,,,,,,,,,,,,,,,,,,,,,,,,,,,,,,,,,
,,,,,,,,,,,,l,Correct!,0,1,1,4,1,t1.png,t5.png,4,9.55E-11,20,female,2020-09-28_11h02.26.129,torte-2b,2020.1.3,Win32,60,13269,1.100875,,,,,,,,,,,,,,,,,,,,,,,,,,,,,,,,,,,,,,,,,,,,,,,,,,,,,,,,,,,,,,,,,
,,,,,,,,,,,,l,Correct!,0,2,2,91,1,t1.png,t4.png,3,0.0000131,20,female,2020-09-28_11h02.26.129,torte-2b,2020.1.3,Win32,60,13269,0.683455,,,,,,,,,,,,,,,,,,,,,,,,,,,,,,,,,,,,,,,,,,,,,,,,,,,,,,,,,,,,,,,,,
,,,,,,,,,,,,l,Correct!,0,3,3,117,1,t1.png,t5.png,4,9.55E-11,20,female,2020-09-28_11h02.26.129,torte-2b,2020.1.3,Win32,60,13269,0.48949,,,,,,,,,,,,,,,,,,,,,,,,,,,,,,,,,,,,,,,,,,,,,,,,,,,,,,,,,,,,,,,,,
,,,,,,,,,,,,a,Incorrect,0,4,4,24,1,t4.png,t2.png,2,0.059078,20,female,2020-09-28_11h02.26.129,torte-2b,2020.1.3,Win32,60,13269,0.55238,,,,,,,,,,,,,,,,,,,,,,,,,,,,,,,,,,,,,,,,,,,,,,,,,,,,,,,,,,,,,,,,,
,,,,,,,,,,,,l,Incorrect,0,5,5,66,1,t4.png,t5.png,1,0.9,20,female,2020-09-28_11h02.26.129,torte-2b,2020.1.3,Win32,60,13269,0.73825,,,,,,,,,,,,,,,,,,,,,,,,,,,,,,,,,,,,,,,,,,,,,,,,,,,,,,,,,,,,,,,,,
,,,,,,,,,,,,a,Correct!,0,6,6,16,1,t5.png,t4.png,1,0.9,20,female,2020-09-28_11h02.26.129,torte-2b,2020.1.3,Win32,60,13269,1.41133,,,,,,,,,,,,,,,,,,,,,,,,,,,,,,,,,,,,,,,,,,,,,,,,,,,,,,,,,,,,,,,,,
,,,,,,,,,,,,a,Incorrect,0,7,7,69,1,t4.png,t2.png,2,0.059078,20,female,2020-09-28_11h02.26.129,torte-2b,2020.1.3,Win32,60,13269,0.70883,,,,,,,,,,,,,,,,,,,,,,,,,,,,,,,,,,,,,,,,,,,,,,,,,,,,,,,,,,,,,,,,,
,,,,,,,,,,,,l,Correct!,0,8,8,17,1,t1.png,t4.png,3,0.0000131,20,female,2020-09-28_11h02.26.129,torte-2b,2020.1.3,Win32,60,13269,0.933195,,,,,,,,,,,,,,,,,,,,,,,,,,,,,,,,,,,,,,,,,,,,,,,,,,,,,,,,,,,,,,,,,
,,,,,,,,,,,,l,Incorrect,0,9,9,62,1,t5.png,t5.png,0,0.978,20,female,2020-09-28_11h02.26.129,torte-2b,2020.1.3,Win32,60,13269,1.90746,,,,,,,,,,,,,,,,,,,,,,,,,,,,,,,,,,,,,,,,,,,,,,,,,,,,,,,,,,,,,,,,,
,,,,,,,,,,,,a,Incorrect,0,10,10,73,1,t4.png,t2.png,2,0.059078,20,female,2020-09-28_11h02.26.129,torte-2b,2020.1.3,Win32,60,13269,0.933215,,,,,,,,,,,,,,,,,,,,,,,,,,,,,,,,,,,,,,,,,,,,,,,,,,,,,,,,,,,,,,,,,
,,,,,,,,,,,,l,Correct!,0,11,11,60,1,t2.png,t4.png,2,0.059078,20,female,2020-09-28_11h02.26.129,torte-2b,2020.1.3,Win32,60,13269,1.31676,,,,,,,,,,,,,,,,,,,,,,,,,,,,,,,,,,,,,,,,,,,,,,,,,,,,,,,,,,,,,,,,,
,,,,,,,,,,,,l,Correct!,0,12,12,67,1,t1.png,t5.png,4,9.55E-11,20,female,2020-09-28_11h02.26.129,torte-2b,2020.1.3,Win32,60,13269,0.73563,,,,,,,,,,,,,,,,,,,,,,,,,,,,,,,,,,,,,,,,,,,,,,,,,,,,,,,,,,,,,,,,,
,,,,,,,,,,,,l,Correct!,0,13,13,30,1,t3.png,t1.png,2,0.056466,20,female,2020-09-28_11h02.26.129,torte-2b,2020.1.3,Win32,60,13269,1.282985,,,,,,,,,,,,,,,,,,,,,,,,,,,,,,,,,,,,,,,,,,,,,,,,,,,,,,,,,,,,,,,,,
,,,,,,,,,,,,l,Incorrect,0,14,14,57,1,t2.png,t4.png,2,0.059078,20,female,2020-09-28_11h02.26.129,torte-2b,2020.1.3,Win32,60,13269,0.851595,,,,,,,,,,,,,,,,,,,,,,,,,,,,,,,,,,,,,,,,,,,,,,,,,,,,,,,,,,,,,,,,,
,,,,,,,,,,,,l,Incorrect,0,15,15,71,1,t5.png,t5.png,0,0.97829,20,female,2020-09-28_11h02.26.129,torte-2b,2020.1.3,Win32,60,13269,1.40013,,,,,,,,,,,,,,,,,,,,,,,,,,,,,,,,,,,,,,,,,,,,,,,,,,,,,,,,,,,,,,,,,
,,,,,,,,,,,,a,Incorrect,0,16,16,86,1,t3.png,t1.png,2,0.056466,20,female,2020-09-28_11h02.26.129,torte-2b,2020.1.3,Win32,60,13269,1.400625,,,,,,,,,,,,,,,,,,,,,,,,,,,,,,,,,,,,,,,,,,,,,,,,,,,,,,,,,,,,,,,,,
,,,,,,,,,,,,l,Correct!,0,17,17,89,1,t1.png,t4.png,3,0.0000131,20,female,2020-09-28_11h02.26.129,torte-2b,2020.1.3,Win32,60,13269,0.7005,,,,,,,,,,,,,,,,,,,,,,,,,,,,,,,,,,,,,,,,,,,,,,,,,,,,,,,,,,,,,,,,,
,,,,,,,,,,,,l,Correct!,0,18,18,28,1,t2.png,t3.png,1,0.909,20,female,2020-09-28_11h02.26.129,torte-2b,2020.1.3,Win32,60,13269,0.63343,,,,,,,,,,,,,,,,,,,,,,,,,,,,,,,,,,,,,,,,,,,,,,,,,,,,,,,,,,,,,,,,,
,,,,,,,,,,,,l,Correct!,0,19,19,40,1,t1.png,t5.png,4,9.55E-11,20,female,2020-09-28_11h02.26.129,torte-2b,2020.1.3,Win32,60,13269,0.77692,,,,,,,,,,,,,,,,,,,,,,,,,,,,,,,,,,,,,,,,,,,,,,,,,,,,,,,,,,,,,,,,,
,,,,,,,,,,,,a,Correct!,0,20,20,59,1,t5.png,t4.png,1,0.9,20,female,2020-09-28_11h02.26.129,torte-2b,2020.1.3,Win32,60,13269,1.25641,,,,,,,,,,,,,,,,,,,,,,,,,,,,,,,,,,,,,,,,,,,,,,,,,,,,,,,,,,,,,,,,,
,,,,,,,,,,,,l,Incorrect,0,21,21,22,1,t2.png,t3.png,1,0.90855,20,female,2020-09-28_11h02.26.129,torte-2b,2020.1.3,Win32,60,13269,1.25106,,,,,,,,,,,,,,,,,,,,,,,,,,,,,,,,,,,,,,,,,,,,,,,,,,,,,,,,,,,,,,,,,
,,,,,,,,,,,,a,Correct!,0,22,22,21,1,t5.png,t4.png,1,0.90025,20,female,2020-09-28_11h02.26.129,torte-2b,2020.1.3,Win32,60,13269,1.073875,,,,,,,,,,,,,,,,,,,,,,,,,,,,,,,,,,,,,,,,,,,,,,,,,,,,,,,,,,,,,,,,,
,,,,,,,,,,,,a,Correct!,0,23,23,96,1,t1.png,t1.png,0,0.97829,20,female,2020-09-28_11h02.26.129,torte-2b,2020.1.3,Win32,60,13269,2.08797,,,,,,,,,,,,,,,,,,,,,,,,,,,,,,,,,,,,,,,,,,,,,,,,,,,,,,,,,,,,,,,,,
,,,,,,,,,,,,a,Incorrect,0,24,24,27,1,t3.png,t1.png,2,0.0565,20,female,2020-09-28_11h02.26.129,torte-2b,2020.1.3,Win32,60,13269,1.174485,,,,,,,,,,,,,,,,,,,,,,,,,,,,,,,,,,,,,,,,,,,,,,,,,,,,,,,,,,,,,,,,,
,,,,,,,,,,,,l,Incorrect,0,25,25,48,1,t5.png,t5.png,0,0.97829,20,female,2020-09-28_11h02.26.129,torte-2b,2020.1.3,Win32,60,13269,1.65229,,,,,,,,,,,,,,,,,,,,,,,,,,,,,,,,,,,,,,,,,,,,,,,,,,,,,,,,,,,,,,,,,
,,,,,,,,,,,,a,Incorrect,0,26,26,108,1,t5.png,t1.png,4,9.55E-11,20,female,2020-09-28_11h02.26.129,torte-2b,2020.1.3,Win32,60,13269,0.668435,,,,,,,,,,,,,,,,,,,,,,,,,,,,,,,,,,,,,,,,,,,,,,,,,,,,,,,,,,,,,,,,,
,,,,,,,,,,,,a,Correct!,0,27,27,109,1,t5.png,t5.png,0,0.97829,20,female,2020-09-28_11h02.26.129,torte-2b,2020.1.3,Win32,60,13269,1.085315,,,,,,,,,,,,,,,,,,,,,,,,,,,,,,,,,,,,,,,,,,,,,,,,,,,,,,,,,,,,,,,,,
,,,,,,,,,,,,l,Incorrect,0,28,28,44,1,t2.png,t3.png,1,0.909,20,female,2020-09-28_11h02.26.129,torte-2b,2020.1.3,Win32,60,13269,0.73576,,,,,,,,,,,,,,,,,,,,,,,,,,,,,,,,,,,,,,,,,,,,,,,,,,,,,,,,,,,,,,,,,
,,,,,,,,,,,,l,Incorrect,0,29,29,107,1,t1.png,t1.png,0,0.978,20,female,2020-09-28_11h02.26.129,torte-2b,2020.1.3,Win32,60,13269,0.64265,,,,,,,,,,,,,,,,,,,,,,,,,,,,,,,,,,,,,,,,,,,,,,,,,,,,,,,,,,,,,,,,,
,,,,,,,,,,,,l,Incorrect,0,30,30,106,1,t2.png,t3.png,1,0.90855,20,female,2020-09-28_11h02.26.129,torte-2b,2020.1.3,Win32,60,13269,0.5356,,,,,,,,,,,,,,,,,,,,,,,,,,,,,,,,,,,,,,,,,,,,,,,,,,,,,,,,,,,,,,,,,
,,,,,,,,,,,,l,Incorrect,0,31,31,25,1,t5.png,t5.png,0,0.97829,20,female,2020-09-28_11h02.26.129,torte-2b,2020.1.3,Win32,60,13269,0.73878,,,,,,,,,,,,,,,,,,,,,,,,,,,,,,,,,,,,,,,,,,,,,,,,,,,,,,,,,,,,,,,,,
,,,,,,,,,,,,a,Correct!,0,32,32,74,1,t5.png,t4.png,1,0.9,20,female,2020-09-28_11h02.26.129,torte-2b,2020.1.3,Win32,60,13269,0.7678,,,,,,,,,,,,,,,,,,,,,,,,,,,,,,,,,,,,,,,,,,,,,,,,,,,,,,,,,,,,,,,,,
,,,,,,,,,,,,a,Correct!,0,33,33,95,1,t1.png,t1.png,0,0.978,20,female,2020-09-28_11h02.26.129,torte-2b,2020.1.3,Win32,60,13269,1.221405,,,,,,,,,,,,,,,,,,,,,,,,,,,,,,,,,,,,,,,,,,,,,,,,,,,,,,,,,,,,,,,,,
,,,,,,,,,,,,a,Incorrect,0,34,34,55,1,t2.png,t4.png,2,0.059078,20,female,2020-09-28_11h02.26.129,torte-2b,2020.1.3,Win32,60,13269,1.60316,,,,,,,,,,,,,,,,,,,,,,,,,,,,,,,,,,,,,,,,,,,,,,,,,,,,,,,,,,,,,,,,,
,,,,,,,,,,,,l,Incorrect,0,35,35,114,1,t2.png,t3.png,1,0.90855,20,female,2020-09-28_11h02.26.129,torte-2b,2020.1.3,Win32,60,13269,0.687545,,,,,,,,,,,,,,,,,,,,,,,,,,,,,,,,,,,,,,,,,,,,,,,,,,,,,,,,,,,,,,,,,
,,,,,,,,,,,,l,Correct!,0,36,36,61,1,t1.png,t4.png,3,0.0000131,20,female,2020-09-28_11h02.26.129,torte-2b,2020.1.3,Win32,60,13269,0.6671,,,,,,,,,,,,,,,,,,,,,,,,,,,,,,,,,,,,,,,,,,,,,,,,,,,,,,,,,,,,,,,,,
,,,,,,,,,,,,l,Correct!,0,37,37,0,1,t5.png,t1.png,4,9.55E-11,20,female,2020-09-28_11h02.26.129,torte-2b,2020.1.3,Win32,60,13269,0.84009,,,,,,,,,,,,,,,,,,,,,,,,,,,,,,,,,,,,,,,,,,,,,,,,,,,,,,,,,,,,,,,,,
,,,,,,,,,,,,l,Incorrect,0,38,38,29,1,t5.png,t5.png,0,0.97829,20,female,2020-09-28_11h02.26.129,torte-2b,2020.1.3,Win32,60,13269,0.801015,,,,,,,,,,,,,,,,,,,,,,,,,,,,,,,,,,,,,,,,,,,,,,,,,,,,,,,,,,,,,,,,,
,,,,,,,,,,,,l,Correct!,0,39,39,36,1,t3.png,t1.png,2,0.0565,20,female,2020-09-28_11h02.26.129,torte-2b,2020.1.3,Win32,60,13269,0.783215,,,,,,,,,,,,,,,,,,,,,,,,,,,,,,,,,,,,,,,,,,,,,,,,,,,,,,,,,,,,,,,,,
,,,,,,,,,,,,l,Incorrect,0,40,40,100,1,t4.png,t5.png,1,0.90025,20,female,2020-09-28_11h02.26.129,torte-2b,2020.1.3,Win32,60,13269,0.6616,,,,,,,,,,,,,,,,,,,,,,,,,,,,,,,,,,,,,,,,,,,,,,,,,,,,,,,,,,,,,,,,,
,,,,,,,,,,,,l,Incorrect,0,41,41,49,1,t4.png,t5.png,1,0.9,20,female,2020-09-28_11h02.26.129,torte-2b,2020.1.3,Win32,60,13269,1.272725,,,,,,,,,,,,,,,,,,,,,,,,,,,,,,,,,,,,,,,,,,,,,,,,,,,,,,,,,,,,,,,,,
,,,,,,,,,,,,a,Correct!,0,42,42,105,1,t3.png,t2.png,1,0.90855,20,female,2020-09-28_11h02.26.129,torte-2b,2020.1.3,Win32,60,13269,0.93385,,,,,,,,,,,,,,,,,,,,,,,,,,,,,,,,,,,,,,,,,,,,,,,,,,,,,,,,,,,,,,,,,
,,,,,,,,,,,,l,Correct!,0,43,43,80,1,t1.png,t4.png,3,0.0000131,20,female,2020-09-28_11h02.26.129,torte-2b,2020.1.3,Win32,60,13269,0.6695,,,,,,,,,,,,,,,,,,,,,,,,,,,,,,,,,,,,,,,,,,,,,,,,,,,,,,,,,,,,,,,,,
,,,,,,,,,,,,a,Correct!,0,44,44,116,1,t5.png,t4.png,1,0.90025,20,female,2020-09-28_11h02.26.129,torte-2b,2020.1.3,Win32,60,13269,1.00725,,,,,,,,,,,,,,,,,,,,,,,,,,,,,,,,,,,,,,,,,,,,,,,,,,,,,,,,,,,,,,,,,
,,,,,,,,,,,,a,Correct!,0,45,45,76,1,t3.png,t2.png,1,0.90855,20,female,2020-09-28_11h02.26.129,torte-2b,2020.1.3,Win32,60,13269,1.233205,,,,,,,,,,,,,,,,,,,,,,,,,,,,,,,,,,,,,,,,,,,,,,,,,,,,,,,,,,,,,,,,,
,,,,,,,,,,,,a,Incorrect,0,46,46,50,1,t5.png,t1.png,4,9.55E-11,20,female,2020-09-28_11h02.26.129,torte-2b,2020.1.3,Win32,60,13269,0.85041,,,,,,,,,,,,,,,,,,,,,,,,,,,,,,,,,,,,,,,,,,,,,,,,,,,,,,,,,,,,,,,,,
,,,,,,,,,,,,a,Correct!,0,47,47,15,1,t3.png,t2.png,1,0.90855,20,female,2020-09-28_11h02.26.129,torte-2b,2020.1.3,Win32,60,13269,0.98409,,,,,,,,,,,,,,,,,,,,,,,,,,,,,,,,,,,,,,,,,,,,,,,,,,,,,,,,,,,,,,,,,
,,,,,,,,,,,,l,Incorrect,0,48,48,9,1,t4.png,t5.png,1,0.9,20,female,2020-09-28_11h02.26.129,torte-2b,2020.1.3,Win32,60,13269,1.10454,,,,,,,,,,,,,,,,,,,,,,,,,,,,,,,,,,,,,,,,,,,,,,,,,,,,,,,,,,,,,,,,,
,,,,,,,,,,,,l,Correct!,0,49,49,35,1,t1.png,t4.png,3,0.0000131,20,female,2020-09-28_11h02.26.129,torte-2b,2020.1.3,Win32,60,13269,0.683955,,,,,,,,,,,,,,,,,,,,,,,,,,,,,,,,,,,,,,,,,,,,,,,,,,,,,,,,,,,,,,,,,
,,,,,,,,,,,,a,Incorrect,0,50,50,19,1,t4.png,t2.png,2,0.059078,20,female,2020-09-28_11h02.26.129,torte-2b,2020.1.3,Win32,60,13269,1.84981,,,,,,,,,,,,,,,,,,,,,,,,,,,,,,,,,,,,,,,,,,,,,,,,,,,,,,,,,,,,,,,,,
,,,,,,,,,,,,l,Correct!,0,51,51,99,1,t1.png,t5.png,4,9.55E-11,20,female,2020-09-28_11h02.26.129,torte-2b,2020.1.3,Win32,60,13269,0.92135,,,,,,,,,,,,,,,,,,,,,,,,,,,,,,,,,,,,,,,,,,,,,,,,,,,,,,,,,,,,,,,,,
,,,,,,,,,,,,l,Correct!,0,52,52,37,1,t1.png,t4.png,3,0.0000131,20,female,2020-09-28_11h02.26.129,torte-2b,2020.1.3,Win32,60,13269,0.50176,,,,,,,,,,,,,,,,,,,,,,,,,,,,,,,,,,,,,,,,,,,,,,,,,,,,,,,,,,,,,,,,,
,,,,,,,,,,,,a,Incorrect,0,53,53,94,1,t5.png,t1.png,4,9.55E-11,20,female,2020-09-28_11h02.26.129,torte-2b,2020.1.3,Win32,60,13269,0.722845,,,,,,,,,,,,,,,,,,,,,,,,,,,,,,,,,,,,,,,,,,,,,,,,,,,,,,,,,,,,,,,,,
,,,,,,,,,,,,a,Incorrect,0,54,54,47,1,t4.png,t2.png,2,0.059078,20,female,2020-09-28_11h02.26.129,torte-2b,2020.1.3,Win32,60,13269,0.840595,,,,,,,,,,,,,,,,,,,,,,,,,,,,,,,,,,,,,,,,,,,,,,,,,,,,,,,,,,,,,,,,,
,,,,,,,,,,,,l,Correct!,0,55,55,98,1,t2.png,t4.png,2,0.0591,20,female,2020-09-28_11h02.26.129,torte-2b,2020.1.3,Win32,60,13269,0.561235,,,,,,,,,,,,,,,,,,,,,,,,,,,,,,,,,,,,,,,,,,,,,,,,,,,,,,,,,,,,,,,,,
,,,,,,,,,,,,a,Correct!,0,56,56,2,1,t3.png,t2.png,1,0.90855,20,female,2020-09-28_11h02.26.129,torte-2b,2020.1.3,Win32,60,13269,0.72513,,,,,,,,,,,,,,,,,,,,,,,,,,,,,,,,,,,,,,,,,,,,,,,,,,,,,,,,,,,,,,,,,
,,,,,,,,,,,,a,Incorrect,0,57,57,43,1,t4.png,t2.png,2,0.059078,20,female,2020-09-28_11h02.26.129,torte-2b,2020.1.3,Win32,60,13269,0.803435,,,,,,,,,,,,,,,,,,,,,,,,,,,,,,,,,,,,,,,,,,,,,,,,,,,,,,,,,,,,,,,,,
,,,,,,,,,,,,l,Incorrect,0,58,58,20,1,t2.png,t3.png,1,0.90855,20,female,2020-09-28_11h02.26.129,torte-2b,2020.1.3,Win32,60,13269,0.51202,,,,,,,,,,,,,,,,,,,,,,,,,,,,,,,,,,,,,,,,,,,,,,,,,,,,,,,,,,,,,,,,,
,,,,,,,,,,,,a,Correct!,0,59,59,58,1,t5.png,t4.png,1,0.90025,20,female,2020-09-28_11h02.26.129,torte-2b,2020.1.3,Win32,60,13269,0.905665,,,,,,,,,,,,,,,,,,,,,,,,,,,,,,,,,,,,,,,,,,,,,,,,,,,,,,,,,,,,,,,,,
,,,,,,,,,,,,a,Correct!,0,60,60,26,1,t4.png,t2.png,2,0.0591,20,female,2020-09-28_11h02.26.129,torte-2b,2020.1.3,Win32,60,13269,0.458515,,,,,,,,,,,,,,,,,,,,,,,,,,,,,,,,,,,,,,,,,,,,,,,,,,,,,,,,,,,,,,,,,
,,,,,,,,,,,,a,Correct!,0,61,61,41,1,t3.png,t2.png,1,0.90855,20,female,2020-09-28_11h02.26.129,torte-2b,2020.1.3,Win32,60,13269,1.1275,,,,,,,,,,,,,,,,,,,,,,,,,,,,,,,,,,,,,,,,,,,,,,,,,,,,,,,,,,,,,,,,,
,,,,,,,,,,,,l,Incorrect,0,62,62,5,1,t2.png,t4.png,2,0.059078,20,female,2020-09-28_11h02.26.129,torte-2b,2020.1.3,Win32,60,13269,0.66084,,,,,,,,,,,,,,,,,,,,,,,,,,,,,,,,,,,,,,,,,,,,,,,,,,,,,,,,,,,,,,,,,
,,,,,,,,,,,,l,Correct!,0,63,63,52,1,t2.png,t4.png,2,0.059078,20,female,2020-09-28_11h02.26.129,torte-2b,2020.1.3,Win32,60,13269,1.133625,,,,,,,,,,,,,,,,,,,,,,,,,,,,,,,,,,,,,,,,,,,,,,,,,,,,,,,,,,,,,,,,,
,,,,,,,,,,,,a,Incorrect,0,64,64,82,1,t5.png,t1.png,4,9.55E-11,20,female,2020-09-28_11h02.26.129,torte-2b,2020.1.3,Win32,60,13269,1.790135,,,,,,,,,,,,,,,,,,,,,,,,,,,,,,,,,,,,,,,,,,,,,,,,,,,,,,,,,,,,,,,,,
,,,,,,,,,,,,l,Incorrect,0,65,65,101,1,t4.png,t5.png,1,0.90025,20,female,2020-09-28_11h02.26.129,torte-2b,2020.1.3,Win32,60,13269,0.917295,,,,,,,,,,,,,,,,,,,,,,,,,,,,,,,,,,,,,,,,,,,,,,,,,,,,,,,,,,,,,,,,,
,,,,,,,,,,,,a,Correct!,0,66,66,45,1,t3.png,t2.png,1,0.90855,20,female,2020-09-28_11h02.26.129,torte-2b,2020.1.3,Win32,60,13269,1.71817,,,,,,,,,,,,,,,,,,,,,,,,,,,,,,,,,,,,,,,,,,,,,,,,,,,,,,,,,,,,,,,,,
,,,,,,,,,,,,a,Incorrect,0,67,67,8,1,t3.png,t2.png,1,0.90855,20,female,2020-09-28_11h02.26.129,torte-2b,2020.1.3,Win32,60,13269,1.11159,,,,,,,,,,,,,,,,,,,,,,,,,,,,,,,,,,,,,,,,,,,,,,,,,,,,,,,,,,,,,,,,,
,,,,,,,,,,,,a,Correct!,0,68,68,23,1,t5.png,t4.png,1,0.90025,20,female,2020-09-28_11h02.26.129,torte-2b,2020.1.3,Win32,60,13269,0.933545,,,,,,,,,,,,,,,,,,,,,,,,,,,,,,,,,,,,,,,,,,,,,,,,,,,,,,,,,,,,,,,,,
,,,,,,,,,,,,l,Correct!,0,69,69,68,1,t1.png,t4.png,3,0.0000131,20,female,2020-09-28_11h02.26.129,torte-2b,2020.1.3,Win32,60,13269,0.687935,,,,,,,,,,,,,,,,,,,,,,,,,,,,,,,,,,,,,,,,,,,,,,,,,,,,,,,,,,,,,,,,,
,,,,,,,,,,,,l,Correct!,0,70,70,119,1,t1.png,t5.png,4,9.55E-11,20,female,2020-09-28_11h02.26.129,torte-2b,2020.1.3,Win32,60,13269,0.668185,,,,,,,,,,,,,,,,,,,,,,,,,,,,,,,,,,,,,,,,,,,,,,,,,,,,,,,,,,,,,,,,,
,,,,,,,,,,,,l,Correct!,0,71,71,115,1,t2.png,t4.png,2,0.059078,20,female,2020-09-28_11h02.26.129,torte-2b,2020.1.3,Win32,60,13269,0.66063,,,,,,,,,,,,,,,,,,,,,,,,,,,,,,,,,,,,,,,,,,,,,,,,,,,,,,,,,,,,,,,,,
,,,,,,,,,,,,a,Incorrect,0,72,72,87,1,t5.png,t1.png,4,9.55E-11,20,female,2020-09-28_11h02.26.129,torte-2b,2020.1.3,Win32,60,13269,0.684055,,,,,,,,,,,,,,,,,,,,,,,,,,,,,,,,,,,,,,,,,,,,,,,,,,,,,,,,,,,,,,,,,
,,,,,,,,,,,,l,Correct!,0,73,73,1,1,t2.png,t4.png,2,0.059078,20,female,2020-09-28_11h02.26.129,torte-2b,2020.1.3,Win32,60,13269,0.510215,,,,,,,,,,,,,,,,,,,,,,,,,,,,,,,,,,,,,,,,,,,,,,,,,,,,,,,,,,,,,,,,,
,,,,,,,,,,,,a,Incorrect,0,74,74,72,1,t4.png,t2.png,2,0.059078,20,female,2020-09-28_11h02.26.129,torte-2b,2020.1.3,Win32,60,13269,0.600675,,,,,,,,,,,,,,,,,,,,,,,,,,,,,,,,,,,,,,,,,,,,,,,,,,,,,,,,,,,,,,,,,
,,,,,,,,,,,,l,Incorrect,0,75,75,104,1,t2.png,t3.png,1,0.90855,20,female,2020-09-28_11h02.26.129,torte-2b,2020.1.3,Win32,60,13269,0.522355,,,,,,,,,,,,,,,,,,,,,,,,,,,,,,,,,,,,,,,,,,,,,,,,,,,,,,,,,,,,,,,,,
,,,,,,,,,,,,l,Incorrect,0,76,76,92,1,t2.png,t3.png,1,0.909,20,female,2020-09-28_11h02.26.129,torte-2b,2020.1.3,Win32,60,13269,0.62752,,,,,,,,,,,,,,,,,,,,,,,,,,,,,,,,,,,,,,,,,,,,,,,,,,,,,,,,,,,,,,,,,
,,,,,,,,,,,,a,Correct!,0,77,77,42,1,t5.png,t4.png,1,0.90025,20,female,2020-09-28_11h02.26.129,torte-2b,2020.1.3,Win32,60,13269,0.767785,,,,,,,,,,,,,,,,,,,,,,,,,,,,,,,,,,,,,,,,,,,,,,,,,,,,,,,,,,,,,,,,,
,,,,,,,,,,,,l,Correct!,0,78,78,31,1,t1.png,t5.png,4,9.55E-11,20,female,2020-09-28_11h02.26.129,torte-2b,2020.1.3,Win32,60,13269,0.56698,,,,,,,,,,,,,,,,,,,,,,,,,,,,,,,,,,,,,,,,,,,,,,,,,,,,,,,,,,,,,,,,,
,,,,,,,,,,,,l,Incorrect,0,79,79,110,1,t4.png,t5.png,1,0.90025,20,female,2020-09-28_11h02.26.129,torte-2b,2020.1.3,Win32,60,13269,1.13723,,,,,,,,,,,,,,,,,,,,,,,,,,,,,,,,,,,,,,,,,,,,,,,,,,,,,,,,,,,,,,,,,
,,,,,,,,,,,,a,Correct!,0,80,80,34,1,t5.png,t4.png,1,0.9,20,female,2020-09-28_11h02.26.129,torte-2b,2020.1.3,Win32,60,13269,0.633895,,,,,,,,,,,,,,,,,,,,,,,,,,,,,,,,,,,,,,,,,,,,,,,,,,,,,,,,,,,,,,,,,
,,,,,,,,,,,,l,Incorrect,0,81,81,77,1,t1.png,t1.png,0,0.97829,20,female,2020-09-28_11h02.26.129,torte-2b,2020.1.3,Win32,60,13269,1.300845,,,,,,,,,,,,,,,,,,,,,,,,,,,,,,,,,,,,,,,,,,,,,,,,,,,,,,,,,,,,,,,,,
,,,,,,,,,,,,a,Correct!,0,82,82,75,1,t1.png,t1.png,0,0.97829,20,female,2020-09-28_11h02.26.129,torte-2b,2020.1.3,Win32,60,13269,1.08333,,,,,,,,,,,,,,,,,,,,,,,,,,,,,,,,,,,,,,,,,,,,,,,,,,,,,,,,,,,,,,,,,
,,,,,,,,,,,,,Too slow :(,0,83,83,6,1,t1.png,t4.png,3,0.0000131,20,female,2020-09-28_11h02.26.129,torte-2b,2020.1.3,Win32,60,13269,,,,,,,,,,,,,,,,,,,,,,,,,,,,,,,,,,,,,,,,,,,,,,,,,,,,,,,,,,,,,,,,,,
,,,,,,,,,,,,l,Correct!,0,84,84,93,1,t2.png,t4.png,2,0.059078,20,female,2020-09-28_11h02.26.129,torte-2b,2020.1.3,Win32,60,13269,0.551535,,,,,,,,,,,,,,,,,,,,,,,,,,,,,,,,,,,,,,,,,,,,,,,,,,,,,,,,,,,,,,,,,
,,,,,,,,,,,,a,Incorrect,0,85,85,33,1,t5.png,t1.png,4,9.55E-11,20,female,2020-09-28_11h02.26.129,torte-2b,2020.1.3,Win32,60,13269,0.56815,,,,,,,,,,,,,,,,,,,,,,,,,,,,,,,,,,,,,,,,,,,,,,,,,,,,,,,,,,,,,,,,,
,,,,,,,,,,,,l,Incorrect,0,86,86,7,1,t4.png,t5.png,1,0.90025,20,female,2020-09-28_11h02.26.129,torte-2b,2020.1.3,Win32,60,13269,0.534415,,,,,,,,,,,,,,,,,,,,,,,,,,,,,,,,,,,,,,,,,,,,,,,,,,,,,,,,,,,,,,,,,
,,,,,,,,,,,,l,Correct!,0,87,87,53,1,t3.png,t1.png,2,0.056466,20,female,2020-09-28_11h02.26.129,torte-2b,2020.1.3,Win32,60,13269,0.533075,,,,,,,,,,,,,,,,,,,,,,,,,,,,,,,,,,,,,,,,,,,,,,,,,,,,,,,,,,,,,,,,,
,,,,,,,,,,,,l,Correct!,0,88,88,103,1,t3.png,t1.png,2,0.056466,20,female,2020-09-28_11h02.26.129,torte-2b,2020.1.3,Win32,60,13269,0.627365,,,,,,,,,,,,,,,,,,,,,,,,,,,,,,,,,,,,,,,,,,,,,,,,,,,,,,,,,,,,,,,,,
,,,,,,,,,,,,l,Incorrect,0,89,89,32,1,t4.png,t5.png,1,0.90025,20,female,2020-09-28_11h02.26.129,torte-2b,2020.1.3,Win32,60,13269,0.974755,,,,,,,,,,,,,,,,,,,,,,,,,,,,,,,,,,,,,,,,,,,,,,,,,,,,,,,,,,,,,,,,,
,,,,,,,,,,,,l,Incorrect,0,90,90,64,1,t1.png,t1.png,0,0.978,20,female,2020-09-28_11h02.26.129,torte-2b,2020.1.3,Win32,60,13269,1.250385,,,,,,,,,,,,,,,,,,,,,,,,,,,,,,,,,,,,,,,,,,,,,,,,,,,,,,,,,,,,,,,,,
,,,,,,,,,,,,a,Incorrect,0,91,91,111,1,t5.png,t1.png,4,9.55E-11,20,female,2020-09-28_11h02.26.129,torte-2b,2020.1.3,Win32,60,13269,0.687985,,,,,,,,,,,,,,,,,,,,,,,,,,,,,,,,,,,,,,,,,,,,,,,,,,,,,,,,,,,,,,,,,
,,,,,,,,,,,,a,Incorrect,0,92,92,56,1,t5.png,t1.png,4,9.55E-11,20,female,2020-09-28_11h02.26.129,torte-2b,2020.1.3,Win32,60,13269,0.96747,,,,,,,,,,,,,,,,,,,,,,,,,,,,,,,,,,,,,,,,,,,,,,,,,,,,,,,,,,,,,,,,,
,,,,,,,,,,,,a,Incorrect,0,93,93,83,1,t3.png,t1.png,2,0.056466,20,female,2020-09-28_11h02.26.129,torte-2b,2020.1.3,Win32,60,13269,0.75002,,,,,,,,,,,,,,,,,,,,,,,,,,,,,,,,,,,,,,,,,,,,,,,,,,,,,,,,,,,,,,,,,
,,,,,,,,,,,,l,Incorrect,0,94,94,70,1,t5.png,t5.png,0,0.978,20,female,2020-09-28_11h02.26.129,torte-2b,2020.1.3,Win32,60,13269,0.967625,,,,,,,,,,,,,,,,,,,,,,,,,,,,,,,,,,,,,,,,,,,,,,,,,,,,,,,,,,,,,,,,,
,,,,,,,,,,,,a,Correct!,0,95,95,113,1,t5.png,t4.png,1,0.9,20,female,2020-09-28_11h02.26.129,torte-2b,2020.1.3,Win32,60,13269,0.622995,,,,,,,,,,,,,,,,,,,,,,,,,,,,,,,,,,,,,,,,,,,,,,,,,,,,,,,,,,,,,,,,,
,,,,,,,,,,,,a,Correct!,0,96,96,65,1,t4.png,t5.png,1,0.90025,20,female,2020-09-28_11h02.26.129,torte-2b,2020.1.3,Win32,60,13269,0.617805,,,,,,,,,,,,,,,,,,,,,,,,,,,,,,,,,,,,,,,,,,,,,,,,,,,,,,,,,,,,,,,,,
,,,,,,,,,,,,a,Correct!,0,97,97,112,1,t1.png,t1.png,0,0.97829,20,female,2020-09-28_11h02.26.129,torte-2b,2020.1.3,Win32,60,13269,0.983375,,,,,,,,,,,,,,,,,,,,,,,,,,,,,,,,,,,,,,,,,,,,,,,,,,,,,,,,,,,,,,,,,
,,,,,,,,,,,,l,Correct!,0,98,98,51,1,t3.png,t1.png,2,0.056466,20,female,2020-09-28_11h02.26.129,torte-2b,2020.1.3,Win32,60,13269,1.21903,,,,,,,,,,,,,,,,,,,,,,,,,,,,,,,,,,,,,,,,,,,,,,,,,,,,,,,,,,,,,,,,,
,,,,,,,,,,,,l,Incorrect,0,99,99,85,1,t3.png,t2.png,1,0.90855,20,female,2020-09-28_11h02.26.129,torte-2b,2020.1.3,Win32,60,13269,0.957365,,,,,,,,,,,,,,,,,,,,,,,,,,,,,,,,,,,,,,,,,,,,,,,,,,,,,,,,,,,,,,,,,
,,,,,,,,,,,,l,Incorrect,0,100,100,78,1,t1.png,t1.png,0,0.978,20,female,2020-09-28_11h02.26.129,torte-2b,2020.1.3,Win32,60,13269,0.68361,,,,,,,,,,,,,,,,,,,,,,,,,,,,,,,,,,,,,,,,,,,,,,,,,,,,,,,,,,,,,,,,,
,,,,,,,,,,,,a,Incorrect,0,101,101,88,1,t3.png,t1.png,2,0.056466,20,female,2020-09-28_11h02.26.129,torte-2b,2020.1.3,Win32,60,13269,1.33602,,,,,,,,,,,,,,,,,,,,,,,,,,,,,,,,,,,,,,,,,,,,,,,,,,,,,,,,,,,,,,,,,
,,,,,,,,,,,,l,Correct!,0,102,102,18,1,t4.png,t5.png,1,0.90025,20,female,2020-09-28_11h02.26.129,torte-2b,2020.1.3,Win32,60,13269,1.02208,,,,,,,,,,,,,,,,,,,,,,,,,,,,,,,,,,,,,,,,,,,,,,,,,,,,,,,,,,,,,,,,,
,,,,,,,,,,,,a,Correct!,0,103,103,118,1,t5.png,t5.png,0,0.978,20,female,2020-09-28_11h02.26.129,torte-2b,2020.1.3,Win32,60,13269,0.816575,,,,,,,,,,,,,,,,,,,,,,,,,,,,,,,,,,,,,,,,,,,,,,,,,,,,,,,,,,,,,,,,,
,,,,,,,,,,,,l,Correct!,0,104,104,90,1,t1.png,t5.png,4,9.55E-11,20,female,2020-09-28_11h02.26.129,torte-2b,2020.1.3,Win32,60,13269,0.98324,,,,,,,,,,,,,,,,,,,,,,,,,,,,,,,,,,,,,,,,,,,,,,,,,,,,,,,,,,,,,,,,,
,,,,,,,,,,,,l,Incorrect,0,105,105,81,1,t1.png,t1.png,0,0.97829,20,female,2020-09-28_11h02.26.129,torte-2b,2020.1.3,Win32,60,13269,1.050015,,,,,,,,,,,,,,,,,,,,,,,,,,,,,,,,,,,,,,,,,,,,,,,,,,,,,,,,,,,,,,,,,
,,,,,,,,,,,,l,Incorrect,0,106,106,39,1,t3.png,t2.png,1,0.90855,20,female,2020-09-28_11h02.26.129,torte-2b,2020.1.3,Win32,60,13269,0.71695,,,,,,,,,,,,,,,,,,,,,,,,,,,,,,,,,,,,,,,,,,,,,,,,,,,,,,,,,,,,,,,,,
,,,,,,,,,,,,l,Correct!,0,107,107,54,1,t1.png,t5.png,4,9.55E-11,20,female,2020-09-28_11h02.26.129,torte-2b,2020.1.3,Win32,60,13269,0.63421,,,,,,,,,,,,,,,,,,,,,,,,,,,,,,,,,,,,,,,,,,,,,,,,,,,,,,,,,,,,,,,,,
,,,,,,,,,,,,l,Correct!,0,108,108,12,1,t5.png,t1.png,4,9.55E-11,20,female,2020-09-28_11h02.26.129,torte-2b,2020.1.3,Win32,60,13269,0.78667,,,,,,,,,,,,,,,,,,,,,,,,,,,,,,,,,,,,,,,,,,,,,,,,,,,,,,,,,,,,,,,,,
,,,,,,,,,,,,l,Incorrect,0,109,109,97,1,t5.png,t5.png,0,0.97829,20,female,2020-09-28_11h02.26.129,torte-2b,2020.1.3,Win32,60,13269,0.67069,,,,,,,,,,,,,,,,,,,,,,,,,,,,,,,,,,,,,,,,,,,,,,,,,,,,,,,,,,,,,,,,,
,,,,,,,,,,,,l,Incorrect,0,110,110,63,1,t2.png,t3.png,1,0.909,20,female,2020-09-28_11h02.26.129,torte-2b,2020.1.3,Win32,60,13269,0.783795,,,,,,,,,,,,,,,,,,,,,,,,,,,,,,,,,,,,,,,,,,,,,,,,,,,,,,,,,,,,,,,,,
,,,,,,,,,,,,l,Incorrect,0,111,111,79,1,t3.png,t2.png,1,0.909,20,female,2020-09-28_11h02.26.129,torte-2b,2020.1.3,Win32,60,13269,0.71696,,,,,,,,,,,,,,,,,,,,,,,,,,,,,,,,,,,,,,,,,,,,,,,,,,,,,,,,,,,,,,,,,
,,,,,,,,,,,,a,Incorrect,0,112,112,46,1,t4.png,t2.png,2,0.059078,20,female,2020-09-28_11h02.26.129,torte-2b,2020.1.3,Win32,60,13269,0.524405,,,,,,,,,,,,,,,,,,,,,,,,,,,,,,,,,,,,,,,,,,,,,,,,,,,,,,,,,,,,,,,,,
,,,,,,,,,,,,l,Correct!,0,113,113,11,1,t1.png,t4.png,3,0.0000131,20,female,2020-09-28_11h02.26.129,torte-2b,2020.1.3,Win32,60,13269,1.174315,,,,,,,,,,,,,,,,,,,,,,,,,,,,,,,,,,,,,,,,,,,,,,,,,,,,,,,,,,,,,,,,,
,,,,,,,,,,,,l,Incorrect,0,114,114,13,1,t5.png,t5.png,0,0.97829,20,female,2020-09-28_11h02.26.129,torte-2b,2020.1.3,Win32,60,13269,0.916205,,,,,,,,,,,,,,,,,,,,,,,,,,,,,,,,,,,,,,,,,,,,,,,,,,,,,,,,,,,,,,,,,
,,,,,,,,,,,,l,Correct!,0,115,115,14,1,t2.png,t4.png,2,0.059078,20,female,2020-09-28_11h02.26.129,torte-2b,2020.1.3,Win32,60,13269,0.92534,,,,,,,,,,,,,,,,,,,,,,,,,,,,,,,,,,,,,,,,,,,,,,,,,,,,,,,,,,,,,,,,,
,,,,,,,,,,,,l,Incorrect,0,116,116,10,1,t2.png,t3.png,1,0.90855,20,female,2020-09-28_11h02.26.129,torte-2b,2020.1.3,Win32,60,13269,0.634155,,,,,,,,,,,,,,,,,,,,,,,,,,,,,,,,,,,,,,,,,,,,,,,,,,,,,,,,,,,,,,,,,
,,,,,,,,,,,,a,Incorrect,0,117,117,38,1,t3.png,t1.png,2,0.056466,20,female,2020-09-28_11h02.26.129,torte-2b,2020.1.3,Win32,60,13269,0.841455,,,,,,,,,,,,,,,,,,,,,,,,,,,,,,,,,,,,,,,,,,,,,,,,,,,,,,,,,,,,,,,,,
,,,,,,,,,,,,l,Correct!,0,118,118,3,1,t1.png,t5.png,4,9.55E-11,20,female,2020-09-28_11h02.26.129,torte-2b,2020.1.3,Win32,60,13269,0.50653,,,,,,,,,,,,,,,,,,,,,,,,,,,,,,,,,,,,,,,,,,,,,,,,,,,,,,,,,,,,,,,,,
,,,,,,,,,,,,a,Incorrect,0,119,119,102,1,t4.png,t2.png,2,0.059078,20,female,2020-09-28_11h02.26.129,torte-2b,2020.1.3,Win32,60,13269,1.53292,,,,,,,,,,,,,,,,,,,,,,,,,,,,,,,,,,,,,,,,,,,,,,,,,,,,,,,,,,,,,,,,,
,,,,,,,,,,,,a,Correct!,,,,,,t4.png,t3.png,1,0.90855,20,female,2020-09-28_11h02.26.129,torte-2b,2020.1.3,Win32,60,13269,1.404945,space,2.43283,space,15.496555,0,0,0,45,1,,,,,,,,,,,,,,,,,,,,,,,,,,,,,,,,,,,,,,,,,,,,,,,,,,,,,,,,
,,,,,,,,,,,,l,Incorrect,,,,,,t3.png,t4.png,1,0.909,20,female,2020-09-28_11h02.26.129,torte-2b,2020.1.3,Win32,60,13269,1.049985,,,,,0,1,1,82,1,,,,,,,,,,,,,,,,,,,,,,,,,,,,,,,,,,,,,,,,,,,,,,,,,,,,,,,,
,,,,,,,,,,,,l,Incorrect,,,,,,t2.png,t2.png,0,0.98115,20,female,2020-09-28_11h02.26.129,torte-2b,2020.1.3,Win32,60,13269,1.116115,,,,,0,2,2,57,1,,,,,,,,,,,,,,,,,,,,,,,,,,,,,,,,,,,,,,,,,,,,,,,,,,,,,,,,
,,,,,,,,,,,,a,Correct!,,,,,,t4.png,t4.png,0,0.98115,20,female,2020-09-28_11h02.26.129,torte-2b,2020.1.3,Win32,60,13269,1.152845,,,,,0,3,3,21,1,,,,,,,,,,,,,,,,,,,,,,,,,,,,,,,,,,,,,,,,,,,,,,,,,,,,,,,,
,,,,,,,,,,,,l,Correct!,,,,,,t3.png,t5.png,2,0.0565,20,female,2020-09-28_11h02.26.129,torte-2b,2020.1.3,Win32,60,13269,0.558545,,,,,0,4,4,30,1,,,,,,,,,,,,,,,,,,,,,,,,,,,,,,,,,,,,,,,,,,,,,,,,,,,,,,,,
,,,,,,,,,,,,l,Correct!,,,,,,t1.png,t4.png,3,0.0000131,20,female,2020-09-28_11h02.26.129,torte-2b,2020.1.3,Win32,60,13269,0.53435,,,,,0,5,5,50,1,,,,,,,,,,,,,,,,,,,,,,,,,,,,,,,,,,,,,,,,,,,,,,,,,,,,,,,,
,,,,,,,,,,,,a,Correct!,,,,,,t3.png,t2.png,1,0.90855,20,female,2020-09-28_11h02.26.129,torte-2b,2020.1.3,Win32,60,13269,0.81175,,,,,0,6,6,97,1,,,,,,,,,,,,,,,,,,,,,,,,,,,,,,,,,,,,,,,,,,,,,,,,,,,,,,,,
,,,,,,,,,,,,a,Incorrect,,,,,,t4.png,t1.png,3,0.0000131,20,female,2020-09-28_11h02.26.129,torte-2b,2020.1.3,Win32,60,13269,0.61795,,,,,0,7,7,42,1,,,,,,,,,,,,,,,,,,,,,,,,,,,,,,,,,,,,,,,,,,,,,,,,,,,,,,,,
,,,,,,,,,,,,a,Incorrect,,,,,,t1.png,t3.png,2,0.056466,20,female,2020-09-28_11h02.26.129,torte-2b,2020.1.3,Win32,60,13269,0.91708,,,,,0,8,8,60,1,,,,,,,,,,,,,,,,,,,,,,,,,,,,,,,,,,,,,,,,,,,,,,,,,,,,,,,,
,,,,,,,,,,,,a,Correct!,,,,,,t2.png,t1.png,1,0.90025,20,female,2020-09-28_11h02.26.129,torte-2b,2020.1.3,Win32,60,13269,0.649775,,,,,0,9,9,5,1,,,,,,,,,,,,,,,,,,,,,,,,,,,,,,,,,,,,,,,,,,,,,,,,,,,,,,,,
,,,,,,,,,,,,a,Correct!,,,,,,t3.png,t2.png,1,0.909,20,female,2020-09-28_11h02.26.129,torte-2b,2020.1.3,Win32,60,13269,0.63452,,,,,0,10,10,23,1,,,,,,,,,,,,,,,,,,,,,,,,,,,,,,,,,,,,,,,,,,,,,,,,,,,,,,,,
,,,,,,,,,,,,a,Incorrect,,,,,,t5.png,t3.png,2,0.056466,20,female,2020-09-28_11h02.26.129,torte-2b,2020.1.3,Win32,60,13269,0.52466,,,,,0,11,11,56,1,,,,,,,,,,,,,,,,,,,,,,,,,,,,,,,,,,,,,,,,,,,,,,,,,,,,,,,,
,,,,,,,,,,,,a,Correct!,,,,,,t4.png,t3.png,1,0.90855,20,female,2020-09-28_11h02.26.129,torte-2b,2020.1.3,Win32,60,13269,0.62355,,,,,0,12,12,35,1,,,,,,,,,,,,,,,,,,,,,,,,,,,,,,,,,,,,,,,,,,,,,,,,,,,,,,,,
,,,,,,,,,,,,l,Incorrect,,,,,,t2.png,t3.png,1,0.90855,20,female,2020-09-28_11h02.26.129,torte-2b,2020.1.3,Win32,60,13269,0.68856,,,,,0,13,13,65,1,,,,,,,,,,,,,,,,,,,,,,,,,,,,,,,,,,,,,,,,,,,,,,,,,,,,,,,,
,,,,,,,,,,,,a,Correct!,,,,,,t3.png,t2.png,1,0.90855,20,female,2020-09-28_11h02.26.129,torte-2b,2020.1.3,Win32,60,13269,0.584785,,,,,0,14,14,18,1,,,,,,,,,,,,,,,,,,,,,,,,,,,,,,,,,,,,,,,,,,,,,,,,,,,,,,,,
,,,,,,,,,,,,a,Correct!,,,,,,t4.png,t5.png,1,0.90025,20,female,2020-09-28_11h02.26.129,torte-2b,2020.1.3,Win32,60,13269,0.419365,,,,,0,15,15,103,1,,,,,,,,,,,,,,,,,,,,,,,,,,,,,,,,,,,,,,,,,,,,,,,,,,,,,,,,
,,,,,,,,,,,,a,Incorrect,,,,,,t5.png,t2.png,3,0.0000131,20,female,2020-09-28_11h02.26.129,torte-2b,2020.1.3,Win32,60,13269,0.510085,,,,,0,16,16,116,1,,,,,,,,,,,,,,,,,,,,,,,,,,,,,,,,,,,,,,,,,,,,,,,,,,,,,,,,
,,,,,,,,,,,,a,Incorrect,,,,,,t4.png,t2.png,2,0.059078,20,female,2020-09-28_11h02.26.129,torte-2b,2020.1.3,Win32,60,13269,0.492025,,,,,0,17,17,109,1,,,,,,,,,,,,,,,,,,,,,,,,,,,,,,,,,,,,,,,,,,,,,,,,,,,,,,,,
,,,,,,,,,,,,l,Incorrect,,,,,,t4.png,t5.png,1,0.9,20,female,2020-09-28_11h02.26.129,torte-2b,2020.1.3,Win32,60,13269,0.570665,,,,,0,18,18,115,1,,,,,,,,,,,,,,,,,,,,,,,,,,,,,,,,,,,,,,,,,,,,,,,,,,,,,,,,
,,,,,,,,,,,,a,Correct!,,,,,,t4.png,t3.png,1,0.90855,20,female,2020-09-28_11h02.26.129,torte-2b,2020.1.3,Win32,60,13269,0.816495,,,,,0,19,19,75,1,,,,,,,,,,,,,,,,,,,,,,,,,,,,,,,,,,,,,,,,,,,,,,,,,,,,,,,,
,,,,,,,,,,,,l,Incorrect,,,,,,t1.png,t2.png,1,0.9,20,female,2020-09-28_11h02.26.129,torte-2b,2020.1.3,Win32,60,13269,0.633885,,,,,0,20,20,1,1,,,,,,,,,,,,,,,,,,,,,,,,,,,,,,,,,,,,,,,,,,,,,,,,,,,,,,,,
,,,,,,,,,,,,l,Incorrect,,,,,,t1.png,t2.png,1,0.90025,20,female,2020-09-28_11h02.26.129,torte-2b,2020.1.3,Win32,60,13269,0.838535,,,,,0,21,21,105,1,,,,,,,,,,,,,,,,,,,,,,,,,,,,,,,,,,,,,,,,,,,,,,,,,,,,,,,,
,,,,,,,,,,,,l,Incorrect,,,,,,t2.png,t3.png,1,0.90855,20,female,2020-09-28_11h02.26.129,torte-2b,2020.1.3,Win32,60,13269,0.77492,,,,,0,22,22,10,1,,,,,,,,,,,,,,,,,,,,,,,,,,,,,,,,,,,,,,,,,,,,,,,,,,,,,,,,
,,,,,,,,,,,,l,Correct!,,,,,,t2.png,t4.png,2,0.059078,20,female,2020-09-28_11h02.26.129,torte-2b,2020.1.3,Win32,60,13269,0.4856,,,,,0,23,23,37,1,,,,,,,,,,,,,,,,,,,,,,,,,,,,,,,,,,,,,,,,,,,,,,,,,,,,,,,,
,,,,,,,,,,,,l,Correct!,,,,,,t1.png,t4.png,3,0.0000131,20,female,2020-09-28_11h02.26.129,torte-2b,2020.1.3,Win32,60,13269,0.4173,,,,,0,24,24,107,1,,,,,,,,,,,,,,,,,,,,,,,,,,,,,,,,,,,,,,,,,,,,,,,,,,,,,,,,
,,,,,,,,,,,,l,Correct!,,,,,,t2.png,t5.png,3,0.0000131,20,female,2020-09-28_11h02.26.129,torte-2b,2020.1.3,Win32,60,13269,0.370635,,,,,0,25,25,66,1,,,,,,,,,,,,,,,,,,,,,,,,,,,,,,,,,,,,,,,,,,,,,,,,,,,,,,,,
,,,,,,,,,,,,l,Incorrect,,,,,,t4.png,t2.png,2,0.059078,20,female,2020-09-28_11h02.26.129,torte-2b,2020.1.3,Win32,60,13269,0.47062,,,,,0,26,26,110,1,,,,,,,,,,,,,,,,,,,,,,,,,,,,,,,,,,,,,,,,,,,,,,,,,,,,,,,,
,,,,,,,,,,,,l,Correct!,,,,,,t2.png,t4.png,2,0.059078,20,female,2020-09-28_11h02.26.129,torte-2b,2020.1.3,Win32,60,13269,0.53545,,,,,0,27,27,11,1,,,,,,,,,,,,,,,,,,,,,,,,,,,,,,,,,,,,,,,,,,,,,,,,,,,,,,,,
,,,,,,,,,,,,l,Correct!,,,,,,t2.png,t5.png,3,0.0000131,20,female,2020-09-28_11h02.26.129,torte-2b,2020.1.3,Win32,60,13269,0.737905,,,,,0,28,28,95,1,,,,,,,,,,,,,,,,,,,,,,,,,,,,,,,,,,,,,,,,,,,,,,,,,,,,,,,,
,,,,,,,,,,,,l,Correct!,,,,,,t5.png,t3.png,2,0.0565,20,female,2020-09-28_11h02.26.129,torte-2b,2020.1.3,Win32,60,13269,0.42648,,,,,0,29,29,39,1,,,,,,,,,,,,,,,,,,,,,,,,,,,,,,,,,,,,,,,,,,,,,,,,,,,,,,,,
,,,,,,,,,,,,l,Incorrect,,,,,,t2.png,t3.png,1,0.90855,20,female,2020-09-28_11h02.26.129,torte-2b,2020.1.3,Win32,60,13269,0.358035,,,,,0,30,30,111,1,,,,,,,,,,,,,,,,,,,,,,,,,,,,,,,,,,,,,,,,,,,,,,,,,,,,,,,,
,,,,,,,,,,,,a,Incorrect,,,,,,t5.png,t1.png,4,9.55E-11,20,female,2020-09-28_11h02.26.129,torte-2b,2020.1.3,Win32,60,13269,0.638415,,,,,0,31,31,22,1,,,,,,,,,,,,,,,,,,,,,,,,,,,,,,,,,,,,,,,,,,,,,,,,,,,,,,,,
,,,,,,,,,,,,a,Incorrect,,,,,,t4.png,t2.png,2,0.059078,20,female,2020-09-28_11h02.26.129,torte-2b,2020.1.3,Win32,60,13269,0.80904,,,,,0,32,32,86,1,,,,,,,,,,,,,,,,,,,,,,,,,,,,,,,,,,,,,,,,,,,,,,,,,,,,,,,,
,,,,,,,,,,,,a,Correct!,,,,,,t4.png,t4.png,0,0.98115,20,female,2020-09-28_11h02.26.129,torte-2b,2020.1.3,Win32,60,13269,0.720515,,,,,0,33,33,52,1,,,,,,,,,,,,,,,,,,,,,,,,,,,,,,,,,,,,,,,,,,,,,,,,,,,,,,,,
,,,,,,,,,,,,l,Correct!,,,,,,t2.png,t5.png,3,0.0000131,20,female,2020-09-28_11h02.26.129,torte-2b,2020.1.3,Win32,60,13269,0.61738,,,,,0,34,34,8,1,,,,,,,,,,,,,,,,,,,,,,,,,,,,,,,,,,,,,,,,,,,,,,,,,,,,,,,,
,,,,,,,,,,,,l,Correct!,,,,,,t1.png,t4.png,3,0.0000131,20,female,2020-09-28_11h02.26.129,torte-2b,2020.1.3,Win32,60,13269,0.5508,,,,,0,35,35,92,1,,,,,,,,,,,,,,,,,,,,,,,,,,,,,,,,,,,,,,,,,,,,,,,,,,,,,,,,
,,,,,,,,,,,,a,Incorrect,,,,,,t4.png,t1.png,3,0.0000131,20,female,2020-09-28_11h02.26.129,torte-2b,2020.1.3,Win32,60,13269,0.57554,,,,,0,36,36,13,1,,,,,,,,,,,,,,,,,,,,,,,,,,,,,,,,,,,,,,,,,,,,,,,,,,,,,,,,
,,,,,,,,,,,,l,Incorrect,,,,,,t2.png,t2.png,0,0.98115,20,female,2020-09-28_11h02.26.129,torte-2b,2020.1.3,Win32,60,13269,0.525425,,,,,0,37,37,2,1,,,,,,,,,,,,,,,,,,,,,,,,,,,,,,,,,,,,,,,,,,,,,,,,,,,,,,,,
,,,,,,,,,,,,a,Correct!,,,,,,t2.png,t1.png,1,0.9,20,female,2020-09-28_11h02.26.129,torte-2b,2020.1.3,Win32,60,13269,0.500835,,,,,0,38,38,118,1,,,,,,,,,,,,,,,,,,,,,,,,,,,,,,,,,,,,,,,,,,,,,,,,,,,,,,,,
,,,,,,,,,,,,l,Incorrect,,,,,,t2.png,t3.png,1,0.909,20,female,2020-09-28_11h02.26.129,torte-2b,2020.1.3,Win32,60,13269,0.55148,,,,,0,39,39,74,1,,,,,,,,,,,,,,,,,,,,,,,,,,,,,,,,,,,,,,,,,,,,,,,,,,,,,,,,
,,,,,,,,,,,,a,Incorrect,,,,,,t3.png,t1.png,2,0.0565,20,female,2020-09-28_11h02.26.129,torte-2b,2020.1.3,Win32,60,13269,0.6172,,,,,0,40,40,31,1,,,,,,,,,,,,,,,,,,,,,,,,,,,,,,,,,,,,,,,,,,,,,,,,,,,,,,,,
,,,,,,,,,,,,a,Incorrect,,,,,,t3.png,t1.png,2,0.056466,20,female,2020-09-28_11h02.26.129,torte-2b,2020.1.3,Win32,60,13269,0.62736,,,,,0,41,41,0,1,,,,,,,,,,,,,,,,,,,,,,,,,,,,,,,,,,,,,,,,,,,,,,,,,,,,,,,,
,,,,,,,,,,,,l,Incorrect,,,,,,t1.png,t2.png,1,0.90025,20,female,2020-09-28_11h02.26.129,torte-2b,2020.1.3,Win32,60,13269,0.570845,,,,,0,42,42,112,1,,,,,,,,,,,,,,,,,,,,,,,,,,,,,,,,,,,,,,,,,,,,,,,,,,,,,,,,
,,,,,,,,,,,,l,Incorrect,,,,,,t2.png,t2.png,0,0.98115,20,female,2020-09-28_11h02.26.129,torte-2b,2020.1.3,Win32,60,13269,0.507065,,,,,0,43,43,59,1,,,,,,,,,,,,,,,,,,,,,,,,,,,,,,,,,,,,,,,,,,,,,,,,,,,,,,,,
,,,,,,,,,,,,l,Correct!,,,,,,t1.png,t5.png,4,9.55E-11,20,female,2020-09-28_11h02.26.129,torte-2b,2020.1.3,Win32,60,13269,0.384075,,,,,0,44,44,85,1,,,,,,,,,,,,,,,,,,,,,,,,,,,,,,,,,,,,,,,,,,,,,,,,,,,,,,,,
,,,,,,,,,,,,a,Incorrect,,,,,,t5.png,t3.png,2,0.056466,20,female,2020-09-28_11h02.26.129,torte-2b,2020.1.3,Win32,60,13269,1.167025,,,,,0,45,45,114,1,,,,,,,,,,,,,,,,,,,,,,,,,,,,,,,,,,,,,,,,,,,,,,,,,,,,,,,,
,,,,,,,,,,,,a,Correct!,,,,,,t4.png,t3.png,1,0.909,20,female,2020-09-28_11h02.26.129,torte-2b,2020.1.3,Win32,60,13269,0.635145,,,,,0,46,46,46,1,,,,,,,,,,,,,,,,,,,,,,,,,,,,,,,,,,,,,,,,,,,,,,,,,,,,,,,,
,,,,,,,,,,,,a,Incorrect,,,,,,t5.png,t1.png,4,9.55E-11,20,female,2020-09-28_11h02.26.129,torte-2b,2020.1.3,Win32,60,13269,0.534095,,,,,0,47,47,100,1,,,,,,,,,,,,,,,,,,,,,,,,,,,,,,,,,,,,,,,,,,,,,,,,,,,,,,,,
,,,,,,,,,,,,l,Correct!,,,,,,t1.png,t5.png,4,9.55E-11,20,female,2020-09-28_11h02.26.129,torte-2b,2020.1.3,Win32,60,13269,0.54367,,,,,0,48,48,41,1,,,,,,,,,,,,,,,,,,,,,,,,,,,,,,,,,,,,,,,,,,,,,,,,,,,,,,,,
,,,,,,,,,,,,l,Correct!,,,,,,t2.png,t4.png,2,0.059078,20,female,2020-09-28_11h02.26.129,torte-2b,2020.1.3,Win32,60,13269,0.724565,,,,,0,49,49,77,1,,,,,,,,,,,,,,,,,,,,,,,,,,,,,,,,,,,,,,,,,,,,,,,,,,,,,,,,
,,,,,,,,,,,,l,Correct!,,,,,,t1.png,t3.png,2,0.056466,20,female,2020-09-28_11h02.26.129,torte-2b,2020.1.3,Win32,60,13269,0.755745,,,,,0,50,50,63,1,,,,,,,,,,,,,,,,,,,,,,,,,,,,,,,,,,,,,,,,,,,,,,,,,,,,,,,,
,,,,,,,,,,,,a,Correct!,,,,,,t4.png,t4.png,0,0.98115,20,female,2020-09-28_11h02.26.129,torte-2b,2020.1.3,Win32,60,13269,0.872295,,,,,0,51,51,80,1,,,,,,,,,,,,,,,,,,,,,,,,,,,,,,,,,,,,,,,,,,,,,,,,,,,,,,,,
,,,,,,,,,,,,a,Incorrect,,,,,,t3.png,t1.png,2,0.056466,20,female,2020-09-28_11h02.26.129,torte-2b,2020.1.3,Win32,60,13269,0.53537,,,,,0,52,52,32,1,,,,,,,,,,,,,,,,,,,,,,,,,,,,,,,,,,,,,,,,,,,,,,,,,,,,,,,,
,,,,,,,,,,,,l,Incorrect,,,,,,t2.png,t3.png,1,0.90855,20,female,2020-09-28_11h02.26.129,torte-2b,2020.1.3,Win32,60,13269,0.69492,,,,,0,53,53,68,1,,,,,,,,,,,,,,,,,,,,,,,,,,,,,,,,,,,,,,,,,,,,,,,,,,,,,,,,
,,,,,,,,,,,,l,Correct!,,,,,,t1.png,t5.png,4,9.55E-11,20,female,2020-09-28_11h02.26.129,torte-2b,2020.1.3,Win32,60,13269,0.69144,,,,,0,54,54,55,1,,,,,,,,,,,,,,,,,,,,,,,,,,,,,,,,,,,,,,,,,,,,,,,,,,,,,,,,
,,,,,,,,,,,,l,Incorrect,,,,,,t5.png,t4.png,1,0.9,20,female,2020-09-28_11h02.26.129,torte-2b,2020.1.3,Win32,60,13269,0.5104,,,,,0,55,55,49,1,,,,,,,,,,,,,,,,,,,,,,,,,,,,,,,,,,,,,,,,,,,,,,,,,,,,,,,,
,,,,,,,,,,,,a,Incorrect,,,,,,t5.png,t2.png,3,0.0000131,20,female,2020-09-28_11h02.26.129,torte-2b,2020.1.3,Win32,60,13269,0.57549,,,,,0,56,56,119,1,,,,,,,,,,,,,,,,,,,,,,,,,,,,,,,,,,,,,,,,,,,,,,,,,,,,,,,,
,,,,,,,,,,,,a,Incorrect,,,,,,t5.png,t3.png,2,0.056466,20,female,2020-09-28_11h02.26.129,torte-2b,2020.1.3,Win32,60,13269,0.418355,,,,,0,57,57,38,1,,,,,,,,,,,,,,,,,,,,,,,,,,,,,,,,,,,,,,,,,,,,,,,,,,,,,,,,
,,,,,,,,,,,,a,Incorrect,,,,,,t5.png,t3.png,2,0.056466,20,female,2020-09-28_11h02.26.129,torte-2b,2020.1.3,Win32,60,13269,0.35049,,,,,0,58,58,108,1,,,,,,,,,,,,,,,,,,,,,,,,,,,,,,,,,,,,,,,,,,,,,,,,,,,,,,,,
,,,,,,,,,,,,l,Incorrect,,,,,,t3.png,t4.png,1,0.90855,20,female,2020-09-28_11h02.26.129,torte-2b,2020.1.3,Win32,60,13269,0.55351,,,,,0,59,59,96,1,,,,,,,,,,,,,,,,,,,,,,,,,,,,,,,,,,,,,,,,,,,,,,,,,,,,,,,,
,,,,,,,,,,,,l,Correct!,,,,,,t3.png,t5.png,2,0.056466,20,female,2020-09-28_11h02.26.129,torte-2b,2020.1.3,Win32,60,13269,0.45077,,,,,0,60,60,14,1,,,,,,,,,,,,,,,,,,,,,,,,,,,,,,,,,,,,,,,,,,,,,,,,,,,,,,,,
,,,,,,,,,,,,a,Incorrect,,,,,,t4.png,t2.png,2,0.059078,20,female,2020-09-28_11h02.26.129,torte-2b,2020.1.3,Win32,60,13269,0.667765,,,,,0,61,61,88,1,,,,,,,,,,,,,,,,,,,,,,,,,,,,,,,,,,,,,,,,,,,,,,,,,,,,,,,,
,,,,,,,,,,,,l,Incorrect,,,,,,t1.png,t2.png,1,0.90025,20,female,2020-09-28_11h02.26.129,torte-2b,2020.1.3,Win32,60,13269,0.406565,,,,,0,62,62,33,1,,,,,,,,,,,,,,,,,,,,,,,,,,,,,,,,,,,,,,,,,,,,,,,,,,,,,,,,
,,,,,,,,,,,,a,Incorrect,,,,,,t5.png,t2.png,3,0.0000131,20,female,2020-09-28_11h02.26.129,torte-2b,2020.1.3,Win32,60,13269,0.4876,,,,,0,63,63,51,1,,,,,,,,,,,,,,,,,,,,,,,,,,,,,,,,,,,,,,,,,,,,,,,,,,,,,,,,
,,,,,,,,,,,,a,Correct!,,,,,,t3.png,t2.png,1,0.90855,20,female,2020-09-28_11h02.26.129,torte-2b,2020.1.3,Win32,60,13269,0.491155,,,,,0,64,64,53,1,,,,,,,,,,,,,,,,,,,,,,,,,,,,,,,,,,,,,,,,,,,,,,,,,,,,,,,,
,,,,,,,,,,,,l,Incorrect,,,,,,t5.png,t5.png,0,0.97829,20,female,2020-09-28_11h02.26.129,torte-2b,2020.1.3,Win32,60,13269,0.817125,,,,,0,65,65,70,1,,,,,,,,,,,,,,,,,,,,,,,,,,,,,,,,,,,,,,,,,,,,,,,,,,,,,,,,
,,,,,,,,,,,,a,Incorrect,,,,,,t5.png,t1.png,4,9.55E-11,20,female,2020-09-28_11h02.26.129,torte-2b,2020.1.3,Win32,60,13269,0.883925,,,,,0,66,66,71,1,,,,,,,,,,,,,,,,,,,,,,,,,,,,,,,,,,,,,,,,,,,,,,,,,,,,,,,,
,,,,,,,,,,,,a,Incorrect,,,,,,t4.png,t1.png,3,0.0000131,20,female,2020-09-28_11h02.26.129,torte-2b,2020.1.3,Win32,60,13269,0.58465,,,,,0,67,67,93,1,,,,,,,,,,,,,,,,,,,,,,,,,,,,,,,,,,,,,,,,,,,,,,,,,,,,,,,,
,,,,,,,,,,,,l,Incorrect,,,,,,t3.png,t4.png,1,0.909,20,female,2020-09-28_11h02.26.129,torte-2b,2020.1.3,Win32,60,13269,0.66003,,,,,0,68,68,89,1,,,,,,,,,,,,,,,,,,,,,,,,,,,,,,,,,,,,,,,,,,,,,,,,,,,,,,,,
,,,,,,,,,,,,l,Correct!,,,,,,t3.png,t5.png,2,0.0565,20,female,2020-09-28_11h02.26.129,torte-2b,2020.1.3,Win32,60,13269,0.53603,,,,,0,69,69,83,1,,,,,,,,,,,,,,,,,,,,,,,,,,,,,,,,,,,,,,,,,,,,,,,,,,,,,,,,
,,,,,,,,,,,,l,Incorrect,,,,,,t3.png,t2.png,1,0.909,20,female,2020-09-28_11h02.26.129,torte-2b,2020.1.3,Win32,60,13269,0.523575,,,,,0,70,70,3,1,,,,,,,,,,,,,,,,,,,,,,,,,,,,,,,,,,,,,,,,,,,,,,,,,,,,,,,,
,,,,,,,,,,,,l,Correct!,,,,,,t1.png,t3.png,2,0.056466,20,female,2020-09-28_11h02.26.129,torte-2b,2020.1.3,Win32,60,13269,0.53342,,,,,0,71,71,69,1,,,,,,,,,,,,,,,,,,,,,,,,,,,,,,,,,,,,,,,,,,,,,,,,,,,,,,,,
,,,,,,,,,,,,a,Correct!,,,,,,t1.png,t1.png,0,0.978,20,female,2020-09-28_11h02.26.129,torte-2b,2020.1.3,Win32,60,13269,0.91715,,,,,0,72,72,54,1,,,,,,,,,,,,,,,,,,,,,,,,,,,,,,,,,,,,,,,,,,,,,,,,,,,,,,,,
,,,,,,,,,,,,a,Correct!,,,,,,t5.png,t4.png,1,0.90025,20,female,2020-09-28_11h02.26.129,torte-2b,2020.1.3,Win32,60,13269,0.45602,,,,,0,73,73,34,1,,,,,,,,,,,,,,,,,,,,,,,,,,,,,,,,,,,,,,,,,,,,,,,,,,,,,,,,
,,,,,,,,,,,,a,Correct!,,,,,,t5.png,t5.png,0,0.97829,20,female,2020-09-28_11h02.26.129,torte-2b,2020.1.3,Win32,60,13269,0.39225,,,,,0,74,74,94,1,,,,,,,,,,,,,,,,,,,,,,,,,,,,,,,,,,,,,,,,,,,,,,,,,,,,,,,,
,,,,,,,,,,,,l,Incorrect,,,,,,t2.png,t1.png,1,0.90025,20,female,2020-09-28_11h02.26.129,torte-2b,2020.1.3,Win32,60,13269,0.326865,,,,,0,75,75,62,1,,,,,,,,,,,,,,,,,,,,,,,,,,,,,,,,,,,,,,,,,,,,,,,,,,,,,,,,
,,,,,,,,,,,,a,Incorrect,,,,,,t5.png,t1.png,4,9.55E-11,20,female,2020-09-28_11h02.26.129,torte-2b,2020.1.3,Win32,60,13269,0.42268,,,,,0,76,76,43,1,,,,,,,,,,,,,,,,,,,,,,,,,,,,,,,,,,,,,,,,,,,,,,,,,,,,,,,,
,,,,,,,,,,,,l,Incorrect,,,,,,t1.png,t2.png,1,0.90025,20,female,2020-09-28_11h02.26.129,torte-2b,2020.1.3,Win32,60,13269,0.500635,,,,,0,77,77,72,1,,,,,,,,,,,,,,,,,,,,,,,,,,,,,,,,,,,,,,,,,,,,,,,,,,,,,,,,
,,,,,,,,,,,,l,Incorrect,,,,,,t4.png,t4.png,0,0.98115,20,female,2020-09-28_11h02.26.129,torte-2b,2020.1.3,Win32,60,13269,0.602725,,,,,0,78,78,79,1,,,,,,,,,,,,,,,,,,,,,,,,,,,,,,,,,,,,,,,,,,,,,,,,,,,,,,,,
,,,,,,,,,,,,l,Incorrect,,,,,,t2.png,t1.png,1,0.90025,20,female,2020-09-28_11h02.26.129,torte-2b,2020.1.3,Win32,60,13269,0.440555,,,,,0,79,79,4,1,,,,,,,,,,,,,,,,,,,,,,,,,,,,,,,,,,,,,,,,,,,,,,,,,,,,,,,,
,,,,,,,,,,,,l,Correct!,,,,,,t1.png,t5.png,4,9.55E-11,20,female,2020-09-28_11h02.26.129,torte-2b,2020.1.3,Win32,60,13269,0.450725,,,,,0,80,80,16,1,,,,,,,,,,,,,,,,,,,,,,,,,,,,,,,,,,,,,,,,,,,,,,,,,,,,,,,,
,,,,,,,,,,,,l,Incorrect,,,,,,t4.png,t5.png,1,0.90025,20,female,2020-09-28_11h02.26.129,torte-2b,2020.1.3,Win32,60,13269,0.4842,,,,,0,81,81,58,1,,,,,,,,,,,,,,,,,,,,,,,,,,,,,,,,,,,,,,,,,,,,,,,,,,,,,,,,
,,,,,,,,,,,,l,Incorrect,,,,,,t5.png,t5.png,0,0.978,20,female,2020-09-28_11h02.26.129,torte-2b,2020.1.3,Win32,60,13269,0.443995,,,,,0,82,82,117,1,,,,,,,,,,,,,,,,,,,,,,,,,,,,,,,,,,,,,,,,,,,,,,,,,,,,,,,,
,,,,,,,,,,,,l,Correct!,,,,,,t4.png,t1.png,3,0.0000131,20,female,2020-09-28_11h02.26.129,torte-2b,2020.1.3,Win32,60,13269,0.43743,,,,,0,83,83,48,1,,,,,,,,,,,,,,,,,,,,,,,,,,,,,,,,,,,,,,,,,,,,,,,,,,,,,,,,
,,,,,,,,,,,,a,Incorrect,,,,,,t4.png,t2.png,2,0.0591,20,female,2020-09-28_11h02.26.129,torte-2b,2020.1.3,Win32,60,13269,0.62576,,,,,0,84,84,36,1,,,,,,,,,,,,,,,,,,,,,,,,,,,,,,,,,,,,,,,,,,,,,,,,,,,,,,,,
,,,,,,,,,,,,a,Correct!,,,,,,t5.png,t4.png,1,0.90025,20,female,2020-09-28_11h02.26.129,torte-2b,2020.1.3,Win32,60,13269,0.61829,,,,,0,85,85,26,1,,,,,,,,,,,,,,,,,,,,,,,,,,,,,,,,,,,,,,,,,,,,,,,,,,,,,,,,
,,,,,,,,,,,,l,Correct!,,,,,,t1.png,t4.png,3,0.0000131,20,female,2020-09-28_11h02.26.129,torte-2b,2020.1.3,Win32,60,13269,0.453785,,,,,0,86,86,81,1,,,,,,,,,,,,,,,,,,,,,,,,,,,,,,,,,,,,,,,,,,,,,,,,,,,,,,,,
,,,,,,,,,,,,l,Correct!,,,,,,t2.png,t5.png,3,0.0000131,20,female,2020-09-28_11h02.26.129,torte-2b,2020.1.3,Win32,60,13269,0.356955,,,,,0,87,87,40,1,,,,,,,,,,,,,,,,,,,,,,,,,,,,,,,,,,,,,,,,,,,,,,,,,,,,,,,,
,,,,,,,,,,,,l,Incorrect,,,,,,t3.png,t4.png,1,0.90855,20,female,2020-09-28_11h02.26.129,torte-2b,2020.1.3,Win32,60,13269,0.567605,,,,,0,88,88,84,1,,,,,,,,,,,,,,,,,,,,,,,,,,,,,,,,,,,,,,,,,,,,,,,,,,,,,,,,
,,,,,,,,,,,,a,Incorrect,,,,,,t3.png,t1.png,2,0.056466,20,female,2020-09-28_11h02.26.129,torte-2b,2020.1.3,Win32,60,13269,0.46783,,,,,0,89,89,29,1,,,,,,,,,,,,,,,,,,,,,,,,,,,,,,,,,,,,,,,,,,,,,,,,,,,,,,,,
,,,,,,,,,,,,l,Correct!,,,,,,t4.png,t1.png,3,0.0000131,20,female,2020-09-28_11h02.26.129,torte-2b,2020.1.3,Win32,60,13269,0.304075,,,,,0,90,90,61,1,,,,,,,,,,,,,,,,,,,,,,,,,,,,,,,,,,,,,,,,,,,,,,,,,,,,,,,,
,,,,,,,,,,,,l,Correct!,,,,,,t1.png,t3.png,2,0.056466,20,female,2020-09-28_11h02.26.129,torte-2b,2020.1.3,Win32,60,13269,0.390685,,,,,0,91,91,87,1,,,,,,,,,,,,,,,,,,,,,,,,,,,,,,,,,,,,,,,,,,,,,,,,,,,,,,,,
,,,,,,,,,,,,l,Incorrect,,,,,,t5.png,t5.png,0,0.97829,20,female,2020-09-28_11h02.26.129,torte-2b,2020.1.3,Win32,60,13269,0.76721,,,,,0,92,92,25,1,,,,,,,,,,,,,,,,,,,,,,,,,,,,,,,,,,,,,,,,,,,,,,,,,,,,,,,,
,,,,,,,,,,,,l,Incorrect,,,,,,t1.png,t1.png,0,0.97829,20,female,2020-09-28_11h02.26.129,torte-2b,2020.1.3,Win32,60,13269,0.76088,,,,,0,93,93,78,1,,,,,,,,,,,,,,,,,,,,,,,,,,,,,,,,,,,,,,,,,,,,,,,,,,,,,,,,
,,,,,,,,,,,,l,Incorrect,,,,,,t5.png,t5.png,0,0.97829,20,female,2020-09-28_11h02.26.129,torte-2b,2020.1.3,Win32,60,13269,0.83613,,,,,0,94,94,73,1,,,,,,,,,,,,,,,,,,,,,,,,,,,,,,,,,,,,,,,,,,,,,,,,,,,,,,,,
,,,,,,,,,,,,l,Correct!,,,,,,t5.png,t4.png,1,0.90025,20,female,2020-09-28_11h02.26.129,torte-2b,2020.1.3,Win32,60,13269,0.43911,,,,,0,95,95,27,1,,,,,,,,,,,,,,,,,,,,,,,,,,,,,,,,,,,,,,,,,,,,,,,,,,,,,,,,
,,,,,,,,,,,,l,Incorrect,,,,,,t4.png,t5.png,1,0.90025,20,female,2020-09-28_11h02.26.129,torte-2b,2020.1.3,Win32,60,13269,0.43673,,,,,0,96,96,47,1,,,,,,,,,,,,,,,,,,,,,,,,,,,,,,,,,,,,,,,,,,,,,,,,,,,,,,,,
,,,,,,,,,,,,l,Correct!,,,,,,t2.png,t4.png,2,0.059078,20,female,2020-09-28_11h02.26.129,torte-2b,2020.1.3,Win32,60,13269,0.491735,,,,,0,97,97,24,1,,,,,,,,,,,,,,,,,,,,,,,,,,,,,,,,,,,,,,,,,,,,,,,,,,,,,,,,
,,,,,,,,,,,,l,Correct!,,,,,,t1.png,t3.png,2,0.056466,20,female,2020-09-28_11h02.26.129,torte-2b,2020.1.3,Win32,60,13269,0.66693,,,,,0,98,98,99,1,,,,,,,,,,,,,,,,,,,,,,,,,,,,,,,,,,,,,,,,,,,,,,,,,,,,,,,,
,,,,,,,,,,,,a,Correct!,,,,,,t1.png,t1.png,0,0.978,20,female,2020-09-28_11h02.26.129,torte-2b,2020.1.3,Win32,60,13269,0.665675,,,,,0,99,99,28,1,,,,,,,,,,,,,,,,,,,,,,,,,,,,,,,,,,,,,,,,,,,,,,,,,,,,,,,,
,,,,,,,,,,,,a,Correct!,,,,,,t5.png,t4.png,1,0.9,20,female,2020-09-28_11h02.26.129,torte-2b,2020.1.3,Win32,60,13269,0.5677,,,,,0,100,100,76,1,,,,,,,,,,,,,,,,,,,,,,,,,,,,,,,,,,,,,,,,,,,,,,,,,,,,,,,,
,,,,,,,,,,,,a,Incorrect,,,,,,t3.png,t1.png,2,0.056466,20,female,2020-09-28_11h02.26.129,torte-2b,2020.1.3,Win32,60,13269,0.518105,,,,,0,101,101,64,1,,,,,,,,,,,,,,,,,,,,,,,,,,,,,,,,,,,,,,,,,,,,,,,,,,,,,,,,
,,,,,,,,,,,,a,Correct!,,,,,,t4.png,t4.png,0,0.98115,20,female,2020-09-28_11h02.26.129,torte-2b,2020.1.3,Win32,60,13269,0.608,,,,,0,102,102,90,1,,,,,,,,,,,,,,,,,,,,,,,,,,,,,,,,,,,,,,,,,,,,,,,,,,,,,,,,
,,,,,,,,,,,,l,Incorrect,,,,,,t1.png,t1.png,0,0.97829,20,female,2020-09-28_11h02.26.129,torte-2b,2020.1.3,Win32,60,13269,0.62101,,,,,0,103,103,67,1,,,,,,,,,,,,,,,,,,,,,,,,,,,,,,,,,,,,,,,,,,,,,,,,,,,,,,,,
,,,,,,,,,,,,l,Correct!,,,,,,t1.png,t5.png,4,9.55E-11,20,female,2020-09-28_11h02.26.129,torte-2b,2020.1.3,Win32,60,13269,0.50136,,,,,0,104,104,12,1,,,,,,,,,,,,,,,,,,,,,,,,,,,,,,,,,,,,,,,,,,,,,,,,,,,,,,,,
,,,,,,,,,,,,l,Correct!,,,,,,t2.png,t5.png,3,0.0000131,20,female,2020-09-28_11h02.26.129,torte-2b,2020.1.3,Win32,60,13269,0.45069,,,,,0,105,105,104,1,,,,,,,,,,,,,,,,,,,,,,,,,,,,,,,,,,,,,,,,,,,,,,,,,,,,,,,,
,,,,,,,,,,,,l,Incorrect,,,,,,t1.png,t1.png,0,0.97829,20,female,2020-09-28_11h02.26.129,torte-2b,2020.1.3,Win32,60,13269,0.708135,,,,,0,106,106,9,1,,,,,,,,,,,,,,,,,,,,,,,,,,,,,,,,,,,,,,,,,,,,,,,,,,,,,,,,
,,,,,,,,,,,,a,Incorrect,,,,,,t5.png,t1.png,4,9.55E-11,20,female,2020-09-28_11h02.26.129,torte-2b,2020.1.3,Win32,60,13269,0.540075,,,,,0,107,107,102,1,,,,,,,,,,,,,,,,,,,,,,,,,,,,,,,,,,,,,,,,,,,,,,,,,,,,,,,,
,,,,,,,,,,,,a,Incorrect,,,,,,t5.png,t2.png,3,0.0000131,20,female,2020-09-28_11h02.26.129,torte-2b,2020.1.3,Win32,60,13269,0.552495,,,,,0,108,108,91,1,,,,,,,,,,,,,,,,,,,,,,,,,,,,,,,,,,,,,,,,,,,,,,,,,,,,,,,,
,,,,,,,,,,,,l,Correct!,,,,,,t4.png,t5.png,1,0.90025,20,female,2020-09-28_11h02.26.129,torte-2b,2020.1.3,Win32,60,13269,0.623905,,,,,0,109,109,113,1,,,,,,,,,,,,,,,,,,,,,,,,,,,,,,,,,,,,,,,,,,,,,,,,,,,,,,,,
,,,,,,,,,,,,l,Incorrect,,,,,,t2.png,t2.png,0,0.981,20,female,2020-09-28_11h02.26.129,torte-2b,2020.1.3,Win32,60,13269,0.40124,,,,,0,110,110,101,1,,,,,,,,,,,,,,,,,,,,,,,,,,,,,,,,,,,,,,,,,,,,,,,,,,,,,,,,
,,,,,,,,,,,,l,Correct!,,,,,,t3.png,t5.png,2,0.056466,20,female,2020-09-28_11h02.26.129,torte-2b,2020.1.3,Win32,60,13269,0.61984,,,,,0,111,111,44,1,,,,,,,,,,,,,,,,,,,,,,,,,,,,,,,,,,,,,,,,,,,,,,,,,,,,,,,,
,,,,,,,,,,,,l,Incorrect,,,,,,t3.png,t4.png,1,0.909,20,female,2020-09-28_11h02.26.129,torte-2b,2020.1.3,Win32,60,13269,0.4109,,,,,0,112,112,106,1,,,,,,,,,,,,,,,,,,,,,,,,,,,,,,,,,,,,,,,,,,,,,,,,,,,,,,,,
,,,,,,,,,,,,l,Correct!,,,,,,t3.png,t5.png,2,0.056466,20,female,2020-09-28_11h02.26.129,torte-2b,2020.1.3,Win32,60,13269,0.40082,,,,,0,113,113,6,1,,,,,,,,,,,,,,,,,,,,,,,,,,,,,,,,,,,,,,,,,,,,,,,,,,,,,,,,
,,,,,,,,,,,,l,Incorrect,,,,,,t4.png,t3.png,1,0.909,20,female,2020-09-28_11h02.26.129,torte-2b,2020.1.3,Win32,60,13269,0.376005,,,,,0,114,114,20,1,,,,,,,,,,,,,,,,,,,,,,,,,,,,,,,,,,,,,,,,,,,,,,,,,,,,,,,,
,,,,,,,,,,,,a,Correct!,,,,,,t2.png,t1.png,1,0.90025,20,female,2020-09-28_11h02.26.129,torte-2b,2020.1.3,Win32,60,13269,0.45192,,,,,0,115,115,19,1,,,,,,,,,,,,,,,,,,,,,,,,,,,,,,,,,,,,,,,,,,,,,,,,,,,,,,,,
,,,,,,,,,,,,a,Incorrect,,,,,,t5.png,t2.png,3,0.0000131,20,female,2020-09-28_11h02.26.129,torte-2b,2020.1.3,Win32,60,13269,0.408715,,,,,0,116,116,98,1,,,,,,,,,,,,,,,,,,,,,,,,,,,,,,,,,,,,,,,,,,,,,,,,,,,,,,,,
,,,,,,,,,,,,a,Correct!,,,,,,t2.png,t2.png,0,0.98115,20,female,2020-09-28_11h02.26.129,torte-2b,2020.1.3,Win32,60,13269,0.55047,,,,,0,117,117,7,1,,,,,,,,,,,,,,,,,,,,,,,,,,,,,,,,,,,,,,,,,,,,,,,,,,,,,,,,
,,,,,,,,,,,,a,Incorrect,,,,,,t2.png,t4.png,2,0.0591,20,female,2020-09-28_11h02.26.129,torte-2b,2020.1.3,Win32,60,13269,0.328065,,,,,0,118,118,15,1,,,,,,,,,,,,,,,,,,,,,,,,,,,,,,,,,,,,,,,,,,,,,,,,,,,,,,,,
,,,,,,,,,,,,l,Correct!,,,,,,t1.png,t4.png,3,0.0000131,20,female,2020-09-28_11h02.26.129,torte-2b,2020.1.3,Win32,60,13269,0.452695,,,,,0,119,119,17,1,,,,,,,,,,,,,,,,,,,,,,,,,,,,,,,,,,,,,,,,,,,,,,,,,,,,,,,,
,,,,,,,,,,,,,,,,,,,,,,,20,female,2020-09-28_11h02.26.129,torte-2b,2020.1.3,Win32,60,13269,,space,1.73901,,,,,,,,space,41.56271,,0,0,0,0,1,6,,,,,,,,,,,,,,,,,,,,,,,,,,,,,,,,,,,,,,,,,,,,,,,
,,,,,,,,,,,,,,,,,,,,,,,20,female,2020-09-28_11h02.26.129,torte-2b,2020.1.3,Win32,60,13269,,,,,,,,,,,,,,0,1,1,1,1,7,,,,,,,,,,,,,,,,,,,,,,,,,,,,,,,,,,,,,,,,,,,,,,,
,,,,,,,,,,,,,,,,,,,,,,,20,female,2020-09-28_11h02.26.129,torte-2b,2020.1.3,Win32,60,13269,,,,,,,,,,,,,space,0,2,2,2,1,6,0.37017,,,,,,,,,,,,,,,,,,,,,,,,,,,,,,,,,,,,,,,,,,,,,,
,,,,,,,,,,,,,,,,,,,,,,,20,female,2020-09-28_11h02.26.129,torte-2b,2020.1.3,Win32,60,13269,,,,,,,,,,,,,space,0,3,3,3,1,7,0.004965,,,,,,,,,,,,,,,,,,,,,,,,,,,,,,,,,,,,,,,,,,,,,,
,,,,,,,,,,,,,,,,,,,,,,,20,female,2020-09-28_11h02.26.129,torte-2b,2020.1.3,Win32,60,13269,,,,,,,,,,,,,,0,4,4,4,1,5,,,,,,,,,,,,,,,,,,,,,,,,,,,,,,,,,,,,,,,,,,,,,,,
,,,,,,,,,,,,,,,,,,,,,,,20,female,2020-09-28_11h02.26.129,torte-2b,2020.1.3,Win32,60,13269,,,,,,,,,,,,,space,0,5,5,5,1,7,0.28718,,,,,,,,,,,,,,,,,,,,,,,,,,,,,,,,,,,,,,,,,,,,,,
,,,,,,,,,,,,,,,,,,,,,,,20,female,2020-09-28_11h02.26.129,torte-2b,2020.1.3,Win32,60,13269,,,,,,,,,,,,,,0,6,6,6,1,2,,,,,,,,,,,,,,,,,,,,,,,,,,,,,,,,,,,,,,,,,,,,,,,
,,,,,,,,,,,,,,,,,,,,,,,20,female,2020-09-28_11h02.26.129,torte-2b,2020.1.3,Win32,60,13269,,,,,,,,,,,,,,0,7,7,7,1,4,,,,,,,,,,,,,,,,,,,,,,,,,,,,,,,,,,,,,,,,,,,,,,,
,,,,,,,,,,,,,,,,,,,,,,,20,female,2020-09-28_11h02.26.129,torte-2b,2020.1.3,Win32,60,13269,,,,,,,,,,,,,,0,8,8,8,1,7,,,,,,,,,,,,,,,,,,,,,,,,,,,,,,,,,,,,,,,,,,,,,,,
,,,,,,,,,,,,,,,,,,,,,,,20,female,2020-09-28_11h02.26.129,torte-2b,2020.1.3,Win32,60,13269,,,,,,,,,,,,,,0,9,9,9,1,4,,,,,,,,,,,,,,,,,,,,,,,,,,,,,,,,,,,,,,,,,,,,,,,
,,,,,,,,,,,,,,,,,,,,,,,20,female,2020-09-28_11h02.26.129,torte-2b,2020.1.3,Win32,60,13269,,,,,,,,,,,,,space,0,10,10,10,1,7,0.3903,,,,,,,,,,,,,,,,,,,,,,,,,,,,,,,,,,,,,,,,,,,,,,
,,,,,,,,,,,,,,,,,,,,,,,20,female,2020-09-28_11h02.26.129,torte-2b,2020.1.3,Win32,60,13269,,,,,,,,,,,,,,0,11,11,11,1,7,,,,,,,,,,,,,,,,,,,,,,,,,,,,,,,,,,,,,,,,,,,,,,,
,,,,,,,,,,,,,,,,,,,,,,,20,female,2020-09-28_11h02.26.129,torte-2b,2020.1.3,Win32,60,13269,,,,,,,,,,,,,space,0,12,12,12,1,7,0.50919,,,,,,,,,,,,,,,,,,,,,,,,,,,,,,,,,,,,,,,,,,,,,,
,,,,,,,,,,,,,,,,,,,,,,,20,female,2020-09-28_11h02.26.129,torte-2b,2020.1.3,Win32,60,13269,,,,,,,,,,,,,space,0,13,13,13,1,4,0.83389,,,,,,,,,,,,,,,,,,,,,,,,,,,,,,,,,,,,,,,,,,,,,,
,,,,,,,,,,,,,,,,,,,,,,,20,female,2020-09-28_11h02.26.129,torte-2b,2020.1.3,Win32,60,13269,,,,,,,,,,,,,,0,14,14,14,1,6,,,,,,,,,,,,,,,,,,,,,,,,,,,,,,,,,,,,,,,,,,,,,,,
,,,,,,,,,,,,,,,,,,,,,,,20,female,2020-09-28_11h02.26.129,torte-2b,2020.1.3,Win32,60,13269,,,,,,,,,,,,,space,0,15,15,15,1,4,0.356495,,,,,,,,,,,,,,,,,,,,,,,,,,,,,,,,,,,,,,,,,,,,,,
,,,,,,,,,,,,,,,,,,,,,,,20,female,2020-09-28_11h02.26.129,torte-2b,2020.1.3,Win32,60,13269,,,,,,,,,,,,,space,0,16,16,16,1,6,0.38824,,,,,,,,,,,,,,,,,,,,,,,,,,,,,,,,,,,,,,,,,,,,,,
,,,,,,,,,,,,,,,,,,,,,,,20,female,2020-09-28_11h02.26.129,torte-2b,2020.1.3,Win32,60,13269,,,,,,,,,,,,,,0,17,17,17,1,7,,,,,,,,,,,,,,,,,,,,,,,,,,,,,,,,,,,,,,,,,,,,,,,
,,,,,,,,,,,,,,,,,,,,,,,20,female,2020-09-28_11h02.26.129,torte-2b,2020.1.3,Win32,60,13269,,,,,,,,,,,,,space,0,18,18,18,1,6,0.376515,,,,,,,,,,,,,,,,,,,,,,,,,,,,,,,,,,,,,,,,,,,,,,
,,,,,,,,,,,,,,,,,,,,,,,20,female,2020-09-28_11h02.26.129,torte-2b,2020.1.3,Win32,60,13269,,,,,,,,,,,,,space,0,19,19,19,1,7,0.636325,,,,,,,,,,,,,,,,,,,,,,,,,,,,,,,,,,,,,,,,,,,,,,
,,,,,,,,,,,,,,,,,,,,,,,20,female,2020-09-28_11h02.26.129,torte-2b,2020.1.3,Win32,60,13269,,,,,,,,,,,,,,0,20,20,20,1,5,,,,,,,,,,,,,,,,,,,,,,,,,,,,,,,,,,,,,,,,,,,,,,,
,,,,,,,,,,,,,,,,,,,,,,,20,female,2020-09-28_11h02.26.129,torte-2b,2020.1.3,Win32,60,13269,,,,,,,,,,,,,,0,21,21,21,1,1,,,,,,,,,,,,,,,,,,,,,,,,,,,,,,,,,,,,,,,,,,,,,,,
,,,,,,,,,,,,,,,,,,,,,,,20,female,2020-09-28_11h02.26.129,torte-2b,2020.1.3,Win32,60,13269,,,,,,,,,,,,,,0,22,22,22,1,6,,,,,,,,,,,,,,,,,,,,,,,,,,,,,,,,,,,,,,,,,,,,,,,
,,,,,,,,,,,,,,,,,,,,,,,20,female,2020-09-28_11h02.26.129,torte-2b,2020.1.3,Win32,60,13269,,,,,,,,,,,,,space,0,23,23,23,1,1,0.36218,,,,,,,,,,,,,,,,,,,,,,,,,,,,,,,,,,,,,,,,,,,,,,
,,,,,,,,,,,,,,,,,,,,,,,20,female,2020-09-28_11h02.26.129,torte-2b,2020.1.3,Win32,60,13269,,,,,,,,,,,,,,0,24,24,24,1,5,,,,,,,,,,,,,,,,,,,,,,,,,,,,,,,,,,,,,,,,,,,,,,,
,,,,,,,,,,,,,,,,,,,,,,,20,female,2020-09-28_11h02.26.129,torte-2b,2020.1.3,Win32,60,13269,,,,,,,,,,,,,space,0,25,25,25,1,6,0.53437,,,,,,,,,,,,,,,,,,,,,,,,,,,,,,,,,,,,,,,,,,,,,,
,,,,,,,,,,,,,,,,,,,,,,,20,female,2020-09-28_11h02.26.129,torte-2b,2020.1.3,Win32,60,13269,,,,,,,,,,,,,,0,26,26,26,1,6,,,,,,,,,,,,,,,,,,,,,,,,,,,,,,,,,,,,,,,,,,,,,,,
,,,,,,,,,,,,,,,,,,,,,,,20,female,2020-09-28_11h02.26.129,torte-2b,2020.1.3,Win32,60,13269,,,,,,,,,,,,,,0,27,27,27,1,6,,,,,,,,,,,,,,,,,,,,,,,,,,,,,,,,,,,,,,,,,,,,,,,
,,,,,,,,,,,,,,,,,,,,,,,20,female,2020-09-28_11h02.26.129,torte-2b,2020.1.3,Win32,60,13269,,,,,,,,,,,,,,0,28,28,28,1,5,,,,,,,,,,,,,,,,,,,,,,,,,,,,,,,,,,,,,,,,,,,,,,,
,,,,,,,,,,,,,,,,,,,,,,,20,female,2020-09-28_11h02.26.129,torte-2b,2020.1.3,Win32,60,13269,,,,,,,,,,,,,,0,29,29,29,1,2,,,,,,,,,,,,,,,,,,,,,,,,,,,,,,,,,,,,,,,,,,,,,,,
,,,,,,,,,,,,,,,,,,,,,,,20,female,2020-09-28_11h02.26.129,torte-2b,2020.1.3,Win32,60,13269,,,,,,,,,,,,,space,0,30,30,30,1,5,0.64398,,,,,,,,,,,,,,,,,,,,,,,,,,,,,,,,,,,,,,,,,,,,,,
,,,,,,,,,,,,,,,,,,,,,,,20,female,2020-09-28_11h02.26.129,torte-2b,2020.1.3,Win32,60,13269,,,,,,,,,,,,,space,0,31,31,31,1,2,0.56799,,,,,,,,,,,,,,,,,,,,,,,,,,,,,,,,,,,,,,,,,,,,,,
,,,,,,,,,,,,,,,,,,,,,,,20,female,2020-09-28_11h02.26.129,torte-2b,2020.1.3,Win32,60,13269,,,,,,,,,,,,,space,0,32,32,32,1,5,0.55198,,,,,,,,,,,,,,,,,,,,,,,,,,,,,,,,,,,,,,,,,,,,,,
,,,,,,,,,,,,,,,,,,,,,,,20,female,2020-09-28_11h02.26.129,torte-2b,2020.1.3,Win32,60,13269,,,,,,,,,,,,,,0,33,33,33,1,1,,,,,,,,,,,,,,,,,,,,,,,,,,,,,,,,,,,,,,,,,,,,,,,
,,,,,,,,,,,,,,,,,,,,,,,20,female,2020-09-28_11h02.26.129,torte-2b,2020.1.3,Win32,60,13269,,,,,,,,,,,,,space,0,34,34,34,1,1,0.452255,,,,,,,,,,,,,,,,,,,,,,,,,,,,,,,,,,,,,,,,,,,,,,
,,,,,,,,,,,,,,,,,,,,,,,20,female,2020-09-28_11h02.26.129,torte-2b,2020.1.3,Win32,60,13269,,,,,,,,,,,,,,,,,,,2,,0,0,0,0,1,,,,,,,,,,,,,,,,,,,,,,,,,,,,,,,,,,,,,,,,,
,,,,,,,,,,,,,,,,,,,,,,,20,female,2020-09-28_11h02.26.129,torte-2b,2020.1.3,Win32,60,13269,,,,,,,,,,,,,space,,,,,,2,1.1841,0,1,1,1,1,,,,,,,,,,,,,,,,,,,,,,,,,,,,,,,,,,,,,,,,,
,,,,,,,,,,,,,,,,,,,,,,,20,female,2020-09-28_11h02.26.129,torte-2b,2020.1.3,Win32,60,13269,,,,,,,,,,,,,,,,,,,6,,0,2,2,2,1,,,,,,,,,,,,,,,,,,,,,,,,,,,,,,,,,,,,,,,,,
,,,,,,,,,,,,,,,,,,,,,,,20,female,2020-09-28_11h02.26.129,torte-2b,2020.1.3,Win32,60,13269,,,,,,,,,,,,,space,,,,,,2,0.534125,0,3,3,3,1,,,,,,,,,,,,,,,,,,,,,,,,,,,,,,,,,,,,,,,,,
,,,,,,,,,,,,,,,,,,,,,,,20,female,2020-09-28_11h02.26.129,torte-2b,2020.1.3,Win32,60,13269,,,,,,,,,,,,,space,,,,,,6,0.40681,0,4,4,4,1,,,,,,,,,,,,,,,,,,,,,,,,,,,,,,,,,,,,,,,,,
,,,,,,,,,,,,,,,,,,,,,,,20,female,2020-09-28_11h02.26.129,torte-2b,2020.1.3,Win32,60,13269,,,,,,,,,,,,,space,,,,,,2,0.451415,0,5,5,5,1,,,,,,,,,,,,,,,,,,,,,,,,,,,,,,,,,,,,,,,,,
,,,,,,,,,,,,,,,,,,,,,,,20,female,2020-09-28_11h02.26.129,torte-2b,2020.1.3,Win32,60,13269,,,,,,,,,,,,,,,,,,,7,,0,6,6,6,1,,,,,,,,,,,,,,,,,,,,,,,,,,,,,,,,,,,,,,,,,
,,,,,,,,,,,,,,,,,,,,,,,20,female,2020-09-28_11h02.26.129,torte-2b,2020.1.3,Win32,60,13269,,,,,,,,,,,,,space,,,,,,2,0.373075,0,7,7,7,1,,,,,,,,,,,,,,,,,,,,,,,,,,,,,,,,,,,,,,,,,
,,,,,,,,,,,,,,,,,,,,,,,20,female,2020-09-28_11h02.26.129,torte-2b,2020.1.3,Win32,60,13269,,,,,,,,,,,,,space,,,,,,7,0.543125,0,8,8,8,1,,,,,,,,,,,,,,,,,,,,,,,,,,,,,,,,,,,,,,,,,
,,,,,,,,,,,,,,,,,,,,,,,20,female,2020-09-28_11h02.26.129,torte-2b,2020.1.3,Win32,60,13269,,,,,,,,,,,,,space,,,,,,2,0.78805,0,9,9,9,1,,,,,,,,,,,,,,,,,,,,,,,,,,,,,,,,,,,,,,,,,
,,,,,,,,,,,,,,,,,,,,,,,20,female,2020-09-28_11h02.26.129,torte-2b,2020.1.3,Win32,60,13269,,,,,,,,,,,,,,,,,,,5,,0,10,10,10,1,,,,,,,,,,,,,,,,,,,,,,,,,,,,,,,,,,,,,,,,,
,,,,,,,,,,,,,,,,,,,,,,,20,female,2020-09-28_11h02.26.129,torte-2b,2020.1.3,Win32,60,13269,,,,,,,,,,,,,,,,,,,4,,0,11,11,11,1,,,,,,,,,,,,,,,,,,,,,,,,,,,,,,,,,,,,,,,,,
,,,,,,,,,,,,,,,,,,,,,,,20,female,2020-09-28_11h02.26.129,torte-2b,2020.1.3,Win32,60,13269,,,,,,,,,,,,,space,,,,,,5,0.387295,0,12,12,12,1,,,,,,,,,,,,,,,,,,,,,,,,,,,,,,,,,,,,,,,,,
,,,,,,,,,,,,,,,,,,,,,,,20,female,2020-09-28_11h02.26.129,torte-2b,2020.1.3,Win32,60,13269,,,,,,,,,,,,,,,,,,,6,,0,13,13,13,1,,,,,,,,,,,,,,,,,,,,,,,,,,,,,,,,,,,,,,,,,
,,,,,,,,,,,,,,,,,,,,,,,20,female,2020-09-28_11h02.26.129,torte-2b,2020.1.3,Win32,60,13269,,,,,,,,,,,,,,,,,,,5,,0,14,14,14,1,,,,,,,,,,,,,,,,,,,,,,,,,,,,,,,,,,,,,,,,,
,,,,,,,,,,,,,,,,,,,,,,,20,female,2020-09-28_11h02.26.129,torte-2b,2020.1.3,Win32,60,13269,,,,,,,,,,,,,,,,,,,4,,0,15,15,15,1,,,,,,,,,,,,,,,,,,,,,,,,,,,,,,,,,,,,,,,,,
,,,,,,,,,,,,,,,,,,,,,,,20,female,2020-09-28_11h02.26.129,torte-2b,2020.1.3,Win32,60,13269,,,,,,,,,,,,,space,,,,,,5,0.38386,0,16,16,16,1,,,,,,,,,,,,,,,,,,,,,,,,,,,,,,,,,,,,,,,,,
,,,,,,,,,,,,,,,,,,,,,,,20,female,2020-09-28_11h02.26.129,torte-2b,2020.1.3,Win32,60,13269,,,,,,,,,,,,,,,,,,,3,,0,17,17,17,1,,,,,,,,,,,,,,,,,,,,,,,,,,,,,,,,,,,,,,,,,
,,,,,,,,,,,,,,,,,,,,,,,20,female,2020-09-28_11h02.26.129,torte-2b,2020.1.3,Win32,60,13269,,,,,,,,,,,,,,,,,,,6,,0,18,18,18,1,,,,,,,,,,,,,,,,,,,,,,,,,,,,,,,,,,,,,,,,,
,,,,,,,,,,,,,,,,,,,,,,,20,female,2020-09-28_11h02.26.129,torte-2b,2020.1.3,Win32,60,13269,,,,,,,,,,,,,,,,,,,6,,0,19,19,19,1,,,,,,,,,,,,,,,,,,,,,,,,,,,,,,,,,,,,,,,,,
,,,,,,,,,,,,,,,,,,,,,,,20,female,2020-09-28_11h02.26.129,torte-2b,2020.1.3,Win32,60,13269,,,,,,,,,,,,,space,,,,,,6,0.63417,0,20,20,20,1,,,,,,,,,,,,,,,,,,,,,,,,,,,,,,,,,,,,,,,,,
,,,,,,,,,,,,,,,,,,,,,,,20,female,2020-09-28_11h02.26.129,torte-2b,2020.1.3,Win32,60,13269,,,,,,,,,,,,,,,,,,,4,,0,21,21,21,1,,,,,,,,,,,,,,,,,,,,,,,,,,,,,,,,,,,,,,,,,
,,,,,,,,,,,,,,,,,,,,,,,20,female,2020-09-28_11h02.26.129,torte-2b,2020.1.3,Win32,60,13269,,,,,,,,,,,,,space,,,,,,6,0.95128,0,22,22,22,1,,,,,,,,,,,,,,,,,,,,,,,,,,,,,,,,,,,,,,,,,
,,,,,,,,,,,,,,,,,,,,,,,20,female,2020-09-28_11h02.26.129,torte-2b,2020.1.3,Win32,60,13269,,,,,,,,,,,,,space,,,,,,4,0.97327,0,23,23,23,1,,,,,,,,,,,,,,,,,,,,,,,,,,,,,,,,,,,,,,,,,
,,,,,,,,,,,,,,,,,,,,,,,20,female,2020-09-28_11h02.26.129,torte-2b,2020.1.3,Win32,60,13269,,,,,,,,,,,,,space,,,,,,6,0.45949,0,24,24,24,1,,,,,,,,,,,,,,,,,,,,,,,,,,,,,,,,,,,,,,,,,
,,,,,,,,,,,,,,,,,,,,,,,20,female,2020-09-28_11h02.26.129,torte-2b,2020.1.3,Win32,60,13269,,,,,,,,,,,,,space,,,,,,6,1.618285,0,25,25,25,1,,,,,,,,,,,,,,,,,,,,,,,,,,,,,,,,,,,,,,,,,
,,,,,,,,,,,,,,,,,,,,,,,20,female,2020-09-28_11h02.26.129,torte-2b,2020.1.3,Win32,60,13269,,,,,,,,,,,,,,,,,,,7,,0,26,26,26,1,,,,,,,,,,,,,,,,,,,,,,,,,,,,,,,,,,,,,,,,,
,,,,,,,,,,,,,,,,,,,,,,,20,female,2020-09-28_11h02.26.129,torte-2b,2020.1.3,Win32,60,13269,,,,,,,,,,,,,,,,,,,1,,0,27,27,27,1,,,,,,,,,,,,,,,,,,,,,,,,,,,,,,,,,,,,,,,,,
,,,,,,,,,,,,,,,,,,,,,,,20,female,2020-09-28_11h02.26.129,torte-2b,2020.1.3,Win32,60,13269,,,,,,,,,,,,,space,,,,,,7,0.4277,0,28,28,28,1,,,,,,,,,,,,,,,,,,,,,,,,,,,,,,,,,,,,,,,,,
,,,,,,,,,,,,,,,,,,,,,,,20,female,2020-09-28_11h02.26.129,torte-2b,2020.1.3,Win32,60,13269,,,,,,,,,,,,,,,,,,,4,,0,29,29,29,1,,,,,,,,,,,,,,,,,,,,,,,,,,,,,,,,,,,,,,,,,
,,,,,,,,,,,,,,,,,,,,,,,20,female,2020-09-28_11h02.26.129,torte-2b,2020.1.3,Win32,60,13269,,,,,,,,,,,,,space,,,,,,7,0.39155,0,30,30,30,1,,,,,,,,,,,,,,,,,,,,,,,,,,,,,,,,,,,,,,,,,
,,,,,,,,,,,,,,,,,,,,,,,20,female,2020-09-28_11h02.26.129,torte-2b,2020.1.3,Win32,60,13269,,,,,,,,,,,,,,,,,,,3,,0,31,31,31,1,,,,,,,,,,,,,,,,,,,,,,,,,,,,,,,,,,,,,,,,,
,,,,,,,,,,,,,,,,,,,,,,,20,female,2020-09-28_11h02.26.129,torte-2b,2020.1.3,Win32,60,13269,,,,,,,,,,,,,,,,,,,2,,0,32,32,32,1,,,,,,,,,,,,,,,,,,,,,,,,,,,,,,,,,,,,,,,,,
,,,,,,,,,,,,,,,,,,,,,,,20,female,2020-09-28_11h02.26.129,torte-2b,2020.1.3,Win32,60,13269,,,,,,,,,,,,,,,,,,,6,,0,33,33,33,1,,,,,,,,,,,,,,,,,,,,,,,,,,,,,,,,,,,,,,,,,
,,,,,,,,,,,,,,,,,,,,,,,20,female,2020-09-28_11h02.26.129,torte-2b,2020.1.3,Win32,60,13269,,,,,,,,,,,,,,,,,,,3,,0,34,34,34,1,,,,,,,,,,,,,,,,,,,,,,,,,,,,,,,,,,,,,,,,,
,,,,,,,,,,,,,,,,,,,,,,,20,female,2020-09-28_11h02.26.129,torte-2b,2020.1.3,Win32,60,13269,,,,,,,,,,,,,,,,,,,7,,,,,,,0,0,0,0,1,,,,,,,,,,,,,,,,,,,,,,,,,,,,,,,,,,,,
,,,,,,,,,,,,,,,,,,,,,,,20,female,2020-09-28_11h02.26.129,torte-2b,2020.1.3,Win32,60,13269,,,,,,,,,,,,,,,,,,,5,,,,,,,0,1,1,1,1,,,,,,,,,,,,,,,,,,,,,,,,,,,,,,,,,,,,
,,,,,,,,,,,,,,,,,,,,,,,20,female,2020-09-28_11h02.26.129,torte-2b,2020.1.3,Win32,60,13269,,,,,,,,,,,,,,,,,,,4,,,,,,,0,2,2,2,1,,,,,,,,,,,,,,,,,,,,,,,,,,,,,,,,,,,,
,,,,,,,,,,,,,,,,,,,,,,,20,female,2020-09-28_11h02.26.129,torte-2b,2020.1.3,Win32,60,13269,,,,,,,,,,,,,,,,,,,5,,,,,,,0,3,3,3,1,,,,,,,,,,,,,,,,,,,,,,,,,,,,,,,,,,,,
,,,,,,,,,,,,,,,,,,,,,,,20,female,2020-09-28_11h02.26.129,torte-2b,2020.1.3,Win32,60,13269,,,,,,,,,,,,,,,,,,,6,,,,,,,0,4,4,4,1,,,,,,,,,,,,,,,,,,,,,,,,,,,,,,,,,,,,
,,,,,,,,,,,,,,,,,,,,,,,20,female,2020-09-28_11h02.26.129,torte-2b,2020.1.3,Win32,60,13269,,,,,,,,,,,,,,,,,,,5,,,,,,,0,5,5,5,1,,,,,,,,,,,,,,,,,,,,,,,,,,,,,,,,,,,,
,,,,,,,,,,,,,,,,,,,,,,,20,female,2020-09-28_11h02.26.129,torte-2b,2020.1.3,Win32,60,13269,,,,,,,,,,,,,,,,,,,3,,,,,,,0,6,6,6,1,,,,,,,,,,,,,,,,,,,,,,,,,,,,,,,,,,,,
,,,,,,,,,,,,,,,,,,,,,,,20,female,2020-09-28_11h02.26.129,torte-2b,2020.1.3,Win32,60,13269,,,,,,,,,,,,,space,,,,,,4,0.49947,,,,,,0,7,7,7,1,,,,,,,,,,,,,,,,,,,,,,,,,,,,,,,,,,,,
,,,,,,,,,,,,,,,,,,,,,,,20,female,2020-09-28_11h02.26.129,torte-2b,2020.1.3,Win32,60,13269,,,,,,,,,,,,,,,,,,,3,,,,,,,0,8,8,8,1,,,,,,,,,,,,,,,,,,,,,,,,,,,,,,,,,,,,
,,,,,,,,,,,,,,,,,,,,,,,20,female,2020-09-28_11h02.26.129,torte-2b,2020.1.3,Win32,60,13269,,,,,,,,,,,,,,,,,,,1,,,,,,,0,9,9,9,1,,,,,,,,,,,,,,,,,,,,,,,,,,,,,,,,,,,,
,,,,,,,,,,,,,,,,,,,,,,,20,female,2020-09-28_11h02.26.129,torte-2b,2020.1.3,Win32,60,13269,,,,,,,,,,,,,,,,,,,2,,,,,,,0,10,10,10,1,,,,,,,,,,,,,,,,,,,,,,,,,,,,,,,,,,,,
,,,,,,,,,,,,,,,,,,,,,,,20,female,2020-09-28_11h02.26.129,torte-2b,2020.1.3,Win32,60,13269,,,,,,,,,,,,,space,,,,,,1,0.33482,,,,,,0,11,11,11,1,,,,,,,,,,,,,,,,,,,,,,,,,,,,,,,,,,,,
,,,,,,,,,,,,,,,,,,,,,,,20,female,2020-09-28_11h02.26.129,torte-2b,2020.1.3,Win32,60,13269,,,,,,,,,,,,,,,,,,,2,,,,,,,0,12,12,12,1,,,,,,,,,,,,,,,,,,,,,,,,,,,,,,,,,,,,
,,,,,,,,,,,,,,,,,,,,,,,20,female,2020-09-28_11h02.26.129,torte-2b,2020.1.3,Win32,60,13269,,,,,,,,,,,,,,,,,,,1,,,,,,,0,13,13,13,1,,,,,,,,,,,,,,,,,,,,,,,,,,,,,,,,,,,,
,,,,,,,,,,,,,,,,,,,,,,,20,female,2020-09-28_11h02.26.129,torte-2b,2020.1.3,Win32,60,13269,,,,,,,,,,,,,,,,,,,3,,,,,,,0,14,14,14,1,,,,,,,,,,,,,,,,,,,,,,,,,,,,,,,,,,,,
,,,,,,,,,,,,,,,,,,,,,,,20,female,2020-09-28_11h02.26.129,torte-2b,2020.1.3,Win32,60,13269,,,,,,,,,,,,,space,,,,,,1,0.384945,,,,,,0,15,15,15,1,,,,,,,,,,,,,,,,,,,,,,,,,,,,,,,,,,,,
,,,,,,,,,,,,,,,,,,,,,,,20,female,2020-09-28_11h02.26.129,torte-2b,2020.1.3,Win32,60,13269,,,,,,,,,,,,,,,,,,,7,,,,,,,0,16,16,16,1,,,,,,,,,,,,,,,,,,,,,,,,,,,,,,,,,,,,
,,,,,,,,,,,,,,,,,,,,,,,20,female,2020-09-28_11h02.26.129,torte-2b,2020.1.3,Win32,60,13269,,,,,,,,,,,,,,,,,,,7,,,,,,,0,17,17,17,1,,,,,,,,,,,,,,,,,,,,,,,,,,,,,,,,,,,,
,,,,,,,,,,,,,,,,,,,,,,,20,female,2020-09-28_11h02.26.129,torte-2b,2020.1.3,Win32,60,13269,,,,,,,,,,,,,,,,,,,4,,,,,,,0,18,18,18,1,,,,,,,,,,,,,,,,,,,,,,,,,,,,,,,,,,,,
,,,,,,,,,,,,,,,,,,,,,,,20,female,2020-09-28_11h02.26.129,torte-2b,2020.1.3,Win32,60,13269,,,,,,,,,,,,,space,,,,,,7,0.85735,,,,,,0,19,19,19,1,,,,,,,,,,,,,,,,,,,,,,,,,,,,,,,,,,,,
,,,,,,,,,,,,,,,,,,,,,,,20,female,2020-09-28_11h02.26.129,torte-2b,2020.1.3,Win32,60,13269,,,,,,,,,,,,,,,,,,,3,,,,,,,0,20,20,20,1,,,,,,,,,,,,,,,,,,,,,,,,,,,,,,,,,,,,
,,,,,,,,,,,,,,,,,,,,,,,20,female,2020-09-28_11h02.26.129,torte-2b,2020.1.3,Win32,60,13269,,,,,,,,,,,,,,,,,,,7,,,,,,,0,21,21,21,1,,,,,,,,,,,,,,,,,,,,,,,,,,,,,,,,,,,,
,,,,,,,,,,,,,,,,,,,,,,,20,female,2020-09-28_11h02.26.129,torte-2b,2020.1.3,Win32,60,13269,,,,,,,,,,,,,space,,,,,,3,0.7335,,,,,,0,22,22,22,1,,,,,,,,,,,,,,,,,,,,,,,,,,,,,,,,,,,,
,,,,,,,,,,,,,,,,,,,,,,,20,female,2020-09-28_11h02.26.129,torte-2b,2020.1.3,Win32,60,13269,,,,,,,,,,,,,,,,,,,1,,,,,,,0,23,23,23,1,,,,,,,,,,,,,,,,,,,,,,,,,,,,,,,,,,,,
,,,,,,,,,,,,,,,,,,,,,,,20,female,2020-09-28_11h02.26.129,torte-2b,2020.1.3,Win32,60,13269,,,,,,,,,,,,,,,,,,,6,,,,,,,0,24,24,24,1,,,,,,,,,,,,,,,,,,,,,,,,,,,,,,,,,,,,
,,,,,,,,,,,,,,,,,,,,,,,20,female,2020-09-28_11h02.26.129,torte-2b,2020.1.3,Win32,60,13269,,,,,,,,,,,,,,,,,,,3,,,,,,,0,25,25,25,1,,,,,,,,,,,,,,,,,,,,,,,,,,,,,,,,,,,,
,,,,,,,,,,,,,,,,,,,,,,,20,female,2020-09-28_11h02.26.129,torte-2b,2020.1.3,Win32,60,13269,,,,,,,,,,,,,,,,,,,2,,,,,,,0,26,26,26,1,,,,,,,,,,,,,,,,,,,,,,,,,,,,,,,,,,,,
,,,,,,,,,,,,,,,,,,,,,,,20,female,2020-09-28_11h02.26.129,torte-2b,2020.1.3,Win32,60,13269,,,,,,,,,,,,,space,,,,,,3,0.475545,,,,,,0,27,27,27,1,,,,,,,,,,,,,,,,,,,,,,,,,,,,,,,,,,,,
,,,,,,,,,,,,,,,,,,,,,,,20,female,2020-09-28_11h02.26.129,torte-2b,2020.1.3,Win32,60,13269,,,,,,,,,,,,,,,,,,,1,,,,,,,0,28,28,28,1,,,,,,,,,,,,,,,,,,,,,,,,,,,,,,,,,,,,
,,,,,,,,,,,,,,,,,,,,,,,20,female,2020-09-28_11h02.26.129,torte-2b,2020.1.3,Win32,60,13269,,,,,,,,,,,,,,,,,,,3,,,,,,,0,29,29,29,1,,,,,,,,,,,,,,,,,,,,,,,,,,,,,,,,,,,,
,,,,,,,,,,,,,,,,,,,,,,,20,female,2020-09-28_11h02.26.129,torte-2b,2020.1.3,Win32,60,13269,,,,,,,,,,,,,space,,,,,,1,0.517995,,,,,,0,30,30,30,1,,,,,,,,,,,,,,,,,,,,,,,,,,,,,,,,,,,,
,,,,,,,,,,,,,,,,,,,,,,,20,female,2020-09-28_11h02.26.129,torte-2b,2020.1.3,Win32,60,13269,,,,,,,,,,,,,,,,,,,7,,,,,,,0,31,31,31,1,,,,,,,,,,,,,,,,,,,,,,,,,,,,,,,,,,,,
,,,,,,,,,,,,,,,,,,,,,,,20,female,2020-09-28_11h02.26.129,torte-2b,2020.1.3,Win32,60,13269,,,,,,,,,,,,,,,,,,,5,,,,,,,0,32,32,32,1,,,,,,,,,,,,,,,,,,,,,,,,,,,,,,,,,,,,
,,,,,,,,,,,,,,,,,,,,,,,20,female,2020-09-28_11h02.26.129,torte-2b,2020.1.3,Win32,60,13269,,,,,,,,,,,,,space,,,,,,7,0.36738,,,,,,0,33,33,33,1,,,,,,,,,,,,,,,,,,,,,,,,,,,,,,,,,,,,
,,,,,,,,,,,,,,,,,,,,,,,20,female,2020-09-28_11h02.26.129,torte-2b,2020.1.3,Win32,60,13269,,,,,,,,,,,,,,,,,,,2,,,,,,,0,34,34,34,1,,,,,,,,,,,,,,,,,,,,,,,,,,,,,,,,,,,,
,,,,,,,,,,,,,,,,,,,,,,,20,female,2020-09-28_11h02.26.129,torte-2b,2020.1.3,Win32,60,13269,,,,,,,,,,,,,,,,,,,3,,,,,,,,,,,,0,0,0,0,1,,,,,,,,,,,,,,,,,,,,,,,,,,,,,,,
,,,,,,,,,,,,,,,,,,,,,,,20,female,2020-09-28_11h02.26.129,torte-2b,2020.1.3,Win32,60,13269,,,,,,,,,,,,,,,,,,,7,,,,,,,,,,,,0,1,1,1,1,,,,,,,,,,,,,,,,,,,,,,,,,,,,,,,
,,,,,,,,,,,,,,,,,,,,,,,20,female,2020-09-28_11h02.26.129,torte-2b,2020.1.3,Win32,60,13269,,,,,,,,,,,,,,,,,,,7,,,,,,,,,,,,0,2,2,2,1,,,,,,,,,,,,,,,,,,,,,,,,,,,,,,,
,,,,,,,,,,,,,,,,,,,,,,,20,female,2020-09-28_11h02.26.129,torte-2b,2020.1.3,Win32,60,13269,,,,,,,,,,,,,,,,,,,4,,,,,,,,,,,,0,3,3,3,1,,,,,,,,,,,,,,,,,,,,,,,,,,,,,,,
,,,,,,,,,,,,,,,,,,,,,,,20,female,2020-09-28_11h02.26.129,torte-2b,2020.1.3,Win32,60,13269,,,,,,,,,,,,,,,,,,,5,,,,,,,,,,,,0,4,4,4,1,,,,,,,,,,,,,,,,,,,,,,,,,,,,,,,
,,,,,,,,,,,,,,,,,,,,,,,20,female,2020-09-28_11h02.26.129,torte-2b,2020.1.3,Win32,60,13269,,,,,,,,,,,,,space,,,,,,4,0.44309,,,,,,,,,,,0,5,5,5,1,,,,,,,,,,,,,,,,,,,,,,,,,,,,,,,
,,,,,,,,,,,,,,,,,,,,,,,20,female,2020-09-28_11h02.26.129,torte-2b,2020.1.3,Win32,60,13269,,,,,,,,,,,,,,,,,,,2,,,,,,,,,,,,0,6,6,6,1,,,,,,,,,,,,,,,,,,,,,,,,,,,,,,,
,,,,,,,,,,,,,,,,,,,,,,,20,female,2020-09-28_11h02.26.129,torte-2b,2020.1.3,Win32,60,13269,,,,,,,,,,,,,space,,,,,,4,0.412155,,,,,,,,,,,0,7,7,7,1,,,,,,,,,,,,,,,,,,,,,,,,,,,,,,,
,,,,,,,,,,,,,,,,,,,,,,,20,female,2020-09-28_11h02.26.129,torte-2b,2020.1.3,Win32,60,13269,,,,,,,,,,,,,,,,,,,2,,,,,,,,,,,,0,8,8,8,1,,,,,,,,,,,,,,,,,,,,,,,,,,,,,,,
,,,,,,,,,,,,,,,,,,,,,,,20,female,2020-09-28_11h02.26.129,torte-2b,2020.1.3,Win32,60,13269,,,,,,,,,,,,,space,,,,,,2,0.600315,,,,,,,,,,,0,9,9,9,1,,,,,,,,,,,,,,,,,,,,,,,,,,,,,,,
,,,,,,,,,,,,,,,,,,,,,,,20,female,2020-09-28_11h02.26.129,torte-2b,2020.1.3,Win32,60,13269,,,,,,,,,,,,,,,,,,,6,,,,,,,,,,,,0,10,10,10,1,,,,,,,,,,,,,,,,,,,,,,,,,,,,,,,
,,,,,,,,,,,,,,,,,,,,,,,20,female,2020-09-28_11h02.26.129,torte-2b,2020.1.3,Win32,60,13269,,,,,,,,,,,,,space,,,,,,2,0.94282,,,,,,,,,,,0,11,11,11,1,,,,,,,,,,,,,,,,,,,,,,,,,,,,,,,
,,,,,,,,,,,,,,,,,,,,,,,20,female,2020-09-28_11h02.26.129,torte-2b,2020.1.3,Win32,60,13269,,,,,,,,,,,,,,,,,,,2,,,,,,,,,,,,0,12,12,12,1,,,,,,,,,,,,,,,,,,,,,,,,,,,,,,,
,,,,,,,,,,,,,,,,,,,,,,,20,female,2020-09-28_11h02.26.129,torte-2b,2020.1.3,Win32,60,13269,,,,,,,,,,,,,space,,,,,,2,0.367555,,,,,,,,,,,0,13,13,13,1,,,,,,,,,,,,,,,,,,,,,,,,,,,,,,,
,,,,,,,,,,,,,,,,,,,,,,,20,female,2020-09-28_11h02.26.129,torte-2b,2020.1.3,Win32,60,13269,,,,,,,,,,,,,,,,,,,2,,,,,,,,,,,,0,14,14,14,1,,,,,,,,,,,,,,,,,,,,,,,,,,,,,,,
,,,,,,,,,,,,,,,,,,,,,,,20,female,2020-09-28_11h02.26.129,torte-2b,2020.1.3,Win32,60,13269,,,,,,,,,,,,,,,,,,,4,,,,,,,,,,,,0,15,15,15,1,,,,,,,,,,,,,,,,,,,,,,,,,,,,,,,
,,,,,,,,,,,,,,,,,,,,,,,20,female,2020-09-28_11h02.26.129,torte-2b,2020.1.3,Win32,60,13269,,,,,,,,,,,,,,,,,,,3,,,,,,,,,,,,0,16,16,16,1,,,,,,,,,,,,,,,,,,,,,,,,,,,,,,,
,,,,,,,,,,,,,,,,,,,,,,,20,female,2020-09-28_11h02.26.129,torte-2b,2020.1.3,Win32,60,13269,,,,,,,,,,,,,,,,,,,7,,,,,,,,,,,,0,17,17,17,1,,,,,,,,,,,,,,,,,,,,,,,,,,,,,,,
,,,,,,,,,,,,,,,,,,,,,,,20,female,2020-09-28_11h02.26.129,torte-2b,2020.1.3,Win32,60,13269,,,,,,,,,,,,,,,,,,,4,,,,,,,,,,,,0,18,18,18,1,,,,,,,,,,,,,,,,,,,,,,,,,,,,,,,
,,,,,,,,,,,,,,,,,,,,,,,20,female,2020-09-28_11h02.26.129,torte-2b,2020.1.3,Win32,60,13269,,,,,,,,,,,,,space,,,,,,7,0.337185,,,,,,,,,,,0,19,19,19,1,,,,,,,,,,,,,,,,,,,,,,,,,,,,,,,
,,,,,,,,,,,,,,,,,,,,,,,20,female,2020-09-28_11h02.26.129,torte-2b,2020.1.3,Win32,60,13269,,,,,,,,,,,,,,,,,,,7,,,,,,,,,,,,0,20,20,20,1,,,,,,,,,,,,,,,,,,,,,,,,,,,,,,,
,,,,,,,,,,,,,,,,,,,,,,,20,female,2020-09-28_11h02.26.129,torte-2b,2020.1.3,Win32,60,13269,,,,,,,,,,,,,space,,,,,,7,0.389705,,,,,,,,,,,0,21,21,21,1,,,,,,,,,,,,,,,,,,,,,,,,,,,,,,,
,,,,,,,,,,,,,,,,,,,,,,,20,female,2020-09-28_11h02.26.129,torte-2b,2020.1.3,Win32,60,13269,,,,,,,,,,,,,,,,,,,7,,,,,,,,,,,,0,22,22,22,1,,,,,,,,,,,,,,,,,,,,,,,,,,,,,,,
,,,,,,,,,,,,,,,,,,,,,,,20,female,2020-09-28_11h02.26.129,torte-2b,2020.1.3,Win32,60,13269,,,,,,,,,,,,,,,,,,,1,,,,,,,,,,,,0,23,23,23,1,,,,,,,,,,,,,,,,,,,,,,,,,,,,,,,
,,,,,,,,,,,,,,,,,,,,,,,20,female,2020-09-28_11h02.26.129,torte-2b,2020.1.3,Win32,60,13269,,,,,,,,,,,,,space,,,,,,7,0.834555,,,,,,,,,,,0,24,24,24,1,,,,,,,,,,,,,,,,,,,,,,,,,,,,,,,
,,,,,,,,,,,,,,,,,,,,,,,20,female,2020-09-28_11h02.26.129,torte-2b,2020.1.3,Win32,60,13269,,,,,,,,,,,,,space,,,,,,1,0.571715,,,,,,,,,,,0,25,25,25,1,,,,,,,,,,,,,,,,,,,,,,,,,,,,,,,
,,,,,,,,,,,,,,,,,,,,,,,20,female,2020-09-28_11h02.26.129,torte-2b,2020.1.3,Win32,60,13269,,,,,,,,,,,,,space,,,,,,7,0.7508,,,,,,,,,,,0,26,26,26,1,,,,,,,,,,,,,,,,,,,,,,,,,,,,,,,
,,,,,,,,,,,,,,,,,,,,,,,20,female,2020-09-28_11h02.26.129,torte-2b,2020.1.3,Win32,60,13269,,,,,,,,,,,,,,,,,,,2,,,,,,,,,,,,0,27,27,27,1,,,,,,,,,,,,,,,,,,,,,,,,,,,,,,,
,,,,,,,,,,,,,,,,,,,,,,,20,female,2020-09-28_11h02.26.129,torte-2b,2020.1.3,Win32,60,13269,,,,,,,,,,,,,,,,,,,5,,,,,,,,,,,,0,28,28,28,1,,,,,,,,,,,,,,,,,,,,,,,,,,,,,,,
,,,,,,,,,,,,,,,,,,,,,,,20,female,2020-09-28_11h02.26.129,torte-2b,2020.1.3,Win32,60,13269,,,,,,,,,,,,,,,,,,,5,,,,,,,,,,,,0,29,29,29,1,,,,,,,,,,,,,,,,,,,,,,,,,,,,,,,
,,,,,,,,,,,,,,,,,,,,,,,20,female,2020-09-28_11h02.26.129,torte-2b,2020.1.3,Win32,60,13269,,,,,,,,,,,,,space,,,,,,5,0.711185,,,,,,,,,,,0,30,30,30,1,,,,,,,,,,,,,,,,,,,,,,,,,,,,,,,
,,,,,,,,,,,,,,,,,,,,,,,20,female,2020-09-28_11h02.26.129,torte-2b,2020.1.3,Win32,60,13269,,,,,,,,,,,,,,,,,,,1,,,,,,,,,,,,0,31,31,31,1,,,,,,,,,,,,,,,,,,,,,,,,,,,,,,,
,,,,,,,,,,,,,,,,,,,,,,,20,female,2020-09-28_11h02.26.129,torte-2b,2020.1.3,Win32,60,13269,,,,,,,,,,,,,space,,,,,,5,0.85817,,,,,,,,,,,0,32,32,32,1,,,,,,,,,,,,,,,,,,,,,,,,,,,,,,,
,,,,,,,,,,,,,,,,,,,,,,,20,female,2020-09-28_11h02.26.129,torte-2b,2020.1.3,Win32,60,13269,,,,,,,,,,,,,,,,,,,3,,,,,,,,,,,,0,33,33,33,1,,,,,,,,,,,,,,,,,,,,,,,,,,,,,,,
,,,,,,,,,,,,,,,,,,,,,,,20,female,2020-09-28_11h02.26.129,torte-2b,2020.1.3,Win32,60,13269,,,,,,,,,,,,,,,,,,,3,,,,,,,,,,,,0,34,34,34,1,,,,,,,,,,,,,,,,,,,,,,,,,,,,,,,
,,,,,,,,,,,,l,Correct!,,,,,,t2.png,t5.png,3,0.0000131,20,female,2020-09-28_11h02.26.129,torte-2b,2020.1.3,Win32,60,13269,1.941845,space,1.222845,,,,,,,,,,,,,,,,,,,,,,,,,,,,,,,,,space,1.749595,0,0,0,8,1,,,,,,,,,,,,,,,,,,,,,,,,
,,,,,,,,,,,,a,Correct!,,,,,,t5.png,t5.png,0,0.97829,20,female,2020-09-28_11h02.26.129,torte-2b,2020.1.3,Win32,60,13269,0.651105,,,,,,,,,,,,,,,,,,,,,,,,,,,,,,,,,,,,,0,1,1,25,1,,,,,,,,,,,,,,,,,,,,,,,,
,,,,,,,,,,,,a,Correct!,,,,,,t4.png,t3.png,1,0.90855,20,female,2020-09-28_11h02.26.129,torte-2b,2020.1.3,Win32,60,13269,0.667395,,,,,,,,,,,,,,,,,,,,,,,,,,,,,,,,,,,,,0,2,2,35,1,,,,,,,,,,,,,,,,,,,,,,,,
,,,,,,,,,,,,a,Incorrect,,,,,,t5.png,t4.png,1,0.90025,20,female,2020-09-28_11h02.26.129,torte-2b,2020.1.3,Win32,60,13269,0.4376,,,,,,,,,,,,,,,,,,,,,,,,,,,,,,,,,,,,,0,3,3,34,1,,,,,,,,,,,,,,,,,,,,,,,,
,,,,,,,,,,,,l,Correct!,,,,,,t1.png,t3.png,2,0.056466,20,female,2020-09-28_11h02.26.129,torte-2b,2020.1.3,Win32,60,13269,0.534115,,,,,,,,,,,,,,,,,,,,,,,,,,,,,,,,,,,,,0,4,4,69,1,,,,,,,,,,,,,,,,,,,,,,,,
,,,,,,,,,,,,l,Correct!,,,,,,t1.png,t5.png,4,9.55E-11,20,female,2020-09-28_11h02.26.129,torte-2b,2020.1.3,Win32,60,13269,0.37005,,,,,,,,,,,,,,,,,,,,,,,,,,,,,,,,,,,,,0,5,5,85,1,,,,,,,,,,,,,,,,,,,,,,,,
,,,,,,,,,,,,l,Correct!,,,,,,t2.png,t5.png,3,0.0000131,20,female,2020-09-28_11h02.26.129,torte-2b,2020.1.3,Win32,60,13269,0.36758,,,,,,,,,,,,,,,,,,,,,,,,,,,,,,,,,,,,,0,6,6,66,1,,,,,,,,,,,,,,,,,,,,,,,,
,,,,,,,,,,,,l,Incorrect,,,,,,t1.png,t1.png,0,0.97829,20,female,2020-09-28_11h02.26.129,torte-2b,2020.1.3,Win32,60,13269,0.61753,,,,,,,,,,,,,,,,,,,,,,,,,,,,,,,,,,,,,0,7,7,78,1,,,,,,,,,,,,,,,,,,,,,,,,
,,,,,,,,,,,,l,Incorrect,,,,,,t4.png,t4.png,0,0.98115,20,female,2020-09-28_11h02.26.129,torte-2b,2020.1.3,Win32,60,13269,0.494675,,,,,,,,,,,,,,,,,,,,,,,,,,,,,,,,,,,,,0,8,8,52,1,,,,,,,,,,,,,,,,,,,,,,,,
,,,,,,,,,,,,l,Incorrect,,,,,,t4.png,t4.png,0,0.98115,20,female,2020-09-28_11h02.26.129,torte-2b,2020.1.3,Win32,60,13269,0.41863,,,,,,,,,,,,,,,,,,,,,,,,,,,,,,,,,,,,,0,9,9,90,1,,,,,,,,,,,,,,,,,,,,,,,,
,,,,,,,,,,,,a,Incorrect,,,,,,t4.png,t1.png,3,0.0000131,20,female,2020-09-28_11h02.26.129,torte-2b,2020.1.3,Win32,60,13269,0.473965,,,,,,,,,,,,,,,,,,,,,,,,,,,,,,,,,,,,,0,10,10,48,1,,,,,,,,,,,,,,,,,,,,,,,,
,,,,,,,,,,,,l,Incorrect,,,,,,t3.png,t4.png,1,0.909,20,female,2020-09-28_11h02.26.129,torte-2b,2020.1.3,Win32,60,13269,0.52459,,,,,,,,,,,,,,,,,,,,,,,,,,,,,,,,,,,,,0,11,11,89,1,,,,,,,,,,,,,,,,,,,,,,,,
,,,,,,,,,,,,a,Correct!,,,,,,t3.png,t2.png,1,0.90855,20,female,2020-09-28_11h02.26.129,torte-2b,2020.1.3,Win32,60,13269,0.50364,,,,,,,,,,,,,,,,,,,,,,,,,,,,,,,,,,,,,0,12,12,97,1,,,,,,,,,,,,,,,,,,,,,,,,
,,,,,,,,,,,,l,Correct!,,,,,,t2.png,t3.png,1,0.90855,20,female,2020-09-28_11h02.26.129,torte-2b,2020.1.3,Win32,60,13269,0.589465,,,,,,,,,,,,,,,,,,,,,,,,,,,,,,,,,,,,,0,13,13,111,1,,,,,,,,,,,,,,,,,,,,,,,,
,,,,,,,,,,,,l,Correct!,,,,,,t1.png,t3.png,2,0.056466,20,female,2020-09-28_11h02.26.129,torte-2b,2020.1.3,Win32,60,13269,0.44332,,,,,,,,,,,,,,,,,,,,,,,,,,,,,,,,,,,,,0,14,14,87,1,,,,,,,,,,,,,,,,,,,,,,,,
,,,,,,,,,,,,a,Correct!,,,,,,t3.png,t2.png,1,0.90855,20,female,2020-09-28_11h02.26.129,torte-2b,2020.1.3,Win32,60,13269,0.583525,,,,,,,,,,,,,,,,,,,,,,,,,,,,,,,,,,,,,0,15,15,18,1,,,,,,,,,,,,,,,,,,,,,,,,
,,,,,,,,,,,,l,Correct!,,,,,,t1.png,t5.png,4,9.55E-11,20,female,2020-09-28_11h02.26.129,torte-2b,2020.1.3,Win32,60,13269,0.445055,,,,,,,,,,,,,,,,,,,,,,,,,,,,,,,,,,,,,0,16,16,55,1,,,,,,,,,,,,,,,,,,,,,,,,
,,,,,,,,,,,,a,Incorrect,,,,,,t3.png,t1.png,2,0.056466,20,female,2020-09-28_11h02.26.129,torte-2b,2020.1.3,Win32,60,13269,0.47727,,,,,,,,,,,,,,,,,,,,,,,,,,,,,,,,,,,,,0,17,17,0,1,,,,,,,,,,,,,,,,,,,,,,,,
,,,,,,,,,,,,l,Correct!,,,,,,t1.png,t5.png,4,9.55E-11,20,female,2020-09-28_11h02.26.129,torte-2b,2020.1.3,Win32,60,13269,0.418475,,,,,,,,,,,,,,,,,,,,,,,,,,,,,,,,,,,,,0,18,18,41,1,,,,,,,,,,,,,,,,,,,,,,,,
,,,,,,,,,,,,l,Correct!,,,,,,t2.png,t4.png,2,0.059078,20,female,2020-09-28_11h02.26.129,torte-2b,2020.1.3,Win32,60,13269,0.62369,,,,,,,,,,,,,,,,,,,,,,,,,,,,,,,,,,,,,0,19,19,24,1,,,,,,,,,,,,,,,,,,,,,,,,
,,,,,,,,,,,,a,Incorrect,,,,,,t5.png,t2.png,3,0.0000131,20,female,2020-09-28_11h02.26.129,torte-2b,2020.1.3,Win32,60,13269,0.45258,,,,,,,,,,,,,,,,,,,,,,,,,,,,,,,,,,,,,0,20,20,51,1,,,,,,,,,,,,,,,,,,,,,,,,
,,,,,,,,,,,,l,Incorrect,,,,,,t4.png,t5.png,1,0.90025,20,female,2020-09-28_11h02.26.129,torte-2b,2020.1.3,Win32,60,13269,0.589685,,,,,,,,,,,,,,,,,,,,,,,,,,,,,,,,,,,,,0,21,21,58,1,,,,,,,,,,,,,,,,,,,,,,,,
,,,,,,,,,,,,l,Incorrect,,,,,,t3.png,t4.png,1,0.909,20,female,2020-09-28_11h02.26.129,torte-2b,2020.1.3,Win32,60,13269,0.43409,,,,,,,,,,,,,,,,,,,,,,,,,,,,,,,,,,,,,0,22,22,82,1,,,,,,,,,,,,,,,,,,,,,,,,
,,,,,,,,,,,,l,Correct!,,,,,,t2.png,t4.png,2,0.059078,20,female,2020-09-28_11h02.26.129,torte-2b,2020.1.3,Win32,60,13269,0.40707,,,,,,,,,,,,,,,,,,,,,,,,,,,,,,,,,,,,,0,23,23,11,1,,,,,,,,,,,,,,,,,,,,,,,,
,,,,,,,,,,,,a,Incorrect,,,,,,t5.png,t4.png,1,0.90025,20,female,2020-09-28_11h02.26.129,torte-2b,2020.1.3,Win32,60,13269,0.60764,,,,,,,,,,,,,,,,,,,,,,,,,,,,,,,,,,,,,0,24,24,26,1,,,,,,,,,,,,,,,,,,,,,,,,
,,,,,,,,,,,,l,Incorrect,,,,,,t2.png,t1.png,1,0.90025,20,female,2020-09-28_11h02.26.129,torte-2b,2020.1.3,Win32,60,13269,0.34087,,,,,,,,,,,,,,,,,,,,,,,,,,,,,,,,,,,,,0,25,25,5,1,,,,,,,,,,,,,,,,,,,,,,,,
,,,,,,,,,,,,a,Incorrect,,,,,,t5.png,t3.png,2,0.056466,20,female,2020-09-28_11h02.26.129,torte-2b,2020.1.3,Win32,60,13269,0.435095,,,,,,,,,,,,,,,,,,,,,,,,,,,,,,,,,,,,,0,26,26,38,1,,,,,,,,,,,,,,,,,,,,,,,,
,,,,,,,,,,,,a,Correct!,,,,,,t2.png,t1.png,1,0.9,20,female,2020-09-28_11h02.26.129,torte-2b,2020.1.3,Win32,60,13269,1.218075,,,,,,,,,,,,,,,,,,,,,,,,,,,,,,,,,,,,,0,27,27,118,1,,,,,,,,,,,,,,,,,,,,,,,,
,,,,,,,,,,,,l,Incorrect,,,,,,t2.png,t2.png,0,0.98115,20,female,2020-09-28_11h02.26.129,torte-2b,2020.1.3,Win32,60,13269,1.788135,,,,,,,,,,,,,,,,,,,,,,,,,,,,,,,,,,,,,0,28,28,59,1,,,,,,,,,,,,,,,,,,,,,,,,
,,,,,,,,,,,,a,Incorrect,,,,,,t4.png,t1.png,3,0.0000131,20,female,2020-09-28_11h02.26.129,torte-2b,2020.1.3,Win32,60,13269,1.108595,,,,,,,,,,,,,,,,,,,,,,,,,,,,,,,,,,,,,0,29,29,93,1,,,,,,,,,,,,,,,,,,,,,,,,
,,,,,,,,,,,,l,Incorrect,,,,,,t4.png,t5.png,1,0.90025,20,female,2020-09-28_11h02.26.129,torte-2b,2020.1.3,Win32,60,13269,0.634785,,,,,,,,,,,,,,,,,,,,,,,,,,,,,,,,,,,,,0,30,30,103,1,,,,,,,,,,,,,,,,,,,,,,,,
,,,,,,,,,,,,a,Incorrect,,,,,,t5.png,t2.png,3,0.0000131,20,female,2020-09-28_11h02.26.129,torte-2b,2020.1.3,Win32,60,13269,0.49291,,,,,,,,,,,,,,,,,,,,,,,,,,,,,,,,,,,,,0,31,31,119,1,,,,,,,,,,,,,,,,,,,,,,,,
,,,,,,,,,,,,l,Correct!,,,,,,t1.png,t3.png,2,0.056466,20,female,2020-09-28_11h02.26.129,torte-2b,2020.1.3,Win32,60,13269,0.451345,,,,,,,,,,,,,,,,,,,,,,,,,,,,,,,,,,,,,0,32,32,63,1,,,,,,,,,,,,,,,,,,,,,,,,
,,,,,,,,,,,,a,Correct!,,,,,,t4.png,t3.png,1,0.90855,20,female,2020-09-28_11h02.26.129,torte-2b,2020.1.3,Win32,60,13269,0.452725,,,,,,,,,,,,,,,,,,,,,,,,,,,,,,,,,,,,,0,33,33,75,1,,,,,,,,,,,,,,,,,,,,,,,,
,,,,,,,,,,,,l,Correct!,,,,,,t3.png,t5.png,2,0.0565,20,female,2020-09-28_11h02.26.129,torte-2b,2020.1.3,Win32,60,13269,0.469905,,,,,,,,,,,,,,,,,,,,,,,,,,,,,,,,,,,,,0,34,34,83,1,,,,,,,,,,,,,,,,,,,,,,,,
,,,,,,,,,,,,a,Incorrect,,,,,,t5.png,t2.png,3,0.0000131,20,female,2020-09-28_11h02.26.129,torte-2b,2020.1.3,Win32,60,13269,0.33549,,,,,,,,,,,,,,,,,,,,,,,,,,,,,,,,,,,,,0,35,35,116,1,,,,,,,,,,,,,,,,,,,,,,,,
,,,,,,,,,,,,l,Correct!,,,,,,t1.png,t3.png,2,0.056466,20,female,2020-09-28_11h02.26.129,torte-2b,2020.1.3,Win32,60,13269,0.316235,,,,,,,,,,,,,,,,,,,,,,,,,,,,,,,,,,,,,0,36,36,99,1,,,,,,,,,,,,,,,,,,,,,,,,
,,,,,,,,,,,,a,Incorrect,,,,,,t1.png,t1.png,0,0.97829,20,female,2020-09-28_11h02.26.129,torte-2b,2020.1.3,Win32,60,13269,0.28806,,,,,,,,,,,,,,,,,,,,,,,,,,,,,,,,,,,,,0,37,37,67,1,,,,,,,,,,,,,,,,,,,,,,,,
,,,,,,,,,,,,a,Incorrect,,,,,,t5.png,t2.png,3,0.0000131,20,female,2020-09-28_11h02.26.129,torte-2b,2020.1.3,Win32,60,13269,0.38531,,,,,,,,,,,,,,,,,,,,,,,,,,,,,,,,,,,,,0,38,38,98,1,,,,,,,,,,,,,,,,,,,,,,,,
,,,,,,,,,,,,a,Incorrect,,,,,,t3.png,t5.png,2,0.056466,20,female,2020-09-28_11h02.26.129,torte-2b,2020.1.3,Win32,60,13269,0.36858,,,,,,,,,,,,,,,,,,,,,,,,,,,,,,,,,,,,,0,39,39,6,1,,,,,,,,,,,,,,,,,,,,,,,,
,,,,,,,,,,,,l,Correct!,,,,,,t1.png,t4.png,3,0.0000131,20,female,2020-09-28_11h02.26.129,torte-2b,2020.1.3,Win32,60,13269,0.41033,,,,,,,,,,,,,,,,,,,,,,,,,,,,,,,,,,,,,0,40,40,17,1,,,,,,,,,,,,,,,,,,,,,,,,
,,,,,,,,,,,,l,Correct!,,,,,,t2.png,t5.png,3,0.0000131,20,female,2020-09-28_11h02.26.129,torte-2b,2020.1.3,Win32,60,13269,0.368515,,,,,,,,,,,,,,,,,,,,,,,,,,,,,,,,,,,,,0,41,41,104,1,,,,,,,,,,,,,,,,,,,,,,,,
,,,,,,,,,,,,a,Incorrect,,,,,,t3.png,t1.png,2,0.056466,20,female,2020-09-28_11h02.26.129,torte-2b,2020.1.3,Win32,60,13269,0.533405,,,,,,,,,,,,,,,,,,,,,,,,,,,,,,,,,,,,,0,42,42,64,1,,,,,,,,,,,,,,,,,,,,,,,,
,,,,,,,,,,,,a,Correct!,,,,,,t4.png,t3.png,1,0.90855,20,female,2020-09-28_11h02.26.129,torte-2b,2020.1.3,Win32,60,13269,0.75891,,,,,,,,,,,,,,,,,,,,,,,,,,,,,,,,,,,,,0,43,43,45,1,,,,,,,,,,,,,,,,,,,,,,,,
,,,,,,,,,,,,l,Incorrect,,,,,,t1.png,t2.png,1,0.90025,20,female,2020-09-28_11h02.26.129,torte-2b,2020.1.3,Win32,60,13269,0.450885,,,,,,,,,,,,,,,,,,,,,,,,,,,,,,,,,,,,,0,44,44,112,1,,,,,,,,,,,,,,,,,,,,,,,,
,,,,,,,,,,,,a,Incorrect,,,,,,t2.png,t4.png,2,0.059078,20,female,2020-09-28_11h02.26.129,torte-2b,2020.1.3,Win32,60,13269,0.418,,,,,,,,,,,,,,,,,,,,,,,,,,,,,,,,,,,,,0,45,45,77,1,,,,,,,,,,,,,,,,,,,,,,,,
,,,,,,,,,,,,a,Incorrect,,,,,,t4.png,t2.png,2,0.059078,20,female,2020-09-28_11h02.26.129,torte-2b,2020.1.3,Win32,60,13269,0.43865,,,,,,,,,,,,,,,,,,,,,,,,,,,,,,,,,,,,,0,46,46,109,1,,,,,,,,,,,,,,,,,,,,,,,,
,,,,,,,,,,,,a,Incorrect,,,,,,t5.png,t1.png,4,9.55E-11,20,female,2020-09-28_11h02.26.129,torte-2b,2020.1.3,Win32,60,13269,0.40769,,,,,,,,,,,,,,,,,,,,,,,,,,,,,,,,,,,,,0,47,47,102,1,,,,,,,,,,,,,,,,,,,,,,,,
,,,,,,,,,,,,l,Incorrect,,,,,,t2.png,t2.png,0,0.981,20,female,2020-09-28_11h02.26.129,torte-2b,2020.1.3,Win32,60,13269,0.4339,,,,,,,,,,,,,,,,,,,,,,,,,,,,,,,,,,,,,0,48,48,101,1,,,,,,,,,,,,,,,,,,,,,,,,
,,,,,,,,,,,,l,Correct!,,,,,,t1.png,t5.png,4,9.55E-11,20,female,2020-09-28_11h02.26.129,torte-2b,2020.1.3,Win32,60,13269,0.36806,,,,,,,,,,,,,,,,,,,,,,,,,,,,,,,,,,,,,0,49,49,16,1,,,,,,,,,,,,,,,,,,,,,,,,
,,,,,,,,,,,,l,Incorrect,,,,,,t2.png,t3.png,1,0.909,20,female,2020-09-28_11h02.26.129,torte-2b,2020.1.3,Win32,60,13269,0.52834,,,,,,,,,,,,,,,,,,,,,,,,,,,,,,,,,,,,,0,50,50,74,1,,,,,,,,,,,,,,,,,,,,,,,,
,,,,,,,,,,,,l,Incorrect,,,,,,t4.png,t4.png,0,0.98115,20,female,2020-09-28_11h02.26.129,torte-2b,2020.1.3,Win32,60,13269,0.5015,,,,,,,,,,,,,,,,,,,,,,,,,,,,,,,,,,,,,0,51,51,79,1,,,,,,,,,,,,,,,,,,,,,,,,
,,,,,,,,,,,,l,Correct!,,,,,,t5.png,t3.png,2,0.056466,20,female,2020-09-28_11h02.26.129,torte-2b,2020.1.3,Win32,60,13269,0.410325,,,,,,,,,,,,,,,,,,,,,,,,,,,,,,,,,,,,,0,52,52,56,1,,,,,,,,,,,,,,,,,,,,,,,,
,,,,,,,,,,,,l,Incorrect,,,,,,t5.png,t4.png,1,0.90025,20,female,2020-09-28_11h02.26.129,torte-2b,2020.1.3,Win32,60,13269,0.789555,,,,,,,,,,,,,,,,,,,,,,,,,,,,,,,,,,,,,0,53,53,27,1,,,,,,,,,,,,,,,,,,,,,,,,
,,,,,,,,,,,,a,Correct!,,,,,,t2.png,t2.png,0,0.98115,20,female,2020-09-28_11h02.26.129,torte-2b,2020.1.3,Win32,60,13269,0.44448,,,,,,,,,,,,,,,,,,,,,,,,,,,,,,,,,,,,,0,54,54,57,1,,,,,,,,,,,,,,,,,,,,,,,,
,,,,,,,,,,,,a,Correct!,,,,,,t5.png,t5.png,0,0.978,20,female,2020-09-28_11h02.26.129,torte-2b,2020.1.3,Win32,60,13269,0.576745,,,,,,,,,,,,,,,,,,,,,,,,,,,,,,,,,,,,,0,55,55,117,1,,,,,,,,,,,,,,,,,,,,,,,,
,,,,,,,,,,,,a,Correct!,,,,,,t2.png,t2.png,0,0.98115,20,female,2020-09-28_11h02.26.129,torte-2b,2020.1.3,Win32,60,13269,0.670275,,,,,,,,,,,,,,,,,,,,,,,,,,,,,,,,,,,,,0,56,56,2,1,,,,,,,,,,,,,,,,,,,,,,,,
,,,,,,,,,,,,l,Incorrect,,,,,,t3.png,t4.png,1,0.909,20,female,2020-09-28_11h02.26.129,torte-2b,2020.1.3,Win32,60,13269,0.520285,,,,,,,,,,,,,,,,,,,,,,,,,,,,,,,,,,,,,0,57,57,106,1,,,,,,,,,,,,,,,,,,,,,,,,
,,,,,,,,,,,,a,Incorrect,,,,,,t3.png,t2.png,1,0.909,20,female,2020-09-28_11h02.26.129,torte-2b,2020.1.3,Win32,60,13269,0.41097,,,,,,,,,,,,,,,,,,,,,,,,,,,,,,,,,,,,,0,58,58,3,1,,,,,,,,,,,,,,,,,,,,,,,,
,,,,,,,,,,,,l,Correct!,,,,,,t3.png,t5.png,2,0.0565,20,female,2020-09-28_11h02.26.129,torte-2b,2020.1.3,Win32,60,13269,0.374575,,,,,,,,,,,,,,,,,,,,,,,,,,,,,,,,,,,,,0,59,59,30,1,,,,,,,,,,,,,,,,,,,,,,,,
,,,,,,,,,,,,l,Incorrect,,,,,,t1.png,t1.png,0,0.978,20,female,2020-09-28_11h02.26.129,torte-2b,2020.1.3,Win32,60,13269,0.38416,,,,,,,,,,,,,,,,,,,,,,,,,,,,,,,,,,,,,0,60,60,28,1,,,,,,,,,,,,,,,,,,,,,,,,
,,,,,,,,,,,,a,Incorrect,,,,,,t5.png,t2.png,3,0.0000131,20,female,2020-09-28_11h02.26.129,torte-2b,2020.1.3,Win32,60,13269,0.522025,,,,,,,,,,,,,,,,,,,,,,,,,,,,,,,,,,,,,0,61,61,91,1,,,,,,,,,,,,,,,,,,,,,,,,
,,,,,,,,,,,,l,Correct!,,,,,,t2.png,t5.png,3,0.0000131,20,female,2020-09-28_11h02.26.129,torte-2b,2020.1.3,Win32,60,13269,0.36852,,,,,,,,,,,,,,,,,,,,,,,,,,,,,,,,,,,,,0,62,62,40,1,,,,,,,,,,,,,,,,,,,,,,,,
,,,,,,,,,,,,a,Correct!,,,,,,t3.png,t2.png,1,0.909,20,female,2020-09-28_11h02.26.129,torte-2b,2020.1.3,Win32,60,13269,0.528365,,,,,,,,,,,,,,,,,,,,,,,,,,,,,,,,,,,,,0,63,63,23,1,,,,,,,,,,,,,,,,,,,,,,,,
,,,,,,,,,,,,l,Correct!,,,,,,t4.png,t2.png,2,0.059078,20,female,2020-09-28_11h02.26.129,torte-2b,2020.1.3,Win32,60,13269,0.41772,,,,,,,,,,,,,,,,,,,,,,,,,,,,,,,,,,,,,0,64,64,88,1,,,,,,,,,,,,,,,,,,,,,,,,
,,,,,,,,,,,,l,Correct!,,,,,,t1.png,t4.png,3,0.0000131,20,female,2020-09-28_11h02.26.129,torte-2b,2020.1.3,Win32,60,13269,0.46782,,,,,,,,,,,,,,,,,,,,,,,,,,,,,,,,,,,,,0,65,65,50,1,,,,,,,,,,,,,,,,,,,,,,,,
,,,,,,,,,,,,l,Correct!,,,,,,t1.png,t3.png,2,0.056466,20,female,2020-09-28_11h02.26.129,torte-2b,2020.1.3,Win32,60,13269,0.45467,,,,,,,,,,,,,,,,,,,,,,,,,,,,,,,,,,,,,0,66,66,60,1,,,,,,,,,,,,,,,,,,,,,,,,
,,,,,,,,,,,,l,Incorrect,,,,,,t1.png,t2.png,1,0.90025,20,female,2020-09-28_11h02.26.129,torte-2b,2020.1.3,Win32,60,13269,0.45094,,,,,,,,,,,,,,,,,,,,,,,,,,,,,,,,,,,,,0,67,67,105,1,,,,,,,,,,,,,,,,,,,,,,,,
,,,,,,,,,,,,a,Incorrect,,,,,,t5.png,t3.png,2,0.056466,20,female,2020-09-28_11h02.26.129,torte-2b,2020.1.3,Win32,60,13269,0.59348,,,,,,,,,,,,,,,,,,,,,,,,,,,,,,,,,,,,,0,68,68,114,1,,,,,,,,,,,,,,,,,,,,,,,,
,,,,,,,,,,,,l,Correct!,,,,,,t2.png,t5.png,3,0.0000131,20,female,2020-09-28_11h02.26.129,torte-2b,2020.1.3,Win32,60,13269,0.461665,,,,,,,,,,,,,,,,,,,,,,,,,,,,,,,,,,,,,0,69,69,95,1,,,,,,,,,,,,,,,,,,,,,,,,
,,,,,,,,,,,,a,Correct!,,,,,,t5.png,t5.png,0,0.97829,20,female,2020-09-28_11h02.26.129,torte-2b,2020.1.3,Win32,60,13269,0.9545,,,,,,,,,,,,,,,,,,,,,,,,,,,,,,,,,,,,,0,70,70,94,1,,,,,,,,,,,,,,,,,,,,,,,,
,,,,,,,,,,,,l,Incorrect,,,,,,t1.png,t2.png,1,0.9,20,female,2020-09-28_11h02.26.129,torte-2b,2020.1.3,Win32,60,13269,0.600355,,,,,,,,,,,,,,,,,,,,,,,,,,,,,,,,,,,,,0,71,71,1,1,,,,,,,,,,,,,,,,,,,,,,,,
,,,,,,,,,,,,a,Correct!,,,,,,t3.png,t2.png,1,0.90855,20,female,2020-09-28_11h02.26.129,torte-2b,2020.1.3,Win32,60,13269,0.53407,,,,,,,,,,,,,,,,,,,,,,,,,,,,,,,,,,,,,0,72,72,53,1,,,,,,,,,,,,,,,,,,,,,,,,
,,,,,,,,,,,,a,Correct!,,,,,,t4.png,t5.png,1,0.90025,20,female,2020-09-28_11h02.26.129,torte-2b,2020.1.3,Win32,60,13269,0.6845,,,,,,,,,,,,,,,,,,,,,,,,,,,,,,,,,,,,,0,73,73,113,1,,,,,,,,,,,,,,,,,,,,,,,,
,,,,,,,,,,,,l,Incorrect,,,,,,t1.png,t2.png,1,0.90025,20,female,2020-09-28_11h02.26.129,torte-2b,2020.1.3,Win32,60,13269,0.63418,,,,,,,,,,,,,,,,,,,,,,,,,,,,,,,,,,,,,0,74,74,72,1,,,,,,,,,,,,,,,,,,,,,,,,
,,,,,,,,,,,,l,Incorrect,,,,,,t2.png,t2.png,0,0.98115,20,female,2020-09-28_11h02.26.129,torte-2b,2020.1.3,Win32,60,13269,0.61006,,,,,,,,,,,,,,,,,,,,,,,,,,,,,,,,,,,,,0,75,75,7,1,,,,,,,,,,,,,,,,,,,,,,,,
,,,,,,,,,,,,a,Incorrect,,,,,,t5.png,t1.png,4,9.55E-11,20,female,2020-09-28_11h02.26.129,torte-2b,2020.1.3,Win32,60,13269,0.50077,,,,,,,,,,,,,,,,,,,,,,,,,,,,,,,,,,,,,0,76,76,43,1,,,,,,,,,,,,,,,,,,,,,,,,
,,,,,,,,,,,,l,Correct!,,,,,,t1.png,t4.png,3,0.0000131,20,female,2020-09-28_11h02.26.129,torte-2b,2020.1.3,Win32,60,13269,0.5009,,,,,,,,,,,,,,,,,,,,,,,,,,,,,,,,,,,,,0,77,77,107,1,,,,,,,,,,,,,,,,,,,,,,,,
,,,,,,,,,,,,l,Incorrect,,,,,,t2.png,t3.png,1,0.90855,20,female,2020-09-28_11h02.26.129,torte-2b,2020.1.3,Win32,60,13269,0.539665,,,,,,,,,,,,,,,,,,,,,,,,,,,,,,,,,,,,,0,78,78,68,1,,,,,,,,,,,,,,,,,,,,,,,,
,,,,,,,,,,,,a,Correct!,,,,,,t2.png,t1.png,1,0.90025,20,female,2020-09-28_11h02.26.129,torte-2b,2020.1.3,Win32,60,13269,0.617855,,,,,,,,,,,,,,,,,,,,,,,,,,,,,,,,,,,,,0,79,79,19,1,,,,,,,,,,,,,,,,,,,,,,,,
,,,,,,,,,,,,a,Incorrect,,,,,,t4.png,t1.png,3,0.0000131,20,female,2020-09-28_11h02.26.129,torte-2b,2020.1.3,Win32,60,13269,0.39359,,,,,,,,,,,,,,,,,,,,,,,,,,,,,,,,,,,,,0,80,80,61,1,,,,,,,,,,,,,,,,,,,,,,,,
,,,,,,,,,,,,a,Incorrect,,,,,,t5.png,t1.png,4,9.55E-11,20,female,2020-09-28_11h02.26.129,torte-2b,2020.1.3,Win32,60,13269,0.45104,,,,,,,,,,,,,,,,,,,,,,,,,,,,,,,,,,,,,0,81,81,100,1,,,,,,,,,,,,,,,,,,,,,,,,
,,,,,,,,,,,,l,Correct!,,,,,,t2.png,t4.png,2,0.059078,20,female,2020-09-28_11h02.26.129,torte-2b,2020.1.3,Win32,60,13269,0.5029,,,,,,,,,,,,,,,,,,,,,,,,,,,,,,,,,,,,,0,82,82,37,1,,,,,,,,,,,,,,,,,,,,,,,,
,,,,,,,,,,,,a,Correct!,,,,,,t4.png,t4.png,0,0.98115,20,female,2020-09-28_11h02.26.129,torte-2b,2020.1.3,Win32,60,13269,0.475055,,,,,,,,,,,,,,,,,,,,,,,,,,,,,,,,,,,,,0,83,83,80,1,,,,,,,,,,,,,,,,,,,,,,,,
,,,,,,,,,,,,l,Correct!,,,,,,t2.png,t4.png,2,0.0591,20,female,2020-09-28_11h02.26.129,torte-2b,2020.1.3,Win32,60,13269,0.540345,,,,,,,,,,,,,,,,,,,,,,,,,,,,,,,,,,,,,0,84,84,15,1,,,,,,,,,,,,,,,,,,,,,,,,
,,,,,,,,,,,,a,Incorrect,,,,,,t5.png,t1.png,4,9.55E-11,20,female,2020-09-28_11h02.26.129,torte-2b,2020.1.3,Win32,60,13269,0.435745,,,,,,,,,,,,,,,,,,,,,,,,,,,,,,,,,,,,,0,85,85,71,1,,,,,,,,,,,,,,,,,,,,,,,,
,,,,,,,,,,,,a,Incorrect,,,,,,t5.png,t4.png,1,0.9,20,female,2020-09-28_11h02.26.129,torte-2b,2020.1.3,Win32,60,13269,0.36792,,,,,,,,,,,,,,,,,,,,,,,,,,,,,,,,,,,,,0,86,86,49,1,,,,,,,,,,,,,,,,,,,,,,,,
,,,,,,,,,,,,a,Incorrect,,,,,,t3.png,t1.png,2,0.056466,20,female,2020-09-28_11h02.26.129,torte-2b,2020.1.3,Win32,60,13269,0.3739,,,,,,,,,,,,,,,,,,,,,,,,,,,,,,,,,,,,,0,87,87,32,1,,,,,,,,,,,,,,,,,,,,,,,,
,,,,,,,,,,,,a,Correct!,,,,,,t3.png,t4.png,1,0.90855,20,female,2020-09-28_11h02.26.129,torte-2b,2020.1.3,Win32,60,13269,0.35462,,,,,,,,,,,,,,,,,,,,,,,,,,,,,,,,,,,,,0,88,88,96,1,,,,,,,,,,,,,,,,,,,,,,,,
,,,,,,,,,,,,a,Incorrect,,,,,,t4.png,t2.png,2,0.059078,20,female,2020-09-28_11h02.26.129,torte-2b,2020.1.3,Win32,60,13269,0.442015,,,,,,,,,,,,,,,,,,,,,,,,,,,,,,,,,,,,,0,89,89,86,1,,,,,,,,,,,,,,,,,,,,,,,,
,,,,,,,,,,,,a,Incorrect,,,,,,t4.png,t2.png,2,0.0591,20,female,2020-09-28_11h02.26.129,torte-2b,2020.1.3,Win32,60,13269,0.476135,,,,,,,,,,,,,,,,,,,,,,,,,,,,,,,,,,,,,0,90,90,36,1,,,,,,,,,,,,,,,,,,,,,,,,
,,,,,,,,,,,,l,Incorrect,,,,,,t4.png,t4.png,0,0.98115,20,female,2020-09-28_11h02.26.129,torte-2b,2020.1.3,Win32,60,13269,0.675615,,,,,,,,,,,,,,,,,,,,,,,,,,,,,,,,,,,,,0,91,91,21,1,,,,,,,,,,,,,,,,,,,,,,,,
,,,,,,,,,,,,l,Correct!,,,,,,t3.png,t5.png,2,0.056466,20,female,2020-09-28_11h02.26.129,torte-2b,2020.1.3,Win32,60,13269,0.50532,,,,,,,,,,,,,,,,,,,,,,,,,,,,,,,,,,,,,0,92,92,44,1,,,,,,,,,,,,,,,,,,,,,,,,
,,,,,,,,,,,,l,Incorrect,,,,,,t4.png,t5.png,1,0.9,20,female,2020-09-28_11h02.26.129,torte-2b,2020.1.3,Win32,60,13269,0.422995,,,,,,,,,,,,,,,,,,,,,,,,,,,,,,,,,,,,,0,93,93,115,1,,,,,,,,,,,,,,,,,,,,,,,,
,,,,,,,,,,,,a,Incorrect,,,,,,t5.png,t3.png,2,0.0565,20,female,2020-09-28_11h02.26.129,torte-2b,2020.1.3,Win32,60,13269,0.40111,,,,,,,,,,,,,,,,,,,,,,,,,,,,,,,,,,,,,0,94,94,39,1,,,,,,,,,,,,,,,,,,,,,,,,
,,,,,,,,,,,,a,Correct!,,,,,,t2.png,t1.png,1,0.90025,20,female,2020-09-28_11h02.26.129,torte-2b,2020.1.3,Win32,60,13269,0.505435,,,,,,,,,,,,,,,,,,,,,,,,,,,,,,,,,,,,,0,95,95,4,1,,,,,,,,,,,,,,,,,,,,,,,,
,,,,,,,,,,,,a,Correct!,,,,,,t4.png,t3.png,1,0.909,20,female,2020-09-28_11h02.26.129,torte-2b,2020.1.3,Win32,60,13269,0.41715,,,,,,,,,,,,,,,,,,,,,,,,,,,,,,,,,,,,,0,96,96,46,1,,,,,,,,,,,,,,,,,,,,,,,,
,,,,,,,,,,,,a,Incorrect,,,,,,t5.png,t1.png,4,9.55E-11,20,female,2020-09-28_11h02.26.129,torte-2b,2020.1.3,Win32,60,13269,0.418815,,,,,,,,,,,,,,,,,,,,,,,,,,,,,,,,,,,,,0,97,97,22,1,,,,,,,,,,,,,,,,,,,,,,,,
,,,,,,,,,,,,a,Correct!,,,,,,t2.png,t1.png,1,0.90025,20,female,2020-09-28_11h02.26.129,torte-2b,2020.1.3,Win32,60,13269,0.513445,,,,,,,,,,,,,,,,,,,,,,,,,,,,,,,,,,,,,0,98,98,62,1,,,,,,,,,,,,,,,,,,,,,,,,
,,,,,,,,,,,,l,Incorrect,,,,,,t1.png,t1.png,0,0.978,20,female,2020-09-28_11h02.26.129,torte-2b,2020.1.3,Win32,60,13269,1.39302,,,,,,,,,,,,,,,,,,,,,,,,,,,,,,,,,,,,,0,99,99,54,1,,,,,,,,,,,,,,,,,,,,,,,,
,,,,,,,,,,,,a,Incorrect,,,,,,t5.png,t3.png,2,0.056466,20,female,2020-09-28_11h02.26.129,torte-2b,2020.1.3,Win32,60,13269,0.55578,,,,,,,,,,,,,,,,,,,,,,,,,,,,,,,,,,,,,0,100,100,108,1,,,,,,,,,,,,,,,,,,,,,,,,
,,,,,,,,,,,,a,Correct!,,,,,,t5.png,t5.png,0,0.97829,20,female,2020-09-28_11h02.26.129,torte-2b,2020.1.3,Win32,60,13269,0.442425,,,,,,,,,,,,,,,,,,,,,,,,,,,,,,,,,,,,,0,101,101,73,1,,,,,,,,,,,,,,,,,,,,,,,,
,,,,,,,,,,,,a,Correct!,,,,,,t4.png,t3.png,1,0.909,20,female,2020-09-28_11h02.26.129,torte-2b,2020.1.3,Win32,60,13269,0.47205,,,,,,,,,,,,,,,,,,,,,,,,,,,,,,,,,,,,,0,102,102,20,1,,,,,,,,,,,,,,,,,,,,,,,,
,,,,,,,,,,,,a,Correct!,,,,,,t3.png,t1.png,2,0.056466,20,female,2020-09-28_11h02.26.129,torte-2b,2020.1.3,Win32,60,13269,0.48663,,,,,,,,,,,,,,,,,,,,,,,,,,,,,,,,,,,,,0,103,103,29,1,,,,,,,,,,,,,,,,,,,,,,,,
,,,,,,,,,,,,a,Correct!,,,,,,t4.png,t5.png,1,0.90025,20,female,2020-09-28_11h02.26.129,torte-2b,2020.1.3,Win32,60,13269,0.517265,,,,,,,,,,,,,,,,,,,,,,,,,,,,,,,,,,,,,0,104,104,47,1,,,,,,,,,,,,,,,,,,,,,,,,
,,,,,,,,,,,,l,Incorrect,,,,,,t2.png,t3.png,1,0.90855,20,female,2020-09-28_11h02.26.129,torte-2b,2020.1.3,Win32,60,13269,0.637735,,,,,,,,,,,,,,,,,,,,,,,,,,,,,,,,,,,,,0,105,105,10,1,,,,,,,,,,,,,,,,,,,,,,,,
,,,,,,,,,,,,l,Correct!,,,,,,t1.png,t4.png,3,0.0000131,20,female,2020-09-28_11h02.26.129,torte-2b,2020.1.3,Win32,60,13269,0.467455,,,,,,,,,,,,,,,,,,,,,,,,,,,,,,,,,,,,,0,106,106,81,1,,,,,,,,,,,,,,,,,,,,,,,,
,,,,,,,,,,,,a,Incorrect,,,,,,t4.png,t1.png,3,0.0000131,20,female,2020-09-28_11h02.26.129,torte-2b,2020.1.3,Win32,60,13269,0.452825,,,,,,,,,,,,,,,,,,,,,,,,,,,,,,,,,,,,,0,107,107,42,1,,,,,,,,,,,,,,,,,,,,,,,,
,,,,,,,,,,,,l,Incorrect,,,,,,t5.png,t5.png,0,0.97829,20,female,2020-09-28_11h02.26.129,torte-2b,2020.1.3,Win32,60,13269,0.628655,,,,,,,,,,,,,,,,,,,,,,,,,,,,,,,,,,,,,0,108,108,70,1,,,,,,,,,,,,,,,,,,,,,,,,
,,,,,,,,,,,,l,Incorrect,,,,,,t1.png,t2.png,1,0.90025,20,female,2020-09-28_11h02.26.129,torte-2b,2020.1.3,Win32,60,13269,0.955425,,,,,,,,,,,,,,,,,,,,,,,,,,,,,,,,,,,,,0,109,109,33,1,,,,,,,,,,,,,,,,,,,,,,,,
,,,,,,,,,,,,l,Correct!,,,,,,t3.png,t4.png,1,0.90855,20,female,2020-09-28_11h02.26.129,torte-2b,2020.1.3,Win32,60,13269,0.502515,,,,,,,,,,,,,,,,,,,,,,,,,,,,,,,,,,,,,0,110,110,84,1,,,,,,,,,,,,,,,,,,,,,,,,
,,,,,,,,,,,,l,Correct!,,,,,,t1.png,t5.png,4,9.55E-11,20,female,2020-09-28_11h02.26.129,torte-2b,2020.1.3,Win32,60,13269,0.445,,,,,,,,,,,,,,,,,,,,,,,,,,,,,,,,,,,,,0,111,111,12,1,,,,,,,,,,,,,,,,,,,,,,,,
,,,,,,,,,,,,l,Correct!,,,,,,t5.png,t4.png,1,0.9,20,female,2020-09-28_11h02.26.129,torte-2b,2020.1.3,Win32,60,13269,0.419865,,,,,,,,,,,,,,,,,,,,,,,,,,,,,,,,,,,,,0,112,112,76,1,,,,,,,,,,,,,,,,,,,,,,,,
,,,,,,,,,,,,a,Incorrect,,,,,,t4.png,t1.png,3,0.0000131,20,female,2020-09-28_11h02.26.129,torte-2b,2020.1.3,Win32,60,13269,0.601085,,,,,,,,,,,,,,,,,,,,,,,,,,,,,,,,,,,,,0,113,113,13,1,,,,,,,,,,,,,,,,,,,,,,,,
,,,,,,,,,,,,a,Incorrect,,,,,,t3.png,t1.png,2,0.0565,20,female,2020-09-28_11h02.26.129,torte-2b,2020.1.3,Win32,60,13269,0.455965,,,,,,,,,,,,,,,,,,,,,,,,,,,,,,,,,,,,,0,114,114,31,1,,,,,,,,,,,,,,,,,,,,,,,,
,,,,,,,,,,,,a,Incorrect,,,,,,t4.png,t2.png,2,0.059078,20,female,2020-09-28_11h02.26.129,torte-2b,2020.1.3,Win32,60,13269,0.384285,,,,,,,,,,,,,,,,,,,,,,,,,,,,,,,,,,,,,0,115,115,110,1,,,,,,,,,,,,,,,,,,,,,,,,
,,,,,,,,,,,,l,Correct!,,,,,,t3.png,t5.png,2,0.056466,20,female,2020-09-28_11h02.26.129,torte-2b,2020.1.3,Win32,60,13269,0.570665,,,,,,,,,,,,,,,,,,,,,,,,,,,,,,,,,,,,,0,116,116,14,1,,,,,,,,,,,,,,,,,,,,,,,,
,,,,,,,,,,,,l,Incorrect,,,,,,t2.png,t3.png,1,0.90855,20,female,2020-09-28_11h02.26.129,torte-2b,2020.1.3,Win32,60,13269,0.422215,,,,,,,,,,,,,,,,,,,,,,,,,,,,,,,,,,,,,0,117,117,65,1,,,,,,,,,,,,,,,,,,,,,,,,
,,,,,,,,,,,,a,Correct!,,,,,,t1.png,t1.png,0,0.97829,20,female,2020-09-28_11h02.26.129,torte-2b,2020.1.3,Win32,60,13269,0.55088,,,,,,,,,,,,,,,,,,,,,,,,,,,,,,,,,,,,,0,118,118,9,1,,,,,,,,,,,,,,,,,,,,,,,,
,,,,,,,,,,,,l,Correct!,,,,,,t1.png,t4.png,3,0.0000131,20,female,2020-09-28_11h02.26.129,torte-2b,2020.1.3,Win32,60,13269,0.3888,,,,,,,,,,,,,,,,,,,,,,,,,,,,,,,,,,,,,0,119,119,92,1,,,,,,,,,,,,,,,,,,,,,,,,
,,,,,,,,,,,,,,,,,,,,,,,20,female,2020-09-28_11h02.26.129,torte-2b,2020.1.3,Win32,60,13269,,space,1.39419,,,,,,,,,,,,,,,,,,,,,,,,,,,,,,,,,,,,,,,,-20.79998887,63.99999452,1,0,0,s3,2.40001148,76.79999471,1,0,0,t1,145.6000136,-107.200008,1,0,0,proceed,space,1.13647,space,1.693325,space,0.617665
