key_resp_8.keys,key_resp_8.rt,key_resp_9.keys,key_resp_9.rt,key_resp_10.keys,key_resp_10.rt,key_resp_11.keys,key_resp_11.rt,key_resp_2.keys,key_resp_2.rt,key_resp_3.keys,key_resp_3.rt,key_resp.keys,Feedback,train.thisRepN,train.thisTrialN,train.thisN,train.thisIndex,train.ran,torta_sx,torta_dx,difference,probability,age,gender,date,expName,psychopyVersion,OS,frameRate,participant,key_resp.rt,key_resp_15.keys,key_resp_15.rt,key_resp_6.keys,key_resp_6.rt,test1.thisRepN,test1.thisTrialN,test1.thisN,test1.thisIndex,test1.ran,key_resp_4.keys,key_resp_4.rt,key_resp_5.keys,back1.thisRepN,back1.thisTrialN,back1.thisN,back1.thisIndex,back1.ran,letter,key_resp_5.rt,back2.thisRepN,back2.thisTrialN,back2.thisN,back2.thisIndex,back2.ran,back3.thisRepN,back3.thisTrialN,back3.thisN,back3.thisIndex,back3.ran,back4.thisRepN,back4.thisTrialN,back4.thisN,back4.thisIndex,back4.ran,key_resp_7.keys,key_resp_7.rt,test2.thisRepN,test2.thisTrialN,test2.thisN,test2.thisIndex,test2.ran,mouse.x,mouse.y,mouse.leftButton,mouse.midButton,mouse.rightButton,mouse.clicked_name,mouse_2.x,mouse_2.y,mouse_2.leftButton,mouse_2.midButton,mouse_2.rightButton,mouse_2.clicked_name,mouse_3.x,mouse_3.y,mouse_3.leftButton,mouse_3.midButton,mouse_3.rightButton,mouse_3.clicked_name,key_resp_12.keys,key_resp_12.rt,key_resp_13.keys,key_resp_13.rt,key_resp_14.keys,key_resp_14.rt
space,2.709795,space,0.66428,space,1.079665,space,3.09283,space,18.321605,space,30.658755,,Too slow :(,0,0,0,5,1,t2.png,t4.png,2,0.059078,19,Female,2020-09-16_14h03.22.553,torte-2b,2020.1.3,Win32,60,13280,,,,,,,,,,,,,,,,,,,,,,,,,,,,,,,,,,,,,,,,,,,,,,,,,,,,,,,,,,,,,,,,,,
,,,,,,,,,,,,l,Correct!,0,1,1,58,1,t5.png,t4.png,1,0.90025,19,Female,2020-09-16_14h03.22.553,torte-2b,2020.1.3,Win32,60,13280,1.246135,,,,,,,,,,,,,,,,,,,,,,,,,,,,,,,,,,,,,,,,,,,,,,,,,,,,,,,,,,,,,,,,,
,,,,,,,,,,,,l,Incorrect,0,2,2,110,1,t4.png,t5.png,1,0.90025,19,Female,2020-09-16_14h03.22.553,torte-2b,2020.1.3,Win32,60,13280,1.30142,,,,,,,,,,,,,,,,,,,,,,,,,,,,,,,,,,,,,,,,,,,,,,,,,,,,,,,,,,,,,,,,,
,,,,,,,,,,,,a,Correct!,0,3,3,116,1,t5.png,t4.png,1,0.90025,19,Female,2020-09-16_14h03.22.553,torte-2b,2020.1.3,Win32,60,13280,1.34657,,,,,,,,,,,,,,,,,,,,,,,,,,,,,,,,,,,,,,,,,,,,,,,,,,,,,,,,,,,,,,,,,
,,,,,,,,,,,,a,Incorrect,0,4,4,73,1,t4.png,t2.png,2,0.059078,19,Female,2020-09-16_14h03.22.553,torte-2b,2020.1.3,Win32,60,13280,1.303335,,,,,,,,,,,,,,,,,,,,,,,,,,,,,,,,,,,,,,,,,,,,,,,,,,,,,,,,,,,,,,,,,
,,,,,,,,,,,,a,Incorrect,0,5,5,1,1,t2.png,t4.png,2,0.059078,19,Female,2020-09-16_14h03.22.553,torte-2b,2020.1.3,Win32,60,13280,1.11845,,,,,,,,,,,,,,,,,,,,,,,,,,,,,,,,,,,,,,,,,,,,,,,,,,,,,,,,,,,,,,,,,
,,,,,,,,,,,,a,Incorrect,0,6,6,26,1,t4.png,t2.png,2,0.0591,19,Female,2020-09-16_14h03.22.553,torte-2b,2020.1.3,Win32,60,13280,1.022165,,,,,,,,,,,,,,,,,,,,,,,,,,,,,,,,,,,,,,,,,,,,,,,,,,,,,,,,,,,,,,,,,
,,,,,,,,,,,,l,Correct!,0,7,7,57,1,t2.png,t4.png,2,0.059078,19,Female,2020-09-16_14h03.22.553,torte-2b,2020.1.3,Win32,60,13280,2.15549,,,,,,,,,,,,,,,,,,,,,,,,,,,,,,,,,,,,,,,,,,,,,,,,,,,,,,,,,,,,,,,,,
,,,,,,,,,,,,a,Incorrect,0,8,8,94,1,t5.png,t1.png,4,9.55E-11,19,Female,2020-09-16_14h03.22.553,torte-2b,2020.1.3,Win32,60,13280,1.967245,,,,,,,,,,,,,,,,,,,,,,,,,,,,,,,,,,,,,,,,,,,,,,,,,,,,,,,,,,,,,,,,,
,,,,,,,,,,,,l,Incorrect,0,9,9,66,1,t4.png,t5.png,1,0.9,19,Female,2020-09-16_14h03.22.553,torte-2b,2020.1.3,Win32,60,13280,1.683665,,,,,,,,,,,,,,,,,,,,,,,,,,,,,,,,,,,,,,,,,,,,,,,,,,,,,,,,,,,,,,,,,
,,,,,,,,,,,,a,Incorrect,0,10,10,53,1,t3.png,t1.png,2,0.056466,19,Female,2020-09-16_14h03.22.553,torte-2b,2020.1.3,Win32,60,13280,1.98937,,,,,,,,,,,,,,,,,,,,,,,,,,,,,,,,,,,,,,,,,,,,,,,,,,,,,,,,,,,,,,,,,
,,,,,,,,,,,,a,Correct!,0,11,11,85,1,t3.png,t2.png,1,0.90855,19,Female,2020-09-16_14h03.22.553,torte-2b,2020.1.3,Win32,60,13280,1.533485,,,,,,,,,,,,,,,,,,,,,,,,,,,,,,,,,,,,,,,,,,,,,,,,,,,,,,,,,,,,,,,,,
,,,,,,,,,,,,l,Correct!,0,12,12,33,1,t5.png,t1.png,4,9.55E-11,19,Female,2020-09-16_14h03.22.553,torte-2b,2020.1.3,Win32,60,13280,1.36652,,,,,,,,,,,,,,,,,,,,,,,,,,,,,,,,,,,,,,,,,,,,,,,,,,,,,,,,,,,,,,,,,
,,,,,,,,,,,,l,Incorrect,0,13,13,25,1,t5.png,t5.png,0,0.97829,19,Female,2020-09-16_14h03.22.553,torte-2b,2020.1.3,Win32,60,13280,2.285925,,,,,,,,,,,,,,,,,,,,,,,,,,,,,,,,,,,,,,,,,,,,,,,,,,,,,,,,,,,,,,,,,
,,,,,,,,,,,,l,Correct!,0,14,14,4,1,t1.png,t5.png,4,9.55E-11,19,Female,2020-09-16_14h03.22.553,torte-2b,2020.1.3,Win32,60,13280,1.217815,,,,,,,,,,,,,,,,,,,,,,,,,,,,,,,,,,,,,,,,,,,,,,,,,,,,,,,,,,,,,,,,,
,,,,,,,,,,,,a,Correct!,0,15,15,113,1,t5.png,t4.png,1,0.9,19,Female,2020-09-16_14h03.22.553,torte-2b,2020.1.3,Win32,60,13280,1.665345,,,,,,,,,,,,,,,,,,,,,,,,,,,,,,,,,,,,,,,,,,,,,,,,,,,,,,,,,,,,,,,,,
,,,,,,,,,,,,a,Incorrect,0,16,16,6,1,t1.png,t4.png,3,0.0000131,19,Female,2020-09-16_14h03.22.553,torte-2b,2020.1.3,Win32,60,13280,1.519815,,,,,,,,,,,,,,,,,,,,,,,,,,,,,,,,,,,,,,,,,,,,,,,,,,,,,,,,,,,,,,,,,
,,,,,,,,,,,,a,Incorrect,0,17,17,51,1,t3.png,t1.png,2,0.056466,19,Female,2020-09-16_14h03.22.553,torte-2b,2020.1.3,Win32,60,13280,1.82461,,,,,,,,,,,,,,,,,,,,,,,,,,,,,,,,,,,,,,,,,,,,,,,,,,,,,,,,,,,,,,,,,
,,,,,,,,,,,,l,Incorrect,0,18,18,100,1,t4.png,t5.png,1,0.90025,19,Female,2020-09-16_14h03.22.553,torte-2b,2020.1.3,Win32,60,13280,1.69223,,,,,,,,,,,,,,,,,,,,,,,,,,,,,,,,,,,,,,,,,,,,,,,,,,,,,,,,,,,,,,,,,
,,,,,,,,,,,,a,Correct!,0,19,19,42,1,t5.png,t4.png,1,0.90025,19,Female,2020-09-16_14h03.22.553,torte-2b,2020.1.3,Win32,60,13280,0.907185,,,,,,,,,,,,,,,,,,,,,,,,,,,,,,,,,,,,,,,,,,,,,,,,,,,,,,,,,,,,,,,,,
,,,,,,,,,,,,l,Correct!,0,20,20,115,1,t2.png,t4.png,2,0.059078,19,Female,2020-09-16_14h03.22.553,torte-2b,2020.1.3,Win32,60,13280,1.40131,,,,,,,,,,,,,,,,,,,,,,,,,,,,,,,,,,,,,,,,,,,,,,,,,,,,,,,,,,,,,,,,,
,,,,,,,,,,,,l,Incorrect,0,21,21,10,1,t2.png,t3.png,1,0.90855,19,Female,2020-09-16_14h03.22.553,torte-2b,2020.1.3,Win32,60,13280,0.554135,,,,,,,,,,,,,,,,,,,,,,,,,,,,,,,,,,,,,,,,,,,,,,,,,,,,,,,,,,,,,,,,,
,,,,,,,,,,,,a,Incorrect,0,22,22,24,1,t4.png,t2.png,2,0.059078,19,Female,2020-09-16_14h03.22.553,torte-2b,2020.1.3,Win32,60,13280,1.249205,,,,,,,,,,,,,,,,,,,,,,,,,,,,,,,,,,,,,,,,,,,,,,,,,,,,,,,,,,,,,,,,,
,,,,,,,,,,,,l,Incorrect,0,23,23,39,1,t3.png,t2.png,1,0.90855,19,Female,2020-09-16_14h03.22.553,torte-2b,2020.1.3,Win32,60,13280,1.93138,,,,,,,,,,,,,,,,,,,,,,,,,,,,,,,,,,,,,,,,,,,,,,,,,,,,,,,,,,,,,,,,,
,,,,,,,,,,,,a,Incorrect,0,24,24,37,1,t1.png,t4.png,3,0.0000131,19,Female,2020-09-16_14h03.22.553,torte-2b,2020.1.3,Win32,60,13280,1.47475,,,,,,,,,,,,,,,,,,,,,,,,,,,,,,,,,,,,,,,,,,,,,,,,,,,,,,,,,,,,,,,,,
,,,,,,,,,,,,l,Incorrect,0,25,25,32,1,t4.png,t5.png,1,0.90025,19,Female,2020-09-16_14h03.22.553,torte-2b,2020.1.3,Win32,60,13280,1.46806,,,,,,,,,,,,,,,,,,,,,,,,,,,,,,,,,,,,,,,,,,,,,,,,,,,,,,,,,,,,,,,,,
,,,,,,,,,,,,l,Correct!,0,26,26,46,1,t4.png,t2.png,2,0.059078,19,Female,2020-09-16_14h03.22.553,torte-2b,2020.1.3,Win32,60,13280,1.60403,,,,,,,,,,,,,,,,,,,,,,,,,,,,,,,,,,,,,,,,,,,,,,,,,,,,,,,,,,,,,,,,,
,,,,,,,,,,,,a,Incorrect,0,27,27,3,1,t1.png,t5.png,4,9.55E-11,19,Female,2020-09-16_14h03.22.553,torte-2b,2020.1.3,Win32,60,13280,1.569155,,,,,,,,,,,,,,,,,,,,,,,,,,,,,,,,,,,,,,,,,,,,,,,,,,,,,,,,,,,,,,,,,
,,,,,,,,,,,,l,Incorrect,0,28,28,109,1,t5.png,t5.png,0,0.97829,19,Female,2020-09-16_14h03.22.553,torte-2b,2020.1.3,Win32,60,13280,1.19477,,,,,,,,,,,,,,,,,,,,,,,,,,,,,,,,,,,,,,,,,,,,,,,,,,,,,,,,,,,,,,,,,
,,,,,,,,,,,,a,Correct!,0,29,29,81,1,t1.png,t1.png,0,0.97829,19,Female,2020-09-16_14h03.22.553,torte-2b,2020.1.3,Win32,60,13280,1.6527,,,,,,,,,,,,,,,,,,,,,,,,,,,,,,,,,,,,,,,,,,,,,,,,,,,,,,,,,,,,,,,,,
,,,,,,,,,,,,a,Correct!,0,30,30,62,1,t5.png,t5.png,0,0.978,19,Female,2020-09-16_14h03.22.553,torte-2b,2020.1.3,Win32,60,13280,1.1416,,,,,,,,,,,,,,,,,,,,,,,,,,,,,,,,,,,,,,,,,,,,,,,,,,,,,,,,,,,,,,,,,
,,,,,,,,,,,,l,Incorrect,0,31,31,105,1,t3.png,t2.png,1,0.90855,19,Female,2020-09-16_14h03.22.553,torte-2b,2020.1.3,Win32,60,13280,0.952055,,,,,,,,,,,,,,,,,,,,,,,,,,,,,,,,,,,,,,,,,,,,,,,,,,,,,,,,,,,,,,,,,
,,,,,,,,,,,,a,Correct!,0,32,32,2,1,t3.png,t2.png,1,0.90855,19,Female,2020-09-16_14h03.22.553,torte-2b,2020.1.3,Win32,60,13280,1.33519,,,,,,,,,,,,,,,,,,,,,,,,,,,,,,,,,,,,,,,,,,,,,,,,,,,,,,,,,,,,,,,,,
,,,,,,,,,,,,a,Incorrect,0,33,33,14,1,t2.png,t4.png,2,0.059078,19,Female,2020-09-16_14h03.22.553,torte-2b,2020.1.3,Win32,60,13280,1.932845,,,,,,,,,,,,,,,,,,,,,,,,,,,,,,,,,,,,,,,,,,,,,,,,,,,,,,,,,,,,,,,,,
,,,,,,,,,,,,l,Correct!,0,34,34,87,1,t5.png,t1.png,4,9.55E-11,19,Female,2020-09-16_14h03.22.553,torte-2b,2020.1.3,Win32,60,13280,1.50658,,,,,,,,,,,,,,,,,,,,,,,,,,,,,,,,,,,,,,,,,,,,,,,,,,,,,,,,,,,,,,,,,
,,,,,,,,,,,,l,Correct!,0,35,35,99,1,t1.png,t5.png,4,9.55E-11,19,Female,2020-09-16_14h03.22.553,torte-2b,2020.1.3,Win32,60,13280,1.27417,,,,,,,,,,,,,,,,,,,,,,,,,,,,,,,,,,,,,,,,,,,,,,,,,,,,,,,,,,,,,,,,,
,,,,,,,,,,,,a,Correct!,0,36,36,20,1,t2.png,t3.png,1,0.90855,19,Female,2020-09-16_14h03.22.553,torte-2b,2020.1.3,Win32,60,13280,1.17361,,,,,,,,,,,,,,,,,,,,,,,,,,,,,,,,,,,,,,,,,,,,,,,,,,,,,,,,,,,,,,,,,
,,,,,,,,,,,,a,Correct!,0,37,37,79,1,t3.png,t2.png,1,0.909,19,Female,2020-09-16_14h03.22.553,torte-2b,2020.1.3,Win32,60,13280,0.845305,,,,,,,,,,,,,,,,,,,,,,,,,,,,,,,,,,,,,,,,,,,,,,,,,,,,,,,,,,,,,,,,,
,,,,,,,,,,,,l,Correct!,0,38,38,111,1,t5.png,t1.png,4,9.55E-11,19,Female,2020-09-16_14h03.22.553,torte-2b,2020.1.3,Win32,60,13280,0.984855,,,,,,,,,,,,,,,,,,,,,,,,,,,,,,,,,,,,,,,,,,,,,,,,,,,,,,,,,,,,,,,,,
,,,,,,,,,,,,a,Correct!,0,39,39,7,1,t4.png,t5.png,1,0.90025,19,Female,2020-09-16_14h03.22.553,torte-2b,2020.1.3,Win32,60,13280,1.49883,,,,,,,,,,,,,,,,,,,,,,,,,,,,,,,,,,,,,,,,,,,,,,,,,,,,,,,,,,,,,,,,,
,,,,,,,,,,,,a,Correct!,0,40,40,71,1,t5.png,t5.png,0,0.97829,19,Female,2020-09-16_14h03.22.553,torte-2b,2020.1.3,Win32,60,13280,1.099145,,,,,,,,,,,,,,,,,,,,,,,,,,,,,,,,,,,,,,,,,,,,,,,,,,,,,,,,,,,,,,,,,
,,,,,,,,,,,,a,Correct!,0,41,41,29,1,t5.png,t5.png,0,0.97829,19,Female,2020-09-16_14h03.22.553,torte-2b,2020.1.3,Win32,60,13280,0.855965,,,,,,,,,,,,,,,,,,,,,,,,,,,,,,,,,,,,,,,,,,,,,,,,,,,,,,,,,,,,,,,,,
,,,,,,,,,,,,l,Correct!,0,42,42,40,1,t1.png,t5.png,4,9.55E-11,19,Female,2020-09-16_14h03.22.553,torte-2b,2020.1.3,Win32,60,13280,0.88083,,,,,,,,,,,,,,,,,,,,,,,,,,,,,,,,,,,,,,,,,,,,,,,,,,,,,,,,,,,,,,,,,
,,,,,,,,,,,,a,Correct!,0,43,43,28,1,t2.png,t3.png,1,0.909,19,Female,2020-09-16_14h03.22.553,torte-2b,2020.1.3,Win32,60,13280,1.29333,,,,,,,,,,,,,,,,,,,,,,,,,,,,,,,,,,,,,,,,,,,,,,,,,,,,,,,,,,,,,,,,,
,,,,,,,,,,,,l,Correct!,0,44,44,54,1,t1.png,t5.png,4,9.55E-11,19,Female,2020-09-16_14h03.22.553,torte-2b,2020.1.3,Win32,60,13280,1.24852,,,,,,,,,,,,,,,,,,,,,,,,,,,,,,,,,,,,,,,,,,,,,,,,,,,,,,,,,,,,,,,,,
,,,,,,,,,,,,l,Correct!,0,45,45,91,1,t1.png,t4.png,3,0.0000131,19,Female,2020-09-16_14h03.22.553,torte-2b,2020.1.3,Win32,60,13280,1.652745,,,,,,,,,,,,,,,,,,,,,,,,,,,,,,,,,,,,,,,,,,,,,,,,,,,,,,,,,,,,,,,,,
,,,,,,,,,,,,a,Correct!,0,46,46,22,1,t2.png,t3.png,1,0.90855,19,Female,2020-09-16_14h03.22.553,torte-2b,2020.1.3,Win32,60,13280,1.41235,,,,,,,,,,,,,,,,,,,,,,,,,,,,,,,,,,,,,,,,,,,,,,,,,,,,,,,,,,,,,,,,,
,,,,,,,,,,,,a,Correct!,0,47,47,41,1,t3.png,t2.png,1,0.90855,19,Female,2020-09-16_14h03.22.553,torte-2b,2020.1.3,Win32,60,13280,0.793525,,,,,,,,,,,,,,,,,,,,,,,,,,,,,,,,,,,,,,,,,,,,,,,,,,,,,,,,,,,,,,,,,
,,,,,,,,,,,,a,Correct!,0,48,48,16,1,t5.png,t4.png,1,0.9,19,Female,2020-09-16_14h03.22.553,torte-2b,2020.1.3,Win32,60,13280,1.423005,,,,,,,,,,,,,,,,,,,,,,,,,,,,,,,,,,,,,,,,,,,,,,,,,,,,,,,,,,,,,,,,,
,,,,,,,,,,,,a,Correct!,0,49,49,104,1,t2.png,t3.png,1,0.90855,19,Female,2020-09-16_14h03.22.553,torte-2b,2020.1.3,Win32,60,13280,1.03693,,,,,,,,,,,,,,,,,,,,,,,,,,,,,,,,,,,,,,,,,,,,,,,,,,,,,,,,,,,,,,,,,
,,,,,,,,,,,,l,Correct!,0,50,50,55,1,t2.png,t4.png,2,0.059078,19,Female,2020-09-16_14h03.22.553,torte-2b,2020.1.3,Win32,60,13280,1.44252,,,,,,,,,,,,,,,,,,,,,,,,,,,,,,,,,,,,,,,,,,,,,,,,,,,,,,,,,,,,,,,,,
,,,,,,,,,,,,a,Correct!,0,51,51,59,1,t5.png,t4.png,1,0.9,19,Female,2020-09-16_14h03.22.553,torte-2b,2020.1.3,Win32,60,13280,1.13701,,,,,,,,,,,,,,,,,,,,,,,,,,,,,,,,,,,,,,,,,,,,,,,,,,,,,,,,,,,,,,,,,
,,,,,,,,,,,,l,Correct!,0,52,52,90,1,t1.png,t5.png,4,9.55E-11,19,Female,2020-09-16_14h03.22.553,torte-2b,2020.1.3,Win32,60,13280,1.11763,,,,,,,,,,,,,,,,,,,,,,,,,,,,,,,,,,,,,,,,,,,,,,,,,,,,,,,,,,,,,,,,,
,,,,,,,,,,,,a,Correct!,0,53,53,21,1,t5.png,t4.png,1,0.90025,19,Female,2020-09-16_14h03.22.553,torte-2b,2020.1.3,Win32,60,13280,0.818005,,,,,,,,,,,,,,,,,,,,,,,,,,,,,,,,,,,,,,,,,,,,,,,,,,,,,,,,,,,,,,,,,
,,,,,,,,,,,,l,Correct!,0,54,54,52,1,t2.png,t4.png,2,0.059078,19,Female,2020-09-16_14h03.22.553,torte-2b,2020.1.3,Win32,60,13280,1.101255,,,,,,,,,,,,,,,,,,,,,,,,,,,,,,,,,,,,,,,,,,,,,,,,,,,,,,,,,,,,,,,,,
,,,,,,,,,,,,l,Correct!,0,55,55,17,1,t1.png,t4.png,3,0.0000131,19,Female,2020-09-16_14h03.22.553,torte-2b,2020.1.3,Win32,60,13280,0.833715,,,,,,,,,,,,,,,,,,,,,,,,,,,,,,,,,,,,,,,,,,,,,,,,,,,,,,,,,,,,,,,,,
,,,,,,,,,,,,a,Correct!,0,56,56,65,1,t4.png,t5.png,1,0.90025,19,Female,2020-09-16_14h03.22.553,torte-2b,2020.1.3,Win32,60,13280,1.120835,,,,,,,,,,,,,,,,,,,,,,,,,,,,,,,,,,,,,,,,,,,,,,,,,,,,,,,,,,,,,,,,,
,,,,,,,,,,,,l,Correct!,0,57,57,35,1,t1.png,t4.png,3,0.0000131,19,Female,2020-09-16_14h03.22.553,torte-2b,2020.1.3,Win32,60,13280,0.93306,,,,,,,,,,,,,,,,,,,,,,,,,,,,,,,,,,,,,,,,,,,,,,,,,,,,,,,,,,,,,,,,,
,,,,,,,,,,,,a,Correct!,0,58,58,84,1,t1.png,t1.png,0,0.97829,19,Female,2020-09-16_14h03.22.553,torte-2b,2020.1.3,Win32,60,13280,0.78226,,,,,,,,,,,,,,,,,,,,,,,,,,,,,,,,,,,,,,,,,,,,,,,,,,,,,,,,,,,,,,,,,
,,,,,,,,,,,,a,Correct!,0,59,59,74,1,t5.png,t4.png,1,0.9,19,Female,2020-09-16_14h03.22.553,torte-2b,2020.1.3,Win32,60,13280,1.001695,,,,,,,,,,,,,,,,,,,,,,,,,,,,,,,,,,,,,,,,,,,,,,,,,,,,,,,,,,,,,,,,,
,,,,,,,,,,,,a,Correct!,0,60,60,78,1,t1.png,t1.png,0,0.978,19,Female,2020-09-16_14h03.22.553,torte-2b,2020.1.3,Win32,60,13280,1.53354,,,,,,,,,,,,,,,,,,,,,,,,,,,,,,,,,,,,,,,,,,,,,,,,,,,,,,,,,,,,,,,,,
,,,,,,,,,,,,l,Incorrect,0,61,61,98,1,t2.png,t4.png,2,0.0591,19,Female,2020-09-16_14h03.22.553,torte-2b,2020.1.3,Win32,60,13280,1.076345,,,,,,,,,,,,,,,,,,,,,,,,,,,,,,,,,,,,,,,,,,,,,,,,,,,,,,,,,,,,,,,,,
,,,,,,,,,,,,l,Correct!,0,62,62,117,1,t1.png,t5.png,4,9.55E-11,19,Female,2020-09-16_14h03.22.553,torte-2b,2020.1.3,Win32,60,13280,1.81617,,,,,,,,,,,,,,,,,,,,,,,,,,,,,,,,,,,,,,,,,,,,,,,,,,,,,,,,,,,,,,,,,
,,,,,,,,,,,,l,Correct!,0,63,63,72,1,t4.png,t2.png,2,0.059078,19,Female,2020-09-16_14h03.22.553,torte-2b,2020.1.3,Win32,60,13280,1.14352,,,,,,,,,,,,,,,,,,,,,,,,,,,,,,,,,,,,,,,,,,,,,,,,,,,,,,,,,,,,,,,,,
,,,,,,,,,,,,l,Correct!,0,64,64,47,1,t4.png,t2.png,2,0.059078,19,Female,2020-09-16_14h03.22.553,torte-2b,2020.1.3,Win32,60,13280,0.88203,,,,,,,,,,,,,,,,,,,,,,,,,,,,,,,,,,,,,,,,,,,,,,,,,,,,,,,,,,,,,,,,,
,,,,,,,,,,,,l,Correct!,0,65,65,89,1,t1.png,t4.png,3,0.0000131,19,Female,2020-09-16_14h03.22.553,torte-2b,2020.1.3,Win32,60,13280,0.75092,,,,,,,,,,,,,,,,,,,,,,,,,,,,,,,,,,,,,,,,,,,,,,,,,,,,,,,,,,,,,,,,,
,,,,,,,,,,,,a,Correct!,0,66,66,13,1,t5.png,t5.png,0,0.97829,19,Female,2020-09-16_14h03.22.553,torte-2b,2020.1.3,Win32,60,13280,1.09595,,,,,,,,,,,,,,,,,,,,,,,,,,,,,,,,,,,,,,,,,,,,,,,,,,,,,,,,,,,,,,,,,
,,,,,,,,,,,,a,Correct!,0,67,67,101,1,t4.png,t5.png,1,0.90025,19,Female,2020-09-16_14h03.22.553,torte-2b,2020.1.3,Win32,60,13280,1.643335,,,,,,,,,,,,,,,,,,,,,,,,,,,,,,,,,,,,,,,,,,,,,,,,,,,,,,,,,,,,,,,,,
,,,,,,,,,,,,a,Correct!,0,68,68,45,1,t3.png,t2.png,1,0.90855,19,Female,2020-09-16_14h03.22.553,torte-2b,2020.1.3,Win32,60,13280,1.44994,,,,,,,,,,,,,,,,,,,,,,,,,,,,,,,,,,,,,,,,,,,,,,,,,,,,,,,,,,,,,,,,,
,,,,,,,,,,,,l,Correct!,0,69,69,93,1,t2.png,t4.png,2,0.059078,19,Female,2020-09-16_14h03.22.553,torte-2b,2020.1.3,Win32,60,13280,1.188925,,,,,,,,,,,,,,,,,,,,,,,,,,,,,,,,,,,,,,,,,,,,,,,,,,,,,,,,,,,,,,,,,
,,,,,,,,,,,,l,Correct!,0,70,70,60,1,t2.png,t4.png,2,0.059078,19,Female,2020-09-16_14h03.22.553,torte-2b,2020.1.3,Win32,60,13280,1.255275,,,,,,,,,,,,,,,,,,,,,,,,,,,,,,,,,,,,,,,,,,,,,,,,,,,,,,,,,,,,,,,,,
,,,,,,,,,,,,l,Correct!,0,71,71,86,1,t3.png,t1.png,2,0.056466,19,Female,2020-09-16_14h03.22.553,torte-2b,2020.1.3,Win32,60,13280,1.415245,,,,,,,,,,,,,,,,,,,,,,,,,,,,,,,,,,,,,,,,,,,,,,,,,,,,,,,,,,,,,,,,,
,,,,,,,,,,,,l,Correct!,0,72,72,38,1,t3.png,t1.png,2,0.056466,19,Female,2020-09-16_14h03.22.553,torte-2b,2020.1.3,Win32,60,13280,1.167785,,,,,,,,,,,,,,,,,,,,,,,,,,,,,,,,,,,,,,,,,,,,,,,,,,,,,,,,,,,,,,,,,
,,,,,,,,,,,,l,Correct!,0,73,73,103,1,t3.png,t1.png,2,0.056466,19,Female,2020-09-16_14h03.22.553,torte-2b,2020.1.3,Win32,60,13280,0.986865,,,,,,,,,,,,,,,,,,,,,,,,,,,,,,,,,,,,,,,,,,,,,,,,,,,,,,,,,,,,,,,,,
,,,,,,,,,,,,l,Correct!,0,74,74,102,1,t4.png,t2.png,2,0.059078,19,Female,2020-09-16_14h03.22.553,torte-2b,2020.1.3,Win32,60,13280,1.348405,,,,,,,,,,,,,,,,,,,,,,,,,,,,,,,,,,,,,,,,,,,,,,,,,,,,,,,,,,,,,,,,,
,,,,,,,,,,,,a,Correct!,0,75,75,96,1,t1.png,t1.png,0,0.97829,19,Female,2020-09-16_14h03.22.553,torte-2b,2020.1.3,Win32,60,13280,1.11728,,,,,,,,,,,,,,,,,,,,,,,,,,,,,,,,,,,,,,,,,,,,,,,,,,,,,,,,,,,,,,,,,
,,,,,,,,,,,,l,Correct!,0,76,76,56,1,t5.png,t1.png,4,9.55E-11,19,Female,2020-09-16_14h03.22.553,torte-2b,2020.1.3,Win32,60,13280,1.498375,,,,,,,,,,,,,,,,,,,,,,,,,,,,,,,,,,,,,,,,,,,,,,,,,,,,,,,,,,,,,,,,,
,,,,,,,,,,,,l,Correct!,0,77,77,108,1,t5.png,t1.png,4,9.55E-11,19,Female,2020-09-16_14h03.22.553,torte-2b,2020.1.3,Win32,60,13280,1.200635,,,,,,,,,,,,,,,,,,,,,,,,,,,,,,,,,,,,,,,,,,,,,,,,,,,,,,,,,,,,,,,,,
,,,,,,,,,,,,l,Correct!,0,78,78,119,1,t1.png,t5.png,4,9.55E-11,19,Female,2020-09-16_14h03.22.553,torte-2b,2020.1.3,Win32,60,13280,1.174835,,,,,,,,,,,,,,,,,,,,,,,,,,,,,,,,,,,,,,,,,,,,,,,,,,,,,,,,,,,,,,,,,
,,,,,,,,,,,,a,Correct!,0,79,79,118,1,t5.png,t5.png,0,0.978,19,Female,2020-09-16_14h03.22.553,torte-2b,2020.1.3,Win32,60,13280,1.366645,,,,,,,,,,,,,,,,,,,,,,,,,,,,,,,,,,,,,,,,,,,,,,,,,,,,,,,,,,,,,,,,,
,,,,,,,,,,,,a,Correct!,0,80,80,114,1,t2.png,t3.png,1,0.90855,19,Female,2020-09-16_14h03.22.553,torte-2b,2020.1.3,Win32,60,13280,1.43381,,,,,,,,,,,,,,,,,,,,,,,,,,,,,,,,,,,,,,,,,,,,,,,,,,,,,,,,,,,,,,,,,
,,,,,,,,,,,,l,Correct!,0,81,81,67,1,t1.png,t5.png,4,9.55E-11,19,Female,2020-09-16_14h03.22.553,torte-2b,2020.1.3,Win32,60,13280,1.18457,,,,,,,,,,,,,,,,,,,,,,,,,,,,,,,,,,,,,,,,,,,,,,,,,,,,,,,,,,,,,,,,,
,,,,,,,,,,,,a,Correct!,0,82,82,92,1,t2.png,t3.png,1,0.909,19,Female,2020-09-16_14h03.22.553,torte-2b,2020.1.3,Win32,60,13280,1.42157,,,,,,,,,,,,,,,,,,,,,,,,,,,,,,,,,,,,,,,,,,,,,,,,,,,,,,,,,,,,,,,,,
,,,,,,,,,,,,l,Correct!,0,83,83,27,1,t3.png,t1.png,2,0.0565,19,Female,2020-09-16_14h03.22.553,torte-2b,2020.1.3,Win32,60,13280,1.13653,,,,,,,,,,,,,,,,,,,,,,,,,,,,,,,,,,,,,,,,,,,,,,,,,,,,,,,,,,,,,,,,,
,,,,,,,,,,,,l,Correct!,0,84,84,69,1,t4.png,t2.png,2,0.059078,19,Female,2020-09-16_14h03.22.553,torte-2b,2020.1.3,Win32,60,13280,1.93102,,,,,,,,,,,,,,,,,,,,,,,,,,,,,,,,,,,,,,,,,,,,,,,,,,,,,,,,,,,,,,,,,
,,,,,,,,,,,,l,Correct!,0,85,85,0,1,t5.png,t1.png,4,9.55E-11,19,Female,2020-09-16_14h03.22.553,torte-2b,2020.1.3,Win32,60,13280,1.15566,,,,,,,,,,,,,,,,,,,,,,,,,,,,,,,,,,,,,,,,,,,,,,,,,,,,,,,,,,,,,,,,,
,,,,,,,,,,,,l,Correct!,0,86,86,50,1,t5.png,t1.png,4,9.55E-11,19,Female,2020-09-16_14h03.22.553,torte-2b,2020.1.3,Win32,60,13280,0.96087,,,,,,,,,,,,,,,,,,,,,,,,,,,,,,,,,,,,,,,,,,,,,,,,,,,,,,,,,,,,,,,,,
,,,,,,,,,,,,l,Correct!,0,87,87,12,1,t5.png,t1.png,4,9.55E-11,19,Female,2020-09-16_14h03.22.553,torte-2b,2020.1.3,Win32,60,13280,0.784765,,,,,,,,,,,,,,,,,,,,,,,,,,,,,,,,,,,,,,,,,,,,,,,,,,,,,,,,,,,,,,,,,
,,,,,,,,,,,,a,Correct!,0,88,88,48,1,t5.png,t5.png,0,0.97829,19,Female,2020-09-16_14h03.22.553,torte-2b,2020.1.3,Win32,60,13280,1.246255,,,,,,,,,,,,,,,,,,,,,,,,,,,,,,,,,,,,,,,,,,,,,,,,,,,,,,,,,,,,,,,,,
,,,,,,,,,,,,a,Correct!,0,89,89,107,1,t1.png,t1.png,0,0.978,19,Female,2020-09-16_14h03.22.553,torte-2b,2020.1.3,Win32,60,13280,1.302365,,,,,,,,,,,,,,,,,,,,,,,,,,,,,,,,,,,,,,,,,,,,,,,,,,,,,,,,,,,,,,,,,
,,,,,,,,,,,,a,Incorrect,0,90,90,34,1,t5.png,t4.png,1,0.9,19,Female,2020-09-16_14h03.22.553,torte-2b,2020.1.3,Win32,60,13280,1.136925,,,,,,,,,,,,,,,,,,,,,,,,,,,,,,,,,,,,,,,,,,,,,,,,,,,,,,,,,,,,,,,,,
,,,,,,,,,,,,a,Correct!,0,91,91,112,1,t1.png,t1.png,0,0.97829,19,Female,2020-09-16_14h03.22.553,torte-2b,2020.1.3,Win32,60,13280,1.03489,,,,,,,,,,,,,,,,,,,,,,,,,,,,,,,,,,,,,,,,,,,,,,,,,,,,,,,,,,,,,,,,,
,,,,,,,,,,,,l,Correct!,0,92,92,30,1,t3.png,t1.png,2,0.056466,19,Female,2020-09-16_14h03.22.553,torte-2b,2020.1.3,Win32,60,13280,1.107615,,,,,,,,,,,,,,,,,,,,,,,,,,,,,,,,,,,,,,,,,,,,,,,,,,,,,,,,,,,,,,,,,
,,,,,,,,,,,,a,Correct!,0,93,93,70,1,t5.png,t5.png,0,0.978,19,Female,2020-09-16_14h03.22.553,torte-2b,2020.1.3,Win32,60,13280,1.26092,,,,,,,,,,,,,,,,,,,,,,,,,,,,,,,,,,,,,,,,,,,,,,,,,,,,,,,,,,,,,,,,,
,,,,,,,,,,,,a,Correct!,0,94,94,95,1,t1.png,t1.png,0,0.978,19,Female,2020-09-16_14h03.22.553,torte-2b,2020.1.3,Win32,60,13280,1.20042,,,,,,,,,,,,,,,,,,,,,,,,,,,,,,,,,,,,,,,,,,,,,,,,,,,,,,,,,,,,,,,,,
,,,,,,,,,,,,l,Correct!,0,95,95,36,1,t3.png,t1.png,2,0.0565,19,Female,2020-09-16_14h03.22.553,torte-2b,2020.1.3,Win32,60,13280,1.138635,,,,,,,,,,,,,,,,,,,,,,,,,,,,,,,,,,,,,,,,,,,,,,,,,,,,,,,,,,,,,,,,,
,,,,,,,,,,,,l,Correct!,0,96,96,61,1,t1.png,t4.png,3,0.0000131,19,Female,2020-09-16_14h03.22.553,torte-2b,2020.1.3,Win32,60,13280,1.41776,,,,,,,,,,,,,,,,,,,,,,,,,,,,,,,,,,,,,,,,,,,,,,,,,,,,,,,,,,,,,,,,,
,,,,,,,,,,,,l,Correct!,0,97,97,68,1,t1.png,t4.png,3,0.0000131,19,Female,2020-09-16_14h03.22.553,torte-2b,2020.1.3,Win32,60,13280,1.10766,,,,,,,,,,,,,,,,,,,,,,,,,,,,,,,,,,,,,,,,,,,,,,,,,,,,,,,,,,,,,,,,,
,,,,,,,,,,,,a,Correct!,0,98,98,49,1,t4.png,t5.png,1,0.9,19,Female,2020-09-16_14h03.22.553,torte-2b,2020.1.3,Win32,60,13280,0.9007,,,,,,,,,,,,,,,,,,,,,,,,,,,,,,,,,,,,,,,,,,,,,,,,,,,,,,,,,,,,,,,,,
,,,,,,,,,,,,l,Correct!,0,99,99,88,1,t3.png,t1.png,2,0.056466,19,Female,2020-09-16_14h03.22.553,torte-2b,2020.1.3,Win32,60,13280,1.371285,,,,,,,,,,,,,,,,,,,,,,,,,,,,,,,,,,,,,,,,,,,,,,,,,,,,,,,,,,,,,,,,,
,,,,,,,,,,,,l,Correct!,0,100,100,19,1,t4.png,t2.png,2,0.059078,19,Female,2020-09-16_14h03.22.553,torte-2b,2020.1.3,Win32,60,13280,1.35643,,,,,,,,,,,,,,,,,,,,,,,,,,,,,,,,,,,,,,,,,,,,,,,,,,,,,,,,,,,,,,,,,
,,,,,,,,,,,,l,Correct!,0,101,101,82,1,t5.png,t1.png,4,9.55E-11,19,Female,2020-09-16_14h03.22.553,torte-2b,2020.1.3,Win32,60,13280,0.98482,,,,,,,,,,,,,,,,,,,,,,,,,,,,,,,,,,,,,,,,,,,,,,,,,,,,,,,,,,,,,,,,,
,,,,,,,,,,,,a,Correct!,0,102,102,63,1,t2.png,t3.png,1,0.909,19,Female,2020-09-16_14h03.22.553,torte-2b,2020.1.3,Win32,60,13280,1.720755,,,,,,,,,,,,,,,,,,,,,,,,,,,,,,,,,,,,,,,,,,,,,,,,,,,,,,,,,,,,,,,,,
,,,,,,,,,,,,l,Correct!,0,103,103,83,1,t3.png,t1.png,2,0.056466,19,Female,2020-09-16_14h03.22.553,torte-2b,2020.1.3,Win32,60,13280,0.84005,,,,,,,,,,,,,,,,,,,,,,,,,,,,,,,,,,,,,,,,,,,,,,,,,,,,,,,,,,,,,,,,,
,,,,,,,,,,,,a,Correct!,0,104,104,44,1,t2.png,t3.png,1,0.909,19,Female,2020-09-16_14h03.22.553,torte-2b,2020.1.3,Win32,60,13280,2.149305,,,,,,,,,,,,,,,,,,,,,,,,,,,,,,,,,,,,,,,,,,,,,,,,,,,,,,,,,,,,,,,,,
,,,,,,,,,,,,a,Correct!,0,105,105,15,1,t3.png,t2.png,1,0.90855,19,Female,2020-09-16_14h03.22.553,torte-2b,2020.1.3,Win32,60,13280,0.7513,,,,,,,,,,,,,,,,,,,,,,,,,,,,,,,,,,,,,,,,,,,,,,,,,,,,,,,,,,,,,,,,,
,,,,,,,,,,,,l,Correct!,0,106,106,80,1,t1.png,t4.png,3,0.0000131,19,Female,2020-09-16_14h03.22.553,torte-2b,2020.1.3,Win32,60,13280,1.29975,,,,,,,,,,,,,,,,,,,,,,,,,,,,,,,,,,,,,,,,,,,,,,,,,,,,,,,,,,,,,,,,,
,,,,,,,,,,,,a,Correct!,0,107,107,8,1,t3.png,t2.png,1,0.90855,19,Female,2020-09-16_14h03.22.553,torte-2b,2020.1.3,Win32,60,13280,1.04121,,,,,,,,,,,,,,,,,,,,,,,,,,,,,,,,,,,,,,,,,,,,,,,,,,,,,,,,,,,,,,,,,
,,,,,,,,,,,,a,Correct!,0,108,108,23,1,t5.png,t4.png,1,0.90025,19,Female,2020-09-16_14h03.22.553,torte-2b,2020.1.3,Win32,60,13280,1.52485,,,,,,,,,,,,,,,,,,,,,,,,,,,,,,,,,,,,,,,,,,,,,,,,,,,,,,,,,,,,,,,,,
,,,,,,,,,,,,l,Correct!,0,109,109,43,1,t4.png,t2.png,2,0.059078,19,Female,2020-09-16_14h03.22.553,torte-2b,2020.1.3,Win32,60,13280,1.372885,,,,,,,,,,,,,,,,,,,,,,,,,,,,,,,,,,,,,,,,,,,,,,,,,,,,,,,,,,,,,,,,,
,,,,,,,,,,,,a,Correct!,0,110,110,77,1,t1.png,t1.png,0,0.97829,19,Female,2020-09-16_14h03.22.553,torte-2b,2020.1.3,Win32,60,13280,0.741745,,,,,,,,,,,,,,,,,,,,,,,,,,,,,,,,,,,,,,,,,,,,,,,,,,,,,,,,,,,,,,,,,
,,,,,,,,,,,,a,Correct!,0,111,111,18,1,t4.png,t5.png,1,0.90025,19,Female,2020-09-16_14h03.22.553,torte-2b,2020.1.3,Win32,60,13280,1.55058,,,,,,,,,,,,,,,,,,,,,,,,,,,,,,,,,,,,,,,,,,,,,,,,,,,,,,,,,,,,,,,,,
,,,,,,,,,,,,a,Correct!,0,112,112,97,1,t5.png,t5.png,0,0.97829,19,Female,2020-09-16_14h03.22.553,torte-2b,2020.1.3,Win32,60,13280,0.625255,,,,,,,,,,,,,,,,,,,,,,,,,,,,,,,,,,,,,,,,,,,,,,,,,,,,,,,,,,,,,,,,,
,,,,,,,,,,,,l,Correct!,0,113,113,11,1,t1.png,t4.png,3,0.0000131,19,Female,2020-09-16_14h03.22.553,torte-2b,2020.1.3,Win32,60,13280,0.819605,,,,,,,,,,,,,,,,,,,,,,,,,,,,,,,,,,,,,,,,,,,,,,,,,,,,,,,,,,,,,,,,,
,,,,,,,,,,,,a,Correct!,0,114,114,75,1,t1.png,t1.png,0,0.97829,19,Female,2020-09-16_14h03.22.553,torte-2b,2020.1.3,Win32,60,13280,0.573855,,,,,,,,,,,,,,,,,,,,,,,,,,,,,,,,,,,,,,,,,,,,,,,,,,,,,,,,,,,,,,,,,
,,,,,,,,,,,,a,Incorrect,0,115,115,76,1,t3.png,t2.png,1,0.90855,19,Female,2020-09-16_14h03.22.553,torte-2b,2020.1.3,Win32,60,13280,0.867305,,,,,,,,,,,,,,,,,,,,,,,,,,,,,,,,,,,,,,,,,,,,,,,,,,,,,,,,,,,,,,,,,
,,,,,,,,,,,,a,Correct!,0,116,116,9,1,t4.png,t5.png,1,0.9,19,Female,2020-09-16_14h03.22.553,torte-2b,2020.1.3,Win32,60,13280,0.926475,,,,,,,,,,,,,,,,,,,,,,,,,,,,,,,,,,,,,,,,,,,,,,,,,,,,,,,,,,,,,,,,,
,,,,,,,,,,,,a,Correct!,0,117,117,106,1,t2.png,t3.png,1,0.90855,19,Female,2020-09-16_14h03.22.553,torte-2b,2020.1.3,Win32,60,13280,1.112885,,,,,,,,,,,,,,,,,,,,,,,,,,,,,,,,,,,,,,,,,,,,,,,,,,,,,,,,,,,,,,,,,
,,,,,,,,,,,,a,Correct!,0,118,118,64,1,t1.png,t1.png,0,0.978,19,Female,2020-09-16_14h03.22.553,torte-2b,2020.1.3,Win32,60,13280,0.687445,,,,,,,,,,,,,,,,,,,,,,,,,,,,,,,,,,,,,,,,,,,,,,,,,,,,,,,,,,,,,,,,,
,,,,,,,,,,,,l,Correct!,0,119,119,31,1,t1.png,t5.png,4,9.55E-11,19,Female,2020-09-16_14h03.22.553,torte-2b,2020.1.3,Win32,60,13280,0.937845,,,,,,,,,,,,,,,,,,,,,,,,,,,,,,,,,,,,,,,,,,,,,,,,,,,,,,,,,,,,,,,,,
,,,,,,,,,,,,l,Incorrect,,,,,,t5.png,t4.png,1,0.90025,19,Female,2020-09-16_14h03.22.553,torte-2b,2020.1.3,Win32,60,13280,1.532285,space,1.741775,space,10.59045,0,0,0,34,1,,,,,,,,,,,,,,,,,,,,,,,,,,,,,,,,,,,,,,,,,,,,,,,,,,,,,,,,
,,,,,,,,,,,,l,Correct!,,,,,,t2.png,t4.png,2,0.0591,19,Female,2020-09-16_14h03.22.553,torte-2b,2020.1.3,Win32,60,13280,1.092765,,,,,0,1,1,15,1,,,,,,,,,,,,,,,,,,,,,,,,,,,,,,,,,,,,,,,,,,,,,,,,,,,,,,,,
,,,,,,,,,,,,l,Correct!,,,,,,t5.png,t2.png,3,0.0000131,19,Female,2020-09-16_14h03.22.553,torte-2b,2020.1.3,Win32,60,13280,1.13973,,,,,0,2,2,119,1,,,,,,,,,,,,,,,,,,,,,,,,,,,,,,,,,,,,,,,,,,,,,,,,,,,,,,,,
,,,,,,,,,,,,a,Correct!,,,,,,t2.png,t2.png,0,0.98115,19,Female,2020-09-16_14h03.22.553,torte-2b,2020.1.3,Win32,60,13280,0.80253,,,,,0,3,3,7,1,,,,,,,,,,,,,,,,,,,,,,,,,,,,,,,,,,,,,,,,,,,,,,,,,,,,,,,,
,,,,,,,,,,,,a,Correct!,,,,,,t3.png,t4.png,1,0.909,19,Female,2020-09-16_14h03.22.553,torte-2b,2020.1.3,Win32,60,13280,1.467525,,,,,0,4,4,106,1,,,,,,,,,,,,,,,,,,,,,,,,,,,,,,,,,,,,,,,,,,,,,,,,,,,,,,,,
,,,,,,,,,,,,a,Correct!,,,,,,t5.png,t4.png,1,0.90025,19,Female,2020-09-16_14h03.22.553,torte-2b,2020.1.3,Win32,60,13280,1.185205,,,,,0,5,5,26,1,,,,,,,,,,,,,,,,,,,,,,,,,,,,,,,,,,,,,,,,,,,,,,,,,,,,,,,,
,,,,,,,,,,,,a,Correct!,,,,,,t4.png,t3.png,1,0.909,19,Female,2020-09-16_14h03.22.553,torte-2b,2020.1.3,Win32,60,13280,1.086635,,,,,0,6,6,46,1,,,,,,,,,,,,,,,,,,,,,,,,,,,,,,,,,,,,,,,,,,,,,,,,,,,,,,,,
,,,,,,,,,,,,l,Correct!,,,,,,t5.png,t2.png,3,0.0000131,19,Female,2020-09-16_14h03.22.553,torte-2b,2020.1.3,Win32,60,13280,0.90125,,,,,0,7,7,51,1,,,,,,,,,,,,,,,,,,,,,,,,,,,,,,,,,,,,,,,,,,,,,,,,,,,,,,,,
,,,,,,,,,,,,l,Correct!,,,,,,t4.png,t2.png,2,0.0591,19,Female,2020-09-16_14h03.22.553,torte-2b,2020.1.3,Win32,60,13280,1.42928,,,,,0,8,8,36,1,,,,,,,,,,,,,,,,,,,,,,,,,,,,,,,,,,,,,,,,,,,,,,,,,,,,,,,,
,,,,,,,,,,,,l,Correct!,,,,,,t1.png,t3.png,2,0.056466,19,Female,2020-09-16_14h03.22.553,torte-2b,2020.1.3,Win32,60,13280,1.21079,,,,,0,9,9,60,1,,,,,,,,,,,,,,,,,,,,,,,,,,,,,,,,,,,,,,,,,,,,,,,,,,,,,,,,
,,,,,,,,,,,,l,Correct!,,,,,,t3.png,t1.png,2,0.056466,19,Female,2020-09-16_14h03.22.553,torte-2b,2020.1.3,Win32,60,13280,1.51622,,,,,0,10,10,32,1,,,,,,,,,,,,,,,,,,,,,,,,,,,,,,,,,,,,,,,,,,,,,,,,,,,,,,,,
,,,,,,,,,,,,l,Correct!,,,,,,t4.png,t2.png,2,0.059078,19,Female,2020-09-16_14h03.22.553,torte-2b,2020.1.3,Win32,60,13280,1.088675,,,,,0,11,11,88,1,,,,,,,,,,,,,,,,,,,,,,,,,,,,,,,,,,,,,,,,,,,,,,,,,,,,,,,,
,,,,,,,,,,,,l,Correct!,,,,,,t2.png,t5.png,3,0.0000131,19,Female,2020-09-16_14h03.22.553,torte-2b,2020.1.3,Win32,60,13280,0.9231,,,,,0,12,12,95,1,,,,,,,,,,,,,,,,,,,,,,,,,,,,,,,,,,,,,,,,,,,,,,,,,,,,,,,,
,,,,,,,,,,,,a,Correct!,,,,,,t2.png,t2.png,0,0.98115,19,Female,2020-09-16_14h03.22.553,torte-2b,2020.1.3,Win32,60,13280,0.738885,,,,,0,13,13,59,1,,,,,,,,,,,,,,,,,,,,,,,,,,,,,,,,,,,,,,,,,,,,,,,,,,,,,,,,
,,,,,,,,,,,,a,Correct!,,,,,,t1.png,t2.png,1,0.90025,19,Female,2020-09-16_14h03.22.553,torte-2b,2020.1.3,Win32,60,13280,1.279485,,,,,0,14,14,112,1,,,,,,,,,,,,,,,,,,,,,,,,,,,,,,,,,,,,,,,,,,,,,,,,,,,,,,,,
,,,,,,,,,,,,a,Correct!,,,,,,t4.png,t5.png,1,0.90025,19,Female,2020-09-16_14h03.22.553,torte-2b,2020.1.3,Win32,60,13280,1.05513,,,,,0,15,15,113,1,,,,,,,,,,,,,,,,,,,,,,,,,,,,,,,,,,,,,,,,,,,,,,,,,,,,,,,,
,,,,,,,,,,,,l,Correct!,,,,,,t5.png,t2.png,3,0.0000131,19,Female,2020-09-16_14h03.22.553,torte-2b,2020.1.3,Win32,60,13280,0.84584,,,,,0,16,16,91,1,,,,,,,,,,,,,,,,,,,,,,,,,,,,,,,,,,,,,,,,,,,,,,,,,,,,,,,,
,,,,,,,,,,,,a,Incorrect,,,,,,t2.png,t1.png,1,0.90025,19,Female,2020-09-16_14h03.22.553,torte-2b,2020.1.3,Win32,60,13280,1.347045,,,,,0,17,17,5,1,,,,,,,,,,,,,,,,,,,,,,,,,,,,,,,,,,,,,,,,,,,,,,,,,,,,,,,,
,,,,,,,,,,,,l,Correct!,,,,,,t1.png,t3.png,2,0.056466,19,Female,2020-09-16_14h03.22.553,torte-2b,2020.1.3,Win32,60,13280,1.04581,,,,,0,18,18,69,1,,,,,,,,,,,,,,,,,,,,,,,,,,,,,,,,,,,,,,,,,,,,,,,,,,,,,,,,
,,,,,,,,,,,,l,Correct!,,,,,,t5.png,t3.png,2,0.056466,19,Female,2020-09-16_14h03.22.553,torte-2b,2020.1.3,Win32,60,13280,1.802415,,,,,0,19,19,108,1,,,,,,,,,,,,,,,,,,,,,,,,,,,,,,,,,,,,,,,,,,,,,,,,,,,,,,,,
,,,,,,,,,,,,a,Correct!,,,,,,t4.png,t3.png,1,0.909,19,Female,2020-09-16_14h03.22.553,torte-2b,2020.1.3,Win32,60,13280,1.131155,,,,,0,20,20,20,1,,,,,,,,,,,,,,,,,,,,,,,,,,,,,,,,,,,,,,,,,,,,,,,,,,,,,,,,
,,,,,,,,,,,,a,Correct!,,,,,,t1.png,t1.png,0,0.978,19,Female,2020-09-16_14h03.22.553,torte-2b,2020.1.3,Win32,60,13280,0.84725,,,,,0,21,21,28,1,,,,,,,,,,,,,,,,,,,,,,,,,,,,,,,,,,,,,,,,,,,,,,,,,,,,,,,,
,,,,,,,,,,,,a,Correct!,,,,,,t2.png,t1.png,1,0.9,19,Female,2020-09-16_14h03.22.553,torte-2b,2020.1.3,Win32,60,13280,1.20739,,,,,0,22,22,118,1,,,,,,,,,,,,,,,,,,,,,,,,,,,,,,,,,,,,,,,,,,,,,,,,,,,,,,,,
,,,,,,,,,,,,l,Correct!,,,,,,t3.png,t1.png,2,0.056466,19,Female,2020-09-16_14h03.22.553,torte-2b,2020.1.3,Win32,60,13280,0.777865,,,,,0,23,23,64,1,,,,,,,,,,,,,,,,,,,,,,,,,,,,,,,,,,,,,,,,,,,,,,,,,,,,,,,,
,,,,,,,,,,,,l,Correct!,,,,,,t4.png,t2.png,2,0.059078,19,Female,2020-09-16_14h03.22.553,torte-2b,2020.1.3,Win32,60,13280,0.909665,,,,,0,24,24,109,1,,,,,,,,,,,,,,,,,,,,,,,,,,,,,,,,,,,,,,,,,,,,,,,,,,,,,,,,
,,,,,,,,,,,,a,Correct!,,,,,,t5.png,t4.png,1,0.9,19,Female,2020-09-16_14h03.22.553,torte-2b,2020.1.3,Win32,60,13280,1.615735,,,,,0,25,25,49,1,,,,,,,,,,,,,,,,,,,,,,,,,,,,,,,,,,,,,,,,,,,,,,,,,,,,,,,,
,,,,,,,,,,,,a,Correct!,,,,,,t5.png,t5.png,0,0.978,19,Female,2020-09-16_14h03.22.553,torte-2b,2020.1.3,Win32,60,13280,0.982505,,,,,0,26,26,117,1,,,,,,,,,,,,,,,,,,,,,,,,,,,,,,,,,,,,,,,,,,,,,,,,,,,,,,,,
,,,,,,,,,,,,l,Correct!,,,,,,t3.png,t5.png,2,0.056466,19,Female,2020-09-16_14h03.22.553,torte-2b,2020.1.3,Win32,60,13280,1.176955,,,,,0,27,27,14,1,,,,,,,,,,,,,,,,,,,,,,,,,,,,,,,,,,,,,,,,,,,,,,,,,,,,,,,,
,,,,,,,,,,,,a,Correct!,,,,,,t1.png,t1.png,0,0.97829,19,Female,2020-09-16_14h03.22.553,torte-2b,2020.1.3,Win32,60,13280,1.002515,,,,,0,28,28,78,1,,,,,,,,,,,,,,,,,,,,,,,,,,,,,,,,,,,,,,,,,,,,,,,,,,,,,,,,
,,,,,,,,,,,,a,Correct!,,,,,,t4.png,t5.png,1,0.9,19,Female,2020-09-16_14h03.22.553,torte-2b,2020.1.3,Win32,60,13280,1.532855,,,,,0,29,29,115,1,,,,,,,,,,,,,,,,,,,,,,,,,,,,,,,,,,,,,,,,,,,,,,,,,,,,,,,,
,,,,,,,,,,,,l,Correct!,,,,,,t1.png,t3.png,2,0.056466,19,Female,2020-09-16_14h03.22.553,torte-2b,2020.1.3,Win32,60,13280,0.935895,,,,,0,30,30,63,1,,,,,,,,,,,,,,,,,,,,,,,,,,,,,,,,,,,,,,,,,,,,,,,,,,,,,,,,
,,,,,,,,,,,,l,Correct!,,,,,,t2.png,t5.png,3,0.0000131,19,Female,2020-09-16_14h03.22.553,torte-2b,2020.1.3,Win32,60,13280,0.999625,,,,,0,31,31,104,1,,,,,,,,,,,,,,,,,,,,,,,,,,,,,,,,,,,,,,,,,,,,,,,,,,,,,,,,
,,,,,,,,,,,,a,Correct!,,,,,,t4.png,t4.png,0,0.98115,19,Female,2020-09-16_14h03.22.553,torte-2b,2020.1.3,Win32,60,13280,1.18249,,,,,0,32,32,90,1,,,,,,,,,,,,,,,,,,,,,,,,,,,,,,,,,,,,,,,,,,,,,,,,,,,,,,,,
,,,,,,,,,,,,a,Correct!,,,,,,t4.png,t5.png,1,0.90025,19,Female,2020-09-16_14h03.22.553,torte-2b,2020.1.3,Win32,60,13280,1.138585,,,,,0,33,33,58,1,,,,,,,,,,,,,,,,,,,,,,,,,,,,,,,,,,,,,,,,,,,,,,,,,,,,,,,,
,,,,,,,,,,,,l,Correct!,,,,,,t5.png,t2.png,3,0.0000131,19,Female,2020-09-16_14h03.22.553,torte-2b,2020.1.3,Win32,60,13280,1.090855,,,,,0,34,34,116,1,,,,,,,,,,,,,,,,,,,,,,,,,,,,,,,,,,,,,,,,,,,,,,,,,,,,,,,,
,,,,,,,,,,,,a,Correct!,,,,,,t3.png,t4.png,1,0.90855,19,Female,2020-09-16_14h03.22.553,torte-2b,2020.1.3,Win32,60,13280,1.60264,,,,,0,35,35,84,1,,,,,,,,,,,,,,,,,,,,,,,,,,,,,,,,,,,,,,,,,,,,,,,,,,,,,,,,
,,,,,,,,,,,,a,Correct!,,,,,,t5.png,t5.png,0,0.97829,19,Female,2020-09-16_14h03.22.553,torte-2b,2020.1.3,Win32,60,13280,0.699745,,,,,0,36,36,73,1,,,,,,,,,,,,,,,,,,,,,,,,,,,,,,,,,,,,,,,,,,,,,,,,,,,,,,,,
,,,,,,,,,,,,a,Correct!,,,,,,t4.png,t4.png,0,0.98115,19,Female,2020-09-16_14h03.22.553,torte-2b,2020.1.3,Win32,60,13280,1.847115,,,,,0,37,37,21,1,,,,,,,,,,,,,,,,,,,,,,,,,,,,,,,,,,,,,,,,,,,,,,,,,,,,,,,,
,,,,,,,,,,,,a,Correct!,,,,,,t1.png,t2.png,1,0.90025,19,Female,2020-09-16_14h03.22.553,torte-2b,2020.1.3,Win32,60,13280,1.21937,,,,,0,38,38,33,1,,,,,,,,,,,,,,,,,,,,,,,,,,,,,,,,,,,,,,,,,,,,,,,,,,,,,,,,
,,,,,,,,,,,,a,Correct!,,,,,,t5.png,t5.png,0,0.97829,19,Female,2020-09-16_14h03.22.553,torte-2b,2020.1.3,Win32,60,13280,0.840255,,,,,0,39,39,94,1,,,,,,,,,,,,,,,,,,,,,,,,,,,,,,,,,,,,,,,,,,,,,,,,,,,,,,,,
,,,,,,,,,,,,l,Correct!,,,,,,t3.png,t5.png,2,0.056466,19,Female,2020-09-16_14h03.22.553,torte-2b,2020.1.3,Win32,60,13280,1.26011,,,,,0,40,40,44,1,,,,,,,,,,,,,,,,,,,,,,,,,,,,,,,,,,,,,,,,,,,,,,,,,,,,,,,,
,,,,,,,,,,,,a,Correct!,,,,,,t4.png,t3.png,1,0.90855,19,Female,2020-09-16_14h03.22.553,torte-2b,2020.1.3,Win32,60,13280,1.20915,,,,,0,41,41,75,1,,,,,,,,,,,,,,,,,,,,,,,,,,,,,,,,,,,,,,,,,,,,,,,,,,,,,,,,
,,,,,,,,,,,,l,Correct!,,,,,,t4.png,t1.png,3,0.0000131,19,Female,2020-09-16_14h03.22.553,torte-2b,2020.1.3,Win32,60,13280,1.198975,,,,,0,42,42,48,1,,,,,,,,,,,,,,,,,,,,,,,,,,,,,,,,,,,,,,,,,,,,,,,,,,,,,,,,
,,,,,,,,,,,,a,Correct!,,,,,,t2.png,t3.png,1,0.90855,19,Female,2020-09-16_14h03.22.553,torte-2b,2020.1.3,Win32,60,13280,1.165705,,,,,0,43,43,68,1,,,,,,,,,,,,,,,,,,,,,,,,,,,,,,,,,,,,,,,,,,,,,,,,,,,,,,,,
,,,,,,,,,,,,a,Correct!,,,,,,t1.png,t2.png,1,0.9,19,Female,2020-09-16_14h03.22.553,torte-2b,2020.1.3,Win32,60,13280,1.315935,,,,,0,44,44,1,1,,,,,,,,,,,,,,,,,,,,,,,,,,,,,,,,,,,,,,,,,,,,,,,,,,,,,,,,
,,,,,,,,,,,,l,Incorrect,,,,,,t5.png,t3.png,2,0.0565,19,Female,2020-09-16_14h03.22.553,torte-2b,2020.1.3,Win32,60,13280,1.282335,,,,,0,45,45,39,1,,,,,,,,,,,,,,,,,,,,,,,,,,,,,,,,,,,,,,,,,,,,,,,,,,,,,,,,
,,,,,,,,,,,,l,Correct!,,,,,,t3.png,t5.png,2,0.0565,19,Female,2020-09-16_14h03.22.553,torte-2b,2020.1.3,Win32,60,13280,1.164575,,,,,0,46,46,83,1,,,,,,,,,,,,,,,,,,,,,,,,,,,,,,,,,,,,,,,,,,,,,,,,,,,,,,,,
,,,,,,,,,,,,l,Correct!,,,,,,t1.png,t5.png,4,9.55E-11,19,Female,2020-09-16_14h03.22.553,torte-2b,2020.1.3,Win32,60,13280,0.964385,,,,,0,47,47,12,1,,,,,,,,,,,,,,,,,,,,,,,,,,,,,,,,,,,,,,,,,,,,,,,,,,,,,,,,
,,,,,,,,,,,,l,Correct!,,,,,,t4.png,t2.png,2,0.059078,19,Female,2020-09-16_14h03.22.553,torte-2b,2020.1.3,Win32,60,13280,1.23424,,,,,0,48,48,86,1,,,,,,,,,,,,,,,,,,,,,,,,,,,,,,,,,,,,,,,,,,,,,,,,,,,,,,,,
,,,,,,,,,,,,l,Correct!,,,,,,t1.png,t4.png,3,0.0000131,19,Female,2020-09-16_14h03.22.553,torte-2b,2020.1.3,Win32,60,13280,0.72079,,,,,0,49,49,107,1,,,,,,,,,,,,,,,,,,,,,,,,,,,,,,,,,,,,,,,,,,,,,,,,,,,,,,,,
,,,,,,,,,,,,l,Correct!,,,,,,t4.png,t1.png,3,0.0000131,19,Female,2020-09-16_14h03.22.553,torte-2b,2020.1.3,Win32,60,13280,1.731685,,,,,0,50,50,61,1,,,,,,,,,,,,,,,,,,,,,,,,,,,,,,,,,,,,,,,,,,,,,,,,,,,,,,,,
,,,,,,,,,,,,a,Correct!,,,,,,t5.png,t5.png,0,0.97829,19,Female,2020-09-16_14h03.22.553,torte-2b,2020.1.3,Win32,60,13280,0.888655,,,,,0,51,51,25,1,,,,,,,,,,,,,,,,,,,,,,,,,,,,,,,,,,,,,,,,,,,,,,,,,,,,,,,,
,,,,,,,,,,,,a,Correct!,,,,,,t2.png,t1.png,1,0.90025,19,Female,2020-09-16_14h03.22.553,torte-2b,2020.1.3,Win32,60,13280,1.356695,,,,,0,52,52,62,1,,,,,,,,,,,,,,,,,,,,,,,,,,,,,,,,,,,,,,,,,,,,,,,,,,,,,,,,
,,,,,,,,,,,,l,Correct!,,,,,,t5.png,t1.png,4,9.55E-11,19,Female,2020-09-16_14h03.22.553,torte-2b,2020.1.3,Win32,60,13280,0.90155,,,,,0,53,53,22,1,,,,,,,,,,,,,,,,,,,,,,,,,,,,,,,,,,,,,,,,,,,,,,,,,,,,,,,,
,,,,,,,,,,,,l,Correct!,,,,,,t5.png,t1.png,4,9.55E-11,19,Female,2020-09-16_14h03.22.553,torte-2b,2020.1.3,Win32,60,13280,0.580385,,,,,0,54,54,71,1,,,,,,,,,,,,,,,,,,,,,,,,,,,,,,,,,,,,,,,,,,,,,,,,,,,,,,,,
,,,,,,,,,,,,a,Correct!,,,,,,t1.png,t1.png,0,0.97829,19,Female,2020-09-16_14h03.22.553,torte-2b,2020.1.3,Win32,60,13280,1.031375,,,,,0,55,55,9,1,,,,,,,,,,,,,,,,,,,,,,,,,,,,,,,,,,,,,,,,,,,,,,,,,,,,,,,,
,,,,,,,,,,,,l,Correct!,,,,,,t5.png,t2.png,3,0.0000131,19,Female,2020-09-16_14h03.22.553,torte-2b,2020.1.3,Win32,60,13280,0.584865,,,,,0,56,56,98,1,,,,,,,,,,,,,,,,,,,,,,,,,,,,,,,,,,,,,,,,,,,,,,,,,,,,,,,,
,,,,,,,,,,,,a,Correct!,,,,,,t4.png,t4.png,0,0.98115,19,Female,2020-09-16_14h03.22.553,torte-2b,2020.1.3,Win32,60,13280,1.26592,,,,,0,57,57,52,1,,,,,,,,,,,,,,,,,,,,,,,,,,,,,,,,,,,,,,,,,,,,,,,,,,,,,,,,
,,,,,,,,,,,,a,Correct!,,,,,,t5.png,t5.png,0,0.97829,19,Female,2020-09-16_14h03.22.553,torte-2b,2020.1.3,Win32,60,13280,1.11913,,,,,0,58,58,70,1,,,,,,,,,,,,,,,,,,,,,,,,,,,,,,,,,,,,,,,,,,,,,,,,,,,,,,,,
,,,,,,,,,,,,l,Correct!,,,,,,t5.png,t3.png,2,0.056466,19,Female,2020-09-16_14h03.22.553,torte-2b,2020.1.3,Win32,60,13280,0.91718,,,,,0,59,59,56,1,,,,,,,,,,,,,,,,,,,,,,,,,,,,,,,,,,,,,,,,,,,,,,,,,,,,,,,,
,,,,,,,,,,,,l,Correct!,,,,,,t1.png,t5.png,4,9.55E-11,19,Female,2020-09-16_14h03.22.553,torte-2b,2020.1.3,Win32,60,13280,0.860605,,,,,0,60,60,41,1,,,,,,,,,,,,,,,,,,,,,,,,,,,,,,,,,,,,,,,,,,,,,,,,,,,,,,,,
,,,,,,,,,,,,l,Correct!,,,,,,t1.png,t4.png,3,0.0000131,19,Female,2020-09-16_14h03.22.553,torte-2b,2020.1.3,Win32,60,13280,1.2335,,,,,0,61,61,81,1,,,,,,,,,,,,,,,,,,,,,,,,,,,,,,,,,,,,,,,,,,,,,,,,,,,,,,,,
,,,,,,,,,,,,l,Correct!,,,,,,t1.png,t3.png,2,0.056466,19,Female,2020-09-16_14h03.22.553,torte-2b,2020.1.3,Win32,60,13280,1.91495,,,,,0,62,62,87,1,,,,,,,,,,,,,,,,,,,,,,,,,,,,,,,,,,,,,,,,,,,,,,,,,,,,,,,,
,,,,,,,,,,,,l,Correct!,,,,,,t5.png,t3.png,2,0.056466,19,Female,2020-09-16_14h03.22.553,torte-2b,2020.1.3,Win32,60,13280,1.471375,,,,,0,63,63,114,1,,,,,,,,,,,,,,,,,,,,,,,,,,,,,,,,,,,,,,,,,,,,,,,,,,,,,,,,
,,,,,,,,,,,,a,Correct!,,,,,,t1.png,t1.png,0,0.978,19,Female,2020-09-16_14h03.22.553,torte-2b,2020.1.3,Win32,60,13280,0.81626,,,,,0,64,64,54,1,,,,,,,,,,,,,,,,,,,,,,,,,,,,,,,,,,,,,,,,,,,,,,,,,,,,,,,,
,,,,,,,,,,,,a,Correct!,,,,,,t4.png,t3.png,1,0.90855,19,Female,2020-09-16_14h03.22.553,torte-2b,2020.1.3,Win32,60,13280,1.11602,,,,,0,65,65,45,1,,,,,,,,,,,,,,,,,,,,,,,,,,,,,,,,,,,,,,,,,,,,,,,,,,,,,,,,
,,,,,,,,,,,,l,Correct!,,,,,,t1.png,t4.png,3,0.0000131,19,Female,2020-09-16_14h03.22.553,torte-2b,2020.1.3,Win32,60,13280,0.75188,,,,,0,66,66,50,1,,,,,,,,,,,,,,,,,,,,,,,,,,,,,,,,,,,,,,,,,,,,,,,,,,,,,,,,
,,,,,,,,,,,,l,Correct!,,,,,,t2.png,t4.png,2,0.059078,19,Female,2020-09-16_14h03.22.553,torte-2b,2020.1.3,Win32,60,13280,0.74062,,,,,0,67,67,24,1,,,,,,,,,,,,,,,,,,,,,,,,,,,,,,,,,,,,,,,,,,,,,,,,,,,,,,,,
,,,,,,,,,,,,l,Correct!,,,,,,t4.png,t1.png,3,0.0000131,19,Female,2020-09-16_14h03.22.553,torte-2b,2020.1.3,Win32,60,13280,1.13034,,,,,0,68,68,42,1,,,,,,,,,,,,,,,,,,,,,,,,,,,,,,,,,,,,,,,,,,,,,,,,,,,,,,,,
,,,,,,,,,,,,a,Correct!,,,,,,t1.png,t1.png,0,0.97829,19,Female,2020-09-16_14h03.22.553,torte-2b,2020.1.3,Win32,60,13280,0.833505,,,,,0,69,69,67,1,,,,,,,,,,,,,,,,,,,,,,,,,,,,,,,,,,,,,,,,,,,,,,,,,,,,,,,,
,,,,,,,,,,,,a,Incorrect,,,,,,t2.png,t1.png,1,0.90025,19,Female,2020-09-16_14h03.22.553,torte-2b,2020.1.3,Win32,60,13280,0.78851,,,,,0,70,70,19,1,,,,,,,,,,,,,,,,,,,,,,,,,,,,,,,,,,,,,,,,,,,,,,,,,,,,,,,,
,,,,,,,,,,,,a,Correct!,,,,,,t2.png,t3.png,1,0.90855,19,Female,2020-09-16_14h03.22.553,torte-2b,2020.1.3,Win32,60,13280,1.244585,,,,,0,71,71,10,1,,,,,,,,,,,,,,,,,,,,,,,,,,,,,,,,,,,,,,,,,,,,,,,,,,,,,,,,
,,,,,,,,,,,,a,Correct!,,,,,,t4.png,t5.png,1,0.90025,19,Female,2020-09-16_14h03.22.553,torte-2b,2020.1.3,Win32,60,13280,1.050725,,,,,0,72,72,103,1,,,,,,,,,,,,,,,,,,,,,,,,,,,,,,,,,,,,,,,,,,,,,,,,,,,,,,,,
,,,,,,,,,,,,a,Correct!,,,,,,t2.png,t3.png,1,0.90855,19,Female,2020-09-16_14h03.22.553,torte-2b,2020.1.3,Win32,60,13280,0.93693,,,,,0,73,73,111,1,,,,,,,,,,,,,,,,,,,,,,,,,,,,,,,,,,,,,,,,,,,,,,,,,,,,,,,,
,,,,,,,,,,,,l,Correct!,,,,,,t4.png,t2.png,2,0.059078,19,Female,2020-09-16_14h03.22.553,torte-2b,2020.1.3,Win32,60,13280,1.25337,,,,,0,74,74,110,1,,,,,,,,,,,,,,,,,,,,,,,,,,,,,,,,,,,,,,,,,,,,,,,,,,,,,,,,
,,,,,,,,,,,,l,Correct!,,,,,,t2.png,t5.png,3,0.0000131,19,Female,2020-09-16_14h03.22.553,torte-2b,2020.1.3,Win32,60,13280,0.881795,,,,,0,75,75,40,1,,,,,,,,,,,,,,,,,,,,,,,,,,,,,,,,,,,,,,,,,,,,,,,,,,,,,,,,
,,,,,,,,,,,,a,Correct!,,,,,,t4.png,t4.png,0,0.98115,19,Female,2020-09-16_14h03.22.553,torte-2b,2020.1.3,Win32,60,13280,0.94825,,,,,0,76,76,79,1,,,,,,,,,,,,,,,,,,,,,,,,,,,,,,,,,,,,,,,,,,,,,,,,,,,,,,,,
,,,,,,,,,,,,l,Correct!,,,,,,t3.png,t5.png,2,0.056466,19,Female,2020-09-16_14h03.22.553,torte-2b,2020.1.3,Win32,60,13280,1.13173,,,,,0,77,77,6,1,,,,,,,,,,,,,,,,,,,,,,,,,,,,,,,,,,,,,,,,,,,,,,,,,,,,,,,,
,,,,,,,,,,,,l,Correct!,,,,,,t5.png,t1.png,4,9.55E-11,19,Female,2020-09-16_14h03.22.553,torte-2b,2020.1.3,Win32,60,13280,1.0989,,,,,0,78,78,102,1,,,,,,,,,,,,,,,,,,,,,,,,,,,,,,,,,,,,,,,,,,,,,,,,,,,,,,,,
,,,,,,,,,,,,l,Correct!,,,,,,t1.png,t4.png,3,0.0000131,19,Female,2020-09-16_14h03.22.553,torte-2b,2020.1.3,Win32,60,13280,0.660545,,,,,0,79,79,92,1,,,,,,,,,,,,,,,,,,,,,,,,,,,,,,,,,,,,,,,,,,,,,,,,,,,,,,,,
,,,,,,,,,,,,l,Correct!,,,,,,t2.png,t4.png,2,0.059078,19,Female,2020-09-16_14h03.22.553,torte-2b,2020.1.3,Win32,60,13280,0.96628,,,,,0,80,80,77,1,,,,,,,,,,,,,,,,,,,,,,,,,,,,,,,,,,,,,,,,,,,,,,,,,,,,,,,,
,,,,,,,,,,,,l,Correct!,,,,,,t5.png,t3.png,2,0.056466,19,Female,2020-09-16_14h03.22.553,torte-2b,2020.1.3,Win32,60,13280,1.010675,,,,,0,81,81,38,1,,,,,,,,,,,,,,,,,,,,,,,,,,,,,,,,,,,,,,,,,,,,,,,,,,,,,,,,
,,,,,,,,,,,,l,Correct!,,,,,,t1.png,t5.png,4,9.55E-11,19,Female,2020-09-16_14h03.22.553,torte-2b,2020.1.3,Win32,60,13280,0.956225,,,,,0,82,82,55,1,,,,,,,,,,,,,,,,,,,,,,,,,,,,,,,,,,,,,,,,,,,,,,,,,,,,,,,,
,,,,,,,,,,,,a,Correct!,,,,,,t3.png,t4.png,1,0.909,19,Female,2020-09-16_14h03.22.553,torte-2b,2020.1.3,Win32,60,13280,1.50374,,,,,0,83,83,82,1,,,,,,,,,,,,,,,,,,,,,,,,,,,,,,,,,,,,,,,,,,,,,,,,,,,,,,,,
,,,,,,,,,,,,a,Correct!,,,,,,t3.png,t2.png,1,0.90855,19,Female,2020-09-16_14h03.22.553,torte-2b,2020.1.3,Win32,60,13280,1.348855,,,,,0,84,84,18,1,,,,,,,,,,,,,,,,,,,,,,,,,,,,,,,,,,,,,,,,,,,,,,,,,,,,,,,,
,,,,,,,,,,,,a,Correct!,,,,,,t4.png,t4.png,0,0.98115,19,Female,2020-09-16_14h03.22.553,torte-2b,2020.1.3,Win32,60,13280,0.98722,,,,,0,85,85,80,1,,,,,,,,,,,,,,,,,,,,,,,,,,,,,,,,,,,,,,,,,,,,,,,,,,,,,,,,
,,,,,,,,,,,,l,Correct!,,,,,,t4.png,t1.png,3,0.0000131,19,Female,2020-09-16_14h03.22.553,torte-2b,2020.1.3,Win32,60,13280,0.89955,,,,,0,86,86,13,1,,,,,,,,,,,,,,,,,,,,,,,,,,,,,,,,,,,,,,,,,,,,,,,,,,,,,,,,
,,,,,,,,,,,,a,Correct!,,,,,,t2.png,t2.png,0,0.98115,19,Female,2020-09-16_14h03.22.553,torte-2b,2020.1.3,Win32,60,13280,1.31561,,,,,0,87,87,2,1,,,,,,,,,,,,,,,,,,,,,,,,,,,,,,,,,,,,,,,,,,,,,,,,,,,,,,,,
,,,,,,,,,,,,l,Correct!,,,,,,t3.png,t1.png,2,0.056466,19,Female,2020-09-16_14h03.22.553,torte-2b,2020.1.3,Win32,60,13280,0.867085,,,,,0,88,88,0,1,,,,,,,,,,,,,,,,,,,,,,,,,,,,,,,,,,,,,,,,,,,,,,,,,,,,,,,,
,,,,,,,,,,,,l,Correct!,,,,,,t2.png,t5.png,3,0.0000131,19,Female,2020-09-16_14h03.22.553,torte-2b,2020.1.3,Win32,60,13280,1.232345,,,,,0,89,89,66,1,,,,,,,,,,,,,,,,,,,,,,,,,,,,,,,,,,,,,,,,,,,,,,,,,,,,,,,,
,,,,,,,,,,,,l,Correct!,,,,,,t5.png,t1.png,4,9.55E-11,19,Female,2020-09-16_14h03.22.553,torte-2b,2020.1.3,Win32,60,13280,1.166835,,,,,0,90,90,43,1,,,,,,,,,,,,,,,,,,,,,,,,,,,,,,,,,,,,,,,,,,,,,,,,,,,,,,,,
,,,,,,,,,,,,l,Correct!,,,,,,t3.png,t1.png,2,0.056466,19,Female,2020-09-16_14h03.22.553,torte-2b,2020.1.3,Win32,60,13280,0.726615,,,,,0,91,91,29,1,,,,,,,,,,,,,,,,,,,,,,,,,,,,,,,,,,,,,,,,,,,,,,,,,,,,,,,,
,,,,,,,,,,,,a,Correct!,,,,,,t1.png,t2.png,1,0.90025,19,Female,2020-09-16_14h03.22.553,torte-2b,2020.1.3,Win32,60,13280,0.89908,,,,,0,92,92,72,1,,,,,,,,,,,,,,,,,,,,,,,,,,,,,,,,,,,,,,,,,,,,,,,,,,,,,,,,
,,,,,,,,,,,,a,Correct!,,,,,,t2.png,t1.png,1,0.90025,19,Female,2020-09-16_14h03.22.553,torte-2b,2020.1.3,Win32,60,13280,1.066795,,,,,0,93,93,4,1,,,,,,,,,,,,,,,,,,,,,,,,,,,,,,,,,,,,,,,,,,,,,,,,,,,,,,,,
,,,,,,,,,,,,a,Correct!,,,,,,t3.png,t2.png,1,0.90855,19,Female,2020-09-16_14h03.22.553,torte-2b,2020.1.3,Win32,60,13280,0.784965,,,,,0,94,94,97,1,,,,,,,,,,,,,,,,,,,,,,,,,,,,,,,,,,,,,,,,,,,,,,,,,,,,,,,,
,,,,,,,,,,,,a,Correct!,,,,,,t4.png,t5.png,1,0.90025,19,Female,2020-09-16_14h03.22.553,torte-2b,2020.1.3,Win32,60,13280,1.48573,,,,,0,95,95,47,1,,,,,,,,,,,,,,,,,,,,,,,,,,,,,,,,,,,,,,,,,,,,,,,,,,,,,,,,
,,,,,,,,,,,,a,Correct!,,,,,,t2.png,t3.png,1,0.90855,19,Female,2020-09-16_14h03.22.553,torte-2b,2020.1.3,Win32,60,13280,1.255265,,,,,0,96,96,65,1,,,,,,,,,,,,,,,,,,,,,,,,,,,,,,,,,,,,,,,,,,,,,,,,,,,,,,,,
,,,,,,,,,,,,a,Correct!,,,,,,t1.png,t2.png,1,0.90025,19,Female,2020-09-16_14h03.22.553,torte-2b,2020.1.3,Win32,60,13280,1.450175,,,,,0,97,97,105,1,,,,,,,,,,,,,,,,,,,,,,,,,,,,,,,,,,,,,,,,,,,,,,,,,,,,,,,,
,,,,,,,,,,,,a,Correct!,,,,,,t4.png,t3.png,1,0.90855,19,Female,2020-09-16_14h03.22.553,torte-2b,2020.1.3,Win32,60,13280,0.901035,,,,,0,98,98,35,1,,,,,,,,,,,,,,,,,,,,,,,,,,,,,,,,,,,,,,,,,,,,,,,,,,,,,,,,
,,,,,,,,,,,,l,Correct!,,,,,,t2.png,t4.png,2,0.059078,19,Female,2020-09-16_14h03.22.553,torte-2b,2020.1.3,Win32,60,13280,0.886385,,,,,0,99,99,11,1,,,,,,,,,,,,,,,,,,,,,,,,,,,,,,,,,,,,,,,,,,,,,,,,,,,,,,,,
,,,,,,,,,,,,l,Correct!,,,,,,t2.png,t5.png,3,0.0000131,19,Female,2020-09-16_14h03.22.553,torte-2b,2020.1.3,Win32,60,13280,0.834445,,,,,0,100,100,8,1,,,,,,,,,,,,,,,,,,,,,,,,,,,,,,,,,,,,,,,,,,,,,,,,,,,,,,,,
,,,,,,,,,,,,a,Correct!,,,,,,t3.png,t4.png,1,0.90855,19,Female,2020-09-16_14h03.22.553,torte-2b,2020.1.3,Win32,60,13280,1.23384,,,,,0,101,101,96,1,,,,,,,,,,,,,,,,,,,,,,,,,,,,,,,,,,,,,,,,,,,,,,,,,,,,,,,,
,,,,,,,,,,,,l,Correct!,,,,,,t2.png,t4.png,2,0.059078,19,Female,2020-09-16_14h03.22.553,torte-2b,2020.1.3,Win32,60,13280,1.232145,,,,,0,102,102,37,1,,,,,,,,,,,,,,,,,,,,,,,,,,,,,,,,,,,,,,,,,,,,,,,,,,,,,,,,
,,,,,,,,,,,,a,Correct!,,,,,,t5.png,t4.png,1,0.9,19,Female,2020-09-16_14h03.22.553,torte-2b,2020.1.3,Win32,60,13280,1.124975,,,,,0,103,103,76,1,,,,,,,,,,,,,,,,,,,,,,,,,,,,,,,,,,,,,,,,,,,,,,,,,,,,,,,,
,,,,,,,,,,,,a,Correct!,,,,,,t5.png,t4.png,1,0.90025,19,Female,2020-09-16_14h03.22.553,torte-2b,2020.1.3,Win32,60,13280,0.87522,,,,,0,104,104,27,1,,,,,,,,,,,,,,,,,,,,,,,,,,,,,,,,,,,,,,,,,,,,,,,,,,,,,,,,
,,,,,,,,,,,,a,Correct!,,,,,,t2.png,t2.png,0,0.981,19,Female,2020-09-16_14h03.22.553,torte-2b,2020.1.3,Win32,60,13280,1.10181,,,,,0,105,105,101,1,,,,,,,,,,,,,,,,,,,,,,,,,,,,,,,,,,,,,,,,,,,,,,,,,,,,,,,,
,,,,,,,,,,,,a,Correct!,,,,,,t2.png,t2.png,0,0.98115,19,Female,2020-09-16_14h03.22.553,torte-2b,2020.1.3,Win32,60,13280,0.77927,,,,,0,106,106,57,1,,,,,,,,,,,,,,,,,,,,,,,,,,,,,,,,,,,,,,,,,,,,,,,,,,,,,,,,
,,,,,,,,,,,,l,Correct!,,,,,,t1.png,t5.png,4,9.55E-11,19,Female,2020-09-16_14h03.22.553,torte-2b,2020.1.3,Win32,60,13280,0.83151,,,,,0,107,107,85,1,,,,,,,,,,,,,,,,,,,,,,,,,,,,,,,,,,,,,,,,,,,,,,,,,,,,,,,,
,,,,,,,,,,,,a,Correct!,,,,,,t3.png,t2.png,1,0.909,19,Female,2020-09-16_14h03.22.553,torte-2b,2020.1.3,Win32,60,13280,1.21637,,,,,0,108,108,3,1,,,,,,,,,,,,,,,,,,,,,,,,,,,,,,,,,,,,,,,,,,,,,,,,,,,,,,,,
,,,,,,,,,,,,a,Correct!,,,,,,t3.png,t2.png,1,0.909,19,Female,2020-09-16_14h03.22.553,torte-2b,2020.1.3,Win32,60,13280,1.40151,,,,,0,109,109,23,1,,,,,,,,,,,,,,,,,,,,,,,,,,,,,,,,,,,,,,,,,,,,,,,,,,,,,,,,
,,,,,,,,,,,,l,Correct!,,,,,,t4.png,t1.png,3,0.0000131,19,Female,2020-09-16_14h03.22.553,torte-2b,2020.1.3,Win32,60,13280,0.781465,,,,,0,110,110,93,1,,,,,,,,,,,,,,,,,,,,,,,,,,,,,,,,,,,,,,,,,,,,,,,,,,,,,,,,
,,,,,,,,,,,,l,Correct!,,,,,,t5.png,t1.png,4,9.55E-11,19,Female,2020-09-16_14h03.22.553,torte-2b,2020.1.3,Win32,60,13280,0.900315,,,,,0,111,111,100,1,,,,,,,,,,,,,,,,,,,,,,,,,,,,,,,,,,,,,,,,,,,,,,,,,,,,,,,,
,,,,,,,,,,,,a,Correct!,,,,,,t3.png,t4.png,1,0.909,19,Female,2020-09-16_14h03.22.553,torte-2b,2020.1.3,Win32,60,13280,1.39925,,,,,0,112,112,89,1,,,,,,,,,,,,,,,,,,,,,,,,,,,,,,,,,,,,,,,,,,,,,,,,,,,,,,,,
,,,,,,,,,,,,a,Correct!,,,,,,t3.png,t2.png,1,0.90855,19,Female,2020-09-16_14h03.22.553,torte-2b,2020.1.3,Win32,60,13280,0.81889,,,,,0,113,113,53,1,,,,,,,,,,,,,,,,,,,,,,,,,,,,,,,,,,,,,,,,,,,,,,,,,,,,,,,,
,,,,,,,,,,,,l,Correct!,,,,,,t3.png,t1.png,2,0.0565,19,Female,2020-09-16_14h03.22.553,torte-2b,2020.1.3,Win32,60,13280,1.17395,,,,,0,114,114,31,1,,,,,,,,,,,,,,,,,,,,,,,,,,,,,,,,,,,,,,,,,,,,,,,,,,,,,,,,
,,,,,,,,,,,,a,Correct!,,,,,,t2.png,t3.png,1,0.909,19,Female,2020-09-16_14h03.22.553,torte-2b,2020.1.3,Win32,60,13280,1.381395,,,,,0,115,115,74,1,,,,,,,,,,,,,,,,,,,,,,,,,,,,,,,,,,,,,,,,,,,,,,,,,,,,,,,,
,,,,,,,,,,,,l,Correct!,,,,,,t1.png,t4.png,3,0.0000131,19,Female,2020-09-16_14h03.22.553,torte-2b,2020.1.3,Win32,60,13280,1.44853,,,,,0,116,116,17,1,,,,,,,,,,,,,,,,,,,,,,,,,,,,,,,,,,,,,,,,,,,,,,,,,,,,,,,,
,,,,,,,,,,,,l,Correct!,,,,,,t3.png,t5.png,2,0.0565,19,Female,2020-09-16_14h03.22.553,torte-2b,2020.1.3,Win32,60,13280,1.16704,,,,,0,117,117,30,1,,,,,,,,,,,,,,,,,,,,,,,,,,,,,,,,,,,,,,,,,,,,,,,,,,,,,,,,
,,,,,,,,,,,,l,Correct!,,,,,,t1.png,t5.png,4,9.55E-11,19,Female,2020-09-16_14h03.22.553,torte-2b,2020.1.3,Win32,60,13280,0.622945,,,,,0,118,118,16,1,,,,,,,,,,,,,,,,,,,,,,,,,,,,,,,,,,,,,,,,,,,,,,,,,,,,,,,,
,,,,,,,,,,,,l,Correct!,,,,,,t1.png,t3.png,2,0.056466,19,Female,2020-09-16_14h03.22.553,torte-2b,2020.1.3,Win32,60,13280,1.41388,,,,,0,119,119,99,1,,,,,,,,,,,,,,,,,,,,,,,,,,,,,,,,,,,,,,,,,,,,,,,,,,,,,,,,
,,,,,,,,,,,,,,,,,,,,,,,19,Female,2020-09-16_14h03.22.553,torte-2b,2020.1.3,Win32,60,13280,,space,1.248015,,,,,,,,space,30.069175,,0,0,0,0,1,6,,,,,,,,,,,,,,,,,,,,,,,,,,,,,,,,,,,,,,,,,,,,,,,
,,,,,,,,,,,,,,,,,,,,,,,19,Female,2020-09-16_14h03.22.553,torte-2b,2020.1.3,Win32,60,13280,,,,,,,,,,,,,,0,1,1,1,1,7,,,,,,,,,,,,,,,,,,,,,,,,,,,,,,,,,,,,,,,,,,,,,,,
,,,,,,,,,,,,,,,,,,,,,,,19,Female,2020-09-16_14h03.22.553,torte-2b,2020.1.3,Win32,60,13280,,,,,,,,,,,,,space,0,2,2,2,1,6,0.698645,,,,,,,,,,,,,,,,,,,,,,,,,,,,,,,,,,,,,,,,,,,,,,
,,,,,,,,,,,,,,,,,,,,,,,19,Female,2020-09-16_14h03.22.553,torte-2b,2020.1.3,Win32,60,13280,,,,,,,,,,,,,space,0,3,3,3,1,7,0.73861,,,,,,,,,,,,,,,,,,,,,,,,,,,,,,,,,,,,,,,,,,,,,,
,,,,,,,,,,,,,,,,,,,,,,,19,Female,2020-09-16_14h03.22.553,torte-2b,2020.1.3,Win32,60,13280,,,,,,,,,,,,,,0,4,4,4,1,5,,,,,,,,,,,,,,,,,,,,,,,,,,,,,,,,,,,,,,,,,,,,,,,
,,,,,,,,,,,,,,,,,,,,,,,19,Female,2020-09-16_14h03.22.553,torte-2b,2020.1.3,Win32,60,13280,,,,,,,,,,,,,space,0,5,5,5,1,7,0.34713,,,,,,,,,,,,,,,,,,,,,,,,,,,,,,,,,,,,,,,,,,,,,,
,,,,,,,,,,,,,,,,,,,,,,,19,Female,2020-09-16_14h03.22.553,torte-2b,2020.1.3,Win32,60,13280,,,,,,,,,,,,,,0,6,6,6,1,2,,,,,,,,,,,,,,,,,,,,,,,,,,,,,,,,,,,,,,,,,,,,,,,
,,,,,,,,,,,,,,,,,,,,,,,19,Female,2020-09-16_14h03.22.553,torte-2b,2020.1.3,Win32,60,13280,,,,,,,,,,,,,,0,7,7,7,1,4,,,,,,,,,,,,,,,,,,,,,,,,,,,,,,,,,,,,,,,,,,,,,,,
,,,,,,,,,,,,,,,,,,,,,,,19,Female,2020-09-16_14h03.22.553,torte-2b,2020.1.3,Win32,60,13280,,,,,,,,,,,,,,0,8,8,8,1,7,,,,,,,,,,,,,,,,,,,,,,,,,,,,,,,,,,,,,,,,,,,,,,,
,,,,,,,,,,,,,,,,,,,,,,,19,Female,2020-09-16_14h03.22.553,torte-2b,2020.1.3,Win32,60,13280,,,,,,,,,,,,,space,0,9,9,9,1,4,0.45483,,,,,,,,,,,,,,,,,,,,,,,,,,,,,,,,,,,,,,,,,,,,,,
,,,,,,,,,,,,,,,,,,,,,,,19,Female,2020-09-16_14h03.22.553,torte-2b,2020.1.3,Win32,60,13280,,,,,,,,,,,,,,0,10,10,10,1,7,,,,,,,,,,,,,,,,,,,,,,,,,,,,,,,,,,,,,,,,,,,,,,,
,,,,,,,,,,,,,,,,,,,,,,,19,Female,2020-09-16_14h03.22.553,torte-2b,2020.1.3,Win32,60,13280,,,,,,,,,,,,,,0,11,11,11,1,7,,,,,,,,,,,,,,,,,,,,,,,,,,,,,,,,,,,,,,,,,,,,,,,
,,,,,,,,,,,,,,,,,,,,,,,19,Female,2020-09-16_14h03.22.553,torte-2b,2020.1.3,Win32,60,13280,,,,,,,,,,,,,space,0,12,12,12,1,7,0.465375,,,,,,,,,,,,,,,,,,,,,,,,,,,,,,,,,,,,,,,,,,,,,,
,,,,,,,,,,,,,,,,,,,,,,,19,Female,2020-09-16_14h03.22.553,torte-2b,2020.1.3,Win32,60,13280,,,,,,,,,,,,,space,0,13,13,13,1,4,0.93404,,,,,,,,,,,,,,,,,,,,,,,,,,,,,,,,,,,,,,,,,,,,,,
,,,,,,,,,,,,,,,,,,,,,,,19,Female,2020-09-16_14h03.22.553,torte-2b,2020.1.3,Win32,60,13280,,,,,,,,,,,,,,0,14,14,14,1,6,,,,,,,,,,,,,,,,,,,,,,,,,,,,,,,,,,,,,,,,,,,,,,,
,,,,,,,,,,,,,,,,,,,,,,,19,Female,2020-09-16_14h03.22.553,torte-2b,2020.1.3,Win32,60,13280,,,,,,,,,,,,,,0,15,15,15,1,4,,,,,,,,,,,,,,,,,,,,,,,,,,,,,,,,,,,,,,,,,,,,,,,
,,,,,,,,,,,,,,,,,,,,,,,19,Female,2020-09-16_14h03.22.553,torte-2b,2020.1.3,Win32,60,13280,,,,,,,,,,,,,space,0,16,16,16,1,6,0.542955,,,,,,,,,,,,,,,,,,,,,,,,,,,,,,,,,,,,,,,,,,,,,,
,,,,,,,,,,,,,,,,,,,,,,,19,Female,2020-09-16_14h03.22.553,torte-2b,2020.1.3,Win32,60,13280,,,,,,,,,,,,,,0,17,17,17,1,7,,,,,,,,,,,,,,,,,,,,,,,,,,,,,,,,,,,,,,,,,,,,,,,
,,,,,,,,,,,,,,,,,,,,,,,19,Female,2020-09-16_14h03.22.553,torte-2b,2020.1.3,Win32,60,13280,,,,,,,,,,,,,space,0,18,18,18,1,6,0.660085,,,,,,,,,,,,,,,,,,,,,,,,,,,,,,,,,,,,,,,,,,,,,,
,,,,,,,,,,,,,,,,,,,,,,,19,Female,2020-09-16_14h03.22.553,torte-2b,2020.1.3,Win32,60,13280,,,,,,,,,,,,,space,0,19,19,19,1,7,0.768725,,,,,,,,,,,,,,,,,,,,,,,,,,,,,,,,,,,,,,,,,,,,,,
,,,,,,,,,,,,,,,,,,,,,,,19,Female,2020-09-16_14h03.22.553,torte-2b,2020.1.3,Win32,60,13280,,,,,,,,,,,,,,0,20,20,20,1,5,,,,,,,,,,,,,,,,,,,,,,,,,,,,,,,,,,,,,,,,,,,,,,,
,,,,,,,,,,,,,,,,,,,,,,,19,Female,2020-09-16_14h03.22.553,torte-2b,2020.1.3,Win32,60,13280,,,,,,,,,,,,,,0,21,21,21,1,1,,,,,,,,,,,,,,,,,,,,,,,,,,,,,,,,,,,,,,,,,,,,,,,
,,,,,,,,,,,,,,,,,,,,,,,19,Female,2020-09-16_14h03.22.553,torte-2b,2020.1.3,Win32,60,13280,,,,,,,,,,,,,,0,22,22,22,1,6,,,,,,,,,,,,,,,,,,,,,,,,,,,,,,,,,,,,,,,,,,,,,,,
,,,,,,,,,,,,,,,,,,,,,,,19,Female,2020-09-16_14h03.22.553,torte-2b,2020.1.3,Win32,60,13280,,,,,,,,,,,,,space,0,23,23,23,1,1,0.26036,,,,,,,,,,,,,,,,,,,,,,,,,,,,,,,,,,,,,,,,,,,,,,
,,,,,,,,,,,,,,,,,,,,,,,19,Female,2020-09-16_14h03.22.553,torte-2b,2020.1.3,Win32,60,13280,,,,,,,,,,,,,,0,24,24,24,1,5,,,,,,,,,,,,,,,,,,,,,,,,,,,,,,,,,,,,,,,,,,,,,,,
,,,,,,,,,,,,,,,,,,,,,,,19,Female,2020-09-16_14h03.22.553,torte-2b,2020.1.3,Win32,60,13280,,,,,,,,,,,,,,0,25,25,25,1,6,,,,,,,,,,,,,,,,,,,,,,,,,,,,,,,,,,,,,,,,,,,,,,,
,,,,,,,,,,,,,,,,,,,,,,,19,Female,2020-09-16_14h03.22.553,torte-2b,2020.1.3,Win32,60,13280,,,,,,,,,,,,,,0,26,26,26,1,6,,,,,,,,,,,,,,,,,,,,,,,,,,,,,,,,,,,,,,,,,,,,,,,
,,,,,,,,,,,,,,,,,,,,,,,19,Female,2020-09-16_14h03.22.553,torte-2b,2020.1.3,Win32,60,13280,,,,,,,,,,,,,,0,27,27,27,1,6,,,,,,,,,,,,,,,,,,,,,,,,,,,,,,,,,,,,,,,,,,,,,,,
,,,,,,,,,,,,,,,,,,,,,,,19,Female,2020-09-16_14h03.22.553,torte-2b,2020.1.3,Win32,60,13280,,,,,,,,,,,,,,0,28,28,28,1,5,,,,,,,,,,,,,,,,,,,,,,,,,,,,,,,,,,,,,,,,,,,,,,,
,,,,,,,,,,,,,,,,,,,,,,,19,Female,2020-09-16_14h03.22.553,torte-2b,2020.1.3,Win32,60,13280,,,,,,,,,,,,,,0,29,29,29,1,2,,,,,,,,,,,,,,,,,,,,,,,,,,,,,,,,,,,,,,,,,,,,,,,
,,,,,,,,,,,,,,,,,,,,,,,19,Female,2020-09-16_14h03.22.553,torte-2b,2020.1.3,Win32,60,13280,,,,,,,,,,,,,,0,30,30,30,1,5,,,,,,,,,,,,,,,,,,,,,,,,,,,,,,,,,,,,,,,,,,,,,,,
,,,,,,,,,,,,,,,,,,,,,,,19,Female,2020-09-16_14h03.22.553,torte-2b,2020.1.3,Win32,60,13280,,,,,,,,,,,,,,0,31,31,31,1,2,,,,,,,,,,,,,,,,,,,,,,,,,,,,,,,,,,,,,,,,,,,,,,,
,,,,,,,,,,,,,,,,,,,,,,,19,Female,2020-09-16_14h03.22.553,torte-2b,2020.1.3,Win32,60,13280,,,,,,,,,,,,,,0,32,32,32,1,5,,,,,,,,,,,,,,,,,,,,,,,,,,,,,,,,,,,,,,,,,,,,,,,
,,,,,,,,,,,,,,,,,,,,,,,19,Female,2020-09-16_14h03.22.553,torte-2b,2020.1.3,Win32,60,13280,,,,,,,,,,,,,,0,33,33,33,1,1,,,,,,,,,,,,,,,,,,,,,,,,,,,,,,,,,,,,,,,,,,,,,,,
,,,,,,,,,,,,,,,,,,,,,,,19,Female,2020-09-16_14h03.22.553,torte-2b,2020.1.3,Win32,60,13280,,,,,,,,,,,,,space,0,34,34,34,1,1,0.967675,,,,,,,,,,,,,,,,,,,,,,,,,,,,,,,,,,,,,,,,,,,,,,
,,,,,,,,,,,,,,,,,,,,,,,19,Female,2020-09-16_14h03.22.553,torte-2b,2020.1.3,Win32,60,13280,,,,,,,,,,,,,,,,,,,2,,0,0,0,0,1,,,,,,,,,,,,,,,,,,,,,,,,,,,,,,,,,,,,,,,,,
,,,,,,,,,,,,,,,,,,,,,,,19,Female,2020-09-16_14h03.22.553,torte-2b,2020.1.3,Win32,60,13280,,,,,,,,,,,,,,,,,,,2,,0,1,1,1,1,,,,,,,,,,,,,,,,,,,,,,,,,,,,,,,,,,,,,,,,,
,,,,,,,,,,,,,,,,,,,,,,,19,Female,2020-09-16_14h03.22.553,torte-2b,2020.1.3,Win32,60,13280,,,,,,,,,,,,,,,,,,,6,,0,2,2,2,1,,,,,,,,,,,,,,,,,,,,,,,,,,,,,,,,,,,,,,,,,
,,,,,,,,,,,,,,,,,,,,,,,19,Female,2020-09-16_14h03.22.553,torte-2b,2020.1.3,Win32,60,13280,,,,,,,,,,,,,space,,,,,,2,0.527955,0,3,3,3,1,,,,,,,,,,,,,,,,,,,,,,,,,,,,,,,,,,,,,,,,,
,,,,,,,,,,,,,,,,,,,,,,,19,Female,2020-09-16_14h03.22.553,torte-2b,2020.1.3,Win32,60,13280,,,,,,,,,,,,,space,,,,,,6,0.404285,0,4,4,4,1,,,,,,,,,,,,,,,,,,,,,,,,,,,,,,,,,,,,,,,,,
,,,,,,,,,,,,,,,,,,,,,,,19,Female,2020-09-16_14h03.22.553,torte-2b,2020.1.3,Win32,60,13280,,,,,,,,,,,,,space,,,,,,2,0.51688,0,5,5,5,1,,,,,,,,,,,,,,,,,,,,,,,,,,,,,,,,,,,,,,,,,
,,,,,,,,,,,,,,,,,,,,,,,19,Female,2020-09-16_14h03.22.553,torte-2b,2020.1.3,Win32,60,13280,,,,,,,,,,,,,,,,,,,7,,0,6,6,6,1,,,,,,,,,,,,,,,,,,,,,,,,,,,,,,,,,,,,,,,,,
,,,,,,,,,,,,,,,,,,,,,,,19,Female,2020-09-16_14h03.22.553,torte-2b,2020.1.3,Win32,60,13280,,,,,,,,,,,,,,,,,,,2,,0,7,7,7,1,,,,,,,,,,,,,,,,,,,,,,,,,,,,,,,,,,,,,,,,,
,,,,,,,,,,,,,,,,,,,,,,,19,Female,2020-09-16_14h03.22.553,torte-2b,2020.1.3,Win32,60,13280,,,,,,,,,,,,,space,,,,,,7,0.74039,0,8,8,8,1,,,,,,,,,,,,,,,,,,,,,,,,,,,,,,,,,,,,,,,,,
,,,,,,,,,,,,,,,,,,,,,,,19,Female,2020-09-16_14h03.22.553,torte-2b,2020.1.3,Win32,60,13280,,,,,,,,,,,,,space,,,,,,2,0.65659,0,9,9,9,1,,,,,,,,,,,,,,,,,,,,,,,,,,,,,,,,,,,,,,,,,
,,,,,,,,,,,,,,,,,,,,,,,19,Female,2020-09-16_14h03.22.553,torte-2b,2020.1.3,Win32,60,13280,,,,,,,,,,,,,,,,,,,5,,0,10,10,10,1,,,,,,,,,,,,,,,,,,,,,,,,,,,,,,,,,,,,,,,,,
,,,,,,,,,,,,,,,,,,,,,,,19,Female,2020-09-16_14h03.22.553,torte-2b,2020.1.3,Win32,60,13280,,,,,,,,,,,,,,,,,,,4,,0,11,11,11,1,,,,,,,,,,,,,,,,,,,,,,,,,,,,,,,,,,,,,,,,,
,,,,,,,,,,,,,,,,,,,,,,,19,Female,2020-09-16_14h03.22.553,torte-2b,2020.1.3,Win32,60,13280,,,,,,,,,,,,,space,,,,,,5,0.454215,0,12,12,12,1,,,,,,,,,,,,,,,,,,,,,,,,,,,,,,,,,,,,,,,,,
,,,,,,,,,,,,,,,,,,,,,,,19,Female,2020-09-16_14h03.22.553,torte-2b,2020.1.3,Win32,60,13280,,,,,,,,,,,,,,,,,,,6,,0,13,13,13,1,,,,,,,,,,,,,,,,,,,,,,,,,,,,,,,,,,,,,,,,,
,,,,,,,,,,,,,,,,,,,,,,,19,Female,2020-09-16_14h03.22.553,torte-2b,2020.1.3,Win32,60,13280,,,,,,,,,,,,,space,,,,,,5,0.45088,0,14,14,14,1,,,,,,,,,,,,,,,,,,,,,,,,,,,,,,,,,,,,,,,,,
,,,,,,,,,,,,,,,,,,,,,,,19,Female,2020-09-16_14h03.22.553,torte-2b,2020.1.3,Win32,60,13280,,,,,,,,,,,,,,,,,,,4,,0,15,15,15,1,,,,,,,,,,,,,,,,,,,,,,,,,,,,,,,,,,,,,,,,,
,,,,,,,,,,,,,,,,,,,,,,,19,Female,2020-09-16_14h03.22.553,torte-2b,2020.1.3,Win32,60,13280,,,,,,,,,,,,,space,,,,,,5,0.55036,0,16,16,16,1,,,,,,,,,,,,,,,,,,,,,,,,,,,,,,,,,,,,,,,,,
,,,,,,,,,,,,,,,,,,,,,,,19,Female,2020-09-16_14h03.22.553,torte-2b,2020.1.3,Win32,60,13280,,,,,,,,,,,,,,,,,,,3,,0,17,17,17,1,,,,,,,,,,,,,,,,,,,,,,,,,,,,,,,,,,,,,,,,,
,,,,,,,,,,,,,,,,,,,,,,,19,Female,2020-09-16_14h03.22.553,torte-2b,2020.1.3,Win32,60,13280,,,,,,,,,,,,,,,,,,,6,,0,18,18,18,1,,,,,,,,,,,,,,,,,,,,,,,,,,,,,,,,,,,,,,,,,
,,,,,,,,,,,,,,,,,,,,,,,19,Female,2020-09-16_14h03.22.553,torte-2b,2020.1.3,Win32,60,13280,,,,,,,,,,,,,,,,,,,6,,0,19,19,19,1,,,,,,,,,,,,,,,,,,,,,,,,,,,,,,,,,,,,,,,,,
,,,,,,,,,,,,,,,,,,,,,,,19,Female,2020-09-16_14h03.22.553,torte-2b,2020.1.3,Win32,60,13280,,,,,,,,,,,,,space,,,,,,6,0.384315,0,20,20,20,1,,,,,,,,,,,,,,,,,,,,,,,,,,,,,,,,,,,,,,,,,
,,,,,,,,,,,,,,,,,,,,,,,19,Female,2020-09-16_14h03.22.553,torte-2b,2020.1.3,Win32,60,13280,,,,,,,,,,,,,,,,,,,4,,0,21,21,21,1,,,,,,,,,,,,,,,,,,,,,,,,,,,,,,,,,,,,,,,,,
,,,,,,,,,,,,,,,,,,,,,,,19,Female,2020-09-16_14h03.22.553,torte-2b,2020.1.3,Win32,60,13280,,,,,,,,,,,,,space,,,,,,6,0.623305,0,22,22,22,1,,,,,,,,,,,,,,,,,,,,,,,,,,,,,,,,,,,,,,,,,
,,,,,,,,,,,,,,,,,,,,,,,19,Female,2020-09-16_14h03.22.553,torte-2b,2020.1.3,Win32,60,13280,,,,,,,,,,,,,space,,,,,,4,0.616685,0,23,23,23,1,,,,,,,,,,,,,,,,,,,,,,,,,,,,,,,,,,,,,,,,,
,,,,,,,,,,,,,,,,,,,,,,,19,Female,2020-09-16_14h03.22.553,torte-2b,2020.1.3,Win32,60,13280,,,,,,,,,,,,,space,,,,,,6,0.64464,0,24,24,24,1,,,,,,,,,,,,,,,,,,,,,,,,,,,,,,,,,,,,,,,,,
,,,,,,,,,,,,,,,,,,,,,,,19,Female,2020-09-16_14h03.22.553,torte-2b,2020.1.3,Win32,60,13280,,,,,,,,,,,,,,,,,,,6,,0,25,25,25,1,,,,,,,,,,,,,,,,,,,,,,,,,,,,,,,,,,,,,,,,,
,,,,,,,,,,,,,,,,,,,,,,,19,Female,2020-09-16_14h03.22.553,torte-2b,2020.1.3,Win32,60,13280,,,,,,,,,,,,,,,,,,,7,,0,26,26,26,1,,,,,,,,,,,,,,,,,,,,,,,,,,,,,,,,,,,,,,,,,
,,,,,,,,,,,,,,,,,,,,,,,19,Female,2020-09-16_14h03.22.553,torte-2b,2020.1.3,Win32,60,13280,,,,,,,,,,,,,,,,,,,1,,0,27,27,27,1,,,,,,,,,,,,,,,,,,,,,,,,,,,,,,,,,,,,,,,,,
,,,,,,,,,,,,,,,,,,,,,,,19,Female,2020-09-16_14h03.22.553,torte-2b,2020.1.3,Win32,60,13280,,,,,,,,,,,,,space,,,,,,7,0.500805,0,28,28,28,1,,,,,,,,,,,,,,,,,,,,,,,,,,,,,,,,,,,,,,,,,
,,,,,,,,,,,,,,,,,,,,,,,19,Female,2020-09-16_14h03.22.553,torte-2b,2020.1.3,Win32,60,13280,,,,,,,,,,,,,,,,,,,4,,0,29,29,29,1,,,,,,,,,,,,,,,,,,,,,,,,,,,,,,,,,,,,,,,,,
,,,,,,,,,,,,,,,,,,,,,,,19,Female,2020-09-16_14h03.22.553,torte-2b,2020.1.3,Win32,60,13280,,,,,,,,,,,,,space,,,,,,7,0.35081,0,30,30,30,1,,,,,,,,,,,,,,,,,,,,,,,,,,,,,,,,,,,,,,,,,
,,,,,,,,,,,,,,,,,,,,,,,19,Female,2020-09-16_14h03.22.553,torte-2b,2020.1.3,Win32,60,13280,,,,,,,,,,,,,,,,,,,3,,0,31,31,31,1,,,,,,,,,,,,,,,,,,,,,,,,,,,,,,,,,,,,,,,,,
,,,,,,,,,,,,,,,,,,,,,,,19,Female,2020-09-16_14h03.22.553,torte-2b,2020.1.3,Win32,60,13280,,,,,,,,,,,,,,,,,,,2,,0,32,32,32,1,,,,,,,,,,,,,,,,,,,,,,,,,,,,,,,,,,,,,,,,,
,,,,,,,,,,,,,,,,,,,,,,,19,Female,2020-09-16_14h03.22.553,torte-2b,2020.1.3,Win32,60,13280,,,,,,,,,,,,,,,,,,,6,,0,33,33,33,1,,,,,,,,,,,,,,,,,,,,,,,,,,,,,,,,,,,,,,,,,
,,,,,,,,,,,,,,,,,,,,,,,19,Female,2020-09-16_14h03.22.553,torte-2b,2020.1.3,Win32,60,13280,,,,,,,,,,,,,space,,,,,,3,0.784295,0,34,34,34,1,,,,,,,,,,,,,,,,,,,,,,,,,,,,,,,,,,,,,,,,,
,,,,,,,,,,,,,,,,,,,,,,,19,Female,2020-09-16_14h03.22.553,torte-2b,2020.1.3,Win32,60,13280,,,,,,,,,,,,,,,,,,,7,,,,,,,0,0,0,0,1,,,,,,,,,,,,,,,,,,,,,,,,,,,,,,,,,,,,
,,,,,,,,,,,,,,,,,,,,,,,19,Female,2020-09-16_14h03.22.553,torte-2b,2020.1.3,Win32,60,13280,,,,,,,,,,,,,,,,,,,5,,,,,,,0,1,1,1,1,,,,,,,,,,,,,,,,,,,,,,,,,,,,,,,,,,,,
,,,,,,,,,,,,,,,,,,,,,,,19,Female,2020-09-16_14h03.22.553,torte-2b,2020.1.3,Win32,60,13280,,,,,,,,,,,,,,,,,,,4,,,,,,,0,2,2,2,1,,,,,,,,,,,,,,,,,,,,,,,,,,,,,,,,,,,,
,,,,,,,,,,,,,,,,,,,,,,,19,Female,2020-09-16_14h03.22.553,torte-2b,2020.1.3,Win32,60,13280,,,,,,,,,,,,,space,,,,,,5,0.334945,,,,,,0,3,3,3,1,,,,,,,,,,,,,,,,,,,,,,,,,,,,,,,,,,,,
,,,,,,,,,,,,,,,,,,,,,,,19,Female,2020-09-16_14h03.22.553,torte-2b,2020.1.3,Win32,60,13280,,,,,,,,,,,,,,,,,,,6,,,,,,,0,4,4,4,1,,,,,,,,,,,,,,,,,,,,,,,,,,,,,,,,,,,,
,,,,,,,,,,,,,,,,,,,,,,,19,Female,2020-09-16_14h03.22.553,torte-2b,2020.1.3,Win32,60,13280,,,,,,,,,,,,,space,,,,,,5,0.99865,,,,,,0,5,5,5,1,,,,,,,,,,,,,,,,,,,,,,,,,,,,,,,,,,,,
,,,,,,,,,,,,,,,,,,,,,,,19,Female,2020-09-16_14h03.22.553,torte-2b,2020.1.3,Win32,60,13280,,,,,,,,,,,,,,,,,,,3,,,,,,,0,6,6,6,1,,,,,,,,,,,,,,,,,,,,,,,,,,,,,,,,,,,,
,,,,,,,,,,,,,,,,,,,,,,,19,Female,2020-09-16_14h03.22.553,torte-2b,2020.1.3,Win32,60,13280,,,,,,,,,,,,,,,,,,,4,,,,,,,0,7,7,7,1,,,,,,,,,,,,,,,,,,,,,,,,,,,,,,,,,,,,
,,,,,,,,,,,,,,,,,,,,,,,19,Female,2020-09-16_14h03.22.553,torte-2b,2020.1.3,Win32,60,13280,,,,,,,,,,,,,space,,,,,,3,0.43371,,,,,,0,8,8,8,1,,,,,,,,,,,,,,,,,,,,,,,,,,,,,,,,,,,,
,,,,,,,,,,,,,,,,,,,,,,,19,Female,2020-09-16_14h03.22.553,torte-2b,2020.1.3,Win32,60,13280,,,,,,,,,,,,,,,,,,,1,,,,,,,0,9,9,9,1,,,,,,,,,,,,,,,,,,,,,,,,,,,,,,,,,,,,
,,,,,,,,,,,,,,,,,,,,,,,19,Female,2020-09-16_14h03.22.553,torte-2b,2020.1.3,Win32,60,13280,,,,,,,,,,,,,,,,,,,2,,,,,,,0,10,10,10,1,,,,,,,,,,,,,,,,,,,,,,,,,,,,,,,,,,,,
,,,,,,,,,,,,,,,,,,,,,,,19,Female,2020-09-16_14h03.22.553,torte-2b,2020.1.3,Win32,60,13280,,,,,,,,,,,,,,,,,,,1,,,,,,,0,11,11,11,1,,,,,,,,,,,,,,,,,,,,,,,,,,,,,,,,,,,,
,,,,,,,,,,,,,,,,,,,,,,,19,Female,2020-09-16_14h03.22.553,torte-2b,2020.1.3,Win32,60,13280,,,,,,,,,,,,,space,,,,,,2,0.617745,,,,,,0,12,12,12,1,,,,,,,,,,,,,,,,,,,,,,,,,,,,,,,,,,,,
,,,,,,,,,,,,,,,,,,,,,,,19,Female,2020-09-16_14h03.22.553,torte-2b,2020.1.3,Win32,60,13280,,,,,,,,,,,,,,,,,,,1,,,,,,,0,13,13,13,1,,,,,,,,,,,,,,,,,,,,,,,,,,,,,,,,,,,,
,,,,,,,,,,,,,,,,,,,,,,,19,Female,2020-09-16_14h03.22.553,torte-2b,2020.1.3,Win32,60,13280,,,,,,,,,,,,,,,,,,,3,,,,,,,0,14,14,14,1,,,,,,,,,,,,,,,,,,,,,,,,,,,,,,,,,,,,
,,,,,,,,,,,,,,,,,,,,,,,19,Female,2020-09-16_14h03.22.553,torte-2b,2020.1.3,Win32,60,13280,,,,,,,,,,,,,space,,,,,,1,0.55969,,,,,,0,15,15,15,1,,,,,,,,,,,,,,,,,,,,,,,,,,,,,,,,,,,,
,,,,,,,,,,,,,,,,,,,,,,,19,Female,2020-09-16_14h03.22.553,torte-2b,2020.1.3,Win32,60,13280,,,,,,,,,,,,,,,,,,,7,,,,,,,0,16,16,16,1,,,,,,,,,,,,,,,,,,,,,,,,,,,,,,,,,,,,
,,,,,,,,,,,,,,,,,,,,,,,19,Female,2020-09-16_14h03.22.553,torte-2b,2020.1.3,Win32,60,13280,,,,,,,,,,,,,,,,,,,7,,,,,,,0,17,17,17,1,,,,,,,,,,,,,,,,,,,,,,,,,,,,,,,,,,,,
,,,,,,,,,,,,,,,,,,,,,,,19,Female,2020-09-16_14h03.22.553,torte-2b,2020.1.3,Win32,60,13280,,,,,,,,,,,,,,,,,,,4,,,,,,,0,18,18,18,1,,,,,,,,,,,,,,,,,,,,,,,,,,,,,,,,,,,,
,,,,,,,,,,,,,,,,,,,,,,,19,Female,2020-09-16_14h03.22.553,torte-2b,2020.1.3,Win32,60,13280,,,,,,,,,,,,,space,,,,,,7,0.994015,,,,,,0,19,19,19,1,,,,,,,,,,,,,,,,,,,,,,,,,,,,,,,,,,,,
,,,,,,,,,,,,,,,,,,,,,,,19,Female,2020-09-16_14h03.22.553,torte-2b,2020.1.3,Win32,60,13280,,,,,,,,,,,,,,,,,,,3,,,,,,,0,20,20,20,1,,,,,,,,,,,,,,,,,,,,,,,,,,,,,,,,,,,,
,,,,,,,,,,,,,,,,,,,,,,,19,Female,2020-09-16_14h03.22.553,torte-2b,2020.1.3,Win32,60,13280,,,,,,,,,,,,,,,,,,,7,,,,,,,0,21,21,21,1,,,,,,,,,,,,,,,,,,,,,,,,,,,,,,,,,,,,
,,,,,,,,,,,,,,,,,,,,,,,19,Female,2020-09-16_14h03.22.553,torte-2b,2020.1.3,Win32,60,13280,,,,,,,,,,,,,space,,,,,,3,0.76814,,,,,,0,22,22,22,1,,,,,,,,,,,,,,,,,,,,,,,,,,,,,,,,,,,,
,,,,,,,,,,,,,,,,,,,,,,,19,Female,2020-09-16_14h03.22.553,torte-2b,2020.1.3,Win32,60,13280,,,,,,,,,,,,,,,,,,,1,,,,,,,0,23,23,23,1,,,,,,,,,,,,,,,,,,,,,,,,,,,,,,,,,,,,
,,,,,,,,,,,,,,,,,,,,,,,19,Female,2020-09-16_14h03.22.553,torte-2b,2020.1.3,Win32,60,13280,,,,,,,,,,,,,,,,,,,6,,,,,,,0,24,24,24,1,,,,,,,,,,,,,,,,,,,,,,,,,,,,,,,,,,,,
,,,,,,,,,,,,,,,,,,,,,,,19,Female,2020-09-16_14h03.22.553,torte-2b,2020.1.3,Win32,60,13280,,,,,,,,,,,,,,,,,,,3,,,,,,,0,25,25,25,1,,,,,,,,,,,,,,,,,,,,,,,,,,,,,,,,,,,,
,,,,,,,,,,,,,,,,,,,,,,,19,Female,2020-09-16_14h03.22.553,torte-2b,2020.1.3,Win32,60,13280,,,,,,,,,,,,,,,,,,,2,,,,,,,0,26,26,26,1,,,,,,,,,,,,,,,,,,,,,,,,,,,,,,,,,,,,
,,,,,,,,,,,,,,,,,,,,,,,19,Female,2020-09-16_14h03.22.553,torte-2b,2020.1.3,Win32,60,13280,,,,,,,,,,,,,space,,,,,,3,0.4837,,,,,,0,27,27,27,1,,,,,,,,,,,,,,,,,,,,,,,,,,,,,,,,,,,,
,,,,,,,,,,,,,,,,,,,,,,,19,Female,2020-09-16_14h03.22.553,torte-2b,2020.1.3,Win32,60,13280,,,,,,,,,,,,,,,,,,,1,,,,,,,0,28,28,28,1,,,,,,,,,,,,,,,,,,,,,,,,,,,,,,,,,,,,
,,,,,,,,,,,,,,,,,,,,,,,19,Female,2020-09-16_14h03.22.553,torte-2b,2020.1.3,Win32,60,13280,,,,,,,,,,,,,space,,,,,,3,0.418215,,,,,,0,29,29,29,1,,,,,,,,,,,,,,,,,,,,,,,,,,,,,,,,,,,,
,,,,,,,,,,,,,,,,,,,,,,,19,Female,2020-09-16_14h03.22.553,torte-2b,2020.1.3,Win32,60,13280,,,,,,,,,,,,,space,,,,,,1,0.849865,,,,,,0,30,30,30,1,,,,,,,,,,,,,,,,,,,,,,,,,,,,,,,,,,,,
,,,,,,,,,,,,,,,,,,,,,,,19,Female,2020-09-16_14h03.22.553,torte-2b,2020.1.3,Win32,60,13280,,,,,,,,,,,,,,,,,,,7,,,,,,,0,31,31,31,1,,,,,,,,,,,,,,,,,,,,,,,,,,,,,,,,,,,,
,,,,,,,,,,,,,,,,,,,,,,,19,Female,2020-09-16_14h03.22.553,torte-2b,2020.1.3,Win32,60,13280,,,,,,,,,,,,,,,,,,,5,,,,,,,0,32,32,32,1,,,,,,,,,,,,,,,,,,,,,,,,,,,,,,,,,,,,
,,,,,,,,,,,,,,,,,,,,,,,19,Female,2020-09-16_14h03.22.553,torte-2b,2020.1.3,Win32,60,13280,,,,,,,,,,,,,space,,,,,,7,0.41883,,,,,,0,33,33,33,1,,,,,,,,,,,,,,,,,,,,,,,,,,,,,,,,,,,,
,,,,,,,,,,,,,,,,,,,,,,,19,Female,2020-09-16_14h03.22.553,torte-2b,2020.1.3,Win32,60,13280,,,,,,,,,,,,,,,,,,,2,,,,,,,0,34,34,34,1,,,,,,,,,,,,,,,,,,,,,,,,,,,,,,,,,,,,
,,,,,,,,,,,,,,,,,,,,,,,19,Female,2020-09-16_14h03.22.553,torte-2b,2020.1.3,Win32,60,13280,,,,,,,,,,,,,space,,,,,,3,0.78989,,,,,,,,,,,0,0,0,0,1,,,,,,,,,,,,,,,,,,,,,,,,,,,,,,,
,,,,,,,,,,,,,,,,,,,,,,,19,Female,2020-09-16_14h03.22.553,torte-2b,2020.1.3,Win32,60,13280,,,,,,,,,,,,,,,,,,,7,,,,,,,,,,,,0,1,1,1,1,,,,,,,,,,,,,,,,,,,,,,,,,,,,,,,
,,,,,,,,,,,,,,,,,,,,,,,19,Female,2020-09-16_14h03.22.553,torte-2b,2020.1.3,Win32,60,13280,,,,,,,,,,,,,,,,,,,7,,,,,,,,,,,,0,2,2,2,1,,,,,,,,,,,,,,,,,,,,,,,,,,,,,,,
,,,,,,,,,,,,,,,,,,,,,,,19,Female,2020-09-16_14h03.22.553,torte-2b,2020.1.3,Win32,60,13280,,,,,,,,,,,,,,,,,,,4,,,,,,,,,,,,0,3,3,3,1,,,,,,,,,,,,,,,,,,,,,,,,,,,,,,,
,,,,,,,,,,,,,,,,,,,,,,,19,Female,2020-09-16_14h03.22.553,torte-2b,2020.1.3,Win32,60,13280,,,,,,,,,,,,,,,,,,,5,,,,,,,,,,,,0,4,4,4,1,,,,,,,,,,,,,,,,,,,,,,,,,,,,,,,
,,,,,,,,,,,,,,,,,,,,,,,19,Female,2020-09-16_14h03.22.553,torte-2b,2020.1.3,Win32,60,13280,,,,,,,,,,,,,space,,,,,,4,0.43776,,,,,,,,,,,0,5,5,5,1,,,,,,,,,,,,,,,,,,,,,,,,,,,,,,,
,,,,,,,,,,,,,,,,,,,,,,,19,Female,2020-09-16_14h03.22.553,torte-2b,2020.1.3,Win32,60,13280,,,,,,,,,,,,,,,,,,,2,,,,,,,,,,,,0,6,6,6,1,,,,,,,,,,,,,,,,,,,,,,,,,,,,,,,
,,,,,,,,,,,,,,,,,,,,,,,19,Female,2020-09-16_14h03.22.553,torte-2b,2020.1.3,Win32,60,13280,,,,,,,,,,,,,space,,,,,,4,1.21574,,,,,,,,,,,0,7,7,7,1,,,,,,,,,,,,,,,,,,,,,,,,,,,,,,,
,,,,,,,,,,,,,,,,,,,,,,,19,Female,2020-09-16_14h03.22.553,torte-2b,2020.1.3,Win32,60,13280,,,,,,,,,,,,,,,,,,,2,,,,,,,,,,,,0,8,8,8,1,,,,,,,,,,,,,,,,,,,,,,,,,,,,,,,
,,,,,,,,,,,,,,,,,,,,,,,19,Female,2020-09-16_14h03.22.553,torte-2b,2020.1.3,Win32,60,13280,,,,,,,,,,,,,,,,,,,2,,,,,,,,,,,,0,9,9,9,1,,,,,,,,,,,,,,,,,,,,,,,,,,,,,,,
,,,,,,,,,,,,,,,,,,,,,,,19,Female,2020-09-16_14h03.22.553,torte-2b,2020.1.3,Win32,60,13280,,,,,,,,,,,,,,,,,,,6,,,,,,,,,,,,0,10,10,10,1,,,,,,,,,,,,,,,,,,,,,,,,,,,,,,,
,,,,,,,,,,,,,,,,,,,,,,,19,Female,2020-09-16_14h03.22.553,torte-2b,2020.1.3,Win32,60,13280,,,,,,,,,,,,,space,,,,,,2,0.400115,,,,,,,,,,,0,11,11,11,1,,,,,,,,,,,,,,,,,,,,,,,,,,,,,,,
,,,,,,,,,,,,,,,,,,,,,,,19,Female,2020-09-16_14h03.22.553,torte-2b,2020.1.3,Win32,60,13280,,,,,,,,,,,,,,,,,,,2,,,,,,,,,,,,0,12,12,12,1,,,,,,,,,,,,,,,,,,,,,,,,,,,,,,,
,,,,,,,,,,,,,,,,,,,,,,,19,Female,2020-09-16_14h03.22.553,torte-2b,2020.1.3,Win32,60,13280,,,,,,,,,,,,,space,,,,,,2,1.934105,,,,,,,,,,,0,13,13,13,1,,,,,,,,,,,,,,,,,,,,,,,,,,,,,,,
,,,,,,,,,,,,,,,,,,,,,,,19,Female,2020-09-16_14h03.22.553,torte-2b,2020.1.3,Win32,60,13280,,,,,,,,,,,,,,,,,,,2,,,,,,,,,,,,0,14,14,14,1,,,,,,,,,,,,,,,,,,,,,,,,,,,,,,,
,,,,,,,,,,,,,,,,,,,,,,,19,Female,2020-09-16_14h03.22.553,torte-2b,2020.1.3,Win32,60,13280,,,,,,,,,,,,,,,,,,,4,,,,,,,,,,,,0,15,15,15,1,,,,,,,,,,,,,,,,,,,,,,,,,,,,,,,
,,,,,,,,,,,,,,,,,,,,,,,19,Female,2020-09-16_14h03.22.553,torte-2b,2020.1.3,Win32,60,13280,,,,,,,,,,,,,,,,,,,3,,,,,,,,,,,,0,16,16,16,1,,,,,,,,,,,,,,,,,,,,,,,,,,,,,,,
,,,,,,,,,,,,,,,,,,,,,,,19,Female,2020-09-16_14h03.22.553,torte-2b,2020.1.3,Win32,60,13280,,,,,,,,,,,,,,,,,,,7,,,,,,,,,,,,0,17,17,17,1,,,,,,,,,,,,,,,,,,,,,,,,,,,,,,,
,,,,,,,,,,,,,,,,,,,,,,,19,Female,2020-09-16_14h03.22.553,torte-2b,2020.1.3,Win32,60,13280,,,,,,,,,,,,,,,,,,,4,,,,,,,,,,,,0,18,18,18,1,,,,,,,,,,,,,,,,,,,,,,,,,,,,,,,
,,,,,,,,,,,,,,,,,,,,,,,19,Female,2020-09-16_14h03.22.553,torte-2b,2020.1.3,Win32,60,13280,,,,,,,,,,,,,space,,,,,,7,1.23788,,,,,,,,,,,0,19,19,19,1,,,,,,,,,,,,,,,,,,,,,,,,,,,,,,,
,,,,,,,,,,,,,,,,,,,,,,,19,Female,2020-09-16_14h03.22.553,torte-2b,2020.1.3,Win32,60,13280,,,,,,,,,,,,,,,,,,,7,,,,,,,,,,,,0,20,20,20,1,,,,,,,,,,,,,,,,,,,,,,,,,,,,,,,
,,,,,,,,,,,,,,,,,,,,,,,19,Female,2020-09-16_14h03.22.553,torte-2b,2020.1.3,Win32,60,13280,,,,,,,,,,,,,space,,,,,,7,0.568945,,,,,,,,,,,0,21,21,21,1,,,,,,,,,,,,,,,,,,,,,,,,,,,,,,,
,,,,,,,,,,,,,,,,,,,,,,,19,Female,2020-09-16_14h03.22.553,torte-2b,2020.1.3,Win32,60,13280,,,,,,,,,,,,,space,,,,,,7,1.026205,,,,,,,,,,,0,22,22,22,1,,,,,,,,,,,,,,,,,,,,,,,,,,,,,,,
,,,,,,,,,,,,,,,,,,,,,,,19,Female,2020-09-16_14h03.22.553,torte-2b,2020.1.3,Win32,60,13280,,,,,,,,,,,,,,,,,,,1,,,,,,,,,,,,0,23,23,23,1,,,,,,,,,,,,,,,,,,,,,,,,,,,,,,,
,,,,,,,,,,,,,,,,,,,,,,,19,Female,2020-09-16_14h03.22.553,torte-2b,2020.1.3,Win32,60,13280,,,,,,,,,,,,,space,,,,,,7,0.417065,,,,,,,,,,,0,24,24,24,1,,,,,,,,,,,,,,,,,,,,,,,,,,,,,,,
,,,,,,,,,,,,,,,,,,,,,,,19,Female,2020-09-16_14h03.22.553,torte-2b,2020.1.3,Win32,60,13280,,,,,,,,,,,,,space,,,,,,1,0.59293,,,,,,,,,,,0,25,25,25,1,,,,,,,,,,,,,,,,,,,,,,,,,,,,,,,
,,,,,,,,,,,,,,,,,,,,,,,19,Female,2020-09-16_14h03.22.553,torte-2b,2020.1.3,Win32,60,13280,,,,,,,,,,,,,space,,,,,,7,0.483735,,,,,,,,,,,0,26,26,26,1,,,,,,,,,,,,,,,,,,,,,,,,,,,,,,,
,,,,,,,,,,,,,,,,,,,,,,,19,Female,2020-09-16_14h03.22.553,torte-2b,2020.1.3,Win32,60,13280,,,,,,,,,,,,,,,,,,,2,,,,,,,,,,,,0,27,27,27,1,,,,,,,,,,,,,,,,,,,,,,,,,,,,,,,
,,,,,,,,,,,,,,,,,,,,,,,19,Female,2020-09-16_14h03.22.553,torte-2b,2020.1.3,Win32,60,13280,,,,,,,,,,,,,,,,,,,5,,,,,,,,,,,,0,28,28,28,1,,,,,,,,,,,,,,,,,,,,,,,,,,,,,,,
,,,,,,,,,,,,,,,,,,,,,,,19,Female,2020-09-16_14h03.22.553,torte-2b,2020.1.3,Win32,60,13280,,,,,,,,,,,,,,,,,,,5,,,,,,,,,,,,0,29,29,29,1,,,,,,,,,,,,,,,,,,,,,,,,,,,,,,,
,,,,,,,,,,,,,,,,,,,,,,,19,Female,2020-09-16_14h03.22.553,torte-2b,2020.1.3,Win32,60,13280,,,,,,,,,,,,,space,,,,,,5,0.400275,,,,,,,,,,,0,30,30,30,1,,,,,,,,,,,,,,,,,,,,,,,,,,,,,,,
,,,,,,,,,,,,,,,,,,,,,,,19,Female,2020-09-16_14h03.22.553,torte-2b,2020.1.3,Win32,60,13280,,,,,,,,,,,,,,,,,,,1,,,,,,,,,,,,0,31,31,31,1,,,,,,,,,,,,,,,,,,,,,,,,,,,,,,,
,,,,,,,,,,,,,,,,,,,,,,,19,Female,2020-09-16_14h03.22.553,torte-2b,2020.1.3,Win32,60,13280,,,,,,,,,,,,,space,,,,,,5,0.78794,,,,,,,,,,,0,32,32,32,1,,,,,,,,,,,,,,,,,,,,,,,,,,,,,,,
,,,,,,,,,,,,,,,,,,,,,,,19,Female,2020-09-16_14h03.22.553,torte-2b,2020.1.3,Win32,60,13280,,,,,,,,,,,,,,,,,,,3,,,,,,,,,,,,0,33,33,33,1,,,,,,,,,,,,,,,,,,,,,,,,,,,,,,,
,,,,,,,,,,,,,,,,,,,,,,,19,Female,2020-09-16_14h03.22.553,torte-2b,2020.1.3,Win32,60,13280,,,,,,,,,,,,,,,,,,,3,,,,,,,,,,,,0,34,34,34,1,,,,,,,,,,,,,,,,,,,,,,,,,,,,,,,
,,,,,,,,,,,,a,Correct!,,,,,,t4.png,t3.png,1,0.909,19,Female,2020-09-16_14h03.22.553,torte-2b,2020.1.3,Win32,60,13280,1.2357,space,1.769225,,,,,,,,,,,,,,,,,,,,,,,,,,,,,,,,,space,2.73771,0,0,0,46,1,,,,,,,,,,,,,,,,,,,,,,,,
,,,,,,,,,,,,a,Correct!,,,,,,t4.png,t5.png,1,0.90025,19,Female,2020-09-16_14h03.22.553,torte-2b,2020.1.3,Win32,60,13280,0.85582,,,,,,,,,,,,,,,,,,,,,,,,,,,,,,,,,,,,,0,1,1,103,1,,,,,,,,,,,,,,,,,,,,,,,,
,,,,,,,,,,,,l,Correct!,,,,,,t1.png,t4.png,3,0.0000131,19,Female,2020-09-16_14h03.22.553,torte-2b,2020.1.3,Win32,60,13280,0.931895,,,,,,,,,,,,,,,,,,,,,,,,,,,,,,,,,,,,,0,2,2,81,1,,,,,,,,,,,,,,,,,,,,,,,,
,,,,,,,,,,,,l,Correct!,,,,,,t3.png,t1.png,2,0.0565,19,Female,2020-09-16_14h03.22.553,torte-2b,2020.1.3,Win32,60,13280,0.817585,,,,,,,,,,,,,,,,,,,,,,,,,,,,,,,,,,,,,0,3,3,31,1,,,,,,,,,,,,,,,,,,,,,,,,
,,,,,,,,,,,,a,Correct!,,,,,,t4.png,t4.png,0,0.98115,19,Female,2020-09-16_14h03.22.553,torte-2b,2020.1.3,Win32,60,13280,0.755705,,,,,,,,,,,,,,,,,,,,,,,,,,,,,,,,,,,,,0,4,4,90,1,,,,,,,,,,,,,,,,,,,,,,,,
,,,,,,,,,,,,l,Correct!,,,,,,t4.png,t1.png,3,0.0000131,19,Female,2020-09-16_14h03.22.553,torte-2b,2020.1.3,Win32,60,13280,0.66671,,,,,,,,,,,,,,,,,,,,,,,,,,,,,,,,,,,,,0,5,5,42,1,,,,,,,,,,,,,,,,,,,,,,,,
,,,,,,,,,,,,a,Correct!,,,,,,t4.png,t4.png,0,0.98115,19,Female,2020-09-16_14h03.22.553,torte-2b,2020.1.3,Win32,60,13280,0.604675,,,,,,,,,,,,,,,,,,,,,,,,,,,,,,,,,,,,,0,6,6,52,1,,,,,,,,,,,,,,,,,,,,,,,,
,,,,,,,,,,,,l,Correct!,,,,,,t5.png,t1.png,4,9.55E-11,19,Female,2020-09-16_14h03.22.553,torte-2b,2020.1.3,Win32,60,13280,0.637955,,,,,,,,,,,,,,,,,,,,,,,,,,,,,,,,,,,,,0,7,7,102,1,,,,,,,,,,,,,,,,,,,,,,,,
,,,,,,,,,,,,a,Correct!,,,,,,t3.png,t2.png,1,0.90855,19,Female,2020-09-16_14h03.22.553,torte-2b,2020.1.3,Win32,60,13280,1.05771,,,,,,,,,,,,,,,,,,,,,,,,,,,,,,,,,,,,,0,8,8,53,1,,,,,,,,,,,,,,,,,,,,,,,,
,,,,,,,,,,,,l,Correct!,,,,,,t2.png,t4.png,2,0.059078,19,Female,2020-09-16_14h03.22.553,torte-2b,2020.1.3,Win32,60,13280,1.0719,,,,,,,,,,,,,,,,,,,,,,,,,,,,,,,,,,,,,0,9,9,11,1,,,,,,,,,,,,,,,,,,,,,,,,
,,,,,,,,,,,,l,Correct!,,,,,,t4.png,t2.png,2,0.059078,19,Female,2020-09-16_14h03.22.553,torte-2b,2020.1.3,Win32,60,13280,1.313925,,,,,,,,,,,,,,,,,,,,,,,,,,,,,,,,,,,,,0,10,10,109,1,,,,,,,,,,,,,,,,,,,,,,,,
,,,,,,,,,,,,a,Correct!,,,,,,t4.png,t3.png,1,0.90855,19,Female,2020-09-16_14h03.22.553,torte-2b,2020.1.3,Win32,60,13280,1.03129,,,,,,,,,,,,,,,,,,,,,,,,,,,,,,,,,,,,,0,11,11,45,1,,,,,,,,,,,,,,,,,,,,,,,,
,,,,,,,,,,,,l,Correct!,,,,,,t3.png,t1.png,2,0.056466,19,Female,2020-09-16_14h03.22.553,torte-2b,2020.1.3,Win32,60,13280,1.314255,,,,,,,,,,,,,,,,,,,,,,,,,,,,,,,,,,,,,0,12,12,64,1,,,,,,,,,,,,,,,,,,,,,,,,
,,,,,,,,,,,,l,Correct!,,,,,,t1.png,t4.png,3,0.0000131,19,Female,2020-09-16_14h03.22.553,torte-2b,2020.1.3,Win32,60,13280,1.02282,,,,,,,,,,,,,,,,,,,,,,,,,,,,,,,,,,,,,0,13,13,17,1,,,,,,,,,,,,,,,,,,,,,,,,
,,,,,,,,,,,,a,Correct!,,,,,,t5.png,t5.png,0,0.97829,19,Female,2020-09-16_14h03.22.553,torte-2b,2020.1.3,Win32,60,13280,0.880635,,,,,,,,,,,,,,,,,,,,,,,,,,,,,,,,,,,,,0,14,14,25,1,,,,,,,,,,,,,,,,,,,,,,,,
,,,,,,,,,,,,l,Correct!,,,,,,t2.png,t5.png,3,0.0000131,19,Female,2020-09-16_14h03.22.553,torte-2b,2020.1.3,Win32,60,13280,1.03448,,,,,,,,,,,,,,,,,,,,,,,,,,,,,,,,,,,,,0,15,15,8,1,,,,,,,,,,,,,,,,,,,,,,,,
,,,,,,,,,,,,a,Correct!,,,,,,t1.png,t1.png,0,0.97829,19,Female,2020-09-16_14h03.22.553,torte-2b,2020.1.3,Win32,60,13280,0.997385,,,,,,,,,,,,,,,,,,,,,,,,,,,,,,,,,,,,,0,16,16,78,1,,,,,,,,,,,,,,,,,,,,,,,,
,,,,,,,,,,,,l,Correct!,,,,,,t1.png,t5.png,4,9.55E-11,19,Female,2020-09-16_14h03.22.553,torte-2b,2020.1.3,Win32,60,13280,0.93345,,,,,,,,,,,,,,,,,,,,,,,,,,,,,,,,,,,,,0,17,17,85,1,,,,,,,,,,,,,,,,,,,,,,,,
,,,,,,,,,,,,l,Correct!,,,,,,t5.png,t1.png,4,9.55E-11,19,Female,2020-09-16_14h03.22.553,torte-2b,2020.1.3,Win32,60,13280,1.00528,,,,,,,,,,,,,,,,,,,,,,,,,,,,,,,,,,,,,0,18,18,100,1,,,,,,,,,,,,,,,,,,,,,,,,
,,,,,,,,,,,,l,Correct!,,,,,,t5.png,t3.png,2,0.056466,19,Female,2020-09-16_14h03.22.553,torte-2b,2020.1.3,Win32,60,13280,0.86662,,,,,,,,,,,,,,,,,,,,,,,,,,,,,,,,,,,,,0,19,19,108,1,,,,,,,,,,,,,,,,,,,,,,,,
,,,,,,,,,,,,l,Correct!,,,,,,t5.png,t2.png,3,0.0000131,19,Female,2020-09-16_14h03.22.553,torte-2b,2020.1.3,Win32,60,13280,0.99853,,,,,,,,,,,,,,,,,,,,,,,,,,,,,,,,,,,,,0,20,20,116,1,,,,,,,,,,,,,,,,,,,,,,,,
,,,,,,,,,,,,l,Correct!,,,,,,t4.png,t2.png,2,0.059078,19,Female,2020-09-16_14h03.22.553,torte-2b,2020.1.3,Win32,60,13280,1.60182,,,,,,,,,,,,,,,,,,,,,,,,,,,,,,,,,,,,,0,21,21,110,1,,,,,,,,,,,,,,,,,,,,,,,,
,,,,,,,,,,,,a,Correct!,,,,,,t5.png,t5.png,0,0.97829,19,Female,2020-09-16_14h03.22.553,torte-2b,2020.1.3,Win32,60,13280,1.07459,,,,,,,,,,,,,,,,,,,,,,,,,,,,,,,,,,,,,0,22,22,94,1,,,,,,,,,,,,,,,,,,,,,,,,
,,,,,,,,,,,,a,Correct!,,,,,,t4.png,t4.png,0,0.98115,19,Female,2020-09-16_14h03.22.553,torte-2b,2020.1.3,Win32,60,13280,1.07428,,,,,,,,,,,,,,,,,,,,,,,,,,,,,,,,,,,,,0,23,23,79,1,,,,,,,,,,,,,,,,,,,,,,,,
,,,,,,,,,,,,a,Correct!,,,,,,t5.png,t4.png,1,0.9,19,Female,2020-09-16_14h03.22.553,torte-2b,2020.1.3,Win32,60,13280,1.26952,,,,,,,,,,,,,,,,,,,,,,,,,,,,,,,,,,,,,0,24,24,76,1,,,,,,,,,,,,,,,,,,,,,,,,
,,,,,,,,,,,,a,Correct!,,,,,,t3.png,t2.png,1,0.909,19,Female,2020-09-16_14h03.22.553,torte-2b,2020.1.3,Win32,60,13280,0.966475,,,,,,,,,,,,,,,,,,,,,,,,,,,,,,,,,,,,,0,25,25,3,1,,,,,,,,,,,,,,,,,,,,,,,,
,,,,,,,,,,,,l,Correct!,,,,,,t3.png,t5.png,2,0.056466,19,Female,2020-09-16_14h03.22.553,torte-2b,2020.1.3,Win32,60,13280,0.96376,,,,,,,,,,,,,,,,,,,,,,,,,,,,,,,,,,,,,0,26,26,14,1,,,,,,,,,,,,,,,,,,,,,,,,
,,,,,,,,,,,,a,Correct!,,,,,,t4.png,t5.png,1,0.9,19,Female,2020-09-16_14h03.22.553,torte-2b,2020.1.3,Win32,60,13280,0.8302,,,,,,,,,,,,,,,,,,,,,,,,,,,,,,,,,,,,,0,27,27,115,1,,,,,,,,,,,,,,,,,,,,,,,,
,,,,,,,,,,,,l,Correct!,,,,,,t2.png,t5.png,3,0.0000131,19,Female,2020-09-16_14h03.22.553,torte-2b,2020.1.3,Win32,60,13280,0.85243,,,,,,,,,,,,,,,,,,,,,,,,,,,,,,,,,,,,,0,28,28,40,1,,,,,,,,,,,,,,,,,,,,,,,,
,,,,,,,,,,,,a,Correct!,,,,,,t5.png,t4.png,1,0.9,19,Female,2020-09-16_14h03.22.553,torte-2b,2020.1.3,Win32,60,13280,1.05173,,,,,,,,,,,,,,,,,,,,,,,,,,,,,,,,,,,,,0,29,29,49,1,,,,,,,,,,,,,,,,,,,,,,,,
,,,,,,,,,,,,a,Correct!,,,,,,t4.png,t4.png,0,0.98115,19,Female,2020-09-16_14h03.22.553,torte-2b,2020.1.3,Win32,60,13280,0.806495,,,,,,,,,,,,,,,,,,,,,,,,,,,,,,,,,,,,,0,30,30,21,1,,,,,,,,,,,,,,,,,,,,,,,,
,,,,,,,,,,,,l,Incorrect,,,,,,t1.png,t2.png,1,0.90025,19,Female,2020-09-16_14h03.22.553,torte-2b,2020.1.3,Win32,60,13280,0.741645,,,,,,,,,,,,,,,,,,,,,,,,,,,,,,,,,,,,,0,31,31,72,1,,,,,,,,,,,,,,,,,,,,,,,,
,,,,,,,,,,,,l,Correct!,,,,,,t5.png,t3.png,2,0.056466,19,Female,2020-09-16_14h03.22.553,torte-2b,2020.1.3,Win32,60,13280,1.92002,,,,,,,,,,,,,,,,,,,,,,,,,,,,,,,,,,,,,0,32,32,56,1,,,,,,,,,,,,,,,,,,,,,,,,
,,,,,,,,,,,,l,Correct!,,,,,,t2.png,t5.png,3,0.0000131,19,Female,2020-09-16_14h03.22.553,torte-2b,2020.1.3,Win32,60,13280,0.79943,,,,,,,,,,,,,,,,,,,,,,,,,,,,,,,,,,,,,0,33,33,95,1,,,,,,,,,,,,,,,,,,,,,,,,
,,,,,,,,,,,,l,Correct!,,,,,,t1.png,t4.png,3,0.0000131,19,Female,2020-09-16_14h03.22.553,torte-2b,2020.1.3,Win32,60,13280,0.74862,,,,,,,,,,,,,,,,,,,,,,,,,,,,,,,,,,,,,0,34,34,92,1,,,,,,,,,,,,,,,,,,,,,,,,
,,,,,,,,,,,,l,Correct!,,,,,,t2.png,t4.png,2,0.059078,19,Female,2020-09-16_14h03.22.553,torte-2b,2020.1.3,Win32,60,13280,1.67648,,,,,,,,,,,,,,,,,,,,,,,,,,,,,,,,,,,,,0,35,35,37,1,,,,,,,,,,,,,,,,,,,,,,,,
,,,,,,,,,,,,l,Correct!,,,,,,t2.png,t4.png,2,0.059078,19,Female,2020-09-16_14h03.22.553,torte-2b,2020.1.3,Win32,60,13280,1.01677,,,,,,,,,,,,,,,,,,,,,,,,,,,,,,,,,,,,,0,36,36,77,1,,,,,,,,,,,,,,,,,,,,,,,,
,,,,,,,,,,,,a,Correct!,,,,,,t2.png,t2.png,0,0.98115,19,Female,2020-09-16_14h03.22.553,torte-2b,2020.1.3,Win32,60,13280,0.966435,,,,,,,,,,,,,,,,,,,,,,,,,,,,,,,,,,,,,0,37,37,2,1,,,,,,,,,,,,,,,,,,,,,,,,
,,,,,,,,,,,,l,Correct!,,,,,,t2.png,t4.png,2,0.0591,19,Female,2020-09-16_14h03.22.553,torte-2b,2020.1.3,Win32,60,13280,0.89795,,,,,,,,,,,,,,,,,,,,,,,,,,,,,,,,,,,,,0,38,38,15,1,,,,,,,,,,,,,,,,,,,,,,,,
,,,,,,,,,,,,a,Correct!,,,,,,t3.png,t4.png,1,0.909,19,Female,2020-09-16_14h03.22.553,torte-2b,2020.1.3,Win32,60,13280,1.54658,,,,,,,,,,,,,,,,,,,,,,,,,,,,,,,,,,,,,0,39,39,82,1,,,,,,,,,,,,,,,,,,,,,,,,
,,,,,,,,,,,,l,Correct!,,,,,,t3.png,t5.png,2,0.0565,19,Female,2020-09-16_14h03.22.553,torte-2b,2020.1.3,Win32,60,13280,1.133415,,,,,,,,,,,,,,,,,,,,,,,,,,,,,,,,,,,,,0,40,40,83,1,,,,,,,,,,,,,,,,,,,,,,,,
,,,,,,,,,,,,a,Correct!,,,,,,t1.png,t1.png,0,0.978,19,Female,2020-09-16_14h03.22.553,torte-2b,2020.1.3,Win32,60,13280,1.04773,,,,,,,,,,,,,,,,,,,,,,,,,,,,,,,,,,,,,0,41,41,28,1,,,,,,,,,,,,,,,,,,,,,,,,
,,,,,,,,,,,,l,Correct!,,,,,,t3.png,t1.png,2,0.056466,19,Female,2020-09-16_14h03.22.553,torte-2b,2020.1.3,Win32,60,13280,1.528135,,,,,,,,,,,,,,,,,,,,,,,,,,,,,,,,,,,,,0,42,42,32,1,,,,,,,,,,,,,,,,,,,,,,,,
,,,,,,,,,,,,a,Correct!,,,,,,t2.png,t2.png,0,0.981,19,Female,2020-09-16_14h03.22.553,torte-2b,2020.1.3,Win32,60,13280,1.14899,,,,,,,,,,,,,,,,,,,,,,,,,,,,,,,,,,,,,0,43,43,101,1,,,,,,,,,,,,,,,,,,,,,,,,
,,,,,,,,,,,,l,Correct!,,,,,,t5.png,t1.png,4,9.55E-11,19,Female,2020-09-16_14h03.22.553,torte-2b,2020.1.3,Win32,60,13280,1.082905,,,,,,,,,,,,,,,,,,,,,,,,,,,,,,,,,,,,,0,44,44,71,1,,,,,,,,,,,,,,,,,,,,,,,,
,,,,,,,,,,,,l,Correct!,,,,,,t4.png,t1.png,3,0.0000131,19,Female,2020-09-16_14h03.22.553,torte-2b,2020.1.3,Win32,60,13280,0.655245,,,,,,,,,,,,,,,,,,,,,,,,,,,,,,,,,,,,,0,45,45,61,1,,,,,,,,,,,,,,,,,,,,,,,,
,,,,,,,,,,,,l,Correct!,,,,,,t3.png,t1.png,2,0.056466,19,Female,2020-09-16_14h03.22.553,torte-2b,2020.1.3,Win32,60,13280,1.41524,,,,,,,,,,,,,,,,,,,,,,,,,,,,,,,,,,,,,0,46,46,29,1,,,,,,,,,,,,,,,,,,,,,,,,
,,,,,,,,,,,,a,Correct!,,,,,,t5.png,t5.png,0,0.97829,19,Female,2020-09-16_14h03.22.553,torte-2b,2020.1.3,Win32,60,13280,0.732965,,,,,,,,,,,,,,,,,,,,,,,,,,,,,,,,,,,,,0,47,47,73,1,,,,,,,,,,,,,,,,,,,,,,,,
,,,,,,,,,,,,a,Correct!,,,,,,t2.png,t1.png,1,0.90025,19,Female,2020-09-16_14h03.22.553,torte-2b,2020.1.3,Win32,60,13280,1.581935,,,,,,,,,,,,,,,,,,,,,,,,,,,,,,,,,,,,,0,48,48,19,1,,,,,,,,,,,,,,,,,,,,,,,,
,,,,,,,,,,,,a,Correct!,,,,,,t1.png,t2.png,1,0.90025,19,Female,2020-09-16_14h03.22.553,torte-2b,2020.1.3,Win32,60,13280,0.75366,,,,,,,,,,,,,,,,,,,,,,,,,,,,,,,,,,,,,0,49,49,112,1,,,,,,,,,,,,,,,,,,,,,,,,
,,,,,,,,,,,,a,Correct!,,,,,,t4.png,t3.png,1,0.90855,19,Female,2020-09-16_14h03.22.553,torte-2b,2020.1.3,Win32,60,13280,1.285565,,,,,,,,,,,,,,,,,,,,,,,,,,,,,,,,,,,,,0,50,50,35,1,,,,,,,,,,,,,,,,,,,,,,,,
,,,,,,,,,,,,l,Correct!,,,,,,t1.png,t5.png,4,9.55E-11,19,Female,2020-09-16_14h03.22.553,torte-2b,2020.1.3,Win32,60,13280,1.54741,,,,,,,,,,,,,,,,,,,,,,,,,,,,,,,,,,,,,0,51,51,41,1,,,,,,,,,,,,,,,,,,,,,,,,
,,,,,,,,,,,,a,Correct!,,,,,,t2.png,t3.png,1,0.909,19,Female,2020-09-16_14h03.22.553,torte-2b,2020.1.3,Win32,60,13280,1.1339,,,,,,,,,,,,,,,,,,,,,,,,,,,,,,,,,,,,,0,52,52,74,1,,,,,,,,,,,,,,,,,,,,,,,,
,,,,,,,,,,,,a,Correct!,,,,,,t2.png,t1.png,1,0.90025,19,Female,2020-09-16_14h03.22.553,torte-2b,2020.1.3,Win32,60,13280,0.785955,,,,,,,,,,,,,,,,,,,,,,,,,,,,,,,,,,,,,0,53,53,4,1,,,,,,,,,,,,,,,,,,,,,,,,
,,,,,,,,,,,,l,Correct!,,,,,,t5.png,t3.png,2,0.056466,19,Female,2020-09-16_14h03.22.553,torte-2b,2020.1.3,Win32,60,13280,1.46684,,,,,,,,,,,,,,,,,,,,,,,,,,,,,,,,,,,,,0,54,54,114,1,,,,,,,,,,,,,,,,,,,,,,,,
,,,,,,,,,,,,l,Correct!,,,,,,t2.png,t4.png,2,0.059078,19,Female,2020-09-16_14h03.22.553,torte-2b,2020.1.3,Win32,60,13280,1.164025,,,,,,,,,,,,,,,,,,,,,,,,,,,,,,,,,,,,,0,55,55,24,1,,,,,,,,,,,,,,,,,,,,,,,,
,,,,,,,,,,,,a,Correct!,,,,,,t1.png,t1.png,0,0.97829,19,Female,2020-09-16_14h03.22.553,torte-2b,2020.1.3,Win32,60,13280,0.848445,,,,,,,,,,,,,,,,,,,,,,,,,,,,,,,,,,,,,0,56,56,67,1,,,,,,,,,,,,,,,,,,,,,,,,
,,,,,,,,,,,,l,Correct!,,,,,,t1.png,t4.png,3,0.0000131,19,Female,2020-09-16_14h03.22.553,torte-2b,2020.1.3,Win32,60,13280,0.85489,,,,,,,,,,,,,,,,,,,,,,,,,,,,,,,,,,,,,0,57,57,107,1,,,,,,,,,,,,,,,,,,,,,,,,
,,,,,,,,,,,,a,Correct!,,,,,,t3.png,t4.png,1,0.90855,19,Female,2020-09-16_14h03.22.553,torte-2b,2020.1.3,Win32,60,13280,1.089615,,,,,,,,,,,,,,,,,,,,,,,,,,,,,,,,,,,,,0,58,58,84,1,,,,,,,,,,,,,,,,,,,,,,,,
,,,,,,,,,,,,a,Correct!,,,,,,t4.png,t4.png,0,0.98115,19,Female,2020-09-16_14h03.22.553,torte-2b,2020.1.3,Win32,60,13280,0.898895,,,,,,,,,,,,,,,,,,,,,,,,,,,,,,,,,,,,,0,59,59,80,1,,,,,,,,,,,,,,,,,,,,,,,,
,,,,,,,,,,,,l,Incorrect,,,,,,t3.png,t4.png,1,0.909,19,Female,2020-09-16_14h03.22.553,torte-2b,2020.1.3,Win32,60,13280,0.38622,,,,,,,,,,,,,,,,,,,,,,,,,,,,,,,,,,,,,0,60,60,106,1,,,,,,,,,,,,,,,,,,,,,,,,
,,,,,,,,,,,,a,Correct!,,,,,,t2.png,t2.png,0,0.98115,19,Female,2020-09-16_14h03.22.553,torte-2b,2020.1.3,Win32,60,13280,0.965385,,,,,,,,,,,,,,,,,,,,,,,,,,,,,,,,,,,,,0,61,61,57,1,,,,,,,,,,,,,,,,,,,,,,,,
,,,,,,,,,,,,a,Correct!,,,,,,t1.png,t2.png,1,0.90025,19,Female,2020-09-16_14h03.22.553,torte-2b,2020.1.3,Win32,60,13280,0.89845,,,,,,,,,,,,,,,,,,,,,,,,,,,,,,,,,,,,,0,62,62,105,1,,,,,,,,,,,,,,,,,,,,,,,,
,,,,,,,,,,,,l,Correct!,,,,,,t4.png,t2.png,2,0.059078,19,Female,2020-09-16_14h03.22.553,torte-2b,2020.1.3,Win32,60,13280,1.231485,,,,,,,,,,,,,,,,,,,,,,,,,,,,,,,,,,,,,0,63,63,88,1,,,,,,,,,,,,,,,,,,,,,,,,
,,,,,,,,,,,,a,Correct!,,,,,,t3.png,t2.png,1,0.909,19,Female,2020-09-16_14h03.22.553,torte-2b,2020.1.3,Win32,60,13280,1.166575,,,,,,,,,,,,,,,,,,,,,,,,,,,,,,,,,,,,,0,64,64,23,1,,,,,,,,,,,,,,,,,,,,,,,,
,,,,,,,,,,,,a,Correct!,,,,,,t3.png,t2.png,1,0.90855,19,Female,2020-09-16_14h03.22.553,torte-2b,2020.1.3,Win32,60,13280,0.78198,,,,,,,,,,,,,,,,,,,,,,,,,,,,,,,,,,,,,0,65,65,97,1,,,,,,,,,,,,,,,,,,,,,,,,
,,,,,,,,,,,,a,Correct!,,,,,,t2.png,t2.png,0,0.98115,19,Female,2020-09-16_14h03.22.553,torte-2b,2020.1.3,Win32,60,13280,0.95223,,,,,,,,,,,,,,,,,,,,,,,,,,,,,,,,,,,,,0,66,66,7,1,,,,,,,,,,,,,,,,,,,,,,,,
,,,,,,,,,,,,a,Correct!,,,,,,t2.png,t1.png,1,0.9,19,Female,2020-09-16_14h03.22.553,torte-2b,2020.1.3,Win32,60,13280,1.14853,,,,,,,,,,,,,,,,,,,,,,,,,,,,,,,,,,,,,0,67,67,118,1,,,,,,,,,,,,,,,,,,,,,,,,
,,,,,,,,,,,,a,Correct!,,,,,,t4.png,t3.png,1,0.909,19,Female,2020-09-16_14h03.22.553,torte-2b,2020.1.3,Win32,60,13280,1.26758,,,,,,,,,,,,,,,,,,,,,,,,,,,,,,,,,,,,,0,68,68,20,1,,,,,,,,,,,,,,,,,,,,,,,,
,,,,,,,,,,,,l,Incorrect,,,,,,t1.png,t3.png,2,0.056466,19,Female,2020-09-16_14h03.22.553,torte-2b,2020.1.3,Win32,60,13280,1.28355,,,,,,,,,,,,,,,,,,,,,,,,,,,,,,,,,,,,,0,69,69,99,1,,,,,,,,,,,,,,,,,,,,,,,,
,,,,,,,,,,,,a,Correct!,,,,,,t2.png,t2.png,0,0.98115,19,Female,2020-09-16_14h03.22.553,torte-2b,2020.1.3,Win32,60,13280,1.433625,,,,,,,,,,,,,,,,,,,,,,,,,,,,,,,,,,,,,0,70,70,59,1,,,,,,,,,,,,,,,,,,,,,,,,
,,,,,,,,,,,,a,Correct!,,,,,,t1.png,t1.png,0,0.978,19,Female,2020-09-16_14h03.22.553,torte-2b,2020.1.3,Win32,60,13280,2.279255,,,,,,,,,,,,,,,,,,,,,,,,,,,,,,,,,,,,,0,71,71,54,1,,,,,,,,,,,,,,,,,,,,,,,,
,,,,,,,,,,,,a,Correct!,,,,,,t2.png,t3.png,1,0.90855,19,Female,2020-09-16_14h03.22.553,torte-2b,2020.1.3,Win32,60,13280,1.448125,,,,,,,,,,,,,,,,,,,,,,,,,,,,,,,,,,,,,0,72,72,10,1,,,,,,,,,,,,,,,,,,,,,,,,
,,,,,,,,,,,,l,Incorrect,,,,,,t1.png,t3.png,2,0.056466,19,Female,2020-09-16_14h03.22.553,torte-2b,2020.1.3,Win32,60,13280,1.235685,,,,,,,,,,,,,,,,,,,,,,,,,,,,,,,,,,,,,0,73,73,63,1,,,,,,,,,,,,,,,,,,,,,,,,
,,,,,,,,,,,,l,Correct!,,,,,,t2.png,t5.png,3,0.0000131,19,Female,2020-09-16_14h03.22.553,torte-2b,2020.1.3,Win32,60,13280,0.90625,,,,,,,,,,,,,,,,,,,,,,,,,,,,,,,,,,,,,0,74,74,66,1,,,,,,,,,,,,,,,,,,,,,,,,
,,,,,,,,,,,,a,Correct!,,,,,,t1.png,t2.png,1,0.9,19,Female,2020-09-16_14h03.22.553,torte-2b,2020.1.3,Win32,60,13280,1.86347,,,,,,,,,,,,,,,,,,,,,,,,,,,,,,,,,,,,,0,75,75,1,1,,,,,,,,,,,,,,,,,,,,,,,,
,,,,,,,,,,,,l,Correct!,,,,,,t1.png,t3.png,2,0.056466,19,Female,2020-09-16_14h03.22.553,torte-2b,2020.1.3,Win32,60,13280,1.04852,,,,,,,,,,,,,,,,,,,,,,,,,,,,,,,,,,,,,0,76,76,87,1,,,,,,,,,,,,,,,,,,,,,,,,
,,,,,,,,,,,,l,Correct!,,,,,,t3.png,t5.png,2,0.056466,19,Female,2020-09-16_14h03.22.553,torte-2b,2020.1.3,Win32,60,13280,1.780045,,,,,,,,,,,,,,,,,,,,,,,,,,,,,,,,,,,,,0,77,77,6,1,,,,,,,,,,,,,,,,,,,,,,,,
,,,,,,,,,,,,a,Correct!,,,,,,t4.png,t3.png,1,0.90855,19,Female,2020-09-16_14h03.22.553,torte-2b,2020.1.3,Win32,60,13280,1.197665,,,,,,,,,,,,,,,,,,,,,,,,,,,,,,,,,,,,,0,78,78,75,1,,,,,,,,,,,,,,,,,,,,,,,,
,,,,,,,,,,,,l,Correct!,,,,,,t3.png,t5.png,2,0.0565,19,Female,2020-09-16_14h03.22.553,torte-2b,2020.1.3,Win32,60,13280,1.16472,,,,,,,,,,,,,,,,,,,,,,,,,,,,,,,,,,,,,0,79,79,30,1,,,,,,,,,,,,,,,,,,,,,,,,
,,,,,,,,,,,,a,Correct!,,,,,,t3.png,t2.png,1,0.90855,19,Female,2020-09-16_14h03.22.553,torte-2b,2020.1.3,Win32,60,13280,1.517025,,,,,,,,,,,,,,,,,,,,,,,,,,,,,,,,,,,,,0,80,80,18,1,,,,,,,,,,,,,,,,,,,,,,,,
,,,,,,,,,,,,a,Correct!,,,,,,t5.png,t4.png,1,0.90025,19,Female,2020-09-16_14h03.22.553,torte-2b,2020.1.3,Win32,60,13280,1.1975,,,,,,,,,,,,,,,,,,,,,,,,,,,,,,,,,,,,,0,81,81,26,1,,,,,,,,,,,,,,,,,,,,,,,,
,,,,,,,,,,,,a,Correct!,,,,,,t3.png,t4.png,1,0.909,19,Female,2020-09-16_14h03.22.553,torte-2b,2020.1.3,Win32,60,13280,1.66985,,,,,,,,,,,,,,,,,,,,,,,,,,,,,,,,,,,,,0,82,82,89,1,,,,,,,,,,,,,,,,,,,,,,,,
,,,,,,,,,,,,a,Correct!,,,,,,t5.png,t5.png,0,0.978,19,Female,2020-09-16_14h03.22.553,torte-2b,2020.1.3,Win32,60,13280,0.6212,,,,,,,,,,,,,,,,,,,,,,,,,,,,,,,,,,,,,0,83,83,117,1,,,,,,,,,,,,,,,,,,,,,,,,
,,,,,,,,,,,,a,Incorrect,,,,,,t2.png,t3.png,1,0.90855,19,Female,2020-09-16_14h03.22.553,torte-2b,2020.1.3,Win32,60,13280,1.035435,,,,,,,,,,,,,,,,,,,,,,,,,,,,,,,,,,,,,0,84,84,68,1,,,,,,,,,,,,,,,,,,,,,,,,
,,,,,,,,,,,,l,Correct!,,,,,,t5.png,t2.png,3,0.0000131,19,Female,2020-09-16_14h03.22.553,torte-2b,2020.1.3,Win32,60,13280,1.080765,,,,,,,,,,,,,,,,,,,,,,,,,,,,,,,,,,,,,0,85,85,119,1,,,,,,,,,,,,,,,,,,,,,,,,
,,,,,,,,,,,,l,Correct!,,,,,,t1.png,t5.png,4,9.55E-11,19,Female,2020-09-16_14h03.22.553,torte-2b,2020.1.3,Win32,60,13280,0.831945,,,,,,,,,,,,,,,,,,,,,,,,,,,,,,,,,,,,,0,86,86,55,1,,,,,,,,,,,,,,,,,,,,,,,,
,,,,,,,,,,,,a,Correct!,,,,,,t4.png,t5.png,1,0.90025,19,Female,2020-09-16_14h03.22.553,torte-2b,2020.1.3,Win32,60,13280,1.031505,,,,,,,,,,,,,,,,,,,,,,,,,,,,,,,,,,,,,0,87,87,58,1,,,,,,,,,,,,,,,,,,,,,,,,
,,,,,,,,,,,,l,Correct!,,,,,,t5.png,t1.png,4,9.55E-11,19,Female,2020-09-16_14h03.22.553,torte-2b,2020.1.3,Win32,60,13280,0.70268,,,,,,,,,,,,,,,,,,,,,,,,,,,,,,,,,,,,,0,88,88,43,1,,,,,,,,,,,,,,,,,,,,,,,,
,,,,,,,,,,,,l,Correct!,,,,,,t5.png,t1.png,4,9.55E-11,19,Female,2020-09-16_14h03.22.553,torte-2b,2020.1.3,Win32,60,13280,0.76559,,,,,,,,,,,,,,,,,,,,,,,,,,,,,,,,,,,,,0,89,89,22,1,,,,,,,,,,,,,,,,,,,,,,,,
,,,,,,,,,,,,l,Correct!,,,,,,t5.png,t2.png,3,0.0000131,19,Female,2020-09-16_14h03.22.553,torte-2b,2020.1.3,Win32,60,13280,0.7236,,,,,,,,,,,,,,,,,,,,,,,,,,,,,,,,,,,,,0,90,90,91,1,,,,,,,,,,,,,,,,,,,,,,,,
,,,,,,,,,,,,a,Correct!,,,,,,t2.png,t3.png,1,0.90855,19,Female,2020-09-16_14h03.22.553,torte-2b,2020.1.3,Win32,60,13280,1.8692,,,,,,,,,,,,,,,,,,,,,,,,,,,,,,,,,,,,,0,91,91,65,1,,,,,,,,,,,,,,,,,,,,,,,,
,,,,,,,,,,,,l,Correct!,,,,,,t4.png,t2.png,2,0.0591,19,Female,2020-09-16_14h03.22.553,torte-2b,2020.1.3,Win32,60,13280,1.531105,,,,,,,,,,,,,,,,,,,,,,,,,,,,,,,,,,,,,0,92,92,36,1,,,,,,,,,,,,,,,,,,,,,,,,
,,,,,,,,,,,,l,Correct!,,,,,,t4.png,t1.png,3,0.0000131,19,Female,2020-09-16_14h03.22.553,torte-2b,2020.1.3,Win32,60,13280,1.729395,,,,,,,,,,,,,,,,,,,,,,,,,,,,,,,,,,,,,0,93,93,13,1,,,,,,,,,,,,,,,,,,,,,,,,
,,,,,,,,,,,,l,Correct!,,,,,,t5.png,t3.png,2,0.056466,19,Female,2020-09-16_14h03.22.553,torte-2b,2020.1.3,Win32,60,13280,1.712955,,,,,,,,,,,,,,,,,,,,,,,,,,,,,,,,,,,,,0,94,94,38,1,,,,,,,,,,,,,,,,,,,,,,,,
,,,,,,,,,,,,l,Correct!,,,,,,t3.png,t5.png,2,0.056466,19,Female,2020-09-16_14h03.22.553,torte-2b,2020.1.3,Win32,60,13280,1.84585,,,,,,,,,,,,,,,,,,,,,,,,,,,,,,,,,,,,,0,95,95,44,1,,,,,,,,,,,,,,,,,,,,,,,,
,,,,,,,,,,,,l,Correct!,,,,,,t4.png,t1.png,3,0.0000131,19,Female,2020-09-16_14h03.22.553,torte-2b,2020.1.3,Win32,60,13280,1.081405,,,,,,,,,,,,,,,,,,,,,,,,,,,,,,,,,,,,,0,96,96,93,1,,,,,,,,,,,,,,,,,,,,,,,,
,,,,,,,,,,,,l,Correct!,,,,,,t1.png,t5.png,4,9.55E-11,19,Female,2020-09-16_14h03.22.553,torte-2b,2020.1.3,Win32,60,13280,1.056065,,,,,,,,,,,,,,,,,,,,,,,,,,,,,,,,,,,,,0,97,97,12,1,,,,,,,,,,,,,,,,,,,,,,,,
,,,,,,,,,,,,a,Correct!,,,,,,t5.png,t4.png,1,0.90025,19,Female,2020-09-16_14h03.22.553,torte-2b,2020.1.3,Win32,60,13280,1.736595,,,,,,,,,,,,,,,,,,,,,,,,,,,,,,,,,,,,,0,98,98,27,1,,,,,,,,,,,,,,,,,,,,,,,,
,,,,,,,,,,,,l,Correct!,,,,,,t1.png,t3.png,2,0.056466,19,Female,2020-09-16_14h03.22.553,torte-2b,2020.1.3,Win32,60,13280,0.968445,,,,,,,,,,,,,,,,,,,,,,,,,,,,,,,,,,,,,0,99,99,69,1,,,,,,,,,,,,,,,,,,,,,,,,
,,,,,,,,,,,,a,Correct!,,,,,,t2.png,t1.png,1,0.90025,19,Female,2020-09-16_14h03.22.553,torte-2b,2020.1.3,Win32,60,13280,1.10493,,,,,,,,,,,,,,,,,,,,,,,,,,,,,,,,,,,,,0,100,100,62,1,,,,,,,,,,,,,,,,,,,,,,,,
,,,,,,,,,,,,l,Incorrect,,,,,,t1.png,t3.png,2,0.056466,19,Female,2020-09-16_14h03.22.553,torte-2b,2020.1.3,Win32,60,13280,1.28142,,,,,,,,,,,,,,,,,,,,,,,,,,,,,,,,,,,,,0,101,101,60,1,,,,,,,,,,,,,,,,,,,,,,,,
,,,,,,,,,,,,l,Correct!,,,,,,t1.png,t5.png,4,9.55E-11,19,Female,2020-09-16_14h03.22.553,torte-2b,2020.1.3,Win32,60,13280,1.03577,,,,,,,,,,,,,,,,,,,,,,,,,,,,,,,,,,,,,0,102,102,16,1,,,,,,,,,,,,,,,,,,,,,,,,
,,,,,,,,,,,,a,Correct!,,,,,,t1.png,t1.png,0,0.97829,19,Female,2020-09-16_14h03.22.553,torte-2b,2020.1.3,Win32,60,13280,0.67097,,,,,,,,,,,,,,,,,,,,,,,,,,,,,,,,,,,,,0,103,103,9,1,,,,,,,,,,,,,,,,,,,,,,,,
,,,,,,,,,,,,a,Correct!,,,,,,t3.png,t4.png,1,0.90855,19,Female,2020-09-16_14h03.22.553,torte-2b,2020.1.3,Win32,60,13280,1.08892,,,,,,,,,,,,,,,,,,,,,,,,,,,,,,,,,,,,,0,104,104,96,1,,,,,,,,,,,,,,,,,,,,,,,,
,,,,,,,,,,,,a,Incorrect,,,,,,t4.png,t5.png,1,0.90025,19,Female,2020-09-16_14h03.22.553,torte-2b,2020.1.3,Win32,60,13280,0.86683,,,,,,,,,,,,,,,,,,,,,,,,,,,,,,,,,,,,,0,105,105,47,1,,,,,,,,,,,,,,,,,,,,,,,,
,,,,,,,,,,,,l,Correct!,,,,,,t5.png,t2.png,3,0.0000131,19,Female,2020-09-16_14h03.22.553,torte-2b,2020.1.3,Win32,60,13280,1.163965,,,,,,,,,,,,,,,,,,,,,,,,,,,,,,,,,,,,,0,106,106,98,1,,,,,,,,,,,,,,,,,,,,,,,,
,,,,,,,,,,,,a,Correct!,,,,,,t5.png,t5.png,0,0.97829,19,Female,2020-09-16_14h03.22.553,torte-2b,2020.1.3,Win32,60,13280,0.936325,,,,,,,,,,,,,,,,,,,,,,,,,,,,,,,,,,,,,0,107,107,70,1,,,,,,,,,,,,,,,,,,,,,,,,
,,,,,,,,,,,,a,Correct!,,,,,,t2.png,t1.png,1,0.90025,19,Female,2020-09-16_14h03.22.553,torte-2b,2020.1.3,Win32,60,13280,0.781835,,,,,,,,,,,,,,,,,,,,,,,,,,,,,,,,,,,,,0,108,108,5,1,,,,,,,,,,,,,,,,,,,,,,,,
,,,,,,,,,,,,l,Correct!,,,,,,t5.png,t3.png,2,0.0565,19,Female,2020-09-16_14h03.22.553,torte-2b,2020.1.3,Win32,60,13280,1.51645,,,,,,,,,,,,,,,,,,,,,,,,,,,,,,,,,,,,,0,109,109,39,1,,,,,,,,,,,,,,,,,,,,,,,,
,,,,,,,,,,,,a,Correct!,,,,,,t1.png,t2.png,1,0.90025,19,Female,2020-09-16_14h03.22.553,torte-2b,2020.1.3,Win32,60,13280,1.06251,,,,,,,,,,,,,,,,,,,,,,,,,,,,,,,,,,,,,0,110,110,33,1,,,,,,,,,,,,,,,,,,,,,,,,
,,,,,,,,,,,,a,Correct!,,,,,,t5.png,t4.png,1,0.90025,19,Female,2020-09-16_14h03.22.553,torte-2b,2020.1.3,Win32,60,13280,1.64875,,,,,,,,,,,,,,,,,,,,,,,,,,,,,,,,,,,,,0,111,111,34,1,,,,,,,,,,,,,,,,,,,,,,,,
,,,,,,,,,,,,l,Correct!,,,,,,t4.png,t1.png,3,0.0000131,19,Female,2020-09-16_14h03.22.553,torte-2b,2020.1.3,Win32,60,13280,1.796275,,,,,,,,,,,,,,,,,,,,,,,,,,,,,,,,,,,,,0,112,112,48,1,,,,,,,,,,,,,,,,,,,,,,,,
,,,,,,,,,,,,a,Correct!,,,,,,t4.png,t5.png,1,0.90025,19,Female,2020-09-16_14h03.22.553,torte-2b,2020.1.3,Win32,60,13280,2.035915,,,,,,,,,,,,,,,,,,,,,,,,,,,,,,,,,,,,,0,113,113,113,1,,,,,,,,,,,,,,,,,,,,,,,,
,,,,,,,,,,,,l,Correct!,,,,,,t5.png,t2.png,3,0.0000131,19,Female,2020-09-16_14h03.22.553,torte-2b,2020.1.3,Win32,60,13280,1.03253,,,,,,,,,,,,,,,,,,,,,,,,,,,,,,,,,,,,,0,114,114,51,1,,,,,,,,,,,,,,,,,,,,,,,,
,,,,,,,,,,,,l,Correct!,,,,,,t2.png,t5.png,3,0.0000131,19,Female,2020-09-16_14h03.22.553,torte-2b,2020.1.3,Win32,60,13280,0.83681,,,,,,,,,,,,,,,,,,,,,,,,,,,,,,,,,,,,,0,115,115,104,1,,,,,,,,,,,,,,,,,,,,,,,,
,,,,,,,,,,,,l,Correct!,,,,,,t1.png,t4.png,3,0.0000131,19,Female,2020-09-16_14h03.22.553,torte-2b,2020.1.3,Win32,60,13280,1.014115,,,,,,,,,,,,,,,,,,,,,,,,,,,,,,,,,,,,,0,116,116,50,1,,,,,,,,,,,,,,,,,,,,,,,,
,,,,,,,,,,,,a,Correct!,,,,,,t2.png,t3.png,1,0.90855,19,Female,2020-09-16_14h03.22.553,torte-2b,2020.1.3,Win32,60,13280,0.997155,,,,,,,,,,,,,,,,,,,,,,,,,,,,,,,,,,,,,0,117,117,111,1,,,,,,,,,,,,,,,,,,,,,,,,
,,,,,,,,,,,,l,Correct!,,,,,,t3.png,t1.png,2,0.056466,19,Female,2020-09-16_14h03.22.553,torte-2b,2020.1.3,Win32,60,13280,1.084425,,,,,,,,,,,,,,,,,,,,,,,,,,,,,,,,,,,,,0,118,118,0,1,,,,,,,,,,,,,,,,,,,,,,,,
,,,,,,,,,,,,l,Correct!,,,,,,t4.png,t2.png,2,0.059078,19,Female,2020-09-16_14h03.22.553,torte-2b,2020.1.3,Win32,60,13280,0.922665,,,,,,,,,,,,,,,,,,,,,,,,,,,,,,,,,,,,,0,119,119,86,1,,,,,,,,,,,,,,,,,,,,,,,,
,,,,,,,,,,,,,,,,,,,,,,,19,Female,2020-09-16_14h03.22.553,torte-2b,2020.1.3,Win32,60,13280,,space,4.05031,,,,,,,,,,,,,,,,,,,,,,,,,,,,,,,,,,,,,,,,88.80001277,171.1999717,1,0,0,s1,29.60006071,83.19997039,1,0,0,t1,189.6000143,-97.60005672,1,0,0,proceed,space,2.964295,space,0.783055,space,0.3666
