key_resp_8.keys,key_resp_8.rt,key_resp_9.keys,key_resp_9.rt,key_resp_10.keys,key_resp_10.rt,key_resp_11.keys,key_resp_11.rt,key_resp_2.keys,key_resp_2.rt,key_resp_3.keys,key_resp_3.rt,key_resp.keys,key_resp.rt,Feedback,train.thisRepN,train.thisTrialN,train.thisN,train.thisIndex,train.ran,torta_sx,torta_dx,difference,probability,age,gender,date,expName,psychopyVersion,OS,frameRate,participant,key_resp_15.keys,key_resp_15.rt,key_resp_6.keys,key_resp_6.rt,test1.thisRepN,test1.thisTrialN,test1.thisN,test1.thisIndex,test1.ran,key_resp_4.keys,key_resp_4.rt,key_resp_5.keys,back1.thisRepN,back1.thisTrialN,back1.thisN,back1.thisIndex,back1.ran,letter,key_resp_5.rt,back2.thisRepN,back2.thisTrialN,back2.thisN,back2.thisIndex,back2.ran,back3.thisRepN,back3.thisTrialN,back3.thisN,back3.thisIndex,back3.ran,back4.thisRepN,back4.thisTrialN,back4.thisN,back4.thisIndex,back4.ran,key_resp_7.keys,key_resp_7.rt,test2.thisRepN,test2.thisTrialN,test2.thisN,test2.thisIndex,test2.ran,mouse.x,mouse.y,mouse.leftButton,mouse.midButton,mouse.rightButton,mouse.clicked_name,mouse_2.x,mouse_2.y,mouse_2.leftButton,mouse_2.midButton,mouse_2.rightButton,mouse_2.clicked_name,mouse_3.x,mouse_3.y,mouse_3.leftButton,mouse_3.midButton,mouse_3.rightButton,mouse_3.clicked_name,key_resp_12.keys,key_resp_12.rt,key_resp_13.keys,key_resp_13.rt,key_resp_14.keys,key_resp_14.rt
space,23.894415,space,23.515945,space,14.41567,space,14.23541,space,24.170715,space,113.00003,l,0.96317,Incorrect,0,0,0,15,1,t2.png,t3.png,1,0.90855,19,Female,2020-08-21_14h15.59.760,torte-2b,2020.1.3,Win32,60,13289,,,,,,,,,,,,,,,,,,,,,,,,,,,,,,,,,,,,,,,,,,,,,,,,,,,,,,,,,,,,,,,,,
,,,,,,,,,,,,a,1.17098,Incorrect,0,1,1,110,1,t4.png,t5.png,1,0.90025,19,Female,2020-08-21_14h15.59.760,torte-2b,2020.1.3,Win32,60,13289,,,,,,,,,,,,,,,,,,,,,,,,,,,,,,,,,,,,,,,,,,,,,,,,,,,,,,,,,,,,,,,,,
,,,,,,,,,,,,l,1.420205,Correct!,0,2,2,103,1,t4.png,t1.png,3,0.059078,19,Female,2020-08-21_14h15.59.760,torte-2b,2020.1.3,Win32,60,13289,,,,,,,,,,,,,,,,,,,,,,,,,,,,,,,,,,,,,,,,,,,,,,,,,,,,,,,,,,,,,,,,,
,,,,,,,,,,,,l,0.692995,Incorrect,0,3,3,12,1,t5.png,t5.png,0,0.97829,19,Female,2020-08-21_14h15.59.760,torte-2b,2020.1.3,Win32,60,13289,,,,,,,,,,,,,,,,,,,,,,,,,,,,,,,,,,,,,,,,,,,,,,,,,,,,,,,,,,,,,,,,,
,,,,,,,,,,,,l,0.935275,Incorrect,0,4,4,41,1,t4.png,t5.png,1,0.90025,19,Female,2020-08-21_14h15.59.760,torte-2b,2020.1.3,Win32,60,13289,,,,,,,,,,,,,,,,,,,,,,,,,,,,,,,,,,,,,,,,,,,,,,,,,,,,,,,,,,,,,,,,,
,,,,,,,,,,,,l,1.215075,Incorrect,0,5,5,104,1,t4.png,t5.png,1,0.90025,19,Female,2020-08-21_14h15.59.760,torte-2b,2020.1.3,Win32,60,13289,,,,,,,,,,,,,,,,,,,,,,,,,,,,,,,,,,,,,,,,,,,,,,,,,,,,,,,,,,,,,,,,,
,,,,,,,,,,,,l,1.039,Incorrect,0,6,6,109,1,t5.png,t5.png,0,0.97829,19,Female,2020-08-21_14h15.59.760,torte-2b,2020.1.3,Win32,60,13289,,,,,,,,,,,,,,,,,,,,,,,,,,,,,,,,,,,,,,,,,,,,,,,,,,,,,,,,,,,,,,,,,
,,,,,,,,,,,,a,1.04535,Incorrect,0,7,7,78,1,t1.png,t4.png,3,0.0000131,19,Female,2020-08-21_14h15.59.760,torte-2b,2020.1.3,Win32,60,13289,,,,,,,,,,,,,,,,,,,,,,,,,,,,,,,,,,,,,,,,,,,,,,,,,,,,,,,,,,,,,,,,,
,,,,,,,,,,,,a,1.105655,Correct!,0,8,8,112,1,t5.png,t4.png,1,0.90025,19,Female,2020-08-21_14h15.59.760,torte-2b,2020.1.3,Win32,60,13289,,,,,,,,,,,,,,,,,,,,,,,,,,,,,,,,,,,,,,,,,,,,,,,,,,,,,,,,,,,,,,,,,
,,,,,,,,,,,,a,1.41829,Correct!,0,9,9,114,1,t5.png,t4.png,1,0.90025,19,Female,2020-08-21_14h15.59.760,torte-2b,2020.1.3,Win32,60,13289,,,,,,,,,,,,,,,,,,,,,,,,,,,,,,,,,,,,,,,,,,,,,,,,,,,,,,,,,,,,,,,,,
,,,,,,,,,,,,l,0.912685,Incorrect,0,10,10,111,1,t1.png,t1.png,0,0.97829,19,Female,2020-08-21_14h15.59.760,torte-2b,2020.1.3,Win32,60,13289,,,,,,,,,,,,,,,,,,,,,,,,,,,,,,,,,,,,,,,,,,,,,,,,,,,,,,,,,,,,,,,,,
,,,,,,,,,,,,a,1.081265,Incorrect,0,11,11,66,1,t5.png,t1.png,4,9.55E-11,19,Female,2020-08-21_14h15.59.760,torte-2b,2020.1.3,Win32,60,13289,,,,,,,,,,,,,,,,,,,,,,,,,,,,,,,,,,,,,,,,,,,,,,,,,,,,,,,,,,,,,,,,,
,,,,,,,,,,,,l,1.020475,Incorrect,0,12,12,56,1,t2.png,t3.png,1,0.90855,19,Female,2020-08-21_14h15.59.760,torte-2b,2020.1.3,Win32,60,13289,,,,,,,,,,,,,,,,,,,,,,,,,,,,,,,,,,,,,,,,,,,,,,,,,,,,,,,,,,,,,,,,,
,,,,,,,,,,,,l,0.790605,Correct!,0,13,13,26,1,t1.png,t5.png,4,9.55E-11,19,Female,2020-08-21_14h15.59.760,torte-2b,2020.1.3,Win32,60,13289,,,,,,,,,,,,,,,,,,,,,,,,,,,,,,,,,,,,,,,,,,,,,,,,,,,,,,,,,,,,,,,,,
,,,,,,,,,,,,a,1.352955,Correct!,0,14,14,91,1,t5.png,t4.png,1,0.90025,19,Female,2020-08-21_14h15.59.760,torte-2b,2020.1.3,Win32,60,13289,,,,,,,,,,,,,,,,,,,,,,,,,,,,,,,,,,,,,,,,,,,,,,,,,,,,,,,,,,,,,,,,,
,,,,,,,,,,,,a,1.052845,Correct!,0,15,15,90,1,t4.png,t5.png,1,0.90025,19,Female,2020-08-21_14h15.59.760,torte-2b,2020.1.3,Win32,60,13289,,,,,,,,,,,,,,,,,,,,,,,,,,,,,,,,,,,,,,,,,,,,,,,,,,,,,,,,,,,,,,,,,
,,,,,,,,,,,,l,0.889275,Incorrect,0,16,16,30,1,t2.png,t3.png,1,0.90855,19,Female,2020-08-21_14h15.59.760,torte-2b,2020.1.3,Win32,60,13289,,,,,,,,,,,,,,,,,,,,,,,,,,,,,,,,,,,,,,,,,,,,,,,,,,,,,,,,,,,,,,,,,
,,,,,,,,,,,,a,1.422275,Incorrect,0,17,17,99,1,t4.png,t1.png,3,0.059078,19,Female,2020-08-21_14h15.59.760,torte-2b,2020.1.3,Win32,60,13289,,,,,,,,,,,,,,,,,,,,,,,,,,,,,,,,,,,,,,,,,,,,,,,,,,,,,,,,,,,,,,,,,
,,,,,,,,,,,,a,0.861005,Correct!,0,18,18,22,1,t5.png,t5.png,0,0.97829,19,Female,2020-08-21_14h15.59.760,torte-2b,2020.1.3,Win32,60,13289,,,,,,,,,,,,,,,,,,,,,,,,,,,,,,,,,,,,,,,,,,,,,,,,,,,,,,,,,,,,,,,,,
,,,,,,,,,,,,a,0.85311,Correct!,0,19,19,86,1,t5.png,t4.png,1,0.90025,19,Female,2020-08-21_14h15.59.760,torte-2b,2020.1.3,Win32,60,13289,,,,,,,,,,,,,,,,,,,,,,,,,,,,,,,,,,,,,,,,,,,,,,,,,,,,,,,,,,,,,,,,,
,,,,,,,,,,,,a,0.669435,Correct!,0,20,20,69,1,t5.png,t4.png,1,0.90025,19,Female,2020-08-21_14h15.59.760,torte-2b,2020.1.3,Win32,60,13289,,,,,,,,,,,,,,,,,,,,,,,,,,,,,,,,,,,,,,,,,,,,,,,,,,,,,,,,,,,,,,,,,
,,,,,,,,,,,,a,0.690365,Correct!,0,21,21,93,1,t5.png,t4.png,1,0.90025,19,Female,2020-08-21_14h15.59.760,torte-2b,2020.1.3,Win32,60,13289,,,,,,,,,,,,,,,,,,,,,,,,,,,,,,,,,,,,,,,,,,,,,,,,,,,,,,,,,,,,,,,,,
,,,,,,,,,,,,l,1.088215,Correct!,0,22,22,44,1,t1.png,t4.png,3,0.0000131,19,Female,2020-08-21_14h15.59.760,torte-2b,2020.1.3,Win32,60,13289,,,,,,,,,,,,,,,,,,,,,,,,,,,,,,,,,,,,,,,,,,,,,,,,,,,,,,,,,,,,,,,,,
,,,,,,,,,,,,a,1.519595,Correct!,0,23,23,7,1,t3.png,t2.png,1,0.90855,19,Female,2020-08-21_14h15.59.760,torte-2b,2020.1.3,Win32,60,13289,,,,,,,,,,,,,,,,,,,,,,,,,,,,,,,,,,,,,,,,,,,,,,,,,,,,,,,,,,,,,,,,,
,,,,,,,,,,,,a,0.56756,Correct!,0,24,24,85,1,t5.png,t4.png,1,0.90025,19,Female,2020-08-21_14h15.59.760,torte-2b,2020.1.3,Win32,60,13289,,,,,,,,,,,,,,,,,,,,,,,,,,,,,,,,,,,,,,,,,,,,,,,,,,,,,,,,,,,,,,,,,
,,,,,,,,,,,,l,1.238085,Incorrect,0,25,25,88,1,t1.png,t1.png,0,0.97829,19,Female,2020-08-21_14h15.59.760,torte-2b,2020.1.3,Win32,60,13289,,,,,,,,,,,,,,,,,,,,,,,,,,,,,,,,,,,,,,,,,,,,,,,,,,,,,,,,,,,,,,,,,
,,,,,,,,,,,,a,0.666055,Correct!,0,26,26,97,1,t1.png,t1.png,0,0.97829,19,Female,2020-08-21_14h15.59.760,torte-2b,2020.1.3,Win32,60,13289,,,,,,,,,,,,,,,,,,,,,,,,,,,,,,,,,,,,,,,,,,,,,,,,,,,,,,,,,,,,,,,,,
,,,,,,,,,,,,l,1.37412,Correct!,0,27,27,105,1,t4.png,t1.png,3,0.059078,19,Female,2020-08-21_14h15.59.760,torte-2b,2020.1.3,Win32,60,13289,,,,,,,,,,,,,,,,,,,,,,,,,,,,,,,,,,,,,,,,,,,,,,,,,,,,,,,,,,,,,,,,,
,,,,,,,,,,,,a,0.866395,Correct!,0,28,28,21,1,t5.png,t4.png,1,0.90025,19,Female,2020-08-21_14h15.59.760,torte-2b,2020.1.3,Win32,60,13289,,,,,,,,,,,,,,,,,,,,,,,,,,,,,,,,,,,,,,,,,,,,,,,,,,,,,,,,,,,,,,,,,
,,,,,,,,,,,,l,1.48625,Correct!,0,29,29,96,1,t2.png,t4.png,2,0.059078,19,Female,2020-08-21_14h15.59.760,torte-2b,2020.1.3,Win32,60,13289,,,,,,,,,,,,,,,,,,,,,,,,,,,,,,,,,,,,,,,,,,,,,,,,,,,,,,,,,,,,,,,,,
,,,,,,,,,,,,a,1.53594,Correct!,0,30,30,14,1,t2.png,t3.png,1,0.90855,19,Female,2020-08-21_14h15.59.760,torte-2b,2020.1.3,Win32,60,13289,,,,,,,,,,,,,,,,,,,,,,,,,,,,,,,,,,,,,,,,,,,,,,,,,,,,,,,,,,,,,,,,,
,,,,,,,,,,,,l,1.82137,Correct!,0,31,31,50,1,t1.png,t5.png,4,9.55E-11,19,Female,2020-08-21_14h15.59.760,torte-2b,2020.1.3,Win32,60,13289,,,,,,,,,,,,,,,,,,,,,,,,,,,,,,,,,,,,,,,,,,,,,,,,,,,,,,,,,,,,,,,,,
,,,,,,,,,,,,l,0.688075,Correct!,0,32,32,38,1,t1.png,t1.png,0,0.97829,19,Female,2020-08-21_14h15.59.760,torte-2b,2020.1.3,Win32,60,13289,,,,,,,,,,,,,,,,,,,,,,,,,,,,,,,,,,,,,,,,,,,,,,,,,,,,,,,,,,,,,,,,,
,,,,,,,,,,,,l,1.665675,Incorrect,0,33,33,71,1,t4.png,t5.png,1,0.90025,19,Female,2020-08-21_14h15.59.760,torte-2b,2020.1.3,Win32,60,13289,,,,,,,,,,,,,,,,,,,,,,,,,,,,,,,,,,,,,,,,,,,,,,,,,,,,,,,,,,,,,,,,,
,,,,,,,,,,,,a,0.9021,Correct!,0,34,34,42,1,t5.png,t5.png,0,0.97829,19,Female,2020-08-21_14h15.59.760,torte-2b,2020.1.3,Win32,60,13289,,,,,,,,,,,,,,,,,,,,,,,,,,,,,,,,,,,,,,,,,,,,,,,,,,,,,,,,,,,,,,,,,
,,,,,,,,,,,,l,1.370605,Correct!,0,35,35,62,1,t1.png,t4.png,3,0.0000131,19,Female,2020-08-21_14h15.59.760,torte-2b,2020.1.3,Win32,60,13289,,,,,,,,,,,,,,,,,,,,,,,,,,,,,,,,,,,,,,,,,,,,,,,,,,,,,,,,,,,,,,,,,
,,,,,,,,,,,,a,0.719875,Incorrect,0,36,36,49,1,t5.png,t1.png,4,9.55E-11,19,Female,2020-08-21_14h15.59.760,torte-2b,2020.1.3,Win32,60,13289,,,,,,,,,,,,,,,,,,,,,,,,,,,,,,,,,,,,,,,,,,,,,,,,,,,,,,,,,,,,,,,,,
,,,,,,,,,,,,l,1.026325,Correct!,0,37,37,63,1,t1.png,t5.png,4,9.55E-11,19,Female,2020-08-21_14h15.59.760,torte-2b,2020.1.3,Win32,60,13289,,,,,,,,,,,,,,,,,,,,,,,,,,,,,,,,,,,,,,,,,,,,,,,,,,,,,,,,,,,,,,,,,
,,,,,,,,,,,,l,0.952275,Correct!,0,38,38,28,1,t1.png,t4.png,3,0.0000131,19,Female,2020-08-21_14h15.59.760,torte-2b,2020.1.3,Win32,60,13289,,,,,,,,,,,,,,,,,,,,,,,,,,,,,,,,,,,,,,,,,,,,,,,,,,,,,,,,,,,,,,,,,
,,,,,,,,,,,,a,0.69434,Correct!,0,39,39,5,1,t5.png,t5.png,0,0.97829,19,Female,2020-08-21_14h15.59.760,torte-2b,2020.1.3,Win32,60,13289,,,,,,,,,,,,,,,,,,,,,,,,,,,,,,,,,,,,,,,,,,,,,,,,,,,,,,,,,,,,,,,,,
,,,,,,,,,,,,l,0.80695,Correct!,0,40,40,36,1,t1.png,t4.png,3,0.0000131,19,Female,2020-08-21_14h15.59.760,torte-2b,2020.1.3,Win32,60,13289,,,,,,,,,,,,,,,,,,,,,,,,,,,,,,,,,,,,,,,,,,,,,,,,,,,,,,,,,,,,,,,,,
,,,,,,,,,,,,l,1.12344,Incorrect,0,41,41,55,1,t1.png,t1.png,0,0.97829,19,Female,2020-08-21_14h15.59.760,torte-2b,2020.1.3,Win32,60,13289,,,,,,,,,,,,,,,,,,,,,,,,,,,,,,,,,,,,,,,,,,,,,,,,,,,,,,,,,,,,,,,,,
,,,,,,,,,,,,l,1.28458,Correct!,0,42,42,59,1,t5.png,t1.png,4,9.55E-11,19,Female,2020-08-21_14h15.59.760,torte-2b,2020.1.3,Win32,60,13289,,,,,,,,,,,,,,,,,,,,,,,,,,,,,,,,,,,,,,,,,,,,,,,,,,,,,,,,,,,,,,,,,
,,,,,,,,,,,,a,1.892485,Correct!,0,43,43,4,1,t3.png,t2.png,1,0.90855,19,Female,2020-08-21_14h15.59.760,torte-2b,2020.1.3,Win32,60,13289,,,,,,,,,,,,,,,,,,,,,,,,,,,,,,,,,,,,,,,,,,,,,,,,,,,,,,,,,,,,,,,,,
,,,,,,,,,,,,a,1.521325,Correct!,0,44,44,65,1,t5.png,t5.png,0,0.97829,19,Female,2020-08-21_14h15.59.760,torte-2b,2020.1.3,Win32,60,13289,,,,,,,,,,,,,,,,,,,,,,,,,,,,,,,,,,,,,,,,,,,,,,,,,,,,,,,,,,,,,,,,,
,,,,,,,,,,,,a,1.847705,Incorrect,0,45,45,2,1,t3.png,t1.png,2,0.056466,19,Female,2020-08-21_14h15.59.760,torte-2b,2020.1.3,Win32,60,13289,,,,,,,,,,,,,,,,,,,,,,,,,,,,,,,,,,,,,,,,,,,,,,,,,,,,,,,,,,,,,,,,,
,,,,,,,,,,,,l,1.565825,Correct!,0,46,46,13,1,t2.png,t4.png,2,0.059078,19,Female,2020-08-21_14h15.59.760,torte-2b,2020.1.3,Win32,60,13289,,,,,,,,,,,,,,,,,,,,,,,,,,,,,,,,,,,,,,,,,,,,,,,,,,,,,,,,,,,,,,,,,
,,,,,,,,,,,,l,0.868565,Incorrect,0,47,47,75,1,t2.png,t3.png,1,0.90855,19,Female,2020-08-21_14h15.59.760,torte-2b,2020.1.3,Win32,60,13289,,,,,,,,,,,,,,,,,,,,,,,,,,,,,,,,,,,,,,,,,,,,,,,,,,,,,,,,,,,,,,,,,
,,,,,,,,,,,,l,1.03688,Correct!,0,48,48,1,1,t3.png,t1.png,2,0.056466,19,Female,2020-08-21_14h15.59.760,torte-2b,2020.1.3,Win32,60,13289,,,,,,,,,,,,,,,,,,,,,,,,,,,,,,,,,,,,,,,,,,,,,,,,,,,,,,,,,,,,,,,,,
,,,,,,,,,,,,l,1.368955,Correct!,0,49,49,9,1,t1.png,t5.png,4,9.55E-11,19,Female,2020-08-21_14h15.59.760,torte-2b,2020.1.3,Win32,60,13289,,,,,,,,,,,,,,,,,,,,,,,,,,,,,,,,,,,,,,,,,,,,,,,,,,,,,,,,,,,,,,,,,
,,,,,,,,,,,,a,1.144,Correct!,0,50,50,72,1,t5.png,t5.png,0,0.97829,19,Female,2020-08-21_14h15.59.760,torte-2b,2020.1.3,Win32,60,13289,,,,,,,,,,,,,,,,,,,,,,,,,,,,,,,,,,,,,,,,,,,,,,,,,,,,,,,,,,,,,,,,,
,,,,,,,,,,,,l,1.143915,Correct!,0,51,51,3,1,t4.png,t1.png,3,0.059078,19,Female,2020-08-21_14h15.59.760,torte-2b,2020.1.3,Win32,60,13289,,,,,,,,,,,,,,,,,,,,,,,,,,,,,,,,,,,,,,,,,,,,,,,,,,,,,,,,,,,,,,,,,
,,,,,,,,,,,,a,0.85516,Correct!,0,52,52,45,1,t4.png,t5.png,1,0.90025,19,Female,2020-08-21_14h15.59.760,torte-2b,2020.1.3,Win32,60,13289,,,,,,,,,,,,,,,,,,,,,,,,,,,,,,,,,,,,,,,,,,,,,,,,,,,,,,,,,,,,,,,,,
,,,,,,,,,,,,l,0.914545,Incorrect,0,53,53,61,1,t1.png,t1.png,0,0.97829,19,Female,2020-08-21_14h15.59.760,torte-2b,2020.1.3,Win32,60,13289,,,,,,,,,,,,,,,,,,,,,,,,,,,,,,,,,,,,,,,,,,,,,,,,,,,,,,,,,,,,,,,,,
,,,,,,,,,,,,l,0.82367,Correct!,0,54,54,40,1,t2.png,t4.png,2,0.059078,19,Female,2020-08-21_14h15.59.760,torte-2b,2020.1.3,Win32,60,13289,,,,,,,,,,,,,,,,,,,,,,,,,,,,,,,,,,,,,,,,,,,,,,,,,,,,,,,,,,,,,,,,,
,,,,,,,,,,,,l,1.97844,Incorrect,0,55,55,23,1,t4.png,t5.png,1,0.90025,19,Female,2020-08-21_14h15.59.760,torte-2b,2020.1.3,Win32,60,13289,,,,,,,,,,,,,,,,,,,,,,,,,,,,,,,,,,,,,,,,,,,,,,,,,,,,,,,,,,,,,,,,,
,,,,,,,,,,,,l,0.54501,Incorrect,0,56,56,46,1,t1.png,t1.png,0,0.97829,19,Female,2020-08-21_14h15.59.760,torte-2b,2020.1.3,Win32,60,13289,,,,,,,,,,,,,,,,,,,,,,,,,,,,,,,,,,,,,,,,,,,,,,,,,,,,,,,,,,,,,,,,,
,,,,,,,,,,,,l,0.561185,Correct!,0,57,57,115,1,t2.png,t4.png,2,0.059078,19,Female,2020-08-21_14h15.59.760,torte-2b,2020.1.3,Win32,60,13289,,,,,,,,,,,,,,,,,,,,,,,,,,,,,,,,,,,,,,,,,,,,,,,,,,,,,,,,,,,,,,,,,
,,,,,,,,,,,,a,0.62389,Incorrect,0,58,58,117,1,t2.png,t4.png,2,0.059078,19,Female,2020-08-21_14h15.59.760,torte-2b,2020.1.3,Win32,60,13289,,,,,,,,,,,,,,,,,,,,,,,,,,,,,,,,,,,,,,,,,,,,,,,,,,,,,,,,,,,,,,,,,
,,,,,,,,,,,,l,0.545355,Correct!,0,59,59,92,1,t5.png,t1.png,4,9.55E-11,19,Female,2020-08-21_14h15.59.760,torte-2b,2020.1.3,Win32,60,13289,,,,,,,,,,,,,,,,,,,,,,,,,,,,,,,,,,,,,,,,,,,,,,,,,,,,,,,,,,,,,,,,,
,,,,,,,,,,,,l,0.600885,Correct!,0,60,60,54,1,t3.png,t1.png,2,0.056466,19,Female,2020-08-21_14h15.59.760,torte-2b,2020.1.3,Win32,60,13289,,,,,,,,,,,,,,,,,,,,,,,,,,,,,,,,,,,,,,,,,,,,,,,,,,,,,,,,,,,,,,,,,
,,,,,,,,,,,,a,0.45208,Correct!,0,61,61,25,1,t1.png,t1.png,0,0.97829,19,Female,2020-08-21_14h15.59.760,torte-2b,2020.1.3,Win32,60,13289,,,,,,,,,,,,,,,,,,,,,,,,,,,,,,,,,,,,,,,,,,,,,,,,,,,,,,,,,,,,,,,,,
,,,,,,,,,,,,l,0.57444,Incorrect,0,62,62,101,1,t5.png,t4.png,1,0.90025,19,Female,2020-08-21_14h15.59.760,torte-2b,2020.1.3,Win32,60,13289,,,,,,,,,,,,,,,,,,,,,,,,,,,,,,,,,,,,,,,,,,,,,,,,,,,,,,,,,,,,,,,,,
,,,,,,,,,,,,l,0.719725,Incorrect,0,63,63,47,1,t2.png,t3.png,1,0.90855,19,Female,2020-08-21_14h15.59.760,torte-2b,2020.1.3,Win32,60,13289,,,,,,,,,,,,,,,,,,,,,,,,,,,,,,,,,,,,,,,,,,,,,,,,,,,,,,,,,,,,,,,,,
,,,,,,,,,,,,a,1.41967,Incorrect,0,64,64,108,1,t3.png,t1.png,2,0.056466,19,Female,2020-08-21_14h15.59.760,torte-2b,2020.1.3,Win32,60,13289,,,,,,,,,,,,,,,,,,,,,,,,,,,,,,,,,,,,,,,,,,,,,,,,,,,,,,,,,,,,,,,,,
,,,,,,,,,,,,l,0.537145,Incorrect,0,65,65,33,1,t3.png,t2.png,1,0.90855,19,Female,2020-08-21_14h15.59.760,torte-2b,2020.1.3,Win32,60,13289,,,,,,,,,,,,,,,,,,,,,,,,,,,,,,,,,,,,,,,,,,,,,,,,,,,,,,,,,,,,,,,,,
,,,,,,,,,,,,l,0.685215,Incorrect,0,66,66,83,1,t3.png,t2.png,1,0.90855,19,Female,2020-08-21_14h15.59.760,torte-2b,2020.1.3,Win32,60,13289,,,,,,,,,,,,,,,,,,,,,,,,,,,,,,,,,,,,,,,,,,,,,,,,,,,,,,,,,,,,,,,,,
,,,,,,,,,,,,a,0.80444,Correct!,0,67,67,0,1,t3.png,t2.png,1,0.90855,19,Female,2020-08-21_14h15.59.760,torte-2b,2020.1.3,Win32,60,13289,,,,,,,,,,,,,,,,,,,,,,,,,,,,,,,,,,,,,,,,,,,,,,,,,,,,,,,,,,,,,,,,,
,,,,,,,,,,,,a,0.680705,Incorrect,0,68,68,81,1,t3.png,t1.png,2,0.056466,19,Female,2020-08-21_14h15.59.760,torte-2b,2020.1.3,Win32,60,13289,,,,,,,,,,,,,,,,,,,,,,,,,,,,,,,,,,,,,,,,,,,,,,,,,,,,,,,,,,,,,,,,,
,,,,,,,,,,,,a,0.84356,Incorrect,0,69,69,29,1,t3.png,t2.png,1,0.90855,19,Female,2020-08-21_14h15.59.760,torte-2b,2020.1.3,Win32,60,13289,,,,,,,,,,,,,,,,,,,,,,,,,,,,,,,,,,,,,,,,,,,,,,,,,,,,,,,,,,,,,,,,,
,,,,,,,,,,,,a,0.685195,Incorrect,0,70,70,98,1,t5.png,t1.png,4,9.55E-11,19,Female,2020-08-21_14h15.59.760,torte-2b,2020.1.3,Win32,60,13289,,,,,,,,,,,,,,,,,,,,,,,,,,,,,,,,,,,,,,,,,,,,,,,,,,,,,,,,,,,,,,,,,
,,,,,,,,,,,,l,1.120175,Incorrect,0,71,71,100,1,t3.png,t2.png,1,0.90855,19,Female,2020-08-21_14h15.59.760,torte-2b,2020.1.3,Win32,60,13289,,,,,,,,,,,,,,,,,,,,,,,,,,,,,,,,,,,,,,,,,,,,,,,,,,,,,,,,,,,,,,,,,
,,,,,,,,,,,,a,0.697005,Correct!,0,72,72,53,1,t1.png,t1.png,0,0.97829,19,Female,2020-08-21_14h15.59.760,torte-2b,2020.1.3,Win32,60,13289,,,,,,,,,,,,,,,,,,,,,,,,,,,,,,,,,,,,,,,,,,,,,,,,,,,,,,,,,,,,,,,,,
,,,,,,,,,,,,a,0.490175,Correct!,0,73,73,31,1,t1.png,t1.png,0,0.97829,19,Female,2020-08-21_14h15.59.760,torte-2b,2020.1.3,Win32,60,13289,,,,,,,,,,,,,,,,,,,,,,,,,,,,,,,,,,,,,,,,,,,,,,,,,,,,,,,,,,,,,,,,,
,,,,,,,,,,,,l,1.062425,Correct!,0,74,74,79,1,t1.png,t4.png,3,0.0000131,19,Female,2020-08-21_14h15.59.760,torte-2b,2020.1.3,Win32,60,13289,,,,,,,,,,,,,,,,,,,,,,,,,,,,,,,,,,,,,,,,,,,,,,,,,,,,,,,,,,,,,,,,,
,,,,,,,,,,,,l,1.18588,Correct!,0,75,75,106,1,t4.png,t1.png,3,0.059078,19,Female,2020-08-21_14h15.59.760,torte-2b,2020.1.3,Win32,60,13289,,,,,,,,,,,,,,,,,,,,,,,,,,,,,,,,,,,,,,,,,,,,,,,,,,,,,,,,,,,,,,,,,
,,,,,,,,,,,,l,1.185925,Correct!,0,76,76,39,1,t2.png,t4.png,2,0.059078,19,Female,2020-08-21_14h15.59.760,torte-2b,2020.1.3,Win32,60,13289,,,,,,,,,,,,,,,,,,,,,,,,,,,,,,,,,,,,,,,,,,,,,,,,,,,,,,,,,,,,,,,,,
,,,,,,,,,,,,a,0.83508,Incorrect,0,77,77,74,1,t5.png,t1.png,4,9.55E-11,19,Female,2020-08-21_14h15.59.760,torte-2b,2020.1.3,Win32,60,13289,,,,,,,,,,,,,,,,,,,,,,,,,,,,,,,,,,,,,,,,,,,,,,,,,,,,,,,,,,,,,,,,,
,,,,,,,,,,,,l,0.536885,Correct!,0,78,78,64,1,t5.png,t1.png,4,9.55E-11,19,Female,2020-08-21_14h15.59.760,torte-2b,2020.1.3,Win32,60,13289,,,,,,,,,,,,,,,,,,,,,,,,,,,,,,,,,,,,,,,,,,,,,,,,,,,,,,,,,,,,,,,,,
,,,,,,,,,,,,l,0.924235,Correct!,0,79,79,19,1,t2.png,t4.png,2,0.059078,19,Female,2020-08-21_14h15.59.760,torte-2b,2020.1.3,Win32,60,13289,,,,,,,,,,,,,,,,,,,,,,,,,,,,,,,,,,,,,,,,,,,,,,,,,,,,,,,,,,,,,,,,,
,,,,,,,,,,,,l,1.32172,Correct!,0,80,80,68,1,t2.png,t4.png,2,0.059078,19,Female,2020-08-21_14h15.59.760,torte-2b,2020.1.3,Win32,60,13289,,,,,,,,,,,,,,,,,,,,,,,,,,,,,,,,,,,,,,,,,,,,,,,,,,,,,,,,,,,,,,,,,
,,,,,,,,,,,,l,0.97822,Correct!,0,81,81,87,1,t5.png,t1.png,4,9.55E-11,19,Female,2020-08-21_14h15.59.760,torte-2b,2020.1.3,Win32,60,13289,,,,,,,,,,,,,,,,,,,,,,,,,,,,,,,,,,,,,,,,,,,,,,,,,,,,,,,,,,,,,,,,,
,,,,,,,,,,,,l,1.45469,Correct!,0,82,82,27,1,t1.png,t5.png,4,9.55E-11,19,Female,2020-08-21_14h15.59.760,torte-2b,2020.1.3,Win32,60,13289,,,,,,,,,,,,,,,,,,,,,,,,,,,,,,,,,,,,,,,,,,,,,,,,,,,,,,,,,,,,,,,,,
,,,,,,,,,,,,a,1.555555,Incorrect,0,83,83,73,1,t3.png,t1.png,2,0.056466,19,Female,2020-08-21_14h15.59.760,torte-2b,2020.1.3,Win32,60,13289,,,,,,,,,,,,,,,,,,,,,,,,,,,,,,,,,,,,,,,,,,,,,,,,,,,,,,,,,,,,,,,,,
,,,,,,,,,,,,l,1.463315,Incorrect,0,84,84,116,1,t4.png,t5.png,1,0.90025,19,Female,2020-08-21_14h15.59.760,torte-2b,2020.1.3,Win32,60,13289,,,,,,,,,,,,,,,,,,,,,,,,,,,,,,,,,,,,,,,,,,,,,,,,,,,,,,,,,,,,,,,,,
,,,,,,,,,,,,l,0.722885,Incorrect,0,85,85,77,1,t3.png,t2.png,1,0.90855,19,Female,2020-08-21_14h15.59.760,torte-2b,2020.1.3,Win32,60,13289,,,,,,,,,,,,,,,,,,,,,,,,,,,,,,,,,,,,,,,,,,,,,,,,,,,,,,,,,,,,,,,,,
,,,,,,,,,,,,l,1.252855,Correct!,0,86,86,70,1,t1.png,t5.png,4,9.55E-11,19,Female,2020-08-21_14h15.59.760,torte-2b,2020.1.3,Win32,60,13289,,,,,,,,,,,,,,,,,,,,,,,,,,,,,,,,,,,,,,,,,,,,,,,,,,,,,,,,,,,,,,,,,
,,,,,,,,,,,,l,1.052835,Incorrect,0,87,87,48,1,t2.png,t3.png,1,0.90855,19,Female,2020-08-21_14h15.59.760,torte-2b,2020.1.3,Win32,60,13289,,,,,,,,,,,,,,,,,,,,,,,,,,,,,,,,,,,,,,,,,,,,,,,,,,,,,,,,,,,,,,,,,
,,,,,,,,,,,,l,1.26977,Correct!,0,88,88,6,1,t5.png,t1.png,4,9.55E-11,19,Female,2020-08-21_14h15.59.760,torte-2b,2020.1.3,Win32,60,13289,,,,,,,,,,,,,,,,,,,,,,,,,,,,,,,,,,,,,,,,,,,,,,,,,,,,,,,,,,,,,,,,,
,,,,,,,,,,,,l,1.4353,Correct!,0,89,89,16,1,t1.png,t5.png,4,9.55E-11,19,Female,2020-08-21_14h15.59.760,torte-2b,2020.1.3,Win32,60,13289,,,,,,,,,,,,,,,,,,,,,,,,,,,,,,,,,,,,,,,,,,,,,,,,,,,,,,,,,,,,,,,,,
,,,,,,,,,,,,a,1.13632,Correct!,0,90,90,67,1,t3.png,t2.png,1,0.90855,19,Female,2020-08-21_14h15.59.760,torte-2b,2020.1.3,Win32,60,13289,,,,,,,,,,,,,,,,,,,,,,,,,,,,,,,,,,,,,,,,,,,,,,,,,,,,,,,,,,,,,,,,,
,,,,,,,,,,,,l,1.61923,Correct!,0,91,91,10,1,t4.png,t1.png,3,0.059078,19,Female,2020-08-21_14h15.59.760,torte-2b,2020.1.3,Win32,60,13289,,,,,,,,,,,,,,,,,,,,,,,,,,,,,,,,,,,,,,,,,,,,,,,,,,,,,,,,,,,,,,,,,
,,,,,,,,,,,,a,1.84373,Incorrect,0,92,92,118,1,t1.png,t5.png,4,9.55E-11,19,Female,2020-08-21_14h15.59.760,torte-2b,2020.1.3,Win32,60,13289,,,,,,,,,,,,,,,,,,,,,,,,,,,,,,,,,,,,,,,,,,,,,,,,,,,,,,,,,,,,,,,,,
,,,,,,,,,,,,l,1.48682,Correct!,0,93,93,107,1,t1.png,t4.png,3,0.0000131,19,Female,2020-08-21_14h15.59.760,torte-2b,2020.1.3,Win32,60,13289,,,,,,,,,,,,,,,,,,,,,,,,,,,,,,,,,,,,,,,,,,,,,,,,,,,,,,,,,,,,,,,,,
,,,,,,,,,,,,l,1.738925,Incorrect,0,94,94,58,1,t4.png,t5.png,1,0.90025,19,Female,2020-08-21_14h15.59.760,torte-2b,2020.1.3,Win32,60,13289,,,,,,,,,,,,,,,,,,,,,,,,,,,,,,,,,,,,,,,,,,,,,,,,,,,,,,,,,,,,,,,,,
,,,,,,,,,,,,a,1.66947,Incorrect,0,95,95,57,1,t3.png,t1.png,2,0.056466,19,Female,2020-08-21_14h15.59.760,torte-2b,2020.1.3,Win32,60,13289,,,,,,,,,,,,,,,,,,,,,,,,,,,,,,,,,,,,,,,,,,,,,,,,,,,,,,,,,,,,,,,,,
,,,,,,,,,,,,l,0.943825,Correct!,0,96,96,76,1,t4.png,t1.png,3,0.059078,19,Female,2020-08-21_14h15.59.760,torte-2b,2020.1.3,Win32,60,13289,,,,,,,,,,,,,,,,,,,,,,,,,,,,,,,,,,,,,,,,,,,,,,,,,,,,,,,,,,,,,,,,,
,,,,,,,,,,,,l,1.751885,Correct!,0,97,97,34,1,t1.png,t5.png,4,9.55E-11,19,Female,2020-08-21_14h15.59.760,torte-2b,2020.1.3,Win32,60,13289,,,,,,,,,,,,,,,,,,,,,,,,,,,,,,,,,,,,,,,,,,,,,,,,,,,,,,,,,,,,,,,,,
,,,,,,,,,,,,l,1.03873,Incorrect,0,98,98,18,1,t2.png,t3.png,1,0.90855,19,Female,2020-08-21_14h15.59.760,torte-2b,2020.1.3,Win32,60,13289,,,,,,,,,,,,,,,,,,,,,,,,,,,,,,,,,,,,,,,,,,,,,,,,,,,,,,,,,,,,,,,,,
,,,,,,,,,,,,a,1.24367,Correct!,0,99,99,52,1,t2.png,t3.png,1,0.90855,19,Female,2020-08-21_14h15.59.760,torte-2b,2020.1.3,Win32,60,13289,,,,,,,,,,,,,,,,,,,,,,,,,,,,,,,,,,,,,,,,,,,,,,,,,,,,,,,,,,,,,,,,,
,,,,,,,,,,,,l,0.994255,Correct!,0,100,100,82,1,t3.png,t1.png,2,0.056466,19,Female,2020-08-21_14h15.59.760,torte-2b,2020.1.3,Win32,60,13289,,,,,,,,,,,,,,,,,,,,,,,,,,,,,,,,,,,,,,,,,,,,,,,,,,,,,,,,,,,,,,,,,
,,,,,,,,,,,,l,1.71851,Incorrect,0,101,101,119,1,t5.png,t4.png,1,0.90025,19,Female,2020-08-21_14h15.59.760,torte-2b,2020.1.3,Win32,60,13289,,,,,,,,,,,,,,,,,,,,,,,,,,,,,,,,,,,,,,,,,,,,,,,,,,,,,,,,,,,,,,,,,
,,,,,,,,,,,,l,2.302915,Correct!,0,102,102,35,1,t1.png,t4.png,3,0.0000131,19,Female,2020-08-21_14h15.59.760,torte-2b,2020.1.3,Win32,60,13289,,,,,,,,,,,,,,,,,,,,,,,,,,,,,,,,,,,,,,,,,,,,,,,,,,,,,,,,,,,,,,,,,
,,,,,,,,,,,,a,1.885795,Correct!,0,103,103,84,1,t2.png,t3.png,1,0.90855,19,Female,2020-08-21_14h15.59.760,torte-2b,2020.1.3,Win32,60,13289,,,,,,,,,,,,,,,,,,,,,,,,,,,,,,,,,,,,,,,,,,,,,,,,,,,,,,,,,,,,,,,,,
,,,,,,,,,,,,l,0.986115,Correct!,0,104,104,95,1,t1.png,t4.png,3,0.0000131,19,Female,2020-08-21_14h15.59.760,torte-2b,2020.1.3,Win32,60,13289,,,,,,,,,,,,,,,,,,,,,,,,,,,,,,,,,,,,,,,,,,,,,,,,,,,,,,,,,,,,,,,,,
,,,,,,,,,,,,l,1.146975,Correct!,0,105,105,11,1,t1.png,t4.png,3,0.0000131,19,Female,2020-08-21_14h15.59.760,torte-2b,2020.1.3,Win32,60,13289,,,,,,,,,,,,,,,,,,,,,,,,,,,,,,,,,,,,,,,,,,,,,,,,,,,,,,,,,,,,,,,,,
,,,,,,,,,,,,a,2.25857,Incorrect,0,106,106,80,1,t4.png,t1.png,3,0.059078,19,Female,2020-08-21_14h15.59.760,torte-2b,2020.1.3,Win32,60,13289,,,,,,,,,,,,,,,,,,,,,,,,,,,,,,,,,,,,,,,,,,,,,,,,,,,,,,,,,,,,,,,,,
,,,,,,,,,,,,a,1.420035,Correct!,0,107,107,24,1,t5.png,t5.png,0,0.97829,19,Female,2020-08-21_14h15.59.760,torte-2b,2020.1.3,Win32,60,13289,,,,,,,,,,,,,,,,,,,,,,,,,,,,,,,,,,,,,,,,,,,,,,,,,,,,,,,,,,,,,,,,,
,,,,,,,,,,,,l,2.28636,Correct!,0,108,108,51,1,t4.png,t1.png,3,0.059078,19,Female,2020-08-21_14h15.59.760,torte-2b,2020.1.3,Win32,60,13289,,,,,,,,,,,,,,,,,,,,,,,,,,,,,,,,,,,,,,,,,,,,,,,,,,,,,,,,,,,,,,,,,
,,,,,,,,,,,,a,1.84487,Incorrect,0,109,109,43,1,t3.png,t1.png,2,0.056466,19,Female,2020-08-21_14h15.59.760,torte-2b,2020.1.3,Win32,60,13289,,,,,,,,,,,,,,,,,,,,,,,,,,,,,,,,,,,,,,,,,,,,,,,,,,,,,,,,,,,,,,,,,
,,,,,,,,,,,,a,0.71281,Correct!,0,110,110,8,1,t5.png,t5.png,0,0.97829,19,Female,2020-08-21_14h15.59.760,torte-2b,2020.1.3,Win32,60,13289,,,,,,,,,,,,,,,,,,,,,,,,,,,,,,,,,,,,,,,,,,,,,,,,,,,,,,,,,,,,,,,,,
,,,,,,,,,,,,l,2.194135,Incorrect,0,111,111,60,1,t4.png,t5.png,1,0.90025,19,Female,2020-08-21_14h15.59.760,torte-2b,2020.1.3,Win32,60,13289,,,,,,,,,,,,,,,,,,,,,,,,,,,,,,,,,,,,,,,,,,,,,,,,,,,,,,,,,,,,,,,,,
,,,,,,,,,,,,l,1.47607,Correct!,0,112,112,94,1,t3.png,t1.png,2,0.056466,19,Female,2020-08-21_14h15.59.760,torte-2b,2020.1.3,Win32,60,13289,,,,,,,,,,,,,,,,,,,,,,,,,,,,,,,,,,,,,,,,,,,,,,,,,,,,,,,,,,,,,,,,,
,,,,,,,,,,,,l,2.463165,Correct!,0,113,113,113,1,t5.png,t1.png,4,9.55E-11,19,Female,2020-08-21_14h15.59.760,torte-2b,2020.1.3,Win32,60,13289,,,,,,,,,,,,,,,,,,,,,,,,,,,,,,,,,,,,,,,,,,,,,,,,,,,,,,,,,,,,,,,,,
,,,,,,,,,,,,a,1.135065,Incorrect,0,114,114,32,1,t3.png,t2.png,1,0.90855,19,Female,2020-08-21_14h15.59.760,torte-2b,2020.1.3,Win32,60,13289,,,,,,,,,,,,,,,,,,,,,,,,,,,,,,,,,,,,,,,,,,,,,,,,,,,,,,,,,,,,,,,,,
,,,,,,,,,,,,l,1.71872,Correct!,0,115,115,89,1,t1.png,t5.png,4,9.55E-11,19,Female,2020-08-21_14h15.59.760,torte-2b,2020.1.3,Win32,60,13289,,,,,,,,,,,,,,,,,,,,,,,,,,,,,,,,,,,,,,,,,,,,,,,,,,,,,,,,,,,,,,,,,
,,,,,,,,,,,,l,0.9934,Correct!,0,116,116,102,1,t2.png,t4.png,2,0.059078,19,Female,2020-08-21_14h15.59.760,torte-2b,2020.1.3,Win32,60,13289,,,,,,,,,,,,,,,,,,,,,,,,,,,,,,,,,,,,,,,,,,,,,,,,,,,,,,,,,,,,,,,,,
,,,,,,,,,,,,l,0.879075,Correct!,0,117,117,37,1,t2.png,t4.png,2,0.059078,19,Female,2020-08-21_14h15.59.760,torte-2b,2020.1.3,Win32,60,13289,,,,,,,,,,,,,,,,,,,,,,,,,,,,,,,,,,,,,,,,,,,,,,,,,,,,,,,,,,,,,,,,,
,,,,,,,,,,,,a,2.12063,Incorrect,0,118,118,17,1,t4.png,t1.png,3,0.059078,19,Female,2020-08-21_14h15.59.760,torte-2b,2020.1.3,Win32,60,13289,,,,,,,,,,,,,,,,,,,,,,,,,,,,,,,,,,,,,,,,,,,,,,,,,,,,,,,,,,,,,,,,,
,,,,,,,,,,,,a,1.037855,Correct!,0,119,119,20,1,t5.png,t5.png,0,0.97829,19,Female,2020-08-21_14h15.59.760,torte-2b,2020.1.3,Win32,60,13289,,,,,,,,,,,,,,,,,,,,,,,,,,,,,,,,,,,,,,,,,,,,,,,,,,,,,,,,,,,,,,,,,
,,,,,,,,,,,,l,1.537365,Incorrect,,,,,,t3.png,t2.png,1,0.90855,19,Female,2020-08-21_14h15.59.760,torte-2b,2020.1.3,Win32,60,13289,space,2.60885,space,14.503415,0,0,0,10,1,,,,,,,,,,,,,,,,,,,,,,,,,,,,,,,,,,,,,,,,,,,,,,,,,,,,,,,,
,,,,,,,,,,,,l,1.219485,Incorrect,,,,,,t2.png,t1.png,1,0.90025,19,Female,2020-08-21_14h15.59.760,torte-2b,2020.1.3,Win32,60,13289,,,,,0,1,1,65,1,,,,,,,,,,,,,,,,,,,,,,,,,,,,,,,,,,,,,,,,,,,,,,,,,,,,,,,,
,,,,,,,,,,,,l,1.03738,Incorrect,,,,,,t2.png,t2.png,0,0.98115,19,Female,2020-08-21_14h15.59.760,torte-2b,2020.1.3,Win32,60,13289,,,,,0,2,2,112,1,,,,,,,,,,,,,,,,,,,,,,,,,,,,,,,,,,,,,,,,,,,,,,,,,,,,,,,,
,,,,,,,,,,,,l,1.20227,Correct!,,,,,,t3.png,t5.png,2,0.056466,19,Female,2020-08-21_14h15.59.760,torte-2b,2020.1.3,Win32,60,13289,,,,,0,3,3,60,1,,,,,,,,,,,,,,,,,,,,,,,,,,,,,,,,,,,,,,,,,,,,,,,,,,,,,,,,
,,,,,,,,,,,,l,1.322205,Incorrect,,,,,,t4.png,t4.png,0,0.98115,19,Female,2020-08-21_14h15.59.760,torte-2b,2020.1.3,Win32,60,13289,,,,,0,4,4,68,1,,,,,,,,,,,,,,,,,,,,,,,,,,,,,,,,,,,,,,,,,,,,,,,,,,,,,,,,
,,,,,,,,,,,,a,1.351655,Incorrect,,,,,,t2.png,t4.png,2,0.059078,19,Female,2020-08-21_14h15.59.760,torte-2b,2020.1.3,Win32,60,13289,,,,,0,5,5,53,1,,,,,,,,,,,,,,,,,,,,,,,,,,,,,,,,,,,,,,,,,,,,,,,,,,,,,,,,
,,,,,,,,,,,,l,1.109835,Correct!,,,,,,t4.png,t1.png,3,0.0000131,19,Female,2020-08-21_14h15.59.760,torte-2b,2020.1.3,Win32,60,13289,,,,,0,6,6,91,1,,,,,,,,,,,,,,,,,,,,,,,,,,,,,,,,,,,,,,,,,,,,,,,,,,,,,,,,
,,,,,,,,,,,,l,1.06991,Correct!,,,,,,t1.png,t2.png,1,0.90025,19,Female,2020-08-21_14h15.59.760,torte-2b,2020.1.3,Win32,60,13289,,,,,0,7,7,96,1,,,,,,,,,,,,,,,,,,,,,,,,,,,,,,,,,,,,,,,,,,,,,,,,,,,,,,,,
,,,,,,,,,,,,l,1.045295,Correct!,,,,,,t1.png,t5.png,4,9.55E-11,19,Female,2020-08-21_14h15.59.760,torte-2b,2020.1.3,Win32,60,13289,,,,,0,8,8,118,1,,,,,,,,,,,,,,,,,,,,,,,,,,,,,,,,,,,,,,,,,,,,,,,,,,,,,,,,
,,,,,,,,,,,,l,1.00291,Correct!,,,,,,t2.png,t4.png,2,0.059078,19,Female,2020-08-21_14h15.59.760,torte-2b,2020.1.3,Win32,60,13289,,,,,0,9,9,84,1,,,,,,,,,,,,,,,,,,,,,,,,,,,,,,,,,,,,,,,,,,,,,,,,,,,,,,,,
,,,,,,,,,,,,l,1.05314,Correct!,,,,,,t2.png,t5.png,3,0.0000131,19,Female,2020-08-21_14h15.59.760,torte-2b,2020.1.3,Win32,60,13289,,,,,0,10,10,115,1,,,,,,,,,,,,,,,,,,,,,,,,,,,,,,,,,,,,,,,,,,,,,,,,,,,,,,,,
,,,,,,,,,,,,l,0.912875,Correct!,,,,,,t1.png,t4.png,3,0.0000131,19,Female,2020-08-21_14h15.59.760,torte-2b,2020.1.3,Win32,60,13289,,,,,0,11,11,23,1,,,,,,,,,,,,,,,,,,,,,,,,,,,,,,,,,,,,,,,,,,,,,,,,,,,,,,,,
,,,,,,,,,,,,l,1.31966,Incorrect,,,,,,t2.png,t2.png,0,0.981,19,Female,2020-08-21_14h15.59.760,torte-2b,2020.1.3,Win32,60,13289,,,,,0,12,12,98,1,,,,,,,,,,,,,,,,,,,,,,,,,,,,,,,,,,,,,,,,,,,,,,,,,,,,,,,,
,,,,,,,,,,,,a,0.757965,Correct!,,,,,,t5.png,t4.png,1,0.9,19,Female,2020-08-21_14h15.59.760,torte-2b,2020.1.3,Win32,60,13289,,,,,0,13,13,92,1,,,,,,,,,,,,,,,,,,,,,,,,,,,,,,,,,,,,,,,,,,,,,,,,,,,,,,,,
,,,,,,,,,,,,l,0.87988,Incorrect,,,,,,t1.png,t2.png,1,0.90025,19,Female,2020-08-21_14h15.59.760,torte-2b,2020.1.3,Win32,60,13289,,,,,0,14,14,6,1,,,,,,,,,,,,,,,,,,,,,,,,,,,,,,,,,,,,,,,,,,,,,,,,,,,,,,,,
,,,,,,,,,,,,a,0.7563,Incorrect,,,,,,t5.png,t2.png,3,0.0000131,19,Female,2020-08-21_14h15.59.760,torte-2b,2020.1.3,Win32,60,13289,,,,,0,15,15,66,1,,,,,,,,,,,,,,,,,,,,,,,,,,,,,,,,,,,,,,,,,,,,,,,,,,,,,,,,
,,,,,,,,,,,,l,1.03849,Incorrect,,,,,,t4.png,t3.png,1,0.90855,19,Female,2020-08-21_14h15.59.760,torte-2b,2020.1.3,Win32,60,13289,,,,,0,16,16,56,1,,,,,,,,,,,,,,,,,,,,,,,,,,,,,,,,,,,,,,,,,,,,,,,,,,,,,,,,
,,,,,,,,,,,,l,1.42795,Correct!,,,,,,t3.png,t5.png,2,0.0565,19,Female,2020-08-21_14h15.59.760,torte-2b,2020.1.3,Win32,60,13289,,,,,0,17,17,71,1,,,,,,,,,,,,,,,,,,,,,,,,,,,,,,,,,,,,,,,,,,,,,,,,,,,,,,,,
,,,,,,,,,,,,l,1.20605,Correct!,,,,,,t2.png,t4.png,2,0.059078,19,Female,2020-08-21_14h15.59.760,torte-2b,2020.1.3,Win32,60,13289,,,,,0,18,18,67,1,,,,,,,,,,,,,,,,,,,,,,,,,,,,,,,,,,,,,,,,,,,,,,,,,,,,,,,,
,,,,,,,,,,,,l,1.474025,Correct!,,,,,,t4.png,t1.png,3,0.059078,19,Female,2020-08-21_14h15.59.760,torte-2b,2020.1.3,Win32,60,13289,,,,,0,19,19,73,1,,,,,,,,,,,,,,,,,,,,,,,,,,,,,,,,,,,,,,,,,,,,,,,,,,,,,,,,
,,,,,,,,,,,,l,1.395455,Correct!,,,,,,t1.png,t3.png,2,0.0565,19,Female,2020-08-21_14h15.59.760,torte-2b,2020.1.3,Win32,60,13289,,,,,0,20,20,42,1,,,,,,,,,,,,,,,,,,,,,,,,,,,,,,,,,,,,,,,,,,,,,,,,,,,,,,,,
,,,,,,,,,,,,a,2.13765,Correct!,,,,,,t3.png,t2.png,1,0.90855,19,Female,2020-08-21_14h15.59.760,torte-2b,2020.1.3,Win32,60,13289,,,,,0,21,21,108,1,,,,,,,,,,,,,,,,,,,,,,,,,,,,,,,,,,,,,,,,,,,,,,,,,,,,,,,,
,,,,,,,,,,,,l,1.177775,Correct!,,,,,,t1.png,t4.png,3,0.0000131,19,Female,2020-08-21_14h15.59.760,torte-2b,2020.1.3,Win32,60,13289,,,,,0,22,22,16,1,,,,,,,,,,,,,,,,,,,,,,,,,,,,,,,,,,,,,,,,,,,,,,,,,,,,,,,,
,,,,,,,,,,,,l,1.344925,Correct!,,,,,,t4.png,t1.png,3,0.0000131,19,Female,2020-08-21_14h15.59.760,torte-2b,2020.1.3,Win32,60,13289,,,,,0,23,23,76,1,,,,,,,,,,,,,,,,,,,,,,,,,,,,,,,,,,,,,,,,,,,,,,,,,,,,,,,,
,,,,,,,,,,,,a,1.935195,Correct!,,,,,,t4.png,t3.png,1,0.909,19,Female,2020-08-21_14h15.59.760,torte-2b,2020.1.3,Win32,60,13289,,,,,0,24,24,107,1,,,,,,,,,,,,,,,,,,,,,,,,,,,,,,,,,,,,,,,,,,,,,,,,,,,,,,,,
,,,,,,,,,,,,l,1.852935,Incorrect,,,,,,t5.png,t4.png,1,0.90025,19,Female,2020-08-21_14h15.59.760,torte-2b,2020.1.3,Win32,60,13289,,,,,0,25,25,14,1,,,,,,,,,,,,,,,,,,,,,,,,,,,,,,,,,,,,,,,,,,,,,,,,,,,,,,,,
,,,,,,,,,,,,l,1.42891,Incorrect,,,,,,t3.png,t2.png,1,0.90855,19,Female,2020-08-21_14h15.59.760,torte-2b,2020.1.3,Win32,60,13289,,,,,0,26,26,94,1,,,,,,,,,,,,,,,,,,,,,,,,,,,,,,,,,,,,,,,,,,,,,,,,,,,,,,,,
,,,,,,,,,,,,l,0.93706,Incorrect,,,,,,t1.png,t1.png,0,0.978,19,Female,2020-08-21_14h15.59.760,torte-2b,2020.1.3,Win32,60,13289,,,,,0,27,27,22,1,,,,,,,,,,,,,,,,,,,,,,,,,,,,,,,,,,,,,,,,,,,,,,,,,,,,,,,,
,,,,,,,,,,,,a,0.787195,Correct!,,,,,,t5.png,t5.png,0,0.978,19,Female,2020-08-21_14h15.59.760,torte-2b,2020.1.3,Win32,60,13289,,,,,0,28,28,51,1,,,,,,,,,,,,,,,,,,,,,,,,,,,,,,,,,,,,,,,,,,,,,,,,,,,,,,,,
,,,,,,,,,,,,l,1.1713,Correct!,,,,,,t4.png,t1.png,3,0.0000131,19,Female,2020-08-21_14h15.59.760,torte-2b,2020.1.3,Win32,60,13289,,,,,0,29,29,49,1,,,,,,,,,,,,,,,,,,,,,,,,,,,,,,,,,,,,,,,,,,,,,,,,,,,,,,,,
,,,,,,,,,,,,l,0.99689,Correct!,,,,,,t4.png,t1.png,3,0.0000131,19,Female,2020-08-21_14h15.59.760,torte-2b,2020.1.3,Win32,60,13289,,,,,0,30,30,102,1,,,,,,,,,,,,,,,,,,,,,,,,,,,,,,,,,,,,,,,,,,,,,,,,,,,,,,,,
,,,,,,,,,,,,l,1.174045,Correct!,,,,,,t1.png,t3.png,2,0.056466,19,Female,2020-08-21_14h15.59.760,torte-2b,2020.1.3,Win32,60,13289,,,,,0,31,31,32,1,,,,,,,,,,,,,,,,,,,,,,,,,,,,,,,,,,,,,,,,,,,,,,,,,,,,,,,,
,,,,,,,,,,,,l,1.407335,Correct!,,,,,,t2.png,t4.png,2,0.059078,19,Female,2020-08-21_14h15.59.760,torte-2b,2020.1.3,Win32,60,13289,,,,,0,32,32,97,1,,,,,,,,,,,,,,,,,,,,,,,,,,,,,,,,,,,,,,,,,,,,,,,,,,,,,,,,
,,,,,,,,,,,,l,0.578435,Correct!,,,,,,t1.png,t4.png,3,0.0000131,19,Female,2020-08-21_14h15.59.760,torte-2b,2020.1.3,Win32,60,13289,,,,,0,33,33,74,1,,,,,,,,,,,,,,,,,,,,,,,,,,,,,,,,,,,,,,,,,,,,,,,,,,,,,,,,
,,,,,,,,,,,,a,1.647095,Incorrect,,,,,,t4.png,t5.png,1,0.90025,19,Female,2020-08-21_14h15.59.760,torte-2b,2020.1.3,Win32,60,13289,,,,,0,34,34,21,1,,,,,,,,,,,,,,,,,,,,,,,,,,,,,,,,,,,,,,,,,,,,,,,,,,,,,,,,
,,,,,,,,,,,,a,1.5377,Incorrect,,,,,,t3.png,t1.png,2,0.0565,19,Female,2020-08-21_14h15.59.760,torte-2b,2020.1.3,Win32,60,13289,,,,,0,35,35,104,1,,,,,,,,,,,,,,,,,,,,,,,,,,,,,,,,,,,,,,,,,,,,,,,,,,,,,,,,
,,,,,,,,,,,,l,1.186295,Incorrect,,,,,,t2.png,t2.png,0,0.98115,19,Female,2020-08-21_14h15.59.760,torte-2b,2020.1.3,Win32,60,13289,,,,,0,36,36,69,1,,,,,,,,,,,,,,,,,,,,,,,,,,,,,,,,,,,,,,,,,,,,,,,,,,,,,,,,
,,,,,,,,,,,,a,0.84211,Correct!,,,,,,t5.png,t5.png,0,0.97829,19,Female,2020-08-21_14h15.59.760,torte-2b,2020.1.3,Win32,60,13289,,,,,0,37,37,2,1,,,,,,,,,,,,,,,,,,,,,,,,,,,,,,,,,,,,,,,,,,,,,,,,,,,,,,,,
,,,,,,,,,,,,l,1.18667,Correct!,,,,,,t3.png,t1.png,2,0.0565,19,Female,2020-08-21_14h15.59.760,torte-2b,2020.1.3,Win32,60,13289,,,,,0,38,38,40,1,,,,,,,,,,,,,,,,,,,,,,,,,,,,,,,,,,,,,,,,,,,,,,,,,,,,,,,,
,,,,,,,,,,,,l,0.60346,Correct!,,,,,,t4.png,t1.png,3,0.059078,19,Female,2020-08-21_14h15.59.760,torte-2b,2020.1.3,Win32,60,13289,,,,,0,39,39,57,1,,,,,,,,,,,,,,,,,,,,,,,,,,,,,,,,,,,,,,,,,,,,,,,,,,,,,,,,
,,,,,,,,,,,,l,1.011755,Incorrect,,,,,,t4.png,t4.png,0,0.98115,19,Female,2020-08-21_14h15.59.760,torte-2b,2020.1.3,Win32,60,13289,,,,,0,40,40,52,1,,,,,,,,,,,,,,,,,,,,,,,,,,,,,,,,,,,,,,,,,,,,,,,,,,,,,,,,
,,,,,,,,,,,,l,1.0032,Incorrect,,,,,,t4.png,t3.png,1,0.90855,19,Female,2020-08-21_14h15.59.760,torte-2b,2020.1.3,Win32,60,13289,,,,,0,41,41,11,1,,,,,,,,,,,,,,,,,,,,,,,,,,,,,,,,,,,,,,,,,,,,,,,,,,,,,,,,
,,,,,,,,,,,,a,0.60501,Incorrect,,,,,,t5.png,t3.png,2,0.0565,19,Female,2020-08-21_14h15.59.760,torte-2b,2020.1.3,Win32,60,13289,,,,,0,42,42,50,1,,,,,,,,,,,,,,,,,,,,,,,,,,,,,,,,,,,,,,,,,,,,,,,,,,,,,,,,
,,,,,,,,,,,,a,1.34649,Correct!,,,,,,t5.png,t4.png,1,0.9,19,Female,2020-08-21_14h15.59.760,torte-2b,2020.1.3,Win32,60,13289,,,,,0,43,43,55,1,,,,,,,,,,,,,,,,,,,,,,,,,,,,,,,,,,,,,,,,,,,,,,,,,,,,,,,,
,,,,,,,,,,,,l,1.018715,Correct!,,,,,,t4.png,t1.png,3,0.059078,19,Female,2020-08-21_14h15.59.760,torte-2b,2020.1.3,Win32,60,13289,,,,,0,44,44,87,1,,,,,,,,,,,,,,,,,,,,,,,,,,,,,,,,,,,,,,,,,,,,,,,,,,,,,,,,
,,,,,,,,,,,,l,1.74615,Incorrect,,,,,,t4.png,t5.png,1,0.90025,19,Female,2020-08-21_14h15.59.760,torte-2b,2020.1.3,Win32,60,13289,,,,,0,45,45,63,1,,,,,,,,,,,,,,,,,,,,,,,,,,,,,,,,,,,,,,,,,,,,,,,,,,,,,,,,
,,,,,,,,,,,,l,1.254075,Correct!,,,,,,t4.png,t1.png,3,0.059078,19,Female,2020-08-21_14h15.59.760,torte-2b,2020.1.3,Win32,60,13289,,,,,0,46,46,62,1,,,,,,,,,,,,,,,,,,,,,,,,,,,,,,,,,,,,,,,,,,,,,,,,,,,,,,,,
,,,,,,,,,,,,a,1.008125,Correct!,,,,,,t5.png,t5.png,0,0.978,19,Female,2020-08-21_14h15.59.760,torte-2b,2020.1.3,Win32,60,13289,,,,,0,47,47,116,1,,,,,,,,,,,,,,,,,,,,,,,,,,,,,,,,,,,,,,,,,,,,,,,,,,,,,,,,
,,,,,,,,,,,,l,0.78772,Correct!,,,,,,t2.png,t5.png,3,0.0000131,19,Female,2020-08-21_14h15.59.760,torte-2b,2020.1.3,Win32,60,13289,,,,,0,48,48,54,1,,,,,,,,,,,,,,,,,,,,,,,,,,,,,,,,,,,,,,,,,,,,,,,,,,,,,,,,
,,,,,,,,,,,,l,1.98911,Correct!,,,,,,t1.png,t5.png,4,9.55E-11,19,Female,2020-08-21_14h15.59.760,torte-2b,2020.1.3,Win32,60,13289,,,,,0,49,49,30,1,,,,,,,,,,,,,,,,,,,,,,,,,,,,,,,,,,,,,,,,,,,,,,,,,,,,,,,,
,,,,,,,,,,,,l,1.5268,Incorrect,,,,,,t4.png,t5.png,1,0.90025,19,Female,2020-08-21_14h15.59.760,torte-2b,2020.1.3,Win32,60,13289,,,,,0,50,50,86,1,,,,,,,,,,,,,,,,,,,,,,,,,,,,,,,,,,,,,,,,,,,,,,,,,,,,,,,,
,,,,,,,,,,,,a,0.987755,Incorrect,,,,,,t5.png,t3.png,2,0.056466,19,Female,2020-08-21_14h15.59.760,torte-2b,2020.1.3,Win32,60,13289,,,,,0,51,51,26,1,,,,,,,,,,,,,,,,,,,,,,,,,,,,,,,,,,,,,,,,,,,,,,,,,,,,,,,,
,,,,,,,,,,,,a,0.75743,Incorrect,,,,,,t5.png,t2.png,3,0.0000131,19,Female,2020-08-21_14h15.59.760,torte-2b,2020.1.3,Win32,60,13289,,,,,0,52,52,83,1,,,,,,,,,,,,,,,,,,,,,,,,,,,,,,,,,,,,,,,,,,,,,,,,,,,,,,,,
,,,,,,,,,,,,l,1.0694,Incorrect,,,,,,t4.png,t5.png,1,0.9,19,Female,2020-08-21_14h15.59.760,torte-2b,2020.1.3,Win32,60,13289,,,,,0,53,53,81,1,,,,,,,,,,,,,,,,,,,,,,,,,,,,,,,,,,,,,,,,,,,,,,,,,,,,,,,,
,,,,,,,,,,,,a,0.811825,Correct!,,,,,,t5.png,t4.png,1,0.90025,19,Female,2020-08-21_14h15.59.760,torte-2b,2020.1.3,Win32,60,13289,,,,,0,54,54,25,1,,,,,,,,,,,,,,,,,,,,,,,,,,,,,,,,,,,,,,,,,,,,,,,,,,,,,,,,
,,,,,,,,,,,,a,0.572615,Incorrect,,,,,,t5.png,t2.png,3,0.0000131,19,Female,2020-08-21_14h15.59.760,torte-2b,2020.1.3,Win32,60,13289,,,,,0,55,55,43,1,,,,,,,,,,,,,,,,,,,,,,,,,,,,,,,,,,,,,,,,,,,,,,,,,,,,,,,,
,,,,,,,,,,,,l,0.820405,Incorrect,,,,,,t2.png,t2.png,0,0.98115,19,Female,2020-08-21_14h15.59.760,torte-2b,2020.1.3,Win32,60,13289,,,,,0,56,56,90,1,,,,,,,,,,,,,,,,,,,,,,,,,,,,,,,,,,,,,,,,,,,,,,,,,,,,,,,,
,,,,,,,,,,,,l,0.422395,Incorrect,,,,,,t1.png,t1.png,0,0.97829,19,Female,2020-08-21_14h15.59.760,torte-2b,2020.1.3,Win32,60,13289,,,,,0,57,57,4,1,,,,,,,,,,,,,,,,,,,,,,,,,,,,,,,,,,,,,,,,,,,,,,,,,,,,,,,,
,,,,,,,,,,,,l,0.93093,Correct!,,,,,,t2.png,t5.png,3,0.0000131,19,Female,2020-08-21_14h15.59.760,torte-2b,2020.1.3,Win32,60,13289,,,,,0,58,58,46,1,,,,,,,,,,,,,,,,,,,,,,,,,,,,,,,,,,,,,,,,,,,,,,,,,,,,,,,,
,,,,,,,,,,,,a,1.0793,Correct!,,,,,,t4.png,t3.png,1,0.909,19,Female,2020-08-21_14h15.59.760,torte-2b,2020.1.3,Win32,60,13289,,,,,0,59,59,119,1,,,,,,,,,,,,,,,,,,,,,,,,,,,,,,,,,,,,,,,,,,,,,,,,,,,,,,,,
,,,,,,,,,,,,a,1.008025,Incorrect,,,,,,t5.png,t1.png,4,9.55E-11,19,Female,2020-08-21_14h15.59.760,torte-2b,2020.1.3,Win32,60,13289,,,,,0,60,60,89,1,,,,,,,,,,,,,,,,,,,,,,,,,,,,,,,,,,,,,,,,,,,,,,,,,,,,,,,,
,,,,,,,,,,,,a,0.76941,Incorrect,,,,,,t5.png,t3.png,2,0.056466,19,Female,2020-08-21_14h15.59.760,torte-2b,2020.1.3,Win32,60,13289,,,,,0,61,61,27,1,,,,,,,,,,,,,,,,,,,,,,,,,,,,,,,,,,,,,,,,,,,,,,,,,,,,,,,,
,,,,,,,,,,,,l,1.23697,Incorrect,,,,,,t3.png,t2.png,1,0.90855,19,Female,2020-08-21_14h15.59.760,torte-2b,2020.1.3,Win32,60,13289,,,,,0,62,62,0,1,,,,,,,,,,,,,,,,,,,,,,,,,,,,,,,,,,,,,,,,,,,,,,,,,,,,,,,,
,,,,,,,,,,,,l,0.87373,Correct!,,,,,,t2.png,t5.png,3,0.0000131,19,Female,2020-08-21_14h15.59.760,torte-2b,2020.1.3,Win32,60,13289,,,,,0,63,63,39,1,,,,,,,,,,,,,,,,,,,,,,,,,,,,,,,,,,,,,,,,,,,,,,,,,,,,,,,,
,,,,,,,,,,,,l,0.566795,Correct!,,,,,,t1.png,t5.png,4,9.55E-11,19,Female,2020-08-21_14h15.59.760,torte-2b,2020.1.3,Win32,60,13289,,,,,0,64,64,1,1,,,,,,,,,,,,,,,,,,,,,,,,,,,,,,,,,,,,,,,,,,,,,,,,,,,,,,,,
,,,,,,,,,,,,l,0.66998,Incorrect,,,,,,t1.png,t1.png,0,0.97829,19,Female,2020-08-21_14h15.59.760,torte-2b,2020.1.3,Win32,60,13289,,,,,0,65,65,110,1,,,,,,,,,,,,,,,,,,,,,,,,,,,,,,,,,,,,,,,,,,,,,,,,,,,,,,,,
,,,,,,,,,,,,a,1.44039,Correct!,,,,,,t4.png,t4.png,0,0.98115,19,Female,2020-08-21_14h15.59.760,torte-2b,2020.1.3,Win32,60,13289,,,,,0,66,66,88,1,,,,,,,,,,,,,,,,,,,,,,,,,,,,,,,,,,,,,,,,,,,,,,,,,,,,,,,,
,,,,,,,,,,,,a,1.10207,Correct!,,,,,,t5.png,t5.png,0,0.97829,19,Female,2020-08-21_14h15.59.760,torte-2b,2020.1.3,Win32,60,13289,,,,,0,67,67,35,1,,,,,,,,,,,,,,,,,,,,,,,,,,,,,,,,,,,,,,,,,,,,,,,,,,,,,,,,
,,,,,,,,,,,,l,1.42909,Incorrect,,,,,,t2.png,t1.png,1,0.9,19,Female,2020-08-21_14h15.59.760,torte-2b,2020.1.3,Win32,60,13289,,,,,0,68,68,93,1,,,,,,,,,,,,,,,,,,,,,,,,,,,,,,,,,,,,,,,,,,,,,,,,,,,,,,,,
,,,,,,,,,,,,l,0.822665,Incorrect,,,,,,t1.png,t1.png,0,0.978,19,Female,2020-08-21_14h15.59.760,torte-2b,2020.1.3,Win32,60,13289,,,,,0,69,69,13,1,,,,,,,,,,,,,,,,,,,,,,,,,,,,,,,,,,,,,,,,,,,,,,,,,,,,,,,,
,,,,,,,,,,,,l,1.004265,Incorrect,,,,,,t1.png,t2.png,1,0.9,19,Female,2020-08-21_14h15.59.760,torte-2b,2020.1.3,Win32,60,13289,,,,,0,70,70,41,1,,,,,,,,,,,,,,,,,,,,,,,,,,,,,,,,,,,,,,,,,,,,,,,,,,,,,,,,
,,,,,,,,,,,,l,0.910315,Incorrect,,,,,,t1.png,t2.png,1,0.9,19,Female,2020-08-21_14h15.59.760,torte-2b,2020.1.3,Win32,60,13289,,,,,0,71,71,17,1,,,,,,,,,,,,,,,,,,,,,,,,,,,,,,,,,,,,,,,,,,,,,,,,,,,,,,,,
,,,,,,,,,,,,a,0.961485,Incorrect,,,,,,t5.png,t2.png,3,0.0000131,19,Female,2020-08-21_14h15.59.760,torte-2b,2020.1.3,Win32,60,13289,,,,,0,72,72,48,1,,,,,,,,,,,,,,,,,,,,,,,,,,,,,,,,,,,,,,,,,,,,,,,,,,,,,,,,
,,,,,,,,,,,,l,0.718235,Incorrect,,,,,,t2.png,t2.png,0,0.98115,19,Female,2020-08-21_14h15.59.760,torte-2b,2020.1.3,Win32,60,13289,,,,,0,73,73,7,1,,,,,,,,,,,,,,,,,,,,,,,,,,,,,,,,,,,,,,,,,,,,,,,,,,,,,,,,
,,,,,,,,,,,,l,1.101845,Correct!,,,,,,t3.png,t5.png,2,0.056466,19,Female,2020-08-21_14h15.59.760,torte-2b,2020.1.3,Win32,60,13289,,,,,0,74,74,78,1,,,,,,,,,,,,,,,,,,,,,,,,,,,,,,,,,,,,,,,,,,,,,,,,,,,,,,,,
,,,,,,,,,,,,a,1.656275,Correct!,,,,,,t2.png,t1.png,1,0.9,19,Female,2020-08-21_14h15.59.760,torte-2b,2020.1.3,Win32,60,13289,,,,,0,75,75,100,1,,,,,,,,,,,,,,,,,,,,,,,,,,,,,,,,,,,,,,,,,,,,,,,,,,,,,,,,
,,,,,,,,,,,,a,1.74926,Correct!,,,,,,t2.png,t3.png,1,0.90855,19,Female,2020-08-21_14h15.59.760,torte-2b,2020.1.3,Win32,60,13289,,,,,0,76,76,79,1,,,,,,,,,,,,,,,,,,,,,,,,,,,,,,,,,,,,,,,,,,,,,,,,,,,,,,,,
,,,,,,,,,,,,l,1.75245,Correct!,,,,,,t4.png,t1.png,3,0.0000131,19,Female,2020-08-21_14h15.59.760,torte-2b,2020.1.3,Win32,60,13289,,,,,0,77,77,28,1,,,,,,,,,,,,,,,,,,,,,,,,,,,,,,,,,,,,,,,,,,,,,,,,,,,,,,,,
,,,,,,,,,,,,a,1.76798,Incorrect,,,,,,t1.png,t3.png,2,0.056466,19,Female,2020-08-21_14h15.59.760,torte-2b,2020.1.3,Win32,60,13289,,,,,0,78,78,24,1,,,,,,,,,,,,,,,,,,,,,,,,,,,,,,,,,,,,,,,,,,,,,,,,,,,,,,,,
,,,,,,,,,,,,l,1.754145,Correct!,,,,,,t3.png,t1.png,2,0.056466,19,Female,2020-08-21_14h15.59.760,torte-2b,2020.1.3,Win32,60,13289,,,,,0,79,79,72,1,,,,,,,,,,,,,,,,,,,,,,,,,,,,,,,,,,,,,,,,,,,,,,,,,,,,,,,,
,,,,,,,,,,,,l,1.894165,Correct!,,,,,,t1.png,t3.png,2,0.0565,19,Female,2020-08-21_14h15.59.760,torte-2b,2020.1.3,Win32,60,13289,,,,,0,80,80,12,1,,,,,,,,,,,,,,,,,,,,,,,,,,,,,,,,,,,,,,,,,,,,,,,,,,,,,,,,
,,,,,,,,,,,,a,0.75309,Incorrect,,,,,,t5.png,t1.png,4,9.55E-11,19,Female,2020-08-21_14h15.59.760,torte-2b,2020.1.3,Win32,60,13289,,,,,0,81,81,117,1,,,,,,,,,,,,,,,,,,,,,,,,,,,,,,,,,,,,,,,,,,,,,,,,,,,,,,,,
,,,,,,,,,,,,l,1.17741,Incorrect,,,,,,t3.png,t4.png,1,0.90855,19,Female,2020-08-21_14h15.59.760,torte-2b,2020.1.3,Win32,60,13289,,,,,0,82,82,9,1,,,,,,,,,,,,,,,,,,,,,,,,,,,,,,,,,,,,,,,,,,,,,,,,,,,,,,,,
,,,,,,,,,,,,l,0.9898,Incorrect,,,,,,t1.png,t1.png,0,0.97829,19,Female,2020-08-21_14h15.59.760,torte-2b,2020.1.3,Win32,60,13289,,,,,0,83,83,114,1,,,,,,,,,,,,,,,,,,,,,,,,,,,,,,,,,,,,,,,,,,,,,,,,,,,,,,,,
,,,,,,,,,,,,l,1.279985,Incorrect,,,,,,t2.png,t3.png,1,0.90855,19,Female,2020-08-21_14h15.59.760,torte-2b,2020.1.3,Win32,60,13289,,,,,0,84,84,64,1,,,,,,,,,,,,,,,,,,,,,,,,,,,,,,,,,,,,,,,,,,,,,,,,,,,,,,,,
,,,,,,,,,,,,a,1.795495,Incorrect,,,,,,t3.png,t1.png,2,0.056466,19,Female,2020-08-21_14h15.59.760,torte-2b,2020.1.3,Win32,60,13289,,,,,0,85,85,34,1,,,,,,,,,,,,,,,,,,,,,,,,,,,,,,,,,,,,,,,,,,,,,,,,,,,,,,,,
,,,,,,,,,,,,l,1.21815,Incorrect,,,,,,t4.png,t5.png,1,0.90025,19,Female,2020-08-21_14h15.59.760,torte-2b,2020.1.3,Win32,60,13289,,,,,0,86,86,33,1,,,,,,,,,,,,,,,,,,,,,,,,,,,,,,,,,,,,,,,,,,,,,,,,,,,,,,,,
,,,,,,,,,,,,l,1.17383,Correct!,,,,,,t3.png,t5.png,2,0.056466,19,Female,2020-08-21_14h15.59.760,torte-2b,2020.1.3,Win32,60,13289,,,,,0,87,87,45,1,,,,,,,,,,,,,,,,,,,,,,,,,,,,,,,,,,,,,,,,,,,,,,,,,,,,,,,,
,,,,,,,,,,,,a,0.385015,Incorrect,,,,,,t1.png,t5.png,4,9.55E-11,19,Female,2020-08-21_14h15.59.760,torte-2b,2020.1.3,Win32,60,13289,,,,,0,88,88,3,1,,,,,,,,,,,,,,,,,,,,,,,,,,,,,,,,,,,,,,,,,,,,,,,,,,,,,,,,
,,,,,,,,,,,,l,0.437275,Incorrect,,,,,,t3.png,t4.png,1,0.90855,19,Female,2020-08-21_14h15.59.760,torte-2b,2020.1.3,Win32,60,13289,,,,,0,89,89,5,1,,,,,,,,,,,,,,,,,,,,,,,,,,,,,,,,,,,,,,,,,,,,,,,,,,,,,,,,
,,,,,,,,,,,,l,0.276515,Incorrect,,,,,,t2.png,t3.png,1,0.90855,19,Female,2020-08-21_14h15.59.760,torte-2b,2020.1.3,Win32,60,13289,,,,,0,90,90,70,1,,,,,,,,,,,,,,,,,,,,,,,,,,,,,,,,,,,,,,,,,,,,,,,,,,,,,,,,
,,,,,,,,,,,,a,0.224925,Incorrect,,,,,,t2.png,t3.png,1,0.909,19,Female,2020-08-21_14h15.59.760,torte-2b,2020.1.3,Win32,60,13289,,,,,0,91,91,8,1,,,,,,,,,,,,,,,,,,,,,,,,,,,,,,,,,,,,,,,,,,,,,,,,,,,,,,,,
,,,,,,,,,,,,l,0.25152,Correct!,,,,,,t1.png,t4.png,3,0.0000131,19,Female,2020-08-21_14h15.59.760,torte-2b,2020.1.3,Win32,60,13289,,,,,0,92,92,36,1,,,,,,,,,,,,,,,,,,,,,,,,,,,,,,,,,,,,,,,,,,,,,,,,,,,,,,,,
,,,,,,,,,,,,l,0.373455,Correct!,,,,,,t3.png,t2.png,1,0.90855,19,Female,2020-08-21_14h15.59.760,torte-2b,2020.1.3,Win32,60,13289,,,,,0,93,93,99,1,,,,,,,,,,,,,,,,,,,,,,,,,,,,,,,,,,,,,,,,,,,,,,,,,,,,,,,,
,,,,,,,,,,,,l,0.29548,Correct!,,,,,,t1.png,t4.png,3,0.0000131,19,Female,2020-08-21_14h15.59.760,torte-2b,2020.1.3,Win32,60,13289,,,,,0,94,94,106,1,,,,,,,,,,,,,,,,,,,,,,,,,,,,,,,,,,,,,,,,,,,,,,,,,,,,,,,,
,,,,,,,,,,,,l,0.48985,Correct!,,,,,,t1.png,t3.png,2,0.0565,19,Female,2020-08-21_14h15.59.760,torte-2b,2020.1.3,Win32,60,13289,,,,,0,95,95,95,1,,,,,,,,,,,,,,,,,,,,,,,,,,,,,,,,,,,,,,,,,,,,,,,,,,,,,,,,
,,,,,,,,,,,,a,0.958735,Correct!,,,,,,t4.png,t4.png,0,0.98115,19,Female,2020-08-21_14h15.59.760,torte-2b,2020.1.3,Win32,60,13289,,,,,0,96,96,19,1,,,,,,,,,,,,,,,,,,,,,,,,,,,,,,,,,,,,,,,,,,,,,,,,,,,,,,,,
,,,,,,,,,,,,a,0.720505,Correct!,,,,,,t4.png,t4.png,0,0.98115,19,Female,2020-08-21_14h15.59.760,torte-2b,2020.1.3,Win32,60,13289,,,,,0,97,97,59,1,,,,,,,,,,,,,,,,,,,,,,,,,,,,,,,,,,,,,,,,,,,,,,,,,,,,,,,,
,,,,,,,,,,,,a,0.93642,Incorrect,,,,,,t5.png,t2.png,3,0.0000131,19,Female,2020-08-21_14h15.59.760,torte-2b,2020.1.3,Win32,60,13289,,,,,0,98,98,82,1,,,,,,,,,,,,,,,,,,,,,,,,,,,,,,,,,,,,,,,,,,,,,,,,,,,,,,,,
,,,,,,,,,,,,l,0.637825,Incorrect,,,,,,t3.png,t4.png,1,0.90855,19,Female,2020-08-21_14h15.59.760,torte-2b,2020.1.3,Win32,60,13289,,,,,0,99,99,58,1,,,,,,,,,,,,,,,,,,,,,,,,,,,,,,,,,,,,,,,,,,,,,,,,,,,,,,,,
,,,,,,,,,,,,a,0.67188,Correct!,,,,,,t5.png,t5.png,0,0.97829,19,Female,2020-08-21_14h15.59.760,torte-2b,2020.1.3,Win32,60,13289,,,,,0,100,100,77,1,,,,,,,,,,,,,,,,,,,,,,,,,,,,,,,,,,,,,,,,,,,,,,,,,,,,,,,,
,,,,,,,,,,,,a,0.811915,Incorrect,,,,,,t5.png,t1.png,4,9.55E-11,19,Female,2020-08-21_14h15.59.760,torte-2b,2020.1.3,Win32,60,13289,,,,,0,101,101,31,1,,,,,,,,,,,,,,,,,,,,,,,,,,,,,,,,,,,,,,,,,,,,,,,,,,,,,,,,
,,,,,,,,,,,,a,1.092015,Correct!,,,,,,t5.png,t4.png,1,0.90025,19,Female,2020-08-21_14h15.59.760,torte-2b,2020.1.3,Win32,60,13289,,,,,0,102,102,38,1,,,,,,,,,,,,,,,,,,,,,,,,,,,,,,,,,,,,,,,,,,,,,,,,,,,,,,,,
,,,,,,,,,,,,l,0.75613,Correct!,,,,,,t3.png,t4.png,1,0.90855,19,Female,2020-08-21_14h15.59.760,torte-2b,2020.1.3,Win32,60,13289,,,,,0,103,103,111,1,,,,,,,,,,,,,,,,,,,,,,,,,,,,,,,,,,,,,,,,,,,,,,,,,,,,,,,,
,,,,,,,,,,,,a,1.05261,Incorrect,,,,,,t5.png,t1.png,4,9.55E-11,19,Female,2020-08-21_14h15.59.760,torte-2b,2020.1.3,Win32,60,13289,,,,,0,104,104,101,1,,,,,,,,,,,,,,,,,,,,,,,,,,,,,,,,,,,,,,,,,,,,,,,,,,,,,,,,
,,,,,,,,,,,,l,0.670905,Correct!,,,,,,t3.png,t5.png,2,0.056466,19,Female,2020-08-21_14h15.59.760,torte-2b,2020.1.3,Win32,60,13289,,,,,0,105,105,47,1,,,,,,,,,,,,,,,,,,,,,,,,,,,,,,,,,,,,,,,,,,,,,,,,,,,,,,,,
,,,,,,,,,,,,l,1.202485,Incorrect,,,,,,t1.png,t2.png,1,0.9,19,Female,2020-08-21_14h15.59.760,torte-2b,2020.1.3,Win32,60,13289,,,,,0,106,106,61,1,,,,,,,,,,,,,,,,,,,,,,,,,,,,,,,,,,,,,,,,,,,,,,,,,,,,,,,,
,,,,,,,,,,,,l,1.058765,Correct!,,,,,,t2.png,t4.png,2,0.059078,19,Female,2020-08-21_14h15.59.760,torte-2b,2020.1.3,Win32,60,13289,,,,,0,107,107,18,1,,,,,,,,,,,,,,,,,,,,,,,,,,,,,,,,,,,,,,,,,,,,,,,,,,,,,,,,
,,,,,,,,,,,,a,0.858055,Incorrect,,,,,,t5.png,t3.png,2,0.056466,19,Female,2020-08-21_14h15.59.760,torte-2b,2020.1.3,Win32,60,13289,,,,,0,108,108,37,1,,,,,,,,,,,,,,,,,,,,,,,,,,,,,,,,,,,,,,,,,,,,,,,,,,,,,,,,
,,,,,,,,,,,,l,0.712825,Correct!,,,,,,t4.png,t1.png,3,0.059078,19,Female,2020-08-21_14h15.59.760,torte-2b,2020.1.3,Win32,60,13289,,,,,0,109,109,75,1,,,,,,,,,,,,,,,,,,,,,,,,,,,,,,,,,,,,,,,,,,,,,,,,,,,,,,,,
,,,,,,,,,,,,l,1.556615,Correct!,,,,,,t1.png,t5.png,4,9.55E-11,19,Female,2020-08-21_14h15.59.760,torte-2b,2020.1.3,Win32,60,13289,,,,,0,110,110,20,1,,,,,,,,,,,,,,,,,,,,,,,,,,,,,,,,,,,,,,,,,,,,,,,,,,,,,,,,
,,,,,,,,,,,,l,1.029355,Incorrect,,,,,,t3.png,t4.png,1,0.90855,19,Female,2020-08-21_14h15.59.760,torte-2b,2020.1.3,Win32,60,13289,,,,,0,111,111,103,1,,,,,,,,,,,,,,,,,,,,,,,,,,,,,,,,,,,,,,,,,,,,,,,,,,,,,,,,
,,,,,,,,,,,,a,0.91633,Incorrect,,,,,,t3.png,t1.png,2,0.056466,19,Female,2020-08-21_14h15.59.760,torte-2b,2020.1.3,Win32,60,13289,,,,,0,112,112,109,1,,,,,,,,,,,,,,,,,,,,,,,,,,,,,,,,,,,,,,,,,,,,,,,,,,,,,,,,
,,,,,,,,,,,,l,0.502145,Incorrect,,,,,,t2.png,t1.png,1,0.90025,19,Female,2020-08-21_14h15.59.760,torte-2b,2020.1.3,Win32,60,13289,,,,,0,113,113,44,1,,,,,,,,,,,,,,,,,,,,,,,,,,,,,,,,,,,,,,,,,,,,,,,,,,,,,,,,
,,,,,,,,,,,,l,0.55558,Incorrect,,,,,,t2.png,t1.png,1,0.90025,19,Female,2020-08-21_14h15.59.760,torte-2b,2020.1.3,Win32,60,13289,,,,,0,114,114,105,1,,,,,,,,,,,,,,,,,,,,,,,,,,,,,,,,,,,,,,,,,,,,,,,,,,,,,,,,
,,,,,,,,,,,,l,0.384795,Correct!,,,,,,t5.png,t3.png,2,0.056466,19,Female,2020-08-21_14h15.59.760,torte-2b,2020.1.3,Win32,60,13289,,,,,0,115,115,80,1,,,,,,,,,,,,,,,,,,,,,,,,,,,,,,,,,,,,,,,,,,,,,,,,,,,,,,,,
,,,,,,,,,,,,l,0.86085,Correct!,,,,,,t2.png,t5.png,3,0.0000131,19,Female,2020-08-21_14h15.59.760,torte-2b,2020.1.3,Win32,60,13289,,,,,0,116,116,85,1,,,,,,,,,,,,,,,,,,,,,,,,,,,,,,,,,,,,,,,,,,,,,,,,,,,,,,,,
,,,,,,,,,,,,a,0.604155,Correct!,,,,,,t4.png,t3.png,1,0.90855,19,Female,2020-08-21_14h15.59.760,torte-2b,2020.1.3,Win32,60,13289,,,,,0,117,117,29,1,,,,,,,,,,,,,,,,,,,,,,,,,,,,,,,,,,,,,,,,,,,,,,,,,,,,,,,,
,,,,,,,,,,,,l,0.654685,Correct!,,,,,,t2.png,t3.png,1,0.90855,19,Female,2020-08-21_14h15.59.760,torte-2b,2020.1.3,Win32,60,13289,,,,,0,118,118,113,1,,,,,,,,,,,,,,,,,,,,,,,,,,,,,,,,,,,,,,,,,,,,,,,,,,,,,,,,
,,,,,,,,,,,,a,0.512155,Incorrect,,,,,,t5.png,t1.png,4,9.55E-11,19,Female,2020-08-21_14h15.59.760,torte-2b,2020.1.3,Win32,60,13289,,,,,0,119,119,15,1,,,,,,,,,,,,,,,,,,,,,,,,,,,,,,,,,,,,,,,,,,,,,,,,,,,,,,,,
,,,,,,,,,,,,,,,,,,,,,,,,19,Female,2020-08-21_14h15.59.760,torte-2b,2020.1.3,Win32,60,13289,space,1.34762,,,,,,,,space,108.5876,,0,0,0,0,1,6,,,,,,,,,,,,,,,,,,,,,,,,,,,,,,,,,,,,,,,,,,,,,,,
,,,,,,,,,,,,,,,,,,,,,,,,19,Female,2020-08-21_14h15.59.760,torte-2b,2020.1.3,Win32,60,13289,,,,,,,,,,,,,0,1,1,1,1,7,,,,,,,,,,,,,,,,,,,,,,,,,,,,,,,,,,,,,,,,,,,,,,,
,,,,,,,,,,,,,,,,,,,,,,,,19,Female,2020-08-21_14h15.59.760,torte-2b,2020.1.3,Win32,60,13289,,,,,,,,,,,,space,0,2,2,2,1,6,0.31532,,,,,,,,,,,,,,,,,,,,,,,,,,,,,,,,,,,,,,,,,,,,,,
,,,,,,,,,,,,,,,,,,,,,,,,19,Female,2020-08-21_14h15.59.760,torte-2b,2020.1.3,Win32,60,13289,,,,,,,,,,,,space,0,3,3,3,1,7,0.65954,,,,,,,,,,,,,,,,,,,,,,,,,,,,,,,,,,,,,,,,,,,,,,
,,,,,,,,,,,,,,,,,,,,,,,,19,Female,2020-08-21_14h15.59.760,torte-2b,2020.1.3,Win32,60,13289,,,,,,,,,,,,,0,4,4,4,1,5,,,,,,,,,,,,,,,,,,,,,,,,,,,,,,,,,,,,,,,,,,,,,,,
,,,,,,,,,,,,,,,,,,,,,,,,19,Female,2020-08-21_14h15.59.760,torte-2b,2020.1.3,Win32,60,13289,,,,,,,,,,,,space,0,5,5,5,1,7,0.52856,,,,,,,,,,,,,,,,,,,,,,,,,,,,,,,,,,,,,,,,,,,,,,
,,,,,,,,,,,,,,,,,,,,,,,,19,Female,2020-08-21_14h15.59.760,torte-2b,2020.1.3,Win32,60,13289,,,,,,,,,,,,,0,6,6,6,1,2,,,,,,,,,,,,,,,,,,,,,,,,,,,,,,,,,,,,,,,,,,,,,,,
,,,,,,,,,,,,,,,,,,,,,,,,19,Female,2020-08-21_14h15.59.760,torte-2b,2020.1.3,Win32,60,13289,,,,,,,,,,,,,0,7,7,7,1,4,,,,,,,,,,,,,,,,,,,,,,,,,,,,,,,,,,,,,,,,,,,,,,,
,,,,,,,,,,,,,,,,,,,,,,,,19,Female,2020-08-21_14h15.59.760,torte-2b,2020.1.3,Win32,60,13289,,,,,,,,,,,,space,0,8,8,8,1,7,0.535645,,,,,,,,,,,,,,,,,,,,,,,,,,,,,,,,,,,,,,,,,,,,,,
,,,,,,,,,,,,,,,,,,,,,,,,19,Female,2020-08-21_14h15.59.760,torte-2b,2020.1.3,Win32,60,13289,,,,,,,,,,,,,0,9,9,9,1,4,,,,,,,,,,,,,,,,,,,,,,,,,,,,,,,,,,,,,,,,,,,,,,,
,,,,,,,,,,,,,,,,,,,,,,,,19,Female,2020-08-21_14h15.59.760,torte-2b,2020.1.3,Win32,60,13289,,,,,,,,,,,,space,0,10,10,10,1,7,0.35018,,,,,,,,,,,,,,,,,,,,,,,,,,,,,,,,,,,,,,,,,,,,,,
,,,,,,,,,,,,,,,,,,,,,,,,19,Female,2020-08-21_14h15.59.760,torte-2b,2020.1.3,Win32,60,13289,,,,,,,,,,,,,0,11,11,11,1,7,,,,,,,,,,,,,,,,,,,,,,,,,,,,,,,,,,,,,,,,,,,,,,,
,,,,,,,,,,,,,,,,,,,,,,,,19,Female,2020-08-21_14h15.59.760,torte-2b,2020.1.3,Win32,60,13289,,,,,,,,,,,,space,0,12,12,12,1,7,0.385015,,,,,,,,,,,,,,,,,,,,,,,,,,,,,,,,,,,,,,,,,,,,,,
,,,,,,,,,,,,,,,,,,,,,,,,19,Female,2020-08-21_14h15.59.760,torte-2b,2020.1.3,Win32,60,13289,,,,,,,,,,,,,0,13,13,13,1,4,,,,,,,,,,,,,,,,,,,,,,,,,,,,,,,,,,,,,,,,,,,,,,,
,,,,,,,,,,,,,,,,,,,,,,,,19,Female,2020-08-21_14h15.59.760,torte-2b,2020.1.3,Win32,60,13289,,,,,,,,,,,,,0,14,14,14,1,6,,,,,,,,,,,,,,,,,,,,,,,,,,,,,,,,,,,,,,,,,,,,,,,
,,,,,,,,,,,,,,,,,,,,,,,,19,Female,2020-08-21_14h15.59.760,torte-2b,2020.1.3,Win32,60,13289,,,,,,,,,,,,space,0,15,15,15,1,4,0.80656,,,,,,,,,,,,,,,,,,,,,,,,,,,,,,,,,,,,,,,,,,,,,,
,,,,,,,,,,,,,,,,,,,,,,,,19,Female,2020-08-21_14h15.59.760,torte-2b,2020.1.3,Win32,60,13289,,,,,,,,,,,,space,0,16,16,16,1,6,0.64271,,,,,,,,,,,,,,,,,,,,,,,,,,,,,,,,,,,,,,,,,,,,,,
,,,,,,,,,,,,,,,,,,,,,,,,19,Female,2020-08-21_14h15.59.760,torte-2b,2020.1.3,Win32,60,13289,,,,,,,,,,,,,0,17,17,17,1,7,,,,,,,,,,,,,,,,,,,,,,,,,,,,,,,,,,,,,,,,,,,,,,,
,,,,,,,,,,,,,,,,,,,,,,,,19,Female,2020-08-21_14h15.59.760,torte-2b,2020.1.3,Win32,60,13289,,,,,,,,,,,,space,0,18,18,18,1,6,0.35857,,,,,,,,,,,,,,,,,,,,,,,,,,,,,,,,,,,,,,,,,,,,,,
,,,,,,,,,,,,,,,,,,,,,,,,19,Female,2020-08-21_14h15.59.760,torte-2b,2020.1.3,Win32,60,13289,,,,,,,,,,,,space,0,19,19,19,1,7,0.38201,,,,,,,,,,,,,,,,,,,,,,,,,,,,,,,,,,,,,,,,,,,,,,
,,,,,,,,,,,,,,,,,,,,,,,,19,Female,2020-08-21_14h15.59.760,torte-2b,2020.1.3,Win32,60,13289,,,,,,,,,,,,,0,20,20,20,1,5,,,,,,,,,,,,,,,,,,,,,,,,,,,,,,,,,,,,,,,,,,,,,,,
,,,,,,,,,,,,,,,,,,,,,,,,19,Female,2020-08-21_14h15.59.760,torte-2b,2020.1.3,Win32,60,13289,,,,,,,,,,,,,0,21,21,21,1,1,,,,,,,,,,,,,,,,,,,,,,,,,,,,,,,,,,,,,,,,,,,,,,,
,,,,,,,,,,,,,,,,,,,,,,,,19,Female,2020-08-21_14h15.59.760,torte-2b,2020.1.3,Win32,60,13289,,,,,,,,,,,,,0,22,22,22,1,6,,,,,,,,,,,,,,,,,,,,,,,,,,,,,,,,,,,,,,,,,,,,,,,
,,,,,,,,,,,,,,,,,,,,,,,,19,Female,2020-08-21_14h15.59.760,torte-2b,2020.1.3,Win32,60,13289,,,,,,,,,,,,space,0,23,23,23,1,1,0.37387,,,,,,,,,,,,,,,,,,,,,,,,,,,,,,,,,,,,,,,,,,,,,,
,,,,,,,,,,,,,,,,,,,,,,,,19,Female,2020-08-21_14h15.59.760,torte-2b,2020.1.3,Win32,60,13289,,,,,,,,,,,,,0,24,24,24,1,5,,,,,,,,,,,,,,,,,,,,,,,,,,,,,,,,,,,,,,,,,,,,,,,
,,,,,,,,,,,,,,,,,,,,,,,,19,Female,2020-08-21_14h15.59.760,torte-2b,2020.1.3,Win32,60,13289,,,,,,,,,,,,space,0,25,25,25,1,6,0.95276,,,,,,,,,,,,,,,,,,,,,,,,,,,,,,,,,,,,,,,,,,,,,,
,,,,,,,,,,,,,,,,,,,,,,,,19,Female,2020-08-21_14h15.59.760,torte-2b,2020.1.3,Win32,60,13289,,,,,,,,,,,,,0,26,26,26,1,6,,,,,,,,,,,,,,,,,,,,,,,,,,,,,,,,,,,,,,,,,,,,,,,
,,,,,,,,,,,,,,,,,,,,,,,,19,Female,2020-08-21_14h15.59.760,torte-2b,2020.1.3,Win32,60,13289,,,,,,,,,,,,space,0,27,27,27,1,6,0.485045,,,,,,,,,,,,,,,,,,,,,,,,,,,,,,,,,,,,,,,,,,,,,,
,,,,,,,,,,,,,,,,,,,,,,,,19,Female,2020-08-21_14h15.59.760,torte-2b,2020.1.3,Win32,60,13289,,,,,,,,,,,,,0,28,28,28,1,5,,,,,,,,,,,,,,,,,,,,,,,,,,,,,,,,,,,,,,,,,,,,,,,
,,,,,,,,,,,,,,,,,,,,,,,,19,Female,2020-08-21_14h15.59.760,torte-2b,2020.1.3,Win32,60,13289,,,,,,,,,,,,,0,29,29,29,1,2,,,,,,,,,,,,,,,,,,,,,,,,,,,,,,,,,,,,,,,,,,,,,,,
,,,,,,,,,,,,,,,,,,,,,,,,19,Female,2020-08-21_14h15.59.760,torte-2b,2020.1.3,Win32,60,13289,,,,,,,,,,,,space,0,30,30,30,1,5,0.30155,,,,,,,,,,,,,,,,,,,,,,,,,,,,,,,,,,,,,,,,,,,,,,
,,,,,,,,,,,,,,,,,,,,,,,,19,Female,2020-08-21_14h15.59.760,torte-2b,2020.1.3,Win32,60,13289,,,,,,,,,,,,space,0,31,31,31,1,2,0.985025,,,,,,,,,,,,,,,,,,,,,,,,,,,,,,,,,,,,,,,,,,,,,,
,,,,,,,,,,,,,,,,,,,,,,,,19,Female,2020-08-21_14h15.59.760,torte-2b,2020.1.3,Win32,60,13289,,,,,,,,,,,,space,0,32,32,32,1,5,0.51876,,,,,,,,,,,,,,,,,,,,,,,,,,,,,,,,,,,,,,,,,,,,,,
,,,,,,,,,,,,,,,,,,,,,,,,19,Female,2020-08-21_14h15.59.760,torte-2b,2020.1.3,Win32,60,13289,,,,,,,,,,,,,0,33,33,33,1,1,,,,,,,,,,,,,,,,,,,,,,,,,,,,,,,,,,,,,,,,,,,,,,,
,,,,,,,,,,,,,,,,,,,,,,,,19,Female,2020-08-21_14h15.59.760,torte-2b,2020.1.3,Win32,60,13289,,,,,,,,,,,,space,0,34,34,34,1,1,0.62629,,,,,,,,,,,,,,,,,,,,,,,,,,,,,,,,,,,,,,,,,,,,,,
,,,,,,,,,,,,,,,,,,,,,,,,19,Female,2020-08-21_14h15.59.760,torte-2b,2020.1.3,Win32,60,13289,,,,,,,,,,,,,,,,,,2,,0,0,0,0,1,,,,,,,,,,,,,,,,,,,,,,,,,,,,,,,,,,,,,,,,,
,,,,,,,,,,,,,,,,,,,,,,,,19,Female,2020-08-21_14h15.59.760,torte-2b,2020.1.3,Win32,60,13289,,,,,,,,,,,,,,,,,,2,,0,1,1,1,1,,,,,,,,,,,,,,,,,,,,,,,,,,,,,,,,,,,,,,,,,
,,,,,,,,,,,,,,,,,,,,,,,,19,Female,2020-08-21_14h15.59.760,torte-2b,2020.1.3,Win32,60,13289,,,,,,,,,,,,,,,,,,6,,0,2,2,2,1,,,,,,,,,,,,,,,,,,,,,,,,,,,,,,,,,,,,,,,,,
,,,,,,,,,,,,,,,,,,,,,,,,19,Female,2020-08-21_14h15.59.760,torte-2b,2020.1.3,Win32,60,13289,,,,,,,,,,,,space,,,,,,2,0.300385,0,3,3,3,1,,,,,,,,,,,,,,,,,,,,,,,,,,,,,,,,,,,,,,,,,
,,,,,,,,,,,,,,,,,,,,,,,,19,Female,2020-08-21_14h15.59.760,torte-2b,2020.1.3,Win32,60,13289,,,,,,,,,,,,space,,,,,,6,0.50343,0,4,4,4,1,,,,,,,,,,,,,,,,,,,,,,,,,,,,,,,,,,,,,,,,,
,,,,,,,,,,,,,,,,,,,,,,,,19,Female,2020-08-21_14h15.59.760,torte-2b,2020.1.3,Win32,60,13289,,,,,,,,,,,,space,,,,,,2,0.41103,0,5,5,5,1,,,,,,,,,,,,,,,,,,,,,,,,,,,,,,,,,,,,,,,,,
,,,,,,,,,,,,,,,,,,,,,,,,19,Female,2020-08-21_14h15.59.760,torte-2b,2020.1.3,Win32,60,13289,,,,,,,,,,,,,,,,,,7,,0,6,6,6,1,,,,,,,,,,,,,,,,,,,,,,,,,,,,,,,,,,,,,,,,,
,,,,,,,,,,,,,,,,,,,,,,,,19,Female,2020-08-21_14h15.59.760,torte-2b,2020.1.3,Win32,60,13289,,,,,,,,,,,,space,,,,,,2,0.33782,0,7,7,7,1,,,,,,,,,,,,,,,,,,,,,,,,,,,,,,,,,,,,,,,,,
,,,,,,,,,,,,,,,,,,,,,,,,19,Female,2020-08-21_14h15.59.760,torte-2b,2020.1.3,Win32,60,13289,,,,,,,,,,,,space,,,,,,7,0.369425,0,8,8,8,1,,,,,,,,,,,,,,,,,,,,,,,,,,,,,,,,,,,,,,,,,
,,,,,,,,,,,,,,,,,,,,,,,,19,Female,2020-08-21_14h15.59.760,torte-2b,2020.1.3,Win32,60,13289,,,,,,,,,,,,space,,,,,,2,0.40844,0,9,9,9,1,,,,,,,,,,,,,,,,,,,,,,,,,,,,,,,,,,,,,,,,,
,,,,,,,,,,,,,,,,,,,,,,,,19,Female,2020-08-21_14h15.59.760,torte-2b,2020.1.3,Win32,60,13289,,,,,,,,,,,,,,,,,,5,,0,10,10,10,1,,,,,,,,,,,,,,,,,,,,,,,,,,,,,,,,,,,,,,,,,
,,,,,,,,,,,,,,,,,,,,,,,,19,Female,2020-08-21_14h15.59.760,torte-2b,2020.1.3,Win32,60,13289,,,,,,,,,,,,space,,,,,,4,0.30347,0,11,11,11,1,,,,,,,,,,,,,,,,,,,,,,,,,,,,,,,,,,,,,,,,,
,,,,,,,,,,,,,,,,,,,,,,,,19,Female,2020-08-21_14h15.59.760,torte-2b,2020.1.3,Win32,60,13289,,,,,,,,,,,,space,,,,,,5,0.620635,0,12,12,12,1,,,,,,,,,,,,,,,,,,,,,,,,,,,,,,,,,,,,,,,,,
,,,,,,,,,,,,,,,,,,,,,,,,19,Female,2020-08-21_14h15.59.760,torte-2b,2020.1.3,Win32,60,13289,,,,,,,,,,,,,,,,,,6,,0,13,13,13,1,,,,,,,,,,,,,,,,,,,,,,,,,,,,,,,,,,,,,,,,,
,,,,,,,,,,,,,,,,,,,,,,,,19,Female,2020-08-21_14h15.59.760,torte-2b,2020.1.3,Win32,60,13289,,,,,,,,,,,,space,,,,,,5,0.35652,0,14,14,14,1,,,,,,,,,,,,,,,,,,,,,,,,,,,,,,,,,,,,,,,,,
,,,,,,,,,,,,,,,,,,,,,,,,19,Female,2020-08-21_14h15.59.760,torte-2b,2020.1.3,Win32,60,13289,,,,,,,,,,,,,,,,,,4,,0,15,15,15,1,,,,,,,,,,,,,,,,,,,,,,,,,,,,,,,,,,,,,,,,,
,,,,,,,,,,,,,,,,,,,,,,,,19,Female,2020-08-21_14h15.59.760,torte-2b,2020.1.3,Win32,60,13289,,,,,,,,,,,,space,,,,,,5,0.306615,0,16,16,16,1,,,,,,,,,,,,,,,,,,,,,,,,,,,,,,,,,,,,,,,,,
,,,,,,,,,,,,,,,,,,,,,,,,19,Female,2020-08-21_14h15.59.760,torte-2b,2020.1.3,Win32,60,13289,,,,,,,,,,,,,,,,,,3,,0,17,17,17,1,,,,,,,,,,,,,,,,,,,,,,,,,,,,,,,,,,,,,,,,,
,,,,,,,,,,,,,,,,,,,,,,,,19,Female,2020-08-21_14h15.59.760,torte-2b,2020.1.3,Win32,60,13289,,,,,,,,,,,,,,,,,,6,,0,18,18,18,1,,,,,,,,,,,,,,,,,,,,,,,,,,,,,,,,,,,,,,,,,
,,,,,,,,,,,,,,,,,,,,,,,,19,Female,2020-08-21_14h15.59.760,torte-2b,2020.1.3,Win32,60,13289,,,,,,,,,,,,,,,,,,6,,0,19,19,19,1,,,,,,,,,,,,,,,,,,,,,,,,,,,,,,,,,,,,,,,,,
,,,,,,,,,,,,,,,,,,,,,,,,19,Female,2020-08-21_14h15.59.760,torte-2b,2020.1.3,Win32,60,13289,,,,,,,,,,,,space,,,,,,6,0.571445,0,20,20,20,1,,,,,,,,,,,,,,,,,,,,,,,,,,,,,,,,,,,,,,,,,
,,,,,,,,,,,,,,,,,,,,,,,,19,Female,2020-08-21_14h15.59.760,torte-2b,2020.1.3,Win32,60,13289,,,,,,,,,,,,,,,,,,4,,0,21,21,21,1,,,,,,,,,,,,,,,,,,,,,,,,,,,,,,,,,,,,,,,,,
,,,,,,,,,,,,,,,,,,,,,,,,19,Female,2020-08-21_14h15.59.760,torte-2b,2020.1.3,Win32,60,13289,,,,,,,,,,,,space,,,,,,6,0.518345,0,22,22,22,1,,,,,,,,,,,,,,,,,,,,,,,,,,,,,,,,,,,,,,,,,
,,,,,,,,,,,,,,,,,,,,,,,,19,Female,2020-08-21_14h15.59.760,torte-2b,2020.1.3,Win32,60,13289,,,,,,,,,,,,space,,,,,,4,0.335065,0,23,23,23,1,,,,,,,,,,,,,,,,,,,,,,,,,,,,,,,,,,,,,,,,,
,,,,,,,,,,,,,,,,,,,,,,,,19,Female,2020-08-21_14h15.59.760,torte-2b,2020.1.3,Win32,60,13289,,,,,,,,,,,,space,,,,,,6,0.523295,0,24,24,24,1,,,,,,,,,,,,,,,,,,,,,,,,,,,,,,,,,,,,,,,,,
,,,,,,,,,,,,,,,,,,,,,,,,19,Female,2020-08-21_14h15.59.760,torte-2b,2020.1.3,Win32,60,13289,,,,,,,,,,,,,,,,,,6,,0,25,25,25,1,,,,,,,,,,,,,,,,,,,,,,,,,,,,,,,,,,,,,,,,,
,,,,,,,,,,,,,,,,,,,,,,,,19,Female,2020-08-21_14h15.59.760,torte-2b,2020.1.3,Win32,60,13289,,,,,,,,,,,,,,,,,,7,,0,26,26,26,1,,,,,,,,,,,,,,,,,,,,,,,,,,,,,,,,,,,,,,,,,
,,,,,,,,,,,,,,,,,,,,,,,,19,Female,2020-08-21_14h15.59.760,torte-2b,2020.1.3,Win32,60,13289,,,,,,,,,,,,,,,,,,1,,0,27,27,27,1,,,,,,,,,,,,,,,,,,,,,,,,,,,,,,,,,,,,,,,,,
,,,,,,,,,,,,,,,,,,,,,,,,19,Female,2020-08-21_14h15.59.760,torte-2b,2020.1.3,Win32,60,13289,,,,,,,,,,,,space,,,,,,7,0.32253,0,28,28,28,1,,,,,,,,,,,,,,,,,,,,,,,,,,,,,,,,,,,,,,,,,
,,,,,,,,,,,,,,,,,,,,,,,,19,Female,2020-08-21_14h15.59.760,torte-2b,2020.1.3,Win32,60,13289,,,,,,,,,,,,,,,,,,4,,0,29,29,29,1,,,,,,,,,,,,,,,,,,,,,,,,,,,,,,,,,,,,,,,,,
,,,,,,,,,,,,,,,,,,,,,,,,19,Female,2020-08-21_14h15.59.760,torte-2b,2020.1.3,Win32,60,13289,,,,,,,,,,,,space,,,,,,7,0.35903,0,30,30,30,1,,,,,,,,,,,,,,,,,,,,,,,,,,,,,,,,,,,,,,,,,
,,,,,,,,,,,,,,,,,,,,,,,,19,Female,2020-08-21_14h15.59.760,torte-2b,2020.1.3,Win32,60,13289,,,,,,,,,,,,,,,,,,3,,0,31,31,31,1,,,,,,,,,,,,,,,,,,,,,,,,,,,,,,,,,,,,,,,,,
,,,,,,,,,,,,,,,,,,,,,,,,19,Female,2020-08-21_14h15.59.760,torte-2b,2020.1.3,Win32,60,13289,,,,,,,,,,,,,,,,,,2,,0,32,32,32,1,,,,,,,,,,,,,,,,,,,,,,,,,,,,,,,,,,,,,,,,,
,,,,,,,,,,,,,,,,,,,,,,,,19,Female,2020-08-21_14h15.59.760,torte-2b,2020.1.3,Win32,60,13289,,,,,,,,,,,,,,,,,,6,,0,33,33,33,1,,,,,,,,,,,,,,,,,,,,,,,,,,,,,,,,,,,,,,,,,
,,,,,,,,,,,,,,,,,,,,,,,,19,Female,2020-08-21_14h15.59.760,torte-2b,2020.1.3,Win32,60,13289,,,,,,,,,,,,,,,,,,3,,0,34,34,34,1,,,,,,,,,,,,,,,,,,,,,,,,,,,,,,,,,,,,,,,,,
,,,,,,,,,,,,,,,,,,,,,,,,19,Female,2020-08-21_14h15.59.760,torte-2b,2020.1.3,Win32,60,13289,,,,,,,,,,,,,,,,,,7,,,,,,,0,0,0,0,1,,,,,,,,,,,,,,,,,,,,,,,,,,,,,,,,,,,,
,,,,,,,,,,,,,,,,,,,,,,,,19,Female,2020-08-21_14h15.59.760,torte-2b,2020.1.3,Win32,60,13289,,,,,,,,,,,,,,,,,,5,,,,,,,0,1,1,1,1,,,,,,,,,,,,,,,,,,,,,,,,,,,,,,,,,,,,
,,,,,,,,,,,,,,,,,,,,,,,,19,Female,2020-08-21_14h15.59.760,torte-2b,2020.1.3,Win32,60,13289,,,,,,,,,,,,,,,,,,4,,,,,,,0,2,2,2,1,,,,,,,,,,,,,,,,,,,,,,,,,,,,,,,,,,,,
,,,,,,,,,,,,,,,,,,,,,,,,19,Female,2020-08-21_14h15.59.760,torte-2b,2020.1.3,Win32,60,13289,,,,,,,,,,,,space,,,,,,5,0.373585,,,,,,0,3,3,3,1,,,,,,,,,,,,,,,,,,,,,,,,,,,,,,,,,,,,
,,,,,,,,,,,,,,,,,,,,,,,,19,Female,2020-08-21_14h15.59.760,torte-2b,2020.1.3,Win32,60,13289,,,,,,,,,,,,,,,,,,6,,,,,,,0,4,4,4,1,,,,,,,,,,,,,,,,,,,,,,,,,,,,,,,,,,,,
,,,,,,,,,,,,,,,,,,,,,,,,19,Female,2020-08-21_14h15.59.760,torte-2b,2020.1.3,Win32,60,13289,,,,,,,,,,,,space,,,,,,5,0.371715,,,,,,0,5,5,5,1,,,,,,,,,,,,,,,,,,,,,,,,,,,,,,,,,,,,
,,,,,,,,,,,,,,,,,,,,,,,,19,Female,2020-08-21_14h15.59.760,torte-2b,2020.1.3,Win32,60,13289,,,,,,,,,,,,,,,,,,3,,,,,,,0,6,6,6,1,,,,,,,,,,,,,,,,,,,,,,,,,,,,,,,,,,,,
,,,,,,,,,,,,,,,,,,,,,,,,19,Female,2020-08-21_14h15.59.760,torte-2b,2020.1.3,Win32,60,13289,,,,,,,,,,,,,,,,,,4,,,,,,,0,7,7,7,1,,,,,,,,,,,,,,,,,,,,,,,,,,,,,,,,,,,,
,,,,,,,,,,,,,,,,,,,,,,,,19,Female,2020-08-21_14h15.59.760,torte-2b,2020.1.3,Win32,60,13289,,,,,,,,,,,,space,,,,,,3,0.62384,,,,,,0,8,8,8,1,,,,,,,,,,,,,,,,,,,,,,,,,,,,,,,,,,,,
,,,,,,,,,,,,,,,,,,,,,,,,19,Female,2020-08-21_14h15.59.760,torte-2b,2020.1.3,Win32,60,13289,,,,,,,,,,,,,,,,,,1,,,,,,,0,9,9,9,1,,,,,,,,,,,,,,,,,,,,,,,,,,,,,,,,,,,,
,,,,,,,,,,,,,,,,,,,,,,,,19,Female,2020-08-21_14h15.59.760,torte-2b,2020.1.3,Win32,60,13289,,,,,,,,,,,,,,,,,,2,,,,,,,0,10,10,10,1,,,,,,,,,,,,,,,,,,,,,,,,,,,,,,,,,,,,
,,,,,,,,,,,,,,,,,,,,,,,,19,Female,2020-08-21_14h15.59.760,torte-2b,2020.1.3,Win32,60,13289,,,,,,,,,,,,space,,,,,,1,0.336665,,,,,,0,11,11,11,1,,,,,,,,,,,,,,,,,,,,,,,,,,,,,,,,,,,,
,,,,,,,,,,,,,,,,,,,,,,,,19,Female,2020-08-21_14h15.59.760,torte-2b,2020.1.3,Win32,60,13289,,,,,,,,,,,,space,,,,,,2,0.302495,,,,,,0,12,12,12,1,,,,,,,,,,,,,,,,,,,,,,,,,,,,,,,,,,,,
,,,,,,,,,,,,,,,,,,,,,,,,19,Female,2020-08-21_14h15.59.760,torte-2b,2020.1.3,Win32,60,13289,,,,,,,,,,,,space,,,,,,1,0.330485,,,,,,0,13,13,13,1,,,,,,,,,,,,,,,,,,,,,,,,,,,,,,,,,,,,
,,,,,,,,,,,,,,,,,,,,,,,,19,Female,2020-08-21_14h15.59.760,torte-2b,2020.1.3,Win32,60,13289,,,,,,,,,,,,,,,,,,3,,,,,,,0,14,14,14,1,,,,,,,,,,,,,,,,,,,,,,,,,,,,,,,,,,,,
,,,,,,,,,,,,,,,,,,,,,,,,19,Female,2020-08-21_14h15.59.760,torte-2b,2020.1.3,Win32,60,13289,,,,,,,,,,,,space,,,,,,1,0.29148,,,,,,0,15,15,15,1,,,,,,,,,,,,,,,,,,,,,,,,,,,,,,,,,,,,
,,,,,,,,,,,,,,,,,,,,,,,,19,Female,2020-08-21_14h15.59.760,torte-2b,2020.1.3,Win32,60,13289,,,,,,,,,,,,,,,,,,7,,,,,,,0,16,16,16,1,,,,,,,,,,,,,,,,,,,,,,,,,,,,,,,,,,,,
,,,,,,,,,,,,,,,,,,,,,,,,19,Female,2020-08-21_14h15.59.760,torte-2b,2020.1.3,Win32,60,13289,,,,,,,,,,,,space,,,,,,7,0.643905,,,,,,0,17,17,17,1,,,,,,,,,,,,,,,,,,,,,,,,,,,,,,,,,,,,
,,,,,,,,,,,,,,,,,,,,,,,,19,Female,2020-08-21_14h15.59.760,torte-2b,2020.1.3,Win32,60,13289,,,,,,,,,,,,,,,,,,4,,,,,,,0,18,18,18,1,,,,,,,,,,,,,,,,,,,,,,,,,,,,,,,,,,,,
,,,,,,,,,,,,,,,,,,,,,,,,19,Female,2020-08-21_14h15.59.760,torte-2b,2020.1.3,Win32,60,13289,,,,,,,,,,,,space,,,,,,7,0.34505,,,,,,0,19,19,19,1,,,,,,,,,,,,,,,,,,,,,,,,,,,,,,,,,,,,
,,,,,,,,,,,,,,,,,,,,,,,,19,Female,2020-08-21_14h15.59.760,torte-2b,2020.1.3,Win32,60,13289,,,,,,,,,,,,,,,,,,3,,,,,,,0,20,20,20,1,,,,,,,,,,,,,,,,,,,,,,,,,,,,,,,,,,,,
,,,,,,,,,,,,,,,,,,,,,,,,19,Female,2020-08-21_14h15.59.760,torte-2b,2020.1.3,Win32,60,13289,,,,,,,,,,,,space,,,,,,7,0.60394,,,,,,0,21,21,21,1,,,,,,,,,,,,,,,,,,,,,,,,,,,,,,,,,,,,
,,,,,,,,,,,,,,,,,,,,,,,,19,Female,2020-08-21_14h15.59.760,torte-2b,2020.1.3,Win32,60,13289,,,,,,,,,,,,space,,,,,,3,0.57541,,,,,,0,22,22,22,1,,,,,,,,,,,,,,,,,,,,,,,,,,,,,,,,,,,,
,,,,,,,,,,,,,,,,,,,,,,,,19,Female,2020-08-21_14h15.59.760,torte-2b,2020.1.3,Win32,60,13289,,,,,,,,,,,,,,,,,,1,,,,,,,0,23,23,23,1,,,,,,,,,,,,,,,,,,,,,,,,,,,,,,,,,,,,
,,,,,,,,,,,,,,,,,,,,,,,,19,Female,2020-08-21_14h15.59.760,torte-2b,2020.1.3,Win32,60,13289,,,,,,,,,,,,,,,,,,6,,,,,,,0,24,24,24,1,,,,,,,,,,,,,,,,,,,,,,,,,,,,,,,,,,,,
,,,,,,,,,,,,,,,,,,,,,,,,19,Female,2020-08-21_14h15.59.760,torte-2b,2020.1.3,Win32,60,13289,,,,,,,,,,,,,,,,,,3,,,,,,,0,25,25,25,1,,,,,,,,,,,,,,,,,,,,,,,,,,,,,,,,,,,,
,,,,,,,,,,,,,,,,,,,,,,,,19,Female,2020-08-21_14h15.59.760,torte-2b,2020.1.3,Win32,60,13289,,,,,,,,,,,,,,,,,,2,,,,,,,0,26,26,26,1,,,,,,,,,,,,,,,,,,,,,,,,,,,,,,,,,,,,
,,,,,,,,,,,,,,,,,,,,,,,,19,Female,2020-08-21_14h15.59.760,torte-2b,2020.1.3,Win32,60,13289,,,,,,,,,,,,space,,,,,,3,0.612965,,,,,,0,27,27,27,1,,,,,,,,,,,,,,,,,,,,,,,,,,,,,,,,,,,,
,,,,,,,,,,,,,,,,,,,,,,,,19,Female,2020-08-21_14h15.59.760,torte-2b,2020.1.3,Win32,60,13289,,,,,,,,,,,,,,,,,,1,,,,,,,0,28,28,28,1,,,,,,,,,,,,,,,,,,,,,,,,,,,,,,,,,,,,
,,,,,,,,,,,,,,,,,,,,,,,,19,Female,2020-08-21_14h15.59.760,torte-2b,2020.1.3,Win32,60,13289,,,,,,,,,,,,space,,,,,,3,0.329285,,,,,,0,29,29,29,1,,,,,,,,,,,,,,,,,,,,,,,,,,,,,,,,,,,,
,,,,,,,,,,,,,,,,,,,,,,,,19,Female,2020-08-21_14h15.59.760,torte-2b,2020.1.3,Win32,60,13289,,,,,,,,,,,,space,,,,,,1,0.412525,,,,,,0,30,30,30,1,,,,,,,,,,,,,,,,,,,,,,,,,,,,,,,,,,,,
,,,,,,,,,,,,,,,,,,,,,,,,19,Female,2020-08-21_14h15.59.760,torte-2b,2020.1.3,Win32,60,13289,,,,,,,,,,,,,,,,,,7,,,,,,,0,31,31,31,1,,,,,,,,,,,,,,,,,,,,,,,,,,,,,,,,,,,,
,,,,,,,,,,,,,,,,,,,,,,,,19,Female,2020-08-21_14h15.59.760,torte-2b,2020.1.3,Win32,60,13289,,,,,,,,,,,,,,,,,,5,,,,,,,0,32,32,32,1,,,,,,,,,,,,,,,,,,,,,,,,,,,,,,,,,,,,
,,,,,,,,,,,,,,,,,,,,,,,,19,Female,2020-08-21_14h15.59.760,torte-2b,2020.1.3,Win32,60,13289,,,,,,,,,,,,space,,,,,,7,0.48733,,,,,,0,33,33,33,1,,,,,,,,,,,,,,,,,,,,,,,,,,,,,,,,,,,,
,,,,,,,,,,,,,,,,,,,,,,,,19,Female,2020-08-21_14h15.59.760,torte-2b,2020.1.3,Win32,60,13289,,,,,,,,,,,,,,,,,,2,,,,,,,0,34,34,34,1,,,,,,,,,,,,,,,,,,,,,,,,,,,,,,,,,,,,
,,,,,,,,,,,,,,,,,,,,,,,,19,Female,2020-08-21_14h15.59.760,torte-2b,2020.1.3,Win32,60,13289,,,,,,,,,,,,,,,,,,3,,,,,,,,,,,,0,0,0,0,1,,,,,,,,,,,,,,,,,,,,,,,,,,,,,,,
,,,,,,,,,,,,,,,,,,,,,,,,19,Female,2020-08-21_14h15.59.760,torte-2b,2020.1.3,Win32,60,13289,,,,,,,,,,,,,,,,,,7,,,,,,,,,,,,0,1,1,1,1,,,,,,,,,,,,,,,,,,,,,,,,,,,,,,,
,,,,,,,,,,,,,,,,,,,,,,,,19,Female,2020-08-21_14h15.59.760,torte-2b,2020.1.3,Win32,60,13289,,,,,,,,,,,,,,,,,,7,,,,,,,,,,,,0,2,2,2,1,,,,,,,,,,,,,,,,,,,,,,,,,,,,,,,
,,,,,,,,,,,,,,,,,,,,,,,,19,Female,2020-08-21_14h15.59.760,torte-2b,2020.1.3,Win32,60,13289,,,,,,,,,,,,,,,,,,4,,,,,,,,,,,,0,3,3,3,1,,,,,,,,,,,,,,,,,,,,,,,,,,,,,,,
,,,,,,,,,,,,,,,,,,,,,,,,19,Female,2020-08-21_14h15.59.760,torte-2b,2020.1.3,Win32,60,13289,,,,,,,,,,,,,,,,,,5,,,,,,,,,,,,0,4,4,4,1,,,,,,,,,,,,,,,,,,,,,,,,,,,,,,,
,,,,,,,,,,,,,,,,,,,,,,,,19,Female,2020-08-21_14h15.59.760,torte-2b,2020.1.3,Win32,60,13289,,,,,,,,,,,,space,,,,,,4,0.311605,,,,,,,,,,,0,5,5,5,1,,,,,,,,,,,,,,,,,,,,,,,,,,,,,,,
,,,,,,,,,,,,,,,,,,,,,,,,19,Female,2020-08-21_14h15.59.760,torte-2b,2020.1.3,Win32,60,13289,,,,,,,,,,,,,,,,,,2,,,,,,,,,,,,0,6,6,6,1,,,,,,,,,,,,,,,,,,,,,,,,,,,,,,,
,,,,,,,,,,,,,,,,,,,,,,,,19,Female,2020-08-21_14h15.59.760,torte-2b,2020.1.3,Win32,60,13289,,,,,,,,,,,,space,,,,,,4,0.32248,,,,,,,,,,,0,7,7,7,1,,,,,,,,,,,,,,,,,,,,,,,,,,,,,,,
,,,,,,,,,,,,,,,,,,,,,,,,19,Female,2020-08-21_14h15.59.760,torte-2b,2020.1.3,Win32,60,13289,,,,,,,,,,,,space,,,,,,2,0.345455,,,,,,,,,,,0,8,8,8,1,,,,,,,,,,,,,,,,,,,,,,,,,,,,,,,
,,,,,,,,,,,,,,,,,,,,,,,,19,Female,2020-08-21_14h15.59.760,torte-2b,2020.1.3,Win32,60,13289,,,,,,,,,,,,,,,,,,2,,,,,,,,,,,,0,9,9,9,1,,,,,,,,,,,,,,,,,,,,,,,,,,,,,,,
,,,,,,,,,,,,,,,,,,,,,,,,19,Female,2020-08-21_14h15.59.760,torte-2b,2020.1.3,Win32,60,13289,,,,,,,,,,,,space,,,,,,6,0.39455,,,,,,,,,,,0,10,10,10,1,,,,,,,,,,,,,,,,,,,,,,,,,,,,,,,
,,,,,,,,,,,,,,,,,,,,,,,,19,Female,2020-08-21_14h15.59.760,torte-2b,2020.1.3,Win32,60,13289,,,,,,,,,,,,space,,,,,,2,0.58696,,,,,,,,,,,0,11,11,11,1,,,,,,,,,,,,,,,,,,,,,,,,,,,,,,,
,,,,,,,,,,,,,,,,,,,,,,,,19,Female,2020-08-21_14h15.59.760,torte-2b,2020.1.3,Win32,60,13289,,,,,,,,,,,,,,,,,,2,,,,,,,,,,,,0,12,12,12,1,,,,,,,,,,,,,,,,,,,,,,,,,,,,,,,
,,,,,,,,,,,,,,,,,,,,,,,,19,Female,2020-08-21_14h15.59.760,torte-2b,2020.1.3,Win32,60,13289,,,,,,,,,,,,space,,,,,,2,0.611955,,,,,,,,,,,0,13,13,13,1,,,,,,,,,,,,,,,,,,,,,,,,,,,,,,,
,,,,,,,,,,,,,,,,,,,,,,,,19,Female,2020-08-21_14h15.59.760,torte-2b,2020.1.3,Win32,60,13289,,,,,,,,,,,,,,,,,,2,,,,,,,,,,,,0,14,14,14,1,,,,,,,,,,,,,,,,,,,,,,,,,,,,,,,
,,,,,,,,,,,,,,,,,,,,,,,,19,Female,2020-08-21_14h15.59.760,torte-2b,2020.1.3,Win32,60,13289,,,,,,,,,,,,space,,,,,,4,0.70209,,,,,,,,,,,0,15,15,15,1,,,,,,,,,,,,,,,,,,,,,,,,,,,,,,,
,,,,,,,,,,,,,,,,,,,,,,,,19,Female,2020-08-21_14h15.59.760,torte-2b,2020.1.3,Win32,60,13289,,,,,,,,,,,,,,,,,,3,,,,,,,,,,,,0,16,16,16,1,,,,,,,,,,,,,,,,,,,,,,,,,,,,,,,
,,,,,,,,,,,,,,,,,,,,,,,,19,Female,2020-08-21_14h15.59.760,torte-2b,2020.1.3,Win32,60,13289,,,,,,,,,,,,,,,,,,7,,,,,,,,,,,,0,17,17,17,1,,,,,,,,,,,,,,,,,,,,,,,,,,,,,,,
,,,,,,,,,,,,,,,,,,,,,,,,19,Female,2020-08-21_14h15.59.760,torte-2b,2020.1.3,Win32,60,13289,,,,,,,,,,,,,,,,,,4,,,,,,,,,,,,0,18,18,18,1,,,,,,,,,,,,,,,,,,,,,,,,,,,,,,,
,,,,,,,,,,,,,,,,,,,,,,,,19,Female,2020-08-21_14h15.59.760,torte-2b,2020.1.3,Win32,60,13289,,,,,,,,,,,,space,,,,,,7,0.505115,,,,,,,,,,,0,19,19,19,1,,,,,,,,,,,,,,,,,,,,,,,,,,,,,,,
,,,,,,,,,,,,,,,,,,,,,,,,19,Female,2020-08-21_14h15.59.760,torte-2b,2020.1.3,Win32,60,13289,,,,,,,,,,,,,,,,,,7,,,,,,,,,,,,0,20,20,20,1,,,,,,,,,,,,,,,,,,,,,,,,,,,,,,,
,,,,,,,,,,,,,,,,,,,,,,,,19,Female,2020-08-21_14h15.59.760,torte-2b,2020.1.3,Win32,60,13289,,,,,,,,,,,,space,,,,,,7,0.35146,,,,,,,,,,,0,21,21,21,1,,,,,,,,,,,,,,,,,,,,,,,,,,,,,,,
,,,,,,,,,,,,,,,,,,,,,,,,19,Female,2020-08-21_14h15.59.760,torte-2b,2020.1.3,Win32,60,13289,,,,,,,,,,,,space,,,,,,7,0.61228,,,,,,,,,,,0,22,22,22,1,,,,,,,,,,,,,,,,,,,,,,,,,,,,,,,
,,,,,,,,,,,,,,,,,,,,,,,,19,Female,2020-08-21_14h15.59.760,torte-2b,2020.1.3,Win32,60,13289,,,,,,,,,,,,,,,,,,1,,,,,,,,,,,,0,23,23,23,1,,,,,,,,,,,,,,,,,,,,,,,,,,,,,,,
,,,,,,,,,,,,,,,,,,,,,,,,19,Female,2020-08-21_14h15.59.760,torte-2b,2020.1.3,Win32,60,13289,,,,,,,,,,,,space,,,,,,7,0.336045,,,,,,,,,,,0,24,24,24,1,,,,,,,,,,,,,,,,,,,,,,,,,,,,,,,
,,,,,,,,,,,,,,,,,,,,,,,,19,Female,2020-08-21_14h15.59.760,torte-2b,2020.1.3,Win32,60,13289,,,,,,,,,,,,space,,,,,,1,0.33707,,,,,,,,,,,0,25,25,25,1,,,,,,,,,,,,,,,,,,,,,,,,,,,,,,,
,,,,,,,,,,,,,,,,,,,,,,,,19,Female,2020-08-21_14h15.59.760,torte-2b,2020.1.3,Win32,60,13289,,,,,,,,,,,,space,,,,,,7,0.337025,,,,,,,,,,,0,26,26,26,1,,,,,,,,,,,,,,,,,,,,,,,,,,,,,,,
,,,,,,,,,,,,,,,,,,,,,,,,19,Female,2020-08-21_14h15.59.760,torte-2b,2020.1.3,Win32,60,13289,,,,,,,,,,,,,,,,,,2,,,,,,,,,,,,0,27,27,27,1,,,,,,,,,,,,,,,,,,,,,,,,,,,,,,,
,,,,,,,,,,,,,,,,,,,,,,,,19,Female,2020-08-21_14h15.59.760,torte-2b,2020.1.3,Win32,60,13289,,,,,,,,,,,,,,,,,,5,,,,,,,,,,,,0,28,28,28,1,,,,,,,,,,,,,,,,,,,,,,,,,,,,,,,
,,,,,,,,,,,,,,,,,,,,,,,,19,Female,2020-08-21_14h15.59.760,torte-2b,2020.1.3,Win32,60,13289,,,,,,,,,,,,,,,,,,5,,,,,,,,,,,,0,29,29,29,1,,,,,,,,,,,,,,,,,,,,,,,,,,,,,,,
,,,,,,,,,,,,,,,,,,,,,,,,19,Female,2020-08-21_14h15.59.760,torte-2b,2020.1.3,Win32,60,13289,,,,,,,,,,,,,,,,,,5,,,,,,,,,,,,0,30,30,30,1,,,,,,,,,,,,,,,,,,,,,,,,,,,,,,,
,,,,,,,,,,,,,,,,,,,,,,,,19,Female,2020-08-21_14h15.59.760,torte-2b,2020.1.3,Win32,60,13289,,,,,,,,,,,,,,,,,,1,,,,,,,,,,,,0,31,31,31,1,,,,,,,,,,,,,,,,,,,,,,,,,,,,,,,
,,,,,,,,,,,,,,,,,,,,,,,,19,Female,2020-08-21_14h15.59.760,torte-2b,2020.1.3,Win32,60,13289,,,,,,,,,,,,space,,,,,,5,0.585105,,,,,,,,,,,0,32,32,32,1,,,,,,,,,,,,,,,,,,,,,,,,,,,,,,,
,,,,,,,,,,,,,,,,,,,,,,,,19,Female,2020-08-21_14h15.59.760,torte-2b,2020.1.3,Win32,60,13289,,,,,,,,,,,,,,,,,,3,,,,,,,,,,,,0,33,33,33,1,,,,,,,,,,,,,,,,,,,,,,,,,,,,,,,
,,,,,,,,,,,,,,,,,,,,,,,,19,Female,2020-08-21_14h15.59.760,torte-2b,2020.1.3,Win32,60,13289,,,,,,,,,,,,,,,,,,3,,,,,,,,,,,,0,34,34,34,1,,,,,,,,,,,,,,,,,,,,,,,,,,,,,,,
,,,,,,,,,,,,l,0.76085,Correct!,,,,,,t2.png,t5.png,3,0.0000131,19,Female,2020-08-21_14h15.59.760,torte-2b,2020.1.3,Win32,60,13289,space,1.392385,,,,,,,,,,,,,,,,,,,,,,,,,,,,,,,,,space,8.86288,0,0,0,39,1,,,,,,,,,,,,,,,,,,,,,,,,
,,,,,,,,,,,,l,0.979115,Incorrect,,,,,,t1.png,t2.png,1,0.90025,19,Female,2020-08-21_14h15.59.760,torte-2b,2020.1.3,Win32,60,13289,,,,,,,,,,,,,,,,,,,,,,,,,,,,,,,,,,,,,0,1,1,96,1,,,,,,,,,,,,,,,,,,,,,,,,
,,,,,,,,,,,,a,0.71968,Incorrect,,,,,,t5.png,t3.png,2,0.0565,19,Female,2020-08-21_14h15.59.760,torte-2b,2020.1.3,Win32,60,13289,,,,,,,,,,,,,,,,,,,,,,,,,,,,,,,,,,,,,0,2,2,50,1,,,,,,,,,,,,,,,,,,,,,,,,
,,,,,,,,,,,,l,0.856265,Incorrect,,,,,,t2.png,t3.png,1,0.90855,19,Female,2020-08-21_14h15.59.760,torte-2b,2020.1.3,Win32,60,13289,,,,,,,,,,,,,,,,,,,,,,,,,,,,,,,,,,,,,0,3,3,64,1,,,,,,,,,,,,,,,,,,,,,,,,
,,,,,,,,,,,,a,0.710845,Correct!,,,,,,t5.png,t5.png,0,0.97829,19,Female,2020-08-21_14h15.59.760,torte-2b,2020.1.3,Win32,60,13289,,,,,,,,,,,,,,,,,,,,,,,,,,,,,,,,,,,,,0,4,4,35,1,,,,,,,,,,,,,,,,,,,,,,,,
,,,,,,,,,,,,l,0.851835,Correct!,,,,,,t2.png,t5.png,3,0.0000131,19,Female,2020-08-21_14h15.59.760,torte-2b,2020.1.3,Win32,60,13289,,,,,,,,,,,,,,,,,,,,,,,,,,,,,,,,,,,,,0,5,5,85,1,,,,,,,,,,,,,,,,,,,,,,,,
,,,,,,,,,,,,l,1.054955,Incorrect,,,,,,t4.png,t3.png,1,0.90855,19,Female,2020-08-21_14h15.59.760,torte-2b,2020.1.3,Win32,60,13289,,,,,,,,,,,,,,,,,,,,,,,,,,,,,,,,,,,,,0,6,6,29,1,,,,,,,,,,,,,,,,,,,,,,,,
,,,,,,,,,,,,a,0.701585,Incorrect,,,,,,t5.png,t3.png,2,0.056466,19,Female,2020-08-21_14h15.59.760,torte-2b,2020.1.3,Win32,60,13289,,,,,,,,,,,,,,,,,,,,,,,,,,,,,,,,,,,,,0,7,7,37,1,,,,,,,,,,,,,,,,,,,,,,,,
,,,,,,,,,,,,l,1.095165,Incorrect,,,,,,t4.png,t4.png,0,0.98115,19,Female,2020-08-21_14h15.59.760,torte-2b,2020.1.3,Win32,60,13289,,,,,,,,,,,,,,,,,,,,,,,,,,,,,,,,,,,,,0,8,8,68,1,,,,,,,,,,,,,,,,,,,,,,,,
,,,,,,,,,,,,l,1.06936,Correct!,,,,,,t2.png,t4.png,2,0.059078,19,Female,2020-08-21_14h15.59.760,torte-2b,2020.1.3,Win32,60,13289,,,,,,,,,,,,,,,,,,,,,,,,,,,,,,,,,,,,,0,9,9,97,1,,,,,,,,,,,,,,,,,,,,,,,,
,,,,,,,,,,,,a,0.69456,Incorrect,,,,,,t5.png,t2.png,3,0.0000131,19,Female,2020-08-21_14h15.59.760,torte-2b,2020.1.3,Win32,60,13289,,,,,,,,,,,,,,,,,,,,,,,,,,,,,,,,,,,,,0,10,10,66,1,,,,,,,,,,,,,,,,,,,,,,,,
,,,,,,,,,,,,l,1.31412,Incorrect,,,,,,t1.png,t2.png,1,0.90025,19,Female,2020-08-21_14h15.59.760,torte-2b,2020.1.3,Win32,60,13289,,,,,,,,,,,,,,,,,,,,,,,,,,,,,,,,,,,,,0,11,11,6,1,,,,,,,,,,,,,,,,,,,,,,,,
,,,,,,,,,,,,a,0.87941,Correct!,,,,,,t3.png,t4.png,1,0.90855,19,Female,2020-08-21_14h15.59.760,torte-2b,2020.1.3,Win32,60,13289,,,,,,,,,,,,,,,,,,,,,,,,,,,,,,,,,,,,,0,12,12,111,1,,,,,,,,,,,,,,,,,,,,,,,,
,,,,,,,,,,,,a,0.636075,Incorrect,,,,,,t5.png,t4.png,1,0.90025,19,Female,2020-08-21_14h15.59.760,torte-2b,2020.1.3,Win32,60,13289,,,,,,,,,,,,,,,,,,,,,,,,,,,,,,,,,,,,,0,13,13,38,1,,,,,,,,,,,,,,,,,,,,,,,,
,,,,,,,,,,,,l,0.544035,Incorrect,,,,,,t1.png,t1.png,0,0.978,19,Female,2020-08-21_14h15.59.760,torte-2b,2020.1.3,Win32,60,13289,,,,,,,,,,,,,,,,,,,,,,,,,,,,,,,,,,,,,0,14,14,13,1,,,,,,,,,,,,,,,,,,,,,,,,
,,,,,,,,,,,,a,0.636555,Correct!,,,,,,t1.png,t1.png,0,0.978,19,Female,2020-08-21_14h15.59.760,torte-2b,2020.1.3,Win32,60,13289,,,,,,,,,,,,,,,,,,,,,,,,,,,,,,,,,,,,,0,15,15,22,1,,,,,,,,,,,,,,,,,,,,,,,,
,,,,,,,,,,,,a,0.9017,Incorrect,,,,,,t5.png,t1.png,4,9.55E-11,19,Female,2020-08-21_14h15.59.760,torte-2b,2020.1.3,Win32,60,13289,,,,,,,,,,,,,,,,,,,,,,,,,,,,,,,,,,,,,0,16,16,31,1,,,,,,,,,,,,,,,,,,,,,,,,
,,,,,,,,,,,,a,1.069245,Incorrect,,,,,,t4.png,t1.png,3,0.059078,19,Female,2020-08-21_14h15.59.760,torte-2b,2020.1.3,Win32,60,13289,,,,,,,,,,,,,,,,,,,,,,,,,,,,,,,,,,,,,0,17,17,57,1,,,,,,,,,,,,,,,,,,,,,,,,
,,,,,,,,,,,,a,0.71766,Correct!,,,,,,t5.png,t4.png,1,0.90025,19,Female,2020-08-21_14h15.59.760,torte-2b,2020.1.3,Win32,60,13289,,,,,,,,,,,,,,,,,,,,,,,,,,,,,,,,,,,,,0,18,18,25,1,,,,,,,,,,,,,,,,,,,,,,,,
,,,,,,,,,,,,l,1.23745,Correct!,,,,,,t4.png,t1.png,3,0.0000131,19,Female,2020-08-21_14h15.59.760,torte-2b,2020.1.3,Win32,60,13289,,,,,,,,,,,,,,,,,,,,,,,,,,,,,,,,,,,,,0,19,19,102,1,,,,,,,,,,,,,,,,,,,,,,,,
,,,,,,,,,,,,l,0.707955,Correct!,,,,,,t3.png,t1.png,2,0.056466,19,Female,2020-08-21_14h15.59.760,torte-2b,2020.1.3,Win32,60,13289,,,,,,,,,,,,,,,,,,,,,,,,,,,,,,,,,,,,,0,20,20,34,1,,,,,,,,,,,,,,,,,,,,,,,,
,,,,,,,,,,,,l,0.89673,Incorrect,,,,,,t4.png,t5.png,1,0.90025,19,Female,2020-08-21_14h15.59.760,torte-2b,2020.1.3,Win32,60,13289,,,,,,,,,,,,,,,,,,,,,,,,,,,,,,,,,,,,,0,21,21,86,1,,,,,,,,,,,,,,,,,,,,,,,,
,,,,,,,,,,,,a,0.710905,Incorrect,,,,,,t5.png,t3.png,2,0.056466,19,Female,2020-08-21_14h15.59.760,torte-2b,2020.1.3,Win32,60,13289,,,,,,,,,,,,,,,,,,,,,,,,,,,,,,,,,,,,,0,22,22,80,1,,,,,,,,,,,,,,,,,,,,,,,,
,,,,,,,,,,,,l,0.836585,Correct!,,,,,,t3.png,t5.png,2,0.0565,19,Female,2020-08-21_14h15.59.760,torte-2b,2020.1.3,Win32,60,13289,,,,,,,,,,,,,,,,,,,,,,,,,,,,,,,,,,,,,0,23,23,71,1,,,,,,,,,,,,,,,,,,,,,,,,
,,,,,,,,,,,,a,0.496315,Incorrect,,,,,,t5.png,t2.png,3,0.0000131,19,Female,2020-08-21_14h15.59.760,torte-2b,2020.1.3,Win32,60,13289,,,,,,,,,,,,,,,,,,,,,,,,,,,,,,,,,,,,,0,24,24,83,1,,,,,,,,,,,,,,,,,,,,,,,,
,,,,,,,,,,,,l,1.013365,Incorrect,,,,,,t2.png,t2.png,0,0.981,19,Female,2020-08-21_14h15.59.760,torte-2b,2020.1.3,Win32,60,13289,,,,,,,,,,,,,,,,,,,,,,,,,,,,,,,,,,,,,0,25,25,98,1,,,,,,,,,,,,,,,,,,,,,,,,
,,,,,,,,,,,,l,0.77713,Correct!,,,,,,t3.png,t5.png,2,0.056466,19,Female,2020-08-21_14h15.59.760,torte-2b,2020.1.3,Win32,60,13289,,,,,,,,,,,,,,,,,,,,,,,,,,,,,,,,,,,,,0,26,26,47,1,,,,,,,,,,,,,,,,,,,,,,,,
,,,,,,,,,,,,a,0.602665,Correct!,,,,,,t1.png,t1.png,0,0.97829,19,Female,2020-08-21_14h15.59.760,torte-2b,2020.1.3,Win32,60,13289,,,,,,,,,,,,,,,,,,,,,,,,,,,,,,,,,,,,,0,27,27,114,1,,,,,,,,,,,,,,,,,,,,,,,,
,,,,,,,,,,,,l,0.721535,Correct!,,,,,,t2.png,t3.png,1,0.90855,19,Female,2020-08-21_14h15.59.760,torte-2b,2020.1.3,Win32,60,13289,,,,,,,,,,,,,,,,,,,,,,,,,,,,,,,,,,,,,0,28,28,70,1,,,,,,,,,,,,,,,,,,,,,,,,
,,,,,,,,,,,,l,0.85299,Incorrect,,,,,,t4.png,t5.png,1,0.90025,19,Female,2020-08-21_14h15.59.760,torte-2b,2020.1.3,Win32,60,13289,,,,,,,,,,,,,,,,,,,,,,,,,,,,,,,,,,,,,0,29,29,63,1,,,,,,,,,,,,,,,,,,,,,,,,
,,,,,,,,,,,,l,0.76904,Correct!,,,,,,t3.png,t1.png,2,0.0565,19,Female,2020-08-21_14h15.59.760,torte-2b,2020.1.3,Win32,60,13289,,,,,,,,,,,,,,,,,,,,,,,,,,,,,,,,,,,,,0,30,30,104,1,,,,,,,,,,,,,,,,,,,,,,,,
,,,,,,,,,,,,l,0.62744,Correct!,,,,,,t3.png,t1.png,2,0.056466,19,Female,2020-08-21_14h15.59.760,torte-2b,2020.1.3,Win32,60,13289,,,,,,,,,,,,,,,,,,,,,,,,,,,,,,,,,,,,,0,31,31,72,1,,,,,,,,,,,,,,,,,,,,,,,,
,,,,,,,,,,,,a,0.722255,Incorrect,,,,,,t5.png,t2.png,3,0.0000131,19,Female,2020-08-21_14h15.59.760,torte-2b,2020.1.3,Win32,60,13289,,,,,,,,,,,,,,,,,,,,,,,,,,,,,,,,,,,,,0,32,32,82,1,,,,,,,,,,,,,,,,,,,,,,,,
,,,,,,,,,,,,l,0.70345,Correct!,,,,,,t1.png,t4.png,3,0.0000131,19,Female,2020-08-21_14h15.59.760,torte-2b,2020.1.3,Win32,60,13289,,,,,,,,,,,,,,,,,,,,,,,,,,,,,,,,,,,,,0,33,33,106,1,,,,,,,,,,,,,,,,,,,,,,,,
,,,,,,,,,,,,l,0.563105,Correct!,,,,,,t1.png,t5.png,4,9.55E-11,19,Female,2020-08-21_14h15.59.760,torte-2b,2020.1.3,Win32,60,13289,,,,,,,,,,,,,,,,,,,,,,,,,,,,,,,,,,,,,0,34,34,3,1,,,,,,,,,,,,,,,,,,,,,,,,
,,,,,,,,,,,,l,1.24973,Incorrect,,,,,,t2.png,t1.png,1,0.90025,19,Female,2020-08-21_14h15.59.760,torte-2b,2020.1.3,Win32,60,13289,,,,,,,,,,,,,,,,,,,,,,,,,,,,,,,,,,,,,0,35,35,44,1,,,,,,,,,,,,,,,,,,,,,,,,
,,,,,,,,,,,,a,1.110315,Incorrect,,,,,,t3.png,t1.png,2,0.056466,19,Female,2020-08-21_14h15.59.760,torte-2b,2020.1.3,Win32,60,13289,,,,,,,,,,,,,,,,,,,,,,,,,,,,,,,,,,,,,0,36,36,109,1,,,,,,,,,,,,,,,,,,,,,,,,
,,,,,,,,,,,,l,1.868725,Correct!,,,,,,t4.png,t1.png,3,0.0000131,19,Female,2020-08-21_14h15.59.760,torte-2b,2020.1.3,Win32,60,13289,,,,,,,,,,,,,,,,,,,,,,,,,,,,,,,,,,,,,0,37,37,76,1,,,,,,,,,,,,,,,,,,,,,,,,
,,,,,,,,,,,,a,0.745395,Incorrect,,,,,,t5.png,t1.png,4,9.55E-11,19,Female,2020-08-21_14h15.59.760,torte-2b,2020.1.3,Win32,60,13289,,,,,,,,,,,,,,,,,,,,,,,,,,,,,,,,,,,,,0,38,38,89,1,,,,,,,,,,,,,,,,,,,,,,,,
,,,,,,,,,,,,l,1.020445,Incorrect,,,,,,t2.png,t2.png,0,0.98115,19,Female,2020-08-21_14h15.59.760,torte-2b,2020.1.3,Win32,60,13289,,,,,,,,,,,,,,,,,,,,,,,,,,,,,,,,,,,,,0,39,39,112,1,,,,,,,,,,,,,,,,,,,,,,,,
,,,,,,,,,,,,l,0.703765,Correct!,,,,,,t4.png,t1.png,3,0.059078,19,Female,2020-08-21_14h15.59.760,torte-2b,2020.1.3,Win32,60,13289,,,,,,,,,,,,,,,,,,,,,,,,,,,,,,,,,,,,,0,40,40,87,1,,,,,,,,,,,,,,,,,,,,,,,,
,,,,,,,,,,,,l,0.626535,Incorrect,,,,,,t3.png,t4.png,1,0.90855,19,Female,2020-08-21_14h15.59.760,torte-2b,2020.1.3,Win32,60,13289,,,,,,,,,,,,,,,,,,,,,,,,,,,,,,,,,,,,,0,41,41,5,1,,,,,,,,,,,,,,,,,,,,,,,,
,,,,,,,,,,,,a,0.462075,Incorrect,,,,,,t5.png,t2.png,3,0.0000131,19,Female,2020-08-21_14h15.59.760,torte-2b,2020.1.3,Win32,60,13289,,,,,,,,,,,,,,,,,,,,,,,,,,,,,,,,,,,,,0,42,42,43,1,,,,,,,,,,,,,,,,,,,,,,,,
,,,,,,,,,,,,l,0.55816,Incorrect,,,,,,t2.png,t3.png,1,0.90855,19,Female,2020-08-21_14h15.59.760,torte-2b,2020.1.3,Win32,60,13289,,,,,,,,,,,,,,,,,,,,,,,,,,,,,,,,,,,,,0,43,43,113,1,,,,,,,,,,,,,,,,,,,,,,,,
,,,,,,,,,,,,a,0.455995,Correct!,,,,,,t4.png,t5.png,1,0.9,19,Female,2020-08-21_14h15.59.760,torte-2b,2020.1.3,Win32,60,13289,,,,,,,,,,,,,,,,,,,,,,,,,,,,,,,,,,,,,0,44,44,81,1,,,,,,,,,,,,,,,,,,,,,,,,
,,,,,,,,,,,,l,0.486,Correct!,,,,,,t1.png,t3.png,2,0.056466,19,Female,2020-08-21_14h15.59.760,torte-2b,2020.1.3,Win32,60,13289,,,,,,,,,,,,,,,,,,,,,,,,,,,,,,,,,,,,,0,45,45,32,1,,,,,,,,,,,,,,,,,,,,,,,,
,,,,,,,,,,,,a,0.8869,Correct!,,,,,,t5.png,t5.png,0,0.978,19,Female,2020-08-21_14h15.59.760,torte-2b,2020.1.3,Win32,60,13289,,,,,,,,,,,,,,,,,,,,,,,,,,,,,,,,,,,,,0,46,46,51,1,,,,,,,,,,,,,,,,,,,,,,,,
,,,,,,,,,,,,l,0.718735,Correct!,,,,,,t4.png,t1.png,3,0.0000131,19,Female,2020-08-21_14h15.59.760,torte-2b,2020.1.3,Win32,60,13289,,,,,,,,,,,,,,,,,,,,,,,,,,,,,,,,,,,,,0,47,47,49,1,,,,,,,,,,,,,,,,,,,,,,,,
,,,,,,,,,,,,l,0.689765,Correct!,,,,,,t2.png,t5.png,3,0.0000131,19,Female,2020-08-21_14h15.59.760,torte-2b,2020.1.3,Win32,60,13289,,,,,,,,,,,,,,,,,,,,,,,,,,,,,,,,,,,,,0,48,48,46,1,,,,,,,,,,,,,,,,,,,,,,,,
,,,,,,,,,,,,l,0.673025,Incorrect,,,,,,t2.png,t1.png,1,0.90025,19,Female,2020-08-21_14h15.59.760,torte-2b,2020.1.3,Win32,60,13289,,,,,,,,,,,,,,,,,,,,,,,,,,,,,,,,,,,,,0,49,49,65,1,,,,,,,,,,,,,,,,,,,,,,,,
,,,,,,,,,,,,l,0.745345,Correct!,,,,,,t4.png,t1.png,3,0.059078,19,Female,2020-08-21_14h15.59.760,torte-2b,2020.1.3,Win32,60,13289,,,,,,,,,,,,,,,,,,,,,,,,,,,,,,,,,,,,,0,50,50,75,1,,,,,,,,,,,,,,,,,,,,,,,,
,,,,,,,,,,,,l,1.252805,Correct!,,,,,,t2.png,t4.png,2,0.059078,19,Female,2020-08-21_14h15.59.760,torte-2b,2020.1.3,Win32,60,13289,,,,,,,,,,,,,,,,,,,,,,,,,,,,,,,,,,,,,0,51,51,67,1,,,,,,,,,,,,,,,,,,,,,,,,
,,,,,,,,,,,,a,0.65305,Incorrect,,,,,,t1.png,t1.png,0,0.97829,19,Female,2020-08-21_14h15.59.760,torte-2b,2020.1.3,Win32,60,13289,,,,,,,,,,,,,,,,,,,,,,,,,,,,,,,,,,,,,0,52,52,4,1,,,,,,,,,,,,,,,,,,,,,,,,
,,,,,,,,,,,,l,0.883155,Correct!,,,,,,t2.png,t4.png,2,0.059078,19,Female,2020-08-21_14h15.59.760,torte-2b,2020.1.3,Win32,60,13289,,,,,,,,,,,,,,,,,,,,,,,,,,,,,,,,,,,,,0,53,53,84,1,,,,,,,,,,,,,,,,,,,,,,,,
,,,,,,,,,,,,a,1.03559,Incorrect,,,,,,t4.png,t5.png,1,0.90025,19,Female,2020-08-21_14h15.59.760,torte-2b,2020.1.3,Win32,60,13289,,,,,,,,,,,,,,,,,,,,,,,,,,,,,,,,,,,,,0,54,54,33,1,,,,,,,,,,,,,,,,,,,,,,,,
,,,,,,,,,,,,l,0.98859,Correct!,,,,,,t4.png,t1.png,3,0.0000131,19,Female,2020-08-21_14h15.59.760,torte-2b,2020.1.3,Win32,60,13289,,,,,,,,,,,,,,,,,,,,,,,,,,,,,,,,,,,,,0,55,55,91,1,,,,,,,,,,,,,,,,,,,,,,,,
,,,,,,,,,,,,l,0.66734,Correct!,,,,,,t2.png,t5.png,3,0.0000131,19,Female,2020-08-21_14h15.59.760,torte-2b,2020.1.3,Win32,60,13289,,,,,,,,,,,,,,,,,,,,,,,,,,,,,,,,,,,,,0,56,56,54,1,,,,,,,,,,,,,,,,,,,,,,,,
,,,,,,,,,,,,l,0.818755,Correct!,,,,,,t1.png,t3.png,2,0.0565,19,Female,2020-08-21_14h15.59.760,torte-2b,2020.1.3,Win32,60,13289,,,,,,,,,,,,,,,,,,,,,,,,,,,,,,,,,,,,,0,57,57,95,1,,,,,,,,,,,,,,,,,,,,,,,,
,,,,,,,,,,,,a,1.85115,Incorrect,,,,,,t1.png,t5.png,4,9.55E-11,19,Female,2020-08-21_14h15.59.760,torte-2b,2020.1.3,Win32,60,13289,,,,,,,,,,,,,,,,,,,,,,,,,,,,,,,,,,,,,0,58,58,118,1,,,,,,,,,,,,,,,,,,,,,,,,
,,,,,,,,,,,,a,1.24087,Correct!,,,,,,t4.png,t4.png,0,0.98115,19,Female,2020-08-21_14h15.59.760,torte-2b,2020.1.3,Win32,60,13289,,,,,,,,,,,,,,,,,,,,,,,,,,,,,,,,,,,,,0,59,59,59,1,,,,,,,,,,,,,,,,,,,,,,,,
,,,,,,,,,,,,l,1.15415,Incorrect,,,,,,t2.png,t2.png,0,0.98115,19,Female,2020-08-21_14h15.59.760,torte-2b,2020.1.3,Win32,60,13289,,,,,,,,,,,,,,,,,,,,,,,,,,,,,,,,,,,,,0,60,60,90,1,,,,,,,,,,,,,,,,,,,,,,,,
,,,,,,,,,,,,l,1.0201,Correct!,,,,,,t1.png,t5.png,4,9.55E-11,19,Female,2020-08-21_14h15.59.760,torte-2b,2020.1.3,Win32,60,13289,,,,,,,,,,,,,,,,,,,,,,,,,,,,,,,,,,,,,0,61,61,30,1,,,,,,,,,,,,,,,,,,,,,,,,
,,,,,,,,,,,,a,0.636885,Correct!,,,,,,t5.png,t5.png,0,0.978,19,Female,2020-08-21_14h15.59.760,torte-2b,2020.1.3,Win32,60,13289,,,,,,,,,,,,,,,,,,,,,,,,,,,,,,,,,,,,,0,62,62,116,1,,,,,,,,,,,,,,,,,,,,,,,,
,,,,,,,,,,,,a,1.31822,Correct!,,,,,,t4.png,t3.png,1,0.90855,19,Female,2020-08-21_14h15.59.760,torte-2b,2020.1.3,Win32,60,13289,,,,,,,,,,,,,,,,,,,,,,,,,,,,,,,,,,,,,0,63,63,56,1,,,,,,,,,,,,,,,,,,,,,,,,
,,,,,,,,,,,,l,1.33025,Incorrect,,,,,,t4.png,t4.png,0,0.98115,19,Female,2020-08-21_14h15.59.760,torte-2b,2020.1.3,Win32,60,13289,,,,,,,,,,,,,,,,,,,,,,,,,,,,,,,,,,,,,0,64,64,88,1,,,,,,,,,,,,,,,,,,,,,,,,
,,,,,,,,,,,,l,0.730565,Correct!,,,,,,t3.png,t5.png,2,0.056466,19,Female,2020-08-21_14h15.59.760,torte-2b,2020.1.3,Win32,60,13289,,,,,,,,,,,,,,,,,,,,,,,,,,,,,,,,,,,,,0,65,65,60,1,,,,,,,,,,,,,,,,,,,,,,,,
,,,,,,,,,,,,a,0.53531,Incorrect,,,,,,t5.png,t1.png,4,9.55E-11,19,Female,2020-08-21_14h15.59.760,torte-2b,2020.1.3,Win32,60,13289,,,,,,,,,,,,,,,,,,,,,,,,,,,,,,,,,,,,,0,66,66,15,1,,,,,,,,,,,,,,,,,,,,,,,,
,,,,,,,,,,,,a,0.468715,Incorrect,,,,,,t5.png,t1.png,4,9.55E-11,19,Female,2020-08-21_14h15.59.760,torte-2b,2020.1.3,Win32,60,13289,,,,,,,,,,,,,,,,,,,,,,,,,,,,,,,,,,,,,0,67,67,101,1,,,,,,,,,,,,,,,,,,,,,,,,
,,,,,,,,,,,,a,0.37335,Correct!,,,,,,t4.png,t3.png,1,0.909,19,Female,2020-08-21_14h15.59.760,torte-2b,2020.1.3,Win32,60,13289,,,,,,,,,,,,,,,,,,,,,,,,,,,,,,,,,,,,,0,68,68,119,1,,,,,,,,,,,,,,,,,,,,,,,,
,,,,,,,,,,,,l,0.387015,Incorrect,,,,,,t1.png,t1.png,0,0.97829,19,Female,2020-08-21_14h15.59.760,torte-2b,2020.1.3,Win32,60,13289,,,,,,,,,,,,,,,,,,,,,,,,,,,,,,,,,,,,,0,69,69,110,1,,,,,,,,,,,,,,,,,,,,,,,,
,,,,,,,,,,,,l,0.621225,Incorrect,,,,,,t2.png,t1.png,1,0.9,19,Female,2020-08-21_14h15.59.760,torte-2b,2020.1.3,Win32,60,13289,,,,,,,,,,,,,,,,,,,,,,,,,,,,,,,,,,,,,0,70,70,100,1,,,,,,,,,,,,,,,,,,,,,,,,
,,,,,,,,,,,,a,0.6034,Correct!,,,,,,t5.png,t5.png,0,0.97829,19,Female,2020-08-21_14h15.59.760,torte-2b,2020.1.3,Win32,60,13289,,,,,,,,,,,,,,,,,,,,,,,,,,,,,,,,,,,,,0,71,71,77,1,,,,,,,,,,,,,,,,,,,,,,,,
,,,,,,,,,,,,a,0.67389,Correct!,,,,,,t5.png,t4.png,1,0.9,19,Female,2020-08-21_14h15.59.760,torte-2b,2020.1.3,Win32,60,13289,,,,,,,,,,,,,,,,,,,,,,,,,,,,,,,,,,,,,0,72,72,55,1,,,,,,,,,,,,,,,,,,,,,,,,
,,,,,,,,,,,,l,1.645545,Correct!,,,,,,t3.png,t1.png,2,0.0565,19,Female,2020-08-21_14h15.59.760,torte-2b,2020.1.3,Win32,60,13289,,,,,,,,,,,,,,,,,,,,,,,,,,,,,,,,,,,,,0,73,73,40,1,,,,,,,,,,,,,,,,,,,,,,,,
,,,,,,,,,,,,l,1.09374,Correct!,,,,,,t2.png,t4.png,2,0.059078,19,Female,2020-08-21_14h15.59.760,torte-2b,2020.1.3,Win32,60,13289,,,,,,,,,,,,,,,,,,,,,,,,,,,,,,,,,,,,,0,74,74,18,1,,,,,,,,,,,,,,,,,,,,,,,,
,,,,,,,,,,,,l,1.43939,Incorrect,,,,,,t3.png,t4.png,1,0.90855,19,Female,2020-08-21_14h15.59.760,torte-2b,2020.1.3,Win32,60,13289,,,,,,,,,,,,,,,,,,,,,,,,,,,,,,,,,,,,,0,75,75,103,1,,,,,,,,,,,,,,,,,,,,,,,,
,,,,,,,,,,,,l,1.03798,Incorrect,,,,,,t2.png,t2.png,0,0.98115,19,Female,2020-08-21_14h15.59.760,torte-2b,2020.1.3,Win32,60,13289,,,,,,,,,,,,,,,,,,,,,,,,,,,,,,,,,,,,,0,76,76,7,1,,,,,,,,,,,,,,,,,,,,,,,,
,,,,,,,,,,,,l,1.52188,Correct!,,,,,,t1.png,t4.png,3,0.0000131,19,Female,2020-08-21_14h15.59.760,torte-2b,2020.1.3,Win32,60,13289,,,,,,,,,,,,,,,,,,,,,,,,,,,,,,,,,,,,,0,77,77,23,1,,,,,,,,,,,,,,,,,,,,,,,,
,,,,,,,,,,,,l,1.478315,Incorrect,,,,,,t4.png,t5.png,1,0.90025,19,Female,2020-08-21_14h15.59.760,torte-2b,2020.1.3,Win32,60,13289,,,,,,,,,,,,,,,,,,,,,,,,,,,,,,,,,,,,,0,78,78,21,1,,,,,,,,,,,,,,,,,,,,,,,,
,,,,,,,,,,,,l,0.93579,Incorrect,,,,,,t3.png,t2.png,1,0.90855,19,Female,2020-08-21_14h15.59.760,torte-2b,2020.1.3,Win32,60,13289,,,,,,,,,,,,,,,,,,,,,,,,,,,,,,,,,,,,,0,79,79,0,1,,,,,,,,,,,,,,,,,,,,,,,,
,,,,,,,,,,,,a,0.786135,Correct!,,,,,,t4.png,t4.png,0,0.98115,19,Female,2020-08-21_14h15.59.760,torte-2b,2020.1.3,Win32,60,13289,,,,,,,,,,,,,,,,,,,,,,,,,,,,,,,,,,,,,0,80,80,52,1,,,,,,,,,,,,,,,,,,,,,,,,
,,,,,,,,,,,,l,0.97269,Incorrect,,,,,,t3.png,t2.png,1,0.90855,19,Female,2020-08-21_14h15.59.760,torte-2b,2020.1.3,Win32,60,13289,,,,,,,,,,,,,,,,,,,,,,,,,,,,,,,,,,,,,0,81,81,10,1,,,,,,,,,,,,,,,,,,,,,,,,
,,,,,,,,,,,,a,1.073865,Correct!,,,,,,t5.png,t4.png,1,0.9,19,Female,2020-08-21_14h15.59.760,torte-2b,2020.1.3,Win32,60,13289,,,,,,,,,,,,,,,,,,,,,,,,,,,,,,,,,,,,,0,82,82,92,1,,,,,,,,,,,,,,,,,,,,,,,,
,,,,,,,,,,,,l,1.42376,Correct!,,,,,,t1.png,t3.png,2,0.0565,19,Female,2020-08-21_14h15.59.760,torte-2b,2020.1.3,Win32,60,13289,,,,,,,,,,,,,,,,,,,,,,,,,,,,,,,,,,,,,0,83,83,12,1,,,,,,,,,,,,,,,,,,,,,,,,
,,,,,,,,,,,,l,1.3713,Correct!,,,,,,t3.png,t5.png,2,0.056466,19,Female,2020-08-21_14h15.59.760,torte-2b,2020.1.3,Win32,60,13289,,,,,,,,,,,,,,,,,,,,,,,,,,,,,,,,,,,,,0,84,84,45,1,,,,,,,,,,,,,,,,,,,,,,,,
,,,,,,,,,,,,l,1.139245,Correct!,,,,,,t1.png,t4.png,3,0.0000131,19,Female,2020-08-21_14h15.59.760,torte-2b,2020.1.3,Win32,60,13289,,,,,,,,,,,,,,,,,,,,,,,,,,,,,,,,,,,,,0,85,85,16,1,,,,,,,,,,,,,,,,,,,,,,,,
,,,,,,,,,,,,l,1.163025,Incorrect,,,,,,t2.png,t1.png,1,0.90025,19,Female,2020-08-21_14h15.59.760,torte-2b,2020.1.3,Win32,60,13289,,,,,,,,,,,,,,,,,,,,,,,,,,,,,,,,,,,,,0,86,86,105,1,,,,,,,,,,,,,,,,,,,,,,,,
,,,,,,,,,,,,l,1.28573,Correct!,,,,,,t1.png,t5.png,4,9.55E-11,19,Female,2020-08-21_14h15.59.760,torte-2b,2020.1.3,Win32,60,13289,,,,,,,,,,,,,,,,,,,,,,,,,,,,,,,,,,,,,0,87,87,1,1,,,,,,,,,,,,,,,,,,,,,,,,
,,,,,,,,,,,,a,2.30839,Correct!,,,,,,t2.png,t3.png,1,0.90855,19,Female,2020-08-21_14h15.59.760,torte-2b,2020.1.3,Win32,60,13289,,,,,,,,,,,,,,,,,,,,,,,,,,,,,,,,,,,,,0,88,88,79,1,,,,,,,,,,,,,,,,,,,,,,,,
,,,,,,,,,,,,l,0.904695,Incorrect,,,,,,t3.png,t2.png,1,0.90855,19,Female,2020-08-21_14h15.59.760,torte-2b,2020.1.3,Win32,60,13289,,,,,,,,,,,,,,,,,,,,,,,,,,,,,,,,,,,,,0,89,89,99,1,,,,,,,,,,,,,,,,,,,,,,,,
,,,,,,,,,,,,l,1.170425,Incorrect,,,,,,t4.png,t4.png,0,0.98115,19,Female,2020-08-21_14h15.59.760,torte-2b,2020.1.3,Win32,60,13289,,,,,,,,,,,,,,,,,,,,,,,,,,,,,,,,,,,,,0,90,90,19,1,,,,,,,,,,,,,,,,,,,,,,,,
,,,,,,,,,,,,l,0.694795,Correct!,,,,,,t2.png,t4.png,2,0.059078,19,Female,2020-08-21_14h15.59.760,torte-2b,2020.1.3,Win32,60,13289,,,,,,,,,,,,,,,,,,,,,,,,,,,,,,,,,,,,,0,91,91,53,1,,,,,,,,,,,,,,,,,,,,,,,,
,,,,,,,,,,,,a,0.94009,Incorrect,,,,,,t4.png,t1.png,3,0.059078,19,Female,2020-08-21_14h15.59.760,torte-2b,2020.1.3,Win32,60,13289,,,,,,,,,,,,,,,,,,,,,,,,,,,,,,,,,,,,,0,92,92,73,1,,,,,,,,,,,,,,,,,,,,,,,,
,,,,,,,,,,,,l,0.61104,Correct!,,,,,,t1.png,t4.png,3,0.0000131,19,Female,2020-08-21_14h15.59.760,torte-2b,2020.1.3,Win32,60,13289,,,,,,,,,,,,,,,,,,,,,,,,,,,,,,,,,,,,,0,93,93,74,1,,,,,,,,,,,,,,,,,,,,,,,,
,,,,,,,,,,,,l,0.720105,Correct!,,,,,,t1.png,t3.png,2,0.056466,19,Female,2020-08-21_14h15.59.760,torte-2b,2020.1.3,Win32,60,13289,,,,,,,,,,,,,,,,,,,,,,,,,,,,,,,,,,,,,0,94,94,24,1,,,,,,,,,,,,,,,,,,,,,,,,
,,,,,,,,,,,,a,1.51862,Incorrect,,,,,,t4.png,t1.png,3,0.0000131,19,Female,2020-08-21_14h15.59.760,torte-2b,2020.1.3,Win32,60,13289,,,,,,,,,,,,,,,,,,,,,,,,,,,,,,,,,,,,,0,95,95,28,1,,,,,,,,,,,,,,,,,,,,,,,,
,,,,,,,,,,,,a,1.311605,Incorrect,,,,,,t5.png,t2.png,3,0.0000131,19,Female,2020-08-21_14h15.59.760,torte-2b,2020.1.3,Win32,60,13289,,,,,,,,,,,,,,,,,,,,,,,,,,,,,,,,,,,,,0,96,96,48,1,,,,,,,,,,,,,,,,,,,,,,,,
,,,,,,,,,,,,a,1.124925,Incorrect,,,,,,t5.png,t5.png,0,0.97829,19,Female,2020-08-21_14h15.59.760,torte-2b,2020.1.3,Win32,60,13289,,,,,,,,,,,,,,,,,,,,,,,,,,,,,,,,,,,,,0,97,97,2,1,,,,,,,,,,,,,,,,,,,,,,,,
,,,,,,,,,,,,l,1.06175,Incorrect,,,,,,t1.png,t2.png,1,0.9,19,Female,2020-08-21_14h15.59.760,torte-2b,2020.1.3,Win32,60,13289,,,,,,,,,,,,,,,,,,,,,,,,,,,,,,,,,,,,,0,98,98,41,1,,,,,,,,,,,,,,,,,,,,,,,,
,,,,,,,,,,,,l,1.462425,Incorrect,,,,,,t3.png,t4.png,1,0.90855,19,Female,2020-08-21_14h15.59.760,torte-2b,2020.1.3,Win32,60,13289,,,,,,,,,,,,,,,,,,,,,,,,,,,,,,,,,,,,,0,99,99,58,1,,,,,,,,,,,,,,,,,,,,,,,,
,,,,,,,,,,,,l,1.393555,Incorrect,,,,,,t4.png,t3.png,1,0.909,19,Female,2020-08-21_14h15.59.760,torte-2b,2020.1.3,Win32,60,13289,,,,,,,,,,,,,,,,,,,,,,,,,,,,,,,,,,,,,0,100,100,107,1,,,,,,,,,,,,,,,,,,,,,,,,
,,,,,,,,,,,,l,1.02846,Correct!,,,,,,t1.png,t2.png,1,0.9,19,Female,2020-08-21_14h15.59.760,torte-2b,2020.1.3,Win32,60,13289,,,,,,,,,,,,,,,,,,,,,,,,,,,,,,,,,,,,,0,101,101,17,1,,,,,,,,,,,,,,,,,,,,,,,,
,,,,,,,,,,,,a,0.892975,Correct!,,,,,,t4.png,t3.png,1,0.90855,19,Female,2020-08-21_14h15.59.760,torte-2b,2020.1.3,Win32,60,13289,,,,,,,,,,,,,,,,,,,,,,,,,,,,,,,,,,,,,0,102,102,11,1,,,,,,,,,,,,,,,,,,,,,,,,
,,,,,,,,,,,,a,1.12249,Incorrect,,,,,,t1.png,t3.png,2,0.0565,19,Female,2020-08-21_14h15.59.760,torte-2b,2020.1.3,Win32,60,13289,,,,,,,,,,,,,,,,,,,,,,,,,,,,,,,,,,,,,0,103,103,42,1,,,,,,,,,,,,,,,,,,,,,,,,
,,,,,,,,,,,,a,1.14397,Correct!,,,,,,t2.png,t3.png,1,0.909,19,Female,2020-08-21_14h15.59.760,torte-2b,2020.1.3,Win32,60,13289,,,,,,,,,,,,,,,,,,,,,,,,,,,,,,,,,,,,,0,104,104,8,1,,,,,,,,,,,,,,,,,,,,,,,,
,,,,,,,,,,,,l,0.92802,Incorrect,,,,,,t3.png,t2.png,1,0.90855,19,Female,2020-08-21_14h15.59.760,torte-2b,2020.1.3,Win32,60,13289,,,,,,,,,,,,,,,,,,,,,,,,,,,,,,,,,,,,,0,105,105,108,1,,,,,,,,,,,,,,,,,,,,,,,,
,,,,,,,,,,,,l,1.434045,Correct!,,,,,,t2.png,t5.png,3,0.0000131,19,Female,2020-08-21_14h15.59.760,torte-2b,2020.1.3,Win32,60,13289,,,,,,,,,,,,,,,,,,,,,,,,,,,,,,,,,,,,,0,106,106,115,1,,,,,,,,,,,,,,,,,,,,,,,,
,,,,,,,,,,,,l,1.389015,Correct!,,,,,,t3.png,t5.png,2,0.056466,19,Female,2020-08-21_14h15.59.760,torte-2b,2020.1.3,Win32,60,13289,,,,,,,,,,,,,,,,,,,,,,,,,,,,,,,,,,,,,0,107,107,78,1,,,,,,,,,,,,,,,,,,,,,,,,
,,,,,,,,,,,,l,1.093445,Incorrect,,,,,,t2.png,t1.png,1,0.9,19,Female,2020-08-21_14h15.59.760,torte-2b,2020.1.3,Win32,60,13289,,,,,,,,,,,,,,,,,,,,,,,,,,,,,,,,,,,,,0,108,108,93,1,,,,,,,,,,,,,,,,,,,,,,,,
,,,,,,,,,,,,l,0.817605,Incorrect,,,,,,t3.png,t2.png,1,0.90855,19,Female,2020-08-21_14h15.59.760,torte-2b,2020.1.3,Win32,60,13289,,,,,,,,,,,,,,,,,,,,,,,,,,,,,,,,,,,,,0,109,109,94,1,,,,,,,,,,,,,,,,,,,,,,,,
,,,,,,,,,,,,l,1.83315,Correct!,,,,,,t1.png,t5.png,4,9.55E-11,19,Female,2020-08-21_14h15.59.760,torte-2b,2020.1.3,Win32,60,13289,,,,,,,,,,,,,,,,,,,,,,,,,,,,,,,,,,,,,0,110,110,20,1,,,,,,,,,,,,,,,,,,,,,,,,
,,,,,,,,,,,,l,0.61496,Incorrect,,,,,,t3.png,t4.png,1,0.90855,19,Female,2020-08-21_14h15.59.760,torte-2b,2020.1.3,Win32,60,13289,,,,,,,,,,,,,,,,,,,,,,,,,,,,,,,,,,,,,0,111,111,9,1,,,,,,,,,,,,,,,,,,,,,,,,
,,,,,,,,,,,,a,1.49959,Incorrect,,,,,,t4.png,t1.png,3,0.059078,19,Female,2020-08-21_14h15.59.760,torte-2b,2020.1.3,Win32,60,13289,,,,,,,,,,,,,,,,,,,,,,,,,,,,,,,,,,,,,0,112,112,62,1,,,,,,,,,,,,,,,,,,,,,,,,
,,,,,,,,,,,,l,1.04955,Incorrect,,,,,,t2.png,t2.png,0,0.98115,19,Female,2020-08-21_14h15.59.760,torte-2b,2020.1.3,Win32,60,13289,,,,,,,,,,,,,,,,,,,,,,,,,,,,,,,,,,,,,0,113,113,69,1,,,,,,,,,,,,,,,,,,,,,,,,
,,,,,,,,,,,,a,1.207455,Incorrect,,,,,,t5.png,t3.png,2,0.056466,19,Female,2020-08-21_14h15.59.760,torte-2b,2020.1.3,Win32,60,13289,,,,,,,,,,,,,,,,,,,,,,,,,,,,,,,,,,,,,0,114,114,27,1,,,,,,,,,,,,,,,,,,,,,,,,
,,,,,,,,,,,,a,0.735145,Incorrect,,,,,,t5.png,t1.png,4,9.55E-11,19,Female,2020-08-21_14h15.59.760,torte-2b,2020.1.3,Win32,60,13289,,,,,,,,,,,,,,,,,,,,,,,,,,,,,,,,,,,,,0,115,115,117,1,,,,,,,,,,,,,,,,,,,,,,,,
,,,,,,,,,,,,l,0.97748,Incorrect,,,,,,t1.png,t2.png,1,0.9,19,Female,2020-08-21_14h15.59.760,torte-2b,2020.1.3,Win32,60,13289,,,,,,,,,,,,,,,,,,,,,,,,,,,,,,,,,,,,,0,116,116,61,1,,,,,,,,,,,,,,,,,,,,,,,,
,,,,,,,,,,,,a,0.683815,Incorrect,,,,,,t5.png,t3.png,2,0.056466,19,Female,2020-08-21_14h15.59.760,torte-2b,2020.1.3,Win32,60,13289,,,,,,,,,,,,,,,,,,,,,,,,,,,,,,,,,,,,,0,117,117,26,1,,,,,,,,,,,,,,,,,,,,,,,,
,,,,,,,,,,,,a,0.823425,Correct!,,,,,,t5.png,t4.png,1,0.90025,19,Female,2020-08-21_14h15.59.760,torte-2b,2020.1.3,Win32,60,13289,,,,,,,,,,,,,,,,,,,,,,,,,,,,,,,,,,,,,0,118,118,14,1,,,,,,,,,,,,,,,,,,,,,,,,
,,,,,,,,,,,,l,0.742165,Correct!,,,,,,t1.png,t4.png,3,0.0000131,19,Female,2020-08-21_14h15.59.760,torte-2b,2020.1.3,Win32,60,13289,,,,,,,,,,,,,,,,,,,,,,,,,,,,,,,,,,,,,0,119,119,36,1,,,,,,,,,,,,,,,,,,,,,,,,
,,,,,,,,,,,,,,,,,,,,,,,,19,Female,2020-08-21_14h15.59.760,torte-2b,2020.1.3,Win32,60,13289,space,1.139175,,,,,,,,,,,,,,,,,,,,,,,,,,,,,,,,,,,,,,,,-104.7999901,-174.400009,1,0,0,s7,46.40001214,92.79999495,1,0,0,t1,212.8000146,-95.20000786,1,0,0,proceed,space,22.197785,space,0.021015,space,0.272495
