key_resp_8.keys,key_resp_8.rt,key_resp_9.keys,key_resp_9.rt,key_resp_10.keys,key_resp_10.rt,key_resp_11.keys,key_resp_11.rt,key_resp_2.keys,key_resp_2.rt,key_resp_3.keys,key_resp_3.rt,key_resp.keys,Feedback,train.thisRepN,train.thisTrialN,train.thisN,train.thisIndex,train.ran,torta_sx,torta_dx,difference,probability,age,gender,date,expName,psychopyVersion,OS,frameRate,participant,key_resp.rt,key_resp_15.keys,key_resp_15.rt,key_resp_6.keys,key_resp_6.rt,test1.thisRepN,test1.thisTrialN,test1.thisN,test1.thisIndex,test1.ran,key_resp_4.keys,key_resp_4.rt,key_resp_5.keys,back1.thisRepN,back1.thisTrialN,back1.thisN,back1.thisIndex,back1.ran,letter,key_resp_5.rt,back2.thisRepN,back2.thisTrialN,back2.thisN,back2.thisIndex,back2.ran,back3.thisRepN,back3.thisTrialN,back3.thisN,back3.thisIndex,back3.ran,back4.thisRepN,back4.thisTrialN,back4.thisN,back4.thisIndex,back4.ran,key_resp_7.keys,key_resp_7.rt,test2.thisRepN,test2.thisTrialN,test2.thisN,test2.thisIndex,test2.ran,mouse.x,mouse.y,mouse.leftButton,mouse.midButton,mouse.rightButton,mouse.clicked_name,mouse_2.x,mouse_2.y,mouse_2.leftButton,mouse_2.midButton,mouse_2.rightButton,mouse_2.clicked_name,mouse_3.x,mouse_3.y,mouse_3.leftButton,mouse_3.midButton,mouse_3.rightButton,mouse_3.clicked_name,key_resp_12.keys,key_resp_12.rt,key_resp_13.keys,key_resp_13.rt,key_resp_14.keys,key_resp_14.rt
space,0.962,space,0.746,space,0.394,space,3.827,space,0.051,space,30.402,,Too slow :(,0,0,0,47,1,t4.png,t2.png,2,0.059078,19,female,2020-09-10_19h49.15.214,torte-2b,2020.1.3,MacIntel,60,13298,,,,,,,,,,,,,,,,,,,,,,,,,,,,,,,,,,,,,,,,,,,,,,,,,,,,,,,,,,,,,,,,,,
,,,,,,,,,,,,a,Correct!,0,1,1,58,1,t5.png,t4.png,1,0.90025,19,female,2020-09-10_19h49.15.214,torte-2b,2020.1.3,MacIntel,60,13298,1.212,,,,,,,,,,,,,,,,,,,,,,,,,,,,,,,,,,,,,,,,,,,,,,,,,,,,,,,,,,,,,,,,,
,,,,,,,,,,,,l,Incorrect,0,2,2,112,1,t1.png,t1.png,0,0.97829,19,female,2020-09-10_19h49.15.214,torte-2b,2020.1.3,MacIntel,60,13298,0.618,,,,,,,,,,,,,,,,,,,,,,,,,,,,,,,,,,,,,,,,,,,,,,,,,,,,,,,,,,,,,,,,,
,,,,,,,,,,,,a,Correct!,0,3,3,100,1,t4.png,t5.png,1,0.90025,19,female,2020-09-10_19h49.15.214,torte-2b,2020.1.3,MacIntel,60,13298,0.466,,,,,,,,,,,,,,,,,,,,,,,,,,,,,,,,,,,,,,,,,,,,,,,,,,,,,,,,,,,,,,,,,
,,,,,,,,,,,,a,Correct!,0,4,4,41,1,t3.png,t2.png,1,0.90855,19,female,2020-09-10_19h49.15.214,torte-2b,2020.1.3,MacIntel,60,13298,0.58,,,,,,,,,,,,,,,,,,,,,,,,,,,,,,,,,,,,,,,,,,,,,,,,,,,,,,,,,,,,,,,,,
,,,,,,,,,,,,a,Correct!,0,5,5,10,1,t2.png,t3.png,1,0.90855,19,female,2020-09-10_19h49.15.214,torte-2b,2020.1.3,MacIntel,60,13298,0.616,,,,,,,,,,,,,,,,,,,,,,,,,,,,,,,,,,,,,,,,,,,,,,,,,,,,,,,,,,,,,,,,,
,,,,,,,,,,,,a,Incorrect,0,6,6,89,1,t1.png,t4.png,3,0.0000131,19,female,2020-09-10_19h49.15.214,torte-2b,2020.1.3,MacIntel,60,13298,1.399,,,,,,,,,,,,,,,,,,,,,,,,,,,,,,,,,,,,,,,,,,,,,,,,,,,,,,,,,,,,,,,,,
,,,,,,,,,,,,a,Correct!,0,7,7,63,1,t2.png,t3.png,1,0.909,19,female,2020-09-10_19h49.15.214,torte-2b,2020.1.3,MacIntel,60,13298,0.748,,,,,,,,,,,,,,,,,,,,,,,,,,,,,,,,,,,,,,,,,,,,,,,,,,,,,,,,,,,,,,,,,
,,,,,,,,,,,,a,Correct!,0,8,8,13,1,t5.png,t5.png,0,0.97829,19,female,2020-09-10_19h49.15.214,torte-2b,2020.1.3,MacIntel,60,13298,0.513,,,,,,,,,,,,,,,,,,,,,,,,,,,,,,,,,,,,,,,,,,,,,,,,,,,,,,,,,,,,,,,,,
,,,,,,,,,,,,a,Incorrect,0,9,9,111,1,t5.png,t1.png,4,9.55E-11,19,female,2020-09-10_19h49.15.214,torte-2b,2020.1.3,MacIntel,60,13298,0.614,,,,,,,,,,,,,,,,,,,,,,,,,,,,,,,,,,,,,,,,,,,,,,,,,,,,,,,,,,,,,,,,,
,,,,,,,,,,,,,Too slow :(,0,10,10,2,1,t3.png,t2.png,1,0.90855,19,female,2020-09-10_19h49.15.214,torte-2b,2020.1.3,MacIntel,60,13298,,,,,,,,,,,,,,,,,,,,,,,,,,,,,,,,,,,,,,,,,,,,,,,,,,,,,,,,,,,,,,,,,,
,,,,,,,,,,,,a,Incorrect,0,11,11,56,1,t5.png,t1.png,4,9.55E-11,19,female,2020-09-10_19h49.15.214,torte-2b,2020.1.3,MacIntel,60,13298,0.615,,,,,,,,,,,,,,,,,,,,,,,,,,,,,,,,,,,,,,,,,,,,,,,,,,,,,,,,,,,,,,,,,
,,,,,,,,,,,,l,Correct!,0,12,12,14,1,t2.png,t4.png,2,0.059078,19,female,2020-09-10_19h49.15.214,torte-2b,2020.1.3,MacIntel,60,13298,0.838,,,,,,,,,,,,,,,,,,,,,,,,,,,,,,,,,,,,,,,,,,,,,,,,,,,,,,,,,,,,,,,,,
,,,,,,,,,,,,a,Incorrect,0,13,13,30,1,t3.png,t1.png,2,0.056466,19,female,2020-09-10_19h49.15.214,torte-2b,2020.1.3,MacIntel,60,13298,0.637,,,,,,,,,,,,,,,,,,,,,,,,,,,,,,,,,,,,,,,,,,,,,,,,,,,,,,,,,,,,,,,,,
,,,,,,,,,,,,l,Incorrect,0,14,14,81,1,t1.png,t1.png,0,0.97829,19,female,2020-09-10_19h49.15.214,torte-2b,2020.1.3,MacIntel,60,13298,1.515,,,,,,,,,,,,,,,,,,,,,,,,,,,,,,,,,,,,,,,,,,,,,,,,,,,,,,,,,,,,,,,,,
,,,,,,,,,,,,l,Incorrect,0,15,15,107,1,t1.png,t1.png,0,0.978,19,female,2020-09-10_19h49.15.214,torte-2b,2020.1.3,MacIntel,60,13298,1.103,,,,,,,,,,,,,,,,,,,,,,,,,,,,,,,,,,,,,,,,,,,,,,,,,,,,,,,,,,,,,,,,,
,,,,,,,,,,,,a,Incorrect,0,16,16,54,1,t1.png,t5.png,4,9.55E-11,19,female,2020-09-10_19h49.15.214,torte-2b,2020.1.3,MacIntel,60,13298,0.353,,,,,,,,,,,,,,,,,,,,,,,,,,,,,,,,,,,,,,,,,,,,,,,,,,,,,,,,,,,,,,,,,
,,,,,,,,,,,,a,Incorrect,0,17,17,88,1,t3.png,t1.png,2,0.056466,19,female,2020-09-10_19h49.15.214,torte-2b,2020.1.3,MacIntel,60,13298,1.305,,,,,,,,,,,,,,,,,,,,,,,,,,,,,,,,,,,,,,,,,,,,,,,,,,,,,,,,,,,,,,,,,
,,,,,,,,,,,,a,Correct!,0,18,18,110,1,t4.png,t5.png,1,0.90025,19,female,2020-09-10_19h49.15.214,torte-2b,2020.1.3,MacIntel,60,13298,0.665,,,,,,,,,,,,,,,,,,,,,,,,,,,,,,,,,,,,,,,,,,,,,,,,,,,,,,,,,,,,,,,,,
,,,,,,,,,,,,l,Correct!,0,19,19,115,1,t2.png,t4.png,2,0.059078,19,female,2020-09-10_19h49.15.214,torte-2b,2020.1.3,MacIntel,60,13298,1.737,,,,,,,,,,,,,,,,,,,,,,,,,,,,,,,,,,,,,,,,,,,,,,,,,,,,,,,,,,,,,,,,,
,,,,,,,,,,,,a,Incorrect,0,20,20,33,1,t5.png,t1.png,4,9.55E-11,19,female,2020-09-10_19h49.15.214,torte-2b,2020.1.3,MacIntel,60,13298,2.373,,,,,,,,,,,,,,,,,,,,,,,,,,,,,,,,,,,,,,,,,,,,,,,,,,,,,,,,,,,,,,,,,
,,,,,,,,,,,,,Too slow :(,0,21,21,45,1,t3.png,t2.png,1,0.90855,19,female,2020-09-10_19h49.15.214,torte-2b,2020.1.3,MacIntel,60,13298,,,,,,,,,,,,,,,,,,,,,,,,,,,,,,,,,,,,,,,,,,,,,,,,,,,,,,,,,,,,,,,,,,
,,,,,,,,,,,,a,Incorrect,0,22,22,15,1,t3.png,t2.png,1,0.90855,19,female,2020-09-10_19h49.15.214,torte-2b,2020.1.3,MacIntel,60,13298,2.337,,,,,,,,,,,,,,,,,,,,,,,,,,,,,,,,,,,,,,,,,,,,,,,,,,,,,,,,,,,,,,,,,
,,,,,,,,,,,,a,Correct!,0,23,23,113,1,t5.png,t4.png,1,0.9,19,female,2020-09-10_19h49.15.214,torte-2b,2020.1.3,MacIntel,60,13298,0.881,,,,,,,,,,,,,,,,,,,,,,,,,,,,,,,,,,,,,,,,,,,,,,,,,,,,,,,,,,,,,,,,,
,,,,,,,,,,,,a,Correct!,0,24,24,18,1,t4.png,t5.png,1,0.90025,19,female,2020-09-10_19h49.15.214,torte-2b,2020.1.3,MacIntel,60,13298,0.934,,,,,,,,,,,,,,,,,,,,,,,,,,,,,,,,,,,,,,,,,,,,,,,,,,,,,,,,,,,,,,,,,
,,,,,,,,,,,,l,Correct!,0,25,25,94,1,t5.png,t1.png,4,9.55E-11,19,female,2020-09-10_19h49.15.214,torte-2b,2020.1.3,MacIntel,60,13298,1.354,,,,,,,,,,,,,,,,,,,,,,,,,,,,,,,,,,,,,,,,,,,,,,,,,,,,,,,,,,,,,,,,,
,,,,,,,,,,,,a,Correct!,0,26,26,34,1,t5.png,t4.png,1,0.9,19,female,2020-09-10_19h49.15.214,torte-2b,2020.1.3,MacIntel,60,13298,0.581,,,,,,,,,,,,,,,,,,,,,,,,,,,,,,,,,,,,,,,,,,,,,,,,,,,,,,,,,,,,,,,,,
,,,,,,,,,,,,a,Correct!,0,27,27,20,1,t2.png,t3.png,1,0.90855,19,female,2020-09-10_19h49.15.214,torte-2b,2020.1.3,MacIntel,60,13298,0.916,,,,,,,,,,,,,,,,,,,,,,,,,,,,,,,,,,,,,,,,,,,,,,,,,,,,,,,,,,,,,,,,,
,,,,,,,,,,,,l,Incorrect,0,28,28,92,1,t2.png,t3.png,1,0.909,19,female,2020-09-10_19h49.15.214,torte-2b,2020.1.3,MacIntel,60,13298,0.389,,,,,,,,,,,,,,,,,,,,,,,,,,,,,,,,,,,,,,,,,,,,,,,,,,,,,,,,,,,,,,,,,
,,,,,,,,,,,,l,Correct!,0,29,29,80,1,t1.png,t4.png,3,0.0000131,19,female,2020-09-10_19h49.15.214,torte-2b,2020.1.3,MacIntel,60,13298,1.383,,,,,,,,,,,,,,,,,,,,,,,,,,,,,,,,,,,,,,,,,,,,,,,,,,,,,,,,,,,,,,,,,
,,,,,,,,,,,,a,Correct!,0,30,30,74,1,t5.png,t4.png,1,0.9,19,female,2020-09-10_19h49.15.214,torte-2b,2020.1.3,MacIntel,60,13298,0.981,,,,,,,,,,,,,,,,,,,,,,,,,,,,,,,,,,,,,,,,,,,,,,,,,,,,,,,,,,,,,,,,,
,,,,,,,,,,,,a,Incorrect,0,31,31,24,1,t4.png,t2.png,2,0.059078,19,female,2020-09-10_19h49.15.214,torte-2b,2020.1.3,MacIntel,60,13298,0.817,,,,,,,,,,,,,,,,,,,,,,,,,,,,,,,,,,,,,,,,,,,,,,,,,,,,,,,,,,,,,,,,,
,,,,,,,,,,,,l,Incorrect,0,32,32,116,1,t5.png,t4.png,1,0.90025,19,female,2020-09-10_19h49.15.214,torte-2b,2020.1.3,MacIntel,60,13298,0.383,,,,,,,,,,,,,,,,,,,,,,,,,,,,,,,,,,,,,,,,,,,,,,,,,,,,,,,,,,,,,,,,,
,,,,,,,,,,,,l,Incorrect,0,33,33,49,1,t4.png,t5.png,1,0.9,19,female,2020-09-10_19h49.15.214,torte-2b,2020.1.3,MacIntel,60,13298,0.284,,,,,,,,,,,,,,,,,,,,,,,,,,,,,,,,,,,,,,,,,,,,,,,,,,,,,,,,,,,,,,,,,
,,,,,,,,,,,,a,Incorrect,0,34,34,46,1,t4.png,t2.png,2,0.059078,19,female,2020-09-10_19h49.15.214,torte-2b,2020.1.3,MacIntel,60,13298,0.071,,,,,,,,,,,,,,,,,,,,,,,,,,,,,,,,,,,,,,,,,,,,,,,,,,,,,,,,,,,,,,,,,
,,,,,,,,,,,,a,Correct!,0,35,35,101,1,t4.png,t5.png,1,0.90025,19,female,2020-09-10_19h49.15.214,torte-2b,2020.1.3,MacIntel,60,13298,0.349,,,,,,,,,,,,,,,,,,,,,,,,,,,,,,,,,,,,,,,,,,,,,,,,,,,,,,,,,,,,,,,,,
,,,,,,,,,,,,a,Correct!,0,36,36,77,1,t1.png,t1.png,0,0.97829,19,female,2020-09-10_19h49.15.214,torte-2b,2020.1.3,MacIntel,60,13298,0.337,,,,,,,,,,,,,,,,,,,,,,,,,,,,,,,,,,,,,,,,,,,,,,,,,,,,,,,,,,,,,,,,,
,,,,,,,,,,,,l,Correct!,0,37,37,108,1,t5.png,t1.png,4,9.55E-11,19,female,2020-09-10_19h49.15.214,torte-2b,2020.1.3,MacIntel,60,13298,0.321,,,,,,,,,,,,,,,,,,,,,,,,,,,,,,,,,,,,,,,,,,,,,,,,,,,,,,,,,,,,,,,,,
,,,,,,,,,,,,a,Incorrect,0,38,38,90,1,t1.png,t5.png,4,9.55E-11,19,female,2020-09-10_19h49.15.214,torte-2b,2020.1.3,MacIntel,60,13298,0.353,,,,,,,,,,,,,,,,,,,,,,,,,,,,,,,,,,,,,,,,,,,,,,,,,,,,,,,,,,,,,,,,,
,,,,,,,,,,,,a,Correct!,0,39,39,105,1,t3.png,t2.png,1,0.90855,19,female,2020-09-10_19h49.15.214,torte-2b,2020.1.3,MacIntel,60,13298,0.304,,,,,,,,,,,,,,,,,,,,,,,,,,,,,,,,,,,,,,,,,,,,,,,,,,,,,,,,,,,,,,,,,
,,,,,,,,,,,,a,Correct!,0,40,40,22,1,t2.png,t3.png,1,0.90855,19,female,2020-09-10_19h49.15.214,torte-2b,2020.1.3,MacIntel,60,13298,0.263,,,,,,,,,,,,,,,,,,,,,,,,,,,,,,,,,,,,,,,,,,,,,,,,,,,,,,,,,,,,,,,,,
,,,,,,,,,,,,l,Correct!,0,41,41,38,1,t3.png,t1.png,2,0.056466,19,female,2020-09-10_19h49.15.214,torte-2b,2020.1.3,MacIntel,60,13298,0.65,,,,,,,,,,,,,,,,,,,,,,,,,,,,,,,,,,,,,,,,,,,,,,,,,,,,,,,,,,,,,,,,,
,,,,,,,,,,,,l,Correct!,0,42,42,6,1,t1.png,t4.png,3,0.0000131,19,female,2020-09-10_19h49.15.214,torte-2b,2020.1.3,MacIntel,60,13298,0.303,,,,,,,,,,,,,,,,,,,,,,,,,,,,,,,,,,,,,,,,,,,,,,,,,,,,,,,,,,,,,,,,,
,,,,,,,,,,,,a,Correct!,0,43,43,19,1,t4.png,t2.png,2,0.059078,19,female,2020-09-10_19h49.15.214,torte-2b,2020.1.3,MacIntel,60,13298,0.497,,,,,,,,,,,,,,,,,,,,,,,,,,,,,,,,,,,,,,,,,,,,,,,,,,,,,,,,,,,,,,,,,
,,,,,,,,,,,,a,Correct!,0,44,44,65,1,t4.png,t5.png,1,0.90025,19,female,2020-09-10_19h49.15.214,torte-2b,2020.1.3,MacIntel,60,13298,0.333,,,,,,,,,,,,,,,,,,,,,,,,,,,,,,,,,,,,,,,,,,,,,,,,,,,,,,,,,,,,,,,,,
,,,,,,,,,,,,l,Correct!,0,45,45,4,1,t1.png,t5.png,4,9.55E-11,19,female,2020-09-10_19h49.15.214,torte-2b,2020.1.3,MacIntel,60,13298,0.423,,,,,,,,,,,,,,,,,,,,,,,,,,,,,,,,,,,,,,,,,,,,,,,,,,,,,,,,,,,,,,,,,
,,,,,,,,,,,,l,Correct!,0,46,46,17,1,t1.png,t4.png,3,0.0000131,19,female,2020-09-10_19h49.15.214,torte-2b,2020.1.3,MacIntel,60,13298,0.3,,,,,,,,,,,,,,,,,,,,,,,,,,,,,,,,,,,,,,,,,,,,,,,,,,,,,,,,,,,,,,,,,
,,,,,,,,,,,,a,Incorrect,0,47,47,93,1,t2.png,t4.png,2,0.059078,19,female,2020-09-10_19h49.15.214,torte-2b,2020.1.3,MacIntel,60,13298,0.554,,,,,,,,,,,,,,,,,,,,,,,,,,,,,,,,,,,,,,,,,,,,,,,,,,,,,,,,,,,,,,,,,
,,,,,,,,,,,,,Too slow :(,0,48,48,73,1,t4.png,t2.png,2,0.059078,19,female,2020-09-10_19h49.15.214,torte-2b,2020.1.3,MacIntel,60,13298,,,,,,,,,,,,,,,,,,,,,,,,,,,,,,,,,,,,,,,,,,,,,,,,,,,,,,,,,,,,,,,,,,
,,,,,,,,,,,,a,Correct!,0,49,49,21,1,t5.png,t4.png,1,0.90025,19,female,2020-09-10_19h49.15.214,torte-2b,2020.1.3,MacIntel,60,13298,1.534,,,,,,,,,,,,,,,,,,,,,,,,,,,,,,,,,,,,,,,,,,,,,,,,,,,,,,,,,,,,,,,,,
,,,,,,,,,,,,a,Incorrect,0,50,50,86,1,t3.png,t1.png,2,0.056466,19,female,2020-09-10_19h49.15.214,torte-2b,2020.1.3,MacIntel,60,13298,0.323,,,,,,,,,,,,,,,,,,,,,,,,,,,,,,,,,,,,,,,,,,,,,,,,,,,,,,,,,,,,,,,,,
,,,,,,,,,,,,a,Correct!,0,51,51,36,1,t3.png,t1.png,2,0.0565,19,female,2020-09-10_19h49.15.214,torte-2b,2020.1.3,MacIntel,60,13298,0.451,,,,,,,,,,,,,,,,,,,,,,,,,,,,,,,,,,,,,,,,,,,,,,,,,,,,,,,,,,,,,,,,,
,,,,,,,,,,,,l,Correct!,0,52,52,43,1,t4.png,t2.png,2,0.059078,19,female,2020-09-10_19h49.15.214,torte-2b,2020.1.3,MacIntel,60,13298,0.348,,,,,,,,,,,,,,,,,,,,,,,,,,,,,,,,,,,,,,,,,,,,,,,,,,,,,,,,,,,,,,,,,
,,,,,,,,,,,,a,Correct!,0,53,53,85,1,t3.png,t2.png,1,0.90855,19,female,2020-09-10_19h49.15.214,torte-2b,2020.1.3,MacIntel,60,13298,0.383,,,,,,,,,,,,,,,,,,,,,,,,,,,,,,,,,,,,,,,,,,,,,,,,,,,,,,,,,,,,,,,,,
,,,,,,,,,,,,a,Incorrect,0,54,54,68,1,t1.png,t4.png,3,0.0000131,19,female,2020-09-10_19h49.15.214,torte-2b,2020.1.3,MacIntel,60,13298,0.321,,,,,,,,,,,,,,,,,,,,,,,,,,,,,,,,,,,,,,,,,,,,,,,,,,,,,,,,,,,,,,,,,
,,,,,,,,,,,,a,Correct!,0,55,55,79,1,t3.png,t2.png,1,0.909,19,female,2020-09-10_19h49.15.214,torte-2b,2020.1.3,MacIntel,60,13298,0.383,,,,,,,,,,,,,,,,,,,,,,,,,,,,,,,,,,,,,,,,,,,,,,,,,,,,,,,,,,,,,,,,,
,,,,,,,,,,,,l,Correct!,0,56,56,104,1,t2.png,t3.png,1,0.90855,19,female,2020-09-10_19h49.15.214,torte-2b,2020.1.3,MacIntel,60,13298,0.288,,,,,,,,,,,,,,,,,,,,,,,,,,,,,,,,,,,,,,,,,,,,,,,,,,,,,,,,,,,,,,,,,
,,,,,,,,,,,,a,Incorrect,0,57,57,40,1,t1.png,t5.png,4,9.55E-11,19,female,2020-09-10_19h49.15.214,torte-2b,2020.1.3,MacIntel,60,13298,0.267,,,,,,,,,,,,,,,,,,,,,,,,,,,,,,,,,,,,,,,,,,,,,,,,,,,,,,,,,,,,,,,,,
,,,,,,,,,,,,a,Incorrect,0,58,58,11,1,t1.png,t4.png,3,0.0000131,19,female,2020-09-10_19h49.15.214,torte-2b,2020.1.3,MacIntel,60,13298,0.316,,,,,,,,,,,,,,,,,,,,,,,,,,,,,,,,,,,,,,,,,,,,,,,,,,,,,,,,,,,,,,,,,
,,,,,,,,,,,,l,Correct!,0,59,59,31,1,t1.png,t5.png,4,9.55E-11,19,female,2020-09-10_19h49.15.214,torte-2b,2020.1.3,MacIntel,60,13298,0.306,,,,,,,,,,,,,,,,,,,,,,,,,,,,,,,,,,,,,,,,,,,,,,,,,,,,,,,,,,,,,,,,,
,,,,,,,,,,,,l,Incorrect,0,60,60,44,1,t2.png,t3.png,1,0.909,19,female,2020-09-10_19h49.15.214,torte-2b,2020.1.3,MacIntel,60,13298,0.666,,,,,,,,,,,,,,,,,,,,,,,,,,,,,,,,,,,,,,,,,,,,,,,,,,,,,,,,,,,,,,,,,
,,,,,,,,,,,,a,Correct!,0,61,61,8,1,t3.png,t2.png,1,0.90855,19,female,2020-09-10_19h49.15.214,torte-2b,2020.1.3,MacIntel,60,13298,0.347,,,,,,,,,,,,,,,,,,,,,,,,,,,,,,,,,,,,,,,,,,,,,,,,,,,,,,,,,,,,,,,,,
,,,,,,,,,,,,l,Incorrect,0,62,62,9,1,t4.png,t5.png,1,0.9,19,female,2020-09-10_19h49.15.214,torte-2b,2020.1.3,MacIntel,60,13298,0.304,,,,,,,,,,,,,,,,,,,,,,,,,,,,,,,,,,,,,,,,,,,,,,,,,,,,,,,,,,,,,,,,,
,,,,,,,,,,,,l,Correct!,0,63,63,1,1,t2.png,t4.png,2,0.059078,19,female,2020-09-10_19h49.15.214,torte-2b,2020.1.3,MacIntel,60,13298,0.307,,,,,,,,,,,,,,,,,,,,,,,,,,,,,,,,,,,,,,,,,,,,,,,,,,,,,,,,,,,,,,,,,
,,,,,,,,,,,,a,Correct!,0,64,64,64,1,t1.png,t1.png,0,0.978,19,female,2020-09-10_19h49.15.214,torte-2b,2020.1.3,MacIntel,60,13298,0.382,,,,,,,,,,,,,,,,,,,,,,,,,,,,,,,,,,,,,,,,,,,,,,,,,,,,,,,,,,,,,,,,,
,,,,,,,,,,,,a,Incorrect,0,65,65,52,1,t2.png,t4.png,2,0.059078,19,female,2020-09-10_19h49.15.214,torte-2b,2020.1.3,MacIntel,60,13298,0.305,,,,,,,,,,,,,,,,,,,,,,,,,,,,,,,,,,,,,,,,,,,,,,,,,,,,,,,,,,,,,,,,,
,,,,,,,,,,,,l,Incorrect,0,66,66,42,1,t5.png,t4.png,1,0.90025,19,female,2020-09-10_19h49.15.214,torte-2b,2020.1.3,MacIntel,60,13298,0.334,,,,,,,,,,,,,,,,,,,,,,,,,,,,,,,,,,,,,,,,,,,,,,,,,,,,,,,,,,,,,,,,,
,,,,,,,,,,,,a,Correct!,0,67,67,66,1,t4.png,t5.png,1,0.9,19,female,2020-09-10_19h49.15.214,torte-2b,2020.1.3,MacIntel,60,13298,0.231,,,,,,,,,,,,,,,,,,,,,,,,,,,,,,,,,,,,,,,,,,,,,,,,,,,,,,,,,,,,,,,,,
,,,,,,,,,,,,l,Incorrect,0,68,68,75,1,t1.png,t1.png,0,0.97829,19,female,2020-09-10_19h49.15.214,torte-2b,2020.1.3,MacIntel,60,13298,0.973,,,,,,,,,,,,,,,,,,,,,,,,,,,,,,,,,,,,,,,,,,,,,,,,,,,,,,,,,,,,,,,,,
,,,,,,,,,,,,a,Correct!,0,69,69,96,1,t1.png,t1.png,0,0.97829,19,female,2020-09-10_19h49.15.214,torte-2b,2020.1.3,MacIntel,60,13298,0.321,,,,,,,,,,,,,,,,,,,,,,,,,,,,,,,,,,,,,,,,,,,,,,,,,,,,,,,,,,,,,,,,,
,,,,,,,,,,,,l,Incorrect,0,70,70,84,1,t1.png,t1.png,0,0.97829,19,female,2020-09-10_19h49.15.214,torte-2b,2020.1.3,MacIntel,60,13298,0.403,,,,,,,,,,,,,,,,,,,,,,,,,,,,,,,,,,,,,,,,,,,,,,,,,,,,,,,,,,,,,,,,,
,,,,,,,,,,,,a,Incorrect,0,71,71,117,1,t1.png,t5.png,4,9.55E-11,19,female,2020-09-10_19h49.15.214,torte-2b,2020.1.3,MacIntel,60,13298,0.349,,,,,,,,,,,,,,,,,,,,,,,,,,,,,,,,,,,,,,,,,,,,,,,,,,,,,,,,,,,,,,,,,
,,,,,,,,,,,,a,Incorrect,0,72,72,55,1,t2.png,t4.png,2,0.059078,19,female,2020-09-10_19h49.15.214,torte-2b,2020.1.3,MacIntel,60,13298,0.305,,,,,,,,,,,,,,,,,,,,,,,,,,,,,,,,,,,,,,,,,,,,,,,,,,,,,,,,,,,,,,,,,
,,,,,,,,,,,,a,Correct!,0,73,73,97,1,t5.png,t5.png,0,0.97829,19,female,2020-09-10_19h49.15.214,torte-2b,2020.1.3,MacIntel,60,13298,0.049,,,,,,,,,,,,,,,,,,,,,,,,,,,,,,,,,,,,,,,,,,,,,,,,,,,,,,,,,,,,,,,,,
,,,,,,,,,,,,l,Correct!,0,74,74,35,1,t1.png,t4.png,3,0.0000131,19,female,2020-09-10_19h49.15.214,torte-2b,2020.1.3,MacIntel,60,13298,0.016,,,,,,,,,,,,,,,,,,,,,,,,,,,,,,,,,,,,,,,,,,,,,,,,,,,,,,,,,,,,,,,,,
,,,,,,,,,,,,l,Correct!,0,75,75,103,1,t3.png,t1.png,2,0.056466,19,female,2020-09-10_19h49.15.214,torte-2b,2020.1.3,MacIntel,60,13298,0.021,,,,,,,,,,,,,,,,,,,,,,,,,,,,,,,,,,,,,,,,,,,,,,,,,,,,,,,,,,,,,,,,,
,,,,,,,,,,,,l,Correct!,0,76,76,50,1,t5.png,t1.png,4,9.55E-11,19,female,2020-09-10_19h49.15.214,torte-2b,2020.1.3,MacIntel,60,13298,0.165,,,,,,,,,,,,,,,,,,,,,,,,,,,,,,,,,,,,,,,,,,,,,,,,,,,,,,,,,,,,,,,,,
,,,,,,,,,,,,l,Correct!,0,77,77,3,1,t1.png,t5.png,4,9.55E-11,19,female,2020-09-10_19h49.15.214,torte-2b,2020.1.3,MacIntel,60,13298,0.353,,,,,,,,,,,,,,,,,,,,,,,,,,,,,,,,,,,,,,,,,,,,,,,,,,,,,,,,,,,,,,,,,
,,,,,,,,,,,,l,Incorrect,0,78,78,29,1,t5.png,t5.png,0,0.97829,19,female,2020-09-10_19h49.15.214,torte-2b,2020.1.3,MacIntel,60,13298,0.301,,,,,,,,,,,,,,,,,,,,,,,,,,,,,,,,,,,,,,,,,,,,,,,,,,,,,,,,,,,,,,,,,
,,,,,,,,,,,,a,Incorrect,0,79,79,39,1,t3.png,t2.png,1,0.90855,19,female,2020-09-10_19h49.15.214,torte-2b,2020.1.3,MacIntel,60,13298,0.27,,,,,,,,,,,,,,,,,,,,,,,,,,,,,,,,,,,,,,,,,,,,,,,,,,,,,,,,,,,,,,,,,
,,,,,,,,,,,,a,Incorrect,0,80,80,27,1,t3.png,t1.png,2,0.0565,19,female,2020-09-10_19h49.15.214,torte-2b,2020.1.3,MacIntel,60,13298,0.32,,,,,,,,,,,,,,,,,,,,,,,,,,,,,,,,,,,,,,,,,,,,,,,,,,,,,,,,,,,,,,,,,
,,,,,,,,,,,,a,Correct!,0,81,81,7,1,t4.png,t5.png,1,0.90025,19,female,2020-09-10_19h49.15.214,torte-2b,2020.1.3,MacIntel,60,13298,0.235,,,,,,,,,,,,,,,,,,,,,,,,,,,,,,,,,,,,,,,,,,,,,,,,,,,,,,,,,,,,,,,,,
,,,,,,,,,,,,a,Correct!,0,82,82,76,1,t3.png,t2.png,1,0.90855,19,female,2020-09-10_19h49.15.214,torte-2b,2020.1.3,MacIntel,60,13298,0.383,,,,,,,,,,,,,,,,,,,,,,,,,,,,,,,,,,,,,,,,,,,,,,,,,,,,,,,,,,,,,,,,,
,,,,,,,,,,,,a,Incorrect,0,83,83,98,1,t2.png,t4.png,2,0.0591,19,female,2020-09-10_19h49.15.214,torte-2b,2020.1.3,MacIntel,60,13298,0.301,,,,,,,,,,,,,,,,,,,,,,,,,,,,,,,,,,,,,,,,,,,,,,,,,,,,,,,,,,,,,,,,,
,,,,,,,,,,,,a,Incorrect,0,84,84,72,1,t4.png,t2.png,2,0.059078,19,female,2020-09-10_19h49.15.214,torte-2b,2020.1.3,MacIntel,60,13298,0.269,,,,,,,,,,,,,,,,,,,,,,,,,,,,,,,,,,,,,,,,,,,,,,,,,,,,,,,,,,,,,,,,,
,,,,,,,,,,,,l,Incorrect,0,85,85,32,1,t4.png,t5.png,1,0.90025,19,female,2020-09-10_19h49.15.214,torte-2b,2020.1.3,MacIntel,60,13298,0.369,,,,,,,,,,,,,,,,,,,,,,,,,,,,,,,,,,,,,,,,,,,,,,,,,,,,,,,,,,,,,,,,,
,,,,,,,,,,,,a,Correct!,0,86,86,62,1,t5.png,t5.png,0,0.978,19,female,2020-09-10_19h49.15.214,torte-2b,2020.1.3,MacIntel,60,13298,0.499,,,,,,,,,,,,,,,,,,,,,,,,,,,,,,,,,,,,,,,,,,,,,,,,,,,,,,,,,,,,,,,,,
,,,,,,,,,,,,a,Incorrect,0,87,87,119,1,t1.png,t5.png,4,9.55E-11,19,female,2020-09-10_19h49.15.214,torte-2b,2020.1.3,MacIntel,60,13298,0.665,,,,,,,,,,,,,,,,,,,,,,,,,,,,,,,,,,,,,,,,,,,,,,,,,,,,,,,,,,,,,,,,,
,,,,,,,,,,,,l,Correct!,0,88,88,5,1,t2.png,t4.png,2,0.059078,19,female,2020-09-10_19h49.15.214,torte-2b,2020.1.3,MacIntel,60,13298,0.437,,,,,,,,,,,,,,,,,,,,,,,,,,,,,,,,,,,,,,,,,,,,,,,,,,,,,,,,,,,,,,,,,
,,,,,,,,,,,,l,Correct!,0,89,89,99,1,t1.png,t5.png,4,9.55E-11,19,female,2020-09-10_19h49.15.214,torte-2b,2020.1.3,MacIntel,60,13298,0.632,,,,,,,,,,,,,,,,,,,,,,,,,,,,,,,,,,,,,,,,,,,,,,,,,,,,,,,,,,,,,,,,,
,,,,,,,,,,,,,Too slow :(,0,90,90,83,1,t3.png,t1.png,2,0.056466,19,female,2020-09-10_19h49.15.214,torte-2b,2020.1.3,MacIntel,60,13298,,,,,,,,,,,,,,,,,,,,,,,,,,,,,,,,,,,,,,,,,,,,,,,,,,,,,,,,,,,,,,,,,,
,,,,,,,,,,,,l,Correct!,0,91,91,51,1,t3.png,t1.png,2,0.056466,19,female,2020-09-10_19h49.15.214,torte-2b,2020.1.3,MacIntel,60,13298,0.383,,,,,,,,,,,,,,,,,,,,,,,,,,,,,,,,,,,,,,,,,,,,,,,,,,,,,,,,,,,,,,,,,
,,,,,,,,,,,,l,Correct!,0,92,92,53,1,t3.png,t1.png,2,0.056466,19,female,2020-09-10_19h49.15.214,torte-2b,2020.1.3,MacIntel,60,13298,0.398,,,,,,,,,,,,,,,,,,,,,,,,,,,,,,,,,,,,,,,,,,,,,,,,,,,,,,,,,,,,,,,,,
,,,,,,,,,,,,a,Incorrect,0,93,93,67,1,t1.png,t5.png,4,9.55E-11,19,female,2020-09-10_19h49.15.214,torte-2b,2020.1.3,MacIntel,60,13298,0.32,,,,,,,,,,,,,,,,,,,,,,,,,,,,,,,,,,,,,,,,,,,,,,,,,,,,,,,,,,,,,,,,,
,,,,,,,,,,,,l,Correct!,0,94,94,16,1,t5.png,t4.png,1,0.9,19,female,2020-09-10_19h49.15.214,torte-2b,2020.1.3,MacIntel,60,13298,0.419,,,,,,,,,,,,,,,,,,,,,,,,,,,,,,,,,,,,,,,,,,,,,,,,,,,,,,,,,,,,,,,,,
,,,,,,,,,,,,l,Incorrect,0,95,95,28,1,t2.png,t3.png,1,0.909,19,female,2020-09-10_19h49.15.214,torte-2b,2020.1.3,MacIntel,60,13298,0.404,,,,,,,,,,,,,,,,,,,,,,,,,,,,,,,,,,,,,,,,,,,,,,,,,,,,,,,,,,,,,,,,,
,,,,,,,,,,,,l,Correct!,0,96,96,26,1,t4.png,t2.png,2,0.0591,19,female,2020-09-10_19h49.15.214,torte-2b,2020.1.3,MacIntel,60,13298,0.532,,,,,,,,,,,,,,,,,,,,,,,,,,,,,,,,,,,,,,,,,,,,,,,,,,,,,,,,,,,,,,,,,
,,,,,,,,,,,,a,Correct!,0,97,97,114,1,t2.png,t3.png,1,0.90855,19,female,2020-09-10_19h49.15.214,torte-2b,2020.1.3,MacIntel,60,13298,1.617,,,,,,,,,,,,,,,,,,,,,,,,,,,,,,,,,,,,,,,,,,,,,,,,,,,,,,,,,,,,,,,,,
,,,,,,,,,,,,a,Correct!,0,98,98,25,1,t5.png,t5.png,0,0.97829,19,female,2020-09-10_19h49.15.214,torte-2b,2020.1.3,MacIntel,60,13298,1.285,,,,,,,,,,,,,,,,,,,,,,,,,,,,,,,,,,,,,,,,,,,,,,,,,,,,,,,,,,,,,,,,,
,,,,,,,,,,,,l,Correct!,0,99,99,102,1,t4.png,t2.png,2,0.059078,19,female,2020-09-10_19h49.15.214,torte-2b,2020.1.3,MacIntel,60,13298,1.565,,,,,,,,,,,,,,,,,,,,,,,,,,,,,,,,,,,,,,,,,,,,,,,,,,,,,,,,,,,,,,,,,
,,,,,,,,,,,,a,Incorrect,0,100,100,23,1,t5.png,t4.png,1,0.90025,19,female,2020-09-10_19h49.15.214,torte-2b,2020.1.3,MacIntel,60,13298,0.669,,,,,,,,,,,,,,,,,,,,,,,,,,,,,,,,,,,,,,,,,,,,,,,,,,,,,,,,,,,,,,,,,
,,,,,,,,,,,,l,Correct!,0,101,101,91,1,t1.png,t4.png,3,0.0000131,19,female,2020-09-10_19h49.15.214,torte-2b,2020.1.3,MacIntel,60,13298,0.983,,,,,,,,,,,,,,,,,,,,,,,,,,,,,,,,,,,,,,,,,,,,,,,,,,,,,,,,,,,,,,,,,
,,,,,,,,,,,,l,Correct!,0,102,102,82,1,t5.png,t1.png,4,9.55E-11,19,female,2020-09-10_19h49.15.214,torte-2b,2020.1.3,MacIntel,60,13298,0.815,,,,,,,,,,,,,,,,,,,,,,,,,,,,,,,,,,,,,,,,,,,,,,,,,,,,,,,,,,,,,,,,,
,,,,,,,,,,,,l,Correct!,0,103,103,87,1,t5.png,t1.png,4,9.55E-11,19,female,2020-09-10_19h49.15.214,torte-2b,2020.1.3,MacIntel,60,13298,0.704,,,,,,,,,,,,,,,,,,,,,,,,,,,,,,,,,,,,,,,,,,,,,,,,,,,,,,,,,,,,,,,,,
,,,,,,,,,,,,l,Correct!,0,104,104,0,1,t5.png,t1.png,4,9.55E-11,19,female,2020-09-10_19h49.15.214,torte-2b,2020.1.3,MacIntel,60,13298,0.638,,,,,,,,,,,,,,,,,,,,,,,,,,,,,,,,,,,,,,,,,,,,,,,,,,,,,,,,,,,,,,,,,
,,,,,,,,,,,,a,Incorrect,0,105,105,60,1,t2.png,t4.png,2,0.059078,19,female,2020-09-10_19h49.15.214,torte-2b,2020.1.3,MacIntel,60,13298,1.165,,,,,,,,,,,,,,,,,,,,,,,,,,,,,,,,,,,,,,,,,,,,,,,,,,,,,,,,,,,,,,,,,
,,,,,,,,,,,,l,Correct!,0,106,106,61,1,t1.png,t4.png,3,0.0000131,19,female,2020-09-10_19h49.15.214,torte-2b,2020.1.3,MacIntel,60,13298,0.631,,,,,,,,,,,,,,,,,,,,,,,,,,,,,,,,,,,,,,,,,,,,,,,,,,,,,,,,,,,,,,,,,
,,,,,,,,,,,,a,Correct!,0,107,107,70,1,t5.png,t5.png,0,0.978,19,female,2020-09-10_19h49.15.214,torte-2b,2020.1.3,MacIntel,60,13298,0.798,,,,,,,,,,,,,,,,,,,,,,,,,,,,,,,,,,,,,,,,,,,,,,,,,,,,,,,,,,,,,,,,,
,,,,,,,,,,,,a,Correct!,0,108,108,48,1,t5.png,t5.png,0,0.97829,19,female,2020-09-10_19h49.15.214,torte-2b,2020.1.3,MacIntel,60,13298,0.602,,,,,,,,,,,,,,,,,,,,,,,,,,,,,,,,,,,,,,,,,,,,,,,,,,,,,,,,,,,,,,,,,
,,,,,,,,,,,,a,Correct!,0,109,109,109,1,t5.png,t5.png,0,0.97829,19,female,2020-09-10_19h49.15.214,torte-2b,2020.1.3,MacIntel,60,13298,0.805,,,,,,,,,,,,,,,,,,,,,,,,,,,,,,,,,,,,,,,,,,,,,,,,,,,,,,,,,,,,,,,,,
,,,,,,,,,,,,a,Correct!,0,110,110,118,1,t5.png,t5.png,0,0.978,19,female,2020-09-10_19h49.15.214,torte-2b,2020.1.3,MacIntel,60,13298,0.738,,,,,,,,,,,,,,,,,,,,,,,,,,,,,,,,,,,,,,,,,,,,,,,,,,,,,,,,,,,,,,,,,
,,,,,,,,,,,,a,Correct!,0,111,111,59,1,t5.png,t4.png,1,0.9,19,female,2020-09-10_19h49.15.214,torte-2b,2020.1.3,MacIntel,60,13298,0.617,,,,,,,,,,,,,,,,,,,,,,,,,,,,,,,,,,,,,,,,,,,,,,,,,,,,,,,,,,,,,,,,,
,,,,,,,,,,,,l,Correct!,0,112,112,12,1,t5.png,t1.png,4,9.55E-11,19,female,2020-09-10_19h49.15.214,torte-2b,2020.1.3,MacIntel,60,13298,0.698,,,,,,,,,,,,,,,,,,,,,,,,,,,,,,,,,,,,,,,,,,,,,,,,,,,,,,,,,,,,,,,,,
,,,,,,,,,,,,l,Incorrect,0,113,113,95,1,t1.png,t1.png,0,0.978,19,female,2020-09-10_19h49.15.214,torte-2b,2020.1.3,MacIntel,60,13298,0.97,,,,,,,,,,,,,,,,,,,,,,,,,,,,,,,,,,,,,,,,,,,,,,,,,,,,,,,,,,,,,,,,,
,,,,,,,,,,,,a,Correct!,0,114,114,71,1,t5.png,t5.png,0,0.97829,19,female,2020-09-10_19h49.15.214,torte-2b,2020.1.3,MacIntel,60,13298,0.569,,,,,,,,,,,,,,,,,,,,,,,,,,,,,,,,,,,,,,,,,,,,,,,,,,,,,,,,,,,,,,,,,
,,,,,,,,,,,,a,Correct!,0,115,115,106,1,t2.png,t3.png,1,0.90855,19,female,2020-09-10_19h49.15.214,torte-2b,2020.1.3,MacIntel,60,13298,1.348,,,,,,,,,,,,,,,,,,,,,,,,,,,,,,,,,,,,,,,,,,,,,,,,,,,,,,,,,,,,,,,,,
,,,,,,,,,,,,a,Incorrect,0,116,116,69,1,t4.png,t2.png,2,0.059078,19,female,2020-09-10_19h49.15.214,torte-2b,2020.1.3,MacIntel,60,13298,0.697,,,,,,,,,,,,,,,,,,,,,,,,,,,,,,,,,,,,,,,,,,,,,,,,,,,,,,,,,,,,,,,,,
,,,,,,,,,,,,a,Incorrect,0,117,117,37,1,t1.png,t4.png,3,0.0000131,19,female,2020-09-10_19h49.15.214,torte-2b,2020.1.3,MacIntel,60,13298,1.515,,,,,,,,,,,,,,,,,,,,,,,,,,,,,,,,,,,,,,,,,,,,,,,,,,,,,,,,,,,,,,,,,
,,,,,,,,,,,,a,Incorrect,0,118,118,57,1,t2.png,t4.png,2,0.059078,19,female,2020-09-10_19h49.15.214,torte-2b,2020.1.3,MacIntel,60,13298,1.369,,,,,,,,,,,,,,,,,,,,,,,,,,,,,,,,,,,,,,,,,,,,,,,,,,,,,,,,,,,,,,,,,
,,,,,,,,,,,,a,Correct!,0,119,119,78,1,t1.png,t1.png,0,0.978,19,female,2020-09-10_19h49.15.214,torte-2b,2020.1.3,MacIntel,60,13298,0.881,,,,,,,,,,,,,,,,,,,,,,,,,,,,,,,,,,,,,,,,,,,,,,,,,,,,,,,,,,,,,,,,,
,,,,,,,,,,,,a,Incorrect,,,,,,t5.png,t3.png,2,0.056466,19,female,2020-09-10_19h49.15.214,torte-2b,2020.1.3,MacIntel,60,13298,0.902,space,1.527,space,5.673,0,0,0,108,1,,,,,,,,,,,,,,,,,,,,,,,,,,,,,,,,,,,,,,,,,,,,,,,,,,,,,,,,
,,,,,,,,,,,,,Too slow :(,,,,,,t5.png,t2.png,3,0.0000131,19,female,2020-09-10_19h49.15.214,torte-2b,2020.1.3,MacIntel,60,13298,,,,,,0,1,1,119,1,,,,,,,,,,,,,,,,,,,,,,,,,,,,,,,,,,,,,,,,,,,,,,,,,,,,,,,,
,,,,,,,,,,,,l,Correct!,,,,,,t1.png,t5.png,4,9.55E-11,19,female,2020-09-10_19h49.15.214,torte-2b,2020.1.3,MacIntel,60,13298,1.097,,,,,0,2,2,12,1,,,,,,,,,,,,,,,,,,,,,,,,,,,,,,,,,,,,,,,,,,,,,,,,,,,,,,,,
,,,,,,,,,,,,l,Correct!,,,,,,t1.png,t3.png,2,0.056466,19,female,2020-09-10_19h49.15.214,torte-2b,2020.1.3,MacIntel,60,13298,0.479,,,,,0,3,3,99,1,,,,,,,,,,,,,,,,,,,,,,,,,,,,,,,,,,,,,,,,,,,,,,,,,,,,,,,,
,,,,,,,,,,,,a,Correct!,,,,,,t5.png,t4.png,1,0.90025,19,female,2020-09-10_19h49.15.214,torte-2b,2020.1.3,MacIntel,60,13298,1.199,,,,,0,4,4,34,1,,,,,,,,,,,,,,,,,,,,,,,,,,,,,,,,,,,,,,,,,,,,,,,,,,,,,,,,
,,,,,,,,,,,,a,Incorrect,,,,,,t1.png,t4.png,3,0.0000131,19,female,2020-09-10_19h49.15.214,torte-2b,2020.1.3,MacIntel,60,13298,1.784,,,,,0,5,5,50,1,,,,,,,,,,,,,,,,,,,,,,,,,,,,,,,,,,,,,,,,,,,,,,,,,,,,,,,,
,,,,,,,,,,,,l,Correct!,,,,,,t3.png,t1.png,2,0.056466,19,female,2020-09-10_19h49.15.214,torte-2b,2020.1.3,MacIntel,60,13298,0.617,,,,,0,6,6,32,1,,,,,,,,,,,,,,,,,,,,,,,,,,,,,,,,,,,,,,,,,,,,,,,,,,,,,,,,
,,,,,,,,,,,,l,Correct!,,,,,,t5.png,t1.png,4,9.55E-11,19,female,2020-09-10_19h49.15.214,torte-2b,2020.1.3,MacIntel,60,13298,1.3,,,,,0,7,7,100,1,,,,,,,,,,,,,,,,,,,,,,,,,,,,,,,,,,,,,,,,,,,,,,,,,,,,,,,,
,,,,,,,,,,,,a,Incorrect,,,,,,t3.png,t1.png,2,0.056466,19,female,2020-09-10_19h49.15.214,torte-2b,2020.1.3,MacIntel,60,13298,0.7,,,,,0,8,8,64,1,,,,,,,,,,,,,,,,,,,,,,,,,,,,,,,,,,,,,,,,,,,,,,,,,,,,,,,,
,,,,,,,,,,,,a,Correct!,,,,,,t1.png,t2.png,1,0.90025,19,female,2020-09-10_19h49.15.214,torte-2b,2020.1.3,MacIntel,60,13298,1.131,,,,,0,9,9,72,1,,,,,,,,,,,,,,,,,,,,,,,,,,,,,,,,,,,,,,,,,,,,,,,,,,,,,,,,
,,,,,,,,,,,,a,Incorrect,,,,,,t5.png,t3.png,2,0.056466,19,female,2020-09-10_19h49.15.214,torte-2b,2020.1.3,MacIntel,60,13298,1.216,,,,,0,10,10,38,1,,,,,,,,,,,,,,,,,,,,,,,,,,,,,,,,,,,,,,,,,,,,,,,,,,,,,,,,
,,,,,,,,,,,,a,Correct!,,,,,,t2.png,t1.png,1,0.90025,19,female,2020-09-10_19h49.15.214,torte-2b,2020.1.3,MacIntel,60,13298,1.02,,,,,0,11,11,4,1,,,,,,,,,,,,,,,,,,,,,,,,,,,,,,,,,,,,,,,,,,,,,,,,,,,,,,,,
,,,,,,,,,,,,a,Correct!,,,,,,t5.png,t4.png,1,0.9,19,female,2020-09-10_19h49.15.214,torte-2b,2020.1.3,MacIntel,60,13298,1.081,,,,,0,12,12,76,1,,,,,,,,,,,,,,,,,,,,,,,,,,,,,,,,,,,,,,,,,,,,,,,,,,,,,,,,
,,,,,,,,,,,,a,Correct!,,,,,,t2.png,t2.png,0,0.98115,19,female,2020-09-10_19h49.15.214,torte-2b,2020.1.3,MacIntel,60,13298,1.751,,,,,0,13,13,7,1,,,,,,,,,,,,,,,,,,,,,,,,,,,,,,,,,,,,,,,,,,,,,,,,,,,,,,,,
,,,,,,,,,,,,a,Incorrect,,,,,,t4.png,t1.png,3,0.0000131,19,female,2020-09-10_19h49.15.214,torte-2b,2020.1.3,MacIntel,60,13298,0.669,,,,,0,14,14,13,1,,,,,,,,,,,,,,,,,,,,,,,,,,,,,,,,,,,,,,,,,,,,,,,,,,,,,,,,
,,,,,,,,,,,,a,Incorrect,,,,,,t5.png,t2.png,3,0.0000131,19,female,2020-09-10_19h49.15.214,torte-2b,2020.1.3,MacIntel,60,13298,0.739,,,,,0,15,15,51,1,,,,,,,,,,,,,,,,,,,,,,,,,,,,,,,,,,,,,,,,,,,,,,,,,,,,,,,,
,,,,,,,,,,,,a,Correct!,,,,,,t5.png,t4.png,1,0.90025,19,female,2020-09-10_19h49.15.214,torte-2b,2020.1.3,MacIntel,60,13298,0.683,,,,,0,16,16,26,1,,,,,,,,,,,,,,,,,,,,,,,,,,,,,,,,,,,,,,,,,,,,,,,,,,,,,,,,
,,,,,,,,,,,,a,Incorrect,,,,,,t3.png,t1.png,2,0.056466,19,female,2020-09-10_19h49.15.214,torte-2b,2020.1.3,MacIntel,60,13298,0.672,,,,,0,17,17,0,1,,,,,,,,,,,,,,,,,,,,,,,,,,,,,,,,,,,,,,,,,,,,,,,,,,,,,,,,
,,,,,,,,,,,,l,Incorrect,,,,,,t2.png,t2.png,0,0.981,19,female,2020-09-10_19h49.15.214,torte-2b,2020.1.3,MacIntel,60,13298,0.853,,,,,0,18,18,101,1,,,,,,,,,,,,,,,,,,,,,,,,,,,,,,,,,,,,,,,,,,,,,,,,,,,,,,,,
,,,,,,,,,,,,a,Incorrect,,,,,,t5.png,t2.png,3,0.0000131,19,female,2020-09-10_19h49.15.214,torte-2b,2020.1.3,MacIntel,60,13298,0.603,,,,,0,19,19,116,1,,,,,,,,,,,,,,,,,,,,,,,,,,,,,,,,,,,,,,,,,,,,,,,,,,,,,,,,
,,,,,,,,,,,,a,Correct!,,,,,,t3.png,t4.png,1,0.90855,19,female,2020-09-10_19h49.15.214,torte-2b,2020.1.3,MacIntel,60,13298,0.749,,,,,0,20,20,84,1,,,,,,,,,,,,,,,,,,,,,,,,,,,,,,,,,,,,,,,,,,,,,,,,,,,,,,,,
,,,,,,,,,,,,a,Correct!,,,,,,t4.png,t3.png,1,0.909,19,female,2020-09-10_19h49.15.214,torte-2b,2020.1.3,MacIntel,60,13298,0.614,,,,,0,21,21,46,1,,,,,,,,,,,,,,,,,,,,,,,,,,,,,,,,,,,,,,,,,,,,,,,,,,,,,,,,
,,,,,,,,,,,,a,Correct!,,,,,,t5.png,t4.png,1,0.90025,19,female,2020-09-10_19h49.15.214,torte-2b,2020.1.3,MacIntel,60,13298,0.835,,,,,0,22,22,27,1,,,,,,,,,,,,,,,,,,,,,,,,,,,,,,,,,,,,,,,,,,,,,,,,,,,,,,,,
,,,,,,,,,,,,a,Incorrect,,,,,,t3.png,t1.png,2,0.056466,19,female,2020-09-10_19h49.15.214,torte-2b,2020.1.3,MacIntel,60,13298,0.504,,,,,0,23,23,29,1,,,,,,,,,,,,,,,,,,,,,,,,,,,,,,,,,,,,,,,,,,,,,,,,,,,,,,,,
,,,,,,,,,,,,a,Correct!,,,,,,t4.png,t3.png,1,0.90855,19,female,2020-09-10_19h49.15.214,torte-2b,2020.1.3,MacIntel,60,13298,0.548,,,,,0,24,24,75,1,,,,,,,,,,,,,,,,,,,,,,,,,,,,,,,,,,,,,,,,,,,,,,,,,,,,,,,,
,,,,,,,,,,,,a,Correct!,,,,,,t3.png,t2.png,1,0.90855,19,female,2020-09-10_19h49.15.214,torte-2b,2020.1.3,MacIntel,60,13298,0.481,,,,,0,25,25,18,1,,,,,,,,,,,,,,,,,,,,,,,,,,,,,,,,,,,,,,,,,,,,,,,,,,,,,,,,
,,,,,,,,,,,,a,Correct!,,,,,,t1.png,t1.png,0,0.978,19,female,2020-09-10_19h49.15.214,torte-2b,2020.1.3,MacIntel,60,13298,0.714,,,,,0,26,26,28,1,,,,,,,,,,,,,,,,,,,,,,,,,,,,,,,,,,,,,,,,,,,,,,,,,,,,,,,,
,,,,,,,,,,,,a,Incorrect,,,,,,t5.png,t2.png,3,0.0000131,19,female,2020-09-10_19h49.15.214,torte-2b,2020.1.3,MacIntel,60,13298,0.354,,,,,0,27,27,98,1,,,,,,,,,,,,,,,,,,,,,,,,,,,,,,,,,,,,,,,,,,,,,,,,,,,,,,,,
,,,,,,,,,,,,a,Correct!,,,,,,t4.png,t4.png,0,0.98115,19,female,2020-09-10_19h49.15.214,torte-2b,2020.1.3,MacIntel,60,13298,0.386,,,,,0,28,28,79,1,,,,,,,,,,,,,,,,,,,,,,,,,,,,,,,,,,,,,,,,,,,,,,,,,,,,,,,,
,,,,,,,,,,,,a,Correct!,,,,,,t4.png,t5.png,1,0.90025,19,female,2020-09-10_19h49.15.214,torte-2b,2020.1.3,MacIntel,60,13298,0.282,,,,,0,29,29,103,1,,,,,,,,,,,,,,,,,,,,,,,,,,,,,,,,,,,,,,,,,,,,,,,,,,,,,,,,
,,,,,,,,,,,,a,Correct!,,,,,,t4.png,t5.png,1,0.9,19,female,2020-09-10_19h49.15.214,torte-2b,2020.1.3,MacIntel,60,13298,0.498,,,,,0,30,30,115,1,,,,,,,,,,,,,,,,,,,,,,,,,,,,,,,,,,,,,,,,,,,,,,,,,,,,,,,,
,,,,,,,,,,,,a,Correct!,,,,,,t1.png,t2.png,1,0.90025,19,female,2020-09-10_19h49.15.214,torte-2b,2020.1.3,MacIntel,60,13298,0.32,,,,,0,31,31,33,1,,,,,,,,,,,,,,,,,,,,,,,,,,,,,,,,,,,,,,,,,,,,,,,,,,,,,,,,
,,,,,,,,,,,,a,Incorrect,,,,,,t3.png,t5.png,2,0.056466,19,female,2020-09-10_19h49.15.214,torte-2b,2020.1.3,MacIntel,60,13298,0.299,,,,,0,32,32,14,1,,,,,,,,,,,,,,,,,,,,,,,,,,,,,,,,,,,,,,,,,,,,,,,,,,,,,,,,
,,,,,,,,,,,,a,Correct!,,,,,,t5.png,t5.png,0,0.97829,19,female,2020-09-10_19h49.15.214,torte-2b,2020.1.3,MacIntel,60,13298,1.673,,,,,0,33,33,70,1,,,,,,,,,,,,,,,,,,,,,,,,,,,,,,,,,,,,,,,,,,,,,,,,,,,,,,,,
,,,,,,,,,,,,a,Incorrect,,,,,,t4.png,t1.png,3,0.0000131,19,female,2020-09-10_19h49.15.214,torte-2b,2020.1.3,MacIntel,60,13298,0.281,,,,,0,34,34,48,1,,,,,,,,,,,,,,,,,,,,,,,,,,,,,,,,,,,,,,,,,,,,,,,,,,,,,,,,
,,,,,,,,,,,,l,Correct!,,,,,,t5.png,t2.png,3,0.0000131,19,female,2020-09-10_19h49.15.214,torte-2b,2020.1.3,MacIntel,60,13298,0.367,,,,,0,35,35,91,1,,,,,,,,,,,,,,,,,,,,,,,,,,,,,,,,,,,,,,,,,,,,,,,,,,,,,,,,
,,,,,,,,,,,,l,Correct!,,,,,,t1.png,t5.png,4,9.55E-11,19,female,2020-09-10_19h49.15.214,torte-2b,2020.1.3,MacIntel,60,13298,0.3,,,,,0,36,36,16,1,,,,,,,,,,,,,,,,,,,,,,,,,,,,,,,,,,,,,,,,,,,,,,,,,,,,,,,,
,,,,,,,,,,,,l,Correct!,,,,,,t4.png,t1.png,3,0.0000131,19,female,2020-09-10_19h49.15.214,torte-2b,2020.1.3,MacIntel,60,13298,0.316,,,,,0,37,37,42,1,,,,,,,,,,,,,,,,,,,,,,,,,,,,,,,,,,,,,,,,,,,,,,,,,,,,,,,,
,,,,,,,,,,,,l,Correct!,,,,,,t1.png,t5.png,4,9.55E-11,19,female,2020-09-10_19h49.15.214,torte-2b,2020.1.3,MacIntel,60,13298,0.304,,,,,0,38,38,85,1,,,,,,,,,,,,,,,,,,,,,,,,,,,,,,,,,,,,,,,,,,,,,,,,,,,,,,,,
,,,,,,,,,,,,l,Incorrect,,,,,,t1.png,t1.png,0,0.97829,19,female,2020-09-10_19h49.15.214,torte-2b,2020.1.3,MacIntel,60,13298,0.314,,,,,0,39,39,9,1,,,,,,,,,,,,,,,,,,,,,,,,,,,,,,,,,,,,,,,,,,,,,,,,,,,,,,,,
,,,,,,,,,,,,l,Correct!,,,,,,t2.png,t5.png,3,0.0000131,19,female,2020-09-10_19h49.15.214,torte-2b,2020.1.3,MacIntel,60,13298,0.438,,,,,0,40,40,40,1,,,,,,,,,,,,,,,,,,,,,,,,,,,,,,,,,,,,,,,,,,,,,,,,,,,,,,,,
,,,,,,,,,,,,a,Incorrect,,,,,,t2.png,t4.png,2,0.059078,19,female,2020-09-10_19h49.15.214,torte-2b,2020.1.3,MacIntel,60,13298,0.289,,,,,0,41,41,77,1,,,,,,,,,,,,,,,,,,,,,,,,,,,,,,,,,,,,,,,,,,,,,,,,,,,,,,,,
,,,,,,,,,,,,l,Correct!,,,,,,t2.png,t4.png,2,0.059078,19,female,2020-09-10_19h49.15.214,torte-2b,2020.1.3,MacIntel,60,13298,0.273,,,,,0,42,42,24,1,,,,,,,,,,,,,,,,,,,,,,,,,,,,,,,,,,,,,,,,,,,,,,,,,,,,,,,,
,,,,,,,,,,,,l,Correct!,,,,,,t2.png,t4.png,2,0.059078,19,female,2020-09-10_19h49.15.214,torte-2b,2020.1.3,MacIntel,60,13298,0.484,,,,,0,43,43,37,1,,,,,,,,,,,,,,,,,,,,,,,,,,,,,,,,,,,,,,,,,,,,,,,,,,,,,,,,
,,,,,,,,,,,,l,Correct!,,,,,,t4.png,t2.png,2,0.059078,19,female,2020-09-10_19h49.15.214,torte-2b,2020.1.3,MacIntel,60,13298,0.983,,,,,0,44,44,86,1,,,,,,,,,,,,,,,,,,,,,,,,,,,,,,,,,,,,,,,,,,,,,,,,,,,,,,,,
,,,,,,,,,,,,l,Incorrect,,,,,,t4.png,t3.png,1,0.90855,19,female,2020-09-10_19h49.15.214,torte-2b,2020.1.3,MacIntel,60,13298,1.301,,,,,0,45,45,45,1,,,,,,,,,,,,,,,,,,,,,,,,,,,,,,,,,,,,,,,,,,,,,,,,,,,,,,,,
,,,,,,,,,,,,l,Correct!,,,,,,t4.png,t2.png,2,0.059078,19,female,2020-09-10_19h49.15.214,torte-2b,2020.1.3,MacIntel,60,13298,0.505,,,,,0,46,46,109,1,,,,,,,,,,,,,,,,,,,,,,,,,,,,,,,,,,,,,,,,,,,,,,,,,,,,,,,,
,,,,,,,,,,,,l,Correct!,,,,,,t3.png,t5.png,2,0.0565,19,female,2020-09-10_19h49.15.214,torte-2b,2020.1.3,MacIntel,60,13298,1.536,,,,,0,47,47,83,1,,,,,,,,,,,,,,,,,,,,,,,,,,,,,,,,,,,,,,,,,,,,,,,,,,,,,,,,
,,,,,,,,,,,,,Too slow :(,,,,,,t1.png,t5.png,4,9.55E-11,19,female,2020-09-10_19h49.15.214,torte-2b,2020.1.3,MacIntel,60,13298,,,,,,0,48,48,55,1,,,,,,,,,,,,,,,,,,,,,,,,,,,,,,,,,,,,,,,,,,,,,,,,,,,,,,,,
,,,,,,,,,,,,l,Correct!,,,,,,t1.png,t3.png,2,0.056466,19,female,2020-09-10_19h49.15.214,torte-2b,2020.1.3,MacIntel,60,13298,0.889,,,,,0,49,49,69,1,,,,,,,,,,,,,,,,,,,,,,,,,,,,,,,,,,,,,,,,,,,,,,,,,,,,,,,,
,,,,,,,,,,,,,Too slow :(,,,,,,t3.png,t2.png,1,0.90855,19,female,2020-09-10_19h49.15.214,torte-2b,2020.1.3,MacIntel,60,13298,,,,,,0,50,50,97,1,,,,,,,,,,,,,,,,,,,,,,,,,,,,,,,,,,,,,,,,,,,,,,,,,,,,,,,,
,,,,,,,,,,,,a,Incorrect,,,,,,t1.png,t3.png,2,0.056466,19,female,2020-09-10_19h49.15.214,torte-2b,2020.1.3,MacIntel,60,13298,0.348,,,,,0,51,51,60,1,,,,,,,,,,,,,,,,,,,,,,,,,,,,,,,,,,,,,,,,,,,,,,,,,,,,,,,,
,,,,,,,,,,,,a,Correct!,,,,,,t2.png,t4.png,2,0.0591,19,female,2020-09-10_19h49.15.214,torte-2b,2020.1.3,MacIntel,60,13298,0.264,,,,,0,52,52,15,1,,,,,,,,,,,,,,,,,,,,,,,,,,,,,,,,,,,,,,,,,,,,,,,,,,,,,,,,
,,,,,,,,,,,,a,Correct!,,,,,,t3.png,t2.png,1,0.909,19,female,2020-09-10_19h49.15.214,torte-2b,2020.1.3,MacIntel,60,13298,0.303,,,,,0,53,53,3,1,,,,,,,,,,,,,,,,,,,,,,,,,,,,,,,,,,,,,,,,,,,,,,,,,,,,,,,,
,,,,,,,,,,,,l,Correct!,,,,,,t2.png,t5.png,3,0.0000131,19,female,2020-09-10_19h49.15.214,torte-2b,2020.1.3,MacIntel,60,13298,0.415,,,,,0,54,54,104,1,,,,,,,,,,,,,,,,,,,,,,,,,,,,,,,,,,,,,,,,,,,,,,,,,,,,,,,,
,,,,,,,,,,,,a,Incorrect,,,,,,t4.png,t1.png,3,0.0000131,19,female,2020-09-10_19h49.15.214,torte-2b,2020.1.3,MacIntel,60,13298,0.317,,,,,0,55,55,93,1,,,,,,,,,,,,,,,,,,,,,,,,,,,,,,,,,,,,,,,,,,,,,,,,,,,,,,,,
,,,,,,,,,,,,a,Correct!,,,,,,t1.png,t2.png,1,0.90025,19,female,2020-09-10_19h49.15.214,torte-2b,2020.1.3,MacIntel,60,13298,0.265,,,,,0,56,56,105,1,,,,,,,,,,,,,,,,,,,,,,,,,,,,,,,,,,,,,,,,,,,,,,,,,,,,,,,,
,,,,,,,,,,,,l,Correct!,,,,,,t5.png,t3.png,2,0.056466,19,female,2020-09-10_19h49.15.214,torte-2b,2020.1.3,MacIntel,60,13298,0.302,,,,,0,57,57,56,1,,,,,,,,,,,,,,,,,,,,,,,,,,,,,,,,,,,,,,,,,,,,,,,,,,,,,,,,
,,,,,,,,,,,,l,Incorrect,,,,,,t2.png,t3.png,1,0.90855,19,female,2020-09-10_19h49.15.214,torte-2b,2020.1.3,MacIntel,60,13298,0.331,,,,,0,58,58,111,1,,,,,,,,,,,,,,,,,,,,,,,,,,,,,,,,,,,,,,,,,,,,,,,,,,,,,,,,
,,,,,,,,,,,,a,Correct!,,,,,,t2.png,t3.png,1,0.90855,19,female,2020-09-10_19h49.15.214,torte-2b,2020.1.3,MacIntel,60,13298,0.252,,,,,0,59,59,10,1,,,,,,,,,,,,,,,,,,,,,,,,,,,,,,,,,,,,,,,,,,,,,,,,,,,,,,,,
,,,,,,,,,,,,l,Correct!,,,,,,t2.png,t5.png,3,0.0000131,19,female,2020-09-10_19h49.15.214,torte-2b,2020.1.3,MacIntel,60,13298,0.303,,,,,0,60,60,66,1,,,,,,,,,,,,,,,,,,,,,,,,,,,,,,,,,,,,,,,,,,,,,,,,,,,,,,,,
,,,,,,,,,,,,l,Correct!,,,,,,t1.png,t3.png,2,0.056466,19,female,2020-09-10_19h49.15.214,torte-2b,2020.1.3,MacIntel,60,13298,0.207,,,,,0,61,61,63,1,,,,,,,,,,,,,,,,,,,,,,,,,,,,,,,,,,,,,,,,,,,,,,,,,,,,,,,,
,,,,,,,,,,,,a,Incorrect,,,,,,t3.png,t5.png,2,0.056466,19,female,2020-09-10_19h49.15.214,torte-2b,2020.1.3,MacIntel,60,13298,0.316,,,,,0,62,62,6,1,,,,,,,,,,,,,,,,,,,,,,,,,,,,,,,,,,,,,,,,,,,,,,,,,,,,,,,,
,,,,,,,,,,,,l,Incorrect,,,,,,t3.png,t4.png,1,0.909,19,female,2020-09-10_19h49.15.214,torte-2b,2020.1.3,MacIntel,60,13298,0.271,,,,,0,63,63,106,1,,,,,,,,,,,,,,,,,,,,,,,,,,,,,,,,,,,,,,,,,,,,,,,,,,,,,,,,
,,,,,,,,,,,,l,Incorrect,,,,,,t3.png,t2.png,1,0.909,19,female,2020-09-10_19h49.15.214,torte-2b,2020.1.3,MacIntel,60,13298,0.299,,,,,0,64,64,23,1,,,,,,,,,,,,,,,,,,,,,,,,,,,,,,,,,,,,,,,,,,,,,,,,,,,,,,,,
,,,,,,,,,,,,a,Correct!,,,,,,t5.png,t5.png,0,0.97829,19,female,2020-09-10_19h49.15.214,torte-2b,2020.1.3,MacIntel,60,13298,0.597,,,,,0,65,65,25,1,,,,,,,,,,,,,,,,,,,,,,,,,,,,,,,,,,,,,,,,,,,,,,,,,,,,,,,,
,,,,,,,,,,,,l,Correct!,,,,,,t5.png,t1.png,4,9.55E-11,19,female,2020-09-10_19h49.15.214,torte-2b,2020.1.3,MacIntel,60,13298,0.35,,,,,0,66,66,102,1,,,,,,,,,,,,,,,,,,,,,,,,,,,,,,,,,,,,,,,,,,,,,,,,,,,,,,,,
,,,,,,,,,,,,l,Correct!,,,,,,t4.png,t3.png,1,0.909,19,female,2020-09-10_19h49.15.214,torte-2b,2020.1.3,MacIntel,60,13298,0.356,,,,,0,67,67,20,1,,,,,,,,,,,,,,,,,,,,,,,,,,,,,,,,,,,,,,,,,,,,,,,,,,,,,,,,
,,,,,,,,,,,,l,Incorrect,,,,,,t5.png,t5.png,0,0.97829,19,female,2020-09-10_19h49.15.214,torte-2b,2020.1.3,MacIntel,60,13298,0.499,,,,,0,68,68,73,1,,,,,,,,,,,,,,,,,,,,,,,,,,,,,,,,,,,,,,,,,,,,,,,,,,,,,,,,
,,,,,,,,,,,,l,Correct!,,,,,,t3.png,t5.png,2,0.0565,19,female,2020-09-10_19h49.15.214,torte-2b,2020.1.3,MacIntel,60,13298,0.451,,,,,0,69,69,30,1,,,,,,,,,,,,,,,,,,,,,,,,,,,,,,,,,,,,,,,,,,,,,,,,,,,,,,,,
,,,,,,,,,,,,l,Correct!,,,,,,t2.png,t3.png,1,0.90855,19,female,2020-09-10_19h49.15.214,torte-2b,2020.1.3,MacIntel,60,13298,0.416,,,,,0,70,70,68,1,,,,,,,,,,,,,,,,,,,,,,,,,,,,,,,,,,,,,,,,,,,,,,,,,,,,,,,,
,,,,,,,,,,,,l,Incorrect,,,,,,t5.png,t5.png,0,0.97829,19,female,2020-09-10_19h49.15.214,torte-2b,2020.1.3,MacIntel,60,13298,0.548,,,,,0,71,71,94,1,,,,,,,,,,,,,,,,,,,,,,,,,,,,,,,,,,,,,,,,,,,,,,,,,,,,,,,,
,,,,,,,,,,,,a,Correct!,,,,,,t4.png,t4.png,0,0.98115,19,female,2020-09-10_19h49.15.214,torte-2b,2020.1.3,MacIntel,60,13298,0.299,,,,,0,72,72,21,1,,,,,,,,,,,,,,,,,,,,,,,,,,,,,,,,,,,,,,,,,,,,,,,,,,,,,,,,
,,,,,,,,,,,,l,Incorrect,,,,,,t1.png,t1.png,0,0.978,19,female,2020-09-10_19h49.15.214,torte-2b,2020.1.3,MacIntel,60,13298,0.454,,,,,0,73,73,54,1,,,,,,,,,,,,,,,,,,,,,,,,,,,,,,,,,,,,,,,,,,,,,,,,,,,,,,,,
,,,,,,,,,,,,a,Incorrect,,,,,,t3.png,t1.png,2,0.0565,19,female,2020-09-10_19h49.15.214,torte-2b,2020.1.3,MacIntel,60,13298,0.581,,,,,0,74,74,31,1,,,,,,,,,,,,,,,,,,,,,,,,,,,,,,,,,,,,,,,,,,,,,,,,,,,,,,,,
,,,,,,,,,,,,l,Correct!,,,,,,t5.png,t1.png,4,9.55E-11,19,female,2020-09-10_19h49.15.214,torte-2b,2020.1.3,MacIntel,60,13298,0.386,,,,,0,75,75,71,1,,,,,,,,,,,,,,,,,,,,,,,,,,,,,,,,,,,,,,,,,,,,,,,,,,,,,,,,
,,,,,,,,,,,,l,Incorrect,,,,,,t3.png,t2.png,1,0.90855,19,female,2020-09-10_19h49.15.214,torte-2b,2020.1.3,MacIntel,60,13298,0.47,,,,,0,76,76,53,1,,,,,,,,,,,,,,,,,,,,,,,,,,,,,,,,,,,,,,,,,,,,,,,,,,,,,,,,
,,,,,,,,,,,,l,Incorrect,,,,,,t3.png,t4.png,1,0.909,19,female,2020-09-10_19h49.15.214,torte-2b,2020.1.3,MacIntel,60,13298,0.388,,,,,0,77,77,82,1,,,,,,,,,,,,,,,,,,,,,,,,,,,,,,,,,,,,,,,,,,,,,,,,,,,,,,,,
,,,,,,,,,,,,a,Correct!,,,,,,t4.png,t4.png,0,0.98115,19,female,2020-09-10_19h49.15.214,torte-2b,2020.1.3,MacIntel,60,13298,0.281,,,,,0,78,78,80,1,,,,,,,,,,,,,,,,,,,,,,,,,,,,,,,,,,,,,,,,,,,,,,,,,,,,,,,,
,,,,,,,,,,,,a,Correct!,,,,,,t3.png,t4.png,1,0.909,19,female,2020-09-10_19h49.15.214,torte-2b,2020.1.3,MacIntel,60,13298,0.204,,,,,0,79,79,89,1,,,,,,,,,,,,,,,,,,,,,,,,,,,,,,,,,,,,,,,,,,,,,,,,,,,,,,,,
,,,,,,,,,,,,a,Correct!,,,,,,t4.png,t4.png,0,0.98115,19,female,2020-09-10_19h49.15.214,torte-2b,2020.1.3,MacIntel,60,13298,0.547,,,,,0,80,80,52,1,,,,,,,,,,,,,,,,,,,,,,,,,,,,,,,,,,,,,,,,,,,,,,,,,,,,,,,,
,,,,,,,,,,,,a,Incorrect,,,,,,t5.png,t3.png,2,0.056466,19,female,2020-09-10_19h49.15.214,torte-2b,2020.1.3,MacIntel,60,13298,1.203,,,,,0,81,81,114,1,,,,,,,,,,,,,,,,,,,,,,,,,,,,,,,,,,,,,,,,,,,,,,,,,,,,,,,,
,,,,,,,,,,,,l,Incorrect,,,,,,t3.png,t4.png,1,0.90855,19,female,2020-09-10_19h49.15.214,torte-2b,2020.1.3,MacIntel,60,13298,0.587,,,,,0,82,82,96,1,,,,,,,,,,,,,,,,,,,,,,,,,,,,,,,,,,,,,,,,,,,,,,,,,,,,,,,,
,,,,,,,,,,,,l,Incorrect,,,,,,t4.png,t4.png,0,0.98115,19,female,2020-09-10_19h49.15.214,torte-2b,2020.1.3,MacIntel,60,13298,0.519,,,,,0,83,83,90,1,,,,,,,,,,,,,,,,,,,,,,,,,,,,,,,,,,,,,,,,,,,,,,,,,,,,,,,,
,,,,,,,,,,,,l,Incorrect,,,,,,t2.png,t1.png,1,0.90025,19,female,2020-09-10_19h49.15.214,torte-2b,2020.1.3,MacIntel,60,13298,1.349,,,,,0,84,84,5,1,,,,,,,,,,,,,,,,,,,,,,,,,,,,,,,,,,,,,,,,,,,,,,,,,,,,,,,,
,,,,,,,,,,,,l,Incorrect,,,,,,t2.png,t1.png,1,0.9,19,female,2020-09-10_19h49.15.214,torte-2b,2020.1.3,MacIntel,60,13298,2.454,,,,,0,85,85,118,1,,,,,,,,,,,,,,,,,,,,,,,,,,,,,,,,,,,,,,,,,,,,,,,,,,,,,,,,
,,,,,,,,,,,,l,Incorrect,,,,,,t4.png,t5.png,1,0.90025,19,female,2020-09-10_19h49.15.214,torte-2b,2020.1.3,MacIntel,60,13298,0.416,,,,,0,86,86,58,1,,,,,,,,,,,,,,,,,,,,,,,,,,,,,,,,,,,,,,,,,,,,,,,,,,,,,,,,
,,,,,,,,,,,,l,Correct!,,,,,,t1.png,t4.png,3,0.0000131,19,female,2020-09-10_19h49.15.214,torte-2b,2020.1.3,MacIntel,60,13298,0.631,,,,,0,87,87,81,1,,,,,,,,,,,,,,,,,,,,,,,,,,,,,,,,,,,,,,,,,,,,,,,,,,,,,,,,
,,,,,,,,,,,,l,Incorrect,,,,,,t2.png,t3.png,1,0.90855,19,female,2020-09-10_19h49.15.214,torte-2b,2020.1.3,MacIntel,60,13298,0.508,,,,,0,88,88,65,1,,,,,,,,,,,,,,,,,,,,,,,,,,,,,,,,,,,,,,,,,,,,,,,,,,,,,,,,
,,,,,,,,,,,,l,Incorrect,,,,,,t1.png,t1.png,0,0.97829,19,female,2020-09-10_19h49.15.214,torte-2b,2020.1.3,MacIntel,60,13298,0.366,,,,,0,89,89,78,1,,,,,,,,,,,,,,,,,,,,,,,,,,,,,,,,,,,,,,,,,,,,,,,,,,,,,,,,
,,,,,,,,,,,,l,Correct!,,,,,,t2.png,t4.png,2,0.059078,19,female,2020-09-10_19h49.15.214,torte-2b,2020.1.3,MacIntel,60,13298,0.385,,,,,0,90,90,11,1,,,,,,,,,,,,,,,,,,,,,,,,,,,,,,,,,,,,,,,,,,,,,,,,,,,,,,,,
,,,,,,,,,,,,a,Incorrect,,,,,,t4.png,t2.png,2,0.0591,19,female,2020-09-10_19h49.15.214,torte-2b,2020.1.3,MacIntel,60,13298,0.25,,,,,0,91,91,36,1,,,,,,,,,,,,,,,,,,,,,,,,,,,,,,,,,,,,,,,,,,,,,,,,,,,,,,,,
,,,,,,,,,,,,a,Correct!,,,,,,t4.png,t3.png,1,0.90855,19,female,2020-09-10_19h49.15.214,torte-2b,2020.1.3,MacIntel,60,13298,0.447,,,,,0,92,92,35,1,,,,,,,,,,,,,,,,,,,,,,,,,,,,,,,,,,,,,,,,,,,,,,,,,,,,,,,,
,,,,,,,,,,,,a,Correct!,,,,,,t2.png,t3.png,1,0.909,19,female,2020-09-10_19h49.15.214,torte-2b,2020.1.3,MacIntel,60,13298,0.165,,,,,0,93,93,74,1,,,,,,,,,,,,,,,,,,,,,,,,,,,,,,,,,,,,,,,,,,,,,,,,,,,,,,,,
,,,,,,,,,,,,a,Correct!,,,,,,t2.png,t2.png,0,0.98115,19,female,2020-09-10_19h49.15.214,torte-2b,2020.1.3,MacIntel,60,13298,0.722,,,,,0,94,94,57,1,,,,,,,,,,,,,,,,,,,,,,,,,,,,,,,,,,,,,,,,,,,,,,,,,,,,,,,,
,,,,,,,,,,,,l,Correct!,,,,,,t1.png,t4.png,3,0.0000131,19,female,2020-09-10_19h49.15.214,torte-2b,2020.1.3,MacIntel,60,13298,0.017,,,,,0,95,95,92,1,,,,,,,,,,,,,,,,,,,,,,,,,,,,,,,,,,,,,,,,,,,,,,,,,,,,,,,,
,,,,,,,,,,,,a,Correct!,,,,,,t2.png,t1.png,1,0.90025,19,female,2020-09-10_19h49.15.214,torte-2b,2020.1.3,MacIntel,60,13298,0.389,,,,,0,96,96,19,1,,,,,,,,,,,,,,,,,,,,,,,,,,,,,,,,,,,,,,,,,,,,,,,,,,,,,,,,
,,,,,,,,,,,,l,Correct!,,,,,,t1.png,t5.png,4,9.55E-11,19,female,2020-09-10_19h49.15.214,torte-2b,2020.1.3,MacIntel,60,13298,0.498,,,,,0,97,97,41,1,,,,,,,,,,,,,,,,,,,,,,,,,,,,,,,,,,,,,,,,,,,,,,,,,,,,,,,,
,,,,,,,,,,,,a,Correct!,,,,,,t4.png,t5.png,1,0.90025,19,female,2020-09-10_19h49.15.214,torte-2b,2020.1.3,MacIntel,60,13298,0.189,,,,,0,98,98,47,1,,,,,,,,,,,,,,,,,,,,,,,,,,,,,,,,,,,,,,,,,,,,,,,,,,,,,,,,
,,,,,,,,,,,,l,Correct!,,,,,,t5.png,t1.png,4,9.55E-11,19,female,2020-09-10_19h49.15.214,torte-2b,2020.1.3,MacIntel,60,13298,0.335,,,,,0,99,99,22,1,,,,,,,,,,,,,,,,,,,,,,,,,,,,,,,,,,,,,,,,,,,,,,,,,,,,,,,,
,,,,,,,,,,,,l,Incorrect,,,,,,t2.png,t1.png,1,0.90025,19,female,2020-09-10_19h49.15.214,torte-2b,2020.1.3,MacIntel,60,13298,0.332,,,,,0,100,100,62,1,,,,,,,,,,,,,,,,,,,,,,,,,,,,,,,,,,,,,,,,,,,,,,,,,,,,,,,,
,,,,,,,,,,,,l,Incorrect,,,,,,t1.png,t2.png,1,0.9,19,female,2020-09-10_19h49.15.214,torte-2b,2020.1.3,MacIntel,60,13298,0.252,,,,,0,101,101,1,1,,,,,,,,,,,,,,,,,,,,,,,,,,,,,,,,,,,,,,,,,,,,,,,,,,,,,,,,
,,,,,,,,,,,,l,Correct!,,,,,,t4.png,t2.png,2,0.059078,19,female,2020-09-10_19h49.15.214,torte-2b,2020.1.3,MacIntel,60,13298,0.303,,,,,0,102,102,88,1,,,,,,,,,,,,,,,,,,,,,,,,,,,,,,,,,,,,,,,,,,,,,,,,,,,,,,,,
,,,,,,,,,,,,l,Correct!,,,,,,t1.png,t4.png,3,0.0000131,19,female,2020-09-10_19h49.15.214,torte-2b,2020.1.3,MacIntel,60,13298,0.27,,,,,0,103,103,17,1,,,,,,,,,,,,,,,,,,,,,,,,,,,,,,,,,,,,,,,,,,,,,,,,,,,,,,,,
,,,,,,,,,,,,l,Incorrect,,,,,,t3.png,t5.png,2,0.056466,19,female,2020-09-10_19h49.15.214,torte-2b,2020.1.3,MacIntel,60,13298,0.117,,,,,0,104,104,44,1,,,,,,,,,,,,,,,,,,,,,,,,,,,,,,,,,,,,,,,,,,,,,,,,,,,,,,,,
,,,,,,,,,,,,l,Incorrect,,,,,,t5.png,t4.png,1,0.9,19,female,2020-09-10_19h49.15.214,torte-2b,2020.1.3,MacIntel,60,13298,0.271,,,,,0,105,105,49,1,,,,,,,,,,,,,,,,,,,,,,,,,,,,,,,,,,,,,,,,,,,,,,,,,,,,,,,,
,,,,,,,,,,,,l,Correct!,,,,,,t2.png,t5.png,3,0.0000131,19,female,2020-09-10_19h49.15.214,torte-2b,2020.1.3,MacIntel,60,13298,0.334,,,,,0,106,106,8,1,,,,,,,,,,,,,,,,,,,,,,,,,,,,,,,,,,,,,,,,,,,,,,,,,,,,,,,,
,,,,,,,,,,,,l,Incorrect,,,,,,t4.png,t5.png,1,0.90025,19,female,2020-09-10_19h49.15.214,torte-2b,2020.1.3,MacIntel,60,13298,0.554,,,,,0,107,107,113,1,,,,,,,,,,,,,,,,,,,,,,,,,,,,,,,,,,,,,,,,,,,,,,,,,,,,,,,,
,,,,,,,,,,,,a,Correct!,,,,,,t1.png,t1.png,0,0.97829,19,female,2020-09-10_19h49.15.214,torte-2b,2020.1.3,MacIntel,60,13298,1.515,,,,,0,108,108,67,1,,,,,,,,,,,,,,,,,,,,,,,,,,,,,,,,,,,,,,,,,,,,,,,,,,,,,,,,
,,,,,,,,,,,,,Too slow :(,,,,,,t2.png,t2.png,0,0.98115,19,female,2020-09-10_19h49.15.214,torte-2b,2020.1.3,MacIntel,60,13298,,,,,,0,109,109,2,1,,,,,,,,,,,,,,,,,,,,,,,,,,,,,,,,,,,,,,,,,,,,,,,,,,,,,,,,
,,,,,,,,,,,,a,Correct!,,,,,,t2.png,t2.png,0,0.98115,19,female,2020-09-10_19h49.15.214,torte-2b,2020.1.3,MacIntel,60,13298,0.268,,,,,0,110,110,59,1,,,,,,,,,,,,,,,,,,,,,,,,,,,,,,,,,,,,,,,,,,,,,,,,,,,,,,,,
,,,,,,,,,,,,l,Correct!,,,,,,t2.png,t5.png,3,0.0000131,19,female,2020-09-10_19h49.15.214,torte-2b,2020.1.3,MacIntel,60,13298,0.286,,,,,0,111,111,95,1,,,,,,,,,,,,,,,,,,,,,,,,,,,,,,,,,,,,,,,,,,,,,,,,,,,,,,,,
,,,,,,,,,,,,l,Correct!,,,,,,t4.png,t2.png,2,0.059078,19,female,2020-09-10_19h49.15.214,torte-2b,2020.1.3,MacIntel,60,13298,0.321,,,,,0,112,112,110,1,,,,,,,,,,,,,,,,,,,,,,,,,,,,,,,,,,,,,,,,,,,,,,,,,,,,,,,,
,,,,,,,,,,,,l,Correct!,,,,,,t4.png,t1.png,3,0.0000131,19,female,2020-09-10_19h49.15.214,torte-2b,2020.1.3,MacIntel,60,13298,0.3,,,,,0,113,113,61,1,,,,,,,,,,,,,,,,,,,,,,,,,,,,,,,,,,,,,,,,,,,,,,,,,,,,,,,,
,,,,,,,,,,,,l,Incorrect,,,,,,t5.png,t5.png,0,0.978,19,female,2020-09-10_19h49.15.214,torte-2b,2020.1.3,MacIntel,60,13298,0.282,,,,,0,114,114,117,1,,,,,,,,,,,,,,,,,,,,,,,,,,,,,,,,,,,,,,,,,,,,,,,,,,,,,,,,
,,,,,,,,,,,,l,Correct!,,,,,,t1.png,t4.png,3,0.0000131,19,female,2020-09-10_19h49.15.214,torte-2b,2020.1.3,MacIntel,60,13298,0.306,,,,,0,115,115,107,1,,,,,,,,,,,,,,,,,,,,,,,,,,,,,,,,,,,,,,,,,,,,,,,,,,,,,,,,
,,,,,,,,,,,,l,Correct!,,,,,,t1.png,t3.png,2,0.056466,19,female,2020-09-10_19h49.15.214,torte-2b,2020.1.3,MacIntel,60,13298,0.307,,,,,0,116,116,87,1,,,,,,,,,,,,,,,,,,,,,,,,,,,,,,,,,,,,,,,,,,,,,,,,,,,,,,,,
,,,,,,,,,,,,l,Correct!,,,,,,t5.png,t1.png,4,9.55E-11,19,female,2020-09-10_19h49.15.214,torte-2b,2020.1.3,MacIntel,60,13298,0.305,,,,,0,117,117,43,1,,,,,,,,,,,,,,,,,,,,,,,,,,,,,,,,,,,,,,,,,,,,,,,,,,,,,,,,
,,,,,,,,,,,,l,Correct!,,,,,,t5.png,t3.png,2,0.0565,19,female,2020-09-10_19h49.15.214,torte-2b,2020.1.3,MacIntel,60,13298,0.267,,,,,0,118,118,39,1,,,,,,,,,,,,,,,,,,,,,,,,,,,,,,,,,,,,,,,,,,,,,,,,,,,,,,,,
,,,,,,,,,,,,l,Incorrect,,,,,,t1.png,t2.png,1,0.90025,19,female,2020-09-10_19h49.15.214,torte-2b,2020.1.3,MacIntel,60,13298,0.334,,,,,0,119,119,112,1,,,,,,,,,,,,,,,,,,,,,,,,,,,,,,,,,,,,,,,,,,,,,,,,,,,,,,,,
,,,,,,,,,,,,,,,,,,,,,,,19,female,2020-09-10_19h49.15.214,torte-2b,2020.1.3,MacIntel,60,13298,,space,1.098,,,,,,,,space,23.238,,0,0,0,0,1,6,,,,,,,,,,,,,,,,,,,,,,,,,,,,,,,,,,,,,,,,,,,,,,,
,,,,,,,,,,,,,,,,,,,,,,,19,female,2020-09-10_19h49.15.214,torte-2b,2020.1.3,MacIntel,60,13298,,,,,,,,,,,,,,0,1,1,1,1,7,,,,,,,,,,,,,,,,,,,,,,,,,,,,,,,,,,,,,,,,,,,,,,,
,,,,,,,,,,,,,,,,,,,,,,,19,female,2020-09-10_19h49.15.214,torte-2b,2020.1.3,MacIntel,60,13298,,,,,,,,,,,,,,0,2,2,2,1,6,,,,,,,,,,,,,,,,,,,,,,,,,,,,,,,,,,,,,,,,,,,,,,,
,,,,,,,,,,,,,,,,,,,,,,,19,female,2020-09-10_19h49.15.214,torte-2b,2020.1.3,MacIntel,60,13298,,,,,,,,,,,,,,0,3,3,3,1,7,,,,,,,,,,,,,,,,,,,,,,,,,,,,,,,,,,,,,,,,,,,,,,,
,,,,,,,,,,,,,,,,,,,,,,,19,female,2020-09-10_19h49.15.214,torte-2b,2020.1.3,MacIntel,60,13298,,,,,,,,,,,,,,0,4,4,4,1,5,,,,,,,,,,,,,,,,,,,,,,,,,,,,,,,,,,,,,,,,,,,,,,,
,,,,,,,,,,,,,,,,,,,,,,,19,female,2020-09-10_19h49.15.214,torte-2b,2020.1.3,MacIntel,60,13298,,,,,,,,,,,,,,0,5,5,5,1,7,,,,,,,,,,,,,,,,,,,,,,,,,,,,,,,,,,,,,,,,,,,,,,,
,,,,,,,,,,,,,,,,,,,,,,,19,female,2020-09-10_19h49.15.214,torte-2b,2020.1.3,MacIntel,60,13298,,,,,,,,,,,,,,0,6,6,6,1,2,,,,,,,,,,,,,,,,,,,,,,,,,,,,,,,,,,,,,,,,,,,,,,,
,,,,,,,,,,,,,,,,,,,,,,,19,female,2020-09-10_19h49.15.214,torte-2b,2020.1.3,MacIntel,60,13298,,,,,,,,,,,,,,0,7,7,7,1,4,,,,,,,,,,,,,,,,,,,,,,,,,,,,,,,,,,,,,,,,,,,,,,,
,,,,,,,,,,,,,,,,,,,,,,,19,female,2020-09-10_19h49.15.214,torte-2b,2020.1.3,MacIntel,60,13298,,,,,,,,,,,,,,0,8,8,8,1,7,,,,,,,,,,,,,,,,,,,,,,,,,,,,,,,,,,,,,,,,,,,,,,,
,,,,,,,,,,,,,,,,,,,,,,,19,female,2020-09-10_19h49.15.214,torte-2b,2020.1.3,MacIntel,60,13298,,,,,,,,,,,,,space,0,9,9,9,1,4,0.745,,,,,,,,,,,,,,,,,,,,,,,,,,,,,,,,,,,,,,,,,,,,,,
,,,,,,,,,,,,,,,,,,,,,,,19,female,2020-09-10_19h49.15.214,torte-2b,2020.1.3,MacIntel,60,13298,,,,,,,,,,,,,space,0,10,10,10,1,7,0.418,,,,,,,,,,,,,,,,,,,,,,,,,,,,,,,,,,,,,,,,,,,,,,
,,,,,,,,,,,,,,,,,,,,,,,19,female,2020-09-10_19h49.15.214,torte-2b,2020.1.3,MacIntel,60,13298,,,,,,,,,,,,,space,0,11,11,11,1,7,1.247,,,,,,,,,,,,,,,,,,,,,,,,,,,,,,,,,,,,,,,,,,,,,,
,,,,,,,,,,,,,,,,,,,,,,,19,female,2020-09-10_19h49.15.214,torte-2b,2020.1.3,MacIntel,60,13298,,,,,,,,,,,,,space,0,12,12,12,1,7,1.645,,,,,,,,,,,,,,,,,,,,,,,,,,,,,,,,,,,,,,,,,,,,,,
,,,,,,,,,,,,,,,,,,,,,,,19,female,2020-09-10_19h49.15.214,torte-2b,2020.1.3,MacIntel,60,13298,,,,,,,,,,,,,space,0,13,13,13,1,4,1.75,,,,,,,,,,,,,,,,,,,,,,,,,,,,,,,,,,,,,,,,,,,,,,
,,,,,,,,,,,,,,,,,,,,,,,19,female,2020-09-10_19h49.15.214,torte-2b,2020.1.3,MacIntel,60,13298,,,,,,,,,,,,,space,0,14,14,14,1,6,0.286,,,,,,,,,,,,,,,,,,,,,,,,,,,,,,,,,,,,,,,,,,,,,,
,,,,,,,,,,,,,,,,,,,,,,,19,female,2020-09-10_19h49.15.214,torte-2b,2020.1.3,MacIntel,60,13298,,,,,,,,,,,,,,0,15,15,15,1,4,,,,,,,,,,,,,,,,,,,,,,,,,,,,,,,,,,,,,,,,,,,,,,,
,,,,,,,,,,,,,,,,,,,,,,,19,female,2020-09-10_19h49.15.214,torte-2b,2020.1.3,MacIntel,60,13298,,,,,,,,,,,,,space,0,16,16,16,1,6,0.347,,,,,,,,,,,,,,,,,,,,,,,,,,,,,,,,,,,,,,,,,,,,,,
,,,,,,,,,,,,,,,,,,,,,,,19,female,2020-09-10_19h49.15.214,torte-2b,2020.1.3,MacIntel,60,13298,,,,,,,,,,,,,,0,17,17,17,1,7,,,,,,,,,,,,,,,,,,,,,,,,,,,,,,,,,,,,,,,,,,,,,,,
,,,,,,,,,,,,,,,,,,,,,,,19,female,2020-09-10_19h49.15.214,torte-2b,2020.1.3,MacIntel,60,13298,,,,,,,,,,,,,,0,18,18,18,1,6,,,,,,,,,,,,,,,,,,,,,,,,,,,,,,,,,,,,,,,,,,,,,,,
,,,,,,,,,,,,,,,,,,,,,,,19,female,2020-09-10_19h49.15.214,torte-2b,2020.1.3,MacIntel,60,13298,,,,,,,,,,,,,space,0,19,19,19,1,7,0.402,,,,,,,,,,,,,,,,,,,,,,,,,,,,,,,,,,,,,,,,,,,,,,
,,,,,,,,,,,,,,,,,,,,,,,19,female,2020-09-10_19h49.15.214,torte-2b,2020.1.3,MacIntel,60,13298,,,,,,,,,,,,,,0,20,20,20,1,5,,,,,,,,,,,,,,,,,,,,,,,,,,,,,,,,,,,,,,,,,,,,,,,
,,,,,,,,,,,,,,,,,,,,,,,19,female,2020-09-10_19h49.15.214,torte-2b,2020.1.3,MacIntel,60,13298,,,,,,,,,,,,,space,0,21,21,21,1,1,1.536,,,,,,,,,,,,,,,,,,,,,,,,,,,,,,,,,,,,,,,,,,,,,,
,,,,,,,,,,,,,,,,,,,,,,,19,female,2020-09-10_19h49.15.214,torte-2b,2020.1.3,MacIntel,60,13298,,,,,,,,,,,,,,0,22,22,22,1,6,,,,,,,,,,,,,,,,,,,,,,,,,,,,,,,,,,,,,,,,,,,,,,,
,,,,,,,,,,,,,,,,,,,,,,,19,female,2020-09-10_19h49.15.214,torte-2b,2020.1.3,MacIntel,60,13298,,,,,,,,,,,,,space,0,23,23,23,1,1,0.268,,,,,,,,,,,,,,,,,,,,,,,,,,,,,,,,,,,,,,,,,,,,,,
,,,,,,,,,,,,,,,,,,,,,,,19,female,2020-09-10_19h49.15.214,torte-2b,2020.1.3,MacIntel,60,13298,,,,,,,,,,,,,space,0,24,24,24,1,5,0.43,,,,,,,,,,,,,,,,,,,,,,,,,,,,,,,,,,,,,,,,,,,,,,
,,,,,,,,,,,,,,,,,,,,,,,19,female,2020-09-10_19h49.15.214,torte-2b,2020.1.3,MacIntel,60,13298,,,,,,,,,,,,,space,0,25,25,25,1,6,0.863,,,,,,,,,,,,,,,,,,,,,,,,,,,,,,,,,,,,,,,,,,,,,,
,,,,,,,,,,,,,,,,,,,,,,,19,female,2020-09-10_19h49.15.214,torte-2b,2020.1.3,MacIntel,60,13298,,,,,,,,,,,,,space,0,26,26,26,1,6,0.337,,,,,,,,,,,,,,,,,,,,,,,,,,,,,,,,,,,,,,,,,,,,,,
,,,,,,,,,,,,,,,,,,,,,,,19,female,2020-09-10_19h49.15.214,torte-2b,2020.1.3,MacIntel,60,13298,,,,,,,,,,,,,space,0,27,27,27,1,6,0.262,,,,,,,,,,,,,,,,,,,,,,,,,,,,,,,,,,,,,,,,,,,,,,
,,,,,,,,,,,,,,,,,,,,,,,19,female,2020-09-10_19h49.15.214,torte-2b,2020.1.3,MacIntel,60,13298,,,,,,,,,,,,,space,0,28,28,28,1,5,0.333,,,,,,,,,,,,,,,,,,,,,,,,,,,,,,,,,,,,,,,,,,,,,,
,,,,,,,,,,,,,,,,,,,,,,,19,female,2020-09-10_19h49.15.214,torte-2b,2020.1.3,MacIntel,60,13298,,,,,,,,,,,,,space,0,29,29,29,1,2,0.567,,,,,,,,,,,,,,,,,,,,,,,,,,,,,,,,,,,,,,,,,,,,,,
,,,,,,,,,,,,,,,,,,,,,,,19,female,2020-09-10_19h49.15.214,torte-2b,2020.1.3,MacIntel,60,13298,,,,,,,,,,,,,space,0,30,30,30,1,5,0.249,,,,,,,,,,,,,,,,,,,,,,,,,,,,,,,,,,,,,,,,,,,,,,
,,,,,,,,,,,,,,,,,,,,,,,19,female,2020-09-10_19h49.15.214,torte-2b,2020.1.3,MacIntel,60,13298,,,,,,,,,,,,,space,0,31,31,31,1,2,0.319,,,,,,,,,,,,,,,,,,,,,,,,,,,,,,,,,,,,,,,,,,,,,,
,,,,,,,,,,,,,,,,,,,,,,,19,female,2020-09-10_19h49.15.214,torte-2b,2020.1.3,MacIntel,60,13298,,,,,,,,,,,,,space,0,32,32,32,1,5,0.278,,,,,,,,,,,,,,,,,,,,,,,,,,,,,,,,,,,,,,,,,,,,,,
,,,,,,,,,,,,,,,,,,,,,,,19,female,2020-09-10_19h49.15.214,torte-2b,2020.1.3,MacIntel,60,13298,,,,,,,,,,,,,space,0,33,33,33,1,1,0.302,,,,,,,,,,,,,,,,,,,,,,,,,,,,,,,,,,,,,,,,,,,,,,
,,,,,,,,,,,,,,,,,,,,,,,19,female,2020-09-10_19h49.15.214,torte-2b,2020.1.3,MacIntel,60,13298,,,,,,,,,,,,,space,0,34,34,34,1,1,0.316,,,,,,,,,,,,,,,,,,,,,,,,,,,,,,,,,,,,,,,,,,,,,,
,,,,,,,,,,,,,,,,,,,,,,,19,female,2020-09-10_19h49.15.214,torte-2b,2020.1.3,MacIntel,60,13298,,,,,,,,,,,,,,,,,,,2,,0,0,0,0,1,,,,,,,,,,,,,,,,,,,,,,,,,,,,,,,,,,,,,,,,,
,,,,,,,,,,,,,,,,,,,,,,,19,female,2020-09-10_19h49.15.214,torte-2b,2020.1.3,MacIntel,60,13298,,,,,,,,,,,,,space,,,,,,2,0.145,0,1,1,1,1,,,,,,,,,,,,,,,,,,,,,,,,,,,,,,,,,,,,,,,,,
,,,,,,,,,,,,,,,,,,,,,,,19,female,2020-09-10_19h49.15.214,torte-2b,2020.1.3,MacIntel,60,13298,,,,,,,,,,,,,,,,,,,6,,0,2,2,2,1,,,,,,,,,,,,,,,,,,,,,,,,,,,,,,,,,,,,,,,,,
,,,,,,,,,,,,,,,,,,,,,,,19,female,2020-09-10_19h49.15.214,torte-2b,2020.1.3,MacIntel,60,13298,,,,,,,,,,,,,space,,,,,,2,1.133,0,3,3,3,1,,,,,,,,,,,,,,,,,,,,,,,,,,,,,,,,,,,,,,,,,
,,,,,,,,,,,,,,,,,,,,,,,19,female,2020-09-10_19h49.15.214,torte-2b,2020.1.3,MacIntel,60,13298,,,,,,,,,,,,,space,,,,,,6,1.812,0,4,4,4,1,,,,,,,,,,,,,,,,,,,,,,,,,,,,,,,,,,,,,,,,,
,,,,,,,,,,,,,,,,,,,,,,,19,female,2020-09-10_19h49.15.214,torte-2b,2020.1.3,MacIntel,60,13298,,,,,,,,,,,,,,,,,,,2,,0,5,5,5,1,,,,,,,,,,,,,,,,,,,,,,,,,,,,,,,,,,,,,,,,,
,,,,,,,,,,,,,,,,,,,,,,,19,female,2020-09-10_19h49.15.214,torte-2b,2020.1.3,MacIntel,60,13298,,,,,,,,,,,,,space,,,,,,7,0.163,0,6,6,6,1,,,,,,,,,,,,,,,,,,,,,,,,,,,,,,,,,,,,,,,,,
,,,,,,,,,,,,,,,,,,,,,,,19,female,2020-09-10_19h49.15.214,torte-2b,2020.1.3,MacIntel,60,13298,,,,,,,,,,,,,space,,,,,,2,0.783,0,7,7,7,1,,,,,,,,,,,,,,,,,,,,,,,,,,,,,,,,,,,,,,,,,
,,,,,,,,,,,,,,,,,,,,,,,19,female,2020-09-10_19h49.15.214,torte-2b,2020.1.3,MacIntel,60,13298,,,,,,,,,,,,,space,,,,,,7,1.679,0,8,8,8,1,,,,,,,,,,,,,,,,,,,,,,,,,,,,,,,,,,,,,,,,,
,,,,,,,,,,,,,,,,,,,,,,,19,female,2020-09-10_19h49.15.214,torte-2b,2020.1.3,MacIntel,60,13298,,,,,,,,,,,,,,,,,,,2,,0,9,9,9,1,,,,,,,,,,,,,,,,,,,,,,,,,,,,,,,,,,,,,,,,,
,,,,,,,,,,,,,,,,,,,,,,,19,female,2020-09-10_19h49.15.214,torte-2b,2020.1.3,MacIntel,60,13298,,,,,,,,,,,,,,,,,,,5,,0,10,10,10,1,,,,,,,,,,,,,,,,,,,,,,,,,,,,,,,,,,,,,,,,,
,,,,,,,,,,,,,,,,,,,,,,,19,female,2020-09-10_19h49.15.214,torte-2b,2020.1.3,MacIntel,60,13298,,,,,,,,,,,,,space,,,,,,4,1.612,0,11,11,11,1,,,,,,,,,,,,,,,,,,,,,,,,,,,,,,,,,,,,,,,,,
,,,,,,,,,,,,,,,,,,,,,,,19,female,2020-09-10_19h49.15.214,torte-2b,2020.1.3,MacIntel,60,13298,,,,,,,,,,,,,space,,,,,,5,0.78,0,12,12,12,1,,,,,,,,,,,,,,,,,,,,,,,,,,,,,,,,,,,,,,,,,
,,,,,,,,,,,,,,,,,,,,,,,19,female,2020-09-10_19h49.15.214,torte-2b,2020.1.3,MacIntel,60,13298,,,,,,,,,,,,,space,,,,,,6,0.403,0,13,13,13,1,,,,,,,,,,,,,,,,,,,,,,,,,,,,,,,,,,,,,,,,,
,,,,,,,,,,,,,,,,,,,,,,,19,female,2020-09-10_19h49.15.214,torte-2b,2020.1.3,MacIntel,60,13298,,,,,,,,,,,,,space,,,,,,5,1.97,0,14,14,14,1,,,,,,,,,,,,,,,,,,,,,,,,,,,,,,,,,,,,,,,,,
,,,,,,,,,,,,,,,,,,,,,,,19,female,2020-09-10_19h49.15.214,torte-2b,2020.1.3,MacIntel,60,13298,,,,,,,,,,,,,space,,,,,,4,1.187,0,15,15,15,1,,,,,,,,,,,,,,,,,,,,,,,,,,,,,,,,,,,,,,,,,
,,,,,,,,,,,,,,,,,,,,,,,19,female,2020-09-10_19h49.15.214,torte-2b,2020.1.3,MacIntel,60,13298,,,,,,,,,,,,,space,,,,,,5,0.87,0,16,16,16,1,,,,,,,,,,,,,,,,,,,,,,,,,,,,,,,,,,,,,,,,,
,,,,,,,,,,,,,,,,,,,,,,,19,female,2020-09-10_19h49.15.214,torte-2b,2020.1.3,MacIntel,60,13298,,,,,,,,,,,,,space,,,,,,3,0.414,0,17,17,17,1,,,,,,,,,,,,,,,,,,,,,,,,,,,,,,,,,,,,,,,,,
,,,,,,,,,,,,,,,,,,,,,,,19,female,2020-09-10_19h49.15.214,torte-2b,2020.1.3,MacIntel,60,13298,,,,,,,,,,,,,space,,,,,,6,0.362,0,18,18,18,1,,,,,,,,,,,,,,,,,,,,,,,,,,,,,,,,,,,,,,,,,
,,,,,,,,,,,,,,,,,,,,,,,19,female,2020-09-10_19h49.15.214,torte-2b,2020.1.3,MacIntel,60,13298,,,,,,,,,,,,,space,,,,,,6,0.282,0,19,19,19,1,,,,,,,,,,,,,,,,,,,,,,,,,,,,,,,,,,,,,,,,,
,,,,,,,,,,,,,,,,,,,,,,,19,female,2020-09-10_19h49.15.214,torte-2b,2020.1.3,MacIntel,60,13298,,,,,,,,,,,,,space,,,,,,6,0.302,0,20,20,20,1,,,,,,,,,,,,,,,,,,,,,,,,,,,,,,,,,,,,,,,,,
,,,,,,,,,,,,,,,,,,,,,,,19,female,2020-09-10_19h49.15.214,torte-2b,2020.1.3,MacIntel,60,13298,,,,,,,,,,,,,space,,,,,,4,0.752,0,21,21,21,1,,,,,,,,,,,,,,,,,,,,,,,,,,,,,,,,,,,,,,,,,
,,,,,,,,,,,,,,,,,,,,,,,19,female,2020-09-10_19h49.15.214,torte-2b,2020.1.3,MacIntel,60,13298,,,,,,,,,,,,,,,,,,,6,,0,22,22,22,1,,,,,,,,,,,,,,,,,,,,,,,,,,,,,,,,,,,,,,,,,
,,,,,,,,,,,,,,,,,,,,,,,19,female,2020-09-10_19h49.15.214,torte-2b,2020.1.3,MacIntel,60,13298,,,,,,,,,,,,,space,,,,,,4,0.431,0,23,23,23,1,,,,,,,,,,,,,,,,,,,,,,,,,,,,,,,,,,,,,,,,,
,,,,,,,,,,,,,,,,,,,,,,,19,female,2020-09-10_19h49.15.214,torte-2b,2020.1.3,MacIntel,60,13298,,,,,,,,,,,,,space,,,,,,6,1.646,0,24,24,24,1,,,,,,,,,,,,,,,,,,,,,,,,,,,,,,,,,,,,,,,,,
,,,,,,,,,,,,,,,,,,,,,,,19,female,2020-09-10_19h49.15.214,torte-2b,2020.1.3,MacIntel,60,13298,,,,,,,,,,,,,space,,,,,,6,1.199,0,25,25,25,1,,,,,,,,,,,,,,,,,,,,,,,,,,,,,,,,,,,,,,,,,
,,,,,,,,,,,,,,,,,,,,,,,19,female,2020-09-10_19h49.15.214,torte-2b,2020.1.3,MacIntel,60,13298,,,,,,,,,,,,,space,,,,,,7,1.213,0,26,26,26,1,,,,,,,,,,,,,,,,,,,,,,,,,,,,,,,,,,,,,,,,,
,,,,,,,,,,,,,,,,,,,,,,,19,female,2020-09-10_19h49.15.214,torte-2b,2020.1.3,MacIntel,60,13298,,,,,,,,,,,,,,,,,,,1,,0,27,27,27,1,,,,,,,,,,,,,,,,,,,,,,,,,,,,,,,,,,,,,,,,,
,,,,,,,,,,,,,,,,,,,,,,,19,female,2020-09-10_19h49.15.214,torte-2b,2020.1.3,MacIntel,60,13298,,,,,,,,,,,,,space,,,,,,7,0.883,0,28,28,28,1,,,,,,,,,,,,,,,,,,,,,,,,,,,,,,,,,,,,,,,,,
,,,,,,,,,,,,,,,,,,,,,,,19,female,2020-09-10_19h49.15.214,torte-2b,2020.1.3,MacIntel,60,13298,,,,,,,,,,,,,space,,,,,,4,1.379,0,29,29,29,1,,,,,,,,,,,,,,,,,,,,,,,,,,,,,,,,,,,,,,,,,
,,,,,,,,,,,,,,,,,,,,,,,19,female,2020-09-10_19h49.15.214,torte-2b,2020.1.3,MacIntel,60,13298,,,,,,,,,,,,,space,,,,,,7,0.919,0,30,30,30,1,,,,,,,,,,,,,,,,,,,,,,,,,,,,,,,,,,,,,,,,,
,,,,,,,,,,,,,,,,,,,,,,,19,female,2020-09-10_19h49.15.214,torte-2b,2020.1.3,MacIntel,60,13298,,,,,,,,,,,,,space,,,,,,3,0.115,0,31,31,31,1,,,,,,,,,,,,,,,,,,,,,,,,,,,,,,,,,,,,,,,,,
,,,,,,,,,,,,,,,,,,,,,,,19,female,2020-09-10_19h49.15.214,torte-2b,2020.1.3,MacIntel,60,13298,,,,,,,,,,,,,space,,,,,,2,0.354,0,32,32,32,1,,,,,,,,,,,,,,,,,,,,,,,,,,,,,,,,,,,,,,,,,
,,,,,,,,,,,,,,,,,,,,,,,19,female,2020-09-10_19h49.15.214,torte-2b,2020.1.3,MacIntel,60,13298,,,,,,,,,,,,,space,,,,,,6,1.696,0,33,33,33,1,,,,,,,,,,,,,,,,,,,,,,,,,,,,,,,,,,,,,,,,,
,,,,,,,,,,,,,,,,,,,,,,,19,female,2020-09-10_19h49.15.214,torte-2b,2020.1.3,MacIntel,60,13298,,,,,,,,,,,,,,,,,,,3,,0,34,34,34,1,,,,,,,,,,,,,,,,,,,,,,,,,,,,,,,,,,,,,,,,,
,,,,,,,,,,,,,,,,,,,,,,,19,female,2020-09-10_19h49.15.214,torte-2b,2020.1.3,MacIntel,60,13298,,,,,,,,,,,,,,,,,,,7,,,,,,,0,0,0,0,1,,,,,,,,,,,,,,,,,,,,,,,,,,,,,,,,,,,,
,,,,,,,,,,,,,,,,,,,,,,,19,female,2020-09-10_19h49.15.214,torte-2b,2020.1.3,MacIntel,60,13298,,,,,,,,,,,,,,,,,,,5,,,,,,,0,1,1,1,1,,,,,,,,,,,,,,,,,,,,,,,,,,,,,,,,,,,,
,,,,,,,,,,,,,,,,,,,,,,,19,female,2020-09-10_19h49.15.214,torte-2b,2020.1.3,MacIntel,60,13298,,,,,,,,,,,,,,,,,,,4,,,,,,,0,2,2,2,1,,,,,,,,,,,,,,,,,,,,,,,,,,,,,,,,,,,,
,,,,,,,,,,,,,,,,,,,,,,,19,female,2020-09-10_19h49.15.214,torte-2b,2020.1.3,MacIntel,60,13298,,,,,,,,,,,,,,,,,,,5,,,,,,,0,3,3,3,1,,,,,,,,,,,,,,,,,,,,,,,,,,,,,,,,,,,,
,,,,,,,,,,,,,,,,,,,,,,,19,female,2020-09-10_19h49.15.214,torte-2b,2020.1.3,MacIntel,60,13298,,,,,,,,,,,,,space,,,,,,6,1.096,,,,,,0,4,4,4,1,,,,,,,,,,,,,,,,,,,,,,,,,,,,,,,,,,,,
,,,,,,,,,,,,,,,,,,,,,,,19,female,2020-09-10_19h49.15.214,torte-2b,2020.1.3,MacIntel,60,13298,,,,,,,,,,,,,,,,,,,5,,,,,,,0,5,5,5,1,,,,,,,,,,,,,,,,,,,,,,,,,,,,,,,,,,,,
,,,,,,,,,,,,,,,,,,,,,,,19,female,2020-09-10_19h49.15.214,torte-2b,2020.1.3,MacIntel,60,13298,,,,,,,,,,,,,,,,,,,3,,,,,,,0,6,6,6,1,,,,,,,,,,,,,,,,,,,,,,,,,,,,,,,,,,,,
,,,,,,,,,,,,,,,,,,,,,,,19,female,2020-09-10_19h49.15.214,torte-2b,2020.1.3,MacIntel,60,13298,,,,,,,,,,,,,,,,,,,4,,,,,,,0,7,7,7,1,,,,,,,,,,,,,,,,,,,,,,,,,,,,,,,,,,,,
,,,,,,,,,,,,,,,,,,,,,,,19,female,2020-09-10_19h49.15.214,torte-2b,2020.1.3,MacIntel,60,13298,,,,,,,,,,,,,space,,,,,,3,1.326,,,,,,0,8,8,8,1,,,,,,,,,,,,,,,,,,,,,,,,,,,,,,,,,,,,
,,,,,,,,,,,,,,,,,,,,,,,19,female,2020-09-10_19h49.15.214,torte-2b,2020.1.3,MacIntel,60,13298,,,,,,,,,,,,,,,,,,,1,,,,,,,0,9,9,9,1,,,,,,,,,,,,,,,,,,,,,,,,,,,,,,,,,,,,
,,,,,,,,,,,,,,,,,,,,,,,19,female,2020-09-10_19h49.15.214,torte-2b,2020.1.3,MacIntel,60,13298,,,,,,,,,,,,,,,,,,,2,,,,,,,0,10,10,10,1,,,,,,,,,,,,,,,,,,,,,,,,,,,,,,,,,,,,
,,,,,,,,,,,,,,,,,,,,,,,19,female,2020-09-10_19h49.15.214,torte-2b,2020.1.3,MacIntel,60,13298,,,,,,,,,,,,,space,,,,,,1,0.348,,,,,,0,11,11,11,1,,,,,,,,,,,,,,,,,,,,,,,,,,,,,,,,,,,,
,,,,,,,,,,,,,,,,,,,,,,,19,female,2020-09-10_19h49.15.214,torte-2b,2020.1.3,MacIntel,60,13298,,,,,,,,,,,,,,,,,,,2,,,,,,,0,12,12,12,1,,,,,,,,,,,,,,,,,,,,,,,,,,,,,,,,,,,,
,,,,,,,,,,,,,,,,,,,,,,,19,female,2020-09-10_19h49.15.214,torte-2b,2020.1.3,MacIntel,60,13298,,,,,,,,,,,,,space,,,,,,1,0.246,,,,,,0,13,13,13,1,,,,,,,,,,,,,,,,,,,,,,,,,,,,,,,,,,,,
,,,,,,,,,,,,,,,,,,,,,,,19,female,2020-09-10_19h49.15.214,torte-2b,2020.1.3,MacIntel,60,13298,,,,,,,,,,,,,,,,,,,3,,,,,,,0,14,14,14,1,,,,,,,,,,,,,,,,,,,,,,,,,,,,,,,,,,,,
,,,,,,,,,,,,,,,,,,,,,,,19,female,2020-09-10_19h49.15.214,torte-2b,2020.1.3,MacIntel,60,13298,,,,,,,,,,,,,space,,,,,,1,1.629,,,,,,0,15,15,15,1,,,,,,,,,,,,,,,,,,,,,,,,,,,,,,,,,,,,
,,,,,,,,,,,,,,,,,,,,,,,19,female,2020-09-10_19h49.15.214,torte-2b,2020.1.3,MacIntel,60,13298,,,,,,,,,,,,,,,,,,,7,,,,,,,0,16,16,16,1,,,,,,,,,,,,,,,,,,,,,,,,,,,,,,,,,,,,
,,,,,,,,,,,,,,,,,,,,,,,19,female,2020-09-10_19h49.15.214,torte-2b,2020.1.3,MacIntel,60,13298,,,,,,,,,,,,,space,,,,,,7,0.267,,,,,,0,17,17,17,1,,,,,,,,,,,,,,,,,,,,,,,,,,,,,,,,,,,,
,,,,,,,,,,,,,,,,,,,,,,,19,female,2020-09-10_19h49.15.214,torte-2b,2020.1.3,MacIntel,60,13298,,,,,,,,,,,,,space,,,,,,4,0.703,,,,,,0,18,18,18,1,,,,,,,,,,,,,,,,,,,,,,,,,,,,,,,,,,,,
,,,,,,,,,,,,,,,,,,,,,,,19,female,2020-09-10_19h49.15.214,torte-2b,2020.1.3,MacIntel,60,13298,,,,,,,,,,,,,space,,,,,,7,1.528,,,,,,0,19,19,19,1,,,,,,,,,,,,,,,,,,,,,,,,,,,,,,,,,,,,
,,,,,,,,,,,,,,,,,,,,,,,19,female,2020-09-10_19h49.15.214,torte-2b,2020.1.3,MacIntel,60,13298,,,,,,,,,,,,,,,,,,,3,,,,,,,0,20,20,20,1,,,,,,,,,,,,,,,,,,,,,,,,,,,,,,,,,,,,
,,,,,,,,,,,,,,,,,,,,,,,19,female,2020-09-10_19h49.15.214,torte-2b,2020.1.3,MacIntel,60,13298,,,,,,,,,,,,,space,,,,,,7,0.412,,,,,,0,21,21,21,1,,,,,,,,,,,,,,,,,,,,,,,,,,,,,,,,,,,,
,,,,,,,,,,,,,,,,,,,,,,,19,female,2020-09-10_19h49.15.214,torte-2b,2020.1.3,MacIntel,60,13298,,,,,,,,,,,,,space,,,,,,3,1.112,,,,,,0,22,22,22,1,,,,,,,,,,,,,,,,,,,,,,,,,,,,,,,,,,,,
,,,,,,,,,,,,,,,,,,,,,,,19,female,2020-09-10_19h49.15.214,torte-2b,2020.1.3,MacIntel,60,13298,,,,,,,,,,,,,space,,,,,,1,0.866,,,,,,0,23,23,23,1,,,,,,,,,,,,,,,,,,,,,,,,,,,,,,,,,,,,
,,,,,,,,,,,,,,,,,,,,,,,19,female,2020-09-10_19h49.15.214,torte-2b,2020.1.3,MacIntel,60,13298,,,,,,,,,,,,,space,,,,,,6,0.599,,,,,,0,24,24,24,1,,,,,,,,,,,,,,,,,,,,,,,,,,,,,,,,,,,,
,,,,,,,,,,,,,,,,,,,,,,,19,female,2020-09-10_19h49.15.214,torte-2b,2020.1.3,MacIntel,60,13298,,,,,,,,,,,,,space,,,,,,3,0.646,,,,,,0,25,25,25,1,,,,,,,,,,,,,,,,,,,,,,,,,,,,,,,,,,,,
,,,,,,,,,,,,,,,,,,,,,,,19,female,2020-09-10_19h49.15.214,torte-2b,2020.1.3,MacIntel,60,13298,,,,,,,,,,,,,,,,,,,2,,,,,,,0,26,26,26,1,,,,,,,,,,,,,,,,,,,,,,,,,,,,,,,,,,,,
,,,,,,,,,,,,,,,,,,,,,,,19,female,2020-09-10_19h49.15.214,torte-2b,2020.1.3,MacIntel,60,13298,,,,,,,,,,,,,space,,,,,,3,1.799,,,,,,0,27,27,27,1,,,,,,,,,,,,,,,,,,,,,,,,,,,,,,,,,,,,
,,,,,,,,,,,,,,,,,,,,,,,19,female,2020-09-10_19h49.15.214,torte-2b,2020.1.3,MacIntel,60,13298,,,,,,,,,,,,,,,,,,,1,,,,,,,0,28,28,28,1,,,,,,,,,,,,,,,,,,,,,,,,,,,,,,,,,,,,
,,,,,,,,,,,,,,,,,,,,,,,19,female,2020-09-10_19h49.15.214,torte-2b,2020.1.3,MacIntel,60,13298,,,,,,,,,,,,,,,,,,,3,,,,,,,0,29,29,29,1,,,,,,,,,,,,,,,,,,,,,,,,,,,,,,,,,,,,
,,,,,,,,,,,,,,,,,,,,,,,19,female,2020-09-10_19h49.15.214,torte-2b,2020.1.3,MacIntel,60,13298,,,,,,,,,,,,,space,,,,,,1,0.995,,,,,,0,30,30,30,1,,,,,,,,,,,,,,,,,,,,,,,,,,,,,,,,,,,,
,,,,,,,,,,,,,,,,,,,,,,,19,female,2020-09-10_19h49.15.214,torte-2b,2020.1.3,MacIntel,60,13298,,,,,,,,,,,,,space,,,,,,7,0.867,,,,,,0,31,31,31,1,,,,,,,,,,,,,,,,,,,,,,,,,,,,,,,,,,,,
,,,,,,,,,,,,,,,,,,,,,,,19,female,2020-09-10_19h49.15.214,torte-2b,2020.1.3,MacIntel,60,13298,,,,,,,,,,,,,,,,,,,5,,,,,,,0,32,32,32,1,,,,,,,,,,,,,,,,,,,,,,,,,,,,,,,,,,,,
,,,,,,,,,,,,,,,,,,,,,,,19,female,2020-09-10_19h49.15.214,torte-2b,2020.1.3,MacIntel,60,13298,,,,,,,,,,,,,space,,,,,,7,0.294,,,,,,0,33,33,33,1,,,,,,,,,,,,,,,,,,,,,,,,,,,,,,,,,,,,
,,,,,,,,,,,,,,,,,,,,,,,19,female,2020-09-10_19h49.15.214,torte-2b,2020.1.3,MacIntel,60,13298,,,,,,,,,,,,,space,,,,,,2,1.335,,,,,,0,34,34,34,1,,,,,,,,,,,,,,,,,,,,,,,,,,,,,,,,,,,,
,,,,,,,,,,,,,,,,,,,,,,,19,female,2020-09-10_19h49.15.214,torte-2b,2020.1.3,MacIntel,60,13298,,,,,,,,,,,,,,,,,,,3,,,,,,,,,,,,0,0,0,0,1,,,,,,,,,,,,,,,,,,,,,,,,,,,,,,,
,,,,,,,,,,,,,,,,,,,,,,,19,female,2020-09-10_19h49.15.214,torte-2b,2020.1.3,MacIntel,60,13298,,,,,,,,,,,,,,,,,,,7,,,,,,,,,,,,0,1,1,1,1,,,,,,,,,,,,,,,,,,,,,,,,,,,,,,,
,,,,,,,,,,,,,,,,,,,,,,,19,female,2020-09-10_19h49.15.214,torte-2b,2020.1.3,MacIntel,60,13298,,,,,,,,,,,,,space,,,,,,7,0.828,,,,,,,,,,,0,2,2,2,1,,,,,,,,,,,,,,,,,,,,,,,,,,,,,,,
,,,,,,,,,,,,,,,,,,,,,,,19,female,2020-09-10_19h49.15.214,torte-2b,2020.1.3,MacIntel,60,13298,,,,,,,,,,,,,,,,,,,4,,,,,,,,,,,,0,3,3,3,1,,,,,,,,,,,,,,,,,,,,,,,,,,,,,,,
,,,,,,,,,,,,,,,,,,,,,,,19,female,2020-09-10_19h49.15.214,torte-2b,2020.1.3,MacIntel,60,13298,,,,,,,,,,,,,space,,,,,,5,0.264,,,,,,,,,,,0,4,4,4,1,,,,,,,,,,,,,,,,,,,,,,,,,,,,,,,
,,,,,,,,,,,,,,,,,,,,,,,19,female,2020-09-10_19h49.15.214,torte-2b,2020.1.3,MacIntel,60,13298,,,,,,,,,,,,,,,,,,,4,,,,,,,,,,,,0,5,5,5,1,,,,,,,,,,,,,,,,,,,,,,,,,,,,,,,
,,,,,,,,,,,,,,,,,,,,,,,19,female,2020-09-10_19h49.15.214,torte-2b,2020.1.3,MacIntel,60,13298,,,,,,,,,,,,,space,,,,,,2,1.953,,,,,,,,,,,0,6,6,6,1,,,,,,,,,,,,,,,,,,,,,,,,,,,,,,,
,,,,,,,,,,,,,,,,,,,,,,,19,female,2020-09-10_19h49.15.214,torte-2b,2020.1.3,MacIntel,60,13298,,,,,,,,,,,,,,,,,,,4,,,,,,,,,,,,0,7,7,7,1,,,,,,,,,,,,,,,,,,,,,,,,,,,,,,,
,,,,,,,,,,,,,,,,,,,,,,,19,female,2020-09-10_19h49.15.214,torte-2b,2020.1.3,MacIntel,60,13298,,,,,,,,,,,,,,,,,,,2,,,,,,,,,,,,0,8,8,8,1,,,,,,,,,,,,,,,,,,,,,,,,,,,,,,,
,,,,,,,,,,,,,,,,,,,,,,,19,female,2020-09-10_19h49.15.214,torte-2b,2020.1.3,MacIntel,60,13298,,,,,,,,,,,,,space,,,,,,2,0.104,,,,,,,,,,,0,9,9,9,1,,,,,,,,,,,,,,,,,,,,,,,,,,,,,,,
,,,,,,,,,,,,,,,,,,,,,,,19,female,2020-09-10_19h49.15.214,torte-2b,2020.1.3,MacIntel,60,13298,,,,,,,,,,,,,space,,,,,,6,0.564,,,,,,,,,,,0,10,10,10,1,,,,,,,,,,,,,,,,,,,,,,,,,,,,,,,
,,,,,,,,,,,,,,,,,,,,,,,19,female,2020-09-10_19h49.15.214,torte-2b,2020.1.3,MacIntel,60,13298,,,,,,,,,,,,,,,,,,,2,,,,,,,,,,,,0,11,11,11,1,,,,,,,,,,,,,,,,,,,,,,,,,,,,,,,
,,,,,,,,,,,,,,,,,,,,,,,19,female,2020-09-10_19h49.15.214,torte-2b,2020.1.3,MacIntel,60,13298,,,,,,,,,,,,,,,,,,,2,,,,,,,,,,,,0,12,12,12,1,,,,,,,,,,,,,,,,,,,,,,,,,,,,,,,
,,,,,,,,,,,,,,,,,,,,,,,19,female,2020-09-10_19h49.15.214,torte-2b,2020.1.3,MacIntel,60,13298,,,,,,,,,,,,,,,,,,,2,,,,,,,,,,,,0,13,13,13,1,,,,,,,,,,,,,,,,,,,,,,,,,,,,,,,
,,,,,,,,,,,,,,,,,,,,,,,19,female,2020-09-10_19h49.15.214,torte-2b,2020.1.3,MacIntel,60,13298,,,,,,,,,,,,,,,,,,,2,,,,,,,,,,,,0,14,14,14,1,,,,,,,,,,,,,,,,,,,,,,,,,,,,,,,
,,,,,,,,,,,,,,,,,,,,,,,19,female,2020-09-10_19h49.15.214,torte-2b,2020.1.3,MacIntel,60,13298,,,,,,,,,,,,,space,,,,,,4,1.928,,,,,,,,,,,0,15,15,15,1,,,,,,,,,,,,,,,,,,,,,,,,,,,,,,,
,,,,,,,,,,,,,,,,,,,,,,,19,female,2020-09-10_19h49.15.214,torte-2b,2020.1.3,MacIntel,60,13298,,,,,,,,,,,,,,,,,,,3,,,,,,,,,,,,0,16,16,16,1,,,,,,,,,,,,,,,,,,,,,,,,,,,,,,,
,,,,,,,,,,,,,,,,,,,,,,,19,female,2020-09-10_19h49.15.214,torte-2b,2020.1.3,MacIntel,60,13298,,,,,,,,,,,,,,,,,,,7,,,,,,,,,,,,0,17,17,17,1,,,,,,,,,,,,,,,,,,,,,,,,,,,,,,,
,,,,,,,,,,,,,,,,,,,,,,,19,female,2020-09-10_19h49.15.214,torte-2b,2020.1.3,MacIntel,60,13298,,,,,,,,,,,,,,,,,,,4,,,,,,,,,,,,0,18,18,18,1,,,,,,,,,,,,,,,,,,,,,,,,,,,,,,,
,,,,,,,,,,,,,,,,,,,,,,,19,female,2020-09-10_19h49.15.214,torte-2b,2020.1.3,MacIntel,60,13298,,,,,,,,,,,,,space,,,,,,7,1.598,,,,,,,,,,,0,19,19,19,1,,,,,,,,,,,,,,,,,,,,,,,,,,,,,,,
,,,,,,,,,,,,,,,,,,,,,,,19,female,2020-09-10_19h49.15.214,torte-2b,2020.1.3,MacIntel,60,13298,,,,,,,,,,,,,,,,,,,7,,,,,,,,,,,,0,20,20,20,1,,,,,,,,,,,,,,,,,,,,,,,,,,,,,,,
,,,,,,,,,,,,,,,,,,,,,,,19,female,2020-09-10_19h49.15.214,torte-2b,2020.1.3,MacIntel,60,13298,,,,,,,,,,,,,space,,,,,,7,0.679,,,,,,,,,,,0,21,21,21,1,,,,,,,,,,,,,,,,,,,,,,,,,,,,,,,
,,,,,,,,,,,,,,,,,,,,,,,19,female,2020-09-10_19h49.15.214,torte-2b,2020.1.3,MacIntel,60,13298,,,,,,,,,,,,,,,,,,,7,,,,,,,,,,,,0,22,22,22,1,,,,,,,,,,,,,,,,,,,,,,,,,,,,,,,
,,,,,,,,,,,,,,,,,,,,,,,19,female,2020-09-10_19h49.15.214,torte-2b,2020.1.3,MacIntel,60,13298,,,,,,,,,,,,,,,,,,,1,,,,,,,,,,,,0,23,23,23,1,,,,,,,,,,,,,,,,,,,,,,,,,,,,,,,
,,,,,,,,,,,,,,,,,,,,,,,19,female,2020-09-10_19h49.15.214,torte-2b,2020.1.3,MacIntel,60,13298,,,,,,,,,,,,,space,,,,,,7,0.215,,,,,,,,,,,0,24,24,24,1,,,,,,,,,,,,,,,,,,,,,,,,,,,,,,,
,,,,,,,,,,,,,,,,,,,,,,,19,female,2020-09-10_19h49.15.214,torte-2b,2020.1.3,MacIntel,60,13298,,,,,,,,,,,,,,,,,,,1,,,,,,,,,,,,0,25,25,25,1,,,,,,,,,,,,,,,,,,,,,,,,,,,,,,,
,,,,,,,,,,,,,,,,,,,,,,,19,female,2020-09-10_19h49.15.214,torte-2b,2020.1.3,MacIntel,60,13298,,,,,,,,,,,,,,,,,,,7,,,,,,,,,,,,0,26,26,26,1,,,,,,,,,,,,,,,,,,,,,,,,,,,,,,,
,,,,,,,,,,,,,,,,,,,,,,,19,female,2020-09-10_19h49.15.214,torte-2b,2020.1.3,MacIntel,60,13298,,,,,,,,,,,,,space,,,,,,2,0.832,,,,,,,,,,,0,27,27,27,1,,,,,,,,,,,,,,,,,,,,,,,,,,,,,,,
,,,,,,,,,,,,,,,,,,,,,,,19,female,2020-09-10_19h49.15.214,torte-2b,2020.1.3,MacIntel,60,13298,,,,,,,,,,,,,,,,,,,5,,,,,,,,,,,,0,28,28,28,1,,,,,,,,,,,,,,,,,,,,,,,,,,,,,,,
,,,,,,,,,,,,,,,,,,,,,,,19,female,2020-09-10_19h49.15.214,torte-2b,2020.1.3,MacIntel,60,13298,,,,,,,,,,,,,,,,,,,5,,,,,,,,,,,,0,29,29,29,1,,,,,,,,,,,,,,,,,,,,,,,,,,,,,,,
,,,,,,,,,,,,,,,,,,,,,,,19,female,2020-09-10_19h49.15.214,torte-2b,2020.1.3,MacIntel,60,13298,,,,,,,,,,,,,,,,,,,5,,,,,,,,,,,,0,30,30,30,1,,,,,,,,,,,,,,,,,,,,,,,,,,,,,,,
,,,,,,,,,,,,,,,,,,,,,,,19,female,2020-09-10_19h49.15.214,torte-2b,2020.1.3,MacIntel,60,13298,,,,,,,,,,,,,space,,,,,,1,1.367,,,,,,,,,,,0,31,31,31,1,,,,,,,,,,,,,,,,,,,,,,,,,,,,,,,
,,,,,,,,,,,,,,,,,,,,,,,19,female,2020-09-10_19h49.15.214,torte-2b,2020.1.3,MacIntel,60,13298,,,,,,,,,,,,,,,,,,,5,,,,,,,,,,,,0,32,32,32,1,,,,,,,,,,,,,,,,,,,,,,,,,,,,,,,
,,,,,,,,,,,,,,,,,,,,,,,19,female,2020-09-10_19h49.15.214,torte-2b,2020.1.3,MacIntel,60,13298,,,,,,,,,,,,,,,,,,,3,,,,,,,,,,,,0,33,33,33,1,,,,,,,,,,,,,,,,,,,,,,,,,,,,,,,
,,,,,,,,,,,,,,,,,,,,,,,19,female,2020-09-10_19h49.15.214,torte-2b,2020.1.3,MacIntel,60,13298,,,,,,,,,,,,,,,,,,,3,,,,,,,,,,,,0,34,34,34,1,,,,,,,,,,,,,,,,,,,,,,,,,,,,,,,
,,,,,,,,,,,,a,Incorrect,,,,,,t4.png,t1.png,3,0.0000131,19,female,2020-09-10_19h49.15.214,torte-2b,2020.1.3,MacIntel,60,13298,0.638,space,0.315,,,,,,,,,,,,,,,,,,,,,,,,,,,,,,,,,space,1.423,0,0,0,48,1,,,,,,,,,,,,,,,,,,,,,,,,
,,,,,,,,,,,,a,Incorrect,,,,,,t5.png,t1.png,4,9.55E-11,19,female,2020-09-10_19h49.15.214,torte-2b,2020.1.3,MacIntel,60,13298,0.321,,,,,,,,,,,,,,,,,,,,,,,,,,,,,,,,,,,,,0,1,1,43,1,,,,,,,,,,,,,,,,,,,,,,,,
,,,,,,,,,,,,a,Correct!,,,,,,t4.png,t3.png,1,0.90855,19,female,2020-09-10_19h49.15.214,torte-2b,2020.1.3,MacIntel,60,13298,0.714,,,,,,,,,,,,,,,,,,,,,,,,,,,,,,,,,,,,,0,2,2,45,1,,,,,,,,,,,,,,,,,,,,,,,,
,,,,,,,,,,,,a,Correct!,,,,,,t4.png,t3.png,1,0.90855,19,female,2020-09-10_19h49.15.214,torte-2b,2020.1.3,MacIntel,60,13298,0.931,,,,,,,,,,,,,,,,,,,,,,,,,,,,,,,,,,,,,0,3,3,75,1,,,,,,,,,,,,,,,,,,,,,,,,
,,,,,,,,,,,,l,Correct!,,,,,,t4.png,t1.png,3,0.0000131,19,female,2020-09-10_19h49.15.214,torte-2b,2020.1.3,MacIntel,60,13298,0.421,,,,,,,,,,,,,,,,,,,,,,,,,,,,,,,,,,,,,0,4,4,61,1,,,,,,,,,,,,,,,,,,,,,,,,
,,,,,,,,,,,,a,Correct!,,,,,,t4.png,t4.png,0,0.98115,19,female,2020-09-10_19h49.15.214,torte-2b,2020.1.3,MacIntel,60,13298,0.632,,,,,,,,,,,,,,,,,,,,,,,,,,,,,,,,,,,,,0,5,5,52,1,,,,,,,,,,,,,,,,,,,,,,,,
,,,,,,,,,,,,a,Incorrect,,,,,,t5.png,t1.png,4,9.55E-11,19,female,2020-09-10_19h49.15.214,torte-2b,2020.1.3,MacIntel,60,13298,0.401,,,,,,,,,,,,,,,,,,,,,,,,,,,,,,,,,,,,,0,6,6,100,1,,,,,,,,,,,,,,,,,,,,,,,,
,,,,,,,,,,,,l,Incorrect,,,,,,t2.png,t1.png,1,0.90025,19,female,2020-09-10_19h49.15.214,torte-2b,2020.1.3,MacIntel,60,13298,2.081,,,,,,,,,,,,,,,,,,,,,,,,,,,,,,,,,,,,,0,7,7,62,1,,,,,,,,,,,,,,,,,,,,,,,,
,,,,,,,,,,,,a,Incorrect,,,,,,t4.png,t1.png,3,0.0000131,19,female,2020-09-10_19h49.15.214,torte-2b,2020.1.3,MacIntel,60,13298,1.305,,,,,,,,,,,,,,,,,,,,,,,,,,,,,,,,,,,,,0,8,8,42,1,,,,,,,,,,,,,,,,,,,,,,,,
,,,,,,,,,,,,,Too slow :(,,,,,,t3.png,t4.png,1,0.90855,19,female,2020-09-10_19h49.15.214,torte-2b,2020.1.3,MacIntel,60,13298,,,,,,,,,,,,,,,,,,,,,,,,,,,,,,,,,,,,,,0,9,9,96,1,,,,,,,,,,,,,,,,,,,,,,,,
,,,,,,,,,,,,,Too slow :(,,,,,,t5.png,t3.png,2,0.056466,19,female,2020-09-10_19h49.15.214,torte-2b,2020.1.3,MacIntel,60,13298,,,,,,,,,,,,,,,,,,,,,,,,,,,,,,,,,,,,,,0,10,10,114,1,,,,,,,,,,,,,,,,,,,,,,,,
,,,,,,,,,,,,l,Correct!,,,,,,t2.png,t5.png,3,0.0000131,19,female,2020-09-10_19h49.15.214,torte-2b,2020.1.3,MacIntel,60,13298,0.664,,,,,,,,,,,,,,,,,,,,,,,,,,,,,,,,,,,,,0,11,11,95,1,,,,,,,,,,,,,,,,,,,,,,,,
,,,,,,,,,,,,,Too slow :(,,,,,,t4.png,t2.png,2,0.059078,19,female,2020-09-10_19h49.15.214,torte-2b,2020.1.3,MacIntel,60,13298,,,,,,,,,,,,,,,,,,,,,,,,,,,,,,,,,,,,,,0,12,12,110,1,,,,,,,,,,,,,,,,,,,,,,,,
,,,,,,,,,,,,l,Correct!,,,,,,t2.png,t2.png,0,0.98115,19,female,2020-09-10_19h49.15.214,torte-2b,2020.1.3,MacIntel,60,13298,2.216,,,,,,,,,,,,,,,,,,,,,,,,,,,,,,,,,,,,,0,13,13,2,1,,,,,,,,,,,,,,,,,,,,,,,,
,,,,,,,,,,,,a,Correct!,,,,,,t4.png,t5.png,1,0.90025,19,female,2020-09-10_19h49.15.214,torte-2b,2020.1.3,MacIntel,60,13298,1.982,,,,,,,,,,,,,,,,,,,,,,,,,,,,,,,,,,,,,0,14,14,113,1,,,,,,,,,,,,,,,,,,,,,,,,
,,,,,,,,,,,,,Too slow :(,,,,,,t4.png,t4.png,0,0.98115,19,female,2020-09-10_19h49.15.214,torte-2b,2020.1.3,MacIntel,60,13298,,,,,,,,,,,,,,,,,,,,,,,,,,,,,,,,,,,,,,0,15,15,21,1,,,,,,,,,,,,,,,,,,,,,,,,
,,,,,,,,,,,,l,Incorrect,,,,,,t2.png,t2.png,0,0.98115,19,female,2020-09-10_19h49.15.214,torte-2b,2020.1.3,MacIntel,60,13298,1.871,,,,,,,,,,,,,,,,,,,,,,,,,,,,,,,,,,,,,0,16,16,57,1,,,,,,,,,,,,,,,,,,,,,,,,
,,,,,,,,,,,,,Too slow :(,,,,,,t3.png,t5.png,2,0.056466,19,female,2020-09-10_19h49.15.214,torte-2b,2020.1.3,MacIntel,60,13298,,,,,,,,,,,,,,,,,,,,,,,,,,,,,,,,,,,,,,0,17,17,14,1,,,,,,,,,,,,,,,,,,,,,,,,
,,,,,,,,,,,,,Too slow :(,,,,,,t3.png,t1.png,2,0.0565,19,female,2020-09-10_19h49.15.214,torte-2b,2020.1.3,MacIntel,60,13298,,,,,,,,,,,,,,,,,,,,,,,,,,,,,,,,,,,,,,0,18,18,31,1,,,,,,,,,,,,,,,,,,,,,,,,
,,,,,,,,,,,,,Too slow :(,,,,,,t2.png,t3.png,1,0.90855,19,female,2020-09-10_19h49.15.214,torte-2b,2020.1.3,MacIntel,60,13298,,,,,,,,,,,,,,,,,,,,,,,,,,,,,,,,,,,,,,0,19,19,68,1,,,,,,,,,,,,,,,,,,,,,,,,
,,,,,,,,,,,,a,Correct!,,,,,,t3.png,t2.png,1,0.90855,19,female,2020-09-10_19h49.15.214,torte-2b,2020.1.3,MacIntel,60,13298,0.797,,,,,,,,,,,,,,,,,,,,,,,,,,,,,,,,,,,,,0,20,20,53,1,,,,,,,,,,,,,,,,,,,,,,,,
,,,,,,,,,,,,a,Incorrect,,,,,,t5.png,t2.png,3,0.0000131,19,female,2020-09-10_19h49.15.214,torte-2b,2020.1.3,MacIntel,60,13298,2.021,,,,,,,,,,,,,,,,,,,,,,,,,,,,,,,,,,,,,0,21,21,98,1,,,,,,,,,,,,,,,,,,,,,,,,
,,,,,,,,,,,,l,Correct!,,,,,,t4.png,t2.png,2,0.059078,19,female,2020-09-10_19h49.15.214,torte-2b,2020.1.3,MacIntel,60,13298,1.636,,,,,,,,,,,,,,,,,,,,,,,,,,,,,,,,,,,,,0,22,22,88,1,,,,,,,,,,,,,,,,,,,,,,,,
,,,,,,,,,,,,l,Correct!,,,,,,t1.png,t3.png,2,0.056466,19,female,2020-09-10_19h49.15.214,torte-2b,2020.1.3,MacIntel,60,13298,2.417,,,,,,,,,,,,,,,,,,,,,,,,,,,,,,,,,,,,,0,23,23,63,1,,,,,,,,,,,,,,,,,,,,,,,,
,,,,,,,,,,,,a,Incorrect,,,,,,t1.png,t4.png,3,0.0000131,19,female,2020-09-10_19h49.15.214,torte-2b,2020.1.3,MacIntel,60,13298,0.619,,,,,,,,,,,,,,,,,,,,,,,,,,,,,,,,,,,,,0,24,24,107,1,,,,,,,,,,,,,,,,,,,,,,,,
,,,,,,,,,,,,a,Incorrect,,,,,,t3.png,t1.png,2,0.056466,19,female,2020-09-10_19h49.15.214,torte-2b,2020.1.3,MacIntel,60,13298,0.97,,,,,,,,,,,,,,,,,,,,,,,,,,,,,,,,,,,,,0,25,25,29,1,,,,,,,,,,,,,,,,,,,,,,,,
,,,,,,,,,,,,a,Incorrect,,,,,,t4.png,t2.png,2,0.0591,19,female,2020-09-10_19h49.15.214,torte-2b,2020.1.3,MacIntel,60,13298,1.363,,,,,,,,,,,,,,,,,,,,,,,,,,,,,,,,,,,,,0,26,26,36,1,,,,,,,,,,,,,,,,,,,,,,,,
,,,,,,,,,,,,a,Incorrect,,,,,,t1.png,t3.png,2,0.056466,19,female,2020-09-10_19h49.15.214,torte-2b,2020.1.3,MacIntel,60,13298,0.448,,,,,,,,,,,,,,,,,,,,,,,,,,,,,,,,,,,,,0,27,27,99,1,,,,,,,,,,,,,,,,,,,,,,,,
,,,,,,,,,,,,a,Correct!,,,,,,t1.png,t1.png,0,0.978,19,female,2020-09-10_19h49.15.214,torte-2b,2020.1.3,MacIntel,60,13298,0.783,,,,,,,,,,,,,,,,,,,,,,,,,,,,,,,,,,,,,0,28,28,54,1,,,,,,,,,,,,,,,,,,,,,,,,
,,,,,,,,,,,,a,Correct!,,,,,,t1.png,t2.png,1,0.9,19,female,2020-09-10_19h49.15.214,torte-2b,2020.1.3,MacIntel,60,13298,1.699,,,,,,,,,,,,,,,,,,,,,,,,,,,,,,,,,,,,,0,29,29,1,1,,,,,,,,,,,,,,,,,,,,,,,,
,,,,,,,,,,,,a,Incorrect,,,,,,t3.png,t5.png,2,0.0565,19,female,2020-09-10_19h49.15.214,torte-2b,2020.1.3,MacIntel,60,13298,0.514,,,,,,,,,,,,,,,,,,,,,,,,,,,,,,,,,,,,,0,30,30,83,1,,,,,,,,,,,,,,,,,,,,,,,,
,,,,,,,,,,,,l,Incorrect,,,,,,t2.png,t3.png,1,0.90855,19,female,2020-09-10_19h49.15.214,torte-2b,2020.1.3,MacIntel,60,13298,0.681,,,,,,,,,,,,,,,,,,,,,,,,,,,,,,,,,,,,,0,31,31,10,1,,,,,,,,,,,,,,,,,,,,,,,,
,,,,,,,,,,,,a,Incorrect,,,,,,t2.png,t5.png,3,0.0000131,19,female,2020-09-10_19h49.15.214,torte-2b,2020.1.3,MacIntel,60,13298,0.564,,,,,,,,,,,,,,,,,,,,,,,,,,,,,,,,,,,,,0,32,32,104,1,,,,,,,,,,,,,,,,,,,,,,,,
,,,,,,,,,,,,l,Correct!,,,,,,t5.png,t2.png,3,0.0000131,19,female,2020-09-10_19h49.15.214,torte-2b,2020.1.3,MacIntel,60,13298,0.499,,,,,,,,,,,,,,,,,,,,,,,,,,,,,,,,,,,,,0,33,33,91,1,,,,,,,,,,,,,,,,,,,,,,,,
,,,,,,,,,,,,a,Incorrect,,,,,,t5.png,t2.png,3,0.0000131,19,female,2020-09-10_19h49.15.214,torte-2b,2020.1.3,MacIntel,60,13298,0.617,,,,,,,,,,,,,,,,,,,,,,,,,,,,,,,,,,,,,0,34,34,51,1,,,,,,,,,,,,,,,,,,,,,,,,
,,,,,,,,,,,,a,Incorrect,,,,,,t5.png,t1.png,4,9.55E-11,19,female,2020-09-10_19h49.15.214,torte-2b,2020.1.3,MacIntel,60,13298,0.451,,,,,,,,,,,,,,,,,,,,,,,,,,,,,,,,,,,,,0,35,35,71,1,,,,,,,,,,,,,,,,,,,,,,,,
,,,,,,,,,,,,a,Correct!,,,,,,t5.png,t5.png,0,0.97829,19,female,2020-09-10_19h49.15.214,torte-2b,2020.1.3,MacIntel,60,13298,0.889,,,,,,,,,,,,,,,,,,,,,,,,,,,,,,,,,,,,,0,36,36,73,1,,,,,,,,,,,,,,,,,,,,,,,,
,,,,,,,,,,,,a,Incorrect,,,,,,t4.png,t1.png,3,0.0000131,19,female,2020-09-10_19h49.15.214,torte-2b,2020.1.3,MacIntel,60,13298,0.402,,,,,,,,,,,,,,,,,,,,,,,,,,,,,,,,,,,,,0,37,37,13,1,,,,,,,,,,,,,,,,,,,,,,,,
,,,,,,,,,,,,l,Incorrect,,,,,,t2.png,t1.png,1,0.90025,19,female,2020-09-10_19h49.15.214,torte-2b,2020.1.3,MacIntel,60,13298,0.655,,,,,,,,,,,,,,,,,,,,,,,,,,,,,,,,,,,,,0,38,38,19,1,,,,,,,,,,,,,,,,,,,,,,,,
,,,,,,,,,,,,l,Correct!,,,,,,t3.png,t5.png,2,0.0565,19,female,2020-09-10_19h49.15.214,torte-2b,2020.1.3,MacIntel,60,13298,0.383,,,,,,,,,,,,,,,,,,,,,,,,,,,,,,,,,,,,,0,39,39,30,1,,,,,,,,,,,,,,,,,,,,,,,,
,,,,,,,,,,,,l,Correct!,,,,,,t5.png,t1.png,4,9.55E-11,19,female,2020-09-10_19h49.15.214,torte-2b,2020.1.3,MacIntel,60,13298,0.572,,,,,,,,,,,,,,,,,,,,,,,,,,,,,,,,,,,,,0,40,40,22,1,,,,,,,,,,,,,,,,,,,,,,,,
,,,,,,,,,,,,l,Correct!,,,,,,t3.png,t5.png,2,0.056466,19,female,2020-09-10_19h49.15.214,torte-2b,2020.1.3,MacIntel,60,13298,0.388,,,,,,,,,,,,,,,,,,,,,,,,,,,,,,,,,,,,,0,41,41,44,1,,,,,,,,,,,,,,,,,,,,,,,,
,,,,,,,,,,,,l,Incorrect,,,,,,t2.png,t1.png,1,0.90025,19,female,2020-09-10_19h49.15.214,torte-2b,2020.1.3,MacIntel,60,13298,0.413,,,,,,,,,,,,,,,,,,,,,,,,,,,,,,,,,,,,,0,42,42,5,1,,,,,,,,,,,,,,,,,,,,,,,,
,,,,,,,,,,,,l,Correct!,,,,,,t2.png,t4.png,2,0.059078,19,female,2020-09-10_19h49.15.214,torte-2b,2020.1.3,MacIntel,60,13298,0.348,,,,,,,,,,,,,,,,,,,,,,,,,,,,,,,,,,,,,0,43,43,11,1,,,,,,,,,,,,,,,,,,,,,,,,
,,,,,,,,,,,,l,Incorrect,,,,,,t4.png,t4.png,0,0.98115,19,female,2020-09-10_19h49.15.214,torte-2b,2020.1.3,MacIntel,60,13298,0.321,,,,,,,,,,,,,,,,,,,,,,,,,,,,,,,,,,,,,0,44,44,90,1,,,,,,,,,,,,,,,,,,,,,,,,
,,,,,,,,,,,,l,Correct!,,,,,,t2.png,t5.png,3,0.0000131,19,female,2020-09-10_19h49.15.214,torte-2b,2020.1.3,MacIntel,60,13298,0.517,,,,,,,,,,,,,,,,,,,,,,,,,,,,,,,,,,,,,0,45,45,66,1,,,,,,,,,,,,,,,,,,,,,,,,
,,,,,,,,,,,,a,Correct!,,,,,,t5.png,t4.png,1,0.90025,19,female,2020-09-10_19h49.15.214,torte-2b,2020.1.3,MacIntel,60,13298,0.323,,,,,,,,,,,,,,,,,,,,,,,,,,,,,,,,,,,,,0,46,46,26,1,,,,,,,,,,,,,,,,,,,,,,,,
,,,,,,,,,,,,a,Incorrect,,,,,,t1.png,t3.png,2,0.056466,19,female,2020-09-10_19h49.15.214,torte-2b,2020.1.3,MacIntel,60,13298,2.235,,,,,,,,,,,,,,,,,,,,,,,,,,,,,,,,,,,,,0,47,47,87,1,,,,,,,,,,,,,,,,,,,,,,,,
,,,,,,,,,,,,l,Incorrect,,,,,,t3.png,t4.png,1,0.909,19,female,2020-09-10_19h49.15.214,torte-2b,2020.1.3,MacIntel,60,13298,1.267,,,,,,,,,,,,,,,,,,,,,,,,,,,,,,,,,,,,,0,48,48,82,1,,,,,,,,,,,,,,,,,,,,,,,,
,,,,,,,,,,,,,Too slow :(,,,,,,t5.png,t2.png,3,0.0000131,19,female,2020-09-10_19h49.15.214,torte-2b,2020.1.3,MacIntel,60,13298,,,,,,,,,,,,,,,,,,,,,,,,,,,,,,,,,,,,,,0,49,49,119,1,,,,,,,,,,,,,,,,,,,,,,,,
,,,,,,,,,,,,,Too slow :(,,,,,,t3.png,t2.png,1,0.90855,19,female,2020-09-10_19h49.15.214,torte-2b,2020.1.3,MacIntel,60,13298,,,,,,,,,,,,,,,,,,,,,,,,,,,,,,,,,,,,,,0,50,50,97,1,,,,,,,,,,,,,,,,,,,,,,,,
,,,,,,,,,,,,l,Incorrect,,,,,,t4.png,t4.png,0,0.98115,19,female,2020-09-10_19h49.15.214,torte-2b,2020.1.3,MacIntel,60,13298,0.499,,,,,,,,,,,,,,,,,,,,,,,,,,,,,,,,,,,,,0,51,51,80,1,,,,,,,,,,,,,,,,,,,,,,,,
,,,,,,,,,,,,a,Correct!,,,,,,t5.png,t4.png,1,0.90025,19,female,2020-09-10_19h49.15.214,torte-2b,2020.1.3,MacIntel,60,13298,0.815,,,,,,,,,,,,,,,,,,,,,,,,,,,,,,,,,,,,,0,52,52,27,1,,,,,,,,,,,,,,,,,,,,,,,,
,,,,,,,,,,,,a,Correct!,,,,,,t3.png,t4.png,1,0.909,19,female,2020-09-10_19h49.15.214,torte-2b,2020.1.3,MacIntel,60,13298,0.383,,,,,,,,,,,,,,,,,,,,,,,,,,,,,,,,,,,,,0,53,53,106,1,,,,,,,,,,,,,,,,,,,,,,,,
,,,,,,,,,,,,a,Correct!,,,,,,t3.png,t4.png,1,0.90855,19,female,2020-09-10_19h49.15.214,torte-2b,2020.1.3,MacIntel,60,13298,0.481,,,,,,,,,,,,,,,,,,,,,,,,,,,,,,,,,,,,,0,54,54,84,1,,,,,,,,,,,,,,,,,,,,,,,,
,,,,,,,,,,,,a,Correct!,,,,,,t5.png,t5.png,0,0.978,19,female,2020-09-10_19h49.15.214,torte-2b,2020.1.3,MacIntel,60,13298,0.433,,,,,,,,,,,,,,,,,,,,,,,,,,,,,,,,,,,,,0,55,55,117,1,,,,,,,,,,,,,,,,,,,,,,,,
,,,,,,,,,,,,l,Incorrect,,,,,,t2.png,t2.png,0,0.981,19,female,2020-09-10_19h49.15.214,torte-2b,2020.1.3,MacIntel,60,13298,0.385,,,,,,,,,,,,,,,,,,,,,,,,,,,,,,,,,,,,,0,56,56,101,1,,,,,,,,,,,,,,,,,,,,,,,,
,,,,,,,,,,,,a,Correct!,,,,,,t5.png,t4.png,1,0.9,19,female,2020-09-10_19h49.15.214,torte-2b,2020.1.3,MacIntel,60,13298,1.2,,,,,,,,,,,,,,,,,,,,,,,,,,,,,,,,,,,,,0,57,57,76,1,,,,,,,,,,,,,,,,,,,,,,,,
,,,,,,,,,,,,a,Incorrect,,,,,,t4.png,t1.png,3,0.0000131,19,female,2020-09-10_19h49.15.214,torte-2b,2020.1.3,MacIntel,60,13298,0.613,,,,,,,,,,,,,,,,,,,,,,,,,,,,,,,,,,,,,0,58,58,93,1,,,,,,,,,,,,,,,,,,,,,,,,
,,,,,,,,,,,,a,Incorrect,,,,,,t4.png,t2.png,2,0.059078,19,female,2020-09-10_19h49.15.214,torte-2b,2020.1.3,MacIntel,60,13298,0.652,,,,,,,,,,,,,,,,,,,,,,,,,,,,,,,,,,,,,0,59,59,86,1,,,,,,,,,,,,,,,,,,,,,,,,
,,,,,,,,,,,,a,Correct!,,,,,,t2.png,t3.png,1,0.909,19,female,2020-09-10_19h49.15.214,torte-2b,2020.1.3,MacIntel,60,13298,0.524,,,,,,,,,,,,,,,,,,,,,,,,,,,,,,,,,,,,,0,60,60,74,1,,,,,,,,,,,,,,,,,,,,,,,,
,,,,,,,,,,,,a,Incorrect,,,,,,t1.png,t3.png,2,0.056466,19,female,2020-09-10_19h49.15.214,torte-2b,2020.1.3,MacIntel,60,13298,0.436,,,,,,,,,,,,,,,,,,,,,,,,,,,,,,,,,,,,,0,61,61,69,1,,,,,,,,,,,,,,,,,,,,,,,,
,,,,,,,,,,,,a,Incorrect,,,,,,t5.png,t3.png,2,0.056466,19,female,2020-09-10_19h49.15.214,torte-2b,2020.1.3,MacIntel,60,13298,0.532,,,,,,,,,,,,,,,,,,,,,,,,,,,,,,,,,,,,,0,62,62,108,1,,,,,,,,,,,,,,,,,,,,,,,,
,,,,,,,,,,,,a,Incorrect,,,,,,t3.png,t1.png,2,0.056466,19,female,2020-09-10_19h49.15.214,torte-2b,2020.1.3,MacIntel,60,13298,0.383,,,,,,,,,,,,,,,,,,,,,,,,,,,,,,,,,,,,,0,63,63,0,1,,,,,,,,,,,,,,,,,,,,,,,,
,,,,,,,,,,,,a,Incorrect,,,,,,t1.png,t3.png,2,0.056466,19,female,2020-09-10_19h49.15.214,torte-2b,2020.1.3,MacIntel,60,13298,0.416,,,,,,,,,,,,,,,,,,,,,,,,,,,,,,,,,,,,,0,64,64,60,1,,,,,,,,,,,,,,,,,,,,,,,,
,,,,,,,,,,,,a,Correct!,,,,,,t2.png,t2.png,0,0.98115,19,female,2020-09-10_19h49.15.214,torte-2b,2020.1.3,MacIntel,60,13298,0.432,,,,,,,,,,,,,,,,,,,,,,,,,,,,,,,,,,,,,0,65,65,59,1,,,,,,,,,,,,,,,,,,,,,,,,
,,,,,,,,,,,,a,Correct!,,,,,,t2.png,t4.png,2,0.0591,19,female,2020-09-10_19h49.15.214,torte-2b,2020.1.3,MacIntel,60,13298,0.434,,,,,,,,,,,,,,,,,,,,,,,,,,,,,,,,,,,,,0,66,66,15,1,,,,,,,,,,,,,,,,,,,,,,,,
,,,,,,,,,,,,a,Incorrect,,,,,,t5.png,t3.png,2,0.056466,19,female,2020-09-10_19h49.15.214,torte-2b,2020.1.3,MacIntel,60,13298,0.331,,,,,,,,,,,,,,,,,,,,,,,,,,,,,,,,,,,,,0,67,67,38,1,,,,,,,,,,,,,,,,,,,,,,,,
,,,,,,,,,,,,l,Incorrect,,,,,,t2.png,t3.png,1,0.90855,19,female,2020-09-10_19h49.15.214,torte-2b,2020.1.3,MacIntel,60,13298,0.501,,,,,,,,,,,,,,,,,,,,,,,,,,,,,,,,,,,,,0,68,68,111,1,,,,,,,,,,,,,,,,,,,,,,,,
,,,,,,,,,,,,a,Correct!,,,,,,t1.png,t1.png,0,0.978,19,female,2020-09-10_19h49.15.214,torte-2b,2020.1.3,MacIntel,60,13298,0.483,,,,,,,,,,,,,,,,,,,,,,,,,,,,,,,,,,,,,0,69,69,28,1,,,,,,,,,,,,,,,,,,,,,,,,
,,,,,,,,,,,,l,Incorrect,,,,,,t5.png,t5.png,0,0.97829,19,female,2020-09-10_19h49.15.214,torte-2b,2020.1.3,MacIntel,60,13298,0.515,,,,,,,,,,,,,,,,,,,,,,,,,,,,,,,,,,,,,0,70,70,25,1,,,,,,,,,,,,,,,,,,,,,,,,
,,,,,,,,,,,,l,Incorrect,,,,,,t2.png,t2.png,0,0.98115,19,female,2020-09-10_19h49.15.214,torte-2b,2020.1.3,MacIntel,60,13298,0.498,,,,,,,,,,,,,,,,,,,,,,,,,,,,,,,,,,,,,0,71,71,7,1,,,,,,,,,,,,,,,,,,,,,,,,
,,,,,,,,,,,,a,Incorrect,,,,,,t1.png,t4.png,3,0.0000131,19,female,2020-09-10_19h49.15.214,torte-2b,2020.1.3,MacIntel,60,13298,0.639,,,,,,,,,,,,,,,,,,,,,,,,,,,,,,,,,,,,,0,72,72,92,1,,,,,,,,,,,,,,,,,,,,,,,,
,,,,,,,,,,,,a,Incorrect,,,,,,t2.png,t4.png,2,0.059078,19,female,2020-09-10_19h49.15.214,torte-2b,2020.1.3,MacIntel,60,13298,0.502,,,,,,,,,,,,,,,,,,,,,,,,,,,,,,,,,,,,,0,73,73,77,1,,,,,,,,,,,,,,,,,,,,,,,,
,,,,,,,,,,,,a,Incorrect,,,,,,t3.png,t2.png,1,0.909,19,female,2020-09-10_19h49.15.214,torte-2b,2020.1.3,MacIntel,60,13298,0.338,,,,,,,,,,,,,,,,,,,,,,,,,,,,,,,,,,,,,0,74,74,3,1,,,,,,,,,,,,,,,,,,,,,,,,
,,,,,,,,,,,,a,Incorrect,,,,,,t1.png,t4.png,3,0.0000131,19,female,2020-09-10_19h49.15.214,torte-2b,2020.1.3,MacIntel,60,13298,0.5,,,,,,,,,,,,,,,,,,,,,,,,,,,,,,,,,,,,,0,75,75,81,1,,,,,,,,,,,,,,,,,,,,,,,,
,,,,,,,,,,,,a,Correct!,,,,,,t1.png,t1.png,0,0.97829,19,female,2020-09-10_19h49.15.214,torte-2b,2020.1.3,MacIntel,60,13298,0.483,,,,,,,,,,,,,,,,,,,,,,,,,,,,,,,,,,,,,0,76,76,78,1,,,,,,,,,,,,,,,,,,,,,,,,
,,,,,,,,,,,,a,Incorrect,,,,,,t4.png,t5.png,1,0.90025,19,female,2020-09-10_19h49.15.214,torte-2b,2020.1.3,MacIntel,60,13298,0.581,,,,,,,,,,,,,,,,,,,,,,,,,,,,,,,,,,,,,0,77,77,103,1,,,,,,,,,,,,,,,,,,,,,,,,
,,,,,,,,,,,,a,Incorrect,,,,,,t5.png,t3.png,2,0.056466,19,female,2020-09-10_19h49.15.214,torte-2b,2020.1.3,MacIntel,60,13298,1.207,,,,,,,,,,,,,,,,,,,,,,,,,,,,,,,,,,,,,0,78,78,56,1,,,,,,,,,,,,,,,,,,,,,,,,
,,,,,,,,,,,,a,Correct!,,,,,,t4.png,t5.png,1,0.90025,19,female,2020-09-10_19h49.15.214,torte-2b,2020.1.3,MacIntel,60,13298,0.548,,,,,,,,,,,,,,,,,,,,,,,,,,,,,,,,,,,,,0,79,79,58,1,,,,,,,,,,,,,,,,,,,,,,,,
,,,,,,,,,,,,a,Correct!,,,,,,t2.png,t3.png,1,0.90855,19,female,2020-09-10_19h49.15.214,torte-2b,2020.1.3,MacIntel,60,13298,0.398,,,,,,,,,,,,,,,,,,,,,,,,,,,,,,,,,,,,,0,80,80,65,1,,,,,,,,,,,,,,,,,,,,,,,,
,,,,,,,,,,,,a,Correct!,,,,,,t1.png,t1.png,0,0.97829,19,female,2020-09-10_19h49.15.214,torte-2b,2020.1.3,MacIntel,60,13298,0.538,,,,,,,,,,,,,,,,,,,,,,,,,,,,,,,,,,,,,0,81,81,9,1,,,,,,,,,,,,,,,,,,,,,,,,
,,,,,,,,,,,,a,Incorrect,,,,,,t2.png,t4.png,2,0.059078,19,female,2020-09-10_19h49.15.214,torte-2b,2020.1.3,MacIntel,60,13298,0.974,,,,,,,,,,,,,,,,,,,,,,,,,,,,,,,,,,,,,0,82,82,37,1,,,,,,,,,,,,,,,,,,,,,,,,
,,,,,,,,,,,,,Too slow :(,,,,,,t4.png,t3.png,1,0.909,19,female,2020-09-10_19h49.15.214,torte-2b,2020.1.3,MacIntel,60,13298,,,,,,,,,,,,,,,,,,,,,,,,,,,,,,,,,,,,,,0,83,83,46,1,,,,,,,,,,,,,,,,,,,,,,,,
,,,,,,,,,,,,a,Correct!,,,,,,t3.png,t2.png,1,0.909,19,female,2020-09-10_19h49.15.214,torte-2b,2020.1.3,MacIntel,60,13298,0.599,,,,,,,,,,,,,,,,,,,,,,,,,,,,,,,,,,,,,0,84,84,23,1,,,,,,,,,,,,,,,,,,,,,,,,
,,,,,,,,,,,,l,Incorrect,,,,,,t5.png,t4.png,1,0.90025,19,female,2020-09-10_19h49.15.214,torte-2b,2020.1.3,MacIntel,60,13298,0.372,,,,,,,,,,,,,,,,,,,,,,,,,,,,,,,,,,,,,0,85,85,34,1,,,,,,,,,,,,,,,,,,,,,,,,
,,,,,,,,,,,,l,Correct!,,,,,,t1.png,t4.png,3,0.0000131,19,female,2020-09-10_19h49.15.214,torte-2b,2020.1.3,MacIntel,60,13298,0.572,,,,,,,,,,,,,,,,,,,,,,,,,,,,,,,,,,,,,0,86,86,17,1,,,,,,,,,,,,,,,,,,,,,,,,
,,,,,,,,,,,,l,Correct!,,,,,,t1.png,t5.png,4,9.55E-11,19,female,2020-09-10_19h49.15.214,torte-2b,2020.1.3,MacIntel,60,13298,0.95,,,,,,,,,,,,,,,,,,,,,,,,,,,,,,,,,,,,,0,87,87,16,1,,,,,,,,,,,,,,,,,,,,,,,,
,,,,,,,,,,,,a,Correct!,,,,,,t5.png,t4.png,1,0.9,19,female,2020-09-10_19h49.15.214,torte-2b,2020.1.3,MacIntel,60,13298,0.434,,,,,,,,,,,,,,,,,,,,,,,,,,,,,,,,,,,,,0,88,88,49,1,,,,,,,,,,,,,,,,,,,,,,,,
,,,,,,,,,,,,a,Incorrect,,,,,,t1.png,t1.png,0,0.97829,19,female,2020-09-10_19h49.15.214,torte-2b,2020.1.3,MacIntel,60,13298,0.348,,,,,,,,,,,,,,,,,,,,,,,,,,,,,,,,,,,,,0,89,89,67,1,,,,,,,,,,,,,,,,,,,,,,,,
,,,,,,,,,,,,a,Incorrect,,,,,,t1.png,t5.png,4,9.55E-11,19,female,2020-09-10_19h49.15.214,torte-2b,2020.1.3,MacIntel,60,13298,0.648,,,,,,,,,,,,,,,,,,,,,,,,,,,,,,,,,,,,,0,90,90,85,1,,,,,,,,,,,,,,,,,,,,,,,,
,,,,,,,,,,,,a,Correct!,,,,,,t4.png,t3.png,1,0.90855,19,female,2020-09-10_19h49.15.214,torte-2b,2020.1.3,MacIntel,60,13298,0.683,,,,,,,,,,,,,,,,,,,,,,,,,,,,,,,,,,,,,0,91,91,35,1,,,,,,,,,,,,,,,,,,,,,,,,
,,,,,,,,,,,,a,Incorrect,,,,,,t4.png,t5.png,1,0.9,19,female,2020-09-10_19h49.15.214,torte-2b,2020.1.3,MacIntel,60,13298,0.534,,,,,,,,,,,,,,,,,,,,,,,,,,,,,,,,,,,,,0,92,92,115,1,,,,,,,,,,,,,,,,,,,,,,,,
,,,,,,,,,,,,a,Incorrect,,,,,,t3.png,t1.png,2,0.056466,19,female,2020-09-10_19h49.15.214,torte-2b,2020.1.3,MacIntel,60,13298,0.381,,,,,,,,,,,,,,,,,,,,,,,,,,,,,,,,,,,,,0,93,93,32,1,,,,,,,,,,,,,,,,,,,,,,,,
,,,,,,,,,,,,a,Incorrect,,,,,,t1.png,t5.png,4,9.55E-11,19,female,2020-09-10_19h49.15.214,torte-2b,2020.1.3,MacIntel,60,13298,0.554,,,,,,,,,,,,,,,,,,,,,,,,,,,,,,,,,,,,,0,94,94,41,1,,,,,,,,,,,,,,,,,,,,,,,,
,,,,,,,,,,,,a,Correct!,,,,,,t4.png,t4.png,0,0.98115,19,female,2020-09-10_19h49.15.214,torte-2b,2020.1.3,MacIntel,60,13298,0.214,,,,,,,,,,,,,,,,,,,,,,,,,,,,,,,,,,,,,0,95,95,79,1,,,,,,,,,,,,,,,,,,,,,,,,
,,,,,,,,,,,,a,Incorrect,,,,,,t2.png,t4.png,2,0.059078,19,female,2020-09-10_19h49.15.214,torte-2b,2020.1.3,MacIntel,60,13298,0.3,,,,,,,,,,,,,,,,,,,,,,,,,,,,,,,,,,,,,0,96,96,24,1,,,,,,,,,,,,,,,,,,,,,,,,
,,,,,,,,,,,,a,Correct!,,,,,,t1.png,t2.png,1,0.90025,19,female,2020-09-10_19h49.15.214,torte-2b,2020.1.3,MacIntel,60,13298,0.331,,,,,,,,,,,,,,,,,,,,,,,,,,,,,,,,,,,,,0,97,97,105,1,,,,,,,,,,,,,,,,,,,,,,,,
,,,,,,,,,,,,a,Correct!,,,,,,t2.png,t1.png,1,0.90025,19,female,2020-09-10_19h49.15.214,torte-2b,2020.1.3,MacIntel,60,13298,0.314,,,,,,,,,,,,,,,,,,,,,,,,,,,,,,,,,,,,,0,98,98,4,1,,,,,,,,,,,,,,,,,,,,,,,,
,,,,,,,,,,,,a,Correct!,,,,,,t3.png,t2.png,1,0.90855,19,female,2020-09-10_19h49.15.214,torte-2b,2020.1.3,MacIntel,60,13298,0.338,,,,,,,,,,,,,,,,,,,,,,,,,,,,,,,,,,,,,0,99,99,18,1,,,,,,,,,,,,,,,,,,,,,,,,
,,,,,,,,,,,,a,Incorrect,,,,,,t5.png,t3.png,2,0.0565,19,female,2020-09-10_19h49.15.214,torte-2b,2020.1.3,MacIntel,60,13298,0.187,,,,,,,,,,,,,,,,,,,,,,,,,,,,,,,,,,,,,0,100,100,39,1,,,,,,,,,,,,,,,,,,,,,,,,
,,,,,,,,,,,,a,Correct!,,,,,,t1.png,t2.png,1,0.90025,19,female,2020-09-10_19h49.15.214,torte-2b,2020.1.3,MacIntel,60,13298,0.303,,,,,,,,,,,,,,,,,,,,,,,,,,,,,,,,,,,,,0,101,101,72,1,,,,,,,,,,,,,,,,,,,,,,,,
,,,,,,,,,,,,l,Incorrect,,,,,,t3.png,t4.png,1,0.909,19,female,2020-09-10_19h49.15.214,torte-2b,2020.1.3,MacIntel,60,13298,0,,,,,,,,,,,,,,,,,,,,,,,,,,,,,,,,,,,,,0,102,102,89,1,,,,,,,,,,,,,,,,,,,,,,,,
,,,,,,,,,,,,a,Correct!,,,,,,t5.png,t5.png,0,0.97829,19,female,2020-09-10_19h49.15.214,torte-2b,2020.1.3,MacIntel,60,13298,0.905,,,,,,,,,,,,,,,,,,,,,,,,,,,,,,,,,,,,,0,103,103,70,1,,,,,,,,,,,,,,,,,,,,,,,,
,,,,,,,,,,,,a,Incorrect,,,,,,t3.png,t5.png,2,0.056466,19,female,2020-09-10_19h49.15.214,torte-2b,2020.1.3,MacIntel,60,13298,0.101,,,,,,,,,,,,,,,,,,,,,,,,,,,,,,,,,,,,,0,104,104,6,1,,,,,,,,,,,,,,,,,,,,,,,,
,,,,,,,,,,,,l,Correct!,,,,,,t1.png,t4.png,3,0.0000131,19,female,2020-09-10_19h49.15.214,torte-2b,2020.1.3,MacIntel,60,13298,0.287,,,,,,,,,,,,,,,,,,,,,,,,,,,,,,,,,,,,,0,105,105,50,1,,,,,,,,,,,,,,,,,,,,,,,,
,,,,,,,,,,,,a,Incorrect,,,,,,t4.png,t2.png,2,0.059078,19,female,2020-09-10_19h49.15.214,torte-2b,2020.1.3,MacIntel,60,13298,0.285,,,,,,,,,,,,,,,,,,,,,,,,,,,,,,,,,,,,,0,106,106,109,1,,,,,,,,,,,,,,,,,,,,,,,,
,,,,,,,,,,,,a,Correct!,,,,,,t2.png,t1.png,1,0.9,19,female,2020-09-10_19h49.15.214,torte-2b,2020.1.3,MacIntel,60,13298,0.316,,,,,,,,,,,,,,,,,,,,,,,,,,,,,,,,,,,,,0,107,107,118,1,,,,,,,,,,,,,,,,,,,,,,,,
,,,,,,,,,,,,a,Correct!,,,,,,t1.png,t2.png,1,0.90025,19,female,2020-09-10_19h49.15.214,torte-2b,2020.1.3,MacIntel,60,13298,0.632,,,,,,,,,,,,,,,,,,,,,,,,,,,,,,,,,,,,,0,108,108,112,1,,,,,,,,,,,,,,,,,,,,,,,,
,,,,,,,,,,,,a,Incorrect,,,,,,t2.png,t5.png,3,0.0000131,19,female,2020-09-10_19h49.15.214,torte-2b,2020.1.3,MacIntel,60,13298,0.454,,,,,,,,,,,,,,,,,,,,,,,,,,,,,,,,,,,,,0,109,109,40,1,,,,,,,,,,,,,,,,,,,,,,,,
,,,,,,,,,,,,a,Incorrect,,,,,,t2.png,t5.png,3,0.0000131,19,female,2020-09-10_19h49.15.214,torte-2b,2020.1.3,MacIntel,60,13298,0.289,,,,,,,,,,,,,,,,,,,,,,,,,,,,,,,,,,,,,0,110,110,8,1,,,,,,,,,,,,,,,,,,,,,,,,
,,,,,,,,,,,,a,Correct!,,,,,,t4.png,t5.png,1,0.90025,19,female,2020-09-10_19h49.15.214,torte-2b,2020.1.3,MacIntel,60,13298,0.266,,,,,,,,,,,,,,,,,,,,,,,,,,,,,,,,,,,,,0,111,111,47,1,,,,,,,,,,,,,,,,,,,,,,,,
,,,,,,,,,,,,a,Incorrect,,,,,,t1.png,t5.png,4,9.55E-11,19,female,2020-09-10_19h49.15.214,torte-2b,2020.1.3,MacIntel,60,13298,0.248,,,,,,,,,,,,,,,,,,,,,,,,,,,,,,,,,,,,,0,112,112,55,1,,,,,,,,,,,,,,,,,,,,,,,,
,,,,,,,,,,,,a,Incorrect,,,,,,t5.png,t1.png,4,9.55E-11,19,female,2020-09-10_19h49.15.214,torte-2b,2020.1.3,MacIntel,60,13298,0.382,,,,,,,,,,,,,,,,,,,,,,,,,,,,,,,,,,,,,0,113,113,102,1,,,,,,,,,,,,,,,,,,,,,,,,
,,,,,,,,,,,,a,Incorrect,,,,,,t5.png,t2.png,3,0.0000131,19,female,2020-09-10_19h49.15.214,torte-2b,2020.1.3,MacIntel,60,13298,0.918,,,,,,,,,,,,,,,,,,,,,,,,,,,,,,,,,,,,,0,114,114,116,1,,,,,,,,,,,,,,,,,,,,,,,,
,,,,,,,,,,,,a,Incorrect,,,,,,t3.png,t1.png,2,0.056466,19,female,2020-09-10_19h49.15.214,torte-2b,2020.1.3,MacIntel,60,13298,0.319,,,,,,,,,,,,,,,,,,,,,,,,,,,,,,,,,,,,,0,115,115,64,1,,,,,,,,,,,,,,,,,,,,,,,,
,,,,,,,,,,,,a,Incorrect,,,,,,t1.png,t5.png,4,9.55E-11,19,female,2020-09-10_19h49.15.214,torte-2b,2020.1.3,MacIntel,60,13298,0.247,,,,,,,,,,,,,,,,,,,,,,,,,,,,,,,,,,,,,0,116,116,12,1,,,,,,,,,,,,,,,,,,,,,,,,
,,,,,,,,,,,,l,Incorrect,,,,,,t1.png,t2.png,1,0.90025,19,female,2020-09-10_19h49.15.214,torte-2b,2020.1.3,MacIntel,60,13298,0.351,,,,,,,,,,,,,,,,,,,,,,,,,,,,,,,,,,,,,0,117,117,33,1,,,,,,,,,,,,,,,,,,,,,,,,
,,,,,,,,,,,,l,Incorrect,,,,,,t5.png,t5.png,0,0.97829,19,female,2020-09-10_19h49.15.214,torte-2b,2020.1.3,MacIntel,60,13298,0.457,,,,,,,,,,,,,,,,,,,,,,,,,,,,,,,,,,,,,0,118,118,94,1,,,,,,,,,,,,,,,,,,,,,,,,
,,,,,,,,,,,,l,Incorrect,,,,,,t4.png,t3.png,1,0.909,19,female,2020-09-10_19h49.15.214,torte-2b,2020.1.3,MacIntel,60,13298,0.302,,,,,,,,,,,,,,,,,,,,,,,,,,,,,,,,,,,,,0,119,119,20,1,,,,,,,,,,,,,,,,,,,,,,,,
,,,,,,,,,,,,,,,,,,,,,,,19,female,2020-09-10_19h49.15.214,torte-2b,2020.1.3,MacIntel,60,13298,,space,1.316,,,,,,,,,,,,,,,,,,,,,,,,,,,,,,,,,,,,,,,,74,-137,1,0,0,s6,76,-86,1,0,0,t4,202,-106,1,0,0,proceed,space,10.012,space,0.598,space,7.361
