key_resp_8.keys,key_resp_8.rt,key_resp_9.keys,key_resp_9.rt,key_resp_10.keys,key_resp_10.rt,key_resp_11.keys,key_resp_11.rt,key_resp_2.keys,key_resp_2.rt,key_resp_3.keys,key_resp_3.rt,key_resp.keys,Feedback,train.thisRepN,train.thisTrialN,train.thisN,train.thisIndex,train.ran,torta_sx,torta_dx,difference,probability,age,gender,date,expName,psychopyVersion,OS,frameRate,participant,key_resp.rt,key_resp_15.keys,key_resp_15.rt,key_resp_6.keys,key_resp_6.rt,test1.thisRepN,test1.thisTrialN,test1.thisN,test1.thisIndex,test1.ran,key_resp_4.keys,key_resp_4.rt,key_resp_5.keys,back1.thisRepN,back1.thisTrialN,back1.thisN,back1.thisIndex,back1.ran,letter,key_resp_5.rt,back2.thisRepN,back2.thisTrialN,back2.thisN,back2.thisIndex,back2.ran,back3.thisRepN,back3.thisTrialN,back3.thisN,back3.thisIndex,back3.ran,back4.thisRepN,back4.thisTrialN,back4.thisN,back4.thisIndex,back4.ran,key_resp_7.keys,key_resp_7.rt,test2.thisRepN,test2.thisTrialN,test2.thisN,test2.thisIndex,test2.ran,mouse.x,mouse.y,mouse.leftButton,mouse.midButton,mouse.rightButton,mouse.clicked_name,mouse_2.x,mouse_2.y,mouse_2.leftButton,mouse_2.midButton,mouse_2.rightButton,mouse_2.clicked_name,mouse_3.x,mouse_3.y,mouse_3.leftButton,mouse_3.midButton,mouse_3.rightButton,mouse_3.clicked_name,key_resp_12.keys,key_resp_12.rt,key_resp_13.keys,key_resp_13.rt,key_resp_14.keys,key_resp_14.rt
space,28.17041,space,13.463225,space,0.875225,space,3.012085,space,11.097775,space,61.368995,,Too slow :(,0,0,0,44,1,t2.png,t3.png,1,0.909,19,female,2020-09-28_14h05.52.714,torte-2b,2020.1.3,Win32,60,13295,,,,,,,,,,,,,,,,,,,,,,,,,,,,,,,,,,,,,,,,,,,,,,,,,,,,,,,,,,,,,,,,,,
,,,,,,,,,,,,l,Correct!,0,1,1,91,1,t1.png,t4.png,3,0.0000131,19,female,2020-09-28_14h05.52.714,torte-2b,2020.1.3,Win32,60,13295,0.968115,,,,,,,,,,,,,,,,,,,,,,,,,,,,,,,,,,,,,,,,,,,,,,,,,,,,,,,,,,,,,,,,,
,,,,,,,,,,,,a,Correct!,0,2,2,13,1,t5.png,t5.png,0,0.97829,19,female,2020-09-28_14h05.52.714,torte-2b,2020.1.3,Win32,60,13295,2.076995,,,,,,,,,,,,,,,,,,,,,,,,,,,,,,,,,,,,,,,,,,,,,,,,,,,,,,,,,,,,,,,,,
,,,,,,,,,,,,l,Correct!,0,3,3,31,1,t1.png,t5.png,4,9.55E-11,19,female,2020-09-28_14h05.52.714,torte-2b,2020.1.3,Win32,60,13295,0.500175,,,,,,,,,,,,,,,,,,,,,,,,,,,,,,,,,,,,,,,,,,,,,,,,,,,,,,,,,,,,,,,,,
,,,,,,,,,,,,l,Correct!,0,4,4,95,1,t1.png,t1.png,0,0.978,19,female,2020-09-28_14h05.52.714,torte-2b,2020.1.3,Win32,60,13295,1.215825,,,,,,,,,,,,,,,,,,,,,,,,,,,,,,,,,,,,,,,,,,,,,,,,,,,,,,,,,,,,,,,,,
,,,,,,,,,,,,a,Incorrect,0,5,5,88,1,t3.png,t1.png,2,0.056466,19,female,2020-09-28_14h05.52.714,torte-2b,2020.1.3,Win32,60,13295,0.88134,,,,,,,,,,,,,,,,,,,,,,,,,,,,,,,,,,,,,,,,,,,,,,,,,,,,,,,,,,,,,,,,,
,,,,,,,,,,,,l,Correct!,0,6,6,55,1,t2.png,t4.png,2,0.059078,19,female,2020-09-28_14h05.52.714,torte-2b,2020.1.3,Win32,60,13295,1.163015,,,,,,,,,,,,,,,,,,,,,,,,,,,,,,,,,,,,,,,,,,,,,,,,,,,,,,,,,,,,,,,,,
,,,,,,,,,,,,l,Incorrect,0,7,7,118,1,t5.png,t5.png,0,0.978,19,female,2020-09-28_14h05.52.714,torte-2b,2020.1.3,Win32,60,13295,1.247415,,,,,,,,,,,,,,,,,,,,,,,,,,,,,,,,,,,,,,,,,,,,,,,,,,,,,,,,,,,,,,,,,
,,,,,,,,,,,,l,Incorrect,0,8,8,28,1,t2.png,t3.png,1,0.909,19,female,2020-09-28_14h05.52.714,torte-2b,2020.1.3,Win32,60,13295,1.351345,,,,,,,,,,,,,,,,,,,,,,,,,,,,,,,,,,,,,,,,,,,,,,,,,,,,,,,,,,,,,,,,,
,,,,,,,,,,,,l,Incorrect,0,9,9,20,1,t2.png,t3.png,1,0.90855,19,female,2020-09-28_14h05.52.714,torte-2b,2020.1.3,Win32,60,13295,1.92674,,,,,,,,,,,,,,,,,,,,,,,,,,,,,,,,,,,,,,,,,,,,,,,,,,,,,,,,,,,,,,,,,
,,,,,,,,,,,,a,Correct!,0,10,10,8,1,t3.png,t2.png,1,0.90855,19,female,2020-09-28_14h05.52.714,torte-2b,2020.1.3,Win32,60,13295,0.94977,,,,,,,,,,,,,,,,,,,,,,,,,,,,,,,,,,,,,,,,,,,,,,,,,,,,,,,,,,,,,,,,,
,,,,,,,,,,,,a,Correct!,0,11,11,39,1,t3.png,t2.png,1,0.90855,19,female,2020-09-28_14h05.52.714,torte-2b,2020.1.3,Win32,60,13295,1.107675,,,,,,,,,,,,,,,,,,,,,,,,,,,,,,,,,,,,,,,,,,,,,,,,,,,,,,,,,,,,,,,,,
,,,,,,,,,,,,l,Correct!,0,12,12,60,1,t2.png,t4.png,2,0.059078,19,female,2020-09-28_14h05.52.714,torte-2b,2020.1.3,Win32,60,13295,1.23014,,,,,,,,,,,,,,,,,,,,,,,,,,,,,,,,,,,,,,,,,,,,,,,,,,,,,,,,,,,,,,,,,
,,,,,,,,,,,,l,Incorrect,0,13,13,32,1,t4.png,t5.png,1,0.90025,19,female,2020-09-28_14h05.52.714,torte-2b,2020.1.3,Win32,60,13295,1.210565,,,,,,,,,,,,,,,,,,,,,,,,,,,,,,,,,,,,,,,,,,,,,,,,,,,,,,,,,,,,,,,,,
,,,,,,,,,,,,a,Incorrect,0,14,14,59,1,t5.png,t4.png,1,0.9,19,female,2020-09-28_14h05.52.714,torte-2b,2020.1.3,Win32,60,13295,2.144585,,,,,,,,,,,,,,,,,,,,,,,,,,,,,,,,,,,,,,,,,,,,,,,,,,,,,,,,,,,,,,,,,
,,,,,,,,,,,,l,Correct!,0,15,15,17,1,t1.png,t4.png,3,0.0000131,19,female,2020-09-28_14h05.52.714,torte-2b,2020.1.3,Win32,60,13295,0.86829,,,,,,,,,,,,,,,,,,,,,,,,,,,,,,,,,,,,,,,,,,,,,,,,,,,,,,,,,,,,,,,,,
,,,,,,,,,,,,,Too slow :(,0,16,16,54,1,t1.png,t5.png,4,9.55E-11,19,female,2020-09-28_14h05.52.714,torte-2b,2020.1.3,Win32,60,13295,,,,,,,,,,,,,,,,,,,,,,,,,,,,,,,,,,,,,,,,,,,,,,,,,,,,,,,,,,,,,,,,,,
,,,,,,,,,,,,l,Incorrect,0,17,17,49,1,t4.png,t5.png,1,0.9,19,female,2020-09-28_14h05.52.714,torte-2b,2020.1.3,Win32,60,13295,1.26342,,,,,,,,,,,,,,,,,,,,,,,,,,,,,,,,,,,,,,,,,,,,,,,,,,,,,,,,,,,,,,,,,
,,,,,,,,,,,,l,Correct!,0,18,18,35,1,t1.png,t4.png,3,0.0000131,19,female,2020-09-28_14h05.52.714,torte-2b,2020.1.3,Win32,60,13295,1.436675,,,,,,,,,,,,,,,,,,,,,,,,,,,,,,,,,,,,,,,,,,,,,,,,,,,,,,,,,,,,,,,,,
,,,,,,,,,,,,a,Incorrect,0,19,19,111,1,t5.png,t1.png,4,9.55E-11,19,female,2020-09-28_14h05.52.714,torte-2b,2020.1.3,Win32,60,13295,1.507165,,,,,,,,,,,,,,,,,,,,,,,,,,,,,,,,,,,,,,,,,,,,,,,,,,,,,,,,,,,,,,,,,
,,,,,,,,,,,,l,Correct!,0,20,20,68,1,t1.png,t4.png,3,0.0000131,19,female,2020-09-28_14h05.52.714,torte-2b,2020.1.3,Win32,60,13295,2.045045,,,,,,,,,,,,,,,,,,,,,,,,,,,,,,,,,,,,,,,,,,,,,,,,,,,,,,,,,,,,,,,,,
,,,,,,,,,,,,,Too slow :(,0,21,21,7,1,t4.png,t5.png,1,0.90025,19,female,2020-09-28_14h05.52.714,torte-2b,2020.1.3,Win32,60,13295,,,,,,,,,,,,,,,,,,,,,,,,,,,,,,,,,,,,,,,,,,,,,,,,,,,,,,,,,,,,,,,,,,
,,,,,,,,,,,,l,Incorrect,0,22,22,81,1,t1.png,t1.png,0,0.97829,19,female,2020-09-28_14h05.52.714,torte-2b,2020.1.3,Win32,60,13295,1.185425,,,,,,,,,,,,,,,,,,,,,,,,,,,,,,,,,,,,,,,,,,,,,,,,,,,,,,,,,,,,,,,,,
,,,,,,,,,,,,a,Incorrect,0,23,23,53,1,t3.png,t1.png,2,0.056466,19,female,2020-09-28_14h05.52.714,torte-2b,2020.1.3,Win32,60,13295,0.880255,,,,,,,,,,,,,,,,,,,,,,,,,,,,,,,,,,,,,,,,,,,,,,,,,,,,,,,,,,,,,,,,,
,,,,,,,,,,,,l,Correct!,0,24,24,98,1,t2.png,t4.png,2,0.0591,19,female,2020-09-28_14h05.52.714,torte-2b,2020.1.3,Win32,60,13295,1.9433,,,,,,,,,,,,,,,,,,,,,,,,,,,,,,,,,,,,,,,,,,,,,,,,,,,,,,,,,,,,,,,,,
,,,,,,,,,,,,l,Correct!,0,25,25,73,1,t4.png,t2.png,2,0.059078,19,female,2020-09-28_14h05.52.714,torte-2b,2020.1.3,Win32,60,13295,1.812275,,,,,,,,,,,,,,,,,,,,,,,,,,,,,,,,,,,,,,,,,,,,,,,,,,,,,,,,,,,,,,,,,
,,,,,,,,,,,,l,Correct!,0,26,26,18,1,t4.png,t5.png,1,0.90025,19,female,2020-09-28_14h05.52.714,torte-2b,2020.1.3,Win32,60,13295,2.15099,,,,,,,,,,,,,,,,,,,,,,,,,,,,,,,,,,,,,,,,,,,,,,,,,,,,,,,,,,,,,,,,,
,,,,,,,,,,,,l,Incorrect,0,27,27,41,1,t3.png,t2.png,1,0.90855,19,female,2020-09-28_14h05.52.714,torte-2b,2020.1.3,Win32,60,13295,1.300055,,,,,,,,,,,,,,,,,,,,,,,,,,,,,,,,,,,,,,,,,,,,,,,,,,,,,,,,,,,,,,,,,
,,,,,,,,,,,,a,Correct!,0,28,28,78,1,t1.png,t1.png,0,0.978,19,female,2020-09-28_14h05.52.714,torte-2b,2020.1.3,Win32,60,13295,1.149565,,,,,,,,,,,,,,,,,,,,,,,,,,,,,,,,,,,,,,,,,,,,,,,,,,,,,,,,,,,,,,,,,
,,,,,,,,,,,,,Too slow :(,0,29,29,70,1,t5.png,t5.png,0,0.978,19,female,2020-09-28_14h05.52.714,torte-2b,2020.1.3,Win32,60,13295,,,,,,,,,,,,,,,,,,,,,,,,,,,,,,,,,,,,,,,,,,,,,,,,,,,,,,,,,,,,,,,,,,
,,,,,,,,,,,,l,Incorrect,0,30,30,64,1,t1.png,t1.png,0,0.978,19,female,2020-09-28_14h05.52.714,torte-2b,2020.1.3,Win32,60,13295,1.51738,,,,,,,,,,,,,,,,,,,,,,,,,,,,,,,,,,,,,,,,,,,,,,,,,,,,,,,,,,,,,,,,,
,,,,,,,,,,,,l,Incorrect,0,31,31,114,1,t2.png,t3.png,1,0.90855,19,female,2020-09-28_14h05.52.714,torte-2b,2020.1.3,Win32,60,13295,1.935845,,,,,,,,,,,,,,,,,,,,,,,,,,,,,,,,,,,,,,,,,,,,,,,,,,,,,,,,,,,,,,,,,
,,,,,,,,,,,,a,Correct!,0,32,32,69,1,t4.png,t2.png,2,0.059078,19,female,2020-09-28_14h05.52.714,torte-2b,2020.1.3,Win32,60,13295,1.08297,,,,,,,,,,,,,,,,,,,,,,,,,,,,,,,,,,,,,,,,,,,,,,,,,,,,,,,,,,,,,,,,,
,,,,,,,,,,,,a,Incorrect,0,33,33,103,1,t3.png,t1.png,2,0.056466,19,female,2020-09-28_14h05.52.714,torte-2b,2020.1.3,Win32,60,13295,0.949955,,,,,,,,,,,,,,,,,,,,,,,,,,,,,,,,,,,,,,,,,,,,,,,,,,,,,,,,,,,,,,,,,
,,,,,,,,,,,,l,Correct!,0,34,34,99,1,t1.png,t5.png,4,9.55E-11,19,female,2020-09-28_14h05.52.714,torte-2b,2020.1.3,Win32,60,13295,1.317535,,,,,,,,,,,,,,,,,,,,,,,,,,,,,,,,,,,,,,,,,,,,,,,,,,,,,,,,,,,,,,,,,
,,,,,,,,,,,,l,Incorrect,0,35,35,45,1,t3.png,t2.png,1,0.90855,19,female,2020-09-28_14h05.52.714,torte-2b,2020.1.3,Win32,60,13295,1.86538,,,,,,,,,,,,,,,,,,,,,,,,,,,,,,,,,,,,,,,,,,,,,,,,,,,,,,,,,,,,,,,,,
,,,,,,,,,,,,a,Correct!,0,36,36,2,1,t3.png,t2.png,1,0.90855,19,female,2020-09-28_14h05.52.714,torte-2b,2020.1.3,Win32,60,13295,1.43241,,,,,,,,,,,,,,,,,,,,,,,,,,,,,,,,,,,,,,,,,,,,,,,,,,,,,,,,,,,,,,,,,
,,,,,,,,,,,,a,Incorrect,0,37,37,27,1,t3.png,t1.png,2,0.0565,19,female,2020-09-28_14h05.52.714,torte-2b,2020.1.3,Win32,60,13295,1.273235,,,,,,,,,,,,,,,,,,,,,,,,,,,,,,,,,,,,,,,,,,,,,,,,,,,,,,,,,,,,,,,,,
,,,,,,,,,,,,,Too slow :(,0,38,38,21,1,t5.png,t4.png,1,0.90025,19,female,2020-09-28_14h05.52.714,torte-2b,2020.1.3,Win32,60,13295,,,,,,,,,,,,,,,,,,,,,,,,,,,,,,,,,,,,,,,,,,,,,,,,,,,,,,,,,,,,,,,,,,
,,,,,,,,,,,,l,Correct!,0,39,39,86,1,t3.png,t1.png,2,0.056466,19,female,2020-09-28_14h05.52.714,torte-2b,2020.1.3,Win32,60,13295,1.262125,,,,,,,,,,,,,,,,,,,,,,,,,,,,,,,,,,,,,,,,,,,,,,,,,,,,,,,,,,,,,,,,,
,,,,,,,,,,,,l,Correct!,0,40,40,52,1,t2.png,t4.png,2,0.059078,19,female,2020-09-28_14h05.52.714,torte-2b,2020.1.3,Win32,60,13295,1.43166,,,,,,,,,,,,,,,,,,,,,,,,,,,,,,,,,,,,,,,,,,,,,,,,,,,,,,,,,,,,,,,,,
,,,,,,,,,,,,l,Incorrect,0,41,41,42,1,t5.png,t4.png,1,0.90025,19,female,2020-09-28_14h05.52.714,torte-2b,2020.1.3,Win32,60,13295,0.900255,,,,,,,,,,,,,,,,,,,,,,,,,,,,,,,,,,,,,,,,,,,,,,,,,,,,,,,,,,,,,,,,,
,,,,,,,,,,,,a,Incorrect,0,42,42,51,1,t3.png,t1.png,2,0.056466,19,female,2020-09-28_14h05.52.714,torte-2b,2020.1.3,Win32,60,13295,0.98623,,,,,,,,,,,,,,,,,,,,,,,,,,,,,,,,,,,,,,,,,,,,,,,,,,,,,,,,,,,,,,,,,
,,,,,,,,,,,,l,Correct!,0,43,43,56,1,t5.png,t1.png,4,9.55E-11,19,female,2020-09-28_14h05.52.714,torte-2b,2020.1.3,Win32,60,13295,0.766945,,,,,,,,,,,,,,,,,,,,,,,,,,,,,,,,,,,,,,,,,,,,,,,,,,,,,,,,,,,,,,,,,
,,,,,,,,,,,,l,Incorrect,0,44,44,96,1,t1.png,t1.png,0,0.97829,19,female,2020-09-28_14h05.52.714,torte-2b,2020.1.3,Win32,60,13295,0.886915,,,,,,,,,,,,,,,,,,,,,,,,,,,,,,,,,,,,,,,,,,,,,,,,,,,,,,,,,,,,,,,,,
,,,,,,,,,,,,l,Correct!,0,45,45,117,1,t1.png,t5.png,4,9.55E-11,19,female,2020-09-28_14h05.52.714,torte-2b,2020.1.3,Win32,60,13295,1.905595,,,,,,,,,,,,,,,,,,,,,,,,,,,,,,,,,,,,,,,,,,,,,,,,,,,,,,,,,,,,,,,,,
,,,,,,,,,,,,l,Correct!,0,46,46,89,1,t1.png,t4.png,3,0.0000131,19,female,2020-09-28_14h05.52.714,torte-2b,2020.1.3,Win32,60,13295,1.2495,,,,,,,,,,,,,,,,,,,,,,,,,,,,,,,,,,,,,,,,,,,,,,,,,,,,,,,,,,,,,,,,,
,,,,,,,,,,,,a,Correct!,0,47,47,92,1,t2.png,t3.png,1,0.909,19,female,2020-09-28_14h05.52.714,torte-2b,2020.1.3,Win32,60,13295,1.398835,,,,,,,,,,,,,,,,,,,,,,,,,,,,,,,,,,,,,,,,,,,,,,,,,,,,,,,,,,,,,,,,,
,,,,,,,,,,,,a,Incorrect,0,48,48,3,1,t1.png,t5.png,4,9.55E-11,19,female,2020-09-28_14h05.52.714,torte-2b,2020.1.3,Win32,60,13295,1.28274,,,,,,,,,,,,,,,,,,,,,,,,,,,,,,,,,,,,,,,,,,,,,,,,,,,,,,,,,,,,,,,,,
,,,,,,,,,,,,l,Correct!,0,49,49,82,1,t5.png,t1.png,4,9.55E-11,19,female,2020-09-28_14h05.52.714,torte-2b,2020.1.3,Win32,60,13295,0.57331,,,,,,,,,,,,,,,,,,,,,,,,,,,,,,,,,,,,,,,,,,,,,,,,,,,,,,,,,,,,,,,,,
,,,,,,,,,,,,l,Correct!,0,50,50,72,1,t4.png,t2.png,2,0.059078,19,female,2020-09-28_14h05.52.714,torte-2b,2020.1.3,Win32,60,13295,0.96211,,,,,,,,,,,,,,,,,,,,,,,,,,,,,,,,,,,,,,,,,,,,,,,,,,,,,,,,,,,,,,,,,
,,,,,,,,,,,,,Too slow :(,0,51,51,22,1,t2.png,t3.png,1,0.90855,19,female,2020-09-28_14h05.52.714,torte-2b,2020.1.3,Win32,60,13295,,,,,,,,,,,,,,,,,,,,,,,,,,,,,,,,,,,,,,,,,,,,,,,,,,,,,,,,,,,,,,,,,,
,,,,,,,,,,,,a,Incorrect,0,52,52,80,1,t1.png,t4.png,3,0.0000131,19,female,2020-09-28_14h05.52.714,torte-2b,2020.1.3,Win32,60,13295,1.13804,,,,,,,,,,,,,,,,,,,,,,,,,,,,,,,,,,,,,,,,,,,,,,,,,,,,,,,,,,,,,,,,,
,,,,,,,,,,,,l,Correct!,0,53,53,83,1,t3.png,t1.png,2,0.056466,19,female,2020-09-28_14h05.52.714,torte-2b,2020.1.3,Win32,60,13295,0.637795,,,,,,,,,,,,,,,,,,,,,,,,,,,,,,,,,,,,,,,,,,,,,,,,,,,,,,,,,,,,,,,,,
,,,,,,,,,,,,l,Incorrect,0,54,54,75,1,t1.png,t1.png,0,0.97829,19,female,2020-09-28_14h05.52.714,torte-2b,2020.1.3,Win32,60,13295,0.93294,,,,,,,,,,,,,,,,,,,,,,,,,,,,,,,,,,,,,,,,,,,,,,,,,,,,,,,,,,,,,,,,,
,,,,,,,,,,,,l,Incorrect,0,55,55,100,1,t4.png,t5.png,1,0.90025,19,female,2020-09-28_14h05.52.714,torte-2b,2020.1.3,Win32,60,13295,1.91346,,,,,,,,,,,,,,,,,,,,,,,,,,,,,,,,,,,,,,,,,,,,,,,,,,,,,,,,,,,,,,,,,
,,,,,,,,,,,,a,Incorrect,0,56,56,47,1,t4.png,t2.png,2,0.059078,19,female,2020-09-28_14h05.52.714,torte-2b,2020.1.3,Win32,60,13295,0.73582,,,,,,,,,,,,,,,,,,,,,,,,,,,,,,,,,,,,,,,,,,,,,,,,,,,,,,,,,,,,,,,,,
,,,,,,,,,,,,l,Correct!,0,57,57,93,1,t2.png,t4.png,2,0.059078,19,female,2020-09-28_14h05.52.714,torte-2b,2020.1.3,Win32,60,13295,1.335735,,,,,,,,,,,,,,,,,,,,,,,,,,,,,,,,,,,,,,,,,,,,,,,,,,,,,,,,,,,,,,,,,
,,,,,,,,,,,,l,Incorrect,0,58,58,101,1,t4.png,t5.png,1,0.90025,19,female,2020-09-28_14h05.52.714,torte-2b,2020.1.3,Win32,60,13295,1.41392,,,,,,,,,,,,,,,,,,,,,,,,,,,,,,,,,,,,,,,,,,,,,,,,,,,,,,,,,,,,,,,,,
,,,,,,,,,,,,a,Correct!,0,59,59,76,1,t3.png,t2.png,1,0.90855,19,female,2020-09-28_14h05.52.714,torte-2b,2020.1.3,Win32,60,13295,2.38091,,,,,,,,,,,,,,,,,,,,,,,,,,,,,,,,,,,,,,,,,,,,,,,,,,,,,,,,,,,,,,,,,
,,,,,,,,,,,,l,Incorrect,0,60,60,65,1,t4.png,t5.png,1,0.90025,19,female,2020-09-28_14h05.52.714,torte-2b,2020.1.3,Win32,60,13295,1.3957,,,,,,,,,,,,,,,,,,,,,,,,,,,,,,,,,,,,,,,,,,,,,,,,,,,,,,,,,,,,,,,,,
,,,,,,,,,,,,a,Incorrect,0,61,61,25,1,t5.png,t5.png,0,0.97829,19,female,2020-09-28_14h05.52.714,torte-2b,2020.1.3,Win32,60,13295,1.88702,,,,,,,,,,,,,,,,,,,,,,,,,,,,,,,,,,,,,,,,,,,,,,,,,,,,,,,,,,,,,,,,,
,,,,,,,,,,,,l,Incorrect,0,62,62,107,1,t1.png,t1.png,0,0.978,19,female,2020-09-28_14h05.52.714,torte-2b,2020.1.3,Win32,60,13295,0.721875,,,,,,,,,,,,,,,,,,,,,,,,,,,,,,,,,,,,,,,,,,,,,,,,,,,,,,,,,,,,,,,,,
,,,,,,,,,,,,a,Incorrect,0,63,63,87,1,t5.png,t1.png,4,9.55E-11,19,female,2020-09-28_14h05.52.714,torte-2b,2020.1.3,Win32,60,13295,1.23113,,,,,,,,,,,,,,,,,,,,,,,,,,,,,,,,,,,,,,,,,,,,,,,,,,,,,,,,,,,,,,,,,
,,,,,,,,,,,,l,Correct!,0,64,64,0,1,t5.png,t1.png,4,9.55E-11,19,female,2020-09-28_14h05.52.714,torte-2b,2020.1.3,Win32,60,13295,0.596595,,,,,,,,,,,,,,,,,,,,,,,,,,,,,,,,,,,,,,,,,,,,,,,,,,,,,,,,,,,,,,,,,
,,,,,,,,,,,,l,Incorrect,0,65,65,113,1,t5.png,t4.png,1,0.9,19,female,2020-09-28_14h05.52.714,torte-2b,2020.1.3,Win32,60,13295,1.04803,,,,,,,,,,,,,,,,,,,,,,,,,,,,,,,,,,,,,,,,,,,,,,,,,,,,,,,,,,,,,,,,,
,,,,,,,,,,,,,Too slow :(,0,66,66,115,1,t2.png,t4.png,2,0.059078,19,female,2020-09-28_14h05.52.714,torte-2b,2020.1.3,Win32,60,13295,,,,,,,,,,,,,,,,,,,,,,,,,,,,,,,,,,,,,,,,,,,,,,,,,,,,,,,,,,,,,,,,,,
,,,,,,,,,,,,a,Incorrect,0,67,67,67,1,t1.png,t5.png,4,9.55E-11,19,female,2020-09-28_14h05.52.714,torte-2b,2020.1.3,Win32,60,13295,1.347795,,,,,,,,,,,,,,,,,,,,,,,,,,,,,,,,,,,,,,,,,,,,,,,,,,,,,,,,,,,,,,,,,
,,,,,,,,,,,,l,Correct!,0,68,68,43,1,t4.png,t2.png,2,0.059078,19,female,2020-09-28_14h05.52.714,torte-2b,2020.1.3,Win32,60,13295,0.99728,,,,,,,,,,,,,,,,,,,,,,,,,,,,,,,,,,,,,,,,,,,,,,,,,,,,,,,,,,,,,,,,,
,,,,,,,,,,,,l,Correct!,0,69,69,61,1,t1.png,t4.png,3,0.0000131,19,female,2020-09-28_14h05.52.714,torte-2b,2020.1.3,Win32,60,13295,1.03765,,,,,,,,,,,,,,,,,,,,,,,,,,,,,,,,,,,,,,,,,,,,,,,,,,,,,,,,,,,,,,,,,
,,,,,,,,,,,,l,Incorrect,0,70,70,71,1,t5.png,t5.png,0,0.97829,19,female,2020-09-28_14h05.52.714,torte-2b,2020.1.3,Win32,60,13295,1.39467,,,,,,,,,,,,,,,,,,,,,,,,,,,,,,,,,,,,,,,,,,,,,,,,,,,,,,,,,,,,,,,,,
,,,,,,,,,,,,l,Correct!,0,71,71,11,1,t1.png,t4.png,3,0.0000131,19,female,2020-09-28_14h05.52.714,torte-2b,2020.1.3,Win32,60,13295,1.682595,,,,,,,,,,,,,,,,,,,,,,,,,,,,,,,,,,,,,,,,,,,,,,,,,,,,,,,,,,,,,,,,,
,,,,,,,,,,,,a,Incorrect,0,72,72,26,1,t4.png,t2.png,2,0.0591,19,female,2020-09-28_14h05.52.714,torte-2b,2020.1.3,Win32,60,13295,1.518825,,,,,,,,,,,,,,,,,,,,,,,,,,,,,,,,,,,,,,,,,,,,,,,,,,,,,,,,,,,,,,,,,
,,,,,,,,,,,,,Too slow :(,0,73,73,34,1,t5.png,t4.png,1,0.9,19,female,2020-09-28_14h05.52.714,torte-2b,2020.1.3,Win32,60,13295,,,,,,,,,,,,,,,,,,,,,,,,,,,,,,,,,,,,,,,,,,,,,,,,,,,,,,,,,,,,,,,,,,
,,,,,,,,,,,,l,Correct!,0,74,74,40,1,t1.png,t5.png,4,9.55E-11,19,female,2020-09-28_14h05.52.714,torte-2b,2020.1.3,Win32,60,13295,1.351125,,,,,,,,,,,,,,,,,,,,,,,,,,,,,,,,,,,,,,,,,,,,,,,,,,,,,,,,,,,,,,,,,
,,,,,,,,,,,,l,Correct!,0,75,75,102,1,t4.png,t2.png,2,0.059078,19,female,2020-09-28_14h05.52.714,torte-2b,2020.1.3,Win32,60,13295,0.834355,,,,,,,,,,,,,,,,,,,,,,,,,,,,,,,,,,,,,,,,,,,,,,,,,,,,,,,,,,,,,,,,,
,,,,,,,,,,,,l,Incorrect,0,76,76,62,1,t5.png,t5.png,0,0.978,19,female,2020-09-28_14h05.52.714,torte-2b,2020.1.3,Win32,60,13295,0.77518,,,,,,,,,,,,,,,,,,,,,,,,,,,,,,,,,,,,,,,,,,,,,,,,,,,,,,,,,,,,,,,,,
,,,,,,,,,,,,l,Correct!,0,77,77,1,1,t2.png,t4.png,2,0.059078,19,female,2020-09-28_14h05.52.714,torte-2b,2020.1.3,Win32,60,13295,1.3569,,,,,,,,,,,,,,,,,,,,,,,,,,,,,,,,,,,,,,,,,,,,,,,,,,,,,,,,,,,,,,,,,
,,,,,,,,,,,,a,Correct!,0,78,78,110,1,t4.png,t5.png,1,0.90025,19,female,2020-09-28_14h05.52.714,torte-2b,2020.1.3,Win32,60,13295,1.229435,,,,,,,,,,,,,,,,,,,,,,,,,,,,,,,,,,,,,,,,,,,,,,,,,,,,,,,,,,,,,,,,,
,,,,,,,,,,,,a,Correct!,0,79,79,29,1,t5.png,t5.png,0,0.97829,19,female,2020-09-28_14h05.52.714,torte-2b,2020.1.3,Win32,60,13295,1.369045,,,,,,,,,,,,,,,,,,,,,,,,,,,,,,,,,,,,,,,,,,,,,,,,,,,,,,,,,,,,,,,,,
,,,,,,,,,,,,l,Correct!,0,80,80,37,1,t1.png,t4.png,3,0.0000131,19,female,2020-09-28_14h05.52.714,torte-2b,2020.1.3,Win32,60,13295,1.02864,,,,,,,,,,,,,,,,,,,,,,,,,,,,,,,,,,,,,,,,,,,,,,,,,,,,,,,,,,,,,,,,,
,,,,,,,,,,,,l,Correct!,0,81,81,116,1,t5.png,t4.png,1,0.90025,19,female,2020-09-28_14h05.52.714,torte-2b,2020.1.3,Win32,60,13295,0.933625,,,,,,,,,,,,,,,,,,,,,,,,,,,,,,,,,,,,,,,,,,,,,,,,,,,,,,,,,,,,,,,,,
,,,,,,,,,,,,l,Correct!,0,82,82,33,1,t5.png,t1.png,4,9.55E-11,19,female,2020-09-28_14h05.52.714,torte-2b,2020.1.3,Win32,60,13295,1.01275,,,,,,,,,,,,,,,,,,,,,,,,,,,,,,,,,,,,,,,,,,,,,,,,,,,,,,,,,,,,,,,,,
,,,,,,,,,,,,l,Incorrect,0,83,83,106,1,t2.png,t3.png,1,0.90855,19,female,2020-09-28_14h05.52.714,torte-2b,2020.1.3,Win32,60,13295,1.1401,,,,,,,,,,,,,,,,,,,,,,,,,,,,,,,,,,,,,,,,,,,,,,,,,,,,,,,,,,,,,,,,,
,,,,,,,,,,,,l,Correct!,0,84,84,57,1,t2.png,t4.png,2,0.059078,19,female,2020-09-28_14h05.52.714,torte-2b,2020.1.3,Win32,60,13295,2.2763,,,,,,,,,,,,,,,,,,,,,,,,,,,,,,,,,,,,,,,,,,,,,,,,,,,,,,,,,,,,,,,,,
,,,,,,,,,,,,l,Correct!,0,85,85,94,1,t5.png,t1.png,4,9.55E-11,19,female,2020-09-28_14h05.52.714,torte-2b,2020.1.3,Win32,60,13295,0.91396,,,,,,,,,,,,,,,,,,,,,,,,,,,,,,,,,,,,,,,,,,,,,,,,,,,,,,,,,,,,,,,,,
,,,,,,,,,,,,l,Incorrect,0,86,86,84,1,t1.png,t1.png,0,0.97829,19,female,2020-09-28_14h05.52.714,torte-2b,2020.1.3,Win32,60,13295,1.474275,,,,,,,,,,,,,,,,,,,,,,,,,,,,,,,,,,,,,,,,,,,,,,,,,,,,,,,,,,,,,,,,,
,,,,,,,,,,,,l,Incorrect,0,87,87,16,1,t5.png,t4.png,1,0.9,19,female,2020-09-28_14h05.52.714,torte-2b,2020.1.3,Win32,60,13295,1.49465,,,,,,,,,,,,,,,,,,,,,,,,,,,,,,,,,,,,,,,,,,,,,,,,,,,,,,,,,,,,,,,,,
,,,,,,,,,,,,a,Correct!,0,88,88,66,1,t4.png,t5.png,1,0.9,19,female,2020-09-28_14h05.52.714,torte-2b,2020.1.3,Win32,60,13295,1.35566,,,,,,,,,,,,,,,,,,,,,,,,,,,,,,,,,,,,,,,,,,,,,,,,,,,,,,,,,,,,,,,,,
,,,,,,,,,,,,a,Correct!,0,89,89,63,1,t2.png,t3.png,1,0.909,19,female,2020-09-28_14h05.52.714,torte-2b,2020.1.3,Win32,60,13295,0.981225,,,,,,,,,,,,,,,,,,,,,,,,,,,,,,,,,,,,,,,,,,,,,,,,,,,,,,,,,,,,,,,,,
,,,,,,,,,,,,l,Correct!,0,90,90,6,1,t1.png,t4.png,3,0.0000131,19,female,2020-09-28_14h05.52.714,torte-2b,2020.1.3,Win32,60,13295,1.040325,,,,,,,,,,,,,,,,,,,,,,,,,,,,,,,,,,,,,,,,,,,,,,,,,,,,,,,,,,,,,,,,,
,,,,,,,,,,,,l,Incorrect,0,91,91,105,1,t3.png,t2.png,1,0.90855,19,female,2020-09-28_14h05.52.714,torte-2b,2020.1.3,Win32,60,13295,1.443845,,,,,,,,,,,,,,,,,,,,,,,,,,,,,,,,,,,,,,,,,,,,,,,,,,,,,,,,,,,,,,,,,
,,,,,,,,,,,,l,Correct!,0,92,92,36,1,t3.png,t1.png,2,0.0565,19,female,2020-09-28_14h05.52.714,torte-2b,2020.1.3,Win32,60,13295,0.84852,,,,,,,,,,,,,,,,,,,,,,,,,,,,,,,,,,,,,,,,,,,,,,,,,,,,,,,,,,,,,,,,,
,,,,,,,,,,,,l,Correct!,0,93,93,112,1,t1.png,t1.png,0,0.97829,19,female,2020-09-28_14h05.52.714,torte-2b,2020.1.3,Win32,60,13295,1.109195,,,,,,,,,,,,,,,,,,,,,,,,,,,,,,,,,,,,,,,,,,,,,,,,,,,,,,,,,,,,,,,,,
,,,,,,,,,,,,l,Incorrect,0,94,94,74,1,t5.png,t4.png,1,0.9,19,female,2020-09-28_14h05.52.714,torte-2b,2020.1.3,Win32,60,13295,1.104505,,,,,,,,,,,,,,,,,,,,,,,,,,,,,,,,,,,,,,,,,,,,,,,,,,,,,,,,,,,,,,,,,
,,,,,,,,,,,,a,Correct!,0,95,95,85,1,t3.png,t2.png,1,0.90855,19,female,2020-09-28_14h05.52.714,torte-2b,2020.1.3,Win32,60,13295,1.19504,,,,,,,,,,,,,,,,,,,,,,,,,,,,,,,,,,,,,,,,,,,,,,,,,,,,,,,,,,,,,,,,,
,,,,,,,,,,,,l,Incorrect,0,96,96,77,1,t1.png,t1.png,0,0.97829,19,female,2020-09-28_14h05.52.714,torte-2b,2020.1.3,Win32,60,13295,0.936785,,,,,,,,,,,,,,,,,,,,,,,,,,,,,,,,,,,,,,,,,,,,,,,,,,,,,,,,,,,,,,,,,
,,,,,,,,,,,,l,Correct!,0,97,97,24,1,t4.png,t2.png,2,0.059078,19,female,2020-09-28_14h05.52.714,torte-2b,2020.1.3,Win32,60,13295,1.8213,,,,,,,,,,,,,,,,,,,,,,,,,,,,,,,,,,,,,,,,,,,,,,,,,,,,,,,,,,,,,,,,,
,,,,,,,,,,,,l,Incorrect,0,98,98,58,1,t5.png,t4.png,1,0.90025,19,female,2020-09-28_14h05.52.714,torte-2b,2020.1.3,Win32,60,13295,1.505035,,,,,,,,,,,,,,,,,,,,,,,,,,,,,,,,,,,,,,,,,,,,,,,,,,,,,,,,,,,,,,,,,
,,,,,,,,,,,,l,Incorrect,0,99,99,14,1,t2.png,t4.png,2,0.059078,19,female,2020-09-28_14h05.52.714,torte-2b,2020.1.3,Win32,60,13295,1.651065,,,,,,,,,,,,,,,,,,,,,,,,,,,,,,,,,,,,,,,,,,,,,,,,,,,,,,,,,,,,,,,,,
,,,,,,,,,,,,a,Incorrect,0,100,100,50,1,t5.png,t1.png,4,9.55E-11,19,female,2020-09-28_14h05.52.714,torte-2b,2020.1.3,Win32,60,13295,2.179535,,,,,,,,,,,,,,,,,,,,,,,,,,,,,,,,,,,,,,,,,,,,,,,,,,,,,,,,,,,,,,,,,
,,,,,,,,,,,,a,Correct!,0,101,101,109,1,t5.png,t5.png,0,0.97829,19,female,2020-09-28_14h05.52.714,torte-2b,2020.1.3,Win32,60,13295,1.421845,,,,,,,,,,,,,,,,,,,,,,,,,,,,,,,,,,,,,,,,,,,,,,,,,,,,,,,,,,,,,,,,,
,,,,,,,,,,,,l,Incorrect,0,102,102,38,1,t3.png,t1.png,2,0.056466,19,female,2020-09-28_14h05.52.714,torte-2b,2020.1.3,Win32,60,13295,0.64774,,,,,,,,,,,,,,,,,,,,,,,,,,,,,,,,,,,,,,,,,,,,,,,,,,,,,,,,,,,,,,,,,
,,,,,,,,,,,,a,Correct!,0,103,103,10,1,t2.png,t3.png,1,0.90855,19,female,2020-09-28_14h05.52.714,torte-2b,2020.1.3,Win32,60,13295,1.78005,,,,,,,,,,,,,,,,,,,,,,,,,,,,,,,,,,,,,,,,,,,,,,,,,,,,,,,,,,,,,,,,,
,,,,,,,,,,,,l,Correct!,0,104,104,46,1,t4.png,t2.png,2,0.059078,19,female,2020-09-28_14h05.52.714,torte-2b,2020.1.3,Win32,60,13295,1.52767,,,,,,,,,,,,,,,,,,,,,,,,,,,,,,,,,,,,,,,,,,,,,,,,,,,,,,,,,,,,,,,,,
,,,,,,,,,,,,a,Correct!,0,105,105,48,1,t5.png,t5.png,0,0.97829,19,female,2020-09-28_14h05.52.714,torte-2b,2020.1.3,Win32,60,13295,1.311785,,,,,,,,,,,,,,,,,,,,,,,,,,,,,,,,,,,,,,,,,,,,,,,,,,,,,,,,,,,,,,,,,
,,,,,,,,,,,,a,Correct!,0,106,106,9,1,t4.png,t5.png,1,0.9,19,female,2020-09-28_14h05.52.714,torte-2b,2020.1.3,Win32,60,13295,2.229505,,,,,,,,,,,,,,,,,,,,,,,,,,,,,,,,,,,,,,,,,,,,,,,,,,,,,,,,,,,,,,,,,
,,,,,,,,,,,,l,Incorrect,0,107,107,15,1,t3.png,t2.png,1,0.90855,19,female,2020-09-28_14h05.52.714,torte-2b,2020.1.3,Win32,60,13295,1.078985,,,,,,,,,,,,,,,,,,,,,,,,,,,,,,,,,,,,,,,,,,,,,,,,,,,,,,,,,,,,,,,,,
,,,,,,,,,,,,a,Incorrect,0,108,108,19,1,t4.png,t2.png,2,0.059078,19,female,2020-09-28_14h05.52.714,torte-2b,2020.1.3,Win32,60,13295,1.4451,,,,,,,,,,,,,,,,,,,,,,,,,,,,,,,,,,,,,,,,,,,,,,,,,,,,,,,,,,,,,,,,,
,,,,,,,,,,,,l,Correct!,0,109,109,30,1,t3.png,t1.png,2,0.056466,19,female,2020-09-28_14h05.52.714,torte-2b,2020.1.3,Win32,60,13295,0.968455,,,,,,,,,,,,,,,,,,,,,,,,,,,,,,,,,,,,,,,,,,,,,,,,,,,,,,,,,,,,,,,,,
,,,,,,,,,,,,a,Incorrect,0,110,110,119,1,t1.png,t5.png,4,9.55E-11,19,female,2020-09-28_14h05.52.714,torte-2b,2020.1.3,Win32,60,13295,1.64462,,,,,,,,,,,,,,,,,,,,,,,,,,,,,,,,,,,,,,,,,,,,,,,,,,,,,,,,,,,,,,,,,
,,,,,,,,,,,,,Too slow :(,0,111,111,5,1,t2.png,t4.png,2,0.059078,19,female,2020-09-28_14h05.52.714,torte-2b,2020.1.3,Win32,60,13295,,,,,,,,,,,,,,,,,,,,,,,,,,,,,,,,,,,,,,,,,,,,,,,,,,,,,,,,,,,,,,,,,,
,,,,,,,,,,,,a,Incorrect,0,112,112,108,1,t5.png,t1.png,4,9.55E-11,19,female,2020-09-28_14h05.52.714,torte-2b,2020.1.3,Win32,60,13295,2.01918,,,,,,,,,,,,,,,,,,,,,,,,,,,,,,,,,,,,,,,,,,,,,,,,,,,,,,,,,,,,,,,,,
,,,,,,,,,,,,l,Correct!,0,113,113,4,1,t1.png,t5.png,4,9.55E-11,19,female,2020-09-28_14h05.52.714,torte-2b,2020.1.3,Win32,60,13295,2.310505,,,,,,,,,,,,,,,,,,,,,,,,,,,,,,,,,,,,,,,,,,,,,,,,,,,,,,,,,,,,,,,,,
,,,,,,,,,,,,,Too slow :(,0,114,114,104,1,t2.png,t3.png,1,0.90855,19,female,2020-09-28_14h05.52.714,torte-2b,2020.1.3,Win32,60,13295,,,,,,,,,,,,,,,,,,,,,,,,,,,,,,,,,,,,,,,,,,,,,,,,,,,,,,,,,,,,,,,,,,
,,,,,,,,,,,,a,Correct!,0,115,115,23,1,t5.png,t4.png,1,0.90025,19,female,2020-09-28_14h05.52.714,torte-2b,2020.1.3,Win32,60,13295,1.77143,,,,,,,,,,,,,,,,,,,,,,,,,,,,,,,,,,,,,,,,,,,,,,,,,,,,,,,,,,,,,,,,,
,,,,,,,,,,,,l,Incorrect,0,116,116,97,1,t5.png,t5.png,0,0.97829,19,female,2020-09-28_14h05.52.714,torte-2b,2020.1.3,Win32,60,13295,1.39472,,,,,,,,,,,,,,,,,,,,,,,,,,,,,,,,,,,,,,,,,,,,,,,,,,,,,,,,,,,,,,,,,
,,,,,,,,,,,,a,Correct!,0,117,117,79,1,t3.png,t2.png,1,0.909,19,female,2020-09-28_14h05.52.714,torte-2b,2020.1.3,Win32,60,13295,1.52971,,,,,,,,,,,,,,,,,,,,,,,,,,,,,,,,,,,,,,,,,,,,,,,,,,,,,,,,,,,,,,,,,
,,,,,,,,,,,,l,Correct!,0,118,118,90,1,t1.png,t5.png,4,9.55E-11,19,female,2020-09-28_14h05.52.714,torte-2b,2020.1.3,Win32,60,13295,1.41626,,,,,,,,,,,,,,,,,,,,,,,,,,,,,,,,,,,,,,,,,,,,,,,,,,,,,,,,,,,,,,,,,
,,,,,,,,,,,,a,Incorrect,0,119,119,12,1,t5.png,t1.png,4,9.55E-11,19,female,2020-09-28_14h05.52.714,torte-2b,2020.1.3,Win32,60,13295,1.8937,,,,,,,,,,,,,,,,,,,,,,,,,,,,,,,,,,,,,,,,,,,,,,,,,,,,,,,,,,,,,,,,,
,,,,,,,,,,,,a,Correct!,,,,,,t2.png,t3.png,1,0.90855,19,female,2020-09-28_14h05.52.714,torte-2b,2020.1.3,Win32,60,13295,1.525515,space,73.34663,space,8.42384,0,0,0,68,1,,,,,,,,,,,,,,,,,,,,,,,,,,,,,,,,,,,,,,,,,,,,,,,,,,,,,,,,
,,,,,,,,,,,,a,Incorrect,,,,,,t2.png,t5.png,3,0.0000131,19,female,2020-09-28_14h05.52.714,torte-2b,2020.1.3,Win32,60,13295,2.030865,,,,,0,1,1,40,1,,,,,,,,,,,,,,,,,,,,,,,,,,,,,,,,,,,,,,,,,,,,,,,,,,,,,,,,
,,,,,,,,,,,,a,Correct!,,,,,,t5.png,t5.png,0,0.97829,19,female,2020-09-28_14h05.52.714,torte-2b,2020.1.3,Win32,60,13295,1.94828,,,,,0,2,2,94,1,,,,,,,,,,,,,,,,,,,,,,,,,,,,,,,,,,,,,,,,,,,,,,,,,,,,,,,,
,,,,,,,,,,,,a,Correct!,,,,,,t4.png,t5.png,1,0.90025,19,female,2020-09-28_14h05.52.714,torte-2b,2020.1.3,Win32,60,13295,1.693125,,,,,0,3,3,58,1,,,,,,,,,,,,,,,,,,,,,,,,,,,,,,,,,,,,,,,,,,,,,,,,,,,,,,,,
,,,,,,,,,,,,,Too slow :(,,,,,,t2.png,t5.png,3,0.0000131,19,female,2020-09-28_14h05.52.714,torte-2b,2020.1.3,Win32,60,13295,,,,,,0,4,4,95,1,,,,,,,,,,,,,,,,,,,,,,,,,,,,,,,,,,,,,,,,,,,,,,,,,,,,,,,,
,,,,,,,,,,,,a,Incorrect,,,,,,t4.png,t3.png,1,0.90855,19,female,2020-09-28_14h05.52.714,torte-2b,2020.1.3,Win32,60,13295,1.187885,,,,,0,5,5,35,1,,,,,,,,,,,,,,,,,,,,,,,,,,,,,,,,,,,,,,,,,,,,,,,,,,,,,,,,
,,,,,,,,,,,,l,Correct!,,,,,,t1.png,t5.png,4,9.55E-11,19,female,2020-09-28_14h05.52.714,torte-2b,2020.1.3,Win32,60,13295,1.948445,,,,,0,6,6,16,1,,,,,,,,,,,,,,,,,,,,,,,,,,,,,,,,,,,,,,,,,,,,,,,,,,,,,,,,
,,,,,,,,,,,,a,Correct!,,,,,,t4.png,t3.png,1,0.90855,19,female,2020-09-28_14h05.52.714,torte-2b,2020.1.3,Win32,60,13295,1.17724,,,,,0,7,7,75,1,,,,,,,,,,,,,,,,,,,,,,,,,,,,,,,,,,,,,,,,,,,,,,,,,,,,,,,,
,,,,,,,,,,,,l,Correct!,,,,,,t2.png,t5.png,3,0.0000131,19,female,2020-09-28_14h05.52.714,torte-2b,2020.1.3,Win32,60,13295,2.081965,,,,,0,8,8,104,1,,,,,,,,,,,,,,,,,,,,,,,,,,,,,,,,,,,,,,,,,,,,,,,,,,,,,,,,
,,,,,,,,,,,,l,Correct!,,,,,,t4.png,t2.png,2,0.059078,19,female,2020-09-28_14h05.52.714,torte-2b,2020.1.3,Win32,60,13295,1.70472,,,,,0,9,9,109,1,,,,,,,,,,,,,,,,,,,,,,,,,,,,,,,,,,,,,,,,,,,,,,,,,,,,,,,,
,,,,,,,,,,,,l,Correct!,,,,,,t4.png,t1.png,3,0.0000131,19,female,2020-09-28_14h05.52.714,torte-2b,2020.1.3,Win32,60,13295,1.033105,,,,,0,10,10,13,1,,,,,,,,,,,,,,,,,,,,,,,,,,,,,,,,,,,,,,,,,,,,,,,,,,,,,,,,
,,,,,,,,,,,,,Too slow :(,,,,,,t5.png,t1.png,4,9.55E-11,19,female,2020-09-28_14h05.52.714,torte-2b,2020.1.3,Win32,60,13295,,,,,,0,11,11,43,1,,,,,,,,,,,,,,,,,,,,,,,,,,,,,,,,,,,,,,,,,,,,,,,,,,,,,,,,
,,,,,,,,,,,,l,Correct!,,,,,,t4.png,t2.png,2,0.0591,19,female,2020-09-28_14h05.52.714,torte-2b,2020.1.3,Win32,60,13295,2.447405,,,,,0,12,12,36,1,,,,,,,,,,,,,,,,,,,,,,,,,,,,,,,,,,,,,,,,,,,,,,,,,,,,,,,,
,,,,,,,,,,,,a,Correct!,,,,,,t4.png,t5.png,1,0.90025,19,female,2020-09-28_14h05.52.714,torte-2b,2020.1.3,Win32,60,13295,1.18247,,,,,0,13,13,103,1,,,,,,,,,,,,,,,,,,,,,,,,,,,,,,,,,,,,,,,,,,,,,,,,,,,,,,,,
,,,,,,,,,,,,,Too slow :(,,,,,,t2.png,t4.png,2,0.059078,19,female,2020-09-28_14h05.52.714,torte-2b,2020.1.3,Win32,60,13295,,,,,,0,14,14,24,1,,,,,,,,,,,,,,,,,,,,,,,,,,,,,,,,,,,,,,,,,,,,,,,,,,,,,,,,
,,,,,,,,,,,,,Too slow :(,,,,,,t4.png,t1.png,3,0.0000131,19,female,2020-09-28_14h05.52.714,torte-2b,2020.1.3,Win32,60,13295,,,,,,0,15,15,61,1,,,,,,,,,,,,,,,,,,,,,,,,,,,,,,,,,,,,,,,,,,,,,,,,,,,,,,,,
,,,,,,,,,,,,l,Incorrect,,,,,,t1.png,t2.png,1,0.90025,19,female,2020-09-28_14h05.52.714,torte-2b,2020.1.3,Win32,60,13295,1.6928,,,,,0,16,16,112,1,,,,,,,,,,,,,,,,,,,,,,,,,,,,,,,,,,,,,,,,,,,,,,,,,,,,,,,,
,,,,,,,,,,,,a,Correct!,,,,,,t2.png,t2.png,0,0.98115,19,female,2020-09-28_14h05.52.714,torte-2b,2020.1.3,Win32,60,13295,2.277755,,,,,0,17,17,7,1,,,,,,,,,,,,,,,,,,,,,,,,,,,,,,,,,,,,,,,,,,,,,,,,,,,,,,,,
,,,,,,,,,,,,a,Incorrect,,,,,,t3.png,t1.png,2,0.056466,19,female,2020-09-28_14h05.52.714,torte-2b,2020.1.3,Win32,60,13295,1.767385,,,,,0,18,18,0,1,,,,,,,,,,,,,,,,,,,,,,,,,,,,,,,,,,,,,,,,,,,,,,,,,,,,,,,,
,,,,,,,,,,,,,Too slow :(,,,,,,t4.png,t1.png,3,0.0000131,19,female,2020-09-28_14h05.52.714,torte-2b,2020.1.3,Win32,60,13295,,,,,,0,19,19,48,1,,,,,,,,,,,,,,,,,,,,,,,,,,,,,,,,,,,,,,,,,,,,,,,,,,,,,,,,
,,,,,,,,,,,,l,Correct!,,,,,,t5.png,t1.png,4,9.55E-11,19,female,2020-09-28_14h05.52.714,torte-2b,2020.1.3,Win32,60,13295,1.63639,,,,,0,20,20,71,1,,,,,,,,,,,,,,,,,,,,,,,,,,,,,,,,,,,,,,,,,,,,,,,,,,,,,,,,
,,,,,,,,,,,,a,Correct!,,,,,,t5.png,t5.png,0,0.97829,19,female,2020-09-28_14h05.52.714,torte-2b,2020.1.3,Win32,60,13295,1.91661,,,,,0,21,21,70,1,,,,,,,,,,,,,,,,,,,,,,,,,,,,,,,,,,,,,,,,,,,,,,,,,,,,,,,,
,,,,,,,,,,,,a,Correct!,,,,,,t3.png,t4.png,1,0.90855,19,female,2020-09-28_14h05.52.714,torte-2b,2020.1.3,Win32,60,13295,1.08261,,,,,0,22,22,84,1,,,,,,,,,,,,,,,,,,,,,,,,,,,,,,,,,,,,,,,,,,,,,,,,,,,,,,,,
,,,,,,,,,,,,l,Incorrect,,,,,,t2.png,t2.png,0,0.98115,19,female,2020-09-28_14h05.52.714,torte-2b,2020.1.3,Win32,60,13295,1.59214,,,,,0,23,23,2,1,,,,,,,,,,,,,,,,,,,,,,,,,,,,,,,,,,,,,,,,,,,,,,,,,,,,,,,,
,,,,,,,,,,,,l,Correct!,,,,,,t3.png,t1.png,2,0.056466,19,female,2020-09-28_14h05.52.714,torte-2b,2020.1.3,Win32,60,13295,1.265855,,,,,0,24,24,32,1,,,,,,,,,,,,,,,,,,,,,,,,,,,,,,,,,,,,,,,,,,,,,,,,,,,,,,,,
,,,,,,,,,,,,,Too slow :(,,,,,,t2.png,t5.png,3,0.0000131,19,female,2020-09-28_14h05.52.714,torte-2b,2020.1.3,Win32,60,13295,,,,,,0,25,25,8,1,,,,,,,,,,,,,,,,,,,,,,,,,,,,,,,,,,,,,,,,,,,,,,,,,,,,,,,,
,,,,,,,,,,,,,Too slow :(,,,,,,t4.png,t2.png,2,0.059078,19,female,2020-09-28_14h05.52.714,torte-2b,2020.1.3,Win32,60,13295,,,,,,0,26,26,110,1,,,,,,,,,,,,,,,,,,,,,,,,,,,,,,,,,,,,,,,,,,,,,,,,,,,,,,,,
,,,,,,,,,,,,l,Correct!,,,,,,t1.png,t4.png,3,0.0000131,19,female,2020-09-28_14h05.52.714,torte-2b,2020.1.3,Win32,60,13295,1.649215,,,,,0,27,27,50,1,,,,,,,,,,,,,,,,,,,,,,,,,,,,,,,,,,,,,,,,,,,,,,,,,,,,,,,,
,,,,,,,,,,,,a,Incorrect,,,,,,t1.png,t5.png,4,9.55E-11,19,female,2020-09-28_14h05.52.714,torte-2b,2020.1.3,Win32,60,13295,1.266205,,,,,0,28,28,85,1,,,,,,,,,,,,,,,,,,,,,,,,,,,,,,,,,,,,,,,,,,,,,,,,,,,,,,,,
,,,,,,,,,,,,l,Correct!,,,,,,t2.png,t1.png,1,0.90025,19,female,2020-09-28_14h05.52.714,torte-2b,2020.1.3,Win32,60,13295,0.71657,,,,,0,29,29,19,1,,,,,,,,,,,,,,,,,,,,,,,,,,,,,,,,,,,,,,,,,,,,,,,,,,,,,,,,
,,,,,,,,,,,,a,Incorrect,,,,,,t2.png,t5.png,3,0.0000131,19,female,2020-09-28_14h05.52.714,torte-2b,2020.1.3,Win32,60,13295,1.393325,,,,,0,30,30,66,1,,,,,,,,,,,,,,,,,,,,,,,,,,,,,,,,,,,,,,,,,,,,,,,,,,,,,,,,
,,,,,,,,,,,,l,Incorrect,,,,,,t2.png,t2.png,0,0.98115,19,female,2020-09-28_14h05.52.714,torte-2b,2020.1.3,Win32,60,13295,1.465975,,,,,0,31,31,59,1,,,,,,,,,,,,,,,,,,,,,,,,,,,,,,,,,,,,,,,,,,,,,,,,,,,,,,,,
,,,,,,,,,,,,l,Incorrect,,,,,,t1.png,t1.png,0,0.978,19,female,2020-09-28_14h05.52.714,torte-2b,2020.1.3,Win32,60,13295,0.68392,,,,,0,32,32,54,1,,,,,,,,,,,,,,,,,,,,,,,,,,,,,,,,,,,,,,,,,,,,,,,,,,,,,,,,
,,,,,,,,,,,,a,Correct!,,,,,,t2.png,t3.png,1,0.90855,19,female,2020-09-28_14h05.52.714,torte-2b,2020.1.3,Win32,60,13295,1.28491,,,,,0,33,33,111,1,,,,,,,,,,,,,,,,,,,,,,,,,,,,,,,,,,,,,,,,,,,,,,,,,,,,,,,,
,,,,,,,,,,,,,Too slow :(,,,,,,t1.png,t5.png,4,9.55E-11,19,female,2020-09-28_14h05.52.714,torte-2b,2020.1.3,Win32,60,13295,,,,,,0,34,34,55,1,,,,,,,,,,,,,,,,,,,,,,,,,,,,,,,,,,,,,,,,,,,,,,,,,,,,,,,,
,,,,,,,,,,,,l,Correct!,,,,,,t4.png,t1.png,3,0.0000131,19,female,2020-09-28_14h05.52.714,torte-2b,2020.1.3,Win32,60,13295,1.915105,,,,,0,35,35,42,1,,,,,,,,,,,,,,,,,,,,,,,,,,,,,,,,,,,,,,,,,,,,,,,,,,,,,,,,
,,,,,,,,,,,,a,Correct!,,,,,,t4.png,t5.png,1,0.90025,19,female,2020-09-28_14h05.52.714,torte-2b,2020.1.3,Win32,60,13295,1.7999,,,,,0,36,36,47,1,,,,,,,,,,,,,,,,,,,,,,,,,,,,,,,,,,,,,,,,,,,,,,,,,,,,,,,,
,,,,,,,,,,,,a,Correct!,,,,,,t1.png,t2.png,1,0.90025,19,female,2020-09-28_14h05.52.714,torte-2b,2020.1.3,Win32,60,13295,1.582145,,,,,0,37,37,72,1,,,,,,,,,,,,,,,,,,,,,,,,,,,,,,,,,,,,,,,,,,,,,,,,,,,,,,,,
,,,,,,,,,,,,a,Incorrect,,,,,,t1.png,t3.png,2,0.056466,19,female,2020-09-28_14h05.52.714,torte-2b,2020.1.3,Win32,60,13295,1.08318,,,,,0,38,38,87,1,,,,,,,,,,,,,,,,,,,,,,,,,,,,,,,,,,,,,,,,,,,,,,,,,,,,,,,,
,,,,,,,,,,,,l,Correct!,,,,,,t5.png,t2.png,3,0.0000131,19,female,2020-09-28_14h05.52.714,torte-2b,2020.1.3,Win32,60,13295,2.126585,,,,,0,39,39,119,1,,,,,,,,,,,,,,,,,,,,,,,,,,,,,,,,,,,,,,,,,,,,,,,,,,,,,,,,
,,,,,,,,,,,,a,Incorrect,,,,,,t5.png,t3.png,2,0.056466,19,female,2020-09-28_14h05.52.714,torte-2b,2020.1.3,Win32,60,13295,1.45954,,,,,0,40,40,108,1,,,,,,,,,,,,,,,,,,,,,,,,,,,,,,,,,,,,,,,,,,,,,,,,,,,,,,,,
,,,,,,,,,,,,a,Incorrect,,,,,,t5.png,t1.png,4,9.55E-11,19,female,2020-09-28_14h05.52.714,torte-2b,2020.1.3,Win32,60,13295,1.7986,,,,,0,41,41,102,1,,,,,,,,,,,,,,,,,,,,,,,,,,,,,,,,,,,,,,,,,,,,,,,,,,,,,,,,
,,,,,,,,,,,,a,Incorrect,,,,,,t5.png,t2.png,3,0.0000131,19,female,2020-09-28_14h05.52.714,torte-2b,2020.1.3,Win32,60,13295,1.870905,,,,,0,42,42,116,1,,,,,,,,,,,,,,,,,,,,,,,,,,,,,,,,,,,,,,,,,,,,,,,,,,,,,,,,
,,,,,,,,,,,,a,Incorrect,,,,,,t5.png,t3.png,2,0.056466,19,female,2020-09-28_14h05.52.714,torte-2b,2020.1.3,Win32,60,13295,0.904435,,,,,0,43,43,38,1,,,,,,,,,,,,,,,,,,,,,,,,,,,,,,,,,,,,,,,,,,,,,,,,,,,,,,,,
,,,,,,,,,,,,a,Correct!,,,,,,t2.png,t4.png,2,0.059078,19,female,2020-09-28_14h05.52.714,torte-2b,2020.1.3,Win32,60,13295,2.247785,,,,,0,44,44,77,1,,,,,,,,,,,,,,,,,,,,,,,,,,,,,,,,,,,,,,,,,,,,,,,,,,,,,,,,
,,,,,,,,,,,,,Too slow :(,,,,,,t5.png,t2.png,3,0.0000131,19,female,2020-09-28_14h05.52.714,torte-2b,2020.1.3,Win32,60,13295,,,,,,0,45,45,51,1,,,,,,,,,,,,,,,,,,,,,,,,,,,,,,,,,,,,,,,,,,,,,,,,,,,,,,,,
,,,,,,,,,,,,a,Incorrect,,,,,,t5.png,t3.png,2,0.056466,19,female,2020-09-28_14h05.52.714,torte-2b,2020.1.3,Win32,60,13295,1.64202,,,,,0,46,46,56,1,,,,,,,,,,,,,,,,,,,,,,,,,,,,,,,,,,,,,,,,,,,,,,,,,,,,,,,,
,,,,,,,,,,,,,Too slow :(,,,,,,t4.png,t3.png,1,0.909,19,female,2020-09-28_14h05.52.714,torte-2b,2020.1.3,Win32,60,13295,,,,,,0,47,47,20,1,,,,,,,,,,,,,,,,,,,,,,,,,,,,,,,,,,,,,,,,,,,,,,,,,,,,,,,,
,,,,,,,,,,,,l,Incorrect,,,,,,t1.png,t2.png,1,0.90025,19,female,2020-09-28_14h05.52.714,torte-2b,2020.1.3,Win32,60,13295,2.336555,,,,,0,48,48,33,1,,,,,,,,,,,,,,,,,,,,,,,,,,,,,,,,,,,,,,,,,,,,,,,,,,,,,,,,
,,,,,,,,,,,,l,Incorrect,,,,,,t4.png,t4.png,0,0.98115,19,female,2020-09-28_14h05.52.714,torte-2b,2020.1.3,Win32,60,13295,1.549,,,,,0,49,49,52,1,,,,,,,,,,,,,,,,,,,,,,,,,,,,,,,,,,,,,,,,,,,,,,,,,,,,,,,,
,,,,,,,,,,,,a,Correct!,,,,,,t2.png,t3.png,1,0.90855,19,female,2020-09-28_14h05.52.714,torte-2b,2020.1.3,Win32,60,13295,1.50777,,,,,0,50,50,10,1,,,,,,,,,,,,,,,,,,,,,,,,,,,,,,,,,,,,,,,,,,,,,,,,,,,,,,,,
,,,,,,,,,,,,l,Correct!,,,,,,t1.png,t4.png,3,0.0000131,19,female,2020-09-28_14h05.52.714,torte-2b,2020.1.3,Win32,60,13295,1.55513,,,,,0,51,51,107,1,,,,,,,,,,,,,,,,,,,,,,,,,,,,,,,,,,,,,,,,,,,,,,,,,,,,,,,,
,,,,,,,,,,,,,Too slow :(,,,,,,t3.png,t2.png,1,0.90855,19,female,2020-09-28_14h05.52.714,torte-2b,2020.1.3,Win32,60,13295,,,,,,0,52,52,53,1,,,,,,,,,,,,,,,,,,,,,,,,,,,,,,,,,,,,,,,,,,,,,,,,,,,,,,,,
,,,,,,,,,,,,,Too slow :(,,,,,,t1.png,t5.png,4,9.55E-11,19,female,2020-09-28_14h05.52.714,torte-2b,2020.1.3,Win32,60,13295,,,,,,0,53,53,41,1,,,,,,,,,,,,,,,,,,,,,,,,,,,,,,,,,,,,,,,,,,,,,,,,,,,,,,,,
,,,,,,,,,,,,,Too slow :(,,,,,,t2.png,t1.png,1,0.9,19,female,2020-09-28_14h05.52.714,torte-2b,2020.1.3,Win32,60,13295,,,,,,0,54,54,118,1,,,,,,,,,,,,,,,,,,,,,,,,,,,,,,,,,,,,,,,,,,,,,,,,,,,,,,,,
,,,,,,,,,,,,l,Correct!,,,,,,t2.png,t4.png,2,0.059078,19,female,2020-09-28_14h05.52.714,torte-2b,2020.1.3,Win32,60,13295,2.32146,,,,,0,55,55,11,1,,,,,,,,,,,,,,,,,,,,,,,,,,,,,,,,,,,,,,,,,,,,,,,,,,,,,,,,
,,,,,,,,,,,,,Too slow :(,,,,,,t5.png,t3.png,2,0.056466,19,female,2020-09-28_14h05.52.714,torte-2b,2020.1.3,Win32,60,13295,,,,,,0,56,56,114,1,,,,,,,,,,,,,,,,,,,,,,,,,,,,,,,,,,,,,,,,,,,,,,,,,,,,,,,,
,,,,,,,,,,,,l,Incorrect,,,,,,t2.png,t1.png,1,0.90025,19,female,2020-09-28_14h05.52.714,torte-2b,2020.1.3,Win32,60,13295,1.573395,,,,,0,57,57,62,1,,,,,,,,,,,,,,,,,,,,,,,,,,,,,,,,,,,,,,,,,,,,,,,,,,,,,,,,
,,,,,,,,,,,,a,Correct!,,,,,,t2.png,t1.png,1,0.90025,19,female,2020-09-28_14h05.52.714,torte-2b,2020.1.3,Win32,60,13295,1.88231,,,,,0,58,58,4,1,,,,,,,,,,,,,,,,,,,,,,,,,,,,,,,,,,,,,,,,,,,,,,,,,,,,,,,,
,,,,,,,,,,,,,Too slow :(,,,,,,t3.png,t5.png,2,0.056466,19,female,2020-09-28_14h05.52.714,torte-2b,2020.1.3,Win32,60,13295,,,,,,0,59,59,14,1,,,,,,,,,,,,,,,,,,,,,,,,,,,,,,,,,,,,,,,,,,,,,,,,,,,,,,,,
,,,,,,,,,,,,,Too slow :(,,,,,,t5.png,t5.png,0,0.97829,19,female,2020-09-28_14h05.52.714,torte-2b,2020.1.3,Win32,60,13295,,,,,,0,60,60,25,1,,,,,,,,,,,,,,,,,,,,,,,,,,,,,,,,,,,,,,,,,,,,,,,,,,,,,,,,
,,,,,,,,,,,,l,Correct!,,,,,,t4.png,t2.png,2,0.059078,19,female,2020-09-28_14h05.52.714,torte-2b,2020.1.3,Win32,60,13295,1.44878,,,,,0,61,61,86,1,,,,,,,,,,,,,,,,,,,,,,,,,,,,,,,,,,,,,,,,,,,,,,,,,,,,,,,,
,,,,,,,,,,,,a,Incorrect,,,,,,t5.png,t2.png,3,0.0000131,19,female,2020-09-28_14h05.52.714,torte-2b,2020.1.3,Win32,60,13295,2.16425,,,,,0,62,62,91,1,,,,,,,,,,,,,,,,,,,,,,,,,,,,,,,,,,,,,,,,,,,,,,,,,,,,,,,,
,,,,,,,,,,,,a,Incorrect,,,,,,t3.png,t5.png,2,0.0565,19,female,2020-09-28_14h05.52.714,torte-2b,2020.1.3,Win32,60,13295,1.84835,,,,,0,63,63,83,1,,,,,,,,,,,,,,,,,,,,,,,,,,,,,,,,,,,,,,,,,,,,,,,,,,,,,,,,
,,,,,,,,,,,,a,Incorrect,,,,,,t5.png,t3.png,2,0.0565,19,female,2020-09-28_14h05.52.714,torte-2b,2020.1.3,Win32,60,13295,1.637155,,,,,0,64,64,39,1,,,,,,,,,,,,,,,,,,,,,,,,,,,,,,,,,,,,,,,,,,,,,,,,,,,,,,,,
,,,,,,,,,,,,l,Correct!,,,,,,t2.png,t4.png,2,0.059078,19,female,2020-09-28_14h05.52.714,torte-2b,2020.1.3,Win32,60,13295,2.14607,,,,,0,65,65,37,1,,,,,,,,,,,,,,,,,,,,,,,,,,,,,,,,,,,,,,,,,,,,,,,,,,,,,,,,
,,,,,,,,,,,,l,Correct!,,,,,,t3.png,t1.png,2,0.056466,19,female,2020-09-28_14h05.52.714,torte-2b,2020.1.3,Win32,60,13295,1.03544,,,,,0,66,66,29,1,,,,,,,,,,,,,,,,,,,,,,,,,,,,,,,,,,,,,,,,,,,,,,,,,,,,,,,,
,,,,,,,,,,,,l,Incorrect,,,,,,t4.png,t4.png,0,0.98115,19,female,2020-09-28_14h05.52.714,torte-2b,2020.1.3,Win32,60,13295,2.116455,,,,,0,67,67,90,1,,,,,,,,,,,,,,,,,,,,,,,,,,,,,,,,,,,,,,,,,,,,,,,,,,,,,,,,
,,,,,,,,,,,,a,Incorrect,,,,,,t1.png,t3.png,2,0.056466,19,female,2020-09-28_14h05.52.714,torte-2b,2020.1.3,Win32,60,13295,1.565235,,,,,0,68,68,99,1,,,,,,,,,,,,,,,,,,,,,,,,,,,,,,,,,,,,,,,,,,,,,,,,,,,,,,,,
,,,,,,,,,,,,l,Correct!,,,,,,t5.png,t1.png,4,9.55E-11,19,female,2020-09-28_14h05.52.714,torte-2b,2020.1.3,Win32,60,13295,0.88324,,,,,0,69,69,100,1,,,,,,,,,,,,,,,,,,,,,,,,,,,,,,,,,,,,,,,,,,,,,,,,,,,,,,,,
,,,,,,,,,,,,a,Incorrect,,,,,,t4.png,t3.png,1,0.909,19,female,2020-09-28_14h05.52.714,torte-2b,2020.1.3,Win32,60,13295,1.420625,,,,,0,70,70,46,1,,,,,,,,,,,,,,,,,,,,,,,,,,,,,,,,,,,,,,,,,,,,,,,,,,,,,,,,
,,,,,,,,,,,,l,Correct!,,,,,,t1.png,t4.png,3,0.0000131,19,female,2020-09-28_14h05.52.714,torte-2b,2020.1.3,Win32,60,13295,1.61527,,,,,0,71,71,81,1,,,,,,,,,,,,,,,,,,,,,,,,,,,,,,,,,,,,,,,,,,,,,,,,,,,,,,,,
,,,,,,,,,,,,l,Incorrect,,,,,,t5.png,t4.png,1,0.9,19,female,2020-09-28_14h05.52.714,torte-2b,2020.1.3,Win32,60,13295,1.68216,,,,,0,72,72,76,1,,,,,,,,,,,,,,,,,,,,,,,,,,,,,,,,,,,,,,,,,,,,,,,,,,,,,,,,
,,,,,,,,,,,,a,Incorrect,,,,,,t1.png,t3.png,2,0.056466,19,female,2020-09-28_14h05.52.714,torte-2b,2020.1.3,Win32,60,13295,1.38841,,,,,0,73,73,60,1,,,,,,,,,,,,,,,,,,,,,,,,,,,,,,,,,,,,,,,,,,,,,,,,,,,,,,,,
,,,,,,,,,,,,l,Correct!,,,,,,t3.png,t5.png,2,0.056466,19,female,2020-09-28_14h05.52.714,torte-2b,2020.1.3,Win32,60,13295,2.38082,,,,,0,74,74,6,1,,,,,,,,,,,,,,,,,,,,,,,,,,,,,,,,,,,,,,,,,,,,,,,,,,,,,,,,
,,,,,,,,,,,,l,Incorrect,,,,,,t1.png,t2.png,1,0.9,19,female,2020-09-28_14h05.52.714,torte-2b,2020.1.3,Win32,60,13295,1.089,,,,,0,75,75,1,1,,,,,,,,,,,,,,,,,,,,,,,,,,,,,,,,,,,,,,,,,,,,,,,,,,,,,,,,
,,,,,,,,,,,,a,Incorrect,,,,,,t4.png,t1.png,3,0.0000131,19,female,2020-09-28_14h05.52.714,torte-2b,2020.1.3,Win32,60,13295,1.182755,,,,,0,76,76,93,1,,,,,,,,,,,,,,,,,,,,,,,,,,,,,,,,,,,,,,,,,,,,,,,,,,,,,,,,
,,,,,,,,,,,,l,Incorrect,,,,,,t5.png,t4.png,1,0.9,19,female,2020-09-28_14h05.52.714,torte-2b,2020.1.3,Win32,60,13295,0.832005,,,,,0,77,77,49,1,,,,,,,,,,,,,,,,,,,,,,,,,,,,,,,,,,,,,,,,,,,,,,,,,,,,,,,,
,,,,,,,,,,,,l,Correct!,,,,,,t5.png,t1.png,4,9.55E-11,19,female,2020-09-28_14h05.52.714,torte-2b,2020.1.3,Win32,60,13295,2.397535,,,,,0,78,78,22,1,,,,,,,,,,,,,,,,,,,,,,,,,,,,,,,,,,,,,,,,,,,,,,,,,,,,,,,,
,,,,,,,,,,,,l,Correct!,,,,,,t3.png,t1.png,2,0.056466,19,female,2020-09-28_14h05.52.714,torte-2b,2020.1.3,Win32,60,13295,1.09222,,,,,0,79,79,64,1,,,,,,,,,,,,,,,,,,,,,,,,,,,,,,,,,,,,,,,,,,,,,,,,,,,,,,,,
,,,,,,,,,,,,,Too slow :(,,,,,,t1.png,t3.png,2,0.056466,19,female,2020-09-28_14h05.52.714,torte-2b,2020.1.3,Win32,60,13295,,,,,,0,80,80,63,1,,,,,,,,,,,,,,,,,,,,,,,,,,,,,,,,,,,,,,,,,,,,,,,,,,,,,,,,
,,,,,,,,,,,,l,Incorrect,,,,,,t1.png,t1.png,0,0.97829,19,female,2020-09-28_14h05.52.714,torte-2b,2020.1.3,Win32,60,13295,0.81631,,,,,0,81,81,78,1,,,,,,,,,,,,,,,,,,,,,,,,,,,,,,,,,,,,,,,,,,,,,,,,,,,,,,,,
,,,,,,,,,,,,a,Correct!,,,,,,t1.png,t2.png,1,0.90025,19,female,2020-09-28_14h05.52.714,torte-2b,2020.1.3,Win32,60,13295,1.731745,,,,,0,82,82,105,1,,,,,,,,,,,,,,,,,,,,,,,,,,,,,,,,,,,,,,,,,,,,,,,,,,,,,,,,
,,,,,,,,,,,,a,Correct!,,,,,,t2.png,t3.png,1,0.909,19,female,2020-09-28_14h05.52.714,torte-2b,2020.1.3,Win32,60,13295,1.5653,,,,,0,83,83,74,1,,,,,,,,,,,,,,,,,,,,,,,,,,,,,,,,,,,,,,,,,,,,,,,,,,,,,,,,
,,,,,,,,,,,,l,Correct!,,,,,,t1.png,t5.png,4,9.55E-11,19,female,2020-09-28_14h05.52.714,torte-2b,2020.1.3,Win32,60,13295,2.32975,,,,,0,84,84,12,1,,,,,,,,,,,,,,,,,,,,,,,,,,,,,,,,,,,,,,,,,,,,,,,,,,,,,,,,
,,,,,,,,,,,,l,Incorrect,,,,,,t5.png,t4.png,1,0.90025,19,female,2020-09-28_14h05.52.714,torte-2b,2020.1.3,Win32,60,13295,1.983735,,,,,0,85,85,34,1,,,,,,,,,,,,,,,,,,,,,,,,,,,,,,,,,,,,,,,,,,,,,,,,,,,,,,,,
,,,,,,,,,,,,l,Correct!,,,,,,t5.png,t4.png,1,0.90025,19,female,2020-09-28_14h05.52.714,torte-2b,2020.1.3,Win32,60,13295,2.148045,,,,,0,86,86,26,1,,,,,,,,,,,,,,,,,,,,,,,,,,,,,,,,,,,,,,,,,,,,,,,,,,,,,,,,
,,,,,,,,,,,,l,Incorrect,,,,,,t1.png,t1.png,0,0.978,19,female,2020-09-28_14h05.52.714,torte-2b,2020.1.3,Win32,60,13295,0.938785,,,,,0,87,87,28,1,,,,,,,,,,,,,,,,,,,,,,,,,,,,,,,,,,,,,,,,,,,,,,,,,,,,,,,,
,,,,,,,,,,,,l,Incorrect,,,,,,t4.png,t4.png,0,0.98115,19,female,2020-09-28_14h05.52.714,torte-2b,2020.1.3,Win32,60,13295,2.014465,,,,,0,88,88,79,1,,,,,,,,,,,,,,,,,,,,,,,,,,,,,,,,,,,,,,,,,,,,,,,,,,,,,,,,
,,,,,,,,,,,,a,Correct!,,,,,,t3.png,t2.png,1,0.90855,19,female,2020-09-28_14h05.52.714,torte-2b,2020.1.3,Win32,60,13295,2.181265,,,,,0,89,89,18,1,,,,,,,,,,,,,,,,,,,,,,,,,,,,,,,,,,,,,,,,,,,,,,,,,,,,,,,,
,,,,,,,,,,,,a,Correct!,,,,,,t3.png,t2.png,1,0.909,19,female,2020-09-28_14h05.52.714,torte-2b,2020.1.3,Win32,60,13295,1.84825,,,,,0,90,90,23,1,,,,,,,,,,,,,,,,,,,,,,,,,,,,,,,,,,,,,,,,,,,,,,,,,,,,,,,,
,,,,,,,,,,,,l,Incorrect,,,,,,t5.png,t5.png,0,0.97829,19,female,2020-09-28_14h05.52.714,torte-2b,2020.1.3,Win32,60,13295,1.083025,,,,,0,91,91,73,1,,,,,,,,,,,,,,,,,,,,,,,,,,,,,,,,,,,,,,,,,,,,,,,,,,,,,,,,
,,,,,,,,,,,,a,Incorrect,,,,,,t1.png,t3.png,2,0.056466,19,female,2020-09-28_14h05.52.714,torte-2b,2020.1.3,Win32,60,13295,1.91508,,,,,0,92,92,69,1,,,,,,,,,,,,,,,,,,,,,,,,,,,,,,,,,,,,,,,,,,,,,,,,,,,,,,,,
,,,,,,,,,,,,a,Incorrect,,,,,,t1.png,t4.png,3,0.0000131,19,female,2020-09-28_14h05.52.714,torte-2b,2020.1.3,Win32,60,13295,2.164545,,,,,0,93,93,17,1,,,,,,,,,,,,,,,,,,,,,,,,,,,,,,,,,,,,,,,,,,,,,,,,,,,,,,,,
,,,,,,,,,,,,l,Incorrect,,,,,,t3.png,t4.png,1,0.909,19,female,2020-09-28_14h05.52.714,torte-2b,2020.1.3,Win32,60,13295,1.598015,,,,,0,94,94,82,1,,,,,,,,,,,,,,,,,,,,,,,,,,,,,,,,,,,,,,,,,,,,,,,,,,,,,,,,
,,,,,,,,,,,,a,Correct!,,,,,,t3.png,t2.png,1,0.909,19,female,2020-09-28_14h05.52.714,torte-2b,2020.1.3,Win32,60,13295,2.09793,,,,,0,95,95,3,1,,,,,,,,,,,,,,,,,,,,,,,,,,,,,,,,,,,,,,,,,,,,,,,,,,,,,,,,
,,,,,,,,,,,,l,Correct!,,,,,,t2.png,t4.png,2,0.0591,19,female,2020-09-28_14h05.52.714,torte-2b,2020.1.3,Win32,60,13295,1.98137,,,,,0,96,96,15,1,,,,,,,,,,,,,,,,,,,,,,,,,,,,,,,,,,,,,,,,,,,,,,,,,,,,,,,,
,,,,,,,,,,,,l,Incorrect,,,,,,t3.png,t4.png,1,0.909,19,female,2020-09-28_14h05.52.714,torte-2b,2020.1.3,Win32,60,13295,2.307335,,,,,0,97,97,89,1,,,,,,,,,,,,,,,,,,,,,,,,,,,,,,,,,,,,,,,,,,,,,,,,,,,,,,,,
,,,,,,,,,,,,a,Correct!,,,,,,t5.png,t5.png,0,0.978,19,female,2020-09-28_14h05.52.714,torte-2b,2020.1.3,Win32,60,13295,1.48655,,,,,0,98,98,117,1,,,,,,,,,,,,,,,,,,,,,,,,,,,,,,,,,,,,,,,,,,,,,,,,,,,,,,,,
,,,,,,,,,,,,,Too slow :(,,,,,,t4.png,t5.png,1,0.9,19,female,2020-09-28_14h05.52.714,torte-2b,2020.1.3,Win32,60,13295,,,,,,0,99,99,115,1,,,,,,,,,,,,,,,,,,,,,,,,,,,,,,,,,,,,,,,,,,,,,,,,,,,,,,,,
,,,,,,,,,,,,a,Correct!,,,,,,t4.png,t3.png,1,0.90855,19,female,2020-09-28_14h05.52.714,torte-2b,2020.1.3,Win32,60,13295,1.86261,,,,,0,100,100,45,1,,,,,,,,,,,,,,,,,,,,,,,,,,,,,,,,,,,,,,,,,,,,,,,,,,,,,,,,
,,,,,,,,,,,,l,Incorrect,,,,,,t2.png,t2.png,0,0.98115,19,female,2020-09-28_14h05.52.714,torte-2b,2020.1.3,Win32,60,13295,2.29775,,,,,0,101,101,57,1,,,,,,,,,,,,,,,,,,,,,,,,,,,,,,,,,,,,,,,,,,,,,,,,,,,,,,,,
,,,,,,,,,,,,a,Correct!,,,,,,t3.png,t4.png,1,0.909,19,female,2020-09-28_14h05.52.714,torte-2b,2020.1.3,Win32,60,13295,1.57355,,,,,0,102,102,106,1,,,,,,,,,,,,,,,,,,,,,,,,,,,,,,,,,,,,,,,,,,,,,,,,,,,,,,,,
,,,,,,,,,,,,a,Incorrect,,,,,,t3.png,t5.png,2,0.056466,19,female,2020-09-28_14h05.52.714,torte-2b,2020.1.3,Win32,60,13295,1.7253,,,,,0,103,103,44,1,,,,,,,,,,,,,,,,,,,,,,,,,,,,,,,,,,,,,,,,,,,,,,,,,,,,,,,,
,,,,,,,,,,,,l,Correct!,,,,,,t3.png,t1.png,2,0.0565,19,female,2020-09-28_14h05.52.714,torte-2b,2020.1.3,Win32,60,13295,1.38189,,,,,0,104,104,31,1,,,,,,,,,,,,,,,,,,,,,,,,,,,,,,,,,,,,,,,,,,,,,,,,,,,,,,,,
,,,,,,,,,,,,,Too slow :(,,,,,,t4.png,t4.png,0,0.98115,19,female,2020-09-28_14h05.52.714,torte-2b,2020.1.3,Win32,60,13295,,,,,,0,105,105,80,1,,,,,,,,,,,,,,,,,,,,,,,,,,,,,,,,,,,,,,,,,,,,,,,,,,,,,,,,
,,,,,,,,,,,,l,Correct!,,,,,,t1.png,t4.png,3,0.0000131,19,female,2020-09-28_14h05.52.714,torte-2b,2020.1.3,Win32,60,13295,1.617565,,,,,0,106,106,92,1,,,,,,,,,,,,,,,,,,,,,,,,,,,,,,,,,,,,,,,,,,,,,,,,,,,,,,,,
,,,,,,,,,,,,l,Incorrect,,,,,,t1.png,t1.png,0,0.97829,19,female,2020-09-28_14h05.52.714,torte-2b,2020.1.3,Win32,60,13295,1.266145,,,,,0,107,107,67,1,,,,,,,,,,,,,,,,,,,,,,,,,,,,,,,,,,,,,,,,,,,,,,,,,,,,,,,,
,,,,,,,,,,,,,Too slow :(,,,,,,t3.png,t4.png,1,0.90855,19,female,2020-09-28_14h05.52.714,torte-2b,2020.1.3,Win32,60,13295,,,,,,0,108,108,96,1,,,,,,,,,,,,,,,,,,,,,,,,,,,,,,,,,,,,,,,,,,,,,,,,,,,,,,,,
,,,,,,,,,,,,a,Correct!,,,,,,t2.png,t2.png,0,0.981,19,female,2020-09-28_14h05.52.714,torte-2b,2020.1.3,Win32,60,13295,2.090415,,,,,0,109,109,101,1,,,,,,,,,,,,,,,,,,,,,,,,,,,,,,,,,,,,,,,,,,,,,,,,,,,,,,,,
,,,,,,,,,,,,a,Incorrect,,,,,,t3.png,t5.png,2,0.0565,19,female,2020-09-28_14h05.52.714,torte-2b,2020.1.3,Win32,60,13295,2.148185,,,,,0,110,110,30,1,,,,,,,,,,,,,,,,,,,,,,,,,,,,,,,,,,,,,,,,,,,,,,,,,,,,,,,,
,,,,,,,,,,,,l,Incorrect,,,,,,t4.png,t5.png,1,0.90025,19,female,2020-09-28_14h05.52.714,torte-2b,2020.1.3,Win32,60,13295,2.44764,,,,,0,111,111,113,1,,,,,,,,,,,,,,,,,,,,,,,,,,,,,,,,,,,,,,,,,,,,,,,,,,,,,,,,
,,,,,,,,,,,,a,Correct!,,,,,,t2.png,t3.png,1,0.90855,19,female,2020-09-28_14h05.52.714,torte-2b,2020.1.3,Win32,60,13295,1.565445,,,,,0,112,112,65,1,,,,,,,,,,,,,,,,,,,,,,,,,,,,,,,,,,,,,,,,,,,,,,,,,,,,,,,,
,,,,,,,,,,,,l,Incorrect,,,,,,t2.png,t1.png,1,0.90025,19,female,2020-09-28_14h05.52.714,torte-2b,2020.1.3,Win32,60,13295,0.916635,,,,,0,113,113,5,1,,,,,,,,,,,,,,,,,,,,,,,,,,,,,,,,,,,,,,,,,,,,,,,,,,,,,,,,
,,,,,,,,,,,,l,Incorrect,,,,,,t4.png,t4.png,0,0.98115,19,female,2020-09-28_14h05.52.714,torte-2b,2020.1.3,Win32,60,13295,2.16717,,,,,0,114,114,21,1,,,,,,,,,,,,,,,,,,,,,,,,,,,,,,,,,,,,,,,,,,,,,,,,,,,,,,,,
,,,,,,,,,,,,l,Incorrect,,,,,,t1.png,t1.png,0,0.97829,19,female,2020-09-28_14h05.52.714,torte-2b,2020.1.3,Win32,60,13295,1.08258,,,,,0,115,115,9,1,,,,,,,,,,,,,,,,,,,,,,,,,,,,,,,,,,,,,,,,,,,,,,,,,,,,,,,,
,,,,,,,,,,,,a,Incorrect,,,,,,t5.png,t2.png,3,0.0000131,19,female,2020-09-28_14h05.52.714,torte-2b,2020.1.3,Win32,60,13295,1.392285,,,,,0,116,116,98,1,,,,,,,,,,,,,,,,,,,,,,,,,,,,,,,,,,,,,,,,,,,,,,,,,,,,,,,,
,,,,,,,,,,,,l,Incorrect,,,,,,t3.png,t2.png,1,0.90855,19,female,2020-09-28_14h05.52.714,torte-2b,2020.1.3,Win32,60,13295,1.083415,,,,,0,117,117,97,1,,,,,,,,,,,,,,,,,,,,,,,,,,,,,,,,,,,,,,,,,,,,,,,,,,,,,,,,
,,,,,,,,,,,,l,Correct!,,,,,,t5.png,t4.png,1,0.90025,19,female,2020-09-28_14h05.52.714,torte-2b,2020.1.3,Win32,60,13295,2.065755,,,,,0,118,118,27,1,,,,,,,,,,,,,,,,,,,,,,,,,,,,,,,,,,,,,,,,,,,,,,,,,,,,,,,,
,,,,,,,,,,,,a,Incorrect,,,,,,t4.png,t2.png,2,0.059078,19,female,2020-09-28_14h05.52.714,torte-2b,2020.1.3,Win32,60,13295,1.6,,,,,0,119,119,88,1,,,,,,,,,,,,,,,,,,,,,,,,,,,,,,,,,,,,,,,,,,,,,,,,,,,,,,,,
,,,,,,,,,,,,,,,,,,,,,,,19,female,2020-09-28_14h05.52.714,torte-2b,2020.1.3,Win32,60,13295,,space,1.105535,,,,,,,,space,28.83842,,0,0,0,0,1,6,,,,,,,,,,,,,,,,,,,,,,,,,,,,,,,,,,,,,,,,,,,,,,,
,,,,,,,,,,,,,,,,,,,,,,,19,female,2020-09-28_14h05.52.714,torte-2b,2020.1.3,Win32,60,13295,,,,,,,,,,,,,,0,1,1,1,1,7,,,,,,,,,,,,,,,,,,,,,,,,,,,,,,,,,,,,,,,,,,,,,,,
,,,,,,,,,,,,,,,,,,,,,,,19,female,2020-09-28_14h05.52.714,torte-2b,2020.1.3,Win32,60,13295,,,,,,,,,,,,,space,0,2,2,2,1,6,0.601175,,,,,,,,,,,,,,,,,,,,,,,,,,,,,,,,,,,,,,,,,,,,,,
,,,,,,,,,,,,,,,,,,,,,,,19,female,2020-09-28_14h05.52.714,torte-2b,2020.1.3,Win32,60,13295,,,,,,,,,,,,,space,0,3,3,3,1,7,0.62645,,,,,,,,,,,,,,,,,,,,,,,,,,,,,,,,,,,,,,,,,,,,,,
,,,,,,,,,,,,,,,,,,,,,,,19,female,2020-09-28_14h05.52.714,torte-2b,2020.1.3,Win32,60,13295,,,,,,,,,,,,,,0,4,4,4,1,5,,,,,,,,,,,,,,,,,,,,,,,,,,,,,,,,,,,,,,,,,,,,,,,
,,,,,,,,,,,,,,,,,,,,,,,19,female,2020-09-28_14h05.52.714,torte-2b,2020.1.3,Win32,60,13295,,,,,,,,,,,,,space,0,5,5,5,1,7,0.350975,,,,,,,,,,,,,,,,,,,,,,,,,,,,,,,,,,,,,,,,,,,,,,
,,,,,,,,,,,,,,,,,,,,,,,19,female,2020-09-28_14h05.52.714,torte-2b,2020.1.3,Win32,60,13295,,,,,,,,,,,,,,0,6,6,6,1,2,,,,,,,,,,,,,,,,,,,,,,,,,,,,,,,,,,,,,,,,,,,,,,,
,,,,,,,,,,,,,,,,,,,,,,,19,female,2020-09-28_14h05.52.714,torte-2b,2020.1.3,Win32,60,13295,,,,,,,,,,,,,,0,7,7,7,1,4,,,,,,,,,,,,,,,,,,,,,,,,,,,,,,,,,,,,,,,,,,,,,,,
,,,,,,,,,,,,,,,,,,,,,,,19,female,2020-09-28_14h05.52.714,torte-2b,2020.1.3,Win32,60,13295,,,,,,,,,,,,,,0,8,8,8,1,7,,,,,,,,,,,,,,,,,,,,,,,,,,,,,,,,,,,,,,,,,,,,,,,
,,,,,,,,,,,,,,,,,,,,,,,19,female,2020-09-28_14h05.52.714,torte-2b,2020.1.3,Win32,60,13295,,,,,,,,,,,,,space,0,9,9,9,1,4,0.369365,,,,,,,,,,,,,,,,,,,,,,,,,,,,,,,,,,,,,,,,,,,,,,
,,,,,,,,,,,,,,,,,,,,,,,19,female,2020-09-28_14h05.52.714,torte-2b,2020.1.3,Win32,60,13295,,,,,,,,,,,,,,0,10,10,10,1,7,,,,,,,,,,,,,,,,,,,,,,,,,,,,,,,,,,,,,,,,,,,,,,,
,,,,,,,,,,,,,,,,,,,,,,,19,female,2020-09-28_14h05.52.714,torte-2b,2020.1.3,Win32,60,13295,,,,,,,,,,,,,space,0,11,11,11,1,7,0.607925,,,,,,,,,,,,,,,,,,,,,,,,,,,,,,,,,,,,,,,,,,,,,,
,,,,,,,,,,,,,,,,,,,,,,,19,female,2020-09-28_14h05.52.714,torte-2b,2020.1.3,Win32,60,13295,,,,,,,,,,,,,,0,12,12,12,1,7,,,,,,,,,,,,,,,,,,,,,,,,,,,,,,,,,,,,,,,,,,,,,,,
,,,,,,,,,,,,,,,,,,,,,,,19,female,2020-09-28_14h05.52.714,torte-2b,2020.1.3,Win32,60,13295,,,,,,,,,,,,,,0,13,13,13,1,4,,,,,,,,,,,,,,,,,,,,,,,,,,,,,,,,,,,,,,,,,,,,,,,
,,,,,,,,,,,,,,,,,,,,,,,19,female,2020-09-28_14h05.52.714,torte-2b,2020.1.3,Win32,60,13295,,,,,,,,,,,,,,0,14,14,14,1,6,,,,,,,,,,,,,,,,,,,,,,,,,,,,,,,,,,,,,,,,,,,,,,,
,,,,,,,,,,,,,,,,,,,,,,,19,female,2020-09-28_14h05.52.714,torte-2b,2020.1.3,Win32,60,13295,,,,,,,,,,,,,space,0,15,15,15,1,4,0.555425,,,,,,,,,,,,,,,,,,,,,,,,,,,,,,,,,,,,,,,,,,,,,,
,,,,,,,,,,,,,,,,,,,,,,,19,female,2020-09-28_14h05.52.714,torte-2b,2020.1.3,Win32,60,13295,,,,,,,,,,,,,space,0,16,16,16,1,6,0.991305,,,,,,,,,,,,,,,,,,,,,,,,,,,,,,,,,,,,,,,,,,,,,,
,,,,,,,,,,,,,,,,,,,,,,,19,female,2020-09-28_14h05.52.714,torte-2b,2020.1.3,Win32,60,13295,,,,,,,,,,,,,,0,17,17,17,1,7,,,,,,,,,,,,,,,,,,,,,,,,,,,,,,,,,,,,,,,,,,,,,,,
,,,,,,,,,,,,,,,,,,,,,,,19,female,2020-09-28_14h05.52.714,torte-2b,2020.1.3,Win32,60,13295,,,,,,,,,,,,,space,0,18,18,18,1,6,0.3841,,,,,,,,,,,,,,,,,,,,,,,,,,,,,,,,,,,,,,,,,,,,,,
,,,,,,,,,,,,,,,,,,,,,,,19,female,2020-09-28_14h05.52.714,torte-2b,2020.1.3,Win32,60,13295,,,,,,,,,,,,,space,0,19,19,19,1,7,0.45089,,,,,,,,,,,,,,,,,,,,,,,,,,,,,,,,,,,,,,,,,,,,,,
,,,,,,,,,,,,,,,,,,,,,,,19,female,2020-09-28_14h05.52.714,torte-2b,2020.1.3,Win32,60,13295,,,,,,,,,,,,,,0,20,20,20,1,5,,,,,,,,,,,,,,,,,,,,,,,,,,,,,,,,,,,,,,,,,,,,,,,
,,,,,,,,,,,,,,,,,,,,,,,19,female,2020-09-28_14h05.52.714,torte-2b,2020.1.3,Win32,60,13295,,,,,,,,,,,,,space,0,21,21,21,1,1,0.53646,,,,,,,,,,,,,,,,,,,,,,,,,,,,,,,,,,,,,,,,,,,,,,
,,,,,,,,,,,,,,,,,,,,,,,19,female,2020-09-28_14h05.52.714,torte-2b,2020.1.3,Win32,60,13295,,,,,,,,,,,,,,0,22,22,22,1,6,,,,,,,,,,,,,,,,,,,,,,,,,,,,,,,,,,,,,,,,,,,,,,,
,,,,,,,,,,,,,,,,,,,,,,,19,female,2020-09-28_14h05.52.714,torte-2b,2020.1.3,Win32,60,13295,,,,,,,,,,,,,space,0,23,23,23,1,1,0.36763,,,,,,,,,,,,,,,,,,,,,,,,,,,,,,,,,,,,,,,,,,,,,,
,,,,,,,,,,,,,,,,,,,,,,,19,female,2020-09-28_14h05.52.714,torte-2b,2020.1.3,Win32,60,13295,,,,,,,,,,,,,,0,24,24,24,1,5,,,,,,,,,,,,,,,,,,,,,,,,,,,,,,,,,,,,,,,,,,,,,,,
,,,,,,,,,,,,,,,,,,,,,,,19,female,2020-09-28_14h05.52.714,torte-2b,2020.1.3,Win32,60,13295,,,,,,,,,,,,,,0,25,25,25,1,6,,,,,,,,,,,,,,,,,,,,,,,,,,,,,,,,,,,,,,,,,,,,,,,
,,,,,,,,,,,,,,,,,,,,,,,19,female,2020-09-28_14h05.52.714,torte-2b,2020.1.3,Win32,60,13295,,,,,,,,,,,,,,0,26,26,26,1,6,,,,,,,,,,,,,,,,,,,,,,,,,,,,,,,,,,,,,,,,,,,,,,,
,,,,,,,,,,,,,,,,,,,,,,,19,female,2020-09-28_14h05.52.714,torte-2b,2020.1.3,Win32,60,13295,,,,,,,,,,,,,space,0,27,27,27,1,6,1.549025,,,,,,,,,,,,,,,,,,,,,,,,,,,,,,,,,,,,,,,,,,,,,,
,,,,,,,,,,,,,,,,,,,,,,,19,female,2020-09-28_14h05.52.714,torte-2b,2020.1.3,Win32,60,13295,,,,,,,,,,,,,,0,28,28,28,1,5,,,,,,,,,,,,,,,,,,,,,,,,,,,,,,,,,,,,,,,,,,,,,,,
,,,,,,,,,,,,,,,,,,,,,,,19,female,2020-09-28_14h05.52.714,torte-2b,2020.1.3,Win32,60,13295,,,,,,,,,,,,,,0,29,29,29,1,2,,,,,,,,,,,,,,,,,,,,,,,,,,,,,,,,,,,,,,,,,,,,,,,
,,,,,,,,,,,,,,,,,,,,,,,19,female,2020-09-28_14h05.52.714,torte-2b,2020.1.3,Win32,60,13295,,,,,,,,,,,,,space,0,30,30,30,1,5,0.33446,,,,,,,,,,,,,,,,,,,,,,,,,,,,,,,,,,,,,,,,,,,,,,
,,,,,,,,,,,,,,,,,,,,,,,19,female,2020-09-28_14h05.52.714,torte-2b,2020.1.3,Win32,60,13295,,,,,,,,,,,,,,0,31,31,31,1,2,,,,,,,,,,,,,,,,,,,,,,,,,,,,,,,,,,,,,,,,,,,,,,,
,,,,,,,,,,,,,,,,,,,,,,,19,female,2020-09-28_14h05.52.714,torte-2b,2020.1.3,Win32,60,13295,,,,,,,,,,,,,space,0,32,32,32,1,5,0.683625,,,,,,,,,,,,,,,,,,,,,,,,,,,,,,,,,,,,,,,,,,,,,,
,,,,,,,,,,,,,,,,,,,,,,,19,female,2020-09-28_14h05.52.714,torte-2b,2020.1.3,Win32,60,13295,,,,,,,,,,,,,,0,33,33,33,1,1,,,,,,,,,,,,,,,,,,,,,,,,,,,,,,,,,,,,,,,,,,,,,,,
,,,,,,,,,,,,,,,,,,,,,,,19,female,2020-09-28_14h05.52.714,torte-2b,2020.1.3,Win32,60,13295,,,,,,,,,,,,,,0,34,34,34,1,1,,,,,,,,,,,,,,,,,,,,,,,,,,,,,,,,,,,,,,,,,,,,,,,
,,,,,,,,,,,,,,,,,,,,,,,19,female,2020-09-28_14h05.52.714,torte-2b,2020.1.3,Win32,60,13295,,,,,,,,,,,,,,,,,,,2,,0,0,0,0,1,,,,,,,,,,,,,,,,,,,,,,,,,,,,,,,,,,,,,,,,,
,,,,,,,,,,,,,,,,,,,,,,,19,female,2020-09-28_14h05.52.714,torte-2b,2020.1.3,Win32,60,13295,,,,,,,,,,,,,,,,,,,2,,0,1,1,1,1,,,,,,,,,,,,,,,,,,,,,,,,,,,,,,,,,,,,,,,,,
,,,,,,,,,,,,,,,,,,,,,,,19,female,2020-09-28_14h05.52.714,torte-2b,2020.1.3,Win32,60,13295,,,,,,,,,,,,,,,,,,,6,,0,2,2,2,1,,,,,,,,,,,,,,,,,,,,,,,,,,,,,,,,,,,,,,,,,
,,,,,,,,,,,,,,,,,,,,,,,19,female,2020-09-28_14h05.52.714,torte-2b,2020.1.3,Win32,60,13295,,,,,,,,,,,,,space,,,,,,2,0.33638,0,3,3,3,1,,,,,,,,,,,,,,,,,,,,,,,,,,,,,,,,,,,,,,,,,
,,,,,,,,,,,,,,,,,,,,,,,19,female,2020-09-28_14h05.52.714,torte-2b,2020.1.3,Win32,60,13295,,,,,,,,,,,,,space,,,,,,6,0.400075,0,4,4,4,1,,,,,,,,,,,,,,,,,,,,,,,,,,,,,,,,,,,,,,,,,
,,,,,,,,,,,,,,,,,,,,,,,19,female,2020-09-28_14h05.52.714,torte-2b,2020.1.3,Win32,60,13295,,,,,,,,,,,,,space,,,,,,2,0.38519,0,5,5,5,1,,,,,,,,,,,,,,,,,,,,,,,,,,,,,,,,,,,,,,,,,
,,,,,,,,,,,,,,,,,,,,,,,19,female,2020-09-28_14h05.52.714,torte-2b,2020.1.3,Win32,60,13295,,,,,,,,,,,,,,,,,,,7,,0,6,6,6,1,,,,,,,,,,,,,,,,,,,,,,,,,,,,,,,,,,,,,,,,,
,,,,,,,,,,,,,,,,,,,,,,,19,female,2020-09-28_14h05.52.714,torte-2b,2020.1.3,Win32,60,13295,,,,,,,,,,,,,,,,,,,2,,0,7,7,7,1,,,,,,,,,,,,,,,,,,,,,,,,,,,,,,,,,,,,,,,,,
,,,,,,,,,,,,,,,,,,,,,,,19,female,2020-09-28_14h05.52.714,torte-2b,2020.1.3,Win32,60,13295,,,,,,,,,,,,,space,,,,,,7,0.3143,0,8,8,8,1,,,,,,,,,,,,,,,,,,,,,,,,,,,,,,,,,,,,,,,,,
,,,,,,,,,,,,,,,,,,,,,,,19,female,2020-09-28_14h05.52.714,torte-2b,2020.1.3,Win32,60,13295,,,,,,,,,,,,,space,,,,,,2,0.597475,0,9,9,9,1,,,,,,,,,,,,,,,,,,,,,,,,,,,,,,,,,,,,,,,,,
,,,,,,,,,,,,,,,,,,,,,,,19,female,2020-09-28_14h05.52.714,torte-2b,2020.1.3,Win32,60,13295,,,,,,,,,,,,,,,,,,,5,,0,10,10,10,1,,,,,,,,,,,,,,,,,,,,,,,,,,,,,,,,,,,,,,,,,
,,,,,,,,,,,,,,,,,,,,,,,19,female,2020-09-28_14h05.52.714,torte-2b,2020.1.3,Win32,60,13295,,,,,,,,,,,,,,,,,,,4,,0,11,11,11,1,,,,,,,,,,,,,,,,,,,,,,,,,,,,,,,,,,,,,,,,,
,,,,,,,,,,,,,,,,,,,,,,,19,female,2020-09-28_14h05.52.714,torte-2b,2020.1.3,Win32,60,13295,,,,,,,,,,,,,space,,,,,,5,0.28256,0,12,12,12,1,,,,,,,,,,,,,,,,,,,,,,,,,,,,,,,,,,,,,,,,,
,,,,,,,,,,,,,,,,,,,,,,,19,female,2020-09-28_14h05.52.714,torte-2b,2020.1.3,Win32,60,13295,,,,,,,,,,,,,,,,,,,6,,0,13,13,13,1,,,,,,,,,,,,,,,,,,,,,,,,,,,,,,,,,,,,,,,,,
,,,,,,,,,,,,,,,,,,,,,,,19,female,2020-09-28_14h05.52.714,torte-2b,2020.1.3,Win32,60,13295,,,,,,,,,,,,,space,,,,,,5,0.4837,0,14,14,14,1,,,,,,,,,,,,,,,,,,,,,,,,,,,,,,,,,,,,,,,,,
,,,,,,,,,,,,,,,,,,,,,,,19,female,2020-09-28_14h05.52.714,torte-2b,2020.1.3,Win32,60,13295,,,,,,,,,,,,,space,,,,,,4,0.53578,0,15,15,15,1,,,,,,,,,,,,,,,,,,,,,,,,,,,,,,,,,,,,,,,,,
,,,,,,,,,,,,,,,,,,,,,,,19,female,2020-09-28_14h05.52.714,torte-2b,2020.1.3,Win32,60,13295,,,,,,,,,,,,,,,,,,,5,,0,16,16,16,1,,,,,,,,,,,,,,,,,,,,,,,,,,,,,,,,,,,,,,,,,
,,,,,,,,,,,,,,,,,,,,,,,19,female,2020-09-28_14h05.52.714,torte-2b,2020.1.3,Win32,60,13295,,,,,,,,,,,,,,,,,,,3,,0,17,17,17,1,,,,,,,,,,,,,,,,,,,,,,,,,,,,,,,,,,,,,,,,,
,,,,,,,,,,,,,,,,,,,,,,,19,female,2020-09-28_14h05.52.714,torte-2b,2020.1.3,Win32,60,13295,,,,,,,,,,,,,,,,,,,6,,0,18,18,18,1,,,,,,,,,,,,,,,,,,,,,,,,,,,,,,,,,,,,,,,,,
,,,,,,,,,,,,,,,,,,,,,,,19,female,2020-09-28_14h05.52.714,torte-2b,2020.1.3,Win32,60,13295,,,,,,,,,,,,,space,,,,,,6,1.91145,0,19,19,19,1,,,,,,,,,,,,,,,,,,,,,,,,,,,,,,,,,,,,,,,,,
,,,,,,,,,,,,,,,,,,,,,,,19,female,2020-09-28_14h05.52.714,torte-2b,2020.1.3,Win32,60,13295,,,,,,,,,,,,,,,,,,,6,,0,20,20,20,1,,,,,,,,,,,,,,,,,,,,,,,,,,,,,,,,,,,,,,,,,
,,,,,,,,,,,,,,,,,,,,,,,19,female,2020-09-28_14h05.52.714,torte-2b,2020.1.3,Win32,60,13295,,,,,,,,,,,,,space,,,,,,4,1.13683,0,21,21,21,1,,,,,,,,,,,,,,,,,,,,,,,,,,,,,,,,,,,,,,,,,
,,,,,,,,,,,,,,,,,,,,,,,19,female,2020-09-28_14h05.52.714,torte-2b,2020.1.3,Win32,60,13295,,,,,,,,,,,,,,,,,,,6,,0,22,22,22,1,,,,,,,,,,,,,,,,,,,,,,,,,,,,,,,,,,,,,,,,,
,,,,,,,,,,,,,,,,,,,,,,,19,female,2020-09-28_14h05.52.714,torte-2b,2020.1.3,Win32,60,13295,,,,,,,,,,,,,space,,,,,,4,0.58844,0,23,23,23,1,,,,,,,,,,,,,,,,,,,,,,,,,,,,,,,,,,,,,,,,,
,,,,,,,,,,,,,,,,,,,,,,,19,female,2020-09-28_14h05.52.714,torte-2b,2020.1.3,Win32,60,13295,,,,,,,,,,,,,,,,,,,6,,0,24,24,24,1,,,,,,,,,,,,,,,,,,,,,,,,,,,,,,,,,,,,,,,,,
,,,,,,,,,,,,,,,,,,,,,,,19,female,2020-09-28_14h05.52.714,torte-2b,2020.1.3,Win32,60,13295,,,,,,,,,,,,,,,,,,,6,,0,25,25,25,1,,,,,,,,,,,,,,,,,,,,,,,,,,,,,,,,,,,,,,,,,
,,,,,,,,,,,,,,,,,,,,,,,19,female,2020-09-28_14h05.52.714,torte-2b,2020.1.3,Win32,60,13295,,,,,,,,,,,,,,,,,,,7,,0,26,26,26,1,,,,,,,,,,,,,,,,,,,,,,,,,,,,,,,,,,,,,,,,,
,,,,,,,,,,,,,,,,,,,,,,,19,female,2020-09-28_14h05.52.714,torte-2b,2020.1.3,Win32,60,13295,,,,,,,,,,,,,,,,,,,1,,0,27,27,27,1,,,,,,,,,,,,,,,,,,,,,,,,,,,,,,,,,,,,,,,,,
,,,,,,,,,,,,,,,,,,,,,,,19,female,2020-09-28_14h05.52.714,torte-2b,2020.1.3,Win32,60,13295,,,,,,,,,,,,,space,,,,,,7,0.32998,0,28,28,28,1,,,,,,,,,,,,,,,,,,,,,,,,,,,,,,,,,,,,,,,,,
,,,,,,,,,,,,,,,,,,,,,,,19,female,2020-09-28_14h05.52.714,torte-2b,2020.1.3,Win32,60,13295,,,,,,,,,,,,,,,,,,,4,,0,29,29,29,1,,,,,,,,,,,,,,,,,,,,,,,,,,,,,,,,,,,,,,,,,
,,,,,,,,,,,,,,,,,,,,,,,19,female,2020-09-28_14h05.52.714,torte-2b,2020.1.3,Win32,60,13295,,,,,,,,,,,,,,,,,,,7,,0,30,30,30,1,,,,,,,,,,,,,,,,,,,,,,,,,,,,,,,,,,,,,,,,,
,,,,,,,,,,,,,,,,,,,,,,,19,female,2020-09-28_14h05.52.714,torte-2b,2020.1.3,Win32,60,13295,,,,,,,,,,,,,,,,,,,3,,0,31,31,31,1,,,,,,,,,,,,,,,,,,,,,,,,,,,,,,,,,,,,,,,,,
,,,,,,,,,,,,,,,,,,,,,,,19,female,2020-09-28_14h05.52.714,torte-2b,2020.1.3,Win32,60,13295,,,,,,,,,,,,,,,,,,,2,,0,32,32,32,1,,,,,,,,,,,,,,,,,,,,,,,,,,,,,,,,,,,,,,,,,
,,,,,,,,,,,,,,,,,,,,,,,19,female,2020-09-28_14h05.52.714,torte-2b,2020.1.3,Win32,60,13295,,,,,,,,,,,,,,,,,,,6,,0,33,33,33,1,,,,,,,,,,,,,,,,,,,,,,,,,,,,,,,,,,,,,,,,,
,,,,,,,,,,,,,,,,,,,,,,,19,female,2020-09-28_14h05.52.714,torte-2b,2020.1.3,Win32,60,13295,,,,,,,,,,,,,space,,,,,,3,0.52251,0,34,34,34,1,,,,,,,,,,,,,,,,,,,,,,,,,,,,,,,,,,,,,,,,,
,,,,,,,,,,,,,,,,,,,,,,,19,female,2020-09-28_14h05.52.714,torte-2b,2020.1.3,Win32,60,13295,,,,,,,,,,,,,,,,,,,7,,,,,,,0,0,0,0,1,,,,,,,,,,,,,,,,,,,,,,,,,,,,,,,,,,,,
,,,,,,,,,,,,,,,,,,,,,,,19,female,2020-09-28_14h05.52.714,torte-2b,2020.1.3,Win32,60,13295,,,,,,,,,,,,,,,,,,,5,,,,,,,0,1,1,1,1,,,,,,,,,,,,,,,,,,,,,,,,,,,,,,,,,,,,
,,,,,,,,,,,,,,,,,,,,,,,19,female,2020-09-28_14h05.52.714,torte-2b,2020.1.3,Win32,60,13295,,,,,,,,,,,,,,,,,,,4,,,,,,,0,2,2,2,1,,,,,,,,,,,,,,,,,,,,,,,,,,,,,,,,,,,,
,,,,,,,,,,,,,,,,,,,,,,,19,female,2020-09-28_14h05.52.714,torte-2b,2020.1.3,Win32,60,13295,,,,,,,,,,,,,space,,,,,,5,0.34111,,,,,,0,3,3,3,1,,,,,,,,,,,,,,,,,,,,,,,,,,,,,,,,,,,,
,,,,,,,,,,,,,,,,,,,,,,,19,female,2020-09-28_14h05.52.714,torte-2b,2020.1.3,Win32,60,13295,,,,,,,,,,,,,,,,,,,6,,,,,,,0,4,4,4,1,,,,,,,,,,,,,,,,,,,,,,,,,,,,,,,,,,,,
,,,,,,,,,,,,,,,,,,,,,,,19,female,2020-09-28_14h05.52.714,torte-2b,2020.1.3,Win32,60,13295,,,,,,,,,,,,,space,,,,,,5,0.382645,,,,,,0,5,5,5,1,,,,,,,,,,,,,,,,,,,,,,,,,,,,,,,,,,,,
,,,,,,,,,,,,,,,,,,,,,,,19,female,2020-09-28_14h05.52.714,torte-2b,2020.1.3,Win32,60,13295,,,,,,,,,,,,,,,,,,,3,,,,,,,0,6,6,6,1,,,,,,,,,,,,,,,,,,,,,,,,,,,,,,,,,,,,
,,,,,,,,,,,,,,,,,,,,,,,19,female,2020-09-28_14h05.52.714,torte-2b,2020.1.3,Win32,60,13295,,,,,,,,,,,,,,,,,,,4,,,,,,,0,7,7,7,1,,,,,,,,,,,,,,,,,,,,,,,,,,,,,,,,,,,,
,,,,,,,,,,,,,,,,,,,,,,,19,female,2020-09-28_14h05.52.714,torte-2b,2020.1.3,Win32,60,13295,,,,,,,,,,,,,space,,,,,,3,0.316855,,,,,,0,8,8,8,1,,,,,,,,,,,,,,,,,,,,,,,,,,,,,,,,,,,,
,,,,,,,,,,,,,,,,,,,,,,,19,female,2020-09-28_14h05.52.714,torte-2b,2020.1.3,Win32,60,13295,,,,,,,,,,,,,,,,,,,1,,,,,,,0,9,9,9,1,,,,,,,,,,,,,,,,,,,,,,,,,,,,,,,,,,,,
,,,,,,,,,,,,,,,,,,,,,,,19,female,2020-09-28_14h05.52.714,torte-2b,2020.1.3,Win32,60,13295,,,,,,,,,,,,,,,,,,,2,,,,,,,0,10,10,10,1,,,,,,,,,,,,,,,,,,,,,,,,,,,,,,,,,,,,
,,,,,,,,,,,,,,,,,,,,,,,19,female,2020-09-28_14h05.52.714,torte-2b,2020.1.3,Win32,60,13295,,,,,,,,,,,,,space,,,,,,1,0.27326,,,,,,0,11,11,11,1,,,,,,,,,,,,,,,,,,,,,,,,,,,,,,,,,,,,
,,,,,,,,,,,,,,,,,,,,,,,19,female,2020-09-28_14h05.52.714,torte-2b,2020.1.3,Win32,60,13295,,,,,,,,,,,,,,,,,,,2,,,,,,,0,12,12,12,1,,,,,,,,,,,,,,,,,,,,,,,,,,,,,,,,,,,,
,,,,,,,,,,,,,,,,,,,,,,,19,female,2020-09-28_14h05.52.714,torte-2b,2020.1.3,Win32,60,13295,,,,,,,,,,,,,space,,,,,,1,0.341185,,,,,,0,13,13,13,1,,,,,,,,,,,,,,,,,,,,,,,,,,,,,,,,,,,,
,,,,,,,,,,,,,,,,,,,,,,,19,female,2020-09-28_14h05.52.714,torte-2b,2020.1.3,Win32,60,13295,,,,,,,,,,,,,,,,,,,3,,,,,,,0,14,14,14,1,,,,,,,,,,,,,,,,,,,,,,,,,,,,,,,,,,,,
,,,,,,,,,,,,,,,,,,,,,,,19,female,2020-09-28_14h05.52.714,torte-2b,2020.1.3,Win32,60,13295,,,,,,,,,,,,,space,,,,,,1,0.663635,,,,,,0,15,15,15,1,,,,,,,,,,,,,,,,,,,,,,,,,,,,,,,,,,,,
,,,,,,,,,,,,,,,,,,,,,,,19,female,2020-09-28_14h05.52.714,torte-2b,2020.1.3,Win32,60,13295,,,,,,,,,,,,,,,,,,,7,,,,,,,0,16,16,16,1,,,,,,,,,,,,,,,,,,,,,,,,,,,,,,,,,,,,
,,,,,,,,,,,,,,,,,,,,,,,19,female,2020-09-28_14h05.52.714,torte-2b,2020.1.3,Win32,60,13295,,,,,,,,,,,,,,,,,,,7,,,,,,,0,17,17,17,1,,,,,,,,,,,,,,,,,,,,,,,,,,,,,,,,,,,,
,,,,,,,,,,,,,,,,,,,,,,,19,female,2020-09-28_14h05.52.714,torte-2b,2020.1.3,Win32,60,13295,,,,,,,,,,,,,,,,,,,4,,,,,,,0,18,18,18,1,,,,,,,,,,,,,,,,,,,,,,,,,,,,,,,,,,,,
,,,,,,,,,,,,,,,,,,,,,,,19,female,2020-09-28_14h05.52.714,torte-2b,2020.1.3,Win32,60,13295,,,,,,,,,,,,,space,,,,,,7,0.43819,,,,,,0,19,19,19,1,,,,,,,,,,,,,,,,,,,,,,,,,,,,,,,,,,,,
,,,,,,,,,,,,,,,,,,,,,,,19,female,2020-09-28_14h05.52.714,torte-2b,2020.1.3,Win32,60,13295,,,,,,,,,,,,,,,,,,,3,,,,,,,0,20,20,20,1,,,,,,,,,,,,,,,,,,,,,,,,,,,,,,,,,,,,
,,,,,,,,,,,,,,,,,,,,,,,19,female,2020-09-28_14h05.52.714,torte-2b,2020.1.3,Win32,60,13295,,,,,,,,,,,,,space,,,,,,7,0.707965,,,,,,0,21,21,21,1,,,,,,,,,,,,,,,,,,,,,,,,,,,,,,,,,,,,
,,,,,,,,,,,,,,,,,,,,,,,19,female,2020-09-28_14h05.52.714,torte-2b,2020.1.3,Win32,60,13295,,,,,,,,,,,,,,,,,,,3,,,,,,,0,22,22,22,1,,,,,,,,,,,,,,,,,,,,,,,,,,,,,,,,,,,,
,,,,,,,,,,,,,,,,,,,,,,,19,female,2020-09-28_14h05.52.714,torte-2b,2020.1.3,Win32,60,13295,,,,,,,,,,,,,,,,,,,1,,,,,,,0,23,23,23,1,,,,,,,,,,,,,,,,,,,,,,,,,,,,,,,,,,,,
,,,,,,,,,,,,,,,,,,,,,,,19,female,2020-09-28_14h05.52.714,torte-2b,2020.1.3,Win32,60,13295,,,,,,,,,,,,,,,,,,,6,,,,,,,0,24,24,24,1,,,,,,,,,,,,,,,,,,,,,,,,,,,,,,,,,,,,
,,,,,,,,,,,,,,,,,,,,,,,19,female,2020-09-28_14h05.52.714,torte-2b,2020.1.3,Win32,60,13295,,,,,,,,,,,,,space,,,,,,3,0.53699,,,,,,0,25,25,25,1,,,,,,,,,,,,,,,,,,,,,,,,,,,,,,,,,,,,
,,,,,,,,,,,,,,,,,,,,,,,19,female,2020-09-28_14h05.52.714,torte-2b,2020.1.3,Win32,60,13295,,,,,,,,,,,,,,,,,,,2,,,,,,,0,26,26,26,1,,,,,,,,,,,,,,,,,,,,,,,,,,,,,,,,,,,,
,,,,,,,,,,,,,,,,,,,,,,,19,female,2020-09-28_14h05.52.714,torte-2b,2020.1.3,Win32,60,13295,,,,,,,,,,,,,,,,,,,3,,,,,,,0,27,27,27,1,,,,,,,,,,,,,,,,,,,,,,,,,,,,,,,,,,,,
,,,,,,,,,,,,,,,,,,,,,,,19,female,2020-09-28_14h05.52.714,torte-2b,2020.1.3,Win32,60,13295,,,,,,,,,,,,,,,,,,,1,,,,,,,0,28,28,28,1,,,,,,,,,,,,,,,,,,,,,,,,,,,,,,,,,,,,
,,,,,,,,,,,,,,,,,,,,,,,19,female,2020-09-28_14h05.52.714,torte-2b,2020.1.3,Win32,60,13295,,,,,,,,,,,,,space,,,,,,3,0.57323,,,,,,0,29,29,29,1,,,,,,,,,,,,,,,,,,,,,,,,,,,,,,,,,,,,
,,,,,,,,,,,,,,,,,,,,,,,19,female,2020-09-28_14h05.52.714,torte-2b,2020.1.3,Win32,60,13295,,,,,,,,,,,,,space,,,,,,1,0.82128,,,,,,0,30,30,30,1,,,,,,,,,,,,,,,,,,,,,,,,,,,,,,,,,,,,
,,,,,,,,,,,,,,,,,,,,,,,19,female,2020-09-28_14h05.52.714,torte-2b,2020.1.3,Win32,60,13295,,,,,,,,,,,,,,,,,,,7,,,,,,,0,31,31,31,1,,,,,,,,,,,,,,,,,,,,,,,,,,,,,,,,,,,,
,,,,,,,,,,,,,,,,,,,,,,,19,female,2020-09-28_14h05.52.714,torte-2b,2020.1.3,Win32,60,13295,,,,,,,,,,,,,,,,,,,5,,,,,,,0,32,32,32,1,,,,,,,,,,,,,,,,,,,,,,,,,,,,,,,,,,,,
,,,,,,,,,,,,,,,,,,,,,,,19,female,2020-09-28_14h05.52.714,torte-2b,2020.1.3,Win32,60,13295,,,,,,,,,,,,,,,,,,,7,,,,,,,0,33,33,33,1,,,,,,,,,,,,,,,,,,,,,,,,,,,,,,,,,,,,
,,,,,,,,,,,,,,,,,,,,,,,19,female,2020-09-28_14h05.52.714,torte-2b,2020.1.3,Win32,60,13295,,,,,,,,,,,,,,,,,,,2,,,,,,,0,34,34,34,1,,,,,,,,,,,,,,,,,,,,,,,,,,,,,,,,,,,,
,,,,,,,,,,,,,,,,,,,,,,,19,female,2020-09-28_14h05.52.714,torte-2b,2020.1.3,Win32,60,13295,,,,,,,,,,,,,,,,,,,3,,,,,,,,,,,,0,0,0,0,1,,,,,,,,,,,,,,,,,,,,,,,,,,,,,,,
,,,,,,,,,,,,,,,,,,,,,,,19,female,2020-09-28_14h05.52.714,torte-2b,2020.1.3,Win32,60,13295,,,,,,,,,,,,,,,,,,,7,,,,,,,,,,,,0,1,1,1,1,,,,,,,,,,,,,,,,,,,,,,,,,,,,,,,
,,,,,,,,,,,,,,,,,,,,,,,19,female,2020-09-28_14h05.52.714,torte-2b,2020.1.3,Win32,60,13295,,,,,,,,,,,,,,,,,,,7,,,,,,,,,,,,0,2,2,2,1,,,,,,,,,,,,,,,,,,,,,,,,,,,,,,,
,,,,,,,,,,,,,,,,,,,,,,,19,female,2020-09-28_14h05.52.714,torte-2b,2020.1.3,Win32,60,13295,,,,,,,,,,,,,,,,,,,4,,,,,,,,,,,,0,3,3,3,1,,,,,,,,,,,,,,,,,,,,,,,,,,,,,,,
,,,,,,,,,,,,,,,,,,,,,,,19,female,2020-09-28_14h05.52.714,torte-2b,2020.1.3,Win32,60,13295,,,,,,,,,,,,,,,,,,,5,,,,,,,,,,,,0,4,4,4,1,,,,,,,,,,,,,,,,,,,,,,,,,,,,,,,
,,,,,,,,,,,,,,,,,,,,,,,19,female,2020-09-28_14h05.52.714,torte-2b,2020.1.3,Win32,60,13295,,,,,,,,,,,,,space,,,,,,4,0.388845,,,,,,,,,,,0,5,5,5,1,,,,,,,,,,,,,,,,,,,,,,,,,,,,,,,
,,,,,,,,,,,,,,,,,,,,,,,19,female,2020-09-28_14h05.52.714,torte-2b,2020.1.3,Win32,60,13295,,,,,,,,,,,,,,,,,,,2,,,,,,,,,,,,0,6,6,6,1,,,,,,,,,,,,,,,,,,,,,,,,,,,,,,,
,,,,,,,,,,,,,,,,,,,,,,,19,female,2020-09-28_14h05.52.714,torte-2b,2020.1.3,Win32,60,13295,,,,,,,,,,,,,space,,,,,,4,0.320455,,,,,,,,,,,0,7,7,7,1,,,,,,,,,,,,,,,,,,,,,,,,,,,,,,,
,,,,,,,,,,,,,,,,,,,,,,,19,female,2020-09-28_14h05.52.714,torte-2b,2020.1.3,Win32,60,13295,,,,,,,,,,,,,space,,,,,,2,0.56626,,,,,,,,,,,0,8,8,8,1,,,,,,,,,,,,,,,,,,,,,,,,,,,,,,,
,,,,,,,,,,,,,,,,,,,,,,,19,female,2020-09-28_14h05.52.714,torte-2b,2020.1.3,Win32,60,13295,,,,,,,,,,,,,,,,,,,2,,,,,,,,,,,,0,9,9,9,1,,,,,,,,,,,,,,,,,,,,,,,,,,,,,,,
,,,,,,,,,,,,,,,,,,,,,,,19,female,2020-09-28_14h05.52.714,torte-2b,2020.1.3,Win32,60,13295,,,,,,,,,,,,,,,,,,,6,,,,,,,,,,,,0,10,10,10,1,,,,,,,,,,,,,,,,,,,,,,,,,,,,,,,
,,,,,,,,,,,,,,,,,,,,,,,19,female,2020-09-28_14h05.52.714,torte-2b,2020.1.3,Win32,60,13295,,,,,,,,,,,,,space,,,,,,2,0.3839,,,,,,,,,,,0,11,11,11,1,,,,,,,,,,,,,,,,,,,,,,,,,,,,,,,
,,,,,,,,,,,,,,,,,,,,,,,19,female,2020-09-28_14h05.52.714,torte-2b,2020.1.3,Win32,60,13295,,,,,,,,,,,,,,,,,,,2,,,,,,,,,,,,0,12,12,12,1,,,,,,,,,,,,,,,,,,,,,,,,,,,,,,,
,,,,,,,,,,,,,,,,,,,,,,,19,female,2020-09-28_14h05.52.714,torte-2b,2020.1.3,Win32,60,13295,,,,,,,,,,,,,,,,,,,2,,,,,,,,,,,,0,13,13,13,1,,,,,,,,,,,,,,,,,,,,,,,,,,,,,,,
,,,,,,,,,,,,,,,,,,,,,,,19,female,2020-09-28_14h05.52.714,torte-2b,2020.1.3,Win32,60,13295,,,,,,,,,,,,,space,,,,,,2,0.884645,,,,,,,,,,,0,14,14,14,1,,,,,,,,,,,,,,,,,,,,,,,,,,,,,,,
,,,,,,,,,,,,,,,,,,,,,,,19,female,2020-09-28_14h05.52.714,torte-2b,2020.1.3,Win32,60,13295,,,,,,,,,,,,,,,,,,,4,,,,,,,,,,,,0,15,15,15,1,,,,,,,,,,,,,,,,,,,,,,,,,,,,,,,
,,,,,,,,,,,,,,,,,,,,,,,19,female,2020-09-28_14h05.52.714,torte-2b,2020.1.3,Win32,60,13295,,,,,,,,,,,,,,,,,,,3,,,,,,,,,,,,0,16,16,16,1,,,,,,,,,,,,,,,,,,,,,,,,,,,,,,,
,,,,,,,,,,,,,,,,,,,,,,,19,female,2020-09-28_14h05.52.714,torte-2b,2020.1.3,Win32,60,13295,,,,,,,,,,,,,,,,,,,7,,,,,,,,,,,,0,17,17,17,1,,,,,,,,,,,,,,,,,,,,,,,,,,,,,,,
,,,,,,,,,,,,,,,,,,,,,,,19,female,2020-09-28_14h05.52.714,torte-2b,2020.1.3,Win32,60,13295,,,,,,,,,,,,,,,,,,,4,,,,,,,,,,,,0,18,18,18,1,,,,,,,,,,,,,,,,,,,,,,,,,,,,,,,
,,,,,,,,,,,,,,,,,,,,,,,19,female,2020-09-28_14h05.52.714,torte-2b,2020.1.3,Win32,60,13295,,,,,,,,,,,,,space,,,,,,7,0.383785,,,,,,,,,,,0,19,19,19,1,,,,,,,,,,,,,,,,,,,,,,,,,,,,,,,
,,,,,,,,,,,,,,,,,,,,,,,19,female,2020-09-28_14h05.52.714,torte-2b,2020.1.3,Win32,60,13295,,,,,,,,,,,,,,,,,,,7,,,,,,,,,,,,0,20,20,20,1,,,,,,,,,,,,,,,,,,,,,,,,,,,,,,,
,,,,,,,,,,,,,,,,,,,,,,,19,female,2020-09-28_14h05.52.714,torte-2b,2020.1.3,Win32,60,13295,,,,,,,,,,,,,space,,,,,,7,1.90688,,,,,,,,,,,0,21,21,21,1,,,,,,,,,,,,,,,,,,,,,,,,,,,,,,,
,,,,,,,,,,,,,,,,,,,,,,,19,female,2020-09-28_14h05.52.714,torte-2b,2020.1.3,Win32,60,13295,,,,,,,,,,,,,,,,,,,7,,,,,,,,,,,,0,22,22,22,1,,,,,,,,,,,,,,,,,,,,,,,,,,,,,,,
,,,,,,,,,,,,,,,,,,,,,,,19,female,2020-09-28_14h05.52.714,torte-2b,2020.1.3,Win32,60,13295,,,,,,,,,,,,,space,,,,,,1,0.67399,,,,,,,,,,,0,23,23,23,1,,,,,,,,,,,,,,,,,,,,,,,,,,,,,,,
,,,,,,,,,,,,,,,,,,,,,,,19,female,2020-09-28_14h05.52.714,torte-2b,2020.1.3,Win32,60,13295,,,,,,,,,,,,,,,,,,,7,,,,,,,,,,,,0,24,24,24,1,,,,,,,,,,,,,,,,,,,,,,,,,,,,,,,
,,,,,,,,,,,,,,,,,,,,,,,19,female,2020-09-28_14h05.52.714,torte-2b,2020.1.3,Win32,60,13295,,,,,,,,,,,,,space,,,,,,1,0.60526,,,,,,,,,,,0,25,25,25,1,,,,,,,,,,,,,,,,,,,,,,,,,,,,,,,
,,,,,,,,,,,,,,,,,,,,,,,19,female,2020-09-28_14h05.52.714,torte-2b,2020.1.3,Win32,60,13295,,,,,,,,,,,,,space,,,,,,7,0.443305,,,,,,,,,,,0,26,26,26,1,,,,,,,,,,,,,,,,,,,,,,,,,,,,,,,
,,,,,,,,,,,,,,,,,,,,,,,19,female,2020-09-28_14h05.52.714,torte-2b,2020.1.3,Win32,60,13295,,,,,,,,,,,,,,,,,,,2,,,,,,,,,,,,0,27,27,27,1,,,,,,,,,,,,,,,,,,,,,,,,,,,,,,,
,,,,,,,,,,,,,,,,,,,,,,,19,female,2020-09-28_14h05.52.714,torte-2b,2020.1.3,Win32,60,13295,,,,,,,,,,,,,,,,,,,5,,,,,,,,,,,,0,28,28,28,1,,,,,,,,,,,,,,,,,,,,,,,,,,,,,,,
,,,,,,,,,,,,,,,,,,,,,,,19,female,2020-09-28_14h05.52.714,torte-2b,2020.1.3,Win32,60,13295,,,,,,,,,,,,,space,,,,,,5,0.530135,,,,,,,,,,,0,29,29,29,1,,,,,,,,,,,,,,,,,,,,,,,,,,,,,,,
,,,,,,,,,,,,,,,,,,,,,,,19,female,2020-09-28_14h05.52.714,torte-2b,2020.1.3,Win32,60,13295,,,,,,,,,,,,,,,,,,,5,,,,,,,,,,,,0,30,30,30,1,,,,,,,,,,,,,,,,,,,,,,,,,,,,,,,
,,,,,,,,,,,,,,,,,,,,,,,19,female,2020-09-28_14h05.52.714,torte-2b,2020.1.3,Win32,60,13295,,,,,,,,,,,,,space,,,,,,1,0.600235,,,,,,,,,,,0,31,31,31,1,,,,,,,,,,,,,,,,,,,,,,,,,,,,,,,
,,,,,,,,,,,,,,,,,,,,,,,19,female,2020-09-28_14h05.52.714,torte-2b,2020.1.3,Win32,60,13295,,,,,,,,,,,,,,,,,,,5,,,,,,,,,,,,0,32,32,32,1,,,,,,,,,,,,,,,,,,,,,,,,,,,,,,,
,,,,,,,,,,,,,,,,,,,,,,,19,female,2020-09-28_14h05.52.714,torte-2b,2020.1.3,Win32,60,13295,,,,,,,,,,,,,,,,,,,3,,,,,,,,,,,,0,33,33,33,1,,,,,,,,,,,,,,,,,,,,,,,,,,,,,,,
,,,,,,,,,,,,,,,,,,,,,,,19,female,2020-09-28_14h05.52.714,torte-2b,2020.1.3,Win32,60,13295,,,,,,,,,,,,,space,,,,,,3,0.61705,,,,,,,,,,,0,34,34,34,1,,,,,,,,,,,,,,,,,,,,,,,,,,,,,,,
,,,,,,,,,,,,l,Correct!,,,,,,t3.png,t1.png,2,0.056466,19,female,2020-09-28_14h05.52.714,torte-2b,2020.1.3,Win32,60,13295,1.566725,space,1.210585,,,,,,,,,,,,,,,,,,,,,,,,,,,,,,,,,space,2.8794,0,0,0,64,1,,,,,,,,,,,,,,,,,,,,,,,,
,,,,,,,,,,,,a,Incorrect,,,,,,t5.png,t2.png,3,0.0000131,19,female,2020-09-28_14h05.52.714,torte-2b,2020.1.3,Win32,60,13295,2.046465,,,,,,,,,,,,,,,,,,,,,,,,,,,,,,,,,,,,,0,1,1,91,1,,,,,,,,,,,,,,,,,,,,,,,,
,,,,,,,,,,,,l,Incorrect,,,,,,t5.png,t4.png,1,0.9,19,female,2020-09-28_14h05.52.714,torte-2b,2020.1.3,Win32,60,13295,1.9168,,,,,,,,,,,,,,,,,,,,,,,,,,,,,,,,,,,,,0,2,2,76,1,,,,,,,,,,,,,,,,,,,,,,,,
,,,,,,,,,,,,a,Correct!,,,,,,t3.png,t4.png,1,0.909,19,female,2020-09-28_14h05.52.714,torte-2b,2020.1.3,Win32,60,13295,1.18127,,,,,,,,,,,,,,,,,,,,,,,,,,,,,,,,,,,,,0,3,3,106,1,,,,,,,,,,,,,,,,,,,,,,,,
,,,,,,,,,,,,a,Incorrect,,,,,,t2.png,t3.png,1,0.90855,19,female,2020-09-28_14h05.52.714,torte-2b,2020.1.3,Win32,60,13295,1.894645,,,,,,,,,,,,,,,,,,,,,,,,,,,,,,,,,,,,,0,4,4,10,1,,,,,,,,,,,,,,,,,,,,,,,,
,,,,,,,,,,,,l,Incorrect,,,,,,t1.png,t1.png,0,0.97829,19,female,2020-09-28_14h05.52.714,torte-2b,2020.1.3,Win32,60,13295,0.679295,,,,,,,,,,,,,,,,,,,,,,,,,,,,,,,,,,,,,0,5,5,67,1,,,,,,,,,,,,,,,,,,,,,,,,
,,,,,,,,,,,,l,Correct!,,,,,,t2.png,t4.png,2,0.059078,19,female,2020-09-28_14h05.52.714,torte-2b,2020.1.3,Win32,60,13295,2.24407,,,,,,,,,,,,,,,,,,,,,,,,,,,,,,,,,,,,,0,6,6,77,1,,,,,,,,,,,,,,,,,,,,,,,,
,,,,,,,,,,,,l,Incorrect,,,,,,t1.png,t1.png,0,0.97829,19,female,2020-09-28_14h05.52.714,torte-2b,2020.1.3,Win32,60,13295,0.797075,,,,,,,,,,,,,,,,,,,,,,,,,,,,,,,,,,,,,0,7,7,9,1,,,,,,,,,,,,,,,,,,,,,,,,
,,,,,,,,,,,,l,Incorrect,,,,,,t1.png,t1.png,0,0.978,19,female,2020-09-28_14h05.52.714,torte-2b,2020.1.3,Win32,60,13295,1.21558,,,,,,,,,,,,,,,,,,,,,,,,,,,,,,,,,,,,,0,8,8,28,1,,,,,,,,,,,,,,,,,,,,,,,,
,,,,,,,,,,,,l,Incorrect,,,,,,t4.png,t5.png,1,0.90025,19,female,2020-09-28_14h05.52.714,torte-2b,2020.1.3,Win32,60,13295,1.428955,,,,,,,,,,,,,,,,,,,,,,,,,,,,,,,,,,,,,0,9,9,58,1,,,,,,,,,,,,,,,,,,,,,,,,
,,,,,,,,,,,,a,Correct!,,,,,,t2.png,t1.png,1,0.90025,19,female,2020-09-28_14h05.52.714,torte-2b,2020.1.3,Win32,60,13295,1.82962,,,,,,,,,,,,,,,,,,,,,,,,,,,,,,,,,,,,,0,10,10,62,1,,,,,,,,,,,,,,,,,,,,,,,,
,,,,,,,,,,,,a,Incorrect,,,,,,t3.png,t5.png,2,0.0565,19,female,2020-09-28_14h05.52.714,torte-2b,2020.1.3,Win32,60,13295,1.163045,,,,,,,,,,,,,,,,,,,,,,,,,,,,,,,,,,,,,0,11,11,83,1,,,,,,,,,,,,,,,,,,,,,,,,
,,,,,,,,,,,,a,Incorrect,,,,,,t3.png,t1.png,2,0.056466,19,female,2020-09-28_14h05.52.714,torte-2b,2020.1.3,Win32,60,13295,1.136165,,,,,,,,,,,,,,,,,,,,,,,,,,,,,,,,,,,,,0,12,12,32,1,,,,,,,,,,,,,,,,,,,,,,,,
,,,,,,,,,,,,a,Incorrect,,,,,,t2.png,t5.png,3,0.0000131,19,female,2020-09-28_14h05.52.714,torte-2b,2020.1.3,Win32,60,13295,1.239935,,,,,,,,,,,,,,,,,,,,,,,,,,,,,,,,,,,,,0,13,13,8,1,,,,,,,,,,,,,,,,,,,,,,,,
,,,,,,,,,,,,a,Correct!,,,,,,t3.png,t2.png,1,0.90855,19,female,2020-09-28_14h05.52.714,torte-2b,2020.1.3,Win32,60,13295,1.260965,,,,,,,,,,,,,,,,,,,,,,,,,,,,,,,,,,,,,0,14,14,53,1,,,,,,,,,,,,,,,,,,,,,,,,
,,,,,,,,,,,,l,Incorrect,,,,,,t5.png,t4.png,1,0.90025,19,female,2020-09-28_14h05.52.714,torte-2b,2020.1.3,Win32,60,13295,1.08041,,,,,,,,,,,,,,,,,,,,,,,,,,,,,,,,,,,,,0,15,15,34,1,,,,,,,,,,,,,,,,,,,,,,,,
,,,,,,,,,,,,l,Correct!,,,,,,t1.png,t4.png,3,0.0000131,19,female,2020-09-28_14h05.52.714,torte-2b,2020.1.3,Win32,60,13295,1.23658,,,,,,,,,,,,,,,,,,,,,,,,,,,,,,,,,,,,,0,16,16,50,1,,,,,,,,,,,,,,,,,,,,,,,,
,,,,,,,,,,,,a,Incorrect,,,,,,t3.png,t5.png,2,0.056466,19,female,2020-09-28_14h05.52.714,torte-2b,2020.1.3,Win32,60,13295,0.830415,,,,,,,,,,,,,,,,,,,,,,,,,,,,,,,,,,,,,0,17,17,6,1,,,,,,,,,,,,,,,,,,,,,,,,
,,,,,,,,,,,,l,Correct!,,,,,,t1.png,t4.png,3,0.0000131,19,female,2020-09-28_14h05.52.714,torte-2b,2020.1.3,Win32,60,13295,1.055325,,,,,,,,,,,,,,,,,,,,,,,,,,,,,,,,,,,,,0,18,18,81,1,,,,,,,,,,,,,,,,,,,,,,,,
,,,,,,,,,,,,a,Incorrect,,,,,,t4.png,t1.png,3,0.0000131,19,female,2020-09-28_14h05.52.714,torte-2b,2020.1.3,Win32,60,13295,0.88736,,,,,,,,,,,,,,,,,,,,,,,,,,,,,,,,,,,,,0,19,19,61,1,,,,,,,,,,,,,,,,,,,,,,,,
,,,,,,,,,,,,a,Incorrect,,,,,,t2.png,t4.png,2,0.0591,19,female,2020-09-28_14h05.52.714,torte-2b,2020.1.3,Win32,60,13295,1.778245,,,,,,,,,,,,,,,,,,,,,,,,,,,,,,,,,,,,,0,20,20,15,1,,,,,,,,,,,,,,,,,,,,,,,,
,,,,,,,,,,,,a,Incorrect,,,,,,t1.png,t5.png,4,9.55E-11,19,female,2020-09-28_14h05.52.714,torte-2b,2020.1.3,Win32,60,13295,1.32882,,,,,,,,,,,,,,,,,,,,,,,,,,,,,,,,,,,,,0,21,21,12,1,,,,,,,,,,,,,,,,,,,,,,,,
,,,,,,,,,,,,l,Correct!,,,,,,t5.png,t2.png,3,0.0000131,19,female,2020-09-28_14h05.52.714,torte-2b,2020.1.3,Win32,60,13295,1.215515,,,,,,,,,,,,,,,,,,,,,,,,,,,,,,,,,,,,,0,22,22,98,1,,,,,,,,,,,,,,,,,,,,,,,,
,,,,,,,,,,,,a,Correct!,,,,,,t4.png,t3.png,1,0.90855,19,female,2020-09-28_14h05.52.714,torte-2b,2020.1.3,Win32,60,13295,0.946485,,,,,,,,,,,,,,,,,,,,,,,,,,,,,,,,,,,,,0,23,23,45,1,,,,,,,,,,,,,,,,,,,,,,,,
,,,,,,,,,,,,l,Incorrect,,,,,,t5.png,t5.png,0,0.978,19,female,2020-09-28_14h05.52.714,torte-2b,2020.1.3,Win32,60,13295,1.59436,,,,,,,,,,,,,,,,,,,,,,,,,,,,,,,,,,,,,0,24,24,117,1,,,,,,,,,,,,,,,,,,,,,,,,
,,,,,,,,,,,,l,Incorrect,,,,,,t1.png,t2.png,1,0.90025,19,female,2020-09-28_14h05.52.714,torte-2b,2020.1.3,Win32,60,13295,1.453365,,,,,,,,,,,,,,,,,,,,,,,,,,,,,,,,,,,,,0,25,25,72,1,,,,,,,,,,,,,,,,,,,,,,,,
,,,,,,,,,,,,a,Correct!,,,,,,t5.png,t5.png,0,0.97829,19,female,2020-09-28_14h05.52.714,torte-2b,2020.1.3,Win32,60,13295,2.12834,,,,,,,,,,,,,,,,,,,,,,,,,,,,,,,,,,,,,0,26,26,94,1,,,,,,,,,,,,,,,,,,,,,,,,
,,,,,,,,,,,,,Too slow :(,,,,,,t2.png,t5.png,3,0.0000131,19,female,2020-09-28_14h05.52.714,torte-2b,2020.1.3,Win32,60,13295,,,,,,,,,,,,,,,,,,,,,,,,,,,,,,,,,,,,,,0,27,27,66,1,,,,,,,,,,,,,,,,,,,,,,,,
,,,,,,,,,,,,,Too slow :(,,,,,,t1.png,t3.png,2,0.056466,19,female,2020-09-28_14h05.52.714,torte-2b,2020.1.3,Win32,60,13295,,,,,,,,,,,,,,,,,,,,,,,,,,,,,,,,,,,,,,0,28,28,87,1,,,,,,,,,,,,,,,,,,,,,,,,
,,,,,,,,,,,,a,Correct!,,,,,,t3.png,t4.png,1,0.90855,19,female,2020-09-28_14h05.52.714,torte-2b,2020.1.3,Win32,60,13295,1.415805,,,,,,,,,,,,,,,,,,,,,,,,,,,,,,,,,,,,,0,29,29,84,1,,,,,,,,,,,,,,,,,,,,,,,,
,,,,,,,,,,,,l,Correct!,,,,,,t4.png,t1.png,3,0.0000131,19,female,2020-09-28_14h05.52.714,torte-2b,2020.1.3,Win32,60,13295,1.11164,,,,,,,,,,,,,,,,,,,,,,,,,,,,,,,,,,,,,0,30,30,48,1,,,,,,,,,,,,,,,,,,,,,,,,
,,,,,,,,,,,,a,Correct!,,,,,,t4.png,t3.png,1,0.90855,19,female,2020-09-28_14h05.52.714,torte-2b,2020.1.3,Win32,60,13295,0.88054,,,,,,,,,,,,,,,,,,,,,,,,,,,,,,,,,,,,,0,31,31,75,1,,,,,,,,,,,,,,,,,,,,,,,,
,,,,,,,,,,,,l,Correct!,,,,,,t4.png,t2.png,2,0.059078,19,female,2020-09-28_14h05.52.714,torte-2b,2020.1.3,Win32,60,13295,0.998065,,,,,,,,,,,,,,,,,,,,,,,,,,,,,,,,,,,,,0,32,32,86,1,,,,,,,,,,,,,,,,,,,,,,,,
,,,,,,,,,,,,a,Incorrect,,,,,,t1.png,t3.png,2,0.056466,19,female,2020-09-28_14h05.52.714,torte-2b,2020.1.3,Win32,60,13295,1.598305,,,,,,,,,,,,,,,,,,,,,,,,,,,,,,,,,,,,,0,33,33,69,1,,,,,,,,,,,,,,,,,,,,,,,,
,,,,,,,,,,,,a,Correct!,,,,,,t4.png,t3.png,1,0.909,19,female,2020-09-28_14h05.52.714,torte-2b,2020.1.3,Win32,60,13295,1.020655,,,,,,,,,,,,,,,,,,,,,,,,,,,,,,,,,,,,,0,34,34,46,1,,,,,,,,,,,,,,,,,,,,,,,,
,,,,,,,,,,,,l,Correct!,,,,,,t5.png,t1.png,4,9.55E-11,19,female,2020-09-28_14h05.52.714,torte-2b,2020.1.3,Win32,60,13295,0.663945,,,,,,,,,,,,,,,,,,,,,,,,,,,,,,,,,,,,,0,35,35,71,1,,,,,,,,,,,,,,,,,,,,,,,,
,,,,,,,,,,,,l,Correct!,,,,,,t4.png,t1.png,3,0.0000131,19,female,2020-09-28_14h05.52.714,torte-2b,2020.1.3,Win32,60,13295,1.14112,,,,,,,,,,,,,,,,,,,,,,,,,,,,,,,,,,,,,0,36,36,13,1,,,,,,,,,,,,,,,,,,,,,,,,
,,,,,,,,,,,,a,Correct!,,,,,,t2.png,t1.png,1,0.90025,19,female,2020-09-28_14h05.52.714,torte-2b,2020.1.3,Win32,60,13295,1.19119,,,,,,,,,,,,,,,,,,,,,,,,,,,,,,,,,,,,,0,37,37,5,1,,,,,,,,,,,,,,,,,,,,,,,,
,,,,,,,,,,,,l,Correct!,,,,,,t5.png,t1.png,4,9.55E-11,19,female,2020-09-28_14h05.52.714,torte-2b,2020.1.3,Win32,60,13295,1.60055,,,,,,,,,,,,,,,,,,,,,,,,,,,,,,,,,,,,,0,38,38,102,1,,,,,,,,,,,,,,,,,,,,,,,,
,,,,,,,,,,,,a,Correct!,,,,,,t2.png,t2.png,0,0.98115,19,female,2020-09-28_14h05.52.714,torte-2b,2020.1.3,Win32,60,13295,1.31203,,,,,,,,,,,,,,,,,,,,,,,,,,,,,,,,,,,,,0,39,39,2,1,,,,,,,,,,,,,,,,,,,,,,,,
,,,,,,,,,,,,l,Correct!,,,,,,t2.png,t4.png,2,0.059078,19,female,2020-09-28_14h05.52.714,torte-2b,2020.1.3,Win32,60,13295,1.61138,,,,,,,,,,,,,,,,,,,,,,,,,,,,,,,,,,,,,0,40,40,11,1,,,,,,,,,,,,,,,,,,,,,,,,
,,,,,,,,,,,,a,Correct!,,,,,,t5.png,t5.png,0,0.97829,19,female,2020-09-28_14h05.52.714,torte-2b,2020.1.3,Win32,60,13295,2.198385,,,,,,,,,,,,,,,,,,,,,,,,,,,,,,,,,,,,,0,41,41,73,1,,,,,,,,,,,,,,,,,,,,,,,,
,,,,,,,,,,,,l,Incorrect,,,,,,t2.png,t1.png,1,0.90025,19,female,2020-09-28_14h05.52.714,torte-2b,2020.1.3,Win32,60,13295,0.797855,,,,,,,,,,,,,,,,,,,,,,,,,,,,,,,,,,,,,0,42,42,19,1,,,,,,,,,,,,,,,,,,,,,,,,
,,,,,,,,,,,,l,Correct!,,,,,,t1.png,t2.png,1,0.90025,19,female,2020-09-28_14h05.52.714,torte-2b,2020.1.3,Win32,60,13295,0.818505,,,,,,,,,,,,,,,,,,,,,,,,,,,,,,,,,,,,,0,43,43,33,1,,,,,,,,,,,,,,,,,,,,,,,,
,,,,,,,,,,,,l,Incorrect,,,,,,t1.png,t2.png,1,0.90025,19,female,2020-09-28_14h05.52.714,torte-2b,2020.1.3,Win32,60,13295,0.81577,,,,,,,,,,,,,,,,,,,,,,,,,,,,,,,,,,,,,0,44,44,105,1,,,,,,,,,,,,,,,,,,,,,,,,
,,,,,,,,,,,,a,Incorrect,,,,,,t2.png,t3.png,1,0.90855,19,female,2020-09-28_14h05.52.714,torte-2b,2020.1.3,Win32,60,13295,1.27927,,,,,,,,,,,,,,,,,,,,,,,,,,,,,,,,,,,,,0,45,45,65,1,,,,,,,,,,,,,,,,,,,,,,,,
,,,,,,,,,,,,a,Incorrect,,,,,,t1.png,t3.png,2,0.056466,19,female,2020-09-28_14h05.52.714,torte-2b,2020.1.3,Win32,60,13295,2.19548,,,,,,,,,,,,,,,,,,,,,,,,,,,,,,,,,,,,,0,46,46,63,1,,,,,,,,,,,,,,,,,,,,,,,,
,,,,,,,,,,,,l,Correct!,,,,,,t4.png,t2.png,2,0.0591,19,female,2020-09-28_14h05.52.714,torte-2b,2020.1.3,Win32,60,13295,1.37142,,,,,,,,,,,,,,,,,,,,,,,,,,,,,,,,,,,,,0,47,47,36,1,,,,,,,,,,,,,,,,,,,,,,,,
,,,,,,,,,,,,l,Incorrect,,,,,,t4.png,t4.png,0,0.98115,19,female,2020-09-28_14h05.52.714,torte-2b,2020.1.3,Win32,60,13295,1.411775,,,,,,,,,,,,,,,,,,,,,,,,,,,,,,,,,,,,,0,48,48,80,1,,,,,,,,,,,,,,,,,,,,,,,,
,,,,,,,,,,,,l,Correct!,,,,,,t3.png,t2.png,1,0.909,19,female,2020-09-28_14h05.52.714,torte-2b,2020.1.3,Win32,60,13295,1.984485,,,,,,,,,,,,,,,,,,,,,,,,,,,,,,,,,,,,,0,49,49,3,1,,,,,,,,,,,,,,,,,,,,,,,,
,,,,,,,,,,,,a,Correct!,,,,,,t2.png,t3.png,1,0.909,19,female,2020-09-28_14h05.52.714,torte-2b,2020.1.3,Win32,60,13295,1.421435,,,,,,,,,,,,,,,,,,,,,,,,,,,,,,,,,,,,,0,50,50,74,1,,,,,,,,,,,,,,,,,,,,,,,,
,,,,,,,,,,,,l,Correct!,,,,,,t1.png,t4.png,3,0.0000131,19,female,2020-09-28_14h05.52.714,torte-2b,2020.1.3,Win32,60,13295,0.80369,,,,,,,,,,,,,,,,,,,,,,,,,,,,,,,,,,,,,0,51,51,17,1,,,,,,,,,,,,,,,,,,,,,,,,
,,,,,,,,,,,,a,Incorrect,,,,,,t5.png,t3.png,2,0.056466,19,female,2020-09-28_14h05.52.714,torte-2b,2020.1.3,Win32,60,13295,1.782665,,,,,,,,,,,,,,,,,,,,,,,,,,,,,,,,,,,,,0,52,52,108,1,,,,,,,,,,,,,,,,,,,,,,,,
,,,,,,,,,,,,l,Correct!,,,,,,t1.png,t3.png,2,0.056466,19,female,2020-09-28_14h05.52.714,torte-2b,2020.1.3,Win32,60,13295,1.332775,,,,,,,,,,,,,,,,,,,,,,,,,,,,,,,,,,,,,0,53,53,60,1,,,,,,,,,,,,,,,,,,,,,,,,
,,,,,,,,,,,,l,Correct!,,,,,,t4.png,t1.png,3,0.0000131,19,female,2020-09-28_14h05.52.714,torte-2b,2020.1.3,Win32,60,13295,1.47974,,,,,,,,,,,,,,,,,,,,,,,,,,,,,,,,,,,,,0,54,54,42,1,,,,,,,,,,,,,,,,,,,,,,,,
,,,,,,,,,,,,,Too slow :(,,,,,,t4.png,t4.png,0,0.98115,19,female,2020-09-28_14h05.52.714,torte-2b,2020.1.3,Win32,60,13295,,,,,,,,,,,,,,,,,,,,,,,,,,,,,,,,,,,,,,0,55,55,79,1,,,,,,,,,,,,,,,,,,,,,,,,
,,,,,,,,,,,,l,Incorrect,,,,,,t2.png,t2.png,0,0.98115,19,female,2020-09-28_14h05.52.714,torte-2b,2020.1.3,Win32,60,13295,1.46295,,,,,,,,,,,,,,,,,,,,,,,,,,,,,,,,,,,,,0,56,56,59,1,,,,,,,,,,,,,,,,,,,,,,,,
,,,,,,,,,,,,l,Incorrect,,,,,,t1.png,t2.png,1,0.9,19,female,2020-09-28_14h05.52.714,torte-2b,2020.1.3,Win32,60,13295,1.65283,,,,,,,,,,,,,,,,,,,,,,,,,,,,,,,,,,,,,0,57,57,1,1,,,,,,,,,,,,,,,,,,,,,,,,
,,,,,,,,,,,,l,Correct!,,,,,,t2.png,t1.png,1,0.90025,19,female,2020-09-28_14h05.52.714,torte-2b,2020.1.3,Win32,60,13295,1.263315,,,,,,,,,,,,,,,,,,,,,,,,,,,,,,,,,,,,,0,58,58,4,1,,,,,,,,,,,,,,,,,,,,,,,,
,,,,,,,,,,,,a,Correct!,,,,,,t4.png,t5.png,1,0.90025,19,female,2020-09-28_14h05.52.714,torte-2b,2020.1.3,Win32,60,13295,1.78363,,,,,,,,,,,,,,,,,,,,,,,,,,,,,,,,,,,,,0,59,59,113,1,,,,,,,,,,,,,,,,,,,,,,,,
,,,,,,,,,,,,l,Incorrect,,,,,,t2.png,t1.png,1,0.9,19,female,2020-09-28_14h05.52.714,torte-2b,2020.1.3,Win32,60,13295,1.68711,,,,,,,,,,,,,,,,,,,,,,,,,,,,,,,,,,,,,0,60,60,118,1,,,,,,,,,,,,,,,,,,,,,,,,
,,,,,,,,,,,,l,Incorrect,,,,,,t3.png,t2.png,1,0.909,19,female,2020-09-28_14h05.52.714,torte-2b,2020.1.3,Win32,60,13295,1.380205,,,,,,,,,,,,,,,,,,,,,,,,,,,,,,,,,,,,,0,61,61,23,1,,,,,,,,,,,,,,,,,,,,,,,,
,,,,,,,,,,,,a,Correct!,,,,,,t2.png,t2.png,0,0.981,19,female,2020-09-28_14h05.52.714,torte-2b,2020.1.3,Win32,60,13295,1.033315,,,,,,,,,,,,,,,,,,,,,,,,,,,,,,,,,,,,,0,62,62,101,1,,,,,,,,,,,,,,,,,,,,,,,,
,,,,,,,,,,,,a,Incorrect,,,,,,t1.png,t5.png,4,9.55E-11,19,female,2020-09-28_14h05.52.714,torte-2b,2020.1.3,Win32,60,13295,1.513105,,,,,,,,,,,,,,,,,,,,,,,,,,,,,,,,,,,,,0,63,63,16,1,,,,,,,,,,,,,,,,,,,,,,,,
,,,,,,,,,,,,a,Incorrect,,,,,,t5.png,t3.png,2,0.056466,19,female,2020-09-28_14h05.52.714,torte-2b,2020.1.3,Win32,60,13295,2.227905,,,,,,,,,,,,,,,,,,,,,,,,,,,,,,,,,,,,,0,64,64,38,1,,,,,,,,,,,,,,,,,,,,,,,,
,,,,,,,,,,,,a,Correct!,,,,,,t2.png,t2.png,0,0.98115,19,female,2020-09-28_14h05.52.714,torte-2b,2020.1.3,Win32,60,13295,1.85301,,,,,,,,,,,,,,,,,,,,,,,,,,,,,,,,,,,,,0,65,65,57,1,,,,,,,,,,,,,,,,,,,,,,,,
,,,,,,,,,,,,a,Correct!,,,,,,t2.png,t3.png,1,0.90855,19,female,2020-09-28_14h05.52.714,torte-2b,2020.1.3,Win32,60,13295,1.397495,,,,,,,,,,,,,,,,,,,,,,,,,,,,,,,,,,,,,0,66,66,68,1,,,,,,,,,,,,,,,,,,,,,,,,
,,,,,,,,,,,,a,Correct!,,,,,,t4.png,t3.png,1,0.90855,19,female,2020-09-28_14h05.52.714,torte-2b,2020.1.3,Win32,60,13295,1.5156,,,,,,,,,,,,,,,,,,,,,,,,,,,,,,,,,,,,,0,67,67,35,1,,,,,,,,,,,,,,,,,,,,,,,,
,,,,,,,,,,,,a,Correct!,,,,,,t4.png,t5.png,1,0.90025,19,female,2020-09-28_14h05.52.714,torte-2b,2020.1.3,Win32,60,13295,1.166775,,,,,,,,,,,,,,,,,,,,,,,,,,,,,,,,,,,,,0,68,68,47,1,,,,,,,,,,,,,,,,,,,,,,,,
,,,,,,,,,,,,l,Incorrect,,,,,,t2.png,t2.png,0,0.98115,19,female,2020-09-28_14h05.52.714,torte-2b,2020.1.3,Win32,60,13295,0.86673,,,,,,,,,,,,,,,,,,,,,,,,,,,,,,,,,,,,,0,69,69,7,1,,,,,,,,,,,,,,,,,,,,,,,,
,,,,,,,,,,,,a,Incorrect,,,,,,t1.png,t5.png,4,9.55E-11,19,female,2020-09-28_14h05.52.714,torte-2b,2020.1.3,Win32,60,13295,2.131405,,,,,,,,,,,,,,,,,,,,,,,,,,,,,,,,,,,,,0,70,70,55,1,,,,,,,,,,,,,,,,,,,,,,,,
,,,,,,,,,,,,l,Incorrect,,,,,,t1.png,t2.png,1,0.90025,19,female,2020-09-28_14h05.52.714,torte-2b,2020.1.3,Win32,60,13295,1.14949,,,,,,,,,,,,,,,,,,,,,,,,,,,,,,,,,,,,,0,71,71,112,1,,,,,,,,,,,,,,,,,,,,,,,,
,,,,,,,,,,,,a,Incorrect,,,,,,t5.png,t3.png,2,0.0565,19,female,2020-09-28_14h05.52.714,torte-2b,2020.1.3,Win32,60,13295,1.399475,,,,,,,,,,,,,,,,,,,,,,,,,,,,,,,,,,,,,0,72,72,39,1,,,,,,,,,,,,,,,,,,,,,,,,
,,,,,,,,,,,,l,Correct!,,,,,,t3.png,t1.png,2,0.056466,19,female,2020-09-28_14h05.52.714,torte-2b,2020.1.3,Win32,60,13295,0.90005,,,,,,,,,,,,,,,,,,,,,,,,,,,,,,,,,,,,,0,73,73,29,1,,,,,,,,,,,,,,,,,,,,,,,,
,,,,,,,,,,,,a,Correct!,,,,,,t4.png,t5.png,1,0.9,19,female,2020-09-28_14h05.52.714,torte-2b,2020.1.3,Win32,60,13295,2.19769,,,,,,,,,,,,,,,,,,,,,,,,,,,,,,,,,,,,,0,74,74,115,1,,,,,,,,,,,,,,,,,,,,,,,,
,,,,,,,,,,,,l,Correct!,,,,,,t5.png,t2.png,3,0.0000131,19,female,2020-09-28_14h05.52.714,torte-2b,2020.1.3,Win32,60,13295,1.708445,,,,,,,,,,,,,,,,,,,,,,,,,,,,,,,,,,,,,0,75,75,119,1,,,,,,,,,,,,,,,,,,,,,,,,
,,,,,,,,,,,,a,Correct!,,,,,,t4.png,t3.png,1,0.909,19,female,2020-09-28_14h05.52.714,torte-2b,2020.1.3,Win32,60,13295,1.170965,,,,,,,,,,,,,,,,,,,,,,,,,,,,,,,,,,,,,0,76,76,20,1,,,,,,,,,,,,,,,,,,,,,,,,
,,,,,,,,,,,,l,Incorrect,,,,,,t5.png,t4.png,1,0.9,19,female,2020-09-28_14h05.52.714,torte-2b,2020.1.3,Win32,60,13295,2.008535,,,,,,,,,,,,,,,,,,,,,,,,,,,,,,,,,,,,,0,77,77,49,1,,,,,,,,,,,,,,,,,,,,,,,,
,,,,,,,,,,,,a,Correct!,,,,,,t4.png,t4.png,0,0.98115,19,female,2020-09-28_14h05.52.714,torte-2b,2020.1.3,Win32,60,13295,2.33096,,,,,,,,,,,,,,,,,,,,,,,,,,,,,,,,,,,,,0,78,78,90,1,,,,,,,,,,,,,,,,,,,,,,,,
,,,,,,,,,,,,a,Correct!,,,,,,t4.png,t4.png,0,0.98115,19,female,2020-09-28_14h05.52.714,torte-2b,2020.1.3,Win32,60,13295,1.788875,,,,,,,,,,,,,,,,,,,,,,,,,,,,,,,,,,,,,0,79,79,21,1,,,,,,,,,,,,,,,,,,,,,,,,
,,,,,,,,,,,,,Too slow :(,,,,,,t1.png,t4.png,3,0.0000131,19,female,2020-09-28_14h05.52.714,torte-2b,2020.1.3,Win32,60,13295,,,,,,,,,,,,,,,,,,,,,,,,,,,,,,,,,,,,,,0,80,80,107,1,,,,,,,,,,,,,,,,,,,,,,,,
,,,,,,,,,,,,l,Incorrect,,,,,,t3.png,t4.png,1,0.909,19,female,2020-09-28_14h05.52.714,torte-2b,2020.1.3,Win32,60,13295,1.405995,,,,,,,,,,,,,,,,,,,,,,,,,,,,,,,,,,,,,0,81,81,82,1,,,,,,,,,,,,,,,,,,,,,,,,
,,,,,,,,,,,,l,Correct!,,,,,,t5.png,t2.png,3,0.0000131,19,female,2020-09-28_14h05.52.714,torte-2b,2020.1.3,Win32,60,13295,1.47187,,,,,,,,,,,,,,,,,,,,,,,,,,,,,,,,,,,,,0,82,82,116,1,,,,,,,,,,,,,,,,,,,,,,,,
,,,,,,,,,,,,a,Incorrect,,,,,,t4.png,t2.png,2,0.059078,19,female,2020-09-28_14h05.52.714,torte-2b,2020.1.3,Win32,60,13295,1.66515,,,,,,,,,,,,,,,,,,,,,,,,,,,,,,,,,,,,,0,83,83,109,1,,,,,,,,,,,,,,,,,,,,,,,,
,,,,,,,,,,,,,Too slow :(,,,,,,t4.png,t4.png,0,0.98115,19,female,2020-09-28_14h05.52.714,torte-2b,2020.1.3,Win32,60,13295,,,,,,,,,,,,,,,,,,,,,,,,,,,,,,,,,,,,,,0,84,84,52,1,,,,,,,,,,,,,,,,,,,,,,,,
,,,,,,,,,,,,a,Incorrect,,,,,,t2.png,t5.png,3,0.0000131,19,female,2020-09-28_14h05.52.714,torte-2b,2020.1.3,Win32,60,13295,1.732345,,,,,,,,,,,,,,,,,,,,,,,,,,,,,,,,,,,,,0,85,85,104,1,,,,,,,,,,,,,,,,,,,,,,,,
,,,,,,,,,,,,a,Correct!,,,,,,t4.png,t5.png,1,0.90025,19,female,2020-09-28_14h05.52.714,torte-2b,2020.1.3,Win32,60,13295,1.582045,,,,,,,,,,,,,,,,,,,,,,,,,,,,,,,,,,,,,0,86,86,103,1,,,,,,,,,,,,,,,,,,,,,,,,
,,,,,,,,,,,,a,Incorrect,,,,,,t3.png,t5.png,2,0.0565,19,female,2020-09-28_14h05.52.714,torte-2b,2020.1.3,Win32,60,13295,1.432155,,,,,,,,,,,,,,,,,,,,,,,,,,,,,,,,,,,,,0,87,87,30,1,,,,,,,,,,,,,,,,,,,,,,,,
,,,,,,,,,,,,a,Incorrect,,,,,,t5.png,t3.png,2,0.056466,19,female,2020-09-28_14h05.52.714,torte-2b,2020.1.3,Win32,60,13295,1.082805,,,,,,,,,,,,,,,,,,,,,,,,,,,,,,,,,,,,,0,88,88,56,1,,,,,,,,,,,,,,,,,,,,,,,,
,,,,,,,,,,,,a,Incorrect,,,,,,t2.png,t5.png,3,0.0000131,19,female,2020-09-28_14h05.52.714,torte-2b,2020.1.3,Win32,60,13295,1.7649,,,,,,,,,,,,,,,,,,,,,,,,,,,,,,,,,,,,,0,89,89,95,1,,,,,,,,,,,,,,,,,,,,,,,,
,,,,,,,,,,,,,Too slow :(,,,,,,t5.png,t2.png,3,0.0000131,19,female,2020-09-28_14h05.52.714,torte-2b,2020.1.3,Win32,60,13295,,,,,,,,,,,,,,,,,,,,,,,,,,,,,,,,,,,,,,0,90,90,51,1,,,,,,,,,,,,,,,,,,,,,,,,
,,,,,,,,,,,,l,Correct!,,,,,,t5.png,t1.png,4,9.55E-11,19,female,2020-09-28_14h05.52.714,torte-2b,2020.1.3,Win32,60,13295,1.59877,,,,,,,,,,,,,,,,,,,,,,,,,,,,,,,,,,,,,0,91,91,100,1,,,,,,,,,,,,,,,,,,,,,,,,
,,,,,,,,,,,,,Too slow :(,,,,,,t3.png,t4.png,1,0.909,19,female,2020-09-28_14h05.52.714,torte-2b,2020.1.3,Win32,60,13295,,,,,,,,,,,,,,,,,,,,,,,,,,,,,,,,,,,,,,0,92,92,89,1,,,,,,,,,,,,,,,,,,,,,,,,
,,,,,,,,,,,,a,Incorrect,,,,,,t3.png,t1.png,2,0.056466,19,female,2020-09-28_14h05.52.714,torte-2b,2020.1.3,Win32,60,13295,1.19914,,,,,,,,,,,,,,,,,,,,,,,,,,,,,,,,,,,,,0,93,93,0,1,,,,,,,,,,,,,,,,,,,,,,,,
,,,,,,,,,,,,a,Correct!,,,,,,t3.png,t4.png,1,0.90855,19,female,2020-09-28_14h05.52.714,torte-2b,2020.1.3,Win32,60,13295,2.44735,,,,,,,,,,,,,,,,,,,,,,,,,,,,,,,,,,,,,0,94,94,96,1,,,,,,,,,,,,,,,,,,,,,,,,
,,,,,,,,,,,,l,Incorrect,,,,,,t5.png,t5.png,0,0.97829,19,female,2020-09-28_14h05.52.714,torte-2b,2020.1.3,Win32,60,13295,1.121975,,,,,,,,,,,,,,,,,,,,,,,,,,,,,,,,,,,,,0,95,95,70,1,,,,,,,,,,,,,,,,,,,,,,,,
,,,,,,,,,,,,l,Incorrect,,,,,,t5.png,t4.png,1,0.90025,19,female,2020-09-28_14h05.52.714,torte-2b,2020.1.3,Win32,60,13295,0.7006,,,,,,,,,,,,,,,,,,,,,,,,,,,,,,,,,,,,,0,96,96,26,1,,,,,,,,,,,,,,,,,,,,,,,,
,,,,,,,,,,,,,Too slow :(,,,,,,t5.png,t5.png,0,0.97829,19,female,2020-09-28_14h05.52.714,torte-2b,2020.1.3,Win32,60,13295,,,,,,,,,,,,,,,,,,,,,,,,,,,,,,,,,,,,,,0,97,97,25,1,,,,,,,,,,,,,,,,,,,,,,,,
,,,,,,,,,,,,a,Correct!,,,,,,t2.png,t3.png,1,0.90855,19,female,2020-09-28_14h05.52.714,torte-2b,2020.1.3,Win32,60,13295,0.833265,,,,,,,,,,,,,,,,,,,,,,,,,,,,,,,,,,,,,0,98,98,111,1,,,,,,,,,,,,,,,,,,,,,,,,
,,,,,,,,,,,,l,Correct!,,,,,,t1.png,t4.png,3,0.0000131,19,female,2020-09-28_14h05.52.714,torte-2b,2020.1.3,Win32,60,13295,1.731745,,,,,,,,,,,,,,,,,,,,,,,,,,,,,,,,,,,,,0,99,99,92,1,,,,,,,,,,,,,,,,,,,,,,,,
,,,,,,,,,,,,a,Incorrect,,,,,,t4.png,t2.png,2,0.059078,19,female,2020-09-28_14h05.52.714,torte-2b,2020.1.3,Win32,60,13295,1.703635,,,,,,,,,,,,,,,,,,,,,,,,,,,,,,,,,,,,,0,100,100,110,1,,,,,,,,,,,,,,,,,,,,,,,,
,,,,,,,,,,,,l,Correct!,,,,,,t3.png,t1.png,2,0.0565,19,female,2020-09-28_14h05.52.714,torte-2b,2020.1.3,Win32,60,13295,1.3846,,,,,,,,,,,,,,,,,,,,,,,,,,,,,,,,,,,,,0,101,101,31,1,,,,,,,,,,,,,,,,,,,,,,,,
,,,,,,,,,,,,l,Incorrect,,,,,,t3.png,t2.png,1,0.90855,19,female,2020-09-28_14h05.52.714,torte-2b,2020.1.3,Win32,60,13295,1.47008,,,,,,,,,,,,,,,,,,,,,,,,,,,,,,,,,,,,,0,102,102,18,1,,,,,,,,,,,,,,,,,,,,,,,,
,,,,,,,,,,,,l,Incorrect,,,,,,t1.png,t1.png,0,0.97829,19,female,2020-09-28_14h05.52.714,torte-2b,2020.1.3,Win32,60,13295,0.89945,,,,,,,,,,,,,,,,,,,,,,,,,,,,,,,,,,,,,0,103,103,78,1,,,,,,,,,,,,,,,,,,,,,,,,
,,,,,,,,,,,,l,Correct!,,,,,,t5.png,t1.png,4,9.55E-11,19,female,2020-09-28_14h05.52.714,torte-2b,2020.1.3,Win32,60,13295,1.87945,,,,,,,,,,,,,,,,,,,,,,,,,,,,,,,,,,,,,0,104,104,43,1,,,,,,,,,,,,,,,,,,,,,,,,
,,,,,,,,,,,,a,Incorrect,,,,,,t5.png,t3.png,2,0.056466,19,female,2020-09-28_14h05.52.714,torte-2b,2020.1.3,Win32,60,13295,1.70872,,,,,,,,,,,,,,,,,,,,,,,,,,,,,,,,,,,,,0,105,105,114,1,,,,,,,,,,,,,,,,,,,,,,,,
,,,,,,,,,,,,l,Correct!,,,,,,t4.png,t1.png,3,0.0000131,19,female,2020-09-28_14h05.52.714,torte-2b,2020.1.3,Win32,60,13295,1.93163,,,,,,,,,,,,,,,,,,,,,,,,,,,,,,,,,,,,,0,106,106,93,1,,,,,,,,,,,,,,,,,,,,,,,,
,,,,,,,,,,,,,Too slow :(,,,,,,t5.png,t4.png,1,0.90025,19,female,2020-09-28_14h05.52.714,torte-2b,2020.1.3,Win32,60,13295,,,,,,,,,,,,,,,,,,,,,,,,,,,,,,,,,,,,,,0,107,107,27,1,,,,,,,,,,,,,,,,,,,,,,,,
,,,,,,,,,,,,l,Correct!,,,,,,t2.png,t4.png,2,0.059078,19,female,2020-09-28_14h05.52.714,torte-2b,2020.1.3,Win32,60,13295,1.79845,,,,,,,,,,,,,,,,,,,,,,,,,,,,,,,,,,,,,0,108,108,24,1,,,,,,,,,,,,,,,,,,,,,,,,
,,,,,,,,,,,,l,Incorrect,,,,,,t1.png,t1.png,0,0.978,19,female,2020-09-28_14h05.52.714,torte-2b,2020.1.3,Win32,60,13295,0.667895,,,,,,,,,,,,,,,,,,,,,,,,,,,,,,,,,,,,,0,109,109,54,1,,,,,,,,,,,,,,,,,,,,,,,,
,,,,,,,,,,,,l,Correct!,,,,,,t4.png,t2.png,2,0.059078,19,female,2020-09-28_14h05.52.714,torte-2b,2020.1.3,Win32,60,13295,1.68188,,,,,,,,,,,,,,,,,,,,,,,,,,,,,,,,,,,,,0,110,110,88,1,,,,,,,,,,,,,,,,,,,,,,,,
,,,,,,,,,,,,,Too slow :(,,,,,,t1.png,t5.png,4,9.55E-11,19,female,2020-09-28_14h05.52.714,torte-2b,2020.1.3,Win32,60,13295,,,,,,,,,,,,,,,,,,,,,,,,,,,,,,,,,,,,,,0,111,111,41,1,,,,,,,,,,,,,,,,,,,,,,,,
,,,,,,,,,,,,a,Incorrect,,,,,,t2.png,t5.png,3,0.0000131,19,female,2020-09-28_14h05.52.714,torte-2b,2020.1.3,Win32,60,13295,2.33088,,,,,,,,,,,,,,,,,,,,,,,,,,,,,,,,,,,,,0,112,112,40,1,,,,,,,,,,,,,,,,,,,,,,,,
,,,,,,,,,,,,l,Correct!,,,,,,t2.png,t4.png,2,0.059078,19,female,2020-09-28_14h05.52.714,torte-2b,2020.1.3,Win32,60,13295,1.654295,,,,,,,,,,,,,,,,,,,,,,,,,,,,,,,,,,,,,0,113,113,37,1,,,,,,,,,,,,,,,,,,,,,,,,
,,,,,,,,,,,,l,Correct!,,,,,,t3.png,t5.png,2,0.056466,19,female,2020-09-28_14h05.52.714,torte-2b,2020.1.3,Win32,60,13295,1.56558,,,,,,,,,,,,,,,,,,,,,,,,,,,,,,,,,,,,,0,114,114,44,1,,,,,,,,,,,,,,,,,,,,,,,,
,,,,,,,,,,,,,Too slow :(,,,,,,t1.png,t3.png,2,0.056466,19,female,2020-09-28_14h05.52.714,torte-2b,2020.1.3,Win32,60,13295,,,,,,,,,,,,,,,,,,,,,,,,,,,,,,,,,,,,,,0,115,115,99,1,,,,,,,,,,,,,,,,,,,,,,,,
,,,,,,,,,,,,l,Correct!,,,,,,t1.png,t5.png,4,9.55E-11,19,female,2020-09-28_14h05.52.714,torte-2b,2020.1.3,Win32,60,13295,2.332705,,,,,,,,,,,,,,,,,,,,,,,,,,,,,,,,,,,,,0,116,116,85,1,,,,,,,,,,,,,,,,,,,,,,,,
,,,,,,,,,,,,a,Correct!,,,,,,t3.png,t2.png,1,0.90855,19,female,2020-09-28_14h05.52.714,torte-2b,2020.1.3,Win32,60,13295,1.548765,,,,,,,,,,,,,,,,,,,,,,,,,,,,,,,,,,,,,0,117,117,97,1,,,,,,,,,,,,,,,,,,,,,,,,
,,,,,,,,,,,,l,Correct!,,,,,,t5.png,t1.png,4,9.55E-11,19,female,2020-09-28_14h05.52.714,torte-2b,2020.1.3,Win32,60,13295,1.56508,,,,,,,,,,,,,,,,,,,,,,,,,,,,,,,,,,,,,0,118,118,22,1,,,,,,,,,,,,,,,,,,,,,,,,
,,,,,,,,,,,,a,Correct!,,,,,,t3.png,t5.png,2,0.056466,19,female,2020-09-28_14h05.52.714,torte-2b,2020.1.3,Win32,60,13295,1.56581,,,,,,,,,,,,,,,,,,,,,,,,,,,,,,,,,,,,,0,119,119,14,1,,,,,,,,,,,,,,,,,,,,,,,,
,,,,,,,,,,,,,,,,,,,,,,,19,female,2020-09-28_14h05.52.714,torte-2b,2020.1.3,Win32,60,13295,,space,1.309695,,,,,,,,,,,,,,,,,,,,,,,,,,,,,,,,,,,,,,,,130.4000134,-180.0000091,1,0,0,s7,39.20001203,99.99999505,1,0,0,t1,160.0000138,-90.40000778,1,0,0,proceed,space,0.63757,space,1.132825,space,1.365755
