key_resp_8.keys,key_resp_8.rt,key_resp_9.keys,key_resp_9.rt,key_resp_10.keys,key_resp_10.rt,key_resp_11.keys,key_resp_11.rt,key_resp_2.keys,key_resp_2.rt,key_resp_3.keys,key_resp_3.rt,key_resp.keys,key_resp.rt,Feedback,train.thisRepN,train.thisTrialN,train.thisN,train.thisIndex,train.ran,torta_sx,torta_dx,difference,probability,age,gender,date,expName,psychopyVersion,OS,frameRate,participant,key_resp_15.keys,key_resp_15.rt,key_resp_6.keys,key_resp_6.rt,test1.thisRepN,test1.thisTrialN,test1.thisN,test1.thisIndex,test1.ran,key_resp_4.keys,key_resp_4.rt,key_resp_5.keys,back1.thisRepN,back1.thisTrialN,back1.thisN,back1.thisIndex,back1.ran,letter,key_resp_5.rt,back2.thisRepN,back2.thisTrialN,back2.thisN,back2.thisIndex,back2.ran,back3.thisRepN,back3.thisTrialN,back3.thisN,back3.thisIndex,back3.ran,back4.thisRepN,back4.thisTrialN,back4.thisN,back4.thisIndex,back4.ran,key_resp_7.keys,key_resp_7.rt,test2.thisRepN,test2.thisTrialN,test2.thisN,test2.thisIndex,test2.ran,mouse.x,mouse.y,mouse.leftButton,mouse.midButton,mouse.rightButton,mouse.clicked_name,mouse_2.x,mouse_2.y,mouse_2.leftButton,mouse_2.midButton,mouse_2.rightButton,mouse_2.clicked_name,mouse_3.x,mouse_3.y,mouse_3.leftButton,mouse_3.midButton,mouse_3.rightButton,mouse_3.clicked_name,key_resp_12.keys,key_resp_12.rt,key_resp_13.keys,key_resp_13.rt,key_resp_14.keys,key_resp_14.rt
space,5.270535,space,3.20398,space,0.879525,space,1.861095,space,9.922705,space,10.97349,a,1.33698,Incorrect,0,0,0,55,1,t2.png,t4.png,2,0.059078,20,Female,2020-11-19_16h02.49.766,torte-2b,2020.1.3,Win32,60,13297,,,,,,,,,,,,,,,,,,,,,,,,,,,,,,,,,,,,,,,,,,,,,,,,,,,,,,,,,,,,,,,,,
,,,,,,,,,,,,l,0.821655,Incorrect,0,1,1,49,1,t4.png,t5.png,1,0.9,20,Female,2020-11-19_16h02.49.766,torte-2b,2020.1.3,Win32,60,13297,,,,,,,,,,,,,,,,,,,,,,,,,,,,,,,,,,,,,,,,,,,,,,,,,,,,,,,,,,,,,,,,,
,,,,,,,,,,,,a,0.67922,Incorrect,0,2,2,108,1,t5.png,t1.png,4,9.55E-11,20,Female,2020-11-19_16h02.49.766,torte-2b,2020.1.3,Win32,60,13297,,,,,,,,,,,,,,,,,,,,,,,,,,,,,,,,,,,,,,,,,,,,,,,,,,,,,,,,,,,,,,,,,
,,,,,,,,,,,,a,0.833655,Incorrect,0,3,3,40,1,t1.png,t5.png,4,9.55E-11,20,Female,2020-11-19_16h02.49.766,torte-2b,2020.1.3,Win32,60,13297,,,,,,,,,,,,,,,,,,,,,,,,,,,,,,,,,,,,,,,,,,,,,,,,,,,,,,,,,,,,,,,,,
,,,,,,,,,,,,l,0.88759,Correct!,0,4,4,37,1,t1.png,t4.png,3,0.0000131,20,Female,2020-11-19_16h02.49.766,torte-2b,2020.1.3,Win32,60,13297,,,,,,,,,,,,,,,,,,,,,,,,,,,,,,,,,,,,,,,,,,,,,,,,,,,,,,,,,,,,,,,,,
,,,,,,,,,,,,l,1.577015,Correct!,0,5,5,11,1,t1.png,t4.png,3,0.0000131,20,Female,2020-11-19_16h02.49.766,torte-2b,2020.1.3,Win32,60,13297,,,,,,,,,,,,,,,,,,,,,,,,,,,,,,,,,,,,,,,,,,,,,,,,,,,,,,,,,,,,,,,,,
,,,,,,,,,,,,l,1.71301,Incorrect,0,6,6,34,1,t5.png,t4.png,1,0.9,20,Female,2020-11-19_16h02.49.766,torte-2b,2020.1.3,Win32,60,13297,,,,,,,,,,,,,,,,,,,,,,,,,,,,,,,,,,,,,,,,,,,,,,,,,,,,,,,,,,,,,,,,,
,,,,,,,,,,,,l,0.886265,Incorrect,0,7,7,44,1,t2.png,t3.png,1,0.909,20,Female,2020-11-19_16h02.49.766,torte-2b,2020.1.3,Win32,60,13297,,,,,,,,,,,,,,,,,,,,,,,,,,,,,,,,,,,,,,,,,,,,,,,,,,,,,,,,,,,,,,,,,
,,,,,,,,,,,,a,1.08631,Incorrect,0,8,8,70,1,t5.png,t5.png,0,0.978,20,Female,2020-11-19_16h02.49.766,torte-2b,2020.1.3,Win32,60,13297,,,,,,,,,,,,,,,,,,,,,,,,,,,,,,,,,,,,,,,,,,,,,,,,,,,,,,,,,,,,,,,,,
,,,,,,,,,,,,a,0.883795,Correct!,0,9,9,79,1,t3.png,t2.png,1,0.909,20,Female,2020-11-19_16h02.49.766,torte-2b,2020.1.3,Win32,60,13297,,,,,,,,,,,,,,,,,,,,,,,,,,,,,,,,,,,,,,,,,,,,,,,,,,,,,,,,,,,,,,,,,
,,,,,,,,,,,,a,0.75068,Correct!,0,10,10,85,1,t3.png,t2.png,1,0.90855,20,Female,2020-11-19_16h02.49.766,torte-2b,2020.1.3,Win32,60,13297,,,,,,,,,,,,,,,,,,,,,,,,,,,,,,,,,,,,,,,,,,,,,,,,,,,,,,,,,,,,,,,,,
,,,,,,,,,,,,l,0.784365,Correct!,0,11,11,93,1,t2.png,t4.png,2,0.059078,20,Female,2020-11-19_16h02.49.766,torte-2b,2020.1.3,Win32,60,13297,,,,,,,,,,,,,,,,,,,,,,,,,,,,,,,,,,,,,,,,,,,,,,,,,,,,,,,,,,,,,,,,,
,,,,,,,,,,,,a,0.917915,Incorrect,0,12,12,82,1,t5.png,t1.png,4,9.55E-11,20,Female,2020-11-19_16h02.49.766,torte-2b,2020.1.3,Win32,60,13297,,,,,,,,,,,,,,,,,,,,,,,,,,,,,,,,,,,,,,,,,,,,,,,,,,,,,,,,,,,,,,,,,
,,,,,,,,,,,,l,0.539335,Correct!,0,13,13,87,1,t5.png,t1.png,4,9.55E-11,20,Female,2020-11-19_16h02.49.766,torte-2b,2020.1.3,Win32,60,13297,,,,,,,,,,,,,,,,,,,,,,,,,,,,,,,,,,,,,,,,,,,,,,,,,,,,,,,,,,,,,,,,,
,,,,,,,,,,,,l,0.82387,Correct!,0,14,14,51,1,t3.png,t1.png,2,0.056466,20,Female,2020-11-19_16h02.49.766,torte-2b,2020.1.3,Win32,60,13297,,,,,,,,,,,,,,,,,,,,,,,,,,,,,,,,,,,,,,,,,,,,,,,,,,,,,,,,,,,,,,,,,
,,,,,,,,,,,,l,0.646905,Correct!,0,15,15,99,1,t1.png,t5.png,4,9.55E-11,20,Female,2020-11-19_16h02.49.766,torte-2b,2020.1.3,Win32,60,13297,,,,,,,,,,,,,,,,,,,,,,,,,,,,,,,,,,,,,,,,,,,,,,,,,,,,,,,,,,,,,,,,,
,,,,,,,,,,,,l,0.68383,Correct!,0,16,16,111,1,t5.png,t1.png,4,9.55E-11,20,Female,2020-11-19_16h02.49.766,torte-2b,2020.1.3,Win32,60,13297,,,,,,,,,,,,,,,,,,,,,,,,,,,,,,,,,,,,,,,,,,,,,,,,,,,,,,,,,,,,,,,,,
,,,,,,,,,,,,l,0.53347,Incorrect,0,17,17,81,1,t1.png,t1.png,0,0.97829,20,Female,2020-11-19_16h02.49.766,torte-2b,2020.1.3,Win32,60,13297,,,,,,,,,,,,,,,,,,,,,,,,,,,,,,,,,,,,,,,,,,,,,,,,,,,,,,,,,,,,,,,,,
,,,,,,,,,,,,l,0.57123,Correct!,0,18,18,88,1,t3.png,t1.png,2,0.056466,20,Female,2020-11-19_16h02.49.766,torte-2b,2020.1.3,Win32,60,13297,,,,,,,,,,,,,,,,,,,,,,,,,,,,,,,,,,,,,,,,,,,,,,,,,,,,,,,,,,,,,,,,,
,,,,,,,,,,,,l,0.70052,Incorrect,0,19,19,18,1,t4.png,t5.png,1,0.90025,20,Female,2020-11-19_16h02.49.766,torte-2b,2020.1.3,Win32,60,13297,,,,,,,,,,,,,,,,,,,,,,,,,,,,,,,,,,,,,,,,,,,,,,,,,,,,,,,,,,,,,,,,,
,,,,,,,,,,,,l,0.65707,Incorrect,0,20,20,7,1,t4.png,t5.png,1,0.90025,20,Female,2020-11-19_16h02.49.766,torte-2b,2020.1.3,Win32,60,13297,,,,,,,,,,,,,,,,,,,,,,,,,,,,,,,,,,,,,,,,,,,,,,,,,,,,,,,,,,,,,,,,,
,,,,,,,,,,,,a,1.16687,Correct!,0,21,21,20,1,t2.png,t3.png,1,0.90855,20,Female,2020-11-19_16h02.49.766,torte-2b,2020.1.3,Win32,60,13297,,,,,,,,,,,,,,,,,,,,,,,,,,,,,,,,,,,,,,,,,,,,,,,,,,,,,,,,,,,,,,,,,
,,,,,,,,,,,,a,0.900845,Correct!,0,22,22,100,1,t4.png,t5.png,1,0.90025,20,Female,2020-11-19_16h02.49.766,torte-2b,2020.1.3,Win32,60,13297,,,,,,,,,,,,,,,,,,,,,,,,,,,,,,,,,,,,,,,,,,,,,,,,,,,,,,,,,,,,,,,,,
,,,,,,,,,,,,l,0.79193,Correct!,0,23,23,86,1,t3.png,t1.png,2,0.056466,20,Female,2020-11-19_16h02.49.766,torte-2b,2020.1.3,Win32,60,13297,,,,,,,,,,,,,,,,,,,,,,,,,,,,,,,,,,,,,,,,,,,,,,,,,,,,,,,,,,,,,,,,,
,,,,,,,,,,,,a,1.4356,Incorrect,0,24,24,13,1,t5.png,t5.png,0,0.97829,20,Female,2020-11-19_16h02.49.766,torte-2b,2020.1.3,Win32,60,13297,,,,,,,,,,,,,,,,,,,,,,,,,,,,,,,,,,,,,,,,,,,,,,,,,,,,,,,,,,,,,,,,,
,,,,,,,,,,,,l,0.827325,Incorrect,0,25,25,71,1,t5.png,t5.png,0,0.97829,20,Female,2020-11-19_16h02.49.766,torte-2b,2020.1.3,Win32,60,13297,,,,,,,,,,,,,,,,,,,,,,,,,,,,,,,,,,,,,,,,,,,,,,,,,,,,,,,,,,,,,,,,,
,,,,,,,,,,,,l,0.55312,Incorrect,0,26,26,62,1,t5.png,t5.png,0,0.978,20,Female,2020-11-19_16h02.49.766,torte-2b,2020.1.3,Win32,60,13297,,,,,,,,,,,,,,,,,,,,,,,,,,,,,,,,,,,,,,,,,,,,,,,,,,,,,,,,,,,,,,,,,
,,,,,,,,,,,,l,0.92726,Correct!,0,27,27,14,1,t2.png,t4.png,2,0.059078,20,Female,2020-11-19_16h02.49.766,torte-2b,2020.1.3,Win32,60,13297,,,,,,,,,,,,,,,,,,,,,,,,,,,,,,,,,,,,,,,,,,,,,,,,,,,,,,,,,,,,,,,,,
,,,,,,,,,,,,l,0.718205,Incorrect,0,28,28,15,1,t3.png,t2.png,1,0.90855,20,Female,2020-11-19_16h02.49.766,torte-2b,2020.1.3,Win32,60,13297,,,,,,,,,,,,,,,,,,,,,,,,,,,,,,,,,,,,,,,,,,,,,,,,,,,,,,,,,,,,,,,,,
,,,,,,,,,,,,a,0.917295,Correct!,0,29,29,78,1,t1.png,t1.png,0,0.978,20,Female,2020-11-19_16h02.49.766,torte-2b,2020.1.3,Win32,60,13297,,,,,,,,,,,,,,,,,,,,,,,,,,,,,,,,,,,,,,,,,,,,,,,,,,,,,,,,,,,,,,,,,
,,,,,,,,,,,,a,0.841565,Incorrect,0,30,30,50,1,t5.png,t1.png,4,9.55E-11,20,Female,2020-11-19_16h02.49.766,torte-2b,2020.1.3,Win32,60,13297,,,,,,,,,,,,,,,,,,,,,,,,,,,,,,,,,,,,,,,,,,,,,,,,,,,,,,,,,,,,,,,,,
,,,,,,,,,,,,l,0.81138,Correct!,0,31,31,56,1,t5.png,t1.png,4,9.55E-11,20,Female,2020-11-19_16h02.49.766,torte-2b,2020.1.3,Win32,60,13297,,,,,,,,,,,,,,,,,,,,,,,,,,,,,,,,,,,,,,,,,,,,,,,,,,,,,,,,,,,,,,,,,
,,,,,,,,,,,,l,0.655195,Correct!,0,32,32,53,1,t3.png,t1.png,2,0.056466,20,Female,2020-11-19_16h02.49.766,torte-2b,2020.1.3,Win32,60,13297,,,,,,,,,,,,,,,,,,,,,,,,,,,,,,,,,,,,,,,,,,,,,,,,,,,,,,,,,,,,,,,,,
,,,,,,,,,,,,l,0.45385,Correct!,0,33,33,67,1,t1.png,t5.png,4,9.55E-11,20,Female,2020-11-19_16h02.49.766,torte-2b,2020.1.3,Win32,60,13297,,,,,,,,,,,,,,,,,,,,,,,,,,,,,,,,,,,,,,,,,,,,,,,,,,,,,,,,,,,,,,,,,
,,,,,,,,,,,,a,0.93714,Correct!,0,34,34,101,1,t4.png,t5.png,1,0.90025,20,Female,2020-11-19_16h02.49.766,torte-2b,2020.1.3,Win32,60,13297,,,,,,,,,,,,,,,,,,,,,,,,,,,,,,,,,,,,,,,,,,,,,,,,,,,,,,,,,,,,,,,,,
,,,,,,,,,,,,l,0.54246,Correct!,0,35,35,21,1,t5.png,t4.png,1,0.90025,20,Female,2020-11-19_16h02.49.766,torte-2b,2020.1.3,Win32,60,13297,,,,,,,,,,,,,,,,,,,,,,,,,,,,,,,,,,,,,,,,,,,,,,,,,,,,,,,,,,,,,,,,,
,,,,,,,,,,,,l,0.791805,Incorrect,0,36,36,95,1,t1.png,t1.png,0,0.978,20,Female,2020-11-19_16h02.49.766,torte-2b,2020.1.3,Win32,60,13297,,,,,,,,,,,,,,,,,,,,,,,,,,,,,,,,,,,,,,,,,,,,,,,,,,,,,,,,,,,,,,,,,
,,,,,,,,,,,,a,0.846445,Correct!,0,37,37,66,1,t4.png,t5.png,1,0.9,20,Female,2020-11-19_16h02.49.766,torte-2b,2020.1.3,Win32,60,13297,,,,,,,,,,,,,,,,,,,,,,,,,,,,,,,,,,,,,,,,,,,,,,,,,,,,,,,,,,,,,,,,,
,,,,,,,,,,,,l,1.00013,Correct!,0,38,38,6,1,t1.png,t4.png,3,0.0000131,20,Female,2020-11-19_16h02.49.766,torte-2b,2020.1.3,Win32,60,13297,,,,,,,,,,,,,,,,,,,,,,,,,,,,,,,,,,,,,,,,,,,,,,,,,,,,,,,,,,,,,,,,,
,,,,,,,,,,,,a,0.935165,Correct!,0,39,39,76,1,t3.png,t2.png,1,0.90855,20,Female,2020-11-19_16h02.49.766,torte-2b,2020.1.3,Win32,60,13297,,,,,,,,,,,,,,,,,,,,,,,,,,,,,,,,,,,,,,,,,,,,,,,,,,,,,,,,,,,,,,,,,
,,,,,,,,,,,,a,0.909705,Correct!,0,40,40,96,1,t1.png,t1.png,0,0.97829,20,Female,2020-11-19_16h02.49.766,torte-2b,2020.1.3,Win32,60,13297,,,,,,,,,,,,,,,,,,,,,,,,,,,,,,,,,,,,,,,,,,,,,,,,,,,,,,,,,,,,,,,,,
,,,,,,,,,,,,a,0.629995,Incorrect,0,41,41,27,1,t3.png,t1.png,2,0.0565,20,Female,2020-11-19_16h02.49.766,torte-2b,2020.1.3,Win32,60,13297,,,,,,,,,,,,,,,,,,,,,,,,,,,,,,,,,,,,,,,,,,,,,,,,,,,,,,,,,,,,,,,,,
,,,,,,,,,,,,l,0.983995,Correct!,0,42,42,35,1,t1.png,t4.png,3,0.0000131,20,Female,2020-11-19_16h02.49.766,torte-2b,2020.1.3,Win32,60,13297,,,,,,,,,,,,,,,,,,,,,,,,,,,,,,,,,,,,,,,,,,,,,,,,,,,,,,,,,,,,,,,,,
,,,,,,,,,,,,l,0.484,Incorrect,0,43,43,48,1,t5.png,t5.png,0,0.97829,20,Female,2020-11-19_16h02.49.766,torte-2b,2020.1.3,Win32,60,13297,,,,,,,,,,,,,,,,,,,,,,,,,,,,,,,,,,,,,,,,,,,,,,,,,,,,,,,,,,,,,,,,,
,,,,,,,,,,,,a,0.602495,Correct!,0,44,44,39,1,t3.png,t2.png,1,0.90855,20,Female,2020-11-19_16h02.49.766,torte-2b,2020.1.3,Win32,60,13297,,,,,,,,,,,,,,,,,,,,,,,,,,,,,,,,,,,,,,,,,,,,,,,,,,,,,,,,,,,,,,,,,
,,,,,,,,,,,,l,0.472405,Correct!,0,45,45,61,1,t1.png,t4.png,3,0.0000131,20,Female,2020-11-19_16h02.49.766,torte-2b,2020.1.3,Win32,60,13297,,,,,,,,,,,,,,,,,,,,,,,,,,,,,,,,,,,,,,,,,,,,,,,,,,,,,,,,,,,,,,,,,
,,,,,,,,,,,,l,0.628705,Incorrect,0,46,46,92,1,t2.png,t3.png,1,0.909,20,Female,2020-11-19_16h02.49.766,torte-2b,2020.1.3,Win32,60,13297,,,,,,,,,,,,,,,,,,,,,,,,,,,,,,,,,,,,,,,,,,,,,,,,,,,,,,,,,,,,,,,,,
,,,,,,,,,,,,l,0.71779,Correct!,0,47,47,117,1,t1.png,t5.png,4,9.55E-11,20,Female,2020-11-19_16h02.49.766,torte-2b,2020.1.3,Win32,60,13297,,,,,,,,,,,,,,,,,,,,,,,,,,,,,,,,,,,,,,,,,,,,,,,,,,,,,,,,,,,,,,,,,
,,,,,,,,,,,,l,0.66724,Correct!,0,48,48,68,1,t1.png,t4.png,3,0.0000131,20,Female,2020-11-19_16h02.49.766,torte-2b,2020.1.3,Win32,60,13297,,,,,,,,,,,,,,,,,,,,,,,,,,,,,,,,,,,,,,,,,,,,,,,,,,,,,,,,,,,,,,,,,
,,,,,,,,,,,,a,0.600295,Incorrect,0,49,49,52,1,t2.png,t4.png,2,0.059078,20,Female,2020-11-19_16h02.49.766,torte-2b,2020.1.3,Win32,60,13297,,,,,,,,,,,,,,,,,,,,,,,,,,,,,,,,,,,,,,,,,,,,,,,,,,,,,,,,,,,,,,,,,
,,,,,,,,,,,,l,0.885885,Incorrect,0,50,50,63,1,t2.png,t3.png,1,0.909,20,Female,2020-11-19_16h02.49.766,torte-2b,2020.1.3,Win32,60,13297,,,,,,,,,,,,,,,,,,,,,,,,,,,,,,,,,,,,,,,,,,,,,,,,,,,,,,,,,,,,,,,,,
,,,,,,,,,,,,a,0.934275,Incorrect,0,51,51,12,1,t5.png,t1.png,4,9.55E-11,20,Female,2020-11-19_16h02.49.766,torte-2b,2020.1.3,Win32,60,13297,,,,,,,,,,,,,,,,,,,,,,,,,,,,,,,,,,,,,,,,,,,,,,,,,,,,,,,,,,,,,,,,,
,,,,,,,,,,,,l,1.04023,Correct!,0,52,52,72,1,t4.png,t2.png,2,0.059078,20,Female,2020-11-19_16h02.49.766,torte-2b,2020.1.3,Win32,60,13297,,,,,,,,,,,,,,,,,,,,,,,,,,,,,,,,,,,,,,,,,,,,,,,,,,,,,,,,,,,,,,,,,
,,,,,,,,,,,,l,0.775755,Correct!,0,53,53,3,1,t1.png,t5.png,4,9.55E-11,20,Female,2020-11-19_16h02.49.766,torte-2b,2020.1.3,Win32,60,13297,,,,,,,,,,,,,,,,,,,,,,,,,,,,,,,,,,,,,,,,,,,,,,,,,,,,,,,,,,,,,,,,,
,,,,,,,,,,,,l,0.487795,Incorrect,0,54,54,84,1,t1.png,t1.png,0,0.97829,20,Female,2020-11-19_16h02.49.766,torte-2b,2020.1.3,Win32,60,13297,,,,,,,,,,,,,,,,,,,,,,,,,,,,,,,,,,,,,,,,,,,,,,,,,,,,,,,,,,,,,,,,,
,,,,,,,,,,,,l,0.602975,Incorrect,0,55,55,42,1,t5.png,t4.png,1,0.90025,20,Female,2020-11-19_16h02.49.766,torte-2b,2020.1.3,Win32,60,13297,,,,,,,,,,,,,,,,,,,,,,,,,,,,,,,,,,,,,,,,,,,,,,,,,,,,,,,,,,,,,,,,,
,,,,,,,,,,,,a,0.427355,Correct!,0,56,56,30,1,t3.png,t1.png,2,0.056466,20,Female,2020-11-19_16h02.49.766,torte-2b,2020.1.3,Win32,60,13297,,,,,,,,,,,,,,,,,,,,,,,,,,,,,,,,,,,,,,,,,,,,,,,,,,,,,,,,,,,,,,,,,
,,,,,,,,,,,,l,0.4598,Correct!,0,57,57,104,1,t2.png,t3.png,1,0.90855,20,Female,2020-11-19_16h02.49.766,torte-2b,2020.1.3,Win32,60,13297,,,,,,,,,,,,,,,,,,,,,,,,,,,,,,,,,,,,,,,,,,,,,,,,,,,,,,,,,,,,,,,,,
,,,,,,,,,,,,a,0.502995,Correct!,0,58,58,16,1,t5.png,t4.png,1,0.9,20,Female,2020-11-19_16h02.49.766,torte-2b,2020.1.3,Win32,60,13297,,,,,,,,,,,,,,,,,,,,,,,,,,,,,,,,,,,,,,,,,,,,,,,,,,,,,,,,,,,,,,,,,
,,,,,,,,,,,,l,0.37758,Incorrect,0,59,59,77,1,t1.png,t1.png,0,0.97829,20,Female,2020-11-19_16h02.49.766,torte-2b,2020.1.3,Win32,60,13297,,,,,,,,,,,,,,,,,,,,,,,,,,,,,,,,,,,,,,,,,,,,,,,,,,,,,,,,,,,,,,,,,
,,,,,,,,,,,,a,0.385335,Incorrect,0,60,60,26,1,t4.png,t2.png,2,0.0591,20,Female,2020-11-19_16h02.49.766,torte-2b,2020.1.3,Win32,60,13297,,,,,,,,,,,,,,,,,,,,,,,,,,,,,,,,,,,,,,,,,,,,,,,,,,,,,,,,,,,,,,,,,
,,,,,,,,,,,,a,0.26061,Incorrect,0,61,61,119,1,t1.png,t5.png,4,9.55E-11,20,Female,2020-11-19_16h02.49.766,torte-2b,2020.1.3,Win32,60,13297,,,,,,,,,,,,,,,,,,,,,,,,,,,,,,,,,,,,,,,,,,,,,,,,,,,,,,,,,,,,,,,,,
,,,,,,,,,,,,a,0.219955,Incorrect,0,62,62,43,1,t4.png,t2.png,2,0.059078,20,Female,2020-11-19_16h02.49.766,torte-2b,2020.1.3,Win32,60,13297,,,,,,,,,,,,,,,,,,,,,,,,,,,,,,,,,,,,,,,,,,,,,,,,,,,,,,,,,,,,,,,,,
,,,,,,,,,,,,a,0.23496,Incorrect,0,63,63,4,1,t1.png,t5.png,4,9.55E-11,20,Female,2020-11-19_16h02.49.766,torte-2b,2020.1.3,Win32,60,13297,,,,,,,,,,,,,,,,,,,,,,,,,,,,,,,,,,,,,,,,,,,,,,,,,,,,,,,,,,,,,,,,,
,,,,,,,,,,,,a,0.36884,Correct!,0,64,64,118,1,t5.png,t5.png,0,0.978,20,Female,2020-11-19_16h02.49.766,torte-2b,2020.1.3,Win32,60,13297,,,,,,,,,,,,,,,,,,,,,,,,,,,,,,,,,,,,,,,,,,,,,,,,,,,,,,,,,,,,,,,,,
,,,,,,,,,,,,l,0.29194,Incorrect,0,65,65,109,1,t5.png,t5.png,0,0.97829,20,Female,2020-11-19_16h02.49.766,torte-2b,2020.1.3,Win32,60,13297,,,,,,,,,,,,,,,,,,,,,,,,,,,,,,,,,,,,,,,,,,,,,,,,,,,,,,,,,,,,,,,,,
,,,,,,,,,,,,a,0.263005,Correct!,0,66,66,105,1,t3.png,t2.png,1,0.90855,20,Female,2020-11-19_16h02.49.766,torte-2b,2020.1.3,Win32,60,13297,,,,,,,,,,,,,,,,,,,,,,,,,,,,,,,,,,,,,,,,,,,,,,,,,,,,,,,,,,,,,,,,,
,,,,,,,,,,,,a,0.21806,Incorrect,0,67,67,89,1,t1.png,t4.png,3,0.0000131,20,Female,2020-11-19_16h02.49.766,torte-2b,2020.1.3,Win32,60,13297,,,,,,,,,,,,,,,,,,,,,,,,,,,,,,,,,,,,,,,,,,,,,,,,,,,,,,,,,,,,,,,,,
,,,,,,,,,,,,a,0.590385,Incorrect,0,68,68,33,1,t5.png,t1.png,4,9.55E-11,20,Female,2020-11-19_16h02.49.766,torte-2b,2020.1.3,Win32,60,13297,,,,,,,,,,,,,,,,,,,,,,,,,,,,,,,,,,,,,,,,,,,,,,,,,,,,,,,,,,,,,,,,,
,,,,,,,,,,,,a,0.517085,Incorrect,0,69,69,90,1,t1.png,t5.png,4,9.55E-11,20,Female,2020-11-19_16h02.49.766,torte-2b,2020.1.3,Win32,60,13297,,,,,,,,,,,,,,,,,,,,,,,,,,,,,,,,,,,,,,,,,,,,,,,,,,,,,,,,,,,,,,,,,
,,,,,,,,,,,,a,0.395295,Correct!,0,70,70,74,1,t5.png,t4.png,1,0.9,20,Female,2020-11-19_16h02.49.766,torte-2b,2020.1.3,Win32,60,13297,,,,,,,,,,,,,,,,,,,,,,,,,,,,,,,,,,,,,,,,,,,,,,,,,,,,,,,,,,,,,,,,,
,,,,,,,,,,,,a,0.77545,Correct!,0,71,71,112,1,t1.png,t1.png,0,0.97829,20,Female,2020-11-19_16h02.49.766,torte-2b,2020.1.3,Win32,60,13297,,,,,,,,,,,,,,,,,,,,,,,,,,,,,,,,,,,,,,,,,,,,,,,,,,,,,,,,,,,,,,,,,
,,,,,,,,,,,,a,0.67181,Correct!,0,72,72,64,1,t1.png,t1.png,0,0.978,20,Female,2020-11-19_16h02.49.766,torte-2b,2020.1.3,Win32,60,13297,,,,,,,,,,,,,,,,,,,,,,,,,,,,,,,,,,,,,,,,,,,,,,,,,,,,,,,,,,,,,,,,,
,,,,,,,,,,,,a,0.673535,Correct!,0,73,73,65,1,t4.png,t5.png,1,0.90025,20,Female,2020-11-19_16h02.49.766,torte-2b,2020.1.3,Win32,60,13297,,,,,,,,,,,,,,,,,,,,,,,,,,,,,,,,,,,,,,,,,,,,,,,,,,,,,,,,,,,,,,,,,
,,,,,,,,,,,,a,0.740475,Correct!,0,74,74,116,1,t5.png,t4.png,1,0.90025,20,Female,2020-11-19_16h02.49.766,torte-2b,2020.1.3,Win32,60,13297,,,,,,,,,,,,,,,,,,,,,,,,,,,,,,,,,,,,,,,,,,,,,,,,,,,,,,,,,,,,,,,,,
,,,,,,,,,,,,a,0.58013,Correct!,0,75,75,58,1,t5.png,t4.png,1,0.90025,20,Female,2020-11-19_16h02.49.766,torte-2b,2020.1.3,Win32,60,13297,,,,,,,,,,,,,,,,,,,,,,,,,,,,,,,,,,,,,,,,,,,,,,,,,,,,,,,,,,,,,,,,,
,,,,,,,,,,,,a,0.657085,Incorrect,0,76,76,103,1,t3.png,t1.png,2,0.056466,20,Female,2020-11-19_16h02.49.766,torte-2b,2020.1.3,Win32,60,13297,,,,,,,,,,,,,,,,,,,,,,,,,,,,,,,,,,,,,,,,,,,,,,,,,,,,,,,,,,,,,,,,,
,,,,,,,,,,,,l,0.50708,Correct!,0,77,77,115,1,t2.png,t4.png,2,0.059078,20,Female,2020-11-19_16h02.49.766,torte-2b,2020.1.3,Win32,60,13297,,,,,,,,,,,,,,,,,,,,,,,,,,,,,,,,,,,,,,,,,,,,,,,,,,,,,,,,,,,,,,,,,
,,,,,,,,,,,,a,0.53373,Incorrect,0,78,78,94,1,t5.png,t1.png,4,9.55E-11,20,Female,2020-11-19_16h02.49.766,torte-2b,2020.1.3,Win32,60,13297,,,,,,,,,,,,,,,,,,,,,,,,,,,,,,,,,,,,,,,,,,,,,,,,,,,,,,,,,,,,,,,,,
,,,,,,,,,,,,a,0.350655,Incorrect,0,79,79,0,1,t5.png,t1.png,4,9.55E-11,20,Female,2020-11-19_16h02.49.766,torte-2b,2020.1.3,Win32,60,13297,,,,,,,,,,,,,,,,,,,,,,,,,,,,,,,,,,,,,,,,,,,,,,,,,,,,,,,,,,,,,,,,,
,,,,,,,,,,,,l,0.261995,Correct!,0,80,80,5,1,t2.png,t4.png,2,0.059078,20,Female,2020-11-19_16h02.49.766,torte-2b,2020.1.3,Win32,60,13297,,,,,,,,,,,,,,,,,,,,,,,,,,,,,,,,,,,,,,,,,,,,,,,,,,,,,,,,,,,,,,,,,
,,,,,,,,,,,,a,0.24652,Correct!,0,81,81,32,1,t4.png,t5.png,1,0.90025,20,Female,2020-11-19_16h02.49.766,torte-2b,2020.1.3,Win32,60,13297,,,,,,,,,,,,,,,,,,,,,,,,,,,,,,,,,,,,,,,,,,,,,,,,,,,,,,,,,,,,,,,,,
,,,,,,,,,,,,a,0.17701,Correct!,0,82,82,97,1,t5.png,t5.png,0,0.97829,20,Female,2020-11-19_16h02.49.766,torte-2b,2020.1.3,Win32,60,13297,,,,,,,,,,,,,,,,,,,,,,,,,,,,,,,,,,,,,,,,,,,,,,,,,,,,,,,,,,,,,,,,,
,,,,,,,,,,,,l,0.258995,Correct!,0,83,83,19,1,t4.png,t2.png,2,0.059078,20,Female,2020-11-19_16h02.49.766,torte-2b,2020.1.3,Win32,60,13297,,,,,,,,,,,,,,,,,,,,,,,,,,,,,,,,,,,,,,,,,,,,,,,,,,,,,,,,,,,,,,,,,
,,,,,,,,,,,,l,0.24273,Correct!,0,84,84,98,1,t2.png,t4.png,2,0.0591,20,Female,2020-11-19_16h02.49.766,torte-2b,2020.1.3,Win32,60,13297,,,,,,,,,,,,,,,,,,,,,,,,,,,,,,,,,,,,,,,,,,,,,,,,,,,,,,,,,,,,,,,,,
,,,,,,,,,,,,l,0.258275,Correct!,0,85,85,57,1,t2.png,t4.png,2,0.059078,20,Female,2020-11-19_16h02.49.766,torte-2b,2020.1.3,Win32,60,13297,,,,,,,,,,,,,,,,,,,,,,,,,,,,,,,,,,,,,,,,,,,,,,,,,,,,,,,,,,,,,,,,,
,,,,,,,,,,,,l,0.242995,Incorrect,0,86,86,114,1,t2.png,t3.png,1,0.90855,20,Female,2020-11-19_16h02.49.766,torte-2b,2020.1.3,Win32,60,13297,,,,,,,,,,,,,,,,,,,,,,,,,,,,,,,,,,,,,,,,,,,,,,,,,,,,,,,,,,,,,,,,,
,,,,,,,,,,,,l,0.300705,Correct!,0,87,87,31,1,t1.png,t5.png,4,9.55E-11,20,Female,2020-11-19_16h02.49.766,torte-2b,2020.1.3,Win32,60,13297,,,,,,,,,,,,,,,,,,,,,,,,,,,,,,,,,,,,,,,,,,,,,,,,,,,,,,,,,,,,,,,,,
,,,,,,,,,,,,l,0.25991,Correct!,0,88,88,1,1,t2.png,t4.png,2,0.059078,20,Female,2020-11-19_16h02.49.766,torte-2b,2020.1.3,Win32,60,13297,,,,,,,,,,,,,,,,,,,,,,,,,,,,,,,,,,,,,,,,,,,,,,,,,,,,,,,,,,,,,,,,,
,,,,,,,,,,,,a,0.2691,Incorrect,0,89,89,91,1,t1.png,t4.png,3,0.0000131,20,Female,2020-11-19_16h02.49.766,torte-2b,2020.1.3,Win32,60,13297,,,,,,,,,,,,,,,,,,,,,,,,,,,,,,,,,,,,,,,,,,,,,,,,,,,,,,,,,,,,,,,,,
,,,,,,,,,,,,l,0.21228,Correct!,0,90,90,73,1,t4.png,t2.png,2,0.059078,20,Female,2020-11-19_16h02.49.766,torte-2b,2020.1.3,Win32,60,13297,,,,,,,,,,,,,,,,,,,,,,,,,,,,,,,,,,,,,,,,,,,,,,,,,,,,,,,,,,,,,,,,,
,,,,,,,,,,,,l,0.240755,Incorrect,0,91,91,106,1,t2.png,t3.png,1,0.90855,20,Female,2020-11-19_16h02.49.766,torte-2b,2020.1.3,Win32,60,13297,,,,,,,,,,,,,,,,,,,,,,,,,,,,,,,,,,,,,,,,,,,,,,,,,,,,,,,,,,,,,,,,,
,,,,,,,,,,,,a,0.44769,Correct!,0,92,92,110,1,t4.png,t5.png,1,0.90025,20,Female,2020-11-19_16h02.49.766,torte-2b,2020.1.3,Win32,60,13297,,,,,,,,,,,,,,,,,,,,,,,,,,,,,,,,,,,,,,,,,,,,,,,,,,,,,,,,,,,,,,,,,
,,,,,,,,,,,,a,0.276585,Incorrect,0,93,93,36,1,t3.png,t1.png,2,0.0565,20,Female,2020-11-19_16h02.49.766,torte-2b,2020.1.3,Win32,60,13297,,,,,,,,,,,,,,,,,,,,,,,,,,,,,,,,,,,,,,,,,,,,,,,,,,,,,,,,,,,,,,,,,
,,,,,,,,,,,,l,0.264845,Incorrect,0,94,94,59,1,t5.png,t4.png,1,0.9,20,Female,2020-11-19_16h02.49.766,torte-2b,2020.1.3,Win32,60,13297,,,,,,,,,,,,,,,,,,,,,,,,,,,,,,,,,,,,,,,,,,,,,,,,,,,,,,,,,,,,,,,,,
,,,,,,,,,,,,l,0.263415,Incorrect,0,95,95,75,1,t1.png,t1.png,0,0.97829,20,Female,2020-11-19_16h02.49.766,torte-2b,2020.1.3,Win32,60,13297,,,,,,,,,,,,,,,,,,,,,,,,,,,,,,,,,,,,,,,,,,,,,,,,,,,,,,,,,,,,,,,,,
,,,,,,,,,,,,a,0.362395,Correct!,0,96,96,8,1,t3.png,t2.png,1,0.90855,20,Female,2020-11-19_16h02.49.766,torte-2b,2020.1.3,Win32,60,13297,,,,,,,,,,,,,,,,,,,,,,,,,,,,,,,,,,,,,,,,,,,,,,,,,,,,,,,,,,,,,,,,,
,,,,,,,,,,,,l,0.24165,Correct!,0,97,97,69,1,t4.png,t2.png,2,0.059078,20,Female,2020-11-19_16h02.49.766,torte-2b,2020.1.3,Win32,60,13297,,,,,,,,,,,,,,,,,,,,,,,,,,,,,,,,,,,,,,,,,,,,,,,,,,,,,,,,,,,,,,,,,
,,,,,,,,,,,,a,0.2681,Incorrect,0,98,98,38,1,t3.png,t1.png,2,0.056466,20,Female,2020-11-19_16h02.49.766,torte-2b,2020.1.3,Win32,60,13297,,,,,,,,,,,,,,,,,,,,,,,,,,,,,,,,,,,,,,,,,,,,,,,,,,,,,,,,,,,,,,,,,
,,,,,,,,,,,,l,0.28998,Incorrect,0,99,99,9,1,t4.png,t5.png,1,0.9,20,Female,2020-11-19_16h02.49.766,torte-2b,2020.1.3,Win32,60,13297,,,,,,,,,,,,,,,,,,,,,,,,,,,,,,,,,,,,,,,,,,,,,,,,,,,,,,,,,,,,,,,,,
,,,,,,,,,,,,l,0.22098,Incorrect,0,100,100,45,1,t3.png,t2.png,1,0.90855,20,Female,2020-11-19_16h02.49.766,torte-2b,2020.1.3,Win32,60,13297,,,,,,,,,,,,,,,,,,,,,,,,,,,,,,,,,,,,,,,,,,,,,,,,,,,,,,,,,,,,,,,,,
,,,,,,,,,,,,a,0.284555,Incorrect,0,101,101,83,1,t3.png,t1.png,2,0.056466,20,Female,2020-11-19_16h02.49.766,torte-2b,2020.1.3,Win32,60,13297,,,,,,,,,,,,,,,,,,,,,,,,,,,,,,,,,,,,,,,,,,,,,,,,,,,,,,,,,,,,,,,,,
,,,,,,,,,,,,l,0.23893,Correct!,0,102,102,17,1,t1.png,t4.png,3,0.0000131,20,Female,2020-11-19_16h02.49.766,torte-2b,2020.1.3,Win32,60,13297,,,,,,,,,,,,,,,,,,,,,,,,,,,,,,,,,,,,,,,,,,,,,,,,,,,,,,,,,,,,,,,,,
,,,,,,,,,,,,l,0.209995,Incorrect,0,103,103,28,1,t2.png,t3.png,1,0.909,20,Female,2020-11-19_16h02.49.766,torte-2b,2020.1.3,Win32,60,13297,,,,,,,,,,,,,,,,,,,,,,,,,,,,,,,,,,,,,,,,,,,,,,,,,,,,,,,,,,,,,,,,,
,,,,,,,,,,,,a,0.275565,Correct!,0,104,104,41,1,t3.png,t2.png,1,0.90855,20,Female,2020-11-19_16h02.49.766,torte-2b,2020.1.3,Win32,60,13297,,,,,,,,,,,,,,,,,,,,,,,,,,,,,,,,,,,,,,,,,,,,,,,,,,,,,,,,,,,,,,,,,
,,,,,,,,,,,,l,0.27022,Correct!,0,105,105,46,1,t4.png,t2.png,2,0.059078,20,Female,2020-11-19_16h02.49.766,torte-2b,2020.1.3,Win32,60,13297,,,,,,,,,,,,,,,,,,,,,,,,,,,,,,,,,,,,,,,,,,,,,,,,,,,,,,,,,,,,,,,,,
,,,,,,,,,,,,l,0.229245,Incorrect,0,106,106,113,1,t5.png,t4.png,1,0.9,20,Female,2020-11-19_16h02.49.766,torte-2b,2020.1.3,Win32,60,13297,,,,,,,,,,,,,,,,,,,,,,,,,,,,,,,,,,,,,,,,,,,,,,,,,,,,,,,,,,,,,,,,,
,,,,,,,,,,,,l,0.256705,Correct!,0,107,107,60,1,t2.png,t4.png,2,0.059078,20,Female,2020-11-19_16h02.49.766,torte-2b,2020.1.3,Win32,60,13297,,,,,,,,,,,,,,,,,,,,,,,,,,,,,,,,,,,,,,,,,,,,,,,,,,,,,,,,,,,,,,,,,
,,,,,,,,,,,,a,0.2721,Correct!,0,108,108,25,1,t5.png,t5.png,0,0.97829,20,Female,2020-11-19_16h02.49.766,torte-2b,2020.1.3,Win32,60,13297,,,,,,,,,,,,,,,,,,,,,,,,,,,,,,,,,,,,,,,,,,,,,,,,,,,,,,,,,,,,,,,,,
,,,,,,,,,,,,l,0.238855,Correct!,0,109,109,54,1,t1.png,t5.png,4,9.55E-11,20,Female,2020-11-19_16h02.49.766,torte-2b,2020.1.3,Win32,60,13297,,,,,,,,,,,,,,,,,,,,,,,,,,,,,,,,,,,,,,,,,,,,,,,,,,,,,,,,,,,,,,,,,
,,,,,,,,,,,,a,0.254025,Incorrect,0,110,110,102,1,t4.png,t2.png,2,0.059078,20,Female,2020-11-19_16h02.49.766,torte-2b,2020.1.3,Win32,60,13297,,,,,,,,,,,,,,,,,,,,,,,,,,,,,,,,,,,,,,,,,,,,,,,,,,,,,,,,,,,,,,,,,
,,,,,,,,,,,,l,0.22881,Incorrect,0,111,111,22,1,t2.png,t3.png,1,0.90855,20,Female,2020-11-19_16h02.49.766,torte-2b,2020.1.3,Win32,60,13297,,,,,,,,,,,,,,,,,,,,,,,,,,,,,,,,,,,,,,,,,,,,,,,,,,,,,,,,,,,,,,,,,
,,,,,,,,,,,,a,0.20586,Correct!,0,112,112,23,1,t5.png,t4.png,1,0.90025,20,Female,2020-11-19_16h02.49.766,torte-2b,2020.1.3,Win32,60,13297,,,,,,,,,,,,,,,,,,,,,,,,,,,,,,,,,,,,,,,,,,,,,,,,,,,,,,,,,,,,,,,,,
,,,,,,,,,,,,l,0.26984,Incorrect,0,113,113,107,1,t1.png,t1.png,0,0.978,20,Female,2020-11-19_16h02.49.766,torte-2b,2020.1.3,Win32,60,13297,,,,,,,,,,,,,,,,,,,,,,,,,,,,,,,,,,,,,,,,,,,,,,,,,,,,,,,,,,,,,,,,,
,,,,,,,,,,,,l,0.2423,Correct!,0,114,114,24,1,t4.png,t2.png,2,0.059078,20,Female,2020-11-19_16h02.49.766,torte-2b,2020.1.3,Win32,60,13297,,,,,,,,,,,,,,,,,,,,,,,,,,,,,,,,,,,,,,,,,,,,,,,,,,,,,,,,,,,,,,,,,
,,,,,,,,,,,,a,0.244115,Correct!,0,115,115,29,1,t5.png,t5.png,0,0.97829,20,Female,2020-11-19_16h02.49.766,torte-2b,2020.1.3,Win32,60,13297,,,,,,,,,,,,,,,,,,,,,,,,,,,,,,,,,,,,,,,,,,,,,,,,,,,,,,,,,,,,,,,,,
,,,,,,,,,,,,l,0.289235,Correct!,0,116,116,47,1,t4.png,t2.png,2,0.059078,20,Female,2020-11-19_16h02.49.766,torte-2b,2020.1.3,Win32,60,13297,,,,,,,,,,,,,,,,,,,,,,,,,,,,,,,,,,,,,,,,,,,,,,,,,,,,,,,,,,,,,,,,,
,,,,,,,,,,,,l,0.279835,Incorrect,0,117,117,10,1,t2.png,t3.png,1,0.90855,20,Female,2020-11-19_16h02.49.766,torte-2b,2020.1.3,Win32,60,13297,,,,,,,,,,,,,,,,,,,,,,,,,,,,,,,,,,,,,,,,,,,,,,,,,,,,,,,,,,,,,,,,,
,,,,,,,,,,,,l,0.24152,Incorrect,0,118,118,2,1,t3.png,t2.png,1,0.90855,20,Female,2020-11-19_16h02.49.766,torte-2b,2020.1.3,Win32,60,13297,,,,,,,,,,,,,,,,,,,,,,,,,,,,,,,,,,,,,,,,,,,,,,,,,,,,,,,,,,,,,,,,,
,,,,,,,,,,,,l,0.2576,Correct!,0,119,119,80,1,t1.png,t4.png,3,0.0000131,20,Female,2020-11-19_16h02.49.766,torte-2b,2020.1.3,Win32,60,13297,,,,,,,,,,,,,,,,,,,,,,,,,,,,,,,,,,,,,,,,,,,,,,,,,,,,,,,,,,,,,,,,,
,,,,,,,,,,,,l,0.611155,Incorrect,,,,,,t3.png,t2.png,1,0.90855,20,Female,2020-11-19_16h02.49.766,torte-2b,2020.1.3,Win32,60,13297,space,1.896925,space,4.2843,0,0,0,18,1,,,,,,,,,,,,,,,,,,,,,,,,,,,,,,,,,,,,,,,,,,,,,,,,,,,,,,,,
,,,,,,,,,,,,l,0.650755,Incorrect,,,,,,t3.png,t4.png,1,0.90855,20,Female,2020-11-19_16h02.49.766,torte-2b,2020.1.3,Win32,60,13297,,,,,0,1,1,96,1,,,,,,,,,,,,,,,,,,,,,,,,,,,,,,,,,,,,,,,,,,,,,,,,,,,,,,,,
,,,,,,,,,,,,a,0.58392,Correct!,,,,,,t2.png,t3.png,1,0.909,20,Female,2020-11-19_16h02.49.766,torte-2b,2020.1.3,Win32,60,13297,,,,,0,2,2,74,1,,,,,,,,,,,,,,,,,,,,,,,,,,,,,,,,,,,,,,,,,,,,,,,,,,,,,,,,
,,,,,,,,,,,,a,0.544205,Correct!,,,,,,t4.png,t5.png,1,0.90025,20,Female,2020-11-19_16h02.49.766,torte-2b,2020.1.3,Win32,60,13297,,,,,0,3,3,113,1,,,,,,,,,,,,,,,,,,,,,,,,,,,,,,,,,,,,,,,,,,,,,,,,,,,,,,,,
,,,,,,,,,,,,l,0.506875,Correct!,,,,,,t3.png,t5.png,2,0.056466,20,Female,2020-11-19_16h02.49.766,torte-2b,2020.1.3,Win32,60,13297,,,,,0,4,4,44,1,,,,,,,,,,,,,,,,,,,,,,,,,,,,,,,,,,,,,,,,,,,,,,,,,,,,,,,,
,,,,,,,,,,,,a,0.45052,Incorrect,,,,,,t5.png,t2.png,3,0.0000131,20,Female,2020-11-19_16h02.49.766,torte-2b,2020.1.3,Win32,60,13297,,,,,0,5,5,119,1,,,,,,,,,,,,,,,,,,,,,,,,,,,,,,,,,,,,,,,,,,,,,,,,,,,,,,,,
,,,,,,,,,,,,a,0.37167,Correct!,,,,,,t1.png,t2.png,1,0.90025,20,Female,2020-11-19_16h02.49.766,torte-2b,2020.1.3,Win32,60,13297,,,,,0,6,6,33,1,,,,,,,,,,,,,,,,,,,,,,,,,,,,,,,,,,,,,,,,,,,,,,,,,,,,,,,,
,,,,,,,,,,,,l,0.726175,Correct!,,,,,,t2.png,t5.png,3,0.0000131,20,Female,2020-11-19_16h02.49.766,torte-2b,2020.1.3,Win32,60,13297,,,,,0,7,7,8,1,,,,,,,,,,,,,,,,,,,,,,,,,,,,,,,,,,,,,,,,,,,,,,,,,,,,,,,,
,,,,,,,,,,,,a,1.538425,Incorrect,,,,,,t5.png,t3.png,2,0.056466,20,Female,2020-11-19_16h02.49.766,torte-2b,2020.1.3,Win32,60,13297,,,,,0,8,8,114,1,,,,,,,,,,,,,,,,,,,,,,,,,,,,,,,,,,,,,,,,,,,,,,,,,,,,,,,,
,,,,,,,,,,,,l,0.577695,Correct!,,,,,,t1.png,t3.png,2,0.056466,20,Female,2020-11-19_16h02.49.766,torte-2b,2020.1.3,Win32,60,13297,,,,,0,9,9,99,1,,,,,,,,,,,,,,,,,,,,,,,,,,,,,,,,,,,,,,,,,,,,,,,,,,,,,,,,
,,,,,,,,,,,,a,0.595555,Correct!,,,,,,t2.png,t3.png,1,0.90855,20,Female,2020-11-19_16h02.49.766,torte-2b,2020.1.3,Win32,60,13297,,,,,0,10,10,10,1,,,,,,,,,,,,,,,,,,,,,,,,,,,,,,,,,,,,,,,,,,,,,,,,,,,,,,,,
,,,,,,,,,,,,a,0.800165,Incorrect,,,,,,t3.png,t5.png,2,0.0565,20,Female,2020-11-19_16h02.49.766,torte-2b,2020.1.3,Win32,60,13297,,,,,0,11,11,30,1,,,,,,,,,,,,,,,,,,,,,,,,,,,,,,,,,,,,,,,,,,,,,,,,,,,,,,,,
,,,,,,,,,,,,l,0.496185,Incorrect,,,,,,t1.png,t1.png,0,0.97829,20,Female,2020-11-19_16h02.49.766,torte-2b,2020.1.3,Win32,60,13297,,,,,0,12,12,78,1,,,,,,,,,,,,,,,,,,,,,,,,,,,,,,,,,,,,,,,,,,,,,,,,,,,,,,,,
,,,,,,,,,,,,l,0.508905,Correct!,,,,,,t2.png,t4.png,2,0.0591,20,Female,2020-11-19_16h02.49.766,torte-2b,2020.1.3,Win32,60,13297,,,,,0,13,13,15,1,,,,,,,,,,,,,,,,,,,,,,,,,,,,,,,,,,,,,,,,,,,,,,,,,,,,,,,,
,,,,,,,,,,,,l,0.51781,Incorrect,,,,,,t4.png,t4.png,0,0.98115,20,Female,2020-11-19_16h02.49.766,torte-2b,2020.1.3,Win32,60,13297,,,,,0,14,14,80,1,,,,,,,,,,,,,,,,,,,,,,,,,,,,,,,,,,,,,,,,,,,,,,,,,,,,,,,,
,,,,,,,,,,,,l,0.633595,Incorrect,,,,,,t4.png,t5.png,1,0.90025,20,Female,2020-11-19_16h02.49.766,torte-2b,2020.1.3,Win32,60,13297,,,,,0,15,15,47,1,,,,,,,,,,,,,,,,,,,,,,,,,,,,,,,,,,,,,,,,,,,,,,,,,,,,,,,,
,,,,,,,,,,,,l,0.719785,Incorrect,,,,,,t1.png,t2.png,1,0.90025,20,Female,2020-11-19_16h02.49.766,torte-2b,2020.1.3,Win32,60,13297,,,,,0,16,16,105,1,,,,,,,,,,,,,,,,,,,,,,,,,,,,,,,,,,,,,,,,,,,,,,,,,,,,,,,,
,,,,,,,,,,,,l,1.26767,Correct!,,,,,,t4.png,t1.png,3,0.0000131,20,Female,2020-11-19_16h02.49.766,torte-2b,2020.1.3,Win32,60,13297,,,,,0,17,17,93,1,,,,,,,,,,,,,,,,,,,,,,,,,,,,,,,,,,,,,,,,,,,,,,,,,,,,,,,,
,,,,,,,,,,,,a,0.73606,Incorrect,,,,,,t2.png,t4.png,2,0.059078,20,Female,2020-11-19_16h02.49.766,torte-2b,2020.1.3,Win32,60,13297,,,,,0,18,18,37,1,,,,,,,,,,,,,,,,,,,,,,,,,,,,,,,,,,,,,,,,,,,,,,,,,,,,,,,,
,,,,,,,,,,,,l,0.33094,Correct!,,,,,,t2.png,t4.png,2,0.059078,20,Female,2020-11-19_16h02.49.766,torte-2b,2020.1.3,Win32,60,13297,,,,,0,19,19,77,1,,,,,,,,,,,,,,,,,,,,,,,,,,,,,,,,,,,,,,,,,,,,,,,,,,,,,,,,
,,,,,,,,,,,,a,0.617125,Correct!,,,,,,t3.png,t2.png,1,0.90855,20,Female,2020-11-19_16h02.49.766,torte-2b,2020.1.3,Win32,60,13297,,,,,0,20,20,53,1,,,,,,,,,,,,,,,,,,,,,,,,,,,,,,,,,,,,,,,,,,,,,,,,,,,,,,,,
,,,,,,,,,,,,l,0.276765,Correct!,,,,,,t4.png,t1.png,3,0.0000131,20,Female,2020-11-19_16h02.49.766,torte-2b,2020.1.3,Win32,60,13297,,,,,0,21,21,61,1,,,,,,,,,,,,,,,,,,,,,,,,,,,,,,,,,,,,,,,,,,,,,,,,,,,,,,,,
,,,,,,,,,,,,a,0.320285,Correct!,,,,,,t2.png,t3.png,1,0.90855,20,Female,2020-11-19_16h02.49.766,torte-2b,2020.1.3,Win32,60,13297,,,,,0,22,22,111,1,,,,,,,,,,,,,,,,,,,,,,,,,,,,,,,,,,,,,,,,,,,,,,,,,,,,,,,,
,,,,,,,,,,,,a,0.540815,Incorrect,,,,,,t2.png,t5.png,3,0.0000131,20,Female,2020-11-19_16h02.49.766,torte-2b,2020.1.3,Win32,60,13297,,,,,0,23,23,95,1,,,,,,,,,,,,,,,,,,,,,,,,,,,,,,,,,,,,,,,,,,,,,,,,,,,,,,,,
,,,,,,,,,,,,a,0.343665,Correct!,,,,,,t3.png,t2.png,1,0.90855,20,Female,2020-11-19_16h02.49.766,torte-2b,2020.1.3,Win32,60,13297,,,,,0,24,24,97,1,,,,,,,,,,,,,,,,,,,,,,,,,,,,,,,,,,,,,,,,,,,,,,,,,,,,,,,,
,,,,,,,,,,,,l,0.38635,Correct!,,,,,,t4.png,t2.png,2,0.0591,20,Female,2020-11-19_16h02.49.766,torte-2b,2020.1.3,Win32,60,13297,,,,,0,25,25,36,1,,,,,,,,,,,,,,,,,,,,,,,,,,,,,,,,,,,,,,,,,,,,,,,,,,,,,,,,
,,,,,,,,,,,,l,0.3458,Correct!,,,,,,t1.png,t5.png,4,9.55E-11,20,Female,2020-11-19_16h02.49.766,torte-2b,2020.1.3,Win32,60,13297,,,,,0,26,26,41,1,,,,,,,,,,,,,,,,,,,,,,,,,,,,,,,,,,,,,,,,,,,,,,,,,,,,,,,,
,,,,,,,,,,,,l,0.23828,Incorrect,,,,,,t2.png,t1.png,1,0.9,20,Female,2020-11-19_16h02.49.766,torte-2b,2020.1.3,Win32,60,13297,,,,,0,27,27,118,1,,,,,,,,,,,,,,,,,,,,,,,,,,,,,,,,,,,,,,,,,,,,,,,,,,,,,,,,
,,,,,,,,,,,,a,0.22228,Incorrect,,,,,,t5.png,t1.png,4,9.55E-11,20,Female,2020-11-19_16h02.49.766,torte-2b,2020.1.3,Win32,60,13297,,,,,0,28,28,43,1,,,,,,,,,,,,,,,,,,,,,,,,,,,,,,,,,,,,,,,,,,,,,,,,,,,,,,,,
,,,,,,,,,,,,l,0.28016,Correct!,,,,,,t5.png,t3.png,2,0.056466,20,Female,2020-11-19_16h02.49.766,torte-2b,2020.1.3,Win32,60,13297,,,,,0,29,29,108,1,,,,,,,,,,,,,,,,,,,,,,,,,,,,,,,,,,,,,,,,,,,,,,,,,,,,,,,,
,,,,,,,,,,,,a,0.424785,Correct!,,,,,,t5.png,t4.png,1,0.90025,20,Female,2020-11-19_16h02.49.766,torte-2b,2020.1.3,Win32,60,13297,,,,,0,30,30,26,1,,,,,,,,,,,,,,,,,,,,,,,,,,,,,,,,,,,,,,,,,,,,,,,,,,,,,,,,
,,,,,,,,,,,,a,0.24424,Incorrect,,,,,,t5.png,t1.png,4,9.55E-11,20,Female,2020-11-19_16h02.49.766,torte-2b,2020.1.3,Win32,60,13297,,,,,0,31,31,71,1,,,,,,,,,,,,,,,,,,,,,,,,,,,,,,,,,,,,,,,,,,,,,,,,,,,,,,,,
,,,,,,,,,,,,l,0.28734,Correct!,,,,,,t3.png,t1.png,2,0.056466,20,Female,2020-11-19_16h02.49.766,torte-2b,2020.1.3,Win32,60,13297,,,,,0,32,32,32,1,,,,,,,,,,,,,,,,,,,,,,,,,,,,,,,,,,,,,,,,,,,,,,,,,,,,,,,,
,,,,,,,,,,,,a,0.26711,Correct!,,,,,,t5.png,t5.png,0,0.97829,20,Female,2020-11-19_16h02.49.766,torte-2b,2020.1.3,Win32,60,13297,,,,,0,33,33,94,1,,,,,,,,,,,,,,,,,,,,,,,,,,,,,,,,,,,,,,,,,,,,,,,,,,,,,,,,
,,,,,,,,,,,,l,0.187375,Incorrect,,,,,,t4.png,t4.png,0,0.98115,20,Female,2020-11-19_16h02.49.766,torte-2b,2020.1.3,Win32,60,13297,,,,,0,34,34,79,1,,,,,,,,,,,,,,,,,,,,,,,,,,,,,,,,,,,,,,,,,,,,,,,,,,,,,,,,
,,,,,,,,,,,,a,0.262465,Correct!,,,,,,t1.png,t1.png,0,0.97829,20,Female,2020-11-19_16h02.49.766,torte-2b,2020.1.3,Win32,60,13297,,,,,0,35,35,9,1,,,,,,,,,,,,,,,,,,,,,,,,,,,,,,,,,,,,,,,,,,,,,,,,,,,,,,,,
,,,,,,,,,,,,l,0.22737,Correct!,,,,,,t4.png,t5.png,1,0.9,20,Female,2020-11-19_16h02.49.766,torte-2b,2020.1.3,Win32,60,13297,,,,,0,36,36,115,1,,,,,,,,,,,,,,,,,,,,,,,,,,,,,,,,,,,,,,,,,,,,,,,,,,,,,,,,
,,,,,,,,,,,,a,0.278095,Incorrect,,,,,,t3.png,t5.png,2,0.0565,20,Female,2020-11-19_16h02.49.766,torte-2b,2020.1.3,Win32,60,13297,,,,,0,37,37,83,1,,,,,,,,,,,,,,,,,,,,,,,,,,,,,,,,,,,,,,,,,,,,,,,,,,,,,,,,
,,,,,,,,,,,,l,0.23796,Correct!,,,,,,t5.png,t3.png,2,0.0565,20,Female,2020-11-19_16h02.49.766,torte-2b,2020.1.3,Win32,60,13297,,,,,0,38,38,39,1,,,,,,,,,,,,,,,,,,,,,,,,,,,,,,,,,,,,,,,,,,,,,,,,,,,,,,,,
,,,,,,,,,,,,l,0.003945,Correct!,,,,,,t3.png,t1.png,2,0.056466,20,Female,2020-11-19_16h02.49.766,torte-2b,2020.1.3,Win32,60,13297,,,,,0,39,39,64,1,,,,,,,,,,,,,,,,,,,,,,,,,,,,,,,,,,,,,,,,,,,,,,,,,,,,,,,,
,,,,,,,,,,,,a,0.300235,Incorrect,,,,,,t5.png,t2.png,3,0.0000131,20,Female,2020-11-19_16h02.49.766,torte-2b,2020.1.3,Win32,60,13297,,,,,0,40,40,98,1,,,,,,,,,,,,,,,,,,,,,,,,,,,,,,,,,,,,,,,,,,,,,,,,,,,,,,,,
,,,,,,,,,,,,l,0.254455,Incorrect,,,,,,t2.png,t1.png,1,0.90025,20,Female,2020-11-19_16h02.49.766,torte-2b,2020.1.3,Win32,60,13297,,,,,0,41,41,62,1,,,,,,,,,,,,,,,,,,,,,,,,,,,,,,,,,,,,,,,,,,,,,,,,,,,,,,,,
,,,,,,,,,,,,l,0.140905,Correct!,,,,,,t1.png,t5.png,4,9.55E-11,20,Female,2020-11-19_16h02.49.766,torte-2b,2020.1.3,Win32,60,13297,,,,,0,42,42,12,1,,,,,,,,,,,,,,,,,,,,,,,,,,,,,,,,,,,,,,,,,,,,,,,,,,,,,,,,
,,,,,,,,,,,,a,0.34557,Incorrect,,,,,,t5.png,t2.png,3,0.0000131,20,Female,2020-11-19_16h02.49.766,torte-2b,2020.1.3,Win32,60,13297,,,,,0,43,43,91,1,,,,,,,,,,,,,,,,,,,,,,,,,,,,,,,,,,,,,,,,,,,,,,,,,,,,,,,,
,,,,,,,,,,,,a,0.561965,Correct!,,,,,,t2.png,t1.png,1,0.90025,20,Female,2020-11-19_16h02.49.766,torte-2b,2020.1.3,Win32,60,13297,,,,,0,44,44,19,1,,,,,,,,,,,,,,,,,,,,,,,,,,,,,,,,,,,,,,,,,,,,,,,,,,,,,,,,
,,,,,,,,,,,,a,0.269595,Correct!,,,,,,t4.png,t4.png,0,0.98115,20,Female,2020-11-19_16h02.49.766,torte-2b,2020.1.3,Win32,60,13297,,,,,0,45,45,90,1,,,,,,,,,,,,,,,,,,,,,,,,,,,,,,,,,,,,,,,,,,,,,,,,,,,,,,,,
,,,,,,,,,,,,l,0.234085,Incorrect,,,,,,t4.png,t3.png,1,0.90855,20,Female,2020-11-19_16h02.49.766,torte-2b,2020.1.3,Win32,60,13297,,,,,0,46,46,35,1,,,,,,,,,,,,,,,,,,,,,,,,,,,,,,,,,,,,,,,,,,,,,,,,,,,,,,,,
,,,,,,,,,,,,a,0.285975,Correct!,,,,,,t5.png,t5.png,0,0.97829,20,Female,2020-11-19_16h02.49.766,torte-2b,2020.1.3,Win32,60,13297,,,,,0,47,47,25,1,,,,,,,,,,,,,,,,,,,,,,,,,,,,,,,,,,,,,,,,,,,,,,,,,,,,,,,,
,,,,,,,,,,,,a,0.279685,Incorrect,,,,,,t2.png,t5.png,3,0.0000131,20,Female,2020-11-19_16h02.49.766,torte-2b,2020.1.3,Win32,60,13297,,,,,0,48,48,40,1,,,,,,,,,,,,,,,,,,,,,,,,,,,,,,,,,,,,,,,,,,,,,,,,,,,,,,,,
,,,,,,,,,,,,a,0.26748,Incorrect,,,,,,t1.png,t3.png,2,0.056466,20,Female,2020-11-19_16h02.49.766,torte-2b,2020.1.3,Win32,60,13297,,,,,0,49,49,63,1,,,,,,,,,,,,,,,,,,,,,,,,,,,,,,,,,,,,,,,,,,,,,,,,,,,,,,,,
,,,,,,,,,,,,l,0.21707,Correct!,,,,,,t4.png,t2.png,2,0.059078,20,Female,2020-11-19_16h02.49.766,torte-2b,2020.1.3,Win32,60,13297,,,,,0,50,50,86,1,,,,,,,,,,,,,,,,,,,,,,,,,,,,,,,,,,,,,,,,,,,,,,,,,,,,,,,,
,,,,,,,,,,,,l,0.062025,Correct!,,,,,,t2.png,t4.png,2,0.059078,20,Female,2020-11-19_16h02.49.766,torte-2b,2020.1.3,Win32,60,13297,,,,,0,51,51,24,1,,,,,,,,,,,,,,,,,,,,,,,,,,,,,,,,,,,,,,,,,,,,,,,,,,,,,,,,
,,,,,,,,,,,,a,0.10097,Incorrect,,,,,,t2.png,t4.png,2,0.059078,20,Female,2020-11-19_16h02.49.766,torte-2b,2020.1.3,Win32,60,13297,,,,,0,52,52,11,1,,,,,,,,,,,,,,,,,,,,,,,,,,,,,,,,,,,,,,,,,,,,,,,,,,,,,,,,
,,,,,,,,,,,,l,0.13092,Incorrect,,,,,,t5.png,t4.png,1,0.9,20,Female,2020-11-19_16h02.49.766,torte-2b,2020.1.3,Win32,60,13297,,,,,0,53,53,76,1,,,,,,,,,,,,,,,,,,,,,,,,,,,,,,,,,,,,,,,,,,,,,,,,,,,,,,,,
,,,,,,,,,,,,a,0.000615,Incorrect,,,,,,t5.png,t1.png,4,9.55E-11,20,Female,2020-11-19_16h02.49.766,torte-2b,2020.1.3,Win32,60,13297,,,,,0,54,54,100,1,,,,,,,,,,,,,,,,,,,,,,,,,,,,,,,,,,,,,,,,,,,,,,,,,,,,,,,,
,,,,,,,,,,,,a,0.279395,Correct!,,,,,,t5.png,t5.png,0,0.978,20,Female,2020-11-19_16h02.49.766,torte-2b,2020.1.3,Win32,60,13297,,,,,0,55,55,117,1,,,,,,,,,,,,,,,,,,,,,,,,,,,,,,,,,,,,,,,,,,,,,,,,,,,,,,,,
,,,,,,,,,,,,l,0.239245,Correct!,,,,,,t1.png,t5.png,4,9.55E-11,20,Female,2020-11-19_16h02.49.766,torte-2b,2020.1.3,Win32,60,13297,,,,,0,56,56,55,1,,,,,,,,,,,,,,,,,,,,,,,,,,,,,,,,,,,,,,,,,,,,,,,,,,,,,,,,
,,,,,,,,,,,,l,0.16704,Incorrect,,,,,,t3.png,t4.png,1,0.909,20,Female,2020-11-19_16h02.49.766,torte-2b,2020.1.3,Win32,60,13297,,,,,0,57,57,106,1,,,,,,,,,,,,,,,,,,,,,,,,,,,,,,,,,,,,,,,,,,,,,,,,,,,,,,,,
,,,,,,,,,,,,a,0.195255,Incorrect,,,,,,t2.png,t5.png,3,0.0000131,20,Female,2020-11-19_16h02.49.766,torte-2b,2020.1.3,Win32,60,13297,,,,,0,58,58,104,1,,,,,,,,,,,,,,,,,,,,,,,,,,,,,,,,,,,,,,,,,,,,,,,,,,,,,,,,
,,,,,,,,,,,,a,0.243115,Incorrect,,,,,,t4.png,t2.png,2,0.059078,20,Female,2020-11-19_16h02.49.766,torte-2b,2020.1.3,Win32,60,13297,,,,,0,59,59,109,1,,,,,,,,,,,,,,,,,,,,,,,,,,,,,,,,,,,,,,,,,,,,,,,,,,,,,,,,
,,,,,,,,,,,,a,0.262095,Incorrect,,,,,,t1.png,t5.png,4,9.55E-11,20,Female,2020-11-19_16h02.49.766,torte-2b,2020.1.3,Win32,60,13297,,,,,0,60,60,85,1,,,,,,,,,,,,,,,,,,,,,,,,,,,,,,,,,,,,,,,,,,,,,,,,,,,,,,,,
,,,,,,,,,,,,l,0.213195,Incorrect,,,,,,t3.png,t4.png,1,0.90855,20,Female,2020-11-19_16h02.49.766,torte-2b,2020.1.3,Win32,60,13297,,,,,0,61,61,84,1,,,,,,,,,,,,,,,,,,,,,,,,,,,,,,,,,,,,,,,,,,,,,,,,,,,,,,,,
,,,,,,,,,,,,a,0.48398,Incorrect,,,,,,t4.png,t2.png,2,0.059078,20,Female,2020-11-19_16h02.49.766,torte-2b,2020.1.3,Win32,60,13297,,,,,0,62,62,88,1,,,,,,,,,,,,,,,,,,,,,,,,,,,,,,,,,,,,,,,,,,,,,,,,,,,,,,,,
,,,,,,,,,,,,l,0.23458,Correct!,,,,,,t1.png,t3.png,2,0.056466,20,Female,2020-11-19_16h02.49.766,torte-2b,2020.1.3,Win32,60,13297,,,,,0,63,63,60,1,,,,,,,,,,,,,,,,,,,,,,,,,,,,,,,,,,,,,,,,,,,,,,,,,,,,,,,,
,,,,,,,,,,,,l,0.19455,Correct!,,,,,,t1.png,t4.png,3,0.0000131,20,Female,2020-11-19_16h02.49.766,torte-2b,2020.1.3,Win32,60,13297,,,,,0,64,64,92,1,,,,,,,,,,,,,,,,,,,,,,,,,,,,,,,,,,,,,,,,,,,,,,,,,,,,,,,,
,,,,,,,,,,,,l,0.20821,Incorrect,,,,,,t5.png,t5.png,0,0.97829,20,Female,2020-11-19_16h02.49.766,torte-2b,2020.1.3,Win32,60,13297,,,,,0,65,65,73,1,,,,,,,,,,,,,,,,,,,,,,,,,,,,,,,,,,,,,,,,,,,,,,,,,,,,,,,,
,,,,,,,,,,,,l,0.17977,Incorrect,,,,,,t1.png,t1.png,0,0.978,20,Female,2020-11-19_16h02.49.766,torte-2b,2020.1.3,Win32,60,13297,,,,,0,66,66,54,1,,,,,,,,,,,,,,,,,,,,,,,,,,,,,,,,,,,,,,,,,,,,,,,,,,,,,,,,
,,,,,,,,,,,,a,0.15961,Incorrect,,,,,,t3.png,t1.png,2,0.056466,20,Female,2020-11-19_16h02.49.766,torte-2b,2020.1.3,Win32,60,13297,,,,,0,67,67,0,1,,,,,,,,,,,,,,,,,,,,,,,,,,,,,,,,,,,,,,,,,,,,,,,,,,,,,,,,
,,,,,,,,,,,,a,0.017345,Correct!,,,,,,t4.png,t3.png,1,0.909,20,Female,2020-11-19_16h02.49.766,torte-2b,2020.1.3,Win32,60,13297,,,,,0,68,68,46,1,,,,,,,,,,,,,,,,,,,,,,,,,,,,,,,,,,,,,,,,,,,,,,,,,,,,,,,,
,,,,,,,,,,,,l,0.6729,Correct!,,,,,,t4.png,t1.png,3,0.0000131,20,Female,2020-11-19_16h02.49.766,torte-2b,2020.1.3,Win32,60,13297,,,,,0,69,69,13,1,,,,,,,,,,,,,,,,,,,,,,,,,,,,,,,,,,,,,,,,,,,,,,,,,,,,,,,,
,,,,,,,,,,,,l,0.251505,Correct!,,,,,,t5.png,t2.png,3,0.0000131,20,Female,2020-11-19_16h02.49.766,torte-2b,2020.1.3,Win32,60,13297,,,,,0,70,70,116,1,,,,,,,,,,,,,,,,,,,,,,,,,,,,,,,,,,,,,,,,,,,,,,,,,,,,,,,,
,,,,,,,,,,,,a,0.070935,Correct!,,,,,,t2.png,t1.png,1,0.90025,20,Female,2020-11-19_16h02.49.766,torte-2b,2020.1.3,Win32,60,13297,,,,,0,71,71,4,1,,,,,,,,,,,,,,,,,,,,,,,,,,,,,,,,,,,,,,,,,,,,,,,,,,,,,,,,
,,,,,,,,,,,,a,0.156205,Correct!,,,,,,t2.png,t3.png,1,0.90855,20,Female,2020-11-19_16h02.49.766,torte-2b,2020.1.3,Win32,60,13297,,,,,0,72,72,68,1,,,,,,,,,,,,,,,,,,,,,,,,,,,,,,,,,,,,,,,,,,,,,,,,,,,,,,,,
,,,,,,,,,,,,l,0.44627,Incorrect,,,,,,t1.png,t1.png,0,0.978,20,Female,2020-11-19_16h02.49.766,torte-2b,2020.1.3,Win32,60,13297,,,,,0,73,73,28,1,,,,,,,,,,,,,,,,,,,,,,,,,,,,,,,,,,,,,,,,,,,,,,,,,,,,,,,,
,,,,,,,,,,,,l,0.250845,Incorrect,,,,,,t2.png,t2.png,0,0.981,20,Female,2020-11-19_16h02.49.766,torte-2b,2020.1.3,Win32,60,13297,,,,,0,74,74,101,1,,,,,,,,,,,,,,,,,,,,,,,,,,,,,,,,,,,,,,,,,,,,,,,,,,,,,,,,
,,,,,,,,,,,,a,0.24466,Correct!,,,,,,t1.png,t1.png,0,0.97829,20,Female,2020-11-19_16h02.49.766,torte-2b,2020.1.3,Win32,60,13297,,,,,0,75,75,67,1,,,,,,,,,,,,,,,,,,,,,,,,,,,,,,,,,,,,,,,,,,,,,,,,,,,,,,,,
,,,,,,,,,,,,l,0.007665,Incorrect,,,,,,t5.png,t5.png,0,0.97829,20,Female,2020-11-19_16h02.49.766,torte-2b,2020.1.3,Win32,60,13297,,,,,0,76,76,70,1,,,,,,,,,,,,,,,,,,,,,,,,,,,,,,,,,,,,,,,,,,,,,,,,,,,,,,,,
,,,,,,,,,,,,l,0.06931,Incorrect,,,,,,t3.png,t2.png,1,0.909,20,Female,2020-11-19_16h02.49.766,torte-2b,2020.1.3,Win32,60,13297,,,,,0,77,77,3,1,,,,,,,,,,,,,,,,,,,,,,,,,,,,,,,,,,,,,,,,,,,,,,,,,,,,,,,,
,,,,,,,,,,,,a,0.46728,Incorrect,,,,,,t5.png,t2.png,3,0.0000131,20,Female,2020-11-19_16h02.49.766,torte-2b,2020.1.3,Win32,60,13297,,,,,0,78,78,51,1,,,,,,,,,,,,,,,,,,,,,,,,,,,,,,,,,,,,,,,,,,,,,,,,,,,,,,,,
,,,,,,,,,,,,a,0.684115,Correct!,,,,,,t5.png,t4.png,1,0.9,20,Female,2020-11-19_16h02.49.766,torte-2b,2020.1.3,Win32,60,13297,,,,,0,79,79,49,1,,,,,,,,,,,,,,,,,,,,,,,,,,,,,,,,,,,,,,,,,,,,,,,,,,,,,,,,
,,,,,,,,,,,,l,0.24458,Incorrect,,,,,,t2.png,t3.png,1,0.90855,20,Female,2020-11-19_16h02.49.766,torte-2b,2020.1.3,Win32,60,13297,,,,,0,80,80,65,1,,,,,,,,,,,,,,,,,,,,,,,,,,,,,,,,,,,,,,,,,,,,,,,,,,,,,,,,
,,,,,,,,,,,,a,0.244055,Correct!,,,,,,t3.png,t4.png,1,0.909,20,Female,2020-11-19_16h02.49.766,torte-2b,2020.1.3,Win32,60,13297,,,,,0,81,81,82,1,,,,,,,,,,,,,,,,,,,,,,,,,,,,,,,,,,,,,,,,,,,,,,,,,,,,,,,,
,,,,,,,,,,,,a,0.306995,Correct!,,,,,,t4.png,t3.png,1,0.90855,20,Female,2020-11-19_16h02.49.766,torte-2b,2020.1.3,Win32,60,13297,,,,,0,82,82,75,1,,,,,,,,,,,,,,,,,,,,,,,,,,,,,,,,,,,,,,,,,,,,,,,,,,,,,,,,
,,,,,,,,,,,,a,0.262575,Correct!,,,,,,t5.png,t4.png,1,0.90025,20,Female,2020-11-19_16h02.49.766,torte-2b,2020.1.3,Win32,60,13297,,,,,0,83,83,34,1,,,,,,,,,,,,,,,,,,,,,,,,,,,,,,,,,,,,,,,,,,,,,,,,,,,,,,,,
,,,,,,,,,,,,l,0.267105,Incorrect,,,,,,t1.png,t2.png,1,0.90025,20,Female,2020-11-19_16h02.49.766,torte-2b,2020.1.3,Win32,60,13297,,,,,0,84,84,112,1,,,,,,,,,,,,,,,,,,,,,,,,,,,,,,,,,,,,,,,,,,,,,,,,,,,,,,,,
,,,,,,,,,,,,l,0.09816,Incorrect,,,,,,t4.png,t3.png,1,0.909,20,Female,2020-11-19_16h02.49.766,torte-2b,2020.1.3,Win32,60,13297,,,,,0,85,85,20,1,,,,,,,,,,,,,,,,,,,,,,,,,,,,,,,,,,,,,,,,,,,,,,,,,,,,,,,,
,,,,,,,,,,,,a,0.10717,Incorrect,,,,,,t1.png,t4.png,3,0.0000131,20,Female,2020-11-19_16h02.49.766,torte-2b,2020.1.3,Win32,60,13297,,,,,0,86,86,17,1,,,,,,,,,,,,,,,,,,,,,,,,,,,,,,,,,,,,,,,,,,,,,,,,,,,,,,,,
,,,,,,,,,,,,l,0.10328,Incorrect,,,,,,t4.png,t5.png,1,0.90025,20,Female,2020-11-19_16h02.49.766,torte-2b,2020.1.3,Win32,60,13297,,,,,0,87,87,58,1,,,,,,,,,,,,,,,,,,,,,,,,,,,,,,,,,,,,,,,,,,,,,,,,,,,,,,,,
,,,,,,,,,,,,a,0.26779,Incorrect,,,,,,t1.png,t3.png,2,0.056466,20,Female,2020-11-19_16h02.49.766,torte-2b,2020.1.3,Win32,60,13297,,,,,0,88,88,69,1,,,,,,,,,,,,,,,,,,,,,,,,,,,,,,,,,,,,,,,,,,,,,,,,,,,,,,,,
,,,,,,,,,,,,a,0.13517,Incorrect,,,,,,t1.png,t5.png,4,9.55E-11,20,Female,2020-11-19_16h02.49.766,torte-2b,2020.1.3,Win32,60,13297,,,,,0,89,89,16,1,,,,,,,,,,,,,,,,,,,,,,,,,,,,,,,,,,,,,,,,,,,,,,,,,,,,,,,,
,,,,,,,,,,,,l,0.183815,Incorrect,,,,,,t4.png,t5.png,1,0.90025,20,Female,2020-11-19_16h02.49.766,torte-2b,2020.1.3,Win32,60,13297,,,,,0,90,90,103,1,,,,,,,,,,,,,,,,,,,,,,,,,,,,,,,,,,,,,,,,,,,,,,,,,,,,,,,,
,,,,,,,,,,,,l,0.208145,Incorrect,,,,,,t4.png,t4.png,0,0.98115,20,Female,2020-11-19_16h02.49.766,torte-2b,2020.1.3,Win32,60,13297,,,,,0,91,91,52,1,,,,,,,,,,,,,,,,,,,,,,,,,,,,,,,,,,,,,,,,,,,,,,,,,,,,,,,,
,,,,,,,,,,,,a,0.040785,Correct!,,,,,,t4.png,t3.png,1,0.90855,20,Female,2020-11-19_16h02.49.766,torte-2b,2020.1.3,Win32,60,13297,,,,,0,92,92,45,1,,,,,,,,,,,,,,,,,,,,,,,,,,,,,,,,,,,,,,,,,,,,,,,,,,,,,,,,
,,,,,,,,,,,,a,0.00074,Correct!,,,,,,t1.png,t2.png,1,0.90025,20,Female,2020-11-19_16h02.49.766,torte-2b,2020.1.3,Win32,60,13297,,,,,0,93,93,72,1,,,,,,,,,,,,,,,,,,,,,,,,,,,,,,,,,,,,,,,,,,,,,,,,,,,,,,,,
,,,,,,,,,,,,l,0.213335,Incorrect,,,,,,t5.png,t3.png,2,0.056466,20,Female,2020-11-19_16h02.49.766,torte-2b,2020.1.3,Win32,60,13297,,,,,0,94,94,56,1,,,,,,,,,,,,,,,,,,,,,,,,,,,,,,,,,,,,,,,,,,,,,,,,,,,,,,,,
,,,,,,,,,,,,l,0.16729,Correct!,,,,,,t1.png,t3.png,2,0.056466,20,Female,2020-11-19_16h02.49.766,torte-2b,2020.1.3,Win32,60,13297,,,,,0,95,95,87,1,,,,,,,,,,,,,,,,,,,,,,,,,,,,,,,,,,,,,,,,,,,,,,,,,,,,,,,,
,,,,,,,,,,,,l,0.25164,Correct!,,,,,,t5.png,t3.png,2,0.056466,20,Female,2020-11-19_16h02.49.766,torte-2b,2020.1.3,Win32,60,13297,,,,,0,96,96,38,1,,,,,,,,,,,,,,,,,,,,,,,,,,,,,,,,,,,,,,,,,,,,,,,,,,,,,,,,
,,,,,,,,,,,,a,0.233895,Incorrect,,,,,,t1.png,t2.png,1,0.9,20,Female,2020-11-19_16h02.49.766,torte-2b,2020.1.3,Win32,60,13297,,,,,0,97,97,1,1,,,,,,,,,,,,,,,,,,,,,,,,,,,,,,,,,,,,,,,,,,,,,,,,,,,,,,,,
,,,,,,,,,,,,l,0.226805,Incorrect,,,,,,t3.png,t2.png,1,0.909,20,Female,2020-11-19_16h02.49.766,torte-2b,2020.1.3,Win32,60,13297,,,,,0,98,98,23,1,,,,,,,,,,,,,,,,,,,,,,,,,,,,,,,,,,,,,,,,,,,,,,,,,,,,,,,,
,,,,,,,,,,,,l,0.241455,Correct!,,,,,,t1.png,t4.png,3,0.0000131,20,Female,2020-11-19_16h02.49.766,torte-2b,2020.1.3,Win32,60,13297,,,,,0,99,99,107,1,,,,,,,,,,,,,,,,,,,,,,,,,,,,,,,,,,,,,,,,,,,,,,,,,,,,,,,,
,,,,,,,,,,,,l,0.12006,Correct!,,,,,,t1.png,t4.png,3,0.0000131,20,Female,2020-11-19_16h02.49.766,torte-2b,2020.1.3,Win32,60,13297,,,,,0,100,100,81,1,,,,,,,,,,,,,,,,,,,,,,,,,,,,,,,,,,,,,,,,,,,,,,,,,,,,,,,,
,,,,,,,,,,,,a,0.18071,Incorrect,,,,,,t5.png,t1.png,4,9.55E-11,20,Female,2020-11-19_16h02.49.766,torte-2b,2020.1.3,Win32,60,13297,,,,,0,101,101,22,1,,,,,,,,,,,,,,,,,,,,,,,,,,,,,,,,,,,,,,,,,,,,,,,,,,,,,,,,
,,,,,,,,,,,,l,0.23076,Correct!,,,,,,t3.png,t1.png,2,0.056466,20,Female,2020-11-19_16h02.49.766,torte-2b,2020.1.3,Win32,60,13297,,,,,0,102,102,29,1,,,,,,,,,,,,,,,,,,,,,,,,,,,,,,,,,,,,,,,,,,,,,,,,,,,,,,,,
,,,,,,,,,,,,a,0.175815,Correct!,,,,,,t2.png,t1.png,1,0.90025,20,Female,2020-11-19_16h02.49.766,torte-2b,2020.1.3,Win32,60,13297,,,,,0,103,103,5,1,,,,,,,,,,,,,,,,,,,,,,,,,,,,,,,,,,,,,,,,,,,,,,,,,,,,,,,,
,,,,,,,,,,,,l,0.034065,Incorrect,,,,,,t2.png,t2.png,0,0.98115,20,Female,2020-11-19_16h02.49.766,torte-2b,2020.1.3,Win32,60,13297,,,,,0,104,104,59,1,,,,,,,,,,,,,,,,,,,,,,,,,,,,,,,,,,,,,,,,,,,,,,,,,,,,,,,,
,,,,,,,,,,,,l,0.08421,Incorrect,,,,,,t4.png,t4.png,0,0.98115,20,Female,2020-11-19_16h02.49.766,torte-2b,2020.1.3,Win32,60,13297,,,,,0,105,105,21,1,,,,,,,,,,,,,,,,,,,,,,,,,,,,,,,,,,,,,,,,,,,,,,,,,,,,,,,,
,,,,,,,,,,,,a,0.21986,Incorrect,,,,,,t4.png,t1.png,3,0.0000131,20,Female,2020-11-19_16h02.49.766,torte-2b,2020.1.3,Win32,60,13297,,,,,0,106,106,42,1,,,,,,,,,,,,,,,,,,,,,,,,,,,,,,,,,,,,,,,,,,,,,,,,,,,,,,,,
,,,,,,,,,,,,l,0.000615,Correct!,,,,,,t3.png,t5.png,2,0.056466,20,Female,2020-11-19_16h02.49.766,torte-2b,2020.1.3,Win32,60,13297,,,,,0,107,107,14,1,,,,,,,,,,,,,,,,,,,,,,,,,,,,,,,,,,,,,,,,,,,,,,,,,,,,,,,,
,,,,,,,,,,,,a,0.269135,Correct!,,,,,,t2.png,t2.png,0,0.98115,20,Female,2020-11-19_16h02.49.766,torte-2b,2020.1.3,Win32,60,13297,,,,,0,108,108,7,1,,,,,,,,,,,,,,,,,,,,,,,,,,,,,,,,,,,,,,,,,,,,,,,,,,,,,,,,
,,,,,,,,,,,,a,0.26761,Incorrect,,,,,,t2.png,t5.png,3,0.0000131,20,Female,2020-11-19_16h02.49.766,torte-2b,2020.1.3,Win32,60,13297,,,,,0,109,109,66,1,,,,,,,,,,,,,,,,,,,,,,,,,,,,,,,,,,,,,,,,,,,,,,,,,,,,,,,,
,,,,,,,,,,,,a,0.267085,Correct!,,,,,,t2.png,t2.png,0,0.98115,20,Female,2020-11-19_16h02.49.766,torte-2b,2020.1.3,Win32,60,13297,,,,,0,110,110,2,1,,,,,,,,,,,,,,,,,,,,,,,,,,,,,,,,,,,,,,,,,,,,,,,,,,,,,,,,
,,,,,,,,,,,,a,0.467215,Incorrect,,,,,,t5.png,t1.png,4,9.55E-11,20,Female,2020-11-19_16h02.49.766,torte-2b,2020.1.3,Win32,60,13297,,,,,0,111,111,102,1,,,,,,,,,,,,,,,,,,,,,,,,,,,,,,,,,,,,,,,,,,,,,,,,,,,,,,,,
,,,,,,,,,,,,a,0.363625,Correct!,,,,,,t3.png,t4.png,1,0.909,20,Female,2020-11-19_16h02.49.766,torte-2b,2020.1.3,Win32,60,13297,,,,,0,112,112,89,1,,,,,,,,,,,,,,,,,,,,,,,,,,,,,,,,,,,,,,,,,,,,,,,,,,,,,,,,
,,,,,,,,,,,,a,0.2174,Incorrect,,,,,,t3.png,t1.png,2,0.0565,20,Female,2020-11-19_16h02.49.766,torte-2b,2020.1.3,Win32,60,13297,,,,,0,113,113,31,1,,,,,,,,,,,,,,,,,,,,,,,,,,,,,,,,,,,,,,,,,,,,,,,,,,,,,,,,
,,,,,,,,,,,,a,0.451385,Incorrect,,,,,,t3.png,t5.png,2,0.056466,20,Female,2020-11-19_16h02.49.766,torte-2b,2020.1.3,Win32,60,13297,,,,,0,114,114,6,1,,,,,,,,,,,,,,,,,,,,,,,,,,,,,,,,,,,,,,,,,,,,,,,,,,,,,,,,
,,,,,,,,,,,,a,0.25034,Incorrect,,,,,,t4.png,t2.png,2,0.059078,20,Female,2020-11-19_16h02.49.766,torte-2b,2020.1.3,Win32,60,13297,,,,,0,115,115,110,1,,,,,,,,,,,,,,,,,,,,,,,,,,,,,,,,,,,,,,,,,,,,,,,,,,,,,,,,
,,,,,,,,,,,,l,0.92049,Correct!,,,,,,t1.png,t4.png,3,0.0000131,20,Female,2020-11-19_16h02.49.766,torte-2b,2020.1.3,Win32,60,13297,,,,,0,116,116,50,1,,,,,,,,,,,,,,,,,,,,,,,,,,,,,,,,,,,,,,,,,,,,,,,,,,,,,,,,
,,,,,,,,,,,,l,0.61717,Incorrect,,,,,,t5.png,t4.png,1,0.90025,20,Female,2020-11-19_16h02.49.766,torte-2b,2020.1.3,Win32,60,13297,,,,,0,117,117,27,1,,,,,,,,,,,,,,,,,,,,,,,,,,,,,,,,,,,,,,,,,,,,,,,,,,,,,,,,
,,,,,,,,,,,,a,0.200525,Incorrect,,,,,,t4.png,t1.png,3,0.0000131,20,Female,2020-11-19_16h02.49.766,torte-2b,2020.1.3,Win32,60,13297,,,,,0,118,118,48,1,,,,,,,,,,,,,,,,,,,,,,,,,,,,,,,,,,,,,,,,,,,,,,,,,,,,,,,,
,,,,,,,,,,,,l,0.11708,Incorrect,,,,,,t2.png,t2.png,0,0.98115,20,Female,2020-11-19_16h02.49.766,torte-2b,2020.1.3,Win32,60,13297,,,,,0,119,119,57,1,,,,,,,,,,,,,,,,,,,,,,,,,,,,,,,,,,,,,,,,,,,,,,,,,,,,,,,,
,,,,,,,,,,,,,,,,,,,,,,,,20,Female,2020-11-19_16h02.49.766,torte-2b,2020.1.3,Win32,60,13297,space,1.50103,,,,,,,,space,29.730455,,0,0,0,0,1,6,,,,,,,,,,,,,,,,,,,,,,,,,,,,,,,,,,,,,,,,,,,,,,,
,,,,,,,,,,,,,,,,,,,,,,,,20,Female,2020-11-19_16h02.49.766,torte-2b,2020.1.3,Win32,60,13297,,,,,,,,,,,,,0,1,1,1,1,7,,,,,,,,,,,,,,,,,,,,,,,,,,,,,,,,,,,,,,,,,,,,,,,
,,,,,,,,,,,,,,,,,,,,,,,,20,Female,2020-11-19_16h02.49.766,torte-2b,2020.1.3,Win32,60,13297,,,,,,,,,,,,space,0,2,2,2,1,6,0.37636,,,,,,,,,,,,,,,,,,,,,,,,,,,,,,,,,,,,,,,,,,,,,,
,,,,,,,,,,,,,,,,,,,,,,,,20,Female,2020-11-19_16h02.49.766,torte-2b,2020.1.3,Win32,60,13297,,,,,,,,,,,,space,0,3,3,3,1,7,0.5377,,,,,,,,,,,,,,,,,,,,,,,,,,,,,,,,,,,,,,,,,,,,,,
,,,,,,,,,,,,,,,,,,,,,,,,20,Female,2020-11-19_16h02.49.766,torte-2b,2020.1.3,Win32,60,13297,,,,,,,,,,,,space,0,4,4,4,1,5,0.225095,,,,,,,,,,,,,,,,,,,,,,,,,,,,,,,,,,,,,,,,,,,,,,
,,,,,,,,,,,,,,,,,,,,,,,,20,Female,2020-11-19_16h02.49.766,torte-2b,2020.1.3,Win32,60,13297,,,,,,,,,,,,space,0,5,5,5,1,7,0.2532,,,,,,,,,,,,,,,,,,,,,,,,,,,,,,,,,,,,,,,,,,,,,,
,,,,,,,,,,,,,,,,,,,,,,,,20,Female,2020-11-19_16h02.49.766,torte-2b,2020.1.3,Win32,60,13297,,,,,,,,,,,,space,0,6,6,6,1,2,0.272355,,,,,,,,,,,,,,,,,,,,,,,,,,,,,,,,,,,,,,,,,,,,,,
,,,,,,,,,,,,,,,,,,,,,,,,20,Female,2020-11-19_16h02.49.766,torte-2b,2020.1.3,Win32,60,13297,,,,,,,,,,,,,0,7,7,7,1,4,,,,,,,,,,,,,,,,,,,,,,,,,,,,,,,,,,,,,,,,,,,,,,,
,,,,,,,,,,,,,,,,,,,,,,,,20,Female,2020-11-19_16h02.49.766,torte-2b,2020.1.3,Win32,60,13297,,,,,,,,,,,,,0,8,8,8,1,7,,,,,,,,,,,,,,,,,,,,,,,,,,,,,,,,,,,,,,,,,,,,,,,
,,,,,,,,,,,,,,,,,,,,,,,,20,Female,2020-11-19_16h02.49.766,torte-2b,2020.1.3,Win32,60,13297,,,,,,,,,,,,space,0,9,9,9,1,4,0.34172,,,,,,,,,,,,,,,,,,,,,,,,,,,,,,,,,,,,,,,,,,,,,,
,,,,,,,,,,,,,,,,,,,,,,,,20,Female,2020-11-19_16h02.49.766,torte-2b,2020.1.3,Win32,60,13297,,,,,,,,,,,,space,0,10,10,10,1,7,0.27317,,,,,,,,,,,,,,,,,,,,,,,,,,,,,,,,,,,,,,,,,,,,,,
,,,,,,,,,,,,,,,,,,,,,,,,20,Female,2020-11-19_16h02.49.766,torte-2b,2020.1.3,Win32,60,13297,,,,,,,,,,,,,0,11,11,11,1,7,,,,,,,,,,,,,,,,,,,,,,,,,,,,,,,,,,,,,,,,,,,,,,,
,,,,,,,,,,,,,,,,,,,,,,,,20,Female,2020-11-19_16h02.49.766,torte-2b,2020.1.3,Win32,60,13297,,,,,,,,,,,,space,0,12,12,12,1,7,0.350375,,,,,,,,,,,,,,,,,,,,,,,,,,,,,,,,,,,,,,,,,,,,,,
,,,,,,,,,,,,,,,,,,,,,,,,20,Female,2020-11-19_16h02.49.766,torte-2b,2020.1.3,Win32,60,13297,,,,,,,,,,,,,0,13,13,13,1,4,,,,,,,,,,,,,,,,,,,,,,,,,,,,,,,,,,,,,,,,,,,,,,,
,,,,,,,,,,,,,,,,,,,,,,,,20,Female,2020-11-19_16h02.49.766,torte-2b,2020.1.3,Win32,60,13297,,,,,,,,,,,,space,0,14,14,14,1,6,0.527295,,,,,,,,,,,,,,,,,,,,,,,,,,,,,,,,,,,,,,,,,,,,,,
,,,,,,,,,,,,,,,,,,,,,,,,20,Female,2020-11-19_16h02.49.766,torte-2b,2020.1.3,Win32,60,13297,,,,,,,,,,,,,0,15,15,15,1,4,,,,,,,,,,,,,,,,,,,,,,,,,,,,,,,,,,,,,,,,,,,,,,,
,,,,,,,,,,,,,,,,,,,,,,,,20,Female,2020-11-19_16h02.49.766,torte-2b,2020.1.3,Win32,60,13297,,,,,,,,,,,,space,0,16,16,16,1,6,0.33502,,,,,,,,,,,,,,,,,,,,,,,,,,,,,,,,,,,,,,,,,,,,,,
,,,,,,,,,,,,,,,,,,,,,,,,20,Female,2020-11-19_16h02.49.766,torte-2b,2020.1.3,Win32,60,13297,,,,,,,,,,,,,0,17,17,17,1,7,,,,,,,,,,,,,,,,,,,,,,,,,,,,,,,,,,,,,,,,,,,,,,,
,,,,,,,,,,,,,,,,,,,,,,,,20,Female,2020-11-19_16h02.49.766,torte-2b,2020.1.3,Win32,60,13297,,,,,,,,,,,,space,0,18,18,18,1,6,0.658335,,,,,,,,,,,,,,,,,,,,,,,,,,,,,,,,,,,,,,,,,,,,,,
,,,,,,,,,,,,,,,,,,,,,,,,20,Female,2020-11-19_16h02.49.766,torte-2b,2020.1.3,Win32,60,13297,,,,,,,,,,,,space,0,19,19,19,1,7,0.301305,,,,,,,,,,,,,,,,,,,,,,,,,,,,,,,,,,,,,,,,,,,,,,
,,,,,,,,,,,,,,,,,,,,,,,,20,Female,2020-11-19_16h02.49.766,torte-2b,2020.1.3,Win32,60,13297,,,,,,,,,,,,,0,20,20,20,1,5,,,,,,,,,,,,,,,,,,,,,,,,,,,,,,,,,,,,,,,,,,,,,,,
,,,,,,,,,,,,,,,,,,,,,,,,20,Female,2020-11-19_16h02.49.766,torte-2b,2020.1.3,Win32,60,13297,,,,,,,,,,,,space,0,21,21,21,1,1,1.08394,,,,,,,,,,,,,,,,,,,,,,,,,,,,,,,,,,,,,,,,,,,,,,
,,,,,,,,,,,,,,,,,,,,,,,,20,Female,2020-11-19_16h02.49.766,torte-2b,2020.1.3,Win32,60,13297,,,,,,,,,,,,space,0,22,22,22,1,6,0.44245,,,,,,,,,,,,,,,,,,,,,,,,,,,,,,,,,,,,,,,,,,,,,,
,,,,,,,,,,,,,,,,,,,,,,,,20,Female,2020-11-19_16h02.49.766,torte-2b,2020.1.3,Win32,60,13297,,,,,,,,,,,,space,0,23,23,23,1,1,0.334415,,,,,,,,,,,,,,,,,,,,,,,,,,,,,,,,,,,,,,,,,,,,,,
,,,,,,,,,,,,,,,,,,,,,,,,20,Female,2020-11-19_16h02.49.766,torte-2b,2020.1.3,Win32,60,13297,,,,,,,,,,,,,0,24,24,24,1,5,,,,,,,,,,,,,,,,,,,,,,,,,,,,,,,,,,,,,,,,,,,,,,,
,,,,,,,,,,,,,,,,,,,,,,,,20,Female,2020-11-19_16h02.49.766,torte-2b,2020.1.3,Win32,60,13297,,,,,,,,,,,,space,0,25,25,25,1,6,0.421035,,,,,,,,,,,,,,,,,,,,,,,,,,,,,,,,,,,,,,,,,,,,,,
,,,,,,,,,,,,,,,,,,,,,,,,20,Female,2020-11-19_16h02.49.766,torte-2b,2020.1.3,Win32,60,13297,,,,,,,,,,,,space,0,26,26,26,1,6,0.37732,,,,,,,,,,,,,,,,,,,,,,,,,,,,,,,,,,,,,,,,,,,,,,
,,,,,,,,,,,,,,,,,,,,,,,,20,Female,2020-11-19_16h02.49.766,torte-2b,2020.1.3,Win32,60,13297,,,,,,,,,,,,space,0,27,27,27,1,6,0.344825,,,,,,,,,,,,,,,,,,,,,,,,,,,,,,,,,,,,,,,,,,,,,,
,,,,,,,,,,,,,,,,,,,,,,,,20,Female,2020-11-19_16h02.49.766,torte-2b,2020.1.3,Win32,60,13297,,,,,,,,,,,,space,0,28,28,28,1,5,0.56041,,,,,,,,,,,,,,,,,,,,,,,,,,,,,,,,,,,,,,,,,,,,,,
,,,,,,,,,,,,,,,,,,,,,,,,20,Female,2020-11-19_16h02.49.766,torte-2b,2020.1.3,Win32,60,13297,,,,,,,,,,,,,0,29,29,29,1,2,,,,,,,,,,,,,,,,,,,,,,,,,,,,,,,,,,,,,,,,,,,,,,,
,,,,,,,,,,,,,,,,,,,,,,,,20,Female,2020-11-19_16h02.49.766,torte-2b,2020.1.3,Win32,60,13297,,,,,,,,,,,,space,0,30,30,30,1,5,0.328425,,,,,,,,,,,,,,,,,,,,,,,,,,,,,,,,,,,,,,,,,,,,,,
,,,,,,,,,,,,,,,,,,,,,,,,20,Female,2020-11-19_16h02.49.766,torte-2b,2020.1.3,Win32,60,13297,,,,,,,,,,,,space,0,31,31,31,1,2,0.336655,,,,,,,,,,,,,,,,,,,,,,,,,,,,,,,,,,,,,,,,,,,,,,
,,,,,,,,,,,,,,,,,,,,,,,,20,Female,2020-11-19_16h02.49.766,torte-2b,2020.1.3,Win32,60,13297,,,,,,,,,,,,space,0,32,32,32,1,5,0.29136,,,,,,,,,,,,,,,,,,,,,,,,,,,,,,,,,,,,,,,,,,,,,,
,,,,,,,,,,,,,,,,,,,,,,,,20,Female,2020-11-19_16h02.49.766,torte-2b,2020.1.3,Win32,60,13297,,,,,,,,,,,,,0,33,33,33,1,1,,,,,,,,,,,,,,,,,,,,,,,,,,,,,,,,,,,,,,,,,,,,,,,
,,,,,,,,,,,,,,,,,,,,,,,,20,Female,2020-11-19_16h02.49.766,torte-2b,2020.1.3,Win32,60,13297,,,,,,,,,,,,,0,34,34,34,1,1,,,,,,,,,,,,,,,,,,,,,,,,,,,,,,,,,,,,,,,,,,,,,,,
,,,,,,,,,,,,,,,,,,,,,,,,20,Female,2020-11-19_16h02.49.766,torte-2b,2020.1.3,Win32,60,13297,,,,,,,,,,,,,,,,,,2,,0,0,0,0,1,,,,,,,,,,,,,,,,,,,,,,,,,,,,,,,,,,,,,,,,,
,,,,,,,,,,,,,,,,,,,,,,,,20,Female,2020-11-19_16h02.49.766,torte-2b,2020.1.3,Win32,60,13297,,,,,,,,,,,,,,,,,,2,,0,1,1,1,1,,,,,,,,,,,,,,,,,,,,,,,,,,,,,,,,,,,,,,,,,
,,,,,,,,,,,,,,,,,,,,,,,,20,Female,2020-11-19_16h02.49.766,torte-2b,2020.1.3,Win32,60,13297,,,,,,,,,,,,,,,,,,6,,0,2,2,2,1,,,,,,,,,,,,,,,,,,,,,,,,,,,,,,,,,,,,,,,,,
,,,,,,,,,,,,,,,,,,,,,,,,20,Female,2020-11-19_16h02.49.766,torte-2b,2020.1.3,Win32,60,13297,,,,,,,,,,,,space,,,,,,2,0.36736,0,3,3,3,1,,,,,,,,,,,,,,,,,,,,,,,,,,,,,,,,,,,,,,,,,
,,,,,,,,,,,,,,,,,,,,,,,,20,Female,2020-11-19_16h02.49.766,torte-2b,2020.1.3,Win32,60,13297,,,,,,,,,,,,space,,,,,,6,0.31898,0,4,4,4,1,,,,,,,,,,,,,,,,,,,,,,,,,,,,,,,,,,,,,,,,,
,,,,,,,,,,,,,,,,,,,,,,,,20,Female,2020-11-19_16h02.49.766,torte-2b,2020.1.3,Win32,60,13297,,,,,,,,,,,,space,,,,,,2,0.354725,0,5,5,5,1,,,,,,,,,,,,,,,,,,,,,,,,,,,,,,,,,,,,,,,,,
,,,,,,,,,,,,,,,,,,,,,,,,20,Female,2020-11-19_16h02.49.766,torte-2b,2020.1.3,Win32,60,13297,,,,,,,,,,,,,,,,,,7,,0,6,6,6,1,,,,,,,,,,,,,,,,,,,,,,,,,,,,,,,,,,,,,,,,,
,,,,,,,,,,,,,,,,,,,,,,,,20,Female,2020-11-19_16h02.49.766,torte-2b,2020.1.3,Win32,60,13297,,,,,,,,,,,,space,,,,,,2,0.54361,0,7,7,7,1,,,,,,,,,,,,,,,,,,,,,,,,,,,,,,,,,,,,,,,,,
,,,,,,,,,,,,,,,,,,,,,,,,20,Female,2020-11-19_16h02.49.766,torte-2b,2020.1.3,Win32,60,13297,,,,,,,,,,,,space,,,,,,7,0.24434,0,8,8,8,1,,,,,,,,,,,,,,,,,,,,,,,,,,,,,,,,,,,,,,,,,
,,,,,,,,,,,,,,,,,,,,,,,,20,Female,2020-11-19_16h02.49.766,torte-2b,2020.1.3,Win32,60,13297,,,,,,,,,,,,space,,,,,,2,0.291975,0,9,9,9,1,,,,,,,,,,,,,,,,,,,,,,,,,,,,,,,,,,,,,,,,,
,,,,,,,,,,,,,,,,,,,,,,,,20,Female,2020-11-19_16h02.49.766,torte-2b,2020.1.3,Win32,60,13297,,,,,,,,,,,,,,,,,,5,,0,10,10,10,1,,,,,,,,,,,,,,,,,,,,,,,,,,,,,,,,,,,,,,,,,
,,,,,,,,,,,,,,,,,,,,,,,,20,Female,2020-11-19_16h02.49.766,torte-2b,2020.1.3,Win32,60,13297,,,,,,,,,,,,space,,,,,,4,0.30366,0,11,11,11,1,,,,,,,,,,,,,,,,,,,,,,,,,,,,,,,,,,,,,,,,,
,,,,,,,,,,,,,,,,,,,,,,,,20,Female,2020-11-19_16h02.49.766,torte-2b,2020.1.3,Win32,60,13297,,,,,,,,,,,,space,,,,,,5,0.370265,0,12,12,12,1,,,,,,,,,,,,,,,,,,,,,,,,,,,,,,,,,,,,,,,,,
,,,,,,,,,,,,,,,,,,,,,,,,20,Female,2020-11-19_16h02.49.766,torte-2b,2020.1.3,Win32,60,13297,,,,,,,,,,,,,,,,,,6,,0,13,13,13,1,,,,,,,,,,,,,,,,,,,,,,,,,,,,,,,,,,,,,,,,,
,,,,,,,,,,,,,,,,,,,,,,,,20,Female,2020-11-19_16h02.49.766,torte-2b,2020.1.3,Win32,60,13297,,,,,,,,,,,,space,,,,,,5,0.303445,0,14,14,14,1,,,,,,,,,,,,,,,,,,,,,,,,,,,,,,,,,,,,,,,,,
,,,,,,,,,,,,,,,,,,,,,,,,20,Female,2020-11-19_16h02.49.766,torte-2b,2020.1.3,Win32,60,13297,,,,,,,,,,,,,,,,,,4,,0,15,15,15,1,,,,,,,,,,,,,,,,,,,,,,,,,,,,,,,,,,,,,,,,,
,,,,,,,,,,,,,,,,,,,,,,,,20,Female,2020-11-19_16h02.49.766,torte-2b,2020.1.3,Win32,60,13297,,,,,,,,,,,,space,,,,,,5,0.300625,0,16,16,16,1,,,,,,,,,,,,,,,,,,,,,,,,,,,,,,,,,,,,,,,,,
,,,,,,,,,,,,,,,,,,,,,,,,20,Female,2020-11-19_16h02.49.766,torte-2b,2020.1.3,Win32,60,13297,,,,,,,,,,,,,,,,,,3,,0,17,17,17,1,,,,,,,,,,,,,,,,,,,,,,,,,,,,,,,,,,,,,,,,,
,,,,,,,,,,,,,,,,,,,,,,,,20,Female,2020-11-19_16h02.49.766,torte-2b,2020.1.3,Win32,60,13297,,,,,,,,,,,,space,,,,,,6,0.26918,0,18,18,18,1,,,,,,,,,,,,,,,,,,,,,,,,,,,,,,,,,,,,,,,,,
,,,,,,,,,,,,,,,,,,,,,,,,20,Female,2020-11-19_16h02.49.766,torte-2b,2020.1.3,Win32,60,13297,,,,,,,,,,,,,,,,,,6,,0,19,19,19,1,,,,,,,,,,,,,,,,,,,,,,,,,,,,,,,,,,,,,,,,,
,,,,,,,,,,,,,,,,,,,,,,,,20,Female,2020-11-19_16h02.49.766,torte-2b,2020.1.3,Win32,60,13297,,,,,,,,,,,,space,,,,,,6,0.312325,0,20,20,20,1,,,,,,,,,,,,,,,,,,,,,,,,,,,,,,,,,,,,,,,,,
,,,,,,,,,,,,,,,,,,,,,,,,20,Female,2020-11-19_16h02.49.766,torte-2b,2020.1.3,Win32,60,13297,,,,,,,,,,,,,,,,,,4,,0,21,21,21,1,,,,,,,,,,,,,,,,,,,,,,,,,,,,,,,,,,,,,,,,,
,,,,,,,,,,,,,,,,,,,,,,,,20,Female,2020-11-19_16h02.49.766,torte-2b,2020.1.3,Win32,60,13297,,,,,,,,,,,,space,,,,,,6,0.334105,0,22,22,22,1,,,,,,,,,,,,,,,,,,,,,,,,,,,,,,,,,,,,,,,,,
,,,,,,,,,,,,,,,,,,,,,,,,20,Female,2020-11-19_16h02.49.766,torte-2b,2020.1.3,Win32,60,13297,,,,,,,,,,,,space,,,,,,4,0.272105,0,23,23,23,1,,,,,,,,,,,,,,,,,,,,,,,,,,,,,,,,,,,,,,,,,
,,,,,,,,,,,,,,,,,,,,,,,,20,Female,2020-11-19_16h02.49.766,torte-2b,2020.1.3,Win32,60,13297,,,,,,,,,,,,space,,,,,,6,0.33833,0,24,24,24,1,,,,,,,,,,,,,,,,,,,,,,,,,,,,,,,,,,,,,,,,,
,,,,,,,,,,,,,,,,,,,,,,,,20,Female,2020-11-19_16h02.49.766,torte-2b,2020.1.3,Win32,60,13297,,,,,,,,,,,,space,,,,,,6,0.350485,0,25,25,25,1,,,,,,,,,,,,,,,,,,,,,,,,,,,,,,,,,,,,,,,,,
,,,,,,,,,,,,,,,,,,,,,,,,20,Female,2020-11-19_16h02.49.766,torte-2b,2020.1.3,Win32,60,13297,,,,,,,,,,,,,,,,,,7,,0,26,26,26,1,,,,,,,,,,,,,,,,,,,,,,,,,,,,,,,,,,,,,,,,,
,,,,,,,,,,,,,,,,,,,,,,,,20,Female,2020-11-19_16h02.49.766,torte-2b,2020.1.3,Win32,60,13297,,,,,,,,,,,,,,,,,,1,,0,27,27,27,1,,,,,,,,,,,,,,,,,,,,,,,,,,,,,,,,,,,,,,,,,
,,,,,,,,,,,,,,,,,,,,,,,,20,Female,2020-11-19_16h02.49.766,torte-2b,2020.1.3,Win32,60,13297,,,,,,,,,,,,space,,,,,,7,0.27401,0,28,28,28,1,,,,,,,,,,,,,,,,,,,,,,,,,,,,,,,,,,,,,,,,,
,,,,,,,,,,,,,,,,,,,,,,,,20,Female,2020-11-19_16h02.49.766,torte-2b,2020.1.3,Win32,60,13297,,,,,,,,,,,,,,,,,,4,,0,29,29,29,1,,,,,,,,,,,,,,,,,,,,,,,,,,,,,,,,,,,,,,,,,
,,,,,,,,,,,,,,,,,,,,,,,,20,Female,2020-11-19_16h02.49.766,torte-2b,2020.1.3,Win32,60,13297,,,,,,,,,,,,space,,,,,,7,0.347615,0,30,30,30,1,,,,,,,,,,,,,,,,,,,,,,,,,,,,,,,,,,,,,,,,,
,,,,,,,,,,,,,,,,,,,,,,,,20,Female,2020-11-19_16h02.49.766,torte-2b,2020.1.3,Win32,60,13297,,,,,,,,,,,,space,,,,,,3,0.317415,0,31,31,31,1,,,,,,,,,,,,,,,,,,,,,,,,,,,,,,,,,,,,,,,,,
,,,,,,,,,,,,,,,,,,,,,,,,20,Female,2020-11-19_16h02.49.766,torte-2b,2020.1.3,Win32,60,13297,,,,,,,,,,,,,,,,,,2,,0,32,32,32,1,,,,,,,,,,,,,,,,,,,,,,,,,,,,,,,,,,,,,,,,,
,,,,,,,,,,,,,,,,,,,,,,,,20,Female,2020-11-19_16h02.49.766,torte-2b,2020.1.3,Win32,60,13297,,,,,,,,,,,,space,,,,,,6,0.28419,0,33,33,33,1,,,,,,,,,,,,,,,,,,,,,,,,,,,,,,,,,,,,,,,,,
,,,,,,,,,,,,,,,,,,,,,,,,20,Female,2020-11-19_16h02.49.766,torte-2b,2020.1.3,Win32,60,13297,,,,,,,,,,,,space,,,,,,3,0.362405,0,34,34,34,1,,,,,,,,,,,,,,,,,,,,,,,,,,,,,,,,,,,,,,,,,
,,,,,,,,,,,,,,,,,,,,,,,,20,Female,2020-11-19_16h02.49.766,torte-2b,2020.1.3,Win32,60,13297,,,,,,,,,,,,,,,,,,7,,,,,,,0,0,0,0,1,,,,,,,,,,,,,,,,,,,,,,,,,,,,,,,,,,,,
,,,,,,,,,,,,,,,,,,,,,,,,20,Female,2020-11-19_16h02.49.766,torte-2b,2020.1.3,Win32,60,13297,,,,,,,,,,,,,,,,,,5,,,,,,,0,1,1,1,1,,,,,,,,,,,,,,,,,,,,,,,,,,,,,,,,,,,,
,,,,,,,,,,,,,,,,,,,,,,,,20,Female,2020-11-19_16h02.49.766,torte-2b,2020.1.3,Win32,60,13297,,,,,,,,,,,,,,,,,,4,,,,,,,0,2,2,2,1,,,,,,,,,,,,,,,,,,,,,,,,,,,,,,,,,,,,
,,,,,,,,,,,,,,,,,,,,,,,,20,Female,2020-11-19_16h02.49.766,torte-2b,2020.1.3,Win32,60,13297,,,,,,,,,,,,space,,,,,,5,0.37948,,,,,,0,3,3,3,1,,,,,,,,,,,,,,,,,,,,,,,,,,,,,,,,,,,,
,,,,,,,,,,,,,,,,,,,,,,,,20,Female,2020-11-19_16h02.49.766,torte-2b,2020.1.3,Win32,60,13297,,,,,,,,,,,,,,,,,,6,,,,,,,0,4,4,4,1,,,,,,,,,,,,,,,,,,,,,,,,,,,,,,,,,,,,
,,,,,,,,,,,,,,,,,,,,,,,,20,Female,2020-11-19_16h02.49.766,torte-2b,2020.1.3,Win32,60,13297,,,,,,,,,,,,space,,,,,,5,0.53639,,,,,,0,5,5,5,1,,,,,,,,,,,,,,,,,,,,,,,,,,,,,,,,,,,,
,,,,,,,,,,,,,,,,,,,,,,,,20,Female,2020-11-19_16h02.49.766,torte-2b,2020.1.3,Win32,60,13297,,,,,,,,,,,,,,,,,,3,,,,,,,0,6,6,6,1,,,,,,,,,,,,,,,,,,,,,,,,,,,,,,,,,,,,
,,,,,,,,,,,,,,,,,,,,,,,,20,Female,2020-11-19_16h02.49.766,torte-2b,2020.1.3,Win32,60,13297,,,,,,,,,,,,space,,,,,,4,0.250595,,,,,,0,7,7,7,1,,,,,,,,,,,,,,,,,,,,,,,,,,,,,,,,,,,,
,,,,,,,,,,,,,,,,,,,,,,,,20,Female,2020-11-19_16h02.49.766,torte-2b,2020.1.3,Win32,60,13297,,,,,,,,,,,,space,,,,,,3,0.28117,,,,,,0,8,8,8,1,,,,,,,,,,,,,,,,,,,,,,,,,,,,,,,,,,,,
,,,,,,,,,,,,,,,,,,,,,,,,20,Female,2020-11-19_16h02.49.766,torte-2b,2020.1.3,Win32,60,13297,,,,,,,,,,,,,,,,,,1,,,,,,,0,9,9,9,1,,,,,,,,,,,,,,,,,,,,,,,,,,,,,,,,,,,,
,,,,,,,,,,,,,,,,,,,,,,,,20,Female,2020-11-19_16h02.49.766,torte-2b,2020.1.3,Win32,60,13297,,,,,,,,,,,,,,,,,,2,,,,,,,0,10,10,10,1,,,,,,,,,,,,,,,,,,,,,,,,,,,,,,,,,,,,
,,,,,,,,,,,,,,,,,,,,,,,,20,Female,2020-11-19_16h02.49.766,torte-2b,2020.1.3,Win32,60,13297,,,,,,,,,,,,space,,,,,,1,0.33403,,,,,,0,11,11,11,1,,,,,,,,,,,,,,,,,,,,,,,,,,,,,,,,,,,,
,,,,,,,,,,,,,,,,,,,,,,,,20,Female,2020-11-19_16h02.49.766,torte-2b,2020.1.3,Win32,60,13297,,,,,,,,,,,,space,,,,,,2,0.317425,,,,,,0,12,12,12,1,,,,,,,,,,,,,,,,,,,,,,,,,,,,,,,,,,,,
,,,,,,,,,,,,,,,,,,,,,,,,20,Female,2020-11-19_16h02.49.766,torte-2b,2020.1.3,Win32,60,13297,,,,,,,,,,,,space,,,,,,1,0.28743,,,,,,0,13,13,13,1,,,,,,,,,,,,,,,,,,,,,,,,,,,,,,,,,,,,
,,,,,,,,,,,,,,,,,,,,,,,,20,Female,2020-11-19_16h02.49.766,torte-2b,2020.1.3,Win32,60,13297,,,,,,,,,,,,space,,,,,,3,0.32385,,,,,,0,14,14,14,1,,,,,,,,,,,,,,,,,,,,,,,,,,,,,,,,,,,,
,,,,,,,,,,,,,,,,,,,,,,,,20,Female,2020-11-19_16h02.49.766,torte-2b,2020.1.3,Win32,60,13297,,,,,,,,,,,,space,,,,,,1,0.46101,,,,,,0,15,15,15,1,,,,,,,,,,,,,,,,,,,,,,,,,,,,,,,,,,,,
,,,,,,,,,,,,,,,,,,,,,,,,20,Female,2020-11-19_16h02.49.766,torte-2b,2020.1.3,Win32,60,13297,,,,,,,,,,,,space,,,,,,7,0.29661,,,,,,0,16,16,16,1,,,,,,,,,,,,,,,,,,,,,,,,,,,,,,,,,,,,
,,,,,,,,,,,,,,,,,,,,,,,,20,Female,2020-11-19_16h02.49.766,torte-2b,2020.1.3,Win32,60,13297,,,,,,,,,,,,space,,,,,,7,0.622025,,,,,,0,17,17,17,1,,,,,,,,,,,,,,,,,,,,,,,,,,,,,,,,,,,,
,,,,,,,,,,,,,,,,,,,,,,,,20,Female,2020-11-19_16h02.49.766,torte-2b,2020.1.3,Win32,60,13297,,,,,,,,,,,,,,,,,,4,,,,,,,0,18,18,18,1,,,,,,,,,,,,,,,,,,,,,,,,,,,,,,,,,,,,
,,,,,,,,,,,,,,,,,,,,,,,,20,Female,2020-11-19_16h02.49.766,torte-2b,2020.1.3,Win32,60,13297,,,,,,,,,,,,space,,,,,,7,0.381115,,,,,,0,19,19,19,1,,,,,,,,,,,,,,,,,,,,,,,,,,,,,,,,,,,,
,,,,,,,,,,,,,,,,,,,,,,,,20,Female,2020-11-19_16h02.49.766,torte-2b,2020.1.3,Win32,60,13297,,,,,,,,,,,,space,,,,,,3,0.393025,,,,,,0,20,20,20,1,,,,,,,,,,,,,,,,,,,,,,,,,,,,,,,,,,,,
,,,,,,,,,,,,,,,,,,,,,,,,20,Female,2020-11-19_16h02.49.766,torte-2b,2020.1.3,Win32,60,13297,,,,,,,,,,,,,,,,,,7,,,,,,,0,21,21,21,1,,,,,,,,,,,,,,,,,,,,,,,,,,,,,,,,,,,,
,,,,,,,,,,,,,,,,,,,,,,,,20,Female,2020-11-19_16h02.49.766,torte-2b,2020.1.3,Win32,60,13297,,,,,,,,,,,,space,,,,,,3,0.417175,,,,,,0,22,22,22,1,,,,,,,,,,,,,,,,,,,,,,,,,,,,,,,,,,,,
,,,,,,,,,,,,,,,,,,,,,,,,20,Female,2020-11-19_16h02.49.766,torte-2b,2020.1.3,Win32,60,13297,,,,,,,,,,,,,,,,,,1,,,,,,,0,23,23,23,1,,,,,,,,,,,,,,,,,,,,,,,,,,,,,,,,,,,,
,,,,,,,,,,,,,,,,,,,,,,,,20,Female,2020-11-19_16h02.49.766,torte-2b,2020.1.3,Win32,60,13297,,,,,,,,,,,,,,,,,,6,,,,,,,0,24,24,24,1,,,,,,,,,,,,,,,,,,,,,,,,,,,,,,,,,,,,
,,,,,,,,,,,,,,,,,,,,,,,,20,Female,2020-11-19_16h02.49.766,torte-2b,2020.1.3,Win32,60,13297,,,,,,,,,,,,,,,,,,3,,,,,,,0,25,25,25,1,,,,,,,,,,,,,,,,,,,,,,,,,,,,,,,,,,,,
,,,,,,,,,,,,,,,,,,,,,,,,20,Female,2020-11-19_16h02.49.766,torte-2b,2020.1.3,Win32,60,13297,,,,,,,,,,,,,,,,,,2,,,,,,,0,26,26,26,1,,,,,,,,,,,,,,,,,,,,,,,,,,,,,,,,,,,,
,,,,,,,,,,,,,,,,,,,,,,,,20,Female,2020-11-19_16h02.49.766,torte-2b,2020.1.3,Win32,60,13297,,,,,,,,,,,,space,,,,,,3,0.36777,,,,,,0,27,27,27,1,,,,,,,,,,,,,,,,,,,,,,,,,,,,,,,,,,,,
,,,,,,,,,,,,,,,,,,,,,,,,20,Female,2020-11-19_16h02.49.766,torte-2b,2020.1.3,Win32,60,13297,,,,,,,,,,,,,,,,,,1,,,,,,,0,28,28,28,1,,,,,,,,,,,,,,,,,,,,,,,,,,,,,,,,,,,,
,,,,,,,,,,,,,,,,,,,,,,,,20,Female,2020-11-19_16h02.49.766,torte-2b,2020.1.3,Win32,60,13297,,,,,,,,,,,,,,,,,,3,,,,,,,0,29,29,29,1,,,,,,,,,,,,,,,,,,,,,,,,,,,,,,,,,,,,
,,,,,,,,,,,,,,,,,,,,,,,,20,Female,2020-11-19_16h02.49.766,torte-2b,2020.1.3,Win32,60,13297,,,,,,,,,,,,space,,,,,,1,0.679735,,,,,,0,30,30,30,1,,,,,,,,,,,,,,,,,,,,,,,,,,,,,,,,,,,,
,,,,,,,,,,,,,,,,,,,,,,,,20,Female,2020-11-19_16h02.49.766,torte-2b,2020.1.3,Win32,60,13297,,,,,,,,,,,,space,,,,,,7,0.241935,,,,,,0,31,31,31,1,,,,,,,,,,,,,,,,,,,,,,,,,,,,,,,,,,,,
,,,,,,,,,,,,,,,,,,,,,,,,20,Female,2020-11-19_16h02.49.766,torte-2b,2020.1.3,Win32,60,13297,,,,,,,,,,,,,,,,,,5,,,,,,,0,32,32,32,1,,,,,,,,,,,,,,,,,,,,,,,,,,,,,,,,,,,,
,,,,,,,,,,,,,,,,,,,,,,,,20,Female,2020-11-19_16h02.49.766,torte-2b,2020.1.3,Win32,60,13297,,,,,,,,,,,,space,,,,,,7,0.320725,,,,,,0,33,33,33,1,,,,,,,,,,,,,,,,,,,,,,,,,,,,,,,,,,,,
,,,,,,,,,,,,,,,,,,,,,,,,20,Female,2020-11-19_16h02.49.766,torte-2b,2020.1.3,Win32,60,13297,,,,,,,,,,,,,,,,,,2,,,,,,,0,34,34,34,1,,,,,,,,,,,,,,,,,,,,,,,,,,,,,,,,,,,,
,,,,,,,,,,,,,,,,,,,,,,,,20,Female,2020-11-19_16h02.49.766,torte-2b,2020.1.3,Win32,60,13297,,,,,,,,,,,,,,,,,,3,,,,,,,,,,,,0,0,0,0,1,,,,,,,,,,,,,,,,,,,,,,,,,,,,,,,
,,,,,,,,,,,,,,,,,,,,,,,,20,Female,2020-11-19_16h02.49.766,torte-2b,2020.1.3,Win32,60,13297,,,,,,,,,,,,,,,,,,7,,,,,,,,,,,,0,1,1,1,1,,,,,,,,,,,,,,,,,,,,,,,,,,,,,,,
,,,,,,,,,,,,,,,,,,,,,,,,20,Female,2020-11-19_16h02.49.766,torte-2b,2020.1.3,Win32,60,13297,,,,,,,,,,,,space,,,,,,7,0.26914,,,,,,,,,,,0,2,2,2,1,,,,,,,,,,,,,,,,,,,,,,,,,,,,,,,
,,,,,,,,,,,,,,,,,,,,,,,,20,Female,2020-11-19_16h02.49.766,torte-2b,2020.1.3,Win32,60,13297,,,,,,,,,,,,,,,,,,4,,,,,,,,,,,,0,3,3,3,1,,,,,,,,,,,,,,,,,,,,,,,,,,,,,,,
,,,,,,,,,,,,,,,,,,,,,,,,20,Female,2020-11-19_16h02.49.766,torte-2b,2020.1.3,Win32,60,13297,,,,,,,,,,,,,,,,,,5,,,,,,,,,,,,0,4,4,4,1,,,,,,,,,,,,,,,,,,,,,,,,,,,,,,,
,,,,,,,,,,,,,,,,,,,,,,,,20,Female,2020-11-19_16h02.49.766,torte-2b,2020.1.3,Win32,60,13297,,,,,,,,,,,,space,,,,,,4,0.35123,,,,,,,,,,,0,5,5,5,1,,,,,,,,,,,,,,,,,,,,,,,,,,,,,,,
,,,,,,,,,,,,,,,,,,,,,,,,20,Female,2020-11-19_16h02.49.766,torte-2b,2020.1.3,Win32,60,13297,,,,,,,,,,,,,,,,,,2,,,,,,,,,,,,0,6,6,6,1,,,,,,,,,,,,,,,,,,,,,,,,,,,,,,,
,,,,,,,,,,,,,,,,,,,,,,,,20,Female,2020-11-19_16h02.49.766,torte-2b,2020.1.3,Win32,60,13297,,,,,,,,,,,,space,,,,,,4,0.31193,,,,,,,,,,,0,7,7,7,1,,,,,,,,,,,,,,,,,,,,,,,,,,,,,,,
,,,,,,,,,,,,,,,,,,,,,,,,20,Female,2020-11-19_16h02.49.766,torte-2b,2020.1.3,Win32,60,13297,,,,,,,,,,,,space,,,,,,2,0.34268,,,,,,,,,,,0,8,8,8,1,,,,,,,,,,,,,,,,,,,,,,,,,,,,,,,
,,,,,,,,,,,,,,,,,,,,,,,,20,Female,2020-11-19_16h02.49.766,torte-2b,2020.1.3,Win32,60,13297,,,,,,,,,,,,space,,,,,,2,0.329465,,,,,,,,,,,0,9,9,9,1,,,,,,,,,,,,,,,,,,,,,,,,,,,,,,,
,,,,,,,,,,,,,,,,,,,,,,,,20,Female,2020-11-19_16h02.49.766,torte-2b,2020.1.3,Win32,60,13297,,,,,,,,,,,,,,,,,,6,,,,,,,,,,,,0,10,10,10,1,,,,,,,,,,,,,,,,,,,,,,,,,,,,,,,
,,,,,,,,,,,,,,,,,,,,,,,,20,Female,2020-11-19_16h02.49.766,torte-2b,2020.1.3,Win32,60,13297,,,,,,,,,,,,space,,,,,,2,0.346425,,,,,,,,,,,0,11,11,11,1,,,,,,,,,,,,,,,,,,,,,,,,,,,,,,,
,,,,,,,,,,,,,,,,,,,,,,,,20,Female,2020-11-19_16h02.49.766,torte-2b,2020.1.3,Win32,60,13297,,,,,,,,,,,,,,,,,,2,,,,,,,,,,,,0,12,12,12,1,,,,,,,,,,,,,,,,,,,,,,,,,,,,,,,
,,,,,,,,,,,,,,,,,,,,,,,,20,Female,2020-11-19_16h02.49.766,torte-2b,2020.1.3,Win32,60,13297,,,,,,,,,,,,space,,,,,,2,0.29524,,,,,,,,,,,0,13,13,13,1,,,,,,,,,,,,,,,,,,,,,,,,,,,,,,,
,,,,,,,,,,,,,,,,,,,,,,,,20,Female,2020-11-19_16h02.49.766,torte-2b,2020.1.3,Win32,60,13297,,,,,,,,,,,,space,,,,,,2,0.242025,,,,,,,,,,,0,14,14,14,1,,,,,,,,,,,,,,,,,,,,,,,,,,,,,,,
,,,,,,,,,,,,,,,,,,,,,,,,20,Female,2020-11-19_16h02.49.766,torte-2b,2020.1.3,Win32,60,13297,,,,,,,,,,,,space,,,,,,4,0.228605,,,,,,,,,,,0,15,15,15,1,,,,,,,,,,,,,,,,,,,,,,,,,,,,,,,
,,,,,,,,,,,,,,,,,,,,,,,,20,Female,2020-11-19_16h02.49.766,torte-2b,2020.1.3,Win32,60,13297,,,,,,,,,,,,,,,,,,3,,,,,,,,,,,,0,16,16,16,1,,,,,,,,,,,,,,,,,,,,,,,,,,,,,,,
,,,,,,,,,,,,,,,,,,,,,,,,20,Female,2020-11-19_16h02.49.766,torte-2b,2020.1.3,Win32,60,13297,,,,,,,,,,,,space,,,,,,7,0.334105,,,,,,,,,,,0,17,17,17,1,,,,,,,,,,,,,,,,,,,,,,,,,,,,,,,
,,,,,,,,,,,,,,,,,,,,,,,,20,Female,2020-11-19_16h02.49.766,torte-2b,2020.1.3,Win32,60,13297,,,,,,,,,,,,,,,,,,4,,,,,,,,,,,,0,18,18,18,1,,,,,,,,,,,,,,,,,,,,,,,,,,,,,,,
,,,,,,,,,,,,,,,,,,,,,,,,20,Female,2020-11-19_16h02.49.766,torte-2b,2020.1.3,Win32,60,13297,,,,,,,,,,,,space,,,,,,7,0.36364,,,,,,,,,,,0,19,19,19,1,,,,,,,,,,,,,,,,,,,,,,,,,,,,,,,
,,,,,,,,,,,,,,,,,,,,,,,,20,Female,2020-11-19_16h02.49.766,torte-2b,2020.1.3,Win32,60,13297,,,,,,,,,,,,,,,,,,7,,,,,,,,,,,,0,20,20,20,1,,,,,,,,,,,,,,,,,,,,,,,,,,,,,,,
,,,,,,,,,,,,,,,,,,,,,,,,20,Female,2020-11-19_16h02.49.766,torte-2b,2020.1.3,Win32,60,13297,,,,,,,,,,,,space,,,,,,7,0.28396,,,,,,,,,,,0,21,21,21,1,,,,,,,,,,,,,,,,,,,,,,,,,,,,,,,
,,,,,,,,,,,,,,,,,,,,,,,,20,Female,2020-11-19_16h02.49.766,torte-2b,2020.1.3,Win32,60,13297,,,,,,,,,,,,space,,,,,,7,0.228975,,,,,,,,,,,0,22,22,22,1,,,,,,,,,,,,,,,,,,,,,,,,,,,,,,,
,,,,,,,,,,,,,,,,,,,,,,,,20,Female,2020-11-19_16h02.49.766,torte-2b,2020.1.3,Win32,60,13297,,,,,,,,,,,,space,,,,,,1,0.21992,,,,,,,,,,,0,23,23,23,1,,,,,,,,,,,,,,,,,,,,,,,,,,,,,,,
,,,,,,,,,,,,,,,,,,,,,,,,20,Female,2020-11-19_16h02.49.766,torte-2b,2020.1.3,Win32,60,13297,,,,,,,,,,,,space,,,,,,7,0.354875,,,,,,,,,,,0,24,24,24,1,,,,,,,,,,,,,,,,,,,,,,,,,,,,,,,
,,,,,,,,,,,,,,,,,,,,,,,,20,Female,2020-11-19_16h02.49.766,torte-2b,2020.1.3,Win32,60,13297,,,,,,,,,,,,space,,,,,,1,0.412045,,,,,,,,,,,0,25,25,25,1,,,,,,,,,,,,,,,,,,,,,,,,,,,,,,,
,,,,,,,,,,,,,,,,,,,,,,,,20,Female,2020-11-19_16h02.49.766,torte-2b,2020.1.3,Win32,60,13297,,,,,,,,,,,,space,,,,,,7,0.517695,,,,,,,,,,,0,26,26,26,1,,,,,,,,,,,,,,,,,,,,,,,,,,,,,,,
,,,,,,,,,,,,,,,,,,,,,,,,20,Female,2020-11-19_16h02.49.766,torte-2b,2020.1.3,Win32,60,13297,,,,,,,,,,,,space,,,,,,2,0.514135,,,,,,,,,,,0,27,27,27,1,,,,,,,,,,,,,,,,,,,,,,,,,,,,,,,
,,,,,,,,,,,,,,,,,,,,,,,,20,Female,2020-11-19_16h02.49.766,torte-2b,2020.1.3,Win32,60,13297,,,,,,,,,,,,space,,,,,,5,0.09202,,,,,,,,,,,0,28,28,28,1,,,,,,,,,,,,,,,,,,,,,,,,,,,,,,,
,,,,,,,,,,,,,,,,,,,,,,,,20,Female,2020-11-19_16h02.49.766,torte-2b,2020.1.3,Win32,60,13297,,,,,,,,,,,,,,,,,,5,,,,,,,,,,,,0,29,29,29,1,,,,,,,,,,,,,,,,,,,,,,,,,,,,,,,
,,,,,,,,,,,,,,,,,,,,,,,,20,Female,2020-11-19_16h02.49.766,torte-2b,2020.1.3,Win32,60,13297,,,,,,,,,,,,space,,,,,,5,0.24034,,,,,,,,,,,0,30,30,30,1,,,,,,,,,,,,,,,,,,,,,,,,,,,,,,,
,,,,,,,,,,,,,,,,,,,,,,,,20,Female,2020-11-19_16h02.49.766,torte-2b,2020.1.3,Win32,60,13297,,,,,,,,,,,,,,,,,,1,,,,,,,,,,,,0,31,31,31,1,,,,,,,,,,,,,,,,,,,,,,,,,,,,,,,
,,,,,,,,,,,,,,,,,,,,,,,,20,Female,2020-11-19_16h02.49.766,torte-2b,2020.1.3,Win32,60,13297,,,,,,,,,,,,space,,,,,,5,0.36238,,,,,,,,,,,0,32,32,32,1,,,,,,,,,,,,,,,,,,,,,,,,,,,,,,,
,,,,,,,,,,,,,,,,,,,,,,,,20,Female,2020-11-19_16h02.49.766,torte-2b,2020.1.3,Win32,60,13297,,,,,,,,,,,,,,,,,,3,,,,,,,,,,,,0,33,33,33,1,,,,,,,,,,,,,,,,,,,,,,,,,,,,,,,
,,,,,,,,,,,,,,,,,,,,,,,,20,Female,2020-11-19_16h02.49.766,torte-2b,2020.1.3,Win32,60,13297,,,,,,,,,,,,,,,,,,3,,,,,,,,,,,,0,34,34,34,1,,,,,,,,,,,,,,,,,,,,,,,,,,,,,,,
,,,,,,,,,,,,a,0.634135,Incorrect,,,,,,t5.png,t3.png,2,0.056466,20,Female,2020-11-19_16h02.49.766,torte-2b,2020.1.3,Win32,60,13297,space,1.13382,,,,,,,,,,,,,,,,,,,,,,,,,,,,,,,,,space,3.892925,0,0,0,108,1,,,,,,,,,,,,,,,,,,,,,,,,
,,,,,,,,,,,,a,0.433965,Incorrect,,,,,,t5.png,t2.png,3,0.0000131,20,Female,2020-11-19_16h02.49.766,torte-2b,2020.1.3,Win32,60,13297,,,,,,,,,,,,,,,,,,,,,,,,,,,,,,,,,,,,,0,1,1,91,1,,,,,,,,,,,,,,,,,,,,,,,,
,,,,,,,,,,,,l,0.41713,Incorrect,,,,,,t3.png,t4.png,1,0.909,20,Female,2020-11-19_16h02.49.766,torte-2b,2020.1.3,Win32,60,13297,,,,,,,,,,,,,,,,,,,,,,,,,,,,,,,,,,,,,0,2,2,89,1,,,,,,,,,,,,,,,,,,,,,,,,
,,,,,,,,,,,,l,0.36737,Incorrect,,,,,,t3.png,t4.png,1,0.90855,20,Female,2020-11-19_16h02.49.766,torte-2b,2020.1.3,Win32,60,13297,,,,,,,,,,,,,,,,,,,,,,,,,,,,,,,,,,,,,0,3,3,84,1,,,,,,,,,,,,,,,,,,,,,,,,
,,,,,,,,,,,,l,0.28438,Correct!,,,,,,t4.png,t2.png,2,0.059078,20,Female,2020-11-19_16h02.49.766,torte-2b,2020.1.3,Win32,60,13297,,,,,,,,,,,,,,,,,,,,,,,,,,,,,,,,,,,,,0,4,4,88,1,,,,,,,,,,,,,,,,,,,,,,,,
,,,,,,,,,,,,a,0.23396,Correct!,,,,,,t4.png,t5.png,1,0.9,20,Female,2020-11-19_16h02.49.766,torte-2b,2020.1.3,Win32,60,13297,,,,,,,,,,,,,,,,,,,,,,,,,,,,,,,,,,,,,0,5,5,115,1,,,,,,,,,,,,,,,,,,,,,,,,
,,,,,,,,,,,,l,0.15029,Correct!,,,,,,t5.png,t1.png,4,9.55E-11,20,Female,2020-11-19_16h02.49.766,torte-2b,2020.1.3,Win32,60,13297,,,,,,,,,,,,,,,,,,,,,,,,,,,,,,,,,,,,,0,6,6,22,1,,,,,,,,,,,,,,,,,,,,,,,,
,,,,,,,,,,,,a,0.0238,Incorrect,,,,,,t5.png,t3.png,2,0.056466,20,Female,2020-11-19_16h02.49.766,torte-2b,2020.1.3,Win32,60,13297,,,,,,,,,,,,,,,,,,,,,,,,,,,,,,,,,,,,,0,7,7,114,1,,,,,,,,,,,,,,,,,,,,,,,,
,,,,,,,,,,,,l,0.088535,Correct!,,,,,,t1.png,t5.png,4,9.55E-11,20,Female,2020-11-19_16h02.49.766,torte-2b,2020.1.3,Win32,60,13297,,,,,,,,,,,,,,,,,,,,,,,,,,,,,,,,,,,,,0,8,8,85,1,,,,,,,,,,,,,,,,,,,,,,,,
,,,,,,,,,,,,a,0.542235,Correct!,,,,,,t1.png,t1.png,0,0.97829,20,Female,2020-11-19_16h02.49.766,torte-2b,2020.1.3,Win32,60,13297,,,,,,,,,,,,,,,,,,,,,,,,,,,,,,,,,,,,,0,9,9,9,1,,,,,,,,,,,,,,,,,,,,,,,,
,,,,,,,,,,,,a,0.28386,Correct!,,,,,,t5.png,t4.png,1,0.90025,20,Female,2020-11-19_16h02.49.766,torte-2b,2020.1.3,Win32,60,13297,,,,,,,,,,,,,,,,,,,,,,,,,,,,,,,,,,,,,0,10,10,27,1,,,,,,,,,,,,,,,,,,,,,,,,
,,,,,,,,,,,,a,0.570025,Incorrect,,,,,,t3.png,t5.png,2,0.056466,20,Female,2020-11-19_16h02.49.766,torte-2b,2020.1.3,Win32,60,13297,,,,,,,,,,,,,,,,,,,,,,,,,,,,,,,,,,,,,0,11,11,14,1,,,,,,,,,,,,,,,,,,,,,,,,
,,,,,,,,,,,,a,0.6176,Incorrect,,,,,,t3.png,t5.png,2,0.056466,20,Female,2020-11-19_16h02.49.766,torte-2b,2020.1.3,Win32,60,13297,,,,,,,,,,,,,,,,,,,,,,,,,,,,,,,,,,,,,0,12,12,6,1,,,,,,,,,,,,,,,,,,,,,,,,
,,,,,,,,,,,,l,1.01686,Correct!,,,,,,t5.png,t3.png,2,0.056466,20,Female,2020-11-19_16h02.49.766,torte-2b,2020.1.3,Win32,60,13297,,,,,,,,,,,,,,,,,,,,,,,,,,,,,,,,,,,,,0,13,13,38,1,,,,,,,,,,,,,,,,,,,,,,,,
,,,,,,,,,,,,l,0.800595,Incorrect,,,,,,t4.png,t4.png,0,0.98115,20,Female,2020-11-19_16h02.49.766,torte-2b,2020.1.3,Win32,60,13297,,,,,,,,,,,,,,,,,,,,,,,,,,,,,,,,,,,,,0,14,14,80,1,,,,,,,,,,,,,,,,,,,,,,,,
,,,,,,,,,,,,l,1.10689,Correct!,,,,,,t3.png,t1.png,2,0.056466,20,Female,2020-11-19_16h02.49.766,torte-2b,2020.1.3,Win32,60,13297,,,,,,,,,,,,,,,,,,,,,,,,,,,,,,,,,,,,,0,15,15,0,1,,,,,,,,,,,,,,,,,,,,,,,,
,,,,,,,,,,,,l,0.918835,Incorrect,,,,,,t4.png,t5.png,1,0.90025,20,Female,2020-11-19_16h02.49.766,torte-2b,2020.1.3,Win32,60,13297,,,,,,,,,,,,,,,,,,,,,,,,,,,,,,,,,,,,,0,16,16,113,1,,,,,,,,,,,,,,,,,,,,,,,,
,,,,,,,,,,,,a,0.06694,Correct!,,,,,,t5.png,t5.png,0,0.97829,20,Female,2020-11-19_16h02.49.766,torte-2b,2020.1.3,Win32,60,13297,,,,,,,,,,,,,,,,,,,,,,,,,,,,,,,,,,,,,0,17,17,70,1,,,,,,,,,,,,,,,,,,,,,,,,
,,,,,,,,,,,,l,1.083515,Correct!,,,,,,t5.png,t2.png,3,0.0000131,20,Female,2020-11-19_16h02.49.766,torte-2b,2020.1.3,Win32,60,13297,,,,,,,,,,,,,,,,,,,,,,,,,,,,,,,,,,,,,0,18,18,98,1,,,,,,,,,,,,,,,,,,,,,,,,
,,,,,,,,,,,,a,1.217005,Incorrect,,,,,,t5.png,t2.png,3,0.0000131,20,Female,2020-11-19_16h02.49.766,torte-2b,2020.1.3,Win32,60,13297,,,,,,,,,,,,,,,,,,,,,,,,,,,,,,,,,,,,,0,19,19,116,1,,,,,,,,,,,,,,,,,,,,,,,,
,,,,,,,,,,,,l,0.69366,Incorrect,,,,,,t5.png,t5.png,0,0.97829,20,Female,2020-11-19_16h02.49.766,torte-2b,2020.1.3,Win32,60,13297,,,,,,,,,,,,,,,,,,,,,,,,,,,,,,,,,,,,,0,20,20,94,1,,,,,,,,,,,,,,,,,,,,,,,,
,,,,,,,,,,,,a,0.88368,Incorrect,,,,,,t2.png,t5.png,3,0.0000131,20,Female,2020-11-19_16h02.49.766,torte-2b,2020.1.3,Win32,60,13297,,,,,,,,,,,,,,,,,,,,,,,,,,,,,,,,,,,,,0,21,21,8,1,,,,,,,,,,,,,,,,,,,,,,,,
,,,,,,,,,,,,l,0.91718,Incorrect,,,,,,t1.png,t1.png,0,0.97829,20,Female,2020-11-19_16h02.49.766,torte-2b,2020.1.3,Win32,60,13297,,,,,,,,,,,,,,,,,,,,,,,,,,,,,,,,,,,,,0,22,22,78,1,,,,,,,,,,,,,,,,,,,,,,,,
,,,,,,,,,,,,a,1.278395,Correct!,,,,,,t2.png,t1.png,1,0.90025,20,Female,2020-11-19_16h02.49.766,torte-2b,2020.1.3,Win32,60,13297,,,,,,,,,,,,,,,,,,,,,,,,,,,,,,,,,,,,,0,23,23,4,1,,,,,,,,,,,,,,,,,,,,,,,,
,,,,,,,,,,,,a,0.72727,Correct!,,,,,,t1.png,t2.png,1,0.90025,20,Female,2020-11-19_16h02.49.766,torte-2b,2020.1.3,Win32,60,13297,,,,,,,,,,,,,,,,,,,,,,,,,,,,,,,,,,,,,0,24,24,105,1,,,,,,,,,,,,,,,,,,,,,,,,
,,,,,,,,,,,,a,0.905755,Correct!,,,,,,t4.png,t3.png,1,0.90855,20,Female,2020-11-19_16h02.49.766,torte-2b,2020.1.3,Win32,60,13297,,,,,,,,,,,,,,,,,,,,,,,,,,,,,,,,,,,,,0,25,25,45,1,,,,,,,,,,,,,,,,,,,,,,,,
,,,,,,,,,,,,l,0.88415,Correct!,,,,,,t5.png,t2.png,3,0.0000131,20,Female,2020-11-19_16h02.49.766,torte-2b,2020.1.3,Win32,60,13297,,,,,,,,,,,,,,,,,,,,,,,,,,,,,,,,,,,,,0,26,26,119,1,,,,,,,,,,,,,,,,,,,,,,,,
,,,,,,,,,,,,a,0.70057,Correct!,,,,,,t4.png,t4.png,0,0.98115,20,Female,2020-11-19_16h02.49.766,torte-2b,2020.1.3,Win32,60,13297,,,,,,,,,,,,,,,,,,,,,,,,,,,,,,,,,,,,,0,27,27,52,1,,,,,,,,,,,,,,,,,,,,,,,,
,,,,,,,,,,,,a,1.100765,Incorrect,,,,,,t2.png,t4.png,2,0.0591,20,Female,2020-11-19_16h02.49.766,torte-2b,2020.1.3,Win32,60,13297,,,,,,,,,,,,,,,,,,,,,,,,,,,,,,,,,,,,,0,28,28,15,1,,,,,,,,,,,,,,,,,,,,,,,,
,,,,,,,,,,,,l,0.56696,Correct!,,,,,,t4.png,t1.png,3,0.0000131,20,Female,2020-11-19_16h02.49.766,torte-2b,2020.1.3,Win32,60,13297,,,,,,,,,,,,,,,,,,,,,,,,,,,,,,,,,,,,,0,29,29,93,1,,,,,,,,,,,,,,,,,,,,,,,,
,,,,,,,,,,,,l,0.711045,Correct!,,,,,,t3.png,t1.png,2,0.056466,20,Female,2020-11-19_16h02.49.766,torte-2b,2020.1.3,Win32,60,13297,,,,,,,,,,,,,,,,,,,,,,,,,,,,,,,,,,,,,0,30,30,64,1,,,,,,,,,,,,,,,,,,,,,,,,
,,,,,,,,,,,,a,1.111485,Incorrect,,,,,,t4.png,t2.png,2,0.059078,20,Female,2020-11-19_16h02.49.766,torte-2b,2020.1.3,Win32,60,13297,,,,,,,,,,,,,,,,,,,,,,,,,,,,,,,,,,,,,0,31,31,110,1,,,,,,,,,,,,,,,,,,,,,,,,
,,,,,,,,,,,,l,0.41698,Correct!,,,,,,t5.png,t1.png,4,9.55E-11,20,Female,2020-11-19_16h02.49.766,torte-2b,2020.1.3,Win32,60,13297,,,,,,,,,,,,,,,,,,,,,,,,,,,,,,,,,,,,,0,32,32,100,1,,,,,,,,,,,,,,,,,,,,,,,,
,,,,,,,,,,,,l,0.46721,Correct!,,,,,,t4.png,t1.png,3,0.0000131,20,Female,2020-11-19_16h02.49.766,torte-2b,2020.1.3,Win32,60,13297,,,,,,,,,,,,,,,,,,,,,,,,,,,,,,,,,,,,,0,33,33,13,1,,,,,,,,,,,,,,,,,,,,,,,,
,,,,,,,,,,,,l,0.517095,Incorrect,,,,,,t5.png,t4.png,1,0.9,20,Female,2020-11-19_16h02.49.766,torte-2b,2020.1.3,Win32,60,13297,,,,,,,,,,,,,,,,,,,,,,,,,,,,,,,,,,,,,0,34,34,76,1,,,,,,,,,,,,,,,,,,,,,,,,
,,,,,,,,,,,,a,0.18397,Incorrect,,,,,,t5.png,t2.png,3,0.0000131,20,Female,2020-11-19_16h02.49.766,torte-2b,2020.1.3,Win32,60,13297,,,,,,,,,,,,,,,,,,,,,,,,,,,,,,,,,,,,,0,35,35,51,1,,,,,,,,,,,,,,,,,,,,,,,,
,,,,,,,,,,,,a,0.134915,Correct!,,,,,,t1.png,t2.png,1,0.90025,20,Female,2020-11-19_16h02.49.766,torte-2b,2020.1.3,Win32,60,13297,,,,,,,,,,,,,,,,,,,,,,,,,,,,,,,,,,,,,0,36,36,72,1,,,,,,,,,,,,,,,,,,,,,,,,
,,,,,,,,,,,,l,0.117195,Correct!,,,,,,t4.png,t2.png,2,0.059078,20,Female,2020-11-19_16h02.49.766,torte-2b,2020.1.3,Win32,60,13297,,,,,,,,,,,,,,,,,,,,,,,,,,,,,,,,,,,,,0,37,37,86,1,,,,,,,,,,,,,,,,,,,,,,,,
,,,,,,,,,,,,a,0.287135,Incorrect,,,,,,t2.png,t5.png,3,0.0000131,20,Female,2020-11-19_16h02.49.766,torte-2b,2020.1.3,Win32,60,13297,,,,,,,,,,,,,,,,,,,,,,,,,,,,,,,,,,,,,0,38,38,66,1,,,,,,,,,,,,,,,,,,,,,,,,
,,,,,,,,,,,,l,0.53402,Correct!,,,,,,t1.png,t4.png,3,0.0000131,20,Female,2020-11-19_16h02.49.766,torte-2b,2020.1.3,Win32,60,13297,,,,,,,,,,,,,,,,,,,,,,,,,,,,,,,,,,,,,0,39,39,17,1,,,,,,,,,,,,,,,,,,,,,,,,
,,,,,,,,,,,,l,0.46989,Incorrect,,,,,,t4.png,t4.png,0,0.98115,20,Female,2020-11-19_16h02.49.766,torte-2b,2020.1.3,Win32,60,13297,,,,,,,,,,,,,,,,,,,,,,,,,,,,,,,,,,,,,0,40,40,90,1,,,,,,,,,,,,,,,,,,,,,,,,
,,,,,,,,,,,,a,0.84254,Incorrect,,,,,,t1.png,t3.png,2,0.056466,20,Female,2020-11-19_16h02.49.766,torte-2b,2020.1.3,Win32,60,13297,,,,,,,,,,,,,,,,,,,,,,,,,,,,,,,,,,,,,0,41,41,60,1,,,,,,,,,,,,,,,,,,,,,,,,
,,,,,,,,,,,,l,0.32622,Incorrect,,,,,,t2.png,t3.png,1,0.90855,20,Female,2020-11-19_16h02.49.766,torte-2b,2020.1.3,Win32,60,13297,,,,,,,,,,,,,,,,,,,,,,,,,,,,,,,,,,,,,0,42,42,65,1,,,,,,,,,,,,,,,,,,,,,,,,
,,,,,,,,,,,,a,0.034215,Correct!,,,,,,t1.png,t1.png,0,0.97829,20,Female,2020-11-19_16h02.49.766,torte-2b,2020.1.3,Win32,60,13297,,,,,,,,,,,,,,,,,,,,,,,,,,,,,,,,,,,,,0,43,43,67,1,,,,,,,,,,,,,,,,,,,,,,,,
,,,,,,,,,,,,l,0.433995,Incorrect,,,,,,t2.png,t1.png,1,0.9,20,Female,2020-11-19_16h02.49.766,torte-2b,2020.1.3,Win32,60,13297,,,,,,,,,,,,,,,,,,,,,,,,,,,,,,,,,,,,,0,44,44,118,1,,,,,,,,,,,,,,,,,,,,,,,,
,,,,,,,,,,,,l,0.91697,Correct!,,,,,,t1.png,t3.png,2,0.056466,20,Female,2020-11-19_16h02.49.766,torte-2b,2020.1.3,Win32,60,13297,,,,,,,,,,,,,,,,,,,,,,,,,,,,,,,,,,,,,0,45,45,99,1,,,,,,,,,,,,,,,,,,,,,,,,
,,,,,,,,,,,,a,0.867155,Incorrect,,,,,,t1.png,t4.png,3,0.0000131,20,Female,2020-11-19_16h02.49.766,torte-2b,2020.1.3,Win32,60,13297,,,,,,,,,,,,,,,,,,,,,,,,,,,,,,,,,,,,,0,46,46,107,1,,,,,,,,,,,,,,,,,,,,,,,,
,,,,,,,,,,,,l,1.150445,Correct!,,,,,,t4.png,t1.png,3,0.0000131,20,Female,2020-11-19_16h02.49.766,torte-2b,2020.1.3,Win32,60,13297,,,,,,,,,,,,,,,,,,,,,,,,,,,,,,,,,,,,,0,47,47,61,1,,,,,,,,,,,,,,,,,,,,,,,,
,,,,,,,,,,,,l,0.641695,Correct!,,,,,,t2.png,t4.png,2,0.059078,20,Female,2020-11-19_16h02.49.766,torte-2b,2020.1.3,Win32,60,13297,,,,,,,,,,,,,,,,,,,,,,,,,,,,,,,,,,,,,0,48,48,37,1,,,,,,,,,,,,,,,,,,,,,,,,
,,,,,,,,,,,,a,0.26982,Correct!,,,,,,t4.png,t3.png,1,0.90855,20,Female,2020-11-19_16h02.49.766,torte-2b,2020.1.3,Win32,60,13297,,,,,,,,,,,,,,,,,,,,,,,,,,,,,,,,,,,,,0,49,49,35,1,,,,,,,,,,,,,,,,,,,,,,,,
,,,,,,,,,,,,l,0.6742,Incorrect,,,,,,t1.png,t3.png,2,0.056466,20,Female,2020-11-19_16h02.49.766,torte-2b,2020.1.3,Win32,60,13297,,,,,,,,,,,,,,,,,,,,,,,,,,,,,,,,,,,,,0,50,50,63,1,,,,,,,,,,,,,,,,,,,,,,,,
,,,,,,,,,,,,a,1.237265,Correct!,,,,,,t5.png,t4.png,1,0.90025,20,Female,2020-11-19_16h02.49.766,torte-2b,2020.1.3,Win32,60,13297,,,,,,,,,,,,,,,,,,,,,,,,,,,,,,,,,,,,,0,51,51,34,1,,,,,,,,,,,,,,,,,,,,,,,,
,,,,,,,,,,,,a,0.967265,Correct!,,,,,,t4.png,t3.png,1,0.90855,20,Female,2020-11-19_16h02.49.766,torte-2b,2020.1.3,Win32,60,13297,,,,,,,,,,,,,,,,,,,,,,,,,,,,,,,,,,,,,0,52,52,75,1,,,,,,,,,,,,,,,,,,,,,,,,
,,,,,,,,,,,,l,0.65527,Incorrect,,,,,,t2.png,t2.png,0,0.98115,20,Female,2020-11-19_16h02.49.766,torte-2b,2020.1.3,Win32,60,13297,,,,,,,,,,,,,,,,,,,,,,,,,,,,,,,,,,,,,0,53,53,57,1,,,,,,,,,,,,,,,,,,,,,,,,
,,,,,,,,,,,,a,0.59699,Incorrect,,,,,,t5.png,t3.png,2,0.056466,20,Female,2020-11-19_16h02.49.766,torte-2b,2020.1.3,Win32,60,13297,,,,,,,,,,,,,,,,,,,,,,,,,,,,,,,,,,,,,0,54,54,56,1,,,,,,,,,,,,,,,,,,,,,,,,
,,,,,,,,,,,,a,0.68492,Incorrect,,,,,,t3.png,t1.png,2,0.056466,20,Female,2020-11-19_16h02.49.766,torte-2b,2020.1.3,Win32,60,13297,,,,,,,,,,,,,,,,,,,,,,,,,,,,,,,,,,,,,0,55,55,32,1,,,,,,,,,,,,,,,,,,,,,,,,
,,,,,,,,,,,,l,0.647015,Incorrect,,,,,,t3.png,t2.png,1,0.909,20,Female,2020-11-19_16h02.49.766,torte-2b,2020.1.3,Win32,60,13297,,,,,,,,,,,,,,,,,,,,,,,,,,,,,,,,,,,,,0,56,56,3,1,,,,,,,,,,,,,,,,,,,,,,,,
,,,,,,,,,,,,a,0.650945,Incorrect,,,,,,t2.png,t4.png,2,0.059078,20,Female,2020-11-19_16h02.49.766,torte-2b,2020.1.3,Win32,60,13297,,,,,,,,,,,,,,,,,,,,,,,,,,,,,,,,,,,,,0,57,57,24,1,,,,,,,,,,,,,,,,,,,,,,,,
,,,,,,,,,,,,l,0.033865,Incorrect,,,,,,t3.png,t4.png,1,0.90855,20,Female,2020-11-19_16h02.49.766,torte-2b,2020.1.3,Win32,60,13297,,,,,,,,,,,,,,,,,,,,,,,,,,,,,,,,,,,,,0,58,58,96,1,,,,,,,,,,,,,,,,,,,,,,,,
,,,,,,,,,,,,l,0.038995,Incorrect,,,,,,t5.png,t5.png,0,0.97829,20,Female,2020-11-19_16h02.49.766,torte-2b,2020.1.3,Win32,60,13297,,,,,,,,,,,,,,,,,,,,,,,,,,,,,,,,,,,,,0,59,59,73,1,,,,,,,,,,,,,,,,,,,,,,,,
,,,,,,,,,,,,a,0.28699,Correct!,,,,,,t5.png,t5.png,0,0.978,20,Female,2020-11-19_16h02.49.766,torte-2b,2020.1.3,Win32,60,13297,,,,,,,,,,,,,,,,,,,,,,,,,,,,,,,,,,,,,0,60,60,117,1,,,,,,,,,,,,,,,,,,,,,,,,
,,,,,,,,,,,,a,0.467095,Incorrect,,,,,,t5.png,t1.png,4,9.55E-11,20,Female,2020-11-19_16h02.49.766,torte-2b,2020.1.3,Win32,60,13297,,,,,,,,,,,,,,,,,,,,,,,,,,,,,,,,,,,,,0,61,61,71,1,,,,,,,,,,,,,,,,,,,,,,,,
,,,,,,,,,,,,l,0.18412,Incorrect,,,,,,t2.png,t2.png,0,0.98115,20,Female,2020-11-19_16h02.49.766,torte-2b,2020.1.3,Win32,60,13297,,,,,,,,,,,,,,,,,,,,,,,,,,,,,,,,,,,,,0,62,62,2,1,,,,,,,,,,,,,,,,,,,,,,,,
,,,,,,,,,,,,l,0.533855,Incorrect,,,,,,t4.png,t2.png,2,0.0591,20,Female,2020-11-19_16h02.49.766,torte-2b,2020.1.3,Win32,60,13297,,,,,,,,,,,,,,,,,,,,,,,,,,,,,,,,,,,,,0,63,63,36,1,,,,,,,,,,,,,,,,,,,,,,,,
,,,,,,,,,,,,a,0.41816,Incorrect,,,,,,t3.png,t5.png,2,0.056466,20,Female,2020-11-19_16h02.49.766,torte-2b,2020.1.3,Win32,60,13297,,,,,,,,,,,,,,,,,,,,,,,,,,,,,,,,,,,,,0,64,64,44,1,,,,,,,,,,,,,,,,,,,,,,,,
,,,,,,,,,,,,l,0.1685,Incorrect,,,,,,t1.png,t2.png,1,0.90025,20,Female,2020-11-19_16h02.49.766,torte-2b,2020.1.3,Win32,60,13297,,,,,,,,,,,,,,,,,,,,,,,,,,,,,,,,,,,,,0,65,65,33,1,,,,,,,,,,,,,,,,,,,,,,,,
,,,,,,,,,,,,l,0.255245,Correct!,,,,,,t1.png,t3.png,2,0.056466,20,Female,2020-11-19_16h02.49.766,torte-2b,2020.1.3,Win32,60,13297,,,,,,,,,,,,,,,,,,,,,,,,,,,,,,,,,,,,,0,66,66,69,1,,,,,,,,,,,,,,,,,,,,,,,,
,,,,,,,,,,,,l,0.21121,Correct!,,,,,,t1.png,t5.png,4,9.55E-11,20,Female,2020-11-19_16h02.49.766,torte-2b,2020.1.3,Win32,60,13297,,,,,,,,,,,,,,,,,,,,,,,,,,,,,,,,,,,,,0,67,67,41,1,,,,,,,,,,,,,,,,,,,,,,,,
,,,,,,,,,,,,l,0.233955,Correct!,,,,,,t4.png,t2.png,2,0.059078,20,Female,2020-11-19_16h02.49.766,torte-2b,2020.1.3,Win32,60,13297,,,,,,,,,,,,,,,,,,,,,,,,,,,,,,,,,,,,,0,68,68,109,1,,,,,,,,,,,,,,,,,,,,,,,,
,,,,,,,,,,,,a,0.00063,Correct!,,,,,,t4.png,t5.png,1,0.90025,20,Female,2020-11-19_16h02.49.766,torte-2b,2020.1.3,Win32,60,13297,,,,,,,,,,,,,,,,,,,,,,,,,,,,,,,,,,,,,0,69,69,103,1,,,,,,,,,,,,,,,,,,,,,,,,
,,,,,,,,,,,,l,0.618005,Correct!,,,,,,t1.png,t5.png,4,9.55E-11,20,Female,2020-11-19_16h02.49.766,torte-2b,2020.1.3,Win32,60,13297,,,,,,,,,,,,,,,,,,,,,,,,,,,,,,,,,,,,,0,70,70,12,1,,,,,,,,,,,,,,,,,,,,,,,,
,,,,,,,,,,,,a,0.95036,Correct!,,,,,,t1.png,t1.png,0,0.978,20,Female,2020-11-19_16h02.49.766,torte-2b,2020.1.3,Win32,60,13297,,,,,,,,,,,,,,,,,,,,,,,,,,,,,,,,,,,,,0,71,71,54,1,,,,,,,,,,,,,,,,,,,,,,,,
,,,,,,,,,,,,a,0.4734,Incorrect,,,,,,t2.png,t5.png,3,0.0000131,20,Female,2020-11-19_16h02.49.766,torte-2b,2020.1.3,Win32,60,13297,,,,,,,,,,,,,,,,,,,,,,,,,,,,,,,,,,,,,0,72,72,40,1,,,,,,,,,,,,,,,,,,,,,,,,
,,,,,,,,,,,,l,0.24393,Incorrect,,,,,,t2.png,t2.png,0,0.98115,20,Female,2020-11-19_16h02.49.766,torte-2b,2020.1.3,Win32,60,13297,,,,,,,,,,,,,,,,,,,,,,,,,,,,,,,,,,,,,0,73,73,7,1,,,,,,,,,,,,,,,,,,,,,,,,
,,,,,,,,,,,,a,0.50314,Correct!,,,,,,t1.png,t2.png,1,0.9,20,Female,2020-11-19_16h02.49.766,torte-2b,2020.1.3,Win32,60,13297,,,,,,,,,,,,,,,,,,,,,,,,,,,,,,,,,,,,,0,74,74,1,1,,,,,,,,,,,,,,,,,,,,,,,,
,,,,,,,,,,,,a,0.29491,Incorrect,,,,,,t2.png,t4.png,2,0.059078,20,Female,2020-11-19_16h02.49.766,torte-2b,2020.1.3,Win32,60,13297,,,,,,,,,,,,,,,,,,,,,,,,,,,,,,,,,,,,,0,75,75,77,1,,,,,,,,,,,,,,,,,,,,,,,,
,,,,,,,,,,,,l,0.173375,Incorrect,,,,,,t3.png,t2.png,1,0.909,20,Female,2020-11-19_16h02.49.766,torte-2b,2020.1.3,Win32,60,13297,,,,,,,,,,,,,,,,,,,,,,,,,,,,,,,,,,,,,0,76,76,23,1,,,,,,,,,,,,,,,,,,,,,,,,
,,,,,,,,,,,,l,0.33686,Incorrect,,,,,,t5.png,t4.png,1,0.90025,20,Female,2020-11-19_16h02.49.766,torte-2b,2020.1.3,Win32,60,13297,,,,,,,,,,,,,,,,,,,,,,,,,,,,,,,,,,,,,0,77,77,26,1,,,,,,,,,,,,,,,,,,,,,,,,
,,,,,,,,,,,,a,0.000695,Incorrect,,,,,,t2.png,t5.png,3,0.0000131,20,Female,2020-11-19_16h02.49.766,torte-2b,2020.1.3,Win32,60,13297,,,,,,,,,,,,,,,,,,,,,,,,,,,,,,,,,,,,,0,78,78,95,1,,,,,,,,,,,,,,,,,,,,,,,,
,,,,,,,,,,,,a,0.334015,Correct!,,,,,,t2.png,t2.png,0,0.981,20,Female,2020-11-19_16h02.49.766,torte-2b,2020.1.3,Win32,60,13297,,,,,,,,,,,,,,,,,,,,,,,,,,,,,,,,,,,,,0,79,79,101,1,,,,,,,,,,,,,,,,,,,,,,,,
,,,,,,,,,,,,a,0.074485,Correct!,,,,,,t3.png,t2.png,1,0.90855,20,Female,2020-11-19_16h02.49.766,torte-2b,2020.1.3,Win32,60,13297,,,,,,,,,,,,,,,,,,,,,,,,,,,,,,,,,,,,,0,80,80,18,1,,,,,,,,,,,,,,,,,,,,,,,,
,,,,,,,,,,,,l,0.0341,Incorrect,,,,,,t2.png,t1.png,1,0.90025,20,Female,2020-11-19_16h02.49.766,torte-2b,2020.1.3,Win32,60,13297,,,,,,,,,,,,,,,,,,,,,,,,,,,,,,,,,,,,,0,81,81,5,1,,,,,,,,,,,,,,,,,,,,,,,,
,,,,,,,,,,,,a,0.253495,Incorrect,,,,,,t2.png,t3.png,1,0.90855,20,Female,2020-11-19_16h02.49.766,torte-2b,2020.1.3,Win32,60,13297,,,,,,,,,,,,,,,,,,,,,,,,,,,,,,,,,,,,,0,82,82,10,1,,,,,,,,,,,,,,,,,,,,,,,,
,,,,,,,,,,,,l,0.275615,Incorrect,,,,,,t4.png,t3.png,1,0.909,20,Female,2020-11-19_16h02.49.766,torte-2b,2020.1.3,Win32,60,13297,,,,,,,,,,,,,,,,,,,,,,,,,,,,,,,,,,,,,0,83,83,20,1,,,,,,,,,,,,,,,,,,,,,,,,
,,,,,,,,,,,,a,0.04664,Incorrect,,,,,,t5.png,t3.png,2,0.0565,20,Female,2020-11-19_16h02.49.766,torte-2b,2020.1.3,Win32,60,13297,,,,,,,,,,,,,,,,,,,,,,,,,,,,,,,,,,,,,0,84,84,39,1,,,,,,,,,,,,,,,,,,,,,,,,
,,,,,,,,,,,,a,0.00069,Correct!,,,,,,t4.png,t5.png,1,0.90025,20,Female,2020-11-19_16h02.49.766,torte-2b,2020.1.3,Win32,60,13297,,,,,,,,,,,,,,,,,,,,,,,,,,,,,,,,,,,,,0,85,85,58,1,,,,,,,,,,,,,,,,,,,,,,,,
,,,,,,,,,,,,a,0.15039,Correct!,,,,,,t5.png,t4.png,1,0.9,20,Female,2020-11-19_16h02.49.766,torte-2b,2020.1.3,Win32,60,13297,,,,,,,,,,,,,,,,,,,,,,,,,,,,,,,,,,,,,0,86,86,49,1,,,,,,,,,,,,,,,,,,,,,,,,
,,,,,,,,,,,,a,0.406695,Incorrect,,,,,,t4.png,t1.png,3,0.0000131,20,Female,2020-11-19_16h02.49.766,torte-2b,2020.1.3,Win32,60,13297,,,,,,,,,,,,,,,,,,,,,,,,,,,,,,,,,,,,,0,87,87,42,1,,,,,,,,,,,,,,,,,,,,,,,,
,,,,,,,,,,,,a,0.4171,Incorrect,,,,,,t5.png,t1.png,4,9.55E-11,20,Female,2020-11-19_16h02.49.766,torte-2b,2020.1.3,Win32,60,13297,,,,,,,,,,,,,,,,,,,,,,,,,,,,,,,,,,,,,0,88,88,43,1,,,,,,,,,,,,,,,,,,,,,,,,
,,,,,,,,,,,,a,0.490175,Correct!,,,,,,t4.png,t4.png,0,0.98115,20,Female,2020-11-19_16h02.49.766,torte-2b,2020.1.3,Win32,60,13297,,,,,,,,,,,,,,,,,,,,,,,,,,,,,,,,,,,,,0,89,89,21,1,,,,,,,,,,,,,,,,,,,,,,,,
,,,,,,,,,,,,a,0.53392,Incorrect,,,,,,t1.png,t4.png,3,0.0000131,20,Female,2020-11-19_16h02.49.766,torte-2b,2020.1.3,Win32,60,13297,,,,,,,,,,,,,,,,,,,,,,,,,,,,,,,,,,,,,0,90,90,81,1,,,,,,,,,,,,,,,,,,,,,,,,
,,,,,,,,,,,,l,0.45079,Incorrect,,,,,,t1.png,t2.png,1,0.90025,20,Female,2020-11-19_16h02.49.766,torte-2b,2020.1.3,Win32,60,13297,,,,,,,,,,,,,,,,,,,,,,,,,,,,,,,,,,,,,0,91,91,112,1,,,,,,,,,,,,,,,,,,,,,,,,
,,,,,,,,,,,,a,1.30044,Incorrect,,,,,,t5.png,t1.png,4,9.55E-11,20,Female,2020-11-19_16h02.49.766,torte-2b,2020.1.3,Win32,60,13297,,,,,,,,,,,,,,,,,,,,,,,,,,,,,,,,,,,,,0,92,92,102,1,,,,,,,,,,,,,,,,,,,,,,,,
,,,,,,,,,,,,l,0.217335,Correct!,,,,,,t1.png,t4.png,3,0.0000131,20,Female,2020-11-19_16h02.49.766,torte-2b,2020.1.3,Win32,60,13297,,,,,,,,,,,,,,,,,,,,,,,,,,,,,,,,,,,,,0,93,93,92,1,,,,,,,,,,,,,,,,,,,,,,,,
,,,,,,,,,,,,l,0.650275,Incorrect,,,,,,t4.png,t4.png,0,0.98115,20,Female,2020-11-19_16h02.49.766,torte-2b,2020.1.3,Win32,60,13297,,,,,,,,,,,,,,,,,,,,,,,,,,,,,,,,,,,,,0,94,94,79,1,,,,,,,,,,,,,,,,,,,,,,,,
,,,,,,,,,,,,l,0.483805,Correct!,,,,,,t2.png,t5.png,3,0.0000131,20,Female,2020-11-19_16h02.49.766,torte-2b,2020.1.3,Win32,60,13297,,,,,,,,,,,,,,,,,,,,,,,,,,,,,,,,,,,,,0,95,95,104,1,,,,,,,,,,,,,,,,,,,,,,,,
,,,,,,,,,,,,l,0.92984,Incorrect,,,,,,t2.png,t3.png,1,0.90855,20,Female,2020-11-19_16h02.49.766,torte-2b,2020.1.3,Win32,60,13297,,,,,,,,,,,,,,,,,,,,,,,,,,,,,,,,,,,,,0,96,96,111,1,,,,,,,,,,,,,,,,,,,,,,,,
,,,,,,,,,,,,a,0.32492,Correct!,,,,,,t5.png,t5.png,0,0.97829,20,Female,2020-11-19_16h02.49.766,torte-2b,2020.1.3,Win32,60,13297,,,,,,,,,,,,,,,,,,,,,,,,,,,,,,,,,,,,,0,97,97,25,1,,,,,,,,,,,,,,,,,,,,,,,,
,,,,,,,,,,,,l,0.267445,Correct!,,,,,,t1.png,t4.png,3,0.0000131,20,Female,2020-11-19_16h02.49.766,torte-2b,2020.1.3,Win32,60,13297,,,,,,,,,,,,,,,,,,,,,,,,,,,,,,,,,,,,,0,98,98,50,1,,,,,,,,,,,,,,,,,,,,,,,,
,,,,,,,,,,,,a,0.01868,Incorrect,,,,,,t2.png,t3.png,1,0.909,20,Female,2020-11-19_16h02.49.766,torte-2b,2020.1.3,Win32,60,13297,,,,,,,,,,,,,,,,,,,,,,,,,,,,,,,,,,,,,0,99,99,74,1,,,,,,,,,,,,,,,,,,,,,,,,
,,,,,,,,,,,,l,0.26736,Incorrect,,,,,,t1.png,t1.png,0,0.978,20,Female,2020-11-19_16h02.49.766,torte-2b,2020.1.3,Win32,60,13297,,,,,,,,,,,,,,,,,,,,,,,,,,,,,,,,,,,,,0,100,100,28,1,,,,,,,,,,,,,,,,,,,,,,,,
,,,,,,,,,,,,a,0.14765,Correct!,,,,,,t3.png,t2.png,1,0.90855,20,Female,2020-11-19_16h02.49.766,torte-2b,2020.1.3,Win32,60,13297,,,,,,,,,,,,,,,,,,,,,,,,,,,,,,,,,,,,,0,101,101,97,1,,,,,,,,,,,,,,,,,,,,,,,,
,,,,,,,,,,,,a,0.075375,Correct!,,,,,,t2.png,t2.png,0,0.98115,20,Female,2020-11-19_16h02.49.766,torte-2b,2020.1.3,Win32,60,13297,,,,,,,,,,,,,,,,,,,,,,,,,,,,,,,,,,,,,0,102,102,59,1,,,,,,,,,,,,,,,,,,,,,,,,
,,,,,,,,,,,,a,0.166985,Correct!,,,,,,t4.png,t5.png,1,0.90025,20,Female,2020-11-19_16h02.49.766,torte-2b,2020.1.3,Win32,60,13297,,,,,,,,,,,,,,,,,,,,,,,,,,,,,,,,,,,,,0,103,103,47,1,,,,,,,,,,,,,,,,,,,,,,,,
,,,,,,,,,,,,a,0.01812,Incorrect,,,,,,t2.png,t1.png,1,0.90025,20,Female,2020-11-19_16h02.49.766,torte-2b,2020.1.3,Win32,60,13297,,,,,,,,,,,,,,,,,,,,,,,,,,,,,,,,,,,,,0,104,104,19,1,,,,,,,,,,,,,,,,,,,,,,,,
,,,,,,,,,,,,l,0.26282,Incorrect,,,,,,t3.png,t4.png,1,0.909,20,Female,2020-11-19_16h02.49.766,torte-2b,2020.1.3,Win32,60,13297,,,,,,,,,,,,,,,,,,,,,,,,,,,,,,,,,,,,,0,105,105,82,1,,,,,,,,,,,,,,,,,,,,,,,,
,,,,,,,,,,,,l,0.147125,Correct!,,,,,,t1.png,t5.png,4,9.55E-11,20,Female,2020-11-19_16h02.49.766,torte-2b,2020.1.3,Win32,60,13297,,,,,,,,,,,,,,,,,,,,,,,,,,,,,,,,,,,,,0,106,106,55,1,,,,,,,,,,,,,,,,,,,,,,,,
,,,,,,,,,,,,a,0.204525,Incorrect,,,,,,t3.png,t5.png,2,0.0565,20,Female,2020-11-19_16h02.49.766,torte-2b,2020.1.3,Win32,60,13297,,,,,,,,,,,,,,,,,,,,,,,,,,,,,,,,,,,,,0,107,107,83,1,,,,,,,,,,,,,,,,,,,,,,,,
,,,,,,,,,,,,l,0.21165,Correct!,,,,,,t2.png,t4.png,2,0.059078,20,Female,2020-11-19_16h02.49.766,torte-2b,2020.1.3,Win32,60,13297,,,,,,,,,,,,,,,,,,,,,,,,,,,,,,,,,,,,,0,108,108,11,1,,,,,,,,,,,,,,,,,,,,,,,,
,,,,,,,,,,,,l,0.34051,Correct!,,,,,,t3.png,t1.png,2,0.0565,20,Female,2020-11-19_16h02.49.766,torte-2b,2020.1.3,Win32,60,13297,,,,,,,,,,,,,,,,,,,,,,,,,,,,,,,,,,,,,0,109,109,31,1,,,,,,,,,,,,,,,,,,,,,,,,
,,,,,,,,,,,,l,0.23389,Incorrect,,,,,,t3.png,t4.png,1,0.909,20,Female,2020-11-19_16h02.49.766,torte-2b,2020.1.3,Win32,60,13297,,,,,,,,,,,,,,,,,,,,,,,,,,,,,,,,,,,,,0,110,110,106,1,,,,,,,,,,,,,,,,,,,,,,,,
,,,,,,,,,,,,a,0.13383,Incorrect,,,,,,t3.png,t1.png,2,0.056466,20,Female,2020-11-19_16h02.49.766,torte-2b,2020.1.3,Win32,60,13297,,,,,,,,,,,,,,,,,,,,,,,,,,,,,,,,,,,,,0,111,111,29,1,,,,,,,,,,,,,,,,,,,,,,,,
,,,,,,,,,,,,l,0.28355,Correct!,,,,,,t1.png,t3.png,2,0.056466,20,Female,2020-11-19_16h02.49.766,torte-2b,2020.1.3,Win32,60,13297,,,,,,,,,,,,,,,,,,,,,,,,,,,,,,,,,,,,,0,112,112,87,1,,,,,,,,,,,,,,,,,,,,,,,,
,,,,,,,,,,,,a,0.18866,Incorrect,,,,,,t3.png,t5.png,2,0.0565,20,Female,2020-11-19_16h02.49.766,torte-2b,2020.1.3,Win32,60,13297,,,,,,,,,,,,,,,,,,,,,,,,,,,,,,,,,,,,,0,113,113,30,1,,,,,,,,,,,,,,,,,,,,,,,,
,,,,,,,,,,,,l,0.05769,Incorrect,,,,,,t2.png,t1.png,1,0.90025,20,Female,2020-11-19_16h02.49.766,torte-2b,2020.1.3,Win32,60,13297,,,,,,,,,,,,,,,,,,,,,,,,,,,,,,,,,,,,,0,114,114,62,1,,,,,,,,,,,,,,,,,,,,,,,,
,,,,,,,,,,,,l,0.266075,Correct!,,,,,,t1.png,t5.png,4,9.55E-11,20,Female,2020-11-19_16h02.49.766,torte-2b,2020.1.3,Win32,60,13297,,,,,,,,,,,,,,,,,,,,,,,,,,,,,,,,,,,,,0,115,115,16,1,,,,,,,,,,,,,,,,,,,,,,,,
,,,,,,,,,,,,l,0.209355,Incorrect,,,,,,t4.png,t3.png,1,0.909,20,Female,2020-11-19_16h02.49.766,torte-2b,2020.1.3,Win32,60,13297,,,,,,,,,,,,,,,,,,,,,,,,,,,,,,,,,,,,,0,116,116,46,1,,,,,,,,,,,,,,,,,,,,,,,,
,,,,,,,,,,,,a,0.236,Incorrect,,,,,,t2.png,t3.png,1,0.90855,20,Female,2020-11-19_16h02.49.766,torte-2b,2020.1.3,Win32,60,13297,,,,,,,,,,,,,,,,,,,,,,,,,,,,,,,,,,,,,0,117,117,68,1,,,,,,,,,,,,,,,,,,,,,,,,
,,,,,,,,,,,,a,0.144375,Correct!,,,,,,t3.png,t2.png,1,0.90855,20,Female,2020-11-19_16h02.49.766,torte-2b,2020.1.3,Win32,60,13297,,,,,,,,,,,,,,,,,,,,,,,,,,,,,,,,,,,,,0,118,118,53,1,,,,,,,,,,,,,,,,,,,,,,,,
,,,,,,,,,,,,a,0.500695,Incorrect,,,,,,t4.png,t1.png,3,0.0000131,20,Female,2020-11-19_16h02.49.766,torte-2b,2020.1.3,Win32,60,13297,,,,,,,,,,,,,,,,,,,,,,,,,,,,,,,,,,,,,0,119,119,48,1,,,,,,,,,,,,,,,,,,,,,,,,
,,,,,,,,,,,,,,,,,,,,,,,,20,Female,2020-11-19_16h02.49.766,torte-2b,2020.1.3,Win32,60,13297,space,1.323205,,,,,,,,,,,,,,,,,,,,,,,,,,,,,,,,,,,,,,,,-196.7999915,-60.00000733,1,0,0,s5,-115.1999903,88.79999489,1,0,0,t1,148.0000136,-106.400008,1,0,0,proceed,space,0.83394,space,0.28988,space,0.3037
