key_resp_8.keys,key_resp_8.rt,key_resp_9.keys,key_resp_9.rt,key_resp_10.keys,key_resp_10.rt,key_resp_11.keys,key_resp_11.rt,key_resp_2.keys,key_resp_2.rt,key_resp_3.keys,key_resp_3.rt,key_resp.keys,Feedback,train.thisRepN,train.thisTrialN,train.thisN,train.thisIndex,train.ran,torta_sx,torta_dx,difference,probability,age,gender,date,expName,psychopyVersion,OS,frameRate,participant,key_resp.rt,key_resp_15.keys,key_resp_15.rt,key_resp_6.keys,key_resp_6.rt,test1.thisRepN,test1.thisTrialN,test1.thisN,test1.thisIndex,test1.ran,key_resp_4.keys,key_resp_4.rt,key_resp_5.keys,back1.thisRepN,back1.thisTrialN,back1.thisN,back1.thisIndex,back1.ran,letter,key_resp_5.rt,back2.thisRepN,back2.thisTrialN,back2.thisN,back2.thisIndex,back2.ran,back3.thisRepN,back3.thisTrialN,back3.thisN,back3.thisIndex,back3.ran,back4.thisRepN,back4.thisTrialN,back4.thisN,back4.thisIndex,back4.ran,key_resp_7.keys,key_resp_7.rt,test2.thisRepN,test2.thisTrialN,test2.thisN,test2.thisIndex,test2.ran,mouse.x,mouse.y,mouse.leftButton,mouse.midButton,mouse.rightButton,mouse.clicked_name,mouse_2.x,mouse_2.y,mouse_2.leftButton,mouse_2.midButton,mouse_2.rightButton,mouse_2.clicked_name,mouse_3.x,mouse_3.y,mouse_3.leftButton,mouse_3.midButton,mouse_3.rightButton,mouse_3.clicked_name,key_resp_12.keys,key_resp_12.rt,key_resp_13.keys,key_resp_13.rt,key_resp_14.keys,key_resp_14.rt
space,2.368,space,0.99,space,0.595,space,12.323,space,14.184,space,55.749,,Too slow :(,0,0,0,81,1,t1.png,t1.png,0,0.97829,19,Female,2020-09-24_18h08.40.653,torte-2b,2020.1.3,MacIntel,60,13316,,,,,,,,,,,,,,,,,,,,,,,,,,,,,,,,,,,,,,,,,,,,,,,,,,,,,,,,,,,,,,,,,,
,,,,,,,,,,,,,Too slow :(,0,1,1,21,1,t5.png,t4.png,1,0.90025,19,Female,2020-09-24_18h08.40.653,torte-2b,2020.1.3,MacIntel,60,13316,,,,,,,,,,,,,,,,,,,,,,,,,,,,,,,,,,,,,,,,,,,,,,,,,,,,,,,,,,,,,,,,,,
,,,,,,,,,,,,a,Correct!,0,2,2,29,1,t5.png,t5.png,0,0.97829,19,Female,2020-09-24_18h08.40.653,torte-2b,2020.1.3,MacIntel,60,13316,1.799,,,,,,,,,,,,,,,,,,,,,,,,,,,,,,,,,,,,,,,,,,,,,,,,,,,,,,,,,,,,,,,,,
,,,,,,,,,,,,a,Incorrect,0,3,3,56,1,t5.png,t1.png,4,9.55E-11,19,Female,2020-09-24_18h08.40.653,torte-2b,2020.1.3,MacIntel,60,13316,1.064,,,,,,,,,,,,,,,,,,,,,,,,,,,,,,,,,,,,,,,,,,,,,,,,,,,,,,,,,,,,,,,,,
,,,,,,,,,,,,,Too slow :(,0,4,4,67,1,t1.png,t5.png,4,9.55E-11,19,Female,2020-09-24_18h08.40.653,torte-2b,2020.1.3,MacIntel,60,13316,,,,,,,,,,,,,,,,,,,,,,,,,,,,,,,,,,,,,,,,,,,,,,,,,,,,,,,,,,,,,,,,,,
,,,,,,,,,,,,a,Correct!,0,5,5,15,1,t3.png,t2.png,1,0.90855,19,Female,2020-09-24_18h08.40.653,torte-2b,2020.1.3,MacIntel,60,13316,1.653,,,,,,,,,,,,,,,,,,,,,,,,,,,,,,,,,,,,,,,,,,,,,,,,,,,,,,,,,,,,,,,,,
,,,,,,,,,,,,a,Incorrect,0,6,6,85,1,t3.png,t2.png,1,0.90855,19,Female,2020-09-24_18h08.40.653,torte-2b,2020.1.3,MacIntel,60,13316,1.07,,,,,,,,,,,,,,,,,,,,,,,,,,,,,,,,,,,,,,,,,,,,,,,,,,,,,,,,,,,,,,,,,
,,,,,,,,,,,,l,Correct!,0,7,7,90,1,t1.png,t5.png,4,9.55E-11,19,Female,2020-09-24_18h08.40.653,torte-2b,2020.1.3,MacIntel,60,13316,1.001,,,,,,,,,,,,,,,,,,,,,,,,,,,,,,,,,,,,,,,,,,,,,,,,,,,,,,,,,,,,,,,,,
,,,,,,,,,,,,l,Incorrect,0,8,8,10,1,t2.png,t3.png,1,0.90855,19,Female,2020-09-24_18h08.40.653,torte-2b,2020.1.3,MacIntel,60,13316,2.134,,,,,,,,,,,,,,,,,,,,,,,,,,,,,,,,,,,,,,,,,,,,,,,,,,,,,,,,,,,,,,,,,
,,,,,,,,,,,,l,Correct!,0,9,9,54,1,t1.png,t5.png,4,9.55E-11,19,Female,2020-09-24_18h08.40.653,torte-2b,2020.1.3,MacIntel,60,13316,2.384,,,,,,,,,,,,,,,,,,,,,,,,,,,,,,,,,,,,,,,,,,,,,,,,,,,,,,,,,,,,,,,,,
,,,,,,,,,,,,l,Incorrect,0,10,10,39,1,t3.png,t2.png,1,0.90855,19,Female,2020-09-24_18h08.40.653,torte-2b,2020.1.3,MacIntel,60,13316,1.506,,,,,,,,,,,,,,,,,,,,,,,,,,,,,,,,,,,,,,,,,,,,,,,,,,,,,,,,,,,,,,,,,
,,,,,,,,,,,,a,Incorrect,0,11,11,82,1,t5.png,t1.png,4,9.55E-11,19,Female,2020-09-24_18h08.40.653,torte-2b,2020.1.3,MacIntel,60,13316,1.57,,,,,,,,,,,,,,,,,,,,,,,,,,,,,,,,,,,,,,,,,,,,,,,,,,,,,,,,,,,,,,,,,
,,,,,,,,,,,,l,Correct!,0,12,12,1,1,t2.png,t4.png,2,0.059078,19,Female,2020-09-24_18h08.40.653,torte-2b,2020.1.3,MacIntel,60,13316,1.148,,,,,,,,,,,,,,,,,,,,,,,,,,,,,,,,,,,,,,,,,,,,,,,,,,,,,,,,,,,,,,,,,
,,,,,,,,,,,,,Too slow :(,0,13,13,93,1,t2.png,t4.png,2,0.059078,19,Female,2020-09-24_18h08.40.653,torte-2b,2020.1.3,MacIntel,60,13316,,,,,,,,,,,,,,,,,,,,,,,,,,,,,,,,,,,,,,,,,,,,,,,,,,,,,,,,,,,,,,,,,,
,,,,,,,,,,,,l,Incorrect,0,14,14,45,1,t3.png,t2.png,1,0.90855,19,Female,2020-09-24_18h08.40.653,torte-2b,2020.1.3,MacIntel,60,13316,1.05,,,,,,,,,,,,,,,,,,,,,,,,,,,,,,,,,,,,,,,,,,,,,,,,,,,,,,,,,,,,,,,,,
,,,,,,,,,,,,l,Correct!,0,15,15,80,1,t1.png,t4.png,3,0.0000131,19,Female,2020-09-24_18h08.40.653,torte-2b,2020.1.3,MacIntel,60,13316,1.864,,,,,,,,,,,,,,,,,,,,,,,,,,,,,,,,,,,,,,,,,,,,,,,,,,,,,,,,,,,,,,,,,
,,,,,,,,,,,,l,Correct!,0,16,16,4,1,t1.png,t5.png,4,9.55E-11,19,Female,2020-09-24_18h08.40.653,torte-2b,2020.1.3,MacIntel,60,13316,1.413,,,,,,,,,,,,,,,,,,,,,,,,,,,,,,,,,,,,,,,,,,,,,,,,,,,,,,,,,,,,,,,,,
,,,,,,,,,,,,l,Incorrect,0,17,17,63,1,t2.png,t3.png,1,0.909,19,Female,2020-09-24_18h08.40.653,torte-2b,2020.1.3,MacIntel,60,13316,1.831,,,,,,,,,,,,,,,,,,,,,,,,,,,,,,,,,,,,,,,,,,,,,,,,,,,,,,,,,,,,,,,,,
,,,,,,,,,,,,a,Correct!,0,18,18,118,1,t5.png,t5.png,0,0.978,19,Female,2020-09-24_18h08.40.653,torte-2b,2020.1.3,MacIntel,60,13316,1.782,,,,,,,,,,,,,,,,,,,,,,,,,,,,,,,,,,,,,,,,,,,,,,,,,,,,,,,,,,,,,,,,,
,,,,,,,,,,,,l,Incorrect,0,19,19,18,1,t4.png,t5.png,1,0.90025,19,Female,2020-09-24_18h08.40.653,torte-2b,2020.1.3,MacIntel,60,13316,2.115,,,,,,,,,,,,,,,,,,,,,,,,,,,,,,,,,,,,,,,,,,,,,,,,,,,,,,,,,,,,,,,,,
,,,,,,,,,,,,a,Incorrect,0,20,20,94,1,t5.png,t1.png,4,9.55E-11,19,Female,2020-09-24_18h08.40.653,torte-2b,2020.1.3,MacIntel,60,13316,1.181,,,,,,,,,,,,,,,,,,,,,,,,,,,,,,,,,,,,,,,,,,,,,,,,,,,,,,,,,,,,,,,,,
,,,,,,,,,,,,l,Correct!,0,21,21,38,1,t3.png,t1.png,2,0.056466,19,Female,2020-09-24_18h08.40.653,torte-2b,2020.1.3,MacIntel,60,13316,0.965,,,,,,,,,,,,,,,,,,,,,,,,,,,,,,,,,,,,,,,,,,,,,,,,,,,,,,,,,,,,,,,,,
,,,,,,,,,,,,l,Incorrect,0,22,22,95,1,t1.png,t1.png,0,0.978,19,Female,2020-09-24_18h08.40.653,torte-2b,2020.1.3,MacIntel,60,13316,0.737,,,,,,,,,,,,,,,,,,,,,,,,,,,,,,,,,,,,,,,,,,,,,,,,,,,,,,,,,,,,,,,,,
,,,,,,,,,,,,l,Correct!,0,23,23,115,1,t2.png,t4.png,2,0.059078,19,Female,2020-09-24_18h08.40.653,torte-2b,2020.1.3,MacIntel,60,13316,1.82,,,,,,,,,,,,,,,,,,,,,,,,,,,,,,,,,,,,,,,,,,,,,,,,,,,,,,,,,,,,,,,,,
,,,,,,,,,,,,l,Incorrect,0,24,24,112,1,t1.png,t1.png,0,0.97829,19,Female,2020-09-24_18h08.40.653,torte-2b,2020.1.3,MacIntel,60,13316,0.717,,,,,,,,,,,,,,,,,,,,,,,,,,,,,,,,,,,,,,,,,,,,,,,,,,,,,,,,,,,,,,,,,
,,,,,,,,,,,,a,Incorrect,0,25,25,119,1,t1.png,t5.png,4,9.55E-11,19,Female,2020-09-24_18h08.40.653,torte-2b,2020.1.3,MacIntel,60,13316,0.737,,,,,,,,,,,,,,,,,,,,,,,,,,,,,,,,,,,,,,,,,,,,,,,,,,,,,,,,,,,,,,,,,
,,,,,,,,,,,,a,Incorrect,0,26,26,73,1,t4.png,t2.png,2,0.059078,19,Female,2020-09-24_18h08.40.653,torte-2b,2020.1.3,MacIntel,60,13316,0.899,,,,,,,,,,,,,,,,,,,,,,,,,,,,,,,,,,,,,,,,,,,,,,,,,,,,,,,,,,,,,,,,,
,,,,,,,,,,,,l,Incorrect,0,27,27,96,1,t1.png,t1.png,0,0.97829,19,Female,2020-09-24_18h08.40.653,torte-2b,2020.1.3,MacIntel,60,13316,0.55,,,,,,,,,,,,,,,,,,,,,,,,,,,,,,,,,,,,,,,,,,,,,,,,,,,,,,,,,,,,,,,,,
,,,,,,,,,,,,a,Incorrect,0,28,28,103,1,t3.png,t1.png,2,0.056466,19,Female,2020-09-24_18h08.40.653,torte-2b,2020.1.3,MacIntel,60,13316,0.532,,,,,,,,,,,,,,,,,,,,,,,,,,,,,,,,,,,,,,,,,,,,,,,,,,,,,,,,,,,,,,,,,
,,,,,,,,,,,,l,Incorrect,0,29,29,104,1,t2.png,t3.png,1,0.90855,19,Female,2020-09-24_18h08.40.653,torte-2b,2020.1.3,MacIntel,60,13316,0.765,,,,,,,,,,,,,,,,,,,,,,,,,,,,,,,,,,,,,,,,,,,,,,,,,,,,,,,,,,,,,,,,,
,,,,,,,,,,,,l,Correct!,0,30,30,89,1,t1.png,t4.png,3,0.0000131,19,Female,2020-09-24_18h08.40.653,torte-2b,2020.1.3,MacIntel,60,13316,1.365,,,,,,,,,,,,,,,,,,,,,,,,,,,,,,,,,,,,,,,,,,,,,,,,,,,,,,,,,,,,,,,,,
,,,,,,,,,,,,l,Incorrect,0,31,31,78,1,t1.png,t1.png,0,0.978,19,Female,2020-09-24_18h08.40.653,torte-2b,2020.1.3,MacIntel,60,13316,2.473,,,,,,,,,,,,,,,,,,,,,,,,,,,,,,,,,,,,,,,,,,,,,,,,,,,,,,,,,,,,,,,,,
,,,,,,,,,,,,a,Incorrect,0,32,32,100,1,t4.png,t5.png,1,0.90025,19,Female,2020-09-24_18h08.40.653,torte-2b,2020.1.3,MacIntel,60,13316,0.721,,,,,,,,,,,,,,,,,,,,,,,,,,,,,,,,,,,,,,,,,,,,,,,,,,,,,,,,,,,,,,,,,
,,,,,,,,,,,,a,Correct!,0,33,33,109,1,t5.png,t5.png,0,0.97829,19,Female,2020-09-24_18h08.40.653,torte-2b,2020.1.3,MacIntel,60,13316,1.365,,,,,,,,,,,,,,,,,,,,,,,,,,,,,,,,,,,,,,,,,,,,,,,,,,,,,,,,,,,,,,,,,
,,,,,,,,,,,,,Too slow :(,0,34,34,49,1,t4.png,t5.png,1,0.9,19,Female,2020-09-24_18h08.40.653,torte-2b,2020.1.3,MacIntel,60,13316,,,,,,,,,,,,,,,,,,,,,,,,,,,,,,,,,,,,,,,,,,,,,,,,,,,,,,,,,,,,,,,,,,
,,,,,,,,,,,,l,Incorrect,0,35,35,101,1,t4.png,t5.png,1,0.90025,19,Female,2020-09-24_18h08.40.653,torte-2b,2020.1.3,MacIntel,60,13316,1.733,,,,,,,,,,,,,,,,,,,,,,,,,,,,,,,,,,,,,,,,,,,,,,,,,,,,,,,,,,,,,,,,,
,,,,,,,,,,,,a,Correct!,0,36,36,2,1,t3.png,t2.png,1,0.90855,19,Female,2020-09-24_18h08.40.653,torte-2b,2020.1.3,MacIntel,60,13316,0.899,,,,,,,,,,,,,,,,,,,,,,,,,,,,,,,,,,,,,,,,,,,,,,,,,,,,,,,,,,,,,,,,,
,,,,,,,,,,,,l,Correct!,0,37,37,14,1,t2.png,t4.png,2,0.059078,19,Female,2020-09-24_18h08.40.653,torte-2b,2020.1.3,MacIntel,60,13316,1.42,,,,,,,,,,,,,,,,,,,,,,,,,,,,,,,,,,,,,,,,,,,,,,,,,,,,,,,,,,,,,,,,,
,,,,,,,,,,,,a,Correct!,0,38,38,23,1,t5.png,t4.png,1,0.90025,19,Female,2020-09-24_18h08.40.653,torte-2b,2020.1.3,MacIntel,60,13316,2.42,,,,,,,,,,,,,,,,,,,,,,,,,,,,,,,,,,,,,,,,,,,,,,,,,,,,,,,,,,,,,,,,,
,,,,,,,,,,,,a,Correct!,0,39,39,16,1,t5.png,t4.png,1,0.9,19,Female,2020-09-24_18h08.40.653,torte-2b,2020.1.3,MacIntel,60,13316,2.433,,,,,,,,,,,,,,,,,,,,,,,,,,,,,,,,,,,,,,,,,,,,,,,,,,,,,,,,,,,,,,,,,
,,,,,,,,,,,,a,Incorrect,0,40,40,51,1,t3.png,t1.png,2,0.056466,19,Female,2020-09-24_18h08.40.653,torte-2b,2020.1.3,MacIntel,60,13316,2.254,,,,,,,,,,,,,,,,,,,,,,,,,,,,,,,,,,,,,,,,,,,,,,,,,,,,,,,,,,,,,,,,,
,,,,,,,,,,,,l,Correct!,0,41,41,108,1,t5.png,t1.png,4,9.55E-11,19,Female,2020-09-24_18h08.40.653,torte-2b,2020.1.3,MacIntel,60,13316,0.673,,,,,,,,,,,,,,,,,,,,,,,,,,,,,,,,,,,,,,,,,,,,,,,,,,,,,,,,,,,,,,,,,
,,,,,,,,,,,,a,Correct!,0,42,42,7,1,t4.png,t5.png,1,0.90025,19,Female,2020-09-24_18h08.40.653,torte-2b,2020.1.3,MacIntel,60,13316,1.665,,,,,,,,,,,,,,,,,,,,,,,,,,,,,,,,,,,,,,,,,,,,,,,,,,,,,,,,,,,,,,,,,
,,,,,,,,,,,,l,Correct!,0,43,43,102,1,t4.png,t2.png,2,0.059078,19,Female,2020-09-24_18h08.40.653,torte-2b,2020.1.3,MacIntel,60,13316,0.865,,,,,,,,,,,,,,,,,,,,,,,,,,,,,,,,,,,,,,,,,,,,,,,,,,,,,,,,,,,,,,,,,
,,,,,,,,,,,,a,Correct!,0,44,44,62,1,t5.png,t5.png,0,0.978,19,Female,2020-09-24_18h08.40.653,torte-2b,2020.1.3,MacIntel,60,13316,1.257,,,,,,,,,,,,,,,,,,,,,,,,,,,,,,,,,,,,,,,,,,,,,,,,,,,,,,,,,,,,,,,,,
,,,,,,,,,,,,l,Correct!,0,45,45,11,1,t1.png,t4.png,3,0.0000131,19,Female,2020-09-24_18h08.40.653,torte-2b,2020.1.3,MacIntel,60,13316,1.337,,,,,,,,,,,,,,,,,,,,,,,,,,,,,,,,,,,,,,,,,,,,,,,,,,,,,,,,,,,,,,,,,
,,,,,,,,,,,,l,Correct!,0,46,46,117,1,t1.png,t5.png,4,9.55E-11,19,Female,2020-09-24_18h08.40.653,torte-2b,2020.1.3,MacIntel,60,13316,1.415,,,,,,,,,,,,,,,,,,,,,,,,,,,,,,,,,,,,,,,,,,,,,,,,,,,,,,,,,,,,,,,,,
,,,,,,,,,,,,l,Incorrect,0,47,47,114,1,t2.png,t3.png,1,0.90855,19,Female,2020-09-24_18h08.40.653,torte-2b,2020.1.3,MacIntel,60,13316,2.271,,,,,,,,,,,,,,,,,,,,,,,,,,,,,,,,,,,,,,,,,,,,,,,,,,,,,,,,,,,,,,,,,
,,,,,,,,,,,,a,Correct!,0,48,48,76,1,t3.png,t2.png,1,0.90855,19,Female,2020-09-24_18h08.40.653,torte-2b,2020.1.3,MacIntel,60,13316,0.838,,,,,,,,,,,,,,,,,,,,,,,,,,,,,,,,,,,,,,,,,,,,,,,,,,,,,,,,,,,,,,,,,
,,,,,,,,,,,,l,Correct!,0,49,49,61,1,t1.png,t4.png,3,0.0000131,19,Female,2020-09-24_18h08.40.653,torte-2b,2020.1.3,MacIntel,60,13316,2.065,,,,,,,,,,,,,,,,,,,,,,,,,,,,,,,,,,,,,,,,,,,,,,,,,,,,,,,,,,,,,,,,,
,,,,,,,,,,,,,Too slow :(,0,50,50,69,1,t4.png,t2.png,2,0.059078,19,Female,2020-09-24_18h08.40.653,torte-2b,2020.1.3,MacIntel,60,13316,,,,,,,,,,,,,,,,,,,,,,,,,,,,,,,,,,,,,,,,,,,,,,,,,,,,,,,,,,,,,,,,,,
,,,,,,,,,,,,l,Correct!,0,51,51,91,1,t1.png,t4.png,3,0.0000131,19,Female,2020-09-24_18h08.40.653,torte-2b,2020.1.3,MacIntel,60,13316,1.876,,,,,,,,,,,,,,,,,,,,,,,,,,,,,,,,,,,,,,,,,,,,,,,,,,,,,,,,,,,,,,,,,
,,,,,,,,,,,,,Too slow :(,0,52,52,20,1,t2.png,t3.png,1,0.90855,19,Female,2020-09-24_18h08.40.653,torte-2b,2020.1.3,MacIntel,60,13316,,,,,,,,,,,,,,,,,,,,,,,,,,,,,,,,,,,,,,,,,,,,,,,,,,,,,,,,,,,,,,,,,,
,,,,,,,,,,,,a,Correct!,0,53,53,97,1,t5.png,t5.png,0,0.97829,19,Female,2020-09-24_18h08.40.653,torte-2b,2020.1.3,MacIntel,60,13316,1.166,,,,,,,,,,,,,,,,,,,,,,,,,,,,,,,,,,,,,,,,,,,,,,,,,,,,,,,,,,,,,,,,,
,,,,,,,,,,,,a,Incorrect,0,54,54,31,1,t1.png,t5.png,4,9.55E-11,19,Female,2020-09-24_18h08.40.653,torte-2b,2020.1.3,MacIntel,60,13316,1.936,,,,,,,,,,,,,,,,,,,,,,,,,,,,,,,,,,,,,,,,,,,,,,,,,,,,,,,,,,,,,,,,,
,,,,,,,,,,,,a,Correct!,0,55,55,42,1,t5.png,t4.png,1,0.90025,19,Female,2020-09-24_18h08.40.653,torte-2b,2020.1.3,MacIntel,60,13316,1.798,,,,,,,,,,,,,,,,,,,,,,,,,,,,,,,,,,,,,,,,,,,,,,,,,,,,,,,,,,,,,,,,,
,,,,,,,,,,,,,Too slow :(,0,56,56,98,1,t2.png,t4.png,2,0.0591,19,Female,2020-09-24_18h08.40.653,torte-2b,2020.1.3,MacIntel,60,13316,,,,,,,,,,,,,,,,,,,,,,,,,,,,,,,,,,,,,,,,,,,,,,,,,,,,,,,,,,,,,,,,,,
,,,,,,,,,,,,l,Incorrect,0,57,57,59,1,t5.png,t4.png,1,0.9,19,Female,2020-09-24_18h08.40.653,torte-2b,2020.1.3,MacIntel,60,13316,0.841,,,,,,,,,,,,,,,,,,,,,,,,,,,,,,,,,,,,,,,,,,,,,,,,,,,,,,,,,,,,,,,,,
,,,,,,,,,,,,a,Correct!,0,58,58,8,1,t3.png,t2.png,1,0.90855,19,Female,2020-09-24_18h08.40.653,torte-2b,2020.1.3,MacIntel,60,13316,0.438,,,,,,,,,,,,,,,,,,,,,,,,,,,,,,,,,,,,,,,,,,,,,,,,,,,,,,,,,,,,,,,,,
,,,,,,,,,,,,a,Incorrect,0,59,59,27,1,t3.png,t1.png,2,0.0565,19,Female,2020-09-24_18h08.40.653,torte-2b,2020.1.3,MacIntel,60,13316,0.837,,,,,,,,,,,,,,,,,,,,,,,,,,,,,,,,,,,,,,,,,,,,,,,,,,,,,,,,,,,,,,,,,
,,,,,,,,,,,,l,Incorrect,0,60,60,75,1,t1.png,t1.png,0,0.97829,19,Female,2020-09-24_18h08.40.653,torte-2b,2020.1.3,MacIntel,60,13316,1.982,,,,,,,,,,,,,,,,,,,,,,,,,,,,,,,,,,,,,,,,,,,,,,,,,,,,,,,,,,,,,,,,,
,,,,,,,,,,,,a,Correct!,0,61,61,70,1,t5.png,t5.png,0,0.978,19,Female,2020-09-24_18h08.40.653,torte-2b,2020.1.3,MacIntel,60,13316,0.882,,,,,,,,,,,,,,,,,,,,,,,,,,,,,,,,,,,,,,,,,,,,,,,,,,,,,,,,,,,,,,,,,
,,,,,,,,,,,,a,Correct!,0,62,62,65,1,t4.png,t5.png,1,0.90025,19,Female,2020-09-24_18h08.40.653,torte-2b,2020.1.3,MacIntel,60,13316,1.191,,,,,,,,,,,,,,,,,,,,,,,,,,,,,,,,,,,,,,,,,,,,,,,,,,,,,,,,,,,,,,,,,
,,,,,,,,,,,,l,Incorrect,0,63,63,116,1,t5.png,t4.png,1,0.90025,19,Female,2020-09-24_18h08.40.653,torte-2b,2020.1.3,MacIntel,60,13316,1.046,,,,,,,,,,,,,,,,,,,,,,,,,,,,,,,,,,,,,,,,,,,,,,,,,,,,,,,,,,,,,,,,,
,,,,,,,,,,,,a,Incorrect,0,64,64,26,1,t4.png,t2.png,2,0.0591,19,Female,2020-09-24_18h08.40.653,torte-2b,2020.1.3,MacIntel,60,13316,0.872,,,,,,,,,,,,,,,,,,,,,,,,,,,,,,,,,,,,,,,,,,,,,,,,,,,,,,,,,,,,,,,,,
,,,,,,,,,,,,l,Correct!,0,65,65,66,1,t4.png,t5.png,1,0.9,19,Female,2020-09-24_18h08.40.653,torte-2b,2020.1.3,MacIntel,60,13316,2.188,,,,,,,,,,,,,,,,,,,,,,,,,,,,,,,,,,,,,,,,,,,,,,,,,,,,,,,,,,,,,,,,,
,,,,,,,,,,,,a,Incorrect,0,66,66,50,1,t5.png,t1.png,4,9.55E-11,19,Female,2020-09-24_18h08.40.653,torte-2b,2020.1.3,MacIntel,60,13316,0.749,,,,,,,,,,,,,,,,,,,,,,,,,,,,,,,,,,,,,,,,,,,,,,,,,,,,,,,,,,,,,,,,,
,,,,,,,,,,,,l,Correct!,0,67,67,36,1,t3.png,t1.png,2,0.0565,19,Female,2020-09-24_18h08.40.653,torte-2b,2020.1.3,MacIntel,60,13316,0.523,,,,,,,,,,,,,,,,,,,,,,,,,,,,,,,,,,,,,,,,,,,,,,,,,,,,,,,,,,,,,,,,,
,,,,,,,,,,,,a,Incorrect,0,68,68,46,1,t4.png,t2.png,2,0.059078,19,Female,2020-09-24_18h08.40.653,torte-2b,2020.1.3,MacIntel,60,13316,0.665,,,,,,,,,,,,,,,,,,,,,,,,,,,,,,,,,,,,,,,,,,,,,,,,,,,,,,,,,,,,,,,,,
,,,,,,,,,,,,l,Correct!,0,69,69,5,1,t2.png,t4.png,2,0.059078,19,Female,2020-09-24_18h08.40.653,torte-2b,2020.1.3,MacIntel,60,13316,0.566,,,,,,,,,,,,,,,,,,,,,,,,,,,,,,,,,,,,,,,,,,,,,,,,,,,,,,,,,,,,,,,,,
,,,,,,,,,,,,l,Incorrect,0,70,70,74,1,t5.png,t4.png,1,0.9,19,Female,2020-09-24_18h08.40.653,torte-2b,2020.1.3,MacIntel,60,13316,0.747,,,,,,,,,,,,,,,,,,,,,,,,,,,,,,,,,,,,,,,,,,,,,,,,,,,,,,,,,,,,,,,,,
,,,,,,,,,,,,a,Incorrect,0,71,71,3,1,t1.png,t5.png,4,9.55E-11,19,Female,2020-09-24_18h08.40.653,torte-2b,2020.1.3,MacIntel,60,13316,0.532,,,,,,,,,,,,,,,,,,,,,,,,,,,,,,,,,,,,,,,,,,,,,,,,,,,,,,,,,,,,,,,,,
,,,,,,,,,,,,l,Correct!,0,72,72,43,1,t4.png,t2.png,2,0.059078,19,Female,2020-09-24_18h08.40.653,torte-2b,2020.1.3,MacIntel,60,13316,0.454,,,,,,,,,,,,,,,,,,,,,,,,,,,,,,,,,,,,,,,,,,,,,,,,,,,,,,,,,,,,,,,,,
,,,,,,,,,,,,a,Correct!,0,73,73,58,1,t5.png,t4.png,1,0.90025,19,Female,2020-09-24_18h08.40.653,torte-2b,2020.1.3,MacIntel,60,13316,0.63,,,,,,,,,,,,,,,,,,,,,,,,,,,,,,,,,,,,,,,,,,,,,,,,,,,,,,,,,,,,,,,,,
,,,,,,,,,,,,a,Incorrect,0,74,74,19,1,t4.png,t2.png,2,0.059078,19,Female,2020-09-24_18h08.40.653,torte-2b,2020.1.3,MacIntel,60,13316,1.971,,,,,,,,,,,,,,,,,,,,,,,,,,,,,,,,,,,,,,,,,,,,,,,,,,,,,,,,,,,,,,,,,
,,,,,,,,,,,,l,Correct!,0,75,75,35,1,t1.png,t4.png,3,0.0000131,19,Female,2020-09-24_18h08.40.653,torte-2b,2020.1.3,MacIntel,60,13316,0.357,,,,,,,,,,,,,,,,,,,,,,,,,,,,,,,,,,,,,,,,,,,,,,,,,,,,,,,,,,,,,,,,,
,,,,,,,,,,,,l,Incorrect,0,76,76,41,1,t3.png,t2.png,1,0.90855,19,Female,2020-09-24_18h08.40.653,torte-2b,2020.1.3,MacIntel,60,13316,0.449,,,,,,,,,,,,,,,,,,,,,,,,,,,,,,,,,,,,,,,,,,,,,,,,,,,,,,,,,,,,,,,,,
,,,,,,,,,,,,a,Incorrect,0,77,77,86,1,t3.png,t1.png,2,0.056466,19,Female,2020-09-24_18h08.40.653,torte-2b,2020.1.3,MacIntel,60,13316,1.147,,,,,,,,,,,,,,,,,,,,,,,,,,,,,,,,,,,,,,,,,,,,,,,,,,,,,,,,,,,,,,,,,
,,,,,,,,,,,,l,Correct!,0,78,78,83,1,t3.png,t1.png,2,0.056466,19,Female,2020-09-24_18h08.40.653,torte-2b,2020.1.3,MacIntel,60,13316,1.045,,,,,,,,,,,,,,,,,,,,,,,,,,,,,,,,,,,,,,,,,,,,,,,,,,,,,,,,,,,,,,,,,
,,,,,,,,,,,,l,Correct!,0,79,79,88,1,t3.png,t1.png,2,0.056466,19,Female,2020-09-24_18h08.40.653,torte-2b,2020.1.3,MacIntel,60,13316,1.865,,,,,,,,,,,,,,,,,,,,,,,,,,,,,,,,,,,,,,,,,,,,,,,,,,,,,,,,,,,,,,,,,
,,,,,,,,,,,,l,Correct!,0,80,80,0,1,t5.png,t1.png,4,9.55E-11,19,Female,2020-09-24_18h08.40.653,torte-2b,2020.1.3,MacIntel,60,13316,1.001,,,,,,,,,,,,,,,,,,,,,,,,,,,,,,,,,,,,,,,,,,,,,,,,,,,,,,,,,,,,,,,,,
,,,,,,,,,,,,a,Correct!,0,81,81,105,1,t3.png,t2.png,1,0.90855,19,Female,2020-09-24_18h08.40.653,torte-2b,2020.1.3,MacIntel,60,13316,0.87,,,,,,,,,,,,,,,,,,,,,,,,,,,,,,,,,,,,,,,,,,,,,,,,,,,,,,,,,,,,,,,,,
,,,,,,,,,,,,l,Correct!,0,82,82,87,1,t5.png,t1.png,4,9.55E-11,19,Female,2020-09-24_18h08.40.653,torte-2b,2020.1.3,MacIntel,60,13316,2.174,,,,,,,,,,,,,,,,,,,,,,,,,,,,,,,,,,,,,,,,,,,,,,,,,,,,,,,,,,,,,,,,,
,,,,,,,,,,,,a,Correct!,0,83,83,84,1,t1.png,t1.png,0,0.97829,19,Female,2020-09-24_18h08.40.653,torte-2b,2020.1.3,MacIntel,60,13316,1.599,,,,,,,,,,,,,,,,,,,,,,,,,,,,,,,,,,,,,,,,,,,,,,,,,,,,,,,,,,,,,,,,,
,,,,,,,,,,,,,Too slow :(,0,84,84,106,1,t2.png,t3.png,1,0.90855,19,Female,2020-09-24_18h08.40.653,torte-2b,2020.1.3,MacIntel,60,13316,,,,,,,,,,,,,,,,,,,,,,,,,,,,,,,,,,,,,,,,,,,,,,,,,,,,,,,,,,,,,,,,,,
,,,,,,,,,,,,l,Correct!,0,85,85,52,1,t2.png,t4.png,2,0.059078,19,Female,2020-09-24_18h08.40.653,torte-2b,2020.1.3,MacIntel,60,13316,1.598,,,,,,,,,,,,,,,,,,,,,,,,,,,,,,,,,,,,,,,,,,,,,,,,,,,,,,,,,,,,,,,,,
,,,,,,,,,,,,a,Incorrect,0,86,86,72,1,t4.png,t2.png,2,0.059078,19,Female,2020-09-24_18h08.40.653,torte-2b,2020.1.3,MacIntel,60,13316,1.473,,,,,,,,,,,,,,,,,,,,,,,,,,,,,,,,,,,,,,,,,,,,,,,,,,,,,,,,,,,,,,,,,
,,,,,,,,,,,,l,Correct!,0,87,87,24,1,t4.png,t2.png,2,0.059078,19,Female,2020-09-24_18h08.40.653,torte-2b,2020.1.3,MacIntel,60,13316,1.037,,,,,,,,,,,,,,,,,,,,,,,,,,,,,,,,,,,,,,,,,,,,,,,,,,,,,,,,,,,,,,,,,
,,,,,,,,,,,,l,Incorrect,0,88,88,79,1,t3.png,t2.png,1,0.909,19,Female,2020-09-24_18h08.40.653,torte-2b,2020.1.3,MacIntel,60,13316,1.266,,,,,,,,,,,,,,,,,,,,,,,,,,,,,,,,,,,,,,,,,,,,,,,,,,,,,,,,,,,,,,,,,
,,,,,,,,,,,,a,Incorrect,0,89,89,68,1,t1.png,t4.png,3,0.0000131,19,Female,2020-09-24_18h08.40.653,torte-2b,2020.1.3,MacIntel,60,13316,1.821,,,,,,,,,,,,,,,,,,,,,,,,,,,,,,,,,,,,,,,,,,,,,,,,,,,,,,,,,,,,,,,,,
,,,,,,,,,,,,l,Correct!,0,90,90,40,1,t1.png,t5.png,4,9.55E-11,19,Female,2020-09-24_18h08.40.653,torte-2b,2020.1.3,MacIntel,60,13316,1.965,,,,,,,,,,,,,,,,,,,,,,,,,,,,,,,,,,,,,,,,,,,,,,,,,,,,,,,,,,,,,,,,,
,,,,,,,,,,,,l,Correct!,0,91,91,37,1,t1.png,t4.png,3,0.0000131,19,Female,2020-09-24_18h08.40.653,torte-2b,2020.1.3,MacIntel,60,13316,1.603,,,,,,,,,,,,,,,,,,,,,,,,,,,,,,,,,,,,,,,,,,,,,,,,,,,,,,,,,,,,,,,,,
,,,,,,,,,,,,,Too slow :(,0,92,92,17,1,t1.png,t4.png,3,0.0000131,19,Female,2020-09-24_18h08.40.653,torte-2b,2020.1.3,MacIntel,60,13316,,,,,,,,,,,,,,,,,,,,,,,,,,,,,,,,,,,,,,,,,,,,,,,,,,,,,,,,,,,,,,,,,,
,,,,,,,,,,,,a,Incorrect,0,93,93,111,1,t5.png,t1.png,4,9.55E-11,19,Female,2020-09-24_18h08.40.653,torte-2b,2020.1.3,MacIntel,60,13316,1.106,,,,,,,,,,,,,,,,,,,,,,,,,,,,,,,,,,,,,,,,,,,,,,,,,,,,,,,,,,,,,,,,,
,,,,,,,,,,,,,Too slow :(,0,94,94,28,1,t2.png,t3.png,1,0.909,19,Female,2020-09-24_18h08.40.653,torte-2b,2020.1.3,MacIntel,60,13316,,,,,,,,,,,,,,,,,,,,,,,,,,,,,,,,,,,,,,,,,,,,,,,,,,,,,,,,,,,,,,,,,,
,,,,,,,,,,,,a,Correct!,0,95,95,77,1,t1.png,t1.png,0,0.97829,19,Female,2020-09-24_18h08.40.653,torte-2b,2020.1.3,MacIntel,60,13316,1.473,,,,,,,,,,,,,,,,,,,,,,,,,,,,,,,,,,,,,,,,,,,,,,,,,,,,,,,,,,,,,,,,,
,,,,,,,,,,,,a,Correct!,0,96,96,48,1,t5.png,t5.png,0,0.97829,19,Female,2020-09-24_18h08.40.653,torte-2b,2020.1.3,MacIntel,60,13316,1.19,,,,,,,,,,,,,,,,,,,,,,,,,,,,,,,,,,,,,,,,,,,,,,,,,,,,,,,,,,,,,,,,,
,,,,,,,,,,,,a,Correct!,0,97,97,25,1,t5.png,t5.png,0,0.97829,19,Female,2020-09-24_18h08.40.653,torte-2b,2020.1.3,MacIntel,60,13316,0.648,,,,,,,,,,,,,,,,,,,,,,,,,,,,,,,,,,,,,,,,,,,,,,,,,,,,,,,,,,,,,,,,,
,,,,,,,,,,,,l,Incorrect,0,98,98,92,1,t2.png,t3.png,1,0.909,19,Female,2020-09-24_18h08.40.653,torte-2b,2020.1.3,MacIntel,60,13316,1.516,,,,,,,,,,,,,,,,,,,,,,,,,,,,,,,,,,,,,,,,,,,,,,,,,,,,,,,,,,,,,,,,,
,,,,,,,,,,,,a,Incorrect,0,99,99,12,1,t5.png,t1.png,4,9.55E-11,19,Female,2020-09-24_18h08.40.653,torte-2b,2020.1.3,MacIntel,60,13316,1.274,,,,,,,,,,,,,,,,,,,,,,,,,,,,,,,,,,,,,,,,,,,,,,,,,,,,,,,,,,,,,,,,,
,,,,,,,,,,,,l,Correct!,0,100,100,57,1,t2.png,t4.png,2,0.059078,19,Female,2020-09-24_18h08.40.653,torte-2b,2020.1.3,MacIntel,60,13316,1.688,,,,,,,,,,,,,,,,,,,,,,,,,,,,,,,,,,,,,,,,,,,,,,,,,,,,,,,,,,,,,,,,,
,,,,,,,,,,,,l,Incorrect,0,101,101,64,1,t1.png,t1.png,0,0.978,19,Female,2020-09-24_18h08.40.653,torte-2b,2020.1.3,MacIntel,60,13316,0.653,,,,,,,,,,,,,,,,,,,,,,,,,,,,,,,,,,,,,,,,,,,,,,,,,,,,,,,,,,,,,,,,,
,,,,,,,,,,,,l,Correct!,0,102,102,55,1,t2.png,t4.png,2,0.059078,19,Female,2020-09-24_18h08.40.653,torte-2b,2020.1.3,MacIntel,60,13316,1.357,,,,,,,,,,,,,,,,,,,,,,,,,,,,,,,,,,,,,,,,,,,,,,,,,,,,,,,,,,,,,,,,,
,,,,,,,,,,,,a,Incorrect,0,103,103,33,1,t5.png,t1.png,4,9.55E-11,19,Female,2020-09-24_18h08.40.653,torte-2b,2020.1.3,MacIntel,60,13316,0.95,,,,,,,,,,,,,,,,,,,,,,,,,,,,,,,,,,,,,,,,,,,,,,,,,,,,,,,,,,,,,,,,,
,,,,,,,,,,,,l,Incorrect,0,104,104,32,1,t4.png,t5.png,1,0.90025,19,Female,2020-09-24_18h08.40.653,torte-2b,2020.1.3,MacIntel,60,13316,1.272,,,,,,,,,,,,,,,,,,,,,,,,,,,,,,,,,,,,,,,,,,,,,,,,,,,,,,,,,,,,,,,,,
,,,,,,,,,,,,a,Incorrect,0,105,105,60,1,t2.png,t4.png,2,0.059078,19,Female,2020-09-24_18h08.40.653,torte-2b,2020.1.3,MacIntel,60,13316,0.783,,,,,,,,,,,,,,,,,,,,,,,,,,,,,,,,,,,,,,,,,,,,,,,,,,,,,,,,,,,,,,,,,
,,,,,,,,,,,,l,Incorrect,0,106,106,113,1,t5.png,t4.png,1,0.9,19,Female,2020-09-24_18h08.40.653,torte-2b,2020.1.3,MacIntel,60,13316,0.604,,,,,,,,,,,,,,,,,,,,,,,,,,,,,,,,,,,,,,,,,,,,,,,,,,,,,,,,,,,,,,,,,
,,,,,,,,,,,,a,Correct!,0,107,107,9,1,t4.png,t5.png,1,0.9,19,Female,2020-09-24_18h08.40.653,torte-2b,2020.1.3,MacIntel,60,13316,1.203,,,,,,,,,,,,,,,,,,,,,,,,,,,,,,,,,,,,,,,,,,,,,,,,,,,,,,,,,,,,,,,,,
,,,,,,,,,,,,l,Incorrect,0,108,108,110,1,t4.png,t5.png,1,0.90025,19,Female,2020-09-24_18h08.40.653,torte-2b,2020.1.3,MacIntel,60,13316,1.437,,,,,,,,,,,,,,,,,,,,,,,,,,,,,,,,,,,,,,,,,,,,,,,,,,,,,,,,,,,,,,,,,
,,,,,,,,,,,,a,Correct!,0,109,109,71,1,t5.png,t5.png,0,0.97829,19,Female,2020-09-24_18h08.40.653,torte-2b,2020.1.3,MacIntel,60,13316,0.033,,,,,,,,,,,,,,,,,,,,,,,,,,,,,,,,,,,,,,,,,,,,,,,,,,,,,,,,,,,,,,,,,
,,,,,,,,,,,,a,Correct!,0,110,110,13,1,t5.png,t5.png,0,0.97829,19,Female,2020-09-24_18h08.40.653,torte-2b,2020.1.3,MacIntel,60,13316,0.42,,,,,,,,,,,,,,,,,,,,,,,,,,,,,,,,,,,,,,,,,,,,,,,,,,,,,,,,,,,,,,,,,
,,,,,,,,,,,,a,Incorrect,0,111,111,30,1,t3.png,t1.png,2,0.056466,19,Female,2020-09-24_18h08.40.653,torte-2b,2020.1.3,MacIntel,60,13316,0.631,,,,,,,,,,,,,,,,,,,,,,,,,,,,,,,,,,,,,,,,,,,,,,,,,,,,,,,,,,,,,,,,,
,,,,,,,,,,,,l,Correct!,0,112,112,6,1,t1.png,t4.png,3,0.0000131,19,Female,2020-09-24_18h08.40.653,torte-2b,2020.1.3,MacIntel,60,13316,0.823,,,,,,,,,,,,,,,,,,,,,,,,,,,,,,,,,,,,,,,,,,,,,,,,,,,,,,,,,,,,,,,,,
,,,,,,,,,,,,l,Correct!,0,113,113,107,1,t1.png,t1.png,0,0.978,19,Female,2020-09-24_18h08.40.653,torte-2b,2020.1.3,MacIntel,60,13316,0.6,,,,,,,,,,,,,,,,,,,,,,,,,,,,,,,,,,,,,,,,,,,,,,,,,,,,,,,,,,,,,,,,,
,,,,,,,,,,,,a,Correct!,0,114,114,34,1,t5.png,t4.png,1,0.9,19,Female,2020-09-24_18h08.40.653,torte-2b,2020.1.3,MacIntel,60,13316,1.386,,,,,,,,,,,,,,,,,,,,,,,,,,,,,,,,,,,,,,,,,,,,,,,,,,,,,,,,,,,,,,,,,
,,,,,,,,,,,,l,Correct!,0,115,115,53,1,t3.png,t1.png,2,0.056466,19,Female,2020-09-24_18h08.40.653,torte-2b,2020.1.3,MacIntel,60,13316,1.032,,,,,,,,,,,,,,,,,,,,,,,,,,,,,,,,,,,,,,,,,,,,,,,,,,,,,,,,,,,,,,,,,
,,,,,,,,,,,,a,Correct!,0,116,116,22,1,t2.png,t3.png,1,0.90855,19,Female,2020-09-24_18h08.40.653,torte-2b,2020.1.3,MacIntel,60,13316,0.637,,,,,,,,,,,,,,,,,,,,,,,,,,,,,,,,,,,,,,,,,,,,,,,,,,,,,,,,,,,,,,,,,
,,,,,,,,,,,,l,Incorrect,0,117,117,44,1,t2.png,t3.png,1,0.909,19,Female,2020-09-24_18h08.40.653,torte-2b,2020.1.3,MacIntel,60,13316,0.565,,,,,,,,,,,,,,,,,,,,,,,,,,,,,,,,,,,,,,,,,,,,,,,,,,,,,,,,,,,,,,,,,
,,,,,,,,,,,,a,Incorrect,0,118,118,47,1,t4.png,t2.png,2,0.059078,19,Female,2020-09-24_18h08.40.653,torte-2b,2020.1.3,MacIntel,60,13316,0.49,,,,,,,,,,,,,,,,,,,,,,,,,,,,,,,,,,,,,,,,,,,,,,,,,,,,,,,,,,,,,,,,,
,,,,,,,,,,,,l,Correct!,0,119,119,99,1,t1.png,t5.png,4,9.55E-11,19,Female,2020-09-24_18h08.40.653,torte-2b,2020.1.3,MacIntel,60,13316,0.507,,,,,,,,,,,,,,,,,,,,,,,,,,,,,,,,,,,,,,,,,,,,,,,,,,,,,,,,,,,,,,,,,
,,,,,,,,,,,,l,Correct!,,,,,,t1.png,t3.png,2,0.056466,19,Female,2020-09-24_18h08.40.653,torte-2b,2020.1.3,MacIntel,60,13316,1.613,space,1.823,space,22.999,0,0,0,69,1,,,,,,,,,,,,,,,,,,,,,,,,,,,,,,,,,,,,,,,,,,,,,,,,,,,,,,,,
,,,,,,,,,,,,,Too slow :(,,,,,,t1.png,t2.png,1,0.9,19,Female,2020-09-24_18h08.40.653,torte-2b,2020.1.3,MacIntel,60,13316,,,,,,0,1,1,1,1,,,,,,,,,,,,,,,,,,,,,,,,,,,,,,,,,,,,,,,,,,,,,,,,,,,,,,,,
,,,,,,,,,,,,a,Correct!,,,,,,t2.png,t2.png,0,0.98115,19,Female,2020-09-24_18h08.40.653,torte-2b,2020.1.3,MacIntel,60,13316,1.466,,,,,0,2,2,7,1,,,,,,,,,,,,,,,,,,,,,,,,,,,,,,,,,,,,,,,,,,,,,,,,,,,,,,,,
,,,,,,,,,,,,l,Incorrect,,,,,,t1.png,t1.png,0,0.978,19,Female,2020-09-24_18h08.40.653,torte-2b,2020.1.3,MacIntel,60,13316,1.723,,,,,0,3,3,28,1,,,,,,,,,,,,,,,,,,,,,,,,,,,,,,,,,,,,,,,,,,,,,,,,,,,,,,,,
,,,,,,,,,,,,,Too slow :(,,,,,,t4.png,t2.png,2,0.059078,19,Female,2020-09-24_18h08.40.653,torte-2b,2020.1.3,MacIntel,60,13316,,,,,,0,4,4,86,1,,,,,,,,,,,,,,,,,,,,,,,,,,,,,,,,,,,,,,,,,,,,,,,,,,,,,,,,
,,,,,,,,,,,,l,Correct!,,,,,,t3.png,t5.png,2,0.056466,19,Female,2020-09-24_18h08.40.653,torte-2b,2020.1.3,MacIntel,60,13316,1.922,,,,,0,5,5,14,1,,,,,,,,,,,,,,,,,,,,,,,,,,,,,,,,,,,,,,,,,,,,,,,,,,,,,,,,
,,,,,,,,,,,,a,Incorrect,,,,,,t4.png,t1.png,3,0.0000131,19,Female,2020-09-24_18h08.40.653,torte-2b,2020.1.3,MacIntel,60,13316,1.501,,,,,0,6,6,13,1,,,,,,,,,,,,,,,,,,,,,,,,,,,,,,,,,,,,,,,,,,,,,,,,,,,,,,,,
,,,,,,,,,,,,l,Incorrect,,,,,,t1.png,t2.png,1,0.90025,19,Female,2020-09-24_18h08.40.653,torte-2b,2020.1.3,MacIntel,60,13316,1.763,,,,,0,7,7,105,1,,,,,,,,,,,,,,,,,,,,,,,,,,,,,,,,,,,,,,,,,,,,,,,,,,,,,,,,
,,,,,,,,,,,,a,Correct!,,,,,,t2.png,t1.png,1,0.90025,19,Female,2020-09-24_18h08.40.653,torte-2b,2020.1.3,MacIntel,60,13316,2.38,,,,,0,8,8,4,1,,,,,,,,,,,,,,,,,,,,,,,,,,,,,,,,,,,,,,,,,,,,,,,,,,,,,,,,
,,,,,,,,,,,,a,Correct!,,,,,,t5.png,t5.png,0,0.97829,19,Female,2020-09-24_18h08.40.653,torte-2b,2020.1.3,MacIntel,60,13316,2.353,,,,,0,9,9,94,1,,,,,,,,,,,,,,,,,,,,,,,,,,,,,,,,,,,,,,,,,,,,,,,,,,,,,,,,
,,,,,,,,,,,,a,Correct!,,,,,,t3.png,t2.png,1,0.90855,19,Female,2020-09-24_18h08.40.653,torte-2b,2020.1.3,MacIntel,60,13316,1.465,,,,,0,10,10,97,1,,,,,,,,,,,,,,,,,,,,,,,,,,,,,,,,,,,,,,,,,,,,,,,,,,,,,,,,
,,,,,,,,,,,,a,Incorrect,,,,,,t5.png,t3.png,2,0.056466,19,Female,2020-09-24_18h08.40.653,torte-2b,2020.1.3,MacIntel,60,13316,1.335,,,,,0,11,11,56,1,,,,,,,,,,,,,,,,,,,,,,,,,,,,,,,,,,,,,,,,,,,,,,,,,,,,,,,,
,,,,,,,,,,,,a,Correct!,,,,,,t4.png,t3.png,1,0.90855,19,Female,2020-09-24_18h08.40.653,torte-2b,2020.1.3,MacIntel,60,13316,1.17,,,,,0,12,12,35,1,,,,,,,,,,,,,,,,,,,,,,,,,,,,,,,,,,,,,,,,,,,,,,,,,,,,,,,,
,,,,,,,,,,,,a,Correct!,,,,,,t4.png,t4.png,0,0.98115,19,Female,2020-09-24_18h08.40.653,torte-2b,2020.1.3,MacIntel,60,13316,2.136,,,,,0,13,13,52,1,,,,,,,,,,,,,,,,,,,,,,,,,,,,,,,,,,,,,,,,,,,,,,,,,,,,,,,,
,,,,,,,,,,,,a,Incorrect,,,,,,t5.png,t1.png,4,9.55E-11,19,Female,2020-09-24_18h08.40.653,torte-2b,2020.1.3,MacIntel,60,13316,2.189,,,,,0,14,14,100,1,,,,,,,,,,,,,,,,,,,,,,,,,,,,,,,,,,,,,,,,,,,,,,,,,,,,,,,,
,,,,,,,,,,,,,Too slow :(,,,,,,t5.png,t3.png,2,0.056466,19,Female,2020-09-24_18h08.40.653,torte-2b,2020.1.3,MacIntel,60,13316,,,,,,0,15,15,38,1,,,,,,,,,,,,,,,,,,,,,,,,,,,,,,,,,,,,,,,,,,,,,,,,,,,,,,,,
,,,,,,,,,,,,l,Correct!,,,,,,t2.png,t5.png,3,0.0000131,19,Female,2020-09-24_18h08.40.653,torte-2b,2020.1.3,MacIntel,60,13316,0.724,,,,,0,16,16,66,1,,,,,,,,,,,,,,,,,,,,,,,,,,,,,,,,,,,,,,,,,,,,,,,,,,,,,,,,
,,,,,,,,,,,,a,Incorrect,,,,,,t3.png,t1.png,2,0.056466,19,Female,2020-09-24_18h08.40.653,torte-2b,2020.1.3,MacIntel,60,13316,2.34,,,,,0,17,17,64,1,,,,,,,,,,,,,,,,,,,,,,,,,,,,,,,,,,,,,,,,,,,,,,,,,,,,,,,,
,,,,,,,,,,,,a,Incorrect,,,,,,t3.png,t1.png,2,0.056466,19,Female,2020-09-24_18h08.40.653,torte-2b,2020.1.3,MacIntel,60,13316,1.315,,,,,0,18,18,0,1,,,,,,,,,,,,,,,,,,,,,,,,,,,,,,,,,,,,,,,,,,,,,,,,,,,,,,,,
,,,,,,,,,,,,l,Incorrect,,,,,,t5.png,t4.png,1,0.90025,19,Female,2020-09-24_18h08.40.653,torte-2b,2020.1.3,MacIntel,60,13316,1.166,,,,,0,19,19,26,1,,,,,,,,,,,,,,,,,,,,,,,,,,,,,,,,,,,,,,,,,,,,,,,,,,,,,,,,
,,,,,,,,,,,,l,Incorrect,,,,,,t4.png,t4.png,0,0.98115,19,Female,2020-09-24_18h08.40.653,torte-2b,2020.1.3,MacIntel,60,13316,1.204,,,,,0,20,20,90,1,,,,,,,,,,,,,,,,,,,,,,,,,,,,,,,,,,,,,,,,,,,,,,,,,,,,,,,,
,,,,,,,,,,,,,Too slow :(,,,,,,t5.png,t2.png,3,0.0000131,19,Female,2020-09-24_18h08.40.653,torte-2b,2020.1.3,MacIntel,60,13316,,,,,,0,21,21,98,1,,,,,,,,,,,,,,,,,,,,,,,,,,,,,,,,,,,,,,,,,,,,,,,,,,,,,,,,
,,,,,,,,,,,,l,Incorrect,,,,,,t5.png,t4.png,1,0.9,19,Female,2020-09-24_18h08.40.653,torte-2b,2020.1.3,MacIntel,60,13316,1.615,,,,,0,22,22,49,1,,,,,,,,,,,,,,,,,,,,,,,,,,,,,,,,,,,,,,,,,,,,,,,,,,,,,,,,
,,,,,,,,,,,,a,Correct!,,,,,,t5.png,t5.png,0,0.97829,19,Female,2020-09-24_18h08.40.653,torte-2b,2020.1.3,MacIntel,60,13316,0.807,,,,,0,23,23,73,1,,,,,,,,,,,,,,,,,,,,,,,,,,,,,,,,,,,,,,,,,,,,,,,,,,,,,,,,
,,,,,,,,,,,,a,Correct!,,,,,,t2.png,t1.png,1,0.90025,19,Female,2020-09-24_18h08.40.653,torte-2b,2020.1.3,MacIntel,60,13316,1.223,,,,,0,24,24,19,1,,,,,,,,,,,,,,,,,,,,,,,,,,,,,,,,,,,,,,,,,,,,,,,,,,,,,,,,
,,,,,,,,,,,,a,Correct!,,,,,,t4.png,t3.png,1,0.90855,19,Female,2020-09-24_18h08.40.653,torte-2b,2020.1.3,MacIntel,60,13316,0.798,,,,,0,25,25,45,1,,,,,,,,,,,,,,,,,,,,,,,,,,,,,,,,,,,,,,,,,,,,,,,,,,,,,,,,
,,,,,,,,,,,,l,Correct!,,,,,,t3.png,t5.png,2,0.056466,19,Female,2020-09-24_18h08.40.653,torte-2b,2020.1.3,MacIntel,60,13316,0.873,,,,,0,26,26,44,1,,,,,,,,,,,,,,,,,,,,,,,,,,,,,,,,,,,,,,,,,,,,,,,,,,,,,,,,
,,,,,,,,,,,,l,Correct!,,,,,,t2.png,t4.png,2,0.059078,19,Female,2020-09-24_18h08.40.653,torte-2b,2020.1.3,MacIntel,60,13316,0.987,,,,,0,27,27,24,1,,,,,,,,,,,,,,,,,,,,,,,,,,,,,,,,,,,,,,,,,,,,,,,,,,,,,,,,
,,,,,,,,,,,,a,Incorrect,,,,,,t4.png,t2.png,2,0.0591,19,Female,2020-09-24_18h08.40.653,torte-2b,2020.1.3,MacIntel,60,13316,0.748,,,,,0,28,28,36,1,,,,,,,,,,,,,,,,,,,,,,,,,,,,,,,,,,,,,,,,,,,,,,,,,,,,,,,,
,,,,,,,,,,,,l,Correct!,,,,,,t2.png,t4.png,2,0.0591,19,Female,2020-09-24_18h08.40.653,torte-2b,2020.1.3,MacIntel,60,13316,0.705,,,,,0,29,29,15,1,,,,,,,,,,,,,,,,,,,,,,,,,,,,,,,,,,,,,,,,,,,,,,,,,,,,,,,,
,,,,,,,,,,,,l,Correct!,,,,,,t2.png,t5.png,3,0.0000131,19,Female,2020-09-24_18h08.40.653,torte-2b,2020.1.3,MacIntel,60,13316,0.423,,,,,0,30,30,8,1,,,,,,,,,,,,,,,,,,,,,,,,,,,,,,,,,,,,,,,,,,,,,,,,,,,,,,,,
,,,,,,,,,,,,l,Incorrect,,,,,,t1.png,t2.png,1,0.90025,19,Female,2020-09-24_18h08.40.653,torte-2b,2020.1.3,MacIntel,60,13316,0.619,,,,,0,31,31,33,1,,,,,,,,,,,,,,,,,,,,,,,,,,,,,,,,,,,,,,,,,,,,,,,,,,,,,,,,
,,,,,,,,,,,,a,Correct!,,,,,,t3.png,t2.png,1,0.909,19,Female,2020-09-24_18h08.40.653,torte-2b,2020.1.3,MacIntel,60,13316,0.722,,,,,0,32,32,3,1,,,,,,,,,,,,,,,,,,,,,,,,,,,,,,,,,,,,,,,,,,,,,,,,,,,,,,,,
,,,,,,,,,,,,l,Incorrect,,,,,,t3.png,t4.png,1,0.909,19,Female,2020-09-24_18h08.40.653,torte-2b,2020.1.3,MacIntel,60,13316,0.549,,,,,0,33,33,106,1,,,,,,,,,,,,,,,,,,,,,,,,,,,,,,,,,,,,,,,,,,,,,,,,,,,,,,,,
,,,,,,,,,,,,l,Incorrect,,,,,,t2.png,t2.png,0,0.98115,19,Female,2020-09-24_18h08.40.653,torte-2b,2020.1.3,MacIntel,60,13316,1.039,,,,,0,34,34,2,1,,,,,,,,,,,,,,,,,,,,,,,,,,,,,,,,,,,,,,,,,,,,,,,,,,,,,,,,
,,,,,,,,,,,,a,Correct!,,,,,,t2.png,t3.png,1,0.90855,19,Female,2020-09-24_18h08.40.653,torte-2b,2020.1.3,MacIntel,60,13316,0.94,,,,,0,35,35,65,1,,,,,,,,,,,,,,,,,,,,,,,,,,,,,,,,,,,,,,,,,,,,,,,,,,,,,,,,
,,,,,,,,,,,,l,Correct!,,,,,,t3.png,t5.png,2,0.0565,19,Female,2020-09-24_18h08.40.653,torte-2b,2020.1.3,MacIntel,60,13316,0.682,,,,,0,36,36,30,1,,,,,,,,,,,,,,,,,,,,,,,,,,,,,,,,,,,,,,,,,,,,,,,,,,,,,,,,
,,,,,,,,,,,,a,Incorrect,,,,,,t5.png,t2.png,3,0.0000131,19,Female,2020-09-24_18h08.40.653,torte-2b,2020.1.3,MacIntel,60,13316,1.27,,,,,0,37,37,51,1,,,,,,,,,,,,,,,,,,,,,,,,,,,,,,,,,,,,,,,,,,,,,,,,,,,,,,,,
,,,,,,,,,,,,l,Correct!,,,,,,t1.png,t5.png,4,9.55E-11,19,Female,2020-09-24_18h08.40.653,torte-2b,2020.1.3,MacIntel,60,13316,0.888,,,,,0,38,38,55,1,,,,,,,,,,,,,,,,,,,,,,,,,,,,,,,,,,,,,,,,,,,,,,,,,,,,,,,,
,,,,,,,,,,,,l,Correct!,,,,,,t1.png,t5.png,4,9.55E-11,19,Female,2020-09-24_18h08.40.653,torte-2b,2020.1.3,MacIntel,60,13316,1.023,,,,,0,39,39,85,1,,,,,,,,,,,,,,,,,,,,,,,,,,,,,,,,,,,,,,,,,,,,,,,,,,,,,,,,
,,,,,,,,,,,,a,Incorrect,,,,,,t5.png,t2.png,3,0.0000131,19,Female,2020-09-24_18h08.40.653,torte-2b,2020.1.3,MacIntel,60,13316,2.072,,,,,0,40,40,91,1,,,,,,,,,,,,,,,,,,,,,,,,,,,,,,,,,,,,,,,,,,,,,,,,,,,,,,,,
,,,,,,,,,,,,l,Incorrect,,,,,,t3.png,t4.png,1,0.909,19,Female,2020-09-24_18h08.40.653,torte-2b,2020.1.3,MacIntel,60,13316,1.332,,,,,0,41,41,89,1,,,,,,,,,,,,,,,,,,,,,,,,,,,,,,,,,,,,,,,,,,,,,,,,,,,,,,,,
,,,,,,,,,,,,l,Incorrect,,,,,,t1.png,t1.png,0,0.97829,19,Female,2020-09-24_18h08.40.653,torte-2b,2020.1.3,MacIntel,60,13316,1.681,,,,,0,42,42,78,1,,,,,,,,,,,,,,,,,,,,,,,,,,,,,,,,,,,,,,,,,,,,,,,,,,,,,,,,
,,,,,,,,,,,,l,Incorrect,,,,,,t1.png,t1.png,0,0.978,19,Female,2020-09-24_18h08.40.653,torte-2b,2020.1.3,MacIntel,60,13316,1.434,,,,,0,43,43,54,1,,,,,,,,,,,,,,,,,,,,,,,,,,,,,,,,,,,,,,,,,,,,,,,,,,,,,,,,
,,,,,,,,,,,,l,Incorrect,,,,,,t2.png,t2.png,0,0.98115,19,Female,2020-09-24_18h08.40.653,torte-2b,2020.1.3,MacIntel,60,13316,0.997,,,,,0,44,44,57,1,,,,,,,,,,,,,,,,,,,,,,,,,,,,,,,,,,,,,,,,,,,,,,,,,,,,,,,,
,,,,,,,,,,,,l,Correct!,,,,,,t2.png,t4.png,2,0.059078,19,Female,2020-09-24_18h08.40.653,torte-2b,2020.1.3,MacIntel,60,13316,1.54,,,,,0,45,45,11,1,,,,,,,,,,,,,,,,,,,,,,,,,,,,,,,,,,,,,,,,,,,,,,,,,,,,,,,,
,,,,,,,,,,,,a,Correct!,,,,,,t3.png,t2.png,1,0.90855,19,Female,2020-09-24_18h08.40.653,torte-2b,2020.1.3,MacIntel,60,13316,1.657,,,,,0,46,46,18,1,,,,,,,,,,,,,,,,,,,,,,,,,,,,,,,,,,,,,,,,,,,,,,,,,,,,,,,,
,,,,,,,,,,,,,Too slow :(,,,,,,t2.png,t1.png,1,0.9,19,Female,2020-09-24_18h08.40.653,torte-2b,2020.1.3,MacIntel,60,13316,,,,,,0,47,47,118,1,,,,,,,,,,,,,,,,,,,,,,,,,,,,,,,,,,,,,,,,,,,,,,,,,,,,,,,,
,,,,,,,,,,,,a,Incorrect,,,,,,t3.png,t1.png,2,0.056466,19,Female,2020-09-24_18h08.40.653,torte-2b,2020.1.3,MacIntel,60,13316,1.917,,,,,0,48,48,32,1,,,,,,,,,,,,,,,,,,,,,,,,,,,,,,,,,,,,,,,,,,,,,,,,,,,,,,,,
,,,,,,,,,,,,a,Incorrect,,,,,,t4.png,t2.png,2,0.059078,19,Female,2020-09-24_18h08.40.653,torte-2b,2020.1.3,MacIntel,60,13316,2.079,,,,,0,49,49,88,1,,,,,,,,,,,,,,,,,,,,,,,,,,,,,,,,,,,,,,,,,,,,,,,,,,,,,,,,
,,,,,,,,,,,,l,Incorrect,,,,,,t2.png,t3.png,1,0.90855,19,Female,2020-09-24_18h08.40.653,torte-2b,2020.1.3,MacIntel,60,13316,2.107,,,,,0,50,50,68,1,,,,,,,,,,,,,,,,,,,,,,,,,,,,,,,,,,,,,,,,,,,,,,,,,,,,,,,,
,,,,,,,,,,,,,Too slow :(,,,,,,t5.png,t5.png,0,0.97829,19,Female,2020-09-24_18h08.40.653,torte-2b,2020.1.3,MacIntel,60,13316,,,,,,0,51,51,70,1,,,,,,,,,,,,,,,,,,,,,,,,,,,,,,,,,,,,,,,,,,,,,,,,,,,,,,,,
,,,,,,,,,,,,a,Incorrect,,,,,,t5.png,t1.png,4,9.55E-11,19,Female,2020-09-24_18h08.40.653,torte-2b,2020.1.3,MacIntel,60,13316,1.371,,,,,0,52,52,22,1,,,,,,,,,,,,,,,,,,,,,,,,,,,,,,,,,,,,,,,,,,,,,,,,,,,,,,,,
,,,,,,,,,,,,l,Incorrect,,,,,,t3.png,t2.png,1,0.909,19,Female,2020-09-24_18h08.40.653,torte-2b,2020.1.3,MacIntel,60,13316,1.471,,,,,0,53,53,23,1,,,,,,,,,,,,,,,,,,,,,,,,,,,,,,,,,,,,,,,,,,,,,,,,,,,,,,,,
,,,,,,,,,,,,a,Correct!,,,,,,t5.png,t5.png,0,0.978,19,Female,2020-09-24_18h08.40.653,torte-2b,2020.1.3,MacIntel,60,13316,1.187,,,,,0,54,54,117,1,,,,,,,,,,,,,,,,,,,,,,,,,,,,,,,,,,,,,,,,,,,,,,,,,,,,,,,,
,,,,,,,,,,,,l,Incorrect,,,,,,t4.png,t5.png,1,0.90025,19,Female,2020-09-24_18h08.40.653,torte-2b,2020.1.3,MacIntel,60,13316,2.256,,,,,0,55,55,103,1,,,,,,,,,,,,,,,,,,,,,,,,,,,,,,,,,,,,,,,,,,,,,,,,,,,,,,,,
,,,,,,,,,,,,,Too slow :(,,,,,,t2.png,t1.png,1,0.90025,19,Female,2020-09-24_18h08.40.653,torte-2b,2020.1.3,MacIntel,60,13316,,,,,,0,56,56,5,1,,,,,,,,,,,,,,,,,,,,,,,,,,,,,,,,,,,,,,,,,,,,,,,,,,,,,,,,
,,,,,,,,,,,,l,Incorrect,,,,,,t1.png,t2.png,1,0.90025,19,Female,2020-09-24_18h08.40.653,torte-2b,2020.1.3,MacIntel,60,13316,1.416,,,,,0,57,57,112,1,,,,,,,,,,,,,,,,,,,,,,,,,,,,,,,,,,,,,,,,,,,,,,,,,,,,,,,,
,,,,,,,,,,,,,Too slow :(,,,,,,t1.png,t1.png,0,0.97829,19,Female,2020-09-24_18h08.40.653,torte-2b,2020.1.3,MacIntel,60,13316,,,,,,0,58,58,9,1,,,,,,,,,,,,,,,,,,,,,,,,,,,,,,,,,,,,,,,,,,,,,,,,,,,,,,,,
,,,,,,,,,,,,a,Incorrect,,,,,,t4.png,t1.png,3,0.0000131,19,Female,2020-09-24_18h08.40.653,torte-2b,2020.1.3,MacIntel,60,13316,1.604,,,,,0,59,59,93,1,,,,,,,,,,,,,,,,,,,,,,,,,,,,,,,,,,,,,,,,,,,,,,,,,,,,,,,,
,,,,,,,,,,,,l,Correct!,,,,,,t1.png,t2.png,1,0.90025,19,Female,2020-09-24_18h08.40.653,torte-2b,2020.1.3,MacIntel,60,13316,1.065,,,,,0,60,60,72,1,,,,,,,,,,,,,,,,,,,,,,,,,,,,,,,,,,,,,,,,,,,,,,,,,,,,,,,,
,,,,,,,,,,,,l,Correct!,,,,,,t3.png,t5.png,2,0.056466,19,Female,2020-09-24_18h08.40.653,torte-2b,2020.1.3,MacIntel,60,13316,2.049,,,,,0,61,61,6,1,,,,,,,,,,,,,,,,,,,,,,,,,,,,,,,,,,,,,,,,,,,,,,,,,,,,,,,,
,,,,,,,,,,,,,Too slow :(,,,,,,t4.png,t4.png,0,0.98115,19,Female,2020-09-24_18h08.40.653,torte-2b,2020.1.3,MacIntel,60,13316,,,,,,0,62,62,80,1,,,,,,,,,,,,,,,,,,,,,,,,,,,,,,,,,,,,,,,,,,,,,,,,,,,,,,,,
,,,,,,,,,,,,a,Correct!,,,,,,t2.png,t2.png,0,0.98115,19,Female,2020-09-24_18h08.40.653,torte-2b,2020.1.3,MacIntel,60,13316,1.298,,,,,0,63,63,59,1,,,,,,,,,,,,,,,,,,,,,,,,,,,,,,,,,,,,,,,,,,,,,,,,,,,,,,,,
,,,,,,,,,,,,,Too slow :(,,,,,,t2.png,t5.png,3,0.0000131,19,Female,2020-09-24_18h08.40.653,torte-2b,2020.1.3,MacIntel,60,13316,,,,,,0,64,64,104,1,,,,,,,,,,,,,,,,,,,,,,,,,,,,,,,,,,,,,,,,,,,,,,,,,,,,,,,,
,,,,,,,,,,,,l,Correct!,,,,,,t1.png,t5.png,4,9.55E-11,19,Female,2020-09-24_18h08.40.653,torte-2b,2020.1.3,MacIntel,60,13316,0.764,,,,,0,65,65,16,1,,,,,,,,,,,,,,,,,,,,,,,,,,,,,,,,,,,,,,,,,,,,,,,,,,,,,,,,
,,,,,,,,,,,,l,Incorrect,,,,,,t2.png,t2.png,0,0.981,19,Female,2020-09-24_18h08.40.653,torte-2b,2020.1.3,MacIntel,60,13316,0.891,,,,,0,66,66,101,1,,,,,,,,,,,,,,,,,,,,,,,,,,,,,,,,,,,,,,,,,,,,,,,,,,,,,,,,
,,,,,,,,,,,,a,Incorrect,,,,,,t5.png,t2.png,3,0.0000131,19,Female,2020-09-24_18h08.40.653,torte-2b,2020.1.3,MacIntel,60,13316,1.44,,,,,0,67,67,116,1,,,,,,,,,,,,,,,,,,,,,,,,,,,,,,,,,,,,,,,,,,,,,,,,,,,,,,,,
,,,,,,,,,,,,a,Incorrect,,,,,,t4.png,t1.png,3,0.0000131,19,Female,2020-09-24_18h08.40.653,torte-2b,2020.1.3,MacIntel,60,13316,1.456,,,,,0,68,68,61,1,,,,,,,,,,,,,,,,,,,,,,,,,,,,,,,,,,,,,,,,,,,,,,,,,,,,,,,,
,,,,,,,,,,,,,Too slow :(,,,,,,t3.png,t1.png,2,0.056466,19,Female,2020-09-24_18h08.40.653,torte-2b,2020.1.3,MacIntel,60,13316,,,,,,0,69,69,29,1,,,,,,,,,,,,,,,,,,,,,,,,,,,,,,,,,,,,,,,,,,,,,,,,,,,,,,,,
,,,,,,,,,,,,l,Correct!,,,,,,t1.png,t3.png,2,0.056466,19,Female,2020-09-24_18h08.40.653,torte-2b,2020.1.3,MacIntel,60,13316,1.121,,,,,0,70,70,87,1,,,,,,,,,,,,,,,,,,,,,,,,,,,,,,,,,,,,,,,,,,,,,,,,,,,,,,,,
,,,,,,,,,,,,a,Incorrect,,,,,,t4.png,t1.png,3,0.0000131,19,Female,2020-09-24_18h08.40.653,torte-2b,2020.1.3,MacIntel,60,13316,1.283,,,,,0,71,71,48,1,,,,,,,,,,,,,,,,,,,,,,,,,,,,,,,,,,,,,,,,,,,,,,,,,,,,,,,,
,,,,,,,,,,,,a,Incorrect,,,,,,t1.png,t4.png,3,0.0000131,19,Female,2020-09-24_18h08.40.653,torte-2b,2020.1.3,MacIntel,60,13316,1.356,,,,,0,72,72,81,1,,,,,,,,,,,,,,,,,,,,,,,,,,,,,,,,,,,,,,,,,,,,,,,,,,,,,,,,
,,,,,,,,,,,,l,Incorrect,,,,,,t3.png,t4.png,1,0.909,19,Female,2020-09-24_18h08.40.653,torte-2b,2020.1.3,MacIntel,60,13316,1.804,,,,,0,73,73,82,1,,,,,,,,,,,,,,,,,,,,,,,,,,,,,,,,,,,,,,,,,,,,,,,,,,,,,,,,
,,,,,,,,,,,,a,Incorrect,,,,,,t5.png,t1.png,4,9.55E-11,19,Female,2020-09-24_18h08.40.653,torte-2b,2020.1.3,MacIntel,60,13316,1.715,,,,,0,74,74,43,1,,,,,,,,,,,,,,,,,,,,,,,,,,,,,,,,,,,,,,,,,,,,,,,,,,,,,,,,
,,,,,,,,,,,,l,Correct!,,,,,,t1.png,t3.png,2,0.056466,19,Female,2020-09-24_18h08.40.653,torte-2b,2020.1.3,MacIntel,60,13316,1.224,,,,,0,75,75,63,1,,,,,,,,,,,,,,,,,,,,,,,,,,,,,,,,,,,,,,,,,,,,,,,,,,,,,,,,
,,,,,,,,,,,,,Too slow :(,,,,,,t5.png,t3.png,2,0.056466,19,Female,2020-09-24_18h08.40.653,torte-2b,2020.1.3,MacIntel,60,13316,,,,,,0,76,76,108,1,,,,,,,,,,,,,,,,,,,,,,,,,,,,,,,,,,,,,,,,,,,,,,,,,,,,,,,,
,,,,,,,,,,,,a,Incorrect,,,,,,t5.png,t4.png,1,0.9,19,Female,2020-09-24_18h08.40.653,torte-2b,2020.1.3,MacIntel,60,13316,2.132,,,,,0,77,77,76,1,,,,,,,,,,,,,,,,,,,,,,,,,,,,,,,,,,,,,,,,,,,,,,,,,,,,,,,,
,,,,,,,,,,,,a,Correct!,,,,,,t5.png,t4.png,1,0.90025,19,Female,2020-09-24_18h08.40.653,torte-2b,2020.1.3,MacIntel,60,13316,2.065,,,,,0,78,78,34,1,,,,,,,,,,,,,,,,,,,,,,,,,,,,,,,,,,,,,,,,,,,,,,,,,,,,,,,,
,,,,,,,,,,,,l,Correct!,,,,,,t1.png,t4.png,3,0.0000131,19,Female,2020-09-24_18h08.40.653,torte-2b,2020.1.3,MacIntel,60,13316,1.049,,,,,0,79,79,17,1,,,,,,,,,,,,,,,,,,,,,,,,,,,,,,,,,,,,,,,,,,,,,,,,,,,,,,,,
,,,,,,,,,,,,l,Correct!,,,,,,t2.png,t5.png,3,0.0000131,19,Female,2020-09-24_18h08.40.653,torte-2b,2020.1.3,MacIntel,60,13316,2.2,,,,,0,80,80,40,1,,,,,,,,,,,,,,,,,,,,,,,,,,,,,,,,,,,,,,,,,,,,,,,,,,,,,,,,
,,,,,,,,,,,,l,Incorrect,,,,,,t4.png,t5.png,1,0.90025,19,Female,2020-09-24_18h08.40.653,torte-2b,2020.1.3,MacIntel,60,13316,2.118,,,,,0,81,81,113,1,,,,,,,,,,,,,,,,,,,,,,,,,,,,,,,,,,,,,,,,,,,,,,,,,,,,,,,,
,,,,,,,,,,,,l,Correct!,,,,,,t1.png,t3.png,2,0.056466,19,Female,2020-09-24_18h08.40.653,torte-2b,2020.1.3,MacIntel,60,13316,1.387,,,,,0,82,82,99,1,,,,,,,,,,,,,,,,,,,,,,,,,,,,,,,,,,,,,,,,,,,,,,,,,,,,,,,,
,,,,,,,,,,,,a,Incorrect,,,,,,t4.png,t1.png,3,0.0000131,19,Female,2020-09-24_18h08.40.653,torte-2b,2020.1.3,MacIntel,60,13316,1.105,,,,,0,83,83,42,1,,,,,,,,,,,,,,,,,,,,,,,,,,,,,,,,,,,,,,,,,,,,,,,,,,,,,,,,
,,,,,,,,,,,,l,Correct!,,,,,,t1.png,t4.png,3,0.0000131,19,Female,2020-09-24_18h08.40.653,torte-2b,2020.1.3,MacIntel,60,13316,2.472,,,,,0,84,84,50,1,,,,,,,,,,,,,,,,,,,,,,,,,,,,,,,,,,,,,,,,,,,,,,,,,,,,,,,,
,,,,,,,,,,,,l,Correct!,,,,,,t1.png,t5.png,4,9.55E-11,19,Female,2020-09-24_18h08.40.653,torte-2b,2020.1.3,MacIntel,60,13316,1.766,,,,,0,85,85,12,1,,,,,,,,,,,,,,,,,,,,,,,,,,,,,,,,,,,,,,,,,,,,,,,,,,,,,,,,
,,,,,,,,,,,,a,Incorrect,,,,,,t5.png,t2.png,3,0.0000131,19,Female,2020-09-24_18h08.40.653,torte-2b,2020.1.3,MacIntel,60,13316,1.782,,,,,0,86,86,119,1,,,,,,,,,,,,,,,,,,,,,,,,,,,,,,,,,,,,,,,,,,,,,,,,,,,,,,,,
,,,,,,,,,,,,l,Correct!,,,,,,t1.png,t5.png,4,9.55E-11,19,Female,2020-09-24_18h08.40.653,torte-2b,2020.1.3,MacIntel,60,13316,1.472,,,,,0,87,87,41,1,,,,,,,,,,,,,,,,,,,,,,,,,,,,,,,,,,,,,,,,,,,,,,,,,,,,,,,,
,,,,,,,,,,,,,Too slow :(,,,,,,t2.png,t3.png,1,0.90855,19,Female,2020-09-24_18h08.40.653,torte-2b,2020.1.3,MacIntel,60,13316,,,,,,0,88,88,111,1,,,,,,,,,,,,,,,,,,,,,,,,,,,,,,,,,,,,,,,,,,,,,,,,,,,,,,,,
,,,,,,,,,,,,a,Incorrect,,,,,,t3.png,t1.png,2,0.0565,19,Female,2020-09-24_18h08.40.653,torte-2b,2020.1.3,MacIntel,60,13316,1.19,,,,,0,89,89,31,1,,,,,,,,,,,,,,,,,,,,,,,,,,,,,,,,,,,,,,,,,,,,,,,,,,,,,,,,
,,,,,,,,,,,,l,Incorrect,,,,,,t4.png,t5.png,1,0.9,19,Female,2020-09-24_18h08.40.653,torte-2b,2020.1.3,MacIntel,60,13316,1.449,,,,,0,90,90,115,1,,,,,,,,,,,,,,,,,,,,,,,,,,,,,,,,,,,,,,,,,,,,,,,,,,,,,,,,
,,,,,,,,,,,,l,Correct!,,,,,,t2.png,t5.png,3,0.0000131,19,Female,2020-09-24_18h08.40.653,torte-2b,2020.1.3,MacIntel,60,13316,1.408,,,,,0,91,91,95,1,,,,,,,,,,,,,,,,,,,,,,,,,,,,,,,,,,,,,,,,,,,,,,,,,,,,,,,,
,,,,,,,,,,,,a,Correct!,,,,,,t5.png,t5.png,0,0.97829,19,Female,2020-09-24_18h08.40.653,torte-2b,2020.1.3,MacIntel,60,13316,1.2,,,,,0,92,92,25,1,,,,,,,,,,,,,,,,,,,,,,,,,,,,,,,,,,,,,,,,,,,,,,,,,,,,,,,,
,,,,,,,,,,,,l,Correct!,,,,,,t1.png,t3.png,2,0.056466,19,Female,2020-09-24_18h08.40.653,torte-2b,2020.1.3,MacIntel,60,13316,1.754,,,,,0,93,93,60,1,,,,,,,,,,,,,,,,,,,,,,,,,,,,,,,,,,,,,,,,,,,,,,,,,,,,,,,,
,,,,,,,,,,,,,Too slow :(,,,,,,t5.png,t3.png,2,0.0565,19,Female,2020-09-24_18h08.40.653,torte-2b,2020.1.3,MacIntel,60,13316,,,,,,0,94,94,39,1,,,,,,,,,,,,,,,,,,,,,,,,,,,,,,,,,,,,,,,,,,,,,,,,,,,,,,,,
,,,,,,,,,,,,a,Correct!,,,,,,t4.png,t3.png,1,0.909,19,Female,2020-09-24_18h08.40.653,torte-2b,2020.1.3,MacIntel,60,13316,1.716,,,,,0,95,95,46,1,,,,,,,,,,,,,,,,,,,,,,,,,,,,,,,,,,,,,,,,,,,,,,,,,,,,,,,,
,,,,,,,,,,,,a,Correct!,,,,,,t1.png,t1.png,0,0.97829,19,Female,2020-09-24_18h08.40.653,torte-2b,2020.1.3,MacIntel,60,13316,1.047,,,,,0,96,96,67,1,,,,,,,,,,,,,,,,,,,,,,,,,,,,,,,,,,,,,,,,,,,,,,,,,,,,,,,,
,,,,,,,,,,,,a,Correct!,,,,,,t4.png,t3.png,1,0.90855,19,Female,2020-09-24_18h08.40.653,torte-2b,2020.1.3,MacIntel,60,13316,2.001,,,,,0,97,97,75,1,,,,,,,,,,,,,,,,,,,,,,,,,,,,,,,,,,,,,,,,,,,,,,,,,,,,,,,,
,,,,,,,,,,,,l,Correct!,,,,,,t2.png,t4.png,2,0.059078,19,Female,2020-09-24_18h08.40.653,torte-2b,2020.1.3,MacIntel,60,13316,2.154,,,,,0,98,98,77,1,,,,,,,,,,,,,,,,,,,,,,,,,,,,,,,,,,,,,,,,,,,,,,,,,,,,,,,,
,,,,,,,,,,,,l,Correct!,,,,,,t1.png,t4.png,3,0.0000131,19,Female,2020-09-24_18h08.40.653,torte-2b,2020.1.3,MacIntel,60,13316,1.433,,,,,0,99,99,107,1,,,,,,,,,,,,,,,,,,,,,,,,,,,,,,,,,,,,,,,,,,,,,,,,,,,,,,,,
,,,,,,,,,,,,l,Correct!,,,,,,t1.png,t4.png,3,0.0000131,19,Female,2020-09-24_18h08.40.653,torte-2b,2020.1.3,MacIntel,60,13316,1.606,,,,,0,100,100,92,1,,,,,,,,,,,,,,,,,,,,,,,,,,,,,,,,,,,,,,,,,,,,,,,,,,,,,,,,
,,,,,,,,,,,,a,Correct!,,,,,,t5.png,t4.png,1,0.90025,19,Female,2020-09-24_18h08.40.653,torte-2b,2020.1.3,MacIntel,60,13316,1.356,,,,,0,101,101,27,1,,,,,,,,,,,,,,,,,,,,,,,,,,,,,,,,,,,,,,,,,,,,,,,,,,,,,,,,
,,,,,,,,,,,,a,Correct!,,,,,,t4.png,t4.png,0,0.98115,19,Female,2020-09-24_18h08.40.653,torte-2b,2020.1.3,MacIntel,60,13316,1.173,,,,,0,102,102,21,1,,,,,,,,,,,,,,,,,,,,,,,,,,,,,,,,,,,,,,,,,,,,,,,,,,,,,,,,
,,,,,,,,,,,,l,Incorrect,,,,,,t2.png,t3.png,1,0.90855,19,Female,2020-09-24_18h08.40.653,torte-2b,2020.1.3,MacIntel,60,13316,1.34,,,,,0,103,103,10,1,,,,,,,,,,,,,,,,,,,,,,,,,,,,,,,,,,,,,,,,,,,,,,,,,,,,,,,,
,,,,,,,,,,,,l,Incorrect,,,,,,t3.png,t4.png,1,0.90855,19,Female,2020-09-24_18h08.40.653,torte-2b,2020.1.3,MacIntel,60,13316,1.704,,,,,0,104,104,96,1,,,,,,,,,,,,,,,,,,,,,,,,,,,,,,,,,,,,,,,,,,,,,,,,,,,,,,,,
,,,,,,,,,,,,l,Incorrect,,,,,,t3.png,t4.png,1,0.90855,19,Female,2020-09-24_18h08.40.653,torte-2b,2020.1.3,MacIntel,60,13316,1.19,,,,,0,105,105,84,1,,,,,,,,,,,,,,,,,,,,,,,,,,,,,,,,,,,,,,,,,,,,,,,,,,,,,,,,
,,,,,,,,,,,,a,Correct!,,,,,,t3.png,t2.png,1,0.90855,19,Female,2020-09-24_18h08.40.653,torte-2b,2020.1.3,MacIntel,60,13316,1.315,,,,,0,106,106,53,1,,,,,,,,,,,,,,,,,,,,,,,,,,,,,,,,,,,,,,,,,,,,,,,,,,,,,,,,
,,,,,,,,,,,,a,Correct!,,,,,,t4.png,t4.png,0,0.98115,19,Female,2020-09-24_18h08.40.653,torte-2b,2020.1.3,MacIntel,60,13316,1.273,,,,,0,107,107,79,1,,,,,,,,,,,,,,,,,,,,,,,,,,,,,,,,,,,,,,,,,,,,,,,,,,,,,,,,
,,,,,,,,,,,,a,Incorrect,,,,,,t5.png,t3.png,2,0.056466,19,Female,2020-09-24_18h08.40.653,torte-2b,2020.1.3,MacIntel,60,13316,1.404,,,,,0,108,108,114,1,,,,,,,,,,,,,,,,,,,,,,,,,,,,,,,,,,,,,,,,,,,,,,,,,,,,,,,,
,,,,,,,,,,,,a,Incorrect,,,,,,t4.png,t2.png,2,0.059078,19,Female,2020-09-24_18h08.40.653,torte-2b,2020.1.3,MacIntel,60,13316,1.54,,,,,0,109,109,109,1,,,,,,,,,,,,,,,,,,,,,,,,,,,,,,,,,,,,,,,,,,,,,,,,,,,,,,,,
,,,,,,,,,,,,l,Incorrect,,,,,,t2.png,t3.png,1,0.909,19,Female,2020-09-24_18h08.40.653,torte-2b,2020.1.3,MacIntel,60,13316,1.57,,,,,0,110,110,74,1,,,,,,,,,,,,,,,,,,,,,,,,,,,,,,,,,,,,,,,,,,,,,,,,,,,,,,,,
,,,,,,,,,,,,a,Incorrect,,,,,,t4.png,t2.png,2,0.059078,19,Female,2020-09-24_18h08.40.653,torte-2b,2020.1.3,MacIntel,60,13316,1.854,,,,,0,111,111,110,1,,,,,,,,,,,,,,,,,,,,,,,,,,,,,,,,,,,,,,,,,,,,,,,,,,,,,,,,
,,,,,,,,,,,,,Too slow :(,,,,,,t5.png,t1.png,4,9.55E-11,19,Female,2020-09-24_18h08.40.653,torte-2b,2020.1.3,MacIntel,60,13316,,,,,,0,112,112,102,1,,,,,,,,,,,,,,,,,,,,,,,,,,,,,,,,,,,,,,,,,,,,,,,,,,,,,,,,
,,,,,,,,,,,,a,Incorrect,,,,,,t2.png,t4.png,2,0.059078,19,Female,2020-09-24_18h08.40.653,torte-2b,2020.1.3,MacIntel,60,13316,0.954,,,,,0,113,113,37,1,,,,,,,,,,,,,,,,,,,,,,,,,,,,,,,,,,,,,,,,,,,,,,,,,,,,,,,,
,,,,,,,,,,,,a,Correct!,,,,,,t2.png,t1.png,1,0.90025,19,Female,2020-09-24_18h08.40.653,torte-2b,2020.1.3,MacIntel,60,13316,0.716,,,,,0,114,114,62,1,,,,,,,,,,,,,,,,,,,,,,,,,,,,,,,,,,,,,,,,,,,,,,,,,,,,,,,,
,,,,,,,,,,,,l,Incorrect,,,,,,t4.png,t5.png,1,0.90025,19,Female,2020-09-24_18h08.40.653,torte-2b,2020.1.3,MacIntel,60,13316,1.13,,,,,0,115,115,58,1,,,,,,,,,,,,,,,,,,,,,,,,,,,,,,,,,,,,,,,,,,,,,,,,,,,,,,,,
,,,,,,,,,,,,a,Incorrect,,,,,,t5.png,t1.png,4,9.55E-11,19,Female,2020-09-24_18h08.40.653,torte-2b,2020.1.3,MacIntel,60,13316,0.689,,,,,0,116,116,71,1,,,,,,,,,,,,,,,,,,,,,,,,,,,,,,,,,,,,,,,,,,,,,,,,,,,,,,,,
,,,,,,,,,,,,l,Incorrect,,,,,,t4.png,t5.png,1,0.90025,19,Female,2020-09-24_18h08.40.653,torte-2b,2020.1.3,MacIntel,60,13316,1.299,,,,,0,117,117,47,1,,,,,,,,,,,,,,,,,,,,,,,,,,,,,,,,,,,,,,,,,,,,,,,,,,,,,,,,
,,,,,,,,,,,,a,Correct!,,,,,,t4.png,t3.png,1,0.909,19,Female,2020-09-24_18h08.40.653,torte-2b,2020.1.3,MacIntel,60,13316,1.48,,,,,0,118,118,20,1,,,,,,,,,,,,,,,,,,,,,,,,,,,,,,,,,,,,,,,,,,,,,,,,,,,,,,,,
,,,,,,,,,,,,l,Correct!,,,,,,t3.png,t5.png,2,0.0565,19,Female,2020-09-24_18h08.40.653,torte-2b,2020.1.3,MacIntel,60,13316,1.07,,,,,0,119,119,83,1,,,,,,,,,,,,,,,,,,,,,,,,,,,,,,,,,,,,,,,,,,,,,,,,,,,,,,,,
,,,,,,,,,,,,,,,,,,,,,,,19,Female,2020-09-24_18h08.40.653,torte-2b,2020.1.3,MacIntel,60,13316,,space,1.549,,,,,,,,space,78.834,,0,0,0,0,1,6,,,,,,,,,,,,,,,,,,,,,,,,,,,,,,,,,,,,,,,,,,,,,,,
,,,,,,,,,,,,,,,,,,,,,,,19,Female,2020-09-24_18h08.40.653,torte-2b,2020.1.3,MacIntel,60,13316,,,,,,,,,,,,,,0,1,1,1,1,7,,,,,,,,,,,,,,,,,,,,,,,,,,,,,,,,,,,,,,,,,,,,,,,
,,,,,,,,,,,,,,,,,,,,,,,19,Female,2020-09-24_18h08.40.653,torte-2b,2020.1.3,MacIntel,60,13316,,,,,,,,,,,,,space,0,2,2,2,1,6,0.348,,,,,,,,,,,,,,,,,,,,,,,,,,,,,,,,,,,,,,,,,,,,,,
,,,,,,,,,,,,,,,,,,,,,,,19,Female,2020-09-24_18h08.40.653,torte-2b,2020.1.3,MacIntel,60,13316,,,,,,,,,,,,,,0,3,3,3,1,7,,,,,,,,,,,,,,,,,,,,,,,,,,,,,,,,,,,,,,,,,,,,,,,
,,,,,,,,,,,,,,,,,,,,,,,19,Female,2020-09-24_18h08.40.653,torte-2b,2020.1.3,MacIntel,60,13316,,,,,,,,,,,,,,0,4,4,4,1,5,,,,,,,,,,,,,,,,,,,,,,,,,,,,,,,,,,,,,,,,,,,,,,,
,,,,,,,,,,,,,,,,,,,,,,,19,Female,2020-09-24_18h08.40.653,torte-2b,2020.1.3,MacIntel,60,13316,,,,,,,,,,,,,space,0,5,5,5,1,7,0.647,,,,,,,,,,,,,,,,,,,,,,,,,,,,,,,,,,,,,,,,,,,,,,
,,,,,,,,,,,,,,,,,,,,,,,19,Female,2020-09-24_18h08.40.653,torte-2b,2020.1.3,MacIntel,60,13316,,,,,,,,,,,,,,0,6,6,6,1,2,,,,,,,,,,,,,,,,,,,,,,,,,,,,,,,,,,,,,,,,,,,,,,,
,,,,,,,,,,,,,,,,,,,,,,,19,Female,2020-09-24_18h08.40.653,torte-2b,2020.1.3,MacIntel,60,13316,,,,,,,,,,,,,,0,7,7,7,1,4,,,,,,,,,,,,,,,,,,,,,,,,,,,,,,,,,,,,,,,,,,,,,,,
,,,,,,,,,,,,,,,,,,,,,,,19,Female,2020-09-24_18h08.40.653,torte-2b,2020.1.3,MacIntel,60,13316,,,,,,,,,,,,,,0,8,8,8,1,7,,,,,,,,,,,,,,,,,,,,,,,,,,,,,,,,,,,,,,,,,,,,,,,
,,,,,,,,,,,,,,,,,,,,,,,19,Female,2020-09-24_18h08.40.653,torte-2b,2020.1.3,MacIntel,60,13316,,,,,,,,,,,,,,0,9,9,9,1,4,,,,,,,,,,,,,,,,,,,,,,,,,,,,,,,,,,,,,,,,,,,,,,,
,,,,,,,,,,,,,,,,,,,,,,,19,Female,2020-09-24_18h08.40.653,torte-2b,2020.1.3,MacIntel,60,13316,,,,,,,,,,,,,space,0,10,10,10,1,7,1.011,,,,,,,,,,,,,,,,,,,,,,,,,,,,,,,,,,,,,,,,,,,,,,
,,,,,,,,,,,,,,,,,,,,,,,19,Female,2020-09-24_18h08.40.653,torte-2b,2020.1.3,MacIntel,60,13316,,,,,,,,,,,,,space,0,11,11,11,1,7,0.533,,,,,,,,,,,,,,,,,,,,,,,,,,,,,,,,,,,,,,,,,,,,,,
,,,,,,,,,,,,,,,,,,,,,,,19,Female,2020-09-24_18h08.40.653,torte-2b,2020.1.3,MacIntel,60,13316,,,,,,,,,,,,,space,0,12,12,12,1,7,0.628,,,,,,,,,,,,,,,,,,,,,,,,,,,,,,,,,,,,,,,,,,,,,,
,,,,,,,,,,,,,,,,,,,,,,,19,Female,2020-09-24_18h08.40.653,torte-2b,2020.1.3,MacIntel,60,13316,,,,,,,,,,,,,,0,13,13,13,1,4,,,,,,,,,,,,,,,,,,,,,,,,,,,,,,,,,,,,,,,,,,,,,,,
,,,,,,,,,,,,,,,,,,,,,,,19,Female,2020-09-24_18h08.40.653,torte-2b,2020.1.3,MacIntel,60,13316,,,,,,,,,,,,,,0,14,14,14,1,6,,,,,,,,,,,,,,,,,,,,,,,,,,,,,,,,,,,,,,,,,,,,,,,
,,,,,,,,,,,,,,,,,,,,,,,19,Female,2020-09-24_18h08.40.653,torte-2b,2020.1.3,MacIntel,60,13316,,,,,,,,,,,,,space,0,15,15,15,1,4,0.896,,,,,,,,,,,,,,,,,,,,,,,,,,,,,,,,,,,,,,,,,,,,,,
,,,,,,,,,,,,,,,,,,,,,,,19,Female,2020-09-24_18h08.40.653,torte-2b,2020.1.3,MacIntel,60,13316,,,,,,,,,,,,,,0,16,16,16,1,6,,,,,,,,,,,,,,,,,,,,,,,,,,,,,,,,,,,,,,,,,,,,,,,
,,,,,,,,,,,,,,,,,,,,,,,19,Female,2020-09-24_18h08.40.653,torte-2b,2020.1.3,MacIntel,60,13316,,,,,,,,,,,,,space,0,17,17,17,1,7,0.551,,,,,,,,,,,,,,,,,,,,,,,,,,,,,,,,,,,,,,,,,,,,,,
,,,,,,,,,,,,,,,,,,,,,,,19,Female,2020-09-24_18h08.40.653,torte-2b,2020.1.3,MacIntel,60,13316,,,,,,,,,,,,,space,0,18,18,18,1,6,0.213,,,,,,,,,,,,,,,,,,,,,,,,,,,,,,,,,,,,,,,,,,,,,,
,,,,,,,,,,,,,,,,,,,,,,,19,Female,2020-09-24_18h08.40.653,torte-2b,2020.1.3,MacIntel,60,13316,,,,,,,,,,,,,,0,19,19,19,1,7,,,,,,,,,,,,,,,,,,,,,,,,,,,,,,,,,,,,,,,,,,,,,,,
,,,,,,,,,,,,,,,,,,,,,,,19,Female,2020-09-24_18h08.40.653,torte-2b,2020.1.3,MacIntel,60,13316,,,,,,,,,,,,,,0,20,20,20,1,5,,,,,,,,,,,,,,,,,,,,,,,,,,,,,,,,,,,,,,,,,,,,,,,
,,,,,,,,,,,,,,,,,,,,,,,19,Female,2020-09-24_18h08.40.653,torte-2b,2020.1.3,MacIntel,60,13316,,,,,,,,,,,,,,0,21,21,21,1,1,,,,,,,,,,,,,,,,,,,,,,,,,,,,,,,,,,,,,,,,,,,,,,,
,,,,,,,,,,,,,,,,,,,,,,,19,Female,2020-09-24_18h08.40.653,torte-2b,2020.1.3,MacIntel,60,13316,,,,,,,,,,,,,space,0,22,22,22,1,6,0.547,,,,,,,,,,,,,,,,,,,,,,,,,,,,,,,,,,,,,,,,,,,,,,
,,,,,,,,,,,,,,,,,,,,,,,19,Female,2020-09-24_18h08.40.653,torte-2b,2020.1.3,MacIntel,60,13316,,,,,,,,,,,,,,0,23,23,23,1,1,,,,,,,,,,,,,,,,,,,,,,,,,,,,,,,,,,,,,,,,,,,,,,,
,,,,,,,,,,,,,,,,,,,,,,,19,Female,2020-09-24_18h08.40.653,torte-2b,2020.1.3,MacIntel,60,13316,,,,,,,,,,,,,,0,24,24,24,1,5,,,,,,,,,,,,,,,,,,,,,,,,,,,,,,,,,,,,,,,,,,,,,,,
,,,,,,,,,,,,,,,,,,,,,,,19,Female,2020-09-24_18h08.40.653,torte-2b,2020.1.3,MacIntel,60,13316,,,,,,,,,,,,,space,0,25,25,25,1,6,0.417,,,,,,,,,,,,,,,,,,,,,,,,,,,,,,,,,,,,,,,,,,,,,,
,,,,,,,,,,,,,,,,,,,,,,,19,Female,2020-09-24_18h08.40.653,torte-2b,2020.1.3,MacIntel,60,13316,,,,,,,,,,,,,,0,26,26,26,1,6,,,,,,,,,,,,,,,,,,,,,,,,,,,,,,,,,,,,,,,,,,,,,,,
,,,,,,,,,,,,,,,,,,,,,,,19,Female,2020-09-24_18h08.40.653,torte-2b,2020.1.3,MacIntel,60,13316,,,,,,,,,,,,,,0,27,27,27,1,6,,,,,,,,,,,,,,,,,,,,,,,,,,,,,,,,,,,,,,,,,,,,,,,
,,,,,,,,,,,,,,,,,,,,,,,19,Female,2020-09-24_18h08.40.653,torte-2b,2020.1.3,MacIntel,60,13316,,,,,,,,,,,,,,0,28,28,28,1,5,,,,,,,,,,,,,,,,,,,,,,,,,,,,,,,,,,,,,,,,,,,,,,,
,,,,,,,,,,,,,,,,,,,,,,,19,Female,2020-09-24_18h08.40.653,torte-2b,2020.1.3,MacIntel,60,13316,,,,,,,,,,,,,,0,29,29,29,1,2,,,,,,,,,,,,,,,,,,,,,,,,,,,,,,,,,,,,,,,,,,,,,,,
,,,,,,,,,,,,,,,,,,,,,,,19,Female,2020-09-24_18h08.40.653,torte-2b,2020.1.3,MacIntel,60,13316,,,,,,,,,,,,,,0,30,30,30,1,5,,,,,,,,,,,,,,,,,,,,,,,,,,,,,,,,,,,,,,,,,,,,,,,
,,,,,,,,,,,,,,,,,,,,,,,19,Female,2020-09-24_18h08.40.653,torte-2b,2020.1.3,MacIntel,60,13316,,,,,,,,,,,,,space,0,31,31,31,1,2,0.413,,,,,,,,,,,,,,,,,,,,,,,,,,,,,,,,,,,,,,,,,,,,,,
,,,,,,,,,,,,,,,,,,,,,,,19,Female,2020-09-24_18h08.40.653,torte-2b,2020.1.3,MacIntel,60,13316,,,,,,,,,,,,,,0,32,32,32,1,5,,,,,,,,,,,,,,,,,,,,,,,,,,,,,,,,,,,,,,,,,,,,,,,
,,,,,,,,,,,,,,,,,,,,,,,19,Female,2020-09-24_18h08.40.653,torte-2b,2020.1.3,MacIntel,60,13316,,,,,,,,,,,,,,0,33,33,33,1,1,,,,,,,,,,,,,,,,,,,,,,,,,,,,,,,,,,,,,,,,,,,,,,,
,,,,,,,,,,,,,,,,,,,,,,,19,Female,2020-09-24_18h08.40.653,torte-2b,2020.1.3,MacIntel,60,13316,,,,,,,,,,,,,space,0,34,34,34,1,1,0.578,,,,,,,,,,,,,,,,,,,,,,,,,,,,,,,,,,,,,,,,,,,,,,
,,,,,,,,,,,,,,,,,,,,,,,19,Female,2020-09-24_18h08.40.653,torte-2b,2020.1.3,MacIntel,60,13316,,,,,,,,,,,,,,,,,,,2,,0,0,0,0,1,,,,,,,,,,,,,,,,,,,,,,,,,,,,,,,,,,,,,,,,,
,,,,,,,,,,,,,,,,,,,,,,,19,Female,2020-09-24_18h08.40.653,torte-2b,2020.1.3,MacIntel,60,13316,,,,,,,,,,,,,,,,,,,2,,0,1,1,1,1,,,,,,,,,,,,,,,,,,,,,,,,,,,,,,,,,,,,,,,,,
,,,,,,,,,,,,,,,,,,,,,,,19,Female,2020-09-24_18h08.40.653,torte-2b,2020.1.3,MacIntel,60,13316,,,,,,,,,,,,,,,,,,,6,,0,2,2,2,1,,,,,,,,,,,,,,,,,,,,,,,,,,,,,,,,,,,,,,,,,
,,,,,,,,,,,,,,,,,,,,,,,19,Female,2020-09-24_18h08.40.653,torte-2b,2020.1.3,MacIntel,60,13316,,,,,,,,,,,,,,,,,,,2,,0,3,3,3,1,,,,,,,,,,,,,,,,,,,,,,,,,,,,,,,,,,,,,,,,,
,,,,,,,,,,,,,,,,,,,,,,,19,Female,2020-09-24_18h08.40.653,torte-2b,2020.1.3,MacIntel,60,13316,,,,,,,,,,,,,,,,,,,6,,0,4,4,4,1,,,,,,,,,,,,,,,,,,,,,,,,,,,,,,,,,,,,,,,,,
,,,,,,,,,,,,,,,,,,,,,,,19,Female,2020-09-24_18h08.40.653,torte-2b,2020.1.3,MacIntel,60,13316,,,,,,,,,,,,,space,,,,,,2,0.317,0,5,5,5,1,,,,,,,,,,,,,,,,,,,,,,,,,,,,,,,,,,,,,,,,,
,,,,,,,,,,,,,,,,,,,,,,,19,Female,2020-09-24_18h08.40.653,torte-2b,2020.1.3,MacIntel,60,13316,,,,,,,,,,,,,,,,,,,7,,0,6,6,6,1,,,,,,,,,,,,,,,,,,,,,,,,,,,,,,,,,,,,,,,,,
,,,,,,,,,,,,,,,,,,,,,,,19,Female,2020-09-24_18h08.40.653,torte-2b,2020.1.3,MacIntel,60,13316,,,,,,,,,,,,,,,,,,,2,,0,7,7,7,1,,,,,,,,,,,,,,,,,,,,,,,,,,,,,,,,,,,,,,,,,
,,,,,,,,,,,,,,,,,,,,,,,19,Female,2020-09-24_18h08.40.653,torte-2b,2020.1.3,MacIntel,60,13316,,,,,,,,,,,,,space,,,,,,7,0.318,0,8,8,8,1,,,,,,,,,,,,,,,,,,,,,,,,,,,,,,,,,,,,,,,,,
,,,,,,,,,,,,,,,,,,,,,,,19,Female,2020-09-24_18h08.40.653,torte-2b,2020.1.3,MacIntel,60,13316,,,,,,,,,,,,,,,,,,,2,,0,9,9,9,1,,,,,,,,,,,,,,,,,,,,,,,,,,,,,,,,,,,,,,,,,
,,,,,,,,,,,,,,,,,,,,,,,19,Female,2020-09-24_18h08.40.653,torte-2b,2020.1.3,MacIntel,60,13316,,,,,,,,,,,,,,,,,,,5,,0,10,10,10,1,,,,,,,,,,,,,,,,,,,,,,,,,,,,,,,,,,,,,,,,,
,,,,,,,,,,,,,,,,,,,,,,,19,Female,2020-09-24_18h08.40.653,torte-2b,2020.1.3,MacIntel,60,13316,,,,,,,,,,,,,,,,,,,4,,0,11,11,11,1,,,,,,,,,,,,,,,,,,,,,,,,,,,,,,,,,,,,,,,,,
,,,,,,,,,,,,,,,,,,,,,,,19,Female,2020-09-24_18h08.40.653,torte-2b,2020.1.3,MacIntel,60,13316,,,,,,,,,,,,,,,,,,,5,,0,12,12,12,1,,,,,,,,,,,,,,,,,,,,,,,,,,,,,,,,,,,,,,,,,
,,,,,,,,,,,,,,,,,,,,,,,19,Female,2020-09-24_18h08.40.653,torte-2b,2020.1.3,MacIntel,60,13316,,,,,,,,,,,,,,,,,,,6,,0,13,13,13,1,,,,,,,,,,,,,,,,,,,,,,,,,,,,,,,,,,,,,,,,,
,,,,,,,,,,,,,,,,,,,,,,,19,Female,2020-09-24_18h08.40.653,torte-2b,2020.1.3,MacIntel,60,13316,,,,,,,,,,,,,,,,,,,5,,0,14,14,14,1,,,,,,,,,,,,,,,,,,,,,,,,,,,,,,,,,,,,,,,,,
,,,,,,,,,,,,,,,,,,,,,,,19,Female,2020-09-24_18h08.40.653,torte-2b,2020.1.3,MacIntel,60,13316,,,,,,,,,,,,,,,,,,,4,,0,15,15,15,1,,,,,,,,,,,,,,,,,,,,,,,,,,,,,,,,,,,,,,,,,
,,,,,,,,,,,,,,,,,,,,,,,19,Female,2020-09-24_18h08.40.653,torte-2b,2020.1.3,MacIntel,60,13316,,,,,,,,,,,,,,,,,,,5,,0,16,16,16,1,,,,,,,,,,,,,,,,,,,,,,,,,,,,,,,,,,,,,,,,,
,,,,,,,,,,,,,,,,,,,,,,,19,Female,2020-09-24_18h08.40.653,torte-2b,2020.1.3,MacIntel,60,13316,,,,,,,,,,,,,,,,,,,3,,0,17,17,17,1,,,,,,,,,,,,,,,,,,,,,,,,,,,,,,,,,,,,,,,,,
,,,,,,,,,,,,,,,,,,,,,,,19,Female,2020-09-24_18h08.40.653,torte-2b,2020.1.3,MacIntel,60,13316,,,,,,,,,,,,,,,,,,,6,,0,18,18,18,1,,,,,,,,,,,,,,,,,,,,,,,,,,,,,,,,,,,,,,,,,
,,,,,,,,,,,,,,,,,,,,,,,19,Female,2020-09-24_18h08.40.653,torte-2b,2020.1.3,MacIntel,60,13316,,,,,,,,,,,,,,,,,,,6,,0,19,19,19,1,,,,,,,,,,,,,,,,,,,,,,,,,,,,,,,,,,,,,,,,,
,,,,,,,,,,,,,,,,,,,,,,,19,Female,2020-09-24_18h08.40.653,torte-2b,2020.1.3,MacIntel,60,13316,,,,,,,,,,,,,,,,,,,6,,0,20,20,20,1,,,,,,,,,,,,,,,,,,,,,,,,,,,,,,,,,,,,,,,,,
,,,,,,,,,,,,,,,,,,,,,,,19,Female,2020-09-24_18h08.40.653,torte-2b,2020.1.3,MacIntel,60,13316,,,,,,,,,,,,,,,,,,,4,,0,21,21,21,1,,,,,,,,,,,,,,,,,,,,,,,,,,,,,,,,,,,,,,,,,
,,,,,,,,,,,,,,,,,,,,,,,19,Female,2020-09-24_18h08.40.653,torte-2b,2020.1.3,MacIntel,60,13316,,,,,,,,,,,,,space,,,,,,6,0.434,0,22,22,22,1,,,,,,,,,,,,,,,,,,,,,,,,,,,,,,,,,,,,,,,,,
,,,,,,,,,,,,,,,,,,,,,,,19,Female,2020-09-24_18h08.40.653,torte-2b,2020.1.3,MacIntel,60,13316,,,,,,,,,,,,,,,,,,,4,,0,23,23,23,1,,,,,,,,,,,,,,,,,,,,,,,,,,,,,,,,,,,,,,,,,
,,,,,,,,,,,,,,,,,,,,,,,19,Female,2020-09-24_18h08.40.653,torte-2b,2020.1.3,MacIntel,60,13316,,,,,,,,,,,,,,,,,,,6,,0,24,24,24,1,,,,,,,,,,,,,,,,,,,,,,,,,,,,,,,,,,,,,,,,,
,,,,,,,,,,,,,,,,,,,,,,,19,Female,2020-09-24_18h08.40.653,torte-2b,2020.1.3,MacIntel,60,13316,,,,,,,,,,,,,space,,,,,,6,1.878,0,25,25,25,1,,,,,,,,,,,,,,,,,,,,,,,,,,,,,,,,,,,,,,,,,
,,,,,,,,,,,,,,,,,,,,,,,19,Female,2020-09-24_18h08.40.653,torte-2b,2020.1.3,MacIntel,60,13316,,,,,,,,,,,,,space,,,,,,7,0.403,0,26,26,26,1,,,,,,,,,,,,,,,,,,,,,,,,,,,,,,,,,,,,,,,,,
,,,,,,,,,,,,,,,,,,,,,,,19,Female,2020-09-24_18h08.40.653,torte-2b,2020.1.3,MacIntel,60,13316,,,,,,,,,,,,,,,,,,,1,,0,27,27,27,1,,,,,,,,,,,,,,,,,,,,,,,,,,,,,,,,,,,,,,,,,
,,,,,,,,,,,,,,,,,,,,,,,19,Female,2020-09-24_18h08.40.653,torte-2b,2020.1.3,MacIntel,60,13316,,,,,,,,,,,,,,,,,,,7,,0,28,28,28,1,,,,,,,,,,,,,,,,,,,,,,,,,,,,,,,,,,,,,,,,,
,,,,,,,,,,,,,,,,,,,,,,,19,Female,2020-09-24_18h08.40.653,torte-2b,2020.1.3,MacIntel,60,13316,,,,,,,,,,,,,,,,,,,4,,0,29,29,29,1,,,,,,,,,,,,,,,,,,,,,,,,,,,,,,,,,,,,,,,,,
,,,,,,,,,,,,,,,,,,,,,,,19,Female,2020-09-24_18h08.40.653,torte-2b,2020.1.3,MacIntel,60,13316,,,,,,,,,,,,,,,,,,,7,,0,30,30,30,1,,,,,,,,,,,,,,,,,,,,,,,,,,,,,,,,,,,,,,,,,
,,,,,,,,,,,,,,,,,,,,,,,19,Female,2020-09-24_18h08.40.653,torte-2b,2020.1.3,MacIntel,60,13316,,,,,,,,,,,,,,,,,,,3,,0,31,31,31,1,,,,,,,,,,,,,,,,,,,,,,,,,,,,,,,,,,,,,,,,,
,,,,,,,,,,,,,,,,,,,,,,,19,Female,2020-09-24_18h08.40.653,torte-2b,2020.1.3,MacIntel,60,13316,,,,,,,,,,,,,,,,,,,2,,0,32,32,32,1,,,,,,,,,,,,,,,,,,,,,,,,,,,,,,,,,,,,,,,,,
,,,,,,,,,,,,,,,,,,,,,,,19,Female,2020-09-24_18h08.40.653,torte-2b,2020.1.3,MacIntel,60,13316,,,,,,,,,,,,,,,,,,,6,,0,33,33,33,1,,,,,,,,,,,,,,,,,,,,,,,,,,,,,,,,,,,,,,,,,
,,,,,,,,,,,,,,,,,,,,,,,19,Female,2020-09-24_18h08.40.653,torte-2b,2020.1.3,MacIntel,60,13316,,,,,,,,,,,,,space,,,,,,3,0.729,0,34,34,34,1,,,,,,,,,,,,,,,,,,,,,,,,,,,,,,,,,,,,,,,,,
,,,,,,,,,,,,,,,,,,,,,,,19,Female,2020-09-24_18h08.40.653,torte-2b,2020.1.3,MacIntel,60,13316,,,,,,,,,,,,,,,,,,,7,,,,,,,0,0,0,0,1,,,,,,,,,,,,,,,,,,,,,,,,,,,,,,,,,,,,
,,,,,,,,,,,,,,,,,,,,,,,19,Female,2020-09-24_18h08.40.653,torte-2b,2020.1.3,MacIntel,60,13316,,,,,,,,,,,,,,,,,,,5,,,,,,,0,1,1,1,1,,,,,,,,,,,,,,,,,,,,,,,,,,,,,,,,,,,,
,,,,,,,,,,,,,,,,,,,,,,,19,Female,2020-09-24_18h08.40.653,torte-2b,2020.1.3,MacIntel,60,13316,,,,,,,,,,,,,,,,,,,4,,,,,,,0,2,2,2,1,,,,,,,,,,,,,,,,,,,,,,,,,,,,,,,,,,,,
,,,,,,,,,,,,,,,,,,,,,,,19,Female,2020-09-24_18h08.40.653,torte-2b,2020.1.3,MacIntel,60,13316,,,,,,,,,,,,,,,,,,,5,,,,,,,0,3,3,3,1,,,,,,,,,,,,,,,,,,,,,,,,,,,,,,,,,,,,
,,,,,,,,,,,,,,,,,,,,,,,19,Female,2020-09-24_18h08.40.653,torte-2b,2020.1.3,MacIntel,60,13316,,,,,,,,,,,,,,,,,,,6,,,,,,,0,4,4,4,1,,,,,,,,,,,,,,,,,,,,,,,,,,,,,,,,,,,,
,,,,,,,,,,,,,,,,,,,,,,,19,Female,2020-09-24_18h08.40.653,torte-2b,2020.1.3,MacIntel,60,13316,,,,,,,,,,,,,space,,,,,,5,0.401,,,,,,0,5,5,5,1,,,,,,,,,,,,,,,,,,,,,,,,,,,,,,,,,,,,
,,,,,,,,,,,,,,,,,,,,,,,19,Female,2020-09-24_18h08.40.653,torte-2b,2020.1.3,MacIntel,60,13316,,,,,,,,,,,,,,,,,,,3,,,,,,,0,6,6,6,1,,,,,,,,,,,,,,,,,,,,,,,,,,,,,,,,,,,,
,,,,,,,,,,,,,,,,,,,,,,,19,Female,2020-09-24_18h08.40.653,torte-2b,2020.1.3,MacIntel,60,13316,,,,,,,,,,,,,,,,,,,4,,,,,,,0,7,7,7,1,,,,,,,,,,,,,,,,,,,,,,,,,,,,,,,,,,,,
,,,,,,,,,,,,,,,,,,,,,,,19,Female,2020-09-24_18h08.40.653,torte-2b,2020.1.3,MacIntel,60,13316,,,,,,,,,,,,,space,,,,,,3,0.414,,,,,,0,8,8,8,1,,,,,,,,,,,,,,,,,,,,,,,,,,,,,,,,,,,,
,,,,,,,,,,,,,,,,,,,,,,,19,Female,2020-09-24_18h08.40.653,torte-2b,2020.1.3,MacIntel,60,13316,,,,,,,,,,,,,,,,,,,1,,,,,,,0,9,9,9,1,,,,,,,,,,,,,,,,,,,,,,,,,,,,,,,,,,,,
,,,,,,,,,,,,,,,,,,,,,,,19,Female,2020-09-24_18h08.40.653,torte-2b,2020.1.3,MacIntel,60,13316,,,,,,,,,,,,,,,,,,,2,,,,,,,0,10,10,10,1,,,,,,,,,,,,,,,,,,,,,,,,,,,,,,,,,,,,
,,,,,,,,,,,,,,,,,,,,,,,19,Female,2020-09-24_18h08.40.653,torte-2b,2020.1.3,MacIntel,60,13316,,,,,,,,,,,,,space,,,,,,1,0.395,,,,,,0,11,11,11,1,,,,,,,,,,,,,,,,,,,,,,,,,,,,,,,,,,,,
,,,,,,,,,,,,,,,,,,,,,,,19,Female,2020-09-24_18h08.40.653,torte-2b,2020.1.3,MacIntel,60,13316,,,,,,,,,,,,,,,,,,,2,,,,,,,0,12,12,12,1,,,,,,,,,,,,,,,,,,,,,,,,,,,,,,,,,,,,
,,,,,,,,,,,,,,,,,,,,,,,19,Female,2020-09-24_18h08.40.653,torte-2b,2020.1.3,MacIntel,60,13316,,,,,,,,,,,,,,,,,,,1,,,,,,,0,13,13,13,1,,,,,,,,,,,,,,,,,,,,,,,,,,,,,,,,,,,,
,,,,,,,,,,,,,,,,,,,,,,,19,Female,2020-09-24_18h08.40.653,torte-2b,2020.1.3,MacIntel,60,13316,,,,,,,,,,,,,,,,,,,3,,,,,,,0,14,14,14,1,,,,,,,,,,,,,,,,,,,,,,,,,,,,,,,,,,,,
,,,,,,,,,,,,,,,,,,,,,,,19,Female,2020-09-24_18h08.40.653,torte-2b,2020.1.3,MacIntel,60,13316,,,,,,,,,,,,,,,,,,,1,,,,,,,0,15,15,15,1,,,,,,,,,,,,,,,,,,,,,,,,,,,,,,,,,,,,
,,,,,,,,,,,,,,,,,,,,,,,19,Female,2020-09-24_18h08.40.653,torte-2b,2020.1.3,MacIntel,60,13316,,,,,,,,,,,,,,,,,,,7,,,,,,,0,16,16,16,1,,,,,,,,,,,,,,,,,,,,,,,,,,,,,,,,,,,,
,,,,,,,,,,,,,,,,,,,,,,,19,Female,2020-09-24_18h08.40.653,torte-2b,2020.1.3,MacIntel,60,13316,,,,,,,,,,,,,,,,,,,7,,,,,,,0,17,17,17,1,,,,,,,,,,,,,,,,,,,,,,,,,,,,,,,,,,,,
,,,,,,,,,,,,,,,,,,,,,,,19,Female,2020-09-24_18h08.40.653,torte-2b,2020.1.3,MacIntel,60,13316,,,,,,,,,,,,,,,,,,,4,,,,,,,0,18,18,18,1,,,,,,,,,,,,,,,,,,,,,,,,,,,,,,,,,,,,
,,,,,,,,,,,,,,,,,,,,,,,19,Female,2020-09-24_18h08.40.653,torte-2b,2020.1.3,MacIntel,60,13316,,,,,,,,,,,,,space,,,,,,7,0.515,,,,,,0,19,19,19,1,,,,,,,,,,,,,,,,,,,,,,,,,,,,,,,,,,,,
,,,,,,,,,,,,,,,,,,,,,,,19,Female,2020-09-24_18h08.40.653,torte-2b,2020.1.3,MacIntel,60,13316,,,,,,,,,,,,,space,,,,,,3,1.133,,,,,,0,20,20,20,1,,,,,,,,,,,,,,,,,,,,,,,,,,,,,,,,,,,,
,,,,,,,,,,,,,,,,,,,,,,,19,Female,2020-09-24_18h08.40.653,torte-2b,2020.1.3,MacIntel,60,13316,,,,,,,,,,,,,space,,,,,,7,0.504,,,,,,0,21,21,21,1,,,,,,,,,,,,,,,,,,,,,,,,,,,,,,,,,,,,
,,,,,,,,,,,,,,,,,,,,,,,19,Female,2020-09-24_18h08.40.653,torte-2b,2020.1.3,MacIntel,60,13316,,,,,,,,,,,,,space,,,,,,3,1.664,,,,,,0,22,22,22,1,,,,,,,,,,,,,,,,,,,,,,,,,,,,,,,,,,,,
,,,,,,,,,,,,,,,,,,,,,,,19,Female,2020-09-24_18h08.40.653,torte-2b,2020.1.3,MacIntel,60,13316,,,,,,,,,,,,,space,,,,,,1,0.431,,,,,,0,23,23,23,1,,,,,,,,,,,,,,,,,,,,,,,,,,,,,,,,,,,,
,,,,,,,,,,,,,,,,,,,,,,,19,Female,2020-09-24_18h08.40.653,torte-2b,2020.1.3,MacIntel,60,13316,,,,,,,,,,,,,space,,,,,,6,1.129,,,,,,0,24,24,24,1,,,,,,,,,,,,,,,,,,,,,,,,,,,,,,,,,,,,
,,,,,,,,,,,,,,,,,,,,,,,19,Female,2020-09-24_18h08.40.653,torte-2b,2020.1.3,MacIntel,60,13316,,,,,,,,,,,,,space,,,,,,3,1.779,,,,,,0,25,25,25,1,,,,,,,,,,,,,,,,,,,,,,,,,,,,,,,,,,,,
,,,,,,,,,,,,,,,,,,,,,,,19,Female,2020-09-24_18h08.40.653,torte-2b,2020.1.3,MacIntel,60,13316,,,,,,,,,,,,,space,,,,,,2,0.237,,,,,,0,26,26,26,1,,,,,,,,,,,,,,,,,,,,,,,,,,,,,,,,,,,,
,,,,,,,,,,,,,,,,,,,,,,,19,Female,2020-09-24_18h08.40.653,torte-2b,2020.1.3,MacIntel,60,13316,,,,,,,,,,,,,space,,,,,,3,1.111,,,,,,0,27,27,27,1,,,,,,,,,,,,,,,,,,,,,,,,,,,,,,,,,,,,
,,,,,,,,,,,,,,,,,,,,,,,19,Female,2020-09-24_18h08.40.653,torte-2b,2020.1.3,MacIntel,60,13316,,,,,,,,,,,,,space,,,,,,1,0.528,,,,,,0,28,28,28,1,,,,,,,,,,,,,,,,,,,,,,,,,,,,,,,,,,,,
,,,,,,,,,,,,,,,,,,,,,,,19,Female,2020-09-24_18h08.40.653,torte-2b,2020.1.3,MacIntel,60,13316,,,,,,,,,,,,,space,,,,,,3,0.4,,,,,,0,29,29,29,1,,,,,,,,,,,,,,,,,,,,,,,,,,,,,,,,,,,,
,,,,,,,,,,,,,,,,,,,,,,,19,Female,2020-09-24_18h08.40.653,torte-2b,2020.1.3,MacIntel,60,13316,,,,,,,,,,,,,,,,,,,1,,,,,,,0,30,30,30,1,,,,,,,,,,,,,,,,,,,,,,,,,,,,,,,,,,,,
,,,,,,,,,,,,,,,,,,,,,,,19,Female,2020-09-24_18h08.40.653,torte-2b,2020.1.3,MacIntel,60,13316,,,,,,,,,,,,,space,,,,,,7,0.678,,,,,,0,31,31,31,1,,,,,,,,,,,,,,,,,,,,,,,,,,,,,,,,,,,,
,,,,,,,,,,,,,,,,,,,,,,,19,Female,2020-09-24_18h08.40.653,torte-2b,2020.1.3,MacIntel,60,13316,,,,,,,,,,,,,space,,,,,,5,0.2,,,,,,0,32,32,32,1,,,,,,,,,,,,,,,,,,,,,,,,,,,,,,,,,,,,
,,,,,,,,,,,,,,,,,,,,,,,19,Female,2020-09-24_18h08.40.653,torte-2b,2020.1.3,MacIntel,60,13316,,,,,,,,,,,,,,,,,,,7,,,,,,,0,33,33,33,1,,,,,,,,,,,,,,,,,,,,,,,,,,,,,,,,,,,,
,,,,,,,,,,,,,,,,,,,,,,,19,Female,2020-09-24_18h08.40.653,torte-2b,2020.1.3,MacIntel,60,13316,,,,,,,,,,,,,,,,,,,2,,,,,,,0,34,34,34,1,,,,,,,,,,,,,,,,,,,,,,,,,,,,,,,,,,,,
,,,,,,,,,,,,,,,,,,,,,,,19,Female,2020-09-24_18h08.40.653,torte-2b,2020.1.3,MacIntel,60,13316,,,,,,,,,,,,,,,,,,,3,,,,,,,,,,,,0,0,0,0,1,,,,,,,,,,,,,,,,,,,,,,,,,,,,,,,
,,,,,,,,,,,,,,,,,,,,,,,19,Female,2020-09-24_18h08.40.653,torte-2b,2020.1.3,MacIntel,60,13316,,,,,,,,,,,,,space,,,,,,7,0.794,,,,,,,,,,,0,1,1,1,1,,,,,,,,,,,,,,,,,,,,,,,,,,,,,,,
,,,,,,,,,,,,,,,,,,,,,,,19,Female,2020-09-24_18h08.40.653,torte-2b,2020.1.3,MacIntel,60,13316,,,,,,,,,,,,,,,,,,,7,,,,,,,,,,,,0,2,2,2,1,,,,,,,,,,,,,,,,,,,,,,,,,,,,,,,
,,,,,,,,,,,,,,,,,,,,,,,19,Female,2020-09-24_18h08.40.653,torte-2b,2020.1.3,MacIntel,60,13316,,,,,,,,,,,,,,,,,,,4,,,,,,,,,,,,0,3,3,3,1,,,,,,,,,,,,,,,,,,,,,,,,,,,,,,,
,,,,,,,,,,,,,,,,,,,,,,,19,Female,2020-09-24_18h08.40.653,torte-2b,2020.1.3,MacIntel,60,13316,,,,,,,,,,,,,,,,,,,5,,,,,,,,,,,,0,4,4,4,1,,,,,,,,,,,,,,,,,,,,,,,,,,,,,,,
,,,,,,,,,,,,,,,,,,,,,,,19,Female,2020-09-24_18h08.40.653,torte-2b,2020.1.3,MacIntel,60,13316,,,,,,,,,,,,,,,,,,,4,,,,,,,,,,,,0,5,5,5,1,,,,,,,,,,,,,,,,,,,,,,,,,,,,,,,
,,,,,,,,,,,,,,,,,,,,,,,19,Female,2020-09-24_18h08.40.653,torte-2b,2020.1.3,MacIntel,60,13316,,,,,,,,,,,,,,,,,,,2,,,,,,,,,,,,0,6,6,6,1,,,,,,,,,,,,,,,,,,,,,,,,,,,,,,,
,,,,,,,,,,,,,,,,,,,,,,,19,Female,2020-09-24_18h08.40.653,torte-2b,2020.1.3,MacIntel,60,13316,,,,,,,,,,,,,,,,,,,4,,,,,,,,,,,,0,7,7,7,1,,,,,,,,,,,,,,,,,,,,,,,,,,,,,,,
,,,,,,,,,,,,,,,,,,,,,,,19,Female,2020-09-24_18h08.40.653,torte-2b,2020.1.3,MacIntel,60,13316,,,,,,,,,,,,,,,,,,,2,,,,,,,,,,,,0,8,8,8,1,,,,,,,,,,,,,,,,,,,,,,,,,,,,,,,
,,,,,,,,,,,,,,,,,,,,,,,19,Female,2020-09-24_18h08.40.653,torte-2b,2020.1.3,MacIntel,60,13316,,,,,,,,,,,,,space,,,,,,2,0.614,,,,,,,,,,,0,9,9,9,1,,,,,,,,,,,,,,,,,,,,,,,,,,,,,,,
,,,,,,,,,,,,,,,,,,,,,,,19,Female,2020-09-24_18h08.40.653,torte-2b,2020.1.3,MacIntel,60,13316,,,,,,,,,,,,,,,,,,,6,,,,,,,,,,,,0,10,10,10,1,,,,,,,,,,,,,,,,,,,,,,,,,,,,,,,
,,,,,,,,,,,,,,,,,,,,,,,19,Female,2020-09-24_18h08.40.653,torte-2b,2020.1.3,MacIntel,60,13316,,,,,,,,,,,,,,,,,,,2,,,,,,,,,,,,0,11,11,11,1,,,,,,,,,,,,,,,,,,,,,,,,,,,,,,,
,,,,,,,,,,,,,,,,,,,,,,,19,Female,2020-09-24_18h08.40.653,torte-2b,2020.1.3,MacIntel,60,13316,,,,,,,,,,,,,,,,,,,2,,,,,,,,,,,,0,12,12,12,1,,,,,,,,,,,,,,,,,,,,,,,,,,,,,,,
,,,,,,,,,,,,,,,,,,,,,,,19,Female,2020-09-24_18h08.40.653,torte-2b,2020.1.3,MacIntel,60,13316,,,,,,,,,,,,,,,,,,,2,,,,,,,,,,,,0,13,13,13,1,,,,,,,,,,,,,,,,,,,,,,,,,,,,,,,
,,,,,,,,,,,,,,,,,,,,,,,19,Female,2020-09-24_18h08.40.653,torte-2b,2020.1.3,MacIntel,60,13316,,,,,,,,,,,,,,,,,,,2,,,,,,,,,,,,0,14,14,14,1,,,,,,,,,,,,,,,,,,,,,,,,,,,,,,,
,,,,,,,,,,,,,,,,,,,,,,,19,Female,2020-09-24_18h08.40.653,torte-2b,2020.1.3,MacIntel,60,13316,,,,,,,,,,,,,space,,,,,,4,0.301,,,,,,,,,,,0,15,15,15,1,,,,,,,,,,,,,,,,,,,,,,,,,,,,,,,
,,,,,,,,,,,,,,,,,,,,,,,19,Female,2020-09-24_18h08.40.653,torte-2b,2020.1.3,MacIntel,60,13316,,,,,,,,,,,,,space,,,,,,3,1.61,,,,,,,,,,,0,16,16,16,1,,,,,,,,,,,,,,,,,,,,,,,,,,,,,,,
,,,,,,,,,,,,,,,,,,,,,,,19,Female,2020-09-24_18h08.40.653,torte-2b,2020.1.3,MacIntel,60,13316,,,,,,,,,,,,,space,,,,,,7,0.313,,,,,,,,,,,0,17,17,17,1,,,,,,,,,,,,,,,,,,,,,,,,,,,,,,,
,,,,,,,,,,,,,,,,,,,,,,,19,Female,2020-09-24_18h08.40.653,torte-2b,2020.1.3,MacIntel,60,13316,,,,,,,,,,,,,space,,,,,,4,0.388,,,,,,,,,,,0,18,18,18,1,,,,,,,,,,,,,,,,,,,,,,,,,,,,,,,
,,,,,,,,,,,,,,,,,,,,,,,19,Female,2020-09-24_18h08.40.653,torte-2b,2020.1.3,MacIntel,60,13316,,,,,,,,,,,,,space,,,,,,7,0.578,,,,,,,,,,,0,19,19,19,1,,,,,,,,,,,,,,,,,,,,,,,,,,,,,,,
,,,,,,,,,,,,,,,,,,,,,,,19,Female,2020-09-24_18h08.40.653,torte-2b,2020.1.3,MacIntel,60,13316,,,,,,,,,,,,,,,,,,,7,,,,,,,,,,,,0,20,20,20,1,,,,,,,,,,,,,,,,,,,,,,,,,,,,,,,
,,,,,,,,,,,,,,,,,,,,,,,19,Female,2020-09-24_18h08.40.653,torte-2b,2020.1.3,MacIntel,60,13316,,,,,,,,,,,,,space,,,,,,7,1.336,,,,,,,,,,,0,21,21,21,1,,,,,,,,,,,,,,,,,,,,,,,,,,,,,,,
,,,,,,,,,,,,,,,,,,,,,,,19,Female,2020-09-24_18h08.40.653,torte-2b,2020.1.3,MacIntel,60,13316,,,,,,,,,,,,,space,,,,,,7,0.228,,,,,,,,,,,0,22,22,22,1,,,,,,,,,,,,,,,,,,,,,,,,,,,,,,,
,,,,,,,,,,,,,,,,,,,,,,,19,Female,2020-09-24_18h08.40.653,torte-2b,2020.1.3,MacIntel,60,13316,,,,,,,,,,,,,,,,,,,1,,,,,,,,,,,,0,23,23,23,1,,,,,,,,,,,,,,,,,,,,,,,,,,,,,,,
,,,,,,,,,,,,,,,,,,,,,,,19,Female,2020-09-24_18h08.40.653,torte-2b,2020.1.3,MacIntel,60,13316,,,,,,,,,,,,,,,,,,,7,,,,,,,,,,,,0,24,24,24,1,,,,,,,,,,,,,,,,,,,,,,,,,,,,,,,
,,,,,,,,,,,,,,,,,,,,,,,19,Female,2020-09-24_18h08.40.653,torte-2b,2020.1.3,MacIntel,60,13316,,,,,,,,,,,,,space,,,,,,1,0.844,,,,,,,,,,,0,25,25,25,1,,,,,,,,,,,,,,,,,,,,,,,,,,,,,,,
,,,,,,,,,,,,,,,,,,,,,,,19,Female,2020-09-24_18h08.40.653,torte-2b,2020.1.3,MacIntel,60,13316,,,,,,,,,,,,,space,,,,,,7,0.462,,,,,,,,,,,0,26,26,26,1,,,,,,,,,,,,,,,,,,,,,,,,,,,,,,,
,,,,,,,,,,,,,,,,,,,,,,,19,Female,2020-09-24_18h08.40.653,torte-2b,2020.1.3,MacIntel,60,13316,,,,,,,,,,,,,,,,,,,2,,,,,,,,,,,,0,27,27,27,1,,,,,,,,,,,,,,,,,,,,,,,,,,,,,,,
,,,,,,,,,,,,,,,,,,,,,,,19,Female,2020-09-24_18h08.40.653,torte-2b,2020.1.3,MacIntel,60,13316,,,,,,,,,,,,,space,,,,,,5,0.362,,,,,,,,,,,0,28,28,28,1,,,,,,,,,,,,,,,,,,,,,,,,,,,,,,,
,,,,,,,,,,,,,,,,,,,,,,,19,Female,2020-09-24_18h08.40.653,torte-2b,2020.1.3,MacIntel,60,13316,,,,,,,,,,,,,,,,,,,5,,,,,,,,,,,,0,29,29,29,1,,,,,,,,,,,,,,,,,,,,,,,,,,,,,,,
,,,,,,,,,,,,,,,,,,,,,,,19,Female,2020-09-24_18h08.40.653,torte-2b,2020.1.3,MacIntel,60,13316,,,,,,,,,,,,,space,,,,,,5,1.433,,,,,,,,,,,0,30,30,30,1,,,,,,,,,,,,,,,,,,,,,,,,,,,,,,,
,,,,,,,,,,,,,,,,,,,,,,,19,Female,2020-09-24_18h08.40.653,torte-2b,2020.1.3,MacIntel,60,13316,,,,,,,,,,,,,space,,,,,,1,0.037,,,,,,,,,,,0,31,31,31,1,,,,,,,,,,,,,,,,,,,,,,,,,,,,,,,
,,,,,,,,,,,,,,,,,,,,,,,19,Female,2020-09-24_18h08.40.653,torte-2b,2020.1.3,MacIntel,60,13316,,,,,,,,,,,,,,,,,,,5,,,,,,,,,,,,0,32,32,32,1,,,,,,,,,,,,,,,,,,,,,,,,,,,,,,,
,,,,,,,,,,,,,,,,,,,,,,,19,Female,2020-09-24_18h08.40.653,torte-2b,2020.1.3,MacIntel,60,13316,,,,,,,,,,,,,,,,,,,3,,,,,,,,,,,,0,33,33,33,1,,,,,,,,,,,,,,,,,,,,,,,,,,,,,,,
,,,,,,,,,,,,,,,,,,,,,,,19,Female,2020-09-24_18h08.40.653,torte-2b,2020.1.3,MacIntel,60,13316,,,,,,,,,,,,,,,,,,,3,,,,,,,,,,,,0,34,34,34,1,,,,,,,,,,,,,,,,,,,,,,,,,,,,,,,
,,,,,,,,,,,,l,Correct!,,,,,,t2.png,t3.png,1,0.90855,19,Female,2020-09-24_18h08.40.653,torte-2b,2020.1.3,MacIntel,60,13316,1.173,space,2.765,,,,,,,,,,,,,,,,,,,,,,,,,,,,,,,,,space,256.157,0,0,0,65,1,,,,,,,,,,,,,,,,,,,,,,,,
,,,,,,,,,,,,a,Correct!,,,,,,t5.png,t3.png,2,0.0565,19,Female,2020-09-24_18h08.40.653,torte-2b,2020.1.3,MacIntel,60,13316,1.334,,,,,,,,,,,,,,,,,,,,,,,,,,,,,,,,,,,,,0,1,1,39,1,,,,,,,,,,,,,,,,,,,,,,,,
,,,,,,,,,,,,l,Incorrect,,,,,,t2.png,t3.png,1,0.909,19,Female,2020-09-24_18h08.40.653,torte-2b,2020.1.3,MacIntel,60,13316,1.283,,,,,,,,,,,,,,,,,,,,,,,,,,,,,,,,,,,,,0,2,2,74,1,,,,,,,,,,,,,,,,,,,,,,,,
,,,,,,,,,,,,a,Correct!,,,,,,t4.png,t3.png,1,0.909,19,Female,2020-09-24_18h08.40.653,torte-2b,2020.1.3,MacIntel,60,13316,1.085,,,,,,,,,,,,,,,,,,,,,,,,,,,,,,,,,,,,,0,3,3,20,1,,,,,,,,,,,,,,,,,,,,,,,,
,,,,,,,,,,,,l,Correct!,,,,,,t1.png,t3.png,2,0.056466,19,Female,2020-09-24_18h08.40.653,torte-2b,2020.1.3,MacIntel,60,13316,0.859,,,,,,,,,,,,,,,,,,,,,,,,,,,,,,,,,,,,,0,4,4,60,1,,,,,,,,,,,,,,,,,,,,,,,,
,,,,,,,,,,,,l,Correct!,,,,,,t2.png,t5.png,3,0.0000131,19,Female,2020-09-24_18h08.40.653,torte-2b,2020.1.3,MacIntel,60,13316,0.749,,,,,,,,,,,,,,,,,,,,,,,,,,,,,,,,,,,,,0,5,5,104,1,,,,,,,,,,,,,,,,,,,,,,,,
,,,,,,,,,,,,l,Correct!,,,,,,t3.png,t5.png,2,0.056466,19,Female,2020-09-24_18h08.40.653,torte-2b,2020.1.3,MacIntel,60,13316,0.81,,,,,,,,,,,,,,,,,,,,,,,,,,,,,,,,,,,,,0,6,6,6,1,,,,,,,,,,,,,,,,,,,,,,,,
,,,,,,,,,,,,a,Correct!,,,,,,t5.png,t4.png,1,0.90025,19,Female,2020-09-24_18h08.40.653,torte-2b,2020.1.3,MacIntel,60,13316,1.933,,,,,,,,,,,,,,,,,,,,,,,,,,,,,,,,,,,,,0,7,7,34,1,,,,,,,,,,,,,,,,,,,,,,,,
,,,,,,,,,,,,a,Correct!,,,,,,t4.png,t4.png,0,0.98115,19,Female,2020-09-24_18h08.40.653,torte-2b,2020.1.3,MacIntel,60,13316,1.302,,,,,,,,,,,,,,,,,,,,,,,,,,,,,,,,,,,,,0,8,8,90,1,,,,,,,,,,,,,,,,,,,,,,,,
,,,,,,,,,,,,a,Incorrect,,,,,,t5.png,t2.png,3,0.0000131,19,Female,2020-09-24_18h08.40.653,torte-2b,2020.1.3,MacIntel,60,13316,1.786,,,,,,,,,,,,,,,,,,,,,,,,,,,,,,,,,,,,,0,9,9,119,1,,,,,,,,,,,,,,,,,,,,,,,,
,,,,,,,,,,,,l,Correct!,,,,,,t3.png,t4.png,1,0.90855,19,Female,2020-09-24_18h08.40.653,torte-2b,2020.1.3,MacIntel,60,13316,0.934,,,,,,,,,,,,,,,,,,,,,,,,,,,,,,,,,,,,,0,10,10,84,1,,,,,,,,,,,,,,,,,,,,,,,,
,,,,,,,,,,,,l,Correct!,,,,,,t3.png,t5.png,2,0.056466,19,Female,2020-09-24_18h08.40.653,torte-2b,2020.1.3,MacIntel,60,13316,0.932,,,,,,,,,,,,,,,,,,,,,,,,,,,,,,,,,,,,,0,11,11,14,1,,,,,,,,,,,,,,,,,,,,,,,,
,,,,,,,,,,,,l,Correct!,,,,,,t1.png,t5.png,4,9.55E-11,19,Female,2020-09-24_18h08.40.653,torte-2b,2020.1.3,MacIntel,60,13316,1.486,,,,,,,,,,,,,,,,,,,,,,,,,,,,,,,,,,,,,0,12,12,85,1,,,,,,,,,,,,,,,,,,,,,,,,
,,,,,,,,,,,,l,Correct!,,,,,,t2.png,t5.png,3,0.0000131,19,Female,2020-09-24_18h08.40.653,torte-2b,2020.1.3,MacIntel,60,13316,0.863,,,,,,,,,,,,,,,,,,,,,,,,,,,,,,,,,,,,,0,13,13,8,1,,,,,,,,,,,,,,,,,,,,,,,,
,,,,,,,,,,,,a,Incorrect,,,,,,t4.png,t3.png,1,0.90855,19,Female,2020-09-24_18h08.40.653,torte-2b,2020.1.3,MacIntel,60,13316,1.284,,,,,,,,,,,,,,,,,,,,,,,,,,,,,,,,,,,,,0,14,14,75,1,,,,,,,,,,,,,,,,,,,,,,,,
,,,,,,,,,,,,l,Correct!,,,,,,t3.png,t5.png,2,0.0565,19,Female,2020-09-24_18h08.40.653,torte-2b,2020.1.3,MacIntel,60,13316,1.061,,,,,,,,,,,,,,,,,,,,,,,,,,,,,,,,,,,,,0,15,15,30,1,,,,,,,,,,,,,,,,,,,,,,,,
,,,,,,,,,,,,l,Correct!,,,,,,t2.png,t4.png,2,0.0591,19,Female,2020-09-24_18h08.40.653,torte-2b,2020.1.3,MacIntel,60,13316,1.62,,,,,,,,,,,,,,,,,,,,,,,,,,,,,,,,,,,,,0,16,16,15,1,,,,,,,,,,,,,,,,,,,,,,,,
,,,,,,,,,,,,l,Correct!,,,,,,t1.png,t2.png,1,0.90025,19,Female,2020-09-24_18h08.40.653,torte-2b,2020.1.3,MacIntel,60,13316,1.526,,,,,,,,,,,,,,,,,,,,,,,,,,,,,,,,,,,,,0,17,17,112,1,,,,,,,,,,,,,,,,,,,,,,,,
,,,,,,,,,,,,,Too slow :(,,,,,,t1.png,t2.png,1,0.90025,19,Female,2020-09-24_18h08.40.653,torte-2b,2020.1.3,MacIntel,60,13316,,,,,,,,,,,,,,,,,,,,,,,,,,,,,,,,,,,,,,0,18,18,105,1,,,,,,,,,,,,,,,,,,,,,,,,
,,,,,,,,,,,,l,Incorrect,,,,,,t2.png,t3.png,1,0.90855,19,Female,2020-09-24_18h08.40.653,torte-2b,2020.1.3,MacIntel,60,13316,1.546,,,,,,,,,,,,,,,,,,,,,,,,,,,,,,,,,,,,,0,19,19,68,1,,,,,,,,,,,,,,,,,,,,,,,,
,,,,,,,,,,,,a,Incorrect,,,,,,t4.png,t3.png,1,0.90855,19,Female,2020-09-24_18h08.40.653,torte-2b,2020.1.3,MacIntel,60,13316,1.272,,,,,,,,,,,,,,,,,,,,,,,,,,,,,,,,,,,,,0,20,20,35,1,,,,,,,,,,,,,,,,,,,,,,,,
,,,,,,,,,,,,a,Incorrect,,,,,,t3.png,t1.png,2,0.056466,19,Female,2020-09-24_18h08.40.653,torte-2b,2020.1.3,MacIntel,60,13316,1.185,,,,,,,,,,,,,,,,,,,,,,,,,,,,,,,,,,,,,0,21,21,0,1,,,,,,,,,,,,,,,,,,,,,,,,
,,,,,,,,,,,,l,Correct!,,,,,,t1.png,t3.png,2,0.056466,19,Female,2020-09-24_18h08.40.653,torte-2b,2020.1.3,MacIntel,60,13316,1.015,,,,,,,,,,,,,,,,,,,,,,,,,,,,,,,,,,,,,0,22,22,99,1,,,,,,,,,,,,,,,,,,,,,,,,
,,,,,,,,,,,,a,Correct!,,,,,,t5.png,t4.png,1,0.9,19,Female,2020-09-24_18h08.40.653,torte-2b,2020.1.3,MacIntel,60,13316,1.686,,,,,,,,,,,,,,,,,,,,,,,,,,,,,,,,,,,,,0,23,23,49,1,,,,,,,,,,,,,,,,,,,,,,,,
,,,,,,,,,,,,a,Incorrect,,,,,,t5.png,t1.png,4,9.55E-11,19,Female,2020-09-24_18h08.40.653,torte-2b,2020.1.3,MacIntel,60,13316,2.263,,,,,,,,,,,,,,,,,,,,,,,,,,,,,,,,,,,,,0,24,24,100,1,,,,,,,,,,,,,,,,,,,,,,,,
,,,,,,,,,,,,a,Incorrect,,,,,,t4.png,t1.png,3,0.0000131,19,Female,2020-09-24_18h08.40.653,torte-2b,2020.1.3,MacIntel,60,13316,2.318,,,,,,,,,,,,,,,,,,,,,,,,,,,,,,,,,,,,,0,25,25,42,1,,,,,,,,,,,,,,,,,,,,,,,,
,,,,,,,,,,,,a,Incorrect,,,,,,t1.png,t2.png,1,0.9,19,Female,2020-09-24_18h08.40.653,torte-2b,2020.1.3,MacIntel,60,13316,1.398,,,,,,,,,,,,,,,,,,,,,,,,,,,,,,,,,,,,,0,26,26,1,1,,,,,,,,,,,,,,,,,,,,,,,,
,,,,,,,,,,,,l,Incorrect,,,,,,t2.png,t2.png,0,0.98115,19,Female,2020-09-24_18h08.40.653,torte-2b,2020.1.3,MacIntel,60,13316,0.831,,,,,,,,,,,,,,,,,,,,,,,,,,,,,,,,,,,,,0,27,27,57,1,,,,,,,,,,,,,,,,,,,,,,,,
,,,,,,,,,,,,a,Correct!,,,,,,t2.png,t2.png,0,0.98115,19,Female,2020-09-24_18h08.40.653,torte-2b,2020.1.3,MacIntel,60,13316,0.786,,,,,,,,,,,,,,,,,,,,,,,,,,,,,,,,,,,,,0,28,28,59,1,,,,,,,,,,,,,,,,,,,,,,,,
,,,,,,,,,,,,l,Correct!,,,,,,t2.png,t4.png,2,0.059078,19,Female,2020-09-24_18h08.40.653,torte-2b,2020.1.3,MacIntel,60,13316,1.533,,,,,,,,,,,,,,,,,,,,,,,,,,,,,,,,,,,,,0,29,29,11,1,,,,,,,,,,,,,,,,,,,,,,,,
,,,,,,,,,,,,a,Incorrect,,,,,,t3.png,t1.png,2,0.056466,19,Female,2020-09-24_18h08.40.653,torte-2b,2020.1.3,MacIntel,60,13316,1.715,,,,,,,,,,,,,,,,,,,,,,,,,,,,,,,,,,,,,0,30,30,29,1,,,,,,,,,,,,,,,,,,,,,,,,
,,,,,,,,,,,,l,Correct!,,,,,,t4.png,t2.png,2,0.059078,19,Female,2020-09-24_18h08.40.653,torte-2b,2020.1.3,MacIntel,60,13316,0.873,,,,,,,,,,,,,,,,,,,,,,,,,,,,,,,,,,,,,0,31,31,86,1,,,,,,,,,,,,,,,,,,,,,,,,
,,,,,,,,,,,,a,Correct!,,,,,,t1.png,t2.png,1,0.90025,19,Female,2020-09-24_18h08.40.653,torte-2b,2020.1.3,MacIntel,60,13316,1.555,,,,,,,,,,,,,,,,,,,,,,,,,,,,,,,,,,,,,0,32,32,72,1,,,,,,,,,,,,,,,,,,,,,,,,
,,,,,,,,,,,,a,Correct!,,,,,,t2.png,t1.png,1,0.9,19,Female,2020-09-24_18h08.40.653,torte-2b,2020.1.3,MacIntel,60,13316,2.279,,,,,,,,,,,,,,,,,,,,,,,,,,,,,,,,,,,,,0,33,33,118,1,,,,,,,,,,,,,,,,,,,,,,,,
,,,,,,,,,,,,a,Correct!,,,,,,t3.png,t4.png,1,0.909,19,Female,2020-09-24_18h08.40.653,torte-2b,2020.1.3,MacIntel,60,13316,1.756,,,,,,,,,,,,,,,,,,,,,,,,,,,,,,,,,,,,,0,34,34,106,1,,,,,,,,,,,,,,,,,,,,,,,,
,,,,,,,,,,,,l,Incorrect,,,,,,t4.png,t5.png,1,0.90025,19,Female,2020-09-24_18h08.40.653,torte-2b,2020.1.3,MacIntel,60,13316,1.737,,,,,,,,,,,,,,,,,,,,,,,,,,,,,,,,,,,,,0,35,35,47,1,,,,,,,,,,,,,,,,,,,,,,,,
,,,,,,,,,,,,l,Correct!,,,,,,t1.png,t3.png,2,0.056466,19,Female,2020-09-24_18h08.40.653,torte-2b,2020.1.3,MacIntel,60,13316,1.898,,,,,,,,,,,,,,,,,,,,,,,,,,,,,,,,,,,,,0,36,36,63,1,,,,,,,,,,,,,,,,,,,,,,,,
,,,,,,,,,,,,a,Incorrect,,,,,,t5.png,t1.png,4,9.55E-11,19,Female,2020-09-24_18h08.40.653,torte-2b,2020.1.3,MacIntel,60,13316,1.223,,,,,,,,,,,,,,,,,,,,,,,,,,,,,,,,,,,,,0,37,37,102,1,,,,,,,,,,,,,,,,,,,,,,,,
,,,,,,,,,,,,l,Incorrect,,,,,,t3.png,t4.png,1,0.909,19,Female,2020-09-24_18h08.40.653,torte-2b,2020.1.3,MacIntel,60,13316,1.283,,,,,,,,,,,,,,,,,,,,,,,,,,,,,,,,,,,,,0,38,38,89,1,,,,,,,,,,,,,,,,,,,,,,,,
,,,,,,,,,,,,l,Correct!,,,,,,t5.png,t3.png,2,0.056466,19,Female,2020-09-24_18h08.40.653,torte-2b,2020.1.3,MacIntel,60,13316,0.871,,,,,,,,,,,,,,,,,,,,,,,,,,,,,,,,,,,,,0,39,39,108,1,,,,,,,,,,,,,,,,,,,,,,,,
,,,,,,,,,,,,a,Incorrect,,,,,,t1.png,t5.png,4,9.55E-11,19,Female,2020-09-24_18h08.40.653,torte-2b,2020.1.3,MacIntel,60,13316,0.603,,,,,,,,,,,,,,,,,,,,,,,,,,,,,,,,,,,,,0,40,40,12,1,,,,,,,,,,,,,,,,,,,,,,,,
,,,,,,,,,,,,a,Incorrect,,,,,,t5.png,t2.png,3,0.0000131,19,Female,2020-09-24_18h08.40.653,torte-2b,2020.1.3,MacIntel,60,13316,0.985,,,,,,,,,,,,,,,,,,,,,,,,,,,,,,,,,,,,,0,41,41,116,1,,,,,,,,,,,,,,,,,,,,,,,,
,,,,,,,,,,,,a,Correct!,,,,,,t2.png,t2.png,0,0.98115,19,Female,2020-09-24_18h08.40.653,torte-2b,2020.1.3,MacIntel,60,13316,1.52,,,,,,,,,,,,,,,,,,,,,,,,,,,,,,,,,,,,,0,42,42,2,1,,,,,,,,,,,,,,,,,,,,,,,,
,,,,,,,,,,,,l,Correct!,,,,,,t4.png,t3.png,1,0.909,19,Female,2020-09-24_18h08.40.653,torte-2b,2020.1.3,MacIntel,60,13316,1.504,,,,,,,,,,,,,,,,,,,,,,,,,,,,,,,,,,,,,0,43,43,46,1,,,,,,,,,,,,,,,,,,,,,,,,
,,,,,,,,,,,,a,Correct!,,,,,,t3.png,t4.png,1,0.909,19,Female,2020-09-24_18h08.40.653,torte-2b,2020.1.3,MacIntel,60,13316,0.637,,,,,,,,,,,,,,,,,,,,,,,,,,,,,,,,,,,,,0,44,44,82,1,,,,,,,,,,,,,,,,,,,,,,,,
,,,,,,,,,,,,l,Incorrect,,,,,,t4.png,t5.png,1,0.9,19,Female,2020-09-24_18h08.40.653,torte-2b,2020.1.3,MacIntel,60,13316,0.707,,,,,,,,,,,,,,,,,,,,,,,,,,,,,,,,,,,,,0,45,45,115,1,,,,,,,,,,,,,,,,,,,,,,,,
,,,,,,,,,,,,a,Correct!,,,,,,t3.png,t2.png,1,0.90855,19,Female,2020-09-24_18h08.40.653,torte-2b,2020.1.3,MacIntel,60,13316,1.369,,,,,,,,,,,,,,,,,,,,,,,,,,,,,,,,,,,,,0,46,46,18,1,,,,,,,,,,,,,,,,,,,,,,,,
,,,,,,,,,,,,a,Correct!,,,,,,t5.png,t5.png,0,0.97829,19,Female,2020-09-24_18h08.40.653,torte-2b,2020.1.3,MacIntel,60,13316,2.384,,,,,,,,,,,,,,,,,,,,,,,,,,,,,,,,,,,,,0,47,47,70,1,,,,,,,,,,,,,,,,,,,,,,,,
,,,,,,,,,,,,l,Incorrect,,,,,,t5.png,t5.png,0,0.97829,19,Female,2020-09-24_18h08.40.653,torte-2b,2020.1.3,MacIntel,60,13316,0.919,,,,,,,,,,,,,,,,,,,,,,,,,,,,,,,,,,,,,0,48,48,25,1,,,,,,,,,,,,,,,,,,,,,,,,
,,,,,,,,,,,,,Too slow :(,,,,,,t3.png,t4.png,1,0.90855,19,Female,2020-09-24_18h08.40.653,torte-2b,2020.1.3,MacIntel,60,13316,,,,,,,,,,,,,,,,,,,,,,,,,,,,,,,,,,,,,,0,49,49,96,1,,,,,,,,,,,,,,,,,,,,,,,,
,,,,,,,,,,,,a,Correct!,,,,,,t4.png,t4.png,0,0.98115,19,Female,2020-09-24_18h08.40.653,torte-2b,2020.1.3,MacIntel,60,13316,1.323,,,,,,,,,,,,,,,,,,,,,,,,,,,,,,,,,,,,,0,50,50,80,1,,,,,,,,,,,,,,,,,,,,,,,,
,,,,,,,,,,,,l,Correct!,,,,,,t1.png,t4.png,3,0.0000131,19,Female,2020-09-24_18h08.40.653,torte-2b,2020.1.3,MacIntel,60,13316,1.015,,,,,,,,,,,,,,,,,,,,,,,,,,,,,,,,,,,,,0,51,51,17,1,,,,,,,,,,,,,,,,,,,,,,,,
,,,,,,,,,,,,a,Incorrect,,,,,,t1.png,t5.png,4,9.55E-11,19,Female,2020-09-24_18h08.40.653,torte-2b,2020.1.3,MacIntel,60,13316,1.113,,,,,,,,,,,,,,,,,,,,,,,,,,,,,,,,,,,,,0,52,52,55,1,,,,,,,,,,,,,,,,,,,,,,,,
,,,,,,,,,,,,l,Incorrect,,,,,,t5.png,t4.png,1,0.9,19,Female,2020-09-24_18h08.40.653,torte-2b,2020.1.3,MacIntel,60,13316,0.639,,,,,,,,,,,,,,,,,,,,,,,,,,,,,,,,,,,,,0,53,53,76,1,,,,,,,,,,,,,,,,,,,,,,,,
,,,,,,,,,,,,a,Correct!,,,,,,t3.png,t2.png,1,0.909,19,Female,2020-09-24_18h08.40.653,torte-2b,2020.1.3,MacIntel,60,13316,0.306,,,,,,,,,,,,,,,,,,,,,,,,,,,,,,,,,,,,,0,54,54,3,1,,,,,,,,,,,,,,,,,,,,,,,,
,,,,,,,,,,,,l,Incorrect,,,,,,t5.png,t5.png,0,0.978,19,Female,2020-09-24_18h08.40.653,torte-2b,2020.1.3,MacIntel,60,13316,0.348,,,,,,,,,,,,,,,,,,,,,,,,,,,,,,,,,,,,,0,55,55,117,1,,,,,,,,,,,,,,,,,,,,,,,,
,,,,,,,,,,,,l,Incorrect,,,,,,t5.png,t5.png,0,0.97829,19,Female,2020-09-24_18h08.40.653,torte-2b,2020.1.3,MacIntel,60,13316,1.2,,,,,,,,,,,,,,,,,,,,,,,,,,,,,,,,,,,,,0,56,56,94,1,,,,,,,,,,,,,,,,,,,,,,,,
,,,,,,,,,,,,l,Incorrect,,,,,,t1.png,t1.png,0,0.97829,19,Female,2020-09-24_18h08.40.653,torte-2b,2020.1.3,MacIntel,60,13316,0.405,,,,,,,,,,,,,,,,,,,,,,,,,,,,,,,,,,,,,0,57,57,9,1,,,,,,,,,,,,,,,,,,,,,,,,
,,,,,,,,,,,,l,Correct!,,,,,,t5.png,t1.png,4,9.55E-11,19,Female,2020-09-24_18h08.40.653,torte-2b,2020.1.3,MacIntel,60,13316,0.536,,,,,,,,,,,,,,,,,,,,,,,,,,,,,,,,,,,,,0,58,58,22,1,,,,,,,,,,,,,,,,,,,,,,,,
,,,,,,,,,,,,a,Correct!,,,,,,t2.png,t1.png,1,0.90025,19,Female,2020-09-24_18h08.40.653,torte-2b,2020.1.3,MacIntel,60,13316,0.42,,,,,,,,,,,,,,,,,,,,,,,,,,,,,,,,,,,,,0,59,59,4,1,,,,,,,,,,,,,,,,,,,,,,,,
,,,,,,,,,,,,a,Correct!,,,,,,t4.png,t4.png,0,0.98115,19,Female,2020-09-24_18h08.40.653,torte-2b,2020.1.3,MacIntel,60,13316,1.064,,,,,,,,,,,,,,,,,,,,,,,,,,,,,,,,,,,,,0,60,60,79,1,,,,,,,,,,,,,,,,,,,,,,,,
,,,,,,,,,,,,l,Incorrect,,,,,,t2.png,t2.png,0,0.98115,19,Female,2020-09-24_18h08.40.653,torte-2b,2020.1.3,MacIntel,60,13316,0.447,,,,,,,,,,,,,,,,,,,,,,,,,,,,,,,,,,,,,0,61,61,7,1,,,,,,,,,,,,,,,,,,,,,,,,
,,,,,,,,,,,,a,Incorrect,,,,,,t1.png,t4.png,3,0.0000131,19,Female,2020-09-24_18h08.40.653,torte-2b,2020.1.3,MacIntel,60,13316,1.665,,,,,,,,,,,,,,,,,,,,,,,,,,,,,,,,,,,,,0,62,62,50,1,,,,,,,,,,,,,,,,,,,,,,,,
,,,,,,,,,,,,l,Incorrect,,,,,,t2.png,t1.png,1,0.90025,19,Female,2020-09-24_18h08.40.653,torte-2b,2020.1.3,MacIntel,60,13316,0.739,,,,,,,,,,,,,,,,,,,,,,,,,,,,,,,,,,,,,0,63,63,62,1,,,,,,,,,,,,,,,,,,,,,,,,
,,,,,,,,,,,,a,Correct!,,,,,,t1.png,t2.png,1,0.90025,19,Female,2020-09-24_18h08.40.653,torte-2b,2020.1.3,MacIntel,60,13316,1.456,,,,,,,,,,,,,,,,,,,,,,,,,,,,,,,,,,,,,0,64,64,33,1,,,,,,,,,,,,,,,,,,,,,,,,
,,,,,,,,,,,,l,Correct!,,,,,,t4.png,t2.png,2,0.0591,19,Female,2020-09-24_18h08.40.653,torte-2b,2020.1.3,MacIntel,60,13316,1.754,,,,,,,,,,,,,,,,,,,,,,,,,,,,,,,,,,,,,0,65,65,36,1,,,,,,,,,,,,,,,,,,,,,,,,
,,,,,,,,,,,,l,Correct!,,,,,,t1.png,t4.png,3,0.0000131,19,Female,2020-09-24_18h08.40.653,torte-2b,2020.1.3,MacIntel,60,13316,1.264,,,,,,,,,,,,,,,,,,,,,,,,,,,,,,,,,,,,,0,66,66,92,1,,,,,,,,,,,,,,,,,,,,,,,,
,,,,,,,,,,,,a,Incorrect,,,,,,t1.png,t5.png,4,9.55E-11,19,Female,2020-09-24_18h08.40.653,torte-2b,2020.1.3,MacIntel,60,13316,1.424,,,,,,,,,,,,,,,,,,,,,,,,,,,,,,,,,,,,,0,67,67,41,1,,,,,,,,,,,,,,,,,,,,,,,,
,,,,,,,,,,,,l,Correct!,,,,,,t5.png,t3.png,2,0.056466,19,Female,2020-09-24_18h08.40.653,torte-2b,2020.1.3,MacIntel,60,13316,1.3,,,,,,,,,,,,,,,,,,,,,,,,,,,,,,,,,,,,,0,68,68,56,1,,,,,,,,,,,,,,,,,,,,,,,,
,,,,,,,,,,,,a,Correct!,,,,,,t3.png,t2.png,1,0.90855,19,Female,2020-09-24_18h08.40.653,torte-2b,2020.1.3,MacIntel,60,13316,1.248,,,,,,,,,,,,,,,,,,,,,,,,,,,,,,,,,,,,,0,69,69,97,1,,,,,,,,,,,,,,,,,,,,,,,,
,,,,,,,,,,,,l,Incorrect,,,,,,t4.png,t4.png,0,0.98115,19,Female,2020-09-24_18h08.40.653,torte-2b,2020.1.3,MacIntel,60,13316,0.99,,,,,,,,,,,,,,,,,,,,,,,,,,,,,,,,,,,,,0,70,70,21,1,,,,,,,,,,,,,,,,,,,,,,,,
,,,,,,,,,,,,l,Correct!,,,,,,t2.png,t5.png,3,0.0000131,19,Female,2020-09-24_18h08.40.653,torte-2b,2020.1.3,MacIntel,60,13316,1.868,,,,,,,,,,,,,,,,,,,,,,,,,,,,,,,,,,,,,0,71,71,40,1,,,,,,,,,,,,,,,,,,,,,,,,
,,,,,,,,,,,,a,Incorrect,,,,,,t4.png,t2.png,2,0.059078,19,Female,2020-09-24_18h08.40.653,torte-2b,2020.1.3,MacIntel,60,13316,0.857,,,,,,,,,,,,,,,,,,,,,,,,,,,,,,,,,,,,,0,72,72,109,1,,,,,,,,,,,,,,,,,,,,,,,,
,,,,,,,,,,,,,Too slow :(,,,,,,t5.png,t4.png,1,0.90025,19,Female,2020-09-24_18h08.40.653,torte-2b,2020.1.3,MacIntel,60,13316,,,,,,,,,,,,,,,,,,,,,,,,,,,,,,,,,,,,,,0,73,73,26,1,,,,,,,,,,,,,,,,,,,,,,,,
,,,,,,,,,,,,l,Incorrect,,,,,,t1.png,t1.png,0,0.97829,19,Female,2020-09-24_18h08.40.653,torte-2b,2020.1.3,MacIntel,60,13316,1.122,,,,,,,,,,,,,,,,,,,,,,,,,,,,,,,,,,,,,0,74,74,67,1,,,,,,,,,,,,,,,,,,,,,,,,
,,,,,,,,,,,,a,Correct!,,,,,,t2.png,t1.png,1,0.90025,19,Female,2020-09-24_18h08.40.653,torte-2b,2020.1.3,MacIntel,60,13316,0.787,,,,,,,,,,,,,,,,,,,,,,,,,,,,,,,,,,,,,0,75,75,5,1,,,,,,,,,,,,,,,,,,,,,,,,
,,,,,,,,,,,,l,Incorrect,,,,,,t4.png,t5.png,1,0.90025,19,Female,2020-09-24_18h08.40.653,torte-2b,2020.1.3,MacIntel,60,13316,0.715,,,,,,,,,,,,,,,,,,,,,,,,,,,,,,,,,,,,,0,76,76,113,1,,,,,,,,,,,,,,,,,,,,,,,,
,,,,,,,,,,,,a,Correct!,,,,,,t4.png,t5.png,1,0.90025,19,Female,2020-09-24_18h08.40.653,torte-2b,2020.1.3,MacIntel,60,13316,0.635,,,,,,,,,,,,,,,,,,,,,,,,,,,,,,,,,,,,,0,77,77,103,1,,,,,,,,,,,,,,,,,,,,,,,,
,,,,,,,,,,,,l,Correct!,,,,,,t4.png,t2.png,2,0.059078,19,Female,2020-09-24_18h08.40.653,torte-2b,2020.1.3,MacIntel,60,13316,0.654,,,,,,,,,,,,,,,,,,,,,,,,,,,,,,,,,,,,,0,78,78,88,1,,,,,,,,,,,,,,,,,,,,,,,,
,,,,,,,,,,,,a,Incorrect,,,,,,t4.png,t1.png,3,0.0000131,19,Female,2020-09-24_18h08.40.653,torte-2b,2020.1.3,MacIntel,60,13316,0.698,,,,,,,,,,,,,,,,,,,,,,,,,,,,,,,,,,,,,0,79,79,61,1,,,,,,,,,,,,,,,,,,,,,,,,
,,,,,,,,,,,,a,Incorrect,,,,,,t3.png,t1.png,2,0.0565,19,Female,2020-09-24_18h08.40.653,torte-2b,2020.1.3,MacIntel,60,13316,0.64,,,,,,,,,,,,,,,,,,,,,,,,,,,,,,,,,,,,,0,80,80,31,1,,,,,,,,,,,,,,,,,,,,,,,,
,,,,,,,,,,,,l,Incorrect,,,,,,t3.png,t2.png,1,0.909,19,Female,2020-09-24_18h08.40.653,torte-2b,2020.1.3,MacIntel,60,13316,0.57,,,,,,,,,,,,,,,,,,,,,,,,,,,,,,,,,,,,,0,81,81,23,1,,,,,,,,,,,,,,,,,,,,,,,,
,,,,,,,,,,,,a,Correct!,,,,,,t3.png,t2.png,1,0.90855,19,Female,2020-09-24_18h08.40.653,torte-2b,2020.1.3,MacIntel,60,13316,0.982,,,,,,,,,,,,,,,,,,,,,,,,,,,,,,,,,,,,,0,82,82,53,1,,,,,,,,,,,,,,,,,,,,,,,,
,,,,,,,,,,,,l,Correct!,,,,,,t1.png,t5.png,4,9.55E-11,19,Female,2020-09-24_18h08.40.653,torte-2b,2020.1.3,MacIntel,60,13316,0.556,,,,,,,,,,,,,,,,,,,,,,,,,,,,,,,,,,,,,0,83,83,16,1,,,,,,,,,,,,,,,,,,,,,,,,
,,,,,,,,,,,,l,Correct!,,,,,,t3.png,t5.png,2,0.0565,19,Female,2020-09-24_18h08.40.653,torte-2b,2020.1.3,MacIntel,60,13316,0.824,,,,,,,,,,,,,,,,,,,,,,,,,,,,,,,,,,,,,0,84,84,83,1,,,,,,,,,,,,,,,,,,,,,,,,
,,,,,,,,,,,,a,Incorrect,,,,,,t5.png,t4.png,1,0.90025,19,Female,2020-09-24_18h08.40.653,torte-2b,2020.1.3,MacIntel,60,13316,2.367,,,,,,,,,,,,,,,,,,,,,,,,,,,,,,,,,,,,,0,85,85,27,1,,,,,,,,,,,,,,,,,,,,,,,,
,,,,,,,,,,,,l,Correct!,,,,,,t5.png,t1.png,4,9.55E-11,19,Female,2020-09-24_18h08.40.653,torte-2b,2020.1.3,MacIntel,60,13316,0.623,,,,,,,,,,,,,,,,,,,,,,,,,,,,,,,,,,,,,0,86,86,71,1,,,,,,,,,,,,,,,,,,,,,,,,
,,,,,,,,,,,,a,Incorrect,,,,,,t5.png,t2.png,3,0.0000131,19,Female,2020-09-24_18h08.40.653,torte-2b,2020.1.3,MacIntel,60,13316,0.855,,,,,,,,,,,,,,,,,,,,,,,,,,,,,,,,,,,,,0,87,87,98,1,,,,,,,,,,,,,,,,,,,,,,,,
,,,,,,,,,,,,l,Correct!,,,,,,t4.png,t2.png,2,0.059078,19,Female,2020-09-24_18h08.40.653,torte-2b,2020.1.3,MacIntel,60,13316,0.633,,,,,,,,,,,,,,,,,,,,,,,,,,,,,,,,,,,,,0,88,88,110,1,,,,,,,,,,,,,,,,,,,,,,,,
,,,,,,,,,,,,a,Correct!,,,,,,t4.png,t4.png,0,0.98115,19,Female,2020-09-24_18h08.40.653,torte-2b,2020.1.3,MacIntel,60,13316,1.432,,,,,,,,,,,,,,,,,,,,,,,,,,,,,,,,,,,,,0,89,89,52,1,,,,,,,,,,,,,,,,,,,,,,,,
,,,,,,,,,,,,a,Incorrect,,,,,,t5.png,t3.png,2,0.056466,19,Female,2020-09-24_18h08.40.653,torte-2b,2020.1.3,MacIntel,60,13316,1.333,,,,,,,,,,,,,,,,,,,,,,,,,,,,,,,,,,,,,0,90,90,114,1,,,,,,,,,,,,,,,,,,,,,,,,
,,,,,,,,,,,,l,Correct!,,,,,,t2.png,t5.png,3,0.0000131,19,Female,2020-09-24_18h08.40.653,torte-2b,2020.1.3,MacIntel,60,13316,1.59,,,,,,,,,,,,,,,,,,,,,,,,,,,,,,,,,,,,,0,91,91,95,1,,,,,,,,,,,,,,,,,,,,,,,,
,,,,,,,,,,,,l,Incorrect,,,,,,t1.png,t1.png,0,0.97829,19,Female,2020-09-24_18h08.40.653,torte-2b,2020.1.3,MacIntel,60,13316,1.171,,,,,,,,,,,,,,,,,,,,,,,,,,,,,,,,,,,,,0,92,92,78,1,,,,,,,,,,,,,,,,,,,,,,,,
,,,,,,,,,,,,a,Correct!,,,,,,t4.png,t3.png,1,0.90855,19,Female,2020-09-24_18h08.40.653,torte-2b,2020.1.3,MacIntel,60,13316,1.083,,,,,,,,,,,,,,,,,,,,,,,,,,,,,,,,,,,,,0,93,93,45,1,,,,,,,,,,,,,,,,,,,,,,,,
,,,,,,,,,,,,a,Incorrect,,,,,,t4.png,t1.png,3,0.0000131,19,Female,2020-09-24_18h08.40.653,torte-2b,2020.1.3,MacIntel,60,13316,1.8,,,,,,,,,,,,,,,,,,,,,,,,,,,,,,,,,,,,,0,94,94,48,1,,,,,,,,,,,,,,,,,,,,,,,,
,,,,,,,,,,,,l,Correct!,,,,,,t1.png,t4.png,3,0.0000131,19,Female,2020-09-24_18h08.40.653,torte-2b,2020.1.3,MacIntel,60,13316,1.123,,,,,,,,,,,,,,,,,,,,,,,,,,,,,,,,,,,,,0,95,95,107,1,,,,,,,,,,,,,,,,,,,,,,,,
,,,,,,,,,,,,a,Incorrect,,,,,,t3.png,t1.png,2,0.056466,19,Female,2020-09-24_18h08.40.653,torte-2b,2020.1.3,MacIntel,60,13316,1.77,,,,,,,,,,,,,,,,,,,,,,,,,,,,,,,,,,,,,0,96,96,32,1,,,,,,,,,,,,,,,,,,,,,,,,
,,,,,,,,,,,,l,Correct!,,,,,,t1.png,t3.png,2,0.056466,19,Female,2020-09-24_18h08.40.653,torte-2b,2020.1.3,MacIntel,60,13316,1.863,,,,,,,,,,,,,,,,,,,,,,,,,,,,,,,,,,,,,0,97,97,69,1,,,,,,,,,,,,,,,,,,,,,,,,
,,,,,,,,,,,,a,Correct!,,,,,,t2.png,t3.png,1,0.90855,19,Female,2020-09-24_18h08.40.653,torte-2b,2020.1.3,MacIntel,60,13316,0.773,,,,,,,,,,,,,,,,,,,,,,,,,,,,,,,,,,,,,0,98,98,111,1,,,,,,,,,,,,,,,,,,,,,,,,
,,,,,,,,,,,,l,Correct!,,,,,,t2.png,t4.png,2,0.059078,19,Female,2020-09-24_18h08.40.653,torte-2b,2020.1.3,MacIntel,60,13316,0.382,,,,,,,,,,,,,,,,,,,,,,,,,,,,,,,,,,,,,0,99,99,77,1,,,,,,,,,,,,,,,,,,,,,,,,
,,,,,,,,,,,,a,Incorrect,,,,,,t4.png,t1.png,3,0.0000131,19,Female,2020-09-24_18h08.40.653,torte-2b,2020.1.3,MacIntel,60,13316,0.3,,,,,,,,,,,,,,,,,,,,,,,,,,,,,,,,,,,,,0,100,100,93,1,,,,,,,,,,,,,,,,,,,,,,,,
,,,,,,,,,,,,a,Incorrect,,,,,,t2.png,t4.png,2,0.059078,19,Female,2020-09-24_18h08.40.653,torte-2b,2020.1.3,MacIntel,60,13316,0.789,,,,,,,,,,,,,,,,,,,,,,,,,,,,,,,,,,,,,0,101,101,37,1,,,,,,,,,,,,,,,,,,,,,,,,
,,,,,,,,,,,,a,Incorrect,,,,,,t2.png,t4.png,2,0.059078,19,Female,2020-09-24_18h08.40.653,torte-2b,2020.1.3,MacIntel,60,13316,0.637,,,,,,,,,,,,,,,,,,,,,,,,,,,,,,,,,,,,,0,102,102,24,1,,,,,,,,,,,,,,,,,,,,,,,,
,,,,,,,,,,,,l,Correct!,,,,,,t1.png,t3.png,2,0.056466,19,Female,2020-09-24_18h08.40.653,torte-2b,2020.1.3,MacIntel,60,13316,0.65,,,,,,,,,,,,,,,,,,,,,,,,,,,,,,,,,,,,,0,103,103,87,1,,,,,,,,,,,,,,,,,,,,,,,,
,,,,,,,,,,,,a,Correct!,,,,,,t4.png,t5.png,1,0.90025,19,Female,2020-09-24_18h08.40.653,torte-2b,2020.1.3,MacIntel,60,13316,1.955,,,,,,,,,,,,,,,,,,,,,,,,,,,,,,,,,,,,,0,104,104,58,1,,,,,,,,,,,,,,,,,,,,,,,,
,,,,,,,,,,,,l,Incorrect,,,,,,t1.png,t1.png,0,0.978,19,Female,2020-09-24_18h08.40.653,torte-2b,2020.1.3,MacIntel,60,13316,1.387,,,,,,,,,,,,,,,,,,,,,,,,,,,,,,,,,,,,,0,105,105,54,1,,,,,,,,,,,,,,,,,,,,,,,,
,,,,,,,,,,,,l,Incorrect,,,,,,t2.png,t2.png,0,0.981,19,Female,2020-09-24_18h08.40.653,torte-2b,2020.1.3,MacIntel,60,13316,1.123,,,,,,,,,,,,,,,,,,,,,,,,,,,,,,,,,,,,,0,106,106,101,1,,,,,,,,,,,,,,,,,,,,,,,,
,,,,,,,,,,,,a,Incorrect,,,,,,t3.png,t1.png,2,0.056466,19,Female,2020-09-24_18h08.40.653,torte-2b,2020.1.3,MacIntel,60,13316,2.017,,,,,,,,,,,,,,,,,,,,,,,,,,,,,,,,,,,,,0,107,107,64,1,,,,,,,,,,,,,,,,,,,,,,,,
,,,,,,,,,,,,l,Correct!,,,,,,t5.png,t2.png,3,0.0000131,19,Female,2020-09-24_18h08.40.653,torte-2b,2020.1.3,MacIntel,60,13316,1.738,,,,,,,,,,,,,,,,,,,,,,,,,,,,,,,,,,,,,0,108,108,51,1,,,,,,,,,,,,,,,,,,,,,,,,
,,,,,,,,,,,,a,Incorrect,,,,,,t4.png,t1.png,3,0.0000131,19,Female,2020-09-24_18h08.40.653,torte-2b,2020.1.3,MacIntel,60,13316,0.65,,,,,,,,,,,,,,,,,,,,,,,,,,,,,,,,,,,,,0,109,109,13,1,,,,,,,,,,,,,,,,,,,,,,,,
,,,,,,,,,,,,l,Correct!,,,,,,t5.png,t1.png,4,9.55E-11,19,Female,2020-09-24_18h08.40.653,torte-2b,2020.1.3,MacIntel,60,13316,0.799,,,,,,,,,,,,,,,,,,,,,,,,,,,,,,,,,,,,,0,110,110,43,1,,,,,,,,,,,,,,,,,,,,,,,,
,,,,,,,,,,,,a,Incorrect,,,,,,t2.png,t5.png,3,0.0000131,19,Female,2020-09-24_18h08.40.653,torte-2b,2020.1.3,MacIntel,60,13316,1.273,,,,,,,,,,,,,,,,,,,,,,,,,,,,,,,,,,,,,0,111,111,66,1,,,,,,,,,,,,,,,,,,,,,,,,
,,,,,,,,,,,,l,Correct!,,,,,,t5.png,t3.png,2,0.056466,19,Female,2020-09-24_18h08.40.653,torte-2b,2020.1.3,MacIntel,60,13316,1.232,,,,,,,,,,,,,,,,,,,,,,,,,,,,,,,,,,,,,0,112,112,38,1,,,,,,,,,,,,,,,,,,,,,,,,
,,,,,,,,,,,,a,Correct!,,,,,,t2.png,t3.png,1,0.90855,19,Female,2020-09-24_18h08.40.653,torte-2b,2020.1.3,MacIntel,60,13316,0.782,,,,,,,,,,,,,,,,,,,,,,,,,,,,,,,,,,,,,0,113,113,10,1,,,,,,,,,,,,,,,,,,,,,,,,
,,,,,,,,,,,,a,Incorrect,,,,,,t5.png,t2.png,3,0.0000131,19,Female,2020-09-24_18h08.40.653,torte-2b,2020.1.3,MacIntel,60,13316,2.204,,,,,,,,,,,,,,,,,,,,,,,,,,,,,,,,,,,,,0,114,114,91,1,,,,,,,,,,,,,,,,,,,,,,,,
,,,,,,,,,,,,l,Incorrect,,,,,,t2.png,t1.png,1,0.90025,19,Female,2020-09-24_18h08.40.653,torte-2b,2020.1.3,MacIntel,60,13316,1.666,,,,,,,,,,,,,,,,,,,,,,,,,,,,,,,,,,,,,0,115,115,19,1,,,,,,,,,,,,,,,,,,,,,,,,
,,,,,,,,,,,,l,Correct!,,,,,,t1.png,t4.png,3,0.0000131,19,Female,2020-09-24_18h08.40.653,torte-2b,2020.1.3,MacIntel,60,13316,1.366,,,,,,,,,,,,,,,,,,,,,,,,,,,,,,,,,,,,,0,116,116,81,1,,,,,,,,,,,,,,,,,,,,,,,,
,,,,,,,,,,,,l,Correct!,,,,,,t3.png,t5.png,2,0.056466,19,Female,2020-09-24_18h08.40.653,torte-2b,2020.1.3,MacIntel,60,13316,0.566,,,,,,,,,,,,,,,,,,,,,,,,,,,,,,,,,,,,,0,117,117,44,1,,,,,,,,,,,,,,,,,,,,,,,,
,,,,,,,,,,,,l,Incorrect,,,,,,t5.png,t5.png,0,0.97829,19,Female,2020-09-24_18h08.40.653,torte-2b,2020.1.3,MacIntel,60,13316,0.906,,,,,,,,,,,,,,,,,,,,,,,,,,,,,,,,,,,,,0,118,118,73,1,,,,,,,,,,,,,,,,,,,,,,,,
,,,,,,,,,,,,a,Correct!,,,,,,t1.png,t1.png,0,0.978,19,Female,2020-09-24_18h08.40.653,torte-2b,2020.1.3,MacIntel,60,13316,0.7,,,,,,,,,,,,,,,,,,,,,,,,,,,,,,,,,,,,,0,119,119,28,1,,,,,,,,,,,,,,,,,,,,,,,,
,,,,,,,,,,,,,,,,,,,,,,,19,Female,2020-09-24_18h08.40.653,torte-2b,2020.1.3,MacIntel,60,13316,,space,1.047,,,,,,,,,,,,,,,,,,,,,,,,,,,,,,,,,,,,,,,,148,68.5,1,0,0,s3,15,18.5,1,0,0,t2,162,-101.5,1,0,0,proceed,space,0.226,space,3.235,space,2.651
