key_resp_8.keys,key_resp_8.rt,key_resp_9.keys,key_resp_9.rt,key_resp_10.keys,key_resp_10.rt,key_resp_11.keys,key_resp_11.rt,key_resp_2.keys,key_resp_2.rt,key_resp_3.keys,key_resp_3.rt,key_resp.keys,Feedback,train.thisRepN,train.thisTrialN,train.thisN,train.thisIndex,train.ran,torta_sx,torta_dx,difference,probability,age,gender,date,expName,psychopyVersion,OS,frameRate,participant,key_resp.rt,key_resp_15.keys,key_resp_15.rt,key_resp_6.keys,key_resp_6.rt,test1.thisRepN,test1.thisTrialN,test1.thisN,test1.thisIndex,test1.ran,key_resp_4.keys,key_resp_4.rt,key_resp_5.keys,key_resp_5.rt,back1.thisRepN,back1.thisTrialN,back1.thisN,back1.thisIndex,back1.ran,letter,back2.thisRepN,back2.thisTrialN,back2.thisN,back2.thisIndex,back2.ran,back3.thisRepN,back3.thisTrialN,back3.thisN,back3.thisIndex,back3.ran,back4.thisRepN,back4.thisTrialN,back4.thisN,back4.thisIndex,back4.ran,key_resp_7.keys,key_resp_7.rt,test2.thisRepN,test2.thisTrialN,test2.thisN,test2.thisIndex,test2.ran,mouse.x,mouse.y,mouse.leftButton,mouse.midButton,mouse.rightButton,mouse.clicked_name,mouse_2.x,mouse_2.y,mouse_2.leftButton,mouse_2.midButton,mouse_2.rightButton,mouse_2.clicked_name,mouse_3.x,mouse_3.y,mouse_3.leftButton,mouse_3.midButton,mouse_3.rightButton,mouse_3.clicked_name,key_resp_12.keys,key_resp_12.rt,key_resp_13.keys,key_resp_13.rt,key_resp_14.keys,key_resp_14.rt
space,22.128005,space,3.237045,space,1.24428,space,12.443465,space,3.46808,space,21.20713,,Too slow :(,0,0,0,105,1,t3.png,t2.png,1,0.90855,20,female,2020-09-28_21h38.56.757,torte-2b,2020.1.3,MacIntel,60,13315,,,,,,,,,,,,,,,,,,,,,,,,,,,,,,,,,,,,,,,,,,,,,,,,,,,,,,,,,,,,,,,,,,
,,,,,,,,,,,,a,Correct!,0,1,1,29,1,t5.png,t5.png,0,0.97829,20,female,2020-09-28_21h38.56.757,torte-2b,2020.1.3,MacIntel,60,13315,0.944135,,,,,,,,,,,,,,,,,,,,,,,,,,,,,,,,,,,,,,,,,,,,,,,,,,,,,,,,,,,,,,,,,
,,,,,,,,,,,,l,Correct!,0,2,2,46,1,t4.png,t2.png,2,0.059078,20,female,2020-09-28_21h38.56.757,torte-2b,2020.1.3,MacIntel,60,13315,1.01525,,,,,,,,,,,,,,,,,,,,,,,,,,,,,,,,,,,,,,,,,,,,,,,,,,,,,,,,,,,,,,,,,
,,,,,,,,,,,,a,Correct!,0,3,3,13,1,t5.png,t5.png,0,0.97829,20,female,2020-09-28_21h38.56.757,torte-2b,2020.1.3,MacIntel,60,13315,0.91582,,,,,,,,,,,,,,,,,,,,,,,,,,,,,,,,,,,,,,,,,,,,,,,,,,,,,,,,,,,,,,,,,
,,,,,,,,,,,,l,Incorrect,0,4,4,49,1,t4.png,t5.png,1,0.9,20,female,2020-09-28_21h38.56.757,torte-2b,2020.1.3,MacIntel,60,13315,0.903115,,,,,,,,,,,,,,,,,,,,,,,,,,,,,,,,,,,,,,,,,,,,,,,,,,,,,,,,,,,,,,,,,
,,,,,,,,,,,,a,Correct!,0,5,5,22,1,t2.png,t3.png,1,0.90855,20,female,2020-09-28_21h38.56.757,torte-2b,2020.1.3,MacIntel,60,13315,1.4534,,,,,,,,,,,,,,,,,,,,,,,,,,,,,,,,,,,,,,,,,,,,,,,,,,,,,,,,,,,,,,,,,
,,,,,,,,,,,,a,Incorrect,0,6,6,17,1,t1.png,t4.png,3,0.0000131,20,female,2020-09-28_21h38.56.757,torte-2b,2020.1.3,MacIntel,60,13315,1.0181,,,,,,,,,,,,,,,,,,,,,,,,,,,,,,,,,,,,,,,,,,,,,,,,,,,,,,,,,,,,,,,,,
,,,,,,,,,,,,l,Incorrect,0,7,7,32,1,t4.png,t5.png,1,0.90025,20,female,2020-09-28_21h38.56.757,torte-2b,2020.1.3,MacIntel,60,13315,1.21882,,,,,,,,,,,,,,,,,,,,,,,,,,,,,,,,,,,,,,,,,,,,,,,,,,,,,,,,,,,,,,,,,
,,,,,,,,,,,,l,Incorrect,0,8,8,15,1,t3.png,t2.png,1,0.90855,20,female,2020-09-28_21h38.56.757,torte-2b,2020.1.3,MacIntel,60,13315,1.25744,,,,,,,,,,,,,,,,,,,,,,,,,,,,,,,,,,,,,,,,,,,,,,,,,,,,,,,,,,,,,,,,,
,,,,,,,,,,,,a,Incorrect,0,9,9,93,1,t2.png,t4.png,2,0.059078,20,female,2020-09-28_21h38.56.757,torte-2b,2020.1.3,MacIntel,60,13315,0.99213,,,,,,,,,,,,,,,,,,,,,,,,,,,,,,,,,,,,,,,,,,,,,,,,,,,,,,,,,,,,,,,,,
,,,,,,,,,,,,,Too slow :(,0,10,10,36,1,t3.png,t1.png,2,0.0565,20,female,2020-09-28_21h38.56.757,torte-2b,2020.1.3,MacIntel,60,13315,,,,,,,,,,,,,,,,,,,,,,,,,,,,,,,,,,,,,,,,,,,,,,,,,,,,,,,,,,,,,,,,,,
,,,,,,,,,,,,l,Correct!,0,11,11,33,1,t5.png,t1.png,4,9.55E-11,20,female,2020-09-28_21h38.56.757,torte-2b,2020.1.3,MacIntel,60,13315,2.052995,,,,,,,,,,,,,,,,,,,,,,,,,,,,,,,,,,,,,,,,,,,,,,,,,,,,,,,,,,,,,,,,,
,,,,,,,,,,,,l,Incorrect,0,12,12,28,1,t2.png,t3.png,1,0.909,20,female,2020-09-28_21h38.56.757,torte-2b,2020.1.3,MacIntel,60,13315,2.10389,,,,,,,,,,,,,,,,,,,,,,,,,,,,,,,,,,,,,,,,,,,,,,,,,,,,,,,,,,,,,,,,,
,,,,,,,,,,,,a,Incorrect,0,13,13,1,1,t2.png,t4.png,2,0.059078,20,female,2020-09-28_21h38.56.757,torte-2b,2020.1.3,MacIntel,60,13315,1.243485,,,,,,,,,,,,,,,,,,,,,,,,,,,,,,,,,,,,,,,,,,,,,,,,,,,,,,,,,,,,,,,,,
,,,,,,,,,,,,l,Incorrect,0,14,14,66,1,t4.png,t5.png,1,0.9,20,female,2020-09-28_21h38.56.757,torte-2b,2020.1.3,MacIntel,60,13315,1.19852,,,,,,,,,,,,,,,,,,,,,,,,,,,,,,,,,,,,,,,,,,,,,,,,,,,,,,,,,,,,,,,,,
,,,,,,,,,,,,a,Correct!,0,15,15,16,1,t5.png,t4.png,1,0.9,20,female,2020-09-28_21h38.56.757,torte-2b,2020.1.3,MacIntel,60,13315,1.526045,,,,,,,,,,,,,,,,,,,,,,,,,,,,,,,,,,,,,,,,,,,,,,,,,,,,,,,,,,,,,,,,,
,,,,,,,,,,,,a,Correct!,0,16,16,41,1,t3.png,t2.png,1,0.90855,20,female,2020-09-28_21h38.56.757,torte-2b,2020.1.3,MacIntel,60,13315,1.22397,,,,,,,,,,,,,,,,,,,,,,,,,,,,,,,,,,,,,,,,,,,,,,,,,,,,,,,,,,,,,,,,,
,,,,,,,,,,,,a,Incorrect,0,17,17,69,1,t4.png,t2.png,2,0.059078,20,female,2020-09-28_21h38.56.757,torte-2b,2020.1.3,MacIntel,60,13315,1.095045,,,,,,,,,,,,,,,,,,,,,,,,,,,,,,,,,,,,,,,,,,,,,,,,,,,,,,,,,,,,,,,,,
,,,,,,,,,,,,a,Correct!,0,18,18,70,1,t5.png,t5.png,0,0.978,20,female,2020-09-28_21h38.56.757,torte-2b,2020.1.3,MacIntel,60,13315,1.48205,,,,,,,,,,,,,,,,,,,,,,,,,,,,,,,,,,,,,,,,,,,,,,,,,,,,,,,,,,,,,,,,,
,,,,,,,,,,,,l,Incorrect,0,19,19,95,1,t1.png,t1.png,0,0.978,20,female,2020-09-28_21h38.56.757,torte-2b,2020.1.3,MacIntel,60,13315,1.46412,,,,,,,,,,,,,,,,,,,,,,,,,,,,,,,,,,,,,,,,,,,,,,,,,,,,,,,,,,,,,,,,,
,,,,,,,,,,,,a,Correct!,0,20,20,23,1,t5.png,t4.png,1,0.90025,20,female,2020-09-28_21h38.56.757,torte-2b,2020.1.3,MacIntel,60,13315,1.40154,,,,,,,,,,,,,,,,,,,,,,,,,,,,,,,,,,,,,,,,,,,,,,,,,,,,,,,,,,,,,,,,,
,,,,,,,,,,,,a,Incorrect,0,21,21,115,1,t2.png,t4.png,2,0.059078,20,female,2020-09-28_21h38.56.757,torte-2b,2020.1.3,MacIntel,60,13315,1.47048,,,,,,,,,,,,,,,,,,,,,,,,,,,,,,,,,,,,,,,,,,,,,,,,,,,,,,,,,,,,,,,,,
,,,,,,,,,,,,l,Correct!,0,22,22,52,1,t2.png,t4.png,2,0.059078,20,female,2020-09-28_21h38.56.757,torte-2b,2020.1.3,MacIntel,60,13315,1.12283,,,,,,,,,,,,,,,,,,,,,,,,,,,,,,,,,,,,,,,,,,,,,,,,,,,,,,,,,,,,,,,,,
,,,,,,,,,,,,a,Incorrect,0,23,23,19,1,t4.png,t2.png,2,0.059078,20,female,2020-09-28_21h38.56.757,torte-2b,2020.1.3,MacIntel,60,13315,1.136685,,,,,,,,,,,,,,,,,,,,,,,,,,,,,,,,,,,,,,,,,,,,,,,,,,,,,,,,,,,,,,,,,
,,,,,,,,,,,,a,Correct!,0,24,24,59,1,t5.png,t4.png,1,0.9,20,female,2020-09-28_21h38.56.757,torte-2b,2020.1.3,MacIntel,60,13315,2.152795,,,,,,,,,,,,,,,,,,,,,,,,,,,,,,,,,,,,,,,,,,,,,,,,,,,,,,,,,,,,,,,,,
,,,,,,,,,,,,a,Correct!,0,25,25,113,1,t5.png,t4.png,1,0.9,20,female,2020-09-28_21h38.56.757,torte-2b,2020.1.3,MacIntel,60,13315,0.87074,,,,,,,,,,,,,,,,,,,,,,,,,,,,,,,,,,,,,,,,,,,,,,,,,,,,,,,,,,,,,,,,,
,,,,,,,,,,,,a,Correct!,0,26,26,97,1,t5.png,t5.png,0,0.97829,20,female,2020-09-28_21h38.56.757,torte-2b,2020.1.3,MacIntel,60,13315,1.06904,,,,,,,,,,,,,,,,,,,,,,,,,,,,,,,,,,,,,,,,,,,,,,,,,,,,,,,,,,,,,,,,,
,,,,,,,,,,,,l,Correct!,0,27,27,30,1,t3.png,t1.png,2,0.056466,20,female,2020-09-28_21h38.56.757,torte-2b,2020.1.3,MacIntel,60,13315,1.25185,,,,,,,,,,,,,,,,,,,,,,,,,,,,,,,,,,,,,,,,,,,,,,,,,,,,,,,,,,,,,,,,,
,,,,,,,,,,,,l,Incorrect,0,28,28,96,1,t1.png,t1.png,0,0.97829,20,female,2020-09-28_21h38.56.757,torte-2b,2020.1.3,MacIntel,60,13315,0.85093,,,,,,,,,,,,,,,,,,,,,,,,,,,,,,,,,,,,,,,,,,,,,,,,,,,,,,,,,,,,,,,,,
,,,,,,,,,,,,a,Incorrect,0,29,29,99,1,t1.png,t5.png,4,9.55E-11,20,female,2020-09-28_21h38.56.757,torte-2b,2020.1.3,MacIntel,60,13315,1.404355,,,,,,,,,,,,,,,,,,,,,,,,,,,,,,,,,,,,,,,,,,,,,,,,,,,,,,,,,,,,,,,,,
,,,,,,,,,,,,a,Correct!,0,30,30,78,1,t1.png,t1.png,0,0.978,20,female,2020-09-28_21h38.56.757,torte-2b,2020.1.3,MacIntel,60,13315,1.218295,,,,,,,,,,,,,,,,,,,,,,,,,,,,,,,,,,,,,,,,,,,,,,,,,,,,,,,,,,,,,,,,,
,,,,,,,,,,,,a,Incorrect,0,31,31,80,1,t1.png,t4.png,3,0.0000131,20,female,2020-09-28_21h38.56.757,torte-2b,2020.1.3,MacIntel,60,13315,0.953985,,,,,,,,,,,,,,,,,,,,,,,,,,,,,,,,,,,,,,,,,,,,,,,,,,,,,,,,,,,,,,,,,
,,,,,,,,,,,,l,Correct!,0,32,32,86,1,t3.png,t1.png,2,0.056466,20,female,2020-09-28_21h38.56.757,torte-2b,2020.1.3,MacIntel,60,13315,1.49299,,,,,,,,,,,,,,,,,,,,,,,,,,,,,,,,,,,,,,,,,,,,,,,,,,,,,,,,,,,,,,,,,
,,,,,,,,,,,,a,Correct!,0,33,33,65,1,t4.png,t5.png,1,0.90025,20,female,2020-09-28_21h38.56.757,torte-2b,2020.1.3,MacIntel,60,13315,1.19502,,,,,,,,,,,,,,,,,,,,,,,,,,,,,,,,,,,,,,,,,,,,,,,,,,,,,,,,,,,,,,,,,
,,,,,,,,,,,,l,Correct!,0,34,34,51,1,t3.png,t1.png,2,0.056466,20,female,2020-09-28_21h38.56.757,torte-2b,2020.1.3,MacIntel,60,13315,0.80105,,,,,,,,,,,,,,,,,,,,,,,,,,,,,,,,,,,,,,,,,,,,,,,,,,,,,,,,,,,,,,,,,
,,,,,,,,,,,,l,Incorrect,0,35,35,75,1,t1.png,t1.png,0,0.97829,20,female,2020-09-28_21h38.56.757,torte-2b,2020.1.3,MacIntel,60,13315,0.850255,,,,,,,,,,,,,,,,,,,,,,,,,,,,,,,,,,,,,,,,,,,,,,,,,,,,,,,,,,,,,,,,,
,,,,,,,,,,,,l,Correct!,0,36,36,87,1,t5.png,t1.png,4,9.55E-11,20,female,2020-09-28_21h38.56.757,torte-2b,2020.1.3,MacIntel,60,13315,1.38873,,,,,,,,,,,,,,,,,,,,,,,,,,,,,,,,,,,,,,,,,,,,,,,,,,,,,,,,,,,,,,,,,
,,,,,,,,,,,,a,Correct!,0,37,37,45,1,t3.png,t2.png,1,0.90855,20,female,2020-09-28_21h38.56.757,torte-2b,2020.1.3,MacIntel,60,13315,0.826845,,,,,,,,,,,,,,,,,,,,,,,,,,,,,,,,,,,,,,,,,,,,,,,,,,,,,,,,,,,,,,,,,
,,,,,,,,,,,,a,Correct!,0,38,38,39,1,t3.png,t2.png,1,0.90855,20,female,2020-09-28_21h38.56.757,torte-2b,2020.1.3,MacIntel,60,13315,0.726015,,,,,,,,,,,,,,,,,,,,,,,,,,,,,,,,,,,,,,,,,,,,,,,,,,,,,,,,,,,,,,,,,
,,,,,,,,,,,,a,Correct!,0,39,39,20,1,t2.png,t3.png,1,0.90855,20,female,2020-09-28_21h38.56.757,torte-2b,2020.1.3,MacIntel,60,13315,1.052235,,,,,,,,,,,,,,,,,,,,,,,,,,,,,,,,,,,,,,,,,,,,,,,,,,,,,,,,,,,,,,,,,
,,,,,,,,,,,,a,Correct!,0,40,40,10,1,t2.png,t3.png,1,0.90855,20,female,2020-09-28_21h38.56.757,torte-2b,2020.1.3,MacIntel,60,13315,0.88991,,,,,,,,,,,,,,,,,,,,,,,,,,,,,,,,,,,,,,,,,,,,,,,,,,,,,,,,,,,,,,,,,
,,,,,,,,,,,,a,Correct!,0,41,41,73,1,t4.png,t2.png,2,0.059078,20,female,2020-09-28_21h38.56.757,torte-2b,2020.1.3,MacIntel,60,13315,0.977875,,,,,,,,,,,,,,,,,,,,,,,,,,,,,,,,,,,,,,,,,,,,,,,,,,,,,,,,,,,,,,,,,
,,,,,,,,,,,,a,Incorrect,0,42,42,61,1,t1.png,t4.png,3,0.0000131,20,female,2020-09-28_21h38.56.757,torte-2b,2020.1.3,MacIntel,60,13315,1.06673,,,,,,,,,,,,,,,,,,,,,,,,,,,,,,,,,,,,,,,,,,,,,,,,,,,,,,,,,,,,,,,,,
,,,,,,,,,,,,a,Correct!,0,43,43,63,1,t2.png,t3.png,1,0.909,20,female,2020-09-28_21h38.56.757,torte-2b,2020.1.3,MacIntel,60,13315,1.123485,,,,,,,,,,,,,,,,,,,,,,,,,,,,,,,,,,,,,,,,,,,,,,,,,,,,,,,,,,,,,,,,,
,,,,,,,,,,,,a,Incorrect,0,44,44,24,1,t4.png,t2.png,2,0.059078,20,female,2020-09-28_21h38.56.757,torte-2b,2020.1.3,MacIntel,60,13315,1.116005,,,,,,,,,,,,,,,,,,,,,,,,,,,,,,,,,,,,,,,,,,,,,,,,,,,,,,,,,,,,,,,,,
,,,,,,,,,,,,a,Correct!,0,45,45,25,1,t5.png,t5.png,0,0.97829,20,female,2020-09-28_21h38.56.757,torte-2b,2020.1.3,MacIntel,60,13315,1.43713,,,,,,,,,,,,,,,,,,,,,,,,,,,,,,,,,,,,,,,,,,,,,,,,,,,,,,,,,,,,,,,,,
,,,,,,,,,,,,a,Incorrect,0,46,46,18,1,t4.png,t5.png,1,0.90025,20,female,2020-09-28_21h38.56.757,torte-2b,2020.1.3,MacIntel,60,13315,1.48864,,,,,,,,,,,,,,,,,,,,,,,,,,,,,,,,,,,,,,,,,,,,,,,,,,,,,,,,,,,,,,,,,
,,,,,,,,,,,,a,Correct!,0,47,47,64,1,t1.png,t1.png,0,0.978,20,female,2020-09-28_21h38.56.757,torte-2b,2020.1.3,MacIntel,60,13315,0.89009,,,,,,,,,,,,,,,,,,,,,,,,,,,,,,,,,,,,,,,,,,,,,,,,,,,,,,,,,,,,,,,,,
,,,,,,,,,,,,a,Incorrect,0,48,48,43,1,t4.png,t2.png,2,0.059078,20,female,2020-09-28_21h38.56.757,torte-2b,2020.1.3,MacIntel,60,13315,1.257905,,,,,,,,,,,,,,,,,,,,,,,,,,,,,,,,,,,,,,,,,,,,,,,,,,,,,,,,,,,,,,,,,
,,,,,,,,,,,,l,Correct!,0,49,49,72,1,t4.png,t2.png,2,0.059078,20,female,2020-09-28_21h38.56.757,torte-2b,2020.1.3,MacIntel,60,13315,0.907345,,,,,,,,,,,,,,,,,,,,,,,,,,,,,,,,,,,,,,,,,,,,,,,,,,,,,,,,,,,,,,,,,
,,,,,,,,,,,,a,Correct!,0,50,50,84,1,t1.png,t1.png,0,0.97829,20,female,2020-09-28_21h38.56.757,torte-2b,2020.1.3,MacIntel,60,13315,0.841065,,,,,,,,,,,,,,,,,,,,,,,,,,,,,,,,,,,,,,,,,,,,,,,,,,,,,,,,,,,,,,,,,
,,,,,,,,,,,,a,Incorrect,0,51,51,53,1,t3.png,t1.png,2,0.056466,20,female,2020-09-28_21h38.56.757,torte-2b,2020.1.3,MacIntel,60,13315,1.28107,,,,,,,,,,,,,,,,,,,,,,,,,,,,,,,,,,,,,,,,,,,,,,,,,,,,,,,,,,,,,,,,,
,,,,,,,,,,,,l,Correct!,0,52,52,4,1,t1.png,t5.png,4,9.55E-11,20,female,2020-09-28_21h38.56.757,torte-2b,2020.1.3,MacIntel,60,13315,1.655725,,,,,,,,,,,,,,,,,,,,,,,,,,,,,,,,,,,,,,,,,,,,,,,,,,,,,,,,,,,,,,,,,
,,,,,,,,,,,,l,Incorrect,0,53,53,44,1,t2.png,t3.png,1,0.909,20,female,2020-09-28_21h38.56.757,torte-2b,2020.1.3,MacIntel,60,13315,0.84021,,,,,,,,,,,,,,,,,,,,,,,,,,,,,,,,,,,,,,,,,,,,,,,,,,,,,,,,,,,,,,,,,
,,,,,,,,,,,,l,Correct!,0,54,54,74,1,t5.png,t4.png,1,0.9,20,female,2020-09-28_21h38.56.757,torte-2b,2020.1.3,MacIntel,60,13315,1.205965,,,,,,,,,,,,,,,,,,,,,,,,,,,,,,,,,,,,,,,,,,,,,,,,,,,,,,,,,,,,,,,,,
,,,,,,,,,,,,a,Incorrect,0,55,55,89,1,t1.png,t4.png,3,0.0000131,20,female,2020-09-28_21h38.56.757,torte-2b,2020.1.3,MacIntel,60,13315,1.535755,,,,,,,,,,,,,,,,,,,,,,,,,,,,,,,,,,,,,,,,,,,,,,,,,,,,,,,,,,,,,,,,,
,,,,,,,,,,,,a,Correct!,0,56,56,81,1,t1.png,t1.png,0,0.97829,20,female,2020-09-28_21h38.56.757,torte-2b,2020.1.3,MacIntel,60,13315,0.761045,,,,,,,,,,,,,,,,,,,,,,,,,,,,,,,,,,,,,,,,,,,,,,,,,,,,,,,,,,,,,,,,,
,,,,,,,,,,,,l,Incorrect,0,57,57,92,1,t2.png,t3.png,1,0.909,20,female,2020-09-28_21h38.56.757,torte-2b,2020.1.3,MacIntel,60,13315,1.28588,,,,,,,,,,,,,,,,,,,,,,,,,,,,,,,,,,,,,,,,,,,,,,,,,,,,,,,,,,,,,,,,,
,,,,,,,,,,,,l,Incorrect,0,58,58,58,1,t5.png,t4.png,1,0.90025,20,female,2020-09-28_21h38.56.757,torte-2b,2020.1.3,MacIntel,60,13315,1.62168,,,,,,,,,,,,,,,,,,,,,,,,,,,,,,,,,,,,,,,,,,,,,,,,,,,,,,,,,,,,,,,,,
,,,,,,,,,,,,a,Incorrect,0,59,59,3,1,t1.png,t5.png,4,9.55E-11,20,female,2020-09-28_21h38.56.757,torte-2b,2020.1.3,MacIntel,60,13315,1.607915,,,,,,,,,,,,,,,,,,,,,,,,,,,,,,,,,,,,,,,,,,,,,,,,,,,,,,,,,,,,,,,,,
,,,,,,,,,,,,l,Correct!,0,60,60,90,1,t1.png,t5.png,4,9.55E-11,20,female,2020-09-28_21h38.56.757,torte-2b,2020.1.3,MacIntel,60,13315,1.583645,,,,,,,,,,,,,,,,,,,,,,,,,,,,,,,,,,,,,,,,,,,,,,,,,,,,,,,,,,,,,,,,,
,,,,,,,,,,,,l,Correct!,0,61,61,82,1,t5.png,t1.png,4,9.55E-11,20,female,2020-09-28_21h38.56.757,torte-2b,2020.1.3,MacIntel,60,13315,1.901285,,,,,,,,,,,,,,,,,,,,,,,,,,,,,,,,,,,,,,,,,,,,,,,,,,,,,,,,,,,,,,,,,
,,,,,,,,,,,,l,Correct!,0,62,62,102,1,t4.png,t2.png,2,0.059078,20,female,2020-09-28_21h38.56.757,torte-2b,2020.1.3,MacIntel,60,13315,0.78545,,,,,,,,,,,,,,,,,,,,,,,,,,,,,,,,,,,,,,,,,,,,,,,,,,,,,,,,,,,,,,,,,
,,,,,,,,,,,,l,Incorrect,0,63,63,62,1,t5.png,t5.png,0,0.978,20,female,2020-09-28_21h38.56.757,torte-2b,2020.1.3,MacIntel,60,13315,1.20222,,,,,,,,,,,,,,,,,,,,,,,,,,,,,,,,,,,,,,,,,,,,,,,,,,,,,,,,,,,,,,,,,
,,,,,,,,,,,,l,Correct!,0,64,64,55,1,t2.png,t4.png,2,0.059078,20,female,2020-09-28_21h38.56.757,torte-2b,2020.1.3,MacIntel,60,13315,1.066835,,,,,,,,,,,,,,,,,,,,,,,,,,,,,,,,,,,,,,,,,,,,,,,,,,,,,,,,,,,,,,,,,
,,,,,,,,,,,,l,Correct!,0,65,65,40,1,t1.png,t5.png,4,9.55E-11,20,female,2020-09-28_21h38.56.757,torte-2b,2020.1.3,MacIntel,60,13315,1.22512,,,,,,,,,,,,,,,,,,,,,,,,,,,,,,,,,,,,,,,,,,,,,,,,,,,,,,,,,,,,,,,,,
,,,,,,,,,,,,l,Correct!,0,66,66,0,1,t5.png,t1.png,4,9.55E-11,20,female,2020-09-28_21h38.56.757,torte-2b,2020.1.3,MacIntel,60,13315,1.28431,,,,,,,,,,,,,,,,,,,,,,,,,,,,,,,,,,,,,,,,,,,,,,,,,,,,,,,,,,,,,,,,,
,,,,,,,,,,,,l,Correct!,0,67,67,6,1,t1.png,t4.png,3,0.0000131,20,female,2020-09-28_21h38.56.757,torte-2b,2020.1.3,MacIntel,60,13315,0.79121,,,,,,,,,,,,,,,,,,,,,,,,,,,,,,,,,,,,,,,,,,,,,,,,,,,,,,,,,,,,,,,,,
,,,,,,,,,,,,l,Correct!,0,68,68,38,1,t3.png,t1.png,2,0.056466,20,female,2020-09-28_21h38.56.757,torte-2b,2020.1.3,MacIntel,60,13315,1.19,,,,,,,,,,,,,,,,,,,,,,,,,,,,,,,,,,,,,,,,,,,,,,,,,,,,,,,,,,,,,,,,,
,,,,,,,,,,,,a,Correct!,0,69,69,110,1,t4.png,t5.png,1,0.90025,20,female,2020-09-28_21h38.56.757,torte-2b,2020.1.3,MacIntel,60,13315,1.034685,,,,,,,,,,,,,,,,,,,,,,,,,,,,,,,,,,,,,,,,,,,,,,,,,,,,,,,,,,,,,,,,,
,,,,,,,,,,,,l,Correct!,0,70,70,50,1,t5.png,t1.png,4,9.55E-11,20,female,2020-09-28_21h38.56.757,torte-2b,2020.1.3,MacIntel,60,13315,0.98599,,,,,,,,,,,,,,,,,,,,,,,,,,,,,,,,,,,,,,,,,,,,,,,,,,,,,,,,,,,,,,,,,
,,,,,,,,,,,,a,Correct!,0,71,71,118,1,t5.png,t5.png,0,0.978,20,female,2020-09-28_21h38.56.757,torte-2b,2020.1.3,MacIntel,60,13315,1.084135,,,,,,,,,,,,,,,,,,,,,,,,,,,,,,,,,,,,,,,,,,,,,,,,,,,,,,,,,,,,,,,,,
,,,,,,,,,,,,l,Correct!,0,72,72,26,1,t4.png,t2.png,2,0.0591,20,female,2020-09-28_21h38.56.757,torte-2b,2020.1.3,MacIntel,60,13315,1.33519,,,,,,,,,,,,,,,,,,,,,,,,,,,,,,,,,,,,,,,,,,,,,,,,,,,,,,,,,,,,,,,,,
,,,,,,,,,,,,a,Correct!,0,73,73,112,1,t1.png,t1.png,0,0.97829,20,female,2020-09-28_21h38.56.757,torte-2b,2020.1.3,MacIntel,60,13315,0.899745,,,,,,,,,,,,,,,,,,,,,,,,,,,,,,,,,,,,,,,,,,,,,,,,,,,,,,,,,,,,,,,,,
,,,,,,,,,,,,a,Correct!,0,74,74,100,1,t4.png,t5.png,1,0.90025,20,female,2020-09-28_21h38.56.757,torte-2b,2020.1.3,MacIntel,60,13315,1.43342,,,,,,,,,,,,,,,,,,,,,,,,,,,,,,,,,,,,,,,,,,,,,,,,,,,,,,,,,,,,,,,,,
,,,,,,,,,,,,a,Correct!,0,75,75,85,1,t3.png,t2.png,1,0.90855,20,female,2020-09-28_21h38.56.757,torte-2b,2020.1.3,MacIntel,60,13315,1.6583,,,,,,,,,,,,,,,,,,,,,,,,,,,,,,,,,,,,,,,,,,,,,,,,,,,,,,,,,,,,,,,,,
,,,,,,,,,,,,a,Incorrect,0,76,76,14,1,t2.png,t4.png,2,0.059078,20,female,2020-09-28_21h38.56.757,torte-2b,2020.1.3,MacIntel,60,13315,0.851145,,,,,,,,,,,,,,,,,,,,,,,,,,,,,,,,,,,,,,,,,,,,,,,,,,,,,,,,,,,,,,,,,
,,,,,,,,,,,,a,Incorrect,0,77,77,27,1,t3.png,t1.png,2,0.0565,20,female,2020-09-28_21h38.56.757,torte-2b,2020.1.3,MacIntel,60,13315,1.16809,,,,,,,,,,,,,,,,,,,,,,,,,,,,,,,,,,,,,,,,,,,,,,,,,,,,,,,,,,,,,,,,,
,,,,,,,,,,,,l,Correct!,0,78,78,108,1,t5.png,t1.png,4,9.55E-11,20,female,2020-09-28_21h38.56.757,torte-2b,2020.1.3,MacIntel,60,13315,0.65472,,,,,,,,,,,,,,,,,,,,,,,,,,,,,,,,,,,,,,,,,,,,,,,,,,,,,,,,,,,,,,,,,
,,,,,,,,,,,,a,Correct!,0,79,79,79,1,t3.png,t2.png,1,0.909,20,female,2020-09-28_21h38.56.757,torte-2b,2020.1.3,MacIntel,60,13315,1.301805,,,,,,,,,,,,,,,,,,,,,,,,,,,,,,,,,,,,,,,,,,,,,,,,,,,,,,,,,,,,,,,,,
,,,,,,,,,,,,l,Correct!,0,80,80,5,1,t2.png,t4.png,2,0.059078,20,female,2020-09-28_21h38.56.757,torte-2b,2020.1.3,MacIntel,60,13315,1.809835,,,,,,,,,,,,,,,,,,,,,,,,,,,,,,,,,,,,,,,,,,,,,,,,,,,,,,,,,,,,,,,,,
,,,,,,,,,,,,l,Correct!,0,81,81,60,1,t2.png,t4.png,2,0.059078,20,female,2020-09-28_21h38.56.757,torte-2b,2020.1.3,MacIntel,60,13315,0.933965,,,,,,,,,,,,,,,,,,,,,,,,,,,,,,,,,,,,,,,,,,,,,,,,,,,,,,,,,,,,,,,,,
,,,,,,,,,,,,l,Incorrect,0,82,82,106,1,t2.png,t3.png,1,0.90855,20,female,2020-09-28_21h38.56.757,torte-2b,2020.1.3,MacIntel,60,13315,0.76605,,,,,,,,,,,,,,,,,,,,,,,,,,,,,,,,,,,,,,,,,,,,,,,,,,,,,,,,,,,,,,,,,
,,,,,,,,,,,,a,Incorrect,0,83,83,111,1,t5.png,t1.png,4,9.55E-11,20,female,2020-09-28_21h38.56.757,torte-2b,2020.1.3,MacIntel,60,13315,1.4482,,,,,,,,,,,,,,,,,,,,,,,,,,,,,,,,,,,,,,,,,,,,,,,,,,,,,,,,,,,,,,,,,
,,,,,,,,,,,,a,Correct!,0,84,84,107,1,t1.png,t1.png,0,0.978,20,female,2020-09-28_21h38.56.757,torte-2b,2020.1.3,MacIntel,60,13315,0.89277,,,,,,,,,,,,,,,,,,,,,,,,,,,,,,,,,,,,,,,,,,,,,,,,,,,,,,,,,,,,,,,,,
,,,,,,,,,,,,a,Incorrect,0,85,85,103,1,t3.png,t1.png,2,0.056466,20,female,2020-09-28_21h38.56.757,torte-2b,2020.1.3,MacIntel,60,13315,1.250765,,,,,,,,,,,,,,,,,,,,,,,,,,,,,,,,,,,,,,,,,,,,,,,,,,,,,,,,,,,,,,,,,
,,,,,,,,,,,,l,Correct!,0,86,86,56,1,t5.png,t1.png,4,9.55E-11,20,female,2020-09-28_21h38.56.757,torte-2b,2020.1.3,MacIntel,60,13315,1.90397,,,,,,,,,,,,,,,,,,,,,,,,,,,,,,,,,,,,,,,,,,,,,,,,,,,,,,,,,,,,,,,,,
,,,,,,,,,,,,l,Incorrect,0,87,87,21,1,t5.png,t4.png,1,0.90025,20,female,2020-09-28_21h38.56.757,torte-2b,2020.1.3,MacIntel,60,13315,1.533855,,,,,,,,,,,,,,,,,,,,,,,,,,,,,,,,,,,,,,,,,,,,,,,,,,,,,,,,,,,,,,,,,
,,,,,,,,,,,,,Too slow :(,0,88,88,57,1,t2.png,t4.png,2,0.059078,20,female,2020-09-28_21h38.56.757,torte-2b,2020.1.3,MacIntel,60,13315,,,,,,,,,,,,,,,,,,,,,,,,,,,,,,,,,,,,,,,,,,,,,,,,,,,,,,,,,,,,,,,,,,
,,,,,,,,,,,,l,Correct!,0,89,89,98,1,t2.png,t4.png,2,0.0591,20,female,2020-09-28_21h38.56.757,torte-2b,2020.1.3,MacIntel,60,13315,1.575325,,,,,,,,,,,,,,,,,,,,,,,,,,,,,,,,,,,,,,,,,,,,,,,,,,,,,,,,,,,,,,,,,
,,,,,,,,,,,,,Too slow :(,0,90,90,11,1,t1.png,t4.png,3,0.0000131,20,female,2020-09-28_21h38.56.757,torte-2b,2020.1.3,MacIntel,60,13315,,,,,,,,,,,,,,,,,,,,,,,,,,,,,,,,,,,,,,,,,,,,,,,,,,,,,,,,,,,,,,,,,,
,,,,,,,,,,,,a,Incorrect,0,91,91,67,1,t1.png,t5.png,4,9.55E-11,20,female,2020-09-28_21h38.56.757,torte-2b,2020.1.3,MacIntel,60,13315,0.831215,,,,,,,,,,,,,,,,,,,,,,,,,,,,,,,,,,,,,,,,,,,,,,,,,,,,,,,,,,,,,,,,,
,,,,,,,,,,,,a,Correct!,0,92,92,8,1,t3.png,t2.png,1,0.90855,20,female,2020-09-28_21h38.56.757,torte-2b,2020.1.3,MacIntel,60,13315,2.03299,,,,,,,,,,,,,,,,,,,,,,,,,,,,,,,,,,,,,,,,,,,,,,,,,,,,,,,,,,,,,,,,,
,,,,,,,,,,,,a,Incorrect,0,93,93,35,1,t1.png,t4.png,3,0.0000131,20,female,2020-09-28_21h38.56.757,torte-2b,2020.1.3,MacIntel,60,13315,1.29212,,,,,,,,,,,,,,,,,,,,,,,,,,,,,,,,,,,,,,,,,,,,,,,,,,,,,,,,,,,,,,,,,
,,,,,,,,,,,,l,Incorrect,0,94,94,2,1,t3.png,t2.png,1,0.90855,20,female,2020-09-28_21h38.56.757,torte-2b,2020.1.3,MacIntel,60,13315,1.736845,,,,,,,,,,,,,,,,,,,,,,,,,,,,,,,,,,,,,,,,,,,,,,,,,,,,,,,,,,,,,,,,,
,,,,,,,,,,,,a,Incorrect,0,95,95,68,1,t1.png,t4.png,3,0.0000131,20,female,2020-09-28_21h38.56.757,torte-2b,2020.1.3,MacIntel,60,13315,1.43553,,,,,,,,,,,,,,,,,,,,,,,,,,,,,,,,,,,,,,,,,,,,,,,,,,,,,,,,,,,,,,,,,
,,,,,,,,,,,,l,Correct!,0,96,96,83,1,t3.png,t1.png,2,0.056466,20,female,2020-09-28_21h38.56.757,torte-2b,2020.1.3,MacIntel,60,13315,1.121665,,,,,,,,,,,,,,,,,,,,,,,,,,,,,,,,,,,,,,,,,,,,,,,,,,,,,,,,,,,,,,,,,
,,,,,,,,,,,,a,Correct!,0,97,97,48,1,t5.png,t5.png,0,0.97829,20,female,2020-09-28_21h38.56.757,torte-2b,2020.1.3,MacIntel,60,13315,1.12834,,,,,,,,,,,,,,,,,,,,,,,,,,,,,,,,,,,,,,,,,,,,,,,,,,,,,,,,,,,,,,,,,
,,,,,,,,,,,,l,Correct!,0,98,98,37,1,t1.png,t4.png,3,0.0000131,20,female,2020-09-28_21h38.56.757,torte-2b,2020.1.3,MacIntel,60,13315,1.75462,,,,,,,,,,,,,,,,,,,,,,,,,,,,,,,,,,,,,,,,,,,,,,,,,,,,,,,,,,,,,,,,,
,,,,,,,,,,,,l,Correct!,0,99,99,119,1,t1.png,t5.png,4,9.55E-11,20,female,2020-09-28_21h38.56.757,torte-2b,2020.1.3,MacIntel,60,13315,0.75048,,,,,,,,,,,,,,,,,,,,,,,,,,,,,,,,,,,,,,,,,,,,,,,,,,,,,,,,,,,,,,,,,
,,,,,,,,,,,,a,Correct!,0,100,100,71,1,t5.png,t5.png,0,0.97829,20,female,2020-09-28_21h38.56.757,torte-2b,2020.1.3,MacIntel,60,13315,0.755445,,,,,,,,,,,,,,,,,,,,,,,,,,,,,,,,,,,,,,,,,,,,,,,,,,,,,,,,,,,,,,,,,
,,,,,,,,,,,,l,Correct!,0,101,101,91,1,t1.png,t4.png,3,0.0000131,20,female,2020-09-28_21h38.56.757,torte-2b,2020.1.3,MacIntel,60,13315,1.230905,,,,,,,,,,,,,,,,,,,,,,,,,,,,,,,,,,,,,,,,,,,,,,,,,,,,,,,,,,,,,,,,,
,,,,,,,,,,,,a,Incorrect,0,102,102,109,1,t5.png,t5.png,0,0.97829,20,female,2020-09-28_21h38.56.757,torte-2b,2020.1.3,MacIntel,60,13315,0.849665,,,,,,,,,,,,,,,,,,,,,,,,,,,,,,,,,,,,,,,,,,,,,,,,,,,,,,,,,,,,,,,,,
,,,,,,,,,,,,l,Incorrect,0,103,103,7,1,t4.png,t5.png,1,0.90025,20,female,2020-09-28_21h38.56.757,torte-2b,2020.1.3,MacIntel,60,13315,1.136705,,,,,,,,,,,,,,,,,,,,,,,,,,,,,,,,,,,,,,,,,,,,,,,,,,,,,,,,,,,,,,,,,
,,,,,,,,,,,,l,Correct!,0,104,104,54,1,t1.png,t5.png,4,9.55E-11,20,female,2020-09-28_21h38.56.757,torte-2b,2020.1.3,MacIntel,60,13315,1.414825,,,,,,,,,,,,,,,,,,,,,,,,,,,,,,,,,,,,,,,,,,,,,,,,,,,,,,,,,,,,,,,,,
,,,,,,,,,,,,a,Correct!,0,105,105,42,1,t5.png,t4.png,1,0.90025,20,female,2020-09-28_21h38.56.757,torte-2b,2020.1.3,MacIntel,60,13315,0.88211,,,,,,,,,,,,,,,,,,,,,,,,,,,,,,,,,,,,,,,,,,,,,,,,,,,,,,,,,,,,,,,,,
,,,,,,,,,,,,l,Correct!,0,106,106,12,1,t5.png,t1.png,4,9.55E-11,20,female,2020-09-28_21h38.56.757,torte-2b,2020.1.3,MacIntel,60,13315,2.199975,,,,,,,,,,,,,,,,,,,,,,,,,,,,,,,,,,,,,,,,,,,,,,,,,,,,,,,,,,,,,,,,,
,,,,,,,,,,,,l,Incorrect,0,107,107,101,1,t4.png,t5.png,1,0.90025,20,female,2020-09-28_21h38.56.757,torte-2b,2020.1.3,MacIntel,60,13315,1.07766,,,,,,,,,,,,,,,,,,,,,,,,,,,,,,,,,,,,,,,,,,,,,,,,,,,,,,,,,,,,,,,,,
,,,,,,,,,,,,l,Correct!,0,108,108,94,1,t5.png,t1.png,4,9.55E-11,20,female,2020-09-28_21h38.56.757,torte-2b,2020.1.3,MacIntel,60,13315,1.15101,,,,,,,,,,,,,,,,,,,,,,,,,,,,,,,,,,,,,,,,,,,,,,,,,,,,,,,,,,,,,,,,,
,,,,,,,,,,,,a,Correct!,0,109,109,9,1,t4.png,t5.png,1,0.9,20,female,2020-09-28_21h38.56.757,torte-2b,2020.1.3,MacIntel,60,13315,0.80271,,,,,,,,,,,,,,,,,,,,,,,,,,,,,,,,,,,,,,,,,,,,,,,,,,,,,,,,,,,,,,,,,
,,,,,,,,,,,,a,Incorrect,0,110,110,88,1,t3.png,t1.png,2,0.056466,20,female,2020-09-28_21h38.56.757,torte-2b,2020.1.3,MacIntel,60,13315,1.9331,,,,,,,,,,,,,,,,,,,,,,,,,,,,,,,,,,,,,,,,,,,,,,,,,,,,,,,,,,,,,,,,,
,,,,,,,,,,,,l,Incorrect,0,111,111,116,1,t5.png,t4.png,1,0.90025,20,female,2020-09-28_21h38.56.757,torte-2b,2020.1.3,MacIntel,60,13315,1.34149,,,,,,,,,,,,,,,,,,,,,,,,,,,,,,,,,,,,,,,,,,,,,,,,,,,,,,,,,,,,,,,,,
,,,,,,,,,,,,l,Incorrect,0,112,112,104,1,t2.png,t3.png,1,0.90855,20,female,2020-09-28_21h38.56.757,torte-2b,2020.1.3,MacIntel,60,13315,1.42847,,,,,,,,,,,,,,,,,,,,,,,,,,,,,,,,,,,,,,,,,,,,,,,,,,,,,,,,,,,,,,,,,
,,,,,,,,,,,,l,Correct!,0,113,113,117,1,t1.png,t5.png,4,9.55E-11,20,female,2020-09-28_21h38.56.757,torte-2b,2020.1.3,MacIntel,60,13315,1.34192,,,,,,,,,,,,,,,,,,,,,,,,,,,,,,,,,,,,,,,,,,,,,,,,,,,,,,,,,,,,,,,,,
,,,,,,,,,,,,l,Correct!,0,114,114,31,1,t1.png,t5.png,4,9.55E-11,20,female,2020-09-28_21h38.56.757,torte-2b,2020.1.3,MacIntel,60,13315,0.641345,,,,,,,,,,,,,,,,,,,,,,,,,,,,,,,,,,,,,,,,,,,,,,,,,,,,,,,,,,,,,,,,,
,,,,,,,,,,,,a,Incorrect,0,115,115,76,1,t3.png,t2.png,1,0.90855,20,female,2020-09-28_21h38.56.757,torte-2b,2020.1.3,MacIntel,60,13315,1.144005,,,,,,,,,,,,,,,,,,,,,,,,,,,,,,,,,,,,,,,,,,,,,,,,,,,,,,,,,,,,,,,,,
,,,,,,,,,,,,a,Correct!,0,116,116,77,1,t1.png,t1.png,0,0.97829,20,female,2020-09-28_21h38.56.757,torte-2b,2020.1.3,MacIntel,60,13315,0.951865,,,,,,,,,,,,,,,,,,,,,,,,,,,,,,,,,,,,,,,,,,,,,,,,,,,,,,,,,,,,,,,,,
,,,,,,,,,,,,l,Correct!,0,117,117,47,1,t4.png,t2.png,2,0.059078,20,female,2020-09-28_21h38.56.757,torte-2b,2020.1.3,MacIntel,60,13315,2.27375,,,,,,,,,,,,,,,,,,,,,,,,,,,,,,,,,,,,,,,,,,,,,,,,,,,,,,,,,,,,,,,,,
,,,,,,,,,,,,a,Correct!,0,118,118,34,1,t5.png,t4.png,1,0.9,20,female,2020-09-28_21h38.56.757,torte-2b,2020.1.3,MacIntel,60,13315,1.25609,,,,,,,,,,,,,,,,,,,,,,,,,,,,,,,,,,,,,,,,,,,,,,,,,,,,,,,,,,,,,,,,,
,,,,,,,,,,,,a,Incorrect,0,119,119,114,1,t2.png,t3.png,1,0.90855,20,female,2020-09-28_21h38.56.757,torte-2b,2020.1.3,MacIntel,60,13315,1.73729,,,,,,,,,,,,,,,,,,,,,,,,,,,,,,,,,,,,,,,,,,,,,,,,,,,,,,,,,,,,,,,,,
,,,,,,,,,,,,l,Incorrect,,,,,,t2.png,t1.png,1,0.9,20,female,2020-09-28_21h38.56.757,torte-2b,2020.1.3,MacIntel,60,13315,1.45297,space,1.64671,space,2.244555,0,0,0,118,1,,,,,,,,,,,,,,,,,,,,,,,,,,,,,,,,,,,,,,,,,,,,,,,,,,,,,,,,
,,,,,,,,,,,,a,Correct!,,,,,,t2.png,t2.png,0,0.981,20,female,2020-09-28_21h38.56.757,torte-2b,2020.1.3,MacIntel,60,13315,1.15998,,,,,0,1,1,101,1,,,,,,,,,,,,,,,,,,,,,,,,,,,,,,,,,,,,,,,,,,,,,,,,,,,,,,,,
,,,,,,,,,,,,l,Correct!,,,,,,t4.png,t2.png,2,0.0591,20,female,2020-09-28_21h38.56.757,torte-2b,2020.1.3,MacIntel,60,13315,2.15593,,,,,0,2,2,36,1,,,,,,,,,,,,,,,,,,,,,,,,,,,,,,,,,,,,,,,,,,,,,,,,,,,,,,,,
,,,,,,,,,,,,a,Incorrect,,,,,,t2.png,t3.png,1,0.90855,20,female,2020-09-28_21h38.56.757,torte-2b,2020.1.3,MacIntel,60,13315,2.358475,,,,,0,3,3,10,1,,,,,,,,,,,,,,,,,,,,,,,,,,,,,,,,,,,,,,,,,,,,,,,,,,,,,,,,
,,,,,,,,,,,,l,Correct!,,,,,,t5.png,t2.png,3,0.0000131,20,female,2020-09-28_21h38.56.757,torte-2b,2020.1.3,MacIntel,60,13315,1.332545,,,,,0,4,4,116,1,,,,,,,,,,,,,,,,,,,,,,,,,,,,,,,,,,,,,,,,,,,,,,,,,,,,,,,,
,,,,,,,,,,,,a,Correct!,,,,,,t4.png,t4.png,0,0.98115,20,female,2020-09-28_21h38.56.757,torte-2b,2020.1.3,MacIntel,60,13315,0.900895,,,,,0,5,5,80,1,,,,,,,,,,,,,,,,,,,,,,,,,,,,,,,,,,,,,,,,,,,,,,,,,,,,,,,,
,,,,,,,,,,,,l,Incorrect,,,,,,t1.png,t2.png,1,0.90025,20,female,2020-09-28_21h38.56.757,torte-2b,2020.1.3,MacIntel,60,13315,2.151675,,,,,0,6,6,112,1,,,,,,,,,,,,,,,,,,,,,,,,,,,,,,,,,,,,,,,,,,,,,,,,,,,,,,,,
,,,,,,,,,,,,l,Correct!,,,,,,t4.png,t2.png,2,0.059078,20,female,2020-09-28_21h38.56.757,torte-2b,2020.1.3,MacIntel,60,13315,1.590175,,,,,0,7,7,109,1,,,,,,,,,,,,,,,,,,,,,,,,,,,,,,,,,,,,,,,,,,,,,,,,,,,,,,,,
,,,,,,,,,,,,l,Incorrect,,,,,,t2.png,t1.png,1,0.90025,20,female,2020-09-28_21h38.56.757,torte-2b,2020.1.3,MacIntel,60,13315,1.00747,,,,,0,8,8,19,1,,,,,,,,,,,,,,,,,,,,,,,,,,,,,,,,,,,,,,,,,,,,,,,,,,,,,,,,
,,,,,,,,,,,,l,Correct!,,,,,,t3.png,t5.png,2,0.056466,20,female,2020-09-28_21h38.56.757,torte-2b,2020.1.3,MacIntel,60,13315,1.80676,,,,,0,9,9,6,1,,,,,,,,,,,,,,,,,,,,,,,,,,,,,,,,,,,,,,,,,,,,,,,,,,,,,,,,
,,,,,,,,,,,,l,Incorrect,,,,,,t3.png,t5.png,2,0.0565,20,female,2020-09-28_21h38.56.757,torte-2b,2020.1.3,MacIntel,60,13315,1.15641,,,,,0,10,10,30,1,,,,,,,,,,,,,,,,,,,,,,,,,,,,,,,,,,,,,,,,,,,,,,,,,,,,,,,,
,,,,,,,,,,,,l,Correct!,,,,,,t3.png,t2.png,1,0.90855,20,female,2020-09-28_21h38.56.757,torte-2b,2020.1.3,MacIntel,60,13315,1.711995,,,,,0,11,11,97,1,,,,,,,,,,,,,,,,,,,,,,,,,,,,,,,,,,,,,,,,,,,,,,,,,,,,,,,,
,,,,,,,,,,,,l,Correct!,,,,,,t3.png,t1.png,2,0.056466,20,female,2020-09-28_21h38.56.757,torte-2b,2020.1.3,MacIntel,60,13315,1.28515,,,,,0,12,12,0,1,,,,,,,,,,,,,,,,,,,,,,,,,,,,,,,,,,,,,,,,,,,,,,,,,,,,,,,,
,,,,,,,,,,,,a,Incorrect,,,,,,t5.png,t2.png,3,0.0000131,20,female,2020-09-28_21h38.56.757,torte-2b,2020.1.3,MacIntel,60,13315,0.973595,,,,,0,13,13,51,1,,,,,,,,,,,,,,,,,,,,,,,,,,,,,,,,,,,,,,,,,,,,,,,,,,,,,,,,
,,,,,,,,,,,,a,Correct!,,,,,,t4.png,t5.png,1,0.90025,20,female,2020-09-28_21h38.56.757,torte-2b,2020.1.3,MacIntel,60,13315,1.16473,,,,,0,14,14,113,1,,,,,,,,,,,,,,,,,,,,,,,,,,,,,,,,,,,,,,,,,,,,,,,,,,,,,,,,
,,,,,,,,,,,,a,Correct!,,,,,,t5.png,t5.png,0,0.978,20,female,2020-09-28_21h38.56.757,torte-2b,2020.1.3,MacIntel,60,13315,0.906885,,,,,0,15,15,117,1,,,,,,,,,,,,,,,,,,,,,,,,,,,,,,,,,,,,,,,,,,,,,,,,,,,,,,,,
,,,,,,,,,,,,a,Correct!,,,,,,t4.png,t4.png,0,0.98115,20,female,2020-09-28_21h38.56.757,torte-2b,2020.1.3,MacIntel,60,13315,2.08792,,,,,0,16,16,90,1,,,,,,,,,,,,,,,,,,,,,,,,,,,,,,,,,,,,,,,,,,,,,,,,,,,,,,,,
,,,,,,,,,,,,l,Correct!,,,,,,t2.png,t5.png,3,0.0000131,20,female,2020-09-28_21h38.56.757,torte-2b,2020.1.3,MacIntel,60,13315,1.42136,,,,,0,17,17,95,1,,,,,,,,,,,,,,,,,,,,,,,,,,,,,,,,,,,,,,,,,,,,,,,,,,,,,,,,
,,,,,,,,,,,,l,Incorrect,,,,,,t5.png,t3.png,2,0.056466,20,female,2020-09-28_21h38.56.757,torte-2b,2020.1.3,MacIntel,60,13315,1.555435,,,,,0,18,18,114,1,,,,,,,,,,,,,,,,,,,,,,,,,,,,,,,,,,,,,,,,,,,,,,,,,,,,,,,,
,,,,,,,,,,,,,Too slow :(,,,,,,t5.png,t3.png,2,0.0565,20,female,2020-09-28_21h38.56.757,torte-2b,2020.1.3,MacIntel,60,13315,,,,,,0,19,19,39,1,,,,,,,,,,,,,,,,,,,,,,,,,,,,,,,,,,,,,,,,,,,,,,,,,,,,,,,,
,,,,,,,,,,,,l,Correct!,,,,,,t4.png,t2.png,2,0.059078,20,female,2020-09-28_21h38.56.757,torte-2b,2020.1.3,MacIntel,60,13315,1.24773,,,,,0,20,20,86,1,,,,,,,,,,,,,,,,,,,,,,,,,,,,,,,,,,,,,,,,,,,,,,,,,,,,,,,,
,,,,,,,,,,,,l,Incorrect,,,,,,t2.png,t1.png,1,0.90025,20,female,2020-09-28_21h38.56.757,torte-2b,2020.1.3,MacIntel,60,13315,1.597365,,,,,0,21,21,5,1,,,,,,,,,,,,,,,,,,,,,,,,,,,,,,,,,,,,,,,,,,,,,,,,,,,,,,,,
,,,,,,,,,,,,l,Correct!,,,,,,t3.png,t1.png,2,0.056466,20,female,2020-09-28_21h38.56.757,torte-2b,2020.1.3,MacIntel,60,13315,0.732795,,,,,0,22,22,32,1,,,,,,,,,,,,,,,,,,,,,,,,,,,,,,,,,,,,,,,,,,,,,,,,,,,,,,,,
,,,,,,,,,,,,l,Incorrect,,,,,,t3.png,t2.png,1,0.90855,20,female,2020-09-28_21h38.56.757,torte-2b,2020.1.3,MacIntel,60,13315,0.86909,,,,,0,23,23,53,1,,,,,,,,,,,,,,,,,,,,,,,,,,,,,,,,,,,,,,,,,,,,,,,,,,,,,,,,
,,,,,,,,,,,,a,Correct!,,,,,,t2.png,t2.png,0,0.98115,20,female,2020-09-28_21h38.56.757,torte-2b,2020.1.3,MacIntel,60,13315,1.133775,,,,,0,24,24,59,1,,,,,,,,,,,,,,,,,,,,,,,,,,,,,,,,,,,,,,,,,,,,,,,,,,,,,,,,
,,,,,,,,,,,,l,Correct!,,,,,,t2.png,t5.png,3,0.0000131,20,female,2020-09-28_21h38.56.757,torte-2b,2020.1.3,MacIntel,60,13315,1.807055,,,,,0,25,25,104,1,,,,,,,,,,,,,,,,,,,,,,,,,,,,,,,,,,,,,,,,,,,,,,,,,,,,,,,,
,,,,,,,,,,,,l,Correct!,,,,,,t3.png,t1.png,2,0.056466,20,female,2020-09-28_21h38.56.757,torte-2b,2020.1.3,MacIntel,60,13315,2.320635,,,,,0,26,26,64,1,,,,,,,,,,,,,,,,,,,,,,,,,,,,,,,,,,,,,,,,,,,,,,,,,,,,,,,,
,,,,,,,,,,,,l,Correct!,,,,,,t2.png,t4.png,2,0.059078,20,female,2020-09-28_21h38.56.757,torte-2b,2020.1.3,MacIntel,60,13315,1.866475,,,,,0,27,27,24,1,,,,,,,,,,,,,,,,,,,,,,,,,,,,,,,,,,,,,,,,,,,,,,,,,,,,,,,,
,,,,,,,,,,,,a,Correct!,,,,,,t5.png,t4.png,1,0.90025,20,female,2020-09-28_21h38.56.757,torte-2b,2020.1.3,MacIntel,60,13315,0.889565,,,,,0,28,28,26,1,,,,,,,,,,,,,,,,,,,,,,,,,,,,,,,,,,,,,,,,,,,,,,,,,,,,,,,,
,,,,,,,,,,,,a,Correct!,,,,,,t3.png,t4.png,1,0.909,20,female,2020-09-28_21h38.56.757,torte-2b,2020.1.3,MacIntel,60,13315,2.45199,,,,,0,29,29,106,1,,,,,,,,,,,,,,,,,,,,,,,,,,,,,,,,,,,,,,,,,,,,,,,,,,,,,,,,
,,,,,,,,,,,,,Too slow :(,,,,,,t5.png,t3.png,2,0.056466,20,female,2020-09-28_21h38.56.757,torte-2b,2020.1.3,MacIntel,60,13315,,,,,,0,30,30,38,1,,,,,,,,,,,,,,,,,,,,,,,,,,,,,,,,,,,,,,,,,,,,,,,,,,,,,,,,
,,,,,,,,,,,,a,Correct!,,,,,,t3.png,t2.png,1,0.909,20,female,2020-09-28_21h38.56.757,torte-2b,2020.1.3,MacIntel,60,13315,1.952195,,,,,0,31,31,3,1,,,,,,,,,,,,,,,,,,,,,,,,,,,,,,,,,,,,,,,,,,,,,,,,,,,,,,,,
,,,,,,,,,,,,l,Correct!,,,,,,t1.png,t4.png,3,0.0000131,20,female,2020-09-28_21h38.56.757,torte-2b,2020.1.3,MacIntel,60,13315,1.43334,,,,,0,32,32,17,1,,,,,,,,,,,,,,,,,,,,,,,,,,,,,,,,,,,,,,,,,,,,,,,,,,,,,,,,
,,,,,,,,,,,,l,Correct!,,,,,,t5.png,t2.png,3,0.0000131,20,female,2020-09-28_21h38.56.757,torte-2b,2020.1.3,MacIntel,60,13315,1.28469,,,,,0,33,33,91,1,,,,,,,,,,,,,,,,,,,,,,,,,,,,,,,,,,,,,,,,,,,,,,,,,,,,,,,,
,,,,,,,,,,,,l,Incorrect,,,,,,t4.png,t4.png,0,0.98115,20,female,2020-09-28_21h38.56.757,torte-2b,2020.1.3,MacIntel,60,13315,1.44191,,,,,0,34,34,21,1,,,,,,,,,,,,,,,,,,,,,,,,,,,,,,,,,,,,,,,,,,,,,,,,,,,,,,,,
,,,,,,,,,,,,,Too slow :(,,,,,,t4.png,t3.png,1,0.90855,20,female,2020-09-28_21h38.56.757,torte-2b,2020.1.3,MacIntel,60,13315,,,,,,0,35,35,35,1,,,,,,,,,,,,,,,,,,,,,,,,,,,,,,,,,,,,,,,,,,,,,,,,,,,,,,,,
,,,,,,,,,,,,l,Correct!,,,,,,t1.png,t4.png,3,0.0000131,20,female,2020-09-28_21h38.56.757,torte-2b,2020.1.3,MacIntel,60,13315,1.11787,,,,,0,36,36,50,1,,,,,,,,,,,,,,,,,,,,,,,,,,,,,,,,,,,,,,,,,,,,,,,,,,,,,,,,
,,,,,,,,,,,,a,Correct!,,,,,,t3.png,t4.png,1,0.909,20,female,2020-09-28_21h38.56.757,torte-2b,2020.1.3,MacIntel,60,13315,1.76678,,,,,0,37,37,89,1,,,,,,,,,,,,,,,,,,,,,,,,,,,,,,,,,,,,,,,,,,,,,,,,,,,,,,,,
,,,,,,,,,,,,a,Correct!,,,,,,t5.png,t5.png,0,0.97829,20,female,2020-09-28_21h38.56.757,torte-2b,2020.1.3,MacIntel,60,13315,1.02469,,,,,0,38,38,25,1,,,,,,,,,,,,,,,,,,,,,,,,,,,,,,,,,,,,,,,,,,,,,,,,,,,,,,,,
,,,,,,,,,,,,l,Correct!,,,,,,t1.png,t3.png,2,0.056466,20,female,2020-09-28_21h38.56.757,torte-2b,2020.1.3,MacIntel,60,13315,0.739715,,,,,0,39,39,69,1,,,,,,,,,,,,,,,,,,,,,,,,,,,,,,,,,,,,,,,,,,,,,,,,,,,,,,,,
,,,,,,,,,,,,l,Incorrect,,,,,,t4.png,t5.png,1,0.90025,20,female,2020-09-28_21h38.56.757,torte-2b,2020.1.3,MacIntel,60,13315,1.222695,,,,,0,40,40,58,1,,,,,,,,,,,,,,,,,,,,,,,,,,,,,,,,,,,,,,,,,,,,,,,,,,,,,,,,
,,,,,,,,,,,,l,Incorrect,,,,,,t1.png,t2.png,1,0.90025,20,female,2020-09-28_21h38.56.757,torte-2b,2020.1.3,MacIntel,60,13315,1.613875,,,,,0,41,41,105,1,,,,,,,,,,,,,,,,,,,,,,,,,,,,,,,,,,,,,,,,,,,,,,,,,,,,,,,,
,,,,,,,,,,,,l,Correct!,,,,,,t1.png,t5.png,4,9.55E-11,20,female,2020-09-28_21h38.56.757,torte-2b,2020.1.3,MacIntel,60,13315,1.6183,,,,,0,42,42,41,1,,,,,,,,,,,,,,,,,,,,,,,,,,,,,,,,,,,,,,,,,,,,,,,,,,,,,,,,
,,,,,,,,,,,,l,Incorrect,,,,,,t3.png,t4.png,1,0.90855,20,female,2020-09-28_21h38.56.757,torte-2b,2020.1.3,MacIntel,60,13315,1.40643,,,,,0,43,43,84,1,,,,,,,,,,,,,,,,,,,,,,,,,,,,,,,,,,,,,,,,,,,,,,,,,,,,,,,,
,,,,,,,,,,,,l,Correct!,,,,,,t1.png,t4.png,3,0.0000131,20,female,2020-09-28_21h38.56.757,torte-2b,2020.1.3,MacIntel,60,13315,1.96927,,,,,0,44,44,81,1,,,,,,,,,,,,,,,,,,,,,,,,,,,,,,,,,,,,,,,,,,,,,,,,,,,,,,,,
,,,,,,,,,,,,l,Correct!,,,,,,t2.png,t5.png,3,0.0000131,20,female,2020-09-28_21h38.56.757,torte-2b,2020.1.3,MacIntel,60,13315,1.573605,,,,,0,45,45,8,1,,,,,,,,,,,,,,,,,,,,,,,,,,,,,,,,,,,,,,,,,,,,,,,,,,,,,,,,
,,,,,,,,,,,,a,Correct!,,,,,,t1.png,t1.png,0,0.97829,20,female,2020-09-28_21h38.56.757,torte-2b,2020.1.3,MacIntel,60,13315,0.934415,,,,,0,46,46,78,1,,,,,,,,,,,,,,,,,,,,,,,,,,,,,,,,,,,,,,,,,,,,,,,,,,,,,,,,
,,,,,,,,,,,,a,Correct!,,,,,,t1.png,t1.png,0,0.97829,20,female,2020-09-28_21h38.56.757,torte-2b,2020.1.3,MacIntel,60,13315,0.6328,,,,,0,47,47,67,1,,,,,,,,,,,,,,,,,,,,,,,,,,,,,,,,,,,,,,,,,,,,,,,,,,,,,,,,
,,,,,,,,,,,,a,Correct!,,,,,,t5.png,t4.png,1,0.9,20,female,2020-09-28_21h38.56.757,torte-2b,2020.1.3,MacIntel,60,13315,1.17154,,,,,0,48,48,49,1,,,,,,,,,,,,,,,,,,,,,,,,,,,,,,,,,,,,,,,,,,,,,,,,,,,,,,,,
,,,,,,,,,,,,l,Correct!,,,,,,t1.png,t3.png,2,0.056466,20,female,2020-09-28_21h38.56.757,torte-2b,2020.1.3,MacIntel,60,13315,1.35628,,,,,0,49,49,99,1,,,,,,,,,,,,,,,,,,,,,,,,,,,,,,,,,,,,,,,,,,,,,,,,,,,,,,,,
,,,,,,,,,,,,l,Incorrect,,,,,,t2.png,t3.png,1,0.90855,20,female,2020-09-28_21h38.56.757,torte-2b,2020.1.3,MacIntel,60,13315,1.19852,,,,,0,50,50,111,1,,,,,,,,,,,,,,,,,,,,,,,,,,,,,,,,,,,,,,,,,,,,,,,,,,,,,,,,
,,,,,,,,,,,,l,Correct!,,,,,,t1.png,t3.png,2,0.056466,20,female,2020-09-28_21h38.56.757,torte-2b,2020.1.3,MacIntel,60,13315,1.20459,,,,,0,51,51,87,1,,,,,,,,,,,,,,,,,,,,,,,,,,,,,,,,,,,,,,,,,,,,,,,,,,,,,,,,
,,,,,,,,,,,,l,Correct!,,,,,,t3.png,t1.png,2,0.0565,20,female,2020-09-28_21h38.56.757,torte-2b,2020.1.3,MacIntel,60,13315,1.605225,,,,,0,52,52,31,1,,,,,,,,,,,,,,,,,,,,,,,,,,,,,,,,,,,,,,,,,,,,,,,,,,,,,,,,
,,,,,,,,,,,,a,Correct!,,,,,,t2.png,t2.png,0,0.98115,20,female,2020-09-28_21h38.56.757,torte-2b,2020.1.3,MacIntel,60,13315,1.319855,,,,,0,53,53,57,1,,,,,,,,,,,,,,,,,,,,,,,,,,,,,,,,,,,,,,,,,,,,,,,,,,,,,,,,
,,,,,,,,,,,,l,Correct!,,,,,,t1.png,t3.png,2,0.056466,20,female,2020-09-28_21h38.56.757,torte-2b,2020.1.3,MacIntel,60,13315,1.2734,,,,,0,54,54,60,1,,,,,,,,,,,,,,,,,,,,,,,,,,,,,,,,,,,,,,,,,,,,,,,,,,,,,,,,
,,,,,,,,,,,,a,Correct!,,,,,,t1.png,t1.png,0,0.978,20,female,2020-09-28_21h38.56.757,torte-2b,2020.1.3,MacIntel,60,13315,0.79004,,,,,0,55,55,28,1,,,,,,,,,,,,,,,,,,,,,,,,,,,,,,,,,,,,,,,,,,,,,,,,,,,,,,,,
,,,,,,,,,,,,l,Incorrect,,,,,,t1.png,t2.png,1,0.90025,20,female,2020-09-28_21h38.56.757,torte-2b,2020.1.3,MacIntel,60,13315,1.052505,,,,,0,56,56,33,1,,,,,,,,,,,,,,,,,,,,,,,,,,,,,,,,,,,,,,,,,,,,,,,,,,,,,,,,
,,,,,,,,,,,,a,Incorrect,,,,,,t5.png,t3.png,2,0.056466,20,female,2020-09-28_21h38.56.757,torte-2b,2020.1.3,MacIntel,60,13315,1.77025,,,,,0,57,57,56,1,,,,,,,,,,,,,,,,,,,,,,,,,,,,,,,,,,,,,,,,,,,,,,,,,,,,,,,,
,,,,,,,,,,,,a,Correct!,,,,,,t4.png,t3.png,1,0.90855,20,female,2020-09-28_21h38.56.757,torte-2b,2020.1.3,MacIntel,60,13315,1.15212,,,,,0,58,58,45,1,,,,,,,,,,,,,,,,,,,,,,,,,,,,,,,,,,,,,,,,,,,,,,,,,,,,,,,,
,,,,,,,,,,,,l,Incorrect,,,,,,t2.png,t3.png,1,0.909,20,female,2020-09-28_21h38.56.757,torte-2b,2020.1.3,MacIntel,60,13315,1.464945,,,,,0,59,59,74,1,,,,,,,,,,,,,,,,,,,,,,,,,,,,,,,,,,,,,,,,,,,,,,,,,,,,,,,,
,,,,,,,,,,,,l,Incorrect,,,,,,t3.png,t2.png,1,0.90855,20,female,2020-09-28_21h38.56.757,torte-2b,2020.1.3,MacIntel,60,13315,1.068685,,,,,0,60,60,18,1,,,,,,,,,,,,,,,,,,,,,,,,,,,,,,,,,,,,,,,,,,,,,,,,,,,,,,,,
,,,,,,,,,,,,a,Correct!,,,,,,t5.png,t5.png,0,0.97829,20,female,2020-09-28_21h38.56.757,torte-2b,2020.1.3,MacIntel,60,13315,0.841965,,,,,0,61,61,70,1,,,,,,,,,,,,,,,,,,,,,,,,,,,,,,,,,,,,,,,,,,,,,,,,,,,,,,,,
,,,,,,,,,,,,l,Correct!,,,,,,t2.png,t5.png,3,0.0000131,20,female,2020-09-28_21h38.56.757,torte-2b,2020.1.3,MacIntel,60,13315,1.323745,,,,,0,62,62,66,1,,,,,,,,,,,,,,,,,,,,,,,,,,,,,,,,,,,,,,,,,,,,,,,,,,,,,,,,
,,,,,,,,,,,,l,Correct!,,,,,,t5.png,t1.png,4,9.55E-11,20,female,2020-09-28_21h38.56.757,torte-2b,2020.1.3,MacIntel,60,13315,0.692665,,,,,0,63,63,22,1,,,,,,,,,,,,,,,,,,,,,,,,,,,,,,,,,,,,,,,,,,,,,,,,,,,,,,,,
,,,,,,,,,,,,a,Correct!,,,,,,t4.png,t4.png,0,0.98115,20,female,2020-09-28_21h38.56.757,torte-2b,2020.1.3,MacIntel,60,13315,1.80525,,,,,0,64,64,52,1,,,,,,,,,,,,,,,,,,,,,,,,,,,,,,,,,,,,,,,,,,,,,,,,,,,,,,,,
,,,,,,,,,,,,l,Correct!,,,,,,t1.png,t5.png,4,9.55E-11,20,female,2020-09-28_21h38.56.757,torte-2b,2020.1.3,MacIntel,60,13315,1.42328,,,,,0,65,65,85,1,,,,,,,,,,,,,,,,,,,,,,,,,,,,,,,,,,,,,,,,,,,,,,,,,,,,,,,,
,,,,,,,,,,,,l,Incorrect,,,,,,t4.png,t4.png,0,0.98115,20,female,2020-09-28_21h38.56.757,torte-2b,2020.1.3,MacIntel,60,13315,1.88559,,,,,0,66,66,79,1,,,,,,,,,,,,,,,,,,,,,,,,,,,,,,,,,,,,,,,,,,,,,,,,,,,,,,,,
,,,,,,,,,,,,a,Correct!,,,,,,t5.png,t5.png,0,0.97829,20,female,2020-09-28_21h38.56.757,torte-2b,2020.1.3,MacIntel,60,13315,1.054565,,,,,0,67,67,73,1,,,,,,,,,,,,,,,,,,,,,,,,,,,,,,,,,,,,,,,,,,,,,,,,,,,,,,,,
,,,,,,,,,,,,l,Correct!,,,,,,t3.png,t1.png,2,0.056466,20,female,2020-09-28_21h38.56.757,torte-2b,2020.1.3,MacIntel,60,13315,0.973185,,,,,0,68,68,29,1,,,,,,,,,,,,,,,,,,,,,,,,,,,,,,,,,,,,,,,,,,,,,,,,,,,,,,,,
,,,,,,,,,,,,a,Incorrect,,,,,,t3.png,t5.png,2,0.0565,20,female,2020-09-28_21h38.56.757,torte-2b,2020.1.3,MacIntel,60,13315,1.707425,,,,,0,69,69,83,1,,,,,,,,,,,,,,,,,,,,,,,,,,,,,,,,,,,,,,,,,,,,,,,,,,,,,,,,
,,,,,,,,,,,,a,Incorrect,,,,,,t2.png,t5.png,3,0.0000131,20,female,2020-09-28_21h38.56.757,torte-2b,2020.1.3,MacIntel,60,13315,0.815845,,,,,0,70,70,40,1,,,,,,,,,,,,,,,,,,,,,,,,,,,,,,,,,,,,,,,,,,,,,,,,,,,,,,,,
,,,,,,,,,,,,l,Correct!,,,,,,t2.png,t4.png,2,0.059078,20,female,2020-09-28_21h38.56.757,torte-2b,2020.1.3,MacIntel,60,13315,0.704105,,,,,0,71,71,77,1,,,,,,,,,,,,,,,,,,,,,,,,,,,,,,,,,,,,,,,,,,,,,,,,,,,,,,,,
,,,,,,,,,,,,a,Correct!,,,,,,t4.png,t3.png,1,0.909,20,female,2020-09-28_21h38.56.757,torte-2b,2020.1.3,MacIntel,60,13315,1.8721,,,,,0,72,72,46,1,,,,,,,,,,,,,,,,,,,,,,,,,,,,,,,,,,,,,,,,,,,,,,,,,,,,,,,,
,,,,,,,,,,,,l,Incorrect,,,,,,t2.png,t3.png,1,0.90855,20,female,2020-09-28_21h38.56.757,torte-2b,2020.1.3,MacIntel,60,13315,0.984045,,,,,0,73,73,65,1,,,,,,,,,,,,,,,,,,,,,,,,,,,,,,,,,,,,,,,,,,,,,,,,,,,,,,,,
,,,,,,,,,,,,l,Correct!,,,,,,t4.png,t1.png,3,0.0000131,20,female,2020-09-28_21h38.56.757,torte-2b,2020.1.3,MacIntel,60,13315,1.04009,,,,,0,74,74,61,1,,,,,,,,,,,,,,,,,,,,,,,,,,,,,,,,,,,,,,,,,,,,,,,,,,,,,,,,
,,,,,,,,,,,,a,Correct!,,,,,,t4.png,t3.png,1,0.90855,20,female,2020-09-28_21h38.56.757,torte-2b,2020.1.3,MacIntel,60,13315,1.71644,,,,,0,75,75,75,1,,,,,,,,,,,,,,,,,,,,,,,,,,,,,,,,,,,,,,,,,,,,,,,,,,,,,,,,
,,,,,,,,,,,,l,Correct!,,,,,,t5.png,t1.png,4,9.55E-11,20,female,2020-09-28_21h38.56.757,torte-2b,2020.1.3,MacIntel,60,13315,1.518325,,,,,0,76,76,43,1,,,,,,,,,,,,,,,,,,,,,,,,,,,,,,,,,,,,,,,,,,,,,,,,,,,,,,,,
,,,,,,,,,,,,l,Correct!,,,,,,t4.png,t2.png,2,0.059078,20,female,2020-09-28_21h38.56.757,torte-2b,2020.1.3,MacIntel,60,13315,0.7068,,,,,0,77,77,88,1,,,,,,,,,,,,,,,,,,,,,,,,,,,,,,,,,,,,,,,,,,,,,,,,,,,,,,,,
,,,,,,,,,,,,l,Correct!,,,,,,t2.png,t4.png,2,0.059078,20,female,2020-09-28_21h38.56.757,torte-2b,2020.1.3,MacIntel,60,13315,0.937655,,,,,0,78,78,37,1,,,,,,,,,,,,,,,,,,,,,,,,,,,,,,,,,,,,,,,,,,,,,,,,,,,,,,,,
,,,,,,,,,,,,l,Correct!,,,,,,t1.png,t4.png,3,0.0000131,20,female,2020-09-28_21h38.56.757,torte-2b,2020.1.3,MacIntel,60,13315,1.304555,,,,,0,79,79,107,1,,,,,,,,,,,,,,,,,,,,,,,,,,,,,,,,,,,,,,,,,,,,,,,,,,,,,,,,
,,,,,,,,,,,,l,Correct!,,,,,,t4.png,t1.png,3,0.0000131,20,female,2020-09-28_21h38.56.757,torte-2b,2020.1.3,MacIntel,60,13315,1.35701,,,,,0,80,80,42,1,,,,,,,,,,,,,,,,,,,,,,,,,,,,,,,,,,,,,,,,,,,,,,,,,,,,,,,,
,,,,,,,,,,,,l,Correct!,,,,,,t5.png,t2.png,3,0.0000131,20,female,2020-09-28_21h38.56.757,torte-2b,2020.1.3,MacIntel,60,13315,0.9908,,,,,0,81,81,98,1,,,,,,,,,,,,,,,,,,,,,,,,,,,,,,,,,,,,,,,,,,,,,,,,,,,,,,,,
,,,,,,,,,,,,a,Correct!,,,,,,t4.png,t3.png,1,0.909,20,female,2020-09-28_21h38.56.757,torte-2b,2020.1.3,MacIntel,60,13315,1.042195,,,,,0,82,82,20,1,,,,,,,,,,,,,,,,,,,,,,,,,,,,,,,,,,,,,,,,,,,,,,,,,,,,,,,,
,,,,,,,,,,,,a,Correct!,,,,,,t4.png,t5.png,1,0.90025,20,female,2020-09-28_21h38.56.757,torte-2b,2020.1.3,MacIntel,60,13315,1.317375,,,,,0,83,83,47,1,,,,,,,,,,,,,,,,,,,,,,,,,,,,,,,,,,,,,,,,,,,,,,,,,,,,,,,,
,,,,,,,,,,,,l,Correct!,,,,,,t4.png,t1.png,3,0.0000131,20,female,2020-09-28_21h38.56.757,torte-2b,2020.1.3,MacIntel,60,13315,0.934115,,,,,0,84,84,48,1,,,,,,,,,,,,,,,,,,,,,,,,,,,,,,,,,,,,,,,,,,,,,,,,,,,,,,,,
,,,,,,,,,,,,l,Incorrect,,,,,,t1.png,t2.png,1,0.9,20,female,2020-09-28_21h38.56.757,torte-2b,2020.1.3,MacIntel,60,13315,0.952885,,,,,0,85,85,1,1,,,,,,,,,,,,,,,,,,,,,,,,,,,,,,,,,,,,,,,,,,,,,,,,,,,,,,,,
,,,,,,,,,,,,a,Correct!,,,,,,t4.png,t5.png,1,0.90025,20,female,2020-09-28_21h38.56.757,torte-2b,2020.1.3,MacIntel,60,13315,1.47553,,,,,0,86,86,103,1,,,,,,,,,,,,,,,,,,,,,,,,,,,,,,,,,,,,,,,,,,,,,,,,,,,,,,,,
,,,,,,,,,,,,,Too slow :(,,,,,,t3.png,t5.png,2,0.056466,20,female,2020-09-28_21h38.56.757,torte-2b,2020.1.3,MacIntel,60,13315,,,,,,0,87,87,44,1,,,,,,,,,,,,,,,,,,,,,,,,,,,,,,,,,,,,,,,,,,,,,,,,,,,,,,,,
,,,,,,,,,,,,a,Incorrect,,,,,,t5.png,t3.png,2,0.056466,20,female,2020-09-28_21h38.56.757,torte-2b,2020.1.3,MacIntel,60,13315,0.823935,,,,,0,88,88,108,1,,,,,,,,,,,,,,,,,,,,,,,,,,,,,,,,,,,,,,,,,,,,,,,,,,,,,,,,
,,,,,,,,,,,,l,Correct!,,,,,,t3.png,t2.png,1,0.909,20,female,2020-09-28_21h38.56.757,torte-2b,2020.1.3,MacIntel,60,13315,1.166645,,,,,0,89,89,23,1,,,,,,,,,,,,,,,,,,,,,,,,,,,,,,,,,,,,,,,,,,,,,,,,,,,,,,,,
,,,,,,,,,,,,l,Correct!,,,,,,t1.png,t5.png,4,9.55E-11,20,female,2020-09-28_21h38.56.757,torte-2b,2020.1.3,MacIntel,60,13315,0.95444,,,,,0,90,90,16,1,,,,,,,,,,,,,,,,,,,,,,,,,,,,,,,,,,,,,,,,,,,,,,,,,,,,,,,,
,,,,,,,,,,,,l,Correct!,,,,,,t2.png,t4.png,2,0.059078,20,female,2020-09-28_21h38.56.757,torte-2b,2020.1.3,MacIntel,60,13315,1.40098,,,,,0,91,91,11,1,,,,,,,,,,,,,,,,,,,,,,,,,,,,,,,,,,,,,,,,,,,,,,,,,,,,,,,,
,,,,,,,,,,,,a,Correct!,,,,,,t4.png,t5.png,1,0.9,20,female,2020-09-28_21h38.56.757,torte-2b,2020.1.3,MacIntel,60,13315,0.783435,,,,,0,92,92,115,1,,,,,,,,,,,,,,,,,,,,,,,,,,,,,,,,,,,,,,,,,,,,,,,,,,,,,,,,
,,,,,,,,,,,,a,Correct!,,,,,,t2.png,t2.png,0,0.98115,20,female,2020-09-28_21h38.56.757,torte-2b,2020.1.3,MacIntel,60,13315,1.68392,,,,,0,93,93,2,1,,,,,,,,,,,,,,,,,,,,,,,,,,,,,,,,,,,,,,,,,,,,,,,,,,,,,,,,
,,,,,,,,,,,,l,Incorrect,,,,,,t5.png,t4.png,1,0.9,20,female,2020-09-28_21h38.56.757,torte-2b,2020.1.3,MacIntel,60,13315,1.970105,,,,,0,94,94,76,1,,,,,,,,,,,,,,,,,,,,,,,,,,,,,,,,,,,,,,,,,,,,,,,,,,,,,,,,
,,,,,,,,,,,,l,Correct!,,,,,,t5.png,t1.png,4,9.55E-11,20,female,2020-09-28_21h38.56.757,torte-2b,2020.1.3,MacIntel,60,13315,1.52075,,,,,0,95,95,102,1,,,,,,,,,,,,,,,,,,,,,,,,,,,,,,,,,,,,,,,,,,,,,,,,,,,,,,,,
,,,,,,,,,,,,l,Incorrect,,,,,,t1.png,t2.png,1,0.90025,20,female,2020-09-28_21h38.56.757,torte-2b,2020.1.3,MacIntel,60,13315,1.608325,,,,,0,96,96,72,1,,,,,,,,,,,,,,,,,,,,,,,,,,,,,,,,,,,,,,,,,,,,,,,,,,,,,,,,
,,,,,,,,,,,,l,Correct!,,,,,,t4.png,t1.png,3,0.0000131,20,female,2020-09-28_21h38.56.757,torte-2b,2020.1.3,MacIntel,60,13315,0.920105,,,,,0,97,97,93,1,,,,,,,,,,,,,,,,,,,,,,,,,,,,,,,,,,,,,,,,,,,,,,,,,,,,,,,,
,,,,,,,,,,,,l,Correct!,,,,,,t5.png,t1.png,4,9.55E-11,20,female,2020-09-28_21h38.56.757,torte-2b,2020.1.3,MacIntel,60,13315,0.6363,,,,,0,98,98,71,1,,,,,,,,,,,,,,,,,,,,,,,,,,,,,,,,,,,,,,,,,,,,,,,,,,,,,,,,
,,,,,,,,,,,,l,Correct!,,,,,,t4.png,t2.png,2,0.059078,20,female,2020-09-28_21h38.56.757,torte-2b,2020.1.3,MacIntel,60,13315,1.266135,,,,,0,99,99,110,1,,,,,,,,,,,,,,,,,,,,,,,,,,,,,,,,,,,,,,,,,,,,,,,,,,,,,,,,
,,,,,,,,,,,,l,Correct!,,,,,,t4.png,t1.png,3,0.0000131,20,female,2020-09-28_21h38.56.757,torte-2b,2020.1.3,MacIntel,60,13315,0.88443,,,,,0,100,100,13,1,,,,,,,,,,,,,,,,,,,,,,,,,,,,,,,,,,,,,,,,,,,,,,,,,,,,,,,,
,,,,,,,,,,,,a,Correct!,,,,,,t1.png,t1.png,0,0.97829,20,female,2020-09-28_21h38.56.757,torte-2b,2020.1.3,MacIntel,60,13315,0.682505,,,,,0,101,101,9,1,,,,,,,,,,,,,,,,,,,,,,,,,,,,,,,,,,,,,,,,,,,,,,,,,,,,,,,,
,,,,,,,,,,,,a,Correct!,,,,,,t2.png,t1.png,1,0.90025,20,female,2020-09-28_21h38.56.757,torte-2b,2020.1.3,MacIntel,60,13315,1.189185,,,,,0,102,102,4,1,,,,,,,,,,,,,,,,,,,,,,,,,,,,,,,,,,,,,,,,,,,,,,,,,,,,,,,,
,,,,,,,,,,,,a,Correct!,,,,,,t2.png,t3.png,1,0.90855,20,female,2020-09-28_21h38.56.757,torte-2b,2020.1.3,MacIntel,60,13315,0.86891,,,,,0,103,103,68,1,,,,,,,,,,,,,,,,,,,,,,,,,,,,,,,,,,,,,,,,,,,,,,,,,,,,,,,,
,,,,,,,,,,,,l,Incorrect,,,,,,t2.png,t1.png,1,0.90025,20,female,2020-09-28_21h38.56.757,torte-2b,2020.1.3,MacIntel,60,13315,0.583315,,,,,0,104,104,62,1,,,,,,,,,,,,,,,,,,,,,,,,,,,,,,,,,,,,,,,,,,,,,,,,,,,,,,,,
,,,,,,,,,,,,a,Correct!,,,,,,t1.png,t1.png,0,0.978,20,female,2020-09-28_21h38.56.757,torte-2b,2020.1.3,MacIntel,60,13315,0.923265,,,,,0,105,105,54,1,,,,,,,,,,,,,,,,,,,,,,,,,,,,,,,,,,,,,,,,,,,,,,,,,,,,,,,,
,,,,,,,,,,,,l,Correct!,,,,,,t2.png,t4.png,2,0.0591,20,female,2020-09-28_21h38.56.757,torte-2b,2020.1.3,MacIntel,60,13315,1.32324,,,,,0,106,106,15,1,,,,,,,,,,,,,,,,,,,,,,,,,,,,,,,,,,,,,,,,,,,,,,,,,,,,,,,,
,,,,,,,,,,,,l,Correct!,,,,,,t1.png,t4.png,3,0.0000131,20,female,2020-09-28_21h38.56.757,torte-2b,2020.1.3,MacIntel,60,13315,1.23843,,,,,0,107,107,92,1,,,,,,,,,,,,,,,,,,,,,,,,,,,,,,,,,,,,,,,,,,,,,,,,,,,,,,,,
,,,,,,,,,,,,a,Correct!,,,,,,t3.png,t4.png,1,0.90855,20,female,2020-09-28_21h38.56.757,torte-2b,2020.1.3,MacIntel,60,13315,1.356595,,,,,0,108,108,96,1,,,,,,,,,,,,,,,,,,,,,,,,,,,,,,,,,,,,,,,,,,,,,,,,,,,,,,,,
,,,,,,,,,,,,a,Incorrect,,,,,,t3.png,t5.png,2,0.056466,20,female,2020-09-28_21h38.56.757,torte-2b,2020.1.3,MacIntel,60,13315,1.7007,,,,,0,109,109,14,1,,,,,,,,,,,,,,,,,,,,,,,,,,,,,,,,,,,,,,,,,,,,,,,,,,,,,,,,
,,,,,,,,,,,,a,Correct!,,,,,,t5.png,t4.png,1,0.90025,20,female,2020-09-28_21h38.56.757,torte-2b,2020.1.3,MacIntel,60,13315,1.32588,,,,,0,110,110,27,1,,,,,,,,,,,,,,,,,,,,,,,,,,,,,,,,,,,,,,,,,,,,,,,,,,,,,,,,
,,,,,,,,,,,,a,Correct!,,,,,,t5.png,t4.png,1,0.90025,20,female,2020-09-28_21h38.56.757,torte-2b,2020.1.3,MacIntel,60,13315,1.01856,,,,,0,111,111,34,1,,,,,,,,,,,,,,,,,,,,,,,,,,,,,,,,,,,,,,,,,,,,,,,,,,,,,,,,
,,,,,,,,,,,,l,Correct!,,,,,,t1.png,t3.png,2,0.056466,20,female,2020-09-28_21h38.56.757,torte-2b,2020.1.3,MacIntel,60,13315,0.72344,,,,,0,112,112,63,1,,,,,,,,,,,,,,,,,,,,,,,,,,,,,,,,,,,,,,,,,,,,,,,,,,,,,,,,
,,,,,,,,,,,,l,Correct!,,,,,,t5.png,t2.png,3,0.0000131,20,female,2020-09-28_21h38.56.757,torte-2b,2020.1.3,MacIntel,60,13315,0.975735,,,,,0,113,113,119,1,,,,,,,,,,,,,,,,,,,,,,,,,,,,,,,,,,,,,,,,,,,,,,,,,,,,,,,,
,,,,,,,,,,,,a,Correct!,,,,,,t3.png,t4.png,1,0.909,20,female,2020-09-28_21h38.56.757,torte-2b,2020.1.3,MacIntel,60,13315,0.992825,,,,,0,114,114,82,1,,,,,,,,,,,,,,,,,,,,,,,,,,,,,,,,,,,,,,,,,,,,,,,,,,,,,,,,
,,,,,,,,,,,,a,Correct!,,,,,,t5.png,t5.png,0,0.97829,20,female,2020-09-28_21h38.56.757,torte-2b,2020.1.3,MacIntel,60,13315,1.215965,,,,,0,115,115,94,1,,,,,,,,,,,,,,,,,,,,,,,,,,,,,,,,,,,,,,,,,,,,,,,,,,,,,,,,
,,,,,,,,,,,,l,Correct!,,,,,,t1.png,t5.png,4,9.55E-11,20,female,2020-09-28_21h38.56.757,torte-2b,2020.1.3,MacIntel,60,13315,0.91751,,,,,0,116,116,55,1,,,,,,,,,,,,,,,,,,,,,,,,,,,,,,,,,,,,,,,,,,,,,,,,,,,,,,,,
,,,,,,,,,,,,a,Correct!,,,,,,t2.png,t2.png,0,0.98115,20,female,2020-09-28_21h38.56.757,torte-2b,2020.1.3,MacIntel,60,13315,1.5675,,,,,0,117,117,7,1,,,,,,,,,,,,,,,,,,,,,,,,,,,,,,,,,,,,,,,,,,,,,,,,,,,,,,,,
,,,,,,,,,,,,l,Correct!,,,,,,t1.png,t5.png,4,9.55E-11,20,female,2020-09-28_21h38.56.757,torte-2b,2020.1.3,MacIntel,60,13315,1.521495,,,,,0,118,118,12,1,,,,,,,,,,,,,,,,,,,,,,,,,,,,,,,,,,,,,,,,,,,,,,,,,,,,,,,,
,,,,,,,,,,,,l,Correct!,,,,,,t5.png,t1.png,4,9.55E-11,20,female,2020-09-28_21h38.56.757,torte-2b,2020.1.3,MacIntel,60,13315,0.93501,,,,,0,119,119,100,1,,,,,,,,,,,,,,,,,,,,,,,,,,,,,,,,,,,,,,,,,,,,,,,,,,,,,,,,
,,,,,,,,,,,,,,,,,,,,,,,20,female,2020-09-28_21h38.56.757,torte-2b,2020.1.3,MacIntel,60,13315,,space,1.55209,,,,,,,,space,36.99154,space,1.658355,0,0,0,0,1,6,,,,,,,,,,,,,,,,,,,,,,,,,,,,,,,,,,,,,,,,,,,,,,
,,,,,,,,,,,,,,,,,,,,,,,20,female,2020-09-28_21h38.56.757,torte-2b,2020.1.3,MacIntel,60,13315,,,,,,,,,,,,,space,1.48156,0,1,1,1,1,7,,,,,,,,,,,,,,,,,,,,,,,,,,,,,,,,,,,,,,,,,,,,,,
,,,,,,,,,,,,,,,,,,,,,,,20,female,2020-09-28_21h38.56.757,torte-2b,2020.1.3,MacIntel,60,13315,,,,,,,,,,,,,space,0.67031,0,2,2,2,1,6,,,,,,,,,,,,,,,,,,,,,,,,,,,,,,,,,,,,,,,,,,,,,,
,,,,,,,,,,,,,,,,,,,,,,,20,female,2020-09-28_21h38.56.757,torte-2b,2020.1.3,MacIntel,60,13315,,,,,,,,,,,,,,,0,3,3,3,1,7,,,,,,,,,,,,,,,,,,,,,,,,,,,,,,,,,,,,,,,,,,,,,,
,,,,,,,,,,,,,,,,,,,,,,,20,female,2020-09-28_21h38.56.757,torte-2b,2020.1.3,MacIntel,60,13315,,,,,,,,,,,,,space,1.520075,0,4,4,4,1,5,,,,,,,,,,,,,,,,,,,,,,,,,,,,,,,,,,,,,,,,,,,,,,
,,,,,,,,,,,,,,,,,,,,,,,20,female,2020-09-28_21h38.56.757,torte-2b,2020.1.3,MacIntel,60,13315,,,,,,,,,,,,,space,0.79253,0,5,5,5,1,7,,,,,,,,,,,,,,,,,,,,,,,,,,,,,,,,,,,,,,,,,,,,,,
,,,,,,,,,,,,,,,,,,,,,,,20,female,2020-09-28_21h38.56.757,torte-2b,2020.1.3,MacIntel,60,13315,,,,,,,,,,,,,space,1.06632,0,6,6,6,1,2,,,,,,,,,,,,,,,,,,,,,,,,,,,,,,,,,,,,,,,,,,,,,,
,,,,,,,,,,,,,,,,,,,,,,,20,female,2020-09-28_21h38.56.757,torte-2b,2020.1.3,MacIntel,60,13315,,,,,,,,,,,,,space,1.029495,0,7,7,7,1,4,,,,,,,,,,,,,,,,,,,,,,,,,,,,,,,,,,,,,,,,,,,,,,
,,,,,,,,,,,,,,,,,,,,,,,20,female,2020-09-28_21h38.56.757,torte-2b,2020.1.3,MacIntel,60,13315,,,,,,,,,,,,,,,0,8,8,8,1,7,,,,,,,,,,,,,,,,,,,,,,,,,,,,,,,,,,,,,,,,,,,,,,
,,,,,,,,,,,,,,,,,,,,,,,20,female,2020-09-28_21h38.56.757,torte-2b,2020.1.3,MacIntel,60,13315,,,,,,,,,,,,,space,0.77967,0,9,9,9,1,4,,,,,,,,,,,,,,,,,,,,,,,,,,,,,,,,,,,,,,,,,,,,,,
,,,,,,,,,,,,,,,,,,,,,,,20,female,2020-09-28_21h38.56.757,torte-2b,2020.1.3,MacIntel,60,13315,,,,,,,,,,,,,,,0,10,10,10,1,7,,,,,,,,,,,,,,,,,,,,,,,,,,,,,,,,,,,,,,,,,,,,,,
,,,,,,,,,,,,,,,,,,,,,,,20,female,2020-09-28_21h38.56.757,torte-2b,2020.1.3,MacIntel,60,13315,,,,,,,,,,,,,,,0,11,11,11,1,7,,,,,,,,,,,,,,,,,,,,,,,,,,,,,,,,,,,,,,,,,,,,,,
,,,,,,,,,,,,,,,,,,,,,,,20,female,2020-09-28_21h38.56.757,torte-2b,2020.1.3,MacIntel,60,13315,,,,,,,,,,,,,space,0.496485,0,12,12,12,1,7,,,,,,,,,,,,,,,,,,,,,,,,,,,,,,,,,,,,,,,,,,,,,,
,,,,,,,,,,,,,,,,,,,,,,,20,female,2020-09-28_21h38.56.757,torte-2b,2020.1.3,MacIntel,60,13315,,,,,,,,,,,,,,,0,13,13,13,1,4,,,,,,,,,,,,,,,,,,,,,,,,,,,,,,,,,,,,,,,,,,,,,,
,,,,,,,,,,,,,,,,,,,,,,,20,female,2020-09-28_21h38.56.757,torte-2b,2020.1.3,MacIntel,60,13315,,,,,,,,,,,,,,,0,14,14,14,1,6,,,,,,,,,,,,,,,,,,,,,,,,,,,,,,,,,,,,,,,,,,,,,,
,,,,,,,,,,,,,,,,,,,,,,,20,female,2020-09-28_21h38.56.757,torte-2b,2020.1.3,MacIntel,60,13315,,,,,,,,,,,,,space,0.57125,0,15,15,15,1,4,,,,,,,,,,,,,,,,,,,,,,,,,,,,,,,,,,,,,,,,,,,,,,
,,,,,,,,,,,,,,,,,,,,,,,20,female,2020-09-28_21h38.56.757,torte-2b,2020.1.3,MacIntel,60,13315,,,,,,,,,,,,,space,0.56642,0,16,16,16,1,6,,,,,,,,,,,,,,,,,,,,,,,,,,,,,,,,,,,,,,,,,,,,,,
,,,,,,,,,,,,,,,,,,,,,,,20,female,2020-09-28_21h38.56.757,torte-2b,2020.1.3,MacIntel,60,13315,,,,,,,,,,,,,,,0,17,17,17,1,7,,,,,,,,,,,,,,,,,,,,,,,,,,,,,,,,,,,,,,,,,,,,,,
,,,,,,,,,,,,,,,,,,,,,,,20,female,2020-09-28_21h38.56.757,torte-2b,2020.1.3,MacIntel,60,13315,,,,,,,,,,,,,space,0.78135,0,18,18,18,1,6,,,,,,,,,,,,,,,,,,,,,,,,,,,,,,,,,,,,,,,,,,,,,,
,,,,,,,,,,,,,,,,,,,,,,,20,female,2020-09-28_21h38.56.757,torte-2b,2020.1.3,MacIntel,60,13315,,,,,,,,,,,,,space,0.69073,0,19,19,19,1,7,,,,,,,,,,,,,,,,,,,,,,,,,,,,,,,,,,,,,,,,,,,,,,
,,,,,,,,,,,,,,,,,,,,,,,20,female,2020-09-28_21h38.56.757,torte-2b,2020.1.3,MacIntel,60,13315,,,,,,,,,,,,,,,0,20,20,20,1,5,,,,,,,,,,,,,,,,,,,,,,,,,,,,,,,,,,,,,,,,,,,,,,
,,,,,,,,,,,,,,,,,,,,,,,20,female,2020-09-28_21h38.56.757,torte-2b,2020.1.3,MacIntel,60,13315,,,,,,,,,,,,,,,0,21,21,21,1,1,,,,,,,,,,,,,,,,,,,,,,,,,,,,,,,,,,,,,,,,,,,,,,
,,,,,,,,,,,,,,,,,,,,,,,20,female,2020-09-28_21h38.56.757,torte-2b,2020.1.3,MacIntel,60,13315,,,,,,,,,,,,,,,0,22,22,22,1,6,,,,,,,,,,,,,,,,,,,,,,,,,,,,,,,,,,,,,,,,,,,,,,
,,,,,,,,,,,,,,,,,,,,,,,20,female,2020-09-28_21h38.56.757,torte-2b,2020.1.3,MacIntel,60,13315,,,,,,,,,,,,,space,0.804655,0,23,23,23,1,1,,,,,,,,,,,,,,,,,,,,,,,,,,,,,,,,,,,,,,,,,,,,,,
,,,,,,,,,,,,,,,,,,,,,,,20,female,2020-09-28_21h38.56.757,torte-2b,2020.1.3,MacIntel,60,13315,,,,,,,,,,,,,,,0,24,24,24,1,5,,,,,,,,,,,,,,,,,,,,,,,,,,,,,,,,,,,,,,,,,,,,,,
,,,,,,,,,,,,,,,,,,,,,,,20,female,2020-09-28_21h38.56.757,torte-2b,2020.1.3,MacIntel,60,13315,,,,,,,,,,,,,,,0,25,25,25,1,6,,,,,,,,,,,,,,,,,,,,,,,,,,,,,,,,,,,,,,,,,,,,,,
,,,,,,,,,,,,,,,,,,,,,,,20,female,2020-09-28_21h38.56.757,torte-2b,2020.1.3,MacIntel,60,13315,,,,,,,,,,,,,,,0,26,26,26,1,6,,,,,,,,,,,,,,,,,,,,,,,,,,,,,,,,,,,,,,,,,,,,,,
,,,,,,,,,,,,,,,,,,,,,,,20,female,2020-09-28_21h38.56.757,torte-2b,2020.1.3,MacIntel,60,13315,,,,,,,,,,,,,space,0.785485,0,27,27,27,1,6,,,,,,,,,,,,,,,,,,,,,,,,,,,,,,,,,,,,,,,,,,,,,,
,,,,,,,,,,,,,,,,,,,,,,,20,female,2020-09-28_21h38.56.757,torte-2b,2020.1.3,MacIntel,60,13315,,,,,,,,,,,,,,,0,28,28,28,1,5,,,,,,,,,,,,,,,,,,,,,,,,,,,,,,,,,,,,,,,,,,,,,,
,,,,,,,,,,,,,,,,,,,,,,,20,female,2020-09-28_21h38.56.757,torte-2b,2020.1.3,MacIntel,60,13315,,,,,,,,,,,,,,,0,29,29,29,1,2,,,,,,,,,,,,,,,,,,,,,,,,,,,,,,,,,,,,,,,,,,,,,,
,,,,,,,,,,,,,,,,,,,,,,,20,female,2020-09-28_21h38.56.757,torte-2b,2020.1.3,MacIntel,60,13315,,,,,,,,,,,,,space,0.870605,0,30,30,30,1,5,,,,,,,,,,,,,,,,,,,,,,,,,,,,,,,,,,,,,,,,,,,,,,
,,,,,,,,,,,,,,,,,,,,,,,20,female,2020-09-28_21h38.56.757,torte-2b,2020.1.3,MacIntel,60,13315,,,,,,,,,,,,,space,1.665225,0,31,31,31,1,2,,,,,,,,,,,,,,,,,,,,,,,,,,,,,,,,,,,,,,,,,,,,,,
,,,,,,,,,,,,,,,,,,,,,,,20,female,2020-09-28_21h38.56.757,torte-2b,2020.1.3,MacIntel,60,13315,,,,,,,,,,,,,space,1.10359,0,32,32,32,1,5,,,,,,,,,,,,,,,,,,,,,,,,,,,,,,,,,,,,,,,,,,,,,,
,,,,,,,,,,,,,,,,,,,,,,,20,female,2020-09-28_21h38.56.757,torte-2b,2020.1.3,MacIntel,60,13315,,,,,,,,,,,,,,,0,33,33,33,1,1,,,,,,,,,,,,,,,,,,,,,,,,,,,,,,,,,,,,,,,,,,,,,,
,,,,,,,,,,,,,,,,,,,,,,,20,female,2020-09-28_21h38.56.757,torte-2b,2020.1.3,MacIntel,60,13315,,,,,,,,,,,,,,,0,34,34,34,1,1,,,,,,,,,,,,,,,,,,,,,,,,,,,,,,,,,,,,,,,,,,,,,,
,,,,,,,,,,,,,,,,,,,,,,,20,female,2020-09-28_21h38.56.757,torte-2b,2020.1.3,MacIntel,60,13315,,,,,,,,,,,,,,,,,,,,2,0,0,0,0,1,,,,,,,,,,,,,,,,,,,,,,,,,,,,,,,,,,,,,,,,,
,,,,,,,,,,,,,,,,,,,,,,,20,female,2020-09-28_21h38.56.757,torte-2b,2020.1.3,MacIntel,60,13315,,,,,,,,,,,,,,,,,,,,2,0,1,1,1,1,,,,,,,,,,,,,,,,,,,,,,,,,,,,,,,,,,,,,,,,,
,,,,,,,,,,,,,,,,,,,,,,,20,female,2020-09-28_21h38.56.757,torte-2b,2020.1.3,MacIntel,60,13315,,,,,,,,,,,,,,,,,,,,6,0,2,2,2,1,,,,,,,,,,,,,,,,,,,,,,,,,,,,,,,,,,,,,,,,,
,,,,,,,,,,,,,,,,,,,,,,,20,female,2020-09-28_21h38.56.757,torte-2b,2020.1.3,MacIntel,60,13315,,,,,,,,,,,,,space,0.51802,,,,,,2,0,3,3,3,1,,,,,,,,,,,,,,,,,,,,,,,,,,,,,,,,,,,,,,,,,
,,,,,,,,,,,,,,,,,,,,,,,20,female,2020-09-28_21h38.56.757,torte-2b,2020.1.3,MacIntel,60,13315,,,,,,,,,,,,,space,0.568975,,,,,,6,0,4,4,4,1,,,,,,,,,,,,,,,,,,,,,,,,,,,,,,,,,,,,,,,,,
,,,,,,,,,,,,,,,,,,,,,,,20,female,2020-09-28_21h38.56.757,torte-2b,2020.1.3,MacIntel,60,13315,,,,,,,,,,,,,space,0.6878,,,,,,2,0,5,5,5,1,,,,,,,,,,,,,,,,,,,,,,,,,,,,,,,,,,,,,,,,,
,,,,,,,,,,,,,,,,,,,,,,,20,female,2020-09-28_21h38.56.757,torte-2b,2020.1.3,MacIntel,60,13315,,,,,,,,,,,,,,,,,,,,7,0,6,6,6,1,,,,,,,,,,,,,,,,,,,,,,,,,,,,,,,,,,,,,,,,,
,,,,,,,,,,,,,,,,,,,,,,,20,female,2020-09-28_21h38.56.757,torte-2b,2020.1.3,MacIntel,60,13315,,,,,,,,,,,,,space,0.74439,,,,,,2,0,7,7,7,1,,,,,,,,,,,,,,,,,,,,,,,,,,,,,,,,,,,,,,,,,
,,,,,,,,,,,,,,,,,,,,,,,20,female,2020-09-28_21h38.56.757,torte-2b,2020.1.3,MacIntel,60,13315,,,,,,,,,,,,,space,0.843635,,,,,,7,0,8,8,8,1,,,,,,,,,,,,,,,,,,,,,,,,,,,,,,,,,,,,,,,,,
,,,,,,,,,,,,,,,,,,,,,,,20,female,2020-09-28_21h38.56.757,torte-2b,2020.1.3,MacIntel,60,13315,,,,,,,,,,,,,space,0.643785,,,,,,2,0,9,9,9,1,,,,,,,,,,,,,,,,,,,,,,,,,,,,,,,,,,,,,,,,,
,,,,,,,,,,,,,,,,,,,,,,,20,female,2020-09-28_21h38.56.757,torte-2b,2020.1.3,MacIntel,60,13315,,,,,,,,,,,,,,,,,,,,5,0,10,10,10,1,,,,,,,,,,,,,,,,,,,,,,,,,,,,,,,,,,,,,,,,,
,,,,,,,,,,,,,,,,,,,,,,,20,female,2020-09-28_21h38.56.757,torte-2b,2020.1.3,MacIntel,60,13315,,,,,,,,,,,,,,,,,,,,4,0,11,11,11,1,,,,,,,,,,,,,,,,,,,,,,,,,,,,,,,,,,,,,,,,,
,,,,,,,,,,,,,,,,,,,,,,,20,female,2020-09-28_21h38.56.757,torte-2b,2020.1.3,MacIntel,60,13315,,,,,,,,,,,,,space,0.67977,,,,,,5,0,12,12,12,1,,,,,,,,,,,,,,,,,,,,,,,,,,,,,,,,,,,,,,,,,
,,,,,,,,,,,,,,,,,,,,,,,20,female,2020-09-28_21h38.56.757,torte-2b,2020.1.3,MacIntel,60,13315,,,,,,,,,,,,,,,,,,,,6,0,13,13,13,1,,,,,,,,,,,,,,,,,,,,,,,,,,,,,,,,,,,,,,,,,
,,,,,,,,,,,,,,,,,,,,,,,20,female,2020-09-28_21h38.56.757,torte-2b,2020.1.3,MacIntel,60,13315,,,,,,,,,,,,,space,0.705535,,,,,,5,0,14,14,14,1,,,,,,,,,,,,,,,,,,,,,,,,,,,,,,,,,,,,,,,,,
,,,,,,,,,,,,,,,,,,,,,,,20,female,2020-09-28_21h38.56.757,torte-2b,2020.1.3,MacIntel,60,13315,,,,,,,,,,,,,,,,,,,,4,0,15,15,15,1,,,,,,,,,,,,,,,,,,,,,,,,,,,,,,,,,,,,,,,,,
,,,,,,,,,,,,,,,,,,,,,,,20,female,2020-09-28_21h38.56.757,torte-2b,2020.1.3,MacIntel,60,13315,,,,,,,,,,,,,space,0.614565,,,,,,5,0,16,16,16,1,,,,,,,,,,,,,,,,,,,,,,,,,,,,,,,,,,,,,,,,,
,,,,,,,,,,,,,,,,,,,,,,,20,female,2020-09-28_21h38.56.757,torte-2b,2020.1.3,MacIntel,60,13315,,,,,,,,,,,,,,,,,,,,3,0,17,17,17,1,,,,,,,,,,,,,,,,,,,,,,,,,,,,,,,,,,,,,,,,,
,,,,,,,,,,,,,,,,,,,,,,,20,female,2020-09-28_21h38.56.757,torte-2b,2020.1.3,MacIntel,60,13315,,,,,,,,,,,,,,,,,,,,6,0,18,18,18,1,,,,,,,,,,,,,,,,,,,,,,,,,,,,,,,,,,,,,,,,,
,,,,,,,,,,,,,,,,,,,,,,,20,female,2020-09-28_21h38.56.757,torte-2b,2020.1.3,MacIntel,60,13315,,,,,,,,,,,,,,,,,,,,6,0,19,19,19,1,,,,,,,,,,,,,,,,,,,,,,,,,,,,,,,,,,,,,,,,,
,,,,,,,,,,,,,,,,,,,,,,,20,female,2020-09-28_21h38.56.757,torte-2b,2020.1.3,MacIntel,60,13315,,,,,,,,,,,,,space,0.79021,,,,,,6,0,20,20,20,1,,,,,,,,,,,,,,,,,,,,,,,,,,,,,,,,,,,,,,,,,
,,,,,,,,,,,,,,,,,,,,,,,20,female,2020-09-28_21h38.56.757,torte-2b,2020.1.3,MacIntel,60,13315,,,,,,,,,,,,,,,,,,,,4,0,21,21,21,1,,,,,,,,,,,,,,,,,,,,,,,,,,,,,,,,,,,,,,,,,
,,,,,,,,,,,,,,,,,,,,,,,20,female,2020-09-28_21h38.56.757,torte-2b,2020.1.3,MacIntel,60,13315,,,,,,,,,,,,,space,0.66693,,,,,,6,0,22,22,22,1,,,,,,,,,,,,,,,,,,,,,,,,,,,,,,,,,,,,,,,,,
,,,,,,,,,,,,,,,,,,,,,,,20,female,2020-09-28_21h38.56.757,torte-2b,2020.1.3,MacIntel,60,13315,,,,,,,,,,,,,space,0.98691,,,,,,4,0,23,23,23,1,,,,,,,,,,,,,,,,,,,,,,,,,,,,,,,,,,,,,,,,,
,,,,,,,,,,,,,,,,,,,,,,,20,female,2020-09-28_21h38.56.757,torte-2b,2020.1.3,MacIntel,60,13315,,,,,,,,,,,,,space,0.581375,,,,,,6,0,24,24,24,1,,,,,,,,,,,,,,,,,,,,,,,,,,,,,,,,,,,,,,,,,
,,,,,,,,,,,,,,,,,,,,,,,20,female,2020-09-28_21h38.56.757,torte-2b,2020.1.3,MacIntel,60,13315,,,,,,,,,,,,,space,0.5325,,,,,,6,0,25,25,25,1,,,,,,,,,,,,,,,,,,,,,,,,,,,,,,,,,,,,,,,,,
,,,,,,,,,,,,,,,,,,,,,,,20,female,2020-09-28_21h38.56.757,torte-2b,2020.1.3,MacIntel,60,13315,,,,,,,,,,,,,,,,,,,,7,0,26,26,26,1,,,,,,,,,,,,,,,,,,,,,,,,,,,,,,,,,,,,,,,,,
,,,,,,,,,,,,,,,,,,,,,,,20,female,2020-09-28_21h38.56.757,torte-2b,2020.1.3,MacIntel,60,13315,,,,,,,,,,,,,,,,,,,,1,0,27,27,27,1,,,,,,,,,,,,,,,,,,,,,,,,,,,,,,,,,,,,,,,,,
,,,,,,,,,,,,,,,,,,,,,,,20,female,2020-09-28_21h38.56.757,torte-2b,2020.1.3,MacIntel,60,13315,,,,,,,,,,,,,space,0.82513,,,,,,7,0,28,28,28,1,,,,,,,,,,,,,,,,,,,,,,,,,,,,,,,,,,,,,,,,,
,,,,,,,,,,,,,,,,,,,,,,,20,female,2020-09-28_21h38.56.757,torte-2b,2020.1.3,MacIntel,60,13315,,,,,,,,,,,,,,,,,,,,4,0,29,29,29,1,,,,,,,,,,,,,,,,,,,,,,,,,,,,,,,,,,,,,,,,,
,,,,,,,,,,,,,,,,,,,,,,,20,female,2020-09-28_21h38.56.757,torte-2b,2020.1.3,MacIntel,60,13315,,,,,,,,,,,,,space,0.826875,,,,,,7,0,30,30,30,1,,,,,,,,,,,,,,,,,,,,,,,,,,,,,,,,,,,,,,,,,
,,,,,,,,,,,,,,,,,,,,,,,20,female,2020-09-28_21h38.56.757,torte-2b,2020.1.3,MacIntel,60,13315,,,,,,,,,,,,,,,,,,,,3,0,31,31,31,1,,,,,,,,,,,,,,,,,,,,,,,,,,,,,,,,,,,,,,,,,
,,,,,,,,,,,,,,,,,,,,,,,20,female,2020-09-28_21h38.56.757,torte-2b,2020.1.3,MacIntel,60,13315,,,,,,,,,,,,,,,,,,,,2,0,32,32,32,1,,,,,,,,,,,,,,,,,,,,,,,,,,,,,,,,,,,,,,,,,
,,,,,,,,,,,,,,,,,,,,,,,20,female,2020-09-28_21h38.56.757,torte-2b,2020.1.3,MacIntel,60,13315,,,,,,,,,,,,,,,,,,,,6,0,33,33,33,1,,,,,,,,,,,,,,,,,,,,,,,,,,,,,,,,,,,,,,,,,
,,,,,,,,,,,,,,,,,,,,,,,20,female,2020-09-28_21h38.56.757,torte-2b,2020.1.3,MacIntel,60,13315,,,,,,,,,,,,,,,,,,,,3,0,34,34,34,1,,,,,,,,,,,,,,,,,,,,,,,,,,,,,,,,,,,,,,,,,
,,,,,,,,,,,,,,,,,,,,,,,20,female,2020-09-28_21h38.56.757,torte-2b,2020.1.3,MacIntel,60,13315,,,,,,,,,,,,,,,,,,,,7,,,,,,0,0,0,0,1,,,,,,,,,,,,,,,,,,,,,,,,,,,,,,,,,,,,
,,,,,,,,,,,,,,,,,,,,,,,20,female,2020-09-28_21h38.56.757,torte-2b,2020.1.3,MacIntel,60,13315,,,,,,,,,,,,,,,,,,,,5,,,,,,0,1,1,1,1,,,,,,,,,,,,,,,,,,,,,,,,,,,,,,,,,,,,
,,,,,,,,,,,,,,,,,,,,,,,20,female,2020-09-28_21h38.56.757,torte-2b,2020.1.3,MacIntel,60,13315,,,,,,,,,,,,,,,,,,,,4,,,,,,0,2,2,2,1,,,,,,,,,,,,,,,,,,,,,,,,,,,,,,,,,,,,
,,,,,,,,,,,,,,,,,,,,,,,20,female,2020-09-28_21h38.56.757,torte-2b,2020.1.3,MacIntel,60,13315,,,,,,,,,,,,,space,1.07388,,,,,,5,,,,,,0,3,3,3,1,,,,,,,,,,,,,,,,,,,,,,,,,,,,,,,,,,,,
,,,,,,,,,,,,,,,,,,,,,,,20,female,2020-09-28_21h38.56.757,torte-2b,2020.1.3,MacIntel,60,13315,,,,,,,,,,,,,,,,,,,,6,,,,,,0,4,4,4,1,,,,,,,,,,,,,,,,,,,,,,,,,,,,,,,,,,,,
,,,,,,,,,,,,,,,,,,,,,,,20,female,2020-09-28_21h38.56.757,torte-2b,2020.1.3,MacIntel,60,13315,,,,,,,,,,,,,space,0.99175,,,,,,5,,,,,,0,5,5,5,1,,,,,,,,,,,,,,,,,,,,,,,,,,,,,,,,,,,,
,,,,,,,,,,,,,,,,,,,,,,,20,female,2020-09-28_21h38.56.757,torte-2b,2020.1.3,MacIntel,60,13315,,,,,,,,,,,,,,,,,,,,3,,,,,,0,6,6,6,1,,,,,,,,,,,,,,,,,,,,,,,,,,,,,,,,,,,,
,,,,,,,,,,,,,,,,,,,,,,,20,female,2020-09-28_21h38.56.757,torte-2b,2020.1.3,MacIntel,60,13315,,,,,,,,,,,,,,,,,,,,4,,,,,,0,7,7,7,1,,,,,,,,,,,,,,,,,,,,,,,,,,,,,,,,,,,,
,,,,,,,,,,,,,,,,,,,,,,,20,female,2020-09-28_21h38.56.757,torte-2b,2020.1.3,MacIntel,60,13315,,,,,,,,,,,,,space,0.779545,,,,,,3,,,,,,0,8,8,8,1,,,,,,,,,,,,,,,,,,,,,,,,,,,,,,,,,,,,
,,,,,,,,,,,,,,,,,,,,,,,20,female,2020-09-28_21h38.56.757,torte-2b,2020.1.3,MacIntel,60,13315,,,,,,,,,,,,,,,,,,,,1,,,,,,0,9,9,9,1,,,,,,,,,,,,,,,,,,,,,,,,,,,,,,,,,,,,
,,,,,,,,,,,,,,,,,,,,,,,20,female,2020-09-28_21h38.56.757,torte-2b,2020.1.3,MacIntel,60,13315,,,,,,,,,,,,,,,,,,,,2,,,,,,0,10,10,10,1,,,,,,,,,,,,,,,,,,,,,,,,,,,,,,,,,,,,
,,,,,,,,,,,,,,,,,,,,,,,20,female,2020-09-28_21h38.56.757,torte-2b,2020.1.3,MacIntel,60,13315,,,,,,,,,,,,,space,0.717785,,,,,,1,,,,,,0,11,11,11,1,,,,,,,,,,,,,,,,,,,,,,,,,,,,,,,,,,,,
,,,,,,,,,,,,,,,,,,,,,,,20,female,2020-09-28_21h38.56.757,torte-2b,2020.1.3,MacIntel,60,13315,,,,,,,,,,,,,space,0.474105,,,,,,2,,,,,,0,12,12,12,1,,,,,,,,,,,,,,,,,,,,,,,,,,,,,,,,,,,,
,,,,,,,,,,,,,,,,,,,,,,,20,female,2020-09-28_21h38.56.757,torte-2b,2020.1.3,MacIntel,60,13315,,,,,,,,,,,,,space,0.550255,,,,,,1,,,,,,0,13,13,13,1,,,,,,,,,,,,,,,,,,,,,,,,,,,,,,,,,,,,
,,,,,,,,,,,,,,,,,,,,,,,20,female,2020-09-28_21h38.56.757,torte-2b,2020.1.3,MacIntel,60,13315,,,,,,,,,,,,,,,,,,,,3,,,,,,0,14,14,14,1,,,,,,,,,,,,,,,,,,,,,,,,,,,,,,,,,,,,
,,,,,,,,,,,,,,,,,,,,,,,20,female,2020-09-28_21h38.56.757,torte-2b,2020.1.3,MacIntel,60,13315,,,,,,,,,,,,,space,0.633365,,,,,,1,,,,,,0,15,15,15,1,,,,,,,,,,,,,,,,,,,,,,,,,,,,,,,,,,,,
,,,,,,,,,,,,,,,,,,,,,,,20,female,2020-09-28_21h38.56.757,torte-2b,2020.1.3,MacIntel,60,13315,,,,,,,,,,,,,,,,,,,,7,,,,,,0,16,16,16,1,,,,,,,,,,,,,,,,,,,,,,,,,,,,,,,,,,,,
,,,,,,,,,,,,,,,,,,,,,,,20,female,2020-09-28_21h38.56.757,torte-2b,2020.1.3,MacIntel,60,13315,,,,,,,,,,,,,,,,,,,,7,,,,,,0,17,17,17,1,,,,,,,,,,,,,,,,,,,,,,,,,,,,,,,,,,,,
,,,,,,,,,,,,,,,,,,,,,,,20,female,2020-09-28_21h38.56.757,torte-2b,2020.1.3,MacIntel,60,13315,,,,,,,,,,,,,,,,,,,,4,,,,,,0,18,18,18,1,,,,,,,,,,,,,,,,,,,,,,,,,,,,,,,,,,,,
,,,,,,,,,,,,,,,,,,,,,,,20,female,2020-09-28_21h38.56.757,torte-2b,2020.1.3,MacIntel,60,13315,,,,,,,,,,,,,space,0.822025,,,,,,7,,,,,,0,19,19,19,1,,,,,,,,,,,,,,,,,,,,,,,,,,,,,,,,,,,,
,,,,,,,,,,,,,,,,,,,,,,,20,female,2020-09-28_21h38.56.757,torte-2b,2020.1.3,MacIntel,60,13315,,,,,,,,,,,,,,,,,,,,3,,,,,,0,20,20,20,1,,,,,,,,,,,,,,,,,,,,,,,,,,,,,,,,,,,,
,,,,,,,,,,,,,,,,,,,,,,,20,female,2020-09-28_21h38.56.757,torte-2b,2020.1.3,MacIntel,60,13315,,,,,,,,,,,,,space,0.645785,,,,,,7,,,,,,0,21,21,21,1,,,,,,,,,,,,,,,,,,,,,,,,,,,,,,,,,,,,
,,,,,,,,,,,,,,,,,,,,,,,20,female,2020-09-28_21h38.56.757,torte-2b,2020.1.3,MacIntel,60,13315,,,,,,,,,,,,,space,0.71935,,,,,,3,,,,,,0,22,22,22,1,,,,,,,,,,,,,,,,,,,,,,,,,,,,,,,,,,,,
,,,,,,,,,,,,,,,,,,,,,,,20,female,2020-09-28_21h38.56.757,torte-2b,2020.1.3,MacIntel,60,13315,,,,,,,,,,,,,,,,,,,,1,,,,,,0,23,23,23,1,,,,,,,,,,,,,,,,,,,,,,,,,,,,,,,,,,,,
,,,,,,,,,,,,,,,,,,,,,,,20,female,2020-09-28_21h38.56.757,torte-2b,2020.1.3,MacIntel,60,13315,,,,,,,,,,,,,,,,,,,,6,,,,,,0,24,24,24,1,,,,,,,,,,,,,,,,,,,,,,,,,,,,,,,,,,,,
,,,,,,,,,,,,,,,,,,,,,,,20,female,2020-09-28_21h38.56.757,torte-2b,2020.1.3,MacIntel,60,13315,,,,,,,,,,,,,,,,,,,,3,,,,,,0,25,25,25,1,,,,,,,,,,,,,,,,,,,,,,,,,,,,,,,,,,,,
,,,,,,,,,,,,,,,,,,,,,,,20,female,2020-09-28_21h38.56.757,torte-2b,2020.1.3,MacIntel,60,13315,,,,,,,,,,,,,,,,,,,,2,,,,,,0,26,26,26,1,,,,,,,,,,,,,,,,,,,,,,,,,,,,,,,,,,,,
,,,,,,,,,,,,,,,,,,,,,,,20,female,2020-09-28_21h38.56.757,torte-2b,2020.1.3,MacIntel,60,13315,,,,,,,,,,,,,space,0.42198,,,,,,3,,,,,,0,27,27,27,1,,,,,,,,,,,,,,,,,,,,,,,,,,,,,,,,,,,,
,,,,,,,,,,,,,,,,,,,,,,,20,female,2020-09-28_21h38.56.757,torte-2b,2020.1.3,MacIntel,60,13315,,,,,,,,,,,,,,,,,,,,1,,,,,,0,28,28,28,1,,,,,,,,,,,,,,,,,,,,,,,,,,,,,,,,,,,,
,,,,,,,,,,,,,,,,,,,,,,,20,female,2020-09-28_21h38.56.757,torte-2b,2020.1.3,MacIntel,60,13315,,,,,,,,,,,,,space,0.588905,,,,,,3,,,,,,0,29,29,29,1,,,,,,,,,,,,,,,,,,,,,,,,,,,,,,,,,,,,
,,,,,,,,,,,,,,,,,,,,,,,20,female,2020-09-28_21h38.56.757,torte-2b,2020.1.3,MacIntel,60,13315,,,,,,,,,,,,,space,0.819155,,,,,,1,,,,,,0,30,30,30,1,,,,,,,,,,,,,,,,,,,,,,,,,,,,,,,,,,,,
,,,,,,,,,,,,,,,,,,,,,,,20,female,2020-09-28_21h38.56.757,torte-2b,2020.1.3,MacIntel,60,13315,,,,,,,,,,,,,,,,,,,,7,,,,,,0,31,31,31,1,,,,,,,,,,,,,,,,,,,,,,,,,,,,,,,,,,,,
,,,,,,,,,,,,,,,,,,,,,,,20,female,2020-09-28_21h38.56.757,torte-2b,2020.1.3,MacIntel,60,13315,,,,,,,,,,,,,,,,,,,,5,,,,,,0,32,32,32,1,,,,,,,,,,,,,,,,,,,,,,,,,,,,,,,,,,,,
,,,,,,,,,,,,,,,,,,,,,,,20,female,2020-09-28_21h38.56.757,torte-2b,2020.1.3,MacIntel,60,13315,,,,,,,,,,,,,space,0.844535,,,,,,7,,,,,,0,33,33,33,1,,,,,,,,,,,,,,,,,,,,,,,,,,,,,,,,,,,,
,,,,,,,,,,,,,,,,,,,,,,,20,female,2020-09-28_21h38.56.757,torte-2b,2020.1.3,MacIntel,60,13315,,,,,,,,,,,,,,,,,,,,2,,,,,,0,34,34,34,1,,,,,,,,,,,,,,,,,,,,,,,,,,,,,,,,,,,,
,,,,,,,,,,,,,,,,,,,,,,,20,female,2020-09-28_21h38.56.757,torte-2b,2020.1.3,MacIntel,60,13315,,,,,,,,,,,,,,,,,,,,3,,,,,,,,,,,0,0,0,0,1,,,,,,,,,,,,,,,,,,,,,,,,,,,,,,,
,,,,,,,,,,,,,,,,,,,,,,,20,female,2020-09-28_21h38.56.757,torte-2b,2020.1.3,MacIntel,60,13315,,,,,,,,,,,,,,,,,,,,7,,,,,,,,,,,0,1,1,1,1,,,,,,,,,,,,,,,,,,,,,,,,,,,,,,,
,,,,,,,,,,,,,,,,,,,,,,,20,female,2020-09-28_21h38.56.757,torte-2b,2020.1.3,MacIntel,60,13315,,,,,,,,,,,,,space,0.767235,,,,,,7,,,,,,,,,,,0,2,2,2,1,,,,,,,,,,,,,,,,,,,,,,,,,,,,,,,
,,,,,,,,,,,,,,,,,,,,,,,20,female,2020-09-28_21h38.56.757,torte-2b,2020.1.3,MacIntel,60,13315,,,,,,,,,,,,,,,,,,,,4,,,,,,,,,,,0,3,3,3,1,,,,,,,,,,,,,,,,,,,,,,,,,,,,,,,
,,,,,,,,,,,,,,,,,,,,,,,20,female,2020-09-28_21h38.56.757,torte-2b,2020.1.3,MacIntel,60,13315,,,,,,,,,,,,,,,,,,,,5,,,,,,,,,,,0,4,4,4,1,,,,,,,,,,,,,,,,,,,,,,,,,,,,,,,
,,,,,,,,,,,,,,,,,,,,,,,20,female,2020-09-28_21h38.56.757,torte-2b,2020.1.3,MacIntel,60,13315,,,,,,,,,,,,,space,0.781935,,,,,,4,,,,,,,,,,,0,5,5,5,1,,,,,,,,,,,,,,,,,,,,,,,,,,,,,,,
,,,,,,,,,,,,,,,,,,,,,,,20,female,2020-09-28_21h38.56.757,torte-2b,2020.1.3,MacIntel,60,13315,,,,,,,,,,,,,,,,,,,,2,,,,,,,,,,,0,6,6,6,1,,,,,,,,,,,,,,,,,,,,,,,,,,,,,,,
,,,,,,,,,,,,,,,,,,,,,,,20,female,2020-09-28_21h38.56.757,torte-2b,2020.1.3,MacIntel,60,13315,,,,,,,,,,,,,space,0.58341,,,,,,4,,,,,,,,,,,0,7,7,7,1,,,,,,,,,,,,,,,,,,,,,,,,,,,,,,,
,,,,,,,,,,,,,,,,,,,,,,,20,female,2020-09-28_21h38.56.757,torte-2b,2020.1.3,MacIntel,60,13315,,,,,,,,,,,,,space,0.61905,,,,,,2,,,,,,,,,,,0,8,8,8,1,,,,,,,,,,,,,,,,,,,,,,,,,,,,,,,
,,,,,,,,,,,,,,,,,,,,,,,20,female,2020-09-28_21h38.56.757,torte-2b,2020.1.3,MacIntel,60,13315,,,,,,,,,,,,,,,,,,,,2,,,,,,,,,,,0,9,9,9,1,,,,,,,,,,,,,,,,,,,,,,,,,,,,,,,
,,,,,,,,,,,,,,,,,,,,,,,20,female,2020-09-28_21h38.56.757,torte-2b,2020.1.3,MacIntel,60,13315,,,,,,,,,,,,,,,,,,,,6,,,,,,,,,,,0,10,10,10,1,,,,,,,,,,,,,,,,,,,,,,,,,,,,,,,
,,,,,,,,,,,,,,,,,,,,,,,20,female,2020-09-28_21h38.56.757,torte-2b,2020.1.3,MacIntel,60,13315,,,,,,,,,,,,,space,0.549505,,,,,,2,,,,,,,,,,,0,11,11,11,1,,,,,,,,,,,,,,,,,,,,,,,,,,,,,,,
,,,,,,,,,,,,,,,,,,,,,,,20,female,2020-09-28_21h38.56.757,torte-2b,2020.1.3,MacIntel,60,13315,,,,,,,,,,,,,,,,,,,,2,,,,,,,,,,,0,12,12,12,1,,,,,,,,,,,,,,,,,,,,,,,,,,,,,,,
,,,,,,,,,,,,,,,,,,,,,,,20,female,2020-09-28_21h38.56.757,torte-2b,2020.1.3,MacIntel,60,13315,,,,,,,,,,,,,space,0.75938,,,,,,2,,,,,,,,,,,0,13,13,13,1,,,,,,,,,,,,,,,,,,,,,,,,,,,,,,,
,,,,,,,,,,,,,,,,,,,,,,,20,female,2020-09-28_21h38.56.757,torte-2b,2020.1.3,MacIntel,60,13315,,,,,,,,,,,,,space,0.89382,,,,,,2,,,,,,,,,,,0,14,14,14,1,,,,,,,,,,,,,,,,,,,,,,,,,,,,,,,
,,,,,,,,,,,,,,,,,,,,,,,20,female,2020-09-28_21h38.56.757,torte-2b,2020.1.3,MacIntel,60,13315,,,,,,,,,,,,,,,,,,,,4,,,,,,,,,,,0,15,15,15,1,,,,,,,,,,,,,,,,,,,,,,,,,,,,,,,
,,,,,,,,,,,,,,,,,,,,,,,20,female,2020-09-28_21h38.56.757,torte-2b,2020.1.3,MacIntel,60,13315,,,,,,,,,,,,,,,,,,,,3,,,,,,,,,,,0,16,16,16,1,,,,,,,,,,,,,,,,,,,,,,,,,,,,,,,
,,,,,,,,,,,,,,,,,,,,,,,20,female,2020-09-28_21h38.56.757,torte-2b,2020.1.3,MacIntel,60,13315,,,,,,,,,,,,,,,,,,,,7,,,,,,,,,,,0,17,17,17,1,,,,,,,,,,,,,,,,,,,,,,,,,,,,,,,
,,,,,,,,,,,,,,,,,,,,,,,20,female,2020-09-28_21h38.56.757,torte-2b,2020.1.3,MacIntel,60,13315,,,,,,,,,,,,,,,,,,,,4,,,,,,,,,,,0,18,18,18,1,,,,,,,,,,,,,,,,,,,,,,,,,,,,,,,
,,,,,,,,,,,,,,,,,,,,,,,20,female,2020-09-28_21h38.56.757,torte-2b,2020.1.3,MacIntel,60,13315,,,,,,,,,,,,,space,0.897875,,,,,,7,,,,,,,,,,,0,19,19,19,1,,,,,,,,,,,,,,,,,,,,,,,,,,,,,,,
,,,,,,,,,,,,,,,,,,,,,,,20,female,2020-09-28_21h38.56.757,torte-2b,2020.1.3,MacIntel,60,13315,,,,,,,,,,,,,,,,,,,,7,,,,,,,,,,,0,20,20,20,1,,,,,,,,,,,,,,,,,,,,,,,,,,,,,,,
,,,,,,,,,,,,,,,,,,,,,,,20,female,2020-09-28_21h38.56.757,torte-2b,2020.1.3,MacIntel,60,13315,,,,,,,,,,,,,space,0.976005,,,,,,7,,,,,,,,,,,0,21,21,21,1,,,,,,,,,,,,,,,,,,,,,,,,,,,,,,,
,,,,,,,,,,,,,,,,,,,,,,,20,female,2020-09-28_21h38.56.757,torte-2b,2020.1.3,MacIntel,60,13315,,,,,,,,,,,,,space,0.73785,,,,,,7,,,,,,,,,,,0,22,22,22,1,,,,,,,,,,,,,,,,,,,,,,,,,,,,,,,
,,,,,,,,,,,,,,,,,,,,,,,20,female,2020-09-28_21h38.56.757,torte-2b,2020.1.3,MacIntel,60,13315,,,,,,,,,,,,,,,,,,,,1,,,,,,,,,,,0,23,23,23,1,,,,,,,,,,,,,,,,,,,,,,,,,,,,,,,
,,,,,,,,,,,,,,,,,,,,,,,20,female,2020-09-28_21h38.56.757,torte-2b,2020.1.3,MacIntel,60,13315,,,,,,,,,,,,,space,0.678865,,,,,,7,,,,,,,,,,,0,24,24,24,1,,,,,,,,,,,,,,,,,,,,,,,,,,,,,,,
,,,,,,,,,,,,,,,,,,,,,,,20,female,2020-09-28_21h38.56.757,torte-2b,2020.1.3,MacIntel,60,13315,,,,,,,,,,,,,space,0.500575,,,,,,1,,,,,,,,,,,0,25,25,25,1,,,,,,,,,,,,,,,,,,,,,,,,,,,,,,,
,,,,,,,,,,,,,,,,,,,,,,,20,female,2020-09-28_21h38.56.757,torte-2b,2020.1.3,MacIntel,60,13315,,,,,,,,,,,,,space,0.672025,,,,,,7,,,,,,,,,,,0,26,26,26,1,,,,,,,,,,,,,,,,,,,,,,,,,,,,,,,
,,,,,,,,,,,,,,,,,,,,,,,20,female,2020-09-28_21h38.56.757,torte-2b,2020.1.3,MacIntel,60,13315,,,,,,,,,,,,,,,,,,,,2,,,,,,,,,,,0,27,27,27,1,,,,,,,,,,,,,,,,,,,,,,,,,,,,,,,
,,,,,,,,,,,,,,,,,,,,,,,20,female,2020-09-28_21h38.56.757,torte-2b,2020.1.3,MacIntel,60,13315,,,,,,,,,,,,,,,,,,,,5,,,,,,,,,,,0,28,28,28,1,,,,,,,,,,,,,,,,,,,,,,,,,,,,,,,
,,,,,,,,,,,,,,,,,,,,,,,20,female,2020-09-28_21h38.56.757,torte-2b,2020.1.3,MacIntel,60,13315,,,,,,,,,,,,,,,,,,,,5,,,,,,,,,,,0,29,29,29,1,,,,,,,,,,,,,,,,,,,,,,,,,,,,,,,
,,,,,,,,,,,,,,,,,,,,,,,20,female,2020-09-28_21h38.56.757,torte-2b,2020.1.3,MacIntel,60,13315,,,,,,,,,,,,,space,0.706815,,,,,,5,,,,,,,,,,,0,30,30,30,1,,,,,,,,,,,,,,,,,,,,,,,,,,,,,,,
,,,,,,,,,,,,,,,,,,,,,,,20,female,2020-09-28_21h38.56.757,torte-2b,2020.1.3,MacIntel,60,13315,,,,,,,,,,,,,,,,,,,,1,,,,,,,,,,,0,31,31,31,1,,,,,,,,,,,,,,,,,,,,,,,,,,,,,,,
,,,,,,,,,,,,,,,,,,,,,,,20,female,2020-09-28_21h38.56.757,torte-2b,2020.1.3,MacIntel,60,13315,,,,,,,,,,,,,space,0.627605,,,,,,5,,,,,,,,,,,0,32,32,32,1,,,,,,,,,,,,,,,,,,,,,,,,,,,,,,,
,,,,,,,,,,,,,,,,,,,,,,,20,female,2020-09-28_21h38.56.757,torte-2b,2020.1.3,MacIntel,60,13315,,,,,,,,,,,,,,,,,,,,3,,,,,,,,,,,0,33,33,33,1,,,,,,,,,,,,,,,,,,,,,,,,,,,,,,,
,,,,,,,,,,,,,,,,,,,,,,,20,female,2020-09-28_21h38.56.757,torte-2b,2020.1.3,MacIntel,60,13315,,,,,,,,,,,,,,,,,,,,3,,,,,,,,,,,0,34,34,34,1,,,,,,,,,,,,,,,,,,,,,,,,,,,,,,,
,,,,,,,,,,,,a,Correct!,,,,,,t5.png,t5.png,0,0.97829,20,female,2020-09-28_21h38.56.757,torte-2b,2020.1.3,MacIntel,60,13315,1.484315,space,1.250835,,,,,,,,,,,,,,,,,,,,,,,,,,,,,,,,,space,2.461095,0,0,0,70,1,,,,,,,,,,,,,,,,,,,,,,,,
,,,,,,,,,,,,l,Correct!,,,,,,t2.png,t4.png,2,0.0591,20,female,2020-09-28_21h38.56.757,torte-2b,2020.1.3,MacIntel,60,13315,1.134175,,,,,,,,,,,,,,,,,,,,,,,,,,,,,,,,,,,,,0,1,1,15,1,,,,,,,,,,,,,,,,,,,,,,,,
,,,,,,,,,,,,l,Correct!,,,,,,t2.png,t5.png,3,0.0000131,20,female,2020-09-28_21h38.56.757,torte-2b,2020.1.3,MacIntel,60,13315,0.83404,,,,,,,,,,,,,,,,,,,,,,,,,,,,,,,,,,,,,0,2,2,8,1,,,,,,,,,,,,,,,,,,,,,,,,
,,,,,,,,,,,,a,Correct!,,,,,,t3.png,t5.png,2,0.056466,20,female,2020-09-28_21h38.56.757,torte-2b,2020.1.3,MacIntel,60,13315,0.989595,,,,,,,,,,,,,,,,,,,,,,,,,,,,,,,,,,,,,0,3,3,14,1,,,,,,,,,,,,,,,,,,,,,,,,
,,,,,,,,,,,,l,Correct!,,,,,,t1.png,t4.png,3,0.0000131,20,female,2020-09-28_21h38.56.757,torte-2b,2020.1.3,MacIntel,60,13315,0.595735,,,,,,,,,,,,,,,,,,,,,,,,,,,,,,,,,,,,,0,4,4,81,1,,,,,,,,,,,,,,,,,,,,,,,,
,,,,,,,,,,,,a,Correct!,,,,,,t2.png,t2.png,0,0.98115,20,female,2020-09-28_21h38.56.757,torte-2b,2020.1.3,MacIntel,60,13315,0.96573,,,,,,,,,,,,,,,,,,,,,,,,,,,,,,,,,,,,,0,5,5,2,1,,,,,,,,,,,,,,,,,,,,,,,,
,,,,,,,,,,,,l,Correct!,,,,,,t1.png,t3.png,2,0.056466,20,female,2020-09-28_21h38.56.757,torte-2b,2020.1.3,MacIntel,60,13315,0.74168,,,,,,,,,,,,,,,,,,,,,,,,,,,,,,,,,,,,,0,6,6,60,1,,,,,,,,,,,,,,,,,,,,,,,,
,,,,,,,,,,,,a,Correct!,,,,,,t3.png,t4.png,1,0.909,20,female,2020-09-28_21h38.56.757,torte-2b,2020.1.3,MacIntel,60,13315,1.000915,,,,,,,,,,,,,,,,,,,,,,,,,,,,,,,,,,,,,0,7,7,82,1,,,,,,,,,,,,,,,,,,,,,,,,
,,,,,,,,,,,,l,Correct!,,,,,,t4.png,t2.png,2,0.059078,20,female,2020-09-28_21h38.56.757,torte-2b,2020.1.3,MacIntel,60,13315,0.997575,,,,,,,,,,,,,,,,,,,,,,,,,,,,,,,,,,,,,0,8,8,88,1,,,,,,,,,,,,,,,,,,,,,,,,
,,,,,,,,,,,,l,Correct!,,,,,,t1.png,t3.png,2,0.056466,20,female,2020-09-28_21h38.56.757,torte-2b,2020.1.3,MacIntel,60,13315,0.96601,,,,,,,,,,,,,,,,,,,,,,,,,,,,,,,,,,,,,0,9,9,87,1,,,,,,,,,,,,,,,,,,,,,,,,
,,,,,,,,,,,,a,Correct!,,,,,,t5.png,t4.png,1,0.9,20,female,2020-09-28_21h38.56.757,torte-2b,2020.1.3,MacIntel,60,13315,1.269935,,,,,,,,,,,,,,,,,,,,,,,,,,,,,,,,,,,,,0,10,10,49,1,,,,,,,,,,,,,,,,,,,,,,,,
,,,,,,,,,,,,l,Incorrect,,,,,,t3.png,t2.png,1,0.90855,20,female,2020-09-28_21h38.56.757,torte-2b,2020.1.3,MacIntel,60,13315,0.794545,,,,,,,,,,,,,,,,,,,,,,,,,,,,,,,,,,,,,0,11,11,97,1,,,,,,,,,,,,,,,,,,,,,,,,
,,,,,,,,,,,,l,Incorrect,,,,,,t2.png,t3.png,1,0.90855,20,female,2020-09-28_21h38.56.757,torte-2b,2020.1.3,MacIntel,60,13315,1.118085,,,,,,,,,,,,,,,,,,,,,,,,,,,,,,,,,,,,,0,12,12,68,1,,,,,,,,,,,,,,,,,,,,,,,,
,,,,,,,,,,,,l,Incorrect,,,,,,t2.png,t1.png,1,0.90025,20,female,2020-09-28_21h38.56.757,torte-2b,2020.1.3,MacIntel,60,13315,1.12213,,,,,,,,,,,,,,,,,,,,,,,,,,,,,,,,,,,,,0,13,13,19,1,,,,,,,,,,,,,,,,,,,,,,,,
,,,,,,,,,,,,a,Correct!,,,,,,t4.png,t4.png,0,0.98115,20,female,2020-09-28_21h38.56.757,torte-2b,2020.1.3,MacIntel,60,13315,1.75238,,,,,,,,,,,,,,,,,,,,,,,,,,,,,,,,,,,,,0,14,14,52,1,,,,,,,,,,,,,,,,,,,,,,,,
,,,,,,,,,,,,a,Correct!,,,,,,t4.png,t3.png,1,0.90855,20,female,2020-09-28_21h38.56.757,torte-2b,2020.1.3,MacIntel,60,13315,1.986205,,,,,,,,,,,,,,,,,,,,,,,,,,,,,,,,,,,,,0,15,15,45,1,,,,,,,,,,,,,,,,,,,,,,,,
,,,,,,,,,,,,l,Correct!,,,,,,t2.png,t4.png,2,0.059078,20,female,2020-09-28_21h38.56.757,torte-2b,2020.1.3,MacIntel,60,13315,0.832695,,,,,,,,,,,,,,,,,,,,,,,,,,,,,,,,,,,,,0,16,16,11,1,,,,,,,,,,,,,,,,,,,,,,,,
,,,,,,,,,,,,l,Incorrect,,,,,,t2.png,t1.png,1,0.90025,20,female,2020-09-28_21h38.56.757,torte-2b,2020.1.3,MacIntel,60,13315,0.85331,,,,,,,,,,,,,,,,,,,,,,,,,,,,,,,,,,,,,0,17,17,62,1,,,,,,,,,,,,,,,,,,,,,,,,
,,,,,,,,,,,,a,Correct!,,,,,,t2.png,t2.png,0,0.981,20,female,2020-09-28_21h38.56.757,torte-2b,2020.1.3,MacIntel,60,13315,1.149935,,,,,,,,,,,,,,,,,,,,,,,,,,,,,,,,,,,,,0,18,18,101,1,,,,,,,,,,,,,,,,,,,,,,,,
,,,,,,,,,,,,l,Correct!,,,,,,t1.png,t3.png,2,0.056466,20,female,2020-09-28_21h38.56.757,torte-2b,2020.1.3,MacIntel,60,13315,0.738345,,,,,,,,,,,,,,,,,,,,,,,,,,,,,,,,,,,,,0,19,19,99,1,,,,,,,,,,,,,,,,,,,,,,,,
,,,,,,,,,,,,l,Correct!,,,,,,t1.png,t4.png,3,0.0000131,20,female,2020-09-28_21h38.56.757,torte-2b,2020.1.3,MacIntel,60,13315,0.687515,,,,,,,,,,,,,,,,,,,,,,,,,,,,,,,,,,,,,0,20,20,50,1,,,,,,,,,,,,,,,,,,,,,,,,
,,,,,,,,,,,,l,Incorrect,,,,,,t2.png,t2.png,0,0.98115,20,female,2020-09-28_21h38.56.757,torte-2b,2020.1.3,MacIntel,60,13315,0.70077,,,,,,,,,,,,,,,,,,,,,,,,,,,,,,,,,,,,,0,21,21,7,1,,,,,,,,,,,,,,,,,,,,,,,,
,,,,,,,,,,,,l,Correct!,,,,,,t1.png,t4.png,3,0.0000131,20,female,2020-09-28_21h38.56.757,torte-2b,2020.1.3,MacIntel,60,13315,0.673395,,,,,,,,,,,,,,,,,,,,,,,,,,,,,,,,,,,,,0,22,22,107,1,,,,,,,,,,,,,,,,,,,,,,,,
,,,,,,,,,,,,l,Incorrect,,,,,,t2.png,t1.png,1,0.9,20,female,2020-09-28_21h38.56.757,torte-2b,2020.1.3,MacIntel,60,13315,0.74823,,,,,,,,,,,,,,,,,,,,,,,,,,,,,,,,,,,,,0,23,23,118,1,,,,,,,,,,,,,,,,,,,,,,,,
,,,,,,,,,,,,a,Correct!,,,,,,t4.png,t4.png,0,0.98115,20,female,2020-09-28_21h38.56.757,torte-2b,2020.1.3,MacIntel,60,13315,1.25858,,,,,,,,,,,,,,,,,,,,,,,,,,,,,,,,,,,,,0,24,24,90,1,,,,,,,,,,,,,,,,,,,,,,,,
,,,,,,,,,,,,l,Incorrect,,,,,,t2.png,t3.png,1,0.909,20,female,2020-09-28_21h38.56.757,torte-2b,2020.1.3,MacIntel,60,13315,0.71885,,,,,,,,,,,,,,,,,,,,,,,,,,,,,,,,,,,,,0,25,25,74,1,,,,,,,,,,,,,,,,,,,,,,,,
,,,,,,,,,,,,l,Correct!,,,,,,t4.png,t1.png,3,0.0000131,20,female,2020-09-28_21h38.56.757,torte-2b,2020.1.3,MacIntel,60,13315,0.64212,,,,,,,,,,,,,,,,,,,,,,,,,,,,,,,,,,,,,0,26,26,61,1,,,,,,,,,,,,,,,,,,,,,,,,
,,,,,,,,,,,,l,Correct!,,,,,,t1.png,t3.png,2,0.056466,20,female,2020-09-28_21h38.56.757,torte-2b,2020.1.3,MacIntel,60,13315,0.68803,,,,,,,,,,,,,,,,,,,,,,,,,,,,,,,,,,,,,0,27,27,69,1,,,,,,,,,,,,,,,,,,,,,,,,
,,,,,,,,,,,,a,Correct!,,,,,,t4.png,t3.png,1,0.90855,20,female,2020-09-28_21h38.56.757,torte-2b,2020.1.3,MacIntel,60,13315,0.941035,,,,,,,,,,,,,,,,,,,,,,,,,,,,,,,,,,,,,0,28,28,35,1,,,,,,,,,,,,,,,,,,,,,,,,
,,,,,,,,,,,,a,Correct!,,,,,,t4.png,t5.png,1,0.90025,20,female,2020-09-28_21h38.56.757,torte-2b,2020.1.3,MacIntel,60,13315,1.248205,,,,,,,,,,,,,,,,,,,,,,,,,,,,,,,,,,,,,0,29,29,58,1,,,,,,,,,,,,,,,,,,,,,,,,
,,,,,,,,,,,,a,Correct!,,,,,,t4.png,t5.png,1,0.9,20,female,2020-09-28_21h38.56.757,torte-2b,2020.1.3,MacIntel,60,13315,0.968015,,,,,,,,,,,,,,,,,,,,,,,,,,,,,,,,,,,,,0,30,30,115,1,,,,,,,,,,,,,,,,,,,,,,,,
,,,,,,,,,,,,a,Incorrect,,,,,,t3.png,t5.png,2,0.056466,20,female,2020-09-28_21h38.56.757,torte-2b,2020.1.3,MacIntel,60,13315,1.371215,,,,,,,,,,,,,,,,,,,,,,,,,,,,,,,,,,,,,0,31,31,6,1,,,,,,,,,,,,,,,,,,,,,,,,
,,,,,,,,,,,,a,Correct!,,,,,,t1.png,t1.png,0,0.978,20,female,2020-09-28_21h38.56.757,torte-2b,2020.1.3,MacIntel,60,13315,0.8352,,,,,,,,,,,,,,,,,,,,,,,,,,,,,,,,,,,,,0,32,32,28,1,,,,,,,,,,,,,,,,,,,,,,,,
,,,,,,,,,,,,a,Incorrect,,,,,,t2.png,t4.png,2,0.059078,20,female,2020-09-28_21h38.56.757,torte-2b,2020.1.3,MacIntel,60,13315,1.22107,,,,,,,,,,,,,,,,,,,,,,,,,,,,,,,,,,,,,0,33,33,37,1,,,,,,,,,,,,,,,,,,,,,,,,
,,,,,,,,,,,,a,Correct!,,,,,,t3.png,t4.png,1,0.909,20,female,2020-09-28_21h38.56.757,torte-2b,2020.1.3,MacIntel,60,13315,1.156525,,,,,,,,,,,,,,,,,,,,,,,,,,,,,,,,,,,,,0,34,34,106,1,,,,,,,,,,,,,,,,,,,,,,,,
,,,,,,,,,,,,l,Incorrect,,,,,,t3.png,t2.png,1,0.90855,20,female,2020-09-28_21h38.56.757,torte-2b,2020.1.3,MacIntel,60,13315,0.70298,,,,,,,,,,,,,,,,,,,,,,,,,,,,,,,,,,,,,0,35,35,18,1,,,,,,,,,,,,,,,,,,,,,,,,
,,,,,,,,,,,,a,Correct!,,,,,,t1.png,t1.png,0,0.97829,20,female,2020-09-28_21h38.56.757,torte-2b,2020.1.3,MacIntel,60,13315,0.767785,,,,,,,,,,,,,,,,,,,,,,,,,,,,,,,,,,,,,0,36,36,9,1,,,,,,,,,,,,,,,,,,,,,,,,
,,,,,,,,,,,,a,Correct!,,,,,,t4.png,t3.png,1,0.90855,20,female,2020-09-28_21h38.56.757,torte-2b,2020.1.3,MacIntel,60,13315,1.05413,,,,,,,,,,,,,,,,,,,,,,,,,,,,,,,,,,,,,0,37,37,75,1,,,,,,,,,,,,,,,,,,,,,,,,
,,,,,,,,,,,,a,Correct!,,,,,,t2.png,t2.png,0,0.98115,20,female,2020-09-28_21h38.56.757,torte-2b,2020.1.3,MacIntel,60,13315,0.856115,,,,,,,,,,,,,,,,,,,,,,,,,,,,,,,,,,,,,0,38,38,57,1,,,,,,,,,,,,,,,,,,,,,,,,
,,,,,,,,,,,,l,Correct!,,,,,,t1.png,t4.png,3,0.0000131,20,female,2020-09-28_21h38.56.757,torte-2b,2020.1.3,MacIntel,60,13315,0.765395,,,,,,,,,,,,,,,,,,,,,,,,,,,,,,,,,,,,,0,39,39,17,1,,,,,,,,,,,,,,,,,,,,,,,,
,,,,,,,,,,,,a,Correct!,,,,,,t5.png,t4.png,1,0.90025,20,female,2020-09-28_21h38.56.757,torte-2b,2020.1.3,MacIntel,60,13315,1.06034,,,,,,,,,,,,,,,,,,,,,,,,,,,,,,,,,,,,,0,40,40,34,1,,,,,,,,,,,,,,,,,,,,,,,,
,,,,,,,,,,,,l,Correct!,,,,,,t5.png,t2.png,3,0.0000131,20,female,2020-09-28_21h38.56.757,torte-2b,2020.1.3,MacIntel,60,13315,0.974875,,,,,,,,,,,,,,,,,,,,,,,,,,,,,,,,,,,,,0,41,41,116,1,,,,,,,,,,,,,,,,,,,,,,,,
,,,,,,,,,,,,a,Correct!,,,,,,t2.png,t3.png,1,0.90855,20,female,2020-09-28_21h38.56.757,torte-2b,2020.1.3,MacIntel,60,13315,0.96694,,,,,,,,,,,,,,,,,,,,,,,,,,,,,,,,,,,,,0,42,42,10,1,,,,,,,,,,,,,,,,,,,,,,,,
,,,,,,,,,,,,a,Incorrect,,,,,,t5.png,t3.png,2,0.0565,20,female,2020-09-28_21h38.56.757,torte-2b,2020.1.3,MacIntel,60,13315,1.047745,,,,,,,,,,,,,,,,,,,,,,,,,,,,,,,,,,,,,0,43,43,39,1,,,,,,,,,,,,,,,,,,,,,,,,
,,,,,,,,,,,,a,Correct!,,,,,,t5.png,t5.png,0,0.978,20,female,2020-09-28_21h38.56.757,torte-2b,2020.1.3,MacIntel,60,13315,0.8184,,,,,,,,,,,,,,,,,,,,,,,,,,,,,,,,,,,,,0,44,44,117,1,,,,,,,,,,,,,,,,,,,,,,,,
,,,,,,,,,,,,a,Correct!,,,,,,t3.png,t4.png,1,0.909,20,female,2020-09-28_21h38.56.757,torte-2b,2020.1.3,MacIntel,60,13315,0.85677,,,,,,,,,,,,,,,,,,,,,,,,,,,,,,,,,,,,,0,45,45,89,1,,,,,,,,,,,,,,,,,,,,,,,,
,,,,,,,,,,,,a,Incorrect,,,,,,t5.png,t3.png,2,0.056466,20,female,2020-09-28_21h38.56.757,torte-2b,2020.1.3,MacIntel,60,13315,1.16754,,,,,,,,,,,,,,,,,,,,,,,,,,,,,,,,,,,,,0,46,46,38,1,,,,,,,,,,,,,,,,,,,,,,,,
,,,,,,,,,,,,l,Incorrect,,,,,,t3.png,t2.png,1,0.90855,20,female,2020-09-28_21h38.56.757,torte-2b,2020.1.3,MacIntel,60,13315,0.767895,,,,,,,,,,,,,,,,,,,,,,,,,,,,,,,,,,,,,0,47,47,53,1,,,,,,,,,,,,,,,,,,,,,,,,
,,,,,,,,,,,,l,Incorrect,,,,,,t1.png,t2.png,1,0.90025,20,female,2020-09-28_21h38.56.757,torte-2b,2020.1.3,MacIntel,60,13315,1.272135,,,,,,,,,,,,,,,,,,,,,,,,,,,,,,,,,,,,,0,48,48,105,1,,,,,,,,,,,,,,,,,,,,,,,,
,,,,,,,,,,,,a,Correct!,,,,,,t1.png,t1.png,0,0.978,20,female,2020-09-28_21h38.56.757,torte-2b,2020.1.3,MacIntel,60,13315,0.872635,,,,,,,,,,,,,,,,,,,,,,,,,,,,,,,,,,,,,0,49,49,54,1,,,,,,,,,,,,,,,,,,,,,,,,
,,,,,,,,,,,,a,Correct!,,,,,,t4.png,t5.png,1,0.90025,20,female,2020-09-28_21h38.56.757,torte-2b,2020.1.3,MacIntel,60,13315,1.10113,,,,,,,,,,,,,,,,,,,,,,,,,,,,,,,,,,,,,0,50,50,103,1,,,,,,,,,,,,,,,,,,,,,,,,
,,,,,,,,,,,,l,Incorrect,,,,,,t2.png,t1.png,1,0.90025,20,female,2020-09-28_21h38.56.757,torte-2b,2020.1.3,MacIntel,60,13315,1.384045,,,,,,,,,,,,,,,,,,,,,,,,,,,,,,,,,,,,,0,51,51,5,1,,,,,,,,,,,,,,,,,,,,,,,,
,,,,,,,,,,,,l,Correct!,,,,,,t4.png,t2.png,2,0.059078,20,female,2020-09-28_21h38.56.757,torte-2b,2020.1.3,MacIntel,60,13315,1.045985,,,,,,,,,,,,,,,,,,,,,,,,,,,,,,,,,,,,,0,52,52,110,1,,,,,,,,,,,,,,,,,,,,,,,,
,,,,,,,,,,,,a,Correct!,,,,,,t5.png,t5.png,0,0.97829,20,female,2020-09-28_21h38.56.757,torte-2b,2020.1.3,MacIntel,60,13315,1.00652,,,,,,,,,,,,,,,,,,,,,,,,,,,,,,,,,,,,,0,53,53,94,1,,,,,,,,,,,,,,,,,,,,,,,,
,,,,,,,,,,,,l,Incorrect,,,,,,t1.png,t3.png,2,0.056466,20,female,2020-09-28_21h38.56.757,torte-2b,2020.1.3,MacIntel,60,13315,1.021525,,,,,,,,,,,,,,,,,,,,,,,,,,,,,,,,,,,,,0,54,54,63,1,,,,,,,,,,,,,,,,,,,,,,,,
,,,,,,,,,,,,a,Incorrect,,,,,,t3.png,t5.png,2,0.0565,20,female,2020-09-28_21h38.56.757,torte-2b,2020.1.3,MacIntel,60,13315,1.25524,,,,,,,,,,,,,,,,,,,,,,,,,,,,,,,,,,,,,0,55,55,83,1,,,,,,,,,,,,,,,,,,,,,,,,
,,,,,,,,,,,,l,Correct!,,,,,,t4.png,t1.png,3,0.0000131,20,female,2020-09-28_21h38.56.757,torte-2b,2020.1.3,MacIntel,60,13315,0.9191,,,,,,,,,,,,,,,,,,,,,,,,,,,,,,,,,,,,,0,56,56,13,1,,,,,,,,,,,,,,,,,,,,,,,,
,,,,,,,,,,,,l,Correct!,,,,,,t1.png,t4.png,3,0.0000131,20,female,2020-09-28_21h38.56.757,torte-2b,2020.1.3,MacIntel,60,13315,0.883385,,,,,,,,,,,,,,,,,,,,,,,,,,,,,,,,,,,,,0,57,57,92,1,,,,,,,,,,,,,,,,,,,,,,,,
,,,,,,,,,,,,l,Incorrect,,,,,,t1.png,t2.png,1,0.90025,20,female,2020-09-28_21h38.56.757,torte-2b,2020.1.3,MacIntel,60,13315,1.440985,,,,,,,,,,,,,,,,,,,,,,,,,,,,,,,,,,,,,0,58,58,72,1,,,,,,,,,,,,,,,,,,,,,,,,
,,,,,,,,,,,,l,Correct!,,,,,,t1.png,t5.png,4,9.55E-11,20,female,2020-09-28_21h38.56.757,torte-2b,2020.1.3,MacIntel,60,13315,1.08209,,,,,,,,,,,,,,,,,,,,,,,,,,,,,,,,,,,,,0,59,59,85,1,,,,,,,,,,,,,,,,,,,,,,,,
,,,,,,,,,,,,l,Correct!,,,,,,t4.png,t1.png,3,0.0000131,20,female,2020-09-28_21h38.56.757,torte-2b,2020.1.3,MacIntel,60,13315,0.923295,,,,,,,,,,,,,,,,,,,,,,,,,,,,,,,,,,,,,0,60,60,48,1,,,,,,,,,,,,,,,,,,,,,,,,
,,,,,,,,,,,,l,Incorrect,,,,,,t1.png,t2.png,1,0.90025,20,female,2020-09-28_21h38.56.757,torte-2b,2020.1.3,MacIntel,60,13315,1.505435,,,,,,,,,,,,,,,,,,,,,,,,,,,,,,,,,,,,,0,61,61,33,1,,,,,,,,,,,,,,,,,,,,,,,,
,,,,,,,,,,,,a,Incorrect,,,,,,t3.png,t5.png,2,0.0565,20,female,2020-09-28_21h38.56.757,torte-2b,2020.1.3,MacIntel,60,13315,1.18371,,,,,,,,,,,,,,,,,,,,,,,,,,,,,,,,,,,,,0,62,62,30,1,,,,,,,,,,,,,,,,,,,,,,,,
,,,,,,,,,,,,l,Incorrect,,,,,,t2.png,t3.png,1,0.90855,20,female,2020-09-28_21h38.56.757,torte-2b,2020.1.3,MacIntel,60,13315,1.06479,,,,,,,,,,,,,,,,,,,,,,,,,,,,,,,,,,,,,0,63,63,111,1,,,,,,,,,,,,,,,,,,,,,,,,
,,,,,,,,,,,,l,Correct!,,,,,,t2.png,t4.png,2,0.059078,20,female,2020-09-28_21h38.56.757,torte-2b,2020.1.3,MacIntel,60,13315,0.72411,,,,,,,,,,,,,,,,,,,,,,,,,,,,,,,,,,,,,0,64,64,24,1,,,,,,,,,,,,,,,,,,,,,,,,
,,,,,,,,,,,,l,Correct!,,,,,,t4.png,t1.png,3,0.0000131,20,female,2020-09-28_21h38.56.757,torte-2b,2020.1.3,MacIntel,60,13315,0.621875,,,,,,,,,,,,,,,,,,,,,,,,,,,,,,,,,,,,,0,65,65,93,1,,,,,,,,,,,,,,,,,,,,,,,,
,,,,,,,,,,,,a,Correct!,,,,,,t5.png,t4.png,1,0.9,20,female,2020-09-28_21h38.56.757,torte-2b,2020.1.3,MacIntel,60,13315,1.00645,,,,,,,,,,,,,,,,,,,,,,,,,,,,,,,,,,,,,0,66,66,76,1,,,,,,,,,,,,,,,,,,,,,,,,
,,,,,,,,,,,,l,Correct!,,,,,,t4.png,t1.png,3,0.0000131,20,female,2020-09-28_21h38.56.757,torte-2b,2020.1.3,MacIntel,60,13315,0.69223,,,,,,,,,,,,,,,,,,,,,,,,,,,,,,,,,,,,,0,67,67,42,1,,,,,,,,,,,,,,,,,,,,,,,,
,,,,,,,,,,,,l,Correct!,,,,,,t5.png,t2.png,3,0.0000131,20,female,2020-09-28_21h38.56.757,torte-2b,2020.1.3,MacIntel,60,13315,0.75496,,,,,,,,,,,,,,,,,,,,,,,,,,,,,,,,,,,,,0,68,68,51,1,,,,,,,,,,,,,,,,,,,,,,,,
,,,,,,,,,,,,l,Correct!,,,,,,t2.png,t4.png,2,0.059078,20,female,2020-09-28_21h38.56.757,torte-2b,2020.1.3,MacIntel,60,13315,1.38863,,,,,,,,,,,,,,,,,,,,,,,,,,,,,,,,,,,,,0,69,69,77,1,,,,,,,,,,,,,,,,,,,,,,,,
,,,,,,,,,,,,l,Correct!,,,,,,t2.png,t5.png,3,0.0000131,20,female,2020-09-28_21h38.56.757,torte-2b,2020.1.3,MacIntel,60,13315,1.083575,,,,,,,,,,,,,,,,,,,,,,,,,,,,,,,,,,,,,0,70,70,95,1,,,,,,,,,,,,,,,,,,,,,,,,
,,,,,,,,,,,,a,Correct!,,,,,,t5.png,t4.png,1,0.90025,20,female,2020-09-28_21h38.56.757,torte-2b,2020.1.3,MacIntel,60,13315,0.95067,,,,,,,,,,,,,,,,,,,,,,,,,,,,,,,,,,,,,0,71,71,26,1,,,,,,,,,,,,,,,,,,,,,,,,
,,,,,,,,,,,,l,Correct!,,,,,,t4.png,t2.png,2,0.059078,20,female,2020-09-28_21h38.56.757,torte-2b,2020.1.3,MacIntel,60,13315,0.73378,,,,,,,,,,,,,,,,,,,,,,,,,,,,,,,,,,,,,0,72,72,86,1,,,,,,,,,,,,,,,,,,,,,,,,
,,,,,,,,,,,,a,Correct!,,,,,,t4.png,t3.png,1,0.909,20,female,2020-09-28_21h38.56.757,torte-2b,2020.1.3,MacIntel,60,13315,1.236105,,,,,,,,,,,,,,,,,,,,,,,,,,,,,,,,,,,,,0,73,73,46,1,,,,,,,,,,,,,,,,,,,,,,,,
,,,,,,,,,,,,l,Incorrect,,,,,,t2.png,t1.png,1,0.90025,20,female,2020-09-28_21h38.56.757,torte-2b,2020.1.3,MacIntel,60,13315,0.701185,,,,,,,,,,,,,,,,,,,,,,,,,,,,,,,,,,,,,0,74,74,4,1,,,,,,,,,,,,,,,,,,,,,,,,
,,,,,,,,,,,,l,Correct!,,,,,,t3.png,t1.png,2,0.056466,20,female,2020-09-28_21h38.56.757,torte-2b,2020.1.3,MacIntel,60,13315,1.15456,,,,,,,,,,,,,,,,,,,,,,,,,,,,,,,,,,,,,0,75,75,64,1,,,,,,,,,,,,,,,,,,,,,,,,
,,,,,,,,,,,,l,Correct!,,,,,,t1.png,t5.png,4,9.55E-11,20,female,2020-09-28_21h38.56.757,torte-2b,2020.1.3,MacIntel,60,13315,0.802735,,,,,,,,,,,,,,,,,,,,,,,,,,,,,,,,,,,,,0,76,76,16,1,,,,,,,,,,,,,,,,,,,,,,,,
,,,,,,,,,,,,l,Correct!,,,,,,t4.png,t2.png,2,0.0591,20,female,2020-09-28_21h38.56.757,torte-2b,2020.1.3,MacIntel,60,13315,0.734525,,,,,,,,,,,,,,,,,,,,,,,,,,,,,,,,,,,,,0,77,77,36,1,,,,,,,,,,,,,,,,,,,,,,,,
,,,,,,,,,,,,l,Incorrect,,,,,,t3.png,t4.png,1,0.90855,20,female,2020-09-28_21h38.56.757,torte-2b,2020.1.3,MacIntel,60,13315,0.90934,,,,,,,,,,,,,,,,,,,,,,,,,,,,,,,,,,,,,0,78,78,96,1,,,,,,,,,,,,,,,,,,,,,,,,
,,,,,,,,,,,,l,Correct!,,,,,,t5.png,t2.png,3,0.0000131,20,female,2020-09-28_21h38.56.757,torte-2b,2020.1.3,MacIntel,60,13315,0.72581,,,,,,,,,,,,,,,,,,,,,,,,,,,,,,,,,,,,,0,79,79,98,1,,,,,,,,,,,,,,,,,,,,,,,,
,,,,,,,,,,,,l,Correct!,,,,,,t1.png,t5.png,4,9.55E-11,20,female,2020-09-28_21h38.56.757,torte-2b,2020.1.3,MacIntel,60,13315,0.84743,,,,,,,,,,,,,,,,,,,,,,,,,,,,,,,,,,,,,0,80,80,12,1,,,,,,,,,,,,,,,,,,,,,,,,
,,,,,,,,,,,,a,Incorrect,,,,,,t4.png,t5.png,1,0.90025,20,female,2020-09-28_21h38.56.757,torte-2b,2020.1.3,MacIntel,60,13315,1.18425,,,,,,,,,,,,,,,,,,,,,,,,,,,,,,,,,,,,,0,81,81,113,1,,,,,,,,,,,,,,,,,,,,,,,,
,,,,,,,,,,,,a,Correct!,,,,,,t5.png,t3.png,2,0.056466,20,female,2020-09-28_21h38.56.757,torte-2b,2020.1.3,MacIntel,60,13315,0.818125,,,,,,,,,,,,,,,,,,,,,,,,,,,,,,,,,,,,,0,82,82,56,1,,,,,,,,,,,,,,,,,,,,,,,,
,,,,,,,,,,,,l,Correct!,,,,,,t5.png,t1.png,4,9.55E-11,20,female,2020-09-28_21h38.56.757,torte-2b,2020.1.3,MacIntel,60,13315,0.831105,,,,,,,,,,,,,,,,,,,,,,,,,,,,,,,,,,,,,0,83,83,102,1,,,,,,,,,,,,,,,,,,,,,,,,
,,,,,,,,,,,,l,Correct!,,,,,,t2.png,t5.png,3,0.0000131,20,female,2020-09-28_21h38.56.757,torte-2b,2020.1.3,MacIntel,60,13315,1.1001,,,,,,,,,,,,,,,,,,,,,,,,,,,,,,,,,,,,,0,84,84,66,1,,,,,,,,,,,,,,,,,,,,,,,,
,,,,,,,,,,,,l,Correct!,,,,,,t5.png,t1.png,4,9.55E-11,20,female,2020-09-28_21h38.56.757,torte-2b,2020.1.3,MacIntel,60,13315,0.73987,,,,,,,,,,,,,,,,,,,,,,,,,,,,,,,,,,,,,0,85,85,71,1,,,,,,,,,,,,,,,,,,,,,,,,
,,,,,,,,,,,,l,Incorrect,,,,,,t4.png,t2.png,2,0.059078,20,female,2020-09-28_21h38.56.757,torte-2b,2020.1.3,MacIntel,60,13315,0.91736,,,,,,,,,,,,,,,,,,,,,,,,,,,,,,,,,,,,,0,86,86,109,1,,,,,,,,,,,,,,,,,,,,,,,,
,,,,,,,,,,,,a,Correct!,,,,,,t4.png,t4.png,0,0.98115,20,female,2020-09-28_21h38.56.757,torte-2b,2020.1.3,MacIntel,60,13315,1.18457,,,,,,,,,,,,,,,,,,,,,,,,,,,,,,,,,,,,,0,87,87,80,1,,,,,,,,,,,,,,,,,,,,,,,,
,,,,,,,,,,,,l,Correct!,,,,,,t1.png,t5.png,4,9.55E-11,20,female,2020-09-28_21h38.56.757,torte-2b,2020.1.3,MacIntel,60,13315,0.82445,,,,,,,,,,,,,,,,,,,,,,,,,,,,,,,,,,,,,0,88,88,41,1,,,,,,,,,,,,,,,,,,,,,,,,
,,,,,,,,,,,,l,Correct!,,,,,,t5.png,t1.png,4,9.55E-11,20,female,2020-09-28_21h38.56.757,torte-2b,2020.1.3,MacIntel,60,13315,0.7913,,,,,,,,,,,,,,,,,,,,,,,,,,,,,,,,,,,,,0,89,89,100,1,,,,,,,,,,,,,,,,,,,,,,,,
,,,,,,,,,,,,a,Correct!,,,,,,t4.png,t5.png,1,0.90025,20,female,2020-09-28_21h38.56.757,torte-2b,2020.1.3,MacIntel,60,13315,1.609735,,,,,,,,,,,,,,,,,,,,,,,,,,,,,,,,,,,,,0,90,90,47,1,,,,,,,,,,,,,,,,,,,,,,,,
,,,,,,,,,,,,a,Correct!,,,,,,t1.png,t1.png,0,0.97829,20,female,2020-09-28_21h38.56.757,torte-2b,2020.1.3,MacIntel,60,13315,0.83968,,,,,,,,,,,,,,,,,,,,,,,,,,,,,,,,,,,,,0,91,91,67,1,,,,,,,,,,,,,,,,,,,,,,,,
,,,,,,,,,,,,l,Correct!,,,,,,t1.png,t5.png,4,9.55E-11,20,female,2020-09-28_21h38.56.757,torte-2b,2020.1.3,MacIntel,60,13315,1.135135,,,,,,,,,,,,,,,,,,,,,,,,,,,,,,,,,,,,,0,92,92,55,1,,,,,,,,,,,,,,,,,,,,,,,,
,,,,,,,,,,,,a,Incorrect,,,,,,t5.png,t3.png,2,0.056466,20,female,2020-09-28_21h38.56.757,torte-2b,2020.1.3,MacIntel,60,13315,1.06696,,,,,,,,,,,,,,,,,,,,,,,,,,,,,,,,,,,,,0,93,93,108,1,,,,,,,,,,,,,,,,,,,,,,,,
,,,,,,,,,,,,a,Incorrect,,,,,,t5.png,t3.png,2,0.056466,20,female,2020-09-28_21h38.56.757,torte-2b,2020.1.3,MacIntel,60,13315,0.73694,,,,,,,,,,,,,,,,,,,,,,,,,,,,,,,,,,,,,0,94,94,114,1,,,,,,,,,,,,,,,,,,,,,,,,
,,,,,,,,,,,,l,Correct!,,,,,,t2.png,t5.png,3,0.0000131,20,female,2020-09-28_21h38.56.757,torte-2b,2020.1.3,MacIntel,60,13315,1.03947,,,,,,,,,,,,,,,,,,,,,,,,,,,,,,,,,,,,,0,95,95,104,1,,,,,,,,,,,,,,,,,,,,,,,,
,,,,,,,,,,,,l,Correct!,,,,,,t2.png,t5.png,3,0.0000131,20,female,2020-09-28_21h38.56.757,torte-2b,2020.1.3,MacIntel,60,13315,0.919295,,,,,,,,,,,,,,,,,,,,,,,,,,,,,,,,,,,,,0,96,96,40,1,,,,,,,,,,,,,,,,,,,,,,,,
,,,,,,,,,,,,l,Correct!,,,,,,t3.png,t1.png,2,0.056466,20,female,2020-09-28_21h38.56.757,torte-2b,2020.1.3,MacIntel,60,13315,0.584745,,,,,,,,,,,,,,,,,,,,,,,,,,,,,,,,,,,,,0,97,97,32,1,,,,,,,,,,,,,,,,,,,,,,,,
,,,,,,,,,,,,a,Correct!,,,,,,t4.png,t4.png,0,0.98115,20,female,2020-09-28_21h38.56.757,torte-2b,2020.1.3,MacIntel,60,13315,1.05053,,,,,,,,,,,,,,,,,,,,,,,,,,,,,,,,,,,,,0,98,98,21,1,,,,,,,,,,,,,,,,,,,,,,,,
,,,,,,,,,,,,l,Correct!,,,,,,t5.png,t2.png,3,0.0000131,20,female,2020-09-28_21h38.56.757,torte-2b,2020.1.3,MacIntel,60,13315,1.104365,,,,,,,,,,,,,,,,,,,,,,,,,,,,,,,,,,,,,0,99,99,91,1,,,,,,,,,,,,,,,,,,,,,,,,
,,,,,,,,,,,,l,Correct!,,,,,,t3.png,t1.png,2,0.056466,20,female,2020-09-28_21h38.56.757,torte-2b,2020.1.3,MacIntel,60,13315,1.487415,,,,,,,,,,,,,,,,,,,,,,,,,,,,,,,,,,,,,0,100,100,0,1,,,,,,,,,,,,,,,,,,,,,,,,
,,,,,,,,,,,,a,Correct!,,,,,,t5.png,t5.png,0,0.97829,20,female,2020-09-28_21h38.56.757,torte-2b,2020.1.3,MacIntel,60,13315,0.99863,,,,,,,,,,,,,,,,,,,,,,,,,,,,,,,,,,,,,0,101,101,25,1,,,,,,,,,,,,,,,,,,,,,,,,
,,,,,,,,,,,,l,Incorrect,,,,,,t2.png,t3.png,1,0.90855,20,female,2020-09-28_21h38.56.757,torte-2b,2020.1.3,MacIntel,60,13315,0.7747,,,,,,,,,,,,,,,,,,,,,,,,,,,,,,,,,,,,,0,102,102,65,1,,,,,,,,,,,,,,,,,,,,,,,,
,,,,,,,,,,,,a,Correct!,,,,,,t5.png,t5.png,0,0.97829,20,female,2020-09-28_21h38.56.757,torte-2b,2020.1.3,MacIntel,60,13315,0.705435,,,,,,,,,,,,,,,,,,,,,,,,,,,,,,,,,,,,,0,103,103,73,1,,,,,,,,,,,,,,,,,,,,,,,,
,,,,,,,,,,,,l,Correct!,,,,,,t3.png,t1.png,2,0.056466,20,female,2020-09-28_21h38.56.757,torte-2b,2020.1.3,MacIntel,60,13315,0.664925,,,,,,,,,,,,,,,,,,,,,,,,,,,,,,,,,,,,,0,104,104,29,1,,,,,,,,,,,,,,,,,,,,,,,,
,,,,,,,,,,,,a,Correct!,,,,,,t2.png,t2.png,0,0.98115,20,female,2020-09-28_21h38.56.757,torte-2b,2020.1.3,MacIntel,60,13315,1.101155,,,,,,,,,,,,,,,,,,,,,,,,,,,,,,,,,,,,,0,105,105,59,1,,,,,,,,,,,,,,,,,,,,,,,,
,,,,,,,,,,,,a,Correct!,,,,,,t4.png,t3.png,1,0.909,20,female,2020-09-28_21h38.56.757,torte-2b,2020.1.3,MacIntel,60,13315,1.198725,,,,,,,,,,,,,,,,,,,,,,,,,,,,,,,,,,,,,0,106,106,20,1,,,,,,,,,,,,,,,,,,,,,,,,
,,,,,,,,,,,,l,Correct!,,,,,,t3.png,t1.png,2,0.0565,20,female,2020-09-28_21h38.56.757,torte-2b,2020.1.3,MacIntel,60,13315,0.67573,,,,,,,,,,,,,,,,,,,,,,,,,,,,,,,,,,,,,0,107,107,31,1,,,,,,,,,,,,,,,,,,,,,,,,
,,,,,,,,,,,,a,Correct!,,,,,,t4.png,t4.png,0,0.98115,20,female,2020-09-28_21h38.56.757,torte-2b,2020.1.3,MacIntel,60,13315,0.91973,,,,,,,,,,,,,,,,,,,,,,,,,,,,,,,,,,,,,0,108,108,79,1,,,,,,,,,,,,,,,,,,,,,,,,
,,,,,,,,,,,,a,Correct!,,,,,,t5.png,t4.png,1,0.90025,20,female,2020-09-28_21h38.56.757,torte-2b,2020.1.3,MacIntel,60,13315,0.842265,,,,,,,,,,,,,,,,,,,,,,,,,,,,,,,,,,,,,0,109,109,27,1,,,,,,,,,,,,,,,,,,,,,,,,
,,,,,,,,,,,,a,Incorrect,,,,,,t3.png,t5.png,2,0.056466,20,female,2020-09-28_21h38.56.757,torte-2b,2020.1.3,MacIntel,60,13315,0.84895,,,,,,,,,,,,,,,,,,,,,,,,,,,,,,,,,,,,,0,110,110,44,1,,,,,,,,,,,,,,,,,,,,,,,,
,,,,,,,,,,,,l,Correct!,,,,,,t5.png,t1.png,4,9.55E-11,20,female,2020-09-28_21h38.56.757,torte-2b,2020.1.3,MacIntel,60,13315,0.533385,,,,,,,,,,,,,,,,,,,,,,,,,,,,,,,,,,,,,0,111,111,22,1,,,,,,,,,,,,,,,,,,,,,,,,
,,,,,,,,,,,,l,Incorrect,,,,,,t3.png,t2.png,1,0.909,20,female,2020-09-28_21h38.56.757,torte-2b,2020.1.3,MacIntel,60,13315,0.78462,,,,,,,,,,,,,,,,,,,,,,,,,,,,,,,,,,,,,0,112,112,23,1,,,,,,,,,,,,,,,,,,,,,,,,
,,,,,,,,,,,,a,Correct!,,,,,,t3.png,t4.png,1,0.90855,20,female,2020-09-28_21h38.56.757,torte-2b,2020.1.3,MacIntel,60,13315,0.722305,,,,,,,,,,,,,,,,,,,,,,,,,,,,,,,,,,,,,0,113,113,84,1,,,,,,,,,,,,,,,,,,,,,,,,
,,,,,,,,,,,,l,Incorrect,,,,,,t3.png,t2.png,1,0.909,20,female,2020-09-28_21h38.56.757,torte-2b,2020.1.3,MacIntel,60,13315,0.750115,,,,,,,,,,,,,,,,,,,,,,,,,,,,,,,,,,,,,0,114,114,3,1,,,,,,,,,,,,,,,,,,,,,,,,
,,,,,,,,,,,,l,Correct!,,,,,,t5.png,t1.png,4,9.55E-11,20,female,2020-09-28_21h38.56.757,torte-2b,2020.1.3,MacIntel,60,13315,0.61169,,,,,,,,,,,,,,,,,,,,,,,,,,,,,,,,,,,,,0,115,115,43,1,,,,,,,,,,,,,,,,,,,,,,,,
,,,,,,,,,,,,l,Incorrect,,,,,,t1.png,t2.png,1,0.9,20,female,2020-09-28_21h38.56.757,torte-2b,2020.1.3,MacIntel,60,13315,1.319135,,,,,,,,,,,,,,,,,,,,,,,,,,,,,,,,,,,,,0,116,116,1,1,,,,,,,,,,,,,,,,,,,,,,,,
,,,,,,,,,,,,l,Incorrect,,,,,,t1.png,t2.png,1,0.90025,20,female,2020-09-28_21h38.56.757,torte-2b,2020.1.3,MacIntel,60,13315,0.80067,,,,,,,,,,,,,,,,,,,,,,,,,,,,,,,,,,,,,0,117,117,112,1,,,,,,,,,,,,,,,,,,,,,,,,
,,,,,,,,,,,,a,Correct!,,,,,,t1.png,t1.png,0,0.97829,20,female,2020-09-28_21h38.56.757,torte-2b,2020.1.3,MacIntel,60,13315,0.886595,,,,,,,,,,,,,,,,,,,,,,,,,,,,,,,,,,,,,0,118,118,78,1,,,,,,,,,,,,,,,,,,,,,,,,
,,,,,,,,,,,,l,Correct!,,,,,,t5.png,t2.png,3,0.0000131,20,female,2020-09-28_21h38.56.757,torte-2b,2020.1.3,MacIntel,60,13315,0.74387,,,,,,,,,,,,,,,,,,,,,,,,,,,,,,,,,,,,,0,119,119,119,1,,,,,,,,,,,,,,,,,,,,,,,,
,,,,,,,,,,,,,,,,,,,,,,,20,female,2020-09-28_21h38.56.757,torte-2b,2020.1.3,MacIntel,60,13315,,space,1.117915,,,,,,,,,,,,,,,,,,,,,,,,,,,,,,,,,,,,,,,,196.8789063,-118.4609375,1,0,0,s6,218.5546875,-50.203125,1,0,0,t3,226.3007813,-86.83203125,1,0,0,proceed,space,1.121105,space,0.468135,space,3.920165
