key_resp_8.keys,key_resp_8.rt,key_resp_9.keys,key_resp_9.rt,key_resp_10.keys,key_resp_10.rt,key_resp_11.keys,key_resp_11.rt,key_resp_2.keys,key_resp_2.rt,key_resp_3.keys,key_resp_3.rt,key_resp.keys,key_resp.rt,Feedback,train.thisRepN,train.thisTrialN,train.thisN,train.thisIndex,train.ran,torta_sx,torta_dx,difference,probability,age,gender,date,expName,psychopyVersion,OS,frameRate,participant,key_resp_15.keys,key_resp_15.rt,key_resp_6.keys,key_resp_6.rt,test1.thisRepN,test1.thisTrialN,test1.thisN,test1.thisIndex,test1.ran,key_resp_4.keys,key_resp_4.rt,key_resp_5.keys,back1.thisRepN,back1.thisTrialN,back1.thisN,back1.thisIndex,back1.ran,letter,key_resp_5.rt,back2.thisRepN,back2.thisTrialN,back2.thisN,back2.thisIndex,back2.ran,back3.thisRepN,back3.thisTrialN,back3.thisN,back3.thisIndex,back3.ran,back4.thisRepN,back4.thisTrialN,back4.thisN,back4.thisIndex,back4.ran,key_resp_7.keys,key_resp_7.rt,test2.thisRepN,test2.thisTrialN,test2.thisN,test2.thisIndex,test2.ran,mouse.x,mouse.y,mouse.leftButton,mouse.midButton,mouse.rightButton,mouse.clicked_name,mouse_2.x,mouse_2.y,mouse_2.leftButton,mouse_2.midButton,mouse_2.rightButton,mouse_2.clicked_name,mouse_3.x,mouse_3.y,mouse_3.leftButton,mouse_3.midButton,mouse_3.rightButton,mouse_3.clicked_name,key_resp_12.keys,key_resp_12.rt,key_resp_13.keys,key_resp_13.rt,key_resp_14.keys,key_resp_14.rt
space,0.13,space,1.201,space,0.718,space,1.023,space,1.696,space,0.055,a,2.172,Incorrect,0,0,0,36,1,t3.png,t1.png,2,0.0565,36,female,2020-09-28_12h17.38.397,torte-2b,2020.1.3,MacIntel,60,13319,,,,,,,,,,,,,,,,,,,,,,,,,,,,,,,,,,,,,,,,,,,,,,,,,,,,,,,,,,,,,,,,,
,,,,,,,,,,,,l,0.993,Incorrect,0,1,1,44,1,t2.png,t3.png,1,0.909,36,female,2020-09-28_12h17.38.397,torte-2b,2020.1.3,MacIntel,60,13319,,,,,,,,,,,,,,,,,,,,,,,,,,,,,,,,,,,,,,,,,,,,,,,,,,,,,,,,,,,,,,,,,
,,,,,,,,,,,,a,1.005,Correct!,0,2,2,23,1,t5.png,t4.png,1,0.90025,36,female,2020-09-28_12h17.38.397,torte-2b,2020.1.3,MacIntel,60,13319,,,,,,,,,,,,,,,,,,,,,,,,,,,,,,,,,,,,,,,,,,,,,,,,,,,,,,,,,,,,,,,,,
,,,,,,,,,,,,l,1.203,Incorrect,0,3,3,22,1,t2.png,t3.png,1,0.90855,36,female,2020-09-28_12h17.38.397,torte-2b,2020.1.3,MacIntel,60,13319,,,,,,,,,,,,,,,,,,,,,,,,,,,,,,,,,,,,,,,,,,,,,,,,,,,,,,,,,,,,,,,,,
,,,,,,,,,,,,a,0.339,Incorrect,0,4,4,42,1,t5.png,t4.png,1,0.90025,36,female,2020-09-28_12h17.38.397,torte-2b,2020.1.3,MacIntel,60,13319,,,,,,,,,,,,,,,,,,,,,,,,,,,,,,,,,,,,,,,,,,,,,,,,,,,,,,,,,,,,,,,,,
,,,,,,,,,,,,a,0.671,Correct!,0,5,5,75,1,t1.png,t1.png,0,0.97829,36,female,2020-09-28_12h17.38.397,torte-2b,2020.1.3,MacIntel,60,13319,,,,,,,,,,,,,,,,,,,,,,,,,,,,,,,,,,,,,,,,,,,,,,,,,,,,,,,,,,,,,,,,,
,,,,,,,,,,,,a,1.026,Incorrect,0,6,6,52,1,t2.png,t4.png,2,0.059078,36,female,2020-09-28_12h17.38.397,torte-2b,2020.1.3,MacIntel,60,13319,,,,,,,,,,,,,,,,,,,,,,,,,,,,,,,,,,,,,,,,,,,,,,,,,,,,,,,,,,,,,,,,,
,,,,,,,,,,,,l,1.692,Correct!,0,7,7,31,1,t1.png,t5.png,4,9.55E-11,36,female,2020-09-28_12h17.38.397,torte-2b,2020.1.3,MacIntel,60,13319,,,,,,,,,,,,,,,,,,,,,,,,,,,,,,,,,,,,,,,,,,,,,,,,,,,,,,,,,,,,,,,,,
,,,,,,,,,,,,a,0.942,Correct!,0,8,8,48,1,t5.png,t5.png,0,0.97829,36,female,2020-09-28_12h17.38.397,torte-2b,2020.1.3,MacIntel,60,13319,,,,,,,,,,,,,,,,,,,,,,,,,,,,,,,,,,,,,,,,,,,,,,,,,,,,,,,,,,,,,,,,,
,,,,,,,,,,,,l,1.141,Correct!,0,9,9,35,1,t1.png,t4.png,3,0.0000131,36,female,2020-09-28_12h17.38.397,torte-2b,2020.1.3,MacIntel,60,13319,,,,,,,,,,,,,,,,,,,,,,,,,,,,,,,,,,,,,,,,,,,,,,,,,,,,,,,,,,,,,,,,,
,,,,,,,,,,,,l,1.075,Incorrect,0,10,10,66,1,t4.png,t5.png,1,0.9,36,female,2020-09-28_12h17.38.397,torte-2b,2020.1.3,MacIntel,60,13319,,,,,,,,,,,,,,,,,,,,,,,,,,,,,,,,,,,,,,,,,,,,,,,,,,,,,,,,,,,,,,,,,
,,,,,,,,,,,,a,0.908,Incorrect,0,11,11,88,1,t3.png,t1.png,2,0.056466,36,female,2020-09-28_12h17.38.397,torte-2b,2020.1.3,MacIntel,60,13319,,,,,,,,,,,,,,,,,,,,,,,,,,,,,,,,,,,,,,,,,,,,,,,,,,,,,,,,,,,,,,,,,
,,,,,,,,,,,,a,0.584,Incorrect,0,12,12,53,1,t3.png,t1.png,2,0.056466,36,female,2020-09-28_12h17.38.397,torte-2b,2020.1.3,MacIntel,60,13319,,,,,,,,,,,,,,,,,,,,,,,,,,,,,,,,,,,,,,,,,,,,,,,,,,,,,,,,,,,,,,,,,
,,,,,,,,,,,,l,0.641,Correct!,0,13,13,11,1,t1.png,t4.png,3,0.0000131,36,female,2020-09-28_12h17.38.397,torte-2b,2020.1.3,MacIntel,60,13319,,,,,,,,,,,,,,,,,,,,,,,,,,,,,,,,,,,,,,,,,,,,,,,,,,,,,,,,,,,,,,,,,
,,,,,,,,,,,,l,0.571,Correct!,0,14,14,115,1,t2.png,t4.png,2,0.059078,36,female,2020-09-28_12h17.38.397,torte-2b,2020.1.3,MacIntel,60,13319,,,,,,,,,,,,,,,,,,,,,,,,,,,,,,,,,,,,,,,,,,,,,,,,,,,,,,,,,,,,,,,,,
,,,,,,,,,,,,a,0.618,Correct!,0,15,15,97,1,t5.png,t5.png,0,0.97829,36,female,2020-09-28_12h17.38.397,torte-2b,2020.1.3,MacIntel,60,13319,,,,,,,,,,,,,,,,,,,,,,,,,,,,,,,,,,,,,,,,,,,,,,,,,,,,,,,,,,,,,,,,,
,,,,,,,,,,,,a,0.571,Correct!,0,16,16,109,1,t5.png,t5.png,0,0.97829,36,female,2020-09-28_12h17.38.397,torte-2b,2020.1.3,MacIntel,60,13319,,,,,,,,,,,,,,,,,,,,,,,,,,,,,,,,,,,,,,,,,,,,,,,,,,,,,,,,,,,,,,,,,
,,,,,,,,,,,,l,1.56,Correct!,0,17,17,3,1,t1.png,t5.png,4,9.55E-11,36,female,2020-09-28_12h17.38.397,torte-2b,2020.1.3,MacIntel,60,13319,,,,,,,,,,,,,,,,,,,,,,,,,,,,,,,,,,,,,,,,,,,,,,,,,,,,,,,,,,,,,,,,,
,,,,,,,,,,,,a,1.075,Incorrect,0,18,18,68,1,t1.png,t4.png,3,0.0000131,36,female,2020-09-28_12h17.38.397,torte-2b,2020.1.3,MacIntel,60,13319,,,,,,,,,,,,,,,,,,,,,,,,,,,,,,,,,,,,,,,,,,,,,,,,,,,,,,,,,,,,,,,,,
,,,,,,,,,,,,l,0.84,Correct!,0,19,19,72,1,t4.png,t2.png,2,0.059078,36,female,2020-09-28_12h17.38.397,torte-2b,2020.1.3,MacIntel,60,13319,,,,,,,,,,,,,,,,,,,,,,,,,,,,,,,,,,,,,,,,,,,,,,,,,,,,,,,,,,,,,,,,,
,,,,,,,,,,,,a,0.536,Incorrect,0,20,20,43,1,t4.png,t2.png,2,0.059078,36,female,2020-09-28_12h17.38.397,torte-2b,2020.1.3,MacIntel,60,13319,,,,,,,,,,,,,,,,,,,,,,,,,,,,,,,,,,,,,,,,,,,,,,,,,,,,,,,,,,,,,,,,,
,,,,,,,,,,,,l,0.473,Correct!,0,21,21,91,1,t1.png,t4.png,3,0.0000131,36,female,2020-09-28_12h17.38.397,torte-2b,2020.1.3,MacIntel,60,13319,,,,,,,,,,,,,,,,,,,,,,,,,,,,,,,,,,,,,,,,,,,,,,,,,,,,,,,,,,,,,,,,,
,,,,,,,,,,,,a,0.59,Incorrect,0,22,22,0,1,t5.png,t1.png,4,9.55E-11,36,female,2020-09-28_12h17.38.397,torte-2b,2020.1.3,MacIntel,60,13319,,,,,,,,,,,,,,,,,,,,,,,,,,,,,,,,,,,,,,,,,,,,,,,,,,,,,,,,,,,,,,,,,
,,,,,,,,,,,,l,0.369,Incorrect,0,23,23,106,1,t2.png,t3.png,1,0.90855,36,female,2020-09-28_12h17.38.397,torte-2b,2020.1.3,MacIntel,60,13319,,,,,,,,,,,,,,,,,,,,,,,,,,,,,,,,,,,,,,,,,,,,,,,,,,,,,,,,,,,,,,,,,
,,,,,,,,,,,,l,0.79,Correct!,0,24,24,67,1,t1.png,t5.png,4,9.55E-11,36,female,2020-09-28_12h17.38.397,torte-2b,2020.1.3,MacIntel,60,13319,,,,,,,,,,,,,,,,,,,,,,,,,,,,,,,,,,,,,,,,,,,,,,,,,,,,,,,,,,,,,,,,,
,,,,,,,,,,,,a,0.609,Correct!,0,25,25,76,1,t3.png,t2.png,1,0.90855,36,female,2020-09-28_12h17.38.397,torte-2b,2020.1.3,MacIntel,60,13319,,,,,,,,,,,,,,,,,,,,,,,,,,,,,,,,,,,,,,,,,,,,,,,,,,,,,,,,,,,,,,,,,
,,,,,,,,,,,,a,0.737,Correct!,0,26,26,71,1,t5.png,t5.png,0,0.97829,36,female,2020-09-28_12h17.38.397,torte-2b,2020.1.3,MacIntel,60,13319,,,,,,,,,,,,,,,,,,,,,,,,,,,,,,,,,,,,,,,,,,,,,,,,,,,,,,,,,,,,,,,,,
,,,,,,,,,,,,a,0.508,Correct!,0,27,27,84,1,t1.png,t1.png,0,0.97829,36,female,2020-09-28_12h17.38.397,torte-2b,2020.1.3,MacIntel,60,13319,,,,,,,,,,,,,,,,,,,,,,,,,,,,,,,,,,,,,,,,,,,,,,,,,,,,,,,,,,,,,,,,,
,,,,,,,,,,,,l,0.705,Incorrect,0,28,28,114,1,t2.png,t3.png,1,0.90855,36,female,2020-09-28_12h17.38.397,torte-2b,2020.1.3,MacIntel,60,13319,,,,,,,,,,,,,,,,,,,,,,,,,,,,,,,,,,,,,,,,,,,,,,,,,,,,,,,,,,,,,,,,,
,,,,,,,,,,,,l,0.908,Correct!,0,29,29,17,1,t1.png,t4.png,3,0.0000131,36,female,2020-09-28_12h17.38.397,torte-2b,2020.1.3,MacIntel,60,13319,,,,,,,,,,,,,,,,,,,,,,,,,,,,,,,,,,,,,,,,,,,,,,,,,,,,,,,,,,,,,,,,,
,,,,,,,,,,,,l,0.835,Correct!,0,30,30,87,1,t5.png,t1.png,4,9.55E-11,36,female,2020-09-28_12h17.38.397,torte-2b,2020.1.3,MacIntel,60,13319,,,,,,,,,,,,,,,,,,,,,,,,,,,,,,,,,,,,,,,,,,,,,,,,,,,,,,,,,,,,,,,,,
,,,,,,,,,,,,a,0.788,Correct!,0,31,31,85,1,t3.png,t2.png,1,0.90855,36,female,2020-09-28_12h17.38.397,torte-2b,2020.1.3,MacIntel,60,13319,,,,,,,,,,,,,,,,,,,,,,,,,,,,,,,,,,,,,,,,,,,,,,,,,,,,,,,,,,,,,,,,,
,,,,,,,,,,,,a,1.058,Correct!,0,32,32,65,1,t4.png,t5.png,1,0.90025,36,female,2020-09-28_12h17.38.397,torte-2b,2020.1.3,MacIntel,60,13319,,,,,,,,,,,,,,,,,,,,,,,,,,,,,,,,,,,,,,,,,,,,,,,,,,,,,,,,,,,,,,,,,
,,,,,,,,,,,,l,1.36,Correct!,0,33,33,19,1,t4.png,t2.png,2,0.059078,36,female,2020-09-28_12h17.38.397,torte-2b,2020.1.3,MacIntel,60,13319,,,,,,,,,,,,,,,,,,,,,,,,,,,,,,,,,,,,,,,,,,,,,,,,,,,,,,,,,,,,,,,,,
,,,,,,,,,,,,a,0.689,Correct!,0,34,34,81,1,t1.png,t1.png,0,0.97829,36,female,2020-09-28_12h17.38.397,torte-2b,2020.1.3,MacIntel,60,13319,,,,,,,,,,,,,,,,,,,,,,,,,,,,,,,,,,,,,,,,,,,,,,,,,,,,,,,,,,,,,,,,,
,,,,,,,,,,,,a,0.923,Incorrect,0,35,35,103,1,t3.png,t1.png,2,0.056466,36,female,2020-09-28_12h17.38.397,torte-2b,2020.1.3,MacIntel,60,13319,,,,,,,,,,,,,,,,,,,,,,,,,,,,,,,,,,,,,,,,,,,,,,,,,,,,,,,,,,,,,,,,,
,,,,,,,,,,,,a,0.675,Correct!,0,36,36,107,1,t1.png,t1.png,0,0.978,36,female,2020-09-28_12h17.38.397,torte-2b,2020.1.3,MacIntel,60,13319,,,,,,,,,,,,,,,,,,,,,,,,,,,,,,,,,,,,,,,,,,,,,,,,,,,,,,,,,,,,,,,,,
,,,,,,,,,,,,l,0.721,Incorrect,0,37,37,104,1,t2.png,t3.png,1,0.90855,36,female,2020-09-28_12h17.38.397,torte-2b,2020.1.3,MacIntel,60,13319,,,,,,,,,,,,,,,,,,,,,,,,,,,,,,,,,,,,,,,,,,,,,,,,,,,,,,,,,,,,,,,,,
,,,,,,,,,,,,a,0.627,Incorrect,0,38,38,30,1,t3.png,t1.png,2,0.056466,36,female,2020-09-28_12h17.38.397,torte-2b,2020.1.3,MacIntel,60,13319,,,,,,,,,,,,,,,,,,,,,,,,,,,,,,,,,,,,,,,,,,,,,,,,,,,,,,,,,,,,,,,,,
,,,,,,,,,,,,a,0.86,Incorrect,0,39,39,111,1,t5.png,t1.png,4,9.55E-11,36,female,2020-09-28_12h17.38.397,torte-2b,2020.1.3,MacIntel,60,13319,,,,,,,,,,,,,,,,,,,,,,,,,,,,,,,,,,,,,,,,,,,,,,,,,,,,,,,,,,,,,,,,,
,,,,,,,,,,,,a,0.906,Correct!,0,40,40,49,1,t4.png,t5.png,1,0.9,36,female,2020-09-28_12h17.38.397,torte-2b,2020.1.3,MacIntel,60,13319,,,,,,,,,,,,,,,,,,,,,,,,,,,,,,,,,,,,,,,,,,,,,,,,,,,,,,,,,,,,,,,,,
,,,,,,,,,,,,a,0.486,Correct!,0,41,41,41,1,t3.png,t2.png,1,0.90855,36,female,2020-09-28_12h17.38.397,torte-2b,2020.1.3,MacIntel,60,13319,,,,,,,,,,,,,,,,,,,,,,,,,,,,,,,,,,,,,,,,,,,,,,,,,,,,,,,,,,,,,,,,,
,,,,,,,,,,,,a,0.46,Incorrect,0,42,42,27,1,t3.png,t1.png,2,0.0565,36,female,2020-09-28_12h17.38.397,torte-2b,2020.1.3,MacIntel,60,13319,,,,,,,,,,,,,,,,,,,,,,,,,,,,,,,,,,,,,,,,,,,,,,,,,,,,,,,,,,,,,,,,,
,,,,,,,,,,,,l,0.537,Incorrect,0,43,43,78,1,t1.png,t1.png,0,0.978,36,female,2020-09-28_12h17.38.397,torte-2b,2020.1.3,MacIntel,60,13319,,,,,,,,,,,,,,,,,,,,,,,,,,,,,,,,,,,,,,,,,,,,,,,,,,,,,,,,,,,,,,,,,
,,,,,,,,,,,,a,0.874,Incorrect,0,44,44,108,1,t5.png,t1.png,4,9.55E-11,36,female,2020-09-28_12h17.38.397,torte-2b,2020.1.3,MacIntel,60,13319,,,,,,,,,,,,,,,,,,,,,,,,,,,,,,,,,,,,,,,,,,,,,,,,,,,,,,,,,,,,,,,,,
,,,,,,,,,,,,l,1.008,Correct!,0,45,45,54,1,t1.png,t5.png,4,9.55E-11,36,female,2020-09-28_12h17.38.397,torte-2b,2020.1.3,MacIntel,60,13319,,,,,,,,,,,,,,,,,,,,,,,,,,,,,,,,,,,,,,,,,,,,,,,,,,,,,,,,,,,,,,,,,
,,,,,,,,,,,,l,1.272,Incorrect,0,46,46,92,1,t2.png,t3.png,1,0.909,36,female,2020-09-28_12h17.38.397,torte-2b,2020.1.3,MacIntel,60,13319,,,,,,,,,,,,,,,,,,,,,,,,,,,,,,,,,,,,,,,,,,,,,,,,,,,,,,,,,,,,,,,,,
,,,,,,,,,,,,l,1.208,Correct!,0,47,47,55,1,t2.png,t4.png,2,0.059078,36,female,2020-09-28_12h17.38.397,torte-2b,2020.1.3,MacIntel,60,13319,,,,,,,,,,,,,,,,,,,,,,,,,,,,,,,,,,,,,,,,,,,,,,,,,,,,,,,,,,,,,,,,,
,,,,,,,,,,,,a,0.958,Incorrect,0,48,48,6,1,t1.png,t4.png,3,0.0000131,36,female,2020-09-28_12h17.38.397,torte-2b,2020.1.3,MacIntel,60,13319,,,,,,,,,,,,,,,,,,,,,,,,,,,,,,,,,,,,,,,,,,,,,,,,,,,,,,,,,,,,,,,,,
,,,,,,,,,,,,a,1.313,Incorrect,0,49,49,12,1,t5.png,t1.png,4,9.55E-11,36,female,2020-09-28_12h17.38.397,torte-2b,2020.1.3,MacIntel,60,13319,,,,,,,,,,,,,,,,,,,,,,,,,,,,,,,,,,,,,,,,,,,,,,,,,,,,,,,,,,,,,,,,,
,,,,,,,,,,,,l,1.192,Incorrect,0,50,50,32,1,t4.png,t5.png,1,0.90025,36,female,2020-09-28_12h17.38.397,torte-2b,2020.1.3,MacIntel,60,13319,,,,,,,,,,,,,,,,,,,,,,,,,,,,,,,,,,,,,,,,,,,,,,,,,,,,,,,,,,,,,,,,,
,,,,,,,,,,,,a,0.951,Correct!,0,51,51,62,1,t5.png,t5.png,0,0.978,36,female,2020-09-28_12h17.38.397,torte-2b,2020.1.3,MacIntel,60,13319,,,,,,,,,,,,,,,,,,,,,,,,,,,,,,,,,,,,,,,,,,,,,,,,,,,,,,,,,,,,,,,,,
,,,,,,,,,,,,l,1.143,Incorrect,0,52,52,102,1,t4.png,t2.png,2,0.059078,36,female,2020-09-28_12h17.38.397,torte-2b,2020.1.3,MacIntel,60,13319,,,,,,,,,,,,,,,,,,,,,,,,,,,,,,,,,,,,,,,,,,,,,,,,,,,,,,,,,,,,,,,,,
,,,,,,,,,,,,l,1.103,Correct!,0,53,53,57,1,t2.png,t4.png,2,0.059078,36,female,2020-09-28_12h17.38.397,torte-2b,2020.1.3,MacIntel,60,13319,,,,,,,,,,,,,,,,,,,,,,,,,,,,,,,,,,,,,,,,,,,,,,,,,,,,,,,,,,,,,,,,,
,,,,,,,,,,,,l,1.927,Incorrect,0,54,54,10,1,t2.png,t3.png,1,0.90855,36,female,2020-09-28_12h17.38.397,torte-2b,2020.1.3,MacIntel,60,13319,,,,,,,,,,,,,,,,,,,,,,,,,,,,,,,,,,,,,,,,,,,,,,,,,,,,,,,,,,,,,,,,,
,,,,,,,,,,,,a,1.089,Correct!,0,55,55,63,1,t2.png,t3.png,1,0.909,36,female,2020-09-28_12h17.38.397,torte-2b,2020.1.3,MacIntel,60,13319,,,,,,,,,,,,,,,,,,,,,,,,,,,,,,,,,,,,,,,,,,,,,,,,,,,,,,,,,,,,,,,,,
,,,,,,,,,,,,a,1.126,Correct!,0,56,56,38,1,t3.png,t1.png,2,0.056466,36,female,2020-09-28_12h17.38.397,torte-2b,2020.1.3,MacIntel,60,13319,,,,,,,,,,,,,,,,,,,,,,,,,,,,,,,,,,,,,,,,,,,,,,,,,,,,,,,,,,,,,,,,,
,,,,,,,,,,,,a,0.87,Correct!,0,57,57,70,1,t5.png,t5.png,0,0.978,36,female,2020-09-28_12h17.38.397,torte-2b,2020.1.3,MacIntel,60,13319,,,,,,,,,,,,,,,,,,,,,,,,,,,,,,,,,,,,,,,,,,,,,,,,,,,,,,,,,,,,,,,,,
,,,,,,,,,,,,l,1.287,Incorrect,0,58,58,16,1,t5.png,t4.png,1,0.9,36,female,2020-09-28_12h17.38.397,torte-2b,2020.1.3,MacIntel,60,13319,,,,,,,,,,,,,,,,,,,,,,,,,,,,,,,,,,,,,,,,,,,,,,,,,,,,,,,,,,,,,,,,,
,,,,,,,,,,,,a,1.504,Incorrect,0,59,59,61,1,t1.png,t4.png,3,0.0000131,36,female,2020-09-28_12h17.38.397,torte-2b,2020.1.3,MacIntel,60,13319,,,,,,,,,,,,,,,,,,,,,,,,,,,,,,,,,,,,,,,,,,,,,,,,,,,,,,,,,,,,,,,,,
,,,,,,,,,,,,l,0.891,Correct!,0,60,60,93,1,t2.png,t4.png,2,0.059078,36,female,2020-09-28_12h17.38.397,torte-2b,2020.1.3,MacIntel,60,13319,,,,,,,,,,,,,,,,,,,,,,,,,,,,,,,,,,,,,,,,,,,,,,,,,,,,,,,,,,,,,,,,,
,,,,,,,,,,,,l,1.659,Correct!,0,61,61,101,1,t4.png,t5.png,1,0.90025,36,female,2020-09-28_12h17.38.397,torte-2b,2020.1.3,MacIntel,60,13319,,,,,,,,,,,,,,,,,,,,,,,,,,,,,,,,,,,,,,,,,,,,,,,,,,,,,,,,,,,,,,,,,
,,,,,,,,,,,,l,1.173,Incorrect,0,62,62,15,1,t3.png,t2.png,1,0.90855,36,female,2020-09-28_12h17.38.397,torte-2b,2020.1.3,MacIntel,60,13319,,,,,,,,,,,,,,,,,,,,,,,,,,,,,,,,,,,,,,,,,,,,,,,,,,,,,,,,,,,,,,,,,
,,,,,,,,,,,,l,0.719,Incorrect,0,63,63,8,1,t3.png,t2.png,1,0.90855,36,female,2020-09-28_12h17.38.397,torte-2b,2020.1.3,MacIntel,60,13319,,,,,,,,,,,,,,,,,,,,,,,,,,,,,,,,,,,,,,,,,,,,,,,,,,,,,,,,,,,,,,,,,
,,,,,,,,,,,,a,0.955,Incorrect,0,64,64,94,1,t5.png,t1.png,4,9.55E-11,36,female,2020-09-28_12h17.38.397,torte-2b,2020.1.3,MacIntel,60,13319,,,,,,,,,,,,,,,,,,,,,,,,,,,,,,,,,,,,,,,,,,,,,,,,,,,,,,,,,,,,,,,,,
,,,,,,,,,,,,a,0.907,Correct!,0,65,65,20,1,t2.png,t3.png,1,0.90855,36,female,2020-09-28_12h17.38.397,torte-2b,2020.1.3,MacIntel,60,13319,,,,,,,,,,,,,,,,,,,,,,,,,,,,,,,,,,,,,,,,,,,,,,,,,,,,,,,,,,,,,,,,,
,,,,,,,,,,,,a,0.857,Correct!,0,66,66,25,1,t5.png,t5.png,0,0.97829,36,female,2020-09-28_12h17.38.397,torte-2b,2020.1.3,MacIntel,60,13319,,,,,,,,,,,,,,,,,,,,,,,,,,,,,,,,,,,,,,,,,,,,,,,,,,,,,,,,,,,,,,,,,
,,,,,,,,,,,,a,0.725,Incorrect,0,67,67,56,1,t5.png,t1.png,4,9.55E-11,36,female,2020-09-28_12h17.38.397,torte-2b,2020.1.3,MacIntel,60,13319,,,,,,,,,,,,,,,,,,,,,,,,,,,,,,,,,,,,,,,,,,,,,,,,,,,,,,,,,,,,,,,,,
,,,,,,,,,,,,a,1.208,Incorrect,0,68,68,105,1,t3.png,t2.png,1,0.90855,36,female,2020-09-28_12h17.38.397,torte-2b,2020.1.3,MacIntel,60,13319,,,,,,,,,,,,,,,,,,,,,,,,,,,,,,,,,,,,,,,,,,,,,,,,,,,,,,,,,,,,,,,,,
,,,,,,,,,,,,l,1.319,Correct!,0,69,69,46,1,t4.png,t2.png,2,0.059078,36,female,2020-09-28_12h17.38.397,torte-2b,2020.1.3,MacIntel,60,13319,,,,,,,,,,,,,,,,,,,,,,,,,,,,,,,,,,,,,,,,,,,,,,,,,,,,,,,,,,,,,,,,,
,,,,,,,,,,,,l,0.87,Correct!,0,70,70,69,1,t4.png,t2.png,2,0.059078,36,female,2020-09-28_12h17.38.397,torte-2b,2020.1.3,MacIntel,60,13319,,,,,,,,,,,,,,,,,,,,,,,,,,,,,,,,,,,,,,,,,,,,,,,,,,,,,,,,,,,,,,,,,
,,,,,,,,,,,,a,0.675,Correct!,0,71,71,118,1,t5.png,t5.png,0,0.978,36,female,2020-09-28_12h17.38.397,torte-2b,2020.1.3,MacIntel,60,13319,,,,,,,,,,,,,,,,,,,,,,,,,,,,,,,,,,,,,,,,,,,,,,,,,,,,,,,,,,,,,,,,,
,,,,,,,,,,,,a,1.062,Incorrect,0,72,72,89,1,t1.png,t4.png,3,0.0000131,36,female,2020-09-28_12h17.38.397,torte-2b,2020.1.3,MacIntel,60,13319,,,,,,,,,,,,,,,,,,,,,,,,,,,,,,,,,,,,,,,,,,,,,,,,,,,,,,,,,,,,,,,,,
,,,,,,,,,,,,l,0.995,Incorrect,0,73,73,34,1,t5.png,t4.png,1,0.9,36,female,2020-09-28_12h17.38.397,torte-2b,2020.1.3,MacIntel,60,13319,,,,,,,,,,,,,,,,,,,,,,,,,,,,,,,,,,,,,,,,,,,,,,,,,,,,,,,,,,,,,,,,,
,,,,,,,,,,,,l,0.987,Incorrect,0,74,74,113,1,t5.png,t4.png,1,0.9,36,female,2020-09-28_12h17.38.397,torte-2b,2020.1.3,MacIntel,60,13319,,,,,,,,,,,,,,,,,,,,,,,,,,,,,,,,,,,,,,,,,,,,,,,,,,,,,,,,,,,,,,,,,
,,,,,,,,,,,,l,0.687,Correct!,0,75,75,117,1,t1.png,t5.png,4,9.55E-11,36,female,2020-09-28_12h17.38.397,torte-2b,2020.1.3,MacIntel,60,13319,,,,,,,,,,,,,,,,,,,,,,,,,,,,,,,,,,,,,,,,,,,,,,,,,,,,,,,,,,,,,,,,,
,,,,,,,,,,,,a,0.991,Correct!,0,76,76,28,1,t2.png,t3.png,1,0.909,36,female,2020-09-28_12h17.38.397,torte-2b,2020.1.3,MacIntel,60,13319,,,,,,,,,,,,,,,,,,,,,,,,,,,,,,,,,,,,,,,,,,,,,,,,,,,,,,,,,,,,,,,,,
,,,,,,,,,,,,a,1.458,Incorrect,0,77,77,80,1,t1.png,t4.png,3,0.0000131,36,female,2020-09-28_12h17.38.397,torte-2b,2020.1.3,MacIntel,60,13319,,,,,,,,,,,,,,,,,,,,,,,,,,,,,,,,,,,,,,,,,,,,,,,,,,,,,,,,,,,,,,,,,
,,,,,,,,,,,,a,0.658,Correct!,0,78,78,96,1,t1.png,t1.png,0,0.97829,36,female,2020-09-28_12h17.38.397,torte-2b,2020.1.3,MacIntel,60,13319,,,,,,,,,,,,,,,,,,,,,,,,,,,,,,,,,,,,,,,,,,,,,,,,,,,,,,,,,,,,,,,,,
,,,,,,,,,,,,l,0.772,Correct!,0,79,79,40,1,t1.png,t5.png,4,9.55E-11,36,female,2020-09-28_12h17.38.397,torte-2b,2020.1.3,MacIntel,60,13319,,,,,,,,,,,,,,,,,,,,,,,,,,,,,,,,,,,,,,,,,,,,,,,,,,,,,,,,,,,,,,,,,
,,,,,,,,,,,,a,0.992,Correct!,0,80,80,39,1,t3.png,t2.png,1,0.90855,36,female,2020-09-28_12h17.38.397,torte-2b,2020.1.3,MacIntel,60,13319,,,,,,,,,,,,,,,,,,,,,,,,,,,,,,,,,,,,,,,,,,,,,,,,,,,,,,,,,,,,,,,,,
,,,,,,,,,,,,l,1.827,Correct!,0,81,81,98,1,t2.png,t4.png,2,0.0591,36,female,2020-09-28_12h17.38.397,torte-2b,2020.1.3,MacIntel,60,13319,,,,,,,,,,,,,,,,,,,,,,,,,,,,,,,,,,,,,,,,,,,,,,,,,,,,,,,,,,,,,,,,,
,,,,,,,,,,,,a,1.823,Correct!,0,82,82,58,1,t5.png,t4.png,1,0.90025,36,female,2020-09-28_12h17.38.397,torte-2b,2020.1.3,MacIntel,60,13319,,,,,,,,,,,,,,,,,,,,,,,,,,,,,,,,,,,,,,,,,,,,,,,,,,,,,,,,,,,,,,,,,
,,,,,,,,,,,,a,0.685,Correct!,0,83,83,112,1,t1.png,t1.png,0,0.97829,36,female,2020-09-28_12h17.38.397,torte-2b,2020.1.3,MacIntel,60,13319,,,,,,,,,,,,,,,,,,,,,,,,,,,,,,,,,,,,,,,,,,,,,,,,,,,,,,,,,,,,,,,,,
,,,,,,,,,,,,a,1.943,Correct!,0,84,84,21,1,t5.png,t4.png,1,0.90025,36,female,2020-09-28_12h17.38.397,torte-2b,2020.1.3,MacIntel,60,13319,,,,,,,,,,,,,,,,,,,,,,,,,,,,,,,,,,,,,,,,,,,,,,,,,,,,,,,,,,,,,,,,,
,,,,,,,,,,,,a,0.757,Correct!,0,85,85,77,1,t1.png,t1.png,0,0.97829,36,female,2020-09-28_12h17.38.397,torte-2b,2020.1.3,MacIntel,60,13319,,,,,,,,,,,,,,,,,,,,,,,,,,,,,,,,,,,,,,,,,,,,,,,,,,,,,,,,,,,,,,,,,
,,,,,,,,,,,,a,1.09,Correct!,0,86,86,2,1,t3.png,t2.png,1,0.90855,36,female,2020-09-28_12h17.38.397,torte-2b,2020.1.3,MacIntel,60,13319,,,,,,,,,,,,,,,,,,,,,,,,,,,,,,,,,,,,,,,,,,,,,,,,,,,,,,,,,,,,,,,,,
,,,,,,,,,,,,l,0.756,Correct!,0,87,87,37,1,t1.png,t4.png,3,0.0000131,36,female,2020-09-28_12h17.38.397,torte-2b,2020.1.3,MacIntel,60,13319,,,,,,,,,,,,,,,,,,,,,,,,,,,,,,,,,,,,,,,,,,,,,,,,,,,,,,,,,,,,,,,,,
,,,,,,,,,,,,l,1.358,Incorrect,0,88,88,110,1,t4.png,t5.png,1,0.90025,36,female,2020-09-28_12h17.38.397,torte-2b,2020.1.3,MacIntel,60,13319,,,,,,,,,,,,,,,,,,,,,,,,,,,,,,,,,,,,,,,,,,,,,,,,,,,,,,,,,,,,,,,,,
,,,,,,,,,,,,a,1.525,Correct!,0,89,89,59,1,t5.png,t4.png,1,0.9,36,female,2020-09-28_12h17.38.397,torte-2b,2020.1.3,MacIntel,60,13319,,,,,,,,,,,,,,,,,,,,,,,,,,,,,,,,,,,,,,,,,,,,,,,,,,,,,,,,,,,,,,,,,
,,,,,,,,,,,,a,0.591,Correct!,0,90,90,95,1,t1.png,t1.png,0,0.978,36,female,2020-09-28_12h17.38.397,torte-2b,2020.1.3,MacIntel,60,13319,,,,,,,,,,,,,,,,,,,,,,,,,,,,,,,,,,,,,,,,,,,,,,,,,,,,,,,,,,,,,,,,,
,,,,,,,,,,,,a,0.987,Correct!,0,91,91,79,1,t3.png,t2.png,1,0.909,36,female,2020-09-28_12h17.38.397,torte-2b,2020.1.3,MacIntel,60,13319,,,,,,,,,,,,,,,,,,,,,,,,,,,,,,,,,,,,,,,,,,,,,,,,,,,,,,,,,,,,,,,,,
,,,,,,,,,,,,a,0.804,Incorrect,0,92,92,47,1,t4.png,t2.png,2,0.059078,36,female,2020-09-28_12h17.38.397,torte-2b,2020.1.3,MacIntel,60,13319,,,,,,,,,,,,,,,,,,,,,,,,,,,,,,,,,,,,,,,,,,,,,,,,,,,,,,,,,,,,,,,,,
,,,,,,,,,,,,l,1.137,Correct!,0,93,93,50,1,t5.png,t1.png,4,9.55E-11,36,female,2020-09-28_12h17.38.397,torte-2b,2020.1.3,MacIntel,60,13319,,,,,,,,,,,,,,,,,,,,,,,,,,,,,,,,,,,,,,,,,,,,,,,,,,,,,,,,,,,,,,,,,
,,,,,,,,,,,,l,0.976,Correct!,0,94,94,33,1,t5.png,t1.png,4,9.55E-11,36,female,2020-09-28_12h17.38.397,torte-2b,2020.1.3,MacIntel,60,13319,,,,,,,,,,,,,,,,,,,,,,,,,,,,,,,,,,,,,,,,,,,,,,,,,,,,,,,,,,,,,,,,,
,,,,,,,,,,,,a,1.057,Incorrect,0,95,95,26,1,t4.png,t2.png,2,0.0591,36,female,2020-09-28_12h17.38.397,torte-2b,2020.1.3,MacIntel,60,13319,,,,,,,,,,,,,,,,,,,,,,,,,,,,,,,,,,,,,,,,,,,,,,,,,,,,,,,,,,,,,,,,,
,,,,,,,,,,,,a,1.426,Correct!,0,96,96,116,1,t5.png,t4.png,1,0.90025,36,female,2020-09-28_12h17.38.397,torte-2b,2020.1.3,MacIntel,60,13319,,,,,,,,,,,,,,,,,,,,,,,,,,,,,,,,,,,,,,,,,,,,,,,,,,,,,,,,,,,,,,,,,
,,,,,,,,,,,,a,0.661,Incorrect,0,97,97,83,1,t3.png,t1.png,2,0.056466,36,female,2020-09-28_12h17.38.397,torte-2b,2020.1.3,MacIntel,60,13319,,,,,,,,,,,,,,,,,,,,,,,,,,,,,,,,,,,,,,,,,,,,,,,,,,,,,,,,,,,,,,,,,
,,,,,,,,,,,,l,0.655,Correct!,0,98,98,90,1,t1.png,t5.png,4,9.55E-11,36,female,2020-09-28_12h17.38.397,torte-2b,2020.1.3,MacIntel,60,13319,,,,,,,,,,,,,,,,,,,,,,,,,,,,,,,,,,,,,,,,,,,,,,,,,,,,,,,,,,,,,,,,,
,,,,,,,,,,,,l,1.459,Incorrect,0,99,99,18,1,t4.png,t5.png,1,0.90025,36,female,2020-09-28_12h17.38.397,torte-2b,2020.1.3,MacIntel,60,13319,,,,,,,,,,,,,,,,,,,,,,,,,,,,,,,,,,,,,,,,,,,,,,,,,,,,,,,,,,,,,,,,,
,,,,,,,,,,,,a,1.544,Correct!,0,100,100,74,1,t5.png,t4.png,1,0.9,36,female,2020-09-28_12h17.38.397,torte-2b,2020.1.3,MacIntel,60,13319,,,,,,,,,,,,,,,,,,,,,,,,,,,,,,,,,,,,,,,,,,,,,,,,,,,,,,,,,,,,,,,,,
,,,,,,,,,,,,a,0.825,Correct!,0,101,101,29,1,t5.png,t5.png,0,0.97829,36,female,2020-09-28_12h17.38.397,torte-2b,2020.1.3,MacIntel,60,13319,,,,,,,,,,,,,,,,,,,,,,,,,,,,,,,,,,,,,,,,,,,,,,,,,,,,,,,,,,,,,,,,,
,,,,,,,,,,,,a,1.107,Incorrect,0,102,102,86,1,t3.png,t1.png,2,0.056466,36,female,2020-09-28_12h17.38.397,torte-2b,2020.1.3,MacIntel,60,13319,,,,,,,,,,,,,,,,,,,,,,,,,,,,,,,,,,,,,,,,,,,,,,,,,,,,,,,,,,,,,,,,,
,,,,,,,,,,,,l,0.785,Correct!,0,103,103,99,1,t1.png,t5.png,4,9.55E-11,36,female,2020-09-28_12h17.38.397,torte-2b,2020.1.3,MacIntel,60,13319,,,,,,,,,,,,,,,,,,,,,,,,,,,,,,,,,,,,,,,,,,,,,,,,,,,,,,,,,,,,,,,,,
,,,,,,,,,,,,l,1.122,Incorrect,0,104,104,9,1,t4.png,t5.png,1,0.9,36,female,2020-09-28_12h17.38.397,torte-2b,2020.1.3,MacIntel,60,13319,,,,,,,,,,,,,,,,,,,,,,,,,,,,,,,,,,,,,,,,,,,,,,,,,,,,,,,,,,,,,,,,,
,,,,,,,,,,,,a,0.574,Incorrect,0,105,105,64,1,t1.png,t1.png,0,0.978,36,female,2020-09-28_12h17.38.397,torte-2b,2020.1.3,MacIntel,60,13319,,,,,,,,,,,,,,,,,,,,,,,,,,,,,,,,,,,,,,,,,,,,,,,,,,,,,,,,,,,,,,,,,
,,,,,,,,,,,,l,1.308,Correct!,0,106,106,1,1,t2.png,t4.png,2,0.059078,36,female,2020-09-28_12h17.38.397,torte-2b,2020.1.3,MacIntel,60,13319,,,,,,,,,,,,,,,,,,,,,,,,,,,,,,,,,,,,,,,,,,,,,,,,,,,,,,,,,,,,,,,,,
,,,,,,,,,,,,l,0.925,Incorrect,0,107,107,7,1,t4.png,t5.png,1,0.90025,36,female,2020-09-28_12h17.38.397,torte-2b,2020.1.3,MacIntel,60,13319,,,,,,,,,,,,,,,,,,,,,,,,,,,,,,,,,,,,,,,,,,,,,,,,,,,,,,,,,,,,,,,,,
,,,,,,,,,,,,a,0.839,Correct!,0,108,108,45,1,t3.png,t2.png,1,0.90855,36,female,2020-09-28_12h17.38.397,torte-2b,2020.1.3,MacIntel,60,13319,,,,,,,,,,,,,,,,,,,,,,,,,,,,,,,,,,,,,,,,,,,,,,,,,,,,,,,,,,,,,,,,,
,,,,,,,,,,,,a,0.856,Incorrect,0,109,109,14,1,t2.png,t4.png,2,0.059078,36,female,2020-09-28_12h17.38.397,torte-2b,2020.1.3,MacIntel,60,13319,,,,,,,,,,,,,,,,,,,,,,,,,,,,,,,,,,,,,,,,,,,,,,,,,,,,,,,,,,,,,,,,,
,,,,,,,,,,,,l,0.61,Correct!,0,110,110,119,1,t1.png,t5.png,4,9.55E-11,36,female,2020-09-28_12h17.38.397,torte-2b,2020.1.3,MacIntel,60,13319,,,,,,,,,,,,,,,,,,,,,,,,,,,,,,,,,,,,,,,,,,,,,,,,,,,,,,,,,,,,,,,,,
,,,,,,,,,,,,l,0.641,Correct!,0,111,111,51,1,t3.png,t1.png,2,0.056466,36,female,2020-09-28_12h17.38.397,torte-2b,2020.1.3,MacIntel,60,13319,,,,,,,,,,,,,,,,,,,,,,,,,,,,,,,,,,,,,,,,,,,,,,,,,,,,,,,,,,,,,,,,,
,,,,,,,,,,,,l,0.906,Correct!,0,112,112,73,1,t4.png,t2.png,2,0.059078,36,female,2020-09-28_12h17.38.397,torte-2b,2020.1.3,MacIntel,60,13319,,,,,,,,,,,,,,,,,,,,,,,,,,,,,,,,,,,,,,,,,,,,,,,,,,,,,,,,,,,,,,,,,
,,,,,,,,,,,,l,0.711,Correct!,0,113,113,60,1,t2.png,t4.png,2,0.059078,36,female,2020-09-28_12h17.38.397,torte-2b,2020.1.3,MacIntel,60,13319,,,,,,,,,,,,,,,,,,,,,,,,,,,,,,,,,,,,,,,,,,,,,,,,,,,,,,,,,,,,,,,,,
,,,,,,,,,,,,l,0.422,Incorrect,0,114,114,5,1,t2.png,t4.png,2,0.059078,36,female,2020-09-28_12h17.38.397,torte-2b,2020.1.3,MacIntel,60,13319,,,,,,,,,,,,,,,,,,,,,,,,,,,,,,,,,,,,,,,,,,,,,,,,,,,,,,,,,,,,,,,,,
,,,,,,,,,,,,l,0.721,Correct!,0,115,115,4,1,t1.png,t5.png,4,9.55E-11,36,female,2020-09-28_12h17.38.397,torte-2b,2020.1.3,MacIntel,60,13319,,,,,,,,,,,,,,,,,,,,,,,,,,,,,,,,,,,,,,,,,,,,,,,,,,,,,,,,,,,,,,,,,
,,,,,,,,,,,,a,0.671,Correct!,0,116,116,13,1,t5.png,t5.png,0,0.97829,36,female,2020-09-28_12h17.38.397,torte-2b,2020.1.3,MacIntel,60,13319,,,,,,,,,,,,,,,,,,,,,,,,,,,,,,,,,,,,,,,,,,,,,,,,,,,,,,,,,,,,,,,,,
,,,,,,,,,,,,a,0.575,Incorrect,0,117,117,82,1,t5.png,t1.png,4,9.55E-11,36,female,2020-09-28_12h17.38.397,torte-2b,2020.1.3,MacIntel,60,13319,,,,,,,,,,,,,,,,,,,,,,,,,,,,,,,,,,,,,,,,,,,,,,,,,,,,,,,,,,,,,,,,,
,,,,,,,,,,,,l,1.076,Correct!,0,118,118,24,1,t4.png,t2.png,2,0.059078,36,female,2020-09-28_12h17.38.397,torte-2b,2020.1.3,MacIntel,60,13319,,,,,,,,,,,,,,,,,,,,,,,,,,,,,,,,,,,,,,,,,,,,,,,,,,,,,,,,,,,,,,,,,
,,,,,,,,,,,,l,1.274,Incorrect,0,119,119,100,1,t4.png,t5.png,1,0.90025,36,female,2020-09-28_12h17.38.397,torte-2b,2020.1.3,MacIntel,60,13319,,,,,,,,,,,,,,,,,,,,,,,,,,,,,,,,,,,,,,,,,,,,,,,,,,,,,,,,,,,,,,,,,
,,,,,,,,,,,,a,2.192,Correct!,,,,,,t4.png,t4.png,0,0.98115,36,female,2020-09-28_12h17.38.397,torte-2b,2020.1.3,MacIntel,60,13319,space,1.991,space,5.691,0,0,0,80,1,,,,,,,,,,,,,,,,,,,,,,,,,,,,,,,,,,,,,,,,,,,,,,,,,,,,,,,,
,,,,,,,,,,,,a,0.892,Correct!,,,,,,t5.png,t5.png,0,0.978,36,female,2020-09-28_12h17.38.397,torte-2b,2020.1.3,MacIntel,60,13319,,,,,0,1,1,117,1,,,,,,,,,,,,,,,,,,,,,,,,,,,,,,,,,,,,,,,,,,,,,,,,,,,,,,,,
,,,,,,,,,,,,a,0.726,Correct!,,,,,,t1.png,t1.png,0,0.978,36,female,2020-09-28_12h17.38.397,torte-2b,2020.1.3,MacIntel,60,13319,,,,,0,2,2,28,1,,,,,,,,,,,,,,,,,,,,,,,,,,,,,,,,,,,,,,,,,,,,,,,,,,,,,,,,
,,,,,,,,,,,,l,1.542,Incorrect,,,,,,t4.png,t5.png,1,0.90025,36,female,2020-09-28_12h17.38.397,torte-2b,2020.1.3,MacIntel,60,13319,,,,,0,3,3,58,1,,,,,,,,,,,,,,,,,,,,,,,,,,,,,,,,,,,,,,,,,,,,,,,,,,,,,,,,
,,,,,,,,,,,,a,0.837,Incorrect,,,,,,t4.png,t1.png,3,0.0000131,36,female,2020-09-28_12h17.38.397,torte-2b,2020.1.3,MacIntel,60,13319,,,,,0,4,4,42,1,,,,,,,,,,,,,,,,,,,,,,,,,,,,,,,,,,,,,,,,,,,,,,,,,,,,,,,,
,,,,,,,,,,,,l,1.622,Correct!,,,,,,t4.png,t1.png,3,0.0000131,36,female,2020-09-28_12h17.38.397,torte-2b,2020.1.3,MacIntel,60,13319,,,,,0,5,5,13,1,,,,,,,,,,,,,,,,,,,,,,,,,,,,,,,,,,,,,,,,,,,,,,,,,,,,,,,,
,,,,,,,,,,,,l,1.091,Correct!,,,,,,t1.png,t3.png,2,0.056466,36,female,2020-09-28_12h17.38.397,torte-2b,2020.1.3,MacIntel,60,13319,,,,,0,6,6,60,1,,,,,,,,,,,,,,,,,,,,,,,,,,,,,,,,,,,,,,,,,,,,,,,,,,,,,,,,
,,,,,,,,,,,,l,0.673,Correct!,,,,,,t3.png,t1.png,2,0.056466,36,female,2020-09-28_12h17.38.397,torte-2b,2020.1.3,MacIntel,60,13319,,,,,0,7,7,0,1,,,,,,,,,,,,,,,,,,,,,,,,,,,,,,,,,,,,,,,,,,,,,,,,,,,,,,,,
,,,,,,,,,,,,l,1.311,Incorrect,,,,,,t3.png,t2.png,1,0.90855,36,female,2020-09-28_12h17.38.397,torte-2b,2020.1.3,MacIntel,60,13319,,,,,0,8,8,53,1,,,,,,,,,,,,,,,,,,,,,,,,,,,,,,,,,,,,,,,,,,,,,,,,,,,,,,,,
,,,,,,,,,,,,a,1.042,Correct!,,,,,,t3.png,t2.png,1,0.90855,36,female,2020-09-28_12h17.38.397,torte-2b,2020.1.3,MacIntel,60,13319,,,,,0,9,9,97,1,,,,,,,,,,,,,,,,,,,,,,,,,,,,,,,,,,,,,,,,,,,,,,,,,,,,,,,,
,,,,,,,,,,,,a,1.37,Incorrect,,,,,,t3.png,t1.png,2,0.0565,36,female,2020-09-28_12h17.38.397,torte-2b,2020.1.3,MacIntel,60,13319,,,,,0,10,10,31,1,,,,,,,,,,,,,,,,,,,,,,,,,,,,,,,,,,,,,,,,,,,,,,,,,,,,,,,,
,,,,,,,,,,,,l,1.092,Correct!,,,,,,t4.png,t2.png,2,0.059078,36,female,2020-09-28_12h17.38.397,torte-2b,2020.1.3,MacIntel,60,13319,,,,,0,11,11,109,1,,,,,,,,,,,,,,,,,,,,,,,,,,,,,,,,,,,,,,,,,,,,,,,,,,,,,,,,
,,,,,,,,,,,,a,0.954,Correct!,,,,,,t2.png,t3.png,1,0.909,36,female,2020-09-28_12h17.38.397,torte-2b,2020.1.3,MacIntel,60,13319,,,,,0,12,12,74,1,,,,,,,,,,,,,,,,,,,,,,,,,,,,,,,,,,,,,,,,,,,,,,,,,,,,,,,,
,,,,,,,,,,,,l,1.308,Correct!,,,,,,t2.png,t4.png,2,0.059078,36,female,2020-09-28_12h17.38.397,torte-2b,2020.1.3,MacIntel,60,13319,,,,,0,13,13,11,1,,,,,,,,,,,,,,,,,,,,,,,,,,,,,,,,,,,,,,,,,,,,,,,,,,,,,,,,
,,,,,,,,,,,,a,1.003,Incorrect,,,,,,t2.png,t3.png,1,0.90855,36,female,2020-09-28_12h17.38.397,torte-2b,2020.1.3,MacIntel,60,13319,,,,,0,14,14,68,1,,,,,,,,,,,,,,,,,,,,,,,,,,,,,,,,,,,,,,,,,,,,,,,,,,,,,,,,
,,,,,,,,,,,,l,1.188,Correct!,,,,,,t2.png,t4.png,2,0.0591,36,female,2020-09-28_12h17.38.397,torte-2b,2020.1.3,MacIntel,60,13319,,,,,0,15,15,15,1,,,,,,,,,,,,,,,,,,,,,,,,,,,,,,,,,,,,,,,,,,,,,,,,,,,,,,,,
,,,,,,,,,,,,a,0.788,Correct!,,,,,,t5.png,t5.png,0,0.97829,36,female,2020-09-28_12h17.38.397,torte-2b,2020.1.3,MacIntel,60,13319,,,,,0,16,16,25,1,,,,,,,,,,,,,,,,,,,,,,,,,,,,,,,,,,,,,,,,,,,,,,,,,,,,,,,,
,,,,,,,,,,,,a,1.294,Correct!,,,,,,t2.png,t1.png,1,0.90025,36,female,2020-09-28_12h17.38.397,torte-2b,2020.1.3,MacIntel,60,13319,,,,,0,17,17,19,1,,,,,,,,,,,,,,,,,,,,,,,,,,,,,,,,,,,,,,,,,,,,,,,,,,,,,,,,
,,,,,,,,,,,,l,0.838,Correct!,,,,,,t4.png,t2.png,2,0.059078,36,female,2020-09-28_12h17.38.397,torte-2b,2020.1.3,MacIntel,60,13319,,,,,0,18,18,86,1,,,,,,,,,,,,,,,,,,,,,,,,,,,,,,,,,,,,,,,,,,,,,,,,,,,,,,,,
,,,,,,,,,,,,a,1.361,Correct!,,,,,,t2.png,t3.png,1,0.90855,36,female,2020-09-28_12h17.38.397,torte-2b,2020.1.3,MacIntel,60,13319,,,,,0,19,19,65,1,,,,,,,,,,,,,,,,,,,,,,,,,,,,,,,,,,,,,,,,,,,,,,,,,,,,,,,,
,,,,,,,,,,,,a,1.227,Incorrect,,,,,,t5.png,t3.png,2,0.056466,36,female,2020-09-28_12h17.38.397,torte-2b,2020.1.3,MacIntel,60,13319,,,,,0,20,20,38,1,,,,,,,,,,,,,,,,,,,,,,,,,,,,,,,,,,,,,,,,,,,,,,,,,,,,,,,,
,,,,,,,,,,,,l,1.058,Incorrect,,,,,,t5.png,t4.png,1,0.90025,36,female,2020-09-28_12h17.38.397,torte-2b,2020.1.3,MacIntel,60,13319,,,,,0,21,21,34,1,,,,,,,,,,,,,,,,,,,,,,,,,,,,,,,,,,,,,,,,,,,,,,,,,,,,,,,,
,,,,,,,,,,,,a,1.108,Correct!,,,,,,t4.png,t4.png,0,0.98115,36,female,2020-09-28_12h17.38.397,torte-2b,2020.1.3,MacIntel,60,13319,,,,,0,22,22,52,1,,,,,,,,,,,,,,,,,,,,,,,,,,,,,,,,,,,,,,,,,,,,,,,,,,,,,,,,
,,,,,,,,,,,,a,0.615,Correct!,,,,,,t1.png,t1.png,0,0.97829,36,female,2020-09-28_12h17.38.397,torte-2b,2020.1.3,MacIntel,60,13319,,,,,0,23,23,67,1,,,,,,,,,,,,,,,,,,,,,,,,,,,,,,,,,,,,,,,,,,,,,,,,,,,,,,,,
,,,,,,,,,,,,l,0.973,Incorrect,,,,,,t4.png,t3.png,1,0.90855,36,female,2020-09-28_12h17.38.397,torte-2b,2020.1.3,MacIntel,60,13319,,,,,0,24,24,35,1,,,,,,,,,,,,,,,,,,,,,,,,,,,,,,,,,,,,,,,,,,,,,,,,,,,,,,,,
,,,,,,,,,,,,l,1.076,Correct!,,,,,,t5.png,t3.png,2,0.0565,36,female,2020-09-28_12h17.38.397,torte-2b,2020.1.3,MacIntel,60,13319,,,,,0,25,25,39,1,,,,,,,,,,,,,,,,,,,,,,,,,,,,,,,,,,,,,,,,,,,,,,,,,,,,,,,,
,,,,,,,,,,,,l,0.97,Correct!,,,,,,t1.png,t5.png,4,9.55E-11,36,female,2020-09-28_12h17.38.397,torte-2b,2020.1.3,MacIntel,60,13319,,,,,0,26,26,16,1,,,,,,,,,,,,,,,,,,,,,,,,,,,,,,,,,,,,,,,,,,,,,,,,,,,,,,,,
,,,,,,,,,,,,a,0.945,Incorrect,,,,,,t4.png,t1.png,3,0.0000131,36,female,2020-09-28_12h17.38.397,torte-2b,2020.1.3,MacIntel,60,13319,,,,,0,27,27,48,1,,,,,,,,,,,,,,,,,,,,,,,,,,,,,,,,,,,,,,,,,,,,,,,,,,,,,,,,
,,,,,,,,,,,,a,0.776,Correct!,,,,,,t2.png,t2.png,0,0.981,36,female,2020-09-28_12h17.38.397,torte-2b,2020.1.3,MacIntel,60,13319,,,,,0,28,28,101,1,,,,,,,,,,,,,,,,,,,,,,,,,,,,,,,,,,,,,,,,,,,,,,,,,,,,,,,,
,,,,,,,,,,,,a,1.138,Incorrect,,,,,,t1.png,t4.png,3,0.0000131,36,female,2020-09-28_12h17.38.397,torte-2b,2020.1.3,MacIntel,60,13319,,,,,0,29,29,17,1,,,,,,,,,,,,,,,,,,,,,,,,,,,,,,,,,,,,,,,,,,,,,,,,,,,,,,,,
,,,,,,,,,,,,a,1.16,Incorrect,,,,,,t1.png,t4.png,3,0.0000131,36,female,2020-09-28_12h17.38.397,torte-2b,2020.1.3,MacIntel,60,13319,,,,,0,30,30,92,1,,,,,,,,,,,,,,,,,,,,,,,,,,,,,,,,,,,,,,,,,,,,,,,,,,,,,,,,
,,,,,,,,,,,,l,0.641,Correct!,,,,,,t2.png,t5.png,3,0.0000131,36,female,2020-09-28_12h17.38.397,torte-2b,2020.1.3,MacIntel,60,13319,,,,,0,31,31,8,1,,,,,,,,,,,,,,,,,,,,,,,,,,,,,,,,,,,,,,,,,,,,,,,,,,,,,,,,
,,,,,,,,,,,,a,1.04,Incorrect,,,,,,t3.png,t5.png,2,0.0565,36,female,2020-09-28_12h17.38.397,torte-2b,2020.1.3,MacIntel,60,13319,,,,,0,32,32,83,1,,,,,,,,,,,,,,,,,,,,,,,,,,,,,,,,,,,,,,,,,,,,,,,,,,,,,,,,
,,,,,,,,,,,,a,0.609,Correct!,,,,,,t1.png,t1.png,0,0.978,36,female,2020-09-28_12h17.38.397,torte-2b,2020.1.3,MacIntel,60,13319,,,,,0,33,33,54,1,,,,,,,,,,,,,,,,,,,,,,,,,,,,,,,,,,,,,,,,,,,,,,,,,,,,,,,,
,,,,,,,,,,,,a,0.776,Correct!,,,,,,t4.png,t4.png,0,0.98115,36,female,2020-09-28_12h17.38.397,torte-2b,2020.1.3,MacIntel,60,13319,,,,,0,34,34,21,1,,,,,,,,,,,,,,,,,,,,,,,,,,,,,,,,,,,,,,,,,,,,,,,,,,,,,,,,
,,,,,,,,,,,,a,1.956,Incorrect,,,,,,t5.png,t3.png,2,0.056466,36,female,2020-09-28_12h17.38.397,torte-2b,2020.1.3,MacIntel,60,13319,,,,,0,35,35,108,1,,,,,,,,,,,,,,,,,,,,,,,,,,,,,,,,,,,,,,,,,,,,,,,,,,,,,,,,
,,,,,,,,,,,,l,0.891,Correct!,,,,,,t2.png,t4.png,2,0.059078,36,female,2020-09-28_12h17.38.397,torte-2b,2020.1.3,MacIntel,60,13319,,,,,0,36,36,37,1,,,,,,,,,,,,,,,,,,,,,,,,,,,,,,,,,,,,,,,,,,,,,,,,,,,,,,,,
,,,,,,,,,,,,a,1.909,Correct!,,,,,,t4.png,t3.png,1,0.909,36,female,2020-09-28_12h17.38.397,torte-2b,2020.1.3,MacIntel,60,13319,,,,,0,37,37,46,1,,,,,,,,,,,,,,,,,,,,,,,,,,,,,,,,,,,,,,,,,,,,,,,,,,,,,,,,
,,,,,,,,,,,,a,1.041,Correct!,,,,,,t4.png,t3.png,1,0.90855,36,female,2020-09-28_12h17.38.397,torte-2b,2020.1.3,MacIntel,60,13319,,,,,0,38,38,45,1,,,,,,,,,,,,,,,,,,,,,,,,,,,,,,,,,,,,,,,,,,,,,,,,,,,,,,,,
,,,,,,,,,,,,l,1.31,Incorrect,,,,,,t1.png,t2.png,1,0.9,36,female,2020-09-28_12h17.38.397,torte-2b,2020.1.3,MacIntel,60,13319,,,,,0,39,39,1,1,,,,,,,,,,,,,,,,,,,,,,,,,,,,,,,,,,,,,,,,,,,,,,,,,,,,,,,,
,,,,,,,,,,,,a,1.056,Correct!,,,,,,t4.png,t4.png,0,0.98115,36,female,2020-09-28_12h17.38.397,torte-2b,2020.1.3,MacIntel,60,13319,,,,,0,40,40,79,1,,,,,,,,,,,,,,,,,,,,,,,,,,,,,,,,,,,,,,,,,,,,,,,,,,,,,,,,
,,,,,,,,,,,,a,1.558,Correct!,,,,,,t3.png,t4.png,1,0.909,36,female,2020-09-28_12h17.38.397,torte-2b,2020.1.3,MacIntel,60,13319,,,,,0,41,41,89,1,,,,,,,,,,,,,,,,,,,,,,,,,,,,,,,,,,,,,,,,,,,,,,,,,,,,,,,,
,,,,,,,,,,,,l,1.976,Incorrect,,,,,,t5.png,t4.png,1,0.9,36,female,2020-09-28_12h17.38.397,torte-2b,2020.1.3,MacIntel,60,13319,,,,,0,42,42,76,1,,,,,,,,,,,,,,,,,,,,,,,,,,,,,,,,,,,,,,,,,,,,,,,,,,,,,,,,
,,,,,,,,,,,,a,1.175,Incorrect,,,,,,t1.png,t4.png,3,0.0000131,36,female,2020-09-28_12h17.38.397,torte-2b,2020.1.3,MacIntel,60,13319,,,,,0,43,43,50,1,,,,,,,,,,,,,,,,,,,,,,,,,,,,,,,,,,,,,,,,,,,,,,,,,,,,,,,,
,,,,,,,,,,,,a,0.858,Correct!,,,,,,t3.png,t2.png,1,0.90855,36,female,2020-09-28_12h17.38.397,torte-2b,2020.1.3,MacIntel,60,13319,,,,,0,44,44,18,1,,,,,,,,,,,,,,,,,,,,,,,,,,,,,,,,,,,,,,,,,,,,,,,,,,,,,,,,
,,,,,,,,,,,,l,0.721,Correct!,,,,,,t1.png,t5.png,4,9.55E-11,36,female,2020-09-28_12h17.38.397,torte-2b,2020.1.3,MacIntel,60,13319,,,,,0,45,45,12,1,,,,,,,,,,,,,,,,,,,,,,,,,,,,,,,,,,,,,,,,,,,,,,,,,,,,,,,,
,,,,,,,,,,,,a,0.893,Correct!,,,,,,t2.png,t1.png,1,0.90025,36,female,2020-09-28_12h17.38.397,torte-2b,2020.1.3,MacIntel,60,13319,,,,,0,46,46,5,1,,,,,,,,,,,,,,,,,,,,,,,,,,,,,,,,,,,,,,,,,,,,,,,,,,,,,,,,
,,,,,,,,,,,,a,0.74,Correct!,,,,,,t5.png,t5.png,0,0.97829,36,female,2020-09-28_12h17.38.397,torte-2b,2020.1.3,MacIntel,60,13319,,,,,0,47,47,70,1,,,,,,,,,,,,,,,,,,,,,,,,,,,,,,,,,,,,,,,,,,,,,,,,,,,,,,,,
,,,,,,,,,,,,a,0.924,Incorrect,,,,,,t3.png,t1.png,2,0.056466,36,female,2020-09-28_12h17.38.397,torte-2b,2020.1.3,MacIntel,60,13319,,,,,0,48,48,64,1,,,,,,,,,,,,,,,,,,,,,,,,,,,,,,,,,,,,,,,,,,,,,,,,,,,,,,,,
,,,,,,,,,,,,a,1.142,Incorrect,,,,,,t2.png,t5.png,3,0.0000131,36,female,2020-09-28_12h17.38.397,torte-2b,2020.1.3,MacIntel,60,13319,,,,,0,49,49,66,1,,,,,,,,,,,,,,,,,,,,,,,,,,,,,,,,,,,,,,,,,,,,,,,,,,,,,,,,
,,,,,,,,,,,,l,1.66,Incorrect,,,,,,t4.png,t5.png,1,0.90025,36,female,2020-09-28_12h17.38.397,torte-2b,2020.1.3,MacIntel,60,13319,,,,,0,50,50,103,1,,,,,,,,,,,,,,,,,,,,,,,,,,,,,,,,,,,,,,,,,,,,,,,,,,,,,,,,
,,,,,,,,,,,,a,1.094,Correct!,,,,,,t1.png,t2.png,1,0.90025,36,female,2020-09-28_12h17.38.397,torte-2b,2020.1.3,MacIntel,60,13319,,,,,0,51,51,33,1,,,,,,,,,,,,,,,,,,,,,,,,,,,,,,,,,,,,,,,,,,,,,,,,,,,,,,,,
,,,,,,,,,,,,l,1.188,Correct!,,,,,,t5.png,t1.png,4,9.55E-11,36,female,2020-09-28_12h17.38.397,torte-2b,2020.1.3,MacIntel,60,13319,,,,,0,52,52,71,1,,,,,,,,,,,,,,,,,,,,,,,,,,,,,,,,,,,,,,,,,,,,,,,,,,,,,,,,
,,,,,,,,,,,,a,0.991,Incorrect,,,,,,t4.png,t1.png,3,0.0000131,36,female,2020-09-28_12h17.38.397,torte-2b,2020.1.3,MacIntel,60,13319,,,,,0,53,53,61,1,,,,,,,,,,,,,,,,,,,,,,,,,,,,,,,,,,,,,,,,,,,,,,,,,,,,,,,,
,,,,,,,,,,,,a,0.951,Correct!,,,,,,t3.png,t2.png,1,0.909,36,female,2020-09-28_12h17.38.397,torte-2b,2020.1.3,MacIntel,60,13319,,,,,0,54,54,23,1,,,,,,,,,,,,,,,,,,,,,,,,,,,,,,,,,,,,,,,,,,,,,,,,,,,,,,,,
,,,,,,,,,,,,a,1.105,Incorrect,,,,,,t2.png,t5.png,3,0.0000131,36,female,2020-09-28_12h17.38.397,torte-2b,2020.1.3,MacIntel,60,13319,,,,,0,55,55,95,1,,,,,,,,,,,,,,,,,,,,,,,,,,,,,,,,,,,,,,,,,,,,,,,,,,,,,,,,
,,,,,,,,,,,,a,1.04,Incorrect,,,,,,t5.png,t3.png,2,0.056466,36,female,2020-09-28_12h17.38.397,torte-2b,2020.1.3,MacIntel,60,13319,,,,,0,56,56,114,1,,,,,,,,,,,,,,,,,,,,,,,,,,,,,,,,,,,,,,,,,,,,,,,,,,,,,,,,
,,,,,,,,,,,,a,1.02,Incorrect,,,,,,t3.png,t5.png,2,0.056466,36,female,2020-09-28_12h17.38.397,torte-2b,2020.1.3,MacIntel,60,13319,,,,,0,57,57,44,1,,,,,,,,,,,,,,,,,,,,,,,,,,,,,,,,,,,,,,,,,,,,,,,,,,,,,,,,
,,,,,,,,,,,,l,1.126,Correct!,,,,,,t4.png,t2.png,2,0.059078,36,female,2020-09-28_12h17.38.397,torte-2b,2020.1.3,MacIntel,60,13319,,,,,0,58,58,88,1,,,,,,,,,,,,,,,,,,,,,,,,,,,,,,,,,,,,,,,,,,,,,,,,,,,,,,,,
,,,,,,,,,,,,a,0.908,Correct!,,,,,,t1.png,t2.png,1,0.90025,36,female,2020-09-28_12h17.38.397,torte-2b,2020.1.3,MacIntel,60,13319,,,,,0,59,59,72,1,,,,,,,,,,,,,,,,,,,,,,,,,,,,,,,,,,,,,,,,,,,,,,,,,,,,,,,,
,,,,,,,,,,,,a,1.144,Incorrect,,,,,,t4.png,t1.png,3,0.0000131,36,female,2020-09-28_12h17.38.397,torte-2b,2020.1.3,MacIntel,60,13319,,,,,0,60,60,93,1,,,,,,,,,,,,,,,,,,,,,,,,,,,,,,,,,,,,,,,,,,,,,,,,,,,,,,,,
,,,,,,,,,,,,a,0.875,Correct!,,,,,,t2.png,t2.png,0,0.98115,36,female,2020-09-28_12h17.38.397,torte-2b,2020.1.3,MacIntel,60,13319,,,,,0,61,61,7,1,,,,,,,,,,,,,,,,,,,,,,,,,,,,,,,,,,,,,,,,,,,,,,,,,,,,,,,,
,,,,,,,,,,,,l,1.059,Incorrect,,,,,,t4.png,t5.png,1,0.9,36,female,2020-09-28_12h17.38.397,torte-2b,2020.1.3,MacIntel,60,13319,,,,,0,62,62,115,1,,,,,,,,,,,,,,,,,,,,,,,,,,,,,,,,,,,,,,,,,,,,,,,,,,,,,,,,
,,,,,,,,,,,,l,1.087,Correct!,,,,,,t3.png,t5.png,2,0.056466,36,female,2020-09-28_12h17.38.397,torte-2b,2020.1.3,MacIntel,60,13319,,,,,0,63,63,6,1,,,,,,,,,,,,,,,,,,,,,,,,,,,,,,,,,,,,,,,,,,,,,,,,,,,,,,,,
,,,,,,,,,,,,a,1.162,Correct!,,,,,,t1.png,t3.png,2,0.056466,36,female,2020-09-28_12h17.38.397,torte-2b,2020.1.3,MacIntel,60,13319,,,,,0,64,64,99,1,,,,,,,,,,,,,,,,,,,,,,,,,,,,,,,,,,,,,,,,,,,,,,,,,,,,,,,,
,,,,,,,,,,,,l,1.271,Correct!,,,,,,t2.png,t4.png,2,0.059078,36,female,2020-09-28_12h17.38.397,torte-2b,2020.1.3,MacIntel,60,13319,,,,,0,65,65,77,1,,,,,,,,,,,,,,,,,,,,,,,,,,,,,,,,,,,,,,,,,,,,,,,,,,,,,,,,
,,,,,,,,,,,,a,0.92,Correct!,,,,,,t2.png,t1.png,1,0.90025,36,female,2020-09-28_12h17.38.397,torte-2b,2020.1.3,MacIntel,60,13319,,,,,0,66,66,62,1,,,,,,,,,,,,,,,,,,,,,,,,,,,,,,,,,,,,,,,,,,,,,,,,,,,,,,,,
,,,,,,,,,,,,a,0.709,Incorrect,,,,,,t1.png,t3.png,2,0.056466,36,female,2020-09-28_12h17.38.397,torte-2b,2020.1.3,MacIntel,60,13319,,,,,0,67,67,63,1,,,,,,,,,,,,,,,,,,,,,,,,,,,,,,,,,,,,,,,,,,,,,,,,,,,,,,,,
,,,,,,,,,,,,a,1.124,Incorrect,,,,,,t5.png,t2.png,3,0.0000131,36,female,2020-09-28_12h17.38.397,torte-2b,2020.1.3,MacIntel,60,13319,,,,,0,68,68,98,1,,,,,,,,,,,,,,,,,,,,,,,,,,,,,,,,,,,,,,,,,,,,,,,,,,,,,,,,
,,,,,,,,,,,,a,0.827,Correct!,,,,,,t2.png,t2.png,0,0.98115,36,female,2020-09-28_12h17.38.397,torte-2b,2020.1.3,MacIntel,60,13319,,,,,0,69,69,59,1,,,,,,,,,,,,,,,,,,,,,,,,,,,,,,,,,,,,,,,,,,,,,,,,,,,,,,,,
,,,,,,,,,,,,a,1.01,Incorrect,,,,,,t5.png,t2.png,3,0.0000131,36,female,2020-09-28_12h17.38.397,torte-2b,2020.1.3,MacIntel,60,13319,,,,,0,70,70,91,1,,,,,,,,,,,,,,,,,,,,,,,,,,,,,,,,,,,,,,,,,,,,,,,,,,,,,,,,
,,,,,,,,,,,,a,1.308,Incorrect,,,,,,t1.png,t4.png,3,0.0000131,36,female,2020-09-28_12h17.38.397,torte-2b,2020.1.3,MacIntel,60,13319,,,,,0,71,71,81,1,,,,,,,,,,,,,,,,,,,,,,,,,,,,,,,,,,,,,,,,,,,,,,,,,,,,,,,,
,,,,,,,,,,,,l,1.386,Incorrect,,,,,,t5.png,t4.png,1,0.90025,36,female,2020-09-28_12h17.38.397,torte-2b,2020.1.3,MacIntel,60,13319,,,,,0,72,72,27,1,,,,,,,,,,,,,,,,,,,,,,,,,,,,,,,,,,,,,,,,,,,,,,,,,,,,,,,,
,,,,,,,,,,,,a,1.154,Incorrect,,,,,,t2.png,t3.png,1,0.90855,36,female,2020-09-28_12h17.38.397,torte-2b,2020.1.3,MacIntel,60,13319,,,,,0,73,73,111,1,,,,,,,,,,,,,,,,,,,,,,,,,,,,,,,,,,,,,,,,,,,,,,,,,,,,,,,,
,,,,,,,,,,,,a,1.124,Incorrect,,,,,,t1.png,t4.png,3,0.0000131,36,female,2020-09-28_12h17.38.397,torte-2b,2020.1.3,MacIntel,60,13319,,,,,0,74,74,107,1,,,,,,,,,,,,,,,,,,,,,,,,,,,,,,,,,,,,,,,,,,,,,,,,,,,,,,,,
,,,,,,,,,,,,a,0.856,Incorrect,,,,,,t1.png,t2.png,1,0.90025,36,female,2020-09-28_12h17.38.397,torte-2b,2020.1.3,MacIntel,60,13319,,,,,0,75,75,112,1,,,,,,,,,,,,,,,,,,,,,,,,,,,,,,,,,,,,,,,,,,,,,,,,,,,,,,,,
,,,,,,,,,,,,l,0.67,Correct!,,,,,,t1.png,t5.png,4,9.55E-11,36,female,2020-09-28_12h17.38.397,torte-2b,2020.1.3,MacIntel,60,13319,,,,,0,76,76,41,1,,,,,,,,,,,,,,,,,,,,,,,,,,,,,,,,,,,,,,,,,,,,,,,,,,,,,,,,
,,,,,,,,,,,,a,1.006,Correct!,,,,,,t1.png,t2.png,1,0.90025,36,female,2020-09-28_12h17.38.397,torte-2b,2020.1.3,MacIntel,60,13319,,,,,0,77,77,105,1,,,,,,,,,,,,,,,,,,,,,,,,,,,,,,,,,,,,,,,,,,,,,,,,,,,,,,,,
,,,,,,,,,,,,l,0.869,Correct!,,,,,,t4.png,t2.png,2,0.059078,36,female,2020-09-28_12h17.38.397,torte-2b,2020.1.3,MacIntel,60,13319,,,,,0,78,78,110,1,,,,,,,,,,,,,,,,,,,,,,,,,,,,,,,,,,,,,,,,,,,,,,,,,,,,,,,,
,,,,,,,,,,,,a,0.941,Incorrect,,,,,,t2.png,t5.png,3,0.0000131,36,female,2020-09-28_12h17.38.397,torte-2b,2020.1.3,MacIntel,60,13319,,,,,0,79,79,104,1,,,,,,,,,,,,,,,,,,,,,,,,,,,,,,,,,,,,,,,,,,,,,,,,,,,,,,,,
,,,,,,,,,,,,a,0.673,Correct!,,,,,,t1.png,t1.png,0,0.97829,36,female,2020-09-28_12h17.38.397,torte-2b,2020.1.3,MacIntel,60,13319,,,,,0,80,80,78,1,,,,,,,,,,,,,,,,,,,,,,,,,,,,,,,,,,,,,,,,,,,,,,,,,,,,,,,,
,,,,,,,,,,,,a,1.155,Correct!,,,,,,t5.png,t4.png,1,0.90025,36,female,2020-09-28_12h17.38.397,torte-2b,2020.1.3,MacIntel,60,13319,,,,,0,81,81,26,1,,,,,,,,,,,,,,,,,,,,,,,,,,,,,,,,,,,,,,,,,,,,,,,,,,,,,,,,
,,,,,,,,,,,,a,0.673,Correct!,,,,,,t1.png,t1.png,0,0.97829,36,female,2020-09-28_12h17.38.397,torte-2b,2020.1.3,MacIntel,60,13319,,,,,0,82,82,9,1,,,,,,,,,,,,,,,,,,,,,,,,,,,,,,,,,,,,,,,,,,,,,,,,,,,,,,,,
,,,,,,,,,,,,a,0.803,Correct!,,,,,,t2.png,t2.png,0,0.98115,36,female,2020-09-28_12h17.38.397,torte-2b,2020.1.3,MacIntel,60,13319,,,,,0,83,83,2,1,,,,,,,,,,,,,,,,,,,,,,,,,,,,,,,,,,,,,,,,,,,,,,,,,,,,,,,,
,,,,,,,,,,,,a,0.957,Incorrect,,,,,,t1.png,t3.png,2,0.056466,36,female,2020-09-28_12h17.38.397,torte-2b,2020.1.3,MacIntel,60,13319,,,,,0,84,84,87,1,,,,,,,,,,,,,,,,,,,,,,,,,,,,,,,,,,,,,,,,,,,,,,,,,,,,,,,,
,,,,,,,,,,,,l,1.042,Correct!,,,,,,t5.png,t1.png,4,9.55E-11,36,female,2020-09-28_12h17.38.397,torte-2b,2020.1.3,MacIntel,60,13319,,,,,0,85,85,100,1,,,,,,,,,,,,,,,,,,,,,,,,,,,,,,,,,,,,,,,,,,,,,,,,,,,,,,,,
,,,,,,,,,,,,a,0.856,Correct!,,,,,,t2.png,t3.png,1,0.90855,36,female,2020-09-28_12h17.38.397,torte-2b,2020.1.3,MacIntel,60,13319,,,,,0,86,86,10,1,,,,,,,,,,,,,,,,,,,,,,,,,,,,,,,,,,,,,,,,,,,,,,,,,,,,,,,,
,,,,,,,,,,,,l,1.387,Correct!,,,,,,t5.png,t2.png,3,0.0000131,36,female,2020-09-28_12h17.38.397,torte-2b,2020.1.3,MacIntel,60,13319,,,,,0,87,87,51,1,,,,,,,,,,,,,,,,,,,,,,,,,,,,,,,,,,,,,,,,,,,,,,,,,,,,,,,,
,,,,,,,,,,,,l,0.774,Correct!,,,,,,t5.png,t1.png,4,9.55E-11,36,female,2020-09-28_12h17.38.397,torte-2b,2020.1.3,MacIntel,60,13319,,,,,0,88,88,43,1,,,,,,,,,,,,,,,,,,,,,,,,,,,,,,,,,,,,,,,,,,,,,,,,,,,,,,,,
,,,,,,,,,,,,a,0.703,Incorrect,,,,,,t3.png,t1.png,2,0.056466,36,female,2020-09-28_12h17.38.397,torte-2b,2020.1.3,MacIntel,60,13319,,,,,0,89,89,32,1,,,,,,,,,,,,,,,,,,,,,,,,,,,,,,,,,,,,,,,,,,,,,,,,,,,,,,,,
,,,,,,,,,,,,a,0.907,Correct!,,,,,,t3.png,t2.png,1,0.909,36,female,2020-09-28_12h17.38.397,torte-2b,2020.1.3,MacIntel,60,13319,,,,,0,90,90,3,1,,,,,,,,,,,,,,,,,,,,,,,,,,,,,,,,,,,,,,,,,,,,,,,,,,,,,,,,
,,,,,,,,,,,,a,1.173,Correct!,,,,,,t3.png,t4.png,1,0.90855,36,female,2020-09-28_12h17.38.397,torte-2b,2020.1.3,MacIntel,60,13319,,,,,0,91,91,96,1,,,,,,,,,,,,,,,,,,,,,,,,,,,,,,,,,,,,,,,,,,,,,,,,,,,,,,,,
,,,,,,,,,,,,a,1.125,Incorrect,,,,,,t5.png,t2.png,3,0.0000131,36,female,2020-09-28_12h17.38.397,torte-2b,2020.1.3,MacIntel,60,13319,,,,,0,92,92,116,1,,,,,,,,,,,,,,,,,,,,,,,,,,,,,,,,,,,,,,,,,,,,,,,,,,,,,,,,
,,,,,,,,,,,,a,1.287,Correct!,,,,,,t4.png,t3.png,1,0.909,36,female,2020-09-28_12h17.38.397,torte-2b,2020.1.3,MacIntel,60,13319,,,,,0,93,93,20,1,,,,,,,,,,,,,,,,,,,,,,,,,,,,,,,,,,,,,,,,,,,,,,,,,,,,,,,,
,,,,,,,,,,,,a,0.973,Correct!,,,,,,t5.png,t5.png,0,0.97829,36,female,2020-09-28_12h17.38.397,torte-2b,2020.1.3,MacIntel,60,13319,,,,,0,94,94,73,1,,,,,,,,,,,,,,,,,,,,,,,,,,,,,,,,,,,,,,,,,,,,,,,,,,,,,,,,
,,,,,,,,,,,,a,0.738,Correct!,,,,,,t2.png,t2.png,0,0.98115,36,female,2020-09-28_12h17.38.397,torte-2b,2020.1.3,MacIntel,60,13319,,,,,0,95,95,57,1,,,,,,,,,,,,,,,,,,,,,,,,,,,,,,,,,,,,,,,,,,,,,,,,,,,,,,,,
,,,,,,,,,,,,l,0.821,Incorrect,,,,,,t5.png,t4.png,1,0.9,36,female,2020-09-28_12h17.38.397,torte-2b,2020.1.3,MacIntel,60,13319,,,,,0,96,96,49,1,,,,,,,,,,,,,,,,,,,,,,,,,,,,,,,,,,,,,,,,,,,,,,,,,,,,,,,,
,,,,,,,,,,,,a,1.21,Correct!,,,,,,t4.png,t3.png,1,0.90855,36,female,2020-09-28_12h17.38.397,torte-2b,2020.1.3,MacIntel,60,13319,,,,,0,97,97,75,1,,,,,,,,,,,,,,,,,,,,,,,,,,,,,,,,,,,,,,,,,,,,,,,,,,,,,,,,
,,,,,,,,,,,,a,1.004,Incorrect,,,,,,t1.png,t3.png,2,0.056466,36,female,2020-09-28_12h17.38.397,torte-2b,2020.1.3,MacIntel,60,13319,,,,,0,98,98,69,1,,,,,,,,,,,,,,,,,,,,,,,,,,,,,,,,,,,,,,,,,,,,,,,,,,,,,,,,
,,,,,,,,,,,,a,0.99,Correct!,,,,,,t4.png,t5.png,1,0.90025,36,female,2020-09-28_12h17.38.397,torte-2b,2020.1.3,MacIntel,60,13319,,,,,0,99,99,47,1,,,,,,,,,,,,,,,,,,,,,,,,,,,,,,,,,,,,,,,,,,,,,,,,,,,,,,,,
,,,,,,,,,,,,a,0.737,Incorrect,,,,,,t3.png,t5.png,2,0.056466,36,female,2020-09-28_12h17.38.397,torte-2b,2020.1.3,MacIntel,60,13319,,,,,0,100,100,14,1,,,,,,,,,,,,,,,,,,,,,,,,,,,,,,,,,,,,,,,,,,,,,,,,,,,,,,,,
,,,,,,,,,,,,a,1.053,Correct!,,,,,,t2.png,t1.png,1,0.9,36,female,2020-09-28_12h17.38.397,torte-2b,2020.1.3,MacIntel,60,13319,,,,,0,101,101,118,1,,,,,,,,,,,,,,,,,,,,,,,,,,,,,,,,,,,,,,,,,,,,,,,,,,,,,,,,
,,,,,,,,,,,,a,0.691,Incorrect,,,,,,t2.png,t5.png,3,0.0000131,36,female,2020-09-28_12h17.38.397,torte-2b,2020.1.3,MacIntel,60,13319,,,,,0,102,102,40,1,,,,,,,,,,,,,,,,,,,,,,,,,,,,,,,,,,,,,,,,,,,,,,,,,,,,,,,,
,,,,,,,,,,,,a,0.658,Incorrect,,,,,,t5.png,t1.png,4,9.55E-11,36,female,2020-09-28_12h17.38.397,torte-2b,2020.1.3,MacIntel,60,13319,,,,,0,103,103,22,1,,,,,,,,,,,,,,,,,,,,,,,,,,,,,,,,,,,,,,,,,,,,,,,,,,,,,,,,
,,,,,,,,,,,,l,0.735,Correct!,,,,,,t1.png,t5.png,4,9.55E-11,36,female,2020-09-28_12h17.38.397,torte-2b,2020.1.3,MacIntel,60,13319,,,,,0,104,104,55,1,,,,,,,,,,,,,,,,,,,,,,,,,,,,,,,,,,,,,,,,,,,,,,,,,,,,,,,,
,,,,,,,,,,,,l,1.224,Correct!,,,,,,t2.png,t4.png,2,0.059078,36,female,2020-09-28_12h17.38.397,torte-2b,2020.1.3,MacIntel,60,13319,,,,,0,105,105,24,1,,,,,,,,,,,,,,,,,,,,,,,,,,,,,,,,,,,,,,,,,,,,,,,,,,,,,,,,
,,,,,,,,,,,,a,0.736,Correct!,,,,,,t2.png,t1.png,1,0.90025,36,female,2020-09-28_12h17.38.397,torte-2b,2020.1.3,MacIntel,60,13319,,,,,0,106,106,4,1,,,,,,,,,,,,,,,,,,,,,,,,,,,,,,,,,,,,,,,,,,,,,,,,,,,,,,,,
,,,,,,,,,,,,l,0.927,Correct!,,,,,,t5.png,t1.png,4,9.55E-11,36,female,2020-09-28_12h17.38.397,torte-2b,2020.1.3,MacIntel,60,13319,,,,,0,107,107,102,1,,,,,,,,,,,,,,,,,,,,,,,,,,,,,,,,,,,,,,,,,,,,,,,,,,,,,,,,
,,,,,,,,,,,,a,1.211,Correct!,,,,,,t3.png,t4.png,1,0.909,36,female,2020-09-28_12h17.38.397,torte-2b,2020.1.3,MacIntel,60,13319,,,,,0,108,108,82,1,,,,,,,,,,,,,,,,,,,,,,,,,,,,,,,,,,,,,,,,,,,,,,,,,,,,,,,,
,,,,,,,,,,,,a,0.922,Correct!,,,,,,t4.png,t5.png,1,0.90025,36,female,2020-09-28_12h17.38.397,torte-2b,2020.1.3,MacIntel,60,13319,,,,,0,109,109,113,1,,,,,,,,,,,,,,,,,,,,,,,,,,,,,,,,,,,,,,,,,,,,,,,,,,,,,,,,
,,,,,,,,,,,,l,1.039,Correct!,,,,,,t4.png,t2.png,2,0.0591,36,female,2020-09-28_12h17.38.397,torte-2b,2020.1.3,MacIntel,60,13319,,,,,0,110,110,36,1,,,,,,,,,,,,,,,,,,,,,,,,,,,,,,,,,,,,,,,,,,,,,,,,,,,,,,,,
,,,,,,,,,,,,a,0.909,Correct!,,,,,,t5.png,t5.png,0,0.97829,36,female,2020-09-28_12h17.38.397,torte-2b,2020.1.3,MacIntel,60,13319,,,,,0,111,111,94,1,,,,,,,,,,,,,,,,,,,,,,,,,,,,,,,,,,,,,,,,,,,,,,,,,,,,,,,,
,,,,,,,,,,,,a,0.943,Incorrect,,,,,,t3.png,t1.png,2,0.056466,36,female,2020-09-28_12h17.38.397,torte-2b,2020.1.3,MacIntel,60,13319,,,,,0,112,112,29,1,,,,,,,,,,,,,,,,,,,,,,,,,,,,,,,,,,,,,,,,,,,,,,,,,,,,,,,,
,,,,,,,,,,,,a,0.724,Incorrect,,,,,,t5.png,t3.png,2,0.056466,36,female,2020-09-28_12h17.38.397,torte-2b,2020.1.3,MacIntel,60,13319,,,,,0,113,113,56,1,,,,,,,,,,,,,,,,,,,,,,,,,,,,,,,,,,,,,,,,,,,,,,,,,,,,,,,,
,,,,,,,,,,,,l,0.769,Correct!,,,,,,t1.png,t5.png,4,9.55E-11,36,female,2020-09-28_12h17.38.397,torte-2b,2020.1.3,MacIntel,60,13319,,,,,0,114,114,85,1,,,,,,,,,,,,,,,,,,,,,,,,,,,,,,,,,,,,,,,,,,,,,,,,,,,,,,,,
,,,,,,,,,,,,a,0.824,Correct!,,,,,,t4.png,t4.png,0,0.98115,36,female,2020-09-28_12h17.38.397,torte-2b,2020.1.3,MacIntel,60,13319,,,,,0,115,115,90,1,,,,,,,,,,,,,,,,,,,,,,,,,,,,,,,,,,,,,,,,,,,,,,,,,,,,,,,,
,,,,,,,,,,,,a,1.678,Incorrect,,,,,,t5.png,t2.png,3,0.0000131,36,female,2020-09-28_12h17.38.397,torte-2b,2020.1.3,MacIntel,60,13319,,,,,0,116,116,119,1,,,,,,,,,,,,,,,,,,,,,,,,,,,,,,,,,,,,,,,,,,,,,,,,,,,,,,,,
,,,,,,,,,,,,a,1.041,Correct!,,,,,,t3.png,t4.png,1,0.90855,36,female,2020-09-28_12h17.38.397,torte-2b,2020.1.3,MacIntel,60,13319,,,,,0,117,117,84,1,,,,,,,,,,,,,,,,,,,,,,,,,,,,,,,,,,,,,,,,,,,,,,,,,,,,,,,,
,,,,,,,,,,,,a,0.724,Incorrect,,,,,,t3.png,t5.png,2,0.0565,36,female,2020-09-28_12h17.38.397,torte-2b,2020.1.3,MacIntel,60,13319,,,,,0,118,118,30,1,,,,,,,,,,,,,,,,,,,,,,,,,,,,,,,,,,,,,,,,,,,,,,,,,,,,,,,,
,,,,,,,,,,,,a,0.842,Correct!,,,,,,t3.png,t4.png,1,0.909,36,female,2020-09-28_12h17.38.397,torte-2b,2020.1.3,MacIntel,60,13319,,,,,0,119,119,106,1,,,,,,,,,,,,,,,,,,,,,,,,,,,,,,,,,,,,,,,,,,,,,,,,,,,,,,,,
,,,,,,,,,,,,,,,,,,,,,,,,36,female,2020-09-28_12h17.38.397,torte-2b,2020.1.3,MacIntel,60,13319,space,1.439,,,,,,,,space,9.695,,0,0,0,0,1,6,,,,,,,,,,,,,,,,,,,,,,,,,,,,,,,,,,,,,,,,,,,,,,,
,,,,,,,,,,,,,,,,,,,,,,,,36,female,2020-09-28_12h17.38.397,torte-2b,2020.1.3,MacIntel,60,13319,,,,,,,,,,,,,0,1,1,1,1,7,,,,,,,,,,,,,,,,,,,,,,,,,,,,,,,,,,,,,,,,,,,,,,,
,,,,,,,,,,,,,,,,,,,,,,,,36,female,2020-09-28_12h17.38.397,torte-2b,2020.1.3,MacIntel,60,13319,,,,,,,,,,,,space,0,2,2,2,1,6,0.305,,,,,,,,,,,,,,,,,,,,,,,,,,,,,,,,,,,,,,,,,,,,,,
,,,,,,,,,,,,,,,,,,,,,,,,36,female,2020-09-28_12h17.38.397,torte-2b,2020.1.3,MacIntel,60,13319,,,,,,,,,,,,space,0,3,3,3,1,7,0.576,,,,,,,,,,,,,,,,,,,,,,,,,,,,,,,,,,,,,,,,,,,,,,
,,,,,,,,,,,,,,,,,,,,,,,,36,female,2020-09-28_12h17.38.397,torte-2b,2020.1.3,MacIntel,60,13319,,,,,,,,,,,,,0,4,4,4,1,5,,,,,,,,,,,,,,,,,,,,,,,,,,,,,,,,,,,,,,,,,,,,,,,
,,,,,,,,,,,,,,,,,,,,,,,,36,female,2020-09-28_12h17.38.397,torte-2b,2020.1.3,MacIntel,60,13319,,,,,,,,,,,,space,0,5,5,5,1,7,0.308,,,,,,,,,,,,,,,,,,,,,,,,,,,,,,,,,,,,,,,,,,,,,,
,,,,,,,,,,,,,,,,,,,,,,,,36,female,2020-09-28_12h17.38.397,torte-2b,2020.1.3,MacIntel,60,13319,,,,,,,,,,,,,0,6,6,6,1,2,,,,,,,,,,,,,,,,,,,,,,,,,,,,,,,,,,,,,,,,,,,,,,,
,,,,,,,,,,,,,,,,,,,,,,,,36,female,2020-09-28_12h17.38.397,torte-2b,2020.1.3,MacIntel,60,13319,,,,,,,,,,,,,0,7,7,7,1,4,,,,,,,,,,,,,,,,,,,,,,,,,,,,,,,,,,,,,,,,,,,,,,,
,,,,,,,,,,,,,,,,,,,,,,,,36,female,2020-09-28_12h17.38.397,torte-2b,2020.1.3,MacIntel,60,13319,,,,,,,,,,,,,0,8,8,8,1,7,,,,,,,,,,,,,,,,,,,,,,,,,,,,,,,,,,,,,,,,,,,,,,,
,,,,,,,,,,,,,,,,,,,,,,,,36,female,2020-09-28_12h17.38.397,torte-2b,2020.1.3,MacIntel,60,13319,,,,,,,,,,,,space,0,9,9,9,1,4,0.321,,,,,,,,,,,,,,,,,,,,,,,,,,,,,,,,,,,,,,,,,,,,,,
,,,,,,,,,,,,,,,,,,,,,,,,36,female,2020-09-28_12h17.38.397,torte-2b,2020.1.3,MacIntel,60,13319,,,,,,,,,,,,,0,10,10,10,1,7,,,,,,,,,,,,,,,,,,,,,,,,,,,,,,,,,,,,,,,,,,,,,,,
,,,,,,,,,,,,,,,,,,,,,,,,36,female,2020-09-28_12h17.38.397,torte-2b,2020.1.3,MacIntel,60,13319,,,,,,,,,,,,space,0,11,11,11,1,7,0.469,,,,,,,,,,,,,,,,,,,,,,,,,,,,,,,,,,,,,,,,,,,,,,
,,,,,,,,,,,,,,,,,,,,,,,,36,female,2020-09-28_12h17.38.397,torte-2b,2020.1.3,MacIntel,60,13319,,,,,,,,,,,,space,0,12,12,12,1,7,0.454,,,,,,,,,,,,,,,,,,,,,,,,,,,,,,,,,,,,,,,,,,,,,,
,,,,,,,,,,,,,,,,,,,,,,,,36,female,2020-09-28_12h17.38.397,torte-2b,2020.1.3,MacIntel,60,13319,,,,,,,,,,,,,0,13,13,13,1,4,,,,,,,,,,,,,,,,,,,,,,,,,,,,,,,,,,,,,,,,,,,,,,,
,,,,,,,,,,,,,,,,,,,,,,,,36,female,2020-09-28_12h17.38.397,torte-2b,2020.1.3,MacIntel,60,13319,,,,,,,,,,,,,0,14,14,14,1,6,,,,,,,,,,,,,,,,,,,,,,,,,,,,,,,,,,,,,,,,,,,,,,,
,,,,,,,,,,,,,,,,,,,,,,,,36,female,2020-09-28_12h17.38.397,torte-2b,2020.1.3,MacIntel,60,13319,,,,,,,,,,,,space,0,15,15,15,1,4,0.405,,,,,,,,,,,,,,,,,,,,,,,,,,,,,,,,,,,,,,,,,,,,,,
,,,,,,,,,,,,,,,,,,,,,,,,36,female,2020-09-28_12h17.38.397,torte-2b,2020.1.3,MacIntel,60,13319,,,,,,,,,,,,space,0,16,16,16,1,6,0.57,,,,,,,,,,,,,,,,,,,,,,,,,,,,,,,,,,,,,,,,,,,,,,
,,,,,,,,,,,,,,,,,,,,,,,,36,female,2020-09-28_12h17.38.397,torte-2b,2020.1.3,MacIntel,60,13319,,,,,,,,,,,,,0,17,17,17,1,7,,,,,,,,,,,,,,,,,,,,,,,,,,,,,,,,,,,,,,,,,,,,,,,
,,,,,,,,,,,,,,,,,,,,,,,,36,female,2020-09-28_12h17.38.397,torte-2b,2020.1.3,MacIntel,60,13319,,,,,,,,,,,,space,0,18,18,18,1,6,0.287,,,,,,,,,,,,,,,,,,,,,,,,,,,,,,,,,,,,,,,,,,,,,,
,,,,,,,,,,,,,,,,,,,,,,,,36,female,2020-09-28_12h17.38.397,torte-2b,2020.1.3,MacIntel,60,13319,,,,,,,,,,,,space,0,19,19,19,1,7,0.574,,,,,,,,,,,,,,,,,,,,,,,,,,,,,,,,,,,,,,,,,,,,,,
,,,,,,,,,,,,,,,,,,,,,,,,36,female,2020-09-28_12h17.38.397,torte-2b,2020.1.3,MacIntel,60,13319,,,,,,,,,,,,,0,20,20,20,1,5,,,,,,,,,,,,,,,,,,,,,,,,,,,,,,,,,,,,,,,,,,,,,,,
,,,,,,,,,,,,,,,,,,,,,,,,36,female,2020-09-28_12h17.38.397,torte-2b,2020.1.3,MacIntel,60,13319,,,,,,,,,,,,,0,21,21,21,1,1,,,,,,,,,,,,,,,,,,,,,,,,,,,,,,,,,,,,,,,,,,,,,,,
,,,,,,,,,,,,,,,,,,,,,,,,36,female,2020-09-28_12h17.38.397,torte-2b,2020.1.3,MacIntel,60,13319,,,,,,,,,,,,space,0,22,22,22,1,6,0.305,,,,,,,,,,,,,,,,,,,,,,,,,,,,,,,,,,,,,,,,,,,,,,
,,,,,,,,,,,,,,,,,,,,,,,,36,female,2020-09-28_12h17.38.397,torte-2b,2020.1.3,MacIntel,60,13319,,,,,,,,,,,,space,0,23,23,23,1,1,0.456,,,,,,,,,,,,,,,,,,,,,,,,,,,,,,,,,,,,,,,,,,,,,,
,,,,,,,,,,,,,,,,,,,,,,,,36,female,2020-09-28_12h17.38.397,torte-2b,2020.1.3,MacIntel,60,13319,,,,,,,,,,,,,0,24,24,24,1,5,,,,,,,,,,,,,,,,,,,,,,,,,,,,,,,,,,,,,,,,,,,,,,,
,,,,,,,,,,,,,,,,,,,,,,,,36,female,2020-09-28_12h17.38.397,torte-2b,2020.1.3,MacIntel,60,13319,,,,,,,,,,,,,0,25,25,25,1,6,,,,,,,,,,,,,,,,,,,,,,,,,,,,,,,,,,,,,,,,,,,,,,,
,,,,,,,,,,,,,,,,,,,,,,,,36,female,2020-09-28_12h17.38.397,torte-2b,2020.1.3,MacIntel,60,13319,,,,,,,,,,,,,0,26,26,26,1,6,,,,,,,,,,,,,,,,,,,,,,,,,,,,,,,,,,,,,,,,,,,,,,,
,,,,,,,,,,,,,,,,,,,,,,,,36,female,2020-09-28_12h17.38.397,torte-2b,2020.1.3,MacIntel,60,13319,,,,,,,,,,,,space,0,27,27,27,1,6,0.302,,,,,,,,,,,,,,,,,,,,,,,,,,,,,,,,,,,,,,,,,,,,,,
,,,,,,,,,,,,,,,,,,,,,,,,36,female,2020-09-28_12h17.38.397,torte-2b,2020.1.3,MacIntel,60,13319,,,,,,,,,,,,,0,28,28,28,1,5,,,,,,,,,,,,,,,,,,,,,,,,,,,,,,,,,,,,,,,,,,,,,,,
,,,,,,,,,,,,,,,,,,,,,,,,36,female,2020-09-28_12h17.38.397,torte-2b,2020.1.3,MacIntel,60,13319,,,,,,,,,,,,,0,29,29,29,1,2,,,,,,,,,,,,,,,,,,,,,,,,,,,,,,,,,,,,,,,,,,,,,,,
,,,,,,,,,,,,,,,,,,,,,,,,36,female,2020-09-28_12h17.38.397,torte-2b,2020.1.3,MacIntel,60,13319,,,,,,,,,,,,space,0,30,30,30,1,5,0.304,,,,,,,,,,,,,,,,,,,,,,,,,,,,,,,,,,,,,,,,,,,,,,
,,,,,,,,,,,,,,,,,,,,,,,,36,female,2020-09-28_12h17.38.397,torte-2b,2020.1.3,MacIntel,60,13319,,,,,,,,,,,,space,0,31,31,31,1,2,0.473,,,,,,,,,,,,,,,,,,,,,,,,,,,,,,,,,,,,,,,,,,,,,,
,,,,,,,,,,,,,,,,,,,,,,,,36,female,2020-09-28_12h17.38.397,torte-2b,2020.1.3,MacIntel,60,13319,,,,,,,,,,,,,0,32,32,32,1,5,,,,,,,,,,,,,,,,,,,,,,,,,,,,,,,,,,,,,,,,,,,,,,,
,,,,,,,,,,,,,,,,,,,,,,,,36,female,2020-09-28_12h17.38.397,torte-2b,2020.1.3,MacIntel,60,13319,,,,,,,,,,,,,0,33,33,33,1,1,,,,,,,,,,,,,,,,,,,,,,,,,,,,,,,,,,,,,,,,,,,,,,,
,,,,,,,,,,,,,,,,,,,,,,,,36,female,2020-09-28_12h17.38.397,torte-2b,2020.1.3,MacIntel,60,13319,,,,,,,,,,,,,0,34,34,34,1,1,,,,,,,,,,,,,,,,,,,,,,,,,,,,,,,,,,,,,,,,,,,,,,,
,,,,,,,,,,,,,,,,,,,,,,,,36,female,2020-09-28_12h17.38.397,torte-2b,2020.1.3,MacIntel,60,13319,,,,,,,,,,,,,,,,,,2,,0,0,0,0,1,,,,,,,,,,,,,,,,,,,,,,,,,,,,,,,,,,,,,,,,,
,,,,,,,,,,,,,,,,,,,,,,,,36,female,2020-09-28_12h17.38.397,torte-2b,2020.1.3,MacIntel,60,13319,,,,,,,,,,,,,,,,,,2,,0,1,1,1,1,,,,,,,,,,,,,,,,,,,,,,,,,,,,,,,,,,,,,,,,,
,,,,,,,,,,,,,,,,,,,,,,,,36,female,2020-09-28_12h17.38.397,torte-2b,2020.1.3,MacIntel,60,13319,,,,,,,,,,,,space,,,,,,6,0.309,0,2,2,2,1,,,,,,,,,,,,,,,,,,,,,,,,,,,,,,,,,,,,,,,,,
,,,,,,,,,,,,,,,,,,,,,,,,36,female,2020-09-28_12h17.38.397,torte-2b,2020.1.3,MacIntel,60,13319,,,,,,,,,,,,space,,,,,,2,0.604,0,3,3,3,1,,,,,,,,,,,,,,,,,,,,,,,,,,,,,,,,,,,,,,,,,
,,,,,,,,,,,,,,,,,,,,,,,,36,female,2020-09-28_12h17.38.397,torte-2b,2020.1.3,MacIntel,60,13319,,,,,,,,,,,,space,,,,,,6,0.372,0,4,4,4,1,,,,,,,,,,,,,,,,,,,,,,,,,,,,,,,,,,,,,,,,,
,,,,,,,,,,,,,,,,,,,,,,,,36,female,2020-09-28_12h17.38.397,torte-2b,2020.1.3,MacIntel,60,13319,,,,,,,,,,,,space,,,,,,2,0.373,0,5,5,5,1,,,,,,,,,,,,,,,,,,,,,,,,,,,,,,,,,,,,,,,,,
,,,,,,,,,,,,,,,,,,,,,,,,36,female,2020-09-28_12h17.38.397,torte-2b,2020.1.3,MacIntel,60,13319,,,,,,,,,,,,,,,,,,7,,0,6,6,6,1,,,,,,,,,,,,,,,,,,,,,,,,,,,,,,,,,,,,,,,,,
,,,,,,,,,,,,,,,,,,,,,,,,36,female,2020-09-28_12h17.38.397,torte-2b,2020.1.3,MacIntel,60,13319,,,,,,,,,,,,space,,,,,,2,0.342,0,7,7,7,1,,,,,,,,,,,,,,,,,,,,,,,,,,,,,,,,,,,,,,,,,
,,,,,,,,,,,,,,,,,,,,,,,,36,female,2020-09-28_12h17.38.397,torte-2b,2020.1.3,MacIntel,60,13319,,,,,,,,,,,,space,,,,,,7,0.32,0,8,8,8,1,,,,,,,,,,,,,,,,,,,,,,,,,,,,,,,,,,,,,,,,,
,,,,,,,,,,,,,,,,,,,,,,,,36,female,2020-09-28_12h17.38.397,torte-2b,2020.1.3,MacIntel,60,13319,,,,,,,,,,,,space,,,,,,2,0.407,0,9,9,9,1,,,,,,,,,,,,,,,,,,,,,,,,,,,,,,,,,,,,,,,,,
,,,,,,,,,,,,,,,,,,,,,,,,36,female,2020-09-28_12h17.38.397,torte-2b,2020.1.3,MacIntel,60,13319,,,,,,,,,,,,,,,,,,5,,0,10,10,10,1,,,,,,,,,,,,,,,,,,,,,,,,,,,,,,,,,,,,,,,,,
,,,,,,,,,,,,,,,,,,,,,,,,36,female,2020-09-28_12h17.38.397,torte-2b,2020.1.3,MacIntel,60,13319,,,,,,,,,,,,,,,,,,4,,0,11,11,11,1,,,,,,,,,,,,,,,,,,,,,,,,,,,,,,,,,,,,,,,,,
,,,,,,,,,,,,,,,,,,,,,,,,36,female,2020-09-28_12h17.38.397,torte-2b,2020.1.3,MacIntel,60,13319,,,,,,,,,,,,space,,,,,,5,0.317,0,12,12,12,1,,,,,,,,,,,,,,,,,,,,,,,,,,,,,,,,,,,,,,,,,
,,,,,,,,,,,,,,,,,,,,,,,,36,female,2020-09-28_12h17.38.397,torte-2b,2020.1.3,MacIntel,60,13319,,,,,,,,,,,,,,,,,,6,,0,13,13,13,1,,,,,,,,,,,,,,,,,,,,,,,,,,,,,,,,,,,,,,,,,
,,,,,,,,,,,,,,,,,,,,,,,,36,female,2020-09-28_12h17.38.397,torte-2b,2020.1.3,MacIntel,60,13319,,,,,,,,,,,,space,,,,,,5,0.403,0,14,14,14,1,,,,,,,,,,,,,,,,,,,,,,,,,,,,,,,,,,,,,,,,,
,,,,,,,,,,,,,,,,,,,,,,,,36,female,2020-09-28_12h17.38.397,torte-2b,2020.1.3,MacIntel,60,13319,,,,,,,,,,,,,,,,,,4,,0,15,15,15,1,,,,,,,,,,,,,,,,,,,,,,,,,,,,,,,,,,,,,,,,,
,,,,,,,,,,,,,,,,,,,,,,,,36,female,2020-09-28_12h17.38.397,torte-2b,2020.1.3,MacIntel,60,13319,,,,,,,,,,,,space,,,,,,5,0.308,0,16,16,16,1,,,,,,,,,,,,,,,,,,,,,,,,,,,,,,,,,,,,,,,,,
,,,,,,,,,,,,,,,,,,,,,,,,36,female,2020-09-28_12h17.38.397,torte-2b,2020.1.3,MacIntel,60,13319,,,,,,,,,,,,,,,,,,3,,0,17,17,17,1,,,,,,,,,,,,,,,,,,,,,,,,,,,,,,,,,,,,,,,,,
,,,,,,,,,,,,,,,,,,,,,,,,36,female,2020-09-28_12h17.38.397,torte-2b,2020.1.3,MacIntel,60,13319,,,,,,,,,,,,,,,,,,6,,0,18,18,18,1,,,,,,,,,,,,,,,,,,,,,,,,,,,,,,,,,,,,,,,,,
,,,,,,,,,,,,,,,,,,,,,,,,36,female,2020-09-28_12h17.38.397,torte-2b,2020.1.3,MacIntel,60,13319,,,,,,,,,,,,,,,,,,6,,0,19,19,19,1,,,,,,,,,,,,,,,,,,,,,,,,,,,,,,,,,,,,,,,,,
,,,,,,,,,,,,,,,,,,,,,,,,36,female,2020-09-28_12h17.38.397,torte-2b,2020.1.3,MacIntel,60,13319,,,,,,,,,,,,space,,,,,,6,0.406,0,20,20,20,1,,,,,,,,,,,,,,,,,,,,,,,,,,,,,,,,,,,,,,,,,
,,,,,,,,,,,,,,,,,,,,,,,,36,female,2020-09-28_12h17.38.397,torte-2b,2020.1.3,MacIntel,60,13319,,,,,,,,,,,,,,,,,,4,,0,21,21,21,1,,,,,,,,,,,,,,,,,,,,,,,,,,,,,,,,,,,,,,,,,
,,,,,,,,,,,,,,,,,,,,,,,,36,female,2020-09-28_12h17.38.397,torte-2b,2020.1.3,MacIntel,60,13319,,,,,,,,,,,,space,,,,,,6,0.407,0,22,22,22,1,,,,,,,,,,,,,,,,,,,,,,,,,,,,,,,,,,,,,,,,,
,,,,,,,,,,,,,,,,,,,,,,,,36,female,2020-09-28_12h17.38.397,torte-2b,2020.1.3,MacIntel,60,13319,,,,,,,,,,,,space,,,,,,4,0.375,0,23,23,23,1,,,,,,,,,,,,,,,,,,,,,,,,,,,,,,,,,,,,,,,,,
,,,,,,,,,,,,,,,,,,,,,,,,36,female,2020-09-28_12h17.38.397,torte-2b,2020.1.3,MacIntel,60,13319,,,,,,,,,,,,space,,,,,,6,0.474,0,24,24,24,1,,,,,,,,,,,,,,,,,,,,,,,,,,,,,,,,,,,,,,,,,
,,,,,,,,,,,,,,,,,,,,,,,,36,female,2020-09-28_12h17.38.397,torte-2b,2020.1.3,MacIntel,60,13319,,,,,,,,,,,,space,,,,,,6,0.72,0,25,25,25,1,,,,,,,,,,,,,,,,,,,,,,,,,,,,,,,,,,,,,,,,,
,,,,,,,,,,,,,,,,,,,,,,,,36,female,2020-09-28_12h17.38.397,torte-2b,2020.1.3,MacIntel,60,13319,,,,,,,,,,,,,,,,,,7,,0,26,26,26,1,,,,,,,,,,,,,,,,,,,,,,,,,,,,,,,,,,,,,,,,,
,,,,,,,,,,,,,,,,,,,,,,,,36,female,2020-09-28_12h17.38.397,torte-2b,2020.1.3,MacIntel,60,13319,,,,,,,,,,,,,,,,,,1,,0,27,27,27,1,,,,,,,,,,,,,,,,,,,,,,,,,,,,,,,,,,,,,,,,,
,,,,,,,,,,,,,,,,,,,,,,,,36,female,2020-09-28_12h17.38.397,torte-2b,2020.1.3,MacIntel,60,13319,,,,,,,,,,,,space,,,,,,7,0.323,0,28,28,28,1,,,,,,,,,,,,,,,,,,,,,,,,,,,,,,,,,,,,,,,,,
,,,,,,,,,,,,,,,,,,,,,,,,36,female,2020-09-28_12h17.38.397,torte-2b,2020.1.3,MacIntel,60,13319,,,,,,,,,,,,,,,,,,4,,0,29,29,29,1,,,,,,,,,,,,,,,,,,,,,,,,,,,,,,,,,,,,,,,,,
,,,,,,,,,,,,,,,,,,,,,,,,36,female,2020-09-28_12h17.38.397,torte-2b,2020.1.3,MacIntel,60,13319,,,,,,,,,,,,space,,,,,,7,0.372,0,30,30,30,1,,,,,,,,,,,,,,,,,,,,,,,,,,,,,,,,,,,,,,,,,
,,,,,,,,,,,,,,,,,,,,,,,,36,female,2020-09-28_12h17.38.397,torte-2b,2020.1.3,MacIntel,60,13319,,,,,,,,,,,,,,,,,,3,,0,31,31,31,1,,,,,,,,,,,,,,,,,,,,,,,,,,,,,,,,,,,,,,,,,
,,,,,,,,,,,,,,,,,,,,,,,,36,female,2020-09-28_12h17.38.397,torte-2b,2020.1.3,MacIntel,60,13319,,,,,,,,,,,,,,,,,,2,,0,32,32,32,1,,,,,,,,,,,,,,,,,,,,,,,,,,,,,,,,,,,,,,,,,
,,,,,,,,,,,,,,,,,,,,,,,,36,female,2020-09-28_12h17.38.397,torte-2b,2020.1.3,MacIntel,60,13319,,,,,,,,,,,,,,,,,,6,,0,33,33,33,1,,,,,,,,,,,,,,,,,,,,,,,,,,,,,,,,,,,,,,,,,
,,,,,,,,,,,,,,,,,,,,,,,,36,female,2020-09-28_12h17.38.397,torte-2b,2020.1.3,MacIntel,60,13319,,,,,,,,,,,,,,,,,,3,,0,34,34,34,1,,,,,,,,,,,,,,,,,,,,,,,,,,,,,,,,,,,,,,,,,
,,,,,,,,,,,,,,,,,,,,,,,,36,female,2020-09-28_12h17.38.397,torte-2b,2020.1.3,MacIntel,60,13319,,,,,,,,,,,,,,,,,,7,,,,,,,0,0,0,0,1,,,,,,,,,,,,,,,,,,,,,,,,,,,,,,,,,,,,
,,,,,,,,,,,,,,,,,,,,,,,,36,female,2020-09-28_12h17.38.397,torte-2b,2020.1.3,MacIntel,60,13319,,,,,,,,,,,,,,,,,,5,,,,,,,0,1,1,1,1,,,,,,,,,,,,,,,,,,,,,,,,,,,,,,,,,,,,
,,,,,,,,,,,,,,,,,,,,,,,,36,female,2020-09-28_12h17.38.397,torte-2b,2020.1.3,MacIntel,60,13319,,,,,,,,,,,,,,,,,,4,,,,,,,0,2,2,2,1,,,,,,,,,,,,,,,,,,,,,,,,,,,,,,,,,,,,
,,,,,,,,,,,,,,,,,,,,,,,,36,female,2020-09-28_12h17.38.397,torte-2b,2020.1.3,MacIntel,60,13319,,,,,,,,,,,,space,,,,,,5,0.402,,,,,,0,3,3,3,1,,,,,,,,,,,,,,,,,,,,,,,,,,,,,,,,,,,,
,,,,,,,,,,,,,,,,,,,,,,,,36,female,2020-09-28_12h17.38.397,torte-2b,2020.1.3,MacIntel,60,13319,,,,,,,,,,,,,,,,,,6,,,,,,,0,4,4,4,1,,,,,,,,,,,,,,,,,,,,,,,,,,,,,,,,,,,,
,,,,,,,,,,,,,,,,,,,,,,,,36,female,2020-09-28_12h17.38.397,torte-2b,2020.1.3,MacIntel,60,13319,,,,,,,,,,,,space,,,,,,5,0.341,,,,,,0,5,5,5,1,,,,,,,,,,,,,,,,,,,,,,,,,,,,,,,,,,,,
,,,,,,,,,,,,,,,,,,,,,,,,36,female,2020-09-28_12h17.38.397,torte-2b,2020.1.3,MacIntel,60,13319,,,,,,,,,,,,,,,,,,3,,,,,,,0,6,6,6,1,,,,,,,,,,,,,,,,,,,,,,,,,,,,,,,,,,,,
,,,,,,,,,,,,,,,,,,,,,,,,36,female,2020-09-28_12h17.38.397,torte-2b,2020.1.3,MacIntel,60,13319,,,,,,,,,,,,,,,,,,4,,,,,,,0,7,7,7,1,,,,,,,,,,,,,,,,,,,,,,,,,,,,,,,,,,,,
,,,,,,,,,,,,,,,,,,,,,,,,36,female,2020-09-28_12h17.38.397,torte-2b,2020.1.3,MacIntel,60,13319,,,,,,,,,,,,space,,,,,,3,0.356,,,,,,0,8,8,8,1,,,,,,,,,,,,,,,,,,,,,,,,,,,,,,,,,,,,
,,,,,,,,,,,,,,,,,,,,,,,,36,female,2020-09-28_12h17.38.397,torte-2b,2020.1.3,MacIntel,60,13319,,,,,,,,,,,,,,,,,,1,,,,,,,0,9,9,9,1,,,,,,,,,,,,,,,,,,,,,,,,,,,,,,,,,,,,
,,,,,,,,,,,,,,,,,,,,,,,,36,female,2020-09-28_12h17.38.397,torte-2b,2020.1.3,MacIntel,60,13319,,,,,,,,,,,,,,,,,,2,,,,,,,0,10,10,10,1,,,,,,,,,,,,,,,,,,,,,,,,,,,,,,,,,,,,
,,,,,,,,,,,,,,,,,,,,,,,,36,female,2020-09-28_12h17.38.397,torte-2b,2020.1.3,MacIntel,60,13319,,,,,,,,,,,,space,,,,,,1,0.338,,,,,,0,11,11,11,1,,,,,,,,,,,,,,,,,,,,,,,,,,,,,,,,,,,,
,,,,,,,,,,,,,,,,,,,,,,,,36,female,2020-09-28_12h17.38.397,torte-2b,2020.1.3,MacIntel,60,13319,,,,,,,,,,,,space,,,,,,2,0.439,,,,,,0,12,12,12,1,,,,,,,,,,,,,,,,,,,,,,,,,,,,,,,,,,,,
,,,,,,,,,,,,,,,,,,,,,,,,36,female,2020-09-28_12h17.38.397,torte-2b,2020.1.3,MacIntel,60,13319,,,,,,,,,,,,space,,,,,,1,0.656,,,,,,0,13,13,13,1,,,,,,,,,,,,,,,,,,,,,,,,,,,,,,,,,,,,
,,,,,,,,,,,,,,,,,,,,,,,,36,female,2020-09-28_12h17.38.397,torte-2b,2020.1.3,MacIntel,60,13319,,,,,,,,,,,,,,,,,,3,,,,,,,0,14,14,14,1,,,,,,,,,,,,,,,,,,,,,,,,,,,,,,,,,,,,
,,,,,,,,,,,,,,,,,,,,,,,,36,female,2020-09-28_12h17.38.397,torte-2b,2020.1.3,MacIntel,60,13319,,,,,,,,,,,,space,,,,,,1,0.335,,,,,,0,15,15,15,1,,,,,,,,,,,,,,,,,,,,,,,,,,,,,,,,,,,,
,,,,,,,,,,,,,,,,,,,,,,,,36,female,2020-09-28_12h17.38.397,torte-2b,2020.1.3,MacIntel,60,13319,,,,,,,,,,,,,,,,,,7,,,,,,,0,16,16,16,1,,,,,,,,,,,,,,,,,,,,,,,,,,,,,,,,,,,,
,,,,,,,,,,,,,,,,,,,,,,,,36,female,2020-09-28_12h17.38.397,torte-2b,2020.1.3,MacIntel,60,13319,,,,,,,,,,,,,,,,,,7,,,,,,,0,17,17,17,1,,,,,,,,,,,,,,,,,,,,,,,,,,,,,,,,,,,,
,,,,,,,,,,,,,,,,,,,,,,,,36,female,2020-09-28_12h17.38.397,torte-2b,2020.1.3,MacIntel,60,13319,,,,,,,,,,,,,,,,,,4,,,,,,,0,18,18,18,1,,,,,,,,,,,,,,,,,,,,,,,,,,,,,,,,,,,,
,,,,,,,,,,,,,,,,,,,,,,,,36,female,2020-09-28_12h17.38.397,torte-2b,2020.1.3,MacIntel,60,13319,,,,,,,,,,,,space,,,,,,7,0.425,,,,,,0,19,19,19,1,,,,,,,,,,,,,,,,,,,,,,,,,,,,,,,,,,,,
,,,,,,,,,,,,,,,,,,,,,,,,36,female,2020-09-28_12h17.38.397,torte-2b,2020.1.3,MacIntel,60,13319,,,,,,,,,,,,,,,,,,3,,,,,,,0,20,20,20,1,,,,,,,,,,,,,,,,,,,,,,,,,,,,,,,,,,,,
,,,,,,,,,,,,,,,,,,,,,,,,36,female,2020-09-28_12h17.38.397,torte-2b,2020.1.3,MacIntel,60,13319,,,,,,,,,,,,space,,,,,,7,0.385,,,,,,0,21,21,21,1,,,,,,,,,,,,,,,,,,,,,,,,,,,,,,,,,,,,
,,,,,,,,,,,,,,,,,,,,,,,,36,female,2020-09-28_12h17.38.397,torte-2b,2020.1.3,MacIntel,60,13319,,,,,,,,,,,,space,,,,,,3,0.351,,,,,,0,22,22,22,1,,,,,,,,,,,,,,,,,,,,,,,,,,,,,,,,,,,,
,,,,,,,,,,,,,,,,,,,,,,,,36,female,2020-09-28_12h17.38.397,torte-2b,2020.1.3,MacIntel,60,13319,,,,,,,,,,,,,,,,,,1,,,,,,,0,23,23,23,1,,,,,,,,,,,,,,,,,,,,,,,,,,,,,,,,,,,,
,,,,,,,,,,,,,,,,,,,,,,,,36,female,2020-09-28_12h17.38.397,torte-2b,2020.1.3,MacIntel,60,13319,,,,,,,,,,,,,,,,,,6,,,,,,,0,24,24,24,1,,,,,,,,,,,,,,,,,,,,,,,,,,,,,,,,,,,,
,,,,,,,,,,,,,,,,,,,,,,,,36,female,2020-09-28_12h17.38.397,torte-2b,2020.1.3,MacIntel,60,13319,,,,,,,,,,,,,,,,,,3,,,,,,,0,25,25,25,1,,,,,,,,,,,,,,,,,,,,,,,,,,,,,,,,,,,,
,,,,,,,,,,,,,,,,,,,,,,,,36,female,2020-09-28_12h17.38.397,torte-2b,2020.1.3,MacIntel,60,13319,,,,,,,,,,,,,,,,,,2,,,,,,,0,26,26,26,1,,,,,,,,,,,,,,,,,,,,,,,,,,,,,,,,,,,,
,,,,,,,,,,,,,,,,,,,,,,,,36,female,2020-09-28_12h17.38.397,torte-2b,2020.1.3,MacIntel,60,13319,,,,,,,,,,,,space,,,,,,3,0.387,,,,,,0,27,27,27,1,,,,,,,,,,,,,,,,,,,,,,,,,,,,,,,,,,,,
,,,,,,,,,,,,,,,,,,,,,,,,36,female,2020-09-28_12h17.38.397,torte-2b,2020.1.3,MacIntel,60,13319,,,,,,,,,,,,,,,,,,1,,,,,,,0,28,28,28,1,,,,,,,,,,,,,,,,,,,,,,,,,,,,,,,,,,,,
,,,,,,,,,,,,,,,,,,,,,,,,36,female,2020-09-28_12h17.38.397,torte-2b,2020.1.3,MacIntel,60,13319,,,,,,,,,,,,space,,,,,,3,0.373,,,,,,0,29,29,29,1,,,,,,,,,,,,,,,,,,,,,,,,,,,,,,,,,,,,
,,,,,,,,,,,,,,,,,,,,,,,,36,female,2020-09-28_12h17.38.397,torte-2b,2020.1.3,MacIntel,60,13319,,,,,,,,,,,,space,,,,,,1,0.459,,,,,,0,30,30,30,1,,,,,,,,,,,,,,,,,,,,,,,,,,,,,,,,,,,,
,,,,,,,,,,,,,,,,,,,,,,,,36,female,2020-09-28_12h17.38.397,torte-2b,2020.1.3,MacIntel,60,13319,,,,,,,,,,,,,,,,,,7,,,,,,,0,31,31,31,1,,,,,,,,,,,,,,,,,,,,,,,,,,,,,,,,,,,,
,,,,,,,,,,,,,,,,,,,,,,,,36,female,2020-09-28_12h17.38.397,torte-2b,2020.1.3,MacIntel,60,13319,,,,,,,,,,,,,,,,,,5,,,,,,,0,32,32,32,1,,,,,,,,,,,,,,,,,,,,,,,,,,,,,,,,,,,,
,,,,,,,,,,,,,,,,,,,,,,,,36,female,2020-09-28_12h17.38.397,torte-2b,2020.1.3,MacIntel,60,13319,,,,,,,,,,,,space,,,,,,7,0.334,,,,,,0,33,33,33,1,,,,,,,,,,,,,,,,,,,,,,,,,,,,,,,,,,,,
,,,,,,,,,,,,,,,,,,,,,,,,36,female,2020-09-28_12h17.38.397,torte-2b,2020.1.3,MacIntel,60,13319,,,,,,,,,,,,,,,,,,2,,,,,,,0,34,34,34,1,,,,,,,,,,,,,,,,,,,,,,,,,,,,,,,,,,,,
,,,,,,,,,,,,,,,,,,,,,,,,36,female,2020-09-28_12h17.38.397,torte-2b,2020.1.3,MacIntel,60,13319,,,,,,,,,,,,,,,,,,3,,,,,,,,,,,,0,0,0,0,1,,,,,,,,,,,,,,,,,,,,,,,,,,,,,,,
,,,,,,,,,,,,,,,,,,,,,,,,36,female,2020-09-28_12h17.38.397,torte-2b,2020.1.3,MacIntel,60,13319,,,,,,,,,,,,,,,,,,7,,,,,,,,,,,,0,1,1,1,1,,,,,,,,,,,,,,,,,,,,,,,,,,,,,,,
,,,,,,,,,,,,,,,,,,,,,,,,36,female,2020-09-28_12h17.38.397,torte-2b,2020.1.3,MacIntel,60,13319,,,,,,,,,,,,space,,,,,,7,0.55,,,,,,,,,,,0,2,2,2,1,,,,,,,,,,,,,,,,,,,,,,,,,,,,,,,
,,,,,,,,,,,,,,,,,,,,,,,,36,female,2020-09-28_12h17.38.397,torte-2b,2020.1.3,MacIntel,60,13319,,,,,,,,,,,,,,,,,,4,,,,,,,,,,,,0,3,3,3,1,,,,,,,,,,,,,,,,,,,,,,,,,,,,,,,
,,,,,,,,,,,,,,,,,,,,,,,,36,female,2020-09-28_12h17.38.397,torte-2b,2020.1.3,MacIntel,60,13319,,,,,,,,,,,,,,,,,,5,,,,,,,,,,,,0,4,4,4,1,,,,,,,,,,,,,,,,,,,,,,,,,,,,,,,
,,,,,,,,,,,,,,,,,,,,,,,,36,female,2020-09-28_12h17.38.397,torte-2b,2020.1.3,MacIntel,60,13319,,,,,,,,,,,,space,,,,,,4,0.4,,,,,,,,,,,0,5,5,5,1,,,,,,,,,,,,,,,,,,,,,,,,,,,,,,,
,,,,,,,,,,,,,,,,,,,,,,,,36,female,2020-09-28_12h17.38.397,torte-2b,2020.1.3,MacIntel,60,13319,,,,,,,,,,,,,,,,,,2,,,,,,,,,,,,0,6,6,6,1,,,,,,,,,,,,,,,,,,,,,,,,,,,,,,,
,,,,,,,,,,,,,,,,,,,,,,,,36,female,2020-09-28_12h17.38.397,torte-2b,2020.1.3,MacIntel,60,13319,,,,,,,,,,,,space,,,,,,4,0.354,,,,,,,,,,,0,7,7,7,1,,,,,,,,,,,,,,,,,,,,,,,,,,,,,,,
,,,,,,,,,,,,,,,,,,,,,,,,36,female,2020-09-28_12h17.38.397,torte-2b,2020.1.3,MacIntel,60,13319,,,,,,,,,,,,space,,,,,,2,0.67,,,,,,,,,,,0,8,8,8,1,,,,,,,,,,,,,,,,,,,,,,,,,,,,,,,
,,,,,,,,,,,,,,,,,,,,,,,,36,female,2020-09-28_12h17.38.397,torte-2b,2020.1.3,MacIntel,60,13319,,,,,,,,,,,,,,,,,,2,,,,,,,,,,,,0,9,9,9,1,,,,,,,,,,,,,,,,,,,,,,,,,,,,,,,
,,,,,,,,,,,,,,,,,,,,,,,,36,female,2020-09-28_12h17.38.397,torte-2b,2020.1.3,MacIntel,60,13319,,,,,,,,,,,,,,,,,,6,,,,,,,,,,,,0,10,10,10,1,,,,,,,,,,,,,,,,,,,,,,,,,,,,,,,
,,,,,,,,,,,,,,,,,,,,,,,,36,female,2020-09-28_12h17.38.397,torte-2b,2020.1.3,MacIntel,60,13319,,,,,,,,,,,,space,,,,,,2,0.742,,,,,,,,,,,0,11,11,11,1,,,,,,,,,,,,,,,,,,,,,,,,,,,,,,,
,,,,,,,,,,,,,,,,,,,,,,,,36,female,2020-09-28_12h17.38.397,torte-2b,2020.1.3,MacIntel,60,13319,,,,,,,,,,,,space,,,,,,2,0.703,,,,,,,,,,,0,12,12,12,1,,,,,,,,,,,,,,,,,,,,,,,,,,,,,,,
,,,,,,,,,,,,,,,,,,,,,,,,36,female,2020-09-28_12h17.38.397,torte-2b,2020.1.3,MacIntel,60,13319,,,,,,,,,,,,space,,,,,,2,0.939,,,,,,,,,,,0,13,13,13,1,,,,,,,,,,,,,,,,,,,,,,,,,,,,,,,
,,,,,,,,,,,,,,,,,,,,,,,,36,female,2020-09-28_12h17.38.397,torte-2b,2020.1.3,MacIntel,60,13319,,,,,,,,,,,,space,,,,,,2,0.808,,,,,,,,,,,0,14,14,14,1,,,,,,,,,,,,,,,,,,,,,,,,,,,,,,,
,,,,,,,,,,,,,,,,,,,,,,,,36,female,2020-09-28_12h17.38.397,torte-2b,2020.1.3,MacIntel,60,13319,,,,,,,,,,,,,,,,,,4,,,,,,,,,,,,0,15,15,15,1,,,,,,,,,,,,,,,,,,,,,,,,,,,,,,,
,,,,,,,,,,,,,,,,,,,,,,,,36,female,2020-09-28_12h17.38.397,torte-2b,2020.1.3,MacIntel,60,13319,,,,,,,,,,,,,,,,,,3,,,,,,,,,,,,0,16,16,16,1,,,,,,,,,,,,,,,,,,,,,,,,,,,,,,,
,,,,,,,,,,,,,,,,,,,,,,,,36,female,2020-09-28_12h17.38.397,torte-2b,2020.1.3,MacIntel,60,13319,,,,,,,,,,,,,,,,,,7,,,,,,,,,,,,0,17,17,17,1,,,,,,,,,,,,,,,,,,,,,,,,,,,,,,,
,,,,,,,,,,,,,,,,,,,,,,,,36,female,2020-09-28_12h17.38.397,torte-2b,2020.1.3,MacIntel,60,13319,,,,,,,,,,,,,,,,,,4,,,,,,,,,,,,0,18,18,18,1,,,,,,,,,,,,,,,,,,,,,,,,,,,,,,,
,,,,,,,,,,,,,,,,,,,,,,,,36,female,2020-09-28_12h17.38.397,torte-2b,2020.1.3,MacIntel,60,13319,,,,,,,,,,,,space,,,,,,7,0.441,,,,,,,,,,,0,19,19,19,1,,,,,,,,,,,,,,,,,,,,,,,,,,,,,,,
,,,,,,,,,,,,,,,,,,,,,,,,36,female,2020-09-28_12h17.38.397,torte-2b,2020.1.3,MacIntel,60,13319,,,,,,,,,,,,,,,,,,7,,,,,,,,,,,,0,20,20,20,1,,,,,,,,,,,,,,,,,,,,,,,,,,,,,,,
,,,,,,,,,,,,,,,,,,,,,,,,36,female,2020-09-28_12h17.38.397,torte-2b,2020.1.3,MacIntel,60,13319,,,,,,,,,,,,space,,,,,,7,1.091,,,,,,,,,,,0,21,21,21,1,,,,,,,,,,,,,,,,,,,,,,,,,,,,,,,
,,,,,,,,,,,,,,,,,,,,,,,,36,female,2020-09-28_12h17.38.397,torte-2b,2020.1.3,MacIntel,60,13319,,,,,,,,,,,,space,,,,,,7,0.421,,,,,,,,,,,0,22,22,22,1,,,,,,,,,,,,,,,,,,,,,,,,,,,,,,,
,,,,,,,,,,,,,,,,,,,,,,,,36,female,2020-09-28_12h17.38.397,torte-2b,2020.1.3,MacIntel,60,13319,,,,,,,,,,,,,,,,,,1,,,,,,,,,,,,0,23,23,23,1,,,,,,,,,,,,,,,,,,,,,,,,,,,,,,,
,,,,,,,,,,,,,,,,,,,,,,,,36,female,2020-09-28_12h17.38.397,torte-2b,2020.1.3,MacIntel,60,13319,,,,,,,,,,,,space,,,,,,7,0.471,,,,,,,,,,,0,24,24,24,1,,,,,,,,,,,,,,,,,,,,,,,,,,,,,,,
,,,,,,,,,,,,,,,,,,,,,,,,36,female,2020-09-28_12h17.38.397,torte-2b,2020.1.3,MacIntel,60,13319,,,,,,,,,,,,space,,,,,,1,0.355,,,,,,,,,,,0,25,25,25,1,,,,,,,,,,,,,,,,,,,,,,,,,,,,,,,
,,,,,,,,,,,,,,,,,,,,,,,,36,female,2020-09-28_12h17.38.397,torte-2b,2020.1.3,MacIntel,60,13319,,,,,,,,,,,,space,,,,,,7,0.553,,,,,,,,,,,0,26,26,26,1,,,,,,,,,,,,,,,,,,,,,,,,,,,,,,,
,,,,,,,,,,,,,,,,,,,,,,,,36,female,2020-09-28_12h17.38.397,torte-2b,2020.1.3,MacIntel,60,13319,,,,,,,,,,,,,,,,,,2,,,,,,,,,,,,0,27,27,27,1,,,,,,,,,,,,,,,,,,,,,,,,,,,,,,,
,,,,,,,,,,,,,,,,,,,,,,,,36,female,2020-09-28_12h17.38.397,torte-2b,2020.1.3,MacIntel,60,13319,,,,,,,,,,,,,,,,,,5,,,,,,,,,,,,0,28,28,28,1,,,,,,,,,,,,,,,,,,,,,,,,,,,,,,,
,,,,,,,,,,,,,,,,,,,,,,,,36,female,2020-09-28_12h17.38.397,torte-2b,2020.1.3,MacIntel,60,13319,,,,,,,,,,,,,,,,,,5,,,,,,,,,,,,0,29,29,29,1,,,,,,,,,,,,,,,,,,,,,,,,,,,,,,,
,,,,,,,,,,,,,,,,,,,,,,,,36,female,2020-09-28_12h17.38.397,torte-2b,2020.1.3,MacIntel,60,13319,,,,,,,,,,,,space,,,,,,5,0.373,,,,,,,,,,,0,30,30,30,1,,,,,,,,,,,,,,,,,,,,,,,,,,,,,,,
,,,,,,,,,,,,,,,,,,,,,,,,36,female,2020-09-28_12h17.38.397,torte-2b,2020.1.3,MacIntel,60,13319,,,,,,,,,,,,,,,,,,1,,,,,,,,,,,,0,31,31,31,1,,,,,,,,,,,,,,,,,,,,,,,,,,,,,,,
,,,,,,,,,,,,,,,,,,,,,,,,36,female,2020-09-28_12h17.38.397,torte-2b,2020.1.3,MacIntel,60,13319,,,,,,,,,,,,space,,,,,,5,0.356,,,,,,,,,,,0,32,32,32,1,,,,,,,,,,,,,,,,,,,,,,,,,,,,,,,
,,,,,,,,,,,,,,,,,,,,,,,,36,female,2020-09-28_12h17.38.397,torte-2b,2020.1.3,MacIntel,60,13319,,,,,,,,,,,,,,,,,,3,,,,,,,,,,,,0,33,33,33,1,,,,,,,,,,,,,,,,,,,,,,,,,,,,,,,
,,,,,,,,,,,,,,,,,,,,,,,,36,female,2020-09-28_12h17.38.397,torte-2b,2020.1.3,MacIntel,60,13319,,,,,,,,,,,,space,,,,,,3,0.54,,,,,,,,,,,0,34,34,34,1,,,,,,,,,,,,,,,,,,,,,,,,,,,,,,,
,,,,,,,,,,,,,,Too slow :(,,,,,,t4.png,t2.png,2,0.0591,36,female,2020-09-28_12h17.38.397,torte-2b,2020.1.3,MacIntel,60,13319,space,1.358,,,,,,,,,,,,,,,,,,,,,,,,,,,,,,,,,space,0.559,0,0,0,36,1,,,,,,,,,,,,,,,,,,,,,,,,
,,,,,,,,,,,,a,1.241,Correct!,,,,,,t5.png,t4.png,1,0.90025,36,female,2020-09-28_12h17.38.397,torte-2b,2020.1.3,MacIntel,60,13319,,,,,,,,,,,,,,,,,,,,,,,,,,,,,,,,,,,,,0,1,1,26,1,,,,,,,,,,,,,,,,,,,,,,,,
,,,,,,,,,,,,l,0.804,Correct!,,,,,,t1.png,t5.png,4,9.55E-11,36,female,2020-09-28_12h17.38.397,torte-2b,2020.1.3,MacIntel,60,13319,,,,,,,,,,,,,,,,,,,,,,,,,,,,,,,,,,,,,0,2,2,12,1,,,,,,,,,,,,,,,,,,,,,,,,
,,,,,,,,,,,,a,0.959,Correct!,,,,,,t3.png,t2.png,1,0.909,36,female,2020-09-28_12h17.38.397,torte-2b,2020.1.3,MacIntel,60,13319,,,,,,,,,,,,,,,,,,,,,,,,,,,,,,,,,,,,,0,3,3,23,1,,,,,,,,,,,,,,,,,,,,,,,,
,,,,,,,,,,,,a,1.376,Correct!,,,,,,t4.png,t3.png,1,0.909,36,female,2020-09-28_12h17.38.397,torte-2b,2020.1.3,MacIntel,60,13319,,,,,,,,,,,,,,,,,,,,,,,,,,,,,,,,,,,,,0,4,4,20,1,,,,,,,,,,,,,,,,,,,,,,,,
,,,,,,,,,,,,a,0.957,Incorrect,,,,,,t4.png,t3.png,1,0.90855,36,female,2020-09-28_12h17.38.397,torte-2b,2020.1.3,MacIntel,60,13319,,,,,,,,,,,,,,,,,,,,,,,,,,,,,,,,,,,,,0,5,5,35,1,,,,,,,,,,,,,,,,,,,,,,,,
,,,,,,,,,,,,a,0.968,Correct!,,,,,,t3.png,t4.png,1,0.909,36,female,2020-09-28_12h17.38.397,torte-2b,2020.1.3,MacIntel,60,13319,,,,,,,,,,,,,,,,,,,,,,,,,,,,,,,,,,,,,0,6,6,89,1,,,,,,,,,,,,,,,,,,,,,,,,
,,,,,,,,,,,,a,0.968,Correct!,,,,,,t1.png,t2.png,1,0.90025,36,female,2020-09-28_12h17.38.397,torte-2b,2020.1.3,MacIntel,60,13319,,,,,,,,,,,,,,,,,,,,,,,,,,,,,,,,,,,,,0,7,7,72,1,,,,,,,,,,,,,,,,,,,,,,,,
,,,,,,,,,,,,a,0.655,Correct!,,,,,,t1.png,t1.png,0,0.978,36,female,2020-09-28_12h17.38.397,torte-2b,2020.1.3,MacIntel,60,13319,,,,,,,,,,,,,,,,,,,,,,,,,,,,,,,,,,,,,0,8,8,28,1,,,,,,,,,,,,,,,,,,,,,,,,
,,,,,,,,,,,,a,0.821,Incorrect,,,,,,t4.png,t1.png,3,0.0000131,36,female,2020-09-28_12h17.38.397,torte-2b,2020.1.3,MacIntel,60,13319,,,,,,,,,,,,,,,,,,,,,,,,,,,,,,,,,,,,,0,9,9,61,1,,,,,,,,,,,,,,,,,,,,,,,,
,,,,,,,,,,,,l,0.624,Correct!,,,,,,t5.png,t1.png,4,9.55E-11,36,female,2020-09-28_12h17.38.397,torte-2b,2020.1.3,MacIntel,60,13319,,,,,,,,,,,,,,,,,,,,,,,,,,,,,,,,,,,,,0,10,10,100,1,,,,,,,,,,,,,,,,,,,,,,,,
,,,,,,,,,,,,a,1.329,Correct!,,,,,,t5.png,t4.png,1,0.9,36,female,2020-09-28_12h17.38.397,torte-2b,2020.1.3,MacIntel,60,13319,,,,,,,,,,,,,,,,,,,,,,,,,,,,,,,,,,,,,0,11,11,76,1,,,,,,,,,,,,,,,,,,,,,,,,
,,,,,,,,,,,,l,0.822,Correct!,,,,,,t5.png,t1.png,4,9.55E-11,36,female,2020-09-28_12h17.38.397,torte-2b,2020.1.3,MacIntel,60,13319,,,,,,,,,,,,,,,,,,,,,,,,,,,,,,,,,,,,,0,12,12,43,1,,,,,,,,,,,,,,,,,,,,,,,,
,,,,,,,,,,,,a,0.975,Incorrect,,,,,,t5.png,t2.png,3,0.0000131,36,female,2020-09-28_12h17.38.397,torte-2b,2020.1.3,MacIntel,60,13319,,,,,,,,,,,,,,,,,,,,,,,,,,,,,,,,,,,,,0,13,13,119,1,,,,,,,,,,,,,,,,,,,,,,,,
,,,,,,,,,,,,a,1.04,Correct!,,,,,,t2.png,t3.png,1,0.90855,36,female,2020-09-28_12h17.38.397,torte-2b,2020.1.3,MacIntel,60,13319,,,,,,,,,,,,,,,,,,,,,,,,,,,,,,,,,,,,,0,14,14,65,1,,,,,,,,,,,,,,,,,,,,,,,,
,,,,,,,,,,,,a,0.739,Correct!,,,,,,t5.png,t5.png,0,0.97829,36,female,2020-09-28_12h17.38.397,torte-2b,2020.1.3,MacIntel,60,13319,,,,,,,,,,,,,,,,,,,,,,,,,,,,,,,,,,,,,0,15,15,70,1,,,,,,,,,,,,,,,,,,,,,,,,
,,,,,,,,,,,,l,1.007,Incorrect,,,,,,t4.png,t5.png,1,0.90025,36,female,2020-09-28_12h17.38.397,torte-2b,2020.1.3,MacIntel,60,13319,,,,,,,,,,,,,,,,,,,,,,,,,,,,,,,,,,,,,0,16,16,58,1,,,,,,,,,,,,,,,,,,,,,,,,
,,,,,,,,,,,,l,0.625,Correct!,,,,,,t1.png,t5.png,4,9.55E-11,36,female,2020-09-28_12h17.38.397,torte-2b,2020.1.3,MacIntel,60,13319,,,,,,,,,,,,,,,,,,,,,,,,,,,,,,,,,,,,,0,17,17,41,1,,,,,,,,,,,,,,,,,,,,,,,,
,,,,,,,,,,,,a,0.628,Correct!,,,,,,t5.png,t5.png,0,0.97829,36,female,2020-09-28_12h17.38.397,torte-2b,2020.1.3,MacIntel,60,13319,,,,,,,,,,,,,,,,,,,,,,,,,,,,,,,,,,,,,0,18,18,73,1,,,,,,,,,,,,,,,,,,,,,,,,
,,,,,,,,,,,,a,0.89,Incorrect,,,,,,t5.png,t3.png,2,0.056466,36,female,2020-09-28_12h17.38.397,torte-2b,2020.1.3,MacIntel,60,13319,,,,,,,,,,,,,,,,,,,,,,,,,,,,,,,,,,,,,0,19,19,108,1,,,,,,,,,,,,,,,,,,,,,,,,
,,,,,,,,,,,,a,0.869,Correct!,,,,,,t3.png,t2.png,1,0.90855,36,female,2020-09-28_12h17.38.397,torte-2b,2020.1.3,MacIntel,60,13319,,,,,,,,,,,,,,,,,,,,,,,,,,,,,,,,,,,,,0,20,20,97,1,,,,,,,,,,,,,,,,,,,,,,,,
,,,,,,,,,,,,a,0.824,Correct!,,,,,,t2.png,t1.png,1,0.90025,36,female,2020-09-28_12h17.38.397,torte-2b,2020.1.3,MacIntel,60,13319,,,,,,,,,,,,,,,,,,,,,,,,,,,,,,,,,,,,,0,21,21,5,1,,,,,,,,,,,,,,,,,,,,,,,,
,,,,,,,,,,,,a,1.544,Incorrect,,,,,,t5.png,t2.png,3,0.0000131,36,female,2020-09-28_12h17.38.397,torte-2b,2020.1.3,MacIntel,60,13319,,,,,,,,,,,,,,,,,,,,,,,,,,,,,,,,,,,,,0,22,22,98,1,,,,,,,,,,,,,,,,,,,,,,,,
,,,,,,,,,,,,a,0.773,Correct!,,,,,,t4.png,t4.png,0,0.98115,36,female,2020-09-28_12h17.38.397,torte-2b,2020.1.3,MacIntel,60,13319,,,,,,,,,,,,,,,,,,,,,,,,,,,,,,,,,,,,,0,23,23,90,1,,,,,,,,,,,,,,,,,,,,,,,,
,,,,,,,,,,,,a,0.908,Incorrect,,,,,,t5.png,t2.png,3,0.0000131,36,female,2020-09-28_12h17.38.397,torte-2b,2020.1.3,MacIntel,60,13319,,,,,,,,,,,,,,,,,,,,,,,,,,,,,,,,,,,,,0,24,24,51,1,,,,,,,,,,,,,,,,,,,,,,,,
,,,,,,,,,,,,a,0.841,Correct!,,,,,,t3.png,t4.png,1,0.90855,36,female,2020-09-28_12h17.38.397,torte-2b,2020.1.3,MacIntel,60,13319,,,,,,,,,,,,,,,,,,,,,,,,,,,,,,,,,,,,,0,25,25,96,1,,,,,,,,,,,,,,,,,,,,,,,,
,,,,,,,,,,,,a,0.722,Correct!,,,,,,t2.png,t2.png,0,0.98115,36,female,2020-09-28_12h17.38.397,torte-2b,2020.1.3,MacIntel,60,13319,,,,,,,,,,,,,,,,,,,,,,,,,,,,,,,,,,,,,0,26,26,2,1,,,,,,,,,,,,,,,,,,,,,,,,
,,,,,,,,,,,,l,0.628,Correct!,,,,,,t1.png,t4.png,3,0.0000131,36,female,2020-09-28_12h17.38.397,torte-2b,2020.1.3,MacIntel,60,13319,,,,,,,,,,,,,,,,,,,,,,,,,,,,,,,,,,,,,0,27,27,17,1,,,,,,,,,,,,,,,,,,,,,,,,
,,,,,,,,,,,,a,0.986,Correct!,,,,,,t3.png,t5.png,2,0.0565,36,female,2020-09-28_12h17.38.397,torte-2b,2020.1.3,MacIntel,60,13319,,,,,,,,,,,,,,,,,,,,,,,,,,,,,,,,,,,,,0,28,28,83,1,,,,,,,,,,,,,,,,,,,,,,,,
,,,,,,,,,,,,a,0.754,Incorrect,,,,,,t2.png,t5.png,3,0.0000131,36,female,2020-09-28_12h17.38.397,torte-2b,2020.1.3,MacIntel,60,13319,,,,,,,,,,,,,,,,,,,,,,,,,,,,,,,,,,,,,0,29,29,40,1,,,,,,,,,,,,,,,,,,,,,,,,
,,,,,,,,,,,,a,0.89,Correct!,,,,,,t4.png,t4.png,0,0.98115,36,female,2020-09-28_12h17.38.397,torte-2b,2020.1.3,MacIntel,60,13319,,,,,,,,,,,,,,,,,,,,,,,,,,,,,,,,,,,,,0,30,30,52,1,,,,,,,,,,,,,,,,,,,,,,,,
,,,,,,,,,,,,a,0.69,Correct!,,,,,,t1.png,t1.png,0,0.97829,36,female,2020-09-28_12h17.38.397,torte-2b,2020.1.3,MacIntel,60,13319,,,,,,,,,,,,,,,,,,,,,,,,,,,,,,,,,,,,,0,31,31,9,1,,,,,,,,,,,,,,,,,,,,,,,,
,,,,,,,,,,,,a,0.723,Incorrect,,,,,,t5.png,t3.png,2,0.056466,36,female,2020-09-28_12h17.38.397,torte-2b,2020.1.3,MacIntel,60,13319,,,,,,,,,,,,,,,,,,,,,,,,,,,,,,,,,,,,,0,32,32,38,1,,,,,,,,,,,,,,,,,,,,,,,,
,,,,,,,,,,,,a,0.605,Correct!,,,,,,t5.png,t5.png,0,0.978,36,female,2020-09-28_12h17.38.397,torte-2b,2020.1.3,MacIntel,60,13319,,,,,,,,,,,,,,,,,,,,,,,,,,,,,,,,,,,,,0,33,33,117,1,,,,,,,,,,,,,,,,,,,,,,,,
,,,,,,,,,,,,a,0.774,Incorrect,,,,,,t3.png,t1.png,2,0.056466,36,female,2020-09-28_12h17.38.397,torte-2b,2020.1.3,MacIntel,60,13319,,,,,,,,,,,,,,,,,,,,,,,,,,,,,,,,,,,,,0,34,34,0,1,,,,,,,,,,,,,,,,,,,,,,,,
,,,,,,,,,,,,a,0.992,Correct!,,,,,,t5.png,t4.png,1,0.9,36,female,2020-09-28_12h17.38.397,torte-2b,2020.1.3,MacIntel,60,13319,,,,,,,,,,,,,,,,,,,,,,,,,,,,,,,,,,,,,0,35,35,49,1,,,,,,,,,,,,,,,,,,,,,,,,
,,,,,,,,,,,,a,0.858,Correct!,,,,,,t1.png,t2.png,1,0.90025,36,female,2020-09-28_12h17.38.397,torte-2b,2020.1.3,MacIntel,60,13319,,,,,,,,,,,,,,,,,,,,,,,,,,,,,,,,,,,,,0,36,36,105,1,,,,,,,,,,,,,,,,,,,,,,,,
,,,,,,,,,,,,a,0.818,Correct!,,,,,,t4.png,t4.png,0,0.98115,36,female,2020-09-28_12h17.38.397,torte-2b,2020.1.3,MacIntel,60,13319,,,,,,,,,,,,,,,,,,,,,,,,,,,,,,,,,,,,,0,37,37,79,1,,,,,,,,,,,,,,,,,,,,,,,,
,,,,,,,,,,,,a,0.707,Incorrect,,,,,,t2.png,t5.png,3,0.0000131,36,female,2020-09-28_12h17.38.397,torte-2b,2020.1.3,MacIntel,60,13319,,,,,,,,,,,,,,,,,,,,,,,,,,,,,,,,,,,,,0,38,38,8,1,,,,,,,,,,,,,,,,,,,,,,,,
,,,,,,,,,,,,a,0.689,Correct!,,,,,,t1.png,t2.png,1,0.9,36,female,2020-09-28_12h17.38.397,torte-2b,2020.1.3,MacIntel,60,13319,,,,,,,,,,,,,,,,,,,,,,,,,,,,,,,,,,,,,0,39,39,1,1,,,,,,,,,,,,,,,,,,,,,,,,
,,,,,,,,,,,,a,0.722,Incorrect,,,,,,t3.png,t1.png,2,0.056466,36,female,2020-09-28_12h17.38.397,torte-2b,2020.1.3,MacIntel,60,13319,,,,,,,,,,,,,,,,,,,,,,,,,,,,,,,,,,,,,0,40,40,32,1,,,,,,,,,,,,,,,,,,,,,,,,
,,,,,,,,,,,,a,0.775,Correct!,,,,,,t5.png,t3.png,2,0.056466,36,female,2020-09-28_12h17.38.397,torte-2b,2020.1.3,MacIntel,60,13319,,,,,,,,,,,,,,,,,,,,,,,,,,,,,,,,,,,,,0,41,41,56,1,,,,,,,,,,,,,,,,,,,,,,,,
,,,,,,,,,,,,a,0.755,Incorrect,,,,,,t3.png,t1.png,2,0.056466,36,female,2020-09-28_12h17.38.397,torte-2b,2020.1.3,MacIntel,60,13319,,,,,,,,,,,,,,,,,,,,,,,,,,,,,,,,,,,,,0,42,42,29,1,,,,,,,,,,,,,,,,,,,,,,,,
,,,,,,,,,,,,a,0.557,Incorrect,,,,,,t3.png,t1.png,2,0.0565,36,female,2020-09-28_12h17.38.397,torte-2b,2020.1.3,MacIntel,60,13319,,,,,,,,,,,,,,,,,,,,,,,,,,,,,,,,,,,,,0,43,43,31,1,,,,,,,,,,,,,,,,,,,,,,,,
,,,,,,,,,,,,l,0.585,Correct!,,,,,,t1.png,t5.png,4,9.55E-11,36,female,2020-09-28_12h17.38.397,torte-2b,2020.1.3,MacIntel,60,13319,,,,,,,,,,,,,,,,,,,,,,,,,,,,,,,,,,,,,0,44,44,16,1,,,,,,,,,,,,,,,,,,,,,,,,
,,,,,,,,,,,,a,0.706,Correct!,,,,,,t2.png,t2.png,0,0.98115,36,female,2020-09-28_12h17.38.397,torte-2b,2020.1.3,MacIntel,60,13319,,,,,,,,,,,,,,,,,,,,,,,,,,,,,,,,,,,,,0,45,45,7,1,,,,,,,,,,,,,,,,,,,,,,,,
,,,,,,,,,,,,a,0.802,Correct!,,,,,,t2.png,t3.png,1,0.909,36,female,2020-09-28_12h17.38.397,torte-2b,2020.1.3,MacIntel,60,13319,,,,,,,,,,,,,,,,,,,,,,,,,,,,,,,,,,,,,0,46,46,74,1,,,,,,,,,,,,,,,,,,,,,,,,
,,,,,,,,,,,,a,0.655,Correct!,,,,,,t2.png,t2.png,0,0.98115,36,female,2020-09-28_12h17.38.397,torte-2b,2020.1.3,MacIntel,60,13319,,,,,,,,,,,,,,,,,,,,,,,,,,,,,,,,,,,,,0,47,47,57,1,,,,,,,,,,,,,,,,,,,,,,,,
,,,,,,,,,,,,a,0.926,Incorrect,,,,,,t5.png,t4.png,1,0.90025,36,female,2020-09-28_12h17.38.397,torte-2b,2020.1.3,MacIntel,60,13319,,,,,,,,,,,,,,,,,,,,,,,,,,,,,,,,,,,,,0,48,48,27,1,,,,,,,,,,,,,,,,,,,,,,,,
,,,,,,,,,,,,a,0.82,Correct!,,,,,,t4.png,t4.png,0,0.98115,36,female,2020-09-28_12h17.38.397,torte-2b,2020.1.3,MacIntel,60,13319,,,,,,,,,,,,,,,,,,,,,,,,,,,,,,,,,,,,,0,49,49,21,1,,,,,,,,,,,,,,,,,,,,,,,,
,,,,,,,,,,,,a,0.957,Correct!,,,,,,t4.png,t5.png,1,0.9,36,female,2020-09-28_12h17.38.397,torte-2b,2020.1.3,MacIntel,60,13319,,,,,,,,,,,,,,,,,,,,,,,,,,,,,,,,,,,,,0,50,50,115,1,,,,,,,,,,,,,,,,,,,,,,,,
,,,,,,,,,,,,a,0.621,Correct!,,,,,,t2.png,t1.png,1,0.90025,36,female,2020-09-28_12h17.38.397,torte-2b,2020.1.3,MacIntel,60,13319,,,,,,,,,,,,,,,,,,,,,,,,,,,,,,,,,,,,,0,51,51,62,1,,,,,,,,,,,,,,,,,,,,,,,,
,,,,,,,,,,,,l,0.76,Correct!,,,,,,t2.png,t5.png,3,0.0000131,36,female,2020-09-28_12h17.38.397,torte-2b,2020.1.3,MacIntel,60,13319,,,,,,,,,,,,,,,,,,,,,,,,,,,,,,,,,,,,,0,52,52,66,1,,,,,,,,,,,,,,,,,,,,,,,,
,,,,,,,,,,,,a,1.374,Incorrect,,,,,,t4.png,t1.png,3,0.0000131,36,female,2020-09-28_12h17.38.397,torte-2b,2020.1.3,MacIntel,60,13319,,,,,,,,,,,,,,,,,,,,,,,,,,,,,,,,,,,,,0,53,53,13,1,,,,,,,,,,,,,,,,,,,,,,,,
,,,,,,,,,,,,a,0.587,Incorrect,,,,,,t1.png,t3.png,2,0.056466,36,female,2020-09-28_12h17.38.397,torte-2b,2020.1.3,MacIntel,60,13319,,,,,,,,,,,,,,,,,,,,,,,,,,,,,,,,,,,,,0,54,54,87,1,,,,,,,,,,,,,,,,,,,,,,,,
,,,,,,,,,,,,a,0.59,Correct!,,,,,,t4.png,t4.png,0,0.98115,36,female,2020-09-28_12h17.38.397,torte-2b,2020.1.3,MacIntel,60,13319,,,,,,,,,,,,,,,,,,,,,,,,,,,,,,,,,,,,,0,55,55,80,1,,,,,,,,,,,,,,,,,,,,,,,,
,,,,,,,,,,,,l,0.604,Correct!,,,,,,t1.png,t5.png,4,9.55E-11,36,female,2020-09-28_12h17.38.397,torte-2b,2020.1.3,MacIntel,60,13319,,,,,,,,,,,,,,,,,,,,,,,,,,,,,,,,,,,,,0,56,56,55,1,,,,,,,,,,,,,,,,,,,,,,,,
,,,,,,,,,,,,a,0.625,Correct!,,,,,,t2.png,t1.png,1,0.9,36,female,2020-09-28_12h17.38.397,torte-2b,2020.1.3,MacIntel,60,13319,,,,,,,,,,,,,,,,,,,,,,,,,,,,,,,,,,,,,0,57,57,118,1,,,,,,,,,,,,,,,,,,,,,,,,
,,,,,,,,,,,,a,0.638,Incorrect,,,,,,t4.png,t3.png,1,0.90855,36,female,2020-09-28_12h17.38.397,torte-2b,2020.1.3,MacIntel,60,13319,,,,,,,,,,,,,,,,,,,,,,,,,,,,,,,,,,,,,0,58,58,45,1,,,,,,,,,,,,,,,,,,,,,,,,
,,,,,,,,,,,,a,0.687,Incorrect,,,,,,t2.png,t5.png,3,0.0000131,36,female,2020-09-28_12h17.38.397,torte-2b,2020.1.3,MacIntel,60,13319,,,,,,,,,,,,,,,,,,,,,,,,,,,,,,,,,,,,,0,59,59,104,1,,,,,,,,,,,,,,,,,,,,,,,,
,,,,,,,,,,,,a,0.656,Correct!,,,,,,t3.png,t2.png,1,0.909,36,female,2020-09-28_12h17.38.397,torte-2b,2020.1.3,MacIntel,60,13319,,,,,,,,,,,,,,,,,,,,,,,,,,,,,,,,,,,,,0,60,60,3,1,,,,,,,,,,,,,,,,,,,,,,,,
,,,,,,,,,,,,a,0.622,Incorrect,,,,,,t1.png,t3.png,2,0.056466,36,female,2020-09-28_12h17.38.397,torte-2b,2020.1.3,MacIntel,60,13319,,,,,,,,,,,,,,,,,,,,,,,,,,,,,,,,,,,,,0,61,61,69,1,,,,,,,,,,,,,,,,,,,,,,,,
,,,,,,,,,,,,a,0.706,Incorrect,,,,,,t4.png,t2.png,2,0.059078,36,female,2020-09-28_12h17.38.397,torte-2b,2020.1.3,MacIntel,60,13319,,,,,,,,,,,,,,,,,,,,,,,,,,,,,,,,,,,,,0,62,62,88,1,,,,,,,,,,,,,,,,,,,,,,,,
,,,,,,,,,,,,a,0.823,Incorrect,,,,,,t1.png,t4.png,3,0.0000131,36,female,2020-09-28_12h17.38.397,torte-2b,2020.1.3,MacIntel,60,13319,,,,,,,,,,,,,,,,,,,,,,,,,,,,,,,,,,,,,0,63,63,92,1,,,,,,,,,,,,,,,,,,,,,,,,
,,,,,,,,,,,,a,0.569,Incorrect,,,,,,t2.png,t1.png,1,0.90025,36,female,2020-09-28_12h17.38.397,torte-2b,2020.1.3,MacIntel,60,13319,,,,,,,,,,,,,,,,,,,,,,,,,,,,,,,,,,,,,0,64,64,4,1,,,,,,,,,,,,,,,,,,,,,,,,
,,,,,,,,,,,,a,0.558,Incorrect,,,,,,t1.png,t3.png,2,0.056466,36,female,2020-09-28_12h17.38.397,torte-2b,2020.1.3,MacIntel,60,13319,,,,,,,,,,,,,,,,,,,,,,,,,,,,,,,,,,,,,0,65,65,63,1,,,,,,,,,,,,,,,,,,,,,,,,
,,,,,,,,,,,,a,0.536,Incorrect,,,,,,t4.png,t1.png,3,0.0000131,36,female,2020-09-28_12h17.38.397,torte-2b,2020.1.3,MacIntel,60,13319,,,,,,,,,,,,,,,,,,,,,,,,,,,,,,,,,,,,,0,66,66,93,1,,,,,,,,,,,,,,,,,,,,,,,,
,,,,,,,,,,,,l,0.589,Correct!,,,,,,t1.png,t4.png,3,0.0000131,36,female,2020-09-28_12h17.38.397,torte-2b,2020.1.3,MacIntel,60,13319,,,,,,,,,,,,,,,,,,,,,,,,,,,,,,,,,,,,,0,67,67,81,1,,,,,,,,,,,,,,,,,,,,,,,,
,,,,,,,,,,,,a,0.92,Incorrect,,,,,,t1.png,t4.png,3,0.0000131,36,female,2020-09-28_12h17.38.397,torte-2b,2020.1.3,MacIntel,60,13319,,,,,,,,,,,,,,,,,,,,,,,,,,,,,,,,,,,,,0,68,68,50,1,,,,,,,,,,,,,,,,,,,,,,,,
,,,,,,,,,,,,a,0.856,Correct!,,,,,,t2.png,t3.png,1,0.90855,36,female,2020-09-28_12h17.38.397,torte-2b,2020.1.3,MacIntel,60,13319,,,,,,,,,,,,,,,,,,,,,,,,,,,,,,,,,,,,,0,69,69,68,1,,,,,,,,,,,,,,,,,,,,,,,,
,,,,,,,,,,,,a,0.724,Incorrect,,,,,,t3.png,t5.png,2,0.056466,36,female,2020-09-28_12h17.38.397,torte-2b,2020.1.3,MacIntel,60,13319,,,,,,,,,,,,,,,,,,,,,,,,,,,,,,,,,,,,,0,70,70,44,1,,,,,,,,,,,,,,,,,,,,,,,,
,,,,,,,,,,,,a,0.653,Correct!,,,,,,t5.png,t5.png,0,0.97829,36,female,2020-09-28_12h17.38.397,torte-2b,2020.1.3,MacIntel,60,13319,,,,,,,,,,,,,,,,,,,,,,,,,,,,,,,,,,,,,0,71,71,94,1,,,,,,,,,,,,,,,,,,,,,,,,
,,,,,,,,,,,,a,0.519,Correct!,,,,,,t3.png,t4.png,1,0.909,36,female,2020-09-28_12h17.38.397,torte-2b,2020.1.3,MacIntel,60,13319,,,,,,,,,,,,,,,,,,,,,,,,,,,,,,,,,,,,,0,72,72,106,1,,,,,,,,,,,,,,,,,,,,,,,,
,,,,,,,,,,,,a,0.55,Incorrect,,,,,,t3.png,t1.png,2,0.056466,36,female,2020-09-28_12h17.38.397,torte-2b,2020.1.3,MacIntel,60,13319,,,,,,,,,,,,,,,,,,,,,,,,,,,,,,,,,,,,,0,73,73,64,1,,,,,,,,,,,,,,,,,,,,,,,,
,,,,,,,,,,,,a,0.568,Incorrect,,,,,,t3.png,t5.png,2,0.056466,36,female,2020-09-28_12h17.38.397,torte-2b,2020.1.3,MacIntel,60,13319,,,,,,,,,,,,,,,,,,,,,,,,,,,,,,,,,,,,,0,74,74,6,1,,,,,,,,,,,,,,,,,,,,,,,,
,,,,,,,,,,,,a,0.707,Correct!,,,,,,t1.png,t2.png,1,0.90025,36,female,2020-09-28_12h17.38.397,torte-2b,2020.1.3,MacIntel,60,13319,,,,,,,,,,,,,,,,,,,,,,,,,,,,,,,,,,,,,0,75,75,112,1,,,,,,,,,,,,,,,,,,,,,,,,
,,,,,,,,,,,,a,0.573,Correct!,,,,,,t1.png,t1.png,0,0.978,36,female,2020-09-28_12h17.38.397,torte-2b,2020.1.3,MacIntel,60,13319,,,,,,,,,,,,,,,,,,,,,,,,,,,,,,,,,,,,,0,76,76,54,1,,,,,,,,,,,,,,,,,,,,,,,,
,,,,,,,,,,,,l,1.027,Correct!,,,,,,t4.png,t2.png,2,0.059078,36,female,2020-09-28_12h17.38.397,torte-2b,2020.1.3,MacIntel,60,13319,,,,,,,,,,,,,,,,,,,,,,,,,,,,,,,,,,,,,0,77,77,86,1,,,,,,,,,,,,,,,,,,,,,,,,
,,,,,,,,,,,,a,0.724,Correct!,,,,,,t2.png,t2.png,0,0.981,36,female,2020-09-28_12h17.38.397,torte-2b,2020.1.3,MacIntel,60,13319,,,,,,,,,,,,,,,,,,,,,,,,,,,,,,,,,,,,,0,78,78,101,1,,,,,,,,,,,,,,,,,,,,,,,,
,,,,,,,,,,,,a,1.024,Incorrect,,,,,,t5.png,t2.png,3,0.0000131,36,female,2020-09-28_12h17.38.397,torte-2b,2020.1.3,MacIntel,60,13319,,,,,,,,,,,,,,,,,,,,,,,,,,,,,,,,,,,,,0,79,79,116,1,,,,,,,,,,,,,,,,,,,,,,,,
,,,,,,,,,,,,a,0.691,Correct!,,,,,,t3.png,t2.png,1,0.90855,36,female,2020-09-28_12h17.38.397,torte-2b,2020.1.3,MacIntel,60,13319,,,,,,,,,,,,,,,,,,,,,,,,,,,,,,,,,,,,,0,80,80,53,1,,,,,,,,,,,,,,,,,,,,,,,,
,,,,,,,,,,,,a,0.722,Incorrect,,,,,,t4.png,t1.png,3,0.0000131,36,female,2020-09-28_12h17.38.397,torte-2b,2020.1.3,MacIntel,60,13319,,,,,,,,,,,,,,,,,,,,,,,,,,,,,,,,,,,,,0,81,81,42,1,,,,,,,,,,,,,,,,,,,,,,,,
,,,,,,,,,,,,a,0.754,Incorrect,,,,,,t5.png,t2.png,3,0.0000131,36,female,2020-09-28_12h17.38.397,torte-2b,2020.1.3,MacIntel,60,13319,,,,,,,,,,,,,,,,,,,,,,,,,,,,,,,,,,,,,0,82,82,91,1,,,,,,,,,,,,,,,,,,,,,,,,
,,,,,,,,,,,,a,0.736,Incorrect,,,,,,t3.png,t5.png,2,0.056466,36,female,2020-09-28_12h17.38.397,torte-2b,2020.1.3,MacIntel,60,13319,,,,,,,,,,,,,,,,,,,,,,,,,,,,,,,,,,,,,0,83,83,14,1,,,,,,,,,,,,,,,,,,,,,,,,
,,,,,,,,,,,,a,0.856,Correct!,,,,,,t3.png,t4.png,1,0.90855,36,female,2020-09-28_12h17.38.397,torte-2b,2020.1.3,MacIntel,60,13319,,,,,,,,,,,,,,,,,,,,,,,,,,,,,,,,,,,,,0,84,84,84,1,,,,,,,,,,,,,,,,,,,,,,,,
,,,,,,,,,,,,l,1.156,Correct!,,,,,,t4.png,t2.png,2,0.059078,36,female,2020-09-28_12h17.38.397,torte-2b,2020.1.3,MacIntel,60,13319,,,,,,,,,,,,,,,,,,,,,,,,,,,,,,,,,,,,,0,85,85,109,1,,,,,,,,,,,,,,,,,,,,,,,,
,,,,,,,,,,,,l,0.888,Correct!,,,,,,t2.png,t4.png,2,0.059078,36,female,2020-09-28_12h17.38.397,torte-2b,2020.1.3,MacIntel,60,13319,,,,,,,,,,,,,,,,,,,,,,,,,,,,,,,,,,,,,0,86,86,24,1,,,,,,,,,,,,,,,,,,,,,,,,
,,,,,,,,,,,,a,0.728,Incorrect,,,,,,t3.png,t5.png,2,0.0565,36,female,2020-09-28_12h17.38.397,torte-2b,2020.1.3,MacIntel,60,13319,,,,,,,,,,,,,,,,,,,,,,,,,,,,,,,,,,,,,0,87,87,30,1,,,,,,,,,,,,,,,,,,,,,,,,
,,,,,,,,,,,,a,0.709,Correct!,,,,,,t2.png,t3.png,1,0.90855,36,female,2020-09-28_12h17.38.397,torte-2b,2020.1.3,MacIntel,60,13319,,,,,,,,,,,,,,,,,,,,,,,,,,,,,,,,,,,,,0,88,88,10,1,,,,,,,,,,,,,,,,,,,,,,,,
,,,,,,,,,,,,l,0.812,Correct!,,,,,,t2.png,t4.png,2,0.059078,36,female,2020-09-28_12h17.38.397,torte-2b,2020.1.3,MacIntel,60,13319,,,,,,,,,,,,,,,,,,,,,,,,,,,,,,,,,,,,,0,89,89,77,1,,,,,,,,,,,,,,,,,,,,,,,,
,,,,,,,,,,,,a,0.908,Correct!,,,,,,t3.png,t2.png,1,0.90855,36,female,2020-09-28_12h17.38.397,torte-2b,2020.1.3,MacIntel,60,13319,,,,,,,,,,,,,,,,,,,,,,,,,,,,,,,,,,,,,0,90,90,18,1,,,,,,,,,,,,,,,,,,,,,,,,
,,,,,,,,,,,,a,0.675,Correct!,,,,,,t1.png,t2.png,1,0.90025,36,female,2020-09-28_12h17.38.397,torte-2b,2020.1.3,MacIntel,60,13319,,,,,,,,,,,,,,,,,,,,,,,,,,,,,,,,,,,,,0,91,91,33,1,,,,,,,,,,,,,,,,,,,,,,,,
,,,,,,,,,,,,a,0.653,Correct!,,,,,,t1.png,t1.png,0,0.97829,36,female,2020-09-28_12h17.38.397,torte-2b,2020.1.3,MacIntel,60,13319,,,,,,,,,,,,,,,,,,,,,,,,,,,,,,,,,,,,,0,92,92,78,1,,,,,,,,,,,,,,,,,,,,,,,,
,,,,,,,,,,,,a,0.606,Correct!,,,,,,t2.png,t2.png,0,0.98115,36,female,2020-09-28_12h17.38.397,torte-2b,2020.1.3,MacIntel,60,13319,,,,,,,,,,,,,,,,,,,,,,,,,,,,,,,,,,,,,0,93,93,59,1,,,,,,,,,,,,,,,,,,,,,,,,
,,,,,,,,,,,,l,0.807,Correct!,,,,,,t4.png,t2.png,2,0.059078,36,female,2020-09-28_12h17.38.397,torte-2b,2020.1.3,MacIntel,60,13319,,,,,,,,,,,,,,,,,,,,,,,,,,,,,,,,,,,,,0,94,94,110,1,,,,,,,,,,,,,,,,,,,,,,,,
,,,,,,,,,,,,a,0.744,Incorrect,,,,,,t4.png,t1.png,3,0.0000131,36,female,2020-09-28_12h17.38.397,torte-2b,2020.1.3,MacIntel,60,13319,,,,,,,,,,,,,,,,,,,,,,,,,,,,,,,,,,,,,0,95,95,48,1,,,,,,,,,,,,,,,,,,,,,,,,
,,,,,,,,,,,,a,0.92,Correct!,,,,,,t5.png,t4.png,1,0.90025,36,female,2020-09-28_12h17.38.397,torte-2b,2020.1.3,MacIntel,60,13319,,,,,,,,,,,,,,,,,,,,,,,,,,,,,,,,,,,,,0,96,96,34,1,,,,,,,,,,,,,,,,,,,,,,,,
,,,,,,,,,,,,a,0.875,Correct!,,,,,,t4.png,t3.png,1,0.90855,36,female,2020-09-28_12h17.38.397,torte-2b,2020.1.3,MacIntel,60,13319,,,,,,,,,,,,,,,,,,,,,,,,,,,,,,,,,,,,,0,97,97,75,1,,,,,,,,,,,,,,,,,,,,,,,,
,,,,,,,,,,,,l,0.686,Correct!,,,,,,t5.png,t1.png,4,9.55E-11,36,female,2020-09-28_12h17.38.397,torte-2b,2020.1.3,MacIntel,60,13319,,,,,,,,,,,,,,,,,,,,,,,,,,,,,,,,,,,,,0,98,98,71,1,,,,,,,,,,,,,,,,,,,,,,,,
,,,,,,,,,,,,a,0.605,Incorrect,,,,,,t1.png,t3.png,2,0.056466,36,female,2020-09-28_12h17.38.397,torte-2b,2020.1.3,MacIntel,60,13319,,,,,,,,,,,,,,,,,,,,,,,,,,,,,,,,,,,,,0,99,99,99,1,,,,,,,,,,,,,,,,,,,,,,,,
,,,,,,,,,,,,l,0.634,Correct!,,,,,,t5.png,t1.png,4,9.55E-11,36,female,2020-09-28_12h17.38.397,torte-2b,2020.1.3,MacIntel,60,13319,,,,,,,,,,,,,,,,,,,,,,,,,,,,,,,,,,,,,0,100,100,102,1,,,,,,,,,,,,,,,,,,,,,,,,
,,,,,,,,,,,,a,0.673,Correct!,,,,,,t4.png,t5.png,1,0.90025,36,female,2020-09-28_12h17.38.397,torte-2b,2020.1.3,MacIntel,60,13319,,,,,,,,,,,,,,,,,,,,,,,,,,,,,,,,,,,,,0,101,101,103,1,,,,,,,,,,,,,,,,,,,,,,,,
,,,,,,,,,,,,a,0.705,Incorrect,,,,,,t5.png,t3.png,2,0.056466,36,female,2020-09-28_12h17.38.397,torte-2b,2020.1.3,MacIntel,60,13319,,,,,,,,,,,,,,,,,,,,,,,,,,,,,,,,,,,,,0,102,102,114,1,,,,,,,,,,,,,,,,,,,,,,,,
,,,,,,,,,,,,a,0.736,Correct!,,,,,,t3.png,t4.png,1,0.909,36,female,2020-09-28_12h17.38.397,torte-2b,2020.1.3,MacIntel,60,13319,,,,,,,,,,,,,,,,,,,,,,,,,,,,,,,,,,,,,0,103,103,82,1,,,,,,,,,,,,,,,,,,,,,,,,
,,,,,,,,,,,,a,0.657,Incorrect,,,,,,t5.png,t3.png,2,0.0565,36,female,2020-09-28_12h17.38.397,torte-2b,2020.1.3,MacIntel,60,13319,,,,,,,,,,,,,,,,,,,,,,,,,,,,,,,,,,,,,0,104,104,39,1,,,,,,,,,,,,,,,,,,,,,,,,
,,,,,,,,,,,,a,0.989,Incorrect,,,,,,t2.png,t5.png,3,0.0000131,36,female,2020-09-28_12h17.38.397,torte-2b,2020.1.3,MacIntel,60,13319,,,,,,,,,,,,,,,,,,,,,,,,,,,,,,,,,,,,,0,105,105,95,1,,,,,,,,,,,,,,,,,,,,,,,,
,,,,,,,,,,,,l,0.657,Correct!,,,,,,t1.png,t5.png,4,9.55E-11,36,female,2020-09-28_12h17.38.397,torte-2b,2020.1.3,MacIntel,60,13319,,,,,,,,,,,,,,,,,,,,,,,,,,,,,,,,,,,,,0,106,106,85,1,,,,,,,,,,,,,,,,,,,,,,,,
,,,,,,,,,,,,a,0.607,Correct!,,,,,,t4.png,t5.png,1,0.90025,36,female,2020-09-28_12h17.38.397,torte-2b,2020.1.3,MacIntel,60,13319,,,,,,,,,,,,,,,,,,,,,,,,,,,,,,,,,,,,,0,107,107,113,1,,,,,,,,,,,,,,,,,,,,,,,,
,,,,,,,,,,,,l,0.678,Correct!,,,,,,t1.png,t3.png,2,0.056466,36,female,2020-09-28_12h17.38.397,torte-2b,2020.1.3,MacIntel,60,13319,,,,,,,,,,,,,,,,,,,,,,,,,,,,,,,,,,,,,0,108,108,60,1,,,,,,,,,,,,,,,,,,,,,,,,
,,,,,,,,,,,,a,0.64,Correct!,,,,,,t5.png,t5.png,0,0.97829,36,female,2020-09-28_12h17.38.397,torte-2b,2020.1.3,MacIntel,60,13319,,,,,,,,,,,,,,,,,,,,,,,,,,,,,,,,,,,,,0,109,109,25,1,,,,,,,,,,,,,,,,,,,,,,,,
,,,,,,,,,,,,a,0.689,Correct!,,,,,,t2.png,t1.png,1,0.90025,36,female,2020-09-28_12h17.38.397,torte-2b,2020.1.3,MacIntel,60,13319,,,,,,,,,,,,,,,,,,,,,,,,,,,,,,,,,,,,,0,110,110,19,1,,,,,,,,,,,,,,,,,,,,,,,,
,,,,,,,,,,,,a,0.803,Correct!,,,,,,t2.png,t3.png,1,0.90855,36,female,2020-09-28_12h17.38.397,torte-2b,2020.1.3,MacIntel,60,13319,,,,,,,,,,,,,,,,,,,,,,,,,,,,,,,,,,,,,0,111,111,111,1,,,,,,,,,,,,,,,,,,,,,,,,
,,,,,,,,,,,,a,0.64,Correct!,,,,,,t4.png,t5.png,1,0.90025,36,female,2020-09-28_12h17.38.397,torte-2b,2020.1.3,MacIntel,60,13319,,,,,,,,,,,,,,,,,,,,,,,,,,,,,,,,,,,,,0,112,112,47,1,,,,,,,,,,,,,,,,,,,,,,,,
,,,,,,,,,,,,a,0.524,Correct!,,,,,,t1.png,t1.png,0,0.97829,36,female,2020-09-28_12h17.38.397,torte-2b,2020.1.3,MacIntel,60,13319,,,,,,,,,,,,,,,,,,,,,,,,,,,,,,,,,,,,,0,113,113,67,1,,,,,,,,,,,,,,,,,,,,,,,,
,,,,,,,,,,,,a,0.523,Incorrect,,,,,,t2.png,t4.png,2,0.0591,36,female,2020-09-28_12h17.38.397,torte-2b,2020.1.3,MacIntel,60,13319,,,,,,,,,,,,,,,,,,,,,,,,,,,,,,,,,,,,,0,114,114,15,1,,,,,,,,,,,,,,,,,,,,,,,,
,,,,,,,,,,,,l,0.736,Correct!,,,,,,t2.png,t4.png,2,0.059078,36,female,2020-09-28_12h17.38.397,torte-2b,2020.1.3,MacIntel,60,13319,,,,,,,,,,,,,,,,,,,,,,,,,,,,,,,,,,,,,0,115,115,11,1,,,,,,,,,,,,,,,,,,,,,,,,
,,,,,,,,,,,,l,0.776,Correct!,,,,,,t5.png,t1.png,4,9.55E-11,36,female,2020-09-28_12h17.38.397,torte-2b,2020.1.3,MacIntel,60,13319,,,,,,,,,,,,,,,,,,,,,,,,,,,,,,,,,,,,,0,116,116,22,1,,,,,,,,,,,,,,,,,,,,,,,,
,,,,,,,,,,,,a,0.642,Correct!,,,,,,t4.png,t3.png,1,0.909,36,female,2020-09-28_12h17.38.397,torte-2b,2020.1.3,MacIntel,60,13319,,,,,,,,,,,,,,,,,,,,,,,,,,,,,,,,,,,,,0,117,117,46,1,,,,,,,,,,,,,,,,,,,,,,,,
,,,,,,,,,,,,a,0.656,Incorrect,,,,,,t1.png,t4.png,3,0.0000131,36,female,2020-09-28_12h17.38.397,torte-2b,2020.1.3,MacIntel,60,13319,,,,,,,,,,,,,,,,,,,,,,,,,,,,,,,,,,,,,0,118,118,107,1,,,,,,,,,,,,,,,,,,,,,,,,
,,,,,,,,,,,,l,0.637,Correct!,,,,,,t2.png,t4.png,2,0.059078,36,female,2020-09-28_12h17.38.397,torte-2b,2020.1.3,MacIntel,60,13319,,,,,,,,,,,,,,,,,,,,,,,,,,,,,,,,,,,,,0,119,119,37,1,,,,,,,,,,,,,,,,,,,,,,,,
,,,,,,,,,,,,,,,,,,,,,,,,36,female,2020-09-28_12h17.38.397,torte-2b,2020.1.3,MacIntel,60,13319,space,1.555,,,,,,,,,,,,,,,,,,,,,,,,,,,,,,,,,,,,,,,,-147,120,1,0,0,s2,-33,81,1,0,0,t1,157,-101,1,0,0,proceed,space,4.753,space,1.788,space,1.19
