key_resp_8.keys,key_resp_8.rt,key_resp_9.keys,key_resp_9.rt,key_resp_10.keys,key_resp_10.rt,key_resp_11.keys,key_resp_11.rt,key_resp_2.keys,key_resp_2.rt,key_resp_3.keys,key_resp_3.rt,key_resp.keys,Feedback,train.thisRepN,train.thisTrialN,train.thisN,train.thisIndex,train.ran,torta_sx,torta_dx,difference,probability,age,gender,date,expName,psychopyVersion,OS,frameRate,participant,key_resp.rt,key_resp_15.keys,key_resp_15.rt,key_resp_6.keys,key_resp_6.rt,test1.thisRepN,test1.thisTrialN,test1.thisN,test1.thisIndex,test1.ran,key_resp_4.keys,key_resp_4.rt,key_resp_5.keys,back1.thisRepN,back1.thisTrialN,back1.thisN,back1.thisIndex,back1.ran,letter,key_resp_5.rt,back2.thisRepN,back2.thisTrialN,back2.thisN,back2.thisIndex,back2.ran,back3.thisRepN,back3.thisTrialN,back3.thisN,back3.thisIndex,back3.ran,back4.thisRepN,back4.thisTrialN,back4.thisN,back4.thisIndex,back4.ran,key_resp_7.keys,key_resp_7.rt,test2.thisRepN,test2.thisTrialN,test2.thisN,test2.thisIndex,test2.ran,mouse.x,mouse.y,mouse.leftButton,mouse.midButton,mouse.rightButton,mouse.clicked_name,mouse_2.x,mouse_2.y,mouse_2.leftButton,mouse_2.midButton,mouse_2.rightButton,mouse_2.clicked_name,mouse_3.x,mouse_3.y,mouse_3.leftButton,mouse_3.midButton,mouse_3.rightButton,mouse_3.clicked_name,key_resp_12.keys,key_resp_12.rt,key_resp_13.keys,key_resp_13.rt,key_resp_14.keys,key_resp_14.rt
space,12.555975,space,7.568495,space,0.30803,space,0.16654,d,0.03133,space,75.75284,,Too slow :(,0,0,0,64,1,t5.png,t1.png,4,9.55E-11,19,female,2020-08-18_20h23.19.990,torte-2b,2020.1.3,MacIntel,60,13320,,,,,,,,,,,,,,,,,,,,,,,,,,,,,,,,,,,,,,,,,,,,,,,,,,,,,,,,,,,,,,,,,,
,,,,,,,,,,,,a,Incorrect,0,1,1,79,1,t1.png,t4.png,3,0.0000131,19,female,2020-08-18_20h23.19.990,torte-2b,2020.1.3,MacIntel,60,13320,1.33035,,,,,,,,,,,,,,,,,,,,,,,,,,,,,,,,,,,,,,,,,,,,,,,,,,,,,,,,,,,,,,,,,
,,,,,,,,,,,,l,Incorrect,0,2,2,23,1,t4.png,t5.png,1,0.90025,19,female,2020-08-18_20h23.19.990,torte-2b,2020.1.3,MacIntel,60,13320,1.23664,,,,,,,,,,,,,,,,,,,,,,,,,,,,,,,,,,,,,,,,,,,,,,,,,,,,,,,,,,,,,,,,,
,,,,,,,,,,,,l,Incorrect,0,3,3,111,1,t1.png,t1.png,0,0.97829,19,female,2020-08-18_20h23.19.990,torte-2b,2020.1.3,MacIntel,60,13320,1.023745,,,,,,,,,,,,,,,,,,,,,,,,,,,,,,,,,,,,,,,,,,,,,,,,,,,,,,,,,,,,,,,,,
,,,,,,,,,,,,a,Correct!,0,4,4,42,1,t5.png,t5.png,0,0.97829,19,female,2020-08-18_20h23.19.990,torte-2b,2020.1.3,MacIntel,60,13320,0.930935,,,,,,,,,,,,,,,,,,,,,,,,,,,,,,,,,,,,,,,,,,,,,,,,,,,,,,,,,,,,,,,,,
,,,,,,,,,,,,a,Incorrect,0,5,5,95,1,t1.png,t4.png,3,0.0000131,19,female,2020-08-18_20h23.19.990,torte-2b,2020.1.3,MacIntel,60,13320,0.742535,,,,,,,,,,,,,,,,,,,,,,,,,,,,,,,,,,,,,,,,,,,,,,,,,,,,,,,,,,,,,,,,,
,,,,,,,,,,,,a,Correct!,0,6,6,90,1,t4.png,t5.png,1,0.90025,19,female,2020-08-18_20h23.19.990,torte-2b,2020.1.3,MacIntel,60,13320,1.355075,,,,,,,,,,,,,,,,,,,,,,,,,,,,,,,,,,,,,,,,,,,,,,,,,,,,,,,,,,,,,,,,,
,,,,,,,,,,,,l,Correct!,0,7,7,11,1,t1.png,t4.png,3,0.0000131,19,female,2020-08-18_20h23.19.990,torte-2b,2020.1.3,MacIntel,60,13320,0.809665,,,,,,,,,,,,,,,,,,,,,,,,,,,,,,,,,,,,,,,,,,,,,,,,,,,,,,,,,,,,,,,,,
,,,,,,,,,,,,a,Incorrect,0,8,8,66,1,t5.png,t1.png,4,9.55E-11,19,female,2020-08-18_20h23.19.990,torte-2b,2020.1.3,MacIntel,60,13320,1.232515,,,,,,,,,,,,,,,,,,,,,,,,,,,,,,,,,,,,,,,,,,,,,,,,,,,,,,,,,,,,,,,,,
,,,,,,,,,,,,l,Incorrect,0,9,9,104,1,t4.png,t5.png,1,0.90025,19,female,2020-08-18_20h23.19.990,torte-2b,2020.1.3,MacIntel,60,13320,1.20306,,,,,,,,,,,,,,,,,,,,,,,,,,,,,,,,,,,,,,,,,,,,,,,,,,,,,,,,,,,,,,,,,
,,,,,,,,,,,,a,Incorrect,0,10,10,78,1,t1.png,t4.png,3,0.0000131,19,female,2020-08-18_20h23.19.990,torte-2b,2020.1.3,MacIntel,60,13320,1.87328,,,,,,,,,,,,,,,,,,,,,,,,,,,,,,,,,,,,,,,,,,,,,,,,,,,,,,,,,,,,,,,,,
,,,,,,,,,,,,l,Correct!,0,11,11,54,1,t3.png,t1.png,2,0.056466,19,female,2020-08-18_20h23.19.990,torte-2b,2020.1.3,MacIntel,60,13320,1.55481,,,,,,,,,,,,,,,,,,,,,,,,,,,,,,,,,,,,,,,,,,,,,,,,,,,,,,,,,,,,,,,,,
,,,,,,,,,,,,l,Correct!,0,12,12,62,1,t1.png,t4.png,3,0.0000131,19,female,2020-08-18_20h23.19.990,torte-2b,2020.1.3,MacIntel,60,13320,1.326935,,,,,,,,,,,,,,,,,,,,,,,,,,,,,,,,,,,,,,,,,,,,,,,,,,,,,,,,,,,,,,,,,
,,,,,,,,,,,,a,Correct!,0,13,13,65,1,t5.png,t5.png,0,0.97829,19,female,2020-08-18_20h23.19.990,torte-2b,2020.1.3,MacIntel,60,13320,1.41737,,,,,,,,,,,,,,,,,,,,,,,,,,,,,,,,,,,,,,,,,,,,,,,,,,,,,,,,,,,,,,,,,
,,,,,,,,,,,,l,Correct!,0,14,14,68,1,t2.png,t4.png,2,0.059078,19,female,2020-08-18_20h23.19.990,torte-2b,2020.1.3,MacIntel,60,13320,1.43288,,,,,,,,,,,,,,,,,,,,,,,,,,,,,,,,,,,,,,,,,,,,,,,,,,,,,,,,,,,,,,,,,
,,,,,,,,,,,,l,Correct!,0,15,15,28,1,t1.png,t4.png,3,0.0000131,19,female,2020-08-18_20h23.19.990,torte-2b,2020.1.3,MacIntel,60,13320,1.34154,,,,,,,,,,,,,,,,,,,,,,,,,,,,,,,,,,,,,,,,,,,,,,,,,,,,,,,,,,,,,,,,,
,,,,,,,,,,,,l,Correct!,0,16,16,115,1,t2.png,t4.png,2,0.059078,19,female,2020-08-18_20h23.19.990,torte-2b,2020.1.3,MacIntel,60,13320,1.07519,,,,,,,,,,,,,,,,,,,,,,,,,,,,,,,,,,,,,,,,,,,,,,,,,,,,,,,,,,,,,,,,,
,,,,,,,,,,,,a,Incorrect,0,17,17,6,1,t5.png,t1.png,4,9.55E-11,19,female,2020-08-18_20h23.19.990,torte-2b,2020.1.3,MacIntel,60,13320,1.380925,,,,,,,,,,,,,,,,,,,,,,,,,,,,,,,,,,,,,,,,,,,,,,,,,,,,,,,,,,,,,,,,,
,,,,,,,,,,,,a,Correct!,0,18,18,93,1,t5.png,t4.png,1,0.90025,19,female,2020-08-18_20h23.19.990,torte-2b,2020.1.3,MacIntel,60,13320,1.862585,,,,,,,,,,,,,,,,,,,,,,,,,,,,,,,,,,,,,,,,,,,,,,,,,,,,,,,,,,,,,,,,,
,,,,,,,,,,,,l,Incorrect,0,19,19,30,1,t2.png,t3.png,1,0.90855,19,female,2020-08-18_20h23.19.990,torte-2b,2020.1.3,MacIntel,60,13320,1.286215,,,,,,,,,,,,,,,,,,,,,,,,,,,,,,,,,,,,,,,,,,,,,,,,,,,,,,,,,,,,,,,,,
,,,,,,,,,,,,l,Correct!,0,20,20,34,1,t1.png,t5.png,4,9.55E-11,19,female,2020-08-18_20h23.19.990,torte-2b,2020.1.3,MacIntel,60,13320,1.522355,,,,,,,,,,,,,,,,,,,,,,,,,,,,,,,,,,,,,,,,,,,,,,,,,,,,,,,,,,,,,,,,,
,,,,,,,,,,,,l,Incorrect,0,21,21,71,1,t4.png,t5.png,1,0.90025,19,female,2020-08-18_20h23.19.990,torte-2b,2020.1.3,MacIntel,60,13320,1.17959,,,,,,,,,,,,,,,,,,,,,,,,,,,,,,,,,,,,,,,,,,,,,,,,,,,,,,,,,,,,,,,,,
,,,,,,,,,,,,l,Correct!,0,22,22,63,1,t1.png,t5.png,4,9.55E-11,19,female,2020-08-18_20h23.19.990,torte-2b,2020.1.3,MacIntel,60,13320,1.376515,,,,,,,,,,,,,,,,,,,,,,,,,,,,,,,,,,,,,,,,,,,,,,,,,,,,,,,,,,,,,,,,,
,,,,,,,,,,,,a,Incorrect,0,23,23,37,1,t2.png,t4.png,2,0.059078,19,female,2020-08-18_20h23.19.990,torte-2b,2020.1.3,MacIntel,60,13320,0.74131,,,,,,,,,,,,,,,,,,,,,,,,,,,,,,,,,,,,,,,,,,,,,,,,,,,,,,,,,,,,,,,,,
,,,,,,,,,,,,a,Correct!,0,24,24,12,1,t5.png,t5.png,0,0.97829,19,female,2020-08-18_20h23.19.990,torte-2b,2020.1.3,MacIntel,60,13320,1.14807,,,,,,,,,,,,,,,,,,,,,,,,,,,,,,,,,,,,,,,,,,,,,,,,,,,,,,,,,,,,,,,,,
,,,,,,,,,,,,a,Correct!,0,25,25,109,1,t5.png,t5.png,0,0.97829,19,female,2020-08-18_20h23.19.990,torte-2b,2020.1.3,MacIntel,60,13320,0.80181,,,,,,,,,,,,,,,,,,,,,,,,,,,,,,,,,,,,,,,,,,,,,,,,,,,,,,,,,,,,,,,,,
,,,,,,,,,,,,l,Correct!,0,26,26,103,1,t4.png,t1.png,3,0.059078,19,female,2020-08-18_20h23.19.990,torte-2b,2020.1.3,MacIntel,60,13320,1.21493,,,,,,,,,,,,,,,,,,,,,,,,,,,,,,,,,,,,,,,,,,,,,,,,,,,,,,,,,,,,,,,,,
,,,,,,,,,,,,l,Incorrect,0,27,27,100,1,t3.png,t2.png,1,0.90855,19,female,2020-08-18_20h23.19.990,torte-2b,2020.1.3,MacIntel,60,13320,1.1613,,,,,,,,,,,,,,,,,,,,,,,,,,,,,,,,,,,,,,,,,,,,,,,,,,,,,,,,,,,,,,,,,
,,,,,,,,,,,,a,Correct!,0,28,28,112,1,t5.png,t4.png,1,0.90025,19,female,2020-08-18_20h23.19.990,torte-2b,2020.1.3,MacIntel,60,13320,0.885575,,,,,,,,,,,,,,,,,,,,,,,,,,,,,,,,,,,,,,,,,,,,,,,,,,,,,,,,,,,,,,,,,
,,,,,,,,,,,,a,Correct!,0,29,29,24,1,t5.png,t5.png,0,0.97829,19,female,2020-08-18_20h23.19.990,torte-2b,2020.1.3,MacIntel,60,13320,0.71881,,,,,,,,,,,,,,,,,,,,,,,,,,,,,,,,,,,,,,,,,,,,,,,,,,,,,,,,,,,,,,,,,
,,,,,,,,,,,,a,Incorrect,0,30,30,80,1,t4.png,t1.png,3,0.059078,19,female,2020-08-18_20h23.19.990,torte-2b,2020.1.3,MacIntel,60,13320,1.216245,,,,,,,,,,,,,,,,,,,,,,,,,,,,,,,,,,,,,,,,,,,,,,,,,,,,,,,,,,,,,,,,,
,,,,,,,,,,,,l,Correct!,0,31,31,105,1,t4.png,t1.png,3,0.059078,19,female,2020-08-18_20h23.19.990,torte-2b,2020.1.3,MacIntel,60,13320,0.853495,,,,,,,,,,,,,,,,,,,,,,,,,,,,,,,,,,,,,,,,,,,,,,,,,,,,,,,,,,,,,,,,,
,,,,,,,,,,,,a,Correct!,0,32,32,22,1,t5.png,t5.png,0,0.97829,19,female,2020-08-18_20h23.19.990,torte-2b,2020.1.3,MacIntel,60,13320,0.806325,,,,,,,,,,,,,,,,,,,,,,,,,,,,,,,,,,,,,,,,,,,,,,,,,,,,,,,,,,,,,,,,,
,,,,,,,,,,,,a,Incorrect,0,33,33,87,1,t5.png,t1.png,4,9.55E-11,19,female,2020-08-18_20h23.19.990,torte-2b,2020.1.3,MacIntel,60,13320,0.922395,,,,,,,,,,,,,,,,,,,,,,,,,,,,,,,,,,,,,,,,,,,,,,,,,,,,,,,,,,,,,,,,,
,,,,,,,,,,,,l,Correct!,0,34,34,50,1,t1.png,t5.png,4,9.55E-11,19,female,2020-08-18_20h23.19.990,torte-2b,2020.1.3,MacIntel,60,13320,2.35397,,,,,,,,,,,,,,,,,,,,,,,,,,,,,,,,,,,,,,,,,,,,,,,,,,,,,,,,,,,,,,,,,
,,,,,,,,,,,,a,Correct!,0,35,35,58,1,t4.png,t5.png,1,0.90025,19,female,2020-08-18_20h23.19.990,torte-2b,2020.1.3,MacIntel,60,13320,1.71773,,,,,,,,,,,,,,,,,,,,,,,,,,,,,,,,,,,,,,,,,,,,,,,,,,,,,,,,,,,,,,,,,
,,,,,,,,,,,,a,Correct!,0,36,36,21,1,t5.png,t4.png,1,0.90025,19,female,2020-08-18_20h23.19.990,torte-2b,2020.1.3,MacIntel,60,13320,0.83856,,,,,,,,,,,,,,,,,,,,,,,,,,,,,,,,,,,,,,,,,,,,,,,,,,,,,,,,,,,,,,,,,
,,,,,,,,,,,,l,Correct!,0,37,37,35,1,t1.png,t4.png,3,0.0000131,19,female,2020-08-18_20h23.19.990,torte-2b,2020.1.3,MacIntel,60,13320,1.457915,,,,,,,,,,,,,,,,,,,,,,,,,,,,,,,,,,,,,,,,,,,,,,,,,,,,,,,,,,,,,,,,,
,,,,,,,,,,,,a,Correct!,0,38,38,77,1,t3.png,t2.png,1,0.90855,19,female,2020-08-18_20h23.19.990,torte-2b,2020.1.3,MacIntel,60,13320,1.26301,,,,,,,,,,,,,,,,,,,,,,,,,,,,,,,,,,,,,,,,,,,,,,,,,,,,,,,,,,,,,,,,,
,,,,,,,,,,,,l,Correct!,0,39,39,94,1,t3.png,t1.png,2,0.056466,19,female,2020-08-18_20h23.19.990,torte-2b,2020.1.3,MacIntel,60,13320,1.424235,,,,,,,,,,,,,,,,,,,,,,,,,,,,,,,,,,,,,,,,,,,,,,,,,,,,,,,,,,,,,,,,,
,,,,,,,,,,,,l,Incorrect,0,40,40,53,1,t1.png,t1.png,0,0.97829,19,female,2020-08-18_20h23.19.990,torte-2b,2020.1.3,MacIntel,60,13320,1.017815,,,,,,,,,,,,,,,,,,,,,,,,,,,,,,,,,,,,,,,,,,,,,,,,,,,,,,,,,,,,,,,,,
,,,,,,,,,,,,a,Correct!,0,41,41,41,1,t4.png,t5.png,1,0.90025,19,female,2020-08-18_20h23.19.990,torte-2b,2020.1.3,MacIntel,60,13320,1.00101,,,,,,,,,,,,,,,,,,,,,,,,,,,,,,,,,,,,,,,,,,,,,,,,,,,,,,,,,,,,,,,,,
,,,,,,,,,,,,a,Correct!,0,42,42,75,1,t2.png,t3.png,1,0.90855,19,female,2020-08-18_20h23.19.990,torte-2b,2020.1.3,MacIntel,60,13320,1.95933,,,,,,,,,,,,,,,,,,,,,,,,,,,,,,,,,,,,,,,,,,,,,,,,,,,,,,,,,,,,,,,,,
,,,,,,,,,,,,a,Incorrect,0,43,43,44,1,t1.png,t4.png,3,0.0000131,19,female,2020-08-18_20h23.19.990,torte-2b,2020.1.3,MacIntel,60,13320,1.04509,,,,,,,,,,,,,,,,,,,,,,,,,,,,,,,,,,,,,,,,,,,,,,,,,,,,,,,,,,,,,,,,,
,,,,,,,,,,,,a,Correct!,0,44,44,5,1,t5.png,t5.png,0,0.97829,19,female,2020-08-18_20h23.19.990,torte-2b,2020.1.3,MacIntel,60,13320,1.108395,,,,,,,,,,,,,,,,,,,,,,,,,,,,,,,,,,,,,,,,,,,,,,,,,,,,,,,,,,,,,,,,,
,,,,,,,,,,,,l,Correct!,0,45,45,89,1,t1.png,t5.png,4,9.55E-11,19,female,2020-08-18_20h23.19.990,torte-2b,2020.1.3,MacIntel,60,13320,1.64682,,,,,,,,,,,,,,,,,,,,,,,,,,,,,,,,,,,,,,,,,,,,,,,,,,,,,,,,,,,,,,,,,
,,,,,,,,,,,,a,Correct!,0,46,46,52,1,t2.png,t3.png,1,0.90855,19,female,2020-08-18_20h23.19.990,torte-2b,2020.1.3,MacIntel,60,13320,1.83311,,,,,,,,,,,,,,,,,,,,,,,,,,,,,,,,,,,,,,,,,,,,,,,,,,,,,,,,,,,,,,,,,
,,,,,,,,,,,,a,Correct!,0,47,47,69,1,t5.png,t4.png,1,0.90025,19,female,2020-08-18_20h23.19.990,torte-2b,2020.1.3,MacIntel,60,13320,1.47497,,,,,,,,,,,,,,,,,,,,,,,,,,,,,,,,,,,,,,,,,,,,,,,,,,,,,,,,,,,,,,,,,
,,,,,,,,,,,,a,Incorrect,0,48,48,9,1,t1.png,t5.png,4,9.55E-11,19,female,2020-08-18_20h23.19.990,torte-2b,2020.1.3,MacIntel,60,13320,2.052785,,,,,,,,,,,,,,,,,,,,,,,,,,,,,,,,,,,,,,,,,,,,,,,,,,,,,,,,,,,,,,,,,
,,,,,,,,,,,,l,Incorrect,0,49,49,14,1,t2.png,t3.png,1,0.90855,19,female,2020-08-18_20h23.19.990,torte-2b,2020.1.3,MacIntel,60,13320,0.98514,,,,,,,,,,,,,,,,,,,,,,,,,,,,,,,,,,,,,,,,,,,,,,,,,,,,,,,,,,,,,,,,,
,,,,,,,,,,,,a,Incorrect,0,50,50,70,1,t1.png,t5.png,4,9.55E-11,19,female,2020-08-18_20h23.19.990,torte-2b,2020.1.3,MacIntel,60,13320,0.53421,,,,,,,,,,,,,,,,,,,,,,,,,,,,,,,,,,,,,,,,,,,,,,,,,,,,,,,,,,,,,,,,,
,,,,,,,,,,,,a,Correct!,0,51,51,33,1,t3.png,t2.png,1,0.90855,19,female,2020-08-18_20h23.19.990,torte-2b,2020.1.3,MacIntel,60,13320,0.64665,,,,,,,,,,,,,,,,,,,,,,,,,,,,,,,,,,,,,,,,,,,,,,,,,,,,,,,,,,,,,,,,,
,,,,,,,,,,,,l,Correct!,0,52,52,74,1,t5.png,t1.png,4,9.55E-11,19,female,2020-08-18_20h23.19.990,torte-2b,2020.1.3,MacIntel,60,13320,0.471885,,,,,,,,,,,,,,,,,,,,,,,,,,,,,,,,,,,,,,,,,,,,,,,,,,,,,,,,,,,,,,,,,
,,,,,,,,,,,,l,Correct!,0,53,53,17,1,t4.png,t1.png,3,0.059078,19,female,2020-08-18_20h23.19.990,torte-2b,2020.1.3,MacIntel,60,13320,0.6566,,,,,,,,,,,,,,,,,,,,,,,,,,,,,,,,,,,,,,,,,,,,,,,,,,,,,,,,,,,,,,,,,
,,,,,,,,,,,,a,Correct!,0,54,54,60,1,t4.png,t5.png,1,0.90025,19,female,2020-08-18_20h23.19.990,torte-2b,2020.1.3,MacIntel,60,13320,1.00406,,,,,,,,,,,,,,,,,,,,,,,,,,,,,,,,,,,,,,,,,,,,,,,,,,,,,,,,,,,,,,,,,
,,,,,,,,,,,,a,Correct!,0,55,55,84,1,t2.png,t3.png,1,0.90855,19,female,2020-08-18_20h23.19.990,torte-2b,2020.1.3,MacIntel,60,13320,1.262405,,,,,,,,,,,,,,,,,,,,,,,,,,,,,,,,,,,,,,,,,,,,,,,,,,,,,,,,,,,,,,,,,
,,,,,,,,,,,,l,Correct!,0,56,56,106,1,t4.png,t1.png,3,0.059078,19,female,2020-08-18_20h23.19.990,torte-2b,2020.1.3,MacIntel,60,13320,1.456635,,,,,,,,,,,,,,,,,,,,,,,,,,,,,,,,,,,,,,,,,,,,,,,,,,,,,,,,,,,,,,,,,
,,,,,,,,,,,,a,Incorrect,0,57,57,82,1,t3.png,t1.png,2,0.056466,19,female,2020-08-18_20h23.19.990,torte-2b,2020.1.3,MacIntel,60,13320,1.143025,,,,,,,,,,,,,,,,,,,,,,,,,,,,,,,,,,,,,,,,,,,,,,,,,,,,,,,,,,,,,,,,,
,,,,,,,,,,,,l,Correct!,0,58,58,26,1,t1.png,t5.png,4,9.55E-11,19,female,2020-08-18_20h23.19.990,torte-2b,2020.1.3,MacIntel,60,13320,1.64538,,,,,,,,,,,,,,,,,,,,,,,,,,,,,,,,,,,,,,,,,,,,,,,,,,,,,,,,,,,,,,,,,
,,,,,,,,,,,,a,Correct!,0,59,59,4,1,t3.png,t2.png,1,0.90855,19,female,2020-08-18_20h23.19.990,torte-2b,2020.1.3,MacIntel,60,13320,0.84567,,,,,,,,,,,,,,,,,,,,,,,,,,,,,,,,,,,,,,,,,,,,,,,,,,,,,,,,,,,,,,,,,
,,,,,,,,,,,,l,Incorrect,0,60,60,46,1,t1.png,t1.png,0,0.97829,19,female,2020-08-18_20h23.19.990,torte-2b,2020.1.3,MacIntel,60,13320,1.646745,,,,,,,,,,,,,,,,,,,,,,,,,,,,,,,,,,,,,,,,,,,,,,,,,,,,,,,,,,,,,,,,,
,,,,,,,,,,,,l,Correct!,0,61,61,102,1,t2.png,t4.png,2,0.059078,19,female,2020-08-18_20h23.19.990,torte-2b,2020.1.3,MacIntel,60,13320,2.40876,,,,,,,,,,,,,,,,,,,,,,,,,,,,,,,,,,,,,,,,,,,,,,,,,,,,,,,,,,,,,,,,,
,,,,,,,,,,,,l,Correct!,0,62,62,40,1,t2.png,t4.png,2,0.059078,19,female,2020-08-18_20h23.19.990,torte-2b,2020.1.3,MacIntel,60,13320,1.642515,,,,,,,,,,,,,,,,,,,,,,,,,,,,,,,,,,,,,,,,,,,,,,,,,,,,,,,,,,,,,,,,,
,,,,,,,,,,,,l,Correct!,0,63,63,49,1,t5.png,t1.png,4,9.55E-11,19,female,2020-08-18_20h23.19.990,torte-2b,2020.1.3,MacIntel,60,13320,0.928995,,,,,,,,,,,,,,,,,,,,,,,,,,,,,,,,,,,,,,,,,,,,,,,,,,,,,,,,,,,,,,,,,
,,,,,,,,,,,,l,Correct!,0,64,64,13,1,t2.png,t4.png,2,0.059078,19,female,2020-08-18_20h23.19.990,torte-2b,2020.1.3,MacIntel,60,13320,1.27767,,,,,,,,,,,,,,,,,,,,,,,,,,,,,,,,,,,,,,,,,,,,,,,,,,,,,,,,,,,,,,,,,
,,,,,,,,,,,,a,Incorrect,0,65,65,73,1,t3.png,t1.png,2,0.056466,19,female,2020-08-18_20h23.19.990,torte-2b,2020.1.3,MacIntel,60,13320,1.19601,,,,,,,,,,,,,,,,,,,,,,,,,,,,,,,,,,,,,,,,,,,,,,,,,,,,,,,,,,,,,,,,,
,,,,,,,,,,,,a,Correct!,0,66,66,86,1,t5.png,t4.png,1,0.90025,19,female,2020-08-18_20h23.19.990,torte-2b,2020.1.3,MacIntel,60,13320,1.48386,,,,,,,,,,,,,,,,,,,,,,,,,,,,,,,,,,,,,,,,,,,,,,,,,,,,,,,,,,,,,,,,,
,,,,,,,,,,,,l,Incorrect,0,67,67,0,1,t3.png,t2.png,1,0.90855,19,female,2020-08-18_20h23.19.990,torte-2b,2020.1.3,MacIntel,60,13320,1.183855,,,,,,,,,,,,,,,,,,,,,,,,,,,,,,,,,,,,,,,,,,,,,,,,,,,,,,,,,,,,,,,,,
,,,,,,,,,,,,a,Correct!,0,68,68,110,1,t4.png,t5.png,1,0.90025,19,female,2020-08-18_20h23.19.990,torte-2b,2020.1.3,MacIntel,60,13320,2.142555,,,,,,,,,,,,,,,,,,,,,,,,,,,,,,,,,,,,,,,,,,,,,,,,,,,,,,,,,,,,,,,,,
,,,,,,,,,,,,l,Correct!,0,69,69,81,1,t3.png,t1.png,2,0.056466,19,female,2020-08-18_20h23.19.990,torte-2b,2020.1.3,MacIntel,60,13320,1.055195,,,,,,,,,,,,,,,,,,,,,,,,,,,,,,,,,,,,,,,,,,,,,,,,,,,,,,,,,,,,,,,,,
,,,,,,,,,,,,l,Correct!,0,70,70,57,1,t3.png,t1.png,2,0.056466,19,female,2020-08-18_20h23.19.990,torte-2b,2020.1.3,MacIntel,60,13320,1.20607,,,,,,,,,,,,,,,,,,,,,,,,,,,,,,,,,,,,,,,,,,,,,,,,,,,,,,,,,,,,,,,,,
,,,,,,,,,,,,l,Correct!,0,71,71,19,1,t2.png,t4.png,2,0.059078,19,female,2020-08-18_20h23.19.990,torte-2b,2020.1.3,MacIntel,60,13320,1.460655,,,,,,,,,,,,,,,,,,,,,,,,,,,,,,,,,,,,,,,,,,,,,,,,,,,,,,,,,,,,,,,,,
,,,,,,,,,,,,l,Correct!,0,72,72,107,1,t1.png,t4.png,3,0.0000131,19,female,2020-08-18_20h23.19.990,torte-2b,2020.1.3,MacIntel,60,13320,1.216015,,,,,,,,,,,,,,,,,,,,,,,,,,,,,,,,,,,,,,,,,,,,,,,,,,,,,,,,,,,,,,,,,
,,,,,,,,,,,,a,Correct!,0,73,73,116,1,t4.png,t5.png,1,0.90025,19,female,2020-08-18_20h23.19.990,torte-2b,2020.1.3,MacIntel,60,13320,1.0643,,,,,,,,,,,,,,,,,,,,,,,,,,,,,,,,,,,,,,,,,,,,,,,,,,,,,,,,,,,,,,,,,
,,,,,,,,,,,,l,Incorrect,0,74,74,18,1,t2.png,t3.png,1,0.90855,19,female,2020-08-18_20h23.19.990,torte-2b,2020.1.3,MacIntel,60,13320,1.96108,,,,,,,,,,,,,,,,,,,,,,,,,,,,,,,,,,,,,,,,,,,,,,,,,,,,,,,,,,,,,,,,,
,,,,,,,,,,,,a,Correct!,0,75,75,45,1,t4.png,t5.png,1,0.90025,19,female,2020-08-18_20h23.19.990,torte-2b,2020.1.3,MacIntel,60,13320,1.525655,,,,,,,,,,,,,,,,,,,,,,,,,,,,,,,,,,,,,,,,,,,,,,,,,,,,,,,,,,,,,,,,,
,,,,,,,,,,,,l,Incorrect,0,76,76,7,1,t3.png,t2.png,1,0.90855,19,female,2020-08-18_20h23.19.990,torte-2b,2020.1.3,MacIntel,60,13320,1.699455,,,,,,,,,,,,,,,,,,,,,,,,,,,,,,,,,,,,,,,,,,,,,,,,,,,,,,,,,,,,,,,,,
,,,,,,,,,,,,l,Correct!,0,77,77,59,1,t5.png,t1.png,4,9.55E-11,19,female,2020-08-18_20h23.19.990,torte-2b,2020.1.3,MacIntel,60,13320,2.221565,,,,,,,,,,,,,,,,,,,,,,,,,,,,,,,,,,,,,,,,,,,,,,,,,,,,,,,,,,,,,,,,,
,,,,,,,,,,,,l,Correct!,0,78,78,92,1,t5.png,t1.png,4,9.55E-11,19,female,2020-08-18_20h23.19.990,torte-2b,2020.1.3,MacIntel,60,13320,0.8549,,,,,,,,,,,,,,,,,,,,,,,,,,,,,,,,,,,,,,,,,,,,,,,,,,,,,,,,,,,,,,,,,
,,,,,,,,,,,,a,Correct!,0,79,79,20,1,t5.png,t5.png,0,0.97829,19,female,2020-08-18_20h23.19.990,torte-2b,2020.1.3,MacIntel,60,13320,1.37375,,,,,,,,,,,,,,,,,,,,,,,,,,,,,,,,,,,,,,,,,,,,,,,,,,,,,,,,,,,,,,,,,
,,,,,,,,,,,,a,Correct!,0,80,80,88,1,t1.png,t1.png,0,0.97829,19,female,2020-08-18_20h23.19.990,torte-2b,2020.1.3,MacIntel,60,13320,1.510595,,,,,,,,,,,,,,,,,,,,,,,,,,,,,,,,,,,,,,,,,,,,,,,,,,,,,,,,,,,,,,,,,
,,,,,,,,,,,,a,Correct!,0,81,81,119,1,t5.png,t4.png,1,0.90025,19,female,2020-08-18_20h23.19.990,torte-2b,2020.1.3,MacIntel,60,13320,1.53505,,,,,,,,,,,,,,,,,,,,,,,,,,,,,,,,,,,,,,,,,,,,,,,,,,,,,,,,,,,,,,,,,
,,,,,,,,,,,,a,Correct!,0,82,82,29,1,t3.png,t2.png,1,0.90855,19,female,2020-08-18_20h23.19.990,torte-2b,2020.1.3,MacIntel,60,13320,1.779485,,,,,,,,,,,,,,,,,,,,,,,,,,,,,,,,,,,,,,,,,,,,,,,,,,,,,,,,,,,,,,,,,
,,,,,,,,,,,,a,Incorrect,0,83,83,108,1,t3.png,t1.png,2,0.056466,19,female,2020-08-18_20h23.19.990,torte-2b,2020.1.3,MacIntel,60,13320,2.23741,,,,,,,,,,,,,,,,,,,,,,,,,,,,,,,,,,,,,,,,,,,,,,,,,,,,,,,,,,,,,,,,,
,,,,,,,,,,,,l,Correct!,0,84,84,16,1,t1.png,t5.png,4,9.55E-11,19,female,2020-08-18_20h23.19.990,torte-2b,2020.1.3,MacIntel,60,13320,1.565465,,,,,,,,,,,,,,,,,,,,,,,,,,,,,,,,,,,,,,,,,,,,,,,,,,,,,,,,,,,,,,,,,
,,,,,,,,,,,,l,Correct!,0,85,85,39,1,t2.png,t4.png,2,0.059078,19,female,2020-08-18_20h23.19.990,torte-2b,2020.1.3,MacIntel,60,13320,1.76816,,,,,,,,,,,,,,,,,,,,,,,,,,,,,,,,,,,,,,,,,,,,,,,,,,,,,,,,,,,,,,,,,
,,,,,,,,,,,,a,Incorrect,0,86,86,43,1,t3.png,t1.png,2,0.056466,19,female,2020-08-18_20h23.19.990,torte-2b,2020.1.3,MacIntel,60,13320,1.394955,,,,,,,,,,,,,,,,,,,,,,,,,,,,,,,,,,,,,,,,,,,,,,,,,,,,,,,,,,,,,,,,,
,,,,,,,,,,,,l,Incorrect,0,87,87,32,1,t3.png,t2.png,1,0.90855,19,female,2020-08-18_20h23.19.990,torte-2b,2020.1.3,MacIntel,60,13320,2.306455,,,,,,,,,,,,,,,,,,,,,,,,,,,,,,,,,,,,,,,,,,,,,,,,,,,,,,,,,,,,,,,,,
,,,,,,,,,,,,a,Incorrect,0,88,88,36,1,t1.png,t4.png,3,0.0000131,19,female,2020-08-18_20h23.19.990,torte-2b,2020.1.3,MacIntel,60,13320,2.20131,,,,,,,,,,,,,,,,,,,,,,,,,,,,,,,,,,,,,,,,,,,,,,,,,,,,,,,,,,,,,,,,,
,,,,,,,,,,,,l,Correct!,0,89,89,2,1,t3.png,t1.png,2,0.056466,19,female,2020-08-18_20h23.19.990,torte-2b,2020.1.3,MacIntel,60,13320,1.05027,,,,,,,,,,,,,,,,,,,,,,,,,,,,,,,,,,,,,,,,,,,,,,,,,,,,,,,,,,,,,,,,,
,,,,,,,,,,,,l,Correct!,0,90,90,113,1,t5.png,t1.png,4,9.55E-11,19,female,2020-08-18_20h23.19.990,torte-2b,2020.1.3,MacIntel,60,13320,1.82645,,,,,,,,,,,,,,,,,,,,,,,,,,,,,,,,,,,,,,,,,,,,,,,,,,,,,,,,,,,,,,,,,
,,,,,,,,,,,,a,Incorrect,0,91,91,76,1,t4.png,t1.png,3,0.059078,19,female,2020-08-18_20h23.19.990,torte-2b,2020.1.3,MacIntel,60,13320,1.717845,,,,,,,,,,,,,,,,,,,,,,,,,,,,,,,,,,,,,,,,,,,,,,,,,,,,,,,,,,,,,,,,,
,,,,,,,,,,,,,Too slow :(,0,92,92,91,1,t5.png,t4.png,1,0.90025,19,female,2020-08-18_20h23.19.990,torte-2b,2020.1.3,MacIntel,60,13320,,,,,,,,,,,,,,,,,,,,,,,,,,,,,,,,,,,,,,,,,,,,,,,,,,,,,,,,,,,,,,,,,,
,,,,,,,,,,,,a,Correct!,0,93,93,25,1,t1.png,t1.png,0,0.97829,19,female,2020-08-18_20h23.19.990,torte-2b,2020.1.3,MacIntel,60,13320,1.10624,,,,,,,,,,,,,,,,,,,,,,,,,,,,,,,,,,,,,,,,,,,,,,,,,,,,,,,,,,,,,,,,,
,,,,,,,,,,,,a,Correct!,0,94,94,114,1,t5.png,t4.png,1,0.90025,19,female,2020-08-18_20h23.19.990,torte-2b,2020.1.3,MacIntel,60,13320,0.84916,,,,,,,,,,,,,,,,,,,,,,,,,,,,,,,,,,,,,,,,,,,,,,,,,,,,,,,,,,,,,,,,,
,,,,,,,,,,,,a,Correct!,0,95,95,85,1,t5.png,t4.png,1,0.90025,19,female,2020-08-18_20h23.19.990,torte-2b,2020.1.3,MacIntel,60,13320,0.754635,,,,,,,,,,,,,,,,,,,,,,,,,,,,,,,,,,,,,,,,,,,,,,,,,,,,,,,,,,,,,,,,,
,,,,,,,,,,,,a,Correct!,0,96,96,67,1,t3.png,t2.png,1,0.90855,19,female,2020-08-18_20h23.19.990,torte-2b,2020.1.3,MacIntel,60,13320,0.806725,,,,,,,,,,,,,,,,,,,,,,,,,,,,,,,,,,,,,,,,,,,,,,,,,,,,,,,,,,,,,,,,,
,,,,,,,,,,,,a,Incorrect,0,97,97,99,1,t4.png,t1.png,3,0.059078,19,female,2020-08-18_20h23.19.990,torte-2b,2020.1.3,MacIntel,60,13320,0.49737,,,,,,,,,,,,,,,,,,,,,,,,,,,,,,,,,,,,,,,,,,,,,,,,,,,,,,,,,,,,,,,,,
,,,,,,,,,,,,a,Correct!,0,98,98,8,1,t5.png,t5.png,0,0.97829,19,female,2020-08-18_20h23.19.990,torte-2b,2020.1.3,MacIntel,60,13320,0.541,,,,,,,,,,,,,,,,,,,,,,,,,,,,,,,,,,,,,,,,,,,,,,,,,,,,,,,,,,,,,,,,,
,,,,,,,,,,,,a,Correct!,0,99,99,72,1,t5.png,t5.png,0,0.97829,19,female,2020-08-18_20h23.19.990,torte-2b,2020.1.3,MacIntel,60,13320,0.7309,,,,,,,,,,,,,,,,,,,,,,,,,,,,,,,,,,,,,,,,,,,,,,,,,,,,,,,,,,,,,,,,,
,,,,,,,,,,,,l,Correct!,0,100,100,51,1,t4.png,t1.png,3,0.059078,19,female,2020-08-18_20h23.19.990,torte-2b,2020.1.3,MacIntel,60,13320,0.82185,,,,,,,,,,,,,,,,,,,,,,,,,,,,,,,,,,,,,,,,,,,,,,,,,,,,,,,,,,,,,,,,,
,,,,,,,,,,,,a,Incorrect,0,101,101,27,1,t1.png,t5.png,4,9.55E-11,19,female,2020-08-18_20h23.19.990,torte-2b,2020.1.3,MacIntel,60,13320,0.510135,,,,,,,,,,,,,,,,,,,,,,,,,,,,,,,,,,,,,,,,,,,,,,,,,,,,,,,,,,,,,,,,,
,,,,,,,,,,,,l,Incorrect,0,102,102,31,1,t1.png,t1.png,0,0.97829,19,female,2020-08-18_20h23.19.990,torte-2b,2020.1.3,MacIntel,60,13320,0.57001,,,,,,,,,,,,,,,,,,,,,,,,,,,,,,,,,,,,,,,,,,,,,,,,,,,,,,,,,,,,,,,,,
,,,,,,,,,,,,a,Correct!,0,103,103,101,1,t5.png,t4.png,1,0.90025,19,female,2020-08-18_20h23.19.990,torte-2b,2020.1.3,MacIntel,60,13320,0.73909,,,,,,,,,,,,,,,,,,,,,,,,,,,,,,,,,,,,,,,,,,,,,,,,,,,,,,,,,,,,,,,,,
,,,,,,,,,,,,l,Correct!,0,104,104,117,1,t2.png,t4.png,2,0.059078,19,female,2020-08-18_20h23.19.990,torte-2b,2020.1.3,MacIntel,60,13320,1.671875,,,,,,,,,,,,,,,,,,,,,,,,,,,,,,,,,,,,,,,,,,,,,,,,,,,,,,,,,,,,,,,,,
,,,,,,,,,,,,a,Correct!,0,105,105,55,1,t1.png,t1.png,0,0.97829,19,female,2020-08-18_20h23.19.990,torte-2b,2020.1.3,MacIntel,60,13320,0.9297,,,,,,,,,,,,,,,,,,,,,,,,,,,,,,,,,,,,,,,,,,,,,,,,,,,,,,,,,,,,,,,,,
,,,,,,,,,,,,l,Correct!,0,106,106,118,1,t1.png,t5.png,4,9.55E-11,19,female,2020-08-18_20h23.19.990,torte-2b,2020.1.3,MacIntel,60,13320,1.58162,,,,,,,,,,,,,,,,,,,,,,,,,,,,,,,,,,,,,,,,,,,,,,,,,,,,,,,,,,,,,,,,,
,,,,,,,,,,,,a,Correct!,0,107,107,61,1,t1.png,t1.png,0,0.97829,19,female,2020-08-18_20h23.19.990,torte-2b,2020.1.3,MacIntel,60,13320,0.871235,,,,,,,,,,,,,,,,,,,,,,,,,,,,,,,,,,,,,,,,,,,,,,,,,,,,,,,,,,,,,,,,,
,,,,,,,,,,,,l,Incorrect,0,108,108,97,1,t1.png,t1.png,0,0.97829,19,female,2020-08-18_20h23.19.990,torte-2b,2020.1.3,MacIntel,60,13320,0.67449,,,,,,,,,,,,,,,,,,,,,,,,,,,,,,,,,,,,,,,,,,,,,,,,,,,,,,,,,,,,,,,,,
,,,,,,,,,,,,a,Correct!,0,109,109,47,1,t2.png,t3.png,1,0.90855,19,female,2020-08-18_20h23.19.990,torte-2b,2020.1.3,MacIntel,60,13320,1.675345,,,,,,,,,,,,,,,,,,,,,,,,,,,,,,,,,,,,,,,,,,,,,,,,,,,,,,,,,,,,,,,,,
,,,,,,,,,,,,a,Incorrect,0,110,110,10,1,t4.png,t1.png,3,0.059078,19,female,2020-08-18_20h23.19.990,torte-2b,2020.1.3,MacIntel,60,13320,1.57051,,,,,,,,,,,,,,,,,,,,,,,,,,,,,,,,,,,,,,,,,,,,,,,,,,,,,,,,,,,,,,,,,
,,,,,,,,,,,,l,Correct!,0,111,111,3,1,t4.png,t1.png,3,0.059078,19,female,2020-08-18_20h23.19.990,torte-2b,2020.1.3,MacIntel,60,13320,0.729105,,,,,,,,,,,,,,,,,,,,,,,,,,,,,,,,,,,,,,,,,,,,,,,,,,,,,,,,,,,,,,,,,
,,,,,,,,,,,,l,Incorrect,0,112,112,48,1,t2.png,t3.png,1,0.90855,19,female,2020-08-18_20h23.19.990,torte-2b,2020.1.3,MacIntel,60,13320,1.522075,,,,,,,,,,,,,,,,,,,,,,,,,,,,,,,,,,,,,,,,,,,,,,,,,,,,,,,,,,,,,,,,,
,,,,,,,,,,,,a,Correct!,0,113,113,15,1,t2.png,t3.png,1,0.90855,19,female,2020-08-18_20h23.19.990,torte-2b,2020.1.3,MacIntel,60,13320,0.787745,,,,,,,,,,,,,,,,,,,,,,,,,,,,,,,,,,,,,,,,,,,,,,,,,,,,,,,,,,,,,,,,,
,,,,,,,,,,,,l,Correct!,0,114,114,96,1,t2.png,t4.png,2,0.059078,19,female,2020-08-18_20h23.19.990,torte-2b,2020.1.3,MacIntel,60,13320,2.201795,,,,,,,,,,,,,,,,,,,,,,,,,,,,,,,,,,,,,,,,,,,,,,,,,,,,,,,,,,,,,,,,,
,,,,,,,,,,,,a,Incorrect,0,115,115,98,1,t5.png,t1.png,4,9.55E-11,19,female,2020-08-18_20h23.19.990,torte-2b,2020.1.3,MacIntel,60,13320,1.197295,,,,,,,,,,,,,,,,,,,,,,,,,,,,,,,,,,,,,,,,,,,,,,,,,,,,,,,,,,,,,,,,,
,,,,,,,,,,,,l,Incorrect,0,116,116,83,1,t3.png,t2.png,1,0.90855,19,female,2020-08-18_20h23.19.990,torte-2b,2020.1.3,MacIntel,60,13320,1.091075,,,,,,,,,,,,,,,,,,,,,,,,,,,,,,,,,,,,,,,,,,,,,,,,,,,,,,,,,,,,,,,,,
,,,,,,,,,,,,a,Correct!,0,117,117,56,1,t2.png,t3.png,1,0.90855,19,female,2020-08-18_20h23.19.990,torte-2b,2020.1.3,MacIntel,60,13320,1.288105,,,,,,,,,,,,,,,,,,,,,,,,,,,,,,,,,,,,,,,,,,,,,,,,,,,,,,,,,,,,,,,,,
,,,,,,,,,,,,a,Correct!,0,118,118,38,1,t1.png,t1.png,0,0.97829,19,female,2020-08-18_20h23.19.990,torte-2b,2020.1.3,MacIntel,60,13320,1.01147,,,,,,,,,,,,,,,,,,,,,,,,,,,,,,,,,,,,,,,,,,,,,,,,,,,,,,,,,,,,,,,,,
,,,,,,,,,,,,l,Correct!,0,119,119,1,1,t3.png,t1.png,2,0.056466,19,female,2020-08-18_20h23.19.990,torte-2b,2020.1.3,MacIntel,60,13320,1.086315,,,,,,,,,,,,,,,,,,,,,,,,,,,,,,,,,,,,,,,,,,,,,,,,,,,,,,,,,,,,,,,,,
,,,,,,,,,,,,,Too slow :(,,,,,,t4.png,t5.png,1,0.90025,19,female,2020-08-18_20h23.19.990,torte-2b,2020.1.3,MacIntel,60,13320,,space,1.93487,space,20.063465,0,0,0,63,1,,,,,,,,,,,,,,,,,,,,,,,,,,,,,,,,,,,,,,,,,,,,,,,,,,,,,,,,
,,,,,,,,,,,,a,Correct!,,,,,,t3.png,t2.png,1,0.90855,19,female,2020-08-18_20h23.19.990,torte-2b,2020.1.3,MacIntel,60,13320,2.275565,,,,,0,1,1,0,1,,,,,,,,,,,,,,,,,,,,,,,,,,,,,,,,,,,,,,,,,,,,,,,,,,,,,,,,
,,,,,,,,,,,,a,Correct!,,,,,,t3.png,t4.png,1,0.90855,19,female,2020-08-18_20h23.19.990,torte-2b,2020.1.3,MacIntel,60,13320,2.06796,,,,,0,2,2,9,1,,,,,,,,,,,,,,,,,,,,,,,,,,,,,,,,,,,,,,,,,,,,,,,,,,,,,,,,
,,,,,,,,,,,,a,Incorrect,,,,,,t4.png,t1.png,3,0.0000131,19,female,2020-08-18_20h23.19.990,torte-2b,2020.1.3,MacIntel,60,13320,1.7555,,,,,0,3,3,76,1,,,,,,,,,,,,,,,,,,,,,,,,,,,,,,,,,,,,,,,,,,,,,,,,,,,,,,,,
,,,,,,,,,,,,a,Incorrect,,,,,,t5.png,t2.png,3,0.0000131,19,female,2020-08-18_20h23.19.990,torte-2b,2020.1.3,MacIntel,60,13320,1.645645,,,,,0,4,4,83,1,,,,,,,,,,,,,,,,,,,,,,,,,,,,,,,,,,,,,,,,,,,,,,,,,,,,,,,,
,,,,,,,,,,,,a,Incorrect,,,,,,t1.png,t3.png,2,0.056466,19,female,2020-08-18_20h23.19.990,torte-2b,2020.1.3,MacIntel,60,13320,1.842975,,,,,0,5,5,32,1,,,,,,,,,,,,,,,,,,,,,,,,,,,,,,,,,,,,,,,,,,,,,,,,,,,,,,,,
,,,,,,,,,,,,l,Incorrect,,,,,,t2.png,t4.png,2,0.059078,19,female,2020-08-18_20h23.19.990,torte-2b,2020.1.3,MacIntel,60,13320,1.278955,,,,,0,6,6,18,1,,,,,,,,,,,,,,,,,,,,,,,,,,,,,,,,,,,,,,,,,,,,,,,,,,,,,,,,
,,,,,,,,,,,,a,Incorrect,,,,,,t1.png,t3.png,2,0.0565,19,female,2020-08-18_20h23.19.990,torte-2b,2020.1.3,MacIntel,60,13320,2.02938,,,,,0,7,7,95,1,,,,,,,,,,,,,,,,,,,,,,,,,,,,,,,,,,,,,,,,,,,,,,,,,,,,,,,,
,,,,,,,,,,,,a,Correct!,,,,,,t3.png,t2.png,1,0.90855,19,female,2020-08-18_20h23.19.990,torte-2b,2020.1.3,MacIntel,60,13320,1.78736,,,,,0,8,8,94,1,,,,,,,,,,,,,,,,,,,,,,,,,,,,,,,,,,,,,,,,,,,,,,,,,,,,,,,,
,,,,,,,,,,,,l,Correct!,,,,,,t2.png,t4.png,2,0.059078,19,female,2020-08-18_20h23.19.990,torte-2b,2020.1.3,MacIntel,60,13320,1.49164,,,,,0,9,9,67,1,,,,,,,,,,,,,,,,,,,,,,,,,,,,,,,,,,,,,,,,,,,,,,,,,,,,,,,,
,,,,,,,,,,,,a,Correct!,,,,,,t4.png,t5.png,1,0.90025,19,female,2020-08-18_20h23.19.990,torte-2b,2020.1.3,MacIntel,60,13320,1.5482,,,,,0,10,10,21,1,,,,,,,,,,,,,,,,,,,,,,,,,,,,,,,,,,,,,,,,,,,,,,,,,,,,,,,,
,,,,,,,,,,,,l,Incorrect,,,,,,t2.png,t2.png,0,0.98115,19,female,2020-08-18_20h23.19.990,torte-2b,2020.1.3,MacIntel,60,13320,1.92749,,,,,0,11,11,90,1,,,,,,,,,,,,,,,,,,,,,,,,,,,,,,,,,,,,,,,,,,,,,,,,,,,,,,,,
,,,,,,,,,,,,a,Correct!,,,,,,t1.png,t1.png,0,0.978,19,female,2020-08-18_20h23.19.990,torte-2b,2020.1.3,MacIntel,60,13320,1.257295,,,,,0,12,12,22,1,,,,,,,,,,,,,,,,,,,,,,,,,,,,,,,,,,,,,,,,,,,,,,,,,,,,,,,,
,,,,,,,,,,,,a,Incorrect,,,,,,t5.png,t2.png,3,0.0000131,19,female,2020-08-18_20h23.19.990,torte-2b,2020.1.3,MacIntel,60,13320,1.74281,,,,,0,13,13,66,1,,,,,,,,,,,,,,,,,,,,,,,,,,,,,,,,,,,,,,,,,,,,,,,,,,,,,,,,
,,,,,,,,,,,,l,Correct!,,,,,,t3.png,t1.png,2,0.056466,19,female,2020-08-18_20h23.19.990,torte-2b,2020.1.3,MacIntel,60,13320,1.508415,,,,,0,14,14,109,1,,,,,,,,,,,,,,,,,,,,,,,,,,,,,,,,,,,,,,,,,,,,,,,,,,,,,,,,
,,,,,,,,,,,,a,Correct!,,,,,,t2.png,t1.png,1,0.90025,19,female,2020-08-18_20h23.19.990,torte-2b,2020.1.3,MacIntel,60,13320,1.403205,,,,,0,15,15,105,1,,,,,,,,,,,,,,,,,,,,,,,,,,,,,,,,,,,,,,,,,,,,,,,,,,,,,,,,
,,,,,,,,,,,,a,Correct!,,,,,,t3.png,t2.png,1,0.90855,19,female,2020-08-18_20h23.19.990,torte-2b,2020.1.3,MacIntel,60,13320,1.83525,,,,,0,16,16,99,1,,,,,,,,,,,,,,,,,,,,,,,,,,,,,,,,,,,,,,,,,,,,,,,,,,,,,,,,
,,,,,,,,,,,,a,Correct!,,,,,,t5.png,t5.png,0,0.97829,19,female,2020-08-18_20h23.19.990,torte-2b,2020.1.3,MacIntel,60,13320,1.10583,,,,,0,17,17,35,1,,,,,,,,,,,,,,,,,,,,,,,,,,,,,,,,,,,,,,,,,,,,,,,,,,,,,,,,
,,,,,,,,,,,,l,Correct!,,,,,,t1.png,t5.png,4,9.55E-11,19,female,2020-08-18_20h23.19.990,torte-2b,2020.1.3,MacIntel,60,13320,1.011285,,,,,0,18,18,1,1,,,,,,,,,,,,,,,,,,,,,,,,,,,,,,,,,,,,,,,,,,,,,,,,,,,,,,,,
,,,,,,,,,,,,a,Incorrect,,,,,,t2.png,t3.png,1,0.90855,19,female,2020-08-18_20h23.19.990,torte-2b,2020.1.3,MacIntel,60,13320,1.68764,,,,,0,19,19,113,1,,,,,,,,,,,,,,,,,,,,,,,,,,,,,,,,,,,,,,,,,,,,,,,,,,,,,,,,
,,,,,,,,,,,,a,Incorrect,,,,,,t3.png,t5.png,2,0.056466,19,female,2020-08-18_20h23.19.990,torte-2b,2020.1.3,MacIntel,60,13320,1.400605,,,,,0,20,20,45,1,,,,,,,,,,,,,,,,,,,,,,,,,,,,,,,,,,,,,,,,,,,,,,,,,,,,,,,,
,,,,,,,,,,,,a,Incorrect,,,,,,t5.png,t2.png,3,0.0000131,19,female,2020-08-18_20h23.19.990,torte-2b,2020.1.3,MacIntel,60,13320,1.13208,,,,,0,21,21,48,1,,,,,,,,,,,,,,,,,,,,,,,,,,,,,,,,,,,,,,,,,,,,,,,,,,,,,,,,
,,,,,,,,,,,,,Too slow :(,,,,,,t2.png,t3.png,1,0.90855,19,female,2020-08-18_20h23.19.990,torte-2b,2020.1.3,MacIntel,60,13320,,,,,,0,22,22,70,1,,,,,,,,,,,,,,,,,,,,,,,,,,,,,,,,,,,,,,,,,,,,,,,,,,,,,,,,
,,,,,,,,,,,,a,Incorrect,,,,,,t3.png,t5.png,2,0.056466,19,female,2020-08-18_20h23.19.990,torte-2b,2020.1.3,MacIntel,60,13320,1.628895,,,,,0,23,23,60,1,,,,,,,,,,,,,,,,,,,,,,,,,,,,,,,,,,,,,,,,,,,,,,,,,,,,,,,,
,,,,,,,,,,,,a,Correct!,,,,,,t5.png,t4.png,1,0.90025,19,female,2020-08-18_20h23.19.990,torte-2b,2020.1.3,MacIntel,60,13320,1.98608,,,,,0,24,24,25,1,,,,,,,,,,,,,,,,,,,,,,,,,,,,,,,,,,,,,,,,,,,,,,,,,,,,,,,,
,,,,,,,,,,,,a,Incorrect,,,,,,t4.png,t1.png,3,0.0000131,19,female,2020-08-18_20h23.19.990,torte-2b,2020.1.3,MacIntel,60,13320,1.19153,,,,,0,25,25,28,1,,,,,,,,,,,,,,,,,,,,,,,,,,,,,,,,,,,,,,,,,,,,,,,,,,,,,,,,
,,,,,,,,,,,,l,Correct!,,,,,,t2.png,t4.png,2,0.059078,19,female,2020-08-18_20h23.19.990,torte-2b,2020.1.3,MacIntel,60,13320,1.21422,,,,,0,26,26,53,1,,,,,,,,,,,,,,,,,,,,,,,,,,,,,,,,,,,,,,,,,,,,,,,,,,,,,,,,
,,,,,,,,,,,,l,Correct!,,,,,,t2.png,t4.png,2,0.059078,19,female,2020-08-18_20h23.19.990,torte-2b,2020.1.3,MacIntel,60,13320,0.990975,,,,,0,27,27,97,1,,,,,,,,,,,,,,,,,,,,,,,,,,,,,,,,,,,,,,,,,,,,,,,,,,,,,,,,
,,,,,,,,,,,,a,Incorrect,,,,,,t4.png,t1.png,3,0.059078,19,female,2020-08-18_20h23.19.990,torte-2b,2020.1.3,MacIntel,60,13320,1.090475,,,,,0,28,28,62,1,,,,,,,,,,,,,,,,,,,,,,,,,,,,,,,,,,,,,,,,,,,,,,,,,,,,,,,,
,,,,,,,,,,,,l,Correct!,,,,,,t5.png,t1.png,4,9.55E-11,19,female,2020-08-18_20h23.19.990,torte-2b,2020.1.3,MacIntel,60,13320,0.7842,,,,,0,29,29,101,1,,,,,,,,,,,,,,,,,,,,,,,,,,,,,,,,,,,,,,,,,,,,,,,,,,,,,,,,
,,,,,,,,,,,,a,Incorrect,,,,,,t1.png,t4.png,3,0.0000131,19,female,2020-08-18_20h23.19.990,torte-2b,2020.1.3,MacIntel,60,13320,0.994305,,,,,0,30,30,23,1,,,,,,,,,,,,,,,,,,,,,,,,,,,,,,,,,,,,,,,,,,,,,,,,,,,,,,,,
,,,,,,,,,,,,a,Incorrect,,,,,,t2.png,t5.png,3,0.0000131,19,female,2020-08-18_20h23.19.990,torte-2b,2020.1.3,MacIntel,60,13320,1.174725,,,,,0,31,31,46,1,,,,,,,,,,,,,,,,,,,,,,,,,,,,,,,,,,,,,,,,,,,,,,,,,,,,,,,,
,,,,,,,,,,,,a,Correct!,,,,,,t2.png,t1.png,1,0.9,19,female,2020-08-18_20h23.19.990,torte-2b,2020.1.3,MacIntel,60,13320,1.32564,,,,,0,32,32,93,1,,,,,,,,,,,,,,,,,,,,,,,,,,,,,,,,,,,,,,,,,,,,,,,,,,,,,,,,
,,,,,,,,,,,,a,Incorrect,,,,,,t4.png,t1.png,3,0.059078,19,female,2020-08-18_20h23.19.990,torte-2b,2020.1.3,MacIntel,60,13320,1.060435,,,,,0,33,33,73,1,,,,,,,,,,,,,,,,,,,,,,,,,,,,,,,,,,,,,,,,,,,,,,,,,,,,,,,,
,,,,,,,,,,,,a,Correct!,,,,,,t3.png,t4.png,1,0.90855,19,female,2020-08-18_20h23.19.990,torte-2b,2020.1.3,MacIntel,60,13320,1.507105,,,,,0,34,34,5,1,,,,,,,,,,,,,,,,,,,,,,,,,,,,,,,,,,,,,,,,,,,,,,,,,,,,,,,,
,,,,,,,,,,,,a,Incorrect,,,,,,t3.png,t1.png,2,0.0565,19,female,2020-08-18_20h23.19.990,torte-2b,2020.1.3,MacIntel,60,13320,2.42134,,,,,0,35,35,40,1,,,,,,,,,,,,,,,,,,,,,,,,,,,,,,,,,,,,,,,,,,,,,,,,,,,,,,,,
,,,,,,,,,,,,a,Correct!,,,,,,t4.png,t4.png,0,0.98115,19,female,2020-08-18_20h23.19.990,torte-2b,2020.1.3,MacIntel,60,13320,1.012255,,,,,0,36,36,19,1,,,,,,,,,,,,,,,,,,,,,,,,,,,,,,,,,,,,,,,,,,,,,,,,,,,,,,,,
,,,,,,,,,,,,l,Correct!,,,,,,t5.png,t1.png,4,9.55E-11,19,female,2020-08-18_20h23.19.990,torte-2b,2020.1.3,MacIntel,60,13320,0.799185,,,,,0,37,37,31,1,,,,,,,,,,,,,,,,,,,,,,,,,,,,,,,,,,,,,,,,,,,,,,,,,,,,,,,,
,,,,,,,,,,,,a,Incorrect,,,,,,t1.png,t4.png,3,0.0000131,19,female,2020-08-18_20h23.19.990,torte-2b,2020.1.3,MacIntel,60,13320,1.084565,,,,,0,38,38,106,1,,,,,,,,,,,,,,,,,,,,,,,,,,,,,,,,,,,,,,,,,,,,,,,,,,,,,,,,
,,,,,,,,,,,,a,Incorrect,,,,,,t2.png,t5.png,3,0.0000131,19,female,2020-08-18_20h23.19.990,torte-2b,2020.1.3,MacIntel,60,13320,1.200195,,,,,0,39,39,54,1,,,,,,,,,,,,,,,,,,,,,,,,,,,,,,,,,,,,,,,,,,,,,,,,,,,,,,,,
,,,,,,,,,,,,a,Incorrect,,,,,,t3.png,t5.png,2,0.056466,19,female,2020-08-18_20h23.19.990,torte-2b,2020.1.3,MacIntel,60,13320,1.173645,,,,,0,40,40,78,1,,,,,,,,,,,,,,,,,,,,,,,,,,,,,,,,,,,,,,,,,,,,,,,,,,,,,,,,
,,,,,,,,,,,,a,Correct!,,,,,,t3.png,t4.png,1,0.90855,19,female,2020-08-18_20h23.19.990,torte-2b,2020.1.3,MacIntel,60,13320,0.782595,,,,,0,41,41,58,1,,,,,,,,,,,,,,,,,,,,,,,,,,,,,,,,,,,,,,,,,,,,,,,,,,,,,,,,
,,,,,,,,,,,,a,Incorrect,,,,,,t5.png,t3.png,2,0.056466,19,female,2020-08-18_20h23.19.990,torte-2b,2020.1.3,MacIntel,60,13320,1.69027,,,,,0,42,42,37,1,,,,,,,,,,,,,,,,,,,,,,,,,,,,,,,,,,,,,,,,,,,,,,,,,,,,,,,,
,,,,,,,,,,,,a,Incorrect,,,,,,t4.png,t1.png,3,0.059078,19,female,2020-08-18_20h23.19.990,torte-2b,2020.1.3,MacIntel,60,13320,1.147765,,,,,0,43,43,75,1,,,,,,,,,,,,,,,,,,,,,,,,,,,,,,,,,,,,,,,,,,,,,,,,,,,,,,,,
,,,,,,,,,,,,a,Incorrect,,,,,,t4.png,t1.png,3,0.0000131,19,female,2020-08-18_20h23.19.990,torte-2b,2020.1.3,MacIntel,60,13320,0.665665,,,,,0,44,44,102,1,,,,,,,,,,,,,,,,,,,,,,,,,,,,,,,,,,,,,,,,,,,,,,,,,,,,,,,,
,,,,,,,,,,,,a,Incorrect,,,,,,t2.png,t3.png,1,0.90855,19,female,2020-08-18_20h23.19.990,torte-2b,2020.1.3,MacIntel,60,13320,1.36952,,,,,0,45,45,64,1,,,,,,,,,,,,,,,,,,,,,,,,,,,,,,,,,,,,,,,,,,,,,,,,,,,,,,,,
,,,,,,,,,,,,a,Correct!,,,,,,t2.png,t1.png,1,0.90025,19,female,2020-08-18_20h23.19.990,torte-2b,2020.1.3,MacIntel,60,13320,2.133465,,,,,0,46,46,44,1,,,,,,,,,,,,,,,,,,,,,,,,,,,,,,,,,,,,,,,,,,,,,,,,,,,,,,,,
,,,,,,,,,,,,a,Correct!,,,,,,t3.png,t2.png,1,0.90855,19,female,2020-08-18_20h23.19.990,torte-2b,2020.1.3,MacIntel,60,13320,1.42719,,,,,0,47,47,10,1,,,,,,,,,,,,,,,,,,,,,,,,,,,,,,,,,,,,,,,,,,,,,,,,,,,,,,,,
,,,,,,,,,,,,a,Incorrect,,,,,,t3.png,t1.png,2,0.056466,19,female,2020-08-18_20h23.19.990,torte-2b,2020.1.3,MacIntel,60,13320,0.99123,,,,,0,48,48,34,1,,,,,,,,,,,,,,,,,,,,,,,,,,,,,,,,,,,,,,,,,,,,,,,,,,,,,,,,
,,,,,,,,,,,,l,Correct!,,,,,,t1.png,t5.png,4,9.55E-11,19,female,2020-08-18_20h23.19.990,torte-2b,2020.1.3,MacIntel,60,13320,0.87089,,,,,0,49,49,20,1,,,,,,,,,,,,,,,,,,,,,,,,,,,,,,,,,,,,,,,,,,,,,,,,,,,,,,,,
,,,,,,,,,,,,a,Incorrect,,,,,,t3.png,t1.png,2,0.0565,19,female,2020-08-18_20h23.19.990,torte-2b,2020.1.3,MacIntel,60,13320,0.93122,,,,,0,50,50,104,1,,,,,,,,,,,,,,,,,,,,,,,,,,,,,,,,,,,,,,,,,,,,,,,,,,,,,,,,
,,,,,,,,,,,,a,Correct!,,,,,,t2.png,t2.png,0,0.981,19,female,2020-08-18_20h23.19.990,torte-2b,2020.1.3,MacIntel,60,13320,1.06056,,,,,0,51,51,98,1,,,,,,,,,,,,,,,,,,,,,,,,,,,,,,,,,,,,,,,,,,,,,,,,,,,,,,,,
,,,,,,,,,,,,a,Correct!,,,,,,t4.png,t4.png,0,0.98115,19,female,2020-08-18_20h23.19.990,torte-2b,2020.1.3,MacIntel,60,13320,1.623875,,,,,0,52,52,68,1,,,,,,,,,,,,,,,,,,,,,,,,,,,,,,,,,,,,,,,,,,,,,,,,,,,,,,,,
,,,,,,,,,,,,a,Correct!,,,,,,t2.png,t2.png,0,0.98115,19,female,2020-08-18_20h23.19.990,torte-2b,2020.1.3,MacIntel,60,13320,0.84171,,,,,0,53,53,112,1,,,,,,,,,,,,,,,,,,,,,,,,,,,,,,,,,,,,,,,,,,,,,,,,,,,,,,,,
,,,,,,,,,,,,a,Incorrect,,,,,,t5.png,t3.png,2,0.056466,19,female,2020-08-18_20h23.19.990,torte-2b,2020.1.3,MacIntel,60,13320,1.01246,,,,,0,54,54,80,1,,,,,,,,,,,,,,,,,,,,,,,,,,,,,,,,,,,,,,,,,,,,,,,,,,,,,,,,
,,,,,,,,,,,,l,Correct!,,,,,,t5.png,t1.png,4,9.55E-11,19,female,2020-08-18_20h23.19.990,torte-2b,2020.1.3,MacIntel,60,13320,0.76798,,,,,0,55,55,89,1,,,,,,,,,,,,,,,,,,,,,,,,,,,,,,,,,,,,,,,,,,,,,,,,,,,,,,,,
,,,,,,,,,,,,a,Correct!,,,,,,t1.png,t2.png,1,0.9,19,female,2020-08-18_20h23.19.990,torte-2b,2020.1.3,MacIntel,60,13320,0.9384,,,,,0,56,56,61,1,,,,,,,,,,,,,,,,,,,,,,,,,,,,,,,,,,,,,,,,,,,,,,,,,,,,,,,,
,,,,,,,,,,,,l,Correct!,,,,,,t2.png,t4.png,2,0.059078,19,female,2020-08-18_20h23.19.990,torte-2b,2020.1.3,MacIntel,60,13320,1.11436,,,,,0,57,57,84,1,,,,,,,,,,,,,,,,,,,,,,,,,,,,,,,,,,,,,,,,,,,,,,,,,,,,,,,,
,,,,,,,,,,,,a,Correct!,,,,,,t4.png,t3.png,1,0.909,19,female,2020-08-18_20h23.19.990,torte-2b,2020.1.3,MacIntel,60,13320,1.45605,,,,,0,58,58,119,1,,,,,,,,,,,,,,,,,,,,,,,,,,,,,,,,,,,,,,,,,,,,,,,,,,,,,,,,
,,,,,,,,,,,,a,Correct!,,,,,,t1.png,t1.png,0,0.97829,19,female,2020-08-18_20h23.19.990,torte-2b,2020.1.3,MacIntel,60,13320,1.05226,,,,,0,59,59,4,1,,,,,,,,,,,,,,,,,,,,,,,,,,,,,,,,,,,,,,,,,,,,,,,,,,,,,,,,
,,,,,,,,,,,,a,Correct!,,,,,,t5.png,t5.png,0,0.978,19,female,2020-08-18_20h23.19.990,torte-2b,2020.1.3,MacIntel,60,13320,1.281035,,,,,0,60,60,51,1,,,,,,,,,,,,,,,,,,,,,,,,,,,,,,,,,,,,,,,,,,,,,,,,,,,,,,,,
,,,,,,,,,,,,a,Correct!,,,,,,t5.png,t3.png,2,0.0565,19,female,2020-08-18_20h23.19.990,torte-2b,2020.1.3,MacIntel,60,13320,1.144385,,,,,0,61,61,50,1,,,,,,,,,,,,,,,,,,,,,,,,,,,,,,,,,,,,,,,,,,,,,,,,,,,,,,,,
,,,,,,,,,,,,a,Incorrect,,,,,,t3.png,t5.png,2,0.056466,19,female,2020-08-18_20h23.19.990,torte-2b,2020.1.3,MacIntel,60,13320,0.935655,,,,,0,62,62,47,1,,,,,,,,,,,,,,,,,,,,,,,,,,,,,,,,,,,,,,,,,,,,,,,,,,,,,,,,
,,,,,,,,,,,,a,Incorrect,,,,,,t1.png,t3.png,2,0.0565,19,female,2020-08-18_20h23.19.990,torte-2b,2020.1.3,MacIntel,60,13320,0.967345,,,,,0,63,63,42,1,,,,,,,,,,,,,,,,,,,,,,,,,,,,,,,,,,,,,,,,,,,,,,,,,,,,,,,,
,,,,,,,,,,,,a,Correct!,,,,,,t1.png,t1.png,0,0.978,19,female,2020-08-18_20h23.19.990,torte-2b,2020.1.3,MacIntel,60,13320,0.809385,,,,,0,64,64,13,1,,,,,,,,,,,,,,,,,,,,,,,,,,,,,,,,,,,,,,,,,,,,,,,,,,,,,,,,
,,,,,,,,,,,,l,Incorrect,,,,,,t2.png,t1.png,1,0.9,19,female,2020-08-18_20h23.19.990,torte-2b,2020.1.3,MacIntel,60,13320,1.46433,,,,,0,65,65,100,1,,,,,,,,,,,,,,,,,,,,,,,,,,,,,,,,,,,,,,,,,,,,,,,,,,,,,,,,
,,,,,,,,,,,,a,Correct!,,,,,,t5.png,t4.png,1,0.9,19,female,2020-08-18_20h23.19.990,torte-2b,2020.1.3,MacIntel,60,13320,0.98703,,,,,0,66,66,55,1,,,,,,,,,,,,,,,,,,,,,,,,,,,,,,,,,,,,,,,,,,,,,,,,,,,,,,,,
,,,,,,,,,,,,a,Correct!,,,,,,t4.png,t5.png,1,0.9,19,female,2020-08-18_20h23.19.990,torte-2b,2020.1.3,MacIntel,60,13320,0.745165,,,,,0,67,67,81,1,,,,,,,,,,,,,,,,,,,,,,,,,,,,,,,,,,,,,,,,,,,,,,,,,,,,,,,,
,,,,,,,,,,,,a,Correct!,,,,,,t5.png,t5.png,0,0.97829,19,female,2020-08-18_20h23.19.990,torte-2b,2020.1.3,MacIntel,60,13320,0.870025,,,,,0,68,68,77,1,,,,,,,,,,,,,,,,,,,,,,,,,,,,,,,,,,,,,,,,,,,,,,,,,,,,,,,,
,,,,,,,,,,,,a,Incorrect,,,,,,t1.png,t4.png,3,0.0000131,19,female,2020-08-18_20h23.19.990,torte-2b,2020.1.3,MacIntel,60,13320,0.932105,,,,,0,69,69,74,1,,,,,,,,,,,,,,,,,,,,,,,,,,,,,,,,,,,,,,,,,,,,,,,,,,,,,,,,
,,,,,,,,,,,,a,Incorrect,,,,,,t5.png,t3.png,2,0.056466,19,female,2020-08-18_20h23.19.990,torte-2b,2020.1.3,MacIntel,60,13320,1.03023,,,,,0,70,70,27,1,,,,,,,,,,,,,,,,,,,,,,,,,,,,,,,,,,,,,,,,,,,,,,,,,,,,,,,,
,,,,,,,,,,,,a,Correct!,,,,,,t4.png,t4.png,0,0.98115,19,female,2020-08-18_20h23.19.990,torte-2b,2020.1.3,MacIntel,60,13320,1.182015,,,,,0,71,71,52,1,,,,,,,,,,,,,,,,,,,,,,,,,,,,,,,,,,,,,,,,,,,,,,,,,,,,,,,,
,,,,,,,,,,,,a,Incorrect,,,,,,t3.png,t1.png,2,0.056466,19,female,2020-08-18_20h23.19.990,torte-2b,2020.1.3,MacIntel,60,13320,1.121195,,,,,0,72,72,72,1,,,,,,,,,,,,,,,,,,,,,,,,,,,,,,,,,,,,,,,,,,,,,,,,,,,,,,,,
,,,,,,,,,,,,a,Incorrect,,,,,,t5.png,t3.png,2,0.056466,19,female,2020-08-18_20h23.19.990,torte-2b,2020.1.3,MacIntel,60,13320,0.843085,,,,,0,73,73,26,1,,,,,,,,,,,,,,,,,,,,,,,,,,,,,,,,,,,,,,,,,,,,,,,,,,,,,,,,
,,,,,,,,,,,,a,Correct!,,,,,,t4.png,t4.png,0,0.98115,19,female,2020-08-18_20h23.19.990,torte-2b,2020.1.3,MacIntel,60,13320,0.826265,,,,,0,74,74,88,1,,,,,,,,,,,,,,,,,,,,,,,,,,,,,,,,,,,,,,,,,,,,,,,,,,,,,,,,
,,,,,,,,,,,,a,Correct!,,,,,,t4.png,t5.png,1,0.90025,19,female,2020-08-18_20h23.19.990,torte-2b,2020.1.3,MacIntel,60,13320,1.47237,,,,,0,75,75,86,1,,,,,,,,,,,,,,,,,,,,,,,,,,,,,,,,,,,,,,,,,,,,,,,,,,,,,,,,
,,,,,,,,,,,,l,Correct!,,,,,,t1.png,t5.png,4,9.55E-11,19,female,2020-08-18_20h23.19.990,torte-2b,2020.1.3,MacIntel,60,13320,0.832785,,,,,0,76,76,30,1,,,,,,,,,,,,,,,,,,,,,,,,,,,,,,,,,,,,,,,,,,,,,,,,,,,,,,,,
,,,,,,,,,,,,a,Incorrect,,,,,,t1.png,t4.png,3,0.0000131,19,female,2020-08-18_20h23.19.990,torte-2b,2020.1.3,MacIntel,60,13320,0.96811,,,,,0,77,77,36,1,,,,,,,,,,,,,,,,,,,,,,,,,,,,,,,,,,,,,,,,,,,,,,,,,,,,,,,,
,,,,,,,,,,,,a,Correct!,,,,,,t1.png,t1.png,0,0.97829,19,female,2020-08-18_20h23.19.990,torte-2b,2020.1.3,MacIntel,60,13320,0.851105,,,,,0,78,78,110,1,,,,,,,,,,,,,,,,,,,,,,,,,,,,,,,,,,,,,,,,,,,,,,,,,,,,,,,,
,,,,,,,,,,,,a,Incorrect,,,,,,t2.png,t5.png,3,0.0000131,19,female,2020-08-18_20h23.19.990,torte-2b,2020.1.3,MacIntel,60,13320,1.149335,,,,,0,79,79,39,1,,,,,,,,,,,,,,,,,,,,,,,,,,,,,,,,,,,,,,,,,,,,,,,,,,,,,,,,
,,,,,,,,,,,,a,Correct!,,,,,,t4.png,t5.png,1,0.90025,19,female,2020-08-18_20h23.19.990,torte-2b,2020.1.3,MacIntel,60,13320,1.038695,,,,,0,80,80,33,1,,,,,,,,,,,,,,,,,,,,,,,,,,,,,,,,,,,,,,,,,,,,,,,,,,,,,,,,
,,,,,,,,,,,,a,Incorrect,,,,,,t2.png,t5.png,3,0.0000131,19,female,2020-08-18_20h23.19.990,torte-2b,2020.1.3,MacIntel,60,13320,1.064135,,,,,0,81,81,85,1,,,,,,,,,,,,,,,,,,,,,,,,,,,,,,,,,,,,,,,,,,,,,,,,,,,,,,,,
,,,,,,,,,,,,a,Incorrect,,,,,,t3.png,t5.png,2,0.0565,19,female,2020-08-18_20h23.19.990,torte-2b,2020.1.3,MacIntel,60,13320,0.923505,,,,,0,82,82,71,1,,,,,,,,,,,,,,,,,,,,,,,,,,,,,,,,,,,,,,,,,,,,,,,,,,,,,,,,
,,,,,,,,,,,,l,Correct!,,,,,,t5.png,t1.png,4,9.55E-11,19,female,2020-08-18_20h23.19.990,torte-2b,2020.1.3,MacIntel,60,13320,0.8134,,,,,0,83,83,117,1,,,,,,,,,,,,,,,,,,,,,,,,,,,,,,,,,,,,,,,,,,,,,,,,,,,,,,,,
,,,,,,,,,,,,a,Correct!,,,,,,t2.png,t2.png,0,0.98115,19,female,2020-08-18_20h23.19.990,torte-2b,2020.1.3,MacIntel,60,13320,1.189425,,,,,0,84,84,7,1,,,,,,,,,,,,,,,,,,,,,,,,,,,,,,,,,,,,,,,,,,,,,,,,,,,,,,,,
,,,,,,,,,,,,a,Correct!,,,,,,t5.png,t4.png,1,0.9,19,female,2020-08-18_20h23.19.990,torte-2b,2020.1.3,MacIntel,60,13320,0.146735,,,,,0,85,85,92,1,,,,,,,,,,,,,,,,,,,,,,,,,,,,,,,,,,,,,,,,,,,,,,,,,,,,,,,,
,,,,,,,,,,,,a,Incorrect,,,,,,t1.png,t3.png,2,0.0565,19,female,2020-08-18_20h23.19.990,torte-2b,2020.1.3,MacIntel,60,13320,0.9684,,,,,0,86,86,12,1,,,,,,,,,,,,,,,,,,,,,,,,,,,,,,,,,,,,,,,,,,,,,,,,,,,,,,,,
,,,,,,,,,,,,a,Incorrect,,,,,,t5.png,t2.png,3,0.0000131,19,female,2020-08-18_20h23.19.990,torte-2b,2020.1.3,MacIntel,60,13320,0.870455,,,,,0,87,87,82,1,,,,,,,,,,,,,,,,,,,,,,,,,,,,,,,,,,,,,,,,,,,,,,,,,,,,,,,,
,,,,,,,,,,,,l,Correct!,,,,,,t5.png,t1.png,4,9.55E-11,19,female,2020-08-18_20h23.19.990,torte-2b,2020.1.3,MacIntel,60,13320,0.70244,,,,,0,88,88,15,1,,,,,,,,,,,,,,,,,,,,,,,,,,,,,,,,,,,,,,,,,,,,,,,,,,,,,,,,
,,,,,,,,,,,,a,Incorrect,,,,,,t2.png,t5.png,3,0.0000131,19,female,2020-08-18_20h23.19.990,torte-2b,2020.1.3,MacIntel,60,13320,0.989,,,,,0,89,89,115,1,,,,,,,,,,,,,,,,,,,,,,,,,,,,,,,,,,,,,,,,,,,,,,,,,,,,,,,,
,,,,,,,,,,,,a,Incorrect,,,,,,t5.png,t2.png,3,0.0000131,19,female,2020-08-18_20h23.19.990,torte-2b,2020.1.3,MacIntel,60,13320,0.95483,,,,,0,90,90,43,1,,,,,,,,,,,,,,,,,,,,,,,,,,,,,,,,,,,,,,,,,,,,,,,,,,,,,,,,
,,,,,,,,,,,,l,Correct!,,,,,,t1.png,t5.png,4,9.55E-11,19,female,2020-08-18_20h23.19.990,torte-2b,2020.1.3,MacIntel,60,13320,0.84971,,,,,0,91,91,3,1,,,,,,,,,,,,,,,,,,,,,,,,,,,,,,,,,,,,,,,,,,,,,,,,,,,,,,,,
,,,,,,,,,,,,a,Correct!,,,,,,t1.png,t2.png,1,0.9,19,female,2020-08-18_20h23.19.990,torte-2b,2020.1.3,MacIntel,60,13320,1.198765,,,,,0,92,92,17,1,,,,,,,,,,,,,,,,,,,,,,,,,,,,,,,,,,,,,,,,,,,,,,,,,,,,,,,,
,,,,,,,,,,,,a,Correct!,,,,,,t5.png,t4.png,1,0.90025,19,female,2020-08-18_20h23.19.990,torte-2b,2020.1.3,MacIntel,60,13320,1.779725,,,,,0,93,93,14,1,,,,,,,,,,,,,,,,,,,,,,,,,,,,,,,,,,,,,,,,,,,,,,,,,,,,,,,,
,,,,,,,,,,,,a,Correct!,,,,,,t2.png,t1.png,1,0.90025,19,female,2020-08-18_20h23.19.990,torte-2b,2020.1.3,MacIntel,60,13320,0.984475,,,,,0,94,94,65,1,,,,,,,,,,,,,,,,,,,,,,,,,,,,,,,,,,,,,,,,,,,,,,,,,,,,,,,,
,,,,,,,,,,,,a,Correct!,,,,,,t4.png,t3.png,1,0.90855,19,female,2020-08-18_20h23.19.990,torte-2b,2020.1.3,MacIntel,60,13320,1.302605,,,,,0,95,95,56,1,,,,,,,,,,,,,,,,,,,,,,,,,,,,,,,,,,,,,,,,,,,,,,,,,,,,,,,,
,,,,,,,,,,,,a,Incorrect,,,,,,t4.png,t1.png,3,0.059078,19,female,2020-08-18_20h23.19.990,torte-2b,2020.1.3,MacIntel,60,13320,1.150325,,,,,0,96,96,87,1,,,,,,,,,,,,,,,,,,,,,,,,,,,,,,,,,,,,,,,,,,,,,,,,,,,,,,,,
,,,,,,,,,,,,,Too slow :(,,,,,,t1.png,t2.png,1,0.90025,19,female,2020-08-18_20h23.19.990,torte-2b,2020.1.3,MacIntel,60,13320,,,,,,0,97,97,96,1,,,,,,,,,,,,,,,,,,,,,,,,,,,,,,,,,,,,,,,,,,,,,,,,,,,,,,,,
,,,,,,,,,,,,a,Correct!,,,,,,t1.png,t2.png,1,0.90025,19,female,2020-08-18_20h23.19.990,torte-2b,2020.1.3,MacIntel,60,13320,0.685655,,,,,0,98,98,6,1,,,,,,,,,,,,,,,,,,,,,,,,,,,,,,,,,,,,,,,,,,,,,,,,,,,,,,,,
,,,,,,,,,,,,a,Incorrect,,,,,,t1.png,t3.png,2,0.056466,19,female,2020-08-18_20h23.19.990,torte-2b,2020.1.3,MacIntel,60,13320,0.82123,,,,,0,99,99,24,1,,,,,,,,,,,,,,,,,,,,,,,,,,,,,,,,,,,,,,,,,,,,,,,,,,,,,,,,
,,,,,,,,,,,,a,Incorrect,,,,,,t4.png,t1.png,3,0.0000131,19,female,2020-08-18_20h23.19.990,torte-2b,2020.1.3,MacIntel,60,13320,1.4546,,,,,0,100,100,91,1,,,,,,,,,,,,,,,,,,,,,,,,,,,,,,,,,,,,,,,,,,,,,,,,,,,,,,,,
,,,,,,,,,,,,a,Correct!,,,,,,t1.png,t1.png,0,0.97829,19,female,2020-08-18_20h23.19.990,torte-2b,2020.1.3,MacIntel,60,13320,0.745455,,,,,0,101,101,114,1,,,,,,,,,,,,,,,,,,,,,,,,,,,,,,,,,,,,,,,,,,,,,,,,,,,,,,,,
,,,,,,,,,,,,a,Correct!,,,,,,t4.png,t3.png,1,0.909,19,female,2020-08-18_20h23.19.990,torte-2b,2020.1.3,MacIntel,60,13320,1.358515,,,,,0,102,102,107,1,,,,,,,,,,,,,,,,,,,,,,,,,,,,,,,,,,,,,,,,,,,,,,,,,,,,,,,,
,,,,,,,,,,,,a,Correct!,,,,,,t5.png,t5.png,0,0.978,19,female,2020-08-18_20h23.19.990,torte-2b,2020.1.3,MacIntel,60,13320,1.81772,,,,,0,103,103,116,1,,,,,,,,,,,,,,,,,,,,,,,,,,,,,,,,,,,,,,,,,,,,,,,,,,,,,,,,
,,,,,,,,,,,,a,Correct!,,,,,,t5.png,t5.png,0,0.97829,19,female,2020-08-18_20h23.19.990,torte-2b,2020.1.3,MacIntel,60,13320,0.865445,,,,,0,104,104,2,1,,,,,,,,,,,,,,,,,,,,,,,,,,,,,,,,,,,,,,,,,,,,,,,,,,,,,,,,
,,,,,,,,,,,,a,Correct!,,,,,,t5.png,t4.png,1,0.90025,19,female,2020-08-18_20h23.19.990,torte-2b,2020.1.3,MacIntel,60,13320,1.43246,,,,,0,105,105,38,1,,,,,,,,,,,,,,,,,,,,,,,,,,,,,,,,,,,,,,,,,,,,,,,,,,,,,,,,
,,,,,,,,,,,,a,Incorrect,,,,,,t4.png,t1.png,3,0.059078,19,female,2020-08-18_20h23.19.990,torte-2b,2020.1.3,MacIntel,60,13320,1.421435,,,,,0,106,106,57,1,,,,,,,,,,,,,,,,,,,,,,,,,,,,,,,,,,,,,,,,,,,,,,,,,,,,,,,,
,,,,,,,,,,,,a,Correct!,,,,,,t4.png,t3.png,1,0.90855,19,female,2020-08-18_20h23.19.990,torte-2b,2020.1.3,MacIntel,60,13320,0.90117,,,,,0,107,107,11,1,,,,,,,,,,,,,,,,,,,,,,,,,,,,,,,,,,,,,,,,,,,,,,,,,,,,,,,,
,,,,,,,,,,,,a,Correct!,,,,,,t3.png,t4.png,1,0.90855,19,female,2020-08-18_20h23.19.990,torte-2b,2020.1.3,MacIntel,60,13320,1.682265,,,,,0,108,108,111,1,,,,,,,,,,,,,,,,,,,,,,,,,,,,,,,,,,,,,,,,,,,,,,,,,,,,,,,,
,,,,,,,,,,,,a,Correct!,,,,,,t4.png,t3.png,1,0.90855,19,female,2020-08-18_20h23.19.990,torte-2b,2020.1.3,MacIntel,60,13320,1.40699,,,,,0,109,109,29,1,,,,,,,,,,,,,,,,,,,,,,,,,,,,,,,,,,,,,,,,,,,,,,,,,,,,,,,,
,,,,,,,,,,,,a,Correct!,,,,,,t1.png,t2.png,1,0.9,19,female,2020-08-18_20h23.19.990,torte-2b,2020.1.3,MacIntel,60,13320,0.88535,,,,,0,110,110,41,1,,,,,,,,,,,,,,,,,,,,,,,,,,,,,,,,,,,,,,,,,,,,,,,,,,,,,,,,
,,,,,,,,,,,,a,Correct!,,,,,,t2.png,t3.png,1,0.909,19,female,2020-08-18_20h23.19.990,torte-2b,2020.1.3,MacIntel,60,13320,1.848355,,,,,0,111,111,8,1,,,,,,,,,,,,,,,,,,,,,,,,,,,,,,,,,,,,,,,,,,,,,,,,,,,,,,,,
,,,,,,,,,,,,l,Correct!,,,,,,t1.png,t5.png,4,9.55E-11,19,female,2020-08-18_20h23.19.990,torte-2b,2020.1.3,MacIntel,60,13320,0.962285,,,,,0,112,112,118,1,,,,,,,,,,,,,,,,,,,,,,,,,,,,,,,,,,,,,,,,,,,,,,,,,,,,,,,,
,,,,,,,,,,,,a,Correct!,,,,,,t3.png,t2.png,1,0.90855,19,female,2020-08-18_20h23.19.990,torte-2b,2020.1.3,MacIntel,60,13320,1.834325,,,,,0,113,113,108,1,,,,,,,,,,,,,,,,,,,,,,,,,,,,,,,,,,,,,,,,,,,,,,,,,,,,,,,,
,,,,,,,,,,,,a,Incorrect,,,,,,t4.png,t1.png,3,0.0000131,19,female,2020-08-18_20h23.19.990,torte-2b,2020.1.3,MacIntel,60,13320,1.9234,,,,,0,114,114,49,1,,,,,,,,,,,,,,,,,,,,,,,,,,,,,,,,,,,,,,,,,,,,,,,,,,,,,,,,
,,,,,,,,,,,,a,Incorrect,,,,,,t1.png,t4.png,3,0.0000131,19,female,2020-08-18_20h23.19.990,torte-2b,2020.1.3,MacIntel,60,13320,2.22138,,,,,0,115,115,16,1,,,,,,,,,,,,,,,,,,,,,,,,,,,,,,,,,,,,,,,,,,,,,,,,,,,,,,,,
,,,,,,,,,,,,a,Correct!,,,,,,t4.png,t4.png,0,0.98115,19,female,2020-08-18_20h23.19.990,torte-2b,2020.1.3,MacIntel,60,13320,1.25147,,,,,0,116,116,59,1,,,,,,,,,,,,,,,,,,,,,,,,,,,,,,,,,,,,,,,,,,,,,,,,,,,,,,,,
,,,,,,,,,,,,a,Correct!,,,,,,t2.png,t3.png,1,0.90855,19,female,2020-08-18_20h23.19.990,torte-2b,2020.1.3,MacIntel,60,13320,2.073295,,,,,0,117,117,79,1,,,,,,,,,,,,,,,,,,,,,,,,,,,,,,,,,,,,,,,,,,,,,,,,,,,,,,,,
,,,,,,,,,,,,a,Correct!,,,,,,t3.png,t4.png,1,0.90855,19,female,2020-08-18_20h23.19.990,torte-2b,2020.1.3,MacIntel,60,13320,1.397985,,,,,0,118,118,103,1,,,,,,,,,,,,,,,,,,,,,,,,,,,,,,,,,,,,,,,,,,,,,,,,,,,,,,,,
,,,,,,,,,,,,a,Correct!,,,,,,t2.png,t2.png,0,0.98115,19,female,2020-08-18_20h23.19.990,torte-2b,2020.1.3,MacIntel,60,13320,0.975775,,,,,0,119,119,69,1,,,,,,,,,,,,,,,,,,,,,,,,,,,,,,,,,,,,,,,,,,,,,,,,,,,,,,,,
,,,,,,,,,,,,,,,,,,,,,,,19,female,2020-08-18_20h23.19.990,torte-2b,2020.1.3,MacIntel,60,13320,,space,1.20393,,,,,,,,space,57.15848,,0,0,0,0,1,6,,,,,,,,,,,,,,,,,,,,,,,,,,,,,,,,,,,,,,,,,,,,,,,
,,,,,,,,,,,,,,,,,,,,,,,19,female,2020-08-18_20h23.19.990,torte-2b,2020.1.3,MacIntel,60,13320,,,,,,,,,,,,,,0,1,1,1,1,7,,,,,,,,,,,,,,,,,,,,,,,,,,,,,,,,,,,,,,,,,,,,,,,
,,,,,,,,,,,,,,,,,,,,,,,19,female,2020-08-18_20h23.19.990,torte-2b,2020.1.3,MacIntel,60,13320,,,,,,,,,,,,,,0,2,2,2,1,6,,,,,,,,,,,,,,,,,,,,,,,,,,,,,,,,,,,,,,,,,,,,,,,
,,,,,,,,,,,,,,,,,,,,,,,19,female,2020-08-18_20h23.19.990,torte-2b,2020.1.3,MacIntel,60,13320,,,,,,,,,,,,,,0,3,3,3,1,7,,,,,,,,,,,,,,,,,,,,,,,,,,,,,,,,,,,,,,,,,,,,,,,
,,,,,,,,,,,,,,,,,,,,,,,19,female,2020-08-18_20h23.19.990,torte-2b,2020.1.3,MacIntel,60,13320,,,,,,,,,,,,,space,0,4,4,4,1,5,0.358305,,,,,,,,,,,,,,,,,,,,,,,,,,,,,,,,,,,,,,,,,,,,,,
,,,,,,,,,,,,,,,,,,,,,,,19,female,2020-08-18_20h23.19.990,torte-2b,2020.1.3,MacIntel,60,13320,,,,,,,,,,,,,,0,5,5,5,1,7,,,,,,,,,,,,,,,,,,,,,,,,,,,,,,,,,,,,,,,,,,,,,,,
,,,,,,,,,,,,,,,,,,,,,,,19,female,2020-08-18_20h23.19.990,torte-2b,2020.1.3,MacIntel,60,13320,,,,,,,,,,,,,,0,6,6,6,1,2,,,,,,,,,,,,,,,,,,,,,,,,,,,,,,,,,,,,,,,,,,,,,,,
,,,,,,,,,,,,,,,,,,,,,,,19,female,2020-08-18_20h23.19.990,torte-2b,2020.1.3,MacIntel,60,13320,,,,,,,,,,,,,,0,7,7,7,1,4,,,,,,,,,,,,,,,,,,,,,,,,,,,,,,,,,,,,,,,,,,,,,,,
,,,,,,,,,,,,,,,,,,,,,,,19,female,2020-08-18_20h23.19.990,torte-2b,2020.1.3,MacIntel,60,13320,,,,,,,,,,,,,,0,8,8,8,1,7,,,,,,,,,,,,,,,,,,,,,,,,,,,,,,,,,,,,,,,,,,,,,,,
,,,,,,,,,,,,,,,,,,,,,,,19,female,2020-08-18_20h23.19.990,torte-2b,2020.1.3,MacIntel,60,13320,,,,,,,,,,,,,,0,9,9,9,1,4,,,,,,,,,,,,,,,,,,,,,,,,,,,,,,,,,,,,,,,,,,,,,,,
,,,,,,,,,,,,,,,,,,,,,,,19,female,2020-08-18_20h23.19.990,torte-2b,2020.1.3,MacIntel,60,13320,,,,,,,,,,,,,,0,10,10,10,1,7,,,,,,,,,,,,,,,,,,,,,,,,,,,,,,,,,,,,,,,,,,,,,,,
,,,,,,,,,,,,,,,,,,,,,,,19,female,2020-08-18_20h23.19.990,torte-2b,2020.1.3,MacIntel,60,13320,,,,,,,,,,,,,,0,11,11,11,1,7,,,,,,,,,,,,,,,,,,,,,,,,,,,,,,,,,,,,,,,,,,,,,,,
,,,,,,,,,,,,,,,,,,,,,,,19,female,2020-08-18_20h23.19.990,torte-2b,2020.1.3,MacIntel,60,13320,,,,,,,,,,,,,space,0,12,12,12,1,7,0.614515,,,,,,,,,,,,,,,,,,,,,,,,,,,,,,,,,,,,,,,,,,,,,,
,,,,,,,,,,,,,,,,,,,,,,,19,female,2020-08-18_20h23.19.990,torte-2b,2020.1.3,MacIntel,60,13320,,,,,,,,,,,,,,0,13,13,13,1,4,,,,,,,,,,,,,,,,,,,,,,,,,,,,,,,,,,,,,,,,,,,,,,,
,,,,,,,,,,,,,,,,,,,,,,,19,female,2020-08-18_20h23.19.990,torte-2b,2020.1.3,MacIntel,60,13320,,,,,,,,,,,,,,0,14,14,14,1,6,,,,,,,,,,,,,,,,,,,,,,,,,,,,,,,,,,,,,,,,,,,,,,,
,,,,,,,,,,,,,,,,,,,,,,,19,female,2020-08-18_20h23.19.990,torte-2b,2020.1.3,MacIntel,60,13320,,,,,,,,,,,,,,0,15,15,15,1,4,,,,,,,,,,,,,,,,,,,,,,,,,,,,,,,,,,,,,,,,,,,,,,,
,,,,,,,,,,,,,,,,,,,,,,,19,female,2020-08-18_20h23.19.990,torte-2b,2020.1.3,MacIntel,60,13320,,,,,,,,,,,,,,0,16,16,16,1,6,,,,,,,,,,,,,,,,,,,,,,,,,,,,,,,,,,,,,,,,,,,,,,,
,,,,,,,,,,,,,,,,,,,,,,,19,female,2020-08-18_20h23.19.990,torte-2b,2020.1.3,MacIntel,60,13320,,,,,,,,,,,,,,0,17,17,17,1,7,,,,,,,,,,,,,,,,,,,,,,,,,,,,,,,,,,,,,,,,,,,,,,,
,,,,,,,,,,,,,,,,,,,,,,,19,female,2020-08-18_20h23.19.990,torte-2b,2020.1.3,MacIntel,60,13320,,,,,,,,,,,,,,0,18,18,18,1,6,,,,,,,,,,,,,,,,,,,,,,,,,,,,,,,,,,,,,,,,,,,,,,,
,,,,,,,,,,,,,,,,,,,,,,,19,female,2020-08-18_20h23.19.990,torte-2b,2020.1.3,MacIntel,60,13320,,,,,,,,,,,,,,0,19,19,19,1,7,,,,,,,,,,,,,,,,,,,,,,,,,,,,,,,,,,,,,,,,,,,,,,,
,,,,,,,,,,,,,,,,,,,,,,,19,female,2020-08-18_20h23.19.990,torte-2b,2020.1.3,MacIntel,60,13320,,,,,,,,,,,,,,0,20,20,20,1,5,,,,,,,,,,,,,,,,,,,,,,,,,,,,,,,,,,,,,,,,,,,,,,,
,,,,,,,,,,,,,,,,,,,,,,,19,female,2020-08-18_20h23.19.990,torte-2b,2020.1.3,MacIntel,60,13320,,,,,,,,,,,,,,0,21,21,21,1,1,,,,,,,,,,,,,,,,,,,,,,,,,,,,,,,,,,,,,,,,,,,,,,,
,,,,,,,,,,,,,,,,,,,,,,,19,female,2020-08-18_20h23.19.990,torte-2b,2020.1.3,MacIntel,60,13320,,,,,,,,,,,,,,0,22,22,22,1,6,,,,,,,,,,,,,,,,,,,,,,,,,,,,,,,,,,,,,,,,,,,,,,,
,,,,,,,,,,,,,,,,,,,,,,,19,female,2020-08-18_20h23.19.990,torte-2b,2020.1.3,MacIntel,60,13320,,,,,,,,,,,,,space,0,23,23,23,1,1,0.485565,,,,,,,,,,,,,,,,,,,,,,,,,,,,,,,,,,,,,,,,,,,,,,
,,,,,,,,,,,,,,,,,,,,,,,19,female,2020-08-18_20h23.19.990,torte-2b,2020.1.3,MacIntel,60,13320,,,,,,,,,,,,,space,0,24,24,24,1,5,0.387425,,,,,,,,,,,,,,,,,,,,,,,,,,,,,,,,,,,,,,,,,,,,,,
,,,,,,,,,,,,,,,,,,,,,,,19,female,2020-08-18_20h23.19.990,torte-2b,2020.1.3,MacIntel,60,13320,,,,,,,,,,,,,,0,25,25,25,1,6,,,,,,,,,,,,,,,,,,,,,,,,,,,,,,,,,,,,,,,,,,,,,,,
,,,,,,,,,,,,,,,,,,,,,,,19,female,2020-08-18_20h23.19.990,torte-2b,2020.1.3,MacIntel,60,13320,,,,,,,,,,,,,,0,26,26,26,1,6,,,,,,,,,,,,,,,,,,,,,,,,,,,,,,,,,,,,,,,,,,,,,,,
,,,,,,,,,,,,,,,,,,,,,,,19,female,2020-08-18_20h23.19.990,torte-2b,2020.1.3,MacIntel,60,13320,,,,,,,,,,,,,,0,27,27,27,1,6,,,,,,,,,,,,,,,,,,,,,,,,,,,,,,,,,,,,,,,,,,,,,,,
,,,,,,,,,,,,,,,,,,,,,,,19,female,2020-08-18_20h23.19.990,torte-2b,2020.1.3,MacIntel,60,13320,,,,,,,,,,,,,,0,28,28,28,1,5,,,,,,,,,,,,,,,,,,,,,,,,,,,,,,,,,,,,,,,,,,,,,,,
,,,,,,,,,,,,,,,,,,,,,,,19,female,2020-08-18_20h23.19.990,torte-2b,2020.1.3,MacIntel,60,13320,,,,,,,,,,,,,,0,29,29,29,1,2,,,,,,,,,,,,,,,,,,,,,,,,,,,,,,,,,,,,,,,,,,,,,,,
,,,,,,,,,,,,,,,,,,,,,,,19,female,2020-08-18_20h23.19.990,torte-2b,2020.1.3,MacIntel,60,13320,,,,,,,,,,,,,,0,30,30,30,1,5,,,,,,,,,,,,,,,,,,,,,,,,,,,,,,,,,,,,,,,,,,,,,,,
,,,,,,,,,,,,,,,,,,,,,,,19,female,2020-08-18_20h23.19.990,torte-2b,2020.1.3,MacIntel,60,13320,,,,,,,,,,,,,,0,31,31,31,1,2,,,,,,,,,,,,,,,,,,,,,,,,,,,,,,,,,,,,,,,,,,,,,,,
,,,,,,,,,,,,,,,,,,,,,,,19,female,2020-08-18_20h23.19.990,torte-2b,2020.1.3,MacIntel,60,13320,,,,,,,,,,,,,space,0,32,32,32,1,5,0.48684,,,,,,,,,,,,,,,,,,,,,,,,,,,,,,,,,,,,,,,,,,,,,,
,,,,,,,,,,,,,,,,,,,,,,,19,female,2020-08-18_20h23.19.990,torte-2b,2020.1.3,MacIntel,60,13320,,,,,,,,,,,,,,0,33,33,33,1,1,,,,,,,,,,,,,,,,,,,,,,,,,,,,,,,,,,,,,,,,,,,,,,,
,,,,,,,,,,,,,,,,,,,,,,,19,female,2020-08-18_20h23.19.990,torte-2b,2020.1.3,MacIntel,60,13320,,,,,,,,,,,,,,0,34,34,34,1,1,,,,,,,,,,,,,,,,,,,,,,,,,,,,,,,,,,,,,,,,,,,,,,,
,,,,,,,,,,,,,,,,,,,,,,,19,female,2020-08-18_20h23.19.990,torte-2b,2020.1.3,MacIntel,60,13320,,,,,,,,,,,,,,,,,,,2,,0,0,0,0,1,,,,,,,,,,,,,,,,,,,,,,,,,,,,,,,,,,,,,,,,,
,,,,,,,,,,,,,,,,,,,,,,,19,female,2020-08-18_20h23.19.990,torte-2b,2020.1.3,MacIntel,60,13320,,,,,,,,,,,,,,,,,,,2,,0,1,1,1,1,,,,,,,,,,,,,,,,,,,,,,,,,,,,,,,,,,,,,,,,,
,,,,,,,,,,,,,,,,,,,,,,,19,female,2020-08-18_20h23.19.990,torte-2b,2020.1.3,MacIntel,60,13320,,,,,,,,,,,,,,,,,,,6,,0,2,2,2,1,,,,,,,,,,,,,,,,,,,,,,,,,,,,,,,,,,,,,,,,,
,,,,,,,,,,,,,,,,,,,,,,,19,female,2020-08-18_20h23.19.990,torte-2b,2020.1.3,MacIntel,60,13320,,,,,,,,,,,,,space,,,,,,2,0.50722,0,3,3,3,1,,,,,,,,,,,,,,,,,,,,,,,,,,,,,,,,,,,,,,,,,
,,,,,,,,,,,,,,,,,,,,,,,19,female,2020-08-18_20h23.19.990,torte-2b,2020.1.3,MacIntel,60,13320,,,,,,,,,,,,,space,,,,,,6,0.980705,0,4,4,4,1,,,,,,,,,,,,,,,,,,,,,,,,,,,,,,,,,,,,,,,,,
,,,,,,,,,,,,,,,,,,,,,,,19,female,2020-08-18_20h23.19.990,torte-2b,2020.1.3,MacIntel,60,13320,,,,,,,,,,,,,,,,,,,2,,0,5,5,5,1,,,,,,,,,,,,,,,,,,,,,,,,,,,,,,,,,,,,,,,,,
,,,,,,,,,,,,,,,,,,,,,,,19,female,2020-08-18_20h23.19.990,torte-2b,2020.1.3,MacIntel,60,13320,,,,,,,,,,,,,,,,,,,7,,0,6,6,6,1,,,,,,,,,,,,,,,,,,,,,,,,,,,,,,,,,,,,,,,,,
,,,,,,,,,,,,,,,,,,,,,,,19,female,2020-08-18_20h23.19.990,torte-2b,2020.1.3,MacIntel,60,13320,,,,,,,,,,,,,space,,,,,,2,0.58009,0,7,7,7,1,,,,,,,,,,,,,,,,,,,,,,,,,,,,,,,,,,,,,,,,,
,,,,,,,,,,,,,,,,,,,,,,,19,female,2020-08-18_20h23.19.990,torte-2b,2020.1.3,MacIntel,60,13320,,,,,,,,,,,,,space,,,,,,7,0.68167,0,8,8,8,1,,,,,,,,,,,,,,,,,,,,,,,,,,,,,,,,,,,,,,,,,
,,,,,,,,,,,,,,,,,,,,,,,19,female,2020-08-18_20h23.19.990,torte-2b,2020.1.3,MacIntel,60,13320,,,,,,,,,,,,,,,,,,,2,,0,9,9,9,1,,,,,,,,,,,,,,,,,,,,,,,,,,,,,,,,,,,,,,,,,
,,,,,,,,,,,,,,,,,,,,,,,19,female,2020-08-18_20h23.19.990,torte-2b,2020.1.3,MacIntel,60,13320,,,,,,,,,,,,,,,,,,,5,,0,10,10,10,1,,,,,,,,,,,,,,,,,,,,,,,,,,,,,,,,,,,,,,,,,
,,,,,,,,,,,,,,,,,,,,,,,19,female,2020-08-18_20h23.19.990,torte-2b,2020.1.3,MacIntel,60,13320,,,,,,,,,,,,,,,,,,,4,,0,11,11,11,1,,,,,,,,,,,,,,,,,,,,,,,,,,,,,,,,,,,,,,,,,
,,,,,,,,,,,,,,,,,,,,,,,19,female,2020-08-18_20h23.19.990,torte-2b,2020.1.3,MacIntel,60,13320,,,,,,,,,,,,,,,,,,,5,,0,12,12,12,1,,,,,,,,,,,,,,,,,,,,,,,,,,,,,,,,,,,,,,,,,
,,,,,,,,,,,,,,,,,,,,,,,19,female,2020-08-18_20h23.19.990,torte-2b,2020.1.3,MacIntel,60,13320,,,,,,,,,,,,,space,,,,,,6,0.628985,0,13,13,13,1,,,,,,,,,,,,,,,,,,,,,,,,,,,,,,,,,,,,,,,,,
,,,,,,,,,,,,,,,,,,,,,,,19,female,2020-08-18_20h23.19.990,torte-2b,2020.1.3,MacIntel,60,13320,,,,,,,,,,,,,,,,,,,5,,0,14,14,14,1,,,,,,,,,,,,,,,,,,,,,,,,,,,,,,,,,,,,,,,,,
,,,,,,,,,,,,,,,,,,,,,,,19,female,2020-08-18_20h23.19.990,torte-2b,2020.1.3,MacIntel,60,13320,,,,,,,,,,,,,,,,,,,4,,0,15,15,15,1,,,,,,,,,,,,,,,,,,,,,,,,,,,,,,,,,,,,,,,,,
,,,,,,,,,,,,,,,,,,,,,,,19,female,2020-08-18_20h23.19.990,torte-2b,2020.1.3,MacIntel,60,13320,,,,,,,,,,,,,space,,,,,,5,0.328375,0,16,16,16,1,,,,,,,,,,,,,,,,,,,,,,,,,,,,,,,,,,,,,,,,,
,,,,,,,,,,,,,,,,,,,,,,,19,female,2020-08-18_20h23.19.990,torte-2b,2020.1.3,MacIntel,60,13320,,,,,,,,,,,,,space,,,,,,3,0.36929,0,17,17,17,1,,,,,,,,,,,,,,,,,,,,,,,,,,,,,,,,,,,,,,,,,
,,,,,,,,,,,,,,,,,,,,,,,19,female,2020-08-18_20h23.19.990,torte-2b,2020.1.3,MacIntel,60,13320,,,,,,,,,,,,,,,,,,,6,,0,18,18,18,1,,,,,,,,,,,,,,,,,,,,,,,,,,,,,,,,,,,,,,,,,
,,,,,,,,,,,,,,,,,,,,,,,19,female,2020-08-18_20h23.19.990,torte-2b,2020.1.3,MacIntel,60,13320,,,,,,,,,,,,,,,,,,,6,,0,19,19,19,1,,,,,,,,,,,,,,,,,,,,,,,,,,,,,,,,,,,,,,,,,
,,,,,,,,,,,,,,,,,,,,,,,19,female,2020-08-18_20h23.19.990,torte-2b,2020.1.3,MacIntel,60,13320,,,,,,,,,,,,,space,,,,,,6,0.505065,0,20,20,20,1,,,,,,,,,,,,,,,,,,,,,,,,,,,,,,,,,,,,,,,,,
,,,,,,,,,,,,,,,,,,,,,,,19,female,2020-08-18_20h23.19.990,torte-2b,2020.1.3,MacIntel,60,13320,,,,,,,,,,,,,,,,,,,4,,0,21,21,21,1,,,,,,,,,,,,,,,,,,,,,,,,,,,,,,,,,,,,,,,,,
,,,,,,,,,,,,,,,,,,,,,,,19,female,2020-08-18_20h23.19.990,torte-2b,2020.1.3,MacIntel,60,13320,,,,,,,,,,,,,space,,,,,,6,0.48456,0,22,22,22,1,,,,,,,,,,,,,,,,,,,,,,,,,,,,,,,,,,,,,,,,,
,,,,,,,,,,,,,,,,,,,,,,,19,female,2020-08-18_20h23.19.990,torte-2b,2020.1.3,MacIntel,60,13320,,,,,,,,,,,,,,,,,,,4,,0,23,23,23,1,,,,,,,,,,,,,,,,,,,,,,,,,,,,,,,,,,,,,,,,,
,,,,,,,,,,,,,,,,,,,,,,,19,female,2020-08-18_20h23.19.990,torte-2b,2020.1.3,MacIntel,60,13320,,,,,,,,,,,,,,,,,,,6,,0,24,24,24,1,,,,,,,,,,,,,,,,,,,,,,,,,,,,,,,,,,,,,,,,,
,,,,,,,,,,,,,,,,,,,,,,,19,female,2020-08-18_20h23.19.990,torte-2b,2020.1.3,MacIntel,60,13320,,,,,,,,,,,,,space,,,,,,6,0.701365,0,25,25,25,1,,,,,,,,,,,,,,,,,,,,,,,,,,,,,,,,,,,,,,,,,
,,,,,,,,,,,,,,,,,,,,,,,19,female,2020-08-18_20h23.19.990,torte-2b,2020.1.3,MacIntel,60,13320,,,,,,,,,,,,,space,,,,,,7,0.76056,0,26,26,26,1,,,,,,,,,,,,,,,,,,,,,,,,,,,,,,,,,,,,,,,,,
,,,,,,,,,,,,,,,,,,,,,,,19,female,2020-08-18_20h23.19.990,torte-2b,2020.1.3,MacIntel,60,13320,,,,,,,,,,,,,space,,,,,,1,0.54283,0,27,27,27,1,,,,,,,,,,,,,,,,,,,,,,,,,,,,,,,,,,,,,,,,,
,,,,,,,,,,,,,,,,,,,,,,,19,female,2020-08-18_20h23.19.990,torte-2b,2020.1.3,MacIntel,60,13320,,,,,,,,,,,,,space,,,,,,7,0.96838,0,28,28,28,1,,,,,,,,,,,,,,,,,,,,,,,,,,,,,,,,,,,,,,,,,
,,,,,,,,,,,,,,,,,,,,,,,19,female,2020-08-18_20h23.19.990,torte-2b,2020.1.3,MacIntel,60,13320,,,,,,,,,,,,,space,,,,,,4,0.70371,0,29,29,29,1,,,,,,,,,,,,,,,,,,,,,,,,,,,,,,,,,,,,,,,,,
,,,,,,,,,,,,,,,,,,,,,,,19,female,2020-08-18_20h23.19.990,torte-2b,2020.1.3,MacIntel,60,13320,,,,,,,,,,,,,,,,,,,7,,0,30,30,30,1,,,,,,,,,,,,,,,,,,,,,,,,,,,,,,,,,,,,,,,,,
,,,,,,,,,,,,,,,,,,,,,,,19,female,2020-08-18_20h23.19.990,torte-2b,2020.1.3,MacIntel,60,13320,,,,,,,,,,,,,,,,,,,3,,0,31,31,31,1,,,,,,,,,,,,,,,,,,,,,,,,,,,,,,,,,,,,,,,,,
,,,,,,,,,,,,,,,,,,,,,,,19,female,2020-08-18_20h23.19.990,torte-2b,2020.1.3,MacIntel,60,13320,,,,,,,,,,,,,,,,,,,2,,0,32,32,32,1,,,,,,,,,,,,,,,,,,,,,,,,,,,,,,,,,,,,,,,,,
,,,,,,,,,,,,,,,,,,,,,,,19,female,2020-08-18_20h23.19.990,torte-2b,2020.1.3,MacIntel,60,13320,,,,,,,,,,,,,space,,,,,,6,0.41327,0,33,33,33,1,,,,,,,,,,,,,,,,,,,,,,,,,,,,,,,,,,,,,,,,,
,,,,,,,,,,,,,,,,,,,,,,,19,female,2020-08-18_20h23.19.990,torte-2b,2020.1.3,MacIntel,60,13320,,,,,,,,,,,,,space,,,,,,3,0.48899,0,34,34,34,1,,,,,,,,,,,,,,,,,,,,,,,,,,,,,,,,,,,,,,,,,
,,,,,,,,,,,,,,,,,,,,,,,19,female,2020-08-18_20h23.19.990,torte-2b,2020.1.3,MacIntel,60,13320,,,,,,,,,,,,,,,,,,,7,,,,,,,0,0,0,0,1,,,,,,,,,,,,,,,,,,,,,,,,,,,,,,,,,,,,
,,,,,,,,,,,,,,,,,,,,,,,19,female,2020-08-18_20h23.19.990,torte-2b,2020.1.3,MacIntel,60,13320,,,,,,,,,,,,,,,,,,,5,,,,,,,0,1,1,1,1,,,,,,,,,,,,,,,,,,,,,,,,,,,,,,,,,,,,
,,,,,,,,,,,,,,,,,,,,,,,19,female,2020-08-18_20h23.19.990,torte-2b,2020.1.3,MacIntel,60,13320,,,,,,,,,,,,,,,,,,,4,,,,,,,0,2,2,2,1,,,,,,,,,,,,,,,,,,,,,,,,,,,,,,,,,,,,
,,,,,,,,,,,,,,,,,,,,,,,19,female,2020-08-18_20h23.19.990,torte-2b,2020.1.3,MacIntel,60,13320,,,,,,,,,,,,,space,,,,,,5,0.815985,,,,,,0,3,3,3,1,,,,,,,,,,,,,,,,,,,,,,,,,,,,,,,,,,,,
,,,,,,,,,,,,,,,,,,,,,,,19,female,2020-08-18_20h23.19.990,torte-2b,2020.1.3,MacIntel,60,13320,,,,,,,,,,,,,,,,,,,6,,,,,,,0,4,4,4,1,,,,,,,,,,,,,,,,,,,,,,,,,,,,,,,,,,,,
,,,,,,,,,,,,,,,,,,,,,,,19,female,2020-08-18_20h23.19.990,torte-2b,2020.1.3,MacIntel,60,13320,,,,,,,,,,,,,space,,,,,,5,0.775115,,,,,,0,5,5,5,1,,,,,,,,,,,,,,,,,,,,,,,,,,,,,,,,,,,,
,,,,,,,,,,,,,,,,,,,,,,,19,female,2020-08-18_20h23.19.990,torte-2b,2020.1.3,MacIntel,60,13320,,,,,,,,,,,,,,,,,,,3,,,,,,,0,6,6,6,1,,,,,,,,,,,,,,,,,,,,,,,,,,,,,,,,,,,,
,,,,,,,,,,,,,,,,,,,,,,,19,female,2020-08-18_20h23.19.990,torte-2b,2020.1.3,MacIntel,60,13320,,,,,,,,,,,,,space,,,,,,4,0.66548,,,,,,0,7,7,7,1,,,,,,,,,,,,,,,,,,,,,,,,,,,,,,,,,,,,
,,,,,,,,,,,,,,,,,,,,,,,19,female,2020-08-18_20h23.19.990,torte-2b,2020.1.3,MacIntel,60,13320,,,,,,,,,,,,,,,,,,,3,,,,,,,0,8,8,8,1,,,,,,,,,,,,,,,,,,,,,,,,,,,,,,,,,,,,
,,,,,,,,,,,,,,,,,,,,,,,19,female,2020-08-18_20h23.19.990,torte-2b,2020.1.3,MacIntel,60,13320,,,,,,,,,,,,,,,,,,,1,,,,,,,0,9,9,9,1,,,,,,,,,,,,,,,,,,,,,,,,,,,,,,,,,,,,
,,,,,,,,,,,,,,,,,,,,,,,19,female,2020-08-18_20h23.19.990,torte-2b,2020.1.3,MacIntel,60,13320,,,,,,,,,,,,,,,,,,,2,,,,,,,0,10,10,10,1,,,,,,,,,,,,,,,,,,,,,,,,,,,,,,,,,,,,
,,,,,,,,,,,,,,,,,,,,,,,19,female,2020-08-18_20h23.19.990,torte-2b,2020.1.3,MacIntel,60,13320,,,,,,,,,,,,,space,,,,,,1,0.695545,,,,,,0,11,11,11,1,,,,,,,,,,,,,,,,,,,,,,,,,,,,,,,,,,,,
,,,,,,,,,,,,,,,,,,,,,,,19,female,2020-08-18_20h23.19.990,torte-2b,2020.1.3,MacIntel,60,13320,,,,,,,,,,,,,,,,,,,2,,,,,,,0,12,12,12,1,,,,,,,,,,,,,,,,,,,,,,,,,,,,,,,,,,,,
,,,,,,,,,,,,,,,,,,,,,,,19,female,2020-08-18_20h23.19.990,torte-2b,2020.1.3,MacIntel,60,13320,,,,,,,,,,,,,space,,,,,,1,1.037015,,,,,,0,13,13,13,1,,,,,,,,,,,,,,,,,,,,,,,,,,,,,,,,,,,,
,,,,,,,,,,,,,,,,,,,,,,,19,female,2020-08-18_20h23.19.990,torte-2b,2020.1.3,MacIntel,60,13320,,,,,,,,,,,,,,,,,,,3,,,,,,,0,14,14,14,1,,,,,,,,,,,,,,,,,,,,,,,,,,,,,,,,,,,,
,,,,,,,,,,,,,,,,,,,,,,,19,female,2020-08-18_20h23.19.990,torte-2b,2020.1.3,MacIntel,60,13320,,,,,,,,,,,,,space,,,,,,1,0.76546,,,,,,0,15,15,15,1,,,,,,,,,,,,,,,,,,,,,,,,,,,,,,,,,,,,
,,,,,,,,,,,,,,,,,,,,,,,19,female,2020-08-18_20h23.19.990,torte-2b,2020.1.3,MacIntel,60,13320,,,,,,,,,,,,,,,,,,,7,,,,,,,0,16,16,16,1,,,,,,,,,,,,,,,,,,,,,,,,,,,,,,,,,,,,
,,,,,,,,,,,,,,,,,,,,,,,19,female,2020-08-18_20h23.19.990,torte-2b,2020.1.3,MacIntel,60,13320,,,,,,,,,,,,,,,,,,,7,,,,,,,0,17,17,17,1,,,,,,,,,,,,,,,,,,,,,,,,,,,,,,,,,,,,
,,,,,,,,,,,,,,,,,,,,,,,19,female,2020-08-18_20h23.19.990,torte-2b,2020.1.3,MacIntel,60,13320,,,,,,,,,,,,,,,,,,,4,,,,,,,0,18,18,18,1,,,,,,,,,,,,,,,,,,,,,,,,,,,,,,,,,,,,
,,,,,,,,,,,,,,,,,,,,,,,19,female,2020-08-18_20h23.19.990,torte-2b,2020.1.3,MacIntel,60,13320,,,,,,,,,,,,,space,,,,,,7,0.509295,,,,,,0,19,19,19,1,,,,,,,,,,,,,,,,,,,,,,,,,,,,,,,,,,,,
,,,,,,,,,,,,,,,,,,,,,,,19,female,2020-08-18_20h23.19.990,torte-2b,2020.1.3,MacIntel,60,13320,,,,,,,,,,,,,space,,,,,,3,0.568785,,,,,,0,20,20,20,1,,,,,,,,,,,,,,,,,,,,,,,,,,,,,,,,,,,,
,,,,,,,,,,,,,,,,,,,,,,,19,female,2020-08-18_20h23.19.990,torte-2b,2020.1.3,MacIntel,60,13320,,,,,,,,,,,,,,,,,,,7,,,,,,,0,21,21,21,1,,,,,,,,,,,,,,,,,,,,,,,,,,,,,,,,,,,,
,,,,,,,,,,,,,,,,,,,,,,,19,female,2020-08-18_20h23.19.990,torte-2b,2020.1.3,MacIntel,60,13320,,,,,,,,,,,,,,,,,,,3,,,,,,,0,22,22,22,1,,,,,,,,,,,,,,,,,,,,,,,,,,,,,,,,,,,,
,,,,,,,,,,,,,,,,,,,,,,,19,female,2020-08-18_20h23.19.990,torte-2b,2020.1.3,MacIntel,60,13320,,,,,,,,,,,,,space,,,,,,1,0.55917,,,,,,0,23,23,23,1,,,,,,,,,,,,,,,,,,,,,,,,,,,,,,,,,,,,
,,,,,,,,,,,,,,,,,,,,,,,19,female,2020-08-18_20h23.19.990,torte-2b,2020.1.3,MacIntel,60,13320,,,,,,,,,,,,,,,,,,,6,,,,,,,0,24,24,24,1,,,,,,,,,,,,,,,,,,,,,,,,,,,,,,,,,,,,
,,,,,,,,,,,,,,,,,,,,,,,19,female,2020-08-18_20h23.19.990,torte-2b,2020.1.3,MacIntel,60,13320,,,,,,,,,,,,,,,,,,,3,,,,,,,0,25,25,25,1,,,,,,,,,,,,,,,,,,,,,,,,,,,,,,,,,,,,
,,,,,,,,,,,,,,,,,,,,,,,19,female,2020-08-18_20h23.19.990,torte-2b,2020.1.3,MacIntel,60,13320,,,,,,,,,,,,,,,,,,,2,,,,,,,0,26,26,26,1,,,,,,,,,,,,,,,,,,,,,,,,,,,,,,,,,,,,
,,,,,,,,,,,,,,,,,,,,,,,19,female,2020-08-18_20h23.19.990,torte-2b,2020.1.3,MacIntel,60,13320,,,,,,,,,,,,,space,,,,,,3,0.70606,,,,,,0,27,27,27,1,,,,,,,,,,,,,,,,,,,,,,,,,,,,,,,,,,,,
,,,,,,,,,,,,,,,,,,,,,,,19,female,2020-08-18_20h23.19.990,torte-2b,2020.1.3,MacIntel,60,13320,,,,,,,,,,,,,,,,,,,1,,,,,,,0,28,28,28,1,,,,,,,,,,,,,,,,,,,,,,,,,,,,,,,,,,,,
,,,,,,,,,,,,,,,,,,,,,,,19,female,2020-08-18_20h23.19.990,torte-2b,2020.1.3,MacIntel,60,13320,,,,,,,,,,,,,,,,,,,3,,,,,,,0,29,29,29,1,,,,,,,,,,,,,,,,,,,,,,,,,,,,,,,,,,,,
,,,,,,,,,,,,,,,,,,,,,,,19,female,2020-08-18_20h23.19.990,torte-2b,2020.1.3,MacIntel,60,13320,,,,,,,,,,,,,,,,,,,1,,,,,,,0,30,30,30,1,,,,,,,,,,,,,,,,,,,,,,,,,,,,,,,,,,,,
,,,,,,,,,,,,,,,,,,,,,,,19,female,2020-08-18_20h23.19.990,torte-2b,2020.1.3,MacIntel,60,13320,,,,,,,,,,,,,space,,,,,,7,0.528645,,,,,,0,31,31,31,1,,,,,,,,,,,,,,,,,,,,,,,,,,,,,,,,,,,,
,,,,,,,,,,,,,,,,,,,,,,,19,female,2020-08-18_20h23.19.990,torte-2b,2020.1.3,MacIntel,60,13320,,,,,,,,,,,,,space,,,,,,5,0.570305,,,,,,0,32,32,32,1,,,,,,,,,,,,,,,,,,,,,,,,,,,,,,,,,,,,
,,,,,,,,,,,,,,,,,,,,,,,19,female,2020-08-18_20h23.19.990,torte-2b,2020.1.3,MacIntel,60,13320,,,,,,,,,,,,,,,,,,,7,,,,,,,0,33,33,33,1,,,,,,,,,,,,,,,,,,,,,,,,,,,,,,,,,,,,
,,,,,,,,,,,,,,,,,,,,,,,19,female,2020-08-18_20h23.19.990,torte-2b,2020.1.3,MacIntel,60,13320,,,,,,,,,,,,,,,,,,,2,,,,,,,0,34,34,34,1,,,,,,,,,,,,,,,,,,,,,,,,,,,,,,,,,,,,
,,,,,,,,,,,,,,,,,,,,,,,19,female,2020-08-18_20h23.19.990,torte-2b,2020.1.3,MacIntel,60,13320,,,,,,,,,,,,,,,,,,,3,,,,,,,,,,,,0,0,0,0,1,,,,,,,,,,,,,,,,,,,,,,,,,,,,,,,
,,,,,,,,,,,,,,,,,,,,,,,19,female,2020-08-18_20h23.19.990,torte-2b,2020.1.3,MacIntel,60,13320,,,,,,,,,,,,,,,,,,,7,,,,,,,,,,,,0,1,1,1,1,,,,,,,,,,,,,,,,,,,,,,,,,,,,,,,
,,,,,,,,,,,,,,,,,,,,,,,19,female,2020-08-18_20h23.19.990,torte-2b,2020.1.3,MacIntel,60,13320,,,,,,,,,,,,,,,,,,,7,,,,,,,,,,,,0,2,2,2,1,,,,,,,,,,,,,,,,,,,,,,,,,,,,,,,
,,,,,,,,,,,,,,,,,,,,,,,19,female,2020-08-18_20h23.19.990,torte-2b,2020.1.3,MacIntel,60,13320,,,,,,,,,,,,,,,,,,,4,,,,,,,,,,,,0,3,3,3,1,,,,,,,,,,,,,,,,,,,,,,,,,,,,,,,
,,,,,,,,,,,,,,,,,,,,,,,19,female,2020-08-18_20h23.19.990,torte-2b,2020.1.3,MacIntel,60,13320,,,,,,,,,,,,,,,,,,,5,,,,,,,,,,,,0,4,4,4,1,,,,,,,,,,,,,,,,,,,,,,,,,,,,,,,
,,,,,,,,,,,,,,,,,,,,,,,19,female,2020-08-18_20h23.19.990,torte-2b,2020.1.3,MacIntel,60,13320,,,,,,,,,,,,,space,,,,,,4,0.8924,,,,,,,,,,,0,5,5,5,1,,,,,,,,,,,,,,,,,,,,,,,,,,,,,,,
,,,,,,,,,,,,,,,,,,,,,,,19,female,2020-08-18_20h23.19.990,torte-2b,2020.1.3,MacIntel,60,13320,,,,,,,,,,,,,,,,,,,2,,,,,,,,,,,,0,6,6,6,1,,,,,,,,,,,,,,,,,,,,,,,,,,,,,,,
,,,,,,,,,,,,,,,,,,,,,,,19,female,2020-08-18_20h23.19.990,torte-2b,2020.1.3,MacIntel,60,13320,,,,,,,,,,,,,space,,,,,,4,0.594825,,,,,,,,,,,0,7,7,7,1,,,,,,,,,,,,,,,,,,,,,,,,,,,,,,,
,,,,,,,,,,,,,,,,,,,,,,,19,female,2020-08-18_20h23.19.990,torte-2b,2020.1.3,MacIntel,60,13320,,,,,,,,,,,,,,,,,,,2,,,,,,,,,,,,0,8,8,8,1,,,,,,,,,,,,,,,,,,,,,,,,,,,,,,,
,,,,,,,,,,,,,,,,,,,,,,,19,female,2020-08-18_20h23.19.990,torte-2b,2020.1.3,MacIntel,60,13320,,,,,,,,,,,,,space,,,,,,2,0.647975,,,,,,,,,,,0,9,9,9,1,,,,,,,,,,,,,,,,,,,,,,,,,,,,,,,
,,,,,,,,,,,,,,,,,,,,,,,19,female,2020-08-18_20h23.19.990,torte-2b,2020.1.3,MacIntel,60,13320,,,,,,,,,,,,,,,,,,,6,,,,,,,,,,,,0,10,10,10,1,,,,,,,,,,,,,,,,,,,,,,,,,,,,,,,
,,,,,,,,,,,,,,,,,,,,,,,19,female,2020-08-18_20h23.19.990,torte-2b,2020.1.3,MacIntel,60,13320,,,,,,,,,,,,,space,,,,,,2,0.822135,,,,,,,,,,,0,11,11,11,1,,,,,,,,,,,,,,,,,,,,,,,,,,,,,,,
,,,,,,,,,,,,,,,,,,,,,,,19,female,2020-08-18_20h23.19.990,torte-2b,2020.1.3,MacIntel,60,13320,,,,,,,,,,,,,space,,,,,,2,0.6648,,,,,,,,,,,0,12,12,12,1,,,,,,,,,,,,,,,,,,,,,,,,,,,,,,,
,,,,,,,,,,,,,,,,,,,,,,,19,female,2020-08-18_20h23.19.990,torte-2b,2020.1.3,MacIntel,60,13320,,,,,,,,,,,,,space,,,,,,2,0.489095,,,,,,,,,,,0,13,13,13,1,,,,,,,,,,,,,,,,,,,,,,,,,,,,,,,
,,,,,,,,,,,,,,,,,,,,,,,19,female,2020-08-18_20h23.19.990,torte-2b,2020.1.3,MacIntel,60,13320,,,,,,,,,,,,,space,,,,,,2,0.53434,,,,,,,,,,,0,14,14,14,1,,,,,,,,,,,,,,,,,,,,,,,,,,,,,,,
,,,,,,,,,,,,,,,,,,,,,,,19,female,2020-08-18_20h23.19.990,torte-2b,2020.1.3,MacIntel,60,13320,,,,,,,,,,,,,,,,,,,4,,,,,,,,,,,,0,15,15,15,1,,,,,,,,,,,,,,,,,,,,,,,,,,,,,,,
,,,,,,,,,,,,,,,,,,,,,,,19,female,2020-08-18_20h23.19.990,torte-2b,2020.1.3,MacIntel,60,13320,,,,,,,,,,,,,,,,,,,3,,,,,,,,,,,,0,16,16,16,1,,,,,,,,,,,,,,,,,,,,,,,,,,,,,,,
,,,,,,,,,,,,,,,,,,,,,,,19,female,2020-08-18_20h23.19.990,torte-2b,2020.1.3,MacIntel,60,13320,,,,,,,,,,,,,,,,,,,7,,,,,,,,,,,,0,17,17,17,1,,,,,,,,,,,,,,,,,,,,,,,,,,,,,,,
,,,,,,,,,,,,,,,,,,,,,,,19,female,2020-08-18_20h23.19.990,torte-2b,2020.1.3,MacIntel,60,13320,,,,,,,,,,,,,space,,,,,,4,0.678935,,,,,,,,,,,0,18,18,18,1,,,,,,,,,,,,,,,,,,,,,,,,,,,,,,,
,,,,,,,,,,,,,,,,,,,,,,,19,female,2020-08-18_20h23.19.990,torte-2b,2020.1.3,MacIntel,60,13320,,,,,,,,,,,,,space,,,,,,7,0.811905,,,,,,,,,,,0,19,19,19,1,,,,,,,,,,,,,,,,,,,,,,,,,,,,,,,
,,,,,,,,,,,,,,,,,,,,,,,19,female,2020-08-18_20h23.19.990,torte-2b,2020.1.3,MacIntel,60,13320,,,,,,,,,,,,,space,,,,,,7,0.505315,,,,,,,,,,,0,20,20,20,1,,,,,,,,,,,,,,,,,,,,,,,,,,,,,,,
,,,,,,,,,,,,,,,,,,,,,,,19,female,2020-08-18_20h23.19.990,torte-2b,2020.1.3,MacIntel,60,13320,,,,,,,,,,,,,space,,,,,,7,0.577985,,,,,,,,,,,0,21,21,21,1,,,,,,,,,,,,,,,,,,,,,,,,,,,,,,,
,,,,,,,,,,,,,,,,,,,,,,,19,female,2020-08-18_20h23.19.990,torte-2b,2020.1.3,MacIntel,60,13320,,,,,,,,,,,,,,,,,,,7,,,,,,,,,,,,0,22,22,22,1,,,,,,,,,,,,,,,,,,,,,,,,,,,,,,,
,,,,,,,,,,,,,,,,,,,,,,,19,female,2020-08-18_20h23.19.990,torte-2b,2020.1.3,MacIntel,60,13320,,,,,,,,,,,,,,,,,,,1,,,,,,,,,,,,0,23,23,23,1,,,,,,,,,,,,,,,,,,,,,,,,,,,,,,,
,,,,,,,,,,,,,,,,,,,,,,,19,female,2020-08-18_20h23.19.990,torte-2b,2020.1.3,MacIntel,60,13320,,,,,,,,,,,,,space,,,,,,7,0.588335,,,,,,,,,,,0,24,24,24,1,,,,,,,,,,,,,,,,,,,,,,,,,,,,,,,
,,,,,,,,,,,,,,,,,,,,,,,19,female,2020-08-18_20h23.19.990,torte-2b,2020.1.3,MacIntel,60,13320,,,,,,,,,,,,,,,,,,,1,,,,,,,,,,,,0,25,25,25,1,,,,,,,,,,,,,,,,,,,,,,,,,,,,,,,
,,,,,,,,,,,,,,,,,,,,,,,19,female,2020-08-18_20h23.19.990,torte-2b,2020.1.3,MacIntel,60,13320,,,,,,,,,,,,,space,,,,,,7,0.425875,,,,,,,,,,,0,26,26,26,1,,,,,,,,,,,,,,,,,,,,,,,,,,,,,,,
,,,,,,,,,,,,,,,,,,,,,,,19,female,2020-08-18_20h23.19.990,torte-2b,2020.1.3,MacIntel,60,13320,,,,,,,,,,,,,,,,,,,2,,,,,,,,,,,,0,27,27,27,1,,,,,,,,,,,,,,,,,,,,,,,,,,,,,,,
,,,,,,,,,,,,,,,,,,,,,,,19,female,2020-08-18_20h23.19.990,torte-2b,2020.1.3,MacIntel,60,13320,,,,,,,,,,,,,,,,,,,5,,,,,,,,,,,,0,28,28,28,1,,,,,,,,,,,,,,,,,,,,,,,,,,,,,,,
,,,,,,,,,,,,,,,,,,,,,,,19,female,2020-08-18_20h23.19.990,torte-2b,2020.1.3,MacIntel,60,13320,,,,,,,,,,,,,space,,,,,,5,0.62518,,,,,,,,,,,0,29,29,29,1,,,,,,,,,,,,,,,,,,,,,,,,,,,,,,,
,,,,,,,,,,,,,,,,,,,,,,,19,female,2020-08-18_20h23.19.990,torte-2b,2020.1.3,MacIntel,60,13320,,,,,,,,,,,,,space,,,,,,5,1.333,,,,,,,,,,,0,30,30,30,1,,,,,,,,,,,,,,,,,,,,,,,,,,,,,,,
,,,,,,,,,,,,,,,,,,,,,,,19,female,2020-08-18_20h23.19.990,torte-2b,2020.1.3,MacIntel,60,13320,,,,,,,,,,,,,,,,,,,1,,,,,,,,,,,,0,31,31,31,1,,,,,,,,,,,,,,,,,,,,,,,,,,,,,,,
,,,,,,,,,,,,,,,,,,,,,,,19,female,2020-08-18_20h23.19.990,torte-2b,2020.1.3,MacIntel,60,13320,,,,,,,,,,,,,,,,,,,5,,,,,,,,,,,,0,32,32,32,1,,,,,,,,,,,,,,,,,,,,,,,,,,,,,,,
,,,,,,,,,,,,,,,,,,,,,,,19,female,2020-08-18_20h23.19.990,torte-2b,2020.1.3,MacIntel,60,13320,,,,,,,,,,,,,,,,,,,3,,,,,,,,,,,,0,33,33,33,1,,,,,,,,,,,,,,,,,,,,,,,,,,,,,,,
,,,,,,,,,,,,,,,,,,,,,,,19,female,2020-08-18_20h23.19.990,torte-2b,2020.1.3,MacIntel,60,13320,,,,,,,,,,,,,,,,,,,3,,,,,,,,,,,,0,34,34,34,1,,,,,,,,,,,,,,,,,,,,,,,,,,,,,,,
,,,,,,,,,,,,a,Incorrect,,,,,,t1.png,t3.png,2,0.0565,19,female,2020-08-18_20h23.19.990,torte-2b,2020.1.3,MacIntel,60,13320,1.87196,space,1.18231,,,,,,,,,,,,,,,,,,,,,,,,,,,,,,,,,space,2.94984,0,0,0,95,1,,,,,,,,,,,,,,,,,,,,,,,,
,,,,,,,,,,,,a,Incorrect,,,,,,t3.png,t1.png,2,0.0565,19,female,2020-08-18_20h23.19.990,torte-2b,2020.1.3,MacIntel,60,13320,2.077555,,,,,,,,,,,,,,,,,,,,,,,,,,,,,,,,,,,,,0,1,1,40,1,,,,,,,,,,,,,,,,,,,,,,,,
,,,,,,,,,,,,a,Incorrect,,,,,,t5.png,t2.png,3,0.0000131,19,female,2020-08-18_20h23.19.990,torte-2b,2020.1.3,MacIntel,60,13320,1.43016,,,,,,,,,,,,,,,,,,,,,,,,,,,,,,,,,,,,,0,2,2,83,1,,,,,,,,,,,,,,,,,,,,,,,,
,,,,,,,,,,,,,Too slow :(,,,,,,t1.png,t1.png,0,0.97829,19,female,2020-08-18_20h23.19.990,torte-2b,2020.1.3,MacIntel,60,13320,,,,,,,,,,,,,,,,,,,,,,,,,,,,,,,,,,,,,,0,3,3,4,1,,,,,,,,,,,,,,,,,,,,,,,,
,,,,,,,,,,,,a,Correct!,,,,,,t5.png,t4.png,1,0.90025,19,female,2020-08-18_20h23.19.990,torte-2b,2020.1.3,MacIntel,60,13320,1.02659,,,,,,,,,,,,,,,,,,,,,,,,,,,,,,,,,,,,,0,4,4,38,1,,,,,,,,,,,,,,,,,,,,,,,,
,,,,,,,,,,,,a,Incorrect,,,,,,t5.png,t3.png,2,0.056466,19,female,2020-08-18_20h23.19.990,torte-2b,2020.1.3,MacIntel,60,13320,0.87272,,,,,,,,,,,,,,,,,,,,,,,,,,,,,,,,,,,,,0,5,5,37,1,,,,,,,,,,,,,,,,,,,,,,,,
,,,,,,,,,,,,a,Incorrect,,,,,,t1.png,t3.png,2,0.0565,19,female,2020-08-18_20h23.19.990,torte-2b,2020.1.3,MacIntel,60,13320,0.82508,,,,,,,,,,,,,,,,,,,,,,,,,,,,,,,,,,,,,0,6,6,42,1,,,,,,,,,,,,,,,,,,,,,,,,
,,,,,,,,,,,,a,Correct!,,,,,,t1.png,t2.png,1,0.9,19,female,2020-08-18_20h23.19.990,torte-2b,2020.1.3,MacIntel,60,13320,0.80558,,,,,,,,,,,,,,,,,,,,,,,,,,,,,,,,,,,,,0,7,7,17,1,,,,,,,,,,,,,,,,,,,,,,,,
,,,,,,,,,,,,l,Correct!,,,,,,t2.png,t4.png,2,0.059078,19,female,2020-08-18_20h23.19.990,torte-2b,2020.1.3,MacIntel,60,13320,1.23964,,,,,,,,,,,,,,,,,,,,,,,,,,,,,,,,,,,,,0,8,8,84,1,,,,,,,,,,,,,,,,,,,,,,,,
,,,,,,,,,,,,a,Correct!,,,,,,t5.png,t5.png,0,0.97829,19,female,2020-08-18_20h23.19.990,torte-2b,2020.1.3,MacIntel,60,13320,0.946575,,,,,,,,,,,,,,,,,,,,,,,,,,,,,,,,,,,,,0,9,9,77,1,,,,,,,,,,,,,,,,,,,,,,,,
,,,,,,,,,,,,a,Incorrect,,,,,,t2.png,t5.png,3,0.0000131,19,female,2020-08-18_20h23.19.990,torte-2b,2020.1.3,MacIntel,60,13320,0.93507,,,,,,,,,,,,,,,,,,,,,,,,,,,,,,,,,,,,,0,10,10,46,1,,,,,,,,,,,,,,,,,,,,,,,,
,,,,,,,,,,,,a,Correct!,,,,,,t2.png,t1.png,1,0.90025,19,female,2020-08-18_20h23.19.990,torte-2b,2020.1.3,MacIntel,60,13320,0.866355,,,,,,,,,,,,,,,,,,,,,,,,,,,,,,,,,,,,,0,11,11,105,1,,,,,,,,,,,,,,,,,,,,,,,,
,,,,,,,,,,,,a,Correct!,,,,,,t4.png,t3.png,1,0.909,19,female,2020-08-18_20h23.19.990,torte-2b,2020.1.3,MacIntel,60,13320,1.05963,,,,,,,,,,,,,,,,,,,,,,,,,,,,,,,,,,,,,0,12,12,119,1,,,,,,,,,,,,,,,,,,,,,,,,
,,,,,,,,,,,,a,Incorrect,,,,,,t1.png,t3.png,2,0.0565,19,female,2020-08-18_20h23.19.990,torte-2b,2020.1.3,MacIntel,60,13320,0.90469,,,,,,,,,,,,,,,,,,,,,,,,,,,,,,,,,,,,,0,13,13,12,1,,,,,,,,,,,,,,,,,,,,,,,,
,,,,,,,,,,,,a,Correct!,,,,,,t4.png,t3.png,1,0.90855,19,female,2020-08-18_20h23.19.990,torte-2b,2020.1.3,MacIntel,60,13320,1.032445,,,,,,,,,,,,,,,,,,,,,,,,,,,,,,,,,,,,,0,14,14,29,1,,,,,,,,,,,,,,,,,,,,,,,,
,,,,,,,,,,,,a,Incorrect,,,,,,t4.png,t1.png,3,0.0000131,19,female,2020-08-18_20h23.19.990,torte-2b,2020.1.3,MacIntel,60,13320,0.78636,,,,,,,,,,,,,,,,,,,,,,,,,,,,,,,,,,,,,0,15,15,28,1,,,,,,,,,,,,,,,,,,,,,,,,
,,,,,,,,,,,,a,Correct!,,,,,,t2.png,t3.png,1,0.909,19,female,2020-08-18_20h23.19.990,torte-2b,2020.1.3,MacIntel,60,13320,1.24037,,,,,,,,,,,,,,,,,,,,,,,,,,,,,,,,,,,,,0,16,16,8,1,,,,,,,,,,,,,,,,,,,,,,,,
,,,,,,,,,,,,a,Correct!,,,,,,t4.png,t5.png,1,0.90025,19,female,2020-08-18_20h23.19.990,torte-2b,2020.1.3,MacIntel,60,13320,1.291315,,,,,,,,,,,,,,,,,,,,,,,,,,,,,,,,,,,,,0,17,17,63,1,,,,,,,,,,,,,,,,,,,,,,,,
,,,,,,,,,,,,a,Correct!,,,,,,t4.png,t4.png,0,0.98115,19,female,2020-08-18_20h23.19.990,torte-2b,2020.1.3,MacIntel,60,13320,0.978055,,,,,,,,,,,,,,,,,,,,,,,,,,,,,,,,,,,,,0,18,18,19,1,,,,,,,,,,,,,,,,,,,,,,,,
,,,,,,,,,,,,a,Correct!,,,,,,t3.png,t1.png,2,0.056466,19,female,2020-08-18_20h23.19.990,torte-2b,2020.1.3,MacIntel,60,13320,1.021585,,,,,,,,,,,,,,,,,,,,,,,,,,,,,,,,,,,,,0,19,19,34,1,,,,,,,,,,,,,,,,,,,,,,,,
,,,,,,,,,,,,a,Incorrect,,,,,,t4.png,t1.png,3,0.0000131,19,female,2020-08-18_20h23.19.990,torte-2b,2020.1.3,MacIntel,60,13320,1.306995,,,,,,,,,,,,,,,,,,,,,,,,,,,,,,,,,,,,,0,20,20,76,1,,,,,,,,,,,,,,,,,,,,,,,,
,,,,,,,,,,,,a,Incorrect,,,,,,t4.png,t1.png,3,0.059078,19,female,2020-08-18_20h23.19.990,torte-2b,2020.1.3,MacIntel,60,13320,0.660375,,,,,,,,,,,,,,,,,,,,,,,,,,,,,,,,,,,,,0,21,21,62,1,,,,,,,,,,,,,,,,,,,,,,,,
,,,,,,,,,,,,a,Incorrect,,,,,,t3.png,t5.png,2,0.056466,19,female,2020-08-18_20h23.19.990,torte-2b,2020.1.3,MacIntel,60,13320,1.03184,,,,,,,,,,,,,,,,,,,,,,,,,,,,,,,,,,,,,0,22,22,60,1,,,,,,,,,,,,,,,,,,,,,,,,
,,,,,,,,,,,,a,Correct!,,,,,,t1.png,t2.png,1,0.9,19,female,2020-08-18_20h23.19.990,torte-2b,2020.1.3,MacIntel,60,13320,0.9409,,,,,,,,,,,,,,,,,,,,,,,,,,,,,,,,,,,,,0,23,23,61,1,,,,,,,,,,,,,,,,,,,,,,,,
,,,,,,,,,,,,a,Incorrect,,,,,,t3.png,t1.png,2,0.056466,19,female,2020-08-18_20h23.19.990,torte-2b,2020.1.3,MacIntel,60,13320,0.707595,,,,,,,,,,,,,,,,,,,,,,,,,,,,,,,,,,,,,0,24,24,109,1,,,,,,,,,,,,,,,,,,,,,,,,
,,,,,,,,,,,,a,Incorrect,,,,,,t4.png,t1.png,3,0.059078,19,female,2020-08-18_20h23.19.990,torte-2b,2020.1.3,MacIntel,60,13320,0.746725,,,,,,,,,,,,,,,,,,,,,,,,,,,,,,,,,,,,,0,25,25,73,1,,,,,,,,,,,,,,,,,,,,,,,,
,,,,,,,,,,,,a,Correct!,,,,,,t4.png,t3.png,1,0.90855,19,female,2020-08-18_20h23.19.990,torte-2b,2020.1.3,MacIntel,60,13320,0.99695,,,,,,,,,,,,,,,,,,,,,,,,,,,,,,,,,,,,,0,26,26,56,1,,,,,,,,,,,,,,,,,,,,,,,,
,,,,,,,,,,,,a,Incorrect,,,,,,t5.png,t3.png,2,0.0565,19,female,2020-08-18_20h23.19.990,torte-2b,2020.1.3,MacIntel,60,13320,0.793015,,,,,,,,,,,,,,,,,,,,,,,,,,,,,,,,,,,,,0,27,27,50,1,,,,,,,,,,,,,,,,,,,,,,,,
,,,,,,,,,,,,a,Correct!,,,,,,t5.png,t5.png,0,0.978,19,female,2020-08-18_20h23.19.990,torte-2b,2020.1.3,MacIntel,60,13320,0.694635,,,,,,,,,,,,,,,,,,,,,,,,,,,,,,,,,,,,,0,28,28,116,1,,,,,,,,,,,,,,,,,,,,,,,,
,,,,,,,,,,,,a,Correct!,,,,,,t5.png,t4.png,1,0.9,19,female,2020-08-18_20h23.19.990,torte-2b,2020.1.3,MacIntel,60,13320,0.741515,,,,,,,,,,,,,,,,,,,,,,,,,,,,,,,,,,,,,0,29,29,55,1,,,,,,,,,,,,,,,,,,,,,,,,
,,,,,,,,,,,,a,Correct!,,,,,,t3.png,t4.png,1,0.90855,19,female,2020-08-18_20h23.19.990,torte-2b,2020.1.3,MacIntel,60,13320,0.75334,,,,,,,,,,,,,,,,,,,,,,,,,,,,,,,,,,,,,0,30,30,103,1,,,,,,,,,,,,,,,,,,,,,,,,
,,,,,,,,,,,,a,Incorrect,,,,,,t3.png,t5.png,2,0.056466,19,female,2020-08-18_20h23.19.990,torte-2b,2020.1.3,MacIntel,60,13320,0.778085,,,,,,,,,,,,,,,,,,,,,,,,,,,,,,,,,,,,,0,31,31,78,1,,,,,,,,,,,,,,,,,,,,,,,,
,,,,,,,,,,,,a,Incorrect,,,,,,t5.png,t4.png,1,0.90025,19,female,2020-08-18_20h23.19.990,torte-2b,2020.1.3,MacIntel,60,13320,1.56187,,,,,,,,,,,,,,,,,,,,,,,,,,,,,,,,,,,,,0,32,32,14,1,,,,,,,,,,,,,,,,,,,,,,,,
,,,,,,,,,,,,a,Incorrect,,,,,,t3.png,t5.png,2,0.056466,19,female,2020-08-18_20h23.19.990,torte-2b,2020.1.3,MacIntel,60,13320,0.769035,,,,,,,,,,,,,,,,,,,,,,,,,,,,,,,,,,,,,0,33,33,45,1,,,,,,,,,,,,,,,,,,,,,,,,
,,,,,,,,,,,,a,Incorrect,,,,,,t2.png,t5.png,3,0.0000131,19,female,2020-08-18_20h23.19.990,torte-2b,2020.1.3,MacIntel,60,13320,0.78385,,,,,,,,,,,,,,,,,,,,,,,,,,,,,,,,,,,,,0,34,34,54,1,,,,,,,,,,,,,,,,,,,,,,,,
,,,,,,,,,,,,a,Correct!,,,,,,t3.png,t2.png,1,0.90855,19,female,2020-08-18_20h23.19.990,torte-2b,2020.1.3,MacIntel,60,13320,0.7652,,,,,,,,,,,,,,,,,,,,,,,,,,,,,,,,,,,,,0,35,35,99,1,,,,,,,,,,,,,,,,,,,,,,,,
,,,,,,,,,,,,l,Correct!,,,,,,t5.png,t1.png,4,9.55E-11,19,female,2020-08-18_20h23.19.990,torte-2b,2020.1.3,MacIntel,60,13320,1.14546,,,,,,,,,,,,,,,,,,,,,,,,,,,,,,,,,,,,,0,36,36,101,1,,,,,,,,,,,,,,,,,,,,,,,,
,,,,,,,,,,,,a,Correct!,,,,,,t3.png,t4.png,1,0.90855,19,female,2020-08-18_20h23.19.990,torte-2b,2020.1.3,MacIntel,60,13320,1.036825,,,,,,,,,,,,,,,,,,,,,,,,,,,,,,,,,,,,,0,37,37,58,1,,,,,,,,,,,,,,,,,,,,,,,,
,,,,,,,,,,,,a,Correct!,,,,,,t3.png,t4.png,1,0.90855,19,female,2020-08-18_20h23.19.990,torte-2b,2020.1.3,MacIntel,60,13320,1.14238,,,,,,,,,,,,,,,,,,,,,,,,,,,,,,,,,,,,,0,38,38,111,1,,,,,,,,,,,,,,,,,,,,,,,,
,,,,,,,,,,,,a,Incorrect,,,,,,t2.png,t5.png,3,0.0000131,19,female,2020-08-18_20h23.19.990,torte-2b,2020.1.3,MacIntel,60,13320,1.231375,,,,,,,,,,,,,,,,,,,,,,,,,,,,,,,,,,,,,0,39,39,85,1,,,,,,,,,,,,,,,,,,,,,,,,
,,,,,,,,,,,,a,Incorrect,,,,,,t4.png,t1.png,3,0.0000131,19,female,2020-08-18_20h23.19.990,torte-2b,2020.1.3,MacIntel,60,13320,1.02971,,,,,,,,,,,,,,,,,,,,,,,,,,,,,,,,,,,,,0,40,40,102,1,,,,,,,,,,,,,,,,,,,,,,,,
,,,,,,,,,,,,a,Incorrect,,,,,,t3.png,t1.png,2,0.0565,19,female,2020-08-18_20h23.19.990,torte-2b,2020.1.3,MacIntel,60,13320,0.77316,,,,,,,,,,,,,,,,,,,,,,,,,,,,,,,,,,,,,0,41,41,104,1,,,,,,,,,,,,,,,,,,,,,,,,
,,,,,,,,,,,,a,Correct!,,,,,,t2.png,t1.png,1,0.9,19,female,2020-08-18_20h23.19.990,torte-2b,2020.1.3,MacIntel,60,13320,0.92128,,,,,,,,,,,,,,,,,,,,,,,,,,,,,,,,,,,,,0,42,42,93,1,,,,,,,,,,,,,,,,,,,,,,,,
,,,,,,,,,,,,a,Correct!,,,,,,t1.png,t1.png,0,0.978,19,female,2020-08-18_20h23.19.990,torte-2b,2020.1.3,MacIntel,60,13320,1.423955,,,,,,,,,,,,,,,,,,,,,,,,,,,,,,,,,,,,,0,43,43,22,1,,,,,,,,,,,,,,,,,,,,,,,,
,,,,,,,,,,,,l,Correct!,,,,,,t5.png,t1.png,4,9.55E-11,19,female,2020-08-18_20h23.19.990,torte-2b,2020.1.3,MacIntel,60,13320,0.84597,,,,,,,,,,,,,,,,,,,,,,,,,,,,,,,,,,,,,0,44,44,117,1,,,,,,,,,,,,,,,,,,,,,,,,
,,,,,,,,,,,,a,Incorrect,,,,,,t5.png,t3.png,2,0.056466,19,female,2020-08-18_20h23.19.990,torte-2b,2020.1.3,MacIntel,60,13320,1.762395,,,,,,,,,,,,,,,,,,,,,,,,,,,,,,,,,,,,,0,45,45,26,1,,,,,,,,,,,,,,,,,,,,,,,,
,,,,,,,,,,,,a,Correct!,,,,,,t3.png,t2.png,1,0.90855,19,female,2020-08-18_20h23.19.990,torte-2b,2020.1.3,MacIntel,60,13320,1.19672,,,,,,,,,,,,,,,,,,,,,,,,,,,,,,,,,,,,,0,46,46,94,1,,,,,,,,,,,,,,,,,,,,,,,,
,,,,,,,,,,,,a,Incorrect,,,,,,t5.png,t2.png,3,0.0000131,19,female,2020-08-18_20h23.19.990,torte-2b,2020.1.3,MacIntel,60,13320,0.88547,,,,,,,,,,,,,,,,,,,,,,,,,,,,,,,,,,,,,0,47,47,48,1,,,,,,,,,,,,,,,,,,,,,,,,
,,,,,,,,,,,,l,Correct!,,,,,,t1.png,t5.png,4,9.55E-11,19,female,2020-08-18_20h23.19.990,torte-2b,2020.1.3,MacIntel,60,13320,0.981255,,,,,,,,,,,,,,,,,,,,,,,,,,,,,,,,,,,,,0,48,48,30,1,,,,,,,,,,,,,,,,,,,,,,,,
,,,,,,,,,,,,a,Incorrect,,,,,,t1.png,t4.png,3,0.0000131,19,female,2020-08-18_20h23.19.990,torte-2b,2020.1.3,MacIntel,60,13320,1.064025,,,,,,,,,,,,,,,,,,,,,,,,,,,,,,,,,,,,,0,49,49,106,1,,,,,,,,,,,,,,,,,,,,,,,,
,,,,,,,,,,,,a,Correct!,,,,,,t2.png,t1.png,1,0.9,19,female,2020-08-18_20h23.19.990,torte-2b,2020.1.3,MacIntel,60,13320,1.112195,,,,,,,,,,,,,,,,,,,,,,,,,,,,,,,,,,,,,0,50,50,100,1,,,,,,,,,,,,,,,,,,,,,,,,
,,,,,,,,,,,,a,Correct!,,,,,,t1.png,t1.png,0,0.97829,19,female,2020-08-18_20h23.19.990,torte-2b,2020.1.3,MacIntel,60,13320,0.896875,,,,,,,,,,,,,,,,,,,,,,,,,,,,,,,,,,,,,0,51,51,114,1,,,,,,,,,,,,,,,,,,,,,,,,
,,,,,,,,,,,,,Too slow :(,,,,,,t4.png,t1.png,3,0.059078,19,female,2020-08-18_20h23.19.990,torte-2b,2020.1.3,MacIntel,60,13320,,,,,,,,,,,,,,,,,,,,,,,,,,,,,,,,,,,,,,0,52,52,87,1,,,,,,,,,,,,,,,,,,,,,,,,
,,,,,,,,,,,,a,Incorrect,,,,,,t5.png,t2.png,3,0.0000131,19,female,2020-08-18_20h23.19.990,torte-2b,2020.1.3,MacIntel,60,13320,1.043305,,,,,,,,,,,,,,,,,,,,,,,,,,,,,,,,,,,,,0,53,53,66,1,,,,,,,,,,,,,,,,,,,,,,,,
,,,,,,,,,,,,a,Correct!,,,,,,t5.png,t5.png,0,0.978,19,female,2020-08-18_20h23.19.990,torte-2b,2020.1.3,MacIntel,60,13320,0.926865,,,,,,,,,,,,,,,,,,,,,,,,,,,,,,,,,,,,,0,54,54,51,1,,,,,,,,,,,,,,,,,,,,,,,,
,,,,,,,,,,,,l,Correct!,,,,,,t1.png,t5.png,4,9.55E-11,19,female,2020-08-18_20h23.19.990,torte-2b,2020.1.3,MacIntel,60,13320,0.826025,,,,,,,,,,,,,,,,,,,,,,,,,,,,,,,,,,,,,0,55,55,20,1,,,,,,,,,,,,,,,,,,,,,,,,
,,,,,,,,,,,,a,Incorrect,,,,,,t4.png,t5.png,1,0.90025,19,female,2020-08-18_20h23.19.990,torte-2b,2020.1.3,MacIntel,60,13320,1.537805,,,,,,,,,,,,,,,,,,,,,,,,,,,,,,,,,,,,,0,56,56,33,1,,,,,,,,,,,,,,,,,,,,,,,,
,,,,,,,,,,,,l,Correct!,,,,,,t2.png,t4.png,2,0.059078,19,female,2020-08-18_20h23.19.990,torte-2b,2020.1.3,MacIntel,60,13320,1.09278,,,,,,,,,,,,,,,,,,,,,,,,,,,,,,,,,,,,,0,57,57,67,1,,,,,,,,,,,,,,,,,,,,,,,,
,,,,,,,,,,,,a,Incorrect,,,,,,t1.png,t4.png,3,0.0000131,19,female,2020-08-18_20h23.19.990,torte-2b,2020.1.3,MacIntel,60,13320,1.108465,,,,,,,,,,,,,,,,,,,,,,,,,,,,,,,,,,,,,0,58,58,23,1,,,,,,,,,,,,,,,,,,,,,,,,
,,,,,,,,,,,,a,Incorrect,,,,,,t1.png,t3.png,2,0.056466,19,female,2020-08-18_20h23.19.990,torte-2b,2020.1.3,MacIntel,60,13320,1.30088,,,,,,,,,,,,,,,,,,,,,,,,,,,,,,,,,,,,,0,59,59,32,1,,,,,,,,,,,,,,,,,,,,,,,,
,,,,,,,,,,,,a,Correct!,,,,,,t4.png,t5.png,1,0.9,19,female,2020-08-18_20h23.19.990,torte-2b,2020.1.3,MacIntel,60,13320,0.91064,,,,,,,,,,,,,,,,,,,,,,,,,,,,,,,,,,,,,0,60,60,81,1,,,,,,,,,,,,,,,,,,,,,,,,
,,,,,,,,,,,,a,Incorrect,,,,,,t2.png,t5.png,3,0.0000131,19,female,2020-08-18_20h23.19.990,torte-2b,2020.1.3,MacIntel,60,13320,1.096495,,,,,,,,,,,,,,,,,,,,,,,,,,,,,,,,,,,,,0,61,61,39,1,,,,,,,,,,,,,,,,,,,,,,,,
,,,,,,,,,,,,a,Correct!,,,,,,t3.png,t5.png,2,0.056466,19,female,2020-08-18_20h23.19.990,torte-2b,2020.1.3,MacIntel,60,13320,1.59741,,,,,,,,,,,,,,,,,,,,,,,,,,,,,,,,,,,,,0,62,62,47,1,,,,,,,,,,,,,,,,,,,,,,,,
,,,,,,,,,,,,l,Correct!,,,,,,t5.png,t1.png,4,9.55E-11,19,female,2020-08-18_20h23.19.990,torte-2b,2020.1.3,MacIntel,60,13320,0.7851,,,,,,,,,,,,,,,,,,,,,,,,,,,,,,,,,,,,,0,63,63,31,1,,,,,,,,,,,,,,,,,,,,,,,,
,,,,,,,,,,,,a,Correct!,,,,,,t2.png,t1.png,1,0.90025,19,female,2020-08-18_20h23.19.990,torte-2b,2020.1.3,MacIntel,60,13320,0.82314,,,,,,,,,,,,,,,,,,,,,,,,,,,,,,,,,,,,,0,64,64,44,1,,,,,,,,,,,,,,,,,,,,,,,,
,,,,,,,,,,,,a,Correct!,,,,,,t4.png,t3.png,1,0.909,19,female,2020-08-18_20h23.19.990,torte-2b,2020.1.3,MacIntel,60,13320,1.19199,,,,,,,,,,,,,,,,,,,,,,,,,,,,,,,,,,,,,0,65,65,107,1,,,,,,,,,,,,,,,,,,,,,,,,
,,,,,,,,,,,,a,Incorrect,,,,,,t1.png,t4.png,3,0.0000131,19,female,2020-08-18_20h23.19.990,torte-2b,2020.1.3,MacIntel,60,13320,2.39386,,,,,,,,,,,,,,,,,,,,,,,,,,,,,,,,,,,,,0,66,66,16,1,,,,,,,,,,,,,,,,,,,,,,,,
,,,,,,,,,,,,a,Correct!,,,,,,t1.png,t2.png,1,0.90025,19,female,2020-08-18_20h23.19.990,torte-2b,2020.1.3,MacIntel,60,13320,0.860965,,,,,,,,,,,,,,,,,,,,,,,,,,,,,,,,,,,,,0,67,67,96,1,,,,,,,,,,,,,,,,,,,,,,,,
,,,,,,,,,,,,a,Incorrect,,,,,,t3.png,t1.png,2,0.056466,19,female,2020-08-18_20h23.19.990,torte-2b,2020.1.3,MacIntel,60,13320,0.807605,,,,,,,,,,,,,,,,,,,,,,,,,,,,,,,,,,,,,0,68,68,72,1,,,,,,,,,,,,,,,,,,,,,,,,
,,,,,,,,,,,,a,Incorrect,,,,,,t1.png,t4.png,3,0.0000131,19,female,2020-08-18_20h23.19.990,torte-2b,2020.1.3,MacIntel,60,13320,0.885325,,,,,,,,,,,,,,,,,,,,,,,,,,,,,,,,,,,,,0,69,69,36,1,,,,,,,,,,,,,,,,,,,,,,,,
,,,,,,,,,,,,a,Correct!,,,,,,t2.png,t1.png,1,0.90025,19,female,2020-08-18_20h23.19.990,torte-2b,2020.1.3,MacIntel,60,13320,1.672795,,,,,,,,,,,,,,,,,,,,,,,,,,,,,,,,,,,,,0,70,70,65,1,,,,,,,,,,,,,,,,,,,,,,,,
,,,,,,,,,,,,a,Correct!,,,,,,t1.png,t2.png,1,0.90025,19,female,2020-08-18_20h23.19.990,torte-2b,2020.1.3,MacIntel,60,13320,0.70722,,,,,,,,,,,,,,,,,,,,,,,,,,,,,,,,,,,,,0,71,71,6,1,,,,,,,,,,,,,,,,,,,,,,,,
,,,,,,,,,,,,a,Correct!,,,,,,t4.png,t4.png,0,0.98115,19,female,2020-08-18_20h23.19.990,torte-2b,2020.1.3,MacIntel,60,13320,1.18375,,,,,,,,,,,,,,,,,,,,,,,,,,,,,,,,,,,,,0,72,72,88,1,,,,,,,,,,,,,,,,,,,,,,,,
,,,,,,,,,,,,a,Incorrect,,,,,,t4.png,t1.png,3,0.059078,19,female,2020-08-18_20h23.19.990,torte-2b,2020.1.3,MacIntel,60,13320,1.03434,,,,,,,,,,,,,,,,,,,,,,,,,,,,,,,,,,,,,0,73,73,57,1,,,,,,,,,,,,,,,,,,,,,,,,
,,,,,,,,,,,,a,Correct!,,,,,,t4.png,t3.png,1,0.90855,19,female,2020-08-18_20h23.19.990,torte-2b,2020.1.3,MacIntel,60,13320,1.163305,,,,,,,,,,,,,,,,,,,,,,,,,,,,,,,,,,,,,0,74,74,11,1,,,,,,,,,,,,,,,,,,,,,,,,
,,,,,,,,,,,,a,Correct!,,,,,,t4.png,t4.png,0,0.98115,19,female,2020-08-18_20h23.19.990,torte-2b,2020.1.3,MacIntel,60,13320,0.86463,,,,,,,,,,,,,,,,,,,,,,,,,,,,,,,,,,,,,0,75,75,59,1,,,,,,,,,,,,,,,,,,,,,,,,
,,,,,,,,,,,,a,Correct!,,,,,,t3.png,t2.png,1,0.90855,19,female,2020-08-18_20h23.19.990,torte-2b,2020.1.3,MacIntel,60,13320,1.154925,,,,,,,,,,,,,,,,,,,,,,,,,,,,,,,,,,,,,0,76,76,10,1,,,,,,,,,,,,,,,,,,,,,,,,
,,,,,,,,,,,,a,Incorrect,,,,,,t3.png,t4.png,1,0.90855,19,female,2020-08-18_20h23.19.990,torte-2b,2020.1.3,MacIntel,60,13320,1.753505,,,,,,,,,,,,,,,,,,,,,,,,,,,,,,,,,,,,,0,77,77,5,1,,,,,,,,,,,,,,,,,,,,,,,,
,,,,,,,,,,,,l,Correct!,,,,,,t1.png,t5.png,4,9.55E-11,19,female,2020-08-18_20h23.19.990,torte-2b,2020.1.3,MacIntel,60,13320,0.84742,,,,,,,,,,,,,,,,,,,,,,,,,,,,,,,,,,,,,0,78,78,3,1,,,,,,,,,,,,,,,,,,,,,,,,
,,,,,,,,,,,,a,Incorrect,,,,,,t5.png,t3.png,2,0.056466,19,female,2020-08-18_20h23.19.990,torte-2b,2020.1.3,MacIntel,60,13320,1.08519,,,,,,,,,,,,,,,,,,,,,,,,,,,,,,,,,,,,,0,79,79,27,1,,,,,,,,,,,,,,,,,,,,,,,,
,,,,,,,,,,,,l,Incorrect,,,,,,t2.png,t3.png,1,0.90855,19,female,2020-08-18_20h23.19.990,torte-2b,2020.1.3,MacIntel,60,13320,1.438085,,,,,,,,,,,,,,,,,,,,,,,,,,,,,,,,,,,,,0,80,80,79,1,,,,,,,,,,,,,,,,,,,,,,,,
,,,,,,,,,,,,a,Correct!,,,,,,t1.png,t1.png,0,0.978,19,female,2020-08-18_20h23.19.990,torte-2b,2020.1.3,MacIntel,60,13320,0.92447,,,,,,,,,,,,,,,,,,,,,,,,,,,,,,,,,,,,,0,81,81,13,1,,,,,,,,,,,,,,,,,,,,,,,,
,,,,,,,,,,,,a,Incorrect,,,,,,t4.png,t1.png,3,0.059078,19,female,2020-08-18_20h23.19.990,torte-2b,2020.1.3,MacIntel,60,13320,1.062625,,,,,,,,,,,,,,,,,,,,,,,,,,,,,,,,,,,,,0,82,82,75,1,,,,,,,,,,,,,,,,,,,,,,,,
,,,,,,,,,,,,a,Correct!,,,,,,t2.png,t3.png,1,0.90855,19,female,2020-08-18_20h23.19.990,torte-2b,2020.1.3,MacIntel,60,13320,1.008365,,,,,,,,,,,,,,,,,,,,,,,,,,,,,,,,,,,,,0,83,83,113,1,,,,,,,,,,,,,,,,,,,,,,,,
,,,,,,,,,,,,a,Correct!,,,,,,t5.png,t4.png,1,0.9,19,female,2020-08-18_20h23.19.990,torte-2b,2020.1.3,MacIntel,60,13320,0.83352,,,,,,,,,,,,,,,,,,,,,,,,,,,,,,,,,,,,,0,84,84,92,1,,,,,,,,,,,,,,,,,,,,,,,,
,,,,,,,,,,,,a,Correct!,,,,,,t2.png,t2.png,0,0.98115,19,female,2020-08-18_20h23.19.990,torte-2b,2020.1.3,MacIntel,60,13320,0.55977,,,,,,,,,,,,,,,,,,,,,,,,,,,,,,,,,,,,,0,85,85,69,1,,,,,,,,,,,,,,,,,,,,,,,,
,,,,,,,,,,,,a,Correct!,,,,,,t2.png,t3.png,1,0.90855,19,female,2020-08-18_20h23.19.990,torte-2b,2020.1.3,MacIntel,60,13320,0.85199,,,,,,,,,,,,,,,,,,,,,,,,,,,,,,,,,,,,,0,86,86,70,1,,,,,,,,,,,,,,,,,,,,,,,,
,,,,,,,,,,,,a,Incorrect,,,,,,t3.png,t5.png,2,0.0565,19,female,2020-08-18_20h23.19.990,torte-2b,2020.1.3,MacIntel,60,13320,1.15771,,,,,,,,,,,,,,,,,,,,,,,,,,,,,,,,,,,,,0,87,87,71,1,,,,,,,,,,,,,,,,,,,,,,,,
,,,,,,,,,,,,a,Correct!,,,,,,t5.png,t4.png,1,0.90025,19,female,2020-08-18_20h23.19.990,torte-2b,2020.1.3,MacIntel,60,13320,0.921845,,,,,,,,,,,,,,,,,,,,,,,,,,,,,,,,,,,,,0,88,88,25,1,,,,,,,,,,,,,,,,,,,,,,,,
,,,,,,,,,,,,a,Correct!,,,,,,t2.png,t2.png,0,0.98115,19,female,2020-08-18_20h23.19.990,torte-2b,2020.1.3,MacIntel,60,13320,1.317815,,,,,,,,,,,,,,,,,,,,,,,,,,,,,,,,,,,,,0,89,89,112,1,,,,,,,,,,,,,,,,,,,,,,,,
,,,,,,,,,,,,l,Correct!,,,,,,t5.png,t1.png,4,9.55E-11,19,female,2020-08-18_20h23.19.990,torte-2b,2020.1.3,MacIntel,60,13320,1.3906,,,,,,,,,,,,,,,,,,,,,,,,,,,,,,,,,,,,,0,90,90,15,1,,,,,,,,,,,,,,,,,,,,,,,,
,,,,,,,,,,,,a,Incorrect,,,,,,t2.png,t5.png,3,0.0000131,19,female,2020-08-18_20h23.19.990,torte-2b,2020.1.3,MacIntel,60,13320,1.369225,,,,,,,,,,,,,,,,,,,,,,,,,,,,,,,,,,,,,0,91,91,115,1,,,,,,,,,,,,,,,,,,,,,,,,
,,,,,,,,,,,,a,Incorrect,,,,,,t5.png,t2.png,3,0.0000131,19,female,2020-08-18_20h23.19.990,torte-2b,2020.1.3,MacIntel,60,13320,0.98351,,,,,,,,,,,,,,,,,,,,,,,,,,,,,,,,,,,,,0,92,92,82,1,,,,,,,,,,,,,,,,,,,,,,,,
,,,,,,,,,,,,a,Correct!,,,,,,t1.png,t1.png,0,0.97829,19,female,2020-08-18_20h23.19.990,torte-2b,2020.1.3,MacIntel,60,13320,0.852375,,,,,,,,,,,,,,,,,,,,,,,,,,,,,,,,,,,,,0,93,93,110,1,,,,,,,,,,,,,,,,,,,,,,,,
,,,,,,,,,,,,a,Correct!,,,,,,t4.png,t5.png,1,0.90025,19,female,2020-08-18_20h23.19.990,torte-2b,2020.1.3,MacIntel,60,13320,1.172355,,,,,,,,,,,,,,,,,,,,,,,,,,,,,,,,,,,,,0,94,94,86,1,,,,,,,,,,,,,,,,,,,,,,,,
,,,,,,,,,,,,a,Correct!,,,,,,t4.png,t4.png,0,0.98115,19,female,2020-08-18_20h23.19.990,torte-2b,2020.1.3,MacIntel,60,13320,0.864275,,,,,,,,,,,,,,,,,,,,,,,,,,,,,,,,,,,,,0,95,95,52,1,,,,,,,,,,,,,,,,,,,,,,,,
,,,,,,,,,,,,a,Correct!,,,,,,t2.png,t2.png,0,0.981,19,female,2020-08-18_20h23.19.990,torte-2b,2020.1.3,MacIntel,60,13320,0.7049,,,,,,,,,,,,,,,,,,,,,,,,,,,,,,,,,,,,,0,96,96,98,1,,,,,,,,,,,,,,,,,,,,,,,,
,,,,,,,,,,,,a,Correct!,,,,,,t2.png,t2.png,0,0.98115,19,female,2020-08-18_20h23.19.990,torte-2b,2020.1.3,MacIntel,60,13320,0.702365,,,,,,,,,,,,,,,,,,,,,,,,,,,,,,,,,,,,,0,97,97,7,1,,,,,,,,,,,,,,,,,,,,,,,,
,,,,,,,,,,,,a,Correct!,,,,,,t2.png,t3.png,1,0.90855,19,female,2020-08-18_20h23.19.990,torte-2b,2020.1.3,MacIntel,60,13320,0.86971,,,,,,,,,,,,,,,,,,,,,,,,,,,,,,,,,,,,,0,98,98,64,1,,,,,,,,,,,,,,,,,,,,,,,,
,,,,,,,,,,,,a,Incorrect,,,,,,t1.png,t3.png,2,0.056466,19,female,2020-08-18_20h23.19.990,torte-2b,2020.1.3,MacIntel,60,13320,1.199535,,,,,,,,,,,,,,,,,,,,,,,,,,,,,,,,,,,,,0,99,99,24,1,,,,,,,,,,,,,,,,,,,,,,,,
,,,,,,,,,,,,a,Correct!,,,,,,t3.png,t4.png,1,0.90855,19,female,2020-08-18_20h23.19.990,torte-2b,2020.1.3,MacIntel,60,13320,0.846645,,,,,,,,,,,,,,,,,,,,,,,,,,,,,,,,,,,,,0,100,100,9,1,,,,,,,,,,,,,,,,,,,,,,,,
,,,,,,,,,,,,a,Correct!,,,,,,t2.png,t2.png,0,0.98115,19,female,2020-08-18_20h23.19.990,torte-2b,2020.1.3,MacIntel,60,13320,0.81181,,,,,,,,,,,,,,,,,,,,,,,,,,,,,,,,,,,,,0,101,101,90,1,,,,,,,,,,,,,,,,,,,,,,,,
,,,,,,,,,,,,a,Correct!,,,,,,t5.png,t5.png,0,0.97829,19,female,2020-08-18_20h23.19.990,torte-2b,2020.1.3,MacIntel,60,13320,0.733915,,,,,,,,,,,,,,,,,,,,,,,,,,,,,,,,,,,,,0,102,102,2,1,,,,,,,,,,,,,,,,,,,,,,,,
,,,,,,,,,,,,a,Incorrect,,,,,,t4.png,t1.png,3,0.0000131,19,female,2020-08-18_20h23.19.990,torte-2b,2020.1.3,MacIntel,60,13320,1.085585,,,,,,,,,,,,,,,,,,,,,,,,,,,,,,,,,,,,,0,103,103,49,1,,,,,,,,,,,,,,,,,,,,,,,,
,,,,,,,,,,,,l,Correct!,,,,,,t2.png,t4.png,2,0.059078,19,female,2020-08-18_20h23.19.990,torte-2b,2020.1.3,MacIntel,60,13320,1.142545,,,,,,,,,,,,,,,,,,,,,,,,,,,,,,,,,,,,,0,104,104,53,1,,,,,,,,,,,,,,,,,,,,,,,,
,,,,,,,,,,,,l,Correct!,,,,,,t2.png,t4.png,2,0.059078,19,female,2020-08-18_20h23.19.990,torte-2b,2020.1.3,MacIntel,60,13320,1.10376,,,,,,,,,,,,,,,,,,,,,,,,,,,,,,,,,,,,,0,105,105,18,1,,,,,,,,,,,,,,,,,,,,,,,,
,,,,,,,,,,,,a,Incorrect,,,,,,t5.png,t3.png,2,0.056466,19,female,2020-08-18_20h23.19.990,torte-2b,2020.1.3,MacIntel,60,13320,0.91019,,,,,,,,,,,,,,,,,,,,,,,,,,,,,,,,,,,,,0,106,106,80,1,,,,,,,,,,,,,,,,,,,,,,,,
,,,,,,,,,,,,a,Correct!,,,,,,t1.png,t2.png,1,0.9,19,female,2020-08-18_20h23.19.990,torte-2b,2020.1.3,MacIntel,60,13320,0.890125,,,,,,,,,,,,,,,,,,,,,,,,,,,,,,,,,,,,,0,107,107,41,1,,,,,,,,,,,,,,,,,,,,,,,,
,,,,,,,,,,,,l,Correct!,,,,,,t1.png,t5.png,4,9.55E-11,19,female,2020-08-18_20h23.19.990,torte-2b,2020.1.3,MacIntel,60,13320,0.92299,,,,,,,,,,,,,,,,,,,,,,,,,,,,,,,,,,,,,0,108,108,1,1,,,,,,,,,,,,,,,,,,,,,,,,
,,,,,,,,,,,,a,Correct!,,,,,,t3.png,t2.png,1,0.90855,19,female,2020-08-18_20h23.19.990,torte-2b,2020.1.3,MacIntel,60,13320,1.14398,,,,,,,,,,,,,,,,,,,,,,,,,,,,,,,,,,,,,0,109,109,0,1,,,,,,,,,,,,,,,,,,,,,,,,
,,,,,,,,,,,,a,Correct!,,,,,,t5.png,t5.png,0,0.97829,19,female,2020-08-18_20h23.19.990,torte-2b,2020.1.3,MacIntel,60,13320,1.042135,,,,,,,,,,,,,,,,,,,,,,,,,,,,,,,,,,,,,0,110,110,35,1,,,,,,,,,,,,,,,,,,,,,,,,
,,,,,,,,,,,,a,Correct!,,,,,,t4.png,t4.png,0,0.98115,19,female,2020-08-18_20h23.19.990,torte-2b,2020.1.3,MacIntel,60,13320,1.07063,,,,,,,,,,,,,,,,,,,,,,,,,,,,,,,,,,,,,0,111,111,68,1,,,,,,,,,,,,,,,,,,,,,,,,
,,,,,,,,,,,,l,Correct!,,,,,,t1.png,t5.png,4,9.55E-11,19,female,2020-08-18_20h23.19.990,torte-2b,2020.1.3,MacIntel,60,13320,0.82734,,,,,,,,,,,,,,,,,,,,,,,,,,,,,,,,,,,,,0,112,112,118,1,,,,,,,,,,,,,,,,,,,,,,,,
,,,,,,,,,,,,l,Correct!,,,,,,t2.png,t4.png,2,0.059078,19,female,2020-08-18_20h23.19.990,torte-2b,2020.1.3,MacIntel,60,13320,1.383345,,,,,,,,,,,,,,,,,,,,,,,,,,,,,,,,,,,,,0,113,113,97,1,,,,,,,,,,,,,,,,,,,,,,,,
,,,,,,,,,,,,l,Correct!,,,,,,t5.png,t1.png,4,9.55E-11,19,female,2020-08-18_20h23.19.990,torte-2b,2020.1.3,MacIntel,60,13320,1.34574,,,,,,,,,,,,,,,,,,,,,,,,,,,,,,,,,,,,,0,114,114,89,1,,,,,,,,,,,,,,,,,,,,,,,,
,,,,,,,,,,,,a,Incorrect,,,,,,t5.png,t2.png,3,0.0000131,19,female,2020-08-18_20h23.19.990,torte-2b,2020.1.3,MacIntel,60,13320,1.150145,,,,,,,,,,,,,,,,,,,,,,,,,,,,,,,,,,,,,0,115,115,43,1,,,,,,,,,,,,,,,,,,,,,,,,
,,,,,,,,,,,,a,Incorrect,,,,,,t1.png,t4.png,3,0.0000131,19,female,2020-08-18_20h23.19.990,torte-2b,2020.1.3,MacIntel,60,13320,0.97536,,,,,,,,,,,,,,,,,,,,,,,,,,,,,,,,,,,,,0,116,116,74,1,,,,,,,,,,,,,,,,,,,,,,,,
,,,,,,,,,,,,a,Correct!,,,,,,t4.png,t5.png,1,0.90025,19,female,2020-08-18_20h23.19.990,torte-2b,2020.1.3,MacIntel,60,13320,1.212715,,,,,,,,,,,,,,,,,,,,,,,,,,,,,,,,,,,,,0,117,117,21,1,,,,,,,,,,,,,,,,,,,,,,,,
,,,,,,,,,,,,a,Incorrect,,,,,,t4.png,t1.png,3,0.0000131,19,female,2020-08-18_20h23.19.990,torte-2b,2020.1.3,MacIntel,60,13320,0.885625,,,,,,,,,,,,,,,,,,,,,,,,,,,,,,,,,,,,,0,118,118,91,1,,,,,,,,,,,,,,,,,,,,,,,,
,,,,,,,,,,,,a,Correct!,,,,,,t3.png,t2.png,1,0.90855,19,female,2020-08-18_20h23.19.990,torte-2b,2020.1.3,MacIntel,60,13320,1.35462,,,,,,,,,,,,,,,,,,,,,,,,,,,,,,,,,,,,,0,119,119,108,1,,,,,,,,,,,,,,,,,,,,,,,,
,,,,,,,,,,,,,,,,,,,,,,,19,female,2020-08-18_20h23.19.990,torte-2b,2020.1.3,MacIntel,60,13320,,space,1.205215,,,,,,,,,,,,,,,,,,,,,,,,,,,,,,,,,,,,,,,,-78.2421875,5.87109375,1,0,0,s4,116.4257813,-28.7890625,1,0,0,t3,292.4414063,-106.7773438,1,0,0,proceed,space,7.33359,space,1.41122,space,0.536425
