key_resp_8.keys,key_resp_8.rt,key_resp_9.keys,key_resp_9.rt,key_resp_10.keys,key_resp_10.rt,key_resp_11.keys,key_resp_11.rt,key_resp_2.keys,key_resp_2.rt,key_resp_3.keys,key_resp_3.rt,key_resp.keys,Feedback,train.thisRepN,train.thisTrialN,train.thisN,train.thisIndex,train.ran,torta_sx,torta_dx,difference,probability,age,gender,date,expName,psychopyVersion,OS,frameRate,participant,key_resp.rt,key_resp_15.keys,key_resp_15.rt,key_resp_6.keys,key_resp_6.rt,test1.thisRepN,test1.thisTrialN,test1.thisN,test1.thisIndex,test1.ran,key_resp_4.keys,key_resp_4.rt,key_resp_5.keys,back1.thisRepN,back1.thisTrialN,back1.thisN,back1.thisIndex,back1.ran,letter,key_resp_5.rt,back2.thisRepN,back2.thisTrialN,back2.thisN,back2.thisIndex,back2.ran,back3.thisRepN,back3.thisTrialN,back3.thisN,back3.thisIndex,back3.ran,back4.thisRepN,back4.thisTrialN,back4.thisN,back4.thisIndex,back4.ran,key_resp_7.keys,key_resp_7.rt,test2.thisRepN,test2.thisTrialN,test2.thisN,test2.thisIndex,test2.ran,mouse.x,mouse.y,mouse.leftButton,mouse.midButton,mouse.rightButton,mouse.clicked_name,mouse_2.x,mouse_2.y,mouse_2.leftButton,mouse_2.midButton,mouse_2.rightButton,mouse_2.clicked_name,mouse_3.x,mouse_3.y,mouse_3.leftButton,mouse_3.midButton,mouse_3.rightButton,mouse_3.clicked_name,key_resp_12.keys,key_resp_12.rt,key_resp_13.keys,key_resp_13.rt,key_resp_14.keys,key_resp_14.rt
space,44.600265,space,6.802585,space,3.10707,space,3.35409,space,19.226815,space,49.044085,,Too slow :(,0,0,0,89,1,t1.png,t4.png,3,0.0000131,19,female,2020-11-22_08h47.05.753,torte-2b,2020.1.3,Win32,60,13348,,,,,,,,,,,,,,,,,,,,,,,,,,,,,,,,,,,,,,,,,,,,,,,,,,,,,,,,,,,,,,,,,,
,,,,,,,,,,,,a,Incorrect,0,1,1,19,1,t4.png,t2.png,2,0.059078,19,female,2020-11-22_08h47.05.753,torte-2b,2020.1.3,Win32,60,13348,1.24603,,,,,,,,,,,,,,,,,,,,,,,,,,,,,,,,,,,,,,,,,,,,,,,,,,,,,,,,,,,,,,,,,
,,,,,,,,,,,,l,Incorrect,0,2,2,45,1,t3.png,t2.png,1,0.90855,19,female,2020-11-22_08h47.05.753,torte-2b,2020.1.3,Win32,60,13348,1.407895,,,,,,,,,,,,,,,,,,,,,,,,,,,,,,,,,,,,,,,,,,,,,,,,,,,,,,,,,,,,,,,,,
,,,,,,,,,,,,l,Incorrect,0,3,3,113,1,t5.png,t4.png,1,0.9,19,female,2020-11-22_08h47.05.753,torte-2b,2020.1.3,Win32,60,13348,2.118865,,,,,,,,,,,,,,,,,,,,,,,,,,,,,,,,,,,,,,,,,,,,,,,,,,,,,,,,,,,,,,,,,
,,,,,,,,,,,,l,Incorrect,0,4,4,28,1,t2.png,t3.png,1,0.909,19,female,2020-11-22_08h47.05.753,torte-2b,2020.1.3,Win32,60,13348,0.39896,,,,,,,,,,,,,,,,,,,,,,,,,,,,,,,,,,,,,,,,,,,,,,,,,,,,,,,,,,,,,,,,,
,,,,,,,,,,,,a,Correct!,0,5,5,2,1,t3.png,t2.png,1,0.90855,19,female,2020-11-22_08h47.05.753,torte-2b,2020.1.3,Win32,60,13348,2.41815,,,,,,,,,,,,,,,,,,,,,,,,,,,,,,,,,,,,,,,,,,,,,,,,,,,,,,,,,,,,,,,,,
,,,,,,,,,,,,l,Correct!,0,6,6,0,1,t5.png,t1.png,4,9.55E-11,19,female,2020-11-22_08h47.05.753,torte-2b,2020.1.3,Win32,60,13348,2.117895,,,,,,,,,,,,,,,,,,,,,,,,,,,,,,,,,,,,,,,,,,,,,,,,,,,,,,,,,,,,,,,,,
,,,,,,,,,,,,l,Correct!,0,7,7,33,1,t5.png,t1.png,4,9.55E-11,19,female,2020-11-22_08h47.05.753,torte-2b,2020.1.3,Win32,60,13348,1.370165,,,,,,,,,,,,,,,,,,,,,,,,,,,,,,,,,,,,,,,,,,,,,,,,,,,,,,,,,,,,,,,,,
,,,,,,,,,,,,a,Correct!,0,8,8,79,1,t3.png,t2.png,1,0.909,19,female,2020-11-22_08h47.05.753,torte-2b,2020.1.3,Win32,60,13348,0.849255,,,,,,,,,,,,,,,,,,,,,,,,,,,,,,,,,,,,,,,,,,,,,,,,,,,,,,,,,,,,,,,,,
,,,,,,,,,,,,a,Correct!,0,9,9,39,1,t3.png,t2.png,1,0.90855,19,female,2020-11-22_08h47.05.753,torte-2b,2020.1.3,Win32,60,13348,0.962165,,,,,,,,,,,,,,,,,,,,,,,,,,,,,,,,,,,,,,,,,,,,,,,,,,,,,,,,,,,,,,,,,
,,,,,,,,,,,,l,Correct!,0,10,10,93,1,t2.png,t4.png,2,0.059078,19,female,2020-11-22_08h47.05.753,torte-2b,2020.1.3,Win32,60,13348,1.3699,,,,,,,,,,,,,,,,,,,,,,,,,,,,,,,,,,,,,,,,,,,,,,,,,,,,,,,,,,,,,,,,,
,,,,,,,,,,,,a,Incorrect,0,11,11,41,1,t3.png,t2.png,1,0.90855,19,female,2020-11-22_08h47.05.753,torte-2b,2020.1.3,Win32,60,13348,0.756915,,,,,,,,,,,,,,,,,,,,,,,,,,,,,,,,,,,,,,,,,,,,,,,,,,,,,,,,,,,,,,,,,
,,,,,,,,,,,,,Too slow :(,0,12,12,81,1,t1.png,t1.png,0,0.97829,19,female,2020-11-22_08h47.05.753,torte-2b,2020.1.3,Win32,60,13348,,,,,,,,,,,,,,,,,,,,,,,,,,,,,,,,,,,,,,,,,,,,,,,,,,,,,,,,,,,,,,,,,,
,,,,,,,,,,,,l,Incorrect,0,13,13,100,1,t4.png,t5.png,1,0.90025,19,female,2020-11-22_08h47.05.753,torte-2b,2020.1.3,Win32,60,13348,0.916945,,,,,,,,,,,,,,,,,,,,,,,,,,,,,,,,,,,,,,,,,,,,,,,,,,,,,,,,,,,,,,,,,
,,,,,,,,,,,,a,Correct!,0,14,14,84,1,t1.png,t1.png,0,0.97829,19,female,2020-11-22_08h47.05.753,torte-2b,2020.1.3,Win32,60,13348,0.897775,,,,,,,,,,,,,,,,,,,,,,,,,,,,,,,,,,,,,,,,,,,,,,,,,,,,,,,,,,,,,,,,,
,,,,,,,,,,,,l,Incorrect,0,15,15,106,1,t2.png,t3.png,1,0.90855,19,female,2020-11-22_08h47.05.753,torte-2b,2020.1.3,Win32,60,13348,0.859265,,,,,,,,,,,,,,,,,,,,,,,,,,,,,,,,,,,,,,,,,,,,,,,,,,,,,,,,,,,,,,,,,
,,,,,,,,,,,,l,Correct!,0,16,16,52,1,t2.png,t4.png,2,0.059078,19,female,2020-11-22_08h47.05.753,torte-2b,2020.1.3,Win32,60,13348,2.08188,,,,,,,,,,,,,,,,,,,,,,,,,,,,,,,,,,,,,,,,,,,,,,,,,,,,,,,,,,,,,,,,,
,,,,,,,,,,,,l,Correct!,0,17,17,14,1,t2.png,t4.png,2,0.059078,19,female,2020-11-22_08h47.05.753,torte-2b,2020.1.3,Win32,60,13348,2.160755,,,,,,,,,,,,,,,,,,,,,,,,,,,,,,,,,,,,,,,,,,,,,,,,,,,,,,,,,,,,,,,,,
,,,,,,,,,,,,a,Incorrect,0,18,18,57,1,t2.png,t4.png,2,0.059078,19,female,2020-11-22_08h47.05.753,torte-2b,2020.1.3,Win32,60,13348,1.688715,,,,,,,,,,,,,,,,,,,,,,,,,,,,,,,,,,,,,,,,,,,,,,,,,,,,,,,,,,,,,,,,,
,,,,,,,,,,,,l,Correct!,0,19,19,55,1,t2.png,t4.png,2,0.059078,19,female,2020-11-22_08h47.05.753,torte-2b,2020.1.3,Win32,60,13348,1.36853,,,,,,,,,,,,,,,,,,,,,,,,,,,,,,,,,,,,,,,,,,,,,,,,,,,,,,,,,,,,,,,,,
,,,,,,,,,,,,l,Incorrect,0,20,20,78,1,t1.png,t1.png,0,0.978,19,female,2020-11-22_08h47.05.753,torte-2b,2020.1.3,Win32,60,13348,0.80708,,,,,,,,,,,,,,,,,,,,,,,,,,,,,,,,,,,,,,,,,,,,,,,,,,,,,,,,,,,,,,,,,
,,,,,,,,,,,,l,Correct!,0,21,21,4,1,t1.png,t5.png,4,9.55E-11,19,female,2020-11-22_08h47.05.753,torte-2b,2020.1.3,Win32,60,13348,0.43392,,,,,,,,,,,,,,,,,,,,,,,,,,,,,,,,,,,,,,,,,,,,,,,,,,,,,,,,,,,,,,,,,
,,,,,,,,,,,,a,Incorrect,0,22,22,51,1,t3.png,t1.png,2,0.056466,19,female,2020-11-22_08h47.05.753,torte-2b,2020.1.3,Win32,60,13348,0.48502,,,,,,,,,,,,,,,,,,,,,,,,,,,,,,,,,,,,,,,,,,,,,,,,,,,,,,,,,,,,,,,,,
,,,,,,,,,,,,l,Incorrect,0,23,23,48,1,t5.png,t5.png,0,0.97829,19,female,2020-11-22_08h47.05.753,torte-2b,2020.1.3,Win32,60,13348,0.53548,,,,,,,,,,,,,,,,,,,,,,,,,,,,,,,,,,,,,,,,,,,,,,,,,,,,,,,,,,,,,,,,,
,,,,,,,,,,,,l,Incorrect,0,24,24,34,1,t5.png,t4.png,1,0.9,19,female,2020-11-22_08h47.05.753,torte-2b,2020.1.3,Win32,60,13348,0.74689,,,,,,,,,,,,,,,,,,,,,,,,,,,,,,,,,,,,,,,,,,,,,,,,,,,,,,,,,,,,,,,,,
,,,,,,,,,,,,a,Incorrect,0,25,25,50,1,t5.png,t1.png,4,9.55E-11,19,female,2020-11-22_08h47.05.753,torte-2b,2020.1.3,Win32,60,13348,0.7357,,,,,,,,,,,,,,,,,,,,,,,,,,,,,,,,,,,,,,,,,,,,,,,,,,,,,,,,,,,,,,,,,
,,,,,,,,,,,,a,Incorrect,0,26,26,27,1,t3.png,t1.png,2,0.0565,19,female,2020-11-22_08h47.05.753,torte-2b,2020.1.3,Win32,60,13348,0.321255,,,,,,,,,,,,,,,,,,,,,,,,,,,,,,,,,,,,,,,,,,,,,,,,,,,,,,,,,,,,,,,,,
,,,,,,,,,,,,l,Correct!,0,27,27,56,1,t5.png,t1.png,4,9.55E-11,19,female,2020-11-22_08h47.05.753,torte-2b,2020.1.3,Win32,60,13348,1.010215,,,,,,,,,,,,,,,,,,,,,,,,,,,,,,,,,,,,,,,,,,,,,,,,,,,,,,,,,,,,,,,,,
,,,,,,,,,,,,a,Correct!,0,28,28,109,1,t5.png,t5.png,0,0.97829,19,female,2020-11-22_08h47.05.753,torte-2b,2020.1.3,Win32,60,13348,1.6122,,,,,,,,,,,,,,,,,,,,,,,,,,,,,,,,,,,,,,,,,,,,,,,,,,,,,,,,,,,,,,,,,
,,,,,,,,,,,,a,Correct!,0,29,29,16,1,t5.png,t4.png,1,0.9,19,female,2020-11-22_08h47.05.753,torte-2b,2020.1.3,Win32,60,13348,1.28668,,,,,,,,,,,,,,,,,,,,,,,,,,,,,,,,,,,,,,,,,,,,,,,,,,,,,,,,,,,,,,,,,
,,,,,,,,,,,,,Too slow :(,0,30,30,117,1,t1.png,t5.png,4,9.55E-11,19,female,2020-11-22_08h47.05.753,torte-2b,2020.1.3,Win32,60,13348,,,,,,,,,,,,,,,,,,,,,,,,,,,,,,,,,,,,,,,,,,,,,,,,,,,,,,,,,,,,,,,,,,
,,,,,,,,,,,,l,Correct!,0,31,31,91,1,t1.png,t4.png,3,0.0000131,19,female,2020-11-22_08h47.05.753,torte-2b,2020.1.3,Win32,60,13348,0.72543,,,,,,,,,,,,,,,,,,,,,,,,,,,,,,,,,,,,,,,,,,,,,,,,,,,,,,,,,,,,,,,,,
,,,,,,,,,,,,a,Incorrect,0,32,32,82,1,t5.png,t1.png,4,9.55E-11,19,female,2020-11-22_08h47.05.753,torte-2b,2020.1.3,Win32,60,13348,0.67092,,,,,,,,,,,,,,,,,,,,,,,,,,,,,,,,,,,,,,,,,,,,,,,,,,,,,,,,,,,,,,,,,
,,,,,,,,,,,,l,Incorrect,0,33,33,97,1,t5.png,t5.png,0,0.97829,19,female,2020-11-22_08h47.05.753,torte-2b,2020.1.3,Win32,60,13348,1.537795,,,,,,,,,,,,,,,,,,,,,,,,,,,,,,,,,,,,,,,,,,,,,,,,,,,,,,,,,,,,,,,,,
,,,,,,,,,,,,a,Incorrect,0,34,34,36,1,t3.png,t1.png,2,0.0565,19,female,2020-11-22_08h47.05.753,torte-2b,2020.1.3,Win32,60,13348,0.87086,,,,,,,,,,,,,,,,,,,,,,,,,,,,,,,,,,,,,,,,,,,,,,,,,,,,,,,,,,,,,,,,,
,,,,,,,,,,,,a,Incorrect,0,35,35,115,1,t2.png,t4.png,2,0.059078,19,female,2020-11-22_08h47.05.753,torte-2b,2020.1.3,Win32,60,13348,1.601775,,,,,,,,,,,,,,,,,,,,,,,,,,,,,,,,,,,,,,,,,,,,,,,,,,,,,,,,,,,,,,,,,
,,,,,,,,,,,,l,Correct!,0,36,36,6,1,t1.png,t4.png,3,0.0000131,19,female,2020-11-22_08h47.05.753,torte-2b,2020.1.3,Win32,60,13348,0.563755,,,,,,,,,,,,,,,,,,,,,,,,,,,,,,,,,,,,,,,,,,,,,,,,,,,,,,,,,,,,,,,,,
,,,,,,,,,,,,a,Incorrect,0,37,37,30,1,t3.png,t1.png,2,0.056466,19,female,2020-11-22_08h47.05.753,torte-2b,2020.1.3,Win32,60,13348,0.605605,,,,,,,,,,,,,,,,,,,,,,,,,,,,,,,,,,,,,,,,,,,,,,,,,,,,,,,,,,,,,,,,,
,,,,,,,,,,,,l,Incorrect,0,38,38,8,1,t3.png,t2.png,1,0.90855,19,female,2020-11-22_08h47.05.753,torte-2b,2020.1.3,Win32,60,13348,1.190545,,,,,,,,,,,,,,,,,,,,,,,,,,,,,,,,,,,,,,,,,,,,,,,,,,,,,,,,,,,,,,,,,
,,,,,,,,,,,,a,Correct!,0,39,39,70,1,t5.png,t5.png,0,0.978,19,female,2020-11-22_08h47.05.753,torte-2b,2020.1.3,Win32,60,13348,0.45361,,,,,,,,,,,,,,,,,,,,,,,,,,,,,,,,,,,,,,,,,,,,,,,,,,,,,,,,,,,,,,,,,
,,,,,,,,,,,,l,Correct!,0,40,40,98,1,t2.png,t4.png,2,0.0591,19,female,2020-11-22_08h47.05.753,torte-2b,2020.1.3,Win32,60,13348,0.4401,,,,,,,,,,,,,,,,,,,,,,,,,,,,,,,,,,,,,,,,,,,,,,,,,,,,,,,,,,,,,,,,,
,,,,,,,,,,,,a,Incorrect,0,41,41,61,1,t1.png,t4.png,3,0.0000131,19,female,2020-11-22_08h47.05.753,torte-2b,2020.1.3,Win32,60,13348,0.191255,,,,,,,,,,,,,,,,,,,,,,,,,,,,,,,,,,,,,,,,,,,,,,,,,,,,,,,,,,,,,,,,,
,,,,,,,,,,,,l,Incorrect,0,42,42,96,1,t1.png,t1.png,0,0.97829,19,female,2020-11-22_08h47.05.753,torte-2b,2020.1.3,Win32,60,13348,0.298355,,,,,,,,,,,,,,,,,,,,,,,,,,,,,,,,,,,,,,,,,,,,,,,,,,,,,,,,,,,,,,,,,
,,,,,,,,,,,,a,Correct!,0,43,43,85,1,t3.png,t2.png,1,0.90855,19,female,2020-11-22_08h47.05.753,torte-2b,2020.1.3,Win32,60,13348,0.48188,,,,,,,,,,,,,,,,,,,,,,,,,,,,,,,,,,,,,,,,,,,,,,,,,,,,,,,,,,,,,,,,,
,,,,,,,,,,,,l,Incorrect,0,44,44,74,1,t5.png,t4.png,1,0.9,19,female,2020-11-22_08h47.05.753,torte-2b,2020.1.3,Win32,60,13348,0.509635,,,,,,,,,,,,,,,,,,,,,,,,,,,,,,,,,,,,,,,,,,,,,,,,,,,,,,,,,,,,,,,,,
,,,,,,,,,,,,a,Incorrect,0,45,45,43,1,t4.png,t2.png,2,0.059078,19,female,2020-11-22_08h47.05.753,torte-2b,2020.1.3,Win32,60,13348,0.500725,,,,,,,,,,,,,,,,,,,,,,,,,,,,,,,,,,,,,,,,,,,,,,,,,,,,,,,,,,,,,,,,,
,,,,,,,,,,,,l,Incorrect,0,46,46,88,1,t3.png,t1.png,2,0.056466,19,female,2020-11-22_08h47.05.753,torte-2b,2020.1.3,Win32,60,13348,0.416115,,,,,,,,,,,,,,,,,,,,,,,,,,,,,,,,,,,,,,,,,,,,,,,,,,,,,,,,,,,,,,,,,
,,,,,,,,,,,,l,Correct!,0,47,47,86,1,t3.png,t1.png,2,0.056466,19,female,2020-11-22_08h47.05.753,torte-2b,2020.1.3,Win32,60,13348,0.252185,,,,,,,,,,,,,,,,,,,,,,,,,,,,,,,,,,,,,,,,,,,,,,,,,,,,,,,,,,,,,,,,,
,,,,,,,,,,,,a,Incorrect,0,48,48,31,1,t1.png,t5.png,4,9.55E-11,19,female,2020-11-22_08h47.05.753,torte-2b,2020.1.3,Win32,60,13348,0.82411,,,,,,,,,,,,,,,,,,,,,,,,,,,,,,,,,,,,,,,,,,,,,,,,,,,,,,,,,,,,,,,,,
,,,,,,,,,,,,l,Correct!,0,49,49,40,1,t1.png,t5.png,4,9.55E-11,19,female,2020-11-22_08h47.05.753,torte-2b,2020.1.3,Win32,60,13348,0.588515,,,,,,,,,,,,,,,,,,,,,,,,,,,,,,,,,,,,,,,,,,,,,,,,,,,,,,,,,,,,,,,,,
,,,,,,,,,,,,l,Correct!,0,50,50,24,1,t4.png,t2.png,2,0.059078,19,female,2020-11-22_08h47.05.753,torte-2b,2020.1.3,Win32,60,13348,0.326905,,,,,,,,,,,,,,,,,,,,,,,,,,,,,,,,,,,,,,,,,,,,,,,,,,,,,,,,,,,,,,,,,
,,,,,,,,,,,,a,Incorrect,0,51,51,66,1,t4.png,t5.png,1,0.9,19,female,2020-11-22_08h47.05.753,torte-2b,2020.1.3,Win32,60,13348,0.71117,,,,,,,,,,,,,,,,,,,,,,,,,,,,,,,,,,,,,,,,,,,,,,,,,,,,,,,,,,,,,,,,,
,,,,,,,,,,,,a,Correct!,0,52,52,13,1,t5.png,t5.png,0,0.97829,19,female,2020-11-22_08h47.05.753,torte-2b,2020.1.3,Win32,60,13348,0.546635,,,,,,,,,,,,,,,,,,,,,,,,,,,,,,,,,,,,,,,,,,,,,,,,,,,,,,,,,,,,,,,,,
,,,,,,,,,,,,l,Incorrect,0,53,53,107,1,t1.png,t1.png,0,0.978,19,female,2020-11-22_08h47.05.753,torte-2b,2020.1.3,Win32,60,13348,0.42264,,,,,,,,,,,,,,,,,,,,,,,,,,,,,,,,,,,,,,,,,,,,,,,,,,,,,,,,,,,,,,,,,
,,,,,,,,,,,,l,Incorrect,0,54,54,10,1,t2.png,t3.png,1,0.90855,19,female,2020-11-22_08h47.05.753,torte-2b,2020.1.3,Win32,60,13348,0.52719,,,,,,,,,,,,,,,,,,,,,,,,,,,,,,,,,,,,,,,,,,,,,,,,,,,,,,,,,,,,,,,,,
,,,,,,,,,,,,l,Correct!,0,55,55,5,1,t2.png,t4.png,2,0.059078,19,female,2020-11-22_08h47.05.753,torte-2b,2020.1.3,Win32,60,13348,0.25081,,,,,,,,,,,,,,,,,,,,,,,,,,,,,,,,,,,,,,,,,,,,,,,,,,,,,,,,,,,,,,,,,
,,,,,,,,,,,,l,Incorrect,0,56,56,20,1,t2.png,t3.png,1,0.90855,19,female,2020-11-22_08h47.05.753,torte-2b,2020.1.3,Win32,60,13348,0.248675,,,,,,,,,,,,,,,,,,,,,,,,,,,,,,,,,,,,,,,,,,,,,,,,,,,,,,,,,,,,,,,,,
,,,,,,,,,,,,a,Correct!,0,57,57,65,1,t4.png,t5.png,1,0.90025,19,female,2020-11-22_08h47.05.753,torte-2b,2020.1.3,Win32,60,13348,1.10838,,,,,,,,,,,,,,,,,,,,,,,,,,,,,,,,,,,,,,,,,,,,,,,,,,,,,,,,,,,,,,,,,
,,,,,,,,,,,,a,Incorrect,0,58,58,108,1,t5.png,t1.png,4,9.55E-11,19,female,2020-11-22_08h47.05.753,torte-2b,2020.1.3,Win32,60,13348,1.20145,,,,,,,,,,,,,,,,,,,,,,,,,,,,,,,,,,,,,,,,,,,,,,,,,,,,,,,,,,,,,,,,,
,,,,,,,,,,,,l,Correct!,0,59,59,12,1,t5.png,t1.png,4,9.55E-11,19,female,2020-11-22_08h47.05.753,torte-2b,2020.1.3,Win32,60,13348,1.140155,,,,,,,,,,,,,,,,,,,,,,,,,,,,,,,,,,,,,,,,,,,,,,,,,,,,,,,,,,,,,,,,,
,,,,,,,,,,,,l,Incorrect,0,60,60,59,1,t5.png,t4.png,1,0.9,19,female,2020-11-22_08h47.05.753,torte-2b,2020.1.3,Win32,60,13348,1.006055,,,,,,,,,,,,,,,,,,,,,,,,,,,,,,,,,,,,,,,,,,,,,,,,,,,,,,,,,,,,,,,,,
,,,,,,,,,,,,l,Incorrect,0,61,61,71,1,t5.png,t5.png,0,0.97829,19,female,2020-11-22_08h47.05.753,torte-2b,2020.1.3,Win32,60,13348,1.269055,,,,,,,,,,,,,,,,,,,,,,,,,,,,,,,,,,,,,,,,,,,,,,,,,,,,,,,,,,,,,,,,,
,,,,,,,,,,,,a,Correct!,0,62,62,76,1,t3.png,t2.png,1,0.90855,19,female,2020-11-22_08h47.05.753,torte-2b,2020.1.3,Win32,60,13348,1.777475,,,,,,,,,,,,,,,,,,,,,,,,,,,,,,,,,,,,,,,,,,,,,,,,,,,,,,,,,,,,,,,,,
,,,,,,,,,,,,a,Incorrect,0,63,63,69,1,t4.png,t2.png,2,0.059078,19,female,2020-11-22_08h47.05.753,torte-2b,2020.1.3,Win32,60,13348,0.966575,,,,,,,,,,,,,,,,,,,,,,,,,,,,,,,,,,,,,,,,,,,,,,,,,,,,,,,,,,,,,,,,,
,,,,,,,,,,,,l,Incorrect,0,64,64,105,1,t3.png,t2.png,1,0.90855,19,female,2020-11-22_08h47.05.753,torte-2b,2020.1.3,Win32,60,13348,1.17075,,,,,,,,,,,,,,,,,,,,,,,,,,,,,,,,,,,,,,,,,,,,,,,,,,,,,,,,,,,,,,,,,
,,,,,,,,,,,,l,Correct!,0,65,65,103,1,t3.png,t1.png,2,0.056466,19,female,2020-11-22_08h47.05.753,torte-2b,2020.1.3,Win32,60,13348,0.519435,,,,,,,,,,,,,,,,,,,,,,,,,,,,,,,,,,,,,,,,,,,,,,,,,,,,,,,,,,,,,,,,,
,,,,,,,,,,,,l,Incorrect,0,66,66,18,1,t4.png,t5.png,1,0.90025,19,female,2020-11-22_08h47.05.753,torte-2b,2020.1.3,Win32,60,13348,1.200625,,,,,,,,,,,,,,,,,,,,,,,,,,,,,,,,,,,,,,,,,,,,,,,,,,,,,,,,,,,,,,,,,
,,,,,,,,,,,,l,Incorrect,0,67,67,75,1,t1.png,t1.png,0,0.97829,19,female,2020-11-22_08h47.05.753,torte-2b,2020.1.3,Win32,60,13348,0.519775,,,,,,,,,,,,,,,,,,,,,,,,,,,,,,,,,,,,,,,,,,,,,,,,,,,,,,,,,,,,,,,,,
,,,,,,,,,,,,a,Correct!,0,68,68,25,1,t5.png,t5.png,0,0.97829,19,female,2020-11-22_08h47.05.753,torte-2b,2020.1.3,Win32,60,13348,0.438885,,,,,,,,,,,,,,,,,,,,,,,,,,,,,,,,,,,,,,,,,,,,,,,,,,,,,,,,,,,,,,,,,
,,,,,,,,,,,,a,Incorrect,0,69,69,38,1,t3.png,t1.png,2,0.056466,19,female,2020-11-22_08h47.05.753,torte-2b,2020.1.3,Win32,60,13348,0.51567,,,,,,,,,,,,,,,,,,,,,,,,,,,,,,,,,,,,,,,,,,,,,,,,,,,,,,,,,,,,,,,,,
,,,,,,,,,,,,l,Incorrect,0,70,70,23,1,t5.png,t4.png,1,0.90025,19,female,2020-11-22_08h47.05.753,torte-2b,2020.1.3,Win32,60,13348,0.61539,,,,,,,,,,,,,,,,,,,,,,,,,,,,,,,,,,,,,,,,,,,,,,,,,,,,,,,,,,,,,,,,,
,,,,,,,,,,,,a,Incorrect,0,71,71,26,1,t4.png,t2.png,2,0.0591,19,female,2020-11-22_08h47.05.753,torte-2b,2020.1.3,Win32,60,13348,0.346665,,,,,,,,,,,,,,,,,,,,,,,,,,,,,,,,,,,,,,,,,,,,,,,,,,,,,,,,,,,,,,,,,
,,,,,,,,,,,,l,Correct!,0,72,72,87,1,t5.png,t1.png,4,9.55E-11,19,female,2020-11-22_08h47.05.753,torte-2b,2020.1.3,Win32,60,13348,0.239155,,,,,,,,,,,,,,,,,,,,,,,,,,,,,,,,,,,,,,,,,,,,,,,,,,,,,,,,,,,,,,,,,
,,,,,,,,,,,,l,Incorrect,0,73,73,53,1,t3.png,t1.png,2,0.056466,19,female,2020-11-22_08h47.05.753,torte-2b,2020.1.3,Win32,60,13348,0.216035,,,,,,,,,,,,,,,,,,,,,,,,,,,,,,,,,,,,,,,,,,,,,,,,,,,,,,,,,,,,,,,,,
,,,,,,,,,,,,a,Incorrect,0,74,74,72,1,t4.png,t2.png,2,0.059078,19,female,2020-11-22_08h47.05.753,torte-2b,2020.1.3,Win32,60,13348,0.34141,,,,,,,,,,,,,,,,,,,,,,,,,,,,,,,,,,,,,,,,,,,,,,,,,,,,,,,,,,,,,,,,,
,,,,,,,,,,,,l,Correct!,0,75,75,47,1,t4.png,t2.png,2,0.059078,19,female,2020-11-22_08h47.05.753,torte-2b,2020.1.3,Win32,60,13348,0.243145,,,,,,,,,,,,,,,,,,,,,,,,,,,,,,,,,,,,,,,,,,,,,,,,,,,,,,,,,,,,,,,,,
,,,,,,,,,,,,l,Incorrect,0,76,76,110,1,t4.png,t5.png,1,0.90025,19,female,2020-11-22_08h47.05.753,torte-2b,2020.1.3,Win32,60,13348,0.564105,,,,,,,,,,,,,,,,,,,,,,,,,,,,,,,,,,,,,,,,,,,,,,,,,,,,,,,,,,,,,,,,,
,,,,,,,,,,,,l,Correct!,0,77,77,54,1,t1.png,t5.png,4,9.55E-11,19,female,2020-11-22_08h47.05.753,torte-2b,2020.1.3,Win32,60,13348,0.77036,,,,,,,,,,,,,,,,,,,,,,,,,,,,,,,,,,,,,,,,,,,,,,,,,,,,,,,,,,,,,,,,,
,,,,,,,,,,,,a,Incorrect,0,78,78,67,1,t1.png,t5.png,4,9.55E-11,19,female,2020-11-22_08h47.05.753,torte-2b,2020.1.3,Win32,60,13348,0.586695,,,,,,,,,,,,,,,,,,,,,,,,,,,,,,,,,,,,,,,,,,,,,,,,,,,,,,,,,,,,,,,,,
,,,,,,,,,,,,l,Correct!,0,79,79,37,1,t1.png,t4.png,3,0.0000131,19,female,2020-11-22_08h47.05.753,torte-2b,2020.1.3,Win32,60,13348,0.25712,,,,,,,,,,,,,,,,,,,,,,,,,,,,,,,,,,,,,,,,,,,,,,,,,,,,,,,,,,,,,,,,,
,,,,,,,,,,,,a,Correct!,0,80,80,95,1,t1.png,t1.png,0,0.978,19,female,2020-11-22_08h47.05.753,torte-2b,2020.1.3,Win32,60,13348,0.00411,,,,,,,,,,,,,,,,,,,,,,,,,,,,,,,,,,,,,,,,,,,,,,,,,,,,,,,,,,,,,,,,,
,,,,,,,,,,,,a,Incorrect,0,81,81,17,1,t1.png,t4.png,3,0.0000131,19,female,2020-11-22_08h47.05.753,torte-2b,2020.1.3,Win32,60,13348,0.457675,,,,,,,,,,,,,,,,,,,,,,,,,,,,,,,,,,,,,,,,,,,,,,,,,,,,,,,,,,,,,,,,,
,,,,,,,,,,,,l,Incorrect,0,82,82,21,1,t5.png,t4.png,1,0.90025,19,female,2020-11-22_08h47.05.753,torte-2b,2020.1.3,Win32,60,13348,0.38521,,,,,,,,,,,,,,,,,,,,,,,,,,,,,,,,,,,,,,,,,,,,,,,,,,,,,,,,,,,,,,,,,
,,,,,,,,,,,,l,Correct!,0,83,83,119,1,t1.png,t5.png,4,9.55E-11,19,female,2020-11-22_08h47.05.753,torte-2b,2020.1.3,Win32,60,13348,0.311365,,,,,,,,,,,,,,,,,,,,,,,,,,,,,,,,,,,,,,,,,,,,,,,,,,,,,,,,,,,,,,,,,
,,,,,,,,,,,,a,Correct!,0,84,84,64,1,t1.png,t1.png,0,0.978,19,female,2020-11-22_08h47.05.753,torte-2b,2020.1.3,Win32,60,13348,0.904215,,,,,,,,,,,,,,,,,,,,,,,,,,,,,,,,,,,,,,,,,,,,,,,,,,,,,,,,,,,,,,,,,
,,,,,,,,,,,,a,Correct!,0,85,85,104,1,t2.png,t3.png,1,0.90855,19,female,2020-11-22_08h47.05.753,torte-2b,2020.1.3,Win32,60,13348,1.156015,,,,,,,,,,,,,,,,,,,,,,,,,,,,,,,,,,,,,,,,,,,,,,,,,,,,,,,,,,,,,,,,,
,,,,,,,,,,,,l,Correct!,0,86,86,60,1,t2.png,t4.png,2,0.059078,19,female,2020-11-22_08h47.05.753,torte-2b,2020.1.3,Win32,60,13348,1.05216,,,,,,,,,,,,,,,,,,,,,,,,,,,,,,,,,,,,,,,,,,,,,,,,,,,,,,,,,,,,,,,,,
,,,,,,,,,,,,a,Incorrect,0,87,87,15,1,t3.png,t2.png,1,0.90855,19,female,2020-11-22_08h47.05.753,torte-2b,2020.1.3,Win32,60,13348,0.987675,,,,,,,,,,,,,,,,,,,,,,,,,,,,,,,,,,,,,,,,,,,,,,,,,,,,,,,,,,,,,,,,,
,,,,,,,,,,,,l,Correct!,0,88,88,83,1,t3.png,t1.png,2,0.056466,19,female,2020-11-22_08h47.05.753,torte-2b,2020.1.3,Win32,60,13348,0.461205,,,,,,,,,,,,,,,,,,,,,,,,,,,,,,,,,,,,,,,,,,,,,,,,,,,,,,,,,,,,,,,,,
,,,,,,,,,,,,a,Incorrect,0,89,89,99,1,t1.png,t5.png,4,9.55E-11,19,female,2020-11-22_08h47.05.753,torte-2b,2020.1.3,Win32,60,13348,0.925585,,,,,,,,,,,,,,,,,,,,,,,,,,,,,,,,,,,,,,,,,,,,,,,,,,,,,,,,,,,,,,,,,
,,,,,,,,,,,,l,Incorrect,0,90,90,22,1,t2.png,t3.png,1,0.90855,19,female,2020-11-22_08h47.05.753,torte-2b,2020.1.3,Win32,60,13348,0.301845,,,,,,,,,,,,,,,,,,,,,,,,,,,,,,,,,,,,,,,,,,,,,,,,,,,,,,,,,,,,,,,,,
,,,,,,,,,,,,a,Correct!,0,91,91,49,1,t4.png,t5.png,1,0.9,19,female,2020-11-22_08h47.05.753,torte-2b,2020.1.3,Win32,60,13348,0.40222,,,,,,,,,,,,,,,,,,,,,,,,,,,,,,,,,,,,,,,,,,,,,,,,,,,,,,,,,,,,,,,,,
,,,,,,,,,,,,l,Incorrect,0,92,92,114,1,t2.png,t3.png,1,0.90855,19,female,2020-11-22_08h47.05.753,torte-2b,2020.1.3,Win32,60,13348,0.292495,,,,,,,,,,,,,,,,,,,,,,,,,,,,,,,,,,,,,,,,,,,,,,,,,,,,,,,,,,,,,,,,,
,,,,,,,,,,,,l,Correct!,0,93,93,90,1,t1.png,t5.png,4,9.55E-11,19,female,2020-11-22_08h47.05.753,torte-2b,2020.1.3,Win32,60,13348,0.417705,,,,,,,,,,,,,,,,,,,,,,,,,,,,,,,,,,,,,,,,,,,,,,,,,,,,,,,,,,,,,,,,,
,,,,,,,,,,,,l,Correct!,0,94,94,102,1,t4.png,t2.png,2,0.059078,19,female,2020-11-22_08h47.05.753,torte-2b,2020.1.3,Win32,60,13348,0.32685,,,,,,,,,,,,,,,,,,,,,,,,,,,,,,,,,,,,,,,,,,,,,,,,,,,,,,,,,,,,,,,,,
,,,,,,,,,,,,l,Correct!,0,95,95,73,1,t4.png,t2.png,2,0.059078,19,female,2020-11-22_08h47.05.753,torte-2b,2020.1.3,Win32,60,13348,0.20031,,,,,,,,,,,,,,,,,,,,,,,,,,,,,,,,,,,,,,,,,,,,,,,,,,,,,,,,,,,,,,,,,
,,,,,,,,,,,,l,Correct!,0,96,96,11,1,t1.png,t4.png,3,0.0000131,19,female,2020-11-22_08h47.05.753,torte-2b,2020.1.3,Win32,60,13348,0.322035,,,,,,,,,,,,,,,,,,,,,,,,,,,,,,,,,,,,,,,,,,,,,,,,,,,,,,,,,,,,,,,,,
,,,,,,,,,,,,a,Correct!,0,97,97,58,1,t5.png,t4.png,1,0.90025,19,female,2020-11-22_08h47.05.753,torte-2b,2020.1.3,Win32,60,13348,0.3208,,,,,,,,,,,,,,,,,,,,,,,,,,,,,,,,,,,,,,,,,,,,,,,,,,,,,,,,,,,,,,,,,
,,,,,,,,,,,,l,Correct!,0,98,98,111,1,t5.png,t1.png,4,9.55E-11,19,female,2020-11-22_08h47.05.753,torte-2b,2020.1.3,Win32,60,13348,0.43265,,,,,,,,,,,,,,,,,,,,,,,,,,,,,,,,,,,,,,,,,,,,,,,,,,,,,,,,,,,,,,,,,
,,,,,,,,,,,,l,Incorrect,0,99,99,116,1,t5.png,t4.png,1,0.90025,19,female,2020-11-22_08h47.05.753,torte-2b,2020.1.3,Win32,60,13348,0.21349,,,,,,,,,,,,,,,,,,,,,,,,,,,,,,,,,,,,,,,,,,,,,,,,,,,,,,,,,,,,,,,,,
,,,,,,,,,,,,a,Incorrect,0,100,100,80,1,t1.png,t4.png,3,0.0000131,19,female,2020-11-22_08h47.05.753,torte-2b,2020.1.3,Win32,60,13348,0.435945,,,,,,,,,,,,,,,,,,,,,,,,,,,,,,,,,,,,,,,,,,,,,,,,,,,,,,,,,,,,,,,,,
,,,,,,,,,,,,a,Incorrect,0,101,101,3,1,t1.png,t5.png,4,9.55E-11,19,female,2020-11-22_08h47.05.753,torte-2b,2020.1.3,Win32,60,13348,0.783845,,,,,,,,,,,,,,,,,,,,,,,,,,,,,,,,,,,,,,,,,,,,,,,,,,,,,,,,,,,,,,,,,
,,,,,,,,,,,,l,Correct!,0,102,102,94,1,t5.png,t1.png,4,9.55E-11,19,female,2020-11-22_08h47.05.753,torte-2b,2020.1.3,Win32,60,13348,2.055535,,,,,,,,,,,,,,,,,,,,,,,,,,,,,,,,,,,,,,,,,,,,,,,,,,,,,,,,,,,,,,,,,
,,,,,,,,,,,,l,Incorrect,0,103,103,42,1,t5.png,t4.png,1,0.90025,19,female,2020-11-22_08h47.05.753,torte-2b,2020.1.3,Win32,60,13348,0.62196,,,,,,,,,,,,,,,,,,,,,,,,,,,,,,,,,,,,,,,,,,,,,,,,,,,,,,,,,,,,,,,,,
,,,,,,,,,,,,l,Incorrect,0,104,104,29,1,t5.png,t5.png,0,0.97829,19,female,2020-11-22_08h47.05.753,torte-2b,2020.1.3,Win32,60,13348,0.38274,,,,,,,,,,,,,,,,,,,,,,,,,,,,,,,,,,,,,,,,,,,,,,,,,,,,,,,,,,,,,,,,,
,,,,,,,,,,,,l,Incorrect,0,105,105,32,1,t4.png,t5.png,1,0.90025,19,female,2020-11-22_08h47.05.753,torte-2b,2020.1.3,Win32,60,13348,0.06678,,,,,,,,,,,,,,,,,,,,,,,,,,,,,,,,,,,,,,,,,,,,,,,,,,,,,,,,,,,,,,,,,
,,,,,,,,,,,,a,Correct!,0,106,106,7,1,t4.png,t5.png,1,0.90025,19,female,2020-11-22_08h47.05.753,torte-2b,2020.1.3,Win32,60,13348,0.2054,,,,,,,,,,,,,,,,,,,,,,,,,,,,,,,,,,,,,,,,,,,,,,,,,,,,,,,,,,,,,,,,,
,,,,,,,,,,,,l,Incorrect,0,107,107,92,1,t2.png,t3.png,1,0.909,19,female,2020-11-22_08h47.05.753,torte-2b,2020.1.3,Win32,60,13348,0.302415,,,,,,,,,,,,,,,,,,,,,,,,,,,,,,,,,,,,,,,,,,,,,,,,,,,,,,,,,,,,,,,,,
,,,,,,,,,,,,l,Incorrect,0,108,108,62,1,t5.png,t5.png,0,0.978,19,female,2020-11-22_08h47.05.753,torte-2b,2020.1.3,Win32,60,13348,0.3196,,,,,,,,,,,,,,,,,,,,,,,,,,,,,,,,,,,,,,,,,,,,,,,,,,,,,,,,,,,,,,,,,
,,,,,,,,,,,,a,Correct!,0,109,109,63,1,t2.png,t3.png,1,0.909,19,female,2020-11-22_08h47.05.753,torte-2b,2020.1.3,Win32,60,13348,0.282845,,,,,,,,,,,,,,,,,,,,,,,,,,,,,,,,,,,,,,,,,,,,,,,,,,,,,,,,,,,,,,,,,
,,,,,,,,,,,,a,Incorrect,0,110,110,1,1,t2.png,t4.png,2,0.059078,19,female,2020-11-22_08h47.05.753,torte-2b,2020.1.3,Win32,60,13348,0.35191,,,,,,,,,,,,,,,,,,,,,,,,,,,,,,,,,,,,,,,,,,,,,,,,,,,,,,,,,,,,,,,,,
,,,,,,,,,,,,a,Correct!,0,111,111,77,1,t1.png,t1.png,0,0.97829,19,female,2020-11-22_08h47.05.753,torte-2b,2020.1.3,Win32,60,13348,0.3265,,,,,,,,,,,,,,,,,,,,,,,,,,,,,,,,,,,,,,,,,,,,,,,,,,,,,,,,,,,,,,,,,
,,,,,,,,,,,,l,Incorrect,0,112,112,101,1,t4.png,t5.png,1,0.90025,19,female,2020-11-22_08h47.05.753,torte-2b,2020.1.3,Win32,60,13348,0.310575,,,,,,,,,,,,,,,,,,,,,,,,,,,,,,,,,,,,,,,,,,,,,,,,,,,,,,,,,,,,,,,,,
,,,,,,,,,,,,a,Incorrect,0,113,113,68,1,t1.png,t4.png,3,0.0000131,19,female,2020-11-22_08h47.05.753,torte-2b,2020.1.3,Win32,60,13348,0.30718,,,,,,,,,,,,,,,,,,,,,,,,,,,,,,,,,,,,,,,,,,,,,,,,,,,,,,,,,,,,,,,,,
,,,,,,,,,,,,a,Correct!,0,114,114,118,1,t5.png,t5.png,0,0.978,19,female,2020-11-22_08h47.05.753,torte-2b,2020.1.3,Win32,60,13348,0.082465,,,,,,,,,,,,,,,,,,,,,,,,,,,,,,,,,,,,,,,,,,,,,,,,,,,,,,,,,,,,,,,,,
,,,,,,,,,,,,a,Incorrect,0,115,115,46,1,t4.png,t2.png,2,0.059078,19,female,2020-11-22_08h47.05.753,torte-2b,2020.1.3,Win32,60,13348,0.285105,,,,,,,,,,,,,,,,,,,,,,,,,,,,,,,,,,,,,,,,,,,,,,,,,,,,,,,,,,,,,,,,,
,,,,,,,,,,,,a,Incorrect,0,116,116,35,1,t1.png,t4.png,3,0.0000131,19,female,2020-11-22_08h47.05.753,torte-2b,2020.1.3,Win32,60,13348,0.49033,,,,,,,,,,,,,,,,,,,,,,,,,,,,,,,,,,,,,,,,,,,,,,,,,,,,,,,,,,,,,,,,,
,,,,,,,,,,,,a,Correct!,0,117,117,44,1,t2.png,t3.png,1,0.909,19,female,2020-11-22_08h47.05.753,torte-2b,2020.1.3,Win32,60,13348,0.298995,,,,,,,,,,,,,,,,,,,,,,,,,,,,,,,,,,,,,,,,,,,,,,,,,,,,,,,,,,,,,,,,,
,,,,,,,,,,,,l,Incorrect,0,118,118,9,1,t4.png,t5.png,1,0.9,19,female,2020-11-22_08h47.05.753,torte-2b,2020.1.3,Win32,60,13348,0.21562,,,,,,,,,,,,,,,,,,,,,,,,,,,,,,,,,,,,,,,,,,,,,,,,,,,,,,,,,,,,,,,,,
,,,,,,,,,,,,l,Incorrect,0,119,119,112,1,t1.png,t1.png,0,0.97829,19,female,2020-11-22_08h47.05.753,torte-2b,2020.1.3,Win32,60,13348,0.10504,,,,,,,,,,,,,,,,,,,,,,,,,,,,,,,,,,,,,,,,,,,,,,,,,,,,,,,,,,,,,,,,,
,,,,,,,,,,,,l,Incorrect,,,,,,t1.png,t2.png,1,0.9,19,female,2020-11-22_08h47.05.753,torte-2b,2020.1.3,Win32,60,13348,0.869865,space,1.88502,space,22.688715,0,0,0,1,1,,,,,,,,,,,,,,,,,,,,,,,,,,,,,,,,,,,,,,,,,,,,,,,,,,,,,,,,
,,,,,,,,,,,,l,Incorrect,,,,,,t1.png,t1.png,0,0.97829,19,female,2020-11-22_08h47.05.753,torte-2b,2020.1.3,Win32,60,13348,1.498655,,,,,0,1,1,78,1,,,,,,,,,,,,,,,,,,,,,,,,,,,,,,,,,,,,,,,,,,,,,,,,,,,,,,,,
,,,,,,,,,,,,a,Incorrect,,,,,,t4.png,t2.png,2,0.059078,19,female,2020-11-22_08h47.05.753,torte-2b,2020.1.3,Win32,60,13348,0.59121,,,,,0,2,2,88,1,,,,,,,,,,,,,,,,,,,,,,,,,,,,,,,,,,,,,,,,,,,,,,,,,,,,,,,,
,,,,,,,,,,,,l,Incorrect,,,,,,t4.png,t3.png,1,0.90855,19,female,2020-11-22_08h47.05.753,torte-2b,2020.1.3,Win32,60,13348,0.69818,,,,,0,3,3,45,1,,,,,,,,,,,,,,,,,,,,,,,,,,,,,,,,,,,,,,,,,,,,,,,,,,,,,,,,
,,,,,,,,,,,,l,Correct!,,,,,,t5.png,t1.png,4,9.55E-11,19,female,2020-11-22_08h47.05.753,torte-2b,2020.1.3,Win32,60,13348,0.453755,,,,,0,4,4,43,1,,,,,,,,,,,,,,,,,,,,,,,,,,,,,,,,,,,,,,,,,,,,,,,,,,,,,,,,
,,,,,,,,,,,,a,Incorrect,,,,,,t5.png,t2.png,3,0.0000131,19,female,2020-11-22_08h47.05.753,torte-2b,2020.1.3,Win32,60,13348,0.452195,,,,,0,5,5,98,1,,,,,,,,,,,,,,,,,,,,,,,,,,,,,,,,,,,,,,,,,,,,,,,,,,,,,,,,
,,,,,,,,,,,,a,Incorrect,,,,,,t5.png,t2.png,3,0.0000131,19,female,2020-11-22_08h47.05.753,torte-2b,2020.1.3,Win32,60,13348,0.350755,,,,,0,6,6,51,1,,,,,,,,,,,,,,,,,,,,,,,,,,,,,,,,,,,,,,,,,,,,,,,,,,,,,,,,
,,,,,,,,,,,,l,Incorrect,,,,,,t5.png,t4.png,1,0.9,19,female,2020-11-22_08h47.05.753,torte-2b,2020.1.3,Win32,60,13348,0.275115,,,,,0,7,7,76,1,,,,,,,,,,,,,,,,,,,,,,,,,,,,,,,,,,,,,,,,,,,,,,,,,,,,,,,,
,,,,,,,,,,,,a,Correct!,,,,,,t4.png,t5.png,1,0.90025,19,female,2020-11-22_08h47.05.753,torte-2b,2020.1.3,Win32,60,13348,0.25878,,,,,0,8,8,103,1,,,,,,,,,,,,,,,,,,,,,,,,,,,,,,,,,,,,,,,,,,,,,,,,,,,,,,,,
,,,,,,,,,,,,a,Incorrect,,,,,,t3.png,t5.png,2,0.056466,19,female,2020-11-22_08h47.05.753,torte-2b,2020.1.3,Win32,60,13348,0.24444,,,,,0,9,9,14,1,,,,,,,,,,,,,,,,,,,,,,,,,,,,,,,,,,,,,,,,,,,,,,,,,,,,,,,,
,,,,,,,,,,,,l,Correct!,,,,,,t3.png,t2.png,1,0.909,19,female,2020-11-22_08h47.05.753,torte-2b,2020.1.3,Win32,60,13348,0.20182,,,,,0,10,10,23,1,,,,,,,,,,,,,,,,,,,,,,,,,,,,,,,,,,,,,,,,,,,,,,,,,,,,,,,,
,,,,,,,,,,,,a,Incorrect,,,,,,t3.png,t1.png,2,0.0565,19,female,2020-11-22_08h47.05.753,torte-2b,2020.1.3,Win32,60,13348,0.13208,,,,,0,11,11,31,1,,,,,,,,,,,,,,,,,,,,,,,,,,,,,,,,,,,,,,,,,,,,,,,,,,,,,,,,
,,,,,,,,,,,,l,Correct!,,,,,,t1.png,t5.png,4,9.55E-11,19,female,2020-11-22_08h47.05.753,torte-2b,2020.1.3,Win32,60,13348,0.14029,,,,,0,12,12,16,1,,,,,,,,,,,,,,,,,,,,,,,,,,,,,,,,,,,,,,,,,,,,,,,,,,,,,,,,
,,,,,,,,,,,,a,Correct!,,,,,,t2.png,t2.png,0,0.98115,19,female,2020-11-22_08h47.05.753,torte-2b,2020.1.3,Win32,60,13348,0.537565,,,,,0,13,13,57,1,,,,,,,,,,,,,,,,,,,,,,,,,,,,,,,,,,,,,,,,,,,,,,,,,,,,,,,,
,,,,,,,,,,,,l,Incorrect,,,,,,t2.png,t1.png,1,0.9,19,female,2020-11-22_08h47.05.753,torte-2b,2020.1.3,Win32,60,13348,0.199175,,,,,0,14,14,118,1,,,,,,,,,,,,,,,,,,,,,,,,,,,,,,,,,,,,,,,,,,,,,,,,,,,,,,,,
,,,,,,,,,,,,l,Correct!,,,,,,t5.png,t4.png,1,0.90025,19,female,2020-11-22_08h47.05.753,torte-2b,2020.1.3,Win32,60,13348,0.24122,,,,,0,15,15,27,1,,,,,,,,,,,,,,,,,,,,,,,,,,,,,,,,,,,,,,,,,,,,,,,,,,,,,,,,
,,,,,,,,,,,,l,Incorrect,,,,,,t1.png,t1.png,0,0.978,19,female,2020-11-22_08h47.05.753,torte-2b,2020.1.3,Win32,60,13348,0.24491,,,,,0,16,16,54,1,,,,,,,,,,,,,,,,,,,,,,,,,,,,,,,,,,,,,,,,,,,,,,,,,,,,,,,,
,,,,,,,,,,,,a,Correct!,,,,,,t1.png,t2.png,1,0.90025,19,female,2020-11-22_08h47.05.753,torte-2b,2020.1.3,Win32,60,13348,0.23422,,,,,0,17,17,105,1,,,,,,,,,,,,,,,,,,,,,,,,,,,,,,,,,,,,,,,,,,,,,,,,,,,,,,,,
,,,,,,,,,,,,l,Correct!,,,,,,t2.png,t4.png,2,0.059078,19,female,2020-11-22_08h47.05.753,torte-2b,2020.1.3,Win32,60,13348,0.16813,,,,,0,18,18,37,1,,,,,,,,,,,,,,,,,,,,,,,,,,,,,,,,,,,,,,,,,,,,,,,,,,,,,,,,
,,,,,,,,,,,,l,Correct!,,,,,,t2.png,t5.png,3,0.0000131,19,female,2020-11-22_08h47.05.753,torte-2b,2020.1.3,Win32,60,13348,0.350735,,,,,0,19,19,40,1,,,,,,,,,,,,,,,,,,,,,,,,,,,,,,,,,,,,,,,,,,,,,,,,,,,,,,,,
,,,,,,,,,,,,a,Incorrect,,,,,,t2.png,t4.png,2,0.059078,19,female,2020-11-22_08h47.05.753,torte-2b,2020.1.3,Win32,60,13348,0.38367,,,,,0,20,20,11,1,,,,,,,,,,,,,,,,,,,,,,,,,,,,,,,,,,,,,,,,,,,,,,,,,,,,,,,,
,,,,,,,,,,,,l,Correct!,,,,,,t1.png,t4.png,3,0.0000131,19,female,2020-11-22_08h47.05.753,torte-2b,2020.1.3,Win32,60,13348,0.86916,,,,,0,21,21,50,1,,,,,,,,,,,,,,,,,,,,,,,,,,,,,,,,,,,,,,,,,,,,,,,,,,,,,,,,
,,,,,,,,,,,,a,Correct!,,,,,,t4.png,t5.png,1,0.9,19,female,2020-11-22_08h47.05.753,torte-2b,2020.1.3,Win32,60,13348,0.39281,,,,,0,22,22,115,1,,,,,,,,,,,,,,,,,,,,,,,,,,,,,,,,,,,,,,,,,,,,,,,,,,,,,,,,
,,,,,,,,,,,,l,Correct!,,,,,,t5.png,t1.png,4,9.55E-11,19,female,2020-11-22_08h47.05.753,torte-2b,2020.1.3,Win32,60,13348,0.117335,,,,,0,23,23,100,1,,,,,,,,,,,,,,,,,,,,,,,,,,,,,,,,,,,,,,,,,,,,,,,,,,,,,,,,
,,,,,,,,,,,,a,Incorrect,,,,,,t1.png,t5.png,4,9.55E-11,19,female,2020-11-22_08h47.05.753,torte-2b,2020.1.3,Win32,60,13348,0.99866,,,,,0,24,24,41,1,,,,,,,,,,,,,,,,,,,,,,,,,,,,,,,,,,,,,,,,,,,,,,,,,,,,,,,,
,,,,,,,,,,,,l,Incorrect,,,,,,t2.png,t1.png,1,0.90025,19,female,2020-11-22_08h47.05.753,torte-2b,2020.1.3,Win32,60,13348,0.72915,,,,,0,25,25,62,1,,,,,,,,,,,,,,,,,,,,,,,,,,,,,,,,,,,,,,,,,,,,,,,,,,,,,,,,
,,,,,,,,,,,,a,Correct!,,,,,,t4.png,t5.png,1,0.90025,19,female,2020-11-22_08h47.05.753,torte-2b,2020.1.3,Win32,60,13348,0.95815,,,,,0,26,26,47,1,,,,,,,,,,,,,,,,,,,,,,,,,,,,,,,,,,,,,,,,,,,,,,,,,,,,,,,,
,,,,,,,,,,,,a,Incorrect,,,,,,t5.png,t3.png,2,0.056466,19,female,2020-11-22_08h47.05.753,torte-2b,2020.1.3,Win32,60,13348,1.542685,,,,,0,27,27,38,1,,,,,,,,,,,,,,,,,,,,,,,,,,,,,,,,,,,,,,,,,,,,,,,,,,,,,,,,
,,,,,,,,,,,,l,Correct!,,,,,,t3.png,t4.png,1,0.90855,19,female,2020-11-22_08h47.05.753,torte-2b,2020.1.3,Win32,60,13348,0.755345,,,,,0,28,28,96,1,,,,,,,,,,,,,,,,,,,,,,,,,,,,,,,,,,,,,,,,,,,,,,,,,,,,,,,,
,,,,,,,,,,,,a,Incorrect,,,,,,t1.png,t2.png,1,0.90025,19,female,2020-11-22_08h47.05.753,torte-2b,2020.1.3,Win32,60,13348,1.090055,,,,,0,29,29,72,1,,,,,,,,,,,,,,,,,,,,,,,,,,,,,,,,,,,,,,,,,,,,,,,,,,,,,,,,
,,,,,,,,,,,,l,Correct!,,,,,,t3.png,t5.png,2,0.0565,19,female,2020-11-22_08h47.05.753,torte-2b,2020.1.3,Win32,60,13348,0.57655,,,,,0,30,30,83,1,,,,,,,,,,,,,,,,,,,,,,,,,,,,,,,,,,,,,,,,,,,,,,,,,,,,,,,,
,,,,,,,,,,,,l,Incorrect,,,,,,t4.png,t4.png,0,0.98115,19,female,2020-11-22_08h47.05.753,torte-2b,2020.1.3,Win32,60,13348,1.035985,,,,,0,31,31,52,1,,,,,,,,,,,,,,,,,,,,,,,,,,,,,,,,,,,,,,,,,,,,,,,,,,,,,,,,
,,,,,,,,,,,,a,Incorrect,,,,,,t3.png,t5.png,2,0.056466,19,female,2020-11-22_08h47.05.753,torte-2b,2020.1.3,Win32,60,13348,0.835405,,,,,0,32,32,44,1,,,,,,,,,,,,,,,,,,,,,,,,,,,,,,,,,,,,,,,,,,,,,,,,,,,,,,,,
,,,,,,,,,,,,l,Incorrect,,,,,,t1.png,t1.png,0,0.97829,19,female,2020-11-22_08h47.05.753,torte-2b,2020.1.3,Win32,60,13348,0.335025,,,,,0,33,33,9,1,,,,,,,,,,,,,,,,,,,,,,,,,,,,,,,,,,,,,,,,,,,,,,,,,,,,,,,,
,,,,,,,,,,,,a,Incorrect,,,,,,t1.png,t4.png,3,0.0000131,19,female,2020-11-22_08h47.05.753,torte-2b,2020.1.3,Win32,60,13348,0.194755,,,,,0,34,34,107,1,,,,,,,,,,,,,,,,,,,,,,,,,,,,,,,,,,,,,,,,,,,,,,,,,,,,,,,,
,,,,,,,,,,,,a,Correct!,,,,,,t2.png,t1.png,1,0.90025,19,female,2020-11-22_08h47.05.753,torte-2b,2020.1.3,Win32,60,13348,0.28151,,,,,0,35,35,4,1,,,,,,,,,,,,,,,,,,,,,,,,,,,,,,,,,,,,,,,,,,,,,,,,,,,,,,,,
,,,,,,,,,,,,l,Correct!,,,,,,t1.png,t3.png,2,0.056466,19,female,2020-11-22_08h47.05.753,torte-2b,2020.1.3,Win32,60,13348,0.70405,,,,,0,36,36,60,1,,,,,,,,,,,,,,,,,,,,,,,,,,,,,,,,,,,,,,,,,,,,,,,,,,,,,,,,
,,,,,,,,,,,,l,Incorrect,,,,,,t2.png,t2.png,0,0.981,19,female,2020-11-22_08h47.05.753,torte-2b,2020.1.3,Win32,60,13348,0.15228,,,,,0,37,37,101,1,,,,,,,,,,,,,,,,,,,,,,,,,,,,,,,,,,,,,,,,,,,,,,,,,,,,,,,,
,,,,,,,,,,,,l,Incorrect,,,,,,t1.png,t1.png,0,0.97829,19,female,2020-11-22_08h47.05.753,torte-2b,2020.1.3,Win32,60,13348,0.0049,,,,,0,38,38,67,1,,,,,,,,,,,,,,,,,,,,,,,,,,,,,,,,,,,,,,,,,,,,,,,,,,,,,,,,
,,,,,,,,,,,,a,Incorrect,,,,,,t4.png,t1.png,3,0.0000131,19,female,2020-11-22_08h47.05.753,torte-2b,2020.1.3,Win32,60,13348,0.284155,,,,,0,39,39,48,1,,,,,,,,,,,,,,,,,,,,,,,,,,,,,,,,,,,,,,,,,,,,,,,,,,,,,,,,
,,,,,,,,,,,,l,Incorrect,,,,,,t1.png,t3.png,2,0.056466,19,female,2020-11-22_08h47.05.753,torte-2b,2020.1.3,Win32,60,13348,0.29275,,,,,0,40,40,69,1,,,,,,,,,,,,,,,,,,,,,,,,,,,,,,,,,,,,,,,,,,,,,,,,,,,,,,,,
,,,,,,,,,,,,l,Correct!,,,,,,t1.png,t5.png,4,9.55E-11,19,female,2020-11-22_08h47.05.753,torte-2b,2020.1.3,Win32,60,13348,0.29664,,,,,0,41,41,12,1,,,,,,,,,,,,,,,,,,,,,,,,,,,,,,,,,,,,,,,,,,,,,,,,,,,,,,,,
,,,,,,,,,,,,a,Correct!,,,,,,t4.png,t4.png,0,0.98115,19,female,2020-11-22_08h47.05.753,torte-2b,2020.1.3,Win32,60,13348,0.22933,,,,,0,42,42,80,1,,,,,,,,,,,,,,,,,,,,,,,,,,,,,,,,,,,,,,,,,,,,,,,,,,,,,,,,
,,,,,,,,,,,,a,Incorrect,,,,,,t4.png,t3.png,1,0.90855,19,female,2020-11-22_08h47.05.753,torte-2b,2020.1.3,Win32,60,13348,0.344265,,,,,0,43,43,75,1,,,,,,,,,,,,,,,,,,,,,,,,,,,,,,,,,,,,,,,,,,,,,,,,,,,,,,,,
,,,,,,,,,,,,l,Correct!,,,,,,t3.png,t1.png,2,0.056466,19,female,2020-11-22_08h47.05.753,torte-2b,2020.1.3,Win32,60,13348,0.92047,,,,,0,44,44,64,1,,,,,,,,,,,,,,,,,,,,,,,,,,,,,,,,,,,,,,,,,,,,,,,,,,,,,,,,
,,,,,,,,,,,,a,Incorrect,,,,,,t1.png,t2.png,1,0.90025,19,female,2020-11-22_08h47.05.753,torte-2b,2020.1.3,Win32,60,13348,1.15435,,,,,0,45,45,33,1,,,,,,,,,,,,,,,,,,,,,,,,,,,,,,,,,,,,,,,,,,,,,,,,,,,,,,,,
,,,,,,,,,,,,l,Correct!,,,,,,t1.png,t4.png,3,0.0000131,19,female,2020-11-22_08h47.05.753,torte-2b,2020.1.3,Win32,60,13348,0.35106,,,,,0,46,46,92,1,,,,,,,,,,,,,,,,,,,,,,,,,,,,,,,,,,,,,,,,,,,,,,,,,,,,,,,,
,,,,,,,,,,,,a,Incorrect,,,,,,t3.png,t1.png,2,0.056466,19,female,2020-11-22_08h47.05.753,torte-2b,2020.1.3,Win32,60,13348,0.2614,,,,,0,47,47,29,1,,,,,,,,,,,,,,,,,,,,,,,,,,,,,,,,,,,,,,,,,,,,,,,,,,,,,,,,
,,,,,,,,,,,,a,Incorrect,,,,,,t3.png,t5.png,2,0.0565,19,female,2020-11-22_08h47.05.753,torte-2b,2020.1.3,Win32,60,13348,0.38053,,,,,0,48,48,30,1,,,,,,,,,,,,,,,,,,,,,,,,,,,,,,,,,,,,,,,,,,,,,,,,,,,,,,,,
,,,,,,,,,,,,l,Incorrect,,,,,,t4.png,t3.png,1,0.909,19,female,2020-11-22_08h47.05.753,torte-2b,2020.1.3,Win32,60,13348,0.18413,,,,,0,49,49,20,1,,,,,,,,,,,,,,,,,,,,,,,,,,,,,,,,,,,,,,,,,,,,,,,,,,,,,,,,
,,,,,,,,,,,,l,Correct!,,,,,,t4.png,t1.png,3,0.0000131,19,female,2020-11-22_08h47.05.753,torte-2b,2020.1.3,Win32,60,13348,0.008975,,,,,0,50,50,93,1,,,,,,,,,,,,,,,,,,,,,,,,,,,,,,,,,,,,,,,,,,,,,,,,,,,,,,,,
,,,,,,,,,,,,a,Incorrect,,,,,,t5.png,t3.png,2,0.056466,19,female,2020-11-22_08h47.05.753,torte-2b,2020.1.3,Win32,60,13348,0.333345,,,,,0,51,51,114,1,,,,,,,,,,,,,,,,,,,,,,,,,,,,,,,,,,,,,,,,,,,,,,,,,,,,,,,,
,,,,,,,,,,,,l,Correct!,,,,,,t1.png,t4.png,3,0.0000131,19,female,2020-11-22_08h47.05.753,torte-2b,2020.1.3,Win32,60,13348,0.250685,,,,,0,52,52,81,1,,,,,,,,,,,,,,,,,,,,,,,,,,,,,,,,,,,,,,,,,,,,,,,,,,,,,,,,
,,,,,,,,,,,,a,Incorrect,,,,,,t1.png,t5.png,4,9.55E-11,19,female,2020-11-22_08h47.05.753,torte-2b,2020.1.3,Win32,60,13348,0.21951,,,,,0,53,53,55,1,,,,,,,,,,,,,,,,,,,,,,,,,,,,,,,,,,,,,,,,,,,,,,,,,,,,,,,,
,,,,,,,,,,,,l,Correct!,,,,,,t5.png,t2.png,3,0.0000131,19,female,2020-11-22_08h47.05.753,torte-2b,2020.1.3,Win32,60,13348,0.25437,,,,,0,54,54,116,1,,,,,,,,,,,,,,,,,,,,,,,,,,,,,,,,,,,,,,,,,,,,,,,,,,,,,,,,
,,,,,,,,,,,,l,Incorrect,,,,,,t4.png,t4.png,0,0.98115,19,female,2020-11-22_08h47.05.753,torte-2b,2020.1.3,Win32,60,13348,0.275455,,,,,0,55,55,79,1,,,,,,,,,,,,,,,,,,,,,,,,,,,,,,,,,,,,,,,,,,,,,,,,,,,,,,,,
,,,,,,,,,,,,l,Correct!,,,,,,t1.png,t3.png,2,0.056466,19,female,2020-11-22_08h47.05.753,torte-2b,2020.1.3,Win32,60,13348,0.333845,,,,,0,56,56,63,1,,,,,,,,,,,,,,,,,,,,,,,,,,,,,,,,,,,,,,,,,,,,,,,,,,,,,,,,
,,,,,,,,,,,,l,Correct!,,,,,,t2.png,t5.png,3,0.0000131,19,female,2020-11-22_08h47.05.753,torte-2b,2020.1.3,Win32,60,13348,0.36079,,,,,0,57,57,104,1,,,,,,,,,,,,,,,,,,,,,,,,,,,,,,,,,,,,,,,,,,,,,,,,,,,,,,,,
,,,,,,,,,,,,a,Correct!,,,,,,t5.png,t4.png,1,0.90025,19,female,2020-11-22_08h47.05.753,torte-2b,2020.1.3,Win32,60,13348,0.330055,,,,,0,58,58,26,1,,,,,,,,,,,,,,,,,,,,,,,,,,,,,,,,,,,,,,,,,,,,,,,,,,,,,,,,
,,,,,,,,,,,,a,Incorrect,,,,,,t4.png,t1.png,3,0.0000131,19,female,2020-11-22_08h47.05.753,torte-2b,2020.1.3,Win32,60,13348,0.3415,,,,,0,59,59,61,1,,,,,,,,,,,,,,,,,,,,,,,,,,,,,,,,,,,,,,,,,,,,,,,,,,,,,,,,
,,,,,,,,,,,,l,Correct!,,,,,,t2.png,t5.png,3,0.0000131,19,female,2020-11-22_08h47.05.753,torte-2b,2020.1.3,Win32,60,13348,0.354635,,,,,0,60,60,66,1,,,,,,,,,,,,,,,,,,,,,,,,,,,,,,,,,,,,,,,,,,,,,,,,,,,,,,,,
,,,,,,,,,,,,l,Correct!,,,,,,t2.png,t4.png,2,0.059078,19,female,2020-11-22_08h47.05.753,torte-2b,2020.1.3,Win32,60,13348,0.28479,,,,,0,61,61,24,1,,,,,,,,,,,,,,,,,,,,,,,,,,,,,,,,,,,,,,,,,,,,,,,,,,,,,,,,
,,,,,,,,,,,,a,Correct!,,,,,,t5.png,t5.png,0,0.97829,19,female,2020-11-22_08h47.05.753,torte-2b,2020.1.3,Win32,60,13348,0.547715,,,,,0,62,62,73,1,,,,,,,,,,,,,,,,,,,,,,,,,,,,,,,,,,,,,,,,,,,,,,,,,,,,,,,,
,,,,,,,,,,,,l,Incorrect,,,,,,t1.png,t1.png,0,0.978,19,female,2020-11-22_08h47.05.753,torte-2b,2020.1.3,Win32,60,13348,0.35051,,,,,0,63,63,28,1,,,,,,,,,,,,,,,,,,,,,,,,,,,,,,,,,,,,,,,,,,,,,,,,,,,,,,,,
,,,,,,,,,,,,l,Incorrect,,,,,,t5.png,t5.png,0,0.97829,19,female,2020-11-22_08h47.05.753,torte-2b,2020.1.3,Win32,60,13348,0.64237,,,,,0,64,64,70,1,,,,,,,,,,,,,,,,,,,,,,,,,,,,,,,,,,,,,,,,,,,,,,,,,,,,,,,,
,,,,,,,,,,,,l,Correct!,,,,,,t1.png,t5.png,4,9.55E-11,19,female,2020-11-22_08h47.05.753,torte-2b,2020.1.3,Win32,60,13348,0.408455,,,,,0,65,65,85,1,,,,,,,,,,,,,,,,,,,,,,,,,,,,,,,,,,,,,,,,,,,,,,,,,,,,,,,,
,,,,,,,,,,,,a,Incorrect,,,,,,t5.png,t1.png,4,9.55E-11,19,female,2020-11-22_08h47.05.753,torte-2b,2020.1.3,Win32,60,13348,0.577125,,,,,0,66,66,22,1,,,,,,,,,,,,,,,,,,,,,,,,,,,,,,,,,,,,,,,,,,,,,,,,,,,,,,,,
,,,,,,,,,,,,l,Correct!,,,,,,t2.png,t5.png,3,0.0000131,19,female,2020-11-22_08h47.05.753,torte-2b,2020.1.3,Win32,60,13348,0.269545,,,,,0,67,67,8,1,,,,,,,,,,,,,,,,,,,,,,,,,,,,,,,,,,,,,,,,,,,,,,,,,,,,,,,,
,,,,,,,,,,,,l,Correct!,,,,,,t2.png,t4.png,2,0.0591,19,female,2020-11-22_08h47.05.753,torte-2b,2020.1.3,Win32,60,13348,0.25895,,,,,0,68,68,15,1,,,,,,,,,,,,,,,,,,,,,,,,,,,,,,,,,,,,,,,,,,,,,,,,,,,,,,,,
,,,,,,,,,,,,a,Incorrect,,,,,,t4.png,t2.png,2,0.0591,19,female,2020-11-22_08h47.05.753,torte-2b,2020.1.3,Win32,60,13348,0.368745,,,,,0,69,69,36,1,,,,,,,,,,,,,,,,,,,,,,,,,,,,,,,,,,,,,,,,,,,,,,,,,,,,,,,,
,,,,,,,,,,,,l,Incorrect,,,,,,t3.png,t4.png,1,0.909,19,female,2020-11-22_08h47.05.753,torte-2b,2020.1.3,Win32,60,13348,0.340335,,,,,0,70,70,106,1,,,,,,,,,,,,,,,,,,,,,,,,,,,,,,,,,,,,,,,,,,,,,,,,,,,,,,,,
,,,,,,,,,,,,a,Incorrect,,,,,,t3.png,t1.png,2,0.056466,19,female,2020-11-22_08h47.05.753,torte-2b,2020.1.3,Win32,60,13348,1.46608,,,,,0,71,71,32,1,,,,,,,,,,,,,,,,,,,,,,,,,,,,,,,,,,,,,,,,,,,,,,,,,,,,,,,,
,,,,,,,,,,,,l,Incorrect,,,,,,t1.png,t2.png,1,0.90025,19,female,2020-11-22_08h47.05.753,torte-2b,2020.1.3,Win32,60,13348,1.009085,,,,,0,72,72,112,1,,,,,,,,,,,,,,,,,,,,,,,,,,,,,,,,,,,,,,,,,,,,,,,,,,,,,,,,
,,,,,,,,,,,,a,Incorrect,,,,,,t5.png,t3.png,2,0.056466,19,female,2020-11-22_08h47.05.753,torte-2b,2020.1.3,Win32,60,13348,0.64965,,,,,0,73,73,108,1,,,,,,,,,,,,,,,,,,,,,,,,,,,,,,,,,,,,,,,,,,,,,,,,,,,,,,,,
,,,,,,,,,,,,l,Correct!,,,,,,t1.png,t4.png,3,0.0000131,19,female,2020-11-22_08h47.05.753,torte-2b,2020.1.3,Win32,60,13348,0.486285,,,,,0,74,74,17,1,,,,,,,,,,,,,,,,,,,,,,,,,,,,,,,,,,,,,,,,,,,,,,,,,,,,,,,,
,,,,,,,,,,,,l,Incorrect,,,,,,t2.png,t3.png,1,0.909,19,female,2020-11-22_08h47.05.753,torte-2b,2020.1.3,Win32,60,13348,0.682845,,,,,0,75,75,74,1,,,,,,,,,,,,,,,,,,,,,,,,,,,,,,,,,,,,,,,,,,,,,,,,,,,,,,,,
,,,,,,,,,,,,l,Correct!,,,,,,t5.png,t3.png,2,0.0565,19,female,2020-11-22_08h47.05.753,torte-2b,2020.1.3,Win32,60,13348,0.375615,,,,,0,76,76,39,1,,,,,,,,,,,,,,,,,,,,,,,,,,,,,,,,,,,,,,,,,,,,,,,,,,,,,,,,
,,,,,,,,,,,,a,Incorrect,,,,,,t4.png,t2.png,2,0.059078,19,female,2020-11-22_08h47.05.753,torte-2b,2020.1.3,Win32,60,13348,1.007025,,,,,0,77,77,86,1,,,,,,,,,,,,,,,,,,,,,,,,,,,,,,,,,,,,,,,,,,,,,,,,,,,,,,,,
,,,,,,,,,,,,a,Incorrect,,,,,,t4.png,t2.png,2,0.059078,19,female,2020-11-22_08h47.05.753,torte-2b,2020.1.3,Win32,60,13348,0.416035,,,,,0,78,78,110,1,,,,,,,,,,,,,,,,,,,,,,,,,,,,,,,,,,,,,,,,,,,,,,,,,,,,,,,,
,,,,,,,,,,,,a,Incorrect,,,,,,t5.png,t1.png,4,9.55E-11,19,female,2020-11-22_08h47.05.753,torte-2b,2020.1.3,Win32,60,13348,1.768535,,,,,0,79,79,102,1,,,,,,,,,,,,,,,,,,,,,,,,,,,,,,,,,,,,,,,,,,,,,,,,,,,,,,,,
,,,,,,,,,,,,l,Correct!,,,,,,t3.png,t1.png,2,0.056466,19,female,2020-11-22_08h47.05.753,torte-2b,2020.1.3,Win32,60,13348,0.941775,,,,,0,80,80,0,1,,,,,,,,,,,,,,,,,,,,,,,,,,,,,,,,,,,,,,,,,,,,,,,,,,,,,,,,
,,,,,,,,,,,,l,Incorrect,,,,,,t5.png,t5.png,0,0.978,19,female,2020-11-22_08h47.05.753,torte-2b,2020.1.3,Win32,60,13348,0.434235,,,,,0,81,81,117,1,,,,,,,,,,,,,,,,,,,,,,,,,,,,,,,,,,,,,,,,,,,,,,,,,,,,,,,,
,,,,,,,,,,,,a,Correct!,,,,,,t3.png,t2.png,1,0.909,19,female,2020-11-22_08h47.05.753,torte-2b,2020.1.3,Win32,60,13348,0.284795,,,,,0,82,82,3,1,,,,,,,,,,,,,,,,,,,,,,,,,,,,,,,,,,,,,,,,,,,,,,,,,,,,,,,,
,,,,,,,,,,,,a,Incorrect,,,,,,t5.png,t2.png,3,0.0000131,19,female,2020-11-22_08h47.05.753,torte-2b,2020.1.3,Win32,60,13348,0.322155,,,,,0,83,83,119,1,,,,,,,,,,,,,,,,,,,,,,,,,,,,,,,,,,,,,,,,,,,,,,,,,,,,,,,,
,,,,,,,,,,,,l,Incorrect,,,,,,t2.png,t2.png,0,0.98115,19,female,2020-11-22_08h47.05.753,torte-2b,2020.1.3,Win32,60,13348,0.33214,,,,,0,84,84,59,1,,,,,,,,,,,,,,,,,,,,,,,,,,,,,,,,,,,,,,,,,,,,,,,,,,,,,,,,
,,,,,,,,,,,,a,Correct!,,,,,,t4.png,t3.png,1,0.90855,19,female,2020-11-22_08h47.05.753,torte-2b,2020.1.3,Win32,60,13348,0.35007,,,,,0,85,85,35,1,,,,,,,,,,,,,,,,,,,,,,,,,,,,,,,,,,,,,,,,,,,,,,,,,,,,,,,,
,,,,,,,,,,,,l,Correct!,,,,,,t1.png,t3.png,2,0.056466,19,female,2020-11-22_08h47.05.753,torte-2b,2020.1.3,Win32,60,13348,0.3229,,,,,0,86,86,99,1,,,,,,,,,,,,,,,,,,,,,,,,,,,,,,,,,,,,,,,,,,,,,,,,,,,,,,,,
,,,,,,,,,,,,a,Correct!,,,,,,t5.png,t4.png,1,0.9,19,female,2020-11-22_08h47.05.753,torte-2b,2020.1.3,Win32,60,13348,0.502225,,,,,0,87,87,49,1,,,,,,,,,,,,,,,,,,,,,,,,,,,,,,,,,,,,,,,,,,,,,,,,,,,,,,,,
,,,,,,,,,,,,a,Correct!,,,,,,t4.png,t4.png,0,0.98115,19,female,2020-11-22_08h47.05.753,torte-2b,2020.1.3,Win32,60,13348,0.654385,,,,,0,88,88,90,1,,,,,,,,,,,,,,,,,,,,,,,,,,,,,,,,,,,,,,,,,,,,,,,,,,,,,,,,
,,,,,,,,,,,,l,Incorrect,,,,,,t5.png,t5.png,0,0.97829,19,female,2020-11-22_08h47.05.753,torte-2b,2020.1.3,Win32,60,13348,0.46642,,,,,0,89,89,94,1,,,,,,,,,,,,,,,,,,,,,,,,,,,,,,,,,,,,,,,,,,,,,,,,,,,,,,,,
,,,,,,,,,,,,l,Correct!,,,,,,t3.png,t5.png,2,0.056466,19,female,2020-11-22_08h47.05.753,torte-2b,2020.1.3,Win32,60,13348,0.351685,,,,,0,90,90,6,1,,,,,,,,,,,,,,,,,,,,,,,,,,,,,,,,,,,,,,,,,,,,,,,,,,,,,,,,
,,,,,,,,,,,,l,Incorrect,,,,,,t2.png,t2.png,0,0.98115,19,female,2020-11-22_08h47.05.753,torte-2b,2020.1.3,Win32,60,13348,0.311645,,,,,0,91,91,7,1,,,,,,,,,,,,,,,,,,,,,,,,,,,,,,,,,,,,,,,,,,,,,,,,,,,,,,,,
,,,,,,,,,,,,a,Correct!,,,,,,t5.png,t4.png,1,0.90025,19,female,2020-11-22_08h47.05.753,torte-2b,2020.1.3,Win32,60,13348,0.390905,,,,,0,92,92,34,1,,,,,,,,,,,,,,,,,,,,,,,,,,,,,,,,,,,,,,,,,,,,,,,,,,,,,,,,
,,,,,,,,,,,,l,Correct!,,,,,,t1.png,t3.png,2,0.056466,19,female,2020-11-22_08h47.05.753,torte-2b,2020.1.3,Win32,60,13348,0.36984,,,,,0,93,93,87,1,,,,,,,,,,,,,,,,,,,,,,,,,,,,,,,,,,,,,,,,,,,,,,,,,,,,,,,,
,,,,,,,,,,,,a,Incorrect,,,,,,t5.png,t2.png,3,0.0000131,19,female,2020-11-22_08h47.05.753,torte-2b,2020.1.3,Win32,60,13348,0.34112,,,,,0,94,94,91,1,,,,,,,,,,,,,,,,,,,,,,,,,,,,,,,,,,,,,,,,,,,,,,,,,,,,,,,,
,,,,,,,,,,,,l,Correct!,,,,,,t2.png,t5.png,3,0.0000131,19,female,2020-11-22_08h47.05.753,torte-2b,2020.1.3,Win32,60,13348,0.2927,,,,,0,95,95,95,1,,,,,,,,,,,,,,,,,,,,,,,,,,,,,,,,,,,,,,,,,,,,,,,,,,,,,,,,
,,,,,,,,,,,,a,Correct!,,,,,,t5.png,t5.png,0,0.97829,19,female,2020-11-22_08h47.05.753,torte-2b,2020.1.3,Win32,60,13348,0.31715,,,,,0,96,96,25,1,,,,,,,,,,,,,,,,,,,,,,,,,,,,,,,,,,,,,,,,,,,,,,,,,,,,,,,,
,,,,,,,,,,,,l,Incorrect,,,,,,t2.png,t2.png,0,0.98115,19,female,2020-11-22_08h47.05.753,torte-2b,2020.1.3,Win32,60,13348,0.34351,,,,,0,97,97,2,1,,,,,,,,,,,,,,,,,,,,,,,,,,,,,,,,,,,,,,,,,,,,,,,,,,,,,,,,
,,,,,,,,,,,,a,Correct!,,,,,,t3.png,t4.png,1,0.909,19,female,2020-11-22_08h47.05.753,torte-2b,2020.1.3,Win32,60,13348,0.303965,,,,,0,98,98,82,1,,,,,,,,,,,,,,,,,,,,,,,,,,,,,,,,,,,,,,,,,,,,,,,,,,,,,,,,
,,,,,,,,,,,,l,Correct!,,,,,,t4.png,t2.png,2,0.059078,19,female,2020-11-22_08h47.05.753,torte-2b,2020.1.3,Win32,60,13348,0.28662,,,,,0,99,99,109,1,,,,,,,,,,,,,,,,,,,,,,,,,,,,,,,,,,,,,,,,,,,,,,,,,,,,,,,,
,,,,,,,,,,,,a,Correct!,,,,,,t2.png,t3.png,1,0.90855,19,female,2020-11-22_08h47.05.753,torte-2b,2020.1.3,Win32,60,13348,0.42441,,,,,0,100,100,68,1,,,,,,,,,,,,,,,,,,,,,,,,,,,,,,,,,,,,,,,,,,,,,,,,,,,,,,,,
,,,,,,,,,,,,l,Incorrect,,,,,,t3.png,t2.png,1,0.90855,19,female,2020-11-22_08h47.05.753,torte-2b,2020.1.3,Win32,60,13348,0.40037,,,,,0,101,101,53,1,,,,,,,,,,,,,,,,,,,,,,,,,,,,,,,,,,,,,,,,,,,,,,,,,,,,,,,,
,,,,,,,,,,,,a,Incorrect,,,,,,t5.png,t3.png,2,0.056466,19,female,2020-11-22_08h47.05.753,torte-2b,2020.1.3,Win32,60,13348,0.351345,,,,,0,102,102,56,1,,,,,,,,,,,,,,,,,,,,,,,,,,,,,,,,,,,,,,,,,,,,,,,,,,,,,,,,
,,,,,,,,,,,,l,Incorrect,,,,,,t2.png,t3.png,1,0.90855,19,female,2020-11-22_08h47.05.753,torte-2b,2020.1.3,Win32,60,13348,0.74576,,,,,0,103,103,65,1,,,,,,,,,,,,,,,,,,,,,,,,,,,,,,,,,,,,,,,,,,,,,,,,,,,,,,,,
,,,,,,,,,,,,l,Correct!,,,,,,t5.png,t1.png,4,9.55E-11,19,female,2020-11-22_08h47.05.753,torte-2b,2020.1.3,Win32,60,13348,0.252535,,,,,0,104,104,71,1,,,,,,,,,,,,,,,,,,,,,,,,,,,,,,,,,,,,,,,,,,,,,,,,,,,,,,,,
,,,,,,,,,,,,a,Correct!,,,,,,t2.png,t3.png,1,0.90855,19,female,2020-11-22_08h47.05.753,torte-2b,2020.1.3,Win32,60,13348,0.24006,,,,,0,105,105,111,1,,,,,,,,,,,,,,,,,,,,,,,,,,,,,,,,,,,,,,,,,,,,,,,,,,,,,,,,
,,,,,,,,,,,,l,Incorrect,,,,,,t2.png,t1.png,1,0.90025,19,female,2020-11-22_08h47.05.753,torte-2b,2020.1.3,Win32,60,13348,0.217605,,,,,0,106,106,5,1,,,,,,,,,,,,,,,,,,,,,,,,,,,,,,,,,,,,,,,,,,,,,,,,,,,,,,,,
,,,,,,,,,,,,a,Incorrect,,,,,,t4.png,t1.png,3,0.0000131,19,female,2020-11-22_08h47.05.753,torte-2b,2020.1.3,Win32,60,13348,0.034525,,,,,0,107,107,42,1,,,,,,,,,,,,,,,,,,,,,,,,,,,,,,,,,,,,,,,,,,,,,,,,,,,,,,,,
,,,,,,,,,,,,a,Correct!,,,,,,t2.png,t3.png,1,0.90855,19,female,2020-11-22_08h47.05.753,torte-2b,2020.1.3,Win32,60,13348,0.318255,,,,,0,108,108,10,1,,,,,,,,,,,,,,,,,,,,,,,,,,,,,,,,,,,,,,,,,,,,,,,,,,,,,,,,
,,,,,,,,,,,,a,Correct!,,,,,,t4.png,t3.png,1,0.909,19,female,2020-11-22_08h47.05.753,torte-2b,2020.1.3,Win32,60,13348,0.01758,,,,,0,109,109,46,1,,,,,,,,,,,,,,,,,,,,,,,,,,,,,,,,,,,,,,,,,,,,,,,,,,,,,,,,
,,,,,,,,,,,,l,Incorrect,,,,,,t4.png,t5.png,1,0.90025,19,female,2020-11-22_08h47.05.753,torte-2b,2020.1.3,Win32,60,13348,0.468625,,,,,0,110,110,58,1,,,,,,,,,,,,,,,,,,,,,,,,,,,,,,,,,,,,,,,,,,,,,,,,,,,,,,,,
,,,,,,,,,,,,l,Correct!,,,,,,t4.png,t1.png,3,0.0000131,19,female,2020-11-22_08h47.05.753,torte-2b,2020.1.3,Win32,60,13348,0.23675,,,,,0,111,111,13,1,,,,,,,,,,,,,,,,,,,,,,,,,,,,,,,,,,,,,,,,,,,,,,,,,,,,,,,,
,,,,,,,,,,,,a,Correct!,,,,,,t3.png,t4.png,1,0.90855,19,female,2020-11-22_08h47.05.753,torte-2b,2020.1.3,Win32,60,13348,0.386365,,,,,0,112,112,84,1,,,,,,,,,,,,,,,,,,,,,,,,,,,,,,,,,,,,,,,,,,,,,,,,,,,,,,,,
,,,,,,,,,,,,l,Incorrect,,,,,,t3.png,t2.png,1,0.90855,19,female,2020-11-22_08h47.05.753,torte-2b,2020.1.3,Win32,60,13348,0.332865,,,,,0,113,113,18,1,,,,,,,,,,,,,,,,,,,,,,,,,,,,,,,,,,,,,,,,,,,,,,,,,,,,,,,,
,,,,,,,,,,,,a,Incorrect,,,,,,t2.png,t4.png,2,0.059078,19,female,2020-11-22_08h47.05.753,torte-2b,2020.1.3,Win32,60,13348,0.184095,,,,,0,114,114,77,1,,,,,,,,,,,,,,,,,,,,,,,,,,,,,,,,,,,,,,,,,,,,,,,,,,,,,,,,
,,,,,,,,,,,,l,Incorrect,,,,,,t3.png,t4.png,1,0.909,19,female,2020-11-22_08h47.05.753,torte-2b,2020.1.3,Win32,60,13348,0.15414,,,,,0,115,115,89,1,,,,,,,,,,,,,,,,,,,,,,,,,,,,,,,,,,,,,,,,,,,,,,,,,,,,,,,,
,,,,,,,,,,,,l,Incorrect,,,,,,t2.png,t1.png,1,0.90025,19,female,2020-11-22_08h47.05.753,torte-2b,2020.1.3,Win32,60,13348,0.005685,,,,,0,116,116,19,1,,,,,,,,,,,,,,,,,,,,,,,,,,,,,,,,,,,,,,,,,,,,,,,,,,,,,,,,
,,,,,,,,,,,,l,Incorrect,,,,,,t4.png,t4.png,0,0.98115,19,female,2020-11-22_08h47.05.753,torte-2b,2020.1.3,Win32,60,13348,0.44657,,,,,0,117,117,21,1,,,,,,,,,,,,,,,,,,,,,,,,,,,,,,,,,,,,,,,,,,,,,,,,,,,,,,,,
,,,,,,,,,,,,l,Incorrect,,,,,,t4.png,t5.png,1,0.90025,19,female,2020-11-22_08h47.05.753,torte-2b,2020.1.3,Win32,60,13348,0.23467,,,,,0,118,118,113,1,,,,,,,,,,,,,,,,,,,,,,,,,,,,,,,,,,,,,,,,,,,,,,,,,,,,,,,,
,,,,,,,,,,,,l,Correct!,,,,,,t3.png,t2.png,1,0.90855,19,female,2020-11-22_08h47.05.753,torte-2b,2020.1.3,Win32,60,13348,0.276765,,,,,0,119,119,97,1,,,,,,,,,,,,,,,,,,,,,,,,,,,,,,,,,,,,,,,,,,,,,,,,,,,,,,,,
,,,,,,,,,,,,,,,,,,,,,,,19,female,2020-11-22_08h47.05.753,torte-2b,2020.1.3,Win32,60,13348,,l,1.21959,,,,,,,,space,40.39653,,0,0,0,0,1,6,,,,,,,,,,,,,,,,,,,,,,,,,,,,,,,,,,,,,,,,,,,,,,,
,,,,,,,,,,,,,,,,,,,,,,,19,female,2020-11-22_08h47.05.753,torte-2b,2020.1.3,Win32,60,13348,,,,,,,,,,,,,,0,1,1,1,1,7,,,,,,,,,,,,,,,,,,,,,,,,,,,,,,,,,,,,,,,,,,,,,,,
,,,,,,,,,,,,,,,,,,,,,,,19,female,2020-11-22_08h47.05.753,torte-2b,2020.1.3,Win32,60,13348,,,,,,,,,,,,,space,0,2,2,2,1,6,0.34901,,,,,,,,,,,,,,,,,,,,,,,,,,,,,,,,,,,,,,,,,,,,,,
,,,,,,,,,,,,,,,,,,,,,,,19,female,2020-11-22_08h47.05.753,torte-2b,2020.1.3,Win32,60,13348,,,,,,,,,,,,,space,0,3,3,3,1,7,0.460575,,,,,,,,,,,,,,,,,,,,,,,,,,,,,,,,,,,,,,,,,,,,,,
,,,,,,,,,,,,,,,,,,,,,,,19,female,2020-11-22_08h47.05.753,torte-2b,2020.1.3,Win32,60,13348,,,,,,,,,,,,,,0,4,4,4,1,5,,,,,,,,,,,,,,,,,,,,,,,,,,,,,,,,,,,,,,,,,,,,,,,
,,,,,,,,,,,,,,,,,,,,,,,19,female,2020-11-22_08h47.05.753,torte-2b,2020.1.3,Win32,60,13348,,,,,,,,,,,,,space,0,5,5,5,1,7,0.40409,,,,,,,,,,,,,,,,,,,,,,,,,,,,,,,,,,,,,,,,,,,,,,
,,,,,,,,,,,,,,,,,,,,,,,19,female,2020-11-22_08h47.05.753,torte-2b,2020.1.3,Win32,60,13348,,,,,,,,,,,,,,0,6,6,6,1,2,,,,,,,,,,,,,,,,,,,,,,,,,,,,,,,,,,,,,,,,,,,,,,,
,,,,,,,,,,,,,,,,,,,,,,,19,female,2020-11-22_08h47.05.753,torte-2b,2020.1.3,Win32,60,13348,,,,,,,,,,,,,,0,7,7,7,1,4,,,,,,,,,,,,,,,,,,,,,,,,,,,,,,,,,,,,,,,,,,,,,,,
,,,,,,,,,,,,,,,,,,,,,,,19,female,2020-11-22_08h47.05.753,torte-2b,2020.1.3,Win32,60,13348,,,,,,,,,,,,,space,0,8,8,8,1,7,0.59088,,,,,,,,,,,,,,,,,,,,,,,,,,,,,,,,,,,,,,,,,,,,,,
,,,,,,,,,,,,,,,,,,,,,,,19,female,2020-11-22_08h47.05.753,torte-2b,2020.1.3,Win32,60,13348,,,,,,,,,,,,,space,0,9,9,9,1,4,0.35328,,,,,,,,,,,,,,,,,,,,,,,,,,,,,,,,,,,,,,,,,,,,,,
,,,,,,,,,,,,,,,,,,,,,,,19,female,2020-11-22_08h47.05.753,torte-2b,2020.1.3,Win32,60,13348,,,,,,,,,,,,,space,0,10,10,10,1,7,0.42806,,,,,,,,,,,,,,,,,,,,,,,,,,,,,,,,,,,,,,,,,,,,,,
,,,,,,,,,,,,,,,,,,,,,,,19,female,2020-11-22_08h47.05.753,torte-2b,2020.1.3,Win32,60,13348,,,,,,,,,,,,,space,0,11,11,11,1,7,0.43807,,,,,,,,,,,,,,,,,,,,,,,,,,,,,,,,,,,,,,,,,,,,,,
,,,,,,,,,,,,,,,,,,,,,,,19,female,2020-11-22_08h47.05.753,torte-2b,2020.1.3,Win32,60,13348,,,,,,,,,,,,,,0,12,12,12,1,7,,,,,,,,,,,,,,,,,,,,,,,,,,,,,,,,,,,,,,,,,,,,,,,
,,,,,,,,,,,,,,,,,,,,,,,19,female,2020-11-22_08h47.05.753,torte-2b,2020.1.3,Win32,60,13348,,,,,,,,,,,,,space,0,13,13,13,1,4,0.31654,,,,,,,,,,,,,,,,,,,,,,,,,,,,,,,,,,,,,,,,,,,,,,
,,,,,,,,,,,,,,,,,,,,,,,19,female,2020-11-22_08h47.05.753,torte-2b,2020.1.3,Win32,60,13348,,,,,,,,,,,,,,0,14,14,14,1,6,,,,,,,,,,,,,,,,,,,,,,,,,,,,,,,,,,,,,,,,,,,,,,,
,,,,,,,,,,,,,,,,,,,,,,,19,female,2020-11-22_08h47.05.753,torte-2b,2020.1.3,Win32,60,13348,,,,,,,,,,,,,space,0,15,15,15,1,4,0.358755,,,,,,,,,,,,,,,,,,,,,,,,,,,,,,,,,,,,,,,,,,,,,,
,,,,,,,,,,,,,,,,,,,,,,,19,female,2020-11-22_08h47.05.753,torte-2b,2020.1.3,Win32,60,13348,,,,,,,,,,,,,space,0,16,16,16,1,6,0.515275,,,,,,,,,,,,,,,,,,,,,,,,,,,,,,,,,,,,,,,,,,,,,,
,,,,,,,,,,,,,,,,,,,,,,,19,female,2020-11-22_08h47.05.753,torte-2b,2020.1.3,Win32,60,13348,,,,,,,,,,,,,,0,17,17,17,1,7,,,,,,,,,,,,,,,,,,,,,,,,,,,,,,,,,,,,,,,,,,,,,,,
,,,,,,,,,,,,,,,,,,,,,,,19,female,2020-11-22_08h47.05.753,torte-2b,2020.1.3,Win32,60,13348,,,,,,,,,,,,,space,0,18,18,18,1,6,0.349815,,,,,,,,,,,,,,,,,,,,,,,,,,,,,,,,,,,,,,,,,,,,,,
,,,,,,,,,,,,,,,,,,,,,,,19,female,2020-11-22_08h47.05.753,torte-2b,2020.1.3,Win32,60,13348,,,,,,,,,,,,,space,0,19,19,19,1,7,0.50291,,,,,,,,,,,,,,,,,,,,,,,,,,,,,,,,,,,,,,,,,,,,,,
,,,,,,,,,,,,,,,,,,,,,,,19,female,2020-11-22_08h47.05.753,torte-2b,2020.1.3,Win32,60,13348,,,,,,,,,,,,,,0,20,20,20,1,5,,,,,,,,,,,,,,,,,,,,,,,,,,,,,,,,,,,,,,,,,,,,,,,
,,,,,,,,,,,,,,,,,,,,,,,19,female,2020-11-22_08h47.05.753,torte-2b,2020.1.3,Win32,60,13348,,,,,,,,,,,,,,0,21,21,21,1,1,,,,,,,,,,,,,,,,,,,,,,,,,,,,,,,,,,,,,,,,,,,,,,,
,,,,,,,,,,,,,,,,,,,,,,,19,female,2020-11-22_08h47.05.753,torte-2b,2020.1.3,Win32,60,13348,,,,,,,,,,,,,,0,22,22,22,1,6,,,,,,,,,,,,,,,,,,,,,,,,,,,,,,,,,,,,,,,,,,,,,,,
,,,,,,,,,,,,,,,,,,,,,,,19,female,2020-11-22_08h47.05.753,torte-2b,2020.1.3,Win32,60,13348,,,,,,,,,,,,,space,0,23,23,23,1,1,0.54102,,,,,,,,,,,,,,,,,,,,,,,,,,,,,,,,,,,,,,,,,,,,,,
,,,,,,,,,,,,,,,,,,,,,,,19,female,2020-11-22_08h47.05.753,torte-2b,2020.1.3,Win32,60,13348,,,,,,,,,,,,,,0,24,24,24,1,5,,,,,,,,,,,,,,,,,,,,,,,,,,,,,,,,,,,,,,,,,,,,,,,
,,,,,,,,,,,,,,,,,,,,,,,19,female,2020-11-22_08h47.05.753,torte-2b,2020.1.3,Win32,60,13348,,,,,,,,,,,,,space,0,25,25,25,1,6,0.682605,,,,,,,,,,,,,,,,,,,,,,,,,,,,,,,,,,,,,,,,,,,,,,
,,,,,,,,,,,,,,,,,,,,,,,19,female,2020-11-22_08h47.05.753,torte-2b,2020.1.3,Win32,60,13348,,,,,,,,,,,,,space,0,26,26,26,1,6,0.7561,,,,,,,,,,,,,,,,,,,,,,,,,,,,,,,,,,,,,,,,,,,,,,
,,,,,,,,,,,,,,,,,,,,,,,19,female,2020-11-22_08h47.05.753,torte-2b,2020.1.3,Win32,60,13348,,,,,,,,,,,,,,0,27,27,27,1,6,,,,,,,,,,,,,,,,,,,,,,,,,,,,,,,,,,,,,,,,,,,,,,,
,,,,,,,,,,,,,,,,,,,,,,,19,female,2020-11-22_08h47.05.753,torte-2b,2020.1.3,Win32,60,13348,,,,,,,,,,,,,,0,28,28,28,1,5,,,,,,,,,,,,,,,,,,,,,,,,,,,,,,,,,,,,,,,,,,,,,,,
,,,,,,,,,,,,,,,,,,,,,,,19,female,2020-11-22_08h47.05.753,torte-2b,2020.1.3,Win32,60,13348,,,,,,,,,,,,,,0,29,29,29,1,2,,,,,,,,,,,,,,,,,,,,,,,,,,,,,,,,,,,,,,,,,,,,,,,
,,,,,,,,,,,,,,,,,,,,,,,19,female,2020-11-22_08h47.05.753,torte-2b,2020.1.3,Win32,60,13348,,,,,,,,,,,,,space,0,30,30,30,1,5,0.385895,,,,,,,,,,,,,,,,,,,,,,,,,,,,,,,,,,,,,,,,,,,,,,
,,,,,,,,,,,,,,,,,,,,,,,19,female,2020-11-22_08h47.05.753,torte-2b,2020.1.3,Win32,60,13348,,,,,,,,,,,,,space,0,31,31,31,1,2,0.53014,,,,,,,,,,,,,,,,,,,,,,,,,,,,,,,,,,,,,,,,,,,,,,
,,,,,,,,,,,,,,,,,,,,,,,19,female,2020-11-22_08h47.05.753,torte-2b,2020.1.3,Win32,60,13348,,,,,,,,,,,,,space,0,32,32,32,1,5,0.858985,,,,,,,,,,,,,,,,,,,,,,,,,,,,,,,,,,,,,,,,,,,,,,
,,,,,,,,,,,,,,,,,,,,,,,19,female,2020-11-22_08h47.05.753,torte-2b,2020.1.3,Win32,60,13348,,,,,,,,,,,,,,0,33,33,33,1,1,,,,,,,,,,,,,,,,,,,,,,,,,,,,,,,,,,,,,,,,,,,,,,,
,,,,,,,,,,,,,,,,,,,,,,,19,female,2020-11-22_08h47.05.753,torte-2b,2020.1.3,Win32,60,13348,,,,,,,,,,,,,space,0,34,34,34,1,1,0.51616,,,,,,,,,,,,,,,,,,,,,,,,,,,,,,,,,,,,,,,,,,,,,,
,,,,,,,,,,,,,,,,,,,,,,,19,female,2020-11-22_08h47.05.753,torte-2b,2020.1.3,Win32,60,13348,,,,,,,,,,,,,,,,,,,2,,0,0,0,0,1,,,,,,,,,,,,,,,,,,,,,,,,,,,,,,,,,,,,,,,,,
,,,,,,,,,,,,,,,,,,,,,,,19,female,2020-11-22_08h47.05.753,torte-2b,2020.1.3,Win32,60,13348,,,,,,,,,,,,,,,,,,,2,,0,1,1,1,1,,,,,,,,,,,,,,,,,,,,,,,,,,,,,,,,,,,,,,,,,
,,,,,,,,,,,,,,,,,,,,,,,19,female,2020-11-22_08h47.05.753,torte-2b,2020.1.3,Win32,60,13348,,,,,,,,,,,,,,,,,,,6,,0,2,2,2,1,,,,,,,,,,,,,,,,,,,,,,,,,,,,,,,,,,,,,,,,,
,,,,,,,,,,,,,,,,,,,,,,,19,female,2020-11-22_08h47.05.753,torte-2b,2020.1.3,Win32,60,13348,,,,,,,,,,,,,space,,,,,,2,0.30851,0,3,3,3,1,,,,,,,,,,,,,,,,,,,,,,,,,,,,,,,,,,,,,,,,,
,,,,,,,,,,,,,,,,,,,,,,,19,female,2020-11-22_08h47.05.753,torte-2b,2020.1.3,Win32,60,13348,,,,,,,,,,,,,space,,,,,,6,1.35506,0,4,4,4,1,,,,,,,,,,,,,,,,,,,,,,,,,,,,,,,,,,,,,,,,,
,,,,,,,,,,,,,,,,,,,,,,,19,female,2020-11-22_08h47.05.753,torte-2b,2020.1.3,Win32,60,13348,,,,,,,,,,,,,space,,,,,,2,0.78313,0,5,5,5,1,,,,,,,,,,,,,,,,,,,,,,,,,,,,,,,,,,,,,,,,,
,,,,,,,,,,,,,,,,,,,,,,,19,female,2020-11-22_08h47.05.753,torte-2b,2020.1.3,Win32,60,13348,,,,,,,,,,,,,,,,,,,7,,0,6,6,6,1,,,,,,,,,,,,,,,,,,,,,,,,,,,,,,,,,,,,,,,,,
,,,,,,,,,,,,,,,,,,,,,,,19,female,2020-11-22_08h47.05.753,torte-2b,2020.1.3,Win32,60,13348,,,,,,,,,,,,,,,,,,,2,,0,7,7,7,1,,,,,,,,,,,,,,,,,,,,,,,,,,,,,,,,,,,,,,,,,
,,,,,,,,,,,,,,,,,,,,,,,19,female,2020-11-22_08h47.05.753,torte-2b,2020.1.3,Win32,60,13348,,,,,,,,,,,,,space,,,,,,7,0.65183,0,8,8,8,1,,,,,,,,,,,,,,,,,,,,,,,,,,,,,,,,,,,,,,,,,
,,,,,,,,,,,,,,,,,,,,,,,19,female,2020-11-22_08h47.05.753,torte-2b,2020.1.3,Win32,60,13348,,,,,,,,,,,,,,,,,,,2,,0,9,9,9,1,,,,,,,,,,,,,,,,,,,,,,,,,,,,,,,,,,,,,,,,,
,,,,,,,,,,,,,,,,,,,,,,,19,female,2020-11-22_08h47.05.753,torte-2b,2020.1.3,Win32,60,13348,,,,,,,,,,,,,,,,,,,5,,0,10,10,10,1,,,,,,,,,,,,,,,,,,,,,,,,,,,,,,,,,,,,,,,,,
,,,,,,,,,,,,,,,,,,,,,,,19,female,2020-11-22_08h47.05.753,torte-2b,2020.1.3,Win32,60,13348,,,,,,,,,,,,,,,,,,,4,,0,11,11,11,1,,,,,,,,,,,,,,,,,,,,,,,,,,,,,,,,,,,,,,,,,
,,,,,,,,,,,,,,,,,,,,,,,19,female,2020-11-22_08h47.05.753,torte-2b,2020.1.3,Win32,60,13348,,,,,,,,,,,,,space,,,,,,5,0.316875,0,12,12,12,1,,,,,,,,,,,,,,,,,,,,,,,,,,,,,,,,,,,,,,,,,
,,,,,,,,,,,,,,,,,,,,,,,19,female,2020-11-22_08h47.05.753,torte-2b,2020.1.3,Win32,60,13348,,,,,,,,,,,,,,,,,,,6,,0,13,13,13,1,,,,,,,,,,,,,,,,,,,,,,,,,,,,,,,,,,,,,,,,,
,,,,,,,,,,,,,,,,,,,,,,,19,female,2020-11-22_08h47.05.753,torte-2b,2020.1.3,Win32,60,13348,,,,,,,,,,,,,space,,,,,,5,0.44056,0,14,14,14,1,,,,,,,,,,,,,,,,,,,,,,,,,,,,,,,,,,,,,,,,,
,,,,,,,,,,,,,,,,,,,,,,,19,female,2020-11-22_08h47.05.753,torte-2b,2020.1.3,Win32,60,13348,,,,,,,,,,,,,,,,,,,4,,0,15,15,15,1,,,,,,,,,,,,,,,,,,,,,,,,,,,,,,,,,,,,,,,,,
,,,,,,,,,,,,,,,,,,,,,,,19,female,2020-11-22_08h47.05.753,torte-2b,2020.1.3,Win32,60,13348,,,,,,,,,,,,,space,,,,,,5,0.47307,0,16,16,16,1,,,,,,,,,,,,,,,,,,,,,,,,,,,,,,,,,,,,,,,,,
,,,,,,,,,,,,,,,,,,,,,,,19,female,2020-11-22_08h47.05.753,torte-2b,2020.1.3,Win32,60,13348,,,,,,,,,,,,,,,,,,,3,,0,17,17,17,1,,,,,,,,,,,,,,,,,,,,,,,,,,,,,,,,,,,,,,,,,
,,,,,,,,,,,,,,,,,,,,,,,19,female,2020-11-22_08h47.05.753,torte-2b,2020.1.3,Win32,60,13348,,,,,,,,,,,,,,,,,,,6,,0,18,18,18,1,,,,,,,,,,,,,,,,,,,,,,,,,,,,,,,,,,,,,,,,,
,,,,,,,,,,,,,,,,,,,,,,,19,female,2020-11-22_08h47.05.753,torte-2b,2020.1.3,Win32,60,13348,,,,,,,,,,,,,space,,,,,,6,0.368895,0,19,19,19,1,,,,,,,,,,,,,,,,,,,,,,,,,,,,,,,,,,,,,,,,,
,,,,,,,,,,,,,,,,,,,,,,,19,female,2020-11-22_08h47.05.753,torte-2b,2020.1.3,Win32,60,13348,,,,,,,,,,,,,,,,,,,6,,0,20,20,20,1,,,,,,,,,,,,,,,,,,,,,,,,,,,,,,,,,,,,,,,,,
,,,,,,,,,,,,,,,,,,,,,,,19,female,2020-11-22_08h47.05.753,torte-2b,2020.1.3,Win32,60,13348,,,,,,,,,,,,,,,,,,,4,,0,21,21,21,1,,,,,,,,,,,,,,,,,,,,,,,,,,,,,,,,,,,,,,,,,
,,,,,,,,,,,,,,,,,,,,,,,19,female,2020-11-22_08h47.05.753,torte-2b,2020.1.3,Win32,60,13348,,,,,,,,,,,,,space,,,,,,6,0.33623,0,22,22,22,1,,,,,,,,,,,,,,,,,,,,,,,,,,,,,,,,,,,,,,,,,
,,,,,,,,,,,,,,,,,,,,,,,19,female,2020-11-22_08h47.05.753,torte-2b,2020.1.3,Win32,60,13348,,,,,,,,,,,,,space,,,,,,4,0.46704,0,23,23,23,1,,,,,,,,,,,,,,,,,,,,,,,,,,,,,,,,,,,,,,,,,
,,,,,,,,,,,,,,,,,,,,,,,19,female,2020-11-22_08h47.05.753,torte-2b,2020.1.3,Win32,60,13348,,,,,,,,,,,,,,,,,,,6,,0,24,24,24,1,,,,,,,,,,,,,,,,,,,,,,,,,,,,,,,,,,,,,,,,,
,,,,,,,,,,,,,,,,,,,,,,,19,female,2020-11-22_08h47.05.753,torte-2b,2020.1.3,Win32,60,13348,,,,,,,,,,,,,space,,,,,,6,0.292605,0,25,25,25,1,,,,,,,,,,,,,,,,,,,,,,,,,,,,,,,,,,,,,,,,,
,,,,,,,,,,,,,,,,,,,,,,,19,female,2020-11-22_08h47.05.753,torte-2b,2020.1.3,Win32,60,13348,,,,,,,,,,,,,,,,,,,7,,0,26,26,26,1,,,,,,,,,,,,,,,,,,,,,,,,,,,,,,,,,,,,,,,,,
,,,,,,,,,,,,,,,,,,,,,,,19,female,2020-11-22_08h47.05.753,torte-2b,2020.1.3,Win32,60,13348,,,,,,,,,,,,,,,,,,,1,,0,27,27,27,1,,,,,,,,,,,,,,,,,,,,,,,,,,,,,,,,,,,,,,,,,
,,,,,,,,,,,,,,,,,,,,,,,19,female,2020-11-22_08h47.05.753,torte-2b,2020.1.3,Win32,60,13348,,,,,,,,,,,,,space,,,,,,7,0.266395,0,28,28,28,1,,,,,,,,,,,,,,,,,,,,,,,,,,,,,,,,,,,,,,,,,
,,,,,,,,,,,,,,,,,,,,,,,19,female,2020-11-22_08h47.05.753,torte-2b,2020.1.3,Win32,60,13348,,,,,,,,,,,,,,,,,,,4,,0,29,29,29,1,,,,,,,,,,,,,,,,,,,,,,,,,,,,,,,,,,,,,,,,,
,,,,,,,,,,,,,,,,,,,,,,,19,female,2020-11-22_08h47.05.753,torte-2b,2020.1.3,Win32,60,13348,,,,,,,,,,,,,,,,,,,7,,0,30,30,30,1,,,,,,,,,,,,,,,,,,,,,,,,,,,,,,,,,,,,,,,,,
,,,,,,,,,,,,,,,,,,,,,,,19,female,2020-11-22_08h47.05.753,torte-2b,2020.1.3,Win32,60,13348,,,,,,,,,,,,,,,,,,,3,,0,31,31,31,1,,,,,,,,,,,,,,,,,,,,,,,,,,,,,,,,,,,,,,,,,
,,,,,,,,,,,,,,,,,,,,,,,19,female,2020-11-22_08h47.05.753,torte-2b,2020.1.3,Win32,60,13348,,,,,,,,,,,,,,,,,,,2,,0,32,32,32,1,,,,,,,,,,,,,,,,,,,,,,,,,,,,,,,,,,,,,,,,,
,,,,,,,,,,,,,,,,,,,,,,,19,female,2020-11-22_08h47.05.753,torte-2b,2020.1.3,Win32,60,13348,,,,,,,,,,,,,,,,,,,6,,0,33,33,33,1,,,,,,,,,,,,,,,,,,,,,,,,,,,,,,,,,,,,,,,,,
,,,,,,,,,,,,,,,,,,,,,,,19,female,2020-11-22_08h47.05.753,torte-2b,2020.1.3,Win32,60,13348,,,,,,,,,,,,,,,,,,,3,,0,34,34,34,1,,,,,,,,,,,,,,,,,,,,,,,,,,,,,,,,,,,,,,,,,
,,,,,,,,,,,,,,,,,,,,,,,19,female,2020-11-22_08h47.05.753,torte-2b,2020.1.3,Win32,60,13348,,,,,,,,,,,,,,,,,,,7,,,,,,,0,0,0,0,1,,,,,,,,,,,,,,,,,,,,,,,,,,,,,,,,,,,,
,,,,,,,,,,,,,,,,,,,,,,,19,female,2020-11-22_08h47.05.753,torte-2b,2020.1.3,Win32,60,13348,,,,,,,,,,,,,,,,,,,5,,,,,,,0,1,1,1,1,,,,,,,,,,,,,,,,,,,,,,,,,,,,,,,,,,,,
,,,,,,,,,,,,,,,,,,,,,,,19,female,2020-11-22_08h47.05.753,torte-2b,2020.1.3,Win32,60,13348,,,,,,,,,,,,,,,,,,,4,,,,,,,0,2,2,2,1,,,,,,,,,,,,,,,,,,,,,,,,,,,,,,,,,,,,
,,,,,,,,,,,,,,,,,,,,,,,19,female,2020-11-22_08h47.05.753,torte-2b,2020.1.3,Win32,60,13348,,,,,,,,,,,,,space,,,,,,5,0.337045,,,,,,0,3,3,3,1,,,,,,,,,,,,,,,,,,,,,,,,,,,,,,,,,,,,
,,,,,,,,,,,,,,,,,,,,,,,19,female,2020-11-22_08h47.05.753,torte-2b,2020.1.3,Win32,60,13348,,,,,,,,,,,,,,,,,,,6,,,,,,,0,4,4,4,1,,,,,,,,,,,,,,,,,,,,,,,,,,,,,,,,,,,,
,,,,,,,,,,,,,,,,,,,,,,,19,female,2020-11-22_08h47.05.753,torte-2b,2020.1.3,Win32,60,13348,,,,,,,,,,,,,space,,,,,,5,0.33542,,,,,,0,5,5,5,1,,,,,,,,,,,,,,,,,,,,,,,,,,,,,,,,,,,,
,,,,,,,,,,,,,,,,,,,,,,,19,female,2020-11-22_08h47.05.753,torte-2b,2020.1.3,Win32,60,13348,,,,,,,,,,,,,,,,,,,3,,,,,,,0,6,6,6,1,,,,,,,,,,,,,,,,,,,,,,,,,,,,,,,,,,,,
,,,,,,,,,,,,,,,,,,,,,,,19,female,2020-11-22_08h47.05.753,torte-2b,2020.1.3,Win32,60,13348,,,,,,,,,,,,,,,,,,,4,,,,,,,0,7,7,7,1,,,,,,,,,,,,,,,,,,,,,,,,,,,,,,,,,,,,
,,,,,,,,,,,,,,,,,,,,,,,19,female,2020-11-22_08h47.05.753,torte-2b,2020.1.3,Win32,60,13348,,,,,,,,,,,,,space,,,,,,3,0.369505,,,,,,0,8,8,8,1,,,,,,,,,,,,,,,,,,,,,,,,,,,,,,,,,,,,
,,,,,,,,,,,,,,,,,,,,,,,19,female,2020-11-22_08h47.05.753,torte-2b,2020.1.3,Win32,60,13348,,,,,,,,,,,,,,,,,,,1,,,,,,,0,9,9,9,1,,,,,,,,,,,,,,,,,,,,,,,,,,,,,,,,,,,,
,,,,,,,,,,,,,,,,,,,,,,,19,female,2020-11-22_08h47.05.753,torte-2b,2020.1.3,Win32,60,13348,,,,,,,,,,,,,,,,,,,2,,,,,,,0,10,10,10,1,,,,,,,,,,,,,,,,,,,,,,,,,,,,,,,,,,,,
,,,,,,,,,,,,,,,,,,,,,,,19,female,2020-11-22_08h47.05.753,torte-2b,2020.1.3,Win32,60,13348,,,,,,,,,,,,,space,,,,,,1,0.503465,,,,,,0,11,11,11,1,,,,,,,,,,,,,,,,,,,,,,,,,,,,,,,,,,,,
,,,,,,,,,,,,,,,,,,,,,,,19,female,2020-11-22_08h47.05.753,torte-2b,2020.1.3,Win32,60,13348,,,,,,,,,,,,,,,,,,,2,,,,,,,0,12,12,12,1,,,,,,,,,,,,,,,,,,,,,,,,,,,,,,,,,,,,
,,,,,,,,,,,,,,,,,,,,,,,19,female,2020-11-22_08h47.05.753,torte-2b,2020.1.3,Win32,60,13348,,,,,,,,,,,,,space,,,,,,1,0.906465,,,,,,0,13,13,13,1,,,,,,,,,,,,,,,,,,,,,,,,,,,,,,,,,,,,
,,,,,,,,,,,,,,,,,,,,,,,19,female,2020-11-22_08h47.05.753,torte-2b,2020.1.3,Win32,60,13348,,,,,,,,,,,,,,,,,,,3,,,,,,,0,14,14,14,1,,,,,,,,,,,,,,,,,,,,,,,,,,,,,,,,,,,,
,,,,,,,,,,,,,,,,,,,,,,,19,female,2020-11-22_08h47.05.753,torte-2b,2020.1.3,Win32,60,13348,,,,,,,,,,,,,space,,,,,,1,0.20091,,,,,,0,15,15,15,1,,,,,,,,,,,,,,,,,,,,,,,,,,,,,,,,,,,,
,,,,,,,,,,,,,,,,,,,,,,,19,female,2020-11-22_08h47.05.753,torte-2b,2020.1.3,Win32,60,13348,,,,,,,,,,,,,,,,,,,7,,,,,,,0,16,16,16,1,,,,,,,,,,,,,,,,,,,,,,,,,,,,,,,,,,,,
,,,,,,,,,,,,,,,,,,,,,,,19,female,2020-11-22_08h47.05.753,torte-2b,2020.1.3,Win32,60,13348,,,,,,,,,,,,,space,,,,,,7,0.984155,,,,,,0,17,17,17,1,,,,,,,,,,,,,,,,,,,,,,,,,,,,,,,,,,,,
,,,,,,,,,,,,,,,,,,,,,,,19,female,2020-11-22_08h47.05.753,torte-2b,2020.1.3,Win32,60,13348,,,,,,,,,,,,,,,,,,,4,,,,,,,0,18,18,18,1,,,,,,,,,,,,,,,,,,,,,,,,,,,,,,,,,,,,
,,,,,,,,,,,,,,,,,,,,,,,19,female,2020-11-22_08h47.05.753,torte-2b,2020.1.3,Win32,60,13348,,,,,,,,,,,,,,,,,,,7,,,,,,,0,19,19,19,1,,,,,,,,,,,,,,,,,,,,,,,,,,,,,,,,,,,,
,,,,,,,,,,,,,,,,,,,,,,,19,female,2020-11-22_08h47.05.753,torte-2b,2020.1.3,Win32,60,13348,,,,,,,,,,,,,,,,,,,3,,,,,,,0,20,20,20,1,,,,,,,,,,,,,,,,,,,,,,,,,,,,,,,,,,,,
,,,,,,,,,,,,,,,,,,,,,,,19,female,2020-11-22_08h47.05.753,torte-2b,2020.1.3,Win32,60,13348,,,,,,,,,,,,,space,,,,,,7,0.80217,,,,,,0,21,21,21,1,,,,,,,,,,,,,,,,,,,,,,,,,,,,,,,,,,,,
,,,,,,,,,,,,,,,,,,,,,,,19,female,2020-11-22_08h47.05.753,torte-2b,2020.1.3,Win32,60,13348,,,,,,,,,,,,,,,,,,,3,,,,,,,0,22,22,22,1,,,,,,,,,,,,,,,,,,,,,,,,,,,,,,,,,,,,
,,,,,,,,,,,,,,,,,,,,,,,19,female,2020-11-22_08h47.05.753,torte-2b,2020.1.3,Win32,60,13348,,,,,,,,,,,,,,,,,,,1,,,,,,,0,23,23,23,1,,,,,,,,,,,,,,,,,,,,,,,,,,,,,,,,,,,,
,,,,,,,,,,,,,,,,,,,,,,,19,female,2020-11-22_08h47.05.753,torte-2b,2020.1.3,Win32,60,13348,,,,,,,,,,,,,,,,,,,6,,,,,,,0,24,24,24,1,,,,,,,,,,,,,,,,,,,,,,,,,,,,,,,,,,,,
,,,,,,,,,,,,,,,,,,,,,,,19,female,2020-11-22_08h47.05.753,torte-2b,2020.1.3,Win32,60,13348,,,,,,,,,,,,,space,,,,,,3,0.483705,,,,,,0,25,25,25,1,,,,,,,,,,,,,,,,,,,,,,,,,,,,,,,,,,,,
,,,,,,,,,,,,,,,,,,,,,,,19,female,2020-11-22_08h47.05.753,torte-2b,2020.1.3,Win32,60,13348,,,,,,,,,,,,,,,,,,,2,,,,,,,0,26,26,26,1,,,,,,,,,,,,,,,,,,,,,,,,,,,,,,,,,,,,
,,,,,,,,,,,,,,,,,,,,,,,19,female,2020-11-22_08h47.05.753,torte-2b,2020.1.3,Win32,60,13348,,,,,,,,,,,,,,,,,,,3,,,,,,,0,27,27,27,1,,,,,,,,,,,,,,,,,,,,,,,,,,,,,,,,,,,,
,,,,,,,,,,,,,,,,,,,,,,,19,female,2020-11-22_08h47.05.753,torte-2b,2020.1.3,Win32,60,13348,,,,,,,,,,,,,,,,,,,1,,,,,,,0,28,28,28,1,,,,,,,,,,,,,,,,,,,,,,,,,,,,,,,,,,,,
,,,,,,,,,,,,,,,,,,,,,,,19,female,2020-11-22_08h47.05.753,torte-2b,2020.1.3,Win32,60,13348,,,,,,,,,,,,,space,,,,,,3,0.35184,,,,,,0,29,29,29,1,,,,,,,,,,,,,,,,,,,,,,,,,,,,,,,,,,,,
,,,,,,,,,,,,,,,,,,,,,,,19,female,2020-11-22_08h47.05.753,torte-2b,2020.1.3,Win32,60,13348,,,,,,,,,,,,,space,,,,,,1,0.951805,,,,,,0,30,30,30,1,,,,,,,,,,,,,,,,,,,,,,,,,,,,,,,,,,,,
,,,,,,,,,,,,,,,,,,,,,,,19,female,2020-11-22_08h47.05.753,torte-2b,2020.1.3,Win32,60,13348,,,,,,,,,,,,,,,,,,,7,,,,,,,0,31,31,31,1,,,,,,,,,,,,,,,,,,,,,,,,,,,,,,,,,,,,
,,,,,,,,,,,,,,,,,,,,,,,19,female,2020-11-22_08h47.05.753,torte-2b,2020.1.3,Win32,60,13348,,,,,,,,,,,,,,,,,,,5,,,,,,,0,32,32,32,1,,,,,,,,,,,,,,,,,,,,,,,,,,,,,,,,,,,,
,,,,,,,,,,,,,,,,,,,,,,,19,female,2020-11-22_08h47.05.753,torte-2b,2020.1.3,Win32,60,13348,,,,,,,,,,,,,space,,,,,,7,0.70349,,,,,,0,33,33,33,1,,,,,,,,,,,,,,,,,,,,,,,,,,,,,,,,,,,,
,,,,,,,,,,,,,,,,,,,,,,,19,female,2020-11-22_08h47.05.753,torte-2b,2020.1.3,Win32,60,13348,,,,,,,,,,,,,,,,,,,2,,,,,,,0,34,34,34,1,,,,,,,,,,,,,,,,,,,,,,,,,,,,,,,,,,,,
,,,,,,,,,,,,,,,,,,,,,,,19,female,2020-11-22_08h47.05.753,torte-2b,2020.1.3,Win32,60,13348,,,,,,,,,,,,,,,,,,,3,,,,,,,,,,,,0,0,0,0,1,,,,,,,,,,,,,,,,,,,,,,,,,,,,,,,
,,,,,,,,,,,,,,,,,,,,,,,19,female,2020-11-22_08h47.05.753,torte-2b,2020.1.3,Win32,60,13348,,,,,,,,,,,,,,,,,,,7,,,,,,,,,,,,0,1,1,1,1,,,,,,,,,,,,,,,,,,,,,,,,,,,,,,,
,,,,,,,,,,,,,,,,,,,,,,,19,female,2020-11-22_08h47.05.753,torte-2b,2020.1.3,Win32,60,13348,,,,,,,,,,,,,space,,,,,,7,0.58618,,,,,,,,,,,0,2,2,2,1,,,,,,,,,,,,,,,,,,,,,,,,,,,,,,,
,,,,,,,,,,,,,,,,,,,,,,,19,female,2020-11-22_08h47.05.753,torte-2b,2020.1.3,Win32,60,13348,,,,,,,,,,,,,,,,,,,4,,,,,,,,,,,,0,3,3,3,1,,,,,,,,,,,,,,,,,,,,,,,,,,,,,,,
,,,,,,,,,,,,,,,,,,,,,,,19,female,2020-11-22_08h47.05.753,torte-2b,2020.1.3,Win32,60,13348,,,,,,,,,,,,,,,,,,,5,,,,,,,,,,,,0,4,4,4,1,,,,,,,,,,,,,,,,,,,,,,,,,,,,,,,
,,,,,,,,,,,,,,,,,,,,,,,19,female,2020-11-22_08h47.05.753,torte-2b,2020.1.3,Win32,60,13348,,,,,,,,,,,,,space,,,,,,4,0.46576,,,,,,,,,,,0,5,5,5,1,,,,,,,,,,,,,,,,,,,,,,,,,,,,,,,
,,,,,,,,,,,,,,,,,,,,,,,19,female,2020-11-22_08h47.05.753,torte-2b,2020.1.3,Win32,60,13348,,,,,,,,,,,,,,,,,,,2,,,,,,,,,,,,0,6,6,6,1,,,,,,,,,,,,,,,,,,,,,,,,,,,,,,,
,,,,,,,,,,,,,,,,,,,,,,,19,female,2020-11-22_08h47.05.753,torte-2b,2020.1.3,Win32,60,13348,,,,,,,,,,,,,,,,,,,4,,,,,,,,,,,,0,7,7,7,1,,,,,,,,,,,,,,,,,,,,,,,,,,,,,,,
,,,,,,,,,,,,,,,,,,,,,,,19,female,2020-11-22_08h47.05.753,torte-2b,2020.1.3,Win32,60,13348,,,,,,,,,,,,,,,,,,,2,,,,,,,,,,,,0,8,8,8,1,,,,,,,,,,,,,,,,,,,,,,,,,,,,,,,
,,,,,,,,,,,,,,,,,,,,,,,19,female,2020-11-22_08h47.05.753,torte-2b,2020.1.3,Win32,60,13348,,,,,,,,,,,,,space,,,,,,2,0.519095,,,,,,,,,,,0,9,9,9,1,,,,,,,,,,,,,,,,,,,,,,,,,,,,,,,
,,,,,,,,,,,,,,,,,,,,,,,19,female,2020-11-22_08h47.05.753,torte-2b,2020.1.3,Win32,60,13348,,,,,,,,,,,,,,,,,,,6,,,,,,,,,,,,0,10,10,10,1,,,,,,,,,,,,,,,,,,,,,,,,,,,,,,,
,,,,,,,,,,,,,,,,,,,,,,,19,female,2020-11-22_08h47.05.753,torte-2b,2020.1.3,Win32,60,13348,,,,,,,,,,,,,space,,,,,,2,0.371045,,,,,,,,,,,0,11,11,11,1,,,,,,,,,,,,,,,,,,,,,,,,,,,,,,,
,,,,,,,,,,,,,,,,,,,,,,,19,female,2020-11-22_08h47.05.753,torte-2b,2020.1.3,Win32,60,13348,,,,,,,,,,,,,,,,,,,2,,,,,,,,,,,,0,12,12,12,1,,,,,,,,,,,,,,,,,,,,,,,,,,,,,,,
,,,,,,,,,,,,,,,,,,,,,,,19,female,2020-11-22_08h47.05.753,torte-2b,2020.1.3,Win32,60,13348,,,,,,,,,,,,,space,,,,,,2,0.39165,,,,,,,,,,,0,13,13,13,1,,,,,,,,,,,,,,,,,,,,,,,,,,,,,,,
,,,,,,,,,,,,,,,,,,,,,,,19,female,2020-11-22_08h47.05.753,torte-2b,2020.1.3,Win32,60,13348,,,,,,,,,,,,,,,,,,,2,,,,,,,,,,,,0,14,14,14,1,,,,,,,,,,,,,,,,,,,,,,,,,,,,,,,
,,,,,,,,,,,,,,,,,,,,,,,19,female,2020-11-22_08h47.05.753,torte-2b,2020.1.3,Win32,60,13348,,,,,,,,,,,,,,,,,,,4,,,,,,,,,,,,0,15,15,15,1,,,,,,,,,,,,,,,,,,,,,,,,,,,,,,,
,,,,,,,,,,,,,,,,,,,,,,,19,female,2020-11-22_08h47.05.753,torte-2b,2020.1.3,Win32,60,13348,,,,,,,,,,,,,,,,,,,3,,,,,,,,,,,,0,16,16,16,1,,,,,,,,,,,,,,,,,,,,,,,,,,,,,,,
,,,,,,,,,,,,,,,,,,,,,,,19,female,2020-11-22_08h47.05.753,torte-2b,2020.1.3,Win32,60,13348,,,,,,,,,,,,,,,,,,,7,,,,,,,,,,,,0,17,17,17,1,,,,,,,,,,,,,,,,,,,,,,,,,,,,,,,
,,,,,,,,,,,,,,,,,,,,,,,19,female,2020-11-22_08h47.05.753,torte-2b,2020.1.3,Win32,60,13348,,,,,,,,,,,,,,,,,,,4,,,,,,,,,,,,0,18,18,18,1,,,,,,,,,,,,,,,,,,,,,,,,,,,,,,,
,,,,,,,,,,,,,,,,,,,,,,,19,female,2020-11-22_08h47.05.753,torte-2b,2020.1.3,Win32,60,13348,,,,,,,,,,,,,space,,,,,,7,0.815265,,,,,,,,,,,0,19,19,19,1,,,,,,,,,,,,,,,,,,,,,,,,,,,,,,,
,,,,,,,,,,,,,,,,,,,,,,,19,female,2020-11-22_08h47.05.753,torte-2b,2020.1.3,Win32,60,13348,,,,,,,,,,,,,,,,,,,7,,,,,,,,,,,,0,20,20,20,1,,,,,,,,,,,,,,,,,,,,,,,,,,,,,,,
,,,,,,,,,,,,,,,,,,,,,,,19,female,2020-11-22_08h47.05.753,torte-2b,2020.1.3,Win32,60,13348,,,,,,,,,,,,,space,,,,,,7,0.43819,,,,,,,,,,,0,21,21,21,1,,,,,,,,,,,,,,,,,,,,,,,,,,,,,,,
,,,,,,,,,,,,,,,,,,,,,,,19,female,2020-11-22_08h47.05.753,torte-2b,2020.1.3,Win32,60,13348,,,,,,,,,,,,,space,,,,,,7,0.982735,,,,,,,,,,,0,22,22,22,1,,,,,,,,,,,,,,,,,,,,,,,,,,,,,,,
,,,,,,,,,,,,,,,,,,,,,,,19,female,2020-11-22_08h47.05.753,torte-2b,2020.1.3,Win32,60,13348,,,,,,,,,,,,,,,,,,,1,,,,,,,,,,,,0,23,23,23,1,,,,,,,,,,,,,,,,,,,,,,,,,,,,,,,
,,,,,,,,,,,,,,,,,,,,,,,19,female,2020-11-22_08h47.05.753,torte-2b,2020.1.3,Win32,60,13348,,,,,,,,,,,,,space,,,,,,7,0.416735,,,,,,,,,,,0,24,24,24,1,,,,,,,,,,,,,,,,,,,,,,,,,,,,,,,
,,,,,,,,,,,,,,,,,,,,,,,19,female,2020-11-22_08h47.05.753,torte-2b,2020.1.3,Win32,60,13348,,,,,,,,,,,,,space,,,,,,1,0.807735,,,,,,,,,,,0,25,25,25,1,,,,,,,,,,,,,,,,,,,,,,,,,,,,,,,
,,,,,,,,,,,,,,,,,,,,,,,19,female,2020-11-22_08h47.05.753,torte-2b,2020.1.3,Win32,60,13348,,,,,,,,,,,,,space,,,,,,7,1.44254,,,,,,,,,,,0,26,26,26,1,,,,,,,,,,,,,,,,,,,,,,,,,,,,,,,
,,,,,,,,,,,,,,,,,,,,,,,19,female,2020-11-22_08h47.05.753,torte-2b,2020.1.3,Win32,60,13348,,,,,,,,,,,,,,,,,,,2,,,,,,,,,,,,0,27,27,27,1,,,,,,,,,,,,,,,,,,,,,,,,,,,,,,,
,,,,,,,,,,,,,,,,,,,,,,,19,female,2020-11-22_08h47.05.753,torte-2b,2020.1.3,Win32,60,13348,,,,,,,,,,,,,,,,,,,5,,,,,,,,,,,,0,28,28,28,1,,,,,,,,,,,,,,,,,,,,,,,,,,,,,,,
,,,,,,,,,,,,,,,,,,,,,,,19,female,2020-11-22_08h47.05.753,torte-2b,2020.1.3,Win32,60,13348,,,,,,,,,,,,,space,,,,,,5,0.39176,,,,,,,,,,,0,29,29,29,1,,,,,,,,,,,,,,,,,,,,,,,,,,,,,,,
,,,,,,,,,,,,,,,,,,,,,,,19,female,2020-11-22_08h47.05.753,torte-2b,2020.1.3,Win32,60,13348,,,,,,,,,,,,,,,,,,,5,,,,,,,,,,,,0,30,30,30,1,,,,,,,,,,,,,,,,,,,,,,,,,,,,,,,
,,,,,,,,,,,,,,,,,,,,,,,19,female,2020-11-22_08h47.05.753,torte-2b,2020.1.3,Win32,60,13348,,,,,,,,,,,,,,,,,,,1,,,,,,,,,,,,0,31,31,31,1,,,,,,,,,,,,,,,,,,,,,,,,,,,,,,,
,,,,,,,,,,,,,,,,,,,,,,,19,female,2020-11-22_08h47.05.753,torte-2b,2020.1.3,Win32,60,13348,,,,,,,,,,,,,space,,,,,,5,0.584255,,,,,,,,,,,0,32,32,32,1,,,,,,,,,,,,,,,,,,,,,,,,,,,,,,,
,,,,,,,,,,,,,,,,,,,,,,,19,female,2020-11-22_08h47.05.753,torte-2b,2020.1.3,Win32,60,13348,,,,,,,,,,,,,,,,,,,3,,,,,,,,,,,,0,33,33,33,1,,,,,,,,,,,,,,,,,,,,,,,,,,,,,,,
,,,,,,,,,,,,,,,,,,,,,,,19,female,2020-11-22_08h47.05.753,torte-2b,2020.1.3,Win32,60,13348,,,,,,,,,,,,,space,,,,,,3,0.399595,,,,,,,,,,,0,34,34,34,1,,,,,,,,,,,,,,,,,,,,,,,,,,,,,,,
,,,,,,,,,,,,l,Incorrect,,,,,,t1.png,t1.png,0,0.978,19,female,2020-11-22_08h47.05.753,torte-2b,2020.1.3,Win32,60,13348,0.933375,space,0.941995,,,,,,,,,,,,,,,,,,,,,,,,,,,,,,,,,return,13.026565,0,0,0,28,1,,,,,,,,,,,,,,,,,,,,,,,,
,,,,,,,,,,,,a,Incorrect,,,,,,t4.png,t5.png,1,0.90025,19,female,2020-11-22_08h47.05.753,torte-2b,2020.1.3,Win32,60,13348,0.467865,,,,,,,,,,,,,,,,,,,,,,,,,,,,,,,,,,,,,0,1,1,113,1,,,,,,,,,,,,,,,,,,,,,,,,
,,,,,,,,,,,,a,Incorrect,,,,,,t3.png,t1.png,2,0.056466,19,female,2020-11-22_08h47.05.753,torte-2b,2020.1.3,Win32,60,13348,0.466995,,,,,,,,,,,,,,,,,,,,,,,,,,,,,,,,,,,,,0,2,2,32,1,,,,,,,,,,,,,,,,,,,,,,,,
,,,,,,,,,,,,l,Incorrect,,,,,,t2.png,t3.png,1,0.90855,19,female,2020-11-22_08h47.05.753,torte-2b,2020.1.3,Win32,60,13348,0.28481,,,,,,,,,,,,,,,,,,,,,,,,,,,,,,,,,,,,,0,3,3,68,1,,,,,,,,,,,,,,,,,,,,,,,,
,,,,,,,,,,,,l,Incorrect,,,,,,t2.png,t3.png,1,0.909,19,female,2020-11-22_08h47.05.753,torte-2b,2020.1.3,Win32,60,13348,0.41833,,,,,,,,,,,,,,,,,,,,,,,,,,,,,,,,,,,,,0,4,4,74,1,,,,,,,,,,,,,,,,,,,,,,,,
,,,,,,,,,,,,a,Correct!,,,,,,t1.png,t1.png,0,0.978,19,female,2020-11-22_08h47.05.753,torte-2b,2020.1.3,Win32,60,13348,0.625705,,,,,,,,,,,,,,,,,,,,,,,,,,,,,,,,,,,,,0,5,5,54,1,,,,,,,,,,,,,,,,,,,,,,,,
,,,,,,,,,,,,l,Correct!,,,,,,t5.png,t2.png,3,0.0000131,19,female,2020-11-22_08h47.05.753,torte-2b,2020.1.3,Win32,60,13348,0.315435,,,,,,,,,,,,,,,,,,,,,,,,,,,,,,,,,,,,,0,6,6,98,1,,,,,,,,,,,,,,,,,,,,,,,,
,,,,,,,,,,,,a,Incorrect,,,,,,t5.png,t1.png,4,9.55E-11,19,female,2020-11-22_08h47.05.753,torte-2b,2020.1.3,Win32,60,13348,0.356905,,,,,,,,,,,,,,,,,,,,,,,,,,,,,,,,,,,,,0,7,7,71,1,,,,,,,,,,,,,,,,,,,,,,,,
,,,,,,,,,,,,a,Correct!,,,,,,t4.png,t4.png,0,0.98115,19,female,2020-11-22_08h47.05.753,torte-2b,2020.1.3,Win32,60,13348,0.576655,,,,,,,,,,,,,,,,,,,,,,,,,,,,,,,,,,,,,0,8,8,52,1,,,,,,,,,,,,,,,,,,,,,,,,
,,,,,,,,,,,,l,Correct!,,,,,,t1.png,t3.png,2,0.056466,19,female,2020-11-22_08h47.05.753,torte-2b,2020.1.3,Win32,60,13348,0.343595,,,,,,,,,,,,,,,,,,,,,,,,,,,,,,,,,,,,,0,9,9,60,1,,,,,,,,,,,,,,,,,,,,,,,,
,,,,,,,,,,,,a,Correct!,,,,,,t5.png,t4.png,1,0.9,19,female,2020-11-22_08h47.05.753,torte-2b,2020.1.3,Win32,60,13348,0.368195,,,,,,,,,,,,,,,,,,,,,,,,,,,,,,,,,,,,,0,10,10,76,1,,,,,,,,,,,,,,,,,,,,,,,,
,,,,,,,,,,,,a,Incorrect,,,,,,t3.png,t1.png,2,0.056466,19,female,2020-11-22_08h47.05.753,torte-2b,2020.1.3,Win32,60,13348,1.414485,,,,,,,,,,,,,,,,,,,,,,,,,,,,,,,,,,,,,0,11,11,64,1,,,,,,,,,,,,,,,,,,,,,,,,
,,,,,,,,,,,,l,Correct!,,,,,,t1.png,t5.png,4,9.55E-11,19,female,2020-11-22_08h47.05.753,torte-2b,2020.1.3,Win32,60,13348,0.431205,,,,,,,,,,,,,,,,,,,,,,,,,,,,,,,,,,,,,0,12,12,12,1,,,,,,,,,,,,,,,,,,,,,,,,
,,,,,,,,,,,,a,Incorrect,,,,,,t4.png,t2.png,2,0.059078,19,female,2020-11-22_08h47.05.753,torte-2b,2020.1.3,Win32,60,13348,0.298835,,,,,,,,,,,,,,,,,,,,,,,,,,,,,,,,,,,,,0,13,13,110,1,,,,,,,,,,,,,,,,,,,,,,,,
,,,,,,,,,,,,l,Incorrect,,,,,,t2.png,t2.png,0,0.98115,19,female,2020-11-22_08h47.05.753,torte-2b,2020.1.3,Win32,60,13348,0.44669,,,,,,,,,,,,,,,,,,,,,,,,,,,,,,,,,,,,,0,14,14,2,1,,,,,,,,,,,,,,,,,,,,,,,,
,,,,,,,,,,,,l,Correct!,,,,,,t3.png,t5.png,2,0.056466,19,female,2020-11-22_08h47.05.753,torte-2b,2020.1.3,Win32,60,13348,0.415425,,,,,,,,,,,,,,,,,,,,,,,,,,,,,,,,,,,,,0,15,15,14,1,,,,,,,,,,,,,,,,,,,,,,,,
,,,,,,,,,,,,a,Incorrect,,,,,,t5.png,t3.png,2,0.056466,19,female,2020-11-22_08h47.05.753,torte-2b,2020.1.3,Win32,60,13348,0.35093,,,,,,,,,,,,,,,,,,,,,,,,,,,,,,,,,,,,,0,16,16,108,1,,,,,,,,,,,,,,,,,,,,,,,,
,,,,,,,,,,,,a,Incorrect,,,,,,t4.png,t1.png,3,0.0000131,19,female,2020-11-22_08h47.05.753,torte-2b,2020.1.3,Win32,60,13348,0.420625,,,,,,,,,,,,,,,,,,,,,,,,,,,,,,,,,,,,,0,17,17,93,1,,,,,,,,,,,,,,,,,,,,,,,,
,,,,,,,,,,,,a,Correct!,,,,,,t4.png,t5.png,1,0.90025,19,female,2020-11-22_08h47.05.753,torte-2b,2020.1.3,Win32,60,13348,0.31762,,,,,,,,,,,,,,,,,,,,,,,,,,,,,,,,,,,,,0,18,18,58,1,,,,,,,,,,,,,,,,,,,,,,,,
,,,,,,,,,,,,a,Correct!,,,,,,t4.png,t3.png,1,0.90855,19,female,2020-11-22_08h47.05.753,torte-2b,2020.1.3,Win32,60,13348,0.317935,,,,,,,,,,,,,,,,,,,,,,,,,,,,,,,,,,,,,0,19,19,35,1,,,,,,,,,,,,,,,,,,,,,,,,
,,,,,,,,,,,,l,Incorrect,,,,,,t1.png,t2.png,1,0.9,19,female,2020-11-22_08h47.05.753,torte-2b,2020.1.3,Win32,60,13348,0.4079,,,,,,,,,,,,,,,,,,,,,,,,,,,,,,,,,,,,,0,20,20,1,1,,,,,,,,,,,,,,,,,,,,,,,,
,,,,,,,,,,,,a,Correct!,,,,,,t1.png,t2.png,1,0.90025,19,female,2020-11-22_08h47.05.753,torte-2b,2020.1.3,Win32,60,13348,0.5763,,,,,,,,,,,,,,,,,,,,,,,,,,,,,,,,,,,,,0,21,21,72,1,,,,,,,,,,,,,,,,,,,,,,,,
,,,,,,,,,,,,a,Incorrect,,,,,,t2.png,t4.png,2,0.059078,19,female,2020-11-22_08h47.05.753,torte-2b,2020.1.3,Win32,60,13348,0.45237,,,,,,,,,,,,,,,,,,,,,,,,,,,,,,,,,,,,,0,22,22,24,1,,,,,,,,,,,,,,,,,,,,,,,,
,,,,,,,,,,,,a,Incorrect,,,,,,t2.png,t5.png,3,0.0000131,19,female,2020-11-22_08h47.05.753,torte-2b,2020.1.3,Win32,60,13348,0.42017,,,,,,,,,,,,,,,,,,,,,,,,,,,,,,,,,,,,,0,23,23,8,1,,,,,,,,,,,,,,,,,,,,,,,,
,,,,,,,,,,,,a,Correct!,,,,,,t4.png,t5.png,1,0.9,19,female,2020-11-22_08h47.05.753,torte-2b,2020.1.3,Win32,60,13348,1.108065,,,,,,,,,,,,,,,,,,,,,,,,,,,,,,,,,,,,,0,24,24,115,1,,,,,,,,,,,,,,,,,,,,,,,,
,,,,,,,,,,,,l,Correct!,,,,,,t1.png,t5.png,4,9.55E-11,19,female,2020-11-22_08h47.05.753,torte-2b,2020.1.3,Win32,60,13348,1.02546,,,,,,,,,,,,,,,,,,,,,,,,,,,,,,,,,,,,,0,25,25,55,1,,,,,,,,,,,,,,,,,,,,,,,,
,,,,,,,,,,,,l,Correct!,,,,,,t4.png,t2.png,2,0.0591,19,female,2020-11-22_08h47.05.753,torte-2b,2020.1.3,Win32,60,13348,0.47223,,,,,,,,,,,,,,,,,,,,,,,,,,,,,,,,,,,,,0,26,26,36,1,,,,,,,,,,,,,,,,,,,,,,,,
,,,,,,,,,,,,l,Correct!,,,,,,t5.png,t3.png,2,0.056466,19,female,2020-11-22_08h47.05.753,torte-2b,2020.1.3,Win32,60,13348,0.76562,,,,,,,,,,,,,,,,,,,,,,,,,,,,,,,,,,,,,0,27,27,56,1,,,,,,,,,,,,,,,,,,,,,,,,
,,,,,,,,,,,,a,Correct!,,,,,,t2.png,t2.png,0,0.98115,19,female,2020-11-22_08h47.05.753,torte-2b,2020.1.3,Win32,60,13348,0.36926,,,,,,,,,,,,,,,,,,,,,,,,,,,,,,,,,,,,,0,28,28,7,1,,,,,,,,,,,,,,,,,,,,,,,,
,,,,,,,,,,,,l,Incorrect,,,,,,t5.png,t5.png,0,0.97829,19,female,2020-11-22_08h47.05.753,torte-2b,2020.1.3,Win32,60,13348,0.418465,,,,,,,,,,,,,,,,,,,,,,,,,,,,,,,,,,,,,0,29,29,73,1,,,,,,,,,,,,,,,,,,,,,,,,
,,,,,,,,,,,,l,Incorrect,,,,,,t4.png,t3.png,1,0.90855,19,female,2020-11-22_08h47.05.753,torte-2b,2020.1.3,Win32,60,13348,0.3334,,,,,,,,,,,,,,,,,,,,,,,,,,,,,,,,,,,,,0,30,30,45,1,,,,,,,,,,,,,,,,,,,,,,,,
,,,,,,,,,,,,a,Incorrect,,,,,,t2.png,t4.png,2,0.0591,19,female,2020-11-22_08h47.05.753,torte-2b,2020.1.3,Win32,60,13348,1.10206,,,,,,,,,,,,,,,,,,,,,,,,,,,,,,,,,,,,,0,31,31,15,1,,,,,,,,,,,,,,,,,,,,,,,,
,,,,,,,,,,,,a,Incorrect,,,,,,t1.png,t3.png,2,0.056466,19,female,2020-11-22_08h47.05.753,torte-2b,2020.1.3,Win32,60,13348,0.387285,,,,,,,,,,,,,,,,,,,,,,,,,,,,,,,,,,,,,0,32,32,87,1,,,,,,,,,,,,,,,,,,,,,,,,
,,,,,,,,,,,,a,Incorrect,,,,,,t3.png,t5.png,2,0.056466,19,female,2020-11-22_08h47.05.753,torte-2b,2020.1.3,Win32,60,13348,1.037485,,,,,,,,,,,,,,,,,,,,,,,,,,,,,,,,,,,,,0,33,33,6,1,,,,,,,,,,,,,,,,,,,,,,,,
,,,,,,,,,,,,l,Correct!,,,,,,t3.png,t1.png,2,0.056466,19,female,2020-11-22_08h47.05.753,torte-2b,2020.1.3,Win32,60,13348,2.355155,,,,,,,,,,,,,,,,,,,,,,,,,,,,,,,,,,,,,0,34,34,0,1,,,,,,,,,,,,,,,,,,,,,,,,
,,,,,,,,,,,,a,Incorrect,,,,,,t3.png,t4.png,1,0.909,19,female,2020-11-22_08h47.05.753,torte-2b,2020.1.3,Win32,60,13348,0.397355,,,,,,,,,,,,,,,,,,,,,,,,,,,,,,,,,,,,,0,35,35,106,1,,,,,,,,,,,,,,,,,,,,,,,,
,,,,,,,,,,,,a,Correct!,,,,,,t2.png,t1.png,1,0.9,19,female,2020-11-22_08h47.05.753,torte-2b,2020.1.3,Win32,60,13348,0.339175,,,,,,,,,,,,,,,,,,,,,,,,,,,,,,,,,,,,,0,36,36,118,1,,,,,,,,,,,,,,,,,,,,,,,,
,,,,,,,,,,,,l,Incorrect,,,,,,t3.png,t4.png,1,0.909,19,female,2020-11-22_08h47.05.753,torte-2b,2020.1.3,Win32,60,13348,0.480555,,,,,,,,,,,,,,,,,,,,,,,,,,,,,,,,,,,,,0,37,37,82,1,,,,,,,,,,,,,,,,,,,,,,,,
,,,,,,,,,,,,l,Correct!,,,,,,t4.png,t1.png,3,0.0000131,19,female,2020-11-22_08h47.05.753,torte-2b,2020.1.3,Win32,60,13348,0.490105,,,,,,,,,,,,,,,,,,,,,,,,,,,,,,,,,,,,,0,38,38,13,1,,,,,,,,,,,,,,,,,,,,,,,,
,,,,,,,,,,,,l,Incorrect,,,,,,t5.png,t4.png,1,0.9,19,female,2020-11-22_08h47.05.753,torte-2b,2020.1.3,Win32,60,13348,0.339225,,,,,,,,,,,,,,,,,,,,,,,,,,,,,,,,,,,,,0,39,39,49,1,,,,,,,,,,,,,,,,,,,,,,,,
,,,,,,,,,,,,a,Correct!,,,,,,t3.png,t2.png,1,0.909,19,female,2020-11-22_08h47.05.753,torte-2b,2020.1.3,Win32,60,13348,0.60236,,,,,,,,,,,,,,,,,,,,,,,,,,,,,,,,,,,,,0,40,40,3,1,,,,,,,,,,,,,,,,,,,,,,,,
,,,,,,,,,,,,a,Incorrect,,,,,,t2.png,t5.png,3,0.0000131,19,female,2020-11-22_08h47.05.753,torte-2b,2020.1.3,Win32,60,13348,1.235245,,,,,,,,,,,,,,,,,,,,,,,,,,,,,,,,,,,,,0,41,41,104,1,,,,,,,,,,,,,,,,,,,,,,,,
,,,,,,,,,,,,a,Incorrect,,,,,,t3.png,t5.png,2,0.056466,19,female,2020-11-22_08h47.05.753,torte-2b,2020.1.3,Win32,60,13348,0.750595,,,,,,,,,,,,,,,,,,,,,,,,,,,,,,,,,,,,,0,42,42,44,1,,,,,,,,,,,,,,,,,,,,,,,,
,,,,,,,,,,,,l,Incorrect,,,,,,t5.png,t4.png,1,0.90025,19,female,2020-11-22_08h47.05.753,torte-2b,2020.1.3,Win32,60,13348,1.11128,,,,,,,,,,,,,,,,,,,,,,,,,,,,,,,,,,,,,0,43,43,27,1,,,,,,,,,,,,,,,,,,,,,,,,
,,,,,,,,,,,,l,Correct!,,,,,,t5.png,t1.png,4,9.55E-11,19,female,2020-11-22_08h47.05.753,torte-2b,2020.1.3,Win32,60,13348,0.86936,,,,,,,,,,,,,,,,,,,,,,,,,,,,,,,,,,,,,0,44,44,43,1,,,,,,,,,,,,,,,,,,,,,,,,
,,,,,,,,,,,,a,Correct!,,,,,,t2.png,t3.png,1,0.90855,19,female,2020-11-22_08h47.05.753,torte-2b,2020.1.3,Win32,60,13348,0.516855,,,,,,,,,,,,,,,,,,,,,,,,,,,,,,,,,,,,,0,45,45,10,1,,,,,,,,,,,,,,,,,,,,,,,,
,,,,,,,,,,,,l,Incorrect,,,,,,t4.png,t3.png,1,0.909,19,female,2020-11-22_08h47.05.753,torte-2b,2020.1.3,Win32,60,13348,1.160045,,,,,,,,,,,,,,,,,,,,,,,,,,,,,,,,,,,,,0,46,46,46,1,,,,,,,,,,,,,,,,,,,,,,,,
,,,,,,,,,,,,l,Correct!,,,,,,t5.png,t1.png,4,9.55E-11,19,female,2020-11-22_08h47.05.753,torte-2b,2020.1.3,Win32,60,13348,0.602675,,,,,,,,,,,,,,,,,,,,,,,,,,,,,,,,,,,,,0,47,47,100,1,,,,,,,,,,,,,,,,,,,,,,,,
,,,,,,,,,,,,a,Correct!,,,,,,t4.png,t3.png,1,0.909,19,female,2020-11-22_08h47.05.753,torte-2b,2020.1.3,Win32,60,13348,0.640635,,,,,,,,,,,,,,,,,,,,,,,,,,,,,,,,,,,,,0,48,48,20,1,,,,,,,,,,,,,,,,,,,,,,,,
,,,,,,,,,,,,l,Incorrect,,,,,,t3.png,t2.png,1,0.90855,19,female,2020-11-22_08h47.05.753,torte-2b,2020.1.3,Win32,60,13348,0.353895,,,,,,,,,,,,,,,,,,,,,,,,,,,,,,,,,,,,,0,49,49,97,1,,,,,,,,,,,,,,,,,,,,,,,,
,,,,,,,,,,,,a,Incorrect,,,,,,t1.png,t5.png,4,9.55E-11,19,female,2020-11-22_08h47.05.753,torte-2b,2020.1.3,Win32,60,13348,0.43326,,,,,,,,,,,,,,,,,,,,,,,,,,,,,,,,,,,,,0,50,50,41,1,,,,,,,,,,,,,,,,,,,,,,,,
,,,,,,,,,,,,l,Incorrect,,,,,,t2.png,t1.png,1,0.90025,19,female,2020-11-22_08h47.05.753,torte-2b,2020.1.3,Win32,60,13348,1.80214,,,,,,,,,,,,,,,,,,,,,,,,,,,,,,,,,,,,,0,51,51,5,1,,,,,,,,,,,,,,,,,,,,,,,,
,,,,,,,,,,,,l,Incorrect,,,,,,t2.png,t1.png,1,0.90025,19,female,2020-11-22_08h47.05.753,torte-2b,2020.1.3,Win32,60,13348,1.104645,,,,,,,,,,,,,,,,,,,,,,,,,,,,,,,,,,,,,0,52,52,4,1,,,,,,,,,,,,,,,,,,,,,,,,
,,,,,,,,,,,,l,Incorrect,,,,,,t1.png,t1.png,0,0.97829,19,female,2020-11-22_08h47.05.753,torte-2b,2020.1.3,Win32,60,13348,0.161965,,,,,,,,,,,,,,,,,,,,,,,,,,,,,,,,,,,,,0,53,53,9,1,,,,,,,,,,,,,,,,,,,,,,,,
,,,,,,,,,,,,l,Incorrect,,,,,,t4.png,t3.png,1,0.90855,19,female,2020-11-22_08h47.05.753,torte-2b,2020.1.3,Win32,60,13348,0.470735,,,,,,,,,,,,,,,,,,,,,,,,,,,,,,,,,,,,,0,54,54,75,1,,,,,,,,,,,,,,,,,,,,,,,,
,,,,,,,,,,,,a,Correct!,,,,,,t5.png,t5.png,0,0.97829,19,female,2020-11-22_08h47.05.753,torte-2b,2020.1.3,Win32,60,13348,0.341415,,,,,,,,,,,,,,,,,,,,,,,,,,,,,,,,,,,,,0,55,55,25,1,,,,,,,,,,,,,,,,,,,,,,,,
,,,,,,,,,,,,l,Incorrect,,,,,,t3.png,t2.png,1,0.90855,19,female,2020-11-22_08h47.05.753,torte-2b,2020.1.3,Win32,60,13348,0.409975,,,,,,,,,,,,,,,,,,,,,,,,,,,,,,,,,,,,,0,56,56,18,1,,,,,,,,,,,,,,,,,,,,,,,,
,,,,,,,,,,,,l,Correct!,,,,,,t2.png,t5.png,3,0.0000131,19,female,2020-11-22_08h47.05.753,torte-2b,2020.1.3,Win32,60,13348,0.308635,,,,,,,,,,,,,,,,,,,,,,,,,,,,,,,,,,,,,0,57,57,66,1,,,,,,,,,,,,,,,,,,,,,,,,
,,,,,,,,,,,,a,Incorrect,,,,,,t1.png,t4.png,3,0.0000131,19,female,2020-11-22_08h47.05.753,torte-2b,2020.1.3,Win32,60,13348,0.35167,,,,,,,,,,,,,,,,,,,,,,,,,,,,,,,,,,,,,0,58,58,17,1,,,,,,,,,,,,,,,,,,,,,,,,
,,,,,,,,,,,,l,Correct!,,,,,,t5.png,t3.png,2,0.0565,19,female,2020-11-22_08h47.05.753,torte-2b,2020.1.3,Win32,60,13348,0.31752,,,,,,,,,,,,,,,,,,,,,,,,,,,,,,,,,,,,,0,59,59,39,1,,,,,,,,,,,,,,,,,,,,,,,,
,,,,,,,,,,,,l,Incorrect,,,,,,t4.png,t5.png,1,0.90025,19,female,2020-11-22_08h47.05.753,torte-2b,2020.1.3,Win32,60,13348,0.366625,,,,,,,,,,,,,,,,,,,,,,,,,,,,,,,,,,,,,0,60,60,47,1,,,,,,,,,,,,,,,,,,,,,,,,
,,,,,,,,,,,,l,Correct!,,,,,,t4.png,t2.png,2,0.059078,19,female,2020-11-22_08h47.05.753,torte-2b,2020.1.3,Win32,60,13348,0.297765,,,,,,,,,,,,,,,,,,,,,,,,,,,,,,,,,,,,,0,61,61,109,1,,,,,,,,,,,,,,,,,,,,,,,,
,,,,,,,,,,,,l,Correct!,,,,,,t5.png,t3.png,2,0.056466,19,female,2020-11-22_08h47.05.753,torte-2b,2020.1.3,Win32,60,13348,0.269,,,,,,,,,,,,,,,,,,,,,,,,,,,,,,,,,,,,,0,62,62,114,1,,,,,,,,,,,,,,,,,,,,,,,,
,,,,,,,,,,,,l,Incorrect,,,,,,t4.png,t4.png,0,0.98115,19,female,2020-11-22_08h47.05.753,torte-2b,2020.1.3,Win32,60,13348,0.28518,,,,,,,,,,,,,,,,,,,,,,,,,,,,,,,,,,,,,0,63,63,21,1,,,,,,,,,,,,,,,,,,,,,,,,
,,,,,,,,,,,,l,Correct!,,,,,,t2.png,t4.png,2,0.059078,19,female,2020-11-22_08h47.05.753,torte-2b,2020.1.3,Win32,60,13348,0.3192,,,,,,,,,,,,,,,,,,,,,,,,,,,,,,,,,,,,,0,64,64,77,1,,,,,,,,,,,,,,,,,,,,,,,,
,,,,,,,,,,,,l,Incorrect,,,,,,t2.png,t2.png,0,0.98115,19,female,2020-11-22_08h47.05.753,torte-2b,2020.1.3,Win32,60,13348,0.855995,,,,,,,,,,,,,,,,,,,,,,,,,,,,,,,,,,,,,0,65,65,57,1,,,,,,,,,,,,,,,,,,,,,,,,
,,,,,,,,,,,,a,Incorrect,,,,,,t2.png,t4.png,2,0.059078,19,female,2020-11-22_08h47.05.753,torte-2b,2020.1.3,Win32,60,13348,0.520305,,,,,,,,,,,,,,,,,,,,,,,,,,,,,,,,,,,,,0,66,66,37,1,,,,,,,,,,,,,,,,,,,,,,,,
,,,,,,,,,,,,l,Correct!,,,,,,t1.png,t4.png,3,0.0000131,19,female,2020-11-22_08h47.05.753,torte-2b,2020.1.3,Win32,60,13348,0.71629,,,,,,,,,,,,,,,,,,,,,,,,,,,,,,,,,,,,,0,67,67,81,1,,,,,,,,,,,,,,,,,,,,,,,,
,,,,,,,,,,,,l,Incorrect,,,,,,t4.png,t4.png,0,0.98115,19,female,2020-11-22_08h47.05.753,torte-2b,2020.1.3,Win32,60,13348,0.31712,,,,,,,,,,,,,,,,,,,,,,,,,,,,,,,,,,,,,0,68,68,90,1,,,,,,,,,,,,,,,,,,,,,,,,
,,,,,,,,,,,,l,Correct!,,,,,,t4.png,t1.png,3,0.0000131,19,female,2020-11-22_08h47.05.753,torte-2b,2020.1.3,Win32,60,13348,0.22543,,,,,,,,,,,,,,,,,,,,,,,,,,,,,,,,,,,,,0,69,69,61,1,,,,,,,,,,,,,,,,,,,,,,,,
,,,,,,,,,,,,l,Correct!,,,,,,t3.png,t1.png,2,0.056466,19,female,2020-11-22_08h47.05.753,torte-2b,2020.1.3,Win32,60,13348,0.49143,,,,,,,,,,,,,,,,,,,,,,,,,,,,,,,,,,,,,0,70,70,29,1,,,,,,,,,,,,,,,,,,,,,,,,
,,,,,,,,,,,,l,Correct!,,,,,,t4.png,t2.png,2,0.059078,19,female,2020-11-22_08h47.05.753,torte-2b,2020.1.3,Win32,60,13348,0.24039,,,,,,,,,,,,,,,,,,,,,,,,,,,,,,,,,,,,,0,71,71,88,1,,,,,,,,,,,,,,,,,,,,,,,,
,,,,,,,,,,,,l,Incorrect,,,,,,t4.png,t4.png,0,0.98115,19,female,2020-11-22_08h47.05.753,torte-2b,2020.1.3,Win32,60,13348,0.372845,,,,,,,,,,,,,,,,,,,,,,,,,,,,,,,,,,,,,0,72,72,79,1,,,,,,,,,,,,,,,,,,,,,,,,
,,,,,,,,,,,,l,Correct!,,,,,,t2.png,t2.png,0,0.98115,19,female,2020-11-22_08h47.05.753,torte-2b,2020.1.3,Win32,60,13348,0.332845,,,,,,,,,,,,,,,,,,,,,,,,,,,,,,,,,,,,,0,73,73,59,1,,,,,,,,,,,,,,,,,,,,,,,,
,,,,,,,,,,,,l,Correct!,,,,,,t5.png,t2.png,3,0.0000131,19,female,2020-11-22_08h47.05.753,torte-2b,2020.1.3,Win32,60,13348,0.27316,,,,,,,,,,,,,,,,,,,,,,,,,,,,,,,,,,,,,0,74,74,91,1,,,,,,,,,,,,,,,,,,,,,,,,
,,,,,,,,,,,,l,Incorrect,,,,,,t4.png,t4.png,0,0.98115,19,female,2020-11-22_08h47.05.753,torte-2b,2020.1.3,Win32,60,13348,0.57107,,,,,,,,,,,,,,,,,,,,,,,,,,,,,,,,,,,,,0,75,75,80,1,,,,,,,,,,,,,,,,,,,,,,,,
,,,,,,,,,,,,a,Incorrect,,,,,,t5.png,t1.png,4,9.55E-11,19,female,2020-11-22_08h47.05.753,torte-2b,2020.1.3,Win32,60,13348,0.35897,,,,,,,,,,,,,,,,,,,,,,,,,,,,,,,,,,,,,0,76,76,22,1,,,,,,,,,,,,,,,,,,,,,,,,
,,,,,,,,,,,,a,Incorrect,,,,,,t4.png,t1.png,3,0.0000131,19,female,2020-11-22_08h47.05.753,torte-2b,2020.1.3,Win32,60,13348,0.215305,,,,,,,,,,,,,,,,,,,,,,,,,,,,,,,,,,,,,0,77,77,42,1,,,,,,,,,,,,,,,,,,,,,,,,
,,,,,,,,,,,,l,Incorrect,,,,,,t1.png,t1.png,0,0.97829,19,female,2020-11-22_08h47.05.753,torte-2b,2020.1.3,Win32,60,13348,0.352245,,,,,,,,,,,,,,,,,,,,,,,,,,,,,,,,,,,,,0,78,78,78,1,,,,,,,,,,,,,,,,,,,,,,,,
,,,,,,,,,,,,l,Incorrect,,,,,,t1.png,t1.png,0,0.97829,19,female,2020-11-22_08h47.05.753,torte-2b,2020.1.3,Win32,60,13348,0.26731,,,,,,,,,,,,,,,,,,,,,,,,,,,,,,,,,,,,,0,79,79,67,1,,,,,,,,,,,,,,,,,,,,,,,,
,,,,,,,,,,,,l,Correct!,,,,,,t3.png,t5.png,2,0.0565,19,female,2020-11-22_08h47.05.753,torte-2b,2020.1.3,Win32,60,13348,0.53661,,,,,,,,,,,,,,,,,,,,,,,,,,,,,,,,,,,,,0,80,80,30,1,,,,,,,,,,,,,,,,,,,,,,,,
,,,,,,,,,,,,l,Correct!,,,,,,t3.png,t4.png,1,0.90855,19,female,2020-11-22_08h47.05.753,torte-2b,2020.1.3,Win32,60,13348,0.35736,,,,,,,,,,,,,,,,,,,,,,,,,,,,,,,,,,,,,0,81,81,84,1,,,,,,,,,,,,,,,,,,,,,,,,
,,,,,,,,,,,,a,Incorrect,,,,,,t5.png,t2.png,3,0.0000131,19,female,2020-11-22_08h47.05.753,torte-2b,2020.1.3,Win32,60,13348,0.29222,,,,,,,,,,,,,,,,,,,,,,,,,,,,,,,,,,,,,0,82,82,116,1,,,,,,,,,,,,,,,,,,,,,,,,
,,,,,,,,,,,,l,Incorrect,,,,,,t2.png,t1.png,1,0.90025,19,female,2020-11-22_08h47.05.753,torte-2b,2020.1.3,Win32,60,13348,0.28462,,,,,,,,,,,,,,,,,,,,,,,,,,,,,,,,,,,,,0,83,83,19,1,,,,,,,,,,,,,,,,,,,,,,,,
,,,,,,,,,,,,a,Correct!,,,,,,t2.png,t2.png,0,0.981,19,female,2020-11-22_08h47.05.753,torte-2b,2020.1.3,Win32,60,13348,0.37404,,,,,,,,,,,,,,,,,,,,,,,,,,,,,,,,,,,,,0,84,84,101,1,,,,,,,,,,,,,,,,,,,,,,,,
,,,,,,,,,,,,l,Incorrect,,,,,,t1.png,t2.png,1,0.90025,19,female,2020-11-22_08h47.05.753,torte-2b,2020.1.3,Win32,60,13348,0.327175,,,,,,,,,,,,,,,,,,,,,,,,,,,,,,,,,,,,,0,85,85,105,1,,,,,,,,,,,,,,,,,,,,,,,,
,,,,,,,,,,,,l,Correct!,,,,,,t1.png,t5.png,4,9.55E-11,19,female,2020-11-22_08h47.05.753,torte-2b,2020.1.3,Win32,60,13348,0.62497,,,,,,,,,,,,,,,,,,,,,,,,,,,,,,,,,,,,,0,86,86,16,1,,,,,,,,,,,,,,,,,,,,,,,,
,,,,,,,,,,,,a,Incorrect,,,,,,t5.png,t2.png,3,0.0000131,19,female,2020-11-22_08h47.05.753,torte-2b,2020.1.3,Win32,60,13348,0.3877,,,,,,,,,,,,,,,,,,,,,,,,,,,,,,,,,,,,,0,87,87,119,1,,,,,,,,,,,,,,,,,,,,,,,,
,,,,,,,,,,,,l,Incorrect,,,,,,t5.png,t5.png,0,0.97829,19,female,2020-11-22_08h47.05.753,torte-2b,2020.1.3,Win32,60,13348,0.25546,,,,,,,,,,,,,,,,,,,,,,,,,,,,,,,,,,,,,0,88,88,94,1,,,,,,,,,,,,,,,,,,,,,,,,
,,,,,,,,,,,,l,Incorrect,,,,,,t2.png,t3.png,1,0.90855,19,female,2020-11-22_08h47.05.753,torte-2b,2020.1.3,Win32,60,13348,0.32523,,,,,,,,,,,,,,,,,,,,,,,,,,,,,,,,,,,,,0,89,89,65,1,,,,,,,,,,,,,,,,,,,,,,,,
,,,,,,,,,,,,l,Correct!,,,,,,t1.png,t4.png,3,0.0000131,19,female,2020-11-22_08h47.05.753,torte-2b,2020.1.3,Win32,60,13348,0.272185,,,,,,,,,,,,,,,,,,,,,,,,,,,,,,,,,,,,,0,90,90,107,1,,,,,,,,,,,,,,,,,,,,,,,,
,,,,,,,,,,,,l,Incorrect,,,,,,t1.png,t2.png,1,0.90025,19,female,2020-11-22_08h47.05.753,torte-2b,2020.1.3,Win32,60,13348,0.28264,,,,,,,,,,,,,,,,,,,,,,,,,,,,,,,,,,,,,0,91,91,33,1,,,,,,,,,,,,,,,,,,,,,,,,
,,,,,,,,,,,,a,Incorrect,,,,,,t5.png,t2.png,3,0.0000131,19,female,2020-11-22_08h47.05.753,torte-2b,2020.1.3,Win32,60,13348,0.351755,,,,,,,,,,,,,,,,,,,,,,,,,,,,,,,,,,,,,0,92,92,51,1,,,,,,,,,,,,,,,,,,,,,,,,
,,,,,,,,,,,,l,Correct!,,,,,,t1.png,t3.png,2,0.056466,19,female,2020-11-22_08h47.05.753,torte-2b,2020.1.3,Win32,60,13348,0.35486,,,,,,,,,,,,,,,,,,,,,,,,,,,,,,,,,,,,,0,93,93,63,1,,,,,,,,,,,,,,,,,,,,,,,,
,,,,,,,,,,,,l,Incorrect,,,,,,t3.png,t2.png,1,0.909,19,female,2020-11-22_08h47.05.753,torte-2b,2020.1.3,Win32,60,13348,0.241325,,,,,,,,,,,,,,,,,,,,,,,,,,,,,,,,,,,,,0,94,94,23,1,,,,,,,,,,,,,,,,,,,,,,,,
,,,,,,,,,,,,l,Incorrect,,,,,,t4.png,t5.png,1,0.90025,19,female,2020-11-22_08h47.05.753,torte-2b,2020.1.3,Win32,60,13348,0.23334,,,,,,,,,,,,,,,,,,,,,,,,,,,,,,,,,,,,,0,95,95,103,1,,,,,,,,,,,,,,,,,,,,,,,,
,,,,,,,,,,,,l,Correct!,,,,,,t2.png,t5.png,3,0.0000131,19,female,2020-11-22_08h47.05.753,torte-2b,2020.1.3,Win32,60,13348,0.22649,,,,,,,,,,,,,,,,,,,,,,,,,,,,,,,,,,,,,0,96,96,40,1,,,,,,,,,,,,,,,,,,,,,,,,
,,,,,,,,,,,,l,Correct!,,,,,,t2.png,t4.png,2,0.059078,19,female,2020-11-22_08h47.05.753,torte-2b,2020.1.3,Win32,60,13348,0.58842,,,,,,,,,,,,,,,,,,,,,,,,,,,,,,,,,,,,,0,97,97,11,1,,,,,,,,,,,,,,,,,,,,,,,,
,,,,,,,,,,,,l,Correct!,,,,,,t2.png,t5.png,3,0.0000131,19,female,2020-11-22_08h47.05.753,torte-2b,2020.1.3,Win32,60,13348,0.32067,,,,,,,,,,,,,,,,,,,,,,,,,,,,,,,,,,,,,0,98,98,95,1,,,,,,,,,,,,,,,,,,,,,,,,
,,,,,,,,,,,,l,Correct!,,,,,,t1.png,t5.png,4,9.55E-11,19,female,2020-11-22_08h47.05.753,torte-2b,2020.1.3,Win32,60,13348,0.35686,,,,,,,,,,,,,,,,,,,,,,,,,,,,,,,,,,,,,0,99,99,85,1,,,,,,,,,,,,,,,,,,,,,,,,
,,,,,,,,,,,,l,Incorrect,,,,,,t5.png,t5.png,0,0.978,19,female,2020-11-22_08h47.05.753,torte-2b,2020.1.3,Win32,60,13348,0.639085,,,,,,,,,,,,,,,,,,,,,,,,,,,,,,,,,,,,,0,100,100,117,1,,,,,,,,,,,,,,,,,,,,,,,,
,,,,,,,,,,,,a,Incorrect,,,,,,t4.png,t2.png,2,0.059078,19,female,2020-11-22_08h47.05.753,torte-2b,2020.1.3,Win32,60,13348,0.50688,,,,,,,,,,,,,,,,,,,,,,,,,,,,,,,,,,,,,0,101,101,86,1,,,,,,,,,,,,,,,,,,,,,,,,
,,,,,,,,,,,,l,Incorrect,,,,,,t5.png,t5.png,0,0.97829,19,female,2020-11-22_08h47.05.753,torte-2b,2020.1.3,Win32,60,13348,0.580605,,,,,,,,,,,,,,,,,,,,,,,,,,,,,,,,,,,,,0,102,102,70,1,,,,,,,,,,,,,,,,,,,,,,,,
,,,,,,,,,,,,l,Correct!,,,,,,t3.png,t5.png,2,0.0565,19,female,2020-11-22_08h47.05.753,torte-2b,2020.1.3,Win32,60,13348,0.375205,,,,,,,,,,,,,,,,,,,,,,,,,,,,,,,,,,,,,0,103,103,83,1,,,,,,,,,,,,,,,,,,,,,,,,
,,,,,,,,,,,,a,Correct!,,,,,,t5.png,t4.png,1,0.90025,19,female,2020-11-22_08h47.05.753,torte-2b,2020.1.3,Win32,60,13348,0.572545,,,,,,,,,,,,,,,,,,,,,,,,,,,,,,,,,,,,,0,104,104,26,1,,,,,,,,,,,,,,,,,,,,,,,,
,,,,,,,,,,,,l,Correct!,,,,,,t1.png,t3.png,2,0.056466,19,female,2020-11-22_08h47.05.753,torte-2b,2020.1.3,Win32,60,13348,0.338955,,,,,,,,,,,,,,,,,,,,,,,,,,,,,,,,,,,,,0,105,105,69,1,,,,,,,,,,,,,,,,,,,,,,,,
,,,,,,,,,,,,l,Incorrect,,,,,,t3.png,t4.png,1,0.90855,19,female,2020-11-22_08h47.05.753,torte-2b,2020.1.3,Win32,60,13348,0.35072,,,,,,,,,,,,,,,,,,,,,,,,,,,,,,,,,,,,,0,106,106,96,1,,,,,,,,,,,,,,,,,,,,,,,,
,,,,,,,,,,,,l,Correct!,,,,,,t1.png,t4.png,3,0.0000131,19,female,2020-11-22_08h47.05.753,torte-2b,2020.1.3,Win32,60,13348,0.548895,,,,,,,,,,,,,,,,,,,,,,,,,,,,,,,,,,,,,0,107,107,92,1,,,,,,,,,,,,,,,,,,,,,,,,
,,,,,,,,,,,,a,Incorrect,,,,,,t5.png,t1.png,4,9.55E-11,19,female,2020-11-22_08h47.05.753,torte-2b,2020.1.3,Win32,60,13348,1.14016,,,,,,,,,,,,,,,,,,,,,,,,,,,,,,,,,,,,,0,108,108,102,1,,,,,,,,,,,,,,,,,,,,,,,,
,,,,,,,,,,,,a,Incorrect,,,,,,t4.png,t1.png,3,0.0000131,19,female,2020-11-22_08h47.05.753,torte-2b,2020.1.3,Win32,60,13348,0.8042,,,,,,,,,,,,,,,,,,,,,,,,,,,,,,,,,,,,,0,109,109,48,1,,,,,,,,,,,,,,,,,,,,,,,,
,,,,,,,,,,,,a,Incorrect,,,,,,t3.png,t1.png,2,0.0565,19,female,2020-11-22_08h47.05.753,torte-2b,2020.1.3,Win32,60,13348,0.433625,,,,,,,,,,,,,,,,,,,,,,,,,,,,,,,,,,,,,0,110,110,31,1,,,,,,,,,,,,,,,,,,,,,,,,
,,,,,,,,,,,,l,Correct!,,,,,,t2.png,t3.png,1,0.90855,19,female,2020-11-22_08h47.05.753,torte-2b,2020.1.3,Win32,60,13348,0.329805,,,,,,,,,,,,,,,,,,,,,,,,,,,,,,,,,,,,,0,111,111,111,1,,,,,,,,,,,,,,,,,,,,,,,,
,,,,,,,,,,,,l,Incorrect,,,,,,t5.png,t3.png,2,0.056466,19,female,2020-11-22_08h47.05.753,torte-2b,2020.1.3,Win32,60,13348,0.46041,,,,,,,,,,,,,,,,,,,,,,,,,,,,,,,,,,,,,0,112,112,38,1,,,,,,,,,,,,,,,,,,,,,,,,
,,,,,,,,,,,,l,Correct!,,,,,,t1.png,t3.png,2,0.056466,19,female,2020-11-22_08h47.05.753,torte-2b,2020.1.3,Win32,60,13348,0.27249,,,,,,,,,,,,,,,,,,,,,,,,,,,,,,,,,,,,,0,113,113,99,1,,,,,,,,,,,,,,,,,,,,,,,,
,,,,,,,,,,,,l,Incorrect,,,,,,t3.png,t4.png,1,0.909,19,female,2020-11-22_08h47.05.753,torte-2b,2020.1.3,Win32,60,13348,0.333615,,,,,,,,,,,,,,,,,,,,,,,,,,,,,,,,,,,,,0,114,114,89,1,,,,,,,,,,,,,,,,,,,,,,,,
,,,,,,,,,,,,l,Incorrect,,,,,,t2.png,t1.png,1,0.90025,19,female,2020-11-22_08h47.05.753,torte-2b,2020.1.3,Win32,60,13348,0.319275,,,,,,,,,,,,,,,,,,,,,,,,,,,,,,,,,,,,,0,115,115,62,1,,,,,,,,,,,,,,,,,,,,,,,,
,,,,,,,,,,,,l,Incorrect,,,,,,t5.png,t4.png,1,0.90025,19,female,2020-11-22_08h47.05.753,torte-2b,2020.1.3,Win32,60,13348,0.0682,,,,,,,,,,,,,,,,,,,,,,,,,,,,,,,,,,,,,0,116,116,34,1,,,,,,,,,,,,,,,,,,,,,,,,
,,,,,,,,,,,,l,Correct!,,,,,,t3.png,t2.png,1,0.90855,19,female,2020-11-22_08h47.05.753,torte-2b,2020.1.3,Win32,60,13348,0.25331,,,,,,,,,,,,,,,,,,,,,,,,,,,,,,,,,,,,,0,117,117,53,1,,,,,,,,,,,,,,,,,,,,,,,,
,,,,,,,,,,,,a,Incorrect,,,,,,t1.png,t4.png,3,0.0000131,19,female,2020-11-22_08h47.05.753,torte-2b,2020.1.3,Win32,60,13348,0.107915,,,,,,,,,,,,,,,,,,,,,,,,,,,,,,,,,,,,,0,118,118,50,1,,,,,,,,,,,,,,,,,,,,,,,,
,,,,,,,,,,,,a,Correct!,,,,,,t1.png,t2.png,1,0.90025,19,female,2020-11-22_08h47.05.753,torte-2b,2020.1.3,Win32,60,13348,0.409545,,,,,,,,,,,,,,,,,,,,,,,,,,,,,,,,,,,,,0,119,119,112,1,,,,,,,,,,,,,,,,,,,,,,,,
,,,,,,,,,,,,,,,,,,,,,,,19,female,2020-11-22_08h47.05.753,torte-2b,2020.1.3,Win32,60,13348,,l,0.36873,,,,,,,,,,,,,,,,,,,,,,,,,,,,,,,,,,,,,,,,102,61,1,0,0,s3,33,-91,1,0,0,t4,162,-91,1,0,0,proceed,space,13.504485,space,0.42333,space,0.268305
