key_resp_8.keys,key_resp_8.rt,key_resp_9.keys,key_resp_9.rt,key_resp_10.keys,key_resp_10.rt,key_resp_11.keys,key_resp_11.rt,key_resp_2.keys,key_resp_2.rt,key_resp_3.keys,key_resp_3.rt,key_resp.keys,Feedback,train.thisRepN,train.thisTrialN,train.thisN,train.thisIndex,train.ran,torta_sx,torta_dx,difference,probability,age,gender,date,expName,psychopyVersion,OS,frameRate,participant,key_resp.rt,key_resp_15.keys,key_resp_15.rt,key_resp_6.keys,key_resp_6.rt,test1.thisRepN,test1.thisTrialN,test1.thisN,test1.thisIndex,test1.ran,key_resp_4.keys,key_resp_4.rt,key_resp_5.keys,back1.thisRepN,back1.thisTrialN,back1.thisN,back1.thisIndex,back1.ran,letter,key_resp_5.rt,back2.thisRepN,back2.thisTrialN,back2.thisN,back2.thisIndex,back2.ran,back3.thisRepN,back3.thisTrialN,back3.thisN,back3.thisIndex,back3.ran,back4.thisRepN,back4.thisTrialN,back4.thisN,back4.thisIndex,back4.ran,key_resp_7.keys,key_resp_7.rt,test2.thisRepN,test2.thisTrialN,test2.thisN,test2.thisIndex,test2.ran,mouse.x,mouse.y,mouse.leftButton,mouse.midButton,mouse.rightButton,mouse.clicked_name,mouse_2.x,mouse_2.y,mouse_2.leftButton,mouse_2.midButton,mouse_2.rightButton,mouse_2.clicked_name,mouse_3.x,mouse_3.y,mouse_3.leftButton,mouse_3.midButton,mouse_3.rightButton,mouse_3.clicked_name,key_resp_12.keys,key_resp_12.rt,key_resp_13.keys,key_resp_13.rt,key_resp_14.keys,key_resp_14.rt
space,55.35182,space,9.560875,space,3.077245,space,5.298365,space,35.520865,space,69.179465,,Too slow :(,0,0,0,85,1,t5.png,t4.png,1,0.90025,20,Female,2020-07-28_18h26.05.430,torte-2b,2020.1.3,Win32,60,13356,,,,,,,,,,,,,,,,,,,,,,,,,,,,,,,,,,,,,,,,,,,,,,,,,,,,,,,,,,,,,,,,,,
,,,,,,,,,,,,a,Correct!,0,1,1,86,1,t5.png,t4.png,1,0.90025,20,Female,2020-07-28_18h26.05.430,torte-2b,2020.1.3,Win32,60,13356,0.80915,,,,,,,,,,,,,,,,,,,,,,,,,,,,,,,,,,,,,,,,,,,,,,,,,,,,,,,,,,,,,,,,,
,,,,,,,,,,,,l,Correct!,0,2,2,118,1,t1.png,t5.png,4,9.55E-11,20,Female,2020-07-28_18h26.05.430,torte-2b,2020.1.3,Win32,60,13356,0.67328,,,,,,,,,,,,,,,,,,,,,,,,,,,,,,,,,,,,,,,,,,,,,,,,,,,,,,,,,,,,,,,,,
,,,,,,,,,,,,l,Correct!,0,3,3,35,1,t1.png,t4.png,3,0.0000131,20,Female,2020-07-28_18h26.05.430,torte-2b,2020.1.3,Win32,60,13356,0.65113,,,,,,,,,,,,,,,,,,,,,,,,,,,,,,,,,,,,,,,,,,,,,,,,,,,,,,,,,,,,,,,,,
,,,,,,,,,,,,l,Incorrect,0,4,4,88,1,t1.png,t1.png,0,0.97829,20,Female,2020-07-28_18h26.05.430,torte-2b,2020.1.3,Win32,60,13356,1.17917,,,,,,,,,,,,,,,,,,,,,,,,,,,,,,,,,,,,,,,,,,,,,,,,,,,,,,,,,,,,,,,,,
,,,,,,,,,,,,,Too slow :(,0,5,5,5,1,t5.png,t5.png,0,0.97829,20,Female,2020-07-28_18h26.05.430,torte-2b,2020.1.3,Win32,60,13356,,,,,,,,,,,,,,,,,,,,,,,,,,,,,,,,,,,,,,,,,,,,,,,,,,,,,,,,,,,,,,,,,,
,,,,,,,,,,,,l,Correct!,0,6,6,79,1,t1.png,t4.png,3,0.0000131,20,Female,2020-07-28_18h26.05.430,torte-2b,2020.1.3,Win32,60,13356,0.782615,,,,,,,,,,,,,,,,,,,,,,,,,,,,,,,,,,,,,,,,,,,,,,,,,,,,,,,,,,,,,,,,,
,,,,,,,,,,,,l,Incorrect,0,7,7,38,1,t1.png,t1.png,0,0.97829,20,Female,2020-07-28_18h26.05.430,torte-2b,2020.1.3,Win32,60,13356,0.900485,,,,,,,,,,,,,,,,,,,,,,,,,,,,,,,,,,,,,,,,,,,,,,,,,,,,,,,,,,,,,,,,,
,,,,,,,,,,,,l,Incorrect,0,8,8,101,1,t5.png,t4.png,1,0.90025,20,Female,2020-07-28_18h26.05.430,torte-2b,2020.1.3,Win32,60,13356,1.60321,,,,,,,,,,,,,,,,,,,,,,,,,,,,,,,,,,,,,,,,,,,,,,,,,,,,,,,,,,,,,,,,,
,,,,,,,,,,,,a,Incorrect,0,9,9,100,1,t3.png,t2.png,1,0.90855,20,Female,2020-07-28_18h26.05.430,torte-2b,2020.1.3,Win32,60,13356,1.19518,,,,,,,,,,,,,,,,,,,,,,,,,,,,,,,,,,,,,,,,,,,,,,,,,,,,,,,,,,,,,,,,,
,,,,,,,,,,,,l,Correct!,0,10,10,44,1,t1.png,t4.png,3,0.0000131,20,Female,2020-07-28_18h26.05.430,torte-2b,2020.1.3,Win32,60,13356,0.7228,,,,,,,,,,,,,,,,,,,,,,,,,,,,,,,,,,,,,,,,,,,,,,,,,,,,,,,,,,,,,,,,,
,,,,,,,,,,,,l,Correct!,0,11,11,104,1,t4.png,t5.png,1,0.90025,20,Female,2020-07-28_18h26.05.430,torte-2b,2020.1.3,Win32,60,13356,0.892495,,,,,,,,,,,,,,,,,,,,,,,,,,,,,,,,,,,,,,,,,,,,,,,,,,,,,,,,,,,,,,,,,
,,,,,,,,,,,,l,Incorrect,0,12,12,56,1,t2.png,t3.png,1,0.90855,20,Female,2020-07-28_18h26.05.430,torte-2b,2020.1.3,Win32,60,13356,0.851575,,,,,,,,,,,,,,,,,,,,,,,,,,,,,,,,,,,,,,,,,,,,,,,,,,,,,,,,,,,,,,,,,
,,,,,,,,,,,,l,Correct!,0,13,13,117,1,t2.png,t4.png,2,0.059078,20,Female,2020-07-28_18h26.05.430,torte-2b,2020.1.3,Win32,60,13356,1.215635,,,,,,,,,,,,,,,,,,,,,,,,,,,,,,,,,,,,,,,,,,,,,,,,,,,,,,,,,,,,,,,,,
,,,,,,,,,,,,a,Incorrect,0,14,14,112,1,t5.png,t4.png,1,0.90025,20,Female,2020-07-28_18h26.05.430,torte-2b,2020.1.3,Win32,60,13356,1.50647,,,,,,,,,,,,,,,,,,,,,,,,,,,,,,,,,,,,,,,,,,,,,,,,,,,,,,,,,,,,,,,,,
,,,,,,,,,,,,a,Incorrect,0,15,15,43,1,t3.png,t1.png,2,0.056466,20,Female,2020-07-28_18h26.05.430,torte-2b,2020.1.3,Win32,60,13356,0.90743,,,,,,,,,,,,,,,,,,,,,,,,,,,,,,,,,,,,,,,,,,,,,,,,,,,,,,,,,,,,,,,,,
,,,,,,,,,,,,l,Correct!,0,16,16,13,1,t2.png,t4.png,2,0.059078,20,Female,2020-07-28_18h26.05.430,torte-2b,2020.1.3,Win32,60,13356,0.815755,,,,,,,,,,,,,,,,,,,,,,,,,,,,,,,,,,,,,,,,,,,,,,,,,,,,,,,,,,,,,,,,,
,,,,,,,,,,,,a,Incorrect,0,17,17,76,1,t4.png,t1.png,3,0.059078,20,Female,2020-07-28_18h26.05.430,torte-2b,2020.1.3,Win32,60,13356,0.632855,,,,,,,,,,,,,,,,,,,,,,,,,,,,,,,,,,,,,,,,,,,,,,,,,,,,,,,,,,,,,,,,,
,,,,,,,,,,,,a,Correct!,0,18,18,0,1,t3.png,t2.png,1,0.90855,20,Female,2020-07-28_18h26.05.430,torte-2b,2020.1.3,Win32,60,13356,1.373125,,,,,,,,,,,,,,,,,,,,,,,,,,,,,,,,,,,,,,,,,,,,,,,,,,,,,,,,,,,,,,,,,
,,,,,,,,,,,,a,Incorrect,0,19,19,66,1,t5.png,t1.png,4,9.55E-11,20,Female,2020-07-28_18h26.05.430,torte-2b,2020.1.3,Win32,60,13356,0.757155,,,,,,,,,,,,,,,,,,,,,,,,,,,,,,,,,,,,,,,,,,,,,,,,,,,,,,,,,,,,,,,,,
,,,,,,,,,,,,a,Correct!,0,20,20,46,1,t1.png,t1.png,0,0.97829,20,Female,2020-07-28_18h26.05.430,torte-2b,2020.1.3,Win32,60,13356,0.9917,,,,,,,,,,,,,,,,,,,,,,,,,,,,,,,,,,,,,,,,,,,,,,,,,,,,,,,,,,,,,,,,,
,,,,,,,,,,,,l,Incorrect,0,21,21,67,1,t3.png,t2.png,1,0.90855,20,Female,2020-07-28_18h26.05.430,torte-2b,2020.1.3,Win32,60,13356,0.998425,,,,,,,,,,,,,,,,,,,,,,,,,,,,,,,,,,,,,,,,,,,,,,,,,,,,,,,,,,,,,,,,,
,,,,,,,,,,,,a,Incorrect,0,22,22,74,1,t5.png,t1.png,4,9.55E-11,20,Female,2020-07-28_18h26.05.430,torte-2b,2020.1.3,Win32,60,13356,0.658265,,,,,,,,,,,,,,,,,,,,,,,,,,,,,,,,,,,,,,,,,,,,,,,,,,,,,,,,,,,,,,,,,
,,,,,,,,,,,,l,Incorrect,0,23,23,97,1,t1.png,t1.png,0,0.97829,20,Female,2020-07-28_18h26.05.430,torte-2b,2020.1.3,Win32,60,13356,0.73461,,,,,,,,,,,,,,,,,,,,,,,,,,,,,,,,,,,,,,,,,,,,,,,,,,,,,,,,,,,,,,,,,
,,,,,,,,,,,,l,Incorrect,0,24,24,12,1,t5.png,t5.png,0,0.97829,20,Female,2020-07-28_18h26.05.430,torte-2b,2020.1.3,Win32,60,13356,1.50009,,,,,,,,,,,,,,,,,,,,,,,,,,,,,,,,,,,,,,,,,,,,,,,,,,,,,,,,,,,,,,,,,
,,,,,,,,,,,,l,Incorrect,0,25,25,84,1,t2.png,t3.png,1,0.90855,20,Female,2020-07-28_18h26.05.430,torte-2b,2020.1.3,Win32,60,13356,1.11598,,,,,,,,,,,,,,,,,,,,,,,,,,,,,,,,,,,,,,,,,,,,,,,,,,,,,,,,,,,,,,,,,
,,,,,,,,,,,,a,Correct!,0,26,26,93,1,t5.png,t4.png,1,0.90025,20,Female,2020-07-28_18h26.05.430,torte-2b,2020.1.3,Win32,60,13356,1.116715,,,,,,,,,,,,,,,,,,,,,,,,,,,,,,,,,,,,,,,,,,,,,,,,,,,,,,,,,,,,,,,,,
,,,,,,,,,,,,l,Incorrect,0,27,27,42,1,t5.png,t5.png,0,0.97829,20,Female,2020-07-28_18h26.05.430,torte-2b,2020.1.3,Win32,60,13356,1.439025,,,,,,,,,,,,,,,,,,,,,,,,,,,,,,,,,,,,,,,,,,,,,,,,,,,,,,,,,,,,,,,,,
,,,,,,,,,,,,l,Correct!,0,28,28,107,1,t1.png,t4.png,3,0.0000131,20,Female,2020-07-28_18h26.05.430,torte-2b,2020.1.3,Win32,60,13356,0.68243,,,,,,,,,,,,,,,,,,,,,,,,,,,,,,,,,,,,,,,,,,,,,,,,,,,,,,,,,,,,,,,,,
,,,,,,,,,,,,a,Correct!,0,29,29,109,1,t5.png,t5.png,0,0.97829,20,Female,2020-07-28_18h26.05.430,torte-2b,2020.1.3,Win32,60,13356,0.85428,,,,,,,,,,,,,,,,,,,,,,,,,,,,,,,,,,,,,,,,,,,,,,,,,,,,,,,,,,,,,,,,,
,,,,,,,,,,,,l,Incorrect,0,30,30,47,1,t2.png,t3.png,1,0.90855,20,Female,2020-07-28_18h26.05.430,torte-2b,2020.1.3,Win32,60,13356,0.86995,,,,,,,,,,,,,,,,,,,,,,,,,,,,,,,,,,,,,,,,,,,,,,,,,,,,,,,,,,,,,,,,,
,,,,,,,,,,,,a,Correct!,0,31,31,77,1,t3.png,t2.png,1,0.90855,20,Female,2020-07-28_18h26.05.430,torte-2b,2020.1.3,Win32,60,13356,0.89911,,,,,,,,,,,,,,,,,,,,,,,,,,,,,,,,,,,,,,,,,,,,,,,,,,,,,,,,,,,,,,,,,
,,,,,,,,,,,,a,Correct!,0,32,32,72,1,t5.png,t5.png,0,0.97829,20,Female,2020-07-28_18h26.05.430,torte-2b,2020.1.3,Win32,60,13356,0.889675,,,,,,,,,,,,,,,,,,,,,,,,,,,,,,,,,,,,,,,,,,,,,,,,,,,,,,,,,,,,,,,,,
,,,,,,,,,,,,l,Correct!,0,33,33,37,1,t2.png,t4.png,2,0.059078,20,Female,2020-07-28_18h26.05.430,torte-2b,2020.1.3,Win32,60,13356,0.68751,,,,,,,,,,,,,,,,,,,,,,,,,,,,,,,,,,,,,,,,,,,,,,,,,,,,,,,,,,,,,,,,,
,,,,,,,,,,,,a,Incorrect,0,34,34,103,1,t4.png,t1.png,3,0.059078,20,Female,2020-07-28_18h26.05.430,torte-2b,2020.1.3,Win32,60,13356,0.75973,,,,,,,,,,,,,,,,,,,,,,,,,,,,,,,,,,,,,,,,,,,,,,,,,,,,,,,,,,,,,,,,,
,,,,,,,,,,,,l,Incorrect,0,35,35,15,1,t2.png,t3.png,1,0.90855,20,Female,2020-07-28_18h26.05.430,torte-2b,2020.1.3,Win32,60,13356,0.635795,,,,,,,,,,,,,,,,,,,,,,,,,,,,,,,,,,,,,,,,,,,,,,,,,,,,,,,,,,,,,,,,,
,,,,,,,,,,,,a,Incorrect,0,36,36,98,1,t5.png,t1.png,4,9.55E-11,20,Female,2020-07-28_18h26.05.430,torte-2b,2020.1.3,Win32,60,13356,0.670745,,,,,,,,,,,,,,,,,,,,,,,,,,,,,,,,,,,,,,,,,,,,,,,,,,,,,,,,,,,,,,,,,
,,,,,,,,,,,,l,Incorrect,0,37,37,116,1,t4.png,t5.png,1,0.90025,20,Female,2020-07-28_18h26.05.430,torte-2b,2020.1.3,Win32,60,13356,0.869585,,,,,,,,,,,,,,,,,,,,,,,,,,,,,,,,,,,,,,,,,,,,,,,,,,,,,,,,,,,,,,,,,
,,,,,,,,,,,,a,Incorrect,0,38,38,106,1,t4.png,t1.png,3,0.059078,20,Female,2020-07-28_18h26.05.430,torte-2b,2020.1.3,Win32,60,13356,0.552135,,,,,,,,,,,,,,,,,,,,,,,,,,,,,,,,,,,,,,,,,,,,,,,,,,,,,,,,,,,,,,,,,
,,,,,,,,,,,,a,Incorrect,0,39,39,64,1,t5.png,t1.png,4,9.55E-11,20,Female,2020-07-28_18h26.05.430,torte-2b,2020.1.3,Win32,60,13356,0.448445,,,,,,,,,,,,,,,,,,,,,,,,,,,,,,,,,,,,,,,,,,,,,,,,,,,,,,,,,,,,,,,,,
,,,,,,,,,,,,a,Incorrect,0,40,40,95,1,t1.png,t4.png,3,0.0000131,20,Female,2020-07-28_18h26.05.430,torte-2b,2020.1.3,Win32,60,13356,0.881025,,,,,,,,,,,,,,,,,,,,,,,,,,,,,,,,,,,,,,,,,,,,,,,,,,,,,,,,,,,,,,,,,
,,,,,,,,,,,,a,Incorrect,0,41,41,59,1,t5.png,t1.png,4,9.55E-11,20,Female,2020-07-28_18h26.05.430,torte-2b,2020.1.3,Win32,60,13356,0.566185,,,,,,,,,,,,,,,,,,,,,,,,,,,,,,,,,,,,,,,,,,,,,,,,,,,,,,,,,,,,,,,,,
,,,,,,,,,,,,l,Incorrect,0,42,42,52,1,t2.png,t3.png,1,0.90855,20,Female,2020-07-28_18h26.05.430,torte-2b,2020.1.3,Win32,60,13356,0.61651,,,,,,,,,,,,,,,,,,,,,,,,,,,,,,,,,,,,,,,,,,,,,,,,,,,,,,,,,,,,,,,,,
,,,,,,,,,,,,l,Incorrect,0,43,43,48,1,t2.png,t3.png,1,0.90855,20,Female,2020-07-28_18h26.05.430,torte-2b,2020.1.3,Win32,60,13356,0.591705,,,,,,,,,,,,,,,,,,,,,,,,,,,,,,,,,,,,,,,,,,,,,,,,,,,,,,,,,,,,,,,,,
,,,,,,,,,,,,l,Correct!,0,44,44,70,1,t1.png,t5.png,4,9.55E-11,20,Female,2020-07-28_18h26.05.430,torte-2b,2020.1.3,Win32,60,13356,0.53364,,,,,,,,,,,,,,,,,,,,,,,,,,,,,,,,,,,,,,,,,,,,,,,,,,,,,,,,,,,,,,,,,
,,,,,,,,,,,,a,Incorrect,0,45,45,99,1,t4.png,t1.png,3,0.059078,20,Female,2020-07-28_18h26.05.430,torte-2b,2020.1.3,Win32,60,13356,0.547265,,,,,,,,,,,,,,,,,,,,,,,,,,,,,,,,,,,,,,,,,,,,,,,,,,,,,,,,,,,,,,,,,
,,,,,,,,,,,,l,Incorrect,0,46,46,25,1,t1.png,t1.png,0,0.97829,20,Female,2020-07-28_18h26.05.430,torte-2b,2020.1.3,Win32,60,13356,1.082325,,,,,,,,,,,,,,,,,,,,,,,,,,,,,,,,,,,,,,,,,,,,,,,,,,,,,,,,,,,,,,,,,
,,,,,,,,,,,,a,Incorrect,0,47,47,17,1,t4.png,t1.png,3,0.059078,20,Female,2020-07-28_18h26.05.430,torte-2b,2020.1.3,Win32,60,13356,0.534585,,,,,,,,,,,,,,,,,,,,,,,,,,,,,,,,,,,,,,,,,,,,,,,,,,,,,,,,,,,,,,,,,
,,,,,,,,,,,,l,Correct!,0,48,48,102,1,t2.png,t4.png,2,0.059078,20,Female,2020-07-28_18h26.05.430,torte-2b,2020.1.3,Win32,60,13356,0.915505,,,,,,,,,,,,,,,,,,,,,,,,,,,,,,,,,,,,,,,,,,,,,,,,,,,,,,,,,,,,,,,,,
,,,,,,,,,,,,l,Incorrect,0,49,49,31,1,t1.png,t1.png,0,0.97829,20,Female,2020-07-28_18h26.05.430,torte-2b,2020.1.3,Win32,60,13356,0.849025,,,,,,,,,,,,,,,,,,,,,,,,,,,,,,,,,,,,,,,,,,,,,,,,,,,,,,,,,,,,,,,,,
,,,,,,,,,,,,a,Incorrect,0,50,50,94,1,t3.png,t1.png,2,0.056466,20,Female,2020-07-28_18h26.05.430,torte-2b,2020.1.3,Win32,60,13356,0.71613,,,,,,,,,,,,,,,,,,,,,,,,,,,,,,,,,,,,,,,,,,,,,,,,,,,,,,,,,,,,,,,,,
,,,,,,,,,,,,l,Incorrect,0,51,51,21,1,t5.png,t4.png,1,0.90025,20,Female,2020-07-28_18h26.05.430,torte-2b,2020.1.3,Win32,60,13356,0.89268,,,,,,,,,,,,,,,,,,,,,,,,,,,,,,,,,,,,,,,,,,,,,,,,,,,,,,,,,,,,,,,,,
,,,,,,,,,,,,l,Incorrect,0,52,52,41,1,t4.png,t5.png,1,0.90025,20,Female,2020-07-28_18h26.05.430,torte-2b,2020.1.3,Win32,60,13356,0.841185,,,,,,,,,,,,,,,,,,,,,,,,,,,,,,,,,,,,,,,,,,,,,,,,,,,,,,,,,,,,,,,,,
,,,,,,,,,,,,a,Incorrect,0,53,53,49,1,t5.png,t1.png,4,9.55E-11,20,Female,2020-07-28_18h26.05.430,torte-2b,2020.1.3,Win32,60,13356,0.582475,,,,,,,,,,,,,,,,,,,,,,,,,,,,,,,,,,,,,,,,,,,,,,,,,,,,,,,,,,,,,,,,,
,,,,,,,,,,,,a,Correct!,0,54,54,33,1,t3.png,t2.png,1,0.90855,20,Female,2020-07-28_18h26.05.430,torte-2b,2020.1.3,Win32,60,13356,0.821275,,,,,,,,,,,,,,,,,,,,,,,,,,,,,,,,,,,,,,,,,,,,,,,,,,,,,,,,,,,,,,,,,
,,,,,,,,,,,,l,Incorrect,0,55,55,18,1,t2.png,t3.png,1,0.90855,20,Female,2020-07-28_18h26.05.430,torte-2b,2020.1.3,Win32,60,13356,0.640735,,,,,,,,,,,,,,,,,,,,,,,,,,,,,,,,,,,,,,,,,,,,,,,,,,,,,,,,,,,,,,,,,
,,,,,,,,,,,,l,Incorrect,0,56,56,19,1,t2.png,t4.png,2,0.059078,20,Female,2020-07-28_18h26.05.430,torte-2b,2020.1.3,Win32,60,13356,0.48981,,,,,,,,,,,,,,,,,,,,,,,,,,,,,,,,,,,,,,,,,,,,,,,,,,,,,,,,,,,,,,,,,
,,,,,,,,,,,,a,Incorrect,0,57,57,81,1,t3.png,t1.png,2,0.056466,20,Female,2020-07-28_18h26.05.430,torte-2b,2020.1.3,Win32,60,13356,0.48145,,,,,,,,,,,,,,,,,,,,,,,,,,,,,,,,,,,,,,,,,,,,,,,,,,,,,,,,,,,,,,,,,
,,,,,,,,,,,,l,Incorrect,0,58,58,22,1,t5.png,t5.png,0,0.97829,20,Female,2020-07-28_18h26.05.430,torte-2b,2020.1.3,Win32,60,13356,1.122045,,,,,,,,,,,,,,,,,,,,,,,,,,,,,,,,,,,,,,,,,,,,,,,,,,,,,,,,,,,,,,,,,
,,,,,,,,,,,,l,Correct!,0,59,59,96,1,t2.png,t4.png,2,0.059078,20,Female,2020-07-28_18h26.05.430,torte-2b,2020.1.3,Win32,60,13356,0.71554,,,,,,,,,,,,,,,,,,,,,,,,,,,,,,,,,,,,,,,,,,,,,,,,,,,,,,,,,,,,,,,,,
,,,,,,,,,,,,a,Correct!,0,60,60,60,1,t4.png,t5.png,1,0.90025,20,Female,2020-07-28_18h26.05.430,torte-2b,2020.1.3,Win32,60,13356,0.80667,,,,,,,,,,,,,,,,,,,,,,,,,,,,,,,,,,,,,,,,,,,,,,,,,,,,,,,,,,,,,,,,,
,,,,,,,,,,,,a,Correct!,0,61,61,24,1,t5.png,t5.png,0,0.97829,20,Female,2020-07-28_18h26.05.430,torte-2b,2020.1.3,Win32,60,13356,0.774215,,,,,,,,,,,,,,,,,,,,,,,,,,,,,,,,,,,,,,,,,,,,,,,,,,,,,,,,,,,,,,,,,
,,,,,,,,,,,,l,Correct!,0,62,62,27,1,t1.png,t5.png,4,9.55E-11,20,Female,2020-07-28_18h26.05.430,torte-2b,2020.1.3,Win32,60,13356,0.88179,,,,,,,,,,,,,,,,,,,,,,,,,,,,,,,,,,,,,,,,,,,,,,,,,,,,,,,,,,,,,,,,,
,,,,,,,,,,,,l,Correct!,0,63,63,78,1,t1.png,t4.png,3,0.0000131,20,Female,2020-07-28_18h26.05.430,torte-2b,2020.1.3,Win32,60,13356,0.64975,,,,,,,,,,,,,,,,,,,,,,,,,,,,,,,,,,,,,,,,,,,,,,,,,,,,,,,,,,,,,,,,,
,,,,,,,,,,,,a,Correct!,0,64,64,58,1,t4.png,t5.png,1,0.90025,20,Female,2020-07-28_18h26.05.430,torte-2b,2020.1.3,Win32,60,13356,1.299035,,,,,,,,,,,,,,,,,,,,,,,,,,,,,,,,,,,,,,,,,,,,,,,,,,,,,,,,,,,,,,,,,
,,,,,,,,,,,,a,Correct!,0,65,65,71,1,t4.png,t5.png,1,0.90025,20,Female,2020-07-28_18h26.05.430,torte-2b,2020.1.3,Win32,60,13356,0.90194,,,,,,,,,,,,,,,,,,,,,,,,,,,,,,,,,,,,,,,,,,,,,,,,,,,,,,,,,,,,,,,,,
,,,,,,,,,,,,a,Incorrect,0,66,66,1,1,t3.png,t1.png,2,0.056466,20,Female,2020-07-28_18h26.05.430,torte-2b,2020.1.3,Win32,60,13356,0.83418,,,,,,,,,,,,,,,,,,,,,,,,,,,,,,,,,,,,,,,,,,,,,,,,,,,,,,,,,,,,,,,,,
,,,,,,,,,,,,l,Incorrect,0,67,67,14,1,t2.png,t3.png,1,0.90855,20,Female,2020-07-28_18h26.05.430,torte-2b,2020.1.3,Win32,60,13356,1.11522,,,,,,,,,,,,,,,,,,,,,,,,,,,,,,,,,,,,,,,,,,,,,,,,,,,,,,,,,,,,,,,,,
,,,,,,,,,,,,a,Correct!,0,68,68,23,1,t4.png,t5.png,1,0.90025,20,Female,2020-07-28_18h26.05.430,torte-2b,2020.1.3,Win32,60,13356,1.01662,,,,,,,,,,,,,,,,,,,,,,,,,,,,,,,,,,,,,,,,,,,,,,,,,,,,,,,,,,,,,,,,,
,,,,,,,,,,,,l,Correct!,0,69,69,9,1,t1.png,t5.png,4,9.55E-11,20,Female,2020-07-28_18h26.05.430,torte-2b,2020.1.3,Win32,60,13356,0.966295,,,,,,,,,,,,,,,,,,,,,,,,,,,,,,,,,,,,,,,,,,,,,,,,,,,,,,,,,,,,,,,,,
,,,,,,,,,,,,a,Incorrect,0,70,70,54,1,t3.png,t1.png,2,0.056466,20,Female,2020-07-28_18h26.05.430,torte-2b,2020.1.3,Win32,60,13356,1.20862,,,,,,,,,,,,,,,,,,,,,,,,,,,,,,,,,,,,,,,,,,,,,,,,,,,,,,,,,,,,,,,,,
,,,,,,,,,,,,a,Correct!,0,71,71,55,1,t1.png,t1.png,0,0.97829,20,Female,2020-07-28_18h26.05.430,torte-2b,2020.1.3,Win32,60,13356,1.366355,,,,,,,,,,,,,,,,,,,,,,,,,,,,,,,,,,,,,,,,,,,,,,,,,,,,,,,,,,,,,,,,,
,,,,,,,,,,,,a,Incorrect,0,72,72,73,1,t3.png,t1.png,2,0.056466,20,Female,2020-07-28_18h26.05.430,torte-2b,2020.1.3,Win32,60,13356,0.66547,,,,,,,,,,,,,,,,,,,,,,,,,,,,,,,,,,,,,,,,,,,,,,,,,,,,,,,,,,,,,,,,,
,,,,,,,,,,,,a,Incorrect,0,73,73,8,1,t5.png,t5.png,0,0.97829,20,Female,2020-07-28_18h26.05.430,torte-2b,2020.1.3,Win32,60,13356,0.94482,,,,,,,,,,,,,,,,,,,,,,,,,,,,,,,,,,,,,,,,,,,,,,,,,,,,,,,,,,,,,,,,,
,,,,,,,,,,,,l,Incorrect,0,74,74,20,1,t5.png,t5.png,0,0.97829,20,Female,2020-07-28_18h26.05.430,torte-2b,2020.1.3,Win32,60,13356,0.87519,,,,,,,,,,,,,,,,,,,,,,,,,,,,,,,,,,,,,,,,,,,,,,,,,,,,,,,,,,,,,,,,,
,,,,,,,,,,,,a,Incorrect,0,75,75,80,1,t4.png,t1.png,3,0.059078,20,Female,2020-07-28_18h26.05.430,torte-2b,2020.1.3,Win32,60,13356,0.922655,,,,,,,,,,,,,,,,,,,,,,,,,,,,,,,,,,,,,,,,,,,,,,,,,,,,,,,,,,,,,,,,,
,,,,,,,,,,,,l,Correct!,0,76,76,28,1,t1.png,t4.png,3,0.0000131,20,Female,2020-07-28_18h26.05.430,torte-2b,2020.1.3,Win32,60,13356,0.586255,,,,,,,,,,,,,,,,,,,,,,,,,,,,,,,,,,,,,,,,,,,,,,,,,,,,,,,,,,,,,,,,,
,,,,,,,,,,,,a,Incorrect,0,77,77,3,1,t4.png,t1.png,3,0.059078,20,Female,2020-07-28_18h26.05.430,torte-2b,2020.1.3,Win32,60,13356,0.465085,,,,,,,,,,,,,,,,,,,,,,,,,,,,,,,,,,,,,,,,,,,,,,,,,,,,,,,,,,,,,,,,,
,,,,,,,,,,,,l,Correct!,0,78,78,69,1,t5.png,t4.png,1,0.90025,20,Female,2020-07-28_18h26.05.430,torte-2b,2020.1.3,Win32,60,13356,1.348755,,,,,,,,,,,,,,,,,,,,,,,,,,,,,,,,,,,,,,,,,,,,,,,,,,,,,,,,,,,,,,,,,
,,,,,,,,,,,,l,Correct!,0,79,79,57,1,t3.png,t1.png,2,0.056466,20,Female,2020-07-28_18h26.05.430,torte-2b,2020.1.3,Win32,60,13356,0.899395,,,,,,,,,,,,,,,,,,,,,,,,,,,,,,,,,,,,,,,,,,,,,,,,,,,,,,,,,,,,,,,,,
,,,,,,,,,,,,a,Correct!,0,80,80,111,1,t1.png,t1.png,0,0.97829,20,Female,2020-07-28_18h26.05.430,torte-2b,2020.1.3,Win32,60,13356,0.99858,,,,,,,,,,,,,,,,,,,,,,,,,,,,,,,,,,,,,,,,,,,,,,,,,,,,,,,,,,,,,,,,,
,,,,,,,,,,,,a,Correct!,0,81,81,90,1,t4.png,t5.png,1,0.90025,20,Female,2020-07-28_18h26.05.430,torte-2b,2020.1.3,Win32,60,13356,0.67511,,,,,,,,,,,,,,,,,,,,,,,,,,,,,,,,,,,,,,,,,,,,,,,,,,,,,,,,,,,,,,,,,
,,,,,,,,,,,,a,Correct!,0,82,82,110,1,t4.png,t5.png,1,0.90025,20,Female,2020-07-28_18h26.05.430,torte-2b,2020.1.3,Win32,60,13356,0.75597,,,,,,,,,,,,,,,,,,,,,,,,,,,,,,,,,,,,,,,,,,,,,,,,,,,,,,,,,,,,,,,,,
,,,,,,,,,,,,l,Correct!,0,83,83,62,1,t1.png,t4.png,3,0.0000131,20,Female,2020-07-28_18h26.05.430,torte-2b,2020.1.3,Win32,60,13356,0.870155,,,,,,,,,,,,,,,,,,,,,,,,,,,,,,,,,,,,,,,,,,,,,,,,,,,,,,,,,,,,,,,,,
,,,,,,,,,,,,a,Incorrect,0,84,84,92,1,t5.png,t1.png,4,9.55E-11,20,Female,2020-07-28_18h26.05.430,torte-2b,2020.1.3,Win32,60,13356,1.01214,,,,,,,,,,,,,,,,,,,,,,,,,,,,,,,,,,,,,,,,,,,,,,,,,,,,,,,,,,,,,,,,,
,,,,,,,,,,,,a,Incorrect,0,85,85,108,1,t3.png,t1.png,2,0.056466,20,Female,2020-07-28_18h26.05.430,torte-2b,2020.1.3,Win32,60,13356,1.3482,,,,,,,,,,,,,,,,,,,,,,,,,,,,,,,,,,,,,,,,,,,,,,,,,,,,,,,,,,,,,,,,,
,,,,,,,,,,,,l,Incorrect,0,86,86,83,1,t3.png,t2.png,1,0.90855,20,Female,2020-07-28_18h26.05.430,torte-2b,2020.1.3,Win32,60,13356,1.386035,,,,,,,,,,,,,,,,,,,,,,,,,,,,,,,,,,,,,,,,,,,,,,,,,,,,,,,,,,,,,,,,,
,,,,,,,,,,,,a,Incorrect,0,87,87,51,1,t4.png,t1.png,3,0.059078,20,Female,2020-07-28_18h26.05.430,torte-2b,2020.1.3,Win32,60,13356,0.84943,,,,,,,,,,,,,,,,,,,,,,,,,,,,,,,,,,,,,,,,,,,,,,,,,,,,,,,,,,,,,,,,,
,,,,,,,,,,,,l,Correct!,0,88,88,7,1,t3.png,t2.png,1,0.90855,20,Female,2020-07-28_18h26.05.430,torte-2b,2020.1.3,Win32,60,13356,1.353625,,,,,,,,,,,,,,,,,,,,,,,,,,,,,,,,,,,,,,,,,,,,,,,,,,,,,,,,,,,,,,,,,
,,,,,,,,,,,,l,Correct!,0,89,89,16,1,t1.png,t5.png,4,9.55E-11,20,Female,2020-07-28_18h26.05.430,torte-2b,2020.1.3,Win32,60,13356,1.463765,,,,,,,,,,,,,,,,,,,,,,,,,,,,,,,,,,,,,,,,,,,,,,,,,,,,,,,,,,,,,,,,,
,,,,,,,,,,,,l,Incorrect,0,90,90,75,1,t2.png,t3.png,1,0.90855,20,Female,2020-07-28_18h26.05.430,torte-2b,2020.1.3,Win32,60,13356,0.906925,,,,,,,,,,,,,,,,,,,,,,,,,,,,,,,,,,,,,,,,,,,,,,,,,,,,,,,,,,,,,,,,,
,,,,,,,,,,,,a,Correct!,0,91,91,114,1,t5.png,t4.png,1,0.90025,20,Female,2020-07-28_18h26.05.430,torte-2b,2020.1.3,Win32,60,13356,1.31578,,,,,,,,,,,,,,,,,,,,,,,,,,,,,,,,,,,,,,,,,,,,,,,,,,,,,,,,,,,,,,,,,
,,,,,,,,,,,,l,Correct!,0,92,92,87,1,t5.png,t1.png,4,9.55E-11,20,Female,2020-07-28_18h26.05.430,torte-2b,2020.1.3,Win32,60,13356,1.623805,,,,,,,,,,,,,,,,,,,,,,,,,,,,,,,,,,,,,,,,,,,,,,,,,,,,,,,,,,,,,,,,,
,,,,,,,,,,,,a,Correct!,0,93,93,45,1,t4.png,t5.png,1,0.90025,20,Female,2020-07-28_18h26.05.430,torte-2b,2020.1.3,Win32,60,13356,0.989135,,,,,,,,,,,,,,,,,,,,,,,,,,,,,,,,,,,,,,,,,,,,,,,,,,,,,,,,,,,,,,,,,
,,,,,,,,,,,,l,Correct!,0,94,94,26,1,t1.png,t5.png,4,9.55E-11,20,Female,2020-07-28_18h26.05.430,torte-2b,2020.1.3,Win32,60,13356,1.49866,,,,,,,,,,,,,,,,,,,,,,,,,,,,,,,,,,,,,,,,,,,,,,,,,,,,,,,,,,,,,,,,,
,,,,,,,,,,,,l,Correct!,0,95,95,11,1,t1.png,t4.png,3,0.0000131,20,Female,2020-07-28_18h26.05.430,torte-2b,2020.1.3,Win32,60,13356,0.838885,,,,,,,,,,,,,,,,,,,,,,,,,,,,,,,,,,,,,,,,,,,,,,,,,,,,,,,,,,,,,,,,,
,,,,,,,,,,,,a,Correct!,0,96,96,29,1,t3.png,t2.png,1,0.90855,20,Female,2020-07-28_18h26.05.430,torte-2b,2020.1.3,Win32,60,13356,1.31477,,,,,,,,,,,,,,,,,,,,,,,,,,,,,,,,,,,,,,,,,,,,,,,,,,,,,,,,,,,,,,,,,
,,,,,,,,,,,,a,Incorrect,0,97,97,10,1,t4.png,t1.png,3,0.059078,20,Female,2020-07-28_18h26.05.430,torte-2b,2020.1.3,Win32,60,13356,1.104505,,,,,,,,,,,,,,,,,,,,,,,,,,,,,,,,,,,,,,,,,,,,,,,,,,,,,,,,,,,,,,,,,
,,,,,,,,,,,,l,Correct!,0,98,98,115,1,t2.png,t4.png,2,0.059078,20,Female,2020-07-28_18h26.05.430,torte-2b,2020.1.3,Win32,60,13356,0.98304,,,,,,,,,,,,,,,,,,,,,,,,,,,,,,,,,,,,,,,,,,,,,,,,,,,,,,,,,,,,,,,,,
,,,,,,,,,,,,l,Correct!,0,99,99,2,1,t3.png,t1.png,2,0.056466,20,Female,2020-07-28_18h26.05.430,torte-2b,2020.1.3,Win32,60,13356,0.720615,,,,,,,,,,,,,,,,,,,,,,,,,,,,,,,,,,,,,,,,,,,,,,,,,,,,,,,,,,,,,,,,,
,,,,,,,,,,,,l,Correct!,0,100,100,63,1,t1.png,t5.png,4,9.55E-11,20,Female,2020-07-28_18h26.05.430,torte-2b,2020.1.3,Win32,60,13356,1.28186,,,,,,,,,,,,,,,,,,,,,,,,,,,,,,,,,,,,,,,,,,,,,,,,,,,,,,,,,,,,,,,,,
,,,,,,,,,,,,a,Correct!,0,101,101,61,1,t1.png,t1.png,0,0.97829,20,Female,2020-07-28_18h26.05.430,torte-2b,2020.1.3,Win32,60,13356,1.073475,,,,,,,,,,,,,,,,,,,,,,,,,,,,,,,,,,,,,,,,,,,,,,,,,,,,,,,,,,,,,,,,,
,,,,,,,,,,,,l,Correct!,0,102,102,40,1,t2.png,t4.png,2,0.059078,20,Female,2020-07-28_18h26.05.430,torte-2b,2020.1.3,Win32,60,13356,1.03107,,,,,,,,,,,,,,,,,,,,,,,,,,,,,,,,,,,,,,,,,,,,,,,,,,,,,,,,,,,,,,,,,
,,,,,,,,,,,,a,Incorrect,0,103,103,82,1,t3.png,t1.png,2,0.056466,20,Female,2020-07-28_18h26.05.430,torte-2b,2020.1.3,Win32,60,13356,1.389485,,,,,,,,,,,,,,,,,,,,,,,,,,,,,,,,,,,,,,,,,,,,,,,,,,,,,,,,,,,,,,,,,
,,,,,,,,,,,,a,Incorrect,0,104,104,6,1,t5.png,t1.png,4,9.55E-11,20,Female,2020-07-28_18h26.05.430,torte-2b,2020.1.3,Win32,60,13356,1.11999,,,,,,,,,,,,,,,,,,,,,,,,,,,,,,,,,,,,,,,,,,,,,,,,,,,,,,,,,,,,,,,,,
,,,,,,,,,,,,l,Correct!,0,105,105,105,1,t4.png,t1.png,3,0.059078,20,Female,2020-07-28_18h26.05.430,torte-2b,2020.1.3,Win32,60,13356,0.742435,,,,,,,,,,,,,,,,,,,,,,,,,,,,,,,,,,,,,,,,,,,,,,,,,,,,,,,,,,,,,,,,,
,,,,,,,,,,,,l,Correct!,0,106,106,34,1,t1.png,t5.png,4,9.55E-11,20,Female,2020-07-28_18h26.05.430,torte-2b,2020.1.3,Win32,60,13356,1.45396,,,,,,,,,,,,,,,,,,,,,,,,,,,,,,,,,,,,,,,,,,,,,,,,,,,,,,,,,,,,,,,,,
,,,,,,,,,,,,a,Correct!,0,107,107,65,1,t5.png,t5.png,0,0.97829,20,Female,2020-07-28_18h26.05.430,torte-2b,2020.1.3,Win32,60,13356,0.967265,,,,,,,,,,,,,,,,,,,,,,,,,,,,,,,,,,,,,,,,,,,,,,,,,,,,,,,,,,,,,,,,,
,,,,,,,,,,,,a,Correct!,0,108,108,119,1,t5.png,t4.png,1,0.90025,20,Female,2020-07-28_18h26.05.430,torte-2b,2020.1.3,Win32,60,13356,0.908595,,,,,,,,,,,,,,,,,,,,,,,,,,,,,,,,,,,,,,,,,,,,,,,,,,,,,,,,,,,,,,,,,
,,,,,,,,,,,,a,Correct!,0,109,109,53,1,t1.png,t1.png,0,0.97829,20,Female,2020-07-28_18h26.05.430,torte-2b,2020.1.3,Win32,60,13356,0.982035,,,,,,,,,,,,,,,,,,,,,,,,,,,,,,,,,,,,,,,,,,,,,,,,,,,,,,,,,,,,,,,,,
,,,,,,,,,,,,l,Incorrect,0,110,110,30,1,t2.png,t3.png,1,0.90855,20,Female,2020-07-28_18h26.05.430,torte-2b,2020.1.3,Win32,60,13356,1.286335,,,,,,,,,,,,,,,,,,,,,,,,,,,,,,,,,,,,,,,,,,,,,,,,,,,,,,,,,,,,,,,,,
,,,,,,,,,,,,a,Correct!,0,111,111,91,1,t5.png,t4.png,1,0.90025,20,Female,2020-07-28_18h26.05.430,torte-2b,2020.1.3,Win32,60,13356,0.971035,,,,,,,,,,,,,,,,,,,,,,,,,,,,,,,,,,,,,,,,,,,,,,,,,,,,,,,,,,,,,,,,,
,,,,,,,,,,,,a,Correct!,0,112,112,4,1,t3.png,t2.png,1,0.90855,20,Female,2020-07-28_18h26.05.430,torte-2b,2020.1.3,Win32,60,13356,0.88271,,,,,,,,,,,,,,,,,,,,,,,,,,,,,,,,,,,,,,,,,,,,,,,,,,,,,,,,,,,,,,,,,
,,,,,,,,,,,,l,Correct!,0,113,113,89,1,t1.png,t5.png,4,9.55E-11,20,Female,2020-07-28_18h26.05.430,torte-2b,2020.1.3,Win32,60,13356,0.993145,,,,,,,,,,,,,,,,,,,,,,,,,,,,,,,,,,,,,,,,,,,,,,,,,,,,,,,,,,,,,,,,,
,,,,,,,,,,,,a,Correct!,0,114,114,32,1,t3.png,t2.png,1,0.90855,20,Female,2020-07-28_18h26.05.430,torte-2b,2020.1.3,Win32,60,13356,1.14685,,,,,,,,,,,,,,,,,,,,,,,,,,,,,,,,,,,,,,,,,,,,,,,,,,,,,,,,,,,,,,,,,
,,,,,,,,,,,,a,Incorrect,0,115,115,113,1,t5.png,t1.png,4,9.55E-11,20,Female,2020-07-28_18h26.05.430,torte-2b,2020.1.3,Win32,60,13356,1.538525,,,,,,,,,,,,,,,,,,,,,,,,,,,,,,,,,,,,,,,,,,,,,,,,,,,,,,,,,,,,,,,,,
,,,,,,,,,,,,l,Correct!,0,116,116,68,1,t2.png,t4.png,2,0.059078,20,Female,2020-07-28_18h26.05.430,torte-2b,2020.1.3,Win32,60,13356,1.10618,,,,,,,,,,,,,,,,,,,,,,,,,,,,,,,,,,,,,,,,,,,,,,,,,,,,,,,,,,,,,,,,,
,,,,,,,,,,,,l,Correct!,0,117,117,39,1,t2.png,t4.png,2,0.059078,20,Female,2020-07-28_18h26.05.430,torte-2b,2020.1.3,Win32,60,13356,0.98251,,,,,,,,,,,,,,,,,,,,,,,,,,,,,,,,,,,,,,,,,,,,,,,,,,,,,,,,,,,,,,,,,
,,,,,,,,,,,,l,Correct!,0,118,118,50,1,t1.png,t5.png,4,9.55E-11,20,Female,2020-07-28_18h26.05.430,torte-2b,2020.1.3,Win32,60,13356,1.265655,,,,,,,,,,,,,,,,,,,,,,,,,,,,,,,,,,,,,,,,,,,,,,,,,,,,,,,,,,,,,,,,,
,,,,,,,,,,,,l,Correct!,0,119,119,36,1,t1.png,t4.png,3,0.0000131,20,Female,2020-07-28_18h26.05.430,torte-2b,2020.1.3,Win32,60,13356,0.70137,,,,,,,,,,,,,,,,,,,,,,,,,,,,,,,,,,,,,,,,,,,,,,,,,,,,,,,,,,,,,,,,,
,,,,,,,,,,,,a,Incorrect,,,,,,t5.png,t3.png,2,0.056466,20,Female,2020-07-28_18h26.05.430,torte-2b,2020.1.3,Win32,60,13356,1.007015,space,7.35861,space,7.11695,0,0,0,27,1,,,,,,,,,,,,,,,,,,,,,,,,,,,,,,,,,,,,,,,,,,,,,,,,,,,,,,,,
,,,,,,,,,,,,l,Correct!,,,,,,t1.png,t4.png,3,0.0000131,20,Female,2020-07-28_18h26.05.430,torte-2b,2020.1.3,Win32,60,13356,1.55306,,,,,0,1,1,16,1,,,,,,,,,,,,,,,,,,,,,,,,,,,,,,,,,,,,,,,,,,,,,,,,,,,,,,,,
,,,,,,,,,,,,a,Correct!,,,,,,t4.png,t4.png,0,0.98115,20,Female,2020-07-28_18h26.05.430,torte-2b,2020.1.3,Win32,60,13356,1.048755,,,,,0,2,2,59,1,,,,,,,,,,,,,,,,,,,,,,,,,,,,,,,,,,,,,,,,,,,,,,,,,,,,,,,,
,,,,,,,,,,,,a,Incorrect,,,,,,t4.png,t1.png,3,0.0000131,20,Female,2020-07-28_18h26.05.430,torte-2b,2020.1.3,Win32,60,13356,1.266675,,,,,0,3,3,91,1,,,,,,,,,,,,,,,,,,,,,,,,,,,,,,,,,,,,,,,,,,,,,,,,,,,,,,,,
,,,,,,,,,,,,a,Correct!,,,,,,t2.png,t3.png,1,0.90855,20,Female,2020-07-28_18h26.05.430,torte-2b,2020.1.3,Win32,60,13356,1.81776,,,,,0,4,4,64,1,,,,,,,,,,,,,,,,,,,,,,,,,,,,,,,,,,,,,,,,,,,,,,,,,,,,,,,,
,,,,,,,,,,,,l,Correct!,,,,,,t4.png,t1.png,3,0.0000131,20,Female,2020-07-28_18h26.05.430,torte-2b,2020.1.3,Win32,60,13356,1.849795,,,,,0,5,5,102,1,,,,,,,,,,,,,,,,,,,,,,,,,,,,,,,,,,,,,,,,,,,,,,,,,,,,,,,,
,,,,,,,,,,,,a,Correct!,,,,,,t4.png,t5.png,1,0.90025,20,Female,2020-07-28_18h26.05.430,torte-2b,2020.1.3,Win32,60,13356,1.232305,,,,,0,6,6,86,1,,,,,,,,,,,,,,,,,,,,,,,,,,,,,,,,,,,,,,,,,,,,,,,,,,,,,,,,
,,,,,,,,,,,,a,Correct!,,,,,,t4.png,t5.png,1,0.9,20,Female,2020-07-28_18h26.05.430,torte-2b,2020.1.3,Win32,60,13356,0.947395,,,,,0,7,7,81,1,,,,,,,,,,,,,,,,,,,,,,,,,,,,,,,,,,,,,,,,,,,,,,,,,,,,,,,,
,,,,,,,,,,,,l,Incorrect,,,,,,t2.png,t2.png,0,0.98115,20,Female,2020-07-28_18h26.05.430,torte-2b,2020.1.3,Win32,60,13356,1.9333,,,,,0,8,8,7,1,,,,,,,,,,,,,,,,,,,,,,,,,,,,,,,,,,,,,,,,,,,,,,,,,,,,,,,,
,,,,,,,,,,,,l,Incorrect,,,,,,t1.png,t2.png,1,0.90025,20,Female,2020-07-28_18h26.05.430,torte-2b,2020.1.3,Win32,60,13356,1.765435,,,,,0,9,9,96,1,,,,,,,,,,,,,,,,,,,,,,,,,,,,,,,,,,,,,,,,,,,,,,,,,,,,,,,,
,,,,,,,,,,,,a,Incorrect,,,,,,t2.png,t4.png,2,0.059078,20,Female,2020-07-28_18h26.05.430,torte-2b,2020.1.3,Win32,60,13356,1.42141,,,,,0,10,10,18,1,,,,,,,,,,,,,,,,,,,,,,,,,,,,,,,,,,,,,,,,,,,,,,,,,,,,,,,,
,,,,,,,,,,,,l,Incorrect,,,,,,t1.png,t2.png,1,0.9,20,Female,2020-07-28_18h26.05.430,torte-2b,2020.1.3,Win32,60,13356,1.62343,,,,,0,11,11,61,1,,,,,,,,,,,,,,,,,,,,,,,,,,,,,,,,,,,,,,,,,,,,,,,,,,,,,,,,
,,,,,,,,,,,,l,Correct!,,,,,,t1.png,t5.png,4,9.55E-11,20,Female,2020-07-28_18h26.05.430,torte-2b,2020.1.3,Win32,60,13356,1.555885,,,,,0,12,12,3,1,,,,,,,,,,,,,,,,,,,,,,,,,,,,,,,,,,,,,,,,,,,,,,,,,,,,,,,,
,,,,,,,,,,,,a,Incorrect,,,,,,t5.png,t2.png,3,0.0000131,20,Female,2020-07-28_18h26.05.430,torte-2b,2020.1.3,Win32,60,13356,1.631625,,,,,0,13,13,83,1,,,,,,,,,,,,,,,,,,,,,,,,,,,,,,,,,,,,,,,,,,,,,,,,,,,,,,,,
,,,,,,,,,,,,a,Correct!,,,,,,t4.png,t3.png,1,0.90855,20,Female,2020-07-28_18h26.05.430,torte-2b,2020.1.3,Win32,60,13356,1.891055,,,,,0,14,14,11,1,,,,,,,,,,,,,,,,,,,,,,,,,,,,,,,,,,,,,,,,,,,,,,,,,,,,,,,,
,,,,,,,,,,,,a,Correct!,,,,,,t5.png,t4.png,1,0.90025,20,Female,2020-07-28_18h26.05.430,torte-2b,2020.1.3,Win32,60,13356,1.23364,,,,,0,15,15,14,1,,,,,,,,,,,,,,,,,,,,,,,,,,,,,,,,,,,,,,,,,,,,,,,,,,,,,,,,
,,,,,,,,,,,,l,Incorrect,,,,,,t3.png,t4.png,1,0.90855,20,Female,2020-07-28_18h26.05.430,torte-2b,2020.1.3,Win32,60,13356,1.16641,,,,,0,16,16,9,1,,,,,,,,,,,,,,,,,,,,,,,,,,,,,,,,,,,,,,,,,,,,,,,,,,,,,,,,
,,,,,,,,,,,,l,Correct!,,,,,,t3.png,t5.png,2,0.056466,20,Female,2020-07-28_18h26.05.430,torte-2b,2020.1.3,Win32,60,13356,1.5013,,,,,0,17,17,78,1,,,,,,,,,,,,,,,,,,,,,,,,,,,,,,,,,,,,,,,,,,,,,,,,,,,,,,,,
,,,,,,,,,,,,a,Incorrect,,,,,,t5.png,t1.png,4,9.55E-11,20,Female,2020-07-28_18h26.05.430,torte-2b,2020.1.3,Win32,60,13356,1.79812,,,,,0,18,18,101,1,,,,,,,,,,,,,,,,,,,,,,,,,,,,,,,,,,,,,,,,,,,,,,,,,,,,,,,,
,,,,,,,,,,,,l,Correct!,,,,,,t5.png,t1.png,4,9.55E-11,20,Female,2020-07-28_18h26.05.430,torte-2b,2020.1.3,Win32,60,13356,0.698975,,,,,0,19,19,15,1,,,,,,,,,,,,,,,,,,,,,,,,,,,,,,,,,,,,,,,,,,,,,,,,,,,,,,,,
,,,,,,,,,,,,a,Correct!,,,,,,t1.png,t1.png,0,0.97829,20,Female,2020-07-28_18h26.05.430,torte-2b,2020.1.3,Win32,60,13356,1.1893,,,,,0,20,20,4,1,,,,,,,,,,,,,,,,,,,,,,,,,,,,,,,,,,,,,,,,,,,,,,,,,,,,,,,,
,,,,,,,,,,,,a,Correct!,,,,,,t3.png,t2.png,1,0.90855,20,Female,2020-07-28_18h26.05.430,torte-2b,2020.1.3,Win32,60,13356,1.038855,,,,,0,21,21,94,1,,,,,,,,,,,,,,,,,,,,,,,,,,,,,,,,,,,,,,,,,,,,,,,,,,,,,,,,
,,,,,,,,,,,,a,Incorrect,,,,,,t5.png,t1.png,4,9.55E-11,20,Female,2020-07-28_18h26.05.430,torte-2b,2020.1.3,Win32,60,13356,1.20668,,,,,0,22,22,89,1,,,,,,,,,,,,,,,,,,,,,,,,,,,,,,,,,,,,,,,,,,,,,,,,,,,,,,,,
,,,,,,,,,,,,l,Correct!,,,,,,t3.png,t5.png,2,0.056466,20,Female,2020-07-28_18h26.05.430,torte-2b,2020.1.3,Win32,60,13356,1.406905,,,,,0,23,23,47,1,,,,,,,,,,,,,,,,,,,,,,,,,,,,,,,,,,,,,,,,,,,,,,,,,,,,,,,,
,,,,,,,,,,,,l,Correct!,,,,,,t2.png,t4.png,2,0.059078,20,Female,2020-07-28_18h26.05.430,torte-2b,2020.1.3,Win32,60,13356,1.765525,,,,,0,24,24,67,1,,,,,,,,,,,,,,,,,,,,,,,,,,,,,,,,,,,,,,,,,,,,,,,,,,,,,,,,
,,,,,,,,,,,,l,Correct!,,,,,,t2.png,t4.png,2,0.059078,20,Female,2020-07-28_18h26.05.430,torte-2b,2020.1.3,Win32,60,13356,0.873305,,,,,0,25,25,53,1,,,,,,,,,,,,,,,,,,,,,,,,,,,,,,,,,,,,,,,,,,,,,,,,,,,,,,,,
,,,,,,,,,,,,a,Correct!,,,,,,t4.png,t4.png,0,0.98115,20,Female,2020-07-28_18h26.05.430,torte-2b,2020.1.3,Win32,60,13356,1.07154,,,,,0,26,26,19,1,,,,,,,,,,,,,,,,,,,,,,,,,,,,,,,,,,,,,,,,,,,,,,,,,,,,,,,,
,,,,,,,,,,,,a,Incorrect,,,,,,t4.png,t1.png,3,0.0000131,20,Female,2020-07-28_18h26.05.430,torte-2b,2020.1.3,Win32,60,13356,1.24881,,,,,0,27,27,49,1,,,,,,,,,,,,,,,,,,,,,,,,,,,,,,,,,,,,,,,,,,,,,,,,,,,,,,,,
,,,,,,,,,,,,a,Incorrect,,,,,,t3.png,t1.png,2,0.056466,20,Female,2020-07-28_18h26.05.430,torte-2b,2020.1.3,Win32,60,13356,1.548395,,,,,0,28,28,72,1,,,,,,,,,,,,,,,,,,,,,,,,,,,,,,,,,,,,,,,,,,,,,,,,,,,,,,,,
,,,,,,,,,,,,a,Correct!,,,,,,t5.png,t5.png,0,0.97829,20,Female,2020-07-28_18h26.05.430,torte-2b,2020.1.3,Win32,60,13356,0.86441,,,,,0,29,29,77,1,,,,,,,,,,,,,,,,,,,,,,,,,,,,,,,,,,,,,,,,,,,,,,,,,,,,,,,,
,,,,,,,,,,,,a,Correct!,,,,,,t5.png,t5.png,0,0.978,20,Female,2020-07-28_18h26.05.430,torte-2b,2020.1.3,Win32,60,13356,0.631895,,,,,0,30,30,116,1,,,,,,,,,,,,,,,,,,,,,,,,,,,,,,,,,,,,,,,,,,,,,,,,,,,,,,,,
,,,,,,,,,,,,l,Correct!,,,,,,t1.png,t5.png,4,9.55E-11,20,Female,2020-07-28_18h26.05.430,torte-2b,2020.1.3,Win32,60,13356,0.883595,,,,,0,31,31,20,1,,,,,,,,,,,,,,,,,,,,,,,,,,,,,,,,,,,,,,,,,,,,,,,,,,,,,,,,
,,,,,,,,,,,,a,Incorrect,,,,,,t5.png,t1.png,4,9.55E-11,20,Female,2020-07-28_18h26.05.430,torte-2b,2020.1.3,Win32,60,13356,1.039255,,,,,0,32,32,117,1,,,,,,,,,,,,,,,,,,,,,,,,,,,,,,,,,,,,,,,,,,,,,,,,,,,,,,,,
,,,,,,,,,,,,l,Incorrect,,,,,,t2.png,t2.png,0,0.98115,20,Female,2020-07-28_18h26.05.430,torte-2b,2020.1.3,Win32,60,13356,1.58445,,,,,0,33,33,90,1,,,,,,,,,,,,,,,,,,,,,,,,,,,,,,,,,,,,,,,,,,,,,,,,,,,,,,,,
,,,,,,,,,,,,a,Correct!,,,,,,t1.png,t1.png,0,0.978,20,Female,2020-07-28_18h26.05.430,torte-2b,2020.1.3,Win32,60,13356,1.056815,,,,,0,34,34,22,1,,,,,,,,,,,,,,,,,,,,,,,,,,,,,,,,,,,,,,,,,,,,,,,,,,,,,,,,
,,,,,,,,,,,,l,Incorrect,,,,,,t2.png,t2.png,0,0.981,20,Female,2020-07-28_18h26.05.430,torte-2b,2020.1.3,Win32,60,13356,0.926325,,,,,0,35,35,98,1,,,,,,,,,,,,,,,,,,,,,,,,,,,,,,,,,,,,,,,,,,,,,,,,,,,,,,,,
,,,,,,,,,,,,a,Correct!,,,,,,t5.png,t5.png,0,0.97829,20,Female,2020-07-28_18h26.05.430,torte-2b,2020.1.3,Win32,60,13356,0.85585,,,,,0,36,36,2,1,,,,,,,,,,,,,,,,,,,,,,,,,,,,,,,,,,,,,,,,,,,,,,,,,,,,,,,,
,,,,,,,,,,,,a,Correct!,,,,,,t4.png,t3.png,1,0.90855,20,Female,2020-07-28_18h26.05.430,torte-2b,2020.1.3,Win32,60,13356,1.50292,,,,,0,37,37,29,1,,,,,,,,,,,,,,,,,,,,,,,,,,,,,,,,,,,,,,,,,,,,,,,,,,,,,,,,
,,,,,,,,,,,,l,Correct!,,,,,,t1.png,t3.png,2,0.0565,20,Female,2020-07-28_18h26.05.430,torte-2b,2020.1.3,Win32,60,13356,1.250215,,,,,0,38,38,42,1,,,,,,,,,,,,,,,,,,,,,,,,,,,,,,,,,,,,,,,,,,,,,,,,,,,,,,,,
,,,,,,,,,,,,a,Correct!,,,,,,t2.png,t1.png,1,0.90025,20,Female,2020-07-28_18h26.05.430,torte-2b,2020.1.3,Win32,60,13356,1.615385,,,,,0,39,39,65,1,,,,,,,,,,,,,,,,,,,,,,,,,,,,,,,,,,,,,,,,,,,,,,,,,,,,,,,,
,,,,,,,,,,,,a,Correct!,,,,,,t4.png,t4.png,0,0.98115,20,Female,2020-07-28_18h26.05.430,torte-2b,2020.1.3,Win32,60,13356,1.121845,,,,,0,40,40,88,1,,,,,,,,,,,,,,,,,,,,,,,,,,,,,,,,,,,,,,,,,,,,,,,,,,,,,,,,
,,,,,,,,,,,,a,Incorrect,,,,,,t4.png,t1.png,3,0.059078,20,Female,2020-07-28_18h26.05.430,torte-2b,2020.1.3,Win32,60,13356,1.0224,,,,,0,41,41,62,1,,,,,,,,,,,,,,,,,,,,,,,,,,,,,,,,,,,,,,,,,,,,,,,,,,,,,,,,
,,,,,,,,,,,,a,Incorrect,,,,,,t5.png,t4.png,1,0.90025,20,Female,2020-07-28_18h26.05.430,torte-2b,2020.1.3,Win32,60,13356,0.98274,,,,,0,42,42,38,1,,,,,,,,,,,,,,,,,,,,,,,,,,,,,,,,,,,,,,,,,,,,,,,,,,,,,,,,
,,,,,,,,,,,,l,Incorrect,,,,,,t3.png,t5.png,2,0.0565,20,Female,2020-07-28_18h26.05.430,torte-2b,2020.1.3,Win32,60,13356,1.474225,,,,,0,43,43,71,1,,,,,,,,,,,,,,,,,,,,,,,,,,,,,,,,,,,,,,,,,,,,,,,,,,,,,,,,
,,,,,,,,,,,,a,Correct!,,,,,,t1.png,t1.png,0,0.97829,20,Female,2020-07-28_18h26.05.430,torte-2b,2020.1.3,Win32,60,13356,0.971455,,,,,0,44,44,114,1,,,,,,,,,,,,,,,,,,,,,,,,,,,,,,,,,,,,,,,,,,,,,,,,,,,,,,,,
,,,,,,,,,,,,a,Correct!,,,,,,t4.png,t3.png,1,0.909,20,Female,2020-07-28_18h26.05.430,torte-2b,2020.1.3,Win32,60,13356,1.2496,,,,,0,45,45,107,1,,,,,,,,,,,,,,,,,,,,,,,,,,,,,,,,,,,,,,,,,,,,,,,,,,,,,,,,
,,,,,,,,,,,,l,Incorrect,,,,,,t2.png,t1.png,1,0.9,20,Female,2020-07-28_18h26.05.430,torte-2b,2020.1.3,Win32,60,13356,1.649615,,,,,0,46,46,100,1,,,,,,,,,,,,,,,,,,,,,,,,,,,,,,,,,,,,,,,,,,,,,,,,,,,,,,,,
,,,,,,,,,,,,a,Correct!,,,,,,t1.png,t1.png,0,0.97829,20,Female,2020-07-28_18h26.05.430,torte-2b,2020.1.3,Win32,60,13356,0.8653,,,,,0,47,47,110,1,,,,,,,,,,,,,,,,,,,,,,,,,,,,,,,,,,,,,,,,,,,,,,,,,,,,,,,,
,,,,,,,,,,,,a,Correct!,,,,,,t5.png,t4.png,1,0.9,20,Female,2020-07-28_18h26.05.430,torte-2b,2020.1.3,Win32,60,13356,0.92586,,,,,0,48,48,55,1,,,,,,,,,,,,,,,,,,,,,,,,,,,,,,,,,,,,,,,,,,,,,,,,,,,,,,,,
,,,,,,,,,,,,l,Correct!,,,,,,t2.png,t1.png,1,0.90025,20,Female,2020-07-28_18h26.05.430,torte-2b,2020.1.3,Win32,60,13356,0.908925,,,,,0,49,49,105,1,,,,,,,,,,,,,,,,,,,,,,,,,,,,,,,,,,,,,,,,,,,,,,,,,,,,,,,,
,,,,,,,,,,,,l,Correct!,,,,,,t1.png,t5.png,4,9.55E-11,20,Female,2020-07-28_18h26.05.430,torte-2b,2020.1.3,Win32,60,13356,1.416465,,,,,0,50,50,30,1,,,,,,,,,,,,,,,,,,,,,,,,,,,,,,,,,,,,,,,,,,,,,,,,,,,,,,,,
,,,,,,,,,,,,l,Correct!,,,,,,t1.png,t5.png,4,9.55E-11,20,Female,2020-07-28_18h26.05.430,torte-2b,2020.1.3,Win32,60,13356,0.787405,,,,,0,51,51,118,1,,,,,,,,,,,,,,,,,,,,,,,,,,,,,,,,,,,,,,,,,,,,,,,,,,,,,,,,
,,,,,,,,,,,,l,Correct!,,,,,,t2.png,t4.png,2,0.059078,20,Female,2020-07-28_18h26.05.430,torte-2b,2020.1.3,Win32,60,13356,1.41821,,,,,0,52,52,97,1,,,,,,,,,,,,,,,,,,,,,,,,,,,,,,,,,,,,,,,,,,,,,,,,,,,,,,,,
,,,,,,,,,,,,l,Incorrect,,,,,,t2.png,t2.png,0,0.98115,20,Female,2020-07-28_18h26.05.430,torte-2b,2020.1.3,Win32,60,13356,1.18568,,,,,0,53,53,112,1,,,,,,,,,,,,,,,,,,,,,,,,,,,,,,,,,,,,,,,,,,,,,,,,,,,,,,,,
,,,,,,,,,,,,l,Incorrect,,,,,,t2.png,t2.png,0,0.98115,20,Female,2020-07-28_18h26.05.430,torte-2b,2020.1.3,Win32,60,13356,0.765785,,,,,0,54,54,69,1,,,,,,,,,,,,,,,,,,,,,,,,,,,,,,,,,,,,,,,,,,,,,,,,,,,,,,,,
,,,,,,,,,,,,a,Correct!,,,,,,t4.png,t4.png,0,0.98115,20,Female,2020-07-28_18h26.05.430,torte-2b,2020.1.3,Win32,60,13356,0.719855,,,,,0,55,55,52,1,,,,,,,,,,,,,,,,,,,,,,,,,,,,,,,,,,,,,,,,,,,,,,,,,,,,,,,,
,,,,,,,,,,,,l,Correct!,,,,,,t2.png,t3.png,1,0.90855,20,Female,2020-07-28_18h26.05.430,torte-2b,2020.1.3,Win32,60,13356,1.349215,,,,,0,56,56,79,1,,,,,,,,,,,,,,,,,,,,,,,,,,,,,,,,,,,,,,,,,,,,,,,,,,,,,,,,
,,,,,,,,,,,,a,Incorrect,,,,,,t5.png,t2.png,3,0.0000131,20,Female,2020-07-28_18h26.05.430,torte-2b,2020.1.3,Win32,60,13356,1.03244,,,,,0,57,57,66,1,,,,,,,,,,,,,,,,,,,,,,,,,,,,,,,,,,,,,,,,,,,,,,,,,,,,,,,,
,,,,,,,,,,,,l,Incorrect,,,,,,t2.png,t3.png,1,0.90855,20,Female,2020-07-28_18h26.05.430,torte-2b,2020.1.3,Win32,60,13356,1.203795,,,,,0,58,58,113,1,,,,,,,,,,,,,,,,,,,,,,,,,,,,,,,,,,,,,,,,,,,,,,,,,,,,,,,,
,,,,,,,,,,,,a,Correct!,,,,,,t4.png,t3.png,1,0.909,20,Female,2020-07-28_18h26.05.430,torte-2b,2020.1.3,Win32,60,13356,1.299195,,,,,0,59,59,119,1,,,,,,,,,,,,,,,,,,,,,,,,,,,,,,,,,,,,,,,,,,,,,,,,,,,,,,,,
,,,,,,,,,,,,a,Correct!,,,,,,t4.png,t3.png,1,0.90855,20,Female,2020-07-28_18h26.05.430,torte-2b,2020.1.3,Win32,60,13356,0.831815,,,,,0,60,60,56,1,,,,,,,,,,,,,,,,,,,,,,,,,,,,,,,,,,,,,,,,,,,,,,,,,,,,,,,,
,,,,,,,,,,,,l,Incorrect,,,,,,t2.png,t3.png,1,0.909,20,Female,2020-07-28_18h26.05.430,torte-2b,2020.1.3,Win32,60,13356,1.567875,,,,,0,61,61,8,1,,,,,,,,,,,,,,,,,,,,,,,,,,,,,,,,,,,,,,,,,,,,,,,,,,,,,,,,
,,,,,,,,,,,,a,Incorrect,,,,,,t2.png,t5.png,3,0.0000131,20,Female,2020-07-28_18h26.05.430,torte-2b,2020.1.3,Win32,60,13356,2.14939,,,,,0,62,62,115,1,,,,,,,,,,,,,,,,,,,,,,,,,,,,,,,,,,,,,,,,,,,,,,,,,,,,,,,,
,,,,,,,,,,,,a,Incorrect,,,,,,t1.png,t3.png,2,0.0565,20,Female,2020-07-28_18h26.05.430,torte-2b,2020.1.3,Win32,60,13356,1.234885,,,,,0,63,63,12,1,,,,,,,,,,,,,,,,,,,,,,,,,,,,,,,,,,,,,,,,,,,,,,,,,,,,,,,,
,,,,,,,,,,,,a,Incorrect,,,,,,t4.png,t1.png,3,0.059078,20,Female,2020-07-28_18h26.05.430,torte-2b,2020.1.3,Win32,60,13356,1.41515,,,,,0,64,64,75,1,,,,,,,,,,,,,,,,,,,,,,,,,,,,,,,,,,,,,,,,,,,,,,,,,,,,,,,,
,,,,,,,,,,,,l,Correct!,,,,,,t1.png,t4.png,3,0.0000131,20,Female,2020-07-28_18h26.05.430,torte-2b,2020.1.3,Win32,60,13356,2.031215,,,,,0,65,65,23,1,,,,,,,,,,,,,,,,,,,,,,,,,,,,,,,,,,,,,,,,,,,,,,,,,,,,,,,,
,,,,,,,,,,,,a,Correct!,,,,,,t4.png,t5.png,1,0.90025,20,Female,2020-07-28_18h26.05.430,torte-2b,2020.1.3,Win32,60,13356,1.18295,,,,,0,66,66,21,1,,,,,,,,,,,,,,,,,,,,,,,,,,,,,,,,,,,,,,,,,,,,,,,,,,,,,,,,
,,,,,,,,,,,,l,Correct!,,,,,,t2.png,t5.png,3,0.0000131,20,Female,2020-07-28_18h26.05.430,torte-2b,2020.1.3,Win32,60,13356,1.568055,,,,,0,67,67,46,1,,,,,,,,,,,,,,,,,,,,,,,,,,,,,,,,,,,,,,,,,,,,,,,,,,,,,,,,
,,,,,,,,,,,,a,Incorrect,,,,,,t4.png,t1.png,3,0.0000131,20,Female,2020-07-28_18h26.05.430,torte-2b,2020.1.3,Win32,60,13356,0.935605,,,,,0,68,68,76,1,,,,,,,,,,,,,,,,,,,,,,,,,,,,,,,,,,,,,,,,,,,,,,,,,,,,,,,,
,,,,,,,,,,,,a,Correct!,,,,,,t5.png,t4.png,1,0.90025,20,Female,2020-07-28_18h26.05.430,torte-2b,2020.1.3,Win32,60,13356,0.66604,,,,,0,69,69,25,1,,,,,,,,,,,,,,,,,,,,,,,,,,,,,,,,,,,,,,,,,,,,,,,,,,,,,,,,
,,,,,,,,,,,,a,Incorrect,,,,,,t5.png,t3.png,2,0.056466,20,Female,2020-07-28_18h26.05.430,torte-2b,2020.1.3,Win32,60,13356,1.34852,,,,,0,70,70,80,1,,,,,,,,,,,,,,,,,,,,,,,,,,,,,,,,,,,,,,,,,,,,,,,,,,,,,,,,
,,,,,,,,,,,,a,Correct!,,,,,,t5.png,t4.png,1,0.9,20,Female,2020-07-28_18h26.05.430,torte-2b,2020.1.3,Win32,60,13356,0.692195,,,,,0,71,71,92,1,,,,,,,,,,,,,,,,,,,,,,,,,,,,,,,,,,,,,,,,,,,,,,,,,,,,,,,,
,,,,,,,,,,,,l,Correct!,,,,,,t1.png,t4.png,3,0.0000131,20,Female,2020-07-28_18h26.05.430,torte-2b,2020.1.3,Win32,60,13356,1.153815,,,,,0,72,72,36,1,,,,,,,,,,,,,,,,,,,,,,,,,,,,,,,,,,,,,,,,,,,,,,,,,,,,,,,,
,,,,,,,,,,,,l,Correct!,,,,,,t2.png,t5.png,3,0.0000131,20,Female,2020-07-28_18h26.05.430,torte-2b,2020.1.3,Win32,60,13356,0.682425,,,,,0,73,73,39,1,,,,,,,,,,,,,,,,,,,,,,,,,,,,,,,,,,,,,,,,,,,,,,,,,,,,,,,,
,,,,,,,,,,,,a,Incorrect,,,,,,t5.png,t1.png,4,9.55E-11,20,Female,2020-07-28_18h26.05.430,torte-2b,2020.1.3,Win32,60,13356,1.338025,,,,,0,74,74,31,1,,,,,,,,,,,,,,,,,,,,,,,,,,,,,,,,,,,,,,,,,,,,,,,,,,,,,,,,
,,,,,,,,,,,,l,Correct!,,,,,,t1.png,t4.png,3,0.0000131,20,Female,2020-07-28_18h26.05.430,torte-2b,2020.1.3,Win32,60,13356,0.848585,,,,,0,75,75,74,1,,,,,,,,,,,,,,,,,,,,,,,,,,,,,,,,,,,,,,,,,,,,,,,,,,,,,,,,
,,,,,,,,,,,,l,Correct!,,,,,,t5.png,t2.png,3,0.0000131,20,Female,2020-07-28_18h26.05.430,torte-2b,2020.1.3,Win32,60,13356,1.4551,,,,,0,76,76,43,1,,,,,,,,,,,,,,,,,,,,,,,,,,,,,,,,,,,,,,,,,,,,,,,,,,,,,,,,
,,,,,,,,,,,,a,Correct!,,,,,,t4.png,t5.png,1,0.90025,20,Female,2020-07-28_18h26.05.430,torte-2b,2020.1.3,Win32,60,13356,1.03512,,,,,0,77,77,63,1,,,,,,,,,,,,,,,,,,,,,,,,,,,,,,,,,,,,,,,,,,,,,,,,,,,,,,,,
,,,,,,,,,,,,l,Correct!,,,,,,t5.png,t2.png,3,0.0000131,20,Female,2020-07-28_18h26.05.430,torte-2b,2020.1.3,Win32,60,13356,0.982835,,,,,0,78,78,82,1,,,,,,,,,,,,,,,,,,,,,,,,,,,,,,,,,,,,,,,,,,,,,,,,,,,,,,,,
,,,,,,,,,,,,a,Correct!,,,,,,t3.png,t2.png,1,0.90855,20,Female,2020-07-28_18h26.05.430,torte-2b,2020.1.3,Win32,60,13356,0.919995,,,,,0,79,79,0,1,,,,,,,,,,,,,,,,,,,,,,,,,,,,,,,,,,,,,,,,,,,,,,,,,,,,,,,,
,,,,,,,,,,,,a,Correct!,,,,,,t5.png,t5.png,0,0.97829,20,Female,2020-07-28_18h26.05.430,torte-2b,2020.1.3,Win32,60,13356,0.60742,,,,,0,80,80,35,1,,,,,,,,,,,,,,,,,,,,,,,,,,,,,,,,,,,,,,,,,,,,,,,,,,,,,,,,
,,,,,,,,,,,,l,Incorrect,,,,,,t1.png,t2.png,1,0.9,20,Female,2020-07-28_18h26.05.430,torte-2b,2020.1.3,Win32,60,13356,1.67491,,,,,0,81,81,17,1,,,,,,,,,,,,,,,,,,,,,,,,,,,,,,,,,,,,,,,,,,,,,,,,,,,,,,,,
,,,,,,,,,,,,l,Incorrect,,,,,,t3.png,t4.png,1,0.90855,20,Female,2020-07-28_18h26.05.430,torte-2b,2020.1.3,Win32,60,13356,1.58327,,,,,0,82,82,58,1,,,,,,,,,,,,,,,,,,,,,,,,,,,,,,,,,,,,,,,,,,,,,,,,,,,,,,,,
,,,,,,,,,,,,l,Incorrect,,,,,,t3.png,t4.png,1,0.90855,20,Female,2020-07-28_18h26.05.430,torte-2b,2020.1.3,Win32,60,13356,0.891425,,,,,0,83,83,5,1,,,,,,,,,,,,,,,,,,,,,,,,,,,,,,,,,,,,,,,,,,,,,,,,,,,,,,,,
,,,,,,,,,,,,a,Incorrect,,,,,,t3.png,t1.png,2,0.056466,20,Female,2020-07-28_18h26.05.430,torte-2b,2020.1.3,Win32,60,13356,1.32418,,,,,0,84,84,34,1,,,,,,,,,,,,,,,,,,,,,,,,,,,,,,,,,,,,,,,,,,,,,,,,,,,,,,,,
,,,,,,,,,,,,l,Incorrect,,,,,,t1.png,t3.png,2,0.056466,20,Female,2020-07-28_18h26.05.430,torte-2b,2020.1.3,Win32,60,13356,1.40883,,,,,0,85,85,32,1,,,,,,,,,,,,,,,,,,,,,,,,,,,,,,,,,,,,,,,,,,,,,,,,,,,,,,,,
,,,,,,,,,,,,a,Correct!,,,,,,t3.png,t2.png,1,0.90855,20,Female,2020-07-28_18h26.05.430,torte-2b,2020.1.3,Win32,60,13356,1.323155,,,,,0,86,86,99,1,,,,,,,,,,,,,,,,,,,,,,,,,,,,,,,,,,,,,,,,,,,,,,,,,,,,,,,,
,,,,,,,,,,,,a,Correct!,,,,,,t4.png,t4.png,0,0.98115,20,Female,2020-07-28_18h26.05.430,torte-2b,2020.1.3,Win32,60,13356,0.715445,,,,,0,87,87,68,1,,,,,,,,,,,,,,,,,,,,,,,,,,,,,,,,,,,,,,,,,,,,,,,,,,,,,,,,
,,,,,,,,,,,,l,Correct!,,,,,,t1.png,t4.png,3,0.0000131,20,Female,2020-07-28_18h26.05.430,torte-2b,2020.1.3,Win32,60,13356,1.00461,,,,,0,88,88,106,1,,,,,,,,,,,,,,,,,,,,,,,,,,,,,,,,,,,,,,,,,,,,,,,,,,,,,,,,
,,,,,,,,,,,,l,Incorrect,,,,,,t1.png,t2.png,1,0.9,20,Female,2020-07-28_18h26.05.430,torte-2b,2020.1.3,Win32,60,13356,0.87543,,,,,0,89,89,41,1,,,,,,,,,,,,,,,,,,,,,,,,,,,,,,,,,,,,,,,,,,,,,,,,,,,,,,,,
,,,,,,,,,,,,a,Incorrect,,,,,,t1.png,t3.png,2,0.0565,20,Female,2020-07-28_18h26.05.430,torte-2b,2020.1.3,Win32,60,13356,1.399175,,,,,0,90,90,95,1,,,,,,,,,,,,,,,,,,,,,,,,,,,,,,,,,,,,,,,,,,,,,,,,,,,,,,,,
,,,,,,,,,,,,a,Incorrect,,,,,,t4.png,t1.png,3,0.059078,20,Female,2020-07-28_18h26.05.430,torte-2b,2020.1.3,Win32,60,13356,1.37677,,,,,0,91,91,73,1,,,,,,,,,,,,,,,,,,,,,,,,,,,,,,,,,,,,,,,,,,,,,,,,,,,,,,,,
,,,,,,,,,,,,a,Incorrect,,,,,,t1.png,t1.png,0,0.978,20,Female,2020-07-28_18h26.05.430,torte-2b,2020.1.3,Win32,60,13356,1.048735,,,,,0,92,92,13,1,,,,,,,,,,,,,,,,,,,,,,,,,,,,,,,,,,,,,,,,,,,,,,,,,,,,,,,,
,,,,,,,,,,,,l,Correct!,,,,,,t2.png,t1.png,1,0.90025,20,Female,2020-07-28_18h26.05.430,torte-2b,2020.1.3,Win32,60,13356,0.96904,,,,,0,93,93,44,1,,,,,,,,,,,,,,,,,,,,,,,,,,,,,,,,,,,,,,,,,,,,,,,,,,,,,,,,
,,,,,,,,,,,,a,Incorrect,,,,,,t3.png,t1.png,2,0.0565,20,Female,2020-07-28_18h26.05.430,torte-2b,2020.1.3,Win32,60,13356,1.25334,,,,,0,94,94,40,1,,,,,,,,,,,,,,,,,,,,,,,,,,,,,,,,,,,,,,,,,,,,,,,,,,,,,,,,
,,,,,,,,,,,,l,Incorrect,,,,,,t3.png,t4.png,1,0.90855,20,Female,2020-07-28_18h26.05.430,torte-2b,2020.1.3,Win32,60,13356,1.256515,,,,,0,95,95,103,1,,,,,,,,,,,,,,,,,,,,,,,,,,,,,,,,,,,,,,,,,,,,,,,,,,,,,,,,
,,,,,,,,,,,,l,Incorrect,,,,,,t2.png,t3.png,1,0.90855,20,Female,2020-07-28_18h26.05.430,torte-2b,2020.1.3,Win32,60,13356,0.83395,,,,,0,96,96,70,1,,,,,,,,,,,,,,,,,,,,,,,,,,,,,,,,,,,,,,,,,,,,,,,,,,,,,,,,
,,,,,,,,,,,,l,Correct!,,,,,,t3.png,t5.png,2,0.056466,20,Female,2020-07-28_18h26.05.430,torte-2b,2020.1.3,Win32,60,13356,1.41521,,,,,0,97,97,45,1,,,,,,,,,,,,,,,,,,,,,,,,,,,,,,,,,,,,,,,,,,,,,,,,,,,,,,,,
,,,,,,,,,,,,a,Correct!,,,,,,t3.png,t1.png,2,0.0565,20,Female,2020-07-28_18h26.05.430,torte-2b,2020.1.3,Win32,60,13356,1.099375,,,,,0,98,98,104,1,,,,,,,,,,,,,,,,,,,,,,,,,,,,,,,,,,,,,,,,,,,,,,,,,,,,,,,,
,,,,,,,,,,,,l,Correct!,,,,,,t2.png,t5.png,3,0.0000131,20,Female,2020-07-28_18h26.05.430,torte-2b,2020.1.3,Win32,60,13356,1.518555,,,,,0,99,99,85,1,,,,,,,,,,,,,,,,,,,,,,,,,,,,,,,,,,,,,,,,,,,,,,,,,,,,,,,,
,,,,,,,,,,,,l,Correct!,,,,,,t3.png,t4.png,1,0.90855,20,Female,2020-07-28_18h26.05.430,torte-2b,2020.1.3,Win32,60,13356,1.084835,,,,,0,100,100,111,1,,,,,,,,,,,,,,,,,,,,,,,,,,,,,,,,,,,,,,,,,,,,,,,,,,,,,,,,
,,,,,,,,,,,,a,Incorrect,,,,,,t3.png,t1.png,2,0.056466,20,Female,2020-07-28_18h26.05.430,torte-2b,2020.1.3,Win32,60,13356,0.606925,,,,,0,101,101,109,1,,,,,,,,,,,,,,,,,,,,,,,,,,,,,,,,,,,,,,,,,,,,,,,,,,,,,,,,
,,,,,,,,,,,,l,Correct!,,,,,,t2.png,t5.png,3,0.0000131,20,Female,2020-07-28_18h26.05.430,torte-2b,2020.1.3,Win32,60,13356,0.78561,,,,,0,102,102,54,1,,,,,,,,,,,,,,,,,,,,,,,,,,,,,,,,,,,,,,,,,,,,,,,,,,,,,,,,
,,,,,,,,,,,,l,Correct!,,,,,,t1.png,t2.png,1,0.90025,20,Female,2020-07-28_18h26.05.430,torte-2b,2020.1.3,Win32,60,13356,1.116365,,,,,0,103,103,6,1,,,,,,,,,,,,,,,,,,,,,,,,,,,,,,,,,,,,,,,,,,,,,,,,,,,,,,,,
,,,,,,,,,,,,a,Incorrect,,,,,,t5.png,t3.png,2,0.056466,20,Female,2020-07-28_18h26.05.430,torte-2b,2020.1.3,Win32,60,13356,0.682725,,,,,0,104,104,37,1,,,,,,,,,,,,,,,,,,,,,,,,,,,,,,,,,,,,,,,,,,,,,,,,,,,,,,,,
,,,,,,,,,,,,a,Incorrect,,,,,,t4.png,t1.png,3,0.059078,20,Female,2020-07-28_18h26.05.430,torte-2b,2020.1.3,Win32,60,13356,1.18243,,,,,0,105,105,57,1,,,,,,,,,,,,,,,,,,,,,,,,,,,,,,,,,,,,,,,,,,,,,,,,,,,,,,,,
,,,,,,,,,,,,l,Incorrect,,,,,,t2.png,t1.png,1,0.9,20,Female,2020-07-28_18h26.05.430,torte-2b,2020.1.3,Win32,60,13356,0.942745,,,,,0,106,106,93,1,,,,,,,,,,,,,,,,,,,,,,,,,,,,,,,,,,,,,,,,,,,,,,,,,,,,,,,,
,,,,,,,,,,,,a,Incorrect,,,,,,t4.png,t1.png,3,0.0000131,20,Female,2020-07-28_18h26.05.430,torte-2b,2020.1.3,Win32,60,13356,0.83843,,,,,0,107,107,28,1,,,,,,,,,,,,,,,,,,,,,,,,,,,,,,,,,,,,,,,,,,,,,,,,,,,,,,,,
,,,,,,,,,,,,a,Correct!,,,,,,t5.png,t5.png,0,0.978,20,Female,2020-07-28_18h26.05.430,torte-2b,2020.1.3,Win32,60,13356,0.765115,,,,,0,108,108,51,1,,,,,,,,,,,,,,,,,,,,,,,,,,,,,,,,,,,,,,,,,,,,,,,,,,,,,,,,
,,,,,,,,,,,,l,Correct!,,,,,,t1.png,t5.png,4,9.55E-11,20,Female,2020-07-28_18h26.05.430,torte-2b,2020.1.3,Win32,60,13356,0.912145,,,,,0,109,109,1,1,,,,,,,,,,,,,,,,,,,,,,,,,,,,,,,,,,,,,,,,,,,,,,,,,,,,,,,,
,,,,,,,,,,,,a,Correct!,,,,,,t4.png,t5.png,1,0.90025,20,Female,2020-07-28_18h26.05.430,torte-2b,2020.1.3,Win32,60,13356,0.88224,,,,,0,110,110,33,1,,,,,,,,,,,,,,,,,,,,,,,,,,,,,,,,,,,,,,,,,,,,,,,,,,,,,,,,
,,,,,,,,,,,,a,Correct!,,,,,,t3.png,t2.png,1,0.90855,20,Female,2020-07-28_18h26.05.430,torte-2b,2020.1.3,Win32,60,13356,1.03338,,,,,0,111,111,108,1,,,,,,,,,,,,,,,,,,,,,,,,,,,,,,,,,,,,,,,,,,,,,,,,,,,,,,,,
,,,,,,,,,,,,a,Incorrect,,,,,,t5.png,t2.png,3,0.0000131,20,Female,2020-07-28_18h26.05.430,torte-2b,2020.1.3,Win32,60,13356,0.649235,,,,,0,112,112,48,1,,,,,,,,,,,,,,,,,,,,,,,,,,,,,,,,,,,,,,,,,,,,,,,,,,,,,,,,
,,,,,,,,,,,,l,Correct!,,,,,,t2.png,t4.png,2,0.059078,20,Female,2020-07-28_18h26.05.430,torte-2b,2020.1.3,Win32,60,13356,0.572945,,,,,0,113,113,84,1,,,,,,,,,,,,,,,,,,,,,,,,,,,,,,,,,,,,,,,,,,,,,,,,,,,,,,,,
,,,,,,,,,,,,a,Incorrect,,,,,,t4.png,t1.png,3,0.059078,20,Female,2020-07-28_18h26.05.430,torte-2b,2020.1.3,Win32,60,13356,0.61961,,,,,0,114,114,87,1,,,,,,,,,,,,,,,,,,,,,,,,,,,,,,,,,,,,,,,,,,,,,,,,,,,,,,,,
,,,,,,,,,,,,a,Incorrect,,,,,,t3.png,t2.png,1,0.90855,20,Female,2020-07-28_18h26.05.430,torte-2b,2020.1.3,Win32,60,13356,0.87906,,,,,0,115,115,10,1,,,,,,,,,,,,,,,,,,,,,,,,,,,,,,,,,,,,,,,,,,,,,,,,,,,,,,,,
,,,,,,,,,,,,a,Incorrect,,,,,,t5.png,t3.png,2,0.0565,20,Female,2020-07-28_18h26.05.430,torte-2b,2020.1.3,Win32,60,13356,1.13951,,,,,0,116,116,50,1,,,,,,,,,,,,,,,,,,,,,,,,,,,,,,,,,,,,,,,,,,,,,,,,,,,,,,,,
,,,,,,,,,,,,l,Correct!,,,,,,t1.png,t3.png,2,0.056466,20,Female,2020-07-28_18h26.05.430,torte-2b,2020.1.3,Win32,60,13356,0.84912,,,,,0,117,117,24,1,,,,,,,,,,,,,,,,,,,,,,,,,,,,,,,,,,,,,,,,,,,,,,,,,,,,,,,,
,,,,,,,,,,,,l,Correct!,,,,,,t3.png,t5.png,2,0.056466,20,Female,2020-07-28_18h26.05.430,torte-2b,2020.1.3,Win32,60,13356,0.734115,,,,,0,118,118,60,1,,,,,,,,,,,,,,,,,,,,,,,,,,,,,,,,,,,,,,,,,,,,,,,,,,,,,,,,
,,,,,,,,,,,,a,Incorrect,,,,,,t5.png,t3.png,2,0.056466,20,Female,2020-07-28_18h26.05.430,torte-2b,2020.1.3,Win32,60,13356,0.56619,,,,,0,119,119,26,1,,,,,,,,,,,,,,,,,,,,,,,,,,,,,,,,,,,,,,,,,,,,,,,,,,,,,,,,
,,,,,,,,,,,,,,,,,,,,,,,20,Female,2020-07-28_18h26.05.430,torte-2b,2020.1.3,Win32,60,13356,,space,1.50723,,,,,,,,space,18.577565,,0,0,0,0,1,6,,,,,,,,,,,,,,,,,,,,,,,,,,,,,,,,,,,,,,,,,,,,,,,
,,,,,,,,,,,,,,,,,,,,,,,20,Female,2020-07-28_18h26.05.430,torte-2b,2020.1.3,Win32,60,13356,,,,,,,,,,,,,,0,1,1,1,1,7,,,,,,,,,,,,,,,,,,,,,,,,,,,,,,,,,,,,,,,,,,,,,,,
,,,,,,,,,,,,,,,,,,,,,,,20,Female,2020-07-28_18h26.05.430,torte-2b,2020.1.3,Win32,60,13356,,,,,,,,,,,,,,0,2,2,2,1,6,,,,,,,,,,,,,,,,,,,,,,,,,,,,,,,,,,,,,,,,,,,,,,,
,,,,,,,,,,,,,,,,,,,,,,,20,Female,2020-07-28_18h26.05.430,torte-2b,2020.1.3,Win32,60,13356,,,,,,,,,,,,,,0,3,3,3,1,7,,,,,,,,,,,,,,,,,,,,,,,,,,,,,,,,,,,,,,,,,,,,,,,
,,,,,,,,,,,,,,,,,,,,,,,20,Female,2020-07-28_18h26.05.430,torte-2b,2020.1.3,Win32,60,13356,,,,,,,,,,,,,,0,4,4,4,1,5,,,,,,,,,,,,,,,,,,,,,,,,,,,,,,,,,,,,,,,,,,,,,,,
,,,,,,,,,,,,,,,,,,,,,,,20,Female,2020-07-28_18h26.05.430,torte-2b,2020.1.3,Win32,60,13356,,,,,,,,,,,,,,0,5,5,5,1,7,,,,,,,,,,,,,,,,,,,,,,,,,,,,,,,,,,,,,,,,,,,,,,,
,,,,,,,,,,,,,,,,,,,,,,,20,Female,2020-07-28_18h26.05.430,torte-2b,2020.1.3,Win32,60,13356,,,,,,,,,,,,,space,0,6,6,6,1,2,0.57906,,,,,,,,,,,,,,,,,,,,,,,,,,,,,,,,,,,,,,,,,,,,,,
,,,,,,,,,,,,,,,,,,,,,,,20,Female,2020-07-28_18h26.05.430,torte-2b,2020.1.3,Win32,60,13356,,,,,,,,,,,,,space,0,7,7,7,1,4,1.683275,,,,,,,,,,,,,,,,,,,,,,,,,,,,,,,,,,,,,,,,,,,,,,
,,,,,,,,,,,,,,,,,,,,,,,20,Female,2020-07-28_18h26.05.430,torte-2b,2020.1.3,Win32,60,13356,,,,,,,,,,,,,,0,8,8,8,1,7,,,,,,,,,,,,,,,,,,,,,,,,,,,,,,,,,,,,,,,,,,,,,,,
,,,,,,,,,,,,,,,,,,,,,,,20,Female,2020-07-28_18h26.05.430,torte-2b,2020.1.3,Win32,60,13356,,,,,,,,,,,,,,0,9,9,9,1,4,,,,,,,,,,,,,,,,,,,,,,,,,,,,,,,,,,,,,,,,,,,,,,,
,,,,,,,,,,,,,,,,,,,,,,,20,Female,2020-07-28_18h26.05.430,torte-2b,2020.1.3,Win32,60,13356,,,,,,,,,,,,,,0,10,10,10,1,7,,,,,,,,,,,,,,,,,,,,,,,,,,,,,,,,,,,,,,,,,,,,,,,
,,,,,,,,,,,,,,,,,,,,,,,20,Female,2020-07-28_18h26.05.430,torte-2b,2020.1.3,Win32,60,13356,,,,,,,,,,,,,,0,11,11,11,1,7,,,,,,,,,,,,,,,,,,,,,,,,,,,,,,,,,,,,,,,,,,,,,,,
,,,,,,,,,,,,,,,,,,,,,,,20,Female,2020-07-28_18h26.05.430,torte-2b,2020.1.3,Win32,60,13356,,,,,,,,,,,,,space,0,12,12,12,1,7,0.396905,,,,,,,,,,,,,,,,,,,,,,,,,,,,,,,,,,,,,,,,,,,,,,
,,,,,,,,,,,,,,,,,,,,,,,20,Female,2020-07-28_18h26.05.430,torte-2b,2020.1.3,Win32,60,13356,,,,,,,,,,,,,,0,13,13,13,1,4,,,,,,,,,,,,,,,,,,,,,,,,,,,,,,,,,,,,,,,,,,,,,,,
,,,,,,,,,,,,,,,,,,,,,,,20,Female,2020-07-28_18h26.05.430,torte-2b,2020.1.3,Win32,60,13356,,,,,,,,,,,,,,0,14,14,14,1,6,,,,,,,,,,,,,,,,,,,,,,,,,,,,,,,,,,,,,,,,,,,,,,,
,,,,,,,,,,,,,,,,,,,,,,,20,Female,2020-07-28_18h26.05.430,torte-2b,2020.1.3,Win32,60,13356,,,,,,,,,,,,,,0,15,15,15,1,4,,,,,,,,,,,,,,,,,,,,,,,,,,,,,,,,,,,,,,,,,,,,,,,
,,,,,,,,,,,,,,,,,,,,,,,20,Female,2020-07-28_18h26.05.430,torte-2b,2020.1.3,Win32,60,13356,,,,,,,,,,,,,,0,16,16,16,1,6,,,,,,,,,,,,,,,,,,,,,,,,,,,,,,,,,,,,,,,,,,,,,,,
,,,,,,,,,,,,,,,,,,,,,,,20,Female,2020-07-28_18h26.05.430,torte-2b,2020.1.3,Win32,60,13356,,,,,,,,,,,,,,0,17,17,17,1,7,,,,,,,,,,,,,,,,,,,,,,,,,,,,,,,,,,,,,,,,,,,,,,,
,,,,,,,,,,,,,,,,,,,,,,,20,Female,2020-07-28_18h26.05.430,torte-2b,2020.1.3,Win32,60,13356,,,,,,,,,,,,,,0,18,18,18,1,6,,,,,,,,,,,,,,,,,,,,,,,,,,,,,,,,,,,,,,,,,,,,,,,
,,,,,,,,,,,,,,,,,,,,,,,20,Female,2020-07-28_18h26.05.430,torte-2b,2020.1.3,Win32,60,13356,,,,,,,,,,,,,,0,19,19,19,1,7,,,,,,,,,,,,,,,,,,,,,,,,,,,,,,,,,,,,,,,,,,,,,,,
,,,,,,,,,,,,,,,,,,,,,,,20,Female,2020-07-28_18h26.05.430,torte-2b,2020.1.3,Win32,60,13356,,,,,,,,,,,,,,0,20,20,20,1,5,,,,,,,,,,,,,,,,,,,,,,,,,,,,,,,,,,,,,,,,,,,,,,,
,,,,,,,,,,,,,,,,,,,,,,,20,Female,2020-07-28_18h26.05.430,torte-2b,2020.1.3,Win32,60,13356,,,,,,,,,,,,,,0,21,21,21,1,1,,,,,,,,,,,,,,,,,,,,,,,,,,,,,,,,,,,,,,,,,,,,,,,
,,,,,,,,,,,,,,,,,,,,,,,20,Female,2020-07-28_18h26.05.430,torte-2b,2020.1.3,Win32,60,13356,,,,,,,,,,,,,,0,22,22,22,1,6,,,,,,,,,,,,,,,,,,,,,,,,,,,,,,,,,,,,,,,,,,,,,,,
,,,,,,,,,,,,,,,,,,,,,,,20,Female,2020-07-28_18h26.05.430,torte-2b,2020.1.3,Win32,60,13356,,,,,,,,,,,,,,0,23,23,23,1,1,,,,,,,,,,,,,,,,,,,,,,,,,,,,,,,,,,,,,,,,,,,,,,,
,,,,,,,,,,,,,,,,,,,,,,,20,Female,2020-07-28_18h26.05.430,torte-2b,2020.1.3,Win32,60,13356,,,,,,,,,,,,,,0,24,24,24,1,5,,,,,,,,,,,,,,,,,,,,,,,,,,,,,,,,,,,,,,,,,,,,,,,
,,,,,,,,,,,,,,,,,,,,,,,20,Female,2020-07-28_18h26.05.430,torte-2b,2020.1.3,Win32,60,13356,,,,,,,,,,,,,,0,25,25,25,1,6,,,,,,,,,,,,,,,,,,,,,,,,,,,,,,,,,,,,,,,,,,,,,,,
,,,,,,,,,,,,,,,,,,,,,,,20,Female,2020-07-28_18h26.05.430,torte-2b,2020.1.3,Win32,60,13356,,,,,,,,,,,,,,0,26,26,26,1,6,,,,,,,,,,,,,,,,,,,,,,,,,,,,,,,,,,,,,,,,,,,,,,,
,,,,,,,,,,,,,,,,,,,,,,,20,Female,2020-07-28_18h26.05.430,torte-2b,2020.1.3,Win32,60,13356,,,,,,,,,,,,,,0,27,27,27,1,6,,,,,,,,,,,,,,,,,,,,,,,,,,,,,,,,,,,,,,,,,,,,,,,
,,,,,,,,,,,,,,,,,,,,,,,20,Female,2020-07-28_18h26.05.430,torte-2b,2020.1.3,Win32,60,13356,,,,,,,,,,,,,,0,28,28,28,1,5,,,,,,,,,,,,,,,,,,,,,,,,,,,,,,,,,,,,,,,,,,,,,,,
,,,,,,,,,,,,,,,,,,,,,,,20,Female,2020-07-28_18h26.05.430,torte-2b,2020.1.3,Win32,60,13356,,,,,,,,,,,,,,0,29,29,29,1,2,,,,,,,,,,,,,,,,,,,,,,,,,,,,,,,,,,,,,,,,,,,,,,,
,,,,,,,,,,,,,,,,,,,,,,,20,Female,2020-07-28_18h26.05.430,torte-2b,2020.1.3,Win32,60,13356,,,,,,,,,,,,,,0,30,30,30,1,5,,,,,,,,,,,,,,,,,,,,,,,,,,,,,,,,,,,,,,,,,,,,,,,
,,,,,,,,,,,,,,,,,,,,,,,20,Female,2020-07-28_18h26.05.430,torte-2b,2020.1.3,Win32,60,13356,,,,,,,,,,,,,,0,31,31,31,1,2,,,,,,,,,,,,,,,,,,,,,,,,,,,,,,,,,,,,,,,,,,,,,,,
,,,,,,,,,,,,,,,,,,,,,,,20,Female,2020-07-28_18h26.05.430,torte-2b,2020.1.3,Win32,60,13356,,,,,,,,,,,,,,0,32,32,32,1,5,,,,,,,,,,,,,,,,,,,,,,,,,,,,,,,,,,,,,,,,,,,,,,,
,,,,,,,,,,,,,,,,,,,,,,,20,Female,2020-07-28_18h26.05.430,torte-2b,2020.1.3,Win32,60,13356,,,,,,,,,,,,,,0,33,33,33,1,1,,,,,,,,,,,,,,,,,,,,,,,,,,,,,,,,,,,,,,,,,,,,,,,
,,,,,,,,,,,,,,,,,,,,,,,20,Female,2020-07-28_18h26.05.430,torte-2b,2020.1.3,Win32,60,13356,,,,,,,,,,,,,,0,34,34,34,1,1,,,,,,,,,,,,,,,,,,,,,,,,,,,,,,,,,,,,,,,,,,,,,,,
,,,,,,,,,,,,,,,,,,,,,,,20,Female,2020-07-28_18h26.05.430,torte-2b,2020.1.3,Win32,60,13356,,,,,,,,,,,,,,,,,,,2,,0,0,0,0,1,,,,,,,,,,,,,,,,,,,,,,,,,,,,,,,,,,,,,,,,,
,,,,,,,,,,,,,,,,,,,,,,,20,Female,2020-07-28_18h26.05.430,torte-2b,2020.1.3,Win32,60,13356,,,,,,,,,,,,,,,,,,,2,,0,1,1,1,1,,,,,,,,,,,,,,,,,,,,,,,,,,,,,,,,,,,,,,,,,
,,,,,,,,,,,,,,,,,,,,,,,20,Female,2020-07-28_18h26.05.430,torte-2b,2020.1.3,Win32,60,13356,,,,,,,,,,,,,,,,,,,6,,0,2,2,2,1,,,,,,,,,,,,,,,,,,,,,,,,,,,,,,,,,,,,,,,,,
,,,,,,,,,,,,,,,,,,,,,,,20,Female,2020-07-28_18h26.05.430,torte-2b,2020.1.3,Win32,60,13356,,,,,,,,,,,,,,,,,,,2,,0,3,3,3,1,,,,,,,,,,,,,,,,,,,,,,,,,,,,,,,,,,,,,,,,,
,,,,,,,,,,,,,,,,,,,,,,,20,Female,2020-07-28_18h26.05.430,torte-2b,2020.1.3,Win32,60,13356,,,,,,,,,,,,,,,,,,,6,,0,4,4,4,1,,,,,,,,,,,,,,,,,,,,,,,,,,,,,,,,,,,,,,,,,
,,,,,,,,,,,,,,,,,,,,,,,20,Female,2020-07-28_18h26.05.430,torte-2b,2020.1.3,Win32,60,13356,,,,,,,,,,,,,,,,,,,2,,0,5,5,5,1,,,,,,,,,,,,,,,,,,,,,,,,,,,,,,,,,,,,,,,,,
,,,,,,,,,,,,,,,,,,,,,,,20,Female,2020-07-28_18h26.05.430,torte-2b,2020.1.3,Win32,60,13356,,,,,,,,,,,,,,,,,,,7,,0,6,6,6,1,,,,,,,,,,,,,,,,,,,,,,,,,,,,,,,,,,,,,,,,,
,,,,,,,,,,,,,,,,,,,,,,,20,Female,2020-07-28_18h26.05.430,torte-2b,2020.1.3,Win32,60,13356,,,,,,,,,,,,,,,,,,,2,,0,7,7,7,1,,,,,,,,,,,,,,,,,,,,,,,,,,,,,,,,,,,,,,,,,
,,,,,,,,,,,,,,,,,,,,,,,20,Female,2020-07-28_18h26.05.430,torte-2b,2020.1.3,Win32,60,13356,,,,,,,,,,,,,,,,,,,7,,0,8,8,8,1,,,,,,,,,,,,,,,,,,,,,,,,,,,,,,,,,,,,,,,,,
,,,,,,,,,,,,,,,,,,,,,,,20,Female,2020-07-28_18h26.05.430,torte-2b,2020.1.3,Win32,60,13356,,,,,,,,,,,,,,,,,,,2,,0,9,9,9,1,,,,,,,,,,,,,,,,,,,,,,,,,,,,,,,,,,,,,,,,,
,,,,,,,,,,,,,,,,,,,,,,,20,Female,2020-07-28_18h26.05.430,torte-2b,2020.1.3,Win32,60,13356,,,,,,,,,,,,,,,,,,,5,,0,10,10,10,1,,,,,,,,,,,,,,,,,,,,,,,,,,,,,,,,,,,,,,,,,
,,,,,,,,,,,,,,,,,,,,,,,20,Female,2020-07-28_18h26.05.430,torte-2b,2020.1.3,Win32,60,13356,,,,,,,,,,,,,,,,,,,4,,0,11,11,11,1,,,,,,,,,,,,,,,,,,,,,,,,,,,,,,,,,,,,,,,,,
,,,,,,,,,,,,,,,,,,,,,,,20,Female,2020-07-28_18h26.05.430,torte-2b,2020.1.3,Win32,60,13356,,,,,,,,,,,,,,,,,,,5,,0,12,12,12,1,,,,,,,,,,,,,,,,,,,,,,,,,,,,,,,,,,,,,,,,,
,,,,,,,,,,,,,,,,,,,,,,,20,Female,2020-07-28_18h26.05.430,torte-2b,2020.1.3,Win32,60,13356,,,,,,,,,,,,,,,,,,,6,,0,13,13,13,1,,,,,,,,,,,,,,,,,,,,,,,,,,,,,,,,,,,,,,,,,
,,,,,,,,,,,,,,,,,,,,,,,20,Female,2020-07-28_18h26.05.430,torte-2b,2020.1.3,Win32,60,13356,,,,,,,,,,,,,,,,,,,5,,0,14,14,14,1,,,,,,,,,,,,,,,,,,,,,,,,,,,,,,,,,,,,,,,,,
,,,,,,,,,,,,,,,,,,,,,,,20,Female,2020-07-28_18h26.05.430,torte-2b,2020.1.3,Win32,60,13356,,,,,,,,,,,,,,,,,,,4,,0,15,15,15,1,,,,,,,,,,,,,,,,,,,,,,,,,,,,,,,,,,,,,,,,,
,,,,,,,,,,,,,,,,,,,,,,,20,Female,2020-07-28_18h26.05.430,torte-2b,2020.1.3,Win32,60,13356,,,,,,,,,,,,,,,,,,,5,,0,16,16,16,1,,,,,,,,,,,,,,,,,,,,,,,,,,,,,,,,,,,,,,,,,
,,,,,,,,,,,,,,,,,,,,,,,20,Female,2020-07-28_18h26.05.430,torte-2b,2020.1.3,Win32,60,13356,,,,,,,,,,,,,,,,,,,3,,0,17,17,17,1,,,,,,,,,,,,,,,,,,,,,,,,,,,,,,,,,,,,,,,,,
,,,,,,,,,,,,,,,,,,,,,,,20,Female,2020-07-28_18h26.05.430,torte-2b,2020.1.3,Win32,60,13356,,,,,,,,,,,,,,,,,,,6,,0,18,18,18,1,,,,,,,,,,,,,,,,,,,,,,,,,,,,,,,,,,,,,,,,,
,,,,,,,,,,,,,,,,,,,,,,,20,Female,2020-07-28_18h26.05.430,torte-2b,2020.1.3,Win32,60,13356,,,,,,,,,,,,,,,,,,,6,,0,19,19,19,1,,,,,,,,,,,,,,,,,,,,,,,,,,,,,,,,,,,,,,,,,
,,,,,,,,,,,,,,,,,,,,,,,20,Female,2020-07-28_18h26.05.430,torte-2b,2020.1.3,Win32,60,13356,,,,,,,,,,,,,,,,,,,6,,0,20,20,20,1,,,,,,,,,,,,,,,,,,,,,,,,,,,,,,,,,,,,,,,,,
,,,,,,,,,,,,,,,,,,,,,,,20,Female,2020-07-28_18h26.05.430,torte-2b,2020.1.3,Win32,60,13356,,,,,,,,,,,,,,,,,,,4,,0,21,21,21,1,,,,,,,,,,,,,,,,,,,,,,,,,,,,,,,,,,,,,,,,,
,,,,,,,,,,,,,,,,,,,,,,,20,Female,2020-07-28_18h26.05.430,torte-2b,2020.1.3,Win32,60,13356,,,,,,,,,,,,,,,,,,,6,,0,22,22,22,1,,,,,,,,,,,,,,,,,,,,,,,,,,,,,,,,,,,,,,,,,
,,,,,,,,,,,,,,,,,,,,,,,20,Female,2020-07-28_18h26.05.430,torte-2b,2020.1.3,Win32,60,13356,,,,,,,,,,,,,,,,,,,4,,0,23,23,23,1,,,,,,,,,,,,,,,,,,,,,,,,,,,,,,,,,,,,,,,,,
,,,,,,,,,,,,,,,,,,,,,,,20,Female,2020-07-28_18h26.05.430,torte-2b,2020.1.3,Win32,60,13356,,,,,,,,,,,,,,,,,,,6,,0,24,24,24,1,,,,,,,,,,,,,,,,,,,,,,,,,,,,,,,,,,,,,,,,,
,,,,,,,,,,,,,,,,,,,,,,,20,Female,2020-07-28_18h26.05.430,torte-2b,2020.1.3,Win32,60,13356,,,,,,,,,,,,,,,,,,,6,,0,25,25,25,1,,,,,,,,,,,,,,,,,,,,,,,,,,,,,,,,,,,,,,,,,
,,,,,,,,,,,,,,,,,,,,,,,20,Female,2020-07-28_18h26.05.430,torte-2b,2020.1.3,Win32,60,13356,,,,,,,,,,,,,,,,,,,7,,0,26,26,26,1,,,,,,,,,,,,,,,,,,,,,,,,,,,,,,,,,,,,,,,,,
,,,,,,,,,,,,,,,,,,,,,,,20,Female,2020-07-28_18h26.05.430,torte-2b,2020.1.3,Win32,60,13356,,,,,,,,,,,,,,,,,,,1,,0,27,27,27,1,,,,,,,,,,,,,,,,,,,,,,,,,,,,,,,,,,,,,,,,,
,,,,,,,,,,,,,,,,,,,,,,,20,Female,2020-07-28_18h26.05.430,torte-2b,2020.1.3,Win32,60,13356,,,,,,,,,,,,,,,,,,,7,,0,28,28,28,1,,,,,,,,,,,,,,,,,,,,,,,,,,,,,,,,,,,,,,,,,
,,,,,,,,,,,,,,,,,,,,,,,20,Female,2020-07-28_18h26.05.430,torte-2b,2020.1.3,Win32,60,13356,,,,,,,,,,,,,,,,,,,4,,0,29,29,29,1,,,,,,,,,,,,,,,,,,,,,,,,,,,,,,,,,,,,,,,,,
,,,,,,,,,,,,,,,,,,,,,,,20,Female,2020-07-28_18h26.05.430,torte-2b,2020.1.3,Win32,60,13356,,,,,,,,,,,,,,,,,,,7,,0,30,30,30,1,,,,,,,,,,,,,,,,,,,,,,,,,,,,,,,,,,,,,,,,,
,,,,,,,,,,,,,,,,,,,,,,,20,Female,2020-07-28_18h26.05.430,torte-2b,2020.1.3,Win32,60,13356,,,,,,,,,,,,,,,,,,,3,,0,31,31,31,1,,,,,,,,,,,,,,,,,,,,,,,,,,,,,,,,,,,,,,,,,
,,,,,,,,,,,,,,,,,,,,,,,20,Female,2020-07-28_18h26.05.430,torte-2b,2020.1.3,Win32,60,13356,,,,,,,,,,,,,,,,,,,2,,0,32,32,32,1,,,,,,,,,,,,,,,,,,,,,,,,,,,,,,,,,,,,,,,,,
,,,,,,,,,,,,,,,,,,,,,,,20,Female,2020-07-28_18h26.05.430,torte-2b,2020.1.3,Win32,60,13356,,,,,,,,,,,,,,,,,,,6,,0,33,33,33,1,,,,,,,,,,,,,,,,,,,,,,,,,,,,,,,,,,,,,,,,,
,,,,,,,,,,,,,,,,,,,,,,,20,Female,2020-07-28_18h26.05.430,torte-2b,2020.1.3,Win32,60,13356,,,,,,,,,,,,,,,,,,,3,,0,34,34,34,1,,,,,,,,,,,,,,,,,,,,,,,,,,,,,,,,,,,,,,,,,
,,,,,,,,,,,,,,,,,,,,,,,20,Female,2020-07-28_18h26.05.430,torte-2b,2020.1.3,Win32,60,13356,,,,,,,,,,,,,,,,,,,7,,,,,,,0,0,0,0,1,,,,,,,,,,,,,,,,,,,,,,,,,,,,,,,,,,,,
,,,,,,,,,,,,,,,,,,,,,,,20,Female,2020-07-28_18h26.05.430,torte-2b,2020.1.3,Win32,60,13356,,,,,,,,,,,,,,,,,,,5,,,,,,,0,1,1,1,1,,,,,,,,,,,,,,,,,,,,,,,,,,,,,,,,,,,,
,,,,,,,,,,,,,,,,,,,,,,,20,Female,2020-07-28_18h26.05.430,torte-2b,2020.1.3,Win32,60,13356,,,,,,,,,,,,,,,,,,,4,,,,,,,0,2,2,2,1,,,,,,,,,,,,,,,,,,,,,,,,,,,,,,,,,,,,
,,,,,,,,,,,,,,,,,,,,,,,20,Female,2020-07-28_18h26.05.430,torte-2b,2020.1.3,Win32,60,13356,,,,,,,,,,,,,,,,,,,5,,,,,,,0,3,3,3,1,,,,,,,,,,,,,,,,,,,,,,,,,,,,,,,,,,,,
,,,,,,,,,,,,,,,,,,,,,,,20,Female,2020-07-28_18h26.05.430,torte-2b,2020.1.3,Win32,60,13356,,,,,,,,,,,,,,,,,,,6,,,,,,,0,4,4,4,1,,,,,,,,,,,,,,,,,,,,,,,,,,,,,,,,,,,,
,,,,,,,,,,,,,,,,,,,,,,,20,Female,2020-07-28_18h26.05.430,torte-2b,2020.1.3,Win32,60,13356,,,,,,,,,,,,,,,,,,,5,,,,,,,0,5,5,5,1,,,,,,,,,,,,,,,,,,,,,,,,,,,,,,,,,,,,
,,,,,,,,,,,,,,,,,,,,,,,20,Female,2020-07-28_18h26.05.430,torte-2b,2020.1.3,Win32,60,13356,,,,,,,,,,,,,,,,,,,3,,,,,,,0,6,6,6,1,,,,,,,,,,,,,,,,,,,,,,,,,,,,,,,,,,,,
,,,,,,,,,,,,,,,,,,,,,,,20,Female,2020-07-28_18h26.05.430,torte-2b,2020.1.3,Win32,60,13356,,,,,,,,,,,,,,,,,,,4,,,,,,,0,7,7,7,1,,,,,,,,,,,,,,,,,,,,,,,,,,,,,,,,,,,,
,,,,,,,,,,,,,,,,,,,,,,,20,Female,2020-07-28_18h26.05.430,torte-2b,2020.1.3,Win32,60,13356,,,,,,,,,,,,,,,,,,,3,,,,,,,0,8,8,8,1,,,,,,,,,,,,,,,,,,,,,,,,,,,,,,,,,,,,
,,,,,,,,,,,,,,,,,,,,,,,20,Female,2020-07-28_18h26.05.430,torte-2b,2020.1.3,Win32,60,13356,,,,,,,,,,,,,,,,,,,1,,,,,,,0,9,9,9,1,,,,,,,,,,,,,,,,,,,,,,,,,,,,,,,,,,,,
,,,,,,,,,,,,,,,,,,,,,,,20,Female,2020-07-28_18h26.05.430,torte-2b,2020.1.3,Win32,60,13356,,,,,,,,,,,,,,,,,,,2,,,,,,,0,10,10,10,1,,,,,,,,,,,,,,,,,,,,,,,,,,,,,,,,,,,,
,,,,,,,,,,,,,,,,,,,,,,,20,Female,2020-07-28_18h26.05.430,torte-2b,2020.1.3,Win32,60,13356,,,,,,,,,,,,,,,,,,,1,,,,,,,0,11,11,11,1,,,,,,,,,,,,,,,,,,,,,,,,,,,,,,,,,,,,
,,,,,,,,,,,,,,,,,,,,,,,20,Female,2020-07-28_18h26.05.430,torte-2b,2020.1.3,Win32,60,13356,,,,,,,,,,,,,,,,,,,2,,,,,,,0,12,12,12,1,,,,,,,,,,,,,,,,,,,,,,,,,,,,,,,,,,,,
,,,,,,,,,,,,,,,,,,,,,,,20,Female,2020-07-28_18h26.05.430,torte-2b,2020.1.3,Win32,60,13356,,,,,,,,,,,,,,,,,,,1,,,,,,,0,13,13,13,1,,,,,,,,,,,,,,,,,,,,,,,,,,,,,,,,,,,,
,,,,,,,,,,,,,,,,,,,,,,,20,Female,2020-07-28_18h26.05.430,torte-2b,2020.1.3,Win32,60,13356,,,,,,,,,,,,,,,,,,,3,,,,,,,0,14,14,14,1,,,,,,,,,,,,,,,,,,,,,,,,,,,,,,,,,,,,
,,,,,,,,,,,,,,,,,,,,,,,20,Female,2020-07-28_18h26.05.430,torte-2b,2020.1.3,Win32,60,13356,,,,,,,,,,,,,,,,,,,1,,,,,,,0,15,15,15,1,,,,,,,,,,,,,,,,,,,,,,,,,,,,,,,,,,,,
,,,,,,,,,,,,,,,,,,,,,,,20,Female,2020-07-28_18h26.05.430,torte-2b,2020.1.3,Win32,60,13356,,,,,,,,,,,,,,,,,,,7,,,,,,,0,16,16,16,1,,,,,,,,,,,,,,,,,,,,,,,,,,,,,,,,,,,,
,,,,,,,,,,,,,,,,,,,,,,,20,Female,2020-07-28_18h26.05.430,torte-2b,2020.1.3,Win32,60,13356,,,,,,,,,,,,,,,,,,,7,,,,,,,0,17,17,17,1,,,,,,,,,,,,,,,,,,,,,,,,,,,,,,,,,,,,
,,,,,,,,,,,,,,,,,,,,,,,20,Female,2020-07-28_18h26.05.430,torte-2b,2020.1.3,Win32,60,13356,,,,,,,,,,,,,,,,,,,4,,,,,,,0,18,18,18,1,,,,,,,,,,,,,,,,,,,,,,,,,,,,,,,,,,,,
,,,,,,,,,,,,,,,,,,,,,,,20,Female,2020-07-28_18h26.05.430,torte-2b,2020.1.3,Win32,60,13356,,,,,,,,,,,,,,,,,,,7,,,,,,,0,19,19,19,1,,,,,,,,,,,,,,,,,,,,,,,,,,,,,,,,,,,,
,,,,,,,,,,,,,,,,,,,,,,,20,Female,2020-07-28_18h26.05.430,torte-2b,2020.1.3,Win32,60,13356,,,,,,,,,,,,,,,,,,,3,,,,,,,0,20,20,20,1,,,,,,,,,,,,,,,,,,,,,,,,,,,,,,,,,,,,
,,,,,,,,,,,,,,,,,,,,,,,20,Female,2020-07-28_18h26.05.430,torte-2b,2020.1.3,Win32,60,13356,,,,,,,,,,,,,,,,,,,7,,,,,,,0,21,21,21,1,,,,,,,,,,,,,,,,,,,,,,,,,,,,,,,,,,,,
,,,,,,,,,,,,,,,,,,,,,,,20,Female,2020-07-28_18h26.05.430,torte-2b,2020.1.3,Win32,60,13356,,,,,,,,,,,,,,,,,,,3,,,,,,,0,22,22,22,1,,,,,,,,,,,,,,,,,,,,,,,,,,,,,,,,,,,,
,,,,,,,,,,,,,,,,,,,,,,,20,Female,2020-07-28_18h26.05.430,torte-2b,2020.1.3,Win32,60,13356,,,,,,,,,,,,,,,,,,,1,,,,,,,0,23,23,23,1,,,,,,,,,,,,,,,,,,,,,,,,,,,,,,,,,,,,
,,,,,,,,,,,,,,,,,,,,,,,20,Female,2020-07-28_18h26.05.430,torte-2b,2020.1.3,Win32,60,13356,,,,,,,,,,,,,,,,,,,6,,,,,,,0,24,24,24,1,,,,,,,,,,,,,,,,,,,,,,,,,,,,,,,,,,,,
,,,,,,,,,,,,,,,,,,,,,,,20,Female,2020-07-28_18h26.05.430,torte-2b,2020.1.3,Win32,60,13356,,,,,,,,,,,,,,,,,,,3,,,,,,,0,25,25,25,1,,,,,,,,,,,,,,,,,,,,,,,,,,,,,,,,,,,,
,,,,,,,,,,,,,,,,,,,,,,,20,Female,2020-07-28_18h26.05.430,torte-2b,2020.1.3,Win32,60,13356,,,,,,,,,,,,,,,,,,,2,,,,,,,0,26,26,26,1,,,,,,,,,,,,,,,,,,,,,,,,,,,,,,,,,,,,
,,,,,,,,,,,,,,,,,,,,,,,20,Female,2020-07-28_18h26.05.430,torte-2b,2020.1.3,Win32,60,13356,,,,,,,,,,,,,,,,,,,3,,,,,,,0,27,27,27,1,,,,,,,,,,,,,,,,,,,,,,,,,,,,,,,,,,,,
,,,,,,,,,,,,,,,,,,,,,,,20,Female,2020-07-28_18h26.05.430,torte-2b,2020.1.3,Win32,60,13356,,,,,,,,,,,,,,,,,,,1,,,,,,,0,28,28,28,1,,,,,,,,,,,,,,,,,,,,,,,,,,,,,,,,,,,,
,,,,,,,,,,,,,,,,,,,,,,,20,Female,2020-07-28_18h26.05.430,torte-2b,2020.1.3,Win32,60,13356,,,,,,,,,,,,,,,,,,,3,,,,,,,0,29,29,29,1,,,,,,,,,,,,,,,,,,,,,,,,,,,,,,,,,,,,
,,,,,,,,,,,,,,,,,,,,,,,20,Female,2020-07-28_18h26.05.430,torte-2b,2020.1.3,Win32,60,13356,,,,,,,,,,,,,,,,,,,1,,,,,,,0,30,30,30,1,,,,,,,,,,,,,,,,,,,,,,,,,,,,,,,,,,,,
,,,,,,,,,,,,,,,,,,,,,,,20,Female,2020-07-28_18h26.05.430,torte-2b,2020.1.3,Win32,60,13356,,,,,,,,,,,,,,,,,,,7,,,,,,,0,31,31,31,1,,,,,,,,,,,,,,,,,,,,,,,,,,,,,,,,,,,,
,,,,,,,,,,,,,,,,,,,,,,,20,Female,2020-07-28_18h26.05.430,torte-2b,2020.1.3,Win32,60,13356,,,,,,,,,,,,,,,,,,,5,,,,,,,0,32,32,32,1,,,,,,,,,,,,,,,,,,,,,,,,,,,,,,,,,,,,
,,,,,,,,,,,,,,,,,,,,,,,20,Female,2020-07-28_18h26.05.430,torte-2b,2020.1.3,Win32,60,13356,,,,,,,,,,,,,,,,,,,7,,,,,,,0,33,33,33,1,,,,,,,,,,,,,,,,,,,,,,,,,,,,,,,,,,,,
,,,,,,,,,,,,,,,,,,,,,,,20,Female,2020-07-28_18h26.05.430,torte-2b,2020.1.3,Win32,60,13356,,,,,,,,,,,,,,,,,,,2,,,,,,,0,34,34,34,1,,,,,,,,,,,,,,,,,,,,,,,,,,,,,,,,,,,,
,,,,,,,,,,,,,,,,,,,,,,,20,Female,2020-07-28_18h26.05.430,torte-2b,2020.1.3,Win32,60,13356,,,,,,,,,,,,,,,,,,,3,,,,,,,,,,,,0,0,0,0,1,,,,,,,,,,,,,,,,,,,,,,,,,,,,,,,
,,,,,,,,,,,,,,,,,,,,,,,20,Female,2020-07-28_18h26.05.430,torte-2b,2020.1.3,Win32,60,13356,,,,,,,,,,,,,,,,,,,7,,,,,,,,,,,,0,1,1,1,1,,,,,,,,,,,,,,,,,,,,,,,,,,,,,,,
,,,,,,,,,,,,,,,,,,,,,,,20,Female,2020-07-28_18h26.05.430,torte-2b,2020.1.3,Win32,60,13356,,,,,,,,,,,,,,,,,,,7,,,,,,,,,,,,0,2,2,2,1,,,,,,,,,,,,,,,,,,,,,,,,,,,,,,,
,,,,,,,,,,,,,,,,,,,,,,,20,Female,2020-07-28_18h26.05.430,torte-2b,2020.1.3,Win32,60,13356,,,,,,,,,,,,,,,,,,,4,,,,,,,,,,,,0,3,3,3,1,,,,,,,,,,,,,,,,,,,,,,,,,,,,,,,
,,,,,,,,,,,,,,,,,,,,,,,20,Female,2020-07-28_18h26.05.430,torte-2b,2020.1.3,Win32,60,13356,,,,,,,,,,,,,,,,,,,5,,,,,,,,,,,,0,4,4,4,1,,,,,,,,,,,,,,,,,,,,,,,,,,,,,,,
,,,,,,,,,,,,,,,,,,,,,,,20,Female,2020-07-28_18h26.05.430,torte-2b,2020.1.3,Win32,60,13356,,,,,,,,,,,,,,,,,,,4,,,,,,,,,,,,0,5,5,5,1,,,,,,,,,,,,,,,,,,,,,,,,,,,,,,,
,,,,,,,,,,,,,,,,,,,,,,,20,Female,2020-07-28_18h26.05.430,torte-2b,2020.1.3,Win32,60,13356,,,,,,,,,,,,,,,,,,,2,,,,,,,,,,,,0,6,6,6,1,,,,,,,,,,,,,,,,,,,,,,,,,,,,,,,
,,,,,,,,,,,,,,,,,,,,,,,20,Female,2020-07-28_18h26.05.430,torte-2b,2020.1.3,Win32,60,13356,,,,,,,,,,,,,,,,,,,4,,,,,,,,,,,,0,7,7,7,1,,,,,,,,,,,,,,,,,,,,,,,,,,,,,,,
,,,,,,,,,,,,,,,,,,,,,,,20,Female,2020-07-28_18h26.05.430,torte-2b,2020.1.3,Win32,60,13356,,,,,,,,,,,,,,,,,,,2,,,,,,,,,,,,0,8,8,8,1,,,,,,,,,,,,,,,,,,,,,,,,,,,,,,,
,,,,,,,,,,,,,,,,,,,,,,,20,Female,2020-07-28_18h26.05.430,torte-2b,2020.1.3,Win32,60,13356,,,,,,,,,,,,,,,,,,,2,,,,,,,,,,,,0,9,9,9,1,,,,,,,,,,,,,,,,,,,,,,,,,,,,,,,
,,,,,,,,,,,,,,,,,,,,,,,20,Female,2020-07-28_18h26.05.430,torte-2b,2020.1.3,Win32,60,13356,,,,,,,,,,,,,,,,,,,6,,,,,,,,,,,,0,10,10,10,1,,,,,,,,,,,,,,,,,,,,,,,,,,,,,,,
,,,,,,,,,,,,,,,,,,,,,,,20,Female,2020-07-28_18h26.05.430,torte-2b,2020.1.3,Win32,60,13356,,,,,,,,,,,,,,,,,,,2,,,,,,,,,,,,0,11,11,11,1,,,,,,,,,,,,,,,,,,,,,,,,,,,,,,,
,,,,,,,,,,,,,,,,,,,,,,,20,Female,2020-07-28_18h26.05.430,torte-2b,2020.1.3,Win32,60,13356,,,,,,,,,,,,,,,,,,,2,,,,,,,,,,,,0,12,12,12,1,,,,,,,,,,,,,,,,,,,,,,,,,,,,,,,
,,,,,,,,,,,,,,,,,,,,,,,20,Female,2020-07-28_18h26.05.430,torte-2b,2020.1.3,Win32,60,13356,,,,,,,,,,,,,,,,,,,2,,,,,,,,,,,,0,13,13,13,1,,,,,,,,,,,,,,,,,,,,,,,,,,,,,,,
,,,,,,,,,,,,,,,,,,,,,,,20,Female,2020-07-28_18h26.05.430,torte-2b,2020.1.3,Win32,60,13356,,,,,,,,,,,,,,,,,,,2,,,,,,,,,,,,0,14,14,14,1,,,,,,,,,,,,,,,,,,,,,,,,,,,,,,,
,,,,,,,,,,,,,,,,,,,,,,,20,Female,2020-07-28_18h26.05.430,torte-2b,2020.1.3,Win32,60,13356,,,,,,,,,,,,,,,,,,,4,,,,,,,,,,,,0,15,15,15,1,,,,,,,,,,,,,,,,,,,,,,,,,,,,,,,
,,,,,,,,,,,,,,,,,,,,,,,20,Female,2020-07-28_18h26.05.430,torte-2b,2020.1.3,Win32,60,13356,,,,,,,,,,,,,,,,,,,3,,,,,,,,,,,,0,16,16,16,1,,,,,,,,,,,,,,,,,,,,,,,,,,,,,,,
,,,,,,,,,,,,,,,,,,,,,,,20,Female,2020-07-28_18h26.05.430,torte-2b,2020.1.3,Win32,60,13356,,,,,,,,,,,,,,,,,,,7,,,,,,,,,,,,0,17,17,17,1,,,,,,,,,,,,,,,,,,,,,,,,,,,,,,,
,,,,,,,,,,,,,,,,,,,,,,,20,Female,2020-07-28_18h26.05.430,torte-2b,2020.1.3,Win32,60,13356,,,,,,,,,,,,,,,,,,,4,,,,,,,,,,,,0,18,18,18,1,,,,,,,,,,,,,,,,,,,,,,,,,,,,,,,
,,,,,,,,,,,,,,,,,,,,,,,20,Female,2020-07-28_18h26.05.430,torte-2b,2020.1.3,Win32,60,13356,,,,,,,,,,,,,,,,,,,7,,,,,,,,,,,,0,19,19,19,1,,,,,,,,,,,,,,,,,,,,,,,,,,,,,,,
,,,,,,,,,,,,,,,,,,,,,,,20,Female,2020-07-28_18h26.05.430,torte-2b,2020.1.3,Win32,60,13356,,,,,,,,,,,,,,,,,,,7,,,,,,,,,,,,0,20,20,20,1,,,,,,,,,,,,,,,,,,,,,,,,,,,,,,,
,,,,,,,,,,,,,,,,,,,,,,,20,Female,2020-07-28_18h26.05.430,torte-2b,2020.1.3,Win32,60,13356,,,,,,,,,,,,,,,,,,,7,,,,,,,,,,,,0,21,21,21,1,,,,,,,,,,,,,,,,,,,,,,,,,,,,,,,
,,,,,,,,,,,,,,,,,,,,,,,20,Female,2020-07-28_18h26.05.430,torte-2b,2020.1.3,Win32,60,13356,,,,,,,,,,,,,,,,,,,7,,,,,,,,,,,,0,22,22,22,1,,,,,,,,,,,,,,,,,,,,,,,,,,,,,,,
,,,,,,,,,,,,,,,,,,,,,,,20,Female,2020-07-28_18h26.05.430,torte-2b,2020.1.3,Win32,60,13356,,,,,,,,,,,,,,,,,,,1,,,,,,,,,,,,0,23,23,23,1,,,,,,,,,,,,,,,,,,,,,,,,,,,,,,,
,,,,,,,,,,,,,,,,,,,,,,,20,Female,2020-07-28_18h26.05.430,torte-2b,2020.1.3,Win32,60,13356,,,,,,,,,,,,,,,,,,,7,,,,,,,,,,,,0,24,24,24,1,,,,,,,,,,,,,,,,,,,,,,,,,,,,,,,
,,,,,,,,,,,,,,,,,,,,,,,20,Female,2020-07-28_18h26.05.430,torte-2b,2020.1.3,Win32,60,13356,,,,,,,,,,,,,,,,,,,1,,,,,,,,,,,,0,25,25,25,1,,,,,,,,,,,,,,,,,,,,,,,,,,,,,,,
,,,,,,,,,,,,,,,,,,,,,,,20,Female,2020-07-28_18h26.05.430,torte-2b,2020.1.3,Win32,60,13356,,,,,,,,,,,,,,,,,,,7,,,,,,,,,,,,0,26,26,26,1,,,,,,,,,,,,,,,,,,,,,,,,,,,,,,,
,,,,,,,,,,,,,,,,,,,,,,,20,Female,2020-07-28_18h26.05.430,torte-2b,2020.1.3,Win32,60,13356,,,,,,,,,,,,,,,,,,,2,,,,,,,,,,,,0,27,27,27,1,,,,,,,,,,,,,,,,,,,,,,,,,,,,,,,
,,,,,,,,,,,,,,,,,,,,,,,20,Female,2020-07-28_18h26.05.430,torte-2b,2020.1.3,Win32,60,13356,,,,,,,,,,,,,,,,,,,5,,,,,,,,,,,,0,28,28,28,1,,,,,,,,,,,,,,,,,,,,,,,,,,,,,,,
,,,,,,,,,,,,,,,,,,,,,,,20,Female,2020-07-28_18h26.05.430,torte-2b,2020.1.3,Win32,60,13356,,,,,,,,,,,,,,,,,,,5,,,,,,,,,,,,0,29,29,29,1,,,,,,,,,,,,,,,,,,,,,,,,,,,,,,,
,,,,,,,,,,,,,,,,,,,,,,,20,Female,2020-07-28_18h26.05.430,torte-2b,2020.1.3,Win32,60,13356,,,,,,,,,,,,,,,,,,,5,,,,,,,,,,,,0,30,30,30,1,,,,,,,,,,,,,,,,,,,,,,,,,,,,,,,
,,,,,,,,,,,,,,,,,,,,,,,20,Female,2020-07-28_18h26.05.430,torte-2b,2020.1.3,Win32,60,13356,,,,,,,,,,,,,,,,,,,1,,,,,,,,,,,,0,31,31,31,1,,,,,,,,,,,,,,,,,,,,,,,,,,,,,,,
,,,,,,,,,,,,,,,,,,,,,,,20,Female,2020-07-28_18h26.05.430,torte-2b,2020.1.3,Win32,60,13356,,,,,,,,,,,,,,,,,,,5,,,,,,,,,,,,0,32,32,32,1,,,,,,,,,,,,,,,,,,,,,,,,,,,,,,,
,,,,,,,,,,,,,,,,,,,,,,,20,Female,2020-07-28_18h26.05.430,torte-2b,2020.1.3,Win32,60,13356,,,,,,,,,,,,,,,,,,,3,,,,,,,,,,,,0,33,33,33,1,,,,,,,,,,,,,,,,,,,,,,,,,,,,,,,
,,,,,,,,,,,,,,,,,,,,,,,20,Female,2020-07-28_18h26.05.430,torte-2b,2020.1.3,Win32,60,13356,,,,,,,,,,,,,,,,,,,3,,,,,,,,,,,,0,34,34,34,1,,,,,,,,,,,,,,,,,,,,,,,,,,,,,,,
,,,,,,,,,,,,a,Correct!,,,,,,t4.png,t5.png,1,0.90025,20,Female,2020-07-28_18h26.05.430,torte-2b,2020.1.3,Win32,60,13356,1.09848,space,5.67319,,,,,,,,,,,,,,,,,,,,,,,,,,,,,,,,,space,8.173225,0,0,0,63,1,,,,,,,,,,,,,,,,,,,,,,,,
,,,,,,,,,,,,l,Correct!,,,,,,t4.png,t1.png,3,0.0000131,20,Female,2020-07-28_18h26.05.430,torte-2b,2020.1.3,Win32,60,13356,1.114505,,,,,,,,,,,,,,,,,,,,,,,,,,,,,,,,,,,,,0,1,1,102,1,,,,,,,,,,,,,,,,,,,,,,,,
,,,,,,,,,,,,a,Correct!,,,,,,t1.png,t1.png,0,0.97829,20,Female,2020-07-28_18h26.05.430,torte-2b,2020.1.3,Win32,60,13356,0.8376,,,,,,,,,,,,,,,,,,,,,,,,,,,,,,,,,,,,,0,2,2,110,1,,,,,,,,,,,,,,,,,,,,,,,,
,,,,,,,,,,,,a,Correct!,,,,,,t5.png,t5.png,0,0.978,20,Female,2020-07-28_18h26.05.430,torte-2b,2020.1.3,Win32,60,13356,0.77522,,,,,,,,,,,,,,,,,,,,,,,,,,,,,,,,,,,,,0,3,3,51,1,,,,,,,,,,,,,,,,,,,,,,,,
,,,,,,,,,,,,a,Incorrect,,,,,,t5.png,t1.png,4,9.55E-11,20,Female,2020-07-28_18h26.05.430,torte-2b,2020.1.3,Win32,60,13356,1.017835,,,,,,,,,,,,,,,,,,,,,,,,,,,,,,,,,,,,,0,4,4,31,1,,,,,,,,,,,,,,,,,,,,,,,,
,,,,,,,,,,,,l,Incorrect,,,,,,t3.png,t4.png,1,0.90855,20,Female,2020-07-28_18h26.05.430,torte-2b,2020.1.3,Win32,60,13356,0.987635,,,,,,,,,,,,,,,,,,,,,,,,,,,,,,,,,,,,,0,5,5,58,1,,,,,,,,,,,,,,,,,,,,,,,,
,,,,,,,,,,,,a,Correct!,,,,,,t1.png,t2.png,1,0.9,20,Female,2020-07-28_18h26.05.430,torte-2b,2020.1.3,Win32,60,13356,1.640845,,,,,,,,,,,,,,,,,,,,,,,,,,,,,,,,,,,,,0,6,6,41,1,,,,,,,,,,,,,,,,,,,,,,,,
,,,,,,,,,,,,a,Incorrect,,,,,,t5.png,t3.png,2,0.056466,20,Female,2020-07-28_18h26.05.430,torte-2b,2020.1.3,Win32,60,13356,0.98529,,,,,,,,,,,,,,,,,,,,,,,,,,,,,,,,,,,,,0,7,7,26,1,,,,,,,,,,,,,,,,,,,,,,,,
,,,,,,,,,,,,l,Correct!,,,,,,t3.png,t1.png,2,0.0565,20,Female,2020-07-28_18h26.05.430,torte-2b,2020.1.3,Win32,60,13356,0.868665,,,,,,,,,,,,,,,,,,,,,,,,,,,,,,,,,,,,,0,8,8,40,1,,,,,,,,,,,,,,,,,,,,,,,,
,,,,,,,,,,,,a,Incorrect,,,,,,t4.png,t1.png,3,0.0000131,20,Female,2020-07-28_18h26.05.430,torte-2b,2020.1.3,Win32,60,13356,1.00075,,,,,,,,,,,,,,,,,,,,,,,,,,,,,,,,,,,,,0,9,9,91,1,,,,,,,,,,,,,,,,,,,,,,,,
,,,,,,,,,,,,a,Correct!,,,,,,t4.png,t3.png,1,0.90855,20,Female,2020-07-28_18h26.05.430,torte-2b,2020.1.3,Win32,60,13356,0.767785,,,,,,,,,,,,,,,,,,,,,,,,,,,,,,,,,,,,,0,10,10,29,1,,,,,,,,,,,,,,,,,,,,,,,,
,,,,,,,,,,,,a,Correct!,,,,,,t4.png,t4.png,0,0.98115,20,Female,2020-07-28_18h26.05.430,torte-2b,2020.1.3,Win32,60,13356,0.81483,,,,,,,,,,,,,,,,,,,,,,,,,,,,,,,,,,,,,0,11,11,59,1,,,,,,,,,,,,,,,,,,,,,,,,
,,,,,,,,,,,,a,Correct!,,,,,,t4.png,t5.png,1,0.90025,20,Female,2020-07-28_18h26.05.430,torte-2b,2020.1.3,Win32,60,13356,0.59563,,,,,,,,,,,,,,,,,,,,,,,,,,,,,,,,,,,,,0,12,12,86,1,,,,,,,,,,,,,,,,,,,,,,,,
,,,,,,,,,,,,l,Correct!,,,,,,t1.png,t5.png,4,9.55E-11,20,Female,2020-07-28_18h26.05.430,torte-2b,2020.1.3,Win32,60,13356,1.261545,,,,,,,,,,,,,,,,,,,,,,,,,,,,,,,,,,,,,0,13,13,20,1,,,,,,,,,,,,,,,,,,,,,,,,
,,,,,,,,,,,,l,Correct!,,,,,,t1.png,t3.png,2,0.056466,20,Female,2020-07-28_18h26.05.430,torte-2b,2020.1.3,Win32,60,13356,1.06674,,,,,,,,,,,,,,,,,,,,,,,,,,,,,,,,,,,,,0,14,14,32,1,,,,,,,,,,,,,,,,,,,,,,,,
,,,,,,,,,,,,a,Incorrect,,,,,,t4.png,t1.png,3,0.059078,20,Female,2020-07-28_18h26.05.430,torte-2b,2020.1.3,Win32,60,13356,0.67235,,,,,,,,,,,,,,,,,,,,,,,,,,,,,,,,,,,,,0,15,15,75,1,,,,,,,,,,,,,,,,,,,,,,,,
,,,,,,,,,,,,a,Correct!,,,,,,t4.png,t3.png,1,0.90855,20,Female,2020-07-28_18h26.05.430,torte-2b,2020.1.3,Win32,60,13356,0.984495,,,,,,,,,,,,,,,,,,,,,,,,,,,,,,,,,,,,,0,16,16,11,1,,,,,,,,,,,,,,,,,,,,,,,,
,,,,,,,,,,,,l,Incorrect,,,,,,t2.png,t2.png,0,0.98115,20,Female,2020-07-28_18h26.05.430,torte-2b,2020.1.3,Win32,60,13356,1.581865,,,,,,,,,,,,,,,,,,,,,,,,,,,,,,,,,,,,,0,17,17,112,1,,,,,,,,,,,,,,,,,,,,,,,,
,,,,,,,,,,,,a,Correct!,,,,,,t5.png,t4.png,1,0.90025,20,Female,2020-07-28_18h26.05.430,torte-2b,2020.1.3,Win32,60,13356,1.360515,,,,,,,,,,,,,,,,,,,,,,,,,,,,,,,,,,,,,0,18,18,14,1,,,,,,,,,,,,,,,,,,,,,,,,
,,,,,,,,,,,,a,Correct!,,,,,,t4.png,t5.png,1,0.9,20,Female,2020-07-28_18h26.05.430,torte-2b,2020.1.3,Win32,60,13356,0.602275,,,,,,,,,,,,,,,,,,,,,,,,,,,,,,,,,,,,,0,19,19,81,1,,,,,,,,,,,,,,,,,,,,,,,,
,,,,,,,,,,,,a,Incorrect,,,,,,t4.png,t1.png,3,0.059078,20,Female,2020-07-28_18h26.05.430,torte-2b,2020.1.3,Win32,60,13356,1.41351,,,,,,,,,,,,,,,,,,,,,,,,,,,,,,,,,,,,,0,20,20,57,1,,,,,,,,,,,,,,,,,,,,,,,,
,,,,,,,,,,,,l,Incorrect,,,,,,t2.png,t3.png,1,0.90855,20,Female,2020-07-28_18h26.05.430,torte-2b,2020.1.3,Win32,60,13356,0.782555,,,,,,,,,,,,,,,,,,,,,,,,,,,,,,,,,,,,,0,21,21,70,1,,,,,,,,,,,,,,,,,,,,,,,,
,,,,,,,,,,,,a,Incorrect,,,,,,t5.png,t2.png,3,0.0000131,20,Female,2020-07-28_18h26.05.430,torte-2b,2020.1.3,Win32,60,13356,1.348455,,,,,,,,,,,,,,,,,,,,,,,,,,,,,,,,,,,,,0,22,22,82,1,,,,,,,,,,,,,,,,,,,,,,,,
,,,,,,,,,,,,l,Incorrect,,,,,,t2.png,t1.png,1,0.90025,20,Female,2020-07-28_18h26.05.430,torte-2b,2020.1.3,Win32,60,13356,1.536925,,,,,,,,,,,,,,,,,,,,,,,,,,,,,,,,,,,,,0,23,23,65,1,,,,,,,,,,,,,,,,,,,,,,,,
,,,,,,,,,,,,a,Incorrect,,,,,,t3.png,t1.png,2,0.056466,20,Female,2020-07-28_18h26.05.430,torte-2b,2020.1.3,Win32,60,13356,1.323125,,,,,,,,,,,,,,,,,,,,,,,,,,,,,,,,,,,,,0,24,24,109,1,,,,,,,,,,,,,,,,,,,,,,,,
,,,,,,,,,,,,l,Incorrect,,,,,,t3.png,t4.png,1,0.90855,20,Female,2020-07-28_18h26.05.430,torte-2b,2020.1.3,Win32,60,13356,0.932485,,,,,,,,,,,,,,,,,,,,,,,,,,,,,,,,,,,,,0,25,25,5,1,,,,,,,,,,,,,,,,,,,,,,,,
,,,,,,,,,,,,a,Correct!,,,,,,t1.png,t1.png,0,0.97829,20,Female,2020-07-28_18h26.05.430,torte-2b,2020.1.3,Win32,60,13356,0.71593,,,,,,,,,,,,,,,,,,,,,,,,,,,,,,,,,,,,,0,26,26,4,1,,,,,,,,,,,,,,,,,,,,,,,,
,,,,,,,,,,,,l,Correct!,,,,,,t1.png,t3.png,2,0.0565,20,Female,2020-07-28_18h26.05.430,torte-2b,2020.1.3,Win32,60,13356,0.953205,,,,,,,,,,,,,,,,,,,,,,,,,,,,,,,,,,,,,0,27,27,95,1,,,,,,,,,,,,,,,,,,,,,,,,
,,,,,,,,,,,,l,Incorrect,,,,,,t2.png,t3.png,1,0.909,20,Female,2020-07-28_18h26.05.430,torte-2b,2020.1.3,Win32,60,13356,0.899685,,,,,,,,,,,,,,,,,,,,,,,,,,,,,,,,,,,,,0,28,28,8,1,,,,,,,,,,,,,,,,,,,,,,,,
,,,,,,,,,,,,l,Incorrect,,,,,,t2.png,t3.png,1,0.90855,20,Female,2020-07-28_18h26.05.430,torte-2b,2020.1.3,Win32,60,13356,0.925615,,,,,,,,,,,,,,,,,,,,,,,,,,,,,,,,,,,,,0,29,29,64,1,,,,,,,,,,,,,,,,,,,,,,,,
,,,,,,,,,,,,a,Incorrect,,,,,,t5.png,t2.png,3,0.0000131,20,Female,2020-07-28_18h26.05.430,torte-2b,2020.1.3,Win32,60,13356,0.499415,,,,,,,,,,,,,,,,,,,,,,,,,,,,,,,,,,,,,0,30,30,66,1,,,,,,,,,,,,,,,,,,,,,,,,
,,,,,,,,,,,,a,Correct!,,,,,,t5.png,t5.png,0,0.97829,20,Female,2020-07-28_18h26.05.430,torte-2b,2020.1.3,Win32,60,13356,0.690465,,,,,,,,,,,,,,,,,,,,,,,,,,,,,,,,,,,,,0,31,31,77,1,,,,,,,,,,,,,,,,,,,,,,,,
,,,,,,,,,,,,a,Incorrect,,,,,,t5.png,t2.png,3,0.0000131,20,Female,2020-07-28_18h26.05.430,torte-2b,2020.1.3,Win32,60,13356,0.74891,,,,,,,,,,,,,,,,,,,,,,,,,,,,,,,,,,,,,0,32,32,83,1,,,,,,,,,,,,,,,,,,,,,,,,
,,,,,,,,,,,,l,Incorrect,,,,,,t2.png,t1.png,1,0.9,20,Female,2020-07-28_18h26.05.430,torte-2b,2020.1.3,Win32,60,13356,0.87189,,,,,,,,,,,,,,,,,,,,,,,,,,,,,,,,,,,,,0,33,33,93,1,,,,,,,,,,,,,,,,,,,,,,,,
,,,,,,,,,,,,a,Correct!,,,,,,t5.png,t4.png,1,0.9,20,Female,2020-07-28_18h26.05.430,torte-2b,2020.1.3,Win32,60,13356,0.532115,,,,,,,,,,,,,,,,,,,,,,,,,,,,,,,,,,,,,0,34,34,55,1,,,,,,,,,,,,,,,,,,,,,,,,
,,,,,,,,,,,,a,Correct!,,,,,,t3.png,t2.png,1,0.90855,20,Female,2020-07-28_18h26.05.430,torte-2b,2020.1.3,Win32,60,13356,1.19492,,,,,,,,,,,,,,,,,,,,,,,,,,,,,,,,,,,,,0,35,35,108,1,,,,,,,,,,,,,,,,,,,,,,,,
,,,,,,,,,,,,a,Correct!,,,,,,t5.png,t5.png,0,0.978,20,Female,2020-07-28_18h26.05.430,torte-2b,2020.1.3,Win32,60,13356,1.29151,,,,,,,,,,,,,,,,,,,,,,,,,,,,,,,,,,,,,0,36,36,116,1,,,,,,,,,,,,,,,,,,,,,,,,
,,,,,,,,,,,,l,Correct!,,,,,,t1.png,t3.png,2,0.0565,20,Female,2020-07-28_18h26.05.430,torte-2b,2020.1.3,Win32,60,13356,0.86533,,,,,,,,,,,,,,,,,,,,,,,,,,,,,,,,,,,,,0,37,37,12,1,,,,,,,,,,,,,,,,,,,,,,,,
,,,,,,,,,,,,a,Incorrect,,,,,,t5.png,t4.png,1,0.9,20,Female,2020-07-28_18h26.05.430,torte-2b,2020.1.3,Win32,60,13356,0.47459,,,,,,,,,,,,,,,,,,,,,,,,,,,,,,,,,,,,,0,38,38,92,1,,,,,,,,,,,,,,,,,,,,,,,,
,,,,,,,,,,,,a,Incorrect,,,,,,t4.png,t1.png,3,0.059078,20,Female,2020-07-28_18h26.05.430,torte-2b,2020.1.3,Win32,60,13356,0.7495,,,,,,,,,,,,,,,,,,,,,,,,,,,,,,,,,,,,,0,39,39,87,1,,,,,,,,,,,,,,,,,,,,,,,,
,,,,,,,,,,,,l,Correct!,,,,,,t2.png,t4.png,2,0.059078,20,Female,2020-07-28_18h26.05.430,torte-2b,2020.1.3,Win32,60,13356,0.815435,,,,,,,,,,,,,,,,,,,,,,,,,,,,,,,,,,,,,0,40,40,84,1,,,,,,,,,,,,,,,,,,,,,,,,
,,,,,,,,,,,,l,Correct!,,,,,,t2.png,t4.png,2,0.059078,20,Female,2020-07-28_18h26.05.430,torte-2b,2020.1.3,Win32,60,13356,0.63622,,,,,,,,,,,,,,,,,,,,,,,,,,,,,,,,,,,,,0,41,41,18,1,,,,,,,,,,,,,,,,,,,,,,,,
,,,,,,,,,,,,a,Correct!,,,,,,t1.png,t1.png,0,0.97829,20,Female,2020-07-28_18h26.05.430,torte-2b,2020.1.3,Win32,60,13356,0.756015,,,,,,,,,,,,,,,,,,,,,,,,,,,,,,,,,,,,,0,42,42,114,1,,,,,,,,,,,,,,,,,,,,,,,,
,,,,,,,,,,,,a,Correct!,,,,,,t5.png,t5.png,0,0.97829,20,Female,2020-07-28_18h26.05.430,torte-2b,2020.1.3,Win32,60,13356,0.57719,,,,,,,,,,,,,,,,,,,,,,,,,,,,,,,,,,,,,0,43,43,35,1,,,,,,,,,,,,,,,,,,,,,,,,
,,,,,,,,,,,,l,Incorrect,,,,,,t2.png,t2.png,0,0.98115,20,Female,2020-07-28_18h26.05.430,torte-2b,2020.1.3,Win32,60,13356,1.299125,,,,,,,,,,,,,,,,,,,,,,,,,,,,,,,,,,,,,0,44,44,90,1,,,,,,,,,,,,,,,,,,,,,,,,
,,,,,,,,,,,,a,Correct!,,,,,,t3.png,t2.png,1,0.90855,20,Female,2020-07-28_18h26.05.430,torte-2b,2020.1.3,Win32,60,13356,1.03943,,,,,,,,,,,,,,,,,,,,,,,,,,,,,,,,,,,,,0,45,45,10,1,,,,,,,,,,,,,,,,,,,,,,,,
,,,,,,,,,,,,l,Correct!,,,,,,t3.png,t5.png,2,0.056466,20,Female,2020-07-28_18h26.05.430,torte-2b,2020.1.3,Win32,60,13356,0.854035,,,,,,,,,,,,,,,,,,,,,,,,,,,,,,,,,,,,,0,46,46,47,1,,,,,,,,,,,,,,,,,,,,,,,,
,,,,,,,,,,,,a,Incorrect,,,,,,t5.png,t2.png,3,0.0000131,20,Female,2020-07-28_18h26.05.430,torte-2b,2020.1.3,Win32,60,13356,0.95154,,,,,,,,,,,,,,,,,,,,,,,,,,,,,,,,,,,,,0,47,47,43,1,,,,,,,,,,,,,,,,,,,,,,,,
,,,,,,,,,,,,a,Correct!,,,,,,t4.png,t4.png,0,0.98115,20,Female,2020-07-28_18h26.05.430,torte-2b,2020.1.3,Win32,60,13356,1.148555,,,,,,,,,,,,,,,,,,,,,,,,,,,,,,,,,,,,,0,48,48,52,1,,,,,,,,,,,,,,,,,,,,,,,,
,,,,,,,,,,,,l,Correct!,,,,,,t1.png,t4.png,3,0.0000131,20,Female,2020-07-28_18h26.05.430,torte-2b,2020.1.3,Win32,60,13356,1.21337,,,,,,,,,,,,,,,,,,,,,,,,,,,,,,,,,,,,,0,49,49,74,1,,,,,,,,,,,,,,,,,,,,,,,,
,,,,,,,,,,,,a,Incorrect,,,,,,t5.png,t3.png,2,0.056466,20,Female,2020-07-28_18h26.05.430,torte-2b,2020.1.3,Win32,60,13356,1.015795,,,,,,,,,,,,,,,,,,,,,,,,,,,,,,,,,,,,,0,50,50,37,1,,,,,,,,,,,,,,,,,,,,,,,,
,,,,,,,,,,,,a,Correct!,,,,,,t1.png,t1.png,0,0.978,20,Female,2020-07-28_18h26.05.430,torte-2b,2020.1.3,Win32,60,13356,0.76634,,,,,,,,,,,,,,,,,,,,,,,,,,,,,,,,,,,,,0,51,51,13,1,,,,,,,,,,,,,,,,,,,,,,,,
,,,,,,,,,,,,l,Correct!,,,,,,t1.png,t4.png,3,0.0000131,20,Female,2020-07-28_18h26.05.430,torte-2b,2020.1.3,Win32,60,13356,1.13617,,,,,,,,,,,,,,,,,,,,,,,,,,,,,,,,,,,,,0,52,52,36,1,,,,,,,,,,,,,,,,,,,,,,,,
,,,,,,,,,,,,a,Correct!,,,,,,t5.png,t4.png,1,0.90025,20,Female,2020-07-28_18h26.05.430,torte-2b,2020.1.3,Win32,60,13356,0.85826,,,,,,,,,,,,,,,,,,,,,,,,,,,,,,,,,,,,,0,53,53,38,1,,,,,,,,,,,,,,,,,,,,,,,,
,,,,,,,,,,,,l,Correct!,,,,,,t2.png,t4.png,2,0.059078,20,Female,2020-07-28_18h26.05.430,torte-2b,2020.1.3,Win32,60,13356,0.933325,,,,,,,,,,,,,,,,,,,,,,,,,,,,,,,,,,,,,0,54,54,97,1,,,,,,,,,,,,,,,,,,,,,,,,
,,,,,,,,,,,,a,Incorrect,,,,,,t5.png,t1.png,4,9.55E-11,20,Female,2020-07-28_18h26.05.430,torte-2b,2020.1.3,Win32,60,13356,1.149045,,,,,,,,,,,,,,,,,,,,,,,,,,,,,,,,,,,,,0,55,55,15,1,,,,,,,,,,,,,,,,,,,,,,,,
,,,,,,,,,,,,l,Correct!,,,,,,t1.png,t5.png,4,9.55E-11,20,Female,2020-07-28_18h26.05.430,torte-2b,2020.1.3,Win32,60,13356,0.86761,,,,,,,,,,,,,,,,,,,,,,,,,,,,,,,,,,,,,0,56,56,118,1,,,,,,,,,,,,,,,,,,,,,,,,
,,,,,,,,,,,,a,Correct!,,,,,,t5.png,t3.png,2,0.0565,20,Female,2020-07-28_18h26.05.430,torte-2b,2020.1.3,Win32,60,13356,1.007275,,,,,,,,,,,,,,,,,,,,,,,,,,,,,,,,,,,,,0,57,57,50,1,,,,,,,,,,,,,,,,,,,,,,,,
,,,,,,,,,,,,l,Correct!,,,,,,t1.png,t5.png,4,9.55E-11,20,Female,2020-07-28_18h26.05.430,torte-2b,2020.1.3,Win32,60,13356,0.9157,,,,,,,,,,,,,,,,,,,,,,,,,,,,,,,,,,,,,0,58,58,30,1,,,,,,,,,,,,,,,,,,,,,,,,
,,,,,,,,,,,,a,Correct!,,,,,,t4.png,t3.png,1,0.909,20,Female,2020-07-28_18h26.05.430,torte-2b,2020.1.3,Win32,60,13356,0.607515,,,,,,,,,,,,,,,,,,,,,,,,,,,,,,,,,,,,,0,59,59,107,1,,,,,,,,,,,,,,,,,,,,,,,,
,,,,,,,,,,,,l,Incorrect,,,,,,t1.png,t2.png,1,0.90025,20,Female,2020-07-28_18h26.05.430,torte-2b,2020.1.3,Win32,60,13356,1.016525,,,,,,,,,,,,,,,,,,,,,,,,,,,,,,,,,,,,,0,60,60,96,1,,,,,,,,,,,,,,,,,,,,,,,,
,,,,,,,,,,,,l,Correct!,,,,,,t2.png,t5.png,3,0.0000131,20,Female,2020-07-28_18h26.05.430,torte-2b,2020.1.3,Win32,60,13356,1.032375,,,,,,,,,,,,,,,,,,,,,,,,,,,,,,,,,,,,,0,61,61,54,1,,,,,,,,,,,,,,,,,,,,,,,,
,,,,,,,,,,,,l,Correct!,,,,,,t1.png,t3.png,2,0.056466,20,Female,2020-07-28_18h26.05.430,torte-2b,2020.1.3,Win32,60,13356,0.976665,,,,,,,,,,,,,,,,,,,,,,,,,,,,,,,,,,,,,0,62,62,24,1,,,,,,,,,,,,,,,,,,,,,,,,
,,,,,,,,,,,,l,Incorrect,,,,,,t3.png,t4.png,1,0.90855,20,Female,2020-07-28_18h26.05.430,torte-2b,2020.1.3,Win32,60,13356,0.971715,,,,,,,,,,,,,,,,,,,,,,,,,,,,,,,,,,,,,0,63,63,103,1,,,,,,,,,,,,,,,,,,,,,,,,
,,,,,,,,,,,,a,Incorrect,,,,,,t5.png,t1.png,4,9.55E-11,20,Female,2020-07-28_18h26.05.430,torte-2b,2020.1.3,Win32,60,13356,0.64845,,,,,,,,,,,,,,,,,,,,,,,,,,,,,,,,,,,,,0,64,64,117,1,,,,,,,,,,,,,,,,,,,,,,,,
,,,,,,,,,,,,l,Correct!,,,,,,t2.png,t4.png,2,0.059078,20,Female,2020-07-28_18h26.05.430,torte-2b,2020.1.3,Win32,60,13356,0.866215,,,,,,,,,,,,,,,,,,,,,,,,,,,,,,,,,,,,,0,65,65,53,1,,,,,,,,,,,,,,,,,,,,,,,,
,,,,,,,,,,,,a,Correct!,,,,,,t2.png,t1.png,1,0.90025,20,Female,2020-07-28_18h26.05.430,torte-2b,2020.1.3,Win32,60,13356,1.216045,,,,,,,,,,,,,,,,,,,,,,,,,,,,,,,,,,,,,0,66,66,105,1,,,,,,,,,,,,,,,,,,,,,,,,
,,,,,,,,,,,,a,Correct!,,,,,,t1.png,t1.png,0,0.978,20,Female,2020-07-28_18h26.05.430,torte-2b,2020.1.3,Win32,60,13356,0.72087,,,,,,,,,,,,,,,,,,,,,,,,,,,,,,,,,,,,,0,67,67,22,1,,,,,,,,,,,,,,,,,,,,,,,,
,,,,,,,,,,,,l,Incorrect,,,,,,t3.png,t4.png,1,0.90855,20,Female,2020-07-28_18h26.05.430,torte-2b,2020.1.3,Win32,60,13356,0.95954,,,,,,,,,,,,,,,,,,,,,,,,,,,,,,,,,,,,,0,68,68,111,1,,,,,,,,,,,,,,,,,,,,,,,,
,,,,,,,,,,,,l,Correct!,,,,,,t2.png,t5.png,3,0.0000131,20,Female,2020-07-28_18h26.05.430,torte-2b,2020.1.3,Win32,60,13356,1.391225,,,,,,,,,,,,,,,,,,,,,,,,,,,,,,,,,,,,,0,69,69,46,1,,,,,,,,,,,,,,,,,,,,,,,,
,,,,,,,,,,,,a,Incorrect,,,,,,t5.png,t2.png,3,0.0000131,20,Female,2020-07-28_18h26.05.430,torte-2b,2020.1.3,Win32,60,13356,1.124125,,,,,,,,,,,,,,,,,,,,,,,,,,,,,,,,,,,,,0,70,70,48,1,,,,,,,,,,,,,,,,,,,,,,,,
,,,,,,,,,,,,l,Correct!,,,,,,t1.png,t4.png,3,0.0000131,20,Female,2020-07-28_18h26.05.430,torte-2b,2020.1.3,Win32,60,13356,1.09974,,,,,,,,,,,,,,,,,,,,,,,,,,,,,,,,,,,,,0,71,71,16,1,,,,,,,,,,,,,,,,,,,,,,,,
,,,,,,,,,,,,a,Correct!,,,,,,t2.png,t2.png,0,0.98115,20,Female,2020-07-28_18h26.05.430,torte-2b,2020.1.3,Win32,60,13356,1.050075,,,,,,,,,,,,,,,,,,,,,,,,,,,,,,,,,,,,,0,72,72,69,1,,,,,,,,,,,,,,,,,,,,,,,,
,,,,,,,,,,,,a,Correct!,,,,,,t2.png,t2.png,0,0.98115,20,Female,2020-07-28_18h26.05.430,torte-2b,2020.1.3,Win32,60,13356,0.716115,,,,,,,,,,,,,,,,,,,,,,,,,,,,,,,,,,,,,0,73,73,7,1,,,,,,,,,,,,,,,,,,,,,,,,
,,,,,,,,,,,,a,Correct!,,,,,,t5.png,t4.png,1,0.90025,20,Female,2020-07-28_18h26.05.430,torte-2b,2020.1.3,Win32,60,13356,1.106955,,,,,,,,,,,,,,,,,,,,,,,,,,,,,,,,,,,,,0,74,74,25,1,,,,,,,,,,,,,,,,,,,,,,,,
,,,,,,,,,,,,a,Correct!,,,,,,t4.png,t3.png,1,0.90855,20,Female,2020-07-28_18h26.05.430,torte-2b,2020.1.3,Win32,60,13356,0.65233,,,,,,,,,,,,,,,,,,,,,,,,,,,,,,,,,,,,,0,75,75,56,1,,,,,,,,,,,,,,,,,,,,,,,,
,,,,,,,,,,,,a,Incorrect,,,,,,t5.png,t3.png,2,0.056466,20,Female,2020-07-28_18h26.05.430,torte-2b,2020.1.3,Win32,60,13356,0.74956,,,,,,,,,,,,,,,,,,,,,,,,,,,,,,,,,,,,,0,76,76,27,1,,,,,,,,,,,,,,,,,,,,,,,,
,,,,,,,,,,,,l,Correct!,,,,,,t3.png,t5.png,2,0.056466,20,Female,2020-07-28_18h26.05.430,torte-2b,2020.1.3,Win32,60,13356,0.87218,,,,,,,,,,,,,,,,,,,,,,,,,,,,,,,,,,,,,0,77,77,78,1,,,,,,,,,,,,,,,,,,,,,,,,
,,,,,,,,,,,,l,Correct!,,,,,,t2.png,t5.png,3,0.0000131,20,Female,2020-07-28_18h26.05.430,torte-2b,2020.1.3,Win32,60,13356,1.03009,,,,,,,,,,,,,,,,,,,,,,,,,,,,,,,,,,,,,0,78,78,115,1,,,,,,,,,,,,,,,,,,,,,,,,
,,,,,,,,,,,,l,Correct!,,,,,,t1.png,t5.png,4,9.55E-11,20,Female,2020-07-28_18h26.05.430,torte-2b,2020.1.3,Win32,60,13356,0.78379,,,,,,,,,,,,,,,,,,,,,,,,,,,,,,,,,,,,,0,79,79,1,1,,,,,,,,,,,,,,,,,,,,,,,,
,,,,,,,,,,,,l,Correct!,,,,,,t3.png,t5.png,2,0.056466,20,Female,2020-07-28_18h26.05.430,torte-2b,2020.1.3,Win32,60,13356,1.26493,,,,,,,,,,,,,,,,,,,,,,,,,,,,,,,,,,,,,0,80,80,45,1,,,,,,,,,,,,,,,,,,,,,,,,
,,,,,,,,,,,,a,Correct!,,,,,,t4.png,t5.png,1,0.90025,20,Female,2020-07-28_18h26.05.430,torte-2b,2020.1.3,Win32,60,13356,1.320695,,,,,,,,,,,,,,,,,,,,,,,,,,,,,,,,,,,,,0,81,81,21,1,,,,,,,,,,,,,,,,,,,,,,,,
,,,,,,,,,,,,a,Incorrect,,,,,,t5.png,t1.png,4,9.55E-11,20,Female,2020-07-28_18h26.05.430,torte-2b,2020.1.3,Win32,60,13356,0.700755,,,,,,,,,,,,,,,,,,,,,,,,,,,,,,,,,,,,,0,82,82,101,1,,,,,,,,,,,,,,,,,,,,,,,,
,,,,,,,,,,,,a,Incorrect,,,,,,t4.png,t1.png,3,0.059078,20,Female,2020-07-28_18h26.05.430,torte-2b,2020.1.3,Win32,60,13356,0.600705,,,,,,,,,,,,,,,,,,,,,,,,,,,,,,,,,,,,,0,83,83,62,1,,,,,,,,,,,,,,,,,,,,,,,,
,,,,,,,,,,,,l,Incorrect,,,,,,t3.png,t4.png,1,0.90855,20,Female,2020-07-28_18h26.05.430,torte-2b,2020.1.3,Win32,60,13356,0.78986,,,,,,,,,,,,,,,,,,,,,,,,,,,,,,,,,,,,,0,84,84,9,1,,,,,,,,,,,,,,,,,,,,,,,,
,,,,,,,,,,,,l,Correct!,,,,,,t3.png,t5.png,2,0.056466,20,Female,2020-07-28_18h26.05.430,torte-2b,2020.1.3,Win32,60,13356,0.799835,,,,,,,,,,,,,,,,,,,,,,,,,,,,,,,,,,,,,0,85,85,60,1,,,,,,,,,,,,,,,,,,,,,,,,
,,,,,,,,,,,,l,Correct!,,,,,,t1.png,t5.png,4,9.55E-11,20,Female,2020-07-28_18h26.05.430,torte-2b,2020.1.3,Win32,60,13356,0.82381,,,,,,,,,,,,,,,,,,,,,,,,,,,,,,,,,,,,,0,86,86,3,1,,,,,,,,,,,,,,,,,,,,,,,,
,,,,,,,,,,,,a,Incorrect,,,,,,t4.png,t1.png,3,0.059078,20,Female,2020-07-28_18h26.05.430,torte-2b,2020.1.3,Win32,60,13356,0.69807,,,,,,,,,,,,,,,,,,,,,,,,,,,,,,,,,,,,,0,87,87,73,1,,,,,,,,,,,,,,,,,,,,,,,,
,,,,,,,,,,,,l,Correct!,,,,,,t3.png,t5.png,2,0.0565,20,Female,2020-07-28_18h26.05.430,torte-2b,2020.1.3,Win32,60,13356,1.082265,,,,,,,,,,,,,,,,,,,,,,,,,,,,,,,,,,,,,0,88,88,71,1,,,,,,,,,,,,,,,,,,,,,,,,
,,,,,,,,,,,,l,Incorrect,,,,,,t2.png,t3.png,1,0.90855,20,Female,2020-07-28_18h26.05.430,torte-2b,2020.1.3,Win32,60,13356,1.65614,,,,,,,,,,,,,,,,,,,,,,,,,,,,,,,,,,,,,0,89,89,113,1,,,,,,,,,,,,,,,,,,,,,,,,
,,,,,,,,,,,,l,Incorrect,,,,,,t3.png,t2.png,1,0.90855,20,Female,2020-07-28_18h26.05.430,torte-2b,2020.1.3,Win32,60,13356,0.75284,,,,,,,,,,,,,,,,,,,,,,,,,,,,,,,,,,,,,0,90,90,0,1,,,,,,,,,,,,,,,,,,,,,,,,
,,,,,,,,,,,,a,Incorrect,,,,,,t4.png,t1.png,3,0.0000131,20,Female,2020-07-28_18h26.05.430,torte-2b,2020.1.3,Win32,60,13356,1.032575,,,,,,,,,,,,,,,,,,,,,,,,,,,,,,,,,,,,,0,91,91,28,1,,,,,,,,,,,,,,,,,,,,,,,,
,,,,,,,,,,,,a,Incorrect,,,,,,t3.png,t1.png,2,0.0565,20,Female,2020-07-28_18h26.05.430,torte-2b,2020.1.3,Win32,60,13356,1.265935,,,,,,,,,,,,,,,,,,,,,,,,,,,,,,,,,,,,,0,92,92,104,1,,,,,,,,,,,,,,,,,,,,,,,,
,,,,,,,,,,,,a,Correct!,,,,,,t3.png,t2.png,1,0.90855,20,Female,2020-07-28_18h26.05.430,torte-2b,2020.1.3,Win32,60,13356,2.03787,,,,,,,,,,,,,,,,,,,,,,,,,,,,,,,,,,,,,0,93,93,94,1,,,,,,,,,,,,,,,,,,,,,,,,
,,,,,,,,,,,,a,Correct!,,,,,,t4.png,t5.png,1,0.90025,20,Female,2020-07-28_18h26.05.430,torte-2b,2020.1.3,Win32,60,13356,1.601925,,,,,,,,,,,,,,,,,,,,,,,,,,,,,,,,,,,,,0,94,94,33,1,,,,,,,,,,,,,,,,,,,,,,,,
,,,,,,,,,,,,l,Correct!,,,,,,t3.png,t1.png,2,0.056466,20,Female,2020-07-28_18h26.05.430,torte-2b,2020.1.3,Win32,60,13356,1.052295,,,,,,,,,,,,,,,,,,,,,,,,,,,,,,,,,,,,,0,95,95,34,1,,,,,,,,,,,,,,,,,,,,,,,,
,,,,,,,,,,,,a,Correct!,,,,,,t1.png,t2.png,1,0.9,20,Female,2020-07-28_18h26.05.430,torte-2b,2020.1.3,Win32,60,13356,1.538875,,,,,,,,,,,,,,,,,,,,,,,,,,,,,,,,,,,,,0,96,96,61,1,,,,,,,,,,,,,,,,,,,,,,,,
,,,,,,,,,,,,a,Correct!,,,,,,t4.png,t4.png,0,0.98115,20,Female,2020-07-28_18h26.05.430,torte-2b,2020.1.3,Win32,60,13356,0.665795,,,,,,,,,,,,,,,,,,,,,,,,,,,,,,,,,,,,,0,97,97,19,1,,,,,,,,,,,,,,,,,,,,,,,,
,,,,,,,,,,,,l,Correct!,,,,,,t2.png,t1.png,1,0.9,20,Female,2020-07-28_18h26.05.430,torte-2b,2020.1.3,Win32,60,13356,0.682815,,,,,,,,,,,,,,,,,,,,,,,,,,,,,,,,,,,,,0,98,98,100,1,,,,,,,,,,,,,,,,,,,,,,,,
,,,,,,,,,,,,l,Incorrect,,,,,,t2.png,t3.png,1,0.90855,20,Female,2020-07-28_18h26.05.430,torte-2b,2020.1.3,Win32,60,13356,1.08729,,,,,,,,,,,,,,,,,,,,,,,,,,,,,,,,,,,,,0,99,99,79,1,,,,,,,,,,,,,,,,,,,,,,,,
,,,,,,,,,,,,l,Correct!,,,,,,t1.png,t4.png,3,0.0000131,20,Female,2020-07-28_18h26.05.430,torte-2b,2020.1.3,Win32,60,13356,0.836105,,,,,,,,,,,,,,,,,,,,,,,,,,,,,,,,,,,,,0,100,100,106,1,,,,,,,,,,,,,,,,,,,,,,,,
,,,,,,,,,,,,a,Incorrect,,,,,,t4.png,t1.png,3,0.0000131,20,Female,2020-07-28_18h26.05.430,torte-2b,2020.1.3,Win32,60,13356,0.75685,,,,,,,,,,,,,,,,,,,,,,,,,,,,,,,,,,,,,0,101,101,76,1,,,,,,,,,,,,,,,,,,,,,,,,
,,,,,,,,,,,,l,Incorrect,,,,,,t1.png,t2.png,1,0.90025,20,Female,2020-07-28_18h26.05.430,torte-2b,2020.1.3,Win32,60,13356,0.86847,,,,,,,,,,,,,,,,,,,,,,,,,,,,,,,,,,,,,0,102,102,6,1,,,,,,,,,,,,,,,,,,,,,,,,
,,,,,,,,,,,,l,Correct!,,,,,,t2.png,t5.png,3,0.0000131,20,Female,2020-07-28_18h26.05.430,torte-2b,2020.1.3,Win32,60,13356,0.765525,,,,,,,,,,,,,,,,,,,,,,,,,,,,,,,,,,,,,0,103,103,85,1,,,,,,,,,,,,,,,,,,,,,,,,
,,,,,,,,,,,,l,Correct!,,,,,,t2.png,t4.png,2,0.059078,20,Female,2020-07-28_18h26.05.430,torte-2b,2020.1.3,Win32,60,13356,0.8517,,,,,,,,,,,,,,,,,,,,,,,,,,,,,,,,,,,,,0,104,104,67,1,,,,,,,,,,,,,,,,,,,,,,,,
,,,,,,,,,,,,a,Correct!,,,,,,t2.png,t1.png,1,0.90025,20,Female,2020-07-28_18h26.05.430,torte-2b,2020.1.3,Win32,60,13356,2.03938,,,,,,,,,,,,,,,,,,,,,,,,,,,,,,,,,,,,,0,105,105,44,1,,,,,,,,,,,,,,,,,,,,,,,,
,,,,,,,,,,,,l,Correct!,,,,,,t2.png,t5.png,3,0.0000131,20,Female,2020-07-28_18h26.05.430,torte-2b,2020.1.3,Win32,60,13356,0.94978,,,,,,,,,,,,,,,,,,,,,,,,,,,,,,,,,,,,,0,106,106,39,1,,,,,,,,,,,,,,,,,,,,,,,,
,,,,,,,,,,,,a,Incorrect,,,,,,t3.png,t1.png,2,0.056466,20,Female,2020-07-28_18h26.05.430,torte-2b,2020.1.3,Win32,60,13356,1.01671,,,,,,,,,,,,,,,,,,,,,,,,,,,,,,,,,,,,,0,107,107,72,1,,,,,,,,,,,,,,,,,,,,,,,,
,,,,,,,,,,,,a,Incorrect,,,,,,t5.png,t1.png,4,9.55E-11,20,Female,2020-07-28_18h26.05.430,torte-2b,2020.1.3,Win32,60,13356,0.61608,,,,,,,,,,,,,,,,,,,,,,,,,,,,,,,,,,,,,0,108,108,89,1,,,,,,,,,,,,,,,,,,,,,,,,
,,,,,,,,,,,,a,Correct!,,,,,,t3.png,t2.png,1,0.90855,20,Female,2020-07-28_18h26.05.430,torte-2b,2020.1.3,Win32,60,13356,0.68775,,,,,,,,,,,,,,,,,,,,,,,,,,,,,,,,,,,,,0,109,109,99,1,,,,,,,,,,,,,,,,,,,,,,,,
,,,,,,,,,,,,a,Correct!,,,,,,t4.png,t3.png,1,0.909,20,Female,2020-07-28_18h26.05.430,torte-2b,2020.1.3,Win32,60,13356,0.714545,,,,,,,,,,,,,,,,,,,,,,,,,,,,,,,,,,,,,0,110,110,119,1,,,,,,,,,,,,,,,,,,,,,,,,
,,,,,,,,,,,,a,Correct!,,,,,,t4.png,t4.png,0,0.98115,20,Female,2020-07-28_18h26.05.430,torte-2b,2020.1.3,Win32,60,13356,0.50843,,,,,,,,,,,,,,,,,,,,,,,,,,,,,,,,,,,,,0,111,111,68,1,,,,,,,,,,,,,,,,,,,,,,,,
,,,,,,,,,,,,a,Correct!,,,,,,t2.png,t2.png,0,0.981,20,Female,2020-07-28_18h26.05.430,torte-2b,2020.1.3,Win32,60,13356,0.97398,,,,,,,,,,,,,,,,,,,,,,,,,,,,,,,,,,,,,0,112,112,98,1,,,,,,,,,,,,,,,,,,,,,,,,
,,,,,,,,,,,,a,Correct!,,,,,,t5.png,t5.png,0,0.97829,20,Female,2020-07-28_18h26.05.430,torte-2b,2020.1.3,Win32,60,13356,0.94945,,,,,,,,,,,,,,,,,,,,,,,,,,,,,,,,,,,,,0,113,113,2,1,,,,,,,,,,,,,,,,,,,,,,,,
,,,,,,,,,,,,l,Correct!,,,,,,t1.png,t3.png,2,0.0565,20,Female,2020-07-28_18h26.05.430,torte-2b,2020.1.3,Win32,60,13356,0.765475,,,,,,,,,,,,,,,,,,,,,,,,,,,,,,,,,,,,,0,114,114,42,1,,,,,,,,,,,,,,,,,,,,,,,,
,,,,,,,,,,,,l,Correct!,,,,,,t5.png,t3.png,2,0.056466,20,Female,2020-07-28_18h26.05.430,torte-2b,2020.1.3,Win32,60,13356,1.201555,,,,,,,,,,,,,,,,,,,,,,,,,,,,,,,,,,,,,0,115,115,80,1,,,,,,,,,,,,,,,,,,,,,,,,
,,,,,,,,,,,,a,Correct!,,,,,,t4.png,t4.png,0,0.98115,20,Female,2020-07-28_18h26.05.430,torte-2b,2020.1.3,Win32,60,13356,0.672,,,,,,,,,,,,,,,,,,,,,,,,,,,,,,,,,,,,,0,116,116,88,1,,,,,,,,,,,,,,,,,,,,,,,,
,,,,,,,,,,,,l,Correct!,,,,,,t1.png,t2.png,1,0.9,20,Female,2020-07-28_18h26.05.430,torte-2b,2020.1.3,Win32,60,13356,0.838055,,,,,,,,,,,,,,,,,,,,,,,,,,,,,,,,,,,,,0,117,117,17,1,,,,,,,,,,,,,,,,,,,,,,,,
,,,,,,,,,,,,l,Correct!,,,,,,t1.png,t4.png,3,0.0000131,20,Female,2020-07-28_18h26.05.430,torte-2b,2020.1.3,Win32,60,13356,0.76563,,,,,,,,,,,,,,,,,,,,,,,,,,,,,,,,,,,,,0,118,118,23,1,,,,,,,,,,,,,,,,,,,,,,,,
,,,,,,,,,,,,a,Incorrect,,,,,,t4.png,t1.png,3,0.0000131,20,Female,2020-07-28_18h26.05.430,torte-2b,2020.1.3,Win32,60,13356,0.55353,,,,,,,,,,,,,,,,,,,,,,,,,,,,,,,,,,,,,0,119,119,49,1,,,,,,,,,,,,,,,,,,,,,,,,
,,,,,,,,,,,,,,,,,,,,,,,20,Female,2020-07-28_18h26.05.430,torte-2b,2020.1.3,Win32,60,13356,,space,1.24237,,,,,,,,,,,,,,,,,,,,,,,,,,,,,,,,,,,,,,,,178.4000141,-171.200009,1,0,0,s7,63.20001239,37.59999412,1,0,0,t2,227.2000148,-103.200008,1,0,0,proceed,space,1.48035,space,1.05519,space,0.729855
