key_resp_8.keys,key_resp_8.rt,key_resp_9.keys,key_resp_9.rt,key_resp_10.keys,key_resp_10.rt,key_resp_11.keys,key_resp_11.rt,key_resp_2.keys,key_resp_2.rt,key_resp_3.keys,key_resp_3.rt,key_resp.keys,key_resp.rt,Feedback,train.thisRepN,train.thisTrialN,train.thisN,train.thisIndex,train.ran,torta_sx,torta_dx,difference,probability,age,gender,date,expName,psychopyVersion,OS,frameRate,participant,key_resp_15.keys,key_resp_15.rt,key_resp_6.keys,key_resp_6.rt,test1.thisRepN,test1.thisTrialN,test1.thisN,test1.thisIndex,test1.ran,key_resp_4.keys,key_resp_4.rt,key_resp_5.keys,back1.thisRepN,back1.thisTrialN,back1.thisN,back1.thisIndex,back1.ran,letter,back2.thisRepN,back2.thisTrialN,back2.thisN,back2.thisIndex,back2.ran,back3.thisRepN,back3.thisTrialN,back3.thisN,back3.thisIndex,back3.ran,back4.thisRepN,back4.thisTrialN,back4.thisN,back4.thisIndex,back4.ran,key_resp_7.keys,key_resp_7.rt,test2.thisRepN,test2.thisTrialN,test2.thisN,test2.thisIndex,test2.ran,mouse.x,mouse.y,mouse.leftButton,mouse.midButton,mouse.rightButton,mouse.clicked_name,mouse_2.x,mouse_2.y,mouse_2.leftButton,mouse_2.midButton,mouse_2.rightButton,mouse_2.clicked_name,mouse_3.x,mouse_3.y,mouse_3.leftButton,mouse_3.midButton,mouse_3.rightButton,mouse_3.clicked_name,key_resp_12.keys,key_resp_12.rt,key_resp_13.keys,key_resp_13.rt,key_resp_14.keys,key_resp_14.rt
space,1.791975,space,1.366555,space,2.851245,space,1.06548,space,1.16833,space,50.97774,a,2.407235,Incorrect,0,0,0,80,1,t1.png,t4.png,3,0.0000131,20,female,2020-09-22_11h50.52.111,torte-2b,2020.1.3,MacIntel,60,13364,,,,,,,,,,,,,,,,,,,,,,,,,,,,,,,,,,,,,,,,,,,,,,,,,,,,,,,,,,,,,,,,
,,,,,,,,,,,,l,0.58446,Correct!,0,1,1,1,1,t2.png,t4.png,2,0.059078,20,female,2020-09-22_11h50.52.111,torte-2b,2020.1.3,MacIntel,60,13364,,,,,,,,,,,,,,,,,,,,,,,,,,,,,,,,,,,,,,,,,,,,,,,,,,,,,,,,,,,,,,,,
,,,,,,,,,,,,a,1.367915,Incorrect,0,2,2,53,1,t3.png,t1.png,2,0.056466,20,female,2020-09-22_11h50.52.111,torte-2b,2020.1.3,MacIntel,60,13364,,,,,,,,,,,,,,,,,,,,,,,,,,,,,,,,,,,,,,,,,,,,,,,,,,,,,,,,,,,,,,,,
,,,,,,,,,,,,l,1.05028,Incorrect,0,3,3,92,1,t2.png,t3.png,1,0.909,20,female,2020-09-22_11h50.52.111,torte-2b,2020.1.3,MacIntel,60,13364,,,,,,,,,,,,,,,,,,,,,,,,,,,,,,,,,,,,,,,,,,,,,,,,,,,,,,,,,,,,,,,,
,,,,,,,,,,,,l,1.23507,Incorrect,0,4,4,49,1,t4.png,t5.png,1,0.9,20,female,2020-09-22_11h50.52.111,torte-2b,2020.1.3,MacIntel,60,13364,,,,,,,,,,,,,,,,,,,,,,,,,,,,,,,,,,,,,,,,,,,,,,,,,,,,,,,,,,,,,,,,
,,,,,,,,,,,,a,1.3998,Correct!,0,5,5,66,1,t4.png,t5.png,1,0.9,20,female,2020-09-22_11h50.52.111,torte-2b,2020.1.3,MacIntel,60,13364,,,,,,,,,,,,,,,,,,,,,,,,,,,,,,,,,,,,,,,,,,,,,,,,,,,,,,,,,,,,,,,,
,,,,,,,,,,,,l,0.854955,Correct!,0,6,6,72,1,t4.png,t2.png,2,0.059078,20,female,2020-09-22_11h50.52.111,torte-2b,2020.1.3,MacIntel,60,13364,,,,,,,,,,,,,,,,,,,,,,,,,,,,,,,,,,,,,,,,,,,,,,,,,,,,,,,,,,,,,,,,
,,,,,,,,,,,,a,0.316695,Correct!,0,7,7,107,1,t1.png,t1.png,0,0.978,20,female,2020-09-22_11h50.52.111,torte-2b,2020.1.3,MacIntel,60,13364,,,,,,,,,,,,,,,,,,,,,,,,,,,,,,,,,,,,,,,,,,,,,,,,,,,,,,,,,,,,,,,,
,,,,,,,,,,,,l,0.638375,Incorrect,0,8,8,22,1,t2.png,t3.png,1,0.90855,20,female,2020-09-22_11h50.52.111,torte-2b,2020.1.3,MacIntel,60,13364,,,,,,,,,,,,,,,,,,,,,,,,,,,,,,,,,,,,,,,,,,,,,,,,,,,,,,,,,,,,,,,,
,,,,,,,,,,,,l,1.116685,Correct!,0,9,9,35,1,t1.png,t4.png,3,0.0000131,20,female,2020-09-22_11h50.52.111,torte-2b,2020.1.3,MacIntel,60,13364,,,,,,,,,,,,,,,,,,,,,,,,,,,,,,,,,,,,,,,,,,,,,,,,,,,,,,,,,,,,,,,,
,,,,,,,,,,,,a,0.35075,Incorrect,0,10,10,67,1,t1.png,t5.png,4,9.55E-11,20,female,2020-09-22_11h50.52.111,torte-2b,2020.1.3,MacIntel,60,13364,,,,,,,,,,,,,,,,,,,,,,,,,,,,,,,,,,,,,,,,,,,,,,,,,,,,,,,,,,,,,,,,
,,,,,,,,,,,,l,1.00088,Correct!,0,11,11,87,1,t5.png,t1.png,4,9.55E-11,20,female,2020-09-22_11h50.52.111,torte-2b,2020.1.3,MacIntel,60,13364,,,,,,,,,,,,,,,,,,,,,,,,,,,,,,,,,,,,,,,,,,,,,,,,,,,,,,,,,,,,,,,,
,,,,,,,,,,,,,,Too slow :(,0,12,12,29,1,t5.png,t5.png,0,0.97829,20,female,2020-09-22_11h50.52.111,torte-2b,2020.1.3,MacIntel,60,13364,,,,,,,,,,,,,,,,,,,,,,,,,,,,,,,,,,,,,,,,,,,,,,,,,,,,,,,,,,,,,,,,
,,,,,,,,,,,,l,0.73346,Incorrect,0,13,13,81,1,t1.png,t1.png,0,0.97829,20,female,2020-09-22_11h50.52.111,torte-2b,2020.1.3,MacIntel,60,13364,,,,,,,,,,,,,,,,,,,,,,,,,,,,,,,,,,,,,,,,,,,,,,,,,,,,,,,,,,,,,,,,
,,,,,,,,,,,,a,0.67032,Incorrect,0,14,14,9,1,t4.png,t5.png,1,0.9,20,female,2020-09-22_11h50.52.111,torte-2b,2020.1.3,MacIntel,60,13364,,,,,,,,,,,,,,,,,,,,,,,,,,,,,,,,,,,,,,,,,,,,,,,,,,,,,,,,,,,,,,,,
,,,,,,,,,,,,l,0.35099,Incorrect,0,15,15,75,1,t1.png,t1.png,0,0.97829,20,female,2020-09-22_11h50.52.111,torte-2b,2020.1.3,MacIntel,60,13364,,,,,,,,,,,,,,,,,,,,,,,,,,,,,,,,,,,,,,,,,,,,,,,,,,,,,,,,,,,,,,,,
,,,,,,,,,,,,a,0.36814,Correct!,0,16,16,118,1,t5.png,t5.png,0,0.978,20,female,2020-09-22_11h50.52.111,torte-2b,2020.1.3,MacIntel,60,13364,,,,,,,,,,,,,,,,,,,,,,,,,,,,,,,,,,,,,,,,,,,,,,,,,,,,,,,,,,,,,,,,
,,,,,,,,,,,,a,0.416855,Correct!,0,17,17,64,1,t1.png,t1.png,0,0.978,20,female,2020-09-22_11h50.52.111,torte-2b,2020.1.3,MacIntel,60,13364,,,,,,,,,,,,,,,,,,,,,,,,,,,,,,,,,,,,,,,,,,,,,,,,,,,,,,,,,,,,,,,,
,,,,,,,,,,,,l,0.332955,Correct!,0,18,18,31,1,t1.png,t5.png,4,9.55E-11,20,female,2020-09-22_11h50.52.111,torte-2b,2020.1.3,MacIntel,60,13364,,,,,,,,,,,,,,,,,,,,,,,,,,,,,,,,,,,,,,,,,,,,,,,,,,,,,,,,,,,,,,,,
,,,,,,,,,,,,l,0.39247,Correct!,0,19,19,14,1,t2.png,t4.png,2,0.059078,20,female,2020-09-22_11h50.52.111,torte-2b,2020.1.3,MacIntel,60,13364,,,,,,,,,,,,,,,,,,,,,,,,,,,,,,,,,,,,,,,,,,,,,,,,,,,,,,,,,,,,,,,,
,,,,,,,,,,,,a,0.40077,Correct!,0,20,20,21,1,t5.png,t4.png,1,0.90025,20,female,2020-09-22_11h50.52.111,torte-2b,2020.1.3,MacIntel,60,13364,,,,,,,,,,,,,,,,,,,,,,,,,,,,,,,,,,,,,,,,,,,,,,,,,,,,,,,,,,,,,,,,
,,,,,,,,,,,,l,1.16556,Correct!,0,21,21,52,1,t2.png,t4.png,2,0.059078,20,female,2020-09-22_11h50.52.111,torte-2b,2020.1.3,MacIntel,60,13364,,,,,,,,,,,,,,,,,,,,,,,,,,,,,,,,,,,,,,,,,,,,,,,,,,,,,,,,,,,,,,,,
,,,,,,,,,,,,a,0.41629,Correct!,0,22,22,13,1,t5.png,t5.png,0,0.97829,20,female,2020-09-22_11h50.52.111,torte-2b,2020.1.3,MacIntel,60,13364,,,,,,,,,,,,,,,,,,,,,,,,,,,,,,,,,,,,,,,,,,,,,,,,,,,,,,,,,,,,,,,,
,,,,,,,,,,,,l,0.33407,Incorrect,0,23,23,79,1,t3.png,t2.png,1,0.909,20,female,2020-09-22_11h50.52.111,torte-2b,2020.1.3,MacIntel,60,13364,,,,,,,,,,,,,,,,,,,,,,,,,,,,,,,,,,,,,,,,,,,,,,,,,,,,,,,,,,,,,,,,
,,,,,,,,,,,,l,0.557475,Correct!,0,24,24,68,1,t1.png,t4.png,3,0.0000131,20,female,2020-09-22_11h50.52.111,torte-2b,2020.1.3,MacIntel,60,13364,,,,,,,,,,,,,,,,,,,,,,,,,,,,,,,,,,,,,,,,,,,,,,,,,,,,,,,,,,,,,,,,
,,,,,,,,,,,,a,0.566765,Correct!,0,25,25,18,1,t4.png,t5.png,1,0.90025,20,female,2020-09-22_11h50.52.111,torte-2b,2020.1.3,MacIntel,60,13364,,,,,,,,,,,,,,,,,,,,,,,,,,,,,,,,,,,,,,,,,,,,,,,,,,,,,,,,,,,,,,,,
,,,,,,,,,,,,a,0.31742,Incorrect,0,26,26,50,1,t5.png,t1.png,4,9.55E-11,20,female,2020-09-22_11h50.52.111,torte-2b,2020.1.3,MacIntel,60,13364,,,,,,,,,,,,,,,,,,,,,,,,,,,,,,,,,,,,,,,,,,,,,,,,,,,,,,,,,,,,,,,,
,,,,,,,,,,,,l,0.31768,Incorrect,0,27,27,48,1,t5.png,t5.png,0,0.97829,20,female,2020-09-22_11h50.52.111,torte-2b,2020.1.3,MacIntel,60,13364,,,,,,,,,,,,,,,,,,,,,,,,,,,,,,,,,,,,,,,,,,,,,,,,,,,,,,,,,,,,,,,,
,,,,,,,,,,,,l,0.56797,Incorrect,0,28,28,7,1,t4.png,t5.png,1,0.90025,20,female,2020-09-22_11h50.52.111,torte-2b,2020.1.3,MacIntel,60,13364,,,,,,,,,,,,,,,,,,,,,,,,,,,,,,,,,,,,,,,,,,,,,,,,,,,,,,,,,,,,,,,,
,,,,,,,,,,,,a,0.267395,Correct!,0,29,29,57,1,t2.png,t4.png,2,0.059078,20,female,2020-09-22_11h50.52.111,torte-2b,2020.1.3,MacIntel,60,13364,,,,,,,,,,,,,,,,,,,,,,,,,,,,,,,,,,,,,,,,,,,,,,,,,,,,,,,,,,,,,,,,
,,,,,,,,,,,,a,0.9008,Incorrect,0,30,30,89,1,t1.png,t4.png,3,0.0000131,20,female,2020-09-22_11h50.52.111,torte-2b,2020.1.3,MacIntel,60,13364,,,,,,,,,,,,,,,,,,,,,,,,,,,,,,,,,,,,,,,,,,,,,,,,,,,,,,,,,,,,,,,,
,,,,,,,,,,,,l,0.384085,Incorrect,0,31,31,84,1,t1.png,t1.png,0,0.97829,20,female,2020-09-22_11h50.52.111,torte-2b,2020.1.3,MacIntel,60,13364,,,,,,,,,,,,,,,,,,,,,,,,,,,,,,,,,,,,,,,,,,,,,,,,,,,,,,,,,,,,,,,,
,,,,,,,,,,,,a,0.30055,Correct!,0,32,32,86,1,t3.png,t1.png,2,0.056466,20,female,2020-09-22_11h50.52.111,torte-2b,2020.1.3,MacIntel,60,13364,,,,,,,,,,,,,,,,,,,,,,,,,,,,,,,,,,,,,,,,,,,,,,,,,,,,,,,,,,,,,,,,
,,,,,,,,,,,,a,0.451365,Incorrect,0,33,33,51,1,t3.png,t1.png,2,0.056466,20,female,2020-09-22_11h50.52.111,torte-2b,2020.1.3,MacIntel,60,13364,,,,,,,,,,,,,,,,,,,,,,,,,,,,,,,,,,,,,,,,,,,,,,,,,,,,,,,,,,,,,,,,
,,,,,,,,,,,,l,1.535835,Incorrect,0,34,34,23,1,t5.png,t4.png,1,0.90025,20,female,2020-09-22_11h50.52.111,torte-2b,2020.1.3,MacIntel,60,13364,,,,,,,,,,,,,,,,,,,,,,,,,,,,,,,,,,,,,,,,,,,,,,,,,,,,,,,,,,,,,,,,
,,,,,,,,,,,,a,0.950815,Incorrect,0,35,35,105,1,t3.png,t2.png,1,0.90855,20,female,2020-09-22_11h50.52.111,torte-2b,2020.1.3,MacIntel,60,13364,,,,,,,,,,,,,,,,,,,,,,,,,,,,,,,,,,,,,,,,,,,,,,,,,,,,,,,,,,,,,,,,
,,,,,,,,,,,,l,0.9705,Correct!,0,36,36,10,1,t2.png,t3.png,1,0.90855,20,female,2020-09-22_11h50.52.111,torte-2b,2020.1.3,MacIntel,60,13364,,,,,,,,,,,,,,,,,,,,,,,,,,,,,,,,,,,,,,,,,,,,,,,,,,,,,,,,,,,,,,,,
,,,,,,,,,,,,l,0.950365,Correct!,0,37,37,37,1,t1.png,t4.png,3,0.0000131,20,female,2020-09-22_11h50.52.111,torte-2b,2020.1.3,MacIntel,60,13364,,,,,,,,,,,,,,,,,,,,,,,,,,,,,,,,,,,,,,,,,,,,,,,,,,,,,,,,,,,,,,,,
,,,,,,,,,,,,a,1.801885,Correct!,0,38,38,16,1,t5.png,t4.png,1,0.9,20,female,2020-09-22_11h50.52.111,torte-2b,2020.1.3,MacIntel,60,13364,,,,,,,,,,,,,,,,,,,,,,,,,,,,,,,,,,,,,,,,,,,,,,,,,,,,,,,,,,,,,,,,
,,,,,,,,,,,,l,1.400815,Incorrect,0,39,39,32,1,t4.png,t5.png,1,0.90025,20,female,2020-09-22_11h50.52.111,torte-2b,2020.1.3,MacIntel,60,13364,,,,,,,,,,,,,,,,,,,,,,,,,,,,,,,,,,,,,,,,,,,,,,,,,,,,,,,,,,,,,,,,
,,,,,,,,,,,,l,1.53386,Incorrect,0,40,40,41,1,t3.png,t2.png,1,0.90855,20,female,2020-09-22_11h50.52.111,torte-2b,2020.1.3,MacIntel,60,13364,,,,,,,,,,,,,,,,,,,,,,,,,,,,,,,,,,,,,,,,,,,,,,,,,,,,,,,,,,,,,,,,
,,,,,,,,,,,,a,0.88521,Incorrect,0,41,41,26,1,t4.png,t2.png,2,0.0591,20,female,2020-09-22_11h50.52.111,torte-2b,2020.1.3,MacIntel,60,13364,,,,,,,,,,,,,,,,,,,,,,,,,,,,,,,,,,,,,,,,,,,,,,,,,,,,,,,,,,,,,,,,
,,,,,,,,,,,,l,1.133675,Incorrect,0,42,42,8,1,t3.png,t2.png,1,0.90855,20,female,2020-09-22_11h50.52.111,torte-2b,2020.1.3,MacIntel,60,13364,,,,,,,,,,,,,,,,,,,,,,,,,,,,,,,,,,,,,,,,,,,,,,,,,,,,,,,,,,,,,,,,
,,,,,,,,,,,,a,1.00107,Incorrect,0,43,43,69,1,t4.png,t2.png,2,0.059078,20,female,2020-09-22_11h50.52.111,torte-2b,2020.1.3,MacIntel,60,13364,,,,,,,,,,,,,,,,,,,,,,,,,,,,,,,,,,,,,,,,,,,,,,,,,,,,,,,,,,,,,,,,
,,,,,,,,,,,,l,0.619535,Correct!,0,44,44,30,1,t3.png,t1.png,2,0.056466,20,female,2020-09-22_11h50.52.111,torte-2b,2020.1.3,MacIntel,60,13364,,,,,,,,,,,,,,,,,,,,,,,,,,,,,,,,,,,,,,,,,,,,,,,,,,,,,,,,,,,,,,,,
,,,,,,,,,,,,l,1.48526,Incorrect,0,45,45,20,1,t2.png,t3.png,1,0.90855,20,female,2020-09-22_11h50.52.111,torte-2b,2020.1.3,MacIntel,60,13364,,,,,,,,,,,,,,,,,,,,,,,,,,,,,,,,,,,,,,,,,,,,,,,,,,,,,,,,,,,,,,,,
,,,,,,,,,,,,a,0.66687,Correct!,0,46,46,59,1,t5.png,t4.png,1,0.9,20,female,2020-09-22_11h50.52.111,torte-2b,2020.1.3,MacIntel,60,13364,,,,,,,,,,,,,,,,,,,,,,,,,,,,,,,,,,,,,,,,,,,,,,,,,,,,,,,,,,,,,,,,
,,,,,,,,,,,,l,1.453395,Correct!,0,47,47,36,1,t3.png,t1.png,2,0.0565,20,female,2020-09-22_11h50.52.111,torte-2b,2020.1.3,MacIntel,60,13364,,,,,,,,,,,,,,,,,,,,,,,,,,,,,,,,,,,,,,,,,,,,,,,,,,,,,,,,,,,,,,,,
,,,,,,,,,,,,a,0.78864,Incorrect,0,48,48,0,1,t5.png,t1.png,4,9.55E-11,20,female,2020-09-22_11h50.52.111,torte-2b,2020.1.3,MacIntel,60,13364,,,,,,,,,,,,,,,,,,,,,,,,,,,,,,,,,,,,,,,,,,,,,,,,,,,,,,,,,,,,,,,,
,,,,,,,,,,,,,,Too slow :(,0,49,49,54,1,t1.png,t5.png,4,9.55E-11,20,female,2020-09-22_11h50.52.111,torte-2b,2020.1.3,MacIntel,60,13364,,,,,,,,,,,,,,,,,,,,,,,,,,,,,,,,,,,,,,,,,,,,,,,,,,,,,,,,,,,,,,,,
,,,,,,,,,,,,l,1.13493,Correct!,0,50,50,12,1,t5.png,t1.png,4,9.55E-11,20,female,2020-09-22_11h50.52.111,torte-2b,2020.1.3,MacIntel,60,13364,,,,,,,,,,,,,,,,,,,,,,,,,,,,,,,,,,,,,,,,,,,,,,,,,,,,,,,,,,,,,,,,
,,,,,,,,,,,,a,0.55056,Incorrect,0,51,51,103,1,t3.png,t1.png,2,0.056466,20,female,2020-09-22_11h50.52.111,torte-2b,2020.1.3,MacIntel,60,13364,,,,,,,,,,,,,,,,,,,,,,,,,,,,,,,,,,,,,,,,,,,,,,,,,,,,,,,,,,,,,,,,
,,,,,,,,,,,,l,0.366085,Incorrect,0,52,52,15,1,t3.png,t2.png,1,0.90855,20,female,2020-09-22_11h50.52.111,torte-2b,2020.1.3,MacIntel,60,13364,,,,,,,,,,,,,,,,,,,,,,,,,,,,,,,,,,,,,,,,,,,,,,,,,,,,,,,,,,,,,,,,
,,,,,,,,,,,,l,0.84991,Correct!,0,53,53,63,1,t2.png,t3.png,1,0.909,20,female,2020-09-22_11h50.52.111,torte-2b,2020.1.3,MacIntel,60,13364,,,,,,,,,,,,,,,,,,,,,,,,,,,,,,,,,,,,,,,,,,,,,,,,,,,,,,,,,,,,,,,,
,,,,,,,,,,,,a,0.38399,Correct!,0,54,54,5,1,t2.png,t4.png,2,0.059078,20,female,2020-09-22_11h50.52.111,torte-2b,2020.1.3,MacIntel,60,13364,,,,,,,,,,,,,,,,,,,,,,,,,,,,,,,,,,,,,,,,,,,,,,,,,,,,,,,,,,,,,,,,
,,,,,,,,,,,,l,0.450825,Correct!,0,55,55,19,1,t4.png,t2.png,2,0.059078,20,female,2020-09-22_11h50.52.111,torte-2b,2020.1.3,MacIntel,60,13364,,,,,,,,,,,,,,,,,,,,,,,,,,,,,,,,,,,,,,,,,,,,,,,,,,,,,,,,,,,,,,,,
,,,,,,,,,,,,a,0.368675,Incorrect,0,56,56,73,1,t4.png,t2.png,2,0.059078,20,female,2020-09-22_11h50.52.111,torte-2b,2020.1.3,MacIntel,60,13364,,,,,,,,,,,,,,,,,,,,,,,,,,,,,,,,,,,,,,,,,,,,,,,,,,,,,,,,,,,,,,,,
,,,,,,,,,,,,l,0.400285,Correct!,0,57,57,11,1,t1.png,t4.png,3,0.0000131,20,female,2020-09-22_11h50.52.111,torte-2b,2020.1.3,MacIntel,60,13364,,,,,,,,,,,,,,,,,,,,,,,,,,,,,,,,,,,,,,,,,,,,,,,,,,,,,,,,,,,,,,,,
,,,,,,,,,,,,a,0.301635,Incorrect,0,58,58,108,1,t5.png,t1.png,4,9.55E-11,20,female,2020-09-22_11h50.52.111,torte-2b,2020.1.3,MacIntel,60,13364,,,,,,,,,,,,,,,,,,,,,,,,,,,,,,,,,,,,,,,,,,,,,,,,,,,,,,,,,,,,,,,,
,,,,,,,,,,,,l,0.53426,Incorrect,0,59,59,104,1,t2.png,t3.png,1,0.90855,20,female,2020-09-22_11h50.52.111,torte-2b,2020.1.3,MacIntel,60,13364,,,,,,,,,,,,,,,,,,,,,,,,,,,,,,,,,,,,,,,,,,,,,,,,,,,,,,,,,,,,,,,,
,,,,,,,,,,,,a,0.850775,Correct!,0,60,60,42,1,t5.png,t4.png,1,0.90025,20,female,2020-09-22_11h50.52.111,torte-2b,2020.1.3,MacIntel,60,13364,,,,,,,,,,,,,,,,,,,,,,,,,,,,,,,,,,,,,,,,,,,,,,,,,,,,,,,,,,,,,,,,
,,,,,,,,,,,,l,0.769635,Incorrect,0,61,61,74,1,t5.png,t4.png,1,0.9,20,female,2020-09-22_11h50.52.111,torte-2b,2020.1.3,MacIntel,60,13364,,,,,,,,,,,,,,,,,,,,,,,,,,,,,,,,,,,,,,,,,,,,,,,,,,,,,,,,,,,,,,,,
,,,,,,,,,,,,a,0.268405,Incorrect,0,62,62,117,1,t1.png,t5.png,4,9.55E-11,20,female,2020-09-22_11h50.52.111,torte-2b,2020.1.3,MacIntel,60,13364,,,,,,,,,,,,,,,,,,,,,,,,,,,,,,,,,,,,,,,,,,,,,,,,,,,,,,,,,,,,,,,,
,,,,,,,,,,,,l,0.56739,Incorrect,0,63,63,95,1,t1.png,t1.png,0,0.978,20,female,2020-09-22_11h50.52.111,torte-2b,2020.1.3,MacIntel,60,13364,,,,,,,,,,,,,,,,,,,,,,,,,,,,,,,,,,,,,,,,,,,,,,,,,,,,,,,,,,,,,,,,
,,,,,,,,,,,,a,0.28907,Incorrect,0,64,64,60,1,t2.png,t4.png,2,0.059078,20,female,2020-09-22_11h50.52.111,torte-2b,2020.1.3,MacIntel,60,13364,,,,,,,,,,,,,,,,,,,,,,,,,,,,,,,,,,,,,,,,,,,,,,,,,,,,,,,,,,,,,,,,
,,,,,,,,,,,,l,0.35169,Incorrect,0,65,65,112,1,t1.png,t1.png,0,0.97829,20,female,2020-09-22_11h50.52.111,torte-2b,2020.1.3,MacIntel,60,13364,,,,,,,,,,,,,,,,,,,,,,,,,,,,,,,,,,,,,,,,,,,,,,,,,,,,,,,,,,,,,,,,
,,,,,,,,,,,,a,0.28453,Incorrect,0,66,66,40,1,t1.png,t5.png,4,9.55E-11,20,female,2020-09-22_11h50.52.111,torte-2b,2020.1.3,MacIntel,60,13364,,,,,,,,,,,,,,,,,,,,,,,,,,,,,,,,,,,,,,,,,,,,,,,,,,,,,,,,,,,,,,,,
,,,,,,,,,,,,l,1.219595,Correct!,0,67,67,115,1,t2.png,t4.png,2,0.059078,20,female,2020-09-22_11h50.52.111,torte-2b,2020.1.3,MacIntel,60,13364,,,,,,,,,,,,,,,,,,,,,,,,,,,,,,,,,,,,,,,,,,,,,,,,,,,,,,,,,,,,,,,,
,,,,,,,,,,,,a,0.351455,Correct!,0,68,68,25,1,t5.png,t5.png,0,0.97829,20,female,2020-09-22_11h50.52.111,torte-2b,2020.1.3,MacIntel,60,13364,,,,,,,,,,,,,,,,,,,,,,,,,,,,,,,,,,,,,,,,,,,,,,,,,,,,,,,,,,,,,,,,
,,,,,,,,,,,,l,0.86831,Correct!,0,69,69,98,1,t2.png,t4.png,2,0.0591,20,female,2020-09-22_11h50.52.111,torte-2b,2020.1.3,MacIntel,60,13364,,,,,,,,,,,,,,,,,,,,,,,,,,,,,,,,,,,,,,,,,,,,,,,,,,,,,,,,,,,,,,,,
,,,,,,,,,,,,a,0.367175,Incorrect,0,70,70,91,1,t1.png,t4.png,3,0.0000131,20,female,2020-09-22_11h50.52.111,torte-2b,2020.1.3,MacIntel,60,13364,,,,,,,,,,,,,,,,,,,,,,,,,,,,,,,,,,,,,,,,,,,,,,,,,,,,,,,,,,,,,,,,
,,,,,,,,,,,,l,0.33458,Correct!,0,71,71,6,1,t1.png,t4.png,3,0.0000131,20,female,2020-09-22_11h50.52.111,torte-2b,2020.1.3,MacIntel,60,13364,,,,,,,,,,,,,,,,,,,,,,,,,,,,,,,,,,,,,,,,,,,,,,,,,,,,,,,,,,,,,,,,
,,,,,,,,,,,,l,0.534435,Incorrect,0,72,72,70,1,t5.png,t5.png,0,0.978,20,female,2020-09-22_11h50.52.111,torte-2b,2020.1.3,MacIntel,60,13364,,,,,,,,,,,,,,,,,,,,,,,,,,,,,,,,,,,,,,,,,,,,,,,,,,,,,,,,,,,,,,,,
,,,,,,,,,,,,a,1.33539,Incorrect,0,73,73,111,1,t5.png,t1.png,4,9.55E-11,20,female,2020-09-22_11h50.52.111,torte-2b,2020.1.3,MacIntel,60,13364,,,,,,,,,,,,,,,,,,,,,,,,,,,,,,,,,,,,,,,,,,,,,,,,,,,,,,,,,,,,,,,,
,,,,,,,,,,,,l,1.235285,Incorrect,0,74,74,110,1,t4.png,t5.png,1,0.90025,20,female,2020-09-22_11h50.52.111,torte-2b,2020.1.3,MacIntel,60,13364,,,,,,,,,,,,,,,,,,,,,,,,,,,,,,,,,,,,,,,,,,,,,,,,,,,,,,,,,,,,,,,,
,,,,,,,,,,,,a,0.453885,Incorrect,0,75,75,17,1,t1.png,t4.png,3,0.0000131,20,female,2020-09-22_11h50.52.111,torte-2b,2020.1.3,MacIntel,60,13364,,,,,,,,,,,,,,,,,,,,,,,,,,,,,,,,,,,,,,,,,,,,,,,,,,,,,,,,,,,,,,,,
,,,,,,,,,,,,l,0.41791,Correct!,0,76,76,90,1,t1.png,t5.png,4,9.55E-11,20,female,2020-09-22_11h50.52.111,torte-2b,2020.1.3,MacIntel,60,13364,,,,,,,,,,,,,,,,,,,,,,,,,,,,,,,,,,,,,,,,,,,,,,,,,,,,,,,,,,,,,,,,
,,,,,,,,,,,,a,0.69263,Incorrect,0,77,77,88,1,t3.png,t1.png,2,0.056466,20,female,2020-09-22_11h50.52.111,torte-2b,2020.1.3,MacIntel,60,13364,,,,,,,,,,,,,,,,,,,,,,,,,,,,,,,,,,,,,,,,,,,,,,,,,,,,,,,,,,,,,,,,
,,,,,,,,,,,,l,0.68493,Correct!,0,78,78,93,1,t2.png,t4.png,2,0.059078,20,female,2020-09-22_11h50.52.111,torte-2b,2020.1.3,MacIntel,60,13364,,,,,,,,,,,,,,,,,,,,,,,,,,,,,,,,,,,,,,,,,,,,,,,,,,,,,,,,,,,,,,,,
,,,,,,,,,,,,a,0.73542,Correct!,0,79,79,78,1,t1.png,t1.png,0,0.978,20,female,2020-09-22_11h50.52.111,torte-2b,2020.1.3,MacIntel,60,13364,,,,,,,,,,,,,,,,,,,,,,,,,,,,,,,,,,,,,,,,,,,,,,,,,,,,,,,,,,,,,,,,
,,,,,,,,,,,,a,0.904965,Correct!,0,80,80,114,1,t2.png,t3.png,1,0.90855,20,female,2020-09-22_11h50.52.111,torte-2b,2020.1.3,MacIntel,60,13364,,,,,,,,,,,,,,,,,,,,,,,,,,,,,,,,,,,,,,,,,,,,,,,,,,,,,,,,,,,,,,,,
,,,,,,,,,,,,l,0.75119,Correct!,0,81,81,94,1,t5.png,t1.png,4,9.55E-11,20,female,2020-09-22_11h50.52.111,torte-2b,2020.1.3,MacIntel,60,13364,,,,,,,,,,,,,,,,,,,,,,,,,,,,,,,,,,,,,,,,,,,,,,,,,,,,,,,,,,,,,,,,
,,,,,,,,,,,,l,1.333445,Correct!,0,82,82,3,1,t1.png,t5.png,4,9.55E-11,20,female,2020-09-22_11h50.52.111,torte-2b,2020.1.3,MacIntel,60,13364,,,,,,,,,,,,,,,,,,,,,,,,,,,,,,,,,,,,,,,,,,,,,,,,,,,,,,,,,,,,,,,,
,,,,,,,,,,,,l,2.19845,Correct!,0,83,83,46,1,t4.png,t2.png,2,0.059078,20,female,2020-09-22_11h50.52.111,torte-2b,2020.1.3,MacIntel,60,13364,,,,,,,,,,,,,,,,,,,,,,,,,,,,,,,,,,,,,,,,,,,,,,,,,,,,,,,,,,,,,,,,
,,,,,,,,,,,,a,2.301515,Incorrect,0,84,84,83,1,t3.png,t1.png,2,0.056466,20,female,2020-09-22_11h50.52.111,torte-2b,2020.1.3,MacIntel,60,13364,,,,,,,,,,,,,,,,,,,,,,,,,,,,,,,,,,,,,,,,,,,,,,,,,,,,,,,,,,,,,,,,
,,,,,,,,,,,,l,1.65167,Incorrect,0,85,85,106,1,t2.png,t3.png,1,0.90855,20,female,2020-09-22_11h50.52.111,torte-2b,2020.1.3,MacIntel,60,13364,,,,,,,,,,,,,,,,,,,,,,,,,,,,,,,,,,,,,,,,,,,,,,,,,,,,,,,,,,,,,,,,
,,,,,,,,,,,,l,2.183785,Incorrect,0,86,86,76,1,t3.png,t2.png,1,0.90855,20,female,2020-09-22_11h50.52.111,torte-2b,2020.1.3,MacIntel,60,13364,,,,,,,,,,,,,,,,,,,,,,,,,,,,,,,,,,,,,,,,,,,,,,,,,,,,,,,,,,,,,,,,
,,,,,,,,,,,,a,0.834655,Correct!,0,87,87,2,1,t3.png,t2.png,1,0.90855,20,female,2020-09-22_11h50.52.111,torte-2b,2020.1.3,MacIntel,60,13364,,,,,,,,,,,,,,,,,,,,,,,,,,,,,,,,,,,,,,,,,,,,,,,,,,,,,,,,,,,,,,,,
,,,,,,,,,,,,,,Too slow :(,0,88,88,113,1,t5.png,t4.png,1,0.9,20,female,2020-09-22_11h50.52.111,torte-2b,2020.1.3,MacIntel,60,13364,,,,,,,,,,,,,,,,,,,,,,,,,,,,,,,,,,,,,,,,,,,,,,,,,,,,,,,,,,,,,,,,
,,,,,,,,,,,,l,1.400935,Correct!,0,89,89,43,1,t4.png,t2.png,2,0.059078,20,female,2020-09-22_11h50.52.111,torte-2b,2020.1.3,MacIntel,60,13364,,,,,,,,,,,,,,,,,,,,,,,,,,,,,,,,,,,,,,,,,,,,,,,,,,,,,,,,,,,,,,,,
,,,,,,,,,,,,l,1.51806,Correct!,0,90,90,38,1,t3.png,t1.png,2,0.056466,20,female,2020-09-22_11h50.52.111,torte-2b,2020.1.3,MacIntel,60,13364,,,,,,,,,,,,,,,,,,,,,,,,,,,,,,,,,,,,,,,,,,,,,,,,,,,,,,,,,,,,,,,,
,,,,,,,,,,,,a,2.30109,Incorrect,0,91,91,99,1,t1.png,t5.png,4,9.55E-11,20,female,2020-09-22_11h50.52.111,torte-2b,2020.1.3,MacIntel,60,13364,,,,,,,,,,,,,,,,,,,,,,,,,,,,,,,,,,,,,,,,,,,,,,,,,,,,,,,,,,,,,,,,
,,,,,,,,,,,,l,1.385335,Correct!,0,92,92,55,1,t2.png,t4.png,2,0.059078,20,female,2020-09-22_11h50.52.111,torte-2b,2020.1.3,MacIntel,60,13364,,,,,,,,,,,,,,,,,,,,,,,,,,,,,,,,,,,,,,,,,,,,,,,,,,,,,,,,,,,,,,,,
,,,,,,,,,,,,a,1.183765,Correct!,0,93,93,85,1,t3.png,t2.png,1,0.90855,20,female,2020-09-22_11h50.52.111,torte-2b,2020.1.3,MacIntel,60,13364,,,,,,,,,,,,,,,,,,,,,,,,,,,,,,,,,,,,,,,,,,,,,,,,,,,,,,,,,,,,,,,,
,,,,,,,,,,,,l,1.35107,Correct!,0,94,94,27,1,t3.png,t1.png,2,0.0565,20,female,2020-09-22_11h50.52.111,torte-2b,2020.1.3,MacIntel,60,13364,,,,,,,,,,,,,,,,,,,,,,,,,,,,,,,,,,,,,,,,,,,,,,,,,,,,,,,,,,,,,,,,
,,,,,,,,,,,,l,0.919735,Incorrect,0,95,95,28,1,t2.png,t3.png,1,0.909,20,female,2020-09-22_11h50.52.111,torte-2b,2020.1.3,MacIntel,60,13364,,,,,,,,,,,,,,,,,,,,,,,,,,,,,,,,,,,,,,,,,,,,,,,,,,,,,,,,,,,,,,,,
,,,,,,,,,,,,a,1.604055,Incorrect,0,96,96,47,1,t4.png,t2.png,2,0.059078,20,female,2020-09-22_11h50.52.111,torte-2b,2020.1.3,MacIntel,60,13364,,,,,,,,,,,,,,,,,,,,,,,,,,,,,,,,,,,,,,,,,,,,,,,,,,,,,,,,,,,,,,,,
,,,,,,,,,,,,l,0.817615,Incorrect,0,97,97,39,1,t3.png,t2.png,1,0.90855,20,female,2020-09-22_11h50.52.111,torte-2b,2020.1.3,MacIntel,60,13364,,,,,,,,,,,,,,,,,,,,,,,,,,,,,,,,,,,,,,,,,,,,,,,,,,,,,,,,,,,,,,,,
,,,,,,,,,,,,l,1.833305,Incorrect,0,98,98,44,1,t2.png,t3.png,1,0.909,20,female,2020-09-22_11h50.52.111,torte-2b,2020.1.3,MacIntel,60,13364,,,,,,,,,,,,,,,,,,,,,,,,,,,,,,,,,,,,,,,,,,,,,,,,,,,,,,,,,,,,,,,,
,,,,,,,,,,,,a,0.63376,Incorrect,0,99,99,82,1,t5.png,t1.png,4,9.55E-11,20,female,2020-09-22_11h50.52.111,torte-2b,2020.1.3,MacIntel,60,13364,,,,,,,,,,,,,,,,,,,,,,,,,,,,,,,,,,,,,,,,,,,,,,,,,,,,,,,,,,,,,,,,
,,,,,,,,,,,,l,0.8996,Correct!,0,100,100,24,1,t4.png,t2.png,2,0.059078,20,female,2020-09-22_11h50.52.111,torte-2b,2020.1.3,MacIntel,60,13364,,,,,,,,,,,,,,,,,,,,,,,,,,,,,,,,,,,,,,,,,,,,,,,,,,,,,,,,,,,,,,,,
,,,,,,,,,,,,l,0.969965,Correct!,0,101,101,61,1,t1.png,t4.png,3,0.0000131,20,female,2020-09-22_11h50.52.111,torte-2b,2020.1.3,MacIntel,60,13364,,,,,,,,,,,,,,,,,,,,,,,,,,,,,,,,,,,,,,,,,,,,,,,,,,,,,,,,,,,,,,,,
,,,,,,,,,,,,l,1.61625,Incorrect,0,102,102,45,1,t3.png,t2.png,1,0.90855,20,female,2020-09-22_11h50.52.111,torte-2b,2020.1.3,MacIntel,60,13364,,,,,,,,,,,,,,,,,,,,,,,,,,,,,,,,,,,,,,,,,,,,,,,,,,,,,,,,,,,,,,,,
,,,,,,,,,,,,a,0.527035,Incorrect,0,103,103,102,1,t4.png,t2.png,2,0.059078,20,female,2020-09-22_11h50.52.111,torte-2b,2020.1.3,MacIntel,60,13364,,,,,,,,,,,,,,,,,,,,,,,,,,,,,,,,,,,,,,,,,,,,,,,,,,,,,,,,,,,,,,,,
,,,,,,,,,,,,l,0.451615,Incorrect,0,104,104,65,1,t4.png,t5.png,1,0.90025,20,female,2020-09-22_11h50.52.111,torte-2b,2020.1.3,MacIntel,60,13364,,,,,,,,,,,,,,,,,,,,,,,,,,,,,,,,,,,,,,,,,,,,,,,,,,,,,,,,,,,,,,,,
,,,,,,,,,,,,a,0.714395,Incorrect,0,105,105,119,1,t1.png,t5.png,4,9.55E-11,20,female,2020-09-22_11h50.52.111,torte-2b,2020.1.3,MacIntel,60,13364,,,,,,,,,,,,,,,,,,,,,,,,,,,,,,,,,,,,,,,,,,,,,,,,,,,,,,,,,,,,,,,,
,,,,,,,,,,,,l,0.502665,Correct!,0,106,106,33,1,t5.png,t1.png,4,9.55E-11,20,female,2020-09-22_11h50.52.111,torte-2b,2020.1.3,MacIntel,60,13364,,,,,,,,,,,,,,,,,,,,,,,,,,,,,,,,,,,,,,,,,,,,,,,,,,,,,,,,,,,,,,,,
,,,,,,,,,,,,l,1.569145,Incorrect,0,107,107,71,1,t5.png,t5.png,0,0.97829,20,female,2020-09-22_11h50.52.111,torte-2b,2020.1.3,MacIntel,60,13364,,,,,,,,,,,,,,,,,,,,,,,,,,,,,,,,,,,,,,,,,,,,,,,,,,,,,,,,,,,,,,,,
,,,,,,,,,,,,a,1.584165,Correct!,0,108,108,62,1,t5.png,t5.png,0,0.978,20,female,2020-09-22_11h50.52.111,torte-2b,2020.1.3,MacIntel,60,13364,,,,,,,,,,,,,,,,,,,,,,,,,,,,,,,,,,,,,,,,,,,,,,,,,,,,,,,,,,,,,,,,
,,,,,,,,,,,,l,1.6177,Incorrect,0,109,109,58,1,t5.png,t4.png,1,0.90025,20,female,2020-09-22_11h50.52.111,torte-2b,2020.1.3,MacIntel,60,13364,,,,,,,,,,,,,,,,,,,,,,,,,,,,,,,,,,,,,,,,,,,,,,,,,,,,,,,,,,,,,,,,
,,,,,,,,,,,,l,0.70136,Incorrect,0,110,110,77,1,t1.png,t1.png,0,0.97829,20,female,2020-09-22_11h50.52.111,torte-2b,2020.1.3,MacIntel,60,13364,,,,,,,,,,,,,,,,,,,,,,,,,,,,,,,,,,,,,,,,,,,,,,,,,,,,,,,,,,,,,,,,
,,,,,,,,,,,,a,0.51691,Correct!,0,111,111,101,1,t4.png,t5.png,1,0.90025,20,female,2020-09-22_11h50.52.111,torte-2b,2020.1.3,MacIntel,60,13364,,,,,,,,,,,,,,,,,,,,,,,,,,,,,,,,,,,,,,,,,,,,,,,,,,,,,,,,,,,,,,,,
,,,,,,,,,,,,a,0.716735,Correct!,0,112,112,109,1,t5.png,t5.png,0,0.97829,20,female,2020-09-22_11h50.52.111,torte-2b,2020.1.3,MacIntel,60,13364,,,,,,,,,,,,,,,,,,,,,,,,,,,,,,,,,,,,,,,,,,,,,,,,,,,,,,,,,,,,,,,,
,,,,,,,,,,,,l,0.581915,Incorrect,0,113,113,100,1,t4.png,t5.png,1,0.90025,20,female,2020-09-22_11h50.52.111,torte-2b,2020.1.3,MacIntel,60,13364,,,,,,,,,,,,,,,,,,,,,,,,,,,,,,,,,,,,,,,,,,,,,,,,,,,,,,,,,,,,,,,,
,,,,,,,,,,,,a,0.3369,Correct!,0,114,114,116,1,t5.png,t4.png,1,0.90025,20,female,2020-09-22_11h50.52.111,torte-2b,2020.1.3,MacIntel,60,13364,,,,,,,,,,,,,,,,,,,,,,,,,,,,,,,,,,,,,,,,,,,,,,,,,,,,,,,,,,,,,,,,
,,,,,,,,,,,,l,1.56742,Correct!,0,115,115,4,1,t1.png,t5.png,4,9.55E-11,20,female,2020-09-22_11h50.52.111,torte-2b,2020.1.3,MacIntel,60,13364,,,,,,,,,,,,,,,,,,,,,,,,,,,,,,,,,,,,,,,,,,,,,,,,,,,,,,,,,,,,,,,,
,,,,,,,,,,,,l,1.200135,Incorrect,0,116,116,97,1,t5.png,t5.png,0,0.97829,20,female,2020-09-22_11h50.52.111,torte-2b,2020.1.3,MacIntel,60,13364,,,,,,,,,,,,,,,,,,,,,,,,,,,,,,,,,,,,,,,,,,,,,,,,,,,,,,,,,,,,,,,,
,,,,,,,,,,,,l,0.750885,Incorrect,0,117,117,96,1,t1.png,t1.png,0,0.97829,20,female,2020-09-22_11h50.52.111,torte-2b,2020.1.3,MacIntel,60,13364,,,,,,,,,,,,,,,,,,,,,,,,,,,,,,,,,,,,,,,,,,,,,,,,,,,,,,,,,,,,,,,,
,,,,,,,,,,,,a,0.50033,Incorrect,0,118,118,56,1,t5.png,t1.png,4,9.55E-11,20,female,2020-09-22_11h50.52.111,torte-2b,2020.1.3,MacIntel,60,13364,,,,,,,,,,,,,,,,,,,,,,,,,,,,,,,,,,,,,,,,,,,,,,,,,,,,,,,,,,,,,,,,
,,,,,,,,,,,,l,0.56665,Correct!,0,119,119,34,1,t5.png,t4.png,1,0.9,20,female,2020-09-22_11h50.52.111,torte-2b,2020.1.3,MacIntel,60,13364,,,,,,,,,,,,,,,,,,,,,,,,,,,,,,,,,,,,,,,,,,,,,,,,,,,,,,,,,,,,,,,,
,,,,,,,,,,,,l,1.989105,Correct!,,,,,,t2.png,t5.png,3,0.0000131,20,female,2020-09-22_11h50.52.111,torte-2b,2020.1.3,MacIntel,60,13364,space,1.967465,space,38.043325,0,0,0,95,1,,,,,,,,,,,,,,,,,,,,,,,,,,,,,,,,,,,,,,,,,,,,,,,,,,,,,,,
,,,,,,,,,,,,,,Too slow :(,,,,,,t2.png,t4.png,2,0.059078,20,female,2020-09-22_11h50.52.111,torte-2b,2020.1.3,MacIntel,60,13364,,,,,0,1,1,77,1,,,,,,,,,,,,,,,,,,,,,,,,,,,,,,,,,,,,,,,,,,,,,,,,,,,,,,,
,,,,,,,,,,,,a,1.150275,Correct!,,,,,,t1.png,t2.png,1,0.90025,20,female,2020-09-22_11h50.52.111,torte-2b,2020.1.3,MacIntel,60,13364,,,,,0,2,2,72,1,,,,,,,,,,,,,,,,,,,,,,,,,,,,,,,,,,,,,,,,,,,,,,,,,,,,,,,
,,,,,,,,,,,,a,1.182665,Correct!,,,,,,t1.png,t1.png,0,0.978,20,female,2020-09-22_11h50.52.111,torte-2b,2020.1.3,MacIntel,60,13364,,,,,0,3,3,54,1,,,,,,,,,,,,,,,,,,,,,,,,,,,,,,,,,,,,,,,,,,,,,,,,,,,,,,,
,,,,,,,,,,,,l,1.622565,Correct!,,,,,,t1.png,t3.png,2,0.056466,20,female,2020-09-22_11h50.52.111,torte-2b,2020.1.3,MacIntel,60,13364,,,,,0,4,4,63,1,,,,,,,,,,,,,,,,,,,,,,,,,,,,,,,,,,,,,,,,,,,,,,,,,,,,,,,
,,,,,,,,,,,,l,1.483125,Correct!,,,,,,t1.png,t5.png,4,9.55E-11,20,female,2020-09-22_11h50.52.111,torte-2b,2020.1.3,MacIntel,60,13364,,,,,0,5,5,12,1,,,,,,,,,,,,,,,,,,,,,,,,,,,,,,,,,,,,,,,,,,,,,,,,,,,,,,,
,,,,,,,,,,,,a,1.31272,Incorrect,,,,,,t5.png,t3.png,2,0.056466,20,female,2020-09-22_11h50.52.111,torte-2b,2020.1.3,MacIntel,60,13364,,,,,0,6,6,114,1,,,,,,,,,,,,,,,,,,,,,,,,,,,,,,,,,,,,,,,,,,,,,,,,,,,,,,,
,,,,,,,,,,,,a,0.81742,Incorrect,,,,,,t5.png,t3.png,2,0.0565,20,female,2020-09-22_11h50.52.111,torte-2b,2020.1.3,MacIntel,60,13364,,,,,0,7,7,39,1,,,,,,,,,,,,,,,,,,,,,,,,,,,,,,,,,,,,,,,,,,,,,,,,,,,,,,,
,,,,,,,,,,,,a,1.18397,Correct!,,,,,,t2.png,t1.png,1,0.90025,20,female,2020-09-22_11h50.52.111,torte-2b,2020.1.3,MacIntel,60,13364,,,,,0,8,8,5,1,,,,,,,,,,,,,,,,,,,,,,,,,,,,,,,,,,,,,,,,,,,,,,,,,,,,,,,
,,,,,,,,,,,,l,0.9375,Correct!,,,,,,t3.png,t5.png,2,0.0565,20,female,2020-09-22_11h50.52.111,torte-2b,2020.1.3,MacIntel,60,13364,,,,,0,9,9,30,1,,,,,,,,,,,,,,,,,,,,,,,,,,,,,,,,,,,,,,,,,,,,,,,,,,,,,,,
,,,,,,,,,,,,l,1.098995,Correct!,,,,,,t1.png,t4.png,3,0.0000131,20,female,2020-09-22_11h50.52.111,torte-2b,2020.1.3,MacIntel,60,13364,,,,,0,10,10,92,1,,,,,,,,,,,,,,,,,,,,,,,,,,,,,,,,,,,,,,,,,,,,,,,,,,,,,,,
,,,,,,,,,,,,a,1.167445,Incorrect,,,,,,t5.png,t1.png,4,9.55E-11,20,female,2020-09-22_11h50.52.111,torte-2b,2020.1.3,MacIntel,60,13364,,,,,0,11,11,71,1,,,,,,,,,,,,,,,,,,,,,,,,,,,,,,,,,,,,,,,,,,,,,,,,,,,,,,,
,,,,,,,,,,,,l,2.270945,Incorrect,,,,,,t3.png,t1.png,2,0.0565,20,female,2020-09-22_11h50.52.111,torte-2b,2020.1.3,MacIntel,60,13364,,,,,0,12,12,31,1,,,,,,,,,,,,,,,,,,,,,,,,,,,,,,,,,,,,,,,,,,,,,,,,,,,,,,,
,,,,,,,,,,,,a,1.104515,Incorrect,,,,,,t2.png,t5.png,3,0.0000131,20,female,2020-09-22_11h50.52.111,torte-2b,2020.1.3,MacIntel,60,13364,,,,,0,13,13,104,1,,,,,,,,,,,,,,,,,,,,,,,,,,,,,,,,,,,,,,,,,,,,,,,,,,,,,,,
,,,,,,,,,,,,a,1.804285,Incorrect,,,,,,t5.png,t3.png,2,0.056466,20,female,2020-09-22_11h50.52.111,torte-2b,2020.1.3,MacIntel,60,13364,,,,,0,14,14,38,1,,,,,,,,,,,,,,,,,,,,,,,,,,,,,,,,,,,,,,,,,,,,,,,,,,,,,,,
,,,,,,,,,,,,a,1.92719,Correct!,,,,,,t5.png,t4.png,1,0.9,20,female,2020-09-22_11h50.52.111,torte-2b,2020.1.3,MacIntel,60,13364,,,,,0,15,15,49,1,,,,,,,,,,,,,,,,,,,,,,,,,,,,,,,,,,,,,,,,,,,,,,,,,,,,,,,
,,,,,,,,,,,,a,1.48193,Incorrect,,,,,,t5.png,t1.png,4,9.55E-11,20,female,2020-09-22_11h50.52.111,torte-2b,2020.1.3,MacIntel,60,13364,,,,,0,16,16,102,1,,,,,,,,,,,,,,,,,,,,,,,,,,,,,,,,,,,,,,,,,,,,,,,,,,,,,,,
,,,,,,,,,,,,l,0.76887,Correct!,,,,,,t1.png,t4.png,3,0.0000131,20,female,2020-09-22_11h50.52.111,torte-2b,2020.1.3,MacIntel,60,13364,,,,,0,17,17,17,1,,,,,,,,,,,,,,,,,,,,,,,,,,,,,,,,,,,,,,,,,,,,,,,,,,,,,,,
,,,,,,,,,,,,a,1.749405,Correct!,,,,,,t5.png,t5.png,0,0.97829,20,female,2020-09-22_11h50.52.111,torte-2b,2020.1.3,MacIntel,60,13364,,,,,0,18,18,70,1,,,,,,,,,,,,,,,,,,,,,,,,,,,,,,,,,,,,,,,,,,,,,,,,,,,,,,,
,,,,,,,,,,,,a,1.57896,Correct!,,,,,,t4.png,t4.png,0,0.98115,20,female,2020-09-22_11h50.52.111,torte-2b,2020.1.3,MacIntel,60,13364,,,,,0,19,19,21,1,,,,,,,,,,,,,,,,,,,,,,,,,,,,,,,,,,,,,,,,,,,,,,,,,,,,,,,
,,,,,,,,,,,,l,1.11329,Correct!,,,,,,t3.png,t5.png,2,0.056466,20,female,2020-09-22_11h50.52.111,torte-2b,2020.1.3,MacIntel,60,13364,,,,,0,20,20,14,1,,,,,,,,,,,,,,,,,,,,,,,,,,,,,,,,,,,,,,,,,,,,,,,,,,,,,,,
,,,,,,,,,,,,l,1.195895,Incorrect,,,,,,t1.png,t1.png,0,0.978,20,female,2020-09-22_11h50.52.111,torte-2b,2020.1.3,MacIntel,60,13364,,,,,0,21,21,28,1,,,,,,,,,,,,,,,,,,,,,,,,,,,,,,,,,,,,,,,,,,,,,,,,,,,,,,,
,,,,,,,,,,,,,,Too slow :(,,,,,,t3.png,t5.png,2,0.056466,20,female,2020-09-22_11h50.52.111,torte-2b,2020.1.3,MacIntel,60,13364,,,,,0,22,22,44,1,,,,,,,,,,,,,,,,,,,,,,,,,,,,,,,,,,,,,,,,,,,,,,,,,,,,,,,
,,,,,,,,,,,,a,0.90691,Correct!,,,,,,t3.png,t2.png,1,0.909,20,female,2020-09-22_11h50.52.111,torte-2b,2020.1.3,MacIntel,60,13364,,,,,0,23,23,3,1,,,,,,,,,,,,,,,,,,,,,,,,,,,,,,,,,,,,,,,,,,,,,,,,,,,,,,,
,,,,,,,,,,,,a,1.54296,Correct!,,,,,,t4.png,t4.png,0,0.98115,20,female,2020-09-22_11h50.52.111,torte-2b,2020.1.3,MacIntel,60,13364,,,,,0,24,24,80,1,,,,,,,,,,,,,,,,,,,,,,,,,,,,,,,,,,,,,,,,,,,,,,,,,,,,,,,
,,,,,,,,,,,,l,0.67071,Incorrect,,,,,,t1.png,t1.png,0,0.97829,20,female,2020-09-22_11h50.52.111,torte-2b,2020.1.3,MacIntel,60,13364,,,,,0,25,25,9,1,,,,,,,,,,,,,,,,,,,,,,,,,,,,,,,,,,,,,,,,,,,,,,,,,,,,,,,
,,,,,,,,,,,,l,1.284315,Incorrect,,,,,,t2.png,t1.png,1,0.90025,20,female,2020-09-22_11h50.52.111,torte-2b,2020.1.3,MacIntel,60,13364,,,,,0,26,26,19,1,,,,,,,,,,,,,,,,,,,,,,,,,,,,,,,,,,,,,,,,,,,,,,,,,,,,,,,
,,,,,,,,,,,,a,0.990035,Incorrect,,,,,,t2.png,t5.png,3,0.0000131,20,female,2020-09-22_11h50.52.111,torte-2b,2020.1.3,MacIntel,60,13364,,,,,0,27,27,66,1,,,,,,,,,,,,,,,,,,,,,,,,,,,,,,,,,,,,,,,,,,,,,,,,,,,,,,,
,,,,,,,,,,,,l,0.646205,Incorrect,,,,,,t3.png,t4.png,1,0.909,20,female,2020-09-22_11h50.52.111,torte-2b,2020.1.3,MacIntel,60,13364,,,,,0,28,28,82,1,,,,,,,,,,,,,,,,,,,,,,,,,,,,,,,,,,,,,,,,,,,,,,,,,,,,,,,
,,,,,,,,,,,,l,0.417775,Incorrect,,,,,,t2.png,t1.png,1,0.9,20,female,2020-09-22_11h50.52.111,torte-2b,2020.1.3,MacIntel,60,13364,,,,,0,29,29,118,1,,,,,,,,,,,,,,,,,,,,,,,,,,,,,,,,,,,,,,,,,,,,,,,,,,,,,,,
,,,,,,,,,,,,a,0.41308,Incorrect,,,,,,t5.png,t2.png,3,0.0000131,20,female,2020-09-22_11h50.52.111,torte-2b,2020.1.3,MacIntel,60,13364,,,,,0,30,30,98,1,,,,,,,,,,,,,,,,,,,,,,,,,,,,,,,,,,,,,,,,,,,,,,,,,,,,,,,
,,,,,,,,,,,,a,1.079365,Incorrect,,,,,,t5.png,t2.png,3,0.0000131,20,female,2020-09-22_11h50.52.111,torte-2b,2020.1.3,MacIntel,60,13364,,,,,0,31,31,51,1,,,,,,,,,,,,,,,,,,,,,,,,,,,,,,,,,,,,,,,,,,,,,,,,,,,,,,,
,,,,,,,,,,,,a,1.11723,Correct!,,,,,,t3.png,t4.png,1,0.909,20,female,2020-09-22_11h50.52.111,torte-2b,2020.1.3,MacIntel,60,13364,,,,,0,32,32,89,1,,,,,,,,,,,,,,,,,,,,,,,,,,,,,,,,,,,,,,,,,,,,,,,,,,,,,,,
,,,,,,,,,,,,a,1.27843,Incorrect,,,,,,t4.png,t1.png,3,0.0000131,20,female,2020-09-22_11h50.52.111,torte-2b,2020.1.3,MacIntel,60,13364,,,,,0,33,33,13,1,,,,,,,,,,,,,,,,,,,,,,,,,,,,,,,,,,,,,,,,,,,,,,,,,,,,,,,
,,,,,,,,,,,,a,1.986015,Correct!,,,,,,t2.png,t2.png,0,0.98115,20,female,2020-09-22_11h50.52.111,torte-2b,2020.1.3,MacIntel,60,13364,,,,,0,34,34,57,1,,,,,,,,,,,,,,,,,,,,,,,,,,,,,,,,,,,,,,,,,,,,,,,,,,,,,,,
,,,,,,,,,,,,a,1.11067,Incorrect,,,,,,t5.png,t3.png,2,0.056466,20,female,2020-09-22_11h50.52.111,torte-2b,2020.1.3,MacIntel,60,13364,,,,,0,35,35,56,1,,,,,,,,,,,,,,,,,,,,,,,,,,,,,,,,,,,,,,,,,,,,,,,,,,,,,,,
,,,,,,,,,,,,l,0.96496,Incorrect,,,,,,t2.png,t2.png,0,0.98115,20,female,2020-09-22_11h50.52.111,torte-2b,2020.1.3,MacIntel,60,13364,,,,,0,36,36,2,1,,,,,,,,,,,,,,,,,,,,,,,,,,,,,,,,,,,,,,,,,,,,,,,,,,,,,,,
,,,,,,,,,,,,a,0.41157,Correct!,,,,,,t2.png,t3.png,1,0.90855,20,female,2020-09-22_11h50.52.111,torte-2b,2020.1.3,MacIntel,60,13364,,,,,0,37,37,65,1,,,,,,,,,,,,,,,,,,,,,,,,,,,,,,,,,,,,,,,,,,,,,,,,,,,,,,,
,,,,,,,,,,,,a,0.58293,Incorrect,,,,,,t1.png,t5.png,4,9.55E-11,20,female,2020-09-22_11h50.52.111,torte-2b,2020.1.3,MacIntel,60,13364,,,,,0,38,38,16,1,,,,,,,,,,,,,,,,,,,,,,,,,,,,,,,,,,,,,,,,,,,,,,,,,,,,,,,
,,,,,,,,,,,,l,0.356825,Incorrect,,,,,,t2.png,t2.png,0,0.981,20,female,2020-09-22_11h50.52.111,torte-2b,2020.1.3,MacIntel,60,13364,,,,,0,39,39,101,1,,,,,,,,,,,,,,,,,,,,,,,,,,,,,,,,,,,,,,,,,,,,,,,,,,,,,,,
,,,,,,,,,,,,a,1.935055,Correct!,,,,,,t2.png,t1.png,1,0.90025,20,female,2020-09-22_11h50.52.111,torte-2b,2020.1.3,MacIntel,60,13364,,,,,0,40,40,4,1,,,,,,,,,,,,,,,,,,,,,,,,,,,,,,,,,,,,,,,,,,,,,,,,,,,,,,,
,,,,,,,,,,,,a,1.752315,Incorrect,,,,,,t3.png,t2.png,1,0.90855,20,female,2020-09-22_11h50.52.111,torte-2b,2020.1.3,MacIntel,60,13364,,,,,0,41,41,97,1,,,,,,,,,,,,,,,,,,,,,,,,,,,,,,,,,,,,,,,,,,,,,,,,,,,,,,,
,,,,,,,,,,,,,,Too slow :(,,,,,,t1.png,t3.png,2,0.056466,20,female,2020-09-22_11h50.52.111,torte-2b,2020.1.3,MacIntel,60,13364,,,,,0,42,42,87,1,,,,,,,,,,,,,,,,,,,,,,,,,,,,,,,,,,,,,,,,,,,,,,,,,,,,,,,
,,,,,,,,,,,,l,2.06737,Incorrect,,,,,,t1.png,t2.png,1,0.90025,20,female,2020-09-22_11h50.52.111,torte-2b,2020.1.3,MacIntel,60,13364,,,,,0,43,43,105,1,,,,,,,,,,,,,,,,,,,,,,,,,,,,,,,,,,,,,,,,,,,,,,,,,,,,,,,
,,,,,,,,,,,,a,1.05485,Correct!,,,,,,t4.png,t3.png,1,0.909,20,female,2020-09-22_11h50.52.111,torte-2b,2020.1.3,MacIntel,60,13364,,,,,0,44,44,20,1,,,,,,,,,,,,,,,,,,,,,,,,,,,,,,,,,,,,,,,,,,,,,,,,,,,,,,,
,,,,,,,,,,,,,,Too slow :(,,,,,,t5.png,t5.png,0,0.97829,20,female,2020-09-22_11h50.52.111,torte-2b,2020.1.3,MacIntel,60,13364,,,,,0,45,45,94,1,,,,,,,,,,,,,,,,,,,,,,,,,,,,,,,,,,,,,,,,,,,,,,,,,,,,,,,
,,,,,,,,,,,,,,Too slow :(,,,,,,t4.png,t1.png,3,0.0000131,20,female,2020-09-22_11h50.52.111,torte-2b,2020.1.3,MacIntel,60,13364,,,,,0,46,46,93,1,,,,,,,,,,,,,,,,,,,,,,,,,,,,,,,,,,,,,,,,,,,,,,,,,,,,,,,
,,,,,,,,,,,,a,1.801065,Correct!,,,,,,t5.png,t5.png,0,0.978,20,female,2020-09-22_11h50.52.111,torte-2b,2020.1.3,MacIntel,60,13364,,,,,0,47,47,117,1,,,,,,,,,,,,,,,,,,,,,,,,,,,,,,,,,,,,,,,,,,,,,,,,,,,,,,,
,,,,,,,,,,,,l,0.610285,Correct!,,,,,,t2.png,t5.png,3,0.0000131,20,female,2020-09-22_11h50.52.111,torte-2b,2020.1.3,MacIntel,60,13364,,,,,0,48,48,8,1,,,,,,,,,,,,,,,,,,,,,,,,,,,,,,,,,,,,,,,,,,,,,,,,,,,,,,,
,,,,,,,,,,,,l,0.948405,Correct!,,,,,,t2.png,t5.png,3,0.0000131,20,female,2020-09-22_11h50.52.111,torte-2b,2020.1.3,MacIntel,60,13364,,,,,0,49,49,40,1,,,,,,,,,,,,,,,,,,,,,,,,,,,,,,,,,,,,,,,,,,,,,,,,,,,,,,,
,,,,,,,,,,,,l,1.517845,Incorrect,,,,,,t4.png,t4.png,0,0.98115,20,female,2020-09-22_11h50.52.111,torte-2b,2020.1.3,MacIntel,60,13364,,,,,0,50,50,52,1,,,,,,,,,,,,,,,,,,,,,,,,,,,,,,,,,,,,,,,,,,,,,,,,,,,,,,,
,,,,,,,,,,,,a,1.213955,Correct!,,,,,,t5.png,t4.png,1,0.90025,20,female,2020-09-22_11h50.52.111,torte-2b,2020.1.3,MacIntel,60,13364,,,,,0,51,51,27,1,,,,,,,,,,,,,,,,,,,,,,,,,,,,,,,,,,,,,,,,,,,,,,,,,,,,,,,
,,,,,,,,,,,,l,0.954305,Incorrect,,,,,,t4.png,t4.png,0,0.98115,20,female,2020-09-22_11h50.52.111,torte-2b,2020.1.3,MacIntel,60,13364,,,,,0,52,52,79,1,,,,,,,,,,,,,,,,,,,,,,,,,,,,,,,,,,,,,,,,,,,,,,,,,,,,,,,
,,,,,,,,,,,,,,Too slow :(,,,,,,t4.png,t5.png,1,0.90025,20,female,2020-09-22_11h50.52.111,torte-2b,2020.1.3,MacIntel,60,13364,,,,,0,53,53,47,1,,,,,,,,,,,,,,,,,,,,,,,,,,,,,,,,,,,,,,,,,,,,,,,,,,,,,,,
,,,,,,,,,,,,l,1.09948,Correct!,,,,,,t1.png,t2.png,1,0.90025,20,female,2020-09-22_11h50.52.111,torte-2b,2020.1.3,MacIntel,60,13364,,,,,0,54,54,112,1,,,,,,,,,,,,,,,,,,,,,,,,,,,,,,,,,,,,,,,,,,,,,,,,,,,,,,,
,,,,,,,,,,,,,,Too slow :(,,,,,,t4.png,t2.png,2,0.0591,20,female,2020-09-22_11h50.52.111,torte-2b,2020.1.3,MacIntel,60,13364,,,,,0,55,55,36,1,,,,,,,,,,,,,,,,,,,,,,,,,,,,,,,,,,,,,,,,,,,,,,,,,,,,,,,
,,,,,,,,,,,,a,1.47642,Incorrect,,,,,,t3.png,t1.png,2,0.056466,20,female,2020-09-22_11h50.52.111,torte-2b,2020.1.3,MacIntel,60,13364,,,,,0,56,56,0,1,,,,,,,,,,,,,,,,,,,,,,,,,,,,,,,,,,,,,,,,,,,,,,,,,,,,,,,
,,,,,,,,,,,,l,1.11702,Correct!,,,,,,t1.png,t5.png,4,9.55E-11,20,female,2020-09-22_11h50.52.111,torte-2b,2020.1.3,MacIntel,60,13364,,,,,0,57,57,41,1,,,,,,,,,,,,,,,,,,,,,,,,,,,,,,,,,,,,,,,,,,,,,,,,,,,,,,,
,,,,,,,,,,,,a,1.183235,Incorrect,,,,,,t4.png,t1.png,3,0.0000131,20,female,2020-09-22_11h50.52.111,torte-2b,2020.1.3,MacIntel,60,13364,,,,,0,58,58,48,1,,,,,,,,,,,,,,,,,,,,,,,,,,,,,,,,,,,,,,,,,,,,,,,,,,,,,,,
,,,,,,,,,,,,l,1.28226,Incorrect,,,,,,t4.png,t4.png,0,0.98115,20,female,2020-09-22_11h50.52.111,torte-2b,2020.1.3,MacIntel,60,13364,,,,,0,59,59,90,1,,,,,,,,,,,,,,,,,,,,,,,,,,,,,,,,,,,,,,,,,,,,,,,,,,,,,,,
,,,,,,,,,,,,l,2.113065,Incorrect,,,,,,t2.png,t2.png,0,0.98115,20,female,2020-09-22_11h50.52.111,torte-2b,2020.1.3,MacIntel,60,13364,,,,,0,60,60,59,1,,,,,,,,,,,,,,,,,,,,,,,,,,,,,,,,,,,,,,,,,,,,,,,,,,,,,,,
,,,,,,,,,,,,l,1.28282,Incorrect,,,,,,t1.png,t2.png,1,0.9,20,female,2020-09-22_11h50.52.111,torte-2b,2020.1.3,MacIntel,60,13364,,,,,0,61,61,1,1,,,,,,,,,,,,,,,,,,,,,,,,,,,,,,,,,,,,,,,,,,,,,,,,,,,,,,,
,,,,,,,,,,,,a,1.234,Incorrect,,,,,,t5.png,t1.png,4,9.55E-11,20,female,2020-09-22_11h50.52.111,torte-2b,2020.1.3,MacIntel,60,13364,,,,,0,62,62,22,1,,,,,,,,,,,,,,,,,,,,,,,,,,,,,,,,,,,,,,,,,,,,,,,,,,,,,,,
,,,,,,,,,,,,a,0.445815,Incorrect,,,,,,t2.png,t4.png,2,0.059078,20,female,2020-09-22_11h50.52.111,torte-2b,2020.1.3,MacIntel,60,13364,,,,,0,63,63,11,1,,,,,,,,,,,,,,,,,,,,,,,,,,,,,,,,,,,,,,,,,,,,,,,,,,,,,,,
,,,,,,,,,,,,l,0.61885,Correct!,,,,,,t4.png,t2.png,2,0.059078,20,female,2020-09-22_11h50.52.111,torte-2b,2020.1.3,MacIntel,60,13364,,,,,0,64,64,86,1,,,,,,,,,,,,,,,,,,,,,,,,,,,,,,,,,,,,,,,,,,,,,,,,,,,,,,,
,,,,,,,,,,,,a,0.25632,Incorrect,,,,,,t2.png,t4.png,2,0.059078,20,female,2020-09-22_11h50.52.111,torte-2b,2020.1.3,MacIntel,60,13364,,,,,0,65,65,24,1,,,,,,,,,,,,,,,,,,,,,,,,,,,,,,,,,,,,,,,,,,,,,,,,,,,,,,,
,,,,,,,,,,,,l,0.500575,Incorrect,,,,,,t5.png,t5.png,0,0.97829,20,female,2020-09-22_11h50.52.111,torte-2b,2020.1.3,MacIntel,60,13364,,,,,0,66,66,25,1,,,,,,,,,,,,,,,,,,,,,,,,,,,,,,,,,,,,,,,,,,,,,,,,,,,,,,,
,,,,,,,,,,,,l,0.828785,Correct!,,,,,,t3.png,t5.png,2,0.0565,20,female,2020-09-22_11h50.52.111,torte-2b,2020.1.3,MacIntel,60,13364,,,,,0,67,67,83,1,,,,,,,,,,,,,,,,,,,,,,,,,,,,,,,,,,,,,,,,,,,,,,,,,,,,,,,
,,,,,,,,,,,,a,1.178185,Incorrect,,,,,,t5.png,t3.png,2,0.056466,20,female,2020-09-22_11h50.52.111,torte-2b,2020.1.3,MacIntel,60,13364,,,,,0,68,68,108,1,,,,,,,,,,,,,,,,,,,,,,,,,,,,,,,,,,,,,,,,,,,,,,,,,,,,,,,
,,,,,,,,,,,,l,0.81852,Correct!,,,,,,t1.png,t4.png,3,0.0000131,20,female,2020-09-22_11h50.52.111,torte-2b,2020.1.3,MacIntel,60,13364,,,,,0,69,69,107,1,,,,,,,,,,,,,,,,,,,,,,,,,,,,,,,,,,,,,,,,,,,,,,,,,,,,,,,
,,,,,,,,,,,,l,1.21929,Incorrect,,,,,,t4.png,t5.png,1,0.9,20,female,2020-09-22_11h50.52.111,torte-2b,2020.1.3,MacIntel,60,13364,,,,,0,70,70,115,1,,,,,,,,,,,,,,,,,,,,,,,,,,,,,,,,,,,,,,,,,,,,,,,,,,,,,,,
,,,,,,,,,,,,a,1.11732,Incorrect,,,,,,t5.png,t1.png,4,9.55E-11,20,female,2020-09-22_11h50.52.111,torte-2b,2020.1.3,MacIntel,60,13364,,,,,0,71,71,43,1,,,,,,,,,,,,,,,,,,,,,,,,,,,,,,,,,,,,,,,,,,,,,,,,,,,,,,,
,,,,,,,,,,,,l,1.345975,Incorrect,,,,,,t4.png,t3.png,1,0.909,20,female,2020-09-22_11h50.52.111,torte-2b,2020.1.3,MacIntel,60,13364,,,,,0,72,72,46,1,,,,,,,,,,,,,,,,,,,,,,,,,,,,,,,,,,,,,,,,,,,,,,,,,,,,,,,
,,,,,,,,,,,,a,1.123455,Correct!,,,,,,t4.png,t3.png,1,0.90855,20,female,2020-09-22_11h50.52.111,torte-2b,2020.1.3,MacIntel,60,13364,,,,,0,73,73,35,1,,,,,,,,,,,,,,,,,,,,,,,,,,,,,,,,,,,,,,,,,,,,,,,,,,,,,,,
,,,,,,,,,,,,a,1.222445,Correct!,,,,,,t5.png,t5.png,0,0.97829,20,female,2020-09-22_11h50.52.111,torte-2b,2020.1.3,MacIntel,60,13364,,,,,0,74,74,73,1,,,,,,,,,,,,,,,,,,,,,,,,,,,,,,,,,,,,,,,,,,,,,,,,,,,,,,,
,,,,,,,,,,,,a,1.47975,Incorrect,,,,,,t4.png,t2.png,2,0.059078,20,female,2020-09-22_11h50.52.111,torte-2b,2020.1.3,MacIntel,60,13364,,,,,0,75,75,110,1,,,,,,,,,,,,,,,,,,,,,,,,,,,,,,,,,,,,,,,,,,,,,,,,,,,,,,,
,,,,,,,,,,,,l,0.667035,Correct!,,,,,,t1.png,t3.png,2,0.056466,20,female,2020-09-22_11h50.52.111,torte-2b,2020.1.3,MacIntel,60,13364,,,,,0,76,76,69,1,,,,,,,,,,,,,,,,,,,,,,,,,,,,,,,,,,,,,,,,,,,,,,,,,,,,,,,
,,,,,,,,,,,,l,0.81425,Correct!,,,,,,t3.png,t1.png,2,0.056466,20,female,2020-09-22_11h50.52.111,torte-2b,2020.1.3,MacIntel,60,13364,,,,,0,77,77,64,1,,,,,,,,,,,,,,,,,,,,,,,,,,,,,,,,,,,,,,,,,,,,,,,,,,,,,,,
,,,,,,,,,,,,l,1.28667,Correct!,,,,,,t2.png,t4.png,2,0.059078,20,female,2020-09-22_11h50.52.111,torte-2b,2020.1.3,MacIntel,60,13364,,,,,0,78,78,37,1,,,,,,,,,,,,,,,,,,,,,,,,,,,,,,,,,,,,,,,,,,,,,,,,,,,,,,,
,,,,,,,,,,,,l,1.088275,Correct!,,,,,,t1.png,t5.png,4,9.55E-11,20,female,2020-09-22_11h50.52.111,torte-2b,2020.1.3,MacIntel,60,13364,,,,,0,79,79,85,1,,,,,,,,,,,,,,,,,,,,,,,,,,,,,,,,,,,,,,,,,,,,,,,,,,,,,,,
,,,,,,,,,,,,l,0.9058,Incorrect,,,,,,t2.png,t2.png,0,0.98115,20,female,2020-09-22_11h50.52.111,torte-2b,2020.1.3,MacIntel,60,13364,,,,,0,80,80,7,1,,,,,,,,,,,,,,,,,,,,,,,,,,,,,,,,,,,,,,,,,,,,,,,,,,,,,,,
,,,,,,,,,,,,l,1.383465,Correct!,,,,,,t3.png,t1.png,2,0.056466,20,female,2020-09-22_11h50.52.111,torte-2b,2020.1.3,MacIntel,60,13364,,,,,0,81,81,32,1,,,,,,,,,,,,,,,,,,,,,,,,,,,,,,,,,,,,,,,,,,,,,,,,,,,,,,,
,,,,,,,,,,,,l,1.58442,Incorrect,,,,,,t3.png,t4.png,1,0.90855,20,female,2020-09-22_11h50.52.111,torte-2b,2020.1.3,MacIntel,60,13364,,,,,0,82,82,84,1,,,,,,,,,,,,,,,,,,,,,,,,,,,,,,,,,,,,,,,,,,,,,,,,,,,,,,,
,,,,,,,,,,,,a,0.567975,Incorrect,,,,,,t1.png,t5.png,4,9.55E-11,20,female,2020-09-22_11h50.52.111,torte-2b,2020.1.3,MacIntel,60,13364,,,,,0,83,83,55,1,,,,,,,,,,,,,,,,,,,,,,,,,,,,,,,,,,,,,,,,,,,,,,,,,,,,,,,
,,,,,,,,,,,,a,0.56481,Correct!,,,,,,t5.png,t4.png,1,0.9,20,female,2020-09-22_11h50.52.111,torte-2b,2020.1.3,MacIntel,60,13364,,,,,0,84,84,76,1,,,,,,,,,,,,,,,,,,,,,,,,,,,,,,,,,,,,,,,,,,,,,,,,,,,,,,,
,,,,,,,,,,,,a,0.36636,Incorrect,,,,,,t1.png,t4.png,3,0.0000131,20,female,2020-09-22_11h50.52.111,torte-2b,2020.1.3,MacIntel,60,13364,,,,,0,85,85,50,1,,,,,,,,,,,,,,,,,,,,,,,,,,,,,,,,,,,,,,,,,,,,,,,,,,,,,,,
,,,,,,,,,,,,l,0.00101,Incorrect,,,,,,t3.png,t4.png,1,0.90855,20,female,2020-09-22_11h50.52.111,torte-2b,2020.1.3,MacIntel,60,13364,,,,,0,86,86,96,1,,,,,,,,,,,,,,,,,,,,,,,,,,,,,,,,,,,,,,,,,,,,,,,,,,,,,,,
,,,,,,,,,,,,l,0.854455,Correct!,,,,,,t1.png,t3.png,2,0.056466,20,female,2020-09-22_11h50.52.111,torte-2b,2020.1.3,MacIntel,60,13364,,,,,0,87,87,99,1,,,,,,,,,,,,,,,,,,,,,,,,,,,,,,,,,,,,,,,,,,,,,,,,,,,,,,,
,,,,,,,,,,,,a,0.77291,Correct!,,,,,,t3.png,t2.png,1,0.90855,20,female,2020-09-22_11h50.52.111,torte-2b,2020.1.3,MacIntel,60,13364,,,,,0,88,88,53,1,,,,,,,,,,,,,,,,,,,,,,,,,,,,,,,,,,,,,,,,,,,,,,,,,,,,,,,
,,,,,,,,,,,,a,1.09155,Correct!,,,,,,t4.png,t3.png,1,0.90855,20,female,2020-09-22_11h50.52.111,torte-2b,2020.1.3,MacIntel,60,13364,,,,,0,89,89,75,1,,,,,,,,,,,,,,,,,,,,,,,,,,,,,,,,,,,,,,,,,,,,,,,,,,,,,,,
,,,,,,,,,,,,l,1.901595,Incorrect,,,,,,t3.png,t2.png,1,0.90855,20,female,2020-09-22_11h50.52.111,torte-2b,2020.1.3,MacIntel,60,13364,,,,,0,90,90,18,1,,,,,,,,,,,,,,,,,,,,,,,,,,,,,,,,,,,,,,,,,,,,,,,,,,,,,,,
,,,,,,,,,,,,a,0.73824,Incorrect,,,,,,t2.png,t1.png,1,0.90025,20,female,2020-09-22_11h50.52.111,torte-2b,2020.1.3,MacIntel,60,13364,,,,,0,91,91,62,1,,,,,,,,,,,,,,,,,,,,,,,,,,,,,,,,,,,,,,,,,,,,,,,,,,,,,,,
,,,,,,,,,,,,l,0.81845,Correct!,,,,,,t1.png,t3.png,2,0.056466,20,female,2020-09-22_11h50.52.111,torte-2b,2020.1.3,MacIntel,60,13364,,,,,0,92,92,60,1,,,,,,,,,,,,,,,,,,,,,,,,,,,,,,,,,,,,,,,,,,,,,,,,,,,,,,,
,,,,,,,,,,,,l,0.74804,Incorrect,,,,,,t2.png,t3.png,1,0.90855,20,female,2020-09-22_11h50.52.111,torte-2b,2020.1.3,MacIntel,60,13364,,,,,0,93,93,10,1,,,,,,,,,,,,,,,,,,,,,,,,,,,,,,,,,,,,,,,,,,,,,,,,,,,,,,,
,,,,,,,,,,,,l,1.8172,Incorrect,,,,,,t3.png,t4.png,1,0.909,20,female,2020-09-22_11h50.52.111,torte-2b,2020.1.3,MacIntel,60,13364,,,,,0,94,94,106,1,,,,,,,,,,,,,,,,,,,,,,,,,,,,,,,,,,,,,,,,,,,,,,,,,,,,,,,
,,,,,,,,,,,,a,1.218935,Incorrect,,,,,,t5.png,t2.png,3,0.0000131,20,female,2020-09-22_11h50.52.111,torte-2b,2020.1.3,MacIntel,60,13364,,,,,0,95,95,119,1,,,,,,,,,,,,,,,,,,,,,,,,,,,,,,,,,,,,,,,,,,,,,,,,,,,,,,,
,,,,,,,,,,,,l,0.99415,Correct!,,,,,,t3.png,t2.png,1,0.909,20,female,2020-09-22_11h50.52.111,torte-2b,2020.1.3,MacIntel,60,13364,,,,,0,96,96,23,1,,,,,,,,,,,,,,,,,,,,,,,,,,,,,,,,,,,,,,,,,,,,,,,,,,,,,,,
,,,,,,,,,,,,l,0.968385,Incorrect,,,,,,t2.png,t3.png,1,0.90855,20,female,2020-09-22_11h50.52.111,torte-2b,2020.1.3,MacIntel,60,13364,,,,,0,97,97,68,1,,,,,,,,,,,,,,,,,,,,,,,,,,,,,,,,,,,,,,,,,,,,,,,,,,,,,,,
,,,,,,,,,,,,l,1.184155,Correct!,,,,,,t2.png,t4.png,2,0.0591,20,female,2020-09-22_11h50.52.111,torte-2b,2020.1.3,MacIntel,60,13364,,,,,0,98,98,15,1,,,,,,,,,,,,,,,,,,,,,,,,,,,,,,,,,,,,,,,,,,,,,,,,,,,,,,,
,,,,,,,,,,,,a,0.86567,Incorrect,,,,,,t3.png,t1.png,2,0.056466,20,female,2020-09-22_11h50.52.111,torte-2b,2020.1.3,MacIntel,60,13364,,,,,0,99,99,29,1,,,,,,,,,,,,,,,,,,,,,,,,,,,,,,,,,,,,,,,,,,,,,,,,,,,,,,,
,,,,,,,,,,,,a,2.032755,Correct!,,,,,,t4.png,t2.png,2,0.059078,20,female,2020-09-22_11h50.52.111,torte-2b,2020.1.3,MacIntel,60,13364,,,,,0,100,100,88,1,,,,,,,,,,,,,,,,,,,,,,,,,,,,,,,,,,,,,,,,,,,,,,,,,,,,,,,
,,,,,,,,,,,,a,0.9012,Incorrect,,,,,,t5.png,t2.png,3,0.0000131,20,female,2020-09-22_11h50.52.111,torte-2b,2020.1.3,MacIntel,60,13364,,,,,0,101,101,116,1,,,,,,,,,,,,,,,,,,,,,,,,,,,,,,,,,,,,,,,,,,,,,,,,,,,,,,,
,,,,,,,,,,,,l,1.56713,Incorrect,,,,,,t2.png,t3.png,1,0.90855,20,female,2020-09-22_11h50.52.111,torte-2b,2020.1.3,MacIntel,60,13364,,,,,0,102,102,111,1,,,,,,,,,,,,,,,,,,,,,,,,,,,,,,,,,,,,,,,,,,,,,,,,,,,,,,,
,,,,,,,,,,,,l,1.54964,Incorrect,,,,,,t1.png,t2.png,1,0.90025,20,female,2020-09-22_11h50.52.111,torte-2b,2020.1.3,MacIntel,60,13364,,,,,0,103,103,33,1,,,,,,,,,,,,,,,,,,,,,,,,,,,,,,,,,,,,,,,,,,,,,,,,,,,,,,,
,,,,,,,,,,,,a,1.4182,Correct!,,,,,,t5.png,t4.png,1,0.90025,20,female,2020-09-22_11h50.52.111,torte-2b,2020.1.3,MacIntel,60,13364,,,,,0,104,104,34,1,,,,,,,,,,,,,,,,,,,,,,,,,,,,,,,,,,,,,,,,,,,,,,,,,,,,,,,
,,,,,,,,,,,,,,Too slow :(,,,,,,t5.png,t2.png,3,0.0000131,20,female,2020-09-22_11h50.52.111,torte-2b,2020.1.3,MacIntel,60,13364,,,,,0,105,105,91,1,,,,,,,,,,,,,,,,,,,,,,,,,,,,,,,,,,,,,,,,,,,,,,,,,,,,,,,
,,,,,,,,,,,,l,0.83316,Correct!,,,,,,t1.png,t4.png,3,0.0000131,20,female,2020-09-22_11h50.52.111,torte-2b,2020.1.3,MacIntel,60,13364,,,,,0,106,106,81,1,,,,,,,,,,,,,,,,,,,,,,,,,,,,,,,,,,,,,,,,,,,,,,,,,,,,,,,
,,,,,,,,,,,,l,0.74199,Incorrect,,,,,,t1.png,t1.png,0,0.97829,20,female,2020-09-22_11h50.52.111,torte-2b,2020.1.3,MacIntel,60,13364,,,,,0,107,107,67,1,,,,,,,,,,,,,,,,,,,,,,,,,,,,,,,,,,,,,,,,,,,,,,,,,,,,,,,
,,,,,,,,,,,,l,1.602725,Correct!,,,,,,t3.png,t5.png,2,0.056466,20,female,2020-09-22_11h50.52.111,torte-2b,2020.1.3,MacIntel,60,13364,,,,,0,108,108,6,1,,,,,,,,,,,,,,,,,,,,,,,,,,,,,,,,,,,,,,,,,,,,,,,,,,,,,,,
,,,,,,,,,,,,l,0.73184,Incorrect,,,,,,t2.png,t3.png,1,0.909,20,female,2020-09-22_11h50.52.111,torte-2b,2020.1.3,MacIntel,60,13364,,,,,0,109,109,74,1,,,,,,,,,,,,,,,,,,,,,,,,,,,,,,,,,,,,,,,,,,,,,,,,,,,,,,,
,,,,,,,,,,,,l,1.249665,Incorrect,,,,,,t4.png,t5.png,1,0.90025,20,female,2020-09-22_11h50.52.111,torte-2b,2020.1.3,MacIntel,60,13364,,,,,0,110,110,113,1,,,,,,,,,,,,,,,,,,,,,,,,,,,,,,,,,,,,,,,,,,,,,,,,,,,,,,,
,,,,,,,,,,,,l,0.84447,Incorrect,,,,,,t4.png,t5.png,1,0.90025,20,female,2020-09-22_11h50.52.111,torte-2b,2020.1.3,MacIntel,60,13364,,,,,0,111,111,58,1,,,,,,,,,,,,,,,,,,,,,,,,,,,,,,,,,,,,,,,,,,,,,,,,,,,,,,,
,,,,,,,,,,,,l,0.398615,Correct!,,,,,,t5.png,t1.png,4,9.55E-11,20,female,2020-09-22_11h50.52.111,torte-2b,2020.1.3,MacIntel,60,13364,,,,,0,112,112,100,1,,,,,,,,,,,,,,,,,,,,,,,,,,,,,,,,,,,,,,,,,,,,,,,,,,,,,,,
,,,,,,,,,,,,a,0.629465,Correct!,,,,,,t4.png,t3.png,1,0.90855,20,female,2020-09-22_11h50.52.111,torte-2b,2020.1.3,MacIntel,60,13364,,,,,0,113,113,45,1,,,,,,,,,,,,,,,,,,,,,,,,,,,,,,,,,,,,,,,,,,,,,,,,,,,,,,,
,,,,,,,,,,,,a,1.33712,Incorrect,,,,,,t4.png,t1.png,3,0.0000131,20,female,2020-09-22_11h50.52.111,torte-2b,2020.1.3,MacIntel,60,13364,,,,,0,114,114,42,1,,,,,,,,,,,,,,,,,,,,,,,,,,,,,,,,,,,,,,,,,,,,,,,,,,,,,,,
,,,,,,,,,,,,a,1.228065,Incorrect,,,,,,t5.png,t4.png,1,0.90025,20,female,2020-09-22_11h50.52.111,torte-2b,2020.1.3,MacIntel,60,13364,,,,,0,115,115,26,1,,,,,,,,,,,,,,,,,,,,,,,,,,,,,,,,,,,,,,,,,,,,,,,,,,,,,,,
,,,,,,,,,,,,a,1.62711,Incorrect,,,,,,t4.png,t5.png,1,0.90025,20,female,2020-09-22_11h50.52.111,torte-2b,2020.1.3,MacIntel,60,13364,,,,,0,116,116,103,1,,,,,,,,,,,,,,,,,,,,,,,,,,,,,,,,,,,,,,,,,,,,,,,,,,,,,,,
,,,,,,,,,,,,l,0.79527,Incorrect,,,,,,t1.png,t1.png,0,0.97829,20,female,2020-09-22_11h50.52.111,torte-2b,2020.1.3,MacIntel,60,13364,,,,,0,117,117,78,1,,,,,,,,,,,,,,,,,,,,,,,,,,,,,,,,,,,,,,,,,,,,,,,,,,,,,,,
,,,,,,,,,,,,a,0.728845,Incorrect,,,,,,t4.png,t1.png,3,0.0000131,20,female,2020-09-22_11h50.52.111,torte-2b,2020.1.3,MacIntel,60,13364,,,,,0,118,118,61,1,,,,,,,,,,,,,,,,,,,,,,,,,,,,,,,,,,,,,,,,,,,,,,,,,,,,,,,
,,,,,,,,,,,,a,0.986675,Incorrect,,,,,,t4.png,t2.png,2,0.059078,20,female,2020-09-22_11h50.52.111,torte-2b,2020.1.3,MacIntel,60,13364,,,,,0,119,119,109,1,,,,,,,,,,,,,,,,,,,,,,,,,,,,,,,,,,,,,,,,,,,,,,,,,,,,,,,
,,,,,,,,,,,,,,,,,,,,,,,,20,female,2020-09-22_11h50.52.111,torte-2b,2020.1.3,MacIntel,60,13364,space,1.32952,,,,,,,,m,562.67655,,0,0,0,0,1,6,,,,,,,,,,,,,,,,,,,,,,,,,,,,,,,,,,,,,,,,,,,,,,
,,,,,,,,,,,,,,,,,,,,,,,,20,female,2020-09-22_11h50.52.111,torte-2b,2020.1.3,MacIntel,60,13364,,,,,,,,,,,,,0,1,1,1,1,7,,,,,,,,,,,,,,,,,,,,,,,,,,,,,,,,,,,,,,,,,,,,,,
,,,,,,,,,,,,,,,,,,,,,,,,20,female,2020-09-22_11h50.52.111,torte-2b,2020.1.3,MacIntel,60,13364,,,,,,,,,,,,,0,2,2,2,1,6,,,,,,,,,,,,,,,,,,,,,,,,,,,,,,,,,,,,,,,,,,,,,,
,,,,,,,,,,,,,,,,,,,,,,,,20,female,2020-09-22_11h50.52.111,torte-2b,2020.1.3,MacIntel,60,13364,,,,,,,,,,,,,0,3,3,3,1,7,,,,,,,,,,,,,,,,,,,,,,,,,,,,,,,,,,,,,,,,,,,,,,
,,,,,,,,,,,,,,,,,,,,,,,,20,female,2020-09-22_11h50.52.111,torte-2b,2020.1.3,MacIntel,60,13364,,,,,,,,,,,,,0,4,4,4,1,5,,,,,,,,,,,,,,,,,,,,,,,,,,,,,,,,,,,,,,,,,,,,,,
,,,,,,,,,,,,,,,,,,,,,,,,20,female,2020-09-22_11h50.52.111,torte-2b,2020.1.3,MacIntel,60,13364,,,,,,,,,,,,,0,5,5,5,1,7,,,,,,,,,,,,,,,,,,,,,,,,,,,,,,,,,,,,,,,,,,,,,,
,,,,,,,,,,,,,,,,,,,,,,,,20,female,2020-09-22_11h50.52.111,torte-2b,2020.1.3,MacIntel,60,13364,,,,,,,,,,,,,0,6,6,6,1,2,,,,,,,,,,,,,,,,,,,,,,,,,,,,,,,,,,,,,,,,,,,,,,
,,,,,,,,,,,,,,,,,,,,,,,,20,female,2020-09-22_11h50.52.111,torte-2b,2020.1.3,MacIntel,60,13364,,,,,,,,,,,,,0,7,7,7,1,4,,,,,,,,,,,,,,,,,,,,,,,,,,,,,,,,,,,,,,,,,,,,,,
,,,,,,,,,,,,,,,,,,,,,,,,20,female,2020-09-22_11h50.52.111,torte-2b,2020.1.3,MacIntel,60,13364,,,,,,,,,,,,,0,8,8,8,1,7,,,,,,,,,,,,,,,,,,,,,,,,,,,,,,,,,,,,,,,,,,,,,,
,,,,,,,,,,,,,,,,,,,,,,,,20,female,2020-09-22_11h50.52.111,torte-2b,2020.1.3,MacIntel,60,13364,,,,,,,,,,,,,0,9,9,9,1,4,,,,,,,,,,,,,,,,,,,,,,,,,,,,,,,,,,,,,,,,,,,,,,
,,,,,,,,,,,,,,,,,,,,,,,,20,female,2020-09-22_11h50.52.111,torte-2b,2020.1.3,MacIntel,60,13364,,,,,,,,,,,,,0,10,10,10,1,7,,,,,,,,,,,,,,,,,,,,,,,,,,,,,,,,,,,,,,,,,,,,,,
,,,,,,,,,,,,,,,,,,,,,,,,20,female,2020-09-22_11h50.52.111,torte-2b,2020.1.3,MacIntel,60,13364,,,,,,,,,,,,,0,11,11,11,1,7,,,,,,,,,,,,,,,,,,,,,,,,,,,,,,,,,,,,,,,,,,,,,,
,,,,,,,,,,,,,,,,,,,,,,,,20,female,2020-09-22_11h50.52.111,torte-2b,2020.1.3,MacIntel,60,13364,,,,,,,,,,,,,0,12,12,12,1,7,,,,,,,,,,,,,,,,,,,,,,,,,,,,,,,,,,,,,,,,,,,,,,
,,,,,,,,,,,,,,,,,,,,,,,,20,female,2020-09-22_11h50.52.111,torte-2b,2020.1.3,MacIntel,60,13364,,,,,,,,,,,,,0,13,13,13,1,4,,,,,,,,,,,,,,,,,,,,,,,,,,,,,,,,,,,,,,,,,,,,,,
,,,,,,,,,,,,,,,,,,,,,,,,20,female,2020-09-22_11h50.52.111,torte-2b,2020.1.3,MacIntel,60,13364,,,,,,,,,,,,,0,14,14,14,1,6,,,,,,,,,,,,,,,,,,,,,,,,,,,,,,,,,,,,,,,,,,,,,,
,,,,,,,,,,,,,,,,,,,,,,,,20,female,2020-09-22_11h50.52.111,torte-2b,2020.1.3,MacIntel,60,13364,,,,,,,,,,,,,0,15,15,15,1,4,,,,,,,,,,,,,,,,,,,,,,,,,,,,,,,,,,,,,,,,,,,,,,
,,,,,,,,,,,,,,,,,,,,,,,,20,female,2020-09-22_11h50.52.111,torte-2b,2020.1.3,MacIntel,60,13364,,,,,,,,,,,,,0,16,16,16,1,6,,,,,,,,,,,,,,,,,,,,,,,,,,,,,,,,,,,,,,,,,,,,,,
,,,,,,,,,,,,,,,,,,,,,,,,20,female,2020-09-22_11h50.52.111,torte-2b,2020.1.3,MacIntel,60,13364,,,,,,,,,,,,,0,17,17,17,1,7,,,,,,,,,,,,,,,,,,,,,,,,,,,,,,,,,,,,,,,,,,,,,,
,,,,,,,,,,,,,,,,,,,,,,,,20,female,2020-09-22_11h50.52.111,torte-2b,2020.1.3,MacIntel,60,13364,,,,,,,,,,,,,0,18,18,18,1,6,,,,,,,,,,,,,,,,,,,,,,,,,,,,,,,,,,,,,,,,,,,,,,
,,,,,,,,,,,,,,,,,,,,,,,,20,female,2020-09-22_11h50.52.111,torte-2b,2020.1.3,MacIntel,60,13364,,,,,,,,,,,,,0,19,19,19,1,7,,,,,,,,,,,,,,,,,,,,,,,,,,,,,,,,,,,,,,,,,,,,,,
,,,,,,,,,,,,,,,,,,,,,,,,20,female,2020-09-22_11h50.52.111,torte-2b,2020.1.3,MacIntel,60,13364,,,,,,,,,,,,,0,20,20,20,1,5,,,,,,,,,,,,,,,,,,,,,,,,,,,,,,,,,,,,,,,,,,,,,,
,,,,,,,,,,,,,,,,,,,,,,,,20,female,2020-09-22_11h50.52.111,torte-2b,2020.1.3,MacIntel,60,13364,,,,,,,,,,,,,0,21,21,21,1,1,,,,,,,,,,,,,,,,,,,,,,,,,,,,,,,,,,,,,,,,,,,,,,
,,,,,,,,,,,,,,,,,,,,,,,,20,female,2020-09-22_11h50.52.111,torte-2b,2020.1.3,MacIntel,60,13364,,,,,,,,,,,,,0,22,22,22,1,6,,,,,,,,,,,,,,,,,,,,,,,,,,,,,,,,,,,,,,,,,,,,,,
,,,,,,,,,,,,,,,,,,,,,,,,20,female,2020-09-22_11h50.52.111,torte-2b,2020.1.3,MacIntel,60,13364,,,,,,,,,,,,,0,23,23,23,1,1,,,,,,,,,,,,,,,,,,,,,,,,,,,,,,,,,,,,,,,,,,,,,,
,,,,,,,,,,,,,,,,,,,,,,,,20,female,2020-09-22_11h50.52.111,torte-2b,2020.1.3,MacIntel,60,13364,,,,,,,,,,,,,0,24,24,24,1,5,,,,,,,,,,,,,,,,,,,,,,,,,,,,,,,,,,,,,,,,,,,,,,
,,,,,,,,,,,,,,,,,,,,,,,,20,female,2020-09-22_11h50.52.111,torte-2b,2020.1.3,MacIntel,60,13364,,,,,,,,,,,,,0,25,25,25,1,6,,,,,,,,,,,,,,,,,,,,,,,,,,,,,,,,,,,,,,,,,,,,,,
,,,,,,,,,,,,,,,,,,,,,,,,20,female,2020-09-22_11h50.52.111,torte-2b,2020.1.3,MacIntel,60,13364,,,,,,,,,,,,,0,26,26,26,1,6,,,,,,,,,,,,,,,,,,,,,,,,,,,,,,,,,,,,,,,,,,,,,,
,,,,,,,,,,,,,,,,,,,,,,,,20,female,2020-09-22_11h50.52.111,torte-2b,2020.1.3,MacIntel,60,13364,,,,,,,,,,,,,0,27,27,27,1,6,,,,,,,,,,,,,,,,,,,,,,,,,,,,,,,,,,,,,,,,,,,,,,
,,,,,,,,,,,,,,,,,,,,,,,,20,female,2020-09-22_11h50.52.111,torte-2b,2020.1.3,MacIntel,60,13364,,,,,,,,,,,,,0,28,28,28,1,5,,,,,,,,,,,,,,,,,,,,,,,,,,,,,,,,,,,,,,,,,,,,,,
,,,,,,,,,,,,,,,,,,,,,,,,20,female,2020-09-22_11h50.52.111,torte-2b,2020.1.3,MacIntel,60,13364,,,,,,,,,,,,,0,29,29,29,1,2,,,,,,,,,,,,,,,,,,,,,,,,,,,,,,,,,,,,,,,,,,,,,,
,,,,,,,,,,,,,,,,,,,,,,,,20,female,2020-09-22_11h50.52.111,torte-2b,2020.1.3,MacIntel,60,13364,,,,,,,,,,,,,0,30,30,30,1,5,,,,,,,,,,,,,,,,,,,,,,,,,,,,,,,,,,,,,,,,,,,,,,
,,,,,,,,,,,,,,,,,,,,,,,,20,female,2020-09-22_11h50.52.111,torte-2b,2020.1.3,MacIntel,60,13364,,,,,,,,,,,,,0,31,31,31,1,2,,,,,,,,,,,,,,,,,,,,,,,,,,,,,,,,,,,,,,,,,,,,,,
,,,,,,,,,,,,,,,,,,,,,,,,20,female,2020-09-22_11h50.52.111,torte-2b,2020.1.3,MacIntel,60,13364,,,,,,,,,,,,,0,32,32,32,1,5,,,,,,,,,,,,,,,,,,,,,,,,,,,,,,,,,,,,,,,,,,,,,,
,,,,,,,,,,,,,,,,,,,,,,,,20,female,2020-09-22_11h50.52.111,torte-2b,2020.1.3,MacIntel,60,13364,,,,,,,,,,,,,0,33,33,33,1,1,,,,,,,,,,,,,,,,,,,,,,,,,,,,,,,,,,,,,,,,,,,,,,
,,,,,,,,,,,,,,,,,,,,,,,,20,female,2020-09-22_11h50.52.111,torte-2b,2020.1.3,MacIntel,60,13364,,,,,,,,,,,,,0,34,34,34,1,1,,,,,,,,,,,,,,,,,,,,,,,,,,,,,,,,,,,,,,,,,,,,,,
,,,,,,,,,,,,,,,,,,,,,,,,20,female,2020-09-22_11h50.52.111,torte-2b,2020.1.3,MacIntel,60,13364,,,,,,,,,,,,,,,,,,2,0,0,0,0,1,,,,,,,,,,,,,,,,,,,,,,,,,,,,,,,,,,,,,,,,,
,,,,,,,,,,,,,,,,,,,,,,,,20,female,2020-09-22_11h50.52.111,torte-2b,2020.1.3,MacIntel,60,13364,,,,,,,,,,,,,,,,,,2,0,1,1,1,1,,,,,,,,,,,,,,,,,,,,,,,,,,,,,,,,,,,,,,,,,
,,,,,,,,,,,,,,,,,,,,,,,,20,female,2020-09-22_11h50.52.111,torte-2b,2020.1.3,MacIntel,60,13364,,,,,,,,,,,,,,,,,,6,0,2,2,2,1,,,,,,,,,,,,,,,,,,,,,,,,,,,,,,,,,,,,,,,,,
,,,,,,,,,,,,,,,,,,,,,,,,20,female,2020-09-22_11h50.52.111,torte-2b,2020.1.3,MacIntel,60,13364,,,,,,,,,,,,,,,,,,2,0,3,3,3,1,,,,,,,,,,,,,,,,,,,,,,,,,,,,,,,,,,,,,,,,,
,,,,,,,,,,,,,,,,,,,,,,,,20,female,2020-09-22_11h50.52.111,torte-2b,2020.1.3,MacIntel,60,13364,,,,,,,,,,,,,,,,,,6,0,4,4,4,1,,,,,,,,,,,,,,,,,,,,,,,,,,,,,,,,,,,,,,,,,
,,,,,,,,,,,,,,,,,,,,,,,,20,female,2020-09-22_11h50.52.111,torte-2b,2020.1.3,MacIntel,60,13364,,,,,,,,,,,,,,,,,,2,0,5,5,5,1,,,,,,,,,,,,,,,,,,,,,,,,,,,,,,,,,,,,,,,,,
,,,,,,,,,,,,,,,,,,,,,,,,20,female,2020-09-22_11h50.52.111,torte-2b,2020.1.3,MacIntel,60,13364,,,,,,,,,,,,,,,,,,7,0,6,6,6,1,,,,,,,,,,,,,,,,,,,,,,,,,,,,,,,,,,,,,,,,,
,,,,,,,,,,,,,,,,,,,,,,,,20,female,2020-09-22_11h50.52.111,torte-2b,2020.1.3,MacIntel,60,13364,,,,,,,,,,,,,,,,,,2,0,7,7,7,1,,,,,,,,,,,,,,,,,,,,,,,,,,,,,,,,,,,,,,,,,
,,,,,,,,,,,,,,,,,,,,,,,,20,female,2020-09-22_11h50.52.111,torte-2b,2020.1.3,MacIntel,60,13364,,,,,,,,,,,,,,,,,,7,0,8,8,8,1,,,,,,,,,,,,,,,,,,,,,,,,,,,,,,,,,,,,,,,,,
,,,,,,,,,,,,,,,,,,,,,,,,20,female,2020-09-22_11h50.52.111,torte-2b,2020.1.3,MacIntel,60,13364,,,,,,,,,,,,,,,,,,2,0,9,9,9,1,,,,,,,,,,,,,,,,,,,,,,,,,,,,,,,,,,,,,,,,,
,,,,,,,,,,,,,,,,,,,,,,,,20,female,2020-09-22_11h50.52.111,torte-2b,2020.1.3,MacIntel,60,13364,,,,,,,,,,,,,,,,,,5,0,10,10,10,1,,,,,,,,,,,,,,,,,,,,,,,,,,,,,,,,,,,,,,,,,
,,,,,,,,,,,,,,,,,,,,,,,,20,female,2020-09-22_11h50.52.111,torte-2b,2020.1.3,MacIntel,60,13364,,,,,,,,,,,,,,,,,,4,0,11,11,11,1,,,,,,,,,,,,,,,,,,,,,,,,,,,,,,,,,,,,,,,,,
,,,,,,,,,,,,,,,,,,,,,,,,20,female,2020-09-22_11h50.52.111,torte-2b,2020.1.3,MacIntel,60,13364,,,,,,,,,,,,,,,,,,5,0,12,12,12,1,,,,,,,,,,,,,,,,,,,,,,,,,,,,,,,,,,,,,,,,,
,,,,,,,,,,,,,,,,,,,,,,,,20,female,2020-09-22_11h50.52.111,torte-2b,2020.1.3,MacIntel,60,13364,,,,,,,,,,,,,,,,,,6,0,13,13,13,1,,,,,,,,,,,,,,,,,,,,,,,,,,,,,,,,,,,,,,,,,
,,,,,,,,,,,,,,,,,,,,,,,,20,female,2020-09-22_11h50.52.111,torte-2b,2020.1.3,MacIntel,60,13364,,,,,,,,,,,,,,,,,,5,0,14,14,14,1,,,,,,,,,,,,,,,,,,,,,,,,,,,,,,,,,,,,,,,,,
,,,,,,,,,,,,,,,,,,,,,,,,20,female,2020-09-22_11h50.52.111,torte-2b,2020.1.3,MacIntel,60,13364,,,,,,,,,,,,,,,,,,4,0,15,15,15,1,,,,,,,,,,,,,,,,,,,,,,,,,,,,,,,,,,,,,,,,,
,,,,,,,,,,,,,,,,,,,,,,,,20,female,2020-09-22_11h50.52.111,torte-2b,2020.1.3,MacIntel,60,13364,,,,,,,,,,,,,,,,,,5,0,16,16,16,1,,,,,,,,,,,,,,,,,,,,,,,,,,,,,,,,,,,,,,,,,
,,,,,,,,,,,,,,,,,,,,,,,,20,female,2020-09-22_11h50.52.111,torte-2b,2020.1.3,MacIntel,60,13364,,,,,,,,,,,,,,,,,,3,0,17,17,17,1,,,,,,,,,,,,,,,,,,,,,,,,,,,,,,,,,,,,,,,,,
,,,,,,,,,,,,,,,,,,,,,,,,20,female,2020-09-22_11h50.52.111,torte-2b,2020.1.3,MacIntel,60,13364,,,,,,,,,,,,,,,,,,6,0,18,18,18,1,,,,,,,,,,,,,,,,,,,,,,,,,,,,,,,,,,,,,,,,,
,,,,,,,,,,,,,,,,,,,,,,,,20,female,2020-09-22_11h50.52.111,torte-2b,2020.1.3,MacIntel,60,13364,,,,,,,,,,,,,,,,,,6,0,19,19,19,1,,,,,,,,,,,,,,,,,,,,,,,,,,,,,,,,,,,,,,,,,
,,,,,,,,,,,,,,,,,,,,,,,,20,female,2020-09-22_11h50.52.111,torte-2b,2020.1.3,MacIntel,60,13364,,,,,,,,,,,,,,,,,,6,0,20,20,20,1,,,,,,,,,,,,,,,,,,,,,,,,,,,,,,,,,,,,,,,,,
,,,,,,,,,,,,,,,,,,,,,,,,20,female,2020-09-22_11h50.52.111,torte-2b,2020.1.3,MacIntel,60,13364,,,,,,,,,,,,,,,,,,4,0,21,21,21,1,,,,,,,,,,,,,,,,,,,,,,,,,,,,,,,,,,,,,,,,,
,,,,,,,,,,,,,,,,,,,,,,,,20,female,2020-09-22_11h50.52.111,torte-2b,2020.1.3,MacIntel,60,13364,,,,,,,,,,,,,,,,,,6,0,22,22,22,1,,,,,,,,,,,,,,,,,,,,,,,,,,,,,,,,,,,,,,,,,
,,,,,,,,,,,,,,,,,,,,,,,,20,female,2020-09-22_11h50.52.111,torte-2b,2020.1.3,MacIntel,60,13364,,,,,,,,,,,,,,,,,,4,0,23,23,23,1,,,,,,,,,,,,,,,,,,,,,,,,,,,,,,,,,,,,,,,,,
,,,,,,,,,,,,,,,,,,,,,,,,20,female,2020-09-22_11h50.52.111,torte-2b,2020.1.3,MacIntel,60,13364,,,,,,,,,,,,,,,,,,6,0,24,24,24,1,,,,,,,,,,,,,,,,,,,,,,,,,,,,,,,,,,,,,,,,,
,,,,,,,,,,,,,,,,,,,,,,,,20,female,2020-09-22_11h50.52.111,torte-2b,2020.1.3,MacIntel,60,13364,,,,,,,,,,,,,,,,,,6,0,25,25,25,1,,,,,,,,,,,,,,,,,,,,,,,,,,,,,,,,,,,,,,,,,
,,,,,,,,,,,,,,,,,,,,,,,,20,female,2020-09-22_11h50.52.111,torte-2b,2020.1.3,MacIntel,60,13364,,,,,,,,,,,,,,,,,,7,0,26,26,26,1,,,,,,,,,,,,,,,,,,,,,,,,,,,,,,,,,,,,,,,,,
,,,,,,,,,,,,,,,,,,,,,,,,20,female,2020-09-22_11h50.52.111,torte-2b,2020.1.3,MacIntel,60,13364,,,,,,,,,,,,,,,,,,1,0,27,27,27,1,,,,,,,,,,,,,,,,,,,,,,,,,,,,,,,,,,,,,,,,,
,,,,,,,,,,,,,,,,,,,,,,,,20,female,2020-09-22_11h50.52.111,torte-2b,2020.1.3,MacIntel,60,13364,,,,,,,,,,,,,,,,,,7,0,28,28,28,1,,,,,,,,,,,,,,,,,,,,,,,,,,,,,,,,,,,,,,,,,
,,,,,,,,,,,,,,,,,,,,,,,,20,female,2020-09-22_11h50.52.111,torte-2b,2020.1.3,MacIntel,60,13364,,,,,,,,,,,,,,,,,,4,0,29,29,29,1,,,,,,,,,,,,,,,,,,,,,,,,,,,,,,,,,,,,,,,,,
,,,,,,,,,,,,,,,,,,,,,,,,20,female,2020-09-22_11h50.52.111,torte-2b,2020.1.3,MacIntel,60,13364,,,,,,,,,,,,,,,,,,7,0,30,30,30,1,,,,,,,,,,,,,,,,,,,,,,,,,,,,,,,,,,,,,,,,,
,,,,,,,,,,,,,,,,,,,,,,,,20,female,2020-09-22_11h50.52.111,torte-2b,2020.1.3,MacIntel,60,13364,,,,,,,,,,,,,,,,,,3,0,31,31,31,1,,,,,,,,,,,,,,,,,,,,,,,,,,,,,,,,,,,,,,,,,
,,,,,,,,,,,,,,,,,,,,,,,,20,female,2020-09-22_11h50.52.111,torte-2b,2020.1.3,MacIntel,60,13364,,,,,,,,,,,,,,,,,,2,0,32,32,32,1,,,,,,,,,,,,,,,,,,,,,,,,,,,,,,,,,,,,,,,,,
,,,,,,,,,,,,,,,,,,,,,,,,20,female,2020-09-22_11h50.52.111,torte-2b,2020.1.3,MacIntel,60,13364,,,,,,,,,,,,,,,,,,6,0,33,33,33,1,,,,,,,,,,,,,,,,,,,,,,,,,,,,,,,,,,,,,,,,,
,,,,,,,,,,,,,,,,,,,,,,,,20,female,2020-09-22_11h50.52.111,torte-2b,2020.1.3,MacIntel,60,13364,,,,,,,,,,,,,,,,,,3,0,34,34,34,1,,,,,,,,,,,,,,,,,,,,,,,,,,,,,,,,,,,,,,,,,
,,,,,,,,,,,,,,,,,,,,,,,,20,female,2020-09-22_11h50.52.111,torte-2b,2020.1.3,MacIntel,60,13364,,,,,,,,,,,,,,,,,,7,,,,,,0,0,0,0,1,,,,,,,,,,,,,,,,,,,,,,,,,,,,,,,,,,,,
,,,,,,,,,,,,,,,,,,,,,,,,20,female,2020-09-22_11h50.52.111,torte-2b,2020.1.3,MacIntel,60,13364,,,,,,,,,,,,,,,,,,5,,,,,,0,1,1,1,1,,,,,,,,,,,,,,,,,,,,,,,,,,,,,,,,,,,,
,,,,,,,,,,,,,,,,,,,,,,,,20,female,2020-09-22_11h50.52.111,torte-2b,2020.1.3,MacIntel,60,13364,,,,,,,,,,,,,,,,,,4,,,,,,0,2,2,2,1,,,,,,,,,,,,,,,,,,,,,,,,,,,,,,,,,,,,
,,,,,,,,,,,,,,,,,,,,,,,,20,female,2020-09-22_11h50.52.111,torte-2b,2020.1.3,MacIntel,60,13364,,,,,,,,,,,,,,,,,,5,,,,,,0,3,3,3,1,,,,,,,,,,,,,,,,,,,,,,,,,,,,,,,,,,,,
,,,,,,,,,,,,,,,,,,,,,,,,20,female,2020-09-22_11h50.52.111,torte-2b,2020.1.3,MacIntel,60,13364,,,,,,,,,,,,,,,,,,6,,,,,,0,4,4,4,1,,,,,,,,,,,,,,,,,,,,,,,,,,,,,,,,,,,,
,,,,,,,,,,,,,,,,,,,,,,,,20,female,2020-09-22_11h50.52.111,torte-2b,2020.1.3,MacIntel,60,13364,,,,,,,,,,,,,,,,,,5,,,,,,0,5,5,5,1,,,,,,,,,,,,,,,,,,,,,,,,,,,,,,,,,,,,
,,,,,,,,,,,,,,,,,,,,,,,,20,female,2020-09-22_11h50.52.111,torte-2b,2020.1.3,MacIntel,60,13364,,,,,,,,,,,,,,,,,,3,,,,,,0,6,6,6,1,,,,,,,,,,,,,,,,,,,,,,,,,,,,,,,,,,,,
,,,,,,,,,,,,,,,,,,,,,,,,20,female,2020-09-22_11h50.52.111,torte-2b,2020.1.3,MacIntel,60,13364,,,,,,,,,,,,,,,,,,4,,,,,,0,7,7,7,1,,,,,,,,,,,,,,,,,,,,,,,,,,,,,,,,,,,,
,,,,,,,,,,,,,,,,,,,,,,,,20,female,2020-09-22_11h50.52.111,torte-2b,2020.1.3,MacIntel,60,13364,,,,,,,,,,,,,,,,,,3,,,,,,0,8,8,8,1,,,,,,,,,,,,,,,,,,,,,,,,,,,,,,,,,,,,
,,,,,,,,,,,,,,,,,,,,,,,,20,female,2020-09-22_11h50.52.111,torte-2b,2020.1.3,MacIntel,60,13364,,,,,,,,,,,,,,,,,,1,,,,,,0,9,9,9,1,,,,,,,,,,,,,,,,,,,,,,,,,,,,,,,,,,,,
,,,,,,,,,,,,,,,,,,,,,,,,20,female,2020-09-22_11h50.52.111,torte-2b,2020.1.3,MacIntel,60,13364,,,,,,,,,,,,,,,,,,2,,,,,,0,10,10,10,1,,,,,,,,,,,,,,,,,,,,,,,,,,,,,,,,,,,,
,,,,,,,,,,,,,,,,,,,,,,,,20,female,2020-09-22_11h50.52.111,torte-2b,2020.1.3,MacIntel,60,13364,,,,,,,,,,,,,,,,,,1,,,,,,0,11,11,11,1,,,,,,,,,,,,,,,,,,,,,,,,,,,,,,,,,,,,
,,,,,,,,,,,,,,,,,,,,,,,,20,female,2020-09-22_11h50.52.111,torte-2b,2020.1.3,MacIntel,60,13364,,,,,,,,,,,,,,,,,,2,,,,,,0,12,12,12,1,,,,,,,,,,,,,,,,,,,,,,,,,,,,,,,,,,,,
,,,,,,,,,,,,,,,,,,,,,,,,20,female,2020-09-22_11h50.52.111,torte-2b,2020.1.3,MacIntel,60,13364,,,,,,,,,,,,,,,,,,1,,,,,,0,13,13,13,1,,,,,,,,,,,,,,,,,,,,,,,,,,,,,,,,,,,,
,,,,,,,,,,,,,,,,,,,,,,,,20,female,2020-09-22_11h50.52.111,torte-2b,2020.1.3,MacIntel,60,13364,,,,,,,,,,,,,,,,,,3,,,,,,0,14,14,14,1,,,,,,,,,,,,,,,,,,,,,,,,,,,,,,,,,,,,
,,,,,,,,,,,,,,,,,,,,,,,,20,female,2020-09-22_11h50.52.111,torte-2b,2020.1.3,MacIntel,60,13364,,,,,,,,,,,,,,,,,,1,,,,,,0,15,15,15,1,,,,,,,,,,,,,,,,,,,,,,,,,,,,,,,,,,,,
,,,,,,,,,,,,,,,,,,,,,,,,20,female,2020-09-22_11h50.52.111,torte-2b,2020.1.3,MacIntel,60,13364,,,,,,,,,,,,,,,,,,7,,,,,,0,16,16,16,1,,,,,,,,,,,,,,,,,,,,,,,,,,,,,,,,,,,,
,,,,,,,,,,,,,,,,,,,,,,,,20,female,2020-09-22_11h50.52.111,torte-2b,2020.1.3,MacIntel,60,13364,,,,,,,,,,,,,,,,,,7,,,,,,0,17,17,17,1,,,,,,,,,,,,,,,,,,,,,,,,,,,,,,,,,,,,
,,,,,,,,,,,,,,,,,,,,,,,,20,female,2020-09-22_11h50.52.111,torte-2b,2020.1.3,MacIntel,60,13364,,,,,,,,,,,,,,,,,,4,,,,,,0,18,18,18,1,,,,,,,,,,,,,,,,,,,,,,,,,,,,,,,,,,,,
,,,,,,,,,,,,,,,,,,,,,,,,20,female,2020-09-22_11h50.52.111,torte-2b,2020.1.3,MacIntel,60,13364,,,,,,,,,,,,,,,,,,7,,,,,,0,19,19,19,1,,,,,,,,,,,,,,,,,,,,,,,,,,,,,,,,,,,,
,,,,,,,,,,,,,,,,,,,,,,,,20,female,2020-09-22_11h50.52.111,torte-2b,2020.1.3,MacIntel,60,13364,,,,,,,,,,,,,,,,,,3,,,,,,0,20,20,20,1,,,,,,,,,,,,,,,,,,,,,,,,,,,,,,,,,,,,
,,,,,,,,,,,,,,,,,,,,,,,,20,female,2020-09-22_11h50.52.111,torte-2b,2020.1.3,MacIntel,60,13364,,,,,,,,,,,,,,,,,,7,,,,,,0,21,21,21,1,,,,,,,,,,,,,,,,,,,,,,,,,,,,,,,,,,,,
,,,,,,,,,,,,,,,,,,,,,,,,20,female,2020-09-22_11h50.52.111,torte-2b,2020.1.3,MacIntel,60,13364,,,,,,,,,,,,,,,,,,3,,,,,,0,22,22,22,1,,,,,,,,,,,,,,,,,,,,,,,,,,,,,,,,,,,,
,,,,,,,,,,,,,,,,,,,,,,,,20,female,2020-09-22_11h50.52.111,torte-2b,2020.1.3,MacIntel,60,13364,,,,,,,,,,,,,,,,,,1,,,,,,0,23,23,23,1,,,,,,,,,,,,,,,,,,,,,,,,,,,,,,,,,,,,
,,,,,,,,,,,,,,,,,,,,,,,,20,female,2020-09-22_11h50.52.111,torte-2b,2020.1.3,MacIntel,60,13364,,,,,,,,,,,,,,,,,,6,,,,,,0,24,24,24,1,,,,,,,,,,,,,,,,,,,,,,,,,,,,,,,,,,,,
,,,,,,,,,,,,,,,,,,,,,,,,20,female,2020-09-22_11h50.52.111,torte-2b,2020.1.3,MacIntel,60,13364,,,,,,,,,,,,,,,,,,3,,,,,,0,25,25,25,1,,,,,,,,,,,,,,,,,,,,,,,,,,,,,,,,,,,,
,,,,,,,,,,,,,,,,,,,,,,,,20,female,2020-09-22_11h50.52.111,torte-2b,2020.1.3,MacIntel,60,13364,,,,,,,,,,,,,,,,,,2,,,,,,0,26,26,26,1,,,,,,,,,,,,,,,,,,,,,,,,,,,,,,,,,,,,
,,,,,,,,,,,,,,,,,,,,,,,,20,female,2020-09-22_11h50.52.111,torte-2b,2020.1.3,MacIntel,60,13364,,,,,,,,,,,,,,,,,,3,,,,,,0,27,27,27,1,,,,,,,,,,,,,,,,,,,,,,,,,,,,,,,,,,,,
,,,,,,,,,,,,,,,,,,,,,,,,20,female,2020-09-22_11h50.52.111,torte-2b,2020.1.3,MacIntel,60,13364,,,,,,,,,,,,,,,,,,1,,,,,,0,28,28,28,1,,,,,,,,,,,,,,,,,,,,,,,,,,,,,,,,,,,,
,,,,,,,,,,,,,,,,,,,,,,,,20,female,2020-09-22_11h50.52.111,torte-2b,2020.1.3,MacIntel,60,13364,,,,,,,,,,,,,,,,,,3,,,,,,0,29,29,29,1,,,,,,,,,,,,,,,,,,,,,,,,,,,,,,,,,,,,
,,,,,,,,,,,,,,,,,,,,,,,,20,female,2020-09-22_11h50.52.111,torte-2b,2020.1.3,MacIntel,60,13364,,,,,,,,,,,,,,,,,,1,,,,,,0,30,30,30,1,,,,,,,,,,,,,,,,,,,,,,,,,,,,,,,,,,,,
,,,,,,,,,,,,,,,,,,,,,,,,20,female,2020-09-22_11h50.52.111,torte-2b,2020.1.3,MacIntel,60,13364,,,,,,,,,,,,,,,,,,7,,,,,,0,31,31,31,1,,,,,,,,,,,,,,,,,,,,,,,,,,,,,,,,,,,,
,,,,,,,,,,,,,,,,,,,,,,,,20,female,2020-09-22_11h50.52.111,torte-2b,2020.1.3,MacIntel,60,13364,,,,,,,,,,,,,,,,,,5,,,,,,0,32,32,32,1,,,,,,,,,,,,,,,,,,,,,,,,,,,,,,,,,,,,
,,,,,,,,,,,,,,,,,,,,,,,,20,female,2020-09-22_11h50.52.111,torte-2b,2020.1.3,MacIntel,60,13364,,,,,,,,,,,,,,,,,,7,,,,,,0,33,33,33,1,,,,,,,,,,,,,,,,,,,,,,,,,,,,,,,,,,,,
,,,,,,,,,,,,,,,,,,,,,,,,20,female,2020-09-22_11h50.52.111,torte-2b,2020.1.3,MacIntel,60,13364,,,,,,,,,,,,,,,,,,2,,,,,,0,34,34,34,1,,,,,,,,,,,,,,,,,,,,,,,,,,,,,,,,,,,,
,,,,,,,,,,,,,,,,,,,,,,,,20,female,2020-09-22_11h50.52.111,torte-2b,2020.1.3,MacIntel,60,13364,,,,,,,,,,,,,,,,,,3,,,,,,,,,,,0,0,0,0,1,,,,,,,,,,,,,,,,,,,,,,,,,,,,,,,
,,,,,,,,,,,,,,,,,,,,,,,,20,female,2020-09-22_11h50.52.111,torte-2b,2020.1.3,MacIntel,60,13364,,,,,,,,,,,,,,,,,,7,,,,,,,,,,,0,1,1,1,1,,,,,,,,,,,,,,,,,,,,,,,,,,,,,,,
,,,,,,,,,,,,,,,,,,,,,,,,20,female,2020-09-22_11h50.52.111,torte-2b,2020.1.3,MacIntel,60,13364,,,,,,,,,,,,,,,,,,7,,,,,,,,,,,0,2,2,2,1,,,,,,,,,,,,,,,,,,,,,,,,,,,,,,,
,,,,,,,,,,,,,,,,,,,,,,,,20,female,2020-09-22_11h50.52.111,torte-2b,2020.1.3,MacIntel,60,13364,,,,,,,,,,,,,,,,,,4,,,,,,,,,,,0,3,3,3,1,,,,,,,,,,,,,,,,,,,,,,,,,,,,,,,
,,,,,,,,,,,,,,,,,,,,,,,,20,female,2020-09-22_11h50.52.111,torte-2b,2020.1.3,MacIntel,60,13364,,,,,,,,,,,,,,,,,,5,,,,,,,,,,,0,4,4,4,1,,,,,,,,,,,,,,,,,,,,,,,,,,,,,,,
,,,,,,,,,,,,,,,,,,,,,,,,20,female,2020-09-22_11h50.52.111,torte-2b,2020.1.3,MacIntel,60,13364,,,,,,,,,,,,,,,,,,4,,,,,,,,,,,0,5,5,5,1,,,,,,,,,,,,,,,,,,,,,,,,,,,,,,,
,,,,,,,,,,,,,,,,,,,,,,,,20,female,2020-09-22_11h50.52.111,torte-2b,2020.1.3,MacIntel,60,13364,,,,,,,,,,,,,,,,,,2,,,,,,,,,,,0,6,6,6,1,,,,,,,,,,,,,,,,,,,,,,,,,,,,,,,
,,,,,,,,,,,,,,,,,,,,,,,,20,female,2020-09-22_11h50.52.111,torte-2b,2020.1.3,MacIntel,60,13364,,,,,,,,,,,,,,,,,,4,,,,,,,,,,,0,7,7,7,1,,,,,,,,,,,,,,,,,,,,,,,,,,,,,,,
,,,,,,,,,,,,,,,,,,,,,,,,20,female,2020-09-22_11h50.52.111,torte-2b,2020.1.3,MacIntel,60,13364,,,,,,,,,,,,,,,,,,2,,,,,,,,,,,0,8,8,8,1,,,,,,,,,,,,,,,,,,,,,,,,,,,,,,,
,,,,,,,,,,,,,,,,,,,,,,,,20,female,2020-09-22_11h50.52.111,torte-2b,2020.1.3,MacIntel,60,13364,,,,,,,,,,,,,,,,,,2,,,,,,,,,,,0,9,9,9,1,,,,,,,,,,,,,,,,,,,,,,,,,,,,,,,
,,,,,,,,,,,,,,,,,,,,,,,,20,female,2020-09-22_11h50.52.111,torte-2b,2020.1.3,MacIntel,60,13364,,,,,,,,,,,,,,,,,,6,,,,,,,,,,,0,10,10,10,1,,,,,,,,,,,,,,,,,,,,,,,,,,,,,,,
,,,,,,,,,,,,,,,,,,,,,,,,20,female,2020-09-22_11h50.52.111,torte-2b,2020.1.3,MacIntel,60,13364,,,,,,,,,,,,,,,,,,2,,,,,,,,,,,0,11,11,11,1,,,,,,,,,,,,,,,,,,,,,,,,,,,,,,,
,,,,,,,,,,,,,,,,,,,,,,,,20,female,2020-09-22_11h50.52.111,torte-2b,2020.1.3,MacIntel,60,13364,,,,,,,,,,,,,,,,,,2,,,,,,,,,,,0,12,12,12,1,,,,,,,,,,,,,,,,,,,,,,,,,,,,,,,
,,,,,,,,,,,,,,,,,,,,,,,,20,female,2020-09-22_11h50.52.111,torte-2b,2020.1.3,MacIntel,60,13364,,,,,,,,,,,,,,,,,,2,,,,,,,,,,,0,13,13,13,1,,,,,,,,,,,,,,,,,,,,,,,,,,,,,,,
,,,,,,,,,,,,,,,,,,,,,,,,20,female,2020-09-22_11h50.52.111,torte-2b,2020.1.3,MacIntel,60,13364,,,,,,,,,,,,,,,,,,2,,,,,,,,,,,0,14,14,14,1,,,,,,,,,,,,,,,,,,,,,,,,,,,,,,,
,,,,,,,,,,,,,,,,,,,,,,,,20,female,2020-09-22_11h50.52.111,torte-2b,2020.1.3,MacIntel,60,13364,,,,,,,,,,,,,,,,,,4,,,,,,,,,,,0,15,15,15,1,,,,,,,,,,,,,,,,,,,,,,,,,,,,,,,
,,,,,,,,,,,,,,,,,,,,,,,,20,female,2020-09-22_11h50.52.111,torte-2b,2020.1.3,MacIntel,60,13364,,,,,,,,,,,,,,,,,,3,,,,,,,,,,,0,16,16,16,1,,,,,,,,,,,,,,,,,,,,,,,,,,,,,,,
,,,,,,,,,,,,,,,,,,,,,,,,20,female,2020-09-22_11h50.52.111,torte-2b,2020.1.3,MacIntel,60,13364,,,,,,,,,,,,,,,,,,7,,,,,,,,,,,0,17,17,17,1,,,,,,,,,,,,,,,,,,,,,,,,,,,,,,,
,,,,,,,,,,,,,,,,,,,,,,,,20,female,2020-09-22_11h50.52.111,torte-2b,2020.1.3,MacIntel,60,13364,,,,,,,,,,,,,,,,,,4,,,,,,,,,,,0,18,18,18,1,,,,,,,,,,,,,,,,,,,,,,,,,,,,,,,
,,,,,,,,,,,,,,,,,,,,,,,,20,female,2020-09-22_11h50.52.111,torte-2b,2020.1.3,MacIntel,60,13364,,,,,,,,,,,,,,,,,,7,,,,,,,,,,,0,19,19,19,1,,,,,,,,,,,,,,,,,,,,,,,,,,,,,,,
,,,,,,,,,,,,,,,,,,,,,,,,20,female,2020-09-22_11h50.52.111,torte-2b,2020.1.3,MacIntel,60,13364,,,,,,,,,,,,,,,,,,7,,,,,,,,,,,0,20,20,20,1,,,,,,,,,,,,,,,,,,,,,,,,,,,,,,,
,,,,,,,,,,,,,,,,,,,,,,,,20,female,2020-09-22_11h50.52.111,torte-2b,2020.1.3,MacIntel,60,13364,,,,,,,,,,,,,,,,,,7,,,,,,,,,,,0,21,21,21,1,,,,,,,,,,,,,,,,,,,,,,,,,,,,,,,
,,,,,,,,,,,,,,,,,,,,,,,,20,female,2020-09-22_11h50.52.111,torte-2b,2020.1.3,MacIntel,60,13364,,,,,,,,,,,,,,,,,,7,,,,,,,,,,,0,22,22,22,1,,,,,,,,,,,,,,,,,,,,,,,,,,,,,,,
,,,,,,,,,,,,,,,,,,,,,,,,20,female,2020-09-22_11h50.52.111,torte-2b,2020.1.3,MacIntel,60,13364,,,,,,,,,,,,,,,,,,1,,,,,,,,,,,0,23,23,23,1,,,,,,,,,,,,,,,,,,,,,,,,,,,,,,,
,,,,,,,,,,,,,,,,,,,,,,,,20,female,2020-09-22_11h50.52.111,torte-2b,2020.1.3,MacIntel,60,13364,,,,,,,,,,,,,,,,,,7,,,,,,,,,,,0,24,24,24,1,,,,,,,,,,,,,,,,,,,,,,,,,,,,,,,
,,,,,,,,,,,,,,,,,,,,,,,,20,female,2020-09-22_11h50.52.111,torte-2b,2020.1.3,MacIntel,60,13364,,,,,,,,,,,,,,,,,,1,,,,,,,,,,,0,25,25,25,1,,,,,,,,,,,,,,,,,,,,,,,,,,,,,,,
,,,,,,,,,,,,,,,,,,,,,,,,20,female,2020-09-22_11h50.52.111,torte-2b,2020.1.3,MacIntel,60,13364,,,,,,,,,,,,,,,,,,7,,,,,,,,,,,0,26,26,26,1,,,,,,,,,,,,,,,,,,,,,,,,,,,,,,,
,,,,,,,,,,,,,,,,,,,,,,,,20,female,2020-09-22_11h50.52.111,torte-2b,2020.1.3,MacIntel,60,13364,,,,,,,,,,,,,,,,,,2,,,,,,,,,,,0,27,27,27,1,,,,,,,,,,,,,,,,,,,,,,,,,,,,,,,
,,,,,,,,,,,,,,,,,,,,,,,,20,female,2020-09-22_11h50.52.111,torte-2b,2020.1.3,MacIntel,60,13364,,,,,,,,,,,,,,,,,,5,,,,,,,,,,,0,28,28,28,1,,,,,,,,,,,,,,,,,,,,,,,,,,,,,,,
,,,,,,,,,,,,,,,,,,,,,,,,20,female,2020-09-22_11h50.52.111,torte-2b,2020.1.3,MacIntel,60,13364,,,,,,,,,,,,,,,,,,5,,,,,,,,,,,0,29,29,29,1,,,,,,,,,,,,,,,,,,,,,,,,,,,,,,,
,,,,,,,,,,,,,,,,,,,,,,,,20,female,2020-09-22_11h50.52.111,torte-2b,2020.1.3,MacIntel,60,13364,,,,,,,,,,,,,,,,,,5,,,,,,,,,,,0,30,30,30,1,,,,,,,,,,,,,,,,,,,,,,,,,,,,,,,
,,,,,,,,,,,,,,,,,,,,,,,,20,female,2020-09-22_11h50.52.111,torte-2b,2020.1.3,MacIntel,60,13364,,,,,,,,,,,,,,,,,,1,,,,,,,,,,,0,31,31,31,1,,,,,,,,,,,,,,,,,,,,,,,,,,,,,,,
,,,,,,,,,,,,,,,,,,,,,,,,20,female,2020-09-22_11h50.52.111,torte-2b,2020.1.3,MacIntel,60,13364,,,,,,,,,,,,,,,,,,5,,,,,,,,,,,0,32,32,32,1,,,,,,,,,,,,,,,,,,,,,,,,,,,,,,,
,,,,,,,,,,,,,,,,,,,,,,,,20,female,2020-09-22_11h50.52.111,torte-2b,2020.1.3,MacIntel,60,13364,,,,,,,,,,,,,,,,,,3,,,,,,,,,,,0,33,33,33,1,,,,,,,,,,,,,,,,,,,,,,,,,,,,,,,
,,,,,,,,,,,,,,,,,,,,,,,,20,female,2020-09-22_11h50.52.111,torte-2b,2020.1.3,MacIntel,60,13364,,,,,,,,,,,,,,,,,,3,,,,,,,,,,,0,34,34,34,1,,,,,,,,,,,,,,,,,,,,,,,,,,,,,,,
,,,,,,,,,,,,a,2.35375,Incorrect,,,,,,t5.png,t3.png,2,0.056466,20,female,2020-09-22_11h50.52.111,torte-2b,2020.1.3,MacIntel,60,13364,space,26.317785,,,,,,,,,,,,,,,,,,,,,,,,,,,,,,,,space,5.73502,0,0,0,108,1,,,,,,,,,,,,,,,,,,,,,,,,
,,,,,,,,,,,,l,0.93442,Correct!,,,,,,t3.png,t5.png,2,0.0565,20,female,2020-09-22_11h50.52.111,torte-2b,2020.1.3,MacIntel,60,13364,,,,,,,,,,,,,,,,,,,,,,,,,,,,,,,,,,,,0,1,1,83,1,,,,,,,,,,,,,,,,,,,,,,,,
,,,,,,,,,,,,a,1.11279,Incorrect,,,,,,t4.png,t3.png,1,0.90855,20,female,2020-09-22_11h50.52.111,torte-2b,2020.1.3,MacIntel,60,13364,,,,,,,,,,,,,,,,,,,,,,,,,,,,,,,,,,,,0,2,2,35,1,,,,,,,,,,,,,,,,,,,,,,,,
,,,,,,,,,,,,l,1.315855,Correct!,,,,,,t1.png,t3.png,2,0.056466,20,female,2020-09-22_11h50.52.111,torte-2b,2020.1.3,MacIntel,60,13364,,,,,,,,,,,,,,,,,,,,,,,,,,,,,,,,,,,,0,3,3,87,1,,,,,,,,,,,,,,,,,,,,,,,,
,,,,,,,,,,,,l,1.45107,Correct!,,,,,,t3.png,t5.png,2,0.056466,20,female,2020-09-22_11h50.52.111,torte-2b,2020.1.3,MacIntel,60,13364,,,,,,,,,,,,,,,,,,,,,,,,,,,,,,,,,,,,0,4,4,44,1,,,,,,,,,,,,,,,,,,,,,,,,
,,,,,,,,,,,,l,0.737505,Correct!,,,,,,t3.png,t5.png,2,0.056466,20,female,2020-09-22_11h50.52.111,torte-2b,2020.1.3,MacIntel,60,13364,,,,,,,,,,,,,,,,,,,,,,,,,,,,,,,,,,,,0,5,5,14,1,,,,,,,,,,,,,,,,,,,,,,,,
,,,,,,,,,,,,l,1.45605,Correct!,,,,,,t3.png,t5.png,2,0.056466,20,female,2020-09-22_11h50.52.111,torte-2b,2020.1.3,MacIntel,60,13364,,,,,,,,,,,,,,,,,,,,,,,,,,,,,,,,,,,,0,6,6,6,1,,,,,,,,,,,,,,,,,,,,,,,,
,,,,,,,,,,,,a,0.93273,Correct!,,,,,,t1.png,t1.png,0,0.978,20,female,2020-09-22_11h50.52.111,torte-2b,2020.1.3,MacIntel,60,13364,,,,,,,,,,,,,,,,,,,,,,,,,,,,,,,,,,,,0,7,7,28,1,,,,,,,,,,,,,,,,,,,,,,,,
,,,,,,,,,,,,l,0.86815,Incorrect,,,,,,t1.png,t2.png,1,0.90025,20,female,2020-09-22_11h50.52.111,torte-2b,2020.1.3,MacIntel,60,13364,,,,,,,,,,,,,,,,,,,,,,,,,,,,,,,,,,,,0,8,8,112,1,,,,,,,,,,,,,,,,,,,,,,,,
,,,,,,,,,,,,l,1.144615,Correct!,,,,,,t1.png,t5.png,4,9.55E-11,20,female,2020-09-22_11h50.52.111,torte-2b,2020.1.3,MacIntel,60,13364,,,,,,,,,,,,,,,,,,,,,,,,,,,,,,,,,,,,0,9,9,41,1,,,,,,,,,,,,,,,,,,,,,,,,
,,,,,,,,,,,,a,0.50208,Incorrect,,,,,,t5.png,t1.png,4,9.55E-11,20,female,2020-09-22_11h50.52.111,torte-2b,2020.1.3,MacIntel,60,13364,,,,,,,,,,,,,,,,,,,,,,,,,,,,,,,,,,,,0,10,10,71,1,,,,,,,,,,,,,,,,,,,,,,,,
,,,,,,,,,,,,l,0.66708,Correct!,,,,,,t1.png,t3.png,2,0.056466,20,female,2020-09-22_11h50.52.111,torte-2b,2020.1.3,MacIntel,60,13364,,,,,,,,,,,,,,,,,,,,,,,,,,,,,,,,,,,,0,11,11,69,1,,,,,,,,,,,,,,,,,,,,,,,,
,,,,,,,,,,,,a,0.91841,Correct!,,,,,,t2.png,t1.png,1,0.90025,20,female,2020-09-22_11h50.52.111,torte-2b,2020.1.3,MacIntel,60,13364,,,,,,,,,,,,,,,,,,,,,,,,,,,,,,,,,,,,0,12,12,4,1,,,,,,,,,,,,,,,,,,,,,,,,
,,,,,,,,,,,,l,1.41358,Correct!,,,,,,t2.png,t5.png,3,0.0000131,20,female,2020-09-22_11h50.52.111,torte-2b,2020.1.3,MacIntel,60,13364,,,,,,,,,,,,,,,,,,,,,,,,,,,,,,,,,,,,0,13,13,95,1,,,,,,,,,,,,,,,,,,,,,,,,
,,,,,,,,,,,,a,1.483165,Incorrect,,,,,,t5.png,t3.png,2,0.056466,20,female,2020-09-22_11h50.52.111,torte-2b,2020.1.3,MacIntel,60,13364,,,,,,,,,,,,,,,,,,,,,,,,,,,,,,,,,,,,0,14,14,114,1,,,,,,,,,,,,,,,,,,,,,,,,
,,,,,,,,,,,,a,1.30181,Incorrect,,,,,,t5.png,t2.png,3,0.0000131,20,female,2020-09-22_11h50.52.111,torte-2b,2020.1.3,MacIntel,60,13364,,,,,,,,,,,,,,,,,,,,,,,,,,,,,,,,,,,,0,15,15,116,1,,,,,,,,,,,,,,,,,,,,,,,,
,,,,,,,,,,,,l,0.712105,Incorrect,,,,,,t4.png,t5.png,1,0.90025,20,female,2020-09-22_11h50.52.111,torte-2b,2020.1.3,MacIntel,60,13364,,,,,,,,,,,,,,,,,,,,,,,,,,,,,,,,,,,,0,16,16,47,1,,,,,,,,,,,,,,,,,,,,,,,,
,,,,,,,,,,,,a,0.63404,Incorrect,,,,,,t2.png,t2.png,0,0.98115,20,female,2020-09-22_11h50.52.111,torte-2b,2020.1.3,MacIntel,60,13364,,,,,,,,,,,,,,,,,,,,,,,,,,,,,,,,,,,,0,17,17,7,1,,,,,,,,,,,,,,,,,,,,,,,,
,,,,,,,,,,,,l,1.81265,Correct!,,,,,,t2.png,t5.png,3,0.0000131,20,female,2020-09-22_11h50.52.111,torte-2b,2020.1.3,MacIntel,60,13364,,,,,,,,,,,,,,,,,,,,,,,,,,,,,,,,,,,,0,18,18,40,1,,,,,,,,,,,,,,,,,,,,,,,,
,,,,,,,,,,,,a,0.74887,Incorrect,,,,,,t5.png,t2.png,3,0.0000131,20,female,2020-09-22_11h50.52.111,torte-2b,2020.1.3,MacIntel,60,13364,,,,,,,,,,,,,,,,,,,,,,,,,,,,,,,,,,,,0,19,19,98,1,,,,,,,,,,,,,,,,,,,,,,,,
,,,,,,,,,,,,,,Too slow :(,,,,,,t1.png,t3.png,2,0.056466,20,female,2020-09-22_11h50.52.111,torte-2b,2020.1.3,MacIntel,60,13364,,,,,,,,,,,,,,,,,,,,,,,,,,,,,,,,,,,,0,20,20,99,1,,,,,,,,,,,,,,,,,,,,,,,,
,,,,,,,,,,,,l,0.755205,Incorrect,,,,,,t2.png,t3.png,1,0.90855,20,female,2020-09-22_11h50.52.111,torte-2b,2020.1.3,MacIntel,60,13364,,,,,,,,,,,,,,,,,,,,,,,,,,,,,,,,,,,,0,21,21,10,1,,,,,,,,,,,,,,,,,,,,,,,,
,,,,,,,,,,,,a,1.354235,Correct!,,,,,,t2.png,t3.png,1,0.90855,20,female,2020-09-22_11h50.52.111,torte-2b,2020.1.3,MacIntel,60,13364,,,,,,,,,,,,,,,,,,,,,,,,,,,,,,,,,,,,0,22,22,68,1,,,,,,,,,,,,,,,,,,,,,,,,
,,,,,,,,,,,,l,2.347705,Incorrect,,,,,,t4.png,t3.png,1,0.909,20,female,2020-09-22_11h50.52.111,torte-2b,2020.1.3,MacIntel,60,13364,,,,,,,,,,,,,,,,,,,,,,,,,,,,,,,,,,,,0,23,23,46,1,,,,,,,,,,,,,,,,,,,,,,,,
,,,,,,,,,,,,a,0.61662,Correct!,,,,,,t3.png,t4.png,1,0.909,20,female,2020-09-22_11h50.52.111,torte-2b,2020.1.3,MacIntel,60,13364,,,,,,,,,,,,,,,,,,,,,,,,,,,,,,,,,,,,0,24,24,82,1,,,,,,,,,,,,,,,,,,,,,,,,
,,,,,,,,,,,,a,0.66215,Incorrect,,,,,,t3.png,t1.png,2,0.056466,20,female,2020-09-22_11h50.52.111,torte-2b,2020.1.3,MacIntel,60,13364,,,,,,,,,,,,,,,,,,,,,,,,,,,,,,,,,,,,0,25,25,64,1,,,,,,,,,,,,,,,,,,,,,,,,
,,,,,,,,,,,,l,0.91998,Incorrect,,,,,,t4.png,t4.png,0,0.98115,20,female,2020-09-22_11h50.52.111,torte-2b,2020.1.3,MacIntel,60,13364,,,,,,,,,,,,,,,,,,,,,,,,,,,,,,,,,,,,0,26,26,52,1,,,,,,,,,,,,,,,,,,,,,,,,
,,,,,,,,,,,,l,0.97116,Incorrect,,,,,,t2.png,t2.png,0,0.98115,20,female,2020-09-22_11h50.52.111,torte-2b,2020.1.3,MacIntel,60,13364,,,,,,,,,,,,,,,,,,,,,,,,,,,,,,,,,,,,0,27,27,57,1,,,,,,,,,,,,,,,,,,,,,,,,
,,,,,,,,,,,,a,0.65491,Correct!,,,,,,t3.png,t1.png,2,0.056466,20,female,2020-09-22_11h50.52.111,torte-2b,2020.1.3,MacIntel,60,13364,,,,,,,,,,,,,,,,,,,,,,,,,,,,,,,,,,,,0,28,28,29,1,,,,,,,,,,,,,,,,,,,,,,,,
,,,,,,,,,,,,a,1.56819,Correct!,,,,,,t4.png,t4.png,0,0.98115,20,female,2020-09-22_11h50.52.111,torte-2b,2020.1.3,MacIntel,60,13364,,,,,,,,,,,,,,,,,,,,,,,,,,,,,,,,,,,,0,29,29,79,1,,,,,,,,,,,,,,,,,,,,,,,,
,,,,,,,,,,,,l,0.89728,Incorrect,,,,,,t4.png,t4.png,0,0.98115,20,female,2020-09-22_11h50.52.111,torte-2b,2020.1.3,MacIntel,60,13364,,,,,,,,,,,,,,,,,,,,,,,,,,,,,,,,,,,,0,30,30,90,1,,,,,,,,,,,,,,,,,,,,,,,,
,,,,,,,,,,,,a,1.45466,Incorrect,,,,,,t3.png,t1.png,2,0.0565,20,female,2020-09-22_11h50.52.111,torte-2b,2020.1.3,MacIntel,60,13364,,,,,,,,,,,,,,,,,,,,,,,,,,,,,,,,,,,,0,31,31,31,1,,,,,,,,,,,,,,,,,,,,,,,,
,,,,,,,,,,,,a,0.69858,Incorrect,,,,,,t3.png,t1.png,2,0.056466,20,female,2020-09-22_11h50.52.111,torte-2b,2020.1.3,MacIntel,60,13364,,,,,,,,,,,,,,,,,,,,,,,,,,,,,,,,,,,,0,32,32,32,1,,,,,,,,,,,,,,,,,,,,,,,,
,,,,,,,,,,,,l,1.5323,Correct!,,,,,,t1.png,t5.png,4,9.55E-11,20,female,2020-09-22_11h50.52.111,torte-2b,2020.1.3,MacIntel,60,13364,,,,,,,,,,,,,,,,,,,,,,,,,,,,,,,,,,,,0,33,33,85,1,,,,,,,,,,,,,,,,,,,,,,,,
,,,,,,,,,,,,a,0.98218,Incorrect,,,,,,t5.png,t3.png,2,0.056466,20,female,2020-09-22_11h50.52.111,torte-2b,2020.1.3,MacIntel,60,13364,,,,,,,,,,,,,,,,,,,,,,,,,,,,,,,,,,,,0,34,34,56,1,,,,,,,,,,,,,,,,,,,,,,,,
,,,,,,,,,,,,l,1.80548,Incorrect,,,,,,t5.png,t5.png,0,0.978,20,female,2020-09-22_11h50.52.111,torte-2b,2020.1.3,MacIntel,60,13364,,,,,,,,,,,,,,,,,,,,,,,,,,,,,,,,,,,,0,35,35,117,1,,,,,,,,,,,,,,,,,,,,,,,,
,,,,,,,,,,,,l,0.94535,Correct!,,,,,,t1.png,t4.png,3,0.0000131,20,female,2020-09-22_11h50.52.111,torte-2b,2020.1.3,MacIntel,60,13364,,,,,,,,,,,,,,,,,,,,,,,,,,,,,,,,,,,,0,36,36,17,1,,,,,,,,,,,,,,,,,,,,,,,,
,,,,,,,,,,,,l,1.51927,Correct!,,,,,,t2.png,t4.png,2,0.059078,20,female,2020-09-22_11h50.52.111,torte-2b,2020.1.3,MacIntel,60,13364,,,,,,,,,,,,,,,,,,,,,,,,,,,,,,,,,,,,0,37,37,77,1,,,,,,,,,,,,,,,,,,,,,,,,
,,,,,,,,,,,,a,0.79645,Correct!,,,,,,t3.png,t2.png,1,0.90855,20,female,2020-09-22_11h50.52.111,torte-2b,2020.1.3,MacIntel,60,13364,,,,,,,,,,,,,,,,,,,,,,,,,,,,,,,,,,,,0,38,38,97,1,,,,,,,,,,,,,,,,,,,,,,,,
,,,,,,,,,,,,l,0.71144,Correct!,,,,,,t1.png,t4.png,3,0.0000131,20,female,2020-09-22_11h50.52.111,torte-2b,2020.1.3,MacIntel,60,13364,,,,,,,,,,,,,,,,,,,,,,,,,,,,,,,,,,,,0,39,39,107,1,,,,,,,,,,,,,,,,,,,,,,,,
,,,,,,,,,,,,a,0.93342,Correct!,,,,,,t3.png,t2.png,1,0.909,20,female,2020-09-22_11h50.52.111,torte-2b,2020.1.3,MacIntel,60,13364,,,,,,,,,,,,,,,,,,,,,,,,,,,,,,,,,,,,0,40,40,3,1,,,,,,,,,,,,,,,,,,,,,,,,
,,,,,,,,,,,,a,1.78467,Incorrect,,,,,,t3.png,t1.png,2,0.056466,20,female,2020-09-22_11h50.52.111,torte-2b,2020.1.3,MacIntel,60,13364,,,,,,,,,,,,,,,,,,,,,,,,,,,,,,,,,,,,0,41,41,0,1,,,,,,,,,,,,,,,,,,,,,,,,
,,,,,,,,,,,,l,1.585045,Incorrect,,,,,,t2.png,t3.png,1,0.909,20,female,2020-09-22_11h50.52.111,torte-2b,2020.1.3,MacIntel,60,13364,,,,,,,,,,,,,,,,,,,,,,,,,,,,,,,,,,,,0,42,42,74,1,,,,,,,,,,,,,,,,,,,,,,,,
,,,,,,,,,,,,a,0.9204,Correct!,,,,,,t4.png,t3.png,1,0.90855,20,female,2020-09-22_11h50.52.111,torte-2b,2020.1.3,MacIntel,60,13364,,,,,,,,,,,,,,,,,,,,,,,,,,,,,,,,,,,,0,43,43,45,1,,,,,,,,,,,,,,,,,,,,,,,,
,,,,,,,,,,,,l,1.0339,Incorrect,,,,,,t5.png,t5.png,0,0.97829,20,female,2020-09-22_11h50.52.111,torte-2b,2020.1.3,MacIntel,60,13364,,,,,,,,,,,,,,,,,,,,,,,,,,,,,,,,,,,,0,44,44,70,1,,,,,,,,,,,,,,,,,,,,,,,,
,,,,,,,,,,,,l,1.00006,Incorrect,,,,,,t3.png,t4.png,1,0.90855,20,female,2020-09-22_11h50.52.111,torte-2b,2020.1.3,MacIntel,60,13364,,,,,,,,,,,,,,,,,,,,,,,,,,,,,,,,,,,,0,45,45,96,1,,,,,,,,,,,,,,,,,,,,,,,,
,,,,,,,,,,,,l,0.733665,Incorrect,,,,,,t1.png,t2.png,1,0.9,20,female,2020-09-22_11h50.52.111,torte-2b,2020.1.3,MacIntel,60,13364,,,,,,,,,,,,,,,,,,,,,,,,,,,,,,,,,,,,0,46,46,1,1,,,,,,,,,,,,,,,,,,,,,,,,
,,,,,,,,,,,,l,0.950455,Incorrect,,,,,,t1.png,t1.png,0,0.978,20,female,2020-09-22_11h50.52.111,torte-2b,2020.1.3,MacIntel,60,13364,,,,,,,,,,,,,,,,,,,,,,,,,,,,,,,,,,,,0,47,47,54,1,,,,,,,,,,,,,,,,,,,,,,,,
,,,,,,,,,,,,a,1.770115,Correct!,,,,,,t4.png,t4.png,0,0.98115,20,female,2020-09-22_11h50.52.111,torte-2b,2020.1.3,MacIntel,60,13364,,,,,,,,,,,,,,,,,,,,,,,,,,,,,,,,,,,,0,48,48,21,1,,,,,,,,,,,,,,,,,,,,,,,,
,,,,,,,,,,,,l,1.96484,Incorrect,,,,,,t1.png,t2.png,1,0.90025,20,female,2020-09-22_11h50.52.111,torte-2b,2020.1.3,MacIntel,60,13364,,,,,,,,,,,,,,,,,,,,,,,,,,,,,,,,,,,,0,49,49,105,1,,,,,,,,,,,,,,,,,,,,,,,,
,,,,,,,,,,,,l,1.173585,Incorrect,,,,,,t4.png,t5.png,1,0.90025,20,female,2020-09-22_11h50.52.111,torte-2b,2020.1.3,MacIntel,60,13364,,,,,,,,,,,,,,,,,,,,,,,,,,,,,,,,,,,,0,50,50,113,1,,,,,,,,,,,,,,,,,,,,,,,,
,,,,,,,,,,,,a,1.31912,Correct!,,,,,,t4.png,t3.png,1,0.909,20,female,2020-09-22_11h50.52.111,torte-2b,2020.1.3,MacIntel,60,13364,,,,,,,,,,,,,,,,,,,,,,,,,,,,,,,,,,,,0,51,51,20,1,,,,,,,,,,,,,,,,,,,,,,,,
,,,,,,,,,,,,,,Too slow :(,,,,,,t4.png,t2.png,2,0.0591,20,female,2020-09-22_11h50.52.111,torte-2b,2020.1.3,MacIntel,60,13364,,,,,,,,,,,,,,,,,,,,,,,,,,,,,,,,,,,,0,52,52,36,1,,,,,,,,,,,,,,,,,,,,,,,,
,,,,,,,,,,,,a,1.030385,Correct!,,,,,,t2.png,t1.png,1,0.90025,20,female,2020-09-22_11h50.52.111,torte-2b,2020.1.3,MacIntel,60,13364,,,,,,,,,,,,,,,,,,,,,,,,,,,,,,,,,,,,0,53,53,5,1,,,,,,,,,,,,,,,,,,,,,,,,
,,,,,,,,,,,,a,0.91838,Incorrect,,,,,,t5.png,t1.png,4,9.55E-11,20,female,2020-09-22_11h50.52.111,torte-2b,2020.1.3,MacIntel,60,13364,,,,,,,,,,,,,,,,,,,,,,,,,,,,,,,,,,,,0,54,54,22,1,,,,,,,,,,,,,,,,,,,,,,,,
,,,,,,,,,,,,l,1.67836,Correct!,,,,,,t3.png,t2.png,1,0.90855,20,female,2020-09-22_11h50.52.111,torte-2b,2020.1.3,MacIntel,60,13364,,,,,,,,,,,,,,,,,,,,,,,,,,,,,,,,,,,,0,55,55,53,1,,,,,,,,,,,,,,,,,,,,,,,,
,,,,,,,,,,,,a,1.30301,Correct!,,,,,,t5.png,t4.png,1,0.90025,20,female,2020-09-22_11h50.52.111,torte-2b,2020.1.3,MacIntel,60,13364,,,,,,,,,,,,,,,,,,,,,,,,,,,,,,,,,,,,0,56,56,34,1,,,,,,,,,,,,,,,,,,,,,,,,
,,,,,,,,,,,,a,0.86164,Incorrect,,,,,,t5.png,t2.png,3,0.0000131,20,female,2020-09-22_11h50.52.111,torte-2b,2020.1.3,MacIntel,60,13364,,,,,,,,,,,,,,,,,,,,,,,,,,,,,,,,,,,,0,57,57,51,1,,,,,,,,,,,,,,,,,,,,,,,,
,,,,,,,,,,,,a,0.849535,Correct!,,,,,,t2.png,t1.png,1,0.90025,20,female,2020-09-22_11h50.52.111,torte-2b,2020.1.3,MacIntel,60,13364,,,,,,,,,,,,,,,,,,,,,,,,,,,,,,,,,,,,0,58,58,19,1,,,,,,,,,,,,,,,,,,,,,,,,
,,,,,,,,,,,,l,2.221085,Correct!,,,,,,t3.png,t5.png,2,0.0565,20,female,2020-09-22_11h50.52.111,torte-2b,2020.1.3,MacIntel,60,13364,,,,,,,,,,,,,,,,,,,,,,,,,,,,,,,,,,,,0,59,59,30,1,,,,,,,,,,,,,,,,,,,,,,,,
,,,,,,,,,,,,,,Too slow :(,,,,,,t4.png,t1.png,3,0.0000131,20,female,2020-09-22_11h50.52.111,torte-2b,2020.1.3,MacIntel,60,13364,,,,,,,,,,,,,,,,,,,,,,,,,,,,,,,,,,,,0,60,60,42,1,,,,,,,,,,,,,,,,,,,,,,,,
,,,,,,,,,,,,,,Too slow :(,,,,,,t2.png,t4.png,2,0.059078,20,female,2020-09-22_11h50.52.111,torte-2b,2020.1.3,MacIntel,60,13364,,,,,,,,,,,,,,,,,,,,,,,,,,,,,,,,,,,,0,61,61,11,1,,,,,,,,,,,,,,,,,,,,,,,,
,,,,,,,,,,,,,,Too slow :(,,,,,,t2.png,t2.png,0,0.98115,20,female,2020-09-22_11h50.52.111,torte-2b,2020.1.3,MacIntel,60,13364,,,,,,,,,,,,,,,,,,,,,,,,,,,,,,,,,,,,0,62,62,2,1,,,,,,,,,,,,,,,,,,,,,,,,
,,,,,,,,,,,,,,Too slow :(,,,,,,t3.png,t4.png,1,0.90855,20,female,2020-09-22_11h50.52.111,torte-2b,2020.1.3,MacIntel,60,13364,,,,,,,,,,,,,,,,,,,,,,,,,,,,,,,,,,,,0,63,63,84,1,,,,,,,,,,,,,,,,,,,,,,,,
,,,,,,,,,,,,,,Too slow :(,,,,,,t4.png,t5.png,1,0.90025,20,female,2020-09-22_11h50.52.111,torte-2b,2020.1.3,MacIntel,60,13364,,,,,,,,,,,,,,,,,,,,,,,,,,,,,,,,,,,,0,64,64,58,1,,,,,,,,,,,,,,,,,,,,,,,,
,,,,,,,,,,,,,,Too slow :(,,,,,,t1.png,t4.png,3,0.0000131,20,female,2020-09-22_11h50.52.111,torte-2b,2020.1.3,MacIntel,60,13364,,,,,,,,,,,,,,,,,,,,,,,,,,,,,,,,,,,,0,65,65,92,1,,,,,,,,,,,,,,,,,,,,,,,,
,,,,,,,,,,,,l,1.057785,Correct!,,,,,,t2.png,t5.png,3,0.0000131,20,female,2020-09-22_11h50.52.111,torte-2b,2020.1.3,MacIntel,60,13364,,,,,,,,,,,,,,,,,,,,,,,,,,,,,,,,,,,,0,66,66,8,1,,,,,,,,,,,,,,,,,,,,,,,,
,,,,,,,,,,,,l,1.22794,Incorrect,,,,,,t2.png,t3.png,1,0.90855,20,female,2020-09-22_11h50.52.111,torte-2b,2020.1.3,MacIntel,60,13364,,,,,,,,,,,,,,,,,,,,,,,,,,,,,,,,,,,,0,67,67,65,1,,,,,,,,,,,,,,,,,,,,,,,,
,,,,,,,,,,,,l,1.11833,Correct!,,,,,,t2.png,t5.png,3,0.0000131,20,female,2020-09-22_11h50.52.111,torte-2b,2020.1.3,MacIntel,60,13364,,,,,,,,,,,,,,,,,,,,,,,,,,,,,,,,,,,,0,68,68,66,1,,,,,,,,,,,,,,,,,,,,,,,,
,,,,,,,,,,,,a,1.082005,Incorrect,,,,,,t5.png,t3.png,2,0.0565,20,female,2020-09-22_11h50.52.111,torte-2b,2020.1.3,MacIntel,60,13364,,,,,,,,,,,,,,,,,,,,,,,,,,,,,,,,,,,,0,69,69,39,1,,,,,,,,,,,,,,,,,,,,,,,,
,,,,,,,,,,,,a,0.93598,Correct!,,,,,,t3.png,t2.png,1,0.90855,20,female,2020-09-22_11h50.52.111,torte-2b,2020.1.3,MacIntel,60,13364,,,,,,,,,,,,,,,,,,,,,,,,,,,,,,,,,,,,0,70,70,18,1,,,,,,,,,,,,,,,,,,,,,,,,
,,,,,,,,,,,,l,0.93216,Correct!,,,,,,t1.png,t3.png,2,0.056466,20,female,2020-09-22_11h50.52.111,torte-2b,2020.1.3,MacIntel,60,13364,,,,,,,,,,,,,,,,,,,,,,,,,,,,,,,,,,,,0,71,71,60,1,,,,,,,,,,,,,,,,,,,,,,,,
,,,,,,,,,,,,l,1.12745,Incorrect,,,,,,t1.png,t2.png,1,0.90025,20,female,2020-09-22_11h50.52.111,torte-2b,2020.1.3,MacIntel,60,13364,,,,,,,,,,,,,,,,,,,,,,,,,,,,,,,,,,,,0,72,72,33,1,,,,,,,,,,,,,,,,,,,,,,,,
,,,,,,,,,,,,l,0.346475,Incorrect,,,,,,t5.png,t5.png,0,0.97829,20,female,2020-09-22_11h50.52.111,torte-2b,2020.1.3,MacIntel,60,13364,,,,,,,,,,,,,,,,,,,,,,,,,,,,,,,,,,,,0,73,73,73,1,,,,,,,,,,,,,,,,,,,,,,,,
,,,,,,,,,,,,l,0.69902,Correct!,,,,,,t2.png,t4.png,2,0.059078,20,female,2020-09-22_11h50.52.111,torte-2b,2020.1.3,MacIntel,60,13364,,,,,,,,,,,,,,,,,,,,,,,,,,,,,,,,,,,,0,74,74,37,1,,,,,,,,,,,,,,,,,,,,,,,,
,,,,,,,,,,,,l,2.287885,Incorrect,,,,,,t3.png,t4.png,1,0.909,20,female,2020-09-22_11h50.52.111,torte-2b,2020.1.3,MacIntel,60,13364,,,,,,,,,,,,,,,,,,,,,,,,,,,,,,,,,,,,0,75,75,106,1,,,,,,,,,,,,,,,,,,,,,,,,
,,,,,,,,,,,,l,1.47453,Incorrect,,,,,,t4.png,t5.png,1,0.90025,20,female,2020-09-22_11h50.52.111,torte-2b,2020.1.3,MacIntel,60,13364,,,,,,,,,,,,,,,,,,,,,,,,,,,,,,,,,,,,0,76,76,103,1,,,,,,,,,,,,,,,,,,,,,,,,
,,,,,,,,,,,,l,1.15186,Correct!,,,,,,t2.png,t4.png,2,0.0591,20,female,2020-09-22_11h50.52.111,torte-2b,2020.1.3,MacIntel,60,13364,,,,,,,,,,,,,,,,,,,,,,,,,,,,,,,,,,,,0,77,77,15,1,,,,,,,,,,,,,,,,,,,,,,,,
,,,,,,,,,,,,a,1.31923,Correct!,,,,,,t2.png,t1.png,1,0.90025,20,female,2020-09-22_11h50.52.111,torte-2b,2020.1.3,MacIntel,60,13364,,,,,,,,,,,,,,,,,,,,,,,,,,,,,,,,,,,,0,78,78,62,1,,,,,,,,,,,,,,,,,,,,,,,,
,,,,,,,,,,,,a,1.0863,Incorrect,,,,,,t4.png,t1.png,3,0.0000131,20,female,2020-09-22_11h50.52.111,torte-2b,2020.1.3,MacIntel,60,13364,,,,,,,,,,,,,,,,,,,,,,,,,,,,,,,,,,,,0,79,79,93,1,,,,,,,,,,,,,,,,,,,,,,,,
,,,,,,,,,,,,a,2.250435,Correct!,,,,,,t5.png,t4.png,1,0.9,20,female,2020-09-22_11h50.52.111,torte-2b,2020.1.3,MacIntel,60,13364,,,,,,,,,,,,,,,,,,,,,,,,,,,,,,,,,,,,0,80,80,49,1,,,,,,,,,,,,,,,,,,,,,,,,
,,,,,,,,,,,,a,1.25392,Correct!,,,,,,t4.png,t3.png,1,0.90855,20,female,2020-09-22_11h50.52.111,torte-2b,2020.1.3,MacIntel,60,13364,,,,,,,,,,,,,,,,,,,,,,,,,,,,,,,,,,,,0,81,81,75,1,,,,,,,,,,,,,,,,,,,,,,,,
,,,,,,,,,,,,l,1.354785,Incorrect,,,,,,t2.png,t4.png,2,0.059078,20,female,2020-09-22_11h50.52.111,torte-2b,2020.1.3,MacIntel,60,13364,,,,,,,,,,,,,,,,,,,,,,,,,,,,,,,,,,,,0,82,82,24,1,,,,,,,,,,,,,,,,,,,,,,,,
,,,,,,,,,,,,a,1.900995,Incorrect,,,,,,t4.png,t1.png,3,0.0000131,20,female,2020-09-22_11h50.52.111,torte-2b,2020.1.3,MacIntel,60,13364,,,,,,,,,,,,,,,,,,,,,,,,,,,,,,,,,,,,0,83,83,61,1,,,,,,,,,,,,,,,,,,,,,,,,
,,,,,,,,,,,,l,1.716775,Correct!,,,,,,t1.png,t5.png,4,9.55E-11,20,female,2020-09-22_11h50.52.111,torte-2b,2020.1.3,MacIntel,60,13364,,,,,,,,,,,,,,,,,,,,,,,,,,,,,,,,,,,,0,84,84,16,1,,,,,,,,,,,,,,,,,,,,,,,,
,,,,,,,,,,,,a,1.83413,Correct!,,,,,,t5.png,t5.png,0,0.97829,20,female,2020-09-22_11h50.52.111,torte-2b,2020.1.3,MacIntel,60,13364,,,,,,,,,,,,,,,,,,,,,,,,,,,,,,,,,,,,0,85,85,94,1,,,,,,,,,,,,,,,,,,,,,,,,
,,,,,,,,,,,,l,0.792555,Incorrect,,,,,,t2.png,t3.png,1,0.90855,20,female,2020-09-22_11h50.52.111,torte-2b,2020.1.3,MacIntel,60,13364,,,,,,,,,,,,,,,,,,,,,,,,,,,,,,,,,,,,0,86,86,111,1,,,,,,,,,,,,,,,,,,,,,,,,
,,,,,,,,,,,,a,0.965805,Incorrect,,,,,,t5.png,t2.png,3,0.0000131,20,female,2020-09-22_11h50.52.111,torte-2b,2020.1.3,MacIntel,60,13364,,,,,,,,,,,,,,,,,,,,,,,,,,,,,,,,,,,,0,87,87,119,1,,,,,,,,,,,,,,,,,,,,,,,,
,,,,,,,,,,,,a,1.35077,Correct!,,,,,,t5.png,t5.png,0,0.97829,20,female,2020-09-22_11h50.52.111,torte-2b,2020.1.3,MacIntel,60,13364,,,,,,,,,,,,,,,,,,,,,,,,,,,,,,,,,,,,0,88,88,25,1,,,,,,,,,,,,,,,,,,,,,,,,
,,,,,,,,,,,,a,0.849305,Incorrect,,,,,,t4.png,t1.png,3,0.0000131,20,female,2020-09-22_11h50.52.111,torte-2b,2020.1.3,MacIntel,60,13364,,,,,,,,,,,,,,,,,,,,,,,,,,,,,,,,,,,,0,89,89,48,1,,,,,,,,,,,,,,,,,,,,,,,,
,,,,,,,,,,,,a,1.169605,Incorrect,,,,,,t4.png,t2.png,2,0.059078,20,female,2020-09-22_11h50.52.111,torte-2b,2020.1.3,MacIntel,60,13364,,,,,,,,,,,,,,,,,,,,,,,,,,,,,,,,,,,,0,90,90,110,1,,,,,,,,,,,,,,,,,,,,,,,,
,,,,,,,,,,,,l,1.23578,Correct!,,,,,,t1.png,t5.png,4,9.55E-11,20,female,2020-09-22_11h50.52.111,torte-2b,2020.1.3,MacIntel,60,13364,,,,,,,,,,,,,,,,,,,,,,,,,,,,,,,,,,,,0,91,91,12,1,,,,,,,,,,,,,,,,,,,,,,,,
,,,,,,,,,,,,l,0.971365,Incorrect,,,,,,t2.png,t2.png,0,0.98115,20,female,2020-09-22_11h50.52.111,torte-2b,2020.1.3,MacIntel,60,13364,,,,,,,,,,,,,,,,,,,,,,,,,,,,,,,,,,,,0,92,92,59,1,,,,,,,,,,,,,,,,,,,,,,,,
,,,,,,,,,,,,a,1.001075,Incorrect,,,,,,t4.png,t2.png,2,0.059078,20,female,2020-09-22_11h50.52.111,torte-2b,2020.1.3,MacIntel,60,13364,,,,,,,,,,,,,,,,,,,,,,,,,,,,,,,,,,,,0,93,93,86,1,,,,,,,,,,,,,,,,,,,,,,,,
,,,,,,,,,,,,a,1.185345,Incorrect,,,,,,t5.png,t2.png,3,0.0000131,20,female,2020-09-22_11h50.52.111,torte-2b,2020.1.3,MacIntel,60,13364,,,,,,,,,,,,,,,,,,,,,,,,,,,,,,,,,,,,0,94,94,91,1,,,,,,,,,,,,,,,,,,,,,,,,
,,,,,,,,,,,,a,1.233365,Incorrect,,,,,,t5.png,t1.png,4,9.55E-11,20,female,2020-09-22_11h50.52.111,torte-2b,2020.1.3,MacIntel,60,13364,,,,,,,,,,,,,,,,,,,,,,,,,,,,,,,,,,,,0,95,95,102,1,,,,,,,,,,,,,,,,,,,,,,,,
,,,,,,,,,,,,a,1.26879,Incorrect,,,,,,t1.png,t5.png,4,9.55E-11,20,female,2020-09-22_11h50.52.111,torte-2b,2020.1.3,MacIntel,60,13364,,,,,,,,,,,,,,,,,,,,,,,,,,,,,,,,,,,,0,96,96,55,1,,,,,,,,,,,,,,,,,,,,,,,,
,,,,,,,,,,,,a,1.13424,Correct!,,,,,,t3.png,t2.png,1,0.909,20,female,2020-09-22_11h50.52.111,torte-2b,2020.1.3,MacIntel,60,13364,,,,,,,,,,,,,,,,,,,,,,,,,,,,,,,,,,,,0,97,97,23,1,,,,,,,,,,,,,,,,,,,,,,,,
,,,,,,,,,,,,a,2.450175,Correct!,,,,,,t4.png,t4.png,0,0.98115,20,female,2020-09-22_11h50.52.111,torte-2b,2020.1.3,MacIntel,60,13364,,,,,,,,,,,,,,,,,,,,,,,,,,,,,,,,,,,,0,98,98,80,1,,,,,,,,,,,,,,,,,,,,,,,,
,,,,,,,,,,,,l,1.400325,Incorrect,,,,,,t5.png,t4.png,1,0.9,20,female,2020-09-22_11h50.52.111,torte-2b,2020.1.3,MacIntel,60,13364,,,,,,,,,,,,,,,,,,,,,,,,,,,,,,,,,,,,0,99,99,76,1,,,,,,,,,,,,,,,,,,,,,,,,
,,,,,,,,,,,,a,1.567275,Incorrect,,,,,,t1.png,t4.png,3,0.0000131,20,female,2020-09-22_11h50.52.111,torte-2b,2020.1.3,MacIntel,60,13364,,,,,,,,,,,,,,,,,,,,,,,,,,,,,,,,,,,,0,100,100,81,1,,,,,,,,,,,,,,,,,,,,,,,,
,,,,,,,,,,,,,,Too slow :(,,,,,,t1.png,t3.png,2,0.056466,20,female,2020-09-22_11h50.52.111,torte-2b,2020.1.3,MacIntel,60,13364,,,,,,,,,,,,,,,,,,,,,,,,,,,,,,,,,,,,0,101,101,63,1,,,,,,,,,,,,,,,,,,,,,,,,
,,,,,,,,,,,,l,1.78324,Incorrect,,,,,,t1.png,t2.png,1,0.90025,20,female,2020-09-22_11h50.52.111,torte-2b,2020.1.3,MacIntel,60,13364,,,,,,,,,,,,,,,,,,,,,,,,,,,,,,,,,,,,0,102,102,72,1,,,,,,,,,,,,,,,,,,,,,,,,
,,,,,,,,,,,,l,1.784305,Incorrect,,,,,,t2.png,t2.png,0,0.981,20,female,2020-09-22_11h50.52.111,torte-2b,2020.1.3,MacIntel,60,13364,,,,,,,,,,,,,,,,,,,,,,,,,,,,,,,,,,,,0,103,103,101,1,,,,,,,,,,,,,,,,,,,,,,,,
,,,,,,,,,,,,a,1.25194,Correct!,,,,,,t5.png,t4.png,1,0.90025,20,female,2020-09-22_11h50.52.111,torte-2b,2020.1.3,MacIntel,60,13364,,,,,,,,,,,,,,,,,,,,,,,,,,,,,,,,,,,,0,104,104,26,1,,,,,,,,,,,,,,,,,,,,,,,,
,,,,,,,,,,,,l,1.116855,Incorrect,,,,,,t3.png,t4.png,1,0.909,20,female,2020-09-22_11h50.52.111,torte-2b,2020.1.3,MacIntel,60,13364,,,,,,,,,,,,,,,,,,,,,,,,,,,,,,,,,,,,0,105,105,89,1,,,,,,,,,,,,,,,,,,,,,,,,
,,,,,,,,,,,,l,0.65068,Correct!,,,,,,t2.png,t5.png,3,0.0000131,20,female,2020-09-22_11h50.52.111,torte-2b,2020.1.3,MacIntel,60,13364,,,,,,,,,,,,,,,,,,,,,,,,,,,,,,,,,,,,0,106,106,104,1,,,,,,,,,,,,,,,,,,,,,,,,
,,,,,,,,,,,,l,0.769215,Incorrect,,,,,,t1.png,t1.png,0,0.97829,20,female,2020-09-22_11h50.52.111,torte-2b,2020.1.3,MacIntel,60,13364,,,,,,,,,,,,,,,,,,,,,,,,,,,,,,,,,,,,0,107,107,67,1,,,,,,,,,,,,,,,,,,,,,,,,
,,,,,,,,,,,,a,1.133685,Correct!,,,,,,t2.png,t1.png,1,0.9,20,female,2020-09-22_11h50.52.111,torte-2b,2020.1.3,MacIntel,60,13364,,,,,,,,,,,,,,,,,,,,,,,,,,,,,,,,,,,,0,108,108,118,1,,,,,,,,,,,,,,,,,,,,,,,,
,,,,,,,,,,,,a,1.2181,Incorrect,,,,,,t5.png,t1.png,4,9.55E-11,20,female,2020-09-22_11h50.52.111,torte-2b,2020.1.3,MacIntel,60,13364,,,,,,,,,,,,,,,,,,,,,,,,,,,,,,,,,,,,0,109,109,43,1,,,,,,,,,,,,,,,,,,,,,,,,
,,,,,,,,,,,,a,1.18377,Incorrect,,,,,,t5.png,t3.png,2,0.056466,20,female,2020-09-22_11h50.52.111,torte-2b,2020.1.3,MacIntel,60,13364,,,,,,,,,,,,,,,,,,,,,,,,,,,,,,,,,,,,0,110,110,38,1,,,,,,,,,,,,,,,,,,,,,,,,
,,,,,,,,,,,,a,1.2329,Incorrect,,,,,,t4.png,t1.png,3,0.0000131,20,female,2020-09-22_11h50.52.111,torte-2b,2020.1.3,MacIntel,60,13364,,,,,,,,,,,,,,,,,,,,,,,,,,,,,,,,,,,,0,111,111,13,1,,,,,,,,,,,,,,,,,,,,,,,,
,,,,,,,,,,,,l,0.769935,Incorrect,,,,,,t1.png,t1.png,0,0.97829,20,female,2020-09-22_11h50.52.111,torte-2b,2020.1.3,MacIntel,60,13364,,,,,,,,,,,,,,,,,,,,,,,,,,,,,,,,,,,,0,112,112,78,1,,,,,,,,,,,,,,,,,,,,,,,,
,,,,,,,,,,,,a,1.13435,Incorrect,,,,,,t5.png,t1.png,4,9.55E-11,20,female,2020-09-22_11h50.52.111,torte-2b,2020.1.3,MacIntel,60,13364,,,,,,,,,,,,,,,,,,,,,,,,,,,,,,,,,,,,0,113,113,100,1,,,,,,,,,,,,,,,,,,,,,,,,
,,,,,,,,,,,,l,0.70357,Correct!,,,,,,t1.png,t1.png,0,0.97829,20,female,2020-09-22_11h50.52.111,torte-2b,2020.1.3,MacIntel,60,13364,,,,,,,,,,,,,,,,,,,,,,,,,,,,,,,,,,,,0,114,114,9,1,,,,,,,,,,,,,,,,,,,,,,,,
,,,,,,,,,,,,a,1.1668,Correct!,,,,,,t5.png,t4.png,1,0.90025,20,female,2020-09-22_11h50.52.111,torte-2b,2020.1.3,MacIntel,60,13364,,,,,,,,,,,,,,,,,,,,,,,,,,,,,,,,,,,,0,115,115,27,1,,,,,,,,,,,,,,,,,,,,,,,,
,,,,,,,,,,,,l,0.93443,Incorrect,,,,,,t4.png,t5.png,1,0.9,20,female,2020-09-22_11h50.52.111,torte-2b,2020.1.3,MacIntel,60,13364,,,,,,,,,,,,,,,,,,,,,,,,,,,,,,,,,,,,0,116,116,115,1,,,,,,,,,,,,,,,,,,,,,,,,
,,,,,,,,,,,,a,2.384565,Incorrect,,,,,,t4.png,t2.png,2,0.059078,20,female,2020-09-22_11h50.52.111,torte-2b,2020.1.3,MacIntel,60,13364,,,,,,,,,,,,,,,,,,,,,,,,,,,,,,,,,,,,0,117,117,109,1,,,,,,,,,,,,,,,,,,,,,,,,
,,,,,,,,,,,,l,0.568815,Correct!,,,,,,t1.png,t4.png,3,0.0000131,20,female,2020-09-22_11h50.52.111,torte-2b,2020.1.3,MacIntel,60,13364,,,,,,,,,,,,,,,,,,,,,,,,,,,,,,,,,,,,0,118,118,50,1,,,,,,,,,,,,,,,,,,,,,,,,
,,,,,,,,,,,,a,0.9513,Incorrect,,,,,,t4.png,t2.png,2,0.059078,20,female,2020-09-22_11h50.52.111,torte-2b,2020.1.3,MacIntel,60,13364,,,,,,,,,,,,,,,,,,,,,,,,,,,,,,,,,,,,0,119,119,88,1,,,,,,,,,,,,,,,,,,,,,,,,
,,,,,,,,,,,,,,,,,,,,,,,,20,female,2020-09-22_11h50.52.111,torte-2b,2020.1.3,MacIntel,60,13364,space,1.14946,,,,,,,,,,,,,,,,,,,,,,,,,,,,,,,,,,,,,,,208.6914063,182.0820313,1,0,0,s1,11.5703125,22.79296875,1,0,0,t2,203.3320313,-96.1640625,1,0,0,proceed,space,0.7169,space,0.564715,space,0.830885
