key_resp_8.keys,key_resp_8.rt,key_resp_9.keys,key_resp_9.rt,key_resp_10.keys,key_resp_10.rt,key_resp_11.keys,key_resp_11.rt,key_resp_2.keys,key_resp_2.rt,key_resp_3.keys,key_resp_3.rt,key_resp.keys,key_resp.rt,Feedback,train.thisRepN,train.thisTrialN,train.thisN,train.thisIndex,train.ran,torta_sx,torta_dx,difference,probability,age,gender,date,expName,psychopyVersion,OS,frameRate,participant,key_resp_15.keys,key_resp_15.rt,key_resp_6.keys,key_resp_6.rt,test1.thisRepN,test1.thisTrialN,test1.thisN,test1.thisIndex,test1.ran,key_resp_4.keys,key_resp_4.rt,key_resp_5.keys,back1.thisRepN,back1.thisTrialN,back1.thisN,back1.thisIndex,back1.ran,letter,key_resp_5.rt,back2.thisRepN,back2.thisTrialN,back2.thisN,back2.thisIndex,back2.ran,back3.thisRepN,back3.thisTrialN,back3.thisN,back3.thisIndex,back3.ran,back4.thisRepN,back4.thisTrialN,back4.thisN,back4.thisIndex,back4.ran,key_resp_7.keys,key_resp_7.rt,test2.thisRepN,test2.thisTrialN,test2.thisN,test2.thisIndex,test2.ran,mouse.x,mouse.y,mouse.leftButton,mouse.midButton,mouse.rightButton,mouse.clicked_name,mouse_2.x,mouse_2.y,mouse_2.leftButton,mouse_2.midButton,mouse_2.rightButton,mouse_2.clicked_name,mouse_3.x,mouse_3.y,mouse_3.leftButton,mouse_3.midButton,mouse_3.rightButton,mouse_3.clicked_name,key_resp_12.keys,key_resp_12.rt,key_resp_13.keys,key_resp_13.rt,key_resp_14.keys,key_resp_14.rt
space,1.184765,space,5.452095,space,0.54781,space,0.92466,h,6.668555,h,17.043945,l,2.2387,Incorrect,0,0,0,110,1,t4.png,t5.png,1,0.90025,19,female,2020-09-04_18h05.54.596,torte-2b,2020.1.3,Linux x86_64,60,13366,,,,,,,,,,,,,,,,,,,,,,,,,,,,,,,,,,,,,,,,,,,,,,,,,,,,,,,,,,,,,,,,,
,,,,,,,,,,,,a,1.2205,Correct!,0,1,1,59,1,t5.png,t4.png,1,0.9,19,female,2020-09-04_18h05.54.596,torte-2b,2020.1.3,Linux x86_64,60,13366,,,,,,,,,,,,,,,,,,,,,,,,,,,,,,,,,,,,,,,,,,,,,,,,,,,,,,,,,,,,,,,,,
,,,,,,,,,,,,a,1.10436,Correct!,0,2,2,76,1,t3.png,t2.png,1,0.90855,19,female,2020-09-04_18h05.54.596,torte-2b,2020.1.3,Linux x86_64,60,13366,,,,,,,,,,,,,,,,,,,,,,,,,,,,,,,,,,,,,,,,,,,,,,,,,,,,,,,,,,,,,,,,,
,,,,,,,,,,,,a,0.81856,Correct!,0,3,3,8,1,t3.png,t2.png,1,0.90855,19,female,2020-09-04_18h05.54.596,torte-2b,2020.1.3,Linux x86_64,60,13366,,,,,,,,,,,,,,,,,,,,,,,,,,,,,,,,,,,,,,,,,,,,,,,,,,,,,,,,,,,,,,,,,
,,,,,,,,,,,,a,1.106755,Correct!,0,4,4,42,1,t5.png,t4.png,1,0.90025,19,female,2020-09-04_18h05.54.596,torte-2b,2020.1.3,Linux x86_64,60,13366,,,,,,,,,,,,,,,,,,,,,,,,,,,,,,,,,,,,,,,,,,,,,,,,,,,,,,,,,,,,,,,,,
,,,,,,,,,,,,l,0.990985,Incorrect,0,5,5,44,1,t2.png,t3.png,1,0.909,19,female,2020-09-04_18h05.54.596,torte-2b,2020.1.3,Linux x86_64,60,13366,,,,,,,,,,,,,,,,,,,,,,,,,,,,,,,,,,,,,,,,,,,,,,,,,,,,,,,,,,,,,,,,,
,,,,,,,,,,,,a,1.195785,Incorrect,0,6,6,102,1,t4.png,t2.png,2,0.059078,19,female,2020-09-04_18h05.54.596,torte-2b,2020.1.3,Linux x86_64,60,13366,,,,,,,,,,,,,,,,,,,,,,,,,,,,,,,,,,,,,,,,,,,,,,,,,,,,,,,,,,,,,,,,,
,,,,,,,,,,,,a,1.597005,Correct!,0,7,7,25,1,t5.png,t5.png,0,0.97829,19,female,2020-09-04_18h05.54.596,torte-2b,2020.1.3,Linux x86_64,60,13366,,,,,,,,,,,,,,,,,,,,,,,,,,,,,,,,,,,,,,,,,,,,,,,,,,,,,,,,,,,,,,,,,
,,,,,,,,,,,,a,0.90233,Incorrect,0,8,8,17,1,t1.png,t4.png,3,0.0000131,19,female,2020-09-04_18h05.54.596,torte-2b,2020.1.3,Linux x86_64,60,13366,,,,,,,,,,,,,,,,,,,,,,,,,,,,,,,,,,,,,,,,,,,,,,,,,,,,,,,,,,,,,,,,,
,,,,,,,,,,,,l,1.11547,Correct!,0,9,9,50,1,t5.png,t1.png,4,9.55E-11,19,female,2020-09-04_18h05.54.596,torte-2b,2020.1.3,Linux x86_64,60,13366,,,,,,,,,,,,,,,,,,,,,,,,,,,,,,,,,,,,,,,,,,,,,,,,,,,,,,,,,,,,,,,,,
,,,,,,,,,,,,l,1.37174,Incorrect,0,10,10,112,1,t1.png,t1.png,0,0.97829,19,female,2020-09-04_18h05.54.596,torte-2b,2020.1.3,Linux x86_64,60,13366,,,,,,,,,,,,,,,,,,,,,,,,,,,,,,,,,,,,,,,,,,,,,,,,,,,,,,,,,,,,,,,,,
,,,,,,,,,,,,a,1.679325,Correct!,0,11,11,34,1,t5.png,t4.png,1,0.9,19,female,2020-09-04_18h05.54.596,torte-2b,2020.1.3,Linux x86_64,60,13366,,,,,,,,,,,,,,,,,,,,,,,,,,,,,,,,,,,,,,,,,,,,,,,,,,,,,,,,,,,,,,,,,
,,,,,,,,,,,,a,0.98016,Incorrect,0,12,12,26,1,t4.png,t2.png,2,0.0591,19,female,2020-09-04_18h05.54.596,torte-2b,2020.1.3,Linux x86_64,60,13366,,,,,,,,,,,,,,,,,,,,,,,,,,,,,,,,,,,,,,,,,,,,,,,,,,,,,,,,,,,,,,,,,
,,,,,,,,,,,,l,0.7913,Incorrect,0,13,13,9,1,t4.png,t5.png,1,0.9,19,female,2020-09-04_18h05.54.596,torte-2b,2020.1.3,Linux x86_64,60,13366,,,,,,,,,,,,,,,,,,,,,,,,,,,,,,,,,,,,,,,,,,,,,,,,,,,,,,,,,,,,,,,,,
,,,,,,,,,,,,a,0.88642,Correct!,0,14,14,95,1,t1.png,t1.png,0,0.978,19,female,2020-09-04_18h05.54.596,torte-2b,2020.1.3,Linux x86_64,60,13366,,,,,,,,,,,,,,,,,,,,,,,,,,,,,,,,,,,,,,,,,,,,,,,,,,,,,,,,,,,,,,,,,
,,,,,,,,,,,,a,0.89249,Correct!,0,15,15,85,1,t3.png,t2.png,1,0.90855,19,female,2020-09-04_18h05.54.596,torte-2b,2020.1.3,Linux x86_64,60,13366,,,,,,,,,,,,,,,,,,,,,,,,,,,,,,,,,,,,,,,,,,,,,,,,,,,,,,,,,,,,,,,,,
,,,,,,,,,,,,a,1.9062,Incorrect,0,16,16,61,1,t1.png,t4.png,3,0.0000131,19,female,2020-09-04_18h05.54.596,torte-2b,2020.1.3,Linux x86_64,60,13366,,,,,,,,,,,,,,,,,,,,,,,,,,,,,,,,,,,,,,,,,,,,,,,,,,,,,,,,,,,,,,,,,
,,,,,,,,,,,,a,1.06921,Incorrect,0,17,17,15,1,t3.png,t2.png,1,0.90855,19,female,2020-09-04_18h05.54.596,torte-2b,2020.1.3,Linux x86_64,60,13366,,,,,,,,,,,,,,,,,,,,,,,,,,,,,,,,,,,,,,,,,,,,,,,,,,,,,,,,,,,,,,,,,
,,,,,,,,,,,,l,0.82818,Incorrect,0,18,18,65,1,t4.png,t5.png,1,0.90025,19,female,2020-09-04_18h05.54.596,torte-2b,2020.1.3,Linux x86_64,60,13366,,,,,,,,,,,,,,,,,,,,,,,,,,,,,,,,,,,,,,,,,,,,,,,,,,,,,,,,,,,,,,,,,
,,,,,,,,,,,,a,0.734,Correct!,0,19,19,109,1,t5.png,t5.png,0,0.97829,19,female,2020-09-04_18h05.54.596,torte-2b,2020.1.3,Linux x86_64,60,13366,,,,,,,,,,,,,,,,,,,,,,,,,,,,,,,,,,,,,,,,,,,,,,,,,,,,,,,,,,,,,,,,,
,,,,,,,,,,,,a,0.9142,Correct!,0,20,20,29,1,t5.png,t5.png,0,0.97829,19,female,2020-09-04_18h05.54.596,torte-2b,2020.1.3,Linux x86_64,60,13366,,,,,,,,,,,,,,,,,,,,,,,,,,,,,,,,,,,,,,,,,,,,,,,,,,,,,,,,,,,,,,,,,
,,,,,,,,,,,,a,0.68103,Incorrect,0,21,21,43,1,t4.png,t2.png,2,0.059078,19,female,2020-09-04_18h05.54.596,torte-2b,2020.1.3,Linux x86_64,60,13366,,,,,,,,,,,,,,,,,,,,,,,,,,,,,,,,,,,,,,,,,,,,,,,,,,,,,,,,,,,,,,,,,
,,,,,,,,,,,,l,0.75432,Correct!,0,22,22,57,1,t2.png,t4.png,2,0.059078,19,female,2020-09-04_18h05.54.596,torte-2b,2020.1.3,Linux x86_64,60,13366,,,,,,,,,,,,,,,,,,,,,,,,,,,,,,,,,,,,,,,,,,,,,,,,,,,,,,,,,,,,,,,,,
,,,,,,,,,,,,l,0.79501,Incorrect,0,23,23,92,1,t2.png,t3.png,1,0.909,19,female,2020-09-04_18h05.54.596,torte-2b,2020.1.3,Linux x86_64,60,13366,,,,,,,,,,,,,,,,,,,,,,,,,,,,,,,,,,,,,,,,,,,,,,,,,,,,,,,,,,,,,,,,,
,,,,,,,,,,,,l,0.7185,Correct!,0,24,24,117,1,t1.png,t5.png,4,9.55E-11,19,female,2020-09-04_18h05.54.596,torte-2b,2020.1.3,Linux x86_64,60,13366,,,,,,,,,,,,,,,,,,,,,,,,,,,,,,,,,,,,,,,,,,,,,,,,,,,,,,,,,,,,,,,,,
,,,,,,,,,,,,a,0.64777,Incorrect,0,25,25,108,1,t5.png,t1.png,4,9.55E-11,19,female,2020-09-04_18h05.54.596,torte-2b,2020.1.3,Linux x86_64,60,13366,,,,,,,,,,,,,,,,,,,,,,,,,,,,,,,,,,,,,,,,,,,,,,,,,,,,,,,,,,,,,,,,,
,,,,,,,,,,,,a,0.677685,Incorrect,0,26,26,111,1,t5.png,t1.png,4,9.55E-11,19,female,2020-09-04_18h05.54.596,torte-2b,2020.1.3,Linux x86_64,60,13366,,,,,,,,,,,,,,,,,,,,,,,,,,,,,,,,,,,,,,,,,,,,,,,,,,,,,,,,,,,,,,,,,
,,,,,,,,,,,,l,0.89899,Incorrect,0,27,27,84,1,t1.png,t1.png,0,0.97829,19,female,2020-09-04_18h05.54.596,torte-2b,2020.1.3,Linux x86_64,60,13366,,,,,,,,,,,,,,,,,,,,,,,,,,,,,,,,,,,,,,,,,,,,,,,,,,,,,,,,,,,,,,,,,
,,,,,,,,,,,,l,0.56709,Correct!,0,28,28,40,1,t1.png,t5.png,4,9.55E-11,19,female,2020-09-04_18h05.54.596,torte-2b,2020.1.3,Linux x86_64,60,13366,,,,,,,,,,,,,,,,,,,,,,,,,,,,,,,,,,,,,,,,,,,,,,,,,,,,,,,,,,,,,,,,,
,,,,,,,,,,,,l,0.5766,Incorrect,0,29,29,104,1,t2.png,t3.png,1,0.90855,19,female,2020-09-04_18h05.54.596,torte-2b,2020.1.3,Linux x86_64,60,13366,,,,,,,,,,,,,,,,,,,,,,,,,,,,,,,,,,,,,,,,,,,,,,,,,,,,,,,,,,,,,,,,,
,,,,,,,,,,,,a,0.63027,Incorrect,0,30,30,55,1,t2.png,t4.png,2,0.059078,19,female,2020-09-04_18h05.54.596,torte-2b,2020.1.3,Linux x86_64,60,13366,,,,,,,,,,,,,,,,,,,,,,,,,,,,,,,,,,,,,,,,,,,,,,,,,,,,,,,,,,,,,,,,,
,,,,,,,,,,,,l,0.759385,Incorrect,0,31,31,75,1,t1.png,t1.png,0,0.97829,19,female,2020-09-04_18h05.54.596,torte-2b,2020.1.3,Linux x86_64,60,13366,,,,,,,,,,,,,,,,,,,,,,,,,,,,,,,,,,,,,,,,,,,,,,,,,,,,,,,,,,,,,,,,,
,,,,,,,,,,,,a,0.63044,Incorrect,0,32,32,33,1,t5.png,t1.png,4,9.55E-11,19,female,2020-09-04_18h05.54.596,torte-2b,2020.1.3,Linux x86_64,60,13366,,,,,,,,,,,,,,,,,,,,,,,,,,,,,,,,,,,,,,,,,,,,,,,,,,,,,,,,,,,,,,,,,
,,,,,,,,,,,,l,0.64313,Correct!,0,33,33,105,1,t3.png,t2.png,1,0.90855,19,female,2020-09-04_18h05.54.596,torte-2b,2020.1.3,Linux x86_64,60,13366,,,,,,,,,,,,,,,,,,,,,,,,,,,,,,,,,,,,,,,,,,,,,,,,,,,,,,,,,,,,,,,,,
,,,,,,,,,,,,l,0.965235,Correct!,0,34,34,46,1,t4.png,t2.png,2,0.059078,19,female,2020-09-04_18h05.54.596,torte-2b,2020.1.3,Linux x86_64,60,13366,,,,,,,,,,,,,,,,,,,,,,,,,,,,,,,,,,,,,,,,,,,,,,,,,,,,,,,,,,,,,,,,,
,,,,,,,,,,,,a,1.23915,Incorrect,0,35,35,0,1,t5.png,t1.png,4,9.55E-11,19,female,2020-09-04_18h05.54.596,torte-2b,2020.1.3,Linux x86_64,60,13366,,,,,,,,,,,,,,,,,,,,,,,,,,,,,,,,,,,,,,,,,,,,,,,,,,,,,,,,,,,,,,,,,
,,,,,,,,,,,,l,0.30841,Incorrect,0,36,36,20,1,t2.png,t3.png,1,0.90855,19,female,2020-09-04_18h05.54.596,torte-2b,2020.1.3,Linux x86_64,60,13366,,,,,,,,,,,,,,,,,,,,,,,,,,,,,,,,,,,,,,,,,,,,,,,,,,,,,,,,,,,,,,,,,
,,,,,,,,,,,,a,0.27241,Incorrect,0,37,37,77,1,t1.png,t1.png,0,0.97829,19,female,2020-09-04_18h05.54.596,torte-2b,2020.1.3,Linux x86_64,60,13366,,,,,,,,,,,,,,,,,,,,,,,,,,,,,,,,,,,,,,,,,,,,,,,,,,,,,,,,,,,,,,,,,
,,,,,,,,,,,,l,0.2741,Correct!,0,38,38,56,1,t5.png,t1.png,4,9.55E-11,19,female,2020-09-04_18h05.54.596,torte-2b,2020.1.3,Linux x86_64,60,13366,,,,,,,,,,,,,,,,,,,,,,,,,,,,,,,,,,,,,,,,,,,,,,,,,,,,,,,,,,,,,,,,,
,,,,,,,,,,,,l,0.474735,Incorrect,0,39,39,62,1,t5.png,t5.png,0,0.978,19,female,2020-09-04_18h05.54.596,torte-2b,2020.1.3,Linux x86_64,60,13366,,,,,,,,,,,,,,,,,,,,,,,,,,,,,,,,,,,,,,,,,,,,,,,,,,,,,,,,,,,,,,,,,
,,,,,,,,,,,,a,0.6536,Incorrect,0,40,40,68,1,t1.png,t4.png,3,0.0000131,19,female,2020-09-04_18h05.54.596,torte-2b,2020.1.3,Linux x86_64,60,13366,,,,,,,,,,,,,,,,,,,,,,,,,,,,,,,,,,,,,,,,,,,,,,,,,,,,,,,,,,,,,,,,,
,,,,,,,,,,,,l,0.33137,Correct!,0,41,41,4,1,t1.png,t5.png,4,9.55E-11,19,female,2020-09-04_18h05.54.596,torte-2b,2020.1.3,Linux x86_64,60,13366,,,,,,,,,,,,,,,,,,,,,,,,,,,,,,,,,,,,,,,,,,,,,,,,,,,,,,,,,,,,,,,,,
,,,,,,,,,,,,l,0.96701,Incorrect,0,42,42,81,1,t1.png,t1.png,0,0.97829,19,female,2020-09-04_18h05.54.596,torte-2b,2020.1.3,Linux x86_64,60,13366,,,,,,,,,,,,,,,,,,,,,,,,,,,,,,,,,,,,,,,,,,,,,,,,,,,,,,,,,,,,,,,,,
,,,,,,,,,,,,a,0.98787,Incorrect,0,43,43,47,1,t4.png,t2.png,2,0.059078,19,female,2020-09-04_18h05.54.596,torte-2b,2020.1.3,Linux x86_64,60,13366,,,,,,,,,,,,,,,,,,,,,,,,,,,,,,,,,,,,,,,,,,,,,,,,,,,,,,,,,,,,,,,,,
,,,,,,,,,,,,l,0.55559,Correct!,0,44,44,5,1,t2.png,t4.png,2,0.059078,19,female,2020-09-04_18h05.54.596,torte-2b,2020.1.3,Linux x86_64,60,13366,,,,,,,,,,,,,,,,,,,,,,,,,,,,,,,,,,,,,,,,,,,,,,,,,,,,,,,,,,,,,,,,,
,,,,,,,,,,,,a,0.483395,Incorrect,0,45,45,94,1,t5.png,t1.png,4,9.55E-11,19,female,2020-09-04_18h05.54.596,torte-2b,2020.1.3,Linux x86_64,60,13366,,,,,,,,,,,,,,,,,,,,,,,,,,,,,,,,,,,,,,,,,,,,,,,,,,,,,,,,,,,,,,,,,
,,,,,,,,,,,,l,0.22791,Incorrect,0,46,46,70,1,t5.png,t5.png,0,0.978,19,female,2020-09-04_18h05.54.596,torte-2b,2020.1.3,Linux x86_64,60,13366,,,,,,,,,,,,,,,,,,,,,,,,,,,,,,,,,,,,,,,,,,,,,,,,,,,,,,,,,,,,,,,,,
,,,,,,,,,,,,a,0.0733,Incorrect,0,47,47,69,1,t4.png,t2.png,2,0.059078,19,female,2020-09-04_18h05.54.596,torte-2b,2020.1.3,Linux x86_64,60,13366,,,,,,,,,,,,,,,,,,,,,,,,,,,,,,,,,,,,,,,,,,,,,,,,,,,,,,,,,,,,,,,,,
,,,,,,,,,,,,a,0.296905,Correct!,0,48,48,45,1,t3.png,t2.png,1,0.90855,19,female,2020-09-04_18h05.54.596,torte-2b,2020.1.3,Linux x86_64,60,13366,,,,,,,,,,,,,,,,,,,,,,,,,,,,,,,,,,,,,,,,,,,,,,,,,,,,,,,,,,,,,,,,,
,,,,,,,,,,,,l,1.028605,Incorrect,0,49,49,106,1,t2.png,t3.png,1,0.90855,19,female,2020-09-04_18h05.54.596,torte-2b,2020.1.3,Linux x86_64,60,13366,,,,,,,,,,,,,,,,,,,,,,,,,,,,,,,,,,,,,,,,,,,,,,,,,,,,,,,,,,,,,,,,,
,,,,,,,,,,,,a,0.41085,Incorrect,0,50,50,67,1,t1.png,t5.png,4,9.55E-11,19,female,2020-09-04_18h05.54.596,torte-2b,2020.1.3,Linux x86_64,60,13366,,,,,,,,,,,,,,,,,,,,,,,,,,,,,,,,,,,,,,,,,,,,,,,,,,,,,,,,,,,,,,,,,
,,,,,,,,,,,,l,0.09998,Correct!,0,51,51,6,1,t1.png,t4.png,3,0.0000131,19,female,2020-09-04_18h05.54.596,torte-2b,2020.1.3,Linux x86_64,60,13366,,,,,,,,,,,,,,,,,,,,,,,,,,,,,,,,,,,,,,,,,,,,,,,,,,,,,,,,,,,,,,,,,
,,,,,,,,,,,,l,0.468215,Correct!,0,52,52,119,1,t1.png,t5.png,4,9.55E-11,19,female,2020-09-04_18h05.54.596,torte-2b,2020.1.3,Linux x86_64,60,13366,,,,,,,,,,,,,,,,,,,,,,,,,,,,,,,,,,,,,,,,,,,,,,,,,,,,,,,,,,,,,,,,,
,,,,,,,,,,,,l,0.710035,Incorrect,0,53,53,7,1,t4.png,t5.png,1,0.90025,19,female,2020-09-04_18h05.54.596,torte-2b,2020.1.3,Linux x86_64,60,13366,,,,,,,,,,,,,,,,,,,,,,,,,,,,,,,,,,,,,,,,,,,,,,,,,,,,,,,,,,,,,,,,,
,,,,,,,,,,,,a,1.19231,Correct!,0,54,54,71,1,t5.png,t5.png,0,0.97829,19,female,2020-09-04_18h05.54.596,torte-2b,2020.1.3,Linux x86_64,60,13366,,,,,,,,,,,,,,,,,,,,,,,,,,,,,,,,,,,,,,,,,,,,,,,,,,,,,,,,,,,,,,,,,
,,,,,,,,,,,,a,0.86308,Correct!,0,55,55,97,1,t5.png,t5.png,0,0.97829,19,female,2020-09-04_18h05.54.596,torte-2b,2020.1.3,Linux x86_64,60,13366,,,,,,,,,,,,,,,,,,,,,,,,,,,,,,,,,,,,,,,,,,,,,,,,,,,,,,,,,,,,,,,,,
,,,,,,,,,,,,a,0.69123,Incorrect,0,56,56,82,1,t5.png,t1.png,4,9.55E-11,19,female,2020-09-04_18h05.54.596,torte-2b,2020.1.3,Linux x86_64,60,13366,,,,,,,,,,,,,,,,,,,,,,,,,,,,,,,,,,,,,,,,,,,,,,,,,,,,,,,,,,,,,,,,,
,,,,,,,,,,,,l,1.208665,Incorrect,0,57,57,115,1,t2.png,t4.png,2,0.059078,19,female,2020-09-04_18h05.54.596,torte-2b,2020.1.3,Linux x86_64,60,13366,,,,,,,,,,,,,,,,,,,,,,,,,,,,,,,,,,,,,,,,,,,,,,,,,,,,,,,,,,,,,,,,,
,,,,,,,,,,,,a,0.667425,Incorrect,0,58,58,30,1,t3.png,t1.png,2,0.056466,19,female,2020-09-04_18h05.54.596,torte-2b,2020.1.3,Linux x86_64,60,13366,,,,,,,,,,,,,,,,,,,,,,,,,,,,,,,,,,,,,,,,,,,,,,,,,,,,,,,,,,,,,,,,,
,,,,,,,,,,,,l,0.629265,Correct!,0,59,59,10,1,t2.png,t3.png,1,0.90855,19,female,2020-09-04_18h05.54.596,torte-2b,2020.1.3,Linux x86_64,60,13366,,,,,,,,,,,,,,,,,,,,,,,,,,,,,,,,,,,,,,,,,,,,,,,,,,,,,,,,,,,,,,,,,
,,,,,,,,,,,,l,0.581,Incorrect,0,60,60,78,1,t1.png,t1.png,0,0.978,19,female,2020-09-04_18h05.54.596,torte-2b,2020.1.3,Linux x86_64,60,13366,,,,,,,,,,,,,,,,,,,,,,,,,,,,,,,,,,,,,,,,,,,,,,,,,,,,,,,,,,,,,,,,,
,,,,,,,,,,,,a,0.47976,Incorrect,0,61,61,72,1,t4.png,t2.png,2,0.059078,19,female,2020-09-04_18h05.54.596,torte-2b,2020.1.3,Linux x86_64,60,13366,,,,,,,,,,,,,,,,,,,,,,,,,,,,,,,,,,,,,,,,,,,,,,,,,,,,,,,,,,,,,,,,,
,,,,,,,,,,,,l,0.303365,Correct!,0,62,62,31,1,t1.png,t5.png,4,9.55E-11,19,female,2020-09-04_18h05.54.596,torte-2b,2020.1.3,Linux x86_64,60,13366,,,,,,,,,,,,,,,,,,,,,,,,,,,,,,,,,,,,,,,,,,,,,,,,,,,,,,,,,,,,,,,,,
,,,,,,,,,,,,l,0.737715,Correct!,0,63,63,41,1,t3.png,t2.png,1,0.90855,19,female,2020-09-04_18h05.54.596,torte-2b,2020.1.3,Linux x86_64,60,13366,,,,,,,,,,,,,,,,,,,,,,,,,,,,,,,,,,,,,,,,,,,,,,,,,,,,,,,,,,,,,,,,,
,,,,,,,,,,,,l,1.204915,Correct!,0,64,64,52,1,t2.png,t4.png,2,0.059078,19,female,2020-09-04_18h05.54.596,torte-2b,2020.1.3,Linux x86_64,60,13366,,,,,,,,,,,,,,,,,,,,,,,,,,,,,,,,,,,,,,,,,,,,,,,,,,,,,,,,,,,,,,,,,
,,,,,,,,,,,,a,0.85636,Correct!,0,65,65,23,1,t5.png,t4.png,1,0.90025,19,female,2020-09-04_18h05.54.596,torte-2b,2020.1.3,Linux x86_64,60,13366,,,,,,,,,,,,,,,,,,,,,,,,,,,,,,,,,,,,,,,,,,,,,,,,,,,,,,,,,,,,,,,,,
,,,,,,,,,,,,a,1.399025,Correct!,0,66,66,96,1,t1.png,t1.png,0,0.97829,19,female,2020-09-04_18h05.54.596,torte-2b,2020.1.3,Linux x86_64,60,13366,,,,,,,,,,,,,,,,,,,,,,,,,,,,,,,,,,,,,,,,,,,,,,,,,,,,,,,,,,,,,,,,,
,,,,,,,,,,,,a,1.66265,Incorrect,0,67,67,51,1,t3.png,t1.png,2,0.056466,19,female,2020-09-04_18h05.54.596,torte-2b,2020.1.3,Linux x86_64,60,13366,,,,,,,,,,,,,,,,,,,,,,,,,,,,,,,,,,,,,,,,,,,,,,,,,,,,,,,,,,,,,,,,,
,,,,,,,,,,,,l,1.168505,Incorrect,0,68,68,38,1,t3.png,t1.png,2,0.056466,19,female,2020-09-04_18h05.54.596,torte-2b,2020.1.3,Linux x86_64,60,13366,,,,,,,,,,,,,,,,,,,,,,,,,,,,,,,,,,,,,,,,,,,,,,,,,,,,,,,,,,,,,,,,,
,,,,,,,,,,,,a,1.373455,Incorrect,0,69,69,80,1,t1.png,t4.png,3,0.0000131,19,female,2020-09-04_18h05.54.596,torte-2b,2020.1.3,Linux x86_64,60,13366,,,,,,,,,,,,,,,,,,,,,,,,,,,,,,,,,,,,,,,,,,,,,,,,,,,,,,,,,,,,,,,,,
,,,,,,,,,,,,l,0.880795,Correct!,0,70,70,86,1,t3.png,t1.png,2,0.056466,19,female,2020-09-04_18h05.54.596,torte-2b,2020.1.3,Linux x86_64,60,13366,,,,,,,,,,,,,,,,,,,,,,,,,,,,,,,,,,,,,,,,,,,,,,,,,,,,,,,,,,,,,,,,,
,,,,,,,,,,,,a,0.36345,Incorrect,0,71,71,1,1,t2.png,t4.png,2,0.059078,19,female,2020-09-04_18h05.54.596,torte-2b,2020.1.3,Linux x86_64,60,13366,,,,,,,,,,,,,,,,,,,,,,,,,,,,,,,,,,,,,,,,,,,,,,,,,,,,,,,,,,,,,,,,,
,,,,,,,,,,,,l,0.7486,Incorrect,0,72,72,32,1,t4.png,t5.png,1,0.90025,19,female,2020-09-04_18h05.54.596,torte-2b,2020.1.3,Linux x86_64,60,13366,,,,,,,,,,,,,,,,,,,,,,,,,,,,,,,,,,,,,,,,,,,,,,,,,,,,,,,,,,,,,,,,,
,,,,,,,,,,,,a,0.35987,Correct!,0,73,73,18,1,t4.png,t5.png,1,0.90025,19,female,2020-09-04_18h05.54.596,torte-2b,2020.1.3,Linux x86_64,60,13366,,,,,,,,,,,,,,,,,,,,,,,,,,,,,,,,,,,,,,,,,,,,,,,,,,,,,,,,,,,,,,,,,
,,,,,,,,,,,,a,0.727745,Incorrect,0,74,74,53,1,t3.png,t1.png,2,0.056466,19,female,2020-09-04_18h05.54.596,torte-2b,2020.1.3,Linux x86_64,60,13366,,,,,,,,,,,,,,,,,,,,,,,,,,,,,,,,,,,,,,,,,,,,,,,,,,,,,,,,,,,,,,,,,
,,,,,,,,,,,,l,0.25439,Incorrect,0,75,75,58,1,t5.png,t4.png,1,0.90025,19,female,2020-09-04_18h05.54.596,torte-2b,2020.1.3,Linux x86_64,60,13366,,,,,,,,,,,,,,,,,,,,,,,,,,,,,,,,,,,,,,,,,,,,,,,,,,,,,,,,,,,,,,,,,
,,,,,,,,,,,,a,0.36526,Incorrect,0,76,76,73,1,t4.png,t2.png,2,0.059078,19,female,2020-09-04_18h05.54.596,torte-2b,2020.1.3,Linux x86_64,60,13366,,,,,,,,,,,,,,,,,,,,,,,,,,,,,,,,,,,,,,,,,,,,,,,,,,,,,,,,,,,,,,,,,
,,,,,,,,,,,,l,0.45473,Correct!,0,77,77,99,1,t1.png,t5.png,4,9.55E-11,19,female,2020-09-04_18h05.54.596,torte-2b,2020.1.3,Linux x86_64,60,13366,,,,,,,,,,,,,,,,,,,,,,,,,,,,,,,,,,,,,,,,,,,,,,,,,,,,,,,,,,,,,,,,,
,,,,,,,,,,,,l,0.277485,Incorrect,0,78,78,114,1,t2.png,t3.png,1,0.90855,19,female,2020-09-04_18h05.54.596,torte-2b,2020.1.3,Linux x86_64,60,13366,,,,,,,,,,,,,,,,,,,,,,,,,,,,,,,,,,,,,,,,,,,,,,,,,,,,,,,,,,,,,,,,,
,,,,,,,,,,,,a,0.708945,Incorrect,0,79,79,12,1,t5.png,t1.png,4,9.55E-11,19,female,2020-09-04_18h05.54.596,torte-2b,2020.1.3,Linux x86_64,60,13366,,,,,,,,,,,,,,,,,,,,,,,,,,,,,,,,,,,,,,,,,,,,,,,,,,,,,,,,,,,,,,,,,
,,,,,,,,,,,,l,0.799725,Correct!,0,80,80,54,1,t1.png,t5.png,4,9.55E-11,19,female,2020-09-04_18h05.54.596,torte-2b,2020.1.3,Linux x86_64,60,13366,,,,,,,,,,,,,,,,,,,,,,,,,,,,,,,,,,,,,,,,,,,,,,,,,,,,,,,,,,,,,,,,,
,,,,,,,,,,,,a,2.23374,Correct!,0,81,81,13,1,t5.png,t5.png,0,0.97829,19,female,2020-09-04_18h05.54.596,torte-2b,2020.1.3,Linux x86_64,60,13366,,,,,,,,,,,,,,,,,,,,,,,,,,,,,,,,,,,,,,,,,,,,,,,,,,,,,,,,,,,,,,,,,
,,,,,,,,,,,,a,0.737795,Correct!,0,82,82,16,1,t5.png,t4.png,1,0.9,19,female,2020-09-04_18h05.54.596,torte-2b,2020.1.3,Linux x86_64,60,13366,,,,,,,,,,,,,,,,,,,,,,,,,,,,,,,,,,,,,,,,,,,,,,,,,,,,,,,,,,,,,,,,,
,,,,,,,,,,,,a,1.472645,Incorrect,0,83,83,60,1,t2.png,t4.png,2,0.059078,19,female,2020-09-04_18h05.54.596,torte-2b,2020.1.3,Linux x86_64,60,13366,,,,,,,,,,,,,,,,,,,,,,,,,,,,,,,,,,,,,,,,,,,,,,,,,,,,,,,,,,,,,,,,,
,,,,,,,,,,,,l,0.50704,Correct!,0,84,84,21,1,t5.png,t4.png,1,0.90025,19,female,2020-09-04_18h05.54.596,torte-2b,2020.1.3,Linux x86_64,60,13366,,,,,,,,,,,,,,,,,,,,,,,,,,,,,,,,,,,,,,,,,,,,,,,,,,,,,,,,,,,,,,,,,
,,,,,,,,,,,,l,1.277945,Incorrect,0,85,85,28,1,t2.png,t3.png,1,0.909,19,female,2020-09-04_18h05.54.596,torte-2b,2020.1.3,Linux x86_64,60,13366,,,,,,,,,,,,,,,,,,,,,,,,,,,,,,,,,,,,,,,,,,,,,,,,,,,,,,,,,,,,,,,,,
,,,,,,,,,,,,a,0.921695,Incorrect,0,86,86,27,1,t3.png,t1.png,2,0.0565,19,female,2020-09-04_18h05.54.596,torte-2b,2020.1.3,Linux x86_64,60,13366,,,,,,,,,,,,,,,,,,,,,,,,,,,,,,,,,,,,,,,,,,,,,,,,,,,,,,,,,,,,,,,,,
,,,,,,,,,,,,l,0.88165,Correct!,0,87,87,37,1,t1.png,t4.png,3,0.0000131,19,female,2020-09-04_18h05.54.596,torte-2b,2020.1.3,Linux x86_64,60,13366,,,,,,,,,,,,,,,,,,,,,,,,,,,,,,,,,,,,,,,,,,,,,,,,,,,,,,,,,,,,,,,,,
,,,,,,,,,,,,a,0.9524,Incorrect,0,88,88,103,1,t3.png,t1.png,2,0.056466,19,female,2020-09-04_18h05.54.596,torte-2b,2020.1.3,Linux x86_64,60,13366,,,,,,,,,,,,,,,,,,,,,,,,,,,,,,,,,,,,,,,,,,,,,,,,,,,,,,,,,,,,,,,,,
,,,,,,,,,,,,l,1.6969,Correct!,0,89,89,3,1,t1.png,t5.png,4,9.55E-11,19,female,2020-09-04_18h05.54.596,torte-2b,2020.1.3,Linux x86_64,60,13366,,,,,,,,,,,,,,,,,,,,,,,,,,,,,,,,,,,,,,,,,,,,,,,,,,,,,,,,,,,,,,,,,
,,,,,,,,,,,,l,0.49338,Incorrect,0,90,90,48,1,t5.png,t5.png,0,0.97829,19,female,2020-09-04_18h05.54.596,torte-2b,2020.1.3,Linux x86_64,60,13366,,,,,,,,,,,,,,,,,,,,,,,,,,,,,,,,,,,,,,,,,,,,,,,,,,,,,,,,,,,,,,,,,
,,,,,,,,,,,,l,0.84128,Incorrect,0,91,91,66,1,t4.png,t5.png,1,0.9,19,female,2020-09-04_18h05.54.596,torte-2b,2020.1.3,Linux x86_64,60,13366,,,,,,,,,,,,,,,,,,,,,,,,,,,,,,,,,,,,,,,,,,,,,,,,,,,,,,,,,,,,,,,,,
,,,,,,,,,,,,a,0.61174,Incorrect,0,92,92,83,1,t3.png,t1.png,2,0.056466,19,female,2020-09-04_18h05.54.596,torte-2b,2020.1.3,Linux x86_64,60,13366,,,,,,,,,,,,,,,,,,,,,,,,,,,,,,,,,,,,,,,,,,,,,,,,,,,,,,,,,,,,,,,,,
,,,,,,,,,,,,a,1.587485,Incorrect,0,93,93,89,1,t1.png,t4.png,3,0.0000131,19,female,2020-09-04_18h05.54.596,torte-2b,2020.1.3,Linux x86_64,60,13366,,,,,,,,,,,,,,,,,,,,,,,,,,,,,,,,,,,,,,,,,,,,,,,,,,,,,,,,,,,,,,,,,
,,,,,,,,,,,,a,0.62363,Correct!,0,94,94,79,1,t3.png,t2.png,1,0.909,19,female,2020-09-04_18h05.54.596,torte-2b,2020.1.3,Linux x86_64,60,13366,,,,,,,,,,,,,,,,,,,,,,,,,,,,,,,,,,,,,,,,,,,,,,,,,,,,,,,,,,,,,,,,,
,,,,,,,,,,,,,,Too slow :(,0,95,95,11,1,t1.png,t4.png,3,0.0000131,19,female,2020-09-04_18h05.54.596,torte-2b,2020.1.3,Linux x86_64,60,13366,,,,,,,,,,,,,,,,,,,,,,,,,,,,,,,,,,,,,,,,,,,,,,,,,,,,,,,,,,,,,,,,,
,,,,,,,,,,,,l,0.37327,Incorrect,0,96,96,74,1,t5.png,t4.png,1,0.9,19,female,2020-09-04_18h05.54.596,torte-2b,2020.1.3,Linux x86_64,60,13366,,,,,,,,,,,,,,,,,,,,,,,,,,,,,,,,,,,,,,,,,,,,,,,,,,,,,,,,,,,,,,,,,
,,,,,,,,,,,,a,0.230425,Incorrect,0,97,97,19,1,t4.png,t2.png,2,0.059078,19,female,2020-09-04_18h05.54.596,torte-2b,2020.1.3,Linux x86_64,60,13366,,,,,,,,,,,,,,,,,,,,,,,,,,,,,,,,,,,,,,,,,,,,,,,,,,,,,,,,,,,,,,,,,
,,,,,,,,,,,,l,0.251605,Incorrect,0,98,98,39,1,t3.png,t2.png,1,0.90855,19,female,2020-09-04_18h05.54.596,torte-2b,2020.1.3,Linux x86_64,60,13366,,,,,,,,,,,,,,,,,,,,,,,,,,,,,,,,,,,,,,,,,,,,,,,,,,,,,,,,,,,,,,,,,
,,,,,,,,,,,,a,0.995995,Correct!,0,99,99,64,1,t1.png,t1.png,0,0.978,19,female,2020-09-04_18h05.54.596,torte-2b,2020.1.3,Linux x86_64,60,13366,,,,,,,,,,,,,,,,,,,,,,,,,,,,,,,,,,,,,,,,,,,,,,,,,,,,,,,,,,,,,,,,,
,,,,,,,,,,,,a,1.446145,Correct!,0,100,100,49,1,t4.png,t5.png,1,0.9,19,female,2020-09-04_18h05.54.596,torte-2b,2020.1.3,Linux x86_64,60,13366,,,,,,,,,,,,,,,,,,,,,,,,,,,,,,,,,,,,,,,,,,,,,,,,,,,,,,,,,,,,,,,,,
,,,,,,,,,,,,l,1.299485,Incorrect,0,101,101,101,1,t4.png,t5.png,1,0.90025,19,female,2020-09-04_18h05.54.596,torte-2b,2020.1.3,Linux x86_64,60,13366,,,,,,,,,,,,,,,,,,,,,,,,,,,,,,,,,,,,,,,,,,,,,,,,,,,,,,,,,,,,,,,,,
,,,,,,,,,,,,l,1.64163,Correct!,0,102,102,91,1,t1.png,t4.png,3,0.0000131,19,female,2020-09-04_18h05.54.596,torte-2b,2020.1.3,Linux x86_64,60,13366,,,,,,,,,,,,,,,,,,,,,,,,,,,,,,,,,,,,,,,,,,,,,,,,,,,,,,,,,,,,,,,,,
,,,,,,,,,,,,a,1.38446,Incorrect,0,103,103,24,1,t4.png,t2.png,2,0.059078,19,female,2020-09-04_18h05.54.596,torte-2b,2020.1.3,Linux x86_64,60,13366,,,,,,,,,,,,,,,,,,,,,,,,,,,,,,,,,,,,,,,,,,,,,,,,,,,,,,,,,,,,,,,,,
,,,,,,,,,,,,l,1.21998,Correct!,0,104,104,35,1,t1.png,t4.png,3,0.0000131,19,female,2020-09-04_18h05.54.596,torte-2b,2020.1.3,Linux x86_64,60,13366,,,,,,,,,,,,,,,,,,,,,,,,,,,,,,,,,,,,,,,,,,,,,,,,,,,,,,,,,,,,,,,,,
,,,,,,,,,,,,l,0.866325,Correct!,0,105,105,87,1,t5.png,t1.png,4,9.55E-11,19,female,2020-09-04_18h05.54.596,torte-2b,2020.1.3,Linux x86_64,60,13366,,,,,,,,,,,,,,,,,,,,,,,,,,,,,,,,,,,,,,,,,,,,,,,,,,,,,,,,,,,,,,,,,
,,,,,,,,,,,,l,0.8598,Correct!,0,106,106,14,1,t2.png,t4.png,2,0.059078,19,female,2020-09-04_18h05.54.596,torte-2b,2020.1.3,Linux x86_64,60,13366,,,,,,,,,,,,,,,,,,,,,,,,,,,,,,,,,,,,,,,,,,,,,,,,,,,,,,,,,,,,,,,,,
,,,,,,,,,,,,a,1.14243,Correct!,0,107,107,2,1,t3.png,t2.png,1,0.90855,19,female,2020-09-04_18h05.54.596,torte-2b,2020.1.3,Linux x86_64,60,13366,,,,,,,,,,,,,,,,,,,,,,,,,,,,,,,,,,,,,,,,,,,,,,,,,,,,,,,,,,,,,,,,,
,,,,,,,,,,,,a,1.49486,Correct!,0,108,108,107,1,t1.png,t1.png,0,0.978,19,female,2020-09-04_18h05.54.596,torte-2b,2020.1.3,Linux x86_64,60,13366,,,,,,,,,,,,,,,,,,,,,,,,,,,,,,,,,,,,,,,,,,,,,,,,,,,,,,,,,,,,,,,,,
,,,,,,,,,,,,a,1.55101,Incorrect,0,109,109,98,1,t2.png,t4.png,2,0.0591,19,female,2020-09-04_18h05.54.596,torte-2b,2020.1.3,Linux x86_64,60,13366,,,,,,,,,,,,,,,,,,,,,,,,,,,,,,,,,,,,,,,,,,,,,,,,,,,,,,,,,,,,,,,,,
,,,,,,,,,,,,l,0.66196,Correct!,0,110,110,88,1,t3.png,t1.png,2,0.056466,19,female,2020-09-04_18h05.54.596,torte-2b,2020.1.3,Linux x86_64,60,13366,,,,,,,,,,,,,,,,,,,,,,,,,,,,,,,,,,,,,,,,,,,,,,,,,,,,,,,,,,,,,,,,,
,,,,,,,,,,,,l,1.10299,Correct!,0,111,111,90,1,t1.png,t5.png,4,9.55E-11,19,female,2020-09-04_18h05.54.596,torte-2b,2020.1.3,Linux x86_64,60,13366,,,,,,,,,,,,,,,,,,,,,,,,,,,,,,,,,,,,,,,,,,,,,,,,,,,,,,,,,,,,,,,,,
,,,,,,,,,,,,l,0.976255,Correct!,0,112,112,36,1,t3.png,t1.png,2,0.0565,19,female,2020-09-04_18h05.54.596,torte-2b,2020.1.3,Linux x86_64,60,13366,,,,,,,,,,,,,,,,,,,,,,,,,,,,,,,,,,,,,,,,,,,,,,,,,,,,,,,,,,,,,,,,,
,,,,,,,,,,,,l,1.16735,Incorrect,0,113,113,116,1,t5.png,t4.png,1,0.90025,19,female,2020-09-04_18h05.54.596,torte-2b,2020.1.3,Linux x86_64,60,13366,,,,,,,,,,,,,,,,,,,,,,,,,,,,,,,,,,,,,,,,,,,,,,,,,,,,,,,,,,,,,,,,,
,,,,,,,,,,,,a,1.158915,Correct!,0,114,114,22,1,t2.png,t3.png,1,0.90855,19,female,2020-09-04_18h05.54.596,torte-2b,2020.1.3,Linux x86_64,60,13366,,,,,,,,,,,,,,,,,,,,,,,,,,,,,,,,,,,,,,,,,,,,,,,,,,,,,,,,,,,,,,,,,
,,,,,,,,,,,,a,1.354805,Correct!,0,115,115,118,1,t5.png,t5.png,0,0.978,19,female,2020-09-04_18h05.54.596,torte-2b,2020.1.3,Linux x86_64,60,13366,,,,,,,,,,,,,,,,,,,,,,,,,,,,,,,,,,,,,,,,,,,,,,,,,,,,,,,,,,,,,,,,,
,,,,,,,,,,,,l,0.47744,Incorrect,0,116,116,113,1,t5.png,t4.png,1,0.9,19,female,2020-09-04_18h05.54.596,torte-2b,2020.1.3,Linux x86_64,60,13366,,,,,,,,,,,,,,,,,,,,,,,,,,,,,,,,,,,,,,,,,,,,,,,,,,,,,,,,,,,,,,,,,
,,,,,,,,,,,,a,0.32619,Correct!,0,117,117,100,1,t4.png,t5.png,1,0.90025,19,female,2020-09-04_18h05.54.596,torte-2b,2020.1.3,Linux x86_64,60,13366,,,,,,,,,,,,,,,,,,,,,,,,,,,,,,,,,,,,,,,,,,,,,,,,,,,,,,,,,,,,,,,,,
,,,,,,,,,,,,l,0.43084,Correct!,0,118,118,93,1,t2.png,t4.png,2,0.059078,19,female,2020-09-04_18h05.54.596,torte-2b,2020.1.3,Linux x86_64,60,13366,,,,,,,,,,,,,,,,,,,,,,,,,,,,,,,,,,,,,,,,,,,,,,,,,,,,,,,,,,,,,,,,,
,,,,,,,,,,,,a,0.28119,Correct!,0,119,119,63,1,t2.png,t3.png,1,0.909,19,female,2020-09-04_18h05.54.596,torte-2b,2020.1.3,Linux x86_64,60,13366,,,,,,,,,,,,,,,,,,,,,,,,,,,,,,,,,,,,,,,,,,,,,,,,,,,,,,,,,,,,,,,,,
,,,,,,,,,,,,l,0.849805,Correct!,,,,,,t2.png,t5.png,3,0.0000131,19,female,2020-09-04_18h05.54.596,torte-2b,2020.1.3,Linux x86_64,60,13366,k,2.75084,k,6.78953,0,0,0,66,1,,,,,,,,,,,,,,,,,,,,,,,,,,,,,,,,,,,,,,,,,,,,,,,,,,,,,,,,
,,,,,,,,,,,,l,0.899005,Correct!,,,,,,t5.png,t2.png,3,0.0000131,19,female,2020-09-04_18h05.54.596,torte-2b,2020.1.3,Linux x86_64,60,13366,,,,,0,1,1,98,1,,,,,,,,,,,,,,,,,,,,,,,,,,,,,,,,,,,,,,,,,,,,,,,,,,,,,,,,
,,,,,,,,,,,,l,0.755465,Incorrect,,,,,,t5.png,t4.png,1,0.9,19,female,2020-09-04_18h05.54.596,torte-2b,2020.1.3,Linux x86_64,60,13366,,,,,0,2,2,76,1,,,,,,,,,,,,,,,,,,,,,,,,,,,,,,,,,,,,,,,,,,,,,,,,,,,,,,,,
,,,,,,,,,,,,a,1.192205,Incorrect,,,,,,t1.png,t5.png,4,9.55E-11,19,female,2020-09-04_18h05.54.596,torte-2b,2020.1.3,Linux x86_64,60,13366,,,,,0,3,3,55,1,,,,,,,,,,,,,,,,,,,,,,,,,,,,,,,,,,,,,,,,,,,,,,,,,,,,,,,,
,,,,,,,,,,,,a,1.20557,Correct!,,,,,,t2.png,t2.png,0,0.98115,19,female,2020-09-04_18h05.54.596,torte-2b,2020.1.3,Linux x86_64,60,13366,,,,,0,4,4,2,1,,,,,,,,,,,,,,,,,,,,,,,,,,,,,,,,,,,,,,,,,,,,,,,,,,,,,,,,
,,,,,,,,,,,,l,0.946475,Incorrect,,,,,,t5.png,t5.png,0,0.97829,19,female,2020-09-04_18h05.54.596,torte-2b,2020.1.3,Linux x86_64,60,13366,,,,,0,5,5,70,1,,,,,,,,,,,,,,,,,,,,,,,,,,,,,,,,,,,,,,,,,,,,,,,,,,,,,,,,
,,,,,,,,,,,,l,1.270285,Incorrect,,,,,,t2.png,t1.png,1,0.90025,19,female,2020-09-04_18h05.54.596,torte-2b,2020.1.3,Linux x86_64,60,13366,,,,,0,6,6,4,1,,,,,,,,,,,,,,,,,,,,,,,,,,,,,,,,,,,,,,,,,,,,,,,,,,,,,,,,
,,,,,,,,,,,,l,0.420075,Incorrect,,,,,,t2.png,t3.png,1,0.909,19,female,2020-09-04_18h05.54.596,torte-2b,2020.1.3,Linux x86_64,60,13366,,,,,0,7,7,74,1,,,,,,,,,,,,,,,,,,,,,,,,,,,,,,,,,,,,,,,,,,,,,,,,,,,,,,,,
,,,,,,,,,,,,l,0.41395,Correct!,,,,,,t4.png,t1.png,3,0.0000131,19,female,2020-09-04_18h05.54.596,torte-2b,2020.1.3,Linux x86_64,60,13366,,,,,0,8,8,93,1,,,,,,,,,,,,,,,,,,,,,,,,,,,,,,,,,,,,,,,,,,,,,,,,,,,,,,,,
,,,,,,,,,,,,a,0.442395,Correct!,,,,,,t3.png,t2.png,1,0.90855,19,female,2020-09-04_18h05.54.596,torte-2b,2020.1.3,Linux x86_64,60,13366,,,,,0,9,9,18,1,,,,,,,,,,,,,,,,,,,,,,,,,,,,,,,,,,,,,,,,,,,,,,,,,,,,,,,,
,,,,,,,,,,,,l,0.361275,Incorrect,,,,,,t4.png,t4.png,0,0.98115,19,female,2020-09-04_18h05.54.596,torte-2b,2020.1.3,Linux x86_64,60,13366,,,,,0,10,10,52,1,,,,,,,,,,,,,,,,,,,,,,,,,,,,,,,,,,,,,,,,,,,,,,,,,,,,,,,,
,,,,,,,,,,,,a,0.856055,Correct!,,,,,,t1.png,t1.png,0,0.97829,19,female,2020-09-04_18h05.54.596,torte-2b,2020.1.3,Linux x86_64,60,13366,,,,,0,11,11,78,1,,,,,,,,,,,,,,,,,,,,,,,,,,,,,,,,,,,,,,,,,,,,,,,,,,,,,,,,
,,,,,,,,,,,,a,0.862445,Incorrect,,,,,,t5.png,t3.png,2,0.056466,19,female,2020-09-04_18h05.54.596,torte-2b,2020.1.3,Linux x86_64,60,13366,,,,,0,12,12,56,1,,,,,,,,,,,,,,,,,,,,,,,,,,,,,,,,,,,,,,,,,,,,,,,,,,,,,,,,
,,,,,,,,,,,,a,0.87442,Incorrect,,,,,,t1.png,t3.png,2,0.056466,19,female,2020-09-04_18h05.54.596,torte-2b,2020.1.3,Linux x86_64,60,13366,,,,,0,13,13,69,1,,,,,,,,,,,,,,,,,,,,,,,,,,,,,,,,,,,,,,,,,,,,,,,,,,,,,,,,
,,,,,,,,,,,,l,0.974235,Correct!,,,,,,t5.png,t2.png,3,0.0000131,19,female,2020-09-04_18h05.54.596,torte-2b,2020.1.3,Linux x86_64,60,13366,,,,,0,14,14,91,1,,,,,,,,,,,,,,,,,,,,,,,,,,,,,,,,,,,,,,,,,,,,,,,,,,,,,,,,
,,,,,,,,,,,,a,1.09832,Correct!,,,,,,t4.png,t4.png,0,0.98115,19,female,2020-09-04_18h05.54.596,torte-2b,2020.1.3,Linux x86_64,60,13366,,,,,0,15,15,21,1,,,,,,,,,,,,,,,,,,,,,,,,,,,,,,,,,,,,,,,,,,,,,,,,,,,,,,,,
,,,,,,,,,,,,l,0.740545,Correct!,,,,,,t1.png,t3.png,2,0.056466,19,female,2020-09-04_18h05.54.596,torte-2b,2020.1.3,Linux x86_64,60,13366,,,,,0,16,16,60,1,,,,,,,,,,,,,,,,,,,,,,,,,,,,,,,,,,,,,,,,,,,,,,,,,,,,,,,,
,,,,,,,,,,,,l,0.63558,Incorrect,,,,,,t1.png,t2.png,1,0.90025,19,female,2020-09-04_18h05.54.596,torte-2b,2020.1.3,Linux x86_64,60,13366,,,,,0,17,17,33,1,,,,,,,,,,,,,,,,,,,,,,,,,,,,,,,,,,,,,,,,,,,,,,,,,,,,,,,,
,,,,,,,,,,,,a,0.539935,Incorrect,,,,,,t1.png,t4.png,3,0.0000131,19,female,2020-09-04_18h05.54.596,torte-2b,2020.1.3,Linux x86_64,60,13366,,,,,0,18,18,17,1,,,,,,,,,,,,,,,,,,,,,,,,,,,,,,,,,,,,,,,,,,,,,,,,,,,,,,,,
,,,,,,,,,,,,l,0.577195,Correct!,,,,,,t4.png,t2.png,2,0.059078,19,female,2020-09-04_18h05.54.596,torte-2b,2020.1.3,Linux x86_64,60,13366,,,,,0,19,19,86,1,,,,,,,,,,,,,,,,,,,,,,,,,,,,,,,,,,,,,,,,,,,,,,,,,,,,,,,,
,,,,,,,,,,,,l,0.7365,Correct!,,,,,,t5.png,t3.png,2,0.056466,19,female,2020-09-04_18h05.54.596,torte-2b,2020.1.3,Linux x86_64,60,13366,,,,,0,20,20,38,1,,,,,,,,,,,,,,,,,,,,,,,,,,,,,,,,,,,,,,,,,,,,,,,,,,,,,,,,
,,,,,,,,,,,,a,0.5742,Correct!,,,,,,t3.png,t4.png,1,0.90855,19,female,2020-09-04_18h05.54.596,torte-2b,2020.1.3,Linux x86_64,60,13366,,,,,0,21,21,96,1,,,,,,,,,,,,,,,,,,,,,,,,,,,,,,,,,,,,,,,,,,,,,,,,,,,,,,,,
,,,,,,,,,,,,a,0.753985,Correct!,,,,,,t5.png,t4.png,1,0.9,19,female,2020-09-04_18h05.54.596,torte-2b,2020.1.3,Linux x86_64,60,13366,,,,,0,22,22,49,1,,,,,,,,,,,,,,,,,,,,,,,,,,,,,,,,,,,,,,,,,,,,,,,,,,,,,,,,
,,,,,,,,,,,,l,0.30231,Incorrect,,,,,,t4.png,t3.png,1,0.909,19,female,2020-09-04_18h05.54.596,torte-2b,2020.1.3,Linux x86_64,60,13366,,,,,0,23,23,46,1,,,,,,,,,,,,,,,,,,,,,,,,,,,,,,,,,,,,,,,,,,,,,,,,,,,,,,,,
,,,,,,,,,,,,a,0.39371,Correct!,,,,,,t3.png,t2.png,1,0.90855,19,female,2020-09-04_18h05.54.596,torte-2b,2020.1.3,Linux x86_64,60,13366,,,,,0,24,24,53,1,,,,,,,,,,,,,,,,,,,,,,,,,,,,,,,,,,,,,,,,,,,,,,,,,,,,,,,,
,,,,,,,,,,,,a,0.845,Incorrect,,,,,,t1.png,t3.png,2,0.056466,19,female,2020-09-04_18h05.54.596,torte-2b,2020.1.3,Linux x86_64,60,13366,,,,,0,25,25,63,1,,,,,,,,,,,,,,,,,,,,,,,,,,,,,,,,,,,,,,,,,,,,,,,,,,,,,,,,
,,,,,,,,,,,,l,0.504155,Correct!,,,,,,t4.png,t2.png,2,0.059078,19,female,2020-09-04_18h05.54.596,torte-2b,2020.1.3,Linux x86_64,60,13366,,,,,0,26,26,110,1,,,,,,,,,,,,,,,,,,,,,,,,,,,,,,,,,,,,,,,,,,,,,,,,,,,,,,,,
,,,,,,,,,,,,l,0.607735,Incorrect,,,,,,t2.png,t2.png,0,0.98115,19,female,2020-09-04_18h05.54.596,torte-2b,2020.1.3,Linux x86_64,60,13366,,,,,0,27,27,59,1,,,,,,,,,,,,,,,,,,,,,,,,,,,,,,,,,,,,,,,,,,,,,,,,,,,,,,,,
,,,,,,,,,,,,l,1.02218,Incorrect,,,,,,t1.png,t2.png,1,0.90025,19,female,2020-09-04_18h05.54.596,torte-2b,2020.1.3,Linux x86_64,60,13366,,,,,0,28,28,112,1,,,,,,,,,,,,,,,,,,,,,,,,,,,,,,,,,,,,,,,,,,,,,,,,,,,,,,,,
,,,,,,,,,,,,a,0.98867,Correct!,,,,,,t5.png,t5.png,0,0.97829,19,female,2020-09-04_18h05.54.596,torte-2b,2020.1.3,Linux x86_64,60,13366,,,,,0,29,29,73,1,,,,,,,,,,,,,,,,,,,,,,,,,,,,,,,,,,,,,,,,,,,,,,,,,,,,,,,,
,,,,,,,,,,,,l,1.29,Incorrect,,,,,,t2.png,t2.png,0,0.981,19,female,2020-09-04_18h05.54.596,torte-2b,2020.1.3,Linux x86_64,60,13366,,,,,0,30,30,101,1,,,,,,,,,,,,,,,,,,,,,,,,,,,,,,,,,,,,,,,,,,,,,,,,,,,,,,,,
,,,,,,,,,,,,l,0.53884,Incorrect,,,,,,t1.png,t2.png,1,0.9,19,female,2020-09-04_18h05.54.596,torte-2b,2020.1.3,Linux x86_64,60,13366,,,,,0,31,31,1,1,,,,,,,,,,,,,,,,,,,,,,,,,,,,,,,,,,,,,,,,,,,,,,,,,,,,,,,,
,,,,,,,,,,,,l,0.480895,Correct!,,,,,,t2.png,t5.png,3,0.0000131,19,female,2020-09-04_18h05.54.596,torte-2b,2020.1.3,Linux x86_64,60,13366,,,,,0,32,32,95,1,,,,,,,,,,,,,,,,,,,,,,,,,,,,,,,,,,,,,,,,,,,,,,,,,,,,,,,,
,,,,,,,,,,,,l,0.308745,Incorrect,,,,,,t3.png,t2.png,1,0.90855,19,female,2020-09-04_18h05.54.596,torte-2b,2020.1.3,Linux x86_64,60,13366,,,,,0,33,33,97,1,,,,,,,,,,,,,,,,,,,,,,,,,,,,,,,,,,,,,,,,,,,,,,,,,,,,,,,,
,,,,,,,,,,,,l,0.629475,Incorrect,,,,,,t5.png,t5.png,0,0.97829,19,female,2020-09-04_18h05.54.596,torte-2b,2020.1.3,Linux x86_64,60,13366,,,,,0,34,34,94,1,,,,,,,,,,,,,,,,,,,,,,,,,,,,,,,,,,,,,,,,,,,,,,,,,,,,,,,,
,,,,,,,,,,,,a,0.52232,Correct!,,,,,,t1.png,t1.png,0,0.978,19,female,2020-09-04_18h05.54.596,torte-2b,2020.1.3,Linux x86_64,60,13366,,,,,0,35,35,28,1,,,,,,,,,,,,,,,,,,,,,,,,,,,,,,,,,,,,,,,,,,,,,,,,,,,,,,,,
,,,,,,,,,,,,l,0.424235,Correct!,,,,,,t3.png,t5.png,2,0.056466,19,female,2020-09-04_18h05.54.596,torte-2b,2020.1.3,Linux x86_64,60,13366,,,,,0,36,36,14,1,,,,,,,,,,,,,,,,,,,,,,,,,,,,,,,,,,,,,,,,,,,,,,,,,,,,,,,,
,,,,,,,,,,,,a,0.35668,Incorrect,,,,,,t4.png,t2.png,2,0.0591,19,female,2020-09-04_18h05.54.596,torte-2b,2020.1.3,Linux x86_64,60,13366,,,,,0,37,37,36,1,,,,,,,,,,,,,,,,,,,,,,,,,,,,,,,,,,,,,,,,,,,,,,,,,,,,,,,,
,,,,,,,,,,,,l,0.35164,Correct!,,,,,,t3.png,t5.png,2,0.056466,19,female,2020-09-04_18h05.54.596,torte-2b,2020.1.3,Linux x86_64,60,13366,,,,,0,38,38,44,1,,,,,,,,,,,,,,,,,,,,,,,,,,,,,,,,,,,,,,,,,,,,,,,,,,,,,,,,
,,,,,,,,,,,,a,0.66644,Correct!,,,,,,t4.png,t5.png,1,0.90025,19,female,2020-09-04_18h05.54.596,torte-2b,2020.1.3,Linux x86_64,60,13366,,,,,0,39,39,47,1,,,,,,,,,,,,,,,,,,,,,,,,,,,,,,,,,,,,,,,,,,,,,,,,,,,,,,,,
,,,,,,,,,,,,a,0.299125,Incorrect,,,,,,t5.png,t1.png,4,9.55E-11,19,female,2020-09-04_18h05.54.596,torte-2b,2020.1.3,Linux x86_64,60,13366,,,,,0,40,40,22,1,,,,,,,,,,,,,,,,,,,,,,,,,,,,,,,,,,,,,,,,,,,,,,,,,,,,,,,,
,,,,,,,,,,,,l,0.52395,Correct!,,,,,,t3.png,t1.png,2,0.0565,19,female,2020-09-04_18h05.54.596,torte-2b,2020.1.3,Linux x86_64,60,13366,,,,,0,41,41,31,1,,,,,,,,,,,,,,,,,,,,,,,,,,,,,,,,,,,,,,,,,,,,,,,,,,,,,,,,
,,,,,,,,,,,,l,0.676065,Correct!,,,,,,t4.png,t1.png,3,0.0000131,19,female,2020-09-04_18h05.54.596,torte-2b,2020.1.3,Linux x86_64,60,13366,,,,,0,42,42,13,1,,,,,,,,,,,,,,,,,,,,,,,,,,,,,,,,,,,,,,,,,,,,,,,,,,,,,,,,
,,,,,,,,,,,,a,0.679755,Incorrect,,,,,,t2.png,t4.png,2,0.0591,19,female,2020-09-04_18h05.54.596,torte-2b,2020.1.3,Linux x86_64,60,13366,,,,,0,43,43,15,1,,,,,,,,,,,,,,,,,,,,,,,,,,,,,,,,,,,,,,,,,,,,,,,,,,,,,,,,
,,,,,,,,,,,,l,0.372465,Correct!,,,,,,t1.png,t4.png,3,0.0000131,19,female,2020-09-04_18h05.54.596,torte-2b,2020.1.3,Linux x86_64,60,13366,,,,,0,44,44,50,1,,,,,,,,,,,,,,,,,,,,,,,,,,,,,,,,,,,,,,,,,,,,,,,,,,,,,,,,
,,,,,,,,,,,,l,0.740995,Incorrect,,,,,,t3.png,t2.png,1,0.909,19,female,2020-09-04_18h05.54.596,torte-2b,2020.1.3,Linux x86_64,60,13366,,,,,0,45,45,3,1,,,,,,,,,,,,,,,,,,,,,,,,,,,,,,,,,,,,,,,,,,,,,,,,,,,,,,,,
,,,,,,,,,,,,l,0.67969,Incorrect,,,,,,t2.png,t1.png,1,0.90025,19,female,2020-09-04_18h05.54.596,torte-2b,2020.1.3,Linux x86_64,60,13366,,,,,0,46,46,62,1,,,,,,,,,,,,,,,,,,,,,,,,,,,,,,,,,,,,,,,,,,,,,,,,,,,,,,,,
,,,,,,,,,,,,a,1.440275,Incorrect,,,,,,t1.png,t3.png,2,0.056466,19,female,2020-09-04_18h05.54.596,torte-2b,2020.1.3,Linux x86_64,60,13366,,,,,0,47,47,87,1,,,,,,,,,,,,,,,,,,,,,,,,,,,,,,,,,,,,,,,,,,,,,,,,,,,,,,,,
,,,,,,,,,,,,l,0.824815,Correct!,,,,,,t5.png,t3.png,2,0.056466,19,female,2020-09-04_18h05.54.596,torte-2b,2020.1.3,Linux x86_64,60,13366,,,,,0,48,48,108,1,,,,,,,,,,,,,,,,,,,,,,,,,,,,,,,,,,,,,,,,,,,,,,,,,,,,,,,,
,,,,,,,,,,,,l,0.78108,Correct!,,,,,,t3.png,t1.png,2,0.056466,19,female,2020-09-04_18h05.54.596,torte-2b,2020.1.3,Linux x86_64,60,13366,,,,,0,49,49,0,1,,,,,,,,,,,,,,,,,,,,,,,,,,,,,,,,,,,,,,,,,,,,,,,,,,,,,,,,
,,,,,,,,,,,,a,0.845625,Incorrect,,,,,,t4.png,t3.png,1,0.909,19,female,2020-09-04_18h05.54.596,torte-2b,2020.1.3,Linux x86_64,60,13366,,,,,0,50,50,20,1,,,,,,,,,,,,,,,,,,,,,,,,,,,,,,,,,,,,,,,,,,,,,,,,,,,,,,,,
,,,,,,,,,,,,l,0.804315,Correct!,,,,,,t4.png,t1.png,3,0.0000131,19,female,2020-09-04_18h05.54.596,torte-2b,2020.1.3,Linux x86_64,60,13366,,,,,0,51,51,61,1,,,,,,,,,,,,,,,,,,,,,,,,,,,,,,,,,,,,,,,,,,,,,,,,,,,,,,,,
,,,,,,,,,,,,l,0.65744,Correct!,,,,,,t3.png,t1.png,2,0.056466,19,female,2020-09-04_18h05.54.596,torte-2b,2020.1.3,Linux x86_64,60,13366,,,,,0,52,52,32,1,,,,,,,,,,,,,,,,,,,,,,,,,,,,,,,,,,,,,,,,,,,,,,,,,,,,,,,,
,,,,,,,,,,,,a,1.034085,Correct!,,,,,,t5.png,t4.png,1,0.90025,19,female,2020-09-04_18h05.54.596,torte-2b,2020.1.3,Linux x86_64,60,13366,,,,,0,53,53,26,1,,,,,,,,,,,,,,,,,,,,,,,,,,,,,,,,,,,,,,,,,,,,,,,,,,,,,,,,
,,,,,,,,,,,,l,0.70801,Incorrect,,,,,,t2.png,t1.png,1,0.90025,19,female,2020-09-04_18h05.54.596,torte-2b,2020.1.3,Linux x86_64,60,13366,,,,,0,54,54,5,1,,,,,,,,,,,,,,,,,,,,,,,,,,,,,,,,,,,,,,,,,,,,,,,,,,,,,,,,
,,,,,,,,,,,,a,1.087385,Correct!,,,,,,t1.png,t1.png,0,0.97829,19,female,2020-09-04_18h05.54.596,torte-2b,2020.1.3,Linux x86_64,60,13366,,,,,0,55,55,67,1,,,,,,,,,,,,,,,,,,,,,,,,,,,,,,,,,,,,,,,,,,,,,,,,,,,,,,,,
,,,,,,,,,,,,a,0.56349,Correct!,,,,,,t4.png,t5.png,1,0.9,19,female,2020-09-04_18h05.54.596,torte-2b,2020.1.3,Linux x86_64,60,13366,,,,,0,56,56,115,1,,,,,,,,,,,,,,,,,,,,,,,,,,,,,,,,,,,,,,,,,,,,,,,,,,,,,,,,
,,,,,,,,,,,,l,0.298675,Correct!,,,,,,t3.png,t5.png,2,0.0565,19,female,2020-09-04_18h05.54.596,torte-2b,2020.1.3,Linux x86_64,60,13366,,,,,0,57,57,30,1,,,,,,,,,,,,,,,,,,,,,,,,,,,,,,,,,,,,,,,,,,,,,,,,,,,,,,,,
,,,,,,,,,,,,l,0.48066,Correct!,,,,,,t1.png,t4.png,3,0.0000131,19,female,2020-09-04_18h05.54.596,torte-2b,2020.1.3,Linux x86_64,60,13366,,,,,0,58,58,107,1,,,,,,,,,,,,,,,,,,,,,,,,,,,,,,,,,,,,,,,,,,,,,,,,,,,,,,,,
,,,,,,,,,,,,a,0.487625,Correct!,,,,,,t2.png,t2.png,0,0.98115,19,female,2020-09-04_18h05.54.596,torte-2b,2020.1.3,Linux x86_64,60,13366,,,,,0,59,59,57,1,,,,,,,,,,,,,,,,,,,,,,,,,,,,,,,,,,,,,,,,,,,,,,,,,,,,,,,,
,,,,,,,,,,,,a,1.440955,Correct!,,,,,,t2.png,t3.png,1,0.90855,19,female,2020-09-04_18h05.54.596,torte-2b,2020.1.3,Linux x86_64,60,13366,,,,,0,60,60,10,1,,,,,,,,,,,,,,,,,,,,,,,,,,,,,,,,,,,,,,,,,,,,,,,,,,,,,,,,
,,,,,,,,,,,,l,0.42685,Correct!,,,,,,t5.png,t2.png,3,0.0000131,19,female,2020-09-04_18h05.54.596,torte-2b,2020.1.3,Linux x86_64,60,13366,,,,,0,61,61,116,1,,,,,,,,,,,,,,,,,,,,,,,,,,,,,,,,,,,,,,,,,,,,,,,,,,,,,,,,
,,,,,,,,,,,,l,0.40764,Incorrect,,,,,,t4.png,t5.png,1,0.90025,19,female,2020-09-04_18h05.54.596,torte-2b,2020.1.3,Linux x86_64,60,13366,,,,,0,62,62,58,1,,,,,,,,,,,,,,,,,,,,,,,,,,,,,,,,,,,,,,,,,,,,,,,,,,,,,,,,
,,,,,,,,,,,,l,0.38088,Correct!,,,,,,t5.png,t1.png,4,9.55E-11,19,female,2020-09-04_18h05.54.596,torte-2b,2020.1.3,Linux x86_64,60,13366,,,,,0,63,63,43,1,,,,,,,,,,,,,,,,,,,,,,,,,,,,,,,,,,,,,,,,,,,,,,,,,,,,,,,,
,,,,,,,,,,,,a,0.761395,Incorrect,,,,,,t1.png,t4.png,3,0.0000131,19,female,2020-09-04_18h05.54.596,torte-2b,2020.1.3,Linux x86_64,60,13366,,,,,0,64,64,81,1,,,,,,,,,,,,,,,,,,,,,,,,,,,,,,,,,,,,,,,,,,,,,,,,,,,,,,,,
,,,,,,,,,,,,l,0.6372,Incorrect,,,,,,t4.png,t3.png,1,0.90855,19,female,2020-09-04_18h05.54.596,torte-2b,2020.1.3,Linux x86_64,60,13366,,,,,0,65,65,75,1,,,,,,,,,,,,,,,,,,,,,,,,,,,,,,,,,,,,,,,,,,,,,,,,,,,,,,,,
,,,,,,,,,,,,l,0.453925,Incorrect,,,,,,t2.png,t3.png,1,0.90855,19,female,2020-09-04_18h05.54.596,torte-2b,2020.1.3,Linux x86_64,60,13366,,,,,0,66,66,111,1,,,,,,,,,,,,,,,,,,,,,,,,,,,,,,,,,,,,,,,,,,,,,,,,,,,,,,,,
,,,,,,,,,,,,a,0.47425,Incorrect,,,,,,t2.png,t4.png,2,0.059078,19,female,2020-09-04_18h05.54.596,torte-2b,2020.1.3,Linux x86_64,60,13366,,,,,0,67,67,24,1,,,,,,,,,,,,,,,,,,,,,,,,,,,,,,,,,,,,,,,,,,,,,,,,,,,,,,,,
,,,,,,,,,,,,l,0.606275,Incorrect,,,,,,t3.png,t4.png,1,0.909,19,female,2020-09-04_18h05.54.596,torte-2b,2020.1.3,Linux x86_64,60,13366,,,,,0,68,68,82,1,,,,,,,,,,,,,,,,,,,,,,,,,,,,,,,,,,,,,,,,,,,,,,,,,,,,,,,,
,,,,,,,,,,,,a,0.641725,Incorrect,,,,,,t5.png,t4.png,1,0.90025,19,female,2020-09-04_18h05.54.596,torte-2b,2020.1.3,Linux x86_64,60,13366,,,,,0,69,69,34,1,,,,,,,,,,,,,,,,,,,,,,,,,,,,,,,,,,,,,,,,,,,,,,,,,,,,,,,,
,,,,,,,,,,,,l,0.587105,Correct!,,,,,,t5.png,t3.png,2,0.056466,19,female,2020-09-04_18h05.54.596,torte-2b,2020.1.3,Linux x86_64,60,13366,,,,,0,70,70,114,1,,,,,,,,,,,,,,,,,,,,,,,,,,,,,,,,,,,,,,,,,,,,,,,,,,,,,,,,
,,,,,,,,,,,,a,0.501375,Incorrect,,,,,,t1.png,t5.png,4,9.55E-11,19,female,2020-09-04_18h05.54.596,torte-2b,2020.1.3,Linux x86_64,60,13366,,,,,0,71,71,41,1,,,,,,,,,,,,,,,,,,,,,,,,,,,,,,,,,,,,,,,,,,,,,,,,,,,,,,,,
,,,,,,,,,,,,a,1.228805,Correct!,,,,,,t2.png,t3.png,1,0.90855,19,female,2020-09-04_18h05.54.596,torte-2b,2020.1.3,Linux x86_64,60,13366,,,,,0,72,72,65,1,,,,,,,,,,,,,,,,,,,,,,,,,,,,,,,,,,,,,,,,,,,,,,,,,,,,,,,,
,,,,,,,,,,,,l,0.5623,Incorrect,,,,,,t4.png,t3.png,1,0.90855,19,female,2020-09-04_18h05.54.596,torte-2b,2020.1.3,Linux x86_64,60,13366,,,,,0,73,73,35,1,,,,,,,,,,,,,,,,,,,,,,,,,,,,,,,,,,,,,,,,,,,,,,,,,,,,,,,,
,,,,,,,,,,,,a,0.652275,Correct!,,,,,,t4.png,t4.png,0,0.98115,19,female,2020-09-04_18h05.54.596,torte-2b,2020.1.3,Linux x86_64,60,13366,,,,,0,74,74,79,1,,,,,,,,,,,,,,,,,,,,,,,,,,,,,,,,,,,,,,,,,,,,,,,,,,,,,,,,
,,,,,,,,,,,,l,0.436535,Correct!,,,,,,t4.png,t1.png,3,0.0000131,19,female,2020-09-04_18h05.54.596,torte-2b,2020.1.3,Linux x86_64,60,13366,,,,,0,75,75,48,1,,,,,,,,,,,,,,,,,,,,,,,,,,,,,,,,,,,,,,,,,,,,,,,,,,,,,,,,
,,,,,,,,,,,,a,0.673385,Incorrect,,,,,,t1.png,t5.png,4,9.55E-11,19,female,2020-09-04_18h05.54.596,torte-2b,2020.1.3,Linux x86_64,60,13366,,,,,0,76,76,85,1,,,,,,,,,,,,,,,,,,,,,,,,,,,,,,,,,,,,,,,,,,,,,,,,,,,,,,,,
,,,,,,,,,,,,a,0.704935,Incorrect,,,,,,t2.png,t5.png,3,0.0000131,19,female,2020-09-04_18h05.54.596,torte-2b,2020.1.3,Linux x86_64,60,13366,,,,,0,77,77,40,1,,,,,,,,,,,,,,,,,,,,,,,,,,,,,,,,,,,,,,,,,,,,,,,,,,,,,,,,
,,,,,,,,,,,,l,0.43269,Correct!,,,,,,t5.png,t2.png,3,0.0000131,19,female,2020-09-04_18h05.54.596,torte-2b,2020.1.3,Linux x86_64,60,13366,,,,,0,78,78,51,1,,,,,,,,,,,,,,,,,,,,,,,,,,,,,,,,,,,,,,,,,,,,,,,,,,,,,,,,
,,,,,,,,,,,,a,0.944535,Correct!,,,,,,t4.png,t5.png,1,0.90025,19,female,2020-09-04_18h05.54.596,torte-2b,2020.1.3,Linux x86_64,60,13366,,,,,0,79,79,113,1,,,,,,,,,,,,,,,,,,,,,,,,,,,,,,,,,,,,,,,,,,,,,,,,,,,,,,,,
,,,,,,,,,,,,a,0.897385,Incorrect,,,,,,t3.png,t5.png,2,0.0565,19,female,2020-09-04_18h05.54.596,torte-2b,2020.1.3,Linux x86_64,60,13366,,,,,0,80,80,83,1,,,,,,,,,,,,,,,,,,,,,,,,,,,,,,,,,,,,,,,,,,,,,,,,,,,,,,,,
,,,,,,,,,,,,a,0.722375,Incorrect,,,,,,t2.png,t4.png,2,0.059078,19,female,2020-09-04_18h05.54.596,torte-2b,2020.1.3,Linux x86_64,60,13366,,,,,0,81,81,77,1,,,,,,,,,,,,,,,,,,,,,,,,,,,,,,,,,,,,,,,,,,,,,,,,,,,,,,,,
,,,,,,,,,,,,l,0.733355,Incorrect,,,,,,t1.png,t1.png,0,0.97829,19,female,2020-09-04_18h05.54.596,torte-2b,2020.1.3,Linux x86_64,60,13366,,,,,0,82,82,9,1,,,,,,,,,,,,,,,,,,,,,,,,,,,,,,,,,,,,,,,,,,,,,,,,,,,,,,,,
,,,,,,,,,,,,a,1.17363,Incorrect,,,,,,t1.png,t5.png,4,9.55E-11,19,female,2020-09-04_18h05.54.596,torte-2b,2020.1.3,Linux x86_64,60,13366,,,,,0,83,83,12,1,,,,,,,,,,,,,,,,,,,,,,,,,,,,,,,,,,,,,,,,,,,,,,,,,,,,,,,,
,,,,,,,,,,,,a,0.797045,Incorrect,,,,,,t2.png,t5.png,3,0.0000131,19,female,2020-09-04_18h05.54.596,torte-2b,2020.1.3,Linux x86_64,60,13366,,,,,0,84,84,104,1,,,,,,,,,,,,,,,,,,,,,,,,,,,,,,,,,,,,,,,,,,,,,,,,,,,,,,,,
,,,,,,,,,,,,l,0.270725,Correct!,,,,,,t5.png,t3.png,2,0.0565,19,female,2020-09-04_18h05.54.596,torte-2b,2020.1.3,Linux x86_64,60,13366,,,,,0,85,85,39,1,,,,,,,,,,,,,,,,,,,,,,,,,,,,,,,,,,,,,,,,,,,,,,,,,,,,,,,,
,,,,,,,,,,,,l,0.386735,Correct!,,,,,,t5.png,t1.png,4,9.55E-11,19,female,2020-09-04_18h05.54.596,torte-2b,2020.1.3,Linux x86_64,60,13366,,,,,0,86,86,100,1,,,,,,,,,,,,,,,,,,,,,,,,,,,,,,,,,,,,,,,,,,,,,,,,,,,,,,,,
,,,,,,,,,,,,l,1.14006,Correct!,,,,,,t2.png,t1.png,1,0.9,19,female,2020-09-04_18h05.54.596,torte-2b,2020.1.3,Linux x86_64,60,13366,,,,,0,87,87,118,1,,,,,,,,,,,,,,,,,,,,,,,,,,,,,,,,,,,,,,,,,,,,,,,,,,,,,,,,
,,,,,,,,,,,,a,0.907165,Correct!,,,,,,t4.png,t5.png,1,0.90025,19,female,2020-09-04_18h05.54.596,torte-2b,2020.1.3,Linux x86_64,60,13366,,,,,0,88,88,103,1,,,,,,,,,,,,,,,,,,,,,,,,,,,,,,,,,,,,,,,,,,,,,,,,,,,,,,,,
,,,,,,,,,,,,l,0.8925,Incorrect,,,,,,t3.png,t4.png,1,0.90855,19,female,2020-09-04_18h05.54.596,torte-2b,2020.1.3,Linux x86_64,60,13366,,,,,0,89,89,84,1,,,,,,,,,,,,,,,,,,,,,,,,,,,,,,,,,,,,,,,,,,,,,,,,,,,,,,,,
,,,,,,,,,,,,a,0.496435,Correct!,,,,,,t4.png,t3.png,1,0.90855,19,female,2020-09-04_18h05.54.596,torte-2b,2020.1.3,Linux x86_64,60,13366,,,,,0,90,90,45,1,,,,,,,,,,,,,,,,,,,,,,,,,,,,,,,,,,,,,,,,,,,,,,,,,,,,,,,,
,,,,,,,,,,,,l,0.406005,Correct!,,,,,,t1.png,t3.png,2,0.056466,19,female,2020-09-04_18h05.54.596,torte-2b,2020.1.3,Linux x86_64,60,13366,,,,,0,91,91,99,1,,,,,,,,,,,,,,,,,,,,,,,,,,,,,,,,,,,,,,,,,,,,,,,,,,,,,,,,
,,,,,,,,,,,,l,0.52896,Incorrect,,,,,,t1.png,t2.png,1,0.90025,19,female,2020-09-04_18h05.54.596,torte-2b,2020.1.3,Linux x86_64,60,13366,,,,,0,92,92,105,1,,,,,,,,,,,,,,,,,,,,,,,,,,,,,,,,,,,,,,,,,,,,,,,,,,,,,,,,
,,,,,,,,,,,,a,0.70887,Correct!,,,,,,t5.png,t5.png,0,0.97829,19,female,2020-09-04_18h05.54.596,torte-2b,2020.1.3,Linux x86_64,60,13366,,,,,0,93,93,25,1,,,,,,,,,,,,,,,,,,,,,,,,,,,,,,,,,,,,,,,,,,,,,,,,,,,,,,,,
,,,,,,,,,,,,a,0.83651,Correct!,,,,,,t1.png,t1.png,0,0.978,19,female,2020-09-04_18h05.54.596,torte-2b,2020.1.3,Linux x86_64,60,13366,,,,,0,94,94,54,1,,,,,,,,,,,,,,,,,,,,,,,,,,,,,,,,,,,,,,,,,,,,,,,,,,,,,,,,
,,,,,,,,,,,,l,1.070615,Correct!,,,,,,t2.png,t4.png,2,0.059078,19,female,2020-09-04_18h05.54.596,torte-2b,2020.1.3,Linux x86_64,60,13366,,,,,0,95,95,37,1,,,,,,,,,,,,,,,,,,,,,,,,,,,,,,,,,,,,,,,,,,,,,,,,,,,,,,,,
,,,,,,,,,,,,l,0.897995,Correct!,,,,,,t3.png,t1.png,2,0.056466,19,female,2020-09-04_18h05.54.596,torte-2b,2020.1.3,Linux x86_64,60,13366,,,,,0,96,96,29,1,,,,,,,,,,,,,,,,,,,,,,,,,,,,,,,,,,,,,,,,,,,,,,,,,,,,,,,,
,,,,,,,,,,,,a,2.393205,Correct!,,,,,,t1.png,t2.png,1,0.90025,19,female,2020-09-04_18h05.54.596,torte-2b,2020.1.3,Linux x86_64,60,13366,,,,,0,97,97,72,1,,,,,,,,,,,,,,,,,,,,,,,,,,,,,,,,,,,,,,,,,,,,,,,,,,,,,,,,
,,,,,,,,,,,,a,0.86174,Incorrect,,,,,,t1.png,t4.png,3,0.0000131,19,female,2020-09-04_18h05.54.596,torte-2b,2020.1.3,Linux x86_64,60,13366,,,,,0,98,98,92,1,,,,,,,,,,,,,,,,,,,,,,,,,,,,,,,,,,,,,,,,,,,,,,,,,,,,,,,,
,,,,,,,,,,,,l,0.570115,Correct!,,,,,,t3.png,t5.png,2,0.056466,19,female,2020-09-04_18h05.54.596,torte-2b,2020.1.3,Linux x86_64,60,13366,,,,,0,99,99,6,1,,,,,,,,,,,,,,,,,,,,,,,,,,,,,,,,,,,,,,,,,,,,,,,,,,,,,,,,
,,,,,,,,,,,,a,0.777155,Incorrect,,,,,,t5.png,t2.png,3,0.0000131,19,female,2020-09-04_18h05.54.596,torte-2b,2020.1.3,Linux x86_64,60,13366,,,,,0,100,100,119,1,,,,,,,,,,,,,,,,,,,,,,,,,,,,,,,,,,,,,,,,,,,,,,,,,,,,,,,,
,,,,,,,,,,,,l,0.67475,Correct!,,,,,,t4.png,t2.png,2,0.059078,19,female,2020-09-04_18h05.54.596,torte-2b,2020.1.3,Linux x86_64,60,13366,,,,,0,101,101,109,1,,,,,,,,,,,,,,,,,,,,,,,,,,,,,,,,,,,,,,,,,,,,,,,,,,,,,,,,
,,,,,,,,,,,,l,0.53537,Incorrect,,,,,,t3.png,t2.png,1,0.909,19,female,2020-09-04_18h05.54.596,torte-2b,2020.1.3,Linux x86_64,60,13366,,,,,0,102,102,23,1,,,,,,,,,,,,,,,,,,,,,,,,,,,,,,,,,,,,,,,,,,,,,,,,,,,,,,,,
,,,,,,,,,,,,a,0.600035,Correct!,,,,,,t4.png,t4.png,0,0.98115,19,female,2020-09-04_18h05.54.596,torte-2b,2020.1.3,Linux x86_64,60,13366,,,,,0,103,103,80,1,,,,,,,,,,,,,,,,,,,,,,,,,,,,,,,,,,,,,,,,,,,,,,,,,,,,,,,,
,,,,,,,,,,,,l,0.54108,Correct!,,,,,,t5.png,t1.png,4,9.55E-11,19,female,2020-09-04_18h05.54.596,torte-2b,2020.1.3,Linux x86_64,60,13366,,,,,0,104,104,71,1,,,,,,,,,,,,,,,,,,,,,,,,,,,,,,,,,,,,,,,,,,,,,,,,,,,,,,,,
,,,,,,,,,,,,a,0.571475,Correct!,,,,,,t2.png,t2.png,0,0.98115,19,female,2020-09-04_18h05.54.596,torte-2b,2020.1.3,Linux x86_64,60,13366,,,,,0,105,105,7,1,,,,,,,,,,,,,,,,,,,,,,,,,,,,,,,,,,,,,,,,,,,,,,,,,,,,,,,,
,,,,,,,,,,,,l,0.44573,Incorrect,,,,,,t4.png,t4.png,0,0.98115,19,female,2020-09-04_18h05.54.596,torte-2b,2020.1.3,Linux x86_64,60,13366,,,,,0,106,106,90,1,,,,,,,,,,,,,,,,,,,,,,,,,,,,,,,,,,,,,,,,,,,,,,,,,,,,,,,,
,,,,,,,,,,,,a,0.901945,Correct!,,,,,,t2.png,t4.png,2,0.059078,19,female,2020-09-04_18h05.54.596,torte-2b,2020.1.3,Linux x86_64,60,13366,,,,,0,107,107,11,1,,,,,,,,,,,,,,,,,,,,,,,,,,,,,,,,,,,,,,,,,,,,,,,,,,,,,,,,
,,,,,,,,,,,,l,0.58058,Incorrect,,,,,,t5.png,t4.png,1,0.90025,19,female,2020-09-04_18h05.54.596,torte-2b,2020.1.3,Linux x86_64,60,13366,,,,,0,108,108,27,1,,,,,,,,,,,,,,,,,,,,,,,,,,,,,,,,,,,,,,,,,,,,,,,,,,,,,,,,
,,,,,,,,,,,,a,0.33378,Correct!,,,,,,t3.png,t4.png,1,0.909,19,female,2020-09-04_18h05.54.596,torte-2b,2020.1.3,Linux x86_64,60,13366,,,,,0,109,109,106,1,,,,,,,,,,,,,,,,,,,,,,,,,,,,,,,,,,,,,,,,,,,,,,,,,,,,,,,,
,,,,,,,,,,,,l,0.451395,Correct!,,,,,,t2.png,t1.png,1,0.90025,19,female,2020-09-04_18h05.54.596,torte-2b,2020.1.3,Linux x86_64,60,13366,,,,,0,110,110,19,1,,,,,,,,,,,,,,,,,,,,,,,,,,,,,,,,,,,,,,,,,,,,,,,,,,,,,,,,
,,,,,,,,,,,,a,0.847655,Correct!,,,,,,t3.png,t4.png,1,0.909,19,female,2020-09-04_18h05.54.596,torte-2b,2020.1.3,Linux x86_64,60,13366,,,,,0,111,111,89,1,,,,,,,,,,,,,,,,,,,,,,,,,,,,,,,,,,,,,,,,,,,,,,,,,,,,,,,,
,,,,,,,,,,,,l,0.80282,Correct!,,,,,,t2.png,t5.png,3,0.0000131,19,female,2020-09-04_18h05.54.596,torte-2b,2020.1.3,Linux x86_64,60,13366,,,,,0,112,112,8,1,,,,,,,,,,,,,,,,,,,,,,,,,,,,,,,,,,,,,,,,,,,,,,,,,,,,,,,,
,,,,,,,,,,,,a,0.66179,Incorrect,,,,,,t4.png,t2.png,2,0.059078,19,female,2020-09-04_18h05.54.596,torte-2b,2020.1.3,Linux x86_64,60,13366,,,,,0,113,113,88,1,,,,,,,,,,,,,,,,,,,,,,,,,,,,,,,,,,,,,,,,,,,,,,,,,,,,,,,,
,,,,,,,,,,,,a,0.63253,Incorrect,,,,,,t4.png,t1.png,3,0.0000131,19,female,2020-09-04_18h05.54.596,torte-2b,2020.1.3,Linux x86_64,60,13366,,,,,0,114,114,42,1,,,,,,,,,,,,,,,,,,,,,,,,,,,,,,,,,,,,,,,,,,,,,,,,,,,,,,,,
,,,,,,,,,,,,l,0.582935,Incorrect,,,,,,t2.png,t3.png,1,0.90855,19,female,2020-09-04_18h05.54.596,torte-2b,2020.1.3,Linux x86_64,60,13366,,,,,0,115,115,68,1,,,,,,,,,,,,,,,,,,,,,,,,,,,,,,,,,,,,,,,,,,,,,,,,,,,,,,,,
,,,,,,,,,,,,a,0.77786,Incorrect,,,,,,t1.png,t5.png,4,9.55E-11,19,female,2020-09-04_18h05.54.596,torte-2b,2020.1.3,Linux x86_64,60,13366,,,,,0,116,116,16,1,,,,,,,,,,,,,,,,,,,,,,,,,,,,,,,,,,,,,,,,,,,,,,,,,,,,,,,,
,,,,,,,,,,,,l,0.82341,Correct!,,,,,,t5.png,t1.png,4,9.55E-11,19,female,2020-09-04_18h05.54.596,torte-2b,2020.1.3,Linux x86_64,60,13366,,,,,0,117,117,102,1,,,,,,,,,,,,,,,,,,,,,,,,,,,,,,,,,,,,,,,,,,,,,,,,,,,,,,,,
,,,,,,,,,,,,l,0.507515,Correct!,,,,,,t3.png,t1.png,2,0.056466,19,female,2020-09-04_18h05.54.596,torte-2b,2020.1.3,Linux x86_64,60,13366,,,,,0,118,118,64,1,,,,,,,,,,,,,,,,,,,,,,,,,,,,,,,,,,,,,,,,,,,,,,,,,,,,,,,,
,,,,,,,,,,,,a,0.70529,Correct!,,,,,,t5.png,t5.png,0,0.978,19,female,2020-09-04_18h05.54.596,torte-2b,2020.1.3,Linux x86_64,60,13366,,,,,0,119,119,117,1,,,,,,,,,,,,,,,,,,,,,,,,,,,,,,,,,,,,,,,,,,,,,,,,,,,,,,,,
,,,,,,,,,,,,,,,,,,,,,,,,19,female,2020-09-04_18h05.54.596,torte-2b,2020.1.3,Linux x86_64,60,13366,l,2.138975,,,,,,,,space,35.108735,,0,0,0,0,1,6,,,,,,,,,,,,,,,,,,,,,,,,,,,,,,,,,,,,,,,,,,,,,,,
,,,,,,,,,,,,,,,,,,,,,,,,19,female,2020-09-04_18h05.54.596,torte-2b,2020.1.3,Linux x86_64,60,13366,,,,,,,,,,,,,0,1,1,1,1,7,,,,,,,,,,,,,,,,,,,,,,,,,,,,,,,,,,,,,,,,,,,,,,,
,,,,,,,,,,,,,,,,,,,,,,,,19,female,2020-09-04_18h05.54.596,torte-2b,2020.1.3,Linux x86_64,60,13366,,,,,,,,,,,,,0,2,2,2,1,6,,,,,,,,,,,,,,,,,,,,,,,,,,,,,,,,,,,,,,,,,,,,,,,
,,,,,,,,,,,,,,,,,,,,,,,,19,female,2020-09-04_18h05.54.596,torte-2b,2020.1.3,Linux x86_64,60,13366,,,,,,,,,,,,space,0,3,3,3,1,7,0.45861,,,,,,,,,,,,,,,,,,,,,,,,,,,,,,,,,,,,,,,,,,,,,,
,,,,,,,,,,,,,,,,,,,,,,,,19,female,2020-09-04_18h05.54.596,torte-2b,2020.1.3,Linux x86_64,60,13366,,,,,,,,,,,,,0,4,4,4,1,5,,,,,,,,,,,,,,,,,,,,,,,,,,,,,,,,,,,,,,,,,,,,,,,
,,,,,,,,,,,,,,,,,,,,,,,,19,female,2020-09-04_18h05.54.596,torte-2b,2020.1.3,Linux x86_64,60,13366,,,,,,,,,,,,space,0,5,5,5,1,7,0.49695,,,,,,,,,,,,,,,,,,,,,,,,,,,,,,,,,,,,,,,,,,,,,,
,,,,,,,,,,,,,,,,,,,,,,,,19,female,2020-09-04_18h05.54.596,torte-2b,2020.1.3,Linux x86_64,60,13366,,,,,,,,,,,,,0,6,6,6,1,2,,,,,,,,,,,,,,,,,,,,,,,,,,,,,,,,,,,,,,,,,,,,,,,
,,,,,,,,,,,,,,,,,,,,,,,,19,female,2020-09-04_18h05.54.596,torte-2b,2020.1.3,Linux x86_64,60,13366,,,,,,,,,,,,,0,7,7,7,1,4,,,,,,,,,,,,,,,,,,,,,,,,,,,,,,,,,,,,,,,,,,,,,,,
,,,,,,,,,,,,,,,,,,,,,,,,19,female,2020-09-04_18h05.54.596,torte-2b,2020.1.3,Linux x86_64,60,13366,,,,,,,,,,,,space,0,8,8,8,1,7,0.749775,,,,,,,,,,,,,,,,,,,,,,,,,,,,,,,,,,,,,,,,,,,,,,
,,,,,,,,,,,,,,,,,,,,,,,,19,female,2020-09-04_18h05.54.596,torte-2b,2020.1.3,Linux x86_64,60,13366,,,,,,,,,,,,space,0,9,9,9,1,4,0.68345,,,,,,,,,,,,,,,,,,,,,,,,,,,,,,,,,,,,,,,,,,,,,,
,,,,,,,,,,,,,,,,,,,,,,,,19,female,2020-09-04_18h05.54.596,torte-2b,2020.1.3,Linux x86_64,60,13366,,,,,,,,,,,,space,0,10,10,10,1,7,0.437225,,,,,,,,,,,,,,,,,,,,,,,,,,,,,,,,,,,,,,,,,,,,,,
,,,,,,,,,,,,,,,,,,,,,,,,19,female,2020-09-04_18h05.54.596,torte-2b,2020.1.3,Linux x86_64,60,13366,,,,,,,,,,,,space,0,11,11,11,1,7,1.08625,,,,,,,,,,,,,,,,,,,,,,,,,,,,,,,,,,,,,,,,,,,,,,
,,,,,,,,,,,,,,,,,,,,,,,,19,female,2020-09-04_18h05.54.596,torte-2b,2020.1.3,Linux x86_64,60,13366,,,,,,,,,,,,,0,12,12,12,1,7,,,,,,,,,,,,,,,,,,,,,,,,,,,,,,,,,,,,,,,,,,,,,,,
,,,,,,,,,,,,,,,,,,,,,,,,19,female,2020-09-04_18h05.54.596,torte-2b,2020.1.3,Linux x86_64,60,13366,,,,,,,,,,,,space,0,13,13,13,1,4,0.390585,,,,,,,,,,,,,,,,,,,,,,,,,,,,,,,,,,,,,,,,,,,,,,
,,,,,,,,,,,,,,,,,,,,,,,,19,female,2020-09-04_18h05.54.596,torte-2b,2020.1.3,Linux x86_64,60,13366,,,,,,,,,,,,,0,14,14,14,1,6,,,,,,,,,,,,,,,,,,,,,,,,,,,,,,,,,,,,,,,,,,,,,,,
,,,,,,,,,,,,,,,,,,,,,,,,19,female,2020-09-04_18h05.54.596,torte-2b,2020.1.3,Linux x86_64,60,13366,,,,,,,,,,,,space,0,15,15,15,1,4,0.38882,,,,,,,,,,,,,,,,,,,,,,,,,,,,,,,,,,,,,,,,,,,,,,
,,,,,,,,,,,,,,,,,,,,,,,,19,female,2020-09-04_18h05.54.596,torte-2b,2020.1.3,Linux x86_64,60,13366,,,,,,,,,,,,space,0,16,16,16,1,6,0.39188,,,,,,,,,,,,,,,,,,,,,,,,,,,,,,,,,,,,,,,,,,,,,,
,,,,,,,,,,,,,,,,,,,,,,,,19,female,2020-09-04_18h05.54.596,torte-2b,2020.1.3,Linux x86_64,60,13366,,,,,,,,,,,,,0,17,17,17,1,7,,,,,,,,,,,,,,,,,,,,,,,,,,,,,,,,,,,,,,,,,,,,,,,
,,,,,,,,,,,,,,,,,,,,,,,,19,female,2020-09-04_18h05.54.596,torte-2b,2020.1.3,Linux x86_64,60,13366,,,,,,,,,,,,space,0,18,18,18,1,6,0.31858,,,,,,,,,,,,,,,,,,,,,,,,,,,,,,,,,,,,,,,,,,,,,,
,,,,,,,,,,,,,,,,,,,,,,,,19,female,2020-09-04_18h05.54.596,torte-2b,2020.1.3,Linux x86_64,60,13366,,,,,,,,,,,,,0,19,19,19,1,7,,,,,,,,,,,,,,,,,,,,,,,,,,,,,,,,,,,,,,,,,,,,,,,
,,,,,,,,,,,,,,,,,,,,,,,,19,female,2020-09-04_18h05.54.596,torte-2b,2020.1.3,Linux x86_64,60,13366,,,,,,,,,,,,space,0,20,20,20,1,5,0.27389,,,,,,,,,,,,,,,,,,,,,,,,,,,,,,,,,,,,,,,,,,,,,,
,,,,,,,,,,,,,,,,,,,,,,,,19,female,2020-09-04_18h05.54.596,torte-2b,2020.1.3,Linux x86_64,60,13366,,,,,,,,,,,,,0,21,21,21,1,1,,,,,,,,,,,,,,,,,,,,,,,,,,,,,,,,,,,,,,,,,,,,,,,
,,,,,,,,,,,,,,,,,,,,,,,,19,female,2020-09-04_18h05.54.596,torte-2b,2020.1.3,Linux x86_64,60,13366,,,,,,,,,,,,space,0,22,22,22,1,6,0.630985,,,,,,,,,,,,,,,,,,,,,,,,,,,,,,,,,,,,,,,,,,,,,,
,,,,,,,,,,,,,,,,,,,,,,,,19,female,2020-09-04_18h05.54.596,torte-2b,2020.1.3,Linux x86_64,60,13366,,,,,,,,,,,,space,0,23,23,23,1,1,0.59248,,,,,,,,,,,,,,,,,,,,,,,,,,,,,,,,,,,,,,,,,,,,,,
,,,,,,,,,,,,,,,,,,,,,,,,19,female,2020-09-04_18h05.54.596,torte-2b,2020.1.3,Linux x86_64,60,13366,,,,,,,,,,,,space,0,24,24,24,1,5,0.222055,,,,,,,,,,,,,,,,,,,,,,,,,,,,,,,,,,,,,,,,,,,,,,
,,,,,,,,,,,,,,,,,,,,,,,,19,female,2020-09-04_18h05.54.596,torte-2b,2020.1.3,Linux x86_64,60,13366,,,,,,,,,,,,,0,25,25,25,1,6,,,,,,,,,,,,,,,,,,,,,,,,,,,,,,,,,,,,,,,,,,,,,,,
,,,,,,,,,,,,,,,,,,,,,,,,19,female,2020-09-04_18h05.54.596,torte-2b,2020.1.3,Linux x86_64,60,13366,,,,,,,,,,,,,0,26,26,26,1,6,,,,,,,,,,,,,,,,,,,,,,,,,,,,,,,,,,,,,,,,,,,,,,,
,,,,,,,,,,,,,,,,,,,,,,,,19,female,2020-09-04_18h05.54.596,torte-2b,2020.1.3,Linux x86_64,60,13366,,,,,,,,,,,,space,0,27,27,27,1,6,0.36984,,,,,,,,,,,,,,,,,,,,,,,,,,,,,,,,,,,,,,,,,,,,,,
,,,,,,,,,,,,,,,,,,,,,,,,19,female,2020-09-04_18h05.54.596,torte-2b,2020.1.3,Linux x86_64,60,13366,,,,,,,,,,,,,0,28,28,28,1,5,,,,,,,,,,,,,,,,,,,,,,,,,,,,,,,,,,,,,,,,,,,,,,,
,,,,,,,,,,,,,,,,,,,,,,,,19,female,2020-09-04_18h05.54.596,torte-2b,2020.1.3,Linux x86_64,60,13366,,,,,,,,,,,,,0,29,29,29,1,2,,,,,,,,,,,,,,,,,,,,,,,,,,,,,,,,,,,,,,,,,,,,,,,
,,,,,,,,,,,,,,,,,,,,,,,,19,female,2020-09-04_18h05.54.596,torte-2b,2020.1.3,Linux x86_64,60,13366,,,,,,,,,,,,space,0,30,30,30,1,5,0.55863,,,,,,,,,,,,,,,,,,,,,,,,,,,,,,,,,,,,,,,,,,,,,,
,,,,,,,,,,,,,,,,,,,,,,,,19,female,2020-09-04_18h05.54.596,torte-2b,2020.1.3,Linux x86_64,60,13366,,,,,,,,,,,,,0,31,31,31,1,2,,,,,,,,,,,,,,,,,,,,,,,,,,,,,,,,,,,,,,,,,,,,,,,
,,,,,,,,,,,,,,,,,,,,,,,,19,female,2020-09-04_18h05.54.596,torte-2b,2020.1.3,Linux x86_64,60,13366,,,,,,,,,,,,space,0,32,32,32,1,5,0.30075,,,,,,,,,,,,,,,,,,,,,,,,,,,,,,,,,,,,,,,,,,,,,,
,,,,,,,,,,,,,,,,,,,,,,,,19,female,2020-09-04_18h05.54.596,torte-2b,2020.1.3,Linux x86_64,60,13366,,,,,,,,,,,,,0,33,33,33,1,1,,,,,,,,,,,,,,,,,,,,,,,,,,,,,,,,,,,,,,,,,,,,,,,
,,,,,,,,,,,,,,,,,,,,,,,,19,female,2020-09-04_18h05.54.596,torte-2b,2020.1.3,Linux x86_64,60,13366,,,,,,,,,,,,,0,34,34,34,1,1,,,,,,,,,,,,,,,,,,,,,,,,,,,,,,,,,,,,,,,,,,,,,,,
,,,,,,,,,,,,,,,,,,,,,,,,19,female,2020-09-04_18h05.54.596,torte-2b,2020.1.3,Linux x86_64,60,13366,,,,,,,,,,,,,,,,,,2,,0,0,0,0,1,,,,,,,,,,,,,,,,,,,,,,,,,,,,,,,,,,,,,,,,,
,,,,,,,,,,,,,,,,,,,,,,,,19,female,2020-09-04_18h05.54.596,torte-2b,2020.1.3,Linux x86_64,60,13366,,,,,,,,,,,,,,,,,,2,,0,1,1,1,1,,,,,,,,,,,,,,,,,,,,,,,,,,,,,,,,,,,,,,,,,
,,,,,,,,,,,,,,,,,,,,,,,,19,female,2020-09-04_18h05.54.596,torte-2b,2020.1.3,Linux x86_64,60,13366,,,,,,,,,,,,,,,,,,6,,0,2,2,2,1,,,,,,,,,,,,,,,,,,,,,,,,,,,,,,,,,,,,,,,,,
,,,,,,,,,,,,,,,,,,,,,,,,19,female,2020-09-04_18h05.54.596,torte-2b,2020.1.3,Linux x86_64,60,13366,,,,,,,,,,,,space,,,,,,2,1.22203,0,3,3,3,1,,,,,,,,,,,,,,,,,,,,,,,,,,,,,,,,,,,,,,,,,
,,,,,,,,,,,,,,,,,,,,,,,,19,female,2020-09-04_18h05.54.596,torte-2b,2020.1.3,Linux x86_64,60,13366,,,,,,,,,,,,space,,,,,,6,0.45989,0,4,4,4,1,,,,,,,,,,,,,,,,,,,,,,,,,,,,,,,,,,,,,,,,,
,,,,,,,,,,,,,,,,,,,,,,,,19,female,2020-09-04_18h05.54.596,torte-2b,2020.1.3,Linux x86_64,60,13366,,,,,,,,,,,,space,,,,,,2,0.625115,0,5,5,5,1,,,,,,,,,,,,,,,,,,,,,,,,,,,,,,,,,,,,,,,,,
,,,,,,,,,,,,,,,,,,,,,,,,19,female,2020-09-04_18h05.54.596,torte-2b,2020.1.3,Linux x86_64,60,13366,,,,,,,,,,,,,,,,,,7,,0,6,6,6,1,,,,,,,,,,,,,,,,,,,,,,,,,,,,,,,,,,,,,,,,,
,,,,,,,,,,,,,,,,,,,,,,,,19,female,2020-09-04_18h05.54.596,torte-2b,2020.1.3,Linux x86_64,60,13366,,,,,,,,,,,,space,,,,,,2,0.514625,0,7,7,7,1,,,,,,,,,,,,,,,,,,,,,,,,,,,,,,,,,,,,,,,,,
,,,,,,,,,,,,,,,,,,,,,,,,19,female,2020-09-04_18h05.54.596,torte-2b,2020.1.3,Linux x86_64,60,13366,,,,,,,,,,,,space,,,,,,7,0.46354,0,8,8,8,1,,,,,,,,,,,,,,,,,,,,,,,,,,,,,,,,,,,,,,,,,
,,,,,,,,,,,,,,,,,,,,,,,,19,female,2020-09-04_18h05.54.596,torte-2b,2020.1.3,Linux x86_64,60,13366,,,,,,,,,,,,space,,,,,,2,0.55684,0,9,9,9,1,,,,,,,,,,,,,,,,,,,,,,,,,,,,,,,,,,,,,,,,,
,,,,,,,,,,,,,,,,,,,,,,,,19,female,2020-09-04_18h05.54.596,torte-2b,2020.1.3,Linux x86_64,60,13366,,,,,,,,,,,,,,,,,,5,,0,10,10,10,1,,,,,,,,,,,,,,,,,,,,,,,,,,,,,,,,,,,,,,,,,
,,,,,,,,,,,,,,,,,,,,,,,,19,female,2020-09-04_18h05.54.596,torte-2b,2020.1.3,Linux x86_64,60,13366,,,,,,,,,,,,space,,,,,,4,0.520255,0,11,11,11,1,,,,,,,,,,,,,,,,,,,,,,,,,,,,,,,,,,,,,,,,,
,,,,,,,,,,,,,,,,,,,,,,,,19,female,2020-09-04_18h05.54.596,torte-2b,2020.1.3,Linux x86_64,60,13366,,,,,,,,,,,,space,,,,,,5,0.5364,0,12,12,12,1,,,,,,,,,,,,,,,,,,,,,,,,,,,,,,,,,,,,,,,,,
,,,,,,,,,,,,,,,,,,,,,,,,19,female,2020-09-04_18h05.54.596,torte-2b,2020.1.3,Linux x86_64,60,13366,,,,,,,,,,,,space,,,,,,6,0.345575,0,13,13,13,1,,,,,,,,,,,,,,,,,,,,,,,,,,,,,,,,,,,,,,,,,
,,,,,,,,,,,,,,,,,,,,,,,,19,female,2020-09-04_18h05.54.596,torte-2b,2020.1.3,Linux x86_64,60,13366,,,,,,,,,,,,space,,,,,,5,0.395765,0,14,14,14,1,,,,,,,,,,,,,,,,,,,,,,,,,,,,,,,,,,,,,,,,,
,,,,,,,,,,,,,,,,,,,,,,,,19,female,2020-09-04_18h05.54.596,torte-2b,2020.1.3,Linux x86_64,60,13366,,,,,,,,,,,,,,,,,,4,,0,15,15,15,1,,,,,,,,,,,,,,,,,,,,,,,,,,,,,,,,,,,,,,,,,
,,,,,,,,,,,,,,,,,,,,,,,,19,female,2020-09-04_18h05.54.596,torte-2b,2020.1.3,Linux x86_64,60,13366,,,,,,,,,,,,space,,,,,,5,0.772645,0,16,16,16,1,,,,,,,,,,,,,,,,,,,,,,,,,,,,,,,,,,,,,,,,,
,,,,,,,,,,,,,,,,,,,,,,,,19,female,2020-09-04_18h05.54.596,torte-2b,2020.1.3,Linux x86_64,60,13366,,,,,,,,,,,,,,,,,,3,,0,17,17,17,1,,,,,,,,,,,,,,,,,,,,,,,,,,,,,,,,,,,,,,,,,
,,,,,,,,,,,,,,,,,,,,,,,,19,female,2020-09-04_18h05.54.596,torte-2b,2020.1.3,Linux x86_64,60,13366,,,,,,,,,,,,,,,,,,6,,0,18,18,18,1,,,,,,,,,,,,,,,,,,,,,,,,,,,,,,,,,,,,,,,,,
,,,,,,,,,,,,,,,,,,,,,,,,19,female,2020-09-04_18h05.54.596,torte-2b,2020.1.3,Linux x86_64,60,13366,,,,,,,,,,,,space,,,,,,6,0.51437,0,19,19,19,1,,,,,,,,,,,,,,,,,,,,,,,,,,,,,,,,,,,,,,,,,
,,,,,,,,,,,,,,,,,,,,,,,,19,female,2020-09-04_18h05.54.596,torte-2b,2020.1.3,Linux x86_64,60,13366,,,,,,,,,,,,space,,,,,,6,0.40771,0,20,20,20,1,,,,,,,,,,,,,,,,,,,,,,,,,,,,,,,,,,,,,,,,,
,,,,,,,,,,,,,,,,,,,,,,,,19,female,2020-09-04_18h05.54.596,torte-2b,2020.1.3,Linux x86_64,60,13366,,,,,,,,,,,,,,,,,,4,,0,21,21,21,1,,,,,,,,,,,,,,,,,,,,,,,,,,,,,,,,,,,,,,,,,
,,,,,,,,,,,,,,,,,,,,,,,,19,female,2020-09-04_18h05.54.596,torte-2b,2020.1.3,Linux x86_64,60,13366,,,,,,,,,,,,space,,,,,,6,0.652425,0,22,22,22,1,,,,,,,,,,,,,,,,,,,,,,,,,,,,,,,,,,,,,,,,,
,,,,,,,,,,,,,,,,,,,,,,,,19,female,2020-09-04_18h05.54.596,torte-2b,2020.1.3,Linux x86_64,60,13366,,,,,,,,,,,,,,,,,,4,,0,23,23,23,1,,,,,,,,,,,,,,,,,,,,,,,,,,,,,,,,,,,,,,,,,
,,,,,,,,,,,,,,,,,,,,,,,,19,female,2020-09-04_18h05.54.596,torte-2b,2020.1.3,Linux x86_64,60,13366,,,,,,,,,,,,space,,,,,,6,0.38038,0,24,24,24,1,,,,,,,,,,,,,,,,,,,,,,,,,,,,,,,,,,,,,,,,,
,,,,,,,,,,,,,,,,,,,,,,,,19,female,2020-09-04_18h05.54.596,torte-2b,2020.1.3,Linux x86_64,60,13366,,,,,,,,,,,,,,,,,,6,,0,25,25,25,1,,,,,,,,,,,,,,,,,,,,,,,,,,,,,,,,,,,,,,,,,
,,,,,,,,,,,,,,,,,,,,,,,,19,female,2020-09-04_18h05.54.596,torte-2b,2020.1.3,Linux x86_64,60,13366,,,,,,,,,,,,,,,,,,7,,0,26,26,26,1,,,,,,,,,,,,,,,,,,,,,,,,,,,,,,,,,,,,,,,,,
,,,,,,,,,,,,,,,,,,,,,,,,19,female,2020-09-04_18h05.54.596,torte-2b,2020.1.3,Linux x86_64,60,13366,,,,,,,,,,,,,,,,,,1,,0,27,27,27,1,,,,,,,,,,,,,,,,,,,,,,,,,,,,,,,,,,,,,,,,,
,,,,,,,,,,,,,,,,,,,,,,,,19,female,2020-09-04_18h05.54.596,torte-2b,2020.1.3,Linux x86_64,60,13366,,,,,,,,,,,,space,,,,,,7,0.84527,0,28,28,28,1,,,,,,,,,,,,,,,,,,,,,,,,,,,,,,,,,,,,,,,,,
,,,,,,,,,,,,,,,,,,,,,,,,19,female,2020-09-04_18h05.54.596,torte-2b,2020.1.3,Linux x86_64,60,13366,,,,,,,,,,,,,,,,,,4,,0,29,29,29,1,,,,,,,,,,,,,,,,,,,,,,,,,,,,,,,,,,,,,,,,,
,,,,,,,,,,,,,,,,,,,,,,,,19,female,2020-09-04_18h05.54.596,torte-2b,2020.1.3,Linux x86_64,60,13366,,,,,,,,,,,,,,,,,,7,,0,30,30,30,1,,,,,,,,,,,,,,,,,,,,,,,,,,,,,,,,,,,,,,,,,
,,,,,,,,,,,,,,,,,,,,,,,,19,female,2020-09-04_18h05.54.596,torte-2b,2020.1.3,Linux x86_64,60,13366,,,,,,,,,,,,,,,,,,3,,0,31,31,31,1,,,,,,,,,,,,,,,,,,,,,,,,,,,,,,,,,,,,,,,,,
,,,,,,,,,,,,,,,,,,,,,,,,19,female,2020-09-04_18h05.54.596,torte-2b,2020.1.3,Linux x86_64,60,13366,,,,,,,,,,,,,,,,,,2,,0,32,32,32,1,,,,,,,,,,,,,,,,,,,,,,,,,,,,,,,,,,,,,,,,,
,,,,,,,,,,,,,,,,,,,,,,,,19,female,2020-09-04_18h05.54.596,torte-2b,2020.1.3,Linux x86_64,60,13366,,,,,,,,,,,,,,,,,,6,,0,33,33,33,1,,,,,,,,,,,,,,,,,,,,,,,,,,,,,,,,,,,,,,,,,
,,,,,,,,,,,,,,,,,,,,,,,,19,female,2020-09-04_18h05.54.596,torte-2b,2020.1.3,Linux x86_64,60,13366,,,,,,,,,,,,space,,,,,,3,0.43817,0,34,34,34,1,,,,,,,,,,,,,,,,,,,,,,,,,,,,,,,,,,,,,,,,,
,,,,,,,,,,,,,,,,,,,,,,,,19,female,2020-09-04_18h05.54.596,torte-2b,2020.1.3,Linux x86_64,60,13366,,,,,,,,,,,,,,,,,,7,,,,,,,0,0,0,0,1,,,,,,,,,,,,,,,,,,,,,,,,,,,,,,,,,,,,
,,,,,,,,,,,,,,,,,,,,,,,,19,female,2020-09-04_18h05.54.596,torte-2b,2020.1.3,Linux x86_64,60,13366,,,,,,,,,,,,,,,,,,5,,,,,,,0,1,1,1,1,,,,,,,,,,,,,,,,,,,,,,,,,,,,,,,,,,,,
,,,,,,,,,,,,,,,,,,,,,,,,19,female,2020-09-04_18h05.54.596,torte-2b,2020.1.3,Linux x86_64,60,13366,,,,,,,,,,,,,,,,,,4,,,,,,,0,2,2,2,1,,,,,,,,,,,,,,,,,,,,,,,,,,,,,,,,,,,,
,,,,,,,,,,,,,,,,,,,,,,,,19,female,2020-09-04_18h05.54.596,torte-2b,2020.1.3,Linux x86_64,60,13366,,,,,,,,,,,,space,,,,,,5,0.87098,,,,,,0,3,3,3,1,,,,,,,,,,,,,,,,,,,,,,,,,,,,,,,,,,,,
,,,,,,,,,,,,,,,,,,,,,,,,19,female,2020-09-04_18h05.54.596,torte-2b,2020.1.3,Linux x86_64,60,13366,,,,,,,,,,,,,,,,,,6,,,,,,,0,4,4,4,1,,,,,,,,,,,,,,,,,,,,,,,,,,,,,,,,,,,,
,,,,,,,,,,,,,,,,,,,,,,,,19,female,2020-09-04_18h05.54.596,torte-2b,2020.1.3,Linux x86_64,60,13366,,,,,,,,,,,,space,,,,,,5,0.56349,,,,,,0,5,5,5,1,,,,,,,,,,,,,,,,,,,,,,,,,,,,,,,,,,,,
,,,,,,,,,,,,,,,,,,,,,,,,19,female,2020-09-04_18h05.54.596,torte-2b,2020.1.3,Linux x86_64,60,13366,,,,,,,,,,,,,,,,,,3,,,,,,,0,6,6,6,1,,,,,,,,,,,,,,,,,,,,,,,,,,,,,,,,,,,,
,,,,,,,,,,,,,,,,,,,,,,,,19,female,2020-09-04_18h05.54.596,torte-2b,2020.1.3,Linux x86_64,60,13366,,,,,,,,,,,,space,,,,,,4,0.342235,,,,,,0,7,7,7,1,,,,,,,,,,,,,,,,,,,,,,,,,,,,,,,,,,,,
,,,,,,,,,,,,,,,,,,,,,,,,19,female,2020-09-04_18h05.54.596,torte-2b,2020.1.3,Linux x86_64,60,13366,,,,,,,,,,,,space,,,,,,3,0.38482,,,,,,0,8,8,8,1,,,,,,,,,,,,,,,,,,,,,,,,,,,,,,,,,,,,
,,,,,,,,,,,,,,,,,,,,,,,,19,female,2020-09-04_18h05.54.596,torte-2b,2020.1.3,Linux x86_64,60,13366,,,,,,,,,,,,,,,,,,1,,,,,,,0,9,9,9,1,,,,,,,,,,,,,,,,,,,,,,,,,,,,,,,,,,,,
,,,,,,,,,,,,,,,,,,,,,,,,19,female,2020-09-04_18h05.54.596,torte-2b,2020.1.3,Linux x86_64,60,13366,,,,,,,,,,,,,,,,,,2,,,,,,,0,10,10,10,1,,,,,,,,,,,,,,,,,,,,,,,,,,,,,,,,,,,,
,,,,,,,,,,,,,,,,,,,,,,,,19,female,2020-09-04_18h05.54.596,torte-2b,2020.1.3,Linux x86_64,60,13366,,,,,,,,,,,,space,,,,,,1,0.60543,,,,,,0,11,11,11,1,,,,,,,,,,,,,,,,,,,,,,,,,,,,,,,,,,,,
,,,,,,,,,,,,,,,,,,,,,,,,19,female,2020-09-04_18h05.54.596,torte-2b,2020.1.3,Linux x86_64,60,13366,,,,,,,,,,,,space,,,,,,2,0.94036,,,,,,0,12,12,12,1,,,,,,,,,,,,,,,,,,,,,,,,,,,,,,,,,,,,
,,,,,,,,,,,,,,,,,,,,,,,,19,female,2020-09-04_18h05.54.596,torte-2b,2020.1.3,Linux x86_64,60,13366,,,,,,,,,,,,space,,,,,,1,1.020195,,,,,,0,13,13,13,1,,,,,,,,,,,,,,,,,,,,,,,,,,,,,,,,,,,,
,,,,,,,,,,,,,,,,,,,,,,,,19,female,2020-09-04_18h05.54.596,torte-2b,2020.1.3,Linux x86_64,60,13366,,,,,,,,,,,,,,,,,,3,,,,,,,0,14,14,14,1,,,,,,,,,,,,,,,,,,,,,,,,,,,,,,,,,,,,
,,,,,,,,,,,,,,,,,,,,,,,,19,female,2020-09-04_18h05.54.596,torte-2b,2020.1.3,Linux x86_64,60,13366,,,,,,,,,,,,space,,,,,,1,0.449145,,,,,,0,15,15,15,1,,,,,,,,,,,,,,,,,,,,,,,,,,,,,,,,,,,,
,,,,,,,,,,,,,,,,,,,,,,,,19,female,2020-09-04_18h05.54.596,torte-2b,2020.1.3,Linux x86_64,60,13366,,,,,,,,,,,,,,,,,,7,,,,,,,0,16,16,16,1,,,,,,,,,,,,,,,,,,,,,,,,,,,,,,,,,,,,
,,,,,,,,,,,,,,,,,,,,,,,,19,female,2020-09-04_18h05.54.596,torte-2b,2020.1.3,Linux x86_64,60,13366,,,,,,,,,,,,,,,,,,7,,,,,,,0,17,17,17,1,,,,,,,,,,,,,,,,,,,,,,,,,,,,,,,,,,,,
,,,,,,,,,,,,,,,,,,,,,,,,19,female,2020-09-04_18h05.54.596,torte-2b,2020.1.3,Linux x86_64,60,13366,,,,,,,,,,,,space,,,,,,4,0.442905,,,,,,0,18,18,18,1,,,,,,,,,,,,,,,,,,,,,,,,,,,,,,,,,,,,
,,,,,,,,,,,,,,,,,,,,,,,,19,female,2020-09-04_18h05.54.596,torte-2b,2020.1.3,Linux x86_64,60,13366,,,,,,,,,,,,space,,,,,,7,0.335185,,,,,,0,19,19,19,1,,,,,,,,,,,,,,,,,,,,,,,,,,,,,,,,,,,,
,,,,,,,,,,,,,,,,,,,,,,,,19,female,2020-09-04_18h05.54.596,torte-2b,2020.1.3,Linux x86_64,60,13366,,,,,,,,,,,,space,,,,,,3,0.319505,,,,,,0,20,20,20,1,,,,,,,,,,,,,,,,,,,,,,,,,,,,,,,,,,,,
,,,,,,,,,,,,,,,,,,,,,,,,19,female,2020-09-04_18h05.54.596,torte-2b,2020.1.3,Linux x86_64,60,13366,,,,,,,,,,,,space,,,,,,7,0.334425,,,,,,0,21,21,21,1,,,,,,,,,,,,,,,,,,,,,,,,,,,,,,,,,,,,
,,,,,,,,,,,,,,,,,,,,,,,,19,female,2020-09-04_18h05.54.596,torte-2b,2020.1.3,Linux x86_64,60,13366,,,,,,,,,,,,,,,,,,3,,,,,,,0,22,22,22,1,,,,,,,,,,,,,,,,,,,,,,,,,,,,,,,,,,,,
,,,,,,,,,,,,,,,,,,,,,,,,19,female,2020-09-04_18h05.54.596,torte-2b,2020.1.3,Linux x86_64,60,13366,,,,,,,,,,,,,,,,,,1,,,,,,,0,23,23,23,1,,,,,,,,,,,,,,,,,,,,,,,,,,,,,,,,,,,,
,,,,,,,,,,,,,,,,,,,,,,,,19,female,2020-09-04_18h05.54.596,torte-2b,2020.1.3,Linux x86_64,60,13366,,,,,,,,,,,,space,,,,,,6,0.367115,,,,,,0,24,24,24,1,,,,,,,,,,,,,,,,,,,,,,,,,,,,,,,,,,,,
,,,,,,,,,,,,,,,,,,,,,,,,19,female,2020-09-04_18h05.54.596,torte-2b,2020.1.3,Linux x86_64,60,13366,,,,,,,,,,,,,,,,,,3,,,,,,,0,25,25,25,1,,,,,,,,,,,,,,,,,,,,,,,,,,,,,,,,,,,,
,,,,,,,,,,,,,,,,,,,,,,,,19,female,2020-09-04_18h05.54.596,torte-2b,2020.1.3,Linux x86_64,60,13366,,,,,,,,,,,,,,,,,,2,,,,,,,0,26,26,26,1,,,,,,,,,,,,,,,,,,,,,,,,,,,,,,,,,,,,
,,,,,,,,,,,,,,,,,,,,,,,,19,female,2020-09-04_18h05.54.596,torte-2b,2020.1.3,Linux x86_64,60,13366,,,,,,,,,,,,space,,,,,,3,0.312855,,,,,,0,27,27,27,1,,,,,,,,,,,,,,,,,,,,,,,,,,,,,,,,,,,,
,,,,,,,,,,,,,,,,,,,,,,,,19,female,2020-09-04_18h05.54.596,torte-2b,2020.1.3,Linux x86_64,60,13366,,,,,,,,,,,,,,,,,,1,,,,,,,0,28,28,28,1,,,,,,,,,,,,,,,,,,,,,,,,,,,,,,,,,,,,
,,,,,,,,,,,,,,,,,,,,,,,,19,female,2020-09-04_18h05.54.596,torte-2b,2020.1.3,Linux x86_64,60,13366,,,,,,,,,,,,space,,,,,,3,0.44471,,,,,,0,29,29,29,1,,,,,,,,,,,,,,,,,,,,,,,,,,,,,,,,,,,,
,,,,,,,,,,,,,,,,,,,,,,,,19,female,2020-09-04_18h05.54.596,torte-2b,2020.1.3,Linux x86_64,60,13366,,,,,,,,,,,,space,,,,,,1,0.480845,,,,,,0,30,30,30,1,,,,,,,,,,,,,,,,,,,,,,,,,,,,,,,,,,,,
,,,,,,,,,,,,,,,,,,,,,,,,19,female,2020-09-04_18h05.54.596,torte-2b,2020.1.3,Linux x86_64,60,13366,,,,,,,,,,,,,,,,,,7,,,,,,,0,31,31,31,1,,,,,,,,,,,,,,,,,,,,,,,,,,,,,,,,,,,,
,,,,,,,,,,,,,,,,,,,,,,,,19,female,2020-09-04_18h05.54.596,torte-2b,2020.1.3,Linux x86_64,60,13366,,,,,,,,,,,,,,,,,,5,,,,,,,0,32,32,32,1,,,,,,,,,,,,,,,,,,,,,,,,,,,,,,,,,,,,
,,,,,,,,,,,,,,,,,,,,,,,,19,female,2020-09-04_18h05.54.596,torte-2b,2020.1.3,Linux x86_64,60,13366,,,,,,,,,,,,space,,,,,,7,0.314695,,,,,,0,33,33,33,1,,,,,,,,,,,,,,,,,,,,,,,,,,,,,,,,,,,,
,,,,,,,,,,,,,,,,,,,,,,,,19,female,2020-09-04_18h05.54.596,torte-2b,2020.1.3,Linux x86_64,60,13366,,,,,,,,,,,,,,,,,,2,,,,,,,0,34,34,34,1,,,,,,,,,,,,,,,,,,,,,,,,,,,,,,,,,,,,
,,,,,,,,,,,,,,,,,,,,,,,,19,female,2020-09-04_18h05.54.596,torte-2b,2020.1.3,Linux x86_64,60,13366,,,,,,,,,,,,,,,,,,3,,,,,,,,,,,,0,0,0,0,1,,,,,,,,,,,,,,,,,,,,,,,,,,,,,,,
,,,,,,,,,,,,,,,,,,,,,,,,19,female,2020-09-04_18h05.54.596,torte-2b,2020.1.3,Linux x86_64,60,13366,,,,,,,,,,,,,,,,,,7,,,,,,,,,,,,0,1,1,1,1,,,,,,,,,,,,,,,,,,,,,,,,,,,,,,,
,,,,,,,,,,,,,,,,,,,,,,,,19,female,2020-09-04_18h05.54.596,torte-2b,2020.1.3,Linux x86_64,60,13366,,,,,,,,,,,,space,,,,,,7,0.442175,,,,,,,,,,,0,2,2,2,1,,,,,,,,,,,,,,,,,,,,,,,,,,,,,,,
,,,,,,,,,,,,,,,,,,,,,,,,19,female,2020-09-04_18h05.54.596,torte-2b,2020.1.3,Linux x86_64,60,13366,,,,,,,,,,,,,,,,,,4,,,,,,,,,,,,0,3,3,3,1,,,,,,,,,,,,,,,,,,,,,,,,,,,,,,,
,,,,,,,,,,,,,,,,,,,,,,,,19,female,2020-09-04_18h05.54.596,torte-2b,2020.1.3,Linux x86_64,60,13366,,,,,,,,,,,,,,,,,,5,,,,,,,,,,,,0,4,4,4,1,,,,,,,,,,,,,,,,,,,,,,,,,,,,,,,
,,,,,,,,,,,,,,,,,,,,,,,,19,female,2020-09-04_18h05.54.596,torte-2b,2020.1.3,Linux x86_64,60,13366,,,,,,,,,,,,space,,,,,,4,0.478715,,,,,,,,,,,0,5,5,5,1,,,,,,,,,,,,,,,,,,,,,,,,,,,,,,,
,,,,,,,,,,,,,,,,,,,,,,,,19,female,2020-09-04_18h05.54.596,torte-2b,2020.1.3,Linux x86_64,60,13366,,,,,,,,,,,,,,,,,,2,,,,,,,,,,,,0,6,6,6,1,,,,,,,,,,,,,,,,,,,,,,,,,,,,,,,
,,,,,,,,,,,,,,,,,,,,,,,,19,female,2020-09-04_18h05.54.596,torte-2b,2020.1.3,Linux x86_64,60,13366,,,,,,,,,,,,,,,,,,4,,,,,,,,,,,,0,7,7,7,1,,,,,,,,,,,,,,,,,,,,,,,,,,,,,,,
,,,,,,,,,,,,,,,,,,,,,,,,19,female,2020-09-04_18h05.54.596,torte-2b,2020.1.3,Linux x86_64,60,13366,,,,,,,,,,,,space,,,,,,2,0.598815,,,,,,,,,,,0,8,8,8,1,,,,,,,,,,,,,,,,,,,,,,,,,,,,,,,
,,,,,,,,,,,,,,,,,,,,,,,,19,female,2020-09-04_18h05.54.596,torte-2b,2020.1.3,Linux x86_64,60,13366,,,,,,,,,,,,space,,,,,,2,0.688865,,,,,,,,,,,0,9,9,9,1,,,,,,,,,,,,,,,,,,,,,,,,,,,,,,,
,,,,,,,,,,,,,,,,,,,,,,,,19,female,2020-09-04_18h05.54.596,torte-2b,2020.1.3,Linux x86_64,60,13366,,,,,,,,,,,,,,,,,,6,,,,,,,,,,,,0,10,10,10,1,,,,,,,,,,,,,,,,,,,,,,,,,,,,,,,
,,,,,,,,,,,,,,,,,,,,,,,,19,female,2020-09-04_18h05.54.596,torte-2b,2020.1.3,Linux x86_64,60,13366,,,,,,,,,,,,space,,,,,,2,0.46968,,,,,,,,,,,0,11,11,11,1,,,,,,,,,,,,,,,,,,,,,,,,,,,,,,,
,,,,,,,,,,,,,,,,,,,,,,,,19,female,2020-09-04_18h05.54.596,torte-2b,2020.1.3,Linux x86_64,60,13366,,,,,,,,,,,,space,,,,,,2,0.43661,,,,,,,,,,,0,12,12,12,1,,,,,,,,,,,,,,,,,,,,,,,,,,,,,,,
,,,,,,,,,,,,,,,,,,,,,,,,19,female,2020-09-04_18h05.54.596,torte-2b,2020.1.3,Linux x86_64,60,13366,,,,,,,,,,,,,,,,,,2,,,,,,,,,,,,0,13,13,13,1,,,,,,,,,,,,,,,,,,,,,,,,,,,,,,,
,,,,,,,,,,,,,,,,,,,,,,,,19,female,2020-09-04_18h05.54.596,torte-2b,2020.1.3,Linux x86_64,60,13366,,,,,,,,,,,,space,,,,,,2,0.58232,,,,,,,,,,,0,14,14,14,1,,,,,,,,,,,,,,,,,,,,,,,,,,,,,,,
,,,,,,,,,,,,,,,,,,,,,,,,19,female,2020-09-04_18h05.54.596,torte-2b,2020.1.3,Linux x86_64,60,13366,,,,,,,,,,,,,,,,,,4,,,,,,,,,,,,0,15,15,15,1,,,,,,,,,,,,,,,,,,,,,,,,,,,,,,,
,,,,,,,,,,,,,,,,,,,,,,,,19,female,2020-09-04_18h05.54.596,torte-2b,2020.1.3,Linux x86_64,60,13366,,,,,,,,,,,,,,,,,,3,,,,,,,,,,,,0,16,16,16,1,,,,,,,,,,,,,,,,,,,,,,,,,,,,,,,
,,,,,,,,,,,,,,,,,,,,,,,,19,female,2020-09-04_18h05.54.596,torte-2b,2020.1.3,Linux x86_64,60,13366,,,,,,,,,,,,,,,,,,7,,,,,,,,,,,,0,17,17,17,1,,,,,,,,,,,,,,,,,,,,,,,,,,,,,,,
,,,,,,,,,,,,,,,,,,,,,,,,19,female,2020-09-04_18h05.54.596,torte-2b,2020.1.3,Linux x86_64,60,13366,,,,,,,,,,,,space,,,,,,4,0.605385,,,,,,,,,,,0,18,18,18,1,,,,,,,,,,,,,,,,,,,,,,,,,,,,,,,
,,,,,,,,,,,,,,,,,,,,,,,,19,female,2020-09-04_18h05.54.596,torte-2b,2020.1.3,Linux x86_64,60,13366,,,,,,,,,,,,space,,,,,,7,0.787985,,,,,,,,,,,0,19,19,19,1,,,,,,,,,,,,,,,,,,,,,,,,,,,,,,,
,,,,,,,,,,,,,,,,,,,,,,,,19,female,2020-09-04_18h05.54.596,torte-2b,2020.1.3,Linux x86_64,60,13366,,,,,,,,,,,,,,,,,,7,,,,,,,,,,,,0,20,20,20,1,,,,,,,,,,,,,,,,,,,,,,,,,,,,,,,
,,,,,,,,,,,,,,,,,,,,,,,,19,female,2020-09-04_18h05.54.596,torte-2b,2020.1.3,Linux x86_64,60,13366,,,,,,,,,,,,space,,,,,,7,0.75121,,,,,,,,,,,0,21,21,21,1,,,,,,,,,,,,,,,,,,,,,,,,,,,,,,,
,,,,,,,,,,,,,,,,,,,,,,,,19,female,2020-09-04_18h05.54.596,torte-2b,2020.1.3,Linux x86_64,60,13366,,,,,,,,,,,,space,,,,,,7,0.4654,,,,,,,,,,,0,22,22,22,1,,,,,,,,,,,,,,,,,,,,,,,,,,,,,,,
,,,,,,,,,,,,,,,,,,,,,,,,19,female,2020-09-04_18h05.54.596,torte-2b,2020.1.3,Linux x86_64,60,13366,,,,,,,,,,,,,,,,,,1,,,,,,,,,,,,0,23,23,23,1,,,,,,,,,,,,,,,,,,,,,,,,,,,,,,,
,,,,,,,,,,,,,,,,,,,,,,,,19,female,2020-09-04_18h05.54.596,torte-2b,2020.1.3,Linux x86_64,60,13366,,,,,,,,,,,,space,,,,,,7,0.437875,,,,,,,,,,,0,24,24,24,1,,,,,,,,,,,,,,,,,,,,,,,,,,,,,,,
,,,,,,,,,,,,,,,,,,,,,,,,19,female,2020-09-04_18h05.54.596,torte-2b,2020.1.3,Linux x86_64,60,13366,,,,,,,,,,,,space,,,,,,1,0.407035,,,,,,,,,,,0,25,25,25,1,,,,,,,,,,,,,,,,,,,,,,,,,,,,,,,
,,,,,,,,,,,,,,,,,,,,,,,,19,female,2020-09-04_18h05.54.596,torte-2b,2020.1.3,Linux x86_64,60,13366,,,,,,,,,,,,space,,,,,,7,0.43547,,,,,,,,,,,0,26,26,26,1,,,,,,,,,,,,,,,,,,,,,,,,,,,,,,,
,,,,,,,,,,,,,,,,,,,,,,,,19,female,2020-09-04_18h05.54.596,torte-2b,2020.1.3,Linux x86_64,60,13366,,,,,,,,,,,,,,,,,,2,,,,,,,,,,,,0,27,27,27,1,,,,,,,,,,,,,,,,,,,,,,,,,,,,,,,
,,,,,,,,,,,,,,,,,,,,,,,,19,female,2020-09-04_18h05.54.596,torte-2b,2020.1.3,Linux x86_64,60,13366,,,,,,,,,,,,,,,,,,5,,,,,,,,,,,,0,28,28,28,1,,,,,,,,,,,,,,,,,,,,,,,,,,,,,,,
,,,,,,,,,,,,,,,,,,,,,,,,19,female,2020-09-04_18h05.54.596,torte-2b,2020.1.3,Linux x86_64,60,13366,,,,,,,,,,,,,,,,,,5,,,,,,,,,,,,0,29,29,29,1,,,,,,,,,,,,,,,,,,,,,,,,,,,,,,,
,,,,,,,,,,,,,,,,,,,,,,,,19,female,2020-09-04_18h05.54.596,torte-2b,2020.1.3,Linux x86_64,60,13366,,,,,,,,,,,,space,,,,,,5,0.511075,,,,,,,,,,,0,30,30,30,1,,,,,,,,,,,,,,,,,,,,,,,,,,,,,,,
,,,,,,,,,,,,,,,,,,,,,,,,19,female,2020-09-04_18h05.54.596,torte-2b,2020.1.3,Linux x86_64,60,13366,,,,,,,,,,,,,,,,,,1,,,,,,,,,,,,0,31,31,31,1,,,,,,,,,,,,,,,,,,,,,,,,,,,,,,,
,,,,,,,,,,,,,,,,,,,,,,,,19,female,2020-09-04_18h05.54.596,torte-2b,2020.1.3,Linux x86_64,60,13366,,,,,,,,,,,,space,,,,,,5,0.62309,,,,,,,,,,,0,32,32,32,1,,,,,,,,,,,,,,,,,,,,,,,,,,,,,,,
,,,,,,,,,,,,,,,,,,,,,,,,19,female,2020-09-04_18h05.54.596,torte-2b,2020.1.3,Linux x86_64,60,13366,,,,,,,,,,,,,,,,,,3,,,,,,,,,,,,0,33,33,33,1,,,,,,,,,,,,,,,,,,,,,,,,,,,,,,,
,,,,,,,,,,,,,,,,,,,,,,,,19,female,2020-09-04_18h05.54.596,torte-2b,2020.1.3,Linux x86_64,60,13366,,,,,,,,,,,,space,,,,,,3,0.551725,,,,,,,,,,,0,34,34,34,1,,,,,,,,,,,,,,,,,,,,,,,,,,,,,,,
,,,,,,,,,,,,l,0.819435,Incorrect,,,,,,t3.png,t2.png,1,0.90855,19,female,2020-09-04_18h05.54.596,torte-2b,2020.1.3,Linux x86_64,60,13366,o,1.75899,,,,,,,,,,,,,,,,,,,,,,,,,,,,,,,,,space,13.996955,0,0,0,18,1,,,,,,,,,,,,,,,,,,,,,,,,
,,,,,,,,,,,,a,0.868685,Correct!,,,,,,t3.png,t4.png,1,0.909,19,female,2020-09-04_18h05.54.596,torte-2b,2020.1.3,Linux x86_64,60,13366,,,,,,,,,,,,,,,,,,,,,,,,,,,,,,,,,,,,,0,1,1,89,1,,,,,,,,,,,,,,,,,,,,,,,,
,,,,,,,,,,,,l,0.55441,Incorrect,,,,,,t3.png,t2.png,1,0.90855,19,female,2020-09-04_18h05.54.596,torte-2b,2020.1.3,Linux x86_64,60,13366,,,,,,,,,,,,,,,,,,,,,,,,,,,,,,,,,,,,,0,2,2,97,1,,,,,,,,,,,,,,,,,,,,,,,,
,,,,,,,,,,,,a,1.24614,Incorrect,,,,,,t3.png,t1.png,2,0.056466,19,female,2020-09-04_18h05.54.596,torte-2b,2020.1.3,Linux x86_64,60,13366,,,,,,,,,,,,,,,,,,,,,,,,,,,,,,,,,,,,,0,3,3,64,1,,,,,,,,,,,,,,,,,,,,,,,,
,,,,,,,,,,,,l,0.736095,Correct!,,,,,,t5.png,t2.png,3,0.0000131,19,female,2020-09-04_18h05.54.596,torte-2b,2020.1.3,Linux x86_64,60,13366,,,,,,,,,,,,,,,,,,,,,,,,,,,,,,,,,,,,,0,4,4,51,1,,,,,,,,,,,,,,,,,,,,,,,,
,,,,,,,,,,,,l,0.59689,Correct!,,,,,,t5.png,t3.png,2,0.056466,19,female,2020-09-04_18h05.54.596,torte-2b,2020.1.3,Linux x86_64,60,13366,,,,,,,,,,,,,,,,,,,,,,,,,,,,,,,,,,,,,0,5,5,56,1,,,,,,,,,,,,,,,,,,,,,,,,
,,,,,,,,,,,,a,0.68184,Incorrect,,,,,,t1.png,t3.png,2,0.056466,19,female,2020-09-04_18h05.54.596,torte-2b,2020.1.3,Linux x86_64,60,13366,,,,,,,,,,,,,,,,,,,,,,,,,,,,,,,,,,,,,0,6,6,99,1,,,,,,,,,,,,,,,,,,,,,,,,
,,,,,,,,,,,,l,0.42738,Incorrect,,,,,,t2.png,t2.png,0,0.981,19,female,2020-09-04_18h05.54.596,torte-2b,2020.1.3,Linux x86_64,60,13366,,,,,,,,,,,,,,,,,,,,,,,,,,,,,,,,,,,,,0,7,7,101,1,,,,,,,,,,,,,,,,,,,,,,,,
,,,,,,,,,,,,l,0.64756,Correct!,,,,,,t4.png,t2.png,2,0.059078,19,female,2020-09-04_18h05.54.596,torte-2b,2020.1.3,Linux x86_64,60,13366,,,,,,,,,,,,,,,,,,,,,,,,,,,,,,,,,,,,,0,8,8,88,1,,,,,,,,,,,,,,,,,,,,,,,,
,,,,,,,,,,,,a,0.694145,Correct!,,,,,,t5.png,t5.png,0,0.97829,19,female,2020-09-04_18h05.54.596,torte-2b,2020.1.3,Linux x86_64,60,13366,,,,,,,,,,,,,,,,,,,,,,,,,,,,,,,,,,,,,0,9,9,70,1,,,,,,,,,,,,,,,,,,,,,,,,
,,,,,,,,,,,,l,0.466295,Incorrect,,,,,,t4.png,t4.png,0,0.98115,19,female,2020-09-04_18h05.54.596,torte-2b,2020.1.3,Linux x86_64,60,13366,,,,,,,,,,,,,,,,,,,,,,,,,,,,,,,,,,,,,0,10,10,90,1,,,,,,,,,,,,,,,,,,,,,,,,
,,,,,,,,,,,,a,0.753885,Incorrect,,,,,,t1.png,t3.png,2,0.056466,19,female,2020-09-04_18h05.54.596,torte-2b,2020.1.3,Linux x86_64,60,13366,,,,,,,,,,,,,,,,,,,,,,,,,,,,,,,,,,,,,0,11,11,69,1,,,,,,,,,,,,,,,,,,,,,,,,
,,,,,,,,,,,,l,0.607925,Incorrect,,,,,,t4.png,t5.png,1,0.90025,19,female,2020-09-04_18h05.54.596,torte-2b,2020.1.3,Linux x86_64,60,13366,,,,,,,,,,,,,,,,,,,,,,,,,,,,,,,,,,,,,0,12,12,113,1,,,,,,,,,,,,,,,,,,,,,,,,
,,,,,,,,,,,,l,0.73046,Correct!,,,,,,t5.png,t1.png,4,9.55E-11,19,female,2020-09-04_18h05.54.596,torte-2b,2020.1.3,Linux x86_64,60,13366,,,,,,,,,,,,,,,,,,,,,,,,,,,,,,,,,,,,,0,13,13,22,1,,,,,,,,,,,,,,,,,,,,,,,,
,,,,,,,,,,,,a,0.68584,Incorrect,,,,,,t1.png,t3.png,2,0.056466,19,female,2020-09-04_18h05.54.596,torte-2b,2020.1.3,Linux x86_64,60,13366,,,,,,,,,,,,,,,,,,,,,,,,,,,,,,,,,,,,,0,14,14,87,1,,,,,,,,,,,,,,,,,,,,,,,,
,,,,,,,,,,,,a,0.676685,Incorrect,,,,,,t2.png,t5.png,3,0.0000131,19,female,2020-09-04_18h05.54.596,torte-2b,2020.1.3,Linux x86_64,60,13366,,,,,,,,,,,,,,,,,,,,,,,,,,,,,,,,,,,,,0,15,15,95,1,,,,,,,,,,,,,,,,,,,,,,,,
,,,,,,,,,,,,l,0.693915,Correct!,,,,,,t5.png,t3.png,2,0.0565,19,female,2020-09-04_18h05.54.596,torte-2b,2020.1.3,Linux x86_64,60,13366,,,,,,,,,,,,,,,,,,,,,,,,,,,,,,,,,,,,,0,16,16,39,1,,,,,,,,,,,,,,,,,,,,,,,,
,,,,,,,,,,,,l,0.928465,Incorrect,,,,,,t4.png,t4.png,0,0.98115,19,female,2020-09-04_18h05.54.596,torte-2b,2020.1.3,Linux x86_64,60,13366,,,,,,,,,,,,,,,,,,,,,,,,,,,,,,,,,,,,,0,17,17,21,1,,,,,,,,,,,,,,,,,,,,,,,,
,,,,,,,,,,,,l,0.75854,Correct!,,,,,,t3.png,t1.png,2,0.056466,19,female,2020-09-04_18h05.54.596,torte-2b,2020.1.3,Linux x86_64,60,13366,,,,,,,,,,,,,,,,,,,,,,,,,,,,,,,,,,,,,0,18,18,32,1,,,,,,,,,,,,,,,,,,,,,,,,
,,,,,,,,,,,,a,0.685105,Correct!,,,,,,t4.png,t4.png,0,0.98115,19,female,2020-09-04_18h05.54.596,torte-2b,2020.1.3,Linux x86_64,60,13366,,,,,,,,,,,,,,,,,,,,,,,,,,,,,,,,,,,,,0,19,19,52,1,,,,,,,,,,,,,,,,,,,,,,,,
,,,,,,,,,,,,a,1.058845,Correct!,,,,,,t1.png,t1.png,0,0.978,19,female,2020-09-04_18h05.54.596,torte-2b,2020.1.3,Linux x86_64,60,13366,,,,,,,,,,,,,,,,,,,,,,,,,,,,,,,,,,,,,0,20,20,54,1,,,,,,,,,,,,,,,,,,,,,,,,
,,,,,,,,,,,,l,0.61223,Incorrect,,,,,,t4.png,t4.png,0,0.98115,19,female,2020-09-04_18h05.54.596,torte-2b,2020.1.3,Linux x86_64,60,13366,,,,,,,,,,,,,,,,,,,,,,,,,,,,,,,,,,,,,0,21,21,80,1,,,,,,,,,,,,,,,,,,,,,,,,
,,,,,,,,,,,,l,0.576195,Incorrect,,,,,,t1.png,t1.png,0,0.97829,19,female,2020-09-04_18h05.54.596,torte-2b,2020.1.3,Linux x86_64,60,13366,,,,,,,,,,,,,,,,,,,,,,,,,,,,,,,,,,,,,0,22,22,78,1,,,,,,,,,,,,,,,,,,,,,,,,
,,,,,,,,,,,,l,1.083915,Correct!,,,,,,t3.png,t5.png,2,0.0565,19,female,2020-09-04_18h05.54.596,torte-2b,2020.1.3,Linux x86_64,60,13366,,,,,,,,,,,,,,,,,,,,,,,,,,,,,,,,,,,,,0,23,23,30,1,,,,,,,,,,,,,,,,,,,,,,,,
,,,,,,,,,,,,a,0.5567,Incorrect,,,,,,t5.png,t2.png,3,0.0000131,19,female,2020-09-04_18h05.54.596,torte-2b,2020.1.3,Linux x86_64,60,13366,,,,,,,,,,,,,,,,,,,,,,,,,,,,,,,,,,,,,0,24,24,116,1,,,,,,,,,,,,,,,,,,,,,,,,
,,,,,,,,,,,,l,0.326185,Incorrect,,,,,,t4.png,t3.png,1,0.909,19,female,2020-09-04_18h05.54.596,torte-2b,2020.1.3,Linux x86_64,60,13366,,,,,,,,,,,,,,,,,,,,,,,,,,,,,,,,,,,,,0,25,25,20,1,,,,,,,,,,,,,,,,,,,,,,,,
,,,,,,,,,,,,a,0.65426,Correct!,,,,,,t2.png,t3.png,1,0.90855,19,female,2020-09-04_18h05.54.596,torte-2b,2020.1.3,Linux x86_64,60,13366,,,,,,,,,,,,,,,,,,,,,,,,,,,,,,,,,,,,,0,26,26,68,1,,,,,,,,,,,,,,,,,,,,,,,,
,,,,,,,,,,,,l,0.47906,Correct!,,,,,,t5.png,t3.png,2,0.056466,19,female,2020-09-04_18h05.54.596,torte-2b,2020.1.3,Linux x86_64,60,13366,,,,,,,,,,,,,,,,,,,,,,,,,,,,,,,,,,,,,0,27,27,114,1,,,,,,,,,,,,,,,,,,,,,,,,
,,,,,,,,,,,,a,0.59601,Incorrect,,,,,,t2.png,t5.png,3,0.0000131,19,female,2020-09-04_18h05.54.596,torte-2b,2020.1.3,Linux x86_64,60,13366,,,,,,,,,,,,,,,,,,,,,,,,,,,,,,,,,,,,,0,28,28,66,1,,,,,,,,,,,,,,,,,,,,,,,,
,,,,,,,,,,,,l,0.324055,Correct!,,,,,,t5.png,t2.png,3,0.0000131,19,female,2020-09-04_18h05.54.596,torte-2b,2020.1.3,Linux x86_64,60,13366,,,,,,,,,,,,,,,,,,,,,,,,,,,,,,,,,,,,,0,29,29,91,1,,,,,,,,,,,,,,,,,,,,,,,,
,,,,,,,,,,,,a,0.701885,Incorrect,,,,,,t1.png,t4.png,3,0.0000131,19,female,2020-09-04_18h05.54.596,torte-2b,2020.1.3,Linux x86_64,60,13366,,,,,,,,,,,,,,,,,,,,,,,,,,,,,,,,,,,,,0,30,30,81,1,,,,,,,,,,,,,,,,,,,,,,,,
,,,,,,,,,,,,l,0.44662,Incorrect,,,,,,t3.png,t4.png,1,0.909,19,female,2020-09-04_18h05.54.596,torte-2b,2020.1.3,Linux x86_64,60,13366,,,,,,,,,,,,,,,,,,,,,,,,,,,,,,,,,,,,,0,31,31,106,1,,,,,,,,,,,,,,,,,,,,,,,,
,,,,,,,,,,,,a,0.59299,Incorrect,,,,,,t1.png,t4.png,3,0.0000131,19,female,2020-09-04_18h05.54.596,torte-2b,2020.1.3,Linux x86_64,60,13366,,,,,,,,,,,,,,,,,,,,,,,,,,,,,,,,,,,,,0,32,32,107,1,,,,,,,,,,,,,,,,,,,,,,,,
,,,,,,,,,,,,l,0.50339,Incorrect,,,,,,t4.png,t3.png,1,0.909,19,female,2020-09-04_18h05.54.596,torte-2b,2020.1.3,Linux x86_64,60,13366,,,,,,,,,,,,,,,,,,,,,,,,,,,,,,,,,,,,,0,33,33,46,1,,,,,,,,,,,,,,,,,,,,,,,,
,,,,,,,,,,,,a,0.57277,Correct!,,,,,,t4.png,t5.png,1,0.90025,19,female,2020-09-04_18h05.54.596,torte-2b,2020.1.3,Linux x86_64,60,13366,,,,,,,,,,,,,,,,,,,,,,,,,,,,,,,,,,,,,0,34,34,58,1,,,,,,,,,,,,,,,,,,,,,,,,
,,,,,,,,,,,,l,0.93471,Incorrect,,,,,,t4.png,t3.png,1,0.90855,19,female,2020-09-04_18h05.54.596,torte-2b,2020.1.3,Linux x86_64,60,13366,,,,,,,,,,,,,,,,,,,,,,,,,,,,,,,,,,,,,0,35,35,75,1,,,,,,,,,,,,,,,,,,,,,,,,
,,,,,,,,,,,,a,0.602505,Incorrect,,,,,,t1.png,t4.png,3,0.0000131,19,female,2020-09-04_18h05.54.596,torte-2b,2020.1.3,Linux x86_64,60,13366,,,,,,,,,,,,,,,,,,,,,,,,,,,,,,,,,,,,,0,36,36,50,1,,,,,,,,,,,,,,,,,,,,,,,,
,,,,,,,,,,,,l,0.75077,Incorrect,,,,,,t2.png,t1.png,1,0.90025,19,female,2020-09-04_18h05.54.596,torte-2b,2020.1.3,Linux x86_64,60,13366,,,,,,,,,,,,,,,,,,,,,,,,,,,,,,,,,,,,,0,37,37,4,1,,,,,,,,,,,,,,,,,,,,,,,,
,,,,,,,,,,,,a,0.47917,Incorrect,,,,,,t1.png,t5.png,4,9.55E-11,19,female,2020-09-04_18h05.54.596,torte-2b,2020.1.3,Linux x86_64,60,13366,,,,,,,,,,,,,,,,,,,,,,,,,,,,,,,,,,,,,0,38,38,12,1,,,,,,,,,,,,,,,,,,,,,,,,
,,,,,,,,,,,,l,0.409385,Incorrect,,,,,,t2.png,t2.png,0,0.98115,19,female,2020-09-04_18h05.54.596,torte-2b,2020.1.3,Linux x86_64,60,13366,,,,,,,,,,,,,,,,,,,,,,,,,,,,,,,,,,,,,0,39,39,57,1,,,,,,,,,,,,,,,,,,,,,,,,
,,,,,,,,,,,,a,0.57832,Incorrect,,,,,,t1.png,t3.png,2,0.056466,19,female,2020-09-04_18h05.54.596,torte-2b,2020.1.3,Linux x86_64,60,13366,,,,,,,,,,,,,,,,,,,,,,,,,,,,,,,,,,,,,0,40,40,60,1,,,,,,,,,,,,,,,,,,,,,,,,
,,,,,,,,,,,,l,0.58711,Incorrect,,,,,,t5.png,t5.png,0,0.97829,19,female,2020-09-04_18h05.54.596,torte-2b,2020.1.3,Linux x86_64,60,13366,,,,,,,,,,,,,,,,,,,,,,,,,,,,,,,,,,,,,0,41,41,25,1,,,,,,,,,,,,,,,,,,,,,,,,
,,,,,,,,,,,,a,0.57135,Incorrect,,,,,,t1.png,t5.png,4,9.55E-11,19,female,2020-09-04_18h05.54.596,torte-2b,2020.1.3,Linux x86_64,60,13366,,,,,,,,,,,,,,,,,,,,,,,,,,,,,,,,,,,,,0,42,42,16,1,,,,,,,,,,,,,,,,,,,,,,,,
,,,,,,,,,,,,a,0.57303,Incorrect,,,,,,t1.png,t3.png,2,0.056466,19,female,2020-09-04_18h05.54.596,torte-2b,2020.1.3,Linux x86_64,60,13366,,,,,,,,,,,,,,,,,,,,,,,,,,,,,,,,,,,,,0,43,43,63,1,,,,,,,,,,,,,,,,,,,,,,,,
,,,,,,,,,,,,l,0.653145,Correct!,,,,,,t4.png,t2.png,2,0.0591,19,female,2020-09-04_18h05.54.596,torte-2b,2020.1.3,Linux x86_64,60,13366,,,,,,,,,,,,,,,,,,,,,,,,,,,,,,,,,,,,,0,44,44,36,1,,,,,,,,,,,,,,,,,,,,,,,,
,,,,,,,,,,,,a,0.787165,Correct!,,,,,,t1.png,t1.png,0,0.97829,19,female,2020-09-04_18h05.54.596,torte-2b,2020.1.3,Linux x86_64,60,13366,,,,,,,,,,,,,,,,,,,,,,,,,,,,,,,,,,,,,0,45,45,67,1,,,,,,,,,,,,,,,,,,,,,,,,
,,,,,,,,,,,,a,0.900245,Correct!,,,,,,t1.png,t2.png,1,0.9,19,female,2020-09-04_18h05.54.596,torte-2b,2020.1.3,Linux x86_64,60,13366,,,,,,,,,,,,,,,,,,,,,,,,,,,,,,,,,,,,,0,46,46,1,1,,,,,,,,,,,,,,,,,,,,,,,,
,,,,,,,,,,,,l,0.878905,Incorrect,,,,,,t3.png,t2.png,1,0.90855,19,female,2020-09-04_18h05.54.596,torte-2b,2020.1.3,Linux x86_64,60,13366,,,,,,,,,,,,,,,,,,,,,,,,,,,,,,,,,,,,,0,47,47,53,1,,,,,,,,,,,,,,,,,,,,,,,,
,,,,,,,,,,,,a,0.559325,Correct!,,,,,,t1.png,t2.png,1,0.90025,19,female,2020-09-04_18h05.54.596,torte-2b,2020.1.3,Linux x86_64,60,13366,,,,,,,,,,,,,,,,,,,,,,,,,,,,,,,,,,,,,0,48,48,105,1,,,,,,,,,,,,,,,,,,,,,,,,
,,,,,,,,,,,,l,1.09398,Correct!,,,,,,t2.png,t4.png,2,0.059078,19,female,2020-09-04_18h05.54.596,torte-2b,2020.1.3,Linux x86_64,60,13366,,,,,,,,,,,,,,,,,,,,,,,,,,,,,,,,,,,,,0,49,49,24,1,,,,,,,,,,,,,,,,,,,,,,,,
,,,,,,,,,,,,a,0.34939,Correct!,,,,,,t2.png,t2.png,0,0.98115,19,female,2020-09-04_18h05.54.596,torte-2b,2020.1.3,Linux x86_64,60,13366,,,,,,,,,,,,,,,,,,,,,,,,,,,,,,,,,,,,,0,50,50,59,1,,,,,,,,,,,,,,,,,,,,,,,,
,,,,,,,,,,,,l,0.658335,Correct!,,,,,,t5.png,t1.png,4,9.55E-11,19,female,2020-09-04_18h05.54.596,torte-2b,2020.1.3,Linux x86_64,60,13366,,,,,,,,,,,,,,,,,,,,,,,,,,,,,,,,,,,,,0,51,51,43,1,,,,,,,,,,,,,,,,,,,,,,,,
,,,,,,,,,,,,l,1.456825,Correct!,,,,,,t2.png,t4.png,2,0.059078,19,female,2020-09-04_18h05.54.596,torte-2b,2020.1.3,Linux x86_64,60,13366,,,,,,,,,,,,,,,,,,,,,,,,,,,,,,,,,,,,,0,52,52,37,1,,,,,,,,,,,,,,,,,,,,,,,,
,,,,,,,,,,,,a,0.63266,Correct!,,,,,,t3.png,t4.png,1,0.90855,19,female,2020-09-04_18h05.54.596,torte-2b,2020.1.3,Linux x86_64,60,13366,,,,,,,,,,,,,,,,,,,,,,,,,,,,,,,,,,,,,0,53,53,84,1,,,,,,,,,,,,,,,,,,,,,,,,
,,,,,,,,,,,,l,0.46438,Correct!,,,,,,t3.png,t1.png,2,0.056466,19,female,2020-09-04_18h05.54.596,torte-2b,2020.1.3,Linux x86_64,60,13366,,,,,,,,,,,,,,,,,,,,,,,,,,,,,,,,,,,,,0,54,54,29,1,,,,,,,,,,,,,,,,,,,,,,,,
,,,,,,,,,,,,l,0.45741,Correct!,,,,,,t4.png,t1.png,3,0.0000131,19,female,2020-09-04_18h05.54.596,torte-2b,2020.1.3,Linux x86_64,60,13366,,,,,,,,,,,,,,,,,,,,,,,,,,,,,,,,,,,,,0,55,55,93,1,,,,,,,,,,,,,,,,,,,,,,,,
,,,,,,,,,,,,l,0.501155,Correct!,,,,,,t3.png,t1.png,2,0.056466,19,female,2020-09-04_18h05.54.596,torte-2b,2020.1.3,Linux x86_64,60,13366,,,,,,,,,,,,,,,,,,,,,,,,,,,,,,,,,,,,,0,56,56,0,1,,,,,,,,,,,,,,,,,,,,,,,,
,,,,,,,,,,,,l,0.453845,Correct!,,,,,,t2.png,t4.png,2,0.0591,19,female,2020-09-04_18h05.54.596,torte-2b,2020.1.3,Linux x86_64,60,13366,,,,,,,,,,,,,,,,,,,,,,,,,,,,,,,,,,,,,0,57,57,15,1,,,,,,,,,,,,,,,,,,,,,,,,
,,,,,,,,,,,,a,0.619605,Correct!,,,,,,t1.png,t1.png,0,0.97829,19,female,2020-09-04_18h05.54.596,torte-2b,2020.1.3,Linux x86_64,60,13366,,,,,,,,,,,,,,,,,,,,,,,,,,,,,,,,,,,,,0,58,58,9,1,,,,,,,,,,,,,,,,,,,,,,,,
,,,,,,,,,,,,l,0.436415,Correct!,,,,,,t2.png,t4.png,2,0.059078,19,female,2020-09-04_18h05.54.596,torte-2b,2020.1.3,Linux x86_64,60,13366,,,,,,,,,,,,,,,,,,,,,,,,,,,,,,,,,,,,,0,59,59,77,1,,,,,,,,,,,,,,,,,,,,,,,,
,,,,,,,,,,,,a,0.704345,Correct!,,,,,,t4.png,t5.png,1,0.90025,19,female,2020-09-04_18h05.54.596,torte-2b,2020.1.3,Linux x86_64,60,13366,,,,,,,,,,,,,,,,,,,,,,,,,,,,,,,,,,,,,0,60,60,103,1,,,,,,,,,,,,,,,,,,,,,,,,
,,,,,,,,,,,,l,0.430165,Correct!,,,,,,t1.png,t4.png,3,0.0000131,19,female,2020-09-04_18h05.54.596,torte-2b,2020.1.3,Linux x86_64,60,13366,,,,,,,,,,,,,,,,,,,,,,,,,,,,,,,,,,,,,0,61,61,17,1,,,,,,,,,,,,,,,,,,,,,,,,
,,,,,,,,,,,,a,0.583375,Incorrect,,,,,,t2.png,t4.png,2,0.059078,19,female,2020-09-04_18h05.54.596,torte-2b,2020.1.3,Linux x86_64,60,13366,,,,,,,,,,,,,,,,,,,,,,,,,,,,,,,,,,,,,0,62,62,11,1,,,,,,,,,,,,,,,,,,,,,,,,
,,,,,,,,,,,,l,0.333885,Correct!,,,,,,t3.png,t5.png,2,0.056466,19,female,2020-09-04_18h05.54.596,torte-2b,2020.1.3,Linux x86_64,60,13366,,,,,,,,,,,,,,,,,,,,,,,,,,,,,,,,,,,,,0,63,63,6,1,,,,,,,,,,,,,,,,,,,,,,,,
,,,,,,,,,,,,a,0.250205,Incorrect,,,,,,t3.png,t4.png,1,0.90855,19,female,2020-09-04_18h05.54.596,torte-2b,2020.1.3,Linux x86_64,60,13366,,,,,,,,,,,,,,,,,,,,,,,,,,,,,,,,,,,,,0,64,64,96,1,,,,,,,,,,,,,,,,,,,,,,,,
,,,,,,,,,,,,l,0.30381,Correct!,,,,,,t5.png,t3.png,2,0.056466,19,female,2020-09-04_18h05.54.596,torte-2b,2020.1.3,Linux x86_64,60,13366,,,,,,,,,,,,,,,,,,,,,,,,,,,,,,,,,,,,,0,65,65,38,1,,,,,,,,,,,,,,,,,,,,,,,,
,,,,,,,,,,,,a,0.251085,Correct!,,,,,,t5.png,t5.png,0,0.97829,19,female,2020-09-04_18h05.54.596,torte-2b,2020.1.3,Linux x86_64,60,13366,,,,,,,,,,,,,,,,,,,,,,,,,,,,,,,,,,,,,0,66,66,94,1,,,,,,,,,,,,,,,,,,,,,,,,
,,,,,,,,,,,,l,0.23741,Correct!,,,,,,t2.png,t5.png,3,0.0000131,19,female,2020-09-04_18h05.54.596,torte-2b,2020.1.3,Linux x86_64,60,13366,,,,,,,,,,,,,,,,,,,,,,,,,,,,,,,,,,,,,0,67,67,8,1,,,,,,,,,,,,,,,,,,,,,,,,
,,,,,,,,,,,,a,0.499895,Incorrect,,,,,,t5.png,t2.png,3,0.0000131,19,female,2020-09-04_18h05.54.596,torte-2b,2020.1.3,Linux x86_64,60,13366,,,,,,,,,,,,,,,,,,,,,,,,,,,,,,,,,,,,,0,68,68,119,1,,,,,,,,,,,,,,,,,,,,,,,,
,,,,,,,,,,,,l,0.297235,Incorrect,,,,,,t5.png,t4.png,1,0.9,19,female,2020-09-04_18h05.54.596,torte-2b,2020.1.3,Linux x86_64,60,13366,,,,,,,,,,,,,,,,,,,,,,,,,,,,,,,,,,,,,0,69,69,76,1,,,,,,,,,,,,,,,,,,,,,,,,
,,,,,,,,,,,,a,0.3861,Incorrect,,,,,,t1.png,t5.png,4,9.55E-11,19,female,2020-09-04_18h05.54.596,torte-2b,2020.1.3,Linux x86_64,60,13366,,,,,,,,,,,,,,,,,,,,,,,,,,,,,,,,,,,,,0,70,70,41,1,,,,,,,,,,,,,,,,,,,,,,,,
,,,,,,,,,,,,l,0.40042,Correct!,,,,,,t3.png,t2.png,1,0.909,19,female,2020-09-04_18h05.54.596,torte-2b,2020.1.3,Linux x86_64,60,13366,,,,,,,,,,,,,,,,,,,,,,,,,,,,,,,,,,,,,0,71,71,3,1,,,,,,,,,,,,,,,,,,,,,,,,
,,,,,,,,,,,,a,0.350185,Incorrect,,,,,,t4.png,t1.png,3,0.0000131,19,female,2020-09-04_18h05.54.596,torte-2b,2020.1.3,Linux x86_64,60,13366,,,,,,,,,,,,,,,,,,,,,,,,,,,,,,,,,,,,,0,72,72,61,1,,,,,,,,,,,,,,,,,,,,,,,,
,,,,,,,,,,,,l,0.326285,Incorrect,,,,,,t5.png,t5.png,0,0.97829,19,female,2020-09-04_18h05.54.596,torte-2b,2020.1.3,Linux x86_64,60,13366,,,,,,,,,,,,,,,,,,,,,,,,,,,,,,,,,,,,,0,73,73,73,1,,,,,,,,,,,,,,,,,,,,,,,,
,,,,,,,,,,,,a,0.47595,Correct!,,,,,,t2.png,t2.png,0,0.98115,19,female,2020-09-04_18h05.54.596,torte-2b,2020.1.3,Linux x86_64,60,13366,,,,,,,,,,,,,,,,,,,,,,,,,,,,,,,,,,,,,0,74,74,7,1,,,,,,,,,,,,,,,,,,,,,,,,
,,,,,,,,,,,,l,0.460755,Correct!,,,,,,t5.png,t2.png,3,0.0000131,19,female,2020-09-04_18h05.54.596,torte-2b,2020.1.3,Linux x86_64,60,13366,,,,,,,,,,,,,,,,,,,,,,,,,,,,,,,,,,,,,0,75,75,98,1,,,,,,,,,,,,,,,,,,,,,,,,
,,,,,,,,,,,,l,0.81188,Incorrect,,,,,,t2.png,t1.png,1,0.90025,19,female,2020-09-04_18h05.54.596,torte-2b,2020.1.3,Linux x86_64,60,13366,,,,,,,,,,,,,,,,,,,,,,,,,,,,,,,,,,,,,0,76,76,5,1,,,,,,,,,,,,,,,,,,,,,,,,
,,,,,,,,,,,,a,0.863935,Incorrect,,,,,,t3.png,t5.png,2,0.056466,19,female,2020-09-04_18h05.54.596,torte-2b,2020.1.3,Linux x86_64,60,13366,,,,,,,,,,,,,,,,,,,,,,,,,,,,,,,,,,,,,0,77,77,44,1,,,,,,,,,,,,,,,,,,,,,,,,
,,,,,,,,,,,,l,0.63271,Incorrect,,,,,,t3.png,t4.png,1,0.909,19,female,2020-09-04_18h05.54.596,torte-2b,2020.1.3,Linux x86_64,60,13366,,,,,,,,,,,,,,,,,,,,,,,,,,,,,,,,,,,,,0,78,78,82,1,,,,,,,,,,,,,,,,,,,,,,,,
,,,,,,,,,,,,l,0.518835,Correct!,,,,,,t4.png,t2.png,2,0.059078,19,female,2020-09-04_18h05.54.596,torte-2b,2020.1.3,Linux x86_64,60,13366,,,,,,,,,,,,,,,,,,,,,,,,,,,,,,,,,,,,,0,79,79,86,1,,,,,,,,,,,,,,,,,,,,,,,,
,,,,,,,,,,,,a,0.275985,Incorrect,,,,,,t1.png,t4.png,3,0.0000131,19,female,2020-09-04_18h05.54.596,torte-2b,2020.1.3,Linux x86_64,60,13366,,,,,,,,,,,,,,,,,,,,,,,,,,,,,,,,,,,,,0,80,80,92,1,,,,,,,,,,,,,,,,,,,,,,,,
,,,,,,,,,,,,l,0.37558,Correct!,,,,,,t4.png,t2.png,2,0.059078,19,female,2020-09-04_18h05.54.596,torte-2b,2020.1.3,Linux x86_64,60,13366,,,,,,,,,,,,,,,,,,,,,,,,,,,,,,,,,,,,,0,81,81,109,1,,,,,,,,,,,,,,,,,,,,,,,,
,,,,,,,,,,,,l,0.43133,Correct!,,,,,,t4.png,t2.png,2,0.059078,19,female,2020-09-04_18h05.54.596,torte-2b,2020.1.3,Linux x86_64,60,13366,,,,,,,,,,,,,,,,,,,,,,,,,,,,,,,,,,,,,0,82,82,110,1,,,,,,,,,,,,,,,,,,,,,,,,
,,,,,,,,,,,,a,0.52374,Correct!,,,,,,t5.png,t4.png,1,0.9,19,female,2020-09-04_18h05.54.596,torte-2b,2020.1.3,Linux x86_64,60,13366,,,,,,,,,,,,,,,,,,,,,,,,,,,,,,,,,,,,,0,83,83,49,1,,,,,,,,,,,,,,,,,,,,,,,,
,,,,,,,,,,,,l,0.260055,Incorrect,,,,,,t2.png,t3.png,1,0.90855,19,female,2020-09-04_18h05.54.596,torte-2b,2020.1.3,Linux x86_64,60,13366,,,,,,,,,,,,,,,,,,,,,,,,,,,,,,,,,,,,,0,84,84,111,1,,,,,,,,,,,,,,,,,,,,,,,,
,,,,,,,,,,,,a,0.600645,Incorrect,,,,,,t3.png,t5.png,2,0.056466,19,female,2020-09-04_18h05.54.596,torte-2b,2020.1.3,Linux x86_64,60,13366,,,,,,,,,,,,,,,,,,,,,,,,,,,,,,,,,,,,,0,85,85,14,1,,,,,,,,,,,,,,,,,,,,,,,,
,,,,,,,,,,,,l,0.228235,Incorrect,,,,,,t5.png,t4.png,1,0.90025,19,female,2020-09-04_18h05.54.596,torte-2b,2020.1.3,Linux x86_64,60,13366,,,,,,,,,,,,,,,,,,,,,,,,,,,,,,,,,,,,,0,86,86,26,1,,,,,,,,,,,,,,,,,,,,,,,,
,,,,,,,,,,,,a,0.44768,Incorrect,,,,,,t5.png,t1.png,4,9.55E-11,19,female,2020-09-04_18h05.54.596,torte-2b,2020.1.3,Linux x86_64,60,13366,,,,,,,,,,,,,,,,,,,,,,,,,,,,,,,,,,,,,0,87,87,100,1,,,,,,,,,,,,,,,,,,,,,,,,
,,,,,,,,,,,,l,0.381765,Incorrect,,,,,,t2.png,t1.png,1,0.90025,19,female,2020-09-04_18h05.54.596,torte-2b,2020.1.3,Linux x86_64,60,13366,,,,,,,,,,,,,,,,,,,,,,,,,,,,,,,,,,,,,0,88,88,62,1,,,,,,,,,,,,,,,,,,,,,,,,
,,,,,,,,,,,,a,0.58125,Correct!,,,,,,t1.png,t1.png,0,0.978,19,female,2020-09-04_18h05.54.596,torte-2b,2020.1.3,Linux x86_64,60,13366,,,,,,,,,,,,,,,,,,,,,,,,,,,,,,,,,,,,,0,89,89,28,1,,,,,,,,,,,,,,,,,,,,,,,,
,,,,,,,,,,,,l,0.38136,Correct!,,,,,,t2.png,t1.png,1,0.90025,19,female,2020-09-04_18h05.54.596,torte-2b,2020.1.3,Linux x86_64,60,13366,,,,,,,,,,,,,,,,,,,,,,,,,,,,,,,,,,,,,0,90,90,19,1,,,,,,,,,,,,,,,,,,,,,,,,
,,,,,,,,,,,,a,0.432875,Correct!,,,,,,t4.png,t3.png,1,0.90855,19,female,2020-09-04_18h05.54.596,torte-2b,2020.1.3,Linux x86_64,60,13366,,,,,,,,,,,,,,,,,,,,,,,,,,,,,,,,,,,,,0,91,91,45,1,,,,,,,,,,,,,,,,,,,,,,,,
,,,,,,,,,,,,l,0.509065,Correct!,,,,,,t4.png,t1.png,3,0.0000131,19,female,2020-09-04_18h05.54.596,torte-2b,2020.1.3,Linux x86_64,60,13366,,,,,,,,,,,,,,,,,,,,,,,,,,,,,,,,,,,,,0,92,92,42,1,,,,,,,,,,,,,,,,,,,,,,,,
,,,,,,,,,,,,a,0.29041,Incorrect,,,,,,t2.png,t5.png,3,0.0000131,19,female,2020-09-04_18h05.54.596,torte-2b,2020.1.3,Linux x86_64,60,13366,,,,,,,,,,,,,,,,,,,,,,,,,,,,,,,,,,,,,0,93,93,40,1,,,,,,,,,,,,,,,,,,,,,,,,
,,,,,,,,,,,,l,0.32943,Incorrect,,,,,,t2.png,t2.png,0,0.98115,19,female,2020-09-04_18h05.54.596,torte-2b,2020.1.3,Linux x86_64,60,13366,,,,,,,,,,,,,,,,,,,,,,,,,,,,,,,,,,,,,0,94,94,2,1,,,,,,,,,,,,,,,,,,,,,,,,
,,,,,,,,,,,,a,0.48835,Incorrect,,,,,,t2.png,t3.png,1,0.90855,19,female,2020-09-04_18h05.54.596,torte-2b,2020.1.3,Linux x86_64,60,13366,,,,,,,,,,,,,,,,,,,,,,,,,,,,,,,,,,,,,0,95,95,10,1,,,,,,,,,,,,,,,,,,,,,,,,
,,,,,,,,,,,,a,0.318425,Correct!,,,,,,t5.png,t3.png,2,0.056466,19,female,2020-09-04_18h05.54.596,torte-2b,2020.1.3,Linux x86_64,60,13366,,,,,,,,,,,,,,,,,,,,,,,,,,,,,,,,,,,,,0,96,96,108,1,,,,,,,,,,,,,,,,,,,,,,,,
,,,,,,,,,,,,a,0.75549,Incorrect,,,,,,t1.png,t5.png,4,9.55E-11,19,female,2020-09-04_18h05.54.596,torte-2b,2020.1.3,Linux x86_64,60,13366,,,,,,,,,,,,,,,,,,,,,,,,,,,,,,,,,,,,,0,97,97,55,1,,,,,,,,,,,,,,,,,,,,,,,,
,,,,,,,,,,,,l,0.34656,Correct!,,,,,,t5.png,t1.png,4,9.55E-11,19,female,2020-09-04_18h05.54.596,torte-2b,2020.1.3,Linux x86_64,60,13366,,,,,,,,,,,,,,,,,,,,,,,,,,,,,,,,,,,,,0,98,98,102,1,,,,,,,,,,,,,,,,,,,,,,,,
,,,,,,,,,,,,l,0.07589,Correct!,,,,,,t5.png,t1.png,4,9.55E-11,19,female,2020-09-04_18h05.54.596,torte-2b,2020.1.3,Linux x86_64,60,13366,,,,,,,,,,,,,,,,,,,,,,,,,,,,,,,,,,,,,0,99,99,71,1,,,,,,,,,,,,,,,,,,,,,,,,
,,,,,,,,,,,,a,0.355425,Correct!,,,,,,t4.png,t5.png,1,0.9,19,female,2020-09-04_18h05.54.596,torte-2b,2020.1.3,Linux x86_64,60,13366,,,,,,,,,,,,,,,,,,,,,,,,,,,,,,,,,,,,,0,100,100,115,1,,,,,,,,,,,,,,,,,,,,,,,,
,,,,,,,,,,,,a,0.52329,Correct!,,,,,,t3.png,t2.png,1,0.909,19,female,2020-09-04_18h05.54.596,torte-2b,2020.1.3,Linux x86_64,60,13366,,,,,,,,,,,,,,,,,,,,,,,,,,,,,,,,,,,,,0,101,101,23,1,,,,,,,,,,,,,,,,,,,,,,,,
,,,,,,,,,,,,a,0.380405,Correct!,,,,,,t4.png,t3.png,1,0.90855,19,female,2020-09-04_18h05.54.596,torte-2b,2020.1.3,Linux x86_64,60,13366,,,,,,,,,,,,,,,,,,,,,,,,,,,,,,,,,,,,,0,102,102,35,1,,,,,,,,,,,,,,,,,,,,,,,,
,,,,,,,,,,,,l,0.310625,Incorrect,,,,,,t4.png,t5.png,1,0.90025,19,female,2020-09-04_18h05.54.596,torte-2b,2020.1.3,Linux x86_64,60,13366,,,,,,,,,,,,,,,,,,,,,,,,,,,,,,,,,,,,,0,103,103,47,1,,,,,,,,,,,,,,,,,,,,,,,,
,,,,,,,,,,,,a,0.34147,Correct!,,,,,,t5.png,t4.png,1,0.90025,19,female,2020-09-04_18h05.54.596,torte-2b,2020.1.3,Linux x86_64,60,13366,,,,,,,,,,,,,,,,,,,,,,,,,,,,,,,,,,,,,0,104,104,27,1,,,,,,,,,,,,,,,,,,,,,,,,
,,,,,,,,,,,,l,0.339125,Incorrect,,,,,,t5.png,t4.png,1,0.90025,19,female,2020-09-04_18h05.54.596,torte-2b,2020.1.3,Linux x86_64,60,13366,,,,,,,,,,,,,,,,,,,,,,,,,,,,,,,,,,,,,0,105,105,34,1,,,,,,,,,,,,,,,,,,,,,,,,
,,,,,,,,,,,,a,0.426185,Incorrect,,,,,,t3.png,t5.png,2,0.0565,19,female,2020-09-04_18h05.54.596,torte-2b,2020.1.3,Linux x86_64,60,13366,,,,,,,,,,,,,,,,,,,,,,,,,,,,,,,,,,,,,0,106,106,83,1,,,,,,,,,,,,,,,,,,,,,,,,
,,,,,,,,,,,,l,0.430955,Incorrect,,,,,,t2.png,t3.png,1,0.909,19,female,2020-09-04_18h05.54.596,torte-2b,2020.1.3,Linux x86_64,60,13366,,,,,,,,,,,,,,,,,,,,,,,,,,,,,,,,,,,,,0,107,107,74,1,,,,,,,,,,,,,,,,,,,,,,,,
,,,,,,,,,,,,a,0.34741,Incorrect,,,,,,t3.png,t1.png,2,0.0565,19,female,2020-09-04_18h05.54.596,torte-2b,2020.1.3,Linux x86_64,60,13366,,,,,,,,,,,,,,,,,,,,,,,,,,,,,,,,,,,,,0,108,108,31,1,,,,,,,,,,,,,,,,,,,,,,,,
,,,,,,,,,,,,a,0.644165,Correct!,,,,,,t1.png,t2.png,1,0.90025,19,female,2020-09-04_18h05.54.596,torte-2b,2020.1.3,Linux x86_64,60,13366,,,,,,,,,,,,,,,,,,,,,,,,,,,,,,,,,,,,,0,109,109,112,1,,,,,,,,,,,,,,,,,,,,,,,,
,,,,,,,,,,,,a,0.704765,Correct!,,,,,,t5.png,t5.png,0,0.978,19,female,2020-09-04_18h05.54.596,torte-2b,2020.1.3,Linux x86_64,60,13366,,,,,,,,,,,,,,,,,,,,,,,,,,,,,,,,,,,,,0,110,110,117,1,,,,,,,,,,,,,,,,,,,,,,,,
,,,,,,,,,,,,a,0.60999,Incorrect,,,,,,t2.png,t5.png,3,0.0000131,19,female,2020-09-04_18h05.54.596,torte-2b,2020.1.3,Linux x86_64,60,13366,,,,,,,,,,,,,,,,,,,,,,,,,,,,,,,,,,,,,0,111,111,104,1,,,,,,,,,,,,,,,,,,,,,,,,
,,,,,,,,,,,,a,0.73478,Correct!,,,,,,t1.png,t2.png,1,0.90025,19,female,2020-09-04_18h05.54.596,torte-2b,2020.1.3,Linux x86_64,60,13366,,,,,,,,,,,,,,,,,,,,,,,,,,,,,,,,,,,,,0,112,112,33,1,,,,,,,,,,,,,,,,,,,,,,,,
