key_resp_8.keys,key_resp_8.rt,key_resp_9.keys,key_resp_9.rt,key_resp_10.keys,key_resp_10.rt,key_resp_11.keys,key_resp_11.rt,key_resp_2.keys,key_resp_2.rt,key_resp_3.keys,key_resp_3.rt,key_resp.keys,key_resp.rt,Feedback,train.thisRepN,train.thisTrialN,train.thisN,train.thisIndex,train.ran,torta_sx,torta_dx,difference,probability,age,gender,date,expName,psychopyVersion,OS,frameRate,participant,key_resp_15.keys,key_resp_15.rt,key_resp_6.keys,key_resp_6.rt,test1.thisRepN,test1.thisTrialN,test1.thisN,test1.thisIndex,test1.ran,key_resp_4.keys,key_resp_4.rt,key_resp_5.keys,back1.thisRepN,back1.thisTrialN,back1.thisN,back1.thisIndex,back1.ran,letter,key_resp_5.rt,back2.thisRepN,back2.thisTrialN,back2.thisN,back2.thisIndex,back2.ran,back3.thisRepN,back3.thisTrialN,back3.thisN,back3.thisIndex,back3.ran,back4.thisRepN,back4.thisTrialN,back4.thisN,back4.thisIndex,back4.ran,key_resp_7.keys,key_resp_7.rt,test2.thisRepN,test2.thisTrialN,test2.thisN,test2.thisIndex,test2.ran,mouse.x,mouse.y,mouse.leftButton,mouse.midButton,mouse.rightButton,mouse.clicked_name,mouse_2.x,mouse_2.y,mouse_2.leftButton,mouse_2.midButton,mouse_2.rightButton,mouse_2.clicked_name,mouse_3.x,mouse_3.y,mouse_3.leftButton,mouse_3.midButton,mouse_3.rightButton,mouse_3.clicked_name,key_resp_12.keys,key_resp_12.rt,key_resp_13.keys,key_resp_13.rt,key_resp_14.keys,key_resp_14.rt
space,1.373,space,0.045,space,6.582,space,3.888,space,18.218,space,53.996,a,1.618,Incorrect,0,0,0,76,1,t4.png,t1.png,3,0.059078,19,female ,2020-08-12_18h21.53.239,torte-2b,2020.1.3,MacIntel,60,13376,,,,,,,,,,,,,,,,,,,,,,,,,,,,,,,,,,,,,,,,,,,,,,,,,,,,,,,,,,,,,,,,,
,,,,,,,,,,,,l,0.867,Correct!,0,1,1,98,1,t5.png,t1.png,4,9.55E-11,19,female ,2020-08-12_18h21.53.239,torte-2b,2020.1.3,MacIntel,60,13376,,,,,,,,,,,,,,,,,,,,,,,,,,,,,,,,,,,,,,,,,,,,,,,,,,,,,,,,,,,,,,,,,
,,,,,,,,,,,,a,0.751,Incorrect,0,2,2,79,1,t1.png,t4.png,3,0.0000131,19,female ,2020-08-12_18h21.53.239,torte-2b,2020.1.3,MacIntel,60,13376,,,,,,,,,,,,,,,,,,,,,,,,,,,,,,,,,,,,,,,,,,,,,,,,,,,,,,,,,,,,,,,,,
,,,,,,,,,,,,l,0.759,Incorrect,0,3,3,88,1,t1.png,t1.png,0,0.97829,19,female ,2020-08-12_18h21.53.239,torte-2b,2020.1.3,MacIntel,60,13376,,,,,,,,,,,,,,,,,,,,,,,,,,,,,,,,,,,,,,,,,,,,,,,,,,,,,,,,,,,,,,,,,
,,,,,,,,,,,,l,1.736,Correct!,0,4,4,17,1,t4.png,t1.png,3,0.059078,19,female ,2020-08-12_18h21.53.239,torte-2b,2020.1.3,MacIntel,60,13376,,,,,,,,,,,,,,,,,,,,,,,,,,,,,,,,,,,,,,,,,,,,,,,,,,,,,,,,,,,,,,,,,
,,,,,,,,,,,,,,Too slow :(,0,5,5,91,1,t5.png,t4.png,1,0.90025,19,female ,2020-08-12_18h21.53.239,torte-2b,2020.1.3,MacIntel,60,13376,,,,,,,,,,,,,,,,,,,,,,,,,,,,,,,,,,,,,,,,,,,,,,,,,,,,,,,,,,,,,,,,,
,,,,,,,,,,,,l,1.718,Correct!,0,6,6,81,1,t3.png,t1.png,2,0.056466,19,female ,2020-08-12_18h21.53.239,torte-2b,2020.1.3,MacIntel,60,13376,,,,,,,,,,,,,,,,,,,,,,,,,,,,,,,,,,,,,,,,,,,,,,,,,,,,,,,,,,,,,,,,,
,,,,,,,,,,,,,,Too slow :(,0,7,7,72,1,t5.png,t5.png,0,0.97829,19,female ,2020-08-12_18h21.53.239,torte-2b,2020.1.3,MacIntel,60,13376,,,,,,,,,,,,,,,,,,,,,,,,,,,,,,,,,,,,,,,,,,,,,,,,,,,,,,,,,,,,,,,,,
,,,,,,,,,,,,a,1.535,Correct!,0,8,8,4,1,t3.png,t2.png,1,0.90855,19,female ,2020-08-12_18h21.53.239,torte-2b,2020.1.3,MacIntel,60,13376,,,,,,,,,,,,,,,,,,,,,,,,,,,,,,,,,,,,,,,,,,,,,,,,,,,,,,,,,,,,,,,,,
,,,,,,,,,,,,a,0.599,Incorrect,0,9,9,101,1,t5.png,t4.png,1,0.90025,19,female ,2020-08-12_18h21.53.239,torte-2b,2020.1.3,MacIntel,60,13376,,,,,,,,,,,,,,,,,,,,,,,,,,,,,,,,,,,,,,,,,,,,,,,,,,,,,,,,,,,,,,,,,
,,,,,,,,,,,,l,0.338,Correct!,0,10,10,44,1,t1.png,t4.png,3,0.0000131,19,female ,2020-08-12_18h21.53.239,torte-2b,2020.1.3,MacIntel,60,13376,,,,,,,,,,,,,,,,,,,,,,,,,,,,,,,,,,,,,,,,,,,,,,,,,,,,,,,,,,,,,,,,,
,,,,,,,,,,,,l,0.847,Correct!,0,11,11,9,1,t1.png,t5.png,4,9.55E-11,19,female ,2020-08-12_18h21.53.239,torte-2b,2020.1.3,MacIntel,60,13376,,,,,,,,,,,,,,,,,,,,,,,,,,,,,,,,,,,,,,,,,,,,,,,,,,,,,,,,,,,,,,,,,
,,,,,,,,,,,,a,0.744,Correct!,0,12,12,32,1,t3.png,t2.png,1,0.90855,19,female ,2020-08-12_18h21.53.239,torte-2b,2020.1.3,MacIntel,60,13376,,,,,,,,,,,,,,,,,,,,,,,,,,,,,,,,,,,,,,,,,,,,,,,,,,,,,,,,,,,,,,,,,
,,,,,,,,,,,,l,0.637,Correct!,0,13,13,28,1,t1.png,t4.png,3,0.0000131,19,female ,2020-08-12_18h21.53.239,torte-2b,2020.1.3,MacIntel,60,13376,,,,,,,,,,,,,,,,,,,,,,,,,,,,,,,,,,,,,,,,,,,,,,,,,,,,,,,,,,,,,,,,,
,,,,,,,,,,,,l,1.355,Incorrect,0,14,14,41,1,t4.png,t5.png,1,0.90025,19,female ,2020-08-12_18h21.53.239,torte-2b,2020.1.3,MacIntel,60,13376,,,,,,,,,,,,,,,,,,,,,,,,,,,,,,,,,,,,,,,,,,,,,,,,,,,,,,,,,,,,,,,,,
,,,,,,,,,,,,a,0.764,Incorrect,0,15,15,43,1,t3.png,t1.png,2,0.056466,19,female ,2020-08-12_18h21.53.239,torte-2b,2020.1.3,MacIntel,60,13376,,,,,,,,,,,,,,,,,,,,,,,,,,,,,,,,,,,,,,,,,,,,,,,,,,,,,,,,,,,,,,,,,
,,,,,,,,,,,,l,0.614,Incorrect,0,16,16,22,1,t5.png,t5.png,0,0.97829,19,female ,2020-08-12_18h21.53.239,torte-2b,2020.1.3,MacIntel,60,13376,,,,,,,,,,,,,,,,,,,,,,,,,,,,,,,,,,,,,,,,,,,,,,,,,,,,,,,,,,,,,,,,,
,,,,,,,,,,,,a,0.082,Incorrect,0,17,17,10,1,t4.png,t1.png,3,0.059078,19,female ,2020-08-12_18h21.53.239,torte-2b,2020.1.3,MacIntel,60,13376,,,,,,,,,,,,,,,,,,,,,,,,,,,,,,,,,,,,,,,,,,,,,,,,,,,,,,,,,,,,,,,,,
,,,,,,,,,,,,l,0.349,Incorrect,0,18,18,31,1,t1.png,t1.png,0,0.97829,19,female ,2020-08-12_18h21.53.239,torte-2b,2020.1.3,MacIntel,60,13376,,,,,,,,,,,,,,,,,,,,,,,,,,,,,,,,,,,,,,,,,,,,,,,,,,,,,,,,,,,,,,,,,
,,,,,,,,,,,,l,0.465,Correct!,0,19,19,16,1,t1.png,t5.png,4,9.55E-11,19,female ,2020-08-12_18h21.53.239,torte-2b,2020.1.3,MacIntel,60,13376,,,,,,,,,,,,,,,,,,,,,,,,,,,,,,,,,,,,,,,,,,,,,,,,,,,,,,,,,,,,,,,,,
,,,,,,,,,,,,a,0.839,Incorrect,0,20,20,105,1,t4.png,t1.png,3,0.059078,19,female ,2020-08-12_18h21.53.239,torte-2b,2020.1.3,MacIntel,60,13376,,,,,,,,,,,,,,,,,,,,,,,,,,,,,,,,,,,,,,,,,,,,,,,,,,,,,,,,,,,,,,,,,
,,,,,,,,,,,,l,0.583,Incorrect,0,21,21,58,1,t4.png,t5.png,1,0.90025,19,female ,2020-08-12_18h21.53.239,torte-2b,2020.1.3,MacIntel,60,13376,,,,,,,,,,,,,,,,,,,,,,,,,,,,,,,,,,,,,,,,,,,,,,,,,,,,,,,,,,,,,,,,,
,,,,,,,,,,,,a,0.517,Incorrect,0,22,22,33,1,t3.png,t2.png,1,0.90855,19,female ,2020-08-12_18h21.53.239,torte-2b,2020.1.3,MacIntel,60,13376,,,,,,,,,,,,,,,,,,,,,,,,,,,,,,,,,,,,,,,,,,,,,,,,,,,,,,,,,,,,,,,,,
,,,,,,,,,,,,l,0.756,Correct!,0,23,23,93,1,t5.png,t4.png,1,0.90025,19,female ,2020-08-12_18h21.53.239,torte-2b,2020.1.3,MacIntel,60,13376,,,,,,,,,,,,,,,,,,,,,,,,,,,,,,,,,,,,,,,,,,,,,,,,,,,,,,,,,,,,,,,,,
,,,,,,,,,,,,l,0.417,Correct!,0,24,24,36,1,t1.png,t4.png,3,0.0000131,19,female ,2020-08-12_18h21.53.239,torte-2b,2020.1.3,MacIntel,60,13376,,,,,,,,,,,,,,,,,,,,,,,,,,,,,,,,,,,,,,,,,,,,,,,,,,,,,,,,,,,,,,,,,
,,,,,,,,,,,,l,1.134,Incorrect,0,25,25,109,1,t5.png,t5.png,0,0.97829,19,female ,2020-08-12_18h21.53.239,torte-2b,2020.1.3,MacIntel,60,13376,,,,,,,,,,,,,,,,,,,,,,,,,,,,,,,,,,,,,,,,,,,,,,,,,,,,,,,,,,,,,,,,,
,,,,,,,,,,,,a,0.534,Incorrect,0,26,26,92,1,t5.png,t1.png,4,9.55E-11,19,female ,2020-08-12_18h21.53.239,torte-2b,2020.1.3,MacIntel,60,13376,,,,,,,,,,,,,,,,,,,,,,,,,,,,,,,,,,,,,,,,,,,,,,,,,,,,,,,,,,,,,,,,,
,,,,,,,,,,,,l,0.759,Incorrect,0,27,27,84,1,t2.png,t3.png,1,0.90855,19,female ,2020-08-12_18h21.53.239,torte-2b,2020.1.3,MacIntel,60,13376,,,,,,,,,,,,,,,,,,,,,,,,,,,,,,,,,,,,,,,,,,,,,,,,,,,,,,,,,,,,,,,,,
,,,,,,,,,,,,l,0.583,Correct!,0,28,28,50,1,t1.png,t5.png,4,9.55E-11,19,female ,2020-08-12_18h21.53.239,torte-2b,2020.1.3,MacIntel,60,13376,,,,,,,,,,,,,,,,,,,,,,,,,,,,,,,,,,,,,,,,,,,,,,,,,,,,,,,,,,,,,,,,,
,,,,,,,,,,,,a,1.049,Correct!,0,29,29,55,1,t1.png,t1.png,0,0.97829,19,female ,2020-08-12_18h21.53.239,torte-2b,2020.1.3,MacIntel,60,13376,,,,,,,,,,,,,,,,,,,,,,,,,,,,,,,,,,,,,,,,,,,,,,,,,,,,,,,,,,,,,,,,,
,,,,,,,,,,,,l,0.504,Correct!,0,30,30,40,1,t2.png,t4.png,2,0.059078,19,female ,2020-08-12_18h21.53.239,torte-2b,2020.1.3,MacIntel,60,13376,,,,,,,,,,,,,,,,,,,,,,,,,,,,,,,,,,,,,,,,,,,,,,,,,,,,,,,,,,,,,,,,,
,,,,,,,,,,,,l,0.643,Correct!,0,31,31,115,1,t2.png,t4.png,2,0.059078,19,female ,2020-08-12_18h21.53.239,torte-2b,2020.1.3,MacIntel,60,13376,,,,,,,,,,,,,,,,,,,,,,,,,,,,,,,,,,,,,,,,,,,,,,,,,,,,,,,,,,,,,,,,,
,,,,,,,,,,,,a,0.799,Correct!,0,32,32,46,1,t1.png,t1.png,0,0.97829,19,female ,2020-08-12_18h21.53.239,torte-2b,2020.1.3,MacIntel,60,13376,,,,,,,,,,,,,,,,,,,,,,,,,,,,,,,,,,,,,,,,,,,,,,,,,,,,,,,,,,,,,,,,,
,,,,,,,,,,,,l,0.548,Correct!,0,33,33,118,1,t1.png,t5.png,4,9.55E-11,19,female ,2020-08-12_18h21.53.239,torte-2b,2020.1.3,MacIntel,60,13376,,,,,,,,,,,,,,,,,,,,,,,,,,,,,,,,,,,,,,,,,,,,,,,,,,,,,,,,,,,,,,,,,
,,,,,,,,,,,,a,0.687,Correct!,0,34,34,0,1,t3.png,t2.png,1,0.90855,19,female ,2020-08-12_18h21.53.239,torte-2b,2020.1.3,MacIntel,60,13376,,,,,,,,,,,,,,,,,,,,,,,,,,,,,,,,,,,,,,,,,,,,,,,,,,,,,,,,,,,,,,,,,
,,,,,,,,,,,,l,0.55,Incorrect,0,35,35,61,1,t1.png,t1.png,0,0.97829,19,female ,2020-08-12_18h21.53.239,torte-2b,2020.1.3,MacIntel,60,13376,,,,,,,,,,,,,,,,,,,,,,,,,,,,,,,,,,,,,,,,,,,,,,,,,,,,,,,,,,,,,,,,,
,,,,,,,,,,,,a,0.598,Incorrect,0,36,36,73,1,t3.png,t1.png,2,0.056466,19,female ,2020-08-12_18h21.53.239,torte-2b,2020.1.3,MacIntel,60,13376,,,,,,,,,,,,,,,,,,,,,,,,,,,,,,,,,,,,,,,,,,,,,,,,,,,,,,,,,,,,,,,,,
,,,,,,,,,,,,l,0.533,Incorrect,0,37,37,53,1,t1.png,t1.png,0,0.97829,19,female ,2020-08-12_18h21.53.239,torte-2b,2020.1.3,MacIntel,60,13376,,,,,,,,,,,,,,,,,,,,,,,,,,,,,,,,,,,,,,,,,,,,,,,,,,,,,,,,,,,,,,,,,
,,,,,,,,,,,,l,1.172,Incorrect,0,38,38,112,1,t5.png,t4.png,1,0.90025,19,female ,2020-08-12_18h21.53.239,torte-2b,2020.1.3,MacIntel,60,13376,,,,,,,,,,,,,,,,,,,,,,,,,,,,,,,,,,,,,,,,,,,,,,,,,,,,,,,,,,,,,,,,,
,,,,,,,,,,,,l,0.587,Correct!,0,39,39,27,1,t1.png,t5.png,4,9.55E-11,19,female ,2020-08-12_18h21.53.239,torte-2b,2020.1.3,MacIntel,60,13376,,,,,,,,,,,,,,,,,,,,,,,,,,,,,,,,,,,,,,,,,,,,,,,,,,,,,,,,,,,,,,,,,
,,,,,,,,,,,,a,0.681,Incorrect,0,40,40,113,1,t5.png,t1.png,4,9.55E-11,19,female ,2020-08-12_18h21.53.239,torte-2b,2020.1.3,MacIntel,60,13376,,,,,,,,,,,,,,,,,,,,,,,,,,,,,,,,,,,,,,,,,,,,,,,,,,,,,,,,,,,,,,,,,
,,,,,,,,,,,,l,0.433,Incorrect,0,41,41,12,1,t5.png,t5.png,0,0.97829,19,female ,2020-08-12_18h21.53.239,torte-2b,2020.1.3,MacIntel,60,13376,,,,,,,,,,,,,,,,,,,,,,,,,,,,,,,,,,,,,,,,,,,,,,,,,,,,,,,,,,,,,,,,,
,,,,,,,,,,,,a,0.557,Correct!,0,42,42,75,1,t2.png,t3.png,1,0.90855,19,female ,2020-08-12_18h21.53.239,torte-2b,2020.1.3,MacIntel,60,13376,,,,,,,,,,,,,,,,,,,,,,,,,,,,,,,,,,,,,,,,,,,,,,,,,,,,,,,,,,,,,,,,,
,,,,,,,,,,,,l,0.297,Correct!,0,43,43,68,1,t2.png,t4.png,2,0.059078,19,female ,2020-08-12_18h21.53.239,torte-2b,2020.1.3,MacIntel,60,13376,,,,,,,,,,,,,,,,,,,,,,,,,,,,,,,,,,,,,,,,,,,,,,,,,,,,,,,,,,,,,,,,,
,,,,,,,,,,,,a,0.534,Incorrect,0,44,44,80,1,t4.png,t1.png,3,0.059078,19,female ,2020-08-12_18h21.53.239,torte-2b,2020.1.3,MacIntel,60,13376,,,,,,,,,,,,,,,,,,,,,,,,,,,,,,,,,,,,,,,,,,,,,,,,,,,,,,,,,,,,,,,,,
,,,,,,,,,,,,l,0.515,Incorrect,0,45,45,60,1,t4.png,t5.png,1,0.90025,19,female ,2020-08-12_18h21.53.239,torte-2b,2020.1.3,MacIntel,60,13376,,,,,,,,,,,,,,,,,,,,,,,,,,,,,,,,,,,,,,,,,,,,,,,,,,,,,,,,,,,,,,,,,
,,,,,,,,,,,,l,0.619,Correct!,0,46,46,89,1,t1.png,t5.png,4,9.55E-11,19,female ,2020-08-12_18h21.53.239,torte-2b,2020.1.3,MacIntel,60,13376,,,,,,,,,,,,,,,,,,,,,,,,,,,,,,,,,,,,,,,,,,,,,,,,,,,,,,,,,,,,,,,,,
,,,,,,,,,,,,a,0.855,Correct!,0,47,47,25,1,t1.png,t1.png,0,0.97829,19,female ,2020-08-12_18h21.53.239,torte-2b,2020.1.3,MacIntel,60,13376,,,,,,,,,,,,,,,,,,,,,,,,,,,,,,,,,,,,,,,,,,,,,,,,,,,,,,,,,,,,,,,,,
,,,,,,,,,,,,l,0.57,Correct!,0,48,48,117,1,t2.png,t4.png,2,0.059078,19,female ,2020-08-12_18h21.53.239,torte-2b,2020.1.3,MacIntel,60,13376,,,,,,,,,,,,,,,,,,,,,,,,,,,,,,,,,,,,,,,,,,,,,,,,,,,,,,,,,,,,,,,,,
,,,,,,,,,,,,a,0.469,Incorrect,0,49,49,87,1,t5.png,t1.png,4,9.55E-11,19,female ,2020-08-12_18h21.53.239,torte-2b,2020.1.3,MacIntel,60,13376,,,,,,,,,,,,,,,,,,,,,,,,,,,,,,,,,,,,,,,,,,,,,,,,,,,,,,,,,,,,,,,,,
,,,,,,,,,,,,l,0.505,Incorrect,0,50,50,5,1,t5.png,t5.png,0,0.97829,19,female ,2020-08-12_18h21.53.239,torte-2b,2020.1.3,MacIntel,60,13376,,,,,,,,,,,,,,,,,,,,,,,,,,,,,,,,,,,,,,,,,,,,,,,,,,,,,,,,,,,,,,,,,
,,,,,,,,,,,,a,0.508,Correct!,0,51,51,86,1,t5.png,t4.png,1,0.90025,19,female ,2020-08-12_18h21.53.239,torte-2b,2020.1.3,MacIntel,60,13376,,,,,,,,,,,,,,,,,,,,,,,,,,,,,,,,,,,,,,,,,,,,,,,,,,,,,,,,,,,,,,,,,
,,,,,,,,,,,,a,0.884,Incorrect,0,52,52,82,1,t3.png,t1.png,2,0.056466,19,female ,2020-08-12_18h21.53.239,torte-2b,2020.1.3,MacIntel,60,13376,,,,,,,,,,,,,,,,,,,,,,,,,,,,,,,,,,,,,,,,,,,,,,,,,,,,,,,,,,,,,,,,,
,,,,,,,,,,,,l,0.688,Incorrect,0,53,53,18,1,t2.png,t3.png,1,0.90855,19,female ,2020-08-12_18h21.53.239,torte-2b,2020.1.3,MacIntel,60,13376,,,,,,,,,,,,,,,,,,,,,,,,,,,,,,,,,,,,,,,,,,,,,,,,,,,,,,,,,,,,,,,,,
,,,,,,,,,,,,l,0.899,Incorrect,0,54,54,48,1,t2.png,t3.png,1,0.90855,19,female ,2020-08-12_18h21.53.239,torte-2b,2020.1.3,MacIntel,60,13376,,,,,,,,,,,,,,,,,,,,,,,,,,,,,,,,,,,,,,,,,,,,,,,,,,,,,,,,,,,,,,,,,
,,,,,,,,,,,,l,0.665,Correct!,0,55,55,107,1,t1.png,t4.png,3,0.0000131,19,female ,2020-08-12_18h21.53.239,torte-2b,2020.1.3,MacIntel,60,13376,,,,,,,,,,,,,,,,,,,,,,,,,,,,,,,,,,,,,,,,,,,,,,,,,,,,,,,,,,,,,,,,,
,,,,,,,,,,,,l,0.821,Correct!,0,56,56,26,1,t1.png,t5.png,4,9.55E-11,19,female ,2020-08-12_18h21.53.239,torte-2b,2020.1.3,MacIntel,60,13376,,,,,,,,,,,,,,,,,,,,,,,,,,,,,,,,,,,,,,,,,,,,,,,,,,,,,,,,,,,,,,,,,
,,,,,,,,,,,,a,1.153,Incorrect,0,57,57,57,1,t3.png,t1.png,2,0.056466,19,female ,2020-08-12_18h21.53.239,torte-2b,2020.1.3,MacIntel,60,13376,,,,,,,,,,,,,,,,,,,,,,,,,,,,,,,,,,,,,,,,,,,,,,,,,,,,,,,,,,,,,,,,,
,,,,,,,,,,,,l,0.589,Incorrect,0,58,58,111,1,t1.png,t1.png,0,0.97829,19,female ,2020-08-12_18h21.53.239,torte-2b,2020.1.3,MacIntel,60,13376,,,,,,,,,,,,,,,,,,,,,,,,,,,,,,,,,,,,,,,,,,,,,,,,,,,,,,,,,,,,,,,,,
,,,,,,,,,,,,l,0.572,Correct!,0,59,59,95,1,t1.png,t4.png,3,0.0000131,19,female ,2020-08-12_18h21.53.239,torte-2b,2020.1.3,MacIntel,60,13376,,,,,,,,,,,,,,,,,,,,,,,,,,,,,,,,,,,,,,,,,,,,,,,,,,,,,,,,,,,,,,,,,
,,,,,,,,,,,,a,0.582,Correct!,0,60,60,100,1,t3.png,t2.png,1,0.90855,19,female ,2020-08-12_18h21.53.239,torte-2b,2020.1.3,MacIntel,60,13376,,,,,,,,,,,,,,,,,,,,,,,,,,,,,,,,,,,,,,,,,,,,,,,,,,,,,,,,,,,,,,,,,
,,,,,,,,,,,,a,0.626,Incorrect,0,61,61,64,1,t5.png,t1.png,4,9.55E-11,19,female ,2020-08-12_18h21.53.239,torte-2b,2020.1.3,MacIntel,60,13376,,,,,,,,,,,,,,,,,,,,,,,,,,,,,,,,,,,,,,,,,,,,,,,,,,,,,,,,,,,,,,,,,
,,,,,,,,,,,,a,0.519,Correct!,0,62,62,77,1,t3.png,t2.png,1,0.90855,19,female ,2020-08-12_18h21.53.239,torte-2b,2020.1.3,MacIntel,60,13376,,,,,,,,,,,,,,,,,,,,,,,,,,,,,,,,,,,,,,,,,,,,,,,,,,,,,,,,,,,,,,,,,
,,,,,,,,,,,,l,0.931,Incorrect,0,63,63,21,1,t5.png,t4.png,1,0.90025,19,female ,2020-08-12_18h21.53.239,torte-2b,2020.1.3,MacIntel,60,13376,,,,,,,,,,,,,,,,,,,,,,,,,,,,,,,,,,,,,,,,,,,,,,,,,,,,,,,,,,,,,,,,,
,,,,,,,,,,,,l,0.699,Correct!,0,64,64,96,1,t2.png,t4.png,2,0.059078,19,female ,2020-08-12_18h21.53.239,torte-2b,2020.1.3,MacIntel,60,13376,,,,,,,,,,,,,,,,,,,,,,,,,,,,,,,,,,,,,,,,,,,,,,,,,,,,,,,,,,,,,,,,,
,,,,,,,,,,,,l,0.694,Correct!,0,65,65,39,1,t2.png,t4.png,2,0.059078,19,female ,2020-08-12_18h21.53.239,torte-2b,2020.1.3,MacIntel,60,13376,,,,,,,,,,,,,,,,,,,,,,,,,,,,,,,,,,,,,,,,,,,,,,,,,,,,,,,,,,,,,,,,,
,,,,,,,,,,,,l,0.816,Correct!,0,66,66,35,1,t1.png,t4.png,3,0.0000131,19,female ,2020-08-12_18h21.53.239,torte-2b,2020.1.3,MacIntel,60,13376,,,,,,,,,,,,,,,,,,,,,,,,,,,,,,,,,,,,,,,,,,,,,,,,,,,,,,,,,,,,,,,,,
,,,,,,,,,,,,a,0.215,Incorrect,0,67,67,59,1,t5.png,t1.png,4,9.55E-11,19,female ,2020-08-12_18h21.53.239,torte-2b,2020.1.3,MacIntel,60,13376,,,,,,,,,,,,,,,,,,,,,,,,,,,,,,,,,,,,,,,,,,,,,,,,,,,,,,,,,,,,,,,,,
,,,,,,,,,,,,l,0.164,Incorrect,0,68,68,51,1,t4.png,t1.png,3,0.059078,19,female ,2020-08-12_18h21.53.239,torte-2b,2020.1.3,MacIntel,60,13376,,,,,,,,,,,,,,,,,,,,,,,,,,,,,,,,,,,,,,,,,,,,,,,,,,,,,,,,,,,,,,,,,
,,,,,,,,,,,,a,0.373,Incorrect,0,69,69,37,1,t2.png,t4.png,2,0.059078,19,female ,2020-08-12_18h21.53.239,torte-2b,2020.1.3,MacIntel,60,13376,,,,,,,,,,,,,,,,,,,,,,,,,,,,,,,,,,,,,,,,,,,,,,,,,,,,,,,,,,,,,,,,,
,,,,,,,,,,,,l,0.505,Incorrect,0,70,70,116,1,t4.png,t5.png,1,0.90025,19,female ,2020-08-12_18h21.53.239,torte-2b,2020.1.3,MacIntel,60,13376,,,,,,,,,,,,,,,,,,,,,,,,,,,,,,,,,,,,,,,,,,,,,,,,,,,,,,,,,,,,,,,,,
,,,,,,,,,,,,a,0.351,Correct!,0,71,71,90,1,t4.png,t5.png,1,0.90025,19,female ,2020-08-12_18h21.53.239,torte-2b,2020.1.3,MacIntel,60,13376,,,,,,,,,,,,,,,,,,,,,,,,,,,,,,,,,,,,,,,,,,,,,,,,,,,,,,,,,,,,,,,,,
,,,,,,,,,,,,l,0.671,Correct!,0,72,72,102,1,t2.png,t4.png,2,0.059078,19,female ,2020-08-12_18h21.53.239,torte-2b,2020.1.3,MacIntel,60,13376,,,,,,,,,,,,,,,,,,,,,,,,,,,,,,,,,,,,,,,,,,,,,,,,,,,,,,,,,,,,,,,,,
,,,,,,,,,,,,a,0.438,Incorrect,0,73,73,71,1,t4.png,t5.png,1,0.90025,19,female ,2020-08-12_18h21.53.239,torte-2b,2020.1.3,MacIntel,60,13376,,,,,,,,,,,,,,,,,,,,,,,,,,,,,,,,,,,,,,,,,,,,,,,,,,,,,,,,,,,,,,,,,
,,,,,,,,,,,,l,0.471,Incorrect,0,74,74,114,1,t5.png,t4.png,1,0.90025,19,female ,2020-08-12_18h21.53.239,torte-2b,2020.1.3,MacIntel,60,13376,,,,,,,,,,,,,,,,,,,,,,,,,,,,,,,,,,,,,,,,,,,,,,,,,,,,,,,,,,,,,,,,,
,,,,,,,,,,,,l,0.67,Incorrect,0,75,75,45,1,t4.png,t5.png,1,0.90025,19,female ,2020-08-12_18h21.53.239,torte-2b,2020.1.3,MacIntel,60,13376,,,,,,,,,,,,,,,,,,,,,,,,,,,,,,,,,,,,,,,,,,,,,,,,,,,,,,,,,,,,,,,,,
,,,,,,,,,,,,l,0.434,Correct!,0,76,76,19,1,t2.png,t4.png,2,0.059078,19,female ,2020-08-12_18h21.53.239,torte-2b,2020.1.3,MacIntel,60,13376,,,,,,,,,,,,,,,,,,,,,,,,,,,,,,,,,,,,,,,,,,,,,,,,,,,,,,,,,,,,,,,,,
,,,,,,,,,,,,a,0.532,Incorrect,0,77,77,1,1,t3.png,t1.png,2,0.056466,19,female ,2020-08-12_18h21.53.239,torte-2b,2020.1.3,MacIntel,60,13376,,,,,,,,,,,,,,,,,,,,,,,,,,,,,,,,,,,,,,,,,,,,,,,,,,,,,,,,,,,,,,,,,
,,,,,,,,,,,,l,0.372,Correct!,0,78,78,70,1,t1.png,t5.png,4,9.55E-11,19,female ,2020-08-12_18h21.53.239,torte-2b,2020.1.3,MacIntel,60,13376,,,,,,,,,,,,,,,,,,,,,,,,,,,,,,,,,,,,,,,,,,,,,,,,,,,,,,,,,,,,,,,,,
,,,,,,,,,,,,l,0.623,Correct!,0,79,79,108,1,t3.png,t1.png,2,0.056466,19,female ,2020-08-12_18h21.53.239,torte-2b,2020.1.3,MacIntel,60,13376,,,,,,,,,,,,,,,,,,,,,,,,,,,,,,,,,,,,,,,,,,,,,,,,,,,,,,,,,,,,,,,,,
,,,,,,,,,,,,a,0.363,Incorrect,0,80,80,85,1,t5.png,t4.png,1,0.90025,19,female ,2020-08-12_18h21.53.239,torte-2b,2020.1.3,MacIntel,60,13376,,,,,,,,,,,,,,,,,,,,,,,,,,,,,,,,,,,,,,,,,,,,,,,,,,,,,,,,,,,,,,,,,
,,,,,,,,,,,,l,0.414,Incorrect,0,81,81,30,1,t2.png,t3.png,1,0.90855,19,female ,2020-08-12_18h21.53.239,torte-2b,2020.1.3,MacIntel,60,13376,,,,,,,,,,,,,,,,,,,,,,,,,,,,,,,,,,,,,,,,,,,,,,,,,,,,,,,,,,,,,,,,,
,,,,,,,,,,,,a,0.288,Incorrect,0,82,82,78,1,t1.png,t4.png,3,0.0000131,19,female ,2020-08-12_18h21.53.239,torte-2b,2020.1.3,MacIntel,60,13376,,,,,,,,,,,,,,,,,,,,,,,,,,,,,,,,,,,,,,,,,,,,,,,,,,,,,,,,,,,,,,,,,
,,,,,,,,,,,,l,0.349,Correct!,0,83,83,13,1,t2.png,t4.png,2,0.059078,19,female ,2020-08-12_18h21.53.239,torte-2b,2020.1.3,MacIntel,60,13376,,,,,,,,,,,,,,,,,,,,,,,,,,,,,,,,,,,,,,,,,,,,,,,,,,,,,,,,,,,,,,,,,
,,,,,,,,,,,,a,0.19,Correct!,0,84,84,69,1,t5.png,t4.png,1,0.90025,19,female ,2020-08-12_18h21.53.239,torte-2b,2020.1.3,MacIntel,60,13376,,,,,,,,,,,,,,,,,,,,,,,,,,,,,,,,,,,,,,,,,,,,,,,,,,,,,,,,,,,,,,,,,
,,,,,,,,,,,,l,0.22,Correct!,0,85,85,3,1,t4.png,t1.png,3,0.059078,19,female ,2020-08-12_18h21.53.239,torte-2b,2020.1.3,MacIntel,60,13376,,,,,,,,,,,,,,,,,,,,,,,,,,,,,,,,,,,,,,,,,,,,,,,,,,,,,,,,,,,,,,,,,
,,,,,,,,,,,,l,0.136,Correct!,0,86,86,14,1,t2.png,t3.png,1,0.90855,19,female ,2020-08-12_18h21.53.239,torte-2b,2020.1.3,MacIntel,60,13376,,,,,,,,,,,,,,,,,,,,,,,,,,,,,,,,,,,,,,,,,,,,,,,,,,,,,,,,,,,,,,,,,
,,,,,,,,,,,,a,0.141,Correct!,0,87,87,83,1,t3.png,t2.png,1,0.90855,19,female ,2020-08-12_18h21.53.239,torte-2b,2020.1.3,MacIntel,60,13376,,,,,,,,,,,,,,,,,,,,,,,,,,,,,,,,,,,,,,,,,,,,,,,,,,,,,,,,,,,,,,,,,
,,,,,,,,,,,,l,0.038,Incorrect,0,88,88,56,1,t2.png,t3.png,1,0.90855,19,female ,2020-08-12_18h21.53.239,torte-2b,2020.1.3,MacIntel,60,13376,,,,,,,,,,,,,,,,,,,,,,,,,,,,,,,,,,,,,,,,,,,,,,,,,,,,,,,,,,,,,,,,,
,,,,,,,,,,,,a,0.05,Incorrect,0,89,89,2,1,t3.png,t1.png,2,0.056466,19,female ,2020-08-12_18h21.53.239,torte-2b,2020.1.3,MacIntel,60,13376,,,,,,,,,,,,,,,,,,,,,,,,,,,,,,,,,,,,,,,,,,,,,,,,,,,,,,,,,,,,,,,,,
,,,,,,,,,,,,l,0.255,Incorrect,0,90,90,8,1,t5.png,t5.png,0,0.97829,19,female ,2020-08-12_18h21.53.239,torte-2b,2020.1.3,MacIntel,60,13376,,,,,,,,,,,,,,,,,,,,,,,,,,,,,,,,,,,,,,,,,,,,,,,,,,,,,,,,,,,,,,,,,
,,,,,,,,,,,,l,0.382,Incorrect,0,91,91,42,1,t5.png,t5.png,0,0.97829,19,female ,2020-08-12_18h21.53.239,torte-2b,2020.1.3,MacIntel,60,13376,,,,,,,,,,,,,,,,,,,,,,,,,,,,,,,,,,,,,,,,,,,,,,,,,,,,,,,,,,,,,,,,,
,,,,,,,,,,,,l,0.599,Correct!,0,92,92,34,1,t1.png,t5.png,4,9.55E-11,19,female ,2020-08-12_18h21.53.239,torte-2b,2020.1.3,MacIntel,60,13376,,,,,,,,,,,,,,,,,,,,,,,,,,,,,,,,,,,,,,,,,,,,,,,,,,,,,,,,,,,,,,,,,
,,,,,,,,,,,,a,0.588,Incorrect,0,93,93,66,1,t5.png,t1.png,4,9.55E-11,19,female ,2020-08-12_18h21.53.239,torte-2b,2020.1.3,MacIntel,60,13376,,,,,,,,,,,,,,,,,,,,,,,,,,,,,,,,,,,,,,,,,,,,,,,,,,,,,,,,,,,,,,,,,
,,,,,,,,,,,,l,0.6,Incorrect,0,94,94,15,1,t2.png,t3.png,1,0.90855,19,female ,2020-08-12_18h21.53.239,torte-2b,2020.1.3,MacIntel,60,13376,,,,,,,,,,,,,,,,,,,,,,,,,,,,,,,,,,,,,,,,,,,,,,,,,,,,,,,,,,,,,,,,,
,,,,,,,,,,,,a,0.454,Correct!,0,95,95,104,1,t4.png,t5.png,1,0.90025,19,female ,2020-08-12_18h21.53.239,torte-2b,2020.1.3,MacIntel,60,13376,,,,,,,,,,,,,,,,,,,,,,,,,,,,,,,,,,,,,,,,,,,,,,,,,,,,,,,,,,,,,,,,,
,,,,,,,,,,,,l,0.516,Incorrect,0,96,96,65,1,t5.png,t5.png,0,0.97829,19,female ,2020-08-12_18h21.53.239,torte-2b,2020.1.3,MacIntel,60,13376,,,,,,,,,,,,,,,,,,,,,,,,,,,,,,,,,,,,,,,,,,,,,,,,,,,,,,,,,,,,,,,,,
,,,,,,,,,,,,a,0.552,Incorrect,0,97,97,99,1,t4.png,t1.png,3,0.059078,19,female ,2020-08-12_18h21.53.239,torte-2b,2020.1.3,MacIntel,60,13376,,,,,,,,,,,,,,,,,,,,,,,,,,,,,,,,,,,,,,,,,,,,,,,,,,,,,,,,,,,,,,,,,
,,,,,,,,,,,,l,0.637,Incorrect,0,98,98,97,1,t1.png,t1.png,0,0.97829,19,female ,2020-08-12_18h21.53.239,torte-2b,2020.1.3,MacIntel,60,13376,,,,,,,,,,,,,,,,,,,,,,,,,,,,,,,,,,,,,,,,,,,,,,,,,,,,,,,,,,,,,,,,,
,,,,,,,,,,,,a,0.783,Incorrect,0,99,99,54,1,t3.png,t1.png,2,0.056466,19,female ,2020-08-12_18h21.53.239,torte-2b,2020.1.3,MacIntel,60,13376,,,,,,,,,,,,,,,,,,,,,,,,,,,,,,,,,,,,,,,,,,,,,,,,,,,,,,,,,,,,,,,,,
,,,,,,,,,,,,l,0.417,Correct!,0,100,100,11,1,t1.png,t4.png,3,0.0000131,19,female ,2020-08-12_18h21.53.239,torte-2b,2020.1.3,MacIntel,60,13376,,,,,,,,,,,,,,,,,,,,,,,,,,,,,,,,,,,,,,,,,,,,,,,,,,,,,,,,,,,,,,,,,
,,,,,,,,,,,,a,0.682,Correct!,0,101,101,38,1,t1.png,t1.png,0,0.97829,19,female ,2020-08-12_18h21.53.239,torte-2b,2020.1.3,MacIntel,60,13376,,,,,,,,,,,,,,,,,,,,,,,,,,,,,,,,,,,,,,,,,,,,,,,,,,,,,,,,,,,,,,,,,
,,,,,,,,,,,,a,0.554,Correct!,0,102,102,29,1,t3.png,t2.png,1,0.90855,19,female ,2020-08-12_18h21.53.239,torte-2b,2020.1.3,MacIntel,60,13376,,,,,,,,,,,,,,,,,,,,,,,,,,,,,,,,,,,,,,,,,,,,,,,,,,,,,,,,,,,,,,,,,
,,,,,,,,,,,,l,0.54,Correct!,0,103,103,63,1,t1.png,t5.png,4,9.55E-11,19,female ,2020-08-12_18h21.53.239,torte-2b,2020.1.3,MacIntel,60,13376,,,,,,,,,,,,,,,,,,,,,,,,,,,,,,,,,,,,,,,,,,,,,,,,,,,,,,,,,,,,,,,,,
,,,,,,,,,,,,l,0.885,Incorrect,0,104,104,52,1,t2.png,t3.png,1,0.90855,19,female ,2020-08-12_18h21.53.239,torte-2b,2020.1.3,MacIntel,60,13376,,,,,,,,,,,,,,,,,,,,,,,,,,,,,,,,,,,,,,,,,,,,,,,,,,,,,,,,,,,,,,,,,
,,,,,,,,,,,,a,0.866,Incorrect,0,105,105,103,1,t4.png,t1.png,3,0.059078,19,female ,2020-08-12_18h21.53.239,torte-2b,2020.1.3,MacIntel,60,13376,,,,,,,,,,,,,,,,,,,,,,,,,,,,,,,,,,,,,,,,,,,,,,,,,,,,,,,,,,,,,,,,,
,,,,,,,,,,,,l,0.573,Incorrect,0,106,106,47,1,t2.png,t3.png,1,0.90855,19,female ,2020-08-12_18h21.53.239,torte-2b,2020.1.3,MacIntel,60,13376,,,,,,,,,,,,,,,,,,,,,,,,,,,,,,,,,,,,,,,,,,,,,,,,,,,,,,,,,,,,,,,,,
,,,,,,,,,,,,a,0.432,Incorrect,0,107,107,74,1,t5.png,t1.png,4,9.55E-11,19,female ,2020-08-12_18h21.53.239,torte-2b,2020.1.3,MacIntel,60,13376,,,,,,,,,,,,,,,,,,,,,,,,,,,,,,,,,,,,,,,,,,,,,,,,,,,,,,,,,,,,,,,,,
,,,,,,,,,,,,l,0.007,Correct!,0,108,108,62,1,t1.png,t4.png,3,0.0000131,19,female ,2020-08-12_18h21.53.239,torte-2b,2020.1.3,MacIntel,60,13376,,,,,,,,,,,,,,,,,,,,,,,,,,,,,,,,,,,,,,,,,,,,,,,,,,,,,,,,,,,,,,,,,
,,,,,,,,,,,,l,0.091,Incorrect,0,109,109,110,1,t4.png,t5.png,1,0.90025,19,female ,2020-08-12_18h21.53.239,torte-2b,2020.1.3,MacIntel,60,13376,,,,,,,,,,,,,,,,,,,,,,,,,,,,,,,,,,,,,,,,,,,,,,,,,,,,,,,,,,,,,,,,,
,,,,,,,,,,,,a,0.102,Incorrect,0,110,110,49,1,t5.png,t1.png,4,9.55E-11,19,female ,2020-08-12_18h21.53.239,torte-2b,2020.1.3,MacIntel,60,13376,,,,,,,,,,,,,,,,,,,,,,,,,,,,,,,,,,,,,,,,,,,,,,,,,,,,,,,,,,,,,,,,,
,,,,,,,,,,,,l,0.249,Correct!,0,111,111,106,1,t4.png,t1.png,3,0.059078,19,female ,2020-08-12_18h21.53.239,torte-2b,2020.1.3,MacIntel,60,13376,,,,,,,,,,,,,,,,,,,,,,,,,,,,,,,,,,,,,,,,,,,,,,,,,,,,,,,,,,,,,,,,,
,,,,,,,,,,,,a,0.249,Incorrect,0,112,112,94,1,t3.png,t1.png,2,0.056466,19,female ,2020-08-12_18h21.53.239,torte-2b,2020.1.3,MacIntel,60,13376,,,,,,,,,,,,,,,,,,,,,,,,,,,,,,,,,,,,,,,,,,,,,,,,,,,,,,,,,,,,,,,,,
,,,,,,,,,,,,l,0.555,Incorrect,0,113,113,20,1,t5.png,t5.png,0,0.97829,19,female ,2020-08-12_18h21.53.239,torte-2b,2020.1.3,MacIntel,60,13376,,,,,,,,,,,,,,,,,,,,,,,,,,,,,,,,,,,,,,,,,,,,,,,,,,,,,,,,,,,,,,,,,
,,,,,,,,,,,,l,0.249,Incorrect,0,114,114,67,1,t3.png,t2.png,1,0.90855,19,female ,2020-08-12_18h21.53.239,torte-2b,2020.1.3,MacIntel,60,13376,,,,,,,,,,,,,,,,,,,,,,,,,,,,,,,,,,,,,,,,,,,,,,,,,,,,,,,,,,,,,,,,,
,,,,,,,,,,,,a,0.214,Correct!,0,115,115,7,1,t3.png,t2.png,1,0.90855,19,female ,2020-08-12_18h21.53.239,torte-2b,2020.1.3,MacIntel,60,13376,,,,,,,,,,,,,,,,,,,,,,,,,,,,,,,,,,,,,,,,,,,,,,,,,,,,,,,,,,,,,,,,,
,,,,,,,,,,,,a,0.008,Correct!,0,116,116,23,1,t4.png,t5.png,1,0.90025,19,female ,2020-08-12_18h21.53.239,torte-2b,2020.1.3,MacIntel,60,13376,,,,,,,,,,,,,,,,,,,,,,,,,,,,,,,,,,,,,,,,,,,,,,,,,,,,,,,,,,,,,,,,,
,,,,,,,,,,,,l,0.453,Incorrect,0,117,117,24,1,t5.png,t5.png,0,0.97829,19,female ,2020-08-12_18h21.53.239,torte-2b,2020.1.3,MacIntel,60,13376,,,,,,,,,,,,,,,,,,,,,,,,,,,,,,,,,,,,,,,,,,,,,,,,,,,,,,,,,,,,,,,,,
,,,,,,,,,,,,a,0.156,Incorrect,0,118,118,6,1,t5.png,t1.png,4,9.55E-11,19,female ,2020-08-12_18h21.53.239,torte-2b,2020.1.3,MacIntel,60,13376,,,,,,,,,,,,,,,,,,,,,,,,,,,,,,,,,,,,,,,,,,,,,,,,,,,,,,,,,,,,,,,,,
,,,,,,,,,,,,l,0.099,Incorrect,0,119,119,119,1,t5.png,t4.png,1,0.90025,19,female ,2020-08-12_18h21.53.239,torte-2b,2020.1.3,MacIntel,60,13376,,,,,,,,,,,,,,,,,,,,,,,,,,,,,,,,,,,,,,,,,,,,,,,,,,,,,,,,,,,,,,,,,
,,,,,,,,,,,,a,0.203,Correct!,,,,,,t4.png,t5.png,1,0.90025,19,female ,2020-08-12_18h21.53.239,torte-2b,2020.1.3,MacIntel,60,13376,l,0.193,a,0.083,0,0,0,63,1,,,,,,,,,,,,,,,,,,,,,,,,,,,,,,,,,,,,,,,,,,,,,,,,,,,,,,,,
,,,,,,,,,,,,l,0.023,Incorrect,,,,,,t2.png,t2.png,0,0.98115,19,female ,2020-08-12_18h21.53.239,torte-2b,2020.1.3,MacIntel,60,13376,,,,,0,1,1,112,1,,,,,,,,,,,,,,,,,,,,,,,,,,,,,,,,,,,,,,,,,,,,,,,,,,,,,,,,
,,,,,,,,,,,,a,0.018,Incorrect,,,,,,t2.png,t4.png,2,0.059078,19,female ,2020-08-12_18h21.53.239,torte-2b,2020.1.3,MacIntel,60,13376,,,,,0,2,2,53,1,,,,,,,,,,,,,,,,,,,,,,,,,,,,,,,,,,,,,,,,,,,,,,,,,,,,,,,,
,,,,,,,,,,,,l,0.099,Correct!,,,,,,t2.png,t5.png,3,0.0000131,19,female ,2020-08-12_18h21.53.239,torte-2b,2020.1.3,MacIntel,60,13376,,,,,0,3,3,54,1,,,,,,,,,,,,,,,,,,,,,,,,,,,,,,,,,,,,,,,,,,,,,,,,,,,,,,,,
,,,,,,,,,,,,l,0.07,Correct!,,,,,,t5.png,t1.png,4,9.55E-11,19,female ,2020-08-12_18h21.53.239,torte-2b,2020.1.3,MacIntel,60,13376,,,,,0,4,4,31,1,,,,,,,,,,,,,,,,,,,,,,,,,,,,,,,,,,,,,,,,,,,,,,,,,,,,,,,,
,,,,,,,,,,,,a,0.415,Incorrect,,,,,,t3.png,t1.png,2,0.0565,19,female ,2020-08-12_18h21.53.239,torte-2b,2020.1.3,MacIntel,60,13376,,,,,0,5,5,104,1,,,,,,,,,,,,,,,,,,,,,,,,,,,,,,,,,,,,,,,,,,,,,,,,,,,,,,,,
,,,,,,,,,,,,a,0.734,Incorrect,,,,,,t4.png,t1.png,3,0.059078,19,female ,2020-08-12_18h21.53.239,torte-2b,2020.1.3,MacIntel,60,13376,,,,,0,6,6,87,1,,,,,,,,,,,,,,,,,,,,,,,,,,,,,,,,,,,,,,,,,,,,,,,,,,,,,,,,
,,,,,,,,,,,,l,0.604,Correct!,,,,,,t1.png,t4.png,3,0.0000131,19,female ,2020-08-12_18h21.53.239,torte-2b,2020.1.3,MacIntel,60,13376,,,,,0,7,7,106,1,,,,,,,,,,,,,,,,,,,,,,,,,,,,,,,,,,,,,,,,,,,,,,,,,,,,,,,,
,,,,,,,,,,,,l,0.84,Incorrect,,,,,,t4.png,t4.png,0,0.98115,19,female ,2020-08-12_18h21.53.239,torte-2b,2020.1.3,MacIntel,60,13376,,,,,0,8,8,68,1,,,,,,,,,,,,,,,,,,,,,,,,,,,,,,,,,,,,,,,,,,,,,,,,,,,,,,,,
,,,,,,,,,,,,l,1.909,Incorrect,,,,,,t2.png,t3.png,1,0.909,19,female ,2020-08-12_18h21.53.239,torte-2b,2020.1.3,MacIntel,60,13376,,,,,0,9,9,8,1,,,,,,,,,,,,,,,,,,,,,,,,,,,,,,,,,,,,,,,,,,,,,,,,,,,,,,,,
,,,,,,,,,,,,l,1.041,Correct!,,,,,,t3.png,t5.png,2,0.0565,19,female ,2020-08-12_18h21.53.239,torte-2b,2020.1.3,MacIntel,60,13376,,,,,0,10,10,71,1,,,,,,,,,,,,,,,,,,,,,,,,,,,,,,,,,,,,,,,,,,,,,,,,,,,,,,,,
,,,,,,,,,,,,a,0.702,Incorrect,,,,,,t4.png,t1.png,3,0.059078,19,female ,2020-08-12_18h21.53.239,torte-2b,2020.1.3,MacIntel,60,13376,,,,,0,11,11,57,1,,,,,,,,,,,,,,,,,,,,,,,,,,,,,,,,,,,,,,,,,,,,,,,,,,,,,,,,
,,,,,,,,,,,,l,0.866,Incorrect,,,,,,t4.png,t5.png,1,0.90025,19,female ,2020-08-12_18h21.53.239,torte-2b,2020.1.3,MacIntel,60,13376,,,,,0,12,12,33,1,,,,,,,,,,,,,,,,,,,,,,,,,,,,,,,,,,,,,,,,,,,,,,,,,,,,,,,,
,,,,,,,,,,,,l,1.866,Incorrect,,,,,,t4.png,t5.png,1,0.90025,19,female ,2020-08-12_18h21.53.239,torte-2b,2020.1.3,MacIntel,60,13376,,,,,0,13,13,21,1,,,,,,,,,,,,,,,,,,,,,,,,,,,,,,,,,,,,,,,,,,,,,,,,,,,,,,,,
,,,,,,,,,,,,l,0.655,Incorrect,,,,,,t2.png,t3.png,1,0.90855,19,female ,2020-08-12_18h21.53.239,torte-2b,2020.1.3,MacIntel,60,13376,,,,,0,14,14,113,1,,,,,,,,,,,,,,,,,,,,,,,,,,,,,,,,,,,,,,,,,,,,,,,,,,,,,,,,
,,,,,,,,,,,,a,0.35,Incorrect,,,,,,t3.png,t5.png,2,0.056466,19,female ,2020-08-12_18h21.53.239,torte-2b,2020.1.3,MacIntel,60,13376,,,,,0,15,15,47,1,,,,,,,,,,,,,,,,,,,,,,,,,,,,,,,,,,,,,,,,,,,,,,,,,,,,,,,,
,,,,,,,,,,,,l,0.42,Correct!,,,,,,t5.png,t1.png,4,9.55E-11,19,female ,2020-08-12_18h21.53.239,torte-2b,2020.1.3,MacIntel,60,13376,,,,,0,16,16,101,1,,,,,,,,,,,,,,,,,,,,,,,,,,,,,,,,,,,,,,,,,,,,,,,,,,,,,,,,
,,,,,,,,,,,,a,0.259,Correct!,,,,,,t4.png,t1.png,3,0.059078,19,female ,2020-08-12_18h21.53.239,torte-2b,2020.1.3,MacIntel,60,13376,,,,,0,17,17,75,1,,,,,,,,,,,,,,,,,,,,,,,,,,,,,,,,,,,,,,,,,,,,,,,,,,,,,,,,
,,,,,,,,,,,,,,Too slow :(,,,,,,t1.png,t5.png,4,9.55E-11,19,female ,2020-08-12_18h21.53.239,torte-2b,2020.1.3,MacIntel,60,13376,,,,,0,18,18,1,1,,,,,,,,,,,,,,,,,,,,,,,,,,,,,,,,,,,,,,,,,,,,,,,,,,,,,,,,
,,,,,,,,,,,,l,0.338,Incorrect,,,,,,t4.png,t3.png,1,0.90855,19,female ,2020-08-12_18h21.53.239,torte-2b,2020.1.3,MacIntel,60,13376,,,,,0,19,19,56,1,,,,,,,,,,,,,,,,,,,,,,,,,,,,,,,,,,,,,,,,,,,,,,,,,,,,,,,,
,,,,,,,,,,,,a,0.27,Correct!,,,,,,t5.png,t5.png,0,0.978,19,female ,2020-08-12_18h21.53.239,torte-2b,2020.1.3,MacIntel,60,13376,,,,,0,20,20,116,1,,,,,,,,,,,,,,,,,,,,,,,,,,,,,,,,,,,,,,,,,,,,,,,,,,,,,,,,
,,,,,,,,,,,,l,0.497,Incorrect,,,,,,t3.png,t2.png,1,0.90855,19,female ,2020-08-12_18h21.53.239,torte-2b,2020.1.3,MacIntel,60,13376,,,,,0,21,21,108,1,,,,,,,,,,,,,,,,,,,,,,,,,,,,,,,,,,,,,,,,,,,,,,,,,,,,,,,,
,,,,,,,,,,,,a,0.385,Correct!,,,,,,t2.png,t1.png,1,0.90025,19,female ,2020-08-12_18h21.53.239,torte-2b,2020.1.3,MacIntel,60,13376,,,,,0,22,22,65,1,,,,,,,,,,,,,,,,,,,,,,,,,,,,,,,,,,,,,,,,,,,,,,,,,,,,,,,,
,,,,,,,,,,,,a,0.467,Correct!,,,,,,t5.png,t3.png,2,0.056466,19,female ,2020-08-12_18h21.53.239,torte-2b,2020.1.3,MacIntel,60,13376,,,,,0,23,23,80,1,,,,,,,,,,,,,,,,,,,,,,,,,,,,,,,,,,,,,,,,,,,,,,,,,,,,,,,,
,,,,,,,,,,,,l,0.416,Incorrect,,,,,,t2.png,t2.png,0,0.98115,19,female ,2020-08-12_18h21.53.239,torte-2b,2020.1.3,MacIntel,60,13376,,,,,0,24,24,7,1,,,,,,,,,,,,,,,,,,,,,,,,,,,,,,,,,,,,,,,,,,,,,,,,,,,,,,,,
,,,,,,,,,,,,a,0.384,Incorrect,,,,,,t5.png,t2.png,3,0.0000131,19,female ,2020-08-12_18h21.53.239,torte-2b,2020.1.3,MacIntel,60,13376,,,,,0,25,25,82,1,,,,,,,,,,,,,,,,,,,,,,,,,,,,,,,,,,,,,,,,,,,,,,,,,,,,,,,,
,,,,,,,,,,,,l,0.315,Incorrect,,,,,,t1.png,t2.png,1,0.9,19,female ,2020-08-12_18h21.53.239,torte-2b,2020.1.3,MacIntel,60,13376,,,,,0,26,26,41,1,,,,,,,,,,,,,,,,,,,,,,,,,,,,,,,,,,,,,,,,,,,,,,,,,,,,,,,,
,,,,,,,,,,,,a,0.048,Correct!,,,,,,t3.png,t4.png,1,0.90855,19,female ,2020-08-12_18h21.53.239,torte-2b,2020.1.3,MacIntel,60,13376,,,,,0,27,27,9,1,,,,,,,,,,,,,,,,,,,,,,,,,,,,,,,,,,,,,,,,,,,,,,,,,,,,,,,,
,,,,,,,,,,,,l,0.306,Incorrect,,,,,,t5.png,t4.png,1,0.90025,19,female ,2020-08-12_18h21.53.239,torte-2b,2020.1.3,MacIntel,60,13376,,,,,0,28,28,14,1,,,,,,,,,,,,,,,,,,,,,,,,,,,,,,,,,,,,,,,,,,,,,,,,,,,,,,,,
,,,,,,,,,,,,a,0.453,Incorrect,,,,,,t1.png,t3.png,2,0.0565,19,female ,2020-08-12_18h21.53.239,torte-2b,2020.1.3,MacIntel,60,13376,,,,,0,29,29,42,1,,,,,,,,,,,,,,,,,,,,,,,,,,,,,,,,,,,,,,,,,,,,,,,,,,,,,,,,
,,,,,,,,,,,,l,0.187,Correct!,,,,,,t2.png,t4.png,2,0.059078,19,female ,2020-08-12_18h21.53.239,torte-2b,2020.1.3,MacIntel,60,13376,,,,,0,30,30,97,1,,,,,,,,,,,,,,,,,,,,,,,,,,,,,,,,,,,,,,,,,,,,,,,,,,,,,,,,
,,,,,,,,,,,,a,0.137,Incorrect,,,,,,t2.png,t5.png,3,0.0000131,19,female ,2020-08-12_18h21.53.239,torte-2b,2020.1.3,MacIntel,60,13376,,,,,0,31,31,85,1,,,,,,,,,,,,,,,,,,,,,,,,,,,,,,,,,,,,,,,,,,,,,,,,,,,,,,,,
,,,,,,,,,,,,l,0.4,Correct!,,,,,,t3.png,t5.png,2,0.056466,19,female ,2020-08-12_18h21.53.239,torte-2b,2020.1.3,MacIntel,60,13376,,,,,0,32,32,45,1,,,,,,,,,,,,,,,,,,,,,,,,,,,,,,,,,,,,,,,,,,,,,,,,,,,,,,,,
,,,,,,,,,,,,l,0.349,Correct!,,,,,,t5.png,t1.png,4,9.55E-11,19,female ,2020-08-12_18h21.53.239,torte-2b,2020.1.3,MacIntel,60,13376,,,,,0,33,33,117,1,,,,,,,,,,,,,,,,,,,,,,,,,,,,,,,,,,,,,,,,,,,,,,,,,,,,,,,,
,,,,,,,,,,,,a,0.433,Correct!,,,,,,t1.png,t2.png,1,0.90025,19,female ,2020-08-12_18h21.53.239,torte-2b,2020.1.3,MacIntel,60,13376,,,,,0,34,34,96,1,,,,,,,,,,,,,,,,,,,,,,,,,,,,,,,,,,,,,,,,,,,,,,,,,,,,,,,,
,,,,,,,,,,,,l,0.439,Incorrect,,,,,,t1.png,t2.png,1,0.90025,19,female ,2020-08-12_18h21.53.239,torte-2b,2020.1.3,MacIntel,60,13376,,,,,0,35,35,6,1,,,,,,,,,,,,,,,,,,,,,,,,,,,,,,,,,,,,,,,,,,,,,,,,,,,,,,,,
,,,,,,,,,,,,a,0.732,Incorrect,,,,,,t1.png,t4.png,3,0.0000131,19,female ,2020-08-12_18h21.53.239,torte-2b,2020.1.3,MacIntel,60,13376,,,,,0,36,36,16,1,,,,,,,,,,,,,,,,,,,,,,,,,,,,,,,,,,,,,,,,,,,,,,,,,,,,,,,,
,,,,,,,,,,,,l,1.211,Incorrect,,,,,,t5.png,t5.png,0,0.97829,19,female ,2020-08-12_18h21.53.239,torte-2b,2020.1.3,MacIntel,60,13376,,,,,0,37,37,2,1,,,,,,,,,,,,,,,,,,,,,,,,,,,,,,,,,,,,,,,,,,,,,,,,,,,,,,,,
,,,,,,,,,,,,a,1.055,Incorrect,,,,,,t5.png,t2.png,3,0.0000131,19,female ,2020-08-12_18h21.53.239,torte-2b,2020.1.3,MacIntel,60,13376,,,,,0,38,38,48,1,,,,,,,,,,,,,,,,,,,,,,,,,,,,,,,,,,,,,,,,,,,,,,,,,,,,,,,,
,,,,,,,,,,,,a,1.369,Correct!,,,,,,t2.png,t3.png,1,0.90855,19,female ,2020-08-12_18h21.53.239,torte-2b,2020.1.3,MacIntel,60,13376,,,,,0,39,39,79,1,,,,,,,,,,,,,,,,,,,,,,,,,,,,,,,,,,,,,,,,,,,,,,,,,,,,,,,,
,,,,,,,,,,,,l,0.281,Correct!,,,,,,t5.png,t3.png,2,0.056466,19,female ,2020-08-12_18h21.53.239,torte-2b,2020.1.3,MacIntel,60,13376,,,,,0,40,40,37,1,,,,,,,,,,,,,,,,,,,,,,,,,,,,,,,,,,,,,,,,,,,,,,,,,,,,,,,,
,,,,,,,,,,,,l,0.652,Incorrect,,,,,,t1.png,t1.png,0,0.97829,19,female ,2020-08-12_18h21.53.239,torte-2b,2020.1.3,MacIntel,60,13376,,,,,0,41,41,110,1,,,,,,,,,,,,,,,,,,,,,,,,,,,,,,,,,,,,,,,,,,,,,,,,,,,,,,,,
,,,,,,,,,,,,a,0.916,Incorrect,,,,,,t1.png,t4.png,3,0.0000131,19,female ,2020-08-12_18h21.53.239,torte-2b,2020.1.3,MacIntel,60,13376,,,,,0,42,42,74,1,,,,,,,,,,,,,,,,,,,,,,,,,,,,,,,,,,,,,,,,,,,,,,,,,,,,,,,,
,,,,,,,,,,,,l,0.482,Correct!,,,,,,t1.png,t5.png,4,9.55E-11,19,female ,2020-08-12_18h21.53.239,torte-2b,2020.1.3,MacIntel,60,13376,,,,,0,43,43,3,1,,,,,,,,,,,,,,,,,,,,,,,,,,,,,,,,,,,,,,,,,,,,,,,,,,,,,,,,
,,,,,,,,,,,,a,0.366,Correct!,,,,,,t5.png,t4.png,1,0.90025,19,female ,2020-08-12_18h21.53.239,torte-2b,2020.1.3,MacIntel,60,13376,,,,,0,44,44,38,1,,,,,,,,,,,,,,,,,,,,,,,,,,,,,,,,,,,,,,,,,,,,,,,,,,,,,,,,
,,,,,,,,,,,,l,0.334,Correct!,,,,,,t5.png,t2.png,3,0.0000131,19,female ,2020-08-12_18h21.53.239,torte-2b,2020.1.3,MacIntel,60,13376,,,,,0,45,45,66,1,,,,,,,,,,,,,,,,,,,,,,,,,,,,,,,,,,,,,,,,,,,,,,,,,,,,,,,,
,,,,,,,,,,,,a,0.487,Incorrect,,,,,,t5.png,t1.png,4,9.55E-11,19,female ,2020-08-12_18h21.53.239,torte-2b,2020.1.3,MacIntel,60,13376,,,,,0,46,46,89,1,,,,,,,,,,,,,,,,,,,,,,,,,,,,,,,,,,,,,,,,,,,,,,,,,,,,,,,,
,,,,,,,,,,,,l,0.158,Incorrect,,,,,,t3.png,t2.png,1,0.90855,19,female ,2020-08-12_18h21.53.239,torte-2b,2020.1.3,MacIntel,60,13376,,,,,0,47,47,0,1,,,,,,,,,,,,,,,,,,,,,,,,,,,,,,,,,,,,,,,,,,,,,,,,,,,,,,,,
,,,,,,,,,,,,a,0.317,Correct!,,,,,,t3.png,t4.png,1,0.90855,19,female ,2020-08-12_18h21.53.239,torte-2b,2020.1.3,MacIntel,60,13376,,,,,0,48,48,103,1,,,,,,,,,,,,,,,,,,,,,,,,,,,,,,,,,,,,,,,,,,,,,,,,,,,,,,,,
,,,,,,,,,,,,a,0.39,Incorrect,,,,,,t5.png,t3.png,2,0.0565,19,female ,2020-08-12_18h21.53.239,torte-2b,2020.1.3,MacIntel,60,13376,,,,,0,49,49,50,1,,,,,,,,,,,,,,,,,,,,,,,,,,,,,,,,,,,,,,,,,,,,,,,,,,,,,,,,
,,,,,,,,,,,,l,0.583,Incorrect,,,,,,t1.png,t2.png,1,0.9,19,female ,2020-08-12_18h21.53.239,torte-2b,2020.1.3,MacIntel,60,13376,,,,,0,50,50,17,1,,,,,,,,,,,,,,,,,,,,,,,,,,,,,,,,,,,,,,,,,,,,,,,,,,,,,,,,
,,,,,,,,,,,,a,0.52,Correct!,,,,,,t5.png,t5.png,0,0.978,19,female ,2020-08-12_18h21.53.239,torte-2b,2020.1.3,MacIntel,60,13376,,,,,0,51,51,51,1,,,,,,,,,,,,,,,,,,,,,,,,,,,,,,,,,,,,,,,,,,,,,,,,,,,,,,,,
,,,,,,,,,,,,l,0.89,Incorrect,,,,,,t5.png,t5.png,0,0.97829,19,female ,2020-08-12_18h21.53.239,torte-2b,2020.1.3,MacIntel,60,13376,,,,,0,52,52,35,1,,,,,,,,,,,,,,,,,,,,,,,,,,,,,,,,,,,,,,,,,,,,,,,,,,,,,,,,
,,,,,,,,,,,,l,0.6,Incorrect,,,,,,t4.png,t4.png,0,0.98115,19,female ,2020-08-12_18h21.53.239,torte-2b,2020.1.3,MacIntel,60,13376,,,,,0,53,53,59,1,,,,,,,,,,,,,,,,,,,,,,,,,,,,,,,,,,,,,,,,,,,,,,,,,,,,,,,,
,,,,,,,,,,,,l,0.533,Correct!,,,,,,t1.png,t3.png,2,0.056466,19,female ,2020-08-12_18h21.53.239,torte-2b,2020.1.3,MacIntel,60,13376,,,,,0,54,54,24,1,,,,,,,,,,,,,,,,,,,,,,,,,,,,,,,,,,,,,,,,,,,,,,,,,,,,,,,,
,,,,,,,,,,,,a,0.474,Incorrect,,,,,,t4.png,t1.png,3,0.0000131,19,female ,2020-08-12_18h21.53.239,torte-2b,2020.1.3,MacIntel,60,13376,,,,,0,55,55,91,1,,,,,,,,,,,,,,,,,,,,,,,,,,,,,,,,,,,,,,,,,,,,,,,,,,,,,,,,
,,,,,,,,,,,,l,0.532,Incorrect,,,,,,t1.png,t1.png,0,0.97829,19,female ,2020-08-12_18h21.53.239,torte-2b,2020.1.3,MacIntel,60,13376,,,,,0,56,56,114,1,,,,,,,,,,,,,,,,,,,,,,,,,,,,,,,,,,,,,,,,,,,,,,,,,,,,,,,,
,,,,,,,,,,,,l,0.6,Incorrect,,,,,,t2.png,t2.png,0,0.98115,19,female ,2020-08-12_18h21.53.239,torte-2b,2020.1.3,MacIntel,60,13376,,,,,0,57,57,69,1,,,,,,,,,,,,,,,,,,,,,,,,,,,,,,,,,,,,,,,,,,,,,,,,,,,,,,,,
,,,,,,,,,,,,a,0.3,Correct!,,,,,,t3.png,t2.png,1,0.90855,19,female ,2020-08-12_18h21.53.239,torte-2b,2020.1.3,MacIntel,60,13376,,,,,0,58,58,94,1,,,,,,,,,,,,,,,,,,,,,,,,,,,,,,,,,,,,,,,,,,,,,,,,,,,,,,,,
,,,,,,,,,,,,a,0.45,Correct!,,,,,,t5.png,t5.png,0,0.97829,19,female ,2020-08-12_18h21.53.239,torte-2b,2020.1.3,MacIntel,60,13376,,,,,0,59,59,77,1,,,,,,,,,,,,,,,,,,,,,,,,,,,,,,,,,,,,,,,,,,,,,,,,,,,,,,,,
,,,,,,,,,,,,l,0.4,Incorrect,,,,,,t1.png,t2.png,1,0.9,19,female ,2020-08-12_18h21.53.239,torte-2b,2020.1.3,MacIntel,60,13376,,,,,0,60,60,61,1,,,,,,,,,,,,,,,,,,,,,,,,,,,,,,,,,,,,,,,,,,,,,,,,,,,,,,,,
,,,,,,,,,,,,l,0.492,Incorrect,,,,,,t1.png,t1.png,0,0.97829,19,female ,2020-08-12_18h21.53.239,torte-2b,2020.1.3,MacIntel,60,13376,,,,,0,61,61,4,1,,,,,,,,,,,,,,,,,,,,,,,,,,,,,,,,,,,,,,,,,,,,,,,,,,,,,,,,
,,,,,,,,,,,,l,0.106,Correct!,,,,,,t3.png,t4.png,1,0.90855,19,female ,2020-08-12_18h21.53.239,torte-2b,2020.1.3,MacIntel,60,13376,,,,,0,62,62,5,1,,,,,,,,,,,,,,,,,,,,,,,,,,,,,,,,,,,,,,,,,,,,,,,,,,,,,,,,
,,,,,,,,,,,,a,0.249,Incorrect,,,,,,t3.png,t5.png,2,0.056466,19,female ,2020-08-12_18h21.53.239,torte-2b,2020.1.3,MacIntel,60,13376,,,,,0,63,63,60,1,,,,,,,,,,,,,,,,,,,,,,,,,,,,,,,,,,,,,,,,,,,,,,,,,,,,,,,,
,,,,,,,,,,,,a,0.854,Correct!,,,,,,t4.png,t4.png,0,0.98115,19,female ,2020-08-12_18h21.53.239,torte-2b,2020.1.3,MacIntel,60,13376,,,,,0,64,64,19,1,,,,,,,,,,,,,,,,,,,,,,,,,,,,,,,,,,,,,,,,,,,,,,,,,,,,,,,,
,,,,,,,,,,,,l,0.053,Incorrect,,,,,,t4.png,t3.png,1,0.90855,19,female ,2020-08-12_18h21.53.239,torte-2b,2020.1.3,MacIntel,60,13376,,,,,0,65,65,29,1,,,,,,,,,,,,,,,,,,,,,,,,,,,,,,,,,,,,,,,,,,,,,,,,,,,,,,,,
,,,,,,,,,,,,l,0.086,Incorrect,,,,,,t2.png,t3.png,1,0.90855,19,female ,2020-08-12_18h21.53.239,torte-2b,2020.1.3,MacIntel,60,13376,,,,,0,66,66,64,1,,,,,,,,,,,,,,,,,,,,,,,,,,,,,,,,,,,,,,,,,,,,,,,,,,,,,,,,
,,,,,,,,,,,,l,0.266,Correct!,,,,,,t2.png,t1.png,1,0.90025,19,female ,2020-08-12_18h21.53.239,torte-2b,2020.1.3,MacIntel,60,13376,,,,,0,67,67,44,1,,,,,,,,,,,,,,,,,,,,,,,,,,,,,,,,,,,,,,,,,,,,,,,,,,,,,,,,
,,,,,,,,,,,,a,0.251,Incorrect,,,,,,t1.png,t3.png,2,0.0565,19,female ,2020-08-12_18h21.53.239,torte-2b,2020.1.3,MacIntel,60,13376,,,,,0,68,68,12,1,,,,,,,,,,,,,,,,,,,,,,,,,,,,,,,,,,,,,,,,,,,,,,,,,,,,,,,,
,,,,,,,,,,,,a,0.368,Correct!,,,,,,t3.png,t4.png,1,0.90855,19,female ,2020-08-12_18h21.53.239,torte-2b,2020.1.3,MacIntel,60,13376,,,,,0,69,69,58,1,,,,,,,,,,,,,,,,,,,,,,,,,,,,,,,,,,,,,,,,,,,,,,,,,,,,,,,,
,,,,,,,,,,,,a,0.289,Correct!,,,,,,t2.png,t3.png,1,0.90855,19,female ,2020-08-12_18h21.53.239,torte-2b,2020.1.3,MacIntel,60,13376,,,,,0,70,70,70,1,,,,,,,,,,,,,,,,,,,,,,,,,,,,,,,,,,,,,,,,,,,,,,,,,,,,,,,,
,,,,,,,,,,,,a,0.517,Incorrect,,,,,,t4.png,t1.png,3,0.0000131,19,female ,2020-08-12_18h21.53.239,torte-2b,2020.1.3,MacIntel,60,13376,,,,,0,71,71,49,1,,,,,,,,,,,,,,,,,,,,,,,,,,,,,,,,,,,,,,,,,,,,,,,,,,,,,,,,
,,,,,,,,,,,,a,1.934,Correct!,,,,,,t5.png,t4.png,1,0.9,19,female ,2020-08-12_18h21.53.239,torte-2b,2020.1.3,MacIntel,60,13376,,,,,0,72,72,55,1,,,,,,,,,,,,,,,,,,,,,,,,,,,,,,,,,,,,,,,,,,,,,,,,,,,,,,,,
,,,,,,,,,,,,l,0.355,Correct!,,,,,,t1.png,t3.png,2,0.056466,19,female ,2020-08-12_18h21.53.239,torte-2b,2020.1.3,MacIntel,60,13376,,,,,0,73,73,32,1,,,,,,,,,,,,,,,,,,,,,,,,,,,,,,,,,,,,,,,,,,,,,,,,,,,,,,,,
,,,,,,,,,,,,l,0.333,Incorrect,,,,,,t5.png,t4.png,1,0.9,19,female ,2020-08-12_18h21.53.239,torte-2b,2020.1.3,MacIntel,60,13376,,,,,0,74,74,92,1,,,,,,,,,,,,,,,,,,,,,,,,,,,,,,,,,,,,,,,,,,,,,,,,,,,,,,,,
,,,,,,,,,,,,l,0.431,Correct!,,,,,,t2.png,t5.png,3,0.0000131,19,female ,2020-08-12_18h21.53.239,torte-2b,2020.1.3,MacIntel,60,13376,,,,,0,75,75,46,1,,,,,,,,,,,,,,,,,,,,,,,,,,,,,,,,,,,,,,,,,,,,,,,,,,,,,,,,
,,,,,,,,,,,,l,0.44,Correct!,,,,,,t4.png,t1.png,3,0.0000131,19,female ,2020-08-12_18h21.53.239,torte-2b,2020.1.3,MacIntel,60,13376,,,,,0,76,76,76,1,,,,,,,,,,,,,,,,,,,,,,,,,,,,,,,,,,,,,,,,,,,,,,,,,,,,,,,,
,,,,,,,,,,,,a,0.302,Incorrect,,,,,,t1.png,t5.png,4,9.55E-11,19,female ,2020-08-12_18h21.53.239,torte-2b,2020.1.3,MacIntel,60,13376,,,,,0,77,77,118,1,,,,,,,,,,,,,,,,,,,,,,,,,,,,,,,,,,,,,,,,,,,,,,,,,,,,,,,,
,,,,,,,,,,,,a,0.522,Incorrect,,,,,,t5.png,t3.png,2,0.056466,19,female ,2020-08-12_18h21.53.239,torte-2b,2020.1.3,MacIntel,60,13376,,,,,0,78,78,26,1,,,,,,,,,,,,,,,,,,,,,,,,,,,,,,,,,,,,,,,,,,,,,,,,,,,,,,,,
,,,,,,,,,,,,l,0.675,Correct!,,,,,,t2.png,t4.png,2,0.059078,19,female ,2020-08-12_18h21.53.239,torte-2b,2020.1.3,MacIntel,60,13376,,,,,0,79,79,67,1,,,,,,,,,,,,,,,,,,,,,,,,,,,,,,,,,,,,,,,,,,,,,,,,,,,,,,,,
,,,,,,,,,,,,l,0.714,Correct!,,,,,,t4.png,t1.png,3,0.0000131,19,female ,2020-08-12_18h21.53.239,torte-2b,2020.1.3,MacIntel,60,13376,,,,,0,80,80,28,1,,,,,,,,,,,,,,,,,,,,,,,,,,,,,,,,,,,,,,,,,,,,,,,,,,,,,,,,
,,,,,,,,,,,,a,0.421,Incorrect,,,,,,t3.png,t5.png,2,0.056466,19,female ,2020-08-12_18h21.53.239,torte-2b,2020.1.3,MacIntel,60,13376,,,,,0,81,81,78,1,,,,,,,,,,,,,,,,,,,,,,,,,,,,,,,,,,,,,,,,,,,,,,,,,,,,,,,,
,,,,,,,,,,,,a,0.452,Correct!,,,,,,t3.png,t2.png,1,0.90855,19,female ,2020-08-12_18h21.53.239,torte-2b,2020.1.3,MacIntel,60,13376,,,,,0,82,82,99,1,,,,,,,,,,,,,,,,,,,,,,,,,,,,,,,,,,,,,,,,,,,,,,,,,,,,,,,,
,,,,,,,,,,,,l,0.435,Incorrect,,,,,,t2.png,t1.png,1,0.9,19,female ,2020-08-12_18h21.53.239,torte-2b,2020.1.3,MacIntel,60,13376,,,,,0,83,83,100,1,,,,,,,,,,,,,,,,,,,,,,,,,,,,,,,,,,,,,,,,,,,,,,,,,,,,,,,,
,,,,,,,,,,,,a,0.485,Correct!,,,,,,t2.png,t1.png,1,0.90025,19,female ,2020-08-12_18h21.53.239,torte-2b,2020.1.3,MacIntel,60,13376,,,,,0,84,84,105,1,,,,,,,,,,,,,,,,,,,,,,,,,,,,,,,,,,,,,,,,,,,,,,,,,,,,,,,,
,,,,,,,,,,,,l,0.384,Correct!,,,,,,t1.png,t4.png,3,0.0000131,19,female ,2020-08-12_18h21.53.239,torte-2b,2020.1.3,MacIntel,60,13376,,,,,0,85,85,23,1,,,,,,,,,,,,,,,,,,,,,,,,,,,,,,,,,,,,,,,,,,,,,,,,,,,,,,,,
,,,,,,,,,,,,l,0.591,Incorrect,,,,,,t2.png,t2.png,0,0.981,19,female ,2020-08-12_18h21.53.239,torte-2b,2020.1.3,MacIntel,60,13376,,,,,0,86,86,98,1,,,,,,,,,,,,,,,,,,,,,,,,,,,,,,,,,,,,,,,,,,,,,,,,,,,,,,,,
,,,,,,,,,,,,a,0.656,Incorrect,,,,,,t5.png,t3.png,2,0.056466,19,female ,2020-08-12_18h21.53.239,torte-2b,2020.1.3,MacIntel,60,13376,,,,,0,87,87,27,1,,,,,,,,,,,,,,,,,,,,,,,,,,,,,,,,,,,,,,,,,,,,,,,,,,,,,,,,
,,,,,,,,,,,,l,0.706,Correct!,,,,,,t4.png,t5.png,1,0.90025,19,female ,2020-08-12_18h21.53.239,torte-2b,2020.1.3,MacIntel,60,13376,,,,,0,88,88,86,1,,,,,,,,,,,,,,,,,,,,,,,,,,,,,,,,,,,,,,,,,,,,,,,,,,,,,,,,
,,,,,,,,,,,,a,0.583,Incorrect,,,,,,t4.png,t1.png,3,0.059078,19,female ,2020-08-12_18h21.53.239,torte-2b,2020.1.3,MacIntel,60,13376,,,,,0,89,89,62,1,,,,,,,,,,,,,,,,,,,,,,,,,,,,,,,,,,,,,,,,,,,,,,,,,,,,,,,,
,,,,,,,,,,,,l,0.467,Incorrect,,,,,,t3.png,t4.png,1,0.90855,19,female ,2020-08-12_18h21.53.239,torte-2b,2020.1.3,MacIntel,60,13376,,,,,0,90,90,111,1,,,,,,,,,,,,,,,,,,,,,,,,,,,,,,,,,,,,,,,,,,,,,,,,,,,,,,,,
,,,,,,,,,,,,a,0.44,Correct!,,,,,,t4.png,t3.png,1,0.909,19,female ,2020-08-12_18h21.53.239,torte-2b,2020.1.3,MacIntel,60,13376,,,,,0,91,91,107,1,,,,,,,,,,,,,,,,,,,,,,,,,,,,,,,,,,,,,,,,,,,,,,,,,,,,,,,,
,,,,,,,,,,,,l,0.331,Incorrect,,,,,,t1.png,t1.png,0,0.978,19,female ,2020-08-12_18h21.53.239,torte-2b,2020.1.3,MacIntel,60,13376,,,,,0,92,92,13,1,,,,,,,,,,,,,,,,,,,,,,,,,,,,,,,,,,,,,,,,,,,,,,,,,,,,,,,,
,,,,,,,,,,,,a,0.574,Correct!,,,,,,t4.png,t3.png,1,0.909,19,female ,2020-08-12_18h21.53.239,torte-2b,2020.1.3,MacIntel,60,13376,,,,,0,93,93,119,1,,,,,,,,,,,,,,,,,,,,,,,,,,,,,,,,,,,,,,,,,,,,,,,,,,,,,,,,
,,,,,,,,,,,,a,0.623,Incorrect,,,,,,t5.png,t2.png,3,0.0000131,19,female ,2020-08-12_18h21.53.239,torte-2b,2020.1.3,MacIntel,60,13376,,,,,0,94,94,43,1,,,,,,,,,,,,,,,,,,,,,,,,,,,,,,,,,,,,,,,,,,,,,,,,,,,,,,,,
,,,,,,,,,,,,a,0.701,Correct!,,,,,,t4.png,t4.png,0,0.98115,19,female ,2020-08-12_18h21.53.239,torte-2b,2020.1.3,MacIntel,60,13376,,,,,0,95,95,52,1,,,,,,,,,,,,,,,,,,,,,,,,,,,,,,,,,,,,,,,,,,,,,,,,,,,,,,,,
,,,,,,,,,,,,a,0.467,Incorrect,,,,,,t3.png,t1.png,2,0.0565,19,female ,2020-08-12_18h21.53.239,torte-2b,2020.1.3,MacIntel,60,13376,,,,,0,96,96,40,1,,,,,,,,,,,,,,,,,,,,,,,,,,,,,,,,,,,,,,,,,,,,,,,,,,,,,,,,
,,,,,,,,,,,,a,0.874,Correct!,,,,,,t4.png,t3.png,1,0.90855,19,female ,2020-08-12_18h21.53.239,torte-2b,2020.1.3,MacIntel,60,13376,,,,,0,97,97,11,1,,,,,,,,,,,,,,,,,,,,,,,,,,,,,,,,,,,,,,,,,,,,,,,,,,,,,,,,
,,,,,,,,,,,,l,0.487,Correct!,,,,,,t2.png,t4.png,2,0.059078,19,female ,2020-08-12_18h21.53.239,torte-2b,2020.1.3,MacIntel,60,13376,,,,,0,98,98,84,1,,,,,,,,,,,,,,,,,,,,,,,,,,,,,,,,,,,,,,,,,,,,,,,,,,,,,,,,
,,,,,,,,,,,,a,0.455,Correct!,,,,,,t3.png,t2.png,1,0.90855,19,female ,2020-08-12_18h21.53.239,torte-2b,2020.1.3,MacIntel,60,13376,,,,,0,99,99,10,1,,,,,,,,,,,,,,,,,,,,,,,,,,,,,,,,,,,,,,,,,,,,,,,,,,,,,,,,
,,,,,,,,,,,,l,0.705,Incorrect,,,,,,t4.png,t4.png,0,0.98115,19,female ,2020-08-12_18h21.53.239,torte-2b,2020.1.3,MacIntel,60,13376,,,,,0,100,100,88,1,,,,,,,,,,,,,,,,,,,,,,,,,,,,,,,,,,,,,,,,,,,,,,,,,,,,,,,,
,,,,,,,,,,,,l,0.904,Correct!,,,,,,t2.png,t5.png,3,0.0000131,19,female ,2020-08-12_18h21.53.239,torte-2b,2020.1.3,MacIntel,60,13376,,,,,0,101,101,39,1,,,,,,,,,,,,,,,,,,,,,,,,,,,,,,,,,,,,,,,,,,,,,,,,,,,,,,,,
,,,,,,,,,,,,l,1.686,Incorrect,,,,,,t4.png,t5.png,1,0.9,19,female ,2020-08-12_18h21.53.239,torte-2b,2020.1.3,MacIntel,60,13376,,,,,0,102,102,81,1,,,,,,,,,,,,,,,,,,,,,,,,,,,,,,,,,,,,,,,,,,,,,,,,,,,,,,,,
,,,,,,,,,,,,a,0.901,Incorrect,,,,,,t3.png,t1.png,2,0.056466,19,female ,2020-08-12_18h21.53.239,torte-2b,2020.1.3,MacIntel,60,13376,,,,,0,103,103,72,1,,,,,,,,,,,,,,,,,,,,,,,,,,,,,,,,,,,,,,,,,,,,,,,,,,,,,,,,
,,,,,,,,,,,,a,0.748,Correct!,,,,,,t2.png,t1.png,1,0.9,19,female ,2020-08-12_18h21.53.239,torte-2b,2020.1.3,MacIntel,60,13376,,,,,0,104,104,93,1,,,,,,,,,,,,,,,,,,,,,,,,,,,,,,,,,,,,,,,,,,,,,,,,,,,,,,,,
,,,,,,,,,,,,l,0.822,Correct!,,,,,,t1.png,t5.png,4,9.55E-11,19,female ,2020-08-12_18h21.53.239,torte-2b,2020.1.3,MacIntel,60,13376,,,,,0,105,105,20,1,,,,,,,,,,,,,,,,,,,,,,,,,,,,,,,,,,,,,,,,,,,,,,,,,,,,,,,,
,,,,,,,,,,,,a,0.417,Incorrect,,,,,,t3.png,t1.png,2,0.056466,19,female ,2020-08-12_18h21.53.239,torte-2b,2020.1.3,MacIntel,60,13376,,,,,0,106,106,34,1,,,,,,,,,,,,,,,,,,,,,,,,,,,,,,,,,,,,,,,,,,,,,,,,,,,,,,,,
,,,,,,,,,,,,l,0.382,Correct!,,,,,,t2.png,t5.png,3,0.0000131,19,female ,2020-08-12_18h21.53.239,torte-2b,2020.1.3,MacIntel,60,13376,,,,,0,107,107,115,1,,,,,,,,,,,,,,,,,,,,,,,,,,,,,,,,,,,,,,,,,,,,,,,,,,,,,,,,
,,,,,,,,,,,,a,0.481,Incorrect,,,,,,t5.png,t2.png,3,0.0000131,19,female ,2020-08-12_18h21.53.239,torte-2b,2020.1.3,MacIntel,60,13376,,,,,0,108,108,83,1,,,,,,,,,,,,,,,,,,,,,,,,,,,,,,,,,,,,,,,,,,,,,,,,,,,,,,,,
,,,,,,,,,,,,l,0.875,Correct!,,,,,,t2.png,t4.png,2,0.059078,19,female ,2020-08-12_18h21.53.239,torte-2b,2020.1.3,MacIntel,60,13376,,,,,0,109,109,18,1,,,,,,,,,,,,,,,,,,,,,,,,,,,,,,,,,,,,,,,,,,,,,,,,,,,,,,,,
,,,,,,,,,,,,l,0.406,Correct!,,,,,,t1.png,t5.png,4,9.55E-11,19,female ,2020-08-12_18h21.53.239,torte-2b,2020.1.3,MacIntel,60,13376,,,,,0,110,110,30,1,,,,,,,,,,,,,,,,,,,,,,,,,,,,,,,,,,,,,,,,,,,,,,,,,,,,,,,,
,,,,,,,,,,,,l,0.423,Correct!,,,,,,t1.png,t4.png,3,0.0000131,19,female ,2020-08-12_18h21.53.239,torte-2b,2020.1.3,MacIntel,60,13376,,,,,0,111,111,36,1,,,,,,,,,,,,,,,,,,,,,,,,,,,,,,,,,,,,,,,,,,,,,,,,,,,,,,,,
,,,,,,,,,,,,a,0.487,Incorrect,,,,,,t4.png,t1.png,3,0.0000131,19,female ,2020-08-12_18h21.53.239,torte-2b,2020.1.3,MacIntel,60,13376,,,,,0,112,112,102,1,,,,,,,,,,,,,,,,,,,,,,,,,,,,,,,,,,,,,,,,,,,,,,,,,,,,,,,,
,,,,,,,,,,,,l,0.551,Incorrect,,,,,,t1.png,t1.png,0,0.978,19,female ,2020-08-12_18h21.53.239,torte-2b,2020.1.3,MacIntel,60,13376,,,,,0,113,113,22,1,,,,,,,,,,,,,,,,,,,,,,,,,,,,,,,,,,,,,,,,,,,,,,,,,,,,,,,,
,,,,,,,,,,,,l,0.436,Incorrect,,,,,,t3.png,t1.png,2,0.056466,19,female ,2020-08-12_18h21.53.239,torte-2b,2020.1.3,MacIntel,60,13376,,,,,0,114,114,109,1,,,,,,,,,,,,,,,,,,,,,,,,,,,,,,,,,,,,,,,,,,,,,,,,,,,,,,,,
,,,,,,,,,,,,a,0.298,Correct!,,,,,,t5.png,t4.png,1,0.90025,19,female ,2020-08-12_18h21.53.239,torte-2b,2020.1.3,MacIntel,60,13376,,,,,0,115,115,25,1,,,,,,,,,,,,,,,,,,,,,,,,,,,,,,,,,,,,,,,,,,,,,,,,,,,,,,,,
,,,,,,,,,,,,a,0.515,Incorrect,,,,,,t5.png,t1.png,4,9.55E-11,19,female ,2020-08-12_18h21.53.239,torte-2b,2020.1.3,MacIntel,60,13376,,,,,0,116,116,15,1,,,,,,,,,,,,,,,,,,,,,,,,,,,,,,,,,,,,,,,,,,,,,,,,,,,,,,,,
,,,,,,,,,,,,a,0.498,Incorrect,,,,,,t4.png,t1.png,3,0.059078,19,female ,2020-08-12_18h21.53.239,torte-2b,2020.1.3,MacIntel,60,13376,,,,,0,117,117,73,1,,,,,,,,,,,,,,,,,,,,,,,,,,,,,,,,,,,,,,,,,,,,,,,,,,,,,,,,
,,,,,,,,,,,,l,0.42,Correct!,,,,,,t1.png,t3.png,2,0.0565,19,female ,2020-08-12_18h21.53.239,torte-2b,2020.1.3,MacIntel,60,13376,,,,,0,118,118,95,1,,,,,,,,,,,,,,,,,,,,,,,,,,,,,,,,,,,,,,,,,,,,,,,,,,,,,,,,
,,,,,,,,,,,,l,0.673,Incorrect,,,,,,t2.png,t2.png,0,0.98115,19,female ,2020-08-12_18h21.53.239,torte-2b,2020.1.3,MacIntel,60,13376,,,,,0,119,119,90,1,,,,,,,,,,,,,,,,,,,,,,,,,,,,,,,,,,,,,,,,,,,,,,,,,,,,,,,,
,,,,,,,,,,,,,,,,,,,,,,,,19,female ,2020-08-12_18h21.53.239,torte-2b,2020.1.3,MacIntel,60,13376,space,2.783,,,,,,,,space,54.019,,0,0,0,0,1,6,,,,,,,,,,,,,,,,,,,,,,,,,,,,,,,,,,,,,,,,,,,,,,,
,,,,,,,,,,,,,,,,,,,,,,,,19,female ,2020-08-12_18h21.53.239,torte-2b,2020.1.3,MacIntel,60,13376,,,,,,,,,,,,,0,1,1,1,1,7,,,,,,,,,,,,,,,,,,,,,,,,,,,,,,,,,,,,,,,,,,,,,,,
,,,,,,,,,,,,,,,,,,,,,,,,19,female ,2020-08-12_18h21.53.239,torte-2b,2020.1.3,MacIntel,60,13376,,,,,,,,,,,,space,0,2,2,2,1,6,0.413,,,,,,,,,,,,,,,,,,,,,,,,,,,,,,,,,,,,,,,,,,,,,,
,,,,,,,,,,,,,,,,,,,,,,,,19,female ,2020-08-12_18h21.53.239,torte-2b,2020.1.3,MacIntel,60,13376,,,,,,,,,,,,space,0,3,3,3,1,7,1.102,,,,,,,,,,,,,,,,,,,,,,,,,,,,,,,,,,,,,,,,,,,,,,
,,,,,,,,,,,,,,,,,,,,,,,,19,female ,2020-08-12_18h21.53.239,torte-2b,2020.1.3,MacIntel,60,13376,,,,,,,,,,,,,0,4,4,4,1,5,,,,,,,,,,,,,,,,,,,,,,,,,,,,,,,,,,,,,,,,,,,,,,,
,,,,,,,,,,,,,,,,,,,,,,,,19,female ,2020-08-12_18h21.53.239,torte-2b,2020.1.3,MacIntel,60,13376,,,,,,,,,,,,,0,5,5,5,1,7,,,,,,,,,,,,,,,,,,,,,,,,,,,,,,,,,,,,,,,,,,,,,,,
,,,,,,,,,,,,,,,,,,,,,,,,19,female ,2020-08-12_18h21.53.239,torte-2b,2020.1.3,MacIntel,60,13376,,,,,,,,,,,,,0,6,6,6,1,2,,,,,,,,,,,,,,,,,,,,,,,,,,,,,,,,,,,,,,,,,,,,,,,
,,,,,,,,,,,,,,,,,,,,,,,,19,female ,2020-08-12_18h21.53.239,torte-2b,2020.1.3,MacIntel,60,13376,,,,,,,,,,,,,0,7,7,7,1,4,,,,,,,,,,,,,,,,,,,,,,,,,,,,,,,,,,,,,,,,,,,,,,,
,,,,,,,,,,,,,,,,,,,,,,,,19,female ,2020-08-12_18h21.53.239,torte-2b,2020.1.3,MacIntel,60,13376,,,,,,,,,,,,space,0,8,8,8,1,7,0.512,,,,,,,,,,,,,,,,,,,,,,,,,,,,,,,,,,,,,,,,,,,,,,
,,,,,,,,,,,,,,,,,,,,,,,,19,female ,2020-08-12_18h21.53.239,torte-2b,2020.1.3,MacIntel,60,13376,,,,,,,,,,,,space,0,9,9,9,1,4,1.004,,,,,,,,,,,,,,,,,,,,,,,,,,,,,,,,,,,,,,,,,,,,,,
,,,,,,,,,,,,,,,,,,,,,,,,19,female ,2020-08-12_18h21.53.239,torte-2b,2020.1.3,MacIntel,60,13376,,,,,,,,,,,,,0,10,10,10,1,7,,,,,,,,,,,,,,,,,,,,,,,,,,,,,,,,,,,,,,,,,,,,,,,
,,,,,,,,,,,,,,,,,,,,,,,,19,female ,2020-08-12_18h21.53.239,torte-2b,2020.1.3,MacIntel,60,13376,,,,,,,,,,,,,0,11,11,11,1,7,,,,,,,,,,,,,,,,,,,,,,,,,,,,,,,,,,,,,,,,,,,,,,,
,,,,,,,,,,,,,,,,,,,,,,,,19,female ,2020-08-12_18h21.53.239,torte-2b,2020.1.3,MacIntel,60,13376,,,,,,,,,,,,,0,12,12,12,1,7,,,,,,,,,,,,,,,,,,,,,,,,,,,,,,,,,,,,,,,,,,,,,,,
,,,,,,,,,,,,,,,,,,,,,,,,19,female ,2020-08-12_18h21.53.239,torte-2b,2020.1.3,MacIntel,60,13376,,,,,,,,,,,,space,0,13,13,13,1,4,0.712,,,,,,,,,,,,,,,,,,,,,,,,,,,,,,,,,,,,,,,,,,,,,,
,,,,,,,,,,,,,,,,,,,,,,,,19,female ,2020-08-12_18h21.53.239,torte-2b,2020.1.3,MacIntel,60,13376,,,,,,,,,,,,,0,14,14,14,1,6,,,,,,,,,,,,,,,,,,,,,,,,,,,,,,,,,,,,,,,,,,,,,,,
,,,,,,,,,,,,,,,,,,,,,,,,19,female ,2020-08-12_18h21.53.239,torte-2b,2020.1.3,MacIntel,60,13376,,,,,,,,,,,,space,0,15,15,15,1,4,0.68,,,,,,,,,,,,,,,,,,,,,,,,,,,,,,,,,,,,,,,,,,,,,,
,,,,,,,,,,,,,,,,,,,,,,,,19,female ,2020-08-12_18h21.53.239,torte-2b,2020.1.3,MacIntel,60,13376,,,,,,,,,,,,,0,16,16,16,1,6,,,,,,,,,,,,,,,,,,,,,,,,,,,,,,,,,,,,,,,,,,,,,,,
,,,,,,,,,,,,,,,,,,,,,,,,19,female ,2020-08-12_18h21.53.239,torte-2b,2020.1.3,MacIntel,60,13376,,,,,,,,,,,,space,0,17,17,17,1,7,0.861,,,,,,,,,,,,,,,,,,,,,,,,,,,,,,,,,,,,,,,,,,,,,,
,,,,,,,,,,,,,,,,,,,,,,,,19,female ,2020-08-12_18h21.53.239,torte-2b,2020.1.3,MacIntel,60,13376,,,,,,,,,,,,space,0,18,18,18,1,6,0.603,,,,,,,,,,,,,,,,,,,,,,,,,,,,,,,,,,,,,,,,,,,,,,
,,,,,,,,,,,,,,,,,,,,,,,,19,female ,2020-08-12_18h21.53.239,torte-2b,2020.1.3,MacIntel,60,13376,,,,,,,,,,,,,0,19,19,19,1,7,,,,,,,,,,,,,,,,,,,,,,,,,,,,,,,,,,,,,,,,,,,,,,,
,,,,,,,,,,,,,,,,,,,,,,,,19,female ,2020-08-12_18h21.53.239,torte-2b,2020.1.3,MacIntel,60,13376,,,,,,,,,,,,,0,20,20,20,1,5,,,,,,,,,,,,,,,,,,,,,,,,,,,,,,,,,,,,,,,,,,,,,,,
,,,,,,,,,,,,,,,,,,,,,,,,19,female ,2020-08-12_18h21.53.239,torte-2b,2020.1.3,MacIntel,60,13376,,,,,,,,,,,,,0,21,21,21,1,1,,,,,,,,,,,,,,,,,,,,,,,,,,,,,,,,,,,,,,,,,,,,,,,
,,,,,,,,,,,,,,,,,,,,,,,,19,female ,2020-08-12_18h21.53.239,torte-2b,2020.1.3,MacIntel,60,13376,,,,,,,,,,,,space,0,22,22,22,1,6,0.912,,,,,,,,,,,,,,,,,,,,,,,,,,,,,,,,,,,,,,,,,,,,,,
,,,,,,,,,,,,,,,,,,,,,,,,19,female ,2020-08-12_18h21.53.239,torte-2b,2020.1.3,MacIntel,60,13376,,,,,,,,,,,,space,0,23,23,23,1,1,0.528,,,,,,,,,,,,,,,,,,,,,,,,,,,,,,,,,,,,,,,,,,,,,,
,,,,,,,,,,,,,,,,,,,,,,,,19,female ,2020-08-12_18h21.53.239,torte-2b,2020.1.3,MacIntel,60,13376,,,,,,,,,,,,space,0,24,24,24,1,5,0.528,,,,,,,,,,,,,,,,,,,,,,,,,,,,,,,,,,,,,,,,,,,,,,
,,,,,,,,,,,,,,,,,,,,,,,,19,female ,2020-08-12_18h21.53.239,torte-2b,2020.1.3,MacIntel,60,13376,,,,,,,,,,,,,0,25,25,25,1,6,,,,,,,,,,,,,,,,,,,,,,,,,,,,,,,,,,,,,,,,,,,,,,,
,,,,,,,,,,,,,,,,,,,,,,,,19,female ,2020-08-12_18h21.53.239,torte-2b,2020.1.3,MacIntel,60,13376,,,,,,,,,,,,space,0,26,26,26,1,6,0.604,,,,,,,,,,,,,,,,,,,,,,,,,,,,,,,,,,,,,,,,,,,,,,
,,,,,,,,,,,,,,,,,,,,,,,,19,female ,2020-08-12_18h21.53.239,torte-2b,2020.1.3,MacIntel,60,13376,,,,,,,,,,,,space,0,27,27,27,1,6,0.895,,,,,,,,,,,,,,,,,,,,,,,,,,,,,,,,,,,,,,,,,,,,,,
,,,,,,,,,,,,,,,,,,,,,,,,19,female ,2020-08-12_18h21.53.239,torte-2b,2020.1.3,MacIntel,60,13376,,,,,,,,,,,,,0,28,28,28,1,5,,,,,,,,,,,,,,,,,,,,,,,,,,,,,,,,,,,,,,,,,,,,,,,
,,,,,,,,,,,,,,,,,,,,,,,,19,female ,2020-08-12_18h21.53.239,torte-2b,2020.1.3,MacIntel,60,13376,,,,,,,,,,,,,0,29,29,29,1,2,,,,,,,,,,,,,,,,,,,,,,,,,,,,,,,,,,,,,,,,,,,,,,,
,,,,,,,,,,,,,,,,,,,,,,,,19,female ,2020-08-12_18h21.53.239,torte-2b,2020.1.3,MacIntel,60,13376,,,,,,,,,,,,space,0,30,30,30,1,5,1.321,,,,,,,,,,,,,,,,,,,,,,,,,,,,,,,,,,,,,,,,,,,,,,
,,,,,,,,,,,,,,,,,,,,,,,,19,female ,2020-08-12_18h21.53.239,torte-2b,2020.1.3,MacIntel,60,13376,,,,,,,,,,,,space,0,31,31,31,1,2,0.321,,,,,,,,,,,,,,,,,,,,,,,,,,,,,,,,,,,,,,,,,,,,,,
,,,,,,,,,,,,,,,,,,,,,,,,19,female ,2020-08-12_18h21.53.239,torte-2b,2020.1.3,MacIntel,60,13376,,,,,,,,,,,,,0,32,32,32,1,5,,,,,,,,,,,,,,,,,,,,,,,,,,,,,,,,,,,,,,,,,,,,,,,
,,,,,,,,,,,,,,,,,,,,,,,,19,female ,2020-08-12_18h21.53.239,torte-2b,2020.1.3,MacIntel,60,13376,,,,,,,,,,,,space,0,33,33,33,1,1,0.512,,,,,,,,,,,,,,,,,,,,,,,,,,,,,,,,,,,,,,,,,,,,,,
,,,,,,,,,,,,,,,,,,,,,,,,19,female ,2020-08-12_18h21.53.239,torte-2b,2020.1.3,MacIntel,60,13376,,,,,,,,,,,,space,0,34,34,34,1,1,0.584,,,,,,,,,,,,,,,,,,,,,,,,,,,,,,,,,,,,,,,,,,,,,,
,,,,,,,,,,,,,,,,,,,,,,,,19,female ,2020-08-12_18h21.53.239,torte-2b,2020.1.3,MacIntel,60,13376,,,,,,,,,,,,,,,,,,2,,0,0,0,0,1,,,,,,,,,,,,,,,,,,,,,,,,,,,,,,,,,,,,,,,,,
,,,,,,,,,,,,,,,,,,,,,,,,19,female ,2020-08-12_18h21.53.239,torte-2b,2020.1.3,MacIntel,60,13376,,,,,,,,,,,,,,,,,,2,,0,1,1,1,1,,,,,,,,,,,,,,,,,,,,,,,,,,,,,,,,,,,,,,,,,
,,,,,,,,,,,,,,,,,,,,,,,,19,female ,2020-08-12_18h21.53.239,torte-2b,2020.1.3,MacIntel,60,13376,,,,,,,,,,,,,,,,,,6,,0,2,2,2,1,,,,,,,,,,,,,,,,,,,,,,,,,,,,,,,,,,,,,,,,,
,,,,,,,,,,,,,,,,,,,,,,,,19,female ,2020-08-12_18h21.53.239,torte-2b,2020.1.3,MacIntel,60,13376,,,,,,,,,,,,space,,,,,,2,0.463,0,3,3,3,1,,,,,,,,,,,,,,,,,,,,,,,,,,,,,,,,,,,,,,,,,
,,,,,,,,,,,,,,,,,,,,,,,,19,female ,2020-08-12_18h21.53.239,torte-2b,2020.1.3,MacIntel,60,13376,,,,,,,,,,,,space,,,,,,6,1.067,0,4,4,4,1,,,,,,,,,,,,,,,,,,,,,,,,,,,,,,,,,,,,,,,,,
,,,,,,,,,,,,,,,,,,,,,,,,19,female ,2020-08-12_18h21.53.239,torte-2b,2020.1.3,MacIntel,60,13376,,,,,,,,,,,,,,,,,,2,,0,5,5,5,1,,,,,,,,,,,,,,,,,,,,,,,,,,,,,,,,,,,,,,,,,
,,,,,,,,,,,,,,,,,,,,,,,,19,female ,2020-08-12_18h21.53.239,torte-2b,2020.1.3,MacIntel,60,13376,,,,,,,,,,,,space,,,,,,7,0.771,0,6,6,6,1,,,,,,,,,,,,,,,,,,,,,,,,,,,,,,,,,,,,,,,,,
,,,,,,,,,,,,,,,,,,,,,,,,19,female ,2020-08-12_18h21.53.239,torte-2b,2020.1.3,MacIntel,60,13376,,,,,,,,,,,,space,,,,,,2,0.856,0,7,7,7,1,,,,,,,,,,,,,,,,,,,,,,,,,,,,,,,,,,,,,,,,,
,,,,,,,,,,,,,,,,,,,,,,,,19,female ,2020-08-12_18h21.53.239,torte-2b,2020.1.3,MacIntel,60,13376,,,,,,,,,,,,space,,,,,,7,0.562,0,8,8,8,1,,,,,,,,,,,,,,,,,,,,,,,,,,,,,,,,,,,,,,,,,
,,,,,,,,,,,,,,,,,,,,,,,,19,female ,2020-08-12_18h21.53.239,torte-2b,2020.1.3,MacIntel,60,13376,,,,,,,,,,,,,,,,,,2,,0,9,9,9,1,,,,,,,,,,,,,,,,,,,,,,,,,,,,,,,,,,,,,,,,,
,,,,,,,,,,,,,,,,,,,,,,,,19,female ,2020-08-12_18h21.53.239,torte-2b,2020.1.3,MacIntel,60,13376,,,,,,,,,,,,,,,,,,5,,0,10,10,10,1,,,,,,,,,,,,,,,,,,,,,,,,,,,,,,,,,,,,,,,,,
,,,,,,,,,,,,,,,,,,,,,,,,19,female ,2020-08-12_18h21.53.239,torte-2b,2020.1.3,MacIntel,60,13376,,,,,,,,,,,,,,,,,,4,,0,11,11,11,1,,,,,,,,,,,,,,,,,,,,,,,,,,,,,,,,,,,,,,,,,
,,,,,,,,,,,,,,,,,,,,,,,,19,female ,2020-08-12_18h21.53.239,torte-2b,2020.1.3,MacIntel,60,13376,,,,,,,,,,,,space,,,,,,5,0.297,0,12,12,12,1,,,,,,,,,,,,,,,,,,,,,,,,,,,,,,,,,,,,,,,,,
,,,,,,,,,,,,,,,,,,,,,,,,19,female ,2020-08-12_18h21.53.239,torte-2b,2020.1.3,MacIntel,60,13376,,,,,,,,,,,,space,,,,,,6,0.612,0,13,13,13,1,,,,,,,,,,,,,,,,,,,,,,,,,,,,,,,,,,,,,,,,,
,,,,,,,,,,,,,,,,,,,,,,,,19,female ,2020-08-12_18h21.53.239,torte-2b,2020.1.3,MacIntel,60,13376,,,,,,,,,,,,,,,,,,5,,0,14,14,14,1,,,,,,,,,,,,,,,,,,,,,,,,,,,,,,,,,,,,,,,,,
,,,,,,,,,,,,,,,,,,,,,,,,19,female ,2020-08-12_18h21.53.239,torte-2b,2020.1.3,MacIntel,60,13376,,,,,,,,,,,,space,,,,,,4,0.246,0,15,15,15,1,,,,,,,,,,,,,,,,,,,,,,,,,,,,,,,,,,,,,,,,,
,,,,,,,,,,,,,,,,,,,,,,,,19,female ,2020-08-12_18h21.53.239,torte-2b,2020.1.3,MacIntel,60,13376,,,,,,,,,,,,space,,,,,,5,1.408,0,16,16,16,1,,,,,,,,,,,,,,,,,,,,,,,,,,,,,,,,,,,,,,,,,
,,,,,,,,,,,,,,,,,,,,,,,,19,female ,2020-08-12_18h21.53.239,torte-2b,2020.1.3,MacIntel,60,13376,,,,,,,,,,,,,,,,,,3,,0,17,17,17,1,,,,,,,,,,,,,,,,,,,,,,,,,,,,,,,,,,,,,,,,,
,,,,,,,,,,,,,,,,,,,,,,,,19,female ,2020-08-12_18h21.53.239,torte-2b,2020.1.3,MacIntel,60,13376,,,,,,,,,,,,space,,,,,,6,0.797,0,18,18,18,1,,,,,,,,,,,,,,,,,,,,,,,,,,,,,,,,,,,,,,,,,
,,,,,,,,,,,,,,,,,,,,,,,,19,female ,2020-08-12_18h21.53.239,torte-2b,2020.1.3,MacIntel,60,13376,,,,,,,,,,,,,,,,,,6,,0,19,19,19,1,,,,,,,,,,,,,,,,,,,,,,,,,,,,,,,,,,,,,,,,,
,,,,,,,,,,,,,,,,,,,,,,,,19,female ,2020-08-12_18h21.53.239,torte-2b,2020.1.3,MacIntel,60,13376,,,,,,,,,,,,space,,,,,,6,0.566,0,20,20,20,1,,,,,,,,,,,,,,,,,,,,,,,,,,,,,,,,,,,,,,,,,
,,,,,,,,,,,,,,,,,,,,,,,,19,female ,2020-08-12_18h21.53.239,torte-2b,2020.1.3,MacIntel,60,13376,,,,,,,,,,,,,,,,,,4,,0,21,21,21,1,,,,,,,,,,,,,,,,,,,,,,,,,,,,,,,,,,,,,,,,,
,,,,,,,,,,,,,,,,,,,,,,,,19,female ,2020-08-12_18h21.53.239,torte-2b,2020.1.3,MacIntel,60,13376,,,,,,,,,,,,space,,,,,,6,0.53,0,22,22,22,1,,,,,,,,,,,,,,,,,,,,,,,,,,,,,,,,,,,,,,,,,
,,,,,,,,,,,,,,,,,,,,,,,,19,female ,2020-08-12_18h21.53.239,torte-2b,2020.1.3,MacIntel,60,13376,,,,,,,,,,,,space,,,,,,4,0.803,0,23,23,23,1,,,,,,,,,,,,,,,,,,,,,,,,,,,,,,,,,,,,,,,,,
,,,,,,,,,,,,,,,,,,,,,,,,19,female ,2020-08-12_18h21.53.239,torte-2b,2020.1.3,MacIntel,60,13376,,,,,,,,,,,,,,,,,,6,,0,24,24,24,1,,,,,,,,,,,,,,,,,,,,,,,,,,,,,,,,,,,,,,,,,
,,,,,,,,,,,,,,,,,,,,,,,,19,female ,2020-08-12_18h21.53.239,torte-2b,2020.1.3,MacIntel,60,13376,,,,,,,,,,,,space,,,,,,6,0.577,0,25,25,25,1,,,,,,,,,,,,,,,,,,,,,,,,,,,,,,,,,,,,,,,,,
,,,,,,,,,,,,,,,,,,,,,,,,19,female ,2020-08-12_18h21.53.239,torte-2b,2020.1.3,MacIntel,60,13376,,,,,,,,,,,,,,,,,,7,,0,26,26,26,1,,,,,,,,,,,,,,,,,,,,,,,,,,,,,,,,,,,,,,,,,
,,,,,,,,,,,,,,,,,,,,,,,,19,female ,2020-08-12_18h21.53.239,torte-2b,2020.1.3,MacIntel,60,13376,,,,,,,,,,,,,,,,,,1,,0,27,27,27,1,,,,,,,,,,,,,,,,,,,,,,,,,,,,,,,,,,,,,,,,,
,,,,,,,,,,,,,,,,,,,,,,,,19,female ,2020-08-12_18h21.53.239,torte-2b,2020.1.3,MacIntel,60,13376,,,,,,,,,,,,space,,,,,,7,0.345,0,28,28,28,1,,,,,,,,,,,,,,,,,,,,,,,,,,,,,,,,,,,,,,,,,
,,,,,,,,,,,,,,,,,,,,,,,,19,female ,2020-08-12_18h21.53.239,torte-2b,2020.1.3,MacIntel,60,13376,,,,,,,,,,,,space,,,,,,4,0.93,0,29,29,29,1,,,,,,,,,,,,,,,,,,,,,,,,,,,,,,,,,,,,,,,,,
,,,,,,,,,,,,,,,,,,,,,,,,19,female ,2020-08-12_18h21.53.239,torte-2b,2020.1.3,MacIntel,60,13376,,,,,,,,,,,,,,,,,,7,,0,30,30,30,1,,,,,,,,,,,,,,,,,,,,,,,,,,,,,,,,,,,,,,,,,
,,,,,,,,,,,,,,,,,,,,,,,,19,female ,2020-08-12_18h21.53.239,torte-2b,2020.1.3,MacIntel,60,13376,,,,,,,,,,,,,,,,,,3,,0,31,31,31,1,,,,,,,,,,,,,,,,,,,,,,,,,,,,,,,,,,,,,,,,,
,,,,,,,,,,,,,,,,,,,,,,,,19,female ,2020-08-12_18h21.53.239,torte-2b,2020.1.3,MacIntel,60,13376,,,,,,,,,,,,,,,,,,2,,0,32,32,32,1,,,,,,,,,,,,,,,,,,,,,,,,,,,,,,,,,,,,,,,,,
,,,,,,,,,,,,,,,,,,,,,,,,19,female ,2020-08-12_18h21.53.239,torte-2b,2020.1.3,MacIntel,60,13376,,,,,,,,,,,,,,,,,,6,,0,33,33,33,1,,,,,,,,,,,,,,,,,,,,,,,,,,,,,,,,,,,,,,,,,
,,,,,,,,,,,,,,,,,,,,,,,,19,female ,2020-08-12_18h21.53.239,torte-2b,2020.1.3,MacIntel,60,13376,,,,,,,,,,,,space,,,,,,3,0.412,0,34,34,34,1,,,,,,,,,,,,,,,,,,,,,,,,,,,,,,,,,,,,,,,,,
,,,,,,,,,,,,,,,,,,,,,,,,19,female ,2020-08-12_18h21.53.239,torte-2b,2020.1.3,MacIntel,60,13376,,,,,,,,,,,,,,,,,,7,,,,,,,0,0,0,0,1,,,,,,,,,,,,,,,,,,,,,,,,,,,,,,,,,,,,
,,,,,,,,,,,,,,,,,,,,,,,,19,female ,2020-08-12_18h21.53.239,torte-2b,2020.1.3,MacIntel,60,13376,,,,,,,,,,,,,,,,,,5,,,,,,,0,1,1,1,1,,,,,,,,,,,,,,,,,,,,,,,,,,,,,,,,,,,,
,,,,,,,,,,,,,,,,,,,,,,,,19,female ,2020-08-12_18h21.53.239,torte-2b,2020.1.3,MacIntel,60,13376,,,,,,,,,,,,,,,,,,4,,,,,,,0,2,2,2,1,,,,,,,,,,,,,,,,,,,,,,,,,,,,,,,,,,,,
,,,,,,,,,,,,,,,,,,,,,,,,19,female ,2020-08-12_18h21.53.239,torte-2b,2020.1.3,MacIntel,60,13376,,,,,,,,,,,,space,,,,,,5,0.415,,,,,,0,3,3,3,1,,,,,,,,,,,,,,,,,,,,,,,,,,,,,,,,,,,,
,,,,,,,,,,,,,,,,,,,,,,,,19,female ,2020-08-12_18h21.53.239,torte-2b,2020.1.3,MacIntel,60,13376,,,,,,,,,,,,,,,,,,6,,,,,,,0,4,4,4,1,,,,,,,,,,,,,,,,,,,,,,,,,,,,,,,,,,,,
,,,,,,,,,,,,,,,,,,,,,,,,19,female ,2020-08-12_18h21.53.239,torte-2b,2020.1.3,MacIntel,60,13376,,,,,,,,,,,,space,,,,,,5,0.363,,,,,,0,5,5,5,1,,,,,,,,,,,,,,,,,,,,,,,,,,,,,,,,,,,,
,,,,,,,,,,,,,,,,,,,,,,,,19,female ,2020-08-12_18h21.53.239,torte-2b,2020.1.3,MacIntel,60,13376,,,,,,,,,,,,,,,,,,3,,,,,,,0,6,6,6,1,,,,,,,,,,,,,,,,,,,,,,,,,,,,,,,,,,,,
,,,,,,,,,,,,,,,,,,,,,,,,19,female ,2020-08-12_18h21.53.239,torte-2b,2020.1.3,MacIntel,60,13376,,,,,,,,,,,,,,,,,,4,,,,,,,0,7,7,7,1,,,,,,,,,,,,,,,,,,,,,,,,,,,,,,,,,,,,
,,,,,,,,,,,,,,,,,,,,,,,,19,female ,2020-08-12_18h21.53.239,torte-2b,2020.1.3,MacIntel,60,13376,,,,,,,,,,,,space,,,,,,3,0.337,,,,,,0,8,8,8,1,,,,,,,,,,,,,,,,,,,,,,,,,,,,,,,,,,,,
,,,,,,,,,,,,,,,,,,,,,,,,19,female ,2020-08-12_18h21.53.239,torte-2b,2020.1.3,MacIntel,60,13376,,,,,,,,,,,,,,,,,,1,,,,,,,0,9,9,9,1,,,,,,,,,,,,,,,,,,,,,,,,,,,,,,,,,,,,
,,,,,,,,,,,,,,,,,,,,,,,,19,female ,2020-08-12_18h21.53.239,torte-2b,2020.1.3,MacIntel,60,13376,,,,,,,,,,,,,,,,,,2,,,,,,,0,10,10,10,1,,,,,,,,,,,,,,,,,,,,,,,,,,,,,,,,,,,,
,,,,,,,,,,,,,,,,,,,,,,,,19,female ,2020-08-12_18h21.53.239,torte-2b,2020.1.3,MacIntel,60,13376,,,,,,,,,,,,space,,,,,,1,0.455,,,,,,0,11,11,11,1,,,,,,,,,,,,,,,,,,,,,,,,,,,,,,,,,,,,
,,,,,,,,,,,,,,,,,,,,,,,,19,female ,2020-08-12_18h21.53.239,torte-2b,2020.1.3,MacIntel,60,13376,,,,,,,,,,,,space,,,,,,2,0.52,,,,,,0,12,12,12,1,,,,,,,,,,,,,,,,,,,,,,,,,,,,,,,,,,,,
,,,,,,,,,,,,,,,,,,,,,,,,19,female ,2020-08-12_18h21.53.239,torte-2b,2020.1.3,MacIntel,60,13376,,,,,,,,,,,,,,,,,,1,,,,,,,0,13,13,13,1,,,,,,,,,,,,,,,,,,,,,,,,,,,,,,,,,,,,
,,,,,,,,,,,,,,,,,,,,,,,,19,female ,2020-08-12_18h21.53.239,torte-2b,2020.1.3,MacIntel,60,13376,,,,,,,,,,,,space,,,,,,3,0.646,,,,,,0,14,14,14,1,,,,,,,,,,,,,,,,,,,,,,,,,,,,,,,,,,,,
,,,,,,,,,,,,,,,,,,,,,,,,19,female ,2020-08-12_18h21.53.239,torte-2b,2020.1.3,MacIntel,60,13376,,,,,,,,,,,,,,,,,,1,,,,,,,0,15,15,15,1,,,,,,,,,,,,,,,,,,,,,,,,,,,,,,,,,,,,
,,,,,,,,,,,,,,,,,,,,,,,,19,female ,2020-08-12_18h21.53.239,torte-2b,2020.1.3,MacIntel,60,13376,,,,,,,,,,,,,,,,,,7,,,,,,,0,16,16,16,1,,,,,,,,,,,,,,,,,,,,,,,,,,,,,,,,,,,,
,,,,,,,,,,,,,,,,,,,,,,,,19,female ,2020-08-12_18h21.53.239,torte-2b,2020.1.3,MacIntel,60,13376,,,,,,,,,,,,space,,,,,,7,0.417,,,,,,0,17,17,17,1,,,,,,,,,,,,,,,,,,,,,,,,,,,,,,,,,,,,
,,,,,,,,,,,,,,,,,,,,,,,,19,female ,2020-08-12_18h21.53.239,torte-2b,2020.1.3,MacIntel,60,13376,,,,,,,,,,,,,,,,,,4,,,,,,,0,18,18,18,1,,,,,,,,,,,,,,,,,,,,,,,,,,,,,,,,,,,,
,,,,,,,,,,,,,,,,,,,,,,,,19,female ,2020-08-12_18h21.53.239,torte-2b,2020.1.3,MacIntel,60,13376,,,,,,,,,,,,space,,,,,,7,0.502,,,,,,0,19,19,19,1,,,,,,,,,,,,,,,,,,,,,,,,,,,,,,,,,,,,
,,,,,,,,,,,,,,,,,,,,,,,,19,female ,2020-08-12_18h21.53.239,torte-2b,2020.1.3,MacIntel,60,13376,,,,,,,,,,,,space,,,,,,3,0.645,,,,,,0,20,20,20,1,,,,,,,,,,,,,,,,,,,,,,,,,,,,,,,,,,,,
,,,,,,,,,,,,,,,,,,,,,,,,19,female ,2020-08-12_18h21.53.239,torte-2b,2020.1.3,MacIntel,60,13376,,,,,,,,,,,,,,,,,,7,,,,,,,0,21,21,21,1,,,,,,,,,,,,,,,,,,,,,,,,,,,,,,,,,,,,
,,,,,,,,,,,,,,,,,,,,,,,,19,female ,2020-08-12_18h21.53.239,torte-2b,2020.1.3,MacIntel,60,13376,,,,,,,,,,,,space,,,,,,3,0.264,,,,,,0,22,22,22,1,,,,,,,,,,,,,,,,,,,,,,,,,,,,,,,,,,,,
,,,,,,,,,,,,,,,,,,,,,,,,19,female ,2020-08-12_18h21.53.239,torte-2b,2020.1.3,MacIntel,60,13376,,,,,,,,,,,,space,,,,,,1,0.354,,,,,,0,23,23,23,1,,,,,,,,,,,,,,,,,,,,,,,,,,,,,,,,,,,,
,,,,,,,,,,,,,,,,,,,,,,,,19,female ,2020-08-12_18h21.53.239,torte-2b,2020.1.3,MacIntel,60,13376,,,,,,,,,,,,,,,,,,6,,,,,,,0,24,24,24,1,,,,,,,,,,,,,,,,,,,,,,,,,,,,,,,,,,,,
,,,,,,,,,,,,,,,,,,,,,,,,19,female ,2020-08-12_18h21.53.239,torte-2b,2020.1.3,MacIntel,60,13376,,,,,,,,,,,,space,,,,,,3,0.649,,,,,,0,25,25,25,1,,,,,,,,,,,,,,,,,,,,,,,,,,,,,,,,,,,,
,,,,,,,,,,,,,,,,,,,,,,,,19,female ,2020-08-12_18h21.53.239,torte-2b,2020.1.3,MacIntel,60,13376,,,,,,,,,,,,,,,,,,2,,,,,,,0,26,26,26,1,,,,,,,,,,,,,,,,,,,,,,,,,,,,,,,,,,,,
,,,,,,,,,,,,,,,,,,,,,,,,19,female ,2020-08-12_18h21.53.239,torte-2b,2020.1.3,MacIntel,60,13376,,,,,,,,,,,,space,,,,,,3,0.367,,,,,,0,27,27,27,1,,,,,,,,,,,,,,,,,,,,,,,,,,,,,,,,,,,,
,,,,,,,,,,,,,,,,,,,,,,,,19,female ,2020-08-12_18h21.53.239,torte-2b,2020.1.3,MacIntel,60,13376,,,,,,,,,,,,,,,,,,1,,,,,,,0,28,28,28,1,,,,,,,,,,,,,,,,,,,,,,,,,,,,,,,,,,,,
,,,,,,,,,,,,,,,,,,,,,,,,19,female ,2020-08-12_18h21.53.239,torte-2b,2020.1.3,MacIntel,60,13376,,,,,,,,,,,,space,,,,,,3,0.305,,,,,,0,29,29,29,1,,,,,,,,,,,,,,,,,,,,,,,,,,,,,,,,,,,,
,,,,,,,,,,,,,,,,,,,,,,,,19,female ,2020-08-12_18h21.53.239,torte-2b,2020.1.3,MacIntel,60,13376,,,,,,,,,,,,,,,,,,1,,,,,,,0,30,30,30,1,,,,,,,,,,,,,,,,,,,,,,,,,,,,,,,,,,,,
,,,,,,,,,,,,,,,,,,,,,,,,19,female ,2020-08-12_18h21.53.239,torte-2b,2020.1.3,MacIntel,60,13376,,,,,,,,,,,,,,,,,,7,,,,,,,0,31,31,31,1,,,,,,,,,,,,,,,,,,,,,,,,,,,,,,,,,,,,
,,,,,,,,,,,,,,,,,,,,,,,,19,female ,2020-08-12_18h21.53.239,torte-2b,2020.1.3,MacIntel,60,13376,,,,,,,,,,,,,,,,,,5,,,,,,,0,32,32,32,1,,,,,,,,,,,,,,,,,,,,,,,,,,,,,,,,,,,,
,,,,,,,,,,,,,,,,,,,,,,,,19,female ,2020-08-12_18h21.53.239,torte-2b,2020.1.3,MacIntel,60,13376,,,,,,,,,,,,,,,,,,7,,,,,,,0,33,33,33,1,,,,,,,,,,,,,,,,,,,,,,,,,,,,,,,,,,,,
,,,,,,,,,,,,,,,,,,,,,,,,19,female ,2020-08-12_18h21.53.239,torte-2b,2020.1.3,MacIntel,60,13376,,,,,,,,,,,,,,,,,,2,,,,,,,0,34,34,34,1,,,,,,,,,,,,,,,,,,,,,,,,,,,,,,,,,,,,
,,,,,,,,,,,,,,,,,,,,,,,,19,female ,2020-08-12_18h21.53.239,torte-2b,2020.1.3,MacIntel,60,13376,,,,,,,,,,,,,,,,,,3,,,,,,,,,,,,0,0,0,0,1,,,,,,,,,,,,,,,,,,,,,,,,,,,,,,,
,,,,,,,,,,,,,,,,,,,,,,,,19,female ,2020-08-12_18h21.53.239,torte-2b,2020.1.3,MacIntel,60,13376,,,,,,,,,,,,,,,,,,7,,,,,,,,,,,,0,1,1,1,1,,,,,,,,,,,,,,,,,,,,,,,,,,,,,,,
,,,,,,,,,,,,,,,,,,,,,,,,19,female ,2020-08-12_18h21.53.239,torte-2b,2020.1.3,MacIntel,60,13376,,,,,,,,,,,,,,,,,,7,,,,,,,,,,,,0,2,2,2,1,,,,,,,,,,,,,,,,,,,,,,,,,,,,,,,
,,,,,,,,,,,,,,,,,,,,,,,,19,female ,2020-08-12_18h21.53.239,torte-2b,2020.1.3,MacIntel,60,13376,,,,,,,,,,,,,,,,,,4,,,,,,,,,,,,0,3,3,3,1,,,,,,,,,,,,,,,,,,,,,,,,,,,,,,,
,,,,,,,,,,,,,,,,,,,,,,,,19,female ,2020-08-12_18h21.53.239,torte-2b,2020.1.3,MacIntel,60,13376,,,,,,,,,,,,,,,,,,5,,,,,,,,,,,,0,4,4,4,1,,,,,,,,,,,,,,,,,,,,,,,,,,,,,,,
,,,,,,,,,,,,,,,,,,,,,,,,19,female ,2020-08-12_18h21.53.239,torte-2b,2020.1.3,MacIntel,60,13376,,,,,,,,,,,,space,,,,,,4,0.433,,,,,,,,,,,0,5,5,5,1,,,,,,,,,,,,,,,,,,,,,,,,,,,,,,,
,,,,,,,,,,,,,,,,,,,,,,,,19,female ,2020-08-12_18h21.53.239,torte-2b,2020.1.3,MacIntel,60,13376,,,,,,,,,,,,,,,,,,2,,,,,,,,,,,,0,6,6,6,1,,,,,,,,,,,,,,,,,,,,,,,,,,,,,,,
,,,,,,,,,,,,,,,,,,,,,,,,19,female ,2020-08-12_18h21.53.239,torte-2b,2020.1.3,MacIntel,60,13376,,,,,,,,,,,,space,,,,,,4,0.436,,,,,,,,,,,0,7,7,7,1,,,,,,,,,,,,,,,,,,,,,,,,,,,,,,,
,,,,,,,,,,,,,,,,,,,,,,,,19,female ,2020-08-12_18h21.53.239,torte-2b,2020.1.3,MacIntel,60,13376,,,,,,,,,,,,space,,,,,,2,0.479,,,,,,,,,,,0,8,8,8,1,,,,,,,,,,,,,,,,,,,,,,,,,,,,,,,
,,,,,,,,,,,,,,,,,,,,,,,,19,female ,2020-08-12_18h21.53.239,torte-2b,2020.1.3,MacIntel,60,13376,,,,,,,,,,,,,,,,,,2,,,,,,,,,,,,0,9,9,9,1,,,,,,,,,,,,,,,,,,,,,,,,,,,,,,,
,,,,,,,,,,,,,,,,,,,,,,,,19,female ,2020-08-12_18h21.53.239,torte-2b,2020.1.3,MacIntel,60,13376,,,,,,,,,,,,,,,,,,6,,,,,,,,,,,,0,10,10,10,1,,,,,,,,,,,,,,,,,,,,,,,,,,,,,,,
,,,,,,,,,,,,,,,,,,,,,,,,19,female ,2020-08-12_18h21.53.239,torte-2b,2020.1.3,MacIntel,60,13376,,,,,,,,,,,,space,,,,,,2,0.733,,,,,,,,,,,0,11,11,11,1,,,,,,,,,,,,,,,,,,,,,,,,,,,,,,,
,,,,,,,,,,,,,,,,,,,,,,,,19,female ,2020-08-12_18h21.53.239,torte-2b,2020.1.3,MacIntel,60,13376,,,,,,,,,,,,,,,,,,2,,,,,,,,,,,,0,12,12,12,1,,,,,,,,,,,,,,,,,,,,,,,,,,,,,,,
,,,,,,,,,,,,,,,,,,,,,,,,19,female ,2020-08-12_18h21.53.239,torte-2b,2020.1.3,MacIntel,60,13376,,,,,,,,,,,,space,,,,,,2,0.612,,,,,,,,,,,0,13,13,13,1,,,,,,,,,,,,,,,,,,,,,,,,,,,,,,,
,,,,,,,,,,,,,,,,,,,,,,,,19,female ,2020-08-12_18h21.53.239,torte-2b,2020.1.3,MacIntel,60,13376,,,,,,,,,,,,,,,,,,2,,,,,,,,,,,,0,14,14,14,1,,,,,,,,,,,,,,,,,,,,,,,,,,,,,,,
,,,,,,,,,,,,,,,,,,,,,,,,19,female ,2020-08-12_18h21.53.239,torte-2b,2020.1.3,MacIntel,60,13376,,,,,,,,,,,,space,,,,,,4,0.494,,,,,,,,,,,0,15,15,15,1,,,,,,,,,,,,,,,,,,,,,,,,,,,,,,,
,,,,,,,,,,,,,,,,,,,,,,,,19,female ,2020-08-12_18h21.53.239,torte-2b,2020.1.3,MacIntel,60,13376,,,,,,,,,,,,space,,,,,,3,1.133,,,,,,,,,,,0,16,16,16,1,,,,,,,,,,,,,,,,,,,,,,,,,,,,,,,
,,,,,,,,,,,,,,,,,,,,,,,,19,female ,2020-08-12_18h21.53.239,torte-2b,2020.1.3,MacIntel,60,13376,,,,,,,,,,,,,,,,,,7,,,,,,,,,,,,0,17,17,17,1,,,,,,,,,,,,,,,,,,,,,,,,,,,,,,,
,,,,,,,,,,,,,,,,,,,,,,,,19,female ,2020-08-12_18h21.53.239,torte-2b,2020.1.3,MacIntel,60,13376,,,,,,,,,,,,,,,,,,4,,,,,,,,,,,,0,18,18,18,1,,,,,,,,,,,,,,,,,,,,,,,,,,,,,,,
,,,,,,,,,,,,,,,,,,,,,,,,19,female ,2020-08-12_18h21.53.239,torte-2b,2020.1.3,MacIntel,60,13376,,,,,,,,,,,,space,,,,,,7,0.337,,,,,,,,,,,0,19,19,19,1,,,,,,,,,,,,,,,,,,,,,,,,,,,,,,,
,,,,,,,,,,,,,,,,,,,,,,,,19,female ,2020-08-12_18h21.53.239,torte-2b,2020.1.3,MacIntel,60,13376,,,,,,,,,,,,,,,,,,7,,,,,,,,,,,,0,20,20,20,1,,,,,,,,,,,,,,,,,,,,,,,,,,,,,,,
,,,,,,,,,,,,,,,,,,,,,,,,19,female ,2020-08-12_18h21.53.239,torte-2b,2020.1.3,MacIntel,60,13376,,,,,,,,,,,,space,,,,,,7,0.583,,,,,,,,,,,0,21,21,21,1,,,,,,,,,,,,,,,,,,,,,,,,,,,,,,,
,,,,,,,,,,,,,,,,,,,,,,,,19,female ,2020-08-12_18h21.53.239,torte-2b,2020.1.3,MacIntel,60,13376,,,,,,,,,,,,,,,,,,7,,,,,,,,,,,,0,22,22,22,1,,,,,,,,,,,,,,,,,,,,,,,,,,,,,,,
,,,,,,,,,,,,,,,,,,,,,,,,19,female ,2020-08-12_18h21.53.239,torte-2b,2020.1.3,MacIntel,60,13376,,,,,,,,,,,,,,,,,,1,,,,,,,,,,,,0,23,23,23,1,,,,,,,,,,,,,,,,,,,,,,,,,,,,,,,
,,,,,,,,,,,,,,,,,,,,,,,,19,female ,2020-08-12_18h21.53.239,torte-2b,2020.1.3,MacIntel,60,13376,,,,,,,,,,,,space,,,,,,7,0.518,,,,,,,,,,,0,24,24,24,1,,,,,,,,,,,,,,,,,,,,,,,,,,,,,,,
,,,,,,,,,,,,,,,,,,,,,,,,19,female ,2020-08-12_18h21.53.239,torte-2b,2020.1.3,MacIntel,60,13376,,,,,,,,,,,,space,,,,,,1,0.851,,,,,,,,,,,0,25,25,25,1,,,,,,,,,,,,,,,,,,,,,,,,,,,,,,,
,,,,,,,,,,,,,,,,,,,,,,,,19,female ,2020-08-12_18h21.53.239,torte-2b,2020.1.3,MacIntel,60,13376,,,,,,,,,,,,,,,,,,7,,,,,,,,,,,,0,26,26,26,1,,,,,,,,,,,,,,,,,,,,,,,,,,,,,,,
,,,,,,,,,,,,,,,,,,,,,,,,19,female ,2020-08-12_18h21.53.239,torte-2b,2020.1.3,MacIntel,60,13376,,,,,,,,,,,,space,,,,,,2,0.546,,,,,,,,,,,0,27,27,27,1,,,,,,,,,,,,,,,,,,,,,,,,,,,,,,,
,,,,,,,,,,,,,,,,,,,,,,,,19,female ,2020-08-12_18h21.53.239,torte-2b,2020.1.3,MacIntel,60,13376,,,,,,,,,,,,,,,,,,5,,,,,,,,,,,,0,28,28,28,1,,,,,,,,,,,,,,,,,,,,,,,,,,,,,,,
,,,,,,,,,,,,,,,,,,,,,,,,19,female ,2020-08-12_18h21.53.239,torte-2b,2020.1.3,MacIntel,60,13376,,,,,,,,,,,,,,,,,,5,,,,,,,,,,,,0,29,29,29,1,,,,,,,,,,,,,,,,,,,,,,,,,,,,,,,
,,,,,,,,,,,,,,,,,,,,,,,,19,female ,2020-08-12_18h21.53.239,torte-2b,2020.1.3,MacIntel,60,13376,,,,,,,,,,,,space,,,,,,5,0.352,,,,,,,,,,,0,30,30,30,1,,,,,,,,,,,,,,,,,,,,,,,,,,,,,,,
,,,,,,,,,,,,,,,,,,,,,,,,19,female ,2020-08-12_18h21.53.239,torte-2b,2020.1.3,MacIntel,60,13376,,,,,,,,,,,,space,,,,,,1,1.338,,,,,,,,,,,0,31,31,31,1,,,,,,,,,,,,,,,,,,,,,,,,,,,,,,,
,,,,,,,,,,,,,,,,,,,,,,,,19,female ,2020-08-12_18h21.53.239,torte-2b,2020.1.3,MacIntel,60,13376,,,,,,,,,,,,space,,,,,,5,1.761,,,,,,,,,,,0,32,32,32,1,,,,,,,,,,,,,,,,,,,,,,,,,,,,,,,
,,,,,,,,,,,,,,,,,,,,,,,,19,female ,2020-08-12_18h21.53.239,torte-2b,2020.1.3,MacIntel,60,13376,,,,,,,,,,,,,,,,,,3,,,,,,,,,,,,0,33,33,33,1,,,,,,,,,,,,,,,,,,,,,,,,,,,,,,,
,,,,,,,,,,,,,,,,,,,,,,,,19,female ,2020-08-12_18h21.53.239,torte-2b,2020.1.3,MacIntel,60,13376,,,,,,,,,,,,,,,,,,3,,,,,,,,,,,,0,34,34,34,1,,,,,,,,,,,,,,,,,,,,,,,,,,,,,,,
,,,,,,,,,,,,a,0.966,Incorrect,,,,,,t4.png,t1.png,3,0.0000131,19,female ,2020-08-12_18h21.53.239,torte-2b,2020.1.3,MacIntel,60,13376,space,3.011,,,,,,,,,,,,,,,,,,,,,,,,,,,,,,,,,space,29.647,0,0,0,91,1,,,,,,,,,,,,,,,,,,,,,,,,
,,,,,,,,,,,,l,0.817,Incorrect,,,,,,t3.png,t4.png,1,0.90855,19,female ,2020-08-12_18h21.53.239,torte-2b,2020.1.3,MacIntel,60,13376,,,,,,,,,,,,,,,,,,,,,,,,,,,,,,,,,,,,,0,1,1,111,1,,,,,,,,,,,,,,,,,,,,,,,,
,,,,,,,,,,,,l,0.678,Correct!,,,,,,t3.png,t5.png,2,0.056466,19,female ,2020-08-12_18h21.53.239,torte-2b,2020.1.3,MacIntel,60,13376,,,,,,,,,,,,,,,,,,,,,,,,,,,,,,,,,,,,,0,2,2,47,1,,,,,,,,,,,,,,,,,,,,,,,,
,,,,,,,,,,,,a,0.434,Incorrect,,,,,,t5.png,t2.png,3,0.0000131,19,female ,2020-08-12_18h21.53.239,torte-2b,2020.1.3,MacIntel,60,13376,,,,,,,,,,,,,,,,,,,,,,,,,,,,,,,,,,,,,0,3,3,48,1,,,,,,,,,,,,,,,,,,,,,,,,
,,,,,,,,,,,,a,0.499,Incorrect,,,,,,t2.png,t1.png,1,0.90025,19,female ,2020-08-12_18h21.53.239,torte-2b,2020.1.3,MacIntel,60,13376,,,,,,,,,,,,,,,,,,,,,,,,,,,,,,,,,,,,,0,4,4,65,1,,,,,,,,,,,,,,,,,,,,,,,,
,,,,,,,,,,,,a,0.535,Incorrect,,,,,,t3.png,t1.png,2,0.056466,19,female ,2020-08-12_18h21.53.239,torte-2b,2020.1.3,MacIntel,60,13376,,,,,,,,,,,,,,,,,,,,,,,,,,,,,,,,,,,,,0,5,5,109,1,,,,,,,,,,,,,,,,,,,,,,,,
,,,,,,,,,,,,a,0.71,Incorrect,,,,,,t4.png,t1.png,3,0.059078,19,female ,2020-08-12_18h21.53.239,torte-2b,2020.1.3,MacIntel,60,13376,,,,,,,,,,,,,,,,,,,,,,,,,,,,,,,,,,,,,0,6,6,73,1,,,,,,,,,,,,,,,,,,,,,,,,
,,,,,,,,,,,,l,0.757,Incorrect,,,,,,t4.png,t5.png,1,0.90025,19,female ,2020-08-12_18h21.53.239,torte-2b,2020.1.3,MacIntel,60,13376,,,,,,,,,,,,,,,,,,,,,,,,,,,,,,,,,,,,,0,7,7,86,1,,,,,,,,,,,,,,,,,,,,,,,,
,,,,,,,,,,,,l,1.309,Incorrect,,,,,,t5.png,t5.png,0,0.97829,19,female ,2020-08-12_18h21.53.239,torte-2b,2020.1.3,MacIntel,60,13376,,,,,,,,,,,,,,,,,,,,,,,,,,,,,,,,,,,,,0,8,8,35,1,,,,,,,,,,,,,,,,,,,,,,,,
,,,,,,,,,,,,a,0.964,Correct!,,,,,,t1.png,t2.png,1,0.9,19,female ,2020-08-12_18h21.53.239,torte-2b,2020.1.3,MacIntel,60,13376,,,,,,,,,,,,,,,,,,,,,,,,,,,,,,,,,,,,,0,9,9,61,1,,,,,,,,,,,,,,,,,,,,,,,,
,,,,,,,,,,,,l,0.885,Correct!,,,,,,t1.png,t4.png,3,0.0000131,19,female ,2020-08-12_18h21.53.239,torte-2b,2020.1.3,MacIntel,60,13376,,,,,,,,,,,,,,,,,,,,,,,,,,,,,,,,,,,,,0,10,10,74,1,,,,,,,,,,,,,,,,,,,,,,,,
,,,,,,,,,,,,l,0.619,Correct!,,,,,,t1.png,t3.png,2,0.056466,19,female ,2020-08-12_18h21.53.239,torte-2b,2020.1.3,MacIntel,60,13376,,,,,,,,,,,,,,,,,,,,,,,,,,,,,,,,,,,,,0,11,11,24,1,,,,,,,,,,,,,,,,,,,,,,,,
,,,,,,,,,,,,l,0.584,Correct!,,,,,,t2.png,t3.png,1,0.90855,19,female ,2020-08-12_18h21.53.239,torte-2b,2020.1.3,MacIntel,60,13376,,,,,,,,,,,,,,,,,,,,,,,,,,,,,,,,,,,,,0,12,12,64,1,,,,,,,,,,,,,,,,,,,,,,,,
,,,,,,,,,,,,a,0.506,Correct!,,,,,,t3.png,t2.png,1,0.90855,19,female ,2020-08-12_18h21.53.239,torte-2b,2020.1.3,MacIntel,60,13376,,,,,,,,,,,,,,,,,,,,,,,,,,,,,,,,,,,,,0,13,13,99,1,,,,,,,,,,,,,,,,,,,,,,,,
,,,,,,,,,,,,l,0.55,Correct!,,,,,,t2.png,t4.png,2,0.059078,19,female ,2020-08-12_18h21.53.239,torte-2b,2020.1.3,MacIntel,60,13376,,,,,,,,,,,,,,,,,,,,,,,,,,,,,,,,,,,,,0,14,14,53,1,,,,,,,,,,,,,,,,,,,,,,,,
,,,,,,,,,,,,a,0.488,Correct!,,,,,,t5.png,t5.png,0,0.978,19,female ,2020-08-12_18h21.53.239,torte-2b,2020.1.3,MacIntel,60,13376,,,,,,,,,,,,,,,,,,,,,,,,,,,,,,,,,,,,,0,15,15,51,1,,,,,,,,,,,,,,,,,,,,,,,,
,,,,,,,,,,,,a,0.334,Incorrect,,,,,,t4.png,t1.png,3,0.0000131,19,female ,2020-08-12_18h21.53.239,torte-2b,2020.1.3,MacIntel,60,13376,,,,,,,,,,,,,,,,,,,,,,,,,,,,,,,,,,,,,0,16,16,76,1,,,,,,,,,,,,,,,,,,,,,,,,
,,,,,,,,,,,,l,0.805,Incorrect,,,,,,t1.png,t1.png,0,0.97829,19,female ,2020-08-12_18h21.53.239,torte-2b,2020.1.3,MacIntel,60,13376,,,,,,,,,,,,,,,,,,,,,,,,,,,,,,,,,,,,,0,17,17,110,1,,,,,,,,,,,,,,,,,,,,,,,,
,,,,,,,,,,,,l,0.482,Incorrect,,,,,,t2.png,t3.png,1,0.90855,19,female ,2020-08-12_18h21.53.239,torte-2b,2020.1.3,MacIntel,60,13376,,,,,,,,,,,,,,,,,,,,,,,,,,,,,,,,,,,,,0,18,18,113,1,,,,,,,,,,,,,,,,,,,,,,,,
,,,,,,,,,,,,l,0.702,Correct!,,,,,,t2.png,t4.png,2,0.059078,19,female ,2020-08-12_18h21.53.239,torte-2b,2020.1.3,MacIntel,60,13376,,,,,,,,,,,,,,,,,,,,,,,,,,,,,,,,,,,,,0,19,19,18,1,,,,,,,,,,,,,,,,,,,,,,,,
,,,,,,,,,,,,a,0.339,Incorrect,,,,,,t5.png,t1.png,4,9.55E-11,19,female ,2020-08-12_18h21.53.239,torte-2b,2020.1.3,MacIntel,60,13376,,,,,,,,,,,,,,,,,,,,,,,,,,,,,,,,,,,,,0,20,20,89,1,,,,,,,,,,,,,,,,,,,,,,,,
,,,,,,,,,,,,l,0.421,Incorrect,,,,,,t4.png,t5.png,1,0.90025,19,female ,2020-08-12_18h21.53.239,torte-2b,2020.1.3,MacIntel,60,13376,,,,,,,,,,,,,,,,,,,,,,,,,,,,,,,,,,,,,0,21,21,63,1,,,,,,,,,,,,,,,,,,,,,,,,
,,,,,,,,,,,,l,0.623,Correct!,,,,,,t2.png,t4.png,2,0.059078,19,female ,2020-08-12_18h21.53.239,torte-2b,2020.1.3,MacIntel,60,13376,,,,,,,,,,,,,,,,,,,,,,,,,,,,,,,,,,,,,0,22,22,67,1,,,,,,,,,,,,,,,,,,,,,,,,
,,,,,,,,,,,,a,0.331,Incorrect,,,,,,t3.png,t1.png,2,0.0565,19,female ,2020-08-12_18h21.53.239,torte-2b,2020.1.3,MacIntel,60,13376,,,,,,,,,,,,,,,,,,,,,,,,,,,,,,,,,,,,,0,23,23,104,1,,,,,,,,,,,,,,,,,,,,,,,,
,,,,,,,,,,,,l,0.374,Correct!,,,,,,t1.png,t4.png,3,0.0000131,19,female ,2020-08-12_18h21.53.239,torte-2b,2020.1.3,MacIntel,60,13376,,,,,,,,,,,,,,,,,,,,,,,,,,,,,,,,,,,,,0,24,24,16,1,,,,,,,,,,,,,,,,,,,,,,,,
,,,,,,,,,,,,l,0.449,Correct!,,,,,,t2.png,t5.png,3,0.0000131,19,female ,2020-08-12_18h21.53.239,torte-2b,2020.1.3,MacIntel,60,13376,,,,,,,,,,,,,,,,,,,,,,,,,,,,,,,,,,,,,0,25,25,39,1,,,,,,,,,,,,,,,,,,,,,,,,
,,,,,,,,,,,,a,0.672,Incorrect,,,,,,t2.png,t5.png,3,0.0000131,19,female ,2020-08-12_18h21.53.239,torte-2b,2020.1.3,MacIntel,60,13376,,,,,,,,,,,,,,,,,,,,,,,,,,,,,,,,,,,,,0,26,26,115,1,,,,,,,,,,,,,,,,,,,,,,,,
,,,,,,,,,,,,l,0.403,Incorrect,,,,,,t1.png,t1.png,0,0.97829,19,female ,2020-08-12_18h21.53.239,torte-2b,2020.1.3,MacIntel,60,13376,,,,,,,,,,,,,,,,,,,,,,,,,,,,,,,,,,,,,0,27,27,114,1,,,,,,,,,,,,,,,,,,,,,,,,
,,,,,,,,,,,,l,0.306,Incorrect,,,,,,t1.png,t1.png,0,0.978,19,female ,2020-08-12_18h21.53.239,torte-2b,2020.1.3,MacIntel,60,13376,,,,,,,,,,,,,,,,,,,,,,,,,,,,,,,,,,,,,0,28,28,13,1,,,,,,,,,,,,,,,,,,,,,,,,
,,,,,,,,,,,,a,0.289,Correct!,,,,,,t2.png,t2.png,0,0.98115,19,female ,2020-08-12_18h21.53.239,torte-2b,2020.1.3,MacIntel,60,13376,,,,,,,,,,,,,,,,,,,,,,,,,,,,,,,,,,,,,0,29,29,69,1,,,,,,,,,,,,,,,,,,,,,,,,
,,,,,,,,,,,,l,0.22,Incorrect,,,,,,t4.png,t3.png,1,0.909,19,female ,2020-08-12_18h21.53.239,torte-2b,2020.1.3,MacIntel,60,13376,,,,,,,,,,,,,,,,,,,,,,,,,,,,,,,,,,,,,0,30,30,107,1,,,,,,,,,,,,,,,,,,,,,,,,
,,,,,,,,,,,,l,0.188,Incorrect,,,,,,t5.png,t4.png,1,0.90025,19,female ,2020-08-12_18h21.53.239,torte-2b,2020.1.3,MacIntel,60,13376,,,,,,,,,,,,,,,,,,,,,,,,,,,,,,,,,,,,,0,31,31,38,1,,,,,,,,,,,,,,,,,,,,,,,,
,,,,,,,,,,,,l,1.055,Incorrect,,,,,,t5.png,t4.png,1,0.90025,19,female ,2020-08-12_18h21.53.239,torte-2b,2020.1.3,MacIntel,60,13376,,,,,,,,,,,,,,,,,,,,,,,,,,,,,,,,,,,,,0,32,32,25,1,,,,,,,,,,,,,,,,,,,,,,,,
,,,,,,,,,,,,a,0.299,Incorrect,,,,,,t5.png,t1.png,4,9.55E-11,19,female ,2020-08-12_18h21.53.239,torte-2b,2020.1.3,MacIntel,60,13376,,,,,,,,,,,,,,,,,,,,,,,,,,,,,,,,,,,,,0,33,33,117,1,,,,,,,,,,,,,,,,,,,,,,,,
,,,,,,,,,,,,l,0.484,Correct!,,,,,,t1.png,t2.png,1,0.90025,19,female ,2020-08-12_18h21.53.239,torte-2b,2020.1.3,MacIntel,60,13376,,,,,,,,,,,,,,,,,,,,,,,,,,,,,,,,,,,,,0,34,34,96,1,,,,,,,,,,,,,,,,,,,,,,,,
,,,,,,,,,,,,l,0.472,Correct!,,,,,,t1.png,t3.png,2,0.0565,19,female ,2020-08-12_18h21.53.239,torte-2b,2020.1.3,MacIntel,60,13376,,,,,,,,,,,,,,,,,,,,,,,,,,,,,,,,,,,,,0,35,35,12,1,,,,,,,,,,,,,,,,,,,,,,,,
,,,,,,,,,,,,a,1.332,Correct!,,,,,,t1.png,t1.png,0,0.978,19,female ,2020-08-12_18h21.53.239,torte-2b,2020.1.3,MacIntel,60,13376,,,,,,,,,,,,,,,,,,,,,,,,,,,,,,,,,,,,,0,36,36,22,1,,,,,,,,,,,,,,,,,,,,,,,,
,,,,,,,,,,,,l,0.954,Correct!,,,,,,t1.png,t5.png,4,9.55E-11,19,female ,2020-08-12_18h21.53.239,torte-2b,2020.1.3,MacIntel,60,13376,,,,,,,,,,,,,,,,,,,,,,,,,,,,,,,,,,,,,0,37,37,3,1,,,,,,,,,,,,,,,,,,,,,,,,
,,,,,,,,,,,,a,0.414,Incorrect,,,,,,t5.png,t2.png,3,0.0000131,19,female ,2020-08-12_18h21.53.239,torte-2b,2020.1.3,MacIntel,60,13376,,,,,,,,,,,,,,,,,,,,,,,,,,,,,,,,,,,,,0,38,38,43,1,,,,,,,,,,,,,,,,,,,,,,,,
,,,,,,,,,,,,a,0.614,Incorrect,,,,,,t3.png,t1.png,2,0.0565,19,female ,2020-08-12_18h21.53.239,torte-2b,2020.1.3,MacIntel,60,13376,,,,,,,,,,,,,,,,,,,,,,,,,,,,,,,,,,,,,0,39,39,40,1,,,,,,,,,,,,,,,,,,,,,,,,
,,,,,,,,,,,,l,0.782,Correct!,,,,,,t5.png,t3.png,2,0.056466,19,female ,2020-08-12_18h21.53.239,torte-2b,2020.1.3,MacIntel,60,13376,,,,,,,,,,,,,,,,,,,,,,,,,,,,,,,,,,,,,0,40,40,26,1,,,,,,,,,,,,,,,,,,,,,,,,
,,,,,,,,,,,,a,0.5,Incorrect,,,,,,t4.png,t4.png,0,0.98115,19,female ,2020-08-12_18h21.53.239,torte-2b,2020.1.3,MacIntel,60,13376,,,,,,,,,,,,,,,,,,,,,,,,,,,,,,,,,,,,,0,41,41,68,1,,,,,,,,,,,,,,,,,,,,,,,,
,,,,,,,,,,,,l,0.973,Correct!,,,,,,t4.png,t1.png,3,0.059078,19,female ,2020-08-12_18h21.53.239,torte-2b,2020.1.3,MacIntel,60,13376,,,,,,,,,,,,,,,,,,,,,,,,,,,,,,,,,,,,,0,42,42,57,1,,,,,,,,,,,,,,,,,,,,,,,,
,,,,,,,,,,,,l,0.399,Correct!,,,,,,t4.png,t3.png,1,0.90855,19,female ,2020-08-12_18h21.53.239,torte-2b,2020.1.3,MacIntel,60,13376,,,,,,,,,,,,,,,,,,,,,,,,,,,,,,,,,,,,,0,43,43,29,1,,,,,,,,,,,,,,,,,,,,,,,,
,,,,,,,,,,,,a,0.421,Incorrect,,,,,,t5.png,t2.png,3,0.0000131,19,female ,2020-08-12_18h21.53.239,torte-2b,2020.1.3,MacIntel,60,13376,,,,,,,,,,,,,,,,,,,,,,,,,,,,,,,,,,,,,0,44,44,82,1,,,,,,,,,,,,,,,,,,,,,,,,
,,,,,,,,,,,,l,0.354,Correct!,,,,,,t1.png,t4.png,3,0.0000131,19,female ,2020-08-12_18h21.53.239,torte-2b,2020.1.3,MacIntel,60,13376,,,,,,,,,,,,,,,,,,,,,,,,,,,,,,,,,,,,,0,45,45,36,1,,,,,,,,,,,,,,,,,,,,,,,,
,,,,,,,,,,,,a,0.365,Incorrect,,,,,,t2.png,t4.png,2,0.059078,19,female ,2020-08-12_18h21.53.239,torte-2b,2020.1.3,MacIntel,60,13376,,,,,,,,,,,,,,,,,,,,,,,,,,,,,,,,,,,,,0,46,46,97,1,,,,,,,,,,,,,,,,,,,,,,,,
,,,,,,,,,,,,a,0.301,Correct!,,,,,,t5.png,t5.png,0,0.978,19,female ,2020-08-12_18h21.53.239,torte-2b,2020.1.3,MacIntel,60,13376,,,,,,,,,,,,,,,,,,,,,,,,,,,,,,,,,,,,,0,47,47,116,1,,,,,,,,,,,,,,,,,,,,,,,,
,,,,,,,,,,,,l,0.365,Incorrect,,,,,,t4.png,t4.png,0,0.98115,19,female ,2020-08-12_18h21.53.239,torte-2b,2020.1.3,MacIntel,60,13376,,,,,,,,,,,,,,,,,,,,,,,,,,,,,,,,,,,,,0,48,48,59,1,,,,,,,,,,,,,,,,,,,,,,,,
,,,,,,,,,,,,a,0.1,Correct!,,,,,,t4.png,t4.png,0,0.98115,19,female ,2020-08-12_18h21.53.239,torte-2b,2020.1.3,MacIntel,60,13376,,,,,,,,,,,,,,,,,,,,,,,,,,,,,,,,,,,,,0,49,49,19,1,,,,,,,,,,,,,,,,,,,,,,,,
,,,,,,,,,,,,l,0.32,Incorrect,,,,,,t1.png,t2.png,1,0.9,19,female ,2020-08-12_18h21.53.239,torte-2b,2020.1.3,MacIntel,60,13376,,,,,,,,,,,,,,,,,,,,,,,,,,,,,,,,,,,,,0,50,50,41,1,,,,,,,,,,,,,,,,,,,,,,,,
,,,,,,,,,,,,l,0.837,Correct!,,,,,,t5.png,t1.png,4,9.55E-11,19,female ,2020-08-12_18h21.53.239,torte-2b,2020.1.3,MacIntel,60,13376,,,,,,,,,,,,,,,,,,,,,,,,,,,,,,,,,,,,,0,51,51,101,1,,,,,,,,,,,,,,,,,,,,,,,,
,,,,,,,,,,,,l,0.897,Incorrect,,,,,,t3.png,t4.png,1,0.90855,19,female ,2020-08-12_18h21.53.239,torte-2b,2020.1.3,MacIntel,60,13376,,,,,,,,,,,,,,,,,,,,,,,,,,,,,,,,,,,,,0,52,52,9,1,,,,,,,,,,,,,,,,,,,,,,,,
,,,,,,,,,,,,l,0.533,Incorrect,,,,,,t4.png,t4.png,0,0.98115,19,female ,2020-08-12_18h21.53.239,torte-2b,2020.1.3,MacIntel,60,13376,,,,,,,,,,,,,,,,,,,,,,,,,,,,,,,,,,,,,0,53,53,52,1,,,,,,,,,,,,,,,,,,,,,,,,
,,,,,,,,,,,,a,0.317,Correct!,,,,,,t2.png,t1.png,1,0.9,19,female ,2020-08-12_18h21.53.239,torte-2b,2020.1.3,MacIntel,60,13376,,,,,,,,,,,,,,,,,,,,,,,,,,,,,,,,,,,,,0,54,54,100,1,,,,,,,,,,,,,,,,,,,,,,,,
,,,,,,,,,,,,l,0.29,Correct!,,,,,,t1.png,t4.png,3,0.0000131,19,female ,2020-08-12_18h21.53.239,torte-2b,2020.1.3,MacIntel,60,13376,,,,,,,,,,,,,,,,,,,,,,,,,,,,,,,,,,,,,0,55,55,23,1,,,,,,,,,,,,,,,,,,,,,,,,
,,,,,,,,,,,,l,0.336,Correct!,,,,,,t3.png,t1.png,2,0.056466,19,female ,2020-08-12_18h21.53.239,torte-2b,2020.1.3,MacIntel,60,13376,,,,,,,,,,,,,,,,,,,,,,,,,,,,,,,,,,,,,0,56,56,34,1,,,,,,,,,,,,,,,,,,,,,,,,
,,,,,,,,,,,,l,0.454,Correct!,,,,,,t1.png,t5.png,4,9.55E-11,19,female ,2020-08-12_18h21.53.239,torte-2b,2020.1.3,MacIntel,60,13376,,,,,,,,,,,,,,,,,,,,,,,,,,,,,,,,,,,,,0,57,57,30,1,,,,,,,,,,,,,,,,,,,,,,,,
,,,,,,,,,,,,a,0.304,Correct!,,,,,,t2.png,t3.png,1,0.90855,19,female ,2020-08-12_18h21.53.239,torte-2b,2020.1.3,MacIntel,60,13376,,,,,,,,,,,,,,,,,,,,,,,,,,,,,,,,,,,,,0,58,58,70,1,,,,,,,,,,,,,,,,,,,,,,,,
,,,,,,,,,,,,l,0.436,Incorrect,,,,,,t2.png,t1.png,1,0.9,19,female ,2020-08-12_18h21.53.239,torte-2b,2020.1.3,MacIntel,60,13376,,,,,,,,,,,,,,,,,,,,,,,,,,,,,,,,,,,,,0,59,59,93,1,,,,,,,,,,,,,,,,,,,,,,,,
,,,,,,,,,,,,a,0.32,Incorrect,,,,,,t4.png,t1.png,3,0.0000131,19,female ,2020-08-12_18h21.53.239,torte-2b,2020.1.3,MacIntel,60,13376,,,,,,,,,,,,,,,,,,,,,,,,,,,,,,,,,,,,,0,60,60,28,1,,,,,,,,,,,,,,,,,,,,,,,,
,,,,,,,,,,,,a,0.381,Correct!,,,,,,t5.png,t3.png,2,0.056466,19,female ,2020-08-12_18h21.53.239,torte-2b,2020.1.3,MacIntel,60,13376,,,,,,,,,,,,,,,,,,,,,,,,,,,,,,,,,,,,,0,61,61,27,1,,,,,,,,,,,,,,,,,,,,,,,,
,,,,,,,,,,,,l,0.435,Incorrect,,,,,,t2.png,t2.png,0,0.98115,19,female ,2020-08-12_18h21.53.239,torte-2b,2020.1.3,MacIntel,60,13376,,,,,,,,,,,,,,,,,,,,,,,,,,,,,,,,,,,,,0,62,62,112,1,,,,,,,,,,,,,,,,,,,,,,,,
,,,,,,,,,,,,a,0.42,Correct!,,,,,,t3.png,t2.png,1,0.90855,19,female ,2020-08-12_18h21.53.239,torte-2b,2020.1.3,MacIntel,60,13376,,,,,,,,,,,,,,,,,,,,,,,,,,,,,,,,,,,,,0,63,63,0,1,,,,,,,,,,,,,,,,,,,,,,,,
,,,,,,,,,,,,a,0.718,Correct!,,,,,,t5.png,t3.png,2,0.056466,19,female ,2020-08-12_18h21.53.239,torte-2b,2020.1.3,MacIntel,60,13376,,,,,,,,,,,,,,,,,,,,,,,,,,,,,,,,,,,,,0,64,64,37,1,,,,,,,,,,,,,,,,,,,,,,,,
,,,,,,,,,,,,l,0.615,Incorrect,,,,,,t4.png,t5.png,1,0.90025,19,female ,2020-08-12_18h21.53.239,torte-2b,2020.1.3,MacIntel,60,13376,,,,,,,,,,,,,,,,,,,,,,,,,,,,,,,,,,,,,0,65,65,21,1,,,,,,,,,,,,,,,,,,,,,,,,
,,,,,,,,,,,,a,0.67,Correct!,,,,,,t2.png,t2.png,0,0.981,19,female ,2020-08-12_18h21.53.239,torte-2b,2020.1.3,MacIntel,60,13376,,,,,,,,,,,,,,,,,,,,,,,,,,,,,,,,,,,,,0,66,66,98,1,,,,,,,,,,,,,,,,,,,,,,,,
,,,,,,,,,,,,l,0.52,Correct!,,,,,,t1.png,t3.png,2,0.056466,19,female ,2020-08-12_18h21.53.239,torte-2b,2020.1.3,MacIntel,60,13376,,,,,,,,,,,,,,,,,,,,,,,,,,,,,,,,,,,,,0,67,67,32,1,,,,,,,,,,,,,,,,,,,,,,,,
,,,,,,,,,,,,a,0.464,Incorrect,,,,,,t4.png,t1.png,3,0.059078,19,female ,2020-08-12_18h21.53.239,torte-2b,2020.1.3,MacIntel,60,13376,,,,,,,,,,,,,,,,,,,,,,,,,,,,,,,,,,,,,0,68,68,62,1,,,,,,,,,,,,,,,,,,,,,,,,
,,,,,,,,,,,,a,0.673,Correct!,,,,,,t4.png,t3.png,1,0.909,19,female ,2020-08-12_18h21.53.239,torte-2b,2020.1.3,MacIntel,60,13376,,,,,,,,,,,,,,,,,,,,,,,,,,,,,,,,,,,,,0,69,69,119,1,,,,,,,,,,,,,,,,,,,,,,,,
,,,,,,,,,,,,l,0.601,Incorrect,,,,,,t1.png,t1.png,0,0.97829,19,female ,2020-08-12_18h21.53.239,torte-2b,2020.1.3,MacIntel,60,13376,,,,,,,,,,,,,,,,,,,,,,,,,,,,,,,,,,,,,0,70,70,4,1,,,,,,,,,,,,,,,,,,,,,,,,
,,,,,,,,,,,,l,0.705,Incorrect,,,,,,t4.png,t4.png,0,0.98115,19,female ,2020-08-12_18h21.53.239,torte-2b,2020.1.3,MacIntel,60,13376,,,,,,,,,,,,,,,,,,,,,,,,,,,,,,,,,,,,,0,71,71,88,1,,,,,,,,,,,,,,,,,,,,,,,,
,,,,,,,,,,,,a,0.534,Correct!,,,,,,t2.png,t2.png,0,0.98115,19,female ,2020-08-12_18h21.53.239,torte-2b,2020.1.3,MacIntel,60,13376,,,,,,,,,,,,,,,,,,,,,,,,,,,,,,,,,,,,,0,72,72,7,1,,,,,,,,,,,,,,,,,,,,,,,,
,,,,,,,,,,,,l,0.515,Correct!,,,,,,t2.png,t5.png,3,0.0000131,19,female ,2020-08-12_18h21.53.239,torte-2b,2020.1.3,MacIntel,60,13376,,,,,,,,,,,,,,,,,,,,,,,,,,,,,,,,,,,,,0,73,73,54,1,,,,,,,,,,,,,,,,,,,,,,,,
,,,,,,,,,,,,l,0.61,Incorrect,,,,,,t4.png,t5.png,1,0.9,19,female ,2020-08-12_18h21.53.239,torte-2b,2020.1.3,MacIntel,60,13376,,,,,,,,,,,,,,,,,,,,,,,,,,,,,,,,,,,,,0,74,74,81,1,,,,,,,,,,,,,,,,,,,,,,,,
,,,,,,,,,,,,l,0.621,Correct!,,,,,,t3.png,t5.png,2,0.056466,19,female ,2020-08-12_18h21.53.239,torte-2b,2020.1.3,MacIntel,60,13376,,,,,,,,,,,,,,,,,,,,,,,,,,,,,,,,,,,,,0,75,75,78,1,,,,,,,,,,,,,,,,,,,,,,,,
,,,,,,,,,,,,a,0.438,Correct!,,,,,,t3.png,t2.png,1,0.90855,19,female ,2020-08-12_18h21.53.239,torte-2b,2020.1.3,MacIntel,60,13376,,,,,,,,,,,,,,,,,,,,,,,,,,,,,,,,,,,,,0,76,76,94,1,,,,,,,,,,,,,,,,,,,,,,,,
,,,,,,,,,,,,l,0.598,Incorrect,,,,,,t4.png,t3.png,1,0.90855,19,female ,2020-08-12_18h21.53.239,torte-2b,2020.1.3,MacIntel,60,13376,,,,,,,,,,,,,,,,,,,,,,,,,,,,,,,,,,,,,0,77,77,11,1,,,,,,,,,,,,,,,,,,,,,,,,
,,,,,,,,,,,,a,0.474,Incorrect,,,,,,t3.png,t1.png,2,0.056466,19,female ,2020-08-12_18h21.53.239,torte-2b,2020.1.3,MacIntel,60,13376,,,,,,,,,,,,,,,,,,,,,,,,,,,,,,,,,,,,,0,78,78,72,1,,,,,,,,,,,,,,,,,,,,,,,,
,,,,,,,,,,,,a,0.498,Correct!,,,,,,t5.png,t5.png,0,0.97829,19,female ,2020-08-12_18h21.53.239,torte-2b,2020.1.3,MacIntel,60,13376,,,,,,,,,,,,,,,,,,,,,,,,,,,,,,,,,,,,,0,79,79,2,1,,,,,,,,,,,,,,,,,,,,,,,,
,,,,,,,,,,,,a,0.954,Correct!,,,,,,t3.png,t4.png,1,0.90855,19,female ,2020-08-12_18h21.53.239,torte-2b,2020.1.3,MacIntel,60,13376,,,,,,,,,,,,,,,,,,,,,,,,,,,,,,,,,,,,,0,80,80,58,1,,,,,,,,,,,,,,,,,,,,,,,,
,,,,,,,,,,,,l,0.388,Incorrect,,,,,,t1.png,t3.png,2,0.0565,19,female ,2020-08-12_18h21.53.239,torte-2b,2020.1.3,MacIntel,60,13376,,,,,,,,,,,,,,,,,,,,,,,,,,,,,,,,,,,,,0,81,81,95,1,,,,,,,,,,,,,,,,,,,,,,,,
,,,,,,,,,,,,a,0.333,Correct!,,,,,,t3.png,t2.png,1,0.90855,19,female ,2020-08-12_18h21.53.239,torte-2b,2020.1.3,MacIntel,60,13376,,,,,,,,,,,,,,,,,,,,,,,,,,,,,,,,,,,,,0,82,82,108,1,,,,,,,,,,,,,,,,,,,,,,,,
,,,,,,,,,,,,l,0.35,Correct!,,,,,,t4.png,t1.png,3,0.059078,19,female ,2020-08-12_18h21.53.239,torte-2b,2020.1.3,MacIntel,60,13376,,,,,,,,,,,,,,,,,,,,,,,,,,,,,,,,,,,,,0,83,83,75,1,,,,,,,,,,,,,,,,,,,,,,,,
,,,,,,,,,,,,a,0.316,Correct!,,,,,,t5.png,t4.png,1,0.9,19,female ,2020-08-12_18h21.53.239,torte-2b,2020.1.3,MacIntel,60,13376,,,,,,,,,,,,,,,,,,,,,,,,,,,,,,,,,,,,,0,84,84,55,1,,,,,,,,,,,,,,,,,,,,,,,,
,,,,,,,,,,,,a,0.316,Incorrect,,,,,,t5.png,t2.png,3,0.0000131,19,female ,2020-08-12_18h21.53.239,torte-2b,2020.1.3,MacIntel,60,13376,,,,,,,,,,,,,,,,,,,,,,,,,,,,,,,,,,,,,0,85,85,83,1,,,,,,,,,,,,,,,,,,,,,,,,
,,,,,,,,,,,,l,0.398,Correct!,,,,,,t2.png,t5.png,3,0.0000131,19,female ,2020-08-12_18h21.53.239,torte-2b,2020.1.3,MacIntel,60,13376,,,,,,,,,,,,,,,,,,,,,,,,,,,,,,,,,,,,,0,86,86,85,1,,,,,,,,,,,,,,,,,,,,,,,,
,,,,,,,,,,,,a,0.356,Incorrect,,,,,,t5.png,t3.png,2,0.056466,19,female ,2020-08-12_18h21.53.239,torte-2b,2020.1.3,MacIntel,60,13376,,,,,,,,,,,,,,,,,,,,,,,,,,,,,,,,,,,,,0,87,87,80,1,,,,,,,,,,,,,,,,,,,,,,,,
,,,,,,,,,,,,a,0.332,Incorrect,,,,,,t1.png,t3.png,2,0.0565,19,female ,2020-08-12_18h21.53.239,torte-2b,2020.1.3,MacIntel,60,13376,,,,,,,,,,,,,,,,,,,,,,,,,,,,,,,,,,,,,0,88,88,42,1,,,,,,,,,,,,,,,,,,,,,,,,
,,,,,,,,,,,,l,0.404,Incorrect,,,,,,t2.png,t1.png,1,0.90025,19,female ,2020-08-12_18h21.53.239,torte-2b,2020.1.3,MacIntel,60,13376,,,,,,,,,,,,,,,,,,,,,,,,,,,,,,,,,,,,,0,89,89,105,1,,,,,,,,,,,,,,,,,,,,,,,,
,,,,,,,,,,,,a,0.987,Correct!,,,,,,t5.png,t4.png,1,0.9,19,female ,2020-08-12_18h21.53.239,torte-2b,2020.1.3,MacIntel,60,13376,,,,,,,,,,,,,,,,,,,,,,,,,,,,,,,,,,,,,0,90,90,92,1,,,,,,,,,,,,,,,,,,,,,,,,
,,,,,,,,,,,,l,1.334,Incorrect,,,,,,t1.png,t2.png,1,0.9,19,female ,2020-08-12_18h21.53.239,torte-2b,2020.1.3,MacIntel,60,13376,,,,,,,,,,,,,,,,,,,,,,,,,,,,,,,,,,,,,0,91,91,17,1,,,,,,,,,,,,,,,,,,,,,,,,
,,,,,,,,,,,,a,0.083,Incorrect,,,,,,t4.png,t1.png,3,0.0000131,19,female ,2020-08-12_18h21.53.239,torte-2b,2020.1.3,MacIntel,60,13376,,,,,,,,,,,,,,,,,,,,,,,,,,,,,,,,,,,,,0,92,92,102,1,,,,,,,,,,,,,,,,,,,,,,,,
,,,,,,,,,,,,,,Too slow :(,,,,,,t4.png,t5.png,1,0.90025,19,female ,2020-08-12_18h21.53.239,torte-2b,2020.1.3,MacIntel,60,13376,,,,,,,,,,,,,,,,,,,,,,,,,,,,,,,,,,,,,0,93,93,33,1,,,,,,,,,,,,,,,,,,,,,,,,
,,,,,,,,,,,,a,0.402,Incorrect,,,,,,t5.png,t3.png,2,0.0565,19,female ,2020-08-12_18h21.53.239,torte-2b,2020.1.3,MacIntel,60,13376,,,,,,,,,,,,,,,,,,,,,,,,,,,,,,,,,,,,,0,94,94,50,1,,,,,,,,,,,,,,,,,,,,,,,,
,,,,,,,,,,,,l,0.703,Correct!,,,,,,t5.png,t1.png,4,9.55E-11,19,female ,2020-08-12_18h21.53.239,torte-2b,2020.1.3,MacIntel,60,13376,,,,,,,,,,,,,,,,,,,,,,,,,,,,,,,,,,,,,0,95,95,31,1,,,,,,,,,,,,,,,,,,,,,,,,
,,,,,,,,,,,,l,0.265,Incorrect,,,,,,t2.png,t3.png,1,0.90855,19,female ,2020-08-12_18h21.53.239,torte-2b,2020.1.3,MacIntel,60,13376,,,,,,,,,,,,,,,,,,,,,,,,,,,,,,,,,,,,,0,96,96,79,1,,,,,,,,,,,,,,,,,,,,,,,,
,,,,,,,,,,,,l,0.022,Incorrect,,,,,,t5.png,t5.png,0,0.97829,19,female ,2020-08-12_18h21.53.239,torte-2b,2020.1.3,MacIntel,60,13376,,,,,,,,,,,,,,,,,,,,,,,,,,,,,,,,,,,,,0,97,97,77,1,,,,,,,,,,,,,,,,,,,,,,,,
,,,,,,,,,,,,l,0.288,Correct!,,,,,,t2.png,t4.png,2,0.059078,19,female ,2020-08-12_18h21.53.239,torte-2b,2020.1.3,MacIntel,60,13376,,,,,,,,,,,,,,,,,,,,,,,,,,,,,,,,,,,,,0,98,98,84,1,,,,,,,,,,,,,,,,,,,,,,,,
,,,,,,,,,,,,l,0.138,Incorrect,,,,,,t5.png,t4.png,1,0.90025,19,female ,2020-08-12_18h21.53.239,torte-2b,2020.1.3,MacIntel,60,13376,,,,,,,,,,,,,,,,,,,,,,,,,,,,,,,,,,,,,0,99,99,14,1,,,,,,,,,,,,,,,,,,,,,,,,
,,,,,,,,,,,,l,0.186,Incorrect,,,,,,t2.png,t3.png,1,0.909,19,female ,2020-08-12_18h21.53.239,torte-2b,2020.1.3,MacIntel,60,13376,,,,,,,,,,,,,,,,,,,,,,,,,,,,,,,,,,,,,0,100,100,8,1,,,,,,,,,,,,,,,,,,,,,,,,
,,,,,,,,,,,,l,0.363,Incorrect,,,,,,t3.png,t5.png,2,0.056466,19,female ,2020-08-12_18h21.53.239,torte-2b,2020.1.3,MacIntel,60,13376,,,,,,,,,,,,,,,,,,,,,,,,,,,,,,,,,,,,,0,101,101,60,1,,,,,,,,,,,,,,,,,,,,,,,,
,,,,,,,,,,,,l,0.64,Incorrect,,,,,,t2.png,t1.png,1,0.90025,19,female ,2020-08-12_18h21.53.239,torte-2b,2020.1.3,MacIntel,60,13376,,,,,,,,,,,,,,,,,,,,,,,,,,,,,,,,,,,,,0,102,102,44,1,,,,,,,,,,,,,,,,,,,,,,,,
,,,,,,,,,,,,l,0.821,Correct!,,,,,,t1.png,t5.png,4,9.55E-11,19,female ,2020-08-12_18h21.53.239,torte-2b,2020.1.3,MacIntel,60,13376,,,,,,,,,,,,,,,,,,,,,,,,,,,,,,,,,,,,,0,103,103,20,1,,,,,,,,,,,,,,,,,,,,,,,,
,,,,,,,,,,,,l,0.316,Correct!,,,,,,t4.png,t1.png,3,0.059078,19,female ,2020-08-12_18h21.53.239,torte-2b,2020.1.3,MacIntel,60,13376,,,,,,,,,,,,,,,,,,,,,,,,,,,,,,,,,,,,,0,104,104,87,1,,,,,,,,,,,,,,,,,,,,,,,,
,,,,,,,,,,,,a,0.342,Incorrect,,,,,,t3.png,t5.png,2,0.0565,19,female ,2020-08-12_18h21.53.239,torte-2b,2020.1.3,MacIntel,60,13376,,,,,,,,,,,,,,,,,,,,,,,,,,,,,,,,,,,,,0,105,105,71,1,,,,,,,,,,,,,,,,,,,,,,,,
,,,,,,,,,,,,l,0.798,Correct!,,,,,,t5.png,t2.png,3,0.0000131,19,female ,2020-08-12_18h21.53.239,torte-2b,2020.1.3,MacIntel,60,13376,,,,,,,,,,,,,,,,,,,,,,,,,,,,,,,,,,,,,0,106,106,66,1,,,,,,,,,,,,,,,,,,,,,,,,
,,,,,,,,,,,,l,0.774,Correct!,,,,,,t2.png,t5.png,3,0.0000131,19,female ,2020-08-12_18h21.53.239,torte-2b,2020.1.3,MacIntel,60,13376,,,,,,,,,,,,,,,,,,,,,,,,,,,,,,,,,,,,,0,107,107,46,1,,,,,,,,,,,,,,,,,,,,,,,,
,,,,,,,,,,,,a,0.314,Incorrect,,,,,,t4.png,t1.png,3,0.0000131,19,female ,2020-08-12_18h21.53.239,torte-2b,2020.1.3,MacIntel,60,13376,,,,,,,,,,,,,,,,,,,,,,,,,,,,,,,,,,,,,0,108,108,49,1,,,,,,,,,,,,,,,,,,,,,,,,
,,,,,,,,,,,,l,0.288,Correct!,,,,,,t1.png,t4.png,3,0.0000131,19,female ,2020-08-12_18h21.53.239,torte-2b,2020.1.3,MacIntel,60,13376,,,,,,,,,,,,,,,,,,,,,,,,,,,,,,,,,,,,,0,109,109,106,1,,,,,,,,,,,,,,,,,,,,,,,,
,,,,,,,,,,,,a,0.448,Incorrect,,,,,,t3.png,t5.png,2,0.056466,19,female ,2020-08-12_18h21.53.239,torte-2b,2020.1.3,MacIntel,60,13376,,,,,,,,,,,,,,,,,,,,,,,,,,,,,,,,,,,,,0,110,110,45,1,,,,,,,,,,,,,,,,,,,,,,,,
,,,,,,,,,,,,l,0.347,Incorrect,,,,,,t3.png,t4.png,1,0.90855,19,female ,2020-08-12_18h21.53.239,torte-2b,2020.1.3,MacIntel,60,13376,,,,,,,,,,,,,,,,,,,,,,,,,,,,,,,,,,,,,0,111,111,103,1,,,,,,,,,,,,,,,,,,,,,,,,
,,,,,,,,,,,,a,0.335,Correct!,,,,,,t4.png,t3.png,1,0.90855,19,female ,2020-08-12_18h21.53.239,torte-2b,2020.1.3,MacIntel,60,13376,,,,,,,,,,,,,,,,,,,,,,,,,,,,,,,,,,,,,0,112,112,56,1,,,,,,,,,,,,,,,,,,,,,,,,
,,,,,,,,,,,,l,0.353,Incorrect,,,,,,t2.png,t2.png,0,0.98115,19,female ,2020-08-12_18h21.53.239,torte-2b,2020.1.3,MacIntel,60,13376,,,,,,,,,,,,,,,,,,,,,,,,,,,,,,,,,,,,,0,113,113,90,1,,,,,,,,,,,,,,,,,,,,,,,,
,,,,,,,,,,,,a,0.489,Correct!,,,,,,t3.png,t4.png,1,0.90855,19,female ,2020-08-12_18h21.53.239,torte-2b,2020.1.3,MacIntel,60,13376,,,,,,,,,,,,,,,,,,,,,,,,,,,,,,,,,,,,,0,114,114,5,1,,,,,,,,,,,,,,,,,,,,,,,,
,,,,,,,,,,,,l,0.6,Correct!,,,,,,t1.png,t5.png,4,9.55E-11,19,female ,2020-08-12_18h21.53.239,torte-2b,2020.1.3,MacIntel,60,13376,,,,,,,,,,,,,,,,,,,,,,,,,,,,,,,,,,,,,0,115,115,1,1,,,,,,,,,,,,,,,,,,,,,,,,
,,,,,,,,,,,,l,0.519,Incorrect,,,,,,t1.png,t2.png,1,0.90025,19,female ,2020-08-12_18h21.53.239,torte-2b,2020.1.3,MacIntel,60,13376,,,,,,,,,,,,,,,,,,,,,,,,,,,,,,,,,,,,,0,116,116,6,1,,,,,,,,,,,,,,,,,,,,,,,,
,,,,,,,,,,,,a,0.323,Correct!,,,,,,t3.png,t2.png,1,0.90855,19,female ,2020-08-12_18h21.53.239,torte-2b,2020.1.3,MacIntel,60,13376,,,,,,,,,,,,,,,,,,,,,,,,,,,,,,,,,,,,,0,117,117,10,1,,,,,,,,,,,,,,,,,,,,,,,,
,,,,,,,,,,,,a,0.59,Incorrect,,,,,,t5.png,t1.png,4,9.55E-11,19,female ,2020-08-12_18h21.53.239,torte-2b,2020.1.3,MacIntel,60,13376,,,,,,,,,,,,,,,,,,,,,,,,,,,,,,,,,,,,,0,118,118,15,1,,,,,,,,,,,,,,,,,,,,,,,,
,,,,,,,,,,,,l,0.316,Correct!,,,,,,t1.png,t5.png,4,9.55E-11,19,female ,2020-08-12_18h21.53.239,torte-2b,2020.1.3,MacIntel,60,13376,,,,,,,,,,,,,,,,,,,,,,,,,,,,,,,,,,,,,0,119,119,118,1,,,,,,,,,,,,,,,,,,,,,,,,
,,,,,,,,,,,,,,,,,,,,,,,,19,female ,2020-08-12_18h21.53.239,torte-2b,2020.1.3,MacIntel,60,13376,space,1.232,,,,,,,,,,,,,,,,,,,,,,,,,,,,,,,,,,,,,,,,203,3,1,0,0,s4,190,35,1,0,0,t2,226,-93,1,0,0,proceed,space,0.902,space,0.344,space,0.648
