key_resp_8.keys,key_resp_8.rt,key_resp_9.keys,key_resp_9.rt,key_resp_10.keys,key_resp_10.rt,key_resp_11.keys,key_resp_11.rt,key_resp_2.keys,key_resp_2.rt,key_resp_3.keys,key_resp_3.rt,key_resp.keys,key_resp.rt,Feedback,train.thisRepN,train.thisTrialN,train.thisN,train.thisIndex,train.ran,torta_sx,torta_dx,difference,probability,age,gender,date,expName,psychopyVersion,OS,frameRate,participant,key_resp_15.keys,key_resp_15.rt,key_resp_6.keys,key_resp_6.rt,test1.thisRepN,test1.thisTrialN,test1.thisN,test1.thisIndex,test1.ran,key_resp_4.keys,key_resp_4.rt,key_resp_5.keys,back1.thisRepN,back1.thisTrialN,back1.thisN,back1.thisIndex,back1.ran,letter,back2.thisRepN,back2.thisTrialN,back2.thisN,back2.thisIndex,back2.ran,back3.thisRepN,back3.thisTrialN,back3.thisN,back3.thisIndex,back3.ran,back4.thisRepN,back4.thisTrialN,back4.thisN,back4.thisIndex,back4.ran,key_resp_7.keys,key_resp_7.rt,test2.thisRepN,test2.thisTrialN,test2.thisN,test2.thisIndex,test2.ran,mouse.x,mouse.y,mouse.leftButton,mouse.midButton,mouse.rightButton,mouse.clicked_name,mouse_2.x,mouse_2.y,mouse_2.leftButton,mouse_2.midButton,mouse_2.rightButton,mouse_2.clicked_name,mouse_3.x,mouse_3.y,mouse_3.leftButton,mouse_3.midButton,mouse_3.rightButton,mouse_3.clicked_name,key_resp_12.keys,key_resp_12.rt,key_resp_13.keys,key_resp_13.rt,key_resp_14.keys,key_resp_14.rt
space,1.354,space,0.758,space,8.133,space,39.393,space,25.736,space,43.738,a,2.288,Incorrect,0,0,0,12,1,t5.png,t1.png,4,9.55E-11,19,male,2020-09-16_16h58.16.961,torte-2b,2020.1.3,MacIntel,60,13384,,,,,,,,,,,,,,,,,,,,,,,,,,,,,,,,,,,,,,,,,,,,,,,,,,,,,,,,,,,,,,,,
,,,,,,,,,,,,a,1.273,Incorrect,0,1,1,30,1,t3.png,t1.png,2,0.056466,19,male,2020-09-16_16h58.16.961,torte-2b,2020.1.3,MacIntel,60,13384,,,,,,,,,,,,,,,,,,,,,,,,,,,,,,,,,,,,,,,,,,,,,,,,,,,,,,,,,,,,,,,,
,,,,,,,,,,,,l,1.271,Correct!,0,2,2,33,1,t5.png,t1.png,4,9.55E-11,19,male,2020-09-16_16h58.16.961,torte-2b,2020.1.3,MacIntel,60,13384,,,,,,,,,,,,,,,,,,,,,,,,,,,,,,,,,,,,,,,,,,,,,,,,,,,,,,,,,,,,,,,,
,,,,,,,,,,,,l,0.796,Correct!,0,3,3,27,1,t3.png,t1.png,2,0.0565,19,male,2020-09-16_16h58.16.961,torte-2b,2020.1.3,MacIntel,60,13384,,,,,,,,,,,,,,,,,,,,,,,,,,,,,,,,,,,,,,,,,,,,,,,,,,,,,,,,,,,,,,,,
,,,,,,,,,,,,l,1.817,Correct!,0,4,4,21,1,t5.png,t4.png,1,0.90025,19,male,2020-09-16_16h58.16.961,torte-2b,2020.1.3,MacIntel,60,13384,,,,,,,,,,,,,,,,,,,,,,,,,,,,,,,,,,,,,,,,,,,,,,,,,,,,,,,,,,,,,,,,
,,,,,,,,,,,,l,0.704,Correct!,0,5,5,43,1,t4.png,t2.png,2,0.059078,19,male,2020-09-16_16h58.16.961,torte-2b,2020.1.3,MacIntel,60,13384,,,,,,,,,,,,,,,,,,,,,,,,,,,,,,,,,,,,,,,,,,,,,,,,,,,,,,,,,,,,,,,,
,,,,,,,,,,,,l,0.557,Correct!,0,6,6,88,1,t3.png,t1.png,2,0.056466,19,male,2020-09-16_16h58.16.961,torte-2b,2020.1.3,MacIntel,60,13384,,,,,,,,,,,,,,,,,,,,,,,,,,,,,,,,,,,,,,,,,,,,,,,,,,,,,,,,,,,,,,,,
,,,,,,,,,,,,l,0.502,Correct!,0,7,7,73,1,t4.png,t2.png,2,0.059078,19,male,2020-09-16_16h58.16.961,torte-2b,2020.1.3,MacIntel,60,13384,,,,,,,,,,,,,,,,,,,,,,,,,,,,,,,,,,,,,,,,,,,,,,,,,,,,,,,,,,,,,,,,
,,,,,,,,,,,,l,0.892,Incorrect,0,8,8,76,1,t3.png,t2.png,1,0.90855,19,male,2020-09-16_16h58.16.961,torte-2b,2020.1.3,MacIntel,60,13384,,,,,,,,,,,,,,,,,,,,,,,,,,,,,,,,,,,,,,,,,,,,,,,,,,,,,,,,,,,,,,,,
,,,,,,,,,,,,a,0.763,Correct!,0,9,9,55,1,t2.png,t4.png,2,0.059078,19,male,2020-09-16_16h58.16.961,torte-2b,2020.1.3,MacIntel,60,13384,,,,,,,,,,,,,,,,,,,,,,,,,,,,,,,,,,,,,,,,,,,,,,,,,,,,,,,,,,,,,,,,
,,,,,,,,,,,,a,1.296,Correct!,0,10,10,20,1,t2.png,t3.png,1,0.90855,19,male,2020-09-16_16h58.16.961,torte-2b,2020.1.3,MacIntel,60,13384,,,,,,,,,,,,,,,,,,,,,,,,,,,,,,,,,,,,,,,,,,,,,,,,,,,,,,,,,,,,,,,,
,,,,,,,,,,,,a,0.618,Incorrect,0,11,11,119,1,t1.png,t5.png,4,9.55E-11,19,male,2020-09-16_16h58.16.961,torte-2b,2020.1.3,MacIntel,60,13384,,,,,,,,,,,,,,,,,,,,,,,,,,,,,,,,,,,,,,,,,,,,,,,,,,,,,,,,,,,,,,,,
,,,,,,,,,,,,a,0.538,Incorrect,0,12,12,40,1,t1.png,t5.png,4,9.55E-11,19,male,2020-09-16_16h58.16.961,torte-2b,2020.1.3,MacIntel,60,13384,,,,,,,,,,,,,,,,,,,,,,,,,,,,,,,,,,,,,,,,,,,,,,,,,,,,,,,,,,,,,,,,
,,,,,,,,,,,,l,0.694,Correct!,0,13,13,50,1,t5.png,t1.png,4,9.55E-11,19,male,2020-09-16_16h58.16.961,torte-2b,2020.1.3,MacIntel,60,13384,,,,,,,,,,,,,,,,,,,,,,,,,,,,,,,,,,,,,,,,,,,,,,,,,,,,,,,,,,,,,,,,
,,,,,,,,,,,,a,0.706,Incorrect,0,14,14,68,1,t1.png,t4.png,3,0.0000131,19,male,2020-09-16_16h58.16.961,torte-2b,2020.1.3,MacIntel,60,13384,,,,,,,,,,,,,,,,,,,,,,,,,,,,,,,,,,,,,,,,,,,,,,,,,,,,,,,,,,,,,,,,
,,,,,,,,,,,,a,0.859,Incorrect,0,15,15,0,1,t5.png,t1.png,4,9.55E-11,19,male,2020-09-16_16h58.16.961,torte-2b,2020.1.3,MacIntel,60,13384,,,,,,,,,,,,,,,,,,,,,,,,,,,,,,,,,,,,,,,,,,,,,,,,,,,,,,,,,,,,,,,,
,,,,,,,,,,,,l,0.688,Correct!,0,16,16,8,1,t3.png,t2.png,1,0.90855,19,male,2020-09-16_16h58.16.961,torte-2b,2020.1.3,MacIntel,60,13384,,,,,,,,,,,,,,,,,,,,,,,,,,,,,,,,,,,,,,,,,,,,,,,,,,,,,,,,,,,,,,,,
,,,,,,,,,,,,l,0.609,Correct!,0,17,17,38,1,t3.png,t1.png,2,0.056466,19,male,2020-09-16_16h58.16.961,torte-2b,2020.1.3,MacIntel,60,13384,,,,,,,,,,,,,,,,,,,,,,,,,,,,,,,,,,,,,,,,,,,,,,,,,,,,,,,,,,,,,,,,
,,,,,,,,,,,,l,0.682,Incorrect,0,18,18,105,1,t3.png,t2.png,1,0.90855,19,male,2020-09-16_16h58.16.961,torte-2b,2020.1.3,MacIntel,60,13384,,,,,,,,,,,,,,,,,,,,,,,,,,,,,,,,,,,,,,,,,,,,,,,,,,,,,,,,,,,,,,,,
,,,,,,,,,,,,a,0.559,Incorrect,0,19,19,80,1,t1.png,t4.png,3,0.0000131,19,male,2020-09-16_16h58.16.961,torte-2b,2020.1.3,MacIntel,60,13384,,,,,,,,,,,,,,,,,,,,,,,,,,,,,,,,,,,,,,,,,,,,,,,,,,,,,,,,,,,,,,,,
,,,,,,,,,,,,l,0.673,Correct!,0,20,20,56,1,t5.png,t1.png,4,9.55E-11,19,male,2020-09-16_16h58.16.961,torte-2b,2020.1.3,MacIntel,60,13384,,,,,,,,,,,,,,,,,,,,,,,,,,,,,,,,,,,,,,,,,,,,,,,,,,,,,,,,,,,,,,,,
,,,,,,,,,,,,l,0.721,Incorrect,0,21,21,9,1,t4.png,t5.png,1,0.9,19,male,2020-09-16_16h58.16.961,torte-2b,2020.1.3,MacIntel,60,13384,,,,,,,,,,,,,,,,,,,,,,,,,,,,,,,,,,,,,,,,,,,,,,,,,,,,,,,,,,,,,,,,
,,,,,,,,,,,,l,0.588,Correct!,0,22,22,36,1,t3.png,t1.png,2,0.0565,19,male,2020-09-16_16h58.16.961,torte-2b,2020.1.3,MacIntel,60,13384,,,,,,,,,,,,,,,,,,,,,,,,,,,,,,,,,,,,,,,,,,,,,,,,,,,,,,,,,,,,,,,,
,,,,,,,,,,,,l,0.556,Incorrect,0,23,23,39,1,t3.png,t2.png,1,0.90855,19,male,2020-09-16_16h58.16.961,torte-2b,2020.1.3,MacIntel,60,13384,,,,,,,,,,,,,,,,,,,,,,,,,,,,,,,,,,,,,,,,,,,,,,,,,,,,,,,,,,,,,,,,
,,,,,,,,,,,,l,0.561,Incorrect,0,24,24,2,1,t3.png,t2.png,1,0.90855,19,male,2020-09-16_16h58.16.961,torte-2b,2020.1.3,MacIntel,60,13384,,,,,,,,,,,,,,,,,,,,,,,,,,,,,,,,,,,,,,,,,,,,,,,,,,,,,,,,,,,,,,,,
,,,,,,,,,,,,a,0.74,Incorrect,0,25,25,37,1,t1.png,t4.png,3,0.0000131,19,male,2020-09-16_16h58.16.961,torte-2b,2020.1.3,MacIntel,60,13384,,,,,,,,,,,,,,,,,,,,,,,,,,,,,,,,,,,,,,,,,,,,,,,,,,,,,,,,,,,,,,,,
,,,,,,,,,,,,l,0.872,Incorrect,0,26,26,116,1,t5.png,t4.png,1,0.90025,19,male,2020-09-16_16h58.16.961,torte-2b,2020.1.3,MacIntel,60,13384,,,,,,,,,,,,,,,,,,,,,,,,,,,,,,,,,,,,,,,,,,,,,,,,,,,,,,,,,,,,,,,,
,,,,,,,,,,,,a,0.538,Incorrect,0,27,27,60,1,t2.png,t4.png,2,0.059078,19,male,2020-09-16_16h58.16.961,torte-2b,2020.1.3,MacIntel,60,13384,,,,,,,,,,,,,,,,,,,,,,,,,,,,,,,,,,,,,,,,,,,,,,,,,,,,,,,,,,,,,,,,
,,,,,,,,,,,,l,0.862,Incorrect,0,28,28,114,1,t2.png,t3.png,1,0.90855,19,male,2020-09-16_16h58.16.961,torte-2b,2020.1.3,MacIntel,60,13384,,,,,,,,,,,,,,,,,,,,,,,,,,,,,,,,,,,,,,,,,,,,,,,,,,,,,,,,,,,,,,,,
,,,,,,,,,,,,l,0.423,Correct!,0,29,29,77,1,t1.png,t1.png,0,0.97829,19,male,2020-09-16_16h58.16.961,torte-2b,2020.1.3,MacIntel,60,13384,,,,,,,,,,,,,,,,,,,,,,,,,,,,,,,,,,,,,,,,,,,,,,,,,,,,,,,,,,,,,,,,
,,,,,,,,,,,,l,0.64,Incorrect,0,30,30,110,1,t4.png,t5.png,1,0.90025,19,male,2020-09-16_16h58.16.961,torte-2b,2020.1.3,MacIntel,60,13384,,,,,,,,,,,,,,,,,,,,,,,,,,,,,,,,,,,,,,,,,,,,,,,,,,,,,,,,,,,,,,,,
,,,,,,,,,,,,l,0.673,Incorrect,0,31,31,112,1,t1.png,t1.png,0,0.97829,19,male,2020-09-16_16h58.16.961,torte-2b,2020.1.3,MacIntel,60,13384,,,,,,,,,,,,,,,,,,,,,,,,,,,,,,,,,,,,,,,,,,,,,,,,,,,,,,,,,,,,,,,,
,,,,,,,,,,,,a,0.573,Incorrect,0,32,32,11,1,t1.png,t4.png,3,0.0000131,19,male,2020-09-16_16h58.16.961,torte-2b,2020.1.3,MacIntel,60,13384,,,,,,,,,,,,,,,,,,,,,,,,,,,,,,,,,,,,,,,,,,,,,,,,,,,,,,,,,,,,,,,,
,,,,,,,,,,,,a,0.588,Incorrect,0,33,33,89,1,t1.png,t4.png,3,0.0000131,19,male,2020-09-16_16h58.16.961,torte-2b,2020.1.3,MacIntel,60,13384,,,,,,,,,,,,,,,,,,,,,,,,,,,,,,,,,,,,,,,,,,,,,,,,,,,,,,,,,,,,,,,,
,,,,,,,,,,,,l,0.922,Incorrect,0,34,34,58,1,t5.png,t4.png,1,0.90025,19,male,2020-09-16_16h58.16.961,torte-2b,2020.1.3,MacIntel,60,13384,,,,,,,,,,,,,,,,,,,,,,,,,,,,,,,,,,,,,,,,,,,,,,,,,,,,,,,,,,,,,,,,
,,,,,,,,,,,,a,2.362,Correct!,0,35,35,75,1,t1.png,t1.png,0,0.97829,19,male,2020-09-16_16h58.16.961,torte-2b,2020.1.3,MacIntel,60,13384,,,,,,,,,,,,,,,,,,,,,,,,,,,,,,,,,,,,,,,,,,,,,,,,,,,,,,,,,,,,,,,,
,,,,,,,,,,,,,,Too slow :(,0,36,36,18,1,t4.png,t5.png,1,0.90025,19,male,2020-09-16_16h58.16.961,torte-2b,2020.1.3,MacIntel,60,13384,,,,,,,,,,,,,,,,,,,,,,,,,,,,,,,,,,,,,,,,,,,,,,,,,,,,,,,,,,,,,,,,
,,,,,,,,,,,,l,0.875,Incorrect,0,37,37,34,1,t5.png,t4.png,1,0.9,19,male,2020-09-16_16h58.16.961,torte-2b,2020.1.3,MacIntel,60,13384,,,,,,,,,,,,,,,,,,,,,,,,,,,,,,,,,,,,,,,,,,,,,,,,,,,,,,,,,,,,,,,,
,,,,,,,,,,,,a,0.247,Incorrect,0,38,38,87,1,t5.png,t1.png,4,9.55E-11,19,male,2020-09-16_16h58.16.961,torte-2b,2020.1.3,MacIntel,60,13384,,,,,,,,,,,,,,,,,,,,,,,,,,,,,,,,,,,,,,,,,,,,,,,,,,,,,,,,,,,,,,,,
,,,,,,,,,,,,a,0.919,Incorrect,0,39,39,5,1,t2.png,t4.png,2,0.059078,19,male,2020-09-16_16h58.16.961,torte-2b,2020.1.3,MacIntel,60,13384,,,,,,,,,,,,,,,,,,,,,,,,,,,,,,,,,,,,,,,,,,,,,,,,,,,,,,,,,,,,,,,,
,,,,,,,,,,,,a,0.618,Incorrect,0,40,40,31,1,t1.png,t5.png,4,9.55E-11,19,male,2020-09-16_16h58.16.961,torte-2b,2020.1.3,MacIntel,60,13384,,,,,,,,,,,,,,,,,,,,,,,,,,,,,,,,,,,,,,,,,,,,,,,,,,,,,,,,,,,,,,,,
,,,,,,,,,,,,l,0.688,Incorrect,0,41,41,96,1,t1.png,t1.png,0,0.97829,19,male,2020-09-16_16h58.16.961,torte-2b,2020.1.3,MacIntel,60,13384,,,,,,,,,,,,,,,,,,,,,,,,,,,,,,,,,,,,,,,,,,,,,,,,,,,,,,,,,,,,,,,,
,,,,,,,,,,,,l,0.057,Incorrect,0,42,42,16,1,t5.png,t4.png,1,0.9,19,male,2020-09-16_16h58.16.961,torte-2b,2020.1.3,MacIntel,60,13384,,,,,,,,,,,,,,,,,,,,,,,,,,,,,,,,,,,,,,,,,,,,,,,,,,,,,,,,,,,,,,,,
,,,,,,,,,,,,a,0.001,Incorrect,0,43,43,47,1,t4.png,t2.png,2,0.059078,19,male,2020-09-16_16h58.16.961,torte-2b,2020.1.3,MacIntel,60,13384,,,,,,,,,,,,,,,,,,,,,,,,,,,,,,,,,,,,,,,,,,,,,,,,,,,,,,,,,,,,,,,,
,,,,,,,,,,,,l,0.003,Correct!,0,44,44,14,1,t2.png,t4.png,2,0.059078,19,male,2020-09-16_16h58.16.961,torte-2b,2020.1.3,MacIntel,60,13384,,,,,,,,,,,,,,,,,,,,,,,,,,,,,,,,,,,,,,,,,,,,,,,,,,,,,,,,,,,,,,,,
,,,,,,,,,,,,a,0.098,Incorrect,0,45,45,17,1,t1.png,t4.png,3,0.0000131,19,male,2020-09-16_16h58.16.961,torte-2b,2020.1.3,MacIntel,60,13384,,,,,,,,,,,,,,,,,,,,,,,,,,,,,,,,,,,,,,,,,,,,,,,,,,,,,,,,,,,,,,,,
,,,,,,,,,,,,l,0.1,Incorrect,0,46,46,74,1,t5.png,t4.png,1,0.9,19,male,2020-09-16_16h58.16.961,torte-2b,2020.1.3,MacIntel,60,13384,,,,,,,,,,,,,,,,,,,,,,,,,,,,,,,,,,,,,,,,,,,,,,,,,,,,,,,,,,,,,,,,
,,,,,,,,,,,,l,0.002,Correct!,0,47,47,94,1,t5.png,t1.png,4,9.55E-11,19,male,2020-09-16_16h58.16.961,torte-2b,2020.1.3,MacIntel,60,13384,,,,,,,,,,,,,,,,,,,,,,,,,,,,,,,,,,,,,,,,,,,,,,,,,,,,,,,,,,,,,,,,
,,,,,,,,,,,,a,0.169,Incorrect,0,48,48,53,1,t3.png,t1.png,2,0.056466,19,male,2020-09-16_16h58.16.961,torte-2b,2020.1.3,MacIntel,60,13384,,,,,,,,,,,,,,,,,,,,,,,,,,,,,,,,,,,,,,,,,,,,,,,,,,,,,,,,,,,,,,,,
,,,,,,,,,,,,l,0.125,Correct!,0,49,49,19,1,t4.png,t2.png,2,0.059078,19,male,2020-09-16_16h58.16.961,torte-2b,2020.1.3,MacIntel,60,13384,,,,,,,,,,,,,,,,,,,,,,,,,,,,,,,,,,,,,,,,,,,,,,,,,,,,,,,,,,,,,,,,
,,,,,,,,,,,,a,0.134,Incorrect,0,50,50,93,1,t2.png,t4.png,2,0.059078,19,male,2020-09-16_16h58.16.961,torte-2b,2020.1.3,MacIntel,60,13384,,,,,,,,,,,,,,,,,,,,,,,,,,,,,,,,,,,,,,,,,,,,,,,,,,,,,,,,,,,,,,,,
,,,,,,,,,,,,a,0.074,Incorrect,0,51,51,67,1,t1.png,t5.png,4,9.55E-11,19,male,2020-09-16_16h58.16.961,torte-2b,2020.1.3,MacIntel,60,13384,,,,,,,,,,,,,,,,,,,,,,,,,,,,,,,,,,,,,,,,,,,,,,,,,,,,,,,,,,,,,,,,
,,,,,,,,,,,,a,0.093,Correct!,0,52,52,107,1,t1.png,t1.png,0,0.978,19,male,2020-09-16_16h58.16.961,torte-2b,2020.1.3,MacIntel,60,13384,,,,,,,,,,,,,,,,,,,,,,,,,,,,,,,,,,,,,,,,,,,,,,,,,,,,,,,,,,,,,,,,
,,,,,,,,,,,,l,0.574,Incorrect,0,53,53,95,1,t1.png,t1.png,0,0.978,19,male,2020-09-16_16h58.16.961,torte-2b,2020.1.3,MacIntel,60,13384,,,,,,,,,,,,,,,,,,,,,,,,,,,,,,,,,,,,,,,,,,,,,,,,,,,,,,,,,,,,,,,,
,,,,,,,,,,,,l,0.211,Correct!,0,54,54,108,1,t5.png,t1.png,4,9.55E-11,19,male,2020-09-16_16h58.16.961,torte-2b,2020.1.3,MacIntel,60,13384,,,,,,,,,,,,,,,,,,,,,,,,,,,,,,,,,,,,,,,,,,,,,,,,,,,,,,,,,,,,,,,,
,,,,,,,,,,,,a,0.194,Incorrect,0,55,55,101,1,t4.png,t5.png,1,0.90025,19,male,2020-09-16_16h58.16.961,torte-2b,2020.1.3,MacIntel,60,13384,,,,,,,,,,,,,,,,,,,,,,,,,,,,,,,,,,,,,,,,,,,,,,,,,,,,,,,,,,,,,,,,
,,,,,,,,,,,,a,0.053,Correct!,0,56,56,22,1,t2.png,t3.png,1,0.90855,19,male,2020-09-16_16h58.16.961,torte-2b,2020.1.3,MacIntel,60,13384,,,,,,,,,,,,,,,,,,,,,,,,,,,,,,,,,,,,,,,,,,,,,,,,,,,,,,,,,,,,,,,,
,,,,,,,,,,,,a,0.085,Correct!,0,57,57,28,1,t2.png,t3.png,1,0.909,19,male,2020-09-16_16h58.16.961,torte-2b,2020.1.3,MacIntel,60,13384,,,,,,,,,,,,,,,,,,,,,,,,,,,,,,,,,,,,,,,,,,,,,,,,,,,,,,,,,,,,,,,,
,,,,,,,,,,,,a,0.067,Correct!,0,58,58,113,1,t5.png,t4.png,1,0.9,19,male,2020-09-16_16h58.16.961,torte-2b,2020.1.3,MacIntel,60,13384,,,,,,,,,,,,,,,,,,,,,,,,,,,,,,,,,,,,,,,,,,,,,,,,,,,,,,,,,,,,,,,,
,,,,,,,,,,,,l,0.046,Correct!,0,59,59,82,1,t5.png,t1.png,4,9.55E-11,19,male,2020-09-16_16h58.16.961,torte-2b,2020.1.3,MacIntel,60,13384,,,,,,,,,,,,,,,,,,,,,,,,,,,,,,,,,,,,,,,,,,,,,,,,,,,,,,,,,,,,,,,,
,,,,,,,,,,,,l,0.127,Correct!,0,60,60,4,1,t1.png,t5.png,4,9.55E-11,19,male,2020-09-16_16h58.16.961,torte-2b,2020.1.3,MacIntel,60,13384,,,,,,,,,,,,,,,,,,,,,,,,,,,,,,,,,,,,,,,,,,,,,,,,,,,,,,,,,,,,,,,,
,,,,,,,,,,,,a,0.008,Incorrect,0,61,61,72,1,t4.png,t2.png,2,0.059078,19,male,2020-09-16_16h58.16.961,torte-2b,2020.1.3,MacIntel,60,13384,,,,,,,,,,,,,,,,,,,,,,,,,,,,,,,,,,,,,,,,,,,,,,,,,,,,,,,,,,,,,,,,
,,,,,,,,,,,,l,0.102,Correct!,0,62,62,1,1,t2.png,t4.png,2,0.059078,19,male,2020-09-16_16h58.16.961,torte-2b,2020.1.3,MacIntel,60,13384,,,,,,,,,,,,,,,,,,,,,,,,,,,,,,,,,,,,,,,,,,,,,,,,,,,,,,,,,,,,,,,,
,,,,,,,,,,,,l,0.025,Incorrect,0,63,63,106,1,t2.png,t3.png,1,0.90855,19,male,2020-09-16_16h58.16.961,torte-2b,2020.1.3,MacIntel,60,13384,,,,,,,,,,,,,,,,,,,,,,,,,,,,,,,,,,,,,,,,,,,,,,,,,,,,,,,,,,,,,,,,
,,,,,,,,,,,,l,0.009,Correct!,0,64,64,54,1,t1.png,t5.png,4,9.55E-11,19,male,2020-09-16_16h58.16.961,torte-2b,2020.1.3,MacIntel,60,13384,,,,,,,,,,,,,,,,,,,,,,,,,,,,,,,,,,,,,,,,,,,,,,,,,,,,,,,,,,,,,,,,
,,,,,,,,,,,,a,0.035,Incorrect,0,65,65,46,1,t4.png,t2.png,2,0.059078,19,male,2020-09-16_16h58.16.961,torte-2b,2020.1.3,MacIntel,60,13384,,,,,,,,,,,,,,,,,,,,,,,,,,,,,,,,,,,,,,,,,,,,,,,,,,,,,,,,,,,,,,,,
,,,,,,,,,,,,l,0.072,Correct!,0,66,66,69,1,t4.png,t2.png,2,0.059078,19,male,2020-09-16_16h58.16.961,torte-2b,2020.1.3,MacIntel,60,13384,,,,,,,,,,,,,,,,,,,,,,,,,,,,,,,,,,,,,,,,,,,,,,,,,,,,,,,,,,,,,,,,
,,,,,,,,,,,,l,0.069,Incorrect,0,67,67,64,1,t1.png,t1.png,0,0.978,19,male,2020-09-16_16h58.16.961,torte-2b,2020.1.3,MacIntel,60,13384,,,,,,,,,,,,,,,,,,,,,,,,,,,,,,,,,,,,,,,,,,,,,,,,,,,,,,,,,,,,,,,,
,,,,,,,,,,,,l,0.041,Correct!,0,68,68,99,1,t1.png,t5.png,4,9.55E-11,19,male,2020-09-16_16h58.16.961,torte-2b,2020.1.3,MacIntel,60,13384,,,,,,,,,,,,,,,,,,,,,,,,,,,,,,,,,,,,,,,,,,,,,,,,,,,,,,,,,,,,,,,,
,,,,,,,,,,,,l,0.068,Incorrect,0,69,69,13,1,t5.png,t5.png,0,0.97829,19,male,2020-09-16_16h58.16.961,torte-2b,2020.1.3,MacIntel,60,13384,,,,,,,,,,,,,,,,,,,,,,,,,,,,,,,,,,,,,,,,,,,,,,,,,,,,,,,,,,,,,,,,
,,,,,,,,,,,,l,0.066,Correct!,0,70,70,26,1,t4.png,t2.png,2,0.0591,19,male,2020-09-16_16h58.16.961,torte-2b,2020.1.3,MacIntel,60,13384,,,,,,,,,,,,,,,,,,,,,,,,,,,,,,,,,,,,,,,,,,,,,,,,,,,,,,,,,,,,,,,,
,,,,,,,,,,,,a,0.034,Correct!,0,71,71,10,1,t2.png,t3.png,1,0.90855,19,male,2020-09-16_16h58.16.961,torte-2b,2020.1.3,MacIntel,60,13384,,,,,,,,,,,,,,,,,,,,,,,,,,,,,,,,,,,,,,,,,,,,,,,,,,,,,,,,,,,,,,,,
,,,,,,,,,,,,l,0.132,Correct!,0,72,72,98,1,t2.png,t4.png,2,0.0591,19,male,2020-09-16_16h58.16.961,torte-2b,2020.1.3,MacIntel,60,13384,,,,,,,,,,,,,,,,,,,,,,,,,,,,,,,,,,,,,,,,,,,,,,,,,,,,,,,,,,,,,,,,
,,,,,,,,,,,,l,0.126,Correct!,0,73,73,91,1,t1.png,t4.png,3,0.0000131,19,male,2020-09-16_16h58.16.961,torte-2b,2020.1.3,MacIntel,60,13384,,,,,,,,,,,,,,,,,,,,,,,,,,,,,,,,,,,,,,,,,,,,,,,,,,,,,,,,,,,,,,,,
,,,,,,,,,,,,a,0.004,Incorrect,0,74,74,35,1,t1.png,t4.png,3,0.0000131,19,male,2020-09-16_16h58.16.961,torte-2b,2020.1.3,MacIntel,60,13384,,,,,,,,,,,,,,,,,,,,,,,,,,,,,,,,,,,,,,,,,,,,,,,,,,,,,,,,,,,,,,,,
,,,,,,,,,,,,l,0.082,Incorrect,0,75,75,109,1,t5.png,t5.png,0,0.97829,19,male,2020-09-16_16h58.16.961,torte-2b,2020.1.3,MacIntel,60,13384,,,,,,,,,,,,,,,,,,,,,,,,,,,,,,,,,,,,,,,,,,,,,,,,,,,,,,,,,,,,,,,,
,,,,,,,,,,,,a,0.225,Incorrect,0,76,76,115,1,t2.png,t4.png,2,0.059078,19,male,2020-09-16_16h58.16.961,torte-2b,2020.1.3,MacIntel,60,13384,,,,,,,,,,,,,,,,,,,,,,,,,,,,,,,,,,,,,,,,,,,,,,,,,,,,,,,,,,,,,,,,
,,,,,,,,,,,,l,0,Correct!,0,77,77,61,1,t1.png,t4.png,3,0.0000131,19,male,2020-09-16_16h58.16.961,torte-2b,2020.1.3,MacIntel,60,13384,,,,,,,,,,,,,,,,,,,,,,,,,,,,,,,,,,,,,,,,,,,,,,,,,,,,,,,,,,,,,,,,
,,,,,,,,,,,,a,0.067,Correct!,0,78,78,32,1,t4.png,t5.png,1,0.90025,19,male,2020-09-16_16h58.16.961,torte-2b,2020.1.3,MacIntel,60,13384,,,,,,,,,,,,,,,,,,,,,,,,,,,,,,,,,,,,,,,,,,,,,,,,,,,,,,,,,,,,,,,,
,,,,,,,,,,,,a,0.008,Correct!,0,79,79,44,1,t2.png,t3.png,1,0.909,19,male,2020-09-16_16h58.16.961,torte-2b,2020.1.3,MacIntel,60,13384,,,,,,,,,,,,,,,,,,,,,,,,,,,,,,,,,,,,,,,,,,,,,,,,,,,,,,,,,,,,,,,,
,,,,,,,,,,,,a,0.051,Correct!,0,80,80,71,1,t5.png,t5.png,0,0.97829,19,male,2020-09-16_16h58.16.961,torte-2b,2020.1.3,MacIntel,60,13384,,,,,,,,,,,,,,,,,,,,,,,,,,,,,,,,,,,,,,,,,,,,,,,,,,,,,,,,,,,,,,,,
,,,,,,,,,,,,a,0.182,Correct!,0,81,81,97,1,t5.png,t5.png,0,0.97829,19,male,2020-09-16_16h58.16.961,torte-2b,2020.1.3,MacIntel,60,13384,,,,,,,,,,,,,,,,,,,,,,,,,,,,,,,,,,,,,,,,,,,,,,,,,,,,,,,,,,,,,,,,
,,,,,,,,,,,,a,0.007,Correct!,0,82,82,7,1,t4.png,t5.png,1,0.90025,19,male,2020-09-16_16h58.16.961,torte-2b,2020.1.3,MacIntel,60,13384,,,,,,,,,,,,,,,,,,,,,,,,,,,,,,,,,,,,,,,,,,,,,,,,,,,,,,,,,,,,,,,,
,,,,,,,,,,,,l,0.135,Incorrect,0,83,83,59,1,t5.png,t4.png,1,0.9,19,male,2020-09-16_16h58.16.961,torte-2b,2020.1.3,MacIntel,60,13384,,,,,,,,,,,,,,,,,,,,,,,,,,,,,,,,,,,,,,,,,,,,,,,,,,,,,,,,,,,,,,,,
,,,,,,,,,,,,a,0.051,Incorrect,0,84,84,52,1,t2.png,t4.png,2,0.059078,19,male,2020-09-16_16h58.16.961,torte-2b,2020.1.3,MacIntel,60,13384,,,,,,,,,,,,,,,,,,,,,,,,,,,,,,,,,,,,,,,,,,,,,,,,,,,,,,,,,,,,,,,,
,,,,,,,,,,,,a,0.069,Correct!,0,85,85,70,1,t5.png,t5.png,0,0.978,19,male,2020-09-16_16h58.16.961,torte-2b,2020.1.3,MacIntel,60,13384,,,,,,,,,,,,,,,,,,,,,,,,,,,,,,,,,,,,,,,,,,,,,,,,,,,,,,,,,,,,,,,,
,,,,,,,,,,,,a,0.034,Correct!,0,86,86,78,1,t1.png,t1.png,0,0.978,19,male,2020-09-16_16h58.16.961,torte-2b,2020.1.3,MacIntel,60,13384,,,,,,,,,,,,,,,,,,,,,,,,,,,,,,,,,,,,,,,,,,,,,,,,,,,,,,,,,,,,,,,,
,,,,,,,,,,,,a,0.037,Correct!,0,87,87,84,1,t1.png,t1.png,0,0.97829,19,male,2020-09-16_16h58.16.961,torte-2b,2020.1.3,MacIntel,60,13384,,,,,,,,,,,,,,,,,,,,,,,,,,,,,,,,,,,,,,,,,,,,,,,,,,,,,,,,,,,,,,,,
,,,,,,,,,,,,l,0.067,Incorrect,0,88,88,49,1,t4.png,t5.png,1,0.9,19,male,2020-09-16_16h58.16.961,torte-2b,2020.1.3,MacIntel,60,13384,,,,,,,,,,,,,,,,,,,,,,,,,,,,,,,,,,,,,,,,,,,,,,,,,,,,,,,,,,,,,,,,
,,,,,,,,,,,,a,0.361,Correct!,0,89,89,41,1,t3.png,t2.png,1,0.90855,19,male,2020-09-16_16h58.16.961,torte-2b,2020.1.3,MacIntel,60,13384,,,,,,,,,,,,,,,,,,,,,,,,,,,,,,,,,,,,,,,,,,,,,,,,,,,,,,,,,,,,,,,,
,,,,,,,,,,,,l,0.126,Correct!,0,90,90,117,1,t1.png,t5.png,4,9.55E-11,19,male,2020-09-16_16h58.16.961,torte-2b,2020.1.3,MacIntel,60,13384,,,,,,,,,,,,,,,,,,,,,,,,,,,,,,,,,,,,,,,,,,,,,,,,,,,,,,,,,,,,,,,,
,,,,,,,,,,,,a,0.208,Incorrect,0,91,91,57,1,t2.png,t4.png,2,0.059078,19,male,2020-09-16_16h58.16.961,torte-2b,2020.1.3,MacIntel,60,13384,,,,,,,,,,,,,,,,,,,,,,,,,,,,,,,,,,,,,,,,,,,,,,,,,,,,,,,,,,,,,,,,
,,,,,,,,,,,,l,0.318,Incorrect,0,92,92,66,1,t4.png,t5.png,1,0.9,19,male,2020-09-16_16h58.16.961,torte-2b,2020.1.3,MacIntel,60,13384,,,,,,,,,,,,,,,,,,,,,,,,,,,,,,,,,,,,,,,,,,,,,,,,,,,,,,,,,,,,,,,,
,,,,,,,,,,,,a,0.24,Incorrect,0,93,93,3,1,t1.png,t5.png,4,9.55E-11,19,male,2020-09-16_16h58.16.961,torte-2b,2020.1.3,MacIntel,60,13384,,,,,,,,,,,,,,,,,,,,,,,,,,,,,,,,,,,,,,,,,,,,,,,,,,,,,,,,,,,,,,,,
,,,,,,,,,,,,l,0.386,Incorrect,0,94,94,100,1,t4.png,t5.png,1,0.90025,19,male,2020-09-16_16h58.16.961,torte-2b,2020.1.3,MacIntel,60,13384,,,,,,,,,,,,,,,,,,,,,,,,,,,,,,,,,,,,,,,,,,,,,,,,,,,,,,,,,,,,,,,,
,,,,,,,,,,,,l,0.376,Incorrect,0,95,95,25,1,t5.png,t5.png,0,0.97829,19,male,2020-09-16_16h58.16.961,torte-2b,2020.1.3,MacIntel,60,13384,,,,,,,,,,,,,,,,,,,,,,,,,,,,,,,,,,,,,,,,,,,,,,,,,,,,,,,,,,,,,,,,
,,,,,,,,,,,,a,0.12,Correct!,0,96,96,15,1,t3.png,t2.png,1,0.90855,19,male,2020-09-16_16h58.16.961,torte-2b,2020.1.3,MacIntel,60,13384,,,,,,,,,,,,,,,,,,,,,,,,,,,,,,,,,,,,,,,,,,,,,,,,,,,,,,,,,,,,,,,,
,,,,,,,,,,,,a,0.185,Incorrect,0,97,97,83,1,t3.png,t1.png,2,0.056466,19,male,2020-09-16_16h58.16.961,torte-2b,2020.1.3,MacIntel,60,13384,,,,,,,,,,,,,,,,,,,,,,,,,,,,,,,,,,,,,,,,,,,,,,,,,,,,,,,,,,,,,,,,
,,,,,,,,,,,,l,0.325,Correct!,0,98,98,86,1,t3.png,t1.png,2,0.056466,19,male,2020-09-16_16h58.16.961,torte-2b,2020.1.3,MacIntel,60,13384,,,,,,,,,,,,,,,,,,,,,,,,,,,,,,,,,,,,,,,,,,,,,,,,,,,,,,,,,,,,,,,,
,,,,,,,,,,,,l,0.203,Incorrect,0,99,99,65,1,t4.png,t5.png,1,0.90025,19,male,2020-09-16_16h58.16.961,torte-2b,2020.1.3,MacIntel,60,13384,,,,,,,,,,,,,,,,,,,,,,,,,,,,,,,,,,,,,,,,,,,,,,,,,,,,,,,,,,,,,,,,
,,,,,,,,,,,,l,0.185,Incorrect,0,100,100,81,1,t1.png,t1.png,0,0.97829,19,male,2020-09-16_16h58.16.961,torte-2b,2020.1.3,MacIntel,60,13384,,,,,,,,,,,,,,,,,,,,,,,,,,,,,,,,,,,,,,,,,,,,,,,,,,,,,,,,,,,,,,,,
,,,,,,,,,,,,a,0.322,Correct!,0,101,101,79,1,t3.png,t2.png,1,0.909,19,male,2020-09-16_16h58.16.961,torte-2b,2020.1.3,MacIntel,60,13384,,,,,,,,,,,,,,,,,,,,,,,,,,,,,,,,,,,,,,,,,,,,,,,,,,,,,,,,,,,,,,,,
,,,,,,,,,,,,l,0.621,Incorrect,0,102,102,92,1,t2.png,t3.png,1,0.909,19,male,2020-09-16_16h58.16.961,torte-2b,2020.1.3,MacIntel,60,13384,,,,,,,,,,,,,,,,,,,,,,,,,,,,,,,,,,,,,,,,,,,,,,,,,,,,,,,,,,,,,,,,
,,,,,,,,,,,,a,0.471,Correct!,0,103,103,45,1,t3.png,t2.png,1,0.90855,19,male,2020-09-16_16h58.16.961,torte-2b,2020.1.3,MacIntel,60,13384,,,,,,,,,,,,,,,,,,,,,,,,,,,,,,,,,,,,,,,,,,,,,,,,,,,,,,,,,,,,,,,,
,,,,,,,,,,,,l,0.608,Correct!,0,104,104,24,1,t4.png,t2.png,2,0.059078,19,male,2020-09-16_16h58.16.961,torte-2b,2020.1.3,MacIntel,60,13384,,,,,,,,,,,,,,,,,,,,,,,,,,,,,,,,,,,,,,,,,,,,,,,,,,,,,,,,,,,,,,,,
,,,,,,,,,,,,a,0.322,Incorrect,0,105,105,102,1,t4.png,t2.png,2,0.059078,19,male,2020-09-16_16h58.16.961,torte-2b,2020.1.3,MacIntel,60,13384,,,,,,,,,,,,,,,,,,,,,,,,,,,,,,,,,,,,,,,,,,,,,,,,,,,,,,,,,,,,,,,,
,,,,,,,,,,,,l,0.45,Incorrect,0,106,106,51,1,t3.png,t1.png,2,0.056466,19,male,2020-09-16_16h58.16.961,torte-2b,2020.1.3,MacIntel,60,13384,,,,,,,,,,,,,,,,,,,,,,,,,,,,,,,,,,,,,,,,,,,,,,,,,,,,,,,,,,,,,,,,
,,,,,,,,,,,,a,0.353,Correct!,0,107,107,42,1,t5.png,t4.png,1,0.90025,19,male,2020-09-16_16h58.16.961,torte-2b,2020.1.3,MacIntel,60,13384,,,,,,,,,,,,,,,,,,,,,,,,,,,,,,,,,,,,,,,,,,,,,,,,,,,,,,,,,,,,,,,,
,,,,,,,,,,,,l,0.305,Correct!,0,108,108,90,1,t1.png,t5.png,4,9.55E-11,19,male,2020-09-16_16h58.16.961,torte-2b,2020.1.3,MacIntel,60,13384,,,,,,,,,,,,,,,,,,,,,,,,,,,,,,,,,,,,,,,,,,,,,,,,,,,,,,,,,,,,,,,,
,,,,,,,,,,,,a,0.333,Correct!,0,109,109,23,1,t5.png,t4.png,1,0.90025,19,male,2020-09-16_16h58.16.961,torte-2b,2020.1.3,MacIntel,60,13384,,,,,,,,,,,,,,,,,,,,,,,,,,,,,,,,,,,,,,,,,,,,,,,,,,,,,,,,,,,,,,,,
,,,,,,,,,,,,l,0.435,Incorrect,0,110,110,85,1,t3.png,t2.png,1,0.90855,19,male,2020-09-16_16h58.16.961,torte-2b,2020.1.3,MacIntel,60,13384,,,,,,,,,,,,,,,,,,,,,,,,,,,,,,,,,,,,,,,,,,,,,,,,,,,,,,,,,,,,,,,,
,,,,,,,,,,,,a,0.357,Incorrect,0,111,111,111,1,t5.png,t1.png,4,9.55E-11,19,male,2020-09-16_16h58.16.961,torte-2b,2020.1.3,MacIntel,60,13384,,,,,,,,,,,,,,,,,,,,,,,,,,,,,,,,,,,,,,,,,,,,,,,,,,,,,,,,,,,,,,,,
,,,,,,,,,,,,l,0.489,Incorrect,0,112,112,118,1,t5.png,t5.png,0,0.978,19,male,2020-09-16_16h58.16.961,torte-2b,2020.1.3,MacIntel,60,13384,,,,,,,,,,,,,,,,,,,,,,,,,,,,,,,,,,,,,,,,,,,,,,,,,,,,,,,,,,,,,,,,
,,,,,,,,,,,,a,0.471,Correct!,0,113,113,104,1,t2.png,t3.png,1,0.90855,19,male,2020-09-16_16h58.16.961,torte-2b,2020.1.3,MacIntel,60,13384,,,,,,,,,,,,,,,,,,,,,,,,,,,,,,,,,,,,,,,,,,,,,,,,,,,,,,,,,,,,,,,,
,,,,,,,,,,,,l,0.965,Incorrect,0,114,114,29,1,t5.png,t5.png,0,0.97829,19,male,2020-09-16_16h58.16.961,torte-2b,2020.1.3,MacIntel,60,13384,,,,,,,,,,,,,,,,,,,,,,,,,,,,,,,,,,,,,,,,,,,,,,,,,,,,,,,,,,,,,,,,
,,,,,,,,,,,,a,0.742,Correct!,0,115,115,48,1,t5.png,t5.png,0,0.97829,19,male,2020-09-16_16h58.16.961,torte-2b,2020.1.3,MacIntel,60,13384,,,,,,,,,,,,,,,,,,,,,,,,,,,,,,,,,,,,,,,,,,,,,,,,,,,,,,,,,,,,,,,,
,,,,,,,,,,,,a,1.896,Correct!,0,116,116,62,1,t5.png,t5.png,0,0.978,19,male,2020-09-16_16h58.16.961,torte-2b,2020.1.3,MacIntel,60,13384,,,,,,,,,,,,,,,,,,,,,,,,,,,,,,,,,,,,,,,,,,,,,,,,,,,,,,,,,,,,,,,,
,,,,,,,,,,,,a,0.589,Correct!,0,117,117,63,1,t2.png,t3.png,1,0.909,19,male,2020-09-16_16h58.16.961,torte-2b,2020.1.3,MacIntel,60,13384,,,,,,,,,,,,,,,,,,,,,,,,,,,,,,,,,,,,,,,,,,,,,,,,,,,,,,,,,,,,,,,,
,,,,,,,,,,,,a,1.833,Incorrect,0,118,118,6,1,t1.png,t4.png,3,0.0000131,19,male,2020-09-16_16h58.16.961,torte-2b,2020.1.3,MacIntel,60,13384,,,,,,,,,,,,,,,,,,,,,,,,,,,,,,,,,,,,,,,,,,,,,,,,,,,,,,,,,,,,,,,,
,,,,,,,,,,,,,,Too slow :(,0,119,119,103,1,t3.png,t1.png,2,0.056466,19,male,2020-09-16_16h58.16.961,torte-2b,2020.1.3,MacIntel,60,13384,,,,,,,,,,,,,,,,,,,,,,,,,,,,,,,,,,,,,,,,,,,,,,,,,,,,,,,,,,,,,,,,
,,,,,,,,,,,,a,0.747,Correct!,,,,,,t2.png,t3.png,1,0.90855,19,male,2020-09-16_16h58.16.961,torte-2b,2020.1.3,MacIntel,60,13384,space,1.586,space,7.818,0,0,0,111,1,,,,,,,,,,,,,,,,,,,,,,,,,,,,,,,,,,,,,,,,,,,,,,,,,,,,,,,
,,,,,,,,,,,,l,0.554,Correct!,,,,,,t5.png,t1.png,4,9.55E-11,19,male,2020-09-16_16h58.16.961,torte-2b,2020.1.3,MacIntel,60,13384,,,,,0,1,1,71,1,,,,,,,,,,,,,,,,,,,,,,,,,,,,,,,,,,,,,,,,,,,,,,,,,,,,,,,
,,,,,,,,,,,,l,1.142,Incorrect,,,,,,t5.png,t4.png,1,0.9,19,male,2020-09-16_16h58.16.961,torte-2b,2020.1.3,MacIntel,60,13384,,,,,0,2,2,76,1,,,,,,,,,,,,,,,,,,,,,,,,,,,,,,,,,,,,,,,,,,,,,,,,,,,,,,,
,,,,,,,,,,,,a,1.308,Correct!,,,,,,t2.png,t2.png,0,0.98115,19,male,2020-09-16_16h58.16.961,torte-2b,2020.1.3,MacIntel,60,13384,,,,,0,3,3,57,1,,,,,,,,,,,,,,,,,,,,,,,,,,,,,,,,,,,,,,,,,,,,,,,,,,,,,,,
,,,,,,,,,,,,l,0.941,Correct!,,,,,,t5.png,t2.png,3,0.0000131,19,male,2020-09-16_16h58.16.961,torte-2b,2020.1.3,MacIntel,60,13384,,,,,0,4,4,119,1,,,,,,,,,,,,,,,,,,,,,,,,,,,,,,,,,,,,,,,,,,,,,,,,,,,,,,,
,,,,,,,,,,,,l,0.852,Incorrect,,,,,,t2.png,t1.png,1,0.90025,19,male,2020-09-16_16h58.16.961,torte-2b,2020.1.3,MacIntel,60,13384,,,,,0,5,5,19,1,,,,,,,,,,,,,,,,,,,,,,,,,,,,,,,,,,,,,,,,,,,,,,,,,,,,,,,
,,,,,,,,,,,,a,0.556,Incorrect,,,,,,t1.png,t5.png,4,9.55E-11,19,male,2020-09-16_16h58.16.961,torte-2b,2020.1.3,MacIntel,60,13384,,,,,0,6,6,41,1,,,,,,,,,,,,,,,,,,,,,,,,,,,,,,,,,,,,,,,,,,,,,,,,,,,,,,,
,,,,,,,,,,,,l,1.595,Incorrect,,,,,,t4.png,t3.png,1,0.90855,19,male,2020-09-16_16h58.16.961,torte-2b,2020.1.3,MacIntel,60,13384,,,,,0,7,7,45,1,,,,,,,,,,,,,,,,,,,,,,,,,,,,,,,,,,,,,,,,,,,,,,,,,,,,,,,
,,,,,,,,,,,,l,0.992,Correct!,,,,,,t5.png,t2.png,3,0.0000131,19,male,2020-09-16_16h58.16.961,torte-2b,2020.1.3,MacIntel,60,13384,,,,,0,8,8,91,1,,,,,,,,,,,,,,,,,,,,,,,,,,,,,,,,,,,,,,,,,,,,,,,,,,,,,,,
,,,,,,,,,,,,a,0.685,Correct!,,,,,,t4.png,t5.png,1,0.90025,19,male,2020-09-16_16h58.16.961,torte-2b,2020.1.3,MacIntel,60,13384,,,,,0,9,9,113,1,,,,,,,,,,,,,,,,,,,,,,,,,,,,,,,,,,,,,,,,,,,,,,,,,,,,,,,
,,,,,,,,,,,,a,1.261,Correct!,,,,,,t2.png,t3.png,1,0.90855,19,male,2020-09-16_16h58.16.961,torte-2b,2020.1.3,MacIntel,60,13384,,,,,0,10,10,10,1,,,,,,,,,,,,,,,,,,,,,,,,,,,,,,,,,,,,,,,,,,,,,,,,,,,,,,,
,,,,,,,,,,,,a,0.525,Incorrect,,,,,,t1.png,t5.png,4,9.55E-11,19,male,2020-09-16_16h58.16.961,torte-2b,2020.1.3,MacIntel,60,13384,,,,,0,11,11,12,1,,,,,,,,,,,,,,,,,,,,,,,,,,,,,,,,,,,,,,,,,,,,,,,,,,,,,,,
,,,,,,,,,,,,a,1.199,Incorrect,,,,,,t3.png,t5.png,2,0.056466,19,male,2020-09-16_16h58.16.961,torte-2b,2020.1.3,MacIntel,60,13384,,,,,0,12,12,14,1,,,,,,,,,,,,,,,,,,,,,,,,,,,,,,,,,,,,,,,,,,,,,,,,,,,,,,,
,,,,,,,,,,,,l,1.859,Incorrect,,,,,,t5.png,t4.png,1,0.90025,19,male,2020-09-16_16h58.16.961,torte-2b,2020.1.3,MacIntel,60,13384,,,,,0,13,13,27,1,,,,,,,,,,,,,,,,,,,,,,,,,,,,,,,,,,,,,,,,,,,,,,,,,,,,,,,
,,,,,,,,,,,,a,0.79,Incorrect,,,,,,t2.png,t5.png,3,0.0000131,19,male,2020-09-16_16h58.16.961,torte-2b,2020.1.3,MacIntel,60,13384,,,,,0,14,14,95,1,,,,,,,,,,,,,,,,,,,,,,,,,,,,,,,,,,,,,,,,,,,,,,,,,,,,,,,
,,,,,,,,,,,,l,0.834,Incorrect,,,,,,t4.png,t3.png,1,0.90855,19,male,2020-09-16_16h58.16.961,torte-2b,2020.1.3,MacIntel,60,13384,,,,,0,15,15,35,1,,,,,,,,,,,,,,,,,,,,,,,,,,,,,,,,,,,,,,,,,,,,,,,,,,,,,,,
,,,,,,,,,,,,l,0.605,Incorrect,,,,,,t3.png,t1.png,2,0.056466,19,male,2020-09-16_16h58.16.961,torte-2b,2020.1.3,MacIntel,60,13384,,,,,0,16,16,29,1,,,,,,,,,,,,,,,,,,,,,,,,,,,,,,,,,,,,,,,,,,,,,,,,,,,,,,,
,,,,,,,,,,,,a,0.543,Incorrect,,,,,,t1.png,t4.png,3,0.0000131,19,male,2020-09-16_16h58.16.961,torte-2b,2020.1.3,MacIntel,60,13384,,,,,0,17,17,92,1,,,,,,,,,,,,,,,,,,,,,,,,,,,,,,,,,,,,,,,,,,,,,,,,,,,,,,,
,,,,,,,,,,,,l,0.689,Incorrect,,,,,,t5.png,t5.png,0,0.978,19,male,2020-09-16_16h58.16.961,torte-2b,2020.1.3,MacIntel,60,13384,,,,,0,18,18,117,1,,,,,,,,,,,,,,,,,,,,,,,,,,,,,,,,,,,,,,,,,,,,,,,,,,,,,,,
,,,,,,,,,,,,l,0.558,Correct!,,,,,,t5.png,t2.png,3,0.0000131,19,male,2020-09-16_16h58.16.961,torte-2b,2020.1.3,MacIntel,60,13384,,,,,0,19,19,51,1,,,,,,,,,,,,,,,,,,,,,,,,,,,,,,,,,,,,,,,,,,,,,,,,,,,,,,,
,,,,,,,,,,,,a,0.672,Correct!,,,,,,t4.png,t4.png,0,0.98115,19,male,2020-09-16_16h58.16.961,torte-2b,2020.1.3,MacIntel,60,13384,,,,,0,20,20,90,1,,,,,,,,,,,,,,,,,,,,,,,,,,,,,,,,,,,,,,,,,,,,,,,,,,,,,,,
,,,,,,,,,,,,l,0.794,Incorrect,,,,,,t1.png,t1.png,0,0.978,19,male,2020-09-16_16h58.16.961,torte-2b,2020.1.3,MacIntel,60,13384,,,,,0,21,21,54,1,,,,,,,,,,,,,,,,,,,,,,,,,,,,,,,,,,,,,,,,,,,,,,,,,,,,,,,
,,,,,,,,,,,,a,0.941,Incorrect,,,,,,t3.png,t5.png,2,0.0565,19,male,2020-09-16_16h58.16.961,torte-2b,2020.1.3,MacIntel,60,13384,,,,,0,22,22,30,1,,,,,,,,,,,,,,,,,,,,,,,,,,,,,,,,,,,,,,,,,,,,,,,,,,,,,,,
,,,,,,,,,,,,l,0.603,Correct!,,,,,,t5.png,t1.png,4,9.55E-11,19,male,2020-09-16_16h58.16.961,torte-2b,2020.1.3,MacIntel,60,13384,,,,,0,23,23,102,1,,,,,,,,,,,,,,,,,,,,,,,,,,,,,,,,,,,,,,,,,,,,,,,,,,,,,,,
,,,,,,,,,,,,a,0.678,Correct!,,,,,,t4.png,t5.png,1,0.90025,19,male,2020-09-16_16h58.16.961,torte-2b,2020.1.3,MacIntel,60,13384,,,,,0,24,24,103,1,,,,,,,,,,,,,,,,,,,,,,,,,,,,,,,,,,,,,,,,,,,,,,,,,,,,,,,
,,,,,,,,,,,,a,0.907,Correct!,,,,,,t1.png,t1.png,0,0.97829,19,male,2020-09-16_16h58.16.961,torte-2b,2020.1.3,MacIntel,60,13384,,,,,0,25,25,67,1,,,,,,,,,,,,,,,,,,,,,,,,,,,,,,,,,,,,,,,,,,,,,,,,,,,,,,,
,,,,,,,,,,,,a,0.958,Correct!,,,,,,t3.png,t4.png,1,0.909,19,male,2020-09-16_16h58.16.961,torte-2b,2020.1.3,MacIntel,60,13384,,,,,0,26,26,106,1,,,,,,,,,,,,,,,,,,,,,,,,,,,,,,,,,,,,,,,,,,,,,,,,,,,,,,,
,,,,,,,,,,,,l,0.673,Incorrect,,,,,,t2.png,t2.png,0,0.98115,19,male,2020-09-16_16h58.16.961,torte-2b,2020.1.3,MacIntel,60,13384,,,,,0,27,27,2,1,,,,,,,,,,,,,,,,,,,,,,,,,,,,,,,,,,,,,,,,,,,,,,,,,,,,,,,
,,,,,,,,,,,,l,0.793,Incorrect,,,,,,t5.png,t5.png,0,0.97829,19,male,2020-09-16_16h58.16.961,torte-2b,2020.1.3,MacIntel,60,13384,,,,,0,28,28,25,1,,,,,,,,,,,,,,,,,,,,,,,,,,,,,,,,,,,,,,,,,,,,,,,,,,,,,,,
,,,,,,,,,,,,l,0.757,Correct!,,,,,,t5.png,t3.png,2,0.056466,19,male,2020-09-16_16h58.16.961,torte-2b,2020.1.3,MacIntel,60,13384,,,,,0,29,29,38,1,,,,,,,,,,,,,,,,,,,,,,,,,,,,,,,,,,,,,,,,,,,,,,,,,,,,,,,
,,,,,,,,,,,,l,0.627,Incorrect,,,,,,t2.png,t2.png,0,0.98115,19,male,2020-09-16_16h58.16.961,torte-2b,2020.1.3,MacIntel,60,13384,,,,,0,30,30,7,1,,,,,,,,,,,,,,,,,,,,,,,,,,,,,,,,,,,,,,,,,,,,,,,,,,,,,,,
,,,,,,,,,,,,l,0.784,Incorrect,,,,,,t1.png,t2.png,1,0.9,19,male,2020-09-16_16h58.16.961,torte-2b,2020.1.3,MacIntel,60,13384,,,,,0,31,31,1,1,,,,,,,,,,,,,,,,,,,,,,,,,,,,,,,,,,,,,,,,,,,,,,,,,,,,,,,
,,,,,,,,,,,,a,0.805,Correct!,,,,,,t1.png,t2.png,1,0.90025,19,male,2020-09-16_16h58.16.961,torte-2b,2020.1.3,MacIntel,60,13384,,,,,0,32,32,33,1,,,,,,,,,,,,,,,,,,,,,,,,,,,,,,,,,,,,,,,,,,,,,,,,,,,,,,,
,,,,,,,,,,,,a,0.74,Correct!,,,,,,t3.png,t5.png,2,0.056466,19,male,2020-09-16_16h58.16.961,torte-2b,2020.1.3,MacIntel,60,13384,,,,,0,33,33,6,1,,,,,,,,,,,,,,,,,,,,,,,,,,,,,,,,,,,,,,,,,,,,,,,,,,,,,,,
,,,,,,,,,,,,a,0.606,Incorrect,,,,,,t1.png,t4.png,3,0.0000131,19,male,2020-09-16_16h58.16.961,torte-2b,2020.1.3,MacIntel,60,13384,,,,,0,34,34,81,1,,,,,,,,,,,,,,,,,,,,,,,,,,,,,,,,,,,,,,,,,,,,,,,,,,,,,,,
,,,,,,,,,,,,a,1.027,Correct!,,,,,,t1.png,t2.png,1,0.90025,19,male,2020-09-16_16h58.16.961,torte-2b,2020.1.3,MacIntel,60,13384,,,,,0,35,35,112,1,,,,,,,,,,,,,,,,,,,,,,,,,,,,,,,,,,,,,,,,,,,,,,,,,,,,,,,
,,,,,,,,,,,,l,0.572,Correct!,,,,,,t5.png,t2.png,3,0.0000131,19,male,2020-09-16_16h58.16.961,torte-2b,2020.1.3,MacIntel,60,13384,,,,,0,36,36,98,1,,,,,,,,,,,,,,,,,,,,,,,,,,,,,,,,,,,,,,,,,,,,,,,,,,,,,,,
,,,,,,,,,,,,a,0.624,Incorrect,,,,,,t2.png,t4.png,2,0.059078,19,male,2020-09-16_16h58.16.961,torte-2b,2020.1.3,MacIntel,60,13384,,,,,0,37,37,77,1,,,,,,,,,,,,,,,,,,,,,,,,,,,,,,,,,,,,,,,,,,,,,,,,,,,,,,,
,,,,,,,,,,,,a,0.806,Incorrect,,,,,,t3.png,t5.png,2,0.0565,19,male,2020-09-16_16h58.16.961,torte-2b,2020.1.3,MacIntel,60,13384,,,,,0,38,38,83,1,,,,,,,,,,,,,,,,,,,,,,,,,,,,,,,,,,,,,,,,,,,,,,,,,,,,,,,
,,,,,,,,,,,,l,0.702,Incorrect,,,,,,t2.png,t1.png,1,0.90025,19,male,2020-09-16_16h58.16.961,torte-2b,2020.1.3,MacIntel,60,13384,,,,,0,39,39,62,1,,,,,,,,,,,,,,,,,,,,,,,,,,,,,,,,,,,,,,,,,,,,,,,,,,,,,,,
,,,,,,,,,,,,a,0.64,Correct!,,,,,,t4.png,t4.png,0,0.98115,19,male,2020-09-16_16h58.16.961,torte-2b,2020.1.3,MacIntel,60,13384,,,,,0,40,40,21,1,,,,,,,,,,,,,,,,,,,,,,,,,,,,,,,,,,,,,,,,,,,,,,,,,,,,,,,
,,,,,,,,,,,,l,0.706,Incorrect,,,,,,t4.png,t5.png,1,0.9,19,male,2020-09-16_16h58.16.961,torte-2b,2020.1.3,MacIntel,60,13384,,,,,0,41,41,115,1,,,,,,,,,,,,,,,,,,,,,,,,,,,,,,,,,,,,,,,,,,,,,,,,,,,,,,,
,,,,,,,,,,,,l,0.724,Correct!,,,,,,t5.png,t3.png,2,0.0565,19,male,2020-09-16_16h58.16.961,torte-2b,2020.1.3,MacIntel,60,13384,,,,,0,42,42,39,1,,,,,,,,,,,,,,,,,,,,,,,,,,,,,,,,,,,,,,,,,,,,,,,,,,,,,,,
,,,,,,,,,,,,l,0.664,Correct!,,,,,,t5.png,t2.png,3,0.0000131,19,male,2020-09-16_16h58.16.961,torte-2b,2020.1.3,MacIntel,60,13384,,,,,0,43,43,116,1,,,,,,,,,,,,,,,,,,,,,,,,,,,,,,,,,,,,,,,,,,,,,,,,,,,,,,,
,,,,,,,,,,,,l,0.471,Correct!,,,,,,t3.png,t1.png,2,0.056466,19,male,2020-09-16_16h58.16.961,torte-2b,2020.1.3,MacIntel,60,13384,,,,,0,44,44,0,1,,,,,,,,,,,,,,,,,,,,,,,,,,,,,,,,,,,,,,,,,,,,,,,,,,,,,,,
,,,,,,,,,,,,a,1.092,Correct!,,,,,,t5.png,t5.png,0,0.97829,19,male,2020-09-16_16h58.16.961,torte-2b,2020.1.3,MacIntel,60,13384,,,,,0,45,45,73,1,,,,,,,,,,,,,,,,,,,,,,,,,,,,,,,,,,,,,,,,,,,,,,,,,,,,,,,
,,,,,,,,,,,,l,0.808,Incorrect,,,,,,t5.png,t4.png,1,0.9,19,male,2020-09-16_16h58.16.961,torte-2b,2020.1.3,MacIntel,60,13384,,,,,0,46,46,49,1,,,,,,,,,,,,,,,,,,,,,,,,,,,,,,,,,,,,,,,,,,,,,,,,,,,,,,,
,,,,,,,,,,,,l,0.909,Correct!,,,,,,t5.png,t4.png,1,0.90025,19,male,2020-09-16_16h58.16.961,torte-2b,2020.1.3,MacIntel,60,13384,,,,,0,47,47,34,1,,,,,,,,,,,,,,,,,,,,,,,,,,,,,,,,,,,,,,,,,,,,,,,,,,,,,,,
,,,,,,,,,,,,a,0.774,Incorrect,,,,,,t1.png,t3.png,2,0.056466,19,male,2020-09-16_16h58.16.961,torte-2b,2020.1.3,MacIntel,60,13384,,,,,0,48,48,63,1,,,,,,,,,,,,,,,,,,,,,,,,,,,,,,,,,,,,,,,,,,,,,,,,,,,,,,,
,,,,,,,,,,,,l,0.629,Correct!,,,,,,t5.png,t1.png,4,9.55E-11,19,male,2020-09-16_16h58.16.961,torte-2b,2020.1.3,MacIntel,60,13384,,,,,0,49,49,43,1,,,,,,,,,,,,,,,,,,,,,,,,,,,,,,,,,,,,,,,,,,,,,,,,,,,,,,,
,,,,,,,,,,,,a,0.792,Correct!,,,,,,t3.png,t4.png,1,0.90855,19,male,2020-09-16_16h58.16.961,torte-2b,2020.1.3,MacIntel,60,13384,,,,,0,50,50,96,1,,,,,,,,,,,,,,,,,,,,,,,,,,,,,,,,,,,,,,,,,,,,,,,,,,,,,,,
,,,,,,,,,,,,l,0.926,Incorrect,,,,,,t5.png,t5.png,0,0.97829,19,male,2020-09-16_16h58.16.961,torte-2b,2020.1.3,MacIntel,60,13384,,,,,0,51,51,94,1,,,,,,,,,,,,,,,,,,,,,,,,,,,,,,,,,,,,,,,,,,,,,,,,,,,,,,,
,,,,,,,,,,,,l,0.687,Incorrect,,,,,,t3.png,t2.png,1,0.909,19,male,2020-09-16_16h58.16.961,torte-2b,2020.1.3,MacIntel,60,13384,,,,,0,52,52,3,1,,,,,,,,,,,,,,,,,,,,,,,,,,,,,,,,,,,,,,,,,,,,,,,,,,,,,,,
,,,,,,,,,,,,l,0.826,Correct!,,,,,,t5.png,t3.png,2,0.056466,19,male,2020-09-16_16h58.16.961,torte-2b,2020.1.3,MacIntel,60,13384,,,,,0,53,53,108,1,,,,,,,,,,,,,,,,,,,,,,,,,,,,,,,,,,,,,,,,,,,,,,,,,,,,,,,
,,,,,,,,,,,,l,0.843,Correct!,,,,,,t4.png,t1.png,3,0.0000131,19,male,2020-09-16_16h58.16.961,torte-2b,2020.1.3,MacIntel,60,13384,,,,,0,54,54,13,1,,,,,,,,,,,,,,,,,,,,,,,,,,,,,,,,,,,,,,,,,,,,,,,,,,,,,,,
,,,,,,,,,,,,a,0.974,Correct!,,,,,,t4.png,t4.png,0,0.98115,19,male,2020-09-16_16h58.16.961,torte-2b,2020.1.3,MacIntel,60,13384,,,,,0,55,55,79,1,,,,,,,,,,,,,,,,,,,,,,,,,,,,,,,,,,,,,,,,,,,,,,,,,,,,,,,
,,,,,,,,,,,,l,0.886,Incorrect,,,,,,t3.png,t2.png,1,0.90855,19,male,2020-09-16_16h58.16.961,torte-2b,2020.1.3,MacIntel,60,13384,,,,,0,56,56,53,1,,,,,,,,,,,,,,,,,,,,,,,,,,,,,,,,,,,,,,,,,,,,,,,,,,,,,,,
,,,,,,,,,,,,l,0.787,Correct!,,,,,,t4.png,t1.png,3,0.0000131,19,male,2020-09-16_16h58.16.961,torte-2b,2020.1.3,MacIntel,60,13384,,,,,0,57,57,42,1,,,,,,,,,,,,,,,,,,,,,,,,,,,,,,,,,,,,,,,,,,,,,,,,,,,,,,,
,,,,,,,,,,,,a,0.875,Correct!,,,,,,t1.png,t2.png,1,0.90025,19,male,2020-09-16_16h58.16.961,torte-2b,2020.1.3,MacIntel,60,13384,,,,,0,58,58,105,1,,,,,,,,,,,,,,,,,,,,,,,,,,,,,,,,,,,,,,,,,,,,,,,,,,,,,,,
,,,,,,,,,,,,l,0.607,Incorrect,,,,,,t2.png,t2.png,0,0.981,19,male,2020-09-16_16h58.16.961,torte-2b,2020.1.3,MacIntel,60,13384,,,,,0,59,59,101,1,,,,,,,,,,,,,,,,,,,,,,,,,,,,,,,,,,,,,,,,,,,,,,,,,,,,,,,
,,,,,,,,,,,,l,0.656,Correct!,,,,,,t3.png,t1.png,2,0.0565,19,male,2020-09-16_16h58.16.961,torte-2b,2020.1.3,MacIntel,60,13384,,,,,0,60,60,31,1,,,,,,,,,,,,,,,,,,,,,,,,,,,,,,,,,,,,,,,,,,,,,,,,,,,,,,,
,,,,,,,,,,,,l,0.843,Incorrect,,,,,,t3.png,t2.png,1,0.90855,19,male,2020-09-16_16h58.16.961,torte-2b,2020.1.3,MacIntel,60,13384,,,,,0,61,61,18,1,,,,,,,,,,,,,,,,,,,,,,,,,,,,,,,,,,,,,,,,,,,,,,,,,,,,,,,
,,,,,,,,,,,,l,0.69,Correct!,,,,,,t4.png,t1.png,3,0.0000131,19,male,2020-09-16_16h58.16.961,torte-2b,2020.1.3,MacIntel,60,13384,,,,,0,62,62,48,1,,,,,,,,,,,,,,,,,,,,,,,,,,,,,,,,,,,,,,,,,,,,,,,,,,,,,,,
,,,,,,,,,,,,l,1.311,Correct!,,,,,,t1.png,t3.png,2,0.056466,19,male,2020-09-16_16h58.16.961,torte-2b,2020.1.3,MacIntel,60,13384,,,,,0,63,63,69,1,,,,,,,,,,,,,,,,,,,,,,,,,,,,,,,,,,,,,,,,,,,,,,,,,,,,,,,
,,,,,,,,,,,,a,0.673,Incorrect,,,,,,t4.png,t1.png,3,0.0000131,19,male,2020-09-16_16h58.16.961,torte-2b,2020.1.3,MacIntel,60,13384,,,,,0,64,64,93,1,,,,,,,,,,,,,,,,,,,,,,,,,,,,,,,,,,,,,,,,,,,,,,,,,,,,,,,
,,,,,,,,,,,,l,0.605,Correct!,,,,,,t2.png,t5.png,3,0.0000131,19,male,2020-09-16_16h58.16.961,torte-2b,2020.1.3,MacIntel,60,13384,,,,,0,65,65,66,1,,,,,,,,,,,,,,,,,,,,,,,,,,,,,,,,,,,,,,,,,,,,,,,,,,,,,,,
,,,,,,,,,,,,l,1.144,Incorrect,,,,,,t4.png,t5.png,1,0.90025,19,male,2020-09-16_16h58.16.961,torte-2b,2020.1.3,MacIntel,60,13384,,,,,0,66,66,47,1,,,,,,,,,,,,,,,,,,,,,,,,,,,,,,,,,,,,,,,,,,,,,,,,,,,,,,,
,,,,,,,,,,,,l,1.312,Correct!,,,,,,t2.png,t5.png,3,0.0000131,19,male,2020-09-16_16h58.16.961,torte-2b,2020.1.3,MacIntel,60,13384,,,,,0,67,67,104,1,,,,,,,,,,,,,,,,,,,,,,,,,,,,,,,,,,,,,,,,,,,,,,,,,,,,,,,
,,,,,,,,,,,,l,0.623,Correct!,,,,,,t1.png,t5.png,4,9.55E-11,19,male,2020-09-16_16h58.16.961,torte-2b,2020.1.3,MacIntel,60,13384,,,,,0,68,68,55,1,,,,,,,,,,,,,,,,,,,,,,,,,,,,,,,,,,,,,,,,,,,,,,,,,,,,,,,
,,,,,,,,,,,,a,1.224,Correct!,,,,,,t3.png,t2.png,1,0.90855,19,male,2020-09-16_16h58.16.961,torte-2b,2020.1.3,MacIntel,60,13384,,,,,0,69,69,97,1,,,,,,,,,,,,,,,,,,,,,,,,,,,,,,,,,,,,,,,,,,,,,,,,,,,,,,,
,,,,,,,,,,,,a,0.606,Incorrect,,,,,,t4.png,t2.png,2,0.059078,19,male,2020-09-16_16h58.16.961,torte-2b,2020.1.3,MacIntel,60,13384,,,,,0,70,70,109,1,,,,,,,,,,,,,,,,,,,,,,,,,,,,,,,,,,,,,,,,,,,,,,,,,,,,,,,
,,,,,,,,,,,,l,0.621,Correct!,,,,,,t3.png,t5.png,2,0.056466,19,male,2020-09-16_16h58.16.961,torte-2b,2020.1.3,MacIntel,60,13384,,,,,0,71,71,44,1,,,,,,,,,,,,,,,,,,,,,,,,,,,,,,,,,,,,,,,,,,,,,,,,,,,,,,,
,,,,,,,,,,,,l,0.573,Correct!,,,,,,t1.png,t3.png,2,0.056466,19,male,2020-09-16_16h58.16.961,torte-2b,2020.1.3,MacIntel,60,13384,,,,,0,72,72,87,1,,,,,,,,,,,,,,,,,,,,,,,,,,,,,,,,,,,,,,,,,,,,,,,,,,,,,,,
,,,,,,,,,,,,l,0.471,Incorrect,,,,,,t1.png,t3.png,2,0.056466,19,male,2020-09-16_16h58.16.961,torte-2b,2020.1.3,MacIntel,60,13384,,,,,0,73,73,60,1,,,,,,,,,,,,,,,,,,,,,,,,,,,,,,,,,,,,,,,,,,,,,,,,,,,,,,,
,,,,,,,,,,,,l,0.4,Correct!,,,,,,t2.png,t5.png,3,0.0000131,19,male,2020-09-16_16h58.16.961,torte-2b,2020.1.3,MacIntel,60,13384,,,,,0,74,74,8,1,,,,,,,,,,,,,,,,,,,,,,,,,,,,,,,,,,,,,,,,,,,,,,,,,,,,,,,
,,,,,,,,,,,,l,0.818,Incorrect,,,,,,t1.png,t1.png,0,0.97829,19,male,2020-09-16_16h58.16.961,torte-2b,2020.1.3,MacIntel,60,13384,,,,,0,75,75,9,1,,,,,,,,,,,,,,,,,,,,,,,,,,,,,,,,,,,,,,,,,,,,,,,,,,,,,,,
,,,,,,,,,,,,a,0.755,Correct!,,,,,,t4.png,t3.png,1,0.90855,19,male,2020-09-16_16h58.16.961,torte-2b,2020.1.3,MacIntel,60,13384,,,,,0,76,76,75,1,,,,,,,,,,,,,,,,,,,,,,,,,,,,,,,,,,,,,,,,,,,,,,,,,,,,,,,
,,,,,,,,,,,,a,0.811,Correct!,,,,,,t1.png,t1.png,0,0.978,19,male,2020-09-16_16h58.16.961,torte-2b,2020.1.3,MacIntel,60,13384,,,,,0,77,77,28,1,,,,,,,,,,,,,,,,,,,,,,,,,,,,,,,,,,,,,,,,,,,,,,,,,,,,,,,
,,,,,,,,,,,,a,0.774,Correct!,,,,,,t4.png,t4.png,0,0.98115,19,male,2020-09-16_16h58.16.961,torte-2b,2020.1.3,MacIntel,60,13384,,,,,0,78,78,52,1,,,,,,,,,,,,,,,,,,,,,,,,,,,,,,,,,,,,,,,,,,,,,,,,,,,,,,,
,,,,,,,,,,,,a,0.587,Incorrect,,,,,,t4.png,t2.png,2,0.059078,19,male,2020-09-16_16h58.16.961,torte-2b,2020.1.3,MacIntel,60,13384,,,,,0,79,79,110,1,,,,,,,,,,,,,,,,,,,,,,,,,,,,,,,,,,,,,,,,,,,,,,,,,,,,,,,
,,,,,,,,,,,,a,0.764,Correct!,,,,,,t3.png,t2.png,1,0.909,19,male,2020-09-16_16h58.16.961,torte-2b,2020.1.3,MacIntel,60,13384,,,,,0,80,80,23,1,,,,,,,,,,,,,,,,,,,,,,,,,,,,,,,,,,,,,,,,,,,,,,,,,,,,,,,
,,,,,,,,,,,,l,0.59,Correct!,,,,,,t1.png,t5.png,4,9.55E-11,19,male,2020-09-16_16h58.16.961,torte-2b,2020.1.3,MacIntel,60,13384,,,,,0,81,81,16,1,,,,,,,,,,,,,,,,,,,,,,,,,,,,,,,,,,,,,,,,,,,,,,,,,,,,,,,
,,,,,,,,,,,,a,0.455,Incorrect,,,,,,t5.png,t1.png,4,9.55E-11,19,male,2020-09-16_16h58.16.961,torte-2b,2020.1.3,MacIntel,60,13384,,,,,0,82,82,22,1,,,,,,,,,,,,,,,,,,,,,,,,,,,,,,,,,,,,,,,,,,,,,,,,,,,,,,,
,,,,,,,,,,,,l,0.477,Correct!,,,,,,t3.png,t4.png,1,0.909,19,male,2020-09-16_16h58.16.961,torte-2b,2020.1.3,MacIntel,60,13384,,,,,0,83,83,82,1,,,,,,,,,,,,,,,,,,,,,,,,,,,,,,,,,,,,,,,,,,,,,,,,,,,,,,,
,,,,,,,,,,,,l,1.044,Incorrect,,,,,,t2.png,t2.png,0,0.98115,19,male,2020-09-16_16h58.16.961,torte-2b,2020.1.3,MacIntel,60,13384,,,,,0,84,84,59,1,,,,,,,,,,,,,,,,,,,,,,,,,,,,,,,,,,,,,,,,,,,,,,,,,,,,,,,
,,,,,,,,,,,,a,0.505,Incorrect,,,,,,t4.png,t2.png,2,0.0591,19,male,2020-09-16_16h58.16.961,torte-2b,2020.1.3,MacIntel,60,13384,,,,,0,85,85,36,1,,,,,,,,,,,,,,,,,,,,,,,,,,,,,,,,,,,,,,,,,,,,,,,,,,,,,,,
,,,,,,,,,,,,a,1.278,Incorrect,,,,,,t4.png,t1.png,3,0.0000131,19,male,2020-09-16_16h58.16.961,torte-2b,2020.1.3,MacIntel,60,13384,,,,,0,86,86,61,1,,,,,,,,,,,,,,,,,,,,,,,,,,,,,,,,,,,,,,,,,,,,,,,,,,,,,,,
,,,,,,,,,,,,a,0.69,Correct!,,,,,,t5.png,t5.png,0,0.97829,19,male,2020-09-16_16h58.16.961,torte-2b,2020.1.3,MacIntel,60,13384,,,,,0,87,87,70,1,,,,,,,,,,,,,,,,,,,,,,,,,,,,,,,,,,,,,,,,,,,,,,,,,,,,,,,
,,,,,,,,,,,,a,0.676,Correct!,,,,,,t2.png,t1.png,1,0.90025,19,male,2020-09-16_16h58.16.961,torte-2b,2020.1.3,MacIntel,60,13384,,,,,0,88,88,5,1,,,,,,,,,,,,,,,,,,,,,,,,,,,,,,,,,,,,,,,,,,,,,,,,,,,,,,,
,,,,,,,,,,,,l,0.661,Incorrect,,,,,,t2.png,t4.png,2,0.0591,19,male,2020-09-16_16h58.16.961,torte-2b,2020.1.3,MacIntel,60,13384,,,,,0,89,89,15,1,,,,,,,,,,,,,,,,,,,,,,,,,,,,,,,,,,,,,,,,,,,,,,,,,,,,,,,
,,,,,,,,,,,,a,0.523,Incorrect,,,,,,t3.png,t1.png,2,0.056466,19,male,2020-09-16_16h58.16.961,torte-2b,2020.1.3,MacIntel,60,13384,,,,,0,90,90,32,1,,,,,,,,,,,,,,,,,,,,,,,,,,,,,,,,,,,,,,,,,,,,,,,,,,,,,,,
,,,,,,,,,,,,l,0.537,Correct!,,,,,,t1.png,t4.png,3,0.0000131,19,male,2020-09-16_16h58.16.961,torte-2b,2020.1.3,MacIntel,60,13384,,,,,0,91,91,107,1,,,,,,,,,,,,,,,,,,,,,,,,,,,,,,,,,,,,,,,,,,,,,,,,,,,,,,,
,,,,,,,,,,,,a,0.505,Incorrect,,,,,,t4.png,t2.png,2,0.059078,19,male,2020-09-16_16h58.16.961,torte-2b,2020.1.3,MacIntel,60,13384,,,,,0,92,92,86,1,,,,,,,,,,,,,,,,,,,,,,,,,,,,,,,,,,,,,,,,,,,,,,,,,,,,,,,
,,,,,,,,,,,,l,0.89,Incorrect,,,,,,t3.png,t4.png,1,0.909,19,male,2020-09-16_16h58.16.961,torte-2b,2020.1.3,MacIntel,60,13384,,,,,0,93,93,89,1,,,,,,,,,,,,,,,,,,,,,,,,,,,,,,,,,,,,,,,,,,,,,,,,,,,,,,,
,,,,,,,,,,,,l,0.587,Correct!,,,,,,t1.png,t3.png,2,0.056466,19,male,2020-09-16_16h58.16.961,torte-2b,2020.1.3,MacIntel,60,13384,,,,,0,94,94,99,1,,,,,,,,,,,,,,,,,,,,,,,,,,,,,,,,,,,,,,,,,,,,,,,,,,,,,,,
,,,,,,,,,,,,a,0.54,Correct!,,,,,,t2.png,t1.png,1,0.90025,19,male,2020-09-16_16h58.16.961,torte-2b,2020.1.3,MacIntel,60,13384,,,,,0,95,95,4,1,,,,,,,,,,,,,,,,,,,,,,,,,,,,,,,,,,,,,,,,,,,,,,,,,,,,,,,
,,,,,,,,,,,,l,0.487,Correct!,,,,,,t1.png,t4.png,3,0.0000131,19,male,2020-09-16_16h58.16.961,torte-2b,2020.1.3,MacIntel,60,13384,,,,,0,96,96,50,1,,,,,,,,,,,,,,,,,,,,,,,,,,,,,,,,,,,,,,,,,,,,,,,,,,,,,,,
,,,,,,,,,,,,l,0.453,Correct!,,,,,,t2.png,t4.png,2,0.059078,19,male,2020-09-16_16h58.16.961,torte-2b,2020.1.3,MacIntel,60,13384,,,,,0,97,97,11,1,,,,,,,,,,,,,,,,,,,,,,,,,,,,,,,,,,,,,,,,,,,,,,,,,,,,,,,
,,,,,,,,,,,,l,0.419,Correct!,,,,,,t2.png,t5.png,3,0.0000131,19,male,2020-09-16_16h58.16.961,torte-2b,2020.1.3,MacIntel,60,13384,,,,,0,98,98,40,1,,,,,,,,,,,,,,,,,,,,,,,,,,,,,,,,,,,,,,,,,,,,,,,,,,,,,,,
,,,,,,,,,,,,l,0.42,Correct!,,,,,,t1.png,t4.png,3,0.0000131,19,male,2020-09-16_16h58.16.961,torte-2b,2020.1.3,MacIntel,60,13384,,,,,0,99,99,17,1,,,,,,,,,,,,,,,,,,,,,,,,,,,,,,,,,,,,,,,,,,,,,,,,,,,,,,,
,,,,,,,,,,,,l,0.774,Incorrect,,,,,,t2.png,t3.png,1,0.90855,19,male,2020-09-16_16h58.16.961,torte-2b,2020.1.3,MacIntel,60,13384,,,,,0,100,100,68,1,,,,,,,,,,,,,,,,,,,,,,,,,,,,,,,,,,,,,,,,,,,,,,,,,,,,,,,
,,,,,,,,,,,,l,0.606,Incorrect,,,,,,t4.png,t5.png,1,0.90025,19,male,2020-09-16_16h58.16.961,torte-2b,2020.1.3,MacIntel,60,13384,,,,,0,101,101,58,1,,,,,,,,,,,,,,,,,,,,,,,,,,,,,,,,,,,,,,,,,,,,,,,,,,,,,,,
,,,,,,,,,,,,l,1.164,Correct!,,,,,,t2.png,t1.png,1,0.9,19,male,2020-09-16_16h58.16.961,torte-2b,2020.1.3,MacIntel,60,13384,,,,,0,102,102,118,1,,,,,,,,,,,,,,,,,,,,,,,,,,,,,,,,,,,,,,,,,,,,,,,,,,,,,,,
,,,,,,,,,,,,a,1.043,Correct!,,,,,,t1.png,t1.png,0,0.97829,19,male,2020-09-16_16h58.16.961,torte-2b,2020.1.3,MacIntel,60,13384,,,,,0,103,103,78,1,,,,,,,,,,,,,,,,,,,,,,,,,,,,,,,,,,,,,,,,,,,,,,,,,,,,,,,
,,,,,,,,,,,,a,1.414,Correct!,,,,,,t4.png,t3.png,1,0.909,19,male,2020-09-16_16h58.16.961,torte-2b,2020.1.3,MacIntel,60,13384,,,,,0,104,104,46,1,,,,,,,,,,,,,,,,,,,,,,,,,,,,,,,,,,,,,,,,,,,,,,,,,,,,,,,
,,,,,,,,,,,,a,0.484,Incorrect,,,,,,t5.png,t1.png,4,9.55E-11,19,male,2020-09-16_16h58.16.961,torte-2b,2020.1.3,MacIntel,60,13384,,,,,0,105,105,100,1,,,,,,,,,,,,,,,,,,,,,,,,,,,,,,,,,,,,,,,,,,,,,,,,,,,,,,,
,,,,,,,,,,,,a,0.427,Correct!,,,,,,t3.png,t4.png,1,0.90855,19,male,2020-09-16_16h58.16.961,torte-2b,2020.1.3,MacIntel,60,13384,,,,,0,106,106,84,1,,,,,,,,,,,,,,,,,,,,,,,,,,,,,,,,,,,,,,,,,,,,,,,,,,,,,,,
,,,,,,,,,,,,l,0.506,Correct!,,,,,,t2.png,t4.png,2,0.059078,19,male,2020-09-16_16h58.16.961,torte-2b,2020.1.3,MacIntel,60,13384,,,,,0,107,107,24,1,,,,,,,,,,,,,,,,,,,,,,,,,,,,,,,,,,,,,,,,,,,,,,,,,,,,,,,
,,,,,,,,,,,,a,0.585,Incorrect,,,,,,t5.png,t3.png,2,0.056466,19,male,2020-09-16_16h58.16.961,torte-2b,2020.1.3,MacIntel,60,13384,,,,,0,108,108,114,1,,,,,,,,,,,,,,,,,,,,,,,,,,,,,,,,,,,,,,,,,,,,,,,,,,,,,,,
,,,,,,,,,,,,a,0.522,Incorrect,,,,,,t4.png,t2.png,2,0.059078,19,male,2020-09-16_16h58.16.961,torte-2b,2020.1.3,MacIntel,60,13384,,,,,0,109,109,88,1,,,,,,,,,,,,,,,,,,,,,,,,,,,,,,,,,,,,,,,,,,,,,,,,,,,,,,,
,,,,,,,,,,,,l,0.905,Incorrect,,,,,,t2.png,t3.png,1,0.90855,19,male,2020-09-16_16h58.16.961,torte-2b,2020.1.3,MacIntel,60,13384,,,,,0,110,110,65,1,,,,,,,,,,,,,,,,,,,,,,,,,,,,,,,,,,,,,,,,,,,,,,,,,,,,,,,
,,,,,,,,,,,,a,0.57,Incorrect,,,,,,t5.png,t3.png,2,0.056466,19,male,2020-09-16_16h58.16.961,torte-2b,2020.1.3,MacIntel,60,13384,,,,,0,111,111,56,1,,,,,,,,,,,,,,,,,,,,,,,,,,,,,,,,,,,,,,,,,,,,,,,,,,,,,,,
,,,,,,,,,,,,a,0.606,Correct!,,,,,,t4.png,t3.png,1,0.909,19,male,2020-09-16_16h58.16.961,torte-2b,2020.1.3,MacIntel,60,13384,,,,,0,112,112,20,1,,,,,,,,,,,,,,,,,,,,,,,,,,,,,,,,,,,,,,,,,,,,,,,,,,,,,,,
,,,,,,,,,,,,a,0.454,Incorrect,,,,,,t5.png,t4.png,1,0.90025,19,male,2020-09-16_16h58.16.961,torte-2b,2020.1.3,MacIntel,60,13384,,,,,0,113,113,26,1,,,,,,,,,,,,,,,,,,,,,,,,,,,,,,,,,,,,,,,,,,,,,,,,,,,,,,,
,,,,,,,,,,,,l,1.094,Incorrect,,,,,,t1.png,t2.png,1,0.90025,19,male,2020-09-16_16h58.16.961,torte-2b,2020.1.3,MacIntel,60,13384,,,,,0,114,114,72,1,,,,,,,,,,,,,,,,,,,,,,,,,,,,,,,,,,,,,,,,,,,,,,,,,,,,,,,
,,,,,,,,,,,,l,0.53,Correct!,,,,,,t1.png,t5.png,4,9.55E-11,19,male,2020-09-16_16h58.16.961,torte-2b,2020.1.3,MacIntel,60,13384,,,,,0,115,115,85,1,,,,,,,,,,,,,,,,,,,,,,,,,,,,,,,,,,,,,,,,,,,,,,,,,,,,,,,
,,,,,,,,,,,,l,0.764,Correct!,,,,,,t2.png,t4.png,2,0.059078,19,male,2020-09-16_16h58.16.961,torte-2b,2020.1.3,MacIntel,60,13384,,,,,0,116,116,37,1,,,,,,,,,,,,,,,,,,,,,,,,,,,,,,,,,,,,,,,,,,,,,,,,,,,,,,,
,,,,,,,,,,,,a,0.689,Incorrect,,,,,,t3.png,t1.png,2,0.056466,19,male,2020-09-16_16h58.16.961,torte-2b,2020.1.3,MacIntel,60,13384,,,,,0,117,117,64,1,,,,,,,,,,,,,,,,,,,,,,,,,,,,,,,,,,,,,,,,,,,,,,,,,,,,,,,
,,,,,,,,,,,,l,0.844,Incorrect,,,,,,t2.png,t3.png,1,0.909,19,male,2020-09-16_16h58.16.961,torte-2b,2020.1.3,MacIntel,60,13384,,,,,0,118,118,74,1,,,,,,,,,,,,,,,,,,,,,,,,,,,,,,,,,,,,,,,,,,,,,,,,,,,,,,,
,,,,,,,,,,,,l,0.875,Incorrect,,,,,,t4.png,t4.png,0,0.98115,19,male,2020-09-16_16h58.16.961,torte-2b,2020.1.3,MacIntel,60,13384,,,,,0,119,119,80,1,,,,,,,,,,,,,,,,,,,,,,,,,,,,,,,,,,,,,,,,,,,,,,,,,,,,,,,
,,,,,,,,,,,,,,,,,,,,,,,,19,male,2020-09-16_16h58.16.961,torte-2b,2020.1.3,MacIntel,60,13384,space,1.699,,,,,,,,space,19.739,,0,0,0,0,1,6,,,,,,,,,,,,,,,,,,,,,,,,,,,,,,,,,,,,,,,,,,,,,,
,,,,,,,,,,,,,,,,,,,,,,,,19,male,2020-09-16_16h58.16.961,torte-2b,2020.1.3,MacIntel,60,13384,,,,,,,,,,,,,0,1,1,1,1,7,,,,,,,,,,,,,,,,,,,,,,,,,,,,,,,,,,,,,,,,,,,,,,
,,,,,,,,,,,,,,,,,,,,,,,,19,male,2020-09-16_16h58.16.961,torte-2b,2020.1.3,MacIntel,60,13384,,,,,,,,,,,,,0,2,2,2,1,6,,,,,,,,,,,,,,,,,,,,,,,,,,,,,,,,,,,,,,,,,,,,,,
,,,,,,,,,,,,,,,,,,,,,,,,19,male,2020-09-16_16h58.16.961,torte-2b,2020.1.3,MacIntel,60,13384,,,,,,,,,,,,,0,3,3,3,1,7,,,,,,,,,,,,,,,,,,,,,,,,,,,,,,,,,,,,,,,,,,,,,,
,,,,,,,,,,,,,,,,,,,,,,,,19,male,2020-09-16_16h58.16.961,torte-2b,2020.1.3,MacIntel,60,13384,,,,,,,,,,,,,0,4,4,4,1,5,,,,,,,,,,,,,,,,,,,,,,,,,,,,,,,,,,,,,,,,,,,,,,
,,,,,,,,,,,,,,,,,,,,,,,,19,male,2020-09-16_16h58.16.961,torte-2b,2020.1.3,MacIntel,60,13384,,,,,,,,,,,,,0,5,5,5,1,7,,,,,,,,,,,,,,,,,,,,,,,,,,,,,,,,,,,,,,,,,,,,,,
,,,,,,,,,,,,,,,,,,,,,,,,19,male,2020-09-16_16h58.16.961,torte-2b,2020.1.3,MacIntel,60,13384,,,,,,,,,,,,,0,6,6,6,1,2,,,,,,,,,,,,,,,,,,,,,,,,,,,,,,,,,,,,,,,,,,,,,,
,,,,,,,,,,,,,,,,,,,,,,,,19,male,2020-09-16_16h58.16.961,torte-2b,2020.1.3,MacIntel,60,13384,,,,,,,,,,,,,0,7,7,7,1,4,,,,,,,,,,,,,,,,,,,,,,,,,,,,,,,,,,,,,,,,,,,,,,
,,,,,,,,,,,,,,,,,,,,,,,,19,male,2020-09-16_16h58.16.961,torte-2b,2020.1.3,MacIntel,60,13384,,,,,,,,,,,,,0,8,8,8,1,7,,,,,,,,,,,,,,,,,,,,,,,,,,,,,,,,,,,,,,,,,,,,,,
,,,,,,,,,,,,,,,,,,,,,,,,19,male,2020-09-16_16h58.16.961,torte-2b,2020.1.3,MacIntel,60,13384,,,,,,,,,,,,,0,9,9,9,1,4,,,,,,,,,,,,,,,,,,,,,,,,,,,,,,,,,,,,,,,,,,,,,,
,,,,,,,,,,,,,,,,,,,,,,,,19,male,2020-09-16_16h58.16.961,torte-2b,2020.1.3,MacIntel,60,13384,,,,,,,,,,,,,0,10,10,10,1,7,,,,,,,,,,,,,,,,,,,,,,,,,,,,,,,,,,,,,,,,,,,,,,
,,,,,,,,,,,,,,,,,,,,,,,,19,male,2020-09-16_16h58.16.961,torte-2b,2020.1.3,MacIntel,60,13384,,,,,,,,,,,,,0,11,11,11,1,7,,,,,,,,,,,,,,,,,,,,,,,,,,,,,,,,,,,,,,,,,,,,,,
,,,,,,,,,,,,,,,,,,,,,,,,19,male,2020-09-16_16h58.16.961,torte-2b,2020.1.3,MacIntel,60,13384,,,,,,,,,,,,,0,12,12,12,1,7,,,,,,,,,,,,,,,,,,,,,,,,,,,,,,,,,,,,,,,,,,,,,,
,,,,,,,,,,,,,,,,,,,,,,,,19,male,2020-09-16_16h58.16.961,torte-2b,2020.1.3,MacIntel,60,13384,,,,,,,,,,,,,0,13,13,13,1,4,,,,,,,,,,,,,,,,,,,,,,,,,,,,,,,,,,,,,,,,,,,,,,
,,,,,,,,,,,,,,,,,,,,,,,,19,male,2020-09-16_16h58.16.961,torte-2b,2020.1.3,MacIntel,60,13384,,,,,,,,,,,,,0,14,14,14,1,6,,,,,,,,,,,,,,,,,,,,,,,,,,,,,,,,,,,,,,,,,,,,,,
,,,,,,,,,,,,,,,,,,,,,,,,19,male,2020-09-16_16h58.16.961,torte-2b,2020.1.3,MacIntel,60,13384,,,,,,,,,,,,,0,15,15,15,1,4,,,,,,,,,,,,,,,,,,,,,,,,,,,,,,,,,,,,,,,,,,,,,,
,,,,,,,,,,,,,,,,,,,,,,,,19,male,2020-09-16_16h58.16.961,torte-2b,2020.1.3,MacIntel,60,13384,,,,,,,,,,,,,0,16,16,16,1,6,,,,,,,,,,,,,,,,,,,,,,,,,,,,,,,,,,,,,,,,,,,,,,
,,,,,,,,,,,,,,,,,,,,,,,,19,male,2020-09-16_16h58.16.961,torte-2b,2020.1.3,MacIntel,60,13384,,,,,,,,,,,,,0,17,17,17,1,7,,,,,,,,,,,,,,,,,,,,,,,,,,,,,,,,,,,,,,,,,,,,,,
,,,,,,,,,,,,,,,,,,,,,,,,19,male,2020-09-16_16h58.16.961,torte-2b,2020.1.3,MacIntel,60,13384,,,,,,,,,,,,,0,18,18,18,1,6,,,,,,,,,,,,,,,,,,,,,,,,,,,,,,,,,,,,,,,,,,,,,,
,,,,,,,,,,,,,,,,,,,,,,,,19,male,2020-09-16_16h58.16.961,torte-2b,2020.1.3,MacIntel,60,13384,,,,,,,,,,,,,0,19,19,19,1,7,,,,,,,,,,,,,,,,,,,,,,,,,,,,,,,,,,,,,,,,,,,,,,
,,,,,,,,,,,,,,,,,,,,,,,,19,male,2020-09-16_16h58.16.961,torte-2b,2020.1.3,MacIntel,60,13384,,,,,,,,,,,,,0,20,20,20,1,5,,,,,,,,,,,,,,,,,,,,,,,,,,,,,,,,,,,,,,,,,,,,,,
,,,,,,,,,,,,,,,,,,,,,,,,19,male,2020-09-16_16h58.16.961,torte-2b,2020.1.3,MacIntel,60,13384,,,,,,,,,,,,,0,21,21,21,1,1,,,,,,,,,,,,,,,,,,,,,,,,,,,,,,,,,,,,,,,,,,,,,,
,,,,,,,,,,,,,,,,,,,,,,,,19,male,2020-09-16_16h58.16.961,torte-2b,2020.1.3,MacIntel,60,13384,,,,,,,,,,,,,0,22,22,22,1,6,,,,,,,,,,,,,,,,,,,,,,,,,,,,,,,,,,,,,,,,,,,,,,
,,,,,,,,,,,,,,,,,,,,,,,,19,male,2020-09-16_16h58.16.961,torte-2b,2020.1.3,MacIntel,60,13384,,,,,,,,,,,,,0,23,23,23,1,1,,,,,,,,,,,,,,,,,,,,,,,,,,,,,,,,,,,,,,,,,,,,,,
,,,,,,,,,,,,,,,,,,,,,,,,19,male,2020-09-16_16h58.16.961,torte-2b,2020.1.3,MacIntel,60,13384,,,,,,,,,,,,,0,24,24,24,1,5,,,,,,,,,,,,,,,,,,,,,,,,,,,,,,,,,,,,,,,,,,,,,,
,,,,,,,,,,,,,,,,,,,,,,,,19,male,2020-09-16_16h58.16.961,torte-2b,2020.1.3,MacIntel,60,13384,,,,,,,,,,,,,0,25,25,25,1,6,,,,,,,,,,,,,,,,,,,,,,,,,,,,,,,,,,,,,,,,,,,,,,
,,,,,,,,,,,,,,,,,,,,,,,,19,male,2020-09-16_16h58.16.961,torte-2b,2020.1.3,MacIntel,60,13384,,,,,,,,,,,,,0,26,26,26,1,6,,,,,,,,,,,,,,,,,,,,,,,,,,,,,,,,,,,,,,,,,,,,,,
,,,,,,,,,,,,,,,,,,,,,,,,19,male,2020-09-16_16h58.16.961,torte-2b,2020.1.3,MacIntel,60,13384,,,,,,,,,,,,,0,27,27,27,1,6,,,,,,,,,,,,,,,,,,,,,,,,,,,,,,,,,,,,,,,,,,,,,,
,,,,,,,,,,,,,,,,,,,,,,,,19,male,2020-09-16_16h58.16.961,torte-2b,2020.1.3,MacIntel,60,13384,,,,,,,,,,,,,0,28,28,28,1,5,,,,,,,,,,,,,,,,,,,,,,,,,,,,,,,,,,,,,,,,,,,,,,
,,,,,,,,,,,,,,,,,,,,,,,,19,male,2020-09-16_16h58.16.961,torte-2b,2020.1.3,MacIntel,60,13384,,,,,,,,,,,,,0,29,29,29,1,2,,,,,,,,,,,,,,,,,,,,,,,,,,,,,,,,,,,,,,,,,,,,,,
,,,,,,,,,,,,,,,,,,,,,,,,19,male,2020-09-16_16h58.16.961,torte-2b,2020.1.3,MacIntel,60,13384,,,,,,,,,,,,,0,30,30,30,1,5,,,,,,,,,,,,,,,,,,,,,,,,,,,,,,,,,,,,,,,,,,,,,,
,,,,,,,,,,,,,,,,,,,,,,,,19,male,2020-09-16_16h58.16.961,torte-2b,2020.1.3,MacIntel,60,13384,,,,,,,,,,,,,0,31,31,31,1,2,,,,,,,,,,,,,,,,,,,,,,,,,,,,,,,,,,,,,,,,,,,,,,
,,,,,,,,,,,,,,,,,,,,,,,,19,male,2020-09-16_16h58.16.961,torte-2b,2020.1.3,MacIntel,60,13384,,,,,,,,,,,,,0,32,32,32,1,5,,,,,,,,,,,,,,,,,,,,,,,,,,,,,,,,,,,,,,,,,,,,,,
,,,,,,,,,,,,,,,,,,,,,,,,19,male,2020-09-16_16h58.16.961,torte-2b,2020.1.3,MacIntel,60,13384,,,,,,,,,,,,,0,33,33,33,1,1,,,,,,,,,,,,,,,,,,,,,,,,,,,,,,,,,,,,,,,,,,,,,,
,,,,,,,,,,,,,,,,,,,,,,,,19,male,2020-09-16_16h58.16.961,torte-2b,2020.1.3,MacIntel,60,13384,,,,,,,,,,,,,0,34,34,34,1,1,,,,,,,,,,,,,,,,,,,,,,,,,,,,,,,,,,,,,,,,,,,,,,
,,,,,,,,,,,,,,,,,,,,,,,,19,male,2020-09-16_16h58.16.961,torte-2b,2020.1.3,MacIntel,60,13384,,,,,,,,,,,,,,,,,,2,0,0,0,0,1,,,,,,,,,,,,,,,,,,,,,,,,,,,,,,,,,,,,,,,,,
,,,,,,,,,,,,,,,,,,,,,,,,19,male,2020-09-16_16h58.16.961,torte-2b,2020.1.3,MacIntel,60,13384,,,,,,,,,,,,,,,,,,2,0,1,1,1,1,,,,,,,,,,,,,,,,,,,,,,,,,,,,,,,,,,,,,,,,,
,,,,,,,,,,,,,,,,,,,,,,,,19,male,2020-09-16_16h58.16.961,torte-2b,2020.1.3,MacIntel,60,13384,,,,,,,,,,,,,,,,,,6,0,2,2,2,1,,,,,,,,,,,,,,,,,,,,,,,,,,,,,,,,,,,,,,,,,
,,,,,,,,,,,,,,,,,,,,,,,,19,male,2020-09-16_16h58.16.961,torte-2b,2020.1.3,MacIntel,60,13384,,,,,,,,,,,,,,,,,,2,0,3,3,3,1,,,,,,,,,,,,,,,,,,,,,,,,,,,,,,,,,,,,,,,,,
,,,,,,,,,,,,,,,,,,,,,,,,19,male,2020-09-16_16h58.16.961,torte-2b,2020.1.3,MacIntel,60,13384,,,,,,,,,,,,,,,,,,6,0,4,4,4,1,,,,,,,,,,,,,,,,,,,,,,,,,,,,,,,,,,,,,,,,,
,,,,,,,,,,,,,,,,,,,,,,,,19,male,2020-09-16_16h58.16.961,torte-2b,2020.1.3,MacIntel,60,13384,,,,,,,,,,,,,,,,,,2,0,5,5,5,1,,,,,,,,,,,,,,,,,,,,,,,,,,,,,,,,,,,,,,,,,
,,,,,,,,,,,,,,,,,,,,,,,,19,male,2020-09-16_16h58.16.961,torte-2b,2020.1.3,MacIntel,60,13384,,,,,,,,,,,,,,,,,,7,0,6,6,6,1,,,,,,,,,,,,,,,,,,,,,,,,,,,,,,,,,,,,,,,,,
,,,,,,,,,,,,,,,,,,,,,,,,19,male,2020-09-16_16h58.16.961,torte-2b,2020.1.3,MacIntel,60,13384,,,,,,,,,,,,,,,,,,2,0,7,7,7,1,,,,,,,,,,,,,,,,,,,,,,,,,,,,,,,,,,,,,,,,,
,,,,,,,,,,,,,,,,,,,,,,,,19,male,2020-09-16_16h58.16.961,torte-2b,2020.1.3,MacIntel,60,13384,,,,,,,,,,,,,,,,,,7,0,8,8,8,1,,,,,,,,,,,,,,,,,,,,,,,,,,,,,,,,,,,,,,,,,
,,,,,,,,,,,,,,,,,,,,,,,,19,male,2020-09-16_16h58.16.961,torte-2b,2020.1.3,MacIntel,60,13384,,,,,,,,,,,,,,,,,,2,0,9,9,9,1,,,,,,,,,,,,,,,,,,,,,,,,,,,,,,,,,,,,,,,,,
,,,,,,,,,,,,,,,,,,,,,,,,19,male,2020-09-16_16h58.16.961,torte-2b,2020.1.3,MacIntel,60,13384,,,,,,,,,,,,,,,,,,5,0,10,10,10,1,,,,,,,,,,,,,,,,,,,,,,,,,,,,,,,,,,,,,,,,,
,,,,,,,,,,,,,,,,,,,,,,,,19,male,2020-09-16_16h58.16.961,torte-2b,2020.1.3,MacIntel,60,13384,,,,,,,,,,,,,,,,,,4,0,11,11,11,1,,,,,,,,,,,,,,,,,,,,,,,,,,,,,,,,,,,,,,,,,
,,,,,,,,,,,,,,,,,,,,,,,,19,male,2020-09-16_16h58.16.961,torte-2b,2020.1.3,MacIntel,60,13384,,,,,,,,,,,,,,,,,,5,0,12,12,12,1,,,,,,,,,,,,,,,,,,,,,,,,,,,,,,,,,,,,,,,,,
,,,,,,,,,,,,,,,,,,,,,,,,19,male,2020-09-16_16h58.16.961,torte-2b,2020.1.3,MacIntel,60,13384,,,,,,,,,,,,,,,,,,6,0,13,13,13,1,,,,,,,,,,,,,,,,,,,,,,,,,,,,,,,,,,,,,,,,,
,,,,,,,,,,,,,,,,,,,,,,,,19,male,2020-09-16_16h58.16.961,torte-2b,2020.1.3,MacIntel,60,13384,,,,,,,,,,,,,,,,,,5,0,14,14,14,1,,,,,,,,,,,,,,,,,,,,,,,,,,,,,,,,,,,,,,,,,
,,,,,,,,,,,,,,,,,,,,,,,,19,male,2020-09-16_16h58.16.961,torte-2b,2020.1.3,MacIntel,60,13384,,,,,,,,,,,,,,,,,,4,0,15,15,15,1,,,,,,,,,,,,,,,,,,,,,,,,,,,,,,,,,,,,,,,,,
,,,,,,,,,,,,,,,,,,,,,,,,19,male,2020-09-16_16h58.16.961,torte-2b,2020.1.3,MacIntel,60,13384,,,,,,,,,,,,,,,,,,5,0,16,16,16,1,,,,,,,,,,,,,,,,,,,,,,,,,,,,,,,,,,,,,,,,,
,,,,,,,,,,,,,,,,,,,,,,,,19,male,2020-09-16_16h58.16.961,torte-2b,2020.1.3,MacIntel,60,13384,,,,,,,,,,,,,,,,,,3,0,17,17,17,1,,,,,,,,,,,,,,,,,,,,,,,,,,,,,,,,,,,,,,,,,
,,,,,,,,,,,,,,,,,,,,,,,,19,male,2020-09-16_16h58.16.961,torte-2b,2020.1.3,MacIntel,60,13384,,,,,,,,,,,,,,,,,,6,0,18,18,18,1,,,,,,,,,,,,,,,,,,,,,,,,,,,,,,,,,,,,,,,,,
,,,,,,,,,,,,,,,,,,,,,,,,19,male,2020-09-16_16h58.16.961,torte-2b,2020.1.3,MacIntel,60,13384,,,,,,,,,,,,,,,,,,6,0,19,19,19,1,,,,,,,,,,,,,,,,,,,,,,,,,,,,,,,,,,,,,,,,,
,,,,,,,,,,,,,,,,,,,,,,,,19,male,2020-09-16_16h58.16.961,torte-2b,2020.1.3,MacIntel,60,13384,,,,,,,,,,,,,,,,,,6,0,20,20,20,1,,,,,,,,,,,,,,,,,,,,,,,,,,,,,,,,,,,,,,,,,
,,,,,,,,,,,,,,,,,,,,,,,,19,male,2020-09-16_16h58.16.961,torte-2b,2020.1.3,MacIntel,60,13384,,,,,,,,,,,,,,,,,,4,0,21,21,21,1,,,,,,,,,,,,,,,,,,,,,,,,,,,,,,,,,,,,,,,,,
,,,,,,,,,,,,,,,,,,,,,,,,19,male,2020-09-16_16h58.16.961,torte-2b,2020.1.3,MacIntel,60,13384,,,,,,,,,,,,,,,,,,6,0,22,22,22,1,,,,,,,,,,,,,,,,,,,,,,,,,,,,,,,,,,,,,,,,,
,,,,,,,,,,,,,,,,,,,,,,,,19,male,2020-09-16_16h58.16.961,torte-2b,2020.1.3,MacIntel,60,13384,,,,,,,,,,,,,,,,,,4,0,23,23,23,1,,,,,,,,,,,,,,,,,,,,,,,,,,,,,,,,,,,,,,,,,
,,,,,,,,,,,,,,,,,,,,,,,,19,male,2020-09-16_16h58.16.961,torte-2b,2020.1.3,MacIntel,60,13384,,,,,,,,,,,,,,,,,,6,0,24,24,24,1,,,,,,,,,,,,,,,,,,,,,,,,,,,,,,,,,,,,,,,,,
,,,,,,,,,,,,,,,,,,,,,,,,19,male,2020-09-16_16h58.16.961,torte-2b,2020.1.3,MacIntel,60,13384,,,,,,,,,,,,,,,,,,6,0,25,25,25,1,,,,,,,,,,,,,,,,,,,,,,,,,,,,,,,,,,,,,,,,,
,,,,,,,,,,,,,,,,,,,,,,,,19,male,2020-09-16_16h58.16.961,torte-2b,2020.1.3,MacIntel,60,13384,,,,,,,,,,,,,,,,,,7,0,26,26,26,1,,,,,,,,,,,,,,,,,,,,,,,,,,,,,,,,,,,,,,,,,
,,,,,,,,,,,,,,,,,,,,,,,,19,male,2020-09-16_16h58.16.961,torte-2b,2020.1.3,MacIntel,60,13384,,,,,,,,,,,,,,,,,,1,0,27,27,27,1,,,,,,,,,,,,,,,,,,,,,,,,,,,,,,,,,,,,,,,,,
,,,,,,,,,,,,,,,,,,,,,,,,19,male,2020-09-16_16h58.16.961,torte-2b,2020.1.3,MacIntel,60,13384,,,,,,,,,,,,,,,,,,7,0,28,28,28,1,,,,,,,,,,,,,,,,,,,,,,,,,,,,,,,,,,,,,,,,,
,,,,,,,,,,,,,,,,,,,,,,,,19,male,2020-09-16_16h58.16.961,torte-2b,2020.1.3,MacIntel,60,13384,,,,,,,,,,,,,,,,,,4,0,29,29,29,1,,,,,,,,,,,,,,,,,,,,,,,,,,,,,,,,,,,,,,,,,
,,,,,,,,,,,,,,,,,,,,,,,,19,male,2020-09-16_16h58.16.961,torte-2b,2020.1.3,MacIntel,60,13384,,,,,,,,,,,,,,,,,,7,0,30,30,30,1,,,,,,,,,,,,,,,,,,,,,,,,,,,,,,,,,,,,,,,,,
,,,,,,,,,,,,,,,,,,,,,,,,19,male,2020-09-16_16h58.16.961,torte-2b,2020.1.3,MacIntel,60,13384,,,,,,,,,,,,,,,,,,3,0,31,31,31,1,,,,,,,,,,,,,,,,,,,,,,,,,,,,,,,,,,,,,,,,,
,,,,,,,,,,,,,,,,,,,,,,,,19,male,2020-09-16_16h58.16.961,torte-2b,2020.1.3,MacIntel,60,13384,,,,,,,,,,,,,,,,,,2,0,32,32,32,1,,,,,,,,,,,,,,,,,,,,,,,,,,,,,,,,,,,,,,,,,
,,,,,,,,,,,,,,,,,,,,,,,,19,male,2020-09-16_16h58.16.961,torte-2b,2020.1.3,MacIntel,60,13384,,,,,,,,,,,,,,,,,,6,0,33,33,33,1,,,,,,,,,,,,,,,,,,,,,,,,,,,,,,,,,,,,,,,,,
,,,,,,,,,,,,,,,,,,,,,,,,19,male,2020-09-16_16h58.16.961,torte-2b,2020.1.3,MacIntel,60,13384,,,,,,,,,,,,,,,,,,3,0,34,34,34,1,,,,,,,,,,,,,,,,,,,,,,,,,,,,,,,,,,,,,,,,,
,,,,,,,,,,,,,,,,,,,,,,,,19,male,2020-09-16_16h58.16.961,torte-2b,2020.1.3,MacIntel,60,13384,,,,,,,,,,,,,,,,,,7,,,,,,0,0,0,0,1,,,,,,,,,,,,,,,,,,,,,,,,,,,,,,,,,,,,
,,,,,,,,,,,,,,,,,,,,,,,,19,male,2020-09-16_16h58.16.961,torte-2b,2020.1.3,MacIntel,60,13384,,,,,,,,,,,,,,,,,,5,,,,,,0,1,1,1,1,,,,,,,,,,,,,,,,,,,,,,,,,,,,,,,,,,,,
,,,,,,,,,,,,,,,,,,,,,,,,19,male,2020-09-16_16h58.16.961,torte-2b,2020.1.3,MacIntel,60,13384,,,,,,,,,,,,,,,,,,4,,,,,,0,2,2,2,1,,,,,,,,,,,,,,,,,,,,,,,,,,,,,,,,,,,,
,,,,,,,,,,,,,,,,,,,,,,,,19,male,2020-09-16_16h58.16.961,torte-2b,2020.1.3,MacIntel,60,13384,,,,,,,,,,,,,,,,,,5,,,,,,0,3,3,3,1,,,,,,,,,,,,,,,,,,,,,,,,,,,,,,,,,,,,
,,,,,,,,,,,,,,,,,,,,,,,,19,male,2020-09-16_16h58.16.961,torte-2b,2020.1.3,MacIntel,60,13384,,,,,,,,,,,,,,,,,,6,,,,,,0,4,4,4,1,,,,,,,,,,,,,,,,,,,,,,,,,,,,,,,,,,,,
,,,,,,,,,,,,,,,,,,,,,,,,19,male,2020-09-16_16h58.16.961,torte-2b,2020.1.3,MacIntel,60,13384,,,,,,,,,,,,,,,,,,5,,,,,,0,5,5,5,1,,,,,,,,,,,,,,,,,,,,,,,,,,,,,,,,,,,,
,,,,,,,,,,,,,,,,,,,,,,,,19,male,2020-09-16_16h58.16.961,torte-2b,2020.1.3,MacIntel,60,13384,,,,,,,,,,,,,,,,,,3,,,,,,0,6,6,6,1,,,,,,,,,,,,,,,,,,,,,,,,,,,,,,,,,,,,
,,,,,,,,,,,,,,,,,,,,,,,,19,male,2020-09-16_16h58.16.961,torte-2b,2020.1.3,MacIntel,60,13384,,,,,,,,,,,,,,,,,,4,,,,,,0,7,7,7,1,,,,,,,,,,,,,,,,,,,,,,,,,,,,,,,,,,,,
,,,,,,,,,,,,,,,,,,,,,,,,19,male,2020-09-16_16h58.16.961,torte-2b,2020.1.3,MacIntel,60,13384,,,,,,,,,,,,,,,,,,3,,,,,,0,8,8,8,1,,,,,,,,,,,,,,,,,,,,,,,,,,,,,,,,,,,,
,,,,,,,,,,,,,,,,,,,,,,,,19,male,2020-09-16_16h58.16.961,torte-2b,2020.1.3,MacIntel,60,13384,,,,,,,,,,,,,,,,,,1,,,,,,0,9,9,9,1,,,,,,,,,,,,,,,,,,,,,,,,,,,,,,,,,,,,
,,,,,,,,,,,,,,,,,,,,,,,,19,male,2020-09-16_16h58.16.961,torte-2b,2020.1.3,MacIntel,60,13384,,,,,,,,,,,,,,,,,,2,,,,,,0,10,10,10,1,,,,,,,,,,,,,,,,,,,,,,,,,,,,,,,,,,,,
,,,,,,,,,,,,,,,,,,,,,,,,19,male,2020-09-16_16h58.16.961,torte-2b,2020.1.3,MacIntel,60,13384,,,,,,,,,,,,,,,,,,1,,,,,,0,11,11,11,1,,,,,,,,,,,,,,,,,,,,,,,,,,,,,,,,,,,,
,,,,,,,,,,,,,,,,,,,,,,,,19,male,2020-09-16_16h58.16.961,torte-2b,2020.1.3,MacIntel,60,13384,,,,,,,,,,,,,,,,,,2,,,,,,0,12,12,12,1,,,,,,,,,,,,,,,,,,,,,,,,,,,,,,,,,,,,
,,,,,,,,,,,,,,,,,,,,,,,,19,male,2020-09-16_16h58.16.961,torte-2b,2020.1.3,MacIntel,60,13384,,,,,,,,,,,,,,,,,,1,,,,,,0,13,13,13,1,,,,,,,,,,,,,,,,,,,,,,,,,,,,,,,,,,,,
,,,,,,,,,,,,,,,,,,,,,,,,19,male,2020-09-16_16h58.16.961,torte-2b,2020.1.3,MacIntel,60,13384,,,,,,,,,,,,,,,,,,3,,,,,,0,14,14,14,1,,,,,,,,,,,,,,,,,,,,,,,,,,,,,,,,,,,,
,,,,,,,,,,,,,,,,,,,,,,,,19,male,2020-09-16_16h58.16.961,torte-2b,2020.1.3,MacIntel,60,13384,,,,,,,,,,,,,,,,,,1,,,,,,0,15,15,15,1,,,,,,,,,,,,,,,,,,,,,,,,,,,,,,,,,,,,
,,,,,,,,,,,,,,,,,,,,,,,,19,male,2020-09-16_16h58.16.961,torte-2b,2020.1.3,MacIntel,60,13384,,,,,,,,,,,,,,,,,,7,,,,,,0,16,16,16,1,,,,,,,,,,,,,,,,,,,,,,,,,,,,,,,,,,,,
,,,,,,,,,,,,,,,,,,,,,,,,19,male,2020-09-16_16h58.16.961,torte-2b,2020.1.3,MacIntel,60,13384,,,,,,,,,,,,,,,,,,7,,,,,,0,17,17,17,1,,,,,,,,,,,,,,,,,,,,,,,,,,,,,,,,,,,,
,,,,,,,,,,,,,,,,,,,,,,,,19,male,2020-09-16_16h58.16.961,torte-2b,2020.1.3,MacIntel,60,13384,,,,,,,,,,,,,,,,,,4,,,,,,0,18,18,18,1,,,,,,,,,,,,,,,,,,,,,,,,,,,,,,,,,,,,
,,,,,,,,,,,,,,,,,,,,,,,,19,male,2020-09-16_16h58.16.961,torte-2b,2020.1.3,MacIntel,60,13384,,,,,,,,,,,,,,,,,,7,,,,,,0,19,19,19,1,,,,,,,,,,,,,,,,,,,,,,,,,,,,,,,,,,,,
,,,,,,,,,,,,,,,,,,,,,,,,19,male,2020-09-16_16h58.16.961,torte-2b,2020.1.3,MacIntel,60,13384,,,,,,,,,,,,,,,,,,3,,,,,,0,20,20,20,1,,,,,,,,,,,,,,,,,,,,,,,,,,,,,,,,,,,,
,,,,,,,,,,,,,,,,,,,,,,,,19,male,2020-09-16_16h58.16.961,torte-2b,2020.1.3,MacIntel,60,13384,,,,,,,,,,,,,,,,,,7,,,,,,0,21,21,21,1,,,,,,,,,,,,,,,,,,,,,,,,,,,,,,,,,,,,
,,,,,,,,,,,,,,,,,,,,,,,,19,male,2020-09-16_16h58.16.961,torte-2b,2020.1.3,MacIntel,60,13384,,,,,,,,,,,,,,,,,,3,,,,,,0,22,22,22,1,,,,,,,,,,,,,,,,,,,,,,,,,,,,,,,,,,,,
,,,,,,,,,,,,,,,,,,,,,,,,19,male,2020-09-16_16h58.16.961,torte-2b,2020.1.3,MacIntel,60,13384,,,,,,,,,,,,,,,,,,1,,,,,,0,23,23,23,1,,,,,,,,,,,,,,,,,,,,,,,,,,,,,,,,,,,,
,,,,,,,,,,,,,,,,,,,,,,,,19,male,2020-09-16_16h58.16.961,torte-2b,2020.1.3,MacIntel,60,13384,,,,,,,,,,,,,,,,,,6,,,,,,0,24,24,24,1,,,,,,,,,,,,,,,,,,,,,,,,,,,,,,,,,,,,
,,,,,,,,,,,,,,,,,,,,,,,,19,male,2020-09-16_16h58.16.961,torte-2b,2020.1.3,MacIntel,60,13384,,,,,,,,,,,,,,,,,,3,,,,,,0,25,25,25,1,,,,,,,,,,,,,,,,,,,,,,,,,,,,,,,,,,,,
,,,,,,,,,,,,,,,,,,,,,,,,19,male,2020-09-16_16h58.16.961,torte-2b,2020.1.3,MacIntel,60,13384,,,,,,,,,,,,,,,,,,2,,,,,,0,26,26,26,1,,,,,,,,,,,,,,,,,,,,,,,,,,,,,,,,,,,,
,,,,,,,,,,,,,,,,,,,,,,,,19,male,2020-09-16_16h58.16.961,torte-2b,2020.1.3,MacIntel,60,13384,,,,,,,,,,,,,,,,,,3,,,,,,0,27,27,27,1,,,,,,,,,,,,,,,,,,,,,,,,,,,,,,,,,,,,
,,,,,,,,,,,,,,,,,,,,,,,,19,male,2020-09-16_16h58.16.961,torte-2b,2020.1.3,MacIntel,60,13384,,,,,,,,,,,,,,,,,,1,,,,,,0,28,28,28,1,,,,,,,,,,,,,,,,,,,,,,,,,,,,,,,,,,,,
,,,,,,,,,,,,,,,,,,,,,,,,19,male,2020-09-16_16h58.16.961,torte-2b,2020.1.3,MacIntel,60,13384,,,,,,,,,,,,,,,,,,3,,,,,,0,29,29,29,1,,,,,,,,,,,,,,,,,,,,,,,,,,,,,,,,,,,,
,,,,,,,,,,,,,,,,,,,,,,,,19,male,2020-09-16_16h58.16.961,torte-2b,2020.1.3,MacIntel,60,13384,,,,,,,,,,,,,,,,,,1,,,,,,0,30,30,30,1,,,,,,,,,,,,,,,,,,,,,,,,,,,,,,,,,,,,
,,,,,,,,,,,,,,,,,,,,,,,,19,male,2020-09-16_16h58.16.961,torte-2b,2020.1.3,MacIntel,60,13384,,,,,,,,,,,,,,,,,,7,,,,,,0,31,31,31,1,,,,,,,,,,,,,,,,,,,,,,,,,,,,,,,,,,,,
,,,,,,,,,,,,,,,,,,,,,,,,19,male,2020-09-16_16h58.16.961,torte-2b,2020.1.3,MacIntel,60,13384,,,,,,,,,,,,,,,,,,5,,,,,,0,32,32,32,1,,,,,,,,,,,,,,,,,,,,,,,,,,,,,,,,,,,,
,,,,,,,,,,,,,,,,,,,,,,,,19,male,2020-09-16_16h58.16.961,torte-2b,2020.1.3,MacIntel,60,13384,,,,,,,,,,,,,,,,,,7,,,,,,0,33,33,33,1,,,,,,,,,,,,,,,,,,,,,,,,,,,,,,,,,,,,
,,,,,,,,,,,,,,,,,,,,,,,,19,male,2020-09-16_16h58.16.961,torte-2b,2020.1.3,MacIntel,60,13384,,,,,,,,,,,,,,,,,,2,,,,,,0,34,34,34,1,,,,,,,,,,,,,,,,,,,,,,,,,,,,,,,,,,,,
,,,,,,,,,,,,,,,,,,,,,,,,19,male,2020-09-16_16h58.16.961,torte-2b,2020.1.3,MacIntel,60,13384,,,,,,,,,,,,,,,,,,3,,,,,,,,,,,0,0,0,0,1,,,,,,,,,,,,,,,,,,,,,,,,,,,,,,,
,,,,,,,,,,,,,,,,,,,,,,,,19,male,2020-09-16_16h58.16.961,torte-2b,2020.1.3,MacIntel,60,13384,,,,,,,,,,,,,,,,,,7,,,,,,,,,,,0,1,1,1,1,,,,,,,,,,,,,,,,,,,,,,,,,,,,,,,
,,,,,,,,,,,,,,,,,,,,,,,,19,male,2020-09-16_16h58.16.961,torte-2b,2020.1.3,MacIntel,60,13384,,,,,,,,,,,,,,,,,,7,,,,,,,,,,,0,2,2,2,1,,,,,,,,,,,,,,,,,,,,,,,,,,,,,,,
,,,,,,,,,,,,,,,,,,,,,,,,19,male,2020-09-16_16h58.16.961,torte-2b,2020.1.3,MacIntel,60,13384,,,,,,,,,,,,,,,,,,4,,,,,,,,,,,0,3,3,3,1,,,,,,,,,,,,,,,,,,,,,,,,,,,,,,,
,,,,,,,,,,,,,,,,,,,,,,,,19,male,2020-09-16_16h58.16.961,torte-2b,2020.1.3,MacIntel,60,13384,,,,,,,,,,,,,,,,,,5,,,,,,,,,,,0,4,4,4,1,,,,,,,,,,,,,,,,,,,,,,,,,,,,,,,
,,,,,,,,,,,,,,,,,,,,,,,,19,male,2020-09-16_16h58.16.961,torte-2b,2020.1.3,MacIntel,60,13384,,,,,,,,,,,,,,,,,,4,,,,,,,,,,,0,5,5,5,1,,,,,,,,,,,,,,,,,,,,,,,,,,,,,,,
,,,,,,,,,,,,,,,,,,,,,,,,19,male,2020-09-16_16h58.16.961,torte-2b,2020.1.3,MacIntel,60,13384,,,,,,,,,,,,,,,,,,2,,,,,,,,,,,0,6,6,6,1,,,,,,,,,,,,,,,,,,,,,,,,,,,,,,,
,,,,,,,,,,,,,,,,,,,,,,,,19,male,2020-09-16_16h58.16.961,torte-2b,2020.1.3,MacIntel,60,13384,,,,,,,,,,,,,,,,,,4,,,,,,,,,,,0,7,7,7,1,,,,,,,,,,,,,,,,,,,,,,,,,,,,,,,
,,,,,,,,,,,,,,,,,,,,,,,,19,male,2020-09-16_16h58.16.961,torte-2b,2020.1.3,MacIntel,60,13384,,,,,,,,,,,,,,,,,,2,,,,,,,,,,,0,8,8,8,1,,,,,,,,,,,,,,,,,,,,,,,,,,,,,,,
,,,,,,,,,,,,,,,,,,,,,,,,19,male,2020-09-16_16h58.16.961,torte-2b,2020.1.3,MacIntel,60,13384,,,,,,,,,,,,,,,,,,2,,,,,,,,,,,0,9,9,9,1,,,,,,,,,,,,,,,,,,,,,,,,,,,,,,,
,,,,,,,,,,,,,,,,,,,,,,,,19,male,2020-09-16_16h58.16.961,torte-2b,2020.1.3,MacIntel,60,13384,,,,,,,,,,,,,,,,,,6,,,,,,,,,,,0,10,10,10,1,,,,,,,,,,,,,,,,,,,,,,,,,,,,,,,
,,,,,,,,,,,,,,,,,,,,,,,,19,male,2020-09-16_16h58.16.961,torte-2b,2020.1.3,MacIntel,60,13384,,,,,,,,,,,,,,,,,,2,,,,,,,,,,,0,11,11,11,1,,,,,,,,,,,,,,,,,,,,,,,,,,,,,,,
,,,,,,,,,,,,,,,,,,,,,,,,19,male,2020-09-16_16h58.16.961,torte-2b,2020.1.3,MacIntel,60,13384,,,,,,,,,,,,,,,,,,2,,,,,,,,,,,0,12,12,12,1,,,,,,,,,,,,,,,,,,,,,,,,,,,,,,,
,,,,,,,,,,,,,,,,,,,,,,,,19,male,2020-09-16_16h58.16.961,torte-2b,2020.1.3,MacIntel,60,13384,,,,,,,,,,,,,,,,,,2,,,,,,,,,,,0,13,13,13,1,,,,,,,,,,,,,,,,,,,,,,,,,,,,,,,
,,,,,,,,,,,,,,,,,,,,,,,,19,male,2020-09-16_16h58.16.961,torte-2b,2020.1.3,MacIntel,60,13384,,,,,,,,,,,,,,,,,,2,,,,,,,,,,,0,14,14,14,1,,,,,,,,,,,,,,,,,,,,,,,,,,,,,,,
,,,,,,,,,,,,,,,,,,,,,,,,19,male,2020-09-16_16h58.16.961,torte-2b,2020.1.3,MacIntel,60,13384,,,,,,,,,,,,,,,,,,4,,,,,,,,,,,0,15,15,15,1,,,,,,,,,,,,,,,,,,,,,,,,,,,,,,,
,,,,,,,,,,,,,,,,,,,,,,,,19,male,2020-09-16_16h58.16.961,torte-2b,2020.1.3,MacIntel,60,13384,,,,,,,,,,,,,,,,,,3,,,,,,,,,,,0,16,16,16,1,,,,,,,,,,,,,,,,,,,,,,,,,,,,,,,
,,,,,,,,,,,,,,,,,,,,,,,,19,male,2020-09-16_16h58.16.961,torte-2b,2020.1.3,MacIntel,60,13384,,,,,,,,,,,,,,,,,,7,,,,,,,,,,,0,17,17,17,1,,,,,,,,,,,,,,,,,,,,,,,,,,,,,,,
,,,,,,,,,,,,,,,,,,,,,,,,19,male,2020-09-16_16h58.16.961,torte-2b,2020.1.3,MacIntel,60,13384,,,,,,,,,,,,,,,,,,4,,,,,,,,,,,0,18,18,18,1,,,,,,,,,,,,,,,,,,,,,,,,,,,,,,,
,,,,,,,,,,,,,,,,,,,,,,,,19,male,2020-09-16_16h58.16.961,torte-2b,2020.1.3,MacIntel,60,13384,,,,,,,,,,,,,,,,,,7,,,,,,,,,,,0,19,19,19,1,,,,,,,,,,,,,,,,,,,,,,,,,,,,,,,
,,,,,,,,,,,,,,,,,,,,,,,,19,male,2020-09-16_16h58.16.961,torte-2b,2020.1.3,MacIntel,60,13384,,,,,,,,,,,,,,,,,,7,,,,,,,,,,,0,20,20,20,1,,,,,,,,,,,,,,,,,,,,,,,,,,,,,,,
,,,,,,,,,,,,,,,,,,,,,,,,19,male,2020-09-16_16h58.16.961,torte-2b,2020.1.3,MacIntel,60,13384,,,,,,,,,,,,,,,,,,7,,,,,,,,,,,0,21,21,21,1,,,,,,,,,,,,,,,,,,,,,,,,,,,,,,,
,,,,,,,,,,,,,,,,,,,,,,,,19,male,2020-09-16_16h58.16.961,torte-2b,2020.1.3,MacIntel,60,13384,,,,,,,,,,,,,,,,,,7,,,,,,,,,,,0,22,22,22,1,,,,,,,,,,,,,,,,,,,,,,,,,,,,,,,
,,,,,,,,,,,,,,,,,,,,,,,,19,male,2020-09-16_16h58.16.961,torte-2b,2020.1.3,MacIntel,60,13384,,,,,,,,,,,,,,,,,,1,,,,,,,,,,,0,23,23,23,1,,,,,,,,,,,,,,,,,,,,,,,,,,,,,,,
,,,,,,,,,,,,,,,,,,,,,,,,19,male,2020-09-16_16h58.16.961,torte-2b,2020.1.3,MacIntel,60,13384,,,,,,,,,,,,,,,,,,7,,,,,,,,,,,0,24,24,24,1,,,,,,,,,,,,,,,,,,,,,,,,,,,,,,,
,,,,,,,,,,,,,,,,,,,,,,,,19,male,2020-09-16_16h58.16.961,torte-2b,2020.1.3,MacIntel,60,13384,,,,,,,,,,,,,,,,,,1,,,,,,,,,,,0,25,25,25,1,,,,,,,,,,,,,,,,,,,,,,,,,,,,,,,
,,,,,,,,,,,,,,,,,,,,,,,,19,male,2020-09-16_16h58.16.961,torte-2b,2020.1.3,MacIntel,60,13384,,,,,,,,,,,,,,,,,,7,,,,,,,,,,,0,26,26,26,1,,,,,,,,,,,,,,,,,,,,,,,,,,,,,,,
,,,,,,,,,,,,,,,,,,,,,,,,19,male,2020-09-16_16h58.16.961,torte-2b,2020.1.3,MacIntel,60,13384,,,,,,,,,,,,,,,,,,2,,,,,,,,,,,0,27,27,27,1,,,,,,,,,,,,,,,,,,,,,,,,,,,,,,,
,,,,,,,,,,,,,,,,,,,,,,,,19,male,2020-09-16_16h58.16.961,torte-2b,2020.1.3,MacIntel,60,13384,,,,,,,,,,,,,,,,,,5,,,,,,,,,,,0,28,28,28,1,,,,,,,,,,,,,,,,,,,,,,,,,,,,,,,
,,,,,,,,,,,,,,,,,,,,,,,,19,male,2020-09-16_16h58.16.961,torte-2b,2020.1.3,MacIntel,60,13384,,,,,,,,,,,,,,,,,,5,,,,,,,,,,,0,29,29,29,1,,,,,,,,,,,,,,,,,,,,,,,,,,,,,,,
,,,,,,,,,,,,,,,,,,,,,,,,19,male,2020-09-16_16h58.16.961,torte-2b,2020.1.3,MacIntel,60,13384,,,,,,,,,,,,,,,,,,5,,,,,,,,,,,0,30,30,30,1,,,,,,,,,,,,,,,,,,,,,,,,,,,,,,,
,,,,,,,,,,,,,,,,,,,,,,,,19,male,2020-09-16_16h58.16.961,torte-2b,2020.1.3,MacIntel,60,13384,,,,,,,,,,,,,,,,,,1,,,,,,,,,,,0,31,31,31,1,,,,,,,,,,,,,,,,,,,,,,,,,,,,,,,
,,,,,,,,,,,,,,,,,,,,,,,,19,male,2020-09-16_16h58.16.961,torte-2b,2020.1.3,MacIntel,60,13384,,,,,,,,,,,,,,,,,,5,,,,,,,,,,,0,32,32,32,1,,,,,,,,,,,,,,,,,,,,,,,,,,,,,,,
,,,,,,,,,,,,,,,,,,,,,,,,19,male,2020-09-16_16h58.16.961,torte-2b,2020.1.3,MacIntel,60,13384,,,,,,,,,,,,,,,,,,3,,,,,,,,,,,0,33,33,33,1,,,,,,,,,,,,,,,,,,,,,,,,,,,,,,,
,,,,,,,,,,,,,,,,,,,,,,,,19,male,2020-09-16_16h58.16.961,torte-2b,2020.1.3,MacIntel,60,13384,,,,,,,,,,,,,,,,,,3,,,,,,,,,,,0,34,34,34,1,,,,,,,,,,,,,,,,,,,,,,,,,,,,,,,
,,,,,,,,,,,,l,0.905,Correct!,,,,,,t1.png,t5.png,4,9.55E-11,19,male,2020-09-16_16h58.16.961,torte-2b,2020.1.3,MacIntel,60,13384,space,1.194,,,,,,,,,,,,,,,,,,,,,,,,,,,,,,,,space,5.79,0,0,0,85,1,,,,,,,,,,,,,,,,,,,,,,,,
,,,,,,,,,,,,a,0.64,Correct!,,,,,,t4.png,t3.png,1,0.90855,19,male,2020-09-16_16h58.16.961,torte-2b,2020.1.3,MacIntel,60,13384,,,,,,,,,,,,,,,,,,,,,,,,,,,,,,,,,,,,0,1,1,45,1,,,,,,,,,,,,,,,,,,,,,,,,
,,,,,,,,,,,,l,0.758,Incorrect,,,,,,t3.png,t4.png,1,0.90855,19,male,2020-09-16_16h58.16.961,torte-2b,2020.1.3,MacIntel,60,13384,,,,,,,,,,,,,,,,,,,,,,,,,,,,,,,,,,,,0,2,2,84,1,,,,,,,,,,,,,,,,,,,,,,,,
,,,,,,,,,,,,l,0.607,Correct!,,,,,,t1.png,t3.png,2,0.056466,19,male,2020-09-16_16h58.16.961,torte-2b,2020.1.3,MacIntel,60,13384,,,,,,,,,,,,,,,,,,,,,,,,,,,,,,,,,,,,0,3,3,87,1,,,,,,,,,,,,,,,,,,,,,,,,
,,,,,,,,,,,,l,0.471,Correct!,,,,,,t1.png,t3.png,2,0.056466,19,male,2020-09-16_16h58.16.961,torte-2b,2020.1.3,MacIntel,60,13384,,,,,,,,,,,,,,,,,,,,,,,,,,,,,,,,,,,,0,4,4,99,1,,,,,,,,,,,,,,,,,,,,,,,,
,,,,,,,,,,,,a,0.451,Correct!,,,,,,t4.png,t3.png,1,0.909,19,male,2020-09-16_16h58.16.961,torte-2b,2020.1.3,MacIntel,60,13384,,,,,,,,,,,,,,,,,,,,,,,,,,,,,,,,,,,,0,5,5,20,1,,,,,,,,,,,,,,,,,,,,,,,,
,,,,,,,,,,,,l,0.514,Incorrect,,,,,,t5.png,t5.png,0,0.97829,19,male,2020-09-16_16h58.16.961,torte-2b,2020.1.3,MacIntel,60,13384,,,,,,,,,,,,,,,,,,,,,,,,,,,,,,,,,,,,0,6,6,70,1,,,,,,,,,,,,,,,,,,,,,,,,
,,,,,,,,,,,,l,0.471,Correct!,,,,,,t1.png,t4.png,3,0.0000131,19,male,2020-09-16_16h58.16.961,torte-2b,2020.1.3,MacIntel,60,13384,,,,,,,,,,,,,,,,,,,,,,,,,,,,,,,,,,,,0,7,7,50,1,,,,,,,,,,,,,,,,,,,,,,,,
,,,,,,,,,,,,a,0.822,Correct!,,,,,,t2.png,t2.png,0,0.98115,19,male,2020-09-16_16h58.16.961,torte-2b,2020.1.3,MacIntel,60,13384,,,,,,,,,,,,,,,,,,,,,,,,,,,,,,,,,,,,0,8,8,59,1,,,,,,,,,,,,,,,,,,,,,,,,
,,,,,,,,,,,,a,0.505,Correct!,,,,,,t4.png,t3.png,1,0.909,19,male,2020-09-16_16h58.16.961,torte-2b,2020.1.3,MacIntel,60,13384,,,,,,,,,,,,,,,,,,,,,,,,,,,,,,,,,,,,0,9,9,46,1,,,,,,,,,,,,,,,,,,,,,,,,
,,,,,,,,,,,,l,0.454,Correct!,,,,,,t2.png,t5.png,3,0.0000131,19,male,2020-09-16_16h58.16.961,torte-2b,2020.1.3,MacIntel,60,13384,,,,,,,,,,,,,,,,,,,,,,,,,,,,,,,,,,,,0,10,10,95,1,,,,,,,,,,,,,,,,,,,,,,,,
,,,,,,,,,,,,l,0.525,Correct!,,,,,,t1.png,t5.png,4,9.55E-11,19,male,2020-09-16_16h58.16.961,torte-2b,2020.1.3,MacIntel,60,13384,,,,,,,,,,,,,,,,,,,,,,,,,,,,,,,,,,,,0,11,11,12,1,,,,,,,,,,,,,,,,,,,,,,,,
,,,,,,,,,,,,a,0.457,Incorrect,,,,,,t5.png,t2.png,3,0.0000131,19,male,2020-09-16_16h58.16.961,torte-2b,2020.1.3,MacIntel,60,13384,,,,,,,,,,,,,,,,,,,,,,,,,,,,,,,,,,,,0,12,12,98,1,,,,,,,,,,,,,,,,,,,,,,,,
,,,,,,,,,,,,a,0.521,Incorrect,,,,,,t5.png,t3.png,2,0.056466,19,male,2020-09-16_16h58.16.961,torte-2b,2020.1.3,MacIntel,60,13384,,,,,,,,,,,,,,,,,,,,,,,,,,,,,,,,,,,,0,13,13,38,1,,,,,,,,,,,,,,,,,,,,,,,,
,,,,,,,,,,,,l,0.813,Incorrect,,,,,,t2.png,t3.png,1,0.90855,19,male,2020-09-16_16h58.16.961,torte-2b,2020.1.3,MacIntel,60,13384,,,,,,,,,,,,,,,,,,,,,,,,,,,,,,,,,,,,0,14,14,68,1,,,,,,,,,,,,,,,,,,,,,,,,
,,,,,,,,,,,,l,0.858,Incorrect,,,,,,t4.png,t5.png,1,0.90025,19,male,2020-09-16_16h58.16.961,torte-2b,2020.1.3,MacIntel,60,13384,,,,,,,,,,,,,,,,,,,,,,,,,,,,,,,,,,,,0,15,15,47,1,,,,,,,,,,,,,,,,,,,,,,,,
,,,,,,,,,,,,l,0.875,Incorrect,,,,,,t3.png,t4.png,1,0.909,19,male,2020-09-16_16h58.16.961,torte-2b,2020.1.3,MacIntel,60,13384,,,,,,,,,,,,,,,,,,,,,,,,,,,,,,,,,,,,0,16,16,82,1,,,,,,,,,,,,,,,,,,,,,,,,
,,,,,,,,,,,,a,0.54,Incorrect,,,,,,t5.png,t3.png,2,0.056466,19,male,2020-09-16_16h58.16.961,torte-2b,2020.1.3,MacIntel,60,13384,,,,,,,,,,,,,,,,,,,,,,,,,,,,,,,,,,,,0,17,17,114,1,,,,,,,,,,,,,,,,,,,,,,,,
,,,,,,,,,,,,l,0.845,Incorrect,,,,,,t1.png,t1.png,0,0.97829,19,male,2020-09-16_16h58.16.961,torte-2b,2020.1.3,MacIntel,60,13384,,,,,,,,,,,,,,,,,,,,,,,,,,,,,,,,,,,,0,18,18,9,1,,,,,,,,,,,,,,,,,,,,,,,,
,,,,,,,,,,,,a,0.606,Incorrect,,,,,,t3.png,t2.png,1,0.90855,19,male,2020-09-16_16h58.16.961,torte-2b,2020.1.3,MacIntel,60,13384,,,,,,,,,,,,,,,,,,,,,,,,,,,,,,,,,,,,0,19,19,53,1,,,,,,,,,,,,,,,,,,,,,,,,
,,,,,,,,,,,,a,0.624,Incorrect,,,,,,t5.png,t1.png,4,9.55E-11,19,male,2020-09-16_16h58.16.961,torte-2b,2020.1.3,MacIntel,60,13384,,,,,,,,,,,,,,,,,,,,,,,,,,,,,,,,,,,,0,20,20,102,1,,,,,,,,,,,,,,,,,,,,,,,,
,,,,,,,,,,,,l,0.657,Correct!,,,,,,t3.png,t5.png,2,0.0565,19,male,2020-09-16_16h58.16.961,torte-2b,2020.1.3,MacIntel,60,13384,,,,,,,,,,,,,,,,,,,,,,,,,,,,,,,,,,,,0,21,21,30,1,,,,,,,,,,,,,,,,,,,,,,,,
,,,,,,,,,,,,a,0.706,Correct!,,,,,,t4.png,t4.png,0,0.98115,19,male,2020-09-16_16h58.16.961,torte-2b,2020.1.3,MacIntel,60,13384,,,,,,,,,,,,,,,,,,,,,,,,,,,,,,,,,,,,0,22,22,21,1,,,,,,,,,,,,,,,,,,,,,,,,
,,,,,,,,,,,,l,0.37,Correct!,,,,,,t2.png,t4.png,2,0.059078,19,male,2020-09-16_16h58.16.961,torte-2b,2020.1.3,MacIntel,60,13384,,,,,,,,,,,,,,,,,,,,,,,,,,,,,,,,,,,,0,23,23,77,1,,,,,,,,,,,,,,,,,,,,,,,,
,,,,,,,,,,,,l,0.638,Incorrect,,,,,,t1.png,t1.png,0,0.97829,19,male,2020-09-16_16h58.16.961,torte-2b,2020.1.3,MacIntel,60,13384,,,,,,,,,,,,,,,,,,,,,,,,,,,,,,,,,,,,0,24,24,67,1,,,,,,,,,,,,,,,,,,,,,,,,
,,,,,,,,,,,,l,0.488,Incorrect,,,,,,t1.png,t2.png,1,0.9,19,male,2020-09-16_16h58.16.961,torte-2b,2020.1.3,MacIntel,60,13384,,,,,,,,,,,,,,,,,,,,,,,,,,,,,,,,,,,,0,25,25,1,1,,,,,,,,,,,,,,,,,,,,,,,,
,,,,,,,,,,,,l,0.433,Correct!,,,,,,t1.png,t4.png,3,0.0000131,19,male,2020-09-16_16h58.16.961,torte-2b,2020.1.3,MacIntel,60,13384,,,,,,,,,,,,,,,,,,,,,,,,,,,,,,,,,,,,0,26,26,81,1,,,,,,,,,,,,,,,,,,,,,,,,
,,,,,,,,,,,,a,0.437,Incorrect,,,,,,t5.png,t1.png,4,9.55E-11,19,male,2020-09-16_16h58.16.961,torte-2b,2020.1.3,MacIntel,60,13384,,,,,,,,,,,,,,,,,,,,,,,,,,,,,,,,,,,,0,27,27,22,1,,,,,,,,,,,,,,,,,,,,,,,,
,,,,,,,,,,,,l,0.949,Incorrect,,,,,,t2.png,t2.png,0,0.981,19,male,2020-09-16_16h58.16.961,torte-2b,2020.1.3,MacIntel,60,13384,,,,,,,,,,,,,,,,,,,,,,,,,,,,,,,,,,,,0,28,28,101,1,,,,,,,,,,,,,,,,,,,,,,,,
,,,,,,,,,,,,l,0.635,Correct!,,,,,,t2.png,t4.png,2,0.059078,19,male,2020-09-16_16h58.16.961,torte-2b,2020.1.3,MacIntel,60,13384,,,,,,,,,,,,,,,,,,,,,,,,,,,,,,,,,,,,0,29,29,11,1,,,,,,,,,,,,,,,,,,,,,,,,
,,,,,,,,,,,,a,0.539,Incorrect,,,,,,t3.png,t1.png,2,0.056466,19,male,2020-09-16_16h58.16.961,torte-2b,2020.1.3,MacIntel,60,13384,,,,,,,,,,,,,,,,,,,,,,,,,,,,,,,,,,,,0,30,30,64,1,,,,,,,,,,,,,,,,,,,,,,,,
,,,,,,,,,,,,a,0.66,Correct!,,,,,,t2.png,t1.png,1,0.90025,19,male,2020-09-16_16h58.16.961,torte-2b,2020.1.3,MacIntel,60,13384,,,,,,,,,,,,,,,,,,,,,,,,,,,,,,,,,,,,0,31,31,5,1,,,,,,,,,,,,,,,,,,,,,,,,
,,,,,,,,,,,,a,0.492,Incorrect,,,,,,t5.png,t2.png,3,0.0000131,19,male,2020-09-16_16h58.16.961,torte-2b,2020.1.3,MacIntel,60,13384,,,,,,,,,,,,,,,,,,,,,,,,,,,,,,,,,,,,0,32,32,91,1,,,,,,,,,,,,,,,,,,,,,,,,
,,,,,,,,,,,,l,0.572,Correct!,,,,,,t2.png,t5.png,3,0.0000131,19,male,2020-09-16_16h58.16.961,torte-2b,2020.1.3,MacIntel,60,13384,,,,,,,,,,,,,,,,,,,,,,,,,,,,,,,,,,,,0,33,33,104,1,,,,,,,,,,,,,,,,,,,,,,,,
,,,,,,,,,,,,l,0.522,Correct!,,,,,,t2.png,t5.png,3,0.0000131,19,male,2020-09-16_16h58.16.961,torte-2b,2020.1.3,MacIntel,60,13384,,,,,,,,,,,,,,,,,,,,,,,,,,,,,,,,,,,,0,34,34,66,1,,,,,,,,,,,,,,,,,,,,,,,,
,,,,,,,,,,,,a,1.211,Correct!,,,,,,t2.png,t2.png,0,0.98115,19,male,2020-09-16_16h58.16.961,torte-2b,2020.1.3,MacIntel,60,13384,,,,,,,,,,,,,,,,,,,,,,,,,,,,,,,,,,,,0,35,35,7,1,,,,,,,,,,,,,,,,,,,,,,,,
,,,,,,,,,,,,l,0.842,Incorrect,,,,,,t5.png,t5.png,0,0.97829,19,male,2020-09-16_16h58.16.961,torte-2b,2020.1.3,MacIntel,60,13384,,,,,,,,,,,,,,,,,,,,,,,,,,,,,,,,,,,,0,36,36,94,1,,,,,,,,,,,,,,,,,,,,,,,,
,,,,,,,,,,,,l,0.521,Correct!,,,,,,t2.png,t5.png,3,0.0000131,19,male,2020-09-16_16h58.16.961,torte-2b,2020.1.3,MacIntel,60,13384,,,,,,,,,,,,,,,,,,,,,,,,,,,,,,,,,,,,0,37,37,40,1,,,,,,,,,,,,,,,,,,,,,,,,
,,,,,,,,,,,,a,0.578,Incorrect,,,,,,t5.png,t3.png,2,0.056466,19,male,2020-09-16_16h58.16.961,torte-2b,2020.1.3,MacIntel,60,13384,,,,,,,,,,,,,,,,,,,,,,,,,,,,,,,,,,,,0,38,38,108,1,,,,,,,,,,,,,,,,,,,,,,,,
,,,,,,,,,,,,a,0.573,Correct!,,,,,,t4.png,t3.png,1,0.90855,19,male,2020-09-16_16h58.16.961,torte-2b,2020.1.3,MacIntel,60,13384,,,,,,,,,,,,,,,,,,,,,,,,,,,,,,,,,,,,0,39,39,35,1,,,,,,,,,,,,,,,,,,,,,,,,
,,,,,,,,,,,,a,0.74,Correct!,,,,,,t2.png,t1.png,1,0.90025,19,male,2020-09-16_16h58.16.961,torte-2b,2020.1.3,MacIntel,60,13384,,,,,,,,,,,,,,,,,,,,,,,,,,,,,,,,,,,,0,40,40,62,1,,,,,,,,,,,,,,,,,,,,,,,,
,,,,,,,,,,,,a,0.791,Correct!,,,,,,t2.png,t1.png,1,0.90025,19,male,2020-09-16_16h58.16.961,torte-2b,2020.1.3,MacIntel,60,13384,,,,,,,,,,,,,,,,,,,,,,,,,,,,,,,,,,,,0,41,41,19,1,,,,,,,,,,,,,,,,,,,,,,,,
,,,,,,,,,,,,a,0.589,Correct!,,,,,,t3.png,t2.png,1,0.90855,19,male,2020-09-16_16h58.16.961,torte-2b,2020.1.3,MacIntel,60,13384,,,,,,,,,,,,,,,,,,,,,,,,,,,,,,,,,,,,0,42,42,18,1,,,,,,,,,,,,,,,,,,,,,,,,
,,,,,,,,,,,,l,0.959,Correct!,,,,,,t2.png,t4.png,2,0.0591,19,male,2020-09-16_16h58.16.961,torte-2b,2020.1.3,MacIntel,60,13384,,,,,,,,,,,,,,,,,,,,,,,,,,,,,,,,,,,,0,43,43,15,1,,,,,,,,,,,,,,,,,,,,,,,,
,,,,,,,,,,,,l,0.535,Correct!,,,,,,t1.png,t5.png,4,9.55E-11,19,male,2020-09-16_16h58.16.961,torte-2b,2020.1.3,MacIntel,60,13384,,,,,,,,,,,,,,,,,,,,,,,,,,,,,,,,,,,,0,44,44,41,1,,,,,,,,,,,,,,,,,,,,,,,,
,,,,,,,,,,,,a,0.605,Correct!,,,,,,t3.png,t4.png,1,0.909,19,male,2020-09-16_16h58.16.961,torte-2b,2020.1.3,MacIntel,60,13384,,,,,,,,,,,,,,,,,,,,,,,,,,,,,,,,,,,,0,45,45,89,1,,,,,,,,,,,,,,,,,,,,,,,,
,,,,,,,,,,,,l,0.439,Correct!,,,,,,t1.png,t4.png,3,0.0000131,19,male,2020-09-16_16h58.16.961,torte-2b,2020.1.3,MacIntel,60,13384,,,,,,,,,,,,,,,,,,,,,,,,,,,,,,,,,,,,0,46,46,92,1,,,,,,,,,,,,,,,,,,,,,,,,
,,,,,,,,,,,,a,1.194,Correct!,,,,,,t5.png,t4.png,1,0.9,19,male,2020-09-16_16h58.16.961,torte-2b,2020.1.3,MacIntel,60,13384,,,,,,,,,,,,,,,,,,,,,,,,,,,,,,,,,,,,0,47,47,76,1,,,,,,,,,,,,,,,,,,,,,,,,
,,,,,,,,,,,,a,1.009,Correct!,,,,,,t5.png,t4.png,1,0.9,19,male,2020-09-16_16h58.16.961,torte-2b,2020.1.3,MacIntel,60,13384,,,,,,,,,,,,,,,,,,,,,,,,,,,,,,,,,,,,0,48,48,49,1,,,,,,,,,,,,,,,,,,,,,,,,
,,,,,,,,,,,,l,0.676,Correct!,,,,,,t1.png,t3.png,2,0.056466,19,male,2020-09-16_16h58.16.961,torte-2b,2020.1.3,MacIntel,60,13384,,,,,,,,,,,,,,,,,,,,,,,,,,,,,,,,,,,,0,49,49,60,1,,,,,,,,,,,,,,,,,,,,,,,,
,,,,,,,,,,,,l,0.554,Correct!,,,,,,t1.png,t3.png,2,0.056466,19,male,2020-09-16_16h58.16.961,torte-2b,2020.1.3,MacIntel,60,13384,,,,,,,,,,,,,,,,,,,,,,,,,,,,,,,,,,,,0,50,50,63,1,,,,,,,,,,,,,,,,,,,,,,,,
,,,,,,,,,,,,l,1.14,Incorrect,,,,,,t4.png,t4.png,0,0.98115,19,male,2020-09-16_16h58.16.961,torte-2b,2020.1.3,MacIntel,60,13384,,,,,,,,,,,,,,,,,,,,,,,,,,,,,,,,,,,,0,51,51,79,1,,,,,,,,,,,,,,,,,,,,,,,,
,,,,,,,,,,,,l,0.774,Incorrect,,,,,,t1.png,t1.png,0,0.978,19,male,2020-09-16_16h58.16.961,torte-2b,2020.1.3,MacIntel,60,13384,,,,,,,,,,,,,,,,,,,,,,,,,,,,,,,,,,,,0,52,52,54,1,,,,,,,,,,,,,,,,,,,,,,,,
,,,,,,,,,,,,l,1.062,Incorrect,,,,,,t4.png,t5.png,1,0.90025,19,male,2020-09-16_16h58.16.961,torte-2b,2020.1.3,MacIntel,60,13384,,,,,,,,,,,,,,,,,,,,,,,,,,,,,,,,,,,,0,53,53,103,1,,,,,,,,,,,,,,,,,,,,,,,,
,,,,,,,,,,,,l,0.962,Incorrect,,,,,,t3.png,t5.png,2,0.0565,19,male,2020-09-16_16h58.16.961,torte-2b,2020.1.3,MacIntel,60,13384,,,,,,,,,,,,,,,,,,,,,,,,,,,,,,,,,,,,0,54,54,83,1,,,,,,,,,,,,,,,,,,,,,,,,
,,,,,,,,,,,,l,0.722,Incorrect,,,,,,t1.png,t2.png,1,0.90025,19,male,2020-09-16_16h58.16.961,torte-2b,2020.1.3,MacIntel,60,13384,,,,,,,,,,,,,,,,,,,,,,,,,,,,,,,,,,,,0,55,55,33,1,,,,,,,,,,,,,,,,,,,,,,,,
,,,,,,,,,,,,a,0.96,Incorrect,,,,,,t5.png,t1.png,4,9.55E-11,19,male,2020-09-16_16h58.16.961,torte-2b,2020.1.3,MacIntel,60,13384,,,,,,,,,,,,,,,,,,,,,,,,,,,,,,,,,,,,0,56,56,100,1,,,,,,,,,,,,,,,,,,,,,,,,
,,,,,,,,,,,,l,0.856,Incorrect,,,,,,t4.png,t5.png,1,0.90025,19,male,2020-09-16_16h58.16.961,torte-2b,2020.1.3,MacIntel,60,13384,,,,,,,,,,,,,,,,,,,,,,,,,,,,,,,,,,,,0,57,57,58,1,,,,,,,,,,,,,,,,,,,,,,,,
,,,,,,,,,,,,a,0.524,Incorrect,,,,,,t5.png,t1.png,4,9.55E-11,19,male,2020-09-16_16h58.16.961,torte-2b,2020.1.3,MacIntel,60,13384,,,,,,,,,,,,,,,,,,,,,,,,,,,,,,,,,,,,0,58,58,71,1,,,,,,,,,,,,,,,,,,,,,,,,
,,,,,,,,,,,,a,0.892,Incorrect,,,,,,t4.png,t2.png,2,0.059078,19,male,2020-09-16_16h58.16.961,torte-2b,2020.1.3,MacIntel,60,13384,,,,,,,,,,,,,,,,,,,,,,,,,,,,,,,,,,,,0,59,59,109,1,,,,,,,,,,,,,,,,,,,,,,,,
,,,,,,,,,,,,a,0.605,Correct!,,,,,,t5.png,t5.png,0,0.978,19,male,2020-09-16_16h58.16.961,torte-2b,2020.1.3,MacIntel,60,13384,,,,,,,,,,,,,,,,,,,,,,,,,,,,,,,,,,,,0,60,60,117,1,,,,,,,,,,,,,,,,,,,,,,,,
,,,,,,,,,,,,l,0.806,Incorrect,,,,,,t1.png,t2.png,1,0.90025,19,male,2020-09-16_16h58.16.961,torte-2b,2020.1.3,MacIntel,60,13384,,,,,,,,,,,,,,,,,,,,,,,,,,,,,,,,,,,,0,61,61,105,1,,,,,,,,,,,,,,,,,,,,,,,,
,,,,,,,,,,,,a,0.471,Incorrect,,,,,,t3.png,t1.png,2,0.056466,19,male,2020-09-16_16h58.16.961,torte-2b,2020.1.3,MacIntel,60,13384,,,,,,,,,,,,,,,,,,,,,,,,,,,,,,,,,,,,0,62,62,0,1,,,,,,,,,,,,,,,,,,,,,,,,
,,,,,,,,,,,,a,0.537,Incorrect,,,,,,t5.png,t2.png,3,0.0000131,19,male,2020-09-16_16h58.16.961,torte-2b,2020.1.3,MacIntel,60,13384,,,,,,,,,,,,,,,,,,,,,,,,,,,,,,,,,,,,0,63,63,119,1,,,,,,,,,,,,,,,,,,,,,,,,
,,,,,,,,,,,,a,0.422,Correct!,,,,,,t4.png,t3.png,1,0.90855,19,male,2020-09-16_16h58.16.961,torte-2b,2020.1.3,MacIntel,60,13384,,,,,,,,,,,,,,,,,,,,,,,,,,,,,,,,,,,,0,64,64,75,1,,,,,,,,,,,,,,,,,,,,,,,,
,,,,,,,,,,,,a,0.491,Incorrect,,,,,,t5.png,t2.png,3,0.0000131,19,male,2020-09-16_16h58.16.961,torte-2b,2020.1.3,MacIntel,60,13384,,,,,,,,,,,,,,,,,,,,,,,,,,,,,,,,,,,,0,65,65,116,1,,,,,,,,,,,,,,,,,,,,,,,,
,,,,,,,,,,,,a,0.858,Correct!,,,,,,t2.png,t2.png,0,0.98115,19,male,2020-09-16_16h58.16.961,torte-2b,2020.1.3,MacIntel,60,13384,,,,,,,,,,,,,,,,,,,,,,,,,,,,,,,,,,,,0,66,66,2,1,,,,,,,,,,,,,,,,,,,,,,,,
,,,,,,,,,,,,a,0.585,Incorrect,,,,,,t3.png,t1.png,2,0.0565,19,male,2020-09-16_16h58.16.961,torte-2b,2020.1.3,MacIntel,60,13384,,,,,,,,,,,,,,,,,,,,,,,,,,,,,,,,,,,,0,67,67,31,1,,,,,,,,,,,,,,,,,,,,,,,,
,,,,,,,,,,,,a,0.51,Correct!,,,,,,t4.png,t5.png,1,0.90025,19,male,2020-09-16_16h58.16.961,torte-2b,2020.1.3,MacIntel,60,13384,,,,,,,,,,,,,,,,,,,,,,,,,,,,,,,,,,,,0,68,68,113,1,,,,,,,,,,,,,,,,,,,,,,,,
,,,,,,,,,,,,a,0.472,Incorrect,,,,,,t4.png,t1.png,3,0.0000131,19,male,2020-09-16_16h58.16.961,torte-2b,2020.1.3,MacIntel,60,13384,,,,,,,,,,,,,,,,,,,,,,,,,,,,,,,,,,,,0,69,69,61,1,,,,,,,,,,,,,,,,,,,,,,,,
,,,,,,,,,,,,l,0.655,Incorrect,,,,,,t3.png,t5.png,2,0.056466,19,male,2020-09-16_16h58.16.961,torte-2b,2020.1.3,MacIntel,60,13384,,,,,,,,,,,,,,,,,,,,,,,,,,,,,,,,,,,,0,70,70,6,1,,,,,,,,,,,,,,,,,,,,,,,,
,,,,,,,,,,,,l,0.615,Correct!,,,,,,t2.png,t5.png,3,0.0000131,19,male,2020-09-16_16h58.16.961,torte-2b,2020.1.3,MacIntel,60,13384,,,,,,,,,,,,,,,,,,,,,,,,,,,,,,,,,,,,0,71,71,8,1,,,,,,,,,,,,,,,,,,,,,,,,
,,,,,,,,,,,,a,0.622,Incorrect,,,,,,t4.png,t1.png,3,0.0000131,19,male,2020-09-16_16h58.16.961,torte-2b,2020.1.3,MacIntel,60,13384,,,,,,,,,,,,,,,,,,,,,,,,,,,,,,,,,,,,0,72,72,93,1,,,,,,,,,,,,,,,,,,,,,,,,
,,,,,,,,,,,,a,0.488,Incorrect,,,,,,t5.png,t3.png,2,0.0565,19,male,2020-09-16_16h58.16.961,torte-2b,2020.1.3,MacIntel,60,13384,,,,,,,,,,,,,,,,,,,,,,,,,,,,,,,,,,,,0,73,73,39,1,,,,,,,,,,,,,,,,,,,,,,,,
,,,,,,,,,,,,a,0.442,Incorrect,,,,,,t4.png,t1.png,3,0.0000131,19,male,2020-09-16_16h58.16.961,torte-2b,2020.1.3,MacIntel,60,13384,,,,,,,,,,,,,,,,,,,,,,,,,,,,,,,,,,,,0,74,74,42,1,,,,,,,,,,,,,,,,,,,,,,,,
,,,,,,,,,,,,a,0.446,Incorrect,,,,,,t3.png,t1.png,2,0.056466,19,male,2020-09-16_16h58.16.961,torte-2b,2020.1.3,MacIntel,60,13384,,,,,,,,,,,,,,,,,,,,,,,,,,,,,,,,,,,,0,75,75,29,1,,,,,,,,,,,,,,,,,,,,,,,,
,,,,,,,,,,,,a,0.453,Incorrect,,,,,,t5.png,t4.png,1,0.90025,19,male,2020-09-16_16h58.16.961,torte-2b,2020.1.3,MacIntel,60,13384,,,,,,,,,,,,,,,,,,,,,,,,,,,,,,,,,,,,0,76,76,27,1,,,,,,,,,,,,,,,,,,,,,,,,
,,,,,,,,,,,,a,0.604,Incorrect,,,,,,t4.png,t2.png,2,0.059078,19,male,2020-09-16_16h58.16.961,torte-2b,2020.1.3,MacIntel,60,13384,,,,,,,,,,,,,,,,,,,,,,,,,,,,,,,,,,,,0,77,77,88,1,,,,,,,,,,,,,,,,,,,,,,,,
,,,,,,,,,,,,a,0.455,Incorrect,,,,,,t4.png,t1.png,3,0.0000131,19,male,2020-09-16_16h58.16.961,torte-2b,2020.1.3,MacIntel,60,13384,,,,,,,,,,,,,,,,,,,,,,,,,,,,,,,,,,,,0,78,78,13,1,,,,,,,,,,,,,,,,,,,,,,,,
,,,,,,,,,,,,l,0.519,Incorrect,,,,,,t1.png,t3.png,2,0.056466,19,male,2020-09-16_16h58.16.961,torte-2b,2020.1.3,MacIntel,60,13384,,,,,,,,,,,,,,,,,,,,,,,,,,,,,,,,,,,,0,79,79,69,1,,,,,,,,,,,,,,,,,,,,,,,,
,,,,,,,,,,,,l,0.504,Correct!,,,,,,t1.png,t5.png,4,9.55E-11,19,male,2020-09-16_16h58.16.961,torte-2b,2020.1.3,MacIntel,60,13384,,,,,,,,,,,,,,,,,,,,,,,,,,,,,,,,,,,,0,80,80,55,1,,,,,,,,,,,,,,,,,,,,,,,,
,,,,,,,,,,,,a,0.685,Correct!,,,,,,t2.png,t2.png,0,0.98115,19,male,2020-09-16_16h58.16.961,torte-2b,2020.1.3,MacIntel,60,13384,,,,,,,,,,,,,,,,,,,,,,,,,,,,,,,,,,,,0,81,81,57,1,,,,,,,,,,,,,,,,,,,,,,,,
,,,,,,,,,,,,l,0.688,Incorrect,,,,,,t4.png,t5.png,1,0.9,19,male,2020-09-16_16h58.16.961,torte-2b,2020.1.3,MacIntel,60,13384,,,,,,,,,,,,,,,,,,,,,,,,,,,,,,,,,,,,0,82,82,115,1,,,,,,,,,,,,,,,,,,,,,,,,
,,,,,,,,,,,,a,0.604,Incorrect,,,,,,t4.png,t2.png,2,0.059078,19,male,2020-09-16_16h58.16.961,torte-2b,2020.1.3,MacIntel,60,13384,,,,,,,,,,,,,,,,,,,,,,,,,,,,,,,,,,,,0,83,83,110,1,,,,,,,,,,,,,,,,,,,,,,,,
,,,,,,,,,,,,a,0.518,Correct!,,,,,,t5.png,t4.png,1,0.90025,19,male,2020-09-16_16h58.16.961,torte-2b,2020.1.3,MacIntel,60,13384,,,,,,,,,,,,,,,,,,,,,,,,,,,,,,,,,,,,0,84,84,34,1,,,,,,,,,,,,,,,,,,,,,,,,
,,,,,,,,,,,,a,0.572,Correct!,,,,,,t3.png,t2.png,1,0.90855,19,male,2020-09-16_16h58.16.961,torte-2b,2020.1.3,MacIntel,60,13384,,,,,,,,,,,,,,,,,,,,,,,,,,,,,,,,,,,,0,85,85,97,1,,,,,,,,,,,,,,,,,,,,,,,,
,,,,,,,,,,,,a,0.501,Correct!,,,,,,t3.png,t2.png,1,0.909,19,male,2020-09-16_16h58.16.961,torte-2b,2020.1.3,MacIntel,60,13384,,,,,,,,,,,,,,,,,,,,,,,,,,,,,,,,,,,,0,86,86,3,1,,,,,,,,,,,,,,,,,,,,,,,,
,,,,,,,,,,,,l,0.615,Incorrect,,,,,,t2.png,t3.png,1,0.90855,19,male,2020-09-16_16h58.16.961,torte-2b,2020.1.3,MacIntel,60,13384,,,,,,,,,,,,,,,,,,,,,,,,,,,,,,,,,,,,0,87,87,10,1,,,,,,,,,,,,,,,,,,,,,,,,
,,,,,,,,,,,,l,0.638,Incorrect,,,,,,t1.png,t1.png,0,0.97829,19,male,2020-09-16_16h58.16.961,torte-2b,2020.1.3,MacIntel,60,13384,,,,,,,,,,,,,,,,,,,,,,,,,,,,,,,,,,,,0,88,88,78,1,,,,,,,,,,,,,,,,,,,,,,,,
,,,,,,,,,,,,l,0.49,Correct!,,,,,,t1.png,t4.png,3,0.0000131,19,male,2020-09-16_16h58.16.961,torte-2b,2020.1.3,MacIntel,60,13384,,,,,,,,,,,,,,,,,,,,,,,,,,,,,,,,,,,,0,89,89,107,1,,,,,,,,,,,,,,,,,,,,,,,,
,,,,,,,,,,,,l,0.706,Incorrect,,,,,,t5.png,t5.png,0,0.97829,19,male,2020-09-16_16h58.16.961,torte-2b,2020.1.3,MacIntel,60,13384,,,,,,,,,,,,,,,,,,,,,,,,,,,,,,,,,,,,0,90,90,73,1,,,,,,,,,,,,,,,,,,,,,,,,
,,,,,,,,,,,,a,0.694,Incorrect,,,,,,t5.png,t2.png,3,0.0000131,19,male,2020-09-16_16h58.16.961,torte-2b,2020.1.3,MacIntel,60,13384,,,,,,,,,,,,,,,,,,,,,,,,,,,,,,,,,,,,0,91,91,51,1,,,,,,,,,,,,,,,,,,,,,,,,
,,,,,,,,,,,,l,0.672,Incorrect,,,,,,t2.png,t3.png,1,0.90855,19,male,2020-09-16_16h58.16.961,torte-2b,2020.1.3,MacIntel,60,13384,,,,,,,,,,,,,,,,,,,,,,,,,,,,,,,,,,,,0,92,92,65,1,,,,,,,,,,,,,,,,,,,,,,,,
,,,,,,,,,,,,a,0.517,Incorrect,,,,,,t3.png,t1.png,2,0.056466,19,male,2020-09-16_16h58.16.961,torte-2b,2020.1.3,MacIntel,60,13384,,,,,,,,,,,,,,,,,,,,,,,,,,,,,,,,,,,,0,93,93,32,1,,,,,,,,,,,,,,,,,,,,,,,,
,,,,,,,,,,,,a,0.529,Correct!,,,,,,t3.png,t2.png,1,0.909,19,male,2020-09-16_16h58.16.961,torte-2b,2020.1.3,MacIntel,60,13384,,,,,,,,,,,,,,,,,,,,,,,,,,,,,,,,,,,,0,94,94,23,1,,,,,,,,,,,,,,,,,,,,,,,,
,,,,,,,,,,,,a,0.572,Incorrect,,,,,,t5.png,t3.png,2,0.056466,19,male,2020-09-16_16h58.16.961,torte-2b,2020.1.3,MacIntel,60,13384,,,,,,,,,,,,,,,,,,,,,,,,,,,,,,,,,,,,0,95,95,56,1,,,,,,,,,,,,,,,,,,,,,,,,
,,,,,,,,,,,,l,0.74,Correct!,,,,,,t1.png,t5.png,4,9.55E-11,19,male,2020-09-16_16h58.16.961,torte-2b,2020.1.3,MacIntel,60,13384,,,,,,,,,,,,,,,,,,,,,,,,,,,,,,,,,,,,0,96,96,16,1,,,,,,,,,,,,,,,,,,,,,,,,
,,,,,,,,,,,,a,0.825,Correct!,,,,,,t2.png,t1.png,1,0.9,19,male,2020-09-16_16h58.16.961,torte-2b,2020.1.3,MacIntel,60,13384,,,,,,,,,,,,,,,,,,,,,,,,,,,,,,,,,,,,0,97,97,118,1,,,,,,,,,,,,,,,,,,,,,,,,
,,,,,,,,,,,,l,0.64,Correct!,,,,,,t1.png,t4.png,3,0.0000131,19,male,2020-09-16_16h58.16.961,torte-2b,2020.1.3,MacIntel,60,13384,,,,,,,,,,,,,,,,,,,,,,,,,,,,,,,,,,,,0,98,98,17,1,,,,,,,,,,,,,,,,,,,,,,,,
,,,,,,,,,,,,a,0.489,Correct!,,,,,,t4.png,t4.png,0,0.98115,19,male,2020-09-16_16h58.16.961,torte-2b,2020.1.3,MacIntel,60,13384,,,,,,,,,,,,,,,,,,,,,,,,,,,,,,,,,,,,0,99,99,80,1,,,,,,,,,,,,,,,,,,,,,,,,
,,,,,,,,,,,,l,0.803,Incorrect,,,,,,t1.png,t1.png,0,0.978,19,male,2020-09-16_16h58.16.961,torte-2b,2020.1.3,MacIntel,60,13384,,,,,,,,,,,,,,,,,,,,,,,,,,,,,,,,,,,,0,100,100,28,1,,,,,,,,,,,,,,,,,,,,,,,,
,,,,,,,,,,,,a,0.589,Incorrect,,,,,,t4.png,t2.png,2,0.059078,19,male,2020-09-16_16h58.16.961,torte-2b,2020.1.3,MacIntel,60,13384,,,,,,,,,,,,,,,,,,,,,,,,,,,,,,,,,,,,0,101,101,86,1,,,,,,,,,,,,,,,,,,,,,,,,
,,,,,,,,,,,,l,1.227,Incorrect,,,,,,t4.png,t4.png,0,0.98115,19,male,2020-09-16_16h58.16.961,torte-2b,2020.1.3,MacIntel,60,13384,,,,,,,,,,,,,,,,,,,,,,,,,,,,,,,,,,,,0,102,102,52,1,,,,,,,,,,,,,,,,,,,,,,,,
,,,,,,,,,,,,l,0.907,Incorrect,,,,,,t4.png,t4.png,0,0.98115,19,male,2020-09-16_16h58.16.961,torte-2b,2020.1.3,MacIntel,60,13384,,,,,,,,,,,,,,,,,,,,,,,,,,,,,,,,,,,,0,103,103,90,1,,,,,,,,,,,,,,,,,,,,,,,,
,,,,,,,,,,,,a,0.72,Correct!,,,,,,t2.png,t1.png,1,0.90025,19,male,2020-09-16_16h58.16.961,torte-2b,2020.1.3,MacIntel,60,13384,,,,,,,,,,,,,,,,,,,,,,,,,,,,,,,,,,,,0,104,104,4,1,,,,,,,,,,,,,,,,,,,,,,,,
,,,,,,,,,,,,a,1.243,Correct!,,,,,,t5.png,t4.png,1,0.90025,19,male,2020-09-16_16h58.16.961,torte-2b,2020.1.3,MacIntel,60,13384,,,,,,,,,,,,,,,,,,,,,,,,,,,,,,,,,,,,0,105,105,26,1,,,,,,,,,,,,,,,,,,,,,,,,
,,,,,,,,,,,,l,0.759,Incorrect,,,,,,t2.png,t3.png,1,0.90855,19,male,2020-09-16_16h58.16.961,torte-2b,2020.1.3,MacIntel,60,13384,,,,,,,,,,,,,,,,,,,,,,,,,,,,,,,,,,,,0,106,106,111,1,,,,,,,,,,,,,,,,,,,,,,,,
,,,,,,,,,,,,l,1.161,Correct!,,,,,,t3.png,t5.png,2,0.056466,19,male,2020-09-16_16h58.16.961,torte-2b,2020.1.3,MacIntel,60,13384,,,,,,,,,,,,,,,,,,,,,,,,,,,,,,,,,,,,0,107,107,14,1,,,,,,,,,,,,,,,,,,,,,,,,
,,,,,,,,,,,,a,0.837,Incorrect,,,,,,t4.png,t1.png,3,0.0000131,19,male,2020-09-16_16h58.16.961,torte-2b,2020.1.3,MacIntel,60,13384,,,,,,,,,,,,,,,,,,,,,,,,,,,,,,,,,,,,0,108,108,48,1,,,,,,,,,,,,,,,,,,,,,,,,
,,,,,,,,,,,,l,0.621,Incorrect,,,,,,t1.png,t2.png,1,0.90025,19,male,2020-09-16_16h58.16.961,torte-2b,2020.1.3,MacIntel,60,13384,,,,,,,,,,,,,,,,,,,,,,,,,,,,,,,,,,,,0,109,109,72,1,,,,,,,,,,,,,,,,,,,,,,,,
,,,,,,,,,,,,l,1.425,Incorrect,,,,,,t3.png,t4.png,1,0.90855,19,male,2020-09-16_16h58.16.961,torte-2b,2020.1.3,MacIntel,60,13384,,,,,,,,,,,,,,,,,,,,,,,,,,,,,,,,,,,,0,110,110,96,1,,,,,,,,,,,,,,,,,,,,,,,,
,,,,,,,,,,,,l,1.192,Incorrect,,,,,,t5.png,t5.png,0,0.97829,19,male,2020-09-16_16h58.16.961,torte-2b,2020.1.3,MacIntel,60,13384,,,,,,,,,,,,,,,,,,,,,,,,,,,,,,,,,,,,0,111,111,25,1,,,,,,,,,,,,,,,,,,,,,,,,
,,,,,,,,,,,,l,0.818,Incorrect,,,,,,t1.png,t2.png,1,0.90025,19,male,2020-09-16_16h58.16.961,torte-2b,2020.1.3,MacIntel,60,13384,,,,,,,,,,,,,,,,,,,,,,,,,,,,,,,,,,,,0,112,112,112,1,,,,,,,,,,,,,,,,,,,,,,,,
,,,,,,,,,,,,l,0.715,Incorrect,,,,,,t2.png,t3.png,1,0.909,19,male,2020-09-16_16h58.16.961,torte-2b,2020.1.3,MacIntel,60,13384,,,,,,,,,,,,,,,,,,,,,,,,,,,,,,,,,,,,0,113,113,74,1,,,,,,,,,,,,,,,,,,,,,,,,
,,,,,,,,,,,,l,0.706,Correct!,,,,,,t2.png,t4.png,2,0.059078,19,male,2020-09-16_16h58.16.961,torte-2b,2020.1.3,MacIntel,60,13384,,,,,,,,,,,,,,,,,,,,,,,,,,,,,,,,,,,,0,114,114,24,1,,,,,,,,,,,,,,,,,,,,,,,,
,,,,,,,,,,,,a,0.759,Incorrect,,,,,,t4.png,t2.png,2,0.0591,19,male,2020-09-16_16h58.16.961,torte-2b,2020.1.3,MacIntel,60,13384,,,,,,,,,,,,,,,,,,,,,,,,,,,,,,,,,,,,0,115,115,36,1,,,,,,,,,,,,,,,,,,,,,,,,
,,,,,,,,,,,,a,0.54,Incorrect,,,,,,t5.png,t1.png,4,9.55E-11,19,male,2020-09-16_16h58.16.961,torte-2b,2020.1.3,MacIntel,60,13384,,,,,,,,,,,,,,,,,,,,,,,,,,,,,,,,,,,,0,116,116,43,1,,,,,,,,,,,,,,,,,,,,,,,,
,,,,,,,,,,,,l,0.639,Correct!,,,,,,t3.png,t5.png,2,0.056466,19,male,2020-09-16_16h58.16.961,torte-2b,2020.1.3,MacIntel,60,13384,,,,,,,,,,,,,,,,,,,,,,,,,,,,,,,,,,,,0,117,117,44,1,,,,,,,,,,,,,,,,,,,,,,,,
,,,,,,,,,,,,l,1.093,Correct!,,,,,,t2.png,t4.png,2,0.059078,19,male,2020-09-16_16h58.16.961,torte-2b,2020.1.3,MacIntel,60,13384,,,,,,,,,,,,,,,,,,,,,,,,,,,,,,,,,,,,0,118,118,37,1,,,,,,,,,,,,,,,,,,,,,,,,
,,,,,,,,,,,,l,0.51,Incorrect,,,,,,t3.png,t4.png,1,0.909,19,male,2020-09-16_16h58.16.961,torte-2b,2020.1.3,MacIntel,60,13384,,,,,,,,,,,,,,,,,,,,,,,,,,,,,,,,,,,,0,119,119,106,1,,,,,,,,,,,,,,,,,,,,,,,,
,,,,,,,,,,,,,,,,,,,,,,,,19,male,2020-09-16_16h58.16.961,torte-2b,2020.1.3,MacIntel,60,13384,space,1.129,,,,,,,,,,,,,,,,,,,,,,,,,,,,,,,,,,,,,,,137,170,1,0,0,s1,56,19,1,0,0,t2,206,-106,1,0,0,proceed,space,1.09,space,1.156,space,0.528
