key_resp_8.keys,key_resp_8.rt,key_resp_9.keys,key_resp_9.rt,key_resp_10.keys,key_resp_10.rt,key_resp_11.keys,key_resp_11.rt,key_resp_2.keys,key_resp_2.rt,key_resp_3.keys,key_resp_3.rt,key_resp.keys,key_resp.rt,Feedback,train.thisRepN,train.thisTrialN,train.thisN,train.thisIndex,train.ran,torta_sx,torta_dx,difference,probability,age,gender,date,expName,psychopyVersion,OS,frameRate,participant,key_resp_15.keys,key_resp_15.rt,key_resp_6.keys,key_resp_6.rt,test1.thisRepN,test1.thisTrialN,test1.thisN,test1.thisIndex,test1.ran,key_resp_4.keys,key_resp_4.rt,key_resp_5.keys,back1.thisRepN,back1.thisTrialN,back1.thisN,back1.thisIndex,back1.ran,letter,key_resp_5.rt,back2.thisRepN,back2.thisTrialN,back2.thisN,back2.thisIndex,back2.ran,back3.thisRepN,back3.thisTrialN,back3.thisN,back3.thisIndex,back3.ran,back4.thisRepN,back4.thisTrialN,back4.thisN,back4.thisIndex,back4.ran,key_resp_7.keys,key_resp_7.rt,test2.thisRepN,test2.thisTrialN,test2.thisN,test2.thisIndex,test2.ran,mouse.x,mouse.y,mouse.leftButton,mouse.midButton,mouse.rightButton,mouse.clicked_name,mouse_2.x,mouse_2.y,mouse_2.leftButton,mouse_2.midButton,mouse_2.rightButton,mouse_2.clicked_name,mouse_3.x,mouse_3.y,mouse_3.leftButton,mouse_3.midButton,mouse_3.rightButton,mouse_3.clicked_name,key_resp_12.keys,key_resp_12.rt,key_resp_13.keys,key_resp_13.rt,key_resp_14.keys,key_resp_14.rt
space,0.439385,space,0.336895,space,0.2697,space,0.61523,space,21.893845,space,28.304575,l,0.892145,Incorrect,0,0,0,77,1,t1.png,t1.png,0,0.97829,20,male,2020-11-19_14h24.22.434,torte-2b,2020.1.3,Win32,60,13391,,,,,,,,,,,,,,,,,,,,,,,,,,,,,,,,,,,,,,,,,,,,,,,,,,,,,,,,,,,,,,,,,
,,,,,,,,,,,,l,0.98684,Incorrect,0,1,1,9,1,t4.png,t5.png,1,0.9,20,male,2020-11-19_14h24.22.434,torte-2b,2020.1.3,Win32,60,13391,,,,,,,,,,,,,,,,,,,,,,,,,,,,,,,,,,,,,,,,,,,,,,,,,,,,,,,,,,,,,,,,,
,,,,,,,,,,,,l,0.835265,Incorrect,0,2,2,20,1,t2.png,t3.png,1,0.90855,20,male,2020-11-19_14h24.22.434,torte-2b,2020.1.3,Win32,60,13391,,,,,,,,,,,,,,,,,,,,,,,,,,,,,,,,,,,,,,,,,,,,,,,,,,,,,,,,,,,,,,,,,
,,,,,,,,,,,,a,0.973235,Incorrect,0,3,3,6,1,t1.png,t4.png,3,0.0000131,20,male,2020-11-19_14h24.22.434,torte-2b,2020.1.3,Win32,60,13391,,,,,,,,,,,,,,,,,,,,,,,,,,,,,,,,,,,,,,,,,,,,,,,,,,,,,,,,,,,,,,,,,
,,,,,,,,,,,,l,0.758725,Incorrect,0,4,4,49,1,t4.png,t5.png,1,0.9,20,male,2020-11-19_14h24.22.434,torte-2b,2020.1.3,Win32,60,13391,,,,,,,,,,,,,,,,,,,,,,,,,,,,,,,,,,,,,,,,,,,,,,,,,,,,,,,,,,,,,,,,,
,,,,,,,,,,,,a,0.62053,Correct!,0,5,5,2,1,t3.png,t2.png,1,0.90855,20,male,2020-11-19_14h24.22.434,torte-2b,2020.1.3,Win32,60,13391,,,,,,,,,,,,,,,,,,,,,,,,,,,,,,,,,,,,,,,,,,,,,,,,,,,,,,,,,,,,,,,,,
,,,,,,,,,,,,a,0.55089,Correct!,0,6,6,46,1,t4.png,t2.png,2,0.059078,20,male,2020-11-19_14h24.22.434,torte-2b,2020.1.3,Win32,60,13391,,,,,,,,,,,,,,,,,,,,,,,,,,,,,,,,,,,,,,,,,,,,,,,,,,,,,,,,,,,,,,,,,
,,,,,,,,,,,,a,0.64589,Correct!,0,7,7,97,1,t5.png,t5.png,0,0.97829,20,male,2020-11-19_14h24.22.434,torte-2b,2020.1.3,Win32,60,13391,,,,,,,,,,,,,,,,,,,,,,,,,,,,,,,,,,,,,,,,,,,,,,,,,,,,,,,,,,,,,,,,,
,,,,,,,,,,,,l,0.52309,Correct!,0,8,8,90,1,t1.png,t5.png,4,9.55E-11,20,male,2020-11-19_14h24.22.434,torte-2b,2020.1.3,Win32,60,13391,,,,,,,,,,,,,,,,,,,,,,,,,,,,,,,,,,,,,,,,,,,,,,,,,,,,,,,,,,,,,,,,,
,,,,,,,,,,,,a,0.506235,Correct!,0,9,9,107,1,t1.png,t1.png,0,0.978,20,male,2020-11-19_14h24.22.434,torte-2b,2020.1.3,Win32,60,13391,,,,,,,,,,,,,,,,,,,,,,,,,,,,,,,,,,,,,,,,,,,,,,,,,,,,,,,,,,,,,,,,,
,,,,,,,,,,,,l,0.506415,Correct!,0,10,10,11,1,t1.png,t4.png,3,0.0000131,20,male,2020-11-19_14h24.22.434,torte-2b,2020.1.3,Win32,60,13391,,,,,,,,,,,,,,,,,,,,,,,,,,,,,,,,,,,,,,,,,,,,,,,,,,,,,,,,,,,,,,,,,
,,,,,,,,,,,,l,0.45318,Incorrect,0,11,11,93,1,t2.png,t4.png,2,0.059078,20,male,2020-11-19_14h24.22.434,torte-2b,2020.1.3,Win32,60,13391,,,,,,,,,,,,,,,,,,,,,,,,,,,,,,,,,,,,,,,,,,,,,,,,,,,,,,,,,,,,,,,,,
,,,,,,,,,,,,a,0.59118,Correct!,0,12,12,118,1,t5.png,t5.png,0,0.978,20,male,2020-11-19_14h24.22.434,torte-2b,2020.1.3,Win32,60,13391,,,,,,,,,,,,,,,,,,,,,,,,,,,,,,,,,,,,,,,,,,,,,,,,,,,,,,,,,,,,,,,,,
,,,,,,,,,,,,l,0.82808,Incorrect,0,13,13,66,1,t4.png,t5.png,1,0.9,20,male,2020-11-19_14h24.22.434,torte-2b,2020.1.3,Win32,60,13391,,,,,,,,,,,,,,,,,,,,,,,,,,,,,,,,,,,,,,,,,,,,,,,,,,,,,,,,,,,,,,,,,
,,,,,,,,,,,,a,0.598415,Incorrect,0,14,14,33,1,t5.png,t1.png,4,9.55E-11,20,male,2020-11-19_14h24.22.434,torte-2b,2020.1.3,Win32,60,13391,,,,,,,,,,,,,,,,,,,,,,,,,,,,,,,,,,,,,,,,,,,,,,,,,,,,,,,,,,,,,,,,,
,,,,,,,,,,,,l,0.49815,Correct!,0,15,15,14,1,t2.png,t4.png,2,0.059078,20,male,2020-11-19_14h24.22.434,torte-2b,2020.1.3,Win32,60,13391,,,,,,,,,,,,,,,,,,,,,,,,,,,,,,,,,,,,,,,,,,,,,,,,,,,,,,,,,,,,,,,,,
,,,,,,,,,,,,a,0.46375,Correct!,0,16,16,53,1,t3.png,t1.png,2,0.056466,20,male,2020-11-19_14h24.22.434,torte-2b,2020.1.3,Win32,60,13391,,,,,,,,,,,,,,,,,,,,,,,,,,,,,,,,,,,,,,,,,,,,,,,,,,,,,,,,,,,,,,,,,
,,,,,,,,,,,,l,0.48668,Incorrect,0,17,17,44,1,t2.png,t3.png,1,0.909,20,male,2020-11-19_14h24.22.434,torte-2b,2020.1.3,Win32,60,13391,,,,,,,,,,,,,,,,,,,,,,,,,,,,,,,,,,,,,,,,,,,,,,,,,,,,,,,,,,,,,,,,,
,,,,,,,,,,,,a,0.48246,Incorrect,0,18,18,26,1,t4.png,t2.png,2,0.0591,20,male,2020-11-19_14h24.22.434,torte-2b,2020.1.3,Win32,60,13391,,,,,,,,,,,,,,,,,,,,,,,,,,,,,,,,,,,,,,,,,,,,,,,,,,,,,,,,,,,,,,,,,
,,,,,,,,,,,,l,0.472795,Correct!,0,19,19,4,1,t1.png,t5.png,4,9.55E-11,20,male,2020-11-19_14h24.22.434,torte-2b,2020.1.3,Win32,60,13391,,,,,,,,,,,,,,,,,,,,,,,,,,,,,,,,,,,,,,,,,,,,,,,,,,,,,,,,,,,,,,,,,
,,,,,,,,,,,,a,0.56032,Correct!,0,20,20,81,1,t1.png,t1.png,0,0.97829,20,male,2020-11-19_14h24.22.434,torte-2b,2020.1.3,Win32,60,13391,,,,,,,,,,,,,,,,,,,,,,,,,,,,,,,,,,,,,,,,,,,,,,,,,,,,,,,,,,,,,,,,,
,,,,,,,,,,,,a,0.592315,Correct!,0,21,21,32,1,t4.png,t5.png,1,0.90025,20,male,2020-11-19_14h24.22.434,torte-2b,2020.1.3,Win32,60,13391,,,,,,,,,,,,,,,,,,,,,,,,,,,,,,,,,,,,,,,,,,,,,,,,,,,,,,,,,,,,,,,,,
,,,,,,,,,,,,a,0.631415,Correct!,0,22,22,62,1,t5.png,t5.png,0,0.978,20,male,2020-11-19_14h24.22.434,torte-2b,2020.1.3,Win32,60,13391,,,,,,,,,,,,,,,,,,,,,,,,,,,,,,,,,,,,,,,,,,,,,,,,,,,,,,,,,,,,,,,,,
,,,,,,,,,,,,l,0.513805,Correct!,0,23,23,37,1,t1.png,t4.png,3,0.0000131,20,male,2020-11-19_14h24.22.434,torte-2b,2020.1.3,Win32,60,13391,,,,,,,,,,,,,,,,,,,,,,,,,,,,,,,,,,,,,,,,,,,,,,,,,,,,,,,,,,,,,,,,,
,,,,,,,,,,,,a,0.663735,Correct!,0,24,24,113,1,t5.png,t4.png,1,0.9,20,male,2020-11-19_14h24.22.434,torte-2b,2020.1.3,Win32,60,13391,,,,,,,,,,,,,,,,,,,,,,,,,,,,,,,,,,,,,,,,,,,,,,,,,,,,,,,,,,,,,,,,,
,,,,,,,,,,,,l,0.662015,Correct!,0,25,25,61,1,t1.png,t4.png,3,0.0000131,20,male,2020-11-19_14h24.22.434,torte-2b,2020.1.3,Win32,60,13391,,,,,,,,,,,,,,,,,,,,,,,,,,,,,,,,,,,,,,,,,,,,,,,,,,,,,,,,,,,,,,,,,
,,,,,,,,,,,,a,0.651825,Incorrect,0,26,26,86,1,t3.png,t1.png,2,0.056466,20,male,2020-11-19_14h24.22.434,torte-2b,2020.1.3,Win32,60,13391,,,,,,,,,,,,,,,,,,,,,,,,,,,,,,,,,,,,,,,,,,,,,,,,,,,,,,,,,,,,,,,,,
,,,,,,,,,,,,a,0.903515,Correct!,0,27,27,29,1,t5.png,t5.png,0,0.97829,20,male,2020-11-19_14h24.22.434,torte-2b,2020.1.3,Win32,60,13391,,,,,,,,,,,,,,,,,,,,,,,,,,,,,,,,,,,,,,,,,,,,,,,,,,,,,,,,,,,,,,,,,
,,,,,,,,,,,,a,0.4829,Incorrect,0,28,28,0,1,t5.png,t1.png,4,9.55E-11,20,male,2020-11-19_14h24.22.434,torte-2b,2020.1.3,Win32,60,13391,,,,,,,,,,,,,,,,,,,,,,,,,,,,,,,,,,,,,,,,,,,,,,,,,,,,,,,,,,,,,,,,,
,,,,,,,,,,,,l,0.984065,Correct!,0,29,29,31,1,t1.png,t5.png,4,9.55E-11,20,male,2020-11-19_14h24.22.434,torte-2b,2020.1.3,Win32,60,13391,,,,,,,,,,,,,,,,,,,,,,,,,,,,,,,,,,,,,,,,,,,,,,,,,,,,,,,,,,,,,,,,,
,,,,,,,,,,,,l,0.599555,Incorrect,0,30,30,23,1,t5.png,t4.png,1,0.90025,20,male,2020-11-19_14h24.22.434,torte-2b,2020.1.3,Win32,60,13391,,,,,,,,,,,,,,,,,,,,,,,,,,,,,,,,,,,,,,,,,,,,,,,,,,,,,,,,,,,,,,,,,
,,,,,,,,,,,,a,0.734895,Incorrect,0,31,31,72,1,t4.png,t2.png,2,0.059078,20,male,2020-11-19_14h24.22.434,torte-2b,2020.1.3,Win32,60,13391,,,,,,,,,,,,,,,,,,,,,,,,,,,,,,,,,,,,,,,,,,,,,,,,,,,,,,,,,,,,,,,,,
,,,,,,,,,,,,l,0.607405,Incorrect,0,32,32,10,1,t2.png,t3.png,1,0.90855,20,male,2020-11-19_14h24.22.434,torte-2b,2020.1.3,Win32,60,13391,,,,,,,,,,,,,,,,,,,,,,,,,,,,,,,,,,,,,,,,,,,,,,,,,,,,,,,,,,,,,,,,,
,,,,,,,,,,,,a,0.43167,Incorrect,0,33,33,103,1,t3.png,t1.png,2,0.056466,20,male,2020-11-19_14h24.22.434,torte-2b,2020.1.3,Win32,60,13391,,,,,,,,,,,,,,,,,,,,,,,,,,,,,,,,,,,,,,,,,,,,,,,,,,,,,,,,,,,,,,,,,
,,,,,,,,,,,,l,0.392455,Incorrect,0,34,34,112,1,t1.png,t1.png,0,0.97829,20,male,2020-11-19_14h24.22.434,torte-2b,2020.1.3,Win32,60,13391,,,,,,,,,,,,,,,,,,,,,,,,,,,,,,,,,,,,,,,,,,,,,,,,,,,,,,,,,,,,,,,,,
,,,,,,,,,,,,a,0.348795,Incorrect,0,35,35,98,1,t2.png,t4.png,2,0.0591,20,male,2020-11-19_14h24.22.434,torte-2b,2020.1.3,Win32,60,13391,,,,,,,,,,,,,,,,,,,,,,,,,,,,,,,,,,,,,,,,,,,,,,,,,,,,,,,,,,,,,,,,,
,,,,,,,,,,,,l,0.60114,Correct!,0,36,36,108,1,t5.png,t1.png,4,9.55E-11,20,male,2020-11-19_14h24.22.434,torte-2b,2020.1.3,Win32,60,13391,,,,,,,,,,,,,,,,,,,,,,,,,,,,,,,,,,,,,,,,,,,,,,,,,,,,,,,,,,,,,,,,,
,,,,,,,,,,,,a,0.407315,Correct!,0,37,37,42,1,t5.png,t4.png,1,0.90025,20,male,2020-11-19_14h24.22.434,torte-2b,2020.1.3,Win32,60,13391,,,,,,,,,,,,,,,,,,,,,,,,,,,,,,,,,,,,,,,,,,,,,,,,,,,,,,,,,,,,,,,,,
,,,,,,,,,,,,a,0.36823,Correct!,0,38,38,74,1,t5.png,t4.png,1,0.9,20,male,2020-11-19_14h24.22.434,torte-2b,2020.1.3,Win32,60,13391,,,,,,,,,,,,,,,,,,,,,,,,,,,,,,,,,,,,,,,,,,,,,,,,,,,,,,,,,,,,,,,,,
,,,,,,,,,,,,l,0.531345,Correct!,0,39,39,52,1,t2.png,t4.png,2,0.059078,20,male,2020-11-19_14h24.22.434,torte-2b,2020.1.3,Win32,60,13391,,,,,,,,,,,,,,,,,,,,,,,,,,,,,,,,,,,,,,,,,,,,,,,,,,,,,,,,,,,,,,,,,
,,,,,,,,,,,,l,0.4635,Correct!,0,40,40,80,1,t1.png,t4.png,3,0.0000131,20,male,2020-11-19_14h24.22.434,torte-2b,2020.1.3,Win32,60,13391,,,,,,,,,,,,,,,,,,,,,,,,,,,,,,,,,,,,,,,,,,,,,,,,,,,,,,,,,,,,,,,,,
,,,,,,,,,,,,a,0.38215,Correct!,0,41,41,16,1,t5.png,t4.png,1,0.9,20,male,2020-11-19_14h24.22.434,torte-2b,2020.1.3,Win32,60,13391,,,,,,,,,,,,,,,,,,,,,,,,,,,,,,,,,,,,,,,,,,,,,,,,,,,,,,,,,,,,,,,,,
,,,,,,,,,,,,l,0.405335,Correct!,0,42,42,1,1,t2.png,t4.png,2,0.059078,20,male,2020-11-19_14h24.22.434,torte-2b,2020.1.3,Win32,60,13391,,,,,,,,,,,,,,,,,,,,,,,,,,,,,,,,,,,,,,,,,,,,,,,,,,,,,,,,,,,,,,,,,
,,,,,,,,,,,,l,0.431295,Correct!,0,43,43,119,1,t1.png,t5.png,4,9.55E-11,20,male,2020-11-19_14h24.22.434,torte-2b,2020.1.3,Win32,60,13391,,,,,,,,,,,,,,,,,,,,,,,,,,,,,,,,,,,,,,,,,,,,,,,,,,,,,,,,,,,,,,,,,
,,,,,,,,,,,,a,0.486965,Incorrect,0,44,44,73,1,t4.png,t2.png,2,0.059078,20,male,2020-11-19_14h24.22.434,torte-2b,2020.1.3,Win32,60,13391,,,,,,,,,,,,,,,,,,,,,,,,,,,,,,,,,,,,,,,,,,,,,,,,,,,,,,,,,,,,,,,,,
,,,,,,,,,,,,l,0.415585,Incorrect,0,45,45,106,1,t2.png,t3.png,1,0.90855,20,male,2020-11-19_14h24.22.434,torte-2b,2020.1.3,Win32,60,13391,,,,,,,,,,,,,,,,,,,,,,,,,,,,,,,,,,,,,,,,,,,,,,,,,,,,,,,,,,,,,,,,,
,,,,,,,,,,,,l,0.5633,Correct!,0,46,46,54,1,t1.png,t5.png,4,9.55E-11,20,male,2020-11-19_14h24.22.434,torte-2b,2020.1.3,Win32,60,13391,,,,,,,,,,,,,,,,,,,,,,,,,,,,,,,,,,,,,,,,,,,,,,,,,,,,,,,,,,,,,,,,,
,,,,,,,,,,,,l,0.435575,Incorrect,0,47,47,109,1,t5.png,t5.png,0,0.97829,20,male,2020-11-19_14h24.22.434,torte-2b,2020.1.3,Win32,60,13391,,,,,,,,,,,,,,,,,,,,,,,,,,,,,,,,,,,,,,,,,,,,,,,,,,,,,,,,,,,,,,,,,
,,,,,,,,,,,,l,0.26529,Incorrect,0,48,48,63,1,t2.png,t3.png,1,0.909,20,male,2020-11-19_14h24.22.434,torte-2b,2020.1.3,Win32,60,13391,,,,,,,,,,,,,,,,,,,,,,,,,,,,,,,,,,,,,,,,,,,,,,,,,,,,,,,,,,,,,,,,,
,,,,,,,,,,,,a,0.35515,Correct!,0,49,49,59,1,t5.png,t4.png,1,0.9,20,male,2020-11-19_14h24.22.434,torte-2b,2020.1.3,Win32,60,13391,,,,,,,,,,,,,,,,,,,,,,,,,,,,,,,,,,,,,,,,,,,,,,,,,,,,,,,,,,,,,,,,,
,,,,,,,,,,,,l,0.38186,Correct!,0,50,50,91,1,t1.png,t4.png,3,0.0000131,20,male,2020-11-19_14h24.22.434,torte-2b,2020.1.3,Win32,60,13391,,,,,,,,,,,,,,,,,,,,,,,,,,,,,,,,,,,,,,,,,,,,,,,,,,,,,,,,,,,,,,,,,
,,,,,,,,,,,,a,0.350625,Correct!,0,51,51,70,1,t5.png,t5.png,0,0.978,20,male,2020-11-19_14h24.22.434,torte-2b,2020.1.3,Win32,60,13391,,,,,,,,,,,,,,,,,,,,,,,,,,,,,,,,,,,,,,,,,,,,,,,,,,,,,,,,,,,,,,,,,
,,,,,,,,,,,,l,0.36871,Correct!,0,52,52,89,1,t1.png,t4.png,3,0.0000131,20,male,2020-11-19_14h24.22.434,torte-2b,2020.1.3,Win32,60,13391,,,,,,,,,,,,,,,,,,,,,,,,,,,,,,,,,,,,,,,,,,,,,,,,,,,,,,,,,,,,,,,,,
,,,,,,,,,,,,a,0.43281,Correct!,0,53,53,48,1,t5.png,t5.png,0,0.97829,20,male,2020-11-19_14h24.22.434,torte-2b,2020.1.3,Win32,60,13391,,,,,,,,,,,,,,,,,,,,,,,,,,,,,,,,,,,,,,,,,,,,,,,,,,,,,,,,,,,,,,,,,
,,,,,,,,,,,,l,0.382195,Incorrect,0,54,54,78,1,t1.png,t1.png,0,0.978,20,male,2020-11-19_14h24.22.434,torte-2b,2020.1.3,Win32,60,13391,,,,,,,,,,,,,,,,,,,,,,,,,,,,,,,,,,,,,,,,,,,,,,,,,,,,,,,,,,,,,,,,,
,,,,,,,,,,,,l,0.23327,Correct!,0,55,55,99,1,t1.png,t5.png,4,9.55E-11,20,male,2020-11-19_14h24.22.434,torte-2b,2020.1.3,Win32,60,13391,,,,,,,,,,,,,,,,,,,,,,,,,,,,,,,,,,,,,,,,,,,,,,,,,,,,,,,,,,,,,,,,,
,,,,,,,,,,,,a,0.324215,Incorrect,0,56,56,57,1,t2.png,t4.png,2,0.059078,20,male,2020-11-19_14h24.22.434,torte-2b,2020.1.3,Win32,60,13391,,,,,,,,,,,,,,,,,,,,,,,,,,,,,,,,,,,,,,,,,,,,,,,,,,,,,,,,,,,,,,,,,
,,,,,,,,,,,,l,0.431365,Correct!,0,57,57,5,1,t2.png,t4.png,2,0.059078,20,male,2020-11-19_14h24.22.434,torte-2b,2020.1.3,Win32,60,13391,,,,,,,,,,,,,,,,,,,,,,,,,,,,,,,,,,,,,,,,,,,,,,,,,,,,,,,,,,,,,,,,,
,,,,,,,,,,,,l,0.372515,Correct!,0,58,58,17,1,t1.png,t4.png,3,0.0000131,20,male,2020-11-19_14h24.22.434,torte-2b,2020.1.3,Win32,60,13391,,,,,,,,,,,,,,,,,,,,,,,,,,,,,,,,,,,,,,,,,,,,,,,,,,,,,,,,,,,,,,,,,
,,,,,,,,,,,,a,0.28964,Correct!,0,59,59,101,1,t4.png,t5.png,1,0.90025,20,male,2020-11-19_14h24.22.434,torte-2b,2020.1.3,Win32,60,13391,,,,,,,,,,,,,,,,,,,,,,,,,,,,,,,,,,,,,,,,,,,,,,,,,,,,,,,,,,,,,,,,,
,,,,,,,,,,,,l,0.286255,Correct!,0,60,60,67,1,t1.png,t5.png,4,9.55E-11,20,male,2020-11-19_14h24.22.434,torte-2b,2020.1.3,Win32,60,13391,,,,,,,,,,,,,,,,,,,,,,,,,,,,,,,,,,,,,,,,,,,,,,,,,,,,,,,,,,,,,,,,,
,,,,,,,,,,,,a,0.38054,Incorrect,0,61,61,27,1,t3.png,t1.png,2,0.0565,20,male,2020-11-19_14h24.22.434,torte-2b,2020.1.3,Win32,60,13391,,,,,,,,,,,,,,,,,,,,,,,,,,,,,,,,,,,,,,,,,,,,,,,,,,,,,,,,,,,,,,,,,
,,,,,,,,,,,,l,0.28145,Correct!,0,62,62,30,1,t3.png,t1.png,2,0.056466,20,male,2020-11-19_14h24.22.434,torte-2b,2020.1.3,Win32,60,13391,,,,,,,,,,,,,,,,,,,,,,,,,,,,,,,,,,,,,,,,,,,,,,,,,,,,,,,,,,,,,,,,,
,,,,,,,,,,,,l,0.337425,Incorrect,0,63,63,114,1,t2.png,t3.png,1,0.90855,20,male,2020-11-19_14h24.22.434,torte-2b,2020.1.3,Win32,60,13391,,,,,,,,,,,,,,,,,,,,,,,,,,,,,,,,,,,,,,,,,,,,,,,,,,,,,,,,,,,,,,,,,
,,,,,,,,,,,,a,0.31794,Correct!,0,64,64,15,1,t3.png,t2.png,1,0.90855,20,male,2020-11-19_14h24.22.434,torte-2b,2020.1.3,Win32,60,13391,,,,,,,,,,,,,,,,,,,,,,,,,,,,,,,,,,,,,,,,,,,,,,,,,,,,,,,,,,,,,,,,,
,,,,,,,,,,,,a,0.37267,Incorrect,0,65,65,38,1,t3.png,t1.png,2,0.056466,20,male,2020-11-19_14h24.22.434,torte-2b,2020.1.3,Win32,60,13391,,,,,,,,,,,,,,,,,,,,,,,,,,,,,,,,,,,,,,,,,,,,,,,,,,,,,,,,,,,,,,,,,
,,,,,,,,,,,,l,0.37197,Correct!,0,66,66,117,1,t1.png,t5.png,4,9.55E-11,20,male,2020-11-19_14h24.22.434,torte-2b,2020.1.3,Win32,60,13391,,,,,,,,,,,,,,,,,,,,,,,,,,,,,,,,,,,,,,,,,,,,,,,,,,,,,,,,,,,,,,,,,
,,,,,,,,,,,,a,0.40778,Correct!,0,67,67,28,1,t2.png,t3.png,1,0.909,20,male,2020-11-19_14h24.22.434,torte-2b,2020.1.3,Win32,60,13391,,,,,,,,,,,,,,,,,,,,,,,,,,,,,,,,,,,,,,,,,,,,,,,,,,,,,,,,,,,,,,,,,
,,,,,,,,,,,,l,0.39914,Correct!,0,68,68,40,1,t1.png,t5.png,4,9.55E-11,20,male,2020-11-19_14h24.22.434,torte-2b,2020.1.3,Win32,60,13391,,,,,,,,,,,,,,,,,,,,,,,,,,,,,,,,,,,,,,,,,,,,,,,,,,,,,,,,,,,,,,,,,
,,,,,,,,,,,,a,0.37397,Incorrect,0,69,69,50,1,t5.png,t1.png,4,9.55E-11,20,male,2020-11-19_14h24.22.434,torte-2b,2020.1.3,Win32,60,13391,,,,,,,,,,,,,,,,,,,,,,,,,,,,,,,,,,,,,,,,,,,,,,,,,,,,,,,,,,,,,,,,,
,,,,,,,,,,,,a,0.680935,Incorrect,0,70,70,102,1,t4.png,t2.png,2,0.059078,20,male,2020-11-19_14h24.22.434,torte-2b,2020.1.3,Win32,60,13391,,,,,,,,,,,,,,,,,,,,,,,,,,,,,,,,,,,,,,,,,,,,,,,,,,,,,,,,,,,,,,,,,
,,,,,,,,,,,,l,1.1202,Incorrect,0,71,71,104,1,t2.png,t3.png,1,0.90855,20,male,2020-11-19_14h24.22.434,torte-2b,2020.1.3,Win32,60,13391,,,,,,,,,,,,,,,,,,,,,,,,,,,,,,,,,,,,,,,,,,,,,,,,,,,,,,,,,,,,,,,,,
,,,,,,,,,,,,a,0.37434,Correct!,0,72,72,13,1,t5.png,t5.png,0,0.97829,20,male,2020-11-19_14h24.22.434,torte-2b,2020.1.3,Win32,60,13391,,,,,,,,,,,,,,,,,,,,,,,,,,,,,,,,,,,,,,,,,,,,,,,,,,,,,,,,,,,,,,,,,
,,,,,,,,,,,,a,0.416205,Incorrect,0,73,73,69,1,t4.png,t2.png,2,0.059078,20,male,2020-11-19_14h24.22.434,torte-2b,2020.1.3,Win32,60,13391,,,,,,,,,,,,,,,,,,,,,,,,,,,,,,,,,,,,,,,,,,,,,,,,,,,,,,,,,,,,,,,,,
,,,,,,,,,,,,a,0.334375,Incorrect,0,74,74,43,1,t4.png,t2.png,2,0.059078,20,male,2020-11-19_14h24.22.434,torte-2b,2020.1.3,Win32,60,13391,,,,,,,,,,,,,,,,,,,,,,,,,,,,,,,,,,,,,,,,,,,,,,,,,,,,,,,,,,,,,,,,,
,,,,,,,,,,,,a,0.800545,Incorrect,0,75,75,94,1,t5.png,t1.png,4,9.55E-11,20,male,2020-11-19_14h24.22.434,torte-2b,2020.1.3,Win32,60,13391,,,,,,,,,,,,,,,,,,,,,,,,,,,,,,,,,,,,,,,,,,,,,,,,,,,,,,,,,,,,,,,,,
,,,,,,,,,,,,l,0.415015,Incorrect,0,76,76,95,1,t1.png,t1.png,0,0.978,20,male,2020-11-19_14h24.22.434,torte-2b,2020.1.3,Win32,60,13391,,,,,,,,,,,,,,,,,,,,,,,,,,,,,,,,,,,,,,,,,,,,,,,,,,,,,,,,,,,,,,,,,
,,,,,,,,,,,,a,0.35099,Incorrect,0,77,77,3,1,t1.png,t5.png,4,9.55E-11,20,male,2020-11-19_14h24.22.434,torte-2b,2020.1.3,Win32,60,13391,,,,,,,,,,,,,,,,,,,,,,,,,,,,,,,,,,,,,,,,,,,,,,,,,,,,,,,,,,,,,,,,,
,,,,,,,,,,,,l,0.38224,Correct!,0,78,78,35,1,t1.png,t4.png,3,0.0000131,20,male,2020-11-19_14h24.22.434,torte-2b,2020.1.3,Win32,60,13391,,,,,,,,,,,,,,,,,,,,,,,,,,,,,,,,,,,,,,,,,,,,,,,,,,,,,,,,,,,,,,,,,
,,,,,,,,,,,,a,0.248235,Correct!,0,79,79,76,1,t3.png,t2.png,1,0.90855,20,male,2020-11-19_14h24.22.434,torte-2b,2020.1.3,Win32,60,13391,,,,,,,,,,,,,,,,,,,,,,,,,,,,,,,,,,,,,,,,,,,,,,,,,,,,,,,,,,,,,,,,,
,,,,,,,,,,,,a,0.38117,Incorrect,0,80,80,19,1,t4.png,t2.png,2,0.059078,20,male,2020-11-19_14h24.22.434,torte-2b,2020.1.3,Win32,60,13391,,,,,,,,,,,,,,,,,,,,,,,,,,,,,,,,,,,,,,,,,,,,,,,,,,,,,,,,,,,,,,,,,
,,,,,,,,,,,,l,0.317445,Incorrect,0,81,81,92,1,t2.png,t3.png,1,0.909,20,male,2020-11-19_14h24.22.434,torte-2b,2020.1.3,Win32,60,13391,,,,,,,,,,,,,,,,,,,,,,,,,,,,,,,,,,,,,,,,,,,,,,,,,,,,,,,,,,,,,,,,,
,,,,,,,,,,,,a,0.28389,Correct!,0,82,82,21,1,t5.png,t4.png,1,0.90025,20,male,2020-11-19_14h24.22.434,torte-2b,2020.1.3,Win32,60,13391,,,,,,,,,,,,,,,,,,,,,,,,,,,,,,,,,,,,,,,,,,,,,,,,,,,,,,,,,,,,,,,,,
,,,,,,,,,,,,a,0.338045,Correct!,0,83,83,45,1,t3.png,t2.png,1,0.90855,20,male,2020-11-19_14h24.22.434,torte-2b,2020.1.3,Win32,60,13391,,,,,,,,,,,,,,,,,,,,,,,,,,,,,,,,,,,,,,,,,,,,,,,,,,,,,,,,,,,,,,,,,
,,,,,,,,,,,,a,0.411465,Incorrect,0,84,84,82,1,t5.png,t1.png,4,9.55E-11,20,male,2020-11-19_14h24.22.434,torte-2b,2020.1.3,Win32,60,13391,,,,,,,,,,,,,,,,,,,,,,,,,,,,,,,,,,,,,,,,,,,,,,,,,,,,,,,,,,,,,,,,,
,,,,,,,,,,,,a,0.301025,Incorrect,0,85,85,55,1,t2.png,t4.png,2,0.059078,20,male,2020-11-19_14h24.22.434,torte-2b,2020.1.3,Win32,60,13391,,,,,,,,,,,,,,,,,,,,,,,,,,,,,,,,,,,,,,,,,,,,,,,,,,,,,,,,,,,,,,,,,
,,,,,,,,,,,,l,0.253185,Correct!,0,86,86,36,1,t3.png,t1.png,2,0.0565,20,male,2020-11-19_14h24.22.434,torte-2b,2020.1.3,Win32,60,13391,,,,,,,,,,,,,,,,,,,,,,,,,,,,,,,,,,,,,,,,,,,,,,,,,,,,,,,,,,,,,,,,,
,,,,,,,,,,,,l,0.352415,Correct!,0,87,87,47,1,t4.png,t2.png,2,0.059078,20,male,2020-11-19_14h24.22.434,torte-2b,2020.1.3,Win32,60,13391,,,,,,,,,,,,,,,,,,,,,,,,,,,,,,,,,,,,,,,,,,,,,,,,,,,,,,,,,,,,,,,,,
,,,,,,,,,,,,a,0.23589,Correct!,0,88,88,105,1,t3.png,t2.png,1,0.90855,20,male,2020-11-19_14h24.22.434,torte-2b,2020.1.3,Win32,60,13391,,,,,,,,,,,,,,,,,,,,,,,,,,,,,,,,,,,,,,,,,,,,,,,,,,,,,,,,,,,,,,,,,
,,,,,,,,,,,,a,0.35708,Correct!,0,89,89,75,1,t1.png,t1.png,0,0.97829,20,male,2020-11-19_14h24.22.434,torte-2b,2020.1.3,Win32,60,13391,,,,,,,,,,,,,,,,,,,,,,,,,,,,,,,,,,,,,,,,,,,,,,,,,,,,,,,,,,,,,,,,,
,,,,,,,,,,,,l,0.255295,Correct!,0,90,90,88,1,t3.png,t1.png,2,0.056466,20,male,2020-11-19_14h24.22.434,torte-2b,2020.1.3,Win32,60,13391,,,,,,,,,,,,,,,,,,,,,,,,,,,,,,,,,,,,,,,,,,,,,,,,,,,,,,,,,,,,,,,,,
,,,,,,,,,,,,l,0.331585,Incorrect,0,91,91,100,1,t4.png,t5.png,1,0.90025,20,male,2020-11-19_14h24.22.434,torte-2b,2020.1.3,Win32,60,13391,,,,,,,,,,,,,,,,,,,,,,,,,,,,,,,,,,,,,,,,,,,,,,,,,,,,,,,,,,,,,,,,,
,,,,,,,,,,,,l,0.385485,Incorrect,0,92,92,18,1,t4.png,t5.png,1,0.90025,20,male,2020-11-19_14h24.22.434,torte-2b,2020.1.3,Win32,60,13391,,,,,,,,,,,,,,,,,,,,,,,,,,,,,,,,,,,,,,,,,,,,,,,,,,,,,,,,,,,,,,,,,
,,,,,,,,,,,,a,0.33237,Correct!,0,93,93,116,1,t5.png,t4.png,1,0.90025,20,male,2020-11-19_14h24.22.434,torte-2b,2020.1.3,Win32,60,13391,,,,,,,,,,,,,,,,,,,,,,,,,,,,,,,,,,,,,,,,,,,,,,,,,,,,,,,,,,,,,,,,,
,,,,,,,,,,,,l,0.268205,Correct!,0,94,94,12,1,t5.png,t1.png,4,9.55E-11,20,male,2020-11-19_14h24.22.434,torte-2b,2020.1.3,Win32,60,13391,,,,,,,,,,,,,,,,,,,,,,,,,,,,,,,,,,,,,,,,,,,,,,,,,,,,,,,,,,,,,,,,,
,,,,,,,,,,,,l,0.268685,Correct!,0,95,95,83,1,t3.png,t1.png,2,0.056466,20,male,2020-11-19_14h24.22.434,torte-2b,2020.1.3,Win32,60,13391,,,,,,,,,,,,,,,,,,,,,,,,,,,,,,,,,,,,,,,,,,,,,,,,,,,,,,,,,,,,,,,,,
,,,,,,,,,,,,a,0.24021,Correct!,0,96,96,79,1,t3.png,t2.png,1,0.909,20,male,2020-11-19_14h24.22.434,torte-2b,2020.1.3,Win32,60,13391,,,,,,,,,,,,,,,,,,,,,,,,,,,,,,,,,,,,,,,,,,,,,,,,,,,,,,,,,,,,,,,,,
,,,,,,,,,,,,a,0.264125,Correct!,0,97,97,34,1,t5.png,t4.png,1,0.9,20,male,2020-11-19_14h24.22.434,torte-2b,2020.1.3,Win32,60,13391,,,,,,,,,,,,,,,,,,,,,,,,,,,,,,,,,,,,,,,,,,,,,,,,,,,,,,,,,,,,,,,,,
,,,,,,,,,,,,l,0.262505,Incorrect,0,98,98,25,1,t5.png,t5.png,0,0.97829,20,male,2020-11-19_14h24.22.434,torte-2b,2020.1.3,Win32,60,13391,,,,,,,,,,,,,,,,,,,,,,,,,,,,,,,,,,,,,,,,,,,,,,,,,,,,,,,,,,,,,,,,,
,,,,,,,,,,,,l,0.26821,Incorrect,0,99,99,7,1,t4.png,t5.png,1,0.90025,20,male,2020-11-19_14h24.22.434,torte-2b,2020.1.3,Win32,60,13391,,,,,,,,,,,,,,,,,,,,,,,,,,,,,,,,,,,,,,,,,,,,,,,,,,,,,,,,,,,,,,,,,
,,,,,,,,,,,,l,0.30384,Correct!,0,100,100,111,1,t5.png,t1.png,4,9.55E-11,20,male,2020-11-19_14h24.22.434,torte-2b,2020.1.3,Win32,60,13391,,,,,,,,,,,,,,,,,,,,,,,,,,,,,,,,,,,,,,,,,,,,,,,,,,,,,,,,,,,,,,,,,
,,,,,,,,,,,,l,0.28325,Correct!,0,101,101,56,1,t5.png,t1.png,4,9.55E-11,20,male,2020-11-19_14h24.22.434,torte-2b,2020.1.3,Win32,60,13391,,,,,,,,,,,,,,,,,,,,,,,,,,,,,,,,,,,,,,,,,,,,,,,,,,,,,,,,,,,,,,,,,
,,,,,,,,,,,,a,0.232615,Correct!,0,102,102,8,1,t3.png,t2.png,1,0.90855,20,male,2020-11-19_14h24.22.434,torte-2b,2020.1.3,Win32,60,13391,,,,,,,,,,,,,,,,,,,,,,,,,,,,,,,,,,,,,,,,,,,,,,,,,,,,,,,,,,,,,,,,,
,,,,,,,,,,,,a,0.324315,Correct!,0,103,103,39,1,t3.png,t2.png,1,0.90855,20,male,2020-11-19_14h24.22.434,torte-2b,2020.1.3,Win32,60,13391,,,,,,,,,,,,,,,,,,,,,,,,,,,,,,,,,,,,,,,,,,,,,,,,,,,,,,,,,,,,,,,,,
,,,,,,,,,,,,l,0.314445,Incorrect,0,104,104,84,1,t1.png,t1.png,0,0.97829,20,male,2020-11-19_14h24.22.434,torte-2b,2020.1.3,Win32,60,13391,,,,,,,,,,,,,,,,,,,,,,,,,,,,,,,,,,,,,,,,,,,,,,,,,,,,,,,,,,,,,,,,,
,,,,,,,,,,,,a,0.332095,Correct!,0,105,105,65,1,t4.png,t5.png,1,0.90025,20,male,2020-11-19_14h24.22.434,torte-2b,2020.1.3,Win32,60,13391,,,,,,,,,,,,,,,,,,,,,,,,,,,,,,,,,,,,,,,,,,,,,,,,,,,,,,,,,,,,,,,,,
,,,,,,,,,,,,l,0.32803,Correct!,0,106,106,68,1,t1.png,t4.png,3,0.0000131,20,male,2020-11-19_14h24.22.434,torte-2b,2020.1.3,Win32,60,13391,,,,,,,,,,,,,,,,,,,,,,,,,,,,,,,,,,,,,,,,,,,,,,,,,,,,,,,,,,,,,,,,,
,,,,,,,,,,,,l,0.274535,Incorrect,0,107,107,96,1,t1.png,t1.png,0,0.97829,20,male,2020-11-19_14h24.22.434,torte-2b,2020.1.3,Win32,60,13391,,,,,,,,,,,,,,,,,,,,,,,,,,,,,,,,,,,,,,,,,,,,,,,,,,,,,,,,,,,,,,,,,
,,,,,,,,,,,,l,0.306295,Incorrect,0,108,108,71,1,t5.png,t5.png,0,0.97829,20,male,2020-11-19_14h24.22.434,torte-2b,2020.1.3,Win32,60,13391,,,,,,,,,,,,,,,,,,,,,,,,,,,,,,,,,,,,,,,,,,,,,,,,,,,,,,,,,,,,,,,,,
,,,,,,,,,,,,a,0.33481,Correct!,0,109,109,58,1,t5.png,t4.png,1,0.90025,20,male,2020-11-19_14h24.22.434,torte-2b,2020.1.3,Win32,60,13391,,,,,,,,,,,,,,,,,,,,,,,,,,,,,,,,,,,,,,,,,,,,,,,,,,,,,,,,,,,,,,,,,
,,,,,,,,,,,,l,0.28612,Incorrect,0,110,110,64,1,t1.png,t1.png,0,0.978,20,male,2020-11-19_14h24.22.434,torte-2b,2020.1.3,Win32,60,13391,,,,,,,,,,,,,,,,,,,,,,,,,,,,,,,,,,,,,,,,,,,,,,,,,,,,,,,,,,,,,,,,,
,,,,,,,,,,,,a,0.321095,Incorrect,0,111,111,115,1,t2.png,t4.png,2,0.059078,20,male,2020-11-19_14h24.22.434,torte-2b,2020.1.3,Win32,60,13391,,,,,,,,,,,,,,,,,,,,,,,,,,,,,,,,,,,,,,,,,,,,,,,,,,,,,,,,,,,,,,,,,
,,,,,,,,,,,,l,0.2407,Correct!,0,112,112,60,1,t2.png,t4.png,2,0.059078,20,male,2020-11-19_14h24.22.434,torte-2b,2020.1.3,Win32,60,13391,,,,,,,,,,,,,,,,,,,,,,,,,,,,,,,,,,,,,,,,,,,,,,,,,,,,,,,,,,,,,,,,,
,,,,,,,,,,,,l,0.273605,Incorrect,0,113,113,110,1,t4.png,t5.png,1,0.90025,20,male,2020-11-19_14h24.22.434,torte-2b,2020.1.3,Win32,60,13391,,,,,,,,,,,,,,,,,,,,,,,,,,,,,,,,,,,,,,,,,,,,,,,,,,,,,,,,,,,,,,,,,
,,,,,,,,,,,,l,0.267455,Incorrect,0,114,114,41,1,t3.png,t2.png,1,0.90855,20,male,2020-11-19_14h24.22.434,torte-2b,2020.1.3,Win32,60,13391,,,,,,,,,,,,,,,,,,,,,,,,,,,,,,,,,,,,,,,,,,,,,,,,,,,,,,,,,,,,,,,,,
,,,,,,,,,,,,a,0.23446,Incorrect,0,115,115,87,1,t5.png,t1.png,4,9.55E-11,20,male,2020-11-19_14h24.22.434,torte-2b,2020.1.3,Win32,60,13391,,,,,,,,,,,,,,,,,,,,,,,,,,,,,,,,,,,,,,,,,,,,,,,,,,,,,,,,,,,,,,,,,
,,,,,,,,,,,,a,0.37202,Incorrect,0,116,116,24,1,t4.png,t2.png,2,0.059078,20,male,2020-11-19_14h24.22.434,torte-2b,2020.1.3,Win32,60,13391,,,,,,,,,,,,,,,,,,,,,,,,,,,,,,,,,,,,,,,,,,,,,,,,,,,,,,,,,,,,,,,,,
,,,,,,,,,,,,a,0.341685,Correct!,0,117,117,85,1,t3.png,t2.png,1,0.90855,20,male,2020-11-19_14h24.22.434,torte-2b,2020.1.3,Win32,60,13391,,,,,,,,,,,,,,,,,,,,,,,,,,,,,,,,,,,,,,,,,,,,,,,,,,,,,,,,,,,,,,,,,
,,,,,,,,,,,,a,0.30989,Correct!,0,118,118,22,1,t2.png,t3.png,1,0.90855,20,male,2020-11-19_14h24.22.434,torte-2b,2020.1.3,Win32,60,13391,,,,,,,,,,,,,,,,,,,,,,,,,,,,,,,,,,,,,,,,,,,,,,,,,,,,,,,,,,,,,,,,,
,,,,,,,,,,,,l,0.307475,Correct!,0,119,119,51,1,t3.png,t1.png,2,0.056466,20,male,2020-11-19_14h24.22.434,torte-2b,2020.1.3,Win32,60,13391,,,,,,,,,,,,,,,,,,,,,,,,,,,,,,,,,,,,,,,,,,,,,,,,,,,,,,,,,,,,,,,,,
,,,,,,,,,,,,a,2.148865,Correct!,,,,,,t2.png,t2.png,0,0.981,20,male,2020-11-19_14h24.22.434,torte-2b,2020.1.3,Win32,60,13391,space,3.52395,space,16.422955,0,0,0,101,1,,,,,,,,,,,,,,,,,,,,,,,,,,,,,,,,,,,,,,,,,,,,,,,,,,,,,,,,
,,,,,,,,,,,,,,Too slow :(,,,,,,t5.png,t1.png,4,9.55E-11,20,male,2020-11-19_14h24.22.434,torte-2b,2020.1.3,Win32,60,13391,,,,,0,1,1,102,1,,,,,,,,,,,,,,,,,,,,,,,,,,,,,,,,,,,,,,,,,,,,,,,,,,,,,,,,
,,,,,,,,,,,,a,0.738515,Correct!,,,,,,t2.png,t2.png,0,0.98115,20,male,2020-11-19_14h24.22.434,torte-2b,2020.1.3,Win32,60,13391,,,,,0,2,2,59,1,,,,,,,,,,,,,,,,,,,,,,,,,,,,,,,,,,,,,,,,,,,,,,,,,,,,,,,,
,,,,,,,,,,,,l,0.272315,Correct!,,,,,,t3.png,t5.png,2,0.056466,20,male,2020-11-19_14h24.22.434,torte-2b,2020.1.3,Win32,60,13391,,,,,0,3,3,14,1,,,,,,,,,,,,,,,,,,,,,,,,,,,,,,,,,,,,,,,,,,,,,,,,,,,,,,,,
,,,,,,,,,,,,l,0.217425,Correct!,,,,,,t2.png,t4.png,2,0.059078,20,male,2020-11-19_14h24.22.434,torte-2b,2020.1.3,Win32,60,13391,,,,,0,4,4,77,1,,,,,,,,,,,,,,,,,,,,,,,,,,,,,,,,,,,,,,,,,,,,,,,,,,,,,,,,
,,,,,,,,,,,,a,0.26462,Incorrect,,,,,,t4.png,t2.png,2,0.059078,20,male,2020-11-19_14h24.22.434,torte-2b,2020.1.3,Win32,60,13391,,,,,0,5,5,110,1,,,,,,,,,,,,,,,,,,,,,,,,,,,,,,,,,,,,,,,,,,,,,,,,,,,,,,,,
,,,,,,,,,,,,l,0.2489,Incorrect,,,,,,t1.png,t2.png,1,0.90025,20,male,2020-11-19_14h24.22.434,torte-2b,2020.1.3,Win32,60,13391,,,,,0,6,6,105,1,,,,,,,,,,,,,,,,,,,,,,,,,,,,,,,,,,,,,,,,,,,,,,,,,,,,,,,,
,,,,,,,,,,,,l,0.206895,Incorrect,,,,,,t4.png,t5.png,1,0.90025,20,male,2020-11-19_14h24.22.434,torte-2b,2020.1.3,Win32,60,13391,,,,,0,7,7,103,1,,,,,,,,,,,,,,,,,,,,,,,,,,,,,,,,,,,,,,,,,,,,,,,,,,,,,,,,
,,,,,,,,,,,,l,0.20351,Incorrect,,,,,,t1.png,t1.png,0,0.978,20,male,2020-11-19_14h24.22.434,torte-2b,2020.1.3,Win32,60,13391,,,,,0,8,8,54,1,,,,,,,,,,,,,,,,,,,,,,,,,,,,,,,,,,,,,,,,,,,,,,,,,,,,,,,,
,,,,,,,,,,,,a,0.231455,Correct!,,,,,,t3.png,t4.png,1,0.909,20,male,2020-11-19_14h24.22.434,torte-2b,2020.1.3,Win32,60,13391,,,,,0,9,9,89,1,,,,,,,,,,,,,,,,,,,,,,,,,,,,,,,,,,,,,,,,,,,,,,,,,,,,,,,,
,,,,,,,,,,,,a,0.21937,Incorrect,,,,,,t5.png,t3.png,2,0.056466,20,male,2020-11-19_14h24.22.434,torte-2b,2020.1.3,Win32,60,13391,,,,,0,10,10,114,1,,,,,,,,,,,,,,,,,,,,,,,,,,,,,,,,,,,,,,,,,,,,,,,,,,,,,,,,
,,,,,,,,,,,,l,0.239365,Correct!,,,,,,t4.png,t2.png,2,0.059078,20,male,2020-11-19_14h24.22.434,torte-2b,2020.1.3,Win32,60,13391,,,,,0,11,11,86,1,,,,,,,,,,,,,,,,,,,,,,,,,,,,,,,,,,,,,,,,,,,,,,,,,,,,,,,,
,,,,,,,,,,,,l,0.19182,Correct!,,,,,,t3.png,t5.png,2,0.0565,20,male,2020-11-19_14h24.22.434,torte-2b,2020.1.3,Win32,60,13391,,,,,0,12,12,83,1,,,,,,,,,,,,,,,,,,,,,,,,,,,,,,,,,,,,,,,,,,,,,,,,,,,,,,,,
,,,,,,,,,,,,l,0.152905,Correct!,,,,,,t2.png,t5.png,3,0.0000131,20,male,2020-11-19_14h24.22.434,torte-2b,2020.1.3,Win32,60,13391,,,,,0,13,13,104,1,,,,,,,,,,,,,,,,,,,,,,,,,,,,,,,,,,,,,,,,,,,,,,,,,,,,,,,,
,,,,,,,,,,,,a,0.02036,Incorrect,,,,,,t5.png,t2.png,3,0.0000131,20,male,2020-11-19_14h24.22.434,torte-2b,2020.1.3,Win32,60,13391,,,,,0,14,14,116,1,,,,,,,,,,,,,,,,,,,,,,,,,,,,,,,,,,,,,,,,,,,,,,,,,,,,,,,,
,,,,,,,,,,,,a,0.131425,Correct!,,,,,,t2.png,t2.png,0,0.98115,20,male,2020-11-19_14h24.22.434,torte-2b,2020.1.3,Win32,60,13391,,,,,0,15,15,7,1,,,,,,,,,,,,,,,,,,,,,,,,,,,,,,,,,,,,,,,,,,,,,,,,,,,,,,,,
,,,,,,,,,,,,a,0.27493,Correct!,,,,,,t5.png,t4.png,1,0.90025,20,male,2020-11-19_14h24.22.434,torte-2b,2020.1.3,Win32,60,13391,,,,,0,16,16,26,1,,,,,,,,,,,,,,,,,,,,,,,,,,,,,,,,,,,,,,,,,,,,,,,,,,,,,,,,
,,,,,,,,,,,,l,0.22039,Correct!,,,,,,t3.png,t5.png,2,0.056466,20,male,2020-11-19_14h24.22.434,torte-2b,2020.1.3,Win32,60,13391,,,,,0,17,17,6,1,,,,,,,,,,,,,,,,,,,,,,,,,,,,,,,,,,,,,,,,,,,,,,,,,,,,,,,,
,,,,,,,,,,,,a,0.30154,Correct!,,,,,,t2.png,t1.png,1,0.90025,20,male,2020-11-19_14h24.22.434,torte-2b,2020.1.3,Win32,60,13391,,,,,0,18,18,62,1,,,,,,,,,,,,,,,,,,,,,,,,,,,,,,,,,,,,,,,,,,,,,,,,,,,,,,,,
,,,,,,,,,,,,a,0.281035,Correct!,,,,,,t5.png,t4.png,1,0.9,20,male,2020-11-19_14h24.22.434,torte-2b,2020.1.3,Win32,60,13391,,,,,0,19,19,49,1,,,,,,,,,,,,,,,,,,,,,,,,,,,,,,,,,,,,,,,,,,,,,,,,,,,,,,,,
,,,,,,,,,,,,l,0.333165,Incorrect,,,,,,t1.png,t2.png,1,0.90025,20,male,2020-11-19_14h24.22.434,torte-2b,2020.1.3,Win32,60,13391,,,,,0,20,20,112,1,,,,,,,,,,,,,,,,,,,,,,,,,,,,,,,,,,,,,,,,,,,,,,,,,,,,,,,,
,,,,,,,,,,,,a,0.238295,Correct!,,,,,,t5.png,t5.png,0,0.97829,20,male,2020-11-19_14h24.22.434,torte-2b,2020.1.3,Win32,60,13391,,,,,0,21,21,25,1,,,,,,,,,,,,,,,,,,,,,,,,,,,,,,,,,,,,,,,,,,,,,,,,,,,,,,,,
,,,,,,,,,,,,a,0.32282,Correct!,,,,,,t1.png,t1.png,0,0.97829,20,male,2020-11-19_14h24.22.434,torte-2b,2020.1.3,Win32,60,13391,,,,,0,22,22,9,1,,,,,,,,,,,,,,,,,,,,,,,,,,,,,,,,,,,,,,,,,,,,,,,,,,,,,,,,
,,,,,,,,,,,,a,0.33983,Incorrect,,,,,,t4.png,t1.png,3,0.0000131,20,male,2020-11-19_14h24.22.434,torte-2b,2020.1.3,Win32,60,13391,,,,,0,23,23,48,1,,,,,,,,,,,,,,,,,,,,,,,,,,,,,,,,,,,,,,,,,,,,,,,,,,,,,,,,
,,,,,,,,,,,,a,0.30799,Incorrect,,,,,,t4.png,t2.png,2,0.0591,20,male,2020-11-19_14h24.22.434,torte-2b,2020.1.3,Win32,60,13391,,,,,0,24,24,36,1,,,,,,,,,,,,,,,,,,,,,,,,,,,,,,,,,,,,,,,,,,,,,,,,,,,,,,,,
,,,,,,,,,,,,a,0.34806,Incorrect,,,,,,t4.png,t1.png,3,0.0000131,20,male,2020-11-19_14h24.22.434,torte-2b,2020.1.3,Win32,60,13391,,,,,0,25,25,42,1,,,,,,,,,,,,,,,,,,,,,,,,,,,,,,,,,,,,,,,,,,,,,,,,,,,,,,,,
,,,,,,,,,,,,a,0.297165,Correct!,,,,,,t4.png,t5.png,1,0.90025,20,male,2020-11-19_14h24.22.434,torte-2b,2020.1.3,Win32,60,13391,,,,,0,26,26,47,1,,,,,,,,,,,,,,,,,,,,,,,,,,,,,,,,,,,,,,,,,,,,,,,,,,,,,,,,
,,,,,,,,,,,,l,0.375635,Incorrect,,,,,,t2.png,t3.png,1,0.90855,20,male,2020-11-19_14h24.22.434,torte-2b,2020.1.3,Win32,60,13391,,,,,0,27,27,68,1,,,,,,,,,,,,,,,,,,,,,,,,,,,,,,,,,,,,,,,,,,,,,,,,,,,,,,,,
,,,,,,,,,,,,l,0.36858,Incorrect,,,,,,t2.png,t3.png,1,0.909,20,male,2020-11-19_14h24.22.434,torte-2b,2020.1.3,Win32,60,13391,,,,,0,28,28,74,1,,,,,,,,,,,,,,,,,,,,,,,,,,,,,,,,,,,,,,,,,,,,,,,,,,,,,,,,
,,,,,,,,,,,,a,0.33034,Correct!,,,,,,t5.png,t4.png,1,0.90025,20,male,2020-11-19_14h24.22.434,torte-2b,2020.1.3,Win32,60,13391,,,,,0,29,29,27,1,,,,,,,,,,,,,,,,,,,,,,,,,,,,,,,,,,,,,,,,,,,,,,,,,,,,,,,,
,,,,,,,,,,,,a,0.450645,Correct!,,,,,,t4.png,t3.png,1,0.90855,20,male,2020-11-19_14h24.22.434,torte-2b,2020.1.3,Win32,60,13391,,,,,0,30,30,35,1,,,,,,,,,,,,,,,,,,,,,,,,,,,,,,,,,,,,,,,,,,,,,,,,,,,,,,,,
,,,,,,,,,,,,l,0.415725,Correct!,,,,,,t2.png,t5.png,3,0.0000131,20,male,2020-11-19_14h24.22.434,torte-2b,2020.1.3,Win32,60,13391,,,,,0,31,31,95,1,,,,,,,,,,,,,,,,,,,,,,,,,,,,,,,,,,,,,,,,,,,,,,,,,,,,,,,,
,,,,,,,,,,,,l,0.43022,Correct!,,,,,,t1.png,t3.png,2,0.056466,20,male,2020-11-19_14h24.22.434,torte-2b,2020.1.3,Win32,60,13391,,,,,0,32,32,60,1,,,,,,,,,,,,,,,,,,,,,,,,,,,,,,,,,,,,,,,,,,,,,,,,,,,,,,,,
,,,,,,,,,,,,a,0.448105,Correct!,,,,,,t4.png,t4.png,0,0.98115,20,male,2020-11-19_14h24.22.434,torte-2b,2020.1.3,Win32,60,13391,,,,,0,33,33,80,1,,,,,,,,,,,,,,,,,,,,,,,,,,,,,,,,,,,,,,,,,,,,,,,,,,,,,,,,
,,,,,,,,,,,,l,0.24059,Correct!,,,,,,t5.png,t1.png,4,9.55E-11,20,male,2020-11-19_14h24.22.434,torte-2b,2020.1.3,Win32,60,13391,,,,,0,34,34,71,1,,,,,,,,,,,,,,,,,,,,,,,,,,,,,,,,,,,,,,,,,,,,,,,,,,,,,,,,
,,,,,,,,,,,,a,0.2823,Correct!,,,,,,t3.png,t4.png,1,0.90855,20,male,2020-11-19_14h24.22.434,torte-2b,2020.1.3,Win32,60,13391,,,,,0,35,35,84,1,,,,,,,,,,,,,,,,,,,,,,,,,,,,,,,,,,,,,,,,,,,,,,,,,,,,,,,,
,,,,,,,,,,,,l,0.482275,Incorrect,,,,,,t2.png,t4.png,2,0.059078,20,male,2020-11-19_14h24.22.434,torte-2b,2020.1.3,Win32,60,13391,,,,,0,36,36,37,1,,,,,,,,,,,,,,,,,,,,,,,,,,,,,,,,,,,,,,,,,,,,,,,,,,,,,,,,
,,,,,,,,,,,,l,0.42954,Incorrect,,,,,,t2.png,t3.png,1,0.90855,20,male,2020-11-19_14h24.22.434,torte-2b,2020.1.3,Win32,60,13391,,,,,0,37,37,10,1,,,,,,,,,,,,,,,,,,,,,,,,,,,,,,,,,,,,,,,,,,,,,,,,,,,,,,,,
,,,,,,,,,,,,l,0.47022,Incorrect,,,,,,t4.png,t5.png,1,0.9,20,male,2020-11-19_14h24.22.434,torte-2b,2020.1.3,Win32,60,13391,,,,,0,38,38,115,1,,,,,,,,,,,,,,,,,,,,,,,,,,,,,,,,,,,,,,,,,,,,,,,,,,,,,,,,
,,,,,,,,,,,,l,0.518315,Correct!,,,,,,t2.png,t3.png,1,0.90855,20,male,2020-11-19_14h24.22.434,torte-2b,2020.1.3,Win32,60,13391,,,,,0,39,39,111,1,,,,,,,,,,,,,,,,,,,,,,,,,,,,,,,,,,,,,,,,,,,,,,,,,,,,,,,,
,,,,,,,,,,,,l,0.49685,Incorrect,,,,,,t3.png,t4.png,1,0.90855,20,male,2020-11-19_14h24.22.434,torte-2b,2020.1.3,Win32,60,13391,,,,,0,40,40,96,1,,,,,,,,,,,,,,,,,,,,,,,,,,,,,,,,,,,,,,,,,,,,,,,,,,,,,,,,
,,,,,,,,,,,,l,0.51481,Incorrect,,,,,,t3.png,t2.png,1,0.90855,20,male,2020-11-19_14h24.22.434,torte-2b,2020.1.3,Win32,60,13391,,,,,0,41,41,97,1,,,,,,,,,,,,,,,,,,,,,,,,,,,,,,,,,,,,,,,,,,,,,,,,,,,,,,,,
,,,,,,,,,,,,a,0.448795,Correct!,,,,,,t5.png,t5.png,0,0.97829,20,male,2020-11-19_14h24.22.434,torte-2b,2020.1.3,Win32,60,13391,,,,,0,42,42,73,1,,,,,,,,,,,,,,,,,,,,,,,,,,,,,,,,,,,,,,,,,,,,,,,,,,,,,,,,
,,,,,,,,,,,,l,0.480365,Correct!,,,,,,t2.png,t1.png,1,0.90025,20,male,2020-11-19_14h24.22.434,torte-2b,2020.1.3,Win32,60,13391,,,,,0,43,43,4,1,,,,,,,,,,,,,,,,,,,,,,,,,,,,,,,,,,,,,,,,,,,,,,,,,,,,,,,,
,,,,,,,,,,,,a,0.431175,Incorrect,,,,,,t3.png,t5.png,2,0.056466,20,male,2020-11-19_14h24.22.434,torte-2b,2020.1.3,Win32,60,13391,,,,,0,44,44,44,1,,,,,,,,,,,,,,,,,,,,,,,,,,,,,,,,,,,,,,,,,,,,,,,,,,,,,,,,
,,,,,,,,,,,,a,0.39721,Incorrect,,,,,,t5.png,t2.png,3,0.0000131,20,male,2020-11-19_14h24.22.434,torte-2b,2020.1.3,Win32,60,13391,,,,,0,45,45,98,1,,,,,,,,,,,,,,,,,,,,,,,,,,,,,,,,,,,,,,,,,,,,,,,,,,,,,,,,
,,,,,,,,,,,,l,0.39894,Correct!,,,,,,t1.png,t5.png,4,9.55E-11,20,male,2020-11-19_14h24.22.434,torte-2b,2020.1.3,Win32,60,13391,,,,,0,46,46,41,1,,,,,,,,,,,,,,,,,,,,,,,,,,,,,,,,,,,,,,,,,,,,,,,,,,,,,,,,
,,,,,,,,,,,,l,0.457445,Correct!,,,,,,t1.png,t4.png,3,0.0000131,20,male,2020-11-19_14h24.22.434,torte-2b,2020.1.3,Win32,60,13391,,,,,0,47,47,107,1,,,,,,,,,,,,,,,,,,,,,,,,,,,,,,,,,,,,,,,,,,,,,,,,,,,,,,,,
,,,,,,,,,,,,l,0.549835,Incorrect,,,,,,t5.png,t3.png,2,0.056466,20,male,2020-11-19_14h24.22.434,torte-2b,2020.1.3,Win32,60,13391,,,,,0,48,48,108,1,,,,,,,,,,,,,,,,,,,,,,,,,,,,,,,,,,,,,,,,,,,,,,,,,,,,,,,,
,,,,,,,,,,,,a,1.103915,Correct!,,,,,,t5.png,t5.png,0,0.97829,20,male,2020-11-19_14h24.22.434,torte-2b,2020.1.3,Win32,60,13391,,,,,0,49,49,70,1,,,,,,,,,,,,,,,,,,,,,,,,,,,,,,,,,,,,,,,,,,,,,,,,,,,,,,,,
,,,,,,,,,,,,l,0.24804,Incorrect,,,,,,t1.png,t2.png,1,0.90025,20,male,2020-11-19_14h24.22.434,torte-2b,2020.1.3,Win32,60,13391,,,,,0,50,50,72,1,,,,,,,,,,,,,,,,,,,,,,,,,,,,,,,,,,,,,,,,,,,,,,,,,,,,,,,,
,,,,,,,,,,,,a,0.45197,Incorrect,,,,,,t4.png,t2.png,2,0.059078,20,male,2020-11-19_14h24.22.434,torte-2b,2020.1.3,Win32,60,13391,,,,,0,51,51,88,1,,,,,,,,,,,,,,,,,,,,,,,,,,,,,,,,,,,,,,,,,,,,,,,,,,,,,,,,
,,,,,,,,,,,,a,0.622525,Correct!,,,,,,t4.png,t3.png,1,0.90855,20,male,2020-11-19_14h24.22.434,torte-2b,2020.1.3,Win32,60,13391,,,,,0,52,52,45,1,,,,,,,,,,,,,,,,,,,,,,,,,,,,,,,,,,,,,,,,,,,,,,,,,,,,,,,,
,,,,,,,,,,,,a,0.41786,Incorrect,,,,,,t5.png,t1.png,4,9.55E-11,20,male,2020-11-19_14h24.22.434,torte-2b,2020.1.3,Win32,60,13391,,,,,0,53,53,43,1,,,,,,,,,,,,,,,,,,,,,,,,,,,,,,,,,,,,,,,,,,,,,,,,,,,,,,,,
,,,,,,,,,,,,l,0.384095,Correct!,,,,,,t2.png,t5.png,3,0.0000131,20,male,2020-11-19_14h24.22.434,torte-2b,2020.1.3,Win32,60,13391,,,,,0,54,54,8,1,,,,,,,,,,,,,,,,,,,,,,,,,,,,,,,,,,,,,,,,,,,,,,,,,,,,,,,,
,,,,,,,,,,,,l,0.430945,Incorrect,,,,,,t4.png,t4.png,0,0.98115,20,male,2020-11-19_14h24.22.434,torte-2b,2020.1.3,Win32,60,13391,,,,,0,55,55,90,1,,,,,,,,,,,,,,,,,,,,,,,,,,,,,,,,,,,,,,,,,,,,,,,,,,,,,,,,
,,,,,,,,,,,,a,0.49984,Correct!,,,,,,t2.png,t1.png,1,0.90025,20,male,2020-11-19_14h24.22.434,torte-2b,2020.1.3,Win32,60,13391,,,,,0,56,56,5,1,,,,,,,,,,,,,,,,,,,,,,,,,,,,,,,,,,,,,,,,,,,,,,,,,,,,,,,,
,,,,,,,,,,,,l,0.38498,Correct!,,,,,,t2.png,t4.png,2,0.059078,20,male,2020-11-19_14h24.22.434,torte-2b,2020.1.3,Win32,60,13391,,,,,0,57,57,24,1,,,,,,,,,,,,,,,,,,,,,,,,,,,,,,,,,,,,,,,,,,,,,,,,,,,,,,,,
,,,,,,,,,,,,l,0.384715,Correct!,,,,,,t1.png,t5.png,4,9.55E-11,20,male,2020-11-19_14h24.22.434,torte-2b,2020.1.3,Win32,60,13391,,,,,0,58,58,16,1,,,,,,,,,,,,,,,,,,,,,,,,,,,,,,,,,,,,,,,,,,,,,,,,,,,,,,,,
,,,,,,,,,,,,a,0.365085,Correct!,,,,,,t5.png,t5.png,0,0.978,20,male,2020-11-19_14h24.22.434,torte-2b,2020.1.3,Win32,60,13391,,,,,0,59,59,117,1,,,,,,,,,,,,,,,,,,,,,,,,,,,,,,,,,,,,,,,,,,,,,,,,,,,,,,,,
,,,,,,,,,,,,a,0.501875,Correct!,,,,,,t2.png,t1.png,1,0.90025,20,male,2020-11-19_14h24.22.434,torte-2b,2020.1.3,Win32,60,13391,,,,,0,60,60,19,1,,,,,,,,,,,,,,,,,,,,,,,,,,,,,,,,,,,,,,,,,,,,,,,,,,,,,,,,
,,,,,,,,,,,,l,0.388895,Incorrect,,,,,,t2.png,t2.png,0,0.98115,20,male,2020-11-19_14h24.22.434,torte-2b,2020.1.3,Win32,60,13391,,,,,0,61,61,2,1,,,,,,,,,,,,,,,,,,,,,,,,,,,,,,,,,,,,,,,,,,,,,,,,,,,,,,,,
,,,,,,,,,,,,a,0.3656,Incorrect,,,,,,t5.png,t2.png,3,0.0000131,20,male,2020-11-19_14h24.22.434,torte-2b,2020.1.3,Win32,60,13391,,,,,0,62,62,91,1,,,,,,,,,,,,,,,,,,,,,,,,,,,,,,,,,,,,,,,,,,,,,,,,,,,,,,,,
,,,,,,,,,,,,l,0.3645,Correct!,,,,,,t1.png,t3.png,2,0.056466,20,male,2020-11-19_14h24.22.434,torte-2b,2020.1.3,Win32,60,13391,,,,,0,63,63,87,1,,,,,,,,,,,,,,,,,,,,,,,,,,,,,,,,,,,,,,,,,,,,,,,,,,,,,,,,
,,,,,,,,,,,,a,0.297825,Correct!,,,,,,t1.png,t1.png,0,0.97829,20,male,2020-11-19_14h24.22.434,torte-2b,2020.1.3,Win32,60,13391,,,,,0,64,64,67,1,,,,,,,,,,,,,,,,,,,,,,,,,,,,,,,,,,,,,,,,,,,,,,,,,,,,,,,,
,,,,,,,,,,,,a,0.31475,Incorrect,,,,,,t5.png,t2.png,3,0.0000131,20,male,2020-11-19_14h24.22.434,torte-2b,2020.1.3,Win32,60,13391,,,,,0,65,65,51,1,,,,,,,,,,,,,,,,,,,,,,,,,,,,,,,,,,,,,,,,,,,,,,,,,,,,,,,,
,,,,,,,,,,,,a,0.354745,Incorrect,,,,,,t5.png,t1.png,4,9.55E-11,20,male,2020-11-19_14h24.22.434,torte-2b,2020.1.3,Win32,60,13391,,,,,0,66,66,22,1,,,,,,,,,,,,,,,,,,,,,,,,,,,,,,,,,,,,,,,,,,,,,,,,,,,,,,,,
,,,,,,,,,,,,a,0.333285,Correct!,,,,,,t3.png,t4.png,1,0.909,20,male,2020-11-19_14h24.22.434,torte-2b,2020.1.3,Win32,60,13391,,,,,0,67,67,82,1,,,,,,,,,,,,,,,,,,,,,,,,,,,,,,,,,,,,,,,,,,,,,,,,,,,,,,,,
,,,,,,,,,,,,a,0.371195,Correct!,,,,,,t4.png,t3.png,1,0.909,20,male,2020-11-19_14h24.22.434,torte-2b,2020.1.3,Win32,60,13391,,,,,0,68,68,46,1,,,,,,,,,,,,,,,,,,,,,,,,,,,,,,,,,,,,,,,,,,,,,,,,,,,,,,,,
,,,,,,,,,,,,a,0.3731,Incorrect,,,,,,t5.png,t3.png,2,0.056466,20,male,2020-11-19_14h24.22.434,torte-2b,2020.1.3,Win32,60,13391,,,,,0,69,69,56,1,,,,,,,,,,,,,,,,,,,,,,,,,,,,,,,,,,,,,,,,,,,,,,,,,,,,,,,,
,,,,,,,,,,,,a,0.415035,Incorrect,,,,,,t3.png,t1.png,2,0.056466,20,male,2020-11-19_14h24.22.434,torte-2b,2020.1.3,Win32,60,13391,,,,,0,70,70,29,1,,,,,,,,,,,,,,,,,,,,,,,,,,,,,,,,,,,,,,,,,,,,,,,,,,,,,,,,
,,,,,,,,,,,,l,0.51709,Incorrect,,,,,,t1.png,t1.png,0,0.978,20,male,2020-11-19_14h24.22.434,torte-2b,2020.1.3,Win32,60,13391,,,,,0,71,71,28,1,,,,,,,,,,,,,,,,,,,,,,,,,,,,,,,,,,,,,,,,,,,,,,,,,,,,,,,,
,,,,,,,,,,,,a,0.405985,Incorrect,,,,,,t5.png,t2.png,3,0.0000131,20,male,2020-11-19_14h24.22.434,torte-2b,2020.1.3,Win32,60,13391,,,,,0,72,72,119,1,,,,,,,,,,,,,,,,,,,,,,,,,,,,,,,,,,,,,,,,,,,,,,,,,,,,,,,,
,,,,,,,,,,,,l,0.43266,Correct!,,,,,,t1.png,t2.png,1,0.9,20,male,2020-11-19_14h24.22.434,torte-2b,2020.1.3,Win32,60,13391,,,,,0,73,73,1,1,,,,,,,,,,,,,,,,,,,,,,,,,,,,,,,,,,,,,,,,,,,,,,,,,,,,,,,,
,,,,,,,,,,,,a,0.580195,Correct!,,,,,,t1.png,t1.png,0,0.97829,20,male,2020-11-19_14h24.22.434,torte-2b,2020.1.3,Win32,60,13391,,,,,0,74,74,78,1,,,,,,,,,,,,,,,,,,,,,,,,,,,,,,,,,,,,,,,,,,,,,,,,,,,,,,,,
,,,,,,,,,,,,a,0.51507,Correct!,,,,,,t3.png,t2.png,1,0.909,20,male,2020-11-19_14h24.22.434,torte-2b,2020.1.3,Win32,60,13391,,,,,0,75,75,3,1,,,,,,,,,,,,,,,,,,,,,,,,,,,,,,,,,,,,,,,,,,,,,,,,,,,,,,,,
,,,,,,,,,,,,a,0.414815,Incorrect,,,,,,t4.png,t1.png,3,0.0000131,20,male,2020-11-19_14h24.22.434,torte-2b,2020.1.3,Win32,60,13391,,,,,0,76,76,93,1,,,,,,,,,,,,,,,,,,,,,,,,,,,,,,,,,,,,,,,,,,,,,,,,,,,,,,,,
,,,,,,,,,,,,a,0.498355,Incorrect,,,,,,t4.png,t1.png,3,0.0000131,20,male,2020-11-19_14h24.22.434,torte-2b,2020.1.3,Win32,60,13391,,,,,0,77,77,13,1,,,,,,,,,,,,,,,,,,,,,,,,,,,,,,,,,,,,,,,,,,,,,,,,,,,,,,,,
,,,,,,,,,,,,l,0.57436,Correct!,,,,,,t1.png,t5.png,4,9.55E-11,20,male,2020-11-19_14h24.22.434,torte-2b,2020.1.3,Win32,60,13391,,,,,0,78,78,85,1,,,,,,,,,,,,,,,,,,,,,,,,,,,,,,,,,,,,,,,,,,,,,,,,,,,,,,,,
,,,,,,,,,,,,a,0.59804,Correct!,,,,,,t4.png,t4.png,0,0.98115,20,male,2020-11-19_14h24.22.434,torte-2b,2020.1.3,Win32,60,13391,,,,,0,79,79,79,1,,,,,,,,,,,,,,,,,,,,,,,,,,,,,,,,,,,,,,,,,,,,,,,,,,,,,,,,
,,,,,,,,,,,,a,0.35701,Incorrect,,,,,,t5.png,t1.png,4,9.55E-11,20,male,2020-11-19_14h24.22.434,torte-2b,2020.1.3,Win32,60,13391,,,,,0,80,80,100,1,,,,,,,,,,,,,,,,,,,,,,,,,,,,,,,,,,,,,,,,,,,,,,,,,,,,,,,,
,,,,,,,,,,,,a,0.36419,Incorrect,,,,,,t3.png,t1.png,2,0.056466,20,male,2020-11-19_14h24.22.434,torte-2b,2020.1.3,Win32,60,13391,,,,,0,81,81,32,1,,,,,,,,,,,,,,,,,,,,,,,,,,,,,,,,,,,,,,,,,,,,,,,,,,,,,,,,
,,,,,,,,,,,,a,0.39794,Correct!,,,,,,t3.png,t2.png,1,0.909,20,male,2020-11-19_14h24.22.434,torte-2b,2020.1.3,Win32,60,13391,,,,,0,82,82,23,1,,,,,,,,,,,,,,,,,,,,,,,,,,,,,,,,,,,,,,,,,,,,,,,,,,,,,,,,
,,,,,,,,,,,,l,0.381135,Correct!,,,,,,t1.png,t4.png,3,0.0000131,20,male,2020-11-19_14h24.22.434,torte-2b,2020.1.3,Win32,60,13391,,,,,0,83,83,50,1,,,,,,,,,,,,,,,,,,,,,,,,,,,,,,,,,,,,,,,,,,,,,,,,,,,,,,,,
,,,,,,,,,,,,a,0.339895,Correct!,,,,,,t4.png,t5.png,1,0.90025,20,male,2020-11-19_14h24.22.434,torte-2b,2020.1.3,Win32,60,13391,,,,,0,84,84,58,1,,,,,,,,,,,,,,,,,,,,,,,,,,,,,,,,,,,,,,,,,,,,,,,,,,,,,,,,
,,,,,,,,,,,,a,0.35789,Incorrect,,,,,,t4.png,t1.png,3,0.0000131,20,male,2020-11-19_14h24.22.434,torte-2b,2020.1.3,Win32,60,13391,,,,,0,85,85,61,1,,,,,,,,,,,,,,,,,,,,,,,,,,,,,,,,,,,,,,,,,,,,,,,,,,,,,,,,
,,,,,,,,,,,,l,0.369095,Incorrect,,,,,,t5.png,t5.png,0,0.97829,20,male,2020-11-19_14h24.22.434,torte-2b,2020.1.3,Win32,60,13391,,,,,0,86,86,94,1,,,,,,,,,,,,,,,,,,,,,,,,,,,,,,,,,,,,,,,,,,,,,,,,,,,,,,,,
,,,,,,,,,,,,a,0.6661,Correct!,,,,,,t4.png,t4.png,0,0.98115,20,male,2020-11-19_14h24.22.434,torte-2b,2020.1.3,Win32,60,13391,,,,,0,87,87,52,1,,,,,,,,,,,,,,,,,,,,,,,,,,,,,,,,,,,,,,,,,,,,,,,,,,,,,,,,
,,,,,,,,,,,,l,0.493625,Correct!,,,,,,t1.png,t3.png,2,0.056466,20,male,2020-11-19_14h24.22.434,torte-2b,2020.1.3,Win32,60,13391,,,,,0,88,88,63,1,,,,,,,,,,,,,,,,,,,,,,,,,,,,,,,,,,,,,,,,,,,,,,,,,,,,,,,,
,,,,,,,,,,,,a,0.550245,Correct!,,,,,,t3.png,t2.png,1,0.90855,20,male,2020-11-19_14h24.22.434,torte-2b,2020.1.3,Win32,60,13391,,,,,0,89,89,18,1,,,,,,,,,,,,,,,,,,,,,,,,,,,,,,,,,,,,,,,,,,,,,,,,,,,,,,,,
,,,,,,,,,,,,l,0.604715,Correct!,,,,,,t3.png,t5.png,2,0.0565,20,male,2020-11-19_14h24.22.434,torte-2b,2020.1.3,Win32,60,13391,,,,,0,90,90,30,1,,,,,,,,,,,,,,,,,,,,,,,,,,,,,,,,,,,,,,,,,,,,,,,,,,,,,,,,
,,,,,,,,,,,,l,0.480015,Correct!,,,,,,t1.png,t5.png,4,9.55E-11,20,male,2020-11-19_14h24.22.434,torte-2b,2020.1.3,Win32,60,13391,,,,,0,91,91,55,1,,,,,,,,,,,,,,,,,,,,,,,,,,,,,,,,,,,,,,,,,,,,,,,,,,,,,,,,
,,,,,,,,,,,,l,0.68319,Correct!,,,,,,t1.png,t2.png,1,0.90025,20,male,2020-11-19_14h24.22.434,torte-2b,2020.1.3,Win32,60,13391,,,,,0,92,92,33,1,,,,,,,,,,,,,,,,,,,,,,,,,,,,,,,,,,,,,,,,,,,,,,,,,,,,,,,,
,,,,,,,,,,,,a,0.43159,Correct!,,,,,,t4.png,t2.png,2,0.059078,20,male,2020-11-19_14h24.22.434,torte-2b,2020.1.3,Win32,60,13391,,,,,0,93,93,109,1,,,,,,,,,,,,,,,,,,,,,,,,,,,,,,,,,,,,,,,,,,,,,,,,,,,,,,,,
,,,,,,,,,,,,a,0.46618,Incorrect,,,,,,t3.png,t1.png,2,0.056466,20,male,2020-11-19_14h24.22.434,torte-2b,2020.1.3,Win32,60,13391,,,,,0,94,94,64,1,,,,,,,,,,,,,,,,,,,,,,,,,,,,,,,,,,,,,,,,,,,,,,,,,,,,,,,,
,,,,,,,,,,,,l,0.434655,Correct!,,,,,,t2.png,t4.png,2,0.059078,20,male,2020-11-19_14h24.22.434,torte-2b,2020.1.3,Win32,60,13391,,,,,0,95,95,11,1,,,,,,,,,,,,,,,,,,,,,,,,,,,,,,,,,,,,,,,,,,,,,,,,,,,,,,,,
,,,,,,,,,,,,l,0.381655,Correct!,,,,,,t2.png,t5.png,3,0.0000131,20,male,2020-11-19_14h24.22.434,torte-2b,2020.1.3,Win32,60,13391,,,,,0,96,96,40,1,,,,,,,,,,,,,,,,,,,,,,,,,,,,,,,,,,,,,,,,,,,,,,,,,,,,,,,,
,,,,,,,,,,,,a,0.369965,Incorrect,,,,,,t3.png,t1.png,2,0.056466,20,male,2020-11-19_14h24.22.434,torte-2b,2020.1.3,Win32,60,13391,,,,,0,97,97,0,1,,,,,,,,,,,,,,,,,,,,,,,,,,,,,,,,,,,,,,,,,,,,,,,,,,,,,,,,
,,,,,,,,,,,,l,0.38164,Correct!,,,,,,t1.png,t4.png,3,0.0000131,20,male,2020-11-19_14h24.22.434,torte-2b,2020.1.3,Win32,60,13391,,,,,0,98,98,92,1,,,,,,,,,,,,,,,,,,,,,,,,,,,,,,,,,,,,,,,,,,,,,,,,,,,,,,,,
,,,,,,,,,,,,a,1.050055,Correct!,,,,,,t2.png,t2.png,0,0.98115,20,male,2020-11-19_14h24.22.434,torte-2b,2020.1.3,Win32,60,13391,,,,,0,99,99,57,1,,,,,,,,,,,,,,,,,,,,,,,,,,,,,,,,,,,,,,,,,,,,,,,,,,,,,,,,
,,,,,,,,,,,,l,0.86382,Correct!,,,,,,t1.png,t5.png,4,9.55E-11,20,male,2020-11-19_14h24.22.434,torte-2b,2020.1.3,Win32,60,13391,,,,,0,100,100,12,1,,,,,,,,,,,,,,,,,,,,,,,,,,,,,,,,,,,,,,,,,,,,,,,,,,,,,,,,
,,,,,,,,,,,,a,0.481055,Correct!,,,,,,t5.png,t4.png,1,0.9,20,male,2020-11-19_14h24.22.434,torte-2b,2020.1.3,Win32,60,13391,,,,,0,101,101,76,1,,,,,,,,,,,,,,,,,,,,,,,,,,,,,,,,,,,,,,,,,,,,,,,,,,,,,,,,
,,,,,,,,,,,,a,0.476085,Correct!,,,,,,t4.png,t3.png,1,0.90855,20,male,2020-11-19_14h24.22.434,torte-2b,2020.1.3,Win32,60,13391,,,,,0,102,102,75,1,,,,,,,,,,,,,,,,,,,,,,,,,,,,,,,,,,,,,,,,,,,,,,,,,,,,,,,,
,,,,,,,,,,,,l,0.33206,Correct!,,,,,,t1.png,t3.png,2,0.056466,20,male,2020-11-19_14h24.22.434,torte-2b,2020.1.3,Win32,60,13391,,,,,0,103,103,69,1,,,,,,,,,,,,,,,,,,,,,,,,,,,,,,,,,,,,,,,,,,,,,,,,,,,,,,,,
,,,,,,,,,,,,a,0.441055,Incorrect,,,,,,t3.png,t1.png,2,0.0565,20,male,2020-11-19_14h24.22.434,torte-2b,2020.1.3,Win32,60,13391,,,,,0,104,104,31,1,,,,,,,,,,,,,,,,,,,,,,,,,,,,,,,,,,,,,,,,,,,,,,,,,,,,,,,,
,,,,,,,,,,,,a,0.584625,Correct!,,,,,,t2.png,t1.png,1,0.9,20,male,2020-11-19_14h24.22.434,torte-2b,2020.1.3,Win32,60,13391,,,,,0,105,105,118,1,,,,,,,,,,,,,,,,,,,,,,,,,,,,,,,,,,,,,,,,,,,,,,,,,,,,,,,,
,,,,,,,,,,,,l,0.43332,Incorrect,,,,,,t2.png,t3.png,1,0.90855,20,male,2020-11-19_14h24.22.434,torte-2b,2020.1.3,Win32,60,13391,,,,,0,106,106,65,1,,,,,,,,,,,,,,,,,,,,,,,,,,,,,,,,,,,,,,,,,,,,,,,,,,,,,,,,
,,,,,,,,,,,,a,0.464525,Incorrect,,,,,,t5.png,t3.png,2,0.0565,20,male,2020-11-19_14h24.22.434,torte-2b,2020.1.3,Win32,60,13391,,,,,0,107,107,39,1,,,,,,,,,,,,,,,,,,,,,,,,,,,,,,,,,,,,,,,,,,,,,,,,,,,,,,,,
,,,,,,,,,,,,a,0.846985,Incorrect,,,,,,t4.png,t3.png,1,0.909,20,male,2020-11-19_14h24.22.434,torte-2b,2020.1.3,Win32,60,13391,,,,,0,108,108,20,1,,,,,,,,,,,,,,,,,,,,,,,,,,,,,,,,,,,,,,,,,,,,,,,,,,,,,,,,
,,,,,,,,,,,,l,0.46619,Incorrect,,,,,,t4.png,t5.png,1,0.90025,20,male,2020-11-19_14h24.22.434,torte-2b,2020.1.3,Win32,60,13391,,,,,0,109,109,113,1,,,,,,,,,,,,,,,,,,,,,,,,,,,,,,,,,,,,,,,,,,,,,,,,,,,,,,,,
,,,,,,,,,,,,l,0.57944,Incorrect,,,,,,t3.png,t4.png,1,0.909,20,male,2020-11-19_14h24.22.434,torte-2b,2020.1.3,Win32,60,13391,,,,,0,110,110,106,1,,,,,,,,,,,,,,,,,,,,,,,,,,,,,,,,,,,,,,,,,,,,,,,,,,,,,,,,
,,,,,,,,,,,,a,0.463515,Incorrect,,,,,,t3.png,t2.png,1,0.90855,20,male,2020-11-19_14h24.22.434,torte-2b,2020.1.3,Win32,60,13391,,,,,0,111,111,53,1,,,,,,,,,,,,,,,,,,,,,,,,,,,,,,,,,,,,,,,,,,,,,,,,,,,,,,,,
,,,,,,,,,,,,l,0.39531,Correct!,,,,,,t1.png,t3.png,2,0.056466,20,male,2020-11-19_14h24.22.434,torte-2b,2020.1.3,Win32,60,13391,,,,,0,112,112,99,1,,,,,,,,,,,,,,,,,,,,,,,,,,,,,,,,,,,,,,,,,,,,,,,,,,,,,,,,
,,,,,,,,,,,,l,0.46515,Correct!,,,,,,t2.png,t4.png,2,0.0591,20,male,2020-11-19_14h24.22.434,torte-2b,2020.1.3,Win32,60,13391,,,,,0,113,113,15,1,,,,,,,,,,,,,,,,,,,,,,,,,,,,,,,,,,,,,,,,,,,,,,,,,,,,,,,,
,,,,,,,,,,,,l,0.589655,Incorrect,,,,,,t4.png,t4.png,0,0.98115,20,male,2020-11-19_14h24.22.434,torte-2b,2020.1.3,Win32,60,13391,,,,,0,114,114,21,1,,,,,,,,,,,,,,,,,,,,,,,,,,,,,,,,,,,,,,,,,,,,,,,,,,,,,,,,
,,,,,,,,,,,,a,0.434225,Incorrect,,,,,,t5.png,t3.png,2,0.056466,20,male,2020-11-19_14h24.22.434,torte-2b,2020.1.3,Win32,60,13391,,,,,0,115,115,38,1,,,,,,,,,,,,,,,,,,,,,,,,,,,,,,,,,,,,,,,,,,,,,,,,,,,,,,,,
,,,,,,,,,,,,l,0.434125,Correct!,,,,,,t2.png,t5.png,3,0.0000131,20,male,2020-11-19_14h24.22.434,torte-2b,2020.1.3,Win32,60,13391,,,,,0,116,116,66,1,,,,,,,,,,,,,,,,,,,,,,,,,,,,,,,,,,,,,,,,,,,,,,,,,,,,,,,,
,,,,,,,,,,,,l,0.402925,Correct!,,,,,,t1.png,t4.png,3,0.0000131,20,male,2020-11-19_14h24.22.434,torte-2b,2020.1.3,Win32,60,13391,,,,,0,117,117,17,1,,,,,,,,,,,,,,,,,,,,,,,,,,,,,,,,,,,,,,,,,,,,,,,,,,,,,,,,
,,,,,,,,,,,,a,0.281485,Correct!,,,,,,t5.png,t4.png,1,0.90025,20,male,2020-11-19_14h24.22.434,torte-2b,2020.1.3,Win32,60,13391,,,,,0,118,118,34,1,,,,,,,,,,,,,,,,,,,,,,,,,,,,,,,,,,,,,,,,,,,,,,,,,,,,,,,,
,,,,,,,,,,,,l,0.3365,Correct!,,,,,,t1.png,t4.png,3,0.0000131,20,male,2020-11-19_14h24.22.434,torte-2b,2020.1.3,Win32,60,13391,,,,,0,119,119,81,1,,,,,,,,,,,,,,,,,,,,,,,,,,,,,,,,,,,,,,,,,,,,,,,,,,,,,,,,
,,,,,,,,,,,,,,,,,,,,,,,,20,male,2020-11-19_14h24.22.434,torte-2b,2020.1.3,Win32,60,13391,space,4.068325,,,,,,,,space,18.895555,,0,0,0,0,1,6,,,,,,,,,,,,,,,,,,,,,,,,,,,,,,,,,,,,,,,,,,,,,,,
,,,,,,,,,,,,,,,,,,,,,,,,20,male,2020-11-19_14h24.22.434,torte-2b,2020.1.3,Win32,60,13391,,,,,,,,,,,,,0,1,1,1,1,7,,,,,,,,,,,,,,,,,,,,,,,,,,,,,,,,,,,,,,,,,,,,,,,
,,,,,,,,,,,,,,,,,,,,,,,,20,male,2020-11-19_14h24.22.434,torte-2b,2020.1.3,Win32,60,13391,,,,,,,,,,,,space,0,2,2,2,1,6,0.532325,,,,,,,,,,,,,,,,,,,,,,,,,,,,,,,,,,,,,,,,,,,,,,
,,,,,,,,,,,,,,,,,,,,,,,,20,male,2020-11-19_14h24.22.434,torte-2b,2020.1.3,Win32,60,13391,,,,,,,,,,,,space,0,3,3,3,1,7,0.457145,,,,,,,,,,,,,,,,,,,,,,,,,,,,,,,,,,,,,,,,,,,,,,
,,,,,,,,,,,,,,,,,,,,,,,,20,male,2020-11-19_14h24.22.434,torte-2b,2020.1.3,Win32,60,13391,,,,,,,,,,,,,0,4,4,4,1,5,,,,,,,,,,,,,,,,,,,,,,,,,,,,,,,,,,,,,,,,,,,,,,,
,,,,,,,,,,,,,,,,,,,,,,,,20,male,2020-11-19_14h24.22.434,torte-2b,2020.1.3,Win32,60,13391,,,,,,,,,,,,space,0,5,5,5,1,7,0.378215,,,,,,,,,,,,,,,,,,,,,,,,,,,,,,,,,,,,,,,,,,,,,,
,,,,,,,,,,,,,,,,,,,,,,,,20,male,2020-11-19_14h24.22.434,torte-2b,2020.1.3,Win32,60,13391,,,,,,,,,,,,,0,6,6,6,1,2,,,,,,,,,,,,,,,,,,,,,,,,,,,,,,,,,,,,,,,,,,,,,,,
,,,,,,,,,,,,,,,,,,,,,,,,20,male,2020-11-19_14h24.22.434,torte-2b,2020.1.3,Win32,60,13391,,,,,,,,,,,,,0,7,7,7,1,4,,,,,,,,,,,,,,,,,,,,,,,,,,,,,,,,,,,,,,,,,,,,,,,
,,,,,,,,,,,,,,,,,,,,,,,,20,male,2020-11-19_14h24.22.434,torte-2b,2020.1.3,Win32,60,13391,,,,,,,,,,,,,0,8,8,8,1,7,,,,,,,,,,,,,,,,,,,,,,,,,,,,,,,,,,,,,,,,,,,,,,,
,,,,,,,,,,,,,,,,,,,,,,,,20,male,2020-11-19_14h24.22.434,torte-2b,2020.1.3,Win32,60,13391,,,,,,,,,,,,space,0,9,9,9,1,4,0.66468,,,,,,,,,,,,,,,,,,,,,,,,,,,,,,,,,,,,,,,,,,,,,,
,,,,,,,,,,,,,,,,,,,,,,,,20,male,2020-11-19_14h24.22.434,torte-2b,2020.1.3,Win32,60,13391,,,,,,,,,,,,space,0,10,10,10,1,7,0.519835,,,,,,,,,,,,,,,,,,,,,,,,,,,,,,,,,,,,,,,,,,,,,,
,,,,,,,,,,,,,,,,,,,,,,,,20,male,2020-11-19_14h24.22.434,torte-2b,2020.1.3,Win32,60,13391,,,,,,,,,,,,space,0,11,11,11,1,7,0.48155,,,,,,,,,,,,,,,,,,,,,,,,,,,,,,,,,,,,,,,,,,,,,,
,,,,,,,,,,,,,,,,,,,,,,,,20,male,2020-11-19_14h24.22.434,torte-2b,2020.1.3,Win32,60,13391,,,,,,,,,,,,space,0,12,12,12,1,7,0.595945,,,,,,,,,,,,,,,,,,,,,,,,,,,,,,,,,,,,,,,,,,,,,,
,,,,,,,,,,,,,,,,,,,,,,,,20,male,2020-11-19_14h24.22.434,torte-2b,2020.1.3,Win32,60,13391,,,,,,,,,,,,,0,13,13,13,1,4,,,,,,,,,,,,,,,,,,,,,,,,,,,,,,,,,,,,,,,,,,,,,,,
,,,,,,,,,,,,,,,,,,,,,,,,20,male,2020-11-19_14h24.22.434,torte-2b,2020.1.3,Win32,60,13391,,,,,,,,,,,,,0,14,14,14,1,6,,,,,,,,,,,,,,,,,,,,,,,,,,,,,,,,,,,,,,,,,,,,,,,
,,,,,,,,,,,,,,,,,,,,,,,,20,male,2020-11-19_14h24.22.434,torte-2b,2020.1.3,Win32,60,13391,,,,,,,,,,,,space,0,15,15,15,1,4,0.528735,,,,,,,,,,,,,,,,,,,,,,,,,,,,,,,,,,,,,,,,,,,,,,
,,,,,,,,,,,,,,,,,,,,,,,,20,male,2020-11-19_14h24.22.434,torte-2b,2020.1.3,Win32,60,13391,,,,,,,,,,,,space,0,16,16,16,1,6,0.65964,,,,,,,,,,,,,,,,,,,,,,,,,,,,,,,,,,,,,,,,,,,,,,
,,,,,,,,,,,,,,,,,,,,,,,,20,male,2020-11-19_14h24.22.434,torte-2b,2020.1.3,Win32,60,13391,,,,,,,,,,,,,0,17,17,17,1,7,,,,,,,,,,,,,,,,,,,,,,,,,,,,,,,,,,,,,,,,,,,,,,,
,,,,,,,,,,,,,,,,,,,,,,,,20,male,2020-11-19_14h24.22.434,torte-2b,2020.1.3,Win32,60,13391,,,,,,,,,,,,space,0,18,18,18,1,6,0.69619,,,,,,,,,,,,,,,,,,,,,,,,,,,,,,,,,,,,,,,,,,,,,,
,,,,,,,,,,,,,,,,,,,,,,,,20,male,2020-11-19_14h24.22.434,torte-2b,2020.1.3,Win32,60,13391,,,,,,,,,,,,space,0,19,19,19,1,7,0.67962,,,,,,,,,,,,,,,,,,,,,,,,,,,,,,,,,,,,,,,,,,,,,,
,,,,,,,,,,,,,,,,,,,,,,,,20,male,2020-11-19_14h24.22.434,torte-2b,2020.1.3,Win32,60,13391,,,,,,,,,,,,space,0,20,20,20,1,5,0.50919,,,,,,,,,,,,,,,,,,,,,,,,,,,,,,,,,,,,,,,,,,,,,,
,,,,,,,,,,,,,,,,,,,,,,,,20,male,2020-11-19_14h24.22.434,torte-2b,2020.1.3,Win32,60,13391,,,,,,,,,,,,,0,21,21,21,1,1,,,,,,,,,,,,,,,,,,,,,,,,,,,,,,,,,,,,,,,,,,,,,,,
,,,,,,,,,,,,,,,,,,,,,,,,20,male,2020-11-19_14h24.22.434,torte-2b,2020.1.3,Win32,60,13391,,,,,,,,,,,,,0,22,22,22,1,6,,,,,,,,,,,,,,,,,,,,,,,,,,,,,,,,,,,,,,,,,,,,,,,
,,,,,,,,,,,,,,,,,,,,,,,,20,male,2020-11-19_14h24.22.434,torte-2b,2020.1.3,Win32,60,13391,,,,,,,,,,,,space,0,23,23,23,1,1,0.42695,,,,,,,,,,,,,,,,,,,,,,,,,,,,,,,,,,,,,,,,,,,,,,
,,,,,,,,,,,,,,,,,,,,,,,,20,male,2020-11-19_14h24.22.434,torte-2b,2020.1.3,Win32,60,13391,,,,,,,,,,,,,0,24,24,24,1,5,,,,,,,,,,,,,,,,,,,,,,,,,,,,,,,,,,,,,,,,,,,,,,,
,,,,,,,,,,,,,,,,,,,,,,,,20,male,2020-11-19_14h24.22.434,torte-2b,2020.1.3,Win32,60,13391,,,,,,,,,,,,space,0,25,25,25,1,6,0.446565,,,,,,,,,,,,,,,,,,,,,,,,,,,,,,,,,,,,,,,,,,,,,,
,,,,,,,,,,,,,,,,,,,,,,,,20,male,2020-11-19_14h24.22.434,torte-2b,2020.1.3,Win32,60,13391,,,,,,,,,,,,,0,26,26,26,1,6,,,,,,,,,,,,,,,,,,,,,,,,,,,,,,,,,,,,,,,,,,,,,,,
,,,,,,,,,,,,,,,,,,,,,,,,20,male,2020-11-19_14h24.22.434,torte-2b,2020.1.3,Win32,60,13391,,,,,,,,,,,,space,0,27,27,27,1,6,1.57224,,,,,,,,,,,,,,,,,,,,,,,,,,,,,,,,,,,,,,,,,,,,,,
,,,,,,,,,,,,,,,,,,,,,,,,20,male,2020-11-19_14h24.22.434,torte-2b,2020.1.3,Win32,60,13391,,,,,,,,,,,,,0,28,28,28,1,5,,,,,,,,,,,,,,,,,,,,,,,,,,,,,,,,,,,,,,,,,,,,,,,
,,,,,,,,,,,,,,,,,,,,,,,,20,male,2020-11-19_14h24.22.434,torte-2b,2020.1.3,Win32,60,13391,,,,,,,,,,,,,0,29,29,29,1,2,,,,,,,,,,,,,,,,,,,,,,,,,,,,,,,,,,,,,,,,,,,,,,,
,,,,,,,,,,,,,,,,,,,,,,,,20,male,2020-11-19_14h24.22.434,torte-2b,2020.1.3,Win32,60,13391,,,,,,,,,,,,space,0,30,30,30,1,5,0.29936,,,,,,,,,,,,,,,,,,,,,,,,,,,,,,,,,,,,,,,,,,,,,,
,,,,,,,,,,,,,,,,,,,,,,,,20,male,2020-11-19_14h24.22.434,torte-2b,2020.1.3,Win32,60,13391,,,,,,,,,,,,space,0,31,31,31,1,2,0.32203,,,,,,,,,,,,,,,,,,,,,,,,,,,,,,,,,,,,,,,,,,,,,,
,,,,,,,,,,,,,,,,,,,,,,,,20,male,2020-11-19_14h24.22.434,torte-2b,2020.1.3,Win32,60,13391,,,,,,,,,,,,space,0,32,32,32,1,5,0.63056,,,,,,,,,,,,,,,,,,,,,,,,,,,,,,,,,,,,,,,,,,,,,,
,,,,,,,,,,,,,,,,,,,,,,,,20,male,2020-11-19_14h24.22.434,torte-2b,2020.1.3,Win32,60,13391,,,,,,,,,,,,,0,33,33,33,1,1,,,,,,,,,,,,,,,,,,,,,,,,,,,,,,,,,,,,,,,,,,,,,,,
,,,,,,,,,,,,,,,,,,,,,,,,20,male,2020-11-19_14h24.22.434,torte-2b,2020.1.3,Win32,60,13391,,,,,,,,,,,,space,0,34,34,34,1,1,0.50242,,,,,,,,,,,,,,,,,,,,,,,,,,,,,,,,,,,,,,,,,,,,,,
,,,,,,,,,,,,,,,,,,,,,,,,20,male,2020-11-19_14h24.22.434,torte-2b,2020.1.3,Win32,60,13391,,,,,,,,,,,,,,,,,,2,,0,0,0,0,1,,,,,,,,,,,,,,,,,,,,,,,,,,,,,,,,,,,,,,,,,
,,,,,,,,,,,,,,,,,,,,,,,,20,male,2020-11-19_14h24.22.434,torte-2b,2020.1.3,Win32,60,13391,,,,,,,,,,,,space,,,,,,2,0.71154,0,1,1,1,1,,,,,,,,,,,,,,,,,,,,,,,,,,,,,,,,,,,,,,,,,
,,,,,,,,,,,,,,,,,,,,,,,,20,male,2020-11-19_14h24.22.434,torte-2b,2020.1.3,Win32,60,13391,,,,,,,,,,,,,,,,,,6,,0,2,2,2,1,,,,,,,,,,,,,,,,,,,,,,,,,,,,,,,,,,,,,,,,,
,,,,,,,,,,,,,,,,,,,,,,,,20,male,2020-11-19_14h24.22.434,torte-2b,2020.1.3,Win32,60,13391,,,,,,,,,,,,space,,,,,,2,0.397945,0,3,3,3,1,,,,,,,,,,,,,,,,,,,,,,,,,,,,,,,,,,,,,,,,,
,,,,,,,,,,,,,,,,,,,,,,,,20,male,2020-11-19_14h24.22.434,torte-2b,2020.1.3,Win32,60,13391,,,,,,,,,,,,space,,,,,,6,0.512115,0,4,4,4,1,,,,,,,,,,,,,,,,,,,,,,,,,,,,,,,,,,,,,,,,,
,,,,,,,,,,,,,,,,,,,,,,,,20,male,2020-11-19_14h24.22.434,torte-2b,2020.1.3,Win32,60,13391,,,,,,,,,,,,space,,,,,,2,0.512505,0,5,5,5,1,,,,,,,,,,,,,,,,,,,,,,,,,,,,,,,,,,,,,,,,,
,,,,,,,,,,,,,,,,,,,,,,,,20,male,2020-11-19_14h24.22.434,torte-2b,2020.1.3,Win32,60,13391,,,,,,,,,,,,,,,,,,7,,0,6,6,6,1,,,,,,,,,,,,,,,,,,,,,,,,,,,,,,,,,,,,,,,,,
,,,,,,,,,,,,,,,,,,,,,,,,20,male,2020-11-19_14h24.22.434,torte-2b,2020.1.3,Win32,60,13391,,,,,,,,,,,,space,,,,,,2,0.729355,0,7,7,7,1,,,,,,,,,,,,,,,,,,,,,,,,,,,,,,,,,,,,,,,,,
,,,,,,,,,,,,,,,,,,,,,,,,20,male,2020-11-19_14h24.22.434,torte-2b,2020.1.3,Win32,60,13391,,,,,,,,,,,,space,,,,,,7,0.40301,0,8,8,8,1,,,,,,,,,,,,,,,,,,,,,,,,,,,,,,,,,,,,,,,,,
,,,,,,,,,,,,,,,,,,,,,,,,20,male,2020-11-19_14h24.22.434,torte-2b,2020.1.3,Win32,60,13391,,,,,,,,,,,,space,,,,,,2,0.59634,0,9,9,9,1,,,,,,,,,,,,,,,,,,,,,,,,,,,,,,,,,,,,,,,,,
,,,,,,,,,,,,,,,,,,,,,,,,20,male,2020-11-19_14h24.22.434,torte-2b,2020.1.3,Win32,60,13391,,,,,,,,,,,,,,,,,,5,,0,10,10,10,1,,,,,,,,,,,,,,,,,,,,,,,,,,,,,,,,,,,,,,,,,
,,,,,,,,,,,,,,,,,,,,,,,,20,male,2020-11-19_14h24.22.434,torte-2b,2020.1.3,Win32,60,13391,,,,,,,,,,,,,,,,,,4,,0,11,11,11,1,,,,,,,,,,,,,,,,,,,,,,,,,,,,,,,,,,,,,,,,,
,,,,,,,,,,,,,,,,,,,,,,,,20,male,2020-11-19_14h24.22.434,torte-2b,2020.1.3,Win32,60,13391,,,,,,,,,,,,space,,,,,,5,0.279195,0,12,12,12,1,,,,,,,,,,,,,,,,,,,,,,,,,,,,,,,,,,,,,,,,,
,,,,,,,,,,,,,,,,,,,,,,,,20,male,2020-11-19_14h24.22.434,torte-2b,2020.1.3,Win32,60,13391,,,,,,,,,,,,,,,,,,6,,0,13,13,13,1,,,,,,,,,,,,,,,,,,,,,,,,,,,,,,,,,,,,,,,,,
,,,,,,,,,,,,,,,,,,,,,,,,20,male,2020-11-19_14h24.22.434,torte-2b,2020.1.3,Win32,60,13391,,,,,,,,,,,,,,,,,,5,,0,14,14,14,1,,,,,,,,,,,,,,,,,,,,,,,,,,,,,,,,,,,,,,,,,
,,,,,,,,,,,,,,,,,,,,,,,,20,male,2020-11-19_14h24.22.434,torte-2b,2020.1.3,Win32,60,13391,,,,,,,,,,,,,,,,,,4,,0,15,15,15,1,,,,,,,,,,,,,,,,,,,,,,,,,,,,,,,,,,,,,,,,,
,,,,,,,,,,,,,,,,,,,,,,,,20,male,2020-11-19_14h24.22.434,torte-2b,2020.1.3,Win32,60,13391,,,,,,,,,,,,space,,,,,,5,0.338325,0,16,16,16,1,,,,,,,,,,,,,,,,,,,,,,,,,,,,,,,,,,,,,,,,,
,,,,,,,,,,,,,,,,,,,,,,,,20,male,2020-11-19_14h24.22.434,torte-2b,2020.1.3,Win32,60,13391,,,,,,,,,,,,,,,,,,3,,0,17,17,17,1,,,,,,,,,,,,,,,,,,,,,,,,,,,,,,,,,,,,,,,,,
,,,,,,,,,,,,,,,,,,,,,,,,20,male,2020-11-19_14h24.22.434,torte-2b,2020.1.3,Win32,60,13391,,,,,,,,,,,,,,,,,,6,,0,18,18,18,1,,,,,,,,,,,,,,,,,,,,,,,,,,,,,,,,,,,,,,,,,
,,,,,,,,,,,,,,,,,,,,,,,,20,male,2020-11-19_14h24.22.434,torte-2b,2020.1.3,Win32,60,13391,,,,,,,,,,,,space,,,,,,6,0.229585,0,19,19,19,1,,,,,,,,,,,,,,,,,,,,,,,,,,,,,,,,,,,,,,,,,
,,,,,,,,,,,,,,,,,,,,,,,,20,male,2020-11-19_14h24.22.434,torte-2b,2020.1.3,Win32,60,13391,,,,,,,,,,,,space,,,,,,6,0.362805,0,20,20,20,1,,,,,,,,,,,,,,,,,,,,,,,,,,,,,,,,,,,,,,,,,
,,,,,,,,,,,,,,,,,,,,,,,,20,male,2020-11-19_14h24.22.434,torte-2b,2020.1.3,Win32,60,13391,,,,,,,,,,,,,,,,,,4,,0,21,21,21,1,,,,,,,,,,,,,,,,,,,,,,,,,,,,,,,,,,,,,,,,,
,,,,,,,,,,,,,,,,,,,,,,,,20,male,2020-11-19_14h24.22.434,torte-2b,2020.1.3,Win32,60,13391,,,,,,,,,,,,space,,,,,,6,1.18055,0,22,22,22,1,,,,,,,,,,,,,,,,,,,,,,,,,,,,,,,,,,,,,,,,,
,,,,,,,,,,,,,,,,,,,,,,,,20,male,2020-11-19_14h24.22.434,torte-2b,2020.1.3,Win32,60,13391,,,,,,,,,,,,space,,,,,,4,0.69644,0,23,23,23,1,,,,,,,,,,,,,,,,,,,,,,,,,,,,,,,,,,,,,,,,,
,,,,,,,,,,,,,,,,,,,,,,,,20,male,2020-11-19_14h24.22.434,torte-2b,2020.1.3,Win32,60,13391,,,,,,,,,,,,space,,,,,,6,0.54747,0,24,24,24,1,,,,,,,,,,,,,,,,,,,,,,,,,,,,,,,,,,,,,,,,,
,,,,,,,,,,,,,,,,,,,,,,,,20,male,2020-11-19_14h24.22.434,torte-2b,2020.1.3,Win32,60,13391,,,,,,,,,,,,space,,,,,,6,0.375465,0,25,25,25,1,,,,,,,,,,,,,,,,,,,,,,,,,,,,,,,,,,,,,,,,,
,,,,,,,,,,,,,,,,,,,,,,,,20,male,2020-11-19_14h24.22.434,torte-2b,2020.1.3,Win32,60,13391,,,,,,,,,,,,,,,,,,7,,0,26,26,26,1,,,,,,,,,,,,,,,,,,,,,,,,,,,,,,,,,,,,,,,,,
,,,,,,,,,,,,,,,,,,,,,,,,20,male,2020-11-19_14h24.22.434,torte-2b,2020.1.3,Win32,60,13391,,,,,,,,,,,,,,,,,,1,,0,27,27,27,1,,,,,,,,,,,,,,,,,,,,,,,,,,,,,,,,,,,,,,,,,
,,,,,,,,,,,,,,,,,,,,,,,,20,male,2020-11-19_14h24.22.434,torte-2b,2020.1.3,Win32,60,13391,,,,,,,,,,,,space,,,,,,7,0.70335,0,28,28,28,1,,,,,,,,,,,,,,,,,,,,,,,,,,,,,,,,,,,,,,,,,
,,,,,,,,,,,,,,,,,,,,,,,,20,male,2020-11-19_14h24.22.434,torte-2b,2020.1.3,Win32,60,13391,,,,,,,,,,,,,,,,,,4,,0,29,29,29,1,,,,,,,,,,,,,,,,,,,,,,,,,,,,,,,,,,,,,,,,,
,,,,,,,,,,,,,,,,,,,,,,,,20,male,2020-11-19_14h24.22.434,torte-2b,2020.1.3,Win32,60,13391,,,,,,,,,,,,space,,,,,,7,0.42638,0,30,30,30,1,,,,,,,,,,,,,,,,,,,,,,,,,,,,,,,,,,,,,,,,,
,,,,,,,,,,,,,,,,,,,,,,,,20,male,2020-11-19_14h24.22.434,torte-2b,2020.1.3,Win32,60,13391,,,,,,,,,,,,,,,,,,3,,0,31,31,31,1,,,,,,,,,,,,,,,,,,,,,,,,,,,,,,,,,,,,,,,,,
,,,,,,,,,,,,,,,,,,,,,,,,20,male,2020-11-19_14h24.22.434,torte-2b,2020.1.3,Win32,60,13391,,,,,,,,,,,,,,,,,,2,,0,32,32,32,1,,,,,,,,,,,,,,,,,,,,,,,,,,,,,,,,,,,,,,,,,
,,,,,,,,,,,,,,,,,,,,,,,,20,male,2020-11-19_14h24.22.434,torte-2b,2020.1.3,Win32,60,13391,,,,,,,,,,,,,,,,,,6,,0,33,33,33,1,,,,,,,,,,,,,,,,,,,,,,,,,,,,,,,,,,,,,,,,,
,,,,,,,,,,,,,,,,,,,,,,,,20,male,2020-11-19_14h24.22.434,torte-2b,2020.1.3,Win32,60,13391,,,,,,,,,,,,,,,,,,3,,0,34,34,34,1,,,,,,,,,,,,,,,,,,,,,,,,,,,,,,,,,,,,,,,,,
,,,,,,,,,,,,,,,,,,,,,,,,20,male,2020-11-19_14h24.22.434,torte-2b,2020.1.3,Win32,60,13391,,,,,,,,,,,,,,,,,,7,,,,,,,0,0,0,0,1,,,,,,,,,,,,,,,,,,,,,,,,,,,,,,,,,,,,
,,,,,,,,,,,,,,,,,,,,,,,,20,male,2020-11-19_14h24.22.434,torte-2b,2020.1.3,Win32,60,13391,,,,,,,,,,,,,,,,,,5,,,,,,,0,1,1,1,1,,,,,,,,,,,,,,,,,,,,,,,,,,,,,,,,,,,,
,,,,,,,,,,,,,,,,,,,,,,,,20,male,2020-11-19_14h24.22.434,torte-2b,2020.1.3,Win32,60,13391,,,,,,,,,,,,,,,,,,4,,,,,,,0,2,2,2,1,,,,,,,,,,,,,,,,,,,,,,,,,,,,,,,,,,,,
,,,,,,,,,,,,,,,,,,,,,,,,20,male,2020-11-19_14h24.22.434,torte-2b,2020.1.3,Win32,60,13391,,,,,,,,,,,,space,,,,,,5,0.778645,,,,,,0,3,3,3,1,,,,,,,,,,,,,,,,,,,,,,,,,,,,,,,,,,,,
,,,,,,,,,,,,,,,,,,,,,,,,20,male,2020-11-19_14h24.22.434,torte-2b,2020.1.3,Win32,60,13391,,,,,,,,,,,,,,,,,,6,,,,,,,0,4,4,4,1,,,,,,,,,,,,,,,,,,,,,,,,,,,,,,,,,,,,
,,,,,,,,,,,,,,,,,,,,,,,,20,male,2020-11-19_14h24.22.434,torte-2b,2020.1.3,Win32,60,13391,,,,,,,,,,,,space,,,,,,5,0.444985,,,,,,0,5,5,5,1,,,,,,,,,,,,,,,,,,,,,,,,,,,,,,,,,,,,
,,,,,,,,,,,,,,,,,,,,,,,,20,male,2020-11-19_14h24.22.434,torte-2b,2020.1.3,Win32,60,13391,,,,,,,,,,,,,,,,,,3,,,,,,,0,6,6,6,1,,,,,,,,,,,,,,,,,,,,,,,,,,,,,,,,,,,,
,,,,,,,,,,,,,,,,,,,,,,,,20,male,2020-11-19_14h24.22.434,torte-2b,2020.1.3,Win32,60,13391,,,,,,,,,,,,,,,,,,4,,,,,,,0,7,7,7,1,,,,,,,,,,,,,,,,,,,,,,,,,,,,,,,,,,,,
,,,,,,,,,,,,,,,,,,,,,,,,20,male,2020-11-19_14h24.22.434,torte-2b,2020.1.3,Win32,60,13391,,,,,,,,,,,,space,,,,,,3,0.547765,,,,,,0,8,8,8,1,,,,,,,,,,,,,,,,,,,,,,,,,,,,,,,,,,,,
,,,,,,,,,,,,,,,,,,,,,,,,20,male,2020-11-19_14h24.22.434,torte-2b,2020.1.3,Win32,60,13391,,,,,,,,,,,,,,,,,,1,,,,,,,0,9,9,9,1,,,,,,,,,,,,,,,,,,,,,,,,,,,,,,,,,,,,
,,,,,,,,,,,,,,,,,,,,,,,,20,male,2020-11-19_14h24.22.434,torte-2b,2020.1.3,Win32,60,13391,,,,,,,,,,,,,,,,,,2,,,,,,,0,10,10,10,1,,,,,,,,,,,,,,,,,,,,,,,,,,,,,,,,,,,,
,,,,,,,,,,,,,,,,,,,,,,,,20,male,2020-11-19_14h24.22.434,torte-2b,2020.1.3,Win32,60,13391,,,,,,,,,,,,space,,,,,,1,0.46617,,,,,,0,11,11,11,1,,,,,,,,,,,,,,,,,,,,,,,,,,,,,,,,,,,,
,,,,,,,,,,,,,,,,,,,,,,,,20,male,2020-11-19_14h24.22.434,torte-2b,2020.1.3,Win32,60,13391,,,,,,,,,,,,space,,,,,,2,0.61207,,,,,,0,12,12,12,1,,,,,,,,,,,,,,,,,,,,,,,,,,,,,,,,,,,,
,,,,,,,,,,,,,,,,,,,,,,,,20,male,2020-11-19_14h24.22.434,torte-2b,2020.1.3,Win32,60,13391,,,,,,,,,,,,space,,,,,,1,0.430515,,,,,,0,13,13,13,1,,,,,,,,,,,,,,,,,,,,,,,,,,,,,,,,,,,,
,,,,,,,,,,,,,,,,,,,,,,,,20,male,2020-11-19_14h24.22.434,torte-2b,2020.1.3,Win32,60,13391,,,,,,,,,,,,,,,,,,3,,,,,,,0,14,14,14,1,,,,,,,,,,,,,,,,,,,,,,,,,,,,,,,,,,,,
,,,,,,,,,,,,,,,,,,,,,,,,20,male,2020-11-19_14h24.22.434,torte-2b,2020.1.3,Win32,60,13391,,,,,,,,,,,,space,,,,,,1,0.3458,,,,,,0,15,15,15,1,,,,,,,,,,,,,,,,,,,,,,,,,,,,,,,,,,,,
,,,,,,,,,,,,,,,,,,,,,,,,20,male,2020-11-19_14h24.22.434,torte-2b,2020.1.3,Win32,60,13391,,,,,,,,,,,,,,,,,,7,,,,,,,0,16,16,16,1,,,,,,,,,,,,,,,,,,,,,,,,,,,,,,,,,,,,
,,,,,,,,,,,,,,,,,,,,,,,,20,male,2020-11-19_14h24.22.434,torte-2b,2020.1.3,Win32,60,13391,,,,,,,,,,,,space,,,,,,7,0.952575,,,,,,0,17,17,17,1,,,,,,,,,,,,,,,,,,,,,,,,,,,,,,,,,,,,
,,,,,,,,,,,,,,,,,,,,,,,,20,male,2020-11-19_14h24.22.434,torte-2b,2020.1.3,Win32,60,13391,,,,,,,,,,,,,,,,,,4,,,,,,,0,18,18,18,1,,,,,,,,,,,,,,,,,,,,,,,,,,,,,,,,,,,,
,,,,,,,,,,,,,,,,,,,,,,,,20,male,2020-11-19_14h24.22.434,torte-2b,2020.1.3,Win32,60,13391,,,,,,,,,,,,space,,,,,,7,0.445265,,,,,,0,19,19,19,1,,,,,,,,,,,,,,,,,,,,,,,,,,,,,,,,,,,,
,,,,,,,,,,,,,,,,,,,,,,,,20,male,2020-11-19_14h24.22.434,torte-2b,2020.1.3,Win32,60,13391,,,,,,,,,,,,,,,,,,3,,,,,,,0,20,20,20,1,,,,,,,,,,,,,,,,,,,,,,,,,,,,,,,,,,,,
,,,,,,,,,,,,,,,,,,,,,,,,20,male,2020-11-19_14h24.22.434,torte-2b,2020.1.3,Win32,60,13391,,,,,,,,,,,,space,,,,,,7,0.87793,,,,,,0,21,21,21,1,,,,,,,,,,,,,,,,,,,,,,,,,,,,,,,,,,,,
,,,,,,,,,,,,,,,,,,,,,,,,20,male,2020-11-19_14h24.22.434,torte-2b,2020.1.3,Win32,60,13391,,,,,,,,,,,,space,,,,,,3,0.703535,,,,,,0,22,22,22,1,,,,,,,,,,,,,,,,,,,,,,,,,,,,,,,,,,,,
,,,,,,,,,,,,,,,,,,,,,,,,20,male,2020-11-19_14h24.22.434,torte-2b,2020.1.3,Win32,60,13391,,,,,,,,,,,,,,,,,,1,,,,,,,0,23,23,23,1,,,,,,,,,,,,,,,,,,,,,,,,,,,,,,,,,,,,
,,,,,,,,,,,,,,,,,,,,,,,,20,male,2020-11-19_14h24.22.434,torte-2b,2020.1.3,Win32,60,13391,,,,,,,,,,,,,,,,,,6,,,,,,,0,24,24,24,1,,,,,,,,,,,,,,,,,,,,,,,,,,,,,,,,,,,,
,,,,,,,,,,,,,,,,,,,,,,,,20,male,2020-11-19_14h24.22.434,torte-2b,2020.1.3,Win32,60,13391,,,,,,,,,,,,,,,,,,3,,,,,,,0,25,25,25,1,,,,,,,,,,,,,,,,,,,,,,,,,,,,,,,,,,,,
,,,,,,,,,,,,,,,,,,,,,,,,20,male,2020-11-19_14h24.22.434,torte-2b,2020.1.3,Win32,60,13391,,,,,,,,,,,,,,,,,,2,,,,,,,0,26,26,26,1,,,,,,,,,,,,,,,,,,,,,,,,,,,,,,,,,,,,
,,,,,,,,,,,,,,,,,,,,,,,,20,male,2020-11-19_14h24.22.434,torte-2b,2020.1.3,Win32,60,13391,,,,,,,,,,,,space,,,,,,3,1.52863,,,,,,0,27,27,27,1,,,,,,,,,,,,,,,,,,,,,,,,,,,,,,,,,,,,
,,,,,,,,,,,,,,,,,,,,,,,,20,male,2020-11-19_14h24.22.434,torte-2b,2020.1.3,Win32,60,13391,,,,,,,,,,,,,,,,,,1,,,,,,,0,28,28,28,1,,,,,,,,,,,,,,,,,,,,,,,,,,,,,,,,,,,,
,,,,,,,,,,,,,,,,,,,,,,,,20,male,2020-11-19_14h24.22.434,torte-2b,2020.1.3,Win32,60,13391,,,,,,,,,,,,space,,,,,,3,0.484825,,,,,,0,29,29,29,1,,,,,,,,,,,,,,,,,,,,,,,,,,,,,,,,,,,,
,,,,,,,,,,,,,,,,,,,,,,,,20,male,2020-11-19_14h24.22.434,torte-2b,2020.1.3,Win32,60,13391,,,,,,,,,,,,space,,,,,,1,0.60413,,,,,,0,30,30,30,1,,,,,,,,,,,,,,,,,,,,,,,,,,,,,,,,,,,,
,,,,,,,,,,,,,,,,,,,,,,,,20,male,2020-11-19_14h24.22.434,torte-2b,2020.1.3,Win32,60,13391,,,,,,,,,,,,space,,,,,,7,0.37841,,,,,,0,31,31,31,1,,,,,,,,,,,,,,,,,,,,,,,,,,,,,,,,,,,,
,,,,,,,,,,,,,,,,,,,,,,,,20,male,2020-11-19_14h24.22.434,torte-2b,2020.1.3,Win32,60,13391,,,,,,,,,,,,,,,,,,5,,,,,,,0,32,32,32,1,,,,,,,,,,,,,,,,,,,,,,,,,,,,,,,,,,,,
,,,,,,,,,,,,,,,,,,,,,,,,20,male,2020-11-19_14h24.22.434,torte-2b,2020.1.3,Win32,60,13391,,,,,,,,,,,,space,,,,,,7,0.69911,,,,,,0,33,33,33,1,,,,,,,,,,,,,,,,,,,,,,,,,,,,,,,,,,,,
,,,,,,,,,,,,,,,,,,,,,,,,20,male,2020-11-19_14h24.22.434,torte-2b,2020.1.3,Win32,60,13391,,,,,,,,,,,,,,,,,,2,,,,,,,0,34,34,34,1,,,,,,,,,,,,,,,,,,,,,,,,,,,,,,,,,,,,
,,,,,,,,,,,,,,,,,,,,,,,,20,male,2020-11-19_14h24.22.434,torte-2b,2020.1.3,Win32,60,13391,,,,,,,,,,,,,,,,,,3,,,,,,,,,,,,0,0,0,0,1,,,,,,,,,,,,,,,,,,,,,,,,,,,,,,,
,,,,,,,,,,,,,,,,,,,,,,,,20,male,2020-11-19_14h24.22.434,torte-2b,2020.1.3,Win32,60,13391,,,,,,,,,,,,,,,,,,7,,,,,,,,,,,,0,1,1,1,1,,,,,,,,,,,,,,,,,,,,,,,,,,,,,,,
,,,,,,,,,,,,,,,,,,,,,,,,20,male,2020-11-19_14h24.22.434,torte-2b,2020.1.3,Win32,60,13391,,,,,,,,,,,,,,,,,,7,,,,,,,,,,,,0,2,2,2,1,,,,,,,,,,,,,,,,,,,,,,,,,,,,,,,
,,,,,,,,,,,,,,,,,,,,,,,,20,male,2020-11-19_14h24.22.434,torte-2b,2020.1.3,Win32,60,13391,,,,,,,,,,,,,,,,,,4,,,,,,,,,,,,0,3,3,3,1,,,,,,,,,,,,,,,,,,,,,,,,,,,,,,,
,,,,,,,,,,,,,,,,,,,,,,,,20,male,2020-11-19_14h24.22.434,torte-2b,2020.1.3,Win32,60,13391,,,,,,,,,,,,,,,,,,5,,,,,,,,,,,,0,4,4,4,1,,,,,,,,,,,,,,,,,,,,,,,,,,,,,,,
,,,,,,,,,,,,,,,,,,,,,,,,20,male,2020-11-19_14h24.22.434,torte-2b,2020.1.3,Win32,60,13391,,,,,,,,,,,,space,,,,,,4,0.588175,,,,,,,,,,,0,5,5,5,1,,,,,,,,,,,,,,,,,,,,,,,,,,,,,,,
,,,,,,,,,,,,,,,,,,,,,,,,20,male,2020-11-19_14h24.22.434,torte-2b,2020.1.3,Win32,60,13391,,,,,,,,,,,,,,,,,,2,,,,,,,,,,,,0,6,6,6,1,,,,,,,,,,,,,,,,,,,,,,,,,,,,,,,
,,,,,,,,,,,,,,,,,,,,,,,,20,male,2020-11-19_14h24.22.434,torte-2b,2020.1.3,Win32,60,13391,,,,,,,,,,,,space,,,,,,4,0.4666,,,,,,,,,,,0,7,7,7,1,,,,,,,,,,,,,,,,,,,,,,,,,,,,,,,
,,,,,,,,,,,,,,,,,,,,,,,,20,male,2020-11-19_14h24.22.434,torte-2b,2020.1.3,Win32,60,13391,,,,,,,,,,,,space,,,,,,2,0.583185,,,,,,,,,,,0,8,8,8,1,,,,,,,,,,,,,,,,,,,,,,,,,,,,,,,
,,,,,,,,,,,,,,,,,,,,,,,,20,male,2020-11-19_14h24.22.434,torte-2b,2020.1.3,Win32,60,13391,,,,,,,,,,,,space,,,,,,2,0.462345,,,,,,,,,,,0,9,9,9,1,,,,,,,,,,,,,,,,,,,,,,,,,,,,,,,
,,,,,,,,,,,,,,,,,,,,,,,,20,male,2020-11-19_14h24.22.434,torte-2b,2020.1.3,Win32,60,13391,,,,,,,,,,,,,,,,,,6,,,,,,,,,,,,0,10,10,10,1,,,,,,,,,,,,,,,,,,,,,,,,,,,,,,,
,,,,,,,,,,,,,,,,,,,,,,,,20,male,2020-11-19_14h24.22.434,torte-2b,2020.1.3,Win32,60,13391,,,,,,,,,,,,space,,,,,,2,1.13046,,,,,,,,,,,0,11,11,11,1,,,,,,,,,,,,,,,,,,,,,,,,,,,,,,,
,,,,,,,,,,,,,,,,,,,,,,,,20,male,2020-11-19_14h24.22.434,torte-2b,2020.1.3,Win32,60,13391,,,,,,,,,,,,,,,,,,2,,,,,,,,,,,,0,12,12,12,1,,,,,,,,,,,,,,,,,,,,,,,,,,,,,,,
,,,,,,,,,,,,,,,,,,,,,,,,20,male,2020-11-19_14h24.22.434,torte-2b,2020.1.3,Win32,60,13391,,,,,,,,,,,,space,,,,,,2,0.31993,,,,,,,,,,,0,13,13,13,1,,,,,,,,,,,,,,,,,,,,,,,,,,,,,,,
,,,,,,,,,,,,,,,,,,,,,,,,20,male,2020-11-19_14h24.22.434,torte-2b,2020.1.3,Win32,60,13391,,,,,,,,,,,,space,,,,,,2,0.36276,,,,,,,,,,,0,14,14,14,1,,,,,,,,,,,,,,,,,,,,,,,,,,,,,,,
,,,,,,,,,,,,,,,,,,,,,,,,20,male,2020-11-19_14h24.22.434,torte-2b,2020.1.3,Win32,60,13391,,,,,,,,,,,,,,,,,,4,,,,,,,,,,,,0,15,15,15,1,,,,,,,,,,,,,,,,,,,,,,,,,,,,,,,
,,,,,,,,,,,,,,,,,,,,,,,,20,male,2020-11-19_14h24.22.434,torte-2b,2020.1.3,Win32,60,13391,,,,,,,,,,,,,,,,,,3,,,,,,,,,,,,0,16,16,16,1,,,,,,,,,,,,,,,,,,,,,,,,,,,,,,,
,,,,,,,,,,,,,,,,,,,,,,,,20,male,2020-11-19_14h24.22.434,torte-2b,2020.1.3,Win32,60,13391,,,,,,,,,,,,,,,,,,7,,,,,,,,,,,,0,17,17,17,1,,,,,,,,,,,,,,,,,,,,,,,,,,,,,,,
,,,,,,,,,,,,,,,,,,,,,,,,20,male,2020-11-19_14h24.22.434,torte-2b,2020.1.3,Win32,60,13391,,,,,,,,,,,,,,,,,,4,,,,,,,,,,,,0,18,18,18,1,,,,,,,,,,,,,,,,,,,,,,,,,,,,,,,
,,,,,,,,,,,,,,,,,,,,,,,,20,male,2020-11-19_14h24.22.434,torte-2b,2020.1.3,Win32,60,13391,,,,,,,,,,,,space,,,,,,7,0.604,,,,,,,,,,,0,19,19,19,1,,,,,,,,,,,,,,,,,,,,,,,,,,,,,,,
,,,,,,,,,,,,,,,,,,,,,,,,20,male,2020-11-19_14h24.22.434,torte-2b,2020.1.3,Win32,60,13391,,,,,,,,,,,,,,,,,,7,,,,,,,,,,,,0,20,20,20,1,,,,,,,,,,,,,,,,,,,,,,,,,,,,,,,
,,,,,,,,,,,,,,,,,,,,,,,,20,male,2020-11-19_14h24.22.434,torte-2b,2020.1.3,Win32,60,13391,,,,,,,,,,,,space,,,,,,7,0.363235,,,,,,,,,,,0,21,21,21,1,,,,,,,,,,,,,,,,,,,,,,,,,,,,,,,
,,,,,,,,,,,,,,,,,,,,,,,,20,male,2020-11-19_14h24.22.434,torte-2b,2020.1.3,Win32,60,13391,,,,,,,,,,,,space,,,,,,7,0.41221,,,,,,,,,,,0,22,22,22,1,,,,,,,,,,,,,,,,,,,,,,,,,,,,,,,
,,,,,,,,,,,,,,,,,,,,,,,,20,male,2020-11-19_14h24.22.434,torte-2b,2020.1.3,Win32,60,13391,,,,,,,,,,,,,,,,,,1,,,,,,,,,,,,0,23,23,23,1,,,,,,,,,,,,,,,,,,,,,,,,,,,,,,,
,,,,,,,,,,,,,,,,,,,,,,,,20,male,2020-11-19_14h24.22.434,torte-2b,2020.1.3,Win32,60,13391,,,,,,,,,,,,space,,,,,,7,0.51734,,,,,,,,,,,0,24,24,24,1,,,,,,,,,,,,,,,,,,,,,,,,,,,,,,,
,,,,,,,,,,,,,,,,,,,,,,,,20,male,2020-11-19_14h24.22.434,torte-2b,2020.1.3,Win32,60,13391,,,,,,,,,,,,space,,,,,,1,0.495395,,,,,,,,,,,0,25,25,25,1,,,,,,,,,,,,,,,,,,,,,,,,,,,,,,,
,,,,,,,,,,,,,,,,,,,,,,,,20,male,2020-11-19_14h24.22.434,torte-2b,2020.1.3,Win32,60,13391,,,,,,,,,,,,space,,,,,,7,0.41397,,,,,,,,,,,0,26,26,26,1,,,,,,,,,,,,,,,,,,,,,,,,,,,,,,,
,,,,,,,,,,,,,,,,,,,,,,,,20,male,2020-11-19_14h24.22.434,torte-2b,2020.1.3,Win32,60,13391,,,,,,,,,,,,,,,,,,2,,,,,,,,,,,,0,27,27,27,1,,,,,,,,,,,,,,,,,,,,,,,,,,,,,,,
,,,,,,,,,,,,,,,,,,,,,,,,20,male,2020-11-19_14h24.22.434,torte-2b,2020.1.3,Win32,60,13391,,,,,,,,,,,,,,,,,,5,,,,,,,,,,,,0,28,28,28,1,,,,,,,,,,,,,,,,,,,,,,,,,,,,,,,
,,,,,,,,,,,,,,,,,,,,,,,,20,male,2020-11-19_14h24.22.434,torte-2b,2020.1.3,Win32,60,13391,,,,,,,,,,,,space,,,,,,5,0.59445,,,,,,,,,,,0,29,29,29,1,,,,,,,,,,,,,,,,,,,,,,,,,,,,,,,
,,,,,,,,,,,,,,,,,,,,,,,,20,male,2020-11-19_14h24.22.434,torte-2b,2020.1.3,Win32,60,13391,,,,,,,,,,,,space,,,,,,5,0.344845,,,,,,,,,,,0,30,30,30,1,,,,,,,,,,,,,,,,,,,,,,,,,,,,,,,
,,,,,,,,,,,,,,,,,,,,,,,,20,male,2020-11-19_14h24.22.434,torte-2b,2020.1.3,Win32,60,13391,,,,,,,,,,,,,,,,,,1,,,,,,,,,,,,0,31,31,31,1,,,,,,,,,,,,,,,,,,,,,,,,,,,,,,,
,,,,,,,,,,,,,,,,,,,,,,,,20,male,2020-11-19_14h24.22.434,torte-2b,2020.1.3,Win32,60,13391,,,,,,,,,,,,space,,,,,,5,0.34938,,,,,,,,,,,0,32,32,32,1,,,,,,,,,,,,,,,,,,,,,,,,,,,,,,,
,,,,,,,,,,,,,,,,,,,,,,,,20,male,2020-11-19_14h24.22.434,torte-2b,2020.1.3,Win32,60,13391,,,,,,,,,,,,,,,,,,3,,,,,,,,,,,,0,33,33,33,1,,,,,,,,,,,,,,,,,,,,,,,,,,,,,,,
,,,,,,,,,,,,,,,,,,,,,,,,20,male,2020-11-19_14h24.22.434,torte-2b,2020.1.3,Win32,60,13391,,,,,,,,,,,,,,,,,,3,,,,,,,,,,,,0,34,34,34,1,,,,,,,,,,,,,,,,,,,,,,,,,,,,,,,
,,,,,,,,,,,,,,Too slow :(,,,,,,t3.png,t2.png,1,0.90855,20,male,2020-11-19_14h24.22.434,torte-2b,2020.1.3,Win32,60,13391,space,1.75739,,,,,,,,,,,,,,,,,,,,,,,,,,,,,,,,,space,23.635645,0,0,0,18,1,,,,,,,,,,,,,,,,,,,,,,,,
,,,,,,,,,,,,a,1.51564,Correct!,,,,,,t1.png,t1.png,0,0.978,20,male,2020-11-19_14h24.22.434,torte-2b,2020.1.3,Win32,60,13391,,,,,,,,,,,,,,,,,,,,,,,,,,,,,,,,,,,,,0,1,1,28,1,,,,,,,,,,,,,,,,,,,,,,,,
,,,,,,,,,,,,a,1.124165,Correct!,,,,,,t4.png,t4.png,0,0.98115,20,male,2020-11-19_14h24.22.434,torte-2b,2020.1.3,Win32,60,13391,,,,,,,,,,,,,,,,,,,,,,,,,,,,,,,,,,,,,0,2,2,52,1,,,,,,,,,,,,,,,,,,,,,,,,
,,,,,,,,,,,,a,0.819575,Incorrect,,,,,,t5.png,t3.png,2,0.056466,20,male,2020-11-19_14h24.22.434,torte-2b,2020.1.3,Win32,60,13391,,,,,,,,,,,,,,,,,,,,,,,,,,,,,,,,,,,,,0,3,3,56,1,,,,,,,,,,,,,,,,,,,,,,,,
,,,,,,,,,,,,a,0.6722,Incorrect,,,,,,t5.png,t1.png,4,9.55E-11,20,male,2020-11-19_14h24.22.434,torte-2b,2020.1.3,Win32,60,13391,,,,,,,,,,,,,,,,,,,,,,,,,,,,,,,,,,,,,0,4,4,71,1,,,,,,,,,,,,,,,,,,,,,,,,
,,,,,,,,,,,,a,0.776725,Correct!,,,,,,t2.png,t1.png,1,0.9,20,male,2020-11-19_14h24.22.434,torte-2b,2020.1.3,Win32,60,13391,,,,,,,,,,,,,,,,,,,,,,,,,,,,,,,,,,,,,0,5,5,118,1,,,,,,,,,,,,,,,,,,,,,,,,
,,,,,,,,,,,,l,0.419675,Correct!,,,,,,t1.png,t3.png,2,0.056466,20,male,2020-11-19_14h24.22.434,torte-2b,2020.1.3,Win32,60,13391,,,,,,,,,,,,,,,,,,,,,,,,,,,,,,,,,,,,,0,6,6,60,1,,,,,,,,,,,,,,,,,,,,,,,,
,,,,,,,,,,,,a,0.40297,Correct!,,,,,,t4.png,t5.png,1,0.90025,20,male,2020-11-19_14h24.22.434,torte-2b,2020.1.3,Win32,60,13391,,,,,,,,,,,,,,,,,,,,,,,,,,,,,,,,,,,,,0,7,7,113,1,,,,,,,,,,,,,,,,,,,,,,,,
,,,,,,,,,,,,l,0.25755,Incorrect,,,,,,t4.png,t5.png,1,0.90025,20,male,2020-11-19_14h24.22.434,torte-2b,2020.1.3,Win32,60,13391,,,,,,,,,,,,,,,,,,,,,,,,,,,,,,,,,,,,,0,8,8,58,1,,,,,,,,,,,,,,,,,,,,,,,,
,,,,,,,,,,,,a,0.170405,Correct!,,,,,,t4.png,t3.png,1,0.909,20,male,2020-11-19_14h24.22.434,torte-2b,2020.1.3,Win32,60,13391,,,,,,,,,,,,,,,,,,,,,,,,,,,,,,,,,,,,,0,9,9,46,1,,,,,,,,,,,,,,,,,,,,,,,,
,,,,,,,,,,,,l,0.112825,Incorrect,,,,,,t2.png,t2.png,0,0.981,20,male,2020-11-19_14h24.22.434,torte-2b,2020.1.3,Win32,60,13391,,,,,,,,,,,,,,,,,,,,,,,,,,,,,,,,,,,,,0,10,10,101,1,,,,,,,,,,,,,,,,,,,,,,,,
,,,,,,,,,,,,a,0.089385,Correct!,,,,,,t1.png,t2.png,1,0.9,20,male,2020-11-19_14h24.22.434,torte-2b,2020.1.3,Win32,60,13391,,,,,,,,,,,,,,,,,,,,,,,,,,,,,,,,,,,,,0,11,11,1,1,,,,,,,,,,,,,,,,,,,,,,,,
,,,,,,,,,,,,l,0.077455,Correct!,,,,,,t2.png,t4.png,2,0.059078,20,male,2020-11-19_14h24.22.434,torte-2b,2020.1.3,Win32,60,13391,,,,,,,,,,,,,,,,,,,,,,,,,,,,,,,,,,,,,0,12,12,77,1,,,,,,,,,,,,,,,,,,,,,,,,
,,,,,,,,,,,,l,0.213355,Correct!,,,,,,t3.png,t5.png,2,0.056466,20,male,2020-11-19_14h24.22.434,torte-2b,2020.1.3,Win32,60,13391,,,,,,,,,,,,,,,,,,,,,,,,,,,,,,,,,,,,,0,13,13,44,1,,,,,,,,,,,,,,,,,,,,,,,,
,,,,,,,,,,,,a,0.209005,Correct!,,,,,,t1.png,t2.png,1,0.90025,20,male,2020-11-19_14h24.22.434,torte-2b,2020.1.3,Win32,60,13391,,,,,,,,,,,,,,,,,,,,,,,,,,,,,,,,,,,,,0,14,14,105,1,,,,,,,,,,,,,,,,,,,,,,,,
,,,,,,,,,,,,l,0.23688,Incorrect,,,,,,t3.png,t4.png,1,0.90855,20,male,2020-11-19_14h24.22.434,torte-2b,2020.1.3,Win32,60,13391,,,,,,,,,,,,,,,,,,,,,,,,,,,,,,,,,,,,,0,15,15,96,1,,,,,,,,,,,,,,,,,,,,,,,,
,,,,,,,,,,,,a,0.292695,Correct!,,,,,,t4.png,t4.png,0,0.98115,20,male,2020-11-19_14h24.22.434,torte-2b,2020.1.3,Win32,60,13391,,,,,,,,,,,,,,,,,,,,,,,,,,,,,,,,,,,,,0,16,16,90,1,,,,,,,,,,,,,,,,,,,,,,,,
,,,,,,,,,,,,l,0.27714,Correct!,,,,,,t5.png,t2.png,3,0.0000131,20,male,2020-11-19_14h24.22.434,torte-2b,2020.1.3,Win32,60,13391,,,,,,,,,,,,,,,,,,,,,,,,,,,,,,,,,,,,,0,17,17,119,1,,,,,,,,,,,,,,,,,,,,,,,,
,,,,,,,,,,,,l,0.35303,Correct!,,,,,,t2.png,t5.png,3,0.0000131,20,male,2020-11-19_14h24.22.434,torte-2b,2020.1.3,Win32,60,13391,,,,,,,,,,,,,,,,,,,,,,,,,,,,,,,,,,,,,0,18,18,8,1,,,,,,,,,,,,,,,,,,,,,,,,
,,,,,,,,,,,,a,1.07187,Incorrect,,,,,,t5.png,t1.png,4,9.55E-11,20,male,2020-11-19_14h24.22.434,torte-2b,2020.1.3,Win32,60,13391,,,,,,,,,,,,,,,,,,,,,,,,,,,,,,,,,,,,,0,19,19,100,1,,,,,,,,,,,,,,,,,,,,,,,,
,,,,,,,,,,,,l,0.85113,Correct!,,,,,,t2.png,t5.png,3,0.0000131,20,male,2020-11-19_14h24.22.434,torte-2b,2020.1.3,Win32,60,13391,,,,,,,,,,,,,,,,,,,,,,,,,,,,,,,,,,,,,0,20,20,66,1,,,,,,,,,,,,,,,,,,,,,,,,
,,,,,,,,,,,,a,0.501695,Incorrect,,,,,,t5.png,t2.png,3,0.0000131,20,male,2020-11-19_14h24.22.434,torte-2b,2020.1.3,Win32,60,13391,,,,,,,,,,,,,,,,,,,,,,,,,,,,,,,,,,,,,0,21,21,116,1,,,,,,,,,,,,,,,,,,,,,,,,
,,,,,,,,,,,,a,1.301955,Incorrect,,,,,,t4.png,t2.png,2,0.0591,20,male,2020-11-19_14h24.22.434,torte-2b,2020.1.3,Win32,60,13391,,,,,,,,,,,,,,,,,,,,,,,,,,,,,,,,,,,,,0,22,22,36,1,,,,,,,,,,,,,,,,,,,,,,,,
,,,,,,,,,,,,l,0.38771,Correct!,,,,,,t1.png,t5.png,4,9.55E-11,20,male,2020-11-19_14h24.22.434,torte-2b,2020.1.3,Win32,60,13391,,,,,,,,,,,,,,,,,,,,,,,,,,,,,,,,,,,,,0,23,23,85,1,,,,,,,,,,,,,,,,,,,,,,,,
,,,,,,,,,,,,l,0.45302,Incorrect,,,,,,t2.png,t4.png,2,0.059078,20,male,2020-11-19_14h24.22.434,torte-2b,2020.1.3,Win32,60,13391,,,,,,,,,,,,,,,,,,,,,,,,,,,,,,,,,,,,,0,24,24,37,1,,,,,,,,,,,,,,,,,,,,,,,,
,,,,,,,,,,,,a,1.48679,Correct!,,,,,,t5.png,t4.png,1,0.90025,20,male,2020-11-19_14h24.22.434,torte-2b,2020.1.3,Win32,60,13391,,,,,,,,,,,,,,,,,,,,,,,,,,,,,,,,,,,,,0,25,25,26,1,,,,,,,,,,,,,,,,,,,,,,,,
,,,,,,,,,,,,a,0.535915,Incorrect,,,,,,t4.png,t1.png,3,0.0000131,20,male,2020-11-19_14h24.22.434,torte-2b,2020.1.3,Win32,60,13391,,,,,,,,,,,,,,,,,,,,,,,,,,,,,,,,,,,,,0,26,26,13,1,,,,,,,,,,,,,,,,,,,,,,,,
,,,,,,,,,,,,a,0.35227,Correct!,,,,,,t2.png,t2.png,0,0.98115,20,male,2020-11-19_14h24.22.434,torte-2b,2020.1.3,Win32,60,13391,,,,,,,,,,,,,,,,,,,,,,,,,,,,,,,,,,,,,0,27,27,57,1,,,,,,,,,,,,,,,,,,,,,,,,
,,,,,,,,,,,,a,0.368405,Correct!,,,,,,t5.png,t5.png,0,0.978,20,male,2020-11-19_14h24.22.434,torte-2b,2020.1.3,Win32,60,13391,,,,,,,,,,,,,,,,,,,,,,,,,,,,,,,,,,,,,0,28,28,117,1,,,,,,,,,,,,,,,,,,,,,,,,
,,,,,,,,,,,,l,0.318845,Incorrect,,,,,,t2.png,t2.png,0,0.98115,20,male,2020-11-19_14h24.22.434,torte-2b,2020.1.3,Win32,60,13391,,,,,,,,,,,,,,,,,,,,,,,,,,,,,,,,,,,,,0,29,29,7,1,,,,,,,,,,,,,,,,,,,,,,,,
,,,,,,,,,,,,l,0.38335,Correct!,,,,,,t1.png,t2.png,1,0.90025,20,male,2020-11-19_14h24.22.434,torte-2b,2020.1.3,Win32,60,13391,,,,,,,,,,,,,,,,,,,,,,,,,,,,,,,,,,,,,0,30,30,33,1,,,,,,,,,,,,,,,,,,,,,,,,
,,,,,,,,,,,,a,0.288855,Incorrect,,,,,,t1.png,t5.png,4,9.55E-11,20,male,2020-11-19_14h24.22.434,torte-2b,2020.1.3,Win32,60,13391,,,,,,,,,,,,,,,,,,,,,,,,,,,,,,,,,,,,,0,31,31,12,1,,,,,,,,,,,,,,,,,,,,,,,,
,,,,,,,,,,,,a,0.13844,Correct!,,,,,,t4.png,t4.png,0,0.98115,20,male,2020-11-19_14h24.22.434,torte-2b,2020.1.3,Win32,60,13391,,,,,,,,,,,,,,,,,,,,,,,,,,,,,,,,,,,,,0,32,32,80,1,,,,,,,,,,,,,,,,,,,,,,,,
,,,,,,,,,,,,l,0.18851,Incorrect,,,,,,t3.png,t4.png,1,0.909,20,male,2020-11-19_14h24.22.434,torte-2b,2020.1.3,Win32,60,13391,,,,,,,,,,,,,,,,,,,,,,,,,,,,,,,,,,,,,0,33,33,106,1,,,,,,,,,,,,,,,,,,,,,,,,
,,,,,,,,,,,,a,0.35821,Correct!,,,,,,t2.png,t1.png,1,0.90025,20,male,2020-11-19_14h24.22.434,torte-2b,2020.1.3,Win32,60,13391,,,,,,,,,,,,,,,,,,,,,,,,,,,,,,,,,,,,,0,34,34,5,1,,,,,,,,,,,,,,,,,,,,,,,,
,,,,,,,,,,,,a,0.260295,Correct!,,,,,,t4.png,t3.png,1,0.909,20,male,2020-11-19_14h24.22.434,torte-2b,2020.1.3,Win32,60,13391,,,,,,,,,,,,,,,,,,,,,,,,,,,,,,,,,,,,,0,35,35,20,1,,,,,,,,,,,,,,,,,,,,,,,,
,,,,,,,,,,,,a,1.036905,Correct!,,,,,,t1.png,t1.png,0,0.97829,20,male,2020-11-19_14h24.22.434,torte-2b,2020.1.3,Win32,60,13391,,,,,,,,,,,,,,,,,,,,,,,,,,,,,,,,,,,,,0,36,36,78,1,,,,,,,,,,,,,,,,,,,,,,,,
,,,,,,,,,,,,a,0.33481,Correct!,,,,,,t4.png,t4.png,0,0.98115,20,male,2020-11-19_14h24.22.434,torte-2b,2020.1.3,Win32,60,13391,,,,,,,,,,,,,,,,,,,,,,,,,,,,,,,,,,,,,0,37,37,21,1,,,,,,,,,,,,,,,,,,,,,,,,
,,,,,,,,,,,,a,0.21694,Correct!,,,,,,t2.png,t3.png,1,0.90855,20,male,2020-11-19_14h24.22.434,torte-2b,2020.1.3,Win32,60,13391,,,,,,,,,,,,,,,,,,,,,,,,,,,,,,,,,,,,,0,38,38,111,1,,,,,,,,,,,,,,,,,,,,,,,,
,,,,,,,,,,,,l,0.086075,Correct!,,,,,,t3.png,t1.png,2,0.056466,20,male,2020-11-19_14h24.22.434,torte-2b,2020.1.3,Win32,60,13391,,,,,,,,,,,,,,,,,,,,,,,,,,,,,,,,,,,,,0,39,39,29,1,,,,,,,,,,,,,,,,,,,,,,,,
,,,,,,,,,,,,l,0.23647,Correct!,,,,,,t3.png,t5.png,2,0.056466,20,male,2020-11-19_14h24.22.434,torte-2b,2020.1.3,Win32,60,13391,,,,,,,,,,,,,,,,,,,,,,,,,,,,,,,,,,,,,0,40,40,14,1,,,,,,,,,,,,,,,,,,,,,,,,
,,,,,,,,,,,,a,0.23771,Correct!,,,,,,t3.png,t2.png,1,0.90855,20,male,2020-11-19_14h24.22.434,torte-2b,2020.1.3,Win32,60,13391,,,,,,,,,,,,,,,,,,,,,,,,,,,,,,,,,,,,,0,41,41,53,1,,,,,,,,,,,,,,,,,,,,,,,,
,,,,,,,,,,,,l,0.152855,Incorrect,,,,,,t5.png,t4.png,1,0.9,20,male,2020-11-19_14h24.22.434,torte-2b,2020.1.3,Win32,60,13391,,,,,,,,,,,,,,,,,,,,,,,,,,,,,,,,,,,,,0,42,42,49,1,,,,,,,,,,,,,,,,,,,,,,,,
,,,,,,,,,,,,a,0.074925,Correct!,,,,,,t4.png,t3.png,1,0.90855,20,male,2020-11-19_14h24.22.434,torte-2b,2020.1.3,Win32,60,13391,,,,,,,,,,,,,,,,,,,,,,,,,,,,,,,,,,,,,0,43,43,35,1,,,,,,,,,,,,,,,,,,,,,,,,
,,,,,,,,,,,,a,0.323065,Incorrect,,,,,,t2.png,t4.png,2,0.0591,20,male,2020-11-19_14h24.22.434,torte-2b,2020.1.3,Win32,60,13391,,,,,,,,,,,,,,,,,,,,,,,,,,,,,,,,,,,,,0,44,44,15,1,,,,,,,,,,,,,,,,,,,,,,,,
,,,,,,,,,,,,a,0.307345,Incorrect,,,,,,t3.png,t5.png,2,0.056466,20,male,2020-11-19_14h24.22.434,torte-2b,2020.1.3,Win32,60,13391,,,,,,,,,,,,,,,,,,,,,,,,,,,,,,,,,,,,,0,45,45,6,1,,,,,,,,,,,,,,,,,,,,,,,,
,,,,,,,,,,,,l,0.12808,Correct!,,,,,,t2.png,t2.png,0,0.98115,20,male,2020-11-19_14h24.22.434,torte-2b,2020.1.3,Win32,60,13391,,,,,,,,,,,,,,,,,,,,,,,,,,,,,,,,,,,,,0,46,46,59,1,,,,,,,,,,,,,,,,,,,,,,,,
,,,,,,,,,,,,l,0.186175,Correct!,,,,,,t5.png,t1.png,4,9.55E-11,20,male,2020-11-19_14h24.22.434,torte-2b,2020.1.3,Win32,60,13391,,,,,,,,,,,,,,,,,,,,,,,,,,,,,,,,,,,,,0,47,47,22,1,,,,,,,,,,,,,,,,,,,,,,,,
,,,,,,,,,,,,a,0.25171,Incorrect,,,,,,t1.png,t4.png,3,0.0000131,20,male,2020-11-19_14h24.22.434,torte-2b,2020.1.3,Win32,60,13391,,,,,,,,,,,,,,,,,,,,,,,,,,,,,,,,,,,,,0,48,48,81,1,,,,,,,,,,,,,,,,,,,,,,,,
,,,,,,,,,,,,l,0.08875,Incorrect,,,,,,t4.png,t3.png,1,0.90855,20,male,2020-11-19_14h24.22.434,torte-2b,2020.1.3,Win32,60,13391,,,,,,,,,,,,,,,,,,,,,,,,,,,,,,,,,,,,,0,49,49,45,1,,,,,,,,,,,,,,,,,,,,,,,,
,,,,,,,,,,,,a,0.001645,Correct!,,,,,,t2.png,t1.png,1,0.90025,20,male,2020-11-19_14h24.22.434,torte-2b,2020.1.3,Win32,60,13391,,,,,,,,,,,,,,,,,,,,,,,,,,,,,,,,,,,,,0,50,50,19,1,,,,,,,,,,,,,,,,,,,,,,,,
,,,,,,,,,,,,a,0.054635,Correct!,,,,,,t1.png,t1.png,0,0.97829,20,male,2020-11-19_14h24.22.434,torte-2b,2020.1.3,Win32,60,13391,,,,,,,,,,,,,,,,,,,,,,,,,,,,,,,,,,,,,0,51,51,67,1,,,,,,,,,,,,,,,,,,,,,,,,
,,,,,,,,,,,,a,0.252045,Incorrect,,,,,,t4.png,t5.png,1,0.90025,20,male,2020-11-19_14h24.22.434,torte-2b,2020.1.3,Win32,60,13391,,,,,,,,,,,,,,,,,,,,,,,,,,,,,,,,,,,,,0,52,52,47,1,,,,,,,,,,,,,,,,,,,,,,,,
,,,,,,,,,,,,a,0.48669,Correct!,,,,,,t3.png,t4.png,1,0.909,20,male,2020-11-19_14h24.22.434,torte-2b,2020.1.3,Win32,60,13391,,,,,,,,,,,,,,,,,,,,,,,,,,,,,,,,,,,,,0,53,53,89,1,,,,,,,,,,,,,,,,,,,,,,,,
,,,,,,,,,,,,l,0.27281,Correct!,,,,,,t5.png,t3.png,2,0.056466,20,male,2020-11-19_14h24.22.434,torte-2b,2020.1.3,Win32,60,13391,,,,,,,,,,,,,,,,,,,,,,,,,,,,,,,,,,,,,0,54,54,108,1,,,,,,,,,,,,,,,,,,,,,,,,
,,,,,,,,,,,,a,0.235075,Correct!,,,,,,t4.png,t5.png,1,0.9,20,male,2020-11-19_14h24.22.434,torte-2b,2020.1.3,Win32,60,13391,,,,,,,,,,,,,,,,,,,,,,,,,,,,,,,,,,,,,0,55,55,115,1,,,,,,,,,,,,,,,,,,,,,,,,
,,,,,,,,,,,,a,0.23512,Correct!,,,,,,t2.png,t3.png,1,0.909,20,male,2020-11-19_14h24.22.434,torte-2b,2020.1.3,Win32,60,13391,,,,,,,,,,,,,,,,,,,,,,,,,,,,,,,,,,,,,0,56,56,74,1,,,,,,,,,,,,,,,,,,,,,,,,
,,,,,,,,,,,,l,0.224235,Correct!,,,,,,t1.png,t3.png,2,0.056466,20,male,2020-11-19_14h24.22.434,torte-2b,2020.1.3,Win32,60,13391,,,,,,,,,,,,,,,,,,,,,,,,,,,,,,,,,,,,,0,57,57,63,1,,,,,,,,,,,,,,,,,,,,,,,,
,,,,,,,,,,,,a,0.18747,Correct!,,,,,,t3.png,t2.png,1,0.90855,20,male,2020-11-19_14h24.22.434,torte-2b,2020.1.3,Win32,60,13391,,,,,,,,,,,,,,,,,,,,,,,,,,,,,,,,,,,,,0,58,58,97,1,,,,,,,,,,,,,,,,,,,,,,,,
,,,,,,,,,,,,a,0.22605,Incorrect,,,,,,t5.png,t2.png,3,0.0000131,20,male,2020-11-19_14h24.22.434,torte-2b,2020.1.3,Win32,60,13391,,,,,,,,,,,,,,,,,,,,,,,,,,,,,,,,,,,,,0,59,59,91,1,,,,,,,,,,,,,,,,,,,,,,,,
,,,,,,,,,,,,a,0.218445,Incorrect,,,,,,t3.png,t5.png,2,0.0565,20,male,2020-11-19_14h24.22.434,torte-2b,2020.1.3,Win32,60,13391,,,,,,,,,,,,,,,,,,,,,,,,,,,,,,,,,,,,,0,60,60,30,1,,,,,,,,,,,,,,,,,,,,,,,,
,,,,,,,,,,,,a,0.237955,Incorrect,,,,,,t2.png,t4.png,2,0.059078,20,male,2020-11-19_14h24.22.434,torte-2b,2020.1.3,Win32,60,13391,,,,,,,,,,,,,,,,,,,,,,,,,,,,,,,,,,,,,0,61,61,24,1,,,,,,,,,,,,,,,,,,,,,,,,
,,,,,,,,,,,,l,0.255405,Incorrect,,,,,,t5.png,t4.png,1,0.90025,20,male,2020-11-19_14h24.22.434,torte-2b,2020.1.3,Win32,60,13391,,,,,,,,,,,,,,,,,,,,,,,,,,,,,,,,,,,,,0,62,62,27,1,,,,,,,,,,,,,,,,,,,,,,,,
,,,,,,,,,,,,l,0.238125,Correct!,,,,,,t2.png,t3.png,1,0.90855,20,male,2020-11-19_14h24.22.434,torte-2b,2020.1.3,Win32,60,13391,,,,,,,,,,,,,,,,,,,,,,,,,,,,,,,,,,,,,0,63,63,10,1,,,,,,,,,,,,,,,,,,,,,,,,
,,,,,,,,,,,,l,0.153815,Correct!,,,,,,t1.png,t5.png,4,9.55E-11,20,male,2020-11-19_14h24.22.434,torte-2b,2020.1.3,Win32,60,13391,,,,,,,,,,,,,,,,,,,,,,,,,,,,,,,,,,,,,0,64,64,41,1,,,,,,,,,,,,,,,,,,,,,,,,
,,,,,,,,,,,,l,0.269375,Correct!,,,,,,t3.png,t4.png,1,0.909,20,male,2020-11-19_14h24.22.434,torte-2b,2020.1.3,Win32,60,13391,,,,,,,,,,,,,,,,,,,,,,,,,,,,,,,,,,,,,0,65,65,82,1,,,,,,,,,,,,,,,,,,,,,,,,
,,,,,,,,,,,,a,0.19458,Correct!,,,,,,t4.png,t2.png,2,0.059078,20,male,2020-11-19_14h24.22.434,torte-2b,2020.1.3,Win32,60,13391,,,,,,,,,,,,,,,,,,,,,,,,,,,,,,,,,,,,,0,66,66,110,1,,,,,,,,,,,,,,,,,,,,,,,,
,,,,,,,,,,,,l,0.13835,Correct!,,,,,,t4.png,t1.png,3,0.0000131,20,male,2020-11-19_14h24.22.434,torte-2b,2020.1.3,Win32,60,13391,,,,,,,,,,,,,,,,,,,,,,,,,,,,,,,,,,,,,0,67,67,48,1,,,,,,,,,,,,,,,,,,,,,,,,
,,,,,,,,,,,,a,0.23951,Incorrect,,,,,,t5.png,t3.png,2,0.0565,20,male,2020-11-19_14h24.22.434,torte-2b,2020.1.3,Win32,60,13391,,,,,,,,,,,,,,,,,,,,,,,,,,,,,,,,,,,,,0,68,68,39,1,,,,,,,,,,,,,,,,,,,,,,,,
,,,,,,,,,,,,l,0.20046,Incorrect,,,,,,t5.png,t5.png,0,0.97829,20,male,2020-11-19_14h24.22.434,torte-2b,2020.1.3,Win32,60,13391,,,,,,,,,,,,,,,,,,,,,,,,,,,,,,,,,,,,,0,69,69,94,1,,,,,,,,,,,,,,,,,,,,,,,,
,,,,,,,,,,,,a,0.1938,Correct!,,,,,,t2.png,t1.png,1,0.90025,20,male,2020-11-19_14h24.22.434,torte-2b,2020.1.3,Win32,60,13391,,,,,,,,,,,,,,,,,,,,,,,,,,,,,,,,,,,,,0,70,70,62,1,,,,,,,,,,,,,,,,,,,,,,,,
,,,,,,,,,,,,l,0.22774,Correct!,,,,,,t1.png,t3.png,2,0.056466,20,male,2020-11-19_14h24.22.434,torte-2b,2020.1.3,Win32,60,13391,,,,,,,,,,,,,,,,,,,,,,,,,,,,,,,,,,,,,0,71,71,87,1,,,,,,,,,,,,,,,,,,,,,,,,
,,,,,,,,,,,,a,0.25265,Correct!,,,,,,t4.png,t3.png,1,0.90855,20,male,2020-11-19_14h24.22.434,torte-2b,2020.1.3,Win32,60,13391,,,,,,,,,,,,,,,,,,,,,,,,,,,,,,,,,,,,,0,72,72,75,1,,,,,,,,,,,,,,,,,,,,,,,,
,,,,,,,,,,,,a,0.08619,Incorrect,,,,,,t3.png,t1.png,2,0.056466,20,male,2020-11-19_14h24.22.434,torte-2b,2020.1.3,Win32,60,13391,,,,,,,,,,,,,,,,,,,,,,,,,,,,,,,,,,,,,0,73,73,32,1,,,,,,,,,,,,,,,,,,,,,,,,
,,,,,,,,,,,,l,0.27012,Correct!,,,,,,t4.png,t1.png,3,0.0000131,20,male,2020-11-19_14h24.22.434,torte-2b,2020.1.3,Win32,60,13391,,,,,,,,,,,,,,,,,,,,,,,,,,,,,,,,,,,,,0,74,74,42,1,,,,,,,,,,,,,,,,,,,,,,,,
,,,,,,,,,,,,a,0.33886,Correct!,,,,,,t2.png,t2.png,0,0.98115,20,male,2020-11-19_14h24.22.434,torte-2b,2020.1.3,Win32,60,13391,,,,,,,,,,,,,,,,,,,,,,,,,,,,,,,,,,,,,0,75,75,2,1,,,,,,,,,,,,,,,,,,,,,,,,
,,,,,,,,,,,,l,0.28472,Correct!,,,,,,t3.png,t1.png,2,0.0565,20,male,2020-11-19_14h24.22.434,torte-2b,2020.1.3,Win32,60,13391,,,,,,,,,,,,,,,,,,,,,,,,,,,,,,,,,,,,,0,76,76,31,1,,,,,,,,,,,,,,,,,,,,,,,,
,,,,,,,,,,,,l,0.253025,Incorrect,,,,,,t1.png,t1.png,0,0.97829,20,male,2020-11-19_14h24.22.434,torte-2b,2020.1.3,Win32,60,13391,,,,,,,,,,,,,,,,,,,,,,,,,,,,,,,,,,,,,0,77,77,9,1,,,,,,,,,,,,,,,,,,,,,,,,
,,,,,,,,,,,,a,0.23889,Incorrect,,,,,,t4.png,t2.png,2,0.059078,20,male,2020-11-19_14h24.22.434,torte-2b,2020.1.3,Win32,60,13391,,,,,,,,,,,,,,,,,,,,,,,,,,,,,,,,,,,,,0,78,78,88,1,,,,,,,,,,,,,,,,,,,,,,,,
,,,,,,,,,,,,l,0.23561,Correct!,,,,,,t2.png,t4.png,2,0.059078,20,male,2020-11-19_14h24.22.434,torte-2b,2020.1.3,Win32,60,13391,,,,,,,,,,,,,,,,,,,,,,,,,,,,,,,,,,,,,0,79,79,11,1,,,,,,,,,,,,,,,,,,,,,,,,
,,,,,,,,,,,,a,0.25319,Incorrect,,,,,,t1.png,t3.png,2,0.056466,20,male,2020-11-19_14h24.22.434,torte-2b,2020.1.3,Win32,60,13391,,,,,,,,,,,,,,,,,,,,,,,,,,,,,,,,,,,,,0,80,80,69,1,,,,,,,,,,,,,,,,,,,,,,,,
,,,,,,,,,,,,l,0.27305,Incorrect,,,,,,t4.png,t4.png,0,0.98115,20,male,2020-11-19_14h24.22.434,torte-2b,2020.1.3,Win32,60,13391,,,,,,,,,,,,,,,,,,,,,,,,,,,,,,,,,,,,,0,81,81,79,1,,,,,,,,,,,,,,,,,,,,,,,,
,,,,,,,,,,,,a,0.194615,Incorrect,,,,,,t5.png,t2.png,3,0.0000131,20,male,2020-11-19_14h24.22.434,torte-2b,2020.1.3,Win32,60,13391,,,,,,,,,,,,,,,,,,,,,,,,,,,,,,,,,,,,,0,82,82,51,1,,,,,,,,,,,,,,,,,,,,,,,,
,,,,,,,,,,,,a,0.261605,Incorrect,,,,,,t5.png,t2.png,3,0.0000131,20,male,2020-11-19_14h24.22.434,torte-2b,2020.1.3,Win32,60,13391,,,,,,,,,,,,,,,,,,,,,,,,,,,,,,,,,,,,,0,83,83,98,1,,,,,,,,,,,,,,,,,,,,,,,,
,,,,,,,,,,,,a,0.367675,Incorrect,,,,,,t5.png,t3.png,2,0.056466,20,male,2020-11-19_14h24.22.434,torte-2b,2020.1.3,Win32,60,13391,,,,,,,,,,,,,,,,,,,,,,,,,,,,,,,,,,,,,0,84,84,114,1,,,,,,,,,,,,,,,,,,,,,,,,
,,,,,,,,,,,,l,0.25883,Incorrect,,,,,,t2.png,t3.png,1,0.90855,20,male,2020-11-19_14h24.22.434,torte-2b,2020.1.3,Win32,60,13391,,,,,,,,,,,,,,,,,,,,,,,,,,,,,,,,,,,,,0,85,85,65,1,,,,,,,,,,,,,,,,,,,,,,,,
,,,,,,,,,,,,a,0.32855,Incorrect,,,,,,t4.png,t2.png,2,0.059078,20,male,2020-11-19_14h24.22.434,torte-2b,2020.1.3,Win32,60,13391,,,,,,,,,,,,,,,,,,,,,,,,,,,,,,,,,,,,,0,86,86,109,1,,,,,,,,,,,,,,,,,,,,,,,,
,,,,,,,,,,,,l,0.2531,Incorrect,,,,,,t5.png,t4.png,1,0.9,20,male,2020-11-19_14h24.22.434,torte-2b,2020.1.3,Win32,60,13391,,,,,,,,,,,,,,,,,,,,,,,,,,,,,,,,,,,,,0,87,87,76,1,,,,,,,,,,,,,,,,,,,,,,,,
,,,,,,,,,,,,l,0.169115,Incorrect,,,,,,t3.png,t2.png,1,0.909,20,male,2020-11-19_14h24.22.434,torte-2b,2020.1.3,Win32,60,13391,,,,,,,,,,,,,,,,,,,,,,,,,,,,,,,,,,,,,0,88,88,3,1,,,,,,,,,,,,,,,,,,,,,,,,
,,,,,,,,,,,,l,0.288255,Correct!,,,,,,t4.png,t1.png,3,0.0000131,20,male,2020-11-19_14h24.22.434,torte-2b,2020.1.3,Win32,60,13391,,,,,,,,,,,,,,,,,,,,,,,,,,,,,,,,,,,,,0,89,89,61,1,,,,,,,,,,,,,,,,,,,,,,,,
,,,,,,,,,,,,a,0.104965,Incorrect,,,,,,t1.png,t4.png,3,0.0000131,20,male,2020-11-19_14h24.22.434,torte-2b,2020.1.3,Win32,60,13391,,,,,,,,,,,,,,,,,,,,,,,,,,,,,,,,,,,,,0,90,90,107,1,,,,,,,,,,,,,,,,,,,,,,,,
,,,,,,,,,,,,l,0.256655,Correct!,,,,,,t3.png,t1.png,2,0.056466,20,male,2020-11-19_14h24.22.434,torte-2b,2020.1.3,Win32,60,13391,,,,,,,,,,,,,,,,,,,,,,,,,,,,,,,,,,,,,0,91,91,64,1,,,,,,,,,,,,,,,,,,,,,,,,
,,,,,,,,,,,,a,0.22972,Incorrect,,,,,,t1.png,t3.png,2,0.056466,20,male,2020-11-19_14h24.22.434,torte-2b,2020.1.3,Win32,60,13391,,,,,,,,,,,,,,,,,,,,,,,,,,,,,,,,,,,,,0,92,92,99,1,,,,,,,,,,,,,,,,,,,,,,,,
,,,,,,,,,,,,l,0.25362,Incorrect,,,,,,t5.png,t5.png,0,0.97829,20,male,2020-11-19_14h24.22.434,torte-2b,2020.1.3,Win32,60,13391,,,,,,,,,,,,,,,,,,,,,,,,,,,,,,,,,,,,,0,93,93,25,1,,,,,,,,,,,,,,,,,,,,,,,,
,,,,,,,,,,,,l,0.290855,Correct!,,,,,,t4.png,t1.png,3,0.0000131,20,male,2020-11-19_14h24.22.434,torte-2b,2020.1.3,Win32,60,13391,,,,,,,,,,,,,,,,,,,,,,,,,,,,,,,,,,,,,0,94,94,93,1,,,,,,,,,,,,,,,,,,,,,,,,
,,,,,,,,,,,,a,0.25264,Correct!,,,,,,t1.png,t2.png,1,0.90025,20,male,2020-11-19_14h24.22.434,torte-2b,2020.1.3,Win32,60,13391,,,,,,,,,,,,,,,,,,,,,,,,,,,,,,,,,,,,,0,95,95,112,1,,,,,,,,,,,,,,,,,,,,,,,,
,,,,,,,,,,,,l,0.22403,Correct!,,,,,,t5.png,t1.png,4,9.55E-11,20,male,2020-11-19_14h24.22.434,torte-2b,2020.1.3,Win32,60,13391,,,,,,,,,,,,,,,,,,,,,,,,,,,,,,,,,,,,,0,96,96,43,1,,,,,,,,,,,,,,,,,,,,,,,,
,,,,,,,,,,,,a,0.19557,Incorrect,,,,,,t2.png,t5.png,3,0.0000131,20,male,2020-11-19_14h24.22.434,torte-2b,2020.1.3,Win32,60,13391,,,,,,,,,,,,,,,,,,,,,,,,,,,,,,,,,,,,,0,97,97,40,1,,,,,,,,,,,,,,,,,,,,,,,,
,,,,,,,,,,,,l,0.035845,Correct!,,,,,,t3.png,t5.png,2,0.0565,20,male,2020-11-19_14h24.22.434,torte-2b,2020.1.3,Win32,60,13391,,,,,,,,,,,,,,,,,,,,,,,,,,,,,,,,,,,,,0,98,98,83,1,,,,,,,,,,,,,,,,,,,,,,,,
,,,,,,,,,,,,l,0.095305,Correct!,,,,,,t4.png,t2.png,2,0.059078,20,male,2020-11-19_14h24.22.434,torte-2b,2020.1.3,Win32,60,13391,,,,,,,,,,,,,,,,,,,,,,,,,,,,,,,,,,,,,0,99,99,86,1,,,,,,,,,,,,,,,,,,,,,,,,
,,,,,,,,,,,,a,0.212845,Correct!,,,,,,t5.png,t5.png,0,0.97829,20,male,2020-11-19_14h24.22.434,torte-2b,2020.1.3,Win32,60,13391,,,,,,,,,,,,,,,,,,,,,,,,,,,,,,,,,,,,,0,100,100,73,1,,,,,,,,,,,,,,,,,,,,,,,,
,,,,,,,,,,,,l,0.2411,Incorrect,,,,,,t2.png,t1.png,1,0.90025,20,male,2020-11-19_14h24.22.434,torte-2b,2020.1.3,Win32,60,13391,,,,,,,,,,,,,,,,,,,,,,,,,,,,,,,,,,,,,0,101,101,4,1,,,,,,,,,,,,,,,,,,,,,,,,
,,,,,,,,,,,,l,0.24094,Correct!,,,,,,t1.png,t4.png,3,0.0000131,20,male,2020-11-19_14h24.22.434,torte-2b,2020.1.3,Win32,60,13391,,,,,,,,,,,,,,,,,,,,,,,,,,,,,,,,,,,,,0,102,102,92,1,,,,,,,,,,,,,,,,,,,,,,,,
,,,,,,,,,,,,a,0.109175,Correct!,,,,,,t2.png,t3.png,1,0.90855,20,male,2020-11-19_14h24.22.434,torte-2b,2020.1.3,Win32,60,13391,,,,,,,,,,,,,,,,,,,,,,,,,,,,,,,,,,,,,0,103,103,68,1,,,,,,,,,,,,,,,,,,,,,,,,
,,,,,,,,,,,,a,0.053185,Correct!,,,,,,t5.png,t4.png,1,0.90025,20,male,2020-11-19_14h24.22.434,torte-2b,2020.1.3,Win32,60,13391,,,,,,,,,,,,,,,,,,,,,,,,,,,,,,,,,,,,,0,104,104,34,1,,,,,,,,,,,,,,,,,,,,,,,,
,,,,,,,,,,,,a,0.2452,Incorrect,,,,,,t1.png,t4.png,3,0.0000131,20,male,2020-11-19_14h24.22.434,torte-2b,2020.1.3,Win32,60,13391,,,,,,,,,,,,,,,,,,,,,,,,,,,,,,,,,,,,,0,105,105,17,1,,,,,,,,,,,,,,,,,,,,,,,,
,,,,,,,,,,,,l,0.119435,Incorrect,,,,,,t5.png,t5.png,0,0.97829,20,male,2020-11-19_14h24.22.434,torte-2b,2020.1.3,Win32,60,13391,,,,,,,,,,,,,,,,,,,,,,,,,,,,,,,,,,,,,0,106,106,70,1,,,,,,,,,,,,,,,,,,,,,,,,
,,,,,,,,,,,,l,0.144585,Correct!,,,,,,t3.png,t1.png,2,0.056466,20,male,2020-11-19_14h24.22.434,torte-2b,2020.1.3,Win32,60,13391,,,,,,,,,,,,,,,,,,,,,,,,,,,,,,,,,,,,,0,107,107,0,1,,,,,,,,,,,,,,,,,,,,,,,,
,,,,,,,,,,,,l,0.12223,Correct!,,,,,,t5.png,t3.png,2,0.056466,20,male,2020-11-19_14h24.22.434,torte-2b,2020.1.3,Win32,60,13391,,,,,,,,,,,,,,,,,,,,,,,,,,,,,,,,,,,,,0,108,108,38,1,,,,,,,,,,,,,,,,,,,,,,,,
,,,,,,,,,,,,l,0.21834,Incorrect,,,,,,t4.png,t5.png,1,0.90025,20,male,2020-11-19_14h24.22.434,torte-2b,2020.1.3,Win32,60,13391,,,,,,,,,,,,,,,,,,,,,,,,,,,,,,,,,,,,,0,109,109,103,1,,,,,,,,,,,,,,,,,,,,,,,,
,,,,,,,,,,,,a,0.126905,Correct!,,,,,,t1.png,t1.png,0,0.978,20,male,2020-11-19_14h24.22.434,torte-2b,2020.1.3,Win32,60,13391,,,,,,,,,,,,,,,,,,,,,,,,,,,,,,,,,,,,,0,110,110,54,1,,,,,,,,,,,,,,,,,,,,,,,,
,,,,,,,,,,,,a,0.16032,Correct!,,,,,,t1.png,t2.png,1,0.90025,20,male,2020-11-19_14h24.22.434,torte-2b,2020.1.3,Win32,60,13391,,,,,,,,,,,,,,,,,,,,,,,,,,,,,,,,,,,,,0,111,111,72,1,,,,,,,,,,,,,,,,,,,,,,,,
,,,,,,,,,,,,l,0.13737,Correct!,,,,,,t2.png,t5.png,3,0.0000131,20,male,2020-11-19_14h24.22.434,torte-2b,2020.1.3,Win32,60,13391,,,,,,,,,,,,,,,,,,,,,,,,,,,,,,,,,,,,,0,112,112,104,1,,,,,,,,,,,,,,,,,,,,,,,,
,,,,,,,,,,,,l,0.08736,Correct!,,,,,,t1.png,t5.png,4,9.55E-11,20,male,2020-11-19_14h24.22.434,torte-2b,2020.1.3,Win32,60,13391,,,,,,,,,,,,,,,,,,,,,,,,,,,,,,,,,,,,,0,113,113,16,1,,,,,,,,,,,,,,,,,,,,,,,,
,,,,,,,,,,,,a,0.18918,Incorrect,,,,,,t2.png,t5.png,3,0.0000131,20,male,2020-11-19_14h24.22.434,torte-2b,2020.1.3,Win32,60,13391,,,,,,,,,,,,,,,,,,,,,,,,,,,,,,,,,,,,,0,114,114,95,1,,,,,,,,,,,,,,,,,,,,,,,,
,,,,,,,,,,,,l,0.141465,Incorrect,,,,,,t3.png,t2.png,1,0.909,20,male,2020-11-19_14h24.22.434,torte-2b,2020.1.3,Win32,60,13391,,,,,,,,,,,,,,,,,,,,,,,,,,,,,,,,,,,,,0,115,115,23,1,,,,,,,,,,,,,,,,,,,,,,,,
,,,,,,,,,,,,l,0.219685,Correct!,,,,,,t1.png,t4.png,3,0.0000131,20,male,2020-11-19_14h24.22.434,torte-2b,2020.1.3,Win32,60,13391,,,,,,,,,,,,,,,,,,,,,,,,,,,,,,,,,,,,,0,116,116,50,1,,,,,,,,,,,,,,,,,,,,,,,,
,,,,,,,,,,,,a,0.22734,Incorrect,,,,,,t5.png,t1.png,4,9.55E-11,20,male,2020-11-19_14h24.22.434,torte-2b,2020.1.3,Win32,60,13391,,,,,,,,,,,,,,,,,,,,,,,,,,,,,,,,,,,,,0,117,117,102,1,,,,,,,,,,,,,,,,,,,,,,,,
,,,,,,,,,,,,a,0.102945,Incorrect,,,,,,t1.png,t5.png,4,9.55E-11,20,male,2020-11-19_14h24.22.434,torte-2b,2020.1.3,Win32,60,13391,,,,,,,,,,,,,,,,,,,,,,,,,,,,,,,,,,,,,0,118,118,55,1,,,,,,,,,,,,,,,,,,,,,,,,
,,,,,,,,,,,,l,0.267965,Incorrect,,,,,,t3.png,t4.png,1,0.90855,20,male,2020-11-19_14h24.22.434,torte-2b,2020.1.3,Win32,60,13391,,,,,,,,,,,,,,,,,,,,,,,,,,,,,,,,,,,,,0,119,119,84,1,,,,,,,,,,,,,,,,,,,,,,,,
,,,,,,,,,,,,,,,,,,,,,,,,20,male,2020-11-19_14h24.22.434,torte-2b,2020.1.3,Win32,60,13391,space,2.393035,,,,,,,,,,,,,,,,,,,,,,,,,,,,,,,,,,,,,,,,-141.3333185,60.66665775,1,0,0,s3,-57.99998266,83.33330474,1,0,0,t1,183.3333579,-93.33334684,1,0,0,proceed,space,0.735565,space,0.954135,space,0.679125
