key_resp_8.keys,key_resp_8.rt,key_resp_9.keys,key_resp_9.rt,key_resp_10.keys,key_resp_10.rt,key_resp_11.keys,key_resp_11.rt,key_resp_2.keys,key_resp_2.rt,key_resp_3.keys,key_resp_3.rt,key_resp.keys,Feedback,train.thisRepN,train.thisTrialN,train.thisN,train.thisIndex,train.ran,torta_sx,torta_dx,difference,probability,age,gender,date,expName,psychopyVersion,OS,frameRate,participant,key_resp.rt,key_resp_15.keys,key_resp_15.rt,key_resp_6.keys,key_resp_6.rt,test1.thisRepN,test1.thisTrialN,test1.thisN,test1.thisIndex,test1.ran,key_resp_4.keys,key_resp_4.rt,key_resp_5.keys,back1.thisRepN,back1.thisTrialN,back1.thisN,back1.thisIndex,back1.ran,letter,key_resp_5.rt,back2.thisRepN,back2.thisTrialN,back2.thisN,back2.thisIndex,back2.ran,back3.thisRepN,back3.thisTrialN,back3.thisN,back3.thisIndex,back3.ran,back4.thisRepN,back4.thisTrialN,back4.thisN,back4.thisIndex,back4.ran,key_resp_7.keys,key_resp_7.rt,test2.thisRepN,test2.thisTrialN,test2.thisN,test2.thisIndex,test2.ran,mouse.x,mouse.y,mouse.leftButton,mouse.midButton,mouse.rightButton,mouse.clicked_name,mouse_2.x,mouse_2.y,mouse_2.leftButton,mouse_2.midButton,mouse_2.rightButton,mouse_2.clicked_name,mouse_3.x,mouse_3.y,mouse_3.leftButton,mouse_3.midButton,mouse_3.rightButton,mouse_3.clicked_name,key_resp_12.keys,key_resp_12.rt,key_resp_13.keys,key_resp_13.rt,key_resp_14.keys,key_resp_14.rt
space,0.6,space,0.4,space,0.4,space,1.2,space,36.7,space,45,,Too slow :(,0,0,0,98,1,t5.png,t1.png,4,9.55E-11,19,Female,2020-08-16_10h37.16.500,torte-2b,2020.1.3,MacIntel,60,13407,,,,,,,,,,,,,,,,,,,,,,,,,,,,,,,,,,,,,,,,,,,,,,,,,,,,,,,,,,,,,,,,,,
,,,,,,,,,,,,a,Correct!,0,1,1,109,1,t5.png,t5.png,0,0.97829,19,Female,2020-08-16_10h37.16.500,torte-2b,2020.1.3,MacIntel,60,13407,2.1,,,,,,,,,,,,,,,,,,,,,,,,,,,,,,,,,,,,,,,,,,,,,,,,,,,,,,,,,,,,,,,,,
,,,,,,,,,,,,l,Incorrect,0,2,2,52,1,t2.png,t3.png,1,0.90855,19,Female,2020-08-16_10h37.16.500,torte-2b,2020.1.3,MacIntel,60,13407,1.1,,,,,,,,,,,,,,,,,,,,,,,,,,,,,,,,,,,,,,,,,,,,,,,,,,,,,,,,,,,,,,,,,
,,,,,,,,,,,,a,Incorrect,0,3,3,64,1,t5.png,t1.png,4,9.55E-11,19,Female,2020-08-16_10h37.16.500,torte-2b,2020.1.3,MacIntel,60,13407,1.1,,,,,,,,,,,,,,,,,,,,,,,,,,,,,,,,,,,,,,,,,,,,,,,,,,,,,,,,,,,,,,,,,
,,,,,,,,,,,,a,Incorrect,0,4,4,80,1,t4.png,t1.png,3,0.059078,19,Female,2020-08-16_10h37.16.500,torte-2b,2020.1.3,MacIntel,60,13407,1.3,,,,,,,,,,,,,,,,,,,,,,,,,,,,,,,,,,,,,,,,,,,,,,,,,,,,,,,,,,,,,,,,,
,,,,,,,,,,,,l,Incorrect,0,5,5,33,1,t3.png,t2.png,1,0.90855,19,Female,2020-08-16_10h37.16.500,torte-2b,2020.1.3,MacIntel,60,13407,0.9,,,,,,,,,,,,,,,,,,,,,,,,,,,,,,,,,,,,,,,,,,,,,,,,,,,,,,,,,,,,,,,,,
,,,,,,,,,,,,l,Correct!,0,6,6,57,1,t3.png,t1.png,2,0.056466,19,Female,2020-08-16_10h37.16.500,torte-2b,2020.1.3,MacIntel,60,13407,1.2,,,,,,,,,,,,,,,,,,,,,,,,,,,,,,,,,,,,,,,,,,,,,,,,,,,,,,,,,,,,,,,,,
,,,,,,,,,,,,l,Incorrect,0,7,7,46,1,t1.png,t1.png,0,0.97829,19,Female,2020-08-16_10h37.16.500,torte-2b,2020.1.3,MacIntel,60,13407,1.5,,,,,,,,,,,,,,,,,,,,,,,,,,,,,,,,,,,,,,,,,,,,,,,,,,,,,,,,,,,,,,,,,
,,,,,,,,,,,,l,Incorrect,0,8,8,48,1,t2.png,t3.png,1,0.90855,19,Female,2020-08-16_10h37.16.500,torte-2b,2020.1.3,MacIntel,60,13407,1.6,,,,,,,,,,,,,,,,,,,,,,,,,,,,,,,,,,,,,,,,,,,,,,,,,,,,,,,,,,,,,,,,,
,,,,,,,,,,,,a,Incorrect,0,9,9,82,1,t3.png,t1.png,2,0.056466,19,Female,2020-08-16_10h37.16.500,torte-2b,2020.1.3,MacIntel,60,13407,1.3,,,,,,,,,,,,,,,,,,,,,,,,,,,,,,,,,,,,,,,,,,,,,,,,,,,,,,,,,,,,,,,,,
,,,,,,,,,,,,a,Incorrect,0,10,10,113,1,t5.png,t1.png,4,9.55E-11,19,Female,2020-08-16_10h37.16.500,torte-2b,2020.1.3,MacIntel,60,13407,1.2,,,,,,,,,,,,,,,,,,,,,,,,,,,,,,,,,,,,,,,,,,,,,,,,,,,,,,,,,,,,,,,,,
,,,,,,,,,,,,a,Incorrect,0,11,11,117,1,t2.png,t4.png,2,0.059078,19,Female,2020-08-16_10h37.16.500,torte-2b,2020.1.3,MacIntel,60,13407,1,,,,,,,,,,,,,,,,,,,,,,,,,,,,,,,,,,,,,,,,,,,,,,,,,,,,,,,,,,,,,,,,,
,,,,,,,,,,,,l,Incorrect,0,12,12,20,1,t5.png,t5.png,0,0.97829,19,Female,2020-08-16_10h37.16.500,torte-2b,2020.1.3,MacIntel,60,13407,1.9,,,,,,,,,,,,,,,,,,,,,,,,,,,,,,,,,,,,,,,,,,,,,,,,,,,,,,,,,,,,,,,,,
,,,,,,,,,,,,a,Incorrect,0,13,13,26,1,t1.png,t5.png,4,9.55E-11,19,Female,2020-08-16_10h37.16.500,torte-2b,2020.1.3,MacIntel,60,13407,0.9,,,,,,,,,,,,,,,,,,,,,,,,,,,,,,,,,,,,,,,,,,,,,,,,,,,,,,,,,,,,,,,,,
,,,,,,,,,,,,l,Correct!,0,14,14,78,1,t1.png,t4.png,3,0.0000131,19,Female,2020-08-16_10h37.16.500,torte-2b,2020.1.3,MacIntel,60,13407,1.4,,,,,,,,,,,,,,,,,,,,,,,,,,,,,,,,,,,,,,,,,,,,,,,,,,,,,,,,,,,,,,,,,
,,,,,,,,,,,,a,Incorrect,0,15,15,6,1,t5.png,t1.png,4,9.55E-11,19,Female,2020-08-16_10h37.16.500,torte-2b,2020.1.3,MacIntel,60,13407,1.3,,,,,,,,,,,,,,,,,,,,,,,,,,,,,,,,,,,,,,,,,,,,,,,,,,,,,,,,,,,,,,,,,
,,,,,,,,,,,,l,Incorrect,0,16,16,24,1,t5.png,t5.png,0,0.97829,19,Female,2020-08-16_10h37.16.500,torte-2b,2020.1.3,MacIntel,60,13407,1.9,,,,,,,,,,,,,,,,,,,,,,,,,,,,,,,,,,,,,,,,,,,,,,,,,,,,,,,,,,,,,,,,,
,,,,,,,,,,,,a,Incorrect,0,17,17,66,1,t5.png,t1.png,4,9.55E-11,19,Female,2020-08-16_10h37.16.500,torte-2b,2020.1.3,MacIntel,60,13407,0.9,,,,,,,,,,,,,,,,,,,,,,,,,,,,,,,,,,,,,,,,,,,,,,,,,,,,,,,,,,,,,,,,,
,,,,,,,,,,,,l,Incorrect,0,18,18,112,1,t5.png,t4.png,1,0.90025,19,Female,2020-08-16_10h37.16.500,torte-2b,2020.1.3,MacIntel,60,13407,1.6,,,,,,,,,,,,,,,,,,,,,,,,,,,,,,,,,,,,,,,,,,,,,,,,,,,,,,,,,,,,,,,,,
,,,,,,,,,,,,l,Correct!,0,19,19,89,1,t1.png,t5.png,4,9.55E-11,19,Female,2020-08-16_10h37.16.500,torte-2b,2020.1.3,MacIntel,60,13407,1.1,,,,,,,,,,,,,,,,,,,,,,,,,,,,,,,,,,,,,,,,,,,,,,,,,,,,,,,,,,,,,,,,,
,,,,,,,,,,,,a,Incorrect,0,20,20,87,1,t5.png,t1.png,4,9.55E-11,19,Female,2020-08-16_10h37.16.500,torte-2b,2020.1.3,MacIntel,60,13407,1.6,,,,,,,,,,,,,,,,,,,,,,,,,,,,,,,,,,,,,,,,,,,,,,,,,,,,,,,,,,,,,,,,,
,,,,,,,,,,,,a,Incorrect,0,21,21,115,1,t2.png,t4.png,2,0.059078,19,Female,2020-08-16_10h37.16.500,torte-2b,2020.1.3,MacIntel,60,13407,1.8,,,,,,,,,,,,,,,,,,,,,,,,,,,,,,,,,,,,,,,,,,,,,,,,,,,,,,,,,,,,,,,,,
,,,,,,,,,,,,l,Incorrect,0,22,22,71,1,t4.png,t5.png,1,0.90025,19,Female,2020-08-16_10h37.16.500,torte-2b,2020.1.3,MacIntel,60,13407,1.9,,,,,,,,,,,,,,,,,,,,,,,,,,,,,,,,,,,,,,,,,,,,,,,,,,,,,,,,,,,,,,,,,
,,,,,,,,,,,,l,Incorrect,0,23,23,114,1,t5.png,t4.png,1,0.90025,19,Female,2020-08-16_10h37.16.500,torte-2b,2020.1.3,MacIntel,60,13407,2.4,,,,,,,,,,,,,,,,,,,,,,,,,,,,,,,,,,,,,,,,,,,,,,,,,,,,,,,,,,,,,,,,,
,,,,,,,,,,,,l,Correct!,0,24,24,68,1,t2.png,t4.png,2,0.059078,19,Female,2020-08-16_10h37.16.500,torte-2b,2020.1.3,MacIntel,60,13407,0.9,,,,,,,,,,,,,,,,,,,,,,,,,,,,,,,,,,,,,,,,,,,,,,,,,,,,,,,,,,,,,,,,,
,,,,,,,,,,,,a,Incorrect,0,25,25,99,1,t4.png,t1.png,3,0.059078,19,Female,2020-08-16_10h37.16.500,torte-2b,2020.1.3,MacIntel,60,13407,1.2,,,,,,,,,,,,,,,,,,,,,,,,,,,,,,,,,,,,,,,,,,,,,,,,,,,,,,,,,,,,,,,,,
,,,,,,,,,,,,,Too slow :(,0,26,26,97,1,t1.png,t1.png,0,0.97829,19,Female,2020-08-16_10h37.16.500,torte-2b,2020.1.3,MacIntel,60,13407,,,,,,,,,,,,,,,,,,,,,,,,,,,,,,,,,,,,,,,,,,,,,,,,,,,,,,,,,,,,,,,,,,
,,,,,,,,,,,,l,Correct!,0,27,27,3,1,t4.png,t1.png,3,0.059078,19,Female,2020-08-16_10h37.16.500,torte-2b,2020.1.3,MacIntel,60,13407,1.2,,,,,,,,,,,,,,,,,,,,,,,,,,,,,,,,,,,,,,,,,,,,,,,,,,,,,,,,,,,,,,,,,
,,,,,,,,,,,,a,Incorrect,0,28,28,16,1,t1.png,t5.png,4,9.55E-11,19,Female,2020-08-16_10h37.16.500,torte-2b,2020.1.3,MacIntel,60,13407,1.3,,,,,,,,,,,,,,,,,,,,,,,,,,,,,,,,,,,,,,,,,,,,,,,,,,,,,,,,,,,,,,,,,
,,,,,,,,,,,,a,Correct!,0,29,29,30,1,t2.png,t3.png,1,0.90855,19,Female,2020-08-16_10h37.16.500,torte-2b,2020.1.3,MacIntel,60,13407,1.2,,,,,,,,,,,,,,,,,,,,,,,,,,,,,,,,,,,,,,,,,,,,,,,,,,,,,,,,,,,,,,,,,
,,,,,,,,,,,,a,Correct!,0,30,30,25,1,t1.png,t1.png,0,0.97829,19,Female,2020-08-16_10h37.16.500,torte-2b,2020.1.3,MacIntel,60,13407,1.2,,,,,,,,,,,,,,,,,,,,,,,,,,,,,,,,,,,,,,,,,,,,,,,,,,,,,,,,,,,,,,,,,
,,,,,,,,,,,,l,Correct!,0,31,31,43,1,t3.png,t1.png,2,0.056466,19,Female,2020-08-16_10h37.16.500,torte-2b,2020.1.3,MacIntel,60,13407,1.5,,,,,,,,,,,,,,,,,,,,,,,,,,,,,,,,,,,,,,,,,,,,,,,,,,,,,,,,,,,,,,,,,
,,,,,,,,,,,,a,Incorrect,0,32,32,70,1,t1.png,t5.png,4,9.55E-11,19,Female,2020-08-16_10h37.16.500,torte-2b,2020.1.3,MacIntel,60,13407,1,,,,,,,,,,,,,,,,,,,,,,,,,,,,,,,,,,,,,,,,,,,,,,,,,,,,,,,,,,,,,,,,,
,,,,,,,,,,,,l,Correct!,0,33,33,35,1,t1.png,t4.png,3,0.0000131,19,Female,2020-08-16_10h37.16.500,torte-2b,2020.1.3,MacIntel,60,13407,0.7,,,,,,,,,,,,,,,,,,,,,,,,,,,,,,,,,,,,,,,,,,,,,,,,,,,,,,,,,,,,,,,,,
,,,,,,,,,,,,l,Incorrect,0,34,34,84,1,t2.png,t3.png,1,0.90855,19,Female,2020-08-16_10h37.16.500,torte-2b,2020.1.3,MacIntel,60,13407,1.1,,,,,,,,,,,,,,,,,,,,,,,,,,,,,,,,,,,,,,,,,,,,,,,,,,,,,,,,,,,,,,,,,
,,,,,,,,,,,,a,Incorrect,0,35,35,13,1,t2.png,t4.png,2,0.059078,19,Female,2020-08-16_10h37.16.500,torte-2b,2020.1.3,MacIntel,60,13407,0.8,,,,,,,,,,,,,,,,,,,,,,,,,,,,,,,,,,,,,,,,,,,,,,,,,,,,,,,,,,,,,,,,,
,,,,,,,,,,,,a,Correct!,0,36,36,7,1,t3.png,t2.png,1,0.90855,19,Female,2020-08-16_10h37.16.500,torte-2b,2020.1.3,MacIntel,60,13407,0.8,,,,,,,,,,,,,,,,,,,,,,,,,,,,,,,,,,,,,,,,,,,,,,,,,,,,,,,,,,,,,,,,,
,,,,,,,,,,,,l,Correct!,0,37,37,62,1,t1.png,t4.png,3,0.0000131,19,Female,2020-08-16_10h37.16.500,torte-2b,2020.1.3,MacIntel,60,13407,0.9,,,,,,,,,,,,,,,,,,,,,,,,,,,,,,,,,,,,,,,,,,,,,,,,,,,,,,,,,,,,,,,,,
,,,,,,,,,,,,l,Correct!,0,38,38,95,1,t1.png,t4.png,3,0.0000131,19,Female,2020-08-16_10h37.16.500,torte-2b,2020.1.3,MacIntel,60,13407,0.8,,,,,,,,,,,,,,,,,,,,,,,,,,,,,,,,,,,,,,,,,,,,,,,,,,,,,,,,,,,,,,,,,
,,,,,,,,,,,,l,Correct!,0,39,39,36,1,t1.png,t4.png,3,0.0000131,19,Female,2020-08-16_10h37.16.500,torte-2b,2020.1.3,MacIntel,60,13407,1.2,,,,,,,,,,,,,,,,,,,,,,,,,,,,,,,,,,,,,,,,,,,,,,,,,,,,,,,,,,,,,,,,,
,,,,,,,,,,,,a,Incorrect,0,40,40,17,1,t4.png,t1.png,3,0.059078,19,Female,2020-08-16_10h37.16.500,torte-2b,2020.1.3,MacIntel,60,13407,0.9,,,,,,,,,,,,,,,,,,,,,,,,,,,,,,,,,,,,,,,,,,,,,,,,,,,,,,,,,,,,,,,,,
,,,,,,,,,,,,a,Correct!,0,41,41,75,1,t2.png,t3.png,1,0.90855,19,Female,2020-08-16_10h37.16.500,torte-2b,2020.1.3,MacIntel,60,13407,0.9,,,,,,,,,,,,,,,,,,,,,,,,,,,,,,,,,,,,,,,,,,,,,,,,,,,,,,,,,,,,,,,,,
,,,,,,,,,,,,a,Correct!,0,42,42,22,1,t5.png,t5.png,0,0.97829,19,Female,2020-08-16_10h37.16.500,torte-2b,2020.1.3,MacIntel,60,13407,1.4,,,,,,,,,,,,,,,,,,,,,,,,,,,,,,,,,,,,,,,,,,,,,,,,,,,,,,,,,,,,,,,,,
,,,,,,,,,,,,l,Correct!,0,43,43,79,1,t1.png,t4.png,3,0.0000131,19,Female,2020-08-16_10h37.16.500,torte-2b,2020.1.3,MacIntel,60,13407,1,,,,,,,,,,,,,,,,,,,,,,,,,,,,,,,,,,,,,,,,,,,,,,,,,,,,,,,,,,,,,,,,,
,,,,,,,,,,,,l,Correct!,0,44,44,19,1,t2.png,t4.png,2,0.059078,19,Female,2020-08-16_10h37.16.500,torte-2b,2020.1.3,MacIntel,60,13407,0.8,,,,,,,,,,,,,,,,,,,,,,,,,,,,,,,,,,,,,,,,,,,,,,,,,,,,,,,,,,,,,,,,,
,,,,,,,,,,,,l,Incorrect,0,45,45,14,1,t2.png,t3.png,1,0.90855,19,Female,2020-08-16_10h37.16.500,torte-2b,2020.1.3,MacIntel,60,13407,0.9,,,,,,,,,,,,,,,,,,,,,,,,,,,,,,,,,,,,,,,,,,,,,,,,,,,,,,,,,,,,,,,,,
,,,,,,,,,,,,a,Incorrect,0,46,46,37,1,t2.png,t4.png,2,0.059078,19,Female,2020-08-16_10h37.16.500,torte-2b,2020.1.3,MacIntel,60,13407,0.7,,,,,,,,,,,,,,,,,,,,,,,,,,,,,,,,,,,,,,,,,,,,,,,,,,,,,,,,,,,,,,,,,
,,,,,,,,,,,,l,Correct!,0,47,47,2,1,t3.png,t1.png,2,0.056466,19,Female,2020-08-16_10h37.16.500,torte-2b,2020.1.3,MacIntel,60,13407,0.8,,,,,,,,,,,,,,,,,,,,,,,,,,,,,,,,,,,,,,,,,,,,,,,,,,,,,,,,,,,,,,,,,
,,,,,,,,,,,,l,Correct!,0,48,48,59,1,t5.png,t1.png,4,9.55E-11,19,Female,2020-08-16_10h37.16.500,torte-2b,2020.1.3,MacIntel,60,13407,0.7,,,,,,,,,,,,,,,,,,,,,,,,,,,,,,,,,,,,,,,,,,,,,,,,,,,,,,,,,,,,,,,,,
,,,,,,,,,,,,l,Incorrect,0,49,49,21,1,t5.png,t4.png,1,0.90025,19,Female,2020-08-16_10h37.16.500,torte-2b,2020.1.3,MacIntel,60,13407,0.8,,,,,,,,,,,,,,,,,,,,,,,,,,,,,,,,,,,,,,,,,,,,,,,,,,,,,,,,,,,,,,,,,
,,,,,,,,,,,,a,Incorrect,0,50,50,106,1,t4.png,t1.png,3,0.059078,19,Female,2020-08-16_10h37.16.500,torte-2b,2020.1.3,MacIntel,60,13407,0.5,,,,,,,,,,,,,,,,,,,,,,,,,,,,,,,,,,,,,,,,,,,,,,,,,,,,,,,,,,,,,,,,,
,,,,,,,,,,,,l,Correct!,0,51,51,73,1,t3.png,t1.png,2,0.056466,19,Female,2020-08-16_10h37.16.500,torte-2b,2020.1.3,MacIntel,60,13407,0.7,,,,,,,,,,,,,,,,,,,,,,,,,,,,,,,,,,,,,,,,,,,,,,,,,,,,,,,,,,,,,,,,,
,,,,,,,,,,,,l,Incorrect,0,52,52,83,1,t3.png,t2.png,1,0.90855,19,Female,2020-08-16_10h37.16.500,torte-2b,2020.1.3,MacIntel,60,13407,0.8,,,,,,,,,,,,,,,,,,,,,,,,,,,,,,,,,,,,,,,,,,,,,,,,,,,,,,,,,,,,,,,,,
,,,,,,,,,,,,a,Correct!,0,53,53,85,1,t5.png,t4.png,1,0.90025,19,Female,2020-08-16_10h37.16.500,torte-2b,2020.1.3,MacIntel,60,13407,0.7,,,,,,,,,,,,,,,,,,,,,,,,,,,,,,,,,,,,,,,,,,,,,,,,,,,,,,,,,,,,,,,,,
,,,,,,,,,,,,a,Correct!,0,54,54,8,1,t5.png,t5.png,0,0.97829,19,Female,2020-08-16_10h37.16.500,torte-2b,2020.1.3,MacIntel,60,13407,0.9,,,,,,,,,,,,,,,,,,,,,,,,,,,,,,,,,,,,,,,,,,,,,,,,,,,,,,,,,,,,,,,,,
,,,,,,,,,,,,a,Incorrect,0,55,55,60,1,t4.png,t5.png,1,0.90025,19,Female,2020-08-16_10h37.16.500,torte-2b,2020.1.3,MacIntel,60,13407,0.7,,,,,,,,,,,,,,,,,,,,,,,,,,,,,,,,,,,,,,,,,,,,,,,,,,,,,,,,,,,,,,,,,
,,,,,,,,,,,,l,Correct!,0,56,56,28,1,t1.png,t4.png,3,0.0000131,19,Female,2020-08-16_10h37.16.500,torte-2b,2020.1.3,MacIntel,60,13407,0.1,,,,,,,,,,,,,,,,,,,,,,,,,,,,,,,,,,,,,,,,,,,,,,,,,,,,,,,,,,,,,,,,,
,,,,,,,,,,,,a,Correct!,0,57,57,61,1,t1.png,t1.png,0,0.97829,19,Female,2020-08-16_10h37.16.500,torte-2b,2020.1.3,MacIntel,60,13407,0.8,,,,,,,,,,,,,,,,,,,,,,,,,,,,,,,,,,,,,,,,,,,,,,,,,,,,,,,,,,,,,,,,,
,,,,,,,,,,,,a,Incorrect,0,58,58,11,1,t1.png,t4.png,3,0.0000131,19,Female,2020-08-16_10h37.16.500,torte-2b,2020.1.3,MacIntel,60,13407,0.7,,,,,,,,,,,,,,,,,,,,,,,,,,,,,,,,,,,,,,,,,,,,,,,,,,,,,,,,,,,,,,,,,
,,,,,,,,,,,,l,Incorrect,0,59,59,47,1,t2.png,t3.png,1,0.90855,19,Female,2020-08-16_10h37.16.500,torte-2b,2020.1.3,MacIntel,60,13407,0.7,,,,,,,,,,,,,,,,,,,,,,,,,,,,,,,,,,,,,,,,,,,,,,,,,,,,,,,,,,,,,,,,,
,,,,,,,,,,,,l,Incorrect,0,60,60,53,1,t1.png,t1.png,0,0.97829,19,Female,2020-08-16_10h37.16.500,torte-2b,2020.1.3,MacIntel,60,13407,0.7,,,,,,,,,,,,,,,,,,,,,,,,,,,,,,,,,,,,,,,,,,,,,,,,,,,,,,,,,,,,,,,,,
,,,,,,,,,,,,a,Correct!,0,61,61,38,1,t1.png,t1.png,0,0.97829,19,Female,2020-08-16_10h37.16.500,torte-2b,2020.1.3,MacIntel,60,13407,0.3,,,,,,,,,,,,,,,,,,,,,,,,,,,,,,,,,,,,,,,,,,,,,,,,,,,,,,,,,,,,,,,,,
,,,,,,,,,,,,a,Correct!,0,62,62,88,1,t1.png,t1.png,0,0.97829,19,Female,2020-08-16_10h37.16.500,torte-2b,2020.1.3,MacIntel,60,13407,0.5,,,,,,,,,,,,,,,,,,,,,,,,,,,,,,,,,,,,,,,,,,,,,,,,,,,,,,,,,,,,,,,,,
,,,,,,,,,,,,a,Correct!,0,63,63,0,1,t3.png,t2.png,1,0.90855,19,Female,2020-08-16_10h37.16.500,torte-2b,2020.1.3,MacIntel,60,13407,0.7,,,,,,,,,,,,,,,,,,,,,,,,,,,,,,,,,,,,,,,,,,,,,,,,,,,,,,,,,,,,,,,,,
,,,,,,,,,,,,a,Correct!,0,64,64,77,1,t3.png,t2.png,1,0.90855,19,Female,2020-08-16_10h37.16.500,torte-2b,2020.1.3,MacIntel,60,13407,0.4,,,,,,,,,,,,,,,,,,,,,,,,,,,,,,,,,,,,,,,,,,,,,,,,,,,,,,,,,,,,,,,,,
,,,,,,,,,,,,a,Correct!,0,65,65,18,1,t2.png,t3.png,1,0.90855,19,Female,2020-08-16_10h37.16.500,torte-2b,2020.1.3,MacIntel,60,13407,0.5,,,,,,,,,,,,,,,,,,,,,,,,,,,,,,,,,,,,,,,,,,,,,,,,,,,,,,,,,,,,,,,,,
,,,,,,,,,,,,a,Incorrect,0,66,66,54,1,t3.png,t1.png,2,0.056466,19,Female,2020-08-16_10h37.16.500,torte-2b,2020.1.3,MacIntel,60,13407,0.6,,,,,,,,,,,,,,,,,,,,,,,,,,,,,,,,,,,,,,,,,,,,,,,,,,,,,,,,,,,,,,,,,
,,,,,,,,,,,,l,Incorrect,0,67,67,116,1,t4.png,t5.png,1,0.90025,19,Female,2020-08-16_10h37.16.500,torte-2b,2020.1.3,MacIntel,60,13407,0.4,,,,,,,,,,,,,,,,,,,,,,,,,,,,,,,,,,,,,,,,,,,,,,,,,,,,,,,,,,,,,,,,,
,,,,,,,,,,,,a,Incorrect,0,68,68,76,1,t4.png,t1.png,3,0.059078,19,Female,2020-08-16_10h37.16.500,torte-2b,2020.1.3,MacIntel,60,13407,2,,,,,,,,,,,,,,,,,,,,,,,,,,,,,,,,,,,,,,,,,,,,,,,,,,,,,,,,,,,,,,,,,
,,,,,,,,,,,,l,Incorrect,0,69,69,15,1,t2.png,t3.png,1,0.90855,19,Female,2020-08-16_10h37.16.500,torte-2b,2020.1.3,MacIntel,60,13407,0.6,,,,,,,,,,,,,,,,,,,,,,,,,,,,,,,,,,,,,,,,,,,,,,,,,,,,,,,,,,,,,,,,,
,,,,,,,,,,,,a,Correct!,0,70,70,110,1,t4.png,t5.png,1,0.90025,19,Female,2020-08-16_10h37.16.500,torte-2b,2020.1.3,MacIntel,60,13407,0.5,,,,,,,,,,,,,,,,,,,,,,,,,,,,,,,,,,,,,,,,,,,,,,,,,,,,,,,,,,,,,,,,,
,,,,,,,,,,,,a,Incorrect,0,71,71,92,1,t5.png,t1.png,4,9.55E-11,19,Female,2020-08-16_10h37.16.500,torte-2b,2020.1.3,MacIntel,60,13407,2.1,,,,,,,,,,,,,,,,,,,,,,,,,,,,,,,,,,,,,,,,,,,,,,,,,,,,,,,,,,,,,,,,,
,,,,,,,,,,,,l,Correct!,0,72,72,74,1,t5.png,t1.png,4,9.55E-11,19,Female,2020-08-16_10h37.16.500,torte-2b,2020.1.3,MacIntel,60,13407,0.7,,,,,,,,,,,,,,,,,,,,,,,,,,,,,,,,,,,,,,,,,,,,,,,,,,,,,,,,,,,,,,,,,
,,,,,,,,,,,,a,Incorrect,0,73,73,81,1,t3.png,t1.png,2,0.056466,19,Female,2020-08-16_10h37.16.500,torte-2b,2020.1.3,MacIntel,60,13407,1.6,,,,,,,,,,,,,,,,,,,,,,,,,,,,,,,,,,,,,,,,,,,,,,,,,,,,,,,,,,,,,,,,,
,,,,,,,,,,,,l,Correct!,0,74,74,63,1,t1.png,t5.png,4,9.55E-11,19,Female,2020-08-16_10h37.16.500,torte-2b,2020.1.3,MacIntel,60,13407,0.8,,,,,,,,,,,,,,,,,,,,,,,,,,,,,,,,,,,,,,,,,,,,,,,,,,,,,,,,,,,,,,,,,
,,,,,,,,,,,,a,Correct!,0,75,75,86,1,t5.png,t4.png,1,0.90025,19,Female,2020-08-16_10h37.16.500,torte-2b,2020.1.3,MacIntel,60,13407,1.3,,,,,,,,,,,,,,,,,,,,,,,,,,,,,,,,,,,,,,,,,,,,,,,,,,,,,,,,,,,,,,,,,
,,,,,,,,,,,,l,Incorrect,0,76,76,12,1,t5.png,t5.png,0,0.97829,19,Female,2020-08-16_10h37.16.500,torte-2b,2020.1.3,MacIntel,60,13407,0.8,,,,,,,,,,,,,,,,,,,,,,,,,,,,,,,,,,,,,,,,,,,,,,,,,,,,,,,,,,,,,,,,,
,,,,,,,,,,,,a,Incorrect,0,77,77,105,1,t4.png,t1.png,3,0.059078,19,Female,2020-08-16_10h37.16.500,torte-2b,2020.1.3,MacIntel,60,13407,0.8,,,,,,,,,,,,,,,,,,,,,,,,,,,,,,,,,,,,,,,,,,,,,,,,,,,,,,,,,,,,,,,,,
,,,,,,,,,,,,l,Incorrect,0,78,78,41,1,t4.png,t5.png,1,0.90025,19,Female,2020-08-16_10h37.16.500,torte-2b,2020.1.3,MacIntel,60,13407,0.5,,,,,,,,,,,,,,,,,,,,,,,,,,,,,,,,,,,,,,,,,,,,,,,,,,,,,,,,,,,,,,,,,
,,,,,,,,,,,,a,Incorrect,0,79,79,50,1,t1.png,t5.png,4,9.55E-11,19,Female,2020-08-16_10h37.16.500,torte-2b,2020.1.3,MacIntel,60,13407,0.6,,,,,,,,,,,,,,,,,,,,,,,,,,,,,,,,,,,,,,,,,,,,,,,,,,,,,,,,,,,,,,,,,
,,,,,,,,,,,,l,Correct!,0,80,80,27,1,t1.png,t5.png,4,9.55E-11,19,Female,2020-08-16_10h37.16.500,torte-2b,2020.1.3,MacIntel,60,13407,0.3,,,,,,,,,,,,,,,,,,,,,,,,,,,,,,,,,,,,,,,,,,,,,,,,,,,,,,,,,,,,,,,,,
,,,,,,,,,,,,l,Incorrect,0,81,81,101,1,t5.png,t4.png,1,0.90025,19,Female,2020-08-16_10h37.16.500,torte-2b,2020.1.3,MacIntel,60,13407,0.5,,,,,,,,,,,,,,,,,,,,,,,,,,,,,,,,,,,,,,,,,,,,,,,,,,,,,,,,,,,,,,,,,
,,,,,,,,,,,,a,Incorrect,0,82,82,39,1,t2.png,t4.png,2,0.059078,19,Female,2020-08-16_10h37.16.500,torte-2b,2020.1.3,MacIntel,60,13407,0.5,,,,,,,,,,,,,,,,,,,,,,,,,,,,,,,,,,,,,,,,,,,,,,,,,,,,,,,,,,,,,,,,,
,,,,,,,,,,,,l,Correct!,0,83,83,108,1,t3.png,t1.png,2,0.056466,19,Female,2020-08-16_10h37.16.500,torte-2b,2020.1.3,MacIntel,60,13407,0.3,,,,,,,,,,,,,,,,,,,,,,,,,,,,,,,,,,,,,,,,,,,,,,,,,,,,,,,,,,,,,,,,,
,,,,,,,,,,,,l,Incorrect,0,84,84,23,1,t4.png,t5.png,1,0.90025,19,Female,2020-08-16_10h37.16.500,torte-2b,2020.1.3,MacIntel,60,13407,0.6,,,,,,,,,,,,,,,,,,,,,,,,,,,,,,,,,,,,,,,,,,,,,,,,,,,,,,,,,,,,,,,,,
,,,,,,,,,,,,l,Incorrect,0,85,85,5,1,t5.png,t5.png,0,0.97829,19,Female,2020-08-16_10h37.16.500,torte-2b,2020.1.3,MacIntel,60,13407,1.4,,,,,,,,,,,,,,,,,,,,,,,,,,,,,,,,,,,,,,,,,,,,,,,,,,,,,,,,,,,,,,,,,
,,,,,,,,,,,,a,Incorrect,0,86,86,118,1,t1.png,t5.png,4,9.55E-11,19,Female,2020-08-16_10h37.16.500,torte-2b,2020.1.3,MacIntel,60,13407,0.8,,,,,,,,,,,,,,,,,,,,,,,,,,,,,,,,,,,,,,,,,,,,,,,,,,,,,,,,,,,,,,,,,
,,,,,,,,,,,,l,Incorrect,0,87,87,93,1,t5.png,t4.png,1,0.90025,19,Female,2020-08-16_10h37.16.500,torte-2b,2020.1.3,MacIntel,60,13407,0.5,,,,,,,,,,,,,,,,,,,,,,,,,,,,,,,,,,,,,,,,,,,,,,,,,,,,,,,,,,,,,,,,,
,,,,,,,,,,,,a,Correct!,0,88,88,90,1,t4.png,t5.png,1,0.90025,19,Female,2020-08-16_10h37.16.500,torte-2b,2020.1.3,MacIntel,60,13407,0.5,,,,,,,,,,,,,,,,,,,,,,,,,,,,,,,,,,,,,,,,,,,,,,,,,,,,,,,,,,,,,,,,,
,,,,,,,,,,,,a,Correct!,0,89,89,67,1,t3.png,t2.png,1,0.90855,19,Female,2020-08-16_10h37.16.500,torte-2b,2020.1.3,MacIntel,60,13407,0.8,,,,,,,,,,,,,,,,,,,,,,,,,,,,,,,,,,,,,,,,,,,,,,,,,,,,,,,,,,,,,,,,,
,,,,,,,,,,,,a,Correct!,0,90,90,4,1,t3.png,t2.png,1,0.90855,19,Female,2020-08-16_10h37.16.500,torte-2b,2020.1.3,MacIntel,60,13407,0.8,,,,,,,,,,,,,,,,,,,,,,,,,,,,,,,,,,,,,,,,,,,,,,,,,,,,,,,,,,,,,,,,,
,,,,,,,,,,,,a,Incorrect,0,91,91,9,1,t1.png,t5.png,4,9.55E-11,19,Female,2020-08-16_10h37.16.500,torte-2b,2020.1.3,MacIntel,60,13407,0.5,,,,,,,,,,,,,,,,,,,,,,,,,,,,,,,,,,,,,,,,,,,,,,,,,,,,,,,,,,,,,,,,,
,,,,,,,,,,,,l,Correct!,0,92,92,1,1,t3.png,t1.png,2,0.056466,19,Female,2020-08-16_10h37.16.500,torte-2b,2020.1.3,MacIntel,60,13407,0.4,,,,,,,,,,,,,,,,,,,,,,,,,,,,,,,,,,,,,,,,,,,,,,,,,,,,,,,,,,,,,,,,,
,,,,,,,,,,,,l,Incorrect,0,93,93,72,1,t5.png,t5.png,0,0.97829,19,Female,2020-08-16_10h37.16.500,torte-2b,2020.1.3,MacIntel,60,13407,0.7,,,,,,,,,,,,,,,,,,,,,,,,,,,,,,,,,,,,,,,,,,,,,,,,,,,,,,,,,,,,,,,,,
,,,,,,,,,,,,a,Incorrect,0,94,94,51,1,t4.png,t1.png,3,0.059078,19,Female,2020-08-16_10h37.16.500,torte-2b,2020.1.3,MacIntel,60,13407,0.4,,,,,,,,,,,,,,,,,,,,,,,,,,,,,,,,,,,,,,,,,,,,,,,,,,,,,,,,,,,,,,,,,
,,,,,,,,,,,,l,Incorrect,0,95,95,104,1,t4.png,t5.png,1,0.90025,19,Female,2020-08-16_10h37.16.500,torte-2b,2020.1.3,MacIntel,60,13407,0.3,,,,,,,,,,,,,,,,,,,,,,,,,,,,,,,,,,,,,,,,,,,,,,,,,,,,,,,,,,,,,,,,,
,,,,,,,,,,,,l,Incorrect,0,96,96,58,1,t4.png,t5.png,1,0.90025,19,Female,2020-08-16_10h37.16.500,torte-2b,2020.1.3,MacIntel,60,13407,1.3,,,,,,,,,,,,,,,,,,,,,,,,,,,,,,,,,,,,,,,,,,,,,,,,,,,,,,,,,,,,,,,,,
,,,,,,,,,,,,a,Correct!,0,97,97,55,1,t1.png,t1.png,0,0.97829,19,Female,2020-08-16_10h37.16.500,torte-2b,2020.1.3,MacIntel,60,13407,0.9,,,,,,,,,,,,,,,,,,,,,,,,,,,,,,,,,,,,,,,,,,,,,,,,,,,,,,,,,,,,,,,,,
,,,,,,,,,,,,a,Correct!,0,98,98,91,1,t5.png,t4.png,1,0.90025,19,Female,2020-08-16_10h37.16.500,torte-2b,2020.1.3,MacIntel,60,13407,0.6,,,,,,,,,,,,,,,,,,,,,,,,,,,,,,,,,,,,,,,,,,,,,,,,,,,,,,,,,,,,,,,,,
,,,,,,,,,,,,a,Incorrect,0,99,99,32,1,t3.png,t2.png,1,0.90855,19,Female,2020-08-16_10h37.16.500,torte-2b,2020.1.3,MacIntel,60,13407,1.1,,,,,,,,,,,,,,,,,,,,,,,,,,,,,,,,,,,,,,,,,,,,,,,,,,,,,,,,,,,,,,,,,
,,,,,,,,,,,,l,Incorrect,0,100,100,29,1,t3.png,t2.png,1,0.90855,19,Female,2020-08-16_10h37.16.500,torte-2b,2020.1.3,MacIntel,60,13407,0.9,,,,,,,,,,,,,,,,,,,,,,,,,,,,,,,,,,,,,,,,,,,,,,,,,,,,,,,,,,,,,,,,,
,,,,,,,,,,,,a,Correct!,0,101,101,100,1,t3.png,t2.png,1,0.90855,19,Female,2020-08-16_10h37.16.500,torte-2b,2020.1.3,MacIntel,60,13407,0.3,,,,,,,,,,,,,,,,,,,,,,,,,,,,,,,,,,,,,,,,,,,,,,,,,,,,,,,,,,,,,,,,,
,,,,,,,,,,,,a,Incorrect,0,102,102,44,1,t1.png,t4.png,3,0.0000131,19,Female,2020-08-16_10h37.16.500,torte-2b,2020.1.3,MacIntel,60,13407,1,,,,,,,,,,,,,,,,,,,,,,,,,,,,,,,,,,,,,,,,,,,,,,,,,,,,,,,,,,,,,,,,,
,,,,,,,,,,,,l,Correct!,0,103,103,10,1,t4.png,t1.png,3,0.059078,19,Female,2020-08-16_10h37.16.500,torte-2b,2020.1.3,MacIntel,60,13407,0.6,,,,,,,,,,,,,,,,,,,,,,,,,,,,,,,,,,,,,,,,,,,,,,,,,,,,,,,,,,,,,,,,,
,,,,,,,,,,,,l,Incorrect,0,104,104,31,1,t1.png,t1.png,0,0.97829,19,Female,2020-08-16_10h37.16.500,torte-2b,2020.1.3,MacIntel,60,13407,0.9,,,,,,,,,,,,,,,,,,,,,,,,,,,,,,,,,,,,,,,,,,,,,,,,,,,,,,,,,,,,,,,,,
,,,,,,,,,,,,a,Incorrect,0,105,105,119,1,t5.png,t4.png,1,0.90025,19,Female,2020-08-16_10h37.16.500,torte-2b,2020.1.3,MacIntel,60,13407,0.3,,,,,,,,,,,,,,,,,,,,,,,,,,,,,,,,,,,,,,,,,,,,,,,,,,,,,,,,,,,,,,,,,
,,,,,,,,,,,,l,Correct!,0,106,106,34,1,t1.png,t5.png,4,9.55E-11,19,Female,2020-08-16_10h37.16.500,torte-2b,2020.1.3,MacIntel,60,13407,0.4,,,,,,,,,,,,,,,,,,,,,,,,,,,,,,,,,,,,,,,,,,,,,,,,,,,,,,,,,,,,,,,,,
,,,,,,,,,,,,l,Correct!,0,107,107,96,1,t2.png,t4.png,2,0.059078,19,Female,2020-08-16_10h37.16.500,torte-2b,2020.1.3,MacIntel,60,13407,0.8,,,,,,,,,,,,,,,,,,,,,,,,,,,,,,,,,,,,,,,,,,,,,,,,,,,,,,,,,,,,,,,,,
,,,,,,,,,,,,l,Correct!,0,108,108,49,1,t5.png,t1.png,4,9.55E-11,19,Female,2020-08-16_10h37.16.500,torte-2b,2020.1.3,MacIntel,60,13407,0.6,,,,,,,,,,,,,,,,,,,,,,,,,,,,,,,,,,,,,,,,,,,,,,,,,,,,,,,,,,,,,,,,,
,,,,,,,,,,,,l,Incorrect,0,109,109,111,1,t1.png,t1.png,0,0.97829,19,Female,2020-08-16_10h37.16.500,torte-2b,2020.1.3,MacIntel,60,13407,0.7,,,,,,,,,,,,,,,,,,,,,,,,,,,,,,,,,,,,,,,,,,,,,,,,,,,,,,,,,,,,,,,,,
,,,,,,,,,,,,a,Correct!,0,110,110,69,1,t5.png,t4.png,1,0.90025,19,Female,2020-08-16_10h37.16.500,torte-2b,2020.1.3,MacIntel,60,13407,0.5,,,,,,,,,,,,,,,,,,,,,,,,,,,,,,,,,,,,,,,,,,,,,,,,,,,,,,,,,,,,,,,,,
,,,,,,,,,,,,a,Incorrect,0,111,111,40,1,t2.png,t4.png,2,0.059078,19,Female,2020-08-16_10h37.16.500,torte-2b,2020.1.3,MacIntel,60,13407,0.7,,,,,,,,,,,,,,,,,,,,,,,,,,,,,,,,,,,,,,,,,,,,,,,,,,,,,,,,,,,,,,,,,
,,,,,,,,,,,,l,Incorrect,0,112,112,42,1,t5.png,t5.png,0,0.97829,19,Female,2020-08-16_10h37.16.500,torte-2b,2020.1.3,MacIntel,60,13407,0.5,,,,,,,,,,,,,,,,,,,,,,,,,,,,,,,,,,,,,,,,,,,,,,,,,,,,,,,,,,,,,,,,,
,,,,,,,,,,,,a,Incorrect,0,113,113,102,1,t2.png,t4.png,2,0.059078,19,Female,2020-08-16_10h37.16.500,torte-2b,2020.1.3,MacIntel,60,13407,0.1,,,,,,,,,,,,,,,,,,,,,,,,,,,,,,,,,,,,,,,,,,,,,,,,,,,,,,,,,,,,,,,,,
,,,,,,,,,,,,l,Correct!,0,114,114,107,1,t1.png,t4.png,3,0.0000131,19,Female,2020-08-16_10h37.16.500,torte-2b,2020.1.3,MacIntel,60,13407,1,,,,,,,,,,,,,,,,,,,,,,,,,,,,,,,,,,,,,,,,,,,,,,,,,,,,,,,,,,,,,,,,,
,,,,,,,,,,,,l,Incorrect,0,115,115,45,1,t4.png,t5.png,1,0.90025,19,Female,2020-08-16_10h37.16.500,torte-2b,2020.1.3,MacIntel,60,13407,0.9,,,,,,,,,,,,,,,,,,,,,,,,,,,,,,,,,,,,,,,,,,,,,,,,,,,,,,,,,,,,,,,,,
,,,,,,,,,,,,a,Incorrect,0,116,116,94,1,t3.png,t1.png,2,0.056466,19,Female,2020-08-16_10h37.16.500,torte-2b,2020.1.3,MacIntel,60,13407,0.3,,,,,,,,,,,,,,,,,,,,,,,,,,,,,,,,,,,,,,,,,,,,,,,,,,,,,,,,,,,,,,,,,
,,,,,,,,,,,,l,Incorrect,0,117,117,56,1,t2.png,t3.png,1,0.90855,19,Female,2020-08-16_10h37.16.500,torte-2b,2020.1.3,MacIntel,60,13407,0.4,,,,,,,,,,,,,,,,,,,,,,,,,,,,,,,,,,,,,,,,,,,,,,,,,,,,,,,,,,,,,,,,,
,,,,,,,,,,,,a,Incorrect,0,118,118,103,1,t4.png,t1.png,3,0.059078,19,Female,2020-08-16_10h37.16.500,torte-2b,2020.1.3,MacIntel,60,13407,0.4,,,,,,,,,,,,,,,,,,,,,,,,,,,,,,,,,,,,,,,,,,,,,,,,,,,,,,,,,,,,,,,,,
,,,,,,,,,,,,l,Incorrect,0,119,119,65,1,t5.png,t5.png,0,0.97829,19,Female,2020-08-16_10h37.16.500,torte-2b,2020.1.3,MacIntel,60,13407,0.2,,,,,,,,,,,,,,,,,,,,,,,,,,,,,,,,,,,,,,,,,,,,,,,,,,,,,,,,,,,,,,,,,
,,,,,,,,,,,,l,Incorrect,,,,,,t1.png,t2.png,1,0.90025,19,Female,2020-08-16_10h37.16.500,torte-2b,2020.1.3,MacIntel,60,13407,1.2,space,4.2,space,24.1,0,0,0,6,1,,,,,,,,,,,,,,,,,,,,,,,,,,,,,,,,,,,,,,,,,,,,,,,,,,,,,,,,
,,,,,,,,,,,,a,Correct!,,,,,,t3.png,t2.png,1,0.90855,19,Female,2020-08-16_10h37.16.500,torte-2b,2020.1.3,MacIntel,60,13407,1.4,,,,,0,1,1,10,1,,,,,,,,,,,,,,,,,,,,,,,,,,,,,,,,,,,,,,,,,,,,,,,,,,,,,,,,
,,,,,,,,,,,,l,Correct!,,,,,,t4.png,t5.png,1,0.90025,19,Female,2020-08-16_10h37.16.500,torte-2b,2020.1.3,MacIntel,60,13407,0.7,,,,,0,2,2,21,1,,,,,,,,,,,,,,,,,,,,,,,,,,,,,,,,,,,,,,,,,,,,,,,,,,,,,,,,
,,,,,,,,,,,,l,Incorrect,,,,,,t5.png,t5.png,0,0.97829,19,Female,2020-08-16_10h37.16.500,torte-2b,2020.1.3,MacIntel,60,13407,1.4,,,,,0,3,3,77,1,,,,,,,,,,,,,,,,,,,,,,,,,,,,,,,,,,,,,,,,,,,,,,,,,,,,,,,,
,,,,,,,,,,,,a,Incorrect,,,,,,t5.png,t2.png,3,0.0000131,19,Female,2020-08-16_10h37.16.500,torte-2b,2020.1.3,MacIntel,60,13407,1.1,,,,,0,4,4,82,1,,,,,,,,,,,,,,,,,,,,,,,,,,,,,,,,,,,,,,,,,,,,,,,,,,,,,,,,
,,,,,,,,,,,,a,Incorrect,,,,,,t5.png,t2.png,3,0.0000131,19,Female,2020-08-16_10h37.16.500,torte-2b,2020.1.3,MacIntel,60,13407,1.1,,,,,0,5,5,66,1,,,,,,,,,,,,,,,,,,,,,,,,,,,,,,,,,,,,,,,,,,,,,,,,,,,,,,,,
,,,,,,,,,,,,l,Correct!,,,,,,t2.png,t5.png,3,0.0000131,19,Female,2020-08-16_10h37.16.500,torte-2b,2020.1.3,MacIntel,60,13407,0.8,,,,,0,6,6,46,1,,,,,,,,,,,,,,,,,,,,,,,,,,,,,,,,,,,,,,,,,,,,,,,,,,,,,,,,
,,,,,,,,,,,,a,Incorrect,,,,,,t1.png,t5.png,4,9.55E-11,19,Female,2020-08-16_10h37.16.500,torte-2b,2020.1.3,MacIntel,60,13407,1,,,,,0,7,7,1,1,,,,,,,,,,,,,,,,,,,,,,,,,,,,,,,,,,,,,,,,,,,,,,,,,,,,,,,,
,,,,,,,,,,,,l,Incorrect,,,,,,t1.png,t1.png,0,0.978,19,Female,2020-08-16_10h37.16.500,torte-2b,2020.1.3,MacIntel,60,13407,1,,,,,0,8,8,22,1,,,,,,,,,,,,,,,,,,,,,,,,,,,,,,,,,,,,,,,,,,,,,,,,,,,,,,,,
,,,,,,,,,,,,l,Incorrect,,,,,,t2.png,t3.png,1,0.90855,19,Female,2020-08-16_10h37.16.500,torte-2b,2020.1.3,MacIntel,60,13407,0.8,,,,,0,9,9,79,1,,,,,,,,,,,,,,,,,,,,,,,,,,,,,,,,,,,,,,,,,,,,,,,,,,,,,,,,
,,,,,,,,,,,,l,Correct!,,,,,,t3.png,t1.png,2,0.0565,19,Female,2020-08-16_10h37.16.500,torte-2b,2020.1.3,MacIntel,60,13407,2,,,,,0,10,10,40,1,,,,,,,,,,,,,,,,,,,,,,,,,,,,,,,,,,,,,,,,,,,,,,,,,,,,,,,,
,,,,,,,,,,,,a,Incorrect,,,,,,t4.png,t1.png,3,0.059078,19,Female,2020-08-16_10h37.16.500,torte-2b,2020.1.3,MacIntel,60,13407,0.9,,,,,0,11,11,62,1,,,,,,,,,,,,,,,,,,,,,,,,,,,,,,,,,,,,,,,,,,,,,,,,,,,,,,,,
,,,,,,,,,,,,a,Correct!,,,,,,t4.png,t4.png,0,0.98115,19,Female,2020-08-16_10h37.16.500,torte-2b,2020.1.3,MacIntel,60,13407,1.7,,,,,0,12,12,59,1,,,,,,,,,,,,,,,,,,,,,,,,,,,,,,,,,,,,,,,,,,,,,,,,,,,,,,,,
,,,,,,,,,,,,l,Incorrect,,,,,,t2.png,t1.png,1,0.90025,19,Female,2020-08-16_10h37.16.500,torte-2b,2020.1.3,MacIntel,60,13407,0.6,,,,,0,13,13,65,1,,,,,,,,,,,,,,,,,,,,,,,,,,,,,,,,,,,,,,,,,,,,,,,,,,,,,,,,
,,,,,,,,,,,,l,Incorrect,,,,,,t4.png,t1.png,3,0.059078,19,Female,2020-08-16_10h37.16.500,torte-2b,2020.1.3,MacIntel,60,13407,1.5,,,,,0,14,14,75,1,,,,,,,,,,,,,,,,,,,,,,,,,,,,,,,,,,,,,,,,,,,,,,,,,,,,,,,,
,,,,,,,,,,,,l,Correct!,,,,,,t1.png,t3.png,2,0.056466,19,Female,2020-08-16_10h37.16.500,torte-2b,2020.1.3,MacIntel,60,13407,1.3,,,,,0,15,15,32,1,,,,,,,,,,,,,,,,,,,,,,,,,,,,,,,,,,,,,,,,,,,,,,,,,,,,,,,,
,,,,,,,,,,,,l,Correct!,,,,,,t1.png,t5.png,4,9.55E-11,19,Female,2020-08-16_10h37.16.500,torte-2b,2020.1.3,MacIntel,60,13407,0.9,,,,,0,16,16,118,1,,,,,,,,,,,,,,,,,,,,,,,,,,,,,,,,,,,,,,,,,,,,,,,,,,,,,,,,
,,,,,,,,,,,,a,Correct!,,,,,,t1.png,t1.png,0,0.978,19,Female,2020-08-16_10h37.16.500,torte-2b,2020.1.3,MacIntel,60,13407,0.4,,,,,0,17,17,13,1,,,,,,,,,,,,,,,,,,,,,,,,,,,,,,,,,,,,,,,,,,,,,,,,,,,,,,,,
,,,,,,,,,,,,a,Correct!,,,,,,t3.png,t5.png,2,0.0565,19,Female,2020-08-16_10h37.16.500,torte-2b,2020.1.3,MacIntel,60,13407,0.7,,,,,0,18,18,71,1,,,,,,,,,,,,,,,,,,,,,,,,,,,,,,,,,,,,,,,,,,,,,,,,,,,,,,,,
,,,,,,,,,,,,l,Incorrect,,,,,,t4.png,t3.png,1,0.909,19,Female,2020-08-16_10h37.16.500,torte-2b,2020.1.3,MacIntel,60,13407,1.6,,,,,0,19,19,119,1,,,,,,,,,,,,,,,,,,,,,,,,,,,,,,,,,,,,,,,,,,,,,,,,,,,,,,,,
,,,,,,,,,,,,a,Correct!,,,,,,t2.png,t2.png,0,0.981,19,Female,2020-08-16_10h37.16.500,torte-2b,2020.1.3,MacIntel,60,13407,0.8,,,,,0,20,20,98,1,,,,,,,,,,,,,,,,,,,,,,,,,,,,,,,,,,,,,,,,,,,,,,,,,,,,,,,,
,,,,,,,,,,,,l,Incorrect,,,,,,t1.png,t2.png,1,0.9,19,Female,2020-08-16_10h37.16.500,torte-2b,2020.1.3,MacIntel,60,13407,0.4,,,,,0,21,21,41,1,,,,,,,,,,,,,,,,,,,,,,,,,,,,,,,,,,,,,,,,,,,,,,,,,,,,,,,,
,,,,,,,,,,,,l,Correct!,,,,,,t5.png,t1.png,4,9.55E-11,19,Female,2020-08-16_10h37.16.500,torte-2b,2020.1.3,MacIntel,60,13407,0.7,,,,,0,22,22,89,1,,,,,,,,,,,,,,,,,,,,,,,,,,,,,,,,,,,,,,,,,,,,,,,,,,,,,,,,
,,,,,,,,,,,,a,Correct!,,,,,,t2.png,t2.png,0,0.98115,19,Female,2020-08-16_10h37.16.500,torte-2b,2020.1.3,MacIntel,60,13407,0.8,,,,,0,23,23,90,1,,,,,,,,,,,,,,,,,,,,,,,,,,,,,,,,,,,,,,,,,,,,,,,,,,,,,,,,
,,,,,,,,,,,,l,Correct!,,,,,,t4.png,t1.png,3,0.059078,19,Female,2020-08-16_10h37.16.500,torte-2b,2020.1.3,MacIntel,60,13407,1,,,,,0,24,24,57,1,,,,,,,,,,,,,,,,,,,,,,,,,,,,,,,,,,,,,,,,,,,,,,,,,,,,,,,,
,,,,,,,,,,,,l,Correct!,,,,,,t3.png,t5.png,2,0.056466,19,Female,2020-08-16_10h37.16.500,torte-2b,2020.1.3,MacIntel,60,13407,1.4,,,,,0,25,25,47,1,,,,,,,,,,,,,,,,,,,,,,,,,,,,,,,,,,,,,,,,,,,,,,,,,,,,,,,,
,,,,,,,,,,,,a,Incorrect,,,,,,t1.png,t4.png,3,0.0000131,19,Female,2020-08-16_10h37.16.500,torte-2b,2020.1.3,MacIntel,60,13407,0.3,,,,,0,26,26,74,1,,,,,,,,,,,,,,,,,,,,,,,,,,,,,,,,,,,,,,,,,,,,,,,,,,,,,,,,
,,,,,,,,,,,,l,Incorrect,,,,,,t2.png,t1.png,1,0.9,19,Female,2020-08-16_10h37.16.500,torte-2b,2020.1.3,MacIntel,60,13407,0.8,,,,,0,27,27,93,1,,,,,,,,,,,,,,,,,,,,,,,,,,,,,,,,,,,,,,,,,,,,,,,,,,,,,,,,
,,,,,,,,,,,,a,Correct!,,,,,,t2.png,t3.png,1,0.90855,19,Female,2020-08-16_10h37.16.500,torte-2b,2020.1.3,MacIntel,60,13407,1.3,,,,,0,28,28,113,1,,,,,,,,,,,,,,,,,,,,,,,,,,,,,,,,,,,,,,,,,,,,,,,,,,,,,,,,
,,,,,,,,,,,,l,Incorrect,,,,,,t1.png,t2.png,1,0.9,19,Female,2020-08-16_10h37.16.500,torte-2b,2020.1.3,MacIntel,60,13407,0.7,,,,,0,29,29,17,1,,,,,,,,,,,,,,,,,,,,,,,,,,,,,,,,,,,,,,,,,,,,,,,,,,,,,,,,
,,,,,,,,,,,,a,Correct!,,,,,,t5.png,t5.png,0,0.97829,19,Female,2020-08-16_10h37.16.500,torte-2b,2020.1.3,MacIntel,60,13407,0.9,,,,,0,30,30,35,1,,,,,,,,,,,,,,,,,,,,,,,,,,,,,,,,,,,,,,,,,,,,,,,,,,,,,,,,
,,,,,,,,,,,,l,Correct!,,,,,,t5.png,t1.png,4,9.55E-11,19,Female,2020-08-16_10h37.16.500,torte-2b,2020.1.3,MacIntel,60,13407,0.6,,,,,0,31,31,101,1,,,,,,,,,,,,,,,,,,,,,,,,,,,,,,,,,,,,,,,,,,,,,,,,,,,,,,,,
,,,,,,,,,,,,l,Incorrect,,,,,,t4.png,t4.png,0,0.98115,19,Female,2020-08-16_10h37.16.500,torte-2b,2020.1.3,MacIntel,60,13407,0.6,,,,,0,32,32,68,1,,,,,,,,,,,,,,,,,,,,,,,,,,,,,,,,,,,,,,,,,,,,,,,,,,,,,,,,
,,,,,,,,,,,,l,Incorrect,,,,,,t1.png,t2.png,1,0.9,19,Female,2020-08-16_10h37.16.500,torte-2b,2020.1.3,MacIntel,60,13407,1,,,,,0,33,33,61,1,,,,,,,,,,,,,,,,,,,,,,,,,,,,,,,,,,,,,,,,,,,,,,,,,,,,,,,,
,,,,,,,,,,,,l,Correct!,,,,,,t3.png,t1.png,2,0.0565,19,Female,2020-08-16_10h37.16.500,torte-2b,2020.1.3,MacIntel,60,13407,1.2,,,,,0,34,34,104,1,,,,,,,,,,,,,,,,,,,,,,,,,,,,,,,,,,,,,,,,,,,,,,,,,,,,,,,,
,,,,,,,,,,,,a,Incorrect,,,,,,t2.png,t5.png,3,0.0000131,19,Female,2020-08-16_10h37.16.500,torte-2b,2020.1.3,MacIntel,60,13407,1,,,,,0,35,35,115,1,,,,,,,,,,,,,,,,,,,,,,,,,,,,,,,,,,,,,,,,,,,,,,,,,,,,,,,,
,,,,,,,,,,,,l,Incorrect,,,,,,t4.png,t4.png,0,0.98115,19,Female,2020-08-16_10h37.16.500,torte-2b,2020.1.3,MacIntel,60,13407,0.7,,,,,0,36,36,88,1,,,,,,,,,,,,,,,,,,,,,,,,,,,,,,,,,,,,,,,,,,,,,,,,,,,,,,,,
,,,,,,,,,,,,a,Correct!,,,,,,t4.png,t4.png,0,0.98115,19,Female,2020-08-16_10h37.16.500,torte-2b,2020.1.3,MacIntel,60,13407,0.6,,,,,0,37,37,19,1,,,,,,,,,,,,,,,,,,,,,,,,,,,,,,,,,,,,,,,,,,,,,,,,,,,,,,,,
,,,,,,,,,,,,a,Incorrect,,,,,,t3.png,t1.png,2,0.056466,19,Female,2020-08-16_10h37.16.500,torte-2b,2020.1.3,MacIntel,60,13407,0.6,,,,,0,38,38,109,1,,,,,,,,,,,,,,,,,,,,,,,,,,,,,,,,,,,,,,,,,,,,,,,,,,,,,,,,
,,,,,,,,,,,,l,Correct!,,,,,,t5.png,t3.png,2,0.056466,19,Female,2020-08-16_10h37.16.500,torte-2b,2020.1.3,MacIntel,60,13407,0.7,,,,,0,39,39,27,1,,,,,,,,,,,,,,,,,,,,,,,,,,,,,,,,,,,,,,,,,,,,,,,,,,,,,,,,
,,,,,,,,,,,,a,Incorrect,,,,,,t5.png,t3.png,2,0.056466,19,Female,2020-08-16_10h37.16.500,torte-2b,2020.1.3,MacIntel,60,13407,0.3,,,,,0,40,40,37,1,,,,,,,,,,,,,,,,,,,,,,,,,,,,,,,,,,,,,,,,,,,,,,,,,,,,,,,,
,,,,,,,,,,,,l,Incorrect,,,,,,t2.png,t2.png,0,0.98115,19,Female,2020-08-16_10h37.16.500,torte-2b,2020.1.3,MacIntel,60,13407,0.4,,,,,0,41,41,69,1,,,,,,,,,,,,,,,,,,,,,,,,,,,,,,,,,,,,,,,,,,,,,,,,,,,,,,,,
,,,,,,,,,,,,a,Correct!,,,,,,t3.png,t4.png,1,0.90855,19,Female,2020-08-16_10h37.16.500,torte-2b,2020.1.3,MacIntel,60,13407,0.4,,,,,0,42,42,9,1,,,,,,,,,,,,,,,,,,,,,,,,,,,,,,,,,,,,,,,,,,,,,,,,,,,,,,,,
,,,,,,,,,,,,l,Incorrect,,,,,,t4.png,t3.png,1,0.909,19,Female,2020-08-16_10h37.16.500,torte-2b,2020.1.3,MacIntel,60,13407,0.4,,,,,0,43,43,107,1,,,,,,,,,,,,,,,,,,,,,,,,,,,,,,,,,,,,,,,,,,,,,,,,,,,,,,,,
,,,,,,,,,,,,a,Incorrect,,,,,,t5.png,t2.png,3,0.0000131,19,Female,2020-08-16_10h37.16.500,torte-2b,2020.1.3,MacIntel,60,13407,0.3,,,,,0,44,44,83,1,,,,,,,,,,,,,,,,,,,,,,,,,,,,,,,,,,,,,,,,,,,,,,,,,,,,,,,,
,,,,,,,,,,,,l,Correct!,,,,,,t1.png,t3.png,2,0.056466,19,Female,2020-08-16_10h37.16.500,torte-2b,2020.1.3,MacIntel,60,13407,0.2,,,,,0,45,45,24,1,,,,,,,,,,,,,,,,,,,,,,,,,,,,,,,,,,,,,,,,,,,,,,,,,,,,,,,,
,,,,,,,,,,,,l,Incorrect,,,,,,t5.png,t4.png,1,0.90025,19,Female,2020-08-16_10h37.16.500,torte-2b,2020.1.3,MacIntel,60,13407,1.3,,,,,0,46,46,25,1,,,,,,,,,,,,,,,,,,,,,,,,,,,,,,,,,,,,,,,,,,,,,,,,,,,,,,,,
,,,,,,,,,,,,a,Correct!,,,,,,t3.png,t4.png,1,0.90855,19,Female,2020-08-16_10h37.16.500,torte-2b,2020.1.3,MacIntel,60,13407,0.4,,,,,0,47,47,103,1,,,,,,,,,,,,,,,,,,,,,,,,,,,,,,,,,,,,,,,,,,,,,,,,,,,,,,,,
,,,,,,,,,,,,l,Incorrect,,,,,,t4.png,t5.png,1,0.9,19,Female,2020-08-16_10h37.16.500,torte-2b,2020.1.3,MacIntel,60,13407,0.4,,,,,0,48,48,81,1,,,,,,,,,,,,,,,,,,,,,,,,,,,,,,,,,,,,,,,,,,,,,,,,,,,,,,,,
,,,,,,,,,,,,l,Incorrect,,,,,,t2.png,t1.png,1,0.90025,19,Female,2020-08-16_10h37.16.500,torte-2b,2020.1.3,MacIntel,60,13407,0.3,,,,,0,49,49,105,1,,,,,,,,,,,,,,,,,,,,,,,,,,,,,,,,,,,,,,,,,,,,,,,,,,,,,,,,
,,,,,,,,,,,,l,Incorrect,,,,,,t5.png,t5.png,0,0.97829,19,Female,2020-08-16_10h37.16.500,torte-2b,2020.1.3,MacIntel,60,13407,0.4,,,,,0,50,50,2,1,,,,,,,,,,,,,,,,,,,,,,,,,,,,,,,,,,,,,,,,,,,,,,,,,,,,,,,,
,,,,,,,,,,,,a,Incorrect,,,,,,t5.png,t2.png,3,0.0000131,19,Female,2020-08-16_10h37.16.500,torte-2b,2020.1.3,MacIntel,60,13407,0.3,,,,,0,51,51,43,1,,,,,,,,,,,,,,,,,,,,,,,,,,,,,,,,,,,,,,,,,,,,,,,,,,,,,,,,
,,,,,,,,,,,,l,Incorrect,,,,,,t4.png,t5.png,1,0.90025,19,Female,2020-08-16_10h37.16.500,torte-2b,2020.1.3,MacIntel,60,13407,0.2,,,,,0,52,52,33,1,,,,,,,,,,,,,,,,,,,,,,,,,,,,,,,,,,,,,,,,,,,,,,,,,,,,,,,,
,,,,,,,,,,,,a,Correct!,,,,,,t3.png,t5.png,2,0.056466,19,Female,2020-08-16_10h37.16.500,torte-2b,2020.1.3,MacIntel,60,13407,0.2,,,,,0,53,53,60,1,,,,,,,,,,,,,,,,,,,,,,,,,,,,,,,,,,,,,,,,,,,,,,,,,,,,,,,,
,,,,,,,,,,,,l,Correct!,,,,,,t4.png,t1.png,3,0.0000131,19,Female,2020-08-16_10h37.16.500,torte-2b,2020.1.3,MacIntel,60,13407,0.4,,,,,0,54,54,91,1,,,,,,,,,,,,,,,,,,,,,,,,,,,,,,,,,,,,,,,,,,,,,,,,,,,,,,,,
,,,,,,,,,,,,a,Correct!,,,,,,t2.png,t1.png,1,0.90025,19,Female,2020-08-16_10h37.16.500,torte-2b,2020.1.3,MacIntel,60,13407,0.3,,,,,0,55,55,44,1,,,,,,,,,,,,,,,,,,,,,,,,,,,,,,,,,,,,,,,,,,,,,,,,,,,,,,,,
,,,,,,,,,,,,l,Correct!,,,,,,t2.png,t4.png,2,0.059078,19,Female,2020-08-16_10h37.16.500,torte-2b,2020.1.3,MacIntel,60,13407,0.3,,,,,0,56,56,18,1,,,,,,,,,,,,,,,,,,,,,,,,,,,,,,,,,,,,,,,,,,,,,,,,,,,,,,,,
,,,,,,,,,,,,a,Correct!,,,,,,t4.png,t3.png,1,0.90855,19,Female,2020-08-16_10h37.16.500,torte-2b,2020.1.3,MacIntel,60,13407,0.4,,,,,0,57,57,56,1,,,,,,,,,,,,,,,,,,,,,,,,,,,,,,,,,,,,,,,,,,,,,,,,,,,,,,,,
,,,,,,,,,,,,l,Correct!,,,,,,t4.png,t1.png,3,0.0000131,19,Female,2020-08-16_10h37.16.500,torte-2b,2020.1.3,MacIntel,60,13407,0.4,,,,,0,58,58,49,1,,,,,,,,,,,,,,,,,,,,,,,,,,,,,,,,,,,,,,,,,,,,,,,,,,,,,,,,
,,,,,,,,,,,,l,Correct!,,,,,,t3.png,t1.png,2,0.056466,19,Female,2020-08-16_10h37.16.500,torte-2b,2020.1.3,MacIntel,60,13407,0.2,,,,,0,59,59,34,1,,,,,,,,,,,,,,,,,,,,,,,,,,,,,,,,,,,,,,,,,,,,,,,,,,,,,,,,
,,,,,,,,,,,,l,Correct!,,,,,,t5.png,t1.png,4,9.55E-11,19,Female,2020-08-16_10h37.16.500,torte-2b,2020.1.3,MacIntel,60,13407,0.4,,,,,0,60,60,117,1,,,,,,,,,,,,,,,,,,,,,,,,,,,,,,,,,,,,,,,,,,,,,,,,,,,,,,,,
,,,,,,,,,,,,a,Correct!,,,,,,t1.png,t1.png,0,0.97829,19,Female,2020-08-16_10h37.16.500,torte-2b,2020.1.3,MacIntel,60,13407,0.3,,,,,0,61,61,4,1,,,,,,,,,,,,,,,,,,,,,,,,,,,,,,,,,,,,,,,,,,,,,,,,,,,,,,,,
,,,,,,,,,,,,l,Incorrect,,,,,,t4.png,t3.png,1,0.90855,19,Female,2020-08-16_10h37.16.500,torte-2b,2020.1.3,MacIntel,60,13407,0.4,,,,,0,62,62,11,1,,,,,,,,,,,,,,,,,,,,,,,,,,,,,,,,,,,,,,,,,,,,,,,,,,,,,,,,
,,,,,,,,,,,,l,Incorrect,,,,,,t3.png,t2.png,1,0.90855,19,Female,2020-08-16_10h37.16.500,torte-2b,2020.1.3,MacIntel,60,13407,0.4,,,,,0,63,63,108,1,,,,,,,,,,,,,,,,,,,,,,,,,,,,,,,,,,,,,,,,,,,,,,,,,,,,,,,,
,,,,,,,,,,,,l,Correct!,,,,,,t2.png,t5.png,3,0.0000131,19,Female,2020-08-16_10h37.16.500,torte-2b,2020.1.3,MacIntel,60,13407,0.4,,,,,0,64,64,85,1,,,,,,,,,,,,,,,,,,,,,,,,,,,,,,,,,,,,,,,,,,,,,,,,,,,,,,,,
,,,,,,,,,,,,a,Incorrect,,,,,,t5.png,t1.png,4,9.55E-11,19,Female,2020-08-16_10h37.16.500,torte-2b,2020.1.3,MacIntel,60,13407,0.2,,,,,0,65,65,15,1,,,,,,,,,,,,,,,,,,,,,,,,,,,,,,,,,,,,,,,,,,,,,,,,,,,,,,,,
,,,,,,,,,,,,l,Incorrect,,,,,,t1.png,t1.png,0,0.97829,19,Female,2020-08-16_10h37.16.500,torte-2b,2020.1.3,MacIntel,60,13407,0.4,,,,,0,66,66,110,1,,,,,,,,,,,,,,,,,,,,,,,,,,,,,,,,,,,,,,,,,,,,,,,,,,,,,,,,
,,,,,,,,,,,,l,Correct!,,,,,,t5.png,t1.png,4,9.55E-11,19,Female,2020-08-16_10h37.16.500,torte-2b,2020.1.3,MacIntel,60,13407,0.3,,,,,0,67,67,31,1,,,,,,,,,,,,,,,,,,,,,,,,,,,,,,,,,,,,,,,,,,,,,,,,,,,,,,,,
,,,,,,,,,,,,a,Incorrect,,,,,,t4.png,t1.png,3,0.0000131,19,Female,2020-08-16_10h37.16.500,torte-2b,2020.1.3,MacIntel,60,13407,0.5,,,,,0,68,68,28,1,,,,,,,,,,,,,,,,,,,,,,,,,,,,,,,,,,,,,,,,,,,,,,,,,,,,,,,,
,,,,,,,,,,,,l,Correct!,,,,,,t1.png,t4.png,3,0.0000131,19,Female,2020-08-16_10h37.16.500,torte-2b,2020.1.3,MacIntel,60,13407,0.3,,,,,0,69,69,23,1,,,,,,,,,,,,,,,,,,,,,,,,,,,,,,,,,,,,,,,,,,,,,,,,,,,,,,,,
,,,,,,,,,,,,a,Correct!,,,,,,t5.png,t5.png,0,0.978,19,Female,2020-08-16_10h37.16.500,torte-2b,2020.1.3,MacIntel,60,13407,0.3,,,,,0,70,70,51,1,,,,,,,,,,,,,,,,,,,,,,,,,,,,,,,,,,,,,,,,,,,,,,,,,,,,,,,,
,,,,,,,,,,,,l,Incorrect,,,,,,t2.png,t2.png,0,0.98115,19,Female,2020-08-16_10h37.16.500,torte-2b,2020.1.3,MacIntel,60,13407,0.4,,,,,0,71,71,7,1,,,,,,,,,,,,,,,,,,,,,,,,,,,,,,,,,,,,,,,,,,,,,,,,,,,,,,,,
,,,,,,,,,,,,l,Correct!,,,,,,t1.png,t3.png,2,0.0565,19,Female,2020-08-16_10h37.16.500,torte-2b,2020.1.3,MacIntel,60,13407,0.2,,,,,0,72,72,42,1,,,,,,,,,,,,,,,,,,,,,,,,,,,,,,,,,,,,,,,,,,,,,,,,,,,,,,,,
,,,,,,,,,,,,l,Incorrect,,,,,,t4.png,t4.png,0,0.98115,19,Female,2020-08-16_10h37.16.500,torte-2b,2020.1.3,MacIntel,60,13407,0.2,,,,,0,73,73,52,1,,,,,,,,,,,,,,,,,,,,,,,,,,,,,,,,,,,,,,,,,,,,,,,,,,,,,,,,
,,,,,,,,,,,,l,Incorrect,,,,,,t3.png,t2.png,1,0.90855,19,Female,2020-08-16_10h37.16.500,torte-2b,2020.1.3,MacIntel,60,13407,0.3,,,,,0,74,74,0,1,,,,,,,,,,,,,,,,,,,,,,,,,,,,,,,,,,,,,,,,,,,,,,,,,,,,,,,,
,,,,,,,,,,,,a,Correct!,,,,,,t2.png,t3.png,1,0.90855,19,Female,2020-08-16_10h37.16.500,torte-2b,2020.1.3,MacIntel,60,13407,0.8,,,,,0,75,75,64,1,,,,,,,,,,,,,,,,,,,,,,,,,,,,,,,,,,,,,,,,,,,,,,,,,,,,,,,,
,,,,,,,,,,,,a,Correct!,,,,,,t4.png,t5.png,1,0.90025,19,Female,2020-08-16_10h37.16.500,torte-2b,2020.1.3,MacIntel,60,13407,0.2,,,,,0,76,76,63,1,,,,,,,,,,,,,,,,,,,,,,,,,,,,,,,,,,,,,,,,,,,,,,,,,,,,,,,,
,,,,,,,,,,,,a,Incorrect,,,,,,t2.png,t5.png,3,0.0000131,19,Female,2020-08-16_10h37.16.500,torte-2b,2020.1.3,MacIntel,60,13407,0.4,,,,,0,77,77,39,1,,,,,,,,,,,,,,,,,,,,,,,,,,,,,,,,,,,,,,,,,,,,,,,,,,,,,,,,
,,,,,,,,,,,,l,Incorrect,,,,,,t5.png,t5.png,0,0.978,19,Female,2020-08-16_10h37.16.500,torte-2b,2020.1.3,MacIntel,60,13407,0.2,,,,,0,78,78,116,1,,,,,,,,,,,,,,,,,,,,,,,,,,,,,,,,,,,,,,,,,,,,,,,,,,,,,,,,
,,,,,,,,,,,,a,Incorrect,,,,,,t3.png,t1.png,2,0.056466,19,Female,2020-08-16_10h37.16.500,torte-2b,2020.1.3,MacIntel,60,13407,0.5,,,,,0,79,79,72,1,,,,,,,,,,,,,,,,,,,,,,,,,,,,,,,,,,,,,,,,,,,,,,,,,,,,,,,,
,,,,,,,,,,,,a,Correct!,,,,,,t5.png,t4.png,1,0.90025,19,Female,2020-08-16_10h37.16.500,torte-2b,2020.1.3,MacIntel,60,13407,0.4,,,,,0,80,80,38,1,,,,,,,,,,,,,,,,,,,,,,,,,,,,,,,,,,,,,,,,,,,,,,,,,,,,,,,,
,,,,,,,,,,,,a,Correct!,,,,,,t3.png,t2.png,1,0.90855,19,Female,2020-08-16_10h37.16.500,torte-2b,2020.1.3,MacIntel,60,13407,0.5,,,,,0,81,81,99,1,,,,,,,,,,,,,,,,,,,,,,,,,,,,,,,,,,,,,,,,,,,,,,,,,,,,,,,,
,,,,,,,,,,,,a,Incorrect,,,,,,t1.png,t4.png,3,0.0000131,19,Female,2020-08-16_10h37.16.500,torte-2b,2020.1.3,MacIntel,60,13407,0.4,,,,,0,82,82,106,1,,,,,,,,,,,,,,,,,,,,,,,,,,,,,,,,,,,,,,,,,,,,,,,,,,,,,,,,
,,,,,,,,,,,,l,Correct!,,,,,,t4.png,t1.png,3,0.059078,19,Female,2020-08-16_10h37.16.500,torte-2b,2020.1.3,MacIntel,60,13407,0.2,,,,,0,83,83,73,1,,,,,,,,,,,,,,,,,,,,,,,,,,,,,,,,,,,,,,,,,,,,,,,,,,,,,,,,
,,,,,,,,,,,,l,Correct!,,,,,,t1.png,t3.png,2,0.0565,19,Female,2020-08-16_10h37.16.500,torte-2b,2020.1.3,MacIntel,60,13407,0.2,,,,,0,84,84,95,1,,,,,,,,,,,,,,,,,,,,,,,,,,,,,,,,,,,,,,,,,,,,,,,,,,,,,,,,
,,,,,,,,,,,,l,Correct!,,,,,,t3.png,t5.png,2,0.056466,19,Female,2020-08-16_10h37.16.500,torte-2b,2020.1.3,MacIntel,60,13407,0.9,,,,,0,85,85,45,1,,,,,,,,,,,,,,,,,,,,,,,,,,,,,,,,,,,,,,,,,,,,,,,,,,,,,,,,
,,,,,,,,,,,,a,Correct!,,,,,,t2.png,t2.png,0,0.98115,19,Female,2020-08-16_10h37.16.500,torte-2b,2020.1.3,MacIntel,60,13407,0.3,,,,,0,86,86,112,1,,,,,,,,,,,,,,,,,,,,,,,,,,,,,,,,,,,,,,,,,,,,,,,,,,,,,,,,
,,,,,,,,,,,,l,Correct!,,,,,,t1.png,t5.png,4,9.55E-11,19,Female,2020-08-16_10h37.16.500,torte-2b,2020.1.3,MacIntel,60,13407,0.6,,,,,0,87,87,3,1,,,,,,,,,,,,,,,,,,,,,,,,,,,,,,,,,,,,,,,,,,,,,,,,,,,,,,,,
,,,,,,,,,,,,a,Incorrect,,,,,,t3.png,t5.png,2,0.056466,19,Female,2020-08-16_10h37.16.500,torte-2b,2020.1.3,MacIntel,60,13407,1,,,,,0,88,88,78,1,,,,,,,,,,,,,,,,,,,,,,,,,,,,,,,,,,,,,,,,,,,,,,,,,,,,,,,,
,,,,,,,,,,,,l,Incorrect,,,,,,t2.png,t3.png,1,0.90855,19,Female,2020-08-16_10h37.16.500,torte-2b,2020.1.3,MacIntel,60,13407,1,,,,,0,89,89,70,1,,,,,,,,,,,,,,,,,,,,,,,,,,,,,,,,,,,,,,,,,,,,,,,,,,,,,,,,
,,,,,,,,,,,,a,Incorrect,,,,,,t5.png,t3.png,2,0.056466,19,Female,2020-08-16_10h37.16.500,torte-2b,2020.1.3,MacIntel,60,13407,0.8,,,,,0,90,90,26,1,,,,,,,,,,,,,,,,,,,,,,,,,,,,,,,,,,,,,,,,,,,,,,,,,,,,,,,,
,,,,,,,,,,,,l,Correct!,,,,,,t5.png,t3.png,2,0.056466,19,Female,2020-08-16_10h37.16.500,torte-2b,2020.1.3,MacIntel,60,13407,0.9,,,,,0,91,91,80,1,,,,,,,,,,,,,,,,,,,,,,,,,,,,,,,,,,,,,,,,,,,,,,,,,,,,,,,,
,,,,,,,,,,,,a,Correct!,,,,,,t4.png,t5.png,1,0.90025,19,Female,2020-08-16_10h37.16.500,torte-2b,2020.1.3,MacIntel,60,13407,0.7,,,,,0,92,92,86,1,,,,,,,,,,,,,,,,,,,,,,,,,,,,,,,,,,,,,,,,,,,,,,,,,,,,,,,,
,,,,,,,,,,,,l,Incorrect,,,,,,t3.png,t4.png,1,0.90855,19,Female,2020-08-16_10h37.16.500,torte-2b,2020.1.3,MacIntel,60,13407,0.6,,,,,0,93,93,5,1,,,,,,,,,,,,,,,,,,,,,,,,,,,,,,,,,,,,,,,,,,,,,,,,,,,,,,,,
,,,,,,,,,,,,l,Correct!,,,,,,t2.png,t4.png,2,0.059078,19,Female,2020-08-16_10h37.16.500,torte-2b,2020.1.3,MacIntel,60,13407,0.7,,,,,0,94,94,53,1,,,,,,,,,,,,,,,,,,,,,,,,,,,,,,,,,,,,,,,,,,,,,,,,,,,,,,,,
,,,,,,,,,,,,a,Correct!,,,,,,t2.png,t1.png,1,0.9,19,Female,2020-08-16_10h37.16.500,torte-2b,2020.1.3,MacIntel,60,13407,1,,,,,0,95,95,100,1,,,,,,,,,,,,,,,,,,,,,,,,,,,,,,,,,,,,,,,,,,,,,,,,,,,,,,,,
,,,,,,,,,,,,l,Incorrect,,,,,,t5.png,t4.png,1,0.9,19,Female,2020-08-16_10h37.16.500,torte-2b,2020.1.3,MacIntel,60,13407,0.4,,,,,0,96,96,55,1,,,,,,,,,,,,,,,,,,,,,,,,,,,,,,,,,,,,,,,,,,,,,,,,,,,,,,,,
,,,,,,,,,,,,a,Incorrect,,,,,,t2.png,t4.png,2,0.059078,19,Female,2020-08-16_10h37.16.500,torte-2b,2020.1.3,MacIntel,60,13407,0.8,,,,,0,97,97,84,1,,,,,,,,,,,,,,,,,,,,,,,,,,,,,,,,,,,,,,,,,,,,,,,,,,,,,,,,
,,,,,,,,,,,,l,Correct!,,,,,,t1.png,t5.png,4,9.55E-11,19,Female,2020-08-16_10h37.16.500,torte-2b,2020.1.3,MacIntel,60,13407,0.3,,,,,0,98,98,30,1,,,,,,,,,,,,,,,,,,,,,,,,,,,,,,,,,,,,,,,,,,,,,,,,,,,,,,,,
,,,,,,,,,,,,a,Incorrect,,,,,,t1.png,t4.png,3,0.0000131,19,Female,2020-08-16_10h37.16.500,torte-2b,2020.1.3,MacIntel,60,13407,0.5,,,,,0,99,99,16,1,,,,,,,,,,,,,,,,,,,,,,,,,,,,,,,,,,,,,,,,,,,,,,,,,,,,,,,,
,,,,,,,,,,,,l,Correct!,,,,,,t1.png,t5.png,4,9.55E-11,19,Female,2020-08-16_10h37.16.500,torte-2b,2020.1.3,MacIntel,60,13407,0.3,,,,,0,100,100,20,1,,,,,,,,,,,,,,,,,,,,,,,,,,,,,,,,,,,,,,,,,,,,,,,,,,,,,,,,
,,,,,,,,,,,,l,Incorrect,,,,,,t1.png,t2.png,1,0.90025,19,Female,2020-08-16_10h37.16.500,torte-2b,2020.1.3,MacIntel,60,13407,0.4,,,,,0,101,101,96,1,,,,,,,,,,,,,,,,,,,,,,,,,,,,,,,,,,,,,,,,,,,,,,,,,,,,,,,,
,,,,,,,,,,,,a,Incorrect,,,,,,t1.png,t3.png,2,0.0565,19,Female,2020-08-16_10h37.16.500,torte-2b,2020.1.3,MacIntel,60,13407,0.4,,,,,0,102,102,12,1,,,,,,,,,,,,,,,,,,,,,,,,,,,,,,,,,,,,,,,,,,,,,,,,,,,,,,,,
,,,,,,,,,,,,l,Correct!,,,,,,t2.png,t5.png,3,0.0000131,19,Female,2020-08-16_10h37.16.500,torte-2b,2020.1.3,MacIntel,60,13407,0.1,,,,,0,103,103,54,1,,,,,,,,,,,,,,,,,,,,,,,,,,,,,,,,,,,,,,,,,,,,,,,,,,,,,,,,
,,,,,,,,,,,,a,Incorrect,,,,,,t2.png,t4.png,2,0.059078,19,Female,2020-08-16_10h37.16.500,torte-2b,2020.1.3,MacIntel,60,13407,0.2,,,,,0,104,104,97,1,,,,,,,,,,,,,,,,,,,,,,,,,,,,,,,,,,,,,,,,,,,,,,,,,,,,,,,,
,,,,,,,,,,,,l,Correct!,,,,,,t5.png,t2.png,3,0.0000131,19,Female,2020-08-16_10h37.16.500,torte-2b,2020.1.3,MacIntel,60,13407,0.5,,,,,0,105,105,48,1,,,,,,,,,,,,,,,,,,,,,,,,,,,,,,,,,,,,,,,,,,,,,,,,,,,,,,,,
,,,,,,,,,,,,l,Correct!,,,,,,t4.png,t1.png,3,0.059078,19,Female,2020-08-16_10h37.16.500,torte-2b,2020.1.3,MacIntel,60,13407,0.5,,,,,0,106,106,87,1,,,,,,,,,,,,,,,,,,,,,,,,,,,,,,,,,,,,,,,,,,,,,,,,,,,,,,,,
,,,,,,,,,,,,l,Incorrect,,,,,,t4.png,t3.png,1,0.90855,19,Female,2020-08-16_10h37.16.500,torte-2b,2020.1.3,MacIntel,60,13407,0.1,,,,,0,107,107,29,1,,,,,,,,,,,,,,,,,,,,,,,,,,,,,,,,,,,,,,,,,,,,,,,,,,,,,,,,
,,,,,,,,,,,,a,Correct!,,,,,,t5.png,t4.png,1,0.9,19,Female,2020-08-16_10h37.16.500,torte-2b,2020.1.3,MacIntel,60,13407,0.3,,,,,0,108,108,92,1,,,,,,,,,,,,,,,,,,,,,,,,,,,,,,,,,,,,,,,,,,,,,,,,,,,,,,,,
,,,,,,,,,,,,l,Correct!,,,,,,t3.png,t2.png,1,0.90855,19,Female,2020-08-16_10h37.16.500,torte-2b,2020.1.3,MacIntel,60,13407,0.1,,,,,0,109,109,94,1,,,,,,,,,,,,,,,,,,,,,,,,,,,,,,,,,,,,,,,,,,,,,,,,,,,,,,,,
,,,,,,,,,,,,l,Correct!,,,,,,t4.png,t1.png,3,0.0000131,19,Female,2020-08-16_10h37.16.500,torte-2b,2020.1.3,MacIntel,60,13407,0.2,,,,,0,110,110,76,1,,,,,,,,,,,,,,,,,,,,,,,,,,,,,,,,,,,,,,,,,,,,,,,,,,,,,,,,
,,,,,,,,,,,,a,Incorrect,,,,,,t5.png,t3.png,2,0.0565,19,Female,2020-08-16_10h37.16.500,torte-2b,2020.1.3,MacIntel,60,13407,0.2,,,,,0,111,111,50,1,,,,,,,,,,,,,,,,,,,,,,,,,,,,,,,,,,,,,,,,,,,,,,,,,,,,,,,,
,,,,,,,,,,,,l,Incorrect,,,,,,t2.png,t3.png,1,0.909,19,Female,2020-08-16_10h37.16.500,torte-2b,2020.1.3,MacIntel,60,13407,0.2,,,,,0,112,112,8,1,,,,,,,,,,,,,,,,,,,,,,,,,,,,,,,,,,,,,,,,,,,,,,,,,,,,,,,,
,,,,,,,,,,,,a,Incorrect,,,,,,t1.png,t4.png,3,0.0000131,19,Female,2020-08-16_10h37.16.500,torte-2b,2020.1.3,MacIntel,60,13407,0.3,,,,,0,113,113,36,1,,,,,,,,,,,,,,,,,,,,,,,,,,,,,,,,,,,,,,,,,,,,,,,,,,,,,,,,
,,,,,,,,,,,,l,Incorrect,,,,,,t5.png,t4.png,1,0.90025,19,Female,2020-08-16_10h37.16.500,torte-2b,2020.1.3,MacIntel,60,13407,0.2,,,,,0,114,114,14,1,,,,,,,,,,,,,,,,,,,,,,,,,,,,,,,,,,,,,,,,,,,,,,,,,,,,,,,,
,,,,,,,,,,,,a,Correct!,,,,,,t1.png,t1.png,0,0.97829,19,Female,2020-08-16_10h37.16.500,torte-2b,2020.1.3,MacIntel,60,13407,0.3,,,,,0,115,115,114,1,,,,,,,,,,,,,,,,,,,,,,,,,,,,,,,,,,,,,,,,,,,,,,,,,,,,,,,,
,,,,,,,,,,,,l,Incorrect,,,,,,t3.png,t4.png,1,0.90855,19,Female,2020-08-16_10h37.16.500,torte-2b,2020.1.3,MacIntel,60,13407,0.9,,,,,0,116,116,58,1,,,,,,,,,,,,,,,,,,,,,,,,,,,,,,,,,,,,,,,,,,,,,,,,,,,,,,,,
,,,,,,,,,,,,l,Incorrect,,,,,,t3.png,t4.png,1,0.90855,19,Female,2020-08-16_10h37.16.500,torte-2b,2020.1.3,MacIntel,60,13407,0.4,,,,,0,117,117,111,1,,,,,,,,,,,,,,,,,,,,,,,,,,,,,,,,,,,,,,,,,,,,,,,,,,,,,,,,
,,,,,,,,,,,,l,Correct!,,,,,,t4.png,t1.png,3,0.0000131,19,Female,2020-08-16_10h37.16.500,torte-2b,2020.1.3,MacIntel,60,13407,0.5,,,,,0,118,118,102,1,,,,,,,,,,,,,,,,,,,,,,,,,,,,,,,,,,,,,,,,,,,,,,,,,,,,,,,,
,,,,,,,,,,,,l,Correct!,,,,,,t2.png,t4.png,2,0.059078,19,Female,2020-08-16_10h37.16.500,torte-2b,2020.1.3,MacIntel,60,13407,0.2,,,,,0,119,119,67,1,,,,,,,,,,,,,,,,,,,,,,,,,,,,,,,,,,,,,,,,,,,,,,,,,,,,,,,,
,,,,,,,,,,,,,,,,,,,,,,,19,Female,2020-08-16_10h37.16.500,torte-2b,2020.1.3,MacIntel,60,13407,,space,2.2,,,,,,,,space,36.2,,0,0,0,0,1,6,,,,,,,,,,,,,,,,,,,,,,,,,,,,,,,,,,,,,,,,,,,,,,,
,,,,,,,,,,,,,,,,,,,,,,,19,Female,2020-08-16_10h37.16.500,torte-2b,2020.1.3,MacIntel,60,13407,,,,,,,,,,,,,,0,1,1,1,1,7,,,,,,,,,,,,,,,,,,,,,,,,,,,,,,,,,,,,,,,,,,,,,,,
,,,,,,,,,,,,,,,,,,,,,,,19,Female,2020-08-16_10h37.16.500,torte-2b,2020.1.3,MacIntel,60,13407,,,,,,,,,,,,,space,0,2,2,2,1,6,0.4,,,,,,,,,,,,,,,,,,,,,,,,,,,,,,,,,,,,,,,,,,,,,,
,,,,,,,,,,,,,,,,,,,,,,,19,Female,2020-08-16_10h37.16.500,torte-2b,2020.1.3,MacIntel,60,13407,,,,,,,,,,,,,,0,3,3,3,1,7,,,,,,,,,,,,,,,,,,,,,,,,,,,,,,,,,,,,,,,,,,,,,,,
,,,,,,,,,,,,,,,,,,,,,,,19,Female,2020-08-16_10h37.16.500,torte-2b,2020.1.3,MacIntel,60,13407,,,,,,,,,,,,,space,0,4,4,4,1,5,0.4,,,,,,,,,,,,,,,,,,,,,,,,,,,,,,,,,,,,,,,,,,,,,,
,,,,,,,,,,,,,,,,,,,,,,,19,Female,2020-08-16_10h37.16.500,torte-2b,2020.1.3,MacIntel,60,13407,,,,,,,,,,,,,space,0,5,5,5,1,7,0.6,,,,,,,,,,,,,,,,,,,,,,,,,,,,,,,,,,,,,,,,,,,,,,
,,,,,,,,,,,,,,,,,,,,,,,19,Female,2020-08-16_10h37.16.500,torte-2b,2020.1.3,MacIntel,60,13407,,,,,,,,,,,,,,0,6,6,6,1,2,,,,,,,,,,,,,,,,,,,,,,,,,,,,,,,,,,,,,,,,,,,,,,,
,,,,,,,,,,,,,,,,,,,,,,,19,Female,2020-08-16_10h37.16.500,torte-2b,2020.1.3,MacIntel,60,13407,,,,,,,,,,,,,,0,7,7,7,1,4,,,,,,,,,,,,,,,,,,,,,,,,,,,,,,,,,,,,,,,,,,,,,,,
,,,,,,,,,,,,,,,,,,,,,,,19,Female,2020-08-16_10h37.16.500,torte-2b,2020.1.3,MacIntel,60,13407,,,,,,,,,,,,,,0,8,8,8,1,7,,,,,,,,,,,,,,,,,,,,,,,,,,,,,,,,,,,,,,,,,,,,,,,
,,,,,,,,,,,,,,,,,,,,,,,19,Female,2020-08-16_10h37.16.500,torte-2b,2020.1.3,MacIntel,60,13407,,,,,,,,,,,,,,0,9,9,9,1,4,,,,,,,,,,,,,,,,,,,,,,,,,,,,,,,,,,,,,,,,,,,,,,,
,,,,,,,,,,,,,,,,,,,,,,,19,Female,2020-08-16_10h37.16.500,torte-2b,2020.1.3,MacIntel,60,13407,,,,,,,,,,,,,space,0,10,10,10,1,7,0.5,,,,,,,,,,,,,,,,,,,,,,,,,,,,,,,,,,,,,,,,,,,,,,
,,,,,,,,,,,,,,,,,,,,,,,19,Female,2020-08-16_10h37.16.500,torte-2b,2020.1.3,MacIntel,60,13407,,,,,,,,,,,,,space,0,11,11,11,1,7,0.5,,,,,,,,,,,,,,,,,,,,,,,,,,,,,,,,,,,,,,,,,,,,,,
,,,,,,,,,,,,,,,,,,,,,,,19,Female,2020-08-16_10h37.16.500,torte-2b,2020.1.3,MacIntel,60,13407,,,,,,,,,,,,,space,0,12,12,12,1,7,0.3,,,,,,,,,,,,,,,,,,,,,,,,,,,,,,,,,,,,,,,,,,,,,,
,,,,,,,,,,,,,,,,,,,,,,,19,Female,2020-08-16_10h37.16.500,torte-2b,2020.1.3,MacIntel,60,13407,,,,,,,,,,,,,space,0,13,13,13,1,4,0.6,,,,,,,,,,,,,,,,,,,,,,,,,,,,,,,,,,,,,,,,,,,,,,
,,,,,,,,,,,,,,,,,,,,,,,19,Female,2020-08-16_10h37.16.500,torte-2b,2020.1.3,MacIntel,60,13407,,,,,,,,,,,,,space,0,14,14,14,1,6,0.3,,,,,,,,,,,,,,,,,,,,,,,,,,,,,,,,,,,,,,,,,,,,,,
,,,,,,,,,,,,,,,,,,,,,,,19,Female,2020-08-16_10h37.16.500,torte-2b,2020.1.3,MacIntel,60,13407,,,,,,,,,,,,,space,0,15,15,15,1,4,0.3,,,,,,,,,,,,,,,,,,,,,,,,,,,,,,,,,,,,,,,,,,,,,,
,,,,,,,,,,,,,,,,,,,,,,,19,Female,2020-08-16_10h37.16.500,torte-2b,2020.1.3,MacIntel,60,13407,,,,,,,,,,,,,space,0,16,16,16,1,6,0.3,,,,,,,,,,,,,,,,,,,,,,,,,,,,,,,,,,,,,,,,,,,,,,
,,,,,,,,,,,,,,,,,,,,,,,19,Female,2020-08-16_10h37.16.500,torte-2b,2020.1.3,MacIntel,60,13407,,,,,,,,,,,,,space,0,17,17,17,1,7,0.3,,,,,,,,,,,,,,,,,,,,,,,,,,,,,,,,,,,,,,,,,,,,,,
,,,,,,,,,,,,,,,,,,,,,,,19,Female,2020-08-16_10h37.16.500,torte-2b,2020.1.3,MacIntel,60,13407,,,,,,,,,,,,,space,0,18,18,18,1,6,0.3,,,,,,,,,,,,,,,,,,,,,,,,,,,,,,,,,,,,,,,,,,,,,,
,,,,,,,,,,,,,,,,,,,,,,,19,Female,2020-08-16_10h37.16.500,torte-2b,2020.1.3,MacIntel,60,13407,,,,,,,,,,,,,space,0,19,19,19,1,7,0.3,,,,,,,,,,,,,,,,,,,,,,,,,,,,,,,,,,,,,,,,,,,,,,
,,,,,,,,,,,,,,,,,,,,,,,19,Female,2020-08-16_10h37.16.500,torte-2b,2020.1.3,MacIntel,60,13407,,,,,,,,,,,,,space,0,20,20,20,1,5,0.3,,,,,,,,,,,,,,,,,,,,,,,,,,,,,,,,,,,,,,,,,,,,,,
,,,,,,,,,,,,,,,,,,,,,,,19,Female,2020-08-16_10h37.16.500,torte-2b,2020.1.3,MacIntel,60,13407,,,,,,,,,,,,,,0,21,21,21,1,1,,,,,,,,,,,,,,,,,,,,,,,,,,,,,,,,,,,,,,,,,,,,,,,
,,,,,,,,,,,,,,,,,,,,,,,19,Female,2020-08-16_10h37.16.500,torte-2b,2020.1.3,MacIntel,60,13407,,,,,,,,,,,,,space,0,22,22,22,1,6,0.5,,,,,,,,,,,,,,,,,,,,,,,,,,,,,,,,,,,,,,,,,,,,,,
,,,,,,,,,,,,,,,,,,,,,,,19,Female,2020-08-16_10h37.16.500,torte-2b,2020.1.3,MacIntel,60,13407,,,,,,,,,,,,,space,0,23,23,23,1,1,0.3,,,,,,,,,,,,,,,,,,,,,,,,,,,,,,,,,,,,,,,,,,,,,,
,,,,,,,,,,,,,,,,,,,,,,,19,Female,2020-08-16_10h37.16.500,torte-2b,2020.1.3,MacIntel,60,13407,,,,,,,,,,,,,space,0,24,24,24,1,5,0.2,,,,,,,,,,,,,,,,,,,,,,,,,,,,,,,,,,,,,,,,,,,,,,
,,,,,,,,,,,,,,,,,,,,,,,19,Female,2020-08-16_10h37.16.500,torte-2b,2020.1.3,MacIntel,60,13407,,,,,,,,,,,,,space,0,25,25,25,1,6,0.3,,,,,,,,,,,,,,,,,,,,,,,,,,,,,,,,,,,,,,,,,,,,,,
,,,,,,,,,,,,,,,,,,,,,,,19,Female,2020-08-16_10h37.16.500,torte-2b,2020.1.3,MacIntel,60,13407,,,,,,,,,,,,,space,0,26,26,26,1,6,0.2,,,,,,,,,,,,,,,,,,,,,,,,,,,,,,,,,,,,,,,,,,,,,,
,,,,,,,,,,,,,,,,,,,,,,,19,Female,2020-08-16_10h37.16.500,torte-2b,2020.1.3,MacIntel,60,13407,,,,,,,,,,,,,space,0,27,27,27,1,6,0.2,,,,,,,,,,,,,,,,,,,,,,,,,,,,,,,,,,,,,,,,,,,,,,
,,,,,,,,,,,,,,,,,,,,,,,19,Female,2020-08-16_10h37.16.500,torte-2b,2020.1.3,MacIntel,60,13407,,,,,,,,,,,,,space,0,28,28,28,1,5,0.3,,,,,,,,,,,,,,,,,,,,,,,,,,,,,,,,,,,,,,,,,,,,,,
,,,,,,,,,,,,,,,,,,,,,,,19,Female,2020-08-16_10h37.16.500,torte-2b,2020.1.3,MacIntel,60,13407,,,,,,,,,,,,,space,0,29,29,29,1,2,0.3,,,,,,,,,,,,,,,,,,,,,,,,,,,,,,,,,,,,,,,,,,,,,,
,,,,,,,,,,,,,,,,,,,,,,,19,Female,2020-08-16_10h37.16.500,torte-2b,2020.1.3,MacIntel,60,13407,,,,,,,,,,,,,space,0,30,30,30,1,5,0.3,,,,,,,,,,,,,,,,,,,,,,,,,,,,,,,,,,,,,,,,,,,,,,
,,,,,,,,,,,,,,,,,,,,,,,19,Female,2020-08-16_10h37.16.500,torte-2b,2020.1.3,MacIntel,60,13407,,,,,,,,,,,,,space,0,31,31,31,1,2,0.3,,,,,,,,,,,,,,,,,,,,,,,,,,,,,,,,,,,,,,,,,,,,,,
,,,,,,,,,,,,,,,,,,,,,,,19,Female,2020-08-16_10h37.16.500,torte-2b,2020.1.3,MacIntel,60,13407,,,,,,,,,,,,,space,0,32,32,32,1,5,0.2,,,,,,,,,,,,,,,,,,,,,,,,,,,,,,,,,,,,,,,,,,,,,,
,,,,,,,,,,,,,,,,,,,,,,,19,Female,2020-08-16_10h37.16.500,torte-2b,2020.1.3,MacIntel,60,13407,,,,,,,,,,,,,space,0,33,33,33,1,1,0.3,,,,,,,,,,,,,,,,,,,,,,,,,,,,,,,,,,,,,,,,,,,,,,
,,,,,,,,,,,,,,,,,,,,,,,19,Female,2020-08-16_10h37.16.500,torte-2b,2020.1.3,MacIntel,60,13407,,,,,,,,,,,,,space,0,34,34,34,1,1,0.3,,,,,,,,,,,,,,,,,,,,,,,,,,,,,,,,,,,,,,,,,,,,,,
,,,,,,,,,,,,,,,,,,,,,,,19,Female,2020-08-16_10h37.16.500,torte-2b,2020.1.3,MacIntel,60,13407,,,,,,,,,,,,,,,,,,,2,,0,0,0,0,1,,,,,,,,,,,,,,,,,,,,,,,,,,,,,,,,,,,,,,,,,
,,,,,,,,,,,,,,,,,,,,,,,19,Female,2020-08-16_10h37.16.500,torte-2b,2020.1.3,MacIntel,60,13407,,,,,,,,,,,,,space,,,,,,2,0.5,0,1,1,1,1,,,,,,,,,,,,,,,,,,,,,,,,,,,,,,,,,,,,,,,,,
,,,,,,,,,,,,,,,,,,,,,,,19,Female,2020-08-16_10h37.16.500,torte-2b,2020.1.3,MacIntel,60,13407,,,,,,,,,,,,,,,,,,,6,,0,2,2,2,1,,,,,,,,,,,,,,,,,,,,,,,,,,,,,,,,,,,,,,,,,
,,,,,,,,,,,,,,,,,,,,,,,19,Female,2020-08-16_10h37.16.500,torte-2b,2020.1.3,MacIntel,60,13407,,,,,,,,,,,,,space,,,,,,2,0.5,0,3,3,3,1,,,,,,,,,,,,,,,,,,,,,,,,,,,,,,,,,,,,,,,,,
,,,,,,,,,,,,,,,,,,,,,,,19,Female,2020-08-16_10h37.16.500,torte-2b,2020.1.3,MacIntel,60,13407,,,,,,,,,,,,,space,,,,,,6,0.4,0,4,4,4,1,,,,,,,,,,,,,,,,,,,,,,,,,,,,,,,,,,,,,,,,,
,,,,,,,,,,,,,,,,,,,,,,,19,Female,2020-08-16_10h37.16.500,torte-2b,2020.1.3,MacIntel,60,13407,,,,,,,,,,,,,space,,,,,,2,0.3,0,5,5,5,1,,,,,,,,,,,,,,,,,,,,,,,,,,,,,,,,,,,,,,,,,
,,,,,,,,,,,,,,,,,,,,,,,19,Female,2020-08-16_10h37.16.500,torte-2b,2020.1.3,MacIntel,60,13407,,,,,,,,,,,,,space,,,,,,7,0.3,0,6,6,6,1,,,,,,,,,,,,,,,,,,,,,,,,,,,,,,,,,,,,,,,,,
,,,,,,,,,,,,,,,,,,,,,,,19,Female,2020-08-16_10h37.16.500,torte-2b,2020.1.3,MacIntel,60,13407,,,,,,,,,,,,,space,,,,,,2,0.5,0,7,7,7,1,,,,,,,,,,,,,,,,,,,,,,,,,,,,,,,,,,,,,,,,,
,,,,,,,,,,,,,,,,,,,,,,,19,Female,2020-08-16_10h37.16.500,torte-2b,2020.1.3,MacIntel,60,13407,,,,,,,,,,,,,space,,,,,,7,0.4,0,8,8,8,1,,,,,,,,,,,,,,,,,,,,,,,,,,,,,,,,,,,,,,,,,
,,,,,,,,,,,,,,,,,,,,,,,19,Female,2020-08-16_10h37.16.500,torte-2b,2020.1.3,MacIntel,60,13407,,,,,,,,,,,,,space,,,,,,2,0.5,0,9,9,9,1,,,,,,,,,,,,,,,,,,,,,,,,,,,,,,,,,,,,,,,,,
,,,,,,,,,,,,,,,,,,,,,,,19,Female,2020-08-16_10h37.16.500,torte-2b,2020.1.3,MacIntel,60,13407,,,,,,,,,,,,,space,,,,,,5,0.3,0,10,10,10,1,,,,,,,,,,,,,,,,,,,,,,,,,,,,,,,,,,,,,,,,,
,,,,,,,,,,,,,,,,,,,,,,,19,Female,2020-08-16_10h37.16.500,torte-2b,2020.1.3,MacIntel,60,13407,,,,,,,,,,,,,space,,,,,,4,0.5,0,11,11,11,1,,,,,,,,,,,,,,,,,,,,,,,,,,,,,,,,,,,,,,,,,
,,,,,,,,,,,,,,,,,,,,,,,19,Female,2020-08-16_10h37.16.500,torte-2b,2020.1.3,MacIntel,60,13407,,,,,,,,,,,,,space,,,,,,5,0.5,0,12,12,12,1,,,,,,,,,,,,,,,,,,,,,,,,,,,,,,,,,,,,,,,,,
,,,,,,,,,,,,,,,,,,,,,,,19,Female,2020-08-16_10h37.16.500,torte-2b,2020.1.3,MacIntel,60,13407,,,,,,,,,,,,,space,,,,,,6,0.5,0,13,13,13,1,,,,,,,,,,,,,,,,,,,,,,,,,,,,,,,,,,,,,,,,,
,,,,,,,,,,,,,,,,,,,,,,,19,Female,2020-08-16_10h37.16.500,torte-2b,2020.1.3,MacIntel,60,13407,,,,,,,,,,,,,space,,,,,,5,0.4,0,14,14,14,1,,,,,,,,,,,,,,,,,,,,,,,,,,,,,,,,,,,,,,,,,
,,,,,,,,,,,,,,,,,,,,,,,19,Female,2020-08-16_10h37.16.500,torte-2b,2020.1.3,MacIntel,60,13407,,,,,,,,,,,,,space,,,,,,4,0.4,0,15,15,15,1,,,,,,,,,,,,,,,,,,,,,,,,,,,,,,,,,,,,,,,,,
,,,,,,,,,,,,,,,,,,,,,,,19,Female,2020-08-16_10h37.16.500,torte-2b,2020.1.3,MacIntel,60,13407,,,,,,,,,,,,,space,,,,,,5,0.4,0,16,16,16,1,,,,,,,,,,,,,,,,,,,,,,,,,,,,,,,,,,,,,,,,,
,,,,,,,,,,,,,,,,,,,,,,,19,Female,2020-08-16_10h37.16.500,torte-2b,2020.1.3,MacIntel,60,13407,,,,,,,,,,,,,,,,,,,3,,0,17,17,17,1,,,,,,,,,,,,,,,,,,,,,,,,,,,,,,,,,,,,,,,,,
,,,,,,,,,,,,,,,,,,,,,,,19,Female,2020-08-16_10h37.16.500,torte-2b,2020.1.3,MacIntel,60,13407,,,,,,,,,,,,,space,,,,,,6,0.5,0,18,18,18,1,,,,,,,,,,,,,,,,,,,,,,,,,,,,,,,,,,,,,,,,,
,,,,,,,,,,,,,,,,,,,,,,,19,Female,2020-08-16_10h37.16.500,torte-2b,2020.1.3,MacIntel,60,13407,,,,,,,,,,,,,space,,,,,,6,0.5,0,19,19,19,1,,,,,,,,,,,,,,,,,,,,,,,,,,,,,,,,,,,,,,,,,
,,,,,,,,,,,,,,,,,,,,,,,19,Female,2020-08-16_10h37.16.500,torte-2b,2020.1.3,MacIntel,60,13407,,,,,,,,,,,,,space,,,,,,6,0.3,0,20,20,20,1,,,,,,,,,,,,,,,,,,,,,,,,,,,,,,,,,,,,,,,,,
,,,,,,,,,,,,,,,,,,,,,,,19,Female,2020-08-16_10h37.16.500,torte-2b,2020.1.3,MacIntel,60,13407,,,,,,,,,,,,,space,,,,,,4,0.3,0,21,21,21,1,,,,,,,,,,,,,,,,,,,,,,,,,,,,,,,,,,,,,,,,,
,,,,,,,,,,,,,,,,,,,,,,,19,Female,2020-08-16_10h37.16.500,torte-2b,2020.1.3,MacIntel,60,13407,,,,,,,,,,,,,space,,,,,,6,0.3,0,22,22,22,1,,,,,,,,,,,,,,,,,,,,,,,,,,,,,,,,,,,,,,,,,
,,,,,,,,,,,,,,,,,,,,,,,19,Female,2020-08-16_10h37.16.500,torte-2b,2020.1.3,MacIntel,60,13407,,,,,,,,,,,,,space,,,,,,4,0.2,0,23,23,23,1,,,,,,,,,,,,,,,,,,,,,,,,,,,,,,,,,,,,,,,,,
,,,,,,,,,,,,,,,,,,,,,,,19,Female,2020-08-16_10h37.16.500,torte-2b,2020.1.3,MacIntel,60,13407,,,,,,,,,,,,,space,,,,,,6,0.3,0,24,24,24,1,,,,,,,,,,,,,,,,,,,,,,,,,,,,,,,,,,,,,,,,,
,,,,,,,,,,,,,,,,,,,,,,,19,Female,2020-08-16_10h37.16.500,torte-2b,2020.1.3,MacIntel,60,13407,,,,,,,,,,,,,space,,,,,,6,0.4,0,25,25,25,1,,,,,,,,,,,,,,,,,,,,,,,,,,,,,,,,,,,,,,,,,
,,,,,,,,,,,,,,,,,,,,,,,19,Female,2020-08-16_10h37.16.500,torte-2b,2020.1.3,MacIntel,60,13407,,,,,,,,,,,,,space,,,,,,7,0.1,0,26,26,26,1,,,,,,,,,,,,,,,,,,,,,,,,,,,,,,,,,,,,,,,,,
,,,,,,,,,,,,,,,,,,,,,,,19,Female,2020-08-16_10h37.16.500,torte-2b,2020.1.3,MacIntel,60,13407,,,,,,,,,,,,,space,,,,,,1,0.1,0,27,27,27,1,,,,,,,,,,,,,,,,,,,,,,,,,,,,,,,,,,,,,,,,,
,,,,,,,,,,,,,,,,,,,,,,,19,Female,2020-08-16_10h37.16.500,torte-2b,2020.1.3,MacIntel,60,13407,,,,,,,,,,,,,space,,,,,,7,0.4,0,28,28,28,1,,,,,,,,,,,,,,,,,,,,,,,,,,,,,,,,,,,,,,,,,
,,,,,,,,,,,,,,,,,,,,,,,19,Female,2020-08-16_10h37.16.500,torte-2b,2020.1.3,MacIntel,60,13407,,,,,,,,,,,,,space,,,,,,4,0.6,0,29,29,29,1,,,,,,,,,,,,,,,,,,,,,,,,,,,,,,,,,,,,,,,,,
,,,,,,,,,,,,,,,,,,,,,,,19,Female,2020-08-16_10h37.16.500,torte-2b,2020.1.3,MacIntel,60,13407,,,,,,,,,,,,,space,,,,,,7,0.3,0,30,30,30,1,,,,,,,,,,,,,,,,,,,,,,,,,,,,,,,,,,,,,,,,,
,,,,,,,,,,,,,,,,,,,,,,,19,Female,2020-08-16_10h37.16.500,torte-2b,2020.1.3,MacIntel,60,13407,,,,,,,,,,,,,space,,,,,,3,0.3,0,31,31,31,1,,,,,,,,,,,,,,,,,,,,,,,,,,,,,,,,,,,,,,,,,
,,,,,,,,,,,,,,,,,,,,,,,19,Female,2020-08-16_10h37.16.500,torte-2b,2020.1.3,MacIntel,60,13407,,,,,,,,,,,,,,,,,,,2,,0,32,32,32,1,,,,,,,,,,,,,,,,,,,,,,,,,,,,,,,,,,,,,,,,,
,,,,,,,,,,,,,,,,,,,,,,,19,Female,2020-08-16_10h37.16.500,torte-2b,2020.1.3,MacIntel,60,13407,,,,,,,,,,,,,space,,,,,,6,0.5,0,33,33,33,1,,,,,,,,,,,,,,,,,,,,,,,,,,,,,,,,,,,,,,,,,
,,,,,,,,,,,,,,,,,,,,,,,19,Female,2020-08-16_10h37.16.500,torte-2b,2020.1.3,MacIntel,60,13407,,,,,,,,,,,,,space,,,,,,3,0.5,0,34,34,34,1,,,,,,,,,,,,,,,,,,,,,,,,,,,,,,,,,,,,,,,,,
,,,,,,,,,,,,,,,,,,,,,,,19,Female,2020-08-16_10h37.16.500,torte-2b,2020.1.3,MacIntel,60,13407,,,,,,,,,,,,,,,,,,,7,,,,,,,0,0,0,0,1,,,,,,,,,,,,,,,,,,,,,,,,,,,,,,,,,,,,
,,,,,,,,,,,,,,,,,,,,,,,19,Female,2020-08-16_10h37.16.500,torte-2b,2020.1.3,MacIntel,60,13407,,,,,,,,,,,,,,,,,,,5,,,,,,,0,1,1,1,1,,,,,,,,,,,,,,,,,,,,,,,,,,,,,,,,,,,,
,,,,,,,,,,,,,,,,,,,,,,,19,Female,2020-08-16_10h37.16.500,torte-2b,2020.1.3,MacIntel,60,13407,,,,,,,,,,,,,,,,,,,4,,,,,,,0,2,2,2,1,,,,,,,,,,,,,,,,,,,,,,,,,,,,,,,,,,,,
,,,,,,,,,,,,,,,,,,,,,,,19,Female,2020-08-16_10h37.16.500,torte-2b,2020.1.3,MacIntel,60,13407,,,,,,,,,,,,,space,,,,,,5,0.5,,,,,,0,3,3,3,1,,,,,,,,,,,,,,,,,,,,,,,,,,,,,,,,,,,,
,,,,,,,,,,,,,,,,,,,,,,,19,Female,2020-08-16_10h37.16.500,torte-2b,2020.1.3,MacIntel,60,13407,,,,,,,,,,,,,,,,,,,6,,,,,,,0,4,4,4,1,,,,,,,,,,,,,,,,,,,,,,,,,,,,,,,,,,,,
,,,,,,,,,,,,,,,,,,,,,,,19,Female,2020-08-16_10h37.16.500,torte-2b,2020.1.3,MacIntel,60,13407,,,,,,,,,,,,,space,,,,,,5,0.6,,,,,,0,5,5,5,1,,,,,,,,,,,,,,,,,,,,,,,,,,,,,,,,,,,,
,,,,,,,,,,,,,,,,,,,,,,,19,Female,2020-08-16_10h37.16.500,torte-2b,2020.1.3,MacIntel,60,13407,,,,,,,,,,,,,space,,,,,,3,0.4,,,,,,0,6,6,6,1,,,,,,,,,,,,,,,,,,,,,,,,,,,,,,,,,,,,
,,,,,,,,,,,,,,,,,,,,,,,19,Female,2020-08-16_10h37.16.500,torte-2b,2020.1.3,MacIntel,60,13407,,,,,,,,,,,,,space,,,,,,4,0.4,,,,,,0,7,7,7,1,,,,,,,,,,,,,,,,,,,,,,,,,,,,,,,,,,,,
,,,,,,,,,,,,,,,,,,,,,,,19,Female,2020-08-16_10h37.16.500,torte-2b,2020.1.3,MacIntel,60,13407,,,,,,,,,,,,,space,,,,,,3,0.4,,,,,,0,8,8,8,1,,,,,,,,,,,,,,,,,,,,,,,,,,,,,,,,,,,,
,,,,,,,,,,,,,,,,,,,,,,,19,Female,2020-08-16_10h37.16.500,torte-2b,2020.1.3,MacIntel,60,13407,,,,,,,,,,,,,,,,,,,1,,,,,,,0,9,9,9,1,,,,,,,,,,,,,,,,,,,,,,,,,,,,,,,,,,,,
,,,,,,,,,,,,,,,,,,,,,,,19,Female,2020-08-16_10h37.16.500,torte-2b,2020.1.3,MacIntel,60,13407,,,,,,,,,,,,,space,,,,,,2,0.2,,,,,,0,10,10,10,1,,,,,,,,,,,,,,,,,,,,,,,,,,,,,,,,,,,,
,,,,,,,,,,,,,,,,,,,,,,,19,Female,2020-08-16_10h37.16.500,torte-2b,2020.1.3,MacIntel,60,13407,,,,,,,,,,,,,space,,,,,,1,0.6,,,,,,0,11,11,11,1,,,,,,,,,,,,,,,,,,,,,,,,,,,,,,,,,,,,
,,,,,,,,,,,,,,,,,,,,,,,19,Female,2020-08-16_10h37.16.500,torte-2b,2020.1.3,MacIntel,60,13407,,,,,,,,,,,,,space,,,,,,2,0.3,,,,,,0,12,12,12,1,,,,,,,,,,,,,,,,,,,,,,,,,,,,,,,,,,,,
,,,,,,,,,,,,,,,,,,,,,,,19,Female,2020-08-16_10h37.16.500,torte-2b,2020.1.3,MacIntel,60,13407,,,,,,,,,,,,,space,,,,,,1,0.8,,,,,,0,13,13,13,1,,,,,,,,,,,,,,,,,,,,,,,,,,,,,,,,,,,,
,,,,,,,,,,,,,,,,,,,,,,,19,Female,2020-08-16_10h37.16.500,torte-2b,2020.1.3,MacIntel,60,13407,,,,,,,,,,,,,space,,,,,,3,1,,,,,,0,14,14,14,1,,,,,,,,,,,,,,,,,,,,,,,,,,,,,,,,,,,,
,,,,,,,,,,,,,,,,,,,,,,,19,Female,2020-08-16_10h37.16.500,torte-2b,2020.1.3,MacIntel,60,13407,,,,,,,,,,,,,space,,,,,,1,0.6,,,,,,0,15,15,15,1,,,,,,,,,,,,,,,,,,,,,,,,,,,,,,,,,,,,
,,,,,,,,,,,,,,,,,,,,,,,19,Female,2020-08-16_10h37.16.500,torte-2b,2020.1.3,MacIntel,60,13407,,,,,,,,,,,,,space,,,,,,7,0.8,,,,,,0,16,16,16,1,,,,,,,,,,,,,,,,,,,,,,,,,,,,,,,,,,,,
,,,,,,,,,,,,,,,,,,,,,,,19,Female,2020-08-16_10h37.16.500,torte-2b,2020.1.3,MacIntel,60,13407,,,,,,,,,,,,,space,,,,,,7,0.6,,,,,,0,17,17,17,1,,,,,,,,,,,,,,,,,,,,,,,,,,,,,,,,,,,,
,,,,,,,,,,,,,,,,,,,,,,,19,Female,2020-08-16_10h37.16.500,torte-2b,2020.1.3,MacIntel,60,13407,,,,,,,,,,,,,space,,,,,,4,0.6,,,,,,0,18,18,18,1,,,,,,,,,,,,,,,,,,,,,,,,,,,,,,,,,,,,
,,,,,,,,,,,,,,,,,,,,,,,19,Female,2020-08-16_10h37.16.500,torte-2b,2020.1.3,MacIntel,60,13407,,,,,,,,,,,,,space,,,,,,7,0.4,,,,,,0,19,19,19,1,,,,,,,,,,,,,,,,,,,,,,,,,,,,,,,,,,,,
,,,,,,,,,,,,,,,,,,,,,,,19,Female,2020-08-16_10h37.16.500,torte-2b,2020.1.3,MacIntel,60,13407,,,,,,,,,,,,,space,,,,,,3,0.7,,,,,,0,20,20,20,1,,,,,,,,,,,,,,,,,,,,,,,,,,,,,,,,,,,,
,,,,,,,,,,,,,,,,,,,,,,,19,Female,2020-08-16_10h37.16.500,torte-2b,2020.1.3,MacIntel,60,13407,,,,,,,,,,,,,space,,,,,,7,0.5,,,,,,0,21,21,21,1,,,,,,,,,,,,,,,,,,,,,,,,,,,,,,,,,,,,
,,,,,,,,,,,,,,,,,,,,,,,19,Female,2020-08-16_10h37.16.500,torte-2b,2020.1.3,MacIntel,60,13407,,,,,,,,,,,,,space,,,,,,3,0.4,,,,,,0,22,22,22,1,,,,,,,,,,,,,,,,,,,,,,,,,,,,,,,,,,,,
,,,,,,,,,,,,,,,,,,,,,,,19,Female,2020-08-16_10h37.16.500,torte-2b,2020.1.3,MacIntel,60,13407,,,,,,,,,,,,,space,,,,,,1,0.5,,,,,,0,23,23,23,1,,,,,,,,,,,,,,,,,,,,,,,,,,,,,,,,,,,,
,,,,,,,,,,,,,,,,,,,,,,,19,Female,2020-08-16_10h37.16.500,torte-2b,2020.1.3,MacIntel,60,13407,,,,,,,,,,,,,space,,,,,,6,0.4,,,,,,0,24,24,24,1,,,,,,,,,,,,,,,,,,,,,,,,,,,,,,,,,,,,
,,,,,,,,,,,,,,,,,,,,,,,19,Female,2020-08-16_10h37.16.500,torte-2b,2020.1.3,MacIntel,60,13407,,,,,,,,,,,,,space,,,,,,3,0.6,,,,,,0,25,25,25,1,,,,,,,,,,,,,,,,,,,,,,,,,,,,,,,,,,,,
,,,,,,,,,,,,,,,,,,,,,,,19,Female,2020-08-16_10h37.16.500,torte-2b,2020.1.3,MacIntel,60,13407,,,,,,,,,,,,,space,,,,,,2,1,,,,,,0,26,26,26,1,,,,,,,,,,,,,,,,,,,,,,,,,,,,,,,,,,,,
,,,,,,,,,,,,,,,,,,,,,,,19,Female,2020-08-16_10h37.16.500,torte-2b,2020.1.3,MacIntel,60,13407,,,,,,,,,,,,,space,,,,,,3,0.6,,,,,,0,27,27,27,1,,,,,,,,,,,,,,,,,,,,,,,,,,,,,,,,,,,,
,,,,,,,,,,,,,,,,,,,,,,,19,Female,2020-08-16_10h37.16.500,torte-2b,2020.1.3,MacIntel,60,13407,,,,,,,,,,,,,space,,,,,,1,0.4,,,,,,0,28,28,28,1,,,,,,,,,,,,,,,,,,,,,,,,,,,,,,,,,,,,
,,,,,,,,,,,,,,,,,,,,,,,19,Female,2020-08-16_10h37.16.500,torte-2b,2020.1.3,MacIntel,60,13407,,,,,,,,,,,,,space,,,,,,3,0.6,,,,,,0,29,29,29,1,,,,,,,,,,,,,,,,,,,,,,,,,,,,,,,,,,,,
,,,,,,,,,,,,,,,,,,,,,,,19,Female,2020-08-16_10h37.16.500,torte-2b,2020.1.3,MacIntel,60,13407,,,,,,,,,,,,,space,,,,,,1,0.5,,,,,,0,30,30,30,1,,,,,,,,,,,,,,,,,,,,,,,,,,,,,,,,,,,,
,,,,,,,,,,,,,,,,,,,,,,,19,Female,2020-08-16_10h37.16.500,torte-2b,2020.1.3,MacIntel,60,13407,,,,,,,,,,,,,space,,,,,,7,0.4,,,,,,0,31,31,31,1,,,,,,,,,,,,,,,,,,,,,,,,,,,,,,,,,,,,
,,,,,,,,,,,,,,,,,,,,,,,19,Female,2020-08-16_10h37.16.500,torte-2b,2020.1.3,MacIntel,60,13407,,,,,,,,,,,,,space,,,,,,5,0.5,,,,,,0,32,32,32,1,,,,,,,,,,,,,,,,,,,,,,,,,,,,,,,,,,,,
,,,,,,,,,,,,,,,,,,,,,,,19,Female,2020-08-16_10h37.16.500,torte-2b,2020.1.3,MacIntel,60,13407,,,,,,,,,,,,,space,,,,,,7,0.9,,,,,,0,33,33,33,1,,,,,,,,,,,,,,,,,,,,,,,,,,,,,,,,,,,,
,,,,,,,,,,,,,,,,,,,,,,,19,Female,2020-08-16_10h37.16.500,torte-2b,2020.1.3,MacIntel,60,13407,,,,,,,,,,,,,space,,,,,,2,1,,,,,,0,34,34,34,1,,,,,,,,,,,,,,,,,,,,,,,,,,,,,,,,,,,,
,,,,,,,,,,,,,,,,,,,,,,,19,Female,2020-08-16_10h37.16.500,torte-2b,2020.1.3,MacIntel,60,13407,,,,,,,,,,,,,,,,,,,3,,,,,,,,,,,,0,0,0,0,1,,,,,,,,,,,,,,,,,,,,,,,,,,,,,,,
,,,,,,,,,,,,,,,,,,,,,,,19,Female,2020-08-16_10h37.16.500,torte-2b,2020.1.3,MacIntel,60,13407,,,,,,,,,,,,,,,,,,,7,,,,,,,,,,,,0,1,1,1,1,,,,,,,,,,,,,,,,,,,,,,,,,,,,,,,
,,,,,,,,,,,,,,,,,,,,,,,19,Female,2020-08-16_10h37.16.500,torte-2b,2020.1.3,MacIntel,60,13407,,,,,,,,,,,,,space,,,,,,7,0.7,,,,,,,,,,,0,2,2,2,1,,,,,,,,,,,,,,,,,,,,,,,,,,,,,,,
,,,,,,,,,,,,,,,,,,,,,,,19,Female,2020-08-16_10h37.16.500,torte-2b,2020.1.3,MacIntel,60,13407,,,,,,,,,,,,,,,,,,,4,,,,,,,,,,,,0,3,3,3,1,,,,,,,,,,,,,,,,,,,,,,,,,,,,,,,
,,,,,,,,,,,,,,,,,,,,,,,19,Female,2020-08-16_10h37.16.500,torte-2b,2020.1.3,MacIntel,60,13407,,,,,,,,,,,,,,,,,,,5,,,,,,,,,,,,0,4,4,4,1,,,,,,,,,,,,,,,,,,,,,,,,,,,,,,,
,,,,,,,,,,,,,,,,,,,,,,,19,Female,2020-08-16_10h37.16.500,torte-2b,2020.1.3,MacIntel,60,13407,,,,,,,,,,,,,space,,,,,,4,0.6,,,,,,,,,,,0,5,5,5,1,,,,,,,,,,,,,,,,,,,,,,,,,,,,,,,
,,,,,,,,,,,,,,,,,,,,,,,19,Female,2020-08-16_10h37.16.500,torte-2b,2020.1.3,MacIntel,60,13407,,,,,,,,,,,,,,,,,,,2,,,,,,,,,,,,0,6,6,6,1,,,,,,,,,,,,,,,,,,,,,,,,,,,,,,,
,,,,,,,,,,,,,,,,,,,,,,,19,Female,2020-08-16_10h37.16.500,torte-2b,2020.1.3,MacIntel,60,13407,,,,,,,,,,,,,space,,,,,,4,0.5,,,,,,,,,,,0,7,7,7,1,,,,,,,,,,,,,,,,,,,,,,,,,,,,,,,
,,,,,,,,,,,,,,,,,,,,,,,19,Female,2020-08-16_10h37.16.500,torte-2b,2020.1.3,MacIntel,60,13407,,,,,,,,,,,,,space,,,,,,2,0.6,,,,,,,,,,,0,8,8,8,1,,,,,,,,,,,,,,,,,,,,,,,,,,,,,,,
,,,,,,,,,,,,,,,,,,,,,,,19,Female,2020-08-16_10h37.16.500,torte-2b,2020.1.3,MacIntel,60,13407,,,,,,,,,,,,,space,,,,,,2,0.4,,,,,,,,,,,0,9,9,9,1,,,,,,,,,,,,,,,,,,,,,,,,,,,,,,,
,,,,,,,,,,,,,,,,,,,,,,,19,Female,2020-08-16_10h37.16.500,torte-2b,2020.1.3,MacIntel,60,13407,,,,,,,,,,,,,,,,,,,6,,,,,,,,,,,,0,10,10,10,1,,,,,,,,,,,,,,,,,,,,,,,,,,,,,,,
,,,,,,,,,,,,,,,,,,,,,,,19,Female,2020-08-16_10h37.16.500,torte-2b,2020.1.3,MacIntel,60,13407,,,,,,,,,,,,,space,,,,,,2,0.5,,,,,,,,,,,0,11,11,11,1,,,,,,,,,,,,,,,,,,,,,,,,,,,,,,,
,,,,,,,,,,,,,,,,,,,,,,,19,Female,2020-08-16_10h37.16.500,torte-2b,2020.1.3,MacIntel,60,13407,,,,,,,,,,,,,space,,,,,,2,0.4,,,,,,,,,,,0,12,12,12,1,,,,,,,,,,,,,,,,,,,,,,,,,,,,,,,
,,,,,,,,,,,,,,,,,,,,,,,19,Female,2020-08-16_10h37.16.500,torte-2b,2020.1.3,MacIntel,60,13407,,,,,,,,,,,,,space,,,,,,2,0.3,,,,,,,,,,,0,13,13,13,1,,,,,,,,,,,,,,,,,,,,,,,,,,,,,,,
,,,,,,,,,,,,,,,,,,,,,,,19,Female,2020-08-16_10h37.16.500,torte-2b,2020.1.3,MacIntel,60,13407,,,,,,,,,,,,,space,,,,,,2,0.4,,,,,,,,,,,0,14,14,14,1,,,,,,,,,,,,,,,,,,,,,,,,,,,,,,,
,,,,,,,,,,,,,,,,,,,,,,,19,Female,2020-08-16_10h37.16.500,torte-2b,2020.1.3,MacIntel,60,13407,,,,,,,,,,,,,space,,,,,,4,0.5,,,,,,,,,,,0,15,15,15,1,,,,,,,,,,,,,,,,,,,,,,,,,,,,,,,
,,,,,,,,,,,,,,,,,,,,,,,19,Female,2020-08-16_10h37.16.500,torte-2b,2020.1.3,MacIntel,60,13407,,,,,,,,,,,,,space,,,,,,3,0.5,,,,,,,,,,,0,16,16,16,1,,,,,,,,,,,,,,,,,,,,,,,,,,,,,,,
,,,,,,,,,,,,,,,,,,,,,,,19,Female,2020-08-16_10h37.16.500,torte-2b,2020.1.3,MacIntel,60,13407,,,,,,,,,,,,,space,,,,,,7,0.9,,,,,,,,,,,0,17,17,17,1,,,,,,,,,,,,,,,,,,,,,,,,,,,,,,,
,,,,,,,,,,,,,,,,,,,,,,,19,Female,2020-08-16_10h37.16.500,torte-2b,2020.1.3,MacIntel,60,13407,,,,,,,,,,,,,space,,,,,,4,0.8,,,,,,,,,,,0,18,18,18,1,,,,,,,,,,,,,,,,,,,,,,,,,,,,,,,
,,,,,,,,,,,,,,,,,,,,,,,19,Female,2020-08-16_10h37.16.500,torte-2b,2020.1.3,MacIntel,60,13407,,,,,,,,,,,,,space,,,,,,7,0.6,,,,,,,,,,,0,19,19,19,1,,,,,,,,,,,,,,,,,,,,,,,,,,,,,,,
,,,,,,,,,,,,,,,,,,,,,,,19,Female,2020-08-16_10h37.16.500,torte-2b,2020.1.3,MacIntel,60,13407,,,,,,,,,,,,,space,,,,,,7,0.7,,,,,,,,,,,0,20,20,20,1,,,,,,,,,,,,,,,,,,,,,,,,,,,,,,,
,,,,,,,,,,,,,,,,,,,,,,,19,Female,2020-08-16_10h37.16.500,torte-2b,2020.1.3,MacIntel,60,13407,,,,,,,,,,,,,space,,,,,,7,0.7,,,,,,,,,,,0,21,21,21,1,,,,,,,,,,,,,,,,,,,,,,,,,,,,,,,
,,,,,,,,,,,,,,,,,,,,,,,19,Female,2020-08-16_10h37.16.500,torte-2b,2020.1.3,MacIntel,60,13407,,,,,,,,,,,,,space,,,,,,7,1.2,,,,,,,,,,,0,22,22,22,1,,,,,,,,,,,,,,,,,,,,,,,,,,,,,,,
,,,,,,,,,,,,,,,,,,,,,,,19,Female,2020-08-16_10h37.16.500,torte-2b,2020.1.3,MacIntel,60,13407,,,,,,,,,,,,,,,,,,,1,,,,,,,,,,,,0,23,23,23,1,,,,,,,,,,,,,,,,,,,,,,,,,,,,,,,
,,,,,,,,,,,,,,,,,,,,,,,19,Female,2020-08-16_10h37.16.500,torte-2b,2020.1.3,MacIntel,60,13407,,,,,,,,,,,,,space,,,,,,7,0.5,,,,,,,,,,,0,24,24,24,1,,,,,,,,,,,,,,,,,,,,,,,,,,,,,,,
,,,,,,,,,,,,,,,,,,,,,,,19,Female,2020-08-16_10h37.16.500,torte-2b,2020.1.3,MacIntel,60,13407,,,,,,,,,,,,,space,,,,,,1,0.9,,,,,,,,,,,0,25,25,25,1,,,,,,,,,,,,,,,,,,,,,,,,,,,,,,,
,,,,,,,,,,,,,,,,,,,,,,,19,Female,2020-08-16_10h37.16.500,torte-2b,2020.1.3,MacIntel,60,13407,,,,,,,,,,,,,space,,,,,,7,0.6,,,,,,,,,,,0,26,26,26,1,,,,,,,,,,,,,,,,,,,,,,,,,,,,,,,
,,,,,,,,,,,,,,,,,,,,,,,19,Female,2020-08-16_10h37.16.500,torte-2b,2020.1.3,MacIntel,60,13407,,,,,,,,,,,,,,,,,,,2,,,,,,,,,,,,0,27,27,27,1,,,,,,,,,,,,,,,,,,,,,,,,,,,,,,,
,,,,,,,,,,,,,,,,,,,,,,,19,Female,2020-08-16_10h37.16.500,torte-2b,2020.1.3,MacIntel,60,13407,,,,,,,,,,,,,space,,,,,,5,0.8,,,,,,,,,,,0,28,28,28,1,,,,,,,,,,,,,,,,,,,,,,,,,,,,,,,
,,,,,,,,,,,,,,,,,,,,,,,19,Female,2020-08-16_10h37.16.500,torte-2b,2020.1.3,MacIntel,60,13407,,,,,,,,,,,,,space,,,,,,5,0.5,,,,,,,,,,,0,29,29,29,1,,,,,,,,,,,,,,,,,,,,,,,,,,,,,,,
,,,,,,,,,,,,,,,,,,,,,,,19,Female,2020-08-16_10h37.16.500,torte-2b,2020.1.3,MacIntel,60,13407,,,,,,,,,,,,,space,,,,,,5,0.7,,,,,,,,,,,0,30,30,30,1,,,,,,,,,,,,,,,,,,,,,,,,,,,,,,,
,,,,,,,,,,,,,,,,,,,,,,,19,Female,2020-08-16_10h37.16.500,torte-2b,2020.1.3,MacIntel,60,13407,,,,,,,,,,,,,,,,,,,1,,,,,,,,,,,,0,31,31,31,1,,,,,,,,,,,,,,,,,,,,,,,,,,,,,,,
,,,,,,,,,,,,,,,,,,,,,,,19,Female,2020-08-16_10h37.16.500,torte-2b,2020.1.3,MacIntel,60,13407,,,,,,,,,,,,,space,,,,,,5,0.3,,,,,,,,,,,0,32,32,32,1,,,,,,,,,,,,,,,,,,,,,,,,,,,,,,,
,,,,,,,,,,,,,,,,,,,,,,,19,Female,2020-08-16_10h37.16.500,torte-2b,2020.1.3,MacIntel,60,13407,,,,,,,,,,,,,space,,,,,,3,1,,,,,,,,,,,0,33,33,33,1,,,,,,,,,,,,,,,,,,,,,,,,,,,,,,,
,,,,,,,,,,,,,,,,,,,,,,,19,Female,2020-08-16_10h37.16.500,torte-2b,2020.1.3,MacIntel,60,13407,,,,,,,,,,,,,space,,,,,,3,0.5,,,,,,,,,,,0,34,34,34,1,,,,,,,,,,,,,,,,,,,,,,,,,,,,,,,
,,,,,,,,,,,,l,Correct!,,,,,,t2.png,t5.png,3,0.0000131,19,Female,2020-08-16_10h37.16.500,torte-2b,2020.1.3,MacIntel,60,13407,1,space,1.2,,,,,,,,,,,,,,,,,,,,,,,,,,,,,,,,,space,14.7,0,0,0,39,1,,,,,,,,,,,,,,,,,,,,,,,,
,,,,,,,,,,,,a,Correct!,,,,,,t1.png,t2.png,1,0.90025,19,Female,2020-08-16_10h37.16.500,torte-2b,2020.1.3,MacIntel,60,13407,0.4,,,,,,,,,,,,,,,,,,,,,,,,,,,,,,,,,,,,,0,1,1,96,1,,,,,,,,,,,,,,,,,,,,,,,,
,,,,,,,,,,,,l,Correct!,,,,,,t1.png,t4.png,3,0.0000131,19,Female,2020-08-16_10h37.16.500,torte-2b,2020.1.3,MacIntel,60,13407,0.6,,,,,,,,,,,,,,,,,,,,,,,,,,,,,,,,,,,,,0,2,2,74,1,,,,,,,,,,,,,,,,,,,,,,,,
,,,,,,,,,,,,l,Correct!,,,,,,t1.png,t5.png,4,9.55E-11,19,Female,2020-08-16_10h37.16.500,torte-2b,2020.1.3,MacIntel,60,13407,0.4,,,,,,,,,,,,,,,,,,,,,,,,,,,,,,,,,,,,,0,3,3,20,1,,,,,,,,,,,,,,,,,,,,,,,,
,,,,,,,,,,,,l,Incorrect,,,,,,t1.png,t1.png,0,0.978,19,Female,2020-08-16_10h37.16.500,torte-2b,2020.1.3,MacIntel,60,13407,0.7,,,,,,,,,,,,,,,,,,,,,,,,,,,,,,,,,,,,,0,4,4,13,1,,,,,,,,,,,,,,,,,,,,,,,,
,,,,,,,,,,,,a,Correct!,,,,,,t3.png,t4.png,1,0.90855,19,Female,2020-08-16_10h37.16.500,torte-2b,2020.1.3,MacIntel,60,13407,0.4,,,,,,,,,,,,,,,,,,,,,,,,,,,,,,,,,,,,,0,5,5,9,1,,,,,,,,,,,,,,,,,,,,,,,,
,,,,,,,,,,,,l,Correct!,,,,,,t3.png,t5.png,2,0.056466,19,Female,2020-08-16_10h37.16.500,torte-2b,2020.1.3,MacIntel,60,13407,0.6,,,,,,,,,,,,,,,,,,,,,,,,,,,,,,,,,,,,,0,6,6,78,1,,,,,,,,,,,,,,,,,,,,,,,,
,,,,,,,,,,,,a,Correct!,,,,,,t3.png,t2.png,1,0.90855,19,Female,2020-08-16_10h37.16.500,torte-2b,2020.1.3,MacIntel,60,13407,0.4,,,,,,,,,,,,,,,,,,,,,,,,,,,,,,,,,,,,,0,7,7,94,1,,,,,,,,,,,,,,,,,,,,,,,,
,,,,,,,,,,,,l,Correct!,,,,,,t1.png,t5.png,4,9.55E-11,19,Female,2020-08-16_10h37.16.500,torte-2b,2020.1.3,MacIntel,60,13407,0.5,,,,,,,,,,,,,,,,,,,,,,,,,,,,,,,,,,,,,0,8,8,1,1,,,,,,,,,,,,,,,,,,,,,,,,
,,,,,,,,,,,,a,Correct!,,,,,,t2.png,t2.png,0,0.98115,19,Female,2020-08-16_10h37.16.500,torte-2b,2020.1.3,MacIntel,60,13407,0.4,,,,,,,,,,,,,,,,,,,,,,,,,,,,,,,,,,,,,0,9,9,112,1,,,,,,,,,,,,,,,,,,,,,,,,
,,,,,,,,,,,,a,Correct!,,,,,,t3.png,t4.png,1,0.90855,19,Female,2020-08-16_10h37.16.500,torte-2b,2020.1.3,MacIntel,60,13407,0.3,,,,,,,,,,,,,,,,,,,,,,,,,,,,,,,,,,,,,0,10,10,58,1,,,,,,,,,,,,,,,,,,,,,,,,
,,,,,,,,,,,,a,Correct!,,,,,,t4.png,t3.png,1,0.90855,19,Female,2020-08-16_10h37.16.500,torte-2b,2020.1.3,MacIntel,60,13407,0.4,,,,,,,,,,,,,,,,,,,,,,,,,,,,,,,,,,,,,0,11,11,56,1,,,,,,,,,,,,,,,,,,,,,,,,
,,,,,,,,,,,,l,Correct!,,,,,,t4.png,t1.png,3,0.0000131,19,Female,2020-08-16_10h37.16.500,torte-2b,2020.1.3,MacIntel,60,13407,0.4,,,,,,,,,,,,,,,,,,,,,,,,,,,,,,,,,,,,,0,12,12,49,1,,,,,,,,,,,,,,,,,,,,,,,,
,,,,,,,,,,,,l,Incorrect,,,,,,t4.png,t4.png,0,0.98115,19,Female,2020-08-16_10h37.16.500,torte-2b,2020.1.3,MacIntel,60,13407,0.2,,,,,,,,,,,,,,,,,,,,,,,,,,,,,,,,,,,,,0,13,13,88,1,,,,,,,,,,,,,,,,,,,,,,,,
,,,,,,,,,,,,l,Incorrect,,,,,,t4.png,t3.png,1,0.909,19,Female,2020-08-16_10h37.16.500,torte-2b,2020.1.3,MacIntel,60,13407,0.2,,,,,,,,,,,,,,,,,,,,,,,,,,,,,,,,,,,,,0,14,14,119,1,,,,,,,,,,,,,,,,,,,,,,,,
,,,,,,,,,,,,a,Incorrect,,,,,,t5.png,t3.png,2,0.056466,19,Female,2020-08-16_10h37.16.500,torte-2b,2020.1.3,MacIntel,60,13407,0.3,,,,,,,,,,,,,,,,,,,,,,,,,,,,,,,,,,,,,0,15,15,80,1,,,,,,,,,,,,,,,,,,,,,,,,
,,,,,,,,,,,,l,Correct!,,,,,,t4.png,t1.png,3,0.059078,19,Female,2020-08-16_10h37.16.500,torte-2b,2020.1.3,MacIntel,60,13407,0.2,,,,,,,,,,,,,,,,,,,,,,,,,,,,,,,,,,,,,0,16,16,57,1,,,,,,,,,,,,,,,,,,,,,,,,
,,,,,,,,,,,,a,Correct!,,,,,,t5.png,t5.png,0,0.97829,19,Female,2020-08-16_10h37.16.500,torte-2b,2020.1.3,MacIntel,60,13407,0.4,,,,,,,,,,,,,,,,,,,,,,,,,,,,,,,,,,,,,0,17,17,2,1,,,,,,,,,,,,,,,,,,,,,,,,
,,,,,,,,,,,,l,Incorrect,,,,,,t3.png,t2.png,1,0.90855,19,Female,2020-08-16_10h37.16.500,torte-2b,2020.1.3,MacIntel,60,13407,0.3,,,,,,,,,,,,,,,,,,,,,,,,,,,,,,,,,,,,,0,18,18,0,1,,,,,,,,,,,,,,,,,,,,,,,,
,,,,,,,,,,,,l,Correct!,,,,,,t5.png,t2.png,3,0.0000131,19,Female,2020-08-16_10h37.16.500,torte-2b,2020.1.3,MacIntel,60,13407,0.3,,,,,,,,,,,,,,,,,,,,,,,,,,,,,,,,,,,,,0,19,19,82,1,,,,,,,,,,,,,,,,,,,,,,,,
,,,,,,,,,,,,a,Incorrect,,,,,,t3.png,t1.png,2,0.056466,19,Female,2020-08-16_10h37.16.500,torte-2b,2020.1.3,MacIntel,60,13407,0.1,,,,,,,,,,,,,,,,,,,,,,,,,,,,,,,,,,,,,0,20,20,109,1,,,,,,,,,,,,,,,,,,,,,,,,
,,,,,,,,,,,,l,Correct!,,,,,,t1.png,t5.png,4,9.55E-11,19,Female,2020-08-16_10h37.16.500,torte-2b,2020.1.3,MacIntel,60,13407,0.3,,,,,,,,,,,,,,,,,,,,,,,,,,,,,,,,,,,,,0,21,21,30,1,,,,,,,,,,,,,,,,,,,,,,,,
,,,,,,,,,,,,a,Incorrect,,,,,,t2.png,t4.png,2,0.059078,19,Female,2020-08-16_10h37.16.500,torte-2b,2020.1.3,MacIntel,60,13407,0.5,,,,,,,,,,,,,,,,,,,,,,,,,,,,,,,,,,,,,0,22,22,53,1,,,,,,,,,,,,,,,,,,,,,,,,
,,,,,,,,,,,,l,Incorrect,,,,,,t3.png,t5.png,2,0.056466,19,Female,2020-08-16_10h37.16.500,torte-2b,2020.1.3,MacIntel,60,13407,0.3,,,,,,,,,,,,,,,,,,,,,,,,,,,,,,,,,,,,,0,23,23,47,1,,,,,,,,,,,,,,,,,,,,,,,,
,,,,,,,,,,,,l,Correct!,,,,,,t2.png,t4.png,2,0.059078,19,Female,2020-08-16_10h37.16.500,torte-2b,2020.1.3,MacIntel,60,13407,0.3,,,,,,,,,,,,,,,,,,,,,,,,,,,,,,,,,,,,,0,24,24,84,1,,,,,,,,,,,,,,,,,,,,,,,,
,,,,,,,,,,,,a,Incorrect,,,,,,t4.png,t1.png,3,0.0000131,19,Female,2020-08-16_10h37.16.500,torte-2b,2020.1.3,MacIntel,60,13407,0.3,,,,,,,,,,,,,,,,,,,,,,,,,,,,,,,,,,,,,0,25,25,91,1,,,,,,,,,,,,,,,,,,,,,,,,
,,,,,,,,,,,,l,Incorrect,,,,,,t5.png,t4.png,1,0.90025,19,Female,2020-08-16_10h37.16.500,torte-2b,2020.1.3,MacIntel,60,13407,0.1,,,,,,,,,,,,,,,,,,,,,,,,,,,,,,,,,,,,,0,26,26,38,1,,,,,,,,,,,,,,,,,,,,,,,,
,,,,,,,,,,,,a,Incorrect,,,,,,t3.png,t5.png,2,0.056466,19,Female,2020-08-16_10h37.16.500,torte-2b,2020.1.3,MacIntel,60,13407,0.3,,,,,,,,,,,,,,,,,,,,,,,,,,,,,,,,,,,,,0,27,27,45,1,,,,,,,,,,,,,,,,,,,,,,,,
,,,,,,,,,,,,l,Incorrect,,,,,,t1.png,t1.png,0,0.97829,19,Female,2020-08-16_10h37.16.500,torte-2b,2020.1.3,MacIntel,60,13407,0.2,,,,,,,,,,,,,,,,,,,,,,,,,,,,,,,,,,,,,0,28,28,114,1,,,,,,,,,,,,,,,,,,,,,,,,
,,,,,,,,,,,,l,Correct!,,,,,,t5.png,t2.png,3,0.0000131,19,Female,2020-08-16_10h37.16.500,torte-2b,2020.1.3,MacIntel,60,13407,0.2,,,,,,,,,,,,,,,,,,,,,,,,,,,,,,,,,,,,,0,29,29,43,1,,,,,,,,,,,,,,,,,,,,,,,,
,,,,,,,,,,,,l,Correct!,,,,,,t3.png,t1.png,2,0.0565,19,Female,2020-08-16_10h37.16.500,torte-2b,2020.1.3,MacIntel,60,13407,0.2,,,,,,,,,,,,,,,,,,,,,,,,,,,,,,,,,,,,,0,30,30,40,1,,,,,,,,,,,,,,,,,,,,,,,,
,,,,,,,,,,,,l,Correct!,,,,,,t3.png,t5.png,2,0.056466,19,Female,2020-08-16_10h37.16.500,torte-2b,2020.1.3,MacIntel,60,13407,0.3,,,,,,,,,,,,,,,,,,,,,,,,,,,,,,,,,,,,,0,31,31,60,1,,,,,,,,,,,,,,,,,,,,,,,,
,,,,,,,,,,,,a,Correct!,,,,,,t2.png,t2.png,0,0.981,19,Female,2020-08-16_10h37.16.500,torte-2b,2020.1.3,MacIntel,60,13407,0.2,,,,,,,,,,,,,,,,,,,,,,,,,,,,,,,,,,,,,0,32,32,98,1,,,,,,,,,,,,,,,,,,,,,,,,
,,,,,,,,,,,,l,Incorrect,,,,,,t1.png,t2.png,1,0.9,19,Female,2020-08-16_10h37.16.500,torte-2b,2020.1.3,MacIntel,60,13407,0.2,,,,,,,,,,,,,,,,,,,,,,,,,,,,,,,,,,,,,0,33,33,41,1,,,,,,,,,,,,,,,,,,,,,,,,
,,,,,,,,,,,,l,Correct!,,,,,,t5.png,t2.png,3,0.0000131,19,Female,2020-08-16_10h37.16.500,torte-2b,2020.1.3,MacIntel,60,13407,0.3,,,,,,,,,,,,,,,,,,,,,,,,,,,,,,,,,,,,,0,34,34,83,1,,,,,,,,,,,,,,,,,,,,,,,,
,,,,,,,,,,,,l,Incorrect,,,,,,t2.png,t3.png,1,0.90855,19,Female,2020-08-16_10h37.16.500,torte-2b,2020.1.3,MacIntel,60,13407,0.3,,,,,,,,,,,,,,,,,,,,,,,,,,,,,,,,,,,,,0,35,35,70,1,,,,,,,,,,,,,,,,,,,,,,,,
,,,,,,,,,,,,l,Correct!,,,,,,t4.png,t1.png,3,0.059078,19,Female,2020-08-16_10h37.16.500,torte-2b,2020.1.3,MacIntel,60,13407,0.2,,,,,,,,,,,,,,,,,,,,,,,,,,,,,,,,,,,,,0,36,36,87,1,,,,,,,,,,,,,,,,,,,,,,,,
,,,,,,,,,,,,a,Correct!,,,,,,t3.png,t4.png,1,0.90855,19,Female,2020-08-16_10h37.16.500,torte-2b,2020.1.3,MacIntel,60,13407,0.3,,,,,,,,,,,,,,,,,,,,,,,,,,,,,,,,,,,,,0,37,37,5,1,,,,,,,,,,,,,,,,,,,,,,,,
,,,,,,,,,,,,l,Correct!,,,,,,t4.png,t1.png,3,0.0000131,19,Female,2020-08-16_10h37.16.500,torte-2b,2020.1.3,MacIntel,60,13407,0.2,,,,,,,,,,,,,,,,,,,,,,,,,,,,,,,,,,,,,0,38,38,28,1,,,,,,,,,,,,,,,,,,,,,,,,
,,,,,,,,,,,,l,Incorrect,,,,,,t5.png,t4.png,1,0.90025,19,Female,2020-08-16_10h37.16.500,torte-2b,2020.1.3,MacIntel,60,13407,0.3,,,,,,,,,,,,,,,,,,,,,,,,,,,,,,,,,,,,,0,39,39,25,1,,,,,,,,,,,,,,,,,,,,,,,,
,,,,,,,,,,,,l,Incorrect,,,,,,t4.png,t3.png,1,0.90855,19,Female,2020-08-16_10h37.16.500,torte-2b,2020.1.3,MacIntel,60,13407,0.4,,,,,,,,,,,,,,,,,,,,,,,,,,,,,,,,,,,,,0,40,40,29,1,,,,,,,,,,,,,,,,,,,,,,,,
,,,,,,,,,,,,a,Correct!,,,,,,t4.png,t4.png,0,0.98115,19,Female,2020-08-16_10h37.16.500,torte-2b,2020.1.3,MacIntel,60,13407,0.3,,,,,,,,,,,,,,,,,,,,,,,,,,,,,,,,,,,,,0,41,41,52,1,,,,,,,,,,,,,,,,,,,,,,,,
,,,,,,,,,,,,l,Correct!,,,,,,t3.png,t1.png,2,0.056466,19,Female,2020-08-16_10h37.16.500,torte-2b,2020.1.3,MacIntel,60,13407,0.2,,,,,,,,,,,,,,,,,,,,,,,,,,,,,,,,,,,,,0,42,42,34,1,,,,,,,,,,,,,,,,,,,,,,,,
,,,,,,,,,,,,a,Correct!,,,,,,t4.png,t5.png,1,0.9,19,Female,2020-08-16_10h37.16.500,torte-2b,2020.1.3,MacIntel,60,13407,0.3,,,,,,,,,,,,,,,,,,,,,,,,,,,,,,,,,,,,,0,43,43,81,1,,,,,,,,,,,,,,,,,,,,,,,,
,,,,,,,,,,,,l,Correct!,,,,,,t2.png,t4.png,2,0.059078,19,Female,2020-08-16_10h37.16.500,torte-2b,2020.1.3,MacIntel,60,13407,0.2,,,,,,,,,,,,,,,,,,,,,,,,,,,,,,,,,,,,,0,44,44,67,1,,,,,,,,,,,,,,,,,,,,,,,,
,,,,,,,,,,,,a,Incorrect,,,,,,t5.png,t3.png,2,0.056466,19,Female,2020-08-16_10h37.16.500,torte-2b,2020.1.3,MacIntel,60,13407,0.5,,,,,,,,,,,,,,,,,,,,,,,,,,,,,,,,,,,,,0,45,45,37,1,,,,,,,,,,,,,,,,,,,,,,,,
,,,,,,,,,,,,l,Incorrect,,,,,,t1.png,t2.png,1,0.9,19,Female,2020-08-16_10h37.16.500,torte-2b,2020.1.3,MacIntel,60,13407,0.3,,,,,,,,,,,,,,,,,,,,,,,,,,,,,,,,,,,,,0,46,46,61,1,,,,,,,,,,,,,,,,,,,,,,,,
,,,,,,,,,,,,l,Incorrect,,,,,,t1.png,t2.png,1,0.9,19,Female,2020-08-16_10h37.16.500,torte-2b,2020.1.3,MacIntel,60,13407,0.5,,,,,,,,,,,,,,,,,,,,,,,,,,,,,,,,,,,,,0,47,47,17,1,,,,,,,,,,,,,,,,,,,,,,,,
,,,,,,,,,,,,a,Incorrect,,,,,,t4.png,t1.png,3,0.059078,19,Female,2020-08-16_10h37.16.500,torte-2b,2020.1.3,MacIntel,60,13407,0.3,,,,,,,,,,,,,,,,,,,,,,,,,,,,,,,,,,,,,0,48,48,75,1,,,,,,,,,,,,,,,,,,,,,,,,
,,,,,,,,,,,,l,Incorrect,,,,,,t2.png,t2.png,0,0.98115,19,Female,2020-08-16_10h37.16.500,torte-2b,2020.1.3,MacIntel,60,13407,0.4,,,,,,,,,,,,,,,,,,,,,,,,,,,,,,,,,,,,,0,49,49,69,1,,,,,,,,,,,,,,,,,,,,,,,,
,,,,,,,,,,,,l,Correct!,,,,,,t1.png,t4.png,3,0.0000131,19,Female,2020-08-16_10h37.16.500,torte-2b,2020.1.3,MacIntel,60,13407,0.3,,,,,,,,,,,,,,,,,,,,,,,,,,,,,,,,,,,,,0,50,50,106,1,,,,,,,,,,,,,,,,,,,,,,,,
,,,,,,,,,,,,l,Correct!,,,,,,t2.png,t4.png,2,0.059078,19,Female,2020-08-16_10h37.16.500,torte-2b,2020.1.3,MacIntel,60,13407,0.3,,,,,,,,,,,,,,,,,,,,,,,,,,,,,,,,,,,,,0,51,51,18,1,,,,,,,,,,,,,,,,,,,,,,,,
,,,,,,,,,,,,l,Incorrect,,,,,,t2.png,t2.png,0,0.98115,19,Female,2020-08-16_10h37.16.500,torte-2b,2020.1.3,MacIntel,60,13407,0.3,,,,,,,,,,,,,,,,,,,,,,,,,,,,,,,,,,,,,0,52,52,90,1,,,,,,,,,,,,,,,,,,,,,,,,
,,,,,,,,,,,,a,Incorrect,,,,,,t1.png,t3.png,2,0.056466,19,Female,2020-08-16_10h37.16.500,torte-2b,2020.1.3,MacIntel,60,13407,0.8,,,,,,,,,,,,,,,,,,,,,,,,,,,,,,,,,,,,,0,53,53,24,1,,,,,,,,,,,,,,,,,,,,,,,,
,,,,,,,,,,,,l,Correct!,,,,,,t4.png,t1.png,3,0.059078,19,Female,2020-08-16_10h37.16.500,torte-2b,2020.1.3,MacIntel,60,13407,0.4,,,,,,,,,,,,,,,,,,,,,,,,,,,,,,,,,,,,,0,54,54,73,1,,,,,,,,,,,,,,,,,,,,,,,,
,,,,,,,,,,,,l,Incorrect,,,,,,t2.png,t3.png,1,0.90855,19,Female,2020-08-16_10h37.16.500,torte-2b,2020.1.3,MacIntel,60,13407,0.4,,,,,,,,,,,,,,,,,,,,,,,,,,,,,,,,,,,,,0,55,55,64,1,,,,,,,,,,,,,,,,,,,,,,,,
,,,,,,,,,,,,a,Incorrect,,,,,,t2.png,t1.png,1,0.9,19,Female,2020-08-16_10h37.16.500,torte-2b,2020.1.3,MacIntel,60,13407,1,,,,,,,,,,,,,,,,,,,,,,,,,,,,,,,,,,,,,0,56,56,93,1,,,,,,,,,,,,,,,,,,,,,,,,
,,,,,,,,,,,,l,Correct!,,,,,,t2.png,t5.png,3,0.0000131,19,Female,2020-08-16_10h37.16.500,torte-2b,2020.1.3,MacIntel,60,13407,0.6,,,,,,,,,,,,,,,,,,,,,,,,,,,,,,,,,,,,,0,57,57,85,1,,,,,,,,,,,,,,,,,,,,,,,,
,,,,,,,,,,,,a,Correct!,,,,,,t3.png,t2.png,1,0.90855,19,Female,2020-08-16_10h37.16.500,torte-2b,2020.1.3,MacIntel,60,13407,1.8,,,,,,,,,,,,,,,,,,,,,,,,,,,,,,,,,,,,,0,58,58,99,1,,,,,,,,,,,,,,,,,,,,,,,,
,,,,,,,,,,,,l,Incorrect,,,,,,t4.png,t3.png,1,0.909,19,Female,2020-08-16_10h37.16.500,torte-2b,2020.1.3,MacIntel,60,13407,0.5,,,,,,,,,,,,,,,,,,,,,,,,,,,,,,,,,,,,,0,59,59,107,1,,,,,,,,,,,,,,,,,,,,,,,,
,,,,,,,,,,,,l,Correct!,,,,,,t5.png,t3.png,2,0.056466,19,Female,2020-08-16_10h37.16.500,torte-2b,2020.1.3,MacIntel,60,13407,2.1,,,,,,,,,,,,,,,,,,,,,,,,,,,,,,,,,,,,,0,60,60,26,1,,,,,,,,,,,,,,,,,,,,,,,,
,,,,,,,,,,,,a,Incorrect,,,,,,t1.png,t3.png,2,0.056466,19,Female,2020-08-16_10h37.16.500,torte-2b,2020.1.3,MacIntel,60,13407,0.3,,,,,,,,,,,,,,,,,,,,,,,,,,,,,,,,,,,,,0,61,61,32,1,,,,,,,,,,,,,,,,,,,,,,,,
,,,,,,,,,,,,l,Correct!,,,,,,t1.png,t2.png,1,0.90025,19,Female,2020-08-16_10h37.16.500,torte-2b,2020.1.3,MacIntel,60,13407,0.3,,,,,,,,,,,,,,,,,,,,,,,,,,,,,,,,,,,,,0,62,62,6,1,,,,,,,,,,,,,,,,,,,,,,,,
,,,,,,,,,,,,l,Incorrect,,,,,,t1.png,t1.png,0,0.97829,19,Female,2020-08-16_10h37.16.500,torte-2b,2020.1.3,MacIntel,60,13407,0.2,,,,,,,,,,,,,,,,,,,,,,,,,,,,,,,,,,,,,0,63,63,4,1,,,,,,,,,,,,,,,,,,,,,,,,
,,,,,,,,,,,,l,Correct!,,,,,,t5.png,t1.png,4,9.55E-11,19,Female,2020-08-16_10h37.16.500,torte-2b,2020.1.3,MacIntel,60,13407,0.3,,,,,,,,,,,,,,,,,,,,,,,,,,,,,,,,,,,,,0,64,64,15,1,,,,,,,,,,,,,,,,,,,,,,,,
,,,,,,,,,,,,a,Correct!,,,,,,t3.png,t5.png,2,0.0565,19,Female,2020-08-16_10h37.16.500,torte-2b,2020.1.3,MacIntel,60,13407,0.2,,,,,,,,,,,,,,,,,,,,,,,,,,,,,,,,,,,,,0,65,65,71,1,,,,,,,,,,,,,,,,,,,,,,,,
,,,,,,,,,,,,a,Incorrect,,,,,,t2.png,t5.png,3,0.0000131,19,Female,2020-08-16_10h37.16.500,torte-2b,2020.1.3,MacIntel,60,13407,0.3,,,,,,,,,,,,,,,,,,,,,,,,,,,,,,,,,,,,,0,66,66,46,1,,,,,,,,,,,,,,,,,,,,,,,,
,,,,,,,,,,,,l,Correct!,,,,,,t2.png,t3.png,1,0.909,19,Female,2020-08-16_10h37.16.500,torte-2b,2020.1.3,MacIntel,60,13407,0.2,,,,,,,,,,,,,,,,,,,,,,,,,,,,,,,,,,,,,0,67,67,8,1,,,,,,,,,,,,,,,,,,,,,,,,
,,,,,,,,,,,,l,Incorrect,,,,,,t5.png,t5.png,0,0.97829,19,Female,2020-08-16_10h37.16.500,torte-2b,2020.1.3,MacIntel,60,13407,0.3,,,,,,,,,,,,,,,,,,,,,,,,,,,,,,,,,,,,,0,68,68,35,1,,,,,,,,,,,,,,,,,,,,,,,,
,,,,,,,,,,,,a,Incorrect,,,,,,t1.png,t4.png,3,0.0000131,19,Female,2020-08-16_10h37.16.500,torte-2b,2020.1.3,MacIntel,60,13407,0.3,,,,,,,,,,,,,,,,,,,,,,,,,,,,,,,,,,,,,0,69,69,23,1,,,,,,,,,,,,,,,,,,,,,,,,
,,,,,,,,,,,,l,Incorrect,,,,,,t5.png,t4.png,1,0.9,19,Female,2020-08-16_10h37.16.500,torte-2b,2020.1.3,MacIntel,60,13407,1.2,,,,,,,,,,,,,,,,,,,,,,,,,,,,,,,,,,,,,0,70,70,92,1,,,,,,,,,,,,,,,,,,,,,,,,
,,,,,,,,,,,,a,Incorrect,,,,,,t1.png,t5.png,4,9.55E-11,19,Female,2020-08-16_10h37.16.500,torte-2b,2020.1.3,MacIntel,60,13407,0.5,,,,,,,,,,,,,,,,,,,,,,,,,,,,,,,,,,,,,0,71,71,3,1,,,,,,,,,,,,,,,,,,,,,,,,
,,,,,,,,,,,,l,Incorrect,,,,,,t4.png,t4.png,0,0.98115,19,Female,2020-08-16_10h37.16.500,torte-2b,2020.1.3,MacIntel,60,13407,0.3,,,,,,,,,,,,,,,,,,,,,,,,,,,,,,,,,,,,,0,72,72,19,1,,,,,,,,,,,,,,,,,,,,,,,,
,,,,,,,,,,,,l,Correct!,,,,,,t1.png,t3.png,2,0.0565,19,Female,2020-08-16_10h37.16.500,torte-2b,2020.1.3,MacIntel,60,13407,0.3,,,,,,,,,,,,,,,,,,,,,,,,,,,,,,,,,,,,,0,73,73,12,1,,,,,,,,,,,,,,,,,,,,,,,,
,,,,,,,,,,,,a,Incorrect,,,,,,t4.png,t1.png,3,0.059078,19,Female,2020-08-16_10h37.16.500,torte-2b,2020.1.3,MacIntel,60,13407,0.3,,,,,,,,,,,,,,,,,,,,,,,,,,,,,,,,,,,,,0,74,74,62,1,,,,,,,,,,,,,,,,,,,,,,,,
,,,,,,,,,,,,l,Incorrect,,,,,,t2.png,t1.png,1,0.90025,19,Female,2020-08-16_10h37.16.500,torte-2b,2020.1.3,MacIntel,60,13407,0.3,,,,,,,,,,,,,,,,,,,,,,,,,,,,,,,,,,,,,0,75,75,105,1,,,,,,,,,,,,,,,,,,,,,,,,
,,,,,,,,,,,,a,Correct!,,,,,,t5.png,t5.png,0,0.97829,19,Female,2020-08-16_10h37.16.500,torte-2b,2020.1.3,MacIntel,60,13407,0.3,,,,,,,,,,,,,,,,,,,,,,,,,,,,,,,,,,,,,0,76,76,77,1,,,,,,,,,,,,,,,,,,,,,,,,
,,,,,,,,,,,,l,Incorrect,,,,,,t5.png,t5.png,0,0.978,19,Female,2020-08-16_10h37.16.500,torte-2b,2020.1.3,MacIntel,60,13407,0.2,,,,,,,,,,,,,,,,,,,,,,,,,,,,,,,,,,,,,0,77,77,116,1,,,,,,,,,,,,,,,,,,,,,,,,
,,,,,,,,,,,,l,Correct!,,,,,,t5.png,t2.png,3,0.0000131,19,Female,2020-08-16_10h37.16.500,torte-2b,2020.1.3,MacIntel,60,13407,0.3,,,,,,,,,,,,,,,,,,,,,,,,,,,,,,,,,,,,,0,78,78,66,1,,,,,,,,,,,,,,,,,,,,,,,,
,,,,,,,,,,,,a,Correct!,,,,,,t2.png,t1.png,1,0.90025,19,Female,2020-08-16_10h37.16.500,torte-2b,2020.1.3,MacIntel,60,13407,0.3,,,,,,,,,,,,,,,,,,,,,,,,,,,,,,,,,,,,,0,79,79,44,1,,,,,,,,,,,,,,,,,,,,,,,,
,,,,,,,,,,,,l,Correct!,,,,,,t1.png,t4.png,3,0.0000131,19,Female,2020-08-16_10h37.16.500,torte-2b,2020.1.3,MacIntel,60,13407,0.1,,,,,,,,,,,,,,,,,,,,,,,,,,,,,,,,,,,,,0,80,80,36,1,,,,,,,,,,,,,,,,,,,,,,,,
,,,,,,,,,,,,a,Correct!,,,,,,t2.png,t2.png,0,0.98115,19,Female,2020-08-16_10h37.16.500,torte-2b,2020.1.3,MacIntel,60,13407,0.2,,,,,,,,,,,,,,,,,,,,,,,,,,,,,,,,,,,,,0,81,81,7,1,,,,,,,,,,,,,,,,,,,,,,,,
,,,,,,,,,,,,l,Correct!,,,,,,t2.png,t5.png,3,0.0000131,19,Female,2020-08-16_10h37.16.500,torte-2b,2020.1.3,MacIntel,60,13407,0.1,,,,,,,,,,,,,,,,,,,,,,,,,,,,,,,,,,,,,0,82,82,115,1,,,,,,,,,,,,,,,,,,,,,,,,
,,,,,,,,,,,,l,Incorrect,,,,,,t2.png,t1.png,1,0.90025,19,Female,2020-08-16_10h37.16.500,torte-2b,2020.1.3,MacIntel,60,13407,0.2,,,,,,,,,,,,,,,,,,,,,,,,,,,,,,,,,,,,,0,83,83,65,1,,,,,,,,,,,,,,,,,,,,,,,,
,,,,,,,,,,,,a,Correct!,,,,,,t2.png,t3.png,1,0.90855,19,Female,2020-08-16_10h37.16.500,torte-2b,2020.1.3,MacIntel,60,13407,0.3,,,,,,,,,,,,,,,,,,,,,,,,,,,,,,,,,,,,,0,84,84,113,1,,,,,,,,,,,,,,,,,,,,,,,,
,,,,,,,,,,,,l,Incorrect,,,,,,t2.png,t3.png,1,0.90855,19,Female,2020-08-16_10h37.16.500,torte-2b,2020.1.3,MacIntel,60,13407,0.1,,,,,,,,,,,,,,,,,,,,,,,,,,,,,,,,,,,,,0,85,85,79,1,,,,,,,,,,,,,,,,,,,,,,,,
,,,,,,,,,,,,l,Incorrect,,,,,,t1.png,t1.png,0,0.978,19,Female,2020-08-16_10h37.16.500,torte-2b,2020.1.3,MacIntel,60,13407,0.4,,,,,,,,,,,,,,,,,,,,,,,,,,,,,,,,,,,,,0,86,86,22,1,,,,,,,,,,,,,,,,,,,,,,,,
,,,,,,,,,,,,l,Incorrect,,,,,,t5.png,t4.png,1,0.90025,19,Female,2020-08-16_10h37.16.500,torte-2b,2020.1.3,MacIntel,60,13407,0.3,,,,,,,,,,,,,,,,,,,,,,,,,,,,,,,,,,,,,0,87,87,14,1,,,,,,,,,,,,,,,,,,,,,,,,
,,,,,,,,,,,,a,Incorrect,,,,,,t5.png,t1.png,4,9.55E-11,19,Female,2020-08-16_10h37.16.500,torte-2b,2020.1.3,MacIntel,60,13407,0.5,,,,,,,,,,,,,,,,,,,,,,,,,,,,,,,,,,,,,0,88,88,101,1,,,,,,,,,,,,,,,,,,,,,,,,
,,,,,,,,,,,,l,Incorrect,,,,,,t5.png,t4.png,1,0.9,19,Female,2020-08-16_10h37.16.500,torte-2b,2020.1.3,MacIntel,60,13407,0.4,,,,,,,,,,,,,,,,,,,,,,,,,,,,,,,,,,,,,0,89,89,55,1,,,,,,,,,,,,,,,,,,,,,,,,
,,,,,,,,,,,,l,Incorrect,,,,,,t2.png,t1.png,1,0.9,19,Female,2020-08-16_10h37.16.500,torte-2b,2020.1.3,MacIntel,60,13407,0.3,,,,,,,,,,,,,,,,,,,,,,,,,,,,,,,,,,,,,0,90,90,100,1,,,,,,,,,,,,,,,,,,,,,,,,
,,,,,,,,,,,,l,Incorrect,,,,,,t4.png,t5.png,1,0.90025,19,Female,2020-08-16_10h37.16.500,torte-2b,2020.1.3,MacIntel,60,13407,0.4,,,,,,,,,,,,,,,,,,,,,,,,,,,,,,,,,,,,,0,91,91,63,1,,,,,,,,,,,,,,,,,,,,,,,,
,,,,,,,,,,,,a,Correct!,,,,,,t5.png,t5.png,0,0.978,19,Female,2020-08-16_10h37.16.500,torte-2b,2020.1.3,MacIntel,60,13407,0.4,,,,,,,,,,,,,,,,,,,,,,,,,,,,,,,,,,,,,0,92,92,51,1,,,,,,,,,,,,,,,,,,,,,,,,
,,,,,,,,,,,,l,Correct!,,,,,,t3.png,t1.png,2,0.0565,19,Female,2020-08-16_10h37.16.500,torte-2b,2020.1.3,MacIntel,60,13407,0.9,,,,,,,,,,,,,,,,,,,,,,,,,,,,,,,,,,,,,0,93,93,104,1,,,,,,,,,,,,,,,,,,,,,,,,
,,,,,,,,,,,,l,Correct!,,,,,,t5.png,t1.png,4,9.55E-11,19,Female,2020-08-16_10h37.16.500,torte-2b,2020.1.3,MacIntel,60,13407,0.9,,,,,,,,,,,,,,,,,,,,,,,,,,,,,,,,,,,,,0,94,94,89,1,,,,,,,,,,,,,,,,,,,,,,,,
,,,,,,,,,,,,a,Correct!,,,,,,t3.png,t4.png,1,0.90855,19,Female,2020-08-16_10h37.16.500,torte-2b,2020.1.3,MacIntel,60,13407,0.6,,,,,,,,,,,,,,,,,,,,,,,,,,,,,,,,,,,,,0,95,95,111,1,,,,,,,,,,,,,,,,,,,,,,,,
,,,,,,,,,,,,l,Incorrect,,,,,,t4.png,t5.png,1,0.90025,19,Female,2020-08-16_10h37.16.500,torte-2b,2020.1.3,MacIntel,60,13407,0.3,,,,,,,,,,,,,,,,,,,,,,,,,,,,,,,,,,,,,0,96,96,21,1,,,,,,,,,,,,,,,,,,,,,,,,
,,,,,,,,,,,,l,Incorrect,,,,,,t4.png,t5.png,1,0.90025,19,Female,2020-08-16_10h37.16.500,torte-2b,2020.1.3,MacIntel,60,13407,0.1,,,,,,,,,,,,,,,,,,,,,,,,,,,,,,,,,,,,,0,97,97,33,1,,,,,,,,,,,,,,,,,,,,,,,,
,,,,,,,,,,,,a,Correct!,,,,,,t4.png,t4.png,0,0.98115,19,Female,2020-08-16_10h37.16.500,torte-2b,2020.1.3,MacIntel,60,13407,0.6,,,,,,,,,,,,,,,,,,,,,,,,,,,,,,,,,,,,,0,98,98,68,1,,,,,,,,,,,,,,,,,,,,,,,,
,,,,,,,,,,,,a,Correct!,,,,,,t1.png,t1.png,0,0.97829,19,Female,2020-08-16_10h37.16.500,torte-2b,2020.1.3,MacIntel,60,13407,0.3,,,,,,,,,,,,,,,,,,,,,,,,,,,,,,,,,,,,,0,99,99,110,1,,,,,,,,,,,,,,,,,,,,,,,,
,,,,,,,,,,,,l,Incorrect,,,,,,t3.png,t2.png,1,0.90855,19,Female,2020-08-16_10h37.16.500,torte-2b,2020.1.3,MacIntel,60,13407,0.3,,,,,,,,,,,,,,,,,,,,,,,,,,,,,,,,,,,,,0,100,100,10,1,,,,,,,,,,,,,,,,,,,,,,,,
,,,,,,,,,,,,l,Correct!,,,,,,t1.png,t4.png,3,0.0000131,19,Female,2020-08-16_10h37.16.500,torte-2b,2020.1.3,MacIntel,60,13407,0.2,,,,,,,,,,,,,,,,,,,,,,,,,,,,,,,,,,,,,0,101,101,16,1,,,,,,,,,,,,,,,,,,,,,,,,
,,,,,,,,,,,,l,Correct!,,,,,,t1.png,t5.png,4,9.55E-11,19,Female,2020-08-16_10h37.16.500,torte-2b,2020.1.3,MacIntel,60,13407,0.2,,,,,,,,,,,,,,,,,,,,,,,,,,,,,,,,,,,,,0,102,102,118,1,,,,,,,,,,,,,,,,,,,,,,,,
,,,,,,,,,,,,a,Incorrect,,,,,,t3.png,t1.png,2,0.056466,19,Female,2020-08-16_10h37.16.500,torte-2b,2020.1.3,MacIntel,60,13407,0.3,,,,,,,,,,,,,,,,,,,,,,,,,,,,,,,,,,,,,0,103,103,72,1,,,,,,,,,,,,,,,,,,,,,,,,
,,,,,,,,,,,,l,Correct!,,,,,,t4.png,t1.png,3,0.0000131,19,Female,2020-08-16_10h37.16.500,torte-2b,2020.1.3,MacIntel,60,13407,0.2,,,,,,,,,,,,,,,,,,,,,,,,,,,,,,,,,,,,,0,104,104,102,1,,,,,,,,,,,,,,,,,,,,,,,,
,,,,,,,,,,,,l,Correct!,,,,,,t5.png,t3.png,2,0.0565,19,Female,2020-08-16_10h37.16.500,torte-2b,2020.1.3,MacIntel,60,13407,0.1,,,,,,,,,,,,,,,,,,,,,,,,,,,,,,,,,,,,,0,105,105,50,1,,,,,,,,,,,,,,,,,,,,,,,,
,,,,,,,,,,,,l,Correct!,,,,,,t1.png,t3.png,2,0.0565,19,Female,2020-08-16_10h37.16.500,torte-2b,2020.1.3,MacIntel,60,13407,0.3,,,,,,,,,,,,,,,,,,,,,,,,,,,,,,,,,,,,,0,106,106,95,1,,,,,,,,,,,,,,,,,,,,,,,,
,,,,,,,,,,,,a,Incorrect,,,,,,t5.png,t1.png,4,9.55E-11,19,Female,2020-08-16_10h37.16.500,torte-2b,2020.1.3,MacIntel,60,13407,0.3,,,,,,,,,,,,,,,,,,,,,,,,,,,,,,,,,,,,,0,107,107,117,1,,,,,,,,,,,,,,,,,,,,,,,,
,,,,,,,,,,,,l,Correct!,,,,,,t4.png,t1.png,3,0.0000131,19,Female,2020-08-16_10h37.16.500,torte-2b,2020.1.3,MacIntel,60,13407,0.2,,,,,,,,,,,,,,,,,,,,,,,,,,,,,,,,,,,,,0,108,108,76,1,,,,,,,,,,,,,,,,,,,,,,,,
,,,,,,,,,,,,l,Incorrect,,,,,,t4.png,t3.png,1,0.90855,19,Female,2020-08-16_10h37.16.500,torte-2b,2020.1.3,MacIntel,60,13407,0.2,,,,,,,,,,,,,,,,,,,,,,,,,,,,,,,,,,,,,0,109,109,11,1,,,,,,,,,,,,,,,,,,,,,,,,
,,,,,,,,,,,,l,Correct!,,,,,,t5.png,t2.png,3,0.0000131,19,Female,2020-08-16_10h37.16.500,torte-2b,2020.1.3,MacIntel,60,13407,0.3,,,,,,,,,,,,,,,,,,,,,,,,,,,,,,,,,,,,,0,110,110,48,1,,,,,,,,,,,,,,,,,,,,,,,,
,,,,,,,,,,,,l,Correct!,,,,,,t5.png,t1.png,4,9.55E-11,19,Female,2020-08-16_10h37.16.500,torte-2b,2020.1.3,MacIntel,60,13407,0.3,,,,,,,,,,,,,,,,,,,,,,,,,,,,,,,,,,,,,0,111,111,31,1,,,,,,,,,,,,,,,,,,,,,,,,
,,,,,,,,,,,,a,Incorrect,,,,,,t5.png,t3.png,2,0.056466,19,Female,2020-08-16_10h37.16.500,torte-2b,2020.1.3,MacIntel,60,13407,0.3,,,,,,,,,,,,,,,,,,,,,,,,,,,,,,,,,,,,,0,112,112,27,1,,,,,,,,,,,,,,,,,,,,,,,,
,,,,,,,,,,,,l,Correct!,,,,,,t1.png,t3.png,2,0.0565,19,Female,2020-08-16_10h37.16.500,torte-2b,2020.1.3,MacIntel,60,13407,0.1,,,,,,,,,,,,,,,,,,,,,,,,,,,,,,,,,,,,,0,113,113,42,1,,,,,,,,,,,,,,,,,,,,,,,,
,,,,,,,,,,,,l,Correct!,,,,,,t2.png,t4.png,2,0.059078,19,Female,2020-08-16_10h37.16.500,torte-2b,2020.1.3,MacIntel,60,13407,0.2,,,,,,,,,,,,,,,,,,,,,,,,,,,,,,,,,,,,,0,114,114,97,1,,,,,,,,,,,,,,,,,,,,,,,,
,,,,,,,,,,,,l,Incorrect,,,,,,t4.png,t4.png,0,0.98115,19,Female,2020-08-16_10h37.16.500,torte-2b,2020.1.3,MacIntel,60,13407,0.2,,,,,,,,,,,,,,,,,,,,,,,,,,,,,,,,,,,,,0,115,115,59,1,,,,,,,,,,,,,,,,,,,,,,,,
,,,,,,,,,,,,l,Incorrect,,,,,,t4.png,t5.png,1,0.90025,19,Female,2020-08-16_10h37.16.500,torte-2b,2020.1.3,MacIntel,60,13407,0.2,,,,,,,,,,,,,,,,,,,,,,,,,,,,,,,,,,,,,0,116,116,86,1,,,,,,,,,,,,,,,,,,,,,,,,
,,,,,,,,,,,,a,Correct!,,,,,,t3.png,t2.png,1,0.90855,19,Female,2020-08-16_10h37.16.500,torte-2b,2020.1.3,MacIntel,60,13407,0.3,,,,,,,,,,,,,,,,,,,,,,,,,,,,,,,,,,,,,0,117,117,108,1,,,,,,,,,,,,,,,,,,,,,,,,
,,,,,,,,,,,,l,Incorrect,,,,,,t3.png,t4.png,1,0.90855,19,Female,2020-08-16_10h37.16.500,torte-2b,2020.1.3,MacIntel,60,13407,0.3,,,,,,,,,,,,,,,,,,,,,,,,,,,,,,,,,,,,,0,118,118,103,1,,,,,,,,,,,,,,,,,,,,,,,,
,,,,,,,,,,,,l,Correct!,,,,,,t2.png,t5.png,3,0.0000131,19,Female,2020-08-16_10h37.16.500,torte-2b,2020.1.3,MacIntel,60,13407,0.3,,,,,,,,,,,,,,,,,,,,,,,,,,,,,,,,,,,,,0,119,119,54,1,,,,,,,,,,,,,,,,,,,,,,,,
,,,,,,,,,,,,,,,,,,,,,,,19,Female,2020-08-16_10h37.16.500,torte-2b,2020.1.3,MacIntel,60,13407,,space,1.8,,,,,,,,,,,,,,,,,,,,,,,,,,,,,,,,,,,,,,,,-64,-111,1,0,0,s6,66,99,1,0,0,t1,146,-109,1,0,0,proceed,space,1,space,3,space,0.6
