key_resp_8.keys,key_resp_8.rt,key_resp_9.keys,key_resp_9.rt,key_resp_10.keys,key_resp_10.rt,key_resp_11.keys,key_resp_11.rt,key_resp_2.keys,key_resp_2.rt,key_resp_3.keys,key_resp_3.rt,key_resp.keys,key_resp.rt,Feedback,train.thisRepN,train.thisTrialN,train.thisN,train.thisIndex,train.ran,torta_sx,torta_dx,difference,probability,age,gender,date,expName,psychopyVersion,OS,frameRate,participant,key_resp_15.keys,key_resp_15.rt,key_resp_6.keys,key_resp_6.rt,test1.thisRepN,test1.thisTrialN,test1.thisN,test1.thisIndex,test1.ran,key_resp_4.keys,key_resp_4.rt,key_resp_5.keys,key_resp_5.rt,back1.thisRepN,back1.thisTrialN,back1.thisN,back1.thisIndex,back1.ran,letter,back2.thisRepN,back2.thisTrialN,back2.thisN,back2.thisIndex,back2.ran,back3.thisRepN,back3.thisTrialN,back3.thisN,back3.thisIndex,back3.ran,back4.thisRepN,back4.thisTrialN,back4.thisN,back4.thisIndex,back4.ran,key_resp_7.keys,key_resp_7.rt,test2.thisRepN,test2.thisTrialN,test2.thisN,test2.thisIndex,test2.ran,mouse.x,mouse.y,mouse.leftButton,mouse.midButton,mouse.rightButton,mouse.clicked_name,mouse_2.x,mouse_2.y,mouse_2.leftButton,mouse_2.midButton,mouse_2.rightButton,mouse_2.clicked_name,mouse_3.x,mouse_3.y,mouse_3.leftButton,mouse_3.midButton,mouse_3.rightButton,mouse_3.clicked_name,key_resp_12.keys,key_resp_12.rt,key_resp_13.keys,key_resp_13.rt,key_resp_14.keys,key_resp_14.rt
space,602.36176,space,0.675445,space,0.66716,space,0.4127,c,2.6835,space,13.13369,l,1.08249,Incorrect,0,0,0,112,1,t1.png,t1.png,0,0.97829,24,female,2020-08-26_11h10.47.139,torte-2b,2020.1.3,MacIntel,60,13404,,,,,,,,,,,,,,,,,,,,,,,,,,,,,,,,,,,,,,,,,,,,,,,,,,,,,,,,,,,,,,,,,
,,,,,,,,,,,,l,0.819255,Incorrect,0,1,1,92,1,t2.png,t3.png,1,0.909,24,female,2020-08-26_11h10.47.139,torte-2b,2020.1.3,MacIntel,60,13404,,,,,,,,,,,,,,,,,,,,,,,,,,,,,,,,,,,,,,,,,,,,,,,,,,,,,,,,,,,,,,,,,
,,,,,,,,,,,,l,0.634495,Correct!,0,2,2,99,1,t1.png,t5.png,4,9.55E-11,24,female,2020-08-26_11h10.47.139,torte-2b,2020.1.3,MacIntel,60,13404,,,,,,,,,,,,,,,,,,,,,,,,,,,,,,,,,,,,,,,,,,,,,,,,,,,,,,,,,,,,,,,,,
,,,,,,,,,,,,a,0.5013,Incorrect,0,3,3,111,1,t5.png,t1.png,4,9.55E-11,24,female,2020-08-26_11h10.47.139,torte-2b,2020.1.3,MacIntel,60,13404,,,,,,,,,,,,,,,,,,,,,,,,,,,,,,,,,,,,,,,,,,,,,,,,,,,,,,,,,,,,,,,,,
,,,,,,,,,,,,l,0.535025,Correct!,0,4,4,89,1,t1.png,t4.png,3,0.0000131,24,female,2020-08-26_11h10.47.139,torte-2b,2020.1.3,MacIntel,60,13404,,,,,,,,,,,,,,,,,,,,,,,,,,,,,,,,,,,,,,,,,,,,,,,,,,,,,,,,,,,,,,,,,
,,,,,,,,,,,,a,1.66788,Correct!,0,5,5,58,1,t5.png,t4.png,1,0.90025,24,female,2020-08-26_11h10.47.139,torte-2b,2020.1.3,MacIntel,60,13404,,,,,,,,,,,,,,,,,,,,,,,,,,,,,,,,,,,,,,,,,,,,,,,,,,,,,,,,,,,,,,,,,
,,,,,,,,,,,,l,1.10172,Correct!,0,6,6,27,1,t3.png,t1.png,2,0.0565,24,female,2020-08-26_11h10.47.139,torte-2b,2020.1.3,MacIntel,60,13404,,,,,,,,,,,,,,,,,,,,,,,,,,,,,,,,,,,,,,,,,,,,,,,,,,,,,,,,,,,,,,,,,
,,,,,,,,,,,,a,0.63677,Incorrect,0,7,7,12,1,t5.png,t1.png,4,9.55E-11,24,female,2020-08-26_11h10.47.139,torte-2b,2020.1.3,MacIntel,60,13404,,,,,,,,,,,,,,,,,,,,,,,,,,,,,,,,,,,,,,,,,,,,,,,,,,,,,,,,,,,,,,,,,
,,,,,,,,,,,,l,0.550535,Correct!,0,8,8,36,1,t3.png,t1.png,2,0.0565,24,female,2020-08-26_11h10.47.139,torte-2b,2020.1.3,MacIntel,60,13404,,,,,,,,,,,,,,,,,,,,,,,,,,,,,,,,,,,,,,,,,,,,,,,,,,,,,,,,,,,,,,,,,
,,,,,,,,,,,,l,1.184455,Correct!,0,9,9,115,1,t2.png,t4.png,2,0.059078,24,female,2020-08-26_11h10.47.139,torte-2b,2020.1.3,MacIntel,60,13404,,,,,,,,,,,,,,,,,,,,,,,,,,,,,,,,,,,,,,,,,,,,,,,,,,,,,,,,,,,,,,,,,
,,,,,,,,,,,,l,1.01749,Correct!,0,10,10,33,1,t5.png,t1.png,4,9.55E-11,24,female,2020-08-26_11h10.47.139,torte-2b,2020.1.3,MacIntel,60,13404,,,,,,,,,,,,,,,,,,,,,,,,,,,,,,,,,,,,,,,,,,,,,,,,,,,,,,,,,,,,,,,,,
,,,,,,,,,,,,a,1.501835,Correct!,0,11,11,48,1,t5.png,t5.png,0,0.97829,24,female,2020-08-26_11h10.47.139,torte-2b,2020.1.3,MacIntel,60,13404,,,,,,,,,,,,,,,,,,,,,,,,,,,,,,,,,,,,,,,,,,,,,,,,,,,,,,,,,,,,,,,,,
,,,,,,,,,,,,l,0.717815,Correct!,0,12,12,3,1,t1.png,t5.png,4,9.55E-11,24,female,2020-08-26_11h10.47.139,torte-2b,2020.1.3,MacIntel,60,13404,,,,,,,,,,,,,,,,,,,,,,,,,,,,,,,,,,,,,,,,,,,,,,,,,,,,,,,,,,,,,,,,,
,,,,,,,,,,,,l,0.750745,Correct!,0,13,13,37,1,t1.png,t4.png,3,0.0000131,24,female,2020-08-26_11h10.47.139,torte-2b,2020.1.3,MacIntel,60,13404,,,,,,,,,,,,,,,,,,,,,,,,,,,,,,,,,,,,,,,,,,,,,,,,,,,,,,,,,,,,,,,,,
,,,,,,,,,,,,l,0.65146,Correct!,0,14,14,31,1,t1.png,t5.png,4,9.55E-11,24,female,2020-08-26_11h10.47.139,torte-2b,2020.1.3,MacIntel,60,13404,,,,,,,,,,,,,,,,,,,,,,,,,,,,,,,,,,,,,,,,,,,,,,,,,,,,,,,,,,,,,,,,,
,,,,,,,,,,,,a,1.151075,Incorrect,0,15,15,102,1,t4.png,t2.png,2,0.059078,24,female,2020-08-26_11h10.47.139,torte-2b,2020.1.3,MacIntel,60,13404,,,,,,,,,,,,,,,,,,,,,,,,,,,,,,,,,,,,,,,,,,,,,,,,,,,,,,,,,,,,,,,,,
,,,,,,,,,,,,l,0.87021,Incorrect,0,16,16,15,1,t3.png,t2.png,1,0.90855,24,female,2020-08-26_11h10.47.139,torte-2b,2020.1.3,MacIntel,60,13404,,,,,,,,,,,,,,,,,,,,,,,,,,,,,,,,,,,,,,,,,,,,,,,,,,,,,,,,,,,,,,,,,
,,,,,,,,,,,,l,0.568095,Correct!,0,17,17,14,1,t2.png,t4.png,2,0.059078,24,female,2020-08-26_11h10.47.139,torte-2b,2020.1.3,MacIntel,60,13404,,,,,,,,,,,,,,,,,,,,,,,,,,,,,,,,,,,,,,,,,,,,,,,,,,,,,,,,,,,,,,,,,
,,,,,,,,,,,,l,0.68567,Incorrect,0,18,18,49,1,t4.png,t5.png,1,0.9,24,female,2020-08-26_11h10.47.139,torte-2b,2020.1.3,MacIntel,60,13404,,,,,,,,,,,,,,,,,,,,,,,,,,,,,,,,,,,,,,,,,,,,,,,,,,,,,,,,,,,,,,,,,
,,,,,,,,,,,,a,1.801045,Incorrect,0,19,19,0,1,t5.png,t1.png,4,9.55E-11,24,female,2020-08-26_11h10.47.139,torte-2b,2020.1.3,MacIntel,60,13404,,,,,,,,,,,,,,,,,,,,,,,,,,,,,,,,,,,,,,,,,,,,,,,,,,,,,,,,,,,,,,,,,
,,,,,,,,,,,,l,0.351865,Correct!,0,20,20,52,1,t2.png,t4.png,2,0.059078,24,female,2020-08-26_11h10.47.139,torte-2b,2020.1.3,MacIntel,60,13404,,,,,,,,,,,,,,,,,,,,,,,,,,,,,,,,,,,,,,,,,,,,,,,,,,,,,,,,,,,,,,,,,
,,,,,,,,,,,,l,0.539635,Correct!,0,21,21,4,1,t1.png,t5.png,4,9.55E-11,24,female,2020-08-26_11h10.47.139,torte-2b,2020.1.3,MacIntel,60,13404,,,,,,,,,,,,,,,,,,,,,,,,,,,,,,,,,,,,,,,,,,,,,,,,,,,,,,,,,,,,,,,,,
,,,,,,,,,,,,l,0.53575,Correct!,0,22,22,40,1,t1.png,t5.png,4,9.55E-11,24,female,2020-08-26_11h10.47.139,torte-2b,2020.1.3,MacIntel,60,13404,,,,,,,,,,,,,,,,,,,,,,,,,,,,,,,,,,,,,,,,,,,,,,,,,,,,,,,,,,,,,,,,,
,,,,,,,,,,,,a,0.851355,Incorrect,0,23,23,56,1,t5.png,t1.png,4,9.55E-11,24,female,2020-08-26_11h10.47.139,torte-2b,2020.1.3,MacIntel,60,13404,,,,,,,,,,,,,,,,,,,,,,,,,,,,,,,,,,,,,,,,,,,,,,,,,,,,,,,,,,,,,,,,,
,,,,,,,,,,,,l,0.13465,Incorrect,0,24,24,105,1,t3.png,t2.png,1,0.90855,24,female,2020-08-26_11h10.47.139,torte-2b,2020.1.3,MacIntel,60,13404,,,,,,,,,,,,,,,,,,,,,,,,,,,,,,,,,,,,,,,,,,,,,,,,,,,,,,,,,,,,,,,,,
,,,,,,,,,,,,l,0.500515,Correct!,0,25,25,17,1,t1.png,t4.png,3,0.0000131,24,female,2020-08-26_11h10.47.139,torte-2b,2020.1.3,MacIntel,60,13404,,,,,,,,,,,,,,,,,,,,,,,,,,,,,,,,,,,,,,,,,,,,,,,,,,,,,,,,,,,,,,,,,
,,,,,,,,,,,,l,0.61898,Correct!,0,26,26,67,1,t1.png,t5.png,4,9.55E-11,24,female,2020-08-26_11h10.47.139,torte-2b,2020.1.3,MacIntel,60,13404,,,,,,,,,,,,,,,,,,,,,,,,,,,,,,,,,,,,,,,,,,,,,,,,,,,,,,,,,,,,,,,,,
,,,,,,,,,,,,a,0.95119,Correct!,0,27,27,74,1,t5.png,t4.png,1,0.9,24,female,2020-08-26_11h10.47.139,torte-2b,2020.1.3,MacIntel,60,13404,,,,,,,,,,,,,,,,,,,,,,,,,,,,,,,,,,,,,,,,,,,,,,,,,,,,,,,,,,,,,,,,,
,,,,,,,,,,,,l,0.634355,Incorrect,0,28,28,76,1,t3.png,t2.png,1,0.90855,24,female,2020-08-26_11h10.47.139,torte-2b,2020.1.3,MacIntel,60,13404,,,,,,,,,,,,,,,,,,,,,,,,,,,,,,,,,,,,,,,,,,,,,,,,,,,,,,,,,,,,,,,,,
,,,,,,,,,,,,l,0.555575,Incorrect,0,29,29,28,1,t2.png,t3.png,1,0.909,24,female,2020-08-26_11h10.47.139,torte-2b,2020.1.3,MacIntel,60,13404,,,,,,,,,,,,,,,,,,,,,,,,,,,,,,,,,,,,,,,,,,,,,,,,,,,,,,,,,,,,,,,,,
,,,,,,,,,,,,a,1.23611,Incorrect,0,30,30,51,1,t3.png,t1.png,2,0.056466,24,female,2020-08-26_11h10.47.139,torte-2b,2020.1.3,MacIntel,60,13404,,,,,,,,,,,,,,,,,,,,,,,,,,,,,,,,,,,,,,,,,,,,,,,,,,,,,,,,,,,,,,,,,
,,,,,,,,,,,,l,0.46897,Incorrect,0,31,31,66,1,t4.png,t5.png,1,0.9,24,female,2020-08-26_11h10.47.139,torte-2b,2020.1.3,MacIntel,60,13404,,,,,,,,,,,,,,,,,,,,,,,,,,,,,,,,,,,,,,,,,,,,,,,,,,,,,,,,,,,,,,,,,
,,,,,,,,,,,,l,0.634645,Correct!,0,32,32,6,1,t1.png,t4.png,3,0.0000131,24,female,2020-08-26_11h10.47.139,torte-2b,2020.1.3,MacIntel,60,13404,,,,,,,,,,,,,,,,,,,,,,,,,,,,,,,,,,,,,,,,,,,,,,,,,,,,,,,,,,,,,,,,,
,,,,,,,,,,,,a,0.735245,Correct!,0,33,33,110,1,t4.png,t5.png,1,0.90025,24,female,2020-08-26_11h10.47.139,torte-2b,2020.1.3,MacIntel,60,13404,,,,,,,,,,,,,,,,,,,,,,,,,,,,,,,,,,,,,,,,,,,,,,,,,,,,,,,,,,,,,,,,,
,,,,,,,,,,,,l,0.50109,Correct!,0,34,34,57,1,t2.png,t4.png,2,0.059078,24,female,2020-08-26_11h10.47.139,torte-2b,2020.1.3,MacIntel,60,13404,,,,,,,,,,,,,,,,,,,,,,,,,,,,,,,,,,,,,,,,,,,,,,,,,,,,,,,,,,,,,,,,,
,,,,,,,,,,,,l,0.71775,Correct!,0,35,35,90,1,t1.png,t5.png,4,9.55E-11,24,female,2020-08-26_11h10.47.139,torte-2b,2020.1.3,MacIntel,60,13404,,,,,,,,,,,,,,,,,,,,,,,,,,,,,,,,,,,,,,,,,,,,,,,,,,,,,,,,,,,,,,,,,
,,,,,,,,,,,,l,0.56804,Correct!,0,36,36,119,1,t1.png,t5.png,4,9.55E-11,24,female,2020-08-26_11h10.47.139,torte-2b,2020.1.3,MacIntel,60,13404,,,,,,,,,,,,,,,,,,,,,,,,,,,,,,,,,,,,,,,,,,,,,,,,,,,,,,,,,,,,,,,,,
,,,,,,,,,,,,l,0.4515,Incorrect,0,37,37,20,1,t2.png,t3.png,1,0.90855,24,female,2020-08-26_11h10.47.139,torte-2b,2020.1.3,MacIntel,60,13404,,,,,,,,,,,,,,,,,,,,,,,,,,,,,,,,,,,,,,,,,,,,,,,,,,,,,,,,,,,,,,,,,
,,,,,,,,,,,,a,0.60132,Correct!,0,38,38,21,1,t5.png,t4.png,1,0.90025,24,female,2020-08-26_11h10.47.139,torte-2b,2020.1.3,MacIntel,60,13404,,,,,,,,,,,,,,,,,,,,,,,,,,,,,,,,,,,,,,,,,,,,,,,,,,,,,,,,,,,,,,,,,
,,,,,,,,,,,,l,0.601285,Correct!,0,39,39,43,1,t4.png,t2.png,2,0.059078,24,female,2020-08-26_11h10.47.139,torte-2b,2020.1.3,MacIntel,60,13404,,,,,,,,,,,,,,,,,,,,,,,,,,,,,,,,,,,,,,,,,,,,,,,,,,,,,,,,,,,,,,,,,
,,,,,,,,,,,,a,0.934875,Incorrect,0,40,40,82,1,t5.png,t1.png,4,9.55E-11,24,female,2020-08-26_11h10.47.139,torte-2b,2020.1.3,MacIntel,60,13404,,,,,,,,,,,,,,,,,,,,,,,,,,,,,,,,,,,,,,,,,,,,,,,,,,,,,,,,,,,,,,,,,
,,,,,,,,,,,,l,0.60126,Correct!,0,41,41,83,1,t3.png,t1.png,2,0.056466,24,female,2020-08-26_11h10.47.139,torte-2b,2020.1.3,MacIntel,60,13404,,,,,,,,,,,,,,,,,,,,,,,,,,,,,,,,,,,,,,,,,,,,,,,,,,,,,,,,,,,,,,,,,
,,,,,,,,,,,,a,0.534575,Incorrect,0,42,42,94,1,t5.png,t1.png,4,9.55E-11,24,female,2020-08-26_11h10.47.139,torte-2b,2020.1.3,MacIntel,60,13404,,,,,,,,,,,,,,,,,,,,,,,,,,,,,,,,,,,,,,,,,,,,,,,,,,,,,,,,,,,,,,,,,
,,,,,,,,,,,,l,0.304435,Incorrect,0,43,43,101,1,t4.png,t5.png,1,0.90025,24,female,2020-08-26_11h10.47.139,torte-2b,2020.1.3,MacIntel,60,13404,,,,,,,,,,,,,,,,,,,,,,,,,,,,,,,,,,,,,,,,,,,,,,,,,,,,,,,,,,,,,,,,,
,,,,,,,,,,,,l,0.41787,Correct!,0,44,44,91,1,t1.png,t4.png,3,0.0000131,24,female,2020-08-26_11h10.47.139,torte-2b,2020.1.3,MacIntel,60,13404,,,,,,,,,,,,,,,,,,,,,,,,,,,,,,,,,,,,,,,,,,,,,,,,,,,,,,,,,,,,,,,,,
,,,,,,,,,,,,l,0.484995,Correct!,0,45,45,80,1,t1.png,t4.png,3,0.0000131,24,female,2020-08-26_11h10.47.139,torte-2b,2020.1.3,MacIntel,60,13404,,,,,,,,,,,,,,,,,,,,,,,,,,,,,,,,,,,,,,,,,,,,,,,,,,,,,,,,,,,,,,,,,
,,,,,,,,,,,,l,0.734775,Correct!,0,46,46,11,1,t1.png,t4.png,3,0.0000131,24,female,2020-08-26_11h10.47.139,torte-2b,2020.1.3,MacIntel,60,13404,,,,,,,,,,,,,,,,,,,,,,,,,,,,,,,,,,,,,,,,,,,,,,,,,,,,,,,,,,,,,,,,,
,,,,,,,,,,,,a,0.868625,Correct!,0,47,47,97,1,t5.png,t5.png,0,0.97829,24,female,2020-08-26_11h10.47.139,torte-2b,2020.1.3,MacIntel,60,13404,,,,,,,,,,,,,,,,,,,,,,,,,,,,,,,,,,,,,,,,,,,,,,,,,,,,,,,,,,,,,,,,,
,,,,,,,,,,,,,,Too slow :(,0,48,48,96,1,t1.png,t1.png,0,0.97829,24,female,2020-08-26_11h10.47.139,torte-2b,2020.1.3,MacIntel,60,13404,,,,,,,,,,,,,,,,,,,,,,,,,,,,,,,,,,,,,,,,,,,,,,,,,,,,,,,,,,,,,,,,,
,,,,,,,,,,,,a,0.601415,Incorrect,0,49,49,19,1,t4.png,t2.png,2,0.059078,24,female,2020-08-26_11h10.47.139,torte-2b,2020.1.3,MacIntel,60,13404,,,,,,,,,,,,,,,,,,,,,,,,,,,,,,,,,,,,,,,,,,,,,,,,,,,,,,,,,,,,,,,,,
,,,,,,,,,,,,l,0.618135,Correct!,0,50,50,46,1,t4.png,t2.png,2,0.059078,24,female,2020-08-26_11h10.47.139,torte-2b,2020.1.3,MacIntel,60,13404,,,,,,,,,,,,,,,,,,,,,,,,,,,,,,,,,,,,,,,,,,,,,,,,,,,,,,,,,,,,,,,,,
,,,,,,,,,,,,l,0.651655,Correct!,0,51,51,98,1,t2.png,t4.png,2,0.0591,24,female,2020-08-26_11h10.47.139,torte-2b,2020.1.3,MacIntel,60,13404,,,,,,,,,,,,,,,,,,,,,,,,,,,,,,,,,,,,,,,,,,,,,,,,,,,,,,,,,,,,,,,,,
,,,,,,,,,,,,a,0.705325,Correct!,0,52,52,113,1,t5.png,t4.png,1,0.9,24,female,2020-08-26_11h10.47.139,torte-2b,2020.1.3,MacIntel,60,13404,,,,,,,,,,,,,,,,,,,,,,,,,,,,,,,,,,,,,,,,,,,,,,,,,,,,,,,,,,,,,,,,,
,,,,,,,,,,,,l,0.751655,Incorrect,0,53,53,106,1,t2.png,t3.png,1,0.90855,24,female,2020-08-26_11h10.47.139,torte-2b,2020.1.3,MacIntel,60,13404,,,,,,,,,,,,,,,,,,,,,,,,,,,,,,,,,,,,,,,,,,,,,,,,,,,,,,,,,,,,,,,,,
,,,,,,,,,,,,a,0.550635,Incorrect,0,54,54,50,1,t5.png,t1.png,4,9.55E-11,24,female,2020-08-26_11h10.47.139,torte-2b,2020.1.3,MacIntel,60,13404,,,,,,,,,,,,,,,,,,,,,,,,,,,,,,,,,,,,,,,,,,,,,,,,,,,,,,,,,,,,,,,,,
,,,,,,,,,,,,l,0.52149,Correct!,0,55,55,9,1,t4.png,t5.png,1,0.9,24,female,2020-08-26_11h10.47.139,torte-2b,2020.1.3,MacIntel,60,13404,,,,,,,,,,,,,,,,,,,,,,,,,,,,,,,,,,,,,,,,,,,,,,,,,,,,,,,,,,,,,,,,,
,,,,,,,,,,,,l,0.7345,Correct!,0,56,56,68,1,t1.png,t4.png,3,0.0000131,24,female,2020-08-26_11h10.47.139,torte-2b,2020.1.3,MacIntel,60,13404,,,,,,,,,,,,,,,,,,,,,,,,,,,,,,,,,,,,,,,,,,,,,,,,,,,,,,,,,,,,,,,,,
,,,,,,,,,,,,a,0.91663,Incorrect,0,57,57,38,1,t3.png,t1.png,2,0.056466,24,female,2020-08-26_11h10.47.139,torte-2b,2020.1.3,MacIntel,60,13404,,,,,,,,,,,,,,,,,,,,,,,,,,,,,,,,,,,,,,,,,,,,,,,,,,,,,,,,,,,,,,,,,
,,,,,,,,,,,,l,0.851585,Incorrect,0,58,58,95,1,t1.png,t1.png,0,0.978,24,female,2020-08-26_11h10.47.139,torte-2b,2020.1.3,MacIntel,60,13404,,,,,,,,,,,,,,,,,,,,,,,,,,,,,,,,,,,,,,,,,,,,,,,,,,,,,,,,,,,,,,,,,
,,,,,,,,,,,,a,0.73453,Incorrect,0,59,59,73,1,t4.png,t2.png,2,0.059078,24,female,2020-08-26_11h10.47.139,torte-2b,2020.1.3,MacIntel,60,13404,,,,,,,,,,,,,,,,,,,,,,,,,,,,,,,,,,,,,,,,,,,,,,,,,,,,,,,,,,,,,,,,,
,,,,,,,,,,,,l,1.01917,Incorrect,0,60,60,71,1,t5.png,t5.png,0,0.97829,24,female,2020-08-26_11h10.47.139,torte-2b,2020.1.3,MacIntel,60,13404,,,,,,,,,,,,,,,,,,,,,,,,,,,,,,,,,,,,,,,,,,,,,,,,,,,,,,,,,,,,,,,,,
,,,,,,,,,,,,l,0.687625,Incorrect,0,61,61,78,1,t1.png,t1.png,0,0.978,24,female,2020-08-26_11h10.47.139,torte-2b,2020.1.3,MacIntel,60,13404,,,,,,,,,,,,,,,,,,,,,,,,,,,,,,,,,,,,,,,,,,,,,,,,,,,,,,,,,,,,,,,,,
,,,,,,,,,,,,a,0.600825,Incorrect,0,62,62,34,1,t5.png,t4.png,1,0.9,24,female,2020-08-26_11h10.47.139,torte-2b,2020.1.3,MacIntel,60,13404,,,,,,,,,,,,,,,,,,,,,,,,,,,,,,,,,,,,,,,,,,,,,,,,,,,,,,,,,,,,,,,,,
,,,,,,,,,,,,l,0.77085,Incorrect,0,63,63,23,1,t5.png,t4.png,1,0.90025,24,female,2020-08-26_11h10.47.139,torte-2b,2020.1.3,MacIntel,60,13404,,,,,,,,,,,,,,,,,,,,,,,,,,,,,,,,,,,,,,,,,,,,,,,,,,,,,,,,,,,,,,,,,
,,,,,,,,,,,,a,0.900895,Incorrect,0,64,64,72,1,t4.png,t2.png,2,0.059078,24,female,2020-08-26_11h10.47.139,torte-2b,2020.1.3,MacIntel,60,13404,,,,,,,,,,,,,,,,,,,,,,,,,,,,,,,,,,,,,,,,,,,,,,,,,,,,,,,,,,,,,,,,,
,,,,,,,,,,,,l,0.620065,Incorrect,0,65,65,7,1,t4.png,t5.png,1,0.90025,24,female,2020-08-26_11h10.47.139,torte-2b,2020.1.3,MacIntel,60,13404,,,,,,,,,,,,,,,,,,,,,,,,,,,,,,,,,,,,,,,,,,,,,,,,,,,,,,,,,,,,,,,,,
,,,,,,,,,,,,l,0.857525,Incorrect,0,66,66,8,1,t3.png,t2.png,1,0.90855,24,female,2020-08-26_11h10.47.139,torte-2b,2020.1.3,MacIntel,60,13404,,,,,,,,,,,,,,,,,,,,,,,,,,,,,,,,,,,,,,,,,,,,,,,,,,,,,,,,,,,,,,,,,
,,,,,,,,,,,,l,0.67775,Incorrect,0,67,67,45,1,t3.png,t2.png,1,0.90855,24,female,2020-08-26_11h10.47.139,torte-2b,2020.1.3,MacIntel,60,13404,,,,,,,,,,,,,,,,,,,,,,,,,,,,,,,,,,,,,,,,,,,,,,,,,,,,,,,,,,,,,,,,,
,,,,,,,,,,,,a,0.4903,Correct!,0,68,68,116,1,t5.png,t4.png,1,0.90025,24,female,2020-08-26_11h10.47.139,torte-2b,2020.1.3,MacIntel,60,13404,,,,,,,,,,,,,,,,,,,,,,,,,,,,,,,,,,,,,,,,,,,,,,,,,,,,,,,,,,,,,,,,,
,,,,,,,,,,,,l,0.66717,Correct!,0,69,69,54,1,t1.png,t5.png,4,9.55E-11,24,female,2020-08-26_11h10.47.139,torte-2b,2020.1.3,MacIntel,60,13404,,,,,,,,,,,,,,,,,,,,,,,,,,,,,,,,,,,,,,,,,,,,,,,,,,,,,,,,,,,,,,,,,
,,,,,,,,,,,,a,0.745525,Correct!,0,70,70,62,1,t5.png,t5.png,0,0.978,24,female,2020-08-26_11h10.47.139,torte-2b,2020.1.3,MacIntel,60,13404,,,,,,,,,,,,,,,,,,,,,,,,,,,,,,,,,,,,,,,,,,,,,,,,,,,,,,,,,,,,,,,,,
,,,,,,,,,,,,l,0.53398,Incorrect,0,71,71,75,1,t1.png,t1.png,0,0.97829,24,female,2020-08-26_11h10.47.139,torte-2b,2020.1.3,MacIntel,60,13404,,,,,,,,,,,,,,,,,,,,,,,,,,,,,,,,,,,,,,,,,,,,,,,,,,,,,,,,,,,,,,,,,
,,,,,,,,,,,,l,1.1022,Incorrect,0,72,72,63,1,t2.png,t3.png,1,0.909,24,female,2020-08-26_11h10.47.139,torte-2b,2020.1.3,MacIntel,60,13404,,,,,,,,,,,,,,,,,,,,,,,,,,,,,,,,,,,,,,,,,,,,,,,,,,,,,,,,,,,,,,,,,
,,,,,,,,,,,,a,0.76698,Correct!,0,73,73,118,1,t5.png,t5.png,0,0.978,24,female,2020-08-26_11h10.47.139,torte-2b,2020.1.3,MacIntel,60,13404,,,,,,,,,,,,,,,,,,,,,,,,,,,,,,,,,,,,,,,,,,,,,,,,,,,,,,,,,,,,,,,,,
,,,,,,,,,,,,l,0.750425,Incorrect,0,74,74,64,1,t1.png,t1.png,0,0.978,24,female,2020-08-26_11h10.47.139,torte-2b,2020.1.3,MacIntel,60,13404,,,,,,,,,,,,,,,,,,,,,,,,,,,,,,,,,,,,,,,,,,,,,,,,,,,,,,,,,,,,,,,,,
,,,,,,,,,,,,a,1.0576,Correct!,0,75,75,104,1,t2.png,t3.png,1,0.90855,24,female,2020-08-26_11h10.47.139,torte-2b,2020.1.3,MacIntel,60,13404,,,,,,,,,,,,,,,,,,,,,,,,,,,,,,,,,,,,,,,,,,,,,,,,,,,,,,,,,,,,,,,,,
,,,,,,,,,,,,l,0.50664,Incorrect,0,76,76,29,1,t5.png,t5.png,0,0.97829,24,female,2020-08-26_11h10.47.139,torte-2b,2020.1.3,MacIntel,60,13404,,,,,,,,,,,,,,,,,,,,,,,,,,,,,,,,,,,,,,,,,,,,,,,,,,,,,,,,,,,,,,,,,
,,,,,,,,,,,,l,0.634,Correct!,0,77,77,88,1,t3.png,t1.png,2,0.056466,24,female,2020-08-26_11h10.47.139,torte-2b,2020.1.3,MacIntel,60,13404,,,,,,,,,,,,,,,,,,,,,,,,,,,,,,,,,,,,,,,,,,,,,,,,,,,,,,,,,,,,,,,,,
,,,,,,,,,,,,a,1.2844,Incorrect,0,78,78,26,1,t4.png,t2.png,2,0.0591,24,female,2020-08-26_11h10.47.139,torte-2b,2020.1.3,MacIntel,60,13404,,,,,,,,,,,,,,,,,,,,,,,,,,,,,,,,,,,,,,,,,,,,,,,,,,,,,,,,,,,,,,,,,
,,,,,,,,,,,,l,1.201465,Incorrect,0,79,79,10,1,t2.png,t3.png,1,0.90855,24,female,2020-08-26_11h10.47.139,torte-2b,2020.1.3,MacIntel,60,13404,,,,,,,,,,,,,,,,,,,,,,,,,,,,,,,,,,,,,,,,,,,,,,,,,,,,,,,,,,,,,,,,,
,,,,,,,,,,,,a,2.401525,Incorrect,0,80,80,69,1,t4.png,t2.png,2,0.059078,24,female,2020-08-26_11h10.47.139,torte-2b,2020.1.3,MacIntel,60,13404,,,,,,,,,,,,,,,,,,,,,,,,,,,,,,,,,,,,,,,,,,,,,,,,,,,,,,,,,,,,,,,,,
,,,,,,,,,,,,l,1.918705,Correct!,0,81,81,87,1,t5.png,t1.png,4,9.55E-11,24,female,2020-08-26_11h10.47.139,torte-2b,2020.1.3,MacIntel,60,13404,,,,,,,,,,,,,,,,,,,,,,,,,,,,,,,,,,,,,,,,,,,,,,,,,,,,,,,,,,,,,,,,,
,,,,,,,,,,,,l,0.71782,Incorrect,0,82,82,114,1,t2.png,t3.png,1,0.90855,24,female,2020-08-26_11h10.47.139,torte-2b,2020.1.3,MacIntel,60,13404,,,,,,,,,,,,,,,,,,,,,,,,,,,,,,,,,,,,,,,,,,,,,,,,,,,,,,,,,,,,,,,,,
,,,,,,,,,,,,l,0.417405,Incorrect,0,83,83,81,1,t1.png,t1.png,0,0.97829,24,female,2020-08-26_11h10.47.139,torte-2b,2020.1.3,MacIntel,60,13404,,,,,,,,,,,,,,,,,,,,,,,,,,,,,,,,,,,,,,,,,,,,,,,,,,,,,,,,,,,,,,,,,
,,,,,,,,,,,,,,Too slow :(,0,84,84,24,1,t4.png,t2.png,2,0.059078,24,female,2020-08-26_11h10.47.139,torte-2b,2020.1.3,MacIntel,60,13404,,,,,,,,,,,,,,,,,,,,,,,,,,,,,,,,,,,,,,,,,,,,,,,,,,,,,,,,,,,,,,,,,
,,,,,,,,,,,,a,0.568005,Correct!,0,85,85,16,1,t5.png,t4.png,1,0.9,24,female,2020-08-26_11h10.47.139,torte-2b,2020.1.3,MacIntel,60,13404,,,,,,,,,,,,,,,,,,,,,,,,,,,,,,,,,,,,,,,,,,,,,,,,,,,,,,,,,,,,,,,,,
,,,,,,,,,,,,l,0.43476,Correct!,0,86,86,55,1,t2.png,t4.png,2,0.059078,24,female,2020-08-26_11h10.47.139,torte-2b,2020.1.3,MacIntel,60,13404,,,,,,,,,,,,,,,,,,,,,,,,,,,,,,,,,,,,,,,,,,,,,,,,,,,,,,,,,,,,,,,,,
,,,,,,,,,,,,l,0.68453,Correct!,0,87,87,35,1,t1.png,t4.png,3,0.0000131,24,female,2020-08-26_11h10.47.139,torte-2b,2020.1.3,MacIntel,60,13404,,,,,,,,,,,,,,,,,,,,,,,,,,,,,,,,,,,,,,,,,,,,,,,,,,,,,,,,,,,,,,,,,
,,,,,,,,,,,,l,0.59224,Incorrect,0,88,88,18,1,t4.png,t5.png,1,0.90025,24,female,2020-08-26_11h10.47.139,torte-2b,2020.1.3,MacIntel,60,13404,,,,,,,,,,,,,,,,,,,,,,,,,,,,,,,,,,,,,,,,,,,,,,,,,,,,,,,,,,,,,,,,,
,,,,,,,,,,,,l,0.768105,Incorrect,0,89,89,77,1,t1.png,t1.png,0,0.97829,24,female,2020-08-26_11h10.47.139,torte-2b,2020.1.3,MacIntel,60,13404,,,,,,,,,,,,,,,,,,,,,,,,,,,,,,,,,,,,,,,,,,,,,,,,,,,,,,,,,,,,,,,,,
,,,,,,,,,,,,a,0.539315,Incorrect,0,90,90,108,1,t5.png,t1.png,4,9.55E-11,24,female,2020-08-26_11h10.47.139,torte-2b,2020.1.3,MacIntel,60,13404,,,,,,,,,,,,,,,,,,,,,,,,,,,,,,,,,,,,,,,,,,,,,,,,,,,,,,,,,,,,,,,,,
,,,,,,,,,,,,l,0.56814,Correct!,0,91,91,30,1,t3.png,t1.png,2,0.056466,24,female,2020-08-26_11h10.47.139,torte-2b,2020.1.3,MacIntel,60,13404,,,,,,,,,,,,,,,,,,,,,,,,,,,,,,,,,,,,,,,,,,,,,,,,,,,,,,,,,,,,,,,,,
,,,,,,,,,,,,a,0.82395,Correct!,0,92,92,42,1,t5.png,t4.png,1,0.90025,24,female,2020-08-26_11h10.47.139,torte-2b,2020.1.3,MacIntel,60,13404,,,,,,,,,,,,,,,,,,,,,,,,,,,,,,,,,,,,,,,,,,,,,,,,,,,,,,,,,,,,,,,,,
,,,,,,,,,,,,l,0.96743,Incorrect,0,93,93,22,1,t2.png,t3.png,1,0.90855,24,female,2020-08-26_11h10.47.139,torte-2b,2020.1.3,MacIntel,60,13404,,,,,,,,,,,,,,,,,,,,,,,,,,,,,,,,,,,,,,,,,,,,,,,,,,,,,,,,,,,,,,,,,
,,,,,,,,,,,,l,0.54702,Correct!,0,94,94,5,1,t2.png,t4.png,2,0.059078,24,female,2020-08-26_11h10.47.139,torte-2b,2020.1.3,MacIntel,60,13404,,,,,,,,,,,,,,,,,,,,,,,,,,,,,,,,,,,,,,,,,,,,,,,,,,,,,,,,,,,,,,,,,
,,,,,,,,,,,,,,Too slow :(,0,95,95,65,1,t4.png,t5.png,1,0.90025,24,female,2020-08-26_11h10.47.139,torte-2b,2020.1.3,MacIntel,60,13404,,,,,,,,,,,,,,,,,,,,,,,,,,,,,,,,,,,,,,,,,,,,,,,,,,,,,,,,,,,,,,,,,
,,,,,,,,,,,,a,0.58284,Correct!,0,96,96,25,1,t5.png,t5.png,0,0.97829,24,female,2020-08-26_11h10.47.139,torte-2b,2020.1.3,MacIntel,60,13404,,,,,,,,,,,,,,,,,,,,,,,,,,,,,,,,,,,,,,,,,,,,,,,,,,,,,,,,,,,,,,,,,
,,,,,,,,,,,,l,0.791705,Incorrect,0,97,97,59,1,t5.png,t4.png,1,0.9,24,female,2020-08-26_11h10.47.139,torte-2b,2020.1.3,MacIntel,60,13404,,,,,,,,,,,,,,,,,,,,,,,,,,,,,,,,,,,,,,,,,,,,,,,,,,,,,,,,,,,,,,,,,
,,,,,,,,,,,,l,0.370625,Correct!,0,98,98,61,1,t1.png,t4.png,3,0.0000131,24,female,2020-08-26_11h10.47.139,torte-2b,2020.1.3,MacIntel,60,13404,,,,,,,,,,,,,,,,,,,,,,,,,,,,,,,,,,,,,,,,,,,,,,,,,,,,,,,,,,,,,,,,,
,,,,,,,,,,,,l,0.599335,Incorrect,0,99,99,100,1,t4.png,t5.png,1,0.90025,24,female,2020-08-26_11h10.47.139,torte-2b,2020.1.3,MacIntel,60,13404,,,,,,,,,,,,,,,,,,,,,,,,,,,,,,,,,,,,,,,,,,,,,,,,,,,,,,,,,,,,,,,,,
,,,,,,,,,,,,l,0.566385,Incorrect,0,100,100,107,1,t1.png,t1.png,0,0.978,24,female,2020-08-26_11h10.47.139,torte-2b,2020.1.3,MacIntel,60,13404,,,,,,,,,,,,,,,,,,,,,,,,,,,,,,,,,,,,,,,,,,,,,,,,,,,,,,,,,,,,,,,,,
,,,,,,,,,,,,l,0.767855,Correct!,0,101,101,1,1,t2.png,t4.png,2,0.059078,24,female,2020-08-26_11h10.47.139,torte-2b,2020.1.3,MacIntel,60,13404,,,,,,,,,,,,,,,,,,,,,,,,,,,,,,,,,,,,,,,,,,,,,,,,,,,,,,,,,,,,,,,,,
,,,,,,,,,,,,,,Too slow :(,0,102,102,70,1,t5.png,t5.png,0,0.978,24,female,2020-08-26_11h10.47.139,torte-2b,2020.1.3,MacIntel,60,13404,,,,,,,,,,,,,,,,,,,,,,,,,,,,,,,,,,,,,,,,,,,,,,,,,,,,,,,,,,,,,,,,,
,,,,,,,,,,,,l,0.6332,Correct!,0,103,103,2,1,t3.png,t2.png,1,0.90855,24,female,2020-08-26_11h10.47.139,torte-2b,2020.1.3,MacIntel,60,13404,,,,,,,,,,,,,,,,,,,,,,,,,,,,,,,,,,,,,,,,,,,,,,,,,,,,,,,,,,,,,,,,,
,,,,,,,,,,,,l,0.41278,Incorrect,0,104,104,84,1,t1.png,t1.png,0,0.97829,24,female,2020-08-26_11h10.47.139,torte-2b,2020.1.3,MacIntel,60,13404,,,,,,,,,,,,,,,,,,,,,,,,,,,,,,,,,,,,,,,,,,,,,,,,,,,,,,,,,,,,,,,,,
,,,,,,,,,,,,a,0.40079,Correct!,0,105,105,79,1,t3.png,t2.png,1,0.909,24,female,2020-08-26_11h10.47.139,torte-2b,2020.1.3,MacIntel,60,13404,,,,,,,,,,,,,,,,,,,,,,,,,,,,,,,,,,,,,,,,,,,,,,,,,,,,,,,,,,,,,,,,,
,,,,,,,,,,,,l,0.50141,Incorrect,0,106,106,44,1,t2.png,t3.png,1,0.909,24,female,2020-08-26_11h10.47.139,torte-2b,2020.1.3,MacIntel,60,13404,,,,,,,,,,,,,,,,,,,,,,,,,,,,,,,,,,,,,,,,,,,,,,,,,,,,,,,,,,,,,,,,,
,,,,,,,,,,,,l,1.692255,Incorrect,0,107,107,13,1,t5.png,t5.png,0,0.97829,24,female,2020-08-26_11h10.47.139,torte-2b,2020.1.3,MacIntel,60,13404,,,,,,,,,,,,,,,,,,,,,,,,,,,,,,,,,,,,,,,,,,,,,,,,,,,,,,,,,,,,,,,,,
,,,,,,,,,,,,a,0.436645,Incorrect,0,108,108,86,1,t3.png,t1.png,2,0.056466,24,female,2020-08-26_11h10.47.139,torte-2b,2020.1.3,MacIntel,60,13404,,,,,,,,,,,,,,,,,,,,,,,,,,,,,,,,,,,,,,,,,,,,,,,,,,,,,,,,,,,,,,,,,
,,,,,,,,,,,,l,0.7447,Correct!,0,109,109,117,1,t1.png,t5.png,4,9.55E-11,24,female,2020-08-26_11h10.47.139,torte-2b,2020.1.3,MacIntel,60,13404,,,,,,,,,,,,,,,,,,,,,,,,,,,,,,,,,,,,,,,,,,,,,,,,,,,,,,,,,,,,,,,,,
,,,,,,,,,,,,l,1.034225,Incorrect,0,110,110,39,1,t3.png,t2.png,1,0.90855,24,female,2020-08-26_11h10.47.139,torte-2b,2020.1.3,MacIntel,60,13404,,,,,,,,,,,,,,,,,,,,,,,,,,,,,,,,,,,,,,,,,,,,,,,,,,,,,,,,,,,,,,,,,
,,,,,,,,,,,,,,Too slow :(,0,111,111,53,1,t3.png,t1.png,2,0.056466,24,female,2020-08-26_11h10.47.139,torte-2b,2020.1.3,MacIntel,60,13404,,,,,,,,,,,,,,,,,,,,,,,,,,,,,,,,,,,,,,,,,,,,,,,,,,,,,,,,,,,,,,,,,
,,,,,,,,,,,,l,0.43398,Incorrect,0,112,112,60,1,t2.png,t4.png,2,0.059078,24,female,2020-08-26_11h10.47.139,torte-2b,2020.1.3,MacIntel,60,13404,,,,,,,,,,,,,,,,,,,,,,,,,,,,,,,,,,,,,,,,,,,,,,,,,,,,,,,,,,,,,,,,,
,,,,,,,,,,,,l,0.43926,Correct!,0,113,113,93,1,t2.png,t4.png,2,0.059078,24,female,2020-08-26_11h10.47.139,torte-2b,2020.1.3,MacIntel,60,13404,,,,,,,,,,,,,,,,,,,,,,,,,,,,,,,,,,,,,,,,,,,,,,,,,,,,,,,,,,,,,,,,,
,,,,,,,,,,,,a,0.69103,Incorrect,0,114,114,47,1,t4.png,t2.png,2,0.059078,24,female,2020-08-26_11h10.47.139,torte-2b,2020.1.3,MacIntel,60,13404,,,,,,,,,,,,,,,,,,,,,,,,,,,,,,,,,,,,,,,,,,,,,,,,,,,,,,,,,,,,,,,,,
,,,,,,,,,,,,l,0.457825,Incorrect,0,115,115,85,1,t3.png,t2.png,1,0.90855,24,female,2020-08-26_11h10.47.139,torte-2b,2020.1.3,MacIntel,60,13404,,,,,,,,,,,,,,,,,,,,,,,,,,,,,,,,,,,,,,,,,,,,,,,,,,,,,,,,,,,,,,,,,
,,,,,,,,,,,,l,0.462605,Incorrect,0,116,116,32,1,t4.png,t5.png,1,0.90025,24,female,2020-08-26_11h10.47.139,torte-2b,2020.1.3,MacIntel,60,13404,,,,,,,,,,,,,,,,,,,,,,,,,,,,,,,,,,,,,,,,,,,,,,,,,,,,,,,,,,,,,,,,,
,,,,,,,,,,,,l,0.65774,Correct!,0,117,117,103,1,t3.png,t1.png,2,0.056466,24,female,2020-08-26_11h10.47.139,torte-2b,2020.1.3,MacIntel,60,13404,,,,,,,,,,,,,,,,,,,,,,,,,,,,,,,,,,,,,,,,,,,,,,,,,,,,,,,,,,,,,,,,,
,,,,,,,,,,,,l,0.82049,Incorrect,0,118,118,109,1,t5.png,t5.png,0,0.97829,24,female,2020-08-26_11h10.47.139,torte-2b,2020.1.3,MacIntel,60,13404,,,,,,,,,,,,,,,,,,,,,,,,,,,,,,,,,,,,,,,,,,,,,,,,,,,,,,,,,,,,,,,,,
,,,,,,,,,,,,a,0.424225,Correct!,0,119,119,41,1,t3.png,t2.png,1,0.90855,24,female,2020-08-26_11h10.47.139,torte-2b,2020.1.3,MacIntel,60,13404,,,,,,,,,,,,,,,,,,,,,,,,,,,,,,,,,,,,,,,,,,,,,,,,,,,,,,,,,,,,,,,,,
,,,,,,,,,,,,a,0.737185,Incorrect,,,,,,t4.png,t3.png,1,0.90855,24,female,2020-08-26_11h10.47.139,torte-2b,2020.1.3,MacIntel,60,13404,space,1.71703,comma,0.43432,0,0,0,45,1,,,,,,,,,,,,,,,,,,,,,,,,,,,,,,,,,,,,,,,,,,,,,,,,,,,,,,,,
,,,,,,,,,,,,l,0.52214,Incorrect,,,,,,t1.png,t1.png,0,0.97829,24,female,2020-08-26_11h10.47.139,torte-2b,2020.1.3,MacIntel,60,13404,,,,,0,1,1,9,1,,,,,,,,,,,,,,,,,,,,,,,,,,,,,,,,,,,,,,,,,,,,,,,,,,,,,,,,
,,,,,,,,,,,,l,0.47015,Correct!,,,,,,t1.png,t3.png,2,0.056466,24,female,2020-08-26_11h10.47.139,torte-2b,2020.1.3,MacIntel,60,13404,,,,,0,2,2,99,1,,,,,,,,,,,,,,,,,,,,,,,,,,,,,,,,,,,,,,,,,,,,,,,,,,,,,,,,
,,,,,,,,,,,,l,0.756895,Correct!,,,,,,t2.png,t4.png,2,0.0591,24,female,2020-08-26_11h10.47.139,torte-2b,2020.1.3,MacIntel,60,13404,,,,,0,3,3,15,1,,,,,,,,,,,,,,,,,,,,,,,,,,,,,,,,,,,,,,,,,,,,,,,,,,,,,,,,
,,,,,,,,,,,,a,0.46797,Incorrect,,,,,,t5.png,t2.png,3,0.0000131,24,female,2020-08-26_11h10.47.139,torte-2b,2020.1.3,MacIntel,60,13404,,,,,0,4,4,119,1,,,,,,,,,,,,,,,,,,,,,,,,,,,,,,,,,,,,,,,,,,,,,,,,,,,,,,,,
,,,,,,,,,,,,l,0.467205,Incorrect,,,,,,t1.png,t1.png,0,0.978,24,female,2020-08-26_11h10.47.139,torte-2b,2020.1.3,MacIntel,60,13404,,,,,0,5,5,54,1,,,,,,,,,,,,,,,,,,,,,,,,,,,,,,,,,,,,,,,,,,,,,,,,,,,,,,,,
,,,,,,,,,,,,l,0.56638,Correct!,,,,,,t3.png,t5.png,2,0.056466,24,female,2020-08-26_11h10.47.139,torte-2b,2020.1.3,MacIntel,60,13404,,,,,0,6,6,44,1,,,,,,,,,,,,,,,,,,,,,,,,,,,,,,,,,,,,,,,,,,,,,,,,,,,,,,,,
,,,,,,,,,,,,l,0.558085,Correct!,,,,,,t3.png,t5.png,2,0.0565,24,female,2020-08-26_11h10.47.139,torte-2b,2020.1.3,MacIntel,60,13404,,,,,0,7,7,83,1,,,,,,,,,,,,,,,,,,,,,,,,,,,,,,,,,,,,,,,,,,,,,,,,,,,,,,,,
,,,,,,,,,,,,l,0.59275,Incorrect,,,,,,t3.png,t4.png,1,0.909,24,female,2020-08-26_11h10.47.139,torte-2b,2020.1.3,MacIntel,60,13404,,,,,0,8,8,82,1,,,,,,,,,,,,,,,,,,,,,,,,,,,,,,,,,,,,,,,,,,,,,,,,,,,,,,,,
,,,,,,,,,,,,l,0.524785,Correct!,,,,,,t1.png,t4.png,3,0.0000131,24,female,2020-08-26_11h10.47.139,torte-2b,2020.1.3,MacIntel,60,13404,,,,,0,9,9,107,1,,,,,,,,,,,,,,,,,,,,,,,,,,,,,,,,,,,,,,,,,,,,,,,,,,,,,,,,
,,,,,,,,,,,,l,1.141165,Correct!,,,,,,t3.png,t5.png,2,0.0565,24,female,2020-08-26_11h10.47.139,torte-2b,2020.1.3,MacIntel,60,13404,,,,,0,10,10,30,1,,,,,,,,,,,,,,,,,,,,,,,,,,,,,,,,,,,,,,,,,,,,,,,,,,,,,,,,
,,,,,,,,,,,,a,0.457425,Incorrect,,,,,,t3.png,t1.png,2,0.056466,24,female,2020-08-26_11h10.47.139,torte-2b,2020.1.3,MacIntel,60,13404,,,,,0,11,11,64,1,,,,,,,,,,,,,,,,,,,,,,,,,,,,,,,,,,,,,,,,,,,,,,,,,,,,,,,,
,,,,,,,,,,,,l,0.457545,Correct!,,,,,,t1.png,t3.png,2,0.056466,24,female,2020-08-26_11h10.47.139,torte-2b,2020.1.3,MacIntel,60,13404,,,,,0,12,12,63,1,,,,,,,,,,,,,,,,,,,,,,,,,,,,,,,,,,,,,,,,,,,,,,,,,,,,,,,,
,,,,,,,,,,,,l,0.490585,Correct!,,,,,,t3.png,t1.png,2,0.056466,24,female,2020-08-26_11h10.47.139,torte-2b,2020.1.3,MacIntel,60,13404,,,,,0,13,13,0,1,,,,,,,,,,,,,,,,,,,,,,,,,,,,,,,,,,,,,,,,,,,,,,,,,,,,,,,,
,,,,,,,,,,,,l,0.73497,Incorrect,,,,,,t2.png,t3.png,1,0.90855,24,female,2020-08-26_11h10.47.139,torte-2b,2020.1.3,MacIntel,60,13404,,,,,0,14,14,10,1,,,,,,,,,,,,,,,,,,,,,,,,,,,,,,,,,,,,,,,,,,,,,,,,,,,,,,,,
,,,,,,,,,,,,l,0.575665,Incorrect,,,,,,t2.png,t2.png,0,0.98115,24,female,2020-08-26_11h10.47.139,torte-2b,2020.1.3,MacIntel,60,13404,,,,,0,15,15,57,1,,,,,,,,,,,,,,,,,,,,,,,,,,,,,,,,,,,,,,,,,,,,,,,,,,,,,,,,
,,,,,,,,,,,,a,1.05782,Incorrect,,,,,,t1.png,t4.png,3,0.0000131,24,female,2020-08-26_11h10.47.139,torte-2b,2020.1.3,MacIntel,60,13404,,,,,0,16,16,50,1,,,,,,,,,,,,,,,,,,,,,,,,,,,,,,,,,,,,,,,,,,,,,,,,,,,,,,,,
,,,,,,,,,,,,l,0.391375,Incorrect,,,,,,t3.png,t2.png,1,0.90855,24,female,2020-08-26_11h10.47.139,torte-2b,2020.1.3,MacIntel,60,13404,,,,,0,17,17,18,1,,,,,,,,,,,,,,,,,,,,,,,,,,,,,,,,,,,,,,,,,,,,,,,,,,,,,,,,
,,,,,,,,,,,,l,0.477235,Incorrect,,,,,,t2.png,t3.png,1,0.90855,24,female,2020-08-26_11h10.47.139,torte-2b,2020.1.3,MacIntel,60,13404,,,,,0,18,18,65,1,,,,,,,,,,,,,,,,,,,,,,,,,,,,,,,,,,,,,,,,,,,,,,,,,,,,,,,,
,,,,,,,,,,,,a,0.82546,Incorrect,,,,,,t4.png,t2.png,2,0.059078,24,female,2020-08-26_11h10.47.139,torte-2b,2020.1.3,MacIntel,60,13404,,,,,0,19,19,109,1,,,,,,,,,,,,,,,,,,,,,,,,,,,,,,,,,,,,,,,,,,,,,,,,,,,,,,,,
,,,,,,,,,,,,l,1.36039,Correct!,,,,,,t5.png,t1.png,4,9.55E-11,24,female,2020-08-26_11h10.47.139,torte-2b,2020.1.3,MacIntel,60,13404,,,,,0,20,20,100,1,,,,,,,,,,,,,,,,,,,,,,,,,,,,,,,,,,,,,,,,,,,,,,,,,,,,,,,,
,,,,,,,,,,,,l,0.504675,Incorrect,,,,,,t5.png,t4.png,1,0.9,24,female,2020-08-26_11h10.47.139,torte-2b,2020.1.3,MacIntel,60,13404,,,,,0,21,21,49,1,,,,,,,,,,,,,,,,,,,,,,,,,,,,,,,,,,,,,,,,,,,,,,,,,,,,,,,,
,,,,,,,,,,,,l,0.900415,Incorrect,,,,,,t3.png,t4.png,1,0.90855,24,female,2020-08-26_11h10.47.139,torte-2b,2020.1.3,MacIntel,60,13404,,,,,0,22,22,84,1,,,,,,,,,,,,,,,,,,,,,,,,,,,,,,,,,,,,,,,,,,,,,,,,,,,,,,,,
,,,,,,,,,,,,a,0.5013,Incorrect,,,,,,t5.png,t2.png,3,0.0000131,24,female,2020-08-26_11h10.47.139,torte-2b,2020.1.3,MacIntel,60,13404,,,,,0,23,23,116,1,,,,,,,,,,,,,,,,,,,,,,,,,,,,,,,,,,,,,,,,,,,,,,,,,,,,,,,,
,,,,,,,,,,,,l,0.326605,Correct!,,,,,,t2.png,t4.png,2,0.059078,24,female,2020-08-26_11h10.47.139,torte-2b,2020.1.3,MacIntel,60,13404,,,,,0,24,24,37,1,,,,,,,,,,,,,,,,,,,,,,,,,,,,,,,,,,,,,,,,,,,,,,,,,,,,,,,,
,,,,,,,,,,,,l,0.50169,Incorrect,,,,,,t5.png,t5.png,0,0.97829,24,female,2020-08-26_11h10.47.139,torte-2b,2020.1.3,MacIntel,60,13404,,,,,0,25,25,73,1,,,,,,,,,,,,,,,,,,,,,,,,,,,,,,,,,,,,,,,,,,,,,,,,,,,,,,,,
,,,,,,,,,,,,l,0.590575,Correct!,,,,,,t2.png,t5.png,3,0.0000131,24,female,2020-08-26_11h10.47.139,torte-2b,2020.1.3,MacIntel,60,13404,,,,,0,26,26,104,1,,,,,,,,,,,,,,,,,,,,,,,,,,,,,,,,,,,,,,,,,,,,,,,,,,,,,,,,
,,,,,,,,,,,,a,0.601495,Incorrect,,,,,,t2.png,t1.png,1,0.90025,24,female,2020-08-26_11h10.47.139,torte-2b,2020.1.3,MacIntel,60,13404,,,,,0,27,27,5,1,,,,,,,,,,,,,,,,,,,,,,,,,,,,,,,,,,,,,,,,,,,,,,,,,,,,,,,,
,,,,,,,,,,,,l,0.36913,Correct!,,,,,,t1.png,t3.png,2,0.056466,24,female,2020-08-26_11h10.47.139,torte-2b,2020.1.3,MacIntel,60,13404,,,,,0,28,28,69,1,,,,,,,,,,,,,,,,,,,,,,,,,,,,,,,,,,,,,,,,,,,,,,,,,,,,,,,,
,,,,,,,,,,,,a,0.500275,Incorrect,,,,,,t3.png,t1.png,2,0.056466,24,female,2020-08-26_11h10.47.139,torte-2b,2020.1.3,MacIntel,60,13404,,,,,0,29,29,32,1,,,,,,,,,,,,,,,,,,,,,,,,,,,,,,,,,,,,,,,,,,,,,,,,,,,,,,,,
,,,,,,,,,,,,a,0.557145,Incorrect,,,,,,t4.png,t1.png,3,0.0000131,24,female,2020-08-26_11h10.47.139,torte-2b,2020.1.3,MacIntel,60,13404,,,,,0,30,30,61,1,,,,,,,,,,,,,,,,,,,,,,,,,,,,,,,,,,,,,,,,,,,,,,,,,,,,,,,,
,,,,,,,,,,,,a,0.592075,Incorrect,,,,,,t5.png,t2.png,3,0.0000131,24,female,2020-08-26_11h10.47.139,torte-2b,2020.1.3,MacIntel,60,13404,,,,,0,31,31,91,1,,,,,,,,,,,,,,,,,,,,,,,,,,,,,,,,,,,,,,,,,,,,,,,,,,,,,,,,
,,,,,,,,,,,,l,0.91733,Correct!,,,,,,t5.png,t1.png,4,9.55E-11,24,female,2020-08-26_11h10.47.139,torte-2b,2020.1.3,MacIntel,60,13404,,,,,0,32,32,22,1,,,,,,,,,,,,,,,,,,,,,,,,,,,,,,,,,,,,,,,,,,,,,,,,,,,,,,,,
,,,,,,,,,,,,l,0.681435,Incorrect,,,,,,t1.png,t2.png,1,0.90025,24,female,2020-08-26_11h10.47.139,torte-2b,2020.1.3,MacIntel,60,13404,,,,,0,33,33,33,1,,,,,,,,,,,,,,,,,,,,,,,,,,,,,,,,,,,,,,,,,,,,,,,,,,,,,,,,
,,,,,,,,,,,,l,0.561755,Incorrect,,,,,,t3.png,t4.png,1,0.90855,24,female,2020-08-26_11h10.47.139,torte-2b,2020.1.3,MacIntel,60,13404,,,,,0,34,34,96,1,,,,,,,,,,,,,,,,,,,,,,,,,,,,,,,,,,,,,,,,,,,,,,,,,,,,,,,,
,,,,,,,,,,,,a,1.05795,Correct!,,,,,,t3.png,t2.png,1,0.909,24,female,2020-08-26_11h10.47.139,torte-2b,2020.1.3,MacIntel,60,13404,,,,,0,35,35,23,1,,,,,,,,,,,,,,,,,,,,,,,,,,,,,,,,,,,,,,,,,,,,,,,,,,,,,,,,
,,,,,,,,,,,,l,0.815875,Incorrect,,,,,,t5.png,t4.png,1,0.9,24,female,2020-08-26_11h10.47.139,torte-2b,2020.1.3,MacIntel,60,13404,,,,,0,36,36,76,1,,,,,,,,,,,,,,,,,,,,,,,,,,,,,,,,,,,,,,,,,,,,,,,,,,,,,,,,
,,,,,,,,,,,,l,0.454955,Incorrect,,,,,,t2.png,t3.png,1,0.909,24,female,2020-08-26_11h10.47.139,torte-2b,2020.1.3,MacIntel,60,13404,,,,,0,37,37,74,1,,,,,,,,,,,,,,,,,,,,,,,,,,,,,,,,,,,,,,,,,,,,,,,,,,,,,,,,
,,,,,,,,,,,,a,0.491065,Incorrect,,,,,,t5.png,t2.png,3,0.0000131,24,female,2020-08-26_11h10.47.139,torte-2b,2020.1.3,MacIntel,60,13404,,,,,0,38,38,98,1,,,,,,,,,,,,,,,,,,,,,,,,,,,,,,,,,,,,,,,,,,,,,,,,,,,,,,,,
,,,,,,,,,,,,l,0.46941,Correct!,,,,,,t3.png,t5.png,2,0.056466,24,female,2020-08-26_11h10.47.139,torte-2b,2020.1.3,MacIntel,60,13404,,,,,0,39,39,14,1,,,,,,,,,,,,,,,,,,,,,,,,,,,,,,,,,,,,,,,,,,,,,,,,,,,,,,,,
,,,,,,,,,,,,l,0.45779,Correct!,,,,,,t1.png,t5.png,4,9.55E-11,24,female,2020-08-26_11h10.47.139,torte-2b,2020.1.3,MacIntel,60,13404,,,,,0,40,40,12,1,,,,,,,,,,,,,,,,,,,,,,,,,,,,,,,,,,,,,,,,,,,,,,,,,,,,,,,,
,,,,,,,,,,,,l,0.66759,Incorrect,,,,,,t4.png,t5.png,1,0.90025,24,female,2020-08-26_11h10.47.139,torte-2b,2020.1.3,MacIntel,60,13404,,,,,0,41,41,58,1,,,,,,,,,,,,,,,,,,,,,,,,,,,,,,,,,,,,,,,,,,,,,,,,,,,,,,,,
,,,,,,,,,,,,a,0.80125,Correct!,,,,,,t3.png,t2.png,1,0.909,24,female,2020-08-26_11h10.47.139,torte-2b,2020.1.3,MacIntel,60,13404,,,,,0,42,42,3,1,,,,,,,,,,,,,,,,,,,,,,,,,,,,,,,,,,,,,,,,,,,,,,,,,,,,,,,,
,,,,,,,,,,,,l,0.46784,Correct!,,,,,,t4.png,t5.png,1,0.9,24,female,2020-08-26_11h10.47.139,torte-2b,2020.1.3,MacIntel,60,13404,,,,,0,43,43,115,1,,,,,,,,,,,,,,,,,,,,,,,,,,,,,,,,,,,,,,,,,,,,,,,,,,,,,,,,
,,,,,,,,,,,,a,0.842965,Incorrect,,,,,,t4.png,t1.png,3,0.0000131,24,female,2020-08-26_11h10.47.139,torte-2b,2020.1.3,MacIntel,60,13404,,,,,0,44,44,13,1,,,,,,,,,,,,,,,,,,,,,,,,,,,,,,,,,,,,,,,,,,,,,,,,,,,,,,,,
,,,,,,,,,,,,l,0.56808,Incorrect,,,,,,t5.png,t4.png,1,0.90025,24,female,2020-08-26_11h10.47.139,torte-2b,2020.1.3,MacIntel,60,13404,,,,,0,45,45,26,1,,,,,,,,,,,,,,,,,,,,,,,,,,,,,,,,,,,,,,,,,,,,,,,,,,,,,,,,
,,,,,,,,,,,,l,0.691335,Correct!,,,,,,t1.png,t5.png,4,9.55E-11,24,female,2020-08-26_11h10.47.139,torte-2b,2020.1.3,MacIntel,60,13404,,,,,0,46,46,85,1,,,,,,,,,,,,,,,,,,,,,,,,,,,,,,,,,,,,,,,,,,,,,,,,,,,,,,,,
,,,,,,,,,,,,l,0.491315,Incorrect,,,,,,t5.png,t4.png,1,0.90025,24,female,2020-08-26_11h10.47.139,torte-2b,2020.1.3,MacIntel,60,13404,,,,,0,47,47,34,1,,,,,,,,,,,,,,,,,,,,,,,,,,,,,,,,,,,,,,,,,,,,,,,,,,,,,,,,
,,,,,,,,,,,,a,0.67285,Incorrect,,,,,,t4.png,t2.png,2,0.059078,24,female,2020-08-26_11h10.47.139,torte-2b,2020.1.3,MacIntel,60,13404,,,,,0,48,48,110,1,,,,,,,,,,,,,,,,,,,,,,,,,,,,,,,,,,,,,,,,,,,,,,,,,,,,,,,,
,,,,,,,,,,,,l,0.55746,Incorrect,,,,,,t3.png,t4.png,1,0.909,24,female,2020-08-26_11h10.47.139,torte-2b,2020.1.3,MacIntel,60,13404,,,,,0,49,49,106,1,,,,,,,,,,,,,,,,,,,,,,,,,,,,,,,,,,,,,,,,,,,,,,,,,,,,,,,,
,,,,,,,,,,,,l,0.799905,Incorrect,,,,,,t4.png,t4.png,0,0.98115,24,female,2020-08-26_11h10.47.139,torte-2b,2020.1.3,MacIntel,60,13404,,,,,0,50,50,90,1,,,,,,,,,,,,,,,,,,,,,,,,,,,,,,,,,,,,,,,,,,,,,,,,,,,,,,,,
,,,,,,,,,,,,l,0.55643,Correct!,,,,,,t1.png,t4.png,3,0.0000131,24,female,2020-08-26_11h10.47.139,torte-2b,2020.1.3,MacIntel,60,13404,,,,,0,51,51,92,1,,,,,,,,,,,,,,,,,,,,,,,,,,,,,,,,,,,,,,,,,,,,,,,,,,,,,,,,
,,,,,,,,,,,,l,0.523975,Correct!,,,,,,t1.png,t4.png,3,0.0000131,24,female,2020-08-26_11h10.47.139,torte-2b,2020.1.3,MacIntel,60,13404,,,,,0,52,52,81,1,,,,,,,,,,,,,,,,,,,,,,,,,,,,,,,,,,,,,,,,,,,,,,,,,,,,,,,,
,,,,,,,,,,,,l,0.45886,Correct!,,,,,,t2.png,t4.png,2,0.059078,24,female,2020-08-26_11h10.47.139,torte-2b,2020.1.3,MacIntel,60,13404,,,,,0,53,53,24,1,,,,,,,,,,,,,,,,,,,,,,,,,,,,,,,,,,,,,,,,,,,,,,,,,,,,,,,,
,,,,,,,,,,,,a,0.95254,Correct!,,,,,,t2.png,t2.png,0,0.981,24,female,2020-08-26_11h10.47.139,torte-2b,2020.1.3,MacIntel,60,13404,,,,,0,54,54,101,1,,,,,,,,,,,,,,,,,,,,,,,,,,,,,,,,,,,,,,,,,,,,,,,,,,,,,,,,
,,,,,,,,,,,,a,0.689455,Correct!,,,,,,t2.png,t1.png,1,0.9,24,female,2020-08-26_11h10.47.139,torte-2b,2020.1.3,MacIntel,60,13404,,,,,0,55,55,118,1,,,,,,,,,,,,,,,,,,,,,,,,,,,,,,,,,,,,,,,,,,,,,,,,,,,,,,,,
,,,,,,,,,,,,a,0.789135,Correct!,,,,,,t5.png,t5.png,0,0.978,24,female,2020-08-26_11h10.47.139,torte-2b,2020.1.3,MacIntel,60,13404,,,,,0,56,56,117,1,,,,,,,,,,,,,,,,,,,,,,,,,,,,,,,,,,,,,,,,,,,,,,,,,,,,,,,,
,,,,,,,,,,,,l,0.623585,Correct!,,,,,,t2.png,t5.png,3,0.0000131,24,female,2020-08-26_11h10.47.139,torte-2b,2020.1.3,MacIntel,60,13404,,,,,0,57,57,40,1,,,,,,,,,,,,,,,,,,,,,,,,,,,,,,,,,,,,,,,,,,,,,,,,,,,,,,,,
,,,,,,,,,,,,a,0.45889,Incorrect,,,,,,t3.png,t1.png,2,0.056466,24,female,2020-08-26_11h10.47.139,torte-2b,2020.1.3,MacIntel,60,13404,,,,,0,58,58,29,1,,,,,,,,,,,,,,,,,,,,,,,,,,,,,,,,,,,,,,,,,,,,,,,,,,,,,,,,
,,,,,,,,,,,,a,0.504115,Incorrect,,,,,,t5.png,t1.png,4,9.55E-11,24,female,2020-08-26_11h10.47.139,torte-2b,2020.1.3,MacIntel,60,13404,,,,,0,59,59,71,1,,,,,,,,,,,,,,,,,,,,,,,,,,,,,,,,,,,,,,,,,,,,,,,,,,,,,,,,
,,,,,,,,,,,,l,0.558785,Incorrect,,,,,,t2.png,t2.png,0,0.98115,24,female,2020-08-26_11h10.47.139,torte-2b,2020.1.3,MacIntel,60,13404,,,,,0,60,60,7,1,,,,,,,,,,,,,,,,,,,,,,,,,,,,,,,,,,,,,,,,,,,,,,,,,,,,,,,,
,,,,,,,,,,,,a,0.659915,Incorrect,,,,,,t4.png,t1.png,3,0.0000131,24,female,2020-08-26_11h10.47.139,torte-2b,2020.1.3,MacIntel,60,13404,,,,,0,61,61,93,1,,,,,,,,,,,,,,,,,,,,,,,,,,,,,,,,,,,,,,,,,,,,,,,,,,,,,,,,
,,,,,,,,,,,,a,0.649135,Correct!,,,,,,t5.png,t3.png,2,0.056466,24,female,2020-08-26_11h10.47.139,torte-2b,2020.1.3,MacIntel,60,13404,,,,,0,62,62,56,1,,,,,,,,,,,,,,,,,,,,,,,,,,,,,,,,,,,,,,,,,,,,,,,,,,,,,,,,
,,,,,,,,,,,,l,0.591205,Incorrect,,,,,,t2.png,t2.png,0,0.98115,24,female,2020-08-26_11h10.47.139,torte-2b,2020.1.3,MacIntel,60,13404,,,,,0,63,63,59,1,,,,,,,,,,,,,,,,,,,,,,,,,,,,,,,,,,,,,,,,,,,,,,,,,,,,,,,,
,,,,,,,,,,,,a,0.606405,Correct!,,,,,,t4.png,t3.png,1,0.909,24,female,2020-08-26_11h10.47.139,torte-2b,2020.1.3,MacIntel,60,13404,,,,,0,64,64,46,1,,,,,,,,,,,,,,,,,,,,,,,,,,,,,,,,,,,,,,,,,,,,,,,,,,,,,,,,
,,,,,,,,,,,,l,0.72437,Incorrect,,,,,,t4.png,t5.png,1,0.90025,24,female,2020-08-26_11h10.47.139,torte-2b,2020.1.3,MacIntel,60,13404,,,,,0,65,65,103,1,,,,,,,,,,,,,,,,,,,,,,,,,,,,,,,,,,,,,,,,,,,,,,,,,,,,,,,,
,,,,,,,,,,,,a,0.604465,Incorrect,,,,,,t5.png,t1.png,4,9.55E-11,24,female,2020-08-26_11h10.47.139,torte-2b,2020.1.3,MacIntel,60,13404,,,,,0,66,66,102,1,,,,,,,,,,,,,,,,,,,,,,,,,,,,,,,,,,,,,,,,,,,,,,,,,,,,,,,,
,,,,,,,,,,,,a,0.56959,Incorrect,,,,,,t5.png,t1.png,4,9.55E-11,24,female,2020-08-26_11h10.47.139,torte-2b,2020.1.3,MacIntel,60,13404,,,,,0,67,67,43,1,,,,,,,,,,,,,,,,,,,,,,,,,,,,,,,,,,,,,,,,,,,,,,,,,,,,,,,,
,,,,,,,,,,,,l,0.468195,Incorrect,,,,,,t1.png,t3.png,2,0.056466,24,female,2020-08-26_11h10.47.139,torte-2b,2020.1.3,MacIntel,60,13404,,,,,0,68,68,60,1,,,,,,,,,,,,,,,,,,,,,,,,,,,,,,,,,,,,,,,,,,,,,,,,,,,,,,,,
,,,,,,,,,,,,l,0.591625,Incorrect,,,,,,t5.png,t5.png,0,0.97829,24,female,2020-08-26_11h10.47.139,torte-2b,2020.1.3,MacIntel,60,13404,,,,,0,69,69,25,1,,,,,,,,,,,,,,,,,,,,,,,,,,,,,,,,,,,,,,,,,,,,,,,,,,,,,,,,
,,,,,,,,,,,,l,0.435415,Correct!,,,,,,t4.png,t5.png,1,0.90025,24,female,2020-08-26_11h10.47.139,torte-2b,2020.1.3,MacIntel,60,13404,,,,,0,70,70,47,1,,,,,,,,,,,,,,,,,,,,,,,,,,,,,,,,,,,,,,,,,,,,,,,,,,,,,,,,
,,,,,,,,,,,,l,0.557735,Incorrect,,,,,,t1.png,t2.png,1,0.90025,24,female,2020-08-26_11h10.47.139,torte-2b,2020.1.3,MacIntel,60,13404,,,,,0,71,71,105,1,,,,,,,,,,,,,,,,,,,,,,,,,,,,,,,,,,,,,,,,,,,,,,,,,,,,,,,,
,,,,,,,,,,,,l,0.519085,Incorrect,,,,,,t3.png,t4.png,1,0.909,24,female,2020-08-26_11h10.47.139,torte-2b,2020.1.3,MacIntel,60,13404,,,,,0,72,72,89,1,,,,,,,,,,,,,,,,,,,,,,,,,,,,,,,,,,,,,,,,,,,,,,,,,,,,,,,,
,,,,,,,,,,,,a,0.757675,Correct!,,,,,,t1.png,t1.png,0,0.978,24,female,2020-08-26_11h10.47.139,torte-2b,2020.1.3,MacIntel,60,13404,,,,,0,73,73,28,1,,,,,,,,,,,,,,,,,,,,,,,,,,,,,,,,,,,,,,,,,,,,,,,,,,,,,,,,
,,,,,,,,,,,,l,0.336155,Incorrect,,,,,,t1.png,t2.png,1,0.9,24,female,2020-08-26_11h10.47.139,torte-2b,2020.1.3,MacIntel,60,13404,,,,,0,74,74,1,1,,,,,,,,,,,,,,,,,,,,,,,,,,,,,,,,,,,,,,,,,,,,,,,,,,,,,,,,
,,,,,,,,,,,,l,0.541305,Incorrect,,,,,,t5.png,t4.png,1,0.90025,24,female,2020-08-26_11h10.47.139,torte-2b,2020.1.3,MacIntel,60,13404,,,,,0,75,75,27,1,,,,,,,,,,,,,,,,,,,,,,,,,,,,,,,,,,,,,,,,,,,,,,,,,,,,,,,,
,,,,,,,,,,,,a,0.59956,Incorrect,,,,,,t4.png,t1.png,3,0.0000131,24,female,2020-08-26_11h10.47.139,torte-2b,2020.1.3,MacIntel,60,13404,,,,,0,76,76,42,1,,,,,,,,,,,,,,,,,,,,,,,,,,,,,,,,,,,,,,,,,,,,,,,,,,,,,,,,
,,,,,,,,,,,,l,0.433755,Incorrect,,,,,,t4.png,t3.png,1,0.909,24,female,2020-08-26_11h10.47.139,torte-2b,2020.1.3,MacIntel,60,13404,,,,,0,77,77,20,1,,,,,,,,,,,,,,,,,,,,,,,,,,,,,,,,,,,,,,,,,,,,,,,,,,,,,,,,
,,,,,,,,,,,,l,0.45875,Incorrect,,,,,,t5.png,t5.png,0,0.97829,24,female,2020-08-26_11h10.47.139,torte-2b,2020.1.3,MacIntel,60,13404,,,,,0,78,78,70,1,,,,,,,,,,,,,,,,,,,,,,,,,,,,,,,,,,,,,,,,,,,,,,,,,,,,,,,,
,,,,,,,,,,,,l,0.792025,Correct!,,,,,,t1.png,t5.png,4,9.55E-11,24,female,2020-08-26_11h10.47.139,torte-2b,2020.1.3,MacIntel,60,13404,,,,,0,79,79,55,1,,,,,,,,,,,,,,,,,,,,,,,,,,,,,,,,,,,,,,,,,,,,,,,,,,,,,,,,
,,,,,,,,,,,,l,0.492595,Correct!,,,,,,t3.png,t5.png,2,0.056466,24,female,2020-08-26_11h10.47.139,torte-2b,2020.1.3,MacIntel,60,13404,,,,,0,80,80,6,1,,,,,,,,,,,,,,,,,,,,,,,,,,,,,,,,,,,,,,,,,,,,,,,,,,,,,,,,
,,,,,,,,,,,,a,0.50906,Incorrect,,,,,,t5.png,t3.png,2,0.056466,24,female,2020-08-26_11h10.47.139,torte-2b,2020.1.3,MacIntel,60,13404,,,,,0,81,81,108,1,,,,,,,,,,,,,,,,,,,,,,,,,,,,,,,,,,,,,,,,,,,,,,,,,,,,,,,,
,,,,,,,,,,,,a,0.6581,Correct!,,,,,,t2.png,t1.png,1,0.90025,24,female,2020-08-26_11h10.47.139,torte-2b,2020.1.3,MacIntel,60,13404,,,,,0,82,82,62,1,,,,,,,,,,,,,,,,,,,,,,,,,,,,,,,,,,,,,,,,,,,,,,,,,,,,,,,,
,,,,,,,,,,,,l,0.45667,Correct!,,,,,,t2.png,t5.png,3,0.0000131,24,female,2020-08-26_11h10.47.139,torte-2b,2020.1.3,MacIntel,60,13404,,,,,0,83,83,8,1,,,,,,,,,,,,,,,,,,,,,,,,,,,,,,,,,,,,,,,,,,,,,,,,,,,,,,,,
,,,,,,,,,,,,a,0.719025,Correct!,,,,,,t3.png,t1.png,2,0.0565,24,female,2020-08-26_11h10.47.139,torte-2b,2020.1.3,MacIntel,60,13404,,,,,0,84,84,31,1,,,,,,,,,,,,,,,,,,,,,,,,,,,,,,,,,,,,,,,,,,,,,,,,,,,,,,,,
,,,,,,,,,,,,l,0.503705,Incorrect,,,,,,t2.png,t3.png,1,0.90855,24,female,2020-08-26_11h10.47.139,torte-2b,2020.1.3,MacIntel,60,13404,,,,,0,85,85,68,1,,,,,,,,,,,,,,,,,,,,,,,,,,,,,,,,,,,,,,,,,,,,,,,,,,,,,,,,
,,,,,,,,,,,,l,0.492455,Incorrect,,,,,,t2.png,t3.png,1,0.90855,24,female,2020-08-26_11h10.47.139,torte-2b,2020.1.3,MacIntel,60,13404,,,,,0,86,86,111,1,,,,,,,,,,,,,,,,,,,,,,,,,,,,,,,,,,,,,,,,,,,,,,,,,,,,,,,,
,,,,,,,,,,,,a,0.5439,Incorrect,,,,,,t4.png,t2.png,2,0.0591,24,female,2020-08-26_11h10.47.139,torte-2b,2020.1.3,MacIntel,60,13404,,,,,0,87,87,36,1,,,,,,,,,,,,,,,,,,,,,,,,,,,,,,,,,,,,,,,,,,,,,,,,,,,,,,,,
,,,,,,,,,,,,a,0.883155,Correct!,,,,,,t5.png,t5.png,0,0.97829,24,female,2020-08-26_11h10.47.139,torte-2b,2020.1.3,MacIntel,60,13404,,,,,0,88,88,94,1,,,,,,,,,,,,,,,,,,,,,,,,,,,,,,,,,,,,,,,,,,,,,,,,,,,,,,,,
,,,,,,,,,,,,a,0.666595,Incorrect,,,,,,t5.png,t3.png,2,0.056466,24,female,2020-08-26_11h10.47.139,torte-2b,2020.1.3,MacIntel,60,13404,,,,,0,89,89,38,1,,,,,,,,,,,,,,,,,,,,,,,,,,,,,,,,,,,,,,,,,,,,,,,,,,,,,,,,
,,,,,,,,,,,,l,0.57006,Incorrect,,,,,,t1.png,t2.png,1,0.90025,24,female,2020-08-26_11h10.47.139,torte-2b,2020.1.3,MacIntel,60,13404,,,,,0,90,90,112,1,,,,,,,,,,,,,,,,,,,,,,,,,,,,,,,,,,,,,,,,,,,,,,,,,,,,,,,,
,,,,,,,,,,,,a,0.621715,Correct!,,,,,,t2.png,t1.png,1,0.90025,24,female,2020-08-26_11h10.47.139,torte-2b,2020.1.3,MacIntel,60,13404,,,,,0,91,91,19,1,,,,,,,,,,,,,,,,,,,,,,,,,,,,,,,,,,,,,,,,,,,,,,,,,,,,,,,,
,,,,,,,,,,,,a,0.81101,Correct!,,,,,,t3.png,t2.png,1,0.90855,24,female,2020-08-26_11h10.47.139,torte-2b,2020.1.3,MacIntel,60,13404,,,,,0,92,92,53,1,,,,,,,,,,,,,,,,,,,,,,,,,,,,,,,,,,,,,,,,,,,,,,,,,,,,,,,,
,,,,,,,,,,,,l,0.619475,Correct!,,,,,,t1.png,t3.png,2,0.056466,24,female,2020-08-26_11h10.47.139,torte-2b,2020.1.3,MacIntel,60,13404,,,,,0,93,93,87,1,,,,,,,,,,,,,,,,,,,,,,,,,,,,,,,,,,,,,,,,,,,,,,,,,,,,,,,,
,,,,,,,,,,,,l,0.899985,Correct!,,,,,,t1.png,t4.png,3,0.0000131,24,female,2020-08-26_11h10.47.139,torte-2b,2020.1.3,MacIntel,60,13404,,,,,0,94,94,17,1,,,,,,,,,,,,,,,,,,,,,,,,,,,,,,,,,,,,,,,,,,,,,,,,,,,,,,,,
,,,,,,,,,,,,a,1.159095,Incorrect,,,,,,t5.png,t3.png,2,0.056466,24,female,2020-08-26_11h10.47.139,torte-2b,2020.1.3,MacIntel,60,13404,,,,,0,95,95,114,1,,,,,,,,,,,,,,,,,,,,,,,,,,,,,,,,,,,,,,,,,,,,,,,,,,,,,,,,
,,,,,,,,,,,,a,0.802105,Incorrect,,,,,,t4.png,t2.png,2,0.059078,24,female,2020-08-26_11h10.47.139,torte-2b,2020.1.3,MacIntel,60,13404,,,,,0,96,96,88,1,,,,,,,,,,,,,,,,,,,,,,,,,,,,,,,,,,,,,,,,,,,,,,,,,,,,,,,,
,,,,,,,,,,,,a,0.65594,Incorrect,,,,,,t5.png,t3.png,2,0.0565,24,female,2020-08-26_11h10.47.139,torte-2b,2020.1.3,MacIntel,60,13404,,,,,0,97,97,39,1,,,,,,,,,,,,,,,,,,,,,,,,,,,,,,,,,,,,,,,,,,,,,,,,,,,,,,,,
,,,,,,,,,,,,l,0.52471,Incorrect,,,,,,t2.png,t2.png,0,0.98115,24,female,2020-08-26_11h10.47.139,torte-2b,2020.1.3,MacIntel,60,13404,,,,,0,98,98,2,1,,,,,,,,,,,,,,,,,,,,,,,,,,,,,,,,,,,,,,,,,,,,,,,,,,,,,,,,
,,,,,,,,,,,,l,0.55838,Incorrect,,,,,,t1.png,t1.png,0,0.97829,24,female,2020-08-26_11h10.47.139,torte-2b,2020.1.3,MacIntel,60,13404,,,,,0,99,99,67,1,,,,,,,,,,,,,,,,,,,,,,,,,,,,,,,,,,,,,,,,,,,,,,,,,,,,,,,,
,,,,,,,,,,,,l,0.499315,Correct!,,,,,,t2.png,t5.png,3,0.0000131,24,female,2020-08-26_11h10.47.139,torte-2b,2020.1.3,MacIntel,60,13404,,,,,0,100,100,95,1,,,,,,,,,,,,,,,,,,,,,,,,,,,,,,,,,,,,,,,,,,,,,,,,,,,,,,,,
,,,,,,,,,,,,a,0.66852,Incorrect,,,,,,t3.png,t2.png,1,0.90855,24,female,2020-08-26_11h10.47.139,torte-2b,2020.1.3,MacIntel,60,13404,,,,,0,101,101,97,1,,,,,,,,,,,,,,,,,,,,,,,,,,,,,,,,,,,,,,,,,,,,,,,,,,,,,,,,
,,,,,,,,,,,,l,0.591175,Correct!,,,,,,t2.png,t5.png,3,0.0000131,24,female,2020-08-26_11h10.47.139,torte-2b,2020.1.3,MacIntel,60,13404,,,,,0,102,102,66,1,,,,,,,,,,,,,,,,,,,,,,,,,,,,,,,,,,,,,,,,,,,,,,,,,,,,,,,,
,,,,,,,,,,,,l,0.801865,Correct!,,,,,,t1.png,t1.png,0,0.97829,24,female,2020-08-26_11h10.47.139,torte-2b,2020.1.3,MacIntel,60,13404,,,,,0,103,103,78,1,,,,,,,,,,,,,,,,,,,,,,,,,,,,,,,,,,,,,,,,,,,,,,,,,,,,,,,,
,,,,,,,,,,,,l,0.65771,Incorrect,,,,,,t4.png,t4.png,0,0.98115,24,female,2020-08-26_11h10.47.139,torte-2b,2020.1.3,MacIntel,60,13404,,,,,0,104,104,21,1,,,,,,,,,,,,,,,,,,,,,,,,,,,,,,,,,,,,,,,,,,,,,,,,,,,,,,,,
,,,,,,,,,,,,l,0.535955,Incorrect,,,,,,t4.png,t4.png,0,0.98115,24,female,2020-08-26_11h10.47.139,torte-2b,2020.1.3,MacIntel,60,13404,,,,,0,105,105,80,1,,,,,,,,,,,,,,,,,,,,,,,,,,,,,,,,,,,,,,,,,,,,,,,,,,,,,,,,
,,,,,,,,,,,,a,0.658585,Correct!,,,,,,t2.png,t1.png,1,0.90025,24,female,2020-08-26_11h10.47.139,torte-2b,2020.1.3,MacIntel,60,13404,,,,,0,106,106,4,1,,,,,,,,,,,,,,,,,,,,,,,,,,,,,,,,,,,,,,,,,,,,,,,,,,,,,,,,
,,,,,,,,,,,,l,0.75812,Correct!,,,,,,t1.png,t5.png,4,9.55E-11,24,female,2020-08-26_11h10.47.139,torte-2b,2020.1.3,MacIntel,60,13404,,,,,0,107,107,16,1,,,,,,,,,,,,,,,,,,,,,,,,,,,,,,,,,,,,,,,,,,,,,,,,,,,,,,,,
,,,,,,,,,,,,a,0.591215,Incorrect,,,,,,t4.png,t1.png,3,0.0000131,24,female,2020-08-26_11h10.47.139,torte-2b,2020.1.3,MacIntel,60,13404,,,,,0,108,108,48,1,,,,,,,,,,,,,,,,,,,,,,,,,,,,,,,,,,,,,,,,,,,,,,,,,,,,,,,,
,,,,,,,,,,,,l,0.5909,Correct!,,,,,,t4.png,t2.png,2,0.059078,24,female,2020-08-26_11h10.47.139,torte-2b,2020.1.3,MacIntel,60,13404,,,,,0,109,109,86,1,,,,,,,,,,,,,,,,,,,,,,,,,,,,,,,,,,,,,,,,,,,,,,,,,,,,,,,,
,,,,,,,,,,,,l,0.384425,Correct!,,,,,,t4.png,t5.png,1,0.90025,24,female,2020-08-26_11h10.47.139,torte-2b,2020.1.3,MacIntel,60,13404,,,,,0,110,110,113,1,,,,,,,,,,,,,,,,,,,,,,,,,,,,,,,,,,,,,,,,,,,,,,,,,,,,,,,,
,,,,,,,,,,,,l,0.735295,Incorrect,,,,,,t4.png,t4.png,0,0.98115,24,female,2020-08-26_11h10.47.139,torte-2b,2020.1.3,MacIntel,60,13404,,,,,0,111,111,52,1,,,,,,,,,,,,,,,,,,,,,,,,,,,,,,,,,,,,,,,,,,,,,,,,,,,,,,,,
,,,,,,,,,,,,l,1.158405,Correct!,,,,,,t2.png,t4.png,2,0.059078,24,female,2020-08-26_11h10.47.139,torte-2b,2020.1.3,MacIntel,60,13404,,,,,0,112,112,77,1,,,,,,,,,,,,,,,,,,,,,,,,,,,,,,,,,,,,,,,,,,,,,,,,,,,,,,,,
,,,,,,,,,,,,a,0.66203,Correct!,,,,,,t4.png,t3.png,1,0.90855,24,female,2020-08-26_11h10.47.139,torte-2b,2020.1.3,MacIntel,60,13404,,,,,0,113,113,75,1,,,,,,,,,,,,,,,,,,,,,,,,,,,,,,,,,,,,,,,,,,,,,,,,,,,,,,,,
,,,,,,,,,,,,l,0.525245,Incorrect,,,,,,t1.png,t2.png,1,0.90025,24,female,2020-08-26_11h10.47.139,torte-2b,2020.1.3,MacIntel,60,13404,,,,,0,114,114,72,1,,,,,,,,,,,,,,,,,,,,,,,,,,,,,,,,,,,,,,,,,,,,,,,,,,,,,,,,
,,,,,,,,,,,,a,0.505615,Incorrect,,,,,,t5.png,t2.png,3,0.0000131,24,female,2020-08-26_11h10.47.139,torte-2b,2020.1.3,MacIntel,60,13404,,,,,0,115,115,51,1,,,,,,,,,,,,,,,,,,,,,,,,,,,,,,,,,,,,,,,,,,,,,,,,,,,,,,,,
,,,,,,,,,,,,l,0.51912,Incorrect,,,,,,t4.png,t4.png,0,0.98115,24,female,2020-08-26_11h10.47.139,torte-2b,2020.1.3,MacIntel,60,13404,,,,,0,116,116,79,1,,,,,,,,,,,,,,,,,,,,,,,,,,,,,,,,,,,,,,,,,,,,,,,,,,,,,,,,
,,,,,,,,,,,,l,0.58014,Correct!,,,,,,t1.png,t5.png,4,9.55E-11,24,female,2020-08-26_11h10.47.139,torte-2b,2020.1.3,MacIntel,60,13404,,,,,0,117,117,41,1,,,,,,,,,,,,,,,,,,,,,,,,,,,,,,,,,,,,,,,,,,,,,,,,,,,,,,,,
,,,,,,,,,,,,l,0.52518,Correct!,,,,,,t2.png,t4.png,2,0.059078,24,female,2020-08-26_11h10.47.139,torte-2b,2020.1.3,MacIntel,60,13404,,,,,0,118,118,11,1,,,,,,,,,,,,,,,,,,,,,,,,,,,,,,,,,,,,,,,,,,,,,,,,,,,,,,,,
,,,,,,,,,,,,a,0.600465,Correct!,,,,,,t4.png,t3.png,1,0.90855,24,female,2020-08-26_11h10.47.139,torte-2b,2020.1.3,MacIntel,60,13404,,,,,0,119,119,35,1,,,,,,,,,,,,,,,,,,,,,,,,,,,,,,,,,,,,,,,,,,,,,,,,,,,,,,,,
,,,,,,,,,,,,,,,,,,,,,,,,24,female,2020-08-26_11h10.47.139,torte-2b,2020.1.3,MacIntel,60,13404,space,12.471255,,,,,,,,space,306.688795,space,1.14683,0,0,0,0,1,6,,,,,,,,,,,,,,,,,,,,,,,,,,,,,,,,,,,,,,,,,,,,,,
,,,,,,,,,,,,,,,,,,,,,,,,24,female,2020-08-26_11h10.47.139,torte-2b,2020.1.3,MacIntel,60,13404,,,,,,,,,,,,space,1.185865,0,1,1,1,1,7,,,,,,,,,,,,,,,,,,,,,,,,,,,,,,,,,,,,,,,,,,,,,,
,,,,,,,,,,,,,,,,,,,,,,,,24,female,2020-08-26_11h10.47.139,torte-2b,2020.1.3,MacIntel,60,13404,,,,,,,,,,,,space,1.7221,0,2,2,2,1,6,,,,,,,,,,,,,,,,,,,,,,,,,,,,,,,,,,,,,,,,,,,,,,
,,,,,,,,,,,,,,,,,,,,,,,,24,female,2020-08-26_11h10.47.139,torte-2b,2020.1.3,MacIntel,60,13404,,,,,,,,,,,,space,0.848415,0,3,3,3,1,7,,,,,,,,,,,,,,,,,,,,,,,,,,,,,,,,,,,,,,,,,,,,,,
,,,,,,,,,,,,,,,,,,,,,,,,24,female,2020-08-26_11h10.47.139,torte-2b,2020.1.3,MacIntel,60,13404,,,,,,,,,,,,space,0.80025,0,4,4,4,1,5,,,,,,,,,,,,,,,,,,,,,,,,,,,,,,,,,,,,,,,,,,,,,,
,,,,,,,,,,,,,,,,,,,,,,,,24,female,2020-08-26_11h10.47.139,torte-2b,2020.1.3,MacIntel,60,13404,,,,,,,,,,,,space,0.75607,0,5,5,5,1,7,,,,,,,,,,,,,,,,,,,,,,,,,,,,,,,,,,,,,,,,,,,,,,
,,,,,,,,,,,,,,,,,,,,,,,,24,female,2020-08-26_11h10.47.139,torte-2b,2020.1.3,MacIntel,60,13404,,,,,,,,,,,,space,1.347675,0,6,6,6,1,2,,,,,,,,,,,,,,,,,,,,,,,,,,,,,,,,,,,,,,,,,,,,,,
,,,,,,,,,,,,,,,,,,,,,,,,24,female,2020-08-26_11h10.47.139,torte-2b,2020.1.3,MacIntel,60,13404,,,,,,,,,,,,space,1.09092,0,7,7,7,1,4,,,,,,,,,,,,,,,,,,,,,,,,,,,,,,,,,,,,,,,,,,,,,,
,,,,,,,,,,,,,,,,,,,,,,,,24,female,2020-08-26_11h10.47.139,torte-2b,2020.1.3,MacIntel,60,13404,,,,,,,,,,,,space,1.33258,0,8,8,8,1,7,,,,,,,,,,,,,,,,,,,,,,,,,,,,,,,,,,,,,,,,,,,,,,
,,,,,,,,,,,,,,,,,,,,,,,,24,female,2020-08-26_11h10.47.139,torte-2b,2020.1.3,MacIntel,60,13404,,,,,,,,,,,,space,1.0989,0,9,9,9,1,4,,,,,,,,,,,,,,,,,,,,,,,,,,,,,,,,,,,,,,,,,,,,,,
,,,,,,,,,,,,,,,,,,,,,,,,24,female,2020-08-26_11h10.47.139,torte-2b,2020.1.3,MacIntel,60,13404,,,,,,,,,,,,space,0.84105,0,10,10,10,1,7,,,,,,,,,,,,,,,,,,,,,,,,,,,,,,,,,,,,,,,,,,,,,,
,,,,,,,,,,,,,,,,,,,,,,,,24,female,2020-08-26_11h10.47.139,torte-2b,2020.1.3,MacIntel,60,13404,,,,,,,,,,,,space,1.019255,0,11,11,11,1,7,,,,,,,,,,,,,,,,,,,,,,,,,,,,,,,,,,,,,,,,,,,,,,
,,,,,,,,,,,,,,,,,,,,,,,,24,female,2020-08-26_11h10.47.139,torte-2b,2020.1.3,MacIntel,60,13404,,,,,,,,,,,,space,1.322355,0,12,12,12,1,7,,,,,,,,,,,,,,,,,,,,,,,,,,,,,,,,,,,,,,,,,,,,,,
,,,,,,,,,,,,,,,,,,,,,,,,24,female,2020-08-26_11h10.47.139,torte-2b,2020.1.3,MacIntel,60,13404,,,,,,,,,,,,space,1.184815,0,13,13,13,1,4,,,,,,,,,,,,,,,,,,,,,,,,,,,,,,,,,,,,,,,,,,,,,,
,,,,,,,,,,,,,,,,,,,,,,,,24,female,2020-08-26_11h10.47.139,torte-2b,2020.1.3,MacIntel,60,13404,,,,,,,,,,,,space,1.05067,0,14,14,14,1,6,,,,,,,,,,,,,,,,,,,,,,,,,,,,,,,,,,,,,,,,,,,,,,
,,,,,,,,,,,,,,,,,,,,,,,,24,female,2020-08-26_11h10.47.139,torte-2b,2020.1.3,MacIntel,60,13404,,,,,,,,,,,,space,0.821725,0,15,15,15,1,4,,,,,,,,,,,,,,,,,,,,,,,,,,,,,,,,,,,,,,,,,,,,,,
,,,,,,,,,,,,,,,,,,,,,,,,24,female,2020-08-26_11h10.47.139,torte-2b,2020.1.3,MacIntel,60,13404,,,,,,,,,,,,space,0.85174,0,16,16,16,1,6,,,,,,,,,,,,,,,,,,,,,,,,,,,,,,,,,,,,,,,,,,,,,,
,,,,,,,,,,,,,,,,,,,,,,,,24,female,2020-08-26_11h10.47.139,torte-2b,2020.1.3,MacIntel,60,13404,,,,,,,,,,,,space,0.821975,0,17,17,17,1,7,,,,,,,,,,,,,,,,,,,,,,,,,,,,,,,,,,,,,,,,,,,,,,
,,,,,,,,,,,,,,,,,,,,,,,,24,female,2020-08-26_11h10.47.139,torte-2b,2020.1.3,MacIntel,60,13404,,,,,,,,,,,,space,1.1898,0,18,18,18,1,6,,,,,,,,,,,,,,,,,,,,,,,,,,,,,,,,,,,,,,,,,,,,,,
,,,,,,,,,,,,,,,,,,,,,,,,24,female,2020-08-26_11h10.47.139,torte-2b,2020.1.3,MacIntel,60,13404,,,,,,,,,,,,space,0.82339,0,19,19,19,1,7,,,,,,,,,,,,,,,,,,,,,,,,,,,,,,,,,,,,,,,,,,,,,,
,,,,,,,,,,,,,,,,,,,,,,,,24,female,2020-08-26_11h10.47.139,torte-2b,2020.1.3,MacIntel,60,13404,,,,,,,,,,,,space,0.82173,0,20,20,20,1,5,,,,,,,,,,,,,,,,,,,,,,,,,,,,,,,,,,,,,,,,,,,,,,
,,,,,,,,,,,,,,,,,,,,,,,,24,female,2020-08-26_11h10.47.139,torte-2b,2020.1.3,MacIntel,60,13404,,,,,,,,,,,,space,0.889215,0,21,21,21,1,1,,,,,,,,,,,,,,,,,,,,,,,,,,,,,,,,,,,,,,,,,,,,,,
,,,,,,,,,,,,,,,,,,,,,,,,24,female,2020-08-26_11h10.47.139,torte-2b,2020.1.3,MacIntel,60,13404,,,,,,,,,,,,space,0.75592,0,22,22,22,1,6,,,,,,,,,,,,,,,,,,,,,,,,,,,,,,,,,,,,,,,,,,,,,,
,,,,,,,,,,,,,,,,,,,,,,,,24,female,2020-08-26_11h10.47.139,torte-2b,2020.1.3,MacIntel,60,13404,,,,,,,,,,,,space,1.222365,0,23,23,23,1,1,,,,,,,,,,,,,,,,,,,,,,,,,,,,,,,,,,,,,,,,,,,,,,
,,,,,,,,,,,,,,,,,,,,,,,,24,female,2020-08-26_11h10.47.139,torte-2b,2020.1.3,MacIntel,60,13404,,,,,,,,,,,,space,1.057015,0,24,24,24,1,5,,,,,,,,,,,,,,,,,,,,,,,,,,,,,,,,,,,,,,,,,,,,,,
,,,,,,,,,,,,,,,,,,,,,,,,24,female,2020-08-26_11h10.47.139,torte-2b,2020.1.3,MacIntel,60,13404,,,,,,,,,,,,space,1.038365,0,25,25,25,1,6,,,,,,,,,,,,,,,,,,,,,,,,,,,,,,,,,,,,,,,,,,,,,,
,,,,,,,,,,,,,,,,,,,,,,,,24,female,2020-08-26_11h10.47.139,torte-2b,2020.1.3,MacIntel,60,13404,,,,,,,,,,,,space,0.88668,0,26,26,26,1,6,,,,,,,,,,,,,,,,,,,,,,,,,,,,,,,,,,,,,,,,,,,,,,
,,,,,,,,,,,,,,,,,,,,,,,,24,female,2020-08-26_11h10.47.139,torte-2b,2020.1.3,MacIntel,60,13404,,,,,,,,,,,,space,1.23188,0,27,27,27,1,6,,,,,,,,,,,,,,,,,,,,,,,,,,,,,,,,,,,,,,,,,,,,,,
,,,,,,,,,,,,,,,,,,,,,,,,24,female,2020-08-26_11h10.47.139,torte-2b,2020.1.3,MacIntel,60,13404,,,,,,,,,,,,space,0.723275,0,28,28,28,1,5,,,,,,,,,,,,,,,,,,,,,,,,,,,,,,,,,,,,,,,,,,,,,,
,,,,,,,,,,,,,,,,,,,,,,,,24,female,2020-08-26_11h10.47.139,torte-2b,2020.1.3,MacIntel,60,13404,,,,,,,,,,,,space,1.40609,0,29,29,29,1,2,,,,,,,,,,,,,,,,,,,,,,,,,,,,,,,,,,,,,,,,,,,,,,
,,,,,,,,,,,,,,,,,,,,,,,,24,female,2020-08-26_11h10.47.139,torte-2b,2020.1.3,MacIntel,60,13404,,,,,,,,,,,,space,0.831495,0,30,30,30,1,5,,,,,,,,,,,,,,,,,,,,,,,,,,,,,,,,,,,,,,,,,,,,,,
,,,,,,,,,,,,,,,,,,,,,,,,24,female,2020-08-26_11h10.47.139,torte-2b,2020.1.3,MacIntel,60,13404,,,,,,,,,,,,space,0.6609,0,31,31,31,1,2,,,,,,,,,,,,,,,,,,,,,,,,,,,,,,,,,,,,,,,,,,,,,,
,,,,,,,,,,,,,,,,,,,,,,,,24,female,2020-08-26_11h10.47.139,torte-2b,2020.1.3,MacIntel,60,13404,,,,,,,,,,,,space,0.900935,0,32,32,32,1,5,,,,,,,,,,,,,,,,,,,,,,,,,,,,,,,,,,,,,,,,,,,,,,
,,,,,,,,,,,,,,,,,,,,,,,,24,female,2020-08-26_11h10.47.139,torte-2b,2020.1.3,MacIntel,60,13404,,,,,,,,,,,,space,0.96561,0,33,33,33,1,1,,,,,,,,,,,,,,,,,,,,,,,,,,,,,,,,,,,,,,,,,,,,,,
,,,,,,,,,,,,,,,,,,,,,,,,24,female,2020-08-26_11h10.47.139,torte-2b,2020.1.3,MacIntel,60,13404,,,,,,,,,,,,space,0.944525,0,34,34,34,1,1,,,,,,,,,,,,,,,,,,,,,,,,,,,,,,,,,,,,,,,,,,,,,,
,,,,,,,,,,,,,,,,,,,,,,,,24,female,2020-08-26_11h10.47.139,torte-2b,2020.1.3,MacIntel,60,13404,,,,,,,,,,,,space,1.51836,,,,,,2,0,0,0,0,1,,,,,,,,,,,,,,,,,,,,,,,,,,,,,,,,,,,,,,,,,
,,,,,,,,,,,,,,,,,,,,,,,,24,female,2020-08-26_11h10.47.139,torte-2b,2020.1.3,MacIntel,60,13404,,,,,,,,,,,,space,1.477495,,,,,,2,0,1,1,1,1,,,,,,,,,,,,,,,,,,,,,,,,,,,,,,,,,,,,,,,,,
,,,,,,,,,,,,,,,,,,,,,,,,24,female,2020-08-26_11h10.47.139,torte-2b,2020.1.3,MacIntel,60,13404,,,,,,,,,,,,space,1.15069,,,,,,6,0,2,2,2,1,,,,,,,,,,,,,,,,,,,,,,,,,,,,,,,,,,,,,,,,,
,,,,,,,,,,,,,,,,,,,,,,,,24,female,2020-08-26_11h10.47.139,torte-2b,2020.1.3,MacIntel,60,13404,,,,,,,,,,,,space,0.93055,,,,,,2,0,3,3,3,1,,,,,,,,,,,,,,,,,,,,,,,,,,,,,,,,,,,,,,,,,
,,,,,,,,,,,,,,,,,,,,,,,,24,female,2020-08-26_11h10.47.139,torte-2b,2020.1.3,MacIntel,60,13404,,,,,,,,,,,,space,0.938245,,,,,,6,0,4,4,4,1,,,,,,,,,,,,,,,,,,,,,,,,,,,,,,,,,,,,,,,,,
,,,,,,,,,,,,,,,,,,,,,,,,24,female,2020-08-26_11h10.47.139,torte-2b,2020.1.3,MacIntel,60,13404,,,,,,,,,,,,space,0.852485,,,,,,2,0,5,5,5,1,,,,,,,,,,,,,,,,,,,,,,,,,,,,,,,,,,,,,,,,,
,,,,,,,,,,,,,,,,,,,,,,,,24,female,2020-08-26_11h10.47.139,torte-2b,2020.1.3,MacIntel,60,13404,,,,,,,,,,,,space,0.849795,,,,,,7,0,6,6,6,1,,,,,,,,,,,,,,,,,,,,,,,,,,,,,,,,,,,,,,,,,
,,,,,,,,,,,,,,,,,,,,,,,,24,female,2020-08-26_11h10.47.139,torte-2b,2020.1.3,MacIntel,60,13404,,,,,,,,,,,,space,0.72433,,,,,,2,0,7,7,7,1,,,,,,,,,,,,,,,,,,,,,,,,,,,,,,,,,,,,,,,,,
,,,,,,,,,,,,,,,,,,,,,,,,24,female,2020-08-26_11h10.47.139,torte-2b,2020.1.3,MacIntel,60,13404,,,,,,,,,,,,space,0.722265,,,,,,7,0,8,8,8,1,,,,,,,,,,,,,,,,,,,,,,,,,,,,,,,,,,,,,,,,,
,,,,,,,,,,,,,,,,,,,,,,,,24,female,2020-08-26_11h10.47.139,torte-2b,2020.1.3,MacIntel,60,13404,,,,,,,,,,,,space,1.100795,,,,,,2,0,9,9,9,1,,,,,,,,,,,,,,,,,,,,,,,,,,,,,,,,,,,,,,,,,
,,,,,,,,,,,,,,,,,,,,,,,,24,female,2020-08-26_11h10.47.139,torte-2b,2020.1.3,MacIntel,60,13404,,,,,,,,,,,,space,0.80489,,,,,,5,0,10,10,10,1,,,,,,,,,,,,,,,,,,,,,,,,,,,,,,,,,,,,,,,,,
,,,,,,,,,,,,,,,,,,,,,,,,24,female,2020-08-26_11h10.47.139,torte-2b,2020.1.3,MacIntel,60,13404,,,,,,,,,,,,space,0.78981,,,,,,4,0,11,11,11,1,,,,,,,,,,,,,,,,,,,,,,,,,,,,,,,,,,,,,,,,,
,,,,,,,,,,,,,,,,,,,,,,,,24,female,2020-08-26_11h10.47.139,torte-2b,2020.1.3,MacIntel,60,13404,,,,,,,,,,,,space,1.1142,,,,,,5,0,12,12,12,1,,,,,,,,,,,,,,,,,,,,,,,,,,,,,,,,,,,,,,,,,
,,,,,,,,,,,,,,,,,,,,,,,,24,female,2020-08-26_11h10.47.139,torte-2b,2020.1.3,MacIntel,60,13404,,,,,,,,,,,,space,0.83559,,,,,,6,0,13,13,13,1,,,,,,,,,,,,,,,,,,,,,,,,,,,,,,,,,,,,,,,,,
,,,,,,,,,,,,,,,,,,,,,,,,24,female,2020-08-26_11h10.47.139,torte-2b,2020.1.3,MacIntel,60,13404,,,,,,,,,,,,space,0.7854,,,,,,5,0,14,14,14,1,,,,,,,,,,,,,,,,,,,,,,,,,,,,,,,,,,,,,,,,,
,,,,,,,,,,,,,,,,,,,,,,,,24,female,2020-08-26_11h10.47.139,torte-2b,2020.1.3,MacIntel,60,13404,,,,,,,,,,,,space,0.61752,,,,,,4,0,15,15,15,1,,,,,,,,,,,,,,,,,,,,,,,,,,,,,,,,,,,,,,,,,
,,,,,,,,,,,,,,,,,,,,,,,,24,female,2020-08-26_11h10.47.139,torte-2b,2020.1.3,MacIntel,60,13404,,,,,,,,,,,,space,0.817675,,,,,,5,0,16,16,16,1,,,,,,,,,,,,,,,,,,,,,,,,,,,,,,,,,,,,,,,,,
,,,,,,,,,,,,,,,,,,,,,,,,24,female,2020-08-26_11h10.47.139,torte-2b,2020.1.3,MacIntel,60,13404,,,,,,,,,,,,space,0.839355,,,,,,3,0,17,17,17,1,,,,,,,,,,,,,,,,,,,,,,,,,,,,,,,,,,,,,,,,,
,,,,,,,,,,,,,,,,,,,,,,,,24,female,2020-08-26_11h10.47.139,torte-2b,2020.1.3,MacIntel,60,13404,,,,,,,,,,,,space,0.670455,,,,,,6,0,18,18,18,1,,,,,,,,,,,,,,,,,,,,,,,,,,,,,,,,,,,,,,,,,
,,,,,,,,,,,,,,,,,,,,,,,,24,female,2020-08-26_11h10.47.139,torte-2b,2020.1.3,MacIntel,60,13404,,,,,,,,,,,,space,0.86775,,,,,,6,0,19,19,19,1,,,,,,,,,,,,,,,,,,,,,,,,,,,,,,,,,,,,,,,,,
,,,,,,,,,,,,,,,,,,,,,,,,24,female,2020-08-26_11h10.47.139,torte-2b,2020.1.3,MacIntel,60,13404,,,,,,,,,,,,space,1.452275,,,,,,6,0,20,20,20,1,,,,,,,,,,,,,,,,,,,,,,,,,,,,,,,,,,,,,,,,,
,,,,,,,,,,,,,,,,,,,,,,,,24,female,2020-08-26_11h10.47.139,torte-2b,2020.1.3,MacIntel,60,13404,,,,,,,,,,,,space,0.986825,,,,,,4,0,21,21,21,1,,,,,,,,,,,,,,,,,,,,,,,,,,,,,,,,,,,,,,,,,
,,,,,,,,,,,,,,,,,,,,,,,,24,female,2020-08-26_11h10.47.139,torte-2b,2020.1.3,MacIntel,60,13404,,,,,,,,,,,,space,0.80224,,,,,,6,0,22,22,22,1,,,,,,,,,,,,,,,,,,,,,,,,,,,,,,,,,,,,,,,,,
,,,,,,,,,,,,,,,,,,,,,,,,24,female,2020-08-26_11h10.47.139,torte-2b,2020.1.3,MacIntel,60,13404,,,,,,,,,,,,space,1.117655,,,,,,4,0,23,23,23,1,,,,,,,,,,,,,,,,,,,,,,,,,,,,,,,,,,,,,,,,,
,,,,,,,,,,,,,,,,,,,,,,,,24,female,2020-08-26_11h10.47.139,torte-2b,2020.1.3,MacIntel,60,13404,,,,,,,,,,,,space,0.671405,,,,,,6,0,24,24,24,1,,,,,,,,,,,,,,,,,,,,,,,,,,,,,,,,,,,,,,,,,
,,,,,,,,,,,,,,,,,,,,,,,,24,female,2020-08-26_11h10.47.139,torte-2b,2020.1.3,MacIntel,60,13404,,,,,,,,,,,,space,0.53472,,,,,,6,0,25,25,25,1,,,,,,,,,,,,,,,,,,,,,,,,,,,,,,,,,,,,,,,,,
,,,,,,,,,,,,,,,,,,,,,,,,24,female,2020-08-26_11h10.47.139,torte-2b,2020.1.3,MacIntel,60,13404,,,,,,,,,,,,space,0.861555,,,,,,7,0,26,26,26,1,,,,,,,,,,,,,,,,,,,,,,,,,,,,,,,,,,,,,,,,,
,,,,,,,,,,,,,,,,,,,,,,,,24,female,2020-08-26_11h10.47.139,torte-2b,2020.1.3,MacIntel,60,13404,,,,,,,,,,,,space,0.81685,,,,,,1,0,27,27,27,1,,,,,,,,,,,,,,,,,,,,,,,,,,,,,,,,,,,,,,,,,
,,,,,,,,,,,,,,,,,,,,,,,,24,female,2020-08-26_11h10.47.139,torte-2b,2020.1.3,MacIntel,60,13404,,,,,,,,,,,,space,0.59705,,,,,,7,0,28,28,28,1,,,,,,,,,,,,,,,,,,,,,,,,,,,,,,,,,,,,,,,,,
,,,,,,,,,,,,,,,,,,,,,,,,24,female,2020-08-26_11h10.47.139,torte-2b,2020.1.3,MacIntel,60,13404,,,,,,,,,,,,space,1.28546,,,,,,4,0,29,29,29,1,,,,,,,,,,,,,,,,,,,,,,,,,,,,,,,,,,,,,,,,,
,,,,,,,,,,,,,,,,,,,,,,,,24,female,2020-08-26_11h10.47.139,torte-2b,2020.1.3,MacIntel,60,13404,,,,,,,,,,,,space,1.22993,,,,,,7,0,30,30,30,1,,,,,,,,,,,,,,,,,,,,,,,,,,,,,,,,,,,,,,,,,
,,,,,,,,,,,,,,,,,,,,,,,,24,female,2020-08-26_11h10.47.139,torte-2b,2020.1.3,MacIntel,60,13404,,,,,,,,,,,,space,0.727575,,,,,,3,0,31,31,31,1,,,,,,,,,,,,,,,,,,,,,,,,,,,,,,,,,,,,,,,,,
,,,,,,,,,,,,,,,,,,,,,,,,24,female,2020-08-26_11h10.47.139,torte-2b,2020.1.3,MacIntel,60,13404,,,,,,,,,,,,space,0.85555,,,,,,2,0,32,32,32,1,,,,,,,,,,,,,,,,,,,,,,,,,,,,,,,,,,,,,,,,,
,,,,,,,,,,,,,,,,,,,,,,,,24,female,2020-08-26_11h10.47.139,torte-2b,2020.1.3,MacIntel,60,13404,,,,,,,,,,,,space,1.006065,,,,,,6,0,33,33,33,1,,,,,,,,,,,,,,,,,,,,,,,,,,,,,,,,,,,,,,,,,
,,,,,,,,,,,,,,,,,,,,,,,,24,female,2020-08-26_11h10.47.139,torte-2b,2020.1.3,MacIntel,60,13404,,,,,,,,,,,,space,0.626745,,,,,,3,0,34,34,34,1,,,,,,,,,,,,,,,,,,,,,,,,,,,,,,,,,,,,,,,,,
,,,,,,,,,,,,,,,,,,,,,,,,24,female,2020-08-26_11h10.47.139,torte-2b,2020.1.3,MacIntel,60,13404,,,,,,,,,,,,space,0.91991,,,,,,7,,,,,,0,0,0,0,1,,,,,,,,,,,,,,,,,,,,,,,,,,,,,,,,,,,,
,,,,,,,,,,,,,,,,,,,,,,,,24,female,2020-08-26_11h10.47.139,torte-2b,2020.1.3,MacIntel,60,13404,,,,,,,,,,,,space,0.5226,,,,,,5,,,,,,0,1,1,1,1,,,,,,,,,,,,,,,,,,,,,,,,,,,,,,,,,,,,
,,,,,,,,,,,,,,,,,,,,,,,,24,female,2020-08-26_11h10.47.139,torte-2b,2020.1.3,MacIntel,60,13404,,,,,,,,,,,,space,0.67124,,,,,,4,,,,,,0,2,2,2,1,,,,,,,,,,,,,,,,,,,,,,,,,,,,,,,,,,,,
,,,,,,,,,,,,,,,,,,,,,,,,24,female,2020-08-26_11h10.47.139,torte-2b,2020.1.3,MacIntel,60,13404,,,,,,,,,,,,space,0.783985,,,,,,5,,,,,,0,3,3,3,1,,,,,,,,,,,,,,,,,,,,,,,,,,,,,,,,,,,,
,,,,,,,,,,,,,,,,,,,,,,,,24,female,2020-08-26_11h10.47.139,torte-2b,2020.1.3,MacIntel,60,13404,,,,,,,,,,,,space,1.205795,,,,,,6,,,,,,0,4,4,4,1,,,,,,,,,,,,,,,,,,,,,,,,,,,,,,,,,,,,
,,,,,,,,,,,,,,,,,,,,,,,,24,female,2020-08-26_11h10.47.139,torte-2b,2020.1.3,MacIntel,60,13404,,,,,,,,,,,,space,0.81998,,,,,,5,,,,,,0,5,5,5,1,,,,,,,,,,,,,,,,,,,,,,,,,,,,,,,,,,,,
,,,,,,,,,,,,,,,,,,,,,,,,24,female,2020-08-26_11h10.47.139,torte-2b,2020.1.3,MacIntel,60,13404,,,,,,,,,,,,space,0.711925,,,,,,3,,,,,,0,6,6,6,1,,,,,,,,,,,,,,,,,,,,,,,,,,,,,,,,,,,,
,,,,,,,,,,,,,,,,,,,,,,,,24,female,2020-08-26_11h10.47.139,torte-2b,2020.1.3,MacIntel,60,13404,,,,,,,,,,,,space,0.558865,,,,,,4,,,,,,0,7,7,7,1,,,,,,,,,,,,,,,,,,,,,,,,,,,,,,,,,,,,
,,,,,,,,,,,,,,,,,,,,,,,,24,female,2020-08-26_11h10.47.139,torte-2b,2020.1.3,MacIntel,60,13404,,,,,,,,,,,,space,0.65536,,,,,,3,,,,,,0,8,8,8,1,,,,,,,,,,,,,,,,,,,,,,,,,,,,,,,,,,,,
,,,,,,,,,,,,,,,,,,,,,,,,24,female,2020-08-26_11h10.47.139,torte-2b,2020.1.3,MacIntel,60,13404,,,,,,,,,,,,space,0.948435,,,,,,1,,,,,,0,9,9,9,1,,,,,,,,,,,,,,,,,,,,,,,,,,,,,,,,,,,,
,,,,,,,,,,,,,,,,,,,,,,,,24,female,2020-08-26_11h10.47.139,torte-2b,2020.1.3,MacIntel,60,13404,,,,,,,,,,,,space,1.02419,,,,,,2,,,,,,0,10,10,10,1,,,,,,,,,,,,,,,,,,,,,,,,,,,,,,,,,,,,
,,,,,,,,,,,,,,,,,,,,,,,,24,female,2020-08-26_11h10.47.139,torte-2b,2020.1.3,MacIntel,60,13404,,,,,,,,,,,,space,1.02253,,,,,,1,,,,,,0,11,11,11,1,,,,,,,,,,,,,,,,,,,,,,,,,,,,,,,,,,,,
,,,,,,,,,,,,,,,,,,,,,,,,24,female,2020-08-26_11h10.47.139,torte-2b,2020.1.3,MacIntel,60,13404,,,,,,,,,,,,space,0.68783,,,,,,2,,,,,,0,12,12,12,1,,,,,,,,,,,,,,,,,,,,,,,,,,,,,,,,,,,,
,,,,,,,,,,,,,,,,,,,,,,,,24,female,2020-08-26_11h10.47.139,torte-2b,2020.1.3,MacIntel,60,13404,,,,,,,,,,,,space,1.03988,,,,,,1,,,,,,0,13,13,13,1,,,,,,,,,,,,,,,,,,,,,,,,,,,,,,,,,,,,
,,,,,,,,,,,,,,,,,,,,,,,,24,female,2020-08-26_11h10.47.139,torte-2b,2020.1.3,MacIntel,60,13404,,,,,,,,,,,,space,0.87818,,,,,,3,,,,,,0,14,14,14,1,,,,,,,,,,,,,,,,,,,,,,,,,,,,,,,,,,,,
,,,,,,,,,,,,,,,,,,,,,,,,24,female,2020-08-26_11h10.47.139,torte-2b,2020.1.3,MacIntel,60,13404,,,,,,,,,,,,space,0.984465,,,,,,1,,,,,,0,15,15,15,1,,,,,,,,,,,,,,,,,,,,,,,,,,,,,,,,,,,,
,,,,,,,,,,,,,,,,,,,,,,,,24,female,2020-08-26_11h10.47.139,torte-2b,2020.1.3,MacIntel,60,13404,,,,,,,,,,,,space,0.839575,,,,,,7,,,,,,0,16,16,16,1,,,,,,,,,,,,,,,,,,,,,,,,,,,,,,,,,,,,
,,,,,,,,,,,,,,,,,,,,,,,,24,female,2020-08-26_11h10.47.139,torte-2b,2020.1.3,MacIntel,60,13404,,,,,,,,,,,,space,0.76837,,,,,,7,,,,,,0,17,17,17,1,,,,,,,,,,,,,,,,,,,,,,,,,,,,,,,,,,,,
,,,,,,,,,,,,,,,,,,,,,,,,24,female,2020-08-26_11h10.47.139,torte-2b,2020.1.3,MacIntel,60,13404,,,,,,,,,,,,space,0.844815,,,,,,4,,,,,,0,18,18,18,1,,,,,,,,,,,,,,,,,,,,,,,,,,,,,,,,,,,,
,,,,,,,,,,,,,,,,,,,,,,,,24,female,2020-08-26_11h10.47.139,torte-2b,2020.1.3,MacIntel,60,13404,,,,,,,,,,,,space,0.902555,,,,,,7,,,,,,0,19,19,19,1,,,,,,,,,,,,,,,,,,,,,,,,,,,,,,,,,,,,
,,,,,,,,,,,,,,,,,,,,,,,,24,female,2020-08-26_11h10.47.139,torte-2b,2020.1.3,MacIntel,60,13404,,,,,,,,,,,,space,0.868345,,,,,,3,,,,,,0,20,20,20,1,,,,,,,,,,,,,,,,,,,,,,,,,,,,,,,,,,,,
,,,,,,,,,,,,,,,,,,,,,,,,24,female,2020-08-26_11h10.47.139,torte-2b,2020.1.3,MacIntel,60,13404,,,,,,,,,,,,space,0.82853,,,,,,7,,,,,,0,21,21,21,1,,,,,,,,,,,,,,,,,,,,,,,,,,,,,,,,,,,,
,,,,,,,,,,,,,,,,,,,,,,,,24,female,2020-08-26_11h10.47.139,torte-2b,2020.1.3,MacIntel,60,13404,,,,,,,,,,,,space,1.61045,,,,,,3,,,,,,0,22,22,22,1,,,,,,,,,,,,,,,,,,,,,,,,,,,,,,,,,,,,
,,,,,,,,,,,,,,,,,,,,,,,,24,female,2020-08-26_11h10.47.139,torte-2b,2020.1.3,MacIntel,60,13404,,,,,,,,,,,,space,0.84434,,,,,,1,,,,,,0,23,23,23,1,,,,,,,,,,,,,,,,,,,,,,,,,,,,,,,,,,,,
,,,,,,,,,,,,,,,,,,,,,,,,24,female,2020-08-26_11h10.47.139,torte-2b,2020.1.3,MacIntel,60,13404,,,,,,,,,,,,space,0.800795,,,,,,6,,,,,,0,24,24,24,1,,,,,,,,,,,,,,,,,,,,,,,,,,,,,,,,,,,,
,,,,,,,,,,,,,,,,,,,,,,,,24,female,2020-08-26_11h10.47.139,torte-2b,2020.1.3,MacIntel,60,13404,,,,,,,,,,,,space,0.851265,,,,,,3,,,,,,0,25,25,25,1,,,,,,,,,,,,,,,,,,,,,,,,,,,,,,,,,,,,
,,,,,,,,,,,,,,,,,,,,,,,,24,female,2020-08-26_11h10.47.139,torte-2b,2020.1.3,MacIntel,60,13404,,,,,,,,,,,,space,0.79059,,,,,,2,,,,,,0,26,26,26,1,,,,,,,,,,,,,,,,,,,,,,,,,,,,,,,,,,,,
,,,,,,,,,,,,,,,,,,,,,,,,24,female,2020-08-26_11h10.47.139,torte-2b,2020.1.3,MacIntel,60,13404,,,,,,,,,,,,space,0.926625,,,,,,3,,,,,,0,27,27,27,1,,,,,,,,,,,,,,,,,,,,,,,,,,,,,,,,,,,,
,,,,,,,,,,,,,,,,,,,,,,,,24,female,2020-08-26_11h10.47.139,torte-2b,2020.1.3,MacIntel,60,13404,,,,,,,,,,,,space,0.979105,,,,,,1,,,,,,0,28,28,28,1,,,,,,,,,,,,,,,,,,,,,,,,,,,,,,,,,,,,
,,,,,,,,,,,,,,,,,,,,,,,,24,female,2020-08-26_11h10.47.139,torte-2b,2020.1.3,MacIntel,60,13404,,,,,,,,,,,,space,1.076945,,,,,,3,,,,,,0,29,29,29,1,,,,,,,,,,,,,,,,,,,,,,,,,,,,,,,,,,,,
,,,,,,,,,,,,,,,,,,,,,,,,24,female,2020-08-26_11h10.47.139,torte-2b,2020.1.3,MacIntel,60,13404,,,,,,,,,,,,space,0.84775,,,,,,1,,,,,,0,30,30,30,1,,,,,,,,,,,,,,,,,,,,,,,,,,,,,,,,,,,,
,,,,,,,,,,,,,,,,,,,,,,,,24,female,2020-08-26_11h10.47.139,torte-2b,2020.1.3,MacIntel,60,13404,,,,,,,,,,,,space,1.16771,,,,,,7,,,,,,0,31,31,31,1,,,,,,,,,,,,,,,,,,,,,,,,,,,,,,,,,,,,
,,,,,,,,,,,,,,,,,,,,,,,,24,female,2020-08-26_11h10.47.139,torte-2b,2020.1.3,MacIntel,60,13404,,,,,,,,,,,,space,0.81307,,,,,,5,,,,,,0,32,32,32,1,,,,,,,,,,,,,,,,,,,,,,,,,,,,,,,,,,,,
,,,,,,,,,,,,,,,,,,,,,,,,24,female,2020-08-26_11h10.47.139,torte-2b,2020.1.3,MacIntel,60,13404,,,,,,,,,,,,space,0.768295,,,,,,7,,,,,,0,33,33,33,1,,,,,,,,,,,,,,,,,,,,,,,,,,,,,,,,,,,,
,,,,,,,,,,,,,,,,,,,,,,,,24,female,2020-08-26_11h10.47.139,torte-2b,2020.1.3,MacIntel,60,13404,,,,,,,,,,,,space,0.631145,,,,,,2,,,,,,0,34,34,34,1,,,,,,,,,,,,,,,,,,,,,,,,,,,,,,,,,,,,
,,,,,,,,,,,,,,,,,,,,,,,,24,female,2020-08-26_11h10.47.139,torte-2b,2020.1.3,MacIntel,60,13404,,,,,,,,,,,,space,0.86385,,,,,,3,,,,,,,,,,,0,0,0,0,1,,,,,,,,,,,,,,,,,,,,,,,,,,,,,,,
,,,,,,,,,,,,,,,,,,,,,,,,24,female,2020-08-26_11h10.47.139,torte-2b,2020.1.3,MacIntel,60,13404,,,,,,,,,,,,space,1.23275,,,,,,7,,,,,,,,,,,0,1,1,1,1,,,,,,,,,,,,,,,,,,,,,,,,,,,,,,,
,,,,,,,,,,,,,,,,,,,,,,,,24,female,2020-08-26_11h10.47.139,torte-2b,2020.1.3,MacIntel,60,13404,,,,,,,,,,,,space,1.001985,,,,,,7,,,,,,,,,,,0,2,2,2,1,,,,,,,,,,,,,,,,,,,,,,,,,,,,,,,
,,,,,,,,,,,,,,,,,,,,,,,,24,female,2020-08-26_11h10.47.139,torte-2b,2020.1.3,MacIntel,60,13404,,,,,,,,,,,,space,0.94506,,,,,,4,,,,,,,,,,,0,3,3,3,1,,,,,,,,,,,,,,,,,,,,,,,,,,,,,,,
,,,,,,,,,,,,,,,,,,,,,,,,24,female,2020-08-26_11h10.47.139,torte-2b,2020.1.3,MacIntel,60,13404,,,,,,,,,,,,space,0.88481,,,,,,5,,,,,,,,,,,0,4,4,4,1,,,,,,,,,,,,,,,,,,,,,,,,,,,,,,,
,,,,,,,,,,,,,,,,,,,,,,,,24,female,2020-08-26_11h10.47.139,torte-2b,2020.1.3,MacIntel,60,13404,,,,,,,,,,,,space,0.92226,,,,,,4,,,,,,,,,,,0,5,5,5,1,,,,,,,,,,,,,,,,,,,,,,,,,,,,,,,
,,,,,,,,,,,,,,,,,,,,,,,,24,female,2020-08-26_11h10.47.139,torte-2b,2020.1.3,MacIntel,60,13404,,,,,,,,,,,,space,0.95134,,,,,,2,,,,,,,,,,,0,6,6,6,1,,,,,,,,,,,,,,,,,,,,,,,,,,,,,,,
,,,,,,,,,,,,,,,,,,,,,,,,24,female,2020-08-26_11h10.47.139,torte-2b,2020.1.3,MacIntel,60,13404,,,,,,,,,,,,space,0.76539,,,,,,4,,,,,,,,,,,0,7,7,7,1,,,,,,,,,,,,,,,,,,,,,,,,,,,,,,,
,,,,,,,,,,,,,,,,,,,,,,,,24,female,2020-08-26_11h10.47.139,torte-2b,2020.1.3,MacIntel,60,13404,,,,,,,,,,,,space,0.800125,,,,,,2,,,,,,,,,,,0,8,8,8,1,,,,,,,,,,,,,,,,,,,,,,,,,,,,,,,
,,,,,,,,,,,,,,,,,,,,,,,,24,female,2020-08-26_11h10.47.139,torte-2b,2020.1.3,MacIntel,60,13404,,,,,,,,,,,,space,0.80032,,,,,,2,,,,,,,,,,,0,9,9,9,1,,,,,,,,,,,,,,,,,,,,,,,,,,,,,,,
,,,,,,,,,,,,,,,,,,,,,,,,24,female,2020-08-26_11h10.47.139,torte-2b,2020.1.3,MacIntel,60,13404,,,,,,,,,,,,space,0.89854,,,,,,6,,,,,,,,,,,0,10,10,10,1,,,,,,,,,,,,,,,,,,,,,,,,,,,,,,,
,,,,,,,,,,,,,,,,,,,,,,,,24,female,2020-08-26_11h10.47.139,torte-2b,2020.1.3,MacIntel,60,13404,,,,,,,,,,,,space,0.699875,,,,,,2,,,,,,,,,,,0,11,11,11,1,,,,,,,,,,,,,,,,,,,,,,,,,,,,,,,
,,,,,,,,,,,,,,,,,,,,,,,,24,female,2020-08-26_11h10.47.139,torte-2b,2020.1.3,MacIntel,60,13404,,,,,,,,,,,,space,0.722105,,,,,,2,,,,,,,,,,,0,12,12,12,1,,,,,,,,,,,,,,,,,,,,,,,,,,,,,,,
,,,,,,,,,,,,,,,,,,,,,,,,24,female,2020-08-26_11h10.47.139,torte-2b,2020.1.3,MacIntel,60,13404,,,,,,,,,,,,space,0.88921,,,,,,2,,,,,,,,,,,0,13,13,13,1,,,,,,,,,,,,,,,,,,,,,,,,,,,,,,,
,,,,,,,,,,,,,,,,,,,,,,,,24,female,2020-08-26_11h10.47.139,torte-2b,2020.1.3,MacIntel,60,13404,,,,,,,,,,,,space,0.752605,,,,,,2,,,,,,,,,,,0,14,14,14,1,,,,,,,,,,,,,,,,,,,,,,,,,,,,,,,
,,,,,,,,,,,,,,,,,,,,,,,,24,female,2020-08-26_11h10.47.139,torte-2b,2020.1.3,MacIntel,60,13404,,,,,,,,,,,,space,0.87252,,,,,,4,,,,,,,,,,,0,15,15,15,1,,,,,,,,,,,,,,,,,,,,,,,,,,,,,,,
,,,,,,,,,,,,,,,,,,,,,,,,24,female,2020-08-26_11h10.47.139,torte-2b,2020.1.3,MacIntel,60,13404,,,,,,,,,,,,space,0.99982,,,,,,3,,,,,,,,,,,0,16,16,16,1,,,,,,,,,,,,,,,,,,,,,,,,,,,,,,,
,,,,,,,,,,,,,,,,,,,,,,,,24,female,2020-08-26_11h10.47.139,torte-2b,2020.1.3,MacIntel,60,13404,,,,,,,,,,,,space,0.76736,,,,,,7,,,,,,,,,,,0,17,17,17,1,,,,,,,,,,,,,,,,,,,,,,,,,,,,,,,
,,,,,,,,,,,,,,,,,,,,,,,,24,female,2020-08-26_11h10.47.139,torte-2b,2020.1.3,MacIntel,60,13404,,,,,,,,,,,,space,0.789265,,,,,,4,,,,,,,,,,,0,18,18,18,1,,,,,,,,,,,,,,,,,,,,,,,,,,,,,,,
,,,,,,,,,,,,,,,,,,,,,,,,24,female,2020-08-26_11h10.47.139,torte-2b,2020.1.3,MacIntel,60,13404,,,,,,,,,,,,space,1.081785,,,,,,7,,,,,,,,,,,0,19,19,19,1,,,,,,,,,,,,,,,,,,,,,,,,,,,,,,,
,,,,,,,,,,,,,,,,,,,,,,,,24,female,2020-08-26_11h10.47.139,torte-2b,2020.1.3,MacIntel,60,13404,,,,,,,,,,,,space,0.82231,,,,,,7,,,,,,,,,,,0,20,20,20,1,,,,,,,,,,,,,,,,,,,,,,,,,,,,,,,
,,,,,,,,,,,,,,,,,,,,,,,,24,female,2020-08-26_11h10.47.139,torte-2b,2020.1.3,MacIntel,60,13404,,,,,,,,,,,,space,0.65173,,,,,,7,,,,,,,,,,,0,21,21,21,1,,,,,,,,,,,,,,,,,,,,,,,,,,,,,,,
,,,,,,,,,,,,,,,,,,,,,,,,24,female,2020-08-26_11h10.47.139,torte-2b,2020.1.3,MacIntel,60,13404,,,,,,,,,,,,space,0.69908,,,,,,7,,,,,,,,,,,0,22,22,22,1,,,,,,,,,,,,,,,,,,,,,,,,,,,,,,,
,,,,,,,,,,,,,,,,,,,,,,,,24,female,2020-08-26_11h10.47.139,torte-2b,2020.1.3,MacIntel,60,13404,,,,,,,,,,,,space,1.02812,,,,,,1,,,,,,,,,,,0,23,23,23,1,,,,,,,,,,,,,,,,,,,,,,,,,,,,,,,
,,,,,,,,,,,,,,,,,,,,,,,,24,female,2020-08-26_11h10.47.139,torte-2b,2020.1.3,MacIntel,60,13404,,,,,,,,,,,,space,0.69098,,,,,,7,,,,,,,,,,,0,24,24,24,1,,,,,,,,,,,,,,,,,,,,,,,,,,,,,,,
,,,,,,,,,,,,,,,,,,,,,,,,24,female,2020-08-26_11h10.47.139,torte-2b,2020.1.3,MacIntel,60,13404,,,,,,,,,,,,space,0.955735,,,,,,1,,,,,,,,,,,0,25,25,25,1,,,,,,,,,,,,,,,,,,,,,,,,,,,,,,,
,,,,,,,,,,,,,,,,,,,,,,,,24,female,2020-08-26_11h10.47.139,torte-2b,2020.1.3,MacIntel,60,13404,,,,,,,,,,,,space,1.023135,,,,,,7,,,,,,,,,,,0,26,26,26,1,,,,,,,,,,,,,,,,,,,,,,,,,,,,,,,
,,,,,,,,,,,,,,,,,,,,,,,,24,female,2020-08-26_11h10.47.139,torte-2b,2020.1.3,MacIntel,60,13404,,,,,,,,,,,,space,0.765495,,,,,,2,,,,,,,,,,,0,27,27,27,1,,,,,,,,,,,,,,,,,,,,,,,,,,,,,,,
,,,,,,,,,,,,,,,,,,,,,,,,24,female,2020-08-26_11h10.47.139,torte-2b,2020.1.3,MacIntel,60,13404,,,,,,,,,,,,space,0.9327,,,,,,5,,,,,,,,,,,0,28,28,28,1,,,,,,,,,,,,,,,,,,,,,,,,,,,,,,,
,,,,,,,,,,,,,,,,,,,,,,,,24,female,2020-08-26_11h10.47.139,torte-2b,2020.1.3,MacIntel,60,13404,,,,,,,,,,,,space,0.598955,,,,,,5,,,,,,,,,,,0,29,29,29,1,,,,,,,,,,,,,,,,,,,,,,,,,,,,,,,
,,,,,,,,,,,,,,,,,,,,,,,,24,female,2020-08-26_11h10.47.139,torte-2b,2020.1.3,MacIntel,60,13404,,,,,,,,,,,,space,0.622,,,,,,5,,,,,,,,,,,0,30,30,30,1,,,,,,,,,,,,,,,,,,,,,,,,,,,,,,,
,,,,,,,,,,,,,,,,,,,,,,,,24,female,2020-08-26_11h10.47.139,torte-2b,2020.1.3,MacIntel,60,13404,,,,,,,,,,,,space,1.055305,,,,,,1,,,,,,,,,,,0,31,31,31,1,,,,,,,,,,,,,,,,,,,,,,,,,,,,,,,
,,,,,,,,,,,,,,,,,,,,,,,,24,female,2020-08-26_11h10.47.139,torte-2b,2020.1.3,MacIntel,60,13404,,,,,,,,,,,,space,0.88915,,,,,,5,,,,,,,,,,,0,32,32,32,1,,,,,,,,,,,,,,,,,,,,,,,,,,,,,,,
,,,,,,,,,,,,,,,,,,,,,,,,24,female,2020-08-26_11h10.47.139,torte-2b,2020.1.3,MacIntel,60,13404,,,,,,,,,,,,space,0.75923,,,,,,3,,,,,,,,,,,0,33,33,33,1,,,,,,,,,,,,,,,,,,,,,,,,,,,,,,,
,,,,,,,,,,,,,,,,,,,,,,,,24,female,2020-08-26_11h10.47.139,torte-2b,2020.1.3,MacIntel,60,13404,,,,,,,,,,,,space,0.799035,,,,,,3,,,,,,,,,,,0,34,34,34,1,,,,,,,,,,,,,,,,,,,,,,,,,,,,,,,
,,,,,,,,,,,,l,0.6564,Incorrect,,,,,,t4.png,t5.png,1,0.90025,24,female,2020-08-26_11h10.47.139,torte-2b,2020.1.3,MacIntel,60,13404,space,0.60073,,,,,,,,,,,,,,,,,,,,,,,,,,,,,,,,,space,4.80139,0,0,0,113,1,,,,,,,,,,,,,,,,,,,,,,,,
,,,,,,,,,,,,l,0.657925,Incorrect,,,,,,t2.png,t3.png,1,0.90855,24,female,2020-08-26_11h10.47.139,torte-2b,2020.1.3,MacIntel,60,13404,,,,,,,,,,,,,,,,,,,,,,,,,,,,,,,,,,,,,0,1,1,10,1,,,,,,,,,,,,,,,,,,,,,,,,
,,,,,,,,,,,,l,0.566635,Correct!,,,,,,t1.png,t3.png,2,0.056466,24,female,2020-08-26_11h10.47.139,torte-2b,2020.1.3,MacIntel,60,13404,,,,,,,,,,,,,,,,,,,,,,,,,,,,,,,,,,,,,0,2,2,99,1,,,,,,,,,,,,,,,,,,,,,,,,
,,,,,,,,,,,,l,0.39656,Correct!,,,,,,t1.png,t5.png,4,9.55E-11,24,female,2020-08-26_11h10.47.139,torte-2b,2020.1.3,MacIntel,60,13404,,,,,,,,,,,,,,,,,,,,,,,,,,,,,,,,,,,,,0,3,3,41,1,,,,,,,,,,,,,,,,,,,,,,,,
,,,,,,,,,,,,a,0.45752,Correct!,,,,,,t4.png,t4.png,0,0.98115,24,female,2020-08-26_11h10.47.139,torte-2b,2020.1.3,MacIntel,60,13404,,,,,,,,,,,,,,,,,,,,,,,,,,,,,,,,,,,,,0,4,4,21,1,,,,,,,,,,,,,,,,,,,,,,,,
,,,,,,,,,,,,l,0.424725,Incorrect,,,,,,t1.png,t1.png,0,0.97829,24,female,2020-08-26_11h10.47.139,torte-2b,2020.1.3,MacIntel,60,13404,,,,,,,,,,,,,,,,,,,,,,,,,,,,,,,,,,,,,0,5,5,78,1,,,,,,,,,,,,,,,,,,,,,,,,
,,,,,,,,,,,,l,0.85785,Incorrect,,,,,,t5.png,t4.png,1,0.9,24,female,2020-08-26_11h10.47.139,torte-2b,2020.1.3,MacIntel,60,13404,,,,,,,,,,,,,,,,,,,,,,,,,,,,,,,,,,,,,0,6,6,76,1,,,,,,,,,,,,,,,,,,,,,,,,
,,,,,,,,,,,,l,0.596925,Correct!,,,,,,t3.png,t5.png,2,0.0565,24,female,2020-08-26_11h10.47.139,torte-2b,2020.1.3,MacIntel,60,13404,,,,,,,,,,,,,,,,,,,,,,,,,,,,,,,,,,,,,0,7,7,83,1,,,,,,,,,,,,,,,,,,,,,,,,
,,,,,,,,,,,,l,0.891805,Correct!,,,,,,t1.png,t4.png,3,0.0000131,24,female,2020-08-26_11h10.47.139,torte-2b,2020.1.3,MacIntel,60,13404,,,,,,,,,,,,,,,,,,,,,,,,,,,,,,,,,,,,,0,8,8,17,1,,,,,,,,,,,,,,,,,,,,,,,,
,,,,,,,,,,,,a,0.42522,Incorrect,,,,,,t5.png,t2.png,3,0.0000131,24,female,2020-08-26_11h10.47.139,torte-2b,2020.1.3,MacIntel,60,13404,,,,,,,,,,,,,,,,,,,,,,,,,,,,,,,,,,,,,0,9,9,51,1,,,,,,,,,,,,,,,,,,,,,,,,
,,,,,,,,,,,,a,0.57247,Incorrect,,,,,,t5.png,t2.png,3,0.0000131,24,female,2020-08-26_11h10.47.139,torte-2b,2020.1.3,MacIntel,60,13404,,,,,,,,,,,,,,,,,,,,,,,,,,,,,,,,,,,,,0,10,10,116,1,,,,,,,,,,,,,,,,,,,,,,,,
,,,,,,,,,,,,l,0.491905,Incorrect,,,,,,t3.png,t4.png,1,0.909,24,female,2020-08-26_11h10.47.139,torte-2b,2020.1.3,MacIntel,60,13404,,,,,,,,,,,,,,,,,,,,,,,,,,,,,,,,,,,,,0,11,11,89,1,,,,,,,,,,,,,,,,,,,,,,,,
,,,,,,,,,,,,l,0.603415,Correct!,,,,,,t1.png,t4.png,3,0.0000131,24,female,2020-08-26_11h10.47.139,torte-2b,2020.1.3,MacIntel,60,13404,,,,,,,,,,,,,,,,,,,,,,,,,,,,,,,,,,,,,0,12,12,107,1,,,,,,,,,,,,,,,,,,,,,,,,
,,,,,,,,,,,,l,0.499465,Incorrect,,,,,,t2.png,t3.png,1,0.909,24,female,2020-08-26_11h10.47.139,torte-2b,2020.1.3,MacIntel,60,13404,,,,,,,,,,,,,,,,,,,,,,,,,,,,,,,,,,,,,0,13,13,74,1,,,,,,,,,,,,,,,,,,,,,,,,
,,,,,,,,,,,,l,0.379935,Correct!,,,,,,t1.png,t4.png,3,0.0000131,24,female,2020-08-26_11h10.47.139,torte-2b,2020.1.3,MacIntel,60,13404,,,,,,,,,,,,,,,,,,,,,,,,,,,,,,,,,,,,,0,14,14,92,1,,,,,,,,,,,,,,,,,,,,,,,,
,,,,,,,,,,,,a,0.567205,Correct!,,,,,,t2.png,t1.png,1,0.90025,24,female,2020-08-26_11h10.47.139,torte-2b,2020.1.3,MacIntel,60,13404,,,,,,,,,,,,,,,,,,,,,,,,,,,,,,,,,,,,,0,15,15,4,1,,,,,,,,,,,,,,,,,,,,,,,,
,,,,,,,,,,,,l,0.40963,Correct!,,,,,,t1.png,t3.png,2,0.056466,24,female,2020-08-26_11h10.47.139,torte-2b,2020.1.3,MacIntel,60,13404,,,,,,,,,,,,,,,,,,,,,,,,,,,,,,,,,,,,,0,16,16,69,1,,,,,,,,,,,,,,,,,,,,,,,,
,,,,,,,,,,,,l,0.456245,Correct!,,,,,,t1.png,t4.png,3,0.0000131,24,female,2020-08-26_11h10.47.139,torte-2b,2020.1.3,MacIntel,60,13404,,,,,,,,,,,,,,,,,,,,,,,,,,,,,,,,,,,,,0,17,17,81,1,,,,,,,,,,,,,,,,,,,,,,,,
,,,,,,,,,,,,a,0.491705,Correct!,,,,,,t3.png,t2.png,1,0.909,24,female,2020-08-26_11h10.47.139,torte-2b,2020.1.3,MacIntel,60,13404,,,,,,,,,,,,,,,,,,,,,,,,,,,,,,,,,,,,,0,18,18,23,1,,,,,,,,,,,,,,,,,,,,,,,,
,,,,,,,,,,,,a,0.55802,Correct!,,,,,,t3.png,t2.png,1,0.909,24,female,2020-08-26_11h10.47.139,torte-2b,2020.1.3,MacIntel,60,13404,,,,,,,,,,,,,,,,,,,,,,,,,,,,,,,,,,,,,0,19,19,3,1,,,,,,,,,,,,,,,,,,,,,,,,
,,,,,,,,,,,,a,0.43528,Incorrect,,,,,,t4.png,t2.png,2,0.059078,24,female,2020-08-26_11h10.47.139,torte-2b,2020.1.3,MacIntel,60,13404,,,,,,,,,,,,,,,,,,,,,,,,,,,,,,,,,,,,,0,20,20,110,1,,,,,,,,,,,,,,,,,,,,,,,,
,,,,,,,,,,,,a,0.42594,Incorrect,,,,,,t5.png,t2.png,3,0.0000131,24,female,2020-08-26_11h10.47.139,torte-2b,2020.1.3,MacIntel,60,13404,,,,,,,,,,,,,,,,,,,,,,,,,,,,,,,,,,,,,0,21,21,119,1,,,,,,,,,,,,,,,,,,,,,,,,
,,,,,,,,,,,,l,0.40073,Correct!,,,,,,t2.png,t5.png,3,0.0000131,24,female,2020-08-26_11h10.47.139,torte-2b,2020.1.3,MacIntel,60,13404,,,,,,,,,,,,,,,,,,,,,,,,,,,,,,,,,,,,,0,22,22,40,1,,,,,,,,,,,,,,,,,,,,,,,,
,,,,,,,,,,,,l,0.47139,Incorrect,,,,,,t1.png,t2.png,1,0.9,24,female,2020-08-26_11h10.47.139,torte-2b,2020.1.3,MacIntel,60,13404,,,,,,,,,,,,,,,,,,,,,,,,,,,,,,,,,,,,,0,23,23,1,1,,,,,,,,,,,,,,,,,,,,,,,,
,,,,,,,,,,,,a,0.434285,Incorrect,,,,,,t4.png,t2.png,2,0.059078,24,female,2020-08-26_11h10.47.139,torte-2b,2020.1.3,MacIntel,60,13404,,,,,,,,,,,,,,,,,,,,,,,,,,,,,,,,,,,,,0,24,24,88,1,,,,,,,,,,,,,,,,,,,,,,,,
,,,,,,,,,,,,l,0.424795,Incorrect,,,,,,t1.png,t2.png,1,0.90025,24,female,2020-08-26_11h10.47.139,torte-2b,2020.1.3,MacIntel,60,13404,,,,,,,,,,,,,,,,,,,,,,,,,,,,,,,,,,,,,0,25,25,72,1,,,,,,,,,,,,,,,,,,,,,,,,
,,,,,,,,,,,,a,0.458055,Incorrect,,,,,,t4.png,t1.png,3,0.0000131,24,female,2020-08-26_11h10.47.139,torte-2b,2020.1.3,MacIntel,60,13404,,,,,,,,,,,,,,,,,,,,,,,,,,,,,,,,,,,,,0,26,26,42,1,,,,,,,,,,,,,,,,,,,,,,,,
,,,,,,,,,,,,l,0.4917,Incorrect,,,,,,t1.png,t1.png,0,0.97829,24,female,2020-08-26_11h10.47.139,torte-2b,2020.1.3,MacIntel,60,13404,,,,,,,,,,,,,,,,,,,,,,,,,,,,,,,,,,,,,0,27,27,67,1,,,,,,,,,,,,,,,,,,,,,,,,
,,,,,,,,,,,,l,0.602605,Correct!,,,,,,t3.png,t5.png,2,0.056466,24,female,2020-08-26_11h10.47.139,torte-2b,2020.1.3,MacIntel,60,13404,,,,,,,,,,,,,,,,,,,,,,,,,,,,,,,,,,,,,0,28,28,44,1,,,,,,,,,,,,,,,,,,,,,,,,
,,,,,,,,,,,,a,0.426555,Incorrect,,,,,,t5.png,t2.png,3,0.0000131,24,female,2020-08-26_11h10.47.139,torte-2b,2020.1.3,MacIntel,60,13404,,,,,,,,,,,,,,,,,,,,,,,,,,,,,,,,,,,,,0,29,29,91,1,,,,,,,,,,,,,,,,,,,,,,,,
,,,,,,,,,,,,a,0.433075,Incorrect,,,,,,t5.png,t3.png,2,0.056466,24,female,2020-08-26_11h10.47.139,torte-2b,2020.1.3,MacIntel,60,13404,,,,,,,,,,,,,,,,,,,,,,,,,,,,,,,,,,,,,0,30,30,38,1,,,,,,,,,,,,,,,,,,,,,,,,
,,,,,,,,,,,,a,0.49083,Correct!,,,,,,t5.png,t4.png,1,0.9,24,female,2020-08-26_11h10.47.139,torte-2b,2020.1.3,MacIntel,60,13404,,,,,,,,,,,,,,,,,,,,,,,,,,,,,,,,,,,,,0,31,31,49,1,,,,,,,,,,,,,,,,,,,,,,,,
,,,,,,,,,,,,l,0.682905,Correct!,,,,,,t5.png,t3.png,2,0.0565,24,female,2020-08-26_11h10.47.139,torte-2b,2020.1.3,MacIntel,60,13404,,,,,,,,,,,,,,,,,,,,,,,,,,,,,,,,,,,,,0,32,32,39,1,,,,,,,,,,,,,,,,,,,,,,,,
,,,,,,,,,,,,l,0.54,Correct!,,,,,,t3.png,t2.png,1,0.90855,24,female,2020-08-26_11h10.47.139,torte-2b,2020.1.3,MacIntel,60,13404,,,,,,,,,,,,,,,,,,,,,,,,,,,,,,,,,,,,,0,33,33,18,1,,,,,,,,,,,,,,,,,,,,,,,,
,,,,,,,,,,,,l,0.601035,Incorrect,,,,,,t5.png,t5.png,0,0.978,24,female,2020-08-26_11h10.47.139,torte-2b,2020.1.3,MacIntel,60,13404,,,,,,,,,,,,,,,,,,,,,,,,,,,,,,,,,,,,,0,34,34,117,1,,,,,,,,,,,,,,,,,,,,,,,,
,,,,,,,,,,,,l,0.507935,Incorrect,,,,,,t2.png,t2.png,0,0.98115,24,female,2020-08-26_11h10.47.139,torte-2b,2020.1.3,MacIntel,60,13404,,,,,,,,,,,,,,,,,,,,,,,,,,,,,,,,,,,,,0,35,35,2,1,,,,,,,,,,,,,,,,,,,,,,,,
,,,,,,,,,,,,l,0.80184,Incorrect,,,,,,t2.png,t3.png,1,0.90855,24,female,2020-08-26_11h10.47.139,torte-2b,2020.1.3,MacIntel,60,13404,,,,,,,,,,,,,,,,,,,,,,,,,,,,,,,,,,,,,0,36,36,65,1,,,,,,,,,,,,,,,,,,,,,,,,
,,,,,,,,,,,,l,0.64928,Incorrect,,,,,,t2.png,t2.png,0,0.98115,24,female,2020-08-26_11h10.47.139,torte-2b,2020.1.3,MacIntel,60,13404,,,,,,,,,,,,,,,,,,,,,,,,,,,,,,,,,,,,,0,37,37,7,1,,,,,,,,,,,,,,,,,,,,,,,,
,,,,,,,,,,,,l,0.41637,Correct!,,,,,,t1.png,t5.png,4,9.55E-11,24,female,2020-08-26_11h10.47.139,torte-2b,2020.1.3,MacIntel,60,13404,,,,,,,,,,,,,,,,,,,,,,,,,,,,,,,,,,,,,0,38,38,85,1,,,,,,,,,,,,,,,,,,,,,,,,
,,,,,,,,,,,,l,0.538505,Correct!,,,,,,t3.png,t5.png,2,0.056466,24,female,2020-08-26_11h10.47.139,torte-2b,2020.1.3,MacIntel,60,13404,,,,,,,,,,,,,,,,,,,,,,,,,,,,,,,,,,,,,0,39,39,6,1,,,,,,,,,,,,,,,,,,,,,,,,
,,,,,,,,,,,,l,0.49184,Correct!,,,,,,t3.png,t5.png,2,0.056466,24,female,2020-08-26_11h10.47.139,torte-2b,2020.1.3,MacIntel,60,13404,,,,,,,,,,,,,,,,,,,,,,,,,,,,,,,,,,,,,0,40,40,14,1,,,,,,,,,,,,,,,,,,,,,,,,
,,,,,,,,,,,,l,0.677985,Incorrect,,,,,,t4.png,t4.png,0,0.98115,24,female,2020-08-26_11h10.47.139,torte-2b,2020.1.3,MacIntel,60,13404,,,,,,,,,,,,,,,,,,,,,,,,,,,,,,,,,,,,,0,41,41,80,1,,,,,,,,,,,,,,,,,,,,,,,,
,,,,,,,,,,,,l,0.79145,Correct!,,,,,,t2.png,t4.png,2,0.0591,24,female,2020-08-26_11h10.47.139,torte-2b,2020.1.3,MacIntel,60,13404,,,,,,,,,,,,,,,,,,,,,,,,,,,,,,,,,,,,,0,42,42,15,1,,,,,,,,,,,,,,,,,,,,,,,,
,,,,,,,,,,,,a,0.487545,Incorrect,,,,,,t3.png,t1.png,2,0.056466,24,female,2020-08-26_11h10.47.139,torte-2b,2020.1.3,MacIntel,60,13404,,,,,,,,,,,,,,,,,,,,,,,,,,,,,,,,,,,,,0,43,43,0,1,,,,,,,,,,,,,,,,,,,,,,,,
,,,,,,,,,,,,l,0.62892,Incorrect,,,,,,t1.png,t2.png,1,0.90025,24,female,2020-08-26_11h10.47.139,torte-2b,2020.1.3,MacIntel,60,13404,,,,,,,,,,,,,,,,,,,,,,,,,,,,,,,,,,,,,0,44,44,105,1,,,,,,,,,,,,,,,,,,,,,,,,
,,,,,,,,,,,,l,0.70135,Incorrect,,,,,,t4.png,t4.png,0,0.98115,24,female,2020-08-26_11h10.47.139,torte-2b,2020.1.3,MacIntel,60,13404,,,,,,,,,,,,,,,,,,,,,,,,,,,,,,,,,,,,,0,45,45,90,1,,,,,,,,,,,,,,,,,,,,,,,,
,,,,,,,,,,,,a,0.471635,Incorrect,,,,,,t5.png,t1.png,4,9.55E-11,24,female,2020-08-26_11h10.47.139,torte-2b,2020.1.3,MacIntel,60,13404,,,,,,,,,,,,,,,,,,,,,,,,,,,,,,,,,,,,,0,46,46,100,1,,,,,,,,,,,,,,,,,,,,,,,,
,,,,,,,,,,,,l,0.433495,Incorrect,,,,,,t2.png,t2.png,0,0.98115,24,female,2020-08-26_11h10.47.139,torte-2b,2020.1.3,MacIntel,60,13404,,,,,,,,,,,,,,,,,,,,,,,,,,,,,,,,,,,,,0,47,47,59,1,,,,,,,,,,,,,,,,,,,,,,,,
,,,,,,,,,,,,l,1.031655,Correct!,,,,,,t1.png,t3.png,2,0.056466,24,female,2020-08-26_11h10.47.139,torte-2b,2020.1.3,MacIntel,60,13404,,,,,,,,,,,,,,,,,,,,,,,,,,,,,,,,,,,,,0,48,48,87,1,,,,,,,,,,,,,,,,,,,,,,,,
,,,,,,,,,,,,,,Too slow :(,,,,,,t2.png,t4.png,2,0.059078,24,female,2020-08-26_11h10.47.139,torte-2b,2020.1.3,MacIntel,60,13404,,,,,,,,,,,,,,,,,,,,,,,,,,,,,,,,,,,,,0,49,49,37,1,,,,,,,,,,,,,,,,,,,,,,,,
,,,,,,,,,,,,l,0.46911,Incorrect,,,,,,t4.png,t3.png,1,0.90855,24,female,2020-08-26_11h10.47.139,torte-2b,2020.1.3,MacIntel,60,13404,,,,,,,,,,,,,,,,,,,,,,,,,,,,,,,,,,,,,0,50,50,35,1,,,,,,,,,,,,,,,,,,,,,,,,
,,,,,,,,,,,,l,1.56607,Correct!,,,,,,t2.png,t4.png,2,0.059078,24,female,2020-08-26_11h10.47.139,torte-2b,2020.1.3,MacIntel,60,13404,,,,,,,,,,,,,,,,,,,,,,,,,,,,,,,,,,,,,0,51,51,11,1,,,,,,,,,,,,,,,,,,,,,,,,
,,,,,,,,,,,,l,0.434065,Incorrect,,,,,,t5.png,t5.png,0,0.97829,24,female,2020-08-26_11h10.47.139,torte-2b,2020.1.3,MacIntel,60,13404,,,,,,,,,,,,,,,,,,,,,,,,,,,,,,,,,,,,,0,52,52,94,1,,,,,,,,,,,,,,,,,,,,,,,,
,,,,,,,,,,,,l,0.82471,Incorrect,,,,,,t1.png,t1.png,0,0.978,24,female,2020-08-26_11h10.47.139,torte-2b,2020.1.3,MacIntel,60,13404,,,,,,,,,,,,,,,,,,,,,,,,,,,,,,,,,,,,,0,53,53,54,1,,,,,,,,,,,,,,,,,,,,,,,,
,,,,,,,,,,,,l,0.44437,Correct!,,,,,,t1.png,t5.png,4,9.55E-11,24,female,2020-08-26_11h10.47.139,torte-2b,2020.1.3,MacIntel,60,13404,,,,,,,,,,,,,,,,,,,,,,,,,,,,,,,,,,,,,0,54,54,55,1,,,,,,,,,,,,,,,,,,,,,,,,
,,,,,,,,,,,,l,0.45729,Incorrect,,,,,,t2.png,t1.png,1,0.90025,24,female,2020-08-26_11h10.47.139,torte-2b,2020.1.3,MacIntel,60,13404,,,,,,,,,,,,,,,,,,,,,,,,,,,,,,,,,,,,,0,55,55,19,1,,,,,,,,,,,,,,,,,,,,,,,,
,,,,,,,,,,,,l,0.402575,Correct!,,,,,,t1.png,t3.png,2,0.056466,24,female,2020-08-26_11h10.47.139,torte-2b,2020.1.3,MacIntel,60,13404,,,,,,,,,,,,,,,,,,,,,,,,,,,,,,,,,,,,,0,56,56,63,1,,,,,,,,,,,,,,,,,,,,,,,,
,,,,,,,,,,,,l,0.457695,Incorrect,,,,,,t2.png,t3.png,1,0.90855,24,female,2020-08-26_11h10.47.139,torte-2b,2020.1.3,MacIntel,60,13404,,,,,,,,,,,,,,,,,,,,,,,,,,,,,,,,,,,,,0,57,57,111,1,,,,,,,,,,,,,,,,,,,,,,,,
,,,,,,,,,,,,l,0.91411,Correct!,,,,,,t3.png,t4.png,1,0.90855,24,female,2020-08-26_11h10.47.139,torte-2b,2020.1.3,MacIntel,60,13404,,,,,,,,,,,,,,,,,,,,,,,,,,,,,,,,,,,,,0,58,58,84,1,,,,,,,,,,,,,,,,,,,,,,,,
,,,,,,,,,,,,l,0.5002,Incorrect,,,,,,t3.png,t4.png,1,0.909,24,female,2020-08-26_11h10.47.139,torte-2b,2020.1.3,MacIntel,60,13404,,,,,,,,,,,,,,,,,,,,,,,,,,,,,,,,,,,,,0,59,59,106,1,,,,,,,,,,,,,,,,,,,,,,,,
,,,,,,,,,,,,l,0.4906,Incorrect,,,,,,t4.png,t5.png,1,0.90025,24,female,2020-08-26_11h10.47.139,torte-2b,2020.1.3,MacIntel,60,13404,,,,,,,,,,,,,,,,,,,,,,,,,,,,,,,,,,,,,0,60,60,47,1,,,,,,,,,,,,,,,,,,,,,,,,
,,,,,,,,,,,,a,0.56705,Incorrect,,,,,,t4.png,t1.png,3,0.0000131,24,female,2020-08-26_11h10.47.139,torte-2b,2020.1.3,MacIntel,60,13404,,,,,,,,,,,,,,,,,,,,,,,,,,,,,,,,,,,,,0,61,61,48,1,,,,,,,,,,,,,,,,,,,,,,,,
,,,,,,,,,,,,a,0.60788,Incorrect,,,,,,t4.png,t1.png,3,0.0000131,24,female,2020-08-26_11h10.47.139,torte-2b,2020.1.3,MacIntel,60,13404,,,,,,,,,,,,,,,,,,,,,,,,,,,,,,,,,,,,,0,62,62,13,1,,,,,,,,,,,,,,,,,,,,,,,,
,,,,,,,,,,,,l,0.925195,Incorrect,,,,,,t5.png,t4.png,1,0.90025,24,female,2020-08-26_11h10.47.139,torte-2b,2020.1.3,MacIntel,60,13404,,,,,,,,,,,,,,,,,,,,,,,,,,,,,,,,,,,,,0,63,63,26,1,,,,,,,,,,,,,,,,,,,,,,,,
,,,,,,,,,,,,l,0.69097,Incorrect,,,,,,t3.png,t4.png,1,0.909,24,female,2020-08-26_11h10.47.139,torte-2b,2020.1.3,MacIntel,60,13404,,,,,,,,,,,,,,,,,,,,,,,,,,,,,,,,,,,,,0,64,64,82,1,,,,,,,,,,,,,,,,,,,,,,,,
,,,,,,,,,,,,a,0.44821,Incorrect,,,,,,t4.png,t1.png,3,0.0000131,24,female,2020-08-26_11h10.47.139,torte-2b,2020.1.3,MacIntel,60,13404,,,,,,,,,,,,,,,,,,,,,,,,,,,,,,,,,,,,,0,65,65,61,1,,,,,,,,,,,,,,,,,,,,,,,,
,,,,,,,,,,,,a,0.476995,Incorrect,,,,,,t5.png,t1.png,4,9.55E-11,24,female,2020-08-26_11h10.47.139,torte-2b,2020.1.3,MacIntel,60,13404,,,,,,,,,,,,,,,,,,,,,,,,,,,,,,,,,,,,,0,66,66,43,1,,,,,,,,,,,,,,,,,,,,,,,,
,,,,,,,,,,,,a,0.643375,Correct!,,,,,,t5.png,t5.png,0,0.97829,24,female,2020-08-26_11h10.47.139,torte-2b,2020.1.3,MacIntel,60,13404,,,,,,,,,,,,,,,,,,,,,,,,,,,,,,,,,,,,,0,67,67,25,1,,,,,,,,,,,,,,,,,,,,,,,,
,,,,,,,,,,,,l,0.71593,Incorrect,,,,,,t5.png,t5.png,0,0.97829,24,female,2020-08-26_11h10.47.139,torte-2b,2020.1.3,MacIntel,60,13404,,,,,,,,,,,,,,,,,,,,,,,,,,,,,,,,,,,,,0,68,68,70,1,,,,,,,,,,,,,,,,,,,,,,,,
,,,,,,,,,,,,l,0.600995,Incorrect,,,,,,t2.png,t1.png,1,0.90025,24,female,2020-08-26_11h10.47.139,torte-2b,2020.1.3,MacIntel,60,13404,,,,,,,,,,,,,,,,,,,,,,,,,,,,,,,,,,,,,0,69,69,5,1,,,,,,,,,,,,,,,,,,,,,,,,
,,,,,,,,,,,,a,0.601265,Incorrect,,,,,,t5.png,t3.png,2,0.056466,24,female,2020-08-26_11h10.47.139,torte-2b,2020.1.3,MacIntel,60,13404,,,,,,,,,,,,,,,,,,,,,,,,,,,,,,,,,,,,,0,70,70,114,1,,,,,,,,,,,,,,,,,,,,,,,,
,,,,,,,,,,,,a,0.9046,Incorrect,,,,,,t4.png,t2.png,2,0.059078,24,female,2020-08-26_11h10.47.139,torte-2b,2020.1.3,MacIntel,60,13404,,,,,,,,,,,,,,,,,,,,,,,,,,,,,,,,,,,,,0,71,71,109,1,,,,,,,,,,,,,,,,,,,,,,,,
,,,,,,,,,,,,a,0.47105,Incorrect,,,,,,t5.png,t2.png,3,0.0000131,24,female,2020-08-26_11h10.47.139,torte-2b,2020.1.3,MacIntel,60,13404,,,,,,,,,,,,,,,,,,,,,,,,,,,,,,,,,,,,,0,72,72,98,1,,,,,,,,,,,,,,,,,,,,,,,,
,,,,,,,,,,,,l,0.558355,Incorrect,,,,,,t3.png,t4.png,1,0.90855,24,female,2020-08-26_11h10.47.139,torte-2b,2020.1.3,MacIntel,60,13404,,,,,,,,,,,,,,,,,,,,,,,,,,,,,,,,,,,,,0,73,73,96,1,,,,,,,,,,,,,,,,,,,,,,,,
,,,,,,,,,,,,a,0.54445,Incorrect,,,,,,t4.png,t1.png,3,0.0000131,24,female,2020-08-26_11h10.47.139,torte-2b,2020.1.3,MacIntel,60,13404,,,,,,,,,,,,,,,,,,,,,,,,,,,,,,,,,,,,,0,74,74,93,1,,,,,,,,,,,,,,,,,,,,,,,,
,,,,,,,,,,,,a,0.52537,Incorrect,,,,,,t4.png,t2.png,2,0.0591,24,female,2020-08-26_11h10.47.139,torte-2b,2020.1.3,MacIntel,60,13404,,,,,,,,,,,,,,,,,,,,,,,,,,,,,,,,,,,,,0,75,75,36,1,,,,,,,,,,,,,,,,,,,,,,,,
,,,,,,,,,,,,a,0.558245,Incorrect,,,,,,t5.png,t1.png,4,9.55E-11,24,female,2020-08-26_11h10.47.139,torte-2b,2020.1.3,MacIntel,60,13404,,,,,,,,,,,,,,,,,,,,,,,,,,,,,,,,,,,,,0,76,76,102,1,,,,,,,,,,,,,,,,,,,,,,,,
,,,,,,,,,,,,a,0.51172,Incorrect,,,,,,t5.png,t3.png,2,0.056466,24,female,2020-08-26_11h10.47.139,torte-2b,2020.1.3,MacIntel,60,13404,,,,,,,,,,,,,,,,,,,,,,,,,,,,,,,,,,,,,0,77,77,108,1,,,,,,,,,,,,,,,,,,,,,,,,
,,,,,,,,,,,,l,0.492415,Correct!,,,,,,t2.png,t4.png,2,0.059078,24,female,2020-08-26_11h10.47.139,torte-2b,2020.1.3,MacIntel,60,13404,,,,,,,,,,,,,,,,,,,,,,,,,,,,,,,,,,,,,0,78,78,24,1,,,,,,,,,,,,,,,,,,,,,,,,
,,,,,,,,,,,,l,0.62642,Correct!,,,,,,t2.png,t5.png,3,0.0000131,24,female,2020-08-26_11h10.47.139,torte-2b,2020.1.3,MacIntel,60,13404,,,,,,,,,,,,,,,,,,,,,,,,,,,,,,,,,,,,,0,79,79,95,1,,,,,,,,,,,,,,,,,,,,,,,,
,,,,,,,,,,,,a,0.625635,Correct!,,,,,,t4.png,t3.png,1,0.909,24,female,2020-08-26_11h10.47.139,torte-2b,2020.1.3,MacIntel,60,13404,,,,,,,,,,,,,,,,,,,,,,,,,,,,,,,,,,,,,0,80,80,20,1,,,,,,,,,,,,,,,,,,,,,,,,
,,,,,,,,,,,,a,0.55731,Incorrect,,,,,,t3.png,t1.png,2,0.0565,24,female,2020-08-26_11h10.47.139,torte-2b,2020.1.3,MacIntel,60,13404,,,,,,,,,,,,,,,,,,,,,,,,,,,,,,,,,,,,,0,81,81,31,1,,,,,,,,,,,,,,,,,,,,,,,,
,,,,,,,,,,,,l,0.61779,Correct!,,,,,,t3.png,t5.png,2,0.0565,24,female,2020-08-26_11h10.47.139,torte-2b,2020.1.3,MacIntel,60,13404,,,,,,,,,,,,,,,,,,,,,,,,,,,,,,,,,,,,,0,82,82,30,1,,,,,,,,,,,,,,,,,,,,,,,,
,,,,,,,,,,,,l,0.690645,Incorrect,,,,,,t5.png,t4.png,1,0.90025,24,female,2020-08-26_11h10.47.139,torte-2b,2020.1.3,MacIntel,60,13404,,,,,,,,,,,,,,,,,,,,,,,,,,,,,,,,,,,,,0,83,83,34,1,,,,,,,,,,,,,,,,,,,,,,,,
,,,,,,,,,,,,l,0.634615,Incorrect,,,,,,t4.png,t5.png,1,0.90025,24,female,2020-08-26_11h10.47.139,torte-2b,2020.1.3,MacIntel,60,13404,,,,,,,,,,,,,,,,,,,,,,,,,,,,,,,,,,,,,0,84,84,58,1,,,,,,,,,,,,,,,,,,,,,,,,
,,,,,,,,,,,,l,0.524675,Correct!,,,,,,t2.png,t5.png,3,0.0000131,24,female,2020-08-26_11h10.47.139,torte-2b,2020.1.3,MacIntel,60,13404,,,,,,,,,,,,,,,,,,,,,,,,,,,,,,,,,,,,,0,85,85,66,1,,,,,,,,,,,,,,,,,,,,,,,,
,,,,,,,,,,,,a,1.092855,Incorrect,,,,,,t4.png,t2.png,2,0.059078,24,female,2020-08-26_11h10.47.139,torte-2b,2020.1.3,MacIntel,60,13404,,,,,,,,,,,,,,,,,,,,,,,,,,,,,,,,,,,,,0,86,86,86,1,,,,,,,,,,,,,,,,,,,,,,,,
,,,,,,,,,,,,l,0.54514,Correct!,,,,,,t1.png,t4.png,3,0.0000131,24,female,2020-08-26_11h10.47.139,torte-2b,2020.1.3,MacIntel,60,13404,,,,,,,,,,,,,,,,,,,,,,,,,,,,,,,,,,,,,0,87,87,50,1,,,,,,,,,,,,,,,,,,,,,,,,
,,,,,,,,,,,,l,0.45898,Correct!,,,,,,t1.png,t2.png,1,0.90025,24,female,2020-08-26_11h10.47.139,torte-2b,2020.1.3,MacIntel,60,13404,,,,,,,,,,,,,,,,,,,,,,,,,,,,,,,,,,,,,0,88,88,33,1,,,,,,,,,,,,,,,,,,,,,,,,
,,,,,,,,,,,,l,0.601385,Correct!,,,,,,t1.png,t3.png,2,0.056466,24,female,2020-08-26_11h10.47.139,torte-2b,2020.1.3,MacIntel,60,13404,,,,,,,,,,,,,,,,,,,,,,,,,,,,,,,,,,,,,0,89,89,60,1,,,,,,,,,,,,,,,,,,,,,,,,
,,,,,,,,,,,,a,0.66788,Correct!,,,,,,t2.png,t1.png,1,0.9,24,female,2020-08-26_11h10.47.139,torte-2b,2020.1.3,MacIntel,60,13404,,,,,,,,,,,,,,,,,,,,,,,,,,,,,,,,,,,,,0,90,90,118,1,,,,,,,,,,,,,,,,,,,,,,,,
,,,,,,,,,,,,a,0.66678,Incorrect,,,,,,t4.png,t3.png,1,0.909,24,female,2020-08-26_11h10.47.139,torte-2b,2020.1.3,MacIntel,60,13404,,,,,,,,,,,,,,,,,,,,,,,,,,,,,,,,,,,,,0,91,91,46,1,,,,,,,,,,,,,,,,,,,,,,,,
,,,,,,,,,,,,a,0.65825,Correct!,,,,,,t3.png,t2.png,1,0.90855,24,female,2020-08-26_11h10.47.139,torte-2b,2020.1.3,MacIntel,60,13404,,,,,,,,,,,,,,,,,,,,,,,,,,,,,,,,,,,,,0,92,92,53,1,,,,,,,,,,,,,,,,,,,,,,,,
,,,,,,,,,,,,l,0.532235,Incorrect,,,,,,t1.png,t2.png,1,0.90025,24,female,2020-08-26_11h10.47.139,torte-2b,2020.1.3,MacIntel,60,13404,,,,,,,,,,,,,,,,,,,,,,,,,,,,,,,,,,,,,0,93,93,112,1,,,,,,,,,,,,,,,,,,,,,,,,
,,,,,,,,,,,,l,0.769255,Incorrect,,,,,,t1.png,t1.png,0,0.978,24,female,2020-08-26_11h10.47.139,torte-2b,2020.1.3,MacIntel,60,13404,,,,,,,,,,,,,,,,,,,,,,,,,,,,,,,,,,,,,0,94,94,28,1,,,,,,,,,,,,,,,,,,,,,,,,
,,,,,,,,,,,,l,0.858,Incorrect,,,,,,t4.png,t5.png,1,0.9,24,female,2020-08-26_11h10.47.139,torte-2b,2020.1.3,MacIntel,60,13404,,,,,,,,,,,,,,,,,,,,,,,,,,,,,,,,,,,,,0,95,95,115,1,,,,,,,,,,,,,,,,,,,,,,,,
,,,,,,,,,,,,l,0.53356,Correct!,,,,,,t2.png,t5.png,3,0.0000131,24,female,2020-08-26_11h10.47.139,torte-2b,2020.1.3,MacIntel,60,13404,,,,,,,,,,,,,,,,,,,,,,,,,,,,,,,,,,,,,0,96,96,8,1,,,,,,,,,,,,,,,,,,,,,,,,
,,,,,,,,,,,,a,0.458925,Incorrect,,,,,,t5.png,t1.png,4,9.55E-11,24,female,2020-08-26_11h10.47.139,torte-2b,2020.1.3,MacIntel,60,13404,,,,,,,,,,,,,,,,,,,,,,,,,,,,,,,,,,,,,0,97,97,71,1,,,,,,,,,,,,,,,,,,,,,,,,
,,,,,,,,,,,,l,0.533715,Correct!,,,,,,t1.png,t5.png,4,9.55E-11,24,female,2020-08-26_11h10.47.139,torte-2b,2020.1.3,MacIntel,60,13404,,,,,,,,,,,,,,,,,,,,,,,,,,,,,,,,,,,,,0,98,98,16,1,,,,,,,,,,,,,,,,,,,,,,,,
,,,,,,,,,,,,a,0.807715,Incorrect,,,,,,t3.png,t1.png,2,0.056466,24,female,2020-08-26_11h10.47.139,torte-2b,2020.1.3,MacIntel,60,13404,,,,,,,,,,,,,,,,,,,,,,,,,,,,,,,,,,,,,0,99,99,29,1,,,,,,,,,,,,,,,,,,,,,,,,
,,,,,,,,,,,,a,0.57109,Incorrect,,,,,,t5.png,t1.png,4,9.55E-11,24,female,2020-08-26_11h10.47.139,torte-2b,2020.1.3,MacIntel,60,13404,,,,,,,,,,,,,,,,,,,,,,,,,,,,,,,,,,,,,0,100,100,22,1,,,,,,,,,,,,,,,,,,,,,,,,
,,,,,,,,,,,,a,0.623985,Incorrect,,,,,,t3.png,t1.png,2,0.056466,24,female,2020-08-26_11h10.47.139,torte-2b,2020.1.3,MacIntel,60,13404,,,,,,,,,,,,,,,,,,,,,,,,,,,,,,,,,,,,,0,101,101,32,1,,,,,,,,,,,,,,,,,,,,,,,,
,,,,,,,,,,,,a,0.624445,Incorrect,,,,,,t5.png,t3.png,2,0.056466,24,female,2020-08-26_11h10.47.139,torte-2b,2020.1.3,MacIntel,60,13404,,,,,,,,,,,,,,,,,,,,,,,,,,,,,,,,,,,,,0,102,102,56,1,,,,,,,,,,,,,,,,,,,,,,,,
,,,,,,,,,,,,l,0.533965,Incorrect,,,,,,t2.png,t2.png,0,0.98115,24,female,2020-08-26_11h10.47.139,torte-2b,2020.1.3,MacIntel,60,13404,,,,,,,,,,,,,,,,,,,,,,,,,,,,,,,,,,,,,0,103,103,57,1,,,,,,,,,,,,,,,,,,,,,,,,
,,,,,,,,,,,,l,0.4887,Correct!,,,,,,t2.png,t5.png,3,0.0000131,24,female,2020-08-26_11h10.47.139,torte-2b,2020.1.3,MacIntel,60,13404,,,,,,,,,,,,,,,,,,,,,,,,,,,,,,,,,,,,,0,104,104,104,1,,,,,,,,,,,,,,,,,,,,,,,,
,,,,,,,,,,,,a,0.450135,Correct!,,,,,,t4.png,t3.png,1,0.90855,24,female,2020-08-26_11h10.47.139,torte-2b,2020.1.3,MacIntel,60,13404,,,,,,,,,,,,,,,,,,,,,,,,,,,,,,,,,,,,,0,105,105,45,1,,,,,,,,,,,,,,,,,,,,,,,,
,,,,,,,,,,,,a,0.8072,Correct!,,,,,,t3.png,t2.png,1,0.90855,24,female,2020-08-26_11h10.47.139,torte-2b,2020.1.3,MacIntel,60,13404,,,,,,,,,,,,,,,,,,,,,,,,,,,,,,,,,,,,,0,106,106,97,1,,,,,,,,,,,,,,,,,,,,,,,,
,,,,,,,,,,,,l,0.56849,Incorrect,,,,,,t5.png,t5.png,0,0.97829,24,female,2020-08-26_11h10.47.139,torte-2b,2020.1.3,MacIntel,60,13404,,,,,,,,,,,,,,,,,,,,,,,,,,,,,,,,,,,,,0,107,107,73,1,,,,,,,,,,,,,,,,,,,,,,,,
,,,,,,,,,,,,l,0.49995,Incorrect,,,,,,t4.png,t4.png,0,0.98115,24,female,2020-08-26_11h10.47.139,torte-2b,2020.1.3,MacIntel,60,13404,,,,,,,,,,,,,,,,,,,,,,,,,,,,,,,,,,,,,0,108,108,52,1,,,,,,,,,,,,,,,,,,,,,,,,
,,,,,,,,,,,,l,0.680185,Incorrect,,,,,,t4.png,t5.png,1,0.90025,24,female,2020-08-26_11h10.47.139,torte-2b,2020.1.3,MacIntel,60,13404,,,,,,,,,,,,,,,,,,,,,,,,,,,,,,,,,,,,,0,109,109,103,1,,,,,,,,,,,,,,,,,,,,,,,,
,,,,,,,,,,,,a,0.702235,Correct!,,,,,,t4.png,t3.png,1,0.90855,24,female,2020-08-26_11h10.47.139,torte-2b,2020.1.3,MacIntel,60,13404,,,,,,,,,,,,,,,,,,,,,,,,,,,,,,,,,,,,,0,110,110,75,1,,,,,,,,,,,,,,,,,,,,,,,,
,,,,,,,,,,,,l,0.47802,Incorrect,,,,,,t2.png,t2.png,0,0.981,24,female,2020-08-26_11h10.47.139,torte-2b,2020.1.3,MacIntel,60,13404,,,,,,,,,,,,,,,,,,,,,,,,,,,,,,,,,,,,,0,111,111,101,1,,,,,,,,,,,,,,,,,,,,,,,,
,,,,,,,,,,,,a,1.02675,Correct!,,,,,,t2.png,t1.png,1,0.90025,24,female,2020-08-26_11h10.47.139,torte-2b,2020.1.3,MacIntel,60,13404,,,,,,,,,,,,,,,,,,,,,,,,,,,,,,,,,,,,,0,112,112,62,1,,,,,,,,,,,,,,,,,,,,,,,,
,,,,,,,,,,,,l,0.49177,Incorrect,,,,,,t2.png,t3.png,1,0.90855,24,female,2020-08-26_11h10.47.139,torte-2b,2020.1.3,MacIntel,60,13404,,,,,,,,,,,,,,,,,,,,,,,,,,,,,,,,,,,,,0,113,113,68,1,,,,,,,,,,,,,,,,,,,,,,,,
,,,,,,,,,,,,l,0.425195,Incorrect,,,,,,t5.png,t4.png,1,0.90025,24,female,2020-08-26_11h10.47.139,torte-2b,2020.1.3,MacIntel,60,13404,,,,,,,,,,,,,,,,,,,,,,,,,,,,,,,,,,,,,0,114,114,27,1,,,,,,,,,,,,,,,,,,,,,,,,
,,,,,,,,,,,,l,0.57079,Incorrect,,,,,,t1.png,t1.png,0,0.97829,24,female,2020-08-26_11h10.47.139,torte-2b,2020.1.3,MacIntel,60,13404,,,,,,,,,,,,,,,,,,,,,,,,,,,,,,,,,,,,,0,115,115,9,1,,,,,,,,,,,,,,,,,,,,,,,,
,,,,,,,,,,,,a,0.65807,Incorrect,,,,,,t3.png,t1.png,2,0.056466,24,female,2020-08-26_11h10.47.139,torte-2b,2020.1.3,MacIntel,60,13404,,,,,,,,,,,,,,,,,,,,,,,,,,,,,,,,,,,,,0,116,116,64,1,,,,,,,,,,,,,,,,,,,,,,,,
,,,,,,,,,,,,l,0.27517,Correct!,,,,,,t1.png,t5.png,4,9.55E-11,24,female,2020-08-26_11h10.47.139,torte-2b,2020.1.3,MacIntel,60,13404,,,,,,,,,,,,,,,,,,,,,,,,,,,,,,,,,,,,,0,117,117,12,1,,,,,,,,,,,,,,,,,,,,,,,,
,,,,,,,,,,,,l,0.4924,Correct!,,,,,,t2.png,t4.png,2,0.059078,24,female,2020-08-26_11h10.47.139,torte-2b,2020.1.3,MacIntel,60,13404,,,,,,,,,,,,,,,,,,,,,,,,,,,,,,,,,,,,,0,118,118,77,1,,,,,,,,,,,,,,,,,,,,,,,,
