key_resp_8.keys,key_resp_8.rt,key_resp_9.keys,key_resp_9.rt,key_resp_10.keys,key_resp_10.rt,key_resp_11.keys,key_resp_11.rt,key_resp_2.keys,key_resp_2.rt,key_resp_3.keys,key_resp_3.rt,key_resp.keys,Feedback,train.thisRepN,train.thisTrialN,train.thisN,train.thisIndex,train.ran,torta_sx,torta_dx,difference,probability,age,gender,date,expName,psychopyVersion,OS,frameRate,participant,key_resp.rt,key_resp_15.keys,key_resp_15.rt,key_resp_6.keys,key_resp_6.rt,test1.thisRepN,test1.thisTrialN,test1.thisN,test1.thisIndex,test1.ran,key_resp_4.keys,key_resp_4.rt,key_resp_5.keys,back1.thisRepN,back1.thisTrialN,back1.thisN,back1.thisIndex,back1.ran,letter,key_resp_5.rt,back2.thisRepN,back2.thisTrialN,back2.thisN,back2.thisIndex,back2.ran,back3.thisRepN,back3.thisTrialN,back3.thisN,back3.thisIndex,back3.ran,back4.thisRepN,back4.thisTrialN,back4.thisN,back4.thisIndex,back4.ran,key_resp_7.keys,key_resp_7.rt,test2.thisRepN,test2.thisTrialN,test2.thisN,test2.thisIndex,test2.ran,mouse.x,mouse.y,mouse.leftButton,mouse.midButton,mouse.rightButton,mouse.clicked_name,mouse_2.x,mouse_2.y,mouse_2.leftButton,mouse_2.midButton,mouse_2.rightButton,mouse_2.clicked_name,mouse_3.x,mouse_3.y,mouse_3.leftButton,mouse_3.midButton,mouse_3.rightButton,mouse_3.clicked_name,key_resp_12.keys,key_resp_12.rt,key_resp_13.keys,key_resp_13.rt,key_resp_14.keys,key_resp_14.rt
space,105.40223,space,40.43944,space,1.182355,space,4.79359,space,64.81963,return,175.472425,,Too slow :(,0,0,0,115,1,t2.png,t4.png,2,0.059078,21,female,2020-08-12_16h14.27.485,torte-2b,2020.1.3,Win32,60,13412,,,,,,,,,,,,,,,,,,,,,,,,,,,,,,,,,,,,,,,,,,,,,,,,,,,,,,,,,,,,,,,,,,
,,,,,,,,,,,,l,Correct!,0,1,1,81,1,t3.png,t1.png,2,0.056466,21,female,2020-08-12_16h14.27.485,torte-2b,2020.1.3,Win32,60,13412,1.46506,,,,,,,,,,,,,,,,,,,,,,,,,,,,,,,,,,,,,,,,,,,,,,,,,,,,,,,,,,,,,,,,,
,,,,,,,,,,,,a,Correct!,0,2,2,100,1,t3.png,t2.png,1,0.90855,21,female,2020-08-12_16h14.27.485,torte-2b,2020.1.3,Win32,60,13412,1.38496,,,,,,,,,,,,,,,,,,,,,,,,,,,,,,,,,,,,,,,,,,,,,,,,,,,,,,,,,,,,,,,,,
,,,,,,,,,,,,a,Correct!,0,3,3,46,1,t1.png,t1.png,0,0.97829,21,female,2020-08-12_16h14.27.485,torte-2b,2020.1.3,Win32,60,13412,2.23244,,,,,,,,,,,,,,,,,,,,,,,,,,,,,,,,,,,,,,,,,,,,,,,,,,,,,,,,,,,,,,,,,
,,,,,,,,,,,,l,Incorrect,0,4,4,48,1,t2.png,t3.png,1,0.90855,21,female,2020-08-12_16h14.27.485,torte-2b,2020.1.3,Win32,60,13412,1.506465,,,,,,,,,,,,,,,,,,,,,,,,,,,,,,,,,,,,,,,,,,,,,,,,,,,,,,,,,,,,,,,,,
,,,,,,,,,,,,,Too slow :(,0,5,5,89,1,t1.png,t5.png,4,9.55E-11,21,female,2020-08-12_16h14.27.485,torte-2b,2020.1.3,Win32,60,13412,,,,,,,,,,,,,,,,,,,,,,,,,,,,,,,,,,,,,,,,,,,,,,,,,,,,,,,,,,,,,,,,,,
,,,,,,,,,,,,l,Correct!,0,6,6,70,1,t1.png,t5.png,4,9.55E-11,21,female,2020-08-12_16h14.27.485,torte-2b,2020.1.3,Win32,60,13412,1.554785,,,,,,,,,,,,,,,,,,,,,,,,,,,,,,,,,,,,,,,,,,,,,,,,,,,,,,,,,,,,,,,,,
,,,,,,,,,,,,l,Correct!,0,7,7,98,1,t5.png,t1.png,4,9.55E-11,21,female,2020-08-12_16h14.27.485,torte-2b,2020.1.3,Win32,60,13412,2.244125,,,,,,,,,,,,,,,,,,,,,,,,,,,,,,,,,,,,,,,,,,,,,,,,,,,,,,,,,,,,,,,,,
,,,,,,,,,,,,a,Correct!,0,8,8,4,1,t3.png,t2.png,1,0.90855,21,female,2020-08-12_16h14.27.485,torte-2b,2020.1.3,Win32,60,13412,1.743035,,,,,,,,,,,,,,,,,,,,,,,,,,,,,,,,,,,,,,,,,,,,,,,,,,,,,,,,,,,,,,,,,
,,,,,,,,,,,,l,Correct!,0,9,9,74,1,t5.png,t1.png,4,9.55E-11,21,female,2020-08-12_16h14.27.485,torte-2b,2020.1.3,Win32,60,13412,0.965385,,,,,,,,,,,,,,,,,,,,,,,,,,,,,,,,,,,,,,,,,,,,,,,,,,,,,,,,,,,,,,,,,
,,,,,,,,,,,,l,Incorrect,0,10,10,110,1,t4.png,t5.png,1,0.90025,21,female,2020-08-12_16h14.27.485,torte-2b,2020.1.3,Win32,60,13412,1.80015,,,,,,,,,,,,,,,,,,,,,,,,,,,,,,,,,,,,,,,,,,,,,,,,,,,,,,,,,,,,,,,,,
,,,,,,,,,,,,a,Correct!,0,11,11,23,1,t4.png,t5.png,1,0.90025,21,female,2020-08-12_16h14.27.485,torte-2b,2020.1.3,Win32,60,13412,2.16024,,,,,,,,,,,,,,,,,,,,,,,,,,,,,,,,,,,,,,,,,,,,,,,,,,,,,,,,,,,,,,,,,
,,,,,,,,,,,,a,Correct!,0,12,12,83,1,t3.png,t2.png,1,0.90855,21,female,2020-08-12_16h14.27.485,torte-2b,2020.1.3,Win32,60,13412,1.559225,,,,,,,,,,,,,,,,,,,,,,,,,,,,,,,,,,,,,,,,,,,,,,,,,,,,,,,,,,,,,,,,,
,,,,,,,,,,,,l,Correct!,0,13,13,34,1,t1.png,t5.png,4,9.55E-11,21,female,2020-08-12_16h14.27.485,torte-2b,2020.1.3,Win32,60,13412,0.80013,,,,,,,,,,,,,,,,,,,,,,,,,,,,,,,,,,,,,,,,,,,,,,,,,,,,,,,,,,,,,,,,,
,,,,,,,,,,,,l,Correct!,0,14,14,96,1,t2.png,t4.png,2,0.059078,21,female,2020-08-12_16h14.27.485,torte-2b,2020.1.3,Win32,60,13412,0.807945,,,,,,,,,,,,,,,,,,,,,,,,,,,,,,,,,,,,,,,,,,,,,,,,,,,,,,,,,,,,,,,,,
,,,,,,,,,,,,l,Correct!,0,15,15,64,1,t5.png,t1.png,4,9.55E-11,21,female,2020-08-12_16h14.27.485,torte-2b,2020.1.3,Win32,60,13412,0.99224,,,,,,,,,,,,,,,,,,,,,,,,,,,,,,,,,,,,,,,,,,,,,,,,,,,,,,,,,,,,,,,,,
,,,,,,,,,,,,l,Correct!,0,16,16,79,1,t1.png,t4.png,3,0.0000131,21,female,2020-08-12_16h14.27.485,torte-2b,2020.1.3,Win32,60,13412,1.885415,,,,,,,,,,,,,,,,,,,,,,,,,,,,,,,,,,,,,,,,,,,,,,,,,,,,,,,,,,,,,,,,,
,,,,,,,,,,,,a,Correct!,0,17,17,12,1,t5.png,t5.png,0,0.97829,21,female,2020-08-12_16h14.27.485,torte-2b,2020.1.3,Win32,60,13412,0.615785,,,,,,,,,,,,,,,,,,,,,,,,,,,,,,,,,,,,,,,,,,,,,,,,,,,,,,,,,,,,,,,,,
,,,,,,,,,,,,l,Incorrect,0,18,18,60,1,t4.png,t5.png,1,0.90025,21,female,2020-08-12_16h14.27.485,torte-2b,2020.1.3,Win32,60,13412,0.72473,,,,,,,,,,,,,,,,,,,,,,,,,,,,,,,,,,,,,,,,,,,,,,,,,,,,,,,,,,,,,,,,,
,,,,,,,,,,,,a,Incorrect,0,19,19,108,1,t3.png,t1.png,2,0.056466,21,female,2020-08-12_16h14.27.485,torte-2b,2020.1.3,Win32,60,13412,1.577035,,,,,,,,,,,,,,,,,,,,,,,,,,,,,,,,,,,,,,,,,,,,,,,,,,,,,,,,,,,,,,,,,
,,,,,,,,,,,,,Too slow :(,0,20,20,106,1,t4.png,t1.png,3,0.059078,21,female,2020-08-12_16h14.27.485,torte-2b,2020.1.3,Win32,60,13412,,,,,,,,,,,,,,,,,,,,,,,,,,,,,,,,,,,,,,,,,,,,,,,,,,,,,,,,,,,,,,,,,,
,,,,,,,,,,,,a,Correct!,0,21,21,112,1,t5.png,t4.png,1,0.90025,21,female,2020-08-12_16h14.27.485,torte-2b,2020.1.3,Win32,60,13412,1.850855,,,,,,,,,,,,,,,,,,,,,,,,,,,,,,,,,,,,,,,,,,,,,,,,,,,,,,,,,,,,,,,,,
,,,,,,,,,,,,l,Incorrect,0,22,22,88,1,t1.png,t1.png,0,0.97829,21,female,2020-08-12_16h14.27.485,torte-2b,2020.1.3,Win32,60,13412,1.98403,,,,,,,,,,,,,,,,,,,,,,,,,,,,,,,,,,,,,,,,,,,,,,,,,,,,,,,,,,,,,,,,,
,,,,,,,,,,,,a,Correct!,0,23,23,0,1,t3.png,t2.png,1,0.90855,21,female,2020-08-12_16h14.27.485,torte-2b,2020.1.3,Win32,60,13412,1.223335,,,,,,,,,,,,,,,,,,,,,,,,,,,,,,,,,,,,,,,,,,,,,,,,,,,,,,,,,,,,,,,,,
,,,,,,,,,,,,a,Correct!,0,24,24,111,1,t1.png,t1.png,0,0.97829,21,female,2020-08-12_16h14.27.485,torte-2b,2020.1.3,Win32,60,13412,1.15909,,,,,,,,,,,,,,,,,,,,,,,,,,,,,,,,,,,,,,,,,,,,,,,,,,,,,,,,,,,,,,,,,
,,,,,,,,,,,,l,Correct!,0,25,25,107,1,t1.png,t4.png,3,0.0000131,21,female,2020-08-12_16h14.27.485,torte-2b,2020.1.3,Win32,60,13412,0.98213,,,,,,,,,,,,,,,,,,,,,,,,,,,,,,,,,,,,,,,,,,,,,,,,,,,,,,,,,,,,,,,,,
,,,,,,,,,,,,a,Correct!,0,26,26,93,1,t5.png,t4.png,1,0.90025,21,female,2020-08-12_16h14.27.485,torte-2b,2020.1.3,Win32,60,13412,1.68796,,,,,,,,,,,,,,,,,,,,,,,,,,,,,,,,,,,,,,,,,,,,,,,,,,,,,,,,,,,,,,,,,
,,,,,,,,,,,,,Too slow :(,0,27,27,40,1,t2.png,t4.png,2,0.059078,21,female,2020-08-12_16h14.27.485,torte-2b,2020.1.3,Win32,60,13412,,,,,,,,,,,,,,,,,,,,,,,,,,,,,,,,,,,,,,,,,,,,,,,,,,,,,,,,,,,,,,,,,,
,,,,,,,,,,,,l,Correct!,0,28,28,2,1,t3.png,t1.png,2,0.056466,21,female,2020-08-12_16h14.27.485,torte-2b,2020.1.3,Win32,60,13412,2.18652,,,,,,,,,,,,,,,,,,,,,,,,,,,,,,,,,,,,,,,,,,,,,,,,,,,,,,,,,,,,,,,,,
,,,,,,,,,,,,l,Incorrect,0,29,29,116,1,t4.png,t5.png,1,0.90025,21,female,2020-08-12_16h14.27.485,torte-2b,2020.1.3,Win32,60,13412,1.91297,,,,,,,,,,,,,,,,,,,,,,,,,,,,,,,,,,,,,,,,,,,,,,,,,,,,,,,,,,,,,,,,,
,,,,,,,,,,,,a,Correct!,0,30,30,77,1,t3.png,t2.png,1,0.90855,21,female,2020-08-12_16h14.27.485,torte-2b,2020.1.3,Win32,60,13412,1.83163,,,,,,,,,,,,,,,,,,,,,,,,,,,,,,,,,,,,,,,,,,,,,,,,,,,,,,,,,,,,,,,,,
,,,,,,,,,,,,a,Correct!,0,31,31,52,1,t2.png,t3.png,1,0.90855,21,female,2020-08-12_16h14.27.485,torte-2b,2020.1.3,Win32,60,13412,1.201985,,,,,,,,,,,,,,,,,,,,,,,,,,,,,,,,,,,,,,,,,,,,,,,,,,,,,,,,,,,,,,,,,
,,,,,,,,,,,,a,Correct!,0,32,32,38,1,t1.png,t1.png,0,0.97829,21,female,2020-08-12_16h14.27.485,torte-2b,2020.1.3,Win32,60,13412,1.098615,,,,,,,,,,,,,,,,,,,,,,,,,,,,,,,,,,,,,,,,,,,,,,,,,,,,,,,,,,,,,,,,,
,,,,,,,,,,,,a,Incorrect,0,33,33,91,1,t5.png,t4.png,1,0.90025,21,female,2020-08-12_16h14.27.485,torte-2b,2020.1.3,Win32,60,13412,1.398535,,,,,,,,,,,,,,,,,,,,,,,,,,,,,,,,,,,,,,,,,,,,,,,,,,,,,,,,,,,,,,,,,
,,,,,,,,,,,,a,Correct!,0,34,34,21,1,t5.png,t4.png,1,0.90025,21,female,2020-08-12_16h14.27.485,torte-2b,2020.1.3,Win32,60,13412,1.755295,,,,,,,,,,,,,,,,,,,,,,,,,,,,,,,,,,,,,,,,,,,,,,,,,,,,,,,,,,,,,,,,,
,,,,,,,,,,,,l,Correct!,0,35,35,10,1,t4.png,t1.png,3,0.059078,21,female,2020-08-12_16h14.27.485,torte-2b,2020.1.3,Win32,60,13412,0.923335,,,,,,,,,,,,,,,,,,,,,,,,,,,,,,,,,,,,,,,,,,,,,,,,,,,,,,,,,,,,,,,,,
,,,,,,,,,,,,l,Correct!,0,36,36,27,1,t1.png,t5.png,4,9.55E-11,21,female,2020-08-12_16h14.27.485,torte-2b,2020.1.3,Win32,60,13412,0.80741,,,,,,,,,,,,,,,,,,,,,,,,,,,,,,,,,,,,,,,,,,,,,,,,,,,,,,,,,,,,,,,,,
,,,,,,,,,,,,a,Correct!,0,37,37,72,1,t5.png,t5.png,0,0.97829,21,female,2020-08-12_16h14.27.485,torte-2b,2020.1.3,Win32,60,13412,1.511685,,,,,,,,,,,,,,,,,,,,,,,,,,,,,,,,,,,,,,,,,,,,,,,,,,,,,,,,,,,,,,,,,
,,,,,,,,,,,,a,Correct!,0,38,38,71,1,t4.png,t5.png,1,0.90025,21,female,2020-08-12_16h14.27.485,torte-2b,2020.1.3,Win32,60,13412,0.953585,,,,,,,,,,,,,,,,,,,,,,,,,,,,,,,,,,,,,,,,,,,,,,,,,,,,,,,,,,,,,,,,,
,,,,,,,,,,,,l,Correct!,0,39,39,17,1,t4.png,t1.png,3,0.059078,21,female,2020-08-12_16h14.27.485,torte-2b,2020.1.3,Win32,60,13412,0.866535,,,,,,,,,,,,,,,,,,,,,,,,,,,,,,,,,,,,,,,,,,,,,,,,,,,,,,,,,,,,,,,,,
,,,,,,,,,,,,a,Correct!,0,40,40,29,1,t3.png,t2.png,1,0.90855,21,female,2020-08-12_16h14.27.485,torte-2b,2020.1.3,Win32,60,13412,1.998535,,,,,,,,,,,,,,,,,,,,,,,,,,,,,,,,,,,,,,,,,,,,,,,,,,,,,,,,,,,,,,,,,
,,,,,,,,,,,,l,Correct!,0,41,41,78,1,t1.png,t4.png,3,0.0000131,21,female,2020-08-12_16h14.27.485,torte-2b,2020.1.3,Win32,60,13412,0.807165,,,,,,,,,,,,,,,,,,,,,,,,,,,,,,,,,,,,,,,,,,,,,,,,,,,,,,,,,,,,,,,,,
,,,,,,,,,,,,l,Correct!,0,42,42,99,1,t4.png,t1.png,3,0.059078,21,female,2020-08-12_16h14.27.485,torte-2b,2020.1.3,Win32,60,13412,1.115515,,,,,,,,,,,,,,,,,,,,,,,,,,,,,,,,,,,,,,,,,,,,,,,,,,,,,,,,,,,,,,,,,
,,,,,,,,,,,,a,Correct!,0,43,43,8,1,t5.png,t5.png,0,0.97829,21,female,2020-08-12_16h14.27.485,torte-2b,2020.1.3,Win32,60,13412,1.46614,,,,,,,,,,,,,,,,,,,,,,,,,,,,,,,,,,,,,,,,,,,,,,,,,,,,,,,,,,,,,,,,,
,,,,,,,,,,,,a,Correct!,0,44,44,65,1,t5.png,t5.png,0,0.97829,21,female,2020-08-12_16h14.27.485,torte-2b,2020.1.3,Win32,60,13412,0.716765,,,,,,,,,,,,,,,,,,,,,,,,,,,,,,,,,,,,,,,,,,,,,,,,,,,,,,,,,,,,,,,,,
,,,,,,,,,,,,a,Correct!,0,45,45,31,1,t1.png,t1.png,0,0.97829,21,female,2020-08-12_16h14.27.485,torte-2b,2020.1.3,Win32,60,13412,1.126285,,,,,,,,,,,,,,,,,,,,,,,,,,,,,,,,,,,,,,,,,,,,,,,,,,,,,,,,,,,,,,,,,
,,,,,,,,,,,,a,Correct!,0,46,46,30,1,t2.png,t3.png,1,0.90855,21,female,2020-08-12_16h14.27.485,torte-2b,2020.1.3,Win32,60,13412,0.96008,,,,,,,,,,,,,,,,,,,,,,,,,,,,,,,,,,,,,,,,,,,,,,,,,,,,,,,,,,,,,,,,,
,,,,,,,,,,,,a,Correct!,0,47,47,61,1,t1.png,t1.png,0,0.97829,21,female,2020-08-12_16h14.27.485,torte-2b,2020.1.3,Win32,60,13412,0.622235,,,,,,,,,,,,,,,,,,,,,,,,,,,,,,,,,,,,,,,,,,,,,,,,,,,,,,,,,,,,,,,,,
,,,,,,,,,,,,a,Incorrect,0,48,48,58,1,t4.png,t5.png,1,0.90025,21,female,2020-08-12_16h14.27.485,torte-2b,2020.1.3,Win32,60,13412,1.009005,,,,,,,,,,,,,,,,,,,,,,,,,,,,,,,,,,,,,,,,,,,,,,,,,,,,,,,,,,,,,,,,,
,,,,,,,,,,,,l,Correct!,0,49,49,80,1,t4.png,t1.png,3,0.059078,21,female,2020-08-12_16h14.27.485,torte-2b,2020.1.3,Win32,60,13412,0.84908,,,,,,,,,,,,,,,,,,,,,,,,,,,,,,,,,,,,,,,,,,,,,,,,,,,,,,,,,,,,,,,,,
,,,,,,,,,,,,a,Correct!,0,50,50,14,1,t2.png,t3.png,1,0.90855,21,female,2020-08-12_16h14.27.485,torte-2b,2020.1.3,Win32,60,13412,0.944355,,,,,,,,,,,,,,,,,,,,,,,,,,,,,,,,,,,,,,,,,,,,,,,,,,,,,,,,,,,,,,,,,
,,,,,,,,,,,,a,Correct!,0,51,51,22,1,t5.png,t5.png,0,0.97829,21,female,2020-08-12_16h14.27.485,torte-2b,2020.1.3,Win32,60,13412,0.973675,,,,,,,,,,,,,,,,,,,,,,,,,,,,,,,,,,,,,,,,,,,,,,,,,,,,,,,,,,,,,,,,,
,,,,,,,,,,,,l,Correct!,0,52,52,95,1,t1.png,t4.png,3,0.0000131,21,female,2020-08-12_16h14.27.485,torte-2b,2020.1.3,Win32,60,13412,0.63899,,,,,,,,,,,,,,,,,,,,,,,,,,,,,,,,,,,,,,,,,,,,,,,,,,,,,,,,,,,,,,,,,
,,,,,,,,,,,,l,Correct!,0,53,53,51,1,t4.png,t1.png,3,0.059078,21,female,2020-08-12_16h14.27.485,torte-2b,2020.1.3,Win32,60,13412,0.685025,,,,,,,,,,,,,,,,,,,,,,,,,,,,,,,,,,,,,,,,,,,,,,,,,,,,,,,,,,,,,,,,,
,,,,,,,,,,,,l,Correct!,0,54,54,9,1,t1.png,t5.png,4,9.55E-11,21,female,2020-08-12_16h14.27.485,torte-2b,2020.1.3,Win32,60,13412,0.63174,,,,,,,,,,,,,,,,,,,,,,,,,,,,,,,,,,,,,,,,,,,,,,,,,,,,,,,,,,,,,,,,,
,,,,,,,,,,,,l,Correct!,0,55,55,37,1,t2.png,t4.png,2,0.059078,21,female,2020-08-12_16h14.27.485,torte-2b,2020.1.3,Win32,60,13412,0.81848,,,,,,,,,,,,,,,,,,,,,,,,,,,,,,,,,,,,,,,,,,,,,,,,,,,,,,,,,,,,,,,,,
,,,,,,,,,,,,a,Correct!,0,56,56,67,1,t3.png,t2.png,1,0.90855,21,female,2020-08-12_16h14.27.485,torte-2b,2020.1.3,Win32,60,13412,0.93222,,,,,,,,,,,,,,,,,,,,,,,,,,,,,,,,,,,,,,,,,,,,,,,,,,,,,,,,,,,,,,,,,
,,,,,,,,,,,,l,Correct!,0,57,57,43,1,t3.png,t1.png,2,0.056466,21,female,2020-08-12_16h14.27.485,torte-2b,2020.1.3,Win32,60,13412,0.850785,,,,,,,,,,,,,,,,,,,,,,,,,,,,,,,,,,,,,,,,,,,,,,,,,,,,,,,,,,,,,,,,,
,,,,,,,,,,,,l,Correct!,0,58,58,28,1,t1.png,t4.png,3,0.0000131,21,female,2020-08-12_16h14.27.485,torte-2b,2020.1.3,Win32,60,13412,1.800415,,,,,,,,,,,,,,,,,,,,,,,,,,,,,,,,,,,,,,,,,,,,,,,,,,,,,,,,,,,,,,,,,
,,,,,,,,,,,,l,Incorrect,0,59,59,75,1,t2.png,t3.png,1,0.90855,21,female,2020-08-12_16h14.27.485,torte-2b,2020.1.3,Win32,60,13412,1.30226,,,,,,,,,,,,,,,,,,,,,,,,,,,,,,,,,,,,,,,,,,,,,,,,,,,,,,,,,,,,,,,,,
,,,,,,,,,,,,l,Correct!,0,60,60,11,1,t1.png,t4.png,3,0.0000131,21,female,2020-08-12_16h14.27.485,torte-2b,2020.1.3,Win32,60,13412,0.94074,,,,,,,,,,,,,,,,,,,,,,,,,,,,,,,,,,,,,,,,,,,,,,,,,,,,,,,,,,,,,,,,,
,,,,,,,,,,,,a,Correct!,0,61,61,47,1,t2.png,t3.png,1,0.90855,21,female,2020-08-12_16h14.27.485,torte-2b,2020.1.3,Win32,60,13412,1.083245,,,,,,,,,,,,,,,,,,,,,,,,,,,,,,,,,,,,,,,,,,,,,,,,,,,,,,,,,,,,,,,,,
,,,,,,,,,,,,l,Correct!,0,62,62,35,1,t1.png,t4.png,3,0.0000131,21,female,2020-08-12_16h14.27.485,torte-2b,2020.1.3,Win32,60,13412,1.059975,,,,,,,,,,,,,,,,,,,,,,,,,,,,,,,,,,,,,,,,,,,,,,,,,,,,,,,,,,,,,,,,,
,,,,,,,,,,,,l,Correct!,0,63,63,68,1,t2.png,t4.png,2,0.059078,21,female,2020-08-12_16h14.27.485,torte-2b,2020.1.3,Win32,60,13412,1.98745,,,,,,,,,,,,,,,,,,,,,,,,,,,,,,,,,,,,,,,,,,,,,,,,,,,,,,,,,,,,,,,,,
,,,,,,,,,,,,a,Correct!,0,64,64,42,1,t5.png,t5.png,0,0.97829,21,female,2020-08-12_16h14.27.485,torte-2b,2020.1.3,Win32,60,13412,1.074295,,,,,,,,,,,,,,,,,,,,,,,,,,,,,,,,,,,,,,,,,,,,,,,,,,,,,,,,,,,,,,,,,
,,,,,,,,,,,,l,Correct!,0,65,65,87,1,t5.png,t1.png,4,9.55E-11,21,female,2020-08-12_16h14.27.485,torte-2b,2020.1.3,Win32,60,13412,1.28236,,,,,,,,,,,,,,,,,,,,,,,,,,,,,,,,,,,,,,,,,,,,,,,,,,,,,,,,,,,,,,,,,
,,,,,,,,,,,,l,Correct!,0,66,66,54,1,t3.png,t1.png,2,0.056466,21,female,2020-08-12_16h14.27.485,torte-2b,2020.1.3,Win32,60,13412,1.632065,,,,,,,,,,,,,,,,,,,,,,,,,,,,,,,,,,,,,,,,,,,,,,,,,,,,,,,,,,,,,,,,,
,,,,,,,,,,,,l,Correct!,0,67,67,82,1,t3.png,t1.png,2,0.056466,21,female,2020-08-12_16h14.27.485,torte-2b,2020.1.3,Win32,60,13412,1.751545,,,,,,,,,,,,,,,,,,,,,,,,,,,,,,,,,,,,,,,,,,,,,,,,,,,,,,,,,,,,,,,,,
,,,,,,,,,,,,a,Correct!,0,68,68,20,1,t5.png,t5.png,0,0.97829,21,female,2020-08-12_16h14.27.485,torte-2b,2020.1.3,Win32,60,13412,0.682205,,,,,,,,,,,,,,,,,,,,,,,,,,,,,,,,,,,,,,,,,,,,,,,,,,,,,,,,,,,,,,,,,
,,,,,,,,,,,,l,Correct!,0,69,69,66,1,t5.png,t1.png,4,9.55E-11,21,female,2020-08-12_16h14.27.485,torte-2b,2020.1.3,Win32,60,13412,0.681925,,,,,,,,,,,,,,,,,,,,,,,,,,,,,,,,,,,,,,,,,,,,,,,,,,,,,,,,,,,,,,,,,
,,,,,,,,,,,,l,Correct!,0,70,70,118,1,t1.png,t5.png,4,9.55E-11,21,female,2020-08-12_16h14.27.485,torte-2b,2020.1.3,Win32,60,13412,1.830765,,,,,,,,,,,,,,,,,,,,,,,,,,,,,,,,,,,,,,,,,,,,,,,,,,,,,,,,,,,,,,,,,
,,,,,,,,,,,,l,Correct!,0,71,71,1,1,t3.png,t1.png,2,0.056466,21,female,2020-08-12_16h14.27.485,torte-2b,2020.1.3,Win32,60,13412,1.198485,,,,,,,,,,,,,,,,,,,,,,,,,,,,,,,,,,,,,,,,,,,,,,,,,,,,,,,,,,,,,,,,,
,,,,,,,,,,,,a,Correct!,0,72,72,84,1,t2.png,t3.png,1,0.90855,21,female,2020-08-12_16h14.27.485,torte-2b,2020.1.3,Win32,60,13412,1.735685,,,,,,,,,,,,,,,,,,,,,,,,,,,,,,,,,,,,,,,,,,,,,,,,,,,,,,,,,,,,,,,,,
,,,,,,,,,,,,l,Correct!,0,73,73,44,1,t1.png,t4.png,3,0.0000131,21,female,2020-08-12_16h14.27.485,torte-2b,2020.1.3,Win32,60,13412,0.68737,,,,,,,,,,,,,,,,,,,,,,,,,,,,,,,,,,,,,,,,,,,,,,,,,,,,,,,,,,,,,,,,,
,,,,,,,,,,,,a,Correct!,0,74,74,104,1,t4.png,t5.png,1,0.90025,21,female,2020-08-12_16h14.27.485,torte-2b,2020.1.3,Win32,60,13412,0.91592,,,,,,,,,,,,,,,,,,,,,,,,,,,,,,,,,,,,,,,,,,,,,,,,,,,,,,,,,,,,,,,,,
,,,,,,,,,,,,l,Incorrect,0,75,75,56,1,t2.png,t3.png,1,0.90855,21,female,2020-08-12_16h14.27.485,torte-2b,2020.1.3,Win32,60,13412,1.52524,,,,,,,,,,,,,,,,,,,,,,,,,,,,,,,,,,,,,,,,,,,,,,,,,,,,,,,,,,,,,,,,,
,,,,,,,,,,,,l,Correct!,0,76,76,94,1,t3.png,t1.png,2,0.056466,21,female,2020-08-12_16h14.27.485,torte-2b,2020.1.3,Win32,60,13412,1.28205,,,,,,,,,,,,,,,,,,,,,,,,,,,,,,,,,,,,,,,,,,,,,,,,,,,,,,,,,,,,,,,,,
,,,,,,,,,,,,a,Incorrect,0,77,77,101,1,t5.png,t4.png,1,0.90025,21,female,2020-08-12_16h14.27.485,torte-2b,2020.1.3,Win32,60,13412,0.915135,,,,,,,,,,,,,,,,,,,,,,,,,,,,,,,,,,,,,,,,,,,,,,,,,,,,,,,,,,,,,,,,,
,,,,,,,,,,,,l,Correct!,0,78,78,13,1,t2.png,t4.png,2,0.059078,21,female,2020-08-12_16h14.27.485,torte-2b,2020.1.3,Win32,60,13412,1.172565,,,,,,,,,,,,,,,,,,,,,,,,,,,,,,,,,,,,,,,,,,,,,,,,,,,,,,,,,,,,,,,,,
,,,,,,,,,,,,a,Correct!,0,79,79,90,1,t4.png,t5.png,1,0.90025,21,female,2020-08-12_16h14.27.485,torte-2b,2020.1.3,Win32,60,13412,0.920095,,,,,,,,,,,,,,,,,,,,,,,,,,,,,,,,,,,,,,,,,,,,,,,,,,,,,,,,,,,,,,,,,
,,,,,,,,,,,,l,Correct!,0,80,80,63,1,t1.png,t5.png,4,9.55E-11,21,female,2020-08-12_16h14.27.485,torte-2b,2020.1.3,Win32,60,13412,0.89773,,,,,,,,,,,,,,,,,,,,,,,,,,,,,,,,,,,,,,,,,,,,,,,,,,,,,,,,,,,,,,,,,
,,,,,,,,,,,,l,Correct!,0,81,81,50,1,t1.png,t5.png,4,9.55E-11,21,female,2020-08-12_16h14.27.485,torte-2b,2020.1.3,Win32,60,13412,1.95771,,,,,,,,,,,,,,,,,,,,,,,,,,,,,,,,,,,,,,,,,,,,,,,,,,,,,,,,,,,,,,,,,
,,,,,,,,,,,,a,Correct!,0,82,82,55,1,t1.png,t1.png,0,0.97829,21,female,2020-08-12_16h14.27.485,torte-2b,2020.1.3,Win32,60,13412,1.203675,,,,,,,,,,,,,,,,,,,,,,,,,,,,,,,,,,,,,,,,,,,,,,,,,,,,,,,,,,,,,,,,,
,,,,,,,,,,,,l,Correct!,0,83,83,105,1,t4.png,t1.png,3,0.059078,21,female,2020-08-12_16h14.27.485,torte-2b,2020.1.3,Win32,60,13412,0.79893,,,,,,,,,,,,,,,,,,,,,,,,,,,,,,,,,,,,,,,,,,,,,,,,,,,,,,,,,,,,,,,,,
,,,,,,,,,,,,l,Correct!,0,84,84,103,1,t4.png,t1.png,3,0.059078,21,female,2020-08-12_16h14.27.485,torte-2b,2020.1.3,Win32,60,13412,1.368635,,,,,,,,,,,,,,,,,,,,,,,,,,,,,,,,,,,,,,,,,,,,,,,,,,,,,,,,,,,,,,,,,
,,,,,,,,,,,,l,Correct!,0,85,85,92,1,t5.png,t1.png,4,9.55E-11,21,female,2020-08-12_16h14.27.485,torte-2b,2020.1.3,Win32,60,13412,1.21621,,,,,,,,,,,,,,,,,,,,,,,,,,,,,,,,,,,,,,,,,,,,,,,,,,,,,,,,,,,,,,,,,
,,,,,,,,,,,,a,Correct!,0,86,86,5,1,t5.png,t5.png,0,0.97829,21,female,2020-08-12_16h14.27.485,torte-2b,2020.1.3,Win32,60,13412,1.390435,,,,,,,,,,,,,,,,,,,,,,,,,,,,,,,,,,,,,,,,,,,,,,,,,,,,,,,,,,,,,,,,,
,,,,,,,,,,,,a,Incorrect,0,87,87,113,1,t5.png,t1.png,4,9.55E-11,21,female,2020-08-12_16h14.27.485,torte-2b,2020.1.3,Win32,60,13412,0.798455,,,,,,,,,,,,,,,,,,,,,,,,,,,,,,,,,,,,,,,,,,,,,,,,,,,,,,,,,,,,,,,,,
,,,,,,,,,,,,,Too slow :(,0,88,88,15,1,t2.png,t3.png,1,0.90855,21,female,2020-08-12_16h14.27.485,torte-2b,2020.1.3,Win32,60,13412,,,,,,,,,,,,,,,,,,,,,,,,,,,,,,,,,,,,,,,,,,,,,,,,,,,,,,,,,,,,,,,,,,
,,,,,,,,,,,,l,Correct!,0,89,89,73,1,t3.png,t1.png,2,0.056466,21,female,2020-08-12_16h14.27.485,torte-2b,2020.1.3,Win32,60,13412,1.55184,,,,,,,,,,,,,,,,,,,,,,,,,,,,,,,,,,,,,,,,,,,,,,,,,,,,,,,,,,,,,,,,,
,,,,,,,,,,,,l,Correct!,0,90,90,36,1,t1.png,t4.png,3,0.0000131,21,female,2020-08-12_16h14.27.485,torte-2b,2020.1.3,Win32,60,13412,1.13859,,,,,,,,,,,,,,,,,,,,,,,,,,,,,,,,,,,,,,,,,,,,,,,,,,,,,,,,,,,,,,,,,
,,,,,,,,,,,,l,Correct!,0,91,91,62,1,t1.png,t4.png,3,0.0000131,21,female,2020-08-12_16h14.27.485,torte-2b,2020.1.3,Win32,60,13412,0.65185,,,,,,,,,,,,,,,,,,,,,,,,,,,,,,,,,,,,,,,,,,,,,,,,,,,,,,,,,,,,,,,,,
,,,,,,,,,,,,l,Correct!,0,92,92,76,1,t4.png,t1.png,3,0.059078,21,female,2020-08-12_16h14.27.485,torte-2b,2020.1.3,Win32,60,13412,1.15769,,,,,,,,,,,,,,,,,,,,,,,,,,,,,,,,,,,,,,,,,,,,,,,,,,,,,,,,,,,,,,,,,
,,,,,,,,,,,,a,Correct!,0,93,93,7,1,t3.png,t2.png,1,0.90855,21,female,2020-08-12_16h14.27.485,torte-2b,2020.1.3,Win32,60,13412,1.234005,,,,,,,,,,,,,,,,,,,,,,,,,,,,,,,,,,,,,,,,,,,,,,,,,,,,,,,,,,,,,,,,,
,,,,,,,,,,,,l,Correct!,0,94,94,3,1,t4.png,t1.png,3,0.059078,21,female,2020-08-12_16h14.27.485,torte-2b,2020.1.3,Win32,60,13412,0.74883,,,,,,,,,,,,,,,,,,,,,,,,,,,,,,,,,,,,,,,,,,,,,,,,,,,,,,,,,,,,,,,,,
,,,,,,,,,,,,l,Correct!,0,95,95,26,1,t1.png,t5.png,4,9.55E-11,21,female,2020-08-12_16h14.27.485,torte-2b,2020.1.3,Win32,60,13412,1.18195,,,,,,,,,,,,,,,,,,,,,,,,,,,,,,,,,,,,,,,,,,,,,,,,,,,,,,,,,,,,,,,,,
,,,,,,,,,,,,a,Correct!,0,96,96,86,1,t5.png,t4.png,1,0.90025,21,female,2020-08-12_16h14.27.485,torte-2b,2020.1.3,Win32,60,13412,0.83975,,,,,,,,,,,,,,,,,,,,,,,,,,,,,,,,,,,,,,,,,,,,,,,,,,,,,,,,,,,,,,,,,
,,,,,,,,,,,,a,Correct!,0,97,97,109,1,t5.png,t5.png,0,0.97829,21,female,2020-08-12_16h14.27.485,torte-2b,2020.1.3,Win32,60,13412,1.086945,,,,,,,,,,,,,,,,,,,,,,,,,,,,,,,,,,,,,,,,,,,,,,,,,,,,,,,,,,,,,,,,,
,,,,,,,,,,,,a,Correct!,0,98,98,114,1,t5.png,t4.png,1,0.90025,21,female,2020-08-12_16h14.27.485,torte-2b,2020.1.3,Win32,60,13412,0.78203,,,,,,,,,,,,,,,,,,,,,,,,,,,,,,,,,,,,,,,,,,,,,,,,,,,,,,,,,,,,,,,,,
,,,,,,,,,,,,l,Correct!,0,99,99,117,1,t2.png,t4.png,2,0.059078,21,female,2020-08-12_16h14.27.485,torte-2b,2020.1.3,Win32,60,13412,1.289595,,,,,,,,,,,,,,,,,,,,,,,,,,,,,,,,,,,,,,,,,,,,,,,,,,,,,,,,,,,,,,,,,
,,,,,,,,,,,,a,Correct!,0,100,100,32,1,t3.png,t2.png,1,0.90855,21,female,2020-08-12_16h14.27.485,torte-2b,2020.1.3,Win32,60,13412,1.736955,,,,,,,,,,,,,,,,,,,,,,,,,,,,,,,,,,,,,,,,,,,,,,,,,,,,,,,,,,,,,,,,,
,,,,,,,,,,,,a,Correct!,0,101,101,41,1,t4.png,t5.png,1,0.90025,21,female,2020-08-12_16h14.27.485,torte-2b,2020.1.3,Win32,60,13412,0.951025,,,,,,,,,,,,,,,,,,,,,,,,,,,,,,,,,,,,,,,,,,,,,,,,,,,,,,,,,,,,,,,,,
,,,,,,,,,,,,l,Correct!,0,102,102,19,1,t2.png,t4.png,2,0.059078,21,female,2020-08-12_16h14.27.485,torte-2b,2020.1.3,Win32,60,13412,1.752775,,,,,,,,,,,,,,,,,,,,,,,,,,,,,,,,,,,,,,,,,,,,,,,,,,,,,,,,,,,,,,,,,
,,,,,,,,,,,,l,Correct!,0,103,103,49,1,t5.png,t1.png,4,9.55E-11,21,female,2020-08-12_16h14.27.485,torte-2b,2020.1.3,Win32,60,13412,1.35164,,,,,,,,,,,,,,,,,,,,,,,,,,,,,,,,,,,,,,,,,,,,,,,,,,,,,,,,,,,,,,,,,
,,,,,,,,,,,,a,Correct!,0,104,104,119,1,t5.png,t4.png,1,0.90025,21,female,2020-08-12_16h14.27.485,torte-2b,2020.1.3,Win32,60,13412,1.19055,,,,,,,,,,,,,,,,,,,,,,,,,,,,,,,,,,,,,,,,,,,,,,,,,,,,,,,,,,,,,,,,,
,,,,,,,,,,,,a,Correct!,0,105,105,97,1,t1.png,t1.png,0,0.97829,21,female,2020-08-12_16h14.27.485,torte-2b,2020.1.3,Win32,60,13412,1.016065,,,,,,,,,,,,,,,,,,,,,,,,,,,,,,,,,,,,,,,,,,,,,,,,,,,,,,,,,,,,,,,,,
,,,,,,,,,,,,l,Correct!,0,106,106,6,1,t5.png,t1.png,4,9.55E-11,21,female,2020-08-12_16h14.27.485,torte-2b,2020.1.3,Win32,60,13412,0.90809,,,,,,,,,,,,,,,,,,,,,,,,,,,,,,,,,,,,,,,,,,,,,,,,,,,,,,,,,,,,,,,,,
,,,,,,,,,,,,a,Correct!,0,107,107,25,1,t1.png,t1.png,0,0.97829,21,female,2020-08-12_16h14.27.485,torte-2b,2020.1.3,Win32,60,13412,0.753625,,,,,,,,,,,,,,,,,,,,,,,,,,,,,,,,,,,,,,,,,,,,,,,,,,,,,,,,,,,,,,,,,
,,,,,,,,,,,,l,Correct!,0,108,108,16,1,t1.png,t5.png,4,9.55E-11,21,female,2020-08-12_16h14.27.485,torte-2b,2020.1.3,Win32,60,13412,0.702725,,,,,,,,,,,,,,,,,,,,,,,,,,,,,,,,,,,,,,,,,,,,,,,,,,,,,,,,,,,,,,,,,
,,,,,,,,,,,,a,Correct!,0,109,109,53,1,t1.png,t1.png,0,0.97829,21,female,2020-08-12_16h14.27.485,torte-2b,2020.1.3,Win32,60,13412,0.77638,,,,,,,,,,,,,,,,,,,,,,,,,,,,,,,,,,,,,,,,,,,,,,,,,,,,,,,,,,,,,,,,,
,,,,,,,,,,,,a,Correct!,0,110,110,33,1,t3.png,t2.png,1,0.90855,21,female,2020-08-12_16h14.27.485,torte-2b,2020.1.3,Win32,60,13412,0.97622,,,,,,,,,,,,,,,,,,,,,,,,,,,,,,,,,,,,,,,,,,,,,,,,,,,,,,,,,,,,,,,,,
,,,,,,,,,,,,l,Correct!,0,111,111,102,1,t2.png,t4.png,2,0.059078,21,female,2020-08-12_16h14.27.485,torte-2b,2020.1.3,Win32,60,13412,1.20421,,,,,,,,,,,,,,,,,,,,,,,,,,,,,,,,,,,,,,,,,,,,,,,,,,,,,,,,,,,,,,,,,
,,,,,,,,,,,,a,Correct!,0,112,112,18,1,t2.png,t3.png,1,0.90855,21,female,2020-08-12_16h14.27.485,torte-2b,2020.1.3,Win32,60,13412,1.53732,,,,,,,,,,,,,,,,,,,,,,,,,,,,,,,,,,,,,,,,,,,,,,,,,,,,,,,,,,,,,,,,,
,,,,,,,,,,,,l,Correct!,0,113,113,57,1,t3.png,t1.png,2,0.056466,21,female,2020-08-12_16h14.27.485,torte-2b,2020.1.3,Win32,60,13412,1.321795,,,,,,,,,,,,,,,,,,,,,,,,,,,,,,,,,,,,,,,,,,,,,,,,,,,,,,,,,,,,,,,,,
,,,,,,,,,,,,l,Correct!,0,114,114,59,1,t5.png,t1.png,4,9.55E-11,21,female,2020-08-12_16h14.27.485,torte-2b,2020.1.3,Win32,60,13412,1.924255,,,,,,,,,,,,,,,,,,,,,,,,,,,,,,,,,,,,,,,,,,,,,,,,,,,,,,,,,,,,,,,,,
,,,,,,,,,,,,a,Correct!,0,115,115,69,1,t5.png,t4.png,1,0.90025,21,female,2020-08-12_16h14.27.485,torte-2b,2020.1.3,Win32,60,13412,0.85457,,,,,,,,,,,,,,,,,,,,,,,,,,,,,,,,,,,,,,,,,,,,,,,,,,,,,,,,,,,,,,,,,
,,,,,,,,,,,,a,Correct!,0,116,116,85,1,t5.png,t4.png,1,0.90025,21,female,2020-08-12_16h14.27.485,torte-2b,2020.1.3,Win32,60,13412,0.566235,,,,,,,,,,,,,,,,,,,,,,,,,,,,,,,,,,,,,,,,,,,,,,,,,,,,,,,,,,,,,,,,,
,,,,,,,,,,,,a,Correct!,0,117,117,24,1,t5.png,t5.png,0,0.97829,21,female,2020-08-12_16h14.27.485,torte-2b,2020.1.3,Win32,60,13412,0.50886,,,,,,,,,,,,,,,,,,,,,,,,,,,,,,,,,,,,,,,,,,,,,,,,,,,,,,,,,,,,,,,,,
,,,,,,,,,,,,l,Correct!,0,118,118,39,1,t2.png,t4.png,2,0.059078,21,female,2020-08-12_16h14.27.485,torte-2b,2020.1.3,Win32,60,13412,0.73231,,,,,,,,,,,,,,,,,,,,,,,,,,,,,,,,,,,,,,,,,,,,,,,,,,,,,,,,,,,,,,,,,
,,,,,,,,,,,,a,Correct!,0,119,119,45,1,t4.png,t5.png,1,0.90025,21,female,2020-08-12_16h14.27.485,torte-2b,2020.1.3,Win32,60,13412,0.70407,,,,,,,,,,,,,,,,,,,,,,,,,,,,,,,,,,,,,,,,,,,,,,,,,,,,,,,,,,,,,,,,,
,,,,,,,,,,,,a,Correct!,,,,,,t3.png,t2.png,1,0.90855,21,female,2020-08-12_16h14.27.485,torte-2b,2020.1.3,Win32,60,13412,2.3734,space,2.81844,space,1014.85553,0,0,0,10,1,,,,,,,,,,,,,,,,,,,,,,,,,,,,,,,,,,,,,,,,,,,,,,,,,,,,,,,,
,,,,,,,,,,,,a,Correct!,,,,,,t4.png,t4.png,0,0.98115,21,female,2020-08-12_16h14.27.485,torte-2b,2020.1.3,Win32,60,13412,1.106925,,,,,0,1,1,68,1,,,,,,,,,,,,,,,,,,,,,,,,,,,,,,,,,,,,,,,,,,,,,,,,,,,,,,,,
,,,,,,,,,,,,,Too slow :(,,,,,,t3.png,t4.png,1,0.90855,21,female,2020-08-12_16h14.27.485,torte-2b,2020.1.3,Win32,60,13412,,,,,,0,2,2,9,1,,,,,,,,,,,,,,,,,,,,,,,,,,,,,,,,,,,,,,,,,,,,,,,,,,,,,,,,
,,,,,,,,,,,,,Too slow :(,,,,,,t5.png,t3.png,2,0.056466,21,female,2020-08-12_16h14.27.485,torte-2b,2020.1.3,Win32,60,13412,,,,,,0,3,3,37,1,,,,,,,,,,,,,,,,,,,,,,,,,,,,,,,,,,,,,,,,,,,,,,,,,,,,,,,,
,,,,,,,,,,,,a,Correct!,,,,,,t1.png,t1.png,0,0.97829,21,female,2020-08-12_16h14.27.485,torte-2b,2020.1.3,Win32,60,13412,1.03478,,,,,0,4,4,110,1,,,,,,,,,,,,,,,,,,,,,,,,,,,,,,,,,,,,,,,,,,,,,,,,,,,,,,,,
,,,,,,,,,,,,l,Incorrect,,,,,,t4.png,t5.png,1,0.90025,21,female,2020-08-12_16h14.27.485,torte-2b,2020.1.3,Win32,60,13412,0.825255,,,,,0,5,5,33,1,,,,,,,,,,,,,,,,,,,,,,,,,,,,,,,,,,,,,,,,,,,,,,,,,,,,,,,,
,,,,,,,,,,,,l,Correct!,,,,,,t3.png,t1.png,2,0.0565,21,female,2020-08-12_16h14.27.485,torte-2b,2020.1.3,Win32,60,13412,1.21539,,,,,0,6,6,104,1,,,,,,,,,,,,,,,,,,,,,,,,,,,,,,,,,,,,,,,,,,,,,,,,,,,,,,,,
,,,,,,,,,,,,l,Correct!,,,,,,t3.png,t1.png,2,0.056466,21,female,2020-08-12_16h14.27.485,torte-2b,2020.1.3,Win32,60,13412,0.915305,,,,,0,7,7,109,1,,,,,,,,,,,,,,,,,,,,,,,,,,,,,,,,,,,,,,,,,,,,,,,,,,,,,,,,
,,,,,,,,,,,,l,Correct!,,,,,,t2.png,t5.png,3,0.0000131,21,female,2020-08-12_16h14.27.485,torte-2b,2020.1.3,Win32,60,13412,0.870855,,,,,0,8,8,85,1,,,,,,,,,,,,,,,,,,,,,,,,,,,,,,,,,,,,,,,,,,,,,,,,,,,,,,,,
,,,,,,,,,,,,a,Correct!,,,,,,t5.png,t4.png,1,0.9,21,female,2020-08-12_16h14.27.485,torte-2b,2020.1.3,Win32,60,13412,1.60147,,,,,0,9,9,55,1,,,,,,,,,,,,,,,,,,,,,,,,,,,,,,,,,,,,,,,,,,,,,,,,,,,,,,,,
,,,,,,,,,,,,,Too slow :(,,,,,,t4.png,t3.png,1,0.909,21,female,2020-08-12_16h14.27.485,torte-2b,2020.1.3,Win32,60,13412,,,,,,0,10,10,107,1,,,,,,,,,,,,,,,,,,,,,,,,,,,,,,,,,,,,,,,,,,,,,,,,,,,,,,,,
,,,,,,,,,,,,l,Correct!,,,,,,t1.png,t3.png,2,0.056466,21,female,2020-08-12_16h14.27.485,torte-2b,2020.1.3,Win32,60,13412,1.73996,,,,,0,11,11,24,1,,,,,,,,,,,,,,,,,,,,,,,,,,,,,,,,,,,,,,,,,,,,,,,,,,,,,,,,
,,,,,,,,,,,,a,Correct!,,,,,,t4.png,t4.png,0,0.98115,21,female,2020-08-12_16h14.27.485,torte-2b,2020.1.3,Win32,60,13412,0.99037,,,,,0,12,12,88,1,,,,,,,,,,,,,,,,,,,,,,,,,,,,,,,,,,,,,,,,,,,,,,,,,,,,,,,,
,,,,,,,,,,,,,Too slow :(,,,,,,t1.png,t2.png,1,0.9,21,female,2020-08-12_16h14.27.485,torte-2b,2020.1.3,Win32,60,13412,,,,,,0,13,13,61,1,,,,,,,,,,,,,,,,,,,,,,,,,,,,,,,,,,,,,,,,,,,,,,,,,,,,,,,,
,,,,,,,,,,,,l,Correct!,,,,,,t1.png,t3.png,2,0.0565,21,female,2020-08-12_16h14.27.485,torte-2b,2020.1.3,Win32,60,13412,2.215335,,,,,0,14,14,95,1,,,,,,,,,,,,,,,,,,,,,,,,,,,,,,,,,,,,,,,,,,,,,,,,,,,,,,,,
,,,,,,,,,,,,a,Correct!,,,,,,t5.png,t4.png,1,0.90025,21,female,2020-08-12_16h14.27.485,torte-2b,2020.1.3,Win32,60,13412,0.95568,,,,,0,15,15,14,1,,,,,,,,,,,,,,,,,,,,,,,,,,,,,,,,,,,,,,,,,,,,,,,,,,,,,,,,
,,,,,,,,,,,,,Too slow :(,,,,,,t5.png,t3.png,2,0.056466,21,female,2020-08-12_16h14.27.485,torte-2b,2020.1.3,Win32,60,13412,,,,,,0,16,16,27,1,,,,,,,,,,,,,,,,,,,,,,,,,,,,,,,,,,,,,,,,,,,,,,,,,,,,,,,,
,,,,,,,,,,,,a,Correct!,,,,,,t1.png,t1.png,0,0.978,21,female,2020-08-12_16h14.27.485,torte-2b,2020.1.3,Win32,60,13412,0.807555,,,,,0,17,17,13,1,,,,,,,,,,,,,,,,,,,,,,,,,,,,,,,,,,,,,,,,,,,,,,,,,,,,,,,,
,,,,,,,,,,,,l,Correct!,,,,,,t1.png,t3.png,2,0.056466,21,female,2020-08-12_16h14.27.485,torte-2b,2020.1.3,Win32,60,13412,2.221935,,,,,0,18,18,32,1,,,,,,,,,,,,,,,,,,,,,,,,,,,,,,,,,,,,,,,,,,,,,,,,,,,,,,,,
,,,,,,,,,,,,l,Correct!,,,,,,t5.png,t3.png,2,0.056466,21,female,2020-08-12_16h14.27.485,torte-2b,2020.1.3,Win32,60,13412,1.19896,,,,,0,19,19,80,1,,,,,,,,,,,,,,,,,,,,,,,,,,,,,,,,,,,,,,,,,,,,,,,,,,,,,,,,
,,,,,,,,,,,,l,Correct!,,,,,,t1.png,t5.png,4,9.55E-11,21,female,2020-08-12_16h14.27.485,torte-2b,2020.1.3,Win32,60,13412,1.249935,,,,,0,20,20,30,1,,,,,,,,,,,,,,,,,,,,,,,,,,,,,,,,,,,,,,,,,,,,,,,,,,,,,,,,
,,,,,,,,,,,,a,Correct!,,,,,,t2.png,t2.png,0,0.98115,21,female,2020-08-12_16h14.27.485,torte-2b,2020.1.3,Win32,60,13412,1.666875,,,,,0,21,21,112,1,,,,,,,,,,,,,,,,,,,,,,,,,,,,,,,,,,,,,,,,,,,,,,,,,,,,,,,,
,,,,,,,,,,,,l,Correct!,,,,,,t4.png,t1.png,3,0.0000131,21,female,2020-08-12_16h14.27.485,torte-2b,2020.1.3,Win32,60,13412,0.7572,,,,,0,22,22,102,1,,,,,,,,,,,,,,,,,,,,,,,,,,,,,,,,,,,,,,,,,,,,,,,,,,,,,,,,
,,,,,,,,,,,,l,Correct!,,,,,,t5.png,t1.png,4,9.55E-11,21,female,2020-08-12_16h14.27.485,torte-2b,2020.1.3,Win32,60,13412,0.72045,,,,,0,23,23,89,1,,,,,,,,,,,,,,,,,,,,,,,,,,,,,,,,,,,,,,,,,,,,,,,,,,,,,,,,
,,,,,,,,,,,,a,Correct!,,,,,,t5.png,t4.png,1,0.90025,21,female,2020-08-12_16h14.27.485,torte-2b,2020.1.3,Win32,60,13412,0.815585,,,,,0,24,24,38,1,,,,,,,,,,,,,,,,,,,,,,,,,,,,,,,,,,,,,,,,,,,,,,,,,,,,,,,,
,,,,,,,,,,,,a,Correct!,,,,,,t5.png,t5.png,0,0.978,21,female,2020-08-12_16h14.27.485,torte-2b,2020.1.3,Win32,60,13412,0.715145,,,,,0,25,25,51,1,,,,,,,,,,,,,,,,,,,,,,,,,,,,,,,,,,,,,,,,,,,,,,,,,,,,,,,,
,,,,,,,,,,,,l,Correct!,,,,,,t4.png,t1.png,3,0.0000131,21,female,2020-08-12_16h14.27.485,torte-2b,2020.1.3,Win32,60,13412,0.749985,,,,,0,26,26,76,1,,,,,,,,,,,,,,,,,,,,,,,,,,,,,,,,,,,,,,,,,,,,,,,,,,,,,,,,
,,,,,,,,,,,,l,Correct!,,,,,,t5.png,t2.png,3,0.0000131,21,female,2020-08-12_16h14.27.485,torte-2b,2020.1.3,Win32,60,13412,1.13475,,,,,0,27,27,43,1,,,,,,,,,,,,,,,,,,,,,,,,,,,,,,,,,,,,,,,,,,,,,,,,,,,,,,,,
,,,,,,,,,,,,a,Correct!,,,,,,t1.png,t2.png,1,0.90025,21,female,2020-08-12_16h14.27.485,torte-2b,2020.1.3,Win32,60,13412,1.647835,,,,,0,28,28,96,1,,,,,,,,,,,,,,,,,,,,,,,,,,,,,,,,,,,,,,,,,,,,,,,,,,,,,,,,
,,,,,,,,,,,,l,Correct!,,,,,,t2.png,t4.png,2,0.059078,21,female,2020-08-12_16h14.27.485,torte-2b,2020.1.3,Win32,60,13412,1.566245,,,,,0,29,29,67,1,,,,,,,,,,,,,,,,,,,,,,,,,,,,,,,,,,,,,,,,,,,,,,,,,,,,,,,,
,,,,,,,,,,,,a,Correct!,,,,,,t3.png,t2.png,1,0.90855,21,female,2020-08-12_16h14.27.485,torte-2b,2020.1.3,Win32,60,13412,1.851195,,,,,0,30,30,0,1,,,,,,,,,,,,,,,,,,,,,,,,,,,,,,,,,,,,,,,,,,,,,,,,,,,,,,,,
,,,,,,,,,,,,a,Correct!,,,,,,t1.png,t2.png,1,0.9,21,female,2020-08-12_16h14.27.485,torte-2b,2020.1.3,Win32,60,13412,2.23279,,,,,0,31,31,41,1,,,,,,,,,,,,,,,,,,,,,,,,,,,,,,,,,,,,,,,,,,,,,,,,,,,,,,,,
,,,,,,,,,,,,a,Correct!,,,,,,t3.png,t2.png,1,0.90855,21,female,2020-08-12_16h14.27.485,torte-2b,2020.1.3,Win32,60,13412,1.725165,,,,,0,32,32,94,1,,,,,,,,,,,,,,,,,,,,,,,,,,,,,,,,,,,,,,,,,,,,,,,,,,,,,,,,
,,,,,,,,,,,,a,Correct!,,,,,,t2.png,t2.png,0,0.98115,21,female,2020-08-12_16h14.27.485,torte-2b,2020.1.3,Win32,60,13412,1.23412,,,,,0,33,33,7,1,,,,,,,,,,,,,,,,,,,,,,,,,,,,,,,,,,,,,,,,,,,,,,,,,,,,,,,,
,,,,,,,,,,,,l,Correct!,,,,,,t3.png,t1.png,2,0.0565,21,female,2020-08-12_16h14.27.485,torte-2b,2020.1.3,Win32,60,13412,1.75084,,,,,0,34,34,40,1,,,,,,,,,,,,,,,,,,,,,,,,,,,,,,,,,,,,,,,,,,,,,,,,,,,,,,,,
,,,,,,,,,,,,l,Correct!,,,,,,t1.png,t4.png,3,0.0000131,21,female,2020-08-12_16h14.27.485,torte-2b,2020.1.3,Win32,60,13412,1.53553,,,,,0,35,35,36,1,,,,,,,,,,,,,,,,,,,,,,,,,,,,,,,,,,,,,,,,,,,,,,,,,,,,,,,,
,,,,,,,,,,,,l,Incorrect,,,,,,t4.png,t3.png,1,0.90855,21,female,2020-08-12_16h14.27.485,torte-2b,2020.1.3,Win32,60,13412,1.47642,,,,,0,36,36,29,1,,,,,,,,,,,,,,,,,,,,,,,,,,,,,,,,,,,,,,,,,,,,,,,,,,,,,,,,
,,,,,,,,,,,,l,Correct!,,,,,,t4.png,t1.png,3,0.059078,21,female,2020-08-12_16h14.27.485,torte-2b,2020.1.3,Win32,60,13412,1.41942,,,,,0,37,37,57,1,,,,,,,,,,,,,,,,,,,,,,,,,,,,,,,,,,,,,,,,,,,,,,,,,,,,,,,,
,,,,,,,,,,,,l,Correct!,,,,,,t4.png,t1.png,3,0.059078,21,female,2020-08-12_16h14.27.485,torte-2b,2020.1.3,Win32,60,13412,0.599405,,,,,0,38,38,73,1,,,,,,,,,,,,,,,,,,,,,,,,,,,,,,,,,,,,,,,,,,,,,,,,,,,,,,,,
,,,,,,,,,,,,a,Correct!,,,,,,t2.png,t3.png,1,0.90855,21,female,2020-08-12_16h14.27.485,torte-2b,2020.1.3,Win32,60,13412,1.38265,,,,,0,39,39,113,1,,,,,,,,,,,,,,,,,,,,,,,,,,,,,,,,,,,,,,,,,,,,,,,,,,,,,,,,
,,,,,,,,,,,,l,Correct!,,,,,,t2.png,t5.png,3,0.0000131,21,female,2020-08-12_16h14.27.485,torte-2b,2020.1.3,Win32,60,13412,0.624065,,,,,0,40,40,115,1,,,,,,,,,,,,,,,,,,,,,,,,,,,,,,,,,,,,,,,,,,,,,,,,,,,,,,,,
,,,,,,,,,,,,a,Correct!,,,,,,t2.png,t1.png,1,0.90025,21,female,2020-08-12_16h14.27.485,torte-2b,2020.1.3,Win32,60,13412,1.61768,,,,,0,41,41,44,1,,,,,,,,,,,,,,,,,,,,,,,,,,,,,,,,,,,,,,,,,,,,,,,,,,,,,,,,
,,,,,,,,,,,,l,Correct!,,,,,,t1.png,t4.png,3,0.0000131,21,female,2020-08-12_16h14.27.485,torte-2b,2020.1.3,Win32,60,13412,0.7868,,,,,0,42,42,106,1,,,,,,,,,,,,,,,,,,,,,,,,,,,,,,,,,,,,,,,,,,,,,,,,,,,,,,,,
,,,,,,,,,,,,a,Incorrect,,,,,,t3.png,t5.png,2,0.056466,21,female,2020-08-12_16h14.27.485,torte-2b,2020.1.3,Win32,60,13412,2.255255,,,,,0,43,43,60,1,,,,,,,,,,,,,,,,,,,,,,,,,,,,,,,,,,,,,,,,,,,,,,,,,,,,,,,,
,,,,,,,,,,,,a,Correct!,,,,,,t3.png,t2.png,1,0.90855,21,female,2020-08-12_16h14.27.485,torte-2b,2020.1.3,Win32,60,13412,1.801835,,,,,0,44,44,108,1,,,,,,,,,,,,,,,,,,,,,,,,,,,,,,,,,,,,,,,,,,,,,,,,,,,,,,,,
,,,,,,,,,,,,a,Correct!,,,,,,t2.png,t1.png,1,0.9,21,female,2020-08-12_16h14.27.485,torte-2b,2020.1.3,Win32,60,13412,1.9207,,,,,0,45,45,100,1,,,,,,,,,,,,,,,,,,,,,,,,,,,,,,,,,,,,,,,,,,,,,,,,,,,,,,,,
,,,,,,,,,,,,l,Correct!,,,,,,t5.png,t1.png,4,9.55E-11,21,female,2020-08-12_16h14.27.485,torte-2b,2020.1.3,Win32,60,13412,0.873605,,,,,0,46,46,31,1,,,,,,,,,,,,,,,,,,,,,,,,,,,,,,,,,,,,,,,,,,,,,,,,,,,,,,,,
,,,,,,,,,,,,a,Incorrect,,,,,,t3.png,t5.png,2,0.0565,21,female,2020-08-12_16h14.27.485,torte-2b,2020.1.3,Win32,60,13412,1.69892,,,,,0,47,47,71,1,,,,,,,,,,,,,,,,,,,,,,,,,,,,,,,,,,,,,,,,,,,,,,,,,,,,,,,,
,,,,,,,,,,,,a,Correct!,,,,,,t5.png,t5.png,0,0.97829,21,female,2020-08-12_16h14.27.485,torte-2b,2020.1.3,Win32,60,13412,0.94882,,,,,0,48,48,35,1,,,,,,,,,,,,,,,,,,,,,,,,,,,,,,,,,,,,,,,,,,,,,,,,,,,,,,,,
,,,,,,,,,,,,l,Correct!,,,,,,t4.png,t1.png,3,0.0000131,21,female,2020-08-12_16h14.27.485,torte-2b,2020.1.3,Win32,60,13412,0.769855,,,,,0,49,49,28,1,,,,,,,,,,,,,,,,,,,,,,,,,,,,,,,,,,,,,,,,,,,,,,,,,,,,,,,,
,,,,,,,,,,,,l,Correct!,,,,,,t5.png,t2.png,3,0.0000131,21,female,2020-08-12_16h14.27.485,torte-2b,2020.1.3,Win32,60,13412,0.793105,,,,,0,50,50,82,1,,,,,,,,,,,,,,,,,,,,,,,,,,,,,,,,,,,,,,,,,,,,,,,,,,,,,,,,
,,,,,,,,,,,,a,Correct!,,,,,,t5.png,t5.png,0,0.978,21,female,2020-08-12_16h14.27.485,torte-2b,2020.1.3,Win32,60,13412,0.716535,,,,,0,51,51,116,1,,,,,,,,,,,,,,,,,,,,,,,,,,,,,,,,,,,,,,,,,,,,,,,,,,,,,,,,
,,,,,,,,,,,,l,Correct!,,,,,,t2.png,t4.png,2,0.059078,21,female,2020-08-12_16h14.27.485,torte-2b,2020.1.3,Win32,60,13412,0.624545,,,,,0,52,52,18,1,,,,,,,,,,,,,,,,,,,,,,,,,,,,,,,,,,,,,,,,,,,,,,,,,,,,,,,,
,,,,,,,,,,,,l,Correct!,,,,,,t5.png,t3.png,2,0.0565,21,female,2020-08-12_16h14.27.485,torte-2b,2020.1.3,Win32,60,13412,1.500115,,,,,0,53,53,50,1,,,,,,,,,,,,,,,,,,,,,,,,,,,,,,,,,,,,,,,,,,,,,,,,,,,,,,,,
,,,,,,,,,,,,l,Correct!,,,,,,t1.png,t3.png,2,0.0565,21,female,2020-08-12_16h14.27.485,torte-2b,2020.1.3,Win32,60,13412,1.885745,,,,,0,54,54,12,1,,,,,,,,,,,,,,,,,,,,,,,,,,,,,,,,,,,,,,,,,,,,,,,,,,,,,,,,
,,,,,,,,,,,,a,Incorrect,,,,,,t2.png,t1.png,1,0.90025,21,female,2020-08-12_16h14.27.485,torte-2b,2020.1.3,Win32,60,13412,1.393345,,,,,0,55,55,105,1,,,,,,,,,,,,,,,,,,,,,,,,,,,,,,,,,,,,,,,,,,,,,,,,,,,,,,,,
,,,,,,,,,,,,a,Correct!,,,,,,t4.png,t5.png,1,0.90025,21,female,2020-08-12_16h14.27.485,torte-2b,2020.1.3,Win32,60,13412,1.91555,,,,,0,56,56,63,1,,,,,,,,,,,,,,,,,,,,,,,,,,,,,,,,,,,,,,,,,,,,,,,,,,,,,,,,
,,,,,,,,,,,,a,Correct!,,,,,,t5.png,t4.png,1,0.9,21,female,2020-08-12_16h14.27.485,torte-2b,2020.1.3,Win32,60,13412,1.23236,,,,,0,57,57,92,1,,,,,,,,,,,,,,,,,,,,,,,,,,,,,,,,,,,,,,,,,,,,,,,,,,,,,,,,
,,,,,,,,,,,,l,Correct!,,,,,,t4.png,t1.png,3,0.059078,21,female,2020-08-12_16h14.27.485,torte-2b,2020.1.3,Win32,60,13412,0.701775,,,,,0,58,58,87,1,,,,,,,,,,,,,,,,,,,,,,,,,,,,,,,,,,,,,,,,,,,,,,,,,,,,,,,,
,,,,,,,,,,,,l,Correct!,,,,,,t4.png,t1.png,3,0.0000131,21,female,2020-08-12_16h14.27.485,torte-2b,2020.1.3,Win32,60,13412,0.89014,,,,,0,59,59,91,1,,,,,,,,,,,,,,,,,,,,,,,,,,,,,,,,,,,,,,,,,,,,,,,,,,,,,,,,
,,,,,,,,,,,,l,Correct!,,,,,,t5.png,t1.png,4,9.55E-11,21,female,2020-08-12_16h14.27.485,torte-2b,2020.1.3,Win32,60,13412,1.08396,,,,,0,60,60,15,1,,,,,,,,,,,,,,,,,,,,,,,,,,,,,,,,,,,,,,,,,,,,,,,,,,,,,,,,
,,,,,,,,,,,,l,Correct!,,,,,,t2.png,t5.png,3,0.0000131,21,female,2020-08-12_16h14.27.485,torte-2b,2020.1.3,Win32,60,13412,1.032355,,,,,0,61,61,39,1,,,,,,,,,,,,,,,,,,,,,,,,,,,,,,,,,,,,,,,,,,,,,,,,,,,,,,,,
,,,,,,,,,,,,a,Correct!,,,,,,t2.png,t3.png,1,0.909,21,female,2020-08-12_16h14.27.485,torte-2b,2020.1.3,Win32,60,13412,1.99056,,,,,0,62,62,8,1,,,,,,,,,,,,,,,,,,,,,,,,,,,,,,,,,,,,,,,,,,,,,,,,,,,,,,,,
,,,,,,,,,,,,l,Correct!,,,,,,t5.png,t1.png,4,9.55E-11,21,female,2020-08-12_16h14.27.485,torte-2b,2020.1.3,Win32,60,13412,0.66625,,,,,0,63,63,117,1,,,,,,,,,,,,,,,,,,,,,,,,,,,,,,,,,,,,,,,,,,,,,,,,,,,,,,,,
,,,,,,,,,,,,l,Correct!,,,,,,t3.png,t5.png,2,0.056466,21,female,2020-08-12_16h14.27.485,torte-2b,2020.1.3,Win32,60,13412,2.298935,,,,,0,64,64,45,1,,,,,,,,,,,,,,,,,,,,,,,,,,,,,,,,,,,,,,,,,,,,,,,,,,,,,,,,
,,,,,,,,,,,,,Too slow :(,,,,,,t4.png,t3.png,1,0.90855,21,female,2020-08-12_16h14.27.485,torte-2b,2020.1.3,Win32,60,13412,,,,,,0,65,65,11,1,,,,,,,,,,,,,,,,,,,,,,,,,,,,,,,,,,,,,,,,,,,,,,,,,,,,,,,,
,,,,,,,,,,,,l,Correct!,,,,,,t5.png,t2.png,3,0.0000131,21,female,2020-08-12_16h14.27.485,torte-2b,2020.1.3,Win32,60,13412,1.990465,,,,,0,66,66,83,1,,,,,,,,,,,,,,,,,,,,,,,,,,,,,,,,,,,,,,,,,,,,,,,,,,,,,,,,
,,,,,,,,,,,,l,Correct!,,,,,,t3.png,t1.png,2,0.056466,21,female,2020-08-12_16h14.27.485,torte-2b,2020.1.3,Win32,60,13412,1.505455,,,,,0,67,67,72,1,,,,,,,,,,,,,,,,,,,,,,,,,,,,,,,,,,,,,,,,,,,,,,,,,,,,,,,,
,,,,,,,,,,,,l,Correct!,,,,,,t5.png,t1.png,4,9.55E-11,21,female,2020-08-12_16h14.27.485,torte-2b,2020.1.3,Win32,60,13412,1.509825,,,,,0,68,68,101,1,,,,,,,,,,,,,,,,,,,,,,,,,,,,,,,,,,,,,,,,,,,,,,,,,,,,,,,,
,,,,,,,,,,,,,Too slow :(,,,,,,t4.png,t3.png,1,0.90855,21,female,2020-08-12_16h14.27.485,torte-2b,2020.1.3,Win32,60,13412,,,,,,0,69,69,56,1,,,,,,,,,,,,,,,,,,,,,,,,,,,,,,,,,,,,,,,,,,,,,,,,,,,,,,,,
,,,,,,,,,,,,a,Correct!,,,,,,t5.png,t4.png,1,0.90025,21,female,2020-08-12_16h14.27.485,torte-2b,2020.1.3,Win32,60,13412,1.53833,,,,,0,70,70,25,1,,,,,,,,,,,,,,,,,,,,,,,,,,,,,,,,,,,,,,,,,,,,,,,,,,,,,,,,
,,,,,,,,,,,,l,Correct!,,,,,,t2.png,t5.png,3,0.0000131,21,female,2020-08-12_16h14.27.485,torte-2b,2020.1.3,Win32,60,13412,0.954935,,,,,0,71,71,54,1,,,,,,,,,,,,,,,,,,,,,,,,,,,,,,,,,,,,,,,,,,,,,,,,,,,,,,,,
,,,,,,,,,,,,a,Correct!,,,,,,t4.png,t4.png,0,0.98115,21,female,2020-08-12_16h14.27.485,torte-2b,2020.1.3,Win32,60,13412,1.03286,,,,,0,72,72,59,1,,,,,,,,,,,,,,,,,,,,,,,,,,,,,,,,,,,,,,,,,,,,,,,,,,,,,,,,
,,,,,,,,,,,,l,Correct!,,,,,,t4.png,t1.png,3,0.059078,21,female,2020-08-12_16h14.27.485,torte-2b,2020.1.3,Win32,60,13412,0.68185,,,,,0,73,73,62,1,,,,,,,,,,,,,,,,,,,,,,,,,,,,,,,,,,,,,,,,,,,,,,,,,,,,,,,,
,,,,,,,,,,,,l,Correct!,,,,,,t1.png,t5.png,4,9.55E-11,21,female,2020-08-12_16h14.27.485,torte-2b,2020.1.3,Win32,60,13412,0.7197,,,,,0,74,74,20,1,,,,,,,,,,,,,,,,,,,,,,,,,,,,,,,,,,,,,,,,,,,,,,,,,,,,,,,,
,,,,,,,,,,,,l,Correct!,,,,,,t1.png,t4.png,3,0.0000131,21,female,2020-08-12_16h14.27.485,torte-2b,2020.1.3,Win32,60,13412,1.40265,,,,,0,75,75,16,1,,,,,,,,,,,,,,,,,,,,,,,,,,,,,,,,,,,,,,,,,,,,,,,,,,,,,,,,
,,,,,,,,,,,,l,Correct!,,,,,,t1.png,t4.png,3,0.0000131,21,female,2020-08-12_16h14.27.485,torte-2b,2020.1.3,Win32,60,13412,0.689065,,,,,0,76,76,23,1,,,,,,,,,,,,,,,,,,,,,,,,,,,,,,,,,,,,,,,,,,,,,,,,,,,,,,,,
,,,,,,,,,,,,,Too slow :(,,,,,,t5.png,t3.png,2,0.056466,21,female,2020-08-12_16h14.27.485,torte-2b,2020.1.3,Win32,60,13412,,,,,,0,77,77,26,1,,,,,,,,,,,,,,,,,,,,,,,,,,,,,,,,,,,,,,,,,,,,,,,,,,,,,,,,
,,,,,,,,,,,,a,Correct!,,,,,,t2.png,t3.png,1,0.90855,21,female,2020-08-12_16h14.27.485,torte-2b,2020.1.3,Win32,60,13412,1.33783,,,,,0,78,78,79,1,,,,,,,,,,,,,,,,,,,,,,,,,,,,,,,,,,,,,,,,,,,,,,,,,,,,,,,,
,,,,,,,,,,,,l,Correct!,,,,,,t2.png,t4.png,2,0.059078,21,female,2020-08-12_16h14.27.485,torte-2b,2020.1.3,Win32,60,13412,0.608985,,,,,0,79,79,84,1,,,,,,,,,,,,,,,,,,,,,,,,,,,,,,,,,,,,,,,,,,,,,,,,,,,,,,,,
,,,,,,,,,,,,a,Correct!,,,,,,t4.png,t4.png,0,0.98115,21,female,2020-08-12_16h14.27.485,torte-2b,2020.1.3,Win32,60,13412,1.752345,,,,,0,80,80,19,1,,,,,,,,,,,,,,,,,,,,,,,,,,,,,,,,,,,,,,,,,,,,,,,,,,,,,,,,
,,,,,,,,,,,,a,Correct!,,,,,,t2.png,t1.png,1,0.9,21,female,2020-08-12_16h14.27.485,torte-2b,2020.1.3,Win32,60,13412,1.549065,,,,,0,81,81,93,1,,,,,,,,,,,,,,,,,,,,,,,,,,,,,,,,,,,,,,,,,,,,,,,,,,,,,,,,
,,,,,,,,,,,,l,Correct!,,,,,,t3.png,t1.png,2,0.056466,21,female,2020-08-12_16h14.27.485,torte-2b,2020.1.3,Win32,60,13412,1.404565,,,,,0,82,82,34,1,,,,,,,,,,,,,,,,,,,,,,,,,,,,,,,,,,,,,,,,,,,,,,,,,,,,,,,,
,,,,,,,,,,,,l,Correct!,,,,,,t4.png,t1.png,3,0.059078,21,female,2020-08-12_16h14.27.485,torte-2b,2020.1.3,Win32,60,13412,1.170625,,,,,0,83,83,75,1,,,,,,,,,,,,,,,,,,,,,,,,,,,,,,,,,,,,,,,,,,,,,,,,,,,,,,,,
,,,,,,,,,,,,l,Correct!,,,,,,t1.png,t3.png,2,0.0565,21,female,2020-08-12_16h14.27.485,torte-2b,2020.1.3,Win32,60,13412,1.28269,,,,,0,84,84,42,1,,,,,,,,,,,,,,,,,,,,,,,,,,,,,,,,,,,,,,,,,,,,,,,,,,,,,,,,
,,,,,,,,,,,,a,Correct!,,,,,,t1.png,t1.png,0,0.97829,21,female,2020-08-12_16h14.27.485,torte-2b,2020.1.3,Win32,60,13412,0.75692,,,,,0,85,85,4,1,,,,,,,,,,,,,,,,,,,,,,,,,,,,,,,,,,,,,,,,,,,,,,,,,,,,,,,,
,,,,,,,,,,,,l,Correct!,,,,,,t1.png,t4.png,3,0.0000131,21,female,2020-08-12_16h14.27.485,torte-2b,2020.1.3,Win32,60,13412,0.95134,,,,,0,86,86,74,1,,,,,,,,,,,,,,,,,,,,,,,,,,,,,,,,,,,,,,,,,,,,,,,,,,,,,,,,
,,,,,,,,,,,,a,Correct!,,,,,,t4.png,t5.png,1,0.90025,21,female,2020-08-12_16h14.27.485,torte-2b,2020.1.3,Win32,60,13412,1.182735,,,,,0,87,87,21,1,,,,,,,,,,,,,,,,,,,,,,,,,,,,,,,,,,,,,,,,,,,,,,,,,,,,,,,,
,,,,,,,,,,,,a,Correct!,,,,,,t2.png,t3.png,1,0.90855,21,female,2020-08-12_16h14.27.485,torte-2b,2020.1.3,Win32,60,13412,2.084885,,,,,0,88,88,64,1,,,,,,,,,,,,,,,,,,,,,,,,,,,,,,,,,,,,,,,,,,,,,,,,,,,,,,,,
,,,,,,,,,,,,l,Correct!,,,,,,t2.png,t4.png,2,0.059078,21,female,2020-08-12_16h14.27.485,torte-2b,2020.1.3,Win32,60,13412,1.371785,,,,,0,89,89,53,1,,,,,,,,,,,,,,,,,,,,,,,,,,,,,,,,,,,,,,,,,,,,,,,,,,,,,,,,
,,,,,,,,,,,,a,Correct!,,,,,,t2.png,t2.png,0,0.98115,21,female,2020-08-12_16h14.27.485,torte-2b,2020.1.3,Win32,60,13412,0.892005,,,,,0,90,90,69,1,,,,,,,,,,,,,,,,,,,,,,,,,,,,,,,,,,,,,,,,,,,,,,,,,,,,,,,,
,,,,,,,,,,,,a,Correct!,,,,,,t1.png,t1.png,0,0.978,21,female,2020-08-12_16h14.27.485,torte-2b,2020.1.3,Win32,60,13412,0.922575,,,,,0,91,91,22,1,,,,,,,,,,,,,,,,,,,,,,,,,,,,,,,,,,,,,,,,,,,,,,,,,,,,,,,,
,,,,,,,,,,,,a,Correct!,,,,,,t3.png,t4.png,1,0.90855,21,female,2020-08-12_16h14.27.485,torte-2b,2020.1.3,Win32,60,13412,1.92182,,,,,0,92,92,103,1,,,,,,,,,,,,,,,,,,,,,,,,,,,,,,,,,,,,,,,,,,,,,,,,,,,,,,,,
,,,,,,,,,,,,a,Correct!,,,,,,t2.png,t3.png,1,0.90855,21,female,2020-08-12_16h14.27.485,torte-2b,2020.1.3,Win32,60,13412,1.60549,,,,,0,93,93,70,1,,,,,,,,,,,,,,,,,,,,,,,,,,,,,,,,,,,,,,,,,,,,,,,,,,,,,,,,
,,,,,,,,,,,,l,Correct!,,,,,,t4.png,t1.png,3,0.0000131,21,female,2020-08-12_16h14.27.485,torte-2b,2020.1.3,Win32,60,13412,1.856385,,,,,0,94,94,49,1,,,,,,,,,,,,,,,,,,,,,,,,,,,,,,,,,,,,,,,,,,,,,,,,,,,,,,,,
,,,,,,,,,,,,l,Correct!,,,,,,t1.png,t5.png,4,9.55E-11,21,female,2020-08-12_16h14.27.485,torte-2b,2020.1.3,Win32,60,13412,1.13774,,,,,0,95,95,1,1,,,,,,,,,,,,,,,,,,,,,,,,,,,,,,,,,,,,,,,,,,,,,,,,,,,,,,,,
,,,,,,,,,,,,a,Correct!,,,,,,t2.png,t2.png,0,0.981,21,female,2020-08-12_16h14.27.485,torte-2b,2020.1.3,Win32,60,13412,1.648635,,,,,0,96,96,98,1,,,,,,,,,,,,,,,,,,,,,,,,,,,,,,,,,,,,,,,,,,,,,,,,,,,,,,,,
,,,,,,,,,,,,l,Incorrect,,,,,,t4.png,t5.png,1,0.9,21,female,2020-08-12_16h14.27.485,torte-2b,2020.1.3,Win32,60,13412,1.668445,,,,,0,97,97,81,1,,,,,,,,,,,,,,,,,,,,,,,,,,,,,,,,,,,,,,,,,,,,,,,,,,,,,,,,
,,,,,,,,,,,,l,Correct!,,,,,,t2.png,t5.png,3,0.0000131,21,female,2020-08-12_16h14.27.485,torte-2b,2020.1.3,Win32,60,13412,1.13654,,,,,0,98,98,46,1,,,,,,,,,,,,,,,,,,,,,,,,,,,,,,,,,,,,,,,,,,,,,,,,,,,,,,,,
,,,,,,,,,,,,a,Correct!,,,,,,t4.png,t5.png,1,0.90025,21,female,2020-08-12_16h14.27.485,torte-2b,2020.1.3,Win32,60,13412,1.14906,,,,,0,99,99,86,1,,,,,,,,,,,,,,,,,,,,,,,,,,,,,,,,,,,,,,,,,,,,,,,,,,,,,,,,
,,,,,,,,,,,,a,Correct!,,,,,,t3.png,t4.png,1,0.90855,21,female,2020-08-12_16h14.27.485,torte-2b,2020.1.3,Win32,60,13412,1.39317,,,,,0,100,100,111,1,,,,,,,,,,,,,,,,,,,,,,,,,,,,,,,,,,,,,,,,,,,,,,,,,,,,,,,,
,,,,,,,,,,,,a,Correct!,,,,,,t5.png,t5.png,0,0.97829,21,female,2020-08-12_16h14.27.485,torte-2b,2020.1.3,Win32,60,13412,0.688895,,,,,0,101,101,2,1,,,,,,,,,,,,,,,,,,,,,,,,,,,,,,,,,,,,,,,,,,,,,,,,,,,,,,,,
,,,,,,,,,,,,a,Incorrect,,,,,,t3.png,t4.png,1,0.90855,21,female,2020-08-12_16h14.27.485,torte-2b,2020.1.3,Win32,60,13412,1.466845,,,,,0,102,102,58,1,,,,,,,,,,,,,,,,,,,,,,,,,,,,,,,,,,,,,,,,,,,,,,,,,,,,,,,,
,,,,,,,,,,,,l,Correct!,,,,,,t5.png,t2.png,3,0.0000131,21,female,2020-08-12_16h14.27.485,torte-2b,2020.1.3,Win32,60,13412,0.81516,,,,,0,103,103,48,1,,,,,,,,,,,,,,,,,,,,,,,,,,,,,,,,,,,,,,,,,,,,,,,,,,,,,,,,
,,,,,,,,,,,,a,Correct!,,,,,,t2.png,t1.png,1,0.90025,21,female,2020-08-12_16h14.27.485,torte-2b,2020.1.3,Win32,60,13412,2.22593,,,,,0,104,104,65,1,,,,,,,,,,,,,,,,,,,,,,,,,,,,,,,,,,,,,,,,,,,,,,,,,,,,,,,,
,,,,,,,,,,,,l,Correct!,,,,,,t1.png,t5.png,4,9.55E-11,21,female,2020-08-12_16h14.27.485,torte-2b,2020.1.3,Win32,60,13412,1.365355,,,,,0,105,105,118,1,,,,,,,,,,,,,,,,,,,,,,,,,,,,,,,,,,,,,,,,,,,,,,,,,,,,,,,,
,,,,,,,,,,,,l,Correct!,,,,,,t5.png,t2.png,3,0.0000131,21,female,2020-08-12_16h14.27.485,torte-2b,2020.1.3,Win32,60,13412,2.29912,,,,,0,106,106,66,1,,,,,,,,,,,,,,,,,,,,,,,,,,,,,,,,,,,,,,,,,,,,,,,,,,,,,,,,
,,,,,,,,,,,,,Too slow :(,,,,,,t3.png,t5.png,2,0.056466,21,female,2020-08-12_16h14.27.485,torte-2b,2020.1.3,Win32,60,13412,,,,,,0,107,107,78,1,,,,,,,,,,,,,,,,,,,,,,,,,,,,,,,,,,,,,,,,,,,,,,,,,,,,,,,,
,,,,,,,,,,,,a,Correct!,,,,,,t4.png,t3.png,1,0.909,21,female,2020-08-12_16h14.27.485,torte-2b,2020.1.3,Win32,60,13412,1.623945,,,,,0,108,108,119,1,,,,,,,,,,,,,,,,,,,,,,,,,,,,,,,,,,,,,,,,,,,,,,,,,,,,,,,,
,,,,,,,,,,,,l,Correct!,,,,,,t1.png,t5.png,4,9.55E-11,21,female,2020-08-12_16h14.27.485,torte-2b,2020.1.3,Win32,60,13412,0.94031,,,,,0,109,109,3,1,,,,,,,,,,,,,,,,,,,,,,,,,,,,,,,,,,,,,,,,,,,,,,,,,,,,,,,,
,,,,,,,,,,,,a,Correct!,,,,,,t5.png,t5.png,0,0.97829,21,female,2020-08-12_16h14.27.485,torte-2b,2020.1.3,Win32,60,13412,0.94183,,,,,0,110,110,77,1,,,,,,,,,,,,,,,,,,,,,,,,,,,,,,,,,,,,,,,,,,,,,,,,,,,,,,,,
,,,,,,,,,,,,a,Incorrect,,,,,,t2.png,t4.png,2,0.059078,21,female,2020-08-12_16h14.27.485,torte-2b,2020.1.3,Win32,60,13412,2.06937,,,,,0,111,111,97,1,,,,,,,,,,,,,,,,,,,,,,,,,,,,,,,,,,,,,,,,,,,,,,,,,,,,,,,,
,,,,,,,,,,,,a,Correct!,,,,,,t1.png,t2.png,1,0.9,21,female,2020-08-12_16h14.27.485,torte-2b,2020.1.3,Win32,60,13412,1.256205,,,,,0,112,112,17,1,,,,,,,,,,,,,,,,,,,,,,,,,,,,,,,,,,,,,,,,,,,,,,,,,,,,,,,,
,,,,,,,,,,,,a,Correct!,,,,,,t3.png,t2.png,1,0.90855,21,female,2020-08-12_16h14.27.485,torte-2b,2020.1.3,Win32,60,13412,1.21624,,,,,0,113,113,99,1,,,,,,,,,,,,,,,,,,,,,,,,,,,,,,,,,,,,,,,,,,,,,,,,,,,,,,,,
,,,,,,,,,,,,l,Correct!,,,,,,t3.png,t5.png,2,0.056466,21,female,2020-08-12_16h14.27.485,torte-2b,2020.1.3,Win32,60,13412,0.87029,,,,,0,114,114,47,1,,,,,,,,,,,,,,,,,,,,,,,,,,,,,,,,,,,,,,,,,,,,,,,,,,,,,,,,
,,,,,,,,,,,,a,Correct!,,,,,,t1.png,t1.png,0,0.97829,21,female,2020-08-12_16h14.27.485,torte-2b,2020.1.3,Win32,60,13412,0.904205,,,,,0,115,115,114,1,,,,,,,,,,,,,,,,,,,,,,,,,,,,,,,,,,,,,,,,,,,,,,,,,,,,,,,,
,,,,,,,,,,,,a,Correct!,,,,,,t4.png,t4.png,0,0.98115,21,female,2020-08-12_16h14.27.485,torte-2b,2020.1.3,Win32,60,13412,0.958955,,,,,0,116,116,52,1,,,,,,,,,,,,,,,,,,,,,,,,,,,,,,,,,,,,,,,,,,,,,,,,,,,,,,,,
,,,,,,,,,,,,a,Incorrect,,,,,,t1.png,t2.png,1,0.90025,21,female,2020-08-12_16h14.27.485,torte-2b,2020.1.3,Win32,60,13412,1.233015,,,,,0,117,117,6,1,,,,,,,,,,,,,,,,,,,,,,,,,,,,,,,,,,,,,,,,,,,,,,,,,,,,,,,,
,,,,,,,,,,,,a,Correct!,,,,,,t2.png,t2.png,0,0.98115,21,female,2020-08-12_16h14.27.485,torte-2b,2020.1.3,Win32,60,13412,1.067805,,,,,0,118,118,90,1,,,,,,,,,,,,,,,,,,,,,,,,,,,,,,,,,,,,,,,,,,,,,,,,,,,,,,,,
,,,,,,,,,,,,a,Correct!,,,,,,t3.png,t4.png,1,0.90855,21,female,2020-08-12_16h14.27.485,torte-2b,2020.1.3,Win32,60,13412,1.866185,,,,,0,119,119,5,1,,,,,,,,,,,,,,,,,,,,,,,,,,,,,,,,,,,,,,,,,,,,,,,,,,,,,,,,
,,,,,,,,,,,,,,,,,,,,,,,21,female,2020-08-12_16h14.27.485,torte-2b,2020.1.3,Win32,60,13412,,space,3.161145,,,,,,,,space,169.54731,,0,0,0,0,1,6,,,,,,,,,,,,,,,,,,,,,,,,,,,,,,,,,,,,,,,,,,,,,,,
,,,,,,,,,,,,,,,,,,,,,,,21,female,2020-08-12_16h14.27.485,torte-2b,2020.1.3,Win32,60,13412,,,,,,,,,,,,,,0,1,1,1,1,7,,,,,,,,,,,,,,,,,,,,,,,,,,,,,,,,,,,,,,,,,,,,,,,
,,,,,,,,,,,,,,,,,,,,,,,21,female,2020-08-12_16h14.27.485,torte-2b,2020.1.3,Win32,60,13412,,,,,,,,,,,,,,0,2,2,2,1,6,,,,,,,,,,,,,,,,,,,,,,,,,,,,,,,,,,,,,,,,,,,,,,,
,,,,,,,,,,,,,,,,,,,,,,,21,female,2020-08-12_16h14.27.485,torte-2b,2020.1.3,Win32,60,13412,,,,,,,,,,,,,,0,3,3,3,1,7,,,,,,,,,,,,,,,,,,,,,,,,,,,,,,,,,,,,,,,,,,,,,,,
,,,,,,,,,,,,,,,,,,,,,,,21,female,2020-08-12_16h14.27.485,torte-2b,2020.1.3,Win32,60,13412,,,,,,,,,,,,,,0,4,4,4,1,5,,,,,,,,,,,,,,,,,,,,,,,,,,,,,,,,,,,,,,,,,,,,,,,
,,,,,,,,,,,,,,,,,,,,,,,21,female,2020-08-12_16h14.27.485,torte-2b,2020.1.3,Win32,60,13412,,,,,,,,,,,,,space,0,5,5,5,1,7,0.9884,,,,,,,,,,,,,,,,,,,,,,,,,,,,,,,,,,,,,,,,,,,,,,
,,,,,,,,,,,,,,,,,,,,,,,21,female,2020-08-12_16h14.27.485,torte-2b,2020.1.3,Win32,60,13412,,,,,,,,,,,,,,0,6,6,6,1,2,,,,,,,,,,,,,,,,,,,,,,,,,,,,,,,,,,,,,,,,,,,,,,,
,,,,,,,,,,,,,,,,,,,,,,,21,female,2020-08-12_16h14.27.485,torte-2b,2020.1.3,Win32,60,13412,,,,,,,,,,,,,,0,7,7,7,1,4,,,,,,,,,,,,,,,,,,,,,,,,,,,,,,,,,,,,,,,,,,,,,,,
,,,,,,,,,,,,,,,,,,,,,,,21,female,2020-08-12_16h14.27.485,torte-2b,2020.1.3,Win32,60,13412,,,,,,,,,,,,,,0,8,8,8,1,7,,,,,,,,,,,,,,,,,,,,,,,,,,,,,,,,,,,,,,,,,,,,,,,
,,,,,,,,,,,,,,,,,,,,,,,21,female,2020-08-12_16h14.27.485,torte-2b,2020.1.3,Win32,60,13412,,,,,,,,,,,,,,0,9,9,9,1,4,,,,,,,,,,,,,,,,,,,,,,,,,,,,,,,,,,,,,,,,,,,,,,,
,,,,,,,,,,,,,,,,,,,,,,,21,female,2020-08-12_16h14.27.485,torte-2b,2020.1.3,Win32,60,13412,,,,,,,,,,,,,space,0,10,10,10,1,7,0.5822,,,,,,,,,,,,,,,,,,,,,,,,,,,,,,,,,,,,,,,,,,,,,,
,,,,,,,,,,,,,,,,,,,,,,,21,female,2020-08-12_16h14.27.485,torte-2b,2020.1.3,Win32,60,13412,,,,,,,,,,,,,,0,11,11,11,1,7,,,,,,,,,,,,,,,,,,,,,,,,,,,,,,,,,,,,,,,,,,,,,,,
,,,,,,,,,,,,,,,,,,,,,,,21,female,2020-08-12_16h14.27.485,torte-2b,2020.1.3,Win32,60,13412,,,,,,,,,,,,,,0,12,12,12,1,7,,,,,,,,,,,,,,,,,,,,,,,,,,,,,,,,,,,,,,,,,,,,,,,
,,,,,,,,,,,,,,,,,,,,,,,21,female,2020-08-12_16h14.27.485,torte-2b,2020.1.3,Win32,60,13412,,,,,,,,,,,,,,0,13,13,13,1,4,,,,,,,,,,,,,,,,,,,,,,,,,,,,,,,,,,,,,,,,,,,,,,,
,,,,,,,,,,,,,,,,,,,,,,,21,female,2020-08-12_16h14.27.485,torte-2b,2020.1.3,Win32,60,13412,,,,,,,,,,,,,,0,14,14,14,1,6,,,,,,,,,,,,,,,,,,,,,,,,,,,,,,,,,,,,,,,,,,,,,,,
,,,,,,,,,,,,,,,,,,,,,,,21,female,2020-08-12_16h14.27.485,torte-2b,2020.1.3,Win32,60,13412,,,,,,,,,,,,,space,0,15,15,15,1,4,0.635575,,,,,,,,,,,,,,,,,,,,,,,,,,,,,,,,,,,,,,,,,,,,,,
,,,,,,,,,,,,,,,,,,,,,,,21,female,2020-08-12_16h14.27.485,torte-2b,2020.1.3,Win32,60,13412,,,,,,,,,,,,,,0,16,16,16,1,6,,,,,,,,,,,,,,,,,,,,,,,,,,,,,,,,,,,,,,,,,,,,,,,
,,,,,,,,,,,,,,,,,,,,,,,21,female,2020-08-12_16h14.27.485,torte-2b,2020.1.3,Win32,60,13412,,,,,,,,,,,,,space,0,17,17,17,1,7,0.53681,,,,,,,,,,,,,,,,,,,,,,,,,,,,,,,,,,,,,,,,,,,,,,
,,,,,,,,,,,,,,,,,,,,,,,21,female,2020-08-12_16h14.27.485,torte-2b,2020.1.3,Win32,60,13412,,,,,,,,,,,,,,0,18,18,18,1,6,,,,,,,,,,,,,,,,,,,,,,,,,,,,,,,,,,,,,,,,,,,,,,,
,,,,,,,,,,,,,,,,,,,,,,,21,female,2020-08-12_16h14.27.485,torte-2b,2020.1.3,Win32,60,13412,,,,,,,,,,,,,,0,19,19,19,1,7,,,,,,,,,,,,,,,,,,,,,,,,,,,,,,,,,,,,,,,,,,,,,,,
,,,,,,,,,,,,,,,,,,,,,,,21,female,2020-08-12_16h14.27.485,torte-2b,2020.1.3,Win32,60,13412,,,,,,,,,,,,,,0,20,20,20,1,5,,,,,,,,,,,,,,,,,,,,,,,,,,,,,,,,,,,,,,,,,,,,,,,
,,,,,,,,,,,,,,,,,,,,,,,21,female,2020-08-12_16h14.27.485,torte-2b,2020.1.3,Win32,60,13412,,,,,,,,,,,,,,0,21,21,21,1,1,,,,,,,,,,,,,,,,,,,,,,,,,,,,,,,,,,,,,,,,,,,,,,,
,,,,,,,,,,,,,,,,,,,,,,,21,female,2020-08-12_16h14.27.485,torte-2b,2020.1.3,Win32,60,13412,,,,,,,,,,,,,space,0,22,22,22,1,6,0.55675,,,,,,,,,,,,,,,,,,,,,,,,,,,,,,,,,,,,,,,,,,,,,,
,,,,,,,,,,,,,,,,,,,,,,,21,female,2020-08-12_16h14.27.485,torte-2b,2020.1.3,Win32,60,13412,,,,,,,,,,,,,,0,23,23,23,1,1,,,,,,,,,,,,,,,,,,,,,,,,,,,,,,,,,,,,,,,,,,,,,,,
,,,,,,,,,,,,,,,,,,,,,,,21,female,2020-08-12_16h14.27.485,torte-2b,2020.1.3,Win32,60,13412,,,,,,,,,,,,,,0,24,24,24,1,5,,,,,,,,,,,,,,,,,,,,,,,,,,,,,,,,,,,,,,,,,,,,,,,
,,,,,,,,,,,,,,,,,,,,,,,21,female,2020-08-12_16h14.27.485,torte-2b,2020.1.3,Win32,60,13412,,,,,,,,,,,,,,0,25,25,25,1,6,,,,,,,,,,,,,,,,,,,,,,,,,,,,,,,,,,,,,,,,,,,,,,,
,,,,,,,,,,,,,,,,,,,,,,,21,female,2020-08-12_16h14.27.485,torte-2b,2020.1.3,Win32,60,13412,,,,,,,,,,,,,,0,26,26,26,1,6,,,,,,,,,,,,,,,,,,,,,,,,,,,,,,,,,,,,,,,,,,,,,,,
,,,,,,,,,,,,,,,,,,,,,,,21,female,2020-08-12_16h14.27.485,torte-2b,2020.1.3,Win32,60,13412,,,,,,,,,,,,,space,0,27,27,27,1,6,0.347015,,,,,,,,,,,,,,,,,,,,,,,,,,,,,,,,,,,,,,,,,,,,,,
,,,,,,,,,,,,,,,,,,,,,,,21,female,2020-08-12_16h14.27.485,torte-2b,2020.1.3,Win32,60,13412,,,,,,,,,,,,,,0,28,28,28,1,5,,,,,,,,,,,,,,,,,,,,,,,,,,,,,,,,,,,,,,,,,,,,,,,
,,,,,,,,,,,,,,,,,,,,,,,21,female,2020-08-12_16h14.27.485,torte-2b,2020.1.3,Win32,60,13412,,,,,,,,,,,,,,0,29,29,29,1,2,,,,,,,,,,,,,,,,,,,,,,,,,,,,,,,,,,,,,,,,,,,,,,,
,,,,,,,,,,,,,,,,,,,,,,,21,female,2020-08-12_16h14.27.485,torte-2b,2020.1.3,Win32,60,13412,,,,,,,,,,,,,,0,30,30,30,1,5,,,,,,,,,,,,,,,,,,,,,,,,,,,,,,,,,,,,,,,,,,,,,,,
,,,,,,,,,,,,,,,,,,,,,,,21,female,2020-08-12_16h14.27.485,torte-2b,2020.1.3,Win32,60,13412,,,,,,,,,,,,,,0,31,31,31,1,2,,,,,,,,,,,,,,,,,,,,,,,,,,,,,,,,,,,,,,,,,,,,,,,
,,,,,,,,,,,,,,,,,,,,,,,21,female,2020-08-12_16h14.27.485,torte-2b,2020.1.3,Win32,60,13412,,,,,,,,,,,,,space,0,32,32,32,1,5,0.586375,,,,,,,,,,,,,,,,,,,,,,,,,,,,,,,,,,,,,,,,,,,,,,
,,,,,,,,,,,,,,,,,,,,,,,21,female,2020-08-12_16h14.27.485,torte-2b,2020.1.3,Win32,60,13412,,,,,,,,,,,,,space,0,33,33,33,1,1,0.48168,,,,,,,,,,,,,,,,,,,,,,,,,,,,,,,,,,,,,,,,,,,,,,
,,,,,,,,,,,,,,,,,,,,,,,21,female,2020-08-12_16h14.27.485,torte-2b,2020.1.3,Win32,60,13412,,,,,,,,,,,,,,0,34,34,34,1,1,,,,,,,,,,,,,,,,,,,,,,,,,,,,,,,,,,,,,,,,,,,,,,,
,,,,,,,,,,,,,,,,,,,,,,,21,female,2020-08-12_16h14.27.485,torte-2b,2020.1.3,Win32,60,13412,,,,,,,,,,,,,,,,,,,2,,0,0,0,0,1,,,,,,,,,,,,,,,,,,,,,,,,,,,,,,,,,,,,,,,,,
,,,,,,,,,,,,,,,,,,,,,,,21,female,2020-08-12_16h14.27.485,torte-2b,2020.1.3,Win32,60,13412,,,,,,,,,,,,,,,,,,,2,,0,1,1,1,1,,,,,,,,,,,,,,,,,,,,,,,,,,,,,,,,,,,,,,,,,
,,,,,,,,,,,,,,,,,,,,,,,21,female,2020-08-12_16h14.27.485,torte-2b,2020.1.3,Win32,60,13412,,,,,,,,,,,,,,,,,,,6,,0,2,2,2,1,,,,,,,,,,,,,,,,,,,,,,,,,,,,,,,,,,,,,,,,,
,,,,,,,,,,,,,,,,,,,,,,,21,female,2020-08-12_16h14.27.485,torte-2b,2020.1.3,Win32,60,13412,,,,,,,,,,,,,,,,,,,2,,0,3,3,3,1,,,,,,,,,,,,,,,,,,,,,,,,,,,,,,,,,,,,,,,,,
,,,,,,,,,,,,,,,,,,,,,,,21,female,2020-08-12_16h14.27.485,torte-2b,2020.1.3,Win32,60,13412,,,,,,,,,,,,,,,,,,,6,,0,4,4,4,1,,,,,,,,,,,,,,,,,,,,,,,,,,,,,,,,,,,,,,,,,
,,,,,,,,,,,,,,,,,,,,,,,21,female,2020-08-12_16h14.27.485,torte-2b,2020.1.3,Win32,60,13412,,,,,,,,,,,,,space,,,,,,2,0.36874,0,5,5,5,1,,,,,,,,,,,,,,,,,,,,,,,,,,,,,,,,,,,,,,,,,
,,,,,,,,,,,,,,,,,,,,,,,21,female,2020-08-12_16h14.27.485,torte-2b,2020.1.3,Win32,60,13412,,,,,,,,,,,,,space,,,,,,7,0.363735,0,6,6,6,1,,,,,,,,,,,,,,,,,,,,,,,,,,,,,,,,,,,,,,,,,
,,,,,,,,,,,,,,,,,,,,,,,21,female,2020-08-12_16h14.27.485,torte-2b,2020.1.3,Win32,60,13412,,,,,,,,,,,,,,,,,,,2,,0,7,7,7,1,,,,,,,,,,,,,,,,,,,,,,,,,,,,,,,,,,,,,,,,,
,,,,,,,,,,,,,,,,,,,,,,,21,female,2020-08-12_16h14.27.485,torte-2b,2020.1.3,Win32,60,13412,,,,,,,,,,,,,,,,,,,7,,0,8,8,8,1,,,,,,,,,,,,,,,,,,,,,,,,,,,,,,,,,,,,,,,,,
,,,,,,,,,,,,,,,,,,,,,,,21,female,2020-08-12_16h14.27.485,torte-2b,2020.1.3,Win32,60,13412,,,,,,,,,,,,,space,,,,,,2,0.83905,0,9,9,9,1,,,,,,,,,,,,,,,,,,,,,,,,,,,,,,,,,,,,,,,,,
,,,,,,,,,,,,,,,,,,,,,,,21,female,2020-08-12_16h14.27.485,torte-2b,2020.1.3,Win32,60,13412,,,,,,,,,,,,,,,,,,,5,,0,10,10,10,1,,,,,,,,,,,,,,,,,,,,,,,,,,,,,,,,,,,,,,,,,
,,,,,,,,,,,,,,,,,,,,,,,21,female,2020-08-12_16h14.27.485,torte-2b,2020.1.3,Win32,60,13412,,,,,,,,,,,,,,,,,,,4,,0,11,11,11,1,,,,,,,,,,,,,,,,,,,,,,,,,,,,,,,,,,,,,,,,,
,,,,,,,,,,,,,,,,,,,,,,,21,female,2020-08-12_16h14.27.485,torte-2b,2020.1.3,Win32,60,13412,,,,,,,,,,,,,space,,,,,,5,0.51399,0,12,12,12,1,,,,,,,,,,,,,,,,,,,,,,,,,,,,,,,,,,,,,,,,,
,,,,,,,,,,,,,,,,,,,,,,,21,female,2020-08-12_16h14.27.485,torte-2b,2020.1.3,Win32,60,13412,,,,,,,,,,,,,,,,,,,6,,0,13,13,13,1,,,,,,,,,,,,,,,,,,,,,,,,,,,,,,,,,,,,,,,,,
,,,,,,,,,,,,,,,,,,,,,,,21,female,2020-08-12_16h14.27.485,torte-2b,2020.1.3,Win32,60,13412,,,,,,,,,,,,,,,,,,,5,,0,14,14,14,1,,,,,,,,,,,,,,,,,,,,,,,,,,,,,,,,,,,,,,,,,
,,,,,,,,,,,,,,,,,,,,,,,21,female,2020-08-12_16h14.27.485,torte-2b,2020.1.3,Win32,60,13412,,,,,,,,,,,,,,,,,,,4,,0,15,15,15,1,,,,,,,,,,,,,,,,,,,,,,,,,,,,,,,,,,,,,,,,,
,,,,,,,,,,,,,,,,,,,,,,,21,female,2020-08-12_16h14.27.485,torte-2b,2020.1.3,Win32,60,13412,,,,,,,,,,,,,space,,,,,,5,0.698945,0,16,16,16,1,,,,,,,,,,,,,,,,,,,,,,,,,,,,,,,,,,,,,,,,,
,,,,,,,,,,,,,,,,,,,,,,,21,female,2020-08-12_16h14.27.485,torte-2b,2020.1.3,Win32,60,13412,,,,,,,,,,,,,,,,,,,3,,0,17,17,17,1,,,,,,,,,,,,,,,,,,,,,,,,,,,,,,,,,,,,,,,,,
,,,,,,,,,,,,,,,,,,,,,,,21,female,2020-08-12_16h14.27.485,torte-2b,2020.1.3,Win32,60,13412,,,,,,,,,,,,,,,,,,,6,,0,18,18,18,1,,,,,,,,,,,,,,,,,,,,,,,,,,,,,,,,,,,,,,,,,
,,,,,,,,,,,,,,,,,,,,,,,21,female,2020-08-12_16h14.27.485,torte-2b,2020.1.3,Win32,60,13412,,,,,,,,,,,,,,,,,,,6,,0,19,19,19,1,,,,,,,,,,,,,,,,,,,,,,,,,,,,,,,,,,,,,,,,,
,,,,,,,,,,,,,,,,,,,,,,,21,female,2020-08-12_16h14.27.485,torte-2b,2020.1.3,Win32,60,13412,,,,,,,,,,,,,space,,,,,,6,0.74733,0,20,20,20,1,,,,,,,,,,,,,,,,,,,,,,,,,,,,,,,,,,,,,,,,,
,,,,,,,,,,,,,,,,,,,,,,,21,female,2020-08-12_16h14.27.485,torte-2b,2020.1.3,Win32,60,13412,,,,,,,,,,,,,,,,,,,4,,0,21,21,21,1,,,,,,,,,,,,,,,,,,,,,,,,,,,,,,,,,,,,,,,,,
,,,,,,,,,,,,,,,,,,,,,,,21,female,2020-08-12_16h14.27.485,torte-2b,2020.1.3,Win32,60,13412,,,,,,,,,,,,,,,,,,,6,,0,22,22,22,1,,,,,,,,,,,,,,,,,,,,,,,,,,,,,,,,,,,,,,,,,
,,,,,,,,,,,,,,,,,,,,,,,21,female,2020-08-12_16h14.27.485,torte-2b,2020.1.3,Win32,60,13412,,,,,,,,,,,,,,,,,,,4,,0,23,23,23,1,,,,,,,,,,,,,,,,,,,,,,,,,,,,,,,,,,,,,,,,,
,,,,,,,,,,,,,,,,,,,,,,,21,female,2020-08-12_16h14.27.485,torte-2b,2020.1.3,Win32,60,13412,,,,,,,,,,,,,,,,,,,6,,0,24,24,24,1,,,,,,,,,,,,,,,,,,,,,,,,,,,,,,,,,,,,,,,,,
,,,,,,,,,,,,,,,,,,,,,,,21,female,2020-08-12_16h14.27.485,torte-2b,2020.1.3,Win32,60,13412,,,,,,,,,,,,,space,,,,,,6,0.418825,0,25,25,25,1,,,,,,,,,,,,,,,,,,,,,,,,,,,,,,,,,,,,,,,,,
,,,,,,,,,,,,,,,,,,,,,,,21,female,2020-08-12_16h14.27.485,torte-2b,2020.1.3,Win32,60,13412,,,,,,,,,,,,,,,,,,,7,,0,26,26,26,1,,,,,,,,,,,,,,,,,,,,,,,,,,,,,,,,,,,,,,,,,
,,,,,,,,,,,,,,,,,,,,,,,21,female,2020-08-12_16h14.27.485,torte-2b,2020.1.3,Win32,60,13412,,,,,,,,,,,,,,,,,,,1,,0,27,27,27,1,,,,,,,,,,,,,,,,,,,,,,,,,,,,,,,,,,,,,,,,,
,,,,,,,,,,,,,,,,,,,,,,,21,female,2020-08-12_16h14.27.485,torte-2b,2020.1.3,Win32,60,13412,,,,,,,,,,,,,space,,,,,,7,0.530555,0,28,28,28,1,,,,,,,,,,,,,,,,,,,,,,,,,,,,,,,,,,,,,,,,,
,,,,,,,,,,,,,,,,,,,,,,,21,female,2020-08-12_16h14.27.485,torte-2b,2020.1.3,Win32,60,13412,,,,,,,,,,,,,,,,,,,4,,0,29,29,29,1,,,,,,,,,,,,,,,,,,,,,,,,,,,,,,,,,,,,,,,,,
,,,,,,,,,,,,,,,,,,,,,,,21,female,2020-08-12_16h14.27.485,torte-2b,2020.1.3,Win32,60,13412,,,,,,,,,,,,,,,,,,,7,,0,30,30,30,1,,,,,,,,,,,,,,,,,,,,,,,,,,,,,,,,,,,,,,,,,
,,,,,,,,,,,,,,,,,,,,,,,21,female,2020-08-12_16h14.27.485,torte-2b,2020.1.3,Win32,60,13412,,,,,,,,,,,,,,,,,,,3,,0,31,31,31,1,,,,,,,,,,,,,,,,,,,,,,,,,,,,,,,,,,,,,,,,,
,,,,,,,,,,,,,,,,,,,,,,,21,female,2020-08-12_16h14.27.485,torte-2b,2020.1.3,Win32,60,13412,,,,,,,,,,,,,space,,,,,,2,0.69624,0,32,32,32,1,,,,,,,,,,,,,,,,,,,,,,,,,,,,,,,,,,,,,,,,,
,,,,,,,,,,,,,,,,,,,,,,,21,female,2020-08-12_16h14.27.485,torte-2b,2020.1.3,Win32,60,13412,,,,,,,,,,,,,,,,,,,6,,0,33,33,33,1,,,,,,,,,,,,,,,,,,,,,,,,,,,,,,,,,,,,,,,,,
,,,,,,,,,,,,,,,,,,,,,,,21,female,2020-08-12_16h14.27.485,torte-2b,2020.1.3,Win32,60,13412,,,,,,,,,,,,,space,,,,,,3,0.76376,0,34,34,34,1,,,,,,,,,,,,,,,,,,,,,,,,,,,,,,,,,,,,,,,,,
,,,,,,,,,,,,,,,,,,,,,,,21,female,2020-08-12_16h14.27.485,torte-2b,2020.1.3,Win32,60,13412,,,,,,,,,,,,,,,,,,,7,,,,,,,0,0,0,0,1,,,,,,,,,,,,,,,,,,,,,,,,,,,,,,,,,,,,
,,,,,,,,,,,,,,,,,,,,,,,21,female,2020-08-12_16h14.27.485,torte-2b,2020.1.3,Win32,60,13412,,,,,,,,,,,,,,,,,,,5,,,,,,,0,1,1,1,1,,,,,,,,,,,,,,,,,,,,,,,,,,,,,,,,,,,,
,,,,,,,,,,,,,,,,,,,,,,,21,female,2020-08-12_16h14.27.485,torte-2b,2020.1.3,Win32,60,13412,,,,,,,,,,,,,,,,,,,4,,,,,,,0,2,2,2,1,,,,,,,,,,,,,,,,,,,,,,,,,,,,,,,,,,,,
,,,,,,,,,,,,,,,,,,,,,,,21,female,2020-08-12_16h14.27.485,torte-2b,2020.1.3,Win32,60,13412,,,,,,,,,,,,,,,,,,,5,,,,,,,0,3,3,3,1,,,,,,,,,,,,,,,,,,,,,,,,,,,,,,,,,,,,
,,,,,,,,,,,,,,,,,,,,,,,21,female,2020-08-12_16h14.27.485,torte-2b,2020.1.3,Win32,60,13412,,,,,,,,,,,,,,,,,,,6,,,,,,,0,4,4,4,1,,,,,,,,,,,,,,,,,,,,,,,,,,,,,,,,,,,,
,,,,,,,,,,,,,,,,,,,,,,,21,female,2020-08-12_16h14.27.485,torte-2b,2020.1.3,Win32,60,13412,,,,,,,,,,,,,,,,,,,5,,,,,,,0,5,5,5,1,,,,,,,,,,,,,,,,,,,,,,,,,,,,,,,,,,,,
,,,,,,,,,,,,,,,,,,,,,,,21,female,2020-08-12_16h14.27.485,torte-2b,2020.1.3,Win32,60,13412,,,,,,,,,,,,,,,,,,,3,,,,,,,0,6,6,6,1,,,,,,,,,,,,,,,,,,,,,,,,,,,,,,,,,,,,
,,,,,,,,,,,,,,,,,,,,,,,21,female,2020-08-12_16h14.27.485,torte-2b,2020.1.3,Win32,60,13412,,,,,,,,,,,,,,,,,,,4,,,,,,,0,7,7,7,1,,,,,,,,,,,,,,,,,,,,,,,,,,,,,,,,,,,,
,,,,,,,,,,,,,,,,,,,,,,,21,female,2020-08-12_16h14.27.485,torte-2b,2020.1.3,Win32,60,13412,,,,,,,,,,,,,,,,,,,3,,,,,,,0,8,8,8,1,,,,,,,,,,,,,,,,,,,,,,,,,,,,,,,,,,,,
,,,,,,,,,,,,,,,,,,,,,,,21,female,2020-08-12_16h14.27.485,torte-2b,2020.1.3,Win32,60,13412,,,,,,,,,,,,,,,,,,,1,,,,,,,0,9,9,9,1,,,,,,,,,,,,,,,,,,,,,,,,,,,,,,,,,,,,
,,,,,,,,,,,,,,,,,,,,,,,21,female,2020-08-12_16h14.27.485,torte-2b,2020.1.3,Win32,60,13412,,,,,,,,,,,,,,,,,,,2,,,,,,,0,10,10,10,1,,,,,,,,,,,,,,,,,,,,,,,,,,,,,,,,,,,,
,,,,,,,,,,,,,,,,,,,,,,,21,female,2020-08-12_16h14.27.485,torte-2b,2020.1.3,Win32,60,13412,,,,,,,,,,,,,,,,,,,1,,,,,,,0,11,11,11,1,,,,,,,,,,,,,,,,,,,,,,,,,,,,,,,,,,,,
,,,,,,,,,,,,,,,,,,,,,,,21,female,2020-08-12_16h14.27.485,torte-2b,2020.1.3,Win32,60,13412,,,,,,,,,,,,,,,,,,,2,,,,,,,0,12,12,12,1,,,,,,,,,,,,,,,,,,,,,,,,,,,,,,,,,,,,
,,,,,,,,,,,,,,,,,,,,,,,21,female,2020-08-12_16h14.27.485,torte-2b,2020.1.3,Win32,60,13412,,,,,,,,,,,,,space,,,,,,1,0.566965,,,,,,0,13,13,13,1,,,,,,,,,,,,,,,,,,,,,,,,,,,,,,,,,,,,
,,,,,,,,,,,,,,,,,,,,,,,21,female,2020-08-12_16h14.27.485,torte-2b,2020.1.3,Win32,60,13412,,,,,,,,,,,,,,,,,,,3,,,,,,,0,14,14,14,1,,,,,,,,,,,,,,,,,,,,,,,,,,,,,,,,,,,,
,,,,,,,,,,,,,,,,,,,,,,,21,female,2020-08-12_16h14.27.485,torte-2b,2020.1.3,Win32,60,13412,,,,,,,,,,,,,,,,,,,1,,,,,,,0,15,15,15,1,,,,,,,,,,,,,,,,,,,,,,,,,,,,,,,,,,,,
,,,,,,,,,,,,,,,,,,,,,,,21,female,2020-08-12_16h14.27.485,torte-2b,2020.1.3,Win32,60,13412,,,,,,,,,,,,,,,,,,,7,,,,,,,0,16,16,16,1,,,,,,,,,,,,,,,,,,,,,,,,,,,,,,,,,,,,
,,,,,,,,,,,,,,,,,,,,,,,21,female,2020-08-12_16h14.27.485,torte-2b,2020.1.3,Win32,60,13412,,,,,,,,,,,,,space,,,,,,7,0.537415,,,,,,0,17,17,17,1,,,,,,,,,,,,,,,,,,,,,,,,,,,,,,,,,,,,
,,,,,,,,,,,,,,,,,,,,,,,21,female,2020-08-12_16h14.27.485,torte-2b,2020.1.3,Win32,60,13412,,,,,,,,,,,,,,,,,,,4,,,,,,,0,18,18,18,1,,,,,,,,,,,,,,,,,,,,,,,,,,,,,,,,,,,,
,,,,,,,,,,,,,,,,,,,,,,,21,female,2020-08-12_16h14.27.485,torte-2b,2020.1.3,Win32,60,13412,,,,,,,,,,,,,,,,,,,7,,,,,,,0,19,19,19,1,,,,,,,,,,,,,,,,,,,,,,,,,,,,,,,,,,,,
,,,,,,,,,,,,,,,,,,,,,,,21,female,2020-08-12_16h14.27.485,torte-2b,2020.1.3,Win32,60,13412,,,,,,,,,,,,,,,,,,,3,,,,,,,0,20,20,20,1,,,,,,,,,,,,,,,,,,,,,,,,,,,,,,,,,,,,
,,,,,,,,,,,,,,,,,,,,,,,21,female,2020-08-12_16h14.27.485,torte-2b,2020.1.3,Win32,60,13412,,,,,,,,,,,,,,,,,,,7,,,,,,,0,21,21,21,1,,,,,,,,,,,,,,,,,,,,,,,,,,,,,,,,,,,,
,,,,,,,,,,,,,,,,,,,,,,,21,female,2020-08-12_16h14.27.485,torte-2b,2020.1.3,Win32,60,13412,,,,,,,,,,,,,space,,,,,,3,0.530725,,,,,,0,22,22,22,1,,,,,,,,,,,,,,,,,,,,,,,,,,,,,,,,,,,,
,,,,,,,,,,,,,,,,,,,,,,,21,female,2020-08-12_16h14.27.485,torte-2b,2020.1.3,Win32,60,13412,,,,,,,,,,,,,,,,,,,1,,,,,,,0,23,23,23,1,,,,,,,,,,,,,,,,,,,,,,,,,,,,,,,,,,,,
,,,,,,,,,,,,,,,,,,,,,,,21,female,2020-08-12_16h14.27.485,torte-2b,2020.1.3,Win32,60,13412,,,,,,,,,,,,,space,,,,,,6,0.613565,,,,,,0,24,24,24,1,,,,,,,,,,,,,,,,,,,,,,,,,,,,,,,,,,,,
,,,,,,,,,,,,,,,,,,,,,,,21,female,2020-08-12_16h14.27.485,torte-2b,2020.1.3,Win32,60,13412,,,,,,,,,,,,,,,,,,,3,,,,,,,0,25,25,25,1,,,,,,,,,,,,,,,,,,,,,,,,,,,,,,,,,,,,
,,,,,,,,,,,,,,,,,,,,,,,21,female,2020-08-12_16h14.27.485,torte-2b,2020.1.3,Win32,60,13412,,,,,,,,,,,,,,,,,,,2,,,,,,,0,26,26,26,1,,,,,,,,,,,,,,,,,,,,,,,,,,,,,,,,,,,,
,,,,,,,,,,,,,,,,,,,,,,,21,female,2020-08-12_16h14.27.485,torte-2b,2020.1.3,Win32,60,13412,,,,,,,,,,,,,,,,,,,3,,,,,,,0,27,27,27,1,,,,,,,,,,,,,,,,,,,,,,,,,,,,,,,,,,,,
,,,,,,,,,,,,,,,,,,,,,,,21,female,2020-08-12_16h14.27.485,torte-2b,2020.1.3,Win32,60,13412,,,,,,,,,,,,,,,,,,,1,,,,,,,0,28,28,28,1,,,,,,,,,,,,,,,,,,,,,,,,,,,,,,,,,,,,
,,,,,,,,,,,,,,,,,,,,,,,21,female,2020-08-12_16h14.27.485,torte-2b,2020.1.3,Win32,60,13412,,,,,,,,,,,,,,,,,,,3,,,,,,,0,29,29,29,1,,,,,,,,,,,,,,,,,,,,,,,,,,,,,,,,,,,,
,,,,,,,,,,,,,,,,,,,,,,,21,female,2020-08-12_16h14.27.485,torte-2b,2020.1.3,Win32,60,13412,,,,,,,,,,,,,,,,,,,1,,,,,,,0,30,30,30,1,,,,,,,,,,,,,,,,,,,,,,,,,,,,,,,,,,,,
,,,,,,,,,,,,,,,,,,,,,,,21,female,2020-08-12_16h14.27.485,torte-2b,2020.1.3,Win32,60,13412,,,,,,,,,,,,,space,,,,,,7,0.523865,,,,,,0,31,31,31,1,,,,,,,,,,,,,,,,,,,,,,,,,,,,,,,,,,,,
,,,,,,,,,,,,,,,,,,,,,,,21,female,2020-08-12_16h14.27.485,torte-2b,2020.1.3,Win32,60,13412,,,,,,,,,,,,,,,,,,,5,,,,,,,0,32,32,32,1,,,,,,,,,,,,,,,,,,,,,,,,,,,,,,,,,,,,
,,,,,,,,,,,,,,,,,,,,,,,21,female,2020-08-12_16h14.27.485,torte-2b,2020.1.3,Win32,60,13412,,,,,,,,,,,,,,,,,,,7,,,,,,,0,33,33,33,1,,,,,,,,,,,,,,,,,,,,,,,,,,,,,,,,,,,,
,,,,,,,,,,,,,,,,,,,,,,,21,female,2020-08-12_16h14.27.485,torte-2b,2020.1.3,Win32,60,13412,,,,,,,,,,,,,,,,,,,2,,,,,,,0,34,34,34,1,,,,,,,,,,,,,,,,,,,,,,,,,,,,,,,,,,,,
,,,,,,,,,,,,,,,,,,,,,,,21,female,2020-08-12_16h14.27.485,torte-2b,2020.1.3,Win32,60,13412,,,,,,,,,,,,,,,,,,,3,,,,,,,,,,,,0,0,0,0,1,,,,,,,,,,,,,,,,,,,,,,,,,,,,,,,
,,,,,,,,,,,,,,,,,,,,,,,21,female,2020-08-12_16h14.27.485,torte-2b,2020.1.3,Win32,60,13412,,,,,,,,,,,,,,,,,,,7,,,,,,,,,,,,0,1,1,1,1,,,,,,,,,,,,,,,,,,,,,,,,,,,,,,,
,,,,,,,,,,,,,,,,,,,,,,,21,female,2020-08-12_16h14.27.485,torte-2b,2020.1.3,Win32,60,13412,,,,,,,,,,,,,,,,,,,7,,,,,,,,,,,,0,2,2,2,1,,,,,,,,,,,,,,,,,,,,,,,,,,,,,,,
,,,,,,,,,,,,,,,,,,,,,,,21,female,2020-08-12_16h14.27.485,torte-2b,2020.1.3,Win32,60,13412,,,,,,,,,,,,,,,,,,,4,,,,,,,,,,,,0,3,3,3,1,,,,,,,,,,,,,,,,,,,,,,,,,,,,,,,
,,,,,,,,,,,,,,,,,,,,,,,21,female,2020-08-12_16h14.27.485,torte-2b,2020.1.3,Win32,60,13412,,,,,,,,,,,,,,,,,,,5,,,,,,,,,,,,0,4,4,4,1,,,,,,,,,,,,,,,,,,,,,,,,,,,,,,,
,,,,,,,,,,,,,,,,,,,,,,,21,female,2020-08-12_16h14.27.485,torte-2b,2020.1.3,Win32,60,13412,,,,,,,,,,,,,,,,,,,4,,,,,,,,,,,,0,5,5,5,1,,,,,,,,,,,,,,,,,,,,,,,,,,,,,,,
,,,,,,,,,,,,,,,,,,,,,,,21,female,2020-08-12_16h14.27.485,torte-2b,2020.1.3,Win32,60,13412,,,,,,,,,,,,,,,,,,,2,,,,,,,,,,,,0,6,6,6,1,,,,,,,,,,,,,,,,,,,,,,,,,,,,,,,
,,,,,,,,,,,,,,,,,,,,,,,21,female,2020-08-12_16h14.27.485,torte-2b,2020.1.3,Win32,60,13412,,,,,,,,,,,,,,,,,,,4,,,,,,,,,,,,0,7,7,7,1,,,,,,,,,,,,,,,,,,,,,,,,,,,,,,,
,,,,,,,,,,,,,,,,,,,,,,,21,female,2020-08-12_16h14.27.485,torte-2b,2020.1.3,Win32,60,13412,,,,,,,,,,,,,,,,,,,2,,,,,,,,,,,,0,8,8,8,1,,,,,,,,,,,,,,,,,,,,,,,,,,,,,,,
,,,,,,,,,,,,,,,,,,,,,,,21,female,2020-08-12_16h14.27.485,torte-2b,2020.1.3,Win32,60,13412,,,,,,,,,,,,,space,,,,,,2,0.76924,,,,,,,,,,,0,9,9,9,1,,,,,,,,,,,,,,,,,,,,,,,,,,,,,,,
,,,,,,,,,,,,,,,,,,,,,,,21,female,2020-08-12_16h14.27.485,torte-2b,2020.1.3,Win32,60,13412,,,,,,,,,,,,,,,,,,,6,,,,,,,,,,,,0,10,10,10,1,,,,,,,,,,,,,,,,,,,,,,,,,,,,,,,
,,,,,,,,,,,,,,,,,,,,,,,21,female,2020-08-12_16h14.27.485,torte-2b,2020.1.3,Win32,60,13412,,,,,,,,,,,,,,,,,,,2,,,,,,,,,,,,0,11,11,11,1,,,,,,,,,,,,,,,,,,,,,,,,,,,,,,,
,,,,,,,,,,,,,,,,,,,,,,,21,female,2020-08-12_16h14.27.485,torte-2b,2020.1.3,Win32,60,13412,,,,,,,,,,,,,,,,,,,2,,,,,,,,,,,,0,12,12,12,1,,,,,,,,,,,,,,,,,,,,,,,,,,,,,,,
,,,,,,,,,,,,,,,,,,,,,,,21,female,2020-08-12_16h14.27.485,torte-2b,2020.1.3,Win32,60,13412,,,,,,,,,,,,,space,,,,,,2,0.34709,,,,,,,,,,,0,13,13,13,1,,,,,,,,,,,,,,,,,,,,,,,,,,,,,,,
,,,,,,,,,,,,,,,,,,,,,,,21,female,2020-08-12_16h14.27.485,torte-2b,2020.1.3,Win32,60,13412,,,,,,,,,,,,,,,,,,,2,,,,,,,,,,,,0,14,14,14,1,,,,,,,,,,,,,,,,,,,,,,,,,,,,,,,
,,,,,,,,,,,,,,,,,,,,,,,21,female,2020-08-12_16h14.27.485,torte-2b,2020.1.3,Win32,60,13412,,,,,,,,,,,,,,,,,,,4,,,,,,,,,,,,0,15,15,15,1,,,,,,,,,,,,,,,,,,,,,,,,,,,,,,,
,,,,,,,,,,,,,,,,,,,,,,,21,female,2020-08-12_16h14.27.485,torte-2b,2020.1.3,Win32,60,13412,,,,,,,,,,,,,,,,,,,3,,,,,,,,,,,,0,16,16,16,1,,,,,,,,,,,,,,,,,,,,,,,,,,,,,,,
,,,,,,,,,,,,,,,,,,,,,,,21,female,2020-08-12_16h14.27.485,torte-2b,2020.1.3,Win32,60,13412,,,,,,,,,,,,,space,,,,,,7,0.58088,,,,,,,,,,,0,17,17,17,1,,,,,,,,,,,,,,,,,,,,,,,,,,,,,,,
,,,,,,,,,,,,,,,,,,,,,,,21,female,2020-08-12_16h14.27.485,torte-2b,2020.1.3,Win32,60,13412,,,,,,,,,,,,,,,,,,,4,,,,,,,,,,,,0,18,18,18,1,,,,,,,,,,,,,,,,,,,,,,,,,,,,,,,
,,,,,,,,,,,,,,,,,,,,,,,21,female,2020-08-12_16h14.27.485,torte-2b,2020.1.3,Win32,60,13412,,,,,,,,,,,,,,,,,,,7,,,,,,,,,,,,0,19,19,19,1,,,,,,,,,,,,,,,,,,,,,,,,,,,,,,,
,,,,,,,,,,,,,,,,,,,,,,,21,female,2020-08-12_16h14.27.485,torte-2b,2020.1.3,Win32,60,13412,,,,,,,,,,,,,,,,,,,7,,,,,,,,,,,,0,20,20,20,1,,,,,,,,,,,,,,,,,,,,,,,,,,,,,,,
,,,,,,,,,,,,,,,,,,,,,,,21,female,2020-08-12_16h14.27.485,torte-2b,2020.1.3,Win32,60,13412,,,,,,,,,,,,,,,,,,,7,,,,,,,,,,,,0,21,21,21,1,,,,,,,,,,,,,,,,,,,,,,,,,,,,,,,
,,,,,,,,,,,,,,,,,,,,,,,21,female,2020-08-12_16h14.27.485,torte-2b,2020.1.3,Win32,60,13412,,,,,,,,,,,,,space,,,,,,7,0.380675,,,,,,,,,,,0,22,22,22,1,,,,,,,,,,,,,,,,,,,,,,,,,,,,,,,
,,,,,,,,,,,,,,,,,,,,,,,21,female,2020-08-12_16h14.27.485,torte-2b,2020.1.3,Win32,60,13412,,,,,,,,,,,,,,,,,,,1,,,,,,,,,,,,0,23,23,23,1,,,,,,,,,,,,,,,,,,,,,,,,,,,,,,,
,,,,,,,,,,,,,,,,,,,,,,,21,female,2020-08-12_16h14.27.485,torte-2b,2020.1.3,Win32,60,13412,,,,,,,,,,,,,,,,,,,7,,,,,,,,,,,,0,24,24,24,1,,,,,,,,,,,,,,,,,,,,,,,,,,,,,,,
,,,,,,,,,,,,,,,,,,,,,,,21,female,2020-08-12_16h14.27.485,torte-2b,2020.1.3,Win32,60,13412,,,,,,,,,,,,,,,,,,,1,,,,,,,,,,,,0,25,25,25,1,,,,,,,,,,,,,,,,,,,,,,,,,,,,,,,
,,,,,,,,,,,,,,,,,,,,,,,21,female,2020-08-12_16h14.27.485,torte-2b,2020.1.3,Win32,60,13412,,,,,,,,,,,,,,,,,,,7,,,,,,,,,,,,0,26,26,26,1,,,,,,,,,,,,,,,,,,,,,,,,,,,,,,,
,,,,,,,,,,,,,,,,,,,,,,,21,female,2020-08-12_16h14.27.485,torte-2b,2020.1.3,Win32,60,13412,,,,,,,,,,,,,space,,,,,,2,0.95618,,,,,,,,,,,0,27,27,27,1,,,,,,,,,,,,,,,,,,,,,,,,,,,,,,,
,,,,,,,,,,,,,,,,,,,,,,,21,female,2020-08-12_16h14.27.485,torte-2b,2020.1.3,Win32,60,13412,,,,,,,,,,,,,,,,,,,5,,,,,,,,,,,,0,28,28,28,1,,,,,,,,,,,,,,,,,,,,,,,,,,,,,,,
,,,,,,,,,,,,,,,,,,,,,,,21,female,2020-08-12_16h14.27.485,torte-2b,2020.1.3,Win32,60,13412,,,,,,,,,,,,,,,,,,,5,,,,,,,,,,,,0,29,29,29,1,,,,,,,,,,,,,,,,,,,,,,,,,,,,,,,
,,,,,,,,,,,,,,,,,,,,,,,21,female,2020-08-12_16h14.27.485,torte-2b,2020.1.3,Win32,60,13412,,,,,,,,,,,,,,,,,,,5,,,,,,,,,,,,0,30,30,30,1,,,,,,,,,,,,,,,,,,,,,,,,,,,,,,,
,,,,,,,,,,,,,,,,,,,,,,,21,female,2020-08-12_16h14.27.485,torte-2b,2020.1.3,Win32,60,13412,,,,,,,,,,,,,space,,,,,,1,0.484225,,,,,,,,,,,0,31,31,31,1,,,,,,,,,,,,,,,,,,,,,,,,,,,,,,,
,,,,,,,,,,,,,,,,,,,,,,,21,female,2020-08-12_16h14.27.485,torte-2b,2020.1.3,Win32,60,13412,,,,,,,,,,,,,,,,,,,5,,,,,,,,,,,,0,32,32,32,1,,,,,,,,,,,,,,,,,,,,,,,,,,,,,,,
,,,,,,,,,,,,,,,,,,,,,,,21,female,2020-08-12_16h14.27.485,torte-2b,2020.1.3,Win32,60,13412,,,,,,,,,,,,,,,,,,,3,,,,,,,,,,,,0,33,33,33,1,,,,,,,,,,,,,,,,,,,,,,,,,,,,,,,
,,,,,,,,,,,,,,,,,,,,,,,21,female,2020-08-12_16h14.27.485,torte-2b,2020.1.3,Win32,60,13412,,,,,,,,,,,,,,,,,,,3,,,,,,,,,,,,0,34,34,34,1,,,,,,,,,,,,,,,,,,,,,,,,,,,,,,,
,,,,,,,,,,,,a,Correct!,,,,,,t1.png,t2.png,1,0.9,21,female,2020-08-12_16h14.27.485,torte-2b,2020.1.3,Win32,60,13412,1.321145,space,1.90299,,,,,,,,,,,,,,,,,,,,,,,,,,,,,,,,,space,15.122125,0,0,0,61,1,,,,,,,,,,,,,,,,,,,,,,,,
,,,,,,,,,,,,l,Correct!,,,,,,t4.png,t1.png,3,0.059078,21,female,2020-08-12_16h14.27.485,torte-2b,2020.1.3,Win32,60,13412,0.7668,,,,,,,,,,,,,,,,,,,,,,,,,,,,,,,,,,,,,0,1,1,57,1,,,,,,,,,,,,,,,,,,,,,,,,
,,,,,,,,,,,,a,Correct!,,,,,,t5.png,t5.png,0,0.97829,21,female,2020-08-12_16h14.27.485,torte-2b,2020.1.3,Win32,60,13412,0.706645,,,,,,,,,,,,,,,,,,,,,,,,,,,,,,,,,,,,,0,2,2,2,1,,,,,,,,,,,,,,,,,,,,,,,,
,,,,,,,,,,,,a,Correct!,,,,,,t5.png,t5.png,0,0.978,21,female,2020-08-12_16h14.27.485,torte-2b,2020.1.3,Win32,60,13412,0.69933,,,,,,,,,,,,,,,,,,,,,,,,,,,,,,,,,,,,,0,3,3,116,1,,,,,,,,,,,,,,,,,,,,,,,,
,,,,,,,,,,,,l,Correct!,,,,,,t5.png,t1.png,4,9.55E-11,21,female,2020-08-12_16h14.27.485,torte-2b,2020.1.3,Win32,60,13412,0.607815,,,,,,,,,,,,,,,,,,,,,,,,,,,,,,,,,,,,,0,4,4,101,1,,,,,,,,,,,,,,,,,,,,,,,,
,,,,,,,,,,,,a,Incorrect,,,,,,t5.png,t3.png,2,0.056466,21,female,2020-08-12_16h14.27.485,torte-2b,2020.1.3,Win32,60,13412,1.46764,,,,,,,,,,,,,,,,,,,,,,,,,,,,,,,,,,,,,0,5,5,80,1,,,,,,,,,,,,,,,,,,,,,,,,
,,,,,,,,,,,,a,Correct!,,,,,,t3.png,t4.png,1,0.90855,21,female,2020-08-12_16h14.27.485,torte-2b,2020.1.3,Win32,60,13412,1.355705,,,,,,,,,,,,,,,,,,,,,,,,,,,,,,,,,,,,,0,6,6,111,1,,,,,,,,,,,,,,,,,,,,,,,,
,,,,,,,,,,,,a,Correct!,,,,,,t3.png,t2.png,1,0.90855,21,female,2020-08-12_16h14.27.485,torte-2b,2020.1.3,Win32,60,13412,0.92511,,,,,,,,,,,,,,,,,,,,,,,,,,,,,,,,,,,,,0,7,7,99,1,,,,,,,,,,,,,,,,,,,,,,,,
,,,,,,,,,,,,l,Correct!,,,,,,t1.png,t3.png,2,0.0565,21,female,2020-08-12_16h14.27.485,torte-2b,2020.1.3,Win32,60,13412,1.187115,,,,,,,,,,,,,,,,,,,,,,,,,,,,,,,,,,,,,0,8,8,12,1,,,,,,,,,,,,,,,,,,,,,,,,
,,,,,,,,,,,,a,Correct!,,,,,,t4.png,t5.png,1,0.90025,21,female,2020-08-12_16h14.27.485,torte-2b,2020.1.3,Win32,60,13412,1.150355,,,,,,,,,,,,,,,,,,,,,,,,,,,,,,,,,,,,,0,9,9,33,1,,,,,,,,,,,,,,,,,,,,,,,,
,,,,,,,,,,,,l,Incorrect,,,,,,t3.png,t1.png,2,0.056466,21,female,2020-08-12_16h14.27.485,torte-2b,2020.1.3,Win32,60,13412,0.788635,,,,,,,,,,,,,,,,,,,,,,,,,,,,,,,,,,,,,0,10,10,72,1,,,,,,,,,,,,,,,,,,,,,,,,
,,,,,,,,,,,,l,Correct!,,,,,,t2.png,t4.png,2,0.059078,21,female,2020-08-12_16h14.27.485,torte-2b,2020.1.3,Win32,60,13412,1.252945,,,,,,,,,,,,,,,,,,,,,,,,,,,,,,,,,,,,,0,11,11,97,1,,,,,,,,,,,,,,,,,,,,,,,,
,,,,,,,,,,,,l,Correct!,,,,,,t4.png,t1.png,3,0.0000131,21,female,2020-08-12_16h14.27.485,torte-2b,2020.1.3,Win32,60,13412,1.46542,,,,,,,,,,,,,,,,,,,,,,,,,,,,,,,,,,,,,0,12,12,49,1,,,,,,,,,,,,,,,,,,,,,,,,
,,,,,,,,,,,,a,Correct!,,,,,,t4.png,t4.png,0,0.98115,21,female,2020-08-12_16h14.27.485,torte-2b,2020.1.3,Win32,60,13412,1.96615,,,,,,,,,,,,,,,,,,,,,,,,,,,,,,,,,,,,,0,13,13,19,1,,,,,,,,,,,,,,,,,,,,,,,,
,,,,,,,,,,,,l,Correct!,,,,,,t4.png,t1.png,3,0.059078,21,female,2020-08-12_16h14.27.485,torte-2b,2020.1.3,Win32,60,13412,0.75645,,,,,,,,,,,,,,,,,,,,,,,,,,,,,,,,,,,,,0,14,14,62,1,,,,,,,,,,,,,,,,,,,,,,,,
,,,,,,,,,,,,a,Correct!,,,,,,t4.png,t4.png,0,0.98115,21,female,2020-08-12_16h14.27.485,torte-2b,2020.1.3,Win32,60,13412,1.455225,,,,,,,,,,,,,,,,,,,,,,,,,,,,,,,,,,,,,0,15,15,68,1,,,,,,,,,,,,,,,,,,,,,,,,
,,,,,,,,,,,,l,Correct!,,,,,,t3.png,t1.png,2,0.056466,21,female,2020-08-12_16h14.27.485,torte-2b,2020.1.3,Win32,60,13412,0.872635,,,,,,,,,,,,,,,,,,,,,,,,,,,,,,,,,,,,,0,16,16,34,1,,,,,,,,,,,,,,,,,,,,,,,,
,,,,,,,,,,,,a,Incorrect,,,,,,t3.png,t4.png,1,0.90855,21,female,2020-08-12_16h14.27.485,torte-2b,2020.1.3,Win32,60,13412,1.69877,,,,,,,,,,,,,,,,,,,,,,,,,,,,,,,,,,,,,0,17,17,103,1,,,,,,,,,,,,,,,,,,,,,,,,
,,,,,,,,,,,,l,Correct!,,,,,,t3.png,t5.png,2,0.056466,21,female,2020-08-12_16h14.27.485,torte-2b,2020.1.3,Win32,60,13412,1.4421,,,,,,,,,,,,,,,,,,,,,,,,,,,,,,,,,,,,,0,18,18,47,1,,,,,,,,,,,,,,,,,,,,,,,,
,,,,,,,,,,,,l,Correct!,,,,,,t1.png,t3.png,2,0.0565,21,female,2020-08-12_16h14.27.485,torte-2b,2020.1.3,Win32,60,13412,0.817175,,,,,,,,,,,,,,,,,,,,,,,,,,,,,,,,,,,,,0,19,19,95,1,,,,,,,,,,,,,,,,,,,,,,,,
,,,,,,,,,,,,l,Correct!,,,,,,t1.png,t4.png,3,0.0000131,21,female,2020-08-12_16h14.27.485,torte-2b,2020.1.3,Win32,60,13412,0.68273,,,,,,,,,,,,,,,,,,,,,,,,,,,,,,,,,,,,,0,20,20,74,1,,,,,,,,,,,,,,,,,,,,,,,,
,,,,,,,,,,,,l,Correct!,,,,,,t3.png,t5.png,2,0.056466,21,female,2020-08-12_16h14.27.485,torte-2b,2020.1.3,Win32,60,13412,1.6887,,,,,,,,,,,,,,,,,,,,,,,,,,,,,,,,,,,,,0,21,21,45,1,,,,,,,,,,,,,,,,,,,,,,,,
,,,,,,,,,,,,l,Correct!,,,,,,t5.png,t3.png,2,0.056466,21,female,2020-08-12_16h14.27.485,torte-2b,2020.1.3,Win32,60,13412,1.076365,,,,,,,,,,,,,,,,,,,,,,,,,,,,,,,,,,,,,0,22,22,26,1,,,,,,,,,,,,,,,,,,,,,,,,
,,,,,,,,,,,,a,Correct!,,,,,,t4.png,t4.png,0,0.98115,21,female,2020-08-12_16h14.27.485,torte-2b,2020.1.3,Win32,60,13412,1.08838,,,,,,,,,,,,,,,,,,,,,,,,,,,,,,,,,,,,,0,23,23,59,1,,,,,,,,,,,,,,,,,,,,,,,,
,,,,,,,,,,,,l,Correct!,,,,,,t3.png,t1.png,2,0.0565,21,female,2020-08-12_16h14.27.485,torte-2b,2020.1.3,Win32,60,13412,0.626285,,,,,,,,,,,,,,,,,,,,,,,,,,,,,,,,,,,,,0,24,24,104,1,,,,,,,,,,,,,,,,,,,,,,,,
,,,,,,,,,,,,a,Correct!,,,,,,t4.png,t3.png,1,0.90855,21,female,2020-08-12_16h14.27.485,torte-2b,2020.1.3,Win32,60,13412,0.82154,,,,,,,,,,,,,,,,,,,,,,,,,,,,,,,,,,,,,0,25,25,56,1,,,,,,,,,,,,,,,,,,,,,,,,
,,,,,,,,,,,,l,Correct!,,,,,,t4.png,t1.png,3,0.0000131,21,female,2020-08-12_16h14.27.485,torte-2b,2020.1.3,Win32,60,13412,0.68538,,,,,,,,,,,,,,,,,,,,,,,,,,,,,,,,,,,,,0,26,26,76,1,,,,,,,,,,,,,,,,,,,,,,,,
,,,,,,,,,,,,a,Correct!,,,,,,t4.png,t4.png,0,0.98115,21,female,2020-08-12_16h14.27.485,torte-2b,2020.1.3,Win32,60,13412,0.788195,,,,,,,,,,,,,,,,,,,,,,,,,,,,,,,,,,,,,0,27,27,52,1,,,,,,,,,,,,,,,,,,,,,,,,
,,,,,,,,,,,,l,Correct!,,,,,,t2.png,t5.png,3,0.0000131,21,female,2020-08-12_16h14.27.485,torte-2b,2020.1.3,Win32,60,13412,0.65521,,,,,,,,,,,,,,,,,,,,,,,,,,,,,,,,,,,,,0,28,28,85,1,,,,,,,,,,,,,,,,,,,,,,,,
,,,,,,,,,,,,a,Correct!,,,,,,t3.png,t2.png,1,0.90855,21,female,2020-08-12_16h14.27.485,torte-2b,2020.1.3,Win32,60,13412,1.132765,,,,,,,,,,,,,,,,,,,,,,,,,,,,,,,,,,,,,0,29,29,0,1,,,,,,,,,,,,,,,,,,,,,,,,
,,,,,,,,,,,,l,Correct!,,,,,,t4.png,t1.png,3,0.059078,21,female,2020-08-12_16h14.27.485,torte-2b,2020.1.3,Win32,60,13412,1.049675,,,,,,,,,,,,,,,,,,,,,,,,,,,,,,,,,,,,,0,30,30,75,1,,,,,,,,,,,,,,,,,,,,,,,,
,,,,,,,,,,,,l,Correct!,,,,,,t1.png,t5.png,4,9.55E-11,21,female,2020-08-12_16h14.27.485,torte-2b,2020.1.3,Win32,60,13412,0.87293,,,,,,,,,,,,,,,,,,,,,,,,,,,,,,,,,,,,,0,31,31,30,1,,,,,,,,,,,,,,,,,,,,,,,,
,,,,,,,,,,,,a,Incorrect,,,,,,t5.png,t3.png,2,0.0565,21,female,2020-08-12_16h14.27.485,torte-2b,2020.1.3,Win32,60,13412,1.255425,,,,,,,,,,,,,,,,,,,,,,,,,,,,,,,,,,,,,0,32,32,50,1,,,,,,,,,,,,,,,,,,,,,,,,
,,,,,,,,,,,,l,Correct!,,,,,,t5.png,t1.png,4,9.55E-11,21,female,2020-08-12_16h14.27.485,torte-2b,2020.1.3,Win32,60,13412,0.787125,,,,,,,,,,,,,,,,,,,,,,,,,,,,,,,,,,,,,0,33,33,89,1,,,,,,,,,,,,,,,,,,,,,,,,
,,,,,,,,,,,,l,Correct!,,,,,,t1.png,t4.png,3,0.0000131,21,female,2020-08-12_16h14.27.485,torte-2b,2020.1.3,Win32,60,13412,0.73641,,,,,,,,,,,,,,,,,,,,,,,,,,,,,,,,,,,,,0,34,34,23,1,,,,,,,,,,,,,,,,,,,,,,,,
,,,,,,,,,,,,a,Correct!,,,,,,t2.png,t3.png,1,0.90855,21,female,2020-08-12_16h14.27.485,torte-2b,2020.1.3,Win32,60,13412,1.4213,,,,,,,,,,,,,,,,,,,,,,,,,,,,,,,,,,,,,0,35,35,70,1,,,,,,,,,,,,,,,,,,,,,,,,
,,,,,,,,,,,,l,Correct!,,,,,,t5.png,t1.png,4,9.55E-11,21,female,2020-08-12_16h14.27.485,torte-2b,2020.1.3,Win32,60,13412,0.925925,,,,,,,,,,,,,,,,,,,,,,,,,,,,,,,,,,,,,0,36,36,31,1,,,,,,,,,,,,,,,,,,,,,,,,
,,,,,,,,,,,,l,Correct!,,,,,,t2.png,t5.png,3,0.0000131,21,female,2020-08-12_16h14.27.485,torte-2b,2020.1.3,Win32,60,13412,1.03346,,,,,,,,,,,,,,,,,,,,,,,,,,,,,,,,,,,,,0,37,37,46,1,,,,,,,,,,,,,,,,,,,,,,,,
,,,,,,,,,,,,l,Correct!,,,,,,t5.png,t3.png,2,0.056466,21,female,2020-08-12_16h14.27.485,torte-2b,2020.1.3,Win32,60,13412,1.19878,,,,,,,,,,,,,,,,,,,,,,,,,,,,,,,,,,,,,0,38,38,27,1,,,,,,,,,,,,,,,,,,,,,,,,
,,,,,,,,,,,,l,Correct!,,,,,,t4.png,t1.png,3,0.0000131,21,female,2020-08-12_16h14.27.485,torte-2b,2020.1.3,Win32,60,13412,0.571235,,,,,,,,,,,,,,,,,,,,,,,,,,,,,,,,,,,,,0,39,39,28,1,,,,,,,,,,,,,,,,,,,,,,,,
,,,,,,,,,,,,l,Correct!,,,,,,t5.png,t2.png,3,0.0000131,21,female,2020-08-12_16h14.27.485,torte-2b,2020.1.3,Win32,60,13412,1.307365,,,,,,,,,,,,,,,,,,,,,,,,,,,,,,,,,,,,,0,40,40,66,1,,,,,,,,,,,,,,,,,,,,,,,,
,,,,,,,,,,,,a,Correct!,,,,,,t1.png,t1.png,0,0.978,21,female,2020-08-12_16h14.27.485,torte-2b,2020.1.3,Win32,60,13412,0.633745,,,,,,,,,,,,,,,,,,,,,,,,,,,,,,,,,,,,,0,41,41,13,1,,,,,,,,,,,,,,,,,,,,,,,,
,,,,,,,,,,,,a,Correct!,,,,,,t2.png,t2.png,0,0.98115,21,female,2020-08-12_16h14.27.485,torte-2b,2020.1.3,Win32,60,13412,0.84801,,,,,,,,,,,,,,,,,,,,,,,,,,,,,,,,,,,,,0,42,42,90,1,,,,,,,,,,,,,,,,,,,,,,,,
,,,,,,,,,,,,l,Correct!,,,,,,t2.png,t5.png,3,0.0000131,21,female,2020-08-12_16h14.27.485,torte-2b,2020.1.3,Win32,60,13412,1.29881,,,,,,,,,,,,,,,,,,,,,,,,,,,,,,,,,,,,,0,43,43,115,1,,,,,,,,,,,,,,,,,,,,,,,,
,,,,,,,,,,,,l,Correct!,,,,,,t5.png,t2.png,3,0.0000131,21,female,2020-08-12_16h14.27.485,torte-2b,2020.1.3,Win32,60,13412,0.76573,,,,,,,,,,,,,,,,,,,,,,,,,,,,,,,,,,,,,0,44,44,48,1,,,,,,,,,,,,,,,,,,,,,,,,
,,,,,,,,,,,,a,Correct!,,,,,,t4.png,t3.png,1,0.909,21,female,2020-08-12_16h14.27.485,torte-2b,2020.1.3,Win32,60,13412,1.55214,,,,,,,,,,,,,,,,,,,,,,,,,,,,,,,,,,,,,0,45,45,107,1,,,,,,,,,,,,,,,,,,,,,,,,
,,,,,,,,,,,,l,Correct!,,,,,,t3.png,t5.png,2,0.056466,21,female,2020-08-12_16h14.27.485,torte-2b,2020.1.3,Win32,60,13412,0.82279,,,,,,,,,,,,,,,,,,,,,,,,,,,,,,,,,,,,,0,46,46,78,1,,,,,,,,,,,,,,,,,,,,,,,,
,,,,,,,,,,,,a,Correct!,,,,,,t2.png,t2.png,0,0.98115,21,female,2020-08-12_16h14.27.485,torte-2b,2020.1.3,Win32,60,13412,0.75212,,,,,,,,,,,,,,,,,,,,,,,,,,,,,,,,,,,,,0,47,47,112,1,,,,,,,,,,,,,,,,,,,,,,,,
,,,,,,,,,,,,a,Correct!,,,,,,t1.png,t1.png,0,0.97829,21,female,2020-08-12_16h14.27.485,torte-2b,2020.1.3,Win32,60,13412,0.70504,,,,,,,,,,,,,,,,,,,,,,,,,,,,,,,,,,,,,0,48,48,4,1,,,,,,,,,,,,,,,,,,,,,,,,
,,,,,,,,,,,,a,Correct!,,,,,,t3.png,t2.png,1,0.90855,21,female,2020-08-12_16h14.27.485,torte-2b,2020.1.3,Win32,60,13412,0.73193,,,,,,,,,,,,,,,,,,,,,,,,,,,,,,,,,,,,,0,49,49,108,1,,,,,,,,,,,,,,,,,,,,,,,,
,,,,,,,,,,,,l,Correct!,,,,,,t1.png,t3.png,2,0.056466,21,female,2020-08-12_16h14.27.485,torte-2b,2020.1.3,Win32,60,13412,1.167655,,,,,,,,,,,,,,,,,,,,,,,,,,,,,,,,,,,,,0,50,50,32,1,,,,,,,,,,,,,,,,,,,,,,,,
,,,,,,,,,,,,l,Correct!,,,,,,t3.png,t5.png,2,0.0565,21,female,2020-08-12_16h14.27.485,torte-2b,2020.1.3,Win32,60,13412,1.755795,,,,,,,,,,,,,,,,,,,,,,,,,,,,,,,,,,,,,0,51,51,71,1,,,,,,,,,,,,,,,,,,,,,,,,
,,,,,,,,,,,,a,Correct!,,,,,,t3.png,t2.png,1,0.90855,21,female,2020-08-12_16h14.27.485,torte-2b,2020.1.3,Win32,60,13412,1.131195,,,,,,,,,,,,,,,,,,,,,,,,,,,,,,,,,,,,,0,52,52,10,1,,,,,,,,,,,,,,,,,,,,,,,,
,,,,,,,,,,,,a,Correct!,,,,,,t4.png,t5.png,1,0.90025,21,female,2020-08-12_16h14.27.485,torte-2b,2020.1.3,Win32,60,13412,1.215825,,,,,,,,,,,,,,,,,,,,,,,,,,,,,,,,,,,,,0,53,53,21,1,,,,,,,,,,,,,,,,,,,,,,,,
,,,,,,,,,,,,l,Correct!,,,,,,t1.png,t3.png,2,0.0565,21,female,2020-08-12_16h14.27.485,torte-2b,2020.1.3,Win32,60,13412,0.76229,,,,,,,,,,,,,,,,,,,,,,,,,,,,,,,,,,,,,0,54,54,42,1,,,,,,,,,,,,,,,,,,,,,,,,
,,,,,,,,,,,,a,Correct!,,,,,,t4.png,t3.png,1,0.90855,21,female,2020-08-12_16h14.27.485,torte-2b,2020.1.3,Win32,60,13412,1.51574,,,,,,,,,,,,,,,,,,,,,,,,,,,,,,,,,,,,,0,55,55,29,1,,,,,,,,,,,,,,,,,,,,,,,,
,,,,,,,,,,,,a,Correct!,,,,,,t4.png,t5.png,1,0.90025,21,female,2020-08-12_16h14.27.485,torte-2b,2020.1.3,Win32,60,13412,1.401755,,,,,,,,,,,,,,,,,,,,,,,,,,,,,,,,,,,,,0,56,56,86,1,,,,,,,,,,,,,,,,,,,,,,,,
,,,,,,,,,,,,l,Correct!,,,,,,t5.png,t2.png,3,0.0000131,21,female,2020-08-12_16h14.27.485,torte-2b,2020.1.3,Win32,60,13412,1.28799,,,,,,,,,,,,,,,,,,,,,,,,,,,,,,,,,,,,,0,57,57,43,1,,,,,,,,,,,,,,,,,,,,,,,,
,,,,,,,,,,,,l,Correct!,,,,,,t1.png,t4.png,3,0.0000131,21,female,2020-08-12_16h14.27.485,torte-2b,2020.1.3,Win32,60,13412,1.215,,,,,,,,,,,,,,,,,,,,,,,,,,,,,,,,,,,,,0,58,58,36,1,,,,,,,,,,,,,,,,,,,,,,,,
,,,,,,,,,,,,l,Correct!,,,,,,t2.png,t5.png,3,0.0000131,21,female,2020-08-12_16h14.27.485,torte-2b,2020.1.3,Win32,60,13412,1.03818,,,,,,,,,,,,,,,,,,,,,,,,,,,,,,,,,,,,,0,59,59,39,1,,,,,,,,,,,,,,,,,,,,,,,,
,,,,,,,,,,,,a,Correct!,,,,,,t3.png,t4.png,1,0.90855,21,female,2020-08-12_16h14.27.485,torte-2b,2020.1.3,Win32,60,13412,1.286755,,,,,,,,,,,,,,,,,,,,,,,,,,,,,,,,,,,,,0,60,60,9,1,,,,,,,,,,,,,,,,,,,,,,,,
,,,,,,,,,,,,l,Correct!,,,,,,t1.png,t5.png,4,9.55E-11,21,female,2020-08-12_16h14.27.485,torte-2b,2020.1.3,Win32,60,13412,0.90504,,,,,,,,,,,,,,,,,,,,,,,,,,,,,,,,,,,,,0,61,61,3,1,,,,,,,,,,,,,,,,,,,,,,,,
,,,,,,,,,,,,a,Correct!,,,,,,t5.png,t5.png,0,0.97829,21,female,2020-08-12_16h14.27.485,torte-2b,2020.1.3,Win32,60,13412,0.89884,,,,,,,,,,,,,,,,,,,,,,,,,,,,,,,,,,,,,0,62,62,77,1,,,,,,,,,,,,,,,,,,,,,,,,
,,,,,,,,,,,,l,Correct!,,,,,,t3.png,t1.png,2,0.056466,21,female,2020-08-12_16h14.27.485,torte-2b,2020.1.3,Win32,60,13412,0.63496,,,,,,,,,,,,,,,,,,,,,,,,,,,,,,,,,,,,,0,63,63,109,1,,,,,,,,,,,,,,,,,,,,,,,,
,,,,,,,,,,,,a,Correct!,,,,,,t5.png,t4.png,1,0.9,21,female,2020-08-12_16h14.27.485,torte-2b,2020.1.3,Win32,60,13412,0.66801,,,,,,,,,,,,,,,,,,,,,,,,,,,,,,,,,,,,,0,64,64,92,1,,,,,,,,,,,,,,,,,,,,,,,,
,,,,,,,,,,,,a,Correct!,,,,,,t1.png,t2.png,1,0.9,21,female,2020-08-12_16h14.27.485,torte-2b,2020.1.3,Win32,60,13412,1.19902,,,,,,,,,,,,,,,,,,,,,,,,,,,,,,,,,,,,,0,65,65,17,1,,,,,,,,,,,,,,,,,,,,,,,,
,,,,,,,,,,,,a,Correct!,,,,,,t4.png,t3.png,1,0.909,21,female,2020-08-12_16h14.27.485,torte-2b,2020.1.3,Win32,60,13412,1.78198,,,,,,,,,,,,,,,,,,,,,,,,,,,,,,,,,,,,,0,66,66,119,1,,,,,,,,,,,,,,,,,,,,,,,,
,,,,,,,,,,,,a,Correct!,,,,,,t3.png,t4.png,1,0.90855,21,female,2020-08-12_16h14.27.485,torte-2b,2020.1.3,Win32,60,13412,1.38239,,,,,,,,,,,,,,,,,,,,,,,,,,,,,,,,,,,,,0,67,67,5,1,,,,,,,,,,,,,,,,,,,,,,,,
,,,,,,,,,,,,l,Correct!,,,,,,t4.png,t1.png,3,0.059078,21,female,2020-08-12_16h14.27.485,torte-2b,2020.1.3,Win32,60,13412,0.663895,,,,,,,,,,,,,,,,,,,,,,,,,,,,,,,,,,,,,0,68,68,73,1,,,,,,,,,,,,,,,,,,,,,,,,
,,,,,,,,,,,,l,Correct!,,,,,,t5.png,t2.png,3,0.0000131,21,female,2020-08-12_16h14.27.485,torte-2b,2020.1.3,Win32,60,13412,0.79088,,,,,,,,,,,,,,,,,,,,,,,,,,,,,,,,,,,,,0,69,69,83,1,,,,,,,,,,,,,,,,,,,,,,,,
,,,,,,,,,,,,a,Correct!,,,,,,t5.png,t4.png,1,0.90025,21,female,2020-08-12_16h14.27.485,torte-2b,2020.1.3,Win32,60,13412,0.839,,,,,,,,,,,,,,,,,,,,,,,,,,,,,,,,,,,,,0,70,70,38,1,,,,,,,,,,,,,,,,,,,,,,,,
,,,,,,,,,,,,l,Correct!,,,,,,t1.png,t5.png,4,9.55E-11,21,female,2020-08-12_16h14.27.485,torte-2b,2020.1.3,Win32,60,13412,0.707535,,,,,,,,,,,,,,,,,,,,,,,,,,,,,,,,,,,,,0,71,71,1,1,,,,,,,,,,,,,,,,,,,,,,,,
,,,,,,,,,,,,l,Correct!,,,,,,t5.png,t3.png,2,0.056466,21,female,2020-08-12_16h14.27.485,torte-2b,2020.1.3,Win32,60,13412,1.40984,,,,,,,,,,,,,,,,,,,,,,,,,,,,,,,,,,,,,0,72,72,37,1,,,,,,,,,,,,,,,,,,,,,,,,
,,,,,,,,,,,,l,Correct!,,,,,,t2.png,t4.png,2,0.059078,21,female,2020-08-12_16h14.27.485,torte-2b,2020.1.3,Win32,60,13412,0.965595,,,,,,,,,,,,,,,,,,,,,,,,,,,,,,,,,,,,,0,73,73,84,1,,,,,,,,,,,,,,,,,,,,,,,,
,,,,,,,,,,,,a,Correct!,,,,,,t1.png,t1.png,0,0.97829,21,female,2020-08-12_16h14.27.485,torte-2b,2020.1.3,Win32,60,13412,0.779735,,,,,,,,,,,,,,,,,,,,,,,,,,,,,,,,,,,,,0,74,74,114,1,,,,,,,,,,,,,,,,,,,,,,,,
,,,,,,,,,,,,l,Incorrect,,,,,,t4.png,t3.png,1,0.90855,21,female,2020-08-12_16h14.27.485,torte-2b,2020.1.3,Win32,60,13412,1.149245,,,,,,,,,,,,,,,,,,,,,,,,,,,,,,,,,,,,,0,75,75,11,1,,,,,,,,,,,,,,,,,,,,,,,,
,,,,,,,,,,,,a,Correct!,,,,,,t2.png,t2.png,0,0.981,21,female,2020-08-12_16h14.27.485,torte-2b,2020.1.3,Win32,60,13412,0.902155,,,,,,,,,,,,,,,,,,,,,,,,,,,,,,,,,,,,,0,76,76,98,1,,,,,,,,,,,,,,,,,,,,,,,,
,,,,,,,,,,,,a,Correct!,,,,,,t2.png,t1.png,1,0.90025,21,female,2020-08-12_16h14.27.485,torte-2b,2020.1.3,Win32,60,13412,1.30145,,,,,,,,,,,,,,,,,,,,,,,,,,,,,,,,,,,,,0,77,77,44,1,,,,,,,,,,,,,,,,,,,,,,,,
,,,,,,,,,,,,a,Correct!,,,,,,t4.png,t5.png,1,0.9,21,female,2020-08-12_16h14.27.485,torte-2b,2020.1.3,Win32,60,13412,1.07888,,,,,,,,,,,,,,,,,,,,,,,,,,,,,,,,,,,,,0,78,78,81,1,,,,,,,,,,,,,,,,,,,,,,,,
,,,,,,,,,,,,a,Incorrect,,,,,,t1.png,t2.png,1,0.90025,21,female,2020-08-12_16h14.27.485,torte-2b,2020.1.3,Win32,60,13412,1.137675,,,,,,,,,,,,,,,,,,,,,,,,,,,,,,,,,,,,,0,79,79,96,1,,,,,,,,,,,,,,,,,,,,,,,,
,,,,,,,,,,,,a,Correct!,,,,,,t5.png,t4.png,1,0.90025,21,female,2020-08-12_16h14.27.485,torte-2b,2020.1.3,Win32,60,13412,0.975785,,,,,,,,,,,,,,,,,,,,,,,,,,,,,,,,,,,,,0,80,80,25,1,,,,,,,,,,,,,,,,,,,,,,,,
,,,,,,,,,,,,a,Correct!,,,,,,t2.png,t3.png,1,0.90855,21,female,2020-08-12_16h14.27.485,torte-2b,2020.1.3,Win32,60,13412,1.718095,,,,,,,,,,,,,,,,,,,,,,,,,,,,,,,,,,,,,0,81,81,113,1,,,,,,,,,,,,,,,,,,,,,,,,
,,,,,,,,,,,,a,Correct!,,,,,,t5.png,t4.png,1,0.90025,21,female,2020-08-12_16h14.27.485,torte-2b,2020.1.3,Win32,60,13412,0.906255,,,,,,,,,,,,,,,,,,,,,,,,,,,,,,,,,,,,,0,82,82,14,1,,,,,,,,,,,,,,,,,,,,,,,,
,,,,,,,,,,,,a,Correct!,,,,,,t1.png,t1.png,0,0.97829,21,female,2020-08-12_16h14.27.485,torte-2b,2020.1.3,Win32,60,13412,0.671705,,,,,,,,,,,,,,,,,,,,,,,,,,,,,,,,,,,,,0,83,83,110,1,,,,,,,,,,,,,,,,,,,,,,,,
,,,,,,,,,,,,l,Correct!,,,,,,t5.png,t1.png,4,9.55E-11,21,female,2020-08-12_16h14.27.485,torte-2b,2020.1.3,Win32,60,13412,0.865585,,,,,,,,,,,,,,,,,,,,,,,,,,,,,,,,,,,,,0,84,84,15,1,,,,,,,,,,,,,,,,,,,,,,,,
,,,,,,,,,,,,l,Correct!,,,,,,t2.png,t4.png,2,0.059078,21,female,2020-08-12_16h14.27.485,torte-2b,2020.1.3,Win32,60,13412,0.83332,,,,,,,,,,,,,,,,,,,,,,,,,,,,,,,,,,,,,0,85,85,53,1,,,,,,,,,,,,,,,,,,,,,,,,
,,,,,,,,,,,,a,Correct!,,,,,,t2.png,t1.png,1,0.9,21,female,2020-08-12_16h14.27.485,torte-2b,2020.1.3,Win32,60,13412,0.8488,,,,,,,,,,,,,,,,,,,,,,,,,,,,,,,,,,,,,0,86,86,93,1,,,,,,,,,,,,,,,,,,,,,,,,
,,,,,,,,,,,,l,Correct!,,,,,,t1.png,t5.png,4,9.55E-11,21,female,2020-08-12_16h14.27.485,torte-2b,2020.1.3,Win32,60,13412,1.11695,,,,,,,,,,,,,,,,,,,,,,,,,,,,,,,,,,,,,0,87,87,20,1,,,,,,,,,,,,,,,,,,,,,,,,
,,,,,,,,,,,,a,Correct!,,,,,,t2.png,t3.png,1,0.90855,21,female,2020-08-12_16h14.27.485,torte-2b,2020.1.3,Win32,60,13412,1.68461,,,,,,,,,,,,,,,,,,,,,,,,,,,,,,,,,,,,,0,88,88,64,1,,,,,,,,,,,,,,,,,,,,,,,,
,,,,,,,,,,,,l,Correct!,,,,,,t1.png,t4.png,3,0.0000131,21,female,2020-08-12_16h14.27.485,torte-2b,2020.1.3,Win32,60,13412,0.864835,,,,,,,,,,,,,,,,,,,,,,,,,,,,,,,,,,,,,0,89,89,106,1,,,,,,,,,,,,,,,,,,,,,,,,
,,,,,,,,,,,,l,Correct!,,,,,,t4.png,t1.png,3,0.059078,21,female,2020-08-12_16h14.27.485,torte-2b,2020.1.3,Win32,60,13412,0.824865,,,,,,,,,,,,,,,,,,,,,,,,,,,,,,,,,,,,,0,90,90,87,1,,,,,,,,,,,,,,,,,,,,,,,,
,,,,,,,,,,,,a,Correct!,,,,,,t1.png,t2.png,1,0.90025,21,female,2020-08-12_16h14.27.485,torte-2b,2020.1.3,Win32,60,13412,0.982555,,,,,,,,,,,,,,,,,,,,,,,,,,,,,,,,,,,,,0,91,91,6,1,,,,,,,,,,,,,,,,,,,,,,,,
,,,,,,,,,,,,a,Correct!,,,,,,t2.png,t2.png,0,0.98115,21,female,2020-08-12_16h14.27.485,torte-2b,2020.1.3,Win32,60,13412,1.249125,,,,,,,,,,,,,,,,,,,,,,,,,,,,,,,,,,,,,0,92,92,69,1,,,,,,,,,,,,,,,,,,,,,,,,
,,,,,,,,,,,,l,Incorrect,,,,,,t2.png,t4.png,2,0.059078,21,female,2020-08-12_16h14.27.485,torte-2b,2020.1.3,Win32,60,13412,0.870265,,,,,,,,,,,,,,,,,,,,,,,,,,,,,,,,,,,,,0,93,93,67,1,,,,,,,,,,,,,,,,,,,,,,,,
,,,,,,,,,,,,l,Correct!,,,,,,t5.png,t1.png,4,9.55E-11,21,female,2020-08-12_16h14.27.485,torte-2b,2020.1.3,Win32,60,13412,0.804655,,,,,,,,,,,,,,,,,,,,,,,,,,,,,,,,,,,,,0,94,94,117,1,,,,,,,,,,,,,,,,,,,,,,,,
,,,,,,,,,,,,a,Correct!,,,,,,t4.png,t4.png,0,0.98115,21,female,2020-08-12_16h14.27.485,torte-2b,2020.1.3,Win32,60,13412,0.736705,,,,,,,,,,,,,,,,,,,,,,,,,,,,,,,,,,,,,0,95,95,88,1,,,,,,,,,,,,,,,,,,,,,,,,
,,,,,,,,,,,,l,Correct!,,,,,,t2.png,t4.png,2,0.059078,21,female,2020-08-12_16h14.27.485,torte-2b,2020.1.3,Win32,60,13412,0.821655,,,,,,,,,,,,,,,,,,,,,,,,,,,,,,,,,,,,,0,96,96,18,1,,,,,,,,,,,,,,,,,,,,,,,,
,,,,,,,,,,,,l,Correct!,,,,,,t1.png,t5.png,4,9.55E-11,21,female,2020-08-12_16h14.27.485,torte-2b,2020.1.3,Win32,60,13412,0.599135,,,,,,,,,,,,,,,,,,,,,,,,,,,,,,,,,,,,,0,97,97,118,1,,,,,,,,,,,,,,,,,,,,,,,,
,,,,,,,,,,,,a,Correct!,,,,,,t2.png,t3.png,1,0.909,21,female,2020-08-12_16h14.27.485,torte-2b,2020.1.3,Win32,60,13412,1.398625,,,,,,,,,,,,,,,,,,,,,,,,,,,,,,,,,,,,,0,98,98,8,1,,,,,,,,,,,,,,,,,,,,,,,,
,,,,,,,,,,,,a,Correct!,,,,,,t1.png,t2.png,1,0.9,21,female,2020-08-12_16h14.27.485,torte-2b,2020.1.3,Win32,60,13412,1.50295,,,,,,,,,,,,,,,,,,,,,,,,,,,,,,,,,,,,,0,99,99,41,1,,,,,,,,,,,,,,,,,,,,,,,,
,,,,,,,,,,,,a,Correct!,,,,,,t2.png,t1.png,1,0.90025,21,female,2020-08-12_16h14.27.485,torte-2b,2020.1.3,Win32,60,13412,0.84937,,,,,,,,,,,,,,,,,,,,,,,,,,,,,,,,,,,,,0,100,100,105,1,,,,,,,,,,,,,,,,,,,,,,,,
,,,,,,,,,,,,a,Incorrect,,,,,,t4.png,t5.png,1,0.90025,21,female,2020-08-12_16h14.27.485,torte-2b,2020.1.3,Win32,60,13412,1.47455,,,,,,,,,,,,,,,,,,,,,,,,,,,,,,,,,,,,,0,101,101,63,1,,,,,,,,,,,,,,,,,,,,,,,,
,,,,,,,,,,,,a,Correct!,,,,,,t2.png,t1.png,1,0.9,21,female,2020-08-12_16h14.27.485,torte-2b,2020.1.3,Win32,60,13412,1.182145,,,,,,,,,,,,,,,,,,,,,,,,,,,,,,,,,,,,,0,102,102,100,1,,,,,,,,,,,,,,,,,,,,,,,,
,,,,,,,,,,,,l,Correct!,,,,,,t4.png,t1.png,3,0.0000131,21,female,2020-08-12_16h14.27.485,torte-2b,2020.1.3,Win32,60,13412,0.76772,,,,,,,,,,,,,,,,,,,,,,,,,,,,,,,,,,,,,0,103,103,102,1,,,,,,,,,,,,,,,,,,,,,,,,
,,,,,,,,,,,,a,Correct!,,,,,,t5.png,t5.png,0,0.97829,21,female,2020-08-12_16h14.27.485,torte-2b,2020.1.3,Win32,60,13412,0.88262,,,,,,,,,,,,,,,,,,,,,,,,,,,,,,,,,,,,,0,104,104,35,1,,,,,,,,,,,,,,,,,,,,,,,,
,,,,,,,,,,,,a,Correct!,,,,,,t5.png,t4.png,1,0.9,21,female,2020-08-12_16h14.27.485,torte-2b,2020.1.3,Win32,60,13412,0.8153,,,,,,,,,,,,,,,,,,,,,,,,,,,,,,,,,,,,,0,105,105,55,1,,,,,,,,,,,,,,,,,,,,,,,,
,,,,,,,,,,,,l,Correct!,,,,,,t5.png,t2.png,3,0.0000131,21,female,2020-08-12_16h14.27.485,torte-2b,2020.1.3,Win32,60,13412,0.842155,,,,,,,,,,,,,,,,,,,,,,,,,,,,,,,,,,,,,0,106,106,82,1,,,,,,,,,,,,,,,,,,,,,,,,
,,,,,,,,,,,,a,Correct!,,,,,,t3.png,t2.png,1,0.90855,21,female,2020-08-12_16h14.27.485,torte-2b,2020.1.3,Win32,60,13412,1.41606,,,,,,,,,,,,,,,,,,,,,,,,,,,,,,,,,,,,,0,107,107,94,1,,,,,,,,,,,,,,,,,,,,,,,,
,,,,,,,,,,,,l,Correct!,,,,,,t1.png,t3.png,2,0.056466,21,female,2020-08-12_16h14.27.485,torte-2b,2020.1.3,Win32,60,13412,1.100625,,,,,,,,,,,,,,,,,,,,,,,,,,,,,,,,,,,,,0,108,108,24,1,,,,,,,,,,,,,,,,,,,,,,,,
,,,,,,,,,,,,a,Correct!,,,,,,t5.png,t5.png,0,0.978,21,female,2020-08-12_16h14.27.485,torte-2b,2020.1.3,Win32,60,13412,0.6166,,,,,,,,,,,,,,,,,,,,,,,,,,,,,,,,,,,,,0,109,109,51,1,,,,,,,,,,,,,,,,,,,,,,,,
,,,,,,,,,,,,,Too slow :(,,,,,,t3.png,t5.png,2,0.056466,21,female,2020-08-12_16h14.27.485,torte-2b,2020.1.3,Win32,60,13412,,,,,,,,,,,,,,,,,,,,,,,,,,,,,,,,,,,,,,0,110,110,60,1,,,,,,,,,,,,,,,,,,,,,,,,
,,,,,,,,,,,,l,Correct!,,,,,,t1.png,t4.png,3,0.0000131,21,female,2020-08-12_16h14.27.485,torte-2b,2020.1.3,Win32,60,13412,0.741185,,,,,,,,,,,,,,,,,,,,,,,,,,,,,,,,,,,,,0,111,111,16,1,,,,,,,,,,,,,,,,,,,,,,,,
,,,,,,,,,,,,l,Correct!,,,,,,t3.png,t1.png,2,0.0565,21,female,2020-08-12_16h14.27.485,torte-2b,2020.1.3,Win32,60,13412,0.94028,,,,,,,,,,,,,,,,,,,,,,,,,,,,,,,,,,,,,0,112,112,40,1,,,,,,,,,,,,,,,,,,,,,,,,
,,,,,,,,,,,,a,Correct!,,,,,,t3.png,t4.png,1,0.90855,21,female,2020-08-12_16h14.27.485,torte-2b,2020.1.3,Win32,60,13412,1.46767,,,,,,,,,,,,,,,,,,,,,,,,,,,,,,,,,,,,,0,113,113,58,1,,,,,,,,,,,,,,,,,,,,,,,,
,,,,,,,,,,,,a,Correct!,,,,,,t2.png,t2.png,0,0.98115,21,female,2020-08-12_16h14.27.485,torte-2b,2020.1.3,Win32,60,13412,0.91608,,,,,,,,,,,,,,,,,,,,,,,,,,,,,,,,,,,,,0,114,114,7,1,,,,,,,,,,,,,,,,,,,,,,,,
,,,,,,,,,,,,l,Correct!,,,,,,t4.png,t1.png,3,0.0000131,21,female,2020-08-12_16h14.27.485,torte-2b,2020.1.3,Win32,60,13412,0.704475,,,,,,,,,,,,,,,,,,,,,,,,,,,,,,,,,,,,,0,115,115,91,1,,,,,,,,,,,,,,,,,,,,,,,,
,,,,,,,,,,,,a,Correct!,,,,,,t1.png,t1.png,0,0.978,21,female,2020-08-12_16h14.27.485,torte-2b,2020.1.3,Win32,60,13412,0.592955,,,,,,,,,,,,,,,,,,,,,,,,,,,,,,,,,,,,,0,116,116,22,1,,,,,,,,,,,,,,,,,,,,,,,,
,,,,,,,,,,,,a,Correct!,,,,,,t2.png,t1.png,1,0.90025,21,female,2020-08-12_16h14.27.485,torte-2b,2020.1.3,Win32,60,13412,0.520045,,,,,,,,,,,,,,,,,,,,,,,,,,,,,,,,,,,,,0,117,117,65,1,,,,,,,,,,,,,,,,,,,,,,,,
,,,,,,,,,,,,a,Correct!,,,,,,t2.png,t3.png,1,0.90855,21,female,2020-08-12_16h14.27.485,torte-2b,2020.1.3,Win32,60,13412,0.57166,,,,,,,,,,,,,,,,,,,,,,,,,,,,,,,,,,,,,0,118,118,79,1,,,,,,,,,,,,,,,,,,,,,,,,
,,,,,,,,,,,,l,Correct!,,,,,,t2.png,t5.png,3,0.0000131,21,female,2020-08-12_16h14.27.485,torte-2b,2020.1.3,Win32,60,13412,0.63678,,,,,,,,,,,,,,,,,,,,,,,,,,,,,,,,,,,,,0,119,119,54,1,,,,,,,,,,,,,,,,,,,,,,,,
,,,,,,,,,,,,,,,,,,,,,,,21,female,2020-08-12_16h14.27.485,torte-2b,2020.1.3,Win32,60,13412,,space,1.80621,,,,,,,,,,,,,,,,,,,,,,,,,,,,,,,,,,,,,,,,53.60001224,181.5999963,1,0,0,s1,40.80001205,92.79999495,1,0,0,t1,185.6000142,-87.20000774,1,0,0,proceed,space,1.363985,space,0.76834,space,0.431625
