key_resp_8.keys,key_resp_8.rt,key_resp_9.keys,key_resp_9.rt,key_resp_10.keys,key_resp_10.rt,key_resp_11.keys,key_resp_11.rt,key_resp_2.keys,key_resp_2.rt,key_resp_3.keys,key_resp_3.rt,key_resp.keys,Feedback,train.thisRepN,train.thisTrialN,train.thisN,train.thisIndex,train.ran,torta_sx,torta_dx,difference,probability,age,gender,date,expName,psychopyVersion,OS,frameRate,participant,key_resp.rt,key_resp_15.keys,key_resp_15.rt,key_resp_6.keys,key_resp_6.rt,test1.thisRepN,test1.thisTrialN,test1.thisN,test1.thisIndex,test1.ran,key_resp_4.keys,key_resp_4.rt,key_resp_5.keys,back1.thisRepN,back1.thisTrialN,back1.thisN,back1.thisIndex,back1.ran,letter,key_resp_5.rt,back2.thisRepN,back2.thisTrialN,back2.thisN,back2.thisIndex,back2.ran,back3.thisRepN,back3.thisTrialN,back3.thisN,back3.thisIndex,back3.ran,back4.thisRepN,back4.thisTrialN,back4.thisN,back4.thisIndex,back4.ran,key_resp_7.keys,key_resp_7.rt,test2.thisRepN,test2.thisTrialN,test2.thisN,test2.thisIndex,test2.ran,mouse.x,mouse.y,mouse.leftButton,mouse.midButton,mouse.rightButton,mouse.clicked_name,mouse_2.x,mouse_2.y,mouse_2.leftButton,mouse_2.midButton,mouse_2.rightButton,mouse_2.clicked_name,mouse_3.x,mouse_3.y,mouse_3.leftButton,mouse_3.midButton,mouse_3.rightButton,mouse_3.clicked_name,key_resp_12.keys,key_resp_12.rt,key_resp_13.keys,key_resp_13.rt,key_resp_14.keys,key_resp_14.rt
space,15.918,space,2.236,space,2.631,space,4.691,space,8.49,space,40.133,,Too slow :(,0,0,0,30,1,t3.png,t1.png,2,0.056466,19,female,2020-11-19_14h19.07.926,torte-2b,2020.1.3,MacIntel,60,13424,,,,,,,,,,,,,,,,,,,,,,,,,,,,,,,,,,,,,,,,,,,,,,,,,,,,,,,,,,,,,,,,,,
,,,,,,,,,,,,a,Correct!,0,1,1,74,1,t5.png,t4.png,1,0.9,19,female,2020-11-19_14h19.07.926,torte-2b,2020.1.3,MacIntel,60,13424,1.246,,,,,,,,,,,,,,,,,,,,,,,,,,,,,,,,,,,,,,,,,,,,,,,,,,,,,,,,,,,,,,,,,
,,,,,,,,,,,,l,Correct!,0,2,2,61,1,t1.png,t4.png,3,0.0000131,19,female,2020-11-19_14h19.07.926,torte-2b,2020.1.3,MacIntel,60,13424,0.606,,,,,,,,,,,,,,,,,,,,,,,,,,,,,,,,,,,,,,,,,,,,,,,,,,,,,,,,,,,,,,,,,
,,,,,,,,,,,,,Too slow :(,0,3,3,48,1,t5.png,t5.png,0,0.97829,19,female,2020-11-19_14h19.07.926,torte-2b,2020.1.3,MacIntel,60,13424,,,,,,,,,,,,,,,,,,,,,,,,,,,,,,,,,,,,,,,,,,,,,,,,,,,,,,,,,,,,,,,,,,
,,,,,,,,,,,,a,Correct!,0,4,4,23,1,t5.png,t4.png,1,0.90025,19,female,2020-11-19_14h19.07.926,torte-2b,2020.1.3,MacIntel,60,13424,1.066,,,,,,,,,,,,,,,,,,,,,,,,,,,,,,,,,,,,,,,,,,,,,,,,,,,,,,,,,,,,,,,,,
,,,,,,,,,,,,l,Correct!,0,5,5,11,1,t1.png,t4.png,3,0.0000131,19,female,2020-11-19_14h19.07.926,torte-2b,2020.1.3,MacIntel,60,13424,0.598,,,,,,,,,,,,,,,,,,,,,,,,,,,,,,,,,,,,,,,,,,,,,,,,,,,,,,,,,,,,,,,,,
,,,,,,,,,,,,l,Correct!,0,6,6,6,1,t1.png,t4.png,3,0.0000131,19,female,2020-11-19_14h19.07.926,torte-2b,2020.1.3,MacIntel,60,13424,0.523,,,,,,,,,,,,,,,,,,,,,,,,,,,,,,,,,,,,,,,,,,,,,,,,,,,,,,,,,,,,,,,,,
,,,,,,,,,,,,l,Correct!,0,7,7,68,1,t1.png,t4.png,3,0.0000131,19,female,2020-11-19_14h19.07.926,torte-2b,2020.1.3,MacIntel,60,13424,0.484,,,,,,,,,,,,,,,,,,,,,,,,,,,,,,,,,,,,,,,,,,,,,,,,,,,,,,,,,,,,,,,,,
,,,,,,,,,,,,l,Correct!,0,8,8,98,1,t2.png,t4.png,2,0.0591,19,female,2020-11-19_14h19.07.926,torte-2b,2020.1.3,MacIntel,60,13424,0.538,,,,,,,,,,,,,,,,,,,,,,,,,,,,,,,,,,,,,,,,,,,,,,,,,,,,,,,,,,,,,,,,,
,,,,,,,,,,,,a,Incorrect,0,9,9,82,1,t5.png,t1.png,4,9.55E-11,19,female,2020-11-19_14h19.07.926,torte-2b,2020.1.3,MacIntel,60,13424,0.454,,,,,,,,,,,,,,,,,,,,,,,,,,,,,,,,,,,,,,,,,,,,,,,,,,,,,,,,,,,,,,,,,
,,,,,,,,,,,,l,Incorrect,0,10,10,107,1,t1.png,t1.png,0,0.978,19,female,2020-11-19_14h19.07.926,torte-2b,2020.1.3,MacIntel,60,13424,1.789,,,,,,,,,,,,,,,,,,,,,,,,,,,,,,,,,,,,,,,,,,,,,,,,,,,,,,,,,,,,,,,,,
,,,,,,,,,,,,a,Correct!,0,11,11,21,1,t5.png,t4.png,1,0.90025,19,female,2020-11-19_14h19.07.926,torte-2b,2020.1.3,MacIntel,60,13424,1.108,,,,,,,,,,,,,,,,,,,,,,,,,,,,,,,,,,,,,,,,,,,,,,,,,,,,,,,,,,,,,,,,,
,,,,,,,,,,,,a,Incorrect,0,12,12,86,1,t3.png,t1.png,2,0.056466,19,female,2020-11-19_14h19.07.926,torte-2b,2020.1.3,MacIntel,60,13424,0.689,,,,,,,,,,,,,,,,,,,,,,,,,,,,,,,,,,,,,,,,,,,,,,,,,,,,,,,,,,,,,,,,,
,,,,,,,,,,,,l,Correct!,0,13,13,31,1,t1.png,t5.png,4,9.55E-11,19,female,2020-11-19_14h19.07.926,torte-2b,2020.1.3,MacIntel,60,13424,0.904,,,,,,,,,,,,,,,,,,,,,,,,,,,,,,,,,,,,,,,,,,,,,,,,,,,,,,,,,,,,,,,,,
,,,,,,,,,,,,l,Incorrect,0,14,14,20,1,t2.png,t3.png,1,0.90855,19,female,2020-11-19_14h19.07.926,torte-2b,2020.1.3,MacIntel,60,13424,1.059,,,,,,,,,,,,,,,,,,,,,,,,,,,,,,,,,,,,,,,,,,,,,,,,,,,,,,,,,,,,,,,,,
,,,,,,,,,,,,a,Incorrect,0,15,15,16,1,t5.png,t4.png,1,0.9,19,female,2020-11-19_14h19.07.926,torte-2b,2020.1.3,MacIntel,60,13424,1.855,,,,,,,,,,,,,,,,,,,,,,,,,,,,,,,,,,,,,,,,,,,,,,,,,,,,,,,,,,,,,,,,,
,,,,,,,,,,,,a,Correct!,0,16,16,49,1,t4.png,t5.png,1,0.9,19,female,2020-11-19_14h19.07.926,torte-2b,2020.1.3,MacIntel,60,13424,1.032,,,,,,,,,,,,,,,,,,,,,,,,,,,,,,,,,,,,,,,,,,,,,,,,,,,,,,,,,,,,,,,,,
,,,,,,,,,,,,l,Incorrect,0,17,17,63,1,t2.png,t3.png,1,0.909,19,female,2020-11-19_14h19.07.926,torte-2b,2020.1.3,MacIntel,60,13424,0.565,,,,,,,,,,,,,,,,,,,,,,,,,,,,,,,,,,,,,,,,,,,,,,,,,,,,,,,,,,,,,,,,,
,,,,,,,,,,,,a,Correct!,0,18,18,41,1,t3.png,t2.png,1,0.90855,19,female,2020-11-19_14h19.07.926,torte-2b,2020.1.3,MacIntel,60,13424,0.55,,,,,,,,,,,,,,,,,,,,,,,,,,,,,,,,,,,,,,,,,,,,,,,,,,,,,,,,,,,,,,,,,
,,,,,,,,,,,,a,Correct!,0,19,19,97,1,t5.png,t5.png,0,0.97829,19,female,2020-11-19_14h19.07.926,torte-2b,2020.1.3,MacIntel,60,13424,0.415,,,,,,,,,,,,,,,,,,,,,,,,,,,,,,,,,,,,,,,,,,,,,,,,,,,,,,,,,,,,,,,,,
,,,,,,,,,,,,l,Incorrect,0,20,20,81,1,t1.png,t1.png,0,0.97829,19,female,2020-11-19_14h19.07.926,torte-2b,2020.1.3,MacIntel,60,13424,1.183,,,,,,,,,,,,,,,,,,,,,,,,,,,,,,,,,,,,,,,,,,,,,,,,,,,,,,,,,,,,,,,,,
,,,,,,,,,,,,a,Incorrect,0,21,21,103,1,t3.png,t1.png,2,0.056466,19,female,2020-11-19_14h19.07.926,torte-2b,2020.1.3,MacIntel,60,13424,0.366,,,,,,,,,,,,,,,,,,,,,,,,,,,,,,,,,,,,,,,,,,,,,,,,,,,,,,,,,,,,,,,,,
,,,,,,,,,,,,a,Incorrect,0,22,22,67,1,t1.png,t5.png,4,9.55E-11,19,female,2020-11-19_14h19.07.926,torte-2b,2020.1.3,MacIntel,60,13424,0.382,,,,,,,,,,,,,,,,,,,,,,,,,,,,,,,,,,,,,,,,,,,,,,,,,,,,,,,,,,,,,,,,,
,,,,,,,,,,,,a,Incorrect,0,23,23,50,1,t5.png,t1.png,4,9.55E-11,19,female,2020-11-19_14h19.07.926,torte-2b,2020.1.3,MacIntel,60,13424,0.45,,,,,,,,,,,,,,,,,,,,,,,,,,,,,,,,,,,,,,,,,,,,,,,,,,,,,,,,,,,,,,,,,
,,,,,,,,,,,,l,Incorrect,0,24,24,10,1,t2.png,t3.png,1,0.90855,19,female,2020-11-19_14h19.07.926,torte-2b,2020.1.3,MacIntel,60,13424,0.358,,,,,,,,,,,,,,,,,,,,,,,,,,,,,,,,,,,,,,,,,,,,,,,,,,,,,,,,,,,,,,,,,
,,,,,,,,,,,,l,Incorrect,0,25,25,116,1,t5.png,t4.png,1,0.90025,19,female,2020-11-19_14h19.07.926,torte-2b,2020.1.3,MacIntel,60,13424,1.224,,,,,,,,,,,,,,,,,,,,,,,,,,,,,,,,,,,,,,,,,,,,,,,,,,,,,,,,,,,,,,,,,
,,,,,,,,,,,,a,Incorrect,0,26,26,85,1,t3.png,t2.png,1,0.90855,19,female,2020-11-19_14h19.07.926,torte-2b,2020.1.3,MacIntel,60,13424,0.349,,,,,,,,,,,,,,,,,,,,,,,,,,,,,,,,,,,,,,,,,,,,,,,,,,,,,,,,,,,,,,,,,
,,,,,,,,,,,,a,Incorrect,0,27,27,24,1,t4.png,t2.png,2,0.059078,19,female,2020-11-19_14h19.07.926,torte-2b,2020.1.3,MacIntel,60,13424,1.173,,,,,,,,,,,,,,,,,,,,,,,,,,,,,,,,,,,,,,,,,,,,,,,,,,,,,,,,,,,,,,,,,
,,,,,,,,,,,,a,Correct!,0,28,28,45,1,t3.png,t2.png,1,0.90855,19,female,2020-11-19_14h19.07.926,torte-2b,2020.1.3,MacIntel,60,13424,0.565,,,,,,,,,,,,,,,,,,,,,,,,,,,,,,,,,,,,,,,,,,,,,,,,,,,,,,,,,,,,,,,,,
,,,,,,,,,,,,l,Correct!,0,29,29,106,1,t2.png,t3.png,1,0.90855,19,female,2020-11-19_14h19.07.926,torte-2b,2020.1.3,MacIntel,60,13424,0.866,,,,,,,,,,,,,,,,,,,,,,,,,,,,,,,,,,,,,,,,,,,,,,,,,,,,,,,,,,,,,,,,,
,,,,,,,,,,,,a,Correct!,0,30,30,65,1,t4.png,t5.png,1,0.90025,19,female,2020-11-19_14h19.07.926,torte-2b,2020.1.3,MacIntel,60,13424,0.49,,,,,,,,,,,,,,,,,,,,,,,,,,,,,,,,,,,,,,,,,,,,,,,,,,,,,,,,,,,,,,,,,
,,,,,,,,,,,,l,Correct!,0,31,31,17,1,t1.png,t4.png,3,0.0000131,19,female,2020-11-19_14h19.07.926,torte-2b,2020.1.3,MacIntel,60,13424,0.499,,,,,,,,,,,,,,,,,,,,,,,,,,,,,,,,,,,,,,,,,,,,,,,,,,,,,,,,,,,,,,,,,
,,,,,,,,,,,,a,Incorrect,0,32,32,40,1,t1.png,t5.png,4,9.55E-11,19,female,2020-11-19_14h19.07.926,torte-2b,2020.1.3,MacIntel,60,13424,0.365,,,,,,,,,,,,,,,,,,,,,,,,,,,,,,,,,,,,,,,,,,,,,,,,,,,,,,,,,,,,,,,,,
,,,,,,,,,,,,a,Incorrect,0,33,33,90,1,t1.png,t5.png,4,9.55E-11,19,female,2020-11-19_14h19.07.926,torte-2b,2020.1.3,MacIntel,60,13424,0.381,,,,,,,,,,,,,,,,,,,,,,,,,,,,,,,,,,,,,,,,,,,,,,,,,,,,,,,,,,,,,,,,,
,,,,,,,,,,,,l,Incorrect,0,34,34,51,1,t3.png,t1.png,2,0.056466,19,female,2020-11-19_14h19.07.926,torte-2b,2020.1.3,MacIntel,60,13424,0.29,,,,,,,,,,,,,,,,,,,,,,,,,,,,,,,,,,,,,,,,,,,,,,,,,,,,,,,,,,,,,,,,,
,,,,,,,,,,,,a,Incorrect,0,35,35,26,1,t4.png,t2.png,2,0.0591,19,female,2020-11-19_14h19.07.926,torte-2b,2020.1.3,MacIntel,60,13424,0.399,,,,,,,,,,,,,,,,,,,,,,,,,,,,,,,,,,,,,,,,,,,,,,,,,,,,,,,,,,,,,,,,,
,,,,,,,,,,,,a,Correct!,0,36,36,71,1,t5.png,t5.png,0,0.97829,19,female,2020-11-19_14h19.07.926,torte-2b,2020.1.3,MacIntel,60,13424,0.252,,,,,,,,,,,,,,,,,,,,,,,,,,,,,,,,,,,,,,,,,,,,,,,,,,,,,,,,,,,,,,,,,
,,,,,,,,,,,,l,Correct!,0,37,37,69,1,t4.png,t2.png,2,0.059078,19,female,2020-11-19_14h19.07.926,torte-2b,2020.1.3,MacIntel,60,13424,1.331,,,,,,,,,,,,,,,,,,,,,,,,,,,,,,,,,,,,,,,,,,,,,,,,,,,,,,,,,,,,,,,,,
,,,,,,,,,,,,l,Correct!,0,38,38,80,1,t1.png,t4.png,3,0.0000131,19,female,2020-11-19_14h19.07.926,torte-2b,2020.1.3,MacIntel,60,13424,0.533,,,,,,,,,,,,,,,,,,,,,,,,,,,,,,,,,,,,,,,,,,,,,,,,,,,,,,,,,,,,,,,,,
,,,,,,,,,,,,a,Correct!,0,39,39,105,1,t3.png,t2.png,1,0.90855,19,female,2020-11-19_14h19.07.926,torte-2b,2020.1.3,MacIntel,60,13424,0.287,,,,,,,,,,,,,,,,,,,,,,,,,,,,,,,,,,,,,,,,,,,,,,,,,,,,,,,,,,,,,,,,,
,,,,,,,,,,,,a,Correct!,0,40,40,112,1,t1.png,t1.png,0,0.97829,19,female,2020-11-19_14h19.07.926,torte-2b,2020.1.3,MacIntel,60,13424,0.7,,,,,,,,,,,,,,,,,,,,,,,,,,,,,,,,,,,,,,,,,,,,,,,,,,,,,,,,,,,,,,,,,
,,,,,,,,,,,,l,Incorrect,0,41,41,75,1,t1.png,t1.png,0,0.97829,19,female,2020-11-19_14h19.07.926,torte-2b,2020.1.3,MacIntel,60,13424,0.701,,,,,,,,,,,,,,,,,,,,,,,,,,,,,,,,,,,,,,,,,,,,,,,,,,,,,,,,,,,,,,,,,
,,,,,,,,,,,,a,Incorrect,0,42,42,55,1,t2.png,t4.png,2,0.059078,19,female,2020-11-19_14h19.07.926,torte-2b,2020.1.3,MacIntel,60,13424,0.352,,,,,,,,,,,,,,,,,,,,,,,,,,,,,,,,,,,,,,,,,,,,,,,,,,,,,,,,,,,,,,,,,
,,,,,,,,,,,,l,Correct!,0,43,43,14,1,t2.png,t4.png,2,0.059078,19,female,2020-11-19_14h19.07.926,torte-2b,2020.1.3,MacIntel,60,13424,0.47,,,,,,,,,,,,,,,,,,,,,,,,,,,,,,,,,,,,,,,,,,,,,,,,,,,,,,,,,,,,,,,,,
,,,,,,,,,,,,l,Incorrect,0,44,44,8,1,t3.png,t2.png,1,0.90855,19,female,2020-11-19_14h19.07.926,torte-2b,2020.1.3,MacIntel,60,13424,0.466,,,,,,,,,,,,,,,,,,,,,,,,,,,,,,,,,,,,,,,,,,,,,,,,,,,,,,,,,,,,,,,,,
,,,,,,,,,,,,a,Incorrect,0,45,45,36,1,t3.png,t1.png,2,0.0565,19,female,2020-11-19_14h19.07.926,torte-2b,2020.1.3,MacIntel,60,13424,0.452,,,,,,,,,,,,,,,,,,,,,,,,,,,,,,,,,,,,,,,,,,,,,,,,,,,,,,,,,,,,,,,,,
,,,,,,,,,,,,a,Incorrect,0,46,46,33,1,t5.png,t1.png,4,9.55E-11,19,female,2020-11-19_14h19.07.926,torte-2b,2020.1.3,MacIntel,60,13424,0.566,,,,,,,,,,,,,,,,,,,,,,,,,,,,,,,,,,,,,,,,,,,,,,,,,,,,,,,,,,,,,,,,,
,,,,,,,,,,,,l,Correct!,0,47,47,79,1,t3.png,t2.png,1,0.909,19,female,2020-11-19_14h19.07.926,torte-2b,2020.1.3,MacIntel,60,13424,0.439,,,,,,,,,,,,,,,,,,,,,,,,,,,,,,,,,,,,,,,,,,,,,,,,,,,,,,,,,,,,,,,,,
,,,,,,,,,,,,l,Incorrect,0,48,48,92,1,t2.png,t3.png,1,0.909,19,female,2020-11-19_14h19.07.926,torte-2b,2020.1.3,MacIntel,60,13424,0.59,,,,,,,,,,,,,,,,,,,,,,,,,,,,,,,,,,,,,,,,,,,,,,,,,,,,,,,,,,,,,,,,,
,,,,,,,,,,,,a,Incorrect,0,49,49,1,1,t2.png,t4.png,2,0.059078,19,female,2020-11-19_14h19.07.926,torte-2b,2020.1.3,MacIntel,60,13424,0.283,,,,,,,,,,,,,,,,,,,,,,,,,,,,,,,,,,,,,,,,,,,,,,,,,,,,,,,,,,,,,,,,,
,,,,,,,,,,,,l,Correct!,0,50,50,37,1,t1.png,t4.png,3,0.0000131,19,female,2020-11-19_14h19.07.926,torte-2b,2020.1.3,MacIntel,60,13424,0.349,,,,,,,,,,,,,,,,,,,,,,,,,,,,,,,,,,,,,,,,,,,,,,,,,,,,,,,,,,,,,,,,,
,,,,,,,,,,,,a,Correct!,0,51,51,62,1,t5.png,t5.png,0,0.978,19,female,2020-11-19_14h19.07.926,torte-2b,2020.1.3,MacIntel,60,13424,0.516,,,,,,,,,,,,,,,,,,,,,,,,,,,,,,,,,,,,,,,,,,,,,,,,,,,,,,,,,,,,,,,,,
,,,,,,,,,,,,a,Correct!,0,52,52,77,1,t1.png,t1.png,0,0.97829,19,female,2020-11-19_14h19.07.926,torte-2b,2020.1.3,MacIntel,60,13424,0.248,,,,,,,,,,,,,,,,,,,,,,,,,,,,,,,,,,,,,,,,,,,,,,,,,,,,,,,,,,,,,,,,,
,,,,,,,,,,,,a,Incorrect,0,53,53,108,1,t5.png,t1.png,4,9.55E-11,19,female,2020-11-19_14h19.07.926,torte-2b,2020.1.3,MacIntel,60,13424,0.407,,,,,,,,,,,,,,,,,,,,,,,,,,,,,,,,,,,,,,,,,,,,,,,,,,,,,,,,,,,,,,,,,
,,,,,,,,,,,,l,Incorrect,0,54,54,58,1,t5.png,t4.png,1,0.90025,19,female,2020-11-19_14h19.07.926,torte-2b,2020.1.3,MacIntel,60,13424,0.298,,,,,,,,,,,,,,,,,,,,,,,,,,,,,,,,,,,,,,,,,,,,,,,,,,,,,,,,,,,,,,,,,
,,,,,,,,,,,,l,Correct!,0,55,55,53,1,t3.png,t1.png,2,0.056466,19,female,2020-11-19_14h19.07.926,torte-2b,2020.1.3,MacIntel,60,13424,0.403,,,,,,,,,,,,,,,,,,,,,,,,,,,,,,,,,,,,,,,,,,,,,,,,,,,,,,,,,,,,,,,,,
,,,,,,,,,,,,l,Correct!,0,56,56,60,1,t2.png,t4.png,2,0.059078,19,female,2020-11-19_14h19.07.926,torte-2b,2020.1.3,MacIntel,60,13424,0.349,,,,,,,,,,,,,,,,,,,,,,,,,,,,,,,,,,,,,,,,,,,,,,,,,,,,,,,,,,,,,,,,,
,,,,,,,,,,,,l,Incorrect,0,57,57,100,1,t4.png,t5.png,1,0.90025,19,female,2020-11-19_14h19.07.926,torte-2b,2020.1.3,MacIntel,60,13424,0.269,,,,,,,,,,,,,,,,,,,,,,,,,,,,,,,,,,,,,,,,,,,,,,,,,,,,,,,,,,,,,,,,,
,,,,,,,,,,,,a,Correct!,0,58,58,113,1,t5.png,t4.png,1,0.9,19,female,2020-11-19_14h19.07.926,torte-2b,2020.1.3,MacIntel,60,13424,0.4,,,,,,,,,,,,,,,,,,,,,,,,,,,,,,,,,,,,,,,,,,,,,,,,,,,,,,,,,,,,,,,,,
,,,,,,,,,,,,a,Incorrect,0,59,59,99,1,t1.png,t5.png,4,9.55E-11,19,female,2020-11-19_14h19.07.926,torte-2b,2020.1.3,MacIntel,60,13424,0.241,,,,,,,,,,,,,,,,,,,,,,,,,,,,,,,,,,,,,,,,,,,,,,,,,,,,,,,,,,,,,,,,,
,,,,,,,,,,,,l,Incorrect,0,60,60,15,1,t3.png,t2.png,1,0.90855,19,female,2020-11-19_14h19.07.926,torte-2b,2020.1.3,MacIntel,60,13424,0.264,,,,,,,,,,,,,,,,,,,,,,,,,,,,,,,,,,,,,,,,,,,,,,,,,,,,,,,,,,,,,,,,,
,,,,,,,,,,,,a,Incorrect,0,61,61,4,1,t1.png,t5.png,4,9.55E-11,19,female,2020-11-19_14h19.07.926,torte-2b,2020.1.3,MacIntel,60,13424,0.333,,,,,,,,,,,,,,,,,,,,,,,,,,,,,,,,,,,,,,,,,,,,,,,,,,,,,,,,,,,,,,,,,
,,,,,,,,,,,,a,Incorrect,0,62,62,56,1,t5.png,t1.png,4,9.55E-11,19,female,2020-11-19_14h19.07.926,torte-2b,2020.1.3,MacIntel,60,13424,0.338,,,,,,,,,,,,,,,,,,,,,,,,,,,,,,,,,,,,,,,,,,,,,,,,,,,,,,,,,,,,,,,,,
,,,,,,,,,,,,l,Incorrect,0,63,63,39,1,t3.png,t2.png,1,0.90855,19,female,2020-11-19_14h19.07.926,torte-2b,2020.1.3,MacIntel,60,13424,0.465,,,,,,,,,,,,,,,,,,,,,,,,,,,,,,,,,,,,,,,,,,,,,,,,,,,,,,,,,,,,,,,,,
,,,,,,,,,,,,a,Correct!,0,64,64,43,1,t4.png,t2.png,2,0.059078,19,female,2020-11-19_14h19.07.926,torte-2b,2020.1.3,MacIntel,60,13424,0.3,,,,,,,,,,,,,,,,,,,,,,,,,,,,,,,,,,,,,,,,,,,,,,,,,,,,,,,,,,,,,,,,,
,,,,,,,,,,,,a,Incorrect,0,65,65,52,1,t2.png,t4.png,2,0.059078,19,female,2020-11-19_14h19.07.926,torte-2b,2020.1.3,MacIntel,60,13424,0.291,,,,,,,,,,,,,,,,,,,,,,,,,,,,,,,,,,,,,,,,,,,,,,,,,,,,,,,,,,,,,,,,,
,,,,,,,,,,,,l,Correct!,0,66,66,88,1,t3.png,t1.png,2,0.056466,19,female,2020-11-19_14h19.07.926,torte-2b,2020.1.3,MacIntel,60,13424,0.689,,,,,,,,,,,,,,,,,,,,,,,,,,,,,,,,,,,,,,,,,,,,,,,,,,,,,,,,,,,,,,,,,
,,,,,,,,,,,,l,Incorrect,0,67,67,59,1,t5.png,t4.png,1,0.9,19,female,2020-11-19_14h19.07.926,torte-2b,2020.1.3,MacIntel,60,13424,0.285,,,,,,,,,,,,,,,,,,,,,,,,,,,,,,,,,,,,,,,,,,,,,,,,,,,,,,,,,,,,,,,,,
,,,,,,,,,,,,l,Correct!,0,68,68,0,1,t5.png,t1.png,4,9.55E-11,19,female,2020-11-19_14h19.07.926,torte-2b,2020.1.3,MacIntel,60,13424,0.898,,,,,,,,,,,,,,,,,,,,,,,,,,,,,,,,,,,,,,,,,,,,,,,,,,,,,,,,,,,,,,,,,
,,,,,,,,,,,,a,Correct!,0,69,69,78,1,t1.png,t1.png,0,0.978,19,female,2020-11-19_14h19.07.926,torte-2b,2020.1.3,MacIntel,60,13424,0.832,,,,,,,,,,,,,,,,,,,,,,,,,,,,,,,,,,,,,,,,,,,,,,,,,,,,,,,,,,,,,,,,,
,,,,,,,,,,,,l,Incorrect,0,70,70,96,1,t1.png,t1.png,0,0.97829,19,female,2020-11-19_14h19.07.926,torte-2b,2020.1.3,MacIntel,60,13424,0.553,,,,,,,,,,,,,,,,,,,,,,,,,,,,,,,,,,,,,,,,,,,,,,,,,,,,,,,,,,,,,,,,,
,,,,,,,,,,,,a,Incorrect,0,71,71,94,1,t5.png,t1.png,4,9.55E-11,19,female,2020-11-19_14h19.07.926,torte-2b,2020.1.3,MacIntel,60,13424,1.333,,,,,,,,,,,,,,,,,,,,,,,,,,,,,,,,,,,,,,,,,,,,,,,,,,,,,,,,,,,,,,,,,
,,,,,,,,,,,,l,Incorrect,0,72,72,32,1,t4.png,t5.png,1,0.90025,19,female,2020-11-19_14h19.07.926,torte-2b,2020.1.3,MacIntel,60,13424,0.24,,,,,,,,,,,,,,,,,,,,,,,,,,,,,,,,,,,,,,,,,,,,,,,,,,,,,,,,,,,,,,,,,
,,,,,,,,,,,,l,Incorrect,0,73,73,114,1,t2.png,t3.png,1,0.90855,19,female,2020-11-19_14h19.07.926,torte-2b,2020.1.3,MacIntel,60,13424,0.24,,,,,,,,,,,,,,,,,,,,,,,,,,,,,,,,,,,,,,,,,,,,,,,,,,,,,,,,,,,,,,,,,
,,,,,,,,,,,,a,Incorrect,0,74,74,83,1,t3.png,t1.png,2,0.056466,19,female,2020-11-19_14h19.07.926,torte-2b,2020.1.3,MacIntel,60,13424,0.516,,,,,,,,,,,,,,,,,,,,,,,,,,,,,,,,,,,,,,,,,,,,,,,,,,,,,,,,,,,,,,,,,
,,,,,,,,,,,,a,Correct!,0,75,75,109,1,t5.png,t5.png,0,0.97829,19,female,2020-11-19_14h19.07.926,torte-2b,2020.1.3,MacIntel,60,13424,0.289,,,,,,,,,,,,,,,,,,,,,,,,,,,,,,,,,,,,,,,,,,,,,,,,,,,,,,,,,,,,,,,,,
,,,,,,,,,,,,a,Correct!,0,76,76,18,1,t4.png,t5.png,1,0.90025,19,female,2020-11-19_14h19.07.926,torte-2b,2020.1.3,MacIntel,60,13424,0.458,,,,,,,,,,,,,,,,,,,,,,,,,,,,,,,,,,,,,,,,,,,,,,,,,,,,,,,,,,,,,,,,,
,,,,,,,,,,,,a,Correct!,0,77,77,95,1,t1.png,t1.png,0,0.978,19,female,2020-11-19_14h19.07.926,torte-2b,2020.1.3,MacIntel,60,13424,0.316,,,,,,,,,,,,,,,,,,,,,,,,,,,,,,,,,,,,,,,,,,,,,,,,,,,,,,,,,,,,,,,,,
,,,,,,,,,,,,a,Incorrect,0,78,78,57,1,t2.png,t4.png,2,0.059078,19,female,2020-11-19_14h19.07.926,torte-2b,2020.1.3,MacIntel,60,13424,0.334,,,,,,,,,,,,,,,,,,,,,,,,,,,,,,,,,,,,,,,,,,,,,,,,,,,,,,,,,,,,,,,,,
,,,,,,,,,,,,l,Correct!,0,79,79,3,1,t1.png,t5.png,4,9.55E-11,19,female,2020-11-19_14h19.07.926,torte-2b,2020.1.3,MacIntel,60,13424,0.253,,,,,,,,,,,,,,,,,,,,,,,,,,,,,,,,,,,,,,,,,,,,,,,,,,,,,,,,,,,,,,,,,
,,,,,,,,,,,,l,Correct!,0,80,80,27,1,t3.png,t1.png,2,0.0565,19,female,2020-11-19_14h19.07.926,torte-2b,2020.1.3,MacIntel,60,13424,0.003,,,,,,,,,,,,,,,,,,,,,,,,,,,,,,,,,,,,,,,,,,,,,,,,,,,,,,,,,,,,,,,,,
,,,,,,,,,,,,a,Correct!,0,81,81,46,1,t4.png,t2.png,2,0.059078,19,female,2020-11-19_14h19.07.926,torte-2b,2020.1.3,MacIntel,60,13424,0.34,,,,,,,,,,,,,,,,,,,,,,,,,,,,,,,,,,,,,,,,,,,,,,,,,,,,,,,,,,,,,,,,,
,,,,,,,,,,,,l,Incorrect,0,82,82,28,1,t2.png,t3.png,1,0.909,19,female,2020-11-19_14h19.07.926,torte-2b,2020.1.3,MacIntel,60,13424,0.623,,,,,,,,,,,,,,,,,,,,,,,,,,,,,,,,,,,,,,,,,,,,,,,,,,,,,,,,,,,,,,,,,
,,,,,,,,,,,,a,Incorrect,0,83,83,93,1,t2.png,t4.png,2,0.059078,19,female,2020-11-19_14h19.07.926,torte-2b,2020.1.3,MacIntel,60,13424,0.184,,,,,,,,,,,,,,,,,,,,,,,,,,,,,,,,,,,,,,,,,,,,,,,,,,,,,,,,,,,,,,,,,
,,,,,,,,,,,,a,Incorrect,0,84,84,87,1,t5.png,t1.png,4,9.55E-11,19,female,2020-11-19_14h19.07.926,torte-2b,2020.1.3,MacIntel,60,13424,0.221,,,,,,,,,,,,,,,,,,,,,,,,,,,,,,,,,,,,,,,,,,,,,,,,,,,,,,,,,,,,,,,,,
,,,,,,,,,,,,a,Incorrect,0,85,85,5,1,t2.png,t4.png,2,0.059078,19,female,2020-11-19_14h19.07.926,torte-2b,2020.1.3,MacIntel,60,13424,0.224,,,,,,,,,,,,,,,,,,,,,,,,,,,,,,,,,,,,,,,,,,,,,,,,,,,,,,,,,,,,,,,,,
,,,,,,,,,,,,l,Correct!,0,86,86,102,1,t4.png,t2.png,2,0.059078,19,female,2020-11-19_14h19.07.926,torte-2b,2020.1.3,MacIntel,60,13424,0.3,,,,,,,,,,,,,,,,,,,,,,,,,,,,,,,,,,,,,,,,,,,,,,,,,,,,,,,,,,,,,,,,,
,,,,,,,,,,,,l,Correct!,0,87,87,35,1,t1.png,t4.png,3,0.0000131,19,female,2020-11-19_14h19.07.926,torte-2b,2020.1.3,MacIntel,60,13424,0.416,,,,,,,,,,,,,,,,,,,,,,,,,,,,,,,,,,,,,,,,,,,,,,,,,,,,,,,,,,,,,,,,,
,,,,,,,,,,,,l,Incorrect,0,88,88,101,1,t4.png,t5.png,1,0.90025,19,female,2020-11-19_14h19.07.926,torte-2b,2020.1.3,MacIntel,60,13424,0.283,,,,,,,,,,,,,,,,,,,,,,,,,,,,,,,,,,,,,,,,,,,,,,,,,,,,,,,,,,,,,,,,,
,,,,,,,,,,,,a,Incorrect,0,89,89,111,1,t5.png,t1.png,4,9.55E-11,19,female,2020-11-19_14h19.07.926,torte-2b,2020.1.3,MacIntel,60,13424,0.315,,,,,,,,,,,,,,,,,,,,,,,,,,,,,,,,,,,,,,,,,,,,,,,,,,,,,,,,,,,,,,,,,
,,,,,,,,,,,,l,Incorrect,0,90,90,38,1,t3.png,t1.png,2,0.056466,19,female,2020-11-19_14h19.07.926,torte-2b,2020.1.3,MacIntel,60,13424,0.316,,,,,,,,,,,,,,,,,,,,,,,,,,,,,,,,,,,,,,,,,,,,,,,,,,,,,,,,,,,,,,,,,
,,,,,,,,,,,,a,Correct!,0,91,91,7,1,t4.png,t5.png,1,0.90025,19,female,2020-11-19_14h19.07.926,torte-2b,2020.1.3,MacIntel,60,13424,0.421,,,,,,,,,,,,,,,,,,,,,,,,,,,,,,,,,,,,,,,,,,,,,,,,,,,,,,,,,,,,,,,,,
,,,,,,,,,,,,a,Incorrect,0,92,92,115,1,t2.png,t4.png,2,0.059078,19,female,2020-11-19_14h19.07.926,torte-2b,2020.1.3,MacIntel,60,13424,0.268,,,,,,,,,,,,,,,,,,,,,,,,,,,,,,,,,,,,,,,,,,,,,,,,,,,,,,,,,,,,,,,,,
,,,,,,,,,,,,a,Correct!,0,93,93,70,1,t5.png,t5.png,0,0.978,19,female,2020-11-19_14h19.07.926,torte-2b,2020.1.3,MacIntel,60,13424,0.472,,,,,,,,,,,,,,,,,,,,,,,,,,,,,,,,,,,,,,,,,,,,,,,,,,,,,,,,,,,,,,,,,
,,,,,,,,,,,,a,Correct!,0,94,94,84,1,t1.png,t1.png,0,0.97829,19,female,2020-11-19_14h19.07.926,torte-2b,2020.1.3,MacIntel,60,13424,0.409,,,,,,,,,,,,,,,,,,,,,,,,,,,,,,,,,,,,,,,,,,,,,,,,,,,,,,,,,,,,,,,,,
,,,,,,,,,,,,a,Incorrect,0,95,95,47,1,t4.png,t2.png,2,0.059078,19,female,2020-11-19_14h19.07.926,torte-2b,2020.1.3,MacIntel,60,13424,0.266,,,,,,,,,,,,,,,,,,,,,,,,,,,,,,,,,,,,,,,,,,,,,,,,,,,,,,,,,,,,,,,,,
,,,,,,,,,,,,l,Incorrect,0,96,96,13,1,t5.png,t5.png,0,0.97829,19,female,2020-11-19_14h19.07.926,torte-2b,2020.1.3,MacIntel,60,13424,0.258,,,,,,,,,,,,,,,,,,,,,,,,,,,,,,,,,,,,,,,,,,,,,,,,,,,,,,,,,,,,,,,,,
,,,,,,,,,,,,l,Correct!,0,97,97,72,1,t4.png,t2.png,2,0.059078,19,female,2020-11-19_14h19.07.926,torte-2b,2020.1.3,MacIntel,60,13424,0.324,,,,,,,,,,,,,,,,,,,,,,,,,,,,,,,,,,,,,,,,,,,,,,,,,,,,,,,,,,,,,,,,,
,,,,,,,,,,,,a,Correct!,0,98,98,29,1,t5.png,t5.png,0,0.97829,19,female,2020-11-19_14h19.07.926,torte-2b,2020.1.3,MacIntel,60,13424,0.257,,,,,,,,,,,,,,,,,,,,,,,,,,,,,,,,,,,,,,,,,,,,,,,,,,,,,,,,,,,,,,,,,
,,,,,,,,,,,,a,Incorrect,0,99,99,22,1,t2.png,t3.png,1,0.90855,19,female,2020-11-19_14h19.07.926,torte-2b,2020.1.3,MacIntel,60,13424,0.239,,,,,,,,,,,,,,,,,,,,,,,,,,,,,,,,,,,,,,,,,,,,,,,,,,,,,,,,,,,,,,,,,
,,,,,,,,,,,,l,Correct!,0,100,100,44,1,t2.png,t3.png,1,0.909,19,female,2020-11-19_14h19.07.926,torte-2b,2020.1.3,MacIntel,60,13424,0.316,,,,,,,,,,,,,,,,,,,,,,,,,,,,,,,,,,,,,,,,,,,,,,,,,,,,,,,,,,,,,,,,,
,,,,,,,,,,,,l,Correct!,0,101,101,54,1,t1.png,t5.png,4,9.55E-11,19,female,2020-11-19_14h19.07.926,torte-2b,2020.1.3,MacIntel,60,13424,0.039,,,,,,,,,,,,,,,,,,,,,,,,,,,,,,,,,,,,,,,,,,,,,,,,,,,,,,,,,,,,,,,,,
,,,,,,,,,,,,l,Incorrect,0,102,102,104,1,t2.png,t3.png,1,0.90855,19,female,2020-11-19_14h19.07.926,torte-2b,2020.1.3,MacIntel,60,13424,0.392,,,,,,,,,,,,,,,,,,,,,,,,,,,,,,,,,,,,,,,,,,,,,,,,,,,,,,,,,,,,,,,,,
,,,,,,,,,,,,l,Incorrect,0,103,103,118,1,t5.png,t5.png,0,0.978,19,female,2020-11-19_14h19.07.926,torte-2b,2020.1.3,MacIntel,60,13424,0.316,,,,,,,,,,,,,,,,,,,,,,,,,,,,,,,,,,,,,,,,,,,,,,,,,,,,,,,,,,,,,,,,,
,,,,,,,,,,,,l,Incorrect,0,104,104,64,1,t1.png,t1.png,0,0.978,19,female,2020-11-19_14h19.07.926,torte-2b,2020.1.3,MacIntel,60,13424,0.256,,,,,,,,,,,,,,,,,,,,,,,,,,,,,,,,,,,,,,,,,,,,,,,,,,,,,,,,,,,,,,,,,
,,,,,,,,,,,,a,Incorrect,0,105,105,117,1,t1.png,t5.png,4,9.55E-11,19,female,2020-11-19_14h19.07.926,torte-2b,2020.1.3,MacIntel,60,13424,0.283,,,,,,,,,,,,,,,,,,,,,,,,,,,,,,,,,,,,,,,,,,,,,,,,,,,,,,,,,,,,,,,,,
,,,,,,,,,,,,a,Incorrect,0,106,106,76,1,t3.png,t2.png,1,0.90855,19,female,2020-11-19_14h19.07.926,torte-2b,2020.1.3,MacIntel,60,13424,0.232,,,,,,,,,,,,,,,,,,,,,,,,,,,,,,,,,,,,,,,,,,,,,,,,,,,,,,,,,,,,,,,,,
,,,,,,,,,,,,l,Correct!,0,107,107,25,1,t5.png,t5.png,0,0.97829,19,female,2020-11-19_14h19.07.926,torte-2b,2020.1.3,MacIntel,60,13424,0.298,,,,,,,,,,,,,,,,,,,,,,,,,,,,,,,,,,,,,,,,,,,,,,,,,,,,,,,,,,,,,,,,,
,,,,,,,,,,,,l,Incorrect,0,108,108,9,1,t4.png,t5.png,1,0.9,19,female,2020-11-19_14h19.07.926,torte-2b,2020.1.3,MacIntel,60,13424,0.356,,,,,,,,,,,,,,,,,,,,,,,,,,,,,,,,,,,,,,,,,,,,,,,,,,,,,,,,,,,,,,,,,
,,,,,,,,,,,,a,Incorrect,0,109,109,12,1,t5.png,t1.png,4,9.55E-11,19,female,2020-11-19_14h19.07.926,torte-2b,2020.1.3,MacIntel,60,13424,0.505,,,,,,,,,,,,,,,,,,,,,,,,,,,,,,,,,,,,,,,,,,,,,,,,,,,,,,,,,,,,,,,,,
,,,,,,,,,,,,a,Correct!,0,110,110,34,1,t5.png,t4.png,1,0.9,19,female,2020-11-19_14h19.07.926,torte-2b,2020.1.3,MacIntel,60,13424,0.325,,,,,,,,,,,,,,,,,,,,,,,,,,,,,,,,,,,,,,,,,,,,,,,,,,,,,,,,,,,,,,,,,
,,,,,,,,,,,,a,Incorrect,0,111,111,91,1,t1.png,t4.png,3,0.0000131,19,female,2020-11-19_14h19.07.926,torte-2b,2020.1.3,MacIntel,60,13424,0.282,,,,,,,,,,,,,,,,,,,,,,,,,,,,,,,,,,,,,,,,,,,,,,,,,,,,,,,,,,,,,,,,,
,,,,,,,,,,,,l,Correct!,0,112,112,119,1,t1.png,t5.png,4,9.55E-11,19,female,2020-11-19_14h19.07.926,torte-2b,2020.1.3,MacIntel,60,13424,0.298,,,,,,,,,,,,,,,,,,,,,,,,,,,,,,,,,,,,,,,,,,,,,,,,,,,,,,,,,,,,,,,,,
,,,,,,,,,,,,l,Incorrect,0,113,113,110,1,t4.png,t5.png,1,0.90025,19,female,2020-11-19_14h19.07.926,torte-2b,2020.1.3,MacIntel,60,13424,0.117,,,,,,,,,,,,,,,,,,,,,,,,,,,,,,,,,,,,,,,,,,,,,,,,,,,,,,,,,,,,,,,,,
,,,,,,,,,,,,a,Correct!,0,114,114,2,1,t3.png,t2.png,1,0.90855,19,female,2020-11-19_14h19.07.926,torte-2b,2020.1.3,MacIntel,60,13424,0.381,,,,,,,,,,,,,,,,,,,,,,,,,,,,,,,,,,,,,,,,,,,,,,,,,,,,,,,,,,,,,,,,,
,,,,,,,,,,,,a,Incorrect,0,115,115,73,1,t4.png,t2.png,2,0.059078,19,female,2020-11-19_14h19.07.926,torte-2b,2020.1.3,MacIntel,60,13424,0.321,,,,,,,,,,,,,,,,,,,,,,,,,,,,,,,,,,,,,,,,,,,,,,,,,,,,,,,,,,,,,,,,,
,,,,,,,,,,,,l,Incorrect,0,116,116,66,1,t4.png,t5.png,1,0.9,19,female,2020-11-19_14h19.07.926,torte-2b,2020.1.3,MacIntel,60,13424,0.25,,,,,,,,,,,,,,,,,,,,,,,,,,,,,,,,,,,,,,,,,,,,,,,,,,,,,,,,,,,,,,,,,
,,,,,,,,,,,,l,Correct!,0,117,117,89,1,t1.png,t4.png,3,0.0000131,19,female,2020-11-19_14h19.07.926,torte-2b,2020.1.3,MacIntel,60,13424,0.522,,,,,,,,,,,,,,,,,,,,,,,,,,,,,,,,,,,,,,,,,,,,,,,,,,,,,,,,,,,,,,,,,
,,,,,,,,,,,,l,Correct!,0,118,118,42,1,t5.png,t4.png,1,0.90025,19,female,2020-11-19_14h19.07.926,torte-2b,2020.1.3,MacIntel,60,13424,0.432,,,,,,,,,,,,,,,,,,,,,,,,,,,,,,,,,,,,,,,,,,,,,,,,,,,,,,,,,,,,,,,,,
,,,,,,,,,,,,l,Correct!,0,119,119,19,1,t4.png,t2.png,2,0.059078,19,female,2020-11-19_14h19.07.926,torte-2b,2020.1.3,MacIntel,60,13424,0.299,,,,,,,,,,,,,,,,,,,,,,,,,,,,,,,,,,,,,,,,,,,,,,,,,,,,,,,,,,,,,,,,,
,,,,,,,,,,,,a,Correct!,,,,,,t4.png,t5.png,1,0.90025,19,female,2020-11-19_14h19.07.926,torte-2b,2020.1.3,MacIntel,60,13424,0.349,space,2.497,space,21.274,0,0,0,58,1,,,,,,,,,,,,,,,,,,,,,,,,,,,,,,,,,,,,,,,,,,,,,,,,,,,,,,,,
,,,,,,,,,,,,l,Incorrect,,,,,,t2.png,t3.png,1,0.90855,19,female,2020-11-19_14h19.07.926,torte-2b,2020.1.3,MacIntel,60,13424,0.435,,,,,0,1,1,68,1,,,,,,,,,,,,,,,,,,,,,,,,,,,,,,,,,,,,,,,,,,,,,,,,,,,,,,,,
,,,,,,,,,,,,l,Correct!,,,,,,t1.png,t3.png,2,0.056466,19,female,2020-11-19_14h19.07.926,torte-2b,2020.1.3,MacIntel,60,13424,0.726,,,,,0,2,2,87,1,,,,,,,,,,,,,,,,,,,,,,,,,,,,,,,,,,,,,,,,,,,,,,,,,,,,,,,,
,,,,,,,,,,,,a,Incorrect,,,,,,t4.png,t2.png,2,0.059078,19,female,2020-11-19_14h19.07.926,torte-2b,2020.1.3,MacIntel,60,13424,0.688,,,,,0,3,3,86,1,,,,,,,,,,,,,,,,,,,,,,,,,,,,,,,,,,,,,,,,,,,,,,,,,,,,,,,,
,,,,,,,,,,,,a,Correct!,,,,,,t5.png,t5.png,0,0.97829,19,female,2020-11-19_14h19.07.926,torte-2b,2020.1.3,MacIntel,60,13424,0.716,,,,,0,4,4,94,1,,,,,,,,,,,,,,,,,,,,,,,,,,,,,,,,,,,,,,,,,,,,,,,,,,,,,,,,
,,,,,,,,,,,,a,Correct!,,,,,,t4.png,t4.png,0,0.98115,19,female,2020-11-19_14h19.07.926,torte-2b,2020.1.3,MacIntel,60,13424,0.634,,,,,0,5,5,90,1,,,,,,,,,,,,,,,,,,,,,,,,,,,,,,,,,,,,,,,,,,,,,,,,,,,,,,,,
,,,,,,,,,,,,l,Incorrect,,,,,,t1.png,t3.png,2,0.056466,19,female,2020-11-19_14h19.07.926,torte-2b,2020.1.3,MacIntel,60,13424,0.384,,,,,0,6,6,60,1,,,,,,,,,,,,,,,,,,,,,,,,,,,,,,,,,,,,,,,,,,,,,,,,,,,,,,,,
,,,,,,,,,,,,a,Incorrect,,,,,,t1.png,t5.png,4,9.55E-11,19,female,2020-11-19_14h19.07.926,torte-2b,2020.1.3,MacIntel,60,13424,0.305,,,,,0,7,7,55,1,,,,,,,,,,,,,,,,,,,,,,,,,,,,,,,,,,,,,,,,,,,,,,,,,,,,,,,,
,,,,,,,,,,,,l,Incorrect,,,,,,t4.png,t3.png,1,0.909,19,female,2020-11-19_14h19.07.926,torte-2b,2020.1.3,MacIntel,60,13424,0.288,,,,,0,8,8,20,1,,,,,,,,,,,,,,,,,,,,,,,,,,,,,,,,,,,,,,,,,,,,,,,,,,,,,,,,
,,,,,,,,,,,,a,Correct!,,,,,,t2.png,t1.png,1,0.90025,19,female,2020-11-19_14h19.07.926,torte-2b,2020.1.3,MacIntel,60,13424,0.288,,,,,0,9,9,5,1,,,,,,,,,,,,,,,,,,,,,,,,,,,,,,,,,,,,,,,,,,,,,,,,,,,,,,,,
,,,,,,,,,,,,l,Incorrect,,,,,,t5.png,t4.png,1,0.90025,19,female,2020-11-19_14h19.07.926,torte-2b,2020.1.3,MacIntel,60,13424,0.316,,,,,0,10,10,34,1,,,,,,,,,,,,,,,,,,,,,,,,,,,,,,,,,,,,,,,,,,,,,,,,,,,,,,,,
,,,,,,,,,,,,a,Incorrect,,,,,,t5.png,t3.png,2,0.056466,19,female,2020-11-19_14h19.07.926,torte-2b,2020.1.3,MacIntel,60,13424,0.38,,,,,0,11,11,108,1,,,,,,,,,,,,,,,,,,,,,,,,,,,,,,,,,,,,,,,,,,,,,,,,,,,,,,,,
,,,,,,,,,,,,a,Correct!,,,,,,t5.png,t4.png,1,0.90025,19,female,2020-11-19_14h19.07.926,torte-2b,2020.1.3,MacIntel,60,13424,0.408,,,,,0,12,12,27,1,,,,,,,,,,,,,,,,,,,,,,,,,,,,,,,,,,,,,,,,,,,,,,,,,,,,,,,,
,,,,,,,,,,,,l,Correct!,,,,,,t5.png,t2.png,3,0.0000131,19,female,2020-11-19_14h19.07.926,torte-2b,2020.1.3,MacIntel,60,13424,0.299,,,,,0,13,13,119,1,,,,,,,,,,,,,,,,,,,,,,,,,,,,,,,,,,,,,,,,,,,,,,,,,,,,,,,,
,,,,,,,,,,,,a,Incorrect,,,,,,t5.png,t1.png,4,9.55E-11,19,female,2020-11-19_14h19.07.926,torte-2b,2020.1.3,MacIntel,60,13424,0.265,,,,,0,14,14,102,1,,,,,,,,,,,,,,,,,,,,,,,,,,,,,,,,,,,,,,,,,,,,,,,,,,,,,,,,
,,,,,,,,,,,,a,Correct!,,,,,,t2.png,t1.png,1,0.9,19,female,2020-11-19_14h19.07.926,torte-2b,2020.1.3,MacIntel,60,13424,0.365,,,,,0,15,15,118,1,,,,,,,,,,,,,,,,,,,,,,,,,,,,,,,,,,,,,,,,,,,,,,,,,,,,,,,,
,,,,,,,,,,,,a,Correct!,,,,,,t3.png,t2.png,1,0.909,19,female,2020-11-19_14h19.07.926,torte-2b,2020.1.3,MacIntel,60,13424,0.237,,,,,0,16,16,3,1,,,,,,,,,,,,,,,,,,,,,,,,,,,,,,,,,,,,,,,,,,,,,,,,,,,,,,,,
,,,,,,,,,,,,l,Correct!,,,,,,t3.png,t1.png,2,0.056466,19,female,2020-11-19_14h19.07.926,torte-2b,2020.1.3,MacIntel,60,13424,0.149,,,,,0,17,17,64,1,,,,,,,,,,,,,,,,,,,,,,,,,,,,,,,,,,,,,,,,,,,,,,,,,,,,,,,,
,,,,,,,,,,,,l,Incorrect,,,,,,t4.png,t4.png,0,0.98115,19,female,2020-11-19_14h19.07.926,torte-2b,2020.1.3,MacIntel,60,13424,0.271,,,,,0,18,18,80,1,,,,,,,,,,,,,,,,,,,,,,,,,,,,,,,,,,,,,,,,,,,,,,,,,,,,,,,,
,,,,,,,,,,,,l,Incorrect,,,,,,t5.png,t4.png,1,0.9,19,female,2020-11-19_14h19.07.926,torte-2b,2020.1.3,MacIntel,60,13424,0.332,,,,,0,19,19,76,1,,,,,,,,,,,,,,,,,,,,,,,,,,,,,,,,,,,,,,,,,,,,,,,,,,,,,,,,
,,,,,,,,,,,,a,Incorrect,,,,,,t3.png,t5.png,2,0.0565,19,female,2020-11-19_14h19.07.926,torte-2b,2020.1.3,MacIntel,60,13424,0.265,,,,,0,20,20,30,1,,,,,,,,,,,,,,,,,,,,,,,,,,,,,,,,,,,,,,,,,,,,,,,,,,,,,,,,
,,,,,,,,,,,,a,Correct!,,,,,,t2.png,t1.png,1,0.90025,19,female,2020-11-19_14h19.07.926,torte-2b,2020.1.3,MacIntel,60,13424,0.448,,,,,0,21,21,4,1,,,,,,,,,,,,,,,,,,,,,,,,,,,,,,,,,,,,,,,,,,,,,,,,,,,,,,,,
,,,,,,,,,,,,a,Correct!,,,,,,t4.png,t5.png,1,0.90025,19,female,2020-11-19_14h19.07.926,torte-2b,2020.1.3,MacIntel,60,13424,0.565,,,,,0,22,22,113,1,,,,,,,,,,,,,,,,,,,,,,,,,,,,,,,,,,,,,,,,,,,,,,,,,,,,,,,,
,,,,,,,,,,,,l,Correct!,,,,,,t3.png,t5.png,2,0.056466,19,female,2020-11-19_14h19.07.926,torte-2b,2020.1.3,MacIntel,60,13424,0.388,,,,,0,23,23,44,1,,,,,,,,,,,,,,,,,,,,,,,,,,,,,,,,,,,,,,,,,,,,,,,,,,,,,,,,
,,,,,,,,,,,,l,Correct!,,,,,,t2.png,t4.png,2,0.059078,19,female,2020-11-19_14h19.07.926,torte-2b,2020.1.3,MacIntel,60,13424,0.299,,,,,0,24,24,11,1,,,,,,,,,,,,,,,,,,,,,,,,,,,,,,,,,,,,,,,,,,,,,,,,,,,,,,,,
,,,,,,,,,,,,a,Incorrect,,,,,,t5.png,t2.png,3,0.0000131,19,female,2020-11-19_14h19.07.926,torte-2b,2020.1.3,MacIntel,60,13424,0.299,,,,,0,25,25,98,1,,,,,,,,,,,,,,,,,,,,,,,,,,,,,,,,,,,,,,,,,,,,,,,,,,,,,,,,
,,,,,,,,,,,,a,Incorrect,,,,,,t3.png,t5.png,2,0.0565,19,female,2020-11-19_14h19.07.926,torte-2b,2020.1.3,MacIntel,60,13424,0.523,,,,,0,26,26,83,1,,,,,,,,,,,,,,,,,,,,,,,,,,,,,,,,,,,,,,,,,,,,,,,,,,,,,,,,
,,,,,,,,,,,,a,Correct!,,,,,,t3.png,t2.png,1,0.909,19,female,2020-11-19_14h19.07.926,torte-2b,2020.1.3,MacIntel,60,13424,0.298,,,,,0,27,27,23,1,,,,,,,,,,,,,,,,,,,,,,,,,,,,,,,,,,,,,,,,,,,,,,,,,,,,,,,,
,,,,,,,,,,,,l,Correct!,,,,,,t1.png,t5.png,4,9.55E-11,19,female,2020-11-19_14h19.07.926,torte-2b,2020.1.3,MacIntel,60,13424,0.166,,,,,0,28,28,16,1,,,,,,,,,,,,,,,,,,,,,,,,,,,,,,,,,,,,,,,,,,,,,,,,,,,,,,,,
,,,,,,,,,,,,l,Correct!,,,,,,t3.png,t1.png,2,0.056466,19,female,2020-11-19_14h19.07.926,torte-2b,2020.1.3,MacIntel,60,13424,0.284,,,,,0,29,29,0,1,,,,,,,,,,,,,,,,,,,,,,,,,,,,,,,,,,,,,,,,,,,,,,,,,,,,,,,,
,,,,,,,,,,,,a,Incorrect,,,,,,t5.png,t1.png,4,9.55E-11,19,female,2020-11-19_14h19.07.926,torte-2b,2020.1.3,MacIntel,60,13424,0.515,,,,,0,30,30,100,1,,,,,,,,,,,,,,,,,,,,,,,,,,,,,,,,,,,,,,,,,,,,,,,,,,,,,,,,
,,,,,,,,,,,,a,Correct!,,,,,,t4.png,t3.png,1,0.90855,19,female,2020-11-19_14h19.07.926,torte-2b,2020.1.3,MacIntel,60,13424,0.755,,,,,0,31,31,35,1,,,,,,,,,,,,,,,,,,,,,,,,,,,,,,,,,,,,,,,,,,,,,,,,,,,,,,,,
,,,,,,,,,,,,a,Incorrect,,,,,,t3.png,t1.png,2,0.0565,19,female,2020-11-19_14h19.07.926,torte-2b,2020.1.3,MacIntel,60,13424,0.4,,,,,0,32,32,31,1,,,,,,,,,,,,,,,,,,,,,,,,,,,,,,,,,,,,,,,,,,,,,,,,,,,,,,,,
,,,,,,,,,,,,a,Incorrect,,,,,,t4.png,t2.png,2,0.0591,19,female,2020-11-19_14h19.07.926,torte-2b,2020.1.3,MacIntel,60,13424,1.307,,,,,0,33,33,36,1,,,,,,,,,,,,,,,,,,,,,,,,,,,,,,,,,,,,,,,,,,,,,,,,,,,,,,,,
,,,,,,,,,,,,l,Correct!,,,,,,t5.png,t3.png,2,0.0565,19,female,2020-11-19_14h19.07.926,torte-2b,2020.1.3,MacIntel,60,13424,0.335,,,,,0,34,34,39,1,,,,,,,,,,,,,,,,,,,,,,,,,,,,,,,,,,,,,,,,,,,,,,,,,,,,,,,,
,,,,,,,,,,,,a,Incorrect,,,,,,t1.png,t5.png,4,9.55E-11,19,female,2020-11-19_14h19.07.926,torte-2b,2020.1.3,MacIntel,60,13424,0.316,,,,,0,35,35,85,1,,,,,,,,,,,,,,,,,,,,,,,,,,,,,,,,,,,,,,,,,,,,,,,,,,,,,,,,
,,,,,,,,,,,,l,Correct!,,,,,,t4.png,t1.png,3,0.0000131,19,female,2020-11-19_14h19.07.926,torte-2b,2020.1.3,MacIntel,60,13424,0.315,,,,,0,36,36,42,1,,,,,,,,,,,,,,,,,,,,,,,,,,,,,,,,,,,,,,,,,,,,,,,,,,,,,,,,
,,,,,,,,,,,,l,Incorrect,,,,,,t4.png,t5.png,1,0.90025,19,female,2020-11-19_14h19.07.926,torte-2b,2020.1.3,MacIntel,60,13424,0.383,,,,,0,37,37,103,1,,,,,,,,,,,,,,,,,,,,,,,,,,,,,,,,,,,,,,,,,,,,,,,,,,,,,,,,
,,,,,,,,,,,,a,Incorrect,,,,,,t5.png,t1.png,4,9.55E-11,19,female,2020-11-19_14h19.07.926,torte-2b,2020.1.3,MacIntel,60,13424,0.274,,,,,0,38,38,43,1,,,,,,,,,,,,,,,,,,,,,,,,,,,,,,,,,,,,,,,,,,,,,,,,,,,,,,,,
,,,,,,,,,,,,l,Incorrect,,,,,,t2.png,t2.png,0,0.981,19,female,2020-11-19_14h19.07.926,torte-2b,2020.1.3,MacIntel,60,13424,0.205,,,,,0,39,39,101,1,,,,,,,,,,,,,,,,,,,,,,,,,,,,,,,,,,,,,,,,,,,,,,,,,,,,,,,,
,,,,,,,,,,,,a,Correct!,,,,,,t3.png,t2.png,1,0.90855,19,female,2020-11-19_14h19.07.926,torte-2b,2020.1.3,MacIntel,60,13424,0.356,,,,,0,40,40,18,1,,,,,,,,,,,,,,,,,,,,,,,,,,,,,,,,,,,,,,,,,,,,,,,,,,,,,,,,
,,,,,,,,,,,,a,Incorrect,,,,,,t5.png,t3.png,2,0.056466,19,female,2020-11-19_14h19.07.926,torte-2b,2020.1.3,MacIntel,60,13424,0.252,,,,,0,41,41,56,1,,,,,,,,,,,,,,,,,,,,,,,,,,,,,,,,,,,,,,,,,,,,,,,,,,,,,,,,
,,,,,,,,,,,,a,Incorrect,,,,,,t3.png,t2.png,1,0.90855,19,female,2020-11-19_14h19.07.926,torte-2b,2020.1.3,MacIntel,60,13424,0.716,,,,,0,42,42,53,1,,,,,,,,,,,,,,,,,,,,,,,,,,,,,,,,,,,,,,,,,,,,,,,,,,,,,,,,
,,,,,,,,,,,,l,Correct!,,,,,,t1.png,t3.png,2,0.056466,19,female,2020-11-19_14h19.07.926,torte-2b,2020.1.3,MacIntel,60,13424,0.19,,,,,0,43,43,69,1,,,,,,,,,,,,,,,,,,,,,,,,,,,,,,,,,,,,,,,,,,,,,,,,,,,,,,,,
,,,,,,,,,,,,l,Incorrect,,,,,,t4.png,t2.png,2,0.059078,19,female,2020-11-19_14h19.07.926,torte-2b,2020.1.3,MacIntel,60,13424,0.266,,,,,0,44,44,109,1,,,,,,,,,,,,,,,,,,,,,,,,,,,,,,,,,,,,,,,,,,,,,,,,,,,,,,,,
,,,,,,,,,,,,l,Incorrect,,,,,,t5.png,t5.png,0,0.97829,19,female,2020-11-19_14h19.07.926,torte-2b,2020.1.3,MacIntel,60,13424,0.384,,,,,0,45,45,70,1,,,,,,,,,,,,,,,,,,,,,,,,,,,,,,,,,,,,,,,,,,,,,,,,,,,,,,,,
,,,,,,,,,,,,a,Incorrect,,,,,,t4.png,t2.png,2,0.059078,19,female,2020-11-19_14h19.07.926,torte-2b,2020.1.3,MacIntel,60,13424,0.284,,,,,0,46,46,88,1,,,,,,,,,,,,,,,,,,,,,,,,,,,,,,,,,,,,,,,,,,,,,,,,,,,,,,,,
,,,,,,,,,,,,a,Correct!,,,,,,t4.png,t3.png,1,0.90855,19,female,2020-11-19_14h19.07.926,torte-2b,2020.1.3,MacIntel,60,13424,0.273,,,,,0,47,47,45,1,,,,,,,,,,,,,,,,,,,,,,,,,,,,,,,,,,,,,,,,,,,,,,,,,,,,,,,,
,,,,,,,,,,,,l,Correct!,,,,,,t5.png,t2.png,3,0.0000131,19,female,2020-11-19_14h19.07.926,torte-2b,2020.1.3,MacIntel,60,13424,0.121,,,,,0,48,48,91,1,,,,,,,,,,,,,,,,,,,,,,,,,,,,,,,,,,,,,,,,,,,,,,,,,,,,,,,,
,,,,,,,,,,,,a,Incorrect,,,,,,t2.png,t4.png,2,0.059078,19,female,2020-11-19_14h19.07.926,torte-2b,2020.1.3,MacIntel,60,13424,0.131,,,,,0,49,49,77,1,,,,,,,,,,,,,,,,,,,,,,,,,,,,,,,,,,,,,,,,,,,,,,,,,,,,,,,,
,,,,,,,,,,,,l,Correct!,,,,,,t4.png,t1.png,3,0.0000131,19,female,2020-11-19_14h19.07.926,torte-2b,2020.1.3,MacIntel,60,13424,0.267,,,,,0,50,50,61,1,,,,,,,,,,,,,,,,,,,,,,,,,,,,,,,,,,,,,,,,,,,,,,,,,,,,,,,,
,,,,,,,,,,,,a,Correct!,,,,,,t2.png,t2.png,0,0.98115,19,female,2020-11-19_14h19.07.926,torte-2b,2020.1.3,MacIntel,60,13424,0.366,,,,,0,51,51,7,1,,,,,,,,,,,,,,,,,,,,,,,,,,,,,,,,,,,,,,,,,,,,,,,,,,,,,,,,
,,,,,,,,,,,,,Too slow :(,,,,,,t3.png,t1.png,2,0.056466,19,female,2020-11-19_14h19.07.926,torte-2b,2020.1.3,MacIntel,60,13424,,,,,,0,52,52,29,1,,,,,,,,,,,,,,,,,,,,,,,,,,,,,,,,,,,,,,,,,,,,,,,,,,,,,,,,
,,,,,,,,,,,,a,Incorrect,,,,,,t2.png,t3.png,1,0.90855,19,female,2020-11-19_14h19.07.926,torte-2b,2020.1.3,MacIntel,60,13424,2.404,,,,,0,53,53,65,1,,,,,,,,,,,,,,,,,,,,,,,,,,,,,,,,,,,,,,,,,,,,,,,,,,,,,,,,
,,,,,,,,,,,,l,Incorrect,,,,,,t4.png,t4.png,0,0.98115,19,female,2020-11-19_14h19.07.926,torte-2b,2020.1.3,MacIntel,60,13424,1.636,,,,,0,54,54,79,1,,,,,,,,,,,,,,,,,,,,,,,,,,,,,,,,,,,,,,,,,,,,,,,,,,,,,,,,
,,,,,,,,,,,,,Too slow :(,,,,,,t5.png,t4.png,1,0.90025,19,female,2020-11-19_14h19.07.926,torte-2b,2020.1.3,MacIntel,60,13424,,,,,,0,55,55,26,1,,,,,,,,,,,,,,,,,,,,,,,,,,,,,,,,,,,,,,,,,,,,,,,,,,,,,,,,
,,,,,,,,,,,,a,Incorrect,,,,,,t5.png,t2.png,3,0.0000131,19,female,2020-11-19_14h19.07.926,torte-2b,2020.1.3,MacIntel,60,13424,0.683,,,,,0,56,56,116,1,,,,,,,,,,,,,,,,,,,,,,,,,,,,,,,,,,,,,,,,,,,,,,,,,,,,,,,,
,,,,,,,,,,,,l,Incorrect,,,,,,t4.png,t5.png,1,0.90025,19,female,2020-11-19_14h19.07.926,torte-2b,2020.1.3,MacIntel,60,13424,0.3,,,,,0,57,57,47,1,,,,,,,,,,,,,,,,,,,,,,,,,,,,,,,,,,,,,,,,,,,,,,,,,,,,,,,,
,,,,,,,,,,,,l,Incorrect,,,,,,t3.png,t4.png,1,0.90855,19,female,2020-11-19_14h19.07.926,torte-2b,2020.1.3,MacIntel,60,13424,0.273,,,,,0,58,58,84,1,,,,,,,,,,,,,,,,,,,,,,,,,,,,,,,,,,,,,,,,,,,,,,,,,,,,,,,,
,,,,,,,,,,,,l,Correct!,,,,,,t5.png,t1.png,4,9.55E-11,19,female,2020-11-19_14h19.07.926,torte-2b,2020.1.3,MacIntel,60,13424,0.315,,,,,0,59,59,71,1,,,,,,,,,,,,,,,,,,,,,,,,,,,,,,,,,,,,,,,,,,,,,,,,,,,,,,,,
,,,,,,,,,,,,l,Incorrect,,,,,,t4.png,t4.png,0,0.98115,19,female,2020-11-19_14h19.07.926,torte-2b,2020.1.3,MacIntel,60,13424,0.589,,,,,0,60,60,52,1,,,,,,,,,,,,,,,,,,,,,,,,,,,,,,,,,,,,,,,,,,,,,,,,,,,,,,,,
,,,,,,,,,,,,a,Correct!,,,,,,t2.png,t2.png,0,0.98115,19,female,2020-11-19_14h19.07.926,torte-2b,2020.1.3,MacIntel,60,13424,0.315,,,,,0,61,61,2,1,,,,,,,,,,,,,,,,,,,,,,,,,,,,,,,,,,,,,,,,,,,,,,,,,,,,,,,,
,,,,,,,,,,,,l,Correct!,,,,,,t1.png,t2.png,1,0.90025,19,female,2020-11-19_14h19.07.926,torte-2b,2020.1.3,MacIntel,60,13424,0.198,,,,,0,62,62,112,1,,,,,,,,,,,,,,,,,,,,,,,,,,,,,,,,,,,,,,,,,,,,,,,,,,,,,,,,
,,,,,,,,,,,,a,Correct!,,,,,,t1.png,t2.png,1,0.90025,19,female,2020-11-19_14h19.07.926,torte-2b,2020.1.3,MacIntel,60,13424,0.256,,,,,0,63,63,72,1,,,,,,,,,,,,,,,,,,,,,,,,,,,,,,,,,,,,,,,,,,,,,,,,,,,,,,,,
,,,,,,,,,,,,l,Incorrect,,,,,,t2.png,t1.png,1,0.90025,19,female,2020-11-19_14h19.07.926,torte-2b,2020.1.3,MacIntel,60,13424,0.281,,,,,0,64,64,62,1,,,,,,,,,,,,,,,,,,,,,,,,,,,,,,,,,,,,,,,,,,,,,,,,,,,,,,,,
,,,,,,,,,,,,l,Incorrect,,,,,,t4.png,t4.png,0,0.98115,19,female,2020-11-19_14h19.07.926,torte-2b,2020.1.3,MacIntel,60,13424,0.274,,,,,0,65,65,21,1,,,,,,,,,,,,,,,,,,,,,,,,,,,,,,,,,,,,,,,,,,,,,,,,,,,,,,,,
,,,,,,,,,,,,l,Correct!,,,,,,t1.png,t3.png,2,0.056466,19,female,2020-11-19_14h19.07.926,torte-2b,2020.1.3,MacIntel,60,13424,0.389,,,,,0,66,66,63,1,,,,,,,,,,,,,,,,,,,,,,,,,,,,,,,,,,,,,,,,,,,,,,,,,,,,,,,,
,,,,,,,,,,,,l,Incorrect,,,,,,t5.png,t5.png,0,0.978,19,female,2020-11-19_14h19.07.926,torte-2b,2020.1.3,MacIntel,60,13424,0.391,,,,,0,67,67,117,1,,,,,,,,,,,,,,,,,,,,,,,,,,,,,,,,,,,,,,,,,,,,,,,,,,,,,,,,
,,,,,,,,,,,,l,Incorrect,,,,,,t5.png,t5.png,0,0.97829,19,female,2020-11-19_14h19.07.926,torte-2b,2020.1.3,MacIntel,60,13424,0.315,,,,,0,68,68,25,1,,,,,,,,,,,,,,,,,,,,,,,,,,,,,,,,,,,,,,,,,,,,,,,,,,,,,,,,
,,,,,,,,,,,,l,Incorrect,,,,,,t2.png,t1.png,1,0.90025,19,female,2020-11-19_14h19.07.926,torte-2b,2020.1.3,MacIntel,60,13424,0.34,,,,,0,69,69,19,1,,,,,,,,,,,,,,,,,,,,,,,,,,,,,,,,,,,,,,,,,,,,,,,,,,,,,,,,
,,,,,,,,,,,,a,Incorrect,,,,,,t1.png,t5.png,4,9.55E-11,19,female,2020-11-19_14h19.07.926,torte-2b,2020.1.3,MacIntel,60,13424,0.381,,,,,0,70,70,41,1,,,,,,,,,,,,,,,,,,,,,,,,,,,,,,,,,,,,,,,,,,,,,,,,,,,,,,,,
,,,,,,,,,,,,a,Incorrect,,,,,,t3.png,t4.png,1,0.90855,19,female,2020-11-19_14h19.07.926,torte-2b,2020.1.3,MacIntel,60,13424,0.249,,,,,0,71,71,96,1,,,,,,,,,,,,,,,,,,,,,,,,,,,,,,,,,,,,,,,,,,,,,,,,,,,,,,,,
,,,,,,,,,,,,a,Correct!,,,,,,t1.png,t1.png,0,0.97829,19,female,2020-11-19_14h19.07.926,torte-2b,2020.1.3,MacIntel,60,13424,0.225,,,,,0,72,72,9,1,,,,,,,,,,,,,,,,,,,,,,,,,,,,,,,,,,,,,,,,,,,,,,,,,,,,,,,,
,,,,,,,,,,,,a,Correct!,,,,,,t2.png,t3.png,1,0.909,19,female,2020-11-19_14h19.07.926,torte-2b,2020.1.3,MacIntel,60,13424,0.266,,,,,0,73,73,74,1,,,,,,,,,,,,,,,,,,,,,,,,,,,,,,,,,,,,,,,,,,,,,,,,,,,,,,,,
,,,,,,,,,,,,l,Incorrect,,,,,,t3.png,t2.png,1,0.90855,19,female,2020-11-19_14h19.07.926,torte-2b,2020.1.3,MacIntel,60,13424,0.273,,,,,0,74,74,97,1,,,,,,,,,,,,,,,,,,,,,,,,,,,,,,,,,,,,,,,,,,,,,,,,,,,,,,,,
,,,,,,,,,,,,l,Correct!,,,,,,t2.png,t5.png,3,0.0000131,19,female,2020-11-19_14h19.07.926,torte-2b,2020.1.3,MacIntel,60,13424,0.32,,,,,0,75,75,66,1,,,,,,,,,,,,,,,,,,,,,,,,,,,,,,,,,,,,,,,,,,,,,,,,,,,,,,,,
,,,,,,,,,,,,l,Correct!,,,,,,t4.png,t1.png,3,0.0000131,19,female,2020-11-19_14h19.07.926,torte-2b,2020.1.3,MacIntel,60,13424,0.303,,,,,0,76,76,48,1,,,,,,,,,,,,,,,,,,,,,,,,,,,,,,,,,,,,,,,,,,,,,,,,,,,,,,,,
,,,,,,,,,,,,a,Incorrect,,,,,,t4.png,t5.png,1,0.9,19,female,2020-11-19_14h19.07.926,torte-2b,2020.1.3,MacIntel,60,13424,0.255,,,,,0,77,77,115,1,,,,,,,,,,,,,,,,,,,,,,,,,,,,,,,,,,,,,,,,,,,,,,,,,,,,,,,,
,,,,,,,,,,,,a,Incorrect,,,,,,t3.png,t5.png,2,0.056466,19,female,2020-11-19_14h19.07.926,torte-2b,2020.1.3,MacIntel,60,13424,0.268,,,,,0,78,78,14,1,,,,,,,,,,,,,,,,,,,,,,,,,,,,,,,,,,,,,,,,,,,,,,,,,,,,,,,,
,,,,,,,,,,,,a,Incorrect,,,,,,t1.png,t4.png,3,0.0000131,19,female,2020-11-19_14h19.07.926,torte-2b,2020.1.3,MacIntel,60,13424,0.3,,,,,0,79,79,17,1,,,,,,,,,,,,,,,,,,,,,,,,,,,,,,,,,,,,,,,,,,,,,,,,,,,,,,,,
,,,,,,,,,,,,l,Incorrect,,,,,,t2.png,t3.png,1,0.90855,19,female,2020-11-19_14h19.07.926,torte-2b,2020.1.3,MacIntel,60,13424,0.848,,,,,0,80,80,10,1,,,,,,,,,,,,,,,,,,,,,,,,,,,,,,,,,,,,,,,,,,,,,,,,,,,,,,,,
,,,,,,,,,,,,a,Incorrect,,,,,,t3.png,t5.png,2,0.056466,19,female,2020-11-19_14h19.07.926,torte-2b,2020.1.3,MacIntel,60,13424,0.437,,,,,0,81,81,6,1,,,,,,,,,,,,,,,,,,,,,,,,,,,,,,,,,,,,,,,,,,,,,,,,,,,,,,,,
,,,,,,,,,,,,l,Incorrect,,,,,,t1.png,t2.png,1,0.9,19,female,2020-11-19_14h19.07.926,torte-2b,2020.1.3,MacIntel,60,13424,0.306,,,,,0,82,82,1,1,,,,,,,,,,,,,,,,,,,,,,,,,,,,,,,,,,,,,,,,,,,,,,,,,,,,,,,,
,,,,,,,,,,,,l,Correct!,,,,,,t2.png,t3.png,1,0.90855,19,female,2020-11-19_14h19.07.926,torte-2b,2020.1.3,MacIntel,60,13424,0.3,,,,,0,83,83,111,1,,,,,,,,,,,,,,,,,,,,,,,,,,,,,,,,,,,,,,,,,,,,,,,,,,,,,,,,
,,,,,,,,,,,,a,Correct!,,,,,,t4.png,t3.png,1,0.90855,19,female,2020-11-19_14h19.07.926,torte-2b,2020.1.3,MacIntel,60,13424,0.373,,,,,0,84,84,75,1,,,,,,,,,,,,,,,,,,,,,,,,,,,,,,,,,,,,,,,,,,,,,,,,,,,,,,,,
,,,,,,,,,,,,a,Incorrect,,,,,,t4.png,t1.png,3,0.0000131,19,female,2020-11-19_14h19.07.926,torte-2b,2020.1.3,MacIntel,60,13424,0.282,,,,,0,85,85,93,1,,,,,,,,,,,,,,,,,,,,,,,,,,,,,,,,,,,,,,,,,,,,,,,,,,,,,,,,
,,,,,,,,,,,,l,Correct!,,,,,,t1.png,t5.png,4,9.55E-11,19,female,2020-11-19_14h19.07.926,torte-2b,2020.1.3,MacIntel,60,13424,0.265,,,,,0,86,86,12,1,,,,,,,,,,,,,,,,,,,,,,,,,,,,,,,,,,,,,,,,,,,,,,,,,,,,,,,,
,,,,,,,,,,,,l,Correct!,,,,,,t2.png,t4.png,2,0.0591,19,female,2020-11-19_14h19.07.926,torte-2b,2020.1.3,MacIntel,60,13424,0.366,,,,,0,87,87,15,1,,,,,,,,,,,,,,,,,,,,,,,,,,,,,,,,,,,,,,,,,,,,,,,,,,,,,,,,
,,,,,,,,,,,,a,Incorrect,,,,,,t2.png,t5.png,3,0.0000131,19,female,2020-11-19_14h19.07.926,torte-2b,2020.1.3,MacIntel,60,13424,0.418,,,,,0,88,88,40,1,,,,,,,,,,,,,,,,,,,,,,,,,,,,,,,,,,,,,,,,,,,,,,,,,,,,,,,,
,,,,,,,,,,,,l,Incorrect,,,,,,t3.png,t4.png,1,0.909,19,female,2020-11-19_14h19.07.926,torte-2b,2020.1.3,MacIntel,60,13424,0.384,,,,,0,89,89,106,1,,,,,,,,,,,,,,,,,,,,,,,,,,,,,,,,,,,,,,,,,,,,,,,,,,,,,,,,
,,,,,,,,,,,,l,Correct!,,,,,,t1.png,t4.png,3,0.0000131,19,female,2020-11-19_14h19.07.926,torte-2b,2020.1.3,MacIntel,60,13424,0.416,,,,,0,90,90,92,1,,,,,,,,,,,,,,,,,,,,,,,,,,,,,,,,,,,,,,,,,,,,,,,,,,,,,,,,
,,,,,,,,,,,,l,Correct!,,,,,,t2.png,t5.png,3,0.0000131,19,female,2020-11-19_14h19.07.926,torte-2b,2020.1.3,MacIntel,60,13424,0.398,,,,,0,91,91,8,1,,,,,,,,,,,,,,,,,,,,,,,,,,,,,,,,,,,,,,,,,,,,,,,,,,,,,,,,
,,,,,,,,,,,,l,Correct!,,,,,,t1.png,t4.png,3,0.0000131,19,female,2020-11-19_14h19.07.926,torte-2b,2020.1.3,MacIntel,60,13424,0.451,,,,,0,92,92,81,1,,,,,,,,,,,,,,,,,,,,,,,,,,,,,,,,,,,,,,,,,,,,,,,,,,,,,,,,
,,,,,,,,,,,,a,Incorrect,,,,,,t5.png,t3.png,2,0.056466,19,female,2020-11-19_14h19.07.926,torte-2b,2020.1.3,MacIntel,60,13424,0.775,,,,,0,93,93,114,1,,,,,,,,,,,,,,,,,,,,,,,,,,,,,,,,,,,,,,,,,,,,,,,,,,,,,,,,
,,,,,,,,,,,,l,Correct!,,,,,,t1.png,t4.png,3,0.0000131,19,female,2020-11-19_14h19.07.926,torte-2b,2020.1.3,MacIntel,60,13424,0.357,,,,,0,94,94,50,1,,,,,,,,,,,,,,,,,,,,,,,,,,,,,,,,,,,,,,,,,,,,,,,,,,,,,,,,
,,,,,,,,,,,,a,Correct!,,,,,,t5.png,t5.png,0,0.97829,19,female,2020-11-19_14h19.07.926,torte-2b,2020.1.3,MacIntel,60,13424,0.407,,,,,0,95,95,73,1,,,,,,,,,,,,,,,,,,,,,,,,,,,,,,,,,,,,,,,,,,,,,,,,,,,,,,,,
,,,,,,,,,,,,a,Incorrect,,,,,,t5.png,t3.png,2,0.056466,19,female,2020-11-19_14h19.07.926,torte-2b,2020.1.3,MacIntel,60,13424,0.271,,,,,0,96,96,38,1,,,,,,,,,,,,,,,,,,,,,,,,,,,,,,,,,,,,,,,,,,,,,,,,,,,,,,,,
,,,,,,,,,,,,a,Correct!,,,,,,t2.png,t2.png,0,0.98115,19,female,2020-11-19_14h19.07.926,torte-2b,2020.1.3,MacIntel,60,13424,0.257,,,,,0,97,97,57,1,,,,,,,,,,,,,,,,,,,,,,,,,,,,,,,,,,,,,,,,,,,,,,,,,,,,,,,,
,,,,,,,,,,,,l,Incorrect,,,,,,t1.png,t1.png,0,0.97829,19,female,2020-11-19_14h19.07.926,torte-2b,2020.1.3,MacIntel,60,13424,0.302,,,,,0,98,98,78,1,,,,,,,,,,,,,,,,,,,,,,,,,,,,,,,,,,,,,,,,,,,,,,,,,,,,,,,,
,,,,,,,,,,,,l,Correct!,,,,,,t1.png,t4.png,3,0.0000131,19,female,2020-11-19_14h19.07.926,torte-2b,2020.1.3,MacIntel,60,13424,0.39,,,,,0,99,99,107,1,,,,,,,,,,,,,,,,,,,,,,,,,,,,,,,,,,,,,,,,,,,,,,,,,,,,,,,,
,,,,,,,,,,,,l,Incorrect,,,,,,t5.png,t4.png,1,0.9,19,female,2020-11-19_14h19.07.926,torte-2b,2020.1.3,MacIntel,60,13424,0.538,,,,,0,100,100,49,1,,,,,,,,,,,,,,,,,,,,,,,,,,,,,,,,,,,,,,,,,,,,,,,,,,,,,,,,
,,,,,,,,,,,,l,Correct!,,,,,,t4.png,t2.png,2,0.059078,19,female,2020-11-19_14h19.07.926,torte-2b,2020.1.3,MacIntel,60,13424,0.315,,,,,0,101,101,110,1,,,,,,,,,,,,,,,,,,,,,,,,,,,,,,,,,,,,,,,,,,,,,,,,,,,,,,,,
,,,,,,,,,,,,a,Correct!,,,,,,t1.png,t2.png,1,0.90025,19,female,2020-11-19_14h19.07.926,torte-2b,2020.1.3,MacIntel,60,13424,0.269,,,,,0,102,102,33,1,,,,,,,,,,,,,,,,,,,,,,,,,,,,,,,,,,,,,,,,,,,,,,,,,,,,,,,,
,,,,,,,,,,,,l,Incorrect,,,,,,t3.png,t4.png,1,0.909,19,female,2020-11-19_14h19.07.926,torte-2b,2020.1.3,MacIntel,60,13424,1.399,,,,,0,103,103,89,1,,,,,,,,,,,,,,,,,,,,,,,,,,,,,,,,,,,,,,,,,,,,,,,,,,,,,,,,
,,,,,,,,,,,,l,Incorrect,,,,,,t3.png,t4.png,1,0.909,19,female,2020-11-19_14h19.07.926,torte-2b,2020.1.3,MacIntel,60,13424,0.355,,,,,0,104,104,82,1,,,,,,,,,,,,,,,,,,,,,,,,,,,,,,,,,,,,,,,,,,,,,,,,,,,,,,,,
,,,,,,,,,,,,l,Incorrect,,,,,,t1.png,t2.png,1,0.90025,19,female,2020-11-19_14h19.07.926,torte-2b,2020.1.3,MacIntel,60,13424,0.39,,,,,0,105,105,105,1,,,,,,,,,,,,,,,,,,,,,,,,,,,,,,,,,,,,,,,,,,,,,,,,,,,,,,,,
,,,,,,,,,,,,a,Incorrect,,,,,,t2.png,t5.png,3,0.0000131,19,female,2020-11-19_14h19.07.926,torte-2b,2020.1.3,MacIntel,60,13424,0.25,,,,,0,106,106,95,1,,,,,,,,,,,,,,,,,,,,,,,,,,,,,,,,,,,,,,,,,,,,,,,,,,,,,,,,
,,,,,,,,,,,,a,Correct!,,,,,,t1.png,t1.png,0,0.978,19,female,2020-11-19_14h19.07.926,torte-2b,2020.1.3,MacIntel,60,13424,0.582,,,,,0,107,107,54,1,,,,,,,,,,,,,,,,,,,,,,,,,,,,,,,,,,,,,,,,,,,,,,,,,,,,,,,,
,,,,,,,,,,,,a,Incorrect,,,,,,t2.png,t4.png,2,0.059078,19,female,2020-11-19_14h19.07.926,torte-2b,2020.1.3,MacIntel,60,13424,0.224,,,,,0,108,108,37,1,,,,,,,,,,,,,,,,,,,,,,,,,,,,,,,,,,,,,,,,,,,,,,,,,,,,,,,,
,,,,,,,,,,,,l,Correct!,,,,,,t5.png,t2.png,3,0.0000131,19,female,2020-11-19_14h19.07.926,torte-2b,2020.1.3,MacIntel,60,13424,0.239,,,,,0,109,109,51,1,,,,,,,,,,,,,,,,,,,,,,,,,,,,,,,,,,,,,,,,,,,,,,,,,,,,,,,,
,,,,,,,,,,,,l,Incorrect,,,,,,t1.png,t1.png,0,0.978,19,female,2020-11-19_14h19.07.926,torte-2b,2020.1.3,MacIntel,60,13424,0.199,,,,,0,110,110,28,1,,,,,,,,,,,,,,,,,,,,,,,,,,,,,,,,,,,,,,,,,,,,,,,,,,,,,,,,
,,,,,,,,,,,,l,Correct!,,,,,,t3.png,t1.png,2,0.056466,19,female,2020-11-19_14h19.07.926,torte-2b,2020.1.3,MacIntel,60,13424,0.288,,,,,0,111,111,32,1,,,,,,,,,,,,,,,,,,,,,,,,,,,,,,,,,,,,,,,,,,,,,,,,,,,,,,,,
,,,,,,,,,,,,a,Correct!,,,,,,t1.png,t1.png,0,0.97829,19,female,2020-11-19_14h19.07.926,torte-2b,2020.1.3,MacIntel,60,13424,0.242,,,,,0,112,112,67,1,,,,,,,,,,,,,,,,,,,,,,,,,,,,,,,,,,,,,,,,,,,,,,,,,,,,,,,,
,,,,,,,,,,,,a,Incorrect,,,,,,t5.png,t1.png,4,9.55E-11,19,female,2020-11-19_14h19.07.926,torte-2b,2020.1.3,MacIntel,60,13424,0.224,,,,,0,113,113,22,1,,,,,,,,,,,,,,,,,,,,,,,,,,,,,,,,,,,,,,,,,,,,,,,,,,,,,,,,
,,,,,,,,,,,,a,Incorrect,,,,,,t1.png,t3.png,2,0.056466,19,female,2020-11-19_14h19.07.926,torte-2b,2020.1.3,MacIntel,60,13424,0.366,,,,,0,114,114,99,1,,,,,,,,,,,,,,,,,,,,,,,,,,,,,,,,,,,,,,,,,,,,,,,,,,,,,,,,
,,,,,,,,,,,,l,Correct!,,,,,,t2.png,t5.png,3,0.0000131,19,female,2020-11-19_14h19.07.926,torte-2b,2020.1.3,MacIntel,60,13424,0.339,,,,,0,115,115,104,1,,,,,,,,,,,,,,,,,,,,,,,,,,,,,,,,,,,,,,,,,,,,,,,,,,,,,,,,
,,,,,,,,,,,,a,Incorrect,,,,,,t4.png,t1.png,3,0.0000131,19,female,2020-11-19_14h19.07.926,torte-2b,2020.1.3,MacIntel,60,13424,0.116,,,,,0,116,116,13,1,,,,,,,,,,,,,,,,,,,,,,,,,,,,,,,,,,,,,,,,,,,,,,,,,,,,,,,,
,,,,,,,,,,,,l,Incorrect,,,,,,t2.png,t2.png,0,0.98115,19,female,2020-11-19_14h19.07.926,torte-2b,2020.1.3,MacIntel,60,13424,0.282,,,,,0,117,117,59,1,,,,,,,,,,,,,,,,,,,,,,,,,,,,,,,,,,,,,,,,,,,,,,,,,,,,,,,,
,,,,,,,,,,,,a,Correct!,,,,,,t4.png,t3.png,1,0.909,19,female,2020-11-19_14h19.07.926,torte-2b,2020.1.3,MacIntel,60,13424,0.241,,,,,0,118,118,46,1,,,,,,,,,,,,,,,,,,,,,,,,,,,,,,,,,,,,,,,,,,,,,,,,,,,,,,,,
,,,,,,,,,,,,l,Correct!,,,,,,t2.png,t4.png,2,0.059078,19,female,2020-11-19_14h19.07.926,torte-2b,2020.1.3,MacIntel,60,13424,0.307,,,,,0,119,119,24,1,,,,,,,,,,,,,,,,,,,,,,,,,,,,,,,,,,,,,,,,,,,,,,,,,,,,,,,,
,,,,,,,,,,,,,,,,,,,,,,,19,female,2020-11-19_14h19.07.926,torte-2b,2020.1.3,MacIntel,60,13424,,space,1.639,,,,,,,,space,29.749,,0,0,0,0,1,6,,,,,,,,,,,,,,,,,,,,,,,,,,,,,,,,,,,,,,,,,,,,,,,
,,,,,,,,,,,,,,,,,,,,,,,19,female,2020-11-19_14h19.07.926,torte-2b,2020.1.3,MacIntel,60,13424,,,,,,,,,,,,,,0,1,1,1,1,7,,,,,,,,,,,,,,,,,,,,,,,,,,,,,,,,,,,,,,,,,,,,,,,
,,,,,,,,,,,,,,,,,,,,,,,19,female,2020-11-19_14h19.07.926,torte-2b,2020.1.3,MacIntel,60,13424,,,,,,,,,,,,,space,0,2,2,2,1,6,0.389,,,,,,,,,,,,,,,,,,,,,,,,,,,,,,,,,,,,,,,,,,,,,,
,,,,,,,,,,,,,,,,,,,,,,,19,female,2020-11-19_14h19.07.926,torte-2b,2020.1.3,MacIntel,60,13424,,,,,,,,,,,,,,0,3,3,3,1,7,,,,,,,,,,,,,,,,,,,,,,,,,,,,,,,,,,,,,,,,,,,,,,,
,,,,,,,,,,,,,,,,,,,,,,,19,female,2020-11-19_14h19.07.926,torte-2b,2020.1.3,MacIntel,60,13424,,,,,,,,,,,,,,0,4,4,4,1,5,,,,,,,,,,,,,,,,,,,,,,,,,,,,,,,,,,,,,,,,,,,,,,,
,,,,,,,,,,,,,,,,,,,,,,,19,female,2020-11-19_14h19.07.926,torte-2b,2020.1.3,MacIntel,60,13424,,,,,,,,,,,,,space,0,5,5,5,1,7,0.786,,,,,,,,,,,,,,,,,,,,,,,,,,,,,,,,,,,,,,,,,,,,,,
,,,,,,,,,,,,,,,,,,,,,,,19,female,2020-11-19_14h19.07.926,torte-2b,2020.1.3,MacIntel,60,13424,,,,,,,,,,,,,,0,6,6,6,1,2,,,,,,,,,,,,,,,,,,,,,,,,,,,,,,,,,,,,,,,,,,,,,,,
,,,,,,,,,,,,,,,,,,,,,,,19,female,2020-11-19_14h19.07.926,torte-2b,2020.1.3,MacIntel,60,13424,,,,,,,,,,,,,,0,7,7,7,1,4,,,,,,,,,,,,,,,,,,,,,,,,,,,,,,,,,,,,,,,,,,,,,,,
,,,,,,,,,,,,,,,,,,,,,,,19,female,2020-11-19_14h19.07.926,torte-2b,2020.1.3,MacIntel,60,13424,,,,,,,,,,,,,,0,8,8,8,1,7,,,,,,,,,,,,,,,,,,,,,,,,,,,,,,,,,,,,,,,,,,,,,,,
,,,,,,,,,,,,,,,,,,,,,,,19,female,2020-11-19_14h19.07.926,torte-2b,2020.1.3,MacIntel,60,13424,,,,,,,,,,,,,,0,9,9,9,1,4,,,,,,,,,,,,,,,,,,,,,,,,,,,,,,,,,,,,,,,,,,,,,,,
,,,,,,,,,,,,,,,,,,,,,,,19,female,2020-11-19_14h19.07.926,torte-2b,2020.1.3,MacIntel,60,13424,,,,,,,,,,,,,space,0,10,10,10,1,7,0.696,,,,,,,,,,,,,,,,,,,,,,,,,,,,,,,,,,,,,,,,,,,,,,
,,,,,,,,,,,,,,,,,,,,,,,19,female,2020-11-19_14h19.07.926,torte-2b,2020.1.3,MacIntel,60,13424,,,,,,,,,,,,,space,0,11,11,11,1,7,0.919,,,,,,,,,,,,,,,,,,,,,,,,,,,,,,,,,,,,,,,,,,,,,,
,,,,,,,,,,,,,,,,,,,,,,,19,female,2020-11-19_14h19.07.926,torte-2b,2020.1.3,MacIntel,60,13424,,,,,,,,,,,,,,0,12,12,12,1,7,,,,,,,,,,,,,,,,,,,,,,,,,,,,,,,,,,,,,,,,,,,,,,,
,,,,,,,,,,,,,,,,,,,,,,,19,female,2020-11-19_14h19.07.926,torte-2b,2020.1.3,MacIntel,60,13424,,,,,,,,,,,,,,0,13,13,13,1,4,,,,,,,,,,,,,,,,,,,,,,,,,,,,,,,,,,,,,,,,,,,,,,,
,,,,,,,,,,,,,,,,,,,,,,,19,female,2020-11-19_14h19.07.926,torte-2b,2020.1.3,MacIntel,60,13424,,,,,,,,,,,,,,0,14,14,14,1,6,,,,,,,,,,,,,,,,,,,,,,,,,,,,,,,,,,,,,,,,,,,,,,,
,,,,,,,,,,,,,,,,,,,,,,,19,female,2020-11-19_14h19.07.926,torte-2b,2020.1.3,MacIntel,60,13424,,,,,,,,,,,,,space,0,15,15,15,1,4,0.521,,,,,,,,,,,,,,,,,,,,,,,,,,,,,,,,,,,,,,,,,,,,,,
,,,,,,,,,,,,,,,,,,,,,,,19,female,2020-11-19_14h19.07.926,torte-2b,2020.1.3,MacIntel,60,13424,,,,,,,,,,,,,,0,16,16,16,1,6,,,,,,,,,,,,,,,,,,,,,,,,,,,,,,,,,,,,,,,,,,,,,,,
,,,,,,,,,,,,,,,,,,,,,,,19,female,2020-11-19_14h19.07.926,torte-2b,2020.1.3,MacIntel,60,13424,,,,,,,,,,,,,,0,17,17,17,1,7,,,,,,,,,,,,,,,,,,,,,,,,,,,,,,,,,,,,,,,,,,,,,,,
,,,,,,,,,,,,,,,,,,,,,,,19,female,2020-11-19_14h19.07.926,torte-2b,2020.1.3,MacIntel,60,13424,,,,,,,,,,,,,space,0,18,18,18,1,6,0.282,,,,,,,,,,,,,,,,,,,,,,,,,,,,,,,,,,,,,,,,,,,,,,
,,,,,,,,,,,,,,,,,,,,,,,19,female,2020-11-19_14h19.07.926,torte-2b,2020.1.3,MacIntel,60,13424,,,,,,,,,,,,,space,0,19,19,19,1,7,0.464,,,,,,,,,,,,,,,,,,,,,,,,,,,,,,,,,,,,,,,,,,,,,,
,,,,,,,,,,,,,,,,,,,,,,,19,female,2020-11-19_14h19.07.926,torte-2b,2020.1.3,MacIntel,60,13424,,,,,,,,,,,,,,0,20,20,20,1,5,,,,,,,,,,,,,,,,,,,,,,,,,,,,,,,,,,,,,,,,,,,,,,,
,,,,,,,,,,,,,,,,,,,,,,,19,female,2020-11-19_14h19.07.926,torte-2b,2020.1.3,MacIntel,60,13424,,,,,,,,,,,,,,0,21,21,21,1,1,,,,,,,,,,,,,,,,,,,,,,,,,,,,,,,,,,,,,,,,,,,,,,,
,,,,,,,,,,,,,,,,,,,,,,,19,female,2020-11-19_14h19.07.926,torte-2b,2020.1.3,MacIntel,60,13424,,,,,,,,,,,,,,0,22,22,22,1,6,,,,,,,,,,,,,,,,,,,,,,,,,,,,,,,,,,,,,,,,,,,,,,,
,,,,,,,,,,,,,,,,,,,,,,,19,female,2020-11-19_14h19.07.926,torte-2b,2020.1.3,MacIntel,60,13424,,,,,,,,,,,,,,0,23,23,23,1,1,,,,,,,,,,,,,,,,,,,,,,,,,,,,,,,,,,,,,,,,,,,,,,,
,,,,,,,,,,,,,,,,,,,,,,,19,female,2020-11-19_14h19.07.926,torte-2b,2020.1.3,MacIntel,60,13424,,,,,,,,,,,,,,0,24,24,24,1,5,,,,,,,,,,,,,,,,,,,,,,,,,,,,,,,,,,,,,,,,,,,,,,,
,,,,,,,,,,,,,,,,,,,,,,,19,female,2020-11-19_14h19.07.926,torte-2b,2020.1.3,MacIntel,60,13424,,,,,,,,,,,,,,0,25,25,25,1,6,,,,,,,,,,,,,,,,,,,,,,,,,,,,,,,,,,,,,,,,,,,,,,,
,,,,,,,,,,,,,,,,,,,,,,,19,female,2020-11-19_14h19.07.926,torte-2b,2020.1.3,MacIntel,60,13424,,,,,,,,,,,,,space,0,26,26,26,1,6,0.212,,,,,,,,,,,,,,,,,,,,,,,,,,,,,,,,,,,,,,,,,,,,,,
,,,,,,,,,,,,,,,,,,,,,,,19,female,2020-11-19_14h19.07.926,torte-2b,2020.1.3,MacIntel,60,13424,,,,,,,,,,,,,,0,27,27,27,1,6,,,,,,,,,,,,,,,,,,,,,,,,,,,,,,,,,,,,,,,,,,,,,,,
,,,,,,,,,,,,,,,,,,,,,,,19,female,2020-11-19_14h19.07.926,torte-2b,2020.1.3,MacIntel,60,13424,,,,,,,,,,,,,space,0,28,28,28,1,5,0.403,,,,,,,,,,,,,,,,,,,,,,,,,,,,,,,,,,,,,,,,,,,,,,
,,,,,,,,,,,,,,,,,,,,,,,19,female,2020-11-19_14h19.07.926,torte-2b,2020.1.3,MacIntel,60,13424,,,,,,,,,,,,,,0,29,29,29,1,2,,,,,,,,,,,,,,,,,,,,,,,,,,,,,,,,,,,,,,,,,,,,,,,
,,,,,,,,,,,,,,,,,,,,,,,19,female,2020-11-19_14h19.07.926,torte-2b,2020.1.3,MacIntel,60,13424,,,,,,,,,,,,,space,0,30,30,30,1,5,0.446,,,,,,,,,,,,,,,,,,,,,,,,,,,,,,,,,,,,,,,,,,,,,,
,,,,,,,,,,,,,,,,,,,,,,,19,female,2020-11-19_14h19.07.926,torte-2b,2020.1.3,MacIntel,60,13424,,,,,,,,,,,,,,0,31,31,31,1,2,,,,,,,,,,,,,,,,,,,,,,,,,,,,,,,,,,,,,,,,,,,,,,,
,,,,,,,,,,,,,,,,,,,,,,,19,female,2020-11-19_14h19.07.926,torte-2b,2020.1.3,MacIntel,60,13424,,,,,,,,,,,,,,0,32,32,32,1,5,,,,,,,,,,,,,,,,,,,,,,,,,,,,,,,,,,,,,,,,,,,,,,,
,,,,,,,,,,,,,,,,,,,,,,,19,female,2020-11-19_14h19.07.926,torte-2b,2020.1.3,MacIntel,60,13424,,,,,,,,,,,,,,0,33,33,33,1,1,,,,,,,,,,,,,,,,,,,,,,,,,,,,,,,,,,,,,,,,,,,,,,,
,,,,,,,,,,,,,,,,,,,,,,,19,female,2020-11-19_14h19.07.926,torte-2b,2020.1.3,MacIntel,60,13424,,,,,,,,,,,,,,0,34,34,34,1,1,,,,,,,,,,,,,,,,,,,,,,,,,,,,,,,,,,,,,,,,,,,,,,,
,,,,,,,,,,,,,,,,,,,,,,,19,female,2020-11-19_14h19.07.926,torte-2b,2020.1.3,MacIntel,60,13424,,,,,,,,,,,,,,,,,,,2,,0,0,0,0,1,,,,,,,,,,,,,,,,,,,,,,,,,,,,,,,,,,,,,,,,,
,,,,,,,,,,,,,,,,,,,,,,,19,female,2020-11-19_14h19.07.926,torte-2b,2020.1.3,MacIntel,60,13424,,,,,,,,,,,,,,,,,,,2,,0,1,1,1,1,,,,,,,,,,,,,,,,,,,,,,,,,,,,,,,,,,,,,,,,,
,,,,,,,,,,,,,,,,,,,,,,,19,female,2020-11-19_14h19.07.926,torte-2b,2020.1.3,MacIntel,60,13424,,,,,,,,,,,,,space,,,,,,6,0.331,0,2,2,2,1,,,,,,,,,,,,,,,,,,,,,,,,,,,,,,,,,,,,,,,,,
,,,,,,,,,,,,,,,,,,,,,,,19,female,2020-11-19_14h19.07.926,torte-2b,2020.1.3,MacIntel,60,13424,,,,,,,,,,,,,space,,,,,,2,0.999,0,3,3,3,1,,,,,,,,,,,,,,,,,,,,,,,,,,,,,,,,,,,,,,,,,
,,,,,,,,,,,,,,,,,,,,,,,19,female,2020-11-19_14h19.07.926,torte-2b,2020.1.3,MacIntel,60,13424,,,,,,,,,,,,,space,,,,,,6,0.98,0,4,4,4,1,,,,,,,,,,,,,,,,,,,,,,,,,,,,,,,,,,,,,,,,,
,,,,,,,,,,,,,,,,,,,,,,,19,female,2020-11-19_14h19.07.926,torte-2b,2020.1.3,MacIntel,60,13424,,,,,,,,,,,,,,,,,,,2,,0,5,5,5,1,,,,,,,,,,,,,,,,,,,,,,,,,,,,,,,,,,,,,,,,,
,,,,,,,,,,,,,,,,,,,,,,,19,female,2020-11-19_14h19.07.926,torte-2b,2020.1.3,MacIntel,60,13424,,,,,,,,,,,,,,,,,,,7,,0,6,6,6,1,,,,,,,,,,,,,,,,,,,,,,,,,,,,,,,,,,,,,,,,,
,,,,,,,,,,,,,,,,,,,,,,,19,female,2020-11-19_14h19.07.926,torte-2b,2020.1.3,MacIntel,60,13424,,,,,,,,,,,,,,,,,,,2,,0,7,7,7,1,,,,,,,,,,,,,,,,,,,,,,,,,,,,,,,,,,,,,,,,,
,,,,,,,,,,,,,,,,,,,,,,,19,female,2020-11-19_14h19.07.926,torte-2b,2020.1.3,MacIntel,60,13424,,,,,,,,,,,,,,,,,,,7,,0,8,8,8,1,,,,,,,,,,,,,,,,,,,,,,,,,,,,,,,,,,,,,,,,,
,,,,,,,,,,,,,,,,,,,,,,,19,female,2020-11-19_14h19.07.926,torte-2b,2020.1.3,MacIntel,60,13424,,,,,,,,,,,,,,,,,,,2,,0,9,9,9,1,,,,,,,,,,,,,,,,,,,,,,,,,,,,,,,,,,,,,,,,,
,,,,,,,,,,,,,,,,,,,,,,,19,female,2020-11-19_14h19.07.926,torte-2b,2020.1.3,MacIntel,60,13424,,,,,,,,,,,,,,,,,,,5,,0,10,10,10,1,,,,,,,,,,,,,,,,,,,,,,,,,,,,,,,,,,,,,,,,,
,,,,,,,,,,,,,,,,,,,,,,,19,female,2020-11-19_14h19.07.926,torte-2b,2020.1.3,MacIntel,60,13424,,,,,,,,,,,,,,,,,,,4,,0,11,11,11,1,,,,,,,,,,,,,,,,,,,,,,,,,,,,,,,,,,,,,,,,,
,,,,,,,,,,,,,,,,,,,,,,,19,female,2020-11-19_14h19.07.926,torte-2b,2020.1.3,MacIntel,60,13424,,,,,,,,,,,,,space,,,,,,5,0.465,0,12,12,12,1,,,,,,,,,,,,,,,,,,,,,,,,,,,,,,,,,,,,,,,,,
,,,,,,,,,,,,,,,,,,,,,,,19,female,2020-11-19_14h19.07.926,torte-2b,2020.1.3,MacIntel,60,13424,,,,,,,,,,,,,,,,,,,6,,0,13,13,13,1,,,,,,,,,,,,,,,,,,,,,,,,,,,,,,,,,,,,,,,,,
,,,,,,,,,,,,,,,,,,,,,,,19,female,2020-11-19_14h19.07.926,torte-2b,2020.1.3,MacIntel,60,13424,,,,,,,,,,,,,,,,,,,5,,0,14,14,14,1,,,,,,,,,,,,,,,,,,,,,,,,,,,,,,,,,,,,,,,,,
,,,,,,,,,,,,,,,,,,,,,,,19,female,2020-11-19_14h19.07.926,torte-2b,2020.1.3,MacIntel,60,13424,,,,,,,,,,,,,,,,,,,4,,0,15,15,15,1,,,,,,,,,,,,,,,,,,,,,,,,,,,,,,,,,,,,,,,,,
,,,,,,,,,,,,,,,,,,,,,,,19,female,2020-11-19_14h19.07.926,torte-2b,2020.1.3,MacIntel,60,13424,,,,,,,,,,,,,,,,,,,5,,0,16,16,16,1,,,,,,,,,,,,,,,,,,,,,,,,,,,,,,,,,,,,,,,,,
,,,,,,,,,,,,,,,,,,,,,,,19,female,2020-11-19_14h19.07.926,torte-2b,2020.1.3,MacIntel,60,13424,,,,,,,,,,,,,,,,,,,3,,0,17,17,17,1,,,,,,,,,,,,,,,,,,,,,,,,,,,,,,,,,,,,,,,,,
,,,,,,,,,,,,,,,,,,,,,,,19,female,2020-11-19_14h19.07.926,torte-2b,2020.1.3,MacIntel,60,13424,,,,,,,,,,,,,,,,,,,6,,0,18,18,18,1,,,,,,,,,,,,,,,,,,,,,,,,,,,,,,,,,,,,,,,,,
,,,,,,,,,,,,,,,,,,,,,,,19,female,2020-11-19_14h19.07.926,torte-2b,2020.1.3,MacIntel,60,13424,,,,,,,,,,,,,space,,,,,,6,0.246,0,19,19,19,1,,,,,,,,,,,,,,,,,,,,,,,,,,,,,,,,,,,,,,,,,
,,,,,,,,,,,,,,,,,,,,,,,19,female,2020-11-19_14h19.07.926,torte-2b,2020.1.3,MacIntel,60,13424,,,,,,,,,,,,,,,,,,,6,,0,20,20,20,1,,,,,,,,,,,,,,,,,,,,,,,,,,,,,,,,,,,,,,,,,
,,,,,,,,,,,,,,,,,,,,,,,19,female,2020-11-19_14h19.07.926,torte-2b,2020.1.3,MacIntel,60,13424,,,,,,,,,,,,,space,,,,,,4,0.496,0,21,21,21,1,,,,,,,,,,,,,,,,,,,,,,,,,,,,,,,,,,,,,,,,,
,,,,,,,,,,,,,,,,,,,,,,,19,female,2020-11-19_14h19.07.926,torte-2b,2020.1.3,MacIntel,60,13424,,,,,,,,,,,,,space,,,,,,6,0.085,0,22,22,22,1,,,,,,,,,,,,,,,,,,,,,,,,,,,,,,,,,,,,,,,,,
,,,,,,,,,,,,,,,,,,,,,,,19,female,2020-11-19_14h19.07.926,torte-2b,2020.1.3,MacIntel,60,13424,,,,,,,,,,,,,,,,,,,4,,0,23,23,23,1,,,,,,,,,,,,,,,,,,,,,,,,,,,,,,,,,,,,,,,,,
,,,,,,,,,,,,,,,,,,,,,,,19,female,2020-11-19_14h19.07.926,torte-2b,2020.1.3,MacIntel,60,13424,,,,,,,,,,,,,,,,,,,6,,0,24,24,24,1,,,,,,,,,,,,,,,,,,,,,,,,,,,,,,,,,,,,,,,,,
,,,,,,,,,,,,,,,,,,,,,,,19,female,2020-11-19_14h19.07.926,torte-2b,2020.1.3,MacIntel,60,13424,,,,,,,,,,,,,space,,,,,,6,0.247,0,25,25,25,1,,,,,,,,,,,,,,,,,,,,,,,,,,,,,,,,,,,,,,,,,
,,,,,,,,,,,,,,,,,,,,,,,19,female,2020-11-19_14h19.07.926,torte-2b,2020.1.3,MacIntel,60,13424,,,,,,,,,,,,,,,,,,,7,,0,26,26,26,1,,,,,,,,,,,,,,,,,,,,,,,,,,,,,,,,,,,,,,,,,
,,,,,,,,,,,,,,,,,,,,,,,19,female,2020-11-19_14h19.07.926,torte-2b,2020.1.3,MacIntel,60,13424,,,,,,,,,,,,,,,,,,,1,,0,27,27,27,1,,,,,,,,,,,,,,,,,,,,,,,,,,,,,,,,,,,,,,,,,
,,,,,,,,,,,,,,,,,,,,,,,19,female,2020-11-19_14h19.07.926,torte-2b,2020.1.3,MacIntel,60,13424,,,,,,,,,,,,,,,,,,,7,,0,28,28,28,1,,,,,,,,,,,,,,,,,,,,,,,,,,,,,,,,,,,,,,,,,
,,,,,,,,,,,,,,,,,,,,,,,19,female,2020-11-19_14h19.07.926,torte-2b,2020.1.3,MacIntel,60,13424,,,,,,,,,,,,,,,,,,,4,,0,29,29,29,1,,,,,,,,,,,,,,,,,,,,,,,,,,,,,,,,,,,,,,,,,
,,,,,,,,,,,,,,,,,,,,,,,19,female,2020-11-19_14h19.07.926,torte-2b,2020.1.3,MacIntel,60,13424,,,,,,,,,,,,,space,,,,,,7,0.365,0,30,30,30,1,,,,,,,,,,,,,,,,,,,,,,,,,,,,,,,,,,,,,,,,,
,,,,,,,,,,,,,,,,,,,,,,,19,female,2020-11-19_14h19.07.926,torte-2b,2020.1.3,MacIntel,60,13424,,,,,,,,,,,,,,,,,,,3,,0,31,31,31,1,,,,,,,,,,,,,,,,,,,,,,,,,,,,,,,,,,,,,,,,,
,,,,,,,,,,,,,,,,,,,,,,,19,female,2020-11-19_14h19.07.926,torte-2b,2020.1.3,MacIntel,60,13424,,,,,,,,,,,,,,,,,,,2,,0,32,32,32,1,,,,,,,,,,,,,,,,,,,,,,,,,,,,,,,,,,,,,,,,,
,,,,,,,,,,,,,,,,,,,,,,,19,female,2020-11-19_14h19.07.926,torte-2b,2020.1.3,MacIntel,60,13424,,,,,,,,,,,,,,,,,,,6,,0,33,33,33,1,,,,,,,,,,,,,,,,,,,,,,,,,,,,,,,,,,,,,,,,,
,,,,,,,,,,,,,,,,,,,,,,,19,female,2020-11-19_14h19.07.926,torte-2b,2020.1.3,MacIntel,60,13424,,,,,,,,,,,,,space,,,,,,3,0.67,0,34,34,34,1,,,,,,,,,,,,,,,,,,,,,,,,,,,,,,,,,,,,,,,,,
,,,,,,,,,,,,,,,,,,,,,,,19,female,2020-11-19_14h19.07.926,torte-2b,2020.1.3,MacIntel,60,13424,,,,,,,,,,,,,,,,,,,7,,,,,,,0,0,0,0,1,,,,,,,,,,,,,,,,,,,,,,,,,,,,,,,,,,,,
,,,,,,,,,,,,,,,,,,,,,,,19,female,2020-11-19_14h19.07.926,torte-2b,2020.1.3,MacIntel,60,13424,,,,,,,,,,,,,,,,,,,5,,,,,,,0,1,1,1,1,,,,,,,,,,,,,,,,,,,,,,,,,,,,,,,,,,,,
,,,,,,,,,,,,,,,,,,,,,,,19,female,2020-11-19_14h19.07.926,torte-2b,2020.1.3,MacIntel,60,13424,,,,,,,,,,,,,,,,,,,4,,,,,,,0,2,2,2,1,,,,,,,,,,,,,,,,,,,,,,,,,,,,,,,,,,,,
,,,,,,,,,,,,,,,,,,,,,,,19,female,2020-11-19_14h19.07.926,torte-2b,2020.1.3,MacIntel,60,13424,,,,,,,,,,,,,space,,,,,,5,0.4,,,,,,0,3,3,3,1,,,,,,,,,,,,,,,,,,,,,,,,,,,,,,,,,,,,
,,,,,,,,,,,,,,,,,,,,,,,19,female,2020-11-19_14h19.07.926,torte-2b,2020.1.3,MacIntel,60,13424,,,,,,,,,,,,,,,,,,,6,,,,,,,0,4,4,4,1,,,,,,,,,,,,,,,,,,,,,,,,,,,,,,,,,,,,
,,,,,,,,,,,,,,,,,,,,,,,19,female,2020-11-19_14h19.07.926,torte-2b,2020.1.3,MacIntel,60,13424,,,,,,,,,,,,,space,,,,,,5,0.347,,,,,,0,5,5,5,1,,,,,,,,,,,,,,,,,,,,,,,,,,,,,,,,,,,,
,,,,,,,,,,,,,,,,,,,,,,,19,female,2020-11-19_14h19.07.926,torte-2b,2020.1.3,MacIntel,60,13424,,,,,,,,,,,,,,,,,,,3,,,,,,,0,6,6,6,1,,,,,,,,,,,,,,,,,,,,,,,,,,,,,,,,,,,,
,,,,,,,,,,,,,,,,,,,,,,,19,female,2020-11-19_14h19.07.926,torte-2b,2020.1.3,MacIntel,60,13424,,,,,,,,,,,,,,,,,,,4,,,,,,,0,7,7,7,1,,,,,,,,,,,,,,,,,,,,,,,,,,,,,,,,,,,,
,,,,,,,,,,,,,,,,,,,,,,,19,female,2020-11-19_14h19.07.926,torte-2b,2020.1.3,MacIntel,60,13424,,,,,,,,,,,,,,,,,,,3,,,,,,,0,8,8,8,1,,,,,,,,,,,,,,,,,,,,,,,,,,,,,,,,,,,,
,,,,,,,,,,,,,,,,,,,,,,,19,female,2020-11-19_14h19.07.926,torte-2b,2020.1.3,MacIntel,60,13424,,,,,,,,,,,,,,,,,,,1,,,,,,,0,9,9,9,1,,,,,,,,,,,,,,,,,,,,,,,,,,,,,,,,,,,,
,,,,,,,,,,,,,,,,,,,,,,,19,female,2020-11-19_14h19.07.926,torte-2b,2020.1.3,MacIntel,60,13424,,,,,,,,,,,,,,,,,,,2,,,,,,,0,10,10,10,1,,,,,,,,,,,,,,,,,,,,,,,,,,,,,,,,,,,,
,,,,,,,,,,,,,,,,,,,,,,,19,female,2020-11-19_14h19.07.926,torte-2b,2020.1.3,MacIntel,60,13424,,,,,,,,,,,,,space,,,,,,1,0.414,,,,,,0,11,11,11,1,,,,,,,,,,,,,,,,,,,,,,,,,,,,,,,,,,,,
,,,,,,,,,,,,,,,,,,,,,,,19,female,2020-11-19_14h19.07.926,torte-2b,2020.1.3,MacIntel,60,13424,,,,,,,,,,,,,space,,,,,,2,0.656,,,,,,0,12,12,12,1,,,,,,,,,,,,,,,,,,,,,,,,,,,,,,,,,,,,
,,,,,,,,,,,,,,,,,,,,,,,19,female,2020-11-19_14h19.07.926,torte-2b,2020.1.3,MacIntel,60,13424,,,,,,,,,,,,,,,,,,,1,,,,,,,0,13,13,13,1,,,,,,,,,,,,,,,,,,,,,,,,,,,,,,,,,,,,
,,,,,,,,,,,,,,,,,,,,,,,19,female,2020-11-19_14h19.07.926,torte-2b,2020.1.3,MacIntel,60,13424,,,,,,,,,,,,,,,,,,,3,,,,,,,0,14,14,14,1,,,,,,,,,,,,,,,,,,,,,,,,,,,,,,,,,,,,
,,,,,,,,,,,,,,,,,,,,,,,19,female,2020-11-19_14h19.07.926,torte-2b,2020.1.3,MacIntel,60,13424,,,,,,,,,,,,,space,,,,,,1,0.381,,,,,,0,15,15,15,1,,,,,,,,,,,,,,,,,,,,,,,,,,,,,,,,,,,,
,,,,,,,,,,,,,,,,,,,,,,,19,female,2020-11-19_14h19.07.926,torte-2b,2020.1.3,MacIntel,60,13424,,,,,,,,,,,,,,,,,,,7,,,,,,,0,16,16,16,1,,,,,,,,,,,,,,,,,,,,,,,,,,,,,,,,,,,,
,,,,,,,,,,,,,,,,,,,,,,,19,female,2020-11-19_14h19.07.926,torte-2b,2020.1.3,MacIntel,60,13424,,,,,,,,,,,,,,,,,,,7,,,,,,,0,17,17,17,1,,,,,,,,,,,,,,,,,,,,,,,,,,,,,,,,,,,,
,,,,,,,,,,,,,,,,,,,,,,,19,female,2020-11-19_14h19.07.926,torte-2b,2020.1.3,MacIntel,60,13424,,,,,,,,,,,,,,,,,,,4,,,,,,,0,18,18,18,1,,,,,,,,,,,,,,,,,,,,,,,,,,,,,,,,,,,,
,,,,,,,,,,,,,,,,,,,,,,,19,female,2020-11-19_14h19.07.926,torte-2b,2020.1.3,MacIntel,60,13424,,,,,,,,,,,,,space,,,,,,7,0.38,,,,,,0,19,19,19,1,,,,,,,,,,,,,,,,,,,,,,,,,,,,,,,,,,,,
,,,,,,,,,,,,,,,,,,,,,,,19,female,2020-11-19_14h19.07.926,torte-2b,2020.1.3,MacIntel,60,13424,,,,,,,,,,,,,,,,,,,3,,,,,,,0,20,20,20,1,,,,,,,,,,,,,,,,,,,,,,,,,,,,,,,,,,,,
,,,,,,,,,,,,,,,,,,,,,,,19,female,2020-11-19_14h19.07.926,torte-2b,2020.1.3,MacIntel,60,13424,,,,,,,,,,,,,space,,,,,,7,0.699,,,,,,0,21,21,21,1,,,,,,,,,,,,,,,,,,,,,,,,,,,,,,,,,,,,
,,,,,,,,,,,,,,,,,,,,,,,19,female,2020-11-19_14h19.07.926,torte-2b,2020.1.3,MacIntel,60,13424,,,,,,,,,,,,,,,,,,,3,,,,,,,0,22,22,22,1,,,,,,,,,,,,,,,,,,,,,,,,,,,,,,,,,,,,
,,,,,,,,,,,,,,,,,,,,,,,19,female,2020-11-19_14h19.07.926,torte-2b,2020.1.3,MacIntel,60,13424,,,,,,,,,,,,,,,,,,,1,,,,,,,0,23,23,23,1,,,,,,,,,,,,,,,,,,,,,,,,,,,,,,,,,,,,
,,,,,,,,,,,,,,,,,,,,,,,19,female,2020-11-19_14h19.07.926,torte-2b,2020.1.3,MacIntel,60,13424,,,,,,,,,,,,,,,,,,,6,,,,,,,0,24,24,24,1,,,,,,,,,,,,,,,,,,,,,,,,,,,,,,,,,,,,
,,,,,,,,,,,,,,,,,,,,,,,19,female,2020-11-19_14h19.07.926,torte-2b,2020.1.3,MacIntel,60,13424,,,,,,,,,,,,,,,,,,,3,,,,,,,0,25,25,25,1,,,,,,,,,,,,,,,,,,,,,,,,,,,,,,,,,,,,
,,,,,,,,,,,,,,,,,,,,,,,19,female,2020-11-19_14h19.07.926,torte-2b,2020.1.3,MacIntel,60,13424,,,,,,,,,,,,,,,,,,,2,,,,,,,0,26,26,26,1,,,,,,,,,,,,,,,,,,,,,,,,,,,,,,,,,,,,
,,,,,,,,,,,,,,,,,,,,,,,19,female,2020-11-19_14h19.07.926,torte-2b,2020.1.3,MacIntel,60,13424,,,,,,,,,,,,,space,,,,,,3,0.524,,,,,,0,27,27,27,1,,,,,,,,,,,,,,,,,,,,,,,,,,,,,,,,,,,,
,,,,,,,,,,,,,,,,,,,,,,,19,female,2020-11-19_14h19.07.926,torte-2b,2020.1.3,MacIntel,60,13424,,,,,,,,,,,,,,,,,,,1,,,,,,,0,28,28,28,1,,,,,,,,,,,,,,,,,,,,,,,,,,,,,,,,,,,,
,,,,,,,,,,,,,,,,,,,,,,,19,female,2020-11-19_14h19.07.926,torte-2b,2020.1.3,MacIntel,60,13424,,,,,,,,,,,,,,,,,,,3,,,,,,,0,29,29,29,1,,,,,,,,,,,,,,,,,,,,,,,,,,,,,,,,,,,,
,,,,,,,,,,,,,,,,,,,,,,,19,female,2020-11-19_14h19.07.926,torte-2b,2020.1.3,MacIntel,60,13424,,,,,,,,,,,,,space,,,,,,1,0.623,,,,,,0,30,30,30,1,,,,,,,,,,,,,,,,,,,,,,,,,,,,,,,,,,,,
,,,,,,,,,,,,,,,,,,,,,,,19,female,2020-11-19_14h19.07.926,torte-2b,2020.1.3,MacIntel,60,13424,,,,,,,,,,,,,,,,,,,7,,,,,,,0,31,31,31,1,,,,,,,,,,,,,,,,,,,,,,,,,,,,,,,,,,,,
,,,,,,,,,,,,,,,,,,,,,,,19,female,2020-11-19_14h19.07.926,torte-2b,2020.1.3,MacIntel,60,13424,,,,,,,,,,,,,,,,,,,5,,,,,,,0,32,32,32,1,,,,,,,,,,,,,,,,,,,,,,,,,,,,,,,,,,,,
,,,,,,,,,,,,,,,,,,,,,,,19,female,2020-11-19_14h19.07.926,torte-2b,2020.1.3,MacIntel,60,13424,,,,,,,,,,,,,,,,,,,7,,,,,,,0,33,33,33,1,,,,,,,,,,,,,,,,,,,,,,,,,,,,,,,,,,,,
,,,,,,,,,,,,,,,,,,,,,,,19,female,2020-11-19_14h19.07.926,torte-2b,2020.1.3,MacIntel,60,13424,,,,,,,,,,,,,,,,,,,2,,,,,,,0,34,34,34,1,,,,,,,,,,,,,,,,,,,,,,,,,,,,,,,,,,,,
,,,,,,,,,,,,,,,,,,,,,,,19,female,2020-11-19_14h19.07.926,torte-2b,2020.1.3,MacIntel,60,13424,,,,,,,,,,,,,,,,,,,3,,,,,,,,,,,,0,0,0,0,1,,,,,,,,,,,,,,,,,,,,,,,,,,,,,,,
,,,,,,,,,,,,,,,,,,,,,,,19,female,2020-11-19_14h19.07.926,torte-2b,2020.1.3,MacIntel,60,13424,,,,,,,,,,,,,,,,,,,7,,,,,,,,,,,,0,1,1,1,1,,,,,,,,,,,,,,,,,,,,,,,,,,,,,,,
,,,,,,,,,,,,,,,,,,,,,,,19,female,2020-11-19_14h19.07.926,torte-2b,2020.1.3,MacIntel,60,13424,,,,,,,,,,,,,space,,,,,,7,0.372,,,,,,,,,,,0,2,2,2,1,,,,,,,,,,,,,,,,,,,,,,,,,,,,,,,
,,,,,,,,,,,,,,,,,,,,,,,19,female,2020-11-19_14h19.07.926,torte-2b,2020.1.3,MacIntel,60,13424,,,,,,,,,,,,,,,,,,,4,,,,,,,,,,,,0,3,3,3,1,,,,,,,,,,,,,,,,,,,,,,,,,,,,,,,
,,,,,,,,,,,,,,,,,,,,,,,19,female,2020-11-19_14h19.07.926,torte-2b,2020.1.3,MacIntel,60,13424,,,,,,,,,,,,,,,,,,,5,,,,,,,,,,,,0,4,4,4,1,,,,,,,,,,,,,,,,,,,,,,,,,,,,,,,
,,,,,,,,,,,,,,,,,,,,,,,19,female,2020-11-19_14h19.07.926,torte-2b,2020.1.3,MacIntel,60,13424,,,,,,,,,,,,,space,,,,,,4,0.714,,,,,,,,,,,0,5,5,5,1,,,,,,,,,,,,,,,,,,,,,,,,,,,,,,,
,,,,,,,,,,,,,,,,,,,,,,,19,female,2020-11-19_14h19.07.926,torte-2b,2020.1.3,MacIntel,60,13424,,,,,,,,,,,,,,,,,,,2,,,,,,,,,,,,0,6,6,6,1,,,,,,,,,,,,,,,,,,,,,,,,,,,,,,,
,,,,,,,,,,,,,,,,,,,,,,,19,female,2020-11-19_14h19.07.926,torte-2b,2020.1.3,MacIntel,60,13424,,,,,,,,,,,,,space,,,,,,4,1.862,,,,,,,,,,,0,7,7,7,1,,,,,,,,,,,,,,,,,,,,,,,,,,,,,,,
,,,,,,,,,,,,,,,,,,,,,,,19,female,2020-11-19_14h19.07.926,torte-2b,2020.1.3,MacIntel,60,13424,,,,,,,,,,,,,,,,,,,2,,,,,,,,,,,,0,8,8,8,1,,,,,,,,,,,,,,,,,,,,,,,,,,,,,,,
,,,,,,,,,,,,,,,,,,,,,,,19,female,2020-11-19_14h19.07.926,torte-2b,2020.1.3,MacIntel,60,13424,,,,,,,,,,,,,,,,,,,2,,,,,,,,,,,,0,9,9,9,1,,,,,,,,,,,,,,,,,,,,,,,,,,,,,,,
,,,,,,,,,,,,,,,,,,,,,,,19,female,2020-11-19_14h19.07.926,torte-2b,2020.1.3,MacIntel,60,13424,,,,,,,,,,,,,,,,,,,6,,,,,,,,,,,,0,10,10,10,1,,,,,,,,,,,,,,,,,,,,,,,,,,,,,,,
,,,,,,,,,,,,,,,,,,,,,,,19,female,2020-11-19_14h19.07.926,torte-2b,2020.1.3,MacIntel,60,13424,,,,,,,,,,,,,space,,,,,,2,0.335,,,,,,,,,,,0,11,11,11,1,,,,,,,,,,,,,,,,,,,,,,,,,,,,,,,
,,,,,,,,,,,,,,,,,,,,,,,19,female,2020-11-19_14h19.07.926,torte-2b,2020.1.3,MacIntel,60,13424,,,,,,,,,,,,,space,,,,,,2,0.637,,,,,,,,,,,0,12,12,12,1,,,,,,,,,,,,,,,,,,,,,,,,,,,,,,,
,,,,,,,,,,,,,,,,,,,,,,,19,female,2020-11-19_14h19.07.926,torte-2b,2020.1.3,MacIntel,60,13424,,,,,,,,,,,,,,,,,,,2,,,,,,,,,,,,0,13,13,13,1,,,,,,,,,,,,,,,,,,,,,,,,,,,,,,,
,,,,,,,,,,,,,,,,,,,,,,,19,female,2020-11-19_14h19.07.926,torte-2b,2020.1.3,MacIntel,60,13424,,,,,,,,,,,,,,,,,,,2,,,,,,,,,,,,0,14,14,14,1,,,,,,,,,,,,,,,,,,,,,,,,,,,,,,,
,,,,,,,,,,,,,,,,,,,,,,,19,female,2020-11-19_14h19.07.926,torte-2b,2020.1.3,MacIntel,60,13424,,,,,,,,,,,,,,,,,,,4,,,,,,,,,,,,0,15,15,15,1,,,,,,,,,,,,,,,,,,,,,,,,,,,,,,,
,,,,,,,,,,,,,,,,,,,,,,,19,female,2020-11-19_14h19.07.926,torte-2b,2020.1.3,MacIntel,60,13424,,,,,,,,,,,,,,,,,,,3,,,,,,,,,,,,0,16,16,16,1,,,,,,,,,,,,,,,,,,,,,,,,,,,,,,,
,,,,,,,,,,,,,,,,,,,,,,,19,female,2020-11-19_14h19.07.926,torte-2b,2020.1.3,MacIntel,60,13424,,,,,,,,,,,,,,,,,,,7,,,,,,,,,,,,0,17,17,17,1,,,,,,,,,,,,,,,,,,,,,,,,,,,,,,,
,,,,,,,,,,,,,,,,,,,,,,,19,female,2020-11-19_14h19.07.926,torte-2b,2020.1.3,MacIntel,60,13424,,,,,,,,,,,,,,,,,,,4,,,,,,,,,,,,0,18,18,18,1,,,,,,,,,,,,,,,,,,,,,,,,,,,,,,,
,,,,,,,,,,,,,,,,,,,,,,,19,female,2020-11-19_14h19.07.926,torte-2b,2020.1.3,MacIntel,60,13424,,,,,,,,,,,,,space,,,,,,7,0.422,,,,,,,,,,,0,19,19,19,1,,,,,,,,,,,,,,,,,,,,,,,,,,,,,,,
,,,,,,,,,,,,,,,,,,,,,,,19,female,2020-11-19_14h19.07.926,torte-2b,2020.1.3,MacIntel,60,13424,,,,,,,,,,,,,,,,,,,7,,,,,,,,,,,,0,20,20,20,1,,,,,,,,,,,,,,,,,,,,,,,,,,,,,,,
,,,,,,,,,,,,,,,,,,,,,,,19,female,2020-11-19_14h19.07.926,torte-2b,2020.1.3,MacIntel,60,13424,,,,,,,,,,,,,,,,,,,7,,,,,,,,,,,,0,21,21,21,1,,,,,,,,,,,,,,,,,,,,,,,,,,,,,,,
,,,,,,,,,,,,,,,,,,,,,,,19,female,2020-11-19_14h19.07.926,torte-2b,2020.1.3,MacIntel,60,13424,,,,,,,,,,,,,,,,,,,7,,,,,,,,,,,,0,22,22,22,1,,,,,,,,,,,,,,,,,,,,,,,,,,,,,,,
,,,,,,,,,,,,,,,,,,,,,,,19,female,2020-11-19_14h19.07.926,torte-2b,2020.1.3,MacIntel,60,13424,,,,,,,,,,,,,space,,,,,,1,0.448,,,,,,,,,,,0,23,23,23,1,,,,,,,,,,,,,,,,,,,,,,,,,,,,,,,
,,,,,,,,,,,,,,,,,,,,,,,19,female,2020-11-19_14h19.07.926,torte-2b,2020.1.3,MacIntel,60,13424,,,,,,,,,,,,,space,,,,,,7,0.683,,,,,,,,,,,0,24,24,24,1,,,,,,,,,,,,,,,,,,,,,,,,,,,,,,,
,,,,,,,,,,,,,,,,,,,,,,,19,female,2020-11-19_14h19.07.926,torte-2b,2020.1.3,MacIntel,60,13424,,,,,,,,,,,,,,,,,,,1,,,,,,,,,,,,0,25,25,25,1,,,,,,,,,,,,,,,,,,,,,,,,,,,,,,,
,,,,,,,,,,,,,,,,,,,,,,,19,female,2020-11-19_14h19.07.926,torte-2b,2020.1.3,MacIntel,60,13424,,,,,,,,,,,,,,,,,,,7,,,,,,,,,,,,0,26,26,26,1,,,,,,,,,,,,,,,,,,,,,,,,,,,,,,,
,,,,,,,,,,,,,,,,,,,,,,,19,female,2020-11-19_14h19.07.926,torte-2b,2020.1.3,MacIntel,60,13424,,,,,,,,,,,,,,,,,,,2,,,,,,,,,,,,0,27,27,27,1,,,,,,,,,,,,,,,,,,,,,,,,,,,,,,,
,,,,,,,,,,,,,,,,,,,,,,,19,female,2020-11-19_14h19.07.926,torte-2b,2020.1.3,MacIntel,60,13424,,,,,,,,,,,,,,,,,,,5,,,,,,,,,,,,0,28,28,28,1,,,,,,,,,,,,,,,,,,,,,,,,,,,,,,,
,,,,,,,,,,,,,,,,,,,,,,,19,female,2020-11-19_14h19.07.926,torte-2b,2020.1.3,MacIntel,60,13424,,,,,,,,,,,,,,,,,,,5,,,,,,,,,,,,0,29,29,29,1,,,,,,,,,,,,,,,,,,,,,,,,,,,,,,,
,,,,,,,,,,,,,,,,,,,,,,,19,female,2020-11-19_14h19.07.926,torte-2b,2020.1.3,MacIntel,60,13424,,,,,,,,,,,,,space,,,,,,5,1.348,,,,,,,,,,,0,30,30,30,1,,,,,,,,,,,,,,,,,,,,,,,,,,,,,,,
,,,,,,,,,,,,,,,,,,,,,,,19,female,2020-11-19_14h19.07.926,torte-2b,2020.1.3,MacIntel,60,13424,,,,,,,,,,,,,,,,,,,1,,,,,,,,,,,,0,31,31,31,1,,,,,,,,,,,,,,,,,,,,,,,,,,,,,,,
,,,,,,,,,,,,,,,,,,,,,,,19,female,2020-11-19_14h19.07.926,torte-2b,2020.1.3,MacIntel,60,13424,,,,,,,,,,,,,space,,,,,,5,1.208,,,,,,,,,,,0,32,32,32,1,,,,,,,,,,,,,,,,,,,,,,,,,,,,,,,
,,,,,,,,,,,,,,,,,,,,,,,19,female,2020-11-19_14h19.07.926,torte-2b,2020.1.3,MacIntel,60,13424,,,,,,,,,,,,,space,,,,,,3,0.33,,,,,,,,,,,0,33,33,33,1,,,,,,,,,,,,,,,,,,,,,,,,,,,,,,,
,,,,,,,,,,,,,,,,,,,,,,,19,female,2020-11-19_14h19.07.926,torte-2b,2020.1.3,MacIntel,60,13424,,,,,,,,,,,,,space,,,,,,3,0.446,,,,,,,,,,,0,34,34,34,1,,,,,,,,,,,,,,,,,,,,,,,,,,,,,,,
,,,,,,,,,,,,a,Incorrect,,,,,,t5.png,t3.png,2,0.056466,19,female,2020-11-19_14h19.07.926,torte-2b,2020.1.3,MacIntel,60,13424,0.848,space,0.732,,,,,,,,,,,,,,,,,,,,,,,,,,,,,,,,,space,3.203,0,0,0,38,1,,,,,,,,,,,,,,,,,,,,,,,,
,,,,,,,,,,,,l,Incorrect,,,,,,t2.png,t2.png,0,0.98115,19,female,2020-11-19_14h19.07.926,torte-2b,2020.1.3,MacIntel,60,13424,0.385,,,,,,,,,,,,,,,,,,,,,,,,,,,,,,,,,,,,,0,1,1,57,1,,,,,,,,,,,,,,,,,,,,,,,,
,,,,,,,,,,,,a,Correct!,,,,,,t1.png,t1.png,0,0.97829,19,female,2020-11-19_14h19.07.926,torte-2b,2020.1.3,MacIntel,60,13424,0.324,,,,,,,,,,,,,,,,,,,,,,,,,,,,,,,,,,,,,0,2,2,78,1,,,,,,,,,,,,,,,,,,,,,,,,
,,,,,,,,,,,,a,Correct!,,,,,,t4.png,t4.png,0,0.98115,19,female,2020-11-19_14h19.07.926,torte-2b,2020.1.3,MacIntel,60,13424,0.289,,,,,,,,,,,,,,,,,,,,,,,,,,,,,,,,,,,,,0,3,3,52,1,,,,,,,,,,,,,,,,,,,,,,,,
,,,,,,,,,,,,l,Correct!,,,,,,t3.png,t1.png,2,0.056466,19,female,2020-11-19_14h19.07.926,torte-2b,2020.1.3,MacIntel,60,13424,0.165,,,,,,,,,,,,,,,,,,,,,,,,,,,,,,,,,,,,,0,4,4,32,1,,,,,,,,,,,,,,,,,,,,,,,,
,,,,,,,,,,,,a,Correct!,,,,,,t4.png,t3.png,1,0.90855,19,female,2020-11-19_14h19.07.926,torte-2b,2020.1.3,MacIntel,60,13424,0.266,,,,,,,,,,,,,,,,,,,,,,,,,,,,,,,,,,,,,0,5,5,75,1,,,,,,,,,,,,,,,,,,,,,,,,
,,,,,,,,,,,,a,Correct!,,,,,,t1.png,t1.png,0,0.97829,19,female,2020-11-19_14h19.07.926,torte-2b,2020.1.3,MacIntel,60,13424,0.216,,,,,,,,,,,,,,,,,,,,,,,,,,,,,,,,,,,,,0,6,6,9,1,,,,,,,,,,,,,,,,,,,,,,,,
,,,,,,,,,,,,a,Incorrect,,,,,,t3.png,t1.png,2,0.0565,19,female,2020-11-19_14h19.07.926,torte-2b,2020.1.3,MacIntel,60,13424,0.214,,,,,,,,,,,,,,,,,,,,,,,,,,,,,,,,,,,,,0,7,7,31,1,,,,,,,,,,,,,,,,,,,,,,,,
,,,,,,,,,,,,l,Incorrect,,,,,,t3.png,t2.png,1,0.90855,19,female,2020-11-19_14h19.07.926,torte-2b,2020.1.3,MacIntel,60,13424,0.155,,,,,,,,,,,,,,,,,,,,,,,,,,,,,,,,,,,,,0,8,8,97,1,,,,,,,,,,,,,,,,,,,,,,,,
,,,,,,,,,,,,a,Incorrect,,,,,,t1.png,t4.png,3,0.0000131,19,female,2020-11-19_14h19.07.926,torte-2b,2020.1.3,MacIntel,60,13424,0.125,,,,,,,,,,,,,,,,,,,,,,,,,,,,,,,,,,,,,0,9,9,81,1,,,,,,,,,,,,,,,,,,,,,,,,
,,,,,,,,,,,,l,Correct!,,,,,,t3.png,t5.png,2,0.0565,19,female,2020-11-19_14h19.07.926,torte-2b,2020.1.3,MacIntel,60,13424,0.188,,,,,,,,,,,,,,,,,,,,,,,,,,,,,,,,,,,,,0,10,10,83,1,,,,,,,,,,,,,,,,,,,,,,,,
,,,,,,,,,,,,l,Incorrect,,,,,,t4.png,t3.png,1,0.90855,19,female,2020-11-19_14h19.07.926,torte-2b,2020.1.3,MacIntel,60,13424,0.266,,,,,,,,,,,,,,,,,,,,,,,,,,,,,,,,,,,,,0,11,11,35,1,,,,,,,,,,,,,,,,,,,,,,,,
,,,,,,,,,,,,l,Correct!,,,,,,t4.png,t2.png,2,0.059078,19,female,2020-11-19_14h19.07.926,torte-2b,2020.1.3,MacIntel,60,13424,0.322,,,,,,,,,,,,,,,,,,,,,,,,,,,,,,,,,,,,,0,12,12,109,1,,,,,,,,,,,,,,,,,,,,,,,,
,,,,,,,,,,,,a,Correct!,,,,,,t3.png,t2.png,1,0.90855,19,female,2020-11-19_14h19.07.926,torte-2b,2020.1.3,MacIntel,60,13424,0.299,,,,,,,,,,,,,,,,,,,,,,,,,,,,,,,,,,,,,0,13,13,18,1,,,,,,,,,,,,,,,,,,,,,,,,
,,,,,,,,,,,,l,Incorrect,,,,,,t1.png,t2.png,1,0.9,19,female,2020-11-19_14h19.07.926,torte-2b,2020.1.3,MacIntel,60,13424,0.272,,,,,,,,,,,,,,,,,,,,,,,,,,,,,,,,,,,,,0,14,14,1,1,,,,,,,,,,,,,,,,,,,,,,,,
,,,,,,,,,,,,l,Incorrect,,,,,,t3.png,t4.png,1,0.909,19,female,2020-11-19_14h19.07.926,torte-2b,2020.1.3,MacIntel,60,13424,0.09,,,,,,,,,,,,,,,,,,,,,,,,,,,,,,,,,,,,,0,15,15,106,1,,,,,,,,,,,,,,,,,,,,,,,,
,,,,,,,,,,,,a,Incorrect,,,,,,t2.png,t5.png,3,0.0000131,19,female,2020-11-19_14h19.07.926,torte-2b,2020.1.3,MacIntel,60,13424,0.222,,,,,,,,,,,,,,,,,,,,,,,,,,,,,,,,,,,,,0,16,16,40,1,,,,,,,,,,,,,,,,,,,,,,,,
,,,,,,,,,,,,l,Incorrect,,,,,,t2.png,t3.png,1,0.90855,19,female,2020-11-19_14h19.07.926,torte-2b,2020.1.3,MacIntel,60,13424,0.224,,,,,,,,,,,,,,,,,,,,,,,,,,,,,,,,,,,,,0,17,17,68,1,,,,,,,,,,,,,,,,,,,,,,,,
,,,,,,,,,,,,a,Incorrect,,,,,,t2.png,t4.png,2,0.0591,19,female,2020-11-19_14h19.07.926,torte-2b,2020.1.3,MacIntel,60,13424,0.775,,,,,,,,,,,,,,,,,,,,,,,,,,,,,,,,,,,,,0,18,18,15,1,,,,,,,,,,,,,,,,,,,,,,,,
,,,,,,,,,,,,l,Correct!,,,,,,t4.png,t1.png,3,0.0000131,19,female,2020-11-19_14h19.07.926,torte-2b,2020.1.3,MacIntel,60,13424,0.432,,,,,,,,,,,,,,,,,,,,,,,,,,,,,,,,,,,,,0,19,19,13,1,,,,,,,,,,,,,,,,,,,,,,,,
,,,,,,,,,,,,a,Incorrect,,,,,,t5.png,t1.png,4,9.55E-11,19,female,2020-11-19_14h19.07.926,torte-2b,2020.1.3,MacIntel,60,13424,0.365,,,,,,,,,,,,,,,,,,,,,,,,,,,,,,,,,,,,,0,20,20,22,1,,,,,,,,,,,,,,,,,,,,,,,,
,,,,,,,,,,,,l,Correct!,,,,,,t1.png,t3.png,2,0.056466,19,female,2020-11-19_14h19.07.926,torte-2b,2020.1.3,MacIntel,60,13424,0.373,,,,,,,,,,,,,,,,,,,,,,,,,,,,,,,,,,,,,0,21,21,60,1,,,,,,,,,,,,,,,,,,,,,,,,
,,,,,,,,,,,,l,Correct!,,,,,,t4.png,t2.png,2,0.059078,19,female,2020-11-19_14h19.07.926,torte-2b,2020.1.3,MacIntel,60,13424,0.368,,,,,,,,,,,,,,,,,,,,,,,,,,,,,,,,,,,,,0,22,22,110,1,,,,,,,,,,,,,,,,,,,,,,,,
,,,,,,,,,,,,a,Incorrect,,,,,,t5.png,t1.png,4,9.55E-11,19,female,2020-11-19_14h19.07.926,torte-2b,2020.1.3,MacIntel,60,13424,0.388,,,,,,,,,,,,,,,,,,,,,,,,,,,,,,,,,,,,,0,23,23,71,1,,,,,,,,,,,,,,,,,,,,,,,,
,,,,,,,,,,,,l,Incorrect,,,,,,t4.png,t3.png,1,0.909,19,female,2020-11-19_14h19.07.926,torte-2b,2020.1.3,MacIntel,60,13424,0.321,,,,,,,,,,,,,,,,,,,,,,,,,,,,,,,,,,,,,0,24,24,46,1,,,,,,,,,,,,,,,,,,,,,,,,
,,,,,,,,,,,,l,Incorrect,,,,,,t3.png,t4.png,1,0.909,19,female,2020-11-19_14h19.07.926,torte-2b,2020.1.3,MacIntel,60,13424,0.382,,,,,,,,,,,,,,,,,,,,,,,,,,,,,,,,,,,,,0,25,25,89,1,,,,,,,,,,,,,,,,,,,,,,,,
,,,,,,,,,,,,l,Incorrect,,,,,,t1.png,t2.png,1,0.90025,19,female,2020-11-19_14h19.07.926,torte-2b,2020.1.3,MacIntel,60,13424,0.487,,,,,,,,,,,,,,,,,,,,,,,,,,,,,,,,,,,,,0,26,26,112,1,,,,,,,,,,,,,,,,,,,,,,,,
,,,,,,,,,,,,l,Correct!,,,,,,t1.png,t2.png,1,0.90025,19,female,2020-11-19_14h19.07.926,torte-2b,2020.1.3,MacIntel,60,13424,0.314,,,,,,,,,,,,,,,,,,,,,,,,,,,,,,,,,,,,,0,27,27,33,1,,,,,,,,,,,,,,,,,,,,,,,,
,,,,,,,,,,,,a,Correct!,,,,,,t3.png,t2.png,1,0.909,19,female,2020-11-19_14h19.07.926,torte-2b,2020.1.3,MacIntel,60,13424,0.542,,,,,,,,,,,,,,,,,,,,,,,,,,,,,,,,,,,,,0,28,28,3,1,,,,,,,,,,,,,,,,,,,,,,,,
,,,,,,,,,,,,a,Incorrect,,,,,,t5.png,t2.png,3,0.0000131,19,female,2020-11-19_14h19.07.926,torte-2b,2020.1.3,MacIntel,60,13424,0.656,,,,,,,,,,,,,,,,,,,,,,,,,,,,,,,,,,,,,0,29,29,91,1,,,,,,,,,,,,,,,,,,,,,,,,
,,,,,,,,,,,,l,Correct!,,,,,,t1.png,t4.png,3,0.0000131,19,female,2020-11-19_14h19.07.926,torte-2b,2020.1.3,MacIntel,60,13424,0.401,,,,,,,,,,,,,,,,,,,,,,,,,,,,,,,,,,,,,0,30,30,17,1,,,,,,,,,,,,,,,,,,,,,,,,
,,,,,,,,,,,,a,Correct!,,,,,,t5.png,t5.png,0,0.97829,19,female,2020-11-19_14h19.07.926,torte-2b,2020.1.3,MacIntel,60,13424,0.206,,,,,,,,,,,,,,,,,,,,,,,,,,,,,,,,,,,,,0,31,31,70,1,,,,,,,,,,,,,,,,,,,,,,,,
,,,,,,,,,,,,a,Correct!,,,,,,t2.png,t3.png,1,0.90855,19,female,2020-11-19_14h19.07.926,torte-2b,2020.1.3,MacIntel,60,13424,0.209,,,,,,,,,,,,,,,,,,,,,,,,,,,,,,,,,,,,,0,32,32,111,1,,,,,,,,,,,,,,,,,,,,,,,,
,,,,,,,,,,,,a,Incorrect,,,,,,t3.png,t1.png,2,0.056466,19,female,2020-11-19_14h19.07.926,torte-2b,2020.1.3,MacIntel,60,13424,0.332,,,,,,,,,,,,,,,,,,,,,,,,,,,,,,,,,,,,,0,33,33,29,1,,,,,,,,,,,,,,,,,,,,,,,,
,,,,,,,,,,,,l,Correct!,,,,,,t5.png,t2.png,3,0.0000131,19,female,2020-11-19_14h19.07.926,torte-2b,2020.1.3,MacIntel,60,13424,0.199,,,,,,,,,,,,,,,,,,,,,,,,,,,,,,,,,,,,,0,34,34,51,1,,,,,,,,,,,,,,,,,,,,,,,,
,,,,,,,,,,,,a,Incorrect,,,,,,t1.png,t3.png,2,0.056466,19,female,2020-11-19_14h19.07.926,torte-2b,2020.1.3,MacIntel,60,13424,0.214,,,,,,,,,,,,,,,,,,,,,,,,,,,,,,,,,,,,,0,35,35,99,1,,,,,,,,,,,,,,,,,,,,,,,,
,,,,,,,,,,,,l,Correct!,,,,,,t5.png,t3.png,2,0.056466,19,female,2020-11-19_14h19.07.926,torte-2b,2020.1.3,MacIntel,60,13424,0.272,,,,,,,,,,,,,,,,,,,,,,,,,,,,,,,,,,,,,0,36,36,56,1,,,,,,,,,,,,,,,,,,,,,,,,
,,,,,,,,,,,,a,Correct!,,,,,,t2.png,t4.png,2,0.059078,19,female,2020-11-19_14h19.07.926,torte-2b,2020.1.3,MacIntel,60,13424,0.182,,,,,,,,,,,,,,,,,,,,,,,,,,,,,,,,,,,,,0,37,37,11,1,,,,,,,,,,,,,,,,,,,,,,,,
,,,,,,,,,,,,a,Incorrect,,,,,,t5.png,t1.png,4,9.55E-11,19,female,2020-11-19_14h19.07.926,torte-2b,2020.1.3,MacIntel,60,13424,0.356,,,,,,,,,,,,,,,,,,,,,,,,,,,,,,,,,,,,,0,38,38,43,1,,,,,,,,,,,,,,,,,,,,,,,,
,,,,,,,,,,,,a,Incorrect,,,,,,t5.png,t3.png,2,0.056466,19,female,2020-11-19_14h19.07.926,torte-2b,2020.1.3,MacIntel,60,13424,0.198,,,,,,,,,,,,,,,,,,,,,,,,,,,,,,,,,,,,,0,39,39,108,1,,,,,,,,,,,,,,,,,,,,,,,,
,,,,,,,,,,,,l,Incorrect,,,,,,t5.png,t5.png,0,0.97829,19,female,2020-11-19_14h19.07.926,torte-2b,2020.1.3,MacIntel,60,13424,0.308,,,,,,,,,,,,,,,,,,,,,,,,,,,,,,,,,,,,,0,40,40,73,1,,,,,,,,,,,,,,,,,,,,,,,,
,,,,,,,,,,,,a,Incorrect,,,,,,t5.png,t2.png,3,0.0000131,19,female,2020-11-19_14h19.07.926,torte-2b,2020.1.3,MacIntel,60,13424,0.237,,,,,,,,,,,,,,,,,,,,,,,,,,,,,,,,,,,,,0,41,41,116,1,,,,,,,,,,,,,,,,,,,,,,,,
,,,,,,,,,,,,l,Correct!,,,,,,t1.png,t5.png,4,9.55E-11,19,female,2020-11-19_14h19.07.926,torte-2b,2020.1.3,MacIntel,60,13424,0.308,,,,,,,,,,,,,,,,,,,,,,,,,,,,,,,,,,,,,0,42,42,12,1,,,,,,,,,,,,,,,,,,,,,,,,
,,,,,,,,,,,,a,Correct!,,,,,,t3.png,t2.png,1,0.909,19,female,2020-11-19_14h19.07.926,torte-2b,2020.1.3,MacIntel,60,13424,0.731,,,,,,,,,,,,,,,,,,,,,,,,,,,,,,,,,,,,,0,43,43,23,1,,,,,,,,,,,,,,,,,,,,,,,,
,,,,,,,,,,,,a,Correct!,,,,,,t4.png,t3.png,1,0.90855,19,female,2020-11-19_14h19.07.926,torte-2b,2020.1.3,MacIntel,60,13424,0.334,,,,,,,,,,,,,,,,,,,,,,,,,,,,,,,,,,,,,0,44,44,45,1,,,,,,,,,,,,,,,,,,,,,,,,
,,,,,,,,,,,,a,Incorrect,,,,,,t1.png,t5.png,4,9.55E-11,19,female,2020-11-19_14h19.07.926,torte-2b,2020.1.3,MacIntel,60,13424,0.283,,,,,,,,,,,,,,,,,,,,,,,,,,,,,,,,,,,,,0,45,45,55,1,,,,,,,,,,,,,,,,,,,,,,,,
,,,,,,,,,,,,l,Incorrect,,,,,,t3.png,t4.png,1,0.90855,19,female,2020-11-19_14h19.07.926,torte-2b,2020.1.3,MacIntel,60,13424,0.273,,,,,,,,,,,,,,,,,,,,,,,,,,,,,,,,,,,,,0,46,46,84,1,,,,,,,,,,,,,,,,,,,,,,,,
,,,,,,,,,,,,l,Incorrect,,,,,,t4.png,t5.png,1,0.90025,19,female,2020-11-19_14h19.07.926,torte-2b,2020.1.3,MacIntel,60,13424,0.265,,,,,,,,,,,,,,,,,,,,,,,,,,,,,,,,,,,,,0,47,47,113,1,,,,,,,,,,,,,,,,,,,,,,,,
,,,,,,,,,,,,l,Correct!,,,,,,t5.png,t2.png,3,0.0000131,19,female,2020-11-19_14h19.07.926,torte-2b,2020.1.3,MacIntel,60,13424,0.302,,,,,,,,,,,,,,,,,,,,,,,,,,,,,,,,,,,,,0,48,48,119,1,,,,,,,,,,,,,,,,,,,,,,,,
,,,,,,,,,,,,a,Incorrect,,,,,,t5.png,t2.png,3,0.0000131,19,female,2020-11-19_14h19.07.926,torte-2b,2020.1.3,MacIntel,60,13424,0.217,,,,,,,,,,,,,,,,,,,,,,,,,,,,,,,,,,,,,0,49,49,98,1,,,,,,,,,,,,,,,,,,,,,,,,
,,,,,,,,,,,,l,Correct!,,,,,,t4.png,t2.png,2,0.059078,19,female,2020-11-19_14h19.07.926,torte-2b,2020.1.3,MacIntel,60,13424,0.333,,,,,,,,,,,,,,,,,,,,,,,,,,,,,,,,,,,,,0,50,50,88,1,,,,,,,,,,,,,,,,,,,,,,,,
,,,,,,,,,,,,a,Incorrect,,,,,,t3.png,t5.png,2,0.0565,19,female,2020-11-19_14h19.07.926,torte-2b,2020.1.3,MacIntel,60,13424,0.298,,,,,,,,,,,,,,,,,,,,,,,,,,,,,,,,,,,,,0,51,51,30,1,,,,,,,,,,,,,,,,,,,,,,,,
,,,,,,,,,,,,a,Incorrect,,,,,,t3.png,t5.png,2,0.056466,19,female,2020-11-19_14h19.07.926,torte-2b,2020.1.3,MacIntel,60,13424,0.271,,,,,,,,,,,,,,,,,,,,,,,,,,,,,,,,,,,,,0,52,52,14,1,,,,,,,,,,,,,,,,,,,,,,,,
,,,,,,,,,,,,a,Correct!,,,,,,t5.png,t4.png,1,0.90025,19,female,2020-11-19_14h19.07.926,torte-2b,2020.1.3,MacIntel,60,13424,0.35,,,,,,,,,,,,,,,,,,,,,,,,,,,,,,,,,,,,,0,53,53,26,1,,,,,,,,,,,,,,,,,,,,,,,,
,,,,,,,,,,,,a,Correct!,,,,,,t4.png,t5.png,1,0.90025,19,female,2020-11-19_14h19.07.926,torte-2b,2020.1.3,MacIntel,60,13424,0.392,,,,,,,,,,,,,,,,,,,,,,,,,,,,,,,,,,,,,0,54,54,47,1,,,,,,,,,,,,,,,,,,,,,,,,
,,,,,,,,,,,,a,Incorrect,,,,,,t5.png,t1.png,4,9.55E-11,19,female,2020-11-19_14h19.07.926,torte-2b,2020.1.3,MacIntel,60,13424,0.432,,,,,,,,,,,,,,,,,,,,,,,,,,,,,,,,,,,,,0,55,55,100,1,,,,,,,,,,,,,,,,,,,,,,,,
,,,,,,,,,,,,l,Incorrect,,,,,,t5.png,t4.png,1,0.90025,19,female,2020-11-19_14h19.07.926,torte-2b,2020.1.3,MacIntel,60,13424,0.615,,,,,,,,,,,,,,,,,,,,,,,,,,,,,,,,,,,,,0,56,56,27,1,,,,,,,,,,,,,,,,,,,,,,,,
,,,,,,,,,,,,l,Incorrect,,,,,,t2.png,t1.png,1,0.90025,19,female,2020-11-19_14h19.07.926,torte-2b,2020.1.3,MacIntel,60,13424,0.449,,,,,,,,,,,,,,,,,,,,,,,,,,,,,,,,,,,,,0,57,57,5,1,,,,,,,,,,,,,,,,,,,,,,,,
,,,,,,,,,,,,l,Correct!,,,,,,t4.png,t2.png,2,0.059078,19,female,2020-11-19_14h19.07.926,torte-2b,2020.1.3,MacIntel,60,13424,0.252,,,,,,,,,,,,,,,,,,,,,,,,,,,,,,,,,,,,,0,58,58,86,1,,,,,,,,,,,,,,,,,,,,,,,,
,,,,,,,,,,,,l,Incorrect,,,,,,t4.png,t3.png,1,0.909,19,female,2020-11-19_14h19.07.926,torte-2b,2020.1.3,MacIntel,60,13424,0.466,,,,,,,,,,,,,,,,,,,,,,,,,,,,,,,,,,,,,0,59,59,20,1,,,,,,,,,,,,,,,,,,,,,,,,
,,,,,,,,,,,,a,Incorrect,,,,,,t2.png,t4.png,2,0.059078,19,female,2020-11-19_14h19.07.926,torte-2b,2020.1.3,MacIntel,60,13424,0.266,,,,,,,,,,,,,,,,,,,,,,,,,,,,,,,,,,,,,0,60,60,77,1,,,,,,,,,,,,,,,,,,,,,,,,
,,,,,,,,,,,,a,Incorrect,,,,,,t1.png,t5.png,4,9.55E-11,19,female,2020-11-19_14h19.07.926,torte-2b,2020.1.3,MacIntel,60,13424,0.298,,,,,,,,,,,,,,,,,,,,,,,,,,,,,,,,,,,,,0,61,61,41,1,,,,,,,,,,,,,,,,,,,,,,,,
,,,,,,,,,,,,a,Correct!,,,,,,t5.png,t4.png,1,0.9,19,female,2020-11-19_14h19.07.926,torte-2b,2020.1.3,MacIntel,60,13424,0.215,,,,,,,,,,,,,,,,,,,,,,,,,,,,,,,,,,,,,0,62,62,76,1,,,,,,,,,,,,,,,,,,,,,,,,
,,,,,,,,,,,,a,Incorrect,,,,,,t2.png,t5.png,3,0.0000131,19,female,2020-11-19_14h19.07.926,torte-2b,2020.1.3,MacIntel,60,13424,0.273,,,,,,,,,,,,,,,,,,,,,,,,,,,,,,,,,,,,,0,63,63,104,1,,,,,,,,,,,,,,,,,,,,,,,,
,,,,,,,,,,,,l,Correct!,,,,,,t5.png,t3.png,2,0.056466,19,female,2020-11-19_14h19.07.926,torte-2b,2020.1.3,MacIntel,60,13424,0.331,,,,,,,,,,,,,,,,,,,,,,,,,,,,,,,,,,,,,0,64,64,114,1,,,,,,,,,,,,,,,,,,,,,,,,
,,,,,,,,,,,,l,Incorrect,,,,,,t1.png,t2.png,1,0.90025,19,female,2020-11-19_14h19.07.926,torte-2b,2020.1.3,MacIntel,60,13424,0.282,,,,,,,,,,,,,,,,,,,,,,,,,,,,,,,,,,,,,0,65,65,72,1,,,,,,,,,,,,,,,,,,,,,,,,
,,,,,,,,,,,,a,Correct!,,,,,,t4.png,t4.png,0,0.98115,19,female,2020-11-19_14h19.07.926,torte-2b,2020.1.3,MacIntel,60,13424,0.421,,,,,,,,,,,,,,,,,,,,,,,,,,,,,,,,,,,,,0,66,66,90,1,,,,,,,,,,,,,,,,,,,,,,,,
,,,,,,,,,,,,a,Incorrect,,,,,,t2.png,t4.png,2,0.059078,19,female,2020-11-19_14h19.07.926,torte-2b,2020.1.3,MacIntel,60,13424,0.215,,,,,,,,,,,,,,,,,,,,,,,,,,,,,,,,,,,,,0,67,67,37,1,,,,,,,,,,,,,,,,,,,,,,,,
,,,,,,,,,,,,a,Incorrect,,,,,,t4.png,t1.png,3,0.0000131,19,female,2020-11-19_14h19.07.926,torte-2b,2020.1.3,MacIntel,60,13424,0.215,,,,,,,,,,,,,,,,,,,,,,,,,,,,,,,,,,,,,0,68,68,93,1,,,,,,,,,,,,,,,,,,,,,,,,
,,,,,,,,,,,,l,Correct!,,,,,,t4.png,t1.png,3,0.0000131,19,female,2020-11-19_14h19.07.926,torte-2b,2020.1.3,MacIntel,60,13424,0.224,,,,,,,,,,,,,,,,,,,,,,,,,,,,,,,,,,,,,0,69,69,61,1,,,,,,,,,,,,,,,,,,,,,,,,
,,,,,,,,,,,,a,Correct!,,,,,,t4.png,t5.png,1,0.9,19,female,2020-11-19_14h19.07.926,torte-2b,2020.1.3,MacIntel,60,13424,0.122,,,,,,,,,,,,,,,,,,,,,,,,,,,,,,,,,,,,,0,70,70,115,1,,,,,,,,,,,,,,,,,,,,,,,,
,,,,,,,,,,,,l,Correct!,,,,,,t4.png,t1.png,3,0.0000131,19,female,2020-11-19_14h19.07.926,torte-2b,2020.1.3,MacIntel,60,13424,0.235,,,,,,,,,,,,,,,,,,,,,,,,,,,,,,,,,,,,,0,71,71,42,1,,,,,,,,,,,,,,,,,,,,,,,,
,,,,,,,,,,,,a,Incorrect,,,,,,t1.png,t5.png,4,9.55E-11,19,female,2020-11-19_14h19.07.926,torte-2b,2020.1.3,MacIntel,60,13424,0.35,,,,,,,,,,,,,,,,,,,,,,,,,,,,,,,,,,,,,0,72,72,16,1,,,,,,,,,,,,,,,,,,,,,,,,
,,,,,,,,,,,,l,Correct!,,,,,,t2.png,t4.png,2,0.059078,19,female,2020-11-19_14h19.07.926,torte-2b,2020.1.3,MacIntel,60,13424,0.371,,,,,,,,,,,,,,,,,,,,,,,,,,,,,,,,,,,,,0,73,73,24,1,,,,,,,,,,,,,,,,,,,,,,,,
,,,,,,,,,,,,a,Incorrect,,,,,,t2.png,t1.png,1,0.90025,19,female,2020-11-19_14h19.07.926,torte-2b,2020.1.3,MacIntel,60,13424,0.382,,,,,,,,,,,,,,,,,,,,,,,,,,,,,,,,,,,,,0,74,74,4,1,,,,,,,,,,,,,,,,,,,,,,,,
,,,,,,,,,,,,l,Incorrect,,,,,,t1.png,t1.png,0,0.978,19,female,2020-11-19_14h19.07.926,torte-2b,2020.1.3,MacIntel,60,13424,0.37,,,,,,,,,,,,,,,,,,,,,,,,,,,,,,,,,,,,,0,75,75,28,1,,,,,,,,,,,,,,,,,,,,,,,,
,,,,,,,,,,,,a,Correct!,,,,,,t2.png,t1.png,1,0.90025,19,female,2020-11-19_14h19.07.926,torte-2b,2020.1.3,MacIntel,60,13424,0.272,,,,,,,,,,,,,,,,,,,,,,,,,,,,,,,,,,,,,0,76,76,19,1,,,,,,,,,,,,,,,,,,,,,,,,
,,,,,,,,,,,,a,Incorrect,,,,,,t1.png,t4.png,3,0.0000131,19,female,2020-11-19_14h19.07.926,torte-2b,2020.1.3,MacIntel,60,13424,0.433,,,,,,,,,,,,,,,,,,,,,,,,,,,,,,,,,,,,,0,77,77,107,1,,,,,,,,,,,,,,,,,,,,,,,,
,,,,,,,,,,,,l,Correct!,,,,,,t2.png,t3.png,1,0.90855,19,female,2020-11-19_14h19.07.926,torte-2b,2020.1.3,MacIntel,60,13424,0.506,,,,,,,,,,,,,,,,,,,,,,,,,,,,,,,,,,,,,0,78,78,65,1,,,,,,,,,,,,,,,,,,,,,,,,
,,,,,,,,,,,,a,Correct!,,,,,,t4.png,t5.png,1,0.90025,19,female,2020-11-19_14h19.07.926,torte-2b,2020.1.3,MacIntel,60,13424,0.449,,,,,,,,,,,,,,,,,,,,,,,,,,,,,,,,,,,,,0,79,79,58,1,,,,,,,,,,,,,,,,,,,,,,,,
,,,,,,,,,,,,a,Correct!,,,,,,t2.png,t2.png,0,0.981,19,female,2020-11-19_14h19.07.926,torte-2b,2020.1.3,MacIntel,60,13424,0.448,,,,,,,,,,,,,,,,,,,,,,,,,,,,,,,,,,,,,0,80,80,101,1,,,,,,,,,,,,,,,,,,,,,,,,
,,,,,,,,,,,,a,Correct!,,,,,,t1.png,t2.png,1,0.90025,19,female,2020-11-19_14h19.07.926,torte-2b,2020.1.3,MacIntel,60,13424,0.58,,,,,,,,,,,,,,,,,,,,,,,,,,,,,,,,,,,,,0,81,81,105,1,,,,,,,,,,,,,,,,,,,,,,,,
,,,,,,,,,,,,a,Correct!,,,,,,t1.png,t1.png,0,0.978,19,female,2020-11-19_14h19.07.926,torte-2b,2020.1.3,MacIntel,60,13424,0.405,,,,,,,,,,,,,,,,,,,,,,,,,,,,,,,,,,,,,0,82,82,54,1,,,,,,,,,,,,,,,,,,,,,,,,
,,,,,,,,,,,,a,Incorrect,,,,,,t1.png,t3.png,2,0.056466,19,female,2020-11-19_14h19.07.926,torte-2b,2020.1.3,MacIntel,60,13424,0.248,,,,,,,,,,,,,,,,,,,,,,,,,,,,,,,,,,,,,0,83,83,69,1,,,,,,,,,,,,,,,,,,,,,,,,
,,,,,,,,,,,,l,Correct!,,,,,,t5.png,t1.png,4,9.55E-11,19,female,2020-11-19_14h19.07.926,torte-2b,2020.1.3,MacIntel,60,13424,0.274,,,,,,,,,,,,,,,,,,,,,,,,,,,,,,,,,,,,,0,84,84,102,1,,,,,,,,,,,,,,,,,,,,,,,,
,,,,,,,,,,,,a,Correct!,,,,,,t5.png,t5.png,0,0.978,19,female,2020-11-19_14h19.07.926,torte-2b,2020.1.3,MacIntel,60,13424,0.248,,,,,,,,,,,,,,,,,,,,,,,,,,,,,,,,,,,,,0,85,85,117,1,,,,,,,,,,,,,,,,,,,,,,,,
,,,,,,,,,,,,a,Correct!,,,,,,t3.png,t2.png,1,0.90855,19,female,2020-11-19_14h19.07.926,torte-2b,2020.1.3,MacIntel,60,13424,0.324,,,,,,,,,,,,,,,,,,,,,,,,,,,,,,,,,,,,,0,86,86,53,1,,,,,,,,,,,,,,,,,,,,,,,,
,,,,,,,,,,,,a,Incorrect,,,,,,t1.png,t4.png,3,0.0000131,19,female,2020-11-19_14h19.07.926,torte-2b,2020.1.3,MacIntel,60,13424,0.286,,,,,,,,,,,,,,,,,,,,,,,,,,,,,,,,,,,,,0,87,87,50,1,,,,,,,,,,,,,,,,,,,,,,,,
,,,,,,,,,,,,a,Correct!,,,,,,t2.png,t3.png,1,0.90855,19,female,2020-11-19_14h19.07.926,torte-2b,2020.1.3,MacIntel,60,13424,0.274,,,,,,,,,,,,,,,,,,,,,,,,,,,,,,,,,,,,,0,88,88,10,1,,,,,,,,,,,,,,,,,,,,,,,,
,,,,,,,,,,,,a,Correct!,,,,,,t5.png,t4.png,1,0.9,19,female,2020-11-19_14h19.07.926,torte-2b,2020.1.3,MacIntel,60,13424,0.018,,,,,,,,,,,,,,,,,,,,,,,,,,,,,,,,,,,,,0,89,89,49,1,,,,,,,,,,,,,,,,,,,,,,,,
,,,,,,,,,,,,l,Correct!,,,,,,t4.png,t1.png,3,0.0000131,19,female,2020-11-19_14h19.07.926,torte-2b,2020.1.3,MacIntel,60,13424,0.515,,,,,,,,,,,,,,,,,,,,,,,,,,,,,,,,,,,,,0,90,90,48,1,,,,,,,,,,,,,,,,,,,,,,,,
,,,,,,,,,,,,a,Correct!,,,,,,t3.png,t4.png,1,0.909,19,female,2020-11-19_14h19.07.926,torte-2b,2020.1.3,MacIntel,60,13424,0.299,,,,,,,,,,,,,,,,,,,,,,,,,,,,,,,,,,,,,0,91,91,82,1,,,,,,,,,,,,,,,,,,,,,,,,
,,,,,,,,,,,,a,Correct!,,,,,,t3.png,t4.png,1,0.90855,19,female,2020-11-19_14h19.07.926,torte-2b,2020.1.3,MacIntel,60,13424,0.374,,,,,,,,,,,,,,,,,,,,,,,,,,,,,,,,,,,,,0,92,92,96,1,,,,,,,,,,,,,,,,,,,,,,,,
,,,,,,,,,,,,a,Incorrect,,,,,,t3.png,t5.png,2,0.056466,19,female,2020-11-19_14h19.07.926,torte-2b,2020.1.3,MacIntel,60,13424,0.315,,,,,,,,,,,,,,,,,,,,,,,,,,,,,,,,,,,,,0,93,93,6,1,,,,,,,,,,,,,,,,,,,,,,,,
,,,,,,,,,,,,l,Correct!,,,,,,t1.png,t4.png,3,0.0000131,19,female,2020-11-19_14h19.07.926,torte-2b,2020.1.3,MacIntel,60,13424,0.557,,,,,,,,,,,,,,,,,,,,,,,,,,,,,,,,,,,,,0,94,94,92,1,,,,,,,,,,,,,,,,,,,,,,,,
,,,,,,,,,,,,l,Correct!,,,,,,t1.png,t3.png,2,0.056466,19,female,2020-11-19_14h19.07.926,torte-2b,2020.1.3,MacIntel,60,13424,0.237,,,,,,,,,,,,,,,,,,,,,,,,,,,,,,,,,,,,,0,95,95,63,1,,,,,,,,,,,,,,,,,,,,,,,,
,,,,,,,,,,,,l,Correct!,,,,,,t2.png,t5.png,3,0.0000131,19,female,2020-11-19_14h19.07.926,torte-2b,2020.1.3,MacIntel,60,13424,0.249,,,,,,,,,,,,,,,,,,,,,,,,,,,,,,,,,,,,,0,96,96,95,1,,,,,,,,,,,,,,,,,,,,,,,,
,,,,,,,,,,,,l,Incorrect,,,,,,t2.png,t2.png,0,0.98115,19,female,2020-11-19_14h19.07.926,torte-2b,2020.1.3,MacIntel,60,13424,0.341,,,,,,,,,,,,,,,,,,,,,,,,,,,,,,,,,,,,,0,97,97,59,1,,,,,,,,,,,,,,,,,,,,,,,,
,,,,,,,,,,,,a,Incorrect,,,,,,t4.png,t2.png,2,0.0591,19,female,2020-11-19_14h19.07.926,torte-2b,2020.1.3,MacIntel,60,13424,0.265,,,,,,,,,,,,,,,,,,,,,,,,,,,,,,,,,,,,,0,98,98,36,1,,,,,,,,,,,,,,,,,,,,,,,,
,,,,,,,,,,,,a,Incorrect,,,,,,t5.png,t3.png,2,0.0565,19,female,2020-11-19_14h19.07.926,torte-2b,2020.1.3,MacIntel,60,13424,0.257,,,,,,,,,,,,,,,,,,,,,,,,,,,,,,,,,,,,,0,99,99,39,1,,,,,,,,,,,,,,,,,,,,,,,,
,,,,,,,,,,,,a,Incorrect,,,,,,t1.png,t3.png,2,0.056466,19,female,2020-11-19_14h19.07.926,torte-2b,2020.1.3,MacIntel,60,13424,0.265,,,,,,,,,,,,,,,,,,,,,,,,,,,,,,,,,,,,,0,100,100,87,1,,,,,,,,,,,,,,,,,,,,,,,,
,,,,,,,,,,,,l,Incorrect,,,,,,t2.png,t1.png,1,0.9,19,female,2020-11-19_14h19.07.926,torte-2b,2020.1.3,MacIntel,60,13424,0.241,,,,,,,,,,,,,,,,,,,,,,,,,,,,,,,,,,,,,0,101,101,118,1,,,,,,,,,,,,,,,,,,,,,,,,
,,,,,,,,,,,,a,Correct!,,,,,,t5.png,t4.png,1,0.90025,19,female,2020-11-19_14h19.07.926,torte-2b,2020.1.3,MacIntel,60,13424,0.231,,,,,,,,,,,,,,,,,,,,,,,,,,,,,,,,,,,,,0,102,102,34,1,,,,,,,,,,,,,,,,,,,,,,,,
,,,,,,,,,,,,l,Correct!,,,,,,t3.png,t1.png,2,0.056466,19,female,2020-11-19_14h19.07.926,torte-2b,2020.1.3,MacIntel,60,13424,0.266,,,,,,,,,,,,,,,,,,,,,,,,,,,,,,,,,,,,,0,103,103,64,1,,,,,,,,,,,,,,,,,,,,,,,,
,,,,,,,,,,,,a,Correct!,,,,,,t5.png,t5.png,0,0.97829,19,female,2020-11-19_14h19.07.926,torte-2b,2020.1.3,MacIntel,60,13424,0.066,,,,,,,,,,,,,,,,,,,,,,,,,,,,,,,,,,,,,0,104,104,25,1,,,,,,,,,,,,,,,,,,,,,,,,
,,,,,,,,,,,,a,Correct!,,,,,,t2.png,t2.png,0,0.98115,19,female,2020-11-19_14h19.07.926,torte-2b,2020.1.3,MacIntel,60,13424,0.266,,,,,,,,,,,,,,,,,,,,,,,,,,,,,,,,,,,,,0,105,105,7,1,,,,,,,,,,,,,,,,,,,,,,,,
,,,,,,,,,,,,a,Incorrect,,,,,,t2.png,t5.png,3,0.0000131,19,female,2020-11-19_14h19.07.926,torte-2b,2020.1.3,MacIntel,60,13424,0.331,,,,,,,,,,,,,,,,,,,,,,,,,,,,,,,,,,,,,0,106,106,66,1,,,,,,,,,,,,,,,,,,,,,,,,
,,,,,,,,,,,,l,Correct!,,,,,,t3.png,t5.png,2,0.056466,19,female,2020-11-19_14h19.07.926,torte-2b,2020.1.3,MacIntel,60,13424,0.256,,,,,,,,,,,,,,,,,,,,,,,,,,,,,,,,,,,,,0,107,107,44,1,,,,,,,,,,,,,,,,,,,,,,,,
,,,,,,,,,,,,l,Incorrect,,,,,,t4.png,t4.png,0,0.98115,19,female,2020-11-19_14h19.07.926,torte-2b,2020.1.3,MacIntel,60,13424,0.201,,,,,,,,,,,,,,,,,,,,,,,,,,,,,,,,,,,,,0,108,108,80,1,,,,,,,,,,,,,,,,,,,,,,,,
,,,,,,,,,,,,a,Incorrect,,,,,,t3.png,t1.png,2,0.056466,19,female,2020-11-19_14h19.07.926,torte-2b,2020.1.3,MacIntel,60,13424,0.333,,,,,,,,,,,,,,,,,,,,,,,,,,,,,,,,,,,,,0,109,109,0,1,,,,,,,,,,,,,,,,,,,,,,,,
,,,,,,,,,,,,l,Incorrect,,,,,,t5.png,t5.png,0,0.97829,19,female,2020-11-19_14h19.07.926,torte-2b,2020.1.3,MacIntel,60,13424,0.265,,,,,,,,,,,,,,,,,,,,,,,,,,,,,,,,,,,,,0,110,110,94,1,,,,,,,,,,,,,,,,,,,,,,,,
,,,,,,,,,,,,a,Correct!,,,,,,t4.png,t4.png,0,0.98115,19,female,2020-11-19_14h19.07.926,torte-2b,2020.1.3,MacIntel,60,13424,0.249,,,,,,,,,,,,,,,,,,,,,,,,,,,,,,,,,,,,,0,111,111,79,1,,,,,,,,,,,,,,,,,,,,,,,,
,,,,,,,,,,,,l,Incorrect,,,,,,t4.png,t4.png,0,0.98115,19,female,2020-11-19_14h19.07.926,torte-2b,2020.1.3,MacIntel,60,13424,0.241,,,,,,,,,,,,,,,,,,,,,,,,,,,,,,,,,,,,,0,112,112,21,1,,,,,,,,,,,,,,,,,,,,,,,,
,,,,,,,,,,,,l,Incorrect,,,,,,t1.png,t1.png,0,0.97829,19,female,2020-11-19_14h19.07.926,torte-2b,2020.1.3,MacIntel,60,13424,0.282,,,,,,,,,,,,,,,,,,,,,,,,,,,,,,,,,,,,,0,113,113,67,1,,,,,,,,,,,,,,,,,,,,,,,,
,,,,,,,,,,,,l,Incorrect,,,,,,t2.png,t2.png,0,0.98115,19,female,2020-11-19_14h19.07.926,torte-2b,2020.1.3,MacIntel,60,13424,0.825,,,,,,,,,,,,,,,,,,,,,,,,,,,,,,,,,,,,,0,114,114,2,1,,,,,,,,,,,,,,,,,,,,,,,,
,,,,,,,,,,,,a,Incorrect,,,,,,t1.png,t5.png,4,9.55E-11,19,female,2020-11-19_14h19.07.926,torte-2b,2020.1.3,MacIntel,60,13424,0.424,,,,,,,,,,,,,,,,,,,,,,,,,,,,,,,,,,,,,0,115,115,85,1,,,,,,,,,,,,,,,,,,,,,,,,
,,,,,,,,,,,,a,Incorrect,,,,,,t2.png,t5.png,3,0.0000131,19,female,2020-11-19_14h19.07.926,torte-2b,2020.1.3,MacIntel,60,13424,0.322,,,,,,,,,,,,,,,,,,,,,,,,,,,,,,,,,,,,,0,116,116,8,1,,,,,,,,,,,,,,,,,,,,,,,,
,,,,,,,,,,,,a,Correct!,,,,,,t2.png,t1.png,1,0.90025,19,female,2020-11-19_14h19.07.926,torte-2b,2020.1.3,MacIntel,60,13424,0.383,,,,,,,,,,,,,,,,,,,,,,,,,,,,,,,,,,,,,0,117,117,62,1,,,,,,,,,,,,,,,,,,,,,,,,
,,,,,,,,,,,,l,Incorrect,,,,,,t2.png,t3.png,1,0.909,19,female,2020-11-19_14h19.07.926,torte-2b,2020.1.3,MacIntel,60,13424,0.424,,,,,,,,,,,,,,,,,,,,,,,,,,,,,,,,,,,,,0,118,118,74,1,,,,,,,,,,,,,,,,,,,,,,,,
,,,,,,,,,,,,l,Incorrect,,,,,,t4.png,t5.png,1,0.90025,19,female,2020-11-19_14h19.07.926,torte-2b,2020.1.3,MacIntel,60,13424,0.299,,,,,,,,,,,,,,,,,,,,,,,,,,,,,,,,,,,,,0,119,119,103,1,,,,,,,,,,,,,,,,,,,,,,,,
,,,,,,,,,,,,,,,,,,,,,,,19,female,2020-11-19_14h19.07.926,torte-2b,2020.1.3,MacIntel,60,13424,,space,1.538,,,,,,,,,,,,,,,,,,,,,,,,,,,,,,,,,,,,,,,,85,65,1,0,0,s3,106,96,1,0,0,t1,166,-104,1,0,0,proceed,space,3.68,space,0.7,space,0.731
