key_resp_8.keys,key_resp_8.rt,key_resp_9.keys,key_resp_9.rt,key_resp_10.keys,key_resp_10.rt,key_resp_11.keys,key_resp_11.rt,key_resp_2.keys,key_resp_2.rt,key_resp_3.keys,key_resp_3.rt,key_resp.keys,Feedback,train.thisRepN,train.thisTrialN,train.thisN,train.thisIndex,train.ran,torta_sx,torta_dx,difference,probability,age,gender,date,expName,psychopyVersion,OS,frameRate,participant,key_resp.rt,key_resp_15.keys,key_resp_15.rt,key_resp_6.keys,key_resp_6.rt,test1.thisRepN,test1.thisTrialN,test1.thisN,test1.thisIndex,test1.ran,key_resp_4.keys,key_resp_4.rt,key_resp_5.keys,back1.thisRepN,back1.thisTrialN,back1.thisN,back1.thisIndex,back1.ran,letter,key_resp_5.rt,back2.thisRepN,back2.thisTrialN,back2.thisN,back2.thisIndex,back2.ran,back3.thisRepN,back3.thisTrialN,back3.thisN,back3.thisIndex,back3.ran,back4.thisRepN,back4.thisTrialN,back4.thisN,back4.thisIndex,back4.ran,key_resp_7.keys,key_resp_7.rt,test2.thisRepN,test2.thisTrialN,test2.thisN,test2.thisIndex,test2.ran,mouse.x,mouse.y,mouse.leftButton,mouse.midButton,mouse.rightButton,mouse.clicked_name,mouse_2.x,mouse_2.y,mouse_2.leftButton,mouse_2.midButton,mouse_2.rightButton,mouse_2.clicked_name,mouse_3.x,mouse_3.y,mouse_3.leftButton,mouse_3.midButton,mouse_3.rightButton,mouse_3.clicked_name,key_resp_12.keys,key_resp_12.rt,key_resp_13.keys,key_resp_13.rt,key_resp_14.keys,key_resp_14.rt
space,549.925785,space,2.30158,space,20.50383,space,14.772295,space,27.0836,space,61.561865,,Too slow :(,0,0,0,87,1,t5.png,t1.png,4,9.55E-11,19,Female,2020-09-23_15h09.59.392,torte-2b,2020.1.3,Win32,60,13438,,,,,,,,,,,,,,,,,,,,,,,,,,,,,,,,,,,,,,,,,,,,,,,,,,,,,,,,,,,,,,,,,,
,,,,,,,,,,,,a,Correct!,0,1,1,21,1,t5.png,t4.png,1,0.90025,19,Female,2020-09-23_15h09.59.392,torte-2b,2020.1.3,Win32,60,13438,2.391235,,,,,,,,,,,,,,,,,,,,,,,,,,,,,,,,,,,,,,,,,,,,,,,,,,,,,,,,,,,,,,,,,
,,,,,,,,,,,,,Too slow :(,0,2,2,75,1,t1.png,t1.png,0,0.97829,19,Female,2020-09-23_15h09.59.392,torte-2b,2020.1.3,Win32,60,13438,,,,,,,,,,,,,,,,,,,,,,,,,,,,,,,,,,,,,,,,,,,,,,,,,,,,,,,,,,,,,,,,,,
,,,,,,,,,,,,,Too slow :(,0,3,3,46,1,t4.png,t2.png,2,0.059078,19,Female,2020-09-23_15h09.59.392,torte-2b,2020.1.3,Win32,60,13438,,,,,,,,,,,,,,,,,,,,,,,,,,,,,,,,,,,,,,,,,,,,,,,,,,,,,,,,,,,,,,,,,,
,,,,,,,,,,,,a,Correct!,0,4,4,118,1,t5.png,t5.png,0,0.978,19,Female,2020-09-23_15h09.59.392,torte-2b,2020.1.3,Win32,60,13438,1.61913,,,,,,,,,,,,,,,,,,,,,,,,,,,,,,,,,,,,,,,,,,,,,,,,,,,,,,,,,,,,,,,,,
,,,,,,,,,,,,l,Correct!,0,5,5,115,1,t2.png,t4.png,2,0.059078,19,Female,2020-09-23_15h09.59.392,torte-2b,2020.1.3,Win32,60,13438,1.44646,,,,,,,,,,,,,,,,,,,,,,,,,,,,,,,,,,,,,,,,,,,,,,,,,,,,,,,,,,,,,,,,,
,,,,,,,,,,,,a,Incorrect,0,6,6,68,1,t1.png,t4.png,3,0.0000131,19,Female,2020-09-23_15h09.59.392,torte-2b,2020.1.3,Win32,60,13438,1.53644,,,,,,,,,,,,,,,,,,,,,,,,,,,,,,,,,,,,,,,,,,,,,,,,,,,,,,,,,,,,,,,,,
,,,,,,,,,,,,a,Correct!,0,7,7,106,1,t2.png,t3.png,1,0.90855,19,Female,2020-09-23_15h09.59.392,torte-2b,2020.1.3,Win32,60,13438,1.60649,,,,,,,,,,,,,,,,,,,,,,,,,,,,,,,,,,,,,,,,,,,,,,,,,,,,,,,,,,,,,,,,,
,,,,,,,,,,,,a,Incorrect,0,8,8,90,1,t1.png,t5.png,4,9.55E-11,19,Female,2020-09-23_15h09.59.392,torte-2b,2020.1.3,Win32,60,13438,1.73585,,,,,,,,,,,,,,,,,,,,,,,,,,,,,,,,,,,,,,,,,,,,,,,,,,,,,,,,,,,,,,,,,
,,,,,,,,,,,,a,Correct!,0,9,9,97,1,t5.png,t5.png,0,0.97829,19,Female,2020-09-23_15h09.59.392,torte-2b,2020.1.3,Win32,60,13438,1.167865,,,,,,,,,,,,,,,,,,,,,,,,,,,,,,,,,,,,,,,,,,,,,,,,,,,,,,,,,,,,,,,,,
,,,,,,,,,,,,l,Correct!,0,10,10,0,1,t5.png,t1.png,4,9.55E-11,19,Female,2020-09-23_15h09.59.392,torte-2b,2020.1.3,Win32,60,13438,0.90144,,,,,,,,,,,,,,,,,,,,,,,,,,,,,,,,,,,,,,,,,,,,,,,,,,,,,,,,,,,,,,,,,
,,,,,,,,,,,,a,Correct!,0,11,11,85,1,t3.png,t2.png,1,0.90855,19,Female,2020-09-23_15h09.59.392,torte-2b,2020.1.3,Win32,60,13438,1.573485,,,,,,,,,,,,,,,,,,,,,,,,,,,,,,,,,,,,,,,,,,,,,,,,,,,,,,,,,,,,,,,,,
,,,,,,,,,,,,l,Correct!,0,12,12,19,1,t4.png,t2.png,2,0.059078,19,Female,2020-09-23_15h09.59.392,torte-2b,2020.1.3,Win32,60,13438,1.04004,,,,,,,,,,,,,,,,,,,,,,,,,,,,,,,,,,,,,,,,,,,,,,,,,,,,,,,,,,,,,,,,,
,,,,,,,,,,,,a,Correct!,0,13,13,49,1,t4.png,t5.png,1,0.9,19,Female,2020-09-23_15h09.59.392,torte-2b,2020.1.3,Win32,60,13438,1.300795,,,,,,,,,,,,,,,,,,,,,,,,,,,,,,,,,,,,,,,,,,,,,,,,,,,,,,,,,,,,,,,,,
,,,,,,,,,,,,a,Correct!,0,14,14,29,1,t5.png,t5.png,0,0.97829,19,Female,2020-09-23_15h09.59.392,torte-2b,2020.1.3,Win32,60,13438,1.384635,,,,,,,,,,,,,,,,,,,,,,,,,,,,,,,,,,,,,,,,,,,,,,,,,,,,,,,,,,,,,,,,,
,,,,,,,,,,,,l,Correct!,0,15,15,98,1,t2.png,t4.png,2,0.0591,19,Female,2020-09-23_15h09.59.392,torte-2b,2020.1.3,Win32,60,13438,1.396425,,,,,,,,,,,,,,,,,,,,,,,,,,,,,,,,,,,,,,,,,,,,,,,,,,,,,,,,,,,,,,,,,
,,,,,,,,,,,,a,Correct!,0,16,16,112,1,t1.png,t1.png,0,0.97829,19,Female,2020-09-23_15h09.59.392,torte-2b,2020.1.3,Win32,60,13438,1.263015,,,,,,,,,,,,,,,,,,,,,,,,,,,,,,,,,,,,,,,,,,,,,,,,,,,,,,,,,,,,,,,,,
,,,,,,,,,,,,l,Correct!,0,17,17,11,1,t1.png,t4.png,3,0.0000131,19,Female,2020-09-23_15h09.59.392,torte-2b,2020.1.3,Win32,60,13438,1.120335,,,,,,,,,,,,,,,,,,,,,,,,,,,,,,,,,,,,,,,,,,,,,,,,,,,,,,,,,,,,,,,,,
,,,,,,,,,,,,a,Incorrect,0,18,18,67,1,t1.png,t5.png,4,9.55E-11,19,Female,2020-09-23_15h09.59.392,torte-2b,2020.1.3,Win32,60,13438,1.650815,,,,,,,,,,,,,,,,,,,,,,,,,,,,,,,,,,,,,,,,,,,,,,,,,,,,,,,,,,,,,,,,,
,,,,,,,,,,,,a,Correct!,0,19,19,116,1,t5.png,t4.png,1,0.90025,19,Female,2020-09-23_15h09.59.392,torte-2b,2020.1.3,Win32,60,13438,0.898,,,,,,,,,,,,,,,,,,,,,,,,,,,,,,,,,,,,,,,,,,,,,,,,,,,,,,,,,,,,,,,,,
,,,,,,,,,,,,l,Correct!,0,20,20,111,1,t5.png,t1.png,4,9.55E-11,19,Female,2020-09-23_15h09.59.392,torte-2b,2020.1.3,Win32,60,13438,0.879605,,,,,,,,,,,,,,,,,,,,,,,,,,,,,,,,,,,,,,,,,,,,,,,,,,,,,,,,,,,,,,,,,
,,,,,,,,,,,,a,Correct!,0,21,21,74,1,t5.png,t4.png,1,0.9,19,Female,2020-09-23_15h09.59.392,torte-2b,2020.1.3,Win32,60,13438,0.947535,,,,,,,,,,,,,,,,,,,,,,,,,,,,,,,,,,,,,,,,,,,,,,,,,,,,,,,,,,,,,,,,,
,,,,,,,,,,,,a,Correct!,0,22,22,48,1,t5.png,t5.png,0,0.97829,19,Female,2020-09-23_15h09.59.392,torte-2b,2020.1.3,Win32,60,13438,1.0372,,,,,,,,,,,,,,,,,,,,,,,,,,,,,,,,,,,,,,,,,,,,,,,,,,,,,,,,,,,,,,,,,
,,,,,,,,,,,,a,Incorrect,0,23,23,61,1,t1.png,t4.png,3,0.0000131,19,Female,2020-09-23_15h09.59.392,torte-2b,2020.1.3,Win32,60,13438,0.90247,,,,,,,,,,,,,,,,,,,,,,,,,,,,,,,,,,,,,,,,,,,,,,,,,,,,,,,,,,,,,,,,,
,,,,,,,,,,,,a,Incorrect,0,24,24,20,1,t2.png,t3.png,1,0.90855,19,Female,2020-09-23_15h09.59.392,torte-2b,2020.1.3,Win32,60,13438,1.40246,,,,,,,,,,,,,,,,,,,,,,,,,,,,,,,,,,,,,,,,,,,,,,,,,,,,,,,,,,,,,,,,,
,,,,,,,,,,,,l,Correct!,0,25,25,57,1,t2.png,t4.png,2,0.059078,19,Female,2020-09-23_15h09.59.392,torte-2b,2020.1.3,Win32,60,13438,2.398185,,,,,,,,,,,,,,,,,,,,,,,,,,,,,,,,,,,,,,,,,,,,,,,,,,,,,,,,,,,,,,,,,
,,,,,,,,,,,,,Too slow :(,0,26,26,63,1,t2.png,t3.png,1,0.909,19,Female,2020-09-23_15h09.59.392,torte-2b,2020.1.3,Win32,60,13438,,,,,,,,,,,,,,,,,,,,,,,,,,,,,,,,,,,,,,,,,,,,,,,,,,,,,,,,,,,,,,,,,,
,,,,,,,,,,,,a,Correct!,0,27,27,70,1,t5.png,t5.png,0,0.978,19,Female,2020-09-23_15h09.59.392,torte-2b,2020.1.3,Win32,60,13438,1.30126,,,,,,,,,,,,,,,,,,,,,,,,,,,,,,,,,,,,,,,,,,,,,,,,,,,,,,,,,,,,,,,,,
,,,,,,,,,,,,a,Incorrect,0,28,28,80,1,t1.png,t4.png,3,0.0000131,19,Female,2020-09-23_15h09.59.392,torte-2b,2020.1.3,Win32,60,13438,2.28344,,,,,,,,,,,,,,,,,,,,,,,,,,,,,,,,,,,,,,,,,,,,,,,,,,,,,,,,,,,,,,,,,
,,,,,,,,,,,,l,Correct!,0,29,29,94,1,t5.png,t1.png,4,9.55E-11,19,Female,2020-09-23_15h09.59.392,torte-2b,2020.1.3,Win32,60,13438,1.589475,,,,,,,,,,,,,,,,,,,,,,,,,,,,,,,,,,,,,,,,,,,,,,,,,,,,,,,,,,,,,,,,,
,,,,,,,,,,,,l,Correct!,0,30,30,31,1,t1.png,t5.png,4,9.55E-11,19,Female,2020-09-23_15h09.59.392,torte-2b,2020.1.3,Win32,60,13438,1.727465,,,,,,,,,,,,,,,,,,,,,,,,,,,,,,,,,,,,,,,,,,,,,,,,,,,,,,,,,,,,,,,,,
,,,,,,,,,,,,a,Incorrect,0,31,31,39,1,t3.png,t2.png,1,0.90855,19,Female,2020-09-23_15h09.59.392,torte-2b,2020.1.3,Win32,60,13438,1.46852,,,,,,,,,,,,,,,,,,,,,,,,,,,,,,,,,,,,,,,,,,,,,,,,,,,,,,,,,,,,,,,,,
,,,,,,,,,,,,l,Correct!,0,32,32,43,1,t4.png,t2.png,2,0.059078,19,Female,2020-09-23_15h09.59.392,torte-2b,2020.1.3,Win32,60,13438,1.159955,,,,,,,,,,,,,,,,,,,,,,,,,,,,,,,,,,,,,,,,,,,,,,,,,,,,,,,,,,,,,,,,,
,,,,,,,,,,,,a,Correct!,0,33,33,79,1,t3.png,t2.png,1,0.909,19,Female,2020-09-23_15h09.59.392,torte-2b,2020.1.3,Win32,60,13438,1.201685,,,,,,,,,,,,,,,,,,,,,,,,,,,,,,,,,,,,,,,,,,,,,,,,,,,,,,,,,,,,,,,,,
,,,,,,,,,,,,a,Correct!,0,34,34,104,1,t2.png,t3.png,1,0.90855,19,Female,2020-09-23_15h09.59.392,torte-2b,2020.1.3,Win32,60,13438,1.39758,,,,,,,,,,,,,,,,,,,,,,,,,,,,,,,,,,,,,,,,,,,,,,,,,,,,,,,,,,,,,,,,,
,,,,,,,,,,,,a,Correct!,0,35,35,2,1,t3.png,t2.png,1,0.90855,19,Female,2020-09-23_15h09.59.392,torte-2b,2020.1.3,Win32,60,13438,1.21942,,,,,,,,,,,,,,,,,,,,,,,,,,,,,,,,,,,,,,,,,,,,,,,,,,,,,,,,,,,,,,,,,
,,,,,,,,,,,,l,Correct!,0,36,36,52,1,t2.png,t4.png,2,0.059078,19,Female,2020-09-23_15h09.59.392,torte-2b,2020.1.3,Win32,60,13438,1.34751,,,,,,,,,,,,,,,,,,,,,,,,,,,,,,,,,,,,,,,,,,,,,,,,,,,,,,,,,,,,,,,,,
,,,,,,,,,,,,a,Correct!,0,37,37,28,1,t2.png,t3.png,1,0.909,19,Female,2020-09-23_15h09.59.392,torte-2b,2020.1.3,Win32,60,13438,0.92128,,,,,,,,,,,,,,,,,,,,,,,,,,,,,,,,,,,,,,,,,,,,,,,,,,,,,,,,,,,,,,,,,
,,,,,,,,,,,,a,Incorrect,0,38,38,6,1,t1.png,t4.png,3,0.0000131,19,Female,2020-09-23_15h09.59.392,torte-2b,2020.1.3,Win32,60,13438,1.463865,,,,,,,,,,,,,,,,,,,,,,,,,,,,,,,,,,,,,,,,,,,,,,,,,,,,,,,,,,,,,,,,,
,,,,,,,,,,,,a,Correct!,0,39,39,8,1,t3.png,t2.png,1,0.90855,19,Female,2020-09-23_15h09.59.392,torte-2b,2020.1.3,Win32,60,13438,1.07982,,,,,,,,,,,,,,,,,,,,,,,,,,,,,,,,,,,,,,,,,,,,,,,,,,,,,,,,,,,,,,,,,
,,,,,,,,,,,,a,Incorrect,0,40,40,44,1,t2.png,t3.png,1,0.909,19,Female,2020-09-23_15h09.59.392,torte-2b,2020.1.3,Win32,60,13438,1.25278,,,,,,,,,,,,,,,,,,,,,,,,,,,,,,,,,,,,,,,,,,,,,,,,,,,,,,,,,,,,,,,,,
,,,,,,,,,,,,a,Incorrect,0,41,41,51,1,t3.png,t1.png,2,0.056466,19,Female,2020-09-23_15h09.59.392,torte-2b,2020.1.3,Win32,60,13438,1.330085,,,,,,,,,,,,,,,,,,,,,,,,,,,,,,,,,,,,,,,,,,,,,,,,,,,,,,,,,,,,,,,,,
,,,,,,,,,,,,l,Correct!,0,42,42,93,1,t2.png,t4.png,2,0.059078,19,Female,2020-09-23_15h09.59.392,torte-2b,2020.1.3,Win32,60,13438,1.01382,,,,,,,,,,,,,,,,,,,,,,,,,,,,,,,,,,,,,,,,,,,,,,,,,,,,,,,,,,,,,,,,,
,,,,,,,,,,,,l,Correct!,0,43,43,108,1,t5.png,t1.png,4,9.55E-11,19,Female,2020-09-23_15h09.59.392,torte-2b,2020.1.3,Win32,60,13438,0.784295,,,,,,,,,,,,,,,,,,,,,,,,,,,,,,,,,,,,,,,,,,,,,,,,,,,,,,,,,,,,,,,,,
,,,,,,,,,,,,a,Correct!,0,44,44,105,1,t3.png,t2.png,1,0.90855,19,Female,2020-09-23_15h09.59.392,torte-2b,2020.1.3,Win32,60,13438,1.424065,,,,,,,,,,,,,,,,,,,,,,,,,,,,,,,,,,,,,,,,,,,,,,,,,,,,,,,,,,,,,,,,,
,,,,,,,,,,,,a,Correct!,0,45,45,109,1,t5.png,t5.png,0,0.97829,19,Female,2020-09-23_15h09.59.392,torte-2b,2020.1.3,Win32,60,13438,1.834615,,,,,,,,,,,,,,,,,,,,,,,,,,,,,,,,,,,,,,,,,,,,,,,,,,,,,,,,,,,,,,,,,
,,,,,,,,,,,,a,Correct!,0,46,46,18,1,t4.png,t5.png,1,0.90025,19,Female,2020-09-23_15h09.59.392,torte-2b,2020.1.3,Win32,60,13438,1.911885,,,,,,,,,,,,,,,,,,,,,,,,,,,,,,,,,,,,,,,,,,,,,,,,,,,,,,,,,,,,,,,,,
,,,,,,,,,,,,a,Incorrect,0,47,47,88,1,t3.png,t1.png,2,0.056466,19,Female,2020-09-23_15h09.59.392,torte-2b,2020.1.3,Win32,60,13438,1.146175,,,,,,,,,,,,,,,,,,,,,,,,,,,,,,,,,,,,,,,,,,,,,,,,,,,,,,,,,,,,,,,,,
,,,,,,,,,,,,l,Correct!,0,48,48,14,1,t2.png,t4.png,2,0.059078,19,Female,2020-09-23_15h09.59.392,torte-2b,2020.1.3,Win32,60,13438,1.597215,,,,,,,,,,,,,,,,,,,,,,,,,,,,,,,,,,,,,,,,,,,,,,,,,,,,,,,,,,,,,,,,,
,,,,,,,,,,,,a,Incorrect,0,49,49,41,1,t3.png,t2.png,1,0.90855,19,Female,2020-09-23_15h09.59.392,torte-2b,2020.1.3,Win32,60,13438,1.2369,,,,,,,,,,,,,,,,,,,,,,,,,,,,,,,,,,,,,,,,,,,,,,,,,,,,,,,,,,,,,,,,,
,,,,,,,,,,,,l,Correct!,0,50,50,10,1,t2.png,t3.png,1,0.90855,19,Female,2020-09-23_15h09.59.392,torte-2b,2020.1.3,Win32,60,13438,1.28181,,,,,,,,,,,,,,,,,,,,,,,,,,,,,,,,,,,,,,,,,,,,,,,,,,,,,,,,,,,,,,,,,
,,,,,,,,,,,,a,Correct!,0,51,51,95,1,t1.png,t1.png,0,0.978,19,Female,2020-09-23_15h09.59.392,torte-2b,2020.1.3,Win32,60,13438,0.83077,,,,,,,,,,,,,,,,,,,,,,,,,,,,,,,,,,,,,,,,,,,,,,,,,,,,,,,,,,,,,,,,,
,,,,,,,,,,,,a,Incorrect,0,52,52,53,1,t3.png,t1.png,2,0.056466,19,Female,2020-09-23_15h09.59.392,torte-2b,2020.1.3,Win32,60,13438,1.903715,,,,,,,,,,,,,,,,,,,,,,,,,,,,,,,,,,,,,,,,,,,,,,,,,,,,,,,,,,,,,,,,,
,,,,,,,,,,,,a,Correct!,0,53,53,25,1,t5.png,t5.png,0,0.97829,19,Female,2020-09-23_15h09.59.392,torte-2b,2020.1.3,Win32,60,13438,1.283645,,,,,,,,,,,,,,,,,,,,,,,,,,,,,,,,,,,,,,,,,,,,,,,,,,,,,,,,,,,,,,,,,
,,,,,,,,,,,,a,Incorrect,0,54,54,86,1,t3.png,t1.png,2,0.056466,19,Female,2020-09-23_15h09.59.392,torte-2b,2020.1.3,Win32,60,13438,1.646075,,,,,,,,,,,,,,,,,,,,,,,,,,,,,,,,,,,,,,,,,,,,,,,,,,,,,,,,,,,,,,,,,
,,,,,,,,,,,,a,Incorrect,0,55,55,36,1,t3.png,t1.png,2,0.0565,19,Female,2020-09-23_15h09.59.392,torte-2b,2020.1.3,Win32,60,13438,1.25314,,,,,,,,,,,,,,,,,,,,,,,,,,,,,,,,,,,,,,,,,,,,,,,,,,,,,,,,,,,,,,,,,
,,,,,,,,,,,,a,Correct!,0,56,56,62,1,t5.png,t5.png,0,0.978,19,Female,2020-09-23_15h09.59.392,torte-2b,2020.1.3,Win32,60,13438,1.030265,,,,,,,,,,,,,,,,,,,,,,,,,,,,,,,,,,,,,,,,,,,,,,,,,,,,,,,,,,,,,,,,,
,,,,,,,,,,,,,Too slow :(,0,57,57,9,1,t4.png,t5.png,1,0.9,19,Female,2020-09-23_15h09.59.392,torte-2b,2020.1.3,Win32,60,13438,,,,,,,,,,,,,,,,,,,,,,,,,,,,,,,,,,,,,,,,,,,,,,,,,,,,,,,,,,,,,,,,,,
,,,,,,,,,,,,l,Correct!,0,58,58,33,1,t5.png,t1.png,4,9.55E-11,19,Female,2020-09-23_15h09.59.392,torte-2b,2020.1.3,Win32,60,13438,1.370125,,,,,,,,,,,,,,,,,,,,,,,,,,,,,,,,,,,,,,,,,,,,,,,,,,,,,,,,,,,,,,,,,
,,,,,,,,,,,,l,Correct!,0,59,59,55,1,t2.png,t4.png,2,0.059078,19,Female,2020-09-23_15h09.59.392,torte-2b,2020.1.3,Win32,60,13438,1.24092,,,,,,,,,,,,,,,,,,,,,,,,,,,,,,,,,,,,,,,,,,,,,,,,,,,,,,,,,,,,,,,,,
,,,,,,,,,,,,a,Correct!,0,60,60,92,1,t2.png,t3.png,1,0.909,19,Female,2020-09-23_15h09.59.392,torte-2b,2020.1.3,Win32,60,13438,1.35145,,,,,,,,,,,,,,,,,,,,,,,,,,,,,,,,,,,,,,,,,,,,,,,,,,,,,,,,,,,,,,,,,
,,,,,,,,,,,,a,Incorrect,0,61,61,83,1,t3.png,t1.png,2,0.056466,19,Female,2020-09-23_15h09.59.392,torte-2b,2020.1.3,Win32,60,13438,1.363815,,,,,,,,,,,,,,,,,,,,,,,,,,,,,,,,,,,,,,,,,,,,,,,,,,,,,,,,,,,,,,,,,
,,,,,,,,,,,,a,Correct!,0,62,62,58,1,t5.png,t4.png,1,0.90025,19,Female,2020-09-23_15h09.59.392,torte-2b,2020.1.3,Win32,60,13438,1.08082,,,,,,,,,,,,,,,,,,,,,,,,,,,,,,,,,,,,,,,,,,,,,,,,,,,,,,,,,,,,,,,,,
,,,,,,,,,,,,a,Correct!,0,63,63,15,1,t3.png,t2.png,1,0.90855,19,Female,2020-09-23_15h09.59.392,torte-2b,2020.1.3,Win32,60,13438,1.349135,,,,,,,,,,,,,,,,,,,,,,,,,,,,,,,,,,,,,,,,,,,,,,,,,,,,,,,,,,,,,,,,,
,,,,,,,,,,,,a,Incorrect,0,64,64,91,1,t1.png,t4.png,3,0.0000131,19,Female,2020-09-23_15h09.59.392,torte-2b,2020.1.3,Win32,60,13438,1.20715,,,,,,,,,,,,,,,,,,,,,,,,,,,,,,,,,,,,,,,,,,,,,,,,,,,,,,,,,,,,,,,,,
,,,,,,,,,,,,l,Correct!,0,65,65,12,1,t5.png,t1.png,4,9.55E-11,19,Female,2020-09-23_15h09.59.392,torte-2b,2020.1.3,Win32,60,13438,0.69561,,,,,,,,,,,,,,,,,,,,,,,,,,,,,,,,,,,,,,,,,,,,,,,,,,,,,,,,,,,,,,,,,
,,,,,,,,,,,,a,Correct!,0,66,66,13,1,t5.png,t5.png,0,0.97829,19,Female,2020-09-23_15h09.59.392,torte-2b,2020.1.3,Win32,60,13438,0.880285,,,,,,,,,,,,,,,,,,,,,,,,,,,,,,,,,,,,,,,,,,,,,,,,,,,,,,,,,,,,,,,,,
,,,,,,,,,,,,a,Correct!,0,67,67,101,1,t4.png,t5.png,1,0.90025,19,Female,2020-09-23_15h09.59.392,torte-2b,2020.1.3,Win32,60,13438,0.716215,,,,,,,,,,,,,,,,,,,,,,,,,,,,,,,,,,,,,,,,,,,,,,,,,,,,,,,,,,,,,,,,,
,,,,,,,,,,,,a,Correct!,0,68,68,22,1,t2.png,t3.png,1,0.90855,19,Female,2020-09-23_15h09.59.392,torte-2b,2020.1.3,Win32,60,13438,0.950345,,,,,,,,,,,,,,,,,,,,,,,,,,,,,,,,,,,,,,,,,,,,,,,,,,,,,,,,,,,,,,,,,
,,,,,,,,,,,,a,Correct!,0,69,69,66,1,t4.png,t5.png,1,0.9,19,Female,2020-09-23_15h09.59.392,torte-2b,2020.1.3,Win32,60,13438,0.92114,,,,,,,,,,,,,,,,,,,,,,,,,,,,,,,,,,,,,,,,,,,,,,,,,,,,,,,,,,,,,,,,,
,,,,,,,,,,,,a,Correct!,0,70,70,77,1,t1.png,t1.png,0,0.97829,19,Female,2020-09-23_15h09.59.392,torte-2b,2020.1.3,Win32,60,13438,1.01368,,,,,,,,,,,,,,,,,,,,,,,,,,,,,,,,,,,,,,,,,,,,,,,,,,,,,,,,,,,,,,,,,
,,,,,,,,,,,,a,Correct!,0,71,71,65,1,t4.png,t5.png,1,0.90025,19,Female,2020-09-23_15h09.59.392,torte-2b,2020.1.3,Win32,60,13438,0.7821,,,,,,,,,,,,,,,,,,,,,,,,,,,,,,,,,,,,,,,,,,,,,,,,,,,,,,,,,,,,,,,,,
,,,,,,,,,,,,a,Correct!,0,72,72,81,1,t1.png,t1.png,0,0.97829,19,Female,2020-09-23_15h09.59.392,torte-2b,2020.1.3,Win32,60,13438,0.74665,,,,,,,,,,,,,,,,,,,,,,,,,,,,,,,,,,,,,,,,,,,,,,,,,,,,,,,,,,,,,,,,,
,,,,,,,,,,,,a,Correct!,0,73,73,114,1,t2.png,t3.png,1,0.90855,19,Female,2020-09-23_15h09.59.392,torte-2b,2020.1.3,Win32,60,13438,0.81601,,,,,,,,,,,,,,,,,,,,,,,,,,,,,,,,,,,,,,,,,,,,,,,,,,,,,,,,,,,,,,,,,
,,,,,,,,,,,,a,Correct!,0,74,74,78,1,t1.png,t1.png,0,0.978,19,Female,2020-09-23_15h09.59.392,torte-2b,2020.1.3,Win32,60,13438,0.869155,,,,,,,,,,,,,,,,,,,,,,,,,,,,,,,,,,,,,,,,,,,,,,,,,,,,,,,,,,,,,,,,,
,,,,,,,,,,,,a,Incorrect,0,75,75,103,1,t3.png,t1.png,2,0.056466,19,Female,2020-09-23_15h09.59.392,torte-2b,2020.1.3,Win32,60,13438,0.8517,,,,,,,,,,,,,,,,,,,,,,,,,,,,,,,,,,,,,,,,,,,,,,,,,,,,,,,,,,,,,,,,,
,,,,,,,,,,,,a,Correct!,0,76,76,45,1,t3.png,t2.png,1,0.90855,19,Female,2020-09-23_15h09.59.392,torte-2b,2020.1.3,Win32,60,13438,0.81373,,,,,,,,,,,,,,,,,,,,,,,,,,,,,,,,,,,,,,,,,,,,,,,,,,,,,,,,,,,,,,,,,
,,,,,,,,,,,,l,Correct!,0,77,77,117,1,t1.png,t5.png,4,9.55E-11,19,Female,2020-09-23_15h09.59.392,torte-2b,2020.1.3,Win32,60,13438,0.81509,,,,,,,,,,,,,,,,,,,,,,,,,,,,,,,,,,,,,,,,,,,,,,,,,,,,,,,,,,,,,,,,,
,,,,,,,,,,,,l,Correct!,0,78,78,3,1,t1.png,t5.png,4,9.55E-11,19,Female,2020-09-23_15h09.59.392,torte-2b,2020.1.3,Win32,60,13438,0.716125,,,,,,,,,,,,,,,,,,,,,,,,,,,,,,,,,,,,,,,,,,,,,,,,,,,,,,,,,,,,,,,,,
,,,,,,,,,,,,a,Correct!,0,79,79,42,1,t5.png,t4.png,1,0.90025,19,Female,2020-09-23_15h09.59.392,torte-2b,2020.1.3,Win32,60,13438,0.8989,,,,,,,,,,,,,,,,,,,,,,,,,,,,,,,,,,,,,,,,,,,,,,,,,,,,,,,,,,,,,,,,,
,,,,,,,,,,,,l,Correct!,0,80,80,56,1,t5.png,t1.png,4,9.55E-11,19,Female,2020-09-23_15h09.59.392,torte-2b,2020.1.3,Win32,60,13438,0.79683,,,,,,,,,,,,,,,,,,,,,,,,,,,,,,,,,,,,,,,,,,,,,,,,,,,,,,,,,,,,,,,,,
,,,,,,,,,,,,a,Correct!,0,81,81,34,1,t5.png,t4.png,1,0.9,19,Female,2020-09-23_15h09.59.392,torte-2b,2020.1.3,Win32,60,13438,0.766645,,,,,,,,,,,,,,,,,,,,,,,,,,,,,,,,,,,,,,,,,,,,,,,,,,,,,,,,,,,,,,,,,
,,,,,,,,,,,,a,Correct!,0,82,82,110,1,t4.png,t5.png,1,0.90025,19,Female,2020-09-23_15h09.59.392,torte-2b,2020.1.3,Win32,60,13438,1.01535,,,,,,,,,,,,,,,,,,,,,,,,,,,,,,,,,,,,,,,,,,,,,,,,,,,,,,,,,,,,,,,,,
,,,,,,,,,,,,a,Incorrect,0,83,83,102,1,t4.png,t2.png,2,0.059078,19,Female,2020-09-23_15h09.59.392,torte-2b,2020.1.3,Win32,60,13438,0.638945,,,,,,,,,,,,,,,,,,,,,,,,,,,,,,,,,,,,,,,,,,,,,,,,,,,,,,,,,,,,,,,,,
,,,,,,,,,,,,l,Correct!,0,84,84,54,1,t1.png,t5.png,4,9.55E-11,19,Female,2020-09-23_15h09.59.392,torte-2b,2020.1.3,Win32,60,13438,0.90088,,,,,,,,,,,,,,,,,,,,,,,,,,,,,,,,,,,,,,,,,,,,,,,,,,,,,,,,,,,,,,,,,
,,,,,,,,,,,,a,Correct!,0,85,85,71,1,t5.png,t5.png,0,0.97829,19,Female,2020-09-23_15h09.59.392,torte-2b,2020.1.3,Win32,60,13438,0.8183,,,,,,,,,,,,,,,,,,,,,,,,,,,,,,,,,,,,,,,,,,,,,,,,,,,,,,,,,,,,,,,,,
,,,,,,,,,,,,a,Correct!,0,86,86,32,1,t4.png,t5.png,1,0.90025,19,Female,2020-09-23_15h09.59.392,torte-2b,2020.1.3,Win32,60,13438,0.774025,,,,,,,,,,,,,,,,,,,,,,,,,,,,,,,,,,,,,,,,,,,,,,,,,,,,,,,,,,,,,,,,,
,,,,,,,,,,,,a,Incorrect,0,87,87,89,1,t1.png,t4.png,3,0.0000131,19,Female,2020-09-23_15h09.59.392,torte-2b,2020.1.3,Win32,60,13438,0.985485,,,,,,,,,,,,,,,,,,,,,,,,,,,,,,,,,,,,,,,,,,,,,,,,,,,,,,,,,,,,,,,,,
,,,,,,,,,,,,l,Correct!,0,88,88,1,1,t2.png,t4.png,2,0.059078,19,Female,2020-09-23_15h09.59.392,torte-2b,2020.1.3,Win32,60,13438,0.869795,,,,,,,,,,,,,,,,,,,,,,,,,,,,,,,,,,,,,,,,,,,,,,,,,,,,,,,,,,,,,,,,,
,,,,,,,,,,,,l,Correct!,0,89,89,82,1,t5.png,t1.png,4,9.55E-11,19,Female,2020-09-23_15h09.59.392,torte-2b,2020.1.3,Win32,60,13438,0.852275,,,,,,,,,,,,,,,,,,,,,,,,,,,,,,,,,,,,,,,,,,,,,,,,,,,,,,,,,,,,,,,,,
,,,,,,,,,,,,l,Correct!,0,90,90,5,1,t2.png,t4.png,2,0.059078,19,Female,2020-09-23_15h09.59.392,torte-2b,2020.1.3,Win32,60,13438,1.018725,,,,,,,,,,,,,,,,,,,,,,,,,,,,,,,,,,,,,,,,,,,,,,,,,,,,,,,,,,,,,,,,,
,,,,,,,,,,,,a,Incorrect,0,91,91,37,1,t1.png,t4.png,3,0.0000131,19,Female,2020-09-23_15h09.59.392,torte-2b,2020.1.3,Win32,60,13438,0.94605,,,,,,,,,,,,,,,,,,,,,,,,,,,,,,,,,,,,,,,,,,,,,,,,,,,,,,,,,,,,,,,,,
,,,,,,,,,,,,a,Correct!,0,92,92,113,1,t5.png,t4.png,1,0.9,19,Female,2020-09-23_15h09.59.392,torte-2b,2020.1.3,Win32,60,13438,0.973105,,,,,,,,,,,,,,,,,,,,,,,,,,,,,,,,,,,,,,,,,,,,,,,,,,,,,,,,,,,,,,,,,
,,,,,,,,,,,,a,Correct!,0,93,93,64,1,t1.png,t1.png,0,0.978,19,Female,2020-09-23_15h09.59.392,torte-2b,2020.1.3,Win32,60,13438,0.71831,,,,,,,,,,,,,,,,,,,,,,,,,,,,,,,,,,,,,,,,,,,,,,,,,,,,,,,,,,,,,,,,,
,,,,,,,,,,,,a,Correct!,0,94,94,16,1,t5.png,t4.png,1,0.9,19,Female,2020-09-23_15h09.59.392,torte-2b,2020.1.3,Win32,60,13438,0.752195,,,,,,,,,,,,,,,,,,,,,,,,,,,,,,,,,,,,,,,,,,,,,,,,,,,,,,,,,,,,,,,,,
,,,,,,,,,,,,a,Correct!,0,95,95,7,1,t4.png,t5.png,1,0.90025,19,Female,2020-09-23_15h09.59.392,torte-2b,2020.1.3,Win32,60,13438,1.33444,,,,,,,,,,,,,,,,,,,,,,,,,,,,,,,,,,,,,,,,,,,,,,,,,,,,,,,,,,,,,,,,,
,,,,,,,,,,,,l,Correct!,0,96,96,69,1,t4.png,t2.png,2,0.059078,19,Female,2020-09-23_15h09.59.392,torte-2b,2020.1.3,Win32,60,13438,1.21632,,,,,,,,,,,,,,,,,,,,,,,,,,,,,,,,,,,,,,,,,,,,,,,,,,,,,,,,,,,,,,,,,
,,,,,,,,,,,,a,Incorrect,0,97,97,38,1,t3.png,t1.png,2,0.056466,19,Female,2020-09-23_15h09.59.392,torte-2b,2020.1.3,Win32,60,13438,1.016615,,,,,,,,,,,,,,,,,,,,,,,,,,,,,,,,,,,,,,,,,,,,,,,,,,,,,,,,,,,,,,,,,
,,,,,,,,,,,,l,Correct!,0,98,98,40,1,t1.png,t5.png,4,9.55E-11,19,Female,2020-09-23_15h09.59.392,torte-2b,2020.1.3,Win32,60,13438,0.788175,,,,,,,,,,,,,,,,,,,,,,,,,,,,,,,,,,,,,,,,,,,,,,,,,,,,,,,,,,,,,,,,,
,,,,,,,,,,,,a,Correct!,0,99,99,107,1,t1.png,t1.png,0,0.978,19,Female,2020-09-23_15h09.59.392,torte-2b,2020.1.3,Win32,60,13438,0.83341,,,,,,,,,,,,,,,,,,,,,,,,,,,,,,,,,,,,,,,,,,,,,,,,,,,,,,,,,,,,,,,,,
,,,,,,,,,,,,l,Correct!,0,100,100,119,1,t1.png,t5.png,4,9.55E-11,19,Female,2020-09-23_15h09.59.392,torte-2b,2020.1.3,Win32,60,13438,0.768015,,,,,,,,,,,,,,,,,,,,,,,,,,,,,,,,,,,,,,,,,,,,,,,,,,,,,,,,,,,,,,,,,
,,,,,,,,,,,,l,Correct!,0,101,101,72,1,t4.png,t2.png,2,0.059078,19,Female,2020-09-23_15h09.59.392,torte-2b,2020.1.3,Win32,60,13438,0.77732,,,,,,,,,,,,,,,,,,,,,,,,,,,,,,,,,,,,,,,,,,,,,,,,,,,,,,,,,,,,,,,,,
,,,,,,,,,,,,l,Correct!,0,102,102,50,1,t5.png,t1.png,4,9.55E-11,19,Female,2020-09-23_15h09.59.392,torte-2b,2020.1.3,Win32,60,13438,0.71834,,,,,,,,,,,,,,,,,,,,,,,,,,,,,,,,,,,,,,,,,,,,,,,,,,,,,,,,,,,,,,,,,
,,,,,,,,,,,,l,Correct!,0,103,103,47,1,t4.png,t2.png,2,0.059078,19,Female,2020-09-23_15h09.59.392,torte-2b,2020.1.3,Win32,60,13438,0.791675,,,,,,,,,,,,,,,,,,,,,,,,,,,,,,,,,,,,,,,,,,,,,,,,,,,,,,,,,,,,,,,,,
,,,,,,,,,,,,a,Correct!,0,104,104,96,1,t1.png,t1.png,0,0.97829,19,Female,2020-09-23_15h09.59.392,torte-2b,2020.1.3,Win32,60,13438,0.86681,,,,,,,,,,,,,,,,,,,,,,,,,,,,,,,,,,,,,,,,,,,,,,,,,,,,,,,,,,,,,,,,,
,,,,,,,,,,,,l,Correct!,0,105,105,24,1,t4.png,t2.png,2,0.059078,19,Female,2020-09-23_15h09.59.392,torte-2b,2020.1.3,Win32,60,13438,0.791135,,,,,,,,,,,,,,,,,,,,,,,,,,,,,,,,,,,,,,,,,,,,,,,,,,,,,,,,,,,,,,,,,
,,,,,,,,,,,,a,Incorrect,0,106,106,17,1,t1.png,t4.png,3,0.0000131,19,Female,2020-09-23_15h09.59.392,torte-2b,2020.1.3,Win32,60,13438,2.15144,,,,,,,,,,,,,,,,,,,,,,,,,,,,,,,,,,,,,,,,,,,,,,,,,,,,,,,,,,,,,,,,,
,,,,,,,,,,,,a,Correct!,0,107,107,59,1,t5.png,t4.png,1,0.9,19,Female,2020-09-23_15h09.59.392,torte-2b,2020.1.3,Win32,60,13438,1.10243,,,,,,,,,,,,,,,,,,,,,,,,,,,,,,,,,,,,,,,,,,,,,,,,,,,,,,,,,,,,,,,,,
,,,,,,,,,,,,l,Correct!,0,108,108,4,1,t1.png,t5.png,4,9.55E-11,19,Female,2020-09-23_15h09.59.392,torte-2b,2020.1.3,Win32,60,13438,0.968775,,,,,,,,,,,,,,,,,,,,,,,,,,,,,,,,,,,,,,,,,,,,,,,,,,,,,,,,,,,,,,,,,
,,,,,,,,,,,,a,Incorrect,0,109,109,27,1,t3.png,t1.png,2,0.0565,19,Female,2020-09-23_15h09.59.392,torte-2b,2020.1.3,Win32,60,13438,0.80225,,,,,,,,,,,,,,,,,,,,,,,,,,,,,,,,,,,,,,,,,,,,,,,,,,,,,,,,,,,,,,,,,
,,,,,,,,,,,,l,Correct!,0,110,110,73,1,t4.png,t2.png,2,0.059078,19,Female,2020-09-23_15h09.59.392,torte-2b,2020.1.3,Win32,60,13438,0.65173,,,,,,,,,,,,,,,,,,,,,,,,,,,,,,,,,,,,,,,,,,,,,,,,,,,,,,,,,,,,,,,,,
,,,,,,,,,,,,a,Incorrect,0,111,111,35,1,t1.png,t4.png,3,0.0000131,19,Female,2020-09-23_15h09.59.392,torte-2b,2020.1.3,Win32,60,13438,1.06914,,,,,,,,,,,,,,,,,,,,,,,,,,,,,,,,,,,,,,,,,,,,,,,,,,,,,,,,,,,,,,,,,
,,,,,,,,,,,,a,Correct!,0,112,112,76,1,t3.png,t2.png,1,0.90855,19,Female,2020-09-23_15h09.59.392,torte-2b,2020.1.3,Win32,60,13438,1.420825,,,,,,,,,,,,,,,,,,,,,,,,,,,,,,,,,,,,,,,,,,,,,,,,,,,,,,,,,,,,,,,,,
,,,,,,,,,,,,a,Correct!,0,113,113,100,1,t4.png,t5.png,1,0.90025,19,Female,2020-09-23_15h09.59.392,torte-2b,2020.1.3,Win32,60,13438,0.9642,,,,,,,,,,,,,,,,,,,,,,,,,,,,,,,,,,,,,,,,,,,,,,,,,,,,,,,,,,,,,,,,,
,,,,,,,,,,,,l,Correct!,0,114,114,99,1,t1.png,t5.png,4,9.55E-11,19,Female,2020-09-23_15h09.59.392,torte-2b,2020.1.3,Win32,60,13438,0.74967,,,,,,,,,,,,,,,,,,,,,,,,,,,,,,,,,,,,,,,,,,,,,,,,,,,,,,,,,,,,,,,,,
,,,,,,,,,,,,l,Correct!,0,115,115,26,1,t4.png,t2.png,2,0.0591,19,Female,2020-09-23_15h09.59.392,torte-2b,2020.1.3,Win32,60,13438,1.16412,,,,,,,,,,,,,,,,,,,,,,,,,,,,,,,,,,,,,,,,,,,,,,,,,,,,,,,,,,,,,,,,,
,,,,,,,,,,,,a,Correct!,0,116,116,23,1,t5.png,t4.png,1,0.90025,19,Female,2020-09-23_15h09.59.392,torte-2b,2020.1.3,Win32,60,13438,0.87213,,,,,,,,,,,,,,,,,,,,,,,,,,,,,,,,,,,,,,,,,,,,,,,,,,,,,,,,,,,,,,,,,
,,,,,,,,,,,,a,Incorrect,0,117,117,30,1,t3.png,t1.png,2,0.056466,19,Female,2020-09-23_15h09.59.392,torte-2b,2020.1.3,Win32,60,13438,0.71809,,,,,,,,,,,,,,,,,,,,,,,,,,,,,,,,,,,,,,,,,,,,,,,,,,,,,,,,,,,,,,,,,
,,,,,,,,,,,,a,Correct!,0,118,118,84,1,t1.png,t1.png,0,0.97829,19,Female,2020-09-23_15h09.59.392,torte-2b,2020.1.3,Win32,60,13438,1.16673,,,,,,,,,,,,,,,,,,,,,,,,,,,,,,,,,,,,,,,,,,,,,,,,,,,,,,,,,,,,,,,,,
,,,,,,,,,,,,l,Correct!,0,119,119,60,1,t2.png,t4.png,2,0.059078,19,Female,2020-09-23_15h09.59.392,torte-2b,2020.1.3,Win32,60,13438,1.031655,,,,,,,,,,,,,,,,,,,,,,,,,,,,,,,,,,,,,,,,,,,,,,,,,,,,,,,,,,,,,,,,,
,,,,,,,,,,,,a,Correct!,,,,,,t2.png,t3.png,1,0.90855,19,Female,2020-09-23_15h09.59.392,torte-2b,2020.1.3,Win32,60,13438,0.987695,space,1.95887,space,12.26146,0,0,0,68,1,,,,,,,,,,,,,,,,,,,,,,,,,,,,,,,,,,,,,,,,,,,,,,,,,,,,,,,,
,,,,,,,,,,,,a,Correct!,,,,,,t4.png,t5.png,1,0.90025,19,Female,2020-09-23_15h09.59.392,torte-2b,2020.1.3,Win32,60,13438,1.05912,,,,,0,1,1,58,1,,,,,,,,,,,,,,,,,,,,,,,,,,,,,,,,,,,,,,,,,,,,,,,,,,,,,,,,
,,,,,,,,,,,,a,Incorrect,,,,,,t1.png,t4.png,3,0.0000131,19,Female,2020-09-23_15h09.59.392,torte-2b,2020.1.3,Win32,60,13438,1.1844,,,,,0,2,2,17,1,,,,,,,,,,,,,,,,,,,,,,,,,,,,,,,,,,,,,,,,,,,,,,,,,,,,,,,,
,,,,,,,,,,,,a,Correct!,,,,,,t1.png,t1.png,0,0.978,19,Female,2020-09-23_15h09.59.392,torte-2b,2020.1.3,Win32,60,13438,0.831235,,,,,0,3,3,28,1,,,,,,,,,,,,,,,,,,,,,,,,,,,,,,,,,,,,,,,,,,,,,,,,,,,,,,,,
,,,,,,,,,,,,a,Incorrect,,,,,,t3.png,t1.png,2,0.056466,19,Female,2020-09-23_15h09.59.392,torte-2b,2020.1.3,Win32,60,13438,0.753575,,,,,0,4,4,64,1,,,,,,,,,,,,,,,,,,,,,,,,,,,,,,,,,,,,,,,,,,,,,,,,,,,,,,,,
,,,,,,,,,,,,a,Correct!,,,,,,t3.png,t1.png,2,0.0565,19,Female,2020-09-23_15h09.59.392,torte-2b,2020.1.3,Win32,60,13438,0.655595,,,,,0,5,5,31,1,,,,,,,,,,,,,,,,,,,,,,,,,,,,,,,,,,,,,,,,,,,,,,,,,,,,,,,,
,,,,,,,,,,,,a,Correct!,,,,,,t4.png,t3.png,1,0.909,19,Female,2020-09-23_15h09.59.392,torte-2b,2020.1.3,Win32,60,13438,0.923675,,,,,0,6,6,20,1,,,,,,,,,,,,,,,,,,,,,,,,,,,,,,,,,,,,,,,,,,,,,,,,,,,,,,,,
,,,,,,,,,,,,a,Incorrect,,,,,,t5.png,t3.png,2,0.056466,19,Female,2020-09-23_15h09.59.392,torte-2b,2020.1.3,Win32,60,13438,1.04769,,,,,0,7,7,108,1,,,,,,,,,,,,,,,,,,,,,,,,,,,,,,,,,,,,,,,,,,,,,,,,,,,,,,,,
,,,,,,,,,,,,a,Correct!,,,,,,t3.png,t2.png,1,0.90855,19,Female,2020-09-23_15h09.59.392,torte-2b,2020.1.3,Win32,60,13438,1.03474,,,,,0,8,8,53,1,,,,,,,,,,,,,,,,,,,,,,,,,,,,,,,,,,,,,,,,,,,,,,,,,,,,,,,,
,,,,,,,,,,,,l,Correct!,,,,,,t5.png,t1.png,4,9.55E-11,19,Female,2020-09-23_15h09.59.392,torte-2b,2020.1.3,Win32,60,13438,0.68973,,,,,0,9,9,43,1,,,,,,,,,,,,,,,,,,,,,,,,,,,,,,,,,,,,,,,,,,,,,,,,,,,,,,,,
,,,,,,,,,,,,l,Incorrect,,,,,,t2.png,t3.png,1,0.90855,19,Female,2020-09-23_15h09.59.392,torte-2b,2020.1.3,Win32,60,13438,1.06708,,,,,0,10,10,111,1,,,,,,,,,,,,,,,,,,,,,,,,,,,,,,,,,,,,,,,,,,,,,,,,,,,,,,,,
,,,,,,,,,,,,a,Incorrect,,,,,,t3.png,t5.png,2,0.056466,19,Female,2020-09-23_15h09.59.392,torte-2b,2020.1.3,Win32,60,13438,1.26954,,,,,0,11,11,6,1,,,,,,,,,,,,,,,,,,,,,,,,,,,,,,,,,,,,,,,,,,,,,,,,,,,,,,,,
,,,,,,,,,,,,a,Incorrect,,,,,,t2.png,t5.png,3,0.0000131,19,Female,2020-09-23_15h09.59.392,torte-2b,2020.1.3,Win32,60,13438,0.83751,,,,,0,12,12,8,1,,,,,,,,,,,,,,,,,,,,,,,,,,,,,,,,,,,,,,,,,,,,,,,,,,,,,,,,
,,,,,,,,,,,,a,Correct!,,,,,,t3.png,t2.png,1,0.90855,19,Female,2020-09-23_15h09.59.392,torte-2b,2020.1.3,Win32,60,13438,0.974155,,,,,0,13,13,18,1,,,,,,,,,,,,,,,,,,,,,,,,,,,,,,,,,,,,,,,,,,,,,,,,,,,,,,,,
,,,,,,,,,,,,l,Correct!,,,,,,t5.png,t1.png,4,9.55E-11,19,Female,2020-09-23_15h09.59.392,torte-2b,2020.1.3,Win32,60,13438,0.815665,,,,,0,14,14,102,1,,,,,,,,,,,,,,,,,,,,,,,,,,,,,,,,,,,,,,,,,,,,,,,,,,,,,,,,
,,,,,,,,,,,,a,Correct!,,,,,,t3.png,t2.png,1,0.90855,19,Female,2020-09-23_15h09.59.392,torte-2b,2020.1.3,Win32,60,13438,0.958265,,,,,0,15,15,97,1,,,,,,,,,,,,,,,,,,,,,,,,,,,,,,,,,,,,,,,,,,,,,,,,,,,,,,,,
,,,,,,,,,,,,l,Incorrect,,,,,,t2.png,t3.png,1,0.90855,19,Female,2020-09-23_15h09.59.392,torte-2b,2020.1.3,Win32,60,13438,0.783435,,,,,0,16,16,10,1,,,,,,,,,,,,,,,,,,,,,,,,,,,,,,,,,,,,,,,,,,,,,,,,,,,,,,,,
,,,,,,,,,,,,a,Incorrect,,,,,,t1.png,t4.png,3,0.0000131,19,Female,2020-09-23_15h09.59.392,torte-2b,2020.1.3,Win32,60,13438,0.863905,,,,,0,17,17,107,1,,,,,,,,,,,,,,,,,,,,,,,,,,,,,,,,,,,,,,,,,,,,,,,,,,,,,,,,
,,,,,,,,,,,,a,Incorrect,,,,,,t5.png,t3.png,2,0.0565,19,Female,2020-09-23_15h09.59.392,torte-2b,2020.1.3,Win32,60,13438,1.349185,,,,,0,18,18,39,1,,,,,,,,,,,,,,,,,,,,,,,,,,,,,,,,,,,,,,,,,,,,,,,,,,,,,,,,
,,,,,,,,,,,,a,Incorrect,,,,,,t4.png,t1.png,3,0.0000131,19,Female,2020-09-23_15h09.59.392,torte-2b,2020.1.3,Win32,60,13438,1.26379,,,,,0,19,19,48,1,,,,,,,,,,,,,,,,,,,,,,,,,,,,,,,,,,,,,,,,,,,,,,,,,,,,,,,,
,,,,,,,,,,,,a,Correct!,,,,,,t4.png,t5.png,1,0.90025,19,Female,2020-09-23_15h09.59.392,torte-2b,2020.1.3,Win32,60,13438,0.999075,,,,,0,20,20,47,1,,,,,,,,,,,,,,,,,,,,,,,,,,,,,,,,,,,,,,,,,,,,,,,,,,,,,,,,
,,,,,,,,,,,,a,Incorrect,,,,,,t3.png,t5.png,2,0.0565,19,Female,2020-09-23_15h09.59.392,torte-2b,2020.1.3,Win32,60,13438,0.70032,,,,,0,21,21,83,1,,,,,,,,,,,,,,,,,,,,,,,,,,,,,,,,,,,,,,,,,,,,,,,,,,,,,,,,
,,,,,,,,,,,,a,Incorrect,,,,,,t5.png,t3.png,2,0.056466,19,Female,2020-09-23_15h09.59.392,torte-2b,2020.1.3,Win32,60,13438,0.7634,,,,,0,22,22,38,1,,,,,,,,,,,,,,,,,,,,,,,,,,,,,,,,,,,,,,,,,,,,,,,,,,,,,,,,
,,,,,,,,,,,,a,Incorrect,,,,,,t1.png,t4.png,3,0.0000131,19,Female,2020-09-23_15h09.59.392,torte-2b,2020.1.3,Win32,60,13438,0.93965,,,,,0,23,23,50,1,,,,,,,,,,,,,,,,,,,,,,,,,,,,,,,,,,,,,,,,,,,,,,,,,,,,,,,,
,,,,,,,,,,,,a,Incorrect,,,,,,t3.png,t1.png,2,0.056466,19,Female,2020-09-23_15h09.59.392,torte-2b,2020.1.3,Win32,60,13438,0.78902,,,,,0,24,24,29,1,,,,,,,,,,,,,,,,,,,,,,,,,,,,,,,,,,,,,,,,,,,,,,,,,,,,,,,,
,,,,,,,,,,,,a,Incorrect,,,,,,t2.png,t5.png,3,0.0000131,19,Female,2020-09-23_15h09.59.392,torte-2b,2020.1.3,Win32,60,13438,0.75087,,,,,0,25,25,40,1,,,,,,,,,,,,,,,,,,,,,,,,,,,,,,,,,,,,,,,,,,,,,,,,,,,,,,,,
,,,,,,,,,,,,a,Correct!,,,,,,t2.png,t1.png,1,0.90025,19,Female,2020-09-23_15h09.59.392,torte-2b,2020.1.3,Win32,60,13438,0.98756,,,,,0,26,26,4,1,,,,,,,,,,,,,,,,,,,,,,,,,,,,,,,,,,,,,,,,,,,,,,,,,,,,,,,,
,,,,,,,,,,,,l,Correct!,,,,,,t4.png,t2.png,2,0.059078,19,Female,2020-09-23_15h09.59.392,torte-2b,2020.1.3,Win32,60,13438,0.9339,,,,,0,27,27,110,1,,,,,,,,,,,,,,,,,,,,,,,,,,,,,,,,,,,,,,,,,,,,,,,,,,,,,,,,
,,,,,,,,,,,,a,Correct!,,,,,,t4.png,t4.png,0,0.98115,19,Female,2020-09-23_15h09.59.392,torte-2b,2020.1.3,Win32,60,13438,0.780615,,,,,0,28,28,21,1,,,,,,,,,,,,,,,,,,,,,,,,,,,,,,,,,,,,,,,,,,,,,,,,,,,,,,,,
,,,,,,,,,,,,l,Correct!,,,,,,t1.png,t5.png,4,9.55E-11,19,Female,2020-09-23_15h09.59.392,torte-2b,2020.1.3,Win32,60,13438,0.649695,,,,,0,29,29,41,1,,,,,,,,,,,,,,,,,,,,,,,,,,,,,,,,,,,,,,,,,,,,,,,,,,,,,,,,
,,,,,,,,,,,,a,Correct!,,,,,,t4.png,t3.png,1,0.909,19,Female,2020-09-23_15h09.59.392,torte-2b,2020.1.3,Win32,60,13438,0.76721,,,,,0,30,30,46,1,,,,,,,,,,,,,,,,,,,,,,,,,,,,,,,,,,,,,,,,,,,,,,,,,,,,,,,,
,,,,,,,,,,,,l,Correct!,,,,,,t2.png,t4.png,2,0.059078,19,Female,2020-09-23_15h09.59.392,torte-2b,2020.1.3,Win32,60,13438,0.867785,,,,,0,31,31,77,1,,,,,,,,,,,,,,,,,,,,,,,,,,,,,,,,,,,,,,,,,,,,,,,,,,,,,,,,
,,,,,,,,,,,,a,Correct!,,,,,,t2.png,t2.png,0,0.98115,19,Female,2020-09-23_15h09.59.392,torte-2b,2020.1.3,Win32,60,13438,0.731595,,,,,0,32,32,2,1,,,,,,,,,,,,,,,,,,,,,,,,,,,,,,,,,,,,,,,,,,,,,,,,,,,,,,,,
,,,,,,,,,,,,a,Correct!,,,,,,t5.png,t5.png,0,0.97829,19,Female,2020-09-23_15h09.59.392,torte-2b,2020.1.3,Win32,60,13438,0.668735,,,,,0,33,33,25,1,,,,,,,,,,,,,,,,,,,,,,,,,,,,,,,,,,,,,,,,,,,,,,,,,,,,,,,,
,,,,,,,,,,,,a,Correct!,,,,,,t3.png,t2.png,1,0.909,19,Female,2020-09-23_15h09.59.392,torte-2b,2020.1.3,Win32,60,13438,0.971715,,,,,0,34,34,3,1,,,,,,,,,,,,,,,,,,,,,,,,,,,,,,,,,,,,,,,,,,,,,,,,,,,,,,,,
,,,,,,,,,,,,a,Correct!,,,,,,t1.png,t1.png,0,0.97829,19,Female,2020-09-23_15h09.59.392,torte-2b,2020.1.3,Win32,60,13438,0.772235,,,,,0,35,35,67,1,,,,,,,,,,,,,,,,,,,,,,,,,,,,,,,,,,,,,,,,,,,,,,,,,,,,,,,,
,,,,,,,,,,,,a,Correct!,,,,,,t4.png,t4.png,0,0.98115,19,Female,2020-09-23_15h09.59.392,torte-2b,2020.1.3,Win32,60,13438,0.62139,,,,,0,36,36,79,1,,,,,,,,,,,,,,,,,,,,,,,,,,,,,,,,,,,,,,,,,,,,,,,,,,,,,,,,
,,,,,,,,,,,,l,Correct!,,,,,,t1.png,t5.png,4,9.55E-11,19,Female,2020-09-23_15h09.59.392,torte-2b,2020.1.3,Win32,60,13438,0.84497,,,,,0,37,37,85,1,,,,,,,,,,,,,,,,,,,,,,,,,,,,,,,,,,,,,,,,,,,,,,,,,,,,,,,,
,,,,,,,,,,,,a,Correct!,,,,,,t4.png,t3.png,1,0.90855,19,Female,2020-09-23_15h09.59.392,torte-2b,2020.1.3,Win32,60,13438,0.71835,,,,,0,38,38,35,1,,,,,,,,,,,,,,,,,,,,,,,,,,,,,,,,,,,,,,,,,,,,,,,,,,,,,,,,
,,,,,,,,,,,,a,Incorrect,,,,,,t1.png,t4.png,3,0.0000131,19,Female,2020-09-23_15h09.59.392,torte-2b,2020.1.3,Win32,60,13438,0.84442,,,,,0,39,39,81,1,,,,,,,,,,,,,,,,,,,,,,,,,,,,,,,,,,,,,,,,,,,,,,,,,,,,,,,,
,,,,,,,,,,,,l,Correct!,,,,,,t1.png,t5.png,4,9.55E-11,19,Female,2020-09-23_15h09.59.392,torte-2b,2020.1.3,Win32,60,13438,1.084635,,,,,0,40,40,12,1,,,,,,,,,,,,,,,,,,,,,,,,,,,,,,,,,,,,,,,,,,,,,,,,,,,,,,,,
,,,,,,,,,,,,a,Incorrect,,,,,,t5.png,t2.png,3,0.0000131,19,Female,2020-09-23_15h09.59.392,torte-2b,2020.1.3,Win32,60,13438,0.92424,,,,,0,41,41,119,1,,,,,,,,,,,,,,,,,,,,,,,,,,,,,,,,,,,,,,,,,,,,,,,,,,,,,,,,
,,,,,,,,,,,,a,Correct!,,,,,,t2.png,t2.png,0,0.98115,19,Female,2020-09-23_15h09.59.392,torte-2b,2020.1.3,Win32,60,13438,0.95511,,,,,0,42,42,57,1,,,,,,,,,,,,,,,,,,,,,,,,,,,,,,,,,,,,,,,,,,,,,,,,,,,,,,,,
,,,,,,,,,,,,a,Correct!,,,,,,t2.png,t2.png,0,0.981,19,Female,2020-09-23_15h09.59.392,torte-2b,2020.1.3,Win32,60,13438,1.107655,,,,,0,43,43,101,1,,,,,,,,,,,,,,,,,,,,,,,,,,,,,,,,,,,,,,,,,,,,,,,,,,,,,,,,
,,,,,,,,,,,,a,Incorrect,,,,,,t4.png,t3.png,1,0.90855,19,Female,2020-09-23_15h09.59.392,torte-2b,2020.1.3,Win32,60,13438,0.97348,,,,,0,44,44,45,1,,,,,,,,,,,,,,,,,,,,,,,,,,,,,,,,,,,,,,,,,,,,,,,,,,,,,,,,
,,,,,,,,,,,,l,Correct!,,,,,,t4.png,t2.png,2,0.0591,19,Female,2020-09-23_15h09.59.392,torte-2b,2020.1.3,Win32,60,13438,1.03495,,,,,0,45,45,36,1,,,,,,,,,,,,,,,,,,,,,,,,,,,,,,,,,,,,,,,,,,,,,,,,,,,,,,,,
,,,,,,,,,,,,a,Correct!,,,,,,t4.png,t4.png,0,0.98115,19,Female,2020-09-23_15h09.59.392,torte-2b,2020.1.3,Win32,60,13438,0.801495,,,,,0,46,46,90,1,,,,,,,,,,,,,,,,,,,,,,,,,,,,,,,,,,,,,,,,,,,,,,,,,,,,,,,,
,,,,,,,,,,,,a,Correct!,,,,,,t5.png,t5.png,0,0.978,19,Female,2020-09-23_15h09.59.392,torte-2b,2020.1.3,Win32,60,13438,0.960645,,,,,0,47,47,117,1,,,,,,,,,,,,,,,,,,,,,,,,,,,,,,,,,,,,,,,,,,,,,,,,,,,,,,,,
,,,,,,,,,,,,a,Correct!,,,,,,t5.png,t4.png,1,0.90025,19,Female,2020-09-23_15h09.59.392,torte-2b,2020.1.3,Win32,60,13438,0.936455,,,,,0,48,48,27,1,,,,,,,,,,,,,,,,,,,,,,,,,,,,,,,,,,,,,,,,,,,,,,,,,,,,,,,,
,,,,,,,,,,,,l,Correct!,,,,,,t1.png,t3.png,2,0.056466,19,Female,2020-09-23_15h09.59.392,torte-2b,2020.1.3,Win32,60,13438,0.81825,,,,,0,49,49,87,1,,,,,,,,,,,,,,,,,,,,,,,,,,,,,,,,,,,,,,,,,,,,,,,,,,,,,,,,
,,,,,,,,,,,,a,Correct!,,,,,,t3.png,t4.png,1,0.90855,19,Female,2020-09-23_15h09.59.392,torte-2b,2020.1.3,Win32,60,13438,0.846845,,,,,0,50,50,96,1,,,,,,,,,,,,,,,,,,,,,,,,,,,,,,,,,,,,,,,,,,,,,,,,,,,,,,,,
,,,,,,,,,,,,a,Correct!,,,,,,t2.png,t1.png,1,0.9,19,Female,2020-09-23_15h09.59.392,torte-2b,2020.1.3,Win32,60,13438,1.157155,,,,,0,51,51,118,1,,,,,,,,,,,,,,,,,,,,,,,,,,,,,,,,,,,,,,,,,,,,,,,,,,,,,,,,
,,,,,,,,,,,,a,Correct!,,,,,,t1.png,t2.png,1,0.90025,19,Female,2020-09-23_15h09.59.392,torte-2b,2020.1.3,Win32,60,13438,1.50518,,,,,0,52,52,72,1,,,,,,,,,,,,,,,,,,,,,,,,,,,,,,,,,,,,,,,,,,,,,,,,,,,,,,,,
,,,,,,,,,,,,l,Correct!,,,,,,t5.png,t2.png,3,0.0000131,19,Female,2020-09-23_15h09.59.392,torte-2b,2020.1.3,Win32,60,13438,0.86945,,,,,0,53,53,116,1,,,,,,,,,,,,,,,,,,,,,,,,,,,,,,,,,,,,,,,,,,,,,,,,,,,,,,,,
,,,,,,,,,,,,l,Correct!,,,,,,t4.png,t2.png,2,0.059078,19,Female,2020-09-23_15h09.59.392,torte-2b,2020.1.3,Win32,60,13438,0.990425,,,,,0,54,54,109,1,,,,,,,,,,,,,,,,,,,,,,,,,,,,,,,,,,,,,,,,,,,,,,,,,,,,,,,,
,,,,,,,,,,,,a,Correct!,,,,,,t1.png,t2.png,1,0.90025,19,Female,2020-09-23_15h09.59.392,torte-2b,2020.1.3,Win32,60,13438,0.772275,,,,,0,55,55,33,1,,,,,,,,,,,,,,,,,,,,,,,,,,,,,,,,,,,,,,,,,,,,,,,,,,,,,,,,
,,,,,,,,,,,,a,Incorrect,,,,,,t4.png,t1.png,3,0.0000131,19,Female,2020-09-23_15h09.59.392,torte-2b,2020.1.3,Win32,60,13438,1.40237,,,,,0,56,56,13,1,,,,,,,,,,,,,,,,,,,,,,,,,,,,,,,,,,,,,,,,,,,,,,,,,,,,,,,,
,,,,,,,,,,,,a,Incorrect,,,,,,t3.png,t1.png,2,0.056466,19,Female,2020-09-23_15h09.59.392,torte-2b,2020.1.3,Win32,60,13438,1.03994,,,,,0,57,57,0,1,,,,,,,,,,,,,,,,,,,,,,,,,,,,,,,,,,,,,,,,,,,,,,,,,,,,,,,,
,,,,,,,,,,,,a,Correct!,,,,,,t5.png,t5.png,0,0.97829,19,Female,2020-09-23_15h09.59.392,torte-2b,2020.1.3,Win32,60,13438,0.801495,,,,,0,58,58,73,1,,,,,,,,,,,,,,,,,,,,,,,,,,,,,,,,,,,,,,,,,,,,,,,,,,,,,,,,
,,,,,,,,,,,,a,Incorrect,,,,,,t5.png,t2.png,3,0.0000131,19,Female,2020-09-23_15h09.59.392,torte-2b,2020.1.3,Win32,60,13438,1.16661,,,,,0,59,59,51,1,,,,,,,,,,,,,,,,,,,,,,,,,,,,,,,,,,,,,,,,,,,,,,,,,,,,,,,,
,,,,,,,,,,,,a,Correct!,,,,,,t1.png,t3.png,2,0.056466,19,Female,2020-09-23_15h09.59.392,torte-2b,2020.1.3,Win32,60,13438,1.137495,,,,,0,60,60,99,1,,,,,,,,,,,,,,,,,,,,,,,,,,,,,,,,,,,,,,,,,,,,,,,,,,,,,,,,
,,,,,,,,,,,,a,Correct!,,,,,,t2.png,t1.png,1,0.90025,19,Female,2020-09-23_15h09.59.392,torte-2b,2020.1.3,Win32,60,13438,1.063875,,,,,0,61,61,19,1,,,,,,,,,,,,,,,,,,,,,,,,,,,,,,,,,,,,,,,,,,,,,,,,,,,,,,,,
,,,,,,,,,,,,l,Correct!,,,,,,t4.png,t2.png,2,0.059078,19,Female,2020-09-23_15h09.59.392,torte-2b,2020.1.3,Win32,60,13438,1.25114,,,,,0,62,62,86,1,,,,,,,,,,,,,,,,,,,,,,,,,,,,,,,,,,,,,,,,,,,,,,,,,,,,,,,,
,,,,,,,,,,,,a,Correct!,,,,,,t5.png,t4.png,1,0.90025,19,Female,2020-09-23_15h09.59.392,torte-2b,2020.1.3,Win32,60,13438,0.849615,,,,,0,63,63,26,1,,,,,,,,,,,,,,,,,,,,,,,,,,,,,,,,,,,,,,,,,,,,,,,,,,,,,,,,
,,,,,,,,,,,,a,Correct!,,,,,,t2.png,t2.png,0,0.98115,19,Female,2020-09-23_15h09.59.392,torte-2b,2020.1.3,Win32,60,13438,1.00105,,,,,0,64,64,59,1,,,,,,,,,,,,,,,,,,,,,,,,,,,,,,,,,,,,,,,,,,,,,,,,,,,,,,,,
,,,,,,,,,,,,a,Incorrect,,,,,,t4.png,t1.png,3,0.0000131,19,Female,2020-09-23_15h09.59.392,torte-2b,2020.1.3,Win32,60,13438,1.020275,,,,,0,65,65,61,1,,,,,,,,,,,,,,,,,,,,,,,,,,,,,,,,,,,,,,,,,,,,,,,,,,,,,,,,
,,,,,,,,,,,,a,Correct!,,,,,,t1.png,t1.png,0,0.97829,19,Female,2020-09-23_15h09.59.392,torte-2b,2020.1.3,Win32,60,13438,0.9642,,,,,0,66,66,78,1,,,,,,,,,,,,,,,,,,,,,,,,,,,,,,,,,,,,,,,,,,,,,,,,,,,,,,,,
,,,,,,,,,,,,l,Correct!,,,,,,t1.png,t5.png,4,9.55E-11,19,Female,2020-09-23_15h09.59.392,torte-2b,2020.1.3,Win32,60,13438,0.86338,,,,,0,67,67,16,1,,,,,,,,,,,,,,,,,,,,,,,,,,,,,,,,,,,,,,,,,,,,,,,,,,,,,,,,
,,,,,,,,,,,,a,Correct!,,,,,,t3.png,t4.png,1,0.909,19,Female,2020-09-23_15h09.59.392,torte-2b,2020.1.3,Win32,60,13438,0.968185,,,,,0,68,68,89,1,,,,,,,,,,,,,,,,,,,,,,,,,,,,,,,,,,,,,,,,,,,,,,,,,,,,,,,,
,,,,,,,,,,,,l,Correct!,,,,,,t1.png,t5.png,4,9.55E-11,19,Female,2020-09-23_15h09.59.392,torte-2b,2020.1.3,Win32,60,13438,1.13475,,,,,0,69,69,55,1,,,,,,,,,,,,,,,,,,,,,,,,,,,,,,,,,,,,,,,,,,,,,,,,,,,,,,,,
,,,,,,,,,,,,a,Correct!,,,,,,t3.png,t4.png,1,0.909,19,Female,2020-09-23_15h09.59.392,torte-2b,2020.1.3,Win32,60,13438,1.05126,,,,,0,70,70,82,1,,,,,,,,,,,,,,,,,,,,,,,,,,,,,,,,,,,,,,,,,,,,,,,,,,,,,,,,
,,,,,,,,,,,,a,Correct!,,,,,,t5.png,t5.png,0,0.97829,19,Female,2020-09-23_15h09.59.392,torte-2b,2020.1.3,Win32,60,13438,1.766265,,,,,0,71,71,94,1,,,,,,,,,,,,,,,,,,,,,,,,,,,,,,,,,,,,,,,,,,,,,,,,,,,,,,,,
,,,,,,,,,,,,a,Incorrect,,,,,,t3.png,t5.png,2,0.0565,19,Female,2020-09-23_15h09.59.392,torte-2b,2020.1.3,Win32,60,13438,0.947345,,,,,0,72,72,30,1,,,,,,,,,,,,,,,,,,,,,,,,,,,,,,,,,,,,,,,,,,,,,,,,,,,,,,,,
,,,,,,,,,,,,l,Correct!,,,,,,t5.png,t1.png,4,9.55E-11,19,Female,2020-09-23_15h09.59.392,torte-2b,2020.1.3,Win32,60,13438,0.819855,,,,,0,73,73,71,1,,,,,,,,,,,,,,,,,,,,,,,,,,,,,,,,,,,,,,,,,,,,,,,,,,,,,,,,
,,,,,,,,,,,,a,Correct!,,,,,,t4.png,t3.png,1,0.90855,19,Female,2020-09-23_15h09.59.392,torte-2b,2020.1.3,Win32,60,13438,0.664375,,,,,0,74,74,75,1,,,,,,,,,,,,,,,,,,,,,,,,,,,,,,,,,,,,,,,,,,,,,,,,,,,,,,,,
,,,,,,,,,,,,a,Correct!,,,,,,t4.png,t5.png,1,0.90025,19,Female,2020-09-23_15h09.59.392,torte-2b,2020.1.3,Win32,60,13438,0.7574,,,,,0,75,75,113,1,,,,,,,,,,,,,,,,,,,,,,,,,,,,,,,,,,,,,,,,,,,,,,,,,,,,,,,,
,,,,,,,,,,,,a,Correct!,,,,,,t1.png,t1.png,0,0.978,19,Female,2020-09-23_15h09.59.392,torte-2b,2020.1.3,Win32,60,13438,0.80817,,,,,0,76,76,54,1,,,,,,,,,,,,,,,,,,,,,,,,,,,,,,,,,,,,,,,,,,,,,,,,,,,,,,,,
,,,,,,,,,,,,a,Correct!,,,,,,t1.png,t3.png,2,0.056466,19,Female,2020-09-23_15h09.59.392,torte-2b,2020.1.3,Win32,60,13438,1.04149,,,,,0,77,77,60,1,,,,,,,,,,,,,,,,,,,,,,,,,,,,,,,,,,,,,,,,,,,,,,,,,,,,,,,,
,,,,,,,,,,,,a,Incorrect,,,,,,t4.png,t2.png,2,0.059078,19,Female,2020-09-23_15h09.59.392,torte-2b,2020.1.3,Win32,60,13438,1.317625,,,,,0,78,78,88,1,,,,,,,,,,,,,,,,,,,,,,,,,,,,,,,,,,,,,,,,,,,,,,,,,,,,,,,,
,,,,,,,,,,,,l,Incorrect,,,,,,t1.png,t2.png,1,0.9,19,Female,2020-09-23_15h09.59.392,torte-2b,2020.1.3,Win32,60,13438,0.81798,,,,,0,79,79,1,1,,,,,,,,,,,,,,,,,,,,,,,,,,,,,,,,,,,,,,,,,,,,,,,,,,,,,,,,
,,,,,,,,,,,,l,Correct!,,,,,,t2.png,t4.png,2,0.0591,19,Female,2020-09-23_15h09.59.392,torte-2b,2020.1.3,Win32,60,13438,0.918115,,,,,0,80,80,15,1,,,,,,,,,,,,,,,,,,,,,,,,,,,,,,,,,,,,,,,,,,,,,,,,,,,,,,,,
,,,,,,,,,,,,a,Correct!,,,,,,t5.png,t5.png,0,0.97829,19,Female,2020-09-23_15h09.59.392,torte-2b,2020.1.3,Win32,60,13438,0.818955,,,,,0,81,81,70,1,,,,,,,,,,,,,,,,,,,,,,,,,,,,,,,,,,,,,,,,,,,,,,,,,,,,,,,,
,,,,,,,,,,,,a,Incorrect,,,,,,t4.png,t1.png,3,0.0000131,19,Female,2020-09-23_15h09.59.392,torte-2b,2020.1.3,Win32,60,13438,1.26803,,,,,0,82,82,42,1,,,,,,,,,,,,,,,,,,,,,,,,,,,,,,,,,,,,,,,,,,,,,,,,,,,,,,,,
,,,,,,,,,,,,a,Correct!,,,,,,t2.png,t3.png,1,0.909,19,Female,2020-09-23_15h09.59.392,torte-2b,2020.1.3,Win32,60,13438,1.00103,,,,,0,83,83,74,1,,,,,,,,,,,,,,,,,,,,,,,,,,,,,,,,,,,,,,,,,,,,,,,,,,,,,,,,
,,,,,,,,,,,,a,Correct!,,,,,,t4.png,t4.png,0,0.98115,19,Female,2020-09-23_15h09.59.392,torte-2b,2020.1.3,Win32,60,13438,0.844815,,,,,0,84,84,52,1,,,,,,,,,,,,,,,,,,,,,,,,,,,,,,,,,,,,,,,,,,,,,,,,,,,,,,,,
,,,,,,,,,,,,l,Incorrect,,,,,,t2.png,t1.png,1,0.90025,19,Female,2020-09-23_15h09.59.392,torte-2b,2020.1.3,Win32,60,13438,1.235725,,,,,0,85,85,5,1,,,,,,,,,,,,,,,,,,,,,,,,,,,,,,,,,,,,,,,,,,,,,,,,,,,,,,,,
,,,,,,,,,,,,a,Incorrect,,,,,,t3.png,t2.png,1,0.909,19,Female,2020-09-23_15h09.59.392,torte-2b,2020.1.3,Win32,60,13438,0.843835,,,,,0,86,86,23,1,,,,,,,,,,,,,,,,,,,,,,,,,,,,,,,,,,,,,,,,,,,,,,,,,,,,,,,,
,,,,,,,,,,,,l,Correct!,,,,,,t1.png,t3.png,2,0.056466,19,Female,2020-09-23_15h09.59.392,torte-2b,2020.1.3,Win32,60,13438,0.66906,,,,,0,87,87,69,1,,,,,,,,,,,,,,,,,,,,,,,,,,,,,,,,,,,,,,,,,,,,,,,,,,,,,,,,
,,,,,,,,,,,,a,Correct!,,,,,,t1.png,t1.png,0,0.97829,19,Female,2020-09-23_15h09.59.392,torte-2b,2020.1.3,Win32,60,13438,0.7693,,,,,0,88,88,9,1,,,,,,,,,,,,,,,,,,,,,,,,,,,,,,,,,,,,,,,,,,,,,,,,,,,,,,,,
,,,,,,,,,,,,a,Correct!,,,,,,t1.png,t2.png,1,0.90025,19,Female,2020-09-23_15h09.59.392,torte-2b,2020.1.3,Win32,60,13438,0.914135,,,,,0,89,89,105,1,,,,,,,,,,,,,,,,,,,,,,,,,,,,,,,,,,,,,,,,,,,,,,,,,,,,,,,,
,,,,,,,,,,,,a,Correct!,,,,,,t5.png,t4.png,1,0.9,19,Female,2020-09-23_15h09.59.392,torte-2b,2020.1.3,Win32,60,13438,0.984405,,,,,0,90,90,49,1,,,,,,,,,,,,,,,,,,,,,,,,,,,,,,,,,,,,,,,,,,,,,,,,,,,,,,,,
,,,,,,,,,,,,a,Incorrect,,,,,,t2.png,t5.png,3,0.0000131,19,Female,2020-09-23_15h09.59.392,torte-2b,2020.1.3,Win32,60,13438,0.802015,,,,,0,91,91,66,1,,,,,,,,,,,,,,,,,,,,,,,,,,,,,,,,,,,,,,,,,,,,,,,,,,,,,,,,
,,,,,,,,,,,,a,Incorrect,,,,,,t3.png,t5.png,2,0.056466,19,Female,2020-09-23_15h09.59.392,torte-2b,2020.1.3,Win32,60,13438,0.788825,,,,,0,92,92,14,1,,,,,,,,,,,,,,,,,,,,,,,,,,,,,,,,,,,,,,,,,,,,,,,,,,,,,,,,
,,,,,,,,,,,,a,Incorrect,,,,,,t1.png,t3.png,2,0.056466,19,Female,2020-09-23_15h09.59.392,torte-2b,2020.1.3,Win32,60,13438,0.78132,,,,,0,93,93,63,1,,,,,,,,,,,,,,,,,,,,,,,,,,,,,,,,,,,,,,,,,,,,,,,,,,,,,,,,
,,,,,,,,,,,,a,Correct!,,,,,,t4.png,t5.png,1,0.90025,19,Female,2020-09-23_15h09.59.392,torte-2b,2020.1.3,Win32,60,13438,0.99738,,,,,0,94,94,103,1,,,,,,,,,,,,,,,,,,,,,,,,,,,,,,,,,,,,,,,,,,,,,,,,,,,,,,,,
,,,,,,,,,,,,a,Correct!,,,,,,t4.png,t5.png,1,0.9,19,Female,2020-09-23_15h09.59.392,torte-2b,2020.1.3,Win32,60,13438,1.021315,,,,,0,95,95,115,1,,,,,,,,,,,,,,,,,,,,,,,,,,,,,,,,,,,,,,,,,,,,,,,,,,,,,,,,
,,,,,,,,,,,,a,Incorrect,,,,,,t1.png,t4.png,3,0.0000131,19,Female,2020-09-23_15h09.59.392,torte-2b,2020.1.3,Win32,60,13438,1.103145,,,,,0,96,96,92,1,,,,,,,,,,,,,,,,,,,,,,,,,,,,,,,,,,,,,,,,,,,,,,,,,,,,,,,,
,,,,,,,,,,,,a,Incorrect,,,,,,t5.png,t2.png,3,0.0000131,19,Female,2020-09-23_15h09.59.392,torte-2b,2020.1.3,Win32,60,13438,1.400725,,,,,0,97,97,91,1,,,,,,,,,,,,,,,,,,,,,,,,,,,,,,,,,,,,,,,,,,,,,,,,,,,,,,,,
,,,,,,,,,,,,a,Correct!,,,,,,t1.png,t2.png,1,0.90025,19,Female,2020-09-23_15h09.59.392,torte-2b,2020.1.3,Win32,60,13438,1.273135,,,,,0,98,98,112,1,,,,,,,,,,,,,,,,,,,,,,,,,,,,,,,,,,,,,,,,,,,,,,,,,,,,,,,,
,,,,,,,,,,,,a,Incorrect,,,,,,t5.png,t3.png,2,0.056466,19,Female,2020-09-23_15h09.59.392,torte-2b,2020.1.3,Win32,60,13438,0.980205,,,,,0,99,99,114,1,,,,,,,,,,,,,,,,,,,,,,,,,,,,,,,,,,,,,,,,,,,,,,,,,,,,,,,,
,,,,,,,,,,,,a,Correct!,,,,,,t5.png,t4.png,1,0.90025,19,Female,2020-09-23_15h09.59.392,torte-2b,2020.1.3,Win32,60,13438,0.750575,,,,,0,100,100,34,1,,,,,,,,,,,,,,,,,,,,,,,,,,,,,,,,,,,,,,,,,,,,,,,,,,,,,,,,
,,,,,,,,,,,,a,Correct!,,,,,,t3.png,t4.png,1,0.90855,19,Female,2020-09-23_15h09.59.392,torte-2b,2020.1.3,Win32,60,13438,0.824045,,,,,0,101,101,84,1,,,,,,,,,,,,,,,,,,,,,,,,,,,,,,,,,,,,,,,,,,,,,,,,,,,,,,,,
,,,,,,,,,,,,a,Correct!,,,,,,t2.png,t3.png,1,0.90855,19,Female,2020-09-23_15h09.59.392,torte-2b,2020.1.3,Win32,60,13438,0.930975,,,,,0,102,102,65,1,,,,,,,,,,,,,,,,,,,,,,,,,,,,,,,,,,,,,,,,,,,,,,,,,,,,,,,,
,,,,,,,,,,,,a,Incorrect,,,,,,t5.png,t2.png,3,0.0000131,19,Female,2020-09-23_15h09.59.392,torte-2b,2020.1.3,Win32,60,13438,1.364055,,,,,0,103,103,98,1,,,,,,,,,,,,,,,,,,,,,,,,,,,,,,,,,,,,,,,,,,,,,,,,,,,,,,,,
,,,,,,,,,,,,a,Incorrect,,,,,,t2.png,t5.png,3,0.0000131,19,Female,2020-09-23_15h09.59.392,torte-2b,2020.1.3,Win32,60,13438,0.901,,,,,0,104,104,104,1,,,,,,,,,,,,,,,,,,,,,,,,,,,,,,,,,,,,,,,,,,,,,,,,,,,,,,,,
,,,,,,,,,,,,a,Correct!,,,,,,t5.png,t4.png,1,0.9,19,Female,2020-09-23_15h09.59.392,torte-2b,2020.1.3,Win32,60,13438,0.90176,,,,,0,105,105,76,1,,,,,,,,,,,,,,,,,,,,,,,,,,,,,,,,,,,,,,,,,,,,,,,,,,,,,,,,
,,,,,,,,,,,,a,Incorrect,,,,,,t4.png,t1.png,3,0.0000131,19,Female,2020-09-23_15h09.59.392,torte-2b,2020.1.3,Win32,60,13438,1.237575,,,,,0,106,106,93,1,,,,,,,,,,,,,,,,,,,,,,,,,,,,,,,,,,,,,,,,,,,,,,,,,,,,,,,,
,,,,,,,,,,,,l,Correct!,,,,,,t2.png,t4.png,2,0.059078,19,Female,2020-09-23_15h09.59.392,torte-2b,2020.1.3,Win32,60,13438,1.36589,,,,,0,107,107,37,1,,,,,,,,,,,,,,,,,,,,,,,,,,,,,,,,,,,,,,,,,,,,,,,,,,,,,,,,
,,,,,,,,,,,,,Too slow :(,,,,,,t2.png,t1.png,1,0.90025,19,Female,2020-09-23_15h09.59.392,torte-2b,2020.1.3,Win32,60,13438,,,,,,0,108,108,62,1,,,,,,,,,,,,,,,,,,,,,,,,,,,,,,,,,,,,,,,,,,,,,,,,,,,,,,,,
,,,,,,,,,,,,a,Correct!,,,,,,t2.png,t2.png,0,0.98115,19,Female,2020-09-23_15h09.59.392,torte-2b,2020.1.3,Win32,60,13438,1.350245,,,,,0,109,109,7,1,,,,,,,,,,,,,,,,,,,,,,,,,,,,,,,,,,,,,,,,,,,,,,,,,,,,,,,,
,,,,,,,,,,,,l,Correct!,,,,,,t2.png,t4.png,2,0.059078,19,Female,2020-09-23_15h09.59.392,torte-2b,2020.1.3,Win32,60,13438,1.08799,,,,,0,110,110,24,1,,,,,,,,,,,,,,,,,,,,,,,,,,,,,,,,,,,,,,,,,,,,,,,,,,,,,,,,
,,,,,,,,,,,,l,Correct!,,,,,,t5.png,t1.png,4,9.55E-11,19,Female,2020-09-23_15h09.59.392,torte-2b,2020.1.3,Win32,60,13438,0.885085,,,,,0,111,111,22,1,,,,,,,,,,,,,,,,,,,,,,,,,,,,,,,,,,,,,,,,,,,,,,,,,,,,,,,,
,,,,,,,,,,,,a,Incorrect,,,,,,t3.png,t1.png,2,0.056466,19,Female,2020-09-23_15h09.59.392,torte-2b,2020.1.3,Win32,60,13438,0.78139,,,,,0,112,112,32,1,,,,,,,,,,,,,,,,,,,,,,,,,,,,,,,,,,,,,,,,,,,,,,,,,,,,,,,,
,,,,,,,,,,,,a,Correct!,,,,,,t4.png,t4.png,0,0.98115,19,Female,2020-09-23_15h09.59.392,torte-2b,2020.1.3,Win32,60,13438,1.014655,,,,,0,113,113,80,1,,,,,,,,,,,,,,,,,,,,,,,,,,,,,,,,,,,,,,,,,,,,,,,,,,,,,,,,
,,,,,,,,,,,,l,Correct!,,,,,,t2.png,t4.png,2,0.059078,19,Female,2020-09-23_15h09.59.392,torte-2b,2020.1.3,Win32,60,13438,1.224025,,,,,0,114,114,11,1,,,,,,,,,,,,,,,,,,,,,,,,,,,,,,,,,,,,,,,,,,,,,,,,,,,,,,,,
,,,,,,,,,,,,l,Correct!,,,,,,t5.png,t1.png,4,9.55E-11,19,Female,2020-09-23_15h09.59.392,torte-2b,2020.1.3,Win32,60,13438,0.8852,,,,,0,115,115,100,1,,,,,,,,,,,,,,,,,,,,,,,,,,,,,,,,,,,,,,,,,,,,,,,,,,,,,,,,
,,,,,,,,,,,,a,Incorrect,,,,,,t2.png,t5.png,3,0.0000131,19,Female,2020-09-23_15h09.59.392,torte-2b,2020.1.3,Win32,60,13438,0.867425,,,,,0,116,116,95,1,,,,,,,,,,,,,,,,,,,,,,,,,,,,,,,,,,,,,,,,,,,,,,,,,,,,,,,,
,,,,,,,,,,,,a,Incorrect,,,,,,t3.png,t5.png,2,0.056466,19,Female,2020-09-23_15h09.59.392,torte-2b,2020.1.3,Win32,60,13438,1.001485,,,,,0,117,117,44,1,,,,,,,,,,,,,,,,,,,,,,,,,,,,,,,,,,,,,,,,,,,,,,,,,,,,,,,,
,,,,,,,,,,,,a,Correct!,,,,,,t3.png,t4.png,1,0.909,19,Female,2020-09-23_15h09.59.392,torte-2b,2020.1.3,Win32,60,13438,1.11413,,,,,0,118,118,106,1,,,,,,,,,,,,,,,,,,,,,,,,,,,,,,,,,,,,,,,,,,,,,,,,,,,,,,,,
,,,,,,,,,,,,l,Correct!,,,,,,t5.png,t3.png,2,0.056466,19,Female,2020-09-23_15h09.59.392,torte-2b,2020.1.3,Win32,60,13438,1.4376,,,,,0,119,119,56,1,,,,,,,,,,,,,,,,,,,,,,,,,,,,,,,,,,,,,,,,,,,,,,,,,,,,,,,,
,,,,,,,,,,,,,,,,,,,,,,,19,Female,2020-09-23_15h09.59.392,torte-2b,2020.1.3,Win32,60,13438,,space,1.683085,,,,,,,,space,24.951215,,0,0,0,0,1,6,,,,,,,,,,,,,,,,,,,,,,,,,,,,,,,,,,,,,,,,,,,,,,,
,,,,,,,,,,,,,,,,,,,,,,,19,Female,2020-09-23_15h09.59.392,torte-2b,2020.1.3,Win32,60,13438,,,,,,,,,,,,,,0,1,1,1,1,7,,,,,,,,,,,,,,,,,,,,,,,,,,,,,,,,,,,,,,,,,,,,,,,
,,,,,,,,,,,,,,,,,,,,,,,19,Female,2020-09-23_15h09.59.392,torte-2b,2020.1.3,Win32,60,13438,,,,,,,,,,,,,space,0,2,2,2,1,6,0.51857,,,,,,,,,,,,,,,,,,,,,,,,,,,,,,,,,,,,,,,,,,,,,,
,,,,,,,,,,,,,,,,,,,,,,,19,Female,2020-09-23_15h09.59.392,torte-2b,2020.1.3,Win32,60,13438,,,,,,,,,,,,,space,0,3,3,3,1,7,0.518485,,,,,,,,,,,,,,,,,,,,,,,,,,,,,,,,,,,,,,,,,,,,,,
,,,,,,,,,,,,,,,,,,,,,,,19,Female,2020-09-23_15h09.59.392,torte-2b,2020.1.3,Win32,60,13438,,,,,,,,,,,,,,0,4,4,4,1,5,,,,,,,,,,,,,,,,,,,,,,,,,,,,,,,,,,,,,,,,,,,,,,,
,,,,,,,,,,,,,,,,,,,,,,,19,Female,2020-09-23_15h09.59.392,torte-2b,2020.1.3,Win32,60,13438,,,,,,,,,,,,,space,0,5,5,5,1,7,0.868325,,,,,,,,,,,,,,,,,,,,,,,,,,,,,,,,,,,,,,,,,,,,,,
,,,,,,,,,,,,,,,,,,,,,,,19,Female,2020-09-23_15h09.59.392,torte-2b,2020.1.3,Win32,60,13438,,,,,,,,,,,,,,0,6,6,6,1,2,,,,,,,,,,,,,,,,,,,,,,,,,,,,,,,,,,,,,,,,,,,,,,,
,,,,,,,,,,,,,,,,,,,,,,,19,Female,2020-09-23_15h09.59.392,torte-2b,2020.1.3,Win32,60,13438,,,,,,,,,,,,,,0,7,7,7,1,4,,,,,,,,,,,,,,,,,,,,,,,,,,,,,,,,,,,,,,,,,,,,,,,
,,,,,,,,,,,,,,,,,,,,,,,19,Female,2020-09-23_15h09.59.392,torte-2b,2020.1.3,Win32,60,13438,,,,,,,,,,,,,,0,8,8,8,1,7,,,,,,,,,,,,,,,,,,,,,,,,,,,,,,,,,,,,,,,,,,,,,,,
,,,,,,,,,,,,,,,,,,,,,,,19,Female,2020-09-23_15h09.59.392,torte-2b,2020.1.3,Win32,60,13438,,,,,,,,,,,,,space,0,9,9,9,1,4,0.53533,,,,,,,,,,,,,,,,,,,,,,,,,,,,,,,,,,,,,,,,,,,,,,
,,,,,,,,,,,,,,,,,,,,,,,19,Female,2020-09-23_15h09.59.392,torte-2b,2020.1.3,Win32,60,13438,,,,,,,,,,,,,,0,10,10,10,1,7,,,,,,,,,,,,,,,,,,,,,,,,,,,,,,,,,,,,,,,,,,,,,,,
,,,,,,,,,,,,,,,,,,,,,,,19,Female,2020-09-23_15h09.59.392,torte-2b,2020.1.3,Win32,60,13438,,,,,,,,,,,,,,0,11,11,11,1,7,,,,,,,,,,,,,,,,,,,,,,,,,,,,,,,,,,,,,,,,,,,,,,,
,,,,,,,,,,,,,,,,,,,,,,,19,Female,2020-09-23_15h09.59.392,torte-2b,2020.1.3,Win32,60,13438,,,,,,,,,,,,,,0,12,12,12,1,7,,,,,,,,,,,,,,,,,,,,,,,,,,,,,,,,,,,,,,,,,,,,,,,
,,,,,,,,,,,,,,,,,,,,,,,19,Female,2020-09-23_15h09.59.392,torte-2b,2020.1.3,Win32,60,13438,,,,,,,,,,,,,,0,13,13,13,1,4,,,,,,,,,,,,,,,,,,,,,,,,,,,,,,,,,,,,,,,,,,,,,,,
,,,,,,,,,,,,,,,,,,,,,,,19,Female,2020-09-23_15h09.59.392,torte-2b,2020.1.3,Win32,60,13438,,,,,,,,,,,,,,0,14,14,14,1,6,,,,,,,,,,,,,,,,,,,,,,,,,,,,,,,,,,,,,,,,,,,,,,,
,,,,,,,,,,,,,,,,,,,,,,,19,Female,2020-09-23_15h09.59.392,torte-2b,2020.1.3,Win32,60,13438,,,,,,,,,,,,,space,0,15,15,15,1,4,0.437665,,,,,,,,,,,,,,,,,,,,,,,,,,,,,,,,,,,,,,,,,,,,,,
,,,,,,,,,,,,,,,,,,,,,,,19,Female,2020-09-23_15h09.59.392,torte-2b,2020.1.3,Win32,60,13438,,,,,,,,,,,,,space,0,16,16,16,1,6,0.49301,,,,,,,,,,,,,,,,,,,,,,,,,,,,,,,,,,,,,,,,,,,,,,
,,,,,,,,,,,,,,,,,,,,,,,19,Female,2020-09-23_15h09.59.392,torte-2b,2020.1.3,Win32,60,13438,,,,,,,,,,,,,space,0,17,17,17,1,7,0.55563,,,,,,,,,,,,,,,,,,,,,,,,,,,,,,,,,,,,,,,,,,,,,,
,,,,,,,,,,,,,,,,,,,,,,,19,Female,2020-09-23_15h09.59.392,torte-2b,2020.1.3,Win32,60,13438,,,,,,,,,,,,,,0,18,18,18,1,6,,,,,,,,,,,,,,,,,,,,,,,,,,,,,,,,,,,,,,,,,,,,,,,
,,,,,,,,,,,,,,,,,,,,,,,19,Female,2020-09-23_15h09.59.392,torte-2b,2020.1.3,Win32,60,13438,,,,,,,,,,,,,,0,19,19,19,1,7,,,,,,,,,,,,,,,,,,,,,,,,,,,,,,,,,,,,,,,,,,,,,,,
,,,,,,,,,,,,,,,,,,,,,,,19,Female,2020-09-23_15h09.59.392,torte-2b,2020.1.3,Win32,60,13438,,,,,,,,,,,,,space,0,20,20,20,1,5,0.3045,,,,,,,,,,,,,,,,,,,,,,,,,,,,,,,,,,,,,,,,,,,,,,
,,,,,,,,,,,,,,,,,,,,,,,19,Female,2020-09-23_15h09.59.392,torte-2b,2020.1.3,Win32,60,13438,,,,,,,,,,,,,,0,21,21,21,1,1,,,,,,,,,,,,,,,,,,,,,,,,,,,,,,,,,,,,,,,,,,,,,,,
,,,,,,,,,,,,,,,,,,,,,,,19,Female,2020-09-23_15h09.59.392,torte-2b,2020.1.3,Win32,60,13438,,,,,,,,,,,,,,0,22,22,22,1,6,,,,,,,,,,,,,,,,,,,,,,,,,,,,,,,,,,,,,,,,,,,,,,,
,,,,,,,,,,,,,,,,,,,,,,,19,Female,2020-09-23_15h09.59.392,torte-2b,2020.1.3,Win32,60,13438,,,,,,,,,,,,,space,0,23,23,23,1,1,0.36929,,,,,,,,,,,,,,,,,,,,,,,,,,,,,,,,,,,,,,,,,,,,,,
,,,,,,,,,,,,,,,,,,,,,,,19,Female,2020-09-23_15h09.59.392,torte-2b,2020.1.3,Win32,60,13438,,,,,,,,,,,,,,0,24,24,24,1,5,,,,,,,,,,,,,,,,,,,,,,,,,,,,,,,,,,,,,,,,,,,,,,,
,,,,,,,,,,,,,,,,,,,,,,,19,Female,2020-09-23_15h09.59.392,torte-2b,2020.1.3,Win32,60,13438,,,,,,,,,,,,,,0,25,25,25,1,6,,,,,,,,,,,,,,,,,,,,,,,,,,,,,,,,,,,,,,,,,,,,,,,
,,,,,,,,,,,,,,,,,,,,,,,19,Female,2020-09-23_15h09.59.392,torte-2b,2020.1.3,Win32,60,13438,,,,,,,,,,,,,,0,26,26,26,1,6,,,,,,,,,,,,,,,,,,,,,,,,,,,,,,,,,,,,,,,,,,,,,,,
,,,,,,,,,,,,,,,,,,,,,,,19,Female,2020-09-23_15h09.59.392,torte-2b,2020.1.3,Win32,60,13438,,,,,,,,,,,,,space,0,27,27,27,1,6,0.420125,,,,,,,,,,,,,,,,,,,,,,,,,,,,,,,,,,,,,,,,,,,,,,
,,,,,,,,,,,,,,,,,,,,,,,19,Female,2020-09-23_15h09.59.392,torte-2b,2020.1.3,Win32,60,13438,,,,,,,,,,,,,,0,28,28,28,1,5,,,,,,,,,,,,,,,,,,,,,,,,,,,,,,,,,,,,,,,,,,,,,,,
,,,,,,,,,,,,,,,,,,,,,,,19,Female,2020-09-23_15h09.59.392,torte-2b,2020.1.3,Win32,60,13438,,,,,,,,,,,,,,0,29,29,29,1,2,,,,,,,,,,,,,,,,,,,,,,,,,,,,,,,,,,,,,,,,,,,,,,,
,,,,,,,,,,,,,,,,,,,,,,,19,Female,2020-09-23_15h09.59.392,torte-2b,2020.1.3,Win32,60,13438,,,,,,,,,,,,,space,0,30,30,30,1,5,0.82853,,,,,,,,,,,,,,,,,,,,,,,,,,,,,,,,,,,,,,,,,,,,,,
,,,,,,,,,,,,,,,,,,,,,,,19,Female,2020-09-23_15h09.59.392,torte-2b,2020.1.3,Win32,60,13438,,,,,,,,,,,,,space,0,31,31,31,1,2,0.73535,,,,,,,,,,,,,,,,,,,,,,,,,,,,,,,,,,,,,,,,,,,,,,
,,,,,,,,,,,,,,,,,,,,,,,19,Female,2020-09-23_15h09.59.392,torte-2b,2020.1.3,Win32,60,13438,,,,,,,,,,,,,space,0,32,32,32,1,5,0.68592,,,,,,,,,,,,,,,,,,,,,,,,,,,,,,,,,,,,,,,,,,,,,,
,,,,,,,,,,,,,,,,,,,,,,,19,Female,2020-09-23_15h09.59.392,torte-2b,2020.1.3,Win32,60,13438,,,,,,,,,,,,,,0,33,33,33,1,1,,,,,,,,,,,,,,,,,,,,,,,,,,,,,,,,,,,,,,,,,,,,,,,
,,,,,,,,,,,,,,,,,,,,,,,19,Female,2020-09-23_15h09.59.392,torte-2b,2020.1.3,Win32,60,13438,,,,,,,,,,,,,,0,34,34,34,1,1,,,,,,,,,,,,,,,,,,,,,,,,,,,,,,,,,,,,,,,,,,,,,,,
,,,,,,,,,,,,,,,,,,,,,,,19,Female,2020-09-23_15h09.59.392,torte-2b,2020.1.3,Win32,60,13438,,,,,,,,,,,,,,,,,,,2,,0,0,0,0,1,,,,,,,,,,,,,,,,,,,,,,,,,,,,,,,,,,,,,,,,,
,,,,,,,,,,,,,,,,,,,,,,,19,Female,2020-09-23_15h09.59.392,torte-2b,2020.1.3,Win32,60,13438,,,,,,,,,,,,,,,,,,,2,,0,1,1,1,1,,,,,,,,,,,,,,,,,,,,,,,,,,,,,,,,,,,,,,,,,
,,,,,,,,,,,,,,,,,,,,,,,19,Female,2020-09-23_15h09.59.392,torte-2b,2020.1.3,Win32,60,13438,,,,,,,,,,,,,,,,,,,6,,0,2,2,2,1,,,,,,,,,,,,,,,,,,,,,,,,,,,,,,,,,,,,,,,,,
,,,,,,,,,,,,,,,,,,,,,,,19,Female,2020-09-23_15h09.59.392,torte-2b,2020.1.3,Win32,60,13438,,,,,,,,,,,,,space,,,,,,2,0.324915,0,3,3,3,1,,,,,,,,,,,,,,,,,,,,,,,,,,,,,,,,,,,,,,,,,
,,,,,,,,,,,,,,,,,,,,,,,19,Female,2020-09-23_15h09.59.392,torte-2b,2020.1.3,Win32,60,13438,,,,,,,,,,,,,space,,,,,,6,0.421675,0,4,4,4,1,,,,,,,,,,,,,,,,,,,,,,,,,,,,,,,,,,,,,,,,,
,,,,,,,,,,,,,,,,,,,,,,,19,Female,2020-09-23_15h09.59.392,torte-2b,2020.1.3,Win32,60,13438,,,,,,,,,,,,,space,,,,,,2,0.45261,0,5,5,5,1,,,,,,,,,,,,,,,,,,,,,,,,,,,,,,,,,,,,,,,,,
,,,,,,,,,,,,,,,,,,,,,,,19,Female,2020-09-23_15h09.59.392,torte-2b,2020.1.3,Win32,60,13438,,,,,,,,,,,,,,,,,,,7,,0,6,6,6,1,,,,,,,,,,,,,,,,,,,,,,,,,,,,,,,,,,,,,,,,,
,,,,,,,,,,,,,,,,,,,,,,,19,Female,2020-09-23_15h09.59.392,torte-2b,2020.1.3,Win32,60,13438,,,,,,,,,,,,,space,,,,,,2,0.33853,0,7,7,7,1,,,,,,,,,,,,,,,,,,,,,,,,,,,,,,,,,,,,,,,,,
,,,,,,,,,,,,,,,,,,,,,,,19,Female,2020-09-23_15h09.59.392,torte-2b,2020.1.3,Win32,60,13438,,,,,,,,,,,,,space,,,,,,7,0.42565,0,8,8,8,1,,,,,,,,,,,,,,,,,,,,,,,,,,,,,,,,,,,,,,,,,
,,,,,,,,,,,,,,,,,,,,,,,19,Female,2020-09-23_15h09.59.392,torte-2b,2020.1.3,Win32,60,13438,,,,,,,,,,,,,space,,,,,,2,0.37493,0,9,9,9,1,,,,,,,,,,,,,,,,,,,,,,,,,,,,,,,,,,,,,,,,,
,,,,,,,,,,,,,,,,,,,,,,,19,Female,2020-09-23_15h09.59.392,torte-2b,2020.1.3,Win32,60,13438,,,,,,,,,,,,,,,,,,,5,,0,10,10,10,1,,,,,,,,,,,,,,,,,,,,,,,,,,,,,,,,,,,,,,,,,
,,,,,,,,,,,,,,,,,,,,,,,19,Female,2020-09-23_15h09.59.392,torte-2b,2020.1.3,Win32,60,13438,,,,,,,,,,,,,,,,,,,4,,0,11,11,11,1,,,,,,,,,,,,,,,,,,,,,,,,,,,,,,,,,,,,,,,,,
,,,,,,,,,,,,,,,,,,,,,,,19,Female,2020-09-23_15h09.59.392,torte-2b,2020.1.3,Win32,60,13438,,,,,,,,,,,,,space,,,,,,5,0.37303,0,12,12,12,1,,,,,,,,,,,,,,,,,,,,,,,,,,,,,,,,,,,,,,,,,
,,,,,,,,,,,,,,,,,,,,,,,19,Female,2020-09-23_15h09.59.392,torte-2b,2020.1.3,Win32,60,13438,,,,,,,,,,,,,,,,,,,6,,0,13,13,13,1,,,,,,,,,,,,,,,,,,,,,,,,,,,,,,,,,,,,,,,,,
,,,,,,,,,,,,,,,,,,,,,,,19,Female,2020-09-23_15h09.59.392,torte-2b,2020.1.3,Win32,60,13438,,,,,,,,,,,,,space,,,,,,5,0.6607,0,14,14,14,1,,,,,,,,,,,,,,,,,,,,,,,,,,,,,,,,,,,,,,,,,
,,,,,,,,,,,,,,,,,,,,,,,19,Female,2020-09-23_15h09.59.392,torte-2b,2020.1.3,Win32,60,13438,,,,,,,,,,,,,,,,,,,4,,0,15,15,15,1,,,,,,,,,,,,,,,,,,,,,,,,,,,,,,,,,,,,,,,,,
,,,,,,,,,,,,,,,,,,,,,,,19,Female,2020-09-23_15h09.59.392,torte-2b,2020.1.3,Win32,60,13438,,,,,,,,,,,,,space,,,,,,5,0.61237,0,16,16,16,1,,,,,,,,,,,,,,,,,,,,,,,,,,,,,,,,,,,,,,,,,
,,,,,,,,,,,,,,,,,,,,,,,19,Female,2020-09-23_15h09.59.392,torte-2b,2020.1.3,Win32,60,13438,,,,,,,,,,,,,,,,,,,3,,0,17,17,17,1,,,,,,,,,,,,,,,,,,,,,,,,,,,,,,,,,,,,,,,,,
,,,,,,,,,,,,,,,,,,,,,,,19,Female,2020-09-23_15h09.59.392,torte-2b,2020.1.3,Win32,60,13438,,,,,,,,,,,,,,,,,,,6,,0,18,18,18,1,,,,,,,,,,,,,,,,,,,,,,,,,,,,,,,,,,,,,,,,,
,,,,,,,,,,,,,,,,,,,,,,,19,Female,2020-09-23_15h09.59.392,torte-2b,2020.1.3,Win32,60,13438,,,,,,,,,,,,,,,,,,,6,,0,19,19,19,1,,,,,,,,,,,,,,,,,,,,,,,,,,,,,,,,,,,,,,,,,
,,,,,,,,,,,,,,,,,,,,,,,19,Female,2020-09-23_15h09.59.392,torte-2b,2020.1.3,Win32,60,13438,,,,,,,,,,,,,space,,,,,,6,0.45827,0,20,20,20,1,,,,,,,,,,,,,,,,,,,,,,,,,,,,,,,,,,,,,,,,,
,,,,,,,,,,,,,,,,,,,,,,,19,Female,2020-09-23_15h09.59.392,torte-2b,2020.1.3,Win32,60,13438,,,,,,,,,,,,,,,,,,,4,,0,21,21,21,1,,,,,,,,,,,,,,,,,,,,,,,,,,,,,,,,,,,,,,,,,
,,,,,,,,,,,,,,,,,,,,,,,19,Female,2020-09-23_15h09.59.392,torte-2b,2020.1.3,Win32,60,13438,,,,,,,,,,,,,space,,,,,,6,0.45363,0,22,22,22,1,,,,,,,,,,,,,,,,,,,,,,,,,,,,,,,,,,,,,,,,,
,,,,,,,,,,,,,,,,,,,,,,,19,Female,2020-09-23_15h09.59.392,torte-2b,2020.1.3,Win32,60,13438,,,,,,,,,,,,,space,,,,,,4,0.4186,0,23,23,23,1,,,,,,,,,,,,,,,,,,,,,,,,,,,,,,,,,,,,,,,,,
,,,,,,,,,,,,,,,,,,,,,,,19,Female,2020-09-23_15h09.59.392,torte-2b,2020.1.3,Win32,60,13438,,,,,,,,,,,,,space,,,,,,6,0.468515,0,24,24,24,1,,,,,,,,,,,,,,,,,,,,,,,,,,,,,,,,,,,,,,,,,
,,,,,,,,,,,,,,,,,,,,,,,19,Female,2020-09-23_15h09.59.392,torte-2b,2020.1.3,Win32,60,13438,,,,,,,,,,,,,,,,,,,6,,0,25,25,25,1,,,,,,,,,,,,,,,,,,,,,,,,,,,,,,,,,,,,,,,,,
,,,,,,,,,,,,,,,,,,,,,,,19,Female,2020-09-23_15h09.59.392,torte-2b,2020.1.3,Win32,60,13438,,,,,,,,,,,,,,,,,,,7,,0,26,26,26,1,,,,,,,,,,,,,,,,,,,,,,,,,,,,,,,,,,,,,,,,,
,,,,,,,,,,,,,,,,,,,,,,,19,Female,2020-09-23_15h09.59.392,torte-2b,2020.1.3,Win32,60,13438,,,,,,,,,,,,,,,,,,,1,,0,27,27,27,1,,,,,,,,,,,,,,,,,,,,,,,,,,,,,,,,,,,,,,,,,
,,,,,,,,,,,,,,,,,,,,,,,19,Female,2020-09-23_15h09.59.392,torte-2b,2020.1.3,Win32,60,13438,,,,,,,,,,,,,space,,,,,,7,0.85132,0,28,28,28,1,,,,,,,,,,,,,,,,,,,,,,,,,,,,,,,,,,,,,,,,,
,,,,,,,,,,,,,,,,,,,,,,,19,Female,2020-09-23_15h09.59.392,torte-2b,2020.1.3,Win32,60,13438,,,,,,,,,,,,,,,,,,,4,,0,29,29,29,1,,,,,,,,,,,,,,,,,,,,,,,,,,,,,,,,,,,,,,,,,
,,,,,,,,,,,,,,,,,,,,,,,19,Female,2020-09-23_15h09.59.392,torte-2b,2020.1.3,Win32,60,13438,,,,,,,,,,,,,,,,,,,7,,0,30,30,30,1,,,,,,,,,,,,,,,,,,,,,,,,,,,,,,,,,,,,,,,,,
,,,,,,,,,,,,,,,,,,,,,,,19,Female,2020-09-23_15h09.59.392,torte-2b,2020.1.3,Win32,60,13438,,,,,,,,,,,,,,,,,,,3,,0,31,31,31,1,,,,,,,,,,,,,,,,,,,,,,,,,,,,,,,,,,,,,,,,,
,,,,,,,,,,,,,,,,,,,,,,,19,Female,2020-09-23_15h09.59.392,torte-2b,2020.1.3,Win32,60,13438,,,,,,,,,,,,,,,,,,,2,,0,32,32,32,1,,,,,,,,,,,,,,,,,,,,,,,,,,,,,,,,,,,,,,,,,
,,,,,,,,,,,,,,,,,,,,,,,19,Female,2020-09-23_15h09.59.392,torte-2b,2020.1.3,Win32,60,13438,,,,,,,,,,,,,,,,,,,6,,0,33,33,33,1,,,,,,,,,,,,,,,,,,,,,,,,,,,,,,,,,,,,,,,,,
,,,,,,,,,,,,,,,,,,,,,,,19,Female,2020-09-23_15h09.59.392,torte-2b,2020.1.3,Win32,60,13438,,,,,,,,,,,,,,,,,,,3,,0,34,34,34,1,,,,,,,,,,,,,,,,,,,,,,,,,,,,,,,,,,,,,,,,,
,,,,,,,,,,,,,,,,,,,,,,,19,Female,2020-09-23_15h09.59.392,torte-2b,2020.1.3,Win32,60,13438,,,,,,,,,,,,,,,,,,,7,,,,,,,0,0,0,0,1,,,,,,,,,,,,,,,,,,,,,,,,,,,,,,,,,,,,
,,,,,,,,,,,,,,,,,,,,,,,19,Female,2020-09-23_15h09.59.392,torte-2b,2020.1.3,Win32,60,13438,,,,,,,,,,,,,,,,,,,5,,,,,,,0,1,1,1,1,,,,,,,,,,,,,,,,,,,,,,,,,,,,,,,,,,,,
,,,,,,,,,,,,,,,,,,,,,,,19,Female,2020-09-23_15h09.59.392,torte-2b,2020.1.3,Win32,60,13438,,,,,,,,,,,,,,,,,,,4,,,,,,,0,2,2,2,1,,,,,,,,,,,,,,,,,,,,,,,,,,,,,,,,,,,,
,,,,,,,,,,,,,,,,,,,,,,,19,Female,2020-09-23_15h09.59.392,torte-2b,2020.1.3,Win32,60,13438,,,,,,,,,,,,,space,,,,,,5,0.468695,,,,,,0,3,3,3,1,,,,,,,,,,,,,,,,,,,,,,,,,,,,,,,,,,,,
,,,,,,,,,,,,,,,,,,,,,,,19,Female,2020-09-23_15h09.59.392,torte-2b,2020.1.3,Win32,60,13438,,,,,,,,,,,,,,,,,,,6,,,,,,,0,4,4,4,1,,,,,,,,,,,,,,,,,,,,,,,,,,,,,,,,,,,,
,,,,,,,,,,,,,,,,,,,,,,,19,Female,2020-09-23_15h09.59.392,torte-2b,2020.1.3,Win32,60,13438,,,,,,,,,,,,,space,,,,,,5,0.485125,,,,,,0,5,5,5,1,,,,,,,,,,,,,,,,,,,,,,,,,,,,,,,,,,,,
,,,,,,,,,,,,,,,,,,,,,,,19,Female,2020-09-23_15h09.59.392,torte-2b,2020.1.3,Win32,60,13438,,,,,,,,,,,,,,,,,,,3,,,,,,,0,6,6,6,1,,,,,,,,,,,,,,,,,,,,,,,,,,,,,,,,,,,,
,,,,,,,,,,,,,,,,,,,,,,,19,Female,2020-09-23_15h09.59.392,torte-2b,2020.1.3,Win32,60,13438,,,,,,,,,,,,,,,,,,,4,,,,,,,0,7,7,7,1,,,,,,,,,,,,,,,,,,,,,,,,,,,,,,,,,,,,
,,,,,,,,,,,,,,,,,,,,,,,19,Female,2020-09-23_15h09.59.392,torte-2b,2020.1.3,Win32,60,13438,,,,,,,,,,,,,space,,,,,,3,0.51841,,,,,,0,8,8,8,1,,,,,,,,,,,,,,,,,,,,,,,,,,,,,,,,,,,,
,,,,,,,,,,,,,,,,,,,,,,,19,Female,2020-09-23_15h09.59.392,torte-2b,2020.1.3,Win32,60,13438,,,,,,,,,,,,,,,,,,,1,,,,,,,0,9,9,9,1,,,,,,,,,,,,,,,,,,,,,,,,,,,,,,,,,,,,
,,,,,,,,,,,,,,,,,,,,,,,19,Female,2020-09-23_15h09.59.392,torte-2b,2020.1.3,Win32,60,13438,,,,,,,,,,,,,,,,,,,2,,,,,,,0,10,10,10,1,,,,,,,,,,,,,,,,,,,,,,,,,,,,,,,,,,,,
,,,,,,,,,,,,,,,,,,,,,,,19,Female,2020-09-23_15h09.59.392,torte-2b,2020.1.3,Win32,60,13438,,,,,,,,,,,,,space,,,,,,1,0.435345,,,,,,0,11,11,11,1,,,,,,,,,,,,,,,,,,,,,,,,,,,,,,,,,,,,
,,,,,,,,,,,,,,,,,,,,,,,19,Female,2020-09-23_15h09.59.392,torte-2b,2020.1.3,Win32,60,13438,,,,,,,,,,,,,space,,,,,,2,0.60249,,,,,,0,12,12,12,1,,,,,,,,,,,,,,,,,,,,,,,,,,,,,,,,,,,,
,,,,,,,,,,,,,,,,,,,,,,,19,Female,2020-09-23_15h09.59.392,torte-2b,2020.1.3,Win32,60,13438,,,,,,,,,,,,,space,,,,,,1,0.518375,,,,,,0,13,13,13,1,,,,,,,,,,,,,,,,,,,,,,,,,,,,,,,,,,,,
,,,,,,,,,,,,,,,,,,,,,,,19,Female,2020-09-23_15h09.59.392,torte-2b,2020.1.3,Win32,60,13438,,,,,,,,,,,,,,,,,,,3,,,,,,,0,14,14,14,1,,,,,,,,,,,,,,,,,,,,,,,,,,,,,,,,,,,,
,,,,,,,,,,,,,,,,,,,,,,,19,Female,2020-09-23_15h09.59.392,torte-2b,2020.1.3,Win32,60,13438,,,,,,,,,,,,,space,,,,,,1,0.627645,,,,,,0,15,15,15,1,,,,,,,,,,,,,,,,,,,,,,,,,,,,,,,,,,,,
,,,,,,,,,,,,,,,,,,,,,,,19,Female,2020-09-23_15h09.59.392,torte-2b,2020.1.3,Win32,60,13438,,,,,,,,,,,,,,,,,,,7,,,,,,,0,16,16,16,1,,,,,,,,,,,,,,,,,,,,,,,,,,,,,,,,,,,,
,,,,,,,,,,,,,,,,,,,,,,,19,Female,2020-09-23_15h09.59.392,torte-2b,2020.1.3,Win32,60,13438,,,,,,,,,,,,,,,,,,,7,,,,,,,0,17,17,17,1,,,,,,,,,,,,,,,,,,,,,,,,,,,,,,,,,,,,
,,,,,,,,,,,,,,,,,,,,,,,19,Female,2020-09-23_15h09.59.392,torte-2b,2020.1.3,Win32,60,13438,,,,,,,,,,,,,,,,,,,4,,,,,,,0,18,18,18,1,,,,,,,,,,,,,,,,,,,,,,,,,,,,,,,,,,,,
,,,,,,,,,,,,,,,,,,,,,,,19,Female,2020-09-23_15h09.59.392,torte-2b,2020.1.3,Win32,60,13438,,,,,,,,,,,,,space,,,,,,7,0.40225,,,,,,0,19,19,19,1,,,,,,,,,,,,,,,,,,,,,,,,,,,,,,,,,,,,
,,,,,,,,,,,,,,,,,,,,,,,19,Female,2020-09-23_15h09.59.392,torte-2b,2020.1.3,Win32,60,13438,,,,,,,,,,,,,,,,,,,3,,,,,,,0,20,20,20,1,,,,,,,,,,,,,,,,,,,,,,,,,,,,,,,,,,,,
,,,,,,,,,,,,,,,,,,,,,,,19,Female,2020-09-23_15h09.59.392,torte-2b,2020.1.3,Win32,60,13438,,,,,,,,,,,,,space,,,,,,7,0.45264,,,,,,0,21,21,21,1,,,,,,,,,,,,,,,,,,,,,,,,,,,,,,,,,,,,
,,,,,,,,,,,,,,,,,,,,,,,19,Female,2020-09-23_15h09.59.392,torte-2b,2020.1.3,Win32,60,13438,,,,,,,,,,,,,space,,,,,,3,0.52158,,,,,,0,22,22,22,1,,,,,,,,,,,,,,,,,,,,,,,,,,,,,,,,,,,,
,,,,,,,,,,,,,,,,,,,,,,,19,Female,2020-09-23_15h09.59.392,torte-2b,2020.1.3,Win32,60,13438,,,,,,,,,,,,,,,,,,,1,,,,,,,0,23,23,23,1,,,,,,,,,,,,,,,,,,,,,,,,,,,,,,,,,,,,
,,,,,,,,,,,,,,,,,,,,,,,19,Female,2020-09-23_15h09.59.392,torte-2b,2020.1.3,Win32,60,13438,,,,,,,,,,,,,,,,,,,6,,,,,,,0,24,24,24,1,,,,,,,,,,,,,,,,,,,,,,,,,,,,,,,,,,,,
,,,,,,,,,,,,,,,,,,,,,,,19,Female,2020-09-23_15h09.59.392,torte-2b,2020.1.3,Win32,60,13438,,,,,,,,,,,,,,,,,,,3,,,,,,,0,25,25,25,1,,,,,,,,,,,,,,,,,,,,,,,,,,,,,,,,,,,,
,,,,,,,,,,,,,,,,,,,,,,,19,Female,2020-09-23_15h09.59.392,torte-2b,2020.1.3,Win32,60,13438,,,,,,,,,,,,,,,,,,,2,,,,,,,0,26,26,26,1,,,,,,,,,,,,,,,,,,,,,,,,,,,,,,,,,,,,
,,,,,,,,,,,,,,,,,,,,,,,19,Female,2020-09-23_15h09.59.392,torte-2b,2020.1.3,Win32,60,13438,,,,,,,,,,,,,space,,,,,,3,0.668385,,,,,,0,27,27,27,1,,,,,,,,,,,,,,,,,,,,,,,,,,,,,,,,,,,,
,,,,,,,,,,,,,,,,,,,,,,,19,Female,2020-09-23_15h09.59.392,torte-2b,2020.1.3,Win32,60,13438,,,,,,,,,,,,,,,,,,,1,,,,,,,0,28,28,28,1,,,,,,,,,,,,,,,,,,,,,,,,,,,,,,,,,,,,
,,,,,,,,,,,,,,,,,,,,,,,19,Female,2020-09-23_15h09.59.392,torte-2b,2020.1.3,Win32,60,13438,,,,,,,,,,,,,,,,,,,3,,,,,,,0,29,29,29,1,,,,,,,,,,,,,,,,,,,,,,,,,,,,,,,,,,,,
,,,,,,,,,,,,,,,,,,,,,,,19,Female,2020-09-23_15h09.59.392,torte-2b,2020.1.3,Win32,60,13438,,,,,,,,,,,,,space,,,,,,1,0.50158,,,,,,0,30,30,30,1,,,,,,,,,,,,,,,,,,,,,,,,,,,,,,,,,,,,
,,,,,,,,,,,,,,,,,,,,,,,19,Female,2020-09-23_15h09.59.392,torte-2b,2020.1.3,Win32,60,13438,,,,,,,,,,,,,,,,,,,7,,,,,,,0,31,31,31,1,,,,,,,,,,,,,,,,,,,,,,,,,,,,,,,,,,,,
,,,,,,,,,,,,,,,,,,,,,,,19,Female,2020-09-23_15h09.59.392,torte-2b,2020.1.3,Win32,60,13438,,,,,,,,,,,,,,,,,,,5,,,,,,,0,32,32,32,1,,,,,,,,,,,,,,,,,,,,,,,,,,,,,,,,,,,,
,,,,,,,,,,,,,,,,,,,,,,,19,Female,2020-09-23_15h09.59.392,torte-2b,2020.1.3,Win32,60,13438,,,,,,,,,,,,,space,,,,,,7,0.401475,,,,,,0,33,33,33,1,,,,,,,,,,,,,,,,,,,,,,,,,,,,,,,,,,,,
,,,,,,,,,,,,,,,,,,,,,,,19,Female,2020-09-23_15h09.59.392,torte-2b,2020.1.3,Win32,60,13438,,,,,,,,,,,,,,,,,,,2,,,,,,,0,34,34,34,1,,,,,,,,,,,,,,,,,,,,,,,,,,,,,,,,,,,,
,,,,,,,,,,,,,,,,,,,,,,,19,Female,2020-09-23_15h09.59.392,torte-2b,2020.1.3,Win32,60,13438,,,,,,,,,,,,,,,,,,,3,,,,,,,,,,,,0,0,0,0,1,,,,,,,,,,,,,,,,,,,,,,,,,,,,,,,
,,,,,,,,,,,,,,,,,,,,,,,19,Female,2020-09-23_15h09.59.392,torte-2b,2020.1.3,Win32,60,13438,,,,,,,,,,,,,,,,,,,7,,,,,,,,,,,,0,1,1,1,1,,,,,,,,,,,,,,,,,,,,,,,,,,,,,,,
,,,,,,,,,,,,,,,,,,,,,,,19,Female,2020-09-23_15h09.59.392,torte-2b,2020.1.3,Win32,60,13438,,,,,,,,,,,,,,,,,,,7,,,,,,,,,,,,0,2,2,2,1,,,,,,,,,,,,,,,,,,,,,,,,,,,,,,,
,,,,,,,,,,,,,,,,,,,,,,,19,Female,2020-09-23_15h09.59.392,torte-2b,2020.1.3,Win32,60,13438,,,,,,,,,,,,,,,,,,,4,,,,,,,,,,,,0,3,3,3,1,,,,,,,,,,,,,,,,,,,,,,,,,,,,,,,
,,,,,,,,,,,,,,,,,,,,,,,19,Female,2020-09-23_15h09.59.392,torte-2b,2020.1.3,Win32,60,13438,,,,,,,,,,,,,,,,,,,5,,,,,,,,,,,,0,4,4,4,1,,,,,,,,,,,,,,,,,,,,,,,,,,,,,,,
,,,,,,,,,,,,,,,,,,,,,,,19,Female,2020-09-23_15h09.59.392,torte-2b,2020.1.3,Win32,60,13438,,,,,,,,,,,,,space,,,,,,4,0.44291,,,,,,,,,,,0,5,5,5,1,,,,,,,,,,,,,,,,,,,,,,,,,,,,,,,
,,,,,,,,,,,,,,,,,,,,,,,19,Female,2020-09-23_15h09.59.392,torte-2b,2020.1.3,Win32,60,13438,,,,,,,,,,,,,,,,,,,2,,,,,,,,,,,,0,6,6,6,1,,,,,,,,,,,,,,,,,,,,,,,,,,,,,,,
,,,,,,,,,,,,,,,,,,,,,,,19,Female,2020-09-23_15h09.59.392,torte-2b,2020.1.3,Win32,60,13438,,,,,,,,,,,,,space,,,,,,4,0.597995,,,,,,,,,,,0,7,7,7,1,,,,,,,,,,,,,,,,,,,,,,,,,,,,,,,
,,,,,,,,,,,,,,,,,,,,,,,19,Female,2020-09-23_15h09.59.392,torte-2b,2020.1.3,Win32,60,13438,,,,,,,,,,,,,space,,,,,,2,0.516265,,,,,,,,,,,0,8,8,8,1,,,,,,,,,,,,,,,,,,,,,,,,,,,,,,,
,,,,,,,,,,,,,,,,,,,,,,,19,Female,2020-09-23_15h09.59.392,torte-2b,2020.1.3,Win32,60,13438,,,,,,,,,,,,,,,,,,,2,,,,,,,,,,,,0,9,9,9,1,,,,,,,,,,,,,,,,,,,,,,,,,,,,,,,
,,,,,,,,,,,,,,,,,,,,,,,19,Female,2020-09-23_15h09.59.392,torte-2b,2020.1.3,Win32,60,13438,,,,,,,,,,,,,,,,,,,6,,,,,,,,,,,,0,10,10,10,1,,,,,,,,,,,,,,,,,,,,,,,,,,,,,,,
,,,,,,,,,,,,,,,,,,,,,,,19,Female,2020-09-23_15h09.59.392,torte-2b,2020.1.3,Win32,60,13438,,,,,,,,,,,,,space,,,,,,2,0.61311,,,,,,,,,,,0,11,11,11,1,,,,,,,,,,,,,,,,,,,,,,,,,,,,,,,
,,,,,,,,,,,,,,,,,,,,,,,19,Female,2020-09-23_15h09.59.392,torte-2b,2020.1.3,Win32,60,13438,,,,,,,,,,,,,,,,,,,2,,,,,,,,,,,,0,12,12,12,1,,,,,,,,,,,,,,,,,,,,,,,,,,,,,,,
,,,,,,,,,,,,,,,,,,,,,,,19,Female,2020-09-23_15h09.59.392,torte-2b,2020.1.3,Win32,60,13438,,,,,,,,,,,,,space,,,,,,2,0.437525,,,,,,,,,,,0,13,13,13,1,,,,,,,,,,,,,,,,,,,,,,,,,,,,,,,
,,,,,,,,,,,,,,,,,,,,,,,19,Female,2020-09-23_15h09.59.392,torte-2b,2020.1.3,Win32,60,13438,,,,,,,,,,,,,space,,,,,,2,0.494605,,,,,,,,,,,0,14,14,14,1,,,,,,,,,,,,,,,,,,,,,,,,,,,,,,,
,,,,,,,,,,,,,,,,,,,,,,,19,Female,2020-09-23_15h09.59.392,torte-2b,2020.1.3,Win32,60,13438,,,,,,,,,,,,,,,,,,,4,,,,,,,,,,,,0,15,15,15,1,,,,,,,,,,,,,,,,,,,,,,,,,,,,,,,
,,,,,,,,,,,,,,,,,,,,,,,19,Female,2020-09-23_15h09.59.392,torte-2b,2020.1.3,Win32,60,13438,,,,,,,,,,,,,,,,,,,3,,,,,,,,,,,,0,16,16,16,1,,,,,,,,,,,,,,,,,,,,,,,,,,,,,,,
,,,,,,,,,,,,,,,,,,,,,,,19,Female,2020-09-23_15h09.59.392,torte-2b,2020.1.3,Win32,60,13438,,,,,,,,,,,,,,,,,,,7,,,,,,,,,,,,0,17,17,17,1,,,,,,,,,,,,,,,,,,,,,,,,,,,,,,,
,,,,,,,,,,,,,,,,,,,,,,,19,Female,2020-09-23_15h09.59.392,torte-2b,2020.1.3,Win32,60,13438,,,,,,,,,,,,,,,,,,,4,,,,,,,,,,,,0,18,18,18,1,,,,,,,,,,,,,,,,,,,,,,,,,,,,,,,
,,,,,,,,,,,,,,,,,,,,,,,19,Female,2020-09-23_15h09.59.392,torte-2b,2020.1.3,Win32,60,13438,,,,,,,,,,,,,space,,,,,,7,0.36456,,,,,,,,,,,0,19,19,19,1,,,,,,,,,,,,,,,,,,,,,,,,,,,,,,,
,,,,,,,,,,,,,,,,,,,,,,,19,Female,2020-09-23_15h09.59.392,torte-2b,2020.1.3,Win32,60,13438,,,,,,,,,,,,,,,,,,,7,,,,,,,,,,,,0,20,20,20,1,,,,,,,,,,,,,,,,,,,,,,,,,,,,,,,
,,,,,,,,,,,,,,,,,,,,,,,19,Female,2020-09-23_15h09.59.392,torte-2b,2020.1.3,Win32,60,13438,,,,,,,,,,,,,space,,,,,,7,0.50107,,,,,,,,,,,0,21,21,21,1,,,,,,,,,,,,,,,,,,,,,,,,,,,,,,,
,,,,,,,,,,,,,,,,,,,,,,,19,Female,2020-09-23_15h09.59.392,torte-2b,2020.1.3,Win32,60,13438,,,,,,,,,,,,,space,,,,,,7,0.451975,,,,,,,,,,,0,22,22,22,1,,,,,,,,,,,,,,,,,,,,,,,,,,,,,,,
,,,,,,,,,,,,,,,,,,,,,,,19,Female,2020-09-23_15h09.59.392,torte-2b,2020.1.3,Win32,60,13438,,,,,,,,,,,,,,,,,,,1,,,,,,,,,,,,0,23,23,23,1,,,,,,,,,,,,,,,,,,,,,,,,,,,,,,,
,,,,,,,,,,,,,,,,,,,,,,,19,Female,2020-09-23_15h09.59.392,torte-2b,2020.1.3,Win32,60,13438,,,,,,,,,,,,,space,,,,,,7,0.569795,,,,,,,,,,,0,24,24,24,1,,,,,,,,,,,,,,,,,,,,,,,,,,,,,,,
,,,,,,,,,,,,,,,,,,,,,,,19,Female,2020-09-23_15h09.59.392,torte-2b,2020.1.3,Win32,60,13438,,,,,,,,,,,,,space,,,,,,1,0.415625,,,,,,,,,,,0,25,25,25,1,,,,,,,,,,,,,,,,,,,,,,,,,,,,,,,
,,,,,,,,,,,,,,,,,,,,,,,19,Female,2020-09-23_15h09.59.392,torte-2b,2020.1.3,Win32,60,13438,,,,,,,,,,,,,space,,,,,,7,0.51653,,,,,,,,,,,0,26,26,26,1,,,,,,,,,,,,,,,,,,,,,,,,,,,,,,,
,,,,,,,,,,,,,,,,,,,,,,,19,Female,2020-09-23_15h09.59.392,torte-2b,2020.1.3,Win32,60,13438,,,,,,,,,,,,,,,,,,,2,,,,,,,,,,,,0,27,27,27,1,,,,,,,,,,,,,,,,,,,,,,,,,,,,,,,
,,,,,,,,,,,,,,,,,,,,,,,19,Female,2020-09-23_15h09.59.392,torte-2b,2020.1.3,Win32,60,13438,,,,,,,,,,,,,,,,,,,5,,,,,,,,,,,,0,28,28,28,1,,,,,,,,,,,,,,,,,,,,,,,,,,,,,,,
,,,,,,,,,,,,,,,,,,,,,,,19,Female,2020-09-23_15h09.59.392,torte-2b,2020.1.3,Win32,60,13438,,,,,,,,,,,,,,,,,,,5,,,,,,,,,,,,0,29,29,29,1,,,,,,,,,,,,,,,,,,,,,,,,,,,,,,,
,,,,,,,,,,,,,,,,,,,,,,,19,Female,2020-09-23_15h09.59.392,torte-2b,2020.1.3,Win32,60,13438,,,,,,,,,,,,,space,,,,,,5,0.416955,,,,,,,,,,,0,30,30,30,1,,,,,,,,,,,,,,,,,,,,,,,,,,,,,,,
,,,,,,,,,,,,,,,,,,,,,,,19,Female,2020-09-23_15h09.59.392,torte-2b,2020.1.3,Win32,60,13438,,,,,,,,,,,,,,,,,,,1,,,,,,,,,,,,0,31,31,31,1,,,,,,,,,,,,,,,,,,,,,,,,,,,,,,,
,,,,,,,,,,,,,,,,,,,,,,,19,Female,2020-09-23_15h09.59.392,torte-2b,2020.1.3,Win32,60,13438,,,,,,,,,,,,,space,,,,,,5,0.6127,,,,,,,,,,,0,32,32,32,1,,,,,,,,,,,,,,,,,,,,,,,,,,,,,,,
,,,,,,,,,,,,,,,,,,,,,,,19,Female,2020-09-23_15h09.59.392,torte-2b,2020.1.3,Win32,60,13438,,,,,,,,,,,,,,,,,,,3,,,,,,,,,,,,0,33,33,33,1,,,,,,,,,,,,,,,,,,,,,,,,,,,,,,,
,,,,,,,,,,,,,,,,,,,,,,,19,Female,2020-09-23_15h09.59.392,torte-2b,2020.1.3,Win32,60,13438,,,,,,,,,,,,,,,,,,,3,,,,,,,,,,,,0,34,34,34,1,,,,,,,,,,,,,,,,,,,,,,,,,,,,,,,
,,,,,,,,,,,,l,Correct!,,,,,,t5.png,t1.png,4,9.55E-11,19,Female,2020-09-23_15h09.59.392,torte-2b,2020.1.3,Win32,60,13438,1.317955,space,1.648135,,,,,,,,,,,,,,,,,,,,,,,,,,,,,,,,,space,11.623895,0,0,0,43,1,,,,,,,,,,,,,,,,,,,,,,,,
,,,,,,,,,,,,l,Correct!,,,,,,t5.png,t3.png,2,0.056466,19,Female,2020-09-23_15h09.59.392,torte-2b,2020.1.3,Win32,60,13438,1.17993,,,,,,,,,,,,,,,,,,,,,,,,,,,,,,,,,,,,,0,1,1,108,1,,,,,,,,,,,,,,,,,,,,,,,,
,,,,,,,,,,,,l,Correct!,,,,,,t4.png,t2.png,2,0.059078,19,Female,2020-09-23_15h09.59.392,torte-2b,2020.1.3,Win32,60,13438,1.303455,,,,,,,,,,,,,,,,,,,,,,,,,,,,,,,,,,,,,0,2,2,110,1,,,,,,,,,,,,,,,,,,,,,,,,
,,,,,,,,,,,,a,Incorrect,,,,,,t2.png,t5.png,3,0.0000131,19,Female,2020-09-23_15h09.59.392,torte-2b,2020.1.3,Win32,60,13438,1.103195,,,,,,,,,,,,,,,,,,,,,,,,,,,,,,,,,,,,,0,3,3,66,1,,,,,,,,,,,,,,,,,,,,,,,,
,,,,,,,,,,,,l,Incorrect,,,,,,t2.png,t3.png,1,0.90855,19,Female,2020-09-23_15h09.59.392,torte-2b,2020.1.3,Win32,60,13438,1.679915,,,,,,,,,,,,,,,,,,,,,,,,,,,,,,,,,,,,,0,4,4,65,1,,,,,,,,,,,,,,,,,,,,,,,,
,,,,,,,,,,,,l,Correct!,,,,,,t4.png,t2.png,2,0.0591,19,Female,2020-09-23_15h09.59.392,torte-2b,2020.1.3,Win32,60,13438,0.950715,,,,,,,,,,,,,,,,,,,,,,,,,,,,,,,,,,,,,0,5,5,36,1,,,,,,,,,,,,,,,,,,,,,,,,
,,,,,,,,,,,,a,Correct!,,,,,,t3.png,t2.png,1,0.90855,19,Female,2020-09-23_15h09.59.392,torte-2b,2020.1.3,Win32,60,13438,1.34683,,,,,,,,,,,,,,,,,,,,,,,,,,,,,,,,,,,,,0,6,6,97,1,,,,,,,,,,,,,,,,,,,,,,,,
,,,,,,,,,,,,a,Incorrect,,,,,,t4.png,t1.png,3,0.0000131,19,Female,2020-09-23_15h09.59.392,torte-2b,2020.1.3,Win32,60,13438,0.98319,,,,,,,,,,,,,,,,,,,,,,,,,,,,,,,,,,,,,0,7,7,61,1,,,,,,,,,,,,,,,,,,,,,,,,
,,,,,,,,,,,,a,Correct!,,,,,,t1.png,t1.png,0,0.978,19,Female,2020-09-23_15h09.59.392,torte-2b,2020.1.3,Win32,60,13438,0.865125,,,,,,,,,,,,,,,,,,,,,,,,,,,,,,,,,,,,,0,8,8,54,1,,,,,,,,,,,,,,,,,,,,,,,,
,,,,,,,,,,,,a,Incorrect,,,,,,t1.png,t4.png,3,0.0000131,19,Female,2020-09-23_15h09.59.392,torte-2b,2020.1.3,Win32,60,13438,1.038225,,,,,,,,,,,,,,,,,,,,,,,,,,,,,,,,,,,,,0,9,9,17,1,,,,,,,,,,,,,,,,,,,,,,,,
,,,,,,,,,,,,a,Correct!,,,,,,t2.png,t2.png,0,0.98115,19,Female,2020-09-23_15h09.59.392,torte-2b,2020.1.3,Win32,60,13438,0.951345,,,,,,,,,,,,,,,,,,,,,,,,,,,,,,,,,,,,,0,10,10,2,1,,,,,,,,,,,,,,,,,,,,,,,,
,,,,,,,,,,,,l,Correct!,,,,,,t1.png,t5.png,4,9.55E-11,19,Female,2020-09-23_15h09.59.392,torte-2b,2020.1.3,Win32,60,13438,1.10343,,,,,,,,,,,,,,,,,,,,,,,,,,,,,,,,,,,,,0,11,11,85,1,,,,,,,,,,,,,,,,,,,,,,,,
,,,,,,,,,,,,a,Incorrect,,,,,,t1.png,t4.png,3,0.0000131,19,Female,2020-09-23_15h09.59.392,torte-2b,2020.1.3,Win32,60,13438,1.228285,,,,,,,,,,,,,,,,,,,,,,,,,,,,,,,,,,,,,0,12,12,50,1,,,,,,,,,,,,,,,,,,,,,,,,
,,,,,,,,,,,,l,Correct!,,,,,,t2.png,t4.png,2,0.059078,19,Female,2020-09-23_15h09.59.392,torte-2b,2020.1.3,Win32,60,13438,0.784035,,,,,,,,,,,,,,,,,,,,,,,,,,,,,,,,,,,,,0,13,13,77,1,,,,,,,,,,,,,,,,,,,,,,,,
,,,,,,,,,,,,l,Correct!,,,,,,t4.png,t2.png,2,0.059078,19,Female,2020-09-23_15h09.59.392,torte-2b,2020.1.3,Win32,60,13438,1.03094,,,,,,,,,,,,,,,,,,,,,,,,,,,,,,,,,,,,,0,14,14,86,1,,,,,,,,,,,,,,,,,,,,,,,,
,,,,,,,,,,,,a,Incorrect,,,,,,t2.png,t2.png,0,0.98115,19,Female,2020-09-23_15h09.59.392,torte-2b,2020.1.3,Win32,60,13438,0.882075,,,,,,,,,,,,,,,,,,,,,,,,,,,,,,,,,,,,,0,15,15,59,1,,,,,,,,,,,,,,,,,,,,,,,,
,,,,,,,,,,,,l,Incorrect,,,,,,t2.png,t3.png,1,0.90855,19,Female,2020-09-23_15h09.59.392,torte-2b,2020.1.3,Win32,60,13438,1.873145,,,,,,,,,,,,,,,,,,,,,,,,,,,,,,,,,,,,,0,16,16,68,1,,,,,,,,,,,,,,,,,,,,,,,,
,,,,,,,,,,,,a,Correct!,,,,,,t4.png,t4.png,0,0.98115,19,Female,2020-09-23_15h09.59.392,torte-2b,2020.1.3,Win32,60,13438,1.13041,,,,,,,,,,,,,,,,,,,,,,,,,,,,,,,,,,,,,0,17,17,21,1,,,,,,,,,,,,,,,,,,,,,,,,
,,,,,,,,,,,,a,Correct!,,,,,,t3.png,t2.png,1,0.90855,19,Female,2020-09-23_15h09.59.392,torte-2b,2020.1.3,Win32,60,13438,1.27044,,,,,,,,,,,,,,,,,,,,,,,,,,,,,,,,,,,,,0,18,18,53,1,,,,,,,,,,,,,,,,,,,,,,,,
,,,,,,,,,,,,a,Incorrect,,,,,,t1.png,t4.png,3,0.0000131,19,Female,2020-09-23_15h09.59.392,torte-2b,2020.1.3,Win32,60,13438,1.031535,,,,,,,,,,,,,,,,,,,,,,,,,,,,,,,,,,,,,0,19,19,81,1,,,,,,,,,,,,,,,,,,,,,,,,
,,,,,,,,,,,,l,Correct!,,,,,,t5.png,t3.png,2,0.0565,19,Female,2020-09-23_15h09.59.392,torte-2b,2020.1.3,Win32,60,13438,1.231355,,,,,,,,,,,,,,,,,,,,,,,,,,,,,,,,,,,,,0,20,20,39,1,,,,,,,,,,,,,,,,,,,,,,,,
,,,,,,,,,,,,a,Incorrect,,,,,,t2.png,t5.png,3,0.0000131,19,Female,2020-09-23_15h09.59.392,torte-2b,2020.1.3,Win32,60,13438,1.0843,,,,,,,,,,,,,,,,,,,,,,,,,,,,,,,,,,,,,0,21,21,95,1,,,,,,,,,,,,,,,,,,,,,,,,
,,,,,,,,,,,,a,Incorrect,,,,,,t3.png,t1.png,2,0.056466,19,Female,2020-09-23_15h09.59.392,torte-2b,2020.1.3,Win32,60,13438,1.38664,,,,,,,,,,,,,,,,,,,,,,,,,,,,,,,,,,,,,0,22,22,64,1,,,,,,,,,,,,,,,,,,,,,,,,
,,,,,,,,,,,,a,Correct!,,,,,,t2.png,t1.png,1,0.90025,19,Female,2020-09-23_15h09.59.392,torte-2b,2020.1.3,Win32,60,13438,1.217025,,,,,,,,,,,,,,,,,,,,,,,,,,,,,,,,,,,,,0,23,23,4,1,,,,,,,,,,,,,,,,,,,,,,,,
,,,,,,,,,,,,a,Correct!,,,,,,t3.png,t4.png,1,0.909,19,Female,2020-09-23_15h09.59.392,torte-2b,2020.1.3,Win32,60,13438,1.199195,,,,,,,,,,,,,,,,,,,,,,,,,,,,,,,,,,,,,0,24,24,82,1,,,,,,,,,,,,,,,,,,,,,,,,
,,,,,,,,,,,,a,Incorrect,,,,,,t3.png,t5.png,2,0.0565,19,Female,2020-09-23_15h09.59.392,torte-2b,2020.1.3,Win32,60,13438,1.400545,,,,,,,,,,,,,,,,,,,,,,,,,,,,,,,,,,,,,0,25,25,30,1,,,,,,,,,,,,,,,,,,,,,,,,
,,,,,,,,,,,,l,Correct!,,,,,,t1.png,t5.png,4,9.55E-11,19,Female,2020-09-23_15h09.59.392,torte-2b,2020.1.3,Win32,60,13438,1.00031,,,,,,,,,,,,,,,,,,,,,,,,,,,,,,,,,,,,,0,26,26,41,1,,,,,,,,,,,,,,,,,,,,,,,,
,,,,,,,,,,,,a,Incorrect,,,,,,t3.png,t1.png,2,0.0565,19,Female,2020-09-23_15h09.59.392,torte-2b,2020.1.3,Win32,60,13438,0.82136,,,,,,,,,,,,,,,,,,,,,,,,,,,,,,,,,,,,,0,27,27,31,1,,,,,,,,,,,,,,,,,,,,,,,,
,,,,,,,,,,,,a,Incorrect,,,,,,t3.png,t1.png,2,0.056466,19,Female,2020-09-23_15h09.59.392,torte-2b,2020.1.3,Win32,60,13438,0.853455,,,,,,,,,,,,,,,,,,,,,,,,,,,,,,,,,,,,,0,28,28,32,1,,,,,,,,,,,,,,,,,,,,,,,,
,,,,,,,,,,,,a,Correct!,,,,,,t5.png,t4.png,1,0.9,19,Female,2020-09-23_15h09.59.392,torte-2b,2020.1.3,Win32,60,13438,0.864165,,,,,,,,,,,,,,,,,,,,,,,,,,,,,,,,,,,,,0,29,29,76,1,,,,,,,,,,,,,,,,,,,,,,,,
,,,,,,,,,,,,a,Correct!,,,,,,t4.png,t4.png,0,0.98115,19,Female,2020-09-23_15h09.59.392,torte-2b,2020.1.3,Win32,60,13438,0.90137,,,,,,,,,,,,,,,,,,,,,,,,,,,,,,,,,,,,,0,30,30,90,1,,,,,,,,,,,,,,,,,,,,,,,,
,,,,,,,,,,,,l,Correct!,,,,,,t2.png,t4.png,2,0.059078,19,Female,2020-09-23_15h09.59.392,torte-2b,2020.1.3,Win32,60,13438,0.837985,,,,,,,,,,,,,,,,,,,,,,,,,,,,,,,,,,,,,0,31,31,11,1,,,,,,,,,,,,,,,,,,,,,,,,
,,,,,,,,,,,,a,Correct!,,,,,,t5.png,t5.png,0,0.978,19,Female,2020-09-23_15h09.59.392,torte-2b,2020.1.3,Win32,60,13438,0.884325,,,,,,,,,,,,,,,,,,,,,,,,,,,,,,,,,,,,,0,32,32,117,1,,,,,,,,,,,,,,,,,,,,,,,,
,,,,,,,,,,,,a,Incorrect,,,,,,t2.png,t5.png,3,0.0000131,19,Female,2020-09-23_15h09.59.392,torte-2b,2020.1.3,Win32,60,13438,0.80242,,,,,,,,,,,,,,,,,,,,,,,,,,,,,,,,,,,,,0,33,33,8,1,,,,,,,,,,,,,,,,,,,,,,,,
,,,,,,,,,,,,a,Correct!,,,,,,t4.png,t5.png,1,0.90025,19,Female,2020-09-23_15h09.59.392,torte-2b,2020.1.3,Win32,60,13438,1.050455,,,,,,,,,,,,,,,,,,,,,,,,,,,,,,,,,,,,,0,34,34,58,1,,,,,,,,,,,,,,,,,,,,,,,,
,,,,,,,,,,,,a,Incorrect,,,,,,t5.png,t3.png,2,0.056466,19,Female,2020-09-23_15h09.59.392,torte-2b,2020.1.3,Win32,60,13438,0.920285,,,,,,,,,,,,,,,,,,,,,,,,,,,,,,,,,,,,,0,35,35,38,1,,,,,,,,,,,,,,,,,,,,,,,,
,,,,,,,,,,,,a,Incorrect,,,,,,t3.png,t5.png,2,0.056466,19,Female,2020-09-23_15h09.59.392,torte-2b,2020.1.3,Win32,60,13438,1.08247,,,,,,,,,,,,,,,,,,,,,,,,,,,,,,,,,,,,,0,36,36,44,1,,,,,,,,,,,,,,,,,,,,,,,,
,,,,,,,,,,,,a,Correct!,,,,,,t3.png,t4.png,1,0.90855,19,Female,2020-09-23_15h09.59.392,torte-2b,2020.1.3,Win32,60,13438,0.917005,,,,,,,,,,,,,,,,,,,,,,,,,,,,,,,,,,,,,0,37,37,96,1,,,,,,,,,,,,,,,,,,,,,,,,
,,,,,,,,,,,,a,Incorrect,,,,,,t2.png,t5.png,3,0.0000131,19,Female,2020-09-23_15h09.59.392,torte-2b,2020.1.3,Win32,60,13438,1.240615,,,,,,,,,,,,,,,,,,,,,,,,,,,,,,,,,,,,,0,38,38,104,1,,,,,,,,,,,,,,,,,,,,,,,,
,,,,,,,,,,,,a,Incorrect,,,,,,t5.png,t2.png,3,0.0000131,19,Female,2020-09-23_15h09.59.392,torte-2b,2020.1.3,Win32,60,13438,1.104845,,,,,,,,,,,,,,,,,,,,,,,,,,,,,,,,,,,,,0,39,39,116,1,,,,,,,,,,,,,,,,,,,,,,,,
,,,,,,,,,,,,a,Correct!,,,,,,t3.png,t2.png,1,0.909,19,Female,2020-09-23_15h09.59.392,torte-2b,2020.1.3,Win32,60,13438,1.704255,,,,,,,,,,,,,,,,,,,,,,,,,,,,,,,,,,,,,0,40,40,23,1,,,,,,,,,,,,,,,,,,,,,,,,
,,,,,,,,,,,,a,Correct!,,,,,,t4.png,t5.png,1,0.90025,19,Female,2020-09-23_15h09.59.392,torte-2b,2020.1.3,Win32,60,13438,1.02471,,,,,,,,,,,,,,,,,,,,,,,,,,,,,,,,,,,,,0,41,41,113,1,,,,,,,,,,,,,,,,,,,,,,,,
,,,,,,,,,,,,a,Correct!,,,,,,t3.png,t2.png,1,0.90855,19,Female,2020-09-23_15h09.59.392,torte-2b,2020.1.3,Win32,60,13438,2.221495,,,,,,,,,,,,,,,,,,,,,,,,,,,,,,,,,,,,,0,42,42,18,1,,,,,,,,,,,,,,,,,,,,,,,,
,,,,,,,,,,,,l,Correct!,,,,,,t2.png,t3.png,1,0.90855,19,Female,2020-09-23_15h09.59.392,torte-2b,2020.1.3,Win32,60,13438,2.300005,,,,,,,,,,,,,,,,,,,,,,,,,,,,,,,,,,,,,0,43,43,10,1,,,,,,,,,,,,,,,,,,,,,,,,
,,,,,,,,,,,,a,Incorrect,,,,,,t4.png,t1.png,3,0.0000131,19,Female,2020-09-23_15h09.59.392,torte-2b,2020.1.3,Win32,60,13438,0.94833,,,,,,,,,,,,,,,,,,,,,,,,,,,,,,,,,,,,,0,44,44,48,1,,,,,,,,,,,,,,,,,,,,,,,,
,,,,,,,,,,,,a,Correct!,,,,,,t2.png,t2.png,0,0.98115,19,Female,2020-09-23_15h09.59.392,torte-2b,2020.1.3,Win32,60,13438,0.98325,,,,,,,,,,,,,,,,,,,,,,,,,,,,,,,,,,,,,0,45,45,57,1,,,,,,,,,,,,,,,,,,,,,,,,
,,,,,,,,,,,,a,Incorrect,,,,,,t5.png,t2.png,3,0.0000131,19,Female,2020-09-23_15h09.59.392,torte-2b,2020.1.3,Win32,60,13438,0.952885,,,,,,,,,,,,,,,,,,,,,,,,,,,,,,,,,,,,,0,46,46,98,1,,,,,,,,,,,,,,,,,,,,,,,,
,,,,,,,,,,,,a,Correct!,,,,,,t2.png,t1.png,1,0.90025,19,Female,2020-09-23_15h09.59.392,torte-2b,2020.1.3,Win32,60,13438,1.26387,,,,,,,,,,,,,,,,,,,,,,,,,,,,,,,,,,,,,0,47,47,5,1,,,,,,,,,,,,,,,,,,,,,,,,
,,,,,,,,,,,,l,Correct!,,,,,,t4.png,t2.png,2,0.059078,19,Female,2020-09-23_15h09.59.392,torte-2b,2020.1.3,Win32,60,13438,0.94741,,,,,,,,,,,,,,,,,,,,,,,,,,,,,,,,,,,,,0,48,48,88,1,,,,,,,,,,,,,,,,,,,,,,,,
,,,,,,,,,,,,l,Correct!,,,,,,t5.png,t1.png,4,9.55E-11,19,Female,2020-09-23_15h09.59.392,torte-2b,2020.1.3,Win32,60,13438,0.883015,,,,,,,,,,,,,,,,,,,,,,,,,,,,,,,,,,,,,0,49,49,71,1,,,,,,,,,,,,,,,,,,,,,,,,
,,,,,,,,,,,,a,Correct!,,,,,,t1.png,t2.png,1,0.90025,19,Female,2020-09-23_15h09.59.392,torte-2b,2020.1.3,Win32,60,13438,0.9139,,,,,,,,,,,,,,,,,,,,,,,,,,,,,,,,,,,,,0,50,50,33,1,,,,,,,,,,,,,,,,,,,,,,,,
,,,,,,,,,,,,l,Correct!,,,,,,t5.png,t1.png,4,9.55E-11,19,Female,2020-09-23_15h09.59.392,torte-2b,2020.1.3,Win32,60,13438,1.25332,,,,,,,,,,,,,,,,,,,,,,,,,,,,,,,,,,,,,0,51,51,100,1,,,,,,,,,,,,,,,,,,,,,,,,
,,,,,,,,,,,,l,Correct!,,,,,,t5.png,t3.png,2,0.056466,19,Female,2020-09-23_15h09.59.392,torte-2b,2020.1.3,Win32,60,13438,1.663765,,,,,,,,,,,,,,,,,,,,,,,,,,,,,,,,,,,,,0,52,52,56,1,,,,,,,,,,,,,,,,,,,,,,,,
,,,,,,,,,,,,l,Correct!,,,,,,t5.png,t1.png,4,9.55E-11,19,Female,2020-09-23_15h09.59.392,torte-2b,2020.1.3,Win32,60,13438,1.30389,,,,,,,,,,,,,,,,,,,,,,,,,,,,,,,,,,,,,0,53,53,22,1,,,,,,,,,,,,,,,,,,,,,,,,
,,,,,,,,,,,,a,Incorrect,,,,,,t1.png,t3.png,2,0.056466,19,Female,2020-09-23_15h09.59.392,torte-2b,2020.1.3,Win32,60,13438,1.05783,,,,,,,,,,,,,,,,,,,,,,,,,,,,,,,,,,,,,0,54,54,63,1,,,,,,,,,,,,,,,,,,,,,,,,
,,,,,,,,,,,,a,Correct!,,,,,,t5.png,t5.png,0,0.97829,19,Female,2020-09-23_15h09.59.392,torte-2b,2020.1.3,Win32,60,13438,1.324255,,,,,,,,,,,,,,,,,,,,,,,,,,,,,,,,,,,,,0,55,55,70,1,,,,,,,,,,,,,,,,,,,,,,,,
,,,,,,,,,,,,a,Correct!,,,,,,t3.png,t4.png,1,0.909,19,Female,2020-09-23_15h09.59.392,torte-2b,2020.1.3,Win32,60,13438,1.402115,,,,,,,,,,,,,,,,,,,,,,,,,,,,,,,,,,,,,0,56,56,89,1,,,,,,,,,,,,,,,,,,,,,,,,
,,,,,,,,,,,,l,Incorrect,,,,,,t4.png,t3.png,1,0.909,19,Female,2020-09-23_15h09.59.392,torte-2b,2020.1.3,Win32,60,13438,1.2179,,,,,,,,,,,,,,,,,,,,,,,,,,,,,,,,,,,,,0,57,57,20,1,,,,,,,,,,,,,,,,,,,,,,,,
,,,,,,,,,,,,a,Incorrect,,,,,,t3.png,t1.png,2,0.056466,19,Female,2020-09-23_15h09.59.392,torte-2b,2020.1.3,Win32,60,13438,1.387195,,,,,,,,,,,,,,,,,,,,,,,,,,,,,,,,,,,,,0,58,58,29,1,,,,,,,,,,,,,,,,,,,,,,,,
,,,,,,,,,,,,a,Incorrect,,,,,,t5.png,t2.png,3,0.0000131,19,Female,2020-09-23_15h09.59.392,torte-2b,2020.1.3,Win32,60,13438,1.40422,,,,,,,,,,,,,,,,,,,,,,,,,,,,,,,,,,,,,0,59,59,91,1,,,,,,,,,,,,,,,,,,,,,,,,
,,,,,,,,,,,,a,Incorrect,,,,,,t3.png,t5.png,2,0.056466,19,Female,2020-09-23_15h09.59.392,torte-2b,2020.1.3,Win32,60,13438,1.36454,,,,,,,,,,,,,,,,,,,,,,,,,,,,,,,,,,,,,0,60,60,14,1,,,,,,,,,,,,,,,,,,,,,,,,
,,,,,,,,,,,,l,Correct!,,,,,,t5.png,t1.png,4,9.55E-11,19,Female,2020-09-23_15h09.59.392,torte-2b,2020.1.3,Win32,60,13438,1.171765,,,,,,,,,,,,,,,,,,,,,,,,,,,,,,,,,,,,,0,61,61,102,1,,,,,,,,,,,,,,,,,,,,,,,,
,,,,,,,,,,,,a,Correct!,,,,,,t1.png,t2.png,1,0.9,19,Female,2020-09-23_15h09.59.392,torte-2b,2020.1.3,Win32,60,13438,0.967785,,,,,,,,,,,,,,,,,,,,,,,,,,,,,,,,,,,,,0,62,62,1,1,,,,,,,,,,,,,,,,,,,,,,,,
,,,,,,,,,,,,a,Incorrect,,,,,,t1.png,t4.png,3,0.0000131,19,Female,2020-09-23_15h09.59.392,torte-2b,2020.1.3,Win32,60,13438,1.103705,,,,,,,,,,,,,,,,,,,,,,,,,,,,,,,,,,,,,0,63,63,107,1,,,,,,,,,,,,,,,,,,,,,,,,
,,,,,,,,,,,,l,Correct!,,,,,,t5.png,t3.png,2,0.056466,19,Female,2020-09-23_15h09.59.392,torte-2b,2020.1.3,Win32,60,13438,1.43151,,,,,,,,,,,,,,,,,,,,,,,,,,,,,,,,,,,,,0,64,64,114,1,,,,,,,,,,,,,,,,,,,,,,,,
,,,,,,,,,,,,l,Correct!,,,,,,t1.png,t5.png,4,9.55E-11,19,Female,2020-09-23_15h09.59.392,torte-2b,2020.1.3,Win32,60,13438,1.89602,,,,,,,,,,,,,,,,,,,,,,,,,,,,,,,,,,,,,0,65,65,55,1,,,,,,,,,,,,,,,,,,,,,,,,
,,,,,,,,,,,,l,Correct!,,,,,,t2.png,t4.png,2,0.059078,19,Female,2020-09-23_15h09.59.392,torte-2b,2020.1.3,Win32,60,13438,1.05339,,,,,,,,,,,,,,,,,,,,,,,,,,,,,,,,,,,,,0,66,66,37,1,,,,,,,,,,,,,,,,,,,,,,,,
,,,,,,,,,,,,a,Correct!,,,,,,t1.png,t1.png,0,0.97829,19,Female,2020-09-23_15h09.59.392,torte-2b,2020.1.3,Win32,60,13438,1.198495,,,,,,,,,,,,,,,,,,,,,,,,,,,,,,,,,,,,,0,67,67,67,1,,,,,,,,,,,,,,,,,,,,,,,,
,,,,,,,,,,,,a,Correct!,,,,,,t2.png,t1.png,1,0.9,19,Female,2020-09-23_15h09.59.392,torte-2b,2020.1.3,Win32,60,13438,0.787115,,,,,,,,,,,,,,,,,,,,,,,,,,,,,,,,,,,,,0,68,68,118,1,,,,,,,,,,,,,,,,,,,,,,,,
,,,,,,,,,,,,a,Incorrect,,,,,,t4.png,t1.png,3,0.0000131,19,Female,2020-09-23_15h09.59.392,torte-2b,2020.1.3,Win32,60,13438,1.16878,,,,,,,,,,,,,,,,,,,,,,,,,,,,,,,,,,,,,0,69,69,13,1,,,,,,,,,,,,,,,,,,,,,,,,
,,,,,,,,,,,,l,Incorrect,,,,,,t4.png,t3.png,1,0.90855,19,Female,2020-09-23_15h09.59.392,torte-2b,2020.1.3,Win32,60,13438,1.221685,,,,,,,,,,,,,,,,,,,,,,,,,,,,,,,,,,,,,0,70,70,75,1,,,,,,,,,,,,,,,,,,,,,,,,
,,,,,,,,,,,,a,Incorrect,,,,,,t4.png,t1.png,3,0.0000131,19,Female,2020-09-23_15h09.59.392,torte-2b,2020.1.3,Win32,60,13438,1.182,,,,,,,,,,,,,,,,,,,,,,,,,,,,,,,,,,,,,0,71,71,42,1,,,,,,,,,,,,,,,,,,,,,,,,
,,,,,,,,,,,,a,Correct!,,,,,,t4.png,t4.png,0,0.98115,19,Female,2020-09-23_15h09.59.392,torte-2b,2020.1.3,Win32,60,13438,0.92187,,,,,,,,,,,,,,,,,,,,,,,,,,,,,,,,,,,,,0,72,72,80,1,,,,,,,,,,,,,,,,,,,,,,,,
,,,,,,,,,,,,a,Incorrect,,,,,,t1.png,t3.png,2,0.056466,19,Female,2020-09-23_15h09.59.392,torte-2b,2020.1.3,Win32,60,13438,0.950715,,,,,,,,,,,,,,,,,,,,,,,,,,,,,,,,,,,,,0,73,73,69,1,,,,,,,,,,,,,,,,,,,,,,,,
,,,,,,,,,,,,a,Correct!,,,,,,t4.png,t4.png,0,0.98115,19,Female,2020-09-23_15h09.59.392,torte-2b,2020.1.3,Win32,60,13438,0.80838,,,,,,,,,,,,,,,,,,,,,,,,,,,,,,,,,,,,,0,74,74,52,1,,,,,,,,,,,,,,,,,,,,,,,,
,,,,,,,,,,,,a,Correct!,,,,,,t1.png,t2.png,1,0.90025,19,Female,2020-09-23_15h09.59.392,torte-2b,2020.1.3,Win32,60,13438,1.113155,,,,,,,,,,,,,,,,,,,,,,,,,,,,,,,,,,,,,0,75,75,112,1,,,,,,,,,,,,,,,,,,,,,,,,
,,,,,,,,,,,,a,Correct!,,,,,,t5.png,t5.png,0,0.97829,19,Female,2020-09-23_15h09.59.392,torte-2b,2020.1.3,Win32,60,13438,1.41627,,,,,,,,,,,,,,,,,,,,,,,,,,,,,,,,,,,,,0,76,76,25,1,,,,,,,,,,,,,,,,,,,,,,,,
,,,,,,,,,,,,a,Correct!,,,,,,t1.png,t1.png,0,0.97829,19,Female,2020-09-23_15h09.59.392,torte-2b,2020.1.3,Win32,60,13438,1.034055,,,,,,,,,,,,,,,,,,,,,,,,,,,,,,,,,,,,,0,77,77,9,1,,,,,,,,,,,,,,,,,,,,,,,,
,,,,,,,,,,,,a,Correct!,,,,,,t4.png,t3.png,1,0.90855,19,Female,2020-09-23_15h09.59.392,torte-2b,2020.1.3,Win32,60,13438,0.918645,,,,,,,,,,,,,,,,,,,,,,,,,,,,,,,,,,,,,0,78,78,45,1,,,,,,,,,,,,,,,,,,,,,,,,
,,,,,,,,,,,,a,Correct!,,,,,,t5.png,t4.png,1,0.90025,19,Female,2020-09-23_15h09.59.392,torte-2b,2020.1.3,Win32,60,13438,0.800205,,,,,,,,,,,,,,,,,,,,,,,,,,,,,,,,,,,,,0,79,79,27,1,,,,,,,,,,,,,,,,,,,,,,,,
,,,,,,,,,,,,a,Correct!,,,,,,t1.png,t2.png,1,0.90025,19,Female,2020-09-23_15h09.59.392,torte-2b,2020.1.3,Win32,60,13438,1.15372,,,,,,,,,,,,,,,,,,,,,,,,,,,,,,,,,,,,,0,80,80,72,1,,,,,,,,,,,,,,,,,,,,,,,,
,,,,,,,,,,,,a,Correct!,,,,,,t4.png,t5.png,1,0.90025,19,Female,2020-09-23_15h09.59.392,torte-2b,2020.1.3,Win32,60,13438,0.91822,,,,,,,,,,,,,,,,,,,,,,,,,,,,,,,,,,,,,0,81,81,103,1,,,,,,,,,,,,,,,,,,,,,,,,
,,,,,,,,,,,,l,Correct!,,,,,,t4.png,t2.png,2,0.059078,19,Female,2020-09-23_15h09.59.392,torte-2b,2020.1.3,Win32,60,13438,1.08571,,,,,,,,,,,,,,,,,,,,,,,,,,,,,,,,,,,,,0,82,82,109,1,,,,,,,,,,,,,,,,,,,,,,,,
,,,,,,,,,,,,a,Incorrect,,,,,,t5.png,t2.png,3,0.0000131,19,Female,2020-09-23_15h09.59.392,torte-2b,2020.1.3,Win32,60,13438,0.984105,,,,,,,,,,,,,,,,,,,,,,,,,,,,,,,,,,,,,0,83,83,51,1,,,,,,,,,,,,,,,,,,,,,,,,
,,,,,,,,,,,,l,Incorrect,,,,,,t2.png,t3.png,1,0.909,19,Female,2020-09-23_15h09.59.392,torte-2b,2020.1.3,Win32,60,13438,1.05352,,,,,,,,,,,,,,,,,,,,,,,,,,,,,,,,,,,,,0,84,84,74,1,,,,,,,,,,,,,,,,,,,,,,,,
,,,,,,,,,,,,a,Correct!,,,,,,t3.png,t4.png,1,0.909,19,Female,2020-09-23_15h09.59.392,torte-2b,2020.1.3,Win32,60,13438,1.30027,,,,,,,,,,,,,,,,,,,,,,,,,,,,,,,,,,,,,0,85,85,106,1,,,,,,,,,,,,,,,,,,,,,,,,
,,,,,,,,,,,,l,Correct!,,,,,,t1.png,t3.png,2,0.056466,19,Female,2020-09-23_15h09.59.392,torte-2b,2020.1.3,Win32,60,13438,1.46648,,,,,,,,,,,,,,,,,,,,,,,,,,,,,,,,,,,,,0,86,86,99,1,,,,,,,,,,,,,,,,,,,,,,,,
,,,,,,,,,,,,a,Correct!,,,,,,t4.png,t5.png,1,0.90025,19,Female,2020-09-23_15h09.59.392,torte-2b,2020.1.3,Win32,60,13438,0.73399,,,,,,,,,,,,,,,,,,,,,,,,,,,,,,,,,,,,,0,87,87,47,1,,,,,,,,,,,,,,,,,,,,,,,,
,,,,,,,,,,,,l,Correct!,,,,,,t1.png,t5.png,4,9.55E-11,19,Female,2020-09-23_15h09.59.392,torte-2b,2020.1.3,Win32,60,13438,0.73145,,,,,,,,,,,,,,,,,,,,,,,,,,,,,,,,,,,,,0,88,88,16,1,,,,,,,,,,,,,,,,,,,,,,,,
,,,,,,,,,,,,a,Correct!,,,,,,t1.png,t1.png,0,0.97829,19,Female,2020-09-23_15h09.59.392,torte-2b,2020.1.3,Win32,60,13438,0.987555,,,,,,,,,,,,,,,,,,,,,,,,,,,,,,,,,,,,,0,89,89,78,1,,,,,,,,,,,,,,,,,,,,,,,,
,,,,,,,,,,,,a,Correct!,,,,,,t3.png,t2.png,1,0.909,19,Female,2020-09-23_15h09.59.392,torte-2b,2020.1.3,Win32,60,13438,1.067255,,,,,,,,,,,,,,,,,,,,,,,,,,,,,,,,,,,,,0,90,90,3,1,,,,,,,,,,,,,,,,,,,,,,,,
,,,,,,,,,,,,a,Correct!,,,,,,t2.png,t2.png,0,0.98115,19,Female,2020-09-23_15h09.59.392,torte-2b,2020.1.3,Win32,60,13438,1.281895,,,,,,,,,,,,,,,,,,,,,,,,,,,,,,,,,,,,,0,91,91,7,1,,,,,,,,,,,,,,,,,,,,,,,,
,,,,,,,,,,,,l,Correct!,,,,,,t2.png,t4.png,2,0.0591,19,Female,2020-09-23_15h09.59.392,torte-2b,2020.1.3,Win32,60,13438,0.97212,,,,,,,,,,,,,,,,,,,,,,,,,,,,,,,,,,,,,0,92,92,15,1,,,,,,,,,,,,,,,,,,,,,,,,
,,,,,,,,,,,,a,Incorrect,,,,,,t3.png,t5.png,2,0.0565,19,Female,2020-09-23_15h09.59.392,torte-2b,2020.1.3,Win32,60,13438,0.805255,,,,,,,,,,,,,,,,,,,,,,,,,,,,,,,,,,,,,0,93,93,83,1,,,,,,,,,,,,,,,,,,,,,,,,
,,,,,,,,,,,,a,Correct!,,,,,,t5.png,t4.png,1,0.9,19,Female,2020-09-23_15h09.59.392,torte-2b,2020.1.3,Win32,60,13438,0.717225,,,,,,,,,,,,,,,,,,,,,,,,,,,,,,,,,,,,,0,94,94,49,1,,,,,,,,,,,,,,,,,,,,,,,,
,,,,,,,,,,,,a,Correct!,,,,,,t3.png,t5.png,2,0.056466,19,Female,2020-09-23_15h09.59.392,torte-2b,2020.1.3,Win32,60,13438,0.797345,,,,,,,,,,,,,,,,,,,,,,,,,,,,,,,,,,,,,0,95,95,6,1,,,,,,,,,,,,,,,,,,,,,,,,
,,,,,,,,,,,,a,Incorrect,,,,,,t3.png,t1.png,2,0.056466,19,Female,2020-09-23_15h09.59.392,torte-2b,2020.1.3,Win32,60,13438,1.857315,,,,,,,,,,,,,,,,,,,,,,,,,,,,,,,,,,,,,0,96,96,0,1,,,,,,,,,,,,,,,,,,,,,,,,
,,,,,,,,,,,,l,Correct!,,,,,,t1.png,t3.png,2,0.056466,19,Female,2020-09-23_15h09.59.392,torte-2b,2020.1.3,Win32,60,13438,1.15071,,,,,,,,,,,,,,,,,,,,,,,,,,,,,,,,,,,,,0,97,97,87,1,,,,,,,,,,,,,,,,,,,,,,,,
,,,,,,,,,,,,l,Incorrect,,,,,,t4.png,t3.png,1,0.909,19,Female,2020-09-23_15h09.59.392,torte-2b,2020.1.3,Win32,60,13438,1.43418,,,,,,,,,,,,,,,,,,,,,,,,,,,,,,,,,,,,,0,98,98,46,1,,,,,,,,,,,,,,,,,,,,,,,,
,,,,,,,,,,,,a,Correct!,,,,,,t2.png,t1.png,1,0.90025,19,Female,2020-09-23_15h09.59.392,torte-2b,2020.1.3,Win32,60,13438,1.224495,,,,,,,,,,,,,,,,,,,,,,,,,,,,,,,,,,,,,0,99,99,62,1,,,,,,,,,,,,,,,,,,,,,,,,
,,,,,,,,,,,,a,Incorrect,,,,,,t2.png,t5.png,3,0.0000131,19,Female,2020-09-23_15h09.59.392,torte-2b,2020.1.3,Win32,60,13438,1.068745,,,,,,,,,,,,,,,,,,,,,,,,,,,,,,,,,,,,,0,100,100,40,1,,,,,,,,,,,,,,,,,,,,,,,,
,,,,,,,,,,,,a,Correct!,,,,,,t2.png,t1.png,1,0.90025,19,Female,2020-09-23_15h09.59.392,torte-2b,2020.1.3,Win32,60,13438,1.085285,,,,,,,,,,,,,,,,,,,,,,,,,,,,,,,,,,,,,0,101,101,19,1,,,,,,,,,,,,,,,,,,,,,,,,
,,,,,,,,,,,,a,Correct!,,,,,,t4.png,t5.png,1,0.9,19,Female,2020-09-23_15h09.59.392,torte-2b,2020.1.3,Win32,60,13438,0.93089,,,,,,,,,,,,,,,,,,,,,,,,,,,,,,,,,,,,,0,102,102,115,1,,,,,,,,,,,,,,,,,,,,,,,,
,,,,,,,,,,,,l,Correct!,,,,,,t2.png,t4.png,2,0.059078,19,Female,2020-09-23_15h09.59.392,torte-2b,2020.1.3,Win32,60,13438,1.002995,,,,,,,,,,,,,,,,,,,,,,,,,,,,,,,,,,,,,0,103,103,24,1,,,,,,,,,,,,,,,,,,,,,,,,
,,,,,,,,,,,,a,Correct!,,,,,,t5.png,t5.png,0,0.97829,19,Female,2020-09-23_15h09.59.392,torte-2b,2020.1.3,Win32,60,13438,0.67146,,,,,,,,,,,,,,,,,,,,,,,,,,,,,,,,,,,,,0,104,104,94,1,,,,,,,,,,,,,,,,,,,,,,,,
,,,,,,,,,,,,a,Correct!,,,,,,t4.png,t3.png,1,0.90855,19,Female,2020-09-23_15h09.59.392,torte-2b,2020.1.3,Win32,60,13438,0.754675,,,,,,,,,,,,,,,,,,,,,,,,,,,,,,,,,,,,,0,105,105,35,1,,,,,,,,,,,,,,,,,,,,,,,,
,,,,,,,,,,,,l,Correct!,,,,,,t1.png,t5.png,4,9.55E-11,19,Female,2020-09-23_15h09.59.392,torte-2b,2020.1.3,Win32,60,13438,1.080085,,,,,,,,,,,,,,,,,,,,,,,,,,,,,,,,,,,,,0,106,106,12,1,,,,,,,,,,,,,,,,,,,,,,,,
,,,,,,,,,,,,a,Incorrect,,,,,,t4.png,t1.png,3,0.0000131,19,Female,2020-09-23_15h09.59.392,torte-2b,2020.1.3,Win32,60,13438,1.033975,,,,,,,,,,,,,,,,,,,,,,,,,,,,,,,,,,,,,0,107,107,93,1,,,,,,,,,,,,,,,,,,,,,,,,
,,,,,,,,,,,,a,Correct!,,,,,,t2.png,t2.png,0,0.981,19,Female,2020-09-23_15h09.59.392,torte-2b,2020.1.3,Win32,60,13438,0.782805,,,,,,,,,,,,,,,,,,,,,,,,,,,,,,,,,,,,,0,108,108,101,1,,,,,,,,,,,,,,,,,,,,,,,,
,,,,,,,,,,,,a,Incorrect,,,,,,t1.png,t4.png,3,0.0000131,19,Female,2020-09-23_15h09.59.392,torte-2b,2020.1.3,Win32,60,13438,1.134645,,,,,,,,,,,,,,,,,,,,,,,,,,,,,,,,,,,,,0,109,109,92,1,,,,,,,,,,,,,,,,,,,,,,,,
,,,,,,,,,,,,a,Incorrect,,,,,,t5.png,t4.png,1,0.90025,19,Female,2020-09-23_15h09.59.392,torte-2b,2020.1.3,Win32,60,13438,1.0151,,,,,,,,,,,,,,,,,,,,,,,,,,,,,,,,,,,,,0,110,110,26,1,,,,,,,,,,,,,,,,,,,,,,,,
,,,,,,,,,,,,,Too slow :(,,,,,,t3.png,t4.png,1,0.90855,19,Female,2020-09-23_15h09.59.392,torte-2b,2020.1.3,Win32,60,13438,,,,,,,,,,,,,,,,,,,,,,,,,,,,,,,,,,,,,,0,111,111,84,1,,,,,,,,,,,,,,,,,,,,,,,,
,,,,,,,,,,,,a,Correct!,,,,,,t5.png,t4.png,1,0.90025,19,Female,2020-09-23_15h09.59.392,torte-2b,2020.1.3,Win32,60,13438,1.29767,,,,,,,,,,,,,,,,,,,,,,,,,,,,,,,,,,,,,0,112,112,34,1,,,,,,,,,,,,,,,,,,,,,,,,
,,,,,,,,,,,,l,Correct!,,,,,,t1.png,t3.png,2,0.056466,19,Female,2020-09-23_15h09.59.392,torte-2b,2020.1.3,Win32,60,13438,1.20615,,,,,,,,,,,,,,,,,,,,,,,,,,,,,,,,,,,,,0,113,113,60,1,,,,,,,,,,,,,,,,,,,,,,,,
,,,,,,,,,,,,a,Correct!,,,,,,t5.png,t5.png,0,0.97829,19,Female,2020-09-23_15h09.59.392,torte-2b,2020.1.3,Win32,60,13438,0.84064,,,,,,,,,,,,,,,,,,,,,,,,,,,,,,,,,,,,,0,114,114,73,1,,,,,,,,,,,,,,,,,,,,,,,,
,,,,,,,,,,,,a,Correct!,,,,,,t1.png,t2.png,1,0.90025,19,Female,2020-09-23_15h09.59.392,torte-2b,2020.1.3,Win32,60,13438,0.75855,,,,,,,,,,,,,,,,,,,,,,,,,,,,,,,,,,,,,0,115,115,105,1,,,,,,,,,,,,,,,,,,,,,,,,
,,,,,,,,,,,,a,Correct!,,,,,,t1.png,t1.png,0,0.978,19,Female,2020-09-23_15h09.59.392,torte-2b,2020.1.3,Win32,60,13438,0.901455,,,,,,,,,,,,,,,,,,,,,,,,,,,,,,,,,,,,,0,116,116,28,1,,,,,,,,,,,,,,,,,,,,,,,,
,,,,,,,,,,,,l,Incorrect,,,,,,t2.png,t3.png,1,0.90855,19,Female,2020-09-23_15h09.59.392,torte-2b,2020.1.3,Win32,60,13438,0.969555,,,,,,,,,,,,,,,,,,,,,,,,,,,,,,,,,,,,,0,117,117,111,1,,,,,,,,,,,,,,,,,,,,,,,,
,,,,,,,,,,,,a,Correct!,,,,,,t4.png,t4.png,0,0.98115,19,Female,2020-09-23_15h09.59.392,torte-2b,2020.1.3,Win32,60,13438,0.92523,,,,,,,,,,,,,,,,,,,,,,,,,,,,,,,,,,,,,0,118,118,79,1,,,,,,,,,,,,,,,,,,,,,,,,
,,,,,,,,,,,,a,Incorrect,,,,,,t5.png,t2.png,3,0.0000131,19,Female,2020-09-23_15h09.59.392,torte-2b,2020.1.3,Win32,60,13438,1.10485,,,,,,,,,,,,,,,,,,,,,,,,,,,,,,,,,,,,,0,119,119,119,1,,,,,,,,,,,,,,,,,,,,,,,,
,,,,,,,,,,,,,,,,,,,,,,,19,Female,2020-09-23_15h09.59.392,torte-2b,2020.1.3,Win32,60,13438,,space,2.452235,,,,,,,,,,,,,,,,,,,,,,,,,,,,,,,,,,,,,,,,27.33339391,193.9999951,1,0,0,s1,27.33339391,96.66665882,1,0,0,t1,448.0000324,-108.0000139,1,0,0,proceed,space,0.13332,space,0.414695,space,0.379665
