key_resp_8.keys,key_resp_8.rt,key_resp_9.keys,key_resp_9.rt,key_resp_10.keys,key_resp_10.rt,key_resp_11.keys,key_resp_11.rt,key_resp_2.keys,key_resp_2.rt,key_resp_3.keys,key_resp_3.rt,key_resp.keys,key_resp.rt,Feedback,train.thisRepN,train.thisTrialN,train.thisN,train.thisIndex,train.ran,torta_sx,torta_dx,difference,probability,age,gender,date,expName,psychopyVersion,OS,frameRate,participant,key_resp_15.keys,key_resp_15.rt,key_resp_6.keys,key_resp_6.rt,test1.thisRepN,test1.thisTrialN,test1.thisN,test1.thisIndex,test1.ran,key_resp_4.keys,key_resp_4.rt,key_resp_5.keys,back1.thisRepN,back1.thisTrialN,back1.thisN,back1.thisIndex,back1.ran,letter,key_resp_5.rt,back2.thisRepN,back2.thisTrialN,back2.thisN,back2.thisIndex,back2.ran,back3.thisRepN,back3.thisTrialN,back3.thisN,back3.thisIndex,back3.ran,back4.thisRepN,back4.thisTrialN,back4.thisN,back4.thisIndex,back4.ran,key_resp_7.keys,key_resp_7.rt,test2.thisRepN,test2.thisTrialN,test2.thisN,test2.thisIndex,test2.ran,mouse.x,mouse.y,mouse.leftButton,mouse.midButton,mouse.rightButton,mouse.clicked_name,mouse_2.x,mouse_2.y,mouse_2.leftButton,mouse_2.midButton,mouse_2.rightButton,mouse_2.clicked_name,mouse_3.x,mouse_3.y,mouse_3.leftButton,mouse_3.midButton,mouse_3.rightButton,mouse_3.clicked_name,key_resp_12.keys,key_resp_12.rt,key_resp_13.keys,key_resp_13.rt,key_resp_14.keys,key_resp_14.rt
space,4.78379,space,2.48737,space,4.86249,space,3.35538,space,3.85453,space,46.95904,a,1.178315,Incorrect,0,0,0,98,1,t2.png,t4.png,2,0.0591,19,Female,2020-09-17_15h49.13.560,torte-2b,2020.1.3,MacIntel,60,13448,,,,,,,,,,,,,,,,,,,,,,,,,,,,,,,,,,,,,,,,,,,,,,,,,,,,,,,,,,,,,,,,,
,,,,,,,,,,,,a,0.817015,Incorrect,0,1,1,111,1,t5.png,t1.png,4,9.55E-11,19,Female,2020-09-17_15h49.13.560,torte-2b,2020.1.3,MacIntel,60,13448,,,,,,,,,,,,,,,,,,,,,,,,,,,,,,,,,,,,,,,,,,,,,,,,,,,,,,,,,,,,,,,,,
,,,,,,,,,,,,l,1.312125,Correct!,0,2,2,6,1,t1.png,t4.png,3,0.0000131,19,Female,2020-09-17_15h49.13.560,torte-2b,2020.1.3,MacIntel,60,13448,,,,,,,,,,,,,,,,,,,,,,,,,,,,,,,,,,,,,,,,,,,,,,,,,,,,,,,,,,,,,,,,,
,,,,,,,,,,,,a,0.863395,Correct!,0,3,3,58,1,t5.png,t4.png,1,0.90025,19,Female,2020-09-17_15h49.13.560,torte-2b,2020.1.3,MacIntel,60,13448,,,,,,,,,,,,,,,,,,,,,,,,,,,,,,,,,,,,,,,,,,,,,,,,,,,,,,,,,,,,,,,,,
,,,,,,,,,,,,l,1.169255,Incorrect,0,4,4,28,1,t2.png,t3.png,1,0.909,19,Female,2020-09-17_15h49.13.560,torte-2b,2020.1.3,MacIntel,60,13448,,,,,,,,,,,,,,,,,,,,,,,,,,,,,,,,,,,,,,,,,,,,,,,,,,,,,,,,,,,,,,,,,
,,,,,,,,,,,,l,0.60321,Correct!,0,5,5,87,1,t5.png,t1.png,4,9.55E-11,19,Female,2020-09-17_15h49.13.560,torte-2b,2020.1.3,MacIntel,60,13448,,,,,,,,,,,,,,,,,,,,,,,,,,,,,,,,,,,,,,,,,,,,,,,,,,,,,,,,,,,,,,,,,
,,,,,,,,,,,,a,1.119885,Incorrect,0,6,6,51,1,t3.png,t1.png,2,0.056466,19,Female,2020-09-17_15h49.13.560,torte-2b,2020.1.3,MacIntel,60,13448,,,,,,,,,,,,,,,,,,,,,,,,,,,,,,,,,,,,,,,,,,,,,,,,,,,,,,,,,,,,,,,,,
,,,,,,,,,,,,a,0.60178,Correct!,0,7,7,42,1,t5.png,t4.png,1,0.90025,19,Female,2020-09-17_15h49.13.560,torte-2b,2020.1.3,MacIntel,60,13448,,,,,,,,,,,,,,,,,,,,,,,,,,,,,,,,,,,,,,,,,,,,,,,,,,,,,,,,,,,,,,,,,
,,,,,,,,,,,,,,Too slow :(,0,8,8,94,1,t5.png,t1.png,4,9.55E-11,19,Female,2020-09-17_15h49.13.560,torte-2b,2020.1.3,MacIntel,60,13448,,,,,,,,,,,,,,,,,,,,,,,,,,,,,,,,,,,,,,,,,,,,,,,,,,,,,,,,,,,,,,,,,
,,,,,,,,,,,,l,0.98763,Correct!,0,9,9,114,1,t2.png,t3.png,1,0.90855,19,Female,2020-09-17_15h49.13.560,torte-2b,2020.1.3,MacIntel,60,13448,,,,,,,,,,,,,,,,,,,,,,,,,,,,,,,,,,,,,,,,,,,,,,,,,,,,,,,,,,,,,,,,,
,,,,,,,,,,,,l,1.03661,Correct!,0,10,10,53,1,t3.png,t1.png,2,0.056466,19,Female,2020-09-17_15h49.13.560,torte-2b,2020.1.3,MacIntel,60,13448,,,,,,,,,,,,,,,,,,,,,,,,,,,,,,,,,,,,,,,,,,,,,,,,,,,,,,,,,,,,,,,,,
,,,,,,,,,,,,a,0.71098,Incorrect,0,11,11,43,1,t4.png,t2.png,2,0.059078,19,Female,2020-09-17_15h49.13.560,torte-2b,2020.1.3,MacIntel,60,13448,,,,,,,,,,,,,,,,,,,,,,,,,,,,,,,,,,,,,,,,,,,,,,,,,,,,,,,,,,,,,,,,,
,,,,,,,,,,,,l,1.062765,Correct!,0,12,12,80,1,t1.png,t4.png,3,0.0000131,19,Female,2020-09-17_15h49.13.560,torte-2b,2020.1.3,MacIntel,60,13448,,,,,,,,,,,,,,,,,,,,,,,,,,,,,,,,,,,,,,,,,,,,,,,,,,,,,,,,,,,,,,,,,
,,,,,,,,,,,,a,1.23689,Correct!,0,13,13,106,1,t2.png,t3.png,1,0.90855,19,Female,2020-09-17_15h49.13.560,torte-2b,2020.1.3,MacIntel,60,13448,,,,,,,,,,,,,,,,,,,,,,,,,,,,,,,,,,,,,,,,,,,,,,,,,,,,,,,,,,,,,,,,,
,,,,,,,,,,,,a,1.219235,Correct!,0,14,14,59,1,t5.png,t4.png,1,0.9,19,Female,2020-09-17_15h49.13.560,torte-2b,2020.1.3,MacIntel,60,13448,,,,,,,,,,,,,,,,,,,,,,,,,,,,,,,,,,,,,,,,,,,,,,,,,,,,,,,,,,,,,,,,,
,,,,,,,,,,,,a,0.63802,Correct!,0,15,15,23,1,t5.png,t4.png,1,0.90025,19,Female,2020-09-17_15h49.13.560,torte-2b,2020.1.3,MacIntel,60,13448,,,,,,,,,,,,,,,,,,,,,,,,,,,,,,,,,,,,,,,,,,,,,,,,,,,,,,,,,,,,,,,,,
,,,,,,,,,,,,a,0.873195,Incorrect,0,16,16,46,1,t4.png,t2.png,2,0.059078,19,Female,2020-09-17_15h49.13.560,torte-2b,2020.1.3,MacIntel,60,13448,,,,,,,,,,,,,,,,,,,,,,,,,,,,,,,,,,,,,,,,,,,,,,,,,,,,,,,,,,,,,,,,,
,,,,,,,,,,,,a,1.012515,Incorrect,0,17,17,36,1,t3.png,t1.png,2,0.0565,19,Female,2020-09-17_15h49.13.560,torte-2b,2020.1.3,MacIntel,60,13448,,,,,,,,,,,,,,,,,,,,,,,,,,,,,,,,,,,,,,,,,,,,,,,,,,,,,,,,,,,,,,,,,
,,,,,,,,,,,,a,1.02025,Incorrect,0,18,18,31,1,t1.png,t5.png,4,9.55E-11,19,Female,2020-09-17_15h49.13.560,torte-2b,2020.1.3,MacIntel,60,13448,,,,,,,,,,,,,,,,,,,,,,,,,,,,,,,,,,,,,,,,,,,,,,,,,,,,,,,,,,,,,,,,,
,,,,,,,,,,,,a,1.087345,Incorrect,0,19,19,72,1,t4.png,t2.png,2,0.059078,19,Female,2020-09-17_15h49.13.560,torte-2b,2020.1.3,MacIntel,60,13448,,,,,,,,,,,,,,,,,,,,,,,,,,,,,,,,,,,,,,,,,,,,,,,,,,,,,,,,,,,,,,,,,
,,,,,,,,,,,,l,0.50563,Correct!,0,20,20,67,1,t1.png,t5.png,4,9.55E-11,19,Female,2020-09-17_15h49.13.560,torte-2b,2020.1.3,MacIntel,60,13448,,,,,,,,,,,,,,,,,,,,,,,,,,,,,,,,,,,,,,,,,,,,,,,,,,,,,,,,,,,,,,,,,
,,,,,,,,,,,,l,0.58452,Correct!,0,21,21,57,1,t2.png,t4.png,2,0.059078,19,Female,2020-09-17_15h49.13.560,torte-2b,2020.1.3,MacIntel,60,13448,,,,,,,,,,,,,,,,,,,,,,,,,,,,,,,,,,,,,,,,,,,,,,,,,,,,,,,,,,,,,,,,,
,,,,,,,,,,,,l,0.48851,Correct!,0,22,22,40,1,t1.png,t5.png,4,9.55E-11,19,Female,2020-09-17_15h49.13.560,torte-2b,2020.1.3,MacIntel,60,13448,,,,,,,,,,,,,,,,,,,,,,,,,,,,,,,,,,,,,,,,,,,,,,,,,,,,,,,,,,,,,,,,,
,,,,,,,,,,,,a,0.642745,Correct!,0,23,23,75,1,t1.png,t1.png,0,0.97829,19,Female,2020-09-17_15h49.13.560,torte-2b,2020.1.3,MacIntel,60,13448,,,,,,,,,,,,,,,,,,,,,,,,,,,,,,,,,,,,,,,,,,,,,,,,,,,,,,,,,,,,,,,,,
,,,,,,,,,,,,a,1.97333,Correct!,0,24,24,104,1,t2.png,t3.png,1,0.90855,19,Female,2020-09-17_15h49.13.560,torte-2b,2020.1.3,MacIntel,60,13448,,,,,,,,,,,,,,,,,,,,,,,,,,,,,,,,,,,,,,,,,,,,,,,,,,,,,,,,,,,,,,,,,
,,,,,,,,,,,,a,0.712045,Correct!,0,25,25,92,1,t2.png,t3.png,1,0.909,19,Female,2020-09-17_15h49.13.560,torte-2b,2020.1.3,MacIntel,60,13448,,,,,,,,,,,,,,,,,,,,,,,,,,,,,,,,,,,,,,,,,,,,,,,,,,,,,,,,,,,,,,,,,
,,,,,,,,,,,,l,0.71899,Incorrect,0,26,26,29,1,t5.png,t5.png,0,0.97829,19,Female,2020-09-17_15h49.13.560,torte-2b,2020.1.3,MacIntel,60,13448,,,,,,,,,,,,,,,,,,,,,,,,,,,,,,,,,,,,,,,,,,,,,,,,,,,,,,,,,,,,,,,,,
,,,,,,,,,,,,a,0.52493,Correct!,0,27,27,49,1,t4.png,t5.png,1,0.9,19,Female,2020-09-17_15h49.13.560,torte-2b,2020.1.3,MacIntel,60,13448,,,,,,,,,,,,,,,,,,,,,,,,,,,,,,,,,,,,,,,,,,,,,,,,,,,,,,,,,,,,,,,,,
,,,,,,,,,,,,l,0.818745,Incorrect,0,28,28,112,1,t1.png,t1.png,0,0.97829,19,Female,2020-09-17_15h49.13.560,torte-2b,2020.1.3,MacIntel,60,13448,,,,,,,,,,,,,,,,,,,,,,,,,,,,,,,,,,,,,,,,,,,,,,,,,,,,,,,,,,,,,,,,,
,,,,,,,,,,,,a,0.35541,Correct!,0,29,29,34,1,t5.png,t4.png,1,0.9,19,Female,2020-09-17_15h49.13.560,torte-2b,2020.1.3,MacIntel,60,13448,,,,,,,,,,,,,,,,,,,,,,,,,,,,,,,,,,,,,,,,,,,,,,,,,,,,,,,,,,,,,,,,,
,,,,,,,,,,,,a,0.504015,Correct!,0,30,30,16,1,t5.png,t4.png,1,0.9,19,Female,2020-09-17_15h49.13.560,torte-2b,2020.1.3,MacIntel,60,13448,,,,,,,,,,,,,,,,,,,,,,,,,,,,,,,,,,,,,,,,,,,,,,,,,,,,,,,,,,,,,,,,,
,,,,,,,,,,,,l,0.83622,Incorrect,0,31,31,15,1,t3.png,t2.png,1,0.90855,19,Female,2020-09-17_15h49.13.560,torte-2b,2020.1.3,MacIntel,60,13448,,,,,,,,,,,,,,,,,,,,,,,,,,,,,,,,,,,,,,,,,,,,,,,,,,,,,,,,,,,,,,,,,
,,,,,,,,,,,,l,0.701225,Correct!,0,32,32,54,1,t1.png,t5.png,4,9.55E-11,19,Female,2020-09-17_15h49.13.560,torte-2b,2020.1.3,MacIntel,60,13448,,,,,,,,,,,,,,,,,,,,,,,,,,,,,,,,,,,,,,,,,,,,,,,,,,,,,,,,,,,,,,,,,
,,,,,,,,,,,,a,0.46908,Incorrect,0,33,33,103,1,t3.png,t1.png,2,0.056466,19,Female,2020-09-17_15h49.13.560,torte-2b,2020.1.3,MacIntel,60,13448,,,,,,,,,,,,,,,,,,,,,,,,,,,,,,,,,,,,,,,,,,,,,,,,,,,,,,,,,,,,,,,,,
,,,,,,,,,,,,a,0.66921,Incorrect,0,34,34,50,1,t5.png,t1.png,4,9.55E-11,19,Female,2020-09-17_15h49.13.560,torte-2b,2020.1.3,MacIntel,60,13448,,,,,,,,,,,,,,,,,,,,,,,,,,,,,,,,,,,,,,,,,,,,,,,,,,,,,,,,,,,,,,,,,
,,,,,,,,,,,,l,0.711325,Correct!,0,35,35,99,1,t1.png,t5.png,4,9.55E-11,19,Female,2020-09-17_15h49.13.560,torte-2b,2020.1.3,MacIntel,60,13448,,,,,,,,,,,,,,,,,,,,,,,,,,,,,,,,,,,,,,,,,,,,,,,,,,,,,,,,,,,,,,,,,
,,,,,,,,,,,,l,1.219755,Correct!,0,36,36,14,1,t2.png,t4.png,2,0.059078,19,Female,2020-09-17_15h49.13.560,torte-2b,2020.1.3,MacIntel,60,13448,,,,,,,,,,,,,,,,,,,,,,,,,,,,,,,,,,,,,,,,,,,,,,,,,,,,,,,,,,,,,,,,,
,,,,,,,,,,,,a,1.66377,Correct!,0,37,37,101,1,t4.png,t5.png,1,0.90025,19,Female,2020-09-17_15h49.13.560,torte-2b,2020.1.3,MacIntel,60,13448,,,,,,,,,,,,,,,,,,,,,,,,,,,,,,,,,,,,,,,,,,,,,,,,,,,,,,,,,,,,,,,,,
,,,,,,,,,,,,l,1.08707,Incorrect,0,38,38,22,1,t2.png,t3.png,1,0.90855,19,Female,2020-09-17_15h49.13.560,torte-2b,2020.1.3,MacIntel,60,13448,,,,,,,,,,,,,,,,,,,,,,,,,,,,,,,,,,,,,,,,,,,,,,,,,,,,,,,,,,,,,,,,,
,,,,,,,,,,,,a,1.1765,Incorrect,0,39,39,83,1,t3.png,t1.png,2,0.056466,19,Female,2020-09-17_15h49.13.560,torte-2b,2020.1.3,MacIntel,60,13448,,,,,,,,,,,,,,,,,,,,,,,,,,,,,,,,,,,,,,,,,,,,,,,,,,,,,,,,,,,,,,,,,
,,,,,,,,,,,,l,0.653905,Correct!,0,40,40,91,1,t1.png,t4.png,3,0.0000131,19,Female,2020-09-17_15h49.13.560,torte-2b,2020.1.3,MacIntel,60,13448,,,,,,,,,,,,,,,,,,,,,,,,,,,,,,,,,,,,,,,,,,,,,,,,,,,,,,,,,,,,,,,,,
,,,,,,,,,,,,l,1.75755,Incorrect,0,41,41,84,1,t1.png,t1.png,0,0.97829,19,Female,2020-09-17_15h49.13.560,torte-2b,2020.1.3,MacIntel,60,13448,,,,,,,,,,,,,,,,,,,,,,,,,,,,,,,,,,,,,,,,,,,,,,,,,,,,,,,,,,,,,,,,,
,,,,,,,,,,,,l,1.4138,Incorrect,0,42,42,9,1,t4.png,t5.png,1,0.9,19,Female,2020-09-17_15h49.13.560,torte-2b,2020.1.3,MacIntel,60,13448,,,,,,,,,,,,,,,,,,,,,,,,,,,,,,,,,,,,,,,,,,,,,,,,,,,,,,,,,,,,,,,,,
,,,,,,,,,,,,l,0.77246,Correct!,0,43,43,35,1,t1.png,t4.png,3,0.0000131,19,Female,2020-09-17_15h49.13.560,torte-2b,2020.1.3,MacIntel,60,13448,,,,,,,,,,,,,,,,,,,,,,,,,,,,,,,,,,,,,,,,,,,,,,,,,,,,,,,,,,,,,,,,,
,,,,,,,,,,,,l,0.74209,Incorrect,0,44,44,77,1,t1.png,t1.png,0,0.97829,19,Female,2020-09-17_15h49.13.560,torte-2b,2020.1.3,MacIntel,60,13448,,,,,,,,,,,,,,,,,,,,,,,,,,,,,,,,,,,,,,,,,,,,,,,,,,,,,,,,,,,,,,,,,
,,,,,,,,,,,,a,0.618425,Incorrect,0,45,45,38,1,t3.png,t1.png,2,0.056466,19,Female,2020-09-17_15h49.13.560,torte-2b,2020.1.3,MacIntel,60,13448,,,,,,,,,,,,,,,,,,,,,,,,,,,,,,,,,,,,,,,,,,,,,,,,,,,,,,,,,,,,,,,,,
,,,,,,,,,,,,l,1.01021,Incorrect,0,46,46,20,1,t2.png,t3.png,1,0.90855,19,Female,2020-09-17_15h49.13.560,torte-2b,2020.1.3,MacIntel,60,13448,,,,,,,,,,,,,,,,,,,,,,,,,,,,,,,,,,,,,,,,,,,,,,,,,,,,,,,,,,,,,,,,,
,,,,,,,,,,,,l,1.505185,Correct!,0,47,47,93,1,t2.png,t4.png,2,0.059078,19,Female,2020-09-17_15h49.13.560,torte-2b,2020.1.3,MacIntel,60,13448,,,,,,,,,,,,,,,,,,,,,,,,,,,,,,,,,,,,,,,,,,,,,,,,,,,,,,,,,,,,,,,,,
,,,,,,,,,,,,l,0.805475,Incorrect,0,48,48,44,1,t2.png,t3.png,1,0.909,19,Female,2020-09-17_15h49.13.560,torte-2b,2020.1.3,MacIntel,60,13448,,,,,,,,,,,,,,,,,,,,,,,,,,,,,,,,,,,,,,,,,,,,,,,,,,,,,,,,,,,,,,,,,
,,,,,,,,,,,,a,0.62229,Correct!,0,49,49,32,1,t4.png,t5.png,1,0.90025,19,Female,2020-09-17_15h49.13.560,torte-2b,2020.1.3,MacIntel,60,13448,,,,,,,,,,,,,,,,,,,,,,,,,,,,,,,,,,,,,,,,,,,,,,,,,,,,,,,,,,,,,,,,,
,,,,,,,,,,,,a,0.301575,Incorrect,0,50,50,17,1,t1.png,t4.png,3,0.0000131,19,Female,2020-09-17_15h49.13.560,torte-2b,2020.1.3,MacIntel,60,13448,,,,,,,,,,,,,,,,,,,,,,,,,,,,,,,,,,,,,,,,,,,,,,,,,,,,,,,,,,,,,,,,,
,,,,,,,,,,,,a,0.90366,Correct!,0,51,51,96,1,t1.png,t1.png,0,0.97829,19,Female,2020-09-17_15h49.13.560,torte-2b,2020.1.3,MacIntel,60,13448,,,,,,,,,,,,,,,,,,,,,,,,,,,,,,,,,,,,,,,,,,,,,,,,,,,,,,,,,,,,,,,,,
,,,,,,,,,,,,a,0.48586,Incorrect,0,52,52,12,1,t5.png,t1.png,4,9.55E-11,19,Female,2020-09-17_15h49.13.560,torte-2b,2020.1.3,MacIntel,60,13448,,,,,,,,,,,,,,,,,,,,,,,,,,,,,,,,,,,,,,,,,,,,,,,,,,,,,,,,,,,,,,,,,
,,,,,,,,,,,,l,0.572725,Correct!,0,53,53,102,1,t4.png,t2.png,2,0.059078,19,Female,2020-09-17_15h49.13.560,torte-2b,2020.1.3,MacIntel,60,13448,,,,,,,,,,,,,,,,,,,,,,,,,,,,,,,,,,,,,,,,,,,,,,,,,,,,,,,,,,,,,,,,,
,,,,,,,,,,,,l,0.593385,Correct!,0,54,54,30,1,t3.png,t1.png,2,0.056466,19,Female,2020-09-17_15h49.13.560,torte-2b,2020.1.3,MacIntel,60,13448,,,,,,,,,,,,,,,,,,,,,,,,,,,,,,,,,,,,,,,,,,,,,,,,,,,,,,,,,,,,,,,,,
,,,,,,,,,,,,a,0.46885,Incorrect,0,55,55,108,1,t5.png,t1.png,4,9.55E-11,19,Female,2020-09-17_15h49.13.560,torte-2b,2020.1.3,MacIntel,60,13448,,,,,,,,,,,,,,,,,,,,,,,,,,,,,,,,,,,,,,,,,,,,,,,,,,,,,,,,,,,,,,,,,
,,,,,,,,,,,,l,0.572565,Correct!,0,56,56,110,1,t4.png,t5.png,1,0.90025,19,Female,2020-09-17_15h49.13.560,torte-2b,2020.1.3,MacIntel,60,13448,,,,,,,,,,,,,,,,,,,,,,,,,,,,,,,,,,,,,,,,,,,,,,,,,,,,,,,,,,,,,,,,,
,,,,,,,,,,,,l,0.618175,Incorrect,0,57,57,62,1,t5.png,t5.png,0,0.978,19,Female,2020-09-17_15h49.13.560,torte-2b,2020.1.3,MacIntel,60,13448,,,,,,,,,,,,,,,,,,,,,,,,,,,,,,,,,,,,,,,,,,,,,,,,,,,,,,,,,,,,,,,,,
,,,,,,,,,,,,a,0.56828,Correct!,0,58,58,41,1,t3.png,t2.png,1,0.90855,19,Female,2020-09-17_15h49.13.560,torte-2b,2020.1.3,MacIntel,60,13448,,,,,,,,,,,,,,,,,,,,,,,,,,,,,,,,,,,,,,,,,,,,,,,,,,,,,,,,,,,,,,,,,
,,,,,,,,,,,,a,0.58493,Incorrect,0,59,59,24,1,t4.png,t2.png,2,0.059078,19,Female,2020-09-17_15h49.13.560,torte-2b,2020.1.3,MacIntel,60,13448,,,,,,,,,,,,,,,,,,,,,,,,,,,,,,,,,,,,,,,,,,,,,,,,,,,,,,,,,,,,,,,,,
,,,,,,,,,,,,l,0.555915,Incorrect,0,60,60,64,1,t1.png,t1.png,0,0.978,19,Female,2020-09-17_15h49.13.560,torte-2b,2020.1.3,MacIntel,60,13448,,,,,,,,,,,,,,,,,,,,,,,,,,,,,,,,,,,,,,,,,,,,,,,,,,,,,,,,,,,,,,,,,
,,,,,,,,,,,,a,0.653185,Correct!,0,61,61,95,1,t1.png,t1.png,0,0.978,19,Female,2020-09-17_15h49.13.560,torte-2b,2020.1.3,MacIntel,60,13448,,,,,,,,,,,,,,,,,,,,,,,,,,,,,,,,,,,,,,,,,,,,,,,,,,,,,,,,,,,,,,,,,
,,,,,,,,,,,,a,0.591895,Correct!,0,62,62,7,1,t4.png,t5.png,1,0.90025,19,Female,2020-09-17_15h49.13.560,torte-2b,2020.1.3,MacIntel,60,13448,,,,,,,,,,,,,,,,,,,,,,,,,,,,,,,,,,,,,,,,,,,,,,,,,,,,,,,,,,,,,,,,,
,,,,,,,,,,,,a,0.718395,Correct!,0,63,63,18,1,t4.png,t5.png,1,0.90025,19,Female,2020-09-17_15h49.13.560,torte-2b,2020.1.3,MacIntel,60,13448,,,,,,,,,,,,,,,,,,,,,,,,,,,,,,,,,,,,,,,,,,,,,,,,,,,,,,,,,,,,,,,,,
,,,,,,,,,,,,a,0.48551,Incorrect,0,64,64,26,1,t4.png,t2.png,2,0.0591,19,Female,2020-09-17_15h49.13.560,torte-2b,2020.1.3,MacIntel,60,13448,,,,,,,,,,,,,,,,,,,,,,,,,,,,,,,,,,,,,,,,,,,,,,,,,,,,,,,,,,,,,,,,,
,,,,,,,,,,,,l,0.60409,Correct!,0,65,65,117,1,t1.png,t5.png,4,9.55E-11,19,Female,2020-09-17_15h49.13.560,torte-2b,2020.1.3,MacIntel,60,13448,,,,,,,,,,,,,,,,,,,,,,,,,,,,,,,,,,,,,,,,,,,,,,,,,,,,,,,,,,,,,,,,,
,,,,,,,,,,,,l,0.570135,Incorrect,0,66,66,21,1,t5.png,t4.png,1,0.90025,19,Female,2020-09-17_15h49.13.560,torte-2b,2020.1.3,MacIntel,60,13448,,,,,,,,,,,,,,,,,,,,,,,,,,,,,,,,,,,,,,,,,,,,,,,,,,,,,,,,,,,,,,,,,
,,,,,,,,,,,,a,0.537535,Incorrect,0,67,67,33,1,t5.png,t1.png,4,9.55E-11,19,Female,2020-09-17_15h49.13.560,torte-2b,2020.1.3,MacIntel,60,13448,,,,,,,,,,,,,,,,,,,,,,,,,,,,,,,,,,,,,,,,,,,,,,,,,,,,,,,,,,,,,,,,,
,,,,,,,,,,,,l,0.485105,Correct!,0,68,68,61,1,t1.png,t4.png,3,0.0000131,19,Female,2020-09-17_15h49.13.560,torte-2b,2020.1.3,MacIntel,60,13448,,,,,,,,,,,,,,,,,,,,,,,,,,,,,,,,,,,,,,,,,,,,,,,,,,,,,,,,,,,,,,,,,
,,,,,,,,,,,,a,0.286585,Incorrect,0,69,69,60,1,t2.png,t4.png,2,0.059078,19,Female,2020-09-17_15h49.13.560,torte-2b,2020.1.3,MacIntel,60,13448,,,,,,,,,,,,,,,,,,,,,,,,,,,,,,,,,,,,,,,,,,,,,,,,,,,,,,,,,,,,,,,,,
,,,,,,,,,,,,a,0.920425,Incorrect,0,70,70,47,1,t4.png,t2.png,2,0.059078,19,Female,2020-09-17_15h49.13.560,torte-2b,2020.1.3,MacIntel,60,13448,,,,,,,,,,,,,,,,,,,,,,,,,,,,,,,,,,,,,,,,,,,,,,,,,,,,,,,,,,,,,,,,,
,,,,,,,,,,,,l,0.320325,Correct!,0,71,71,37,1,t1.png,t4.png,3,0.0000131,19,Female,2020-09-17_15h49.13.560,torte-2b,2020.1.3,MacIntel,60,13448,,,,,,,,,,,,,,,,,,,,,,,,,,,,,,,,,,,,,,,,,,,,,,,,,,,,,,,,,,,,,,,,,
,,,,,,,,,,,,l,0.65653,Incorrect,0,72,72,116,1,t5.png,t4.png,1,0.90025,19,Female,2020-09-17_15h49.13.560,torte-2b,2020.1.3,MacIntel,60,13448,,,,,,,,,,,,,,,,,,,,,,,,,,,,,,,,,,,,,,,,,,,,,,,,,,,,,,,,,,,,,,,,,
,,,,,,,,,,,,l,1.14074,Incorrect,0,73,73,10,1,t2.png,t3.png,1,0.90855,19,Female,2020-09-17_15h49.13.560,torte-2b,2020.1.3,MacIntel,60,13448,,,,,,,,,,,,,,,,,,,,,,,,,,,,,,,,,,,,,,,,,,,,,,,,,,,,,,,,,,,,,,,,,
,,,,,,,,,,,,l,0.892305,Correct!,0,74,74,73,1,t4.png,t2.png,2,0.059078,19,Female,2020-09-17_15h49.13.560,torte-2b,2020.1.3,MacIntel,60,13448,,,,,,,,,,,,,,,,,,,,,,,,,,,,,,,,,,,,,,,,,,,,,,,,,,,,,,,,,,,,,,,,,
,,,,,,,,,,,,a,1.16195,Correct!,0,75,75,27,1,t3.png,t1.png,2,0.0565,19,Female,2020-09-17_15h49.13.560,torte-2b,2020.1.3,MacIntel,60,13448,,,,,,,,,,,,,,,,,,,,,,,,,,,,,,,,,,,,,,,,,,,,,,,,,,,,,,,,,,,,,,,,,
,,,,,,,,,,,,l,0.935505,Correct!,0,76,76,1,1,t2.png,t4.png,2,0.059078,19,Female,2020-09-17_15h49.13.560,torte-2b,2020.1.3,MacIntel,60,13448,,,,,,,,,,,,,,,,,,,,,,,,,,,,,,,,,,,,,,,,,,,,,,,,,,,,,,,,,,,,,,,,,
,,,,,,,,,,,,a,1.487275,Correct!,0,77,77,97,1,t5.png,t5.png,0,0.97829,19,Female,2020-09-17_15h49.13.560,torte-2b,2020.1.3,MacIntel,60,13448,,,,,,,,,,,,,,,,,,,,,,,,,,,,,,,,,,,,,,,,,,,,,,,,,,,,,,,,,,,,,,,,,
,,,,,,,,,,,,a,0.9028,Correct!,0,78,78,65,1,t4.png,t5.png,1,0.90025,19,Female,2020-09-17_15h49.13.560,torte-2b,2020.1.3,MacIntel,60,13448,,,,,,,,,,,,,,,,,,,,,,,,,,,,,,,,,,,,,,,,,,,,,,,,,,,,,,,,,,,,,,,,,
,,,,,,,,,,,,a,0.62027,Incorrect,0,79,79,0,1,t5.png,t1.png,4,9.55E-11,19,Female,2020-09-17_15h49.13.560,torte-2b,2020.1.3,MacIntel,60,13448,,,,,,,,,,,,,,,,,,,,,,,,,,,,,,,,,,,,,,,,,,,,,,,,,,,,,,,,,,,,,,,,,
,,,,,,,,,,,,l,0.808925,Incorrect,0,80,80,105,1,t3.png,t2.png,1,0.90855,19,Female,2020-09-17_15h49.13.560,torte-2b,2020.1.3,MacIntel,60,13448,,,,,,,,,,,,,,,,,,,,,,,,,,,,,,,,,,,,,,,,,,,,,,,,,,,,,,,,,,,,,,,,,
,,,,,,,,,,,,a,0.885885,Incorrect,0,81,81,5,1,t2.png,t4.png,2,0.059078,19,Female,2020-09-17_15h49.13.560,torte-2b,2020.1.3,MacIntel,60,13448,,,,,,,,,,,,,,,,,,,,,,,,,,,,,,,,,,,,,,,,,,,,,,,,,,,,,,,,,,,,,,,,,
,,,,,,,,,,,,l,0.921495,Incorrect,0,82,82,48,1,t5.png,t5.png,0,0.97829,19,Female,2020-09-17_15h49.13.560,torte-2b,2020.1.3,MacIntel,60,13448,,,,,,,,,,,,,,,,,,,,,,,,,,,,,,,,,,,,,,,,,,,,,,,,,,,,,,,,,,,,,,,,,
,,,,,,,,,,,,a,0.6937,Correct!,0,83,83,70,1,t5.png,t5.png,0,0.978,19,Female,2020-09-17_15h49.13.560,torte-2b,2020.1.3,MacIntel,60,13448,,,,,,,,,,,,,,,,,,,,,,,,,,,,,,,,,,,,,,,,,,,,,,,,,,,,,,,,,,,,,,,,,
,,,,,,,,,,,,l,1.18969,Correct!,0,84,84,4,1,t1.png,t5.png,4,9.55E-11,19,Female,2020-09-17_15h49.13.560,torte-2b,2020.1.3,MacIntel,60,13448,,,,,,,,,,,,,,,,,,,,,,,,,,,,,,,,,,,,,,,,,,,,,,,,,,,,,,,,,,,,,,,,,
,,,,,,,,,,,,a,0.70904,Correct!,0,85,85,76,1,t3.png,t2.png,1,0.90855,19,Female,2020-09-17_15h49.13.560,torte-2b,2020.1.3,MacIntel,60,13448,,,,,,,,,,,,,,,,,,,,,,,,,,,,,,,,,,,,,,,,,,,,,,,,,,,,,,,,,,,,,,,,,
,,,,,,,,,,,,a,1.14189,Correct!,0,86,86,66,1,t4.png,t5.png,1,0.9,19,Female,2020-09-17_15h49.13.560,torte-2b,2020.1.3,MacIntel,60,13448,,,,,,,,,,,,,,,,,,,,,,,,,,,,,,,,,,,,,,,,,,,,,,,,,,,,,,,,,,,,,,,,,
,,,,,,,,,,,,l,0.819595,Correct!,0,87,87,3,1,t1.png,t5.png,4,9.55E-11,19,Female,2020-09-17_15h49.13.560,torte-2b,2020.1.3,MacIntel,60,13448,,,,,,,,,,,,,,,,,,,,,,,,,,,,,,,,,,,,,,,,,,,,,,,,,,,,,,,,,,,,,,,,,
,,,,,,,,,,,,l,0.757575,Correct!,0,88,88,90,1,t1.png,t5.png,4,9.55E-11,19,Female,2020-09-17_15h49.13.560,torte-2b,2020.1.3,MacIntel,60,13448,,,,,,,,,,,,,,,,,,,,,,,,,,,,,,,,,,,,,,,,,,,,,,,,,,,,,,,,,,,,,,,,,
,,,,,,,,,,,,a,0.920145,Correct!,0,89,89,118,1,t5.png,t5.png,0,0.978,19,Female,2020-09-17_15h49.13.560,torte-2b,2020.1.3,MacIntel,60,13448,,,,,,,,,,,,,,,,,,,,,,,,,,,,,,,,,,,,,,,,,,,,,,,,,,,,,,,,,,,,,,,,,
,,,,,,,,,,,,a,0.95869,Correct!,0,90,90,71,1,t5.png,t5.png,0,0.97829,19,Female,2020-09-17_15h49.13.560,torte-2b,2020.1.3,MacIntel,60,13448,,,,,,,,,,,,,,,,,,,,,,,,,,,,,,,,,,,,,,,,,,,,,,,,,,,,,,,,,,,,,,,,,
,,,,,,,,,,,,a,1.19537,Correct!,0,91,91,8,1,t3.png,t2.png,1,0.90855,19,Female,2020-09-17_15h49.13.560,torte-2b,2020.1.3,MacIntel,60,13448,,,,,,,,,,,,,,,,,,,,,,,,,,,,,,,,,,,,,,,,,,,,,,,,,,,,,,,,,,,,,,,,,
,,,,,,,,,,,,l,1.822255,Correct!,0,92,92,11,1,t1.png,t4.png,3,0.0000131,19,Female,2020-09-17_15h49.13.560,torte-2b,2020.1.3,MacIntel,60,13448,,,,,,,,,,,,,,,,,,,,,,,,,,,,,,,,,,,,,,,,,,,,,,,,,,,,,,,,,,,,,,,,,
,,,,,,,,,,,,a,0.828755,Correct!,0,93,93,113,1,t5.png,t4.png,1,0.9,19,Female,2020-09-17_15h49.13.560,torte-2b,2020.1.3,MacIntel,60,13448,,,,,,,,,,,,,,,,,,,,,,,,,,,,,,,,,,,,,,,,,,,,,,,,,,,,,,,,,,,,,,,,,
,,,,,,,,,,,,,,Too slow :(,0,94,94,119,1,t1.png,t5.png,4,9.55E-11,19,Female,2020-09-17_15h49.13.560,torte-2b,2020.1.3,MacIntel,60,13448,,,,,,,,,,,,,,,,,,,,,,,,,,,,,,,,,,,,,,,,,,,,,,,,,,,,,,,,,,,,,,,,,
,,,,,,,,,,,,l,0.9535,Incorrect,0,95,95,100,1,t4.png,t5.png,1,0.90025,19,Female,2020-09-17_15h49.13.560,torte-2b,2020.1.3,MacIntel,60,13448,,,,,,,,,,,,,,,,,,,,,,,,,,,,,,,,,,,,,,,,,,,,,,,,,,,,,,,,,,,,,,,,,
,,,,,,,,,,,,a,0.317855,Incorrect,0,96,96,56,1,t5.png,t1.png,4,9.55E-11,19,Female,2020-09-17_15h49.13.560,torte-2b,2020.1.3,MacIntel,60,13448,,,,,,,,,,,,,,,,,,,,,,,,,,,,,,,,,,,,,,,,,,,,,,,,,,,,,,,,,,,,,,,,,
,,,,,,,,,,,,l,0.33442,Incorrect,0,97,97,63,1,t2.png,t3.png,1,0.909,19,Female,2020-09-17_15h49.13.560,torte-2b,2020.1.3,MacIntel,60,13448,,,,,,,,,,,,,,,,,,,,,,,,,,,,,,,,,,,,,,,,,,,,,,,,,,,,,,,,,,,,,,,,,
,,,,,,,,,,,,l,0.29286,Correct!,0,98,98,88,1,t3.png,t1.png,2,0.056466,19,Female,2020-09-17_15h49.13.560,torte-2b,2020.1.3,MacIntel,60,13448,,,,,,,,,,,,,,,,,,,,,,,,,,,,,,,,,,,,,,,,,,,,,,,,,,,,,,,,,,,,,,,,,
,,,,,,,,,,,,l,0.31873,Incorrect,0,99,99,115,1,t2.png,t4.png,2,0.059078,19,Female,2020-09-17_15h49.13.560,torte-2b,2020.1.3,MacIntel,60,13448,,,,,,,,,,,,,,,,,,,,,,,,,,,,,,,,,,,,,,,,,,,,,,,,,,,,,,,,,,,,,,,,,
,,,,,,,,,,,,a,0.501135,Correct!,0,100,100,39,1,t3.png,t2.png,1,0.90855,19,Female,2020-09-17_15h49.13.560,torte-2b,2020.1.3,MacIntel,60,13448,,,,,,,,,,,,,,,,,,,,,,,,,,,,,,,,,,,,,,,,,,,,,,,,,,,,,,,,,,,,,,,,,
,,,,,,,,,,,,a,0.437805,Correct!,0,101,101,81,1,t1.png,t1.png,0,0.97829,19,Female,2020-09-17_15h49.13.560,torte-2b,2020.1.3,MacIntel,60,13448,,,,,,,,,,,,,,,,,,,,,,,,,,,,,,,,,,,,,,,,,,,,,,,,,,,,,,,,,,,,,,,,,
,,,,,,,,,,,,a,0.704945,Correct!,0,102,102,85,1,t3.png,t2.png,1,0.90855,19,Female,2020-09-17_15h49.13.560,torte-2b,2020.1.3,MacIntel,60,13448,,,,,,,,,,,,,,,,,,,,,,,,,,,,,,,,,,,,,,,,,,,,,,,,,,,,,,,,,,,,,,,,,
,,,,,,,,,,,,a,0.36895,Incorrect,0,103,103,52,1,t2.png,t4.png,2,0.059078,19,Female,2020-09-17_15h49.13.560,torte-2b,2020.1.3,MacIntel,60,13448,,,,,,,,,,,,,,,,,,,,,,,,,,,,,,,,,,,,,,,,,,,,,,,,,,,,,,,,,,,,,,,,,
,,,,,,,,,,,,l,0.28395,Correct!,0,104,104,89,1,t1.png,t4.png,3,0.0000131,19,Female,2020-09-17_15h49.13.560,torte-2b,2020.1.3,MacIntel,60,13448,,,,,,,,,,,,,,,,,,,,,,,,,,,,,,,,,,,,,,,,,,,,,,,,,,,,,,,,,,,,,,,,,
,,,,,,,,,,,,l,0.853145,Incorrect,0,105,105,109,1,t5.png,t5.png,0,0.97829,19,Female,2020-09-17_15h49.13.560,torte-2b,2020.1.3,MacIntel,60,13448,,,,,,,,,,,,,,,,,,,,,,,,,,,,,,,,,,,,,,,,,,,,,,,,,,,,,,,,,,,,,,,,,
,,,,,,,,,,,,a,0.234605,Correct!,0,106,106,13,1,t5.png,t5.png,0,0.97829,19,Female,2020-09-17_15h49.13.560,torte-2b,2020.1.3,MacIntel,60,13448,,,,,,,,,,,,,,,,,,,,,,,,,,,,,,,,,,,,,,,,,,,,,,,,,,,,,,,,,,,,,,,,,
,,,,,,,,,,,,a,0.318475,Incorrect,0,107,107,69,1,t4.png,t2.png,2,0.059078,19,Female,2020-09-17_15h49.13.560,torte-2b,2020.1.3,MacIntel,60,13448,,,,,,,,,,,,,,,,,,,,,,,,,,,,,,,,,,,,,,,,,,,,,,,,,,,,,,,,,,,,,,,,,
,,,,,,,,,,,,l,0.258695,Incorrect,0,108,108,45,1,t3.png,t2.png,1,0.90855,19,Female,2020-09-17_15h49.13.560,torte-2b,2020.1.3,MacIntel,60,13448,,,,,,,,,,,,,,,,,,,,,,,,,,,,,,,,,,,,,,,,,,,,,,,,,,,,,,,,,,,,,,,,,
,,,,,,,,,,,,a,0.25856,Correct!,0,109,109,107,1,t1.png,t1.png,0,0.978,19,Female,2020-09-17_15h49.13.560,torte-2b,2020.1.3,MacIntel,60,13448,,,,,,,,,,,,,,,,,,,,,,,,,,,,,,,,,,,,,,,,,,,,,,,,,,,,,,,,,,,,,,,,,
,,,,,,,,,,,,l,0.670965,Correct!,0,110,110,68,1,t1.png,t4.png,3,0.0000131,19,Female,2020-09-17_15h49.13.560,torte-2b,2020.1.3,MacIntel,60,13448,,,,,,,,,,,,,,,,,,,,,,,,,,,,,,,,,,,,,,,,,,,,,,,,,,,,,,,,,,,,,,,,,
,,,,,,,,,,,,a,0.960805,Correct!,0,111,111,74,1,t5.png,t4.png,1,0.9,19,Female,2020-09-17_15h49.13.560,torte-2b,2020.1.3,MacIntel,60,13448,,,,,,,,,,,,,,,,,,,,,,,,,,,,,,,,,,,,,,,,,,,,,,,,,,,,,,,,,,,,,,,,,
,,,,,,,,,,,,a,0.3768,Correct!,0,112,112,78,1,t1.png,t1.png,0,0.978,19,Female,2020-09-17_15h49.13.560,torte-2b,2020.1.3,MacIntel,60,13448,,,,,,,,,,,,,,,,,,,,,,,,,,,,,,,,,,,,,,,,,,,,,,,,,,,,,,,,,,,,,,,,,
,,,,,,,,,,,,a,0.720935,Incorrect,0,113,113,19,1,t4.png,t2.png,2,0.059078,19,Female,2020-09-17_15h49.13.560,torte-2b,2020.1.3,MacIntel,60,13448,,,,,,,,,,,,,,,,,,,,,,,,,,,,,,,,,,,,,,,,,,,,,,,,,,,,,,,,,,,,,,,,,
,,,,,,,,,,,,l,0.624435,Correct!,0,114,114,55,1,t2.png,t4.png,2,0.059078,19,Female,2020-09-17_15h49.13.560,torte-2b,2020.1.3,MacIntel,60,13448,,,,,,,,,,,,,,,,,,,,,,,,,,,,,,,,,,,,,,,,,,,,,,,,,,,,,,,,,,,,,,,,,
,,,,,,,,,,,,a,1.18704,Incorrect,0,115,115,86,1,t3.png,t1.png,2,0.056466,19,Female,2020-09-17_15h49.13.560,torte-2b,2020.1.3,MacIntel,60,13448,,,,,,,,,,,,,,,,,,,,,,,,,,,,,,,,,,,,,,,,,,,,,,,,,,,,,,,,,,,,,,,,,
,,,,,,,,,,,,a,1.287555,Incorrect,0,116,116,82,1,t5.png,t1.png,4,9.55E-11,19,Female,2020-09-17_15h49.13.560,torte-2b,2020.1.3,MacIntel,60,13448,,,,,,,,,,,,,,,,,,,,,,,,,,,,,,,,,,,,,,,,,,,,,,,,,,,,,,,,,,,,,,,,,
,,,,,,,,,,,,l,0.6033,Incorrect,0,117,117,2,1,t3.png,t2.png,1,0.90855,19,Female,2020-09-17_15h49.13.560,torte-2b,2020.1.3,MacIntel,60,13448,,,,,,,,,,,,,,,,,,,,,,,,,,,,,,,,,,,,,,,,,,,,,,,,,,,,,,,,,,,,,,,,,
,,,,,,,,,,,,a,0.97041,Correct!,0,118,118,25,1,t5.png,t5.png,0,0.97829,19,Female,2020-09-17_15h49.13.560,torte-2b,2020.1.3,MacIntel,60,13448,,,,,,,,,,,,,,,,,,,,,,,,,,,,,,,,,,,,,,,,,,,,,,,,,,,,,,,,,,,,,,,,,
,,,,,,,,,,,,l,0.489415,Incorrect,0,119,119,79,1,t3.png,t2.png,1,0.909,19,Female,2020-09-17_15h49.13.560,torte-2b,2020.1.3,MacIntel,60,13448,,,,,,,,,,,,,,,,,,,,,,,,,,,,,,,,,,,,,,,,,,,,,,,,,,,,,,,,,,,,,,,,,
,,,,,,,,,,,,a,1.01084,Correct!,,,,,,t5.png,t4.png,1,0.90025,19,Female,2020-09-17_15h49.13.560,torte-2b,2020.1.3,MacIntel,60,13448,space,7.59304,space,10.461455,0,0,0,34,1,,,,,,,,,,,,,,,,,,,,,,,,,,,,,,,,,,,,,,,,,,,,,,,,,,,,,,,,
,,,,,,,,,,,,a,1.842495,Incorrect,,,,,,t3.png,t1.png,2,0.056466,19,Female,2020-09-17_15h49.13.560,torte-2b,2020.1.3,MacIntel,60,13448,,,,,0,1,1,29,1,,,,,,,,,,,,,,,,,,,,,,,,,,,,,,,,,,,,,,,,,,,,,,,,,,,,,,,,
,,,,,,,,,,,,l,0.974315,Correct!,,,,,,t1.png,t4.png,3,0.0000131,19,Female,2020-09-17_15h49.13.560,torte-2b,2020.1.3,MacIntel,60,13448,,,,,0,2,2,81,1,,,,,,,,,,,,,,,,,,,,,,,,,,,,,,,,,,,,,,,,,,,,,,,,,,,,,,,,
,,,,,,,,,,,,a,2.10584,Correct!,,,,,,t5.png,t4.png,1,0.90025,19,Female,2020-09-17_15h49.13.560,torte-2b,2020.1.3,MacIntel,60,13448,,,,,0,3,3,27,1,,,,,,,,,,,,,,,,,,,,,,,,,,,,,,,,,,,,,,,,,,,,,,,,,,,,,,,,
,,,,,,,,,,,,l,0.87785,Incorrect,,,,,,t5.png,t4.png,1,0.9,19,Female,2020-09-17_15h49.13.560,torte-2b,2020.1.3,MacIntel,60,13448,,,,,0,4,4,76,1,,,,,,,,,,,,,,,,,,,,,,,,,,,,,,,,,,,,,,,,,,,,,,,,,,,,,,,,
,,,,,,,,,,,,l,0.907155,Incorrect,,,,,,t2.png,t3.png,1,0.90855,19,Female,2020-09-17_15h49.13.560,torte-2b,2020.1.3,MacIntel,60,13448,,,,,0,5,5,111,1,,,,,,,,,,,,,,,,,,,,,,,,,,,,,,,,,,,,,,,,,,,,,,,,,,,,,,,,
,,,,,,,,,,,,a,0.7078,Incorrect,,,,,,t5.png,t2.png,3,0.0000131,19,Female,2020-09-17_15h49.13.560,torte-2b,2020.1.3,MacIntel,60,13448,,,,,0,6,6,119,1,,,,,,,,,,,,,,,,,,,,,,,,,,,,,,,,,,,,,,,,,,,,,,,,,,,,,,,,
,,,,,,,,,,,,a,0.58568,Incorrect,,,,,,t4.png,t1.png,3,0.0000131,19,Female,2020-09-17_15h49.13.560,torte-2b,2020.1.3,MacIntel,60,13448,,,,,0,7,7,93,1,,,,,,,,,,,,,,,,,,,,,,,,,,,,,,,,,,,,,,,,,,,,,,,,,,,,,,,,
,,,,,,,,,,,,a,1.27922,Correct!,,,,,,t5.png,t5.png,0,0.97829,19,Female,2020-09-17_15h49.13.560,torte-2b,2020.1.3,MacIntel,60,13448,,,,,0,8,8,70,1,,,,,,,,,,,,,,,,,,,,,,,,,,,,,,,,,,,,,,,,,,,,,,,,,,,,,,,,
,,,,,,,,,,,,a,0.96937,Incorrect,,,,,,t4.png,t2.png,2,0.059078,19,Female,2020-09-17_15h49.13.560,torte-2b,2020.1.3,MacIntel,60,13448,,,,,0,9,9,88,1,,,,,,,,,,,,,,,,,,,,,,,,,,,,,,,,,,,,,,,,,,,,,,,,,,,,,,,,
,,,,,,,,,,,,a,1.320425,Correct!,,,,,,t1.png,t1.png,0,0.97829,19,Female,2020-09-17_15h49.13.560,torte-2b,2020.1.3,MacIntel,60,13448,,,,,0,10,10,67,1,,,,,,,,,,,,,,,,,,,,,,,,,,,,,,,,,,,,,,,,,,,,,,,,,,,,,,,,
,,,,,,,,,,,,l,0.54506,Correct!,,,,,,t2.png,t3.png,1,0.90855,19,Female,2020-09-17_15h49.13.560,torte-2b,2020.1.3,MacIntel,60,13448,,,,,0,11,11,10,1,,,,,,,,,,,,,,,,,,,,,,,,,,,,,,,,,,,,,,,,,,,,,,,,,,,,,,,,
,,,,,,,,,,,,l,1.05347,Incorrect,,,,,,t3.png,t4.png,1,0.909,19,Female,2020-09-17_15h49.13.560,torte-2b,2020.1.3,MacIntel,60,13448,,,,,0,12,12,106,1,,,,,,,,,,,,,,,,,,,,,,,,,,,,,,,,,,,,,,,,,,,,,,,,,,,,,,,,
,,,,,,,,,,,,a,1.0624,Correct!,,,,,,t1.png,t1.png,0,0.97829,19,Female,2020-09-17_15h49.13.560,torte-2b,2020.1.3,MacIntel,60,13448,,,,,0,13,13,9,1,,,,,,,,,,,,,,,,,,,,,,,,,,,,,,,,,,,,,,,,,,,,,,,,,,,,,,,,
,,,,,,,,,,,,l,1.888175,Correct!,,,,,,t2.png,t5.png,3,0.0000131,19,Female,2020-09-17_15h49.13.560,torte-2b,2020.1.3,MacIntel,60,13448,,,,,0,14,14,95,1,,,,,,,,,,,,,,,,,,,,,,,,,,,,,,,,,,,,,,,,,,,,,,,,,,,,,,,,
,,,,,,,,,,,,a,1.54202,Incorrect,,,,,,t2.png,t4.png,2,0.059078,19,Female,2020-09-17_15h49.13.560,torte-2b,2020.1.3,MacIntel,60,13448,,,,,0,15,15,77,1,,,,,,,,,,,,,,,,,,,,,,,,,,,,,,,,,,,,,,,,,,,,,,,,,,,,,,,,
,,,,,,,,,,,,l,2.381,Correct!,,,,,,t3.png,t1.png,2,0.056466,19,Female,2020-09-17_15h49.13.560,torte-2b,2020.1.3,MacIntel,60,13448,,,,,0,16,16,64,1,,,,,,,,,,,,,,,,,,,,,,,,,,,,,,,,,,,,,,,,,,,,,,,,,,,,,,,,
,,,,,,,,,,,,l,1.29054,Correct!,,,,,,t4.png,t1.png,3,0.0000131,19,Female,2020-09-17_15h49.13.560,torte-2b,2020.1.3,MacIntel,60,13448,,,,,0,17,17,13,1,,,,,,,,,,,,,,,,,,,,,,,,,,,,,,,,,,,,,,,,,,,,,,,,,,,,,,,,
,,,,,,,,,,,,l,1.24625,Correct!,,,,,,t2.png,t5.png,3,0.0000131,19,Female,2020-09-17_15h49.13.560,torte-2b,2020.1.3,MacIntel,60,13448,,,,,0,18,18,40,1,,,,,,,,,,,,,,,,,,,,,,,,,,,,,,,,,,,,,,,,,,,,,,,,,,,,,,,,
,,,,,,,,,,,,l,1.270755,Correct!,,,,,,t2.png,t5.png,3,0.0000131,19,Female,2020-09-17_15h49.13.560,torte-2b,2020.1.3,MacIntel,60,13448,,,,,0,19,19,66,1,,,,,,,,,,,,,,,,,,,,,,,,,,,,,,,,,,,,,,,,,,,,,,,,,,,,,,,,
,,,,,,,,,,,,a,1.22351,Correct!,,,,,,t4.png,t3.png,1,0.90855,19,Female,2020-09-17_15h49.13.560,torte-2b,2020.1.3,MacIntel,60,13448,,,,,0,20,20,45,1,,,,,,,,,,,,,,,,,,,,,,,,,,,,,,,,,,,,,,,,,,,,,,,,,,,,,,,,
,,,,,,,,,,,,l,1.124115,Incorrect,,,,,,t3.png,t4.png,1,0.909,19,Female,2020-09-17_15h49.13.560,torte-2b,2020.1.3,MacIntel,60,13448,,,,,0,21,21,82,1,,,,,,,,,,,,,,,,,,,,,,,,,,,,,,,,,,,,,,,,,,,,,,,,,,,,,,,,
,,,,,,,,,,,,l,0.70193,Correct!,,,,,,t3.png,t1.png,2,0.0565,19,Female,2020-09-17_15h49.13.560,torte-2b,2020.1.3,MacIntel,60,13448,,,,,0,22,22,31,1,,,,,,,,,,,,,,,,,,,,,,,,,,,,,,,,,,,,,,,,,,,,,,,,,,,,,,,,
,,,,,,,,,,,,l,0.62608,Incorrect,,,,,,t2.png,t1.png,1,0.90025,19,Female,2020-09-17_15h49.13.560,torte-2b,2020.1.3,MacIntel,60,13448,,,,,0,23,23,4,1,,,,,,,,,,,,,,,,,,,,,,,,,,,,,,,,,,,,,,,,,,,,,,,,,,,,,,,,
,,,,,,,,,,,,a,0.88552,Incorrect,,,,,,t1.png,t2.png,1,0.90025,19,Female,2020-09-17_15h49.13.560,torte-2b,2020.1.3,MacIntel,60,13448,,,,,0,24,24,105,1,,,,,,,,,,,,,,,,,,,,,,,,,,,,,,,,,,,,,,,,,,,,,,,,,,,,,,,,
,,,,,,,,,,,,a,0.893045,Incorrect,,,,,,t5.png,t3.png,2,0.056466,19,Female,2020-09-17_15h49.13.560,torte-2b,2020.1.3,MacIntel,60,13448,,,,,0,25,25,56,1,,,,,,,,,,,,,,,,,,,,,,,,,,,,,,,,,,,,,,,,,,,,,,,,,,,,,,,,
,,,,,,,,,,,,a,0.71921,Correct!,,,,,,t1.png,t2.png,1,0.90025,19,Female,2020-09-17_15h49.13.560,torte-2b,2020.1.3,MacIntel,60,13448,,,,,0,26,26,33,1,,,,,,,,,,,,,,,,,,,,,,,,,,,,,,,,,,,,,,,,,,,,,,,,,,,,,,,,
,,,,,,,,,,,,a,0.953745,Correct!,,,,,,t2.png,t2.png,0,0.981,19,Female,2020-09-17_15h49.13.560,torte-2b,2020.1.3,MacIntel,60,13448,,,,,0,27,27,101,1,,,,,,,,,,,,,,,,,,,,,,,,,,,,,,,,,,,,,,,,,,,,,,,,,,,,,,,,
,,,,,,,,,,,,a,0.66123,Incorrect,,,,,,t1.png,t3.png,2,0.056466,19,Female,2020-09-17_15h49.13.560,torte-2b,2020.1.3,MacIntel,60,13448,,,,,0,28,28,87,1,,,,,,,,,,,,,,,,,,,,,,,,,,,,,,,,,,,,,,,,,,,,,,,,,,,,,,,,
,,,,,,,,,,,,l,0.75408,Correct!,,,,,,t3.png,t5.png,2,0.056466,19,Female,2020-09-17_15h49.13.560,torte-2b,2020.1.3,MacIntel,60,13448,,,,,0,29,29,44,1,,,,,,,,,,,,,,,,,,,,,,,,,,,,,,,,,,,,,,,,,,,,,,,,,,,,,,,,
,,,,,,,,,,,,a,0.62747,Incorrect,,,,,,t1.png,t3.png,2,0.056466,19,Female,2020-09-17_15h49.13.560,torte-2b,2020.1.3,MacIntel,60,13448,,,,,0,30,30,60,1,,,,,,,,,,,,,,,,,,,,,,,,,,,,,,,,,,,,,,,,,,,,,,,,,,,,,,,,
,,,,,,,,,,,,a,0.660135,Incorrect,,,,,,t2.png,t4.png,2,0.059078,19,Female,2020-09-17_15h49.13.560,torte-2b,2020.1.3,MacIntel,60,13448,,,,,0,31,31,37,1,,,,,,,,,,,,,,,,,,,,,,,,,,,,,,,,,,,,,,,,,,,,,,,,,,,,,,,,
,,,,,,,,,,,,a,1.445,Incorrect,,,,,,t4.png,t2.png,2,0.059078,19,Female,2020-09-17_15h49.13.560,torte-2b,2020.1.3,MacIntel,60,13448,,,,,0,32,32,86,1,,,,,,,,,,,,,,,,,,,,,,,,,,,,,,,,,,,,,,,,,,,,,,,,,,,,,,,,
,,,,,,,,,,,,l,0.768545,Incorrect,,,,,,t2.png,t1.png,1,0.90025,19,Female,2020-09-17_15h49.13.560,torte-2b,2020.1.3,MacIntel,60,13448,,,,,0,33,33,5,1,,,,,,,,,,,,,,,,,,,,,,,,,,,,,,,,,,,,,,,,,,,,,,,,,,,,,,,,
,,,,,,,,,,,,a,1.306145,Correct!,,,,,,t1.png,t1.png,0,0.978,19,Female,2020-09-17_15h49.13.560,torte-2b,2020.1.3,MacIntel,60,13448,,,,,0,34,34,54,1,,,,,,,,,,,,,,,,,,,,,,,,,,,,,,,,,,,,,,,,,,,,,,,,,,,,,,,,
,,,,,,,,,,,,a,1.32005,Incorrect,,,,,,t5.png,t1.png,4,9.55E-11,19,Female,2020-09-17_15h49.13.560,torte-2b,2020.1.3,MacIntel,60,13448,,,,,0,35,35,22,1,,,,,,,,,,,,,,,,,,,,,,,,,,,,,,,,,,,,,,,,,,,,,,,,,,,,,,,,
,,,,,,,,,,,,l,1.38894,Correct!,,,,,,t2.png,t4.png,2,0.059078,19,Female,2020-09-17_15h49.13.560,torte-2b,2020.1.3,MacIntel,60,13448,,,,,0,36,36,11,1,,,,,,,,,,,,,,,,,,,,,,,,,,,,,,,,,,,,,,,,,,,,,,,,,,,,,,,,
,,,,,,,,,,,,a,0.658235,Incorrect,,,,,,t1.png,t4.png,3,0.0000131,19,Female,2020-09-17_15h49.13.560,torte-2b,2020.1.3,MacIntel,60,13448,,,,,0,37,37,107,1,,,,,,,,,,,,,,,,,,,,,,,,,,,,,,,,,,,,,,,,,,,,,,,,,,,,,,,,
,,,,,,,,,,,,a,0.810385,Correct!,,,,,,t2.png,t2.png,0,0.98115,19,Female,2020-09-17_15h49.13.560,torte-2b,2020.1.3,MacIntel,60,13448,,,,,0,38,38,59,1,,,,,,,,,,,,,,,,,,,,,,,,,,,,,,,,,,,,,,,,,,,,,,,,,,,,,,,,
,,,,,,,,,,,,l,0.886195,Incorrect,,,,,,t3.png,t4.png,1,0.90855,19,Female,2020-09-17_15h49.13.560,torte-2b,2020.1.3,MacIntel,60,13448,,,,,0,39,39,84,1,,,,,,,,,,,,,,,,,,,,,,,,,,,,,,,,,,,,,,,,,,,,,,,,,,,,,,,,
,,,,,,,,,,,,a,0.5858,Incorrect,,,,,,t1.png,t5.png,4,9.55E-11,19,Female,2020-09-17_15h49.13.560,torte-2b,2020.1.3,MacIntel,60,13448,,,,,0,40,40,55,1,,,,,,,,,,,,,,,,,,,,,,,,,,,,,,,,,,,,,,,,,,,,,,,,,,,,,,,,
,,,,,,,,,,,,l,1.521095,Correct!,,,,,,t4.png,t1.png,3,0.0000131,19,Female,2020-09-17_15h49.13.560,torte-2b,2020.1.3,MacIntel,60,13448,,,,,0,41,41,61,1,,,,,,,,,,,,,,,,,,,,,,,,,,,,,,,,,,,,,,,,,,,,,,,,,,,,,,,,
,,,,,,,,,,,,a,0.561725,Correct!,,,,,,t5.png,t5.png,0,0.97829,19,Female,2020-09-17_15h49.13.560,torte-2b,2020.1.3,MacIntel,60,13448,,,,,0,42,42,73,1,,,,,,,,,,,,,,,,,,,,,,,,,,,,,,,,,,,,,,,,,,,,,,,,,,,,,,,,
,,,,,,,,,,,,l,1.05708,Incorrect,,,,,,t3.png,t4.png,1,0.909,19,Female,2020-09-17_15h49.13.560,torte-2b,2020.1.3,MacIntel,60,13448,,,,,0,43,43,89,1,,,,,,,,,,,,,,,,,,,,,,,,,,,,,,,,,,,,,,,,,,,,,,,,,,,,,,,,
,,,,,,,,,,,,a,1.01943,Incorrect,,,,,,t4.png,t2.png,2,0.0591,19,Female,2020-09-17_15h49.13.560,torte-2b,2020.1.3,MacIntel,60,13448,,,,,0,44,44,36,1,,,,,,,,,,,,,,,,,,,,,,,,,,,,,,,,,,,,,,,,,,,,,,,,,,,,,,,,
,,,,,,,,,,,,a,0.85303,Incorrect,,,,,,t5.png,t2.png,3,0.0000131,19,Female,2020-09-17_15h49.13.560,torte-2b,2020.1.3,MacIntel,60,13448,,,,,0,45,45,98,1,,,,,,,,,,,,,,,,,,,,,,,,,,,,,,,,,,,,,,,,,,,,,,,,,,,,,,,,
,,,,,,,,,,,,l,0.8712,Correct!,,,,,,t3.png,t5.png,2,0.056466,19,Female,2020-09-17_15h49.13.560,torte-2b,2020.1.3,MacIntel,60,13448,,,,,0,46,46,6,1,,,,,,,,,,,,,,,,,,,,,,,,,,,,,,,,,,,,,,,,,,,,,,,,,,,,,,,,
,,,,,,,,,,,,l,1.37164,Incorrect,,,,,,t3.png,t2.png,1,0.909,19,Female,2020-09-17_15h49.13.560,torte-2b,2020.1.3,MacIntel,60,13448,,,,,0,47,47,3,1,,,,,,,,,,,,,,,,,,,,,,,,,,,,,,,,,,,,,,,,,,,,,,,,,,,,,,,,
,,,,,,,,,,,,a,0.635455,Incorrect,,,,,,t1.png,t4.png,3,0.0000131,19,Female,2020-09-17_15h49.13.560,torte-2b,2020.1.3,MacIntel,60,13448,,,,,0,48,48,50,1,,,,,,,,,,,,,,,,,,,,,,,,,,,,,,,,,,,,,,,,,,,,,,,,,,,,,,,,
,,,,,,,,,,,,a,0.63869,Incorrect,,,,,,t1.png,t5.png,4,9.55E-11,19,Female,2020-09-17_15h49.13.560,torte-2b,2020.1.3,MacIntel,60,13448,,,,,0,49,49,41,1,,,,,,,,,,,,,,,,,,,,,,,,,,,,,,,,,,,,,,,,,,,,,,,,,,,,,,,,
,,,,,,,,,,,,a,0.602485,Correct!,,,,,,t5.png,t5.png,0,0.97829,19,Female,2020-09-17_15h49.13.560,torte-2b,2020.1.3,MacIntel,60,13448,,,,,0,50,50,94,1,,,,,,,,,,,,,,,,,,,,,,,,,,,,,,,,,,,,,,,,,,,,,,,,,,,,,,,,
,,,,,,,,,,,,a,0.969945,Incorrect,,,,,,t5.png,t2.png,3,0.0000131,19,Female,2020-09-17_15h49.13.560,torte-2b,2020.1.3,MacIntel,60,13448,,,,,0,51,51,91,1,,,,,,,,,,,,,,,,,,,,,,,,,,,,,,,,,,,,,,,,,,,,,,,,,,,,,,,,
,,,,,,,,,,,,a,1.207535,Incorrect,,,,,,t4.png,t2.png,2,0.059078,19,Female,2020-09-17_15h49.13.560,torte-2b,2020.1.3,MacIntel,60,13448,,,,,0,52,52,110,1,,,,,,,,,,,,,,,,,,,,,,,,,,,,,,,,,,,,,,,,,,,,,,,,,,,,,,,,
,,,,,,,,,,,,a,0.768665,Incorrect,,,,,,t1.png,t4.png,3,0.0000131,19,Female,2020-09-17_15h49.13.560,torte-2b,2020.1.3,MacIntel,60,13448,,,,,0,53,53,92,1,,,,,,,,,,,,,,,,,,,,,,,,,,,,,,,,,,,,,,,,,,,,,,,,,,,,,,,,
,,,,,,,,,,,,l,2.11707,Correct!,,,,,,t2.png,t5.png,3,0.0000131,19,Female,2020-09-17_15h49.13.560,torte-2b,2020.1.3,MacIntel,60,13448,,,,,0,54,54,8,1,,,,,,,,,,,,,,,,,,,,,,,,,,,,,,,,,,,,,,,,,,,,,,,,,,,,,,,,
,,,,,,,,,,,,l,0.753165,Incorrect,,,,,,t4.png,t5.png,1,0.9,19,Female,2020-09-17_15h49.13.560,torte-2b,2020.1.3,MacIntel,60,13448,,,,,0,55,55,115,1,,,,,,,,,,,,,,,,,,,,,,,,,,,,,,,,,,,,,,,,,,,,,,,,,,,,,,,,
,,,,,,,,,,,,a,0.93673,Correct!,,,,,,t4.png,t3.png,1,0.90855,19,Female,2020-09-17_15h49.13.560,torte-2b,2020.1.3,MacIntel,60,13448,,,,,0,56,56,35,1,,,,,,,,,,,,,,,,,,,,,,,,,,,,,,,,,,,,,,,,,,,,,,,,,,,,,,,,
,,,,,,,,,,,,l,1.038075,Incorrect,,,,,,t4.png,t5.png,1,0.90025,19,Female,2020-09-17_15h49.13.560,torte-2b,2020.1.3,MacIntel,60,13448,,,,,0,57,57,47,1,,,,,,,,,,,,,,,,,,,,,,,,,,,,,,,,,,,,,,,,,,,,,,,,,,,,,,,,
,,,,,,,,,,,,a,1.03658,Correct!,,,,,,t4.png,t3.png,1,0.909,19,Female,2020-09-17_15h49.13.560,torte-2b,2020.1.3,MacIntel,60,13448,,,,,0,58,58,46,1,,,,,,,,,,,,,,,,,,,,,,,,,,,,,,,,,,,,,,,,,,,,,,,,,,,,,,,,
,,,,,,,,,,,,l,0.844515,Correct!,,,,,,t4.png,t1.png,3,0.0000131,19,Female,2020-09-17_15h49.13.560,torte-2b,2020.1.3,MacIntel,60,13448,,,,,0,59,59,42,1,,,,,,,,,,,,,,,,,,,,,,,,,,,,,,,,,,,,,,,,,,,,,,,,,,,,,,,,
,,,,,,,,,,,,a,0.870365,Correct!,,,,,,t2.png,t3.png,1,0.90855,19,Female,2020-09-17_15h49.13.560,torte-2b,2020.1.3,MacIntel,60,13448,,,,,0,60,60,68,1,,,,,,,,,,,,,,,,,,,,,,,,,,,,,,,,,,,,,,,,,,,,,,,,,,,,,,,,
,,,,,,,,,,,,l,0.63691,Incorrect,,,,,,t3.png,t2.png,1,0.90855,19,Female,2020-09-17_15h49.13.560,torte-2b,2020.1.3,MacIntel,60,13448,,,,,0,61,61,18,1,,,,,,,,,,,,,,,,,,,,,,,,,,,,,,,,,,,,,,,,,,,,,,,,,,,,,,,,
,,,,,,,,,,,,a,0.80771,Correct!,,,,,,t1.png,t1.png,0,0.97829,19,Female,2020-09-17_15h49.13.560,torte-2b,2020.1.3,MacIntel,60,13448,,,,,0,62,62,78,1,,,,,,,,,,,,,,,,,,,,,,,,,,,,,,,,,,,,,,,,,,,,,,,,,,,,,,,,
,,,,,,,,,,,,l,0.724905,Incorrect,,,,,,t3.png,t2.png,1,0.909,19,Female,2020-09-17_15h49.13.560,torte-2b,2020.1.3,MacIntel,60,13448,,,,,0,63,63,23,1,,,,,,,,,,,,,,,,,,,,,,,,,,,,,,,,,,,,,,,,,,,,,,,,,,,,,,,,
,,,,,,,,,,,,l,1.00279,Correct!,,,,,,t3.png,t5.png,2,0.0565,19,Female,2020-09-17_15h49.13.560,torte-2b,2020.1.3,MacIntel,60,13448,,,,,0,64,64,30,1,,,,,,,,,,,,,,,,,,,,,,,,,,,,,,,,,,,,,,,,,,,,,,,,,,,,,,,,
,,,,,,,,,,,,a,0.73612,Correct!,,,,,,t4.png,t4.png,0,0.98115,19,Female,2020-09-17_15h49.13.560,torte-2b,2020.1.3,MacIntel,60,13448,,,,,0,65,65,52,1,,,,,,,,,,,,,,,,,,,,,,,,,,,,,,,,,,,,,,,,,,,,,,,,,,,,,,,,
,,,,,,,,,,,,l,0.872105,Correct!,,,,,,t1.png,t5.png,4,9.55E-11,19,Female,2020-09-17_15h49.13.560,torte-2b,2020.1.3,MacIntel,60,13448,,,,,0,66,66,16,1,,,,,,,,,,,,,,,,,,,,,,,,,,,,,,,,,,,,,,,,,,,,,,,,,,,,,,,,
,,,,,,,,,,,,a,0.842575,Incorrect,,,,,,t5.png,t3.png,2,0.056466,19,Female,2020-09-17_15h49.13.560,torte-2b,2020.1.3,MacIntel,60,13448,,,,,0,67,67,38,1,,,,,,,,,,,,,,,,,,,,,,,,,,,,,,,,,,,,,,,,,,,,,,,,,,,,,,,,
,,,,,,,,,,,,a,0.936405,Correct!,,,,,,t4.png,t4.png,0,0.98115,19,Female,2020-09-17_15h49.13.560,torte-2b,2020.1.3,MacIntel,60,13448,,,,,0,68,68,79,1,,,,,,,,,,,,,,,,,,,,,,,,,,,,,,,,,,,,,,,,,,,,,,,,,,,,,,,,
,,,,,,,,,,,,a,1.06986,Correct!,,,,,,t2.png,t1.png,1,0.90025,19,Female,2020-09-17_15h49.13.560,torte-2b,2020.1.3,MacIntel,60,13448,,,,,0,69,69,19,1,,,,,,,,,,,,,,,,,,,,,,,,,,,,,,,,,,,,,,,,,,,,,,,,,,,,,,,,
,,,,,,,,,,,,l,0.585325,Incorrect,,,,,,t3.png,t2.png,1,0.90855,19,Female,2020-09-17_15h49.13.560,torte-2b,2020.1.3,MacIntel,60,13448,,,,,0,70,70,53,1,,,,,,,,,,,,,,,,,,,,,,,,,,,,,,,,,,,,,,,,,,,,,,,,,,,,,,,,
,,,,,,,,,,,,l,0.79552,Incorrect,,,,,,t3.png,t2.png,1,0.90855,19,Female,2020-09-17_15h49.13.560,torte-2b,2020.1.3,MacIntel,60,13448,,,,,0,71,71,97,1,,,,,,,,,,,,,,,,,,,,,,,,,,,,,,,,,,,,,,,,,,,,,,,,,,,,,,,,
,,,,,,,,,,,,a,0.621085,Correct!,,,,,,t1.png,t1.png,0,0.978,19,Female,2020-09-17_15h49.13.560,torte-2b,2020.1.3,MacIntel,60,13448,,,,,0,72,72,28,1,,,,,,,,,,,,,,,,,,,,,,,,,,,,,,,,,,,,,,,,,,,,,,,,,,,,,,,,
,,,,,,,,,,,,a,0.491075,Correct!,,,,,,t5.png,t5.png,0,0.97829,19,Female,2020-09-17_15h49.13.560,torte-2b,2020.1.3,MacIntel,60,13448,,,,,0,73,73,25,1,,,,,,,,,,,,,,,,,,,,,,,,,,,,,,,,,,,,,,,,,,,,,,,,,,,,,,,,
,,,,,,,,,,,,l,0.55252,Correct!,,,,,,t1.png,t5.png,4,9.55E-11,19,Female,2020-09-17_15h49.13.560,torte-2b,2020.1.3,MacIntel,60,13448,,,,,0,74,74,85,1,,,,,,,,,,,,,,,,,,,,,,,,,,,,,,,,,,,,,,,,,,,,,,,,,,,,,,,,
,,,,,,,,,,,,a,0.636015,Correct!,,,,,,t4.png,t4.png,0,0.98115,19,Female,2020-09-17_15h49.13.560,torte-2b,2020.1.3,MacIntel,60,13448,,,,,0,75,75,21,1,,,,,,,,,,,,,,,,,,,,,,,,,,,,,,,,,,,,,,,,,,,,,,,,,,,,,,,,
,,,,,,,,,,,,a,1.05351,Correct!,,,,,,t4.png,t3.png,1,0.90855,19,Female,2020-09-17_15h49.13.560,torte-2b,2020.1.3,MacIntel,60,13448,,,,,0,76,76,75,1,,,,,,,,,,,,,,,,,,,,,,,,,,,,,,,,,,,,,,,,,,,,,,,,,,,,,,,,
,,,,,,,,,,,,a,0.56979,Correct!,,,,,,t4.png,t4.png,0,0.98115,19,Female,2020-09-17_15h49.13.560,torte-2b,2020.1.3,MacIntel,60,13448,,,,,0,77,77,80,1,,,,,,,,,,,,,,,,,,,,,,,,,,,,,,,,,,,,,,,,,,,,,,,,,,,,,,,,
,,,,,,,,,,,,a,0.76997,Incorrect,,,,,,t5.png,t3.png,2,0.056466,19,Female,2020-09-17_15h49.13.560,torte-2b,2020.1.3,MacIntel,60,13448,,,,,0,78,78,114,1,,,,,,,,,,,,,,,,,,,,,,,,,,,,,,,,,,,,,,,,,,,,,,,,,,,,,,,,
,,,,,,,,,,,,a,1.303935,Incorrect,,,,,,t1.png,t3.png,2,0.056466,19,Female,2020-09-17_15h49.13.560,torte-2b,2020.1.3,MacIntel,60,13448,,,,,0,79,79,99,1,,,,,,,,,,,,,,,,,,,,,,,,,,,,,,,,,,,,,,,,,,,,,,,,,,,,,,,,
,,,,,,,,,,,,a,1.403765,Incorrect,,,,,,t2.png,t4.png,2,0.0591,19,Female,2020-09-17_15h49.13.560,torte-2b,2020.1.3,MacIntel,60,13448,,,,,0,80,80,15,1,,,,,,,,,,,,,,,,,,,,,,,,,,,,,,,,,,,,,,,,,,,,,,,,,,,,,,,,
,,,,,,,,,,,,a,0.6191,Incorrect,,,,,,t1.png,t3.png,2,0.056466,19,Female,2020-09-17_15h49.13.560,torte-2b,2020.1.3,MacIntel,60,13448,,,,,0,81,81,63,1,,,,,,,,,,,,,,,,,,,,,,,,,,,,,,,,,,,,,,,,,,,,,,,,,,,,,,,,
,,,,,,,,,,,,l,1.27076,Correct!,,,,,,t2.png,t1.png,1,0.9,19,Female,2020-09-17_15h49.13.560,torte-2b,2020.1.3,MacIntel,60,13448,,,,,0,82,82,118,1,,,,,,,,,,,,,,,,,,,,,,,,,,,,,,,,,,,,,,,,,,,,,,,,,,,,,,,,
,,,,,,,,,,,,a,0.942235,Incorrect,,,,,,t2.png,t4.png,2,0.059078,19,Female,2020-09-17_15h49.13.560,torte-2b,2020.1.3,MacIntel,60,13448,,,,,0,83,83,24,1,,,,,,,,,,,,,,,,,,,,,,,,,,,,,,,,,,,,,,,,,,,,,,,,,,,,,,,,
,,,,,,,,,,,,,,Too slow :(,,,,,,t3.png,t4.png,1,0.90855,19,Female,2020-09-17_15h49.13.560,torte-2b,2020.1.3,MacIntel,60,13448,,,,,0,84,84,96,1,,,,,,,,,,,,,,,,,,,,,,,,,,,,,,,,,,,,,,,,,,,,,,,,,,,,,,,,
,,,,,,,,,,,,a,0.73993,Correct!,,,,,,t4.png,t4.png,0,0.98115,19,Female,2020-09-17_15h49.13.560,torte-2b,2020.1.3,MacIntel,60,13448,,,,,0,85,85,90,1,,,,,,,,,,,,,,,,,,,,,,,,,,,,,,,,,,,,,,,,,,,,,,,,,,,,,,,,
,,,,,,,,,,,,a,0.940265,Correct!,,,,,,t2.png,t2.png,0,0.98115,19,Female,2020-09-17_15h49.13.560,torte-2b,2020.1.3,MacIntel,60,13448,,,,,0,86,86,57,1,,,,,,,,,,,,,,,,,,,,,,,,,,,,,,,,,,,,,,,,,,,,,,,,,,,,,,,,
,,,,,,,,,,,,l,0.89411,Incorrect,,,,,,t4.png,t5.png,1,0.90025,19,Female,2020-09-17_15h49.13.560,torte-2b,2020.1.3,MacIntel,60,13448,,,,,0,87,87,113,1,,,,,,,,,,,,,,,,,,,,,,,,,,,,,,,,,,,,,,,,,,,,,,,,,,,,,,,,
,,,,,,,,,,,,l,0.67768,Correct!,,,,,,t3.png,t5.png,2,0.0565,19,Female,2020-09-17_15h49.13.560,torte-2b,2020.1.3,MacIntel,60,13448,,,,,0,88,88,83,1,,,,,,,,,,,,,,,,,,,,,,,,,,,,,,,,,,,,,,,,,,,,,,,,,,,,,,,,
,,,,,,,,,,,,l,2.13189,Correct!,,,,,,t3.png,t1.png,2,0.056466,19,Female,2020-09-17_15h49.13.560,torte-2b,2020.1.3,MacIntel,60,13448,,,,,0,89,89,0,1,,,,,,,,,,,,,,,,,,,,,,,,,,,,,,,,,,,,,,,,,,,,,,,,,,,,,,,,
,,,,,,,,,,,,l,0.55848,Correct!,,,,,,t4.png,t1.png,3,0.0000131,19,Female,2020-09-17_15h49.13.560,torte-2b,2020.1.3,MacIntel,60,13448,,,,,0,90,90,48,1,,,,,,,,,,,,,,,,,,,,,,,,,,,,,,,,,,,,,,,,,,,,,,,,,,,,,,,,
,,,,,,,,,,,,a,0.572845,Incorrect,,,,,,t1.png,t5.png,4,9.55E-11,19,Female,2020-09-17_15h49.13.560,torte-2b,2020.1.3,MacIntel,60,13448,,,,,0,91,91,12,1,,,,,,,,,,,,,,,,,,,,,,,,,,,,,,,,,,,,,,,,,,,,,,,,,,,,,,,,
,,,,,,,,,,,,a,0.571595,Incorrect,,,,,,t1.png,t4.png,3,0.0000131,19,Female,2020-09-17_15h49.13.560,torte-2b,2020.1.3,MacIntel,60,13448,,,,,0,92,92,17,1,,,,,,,,,,,,,,,,,,,,,,,,,,,,,,,,,,,,,,,,,,,,,,,,,,,,,,,,
,,,,,,,,,,,,a,0.63823,Correct!,,,,,,t5.png,t4.png,1,0.9,19,Female,2020-09-17_15h49.13.560,torte-2b,2020.1.3,MacIntel,60,13448,,,,,0,93,93,49,1,,,,,,,,,,,,,,,,,,,,,,,,,,,,,,,,,,,,,,,,,,,,,,,,,,,,,,,,
,,,,,,,,,,,,a,1.12326,Correct!,,,,,,t2.png,t2.png,0,0.98115,19,Female,2020-09-17_15h49.13.560,torte-2b,2020.1.3,MacIntel,60,13448,,,,,0,94,94,2,1,,,,,,,,,,,,,,,,,,,,,,,,,,,,,,,,,,,,,,,,,,,,,,,,,,,,,,,,
,,,,,,,,,,,,a,0.893455,Correct!,,,,,,t2.png,t3.png,1,0.909,19,Female,2020-09-17_15h49.13.560,torte-2b,2020.1.3,MacIntel,60,13448,,,,,0,95,95,74,1,,,,,,,,,,,,,,,,,,,,,,,,,,,,,,,,,,,,,,,,,,,,,,,,,,,,,,,,
,,,,,,,,,,,,l,0.86864,Incorrect,,,,,,t4.png,t5.png,1,0.90025,19,Female,2020-09-17_15h49.13.560,torte-2b,2020.1.3,MacIntel,60,13448,,,,,0,96,96,58,1,,,,,,,,,,,,,,,,,,,,,,,,,,,,,,,,,,,,,,,,,,,,,,,,,,,,,,,,
,,,,,,,,,,,,a,0.919615,Incorrect,,,,,,t5.png,t3.png,2,0.0565,19,Female,2020-09-17_15h49.13.560,torte-2b,2020.1.3,MacIntel,60,13448,,,,,0,97,97,39,1,,,,,,,,,,,,,,,,,,,,,,,,,,,,,,,,,,,,,,,,,,,,,,,,,,,,,,,,
,,,,,,,,,,,,a,0.7408,Correct!,,,,,,t1.png,t2.png,1,0.90025,19,Female,2020-09-17_15h49.13.560,torte-2b,2020.1.3,MacIntel,60,13448,,,,,0,98,98,112,1,,,,,,,,,,,,,,,,,,,,,,,,,,,,,,,,,,,,,,,,,,,,,,,,,,,,,,,,
,,,,,,,,,,,,l,0.90406,Incorrect,,,,,,t2.png,t1.png,1,0.90025,19,Female,2020-09-17_15h49.13.560,torte-2b,2020.1.3,MacIntel,60,13448,,,,,0,99,99,62,1,,,,,,,,,,,,,,,,,,,,,,,,,,,,,,,,,,,,,,,,,,,,,,,,,,,,,,,,
,,,,,,,,,,,,a,0.62571,Correct!,,,,,,t4.png,t3.png,1,0.909,19,Female,2020-09-17_15h49.13.560,torte-2b,2020.1.3,MacIntel,60,13448,,,,,0,100,100,20,1,,,,,,,,,,,,,,,,,,,,,,,,,,,,,,,,,,,,,,,,,,,,,,,,,,,,,,,,
,,,,,,,,,,,,a,1.230545,Correct!,,,,,,t2.png,t3.png,1,0.90855,19,Female,2020-09-17_15h49.13.560,torte-2b,2020.1.3,MacIntel,60,13448,,,,,0,101,101,65,1,,,,,,,,,,,,,,,,,,,,,,,,,,,,,,,,,,,,,,,,,,,,,,,,,,,,,,,,
,,,,,,,,,,,,a,0.520605,Incorrect,,,,,,t5.png,t2.png,3,0.0000131,19,Female,2020-09-17_15h49.13.560,torte-2b,2020.1.3,MacIntel,60,13448,,,,,0,102,102,51,1,,,,,,,,,,,,,,,,,,,,,,,,,,,,,,,,,,,,,,,,,,,,,,,,,,,,,,,,
,,,,,,,,,,,,l,0.79369,Correct!,,,,,,t5.png,t1.png,4,9.55E-11,19,Female,2020-09-17_15h49.13.560,torte-2b,2020.1.3,MacIntel,60,13448,,,,,0,103,103,43,1,,,,,,,,,,,,,,,,,,,,,,,,,,,,,,,,,,,,,,,,,,,,,,,,,,,,,,,,
,,,,,,,,,,,,a,1.07673,Correct!,,,,,,t1.png,t2.png,1,0.9,19,Female,2020-09-17_15h49.13.560,torte-2b,2020.1.3,MacIntel,60,13448,,,,,0,104,104,1,1,,,,,,,,,,,,,,,,,,,,,,,,,,,,,,,,,,,,,,,,,,,,,,,,,,,,,,,,
,,,,,,,,,,,,a,0.71971,Incorrect,,,,,,t2.png,t2.png,0,0.98115,19,Female,2020-09-17_15h49.13.560,torte-2b,2020.1.3,MacIntel,60,13448,,,,,0,105,105,7,1,,,,,,,,,,,,,,,,,,,,,,,,,,,,,,,,,,,,,,,,,,,,,,,,,,,,,,,,
,,,,,,,,,,,,a,1.04167,Incorrect,,,,,,t5.png,t2.png,3,0.0000131,19,Female,2020-09-17_15h49.13.560,torte-2b,2020.1.3,MacIntel,60,13448,,,,,0,106,106,116,1,,,,,,,,,,,,,,,,,,,,,,,,,,,,,,,,,,,,,,,,,,,,,,,,,,,,,,,,
,,,,,,,,,,,,l,1.89057,Correct!,,,,,,t5.png,t1.png,4,9.55E-11,19,Female,2020-09-17_15h49.13.560,torte-2b,2020.1.3,MacIntel,60,13448,,,,,0,107,107,102,1,,,,,,,,,,,,,,,,,,,,,,,,,,,,,,,,,,,,,,,,,,,,,,,,,,,,,,,,
,,,,,,,,,,,,l,0.9523,Incorrect,,,,,,t3.png,t5.png,2,0.056466,19,Female,2020-09-17_15h49.13.560,torte-2b,2020.1.3,MacIntel,60,13448,,,,,0,108,108,14,1,,,,,,,,,,,,,,,,,,,,,,,,,,,,,,,,,,,,,,,,,,,,,,,,,,,,,,,,
,,,,,,,,,,,,a,0.501425,Incorrect,,,,,,t5.png,t3.png,2,0.056466,19,Female,2020-09-17_15h49.13.560,torte-2b,2020.1.3,MacIntel,60,13448,,,,,0,109,109,108,1,,,,,,,,,,,,,,,,,,,,,,,,,,,,,,,,,,,,,,,,,,,,,,,,,,,,,,,,
,,,,,,,,,,,,l,0.661965,Correct!,,,,,,t5.png,t1.png,4,9.55E-11,19,Female,2020-09-17_15h49.13.560,torte-2b,2020.1.3,MacIntel,60,13448,,,,,0,110,110,100,1,,,,,,,,,,,,,,,,,,,,,,,,,,,,,,,,,,,,,,,,,,,,,,,,,,,,,,,,
,,,,,,,,,,,,a,0.62005,Correct!,,,,,,t4.png,t5.png,1,0.90025,19,Female,2020-09-17_15h49.13.560,torte-2b,2020.1.3,MacIntel,60,13448,,,,,0,111,111,103,1,,,,,,,,,,,,,,,,,,,,,,,,,,,,,,,,,,,,,,,,,,,,,,,,,,,,,,,,
,,,,,,,,,,,,a,0.402915,Incorrect,,,,,,t1.png,t3.png,2,0.056466,19,Female,2020-09-17_15h49.13.560,torte-2b,2020.1.3,MacIntel,60,13448,,,,,0,112,112,69,1,,,,,,,,,,,,,,,,,,,,,,,,,,,,,,,,,,,,,,,,,,,,,,,,,,,,,,,,
,,,,,,,,,,,,a,1.056385,Incorrect,,,,,,t4.png,t2.png,2,0.059078,19,Female,2020-09-17_15h49.13.560,torte-2b,2020.1.3,MacIntel,60,13448,,,,,0,113,113,109,1,,,,,,,,,,,,,,,,,,,,,,,,,,,,,,,,,,,,,,,,,,,,,,,,,,,,,,,,
,,,,,,,,,,,,l,0.64512,Correct!,,,,,,t3.png,t1.png,2,0.056466,19,Female,2020-09-17_15h49.13.560,torte-2b,2020.1.3,MacIntel,60,13448,,,,,0,114,114,32,1,,,,,,,,,,,,,,,,,,,,,,,,,,,,,,,,,,,,,,,,,,,,,,,,,,,,,,,,
,,,,,,,,,,,,a,1.188635,Incorrect,,,,,,t2.png,t5.png,3,0.0000131,19,Female,2020-09-17_15h49.13.560,torte-2b,2020.1.3,MacIntel,60,13448,,,,,0,115,115,104,1,,,,,,,,,,,,,,,,,,,,,,,,,,,,,,,,,,,,,,,,,,,,,,,,,,,,,,,,
,,,,,,,,,,,,a,1.255295,Correct!,,,,,,t5.png,t4.png,1,0.90025,19,Female,2020-09-17_15h49.13.560,torte-2b,2020.1.3,MacIntel,60,13448,,,,,0,116,116,26,1,,,,,,,,,,,,,,,,,,,,,,,,,,,,,,,,,,,,,,,,,,,,,,,,,,,,,,,,
,,,,,,,,,,,,l,0.812655,Correct!,,,,,,t5.png,t1.png,4,9.55E-11,19,Female,2020-09-17_15h49.13.560,torte-2b,2020.1.3,MacIntel,60,13448,,,,,0,117,117,71,1,,,,,,,,,,,,,,,,,,,,,,,,,,,,,,,,,,,,,,,,,,,,,,,,,,,,,,,,
,,,,,,,,,,,,a,0.519815,Correct!,,,,,,t1.png,t2.png,1,0.90025,19,Female,2020-09-17_15h49.13.560,torte-2b,2020.1.3,MacIntel,60,13448,,,,,0,118,118,72,1,,,,,,,,,,,,,,,,,,,,,,,,,,,,,,,,,,,,,,,,,,,,,,,,,,,,,,,,
,,,,,,,,,,,,a,0.6355,Correct!,,,,,,t5.png,t5.png,0,0.978,19,Female,2020-09-17_15h49.13.560,torte-2b,2020.1.3,MacIntel,60,13448,,,,,0,119,119,117,1,,,,,,,,,,,,,,,,,,,,,,,,,,,,,,,,,,,,,,,,,,,,,,,,,,,,,,,,
,,,,,,,,,,,,,,,,,,,,,,,,19,Female,2020-09-17_15h49.13.560,torte-2b,2020.1.3,MacIntel,60,13448,space,1.508265,,,,,,,,space,16.57866,,0,0,0,0,1,6,,,,,,,,,,,,,,,,,,,,,,,,,,,,,,,,,,,,,,,,,,,,,,,
,,,,,,,,,,,,,,,,,,,,,,,,19,Female,2020-09-17_15h49.13.560,torte-2b,2020.1.3,MacIntel,60,13448,,,,,,,,,,,,,0,1,1,1,1,7,,,,,,,,,,,,,,,,,,,,,,,,,,,,,,,,,,,,,,,,,,,,,,,
,,,,,,,,,,,,,,,,,,,,,,,,19,Female,2020-09-17_15h49.13.560,torte-2b,2020.1.3,MacIntel,60,13448,,,,,,,,,,,,space,0,2,2,2,1,6,0.516835,,,,,,,,,,,,,,,,,,,,,,,,,,,,,,,,,,,,,,,,,,,,,,
,,,,,,,,,,,,,,,,,,,,,,,,19,Female,2020-09-17_15h49.13.560,torte-2b,2020.1.3,MacIntel,60,13448,,,,,,,,,,,,,0,3,3,3,1,7,,,,,,,,,,,,,,,,,,,,,,,,,,,,,,,,,,,,,,,,,,,,,,,
,,,,,,,,,,,,,,,,,,,,,,,,19,Female,2020-09-17_15h49.13.560,torte-2b,2020.1.3,MacIntel,60,13448,,,,,,,,,,,,,0,4,4,4,1,5,,,,,,,,,,,,,,,,,,,,,,,,,,,,,,,,,,,,,,,,,,,,,,,
,,,,,,,,,,,,,,,,,,,,,,,,19,Female,2020-09-17_15h49.13.560,torte-2b,2020.1.3,MacIntel,60,13448,,,,,,,,,,,,space,0,5,5,5,1,7,1.075065,,,,,,,,,,,,,,,,,,,,,,,,,,,,,,,,,,,,,,,,,,,,,,
,,,,,,,,,,,,,,,,,,,,,,,,19,Female,2020-09-17_15h49.13.560,torte-2b,2020.1.3,MacIntel,60,13448,,,,,,,,,,,,,0,6,6,6,1,2,,,,,,,,,,,,,,,,,,,,,,,,,,,,,,,,,,,,,,,,,,,,,,,
,,,,,,,,,,,,,,,,,,,,,,,,19,Female,2020-09-17_15h49.13.560,torte-2b,2020.1.3,MacIntel,60,13448,,,,,,,,,,,,,0,7,7,7,1,4,,,,,,,,,,,,,,,,,,,,,,,,,,,,,,,,,,,,,,,,,,,,,,,
,,,,,,,,,,,,,,,,,,,,,,,,19,Female,2020-09-17_15h49.13.560,torte-2b,2020.1.3,MacIntel,60,13448,,,,,,,,,,,,,0,8,8,8,1,7,,,,,,,,,,,,,,,,,,,,,,,,,,,,,,,,,,,,,,,,,,,,,,,
,,,,,,,,,,,,,,,,,,,,,,,,19,Female,2020-09-17_15h49.13.560,torte-2b,2020.1.3,MacIntel,60,13448,,,,,,,,,,,,space,0,9,9,9,1,4,0.483365,,,,,,,,,,,,,,,,,,,,,,,,,,,,,,,,,,,,,,,,,,,,,,
,,,,,,,,,,,,,,,,,,,,,,,,19,Female,2020-09-17_15h49.13.560,torte-2b,2020.1.3,MacIntel,60,13448,,,,,,,,,,,,,0,10,10,10,1,7,,,,,,,,,,,,,,,,,,,,,,,,,,,,,,,,,,,,,,,,,,,,,,,
,,,,,,,,,,,,,,,,,,,,,,,,19,Female,2020-09-17_15h49.13.560,torte-2b,2020.1.3,MacIntel,60,13448,,,,,,,,,,,,space,0,11,11,11,1,7,0.37068,,,,,,,,,,,,,,,,,,,,,,,,,,,,,,,,,,,,,,,,,,,,,,
,,,,,,,,,,,,,,,,,,,,,,,,19,Female,2020-09-17_15h49.13.560,torte-2b,2020.1.3,MacIntel,60,13448,,,,,,,,,,,,,0,12,12,12,1,7,,,,,,,,,,,,,,,,,,,,,,,,,,,,,,,,,,,,,,,,,,,,,,,
,,,,,,,,,,,,,,,,,,,,,,,,19,Female,2020-09-17_15h49.13.560,torte-2b,2020.1.3,MacIntel,60,13448,,,,,,,,,,,,,0,13,13,13,1,4,,,,,,,,,,,,,,,,,,,,,,,,,,,,,,,,,,,,,,,,,,,,,,,
,,,,,,,,,,,,,,,,,,,,,,,,19,Female,2020-09-17_15h49.13.560,torte-2b,2020.1.3,MacIntel,60,13448,,,,,,,,,,,,,0,14,14,14,1,6,,,,,,,,,,,,,,,,,,,,,,,,,,,,,,,,,,,,,,,,,,,,,,,
,,,,,,,,,,,,,,,,,,,,,,,,19,Female,2020-09-17_15h49.13.560,torte-2b,2020.1.3,MacIntel,60,13448,,,,,,,,,,,,,0,15,15,15,1,4,,,,,,,,,,,,,,,,,,,,,,,,,,,,,,,,,,,,,,,,,,,,,,,
,,,,,,,,,,,,,,,,,,,,,,,,19,Female,2020-09-17_15h49.13.560,torte-2b,2020.1.3,MacIntel,60,13448,,,,,,,,,,,,,0,16,16,16,1,6,,,,,,,,,,,,,,,,,,,,,,,,,,,,,,,,,,,,,,,,,,,,,,,
,,,,,,,,,,,,,,,,,,,,,,,,19,Female,2020-09-17_15h49.13.560,torte-2b,2020.1.3,MacIntel,60,13448,,,,,,,,,,,,space,0,17,17,17,1,7,0.368195,,,,,,,,,,,,,,,,,,,,,,,,,,,,,,,,,,,,,,,,,,,,,,
,,,,,,,,,,,,,,,,,,,,,,,,19,Female,2020-09-17_15h49.13.560,torte-2b,2020.1.3,MacIntel,60,13448,,,,,,,,,,,,space,0,18,18,18,1,6,0.4081,,,,,,,,,,,,,,,,,,,,,,,,,,,,,,,,,,,,,,,,,,,,,,
,,,,,,,,,,,,,,,,,,,,,,,,19,Female,2020-09-17_15h49.13.560,torte-2b,2020.1.3,MacIntel,60,13448,,,,,,,,,,,,,0,19,19,19,1,7,,,,,,,,,,,,,,,,,,,,,,,,,,,,,,,,,,,,,,,,,,,,,,,
,,,,,,,,,,,,,,,,,,,,,,,,19,Female,2020-09-17_15h49.13.560,torte-2b,2020.1.3,MacIntel,60,13448,,,,,,,,,,,,space,0,20,20,20,1,5,0.43495,,,,,,,,,,,,,,,,,,,,,,,,,,,,,,,,,,,,,,,,,,,,,,
,,,,,,,,,,,,,,,,,,,,,,,,19,Female,2020-09-17_15h49.13.560,torte-2b,2020.1.3,MacIntel,60,13448,,,,,,,,,,,,,0,21,21,21,1,1,,,,,,,,,,,,,,,,,,,,,,,,,,,,,,,,,,,,,,,,,,,,,,,
,,,,,,,,,,,,,,,,,,,,,,,,19,Female,2020-09-17_15h49.13.560,torte-2b,2020.1.3,MacIntel,60,13448,,,,,,,,,,,,,0,22,22,22,1,6,,,,,,,,,,,,,,,,,,,,,,,,,,,,,,,,,,,,,,,,,,,,,,,
,,,,,,,,,,,,,,,,,,,,,,,,19,Female,2020-09-17_15h49.13.560,torte-2b,2020.1.3,MacIntel,60,13448,,,,,,,,,,,,,0,23,23,23,1,1,,,,,,,,,,,,,,,,,,,,,,,,,,,,,,,,,,,,,,,,,,,,,,,
,,,,,,,,,,,,,,,,,,,,,,,,19,Female,2020-09-17_15h49.13.560,torte-2b,2020.1.3,MacIntel,60,13448,,,,,,,,,,,,,0,24,24,24,1,5,,,,,,,,,,,,,,,,,,,,,,,,,,,,,,,,,,,,,,,,,,,,,,,
,,,,,,,,,,,,,,,,,,,,,,,,19,Female,2020-09-17_15h49.13.560,torte-2b,2020.1.3,MacIntel,60,13448,,,,,,,,,,,,,0,25,25,25,1,6,,,,,,,,,,,,,,,,,,,,,,,,,,,,,,,,,,,,,,,,,,,,,,,
,,,,,,,,,,,,,,,,,,,,,,,,19,Female,2020-09-17_15h49.13.560,torte-2b,2020.1.3,MacIntel,60,13448,,,,,,,,,,,,,0,26,26,26,1,6,,,,,,,,,,,,,,,,,,,,,,,,,,,,,,,,,,,,,,,,,,,,,,,
,,,,,,,,,,,,,,,,,,,,,,,,19,Female,2020-09-17_15h49.13.560,torte-2b,2020.1.3,MacIntel,60,13448,,,,,,,,,,,,space,0,27,27,27,1,6,0.40972,,,,,,,,,,,,,,,,,,,,,,,,,,,,,,,,,,,,,,,,,,,,,,
,,,,,,,,,,,,,,,,,,,,,,,,19,Female,2020-09-17_15h49.13.560,torte-2b,2020.1.3,MacIntel,60,13448,,,,,,,,,,,,,0,28,28,28,1,5,,,,,,,,,,,,,,,,,,,,,,,,,,,,,,,,,,,,,,,,,,,,,,,
,,,,,,,,,,,,,,,,,,,,,,,,19,Female,2020-09-17_15h49.13.560,torte-2b,2020.1.3,MacIntel,60,13448,,,,,,,,,,,,,0,29,29,29,1,2,,,,,,,,,,,,,,,,,,,,,,,,,,,,,,,,,,,,,,,,,,,,,,,
,,,,,,,,,,,,,,,,,,,,,,,,19,Female,2020-09-17_15h49.13.560,torte-2b,2020.1.3,MacIntel,60,13448,,,,,,,,,,,,space,0,30,30,30,1,5,0.30579,,,,,,,,,,,,,,,,,,,,,,,,,,,,,,,,,,,,,,,,,,,,,,
,,,,,,,,,,,,,,,,,,,,,,,,19,Female,2020-09-17_15h49.13.560,torte-2b,2020.1.3,MacIntel,60,13448,,,,,,,,,,,,,0,31,31,31,1,2,,,,,,,,,,,,,,,,,,,,,,,,,,,,,,,,,,,,,,,,,,,,,,,
,,,,,,,,,,,,,,,,,,,,,,,,19,Female,2020-09-17_15h49.13.560,torte-2b,2020.1.3,MacIntel,60,13448,,,,,,,,,,,,,0,32,32,32,1,5,,,,,,,,,,,,,,,,,,,,,,,,,,,,,,,,,,,,,,,,,,,,,,,
,,,,,,,,,,,,,,,,,,,,,,,,19,Female,2020-09-17_15h49.13.560,torte-2b,2020.1.3,MacIntel,60,13448,,,,,,,,,,,,,0,33,33,33,1,1,,,,,,,,,,,,,,,,,,,,,,,,,,,,,,,,,,,,,,,,,,,,,,,
,,,,,,,,,,,,,,,,,,,,,,,,19,Female,2020-09-17_15h49.13.560,torte-2b,2020.1.3,MacIntel,60,13448,,,,,,,,,,,,,0,34,34,34,1,1,,,,,,,,,,,,,,,,,,,,,,,,,,,,,,,,,,,,,,,,,,,,,,,
,,,,,,,,,,,,,,,,,,,,,,,,19,Female,2020-09-17_15h49.13.560,torte-2b,2020.1.3,MacIntel,60,13448,,,,,,,,,,,,,,,,,,2,,0,0,0,0,1,,,,,,,,,,,,,,,,,,,,,,,,,,,,,,,,,,,,,,,,,
,,,,,,,,,,,,,,,,,,,,,,,,19,Female,2020-09-17_15h49.13.560,torte-2b,2020.1.3,MacIntel,60,13448,,,,,,,,,,,,,,,,,,2,,0,1,1,1,1,,,,,,,,,,,,,,,,,,,,,,,,,,,,,,,,,,,,,,,,,
,,,,,,,,,,,,,,,,,,,,,,,,19,Female,2020-09-17_15h49.13.560,torte-2b,2020.1.3,MacIntel,60,13448,,,,,,,,,,,,,,,,,,6,,0,2,2,2,1,,,,,,,,,,,,,,,,,,,,,,,,,,,,,,,,,,,,,,,,,
,,,,,,,,,,,,,,,,,,,,,,,,19,Female,2020-09-17_15h49.13.560,torte-2b,2020.1.3,MacIntel,60,13448,,,,,,,,,,,,space,,,,,,2,0.35573,0,3,3,3,1,,,,,,,,,,,,,,,,,,,,,,,,,,,,,,,,,,,,,,,,,
,,,,,,,,,,,,,,,,,,,,,,,,19,Female,2020-09-17_15h49.13.560,torte-2b,2020.1.3,MacIntel,60,13448,,,,,,,,,,,,,,,,,,6,,0,4,4,4,1,,,,,,,,,,,,,,,,,,,,,,,,,,,,,,,,,,,,,,,,,
,,,,,,,,,,,,,,,,,,,,,,,,19,Female,2020-09-17_15h49.13.560,torte-2b,2020.1.3,MacIntel,60,13448,,,,,,,,,,,,,,,,,,2,,0,5,5,5,1,,,,,,,,,,,,,,,,,,,,,,,,,,,,,,,,,,,,,,,,,
,,,,,,,,,,,,,,,,,,,,,,,,19,Female,2020-09-17_15h49.13.560,torte-2b,2020.1.3,MacIntel,60,13448,,,,,,,,,,,,,,,,,,7,,0,6,6,6,1,,,,,,,,,,,,,,,,,,,,,,,,,,,,,,,,,,,,,,,,,
,,,,,,,,,,,,,,,,,,,,,,,,19,Female,2020-09-17_15h49.13.560,torte-2b,2020.1.3,MacIntel,60,13448,,,,,,,,,,,,space,,,,,,2,0.638835,0,7,7,7,1,,,,,,,,,,,,,,,,,,,,,,,,,,,,,,,,,,,,,,,,,
,,,,,,,,,,,,,,,,,,,,,,,,19,Female,2020-09-17_15h49.13.560,torte-2b,2020.1.3,MacIntel,60,13448,,,,,,,,,,,,space,,,,,,7,0.684395,0,8,8,8,1,,,,,,,,,,,,,,,,,,,,,,,,,,,,,,,,,,,,,,,,,
,,,,,,,,,,,,,,,,,,,,,,,,19,Female,2020-09-17_15h49.13.560,torte-2b,2020.1.3,MacIntel,60,13448,,,,,,,,,,,,,,,,,,2,,0,9,9,9,1,,,,,,,,,,,,,,,,,,,,,,,,,,,,,,,,,,,,,,,,,
,,,,,,,,,,,,,,,,,,,,,,,,19,Female,2020-09-17_15h49.13.560,torte-2b,2020.1.3,MacIntel,60,13448,,,,,,,,,,,,,,,,,,5,,0,10,10,10,1,,,,,,,,,,,,,,,,,,,,,,,,,,,,,,,,,,,,,,,,,
,,,,,,,,,,,,,,,,,,,,,,,,19,Female,2020-09-17_15h49.13.560,torte-2b,2020.1.3,MacIntel,60,13448,,,,,,,,,,,,space,,,,,,4,0.451675,0,11,11,11,1,,,,,,,,,,,,,,,,,,,,,,,,,,,,,,,,,,,,,,,,,
,,,,,,,,,,,,,,,,,,,,,,,,19,Female,2020-09-17_15h49.13.560,torte-2b,2020.1.3,MacIntel,60,13448,,,,,,,,,,,,,,,,,,5,,0,12,12,12,1,,,,,,,,,,,,,,,,,,,,,,,,,,,,,,,,,,,,,,,,,
,,,,,,,,,,,,,,,,,,,,,,,,19,Female,2020-09-17_15h49.13.560,torte-2b,2020.1.3,MacIntel,60,13448,,,,,,,,,,,,,,,,,,6,,0,13,13,13,1,,,,,,,,,,,,,,,,,,,,,,,,,,,,,,,,,,,,,,,,,
,,,,,,,,,,,,,,,,,,,,,,,,19,Female,2020-09-17_15h49.13.560,torte-2b,2020.1.3,MacIntel,60,13448,,,,,,,,,,,,space,,,,,,5,0.33444,0,14,14,14,1,,,,,,,,,,,,,,,,,,,,,,,,,,,,,,,,,,,,,,,,,
,,,,,,,,,,,,,,,,,,,,,,,,19,Female,2020-09-17_15h49.13.560,torte-2b,2020.1.3,MacIntel,60,13448,,,,,,,,,,,,space,,,,,,4,0.541635,0,15,15,15,1,,,,,,,,,,,,,,,,,,,,,,,,,,,,,,,,,,,,,,,,,
,,,,,,,,,,,,,,,,,,,,,,,,19,Female,2020-09-17_15h49.13.560,torte-2b,2020.1.3,MacIntel,60,13448,,,,,,,,,,,,,,,,,,5,,0,16,16,16,1,,,,,,,,,,,,,,,,,,,,,,,,,,,,,,,,,,,,,,,,,
,,,,,,,,,,,,,,,,,,,,,,,,19,Female,2020-09-17_15h49.13.560,torte-2b,2020.1.3,MacIntel,60,13448,,,,,,,,,,,,,,,,,,3,,0,17,17,17,1,,,,,,,,,,,,,,,,,,,,,,,,,,,,,,,,,,,,,,,,,
,,,,,,,,,,,,,,,,,,,,,,,,19,Female,2020-09-17_15h49.13.560,torte-2b,2020.1.3,MacIntel,60,13448,,,,,,,,,,,,space,,,,,,6,0.350875,0,18,18,18,1,,,,,,,,,,,,,,,,,,,,,,,,,,,,,,,,,,,,,,,,,
,,,,,,,,,,,,,,,,,,,,,,,,19,Female,2020-09-17_15h49.13.560,torte-2b,2020.1.3,MacIntel,60,13448,,,,,,,,,,,,,,,,,,6,,0,19,19,19,1,,,,,,,,,,,,,,,,,,,,,,,,,,,,,,,,,,,,,,,,,
,,,,,,,,,,,,,,,,,,,,,,,,19,Female,2020-09-17_15h49.13.560,torte-2b,2020.1.3,MacIntel,60,13448,,,,,,,,,,,,,,,,,,6,,0,20,20,20,1,,,,,,,,,,,,,,,,,,,,,,,,,,,,,,,,,,,,,,,,,
,,,,,,,,,,,,,,,,,,,,,,,,19,Female,2020-09-17_15h49.13.560,torte-2b,2020.1.3,MacIntel,60,13448,,,,,,,,,,,,,,,,,,4,,0,21,21,21,1,,,,,,,,,,,,,,,,,,,,,,,,,,,,,,,,,,,,,,,,,
,,,,,,,,,,,,,,,,,,,,,,,,19,Female,2020-09-17_15h49.13.560,torte-2b,2020.1.3,MacIntel,60,13448,,,,,,,,,,,,space,,,,,,6,0.30132,0,22,22,22,1,,,,,,,,,,,,,,,,,,,,,,,,,,,,,,,,,,,,,,,,,
,,,,,,,,,,,,,,,,,,,,,,,,19,Female,2020-09-17_15h49.13.560,torte-2b,2020.1.3,MacIntel,60,13448,,,,,,,,,,,,,,,,,,4,,0,23,23,23,1,,,,,,,,,,,,,,,,,,,,,,,,,,,,,,,,,,,,,,,,,
,,,,,,,,,,,,,,,,,,,,,,,,19,Female,2020-09-17_15h49.13.560,torte-2b,2020.1.3,MacIntel,60,13448,,,,,,,,,,,,space,,,,,,6,0.266305,0,24,24,24,1,,,,,,,,,,,,,,,,,,,,,,,,,,,,,,,,,,,,,,,,,
,,,,,,,,,,,,,,,,,,,,,,,,19,Female,2020-09-17_15h49.13.560,torte-2b,2020.1.3,MacIntel,60,13448,,,,,,,,,,,,,,,,,,6,,0,25,25,25,1,,,,,,,,,,,,,,,,,,,,,,,,,,,,,,,,,,,,,,,,,
,,,,,,,,,,,,,,,,,,,,,,,,19,Female,2020-09-17_15h49.13.560,torte-2b,2020.1.3,MacIntel,60,13448,,,,,,,,,,,,space,,,,,,7,0.399755,0,26,26,26,1,,,,,,,,,,,,,,,,,,,,,,,,,,,,,,,,,,,,,,,,,
,,,,,,,,,,,,,,,,,,,,,,,,19,Female,2020-09-17_15h49.13.560,torte-2b,2020.1.3,MacIntel,60,13448,,,,,,,,,,,,,,,,,,1,,0,27,27,27,1,,,,,,,,,,,,,,,,,,,,,,,,,,,,,,,,,,,,,,,,,
,,,,,,,,,,,,,,,,,,,,,,,,19,Female,2020-09-17_15h49.13.560,torte-2b,2020.1.3,MacIntel,60,13448,,,,,,,,,,,,,,,,,,7,,0,28,28,28,1,,,,,,,,,,,,,,,,,,,,,,,,,,,,,,,,,,,,,,,,,
,,,,,,,,,,,,,,,,,,,,,,,,19,Female,2020-09-17_15h49.13.560,torte-2b,2020.1.3,MacIntel,60,13448,,,,,,,,,,,,space,,,,,,4,0.31721,0,29,29,29,1,,,,,,,,,,,,,,,,,,,,,,,,,,,,,,,,,,,,,,,,,
,,,,,,,,,,,,,,,,,,,,,,,,19,Female,2020-09-17_15h49.13.560,torte-2b,2020.1.3,MacIntel,60,13448,,,,,,,,,,,,,,,,,,7,,0,30,30,30,1,,,,,,,,,,,,,,,,,,,,,,,,,,,,,,,,,,,,,,,,,
,,,,,,,,,,,,,,,,,,,,,,,,19,Female,2020-09-17_15h49.13.560,torte-2b,2020.1.3,MacIntel,60,13448,,,,,,,,,,,,space,,,,,,3,0.333125,0,31,31,31,1,,,,,,,,,,,,,,,,,,,,,,,,,,,,,,,,,,,,,,,,,
,,,,,,,,,,,,,,,,,,,,,,,,19,Female,2020-09-17_15h49.13.560,torte-2b,2020.1.3,MacIntel,60,13448,,,,,,,,,,,,,,,,,,2,,0,32,32,32,1,,,,,,,,,,,,,,,,,,,,,,,,,,,,,,,,,,,,,,,,,
,,,,,,,,,,,,,,,,,,,,,,,,19,Female,2020-09-17_15h49.13.560,torte-2b,2020.1.3,MacIntel,60,13448,,,,,,,,,,,,space,,,,,,6,0.26888,0,33,33,33,1,,,,,,,,,,,,,,,,,,,,,,,,,,,,,,,,,,,,,,,,,
,,,,,,,,,,,,,,,,,,,,,,,,19,Female,2020-09-17_15h49.13.560,torte-2b,2020.1.3,MacIntel,60,13448,,,,,,,,,,,,,,,,,,3,,0,34,34,34,1,,,,,,,,,,,,,,,,,,,,,,,,,,,,,,,,,,,,,,,,,
,,,,,,,,,,,,,,,,,,,,,,,,19,Female,2020-09-17_15h49.13.560,torte-2b,2020.1.3,MacIntel,60,13448,,,,,,,,,,,,,,,,,,7,,,,,,,0,0,0,0,1,,,,,,,,,,,,,,,,,,,,,,,,,,,,,,,,,,,,
,,,,,,,,,,,,,,,,,,,,,,,,19,Female,2020-09-17_15h49.13.560,torte-2b,2020.1.3,MacIntel,60,13448,,,,,,,,,,,,space,,,,,,5,0.505255,,,,,,0,1,1,1,1,,,,,,,,,,,,,,,,,,,,,,,,,,,,,,,,,,,,
,,,,,,,,,,,,,,,,,,,,,,,,19,Female,2020-09-17_15h49.13.560,torte-2b,2020.1.3,MacIntel,60,13448,,,,,,,,,,,,,,,,,,4,,,,,,,0,2,2,2,1,,,,,,,,,,,,,,,,,,,,,,,,,,,,,,,,,,,,
,,,,,,,,,,,,,,,,,,,,,,,,19,Female,2020-09-17_15h49.13.560,torte-2b,2020.1.3,MacIntel,60,13448,,,,,,,,,,,,,,,,,,5,,,,,,,0,3,3,3,1,,,,,,,,,,,,,,,,,,,,,,,,,,,,,,,,,,,,
,,,,,,,,,,,,,,,,,,,,,,,,19,Female,2020-09-17_15h49.13.560,torte-2b,2020.1.3,MacIntel,60,13448,,,,,,,,,,,,space,,,,,,6,0.30067,,,,,,0,4,4,4,1,,,,,,,,,,,,,,,,,,,,,,,,,,,,,,,,,,,,
,,,,,,,,,,,,,,,,,,,,,,,,19,Female,2020-09-17_15h49.13.560,torte-2b,2020.1.3,MacIntel,60,13448,,,,,,,,,,,,space,,,,,,5,0.83487,,,,,,0,5,5,5,1,,,,,,,,,,,,,,,,,,,,,,,,,,,,,,,,,,,,
,,,,,,,,,,,,,,,,,,,,,,,,19,Female,2020-09-17_15h49.13.560,torte-2b,2020.1.3,MacIntel,60,13448,,,,,,,,,,,,,,,,,,3,,,,,,,0,6,6,6,1,,,,,,,,,,,,,,,,,,,,,,,,,,,,,,,,,,,,
,,,,,,,,,,,,,,,,,,,,,,,,19,Female,2020-09-17_15h49.13.560,torte-2b,2020.1.3,MacIntel,60,13448,,,,,,,,,,,,,,,,,,4,,,,,,,0,7,7,7,1,,,,,,,,,,,,,,,,,,,,,,,,,,,,,,,,,,,,
,,,,,,,,,,,,,,,,,,,,,,,,19,Female,2020-09-17_15h49.13.560,torte-2b,2020.1.3,MacIntel,60,13448,,,,,,,,,,,,,,,,,,3,,,,,,,0,8,8,8,1,,,,,,,,,,,,,,,,,,,,,,,,,,,,,,,,,,,,
,,,,,,,,,,,,,,,,,,,,,,,,19,Female,2020-09-17_15h49.13.560,torte-2b,2020.1.3,MacIntel,60,13448,,,,,,,,,,,,space,,,,,,1,0.33864,,,,,,0,9,9,9,1,,,,,,,,,,,,,,,,,,,,,,,,,,,,,,,,,,,,
,,,,,,,,,,,,,,,,,,,,,,,,19,Female,2020-09-17_15h49.13.560,torte-2b,2020.1.3,MacIntel,60,13448,,,,,,,,,,,,,,,,,,2,,,,,,,0,10,10,10,1,,,,,,,,,,,,,,,,,,,,,,,,,,,,,,,,,,,,
,,,,,,,,,,,,,,,,,,,,,,,,19,Female,2020-09-17_15h49.13.560,torte-2b,2020.1.3,MacIntel,60,13448,,,,,,,,,,,,space,,,,,,1,0.06766,,,,,,0,11,11,11,1,,,,,,,,,,,,,,,,,,,,,,,,,,,,,,,,,,,,
,,,,,,,,,,,,,,,,,,,,,,,,19,Female,2020-09-17_15h49.13.560,torte-2b,2020.1.3,MacIntel,60,13448,,,,,,,,,,,,,,,,,,2,,,,,,,0,12,12,12,1,,,,,,,,,,,,,,,,,,,,,,,,,,,,,,,,,,,,
,,,,,,,,,,,,,,,,,,,,,,,,19,Female,2020-09-17_15h49.13.560,torte-2b,2020.1.3,MacIntel,60,13448,,,,,,,,,,,,,,,,,,1,,,,,,,0,13,13,13,1,,,,,,,,,,,,,,,,,,,,,,,,,,,,,,,,,,,,
,,,,,,,,,,,,,,,,,,,,,,,,19,Female,2020-09-17_15h49.13.560,torte-2b,2020.1.3,MacIntel,60,13448,,,,,,,,,,,,,,,,,,3,,,,,,,0,14,14,14,1,,,,,,,,,,,,,,,,,,,,,,,,,,,,,,,,,,,,
,,,,,,,,,,,,,,,,,,,,,,,,19,Female,2020-09-17_15h49.13.560,torte-2b,2020.1.3,MacIntel,60,13448,,,,,,,,,,,,,,,,,,1,,,,,,,0,15,15,15,1,,,,,,,,,,,,,,,,,,,,,,,,,,,,,,,,,,,,
,,,,,,,,,,,,,,,,,,,,,,,,19,Female,2020-09-17_15h49.13.560,torte-2b,2020.1.3,MacIntel,60,13448,,,,,,,,,,,,,,,,,,7,,,,,,,0,16,16,16,1,,,,,,,,,,,,,,,,,,,,,,,,,,,,,,,,,,,,
,,,,,,,,,,,,,,,,,,,,,,,,19,Female,2020-09-17_15h49.13.560,torte-2b,2020.1.3,MacIntel,60,13448,,,,,,,,,,,,space,,,,,,7,0.414575,,,,,,0,17,17,17,1,,,,,,,,,,,,,,,,,,,,,,,,,,,,,,,,,,,,
,,,,,,,,,,,,,,,,,,,,,,,,19,Female,2020-09-17_15h49.13.560,torte-2b,2020.1.3,MacIntel,60,13448,,,,,,,,,,,,,,,,,,4,,,,,,,0,18,18,18,1,,,,,,,,,,,,,,,,,,,,,,,,,,,,,,,,,,,,
,,,,,,,,,,,,,,,,,,,,,,,,19,Female,2020-09-17_15h49.13.560,torte-2b,2020.1.3,MacIntel,60,13448,,,,,,,,,,,,space,,,,,,7,0.264935,,,,,,0,19,19,19,1,,,,,,,,,,,,,,,,,,,,,,,,,,,,,,,,,,,,
,,,,,,,,,,,,,,,,,,,,,,,,19,Female,2020-09-17_15h49.13.560,torte-2b,2020.1.3,MacIntel,60,13448,,,,,,,,,,,,,,,,,,3,,,,,,,0,20,20,20,1,,,,,,,,,,,,,,,,,,,,,,,,,,,,,,,,,,,,
,,,,,,,,,,,,,,,,,,,,,,,,19,Female,2020-09-17_15h49.13.560,torte-2b,2020.1.3,MacIntel,60,13448,,,,,,,,,,,,,,,,,,7,,,,,,,0,21,21,21,1,,,,,,,,,,,,,,,,,,,,,,,,,,,,,,,,,,,,
,,,,,,,,,,,,,,,,,,,,,,,,19,Female,2020-09-17_15h49.13.560,torte-2b,2020.1.3,MacIntel,60,13448,,,,,,,,,,,,space,,,,,,3,0.46883,,,,,,0,22,22,22,1,,,,,,,,,,,,,,,,,,,,,,,,,,,,,,,,,,,,
,,,,,,,,,,,,,,,,,,,,,,,,19,Female,2020-09-17_15h49.13.560,torte-2b,2020.1.3,MacIntel,60,13448,,,,,,,,,,,,,,,,,,1,,,,,,,0,23,23,23,1,,,,,,,,,,,,,,,,,,,,,,,,,,,,,,,,,,,,
,,,,,,,,,,,,,,,,,,,,,,,,19,Female,2020-09-17_15h49.13.560,torte-2b,2020.1.3,MacIntel,60,13448,,,,,,,,,,,,,,,,,,6,,,,,,,0,24,24,24,1,,,,,,,,,,,,,,,,,,,,,,,,,,,,,,,,,,,,
,,,,,,,,,,,,,,,,,,,,,,,,19,Female,2020-09-17_15h49.13.560,torte-2b,2020.1.3,MacIntel,60,13448,,,,,,,,,,,,space,,,,,,3,0.2996,,,,,,0,25,25,25,1,,,,,,,,,,,,,,,,,,,,,,,,,,,,,,,,,,,,
,,,,,,,,,,,,,,,,,,,,,,,,19,Female,2020-09-17_15h49.13.560,torte-2b,2020.1.3,MacIntel,60,13448,,,,,,,,,,,,,,,,,,2,,,,,,,0,26,26,26,1,,,,,,,,,,,,,,,,,,,,,,,,,,,,,,,,,,,,
,,,,,,,,,,,,,,,,,,,,,,,,19,Female,2020-09-17_15h49.13.560,torte-2b,2020.1.3,MacIntel,60,13448,,,,,,,,,,,,space,,,,,,3,0.358695,,,,,,0,27,27,27,1,,,,,,,,,,,,,,,,,,,,,,,,,,,,,,,,,,,,
,,,,,,,,,,,,,,,,,,,,,,,,19,Female,2020-09-17_15h49.13.560,torte-2b,2020.1.3,MacIntel,60,13448,,,,,,,,,,,,,,,,,,1,,,,,,,0,28,28,28,1,,,,,,,,,,,,,,,,,,,,,,,,,,,,,,,,,,,,
,,,,,,,,,,,,,,,,,,,,,,,,19,Female,2020-09-17_15h49.13.560,torte-2b,2020.1.3,MacIntel,60,13448,,,,,,,,,,,,space,,,,,,3,0.85293,,,,,,0,29,29,29,1,,,,,,,,,,,,,,,,,,,,,,,,,,,,,,,,,,,,
,,,,,,,,,,,,,,,,,,,,,,,,19,Female,2020-09-17_15h49.13.560,torte-2b,2020.1.3,MacIntel,60,13448,,,,,,,,,,,,,,,,,,1,,,,,,,0,30,30,30,1,,,,,,,,,,,,,,,,,,,,,,,,,,,,,,,,,,,,
,,,,,,,,,,,,,,,,,,,,,,,,19,Female,2020-09-17_15h49.13.560,torte-2b,2020.1.3,MacIntel,60,13448,,,,,,,,,,,,,,,,,,7,,,,,,,0,31,31,31,1,,,,,,,,,,,,,,,,,,,,,,,,,,,,,,,,,,,,
,,,,,,,,,,,,,,,,,,,,,,,,19,Female,2020-09-17_15h49.13.560,torte-2b,2020.1.3,MacIntel,60,13448,,,,,,,,,,,,space,,,,,,5,0.319655,,,,,,0,32,32,32,1,,,,,,,,,,,,,,,,,,,,,,,,,,,,,,,,,,,,
,,,,,,,,,,,,,,,,,,,,,,,,19,Female,2020-09-17_15h49.13.560,torte-2b,2020.1.3,MacIntel,60,13448,,,,,,,,,,,,,,,,,,7,,,,,,,0,33,33,33,1,,,,,,,,,,,,,,,,,,,,,,,,,,,,,,,,,,,,
,,,,,,,,,,,,,,,,,,,,,,,,19,Female,2020-09-17_15h49.13.560,torte-2b,2020.1.3,MacIntel,60,13448,,,,,,,,,,,,space,,,,,,2,0.350955,,,,,,0,34,34,34,1,,,,,,,,,,,,,,,,,,,,,,,,,,,,,,,,,,,,
,,,,,,,,,,,,,,,,,,,,,,,,19,Female,2020-09-17_15h49.13.560,torte-2b,2020.1.3,MacIntel,60,13448,,,,,,,,,,,,space,,,,,,3,0.564075,,,,,,,,,,,0,0,0,0,1,,,,,,,,,,,,,,,,,,,,,,,,,,,,,,,
,,,,,,,,,,,,,,,,,,,,,,,,19,Female,2020-09-17_15h49.13.560,torte-2b,2020.1.3,MacIntel,60,13448,,,,,,,,,,,,,,,,,,7,,,,,,,,,,,,0,1,1,1,1,,,,,,,,,,,,,,,,,,,,,,,,,,,,,,,
,,,,,,,,,,,,,,,,,,,,,,,,19,Female,2020-09-17_15h49.13.560,torte-2b,2020.1.3,MacIntel,60,13448,,,,,,,,,,,,,,,,,,7,,,,,,,,,,,,0,2,2,2,1,,,,,,,,,,,,,,,,,,,,,,,,,,,,,,,
,,,,,,,,,,,,,,,,,,,,,,,,19,Female,2020-09-17_15h49.13.560,torte-2b,2020.1.3,MacIntel,60,13448,,,,,,,,,,,,space,,,,,,4,0.333495,,,,,,,,,,,0,3,3,3,1,,,,,,,,,,,,,,,,,,,,,,,,,,,,,,,
,,,,,,,,,,,,,,,,,,,,,,,,19,Female,2020-09-17_15h49.13.560,torte-2b,2020.1.3,MacIntel,60,13448,,,,,,,,,,,,,,,,,,5,,,,,,,,,,,,0,4,4,4,1,,,,,,,,,,,,,,,,,,,,,,,,,,,,,,,
,,,,,,,,,,,,,,,,,,,,,,,,19,Female,2020-09-17_15h49.13.560,torte-2b,2020.1.3,MacIntel,60,13448,,,,,,,,,,,,,,,,,,4,,,,,,,,,,,,0,5,5,5,1,,,,,,,,,,,,,,,,,,,,,,,,,,,,,,,
,,,,,,,,,,,,,,,,,,,,,,,,19,Female,2020-09-17_15h49.13.560,torte-2b,2020.1.3,MacIntel,60,13448,,,,,,,,,,,,space,,,,,,2,0.78469,,,,,,,,,,,0,6,6,6,1,,,,,,,,,,,,,,,,,,,,,,,,,,,,,,,
,,,,,,,,,,,,,,,,,,,,,,,,19,Female,2020-09-17_15h49.13.560,torte-2b,2020.1.3,MacIntel,60,13448,,,,,,,,,,,,,,,,,,4,,,,,,,,,,,,0,7,7,7,1,,,,,,,,,,,,,,,,,,,,,,,,,,,,,,,
,,,,,,,,,,,,,,,,,,,,,,,,19,Female,2020-09-17_15h49.13.560,torte-2b,2020.1.3,MacIntel,60,13448,,,,,,,,,,,,,,,,,,2,,,,,,,,,,,,0,8,8,8,1,,,,,,,,,,,,,,,,,,,,,,,,,,,,,,,
,,,,,,,,,,,,,,,,,,,,,,,,19,Female,2020-09-17_15h49.13.560,torte-2b,2020.1.3,MacIntel,60,13448,,,,,,,,,,,,space,,,,,,2,0.35602,,,,,,,,,,,0,9,9,9,1,,,,,,,,,,,,,,,,,,,,,,,,,,,,,,,
,,,,,,,,,,,,,,,,,,,,,,,,19,Female,2020-09-17_15h49.13.560,torte-2b,2020.1.3,MacIntel,60,13448,,,,,,,,,,,,,,,,,,6,,,,,,,,,,,,0,10,10,10,1,,,,,,,,,,,,,,,,,,,,,,,,,,,,,,,
,,,,,,,,,,,,,,,,,,,,,,,,19,Female,2020-09-17_15h49.13.560,torte-2b,2020.1.3,MacIntel,60,13448,,,,,,,,,,,,space,,,,,,2,0.75738,,,,,,,,,,,0,11,11,11,1,,,,,,,,,,,,,,,,,,,,,,,,,,,,,,,
,,,,,,,,,,,,,,,,,,,,,,,,19,Female,2020-09-17_15h49.13.560,torte-2b,2020.1.3,MacIntel,60,13448,,,,,,,,,,,,space,,,,,,2,0.453175,,,,,,,,,,,0,12,12,12,1,,,,,,,,,,,,,,,,,,,,,,,,,,,,,,,
,,,,,,,,,,,,,,,,,,,,,,,,19,Female,2020-09-17_15h49.13.560,torte-2b,2020.1.3,MacIntel,60,13448,,,,,,,,,,,,,,,,,,2,,,,,,,,,,,,0,13,13,13,1,,,,,,,,,,,,,,,,,,,,,,,,,,,,,,,
,,,,,,,,,,,,,,,,,,,,,,,,19,Female,2020-09-17_15h49.13.560,torte-2b,2020.1.3,MacIntel,60,13448,,,,,,,,,,,,,,,,,,2,,,,,,,,,,,,0,14,14,14,1,,,,,,,,,,,,,,,,,,,,,,,,,,,,,,,
,,,,,,,,,,,,,,,,,,,,,,,,19,Female,2020-09-17_15h49.13.560,torte-2b,2020.1.3,MacIntel,60,13448,,,,,,,,,,,,,,,,,,4,,,,,,,,,,,,0,15,15,15,1,,,,,,,,,,,,,,,,,,,,,,,,,,,,,,,
,,,,,,,,,,,,,,,,,,,,,,,,19,Female,2020-09-17_15h49.13.560,torte-2b,2020.1.3,MacIntel,60,13448,,,,,,,,,,,,space,,,,,,3,0.36823,,,,,,,,,,,0,16,16,16,1,,,,,,,,,,,,,,,,,,,,,,,,,,,,,,,
,,,,,,,,,,,,,,,,,,,,,,,,19,Female,2020-09-17_15h49.13.560,torte-2b,2020.1.3,MacIntel,60,13448,,,,,,,,,,,,,,,,,,7,,,,,,,,,,,,0,17,17,17,1,,,,,,,,,,,,,,,,,,,,,,,,,,,,,,,
,,,,,,,,,,,,,,,,,,,,,,,,19,Female,2020-09-17_15h49.13.560,torte-2b,2020.1.3,MacIntel,60,13448,,,,,,,,,,,,,,,,,,4,,,,,,,,,,,,0,18,18,18,1,,,,,,,,,,,,,,,,,,,,,,,,,,,,,,,
,,,,,,,,,,,,,,,,,,,,,,,,19,Female,2020-09-17_15h49.13.560,torte-2b,2020.1.3,MacIntel,60,13448,,,,,,,,,,,,space,,,,,,7,0.751525,,,,,,,,,,,0,19,19,19,1,,,,,,,,,,,,,,,,,,,,,,,,,,,,,,,
,,,,,,,,,,,,,,,,,,,,,,,,19,Female,2020-09-17_15h49.13.560,torte-2b,2020.1.3,MacIntel,60,13448,,,,,,,,,,,,space,,,,,,7,0.5345,,,,,,,,,,,0,20,20,20,1,,,,,,,,,,,,,,,,,,,,,,,,,,,,,,,
,,,,,,,,,,,,,,,,,,,,,,,,19,Female,2020-09-17_15h49.13.560,torte-2b,2020.1.3,MacIntel,60,13448,,,,,,,,,,,,,,,,,,7,,,,,,,,,,,,0,21,21,21,1,,,,,,,,,,,,,,,,,,,,,,,,,,,,,,,
,,,,,,,,,,,,,,,,,,,,,,,,19,Female,2020-09-17_15h49.13.560,torte-2b,2020.1.3,MacIntel,60,13448,,,,,,,,,,,,,,,,,,7,,,,,,,,,,,,0,22,22,22,1,,,,,,,,,,,,,,,,,,,,,,,,,,,,,,,
,,,,,,,,,,,,,,,,,,,,,,,,19,Female,2020-09-17_15h49.13.560,torte-2b,2020.1.3,MacIntel,60,13448,,,,,,,,,,,,,,,,,,1,,,,,,,,,,,,0,23,23,23,1,,,,,,,,,,,,,,,,,,,,,,,,,,,,,,,
,,,,,,,,,,,,,,,,,,,,,,,,19,Female,2020-09-17_15h49.13.560,torte-2b,2020.1.3,MacIntel,60,13448,,,,,,,,,,,,,,,,,,7,,,,,,,,,,,,0,24,24,24,1,,,,,,,,,,,,,,,,,,,,,,,,,,,,,,,
,,,,,,,,,,,,,,,,,,,,,,,,19,Female,2020-09-17_15h49.13.560,torte-2b,2020.1.3,MacIntel,60,13448,,,,,,,,,,,,,,,,,,1,,,,,,,,,,,,0,25,25,25,1,,,,,,,,,,,,,,,,,,,,,,,,,,,,,,,
,,,,,,,,,,,,,,,,,,,,,,,,19,Female,2020-09-17_15h49.13.560,torte-2b,2020.1.3,MacIntel,60,13448,,,,,,,,,,,,space,,,,,,7,0.391445,,,,,,,,,,,0,26,26,26,1,,,,,,,,,,,,,,,,,,,,,,,,,,,,,,,
,,,,,,,,,,,,,,,,,,,,,,,,19,Female,2020-09-17_15h49.13.560,torte-2b,2020.1.3,MacIntel,60,13448,,,,,,,,,,,,,,,,,,2,,,,,,,,,,,,0,27,27,27,1,,,,,,,,,,,,,,,,,,,,,,,,,,,,,,,
,,,,,,,,,,,,,,,,,,,,,,,,19,Female,2020-09-17_15h49.13.560,torte-2b,2020.1.3,MacIntel,60,13448,,,,,,,,,,,,,,,,,,5,,,,,,,,,,,,0,28,28,28,1,,,,,,,,,,,,,,,,,,,,,,,,,,,,,,,
,,,,,,,,,,,,,,,,,,,,,,,,19,Female,2020-09-17_15h49.13.560,torte-2b,2020.1.3,MacIntel,60,13448,,,,,,,,,,,,space,,,,,,5,0.52666,,,,,,,,,,,0,29,29,29,1,,,,,,,,,,,,,,,,,,,,,,,,,,,,,,,
,,,,,,,,,,,,,,,,,,,,,,,,19,Female,2020-09-17_15h49.13.560,torte-2b,2020.1.3,MacIntel,60,13448,,,,,,,,,,,,,,,,,,5,,,,,,,,,,,,0,30,30,30,1,,,,,,,,,,,,,,,,,,,,,,,,,,,,,,,
,,,,,,,,,,,,,,,,,,,,,,,,19,Female,2020-09-17_15h49.13.560,torte-2b,2020.1.3,MacIntel,60,13448,,,,,,,,,,,,,,,,,,1,,,,,,,,,,,,0,31,31,31,1,,,,,,,,,,,,,,,,,,,,,,,,,,,,,,,
,,,,,,,,,,,,,,,,,,,,,,,,19,Female,2020-09-17_15h49.13.560,torte-2b,2020.1.3,MacIntel,60,13448,,,,,,,,,,,,space,,,,,,5,0.46767,,,,,,,,,,,0,32,32,32,1,,,,,,,,,,,,,,,,,,,,,,,,,,,,,,,
,,,,,,,,,,,,,,,,,,,,,,,,19,Female,2020-09-17_15h49.13.560,torte-2b,2020.1.3,MacIntel,60,13448,,,,,,,,,,,,,,,,,,3,,,,,,,,,,,,0,33,33,33,1,,,,,,,,,,,,,,,,,,,,,,,,,,,,,,,
,,,,,,,,,,,,,,,,,,,,,,,,19,Female,2020-09-17_15h49.13.560,torte-2b,2020.1.3,MacIntel,60,13448,,,,,,,,,,,,space,,,,,,3,0.332855,,,,,,,,,,,0,34,34,34,1,,,,,,,,,,,,,,,,,,,,,,,,,,,,,,,
,,,,,,,,,,,,l,1.108795,Incorrect,,,,,,t3.png,t4.png,1,0.90855,19,Female,2020-09-17_15h49.13.560,torte-2b,2020.1.3,MacIntel,60,13448,space,1.58971,,,,,,,,,,,,,,,,,,,,,,,,,,,,,,,,,space,1.6216,0,0,0,96,1,,,,,,,,,,,,,,,,,,,,,,,,
,,,,,,,,,,,,a,0.762055,Correct!,,,,,,t4.png,t3.png,1,0.909,19,Female,2020-09-17_15h49.13.560,torte-2b,2020.1.3,MacIntel,60,13448,,,,,,,,,,,,,,,,,,,,,,,,,,,,,,,,,,,,,0,1,1,20,1,,,,,,,,,,,,,,,,,,,,,,,,
,,,,,,,,,,,,l,1.17843,Correct!,,,,,,t1.png,t5.png,4,9.55E-11,19,Female,2020-09-17_15h49.13.560,torte-2b,2020.1.3,MacIntel,60,13448,,,,,,,,,,,,,,,,,,,,,,,,,,,,,,,,,,,,,0,2,2,55,1,,,,,,,,,,,,,,,,,,,,,,,,
,,,,,,,,,,,,l,1.129935,Correct!,,,,,,t3.png,t5.png,2,0.0565,19,Female,2020-09-17_15h49.13.560,torte-2b,2020.1.3,MacIntel,60,13448,,,,,,,,,,,,,,,,,,,,,,,,,,,,,,,,,,,,,0,3,3,30,1,,,,,,,,,,,,,,,,,,,,,,,,
,,,,,,,,,,,,a,0.652365,Correct!,,,,,,t1.png,t1.png,0,0.97829,19,Female,2020-09-17_15h49.13.560,torte-2b,2020.1.3,MacIntel,60,13448,,,,,,,,,,,,,,,,,,,,,,,,,,,,,,,,,,,,,0,4,4,9,1,,,,,,,,,,,,,,,,,,,,,,,,
,,,,,,,,,,,,a,0.74495,Correct!,,,,,,t5.png,t4.png,1,0.90025,19,Female,2020-09-17_15h49.13.560,torte-2b,2020.1.3,MacIntel,60,13448,,,,,,,,,,,,,,,,,,,,,,,,,,,,,,,,,,,,,0,5,5,34,1,,,,,,,,,,,,,,,,,,,,,,,,
,,,,,,,,,,,,l,1.005375,Correct!,,,,,,t4.png,t5.png,1,0.9,19,Female,2020-09-17_15h49.13.560,torte-2b,2020.1.3,MacIntel,60,13448,,,,,,,,,,,,,,,,,,,,,,,,,,,,,,,,,,,,,0,6,6,115,1,,,,,,,,,,,,,,,,,,,,,,,,
,,,,,,,,,,,,l,0.841905,Correct!,,,,,,t3.png,t5.png,2,0.056466,19,Female,2020-09-17_15h49.13.560,torte-2b,2020.1.3,MacIntel,60,13448,,,,,,,,,,,,,,,,,,,,,,,,,,,,,,,,,,,,,0,7,7,14,1,,,,,,,,,,,,,,,,,,,,,,,,
,,,,,,,,,,,,a,0.586315,Correct!,,,,,,t5.png,t4.png,1,0.90025,19,Female,2020-09-17_15h49.13.560,torte-2b,2020.1.3,MacIntel,60,13448,,,,,,,,,,,,,,,,,,,,,,,,,,,,,,,,,,,,,0,8,8,26,1,,,,,,,,,,,,,,,,,,,,,,,,
,,,,,,,,,,,,a,0.987285,Correct!,,,,,,t2.png,t3.png,1,0.90855,19,Female,2020-09-17_15h49.13.560,torte-2b,2020.1.3,MacIntel,60,13448,,,,,,,,,,,,,,,,,,,,,,,,,,,,,,,,,,,,,0,9,9,10,1,,,,,,,,,,,,,,,,,,,,,,,,
,,,,,,,,,,,,a,0.6589,Incorrect,,,,,,t4.png,t2.png,2,0.059078,19,Female,2020-09-17_15h49.13.560,torte-2b,2020.1.3,MacIntel,60,13448,,,,,,,,,,,,,,,,,,,,,,,,,,,,,,,,,,,,,0,10,10,86,1,,,,,,,,,,,,,,,,,,,,,,,,
,,,,,,,,,,,,a,0.536355,Incorrect,,,,,,t2.png,t4.png,2,0.059078,19,Female,2020-09-17_15h49.13.560,torte-2b,2020.1.3,MacIntel,60,13448,,,,,,,,,,,,,,,,,,,,,,,,,,,,,,,,,,,,,0,11,11,24,1,,,,,,,,,,,,,,,,,,,,,,,,
,,,,,,,,,,,,a,0.4928,Correct!,,,,,,t5.png,t4.png,1,0.9,19,Female,2020-09-17_15h49.13.560,torte-2b,2020.1.3,MacIntel,60,13448,,,,,,,,,,,,,,,,,,,,,,,,,,,,,,,,,,,,,0,12,12,49,1,,,,,,,,,,,,,,,,,,,,,,,,
,,,,,,,,,,,,a,0.64306,Correct!,,,,,,t2.png,t2.png,0,0.98115,19,Female,2020-09-17_15h49.13.560,torte-2b,2020.1.3,MacIntel,60,13448,,,,,,,,,,,,,,,,,,,,,,,,,,,,,,,,,,,,,0,13,13,7,1,,,,,,,,,,,,,,,,,,,,,,,,
,,,,,,,,,,,,l,0.67085,Correct!,,,,,,t3.png,t5.png,2,0.056466,19,Female,2020-09-17_15h49.13.560,torte-2b,2020.1.3,MacIntel,60,13448,,,,,,,,,,,,,,,,,,,,,,,,,,,,,,,,,,,,,0,14,14,44,1,,,,,,,,,,,,,,,,,,,,,,,,
,,,,,,,,,,,,a,1.07603,Correct!,,,,,,t4.png,t3.png,1,0.90855,19,Female,2020-09-17_15h49.13.560,torte-2b,2020.1.3,MacIntel,60,13448,,,,,,,,,,,,,,,,,,,,,,,,,,,,,,,,,,,,,0,15,15,75,1,,,,,,,,,,,,,,,,,,,,,,,,
,,,,,,,,,,,,l,0.609845,Correct!,,,,,,t4.png,t1.png,3,0.0000131,19,Female,2020-09-17_15h49.13.560,torte-2b,2020.1.3,MacIntel,60,13448,,,,,,,,,,,,,,,,,,,,,,,,,,,,,,,,,,,,,0,16,16,13,1,,,,,,,,,,,,,,,,,,,,,,,,
,,,,,,,,,,,,a,0.6019,Correct!,,,,,,t2.png,t2.png,0,0.98115,19,Female,2020-09-17_15h49.13.560,torte-2b,2020.1.3,MacIntel,60,13448,,,,,,,,,,,,,,,,,,,,,,,,,,,,,,,,,,,,,0,17,17,2,1,,,,,,,,,,,,,,,,,,,,,,,,
,,,,,,,,,,,,l,0.673825,Correct!,,,,,,t2.png,t1.png,1,0.90025,19,Female,2020-09-17_15h49.13.560,torte-2b,2020.1.3,MacIntel,60,13448,,,,,,,,,,,,,,,,,,,,,,,,,,,,,,,,,,,,,0,18,18,4,1,,,,,,,,,,,,,,,,,,,,,,,,
,,,,,,,,,,,,a,0.53655,Correct!,,,,,,t4.png,t5.png,1,0.90025,19,Female,2020-09-17_15h49.13.560,torte-2b,2020.1.3,MacIntel,60,13448,,,,,,,,,,,,,,,,,,,,,,,,,,,,,,,,,,,,,0,19,19,58,1,,,,,,,,,,,,,,,,,,,,,,,,
,,,,,,,,,,,,l,1.071265,Incorrect,,,,,,t3.png,t2.png,1,0.90855,19,Female,2020-09-17_15h49.13.560,torte-2b,2020.1.3,MacIntel,60,13448,,,,,,,,,,,,,,,,,,,,,,,,,,,,,,,,,,,,,0,20,20,53,1,,,,,,,,,,,,,,,,,,,,,,,,
,,,,,,,,,,,,a,0.518535,Correct!,,,,,,t5.png,t4.png,1,0.9,19,Female,2020-09-17_15h49.13.560,torte-2b,2020.1.3,MacIntel,60,13448,,,,,,,,,,,,,,,,,,,,,,,,,,,,,,,,,,,,,0,21,21,76,1,,,,,,,,,,,,,,,,,,,,,,,,
,,,,,,,,,,,,a,0.48509,Incorrect,,,,,,t2.png,t5.png,3,0.0000131,19,Female,2020-09-17_15h49.13.560,torte-2b,2020.1.3,MacIntel,60,13448,,,,,,,,,,,,,,,,,,,,,,,,,,,,,,,,,,,,,0,22,22,8,1,,,,,,,,,,,,,,,,,,,,,,,,
,,,,,,,,,,,,a,1.45393,Correct!,,,,,,t5.png,t5.png,0,0.978,19,Female,2020-09-17_15h49.13.560,torte-2b,2020.1.3,MacIntel,60,13448,,,,,,,,,,,,,,,,,,,,,,,,,,,,,,,,,,,,,0,23,23,117,1,,,,,,,,,,,,,,,,,,,,,,,,
,,,,,,,,,,,,l,0.73851,Incorrect,,,,,,t3.png,t2.png,1,0.909,19,Female,2020-09-17_15h49.13.560,torte-2b,2020.1.3,MacIntel,60,13448,,,,,,,,,,,,,,,,,,,,,,,,,,,,,,,,,,,,,0,24,24,23,1,,,,,,,,,,,,,,,,,,,,,,,,
,,,,,,,,,,,,a,0.685875,Correct!,,,,,,t1.png,t2.png,1,0.90025,19,Female,2020-09-17_15h49.13.560,torte-2b,2020.1.3,MacIntel,60,13448,,,,,,,,,,,,,,,,,,,,,,,,,,,,,,,,,,,,,0,25,25,33,1,,,,,,,,,,,,,,,,,,,,,,,,
,,,,,,,,,,,,a,0.65722,Incorrect,,,,,,t1.png,t3.png,2,0.056466,19,Female,2020-09-17_15h49.13.560,torte-2b,2020.1.3,MacIntel,60,13448,,,,,,,,,,,,,,,,,,,,,,,,,,,,,,,,,,,,,0,26,26,60,1,,,,,,,,,,,,,,,,,,,,,,,,
,,,,,,,,,,,,a,1.17198,Incorrect,,,,,,t5.png,t3.png,2,0.056466,19,Female,2020-09-17_15h49.13.560,torte-2b,2020.1.3,MacIntel,60,13448,,,,,,,,,,,,,,,,,,,,,,,,,,,,,,,,,,,,,0,27,27,114,1,,,,,,,,,,,,,,,,,,,,,,,,
,,,,,,,,,,,,a,2.089295,Incorrect,,,,,,t5.png,t2.png,3,0.0000131,19,Female,2020-09-17_15h49.13.560,torte-2b,2020.1.3,MacIntel,60,13448,,,,,,,,,,,,,,,,,,,,,,,,,,,,,,,,,,,,,0,28,28,98,1,,,,,,,,,,,,,,,,,,,,,,,,
,,,,,,,,,,,,a,0.5754,Correct!,,,,,,t2.png,t3.png,1,0.909,19,Female,2020-09-17_15h49.13.560,torte-2b,2020.1.3,MacIntel,60,13448,,,,,,,,,,,,,,,,,,,,,,,,,,,,,,,,,,,,,0,29,29,74,1,,,,,,,,,,,,,,,,,,,,,,,,
,,,,,,,,,,,,l,0.702045,Correct!,,,,,,t4.png,t1.png,3,0.0000131,19,Female,2020-09-17_15h49.13.560,torte-2b,2020.1.3,MacIntel,60,13448,,,,,,,,,,,,,,,,,,,,,,,,,,,,,,,,,,,,,0,30,30,93,1,,,,,,,,,,,,,,,,,,,,,,,,
,,,,,,,,,,,,l,0.861585,Correct!,,,,,,t2.png,t5.png,3,0.0000131,19,Female,2020-09-17_15h49.13.560,torte-2b,2020.1.3,MacIntel,60,13448,,,,,,,,,,,,,,,,,,,,,,,,,,,,,,,,,,,,,0,31,31,104,1,,,,,,,,,,,,,,,,,,,,,,,,
,,,,,,,,,,,,l,0.601905,Incorrect,,,,,,t2.png,t1.png,1,0.90025,19,Female,2020-09-17_15h49.13.560,torte-2b,2020.1.3,MacIntel,60,13448,,,,,,,,,,,,,,,,,,,,,,,,,,,,,,,,,,,,,0,32,32,62,1,,,,,,,,,,,,,,,,,,,,,,,,
,,,,,,,,,,,,a,0.87977,Correct!,,,,,,t4.png,t4.png,0,0.98115,19,Female,2020-09-17_15h49.13.560,torte-2b,2020.1.3,MacIntel,60,13448,,,,,,,,,,,,,,,,,,,,,,,,,,,,,,,,,,,,,0,33,33,90,1,,,,,,,,,,,,,,,,,,,,,,,,
,,,,,,,,,,,,a,0.952135,Incorrect,,,,,,t2.png,t4.png,2,0.0591,19,Female,2020-09-17_15h49.13.560,torte-2b,2020.1.3,MacIntel,60,13448,,,,,,,,,,,,,,,,,,,,,,,,,,,,,,,,,,,,,0,34,34,15,1,,,,,,,,,,,,,,,,,,,,,,,,
,,,,,,,,,,,,a,1.305665,Incorrect,,,,,,t1.png,t3.png,2,0.056466,19,Female,2020-09-17_15h49.13.560,torte-2b,2020.1.3,MacIntel,60,13448,,,,,,,,,,,,,,,,,,,,,,,,,,,,,,,,,,,,,0,35,35,63,1,,,,,,,,,,,,,,,,,,,,,,,,
,,,,,,,,,,,,,,Too slow :(,,,,,,t2.png,t5.png,3,0.0000131,19,Female,2020-09-17_15h49.13.560,torte-2b,2020.1.3,MacIntel,60,13448,,,,,,,,,,,,,,,,,,,,,,,,,,,,,,,,,,,,,0,36,36,95,1,,,,,,,,,,,,,,,,,,,,,,,,
,,,,,,,,,,,,a,0.689575,Incorrect,,,,,,t5.png,t2.png,3,0.0000131,19,Female,2020-09-17_15h49.13.560,torte-2b,2020.1.3,MacIntel,60,13448,,,,,,,,,,,,,,,,,,,,,,,,,,,,,,,,,,,,,0,37,37,51,1,,,,,,,,,,,,,,,,,,,,,,,,
,,,,,,,,,,,,a,0.586435,Incorrect,,,,,,t5.png,t3.png,2,0.0565,19,Female,2020-09-17_15h49.13.560,torte-2b,2020.1.3,MacIntel,60,13448,,,,,,,,,,,,,,,,,,,,,,,,,,,,,,,,,,,,,0,38,38,39,1,,,,,,,,,,,,,,,,,,,,,,,,
,,,,,,,,,,,,l,0.869775,Incorrect,,,,,,t3.png,t2.png,1,0.909,19,Female,2020-09-17_15h49.13.560,torte-2b,2020.1.3,MacIntel,60,13448,,,,,,,,,,,,,,,,,,,,,,,,,,,,,,,,,,,,,0,39,39,3,1,,,,,,,,,,,,,,,,,,,,,,,,
,,,,,,,,,,,,,,Too slow :(,,,,,,t2.png,t2.png,0,0.98115,19,Female,2020-09-17_15h49.13.560,torte-2b,2020.1.3,MacIntel,60,13448,,,,,,,,,,,,,,,,,,,,,,,,,,,,,,,,,,,,,0,40,40,59,1,,,,,,,,,,,,,,,,,,,,,,,,
,,,,,,,,,,,,l,0.75246,Correct!,,,,,,t2.png,t5.png,3,0.0000131,19,Female,2020-09-17_15h49.13.560,torte-2b,2020.1.3,MacIntel,60,13448,,,,,,,,,,,,,,,,,,,,,,,,,,,,,,,,,,,,,0,41,41,66,1,,,,,,,,,,,,,,,,,,,,,,,,
,,,,,,,,,,,,l,2.326515,Incorrect,,,,,,t3.png,t2.png,1,0.90855,19,Female,2020-09-17_15h49.13.560,torte-2b,2020.1.3,MacIntel,60,13448,,,,,,,,,,,,,,,,,,,,,,,,,,,,,,,,,,,,,0,42,42,97,1,,,,,,,,,,,,,,,,,,,,,,,,
,,,,,,,,,,,,a,0.591135,Correct!,,,,,,t1.png,t1.png,0,0.978,19,Female,2020-09-17_15h49.13.560,torte-2b,2020.1.3,MacIntel,60,13448,,,,,,,,,,,,,,,,,,,,,,,,,,,,,,,,,,,,,0,43,43,54,1,,,,,,,,,,,,,,,,,,,,,,,,
,,,,,,,,,,,,a,0.51921,Incorrect,,,,,,t5.png,t2.png,3,0.0000131,19,Female,2020-09-17_15h49.13.560,torte-2b,2020.1.3,MacIntel,60,13448,,,,,,,,,,,,,,,,,,,,,,,,,,,,,,,,,,,,,0,44,44,119,1,,,,,,,,,,,,,,,,,,,,,,,,
,,,,,,,,,,,,l,0.9234,Incorrect,,,,,,t3.png,t4.png,1,0.909,19,Female,2020-09-17_15h49.13.560,torte-2b,2020.1.3,MacIntel,60,13448,,,,,,,,,,,,,,,,,,,,,,,,,,,,,,,,,,,,,0,45,45,106,1,,,,,,,,,,,,,,,,,,,,,,,,
,,,,,,,,,,,,a,2.27366,Correct!,,,,,,t2.png,t3.png,1,0.90855,19,Female,2020-09-17_15h49.13.560,torte-2b,2020.1.3,MacIntel,60,13448,,,,,,,,,,,,,,,,,,,,,,,,,,,,,,,,,,,,,0,46,46,65,1,,,,,,,,,,,,,,,,,,,,,,,,
,,,,,,,,,,,,a,1.253815,Incorrect,,,,,,t4.png,t3.png,1,0.90855,19,Female,2020-09-17_15h49.13.560,torte-2b,2020.1.3,MacIntel,60,13448,,,,,,,,,,,,,,,,,,,,,,,,,,,,,,,,,,,,,0,47,47,35,1,,,,,,,,,,,,,,,,,,,,,,,,
,,,,,,,,,,,,a,0.939505,Incorrect,,,,,,t1.png,t4.png,3,0.0000131,19,Female,2020-09-17_15h49.13.560,torte-2b,2020.1.3,MacIntel,60,13448,,,,,,,,,,,,,,,,,,,,,,,,,,,,,,,,,,,,,0,48,48,50,1,,,,,,,,,,,,,,,,,,,,,,,,
,,,,,,,,,,,,a,0.836725,Incorrect,,,,,,t1.png,t5.png,4,9.55E-11,19,Female,2020-09-17_15h49.13.560,torte-2b,2020.1.3,MacIntel,60,13448,,,,,,,,,,,,,,,,,,,,,,,,,,,,,,,,,,,,,0,49,49,16,1,,,,,,,,,,,,,,,,,,,,,,,,
,,,,,,,,,,,,l,1.236785,Incorrect,,,,,,t4.png,t5.png,1,0.90025,19,Female,2020-09-17_15h49.13.560,torte-2b,2020.1.3,MacIntel,60,13448,,,,,,,,,,,,,,,,,,,,,,,,,,,,,,,,,,,,,0,50,50,113,1,,,,,,,,,,,,,,,,,,,,,,,,
,,,,,,,,,,,,l,1.179795,Correct!,,,,,,t3.png,t1.png,2,0.056466,19,Female,2020-09-17_15h49.13.560,torte-2b,2020.1.3,MacIntel,60,13448,,,,,,,,,,,,,,,,,,,,,,,,,,,,,,,,,,,,,0,51,51,64,1,,,,,,,,,,,,,,,,,,,,,,,,
,,,,,,,,,,,,a,0.963155,Correct!,,,,,,t1.png,t1.png,0,0.97829,19,Female,2020-09-17_15h49.13.560,torte-2b,2020.1.3,MacIntel,60,13448,,,,,,,,,,,,,,,,,,,,,,,,,,,,,,,,,,,,,0,52,52,67,1,,,,,,,,,,,,,,,,,,,,,,,,
,,,,,,,,,,,,l,1.500875,Correct!,,,,,,t4.png,t1.png,3,0.0000131,19,Female,2020-09-17_15h49.13.560,torte-2b,2020.1.3,MacIntel,60,13448,,,,,,,,,,,,,,,,,,,,,,,,,,,,,,,,,,,,,0,53,53,42,1,,,,,,,,,,,,,,,,,,,,,,,,
,,,,,,,,,,,,a,1.57174,Correct!,,,,,,t5.png,t5.png,0,0.97829,19,Female,2020-09-17_15h49.13.560,torte-2b,2020.1.3,MacIntel,60,13448,,,,,,,,,,,,,,,,,,,,,,,,,,,,,,,,,,,,,0,54,54,25,1,,,,,,,,,,,,,,,,,,,,,,,,
,,,,,,,,,,,,,,Too slow :(,,,,,,t2.png,t3.png,1,0.90855,19,Female,2020-09-17_15h49.13.560,torte-2b,2020.1.3,MacIntel,60,13448,,,,,,,,,,,,,,,,,,,,,,,,,,,,,,,,,,,,,0,55,55,111,1,,,,,,,,,,,,,,,,,,,,,,,,
,,,,,,,,,,,,a,0.67215,Correct!,,,,,,t1.png,t1.png,0,0.97829,19,Female,2020-09-17_15h49.13.560,torte-2b,2020.1.3,MacIntel,60,13448,,,,,,,,,,,,,,,,,,,,,,,,,,,,,,,,,,,,,0,56,56,78,1,,,,,,,,,,,,,,,,,,,,,,,,
,,,,,,,,,,,,a,0.81222,Correct!,,,,,,t1.png,t2.png,1,0.90025,19,Female,2020-09-17_15h49.13.560,torte-2b,2020.1.3,MacIntel,60,13448,,,,,,,,,,,,,,,,,,,,,,,,,,,,,,,,,,,,,0,57,57,105,1,,,,,,,,,,,,,,,,,,,,,,,,
,,,,,,,,,,,,l,1.571545,Correct!,,,,,,t4.png,t2.png,2,0.059078,19,Female,2020-09-17_15h49.13.560,torte-2b,2020.1.3,MacIntel,60,13448,,,,,,,,,,,,,,,,,,,,,,,,,,,,,,,,,,,,,0,58,58,109,1,,,,,,,,,,,,,,,,,,,,,,,,
,,,,,,,,,,,,a,1.12082,Correct!,,,,,,t2.png,t3.png,1,0.90855,19,Female,2020-09-17_15h49.13.560,torte-2b,2020.1.3,MacIntel,60,13448,,,,,,,,,,,,,,,,,,,,,,,,,,,,,,,,,,,,,0,59,59,68,1,,,,,,,,,,,,,,,,,,,,,,,,
,,,,,,,,,,,,a,1.33682,Correct!,,,,,,t1.png,t2.png,1,0.9,19,Female,2020-09-17_15h49.13.560,torte-2b,2020.1.3,MacIntel,60,13448,,,,,,,,,,,,,,,,,,,,,,,,,,,,,,,,,,,,,0,60,60,1,1,,,,,,,,,,,,,,,,,,,,,,,,
,,,,,,,,,,,,a,1.940685,Correct!,,,,,,t1.png,t1.png,0,0.978,19,Female,2020-09-17_15h49.13.560,torte-2b,2020.1.3,MacIntel,60,13448,,,,,,,,,,,,,,,,,,,,,,,,,,,,,,,,,,,,,0,61,61,28,1,,,,,,,,,,,,,,,,,,,,,,,,
,,,,,,,,,,,,l,0.76904,Correct!,,,,,,t3.png,t1.png,2,0.056466,19,Female,2020-09-17_15h49.13.560,torte-2b,2020.1.3,MacIntel,60,13448,,,,,,,,,,,,,,,,,,,,,,,,,,,,,,,,,,,,,0,62,62,29,1,,,,,,,,,,,,,,,,,,,,,,,,
,,,,,,,,,,,,l,1.005585,Correct!,,,,,,t3.png,t5.png,2,0.056466,19,Female,2020-09-17_15h49.13.560,torte-2b,2020.1.3,MacIntel,60,13448,,,,,,,,,,,,,,,,,,,,,,,,,,,,,,,,,,,,,0,63,63,6,1,,,,,,,,,,,,,,,,,,,,,,,,
,,,,,,,,,,,,a,1.609265,Incorrect,,,,,,t4.png,t2.png,2,0.059078,19,Female,2020-09-17_15h49.13.560,torte-2b,2020.1.3,MacIntel,60,13448,,,,,,,,,,,,,,,,,,,,,,,,,,,,,,,,,,,,,0,64,64,88,1,,,,,,,,,,,,,,,,,,,,,,,,
,,,,,,,,,,,,a,0.503295,Incorrect,,,,,,t1.png,t5.png,4,9.55E-11,19,Female,2020-09-17_15h49.13.560,torte-2b,2020.1.3,MacIntel,60,13448,,,,,,,,,,,,,,,,,,,,,,,,,,,,,,,,,,,,,0,65,65,85,1,,,,,,,,,,,,,,,,,,,,,,,,
,,,,,,,,,,,,a,0.72366,Correct!,,,,,,t4.png,t4.png,0,0.98115,19,Female,2020-09-17_15h49.13.560,torte-2b,2020.1.3,MacIntel,60,13448,,,,,,,,,,,,,,,,,,,,,,,,,,,,,,,,,,,,,0,66,66,79,1,,,,,,,,,,,,,,,,,,,,,,,,
,,,,,,,,,,,,l,0.83869,Correct!,,,,,,t3.png,t5.png,2,0.0565,19,Female,2020-09-17_15h49.13.560,torte-2b,2020.1.3,MacIntel,60,13448,,,,,,,,,,,,,,,,,,,,,,,,,,,,,,,,,,,,,0,67,67,83,1,,,,,,,,,,,,,,,,,,,,,,,,
,,,,,,,,,,,,,,Too slow :(,,,,,,t1.png,t3.png,2,0.056466,19,Female,2020-09-17_15h49.13.560,torte-2b,2020.1.3,MacIntel,60,13448,,,,,,,,,,,,,,,,,,,,,,,,,,,,,,,,,,,,,0,68,68,99,1,,,,,,,,,,,,,,,,,,,,,,,,
,,,,,,,,,,,,a,2.206095,Correct!,,,,,,t3.png,t4.png,1,0.909,19,Female,2020-09-17_15h49.13.560,torte-2b,2020.1.3,MacIntel,60,13448,,,,,,,,,,,,,,,,,,,,,,,,,,,,,,,,,,,,,0,69,69,82,1,,,,,,,,,,,,,,,,,,,,,,,,
,,,,,,,,,,,,a,0.59268,Incorrect,,,,,,t5.png,t2.png,3,0.0000131,19,Female,2020-09-17_15h49.13.560,torte-2b,2020.1.3,MacIntel,60,13448,,,,,,,,,,,,,,,,,,,,,,,,,,,,,,,,,,,,,0,70,70,91,1,,,,,,,,,,,,,,,,,,,,,,,,
,,,,,,,,,,,,l,1.22359,Correct!,,,,,,t4.png,t1.png,3,0.0000131,19,Female,2020-09-17_15h49.13.560,torte-2b,2020.1.3,MacIntel,60,13448,,,,,,,,,,,,,,,,,,,,,,,,,,,,,,,,,,,,,0,71,71,61,1,,,,,,,,,,,,,,,,,,,,,,,,
,,,,,,,,,,,,a,1.086305,Correct!,,,,,,t4.png,t3.png,1,0.90855,19,Female,2020-09-17_15h49.13.560,torte-2b,2020.1.3,MacIntel,60,13448,,,,,,,,,,,,,,,,,,,,,,,,,,,,,,,,,,,,,0,72,72,45,1,,,,,,,,,,,,,,,,,,,,,,,,
,,,,,,,,,,,,,,Too slow :(,,,,,,t5.png,t1.png,4,9.55E-11,19,Female,2020-09-17_15h49.13.560,torte-2b,2020.1.3,MacIntel,60,13448,,,,,,,,,,,,,,,,,,,,,,,,,,,,,,,,,,,,,0,73,73,22,1,,,,,,,,,,,,,,,,,,,,,,,,
,,,,,,,,,,,,a,0.53607,Correct!,,,,,,t1.png,t2.png,1,0.90025,19,Female,2020-09-17_15h49.13.560,torte-2b,2020.1.3,MacIntel,60,13448,,,,,,,,,,,,,,,,,,,,,,,,,,,,,,,,,,,,,0,74,74,72,1,,,,,,,,,,,,,,,,,,,,,,,,
,,,,,,,,,,,,,,Too slow :(,,,,,,t1.png,t4.png,3,0.0000131,19,Female,2020-09-17_15h49.13.560,torte-2b,2020.1.3,MacIntel,60,13448,,,,,,,,,,,,,,,,,,,,,,,,,,,,,,,,,,,,,0,75,75,107,1,,,,,,,,,,,,,,,,,,,,,,,,
,,,,,,,,,,,,a,0.753645,Incorrect,,,,,,t1.png,t5.png,4,9.55E-11,19,Female,2020-09-17_15h49.13.560,torte-2b,2020.1.3,MacIntel,60,13448,,,,,,,,,,,,,,,,,,,,,,,,,,,,,,,,,,,,,0,76,76,12,1,,,,,,,,,,,,,,,,,,,,,,,,
,,,,,,,,,,,,,,Too slow :(,,,,,,t1.png,t4.png,3,0.0000131,19,Female,2020-09-17_15h49.13.560,torte-2b,2020.1.3,MacIntel,60,13448,,,,,,,,,,,,,,,,,,,,,,,,,,,,,,,,,,,,,0,77,77,17,1,,,,,,,,,,,,,,,,,,,,,,,,
,,,,,,,,,,,,a,0.48664,Incorrect,,,,,,t1.png,t4.png,3,0.0000131,19,Female,2020-09-17_15h49.13.560,torte-2b,2020.1.3,MacIntel,60,13448,,,,,,,,,,,,,,,,,,,,,,,,,,,,,,,,,,,,,0,78,78,81,1,,,,,,,,,,,,,,,,,,,,,,,,
,,,,,,,,,,,,a,0.786395,Incorrect,,,,,,t4.png,t2.png,2,0.059078,19,Female,2020-09-17_15h49.13.560,torte-2b,2020.1.3,MacIntel,60,13448,,,,,,,,,,,,,,,,,,,,,,,,,,,,,,,,,,,,,0,79,79,110,1,,,,,,,,,,,,,,,,,,,,,,,,
,,,,,,,,,,,,l,1.67883,Correct!,,,,,,t5.png,t1.png,4,9.55E-11,19,Female,2020-09-17_15h49.13.560,torte-2b,2020.1.3,MacIntel,60,13448,,,,,,,,,,,,,,,,,,,,,,,,,,,,,,,,,,,,,0,80,80,102,1,,,,,,,,,,,,,,,,,,,,,,,,
,,,,,,,,,,,,l,0.93574,Incorrect,,,,,,t2.png,t1.png,1,0.90025,19,Female,2020-09-17_15h49.13.560,torte-2b,2020.1.3,MacIntel,60,13448,,,,,,,,,,,,,,,,,,,,,,,,,,,,,,,,,,,,,0,81,81,19,1,,,,,,,,,,,,,,,,,,,,,,,,
,,,,,,,,,,,,a,0.871635,Incorrect,,,,,,t5.png,t1.png,4,9.55E-11,19,Female,2020-09-17_15h49.13.560,torte-2b,2020.1.3,MacIntel,60,13448,,,,,,,,,,,,,,,,,,,,,,,,,,,,,,,,,,,,,0,82,82,100,1,,,,,,,,,,,,,,,,,,,,,,,,
,,,,,,,,,,,,a,1.30903,Correct!,,,,,,t3.png,t2.png,1,0.90855,19,Female,2020-09-17_15h49.13.560,torte-2b,2020.1.3,MacIntel,60,13448,,,,,,,,,,,,,,,,,,,,,,,,,,,,,,,,,,,,,0,83,83,18,1,,,,,,,,,,,,,,,,,,,,,,,,
,,,,,,,,,,,,a,0.88622,Incorrect,,,,,,t2.png,t4.png,2,0.059078,19,Female,2020-09-17_15h49.13.560,torte-2b,2020.1.3,MacIntel,60,13448,,,,,,,,,,,,,,,,,,,,,,,,,,,,,,,,,,,,,0,84,84,37,1,,,,,,,,,,,,,,,,,,,,,,,,
,,,,,,,,,,,,a,0.85199,Correct!,,,,,,t5.png,t3.png,2,0.056466,19,Female,2020-09-17_15h49.13.560,torte-2b,2020.1.3,MacIntel,60,13448,,,,,,,,,,,,,,,,,,,,,,,,,,,,,,,,,,,,,0,85,85,56,1,,,,,,,,,,,,,,,,,,,,,,,,
,,,,,,,,,,,,l,0.68618,Incorrect,,,,,,t5.png,t5.png,0,0.97829,19,Female,2020-09-17_15h49.13.560,torte-2b,2020.1.3,MacIntel,60,13448,,,,,,,,,,,,,,,,,,,,,,,,,,,,,,,,,,,,,0,86,86,73,1,,,,,,,,,,,,,,,,,,,,,,,,
,,,,,,,,,,,,a,0.46209,Correct!,,,,,,t4.png,t4.png,0,0.98115,19,Female,2020-09-17_15h49.13.560,torte-2b,2020.1.3,MacIntel,60,13448,,,,,,,,,,,,,,,,,,,,,,,,,,,,,,,,,,,,,0,87,87,80,1,,,,,,,,,,,,,,,,,,,,,,,,
,,,,,,,,,,,,l,1.03601,Incorrect,,,,,,t4.png,t5.png,1,0.90025,19,Female,2020-09-17_15h49.13.560,torte-2b,2020.1.3,MacIntel,60,13448,,,,,,,,,,,,,,,,,,,,,,,,,,,,,,,,,,,,,0,88,88,103,1,,,,,,,,,,,,,,,,,,,,,,,,
,,,,,,,,,,,,a,2.12601,Incorrect,,,,,,t5.png,t1.png,4,9.55E-11,19,Female,2020-09-17_15h49.13.560,torte-2b,2020.1.3,MacIntel,60,13448,,,,,,,,,,,,,,,,,,,,,,,,,,,,,,,,,,,,,0,89,89,71,1,,,,,,,,,,,,,,,,,,,,,,,,
,,,,,,,,,,,,l,1.46376,Incorrect,,,,,,t4.png,t5.png,1,0.90025,19,Female,2020-09-17_15h49.13.560,torte-2b,2020.1.3,MacIntel,60,13448,,,,,,,,,,,,,,,,,,,,,,,,,,,,,,,,,,,,,0,90,90,47,1,,,,,,,,,,,,,,,,,,,,,,,,
,,,,,,,,,,,,,,Too slow :(,,,,,,t5.png,t4.png,1,0.90025,19,Female,2020-09-17_15h49.13.560,torte-2b,2020.1.3,MacIntel,60,13448,,,,,,,,,,,,,,,,,,,,,,,,,,,,,,,,,,,,,0,91,91,27,1,,,,,,,,,,,,,,,,,,,,,,,,
,,,,,,,,,,,,a,0.50555,Incorrect,,,,,,t1.png,t3.png,2,0.056466,19,Female,2020-09-17_15h49.13.560,torte-2b,2020.1.3,MacIntel,60,13448,,,,,,,,,,,,,,,,,,,,,,,,,,,,,,,,,,,,,0,92,92,69,1,,,,,,,,,,,,,,,,,,,,,,,,
,,,,,,,,,,,,a,1.203115,Incorrect,,,,,,t5.png,t2.png,3,0.0000131,19,Female,2020-09-17_15h49.13.560,torte-2b,2020.1.3,MacIntel,60,13448,,,,,,,,,,,,,,,,,,,,,,,,,,,,,,,,,,,,,0,93,93,116,1,,,,,,,,,,,,,,,,,,,,,,,,
,,,,,,,,,,,,l,1.480405,Incorrect,,,,,,t2.png,t1.png,1,0.90025,19,Female,2020-09-17_15h49.13.560,torte-2b,2020.1.3,MacIntel,60,13448,,,,,,,,,,,,,,,,,,,,,,,,,,,,,,,,,,,,,0,94,94,5,1,,,,,,,,,,,,,,,,,,,,,,,,
,,,,,,,,,,,,a,0.76916,Correct!,,,,,,t2.png,t2.png,0,0.981,19,Female,2020-09-17_15h49.13.560,torte-2b,2020.1.3,MacIntel,60,13448,,,,,,,,,,,,,,,,,,,,,,,,,,,,,,,,,,,,,0,95,95,101,1,,,,,,,,,,,,,,,,,,,,,,,,
,,,,,,,,,,,,a,0.92384,Incorrect,,,,,,t2.png,t4.png,2,0.059078,19,Female,2020-09-17_15h49.13.560,torte-2b,2020.1.3,MacIntel,60,13448,,,,,,,,,,,,,,,,,,,,,,,,,,,,,,,,,,,,,0,96,96,11,1,,,,,,,,,,,,,,,,,,,,,,,,
,,,,,,,,,,,,l,0.891205,Correct!,,,,,,t3.png,t1.png,2,0.0565,19,Female,2020-09-17_15h49.13.560,torte-2b,2020.1.3,MacIntel,60,13448,,,,,,,,,,,,,,,,,,,,,,,,,,,,,,,,,,,,,0,97,97,31,1,,,,,,,,,,,,,,,,,,,,,,,,
,,,,,,,,,,,,a,0.81938,Incorrect,,,,,,t4.png,t2.png,2,0.0591,19,Female,2020-09-17_15h49.13.560,torte-2b,2020.1.3,MacIntel,60,13448,,,,,,,,,,,,,,,,,,,,,,,,,,,,,,,,,,,,,0,98,98,36,1,,,,,,,,,,,,,,,,,,,,,,,,
,,,,,,,,,,,,a,1.18605,Incorrect,,,,,,t5.png,t3.png,2,0.056466,19,Female,2020-09-17_15h49.13.560,torte-2b,2020.1.3,MacIntel,60,13448,,,,,,,,,,,,,,,,,,,,,,,,,,,,,,,,,,,,,0,99,99,38,1,,,,,,,,,,,,,,,,,,,,,,,,
,,,,,,,,,,,,l,1.560285,Incorrect,,,,,,t3.png,t4.png,1,0.90855,19,Female,2020-09-17_15h49.13.560,torte-2b,2020.1.3,MacIntel,60,13448,,,,,,,,,,,,,,,,,,,,,,,,,,,,,,,,,,,,,0,100,100,84,1,,,,,,,,,,,,,,,,,,,,,,,,
,,,,,,,,,,,,,,Too slow :(,,,,,,t1.png,t3.png,2,0.056466,19,Female,2020-09-17_15h49.13.560,torte-2b,2020.1.3,MacIntel,60,13448,,,,,,,,,,,,,,,,,,,,,,,,,,,,,,,,,,,,,0,101,101,87,1,,,,,,,,,,,,,,,,,,,,,,,,
,,,,,,,,,,,,l,0.822285,Correct!,,,,,,t3.png,t1.png,2,0.056466,19,Female,2020-09-17_15h49.13.560,torte-2b,2020.1.3,MacIntel,60,13448,,,,,,,,,,,,,,,,,,,,,,,,,,,,,,,,,,,,,0,102,102,0,1,,,,,,,,,,,,,,,,,,,,,,,,
,,,,,,,,,,,,a,2.4436,Incorrect,,,,,,t1.png,t5.png,4,9.55E-11,19,Female,2020-09-17_15h49.13.560,torte-2b,2020.1.3,MacIntel,60,13448,,,,,,,,,,,,,,,,,,,,,,,,,,,,,,,,,,,,,0,103,103,41,1,,,,,,,,,,,,,,,,,,,,,,,,
,,,,,,,,,,,,l,0.842625,Incorrect,,,,,,t3.png,t4.png,1,0.909,19,Female,2020-09-17_15h49.13.560,torte-2b,2020.1.3,MacIntel,60,13448,,,,,,,,,,,,,,,,,,,,,,,,,,,,,,,,,,,,,0,104,104,89,1,,,,,,,,,,,,,,,,,,,,,,,,
,,,,,,,,,,,,l,0.80331,Correct!,,,,,,t3.png,t1.png,2,0.056466,19,Female,2020-09-17_15h49.13.560,torte-2b,2020.1.3,MacIntel,60,13448,,,,,,,,,,,,,,,,,,,,,,,,,,,,,,,,,,,,,0,105,105,32,1,,,,,,,,,,,,,,,,,,,,,,,,
,,,,,,,,,,,,,,Too slow :(,,,,,,t5.png,t5.png,0,0.97829,19,Female,2020-09-17_15h49.13.560,torte-2b,2020.1.3,MacIntel,60,13448,,,,,,,,,,,,,,,,,,,,,,,,,,,,,,,,,,,,,0,106,106,94,1,,,,,,,,,,,,,,,,,,,,,,,,
,,,,,,,,,,,,a,1.186265,Correct!,,,,,,t4.png,t4.png,0,0.98115,19,Female,2020-09-17_15h49.13.560,torte-2b,2020.1.3,MacIntel,60,13448,,,,,,,,,,,,,,,,,,,,,,,,,,,,,,,,,,,,,0,107,107,21,1,,,,,,,,,,,,,,,,,,,,,,,,
,,,,,,,,,,,,l,0.856695,Incorrect,,,,,,t2.png,t1.png,1,0.9,19,Female,2020-09-17_15h49.13.560,torte-2b,2020.1.3,MacIntel,60,13448,,,,,,,,,,,,,,,,,,,,,,,,,,,,,,,,,,,,,0,108,108,118,1,,,,,,,,,,,,,,,,,,,,,,,,
,,,,,,,,,,,,l,0.769515,Correct!,,,,,,t4.png,t1.png,3,0.0000131,19,Female,2020-09-17_15h49.13.560,torte-2b,2020.1.3,MacIntel,60,13448,,,,,,,,,,,,,,,,,,,,,,,,,,,,,,,,,,,,,0,109,109,48,1,,,,,,,,,,,,,,,,,,,,,,,,
,,,,,,,,,,,,l,0.67009,Correct!,,,,,,t5.png,t1.png,4,9.55E-11,19,Female,2020-09-17_15h49.13.560,torte-2b,2020.1.3,MacIntel,60,13448,,,,,,,,,,,,,,,,,,,,,,,,,,,,,,,,,,,,,0,110,110,43,1,,,,,,,,,,,,,,,,,,,,,,,,
,,,,,,,,,,,,a,0.672685,Correct!,,,,,,t5.png,t5.png,0,0.97829,19,Female,2020-09-17_15h49.13.560,torte-2b,2020.1.3,MacIntel,60,13448,,,,,,,,,,,,,,,,,,,,,,,,,,,,,,,,,,,,,0,111,111,70,1,,,,,,,,,,,,,,,,,,,,,,,,
,,,,,,,,,,,,a,0.87053,Correct!,,,,,,t1.png,t2.png,1,0.90025,19,Female,2020-09-17_15h49.13.560,torte-2b,2020.1.3,MacIntel,60,13448,,,,,,,,,,,,,,,,,,,,,,,,,,,,,,,,,,,,,0,112,112,112,1,,,,,,,,,,,,,,,,,,,,,,,,
,,,,,,,,,,,,a,0.59079,Incorrect,,,,,,t1.png,t4.png,3,0.0000131,19,Female,2020-09-17_15h49.13.560,torte-2b,2020.1.3,MacIntel,60,13448,,,,,,,,,,,,,,,,,,,,,,,,,,,,,,,,,,,,,0,113,113,92,1,,,,,,,,,,,,,,,,,,,,,,,,
,,,,,,,,,,,,a,0.77735,Correct!,,,,,,t2.png,t2.png,0,0.98115,19,Female,2020-09-17_15h49.13.560,torte-2b,2020.1.3,MacIntel,60,13448,,,,,,,,,,,,,,,,,,,,,,,,,,,,,,,,,,,,,0,114,114,57,1,,,,,,,,,,,,,,,,,,,,,,,,
,,,,,,,,,,,,a,0.742745,Incorrect,,,,,,t2.png,t5.png,3,0.0000131,19,Female,2020-09-17_15h49.13.560,torte-2b,2020.1.3,MacIntel,60,13448,,,,,,,,,,,,,,,,,,,,,,,,,,,,,,,,,,,,,0,115,115,40,1,,,,,,,,,,,,,,,,,,,,,,,,
,,,,,,,,,,,,a,1.154115,Correct!,,,,,,t4.png,t3.png,1,0.909,19,Female,2020-09-17_15h49.13.560,torte-2b,2020.1.3,MacIntel,60,13448,,,,,,,,,,,,,,,,,,,,,,,,,,,,,,,,,,,,,0,116,116,46,1,,,,,,,,,,,,,,,,,,,,,,,,
,,,,,,,,,,,,l,0.734945,Correct!,,,,,,t2.png,t4.png,2,0.059078,19,Female,2020-09-17_15h49.13.560,torte-2b,2020.1.3,MacIntel,60,13448,,,,,,,,,,,,,,,,,,,,,,,,,,,,,,,,,,,,,0,117,117,77,1,,,,,,,,,,,,,,,,,,,,,,,,
,,,,,,,,,,,,a,0.906455,Incorrect,,,,,,t5.png,t3.png,2,0.056466,19,Female,2020-09-17_15h49.13.560,torte-2b,2020.1.3,MacIntel,60,13448,,,,,,,,,,,,,,,,,,,,,,,,,,,,,,,,,,,,,0,118,118,108,1,,,,,,,,,,,,,,,,,,,,,,,,
,,,,,,,,,,,,a,1.103715,Correct!,,,,,,t4.png,t4.png,0,0.98115,19,Female,2020-09-17_15h49.13.560,torte-2b,2020.1.3,MacIntel,60,13448,,,,,,,,,,,,,,,,,,,,,,,,,,,,,,,,,,,,,0,119,119,52,1,,,,,,,,,,,,,,,,,,,,,,,,
,,,,,,,,,,,,,,,,,,,,,,,,19,Female,2020-09-17_15h49.13.560,torte-2b,2020.1.3,MacIntel,60,13448,space,2.680215,,,,,,,,,,,,,,,,,,,,,,,,,,,,,,,,,,,,,,,,-3.796875,-115.9453125,1,0,0,s6,-41.8671875,13.171875,1,0,0,t2,138.2421875,-94.8671875,1,0,0,proceed,space,0.316455,space,1.155055,space,0.553135
