key_resp_8.keys,key_resp_8.rt,key_resp_9.keys,key_resp_9.rt,key_resp_10.keys,key_resp_10.rt,key_resp_11.keys,key_resp_11.rt,key_resp_2.keys,key_resp_2.rt,key_resp_3.keys,key_resp_3.rt,key_resp.keys,Feedback,train.thisRepN,train.thisTrialN,train.thisN,train.thisIndex,train.ran,torta_sx,torta_dx,difference,probability,age,gender,date,expName,psychopyVersion,OS,frameRate,participant,key_resp.rt,key_resp_15.keys,key_resp_15.rt,key_resp_6.keys,key_resp_6.rt,test1.thisRepN,test1.thisTrialN,test1.thisN,test1.thisIndex,test1.ran,key_resp_4.keys,key_resp_4.rt,key_resp_5.keys,back1.thisRepN,back1.thisTrialN,back1.thisN,back1.thisIndex,back1.ran,letter,key_resp_5.rt,back2.thisRepN,back2.thisTrialN,back2.thisN,back2.thisIndex,back2.ran,back3.thisRepN,back3.thisTrialN,back3.thisN,back3.thisIndex,back3.ran,back4.thisRepN,back4.thisTrialN,back4.thisN,back4.thisIndex,back4.ran,key_resp_7.keys,key_resp_7.rt,test2.thisRepN,test2.thisTrialN,test2.thisN,test2.thisIndex,test2.ran,mouse.x,mouse.y,mouse.leftButton,mouse.midButton,mouse.rightButton,mouse.clicked_name,mouse_2.x,mouse_2.y,mouse_2.leftButton,mouse_2.midButton,mouse_2.rightButton,mouse_2.clicked_name,mouse_3.x,mouse_3.y,mouse_3.leftButton,mouse_3.midButton,mouse_3.rightButton,mouse_3.clicked_name,key_resp_12.keys,key_resp_12.rt,key_resp_13.keys,key_resp_13.rt,key_resp_14.keys,key_resp_14.rt
space,1.016,space,4.186,space,1.325,space,0.769,w,0.4,space,130.915,,Too slow :(,0,0,0,55,1,t2.png,t4.png,2,0.059078,19,female,2020-08-28_23h38.59.022,torte-2b,2020.1.3,MacIntel,60,13449,,,,,,,,,,,,,,,,,,,,,,,,,,,,,,,,,,,,,,,,,,,,,,,,,,,,,,,,,,,,,,,,,,
,,,,,,,,,,,,a,Incorrect,0,1,1,111,1,t5.png,t1.png,4,9.55E-11,19,female,2020-08-28_23h38.59.022,torte-2b,2020.1.3,MacIntel,60,13449,0.979,,,,,,,,,,,,,,,,,,,,,,,,,,,,,,,,,,,,,,,,,,,,,,,,,,,,,,,,,,,,,,,,,
,,,,,,,,,,,,,Too slow :(,0,2,2,76,1,t3.png,t2.png,1,0.90855,19,female,2020-08-28_23h38.59.022,torte-2b,2020.1.3,MacIntel,60,13449,,,,,,,,,,,,,,,,,,,,,,,,,,,,,,,,,,,,,,,,,,,,,,,,,,,,,,,,,,,,,,,,,,
,,,,,,,,,,,,l,Correct!,0,3,3,1,1,t2.png,t4.png,2,0.059078,19,female,2020-08-28_23h38.59.022,torte-2b,2020.1.3,MacIntel,60,13449,0.673,,,,,,,,,,,,,,,,,,,,,,,,,,,,,,,,,,,,,,,,,,,,,,,,,,,,,,,,,,,,,,,,,
,,,,,,,,,,,,l,Correct!,0,4,4,35,1,t1.png,t4.png,3,0.0000131,19,female,2020-08-28_23h38.59.022,torte-2b,2020.1.3,MacIntel,60,13449,1.265,,,,,,,,,,,,,,,,,,,,,,,,,,,,,,,,,,,,,,,,,,,,,,,,,,,,,,,,,,,,,,,,,
,,,,,,,,,,,,a,Incorrect,0,5,5,24,1,t4.png,t2.png,2,0.059078,19,female,2020-08-28_23h38.59.022,torte-2b,2020.1.3,MacIntel,60,13449,0.55,,,,,,,,,,,,,,,,,,,,,,,,,,,,,,,,,,,,,,,,,,,,,,,,,,,,,,,,,,,,,,,,,
,,,,,,,,,,,,a,Correct!,0,6,6,109,1,t5.png,t5.png,0,0.97829,19,female,2020-08-28_23h38.59.022,torte-2b,2020.1.3,MacIntel,60,13449,2.449,,,,,,,,,,,,,,,,,,,,,,,,,,,,,,,,,,,,,,,,,,,,,,,,,,,,,,,,,,,,,,,,,
,,,,,,,,,,,,a,Incorrect,0,7,7,56,1,t5.png,t1.png,4,9.55E-11,19,female,2020-08-28_23h38.59.022,torte-2b,2020.1.3,MacIntel,60,13449,1.15,,,,,,,,,,,,,,,,,,,,,,,,,,,,,,,,,,,,,,,,,,,,,,,,,,,,,,,,,,,,,,,,,
,,,,,,,,,,,,a,Correct!,0,8,8,21,1,t5.png,t4.png,1,0.90025,19,female,2020-08-28_23h38.59.022,torte-2b,2020.1.3,MacIntel,60,13449,1.588,,,,,,,,,,,,,,,,,,,,,,,,,,,,,,,,,,,,,,,,,,,,,,,,,,,,,,,,,,,,,,,,,
,,,,,,,,,,,,l,Correct!,0,9,9,51,1,t3.png,t1.png,2,0.056466,19,female,2020-08-28_23h38.59.022,torte-2b,2020.1.3,MacIntel,60,13449,0.814,,,,,,,,,,,,,,,,,,,,,,,,,,,,,,,,,,,,,,,,,,,,,,,,,,,,,,,,,,,,,,,,,
,,,,,,,,,,,,a,Incorrect,0,10,10,34,1,t5.png,t4.png,1,0.9,19,female,2020-08-28_23h38.59.022,torte-2b,2020.1.3,MacIntel,60,13449,1.655,,,,,,,,,,,,,,,,,,,,,,,,,,,,,,,,,,,,,,,,,,,,,,,,,,,,,,,,,,,,,,,,,
,,,,,,,,,,,,l,Incorrect,0,11,11,10,1,t2.png,t3.png,1,0.90855,19,female,2020-08-28_23h38.59.022,torte-2b,2020.1.3,MacIntel,60,13449,2.291,,,,,,,,,,,,,,,,,,,,,,,,,,,,,,,,,,,,,,,,,,,,,,,,,,,,,,,,,,,,,,,,,
,,,,,,,,,,,,a,Correct!,0,12,12,25,1,t5.png,t5.png,0,0.97829,19,female,2020-08-28_23h38.59.022,torte-2b,2020.1.3,MacIntel,60,13449,1.15,,,,,,,,,,,,,,,,,,,,,,,,,,,,,,,,,,,,,,,,,,,,,,,,,,,,,,,,,,,,,,,,,
,,,,,,,,,,,,a,Correct!,0,13,13,72,1,t4.png,t2.png,2,0.059078,19,female,2020-08-28_23h38.59.022,torte-2b,2020.1.3,MacIntel,60,13449,1.431,,,,,,,,,,,,,,,,,,,,,,,,,,,,,,,,,,,,,,,,,,,,,,,,,,,,,,,,,,,,,,,,,
,,,,,,,,,,,,l,Incorrect,0,14,14,70,1,t5.png,t5.png,0,0.978,19,female,2020-08-28_23h38.59.022,torte-2b,2020.1.3,MacIntel,60,13449,1.232,,,,,,,,,,,,,,,,,,,,,,,,,,,,,,,,,,,,,,,,,,,,,,,,,,,,,,,,,,,,,,,,,
,,,,,,,,,,,,a,Correct!,0,15,15,23,1,t5.png,t4.png,1,0.90025,19,female,2020-08-28_23h38.59.022,torte-2b,2020.1.3,MacIntel,60,13449,0.782,,,,,,,,,,,,,,,,,,,,,,,,,,,,,,,,,,,,,,,,,,,,,,,,,,,,,,,,,,,,,,,,,
,,,,,,,,,,,,l,Correct!,0,16,16,93,1,t2.png,t4.png,2,0.059078,19,female,2020-08-28_23h38.59.022,torte-2b,2020.1.3,MacIntel,60,13449,0.738,,,,,,,,,,,,,,,,,,,,,,,,,,,,,,,,,,,,,,,,,,,,,,,,,,,,,,,,,,,,,,,,,
,,,,,,,,,,,,a,Incorrect,0,17,17,86,1,t3.png,t1.png,2,0.056466,19,female,2020-08-28_23h38.59.022,torte-2b,2020.1.3,MacIntel,60,13449,0.615,,,,,,,,,,,,,,,,,,,,,,,,,,,,,,,,,,,,,,,,,,,,,,,,,,,,,,,,,,,,,,,,,
,,,,,,,,,,,,l,Correct!,0,18,18,36,1,t3.png,t1.png,2,0.0565,19,female,2020-08-28_23h38.59.022,torte-2b,2020.1.3,MacIntel,60,13449,0.737,,,,,,,,,,,,,,,,,,,,,,,,,,,,,,,,,,,,,,,,,,,,,,,,,,,,,,,,,,,,,,,,,
,,,,,,,,,,,,l,Incorrect,0,19,19,100,1,t4.png,t5.png,1,0.90025,19,female,2020-08-28_23h38.59.022,torte-2b,2020.1.3,MacIntel,60,13449,0.798,,,,,,,,,,,,,,,,,,,,,,,,,,,,,,,,,,,,,,,,,,,,,,,,,,,,,,,,,,,,,,,,,
,,,,,,,,,,,,a,Correct!,0,20,20,96,1,t1.png,t1.png,0,0.97829,19,female,2020-08-28_23h38.59.022,torte-2b,2020.1.3,MacIntel,60,13449,2.154,,,,,,,,,,,,,,,,,,,,,,,,,,,,,,,,,,,,,,,,,,,,,,,,,,,,,,,,,,,,,,,,,
,,,,,,,,,,,,l,Correct!,0,21,21,115,1,t2.png,t4.png,2,0.059078,19,female,2020-08-28_23h38.59.022,torte-2b,2020.1.3,MacIntel,60,13449,2.372,,,,,,,,,,,,,,,,,,,,,,,,,,,,,,,,,,,,,,,,,,,,,,,,,,,,,,,,,,,,,,,,,
,,,,,,,,,,,,a,Incorrect,0,22,22,82,1,t5.png,t1.png,4,9.55E-11,19,female,2020-08-28_23h38.59.022,torte-2b,2020.1.3,MacIntel,60,13449,1.359,,,,,,,,,,,,,,,,,,,,,,,,,,,,,,,,,,,,,,,,,,,,,,,,,,,,,,,,,,,,,,,,,
,,,,,,,,,,,,l,Correct!,0,23,23,31,1,t1.png,t5.png,4,9.55E-11,19,female,2020-08-28_23h38.59.022,torte-2b,2020.1.3,MacIntel,60,13449,1.632,,,,,,,,,,,,,,,,,,,,,,,,,,,,,,,,,,,,,,,,,,,,,,,,,,,,,,,,,,,,,,,,,
,,,,,,,,,,,,,Too slow :(,0,24,24,42,1,t5.png,t4.png,1,0.90025,19,female,2020-08-28_23h38.59.022,torte-2b,2020.1.3,MacIntel,60,13449,,,,,,,,,,,,,,,,,,,,,,,,,,,,,,,,,,,,,,,,,,,,,,,,,,,,,,,,,,,,,,,,,,
,,,,,,,,,,,,a,Incorrect,0,25,25,103,1,t3.png,t1.png,2,0.056466,19,female,2020-08-28_23h38.59.022,torte-2b,2020.1.3,MacIntel,60,13449,2.034,,,,,,,,,,,,,,,,,,,,,,,,,,,,,,,,,,,,,,,,,,,,,,,,,,,,,,,,,,,,,,,,,
,,,,,,,,,,,,a,Incorrect,0,26,26,50,1,t5.png,t1.png,4,9.55E-11,19,female,2020-08-28_23h38.59.022,torte-2b,2020.1.3,MacIntel,60,13449,1.489,,,,,,,,,,,,,,,,,,,,,,,,,,,,,,,,,,,,,,,,,,,,,,,,,,,,,,,,,,,,,,,,,
,,,,,,,,,,,,l,Correct!,0,27,27,6,1,t1.png,t4.png,3,0.0000131,19,female,2020-08-28_23h38.59.022,torte-2b,2020.1.3,MacIntel,60,13449,0.782,,,,,,,,,,,,,,,,,,,,,,,,,,,,,,,,,,,,,,,,,,,,,,,,,,,,,,,,,,,,,,,,,
,,,,,,,,,,,,l,Incorrect,0,28,28,9,1,t4.png,t5.png,1,0.9,19,female,2020-08-28_23h38.59.022,torte-2b,2020.1.3,MacIntel,60,13449,0.825,,,,,,,,,,,,,,,,,,,,,,,,,,,,,,,,,,,,,,,,,,,,,,,,,,,,,,,,,,,,,,,,,
,,,,,,,,,,,,l,Correct!,0,29,29,88,1,t3.png,t1.png,2,0.056466,19,female,2020-08-28_23h38.59.022,torte-2b,2020.1.3,MacIntel,60,13449,2.106,,,,,,,,,,,,,,,,,,,,,,,,,,,,,,,,,,,,,,,,,,,,,,,,,,,,,,,,,,,,,,,,,
,,,,,,,,,,,,a,Correct!,0,30,30,16,1,t5.png,t4.png,1,0.9,19,female,2020-08-28_23h38.59.022,torte-2b,2020.1.3,MacIntel,60,13449,0.848,,,,,,,,,,,,,,,,,,,,,,,,,,,,,,,,,,,,,,,,,,,,,,,,,,,,,,,,,,,,,,,,,
,,,,,,,,,,,,a,Correct!,0,31,31,112,1,t1.png,t1.png,0,0.97829,19,female,2020-08-28_23h38.59.022,torte-2b,2020.1.3,MacIntel,60,13449,1.225,,,,,,,,,,,,,,,,,,,,,,,,,,,,,,,,,,,,,,,,,,,,,,,,,,,,,,,,,,,,,,,,,
,,,,,,,,,,,,l,Correct!,0,32,32,4,1,t1.png,t5.png,4,9.55E-11,19,female,2020-08-28_23h38.59.022,torte-2b,2020.1.3,MacIntel,60,13449,0.666,,,,,,,,,,,,,,,,,,,,,,,,,,,,,,,,,,,,,,,,,,,,,,,,,,,,,,,,,,,,,,,,,
,,,,,,,,,,,,l,Incorrect,0,33,33,97,1,t5.png,t5.png,0,0.97829,19,female,2020-08-28_23h38.59.022,torte-2b,2020.1.3,MacIntel,60,13449,0.567,,,,,,,,,,,,,,,,,,,,,,,,,,,,,,,,,,,,,,,,,,,,,,,,,,,,,,,,,,,,,,,,,
,,,,,,,,,,,,a,Incorrect,0,34,34,87,1,t5.png,t1.png,4,9.55E-11,19,female,2020-08-28_23h38.59.022,torte-2b,2020.1.3,MacIntel,60,13449,0.486,,,,,,,,,,,,,,,,,,,,,,,,,,,,,,,,,,,,,,,,,,,,,,,,,,,,,,,,,,,,,,,,,
,,,,,,,,,,,,l,Incorrect,0,35,35,110,1,t4.png,t5.png,1,0.90025,19,female,2020-08-28_23h38.59.022,torte-2b,2020.1.3,MacIntel,60,13449,0.74,,,,,,,,,,,,,,,,,,,,,,,,,,,,,,,,,,,,,,,,,,,,,,,,,,,,,,,,,,,,,,,,,
,,,,,,,,,,,,a,Incorrect,0,36,36,38,1,t3.png,t1.png,2,0.056466,19,female,2020-08-28_23h38.59.022,torte-2b,2020.1.3,MacIntel,60,13449,0.568,,,,,,,,,,,,,,,,,,,,,,,,,,,,,,,,,,,,,,,,,,,,,,,,,,,,,,,,,,,,,,,,,
,,,,,,,,,,,,l,Correct!,0,37,37,52,1,t2.png,t4.png,2,0.059078,19,female,2020-08-28_23h38.59.022,torte-2b,2020.1.3,MacIntel,60,13449,0.575,,,,,,,,,,,,,,,,,,,,,,,,,,,,,,,,,,,,,,,,,,,,,,,,,,,,,,,,,,,,,,,,,
,,,,,,,,,,,,a,Incorrect,0,38,38,43,1,t4.png,t2.png,2,0.059078,19,female,2020-08-28_23h38.59.022,torte-2b,2020.1.3,MacIntel,60,13449,1.804,,,,,,,,,,,,,,,,,,,,,,,,,,,,,,,,,,,,,,,,,,,,,,,,,,,,,,,,,,,,,,,,,
,,,,,,,,,,,,l,Incorrect,0,39,39,116,1,t5.png,t4.png,1,0.90025,19,female,2020-08-28_23h38.59.022,torte-2b,2020.1.3,MacIntel,60,13449,1.482,,,,,,,,,,,,,,,,,,,,,,,,,,,,,,,,,,,,,,,,,,,,,,,,,,,,,,,,,,,,,,,,,
,,,,,,,,,,,,l,Incorrect,0,40,40,18,1,t4.png,t5.png,1,0.90025,19,female,2020-08-28_23h38.59.022,torte-2b,2020.1.3,MacIntel,60,13449,0.639,,,,,,,,,,,,,,,,,,,,,,,,,,,,,,,,,,,,,,,,,,,,,,,,,,,,,,,,,,,,,,,,,
,,,,,,,,,,,,l,Correct!,0,41,41,44,1,t2.png,t3.png,1,0.909,19,female,2020-08-28_23h38.59.022,torte-2b,2020.1.3,MacIntel,60,13449,1.232,,,,,,,,,,,,,,,,,,,,,,,,,,,,,,,,,,,,,,,,,,,,,,,,,,,,,,,,,,,,,,,,,
,,,,,,,,,,,,l,Incorrect,0,42,42,77,1,t1.png,t1.png,0,0.97829,19,female,2020-08-28_23h38.59.022,torte-2b,2020.1.3,MacIntel,60,13449,1.732,,,,,,,,,,,,,,,,,,,,,,,,,,,,,,,,,,,,,,,,,,,,,,,,,,,,,,,,,,,,,,,,,
,,,,,,,,,,,,,Too slow :(,0,43,43,98,1,t2.png,t4.png,2,0.0591,19,female,2020-08-28_23h38.59.022,torte-2b,2020.1.3,MacIntel,60,13449,,,,,,,,,,,,,,,,,,,,,,,,,,,,,,,,,,,,,,,,,,,,,,,,,,,,,,,,,,,,,,,,,,
,,,,,,,,,,,,l,Incorrect,0,44,44,64,1,t1.png,t1.png,0,0.978,19,female,2020-08-28_23h38.59.022,torte-2b,2020.1.3,MacIntel,60,13449,0.63,,,,,,,,,,,,,,,,,,,,,,,,,,,,,,,,,,,,,,,,,,,,,,,,,,,,,,,,,,,,,,,,,
,,,,,,,,,,,,,Too slow :(,0,45,45,20,1,t2.png,t3.png,1,0.90855,19,female,2020-08-28_23h38.59.022,torte-2b,2020.1.3,MacIntel,60,13449,,,,,,,,,,,,,,,,,,,,,,,,,,,,,,,,,,,,,,,,,,,,,,,,,,,,,,,,,,,,,,,,,,
,,,,,,,,,,,,l,Correct!,0,46,46,68,1,t1.png,t4.png,3,0.0000131,19,female,2020-08-28_23h38.59.022,torte-2b,2020.1.3,MacIntel,60,13449,1.29,,,,,,,,,,,,,,,,,,,,,,,,,,,,,,,,,,,,,,,,,,,,,,,,,,,,,,,,,,,,,,,,,
,,,,,,,,,,,,,Too slow :(,0,47,47,7,1,t4.png,t5.png,1,0.90025,19,female,2020-08-28_23h38.59.022,torte-2b,2020.1.3,MacIntel,60,13449,,,,,,,,,,,,,,,,,,,,,,,,,,,,,,,,,,,,,,,,,,,,,,,,,,,,,,,,,,,,,,,,,,
,,,,,,,,,,,,l,Correct!,0,48,48,83,1,t3.png,t1.png,2,0.056466,19,female,2020-08-28_23h38.59.022,torte-2b,2020.1.3,MacIntel,60,13449,0.865,,,,,,,,,,,,,,,,,,,,,,,,,,,,,,,,,,,,,,,,,,,,,,,,,,,,,,,,,,,,,,,,,
,,,,,,,,,,,,l,Correct!,0,49,49,40,1,t1.png,t5.png,4,9.55E-11,19,female,2020-08-28_23h38.59.022,torte-2b,2020.1.3,MacIntel,60,13449,1.098,,,,,,,,,,,,,,,,,,,,,,,,,,,,,,,,,,,,,,,,,,,,,,,,,,,,,,,,,,,,,,,,,
,,,,,,,,,,,,l,Correct!,0,50,50,19,1,t4.png,t2.png,2,0.059078,19,female,2020-08-28_23h38.59.022,torte-2b,2020.1.3,MacIntel,60,13449,0.765,,,,,,,,,,,,,,,,,,,,,,,,,,,,,,,,,,,,,,,,,,,,,,,,,,,,,,,,,,,,,,,,,
,,,,,,,,,,,,,Too slow :(,0,51,51,107,1,t1.png,t1.png,0,0.978,19,female,2020-08-28_23h38.59.022,torte-2b,2020.1.3,MacIntel,60,13449,,,,,,,,,,,,,,,,,,,,,,,,,,,,,,,,,,,,,,,,,,,,,,,,,,,,,,,,,,,,,,,,,,
,,,,,,,,,,,,,Too slow :(,0,52,52,22,1,t2.png,t3.png,1,0.90855,19,female,2020-08-28_23h38.59.022,torte-2b,2020.1.3,MacIntel,60,13449,,,,,,,,,,,,,,,,,,,,,,,,,,,,,,,,,,,,,,,,,,,,,,,,,,,,,,,,,,,,,,,,,,
,,,,,,,,,,,,a,Correct!,0,53,53,114,1,t2.png,t3.png,1,0.90855,19,female,2020-08-28_23h38.59.022,torte-2b,2020.1.3,MacIntel,60,13449,0.533,,,,,,,,,,,,,,,,,,,,,,,,,,,,,,,,,,,,,,,,,,,,,,,,,,,,,,,,,,,,,,,,,
,,,,,,,,,,,,l,Incorrect,0,54,54,81,1,t1.png,t1.png,0,0.97829,19,female,2020-08-28_23h38.59.022,torte-2b,2020.1.3,MacIntel,60,13449,1.116,,,,,,,,,,,,,,,,,,,,,,,,,,,,,,,,,,,,,,,,,,,,,,,,,,,,,,,,,,,,,,,,,
,,,,,,,,,,,,l,Incorrect,0,55,55,28,1,t2.png,t3.png,1,0.909,19,female,2020-08-28_23h38.59.022,torte-2b,2020.1.3,MacIntel,60,13449,1.632,,,,,,,,,,,,,,,,,,,,,,,,,,,,,,,,,,,,,,,,,,,,,,,,,,,,,,,,,,,,,,,,,
,,,,,,,,,,,,l,Correct!,0,56,56,46,1,t4.png,t2.png,2,0.059078,19,female,2020-08-28_23h38.59.022,torte-2b,2020.1.3,MacIntel,60,13449,0.707,,,,,,,,,,,,,,,,,,,,,,,,,,,,,,,,,,,,,,,,,,,,,,,,,,,,,,,,,,,,,,,,,
,,,,,,,,,,,,a,Incorrect,0,57,57,26,1,t4.png,t2.png,2,0.0591,19,female,2020-08-28_23h38.59.022,torte-2b,2020.1.3,MacIntel,60,13449,0.699,,,,,,,,,,,,,,,,,,,,,,,,,,,,,,,,,,,,,,,,,,,,,,,,,,,,,,,,,,,,,,,,,
,,,,,,,,,,,,a,Correct!,0,58,58,71,1,t5.png,t5.png,0,0.97829,19,female,2020-08-28_23h38.59.022,torte-2b,2020.1.3,MacIntel,60,13449,2.039,,,,,,,,,,,,,,,,,,,,,,,,,,,,,,,,,,,,,,,,,,,,,,,,,,,,,,,,,,,,,,,,,
,,,,,,,,,,,,,Too slow :(,0,59,59,48,1,t5.png,t5.png,0,0.97829,19,female,2020-08-28_23h38.59.022,torte-2b,2020.1.3,MacIntel,60,13449,,,,,,,,,,,,,,,,,,,,,,,,,,,,,,,,,,,,,,,,,,,,,,,,,,,,,,,,,,,,,,,,,,
,,,,,,,,,,,,a,Incorrect,0,60,60,30,1,t3.png,t1.png,2,0.056466,19,female,2020-08-28_23h38.59.022,torte-2b,2020.1.3,MacIntel,60,13449,1.05,,,,,,,,,,,,,,,,,,,,,,,,,,,,,,,,,,,,,,,,,,,,,,,,,,,,,,,,,,,,,,,,,
,,,,,,,,,,,,l,Incorrect,0,61,61,66,1,t4.png,t5.png,1,0.9,19,female,2020-08-28_23h38.59.022,torte-2b,2020.1.3,MacIntel,60,13449,1.098,,,,,,,,,,,,,,,,,,,,,,,,,,,,,,,,,,,,,,,,,,,,,,,,,,,,,,,,,,,,,,,,,
,,,,,,,,,,,,a,Incorrect,0,62,62,13,1,t5.png,t5.png,0,0.97829,19,female,2020-08-28_23h38.59.022,torte-2b,2020.1.3,MacIntel,60,13449,1.082,,,,,,,,,,,,,,,,,,,,,,,,,,,,,,,,,,,,,,,,,,,,,,,,,,,,,,,,,,,,,,,,,
,,,,,,,,,,,,a,Incorrect,0,63,63,94,1,t5.png,t1.png,4,9.55E-11,19,female,2020-08-28_23h38.59.022,torte-2b,2020.1.3,MacIntel,60,13449,2.356,,,,,,,,,,,,,,,,,,,,,,,,,,,,,,,,,,,,,,,,,,,,,,,,,,,,,,,,,,,,,,,,,
,,,,,,,,,,,,l,Correct!,0,64,64,79,1,t3.png,t2.png,1,0.909,19,female,2020-08-28_23h38.59.022,torte-2b,2020.1.3,MacIntel,60,13449,0.589,,,,,,,,,,,,,,,,,,,,,,,,,,,,,,,,,,,,,,,,,,,,,,,,,,,,,,,,,,,,,,,,,
,,,,,,,,,,,,l,Incorrect,0,65,65,113,1,t5.png,t4.png,1,0.9,19,female,2020-08-28_23h38.59.022,torte-2b,2020.1.3,MacIntel,60,13449,2.155,,,,,,,,,,,,,,,,,,,,,,,,,,,,,,,,,,,,,,,,,,,,,,,,,,,,,,,,,,,,,,,,,
,,,,,,,,,,,,l,Correct!,0,66,66,0,1,t5.png,t1.png,4,9.55E-11,19,female,2020-08-28_23h38.59.022,torte-2b,2020.1.3,MacIntel,60,13449,0.415,,,,,,,,,,,,,,,,,,,,,,,,,,,,,,,,,,,,,,,,,,,,,,,,,,,,,,,,,,,,,,,,,
,,,,,,,,,,,,l,Correct!,0,67,67,17,1,t1.png,t4.png,3,0.0000131,19,female,2020-08-28_23h38.59.022,torte-2b,2020.1.3,MacIntel,60,13449,0.556,,,,,,,,,,,,,,,,,,,,,,,,,,,,,,,,,,,,,,,,,,,,,,,,,,,,,,,,,,,,,,,,,
,,,,,,,,,,,,l,Incorrect,0,68,68,65,1,t4.png,t5.png,1,0.90025,19,female,2020-08-28_23h38.59.022,torte-2b,2020.1.3,MacIntel,60,13449,0.648,,,,,,,,,,,,,,,,,,,,,,,,,,,,,,,,,,,,,,,,,,,,,,,,,,,,,,,,,,,,,,,,,
,,,,,,,,,,,,l,Correct!,0,69,69,12,1,t5.png,t1.png,4,9.55E-11,19,female,2020-08-28_23h38.59.022,torte-2b,2020.1.3,MacIntel,60,13449,0.601,,,,,,,,,,,,,,,,,,,,,,,,,,,,,,,,,,,,,,,,,,,,,,,,,,,,,,,,,,,,,,,,,
,,,,,,,,,,,,l,Correct!,0,70,70,60,1,t2.png,t4.png,2,0.059078,19,female,2020-08-28_23h38.59.022,torte-2b,2020.1.3,MacIntel,60,13449,0.437,,,,,,,,,,,,,,,,,,,,,,,,,,,,,,,,,,,,,,,,,,,,,,,,,,,,,,,,,,,,,,,,,
,,,,,,,,,,,,a,Incorrect,0,71,71,14,1,t2.png,t4.png,2,0.059078,19,female,2020-08-28_23h38.59.022,torte-2b,2020.1.3,MacIntel,60,13449,0.356,,,,,,,,,,,,,,,,,,,,,,,,,,,,,,,,,,,,,,,,,,,,,,,,,,,,,,,,,,,,,,,,,
,,,,,,,,,,,,l,Correct!,0,72,72,119,1,t1.png,t5.png,4,9.55E-11,19,female,2020-08-28_23h38.59.022,torte-2b,2020.1.3,MacIntel,60,13449,0.373,,,,,,,,,,,,,,,,,,,,,,,,,,,,,,,,,,,,,,,,,,,,,,,,,,,,,,,,,,,,,,,,,
,,,,,,,,,,,,a,Incorrect,0,73,73,89,1,t1.png,t4.png,3,0.0000131,19,female,2020-08-28_23h38.59.022,torte-2b,2020.1.3,MacIntel,60,13449,0.357,,,,,,,,,,,,,,,,,,,,,,,,,,,,,,,,,,,,,,,,,,,,,,,,,,,,,,,,,,,,,,,,,
,,,,,,,,,,,,l,Incorrect,0,74,74,92,1,t2.png,t3.png,1,0.909,19,female,2020-08-28_23h38.59.022,torte-2b,2020.1.3,MacIntel,60,13449,0.9,,,,,,,,,,,,,,,,,,,,,,,,,,,,,,,,,,,,,,,,,,,,,,,,,,,,,,,,,,,,,,,,,
,,,,,,,,,,,,a,Correct!,0,75,75,39,1,t3.png,t2.png,1,0.90855,19,female,2020-08-28_23h38.59.022,torte-2b,2020.1.3,MacIntel,60,13449,0.316,,,,,,,,,,,,,,,,,,,,,,,,,,,,,,,,,,,,,,,,,,,,,,,,,,,,,,,,,,,,,,,,,
,,,,,,,,,,,,l,Incorrect,0,76,76,58,1,t5.png,t4.png,1,0.90025,19,female,2020-08-28_23h38.59.022,torte-2b,2020.1.3,MacIntel,60,13449,0.866,,,,,,,,,,,,,,,,,,,,,,,,,,,,,,,,,,,,,,,,,,,,,,,,,,,,,,,,,,,,,,,,,
,,,,,,,,,,,,a,Incorrect,0,77,77,47,1,t4.png,t2.png,2,0.059078,19,female,2020-08-28_23h38.59.022,torte-2b,2020.1.3,MacIntel,60,13449,1.948,,,,,,,,,,,,,,,,,,,,,,,,,,,,,,,,,,,,,,,,,,,,,,,,,,,,,,,,,,,,,,,,,
,,,,,,,,,,,,l,Correct!,0,78,78,91,1,t1.png,t4.png,3,0.0000131,19,female,2020-08-28_23h38.59.022,torte-2b,2020.1.3,MacIntel,60,13449,2.203,,,,,,,,,,,,,,,,,,,,,,,,,,,,,,,,,,,,,,,,,,,,,,,,,,,,,,,,,,,,,,,,,
,,,,,,,,,,,,a,Correct!,0,79,79,49,1,t4.png,t5.png,1,0.9,19,female,2020-08-28_23h38.59.022,torte-2b,2020.1.3,MacIntel,60,13449,0.899,,,,,,,,,,,,,,,,,,,,,,,,,,,,,,,,,,,,,,,,,,,,,,,,,,,,,,,,,,,,,,,,,
,,,,,,,,,,,,,Too slow :(,0,80,80,74,1,t5.png,t4.png,1,0.9,19,female,2020-08-28_23h38.59.022,torte-2b,2020.1.3,MacIntel,60,13449,,,,,,,,,,,,,,,,,,,,,,,,,,,,,,,,,,,,,,,,,,,,,,,,,,,,,,,,,,,,,,,,,,
,,,,,,,,,,,,,Too slow :(,0,81,81,37,1,t1.png,t4.png,3,0.0000131,19,female,2020-08-28_23h38.59.022,torte-2b,2020.1.3,MacIntel,60,13449,,,,,,,,,,,,,,,,,,,,,,,,,,,,,,,,,,,,,,,,,,,,,,,,,,,,,,,,,,,,,,,,,,
,,,,,,,,,,,,a,Correct!,0,82,82,85,1,t3.png,t2.png,1,0.90855,19,female,2020-08-28_23h38.59.022,torte-2b,2020.1.3,MacIntel,60,13449,0.599,,,,,,,,,,,,,,,,,,,,,,,,,,,,,,,,,,,,,,,,,,,,,,,,,,,,,,,,,,,,,,,,,
,,,,,,,,,,,,l,Incorrect,0,83,83,106,1,t2.png,t3.png,1,0.90855,19,female,2020-08-28_23h38.59.022,torte-2b,2020.1.3,MacIntel,60,13449,1.438,,,,,,,,,,,,,,,,,,,,,,,,,,,,,,,,,,,,,,,,,,,,,,,,,,,,,,,,,,,,,,,,,
,,,,,,,,,,,,a,Incorrect,0,84,84,57,1,t2.png,t4.png,2,0.059078,19,female,2020-08-28_23h38.59.022,torte-2b,2020.1.3,MacIntel,60,13449,1.653,,,,,,,,,,,,,,,,,,,,,,,,,,,,,,,,,,,,,,,,,,,,,,,,,,,,,,,,,,,,,,,,,
,,,,,,,,,,,,,Too slow :(,0,85,85,11,1,t1.png,t4.png,3,0.0000131,19,female,2020-08-28_23h38.59.022,torte-2b,2020.1.3,MacIntel,60,13449,,,,,,,,,,,,,,,,,,,,,,,,,,,,,,,,,,,,,,,,,,,,,,,,,,,,,,,,,,,,,,,,,,
,,,,,,,,,,,,a,Incorrect,0,86,86,5,1,t2.png,t4.png,2,0.059078,19,female,2020-08-28_23h38.59.022,torte-2b,2020.1.3,MacIntel,60,13449,0.716,,,,,,,,,,,,,,,,,,,,,,,,,,,,,,,,,,,,,,,,,,,,,,,,,,,,,,,,,,,,,,,,,
,,,,,,,,,,,,,Too slow :(,0,87,87,95,1,t1.png,t1.png,0,0.978,19,female,2020-08-28_23h38.59.022,torte-2b,2020.1.3,MacIntel,60,13449,,,,,,,,,,,,,,,,,,,,,,,,,,,,,,,,,,,,,,,,,,,,,,,,,,,,,,,,,,,,,,,,,,
,,,,,,,,,,,,a,Incorrect,0,88,88,33,1,t5.png,t1.png,4,9.55E-11,19,female,2020-08-28_23h38.59.022,torte-2b,2020.1.3,MacIntel,60,13449,1.25,,,,,,,,,,,,,,,,,,,,,,,,,,,,,,,,,,,,,,,,,,,,,,,,,,,,,,,,,,,,,,,,,
,,,,,,,,,,,,l,Incorrect,0,89,89,105,1,t3.png,t2.png,1,0.90855,19,female,2020-08-28_23h38.59.022,torte-2b,2020.1.3,MacIntel,60,13449,1.832,,,,,,,,,,,,,,,,,,,,,,,,,,,,,,,,,,,,,,,,,,,,,,,,,,,,,,,,,,,,,,,,,
,,,,,,,,,,,,l,Incorrect,0,90,90,2,1,t3.png,t2.png,1,0.90855,19,female,2020-08-28_23h38.59.022,torte-2b,2020.1.3,MacIntel,60,13449,1.95,,,,,,,,,,,,,,,,,,,,,,,,,,,,,,,,,,,,,,,,,,,,,,,,,,,,,,,,,,,,,,,,,
,,,,,,,,,,,,l,Correct!,0,91,91,67,1,t1.png,t5.png,4,9.55E-11,19,female,2020-08-28_23h38.59.022,torte-2b,2020.1.3,MacIntel,60,13449,0,,,,,,,,,,,,,,,,,,,,,,,,,,,,,,,,,,,,,,,,,,,,,,,,,,,,,,,,,,,,,,,,,
,,,,,,,,,,,,,Too slow :(,0,92,92,41,1,t3.png,t2.png,1,0.90855,19,female,2020-08-28_23h38.59.022,torte-2b,2020.1.3,MacIntel,60,13449,,,,,,,,,,,,,,,,,,,,,,,,,,,,,,,,,,,,,,,,,,,,,,,,,,,,,,,,,,,,,,,,,,
,,,,,,,,,,,,l,Correct!,0,93,93,90,1,t1.png,t5.png,4,9.55E-11,19,female,2020-08-28_23h38.59.022,torte-2b,2020.1.3,MacIntel,60,13449,0.448,,,,,,,,,,,,,,,,,,,,,,,,,,,,,,,,,,,,,,,,,,,,,,,,,,,,,,,,,,,,,,,,,
,,,,,,,,,,,,a,Correct!,0,94,94,59,1,t5.png,t4.png,1,0.9,19,female,2020-08-28_23h38.59.022,torte-2b,2020.1.3,MacIntel,60,13449,0.985,,,,,,,,,,,,,,,,,,,,,,,,,,,,,,,,,,,,,,,,,,,,,,,,,,,,,,,,,,,,,,,,,
,,,,,,,,,,,,l,Incorrect,0,95,95,32,1,t4.png,t5.png,1,0.90025,19,female,2020-08-28_23h38.59.022,torte-2b,2020.1.3,MacIntel,60,13449,1.766,,,,,,,,,,,,,,,,,,,,,,,,,,,,,,,,,,,,,,,,,,,,,,,,,,,,,,,,,,,,,,,,,
,,,,,,,,,,,,l,Correct!,0,96,96,80,1,t1.png,t4.png,3,0.0000131,19,female,2020-08-28_23h38.59.022,torte-2b,2020.1.3,MacIntel,60,13449,0.331,,,,,,,,,,,,,,,,,,,,,,,,,,,,,,,,,,,,,,,,,,,,,,,,,,,,,,,,,,,,,,,,,
,,,,,,,,,,,,l,Incorrect,0,97,97,118,1,t5.png,t5.png,0,0.978,19,female,2020-08-28_23h38.59.022,torte-2b,2020.1.3,MacIntel,60,13449,0.616,,,,,,,,,,,,,,,,,,,,,,,,,,,,,,,,,,,,,,,,,,,,,,,,,,,,,,,,,,,,,,,,,
,,,,,,,,,,,,l,Incorrect,0,98,98,78,1,t1.png,t1.png,0,0.978,19,female,2020-08-28_23h38.59.022,torte-2b,2020.1.3,MacIntel,60,13449,1.04,,,,,,,,,,,,,,,,,,,,,,,,,,,,,,,,,,,,,,,,,,,,,,,,,,,,,,,,,,,,,,,,,
,,,,,,,,,,,,a,Correct!,0,99,99,75,1,t1.png,t1.png,0,0.97829,19,female,2020-08-28_23h38.59.022,torte-2b,2020.1.3,MacIntel,60,13449,1.083,,,,,,,,,,,,,,,,,,,,,,,,,,,,,,,,,,,,,,,,,,,,,,,,,,,,,,,,,,,,,,,,,
,,,,,,,,,,,,l,Correct!,0,100,100,3,1,t1.png,t5.png,4,9.55E-11,19,female,2020-08-28_23h38.59.022,torte-2b,2020.1.3,MacIntel,60,13449,0.582,,,,,,,,,,,,,,,,,,,,,,,,,,,,,,,,,,,,,,,,,,,,,,,,,,,,,,,,,,,,,,,,,
,,,,,,,,,,,,l,Incorrect,0,101,101,62,1,t5.png,t5.png,0,0.978,19,female,2020-08-28_23h38.59.022,torte-2b,2020.1.3,MacIntel,60,13449,0.55,,,,,,,,,,,,,,,,,,,,,,,,,,,,,,,,,,,,,,,,,,,,,,,,,,,,,,,,,,,,,,,,,
,,,,,,,,,,,,l,Correct!,0,102,102,73,1,t4.png,t2.png,2,0.059078,19,female,2020-08-28_23h38.59.022,torte-2b,2020.1.3,MacIntel,60,13449,0.886,,,,,,,,,,,,,,,,,,,,,,,,,,,,,,,,,,,,,,,,,,,,,,,,,,,,,,,,,,,,,,,,,
,,,,,,,,,,,,a,Correct!,0,103,103,101,1,t4.png,t5.png,1,0.90025,19,female,2020-08-28_23h38.59.022,torte-2b,2020.1.3,MacIntel,60,13449,1.315,,,,,,,,,,,,,,,,,,,,,,,,,,,,,,,,,,,,,,,,,,,,,,,,,,,,,,,,,,,,,,,,,
,,,,,,,,,,,,l,Correct!,0,104,104,27,1,t3.png,t1.png,2,0.0565,19,female,2020-08-28_23h38.59.022,torte-2b,2020.1.3,MacIntel,60,13449,1.7,,,,,,,,,,,,,,,,,,,,,,,,,,,,,,,,,,,,,,,,,,,,,,,,,,,,,,,,,,,,,,,,,
,,,,,,,,,,,,l,Incorrect,0,105,105,45,1,t3.png,t2.png,1,0.90855,19,female,2020-08-28_23h38.59.022,torte-2b,2020.1.3,MacIntel,60,13449,0.558,,,,,,,,,,,,,,,,,,,,,,,,,,,,,,,,,,,,,,,,,,,,,,,,,,,,,,,,,,,,,,,,,
,,,,,,,,,,,,,Too slow :(,0,106,106,84,1,t1.png,t1.png,0,0.97829,19,female,2020-08-28_23h38.59.022,torte-2b,2020.1.3,MacIntel,60,13449,,,,,,,,,,,,,,,,,,,,,,,,,,,,,,,,,,,,,,,,,,,,,,,,,,,,,,,,,,,,,,,,,,
,,,,,,,,,,,,a,Incorrect,0,107,107,53,1,t3.png,t1.png,2,0.056466,19,female,2020-08-28_23h38.59.022,torte-2b,2020.1.3,MacIntel,60,13449,0.366,,,,,,,,,,,,,,,,,,,,,,,,,,,,,,,,,,,,,,,,,,,,,,,,,,,,,,,,,,,,,,,,,
,,,,,,,,,,,,l,Incorrect,0,108,108,104,1,t2.png,t3.png,1,0.90855,19,female,2020-08-28_23h38.59.022,torte-2b,2020.1.3,MacIntel,60,13449,1.989,,,,,,,,,,,,,,,,,,,,,,,,,,,,,,,,,,,,,,,,,,,,,,,,,,,,,,,,,,,,,,,,,
,,,,,,,,,,,,a,Incorrect,0,109,109,69,1,t4.png,t2.png,2,0.059078,19,female,2020-08-28_23h38.59.022,torte-2b,2020.1.3,MacIntel,60,13449,0.416,,,,,,,,,,,,,,,,,,,,,,,,,,,,,,,,,,,,,,,,,,,,,,,,,,,,,,,,,,,,,,,,,
,,,,,,,,,,,,a,Correct!,0,110,110,8,1,t3.png,t2.png,1,0.90855,19,female,2020-08-28_23h38.59.022,torte-2b,2020.1.3,MacIntel,60,13449,1.133,,,,,,,,,,,,,,,,,,,,,,,,,,,,,,,,,,,,,,,,,,,,,,,,,,,,,,,,,,,,,,,,,
,,,,,,,,,,,,l,Incorrect,0,111,111,29,1,t5.png,t5.png,0,0.97829,19,female,2020-08-28_23h38.59.022,torte-2b,2020.1.3,MacIntel,60,13449,0.738,,,,,,,,,,,,,,,,,,,,,,,,,,,,,,,,,,,,,,,,,,,,,,,,,,,,,,,,,,,,,,,,,
,,,,,,,,,,,,a,Incorrect,0,112,112,108,1,t5.png,t1.png,4,9.55E-11,19,female,2020-08-28_23h38.59.022,torte-2b,2020.1.3,MacIntel,60,13449,0.764,,,,,,,,,,,,,,,,,,,,,,,,,,,,,,,,,,,,,,,,,,,,,,,,,,,,,,,,,,,,,,,,,
,,,,,,,,,,,,l,Incorrect,0,113,113,63,1,t2.png,t3.png,1,0.909,19,female,2020-08-28_23h38.59.022,torte-2b,2020.1.3,MacIntel,60,13449,0.988,,,,,,,,,,,,,,,,,,,,,,,,,,,,,,,,,,,,,,,,,,,,,,,,,,,,,,,,,,,,,,,,,
,,,,,,,,,,,,a,Incorrect,0,114,114,54,1,t1.png,t5.png,4,9.55E-11,19,female,2020-08-28_23h38.59.022,torte-2b,2020.1.3,MacIntel,60,13449,0.583,,,,,,,,,,,,,,,,,,,,,,,,,,,,,,,,,,,,,,,,,,,,,,,,,,,,,,,,,,,,,,,,,
,,,,,,,,,,,,a,Incorrect,0,115,115,102,1,t4.png,t2.png,2,0.059078,19,female,2020-08-28_23h38.59.022,torte-2b,2020.1.3,MacIntel,60,13449,0.533,,,,,,,,,,,,,,,,,,,,,,,,,,,,,,,,,,,,,,,,,,,,,,,,,,,,,,,,,,,,,,,,,
,,,,,,,,,,,,l,Correct!,0,116,116,61,1,t1.png,t4.png,3,0.0000131,19,female,2020-08-28_23h38.59.022,torte-2b,2020.1.3,MacIntel,60,13449,0.483,,,,,,,,,,,,,,,,,,,,,,,,,,,,,,,,,,,,,,,,,,,,,,,,,,,,,,,,,,,,,,,,,
,,,,,,,,,,,,l,Correct!,0,117,117,99,1,t1.png,t5.png,4,9.55E-11,19,female,2020-08-28_23h38.59.022,torte-2b,2020.1.3,MacIntel,60,13449,0.816,,,,,,,,,,,,,,,,,,,,,,,,,,,,,,,,,,,,,,,,,,,,,,,,,,,,,,,,,,,,,,,,,
,,,,,,,,,,,,l,Correct!,0,118,118,117,1,t1.png,t5.png,4,9.55E-11,19,female,2020-08-28_23h38.59.022,torte-2b,2020.1.3,MacIntel,60,13449,2.217,,,,,,,,,,,,,,,,,,,,,,,,,,,,,,,,,,,,,,,,,,,,,,,,,,,,,,,,,,,,,,,,,
,,,,,,,,,,,,l,Incorrect,0,119,119,15,1,t3.png,t2.png,1,0.90855,19,female,2020-08-28_23h38.59.022,torte-2b,2020.1.3,MacIntel,60,13449,0.844,,,,,,,,,,,,,,,,,,,,,,,,,,,,,,,,,,,,,,,,,,,,,,,,,,,,,,,,,,,,,,,,,
,,,,,,,,,,,,a,Correct!,,,,,,t5.png,t4.png,1,0.90025,19,female,2020-08-28_23h38.59.022,torte-2b,2020.1.3,MacIntel,60,13449,1.656,n,2.152,space,20.873,0,0,0,34,1,,,,,,,,,,,,,,,,,,,,,,,,,,,,,,,,,,,,,,,,,,,,,,,,,,,,,,,,
,,,,,,,,,,,,l,Incorrect,,,,,,t3.png,t4.png,1,0.909,19,female,2020-08-28_23h38.59.022,torte-2b,2020.1.3,MacIntel,60,13449,2.083,,,,,0,1,1,82,1,,,,,,,,,,,,,,,,,,,,,,,,,,,,,,,,,,,,,,,,,,,,,,,,,,,,,,,,
,,,,,,,,,,,,,Too slow :(,,,,,,t4.png,t3.png,1,0.90855,19,female,2020-08-28_23h38.59.022,torte-2b,2020.1.3,MacIntel,60,13449,,,,,,0,2,2,75,1,,,,,,,,,,,,,,,,,,,,,,,,,,,,,,,,,,,,,,,,,,,,,,,,,,,,,,,,
,,,,,,,,,,,,l,Incorrect,,,,,,t5.png,t5.png,0,0.97829,19,female,2020-08-28_23h38.59.022,torte-2b,2020.1.3,MacIntel,60,13449,1.733,,,,,0,3,3,94,1,,,,,,,,,,,,,,,,,,,,,,,,,,,,,,,,,,,,,,,,,,,,,,,,,,,,,,,,
,,,,,,,,,,,,a,Correct!,,,,,,t2.png,t2.png,0,0.98115,19,female,2020-08-28_23h38.59.022,torte-2b,2020.1.3,MacIntel,60,13449,1.831,,,,,0,4,4,57,1,,,,,,,,,,,,,,,,,,,,,,,,,,,,,,,,,,,,,,,,,,,,,,,,,,,,,,,,
,,,,,,,,,,,,a,Incorrect,,,,,,t4.png,t2.png,2,0.059078,19,female,2020-08-28_23h38.59.022,torte-2b,2020.1.3,MacIntel,60,13449,0.949,,,,,0,5,5,110,1,,,,,,,,,,,,,,,,,,,,,,,,,,,,,,,,,,,,,,,,,,,,,,,,,,,,,,,,
,,,,,,,,,,,,l,Correct!,,,,,,t2.png,t4.png,2,0.059078,19,female,2020-08-28_23h38.59.022,torte-2b,2020.1.3,MacIntel,60,13449,0.507,,,,,0,6,6,37,1,,,,,,,,,,,,,,,,,,,,,,,,,,,,,,,,,,,,,,,,,,,,,,,,,,,,,,,,
,,,,,,,,,,,,a,Incorrect,,,,,,t5.png,t1.png,4,9.55E-11,19,female,2020-08-28_23h38.59.022,torte-2b,2020.1.3,MacIntel,60,13449,0.671,,,,,0,7,7,43,1,,,,,,,,,,,,,,,,,,,,,,,,,,,,,,,,,,,,,,,,,,,,,,,,,,,,,,,,
,,,,,,,,,,,,,Too slow :(,,,,,,t3.png,t1.png,2,0.056466,19,female,2020-08-28_23h38.59.022,torte-2b,2020.1.3,MacIntel,60,13449,,,,,,0,8,8,64,1,,,,,,,,,,,,,,,,,,,,,,,,,,,,,,,,,,,,,,,,,,,,,,,,,,,,,,,,
,,,,,,,,,,,,l,Incorrect,,,,,,t1.png,t3.png,2,0.056466,19,female,2020-08-28_23h38.59.022,torte-2b,2020.1.3,MacIntel,60,13449,1.174,,,,,0,9,9,99,1,,,,,,,,,,,,,,,,,,,,,,,,,,,,,,,,,,,,,,,,,,,,,,,,,,,,,,,,
,,,,,,,,,,,,a,Correct!,,,,,,t5.png,t4.png,1,0.9,19,female,2020-08-28_23h38.59.022,torte-2b,2020.1.3,MacIntel,60,13449,1.465,,,,,0,10,10,49,1,,,,,,,,,,,,,,,,,,,,,,,,,,,,,,,,,,,,,,,,,,,,,,,,,,,,,,,,
,,,,,,,,,,,,,Too slow :(,,,,,,t5.png,t2.png,3,0.0000131,19,female,2020-08-28_23h38.59.022,torte-2b,2020.1.3,MacIntel,60,13449,,,,,,0,11,11,98,1,,,,,,,,,,,,,,,,,,,,,,,,,,,,,,,,,,,,,,,,,,,,,,,,,,,,,,,,
,,,,,,,,,,,,l,Incorrect,,,,,,t4.png,t5.png,1,0.90025,19,female,2020-08-28_23h38.59.022,torte-2b,2020.1.3,MacIntel,60,13449,1.021,,,,,0,12,12,113,1,,,,,,,,,,,,,,,,,,,,,,,,,,,,,,,,,,,,,,,,,,,,,,,,,,,,,,,,
,,,,,,,,,,,,a,Incorrect,,,,,,t4.png,t2.png,2,0.059078,19,female,2020-08-28_23h38.59.022,torte-2b,2020.1.3,MacIntel,60,13449,1.104,,,,,0,13,13,88,1,,,,,,,,,,,,,,,,,,,,,,,,,,,,,,,,,,,,,,,,,,,,,,,,,,,,,,,,
,,,,,,,,,,,,l,Correct!,,,,,,t1.png,t3.png,2,0.056466,19,female,2020-08-28_23h38.59.022,torte-2b,2020.1.3,MacIntel,60,13449,0.633,,,,,0,14,14,63,1,,,,,,,,,,,,,,,,,,,,,,,,,,,,,,,,,,,,,,,,,,,,,,,,,,,,,,,,
,,,,,,,,,,,,l,Correct!,,,,,,t1.png,t3.png,2,0.056466,19,female,2020-08-28_23h38.59.022,torte-2b,2020.1.3,MacIntel,60,13449,0.968,,,,,0,15,15,60,1,,,,,,,,,,,,,,,,,,,,,,,,,,,,,,,,,,,,,,,,,,,,,,,,,,,,,,,,
,,,,,,,,,,,,l,Incorrect,,,,,,t3.png,t4.png,1,0.90855,19,female,2020-08-28_23h38.59.022,torte-2b,2020.1.3,MacIntel,60,13449,0.915,,,,,0,16,16,96,1,,,,,,,,,,,,,,,,,,,,,,,,,,,,,,,,,,,,,,,,,,,,,,,,,,,,,,,,
,,,,,,,,,,,,a,Incorrect,,,,,,t5.png,t3.png,2,0.056466,19,female,2020-08-28_23h38.59.022,torte-2b,2020.1.3,MacIntel,60,13449,0.784,,,,,0,17,17,108,1,,,,,,,,,,,,,,,,,,,,,,,,,,,,,,,,,,,,,,,,,,,,,,,,,,,,,,,,
,,,,,,,,,,,,a,Incorrect,,,,,,t4.png,t1.png,3,0.0000131,19,female,2020-08-28_23h38.59.022,torte-2b,2020.1.3,MacIntel,60,13449,0.502,,,,,0,18,18,93,1,,,,,,,,,,,,,,,,,,,,,,,,,,,,,,,,,,,,,,,,,,,,,,,,,,,,,,,,
,,,,,,,,,,,,a,Correct!,,,,,,t2.png,t1.png,1,0.90025,19,female,2020-08-28_23h38.59.022,torte-2b,2020.1.3,MacIntel,60,13449,0.668,,,,,0,19,19,4,1,,,,,,,,,,,,,,,,,,,,,,,,,,,,,,,,,,,,,,,,,,,,,,,,,,,,,,,,
,,,,,,,,,,,,a,Correct!,,,,,,t4.png,t3.png,1,0.909,19,female,2020-08-28_23h38.59.022,torte-2b,2020.1.3,MacIntel,60,13449,0.889,,,,,0,20,20,20,1,,,,,,,,,,,,,,,,,,,,,,,,,,,,,,,,,,,,,,,,,,,,,,,,,,,,,,,,
,,,,,,,,,,,,a,Correct!,,,,,,t3.png,t2.png,1,0.909,19,female,2020-08-28_23h38.59.022,torte-2b,2020.1.3,MacIntel,60,13449,0.565,,,,,0,21,21,23,1,,,,,,,,,,,,,,,,,,,,,,,,,,,,,,,,,,,,,,,,,,,,,,,,,,,,,,,,
,,,,,,,,,,,,l,Correct!,,,,,,t3.png,t5.png,2,0.0565,19,female,2020-08-28_23h38.59.022,torte-2b,2020.1.3,MacIntel,60,13449,0.582,,,,,0,22,22,30,1,,,,,,,,,,,,,,,,,,,,,,,,,,,,,,,,,,,,,,,,,,,,,,,,,,,,,,,,
,,,,,,,,,,,,a,Incorrect,,,,,,t4.png,t1.png,3,0.0000131,19,female,2020-08-28_23h38.59.022,torte-2b,2020.1.3,MacIntel,60,13449,1.036,,,,,0,23,23,42,1,,,,,,,,,,,,,,,,,,,,,,,,,,,,,,,,,,,,,,,,,,,,,,,,,,,,,,,,
,,,,,,,,,,,,,Too slow :(,,,,,,t1.png,t1.png,0,0.97829,19,female,2020-08-28_23h38.59.022,torte-2b,2020.1.3,MacIntel,60,13449,,,,,,0,24,24,78,1,,,,,,,,,,,,,,,,,,,,,,,,,,,,,,,,,,,,,,,,,,,,,,,,,,,,,,,,
,,,,,,,,,,,,a,Incorrect,,,,,,t4.png,t2.png,2,0.059078,19,female,2020-08-28_23h38.59.022,torte-2b,2020.1.3,MacIntel,60,13449,1.415,,,,,0,25,25,86,1,,,,,,,,,,,,,,,,,,,,,,,,,,,,,,,,,,,,,,,,,,,,,,,,,,,,,,,,
,,,,,,,,,,,,l,Correct!,,,,,,t1.png,t4.png,3,0.0000131,19,female,2020-08-28_23h38.59.022,torte-2b,2020.1.3,MacIntel,60,13449,1.247,,,,,0,26,26,92,1,,,,,,,,,,,,,,,,,,,,,,,,,,,,,,,,,,,,,,,,,,,,,,,,,,,,,,,,
,,,,,,,,,,,,a,Correct!,,,,,,t2.png,t2.png,0,0.98115,19,female,2020-08-28_23h38.59.022,torte-2b,2020.1.3,MacIntel,60,13449,1.39,,,,,0,27,27,2,1,,,,,,,,,,,,,,,,,,,,,,,,,,,,,,,,,,,,,,,,,,,,,,,,,,,,,,,,
,,,,,,,,,,,,,Too slow :(,,,,,,t5.png,t4.png,1,0.90025,19,female,2020-08-28_23h38.59.022,torte-2b,2020.1.3,MacIntel,60,13449,,,,,,0,28,28,26,1,,,,,,,,,,,,,,,,,,,,,,,,,,,,,,,,,,,,,,,,,,,,,,,,,,,,,,,,
,,,,,,,,,,,,,Too slow :(,,,,,,t1.png,t5.png,4,9.55E-11,19,female,2020-08-28_23h38.59.022,torte-2b,2020.1.3,MacIntel,60,13449,,,,,,0,29,29,55,1,,,,,,,,,,,,,,,,,,,,,,,,,,,,,,,,,,,,,,,,,,,,,,,,,,,,,,,,
,,,,,,,,,,,,l,Correct!,,,,,,t1.png,t5.png,4,9.55E-11,19,female,2020-08-28_23h38.59.022,torte-2b,2020.1.3,MacIntel,60,13449,1.149,,,,,0,30,30,85,1,,,,,,,,,,,,,,,,,,,,,,,,,,,,,,,,,,,,,,,,,,,,,,,,,,,,,,,,
,,,,,,,,,,,,a,Incorrect,,,,,,t5.png,t1.png,4,9.55E-11,19,female,2020-08-28_23h38.59.022,torte-2b,2020.1.3,MacIntel,60,13449,0.956,,,,,0,31,31,22,1,,,,,,,,,,,,,,,,,,,,,,,,,,,,,,,,,,,,,,,,,,,,,,,,,,,,,,,,
,,,,,,,,,,,,l,Incorrect,,,,,,t2.png,t3.png,1,0.90855,19,female,2020-08-28_23h38.59.022,torte-2b,2020.1.3,MacIntel,60,13449,2.399,,,,,0,32,32,111,1,,,,,,,,,,,,,,,,,,,,,,,,,,,,,,,,,,,,,,,,,,,,,,,,,,,,,,,,
,,,,,,,,,,,,a,Incorrect,,,,,,t5.png,t2.png,3,0.0000131,19,female,2020-08-28_23h38.59.022,torte-2b,2020.1.3,MacIntel,60,13449,1.139,,,,,0,33,33,116,1,,,,,,,,,,,,,,,,,,,,,,,,,,,,,,,,,,,,,,,,,,,,,,,,,,,,,,,,
,,,,,,,,,,,,l,Incorrect,,,,,,t5.png,t5.png,0,0.97829,19,female,2020-08-28_23h38.59.022,torte-2b,2020.1.3,MacIntel,60,13449,1.916,,,,,0,34,34,25,1,,,,,,,,,,,,,,,,,,,,,,,,,,,,,,,,,,,,,,,,,,,,,,,,,,,,,,,,
,,,,,,,,,,,,l,Incorrect,,,,,,t1.png,t2.png,1,0.9,19,female,2020-08-28_23h38.59.022,torte-2b,2020.1.3,MacIntel,60,13449,1.016,,,,,0,35,35,1,1,,,,,,,,,,,,,,,,,,,,,,,,,,,,,,,,,,,,,,,,,,,,,,,,,,,,,,,,
,,,,,,,,,,,,l,Correct!,,,,,,t2.png,t5.png,3,0.0000131,19,female,2020-08-28_23h38.59.022,torte-2b,2020.1.3,MacIntel,60,13449,1.242,,,,,0,36,36,95,1,,,,,,,,,,,,,,,,,,,,,,,,,,,,,,,,,,,,,,,,,,,,,,,,,,,,,,,,
,,,,,,,,,,,,,Too slow :(,,,,,,t2.png,t1.png,1,0.90025,19,female,2020-08-28_23h38.59.022,torte-2b,2020.1.3,MacIntel,60,13449,,,,,,0,37,37,5,1,,,,,,,,,,,,,,,,,,,,,,,,,,,,,,,,,,,,,,,,,,,,,,,,,,,,,,,,
,,,,,,,,,,,,a,Incorrect,,,,,,t5.png,t3.png,2,0.056466,19,female,2020-08-28_23h38.59.022,torte-2b,2020.1.3,MacIntel,60,13449,1.132,,,,,0,38,38,114,1,,,,,,,,,,,,,,,,,,,,,,,,,,,,,,,,,,,,,,,,,,,,,,,,,,,,,,,,
,,,,,,,,,,,,,Too slow :(,,,,,,t4.png,t3.png,1,0.909,19,female,2020-08-28_23h38.59.022,torte-2b,2020.1.3,MacIntel,60,13449,,,,,,0,39,39,46,1,,,,,,,,,,,,,,,,,,,,,,,,,,,,,,,,,,,,,,,,,,,,,,,,,,,,,,,,
,,,,,,,,,,,,l,Incorrect,,,,,,t1.png,t2.png,1,0.90025,19,female,2020-08-28_23h38.59.022,torte-2b,2020.1.3,MacIntel,60,13449,1.654,,,,,0,40,40,105,1,,,,,,,,,,,,,,,,,,,,,,,,,,,,,,,,,,,,,,,,,,,,,,,,,,,,,,,,
,,,,,,,,,,,,l,Incorrect,,,,,,t2.png,t2.png,0,0.98115,19,female,2020-08-28_23h38.59.022,torte-2b,2020.1.3,MacIntel,60,13449,1.224,,,,,0,41,41,7,1,,,,,,,,,,,,,,,,,,,,,,,,,,,,,,,,,,,,,,,,,,,,,,,,,,,,,,,,
,,,,,,,,,,,,l,Incorrect,,,,,,t3.png,t4.png,1,0.909,19,female,2020-08-28_23h38.59.022,torte-2b,2020.1.3,MacIntel,60,13449,1.147,,,,,0,42,42,89,1,,,,,,,,,,,,,,,,,,,,,,,,,,,,,,,,,,,,,,,,,,,,,,,,,,,,,,,,
,,,,,,,,,,,,a,Correct!,,,,,,t2.png,t1.png,1,0.9,19,female,2020-08-28_23h38.59.022,torte-2b,2020.1.3,MacIntel,60,13449,1.255,,,,,0,43,43,118,1,,,,,,,,,,,,,,,,,,,,,,,,,,,,,,,,,,,,,,,,,,,,,,,,,,,,,,,,
,,,,,,,,,,,,l,Correct!,,,,,,t2.png,t5.png,3,0.0000131,19,female,2020-08-28_23h38.59.022,torte-2b,2020.1.3,MacIntel,60,13449,1.365,,,,,0,44,44,40,1,,,,,,,,,,,,,,,,,,,,,,,,,,,,,,,,,,,,,,,,,,,,,,,,,,,,,,,,
,,,,,,,,,,,,a,Correct!,,,,,,t5.png,t4.png,1,0.90025,19,female,2020-08-28_23h38.59.022,torte-2b,2020.1.3,MacIntel,60,13449,1.558,,,,,0,45,45,27,1,,,,,,,,,,,,,,,,,,,,,,,,,,,,,,,,,,,,,,,,,,,,,,,,,,,,,,,,
,,,,,,,,,,,,l,Incorrect,,,,,,t4.png,t4.png,0,0.98115,19,female,2020-08-28_23h38.59.022,torte-2b,2020.1.3,MacIntel,60,13449,1.416,,,,,0,46,46,79,1,,,,,,,,,,,,,,,,,,,,,,,,,,,,,,,,,,,,,,,,,,,,,,,,,,,,,,,,
,,,,,,,,,,,,l,Incorrect,,,,,,t4.png,t4.png,0,0.98115,19,female,2020-08-28_23h38.59.022,torte-2b,2020.1.3,MacIntel,60,13449,0.783,,,,,0,47,47,52,1,,,,,,,,,,,,,,,,,,,,,,,,,,,,,,,,,,,,,,,,,,,,,,,,,,,,,,,,
,,,,,,,,,,,,l,Incorrect,,,,,,t2.png,t3.png,1,0.90855,19,female,2020-08-28_23h38.59.022,torte-2b,2020.1.3,MacIntel,60,13449,1.099,,,,,0,48,48,10,1,,,,,,,,,,,,,,,,,,,,,,,,,,,,,,,,,,,,,,,,,,,,,,,,,,,,,,,,
,,,,,,,,,,,,a,Incorrect,,,,,,t5.png,t3.png,2,0.056466,19,female,2020-08-28_23h38.59.022,torte-2b,2020.1.3,MacIntel,60,13449,2.037,,,,,0,49,49,38,1,,,,,,,,,,,,,,,,,,,,,,,,,,,,,,,,,,,,,,,,,,,,,,,,,,,,,,,,
,,,,,,,,,,,,a,Incorrect,,,,,,t5.png,t1.png,4,9.55E-11,19,female,2020-08-28_23h38.59.022,torte-2b,2020.1.3,MacIntel,60,13449,0.887,,,,,0,50,50,100,1,,,,,,,,,,,,,,,,,,,,,,,,,,,,,,,,,,,,,,,,,,,,,,,,,,,,,,,,
,,,,,,,,,,,,a,Correct!,,,,,,t1.png,t1.png,0,0.978,19,female,2020-08-28_23h38.59.022,torte-2b,2020.1.3,MacIntel,60,13449,0.971,,,,,0,51,51,28,1,,,,,,,,,,,,,,,,,,,,,,,,,,,,,,,,,,,,,,,,,,,,,,,,,,,,,,,,
,,,,,,,,,,,,a,Incorrect,,,,,,t5.png,t1.png,4,9.55E-11,19,female,2020-08-28_23h38.59.022,torte-2b,2020.1.3,MacIntel,60,13449,0.616,,,,,0,52,52,102,1,,,,,,,,,,,,,,,,,,,,,,,,,,,,,,,,,,,,,,,,,,,,,,,,,,,,,,,,
,,,,,,,,,,,,a,Incorrect,,,,,,t5.png,t2.png,3,0.0000131,19,female,2020-08-28_23h38.59.022,torte-2b,2020.1.3,MacIntel,60,13449,1.632,,,,,0,53,53,119,1,,,,,,,,,,,,,,,,,,,,,,,,,,,,,,,,,,,,,,,,,,,,,,,,,,,,,,,,
,,,,,,,,,,,,a,Incorrect,,,,,,t3.png,t1.png,2,0.056466,19,female,2020-08-28_23h38.59.022,torte-2b,2020.1.3,MacIntel,60,13449,0.855,,,,,0,54,54,32,1,,,,,,,,,,,,,,,,,,,,,,,,,,,,,,,,,,,,,,,,,,,,,,,,,,,,,,,,
,,,,,,,,,,,,l,Incorrect,,,,,,t4.png,t4.png,0,0.98115,19,female,2020-08-28_23h38.59.022,torte-2b,2020.1.3,MacIntel,60,13449,1.1,,,,,0,55,55,90,1,,,,,,,,,,,,,,,,,,,,,,,,,,,,,,,,,,,,,,,,,,,,,,,,,,,,,,,,
,,,,,,,,,,,,l,Correct!,,,,,,t1.png,t2.png,1,0.90025,19,female,2020-08-28_23h38.59.022,torte-2b,2020.1.3,MacIntel,60,13449,2.182,,,,,0,56,56,72,1,,,,,,,,,,,,,,,,,,,,,,,,,,,,,,,,,,,,,,,,,,,,,,,,,,,,,,,,
,,,,,,,,,,,,l,Correct!,,,,,,t3.png,t5.png,2,0.056466,19,female,2020-08-28_23h38.59.022,torte-2b,2020.1.3,MacIntel,60,13449,0.788,,,,,0,57,57,14,1,,,,,,,,,,,,,,,,,,,,,,,,,,,,,,,,,,,,,,,,,,,,,,,,,,,,,,,,
,,,,,,,,,,,,l,Incorrect,,,,,,t1.png,t2.png,1,0.90025,19,female,2020-08-28_23h38.59.022,torte-2b,2020.1.3,MacIntel,60,13449,1.199,,,,,0,58,58,112,1,,,,,,,,,,,,,,,,,,,,,,,,,,,,,,,,,,,,,,,,,,,,,,,,,,,,,,,,
,,,,,,,,,,,,a,Incorrect,,,,,,t5.png,t2.png,3,0.0000131,19,female,2020-08-28_23h38.59.022,torte-2b,2020.1.3,MacIntel,60,13449,1.118,,,,,0,59,59,91,1,,,,,,,,,,,,,,,,,,,,,,,,,,,,,,,,,,,,,,,,,,,,,,,,,,,,,,,,
,,,,,,,,,,,,a,Incorrect,,,,,,t4.png,t2.png,2,0.059078,19,female,2020-08-28_23h38.59.022,torte-2b,2020.1.3,MacIntel,60,13449,1.083,,,,,0,60,60,109,1,,,,,,,,,,,,,,,,,,,,,,,,,,,,,,,,,,,,,,,,,,,,,,,,,,,,,,,,
,,,,,,,,,,,,a,Incorrect,,,,,,t3.png,t1.png,2,0.056466,19,female,2020-08-28_23h38.59.022,torte-2b,2020.1.3,MacIntel,60,13449,0.832,,,,,0,61,61,0,1,,,,,,,,,,,,,,,,,,,,,,,,,,,,,,,,,,,,,,,,,,,,,,,,,,,,,,,,
,,,,,,,,,,,,a,Incorrect,,,,,,t3.png,t1.png,2,0.0565,19,female,2020-08-28_23h38.59.022,torte-2b,2020.1.3,MacIntel,60,13449,0.816,,,,,0,62,62,31,1,,,,,,,,,,,,,,,,,,,,,,,,,,,,,,,,,,,,,,,,,,,,,,,,,,,,,,,,
,,,,,,,,,,,,l,Correct!,,,,,,t4.png,t4.png,0,0.98115,19,female,2020-08-28_23h38.59.022,torte-2b,2020.1.3,MacIntel,60,13449,1.525,,,,,0,63,63,80,1,,,,,,,,,,,,,,,,,,,,,,,,,,,,,,,,,,,,,,,,,,,,,,,,,,,,,,,,
,,,,,,,,,,,,l,Incorrect,,,,,,t1.png,t1.png,0,0.978,19,female,2020-08-28_23h38.59.022,torte-2b,2020.1.3,MacIntel,60,13449,0.691,,,,,0,64,64,54,1,,,,,,,,,,,,,,,,,,,,,,,,,,,,,,,,,,,,,,,,,,,,,,,,,,,,,,,,
,,,,,,,,,,,,l,Incorrect,,,,,,t4.png,t5.png,1,0.90025,19,female,2020-08-28_23h38.59.022,torte-2b,2020.1.3,MacIntel,60,13449,1.314,,,,,0,65,65,103,1,,,,,,,,,,,,,,,,,,,,,,,,,,,,,,,,,,,,,,,,,,,,,,,,,,,,,,,,
,,,,,,,,,,,,l,Correct!,,,,,,t2.png,t5.png,3,0.0000131,19,female,2020-08-28_23h38.59.022,torte-2b,2020.1.3,MacIntel,60,13449,1.105,,,,,0,66,66,104,1,,,,,,,,,,,,,,,,,,,,,,,,,,,,,,,,,,,,,,,,,,,,,,,,,,,,,,,,
,,,,,,,,,,,,a,Incorrect,,,,,,t5.png,t3.png,2,0.056466,19,female,2020-08-28_23h38.59.022,torte-2b,2020.1.3,MacIntel,60,13449,1.566,,,,,0,67,67,56,1,,,,,,,,,,,,,,,,,,,,,,,,,,,,,,,,,,,,,,,,,,,,,,,,,,,,,,,,
,,,,,,,,,,,,l,Incorrect,,,,,,t4.png,t5.png,1,0.9,19,female,2020-08-28_23h38.59.022,torte-2b,2020.1.3,MacIntel,60,13449,2.241,,,,,0,68,68,115,1,,,,,,,,,,,,,,,,,,,,,,,,,,,,,,,,,,,,,,,,,,,,,,,,,,,,,,,,
,,,,,,,,,,,,l,Incorrect,,,,,,t2.png,t3.png,1,0.90855,19,female,2020-08-28_23h38.59.022,torte-2b,2020.1.3,MacIntel,60,13449,0.916,,,,,0,69,69,68,1,,,,,,,,,,,,,,,,,,,,,,,,,,,,,,,,,,,,,,,,,,,,,,,,,,,,,,,,
,,,,,,,,,,,,a,Incorrect,,,,,,t4.png,t1.png,3,0.0000131,19,female,2020-08-28_23h38.59.022,torte-2b,2020.1.3,MacIntel,60,13449,2.183,,,,,0,70,70,61,1,,,,,,,,,,,,,,,,,,,,,,,,,,,,,,,,,,,,,,,,,,,,,,,,,,,,,,,,
,,,,,,,,,,,,a,Incorrect,,,,,,t2.png,t4.png,2,0.059078,19,female,2020-08-28_23h38.59.022,torte-2b,2020.1.3,MacIntel,60,13449,0.622,,,,,0,71,71,24,1,,,,,,,,,,,,,,,,,,,,,,,,,,,,,,,,,,,,,,,,,,,,,,,,,,,,,,,,
,,,,,,,,,,,,a,Incorrect,,,,,,t4.png,t1.png,3,0.0000131,19,female,2020-08-28_23h38.59.022,torte-2b,2020.1.3,MacIntel,60,13449,0.57,,,,,0,72,72,48,1,,,,,,,,,,,,,,,,,,,,,,,,,,,,,,,,,,,,,,,,,,,,,,,,,,,,,,,,
,,,,,,,,,,,,a,Correct!,,,,,,t2.png,t3.png,1,0.90855,19,female,2020-08-28_23h38.59.022,torte-2b,2020.1.3,MacIntel,60,13449,1.615,,,,,0,73,73,65,1,,,,,,,,,,,,,,,,,,,,,,,,,,,,,,,,,,,,,,,,,,,,,,,,,,,,,,,,
,,,,,,,,,,,,a,Correct!,,,,,,t3.png,t2.png,1,0.90855,19,female,2020-08-28_23h38.59.022,torte-2b,2020.1.3,MacIntel,60,13449,0.869,,,,,0,74,74,53,1,,,,,,,,,,,,,,,,,,,,,,,,,,,,,,,,,,,,,,,,,,,,,,,,,,,,,,,,
,,,,,,,,,,,,a,Correct!,,,,,,t4.png,t4.png,0,0.98115,19,female,2020-08-28_23h38.59.022,torte-2b,2020.1.3,MacIntel,60,13449,0.605,,,,,0,75,75,21,1,,,,,,,,,,,,,,,,,,,,,,,,,,,,,,,,,,,,,,,,,,,,,,,,,,,,,,,,
,,,,,,,,,,,,l,Incorrect,,,,,,t2.png,t2.png,0,0.981,19,female,2020-08-28_23h38.59.022,torte-2b,2020.1.3,MacIntel,60,13449,1.024,,,,,0,76,76,101,1,,,,,,,,,,,,,,,,,,,,,,,,,,,,,,,,,,,,,,,,,,,,,,,,,,,,,,,,
,,,,,,,,,,,,l,Incorrect,,,,,,t2.png,t3.png,1,0.909,19,female,2020-08-28_23h38.59.022,torte-2b,2020.1.3,MacIntel,60,13449,0.849,,,,,0,77,77,74,1,,,,,,,,,,,,,,,,,,,,,,,,,,,,,,,,,,,,,,,,,,,,,,,,,,,,,,,,
,,,,,,,,,,,,l,Correct!,,,,,,t1.png,t3.png,2,0.056466,19,female,2020-08-28_23h38.59.022,torte-2b,2020.1.3,MacIntel,60,13449,1.088,,,,,0,78,78,69,1,,,,,,,,,,,,,,,,,,,,,,,,,,,,,,,,,,,,,,,,,,,,,,,,,,,,,,,,
,,,,,,,,,,,,a,Correct!,,,,,,t5.png,t5.png,0,0.97829,19,female,2020-08-28_23h38.59.022,torte-2b,2020.1.3,MacIntel,60,13449,0.898,,,,,0,79,79,73,1,,,,,,,,,,,,,,,,,,,,,,,,,,,,,,,,,,,,,,,,,,,,,,,,,,,,,,,,
,,,,,,,,,,,,l,Correct!,,,,,,t4.png,t5.png,1,0.90025,19,female,2020-08-28_23h38.59.022,torte-2b,2020.1.3,MacIntel,60,13449,0.783,,,,,0,80,80,47,1,,,,,,,,,,,,,,,,,,,,,,,,,,,,,,,,,,,,,,,,,,,,,,,,,,,,,,,,
,,,,,,,,,,,,a,Correct!,,,,,,t2.png,t1.png,1,0.90025,19,female,2020-08-28_23h38.59.022,torte-2b,2020.1.3,MacIntel,60,13449,0.718,,,,,0,81,81,62,1,,,,,,,,,,,,,,,,,,,,,,,,,,,,,,,,,,,,,,,,,,,,,,,,,,,,,,,,
,,,,,,,,,,,,a,Incorrect,,,,,,t3.png,t1.png,2,0.056466,19,female,2020-08-28_23h38.59.022,torte-2b,2020.1.3,MacIntel,60,13449,1.099,,,,,0,82,82,29,1,,,,,,,,,,,,,,,,,,,,,,,,,,,,,,,,,,,,,,,,,,,,,,,,,,,,,,,,
,,,,,,,,,,,,l,Correct!,,,,,,t2.png,t5.png,3,0.0000131,19,female,2020-08-28_23h38.59.022,torte-2b,2020.1.3,MacIntel,60,13449,1.358,,,,,0,83,83,66,1,,,,,,,,,,,,,,,,,,,,,,,,,,,,,,,,,,,,,,,,,,,,,,,,,,,,,,,,
,,,,,,,,,,,,l,Incorrect,,,,,,t2.png,t2.png,0,0.98115,19,female,2020-08-28_23h38.59.022,torte-2b,2020.1.3,MacIntel,60,13449,1.415,,,,,0,84,84,59,1,,,,,,,,,,,,,,,,,,,,,,,,,,,,,,,,,,,,,,,,,,,,,,,,,,,,,,,,
,,,,,,,,,,,,l,Correct!,,,,,,t2.png,t4.png,2,0.059078,19,female,2020-08-28_23h38.59.022,torte-2b,2020.1.3,MacIntel,60,13449,0.99,,,,,0,85,85,11,1,,,,,,,,,,,,,,,,,,,,,,,,,,,,,,,,,,,,,,,,,,,,,,,,,,,,,,,,
,,,,,,,,,,,,l,Correct!,,,,,,t2.png,t5.png,3,0.0000131,19,female,2020-08-28_23h38.59.022,torte-2b,2020.1.3,MacIntel,60,13449,1.948,,,,,0,86,86,8,1,,,,,,,,,,,,,,,,,,,,,,,,,,,,,,,,,,,,,,,,,,,,,,,,,,,,,,,,
,,,,,,,,,,,,l,Incorrect,,,,,,t1.png,t1.png,0,0.97829,19,female,2020-08-28_23h38.59.022,torte-2b,2020.1.3,MacIntel,60,13449,1.799,,,,,0,87,87,9,1,,,,,,,,,,,,,,,,,,,,,,,,,,,,,,,,,,,,,,,,,,,,,,,,,,,,,,,,
,,,,,,,,,,,,l,Correct!,,,,,,t1.png,t4.png,3,0.0000131,19,female,2020-08-28_23h38.59.022,torte-2b,2020.1.3,MacIntel,60,13449,0.698,,,,,0,88,88,81,1,,,,,,,,,,,,,,,,,,,,,,,,,,,,,,,,,,,,,,,,,,,,,,,,,,,,,,,,
,,,,,,,,,,,,,Too slow :(,,,,,,t1.png,t2.png,1,0.90025,19,female,2020-08-28_23h38.59.022,torte-2b,2020.1.3,MacIntel,60,13449,,,,,,0,89,89,33,1,,,,,,,,,,,,,,,,,,,,,,,,,,,,,,,,,,,,,,,,,,,,,,,,,,,,,,,,
,,,,,,,,,,,,,Too slow :(,,,,,,t3.png,t2.png,1,0.90855,19,female,2020-08-28_23h38.59.022,torte-2b,2020.1.3,MacIntel,60,13449,,,,,,0,90,90,18,1,,,,,,,,,,,,,,,,,,,,,,,,,,,,,,,,,,,,,,,,,,,,,,,,,,,,,,,,
,,,,,,,,,,,,l,Correct!,,,,,,t1.png,t4.png,3,0.0000131,19,female,2020-08-28_23h38.59.022,torte-2b,2020.1.3,MacIntel,60,13449,0.783,,,,,0,91,91,107,1,,,,,,,,,,,,,,,,,,,,,,,,,,,,,,,,,,,,,,,,,,,,,,,,,,,,,,,,
,,,,,,,,,,,,a,Correct!,,,,,,t4.png,t3.png,1,0.90855,19,female,2020-08-28_23h38.59.022,torte-2b,2020.1.3,MacIntel,60,13449,0.665,,,,,0,92,92,35,1,,,,,,,,,,,,,,,,,,,,,,,,,,,,,,,,,,,,,,,,,,,,,,,,,,,,,,,,
,,,,,,,,,,,,l,Correct!,,,,,,t1.png,t4.png,3,0.0000131,19,female,2020-08-28_23h38.59.022,torte-2b,2020.1.3,MacIntel,60,13449,0.539,,,,,0,93,93,17,1,,,,,,,,,,,,,,,,,,,,,,,,,,,,,,,,,,,,,,,,,,,,,,,,,,,,,,,,
,,,,,,,,,,,,a,Incorrect,,,,,,t4.png,t2.png,2,0.0591,19,female,2020-08-28_23h38.59.022,torte-2b,2020.1.3,MacIntel,60,13449,0.465,,,,,0,94,94,36,1,,,,,,,,,,,,,,,,,,,,,,,,,,,,,,,,,,,,,,,,,,,,,,,,,,,,,,,,
,,,,,,,,,,,,l,Correct!,,,,,,t1.png,t5.png,4,9.55E-11,19,female,2020-08-28_23h38.59.022,torte-2b,2020.1.3,MacIntel,60,13449,0.509,,,,,0,95,95,12,1,,,,,,,,,,,,,,,,,,,,,,,,,,,,,,,,,,,,,,,,,,,,,,,,,,,,,,,,
,,,,,,,,,,,,l,Correct!,,,,,,t2.png,t4.png,2,0.059078,19,female,2020-08-28_23h38.59.022,torte-2b,2020.1.3,MacIntel,60,13449,0.499,,,,,0,96,96,77,1,,,,,,,,,,,,,,,,,,,,,,,,,,,,,,,,,,,,,,,,,,,,,,,,,,,,,,,,
,,,,,,,,,,,,a,Incorrect,,,,,,t5.png,t3.png,2,0.0565,19,female,2020-08-28_23h38.59.022,torte-2b,2020.1.3,MacIntel,60,13449,0.984,,,,,0,97,97,39,1,,,,,,,,,,,,,,,,,,,,,,,,,,,,,,,,,,,,,,,,,,,,,,,,,,,,,,,,
,,,,,,,,,,,,a,Correct!,,,,,,t3.png,t2.png,1,0.909,19,female,2020-08-28_23h38.59.022,torte-2b,2020.1.3,MacIntel,60,13449,0.683,,,,,0,98,98,3,1,,,,,,,,,,,,,,,,,,,,,,,,,,,,,,,,,,,,,,,,,,,,,,,,,,,,,,,,
,,,,,,,,,,,,l,Correct!,,,,,,t3.png,t5.png,2,0.0565,19,female,2020-08-28_23h38.59.022,torte-2b,2020.1.3,MacIntel,60,13449,0.616,,,,,0,99,99,83,1,,,,,,,,,,,,,,,,,,,,,,,,,,,,,,,,,,,,,,,,,,,,,,,,,,,,,,,,
,,,,,,,,,,,,l,Incorrect,,,,,,t1.png,t1.png,0,0.97829,19,female,2020-08-28_23h38.59.022,torte-2b,2020.1.3,MacIntel,60,13449,0.64,,,,,0,100,100,67,1,,,,,,,,,,,,,,,,,,,,,,,,,,,,,,,,,,,,,,,,,,,,,,,,,,,,,,,,
,,,,,,,,,,,,a,Incorrect,,,,,,t5.png,t1.png,4,9.55E-11,19,female,2020-08-28_23h38.59.022,torte-2b,2020.1.3,MacIntel,60,13449,0.85,,,,,0,101,101,71,1,,,,,,,,,,,,,,,,,,,,,,,,,,,,,,,,,,,,,,,,,,,,,,,,,,,,,,,,
,,,,,,,,,,,,l,Incorrect,,,,,,t3.png,t4.png,1,0.909,19,female,2020-08-28_23h38.59.022,torte-2b,2020.1.3,MacIntel,60,13449,0.566,,,,,0,102,102,106,1,,,,,,,,,,,,,,,,,,,,,,,,,,,,,,,,,,,,,,,,,,,,,,,,,,,,,,,,
,,,,,,,,,,,,l,Incorrect,,,,,,t5.png,t5.png,0,0.978,19,female,2020-08-28_23h38.59.022,torte-2b,2020.1.3,MacIntel,60,13449,0.641,,,,,0,103,103,117,1,,,,,,,,,,,,,,,,,,,,,,,,,,,,,,,,,,,,,,,,,,,,,,,,,,,,,,,,
,,,,,,,,,,,,l,Correct!,,,,,,t3.png,t5.png,2,0.056466,19,female,2020-08-28_23h38.59.022,torte-2b,2020.1.3,MacIntel,60,13449,0.54,,,,,0,104,104,6,1,,,,,,,,,,,,,,,,,,,,,,,,,,,,,,,,,,,,,,,,,,,,,,,,,,,,,,,,
,,,,,,,,,,,,l,Incorrect,,,,,,t3.png,t4.png,1,0.90855,19,female,2020-08-28_23h38.59.022,torte-2b,2020.1.3,MacIntel,60,13449,0.74,,,,,0,105,105,84,1,,,,,,,,,,,,,,,,,,,,,,,,,,,,,,,,,,,,,,,,,,,,,,,,,,,,,,,,
,,,,,,,,,,,,a,Incorrect,,,,,,t5.png,t2.png,3,0.0000131,19,female,2020-08-28_23h38.59.022,torte-2b,2020.1.3,MacIntel,60,13449,0.685,,,,,0,106,106,51,1,,,,,,,,,,,,,,,,,,,,,,,,,,,,,,,,,,,,,,,,,,,,,,,,,,,,,,,,
,,,,,,,,,,,,a,Correct!,,,,,,t4.png,t3.png,1,0.90855,19,female,2020-08-28_23h38.59.022,torte-2b,2020.1.3,MacIntel,60,13449,0.771,,,,,0,107,107,45,1,,,,,,,,,,,,,,,,,,,,,,,,,,,,,,,,,,,,,,,,,,,,,,,,,,,,,,,,
,,,,,,,,,,,,l,Correct!,,,,,,t1.png,t5.png,4,9.55E-11,19,female,2020-08-28_23h38.59.022,torte-2b,2020.1.3,MacIntel,60,13449,0.781,,,,,0,108,108,41,1,,,,,,,,,,,,,,,,,,,,,,,,,,,,,,,,,,,,,,,,,,,,,,,,,,,,,,,,
,,,,,,,,,,,,l,Correct!,,,,,,t1.png,t5.png,4,9.55E-11,19,female,2020-08-28_23h38.59.022,torte-2b,2020.1.3,MacIntel,60,13449,0.64,,,,,0,109,109,16,1,,,,,,,,,,,,,,,,,,,,,,,,,,,,,,,,,,,,,,,,,,,,,,,,,,,,,,,,
,,,,,,,,,,,,a,Correct!,,,,,,t5.png,t4.png,1,0.9,19,female,2020-08-28_23h38.59.022,torte-2b,2020.1.3,MacIntel,60,13449,1.383,,,,,0,110,110,76,1,,,,,,,,,,,,,,,,,,,,,,,,,,,,,,,,,,,,,,,,,,,,,,,,,,,,,,,,
,,,,,,,,,,,,l,Correct!,,,,,,t3.png,t5.png,2,0.056466,19,female,2020-08-28_23h38.59.022,torte-2b,2020.1.3,MacIntel,60,13449,0.968,,,,,0,111,111,44,1,,,,,,,,,,,,,,,,,,,,,,,,,,,,,,,,,,,,,,,,,,,,,,,,,,,,,,,,
,,,,,,,,,,,,l,Correct!,,,,,,t2.png,t4.png,2,0.0591,19,female,2020-08-28_23h38.59.022,torte-2b,2020.1.3,MacIntel,60,13449,0.5,,,,,0,112,112,15,1,,,,,,,,,,,,,,,,,,,,,,,,,,,,,,,,,,,,,,,,,,,,,,,,,,,,,,,,
,,,,,,,,,,,,l,Correct!,,,,,,t4.png,t5.png,1,0.90025,19,female,2020-08-28_23h38.59.022,torte-2b,2020.1.3,MacIntel,60,13449,0.822,,,,,0,113,113,58,1,,,,,,,,,,,,,,,,,,,,,,,,,,,,,,,,,,,,,,,,,,,,,,,,,,,,,,,,
,,,,,,,,,,,,a,Incorrect,,,,,,t4.png,t1.png,3,0.0000131,19,female,2020-08-28_23h38.59.022,torte-2b,2020.1.3,MacIntel,60,13449,0.682,,,,,0,114,114,13,1,,,,,,,,,,,,,,,,,,,,,,,,,,,,,,,,,,,,,,,,,,,,,,,,,,,,,,,,
,,,,,,,,,,,,l,Correct!,,,,,,t1.png,t4.png,3,0.0000131,19,female,2020-08-28_23h38.59.022,torte-2b,2020.1.3,MacIntel,60,13449,0.583,,,,,0,115,115,50,1,,,,,,,,,,,,,,,,,,,,,,,,,,,,,,,,,,,,,,,,,,,,,,,,,,,,,,,,
,,,,,,,,,,,,l,Incorrect,,,,,,t5.png,t5.png,0,0.97829,19,female,2020-08-28_23h38.59.022,torte-2b,2020.1.3,MacIntel,60,13449,1.106,,,,,0,116,116,70,1,,,,,,,,,,,,,,,,,,,,,,,,,,,,,,,,,,,,,,,,,,,,,,,,,,,,,,,,
,,,,,,,,,,,,a,Correct!,,,,,,t2.png,t1.png,1,0.90025,19,female,2020-08-28_23h38.59.022,torte-2b,2020.1.3,MacIntel,60,13449,1.224,,,,,0,117,117,19,1,,,,,,,,,,,,,,,,,,,,,,,,,,,,,,,,,,,,,,,,,,,,,,,,,,,,,,,,
,,,,,,,,,,,,a,Correct!,,,,,,t3.png,t2.png,1,0.90855,19,female,2020-08-28_23h38.59.022,torte-2b,2020.1.3,MacIntel,60,13449,0.957,,,,,0,118,118,97,1,,,,,,,,,,,,,,,,,,,,,,,,,,,,,,,,,,,,,,,,,,,,,,,,,,,,,,,,
,,,,,,,,,,,,l,Correct!,,,,,,t1.png,t3.png,2,0.056466,19,female,2020-08-28_23h38.59.022,torte-2b,2020.1.3,MacIntel,60,13449,0.632,,,,,0,119,119,87,1,,,,,,,,,,,,,,,,,,,,,,,,,,,,,,,,,,,,,,,,,,,,,,,,,,,,,,,,
,,,,,,,,,,,,,,,,,,,,,,,19,female,2020-08-28_23h38.59.022,torte-2b,2020.1.3,MacIntel,60,13449,,space,1.833,,,,,,,,space,48.933,,0,0,0,0,1,6,,,,,,,,,,,,,,,,,,,,,,,,,,,,,,,,,,,,,,,,,,,,,,,
,,,,,,,,,,,,,,,,,,,,,,,19,female,2020-08-28_23h38.59.022,torte-2b,2020.1.3,MacIntel,60,13449,,,,,,,,,,,,,,0,1,1,1,1,7,,,,,,,,,,,,,,,,,,,,,,,,,,,,,,,,,,,,,,,,,,,,,,,
,,,,,,,,,,,,,,,,,,,,,,,19,female,2020-08-28_23h38.59.022,torte-2b,2020.1.3,MacIntel,60,13449,,,,,,,,,,,,,,0,2,2,2,1,6,,,,,,,,,,,,,,,,,,,,,,,,,,,,,,,,,,,,,,,,,,,,,,,
,,,,,,,,,,,,,,,,,,,,,,,19,female,2020-08-28_23h38.59.022,torte-2b,2020.1.3,MacIntel,60,13449,,,,,,,,,,,,,,0,3,3,3,1,7,,,,,,,,,,,,,,,,,,,,,,,,,,,,,,,,,,,,,,,,,,,,,,,
,,,,,,,,,,,,,,,,,,,,,,,19,female,2020-08-28_23h38.59.022,torte-2b,2020.1.3,MacIntel,60,13449,,,,,,,,,,,,,,0,4,4,4,1,5,,,,,,,,,,,,,,,,,,,,,,,,,,,,,,,,,,,,,,,,,,,,,,,
,,,,,,,,,,,,,,,,,,,,,,,19,female,2020-08-28_23h38.59.022,torte-2b,2020.1.3,MacIntel,60,13449,,,,,,,,,,,,,,0,5,5,5,1,7,,,,,,,,,,,,,,,,,,,,,,,,,,,,,,,,,,,,,,,,,,,,,,,
,,,,,,,,,,,,,,,,,,,,,,,19,female,2020-08-28_23h38.59.022,torte-2b,2020.1.3,MacIntel,60,13449,,,,,,,,,,,,,space,0,6,6,6,1,2,0.154,,,,,,,,,,,,,,,,,,,,,,,,,,,,,,,,,,,,,,,,,,,,,,
,,,,,,,,,,,,,,,,,,,,,,,19,female,2020-08-28_23h38.59.022,torte-2b,2020.1.3,MacIntel,60,13449,,,,,,,,,,,,,,0,7,7,7,1,4,,,,,,,,,,,,,,,,,,,,,,,,,,,,,,,,,,,,,,,,,,,,,,,
,,,,,,,,,,,,,,,,,,,,,,,19,female,2020-08-28_23h38.59.022,torte-2b,2020.1.3,MacIntel,60,13449,,,,,,,,,,,,,space,0,8,8,8,1,7,0.736,,,,,,,,,,,,,,,,,,,,,,,,,,,,,,,,,,,,,,,,,,,,,,
,,,,,,,,,,,,,,,,,,,,,,,19,female,2020-08-28_23h38.59.022,torte-2b,2020.1.3,MacIntel,60,13449,,,,,,,,,,,,,space,0,9,9,9,1,4,0.47,,,,,,,,,,,,,,,,,,,,,,,,,,,,,,,,,,,,,,,,,,,,,,
,,,,,,,,,,,,,,,,,,,,,,,19,female,2020-08-28_23h38.59.022,torte-2b,2020.1.3,MacIntel,60,13449,,,,,,,,,,,,,,0,10,10,10,1,7,,,,,,,,,,,,,,,,,,,,,,,,,,,,,,,,,,,,,,,,,,,,,,,
,,,,,,,,,,,,,,,,,,,,,,,19,female,2020-08-28_23h38.59.022,torte-2b,2020.1.3,MacIntel,60,13449,,,,,,,,,,,,,space,0,11,11,11,1,7,0.479,,,,,,,,,,,,,,,,,,,,,,,,,,,,,,,,,,,,,,,,,,,,,,
,,,,,,,,,,,,,,,,,,,,,,,19,female,2020-08-28_23h38.59.022,torte-2b,2020.1.3,MacIntel,60,13449,,,,,,,,,,,,,space,0,12,12,12,1,7,0.519,,,,,,,,,,,,,,,,,,,,,,,,,,,,,,,,,,,,,,,,,,,,,,
,,,,,,,,,,,,,,,,,,,,,,,19,female,2020-08-28_23h38.59.022,torte-2b,2020.1.3,MacIntel,60,13449,,,,,,,,,,,,,space,0,13,13,13,1,4,0.912,,,,,,,,,,,,,,,,,,,,,,,,,,,,,,,,,,,,,,,,,,,,,,
,,,,,,,,,,,,,,,,,,,,,,,19,female,2020-08-28_23h38.59.022,torte-2b,2020.1.3,MacIntel,60,13449,,,,,,,,,,,,,space,0,14,14,14,1,6,1.112,,,,,,,,,,,,,,,,,,,,,,,,,,,,,,,,,,,,,,,,,,,,,,
,,,,,,,,,,,,,,,,,,,,,,,19,female,2020-08-28_23h38.59.022,torte-2b,2020.1.3,MacIntel,60,13449,,,,,,,,,,,,,space,0,15,15,15,1,4,0.485,,,,,,,,,,,,,,,,,,,,,,,,,,,,,,,,,,,,,,,,,,,,,,
,,,,,,,,,,,,,,,,,,,,,,,19,female,2020-08-28_23h38.59.022,torte-2b,2020.1.3,MacIntel,60,13449,,,,,,,,,,,,,,0,16,16,16,1,6,,,,,,,,,,,,,,,,,,,,,,,,,,,,,,,,,,,,,,,,,,,,,,,
,,,,,,,,,,,,,,,,,,,,,,,19,female,2020-08-28_23h38.59.022,torte-2b,2020.1.3,MacIntel,60,13449,,,,,,,,,,,,,space,0,17,17,17,1,7,0.905,,,,,,,,,,,,,,,,,,,,,,,,,,,,,,,,,,,,,,,,,,,,,,
,,,,,,,,,,,,,,,,,,,,,,,19,female,2020-08-28_23h38.59.022,torte-2b,2020.1.3,MacIntel,60,13449,,,,,,,,,,,,,space,0,18,18,18,1,6,0.563,,,,,,,,,,,,,,,,,,,,,,,,,,,,,,,,,,,,,,,,,,,,,,
,,,,,,,,,,,,,,,,,,,,,,,19,female,2020-08-28_23h38.59.022,torte-2b,2020.1.3,MacIntel,60,13449,,,,,,,,,,,,,space,0,19,19,19,1,7,0.797,,,,,,,,,,,,,,,,,,,,,,,,,,,,,,,,,,,,,,,,,,,,,,
,,,,,,,,,,,,,,,,,,,,,,,19,female,2020-08-28_23h38.59.022,torte-2b,2020.1.3,MacIntel,60,13449,,,,,,,,,,,,,,0,20,20,20,1,5,,,,,,,,,,,,,,,,,,,,,,,,,,,,,,,,,,,,,,,,,,,,,,,
,,,,,,,,,,,,,,,,,,,,,,,19,female,2020-08-28_23h38.59.022,torte-2b,2020.1.3,MacIntel,60,13449,,,,,,,,,,,,,,0,21,21,21,1,1,,,,,,,,,,,,,,,,,,,,,,,,,,,,,,,,,,,,,,,,,,,,,,,
,,,,,,,,,,,,,,,,,,,,,,,19,female,2020-08-28_23h38.59.022,torte-2b,2020.1.3,MacIntel,60,13449,,,,,,,,,,,,,space,0,22,22,22,1,6,0.663,,,,,,,,,,,,,,,,,,,,,,,,,,,,,,,,,,,,,,,,,,,,,,
,,,,,,,,,,,,,,,,,,,,,,,19,female,2020-08-28_23h38.59.022,torte-2b,2020.1.3,MacIntel,60,13449,,,,,,,,,,,,,space,0,23,23,23,1,1,0.685,,,,,,,,,,,,,,,,,,,,,,,,,,,,,,,,,,,,,,,,,,,,,,
,,,,,,,,,,,,,,,,,,,,,,,19,female,2020-08-28_23h38.59.022,torte-2b,2020.1.3,MacIntel,60,13449,,,,,,,,,,,,,space,0,24,24,24,1,5,0.351,,,,,,,,,,,,,,,,,,,,,,,,,,,,,,,,,,,,,,,,,,,,,,
,,,,,,,,,,,,,,,,,,,,,,,19,female,2020-08-28_23h38.59.022,torte-2b,2020.1.3,MacIntel,60,13449,,,,,,,,,,,,,space,0,25,25,25,1,6,0.579,,,,,,,,,,,,,,,,,,,,,,,,,,,,,,,,,,,,,,,,,,,,,,
,,,,,,,,,,,,,,,,,,,,,,,19,female,2020-08-28_23h38.59.022,torte-2b,2020.1.3,MacIntel,60,13449,,,,,,,,,,,,,space,0,26,26,26,1,6,0.513,,,,,,,,,,,,,,,,,,,,,,,,,,,,,,,,,,,,,,,,,,,,,,
,,,,,,,,,,,,,,,,,,,,,,,19,female,2020-08-28_23h38.59.022,torte-2b,2020.1.3,MacIntel,60,13449,,,,,,,,,,,,,space,0,27,27,27,1,6,0.497,,,,,,,,,,,,,,,,,,,,,,,,,,,,,,,,,,,,,,,,,,,,,,
,,,,,,,,,,,,,,,,,,,,,,,19,female,2020-08-28_23h38.59.022,torte-2b,2020.1.3,MacIntel,60,13449,,,,,,,,,,,,,,0,28,28,28,1,5,,,,,,,,,,,,,,,,,,,,,,,,,,,,,,,,,,,,,,,,,,,,,,,
,,,,,,,,,,,,,,,,,,,,,,,19,female,2020-08-28_23h38.59.022,torte-2b,2020.1.3,MacIntel,60,13449,,,,,,,,,,,,,,0,29,29,29,1,2,,,,,,,,,,,,,,,,,,,,,,,,,,,,,,,,,,,,,,,,,,,,,,,
,,,,,,,,,,,,,,,,,,,,,,,19,female,2020-08-28_23h38.59.022,torte-2b,2020.1.3,MacIntel,60,13449,,,,,,,,,,,,,space,0,30,30,30,1,5,0.671,,,,,,,,,,,,,,,,,,,,,,,,,,,,,,,,,,,,,,,,,,,,,,
,,,,,,,,,,,,,,,,,,,,,,,19,female,2020-08-28_23h38.59.022,torte-2b,2020.1.3,MacIntel,60,13449,,,,,,,,,,,,,,0,31,31,31,1,2,,,,,,,,,,,,,,,,,,,,,,,,,,,,,,,,,,,,,,,,,,,,,,,
,,,,,,,,,,,,,,,,,,,,,,,19,female,2020-08-28_23h38.59.022,torte-2b,2020.1.3,MacIntel,60,13449,,,,,,,,,,,,,space,0,32,32,32,1,5,0.379,,,,,,,,,,,,,,,,,,,,,,,,,,,,,,,,,,,,,,,,,,,,,,
,,,,,,,,,,,,,,,,,,,,,,,19,female,2020-08-28_23h38.59.022,torte-2b,2020.1.3,MacIntel,60,13449,,,,,,,,,,,,,,0,33,33,33,1,1,,,,,,,,,,,,,,,,,,,,,,,,,,,,,,,,,,,,,,,,,,,,,,,
,,,,,,,,,,,,,,,,,,,,,,,19,female,2020-08-28_23h38.59.022,torte-2b,2020.1.3,MacIntel,60,13449,,,,,,,,,,,,,,0,34,34,34,1,1,,,,,,,,,,,,,,,,,,,,,,,,,,,,,,,,,,,,,,,,,,,,,,,
,,,,,,,,,,,,,,,,,,,,,,,19,female,2020-08-28_23h38.59.022,torte-2b,2020.1.3,MacIntel,60,13449,,,,,,,,,,,,,,,,,,,2,,0,0,0,0,1,,,,,,,,,,,,,,,,,,,,,,,,,,,,,,,,,,,,,,,,,
,,,,,,,,,,,,,,,,,,,,,,,19,female,2020-08-28_23h38.59.022,torte-2b,2020.1.3,MacIntel,60,13449,,,,,,,,,,,,,,,,,,,2,,0,1,1,1,1,,,,,,,,,,,,,,,,,,,,,,,,,,,,,,,,,,,,,,,,,
,,,,,,,,,,,,,,,,,,,,,,,19,female,2020-08-28_23h38.59.022,torte-2b,2020.1.3,MacIntel,60,13449,,,,,,,,,,,,,,,,,,,6,,0,2,2,2,1,,,,,,,,,,,,,,,,,,,,,,,,,,,,,,,,,,,,,,,,,
,,,,,,,,,,,,,,,,,,,,,,,19,female,2020-08-28_23h38.59.022,torte-2b,2020.1.3,MacIntel,60,13449,,,,,,,,,,,,,space,,,,,,2,1.072,0,3,3,3,1,,,,,,,,,,,,,,,,,,,,,,,,,,,,,,,,,,,,,,,,,
,,,,,,,,,,,,,,,,,,,,,,,19,female,2020-08-28_23h38.59.022,torte-2b,2020.1.3,MacIntel,60,13449,,,,,,,,,,,,,space,,,,,,6,1.646,0,4,4,4,1,,,,,,,,,,,,,,,,,,,,,,,,,,,,,,,,,,,,,,,,,
,,,,,,,,,,,,,,,,,,,,,,,19,female,2020-08-28_23h38.59.022,torte-2b,2020.1.3,MacIntel,60,13449,,,,,,,,,,,,,,,,,,,2,,0,5,5,5,1,,,,,,,,,,,,,,,,,,,,,,,,,,,,,,,,,,,,,,,,,
,,,,,,,,,,,,,,,,,,,,,,,19,female,2020-08-28_23h38.59.022,torte-2b,2020.1.3,MacIntel,60,13449,,,,,,,,,,,,,,,,,,,7,,0,6,6,6,1,,,,,,,,,,,,,,,,,,,,,,,,,,,,,,,,,,,,,,,,,
,,,,,,,,,,,,,,,,,,,,,,,19,female,2020-08-28_23h38.59.022,torte-2b,2020.1.3,MacIntel,60,13449,,,,,,,,,,,,,space,,,,,,2,0.304,0,7,7,7,1,,,,,,,,,,,,,,,,,,,,,,,,,,,,,,,,,,,,,,,,,
,,,,,,,,,,,,,,,,,,,,,,,19,female,2020-08-28_23h38.59.022,torte-2b,2020.1.3,MacIntel,60,13449,,,,,,,,,,,,,,,,,,,7,,0,8,8,8,1,,,,,,,,,,,,,,,,,,,,,,,,,,,,,,,,,,,,,,,,,
,,,,,,,,,,,,,,,,,,,,,,,19,female,2020-08-28_23h38.59.022,torte-2b,2020.1.3,MacIntel,60,13449,,,,,,,,,,,,,space,,,,,,2,0.586,0,9,9,9,1,,,,,,,,,,,,,,,,,,,,,,,,,,,,,,,,,,,,,,,,,
,,,,,,,,,,,,,,,,,,,,,,,19,female,2020-08-28_23h38.59.022,torte-2b,2020.1.3,MacIntel,60,13449,,,,,,,,,,,,,,,,,,,5,,0,10,10,10,1,,,,,,,,,,,,,,,,,,,,,,,,,,,,,,,,,,,,,,,,,
,,,,,,,,,,,,,,,,,,,,,,,19,female,2020-08-28_23h38.59.022,torte-2b,2020.1.3,MacIntel,60,13449,,,,,,,,,,,,,space,,,,,,4,0.335,0,11,11,11,1,,,,,,,,,,,,,,,,,,,,,,,,,,,,,,,,,,,,,,,,,
,,,,,,,,,,,,,,,,,,,,,,,19,female,2020-08-28_23h38.59.022,torte-2b,2020.1.3,MacIntel,60,13449,,,,,,,,,,,,,,,,,,,5,,0,12,12,12,1,,,,,,,,,,,,,,,,,,,,,,,,,,,,,,,,,,,,,,,,,
,,,,,,,,,,,,,,,,,,,,,,,19,female,2020-08-28_23h38.59.022,torte-2b,2020.1.3,MacIntel,60,13449,,,,,,,,,,,,,space,,,,,,6,0.497,0,13,13,13,1,,,,,,,,,,,,,,,,,,,,,,,,,,,,,,,,,,,,,,,,,
,,,,,,,,,,,,,,,,,,,,,,,19,female,2020-08-28_23h38.59.022,torte-2b,2020.1.3,MacIntel,60,13449,,,,,,,,,,,,,,,,,,,5,,0,14,14,14,1,,,,,,,,,,,,,,,,,,,,,,,,,,,,,,,,,,,,,,,,,
,,,,,,,,,,,,,,,,,,,,,,,19,female,2020-08-28_23h38.59.022,torte-2b,2020.1.3,MacIntel,60,13449,,,,,,,,,,,,,space,,,,,,4,1.013,0,15,15,15,1,,,,,,,,,,,,,,,,,,,,,,,,,,,,,,,,,,,,,,,,,
,,,,,,,,,,,,,,,,,,,,,,,19,female,2020-08-28_23h38.59.022,torte-2b,2020.1.3,MacIntel,60,13449,,,,,,,,,,,,,,,,,,,5,,0,16,16,16,1,,,,,,,,,,,,,,,,,,,,,,,,,,,,,,,,,,,,,,,,,
,,,,,,,,,,,,,,,,,,,,,,,19,female,2020-08-28_23h38.59.022,torte-2b,2020.1.3,MacIntel,60,13449,,,,,,,,,,,,,,,,,,,3,,0,17,17,17,1,,,,,,,,,,,,,,,,,,,,,,,,,,,,,,,,,,,,,,,,,
,,,,,,,,,,,,,,,,,,,,,,,19,female,2020-08-28_23h38.59.022,torte-2b,2020.1.3,MacIntel,60,13449,,,,,,,,,,,,,space,,,,,,6,0.496,0,18,18,18,1,,,,,,,,,,,,,,,,,,,,,,,,,,,,,,,,,,,,,,,,,
,,,,,,,,,,,,,,,,,,,,,,,19,female,2020-08-28_23h38.59.022,torte-2b,2020.1.3,MacIntel,60,13449,,,,,,,,,,,,,space,,,,,,6,0.685,0,19,19,19,1,,,,,,,,,,,,,,,,,,,,,,,,,,,,,,,,,,,,,,,,,
,,,,,,,,,,,,,,,,,,,,,,,19,female,2020-08-28_23h38.59.022,torte-2b,2020.1.3,MacIntel,60,13449,,,,,,,,,,,,,space,,,,,,6,0.754,0,20,20,20,1,,,,,,,,,,,,,,,,,,,,,,,,,,,,,,,,,,,,,,,,,
,,,,,,,,,,,,,,,,,,,,,,,19,female,2020-08-28_23h38.59.022,torte-2b,2020.1.3,MacIntel,60,13449,,,,,,,,,,,,,,,,,,,4,,0,21,21,21,1,,,,,,,,,,,,,,,,,,,,,,,,,,,,,,,,,,,,,,,,,
,,,,,,,,,,,,,,,,,,,,,,,19,female,2020-08-28_23h38.59.022,torte-2b,2020.1.3,MacIntel,60,13449,,,,,,,,,,,,,,,,,,,6,,0,22,22,22,1,,,,,,,,,,,,,,,,,,,,,,,,,,,,,,,,,,,,,,,,,
,,,,,,,,,,,,,,,,,,,,,,,19,female,2020-08-28_23h38.59.022,torte-2b,2020.1.3,MacIntel,60,13449,,,,,,,,,,,,,,,,,,,4,,0,23,23,23,1,,,,,,,,,,,,,,,,,,,,,,,,,,,,,,,,,,,,,,,,,
,,,,,,,,,,,,,,,,,,,,,,,19,female,2020-08-28_23h38.59.022,torte-2b,2020.1.3,MacIntel,60,13449,,,,,,,,,,,,,,,,,,,6,,0,24,24,24,1,,,,,,,,,,,,,,,,,,,,,,,,,,,,,,,,,,,,,,,,,
,,,,,,,,,,,,,,,,,,,,,,,19,female,2020-08-28_23h38.59.022,torte-2b,2020.1.3,MacIntel,60,13449,,,,,,,,,,,,,space,,,,,,6,0.53,0,25,25,25,1,,,,,,,,,,,,,,,,,,,,,,,,,,,,,,,,,,,,,,,,,
,,,,,,,,,,,,,,,,,,,,,,,19,female,2020-08-28_23h38.59.022,torte-2b,2020.1.3,MacIntel,60,13449,,,,,,,,,,,,,,,,,,,7,,0,26,26,26,1,,,,,,,,,,,,,,,,,,,,,,,,,,,,,,,,,,,,,,,,,
,,,,,,,,,,,,,,,,,,,,,,,19,female,2020-08-28_23h38.59.022,torte-2b,2020.1.3,MacIntel,60,13449,,,,,,,,,,,,,,,,,,,1,,0,27,27,27,1,,,,,,,,,,,,,,,,,,,,,,,,,,,,,,,,,,,,,,,,,
,,,,,,,,,,,,,,,,,,,,,,,19,female,2020-08-28_23h38.59.022,torte-2b,2020.1.3,MacIntel,60,13449,,,,,,,,,,,,,space,,,,,,7,0.436,0,28,28,28,1,,,,,,,,,,,,,,,,,,,,,,,,,,,,,,,,,,,,,,,,,
,,,,,,,,,,,,,,,,,,,,,,,19,female,2020-08-28_23h38.59.022,torte-2b,2020.1.3,MacIntel,60,13449,,,,,,,,,,,,,,,,,,,4,,0,29,29,29,1,,,,,,,,,,,,,,,,,,,,,,,,,,,,,,,,,,,,,,,,,
,,,,,,,,,,,,,,,,,,,,,,,19,female,2020-08-28_23h38.59.022,torte-2b,2020.1.3,MacIntel,60,13449,,,,,,,,,,,,,space,,,,,,7,0.628,0,30,30,30,1,,,,,,,,,,,,,,,,,,,,,,,,,,,,,,,,,,,,,,,,,
,,,,,,,,,,,,,,,,,,,,,,,19,female,2020-08-28_23h38.59.022,torte-2b,2020.1.3,MacIntel,60,13449,,,,,,,,,,,,,space,,,,,,3,0.679,0,31,31,31,1,,,,,,,,,,,,,,,,,,,,,,,,,,,,,,,,,,,,,,,,,
,,,,,,,,,,,,,,,,,,,,,,,19,female,2020-08-28_23h38.59.022,torte-2b,2020.1.3,MacIntel,60,13449,,,,,,,,,,,,,,,,,,,2,,0,32,32,32,1,,,,,,,,,,,,,,,,,,,,,,,,,,,,,,,,,,,,,,,,,
,,,,,,,,,,,,,,,,,,,,,,,19,female,2020-08-28_23h38.59.022,torte-2b,2020.1.3,MacIntel,60,13449,,,,,,,,,,,,,space,,,,,,6,0.61,0,33,33,33,1,,,,,,,,,,,,,,,,,,,,,,,,,,,,,,,,,,,,,,,,,
,,,,,,,,,,,,,,,,,,,,,,,19,female,2020-08-28_23h38.59.022,torte-2b,2020.1.3,MacIntel,60,13449,,,,,,,,,,,,,space,,,,,,3,0.513,0,34,34,34,1,,,,,,,,,,,,,,,,,,,,,,,,,,,,,,,,,,,,,,,,,
,,,,,,,,,,,,,,,,,,,,,,,19,female,2020-08-28_23h38.59.022,torte-2b,2020.1.3,MacIntel,60,13449,,,,,,,,,,,,,,,,,,,7,,,,,,,0,0,0,0,1,,,,,,,,,,,,,,,,,,,,,,,,,,,,,,,,,,,,
,,,,,,,,,,,,,,,,,,,,,,,19,female,2020-08-28_23h38.59.022,torte-2b,2020.1.3,MacIntel,60,13449,,,,,,,,,,,,,,,,,,,5,,,,,,,0,1,1,1,1,,,,,,,,,,,,,,,,,,,,,,,,,,,,,,,,,,,,
,,,,,,,,,,,,,,,,,,,,,,,19,female,2020-08-28_23h38.59.022,torte-2b,2020.1.3,MacIntel,60,13449,,,,,,,,,,,,,,,,,,,4,,,,,,,0,2,2,2,1,,,,,,,,,,,,,,,,,,,,,,,,,,,,,,,,,,,,
,,,,,,,,,,,,,,,,,,,,,,,19,female,2020-08-28_23h38.59.022,torte-2b,2020.1.3,MacIntel,60,13449,,,,,,,,,,,,,,,,,,,5,,,,,,,0,3,3,3,1,,,,,,,,,,,,,,,,,,,,,,,,,,,,,,,,,,,,
,,,,,,,,,,,,,,,,,,,,,,,19,female,2020-08-28_23h38.59.022,torte-2b,2020.1.3,MacIntel,60,13449,,,,,,,,,,,,,,,,,,,6,,,,,,,0,4,4,4,1,,,,,,,,,,,,,,,,,,,,,,,,,,,,,,,,,,,,
,,,,,,,,,,,,,,,,,,,,,,,19,female,2020-08-28_23h38.59.022,torte-2b,2020.1.3,MacIntel,60,13449,,,,,,,,,,,,,space,,,,,,5,0.377,,,,,,0,5,5,5,1,,,,,,,,,,,,,,,,,,,,,,,,,,,,,,,,,,,,
,,,,,,,,,,,,,,,,,,,,,,,19,female,2020-08-28_23h38.59.022,torte-2b,2020.1.3,MacIntel,60,13449,,,,,,,,,,,,,,,,,,,3,,,,,,,0,6,6,6,1,,,,,,,,,,,,,,,,,,,,,,,,,,,,,,,,,,,,
,,,,,,,,,,,,,,,,,,,,,,,19,female,2020-08-28_23h38.59.022,torte-2b,2020.1.3,MacIntel,60,13449,,,,,,,,,,,,,,,,,,,4,,,,,,,0,7,7,7,1,,,,,,,,,,,,,,,,,,,,,,,,,,,,,,,,,,,,
,,,,,,,,,,,,,,,,,,,,,,,19,female,2020-08-28_23h38.59.022,torte-2b,2020.1.3,MacIntel,60,13449,,,,,,,,,,,,,space,,,,,,3,1.171,,,,,,0,8,8,8,1,,,,,,,,,,,,,,,,,,,,,,,,,,,,,,,,,,,,
,,,,,,,,,,,,,,,,,,,,,,,19,female,2020-08-28_23h38.59.022,torte-2b,2020.1.3,MacIntel,60,13449,,,,,,,,,,,,,,,,,,,1,,,,,,,0,9,9,9,1,,,,,,,,,,,,,,,,,,,,,,,,,,,,,,,,,,,,
,,,,,,,,,,,,,,,,,,,,,,,19,female,2020-08-28_23h38.59.022,torte-2b,2020.1.3,MacIntel,60,13449,,,,,,,,,,,,,space,,,,,,2,0.417,,,,,,0,10,10,10,1,,,,,,,,,,,,,,,,,,,,,,,,,,,,,,,,,,,,
,,,,,,,,,,,,,,,,,,,,,,,19,female,2020-08-28_23h38.59.022,torte-2b,2020.1.3,MacIntel,60,13449,,,,,,,,,,,,,space,,,,,,1,0.526,,,,,,0,11,11,11,1,,,,,,,,,,,,,,,,,,,,,,,,,,,,,,,,,,,,
,,,,,,,,,,,,,,,,,,,,,,,19,female,2020-08-28_23h38.59.022,torte-2b,2020.1.3,MacIntel,60,13449,,,,,,,,,,,,,space,,,,,,2,0.513,,,,,,0,12,12,12,1,,,,,,,,,,,,,,,,,,,,,,,,,,,,,,,,,,,,
,,,,,,,,,,,,,,,,,,,,,,,19,female,2020-08-28_23h38.59.022,torte-2b,2020.1.3,MacIntel,60,13449,,,,,,,,,,,,,space,,,,,,1,0.513,,,,,,0,13,13,13,1,,,,,,,,,,,,,,,,,,,,,,,,,,,,,,,,,,,,
,,,,,,,,,,,,,,,,,,,,,,,19,female,2020-08-28_23h38.59.022,torte-2b,2020.1.3,MacIntel,60,13449,,,,,,,,,,,,,,,,,,,3,,,,,,,0,14,14,14,1,,,,,,,,,,,,,,,,,,,,,,,,,,,,,,,,,,,,
,,,,,,,,,,,,,,,,,,,,,,,19,female,2020-08-28_23h38.59.022,torte-2b,2020.1.3,MacIntel,60,13449,,,,,,,,,,,,,space,,,,,,1,0.429,,,,,,0,15,15,15,1,,,,,,,,,,,,,,,,,,,,,,,,,,,,,,,,,,,,
,,,,,,,,,,,,,,,,,,,,,,,19,female,2020-08-28_23h38.59.022,torte-2b,2020.1.3,MacIntel,60,13449,,,,,,,,,,,,,,,,,,,7,,,,,,,0,16,16,16,1,,,,,,,,,,,,,,,,,,,,,,,,,,,,,,,,,,,,
,,,,,,,,,,,,,,,,,,,,,,,19,female,2020-08-28_23h38.59.022,torte-2b,2020.1.3,MacIntel,60,13449,,,,,,,,,,,,,,,,,,,7,,,,,,,0,17,17,17,1,,,,,,,,,,,,,,,,,,,,,,,,,,,,,,,,,,,,
,,,,,,,,,,,,,,,,,,,,,,,19,female,2020-08-28_23h38.59.022,torte-2b,2020.1.3,MacIntel,60,13449,,,,,,,,,,,,,,,,,,,4,,,,,,,0,18,18,18,1,,,,,,,,,,,,,,,,,,,,,,,,,,,,,,,,,,,,
,,,,,,,,,,,,,,,,,,,,,,,19,female,2020-08-28_23h38.59.022,torte-2b,2020.1.3,MacIntel,60,13449,,,,,,,,,,,,,space,,,,,,7,0.838,,,,,,0,19,19,19,1,,,,,,,,,,,,,,,,,,,,,,,,,,,,,,,,,,,,
,,,,,,,,,,,,,,,,,,,,,,,19,female,2020-08-28_23h38.59.022,torte-2b,2020.1.3,MacIntel,60,13449,,,,,,,,,,,,,,,,,,,3,,,,,,,0,20,20,20,1,,,,,,,,,,,,,,,,,,,,,,,,,,,,,,,,,,,,
,,,,,,,,,,,,,,,,,,,,,,,19,female,2020-08-28_23h38.59.022,torte-2b,2020.1.3,MacIntel,60,13449,,,,,,,,,,,,,space,,,,,,7,0.672,,,,,,0,21,21,21,1,,,,,,,,,,,,,,,,,,,,,,,,,,,,,,,,,,,,
,,,,,,,,,,,,,,,,,,,,,,,19,female,2020-08-28_23h38.59.022,torte-2b,2020.1.3,MacIntel,60,13449,,,,,,,,,,,,,,,,,,,3,,,,,,,0,22,22,22,1,,,,,,,,,,,,,,,,,,,,,,,,,,,,,,,,,,,,
,,,,,,,,,,,,,,,,,,,,,,,19,female,2020-08-28_23h38.59.022,torte-2b,2020.1.3,MacIntel,60,13449,,,,,,,,,,,,,,,,,,,1,,,,,,,0,23,23,23,1,,,,,,,,,,,,,,,,,,,,,,,,,,,,,,,,,,,,
,,,,,,,,,,,,,,,,,,,,,,,19,female,2020-08-28_23h38.59.022,torte-2b,2020.1.3,MacIntel,60,13449,,,,,,,,,,,,,,,,,,,6,,,,,,,0,24,24,24,1,,,,,,,,,,,,,,,,,,,,,,,,,,,,,,,,,,,,
,,,,,,,,,,,,,,,,,,,,,,,19,female,2020-08-28_23h38.59.022,torte-2b,2020.1.3,MacIntel,60,13449,,,,,,,,,,,,,space,,,,,,3,0.612,,,,,,0,25,25,25,1,,,,,,,,,,,,,,,,,,,,,,,,,,,,,,,,,,,,
,,,,,,,,,,,,,,,,,,,,,,,19,female,2020-08-28_23h38.59.022,torte-2b,2020.1.3,MacIntel,60,13449,,,,,,,,,,,,,,,,,,,2,,,,,,,0,26,26,26,1,,,,,,,,,,,,,,,,,,,,,,,,,,,,,,,,,,,,
,,,,,,,,,,,,,,,,,,,,,,,19,female,2020-08-28_23h38.59.022,torte-2b,2020.1.3,MacIntel,60,13449,,,,,,,,,,,,,,,,,,,3,,,,,,,0,27,27,27,1,,,,,,,,,,,,,,,,,,,,,,,,,,,,,,,,,,,,
,,,,,,,,,,,,,,,,,,,,,,,19,female,2020-08-28_23h38.59.022,torte-2b,2020.1.3,MacIntel,60,13449,,,,,,,,,,,,,space,,,,,,1,0.603,,,,,,0,28,28,28,1,,,,,,,,,,,,,,,,,,,,,,,,,,,,,,,,,,,,
,,,,,,,,,,,,,,,,,,,,,,,19,female,2020-08-28_23h38.59.022,torte-2b,2020.1.3,MacIntel,60,13449,,,,,,,,,,,,,space,,,,,,3,0.721,,,,,,0,29,29,29,1,,,,,,,,,,,,,,,,,,,,,,,,,,,,,,,,,,,,
,,,,,,,,,,,,,,,,,,,,,,,19,female,2020-08-28_23h38.59.022,torte-2b,2020.1.3,MacIntel,60,13449,,,,,,,,,,,,,,,,,,,1,,,,,,,0,30,30,30,1,,,,,,,,,,,,,,,,,,,,,,,,,,,,,,,,,,,,
,,,,,,,,,,,,,,,,,,,,,,,19,female,2020-08-28_23h38.59.022,torte-2b,2020.1.3,MacIntel,60,13449,,,,,,,,,,,,,space,,,,,,7,0.618,,,,,,0,31,31,31,1,,,,,,,,,,,,,,,,,,,,,,,,,,,,,,,,,,,,
,,,,,,,,,,,,,,,,,,,,,,,19,female,2020-08-28_23h38.59.022,torte-2b,2020.1.3,MacIntel,60,13449,,,,,,,,,,,,,,,,,,,5,,,,,,,0,32,32,32,1,,,,,,,,,,,,,,,,,,,,,,,,,,,,,,,,,,,,
,,,,,,,,,,,,,,,,,,,,,,,19,female,2020-08-28_23h38.59.022,torte-2b,2020.1.3,MacIntel,60,13449,,,,,,,,,,,,,,,,,,,7,,,,,,,0,33,33,33,1,,,,,,,,,,,,,,,,,,,,,,,,,,,,,,,,,,,,
,,,,,,,,,,,,,,,,,,,,,,,19,female,2020-08-28_23h38.59.022,torte-2b,2020.1.3,MacIntel,60,13449,,,,,,,,,,,,,,,,,,,2,,,,,,,0,34,34,34,1,,,,,,,,,,,,,,,,,,,,,,,,,,,,,,,,,,,,
,,,,,,,,,,,,,,,,,,,,,,,19,female,2020-08-28_23h38.59.022,torte-2b,2020.1.3,MacIntel,60,13449,,,,,,,,,,,,,,,,,,,3,,,,,,,,,,,,0,0,0,0,1,,,,,,,,,,,,,,,,,,,,,,,,,,,,,,,
,,,,,,,,,,,,,,,,,,,,,,,19,female,2020-08-28_23h38.59.022,torte-2b,2020.1.3,MacIntel,60,13449,,,,,,,,,,,,,,,,,,,7,,,,,,,,,,,,0,1,1,1,1,,,,,,,,,,,,,,,,,,,,,,,,,,,,,,,
,,,,,,,,,,,,,,,,,,,,,,,19,female,2020-08-28_23h38.59.022,torte-2b,2020.1.3,MacIntel,60,13449,,,,,,,,,,,,,,,,,,,7,,,,,,,,,,,,0,2,2,2,1,,,,,,,,,,,,,,,,,,,,,,,,,,,,,,,
,,,,,,,,,,,,,,,,,,,,,,,19,female,2020-08-28_23h38.59.022,torte-2b,2020.1.3,MacIntel,60,13449,,,,,,,,,,,,,,,,,,,4,,,,,,,,,,,,0,3,3,3,1,,,,,,,,,,,,,,,,,,,,,,,,,,,,,,,
,,,,,,,,,,,,,,,,,,,,,,,19,female,2020-08-28_23h38.59.022,torte-2b,2020.1.3,MacIntel,60,13449,,,,,,,,,,,,,,,,,,,5,,,,,,,,,,,,0,4,4,4,1,,,,,,,,,,,,,,,,,,,,,,,,,,,,,,,
,,,,,,,,,,,,,,,,,,,,,,,19,female,2020-08-28_23h38.59.022,torte-2b,2020.1.3,MacIntel,60,13449,,,,,,,,,,,,,space,,,,,,4,0.328,,,,,,,,,,,0,5,5,5,1,,,,,,,,,,,,,,,,,,,,,,,,,,,,,,,
,,,,,,,,,,,,,,,,,,,,,,,19,female,2020-08-28_23h38.59.022,torte-2b,2020.1.3,MacIntel,60,13449,,,,,,,,,,,,,space,,,,,,2,0.762,,,,,,,,,,,0,6,6,6,1,,,,,,,,,,,,,,,,,,,,,,,,,,,,,,,
,,,,,,,,,,,,,,,,,,,,,,,19,female,2020-08-28_23h38.59.022,torte-2b,2020.1.3,MacIntel,60,13449,,,,,,,,,,,,,space,,,,,,4,0.93,,,,,,,,,,,0,7,7,7,1,,,,,,,,,,,,,,,,,,,,,,,,,,,,,,,
,,,,,,,,,,,,,,,,,,,,,,,19,female,2020-08-28_23h38.59.022,torte-2b,2020.1.3,MacIntel,60,13449,,,,,,,,,,,,,,,,,,,2,,,,,,,,,,,,0,8,8,8,1,,,,,,,,,,,,,,,,,,,,,,,,,,,,,,,
,,,,,,,,,,,,,,,,,,,,,,,19,female,2020-08-28_23h38.59.022,torte-2b,2020.1.3,MacIntel,60,13449,,,,,,,,,,,,,,,,,,,2,,,,,,,,,,,,0,9,9,9,1,,,,,,,,,,,,,,,,,,,,,,,,,,,,,,,
,,,,,,,,,,,,,,,,,,,,,,,19,female,2020-08-28_23h38.59.022,torte-2b,2020.1.3,MacIntel,60,13449,,,,,,,,,,,,,,,,,,,6,,,,,,,,,,,,0,10,10,10,1,,,,,,,,,,,,,,,,,,,,,,,,,,,,,,,
,,,,,,,,,,,,,,,,,,,,,,,19,female,2020-08-28_23h38.59.022,torte-2b,2020.1.3,MacIntel,60,13449,,,,,,,,,,,,,space,,,,,,2,0.495,,,,,,,,,,,0,11,11,11,1,,,,,,,,,,,,,,,,,,,,,,,,,,,,,,,
,,,,,,,,,,,,,,,,,,,,,,,19,female,2020-08-28_23h38.59.022,torte-2b,2020.1.3,MacIntel,60,13449,,,,,,,,,,,,,space,,,,,,2,1.211,,,,,,,,,,,0,12,12,12,1,,,,,,,,,,,,,,,,,,,,,,,,,,,,,,,
,,,,,,,,,,,,,,,,,,,,,,,19,female,2020-08-28_23h38.59.022,torte-2b,2020.1.3,MacIntel,60,13449,,,,,,,,,,,,,space,,,,,,2,1.285,,,,,,,,,,,0,13,13,13,1,,,,,,,,,,,,,,,,,,,,,,,,,,,,,,,
,,,,,,,,,,,,,,,,,,,,,,,19,female,2020-08-28_23h38.59.022,torte-2b,2020.1.3,MacIntel,60,13449,,,,,,,,,,,,,space,,,,,,2,1.421,,,,,,,,,,,0,14,14,14,1,,,,,,,,,,,,,,,,,,,,,,,,,,,,,,,
,,,,,,,,,,,,,,,,,,,,,,,19,female,2020-08-28_23h38.59.022,torte-2b,2020.1.3,MacIntel,60,13449,,,,,,,,,,,,,,,,,,,4,,,,,,,,,,,,0,15,15,15,1,,,,,,,,,,,,,,,,,,,,,,,,,,,,,,,
,,,,,,,,,,,,,,,,,,,,,,,19,female,2020-08-28_23h38.59.022,torte-2b,2020.1.3,MacIntel,60,13449,,,,,,,,,,,,,,,,,,,3,,,,,,,,,,,,0,16,16,16,1,,,,,,,,,,,,,,,,,,,,,,,,,,,,,,,
,,,,,,,,,,,,,,,,,,,,,,,19,female,2020-08-28_23h38.59.022,torte-2b,2020.1.3,MacIntel,60,13449,,,,,,,,,,,,,,,,,,,7,,,,,,,,,,,,0,17,17,17,1,,,,,,,,,,,,,,,,,,,,,,,,,,,,,,,
,,,,,,,,,,,,,,,,,,,,,,,19,female,2020-08-28_23h38.59.022,torte-2b,2020.1.3,MacIntel,60,13449,,,,,,,,,,,,,,,,,,,4,,,,,,,,,,,,0,18,18,18,1,,,,,,,,,,,,,,,,,,,,,,,,,,,,,,,
,,,,,,,,,,,,,,,,,,,,,,,19,female,2020-08-28_23h38.59.022,torte-2b,2020.1.3,MacIntel,60,13449,,,,,,,,,,,,,,,,,,,7,,,,,,,,,,,,0,19,19,19,1,,,,,,,,,,,,,,,,,,,,,,,,,,,,,,,
,,,,,,,,,,,,,,,,,,,,,,,19,female,2020-08-28_23h38.59.022,torte-2b,2020.1.3,MacIntel,60,13449,,,,,,,,,,,,,space,,,,,,7,0.529,,,,,,,,,,,0,20,20,20,1,,,,,,,,,,,,,,,,,,,,,,,,,,,,,,,
,,,,,,,,,,,,,,,,,,,,,,,19,female,2020-08-28_23h38.59.022,torte-2b,2020.1.3,MacIntel,60,13449,,,,,,,,,,,,,,,,,,,7,,,,,,,,,,,,0,21,21,21,1,,,,,,,,,,,,,,,,,,,,,,,,,,,,,,,
,,,,,,,,,,,,,,,,,,,,,,,19,female,2020-08-28_23h38.59.022,torte-2b,2020.1.3,MacIntel,60,13449,,,,,,,,,,,,,,,,,,,7,,,,,,,,,,,,0,22,22,22,1,,,,,,,,,,,,,,,,,,,,,,,,,,,,,,,
,,,,,,,,,,,,,,,,,,,,,,,19,female,2020-08-28_23h38.59.022,torte-2b,2020.1.3,MacIntel,60,13449,,,,,,,,,,,,,space,,,,,,1,1.186,,,,,,,,,,,0,23,23,23,1,,,,,,,,,,,,,,,,,,,,,,,,,,,,,,,
,,,,,,,,,,,,,,,,,,,,,,,19,female,2020-08-28_23h38.59.022,torte-2b,2020.1.3,MacIntel,60,13449,,,,,,,,,,,,,,,,,,,7,,,,,,,,,,,,0,24,24,24,1,,,,,,,,,,,,,,,,,,,,,,,,,,,,,,,
,,,,,,,,,,,,,,,,,,,,,,,19,female,2020-08-28_23h38.59.022,torte-2b,2020.1.3,MacIntel,60,13449,,,,,,,,,,,,,,,,,,,1,,,,,,,,,,,,0,25,25,25,1,,,,,,,,,,,,,,,,,,,,,,,,,,,,,,,
,,,,,,,,,,,,,,,,,,,,,,,19,female,2020-08-28_23h38.59.022,torte-2b,2020.1.3,MacIntel,60,13449,,,,,,,,,,,,,space,,,,,,7,0.361,,,,,,,,,,,0,26,26,26,1,,,,,,,,,,,,,,,,,,,,,,,,,,,,,,,
,,,,,,,,,,,,,,,,,,,,,,,19,female,2020-08-28_23h38.59.022,torte-2b,2020.1.3,MacIntel,60,13449,,,,,,,,,,,,,space,,,,,,2,0.818,,,,,,,,,,,0,27,27,27,1,,,,,,,,,,,,,,,,,,,,,,,,,,,,,,,
,,,,,,,,,,,,,,,,,,,,,,,19,female,2020-08-28_23h38.59.022,torte-2b,2020.1.3,MacIntel,60,13449,,,,,,,,,,,,,space,,,,,,5,0.863,,,,,,,,,,,0,28,28,28,1,,,,,,,,,,,,,,,,,,,,,,,,,,,,,,,
,,,,,,,,,,,,,,,,,,,,,,,19,female,2020-08-28_23h38.59.022,torte-2b,2020.1.3,MacIntel,60,13449,,,,,,,,,,,,,,,,,,,5,,,,,,,,,,,,0,29,29,29,1,,,,,,,,,,,,,,,,,,,,,,,,,,,,,,,
,,,,,,,,,,,,,,,,,,,,,,,19,female,2020-08-28_23h38.59.022,torte-2b,2020.1.3,MacIntel,60,13449,,,,,,,,,,,,,space,,,,,,5,0.863,,,,,,,,,,,0,30,30,30,1,,,,,,,,,,,,,,,,,,,,,,,,,,,,,,,
,,,,,,,,,,,,,,,,,,,,,,,19,female,2020-08-28_23h38.59.022,torte-2b,2020.1.3,MacIntel,60,13449,,,,,,,,,,,,,space,,,,,,1,1.655,,,,,,,,,,,0,31,31,31,1,,,,,,,,,,,,,,,,,,,,,,,,,,,,,,,
,,,,,,,,,,,,,,,,,,,,,,,19,female,2020-08-28_23h38.59.022,torte-2b,2020.1.3,MacIntel,60,13449,,,,,,,,,,,,,space,,,,,,5,1.736,,,,,,,,,,,0,32,32,32,1,,,,,,,,,,,,,,,,,,,,,,,,,,,,,,,
,,,,,,,,,,,,,,,,,,,,,,,19,female,2020-08-28_23h38.59.022,torte-2b,2020.1.3,MacIntel,60,13449,,,,,,,,,,,,,,,,,,,3,,,,,,,,,,,,0,33,33,33,1,,,,,,,,,,,,,,,,,,,,,,,,,,,,,,,
,,,,,,,,,,,,,,,,,,,,,,,19,female,2020-08-28_23h38.59.022,torte-2b,2020.1.3,MacIntel,60,13449,,,,,,,,,,,,,space,,,,,,3,0.063,,,,,,,,,,,0,34,34,34,1,,,,,,,,,,,,,,,,,,,,,,,,,,,,,,,
,,,,,,,,,,,,a,Correct!,,,,,,t2.png,t1.png,1,0.90025,19,female,2020-08-28_23h38.59.022,torte-2b,2020.1.3,MacIntel,60,13449,1.64,space,3.598,,,,,,,,,,,,,,,,,,,,,,,,,,,,,,,,,space,65.317,0,0,0,62,1,,,,,,,,,,,,,,,,,,,,,,,,
,,,,,,,,,,,,a,Incorrect,,,,,,t5.png,t3.png,2,0.056466,19,female,2020-08-28_23h38.59.022,torte-2b,2020.1.3,MacIntel,60,13449,1.151,,,,,,,,,,,,,,,,,,,,,,,,,,,,,,,,,,,,,0,1,1,56,1,,,,,,,,,,,,,,,,,,,,,,,,
,,,,,,,,,,,,l,Correct!,,,,,,t1.png,t4.png,3,0.0000131,19,female,2020-08-28_23h38.59.022,torte-2b,2020.1.3,MacIntel,60,13449,1.288,,,,,,,,,,,,,,,,,,,,,,,,,,,,,,,,,,,,,0,2,2,50,1,,,,,,,,,,,,,,,,,,,,,,,,
,,,,,,,,,,,,l,Incorrect,,,,,,t4.png,t5.png,1,0.90025,19,female,2020-08-28_23h38.59.022,torte-2b,2020.1.3,MacIntel,60,13449,1.338,,,,,,,,,,,,,,,,,,,,,,,,,,,,,,,,,,,,,0,3,3,103,1,,,,,,,,,,,,,,,,,,,,,,,,
,,,,,,,,,,,,a,Incorrect,,,,,,t5.png,t3.png,2,0.056466,19,female,2020-08-28_23h38.59.022,torte-2b,2020.1.3,MacIntel,60,13449,1.288,,,,,,,,,,,,,,,,,,,,,,,,,,,,,,,,,,,,,0,4,4,114,1,,,,,,,,,,,,,,,,,,,,,,,,
,,,,,,,,,,,,l,Correct!,,,,,,t2.png,t4.png,2,0.0591,19,female,2020-08-28_23h38.59.022,torte-2b,2020.1.3,MacIntel,60,13449,1.267,,,,,,,,,,,,,,,,,,,,,,,,,,,,,,,,,,,,,0,5,5,15,1,,,,,,,,,,,,,,,,,,,,,,,,
,,,,,,,,,,,,l,Correct!,,,,,,t3.png,t5.png,2,0.0565,19,female,2020-08-28_23h38.59.022,torte-2b,2020.1.3,MacIntel,60,13449,0.5,,,,,,,,,,,,,,,,,,,,,,,,,,,,,,,,,,,,,0,6,6,30,1,,,,,,,,,,,,,,,,,,,,,,,,
,,,,,,,,,,,,a,Incorrect,,,,,,t3.png,t1.png,2,0.056466,19,female,2020-08-28_23h38.59.022,torte-2b,2020.1.3,MacIntel,60,13449,0.55,,,,,,,,,,,,,,,,,,,,,,,,,,,,,,,,,,,,,0,7,7,64,1,,,,,,,,,,,,,,,,,,,,,,,,
,,,,,,,,,,,,a,Correct!,,,,,,t1.png,t1.png,0,0.97829,19,female,2020-08-28_23h38.59.022,torte-2b,2020.1.3,MacIntel,60,13449,1.15,,,,,,,,,,,,,,,,,,,,,,,,,,,,,,,,,,,,,0,8,8,78,1,,,,,,,,,,,,,,,,,,,,,,,,
,,,,,,,,,,,,a,Correct!,,,,,,t4.png,t4.png,0,0.98115,19,female,2020-08-28_23h38.59.022,torte-2b,2020.1.3,MacIntel,60,13449,0.774,,,,,,,,,,,,,,,,,,,,,,,,,,,,,,,,,,,,,0,9,9,52,1,,,,,,,,,,,,,,,,,,,,,,,,
,,,,,,,,,,,,l,Correct!,,,,,,t1.png,t3.png,2,0.056466,19,female,2020-08-28_23h38.59.022,torte-2b,2020.1.3,MacIntel,60,13449,1.75,,,,,,,,,,,,,,,,,,,,,,,,,,,,,,,,,,,,,0,10,10,69,1,,,,,,,,,,,,,,,,,,,,,,,,
,,,,,,,,,,,,l,Incorrect,,,,,,t2.png,t3.png,1,0.90855,19,female,2020-08-28_23h38.59.022,torte-2b,2020.1.3,MacIntel,60,13449,0.849,,,,,,,,,,,,,,,,,,,,,,,,,,,,,,,,,,,,,0,11,11,111,1,,,,,,,,,,,,,,,,,,,,,,,,
,,,,,,,,,,,,l,Incorrect,,,,,,t3.png,t4.png,1,0.909,19,female,2020-08-28_23h38.59.022,torte-2b,2020.1.3,MacIntel,60,13449,1.118,,,,,,,,,,,,,,,,,,,,,,,,,,,,,,,,,,,,,0,12,12,82,1,,,,,,,,,,,,,,,,,,,,,,,,
,,,,,,,,,,,,l,Correct!,,,,,,t1.png,t5.png,4,9.55E-11,19,female,2020-08-28_23h38.59.022,torte-2b,2020.1.3,MacIntel,60,13449,0.832,,,,,,,,,,,,,,,,,,,,,,,,,,,,,,,,,,,,,0,13,13,16,1,,,,,,,,,,,,,,,,,,,,,,,,
,,,,,,,,,,,,a,Incorrect,,,,,,t4.png,t1.png,3,0.0000131,19,female,2020-08-28_23h38.59.022,torte-2b,2020.1.3,MacIntel,60,13449,0.57,,,,,,,,,,,,,,,,,,,,,,,,,,,,,,,,,,,,,0,14,14,48,1,,,,,,,,,,,,,,,,,,,,,,,,
,,,,,,,,,,,,l,Incorrect,,,,,,t1.png,t2.png,1,0.9,19,female,2020-08-28_23h38.59.022,torte-2b,2020.1.3,MacIntel,60,13449,0.783,,,,,,,,,,,,,,,,,,,,,,,,,,,,,,,,,,,,,0,15,15,1,1,,,,,,,,,,,,,,,,,,,,,,,,
,,,,,,,,,,,,l,Correct!,,,,,,t3.png,t5.png,2,0.056466,19,female,2020-08-28_23h38.59.022,torte-2b,2020.1.3,MacIntel,60,13449,1.191,,,,,,,,,,,,,,,,,,,,,,,,,,,,,,,,,,,,,0,16,16,14,1,,,,,,,,,,,,,,,,,,,,,,,,
,,,,,,,,,,,,l,Correct!,,,,,,t5.png,t2.png,3,0.0000131,19,female,2020-08-28_23h38.59.022,torte-2b,2020.1.3,MacIntel,60,13449,0.974,,,,,,,,,,,,,,,,,,,,,,,,,,,,,,,,,,,,,0,17,17,91,1,,,,,,,,,,,,,,,,,,,,,,,,
,,,,,,,,,,,,l,Incorrect,,,,,,t2.png,t2.png,0,0.98115,19,female,2020-08-28_23h38.59.022,torte-2b,2020.1.3,MacIntel,60,13449,0.231,,,,,,,,,,,,,,,,,,,,,,,,,,,,,,,,,,,,,0,18,18,7,1,,,,,,,,,,,,,,,,,,,,,,,,
,,,,,,,,,,,,a,Incorrect,,,,,,t5.png,t1.png,4,9.55E-11,19,female,2020-08-28_23h38.59.022,torte-2b,2020.1.3,MacIntel,60,13449,1.432,,,,,,,,,,,,,,,,,,,,,,,,,,,,,,,,,,,,,0,19,19,71,1,,,,,,,,,,,,,,,,,,,,,,,,
,,,,,,,,,,,,,Too slow :(,,,,,,t5.png,t1.png,4,9.55E-11,19,female,2020-08-28_23h38.59.022,torte-2b,2020.1.3,MacIntel,60,13449,,,,,,,,,,,,,,,,,,,,,,,,,,,,,,,,,,,,,,0,20,20,102,1,,,,,,,,,,,,,,,,,,,,,,,,
,,,,,,,,,,,,l,Incorrect,,,,,,t4.png,t5.png,1,0.9,19,female,2020-08-28_23h38.59.022,torte-2b,2020.1.3,MacIntel,60,13449,0.847,,,,,,,,,,,,,,,,,,,,,,,,,,,,,,,,,,,,,0,21,21,115,1,,,,,,,,,,,,,,,,,,,,,,,,
,,,,,,,,,,,,a,Incorrect,,,,,,t4.png,t3.png,1,0.90855,19,female,2020-08-28_23h38.59.022,torte-2b,2020.1.3,MacIntel,60,13449,1.207,,,,,,,,,,,,,,,,,,,,,,,,,,,,,,,,,,,,,0,22,22,75,1,,,,,,,,,,,,,,,,,,,,,,,,
,,,,,,,,,,,,l,Correct!,,,,,,t1.png,t4.png,3,0.0000131,19,female,2020-08-28_23h38.59.022,torte-2b,2020.1.3,MacIntel,60,13449,0.966,,,,,,,,,,,,,,,,,,,,,,,,,,,,,,,,,,,,,0,23,23,107,1,,,,,,,,,,,,,,,,,,,,,,,,
,,,,,,,,,,,,l,Correct!,,,,,,t2.png,t4.png,2,0.059078,19,female,2020-08-28_23h38.59.022,torte-2b,2020.1.3,MacIntel,60,13449,1.723,,,,,,,,,,,,,,,,,,,,,,,,,,,,,,,,,,,,,0,24,24,24,1,,,,,,,,,,,,,,,,,,,,,,,,
,,,,,,,,,,,,a,Correct!,,,,,,t4.png,t3.png,1,0.909,19,female,2020-08-28_23h38.59.022,torte-2b,2020.1.3,MacIntel,60,13449,1.051,,,,,,,,,,,,,,,,,,,,,,,,,,,,,,,,,,,,,0,25,25,46,1,,,,,,,,,,,,,,,,,,,,,,,,
,,,,,,,,,,,,l,Correct!,,,,,,t1.png,t4.png,3,0.0000131,19,female,2020-08-28_23h38.59.022,torte-2b,2020.1.3,MacIntel,60,13449,0.583,,,,,,,,,,,,,,,,,,,,,,,,,,,,,,,,,,,,,0,26,26,17,1,,,,,,,,,,,,,,,,,,,,,,,,
,,,,,,,,,,,,a,Incorrect,,,,,,t3.png,t1.png,2,0.056466,19,female,2020-08-28_23h38.59.022,torte-2b,2020.1.3,MacIntel,60,13449,0.786,,,,,,,,,,,,,,,,,,,,,,,,,,,,,,,,,,,,,0,27,27,0,1,,,,,,,,,,,,,,,,,,,,,,,,
,,,,,,,,,,,,l,Incorrect,,,,,,t4.png,t4.png,0,0.98115,19,female,2020-08-28_23h38.59.022,torte-2b,2020.1.3,MacIntel,60,13449,0.852,,,,,,,,,,,,,,,,,,,,,,,,,,,,,,,,,,,,,0,28,28,21,1,,,,,,,,,,,,,,,,,,,,,,,,
,,,,,,,,,,,,l,Incorrect,,,,,,t1.png,t2.png,1,0.90025,19,female,2020-08-28_23h38.59.022,torte-2b,2020.1.3,MacIntel,60,13449,0.705,,,,,,,,,,,,,,,,,,,,,,,,,,,,,,,,,,,,,0,29,29,105,1,,,,,,,,,,,,,,,,,,,,,,,,
,,,,,,,,,,,,a,Incorrect,,,,,,t3.png,t1.png,2,0.056466,19,female,2020-08-28_23h38.59.022,torte-2b,2020.1.3,MacIntel,60,13449,1.451,,,,,,,,,,,,,,,,,,,,,,,,,,,,,,,,,,,,,0,30,30,32,1,,,,,,,,,,,,,,,,,,,,,,,,
,,,,,,,,,,,,a,Incorrect,,,,,,t5.png,t2.png,3,0.0000131,19,female,2020-08-28_23h38.59.022,torte-2b,2020.1.3,MacIntel,60,13449,1.349,,,,,,,,,,,,,,,,,,,,,,,,,,,,,,,,,,,,,0,31,31,51,1,,,,,,,,,,,,,,,,,,,,,,,,
,,,,,,,,,,,,l,Incorrect,,,,,,t4.png,t5.png,1,0.90025,19,female,2020-08-28_23h38.59.022,torte-2b,2020.1.3,MacIntel,60,13449,1.032,,,,,,,,,,,,,,,,,,,,,,,,,,,,,,,,,,,,,0,32,32,113,1,,,,,,,,,,,,,,,,,,,,,,,,
,,,,,,,,,,,,l,Incorrect,,,,,,t4.png,t4.png,0,0.98115,19,female,2020-08-28_23h38.59.022,torte-2b,2020.1.3,MacIntel,60,13449,1.25,,,,,,,,,,,,,,,,,,,,,,,,,,,,,,,,,,,,,0,33,33,80,1,,,,,,,,,,,,,,,,,,,,,,,,
,,,,,,,,,,,,l,Correct!,,,,,,t2.png,t5.png,3,0.0000131,19,female,2020-08-28_23h38.59.022,torte-2b,2020.1.3,MacIntel,60,13449,0.957,,,,,,,,,,,,,,,,,,,,,,,,,,,,,,,,,,,,,0,34,34,104,1,,,,,,,,,,,,,,,,,,,,,,,,
,,,,,,,,,,,,a,Incorrect,,,,,,t4.png,t2.png,2,0.059078,19,female,2020-08-28_23h38.59.022,torte-2b,2020.1.3,MacIntel,60,13449,0.867,,,,,,,,,,,,,,,,,,,,,,,,,,,,,,,,,,,,,0,35,35,86,1,,,,,,,,,,,,,,,,,,,,,,,,
,,,,,,,,,,,,l,Correct!,,,,,,t1.png,t4.png,3,0.0000131,19,female,2020-08-28_23h38.59.022,torte-2b,2020.1.3,MacIntel,60,13449,1.316,,,,,,,,,,,,,,,,,,,,,,,,,,,,,,,,,,,,,0,36,36,81,1,,,,,,,,,,,,,,,,,,,,,,,,
,,,,,,,,,,,,l,Incorrect,,,,,,t4.png,t5.png,1,0.90025,19,female,2020-08-28_23h38.59.022,torte-2b,2020.1.3,MacIntel,60,13449,0.702,,,,,,,,,,,,,,,,,,,,,,,,,,,,,,,,,,,,,0,37,37,58,1,,,,,,,,,,,,,,,,,,,,,,,,
,,,,,,,,,,,,a,Incorrect,,,,,,t5.png,t1.png,4,9.55E-11,19,female,2020-08-28_23h38.59.022,torte-2b,2020.1.3,MacIntel,60,13449,1.134,,,,,,,,,,,,,,,,,,,,,,,,,,,,,,,,,,,,,0,38,38,43,1,,,,,,,,,,,,,,,,,,,,,,,,
,,,,,,,,,,,,l,Incorrect,,,,,,t3.png,t4.png,1,0.909,19,female,2020-08-28_23h38.59.022,torte-2b,2020.1.3,MacIntel,60,13449,1.164,,,,,,,,,,,,,,,,,,,,,,,,,,,,,,,,,,,,,0,39,39,106,1,,,,,,,,,,,,,,,,,,,,,,,,
,,,,,,,,,,,,a,Incorrect,,,,,,t4.png,t1.png,3,0.0000131,19,female,2020-08-28_23h38.59.022,torte-2b,2020.1.3,MacIntel,60,13449,1.453,,,,,,,,,,,,,,,,,,,,,,,,,,,,,,,,,,,,,0,40,40,61,1,,,,,,,,,,,,,,,,,,,,,,,,
,,,,,,,,,,,,l,Correct!,,,,,,t1.png,t5.png,4,9.55E-11,19,female,2020-08-28_23h38.59.022,torte-2b,2020.1.3,MacIntel,60,13449,1.287,,,,,,,,,,,,,,,,,,,,,,,,,,,,,,,,,,,,,0,41,41,85,1,,,,,,,,,,,,,,,,,,,,,,,,
,,,,,,,,,,,,l,Correct!,,,,,,t2.png,t5.png,3,0.0000131,19,female,2020-08-28_23h38.59.022,torte-2b,2020.1.3,MacIntel,60,13449,2.303,,,,,,,,,,,,,,,,,,,,,,,,,,,,,,,,,,,,,0,42,42,66,1,,,,,,,,,,,,,,,,,,,,,,,,
,,,,,,,,,,,,l,Incorrect,,,,,,t3.png,t2.png,1,0.90855,19,female,2020-08-28_23h38.59.022,torte-2b,2020.1.3,MacIntel,60,13449,1.222,,,,,,,,,,,,,,,,,,,,,,,,,,,,,,,,,,,,,0,43,43,18,1,,,,,,,,,,,,,,,,,,,,,,,,
,,,,,,,,,,,,l,Correct!,,,,,,t1.png,t5.png,4,9.55E-11,19,female,2020-08-28_23h38.59.022,torte-2b,2020.1.3,MacIntel,60,13449,0.471,,,,,,,,,,,,,,,,,,,,,,,,,,,,,,,,,,,,,0,44,44,55,1,,,,,,,,,,,,,,,,,,,,,,,,
,,,,,,,,,,,,l,Correct!,,,,,,t3.png,t1.png,2,0.0565,19,female,2020-08-28_23h38.59.022,torte-2b,2020.1.3,MacIntel,60,13449,1.315,,,,,,,,,,,,,,,,,,,,,,,,,,,,,,,,,,,,,0,45,45,31,1,,,,,,,,,,,,,,,,,,,,,,,,
,,,,,,,,,,,,l,Correct!,,,,,,t2.png,t4.png,2,0.059078,19,female,2020-08-28_23h38.59.022,torte-2b,2020.1.3,MacIntel,60,13449,0.639,,,,,,,,,,,,,,,,,,,,,,,,,,,,,,,,,,,,,0,46,46,37,1,,,,,,,,,,,,,,,,,,,,,,,,
,,,,,,,,,,,,l,Incorrect,,,,,,t5.png,t4.png,1,0.90025,19,female,2020-08-28_23h38.59.022,torte-2b,2020.1.3,MacIntel,60,13449,1.218,,,,,,,,,,,,,,,,,,,,,,,,,,,,,,,,,,,,,0,47,47,26,1,,,,,,,,,,,,,,,,,,,,,,,,
,,,,,,,,,,,,l,Correct!,,,,,,t1.png,t3.png,2,0.056466,19,female,2020-08-28_23h38.59.022,torte-2b,2020.1.3,MacIntel,60,13449,0.686,,,,,,,,,,,,,,,,,,,,,,,,,,,,,,,,,,,,,0,48,48,99,1,,,,,,,,,,,,,,,,,,,,,,,,
,,,,,,,,,,,,l,Incorrect,,,,,,t2.png,t3.png,1,0.909,19,female,2020-08-28_23h38.59.022,torte-2b,2020.1.3,MacIntel,60,13449,0.716,,,,,,,,,,,,,,,,,,,,,,,,,,,,,,,,,,,,,0,49,49,74,1,,,,,,,,,,,,,,,,,,,,,,,,
,,,,,,,,,,,,l,Incorrect,,,,,,t1.png,t2.png,1,0.90025,19,female,2020-08-28_23h38.59.022,torte-2b,2020.1.3,MacIntel,60,13449,0.758,,,,,,,,,,,,,,,,,,,,,,,,,,,,,,,,,,,,,0,50,50,72,1,,,,,,,,,,,,,,,,,,,,,,,,
,,,,,,,,,,,,a,Correct!,,,,,,t4.png,t4.png,0,0.98115,19,female,2020-08-28_23h38.59.022,torte-2b,2020.1.3,MacIntel,60,13449,0.857,,,,,,,,,,,,,,,,,,,,,,,,,,,,,,,,,,,,,0,51,51,90,1,,,,,,,,,,,,,,,,,,,,,,,,
,,,,,,,,,,,,l,Incorrect,,,,,,t3.png,t4.png,1,0.909,19,female,2020-08-28_23h38.59.022,torte-2b,2020.1.3,MacIntel,60,13449,0.448,,,,,,,,,,,,,,,,,,,,,,,,,,,,,,,,,,,,,0,52,52,89,1,,,,,,,,,,,,,,,,,,,,,,,,
,,,,,,,,,,,,a,Correct!,,,,,,t3.png,t2.png,1,0.909,19,female,2020-08-28_23h38.59.022,torte-2b,2020.1.3,MacIntel,60,13449,0.733,,,,,,,,,,,,,,,,,,,,,,,,,,,,,,,,,,,,,0,53,53,3,1,,,,,,,,,,,,,,,,,,,,,,,,
,,,,,,,,,,,,l,Incorrect,,,,,,t2.png,t3.png,1,0.90855,19,female,2020-08-28_23h38.59.022,torte-2b,2020.1.3,MacIntel,60,13449,0.814,,,,,,,,,,,,,,,,,,,,,,,,,,,,,,,,,,,,,0,54,54,68,1,,,,,,,,,,,,,,,,,,,,,,,,
,,,,,,,,,,,,a,Correct!,,,,,,t2.png,t1.png,1,0.9,19,female,2020-08-28_23h38.59.022,torte-2b,2020.1.3,MacIntel,60,13449,0.635,,,,,,,,,,,,,,,,,,,,,,,,,,,,,,,,,,,,,0,55,55,118,1,,,,,,,,,,,,,,,,,,,,,,,,
,,,,,,,,,,,,l,Correct!,,,,,,t2.png,t4.png,2,0.059078,19,female,2020-08-28_23h38.59.022,torte-2b,2020.1.3,MacIntel,60,13449,0.817,,,,,,,,,,,,,,,,,,,,,,,,,,,,,,,,,,,,,0,56,56,77,1,,,,,,,,,,,,,,,,,,,,,,,,
,,,,,,,,,,,,a,Incorrect,,,,,,t5.png,t2.png,3,0.0000131,19,female,2020-08-28_23h38.59.022,torte-2b,2020.1.3,MacIntel,60,13449,1.008,,,,,,,,,,,,,,,,,,,,,,,,,,,,,,,,,,,,,0,57,57,98,1,,,,,,,,,,,,,,,,,,,,,,,,
,,,,,,,,,,,,a,Correct!,,,,,,t3.png,t2.png,1,0.90855,19,female,2020-08-28_23h38.59.022,torte-2b,2020.1.3,MacIntel,60,13449,1.615,,,,,,,,,,,,,,,,,,,,,,,,,,,,,,,,,,,,,0,58,58,53,1,,,,,,,,,,,,,,,,,,,,,,,,
,,,,,,,,,,,,l,Correct!,,,,,,t1.png,t4.png,3,0.0000131,19,female,2020-08-28_23h38.59.022,torte-2b,2020.1.3,MacIntel,60,13449,0.899,,,,,,,,,,,,,,,,,,,,,,,,,,,,,,,,,,,,,0,59,59,92,1,,,,,,,,,,,,,,,,,,,,,,,,
,,,,,,,,,,,,a,Correct!,,,,,,t4.png,t4.png,0,0.98115,19,female,2020-08-28_23h38.59.022,torte-2b,2020.1.3,MacIntel,60,13449,1.532,,,,,,,,,,,,,,,,,,,,,,,,,,,,,,,,,,,,,0,60,60,79,1,,,,,,,,,,,,,,,,,,,,,,,,
,,,,,,,,,,,,l,Correct!,,,,,,t1.png,t3.png,2,0.056466,19,female,2020-08-28_23h38.59.022,torte-2b,2020.1.3,MacIntel,60,13449,1.282,,,,,,,,,,,,,,,,,,,,,,,,,,,,,,,,,,,,,0,61,61,63,1,,,,,,,,,,,,,,,,,,,,,,,,
,,,,,,,,,,,,a,Incorrect,,,,,,t5.png,t2.png,3,0.0000131,19,female,2020-08-28_23h38.59.022,torte-2b,2020.1.3,MacIntel,60,13449,0.924,,,,,,,,,,,,,,,,,,,,,,,,,,,,,,,,,,,,,0,62,62,119,1,,,,,,,,,,,,,,,,,,,,,,,,
,,,,,,,,,,,,a,Incorrect,,,,,,t4.png,t1.png,3,0.0000131,19,female,2020-08-28_23h38.59.022,torte-2b,2020.1.3,MacIntel,60,13449,1.151,,,,,,,,,,,,,,,,,,,,,,,,,,,,,,,,,,,,,0,63,63,13,1,,,,,,,,,,,,,,,,,,,,,,,,
,,,,,,,,,,,,a,Incorrect,,,,,,t3.png,t1.png,2,0.056466,19,female,2020-08-28_23h38.59.022,torte-2b,2020.1.3,MacIntel,60,13449,1.318,,,,,,,,,,,,,,,,,,,,,,,,,,,,,,,,,,,,,0,64,64,29,1,,,,,,,,,,,,,,,,,,,,,,,,
,,,,,,,,,,,,l,Correct!,,,,,,t2.png,t5.png,3,0.0000131,19,female,2020-08-28_23h38.59.022,torte-2b,2020.1.3,MacIntel,60,13449,2.39,,,,,,,,,,,,,,,,,,,,,,,,,,,,,,,,,,,,,0,65,65,8,1,,,,,,,,,,,,,,,,,,,,,,,,
,,,,,,,,,,,,,Too slow :(,,,,,,t5.png,t3.png,2,0.056466,19,female,2020-08-28_23h38.59.022,torte-2b,2020.1.3,MacIntel,60,13449,,,,,,,,,,,,,,,,,,,,,,,,,,,,,,,,,,,,,,0,66,66,108,1,,,,,,,,,,,,,,,,,,,,,,,,
,,,,,,,,,,,,l,Correct!,,,,,,t3.png,t5.png,2,0.056466,19,female,2020-08-28_23h38.59.022,torte-2b,2020.1.3,MacIntel,60,13449,1.383,,,,,,,,,,,,,,,,,,,,,,,,,,,,,,,,,,,,,0,67,67,44,1,,,,,,,,,,,,,,,,,,,,,,,,
,,,,,,,,,,,,,Too slow :(,,,,,,t5.png,t5.png,0,0.97829,19,female,2020-08-28_23h38.59.022,torte-2b,2020.1.3,MacIntel,60,13449,,,,,,,,,,,,,,,,,,,,,,,,,,,,,,,,,,,,,,0,68,68,70,1,,,,,,,,,,,,,,,,,,,,,,,,
,,,,,,,,,,,,l,Correct!,,,,,,t3.png,t5.png,2,0.0565,19,female,2020-08-28_23h38.59.022,torte-2b,2020.1.3,MacIntel,60,13449,1.869,,,,,,,,,,,,,,,,,,,,,,,,,,,,,,,,,,,,,0,69,69,83,1,,,,,,,,,,,,,,,,,,,,,,,,
,,,,,,,,,,,,,Too slow :(,,,,,,t5.png,t4.png,1,0.9,19,female,2020-08-28_23h38.59.022,torte-2b,2020.1.3,MacIntel,60,13449,,,,,,,,,,,,,,,,,,,,,,,,,,,,,,,,,,,,,,0,70,70,49,1,,,,,,,,,,,,,,,,,,,,,,,,
,,,,,,,,,,,,a,Incorrect,,,,,,t5.png,t2.png,3,0.0000131,19,female,2020-08-28_23h38.59.022,torte-2b,2020.1.3,MacIntel,60,13449,1.048,,,,,,,,,,,,,,,,,,,,,,,,,,,,,,,,,,,,,0,71,71,116,1,,,,,,,,,,,,,,,,,,,,,,,,
,,,,,,,,,,,,a,Incorrect,,,,,,t4.png,t2.png,2,0.0591,19,female,2020-08-28_23h38.59.022,torte-2b,2020.1.3,MacIntel,60,13449,1.267,,,,,,,,,,,,,,,,,,,,,,,,,,,,,,,,,,,,,0,72,72,36,1,,,,,,,,,,,,,,,,,,,,,,,,
,,,,,,,,,,,,,Too slow :(,,,,,,t2.png,t3.png,1,0.90855,19,female,2020-08-28_23h38.59.022,torte-2b,2020.1.3,MacIntel,60,13449,,,,,,,,,,,,,,,,,,,,,,,,,,,,,,,,,,,,,,0,73,73,10,1,,,,,,,,,,,,,,,,,,,,,,,,
,,,,,,,,,,,,l,Correct!,,,,,,t2.png,t4.png,2,0.059078,19,female,2020-08-28_23h38.59.022,torte-2b,2020.1.3,MacIntel,60,13449,1.136,,,,,,,,,,,,,,,,,,,,,,,,,,,,,,,,,,,,,0,74,74,11,1,,,,,,,,,,,,,,,,,,,,,,,,
,,,,,,,,,,,,l,Incorrect,,,,,,t5.png,t4.png,1,0.9,19,female,2020-08-28_23h38.59.022,torte-2b,2020.1.3,MacIntel,60,13449,2.402,,,,,,,,,,,,,,,,,,,,,,,,,,,,,,,,,,,,,0,75,75,76,1,,,,,,,,,,,,,,,,,,,,,,,,
,,,,,,,,,,,,,Too slow :(,,,,,,t4.png,t2.png,2,0.059078,19,female,2020-08-28_23h38.59.022,torte-2b,2020.1.3,MacIntel,60,13449,,,,,,,,,,,,,,,,,,,,,,,,,,,,,,,,,,,,,,0,76,76,109,1,,,,,,,,,,,,,,,,,,,,,,,,
,,,,,,,,,,,,a,Incorrect,,,,,,t4.png,t2.png,2,0.059078,19,female,2020-08-28_23h38.59.022,torte-2b,2020.1.3,MacIntel,60,13449,0.653,,,,,,,,,,,,,,,,,,,,,,,,,,,,,,,,,,,,,0,77,77,110,1,,,,,,,,,,,,,,,,,,,,,,,,
,,,,,,,,,,,,l,Incorrect,,,,,,t2.png,t2.png,0,0.981,19,female,2020-08-28_23h38.59.022,torte-2b,2020.1.3,MacIntel,60,13449,0.783,,,,,,,,,,,,,,,,,,,,,,,,,,,,,,,,,,,,,0,78,78,101,1,,,,,,,,,,,,,,,,,,,,,,,,
,,,,,,,,,,,,a,Incorrect,,,,,,t5.png,t3.png,2,0.056466,19,female,2020-08-28_23h38.59.022,torte-2b,2020.1.3,MacIntel,60,13449,0.949,,,,,,,,,,,,,,,,,,,,,,,,,,,,,,,,,,,,,0,79,79,38,1,,,,,,,,,,,,,,,,,,,,,,,,
,,,,,,,,,,,,a,Correct!,,,,,,t4.png,t5.png,1,0.90025,19,female,2020-08-28_23h38.59.022,torte-2b,2020.1.3,MacIntel,60,13449,1.007,,,,,,,,,,,,,,,,,,,,,,,,,,,,,,,,,,,,,0,80,80,47,1,,,,,,,,,,,,,,,,,,,,,,,,
,,,,,,,,,,,,l,Correct!,,,,,,t1.png,t3.png,2,0.056466,19,female,2020-08-28_23h38.59.022,torte-2b,2020.1.3,MacIntel,60,13449,0.589,,,,,,,,,,,,,,,,,,,,,,,,,,,,,,,,,,,,,0,81,81,60,1,,,,,,,,,,,,,,,,,,,,,,,,
,,,,,,,,,,,,a,Correct!,,,,,,t4.png,t3.png,1,0.90855,19,female,2020-08-28_23h38.59.022,torte-2b,2020.1.3,MacIntel,60,13449,1.499,,,,,,,,,,,,,,,,,,,,,,,,,,,,,,,,,,,,,0,82,82,45,1,,,,,,,,,,,,,,,,,,,,,,,,
,,,,,,,,,,,,l,Incorrect,,,,,,t2.png,t2.png,0,0.98115,19,female,2020-08-28_23h38.59.022,torte-2b,2020.1.3,MacIntel,60,13449,1.351,,,,,,,,,,,,,,,,,,,,,,,,,,,,,,,,,,,,,0,83,83,2,1,,,,,,,,,,,,,,,,,,,,,,,,
,,,,,,,,,,,,l,Correct!,,,,,,t1.png,t5.png,4,9.55E-11,19,female,2020-08-28_23h38.59.022,torte-2b,2020.1.3,MacIntel,60,13449,1.723,,,,,,,,,,,,,,,,,,,,,,,,,,,,,,,,,,,,,0,84,84,41,1,,,,,,,,,,,,,,,,,,,,,,,,
,,,,,,,,,,,,,Too slow :(,,,,,,t1.png,t2.png,1,0.90025,19,female,2020-08-28_23h38.59.022,torte-2b,2020.1.3,MacIntel,60,13449,,,,,,,,,,,,,,,,,,,,,,,,,,,,,,,,,,,,,,0,85,85,33,1,,,,,,,,,,,,,,,,,,,,,,,,
,,,,,,,,,,,,l,Correct!,,,,,,t1.png,t5.png,4,9.55E-11,19,female,2020-08-28_23h38.59.022,torte-2b,2020.1.3,MacIntel,60,13449,1.266,,,,,,,,,,,,,,,,,,,,,,,,,,,,,,,,,,,,,0,86,86,12,1,,,,,,,,,,,,,,,,,,,,,,,,
,,,,,,,,,,,,l,Incorrect,,,,,,t5.png,t4.png,1,0.90025,19,female,2020-08-28_23h38.59.022,torte-2b,2020.1.3,MacIntel,60,13449,0.866,,,,,,,,,,,,,,,,,,,,,,,,,,,,,,,,,,,,,0,87,87,27,1,,,,,,,,,,,,,,,,,,,,,,,,
,,,,,,,,,,,,l,Correct!,,,,,,t1.png,t3.png,2,0.056466,19,female,2020-08-28_23h38.59.022,torte-2b,2020.1.3,MacIntel,60,13449,0.554,,,,,,,,,,,,,,,,,,,,,,,,,,,,,,,,,,,,,0,88,88,87,1,,,,,,,,,,,,,,,,,,,,,,,,
,,,,,,,,,,,,,Too slow :(,,,,,,t4.png,t1.png,3,0.0000131,19,female,2020-08-28_23h38.59.022,torte-2b,2020.1.3,MacIntel,60,13449,,,,,,,,,,,,,,,,,,,,,,,,,,,,,,,,,,,,,,0,89,89,93,1,,,,,,,,,,,,,,,,,,,,,,,,
,,,,,,,,,,,,a,Incorrect,,,,,,t5.png,t1.png,4,9.55E-11,19,female,2020-08-28_23h38.59.022,torte-2b,2020.1.3,MacIntel,60,13449,0.522,,,,,,,,,,,,,,,,,,,,,,,,,,,,,,,,,,,,,0,90,90,100,1,,,,,,,,,,,,,,,,,,,,,,,,
,,,,,,,,,,,,,Too slow :(,,,,,,t4.png,t3.png,1,0.909,19,female,2020-08-28_23h38.59.022,torte-2b,2020.1.3,MacIntel,60,13449,,,,,,,,,,,,,,,,,,,,,,,,,,,,,,,,,,,,,,0,91,91,20,1,,,,,,,,,,,,,,,,,,,,,,,,
,,,,,,,,,,,,a,Correct!,,,,,,t5.png,t4.png,1,0.90025,19,female,2020-08-28_23h38.59.022,torte-2b,2020.1.3,MacIntel,60,13449,0.555,,,,,,,,,,,,,,,,,,,,,,,,,,,,,,,,,,,,,0,92,92,34,1,,,,,,,,,,,,,,,,,,,,,,,,
,,,,,,,,,,,,a,Correct!,,,,,,t3.png,t2.png,1,0.90855,19,female,2020-08-28_23h38.59.022,torte-2b,2020.1.3,MacIntel,60,13449,1.433,,,,,,,,,,,,,,,,,,,,,,,,,,,,,,,,,,,,,0,93,93,97,1,,,,,,,,,,,,,,,,,,,,,,,,
,,,,,,,,,,,,l,Incorrect,,,,,,t5.png,t5.png,0,0.97829,19,female,2020-08-28_23h38.59.022,torte-2b,2020.1.3,MacIntel,60,13449,0.904,,,,,,,,,,,,,,,,,,,,,,,,,,,,,,,,,,,,,0,94,94,73,1,,,,,,,,,,,,,,,,,,,,,,,,
,,,,,,,,,,,,l,Correct!,,,,,,t3.png,t5.png,2,0.056466,19,female,2020-08-28_23h38.59.022,torte-2b,2020.1.3,MacIntel,60,13449,1.455,,,,,,,,,,,,,,,,,,,,,,,,,,,,,,,,,,,,,0,95,95,6,1,,,,,,,,,,,,,,,,,,,,,,,,
,,,,,,,,,,,,l,Incorrect,,,,,,t1.png,t1.png,0,0.97829,19,female,2020-08-28_23h38.59.022,torte-2b,2020.1.3,MacIntel,60,13449,1.006,,,,,,,,,,,,,,,,,,,,,,,,,,,,,,,,,,,,,0,96,96,9,1,,,,,,,,,,,,,,,,,,,,,,,,
,,,,,,,,,,,,a,Incorrect,,,,,,t4.png,t2.png,2,0.059078,19,female,2020-08-28_23h38.59.022,torte-2b,2020.1.3,MacIntel,60,13449,0.703,,,,,,,,,,,,,,,,,,,,,,,,,,,,,,,,,,,,,0,97,97,88,1,,,,,,,,,,,,,,,,,,,,,,,,
,,,,,,,,,,,,a,Correct!,,,,,,t1.png,t1.png,0,0.97829,19,female,2020-08-28_23h38.59.022,torte-2b,2020.1.3,MacIntel,60,13449,0.805,,,,,,,,,,,,,,,,,,,,,,,,,,,,,,,,,,,,,0,98,98,67,1,,,,,,,,,,,,,,,,,,,,,,,,
,,,,,,,,,,,,l,Incorrect,,,,,,t5.png,t5.png,0,0.978,19,female,2020-08-28_23h38.59.022,torte-2b,2020.1.3,MacIntel,60,13449,1.999,,,,,,,,,,,,,,,,,,,,,,,,,,,,,,,,,,,,,0,99,99,117,1,,,,,,,,,,,,,,,,,,,,,,,,
,,,,,,,,,,,,a,Incorrect,,,,,,t5.png,t1.png,4,9.55E-11,19,female,2020-08-28_23h38.59.022,torte-2b,2020.1.3,MacIntel,60,13449,0.5,,,,,,,,,,,,,,,,,,,,,,,,,,,,,,,,,,,,,0,100,100,22,1,,,,,,,,,,,,,,,,,,,,,,,,
,,,,,,,,,,,,a,Incorrect,,,,,,t5.png,t3.png,2,0.0565,19,female,2020-08-28_23h38.59.022,torte-2b,2020.1.3,MacIntel,60,13449,0.598,,,,,,,,,,,,,,,,,,,,,,,,,,,,,,,,,,,,,0,101,101,39,1,,,,,,,,,,,,,,,,,,,,,,,,
,,,,,,,,,,,,l,Incorrect,,,,,,t2.png,t3.png,1,0.90855,19,female,2020-08-28_23h38.59.022,torte-2b,2020.1.3,MacIntel,60,13449,0.948,,,,,,,,,,,,,,,,,,,,,,,,,,,,,,,,,,,,,0,102,102,65,1,,,,,,,,,,,,,,,,,,,,,,,,
,,,,,,,,,,,,a,Correct!,,,,,,t1.png,t1.png,0,0.978,19,female,2020-08-28_23h38.59.022,torte-2b,2020.1.3,MacIntel,60,13449,0.616,,,,,,,,,,,,,,,,,,,,,,,,,,,,,,,,,,,,,0,103,103,28,1,,,,,,,,,,,,,,,,,,,,,,,,
,,,,,,,,,,,,l,Correct!,,,,,,t2.png,t5.png,3,0.0000131,19,female,2020-08-28_23h38.59.022,torte-2b,2020.1.3,MacIntel,60,13449,0.442,,,,,,,,,,,,,,,,,,,,,,,,,,,,,,,,,,,,,0,104,104,95,1,,,,,,,,,,,,,,,,,,,,,,,,
,,,,,,,,,,,,a,Correct!,,,,,,t2.png,t1.png,1,0.90025,19,female,2020-08-28_23h38.59.022,torte-2b,2020.1.3,MacIntel,60,13449,0.65,,,,,,,,,,,,,,,,,,,,,,,,,,,,,,,,,,,,,0,105,105,5,1,,,,,,,,,,,,,,,,,,,,,,,,
,,,,,,,,,,,,l,Incorrect,,,,,,t2.png,t2.png,0,0.98115,19,female,2020-08-28_23h38.59.022,torte-2b,2020.1.3,MacIntel,60,13449,1.273,,,,,,,,,,,,,,,,,,,,,,,,,,,,,,,,,,,,,0,106,106,59,1,,,,,,,,,,,,,,,,,,,,,,,,
,,,,,,,,,,,,a,Correct!,,,,,,t2.png,t1.png,1,0.90025,19,female,2020-08-28_23h38.59.022,torte-2b,2020.1.3,MacIntel,60,13449,1.332,,,,,,,,,,,,,,,,,,,,,,,,,,,,,,,,,,,,,0,107,107,4,1,,,,,,,,,,,,,,,,,,,,,,,,
,,,,,,,,,,,,l,Incorrect,,,,,,t3.png,t4.png,1,0.90855,19,female,2020-08-28_23h38.59.022,torte-2b,2020.1.3,MacIntel,60,13449,0.721,,,,,,,,,,,,,,,,,,,,,,,,,,,,,,,,,,,,,0,108,108,84,1,,,,,,,,,,,,,,,,,,,,,,,,
,,,,,,,,,,,,l,Incorrect,,,,,,t1.png,t2.png,1,0.90025,19,female,2020-08-28_23h38.59.022,torte-2b,2020.1.3,MacIntel,60,13449,0.898,,,,,,,,,,,,,,,,,,,,,,,,,,,,,,,,,,,,,0,109,109,112,1,,,,,,,,,,,,,,,,,,,,,,,,
,,,,,,,,,,,,l,Incorrect,,,,,,t5.png,t5.png,0,0.97829,19,female,2020-08-28_23h38.59.022,torte-2b,2020.1.3,MacIntel,60,13449,0.803,,,,,,,,,,,,,,,,,,,,,,,,,,,,,,,,,,,,,0,110,110,25,1,,,,,,,,,,,,,,,,,,,,,,,,
,,,,,,,,,,,,l,Correct!,,,,,,t2.png,t5.png,3,0.0000131,19,female,2020-08-28_23h38.59.022,torte-2b,2020.1.3,MacIntel,60,13449,0.499,,,,,,,,,,,,,,,,,,,,,,,,,,,,,,,,,,,,,0,111,111,40,1,,,,,,,,,,,,,,,,,,,,,,,,
,,,,,,,,,,,,l,Incorrect,,,,,,t1.png,t1.png,0,0.978,19,female,2020-08-28_23h38.59.022,torte-2b,2020.1.3,MacIntel,60,13449,0.819,,,,,,,,,,,,,,,,,,,,,,,,,,,,,,,,,,,,,0,112,112,54,1,,,,,,,,,,,,,,,,,,,,,,,,
,,,,,,,,,,,,a,Correct!,,,,,,t3.png,t2.png,1,0.909,19,female,2020-08-28_23h38.59.022,torte-2b,2020.1.3,MacIntel,60,13449,0.983,,,,,,,,,,,,,,,,,,,,,,,,,,,,,,,,,,,,,0,113,113,23,1,,,,,,,,,,,,,,,,,,,,,,,,
,,,,,,,,,,,,l,Incorrect,,,,,,t3.png,t4.png,1,0.90855,19,female,2020-08-28_23h38.59.022,torte-2b,2020.1.3,MacIntel,60,13449,0.559,,,,,,,,,,,,,,,,,,,,,,,,,,,,,,,,,,,,,0,114,114,96,1,,,,,,,,,,,,,,,,,,,,,,,,
,,,,,,,,,,,,a,Correct!,,,,,,t4.png,t3.png,1,0.90855,19,female,2020-08-28_23h38.59.022,torte-2b,2020.1.3,MacIntel,60,13449,0.686,,,,,,,,,,,,,,,,,,,,,,,,,,,,,,,,,,,,,0,115,115,35,1,,,,,,,,,,,,,,,,,,,,,,,,
,,,,,,,,,,,,a,Correct!,,,,,,t2.png,t1.png,1,0.90025,19,female,2020-08-28_23h38.59.022,torte-2b,2020.1.3,MacIntel,60,13449,0.599,,,,,,,,,,,,,,,,,,,,,,,,,,,,,,,,,,,,,0,116,116,19,1,,,,,,,,,,,,,,,,,,,,,,,,
,,,,,,,,,,,,l,Incorrect,,,,,,t5.png,t5.png,0,0.97829,19,female,2020-08-28_23h38.59.022,torte-2b,2020.1.3,MacIntel,60,13449,1.083,,,,,,,,,,,,,,,,,,,,,,,,,,,,,,,,,,,,,0,117,117,94,1,,,,,,,,,,,,,,,,,,,,,,,,
,,,,,,,,,,,,l,Incorrect,,,,,,t2.png,t2.png,0,0.98115,19,female,2020-08-28_23h38.59.022,torte-2b,2020.1.3,MacIntel,60,13449,1.532,,,,,,,,,,,,,,,,,,,,,,,,,,,,,,,,,,,,,0,118,118,57,1,,,,,,,,,,,,,,,,,,,,,,,,
,,,,,,,,,,,,a,Incorrect,,,,,,t4.png,t1.png,3,0.0000131,19,female,2020-08-28_23h38.59.022,torte-2b,2020.1.3,MacIntel,60,13449,1.167,,,,,,,,,,,,,,,,,,,,,,,,,,,,,,,,,,,,,0,119,119,42,1,,,,,,,,,,,,,,,,,,,,,,,,
,,,,,,,,,,,,,,,,,,,,,,,19,female,2020-08-28_23h38.59.022,torte-2b,2020.1.3,MacIntel,60,13449,,space,1.531,,,,,,,,,,,,,,,,,,,,,,,,,,,,,,,,,,,,,,,,-102,175,1,0,0,s1,53,24,1,0,0,t2,219,-99,1,0,0,proceed,space,0.531,space,0.535,d,0.837
