key_resp_8.keys,key_resp_8.rt,key_resp_9.keys,key_resp_9.rt,key_resp_10.keys,key_resp_10.rt,key_resp_11.keys,key_resp_11.rt,key_resp_2.keys,key_resp_2.rt,key_resp_3.keys,key_resp_3.rt,key_resp.keys,Feedback,train.thisRepN,train.thisTrialN,train.thisN,train.thisIndex,train.ran,torta_sx,torta_dx,difference,probability,age,gender,date,expName,psychopyVersion,OS,frameRate,participant,key_resp.rt,key_resp_15.keys,key_resp_15.rt,key_resp_6.keys,key_resp_6.rt,test1.thisRepN,test1.thisTrialN,test1.thisN,test1.thisIndex,test1.ran,key_resp_4.keys,key_resp_4.rt,key_resp_5.keys,back1.thisRepN,back1.thisTrialN,back1.thisN,back1.thisIndex,back1.ran,letter,key_resp_5.rt,back2.thisRepN,back2.thisTrialN,back2.thisN,back2.thisIndex,back2.ran,back3.thisRepN,back3.thisTrialN,back3.thisN,back3.thisIndex,back3.ran,back4.thisRepN,back4.thisTrialN,back4.thisN,back4.thisIndex,back4.ran,key_resp_7.keys,key_resp_7.rt,test2.thisRepN,test2.thisTrialN,test2.thisN,test2.thisIndex,test2.ran,mouse.x,mouse.y,mouse.leftButton,mouse.midButton,mouse.rightButton,mouse.clicked_name,mouse_2.x,mouse_2.y,mouse_2.leftButton,mouse_2.midButton,mouse_2.rightButton,mouse_2.clicked_name,mouse_3.x,mouse_3.y,mouse_3.leftButton,mouse_3.midButton,mouse_3.rightButton,mouse_3.clicked_name,key_resp_12.keys,key_resp_12.rt,key_resp_13.keys,key_resp_13.rt,key_resp_14.keys,key_resp_14.rt
space,2.392,space,0.463,space,0.407,space,0.232,space,15.83,b,23.821,,Too slow :(,0,0,0,116,1,t5.png,t4.png,1,0.90025,20,female,2020-09-23_22h39.05.347,torte-2b,2020.1.3,Win32,60,13441,,,,,,,,,,,,,,,,,,,,,,,,,,,,,,,,,,,,,,,,,,,,,,,,,,,,,,,,,,,,,,,,,,
,,,,,,,,,,,,l,Incorrect,0,1,1,84,1,t1.png,t1.png,0,0.97829,20,female,2020-09-23_22h39.05.347,torte-2b,2020.1.3,Win32,60,13441,2.288,,,,,,,,,,,,,,,,,,,,,,,,,,,,,,,,,,,,,,,,,,,,,,,,,,,,,,,,,,,,,,,,,
,,,,,,,,,,,,l,Correct!,0,2,2,55,1,t2.png,t4.png,2,0.059078,20,female,2020-09-23_22h39.05.347,torte-2b,2020.1.3,Win32,60,13441,0.686,,,,,,,,,,,,,,,,,,,,,,,,,,,,,,,,,,,,,,,,,,,,,,,,,,,,,,,,,,,,,,,,,
,,,,,,,,,,,,a,Correct!,0,3,3,71,1,t5.png,t5.png,0,0.97829,20,female,2020-09-23_22h39.05.347,torte-2b,2020.1.3,Win32,60,13441,0.335,,,,,,,,,,,,,,,,,,,,,,,,,,,,,,,,,,,,,,,,,,,,,,,,,,,,,,,,,,,,,,,,,
,,,,,,,,,,,,a,Incorrect,0,4,4,27,1,t3.png,t1.png,2,0.0565,20,female,2020-09-23_22h39.05.347,torte-2b,2020.1.3,Win32,60,13441,1.12,,,,,,,,,,,,,,,,,,,,,,,,,,,,,,,,,,,,,,,,,,,,,,,,,,,,,,,,,,,,,,,,,
,,,,,,,,,,,,l,Correct!,0,5,5,35,1,t1.png,t4.png,3,0.0000131,20,female,2020-09-23_22h39.05.347,torte-2b,2020.1.3,Win32,60,13441,0.486,,,,,,,,,,,,,,,,,,,,,,,,,,,,,,,,,,,,,,,,,,,,,,,,,,,,,,,,,,,,,,,,,
,,,,,,,,,,,,l,Incorrect,0,6,6,13,1,t5.png,t5.png,0,0.97829,20,female,2020-09-23_22h39.05.347,torte-2b,2020.1.3,Win32,60,13441,0.584,,,,,,,,,,,,,,,,,,,,,,,,,,,,,,,,,,,,,,,,,,,,,,,,,,,,,,,,,,,,,,,,,
,,,,,,,,,,,,a,Correct!,0,7,7,65,1,t4.png,t5.png,1,0.90025,20,female,2020-09-23_22h39.05.347,torte-2b,2020.1.3,Win32,60,13441,0.284,,,,,,,,,,,,,,,,,,,,,,,,,,,,,,,,,,,,,,,,,,,,,,,,,,,,,,,,,,,,,,,,,
,,,,,,,,,,,,a,Correct!,0,8,8,96,1,t1.png,t1.png,0,0.97829,20,female,2020-09-23_22h39.05.347,torte-2b,2020.1.3,Win32,60,13441,0.368,,,,,,,,,,,,,,,,,,,,,,,,,,,,,,,,,,,,,,,,,,,,,,,,,,,,,,,,,,,,,,,,,
,,,,,,,,,,,,l,Incorrect,0,9,9,39,1,t3.png,t2.png,1,0.90855,20,female,2020-09-23_22h39.05.347,torte-2b,2020.1.3,Win32,60,13441,0.469,,,,,,,,,,,,,,,,,,,,,,,,,,,,,,,,,,,,,,,,,,,,,,,,,,,,,,,,,,,,,,,,,
,,,,,,,,,,,,l,Incorrect,0,10,10,79,1,t3.png,t2.png,1,0.909,20,female,2020-09-23_22h39.05.347,torte-2b,2020.1.3,Win32,60,13441,0.301,,,,,,,,,,,,,,,,,,,,,,,,,,,,,,,,,,,,,,,,,,,,,,,,,,,,,,,,,,,,,,,,,
,,,,,,,,,,,,l,Incorrect,0,11,11,8,1,t3.png,t2.png,1,0.90855,20,female,2020-09-23_22h39.05.347,torte-2b,2020.1.3,Win32,60,13441,0.285,,,,,,,,,,,,,,,,,,,,,,,,,,,,,,,,,,,,,,,,,,,,,,,,,,,,,,,,,,,,,,,,,
,,,,,,,,,,,,a,Incorrect,0,12,12,50,1,t5.png,t1.png,4,9.55E-11,20,female,2020-09-23_22h39.05.347,torte-2b,2020.1.3,Win32,60,13441,0.418,,,,,,,,,,,,,,,,,,,,,,,,,,,,,,,,,,,,,,,,,,,,,,,,,,,,,,,,,,,,,,,,,
,,,,,,,,,,,,a,Correct!,0,13,13,62,1,t5.png,t5.png,0,0.978,20,female,2020-09-23_22h39.05.347,torte-2b,2020.1.3,Win32,60,13441,0.252,,,,,,,,,,,,,,,,,,,,,,,,,,,,,,,,,,,,,,,,,,,,,,,,,,,,,,,,,,,,,,,,,
,,,,,,,,,,,,a,Correct!,0,14,14,29,1,t5.png,t5.png,0,0.97829,20,female,2020-09-23_22h39.05.347,torte-2b,2020.1.3,Win32,60,13441,0.202,,,,,,,,,,,,,,,,,,,,,,,,,,,,,,,,,,,,,,,,,,,,,,,,,,,,,,,,,,,,,,,,,
,,,,,,,,,,,,a,Incorrect,0,15,15,46,1,t4.png,t2.png,2,0.059078,20,female,2020-09-23_22h39.05.347,torte-2b,2020.1.3,Win32,60,13441,0.301,,,,,,,,,,,,,,,,,,,,,,,,,,,,,,,,,,,,,,,,,,,,,,,,,,,,,,,,,,,,,,,,,
,,,,,,,,,,,,l,Incorrect,0,16,16,97,1,t5.png,t5.png,0,0.97829,20,female,2020-09-23_22h39.05.347,torte-2b,2020.1.3,Win32,60,13441,0.268,,,,,,,,,,,,,,,,,,,,,,,,,,,,,,,,,,,,,,,,,,,,,,,,,,,,,,,,,,,,,,,,,
,,,,,,,,,,,,a,Correct!,0,17,17,28,1,t2.png,t3.png,1,0.909,20,female,2020-09-23_22h39.05.347,torte-2b,2020.1.3,Win32,60,13441,0.285,,,,,,,,,,,,,,,,,,,,,,,,,,,,,,,,,,,,,,,,,,,,,,,,,,,,,,,,,,,,,,,,,
,,,,,,,,,,,,l,Incorrect,0,18,18,49,1,t4.png,t5.png,1,0.9,20,female,2020-09-23_22h39.05.347,torte-2b,2020.1.3,Win32,60,13441,0.518,,,,,,,,,,,,,,,,,,,,,,,,,,,,,,,,,,,,,,,,,,,,,,,,,,,,,,,,,,,,,,,,,
,,,,,,,,,,,,a,Correct!,0,19,19,66,1,t4.png,t5.png,1,0.9,20,female,2020-09-23_22h39.05.347,torte-2b,2020.1.3,Win32,60,13441,0.285,,,,,,,,,,,,,,,,,,,,,,,,,,,,,,,,,,,,,,,,,,,,,,,,,,,,,,,,,,,,,,,,,
,,,,,,,,,,,,l,Incorrect,0,20,20,114,1,t2.png,t3.png,1,0.90855,20,female,2020-09-23_22h39.05.347,torte-2b,2020.1.3,Win32,60,13441,0.702,,,,,,,,,,,,,,,,,,,,,,,,,,,,,,,,,,,,,,,,,,,,,,,,,,,,,,,,,,,,,,,,,
,,,,,,,,,,,,a,Incorrect,0,21,21,82,1,t5.png,t1.png,4,9.55E-11,20,female,2020-09-23_22h39.05.347,torte-2b,2020.1.3,Win32,60,13441,0.72,,,,,,,,,,,,,,,,,,,,,,,,,,,,,,,,,,,,,,,,,,,,,,,,,,,,,,,,,,,,,,,,,
,,,,,,,,,,,,l,Correct!,0,22,22,108,1,t5.png,t1.png,4,9.55E-11,20,female,2020-09-23_22h39.05.347,torte-2b,2020.1.3,Win32,60,13441,1.119,,,,,,,,,,,,,,,,,,,,,,,,,,,,,,,,,,,,,,,,,,,,,,,,,,,,,,,,,,,,,,,,,
,,,,,,,,,,,,l,Incorrect,0,23,23,18,1,t4.png,t5.png,1,0.90025,20,female,2020-09-23_22h39.05.347,torte-2b,2020.1.3,Win32,60,13441,1.487,,,,,,,,,,,,,,,,,,,,,,,,,,,,,,,,,,,,,,,,,,,,,,,,,,,,,,,,,,,,,,,,,
,,,,,,,,,,,,l,Correct!,0,24,24,60,1,t2.png,t4.png,2,0.059078,20,female,2020-09-23_22h39.05.347,torte-2b,2020.1.3,Win32,60,13441,1.203,,,,,,,,,,,,,,,,,,,,,,,,,,,,,,,,,,,,,,,,,,,,,,,,,,,,,,,,,,,,,,,,,
,,,,,,,,,,,,a,Incorrect,0,25,25,43,1,t4.png,t2.png,2,0.059078,20,female,2020-09-23_22h39.05.347,torte-2b,2020.1.3,Win32,60,13441,0.903,,,,,,,,,,,,,,,,,,,,,,,,,,,,,,,,,,,,,,,,,,,,,,,,,,,,,,,,,,,,,,,,,
,,,,,,,,,,,,l,Correct!,0,26,26,102,1,t4.png,t2.png,2,0.059078,20,female,2020-09-23_22h39.05.347,torte-2b,2020.1.3,Win32,60,13441,1.337,,,,,,,,,,,,,,,,,,,,,,,,,,,,,,,,,,,,,,,,,,,,,,,,,,,,,,,,,,,,,,,,,
,,,,,,,,,,,,a,Correct!,0,27,27,32,1,t4.png,t5.png,1,0.90025,20,female,2020-09-23_22h39.05.347,torte-2b,2020.1.3,Win32,60,13441,1.638,,,,,,,,,,,,,,,,,,,,,,,,,,,,,,,,,,,,,,,,,,,,,,,,,,,,,,,,,,,,,,,,,
,,,,,,,,,,,,a,Correct!,0,28,28,21,1,t5.png,t4.png,1,0.90025,20,female,2020-09-23_22h39.05.347,torte-2b,2020.1.3,Win32,60,13441,1.254,,,,,,,,,,,,,,,,,,,,,,,,,,,,,,,,,,,,,,,,,,,,,,,,,,,,,,,,,,,,,,,,,
,,,,,,,,,,,,l,Correct!,0,29,29,56,1,t5.png,t1.png,4,9.55E-11,20,female,2020-09-23_22h39.05.347,torte-2b,2020.1.3,Win32,60,13441,0.87,,,,,,,,,,,,,,,,,,,,,,,,,,,,,,,,,,,,,,,,,,,,,,,,,,,,,,,,,,,,,,,,,
,,,,,,,,,,,,l,Correct!,0,30,30,4,1,t1.png,t5.png,4,9.55E-11,20,female,2020-09-23_22h39.05.347,torte-2b,2020.1.3,Win32,60,13441,0.769,,,,,,,,,,,,,,,,,,,,,,,,,,,,,,,,,,,,,,,,,,,,,,,,,,,,,,,,,,,,,,,,,
,,,,,,,,,,,,l,Correct!,0,31,31,99,1,t1.png,t5.png,4,9.55E-11,20,female,2020-09-23_22h39.05.347,torte-2b,2020.1.3,Win32,60,13441,0.819,,,,,,,,,,,,,,,,,,,,,,,,,,,,,,,,,,,,,,,,,,,,,,,,,,,,,,,,,,,,,,,,,
,,,,,,,,,,,,l,Correct!,0,32,32,38,1,t3.png,t1.png,2,0.056466,20,female,2020-09-23_22h39.05.347,torte-2b,2020.1.3,Win32,60,13441,0.769,,,,,,,,,,,,,,,,,,,,,,,,,,,,,,,,,,,,,,,,,,,,,,,,,,,,,,,,,,,,,,,,,
,,,,,,,,,,,,a,Correct!,0,33,33,77,1,t1.png,t1.png,0,0.97829,20,female,2020-09-23_22h39.05.347,torte-2b,2020.1.3,Win32,60,13441,0.92,,,,,,,,,,,,,,,,,,,,,,,,,,,,,,,,,,,,,,,,,,,,,,,,,,,,,,,,,,,,,,,,,
,,,,,,,,,,,,a,Correct!,0,34,34,110,1,t4.png,t5.png,1,0.90025,20,female,2020-09-23_22h39.05.347,torte-2b,2020.1.3,Win32,60,13441,1.154,,,,,,,,,,,,,,,,,,,,,,,,,,,,,,,,,,,,,,,,,,,,,,,,,,,,,,,,,,,,,,,,,
,,,,,,,,,,,,l,Correct!,0,35,35,61,1,t1.png,t4.png,3,0.0000131,20,female,2020-09-23_22h39.05.347,torte-2b,2020.1.3,Win32,60,13441,1.204,,,,,,,,,,,,,,,,,,,,,,,,,,,,,,,,,,,,,,,,,,,,,,,,,,,,,,,,,,,,,,,,,
,,,,,,,,,,,,l,Correct!,0,36,36,37,1,t1.png,t4.png,3,0.0000131,20,female,2020-09-23_22h39.05.347,torte-2b,2020.1.3,Win32,60,13441,1.019,,,,,,,,,,,,,,,,,,,,,,,,,,,,,,,,,,,,,,,,,,,,,,,,,,,,,,,,,,,,,,,,,
,,,,,,,,,,,,l,Correct!,0,37,37,0,1,t5.png,t1.png,4,9.55E-11,20,female,2020-09-23_22h39.05.347,torte-2b,2020.1.3,Win32,60,13441,0.786,,,,,,,,,,,,,,,,,,,,,,,,,,,,,,,,,,,,,,,,,,,,,,,,,,,,,,,,,,,,,,,,,
,,,,,,,,,,,,a,Correct!,0,38,38,59,1,t5.png,t4.png,1,0.9,20,female,2020-09-23_22h39.05.347,torte-2b,2020.1.3,Win32,60,13441,0.87,,,,,,,,,,,,,,,,,,,,,,,,,,,,,,,,,,,,,,,,,,,,,,,,,,,,,,,,,,,,,,,,,
,,,,,,,,,,,,l,Correct!,0,39,39,69,1,t4.png,t2.png,2,0.059078,20,female,2020-09-23_22h39.05.347,torte-2b,2020.1.3,Win32,60,13441,1.02,,,,,,,,,,,,,,,,,,,,,,,,,,,,,,,,,,,,,,,,,,,,,,,,,,,,,,,,,,,,,,,,,
,,,,,,,,,,,,l,Correct!,0,40,40,17,1,t1.png,t4.png,3,0.0000131,20,female,2020-09-23_22h39.05.347,torte-2b,2020.1.3,Win32,60,13441,1.22,,,,,,,,,,,,,,,,,,,,,,,,,,,,,,,,,,,,,,,,,,,,,,,,,,,,,,,,,,,,,,,,,
,,,,,,,,,,,,a,Correct!,0,41,41,16,1,t5.png,t4.png,1,0.9,20,female,2020-09-23_22h39.05.347,torte-2b,2020.1.3,Win32,60,13441,0.869,,,,,,,,,,,,,,,,,,,,,,,,,,,,,,,,,,,,,,,,,,,,,,,,,,,,,,,,,,,,,,,,,
,,,,,,,,,,,,a,Correct!,0,42,42,64,1,t1.png,t1.png,0,0.978,20,female,2020-09-23_22h39.05.347,torte-2b,2020.1.3,Win32,60,13441,0.769,,,,,,,,,,,,,,,,,,,,,,,,,,,,,,,,,,,,,,,,,,,,,,,,,,,,,,,,,,,,,,,,,
,,,,,,,,,,,,a,Incorrect,0,43,43,113,1,t5.png,t4.png,1,0.9,20,female,2020-09-23_22h39.05.347,torte-2b,2020.1.3,Win32,60,13441,0.736,,,,,,,,,,,,,,,,,,,,,,,,,,,,,,,,,,,,,,,,,,,,,,,,,,,,,,,,,,,,,,,,,
,,,,,,,,,,,,l,Correct!,0,44,44,24,1,t4.png,t2.png,2,0.059078,20,female,2020-09-23_22h39.05.347,torte-2b,2020.1.3,Win32,60,13441,0.902,,,,,,,,,,,,,,,,,,,,,,,,,,,,,,,,,,,,,,,,,,,,,,,,,,,,,,,,,,,,,,,,,
,,,,,,,,,,,,l,Correct!,0,45,45,14,1,t2.png,t4.png,2,0.059078,20,female,2020-09-23_22h39.05.347,torte-2b,2020.1.3,Win32,60,13441,1.02,,,,,,,,,,,,,,,,,,,,,,,,,,,,,,,,,,,,,,,,,,,,,,,,,,,,,,,,,,,,,,,,,
,,,,,,,,,,,,l,Correct!,0,46,46,87,1,t5.png,t1.png,4,9.55E-11,20,female,2020-09-23_22h39.05.347,torte-2b,2020.1.3,Win32,60,13441,0.717,,,,,,,,,,,,,,,,,,,,,,,,,,,,,,,,,,,,,,,,,,,,,,,,,,,,,,,,,,,,,,,,,
,,,,,,,,,,,,a,Correct!,0,47,47,25,1,t5.png,t5.png,0,0.97829,20,female,2020-09-23_22h39.05.347,torte-2b,2020.1.3,Win32,60,13441,0.768,,,,,,,,,,,,,,,,,,,,,,,,,,,,,,,,,,,,,,,,,,,,,,,,,,,,,,,,,,,,,,,,,
,,,,,,,,,,,,l,Correct!,0,48,48,72,1,t4.png,t2.png,2,0.059078,20,female,2020-09-23_22h39.05.347,torte-2b,2020.1.3,Win32,60,13441,0.786,,,,,,,,,,,,,,,,,,,,,,,,,,,,,,,,,,,,,,,,,,,,,,,,,,,,,,,,,,,,,,,,,
,,,,,,,,,,,,l,Correct!,0,49,49,52,1,t2.png,t4.png,2,0.059078,20,female,2020-09-23_22h39.05.347,torte-2b,2020.1.3,Win32,60,13441,0.769,,,,,,,,,,,,,,,,,,,,,,,,,,,,,,,,,,,,,,,,,,,,,,,,,,,,,,,,,,,,,,,,,
,,,,,,,,,,,,l,Incorrect,0,50,50,92,1,t2.png,t3.png,1,0.909,20,female,2020-09-23_22h39.05.347,torte-2b,2020.1.3,Win32,60,13441,0.869,,,,,,,,,,,,,,,,,,,,,,,,,,,,,,,,,,,,,,,,,,,,,,,,,,,,,,,,,,,,,,,,,
,,,,,,,,,,,,l,Correct!,0,51,51,26,1,t4.png,t2.png,2,0.0591,20,female,2020-09-23_22h39.05.347,torte-2b,2020.1.3,Win32,60,13441,0.785,,,,,,,,,,,,,,,,,,,,,,,,,,,,,,,,,,,,,,,,,,,,,,,,,,,,,,,,,,,,,,,,,
,,,,,,,,,,,,l,Correct!,0,52,52,73,1,t4.png,t2.png,2,0.059078,20,female,2020-09-23_22h39.05.347,torte-2b,2020.1.3,Win32,60,13441,0.618,,,,,,,,,,,,,,,,,,,,,,,,,,,,,,,,,,,,,,,,,,,,,,,,,,,,,,,,,,,,,,,,,
,,,,,,,,,,,,l,Correct!,0,53,53,11,1,t1.png,t4.png,3,0.0000131,20,female,2020-09-23_22h39.05.347,torte-2b,2020.1.3,Win32,60,13441,0.652,,,,,,,,,,,,,,,,,,,,,,,,,,,,,,,,,,,,,,,,,,,,,,,,,,,,,,,,,,,,,,,,,
,,,,,,,,,,,,l,Correct!,0,54,54,12,1,t5.png,t1.png,4,9.55E-11,20,female,2020-09-23_22h39.05.347,torte-2b,2020.1.3,Win32,60,13441,0.702,,,,,,,,,,,,,,,,,,,,,,,,,,,,,,,,,,,,,,,,,,,,,,,,,,,,,,,,,,,,,,,,,
,,,,,,,,,,,,a,Correct!,0,55,55,76,1,t3.png,t2.png,1,0.90855,20,female,2020-09-23_22h39.05.347,torte-2b,2020.1.3,Win32,60,13441,1.086,,,,,,,,,,,,,,,,,,,,,,,,,,,,,,,,,,,,,,,,,,,,,,,,,,,,,,,,,,,,,,,,,
,,,,,,,,,,,,a,Correct!,0,56,56,101,1,t4.png,t5.png,1,0.90025,20,female,2020-09-23_22h39.05.347,torte-2b,2020.1.3,Win32,60,13441,0.786,,,,,,,,,,,,,,,,,,,,,,,,,,,,,,,,,,,,,,,,,,,,,,,,,,,,,,,,,,,,,,,,,
,,,,,,,,,,,,a,Correct!,0,57,57,58,1,t5.png,t4.png,1,0.90025,20,female,2020-09-23_22h39.05.347,torte-2b,2020.1.3,Win32,60,13441,0.602,,,,,,,,,,,,,,,,,,,,,,,,,,,,,,,,,,,,,,,,,,,,,,,,,,,,,,,,,,,,,,,,,
,,,,,,,,,,,,l,Incorrect,0,58,58,41,1,t3.png,t2.png,1,0.90855,20,female,2020-09-23_22h39.05.347,torte-2b,2020.1.3,Win32,60,13441,1.137,,,,,,,,,,,,,,,,,,,,,,,,,,,,,,,,,,,,,,,,,,,,,,,,,,,,,,,,,,,,,,,,,
,,,,,,,,,,,,a,Correct!,0,59,59,22,1,t2.png,t3.png,1,0.90855,20,female,2020-09-23_22h39.05.347,torte-2b,2020.1.3,Win32,60,13441,1.019,,,,,,,,,,,,,,,,,,,,,,,,,,,,,,,,,,,,,,,,,,,,,,,,,,,,,,,,,,,,,,,,,
,,,,,,,,,,,,a,Incorrect,0,60,60,68,1,t1.png,t4.png,3,0.0000131,20,female,2020-09-23_22h39.05.347,torte-2b,2020.1.3,Win32,60,13441,1.537,,,,,,,,,,,,,,,,,,,,,,,,,,,,,,,,,,,,,,,,,,,,,,,,,,,,,,,,,,,,,,,,,
,,,,,,,,,,,,a,Correct!,0,61,61,9,1,t4.png,t5.png,1,0.9,20,female,2020-09-23_22h39.05.347,torte-2b,2020.1.3,Win32,60,13441,0.986,,,,,,,,,,,,,,,,,,,,,,,,,,,,,,,,,,,,,,,,,,,,,,,,,,,,,,,,,,,,,,,,,
,,,,,,,,,,,,l,Correct!,0,62,62,5,1,t2.png,t4.png,2,0.059078,20,female,2020-09-23_22h39.05.347,torte-2b,2020.1.3,Win32,60,13441,0.886,,,,,,,,,,,,,,,,,,,,,,,,,,,,,,,,,,,,,,,,,,,,,,,,,,,,,,,,,,,,,,,,,
,,,,,,,,,,,,l,Correct!,0,63,63,67,1,t1.png,t5.png,4,9.55E-11,20,female,2020-09-23_22h39.05.347,torte-2b,2020.1.3,Win32,60,13441,0.869,,,,,,,,,,,,,,,,,,,,,,,,,,,,,,,,,,,,,,,,,,,,,,,,,,,,,,,,,,,,,,,,,
,,,,,,,,,,,,a,Correct!,0,64,64,112,1,t1.png,t1.png,0,0.97829,20,female,2020-09-23_22h39.05.347,torte-2b,2020.1.3,Win32,60,13441,0.802,,,,,,,,,,,,,,,,,,,,,,,,,,,,,,,,,,,,,,,,,,,,,,,,,,,,,,,,,,,,,,,,,
,,,,,,,,,,,,a,Correct!,0,65,65,100,1,t4.png,t5.png,1,0.90025,20,female,2020-09-23_22h39.05.347,torte-2b,2020.1.3,Win32,60,13441,0.835,,,,,,,,,,,,,,,,,,,,,,,,,,,,,,,,,,,,,,,,,,,,,,,,,,,,,,,,,,,,,,,,,
,,,,,,,,,,,,l,Correct!,0,66,66,90,1,t1.png,t5.png,4,9.55E-11,20,female,2020-09-23_22h39.05.347,torte-2b,2020.1.3,Win32,60,13441,0.769,,,,,,,,,,,,,,,,,,,,,,,,,,,,,,,,,,,,,,,,,,,,,,,,,,,,,,,,,,,,,,,,,
,,,,,,,,,,,,l,Correct!,0,67,67,33,1,t5.png,t1.png,4,9.55E-11,20,female,2020-09-23_22h39.05.347,torte-2b,2020.1.3,Win32,60,13441,0.869,,,,,,,,,,,,,,,,,,,,,,,,,,,,,,,,,,,,,,,,,,,,,,,,,,,,,,,,,,,,,,,,,
,,,,,,,,,,,,l,Correct!,0,68,68,91,1,t1.png,t4.png,3,0.0000131,20,female,2020-09-23_22h39.05.347,torte-2b,2020.1.3,Win32,60,13441,0.636,,,,,,,,,,,,,,,,,,,,,,,,,,,,,,,,,,,,,,,,,,,,,,,,,,,,,,,,,,,,,,,,,
,,,,,,,,,,,,a,Correct!,0,69,69,109,1,t5.png,t5.png,0,0.97829,20,female,2020-09-23_22h39.05.347,torte-2b,2020.1.3,Win32,60,13441,0.685,,,,,,,,,,,,,,,,,,,,,,,,,,,,,,,,,,,,,,,,,,,,,,,,,,,,,,,,,,,,,,,,,
,,,,,,,,,,,,l,Correct!,0,70,70,54,1,t1.png,t5.png,4,9.55E-11,20,female,2020-09-23_22h39.05.347,torte-2b,2020.1.3,Win32,60,13441,0.685,,,,,,,,,,,,,,,,,,,,,,,,,,,,,,,,,,,,,,,,,,,,,,,,,,,,,,,,,,,,,,,,,
,,,,,,,,,,,,a,Correct!,0,71,71,104,1,t2.png,t3.png,1,0.90855,20,female,2020-09-23_22h39.05.347,torte-2b,2020.1.3,Win32,60,13441,0.569,,,,,,,,,,,,,,,,,,,,,,,,,,,,,,,,,,,,,,,,,,,,,,,,,,,,,,,,,,,,,,,,,
,,,,,,,,,,,,l,Correct!,0,72,72,3,1,t1.png,t5.png,4,9.55E-11,20,female,2020-09-23_22h39.05.347,torte-2b,2020.1.3,Win32,60,13441,0.736,,,,,,,,,,,,,,,,,,,,,,,,,,,,,,,,,,,,,,,,,,,,,,,,,,,,,,,,,,,,,,,,,
,,,,,,,,,,,,a,Incorrect,0,73,73,98,1,t2.png,t4.png,2,0.0591,20,female,2020-09-23_22h39.05.347,torte-2b,2020.1.3,Win32,60,13441,0.502,,,,,,,,,,,,,,,,,,,,,,,,,,,,,,,,,,,,,,,,,,,,,,,,,,,,,,,,,,,,,,,,,
,,,,,,,,,,,,a,Correct!,0,74,74,34,1,t5.png,t4.png,1,0.9,20,female,2020-09-23_22h39.05.347,torte-2b,2020.1.3,Win32,60,13441,0.552,,,,,,,,,,,,,,,,,,,,,,,,,,,,,,,,,,,,,,,,,,,,,,,,,,,,,,,,,,,,,,,,,
,,,,,,,,,,,,a,Correct!,0,75,75,7,1,t4.png,t5.png,1,0.90025,20,female,2020-09-23_22h39.05.347,torte-2b,2020.1.3,Win32,60,13441,0.752,,,,,,,,,,,,,,,,,,,,,,,,,,,,,,,,,,,,,,,,,,,,,,,,,,,,,,,,,,,,,,,,,
,,,,,,,,,,,,a,Correct!,0,76,76,45,1,t3.png,t2.png,1,0.90855,20,female,2020-09-23_22h39.05.347,torte-2b,2020.1.3,Win32,60,13441,1.052,,,,,,,,,,,,,,,,,,,,,,,,,,,,,,,,,,,,,,,,,,,,,,,,,,,,,,,,,,,,,,,,,
,,,,,,,,,,,,l,Correct!,0,77,77,93,1,t2.png,t4.png,2,0.059078,20,female,2020-09-23_22h39.05.347,torte-2b,2020.1.3,Win32,60,13441,1.052,,,,,,,,,,,,,,,,,,,,,,,,,,,,,,,,,,,,,,,,,,,,,,,,,,,,,,,,,,,,,,,,,
,,,,,,,,,,,,a,Correct!,0,78,78,95,1,t1.png,t1.png,0,0.978,20,female,2020-09-23_22h39.05.347,torte-2b,2020.1.3,Win32,60,13441,0.769,,,,,,,,,,,,,,,,,,,,,,,,,,,,,,,,,,,,,,,,,,,,,,,,,,,,,,,,,,,,,,,,,
,,,,,,,,,,,,l,Correct!,0,79,79,119,1,t1.png,t5.png,4,9.55E-11,20,female,2020-09-23_22h39.05.347,torte-2b,2020.1.3,Win32,60,13441,0.836,,,,,,,,,,,,,,,,,,,,,,,,,,,,,,,,,,,,,,,,,,,,,,,,,,,,,,,,,,,,,,,,,
,,,,,,,,,,,,l,Correct!,0,80,80,117,1,t1.png,t5.png,4,9.55E-11,20,female,2020-09-23_22h39.05.347,torte-2b,2020.1.3,Win32,60,13441,0.685,,,,,,,,,,,,,,,,,,,,,,,,,,,,,,,,,,,,,,,,,,,,,,,,,,,,,,,,,,,,,,,,,
,,,,,,,,,,,,a,Correct!,0,81,81,2,1,t3.png,t2.png,1,0.90855,20,female,2020-09-23_22h39.05.347,torte-2b,2020.1.3,Win32,60,13441,0.702,,,,,,,,,,,,,,,,,,,,,,,,,,,,,,,,,,,,,,,,,,,,,,,,,,,,,,,,,,,,,,,,,
,,,,,,,,,,,,l,Correct!,0,82,82,83,1,t3.png,t1.png,2,0.056466,20,female,2020-09-23_22h39.05.347,torte-2b,2020.1.3,Win32,60,13441,1.22,,,,,,,,,,,,,,,,,,,,,,,,,,,,,,,,,,,,,,,,,,,,,,,,,,,,,,,,,,,,,,,,,
,,,,,,,,,,,,l,Correct!,0,83,83,89,1,t1.png,t4.png,3,0.0000131,20,female,2020-09-23_22h39.05.347,torte-2b,2020.1.3,Win32,60,13441,0.819,,,,,,,,,,,,,,,,,,,,,,,,,,,,,,,,,,,,,,,,,,,,,,,,,,,,,,,,,,,,,,,,,
,,,,,,,,,,,,l,Correct!,0,84,84,111,1,t5.png,t1.png,4,9.55E-11,20,female,2020-09-23_22h39.05.347,torte-2b,2020.1.3,Win32,60,13441,0.736,,,,,,,,,,,,,,,,,,,,,,,,,,,,,,,,,,,,,,,,,,,,,,,,,,,,,,,,,,,,,,,,,
,,,,,,,,,,,,l,Correct!,0,85,85,53,1,t3.png,t1.png,2,0.056466,20,female,2020-09-23_22h39.05.347,torte-2b,2020.1.3,Win32,60,13441,0.669,,,,,,,,,,,,,,,,,,,,,,,,,,,,,,,,,,,,,,,,,,,,,,,,,,,,,,,,,,,,,,,,,
,,,,,,,,,,,,a,Correct!,0,86,86,105,1,t3.png,t2.png,1,0.90855,20,female,2020-09-23_22h39.05.347,torte-2b,2020.1.3,Win32,60,13441,0.635,,,,,,,,,,,,,,,,,,,,,,,,,,,,,,,,,,,,,,,,,,,,,,,,,,,,,,,,,,,,,,,,,
,,,,,,,,,,,,a,Correct!,0,87,87,23,1,t5.png,t4.png,1,0.90025,20,female,2020-09-23_22h39.05.347,torte-2b,2020.1.3,Win32,60,13441,0.82,,,,,,,,,,,,,,,,,,,,,,,,,,,,,,,,,,,,,,,,,,,,,,,,,,,,,,,,,,,,,,,,,
,,,,,,,,,,,,a,Correct!,0,88,88,48,1,t5.png,t5.png,0,0.97829,20,female,2020-09-23_22h39.05.347,torte-2b,2020.1.3,Win32,60,13441,0.753,,,,,,,,,,,,,,,,,,,,,,,,,,,,,,,,,,,,,,,,,,,,,,,,,,,,,,,,,,,,,,,,,
,,,,,,,,,,,,l,Correct!,0,89,89,31,1,t1.png,t5.png,4,9.55E-11,20,female,2020-09-23_22h39.05.347,torte-2b,2020.1.3,Win32,60,13441,0.653,,,,,,,,,,,,,,,,,,,,,,,,,,,,,,,,,,,,,,,,,,,,,,,,,,,,,,,,,,,,,,,,,
,,,,,,,,,,,,a,Correct!,0,90,90,70,1,t5.png,t5.png,0,0.978,20,female,2020-09-23_22h39.05.347,torte-2b,2020.1.3,Win32,60,13441,0.67,,,,,,,,,,,,,,,,,,,,,,,,,,,,,,,,,,,,,,,,,,,,,,,,,,,,,,,,,,,,,,,,,
,,,,,,,,,,,,a,Correct!,0,91,91,15,1,t3.png,t2.png,1,0.90855,20,female,2020-09-23_22h39.05.347,torte-2b,2020.1.3,Win32,60,13441,0.953,,,,,,,,,,,,,,,,,,,,,,,,,,,,,,,,,,,,,,,,,,,,,,,,,,,,,,,,,,,,,,,,,
,,,,,,,,,,,,a,Correct!,0,92,92,74,1,t5.png,t4.png,1,0.9,20,female,2020-09-23_22h39.05.347,torte-2b,2020.1.3,Win32,60,13441,0.768,,,,,,,,,,,,,,,,,,,,,,,,,,,,,,,,,,,,,,,,,,,,,,,,,,,,,,,,,,,,,,,,,
,,,,,,,,,,,,a,Correct!,0,93,93,20,1,t2.png,t3.png,1,0.90855,20,female,2020-09-23_22h39.05.347,torte-2b,2020.1.3,Win32,60,13441,0.718,,,,,,,,,,,,,,,,,,,,,,,,,,,,,,,,,,,,,,,,,,,,,,,,,,,,,,,,,,,,,,,,,
,,,,,,,,,,,,a,Correct!,0,94,94,78,1,t1.png,t1.png,0,0.978,20,female,2020-09-23_22h39.05.347,torte-2b,2020.1.3,Win32,60,13441,0.652,,,,,,,,,,,,,,,,,,,,,,,,,,,,,,,,,,,,,,,,,,,,,,,,,,,,,,,,,,,,,,,,,
,,,,,,,,,,,,l,Incorrect,0,95,95,30,1,t3.png,t1.png,2,0.056466,20,female,2020-09-23_22h39.05.347,torte-2b,2020.1.3,Win32,60,13441,0.787,,,,,,,,,,,,,,,,,,,,,,,,,,,,,,,,,,,,,,,,,,,,,,,,,,,,,,,,,,,,,,,,,
,,,,,,,,,,,,a,Incorrect,0,96,96,19,1,t4.png,t2.png,2,0.059078,20,female,2020-09-23_22h39.05.347,torte-2b,2020.1.3,Win32,60,13441,1.087,,,,,,,,,,,,,,,,,,,,,,,,,,,,,,,,,,,,,,,,,,,,,,,,,,,,,,,,,,,,,,,,,
,,,,,,,,,,,,l,Correct!,0,97,97,57,1,t2.png,t4.png,2,0.059078,20,female,2020-09-23_22h39.05.347,torte-2b,2020.1.3,Win32,60,13441,1.086,,,,,,,,,,,,,,,,,,,,,,,,,,,,,,,,,,,,,,,,,,,,,,,,,,,,,,,,,,,,,,,,,
,,,,,,,,,,,,a,Correct!,0,98,98,42,1,t5.png,t4.png,1,0.90025,20,female,2020-09-23_22h39.05.347,torte-2b,2020.1.3,Win32,60,13441,0.652,,,,,,,,,,,,,,,,,,,,,,,,,,,,,,,,,,,,,,,,,,,,,,,,,,,,,,,,,,,,,,,,,
,,,,,,,,,,,,a,Incorrect,0,99,99,88,1,t3.png,t1.png,2,0.056466,20,female,2020-09-23_22h39.05.347,torte-2b,2020.1.3,Win32,60,13441,0.719,,,,,,,,,,,,,,,,,,,,,,,,,,,,,,,,,,,,,,,,,,,,,,,,,,,,,,,,,,,,,,,,,
,,,,,,,,,,,,l,Correct!,0,100,100,40,1,t1.png,t5.png,4,9.55E-11,20,female,2020-09-23_22h39.05.347,torte-2b,2020.1.3,Win32,60,13441,0.736,,,,,,,,,,,,,,,,,,,,,,,,,,,,,,,,,,,,,,,,,,,,,,,,,,,,,,,,,,,,,,,,,
,,,,,,,,,,,,a,Incorrect,0,101,101,51,1,t3.png,t1.png,2,0.056466,20,female,2020-09-23_22h39.05.347,torte-2b,2020.1.3,Win32,60,13441,0.835,,,,,,,,,,,,,,,,,,,,,,,,,,,,,,,,,,,,,,,,,,,,,,,,,,,,,,,,,,,,,,,,,
,,,,,,,,,,,,l,Correct!,0,102,102,86,1,t3.png,t1.png,2,0.056466,20,female,2020-09-23_22h39.05.347,torte-2b,2020.1.3,Win32,60,13441,1.02,,,,,,,,,,,,,,,,,,,,,,,,,,,,,,,,,,,,,,,,,,,,,,,,,,,,,,,,,,,,,,,,,
,,,,,,,,,,,,a,Correct!,0,103,103,75,1,t1.png,t1.png,0,0.97829,20,female,2020-09-23_22h39.05.347,torte-2b,2020.1.3,Win32,60,13441,0.854,,,,,,,,,,,,,,,,,,,,,,,,,,,,,,,,,,,,,,,,,,,,,,,,,,,,,,,,,,,,,,,,,
,,,,,,,,,,,,a,Correct!,0,104,104,10,1,t2.png,t3.png,1,0.90855,20,female,2020-09-23_22h39.05.347,torte-2b,2020.1.3,Win32,60,13441,1.019,,,,,,,,,,,,,,,,,,,,,,,,,,,,,,,,,,,,,,,,,,,,,,,,,,,,,,,,,,,,,,,,,
,,,,,,,,,,,,l,Incorrect,0,105,105,85,1,t3.png,t2.png,1,0.90855,20,female,2020-09-23_22h39.05.347,torte-2b,2020.1.3,Win32,60,13441,0.953,,,,,,,,,,,,,,,,,,,,,,,,,,,,,,,,,,,,,,,,,,,,,,,,,,,,,,,,,,,,,,,,,
,,,,,,,,,,,,l,Correct!,0,106,106,115,1,t2.png,t4.png,2,0.059078,20,female,2020-09-23_22h39.05.347,torte-2b,2020.1.3,Win32,60,13441,1.07,,,,,,,,,,,,,,,,,,,,,,,,,,,,,,,,,,,,,,,,,,,,,,,,,,,,,,,,,,,,,,,,,
,,,,,,,,,,,,l,Correct!,0,107,107,1,1,t2.png,t4.png,2,0.059078,20,female,2020-09-23_22h39.05.347,torte-2b,2020.1.3,Win32,60,13441,0.953,,,,,,,,,,,,,,,,,,,,,,,,,,,,,,,,,,,,,,,,,,,,,,,,,,,,,,,,,,,,,,,,,
,,,,,,,,,,,,a,Correct!,0,108,108,44,1,t2.png,t3.png,1,0.909,20,female,2020-09-23_22h39.05.347,torte-2b,2020.1.3,Win32,60,13441,1.02,,,,,,,,,,,,,,,,,,,,,,,,,,,,,,,,,,,,,,,,,,,,,,,,,,,,,,,,,,,,,,,,,
,,,,,,,,,,,,l,Correct!,0,109,109,80,1,t1.png,t4.png,3,0.0000131,20,female,2020-09-23_22h39.05.347,torte-2b,2020.1.3,Win32,60,13441,0.669,,,,,,,,,,,,,,,,,,,,,,,,,,,,,,,,,,,,,,,,,,,,,,,,,,,,,,,,,,,,,,,,,
,,,,,,,,,,,,l,Incorrect,0,110,110,36,1,t3.png,t1.png,2,0.0565,20,female,2020-09-23_22h39.05.347,torte-2b,2020.1.3,Win32,60,13441,0.685,,,,,,,,,,,,,,,,,,,,,,,,,,,,,,,,,,,,,,,,,,,,,,,,,,,,,,,,,,,,,,,,,
,,,,,,,,,,,,a,Incorrect,0,111,111,103,1,t3.png,t1.png,2,0.056466,20,female,2020-09-23_22h39.05.347,torte-2b,2020.1.3,Win32,60,13441,0.552,,,,,,,,,,,,,,,,,,,,,,,,,,,,,,,,,,,,,,,,,,,,,,,,,,,,,,,,,,,,,,,,,
,,,,,,,,,,,,l,Correct!,0,112,112,6,1,t1.png,t4.png,3,0.0000131,20,female,2020-09-23_22h39.05.347,torte-2b,2020.1.3,Win32,60,13441,0.853,,,,,,,,,,,,,,,,,,,,,,,,,,,,,,,,,,,,,,,,,,,,,,,,,,,,,,,,,,,,,,,,,
,,,,,,,,,,,,a,Correct!,0,113,113,118,1,t5.png,t5.png,0,0.978,20,female,2020-09-23_22h39.05.347,torte-2b,2020.1.3,Win32,60,13441,0.752,,,,,,,,,,,,,,,,,,,,,,,,,,,,,,,,,,,,,,,,,,,,,,,,,,,,,,,,,,,,,,,,,
,,,,,,,,,,,,a,Correct!,0,114,114,81,1,t1.png,t1.png,0,0.97829,20,female,2020-09-23_22h39.05.347,torte-2b,2020.1.3,Win32,60,13441,0.818,,,,,,,,,,,,,,,,,,,,,,,,,,,,,,,,,,,,,,,,,,,,,,,,,,,,,,,,,,,,,,,,,
,,,,,,,,,,,,l,Incorrect,0,115,115,63,1,t2.png,t3.png,1,0.909,20,female,2020-09-23_22h39.05.347,torte-2b,2020.1.3,Win32,60,13441,0.819,,,,,,,,,,,,,,,,,,,,,,,,,,,,,,,,,,,,,,,,,,,,,,,,,,,,,,,,,,,,,,,,,
,,,,,,,,,,,,l,Correct!,0,116,116,47,1,t4.png,t2.png,2,0.059078,20,female,2020-09-23_22h39.05.347,torte-2b,2020.1.3,Win32,60,13441,1.069,,,,,,,,,,,,,,,,,,,,,,,,,,,,,,,,,,,,,,,,,,,,,,,,,,,,,,,,,,,,,,,,,
,,,,,,,,,,,,a,Incorrect,0,117,117,94,1,t5.png,t1.png,4,9.55E-11,20,female,2020-09-23_22h39.05.347,torte-2b,2020.1.3,Win32,60,13441,0.852,,,,,,,,,,,,,,,,,,,,,,,,,,,,,,,,,,,,,,,,,,,,,,,,,,,,,,,,,,,,,,,,,
,,,,,,,,,,,,a,Correct!,0,118,118,107,1,t1.png,t1.png,0,0.978,20,female,2020-09-23_22h39.05.347,torte-2b,2020.1.3,Win32,60,13441,0.719,,,,,,,,,,,,,,,,,,,,,,,,,,,,,,,,,,,,,,,,,,,,,,,,,,,,,,,,,,,,,,,,,
,,,,,,,,,,,,l,Incorrect,0,119,119,106,1,t2.png,t3.png,1,0.90855,20,female,2020-09-23_22h39.05.347,torte-2b,2020.1.3,Win32,60,13441,0.803,,,,,,,,,,,,,,,,,,,,,,,,,,,,,,,,,,,,,,,,,,,,,,,,,,,,,,,,,,,,,,,,,
,,,,,,,,,,,,l,Correct!,,,,,,t3.png,t1.png,2,0.056466,20,female,2020-09-23_22h39.05.347,torte-2b,2020.1.3,Win32,60,13441,0.936,l,1.603,v,21.109,0,0,0,0,1,,,,,,,,,,,,,,,,,,,,,,,,,,,,,,,,,,,,,,,,,,,,,,,,,,,,,,,,
,,,,,,,,,,,,a,Incorrect,,,,,,t3.png,t5.png,2,0.056466,20,female,2020-09-23_22h39.05.347,torte-2b,2020.1.3,Win32,60,13441,1.019,,,,,0,1,1,44,1,,,,,,,,,,,,,,,,,,,,,,,,,,,,,,,,,,,,,,,,,,,,,,,,,,,,,,,,
,,,,,,,,,,,,l,Incorrect,,,,,,t1.png,t2.png,1,0.90025,20,female,2020-09-23_22h39.05.347,torte-2b,2020.1.3,Win32,60,13441,1.403,,,,,0,2,2,112,1,,,,,,,,,,,,,,,,,,,,,,,,,,,,,,,,,,,,,,,,,,,,,,,,,,,,,,,,
,,,,,,,,,,,,l,Correct!,,,,,,t4.png,t1.png,3,0.0000131,20,female,2020-09-23_22h39.05.347,torte-2b,2020.1.3,Win32,60,13441,0.904,,,,,0,3,3,93,1,,,,,,,,,,,,,,,,,,,,,,,,,,,,,,,,,,,,,,,,,,,,,,,,,,,,,,,,
,,,,,,,,,,,,a,Correct!,,,,,,t2.png,t2.png,0,0.981,20,female,2020-09-23_22h39.05.347,torte-2b,2020.1.3,Win32,60,13441,0.786,,,,,0,4,4,101,1,,,,,,,,,,,,,,,,,,,,,,,,,,,,,,,,,,,,,,,,,,,,,,,,,,,,,,,,
,,,,,,,,,,,,a,Correct!,,,,,,t5.png,t4.png,1,0.90025,20,female,2020-09-23_22h39.05.347,torte-2b,2020.1.3,Win32,60,13441,0.837,,,,,0,5,5,27,1,,,,,,,,,,,,,,,,,,,,,,,,,,,,,,,,,,,,,,,,,,,,,,,,,,,,,,,,
,,,,,,,,,,,,l,Correct!,,,,,,t1.png,t4.png,3,0.0000131,20,female,2020-09-23_22h39.05.347,torte-2b,2020.1.3,Win32,60,13441,1.02,,,,,0,6,6,92,1,,,,,,,,,,,,,,,,,,,,,,,,,,,,,,,,,,,,,,,,,,,,,,,,,,,,,,,,
,,,,,,,,,,,,l,Incorrect,,,,,,t1.png,t2.png,1,0.90025,20,female,2020-09-23_22h39.05.347,torte-2b,2020.1.3,Win32,60,13441,0.97,,,,,0,7,7,105,1,,,,,,,,,,,,,,,,,,,,,,,,,,,,,,,,,,,,,,,,,,,,,,,,,,,,,,,,
,,,,,,,,,,,,a,Correct!,,,,,,t5.png,t5.png,0,0.97829,20,female,2020-09-23_22h39.05.347,torte-2b,2020.1.3,Win32,60,13441,0.601,,,,,0,8,8,25,1,,,,,,,,,,,,,,,,,,,,,,,,,,,,,,,,,,,,,,,,,,,,,,,,,,,,,,,,
,,,,,,,,,,,,a,Incorrect,,,,,,t1.png,t3.png,2,0.056466,20,female,2020-09-23_22h39.05.347,torte-2b,2020.1.3,Win32,60,13441,0.902,,,,,0,9,9,60,1,,,,,,,,,,,,,,,,,,,,,,,,,,,,,,,,,,,,,,,,,,,,,,,,,,,,,,,,
,,,,,,,,,,,,a,Incorrect,,,,,,t5.png,t3.png,2,0.056466,20,female,2020-09-23_22h39.05.347,torte-2b,2020.1.3,Win32,60,13441,0.686,,,,,0,10,10,38,1,,,,,,,,,,,,,,,,,,,,,,,,,,,,,,,,,,,,,,,,,,,,,,,,,,,,,,,,
,,,,,,,,,,,,l,Correct!,,,,,,t2.png,t4.png,2,0.059078,20,female,2020-09-23_22h39.05.347,torte-2b,2020.1.3,Win32,60,13441,0.586,,,,,0,11,11,11,1,,,,,,,,,,,,,,,,,,,,,,,,,,,,,,,,,,,,,,,,,,,,,,,,,,,,,,,,
,,,,,,,,,,,,a,Incorrect,,,,,,t2.png,t4.png,2,0.059078,20,female,2020-09-23_22h39.05.347,torte-2b,2020.1.3,Win32,60,13441,1.07,,,,,0,12,12,37,1,,,,,,,,,,,,,,,,,,,,,,,,,,,,,,,,,,,,,,,,,,,,,,,,,,,,,,,,
,,,,,,,,,,,,l,Correct!,,,,,,t1.png,t3.png,2,0.056466,20,female,2020-09-23_22h39.05.347,torte-2b,2020.1.3,Win32,60,13441,1.137,,,,,0,13,13,69,1,,,,,,,,,,,,,,,,,,,,,,,,,,,,,,,,,,,,,,,,,,,,,,,,,,,,,,,,
,,,,,,,,,,,,l,Incorrect,,,,,,t1.png,t2.png,1,0.90025,20,female,2020-09-23_22h39.05.347,torte-2b,2020.1.3,Win32,60,13441,0.77,,,,,0,14,14,33,1,,,,,,,,,,,,,,,,,,,,,,,,,,,,,,,,,,,,,,,,,,,,,,,,,,,,,,,,
,,,,,,,,,,,,a,Correct!,,,,,,t4.png,t5.png,1,0.90025,20,female,2020-09-23_22h39.05.347,torte-2b,2020.1.3,Win32,60,13441,0.634,,,,,0,15,15,47,1,,,,,,,,,,,,,,,,,,,,,,,,,,,,,,,,,,,,,,,,,,,,,,,,,,,,,,,,
,,,,,,,,,,,,a,Incorrect,,,,,,t3.png,t1.png,2,0.0565,20,female,2020-09-23_22h39.05.347,torte-2b,2020.1.3,Win32,60,13441,0.803,,,,,0,16,16,31,1,,,,,,,,,,,,,,,,,,,,,,,,,,,,,,,,,,,,,,,,,,,,,,,,,,,,,,,,
,,,,,,,,,,,,l,Correct!,,,,,,t5.png,t2.png,3,0.0000131,20,female,2020-09-23_22h39.05.347,torte-2b,2020.1.3,Win32,60,13441,0.869,,,,,0,17,17,51,1,,,,,,,,,,,,,,,,,,,,,,,,,,,,,,,,,,,,,,,,,,,,,,,,,,,,,,,,
,,,,,,,,,,,,l,Incorrect,,,,,,t4.png,t3.png,1,0.90855,20,female,2020-09-23_22h39.05.347,torte-2b,2020.1.3,Win32,60,13441,1.12,,,,,0,18,18,35,1,,,,,,,,,,,,,,,,,,,,,,,,,,,,,,,,,,,,,,,,,,,,,,,,,,,,,,,,
,,,,,,,,,,,,a,Correct!,,,,,,t1.png,t1.png,0,0.97829,20,female,2020-09-23_22h39.05.347,torte-2b,2020.1.3,Win32,60,13441,0.669,,,,,0,19,19,78,1,,,,,,,,,,,,,,,,,,,,,,,,,,,,,,,,,,,,,,,,,,,,,,,,,,,,,,,,
,,,,,,,,,,,,l,Correct!,,,,,,t5.png,t1.png,4,9.55E-11,20,female,2020-09-23_22h39.05.347,torte-2b,2020.1.3,Win32,60,13441,1.303,,,,,0,20,20,102,1,,,,,,,,,,,,,,,,,,,,,,,,,,,,,,,,,,,,,,,,,,,,,,,,,,,,,,,,
,,,,,,,,,,,,l,Incorrect,,,,,,t1.png,t2.png,1,0.9,20,female,2020-09-23_22h39.05.347,torte-2b,2020.1.3,Win32,60,13441,1.119,,,,,0,21,21,1,1,,,,,,,,,,,,,,,,,,,,,,,,,,,,,,,,,,,,,,,,,,,,,,,,,,,,,,,,
,,,,,,,,,,,,a,Correct!,,,,,,t2.png,t2.png,0,0.98115,20,female,2020-09-23_22h39.05.347,torte-2b,2020.1.3,Win32,60,13441,1.32,,,,,0,22,22,57,1,,,,,,,,,,,,,,,,,,,,,,,,,,,,,,,,,,,,,,,,,,,,,,,,,,,,,,,,
,,,,,,,,,,,,l,Incorrect,,,,,,t2.png,t1.png,1,0.90025,20,female,2020-09-23_22h39.05.347,torte-2b,2020.1.3,Win32,60,13441,1.02,,,,,0,23,23,62,1,,,,,,,,,,,,,,,,,,,,,,,,,,,,,,,,,,,,,,,,,,,,,,,,,,,,,,,,
,,,,,,,,,,,,l,Correct!,,,,,,t1.png,t5.png,4,9.55E-11,20,female,2020-09-23_22h39.05.347,torte-2b,2020.1.3,Win32,60,13441,0.852,,,,,0,24,24,41,1,,,,,,,,,,,,,,,,,,,,,,,,,,,,,,,,,,,,,,,,,,,,,,,,,,,,,,,,
,,,,,,,,,,,,a,Correct!,,,,,,t5.png,t5.png,0,0.97829,20,female,2020-09-23_22h39.05.347,torte-2b,2020.1.3,Win32,60,13441,0.568,,,,,0,25,25,73,1,,,,,,,,,,,,,,,,,,,,,,,,,,,,,,,,,,,,,,,,,,,,,,,,,,,,,,,,
,,,,,,,,,,,,a,Incorrect,,,,,,t4.png,t2.png,2,0.059078,20,female,2020-09-23_22h39.05.347,torte-2b,2020.1.3,Win32,60,13441,0.837,,,,,0,26,26,109,1,,,,,,,,,,,,,,,,,,,,,,,,,,,,,,,,,,,,,,,,,,,,,,,,,,,,,,,,
,,,,,,,,,,,,l,Correct!,,,,,,t3.png,t1.png,2,0.056466,20,female,2020-09-23_22h39.05.347,torte-2b,2020.1.3,Win32,60,13441,0.769,,,,,0,27,27,32,1,,,,,,,,,,,,,,,,,,,,,,,,,,,,,,,,,,,,,,,,,,,,,,,,,,,,,,,,
,,,,,,,,,,,,a,Incorrect,,,,,,t3.png,t5.png,2,0.056466,20,female,2020-09-23_22h39.05.347,torte-2b,2020.1.3,Win32,60,13441,1.204,,,,,0,28,28,14,1,,,,,,,,,,,,,,,,,,,,,,,,,,,,,,,,,,,,,,,,,,,,,,,,,,,,,,,,
,,,,,,,,,,,,a,Correct!,,,,,,t4.png,t3.png,1,0.909,20,female,2020-09-23_22h39.05.347,torte-2b,2020.1.3,Win32,60,13441,0.603,,,,,0,29,29,46,1,,,,,,,,,,,,,,,,,,,,,,,,,,,,,,,,,,,,,,,,,,,,,,,,,,,,,,,,
,,,,,,,,,,,,a,Incorrect,,,,,,t5.png,t3.png,2,0.056466,20,female,2020-09-23_22h39.05.347,torte-2b,2020.1.3,Win32,60,13441,0.552,,,,,0,30,30,56,1,,,,,,,,,,,,,,,,,,,,,,,,,,,,,,,,,,,,,,,,,,,,,,,,,,,,,,,,
,,,,,,,,,,,,l,Correct!,,,,,,t1.png,t4.png,3,0.0000131,20,female,2020-09-23_22h39.05.347,torte-2b,2020.1.3,Win32,60,13441,1.554,,,,,0,31,31,107,1,,,,,,,,,,,,,,,,,,,,,,,,,,,,,,,,,,,,,,,,,,,,,,,,,,,,,,,,
,,,,,,,,,,,,l,Correct!,,,,,,t4.png,t2.png,2,0.059078,20,female,2020-09-23_22h39.05.347,torte-2b,2020.1.3,Win32,60,13441,0.837,,,,,0,32,32,86,1,,,,,,,,,,,,,,,,,,,,,,,,,,,,,,,,,,,,,,,,,,,,,,,,,,,,,,,,
,,,,,,,,,,,,a,Correct!,,,,,,t3.png,t2.png,1,0.90855,20,female,2020-09-23_22h39.05.347,torte-2b,2020.1.3,Win32,60,13441,1.219,,,,,0,33,33,18,1,,,,,,,,,,,,,,,,,,,,,,,,,,,,,,,,,,,,,,,,,,,,,,,,,,,,,,,,
,,,,,,,,,,,,a,Incorrect,,,,,,t5.png,t3.png,2,0.0565,20,female,2020-09-23_22h39.05.347,torte-2b,2020.1.3,Win32,60,13441,1.186,,,,,0,34,34,39,1,,,,,,,,,,,,,,,,,,,,,,,,,,,,,,,,,,,,,,,,,,,,,,,,,,,,,,,,
,,,,,,,,,,,,l,Correct!,,,,,,t2.png,t4.png,2,0.059078,20,female,2020-09-23_22h39.05.347,torte-2b,2020.1.3,Win32,60,13441,1.103,,,,,0,35,35,77,1,,,,,,,,,,,,,,,,,,,,,,,,,,,,,,,,,,,,,,,,,,,,,,,,,,,,,,,,
,,,,,,,,,,,,l,Correct!,,,,,,t4.png,t1.png,3,0.0000131,20,female,2020-09-23_22h39.05.347,torte-2b,2020.1.3,Win32,60,13441,1.103,,,,,0,36,36,42,1,,,,,,,,,,,,,,,,,,,,,,,,,,,,,,,,,,,,,,,,,,,,,,,,,,,,,,,,
,,,,,,,,,,,,l,Correct!,,,,,,t5.png,t2.png,3,0.0000131,20,female,2020-09-23_22h39.05.347,torte-2b,2020.1.3,Win32,60,13441,0.685,,,,,0,37,37,98,1,,,,,,,,,,,,,,,,,,,,,,,,,,,,,,,,,,,,,,,,,,,,,,,,,,,,,,,,
,,,,,,,,,,,,l,Correct!,,,,,,t1.png,t5.png,4,9.55E-11,20,female,2020-09-23_22h39.05.347,torte-2b,2020.1.3,Win32,60,13441,0.785,,,,,0,38,38,16,1,,,,,,,,,,,,,,,,,,,,,,,,,,,,,,,,,,,,,,,,,,,,,,,,,,,,,,,,
,,,,,,,,,,,,l,Correct!,,,,,,t2.png,t5.png,3,0.0000131,20,female,2020-09-23_22h39.05.347,torte-2b,2020.1.3,Win32,60,13441,0.952,,,,,0,39,39,8,1,,,,,,,,,,,,,,,,,,,,,,,,,,,,,,,,,,,,,,,,,,,,,,,,,,,,,,,,
,,,,,,,,,,,,a,Correct!,,,,,,t3.png,t2.png,1,0.90855,20,female,2020-09-23_22h39.05.347,torte-2b,2020.1.3,Win32,60,13441,0.602,,,,,0,40,40,97,1,,,,,,,,,,,,,,,,,,,,,,,,,,,,,,,,,,,,,,,,,,,,,,,,,,,,,,,,
,,,,,,,,,,,,a,Correct!,,,,,,t4.png,t4.png,0,0.98115,20,female,2020-09-23_22h39.05.347,torte-2b,2020.1.3,Win32,60,13441,0.718,,,,,0,41,41,80,1,,,,,,,,,,,,,,,,,,,,,,,,,,,,,,,,,,,,,,,,,,,,,,,,,,,,,,,,
,,,,,,,,,,,,l,Correct!,,,,,,t2.png,t4.png,2,0.0591,20,female,2020-09-23_22h39.05.347,torte-2b,2020.1.3,Win32,60,13441,1.02,,,,,0,42,42,15,1,,,,,,,,,,,,,,,,,,,,,,,,,,,,,,,,,,,,,,,,,,,,,,,,,,,,,,,,
,,,,,,,,,,,,l,Incorrect,,,,,,t2.png,t3.png,1,0.90855,20,female,2020-09-23_22h39.05.347,torte-2b,2020.1.3,Win32,60,13441,1.119,,,,,0,43,43,65,1,,,,,,,,,,,,,,,,,,,,,,,,,,,,,,,,,,,,,,,,,,,,,,,,,,,,,,,,
,,,,,,,,,,,,l,Incorrect,,,,,,t2.png,t1.png,1,0.90025,20,female,2020-09-23_22h39.05.347,torte-2b,2020.1.3,Win32,60,13441,1.002,,,,,0,44,44,4,1,,,,,,,,,,,,,,,,,,,,,,,,,,,,,,,,,,,,,,,,,,,,,,,,,,,,,,,,
,,,,,,,,,,,,a,Incorrect,,,,,,t3.png,t2.png,1,0.909,20,female,2020-09-23_22h39.05.347,torte-2b,2020.1.3,Win32,60,13441,1.504,,,,,0,45,45,3,1,,,,,,,,,,,,,,,,,,,,,,,,,,,,,,,,,,,,,,,,,,,,,,,,,,,,,,,,
,,,,,,,,,,,,a,Correct!,,,,,,t4.png,t5.png,1,0.90025,20,female,2020-09-23_22h39.05.347,torte-2b,2020.1.3,Win32,60,13441,0.585,,,,,0,46,46,58,1,,,,,,,,,,,,,,,,,,,,,,,,,,,,,,,,,,,,,,,,,,,,,,,,,,,,,,,,
,,,,,,,,,,,,a,Incorrect,,,,,,t5.png,t2.png,3,0.0000131,20,female,2020-09-23_22h39.05.347,torte-2b,2020.1.3,Win32,60,13441,0.887,,,,,0,47,47,91,1,,,,,,,,,,,,,,,,,,,,,,,,,,,,,,,,,,,,,,,,,,,,,,,,,,,,,,,,
,,,,,,,,,,,,a,Incorrect,,,,,,t5.png,t2.png,3,0.0000131,20,female,2020-09-23_22h39.05.347,torte-2b,2020.1.3,Win32,60,13441,0.752,,,,,0,48,48,116,1,,,,,,,,,,,,,,,,,,,,,,,,,,,,,,,,,,,,,,,,,,,,,,,,,,,,,,,,
,,,,,,,,,,,,l,Correct!,,,,,,t1.png,t4.png,3,0.0000131,20,female,2020-09-23_22h39.05.347,torte-2b,2020.1.3,Win32,60,13441,1.169,,,,,0,49,49,81,1,,,,,,,,,,,,,,,,,,,,,,,,,,,,,,,,,,,,,,,,,,,,,,,,,,,,,,,,
,,,,,,,,,,,,a,Incorrect,,,,,,t2.png,t5.png,3,0.0000131,20,female,2020-09-23_22h39.05.347,torte-2b,2020.1.3,Win32,60,13441,1.069,,,,,0,50,50,40,1,,,,,,,,,,,,,,,,,,,,,,,,,,,,,,,,,,,,,,,,,,,,,,,,,,,,,,,,
,,,,,,,,,,,,l,Correct!,,,,,,t1.png,t3.png,2,0.056466,20,female,2020-09-23_22h39.05.347,torte-2b,2020.1.3,Win32,60,13441,1.003,,,,,0,51,51,63,1,,,,,,,,,,,,,,,,,,,,,,,,,,,,,,,,,,,,,,,,,,,,,,,,,,,,,,,,
,,,,,,,,,,,,a,Correct!,,,,,,t4.png,t4.png,0,0.98115,20,female,2020-09-23_22h39.05.347,torte-2b,2020.1.3,Win32,60,13441,0.568,,,,,0,52,52,21,1,,,,,,,,,,,,,,,,,,,,,,,,,,,,,,,,,,,,,,,,,,,,,,,,,,,,,,,,
,,,,,,,,,,,,a,Correct!,,,,,,t4.png,t4.png,0,0.98115,20,female,2020-09-23_22h39.05.347,torte-2b,2020.1.3,Win32,60,13441,0.602,,,,,0,53,53,90,1,,,,,,,,,,,,,,,,,,,,,,,,,,,,,,,,,,,,,,,,,,,,,,,,,,,,,,,,
,,,,,,,,,,,,l,Incorrect,,,,,,t1.png,t1.png,0,0.978,20,female,2020-09-23_22h39.05.347,torte-2b,2020.1.3,Win32,60,13441,0.635,,,,,0,54,54,28,1,,,,,,,,,,,,,,,,,,,,,,,,,,,,,,,,,,,,,,,,,,,,,,,,,,,,,,,,
,,,,,,,,,,,,a,Correct!,,,,,,t3.png,t4.png,1,0.909,20,female,2020-09-23_22h39.05.347,torte-2b,2020.1.3,Win32,60,13441,0.636,,,,,0,55,55,106,1,,,,,,,,,,,,,,,,,,,,,,,,,,,,,,,,,,,,,,,,,,,,,,,,,,,,,,,,
,,,,,,,,,,,,l,Incorrect,,,,,,t3.png,t2.png,1,0.90855,20,female,2020-09-23_22h39.05.347,torte-2b,2020.1.3,Win32,60,13441,1.287,,,,,0,56,56,53,1,,,,,,,,,,,,,,,,,,,,,,,,,,,,,,,,,,,,,,,,,,,,,,,,,,,,,,,,
,,,,,,,,,,,,l,Incorrect,,,,,,t1.png,t2.png,1,0.90025,20,female,2020-09-23_22h39.05.347,torte-2b,2020.1.3,Win32,60,13441,0.72,,,,,0,57,57,72,1,,,,,,,,,,,,,,,,,,,,,,,,,,,,,,,,,,,,,,,,,,,,,,,,,,,,,,,,
,,,,,,,,,,,,l,Incorrect,,,,,,t2.png,t2.png,0,0.98115,20,female,2020-09-23_22h39.05.347,torte-2b,2020.1.3,Win32,60,13441,0.635,,,,,0,58,58,59,1,,,,,,,,,,,,,,,,,,,,,,,,,,,,,,,,,,,,,,,,,,,,,,,,,,,,,,,,
,,,,,,,,,,,,a,Incorrect,,,,,,t5.png,t3.png,2,0.056466,20,female,2020-09-23_22h39.05.347,torte-2b,2020.1.3,Win32,60,13441,0.502,,,,,0,59,59,108,1,,,,,,,,,,,,,,,,,,,,,,,,,,,,,,,,,,,,,,,,,,,,,,,,,,,,,,,,
,,,,,,,,,,,,l,Correct!,,,,,,t3.png,t1.png,2,0.056466,20,female,2020-09-23_22h39.05.347,torte-2b,2020.1.3,Win32,60,13441,0.92,,,,,0,60,60,29,1,,,,,,,,,,,,,,,,,,,,,,,,,,,,,,,,,,,,,,,,,,,,,,,,,,,,,,,,
,,,,,,,,,,,,a,Incorrect,,,,,,t4.png,t5.png,1,0.9,20,female,2020-09-23_22h39.05.347,torte-2b,2020.1.3,Win32,60,13441,0.636,,,,,0,61,61,115,1,,,,,,,,,,,,,,,,,,,,,,,,,,,,,,,,,,,,,,,,,,,,,,,,,,,,,,,,
,,,,,,,,,,,,l,Correct!,,,,,,t2.png,t1.png,1,0.90025,20,female,2020-09-23_22h39.05.347,torte-2b,2020.1.3,Win32,60,13441,0.635,,,,,0,62,62,5,1,,,,,,,,,,,,,,,,,,,,,,,,,,,,,,,,,,,,,,,,,,,,,,,,,,,,,,,,
,,,,,,,,,,,,l,Correct!,,,,,,t5.png,t1.png,4,9.55E-11,20,female,2020-09-23_22h39.05.347,torte-2b,2020.1.3,Win32,60,13441,0.886,,,,,0,63,63,22,1,,,,,,,,,,,,,,,,,,,,,,,,,,,,,,,,,,,,,,,,,,,,,,,,,,,,,,,,
,,,,,,,,,,,,l,Correct!,,,,,,t2.png,t3.png,1,0.90855,20,female,2020-09-23_22h39.05.347,torte-2b,2020.1.3,Win32,60,13441,0.971,,,,,0,64,64,111,1,,,,,,,,,,,,,,,,,,,,,,,,,,,,,,,,,,,,,,,,,,,,,,,,,,,,,,,,
,,,,,,,,,,,,l,Correct!,,,,,,t1.png,t4.png,3,0.0000131,20,female,2020-09-23_22h39.05.347,torte-2b,2020.1.3,Win32,60,13441,0.719,,,,,0,65,65,50,1,,,,,,,,,,,,,,,,,,,,,,,,,,,,,,,,,,,,,,,,,,,,,,,,,,,,,,,,
,,,,,,,,,,,,a,Incorrect,,,,,,t5.png,t1.png,4,9.55E-11,20,female,2020-09-23_22h39.05.347,torte-2b,2020.1.3,Win32,60,13441,0.92,,,,,0,66,66,71,1,,,,,,,,,,,,,,,,,,,,,,,,,,,,,,,,,,,,,,,,,,,,,,,,,,,,,,,,
,,,,,,,,,,,,a,Correct!,,,,,,t4.png,t3.png,1,0.90855,20,female,2020-09-23_22h39.05.347,torte-2b,2020.1.3,Win32,60,13441,0.668,,,,,0,67,67,45,1,,,,,,,,,,,,,,,,,,,,,,,,,,,,,,,,,,,,,,,,,,,,,,,,,,,,,,,,
,,,,,,,,,,,,l,Correct!,,,,,,t4.png,t2.png,2,0.0591,20,female,2020-09-23_22h39.05.347,torte-2b,2020.1.3,Win32,60,13441,0.803,,,,,0,68,68,36,1,,,,,,,,,,,,,,,,,,,,,,,,,,,,,,,,,,,,,,,,,,,,,,,,,,,,,,,,
,,,,,,,,,,,,a,Correct!,,,,,,t4.png,t4.png,0,0.98115,20,female,2020-09-23_22h39.05.347,torte-2b,2020.1.3,Win32,60,13441,0.753,,,,,0,69,69,52,1,,,,,,,,,,,,,,,,,,,,,,,,,,,,,,,,,,,,,,,,,,,,,,,,,,,,,,,,
,,,,,,,,,,,,l,Correct!,,,,,,t4.png,t1.png,3,0.0000131,20,female,2020-09-23_22h39.05.347,torte-2b,2020.1.3,Win32,60,13441,1.12,,,,,0,70,70,61,1,,,,,,,,,,,,,,,,,,,,,,,,,,,,,,,,,,,,,,,,,,,,,,,,,,,,,,,,
,,,,,,,,,,,,l,Incorrect,,,,,,t1.png,t1.png,0,0.97829,20,female,2020-09-23_22h39.05.347,torte-2b,2020.1.3,Win32,60,13441,0.669,,,,,0,71,71,67,1,,,,,,,,,,,,,,,,,,,,,,,,,,,,,,,,,,,,,,,,,,,,,,,,,,,,,,,,
,,,,,,,,,,,,l,Incorrect,,,,,,t3.png,t2.png,1,0.909,20,female,2020-09-23_22h39.05.347,torte-2b,2020.1.3,Win32,60,13441,0.936,,,,,0,72,72,23,1,,,,,,,,,,,,,,,,,,,,,,,,,,,,,,,,,,,,,,,,,,,,,,,,,,,,,,,,
,,,,,,,,,,,,a,Correct!,,,,,,t3.png,t5.png,2,0.0565,20,female,2020-09-23_22h39.05.347,torte-2b,2020.1.3,Win32,60,13441,0.719,,,,,0,73,73,83,1,,,,,,,,,,,,,,,,,,,,,,,,,,,,,,,,,,,,,,,,,,,,,,,,,,,,,,,,
,,,,,,,,,,,,l,Incorrect,,,,,,t1.png,t1.png,0,0.97829,20,female,2020-09-23_22h39.05.347,torte-2b,2020.1.3,Win32,60,13441,0.735,,,,,0,74,74,9,1,,,,,,,,,,,,,,,,,,,,,,,,,,,,,,,,,,,,,,,,,,,,,,,,,,,,,,,,
,,,,,,,,,,,,a,Incorrect,,,,,,t3.png,t5.png,2,0.056466,20,female,2020-09-23_22h39.05.347,torte-2b,2020.1.3,Win32,60,13441,0.669,,,,,0,75,75,6,1,,,,,,,,,,,,,,,,,,,,,,,,,,,,,,,,,,,,,,,,,,,,,,,,,,,,,,,,
,,,,,,,,,,,,a,Correct!,,,,,,t5.png,t4.png,1,0.9,20,female,2020-09-23_22h39.05.347,torte-2b,2020.1.3,Win32,60,13441,0.485,,,,,0,76,76,49,1,,,,,,,,,,,,,,,,,,,,,,,,,,,,,,,,,,,,,,,,,,,,,,,,,,,,,,,,
,,,,,,,,,,,,l,Correct!,,,,,,t1.png,t4.png,3,0.0000131,20,female,2020-09-23_22h39.05.347,torte-2b,2020.1.3,Win32,60,13441,0.786,,,,,0,77,77,17,1,,,,,,,,,,,,,,,,,,,,,,,,,,,,,,,,,,,,,,,,,,,,,,,,,,,,,,,,
,,,,,,,,,,,,l,Incorrect,,,,,,t4.png,t3.png,1,0.90855,20,female,2020-09-23_22h39.05.347,torte-2b,2020.1.3,Win32,60,13441,0.97,,,,,0,78,78,75,1,,,,,,,,,,,,,,,,,,,,,,,,,,,,,,,,,,,,,,,,,,,,,,,,,,,,,,,,
,,,,,,,,,,,,l,Correct!,,,,,,t4.png,t2.png,2,0.059078,20,female,2020-09-23_22h39.05.347,torte-2b,2020.1.3,Win32,60,13441,0.903,,,,,0,79,79,88,1,,,,,,,,,,,,,,,,,,,,,,,,,,,,,,,,,,,,,,,,,,,,,,,,,,,,,,,,
,,,,,,,,,,,,l,Correct!,,,,,,t4.png,t1.png,3,0.0000131,20,female,2020-09-23_22h39.05.347,torte-2b,2020.1.3,Win32,60,13441,0.619,,,,,0,80,80,48,1,,,,,,,,,,,,,,,,,,,,,,,,,,,,,,,,,,,,,,,,,,,,,,,,,,,,,,,,
,,,,,,,,,,,,a,Correct!,,,,,,t4.png,t4.png,0,0.98115,20,female,2020-09-23_22h39.05.347,torte-2b,2020.1.3,Win32,60,13441,0.919,,,,,0,81,81,79,1,,,,,,,,,,,,,,,,,,,,,,,,,,,,,,,,,,,,,,,,,,,,,,,,,,,,,,,,
,,,,,,,,,,,,l,Correct!,,,,,,t5.png,t1.png,4,9.55E-11,20,female,2020-09-23_22h39.05.347,torte-2b,2020.1.3,Win32,60,13441,1.086,,,,,0,82,82,43,1,,,,,,,,,,,,,,,,,,,,,,,,,,,,,,,,,,,,,,,,,,,,,,,,,,,,,,,,
,,,,,,,,,,,,a,Correct!,,,,,,t5.png,t5.png,0,0.97829,20,female,2020-09-23_22h39.05.347,torte-2b,2020.1.3,Win32,60,13441,0.518,,,,,0,83,83,94,1,,,,,,,,,,,,,,,,,,,,,,,,,,,,,,,,,,,,,,,,,,,,,,,,,,,,,,,,
,,,,,,,,,,,,a,Incorrect,,,,,,t4.png,t1.png,3,0.0000131,20,female,2020-09-23_22h39.05.347,torte-2b,2020.1.3,Win32,60,13441,0.418,,,,,0,84,84,13,1,,,,,,,,,,,,,,,,,,,,,,,,,,,,,,,,,,,,,,,,,,,,,,,,,,,,,,,,
,,,,,,,,,,,,l,Correct!,,,,,,t1.png,t3.png,2,0.056466,20,female,2020-09-23_22h39.05.347,torte-2b,2020.1.3,Win32,60,13441,0.636,,,,,0,85,85,99,1,,,,,,,,,,,,,,,,,,,,,,,,,,,,,,,,,,,,,,,,,,,,,,,,,,,,,,,,
,,,,,,,,,,,,a,Correct!,,,,,,t5.png,t5.png,0,0.97829,20,female,2020-09-23_22h39.05.347,torte-2b,2020.1.3,Win32,60,13441,0.553,,,,,0,86,86,70,1,,,,,,,,,,,,,,,,,,,,,,,,,,,,,,,,,,,,,,,,,,,,,,,,,,,,,,,,
,,,,,,,,,,,,a,Correct!,,,,,,t5.png,t4.png,1,0.90025,20,female,2020-09-23_22h39.05.347,torte-2b,2020.1.3,Win32,60,13441,0.485,,,,,0,87,87,34,1,,,,,,,,,,,,,,,,,,,,,,,,,,,,,,,,,,,,,,,,,,,,,,,,,,,,,,,,
,,,,,,,,,,,,l,Correct!,,,,,,t2.png,t4.png,2,0.059078,20,female,2020-09-23_22h39.05.347,torte-2b,2020.1.3,Win32,60,13441,0.852,,,,,0,88,88,24,1,,,,,,,,,,,,,,,,,,,,,,,,,,,,,,,,,,,,,,,,,,,,,,,,,,,,,,,,
,,,,,,,,,,,,a,Correct!,,,,,,t5.png,t4.png,1,0.90025,20,female,2020-09-23_22h39.05.347,torte-2b,2020.1.3,Win32,60,13441,0.552,,,,,0,89,89,26,1,,,,,,,,,,,,,,,,,,,,,,,,,,,,,,,,,,,,,,,,,,,,,,,,,,,,,,,,
,,,,,,,,,,,,l,Incorrect,,,,,,t2.png,t3.png,1,0.90855,20,female,2020-09-23_22h39.05.347,torte-2b,2020.1.3,Win32,60,13441,0.485,,,,,0,90,90,68,1,,,,,,,,,,,,,,,,,,,,,,,,,,,,,,,,,,,,,,,,,,,,,,,,,,,,,,,,
,,,,,,,,,,,,a,Correct!,,,,,,t4.png,t3.png,1,0.909,20,female,2020-09-23_22h39.05.347,torte-2b,2020.1.3,Win32,60,13441,0.485,,,,,0,91,91,20,1,,,,,,,,,,,,,,,,,,,,,,,,,,,,,,,,,,,,,,,,,,,,,,,,,,,,,,,,
,,,,,,,,,,,,l,Correct!,,,,,,t2.png,t5.png,3,0.0000131,20,female,2020-09-23_22h39.05.347,torte-2b,2020.1.3,Win32,60,13441,0.735,,,,,0,92,92,95,1,,,,,,,,,,,,,,,,,,,,,,,,,,,,,,,,,,,,,,,,,,,,,,,,,,,,,,,,
,,,,,,,,,,,,l,Correct!,,,,,,t5.png,t1.png,4,9.55E-11,20,female,2020-09-23_22h39.05.347,torte-2b,2020.1.3,Win32,60,13441,1.003,,,,,0,93,93,100,1,,,,,,,,,,,,,,,,,,,,,,,,,,,,,,,,,,,,,,,,,,,,,,,,,,,,,,,,
,,,,,,,,,,,,l,Correct!,,,,,,t3.png,t1.png,2,0.056466,20,female,2020-09-23_22h39.05.347,torte-2b,2020.1.3,Win32,60,13441,0.735,,,,,0,94,94,64,1,,,,,,,,,,,,,,,,,,,,,,,,,,,,,,,,,,,,,,,,,,,,,,,,,,,,,,,,
,,,,,,,,,,,,a,Incorrect,,,,,,t1.png,t5.png,4,9.55E-11,20,female,2020-09-23_22h39.05.347,torte-2b,2020.1.3,Win32,60,13441,0.602,,,,,0,95,95,12,1,,,,,,,,,,,,,,,,,,,,,,,,,,,,,,,,,,,,,,,,,,,,,,,,,,,,,,,,
,,,,,,,,,,,,a,Incorrect,,,,,,t5.png,t2.png,3,0.0000131,20,female,2020-09-23_22h39.05.347,torte-2b,2020.1.3,Win32,60,13441,1.104,,,,,0,96,96,119,1,,,,,,,,,,,,,,,,,,,,,,,,,,,,,,,,,,,,,,,,,,,,,,,,,,,,,,,,
,,,,,,,,,,,,a,Correct!,,,,,,t3.png,t4.png,1,0.90855,20,female,2020-09-23_22h39.05.347,torte-2b,2020.1.3,Win32,60,13441,1.12,,,,,0,97,97,84,1,,,,,,,,,,,,,,,,,,,,,,,,,,,,,,,,,,,,,,,,,,,,,,,,,,,,,,,,
,,,,,,,,,,,,l,Incorrect,,,,,,t2.png,t2.png,0,0.98115,20,female,2020-09-23_22h39.05.347,torte-2b,2020.1.3,Win32,60,13441,0.82,,,,,0,98,98,2,1,,,,,,,,,,,,,,,,,,,,,,,,,,,,,,,,,,,,,,,,,,,,,,,,,,,,,,,,
,,,,,,,,,,,,l,Correct!,,,,,,t1.png,t3.png,2,0.056466,20,female,2020-09-23_22h39.05.347,torte-2b,2020.1.3,Win32,60,13441,1.12,,,,,0,99,99,87,1,,,,,,,,,,,,,,,,,,,,,,,,,,,,,,,,,,,,,,,,,,,,,,,,,,,,,,,,
,,,,,,,,,,,,a,Correct!,,,,,,t5.png,t4.png,1,0.9,20,female,2020-09-23_22h39.05.347,torte-2b,2020.1.3,Win32,60,13441,0.752,,,,,0,100,100,76,1,,,,,,,,,,,,,,,,,,,,,,,,,,,,,,,,,,,,,,,,,,,,,,,,,,,,,,,,
,,,,,,,,,,,,l,Incorrect,,,,,,t2.png,t1.png,1,0.9,20,female,2020-09-23_22h39.05.347,torte-2b,2020.1.3,Win32,60,13441,0.719,,,,,0,101,101,118,1,,,,,,,,,,,,,,,,,,,,,,,,,,,,,,,,,,,,,,,,,,,,,,,,,,,,,,,,
,,,,,,,,,,,,l,Incorrect,,,,,,t2.png,t3.png,1,0.90855,20,female,2020-09-23_22h39.05.347,torte-2b,2020.1.3,Win32,60,13441,1.253,,,,,0,102,102,10,1,,,,,,,,,,,,,,,,,,,,,,,,,,,,,,,,,,,,,,,,,,,,,,,,,,,,,,,,
,,,,,,,,,,,,a,Correct!,,,,,,t4.png,t5.png,1,0.90025,20,female,2020-09-23_22h39.05.347,torte-2b,2020.1.3,Win32,60,13441,0.652,,,,,0,103,103,113,1,,,,,,,,,,,,,,,,,,,,,,,,,,,,,,,,,,,,,,,,,,,,,,,,,,,,,,,,
,,,,,,,,,,,,a,Incorrect,,,,,,t5.png,t3.png,2,0.056466,20,female,2020-09-23_22h39.05.347,torte-2b,2020.1.3,Win32,60,13441,0.853,,,,,0,104,104,114,1,,,,,,,,,,,,,,,,,,,,,,,,,,,,,,,,,,,,,,,,,,,,,,,,,,,,,,,,
,,,,,,,,,,,,l,Correct!,,,,,,t1.png,t5.png,4,9.55E-11,20,female,2020-09-23_22h39.05.347,torte-2b,2020.1.3,Win32,60,13441,0.719,,,,,0,105,105,85,1,,,,,,,,,,,,,,,,,,,,,,,,,,,,,,,,,,,,,,,,,,,,,,,,,,,,,,,,
,,,,,,,,,,,,l,Incorrect,,,,,,t2.png,t3.png,1,0.909,20,female,2020-09-23_22h39.05.347,torte-2b,2020.1.3,Win32,60,13441,0.987,,,,,0,106,106,74,1,,,,,,,,,,,,,,,,,,,,,,,,,,,,,,,,,,,,,,,,,,,,,,,,,,,,,,,,
,,,,,,,,,,,,a,Incorrect,,,,,,t2.png,t5.png,3,0.0000131,20,female,2020-09-23_22h39.05.347,torte-2b,2020.1.3,Win32,60,13441,0.936,,,,,0,107,107,66,1,,,,,,,,,,,,,,,,,,,,,,,,,,,,,,,,,,,,,,,,,,,,,,,,,,,,,,,,
,,,,,,,,,,,,a,Correct!,,,,,,t4.png,t5.png,1,0.90025,20,female,2020-09-23_22h39.05.347,torte-2b,2020.1.3,Win32,60,13441,0.601,,,,,0,108,108,103,1,,,,,,,,,,,,,,,,,,,,,,,,,,,,,,,,,,,,,,,,,,,,,,,,,,,,,,,,
,,,,,,,,,,,,l,Correct!,,,,,,t1.png,t5.png,4,9.55E-11,20,female,2020-09-23_22h39.05.347,torte-2b,2020.1.3,Win32,60,13441,0.785,,,,,0,109,109,55,1,,,,,,,,,,,,,,,,,,,,,,,,,,,,,,,,,,,,,,,,,,,,,,,,,,,,,,,,
,,,,,,,,,,,,a,Correct!,,,,,,t3.png,t4.png,1,0.90855,20,female,2020-09-23_22h39.05.347,torte-2b,2020.1.3,Win32,60,13441,0.719,,,,,0,110,110,96,1,,,,,,,,,,,,,,,,,,,,,,,,,,,,,,,,,,,,,,,,,,,,,,,,,,,,,,,,
,,,,,,,,,,,,a,Correct!,,,,,,t3.png,t4.png,1,0.909,20,female,2020-09-23_22h39.05.347,torte-2b,2020.1.3,Win32,60,13441,0.619,,,,,0,111,111,89,1,,,,,,,,,,,,,,,,,,,,,,,,,,,,,,,,,,,,,,,,,,,,,,,,,,,,,,,,
,,,,,,,,,,,,a,Correct!,,,,,,t2.png,t2.png,0,0.98115,20,female,2020-09-23_22h39.05.347,torte-2b,2020.1.3,Win32,60,13441,1.037,,,,,0,112,112,7,1,,,,,,,,,,,,,,,,,,,,,,,,,,,,,,,,,,,,,,,,,,,,,,,,,,,,,,,,
,,,,,,,,,,,,l,Correct!,,,,,,t4.png,t2.png,2,0.059078,20,female,2020-09-23_22h39.05.347,torte-2b,2020.1.3,Win32,60,13441,1.02,,,,,0,113,113,110,1,,,,,,,,,,,,,,,,,,,,,,,,,,,,,,,,,,,,,,,,,,,,,,,,,,,,,,,,
,,,,,,,,,,,,a,Correct!,,,,,,t5.png,t5.png,0,0.978,20,female,2020-09-23_22h39.05.347,torte-2b,2020.1.3,Win32,60,13441,0.669,,,,,0,114,114,117,1,,,,,,,,,,,,,,,,,,,,,,,,,,,,,,,,,,,,,,,,,,,,,,,,,,,,,,,,
,,,,,,,,,,,,l,Correct!,,,,,,t3.png,t5.png,2,0.0565,20,female,2020-09-23_22h39.05.347,torte-2b,2020.1.3,Win32,60,13441,0.602,,,,,0,115,115,30,1,,,,,,,,,,,,,,,,,,,,,,,,,,,,,,,,,,,,,,,,,,,,,,,,,,,,,,,,
,,,,,,,,,,,,a,Incorrect,,,,,,t2.png,t5.png,3,0.0000131,20,female,2020-09-23_22h39.05.347,torte-2b,2020.1.3,Win32,60,13441,0.885,,,,,0,116,116,104,1,,,,,,,,,,,,,,,,,,,,,,,,,,,,,,,,,,,,,,,,,,,,,,,,,,,,,,,,
,,,,,,,,,,,,l,Incorrect,,,,,,t1.png,t1.png,0,0.978,20,female,2020-09-23_22h39.05.347,torte-2b,2020.1.3,Win32,60,13441,0.601,,,,,0,117,117,54,1,,,,,,,,,,,,,,,,,,,,,,,,,,,,,,,,,,,,,,,,,,,,,,,,,,,,,,,,
,,,,,,,,,,,,a,Incorrect,,,,,,t2.png,t1.png,1,0.90025,20,female,2020-09-23_22h39.05.347,torte-2b,2020.1.3,Win32,60,13441,0.552,,,,,0,118,118,19,1,,,,,,,,,,,,,,,,,,,,,,,,,,,,,,,,,,,,,,,,,,,,,,,,,,,,,,,,
,,,,,,,,,,,,a,Incorrect,,,,,,t3.png,t4.png,1,0.909,20,female,2020-09-23_22h39.05.347,torte-2b,2020.1.3,Win32,60,13441,0.702,,,,,0,119,119,82,1,,,,,,,,,,,,,,,,,,,,,,,,,,,,,,,,,,,,,,,,,,,,,,,,,,,,,,,,
,,,,,,,,,,,,,,,,,,,,,,,20,female,2020-09-23_22h39.05.347,torte-2b,2020.1.3,Win32,60,13441,,space,1.32,,,,,,,,space,16.467,,0,0,0,0,1,6,,,,,,,,,,,,,,,,,,,,,,,,,,,,,,,,,,,,,,,,,,,,,,,
,,,,,,,,,,,,,,,,,,,,,,,20,female,2020-09-23_22h39.05.347,torte-2b,2020.1.3,Win32,60,13441,,,,,,,,,,,,,,0,1,1,1,1,7,,,,,,,,,,,,,,,,,,,,,,,,,,,,,,,,,,,,,,,,,,,,,,,
,,,,,,,,,,,,,,,,,,,,,,,20,female,2020-09-23_22h39.05.347,torte-2b,2020.1.3,Win32,60,13441,,,,,,,,,,,,,space,0,2,2,2,1,6,0.369,,,,,,,,,,,,,,,,,,,,,,,,,,,,,,,,,,,,,,,,,,,,,,
,,,,,,,,,,,,,,,,,,,,,,,20,female,2020-09-23_22h39.05.347,torte-2b,2020.1.3,Win32,60,13441,,,,,,,,,,,,,space,0,3,3,3,1,7,0.386,,,,,,,,,,,,,,,,,,,,,,,,,,,,,,,,,,,,,,,,,,,,,,
,,,,,,,,,,,,,,,,,,,,,,,20,female,2020-09-23_22h39.05.347,torte-2b,2020.1.3,Win32,60,13441,,,,,,,,,,,,,,0,4,4,4,1,5,,,,,,,,,,,,,,,,,,,,,,,,,,,,,,,,,,,,,,,,,,,,,,,
,,,,,,,,,,,,,,,,,,,,,,,20,female,2020-09-23_22h39.05.347,torte-2b,2020.1.3,Win32,60,13441,,,,,,,,,,,,,,0,5,5,5,1,7,,,,,,,,,,,,,,,,,,,,,,,,,,,,,,,,,,,,,,,,,,,,,,,
,,,,,,,,,,,,,,,,,,,,,,,20,female,2020-09-23_22h39.05.347,torte-2b,2020.1.3,Win32,60,13441,,,,,,,,,,,,,,0,6,6,6,1,2,,,,,,,,,,,,,,,,,,,,,,,,,,,,,,,,,,,,,,,,,,,,,,,
,,,,,,,,,,,,,,,,,,,,,,,20,female,2020-09-23_22h39.05.347,torte-2b,2020.1.3,Win32,60,13441,,,,,,,,,,,,,space,0,7,7,7,1,4,1.338,,,,,,,,,,,,,,,,,,,,,,,,,,,,,,,,,,,,,,,,,,,,,,
,,,,,,,,,,,,,,,,,,,,,,,20,female,2020-09-23_22h39.05.347,torte-2b,2020.1.3,Win32,60,13441,,,,,,,,,,,,,,0,8,8,8,1,7,,,,,,,,,,,,,,,,,,,,,,,,,,,,,,,,,,,,,,,,,,,,,,,
,,,,,,,,,,,,,,,,,,,,,,,20,female,2020-09-23_22h39.05.347,torte-2b,2020.1.3,Win32,60,13441,,,,,,,,,,,,,,0,9,9,9,1,4,,,,,,,,,,,,,,,,,,,,,,,,,,,,,,,,,,,,,,,,,,,,,,,
,,,,,,,,,,,,,,,,,,,,,,,20,female,2020-09-23_22h39.05.347,torte-2b,2020.1.3,Win32,60,13441,,,,,,,,,,,,,space,0,10,10,10,1,7,1.202,,,,,,,,,,,,,,,,,,,,,,,,,,,,,,,,,,,,,,,,,,,,,,
,,,,,,,,,,,,,,,,,,,,,,,20,female,2020-09-23_22h39.05.347,torte-2b,2020.1.3,Win32,60,13441,,,,,,,,,,,,,space,0,11,11,11,1,7,0.854,,,,,,,,,,,,,,,,,,,,,,,,,,,,,,,,,,,,,,,,,,,,,,
,,,,,,,,,,,,,,,,,,,,,,,20,female,2020-09-23_22h39.05.347,torte-2b,2020.1.3,Win32,60,13441,,,,,,,,,,,,,space,0,12,12,12,1,7,1.921,,,,,,,,,,,,,,,,,,,,,,,,,,,,,,,,,,,,,,,,,,,,,,
,,,,,,,,,,,,,,,,,,,,,,,20,female,2020-09-23_22h39.05.347,torte-2b,2020.1.3,Win32,60,13441,,,,,,,,,,,,,space,0,13,13,13,1,4,0.619,,,,,,,,,,,,,,,,,,,,,,,,,,,,,,,,,,,,,,,,,,,,,,
,,,,,,,,,,,,,,,,,,,,,,,20,female,2020-09-23_22h39.05.347,torte-2b,2020.1.3,Win32,60,13441,,,,,,,,,,,,,,0,14,14,14,1,6,,,,,,,,,,,,,,,,,,,,,,,,,,,,,,,,,,,,,,,,,,,,,,,
,,,,,,,,,,,,,,,,,,,,,,,20,female,2020-09-23_22h39.05.347,torte-2b,2020.1.3,Win32,60,13441,,,,,,,,,,,,,,0,15,15,15,1,4,,,,,,,,,,,,,,,,,,,,,,,,,,,,,,,,,,,,,,,,,,,,,,,
,,,,,,,,,,,,,,,,,,,,,,,20,female,2020-09-23_22h39.05.347,torte-2b,2020.1.3,Win32,60,13441,,,,,,,,,,,,,,0,16,16,16,1,6,,,,,,,,,,,,,,,,,,,,,,,,,,,,,,,,,,,,,,,,,,,,,,,
,,,,,,,,,,,,,,,,,,,,,,,20,female,2020-09-23_22h39.05.347,torte-2b,2020.1.3,Win32,60,13441,,,,,,,,,,,,,,0,17,17,17,1,7,,,,,,,,,,,,,,,,,,,,,,,,,,,,,,,,,,,,,,,,,,,,,,,
,,,,,,,,,,,,,,,,,,,,,,,20,female,2020-09-23_22h39.05.347,torte-2b,2020.1.3,Win32,60,13441,,,,,,,,,,,,,,0,18,18,18,1,6,,,,,,,,,,,,,,,,,,,,,,,,,,,,,,,,,,,,,,,,,,,,,,,
,,,,,,,,,,,,,,,,,,,,,,,20,female,2020-09-23_22h39.05.347,torte-2b,2020.1.3,Win32,60,13441,,,,,,,,,,,,,,0,19,19,19,1,7,,,,,,,,,,,,,,,,,,,,,,,,,,,,,,,,,,,,,,,,,,,,,,,
,,,,,,,,,,,,,,,,,,,,,,,20,female,2020-09-23_22h39.05.347,torte-2b,2020.1.3,Win32,60,13441,,,,,,,,,,,,,,0,20,20,20,1,5,,,,,,,,,,,,,,,,,,,,,,,,,,,,,,,,,,,,,,,,,,,,,,,
,,,,,,,,,,,,,,,,,,,,,,,20,female,2020-09-23_22h39.05.347,torte-2b,2020.1.3,Win32,60,13441,,,,,,,,,,,,,,0,21,21,21,1,1,,,,,,,,,,,,,,,,,,,,,,,,,,,,,,,,,,,,,,,,,,,,,,,
,,,,,,,,,,,,,,,,,,,,,,,20,female,2020-09-23_22h39.05.347,torte-2b,2020.1.3,Win32,60,13441,,,,,,,,,,,,,,0,22,22,22,1,6,,,,,,,,,,,,,,,,,,,,,,,,,,,,,,,,,,,,,,,,,,,,,,,
,,,,,,,,,,,,,,,,,,,,,,,20,female,2020-09-23_22h39.05.347,torte-2b,2020.1.3,Win32,60,13441,,,,,,,,,,,,,space,0,23,23,23,1,1,0.92,,,,,,,,,,,,,,,,,,,,,,,,,,,,,,,,,,,,,,,,,,,,,,
,,,,,,,,,,,,,,,,,,,,,,,20,female,2020-09-23_22h39.05.347,torte-2b,2020.1.3,Win32,60,13441,,,,,,,,,,,,,,0,24,24,24,1,5,,,,,,,,,,,,,,,,,,,,,,,,,,,,,,,,,,,,,,,,,,,,,,,
,,,,,,,,,,,,,,,,,,,,,,,20,female,2020-09-23_22h39.05.347,torte-2b,2020.1.3,Win32,60,13441,,,,,,,,,,,,,,0,25,25,25,1,6,,,,,,,,,,,,,,,,,,,,,,,,,,,,,,,,,,,,,,,,,,,,,,,
,,,,,,,,,,,,,,,,,,,,,,,20,female,2020-09-23_22h39.05.347,torte-2b,2020.1.3,Win32,60,13441,,,,,,,,,,,,,,0,26,26,26,1,6,,,,,,,,,,,,,,,,,,,,,,,,,,,,,,,,,,,,,,,,,,,,,,,
,,,,,,,,,,,,,,,,,,,,,,,20,female,2020-09-23_22h39.05.347,torte-2b,2020.1.3,Win32,60,13441,,,,,,,,,,,,,,0,27,27,27,1,6,,,,,,,,,,,,,,,,,,,,,,,,,,,,,,,,,,,,,,,,,,,,,,,
,,,,,,,,,,,,,,,,,,,,,,,20,female,2020-09-23_22h39.05.347,torte-2b,2020.1.3,Win32,60,13441,,,,,,,,,,,,,,0,28,28,28,1,5,,,,,,,,,,,,,,,,,,,,,,,,,,,,,,,,,,,,,,,,,,,,,,,
,,,,,,,,,,,,,,,,,,,,,,,20,female,2020-09-23_22h39.05.347,torte-2b,2020.1.3,Win32,60,13441,,,,,,,,,,,,,,0,29,29,29,1,2,,,,,,,,,,,,,,,,,,,,,,,,,,,,,,,,,,,,,,,,,,,,,,,
,,,,,,,,,,,,,,,,,,,,,,,20,female,2020-09-23_22h39.05.347,torte-2b,2020.1.3,Win32,60,13441,,,,,,,,,,,,,,0,30,30,30,1,5,,,,,,,,,,,,,,,,,,,,,,,,,,,,,,,,,,,,,,,,,,,,,,,
,,,,,,,,,,,,,,,,,,,,,,,20,female,2020-09-23_22h39.05.347,torte-2b,2020.1.3,Win32,60,13441,,,,,,,,,,,,,,0,31,31,31,1,2,,,,,,,,,,,,,,,,,,,,,,,,,,,,,,,,,,,,,,,,,,,,,,,
,,,,,,,,,,,,,,,,,,,,,,,20,female,2020-09-23_22h39.05.347,torte-2b,2020.1.3,Win32,60,13441,,,,,,,,,,,,,,0,32,32,32,1,5,,,,,,,,,,,,,,,,,,,,,,,,,,,,,,,,,,,,,,,,,,,,,,,
,,,,,,,,,,,,,,,,,,,,,,,20,female,2020-09-23_22h39.05.347,torte-2b,2020.1.3,Win32,60,13441,,,,,,,,,,,,,,0,33,33,33,1,1,,,,,,,,,,,,,,,,,,,,,,,,,,,,,,,,,,,,,,,,,,,,,,,
,,,,,,,,,,,,,,,,,,,,,,,20,female,2020-09-23_22h39.05.347,torte-2b,2020.1.3,Win32,60,13441,,,,,,,,,,,,,,0,34,34,34,1,1,,,,,,,,,,,,,,,,,,,,,,,,,,,,,,,,,,,,,,,,,,,,,,,
,,,,,,,,,,,,,,,,,,,,,,,20,female,2020-09-23_22h39.05.347,torte-2b,2020.1.3,Win32,60,13441,,,,,,,,,,,,,,,,,,,2,,0,0,0,0,1,,,,,,,,,,,,,,,,,,,,,,,,,,,,,,,,,,,,,,,,,
,,,,,,,,,,,,,,,,,,,,,,,20,female,2020-09-23_22h39.05.347,torte-2b,2020.1.3,Win32,60,13441,,,,,,,,,,,,,,,,,,,2,,0,1,1,1,1,,,,,,,,,,,,,,,,,,,,,,,,,,,,,,,,,,,,,,,,,
,,,,,,,,,,,,,,,,,,,,,,,20,female,2020-09-23_22h39.05.347,torte-2b,2020.1.3,Win32,60,13441,,,,,,,,,,,,,,,,,,,6,,0,2,2,2,1,,,,,,,,,,,,,,,,,,,,,,,,,,,,,,,,,,,,,,,,,
,,,,,,,,,,,,,,,,,,,,,,,20,female,2020-09-23_22h39.05.347,torte-2b,2020.1.3,Win32,60,13441,,,,,,,,,,,,,space,,,,,,2,1.855,0,3,3,3,1,,,,,,,,,,,,,,,,,,,,,,,,,,,,,,,,,,,,,,,,,
,,,,,,,,,,,,,,,,,,,,,,,20,female,2020-09-23_22h39.05.347,torte-2b,2020.1.3,Win32,60,13441,,,,,,,,,,,,,space,,,,,,6,0.669,0,4,4,4,1,,,,,,,,,,,,,,,,,,,,,,,,,,,,,,,,,,,,,,,,,
,,,,,,,,,,,,,,,,,,,,,,,20,female,2020-09-23_22h39.05.347,torte-2b,2020.1.3,Win32,60,13441,,,,,,,,,,,,,,,,,,,2,,0,5,5,5,1,,,,,,,,,,,,,,,,,,,,,,,,,,,,,,,,,,,,,,,,,
,,,,,,,,,,,,,,,,,,,,,,,20,female,2020-09-23_22h39.05.347,torte-2b,2020.1.3,Win32,60,13441,,,,,,,,,,,,,,,,,,,7,,0,6,6,6,1,,,,,,,,,,,,,,,,,,,,,,,,,,,,,,,,,,,,,,,,,
,,,,,,,,,,,,,,,,,,,,,,,20,female,2020-09-23_22h39.05.347,torte-2b,2020.1.3,Win32,60,13441,,,,,,,,,,,,,,,,,,,2,,0,7,7,7,1,,,,,,,,,,,,,,,,,,,,,,,,,,,,,,,,,,,,,,,,,
,,,,,,,,,,,,,,,,,,,,,,,20,female,2020-09-23_22h39.05.347,torte-2b,2020.1.3,Win32,60,13441,,,,,,,,,,,,,space,,,,,,7,1.805,0,8,8,8,1,,,,,,,,,,,,,,,,,,,,,,,,,,,,,,,,,,,,,,,,,
,,,,,,,,,,,,,,,,,,,,,,,20,female,2020-09-23_22h39.05.347,torte-2b,2020.1.3,Win32,60,13441,,,,,,,,,,,,,space,,,,,,2,1.703,0,9,9,9,1,,,,,,,,,,,,,,,,,,,,,,,,,,,,,,,,,,,,,,,,,
,,,,,,,,,,,,,,,,,,,,,,,20,female,2020-09-23_22h39.05.347,torte-2b,2020.1.3,Win32,60,13441,,,,,,,,,,,,,space,,,,,,5,0.051,0,10,10,10,1,,,,,,,,,,,,,,,,,,,,,,,,,,,,,,,,,,,,,,,,,
,,,,,,,,,,,,,,,,,,,,,,,20,female,2020-09-23_22h39.05.347,torte-2b,2020.1.3,Win32,60,13441,,,,,,,,,,,,,,,,,,,4,,0,11,11,11,1,,,,,,,,,,,,,,,,,,,,,,,,,,,,,,,,,,,,,,,,,
,,,,,,,,,,,,,,,,,,,,,,,20,female,2020-09-23_22h39.05.347,torte-2b,2020.1.3,Win32,60,13441,,,,,,,,,,,,,,,,,,,5,,0,12,12,12,1,,,,,,,,,,,,,,,,,,,,,,,,,,,,,,,,,,,,,,,,,
,,,,,,,,,,,,,,,,,,,,,,,20,female,2020-09-23_22h39.05.347,torte-2b,2020.1.3,Win32,60,13441,,,,,,,,,,,,,,,,,,,6,,0,13,13,13,1,,,,,,,,,,,,,,,,,,,,,,,,,,,,,,,,,,,,,,,,,
,,,,,,,,,,,,,,,,,,,,,,,20,female,2020-09-23_22h39.05.347,torte-2b,2020.1.3,Win32,60,13441,,,,,,,,,,,,,,,,,,,5,,0,14,14,14,1,,,,,,,,,,,,,,,,,,,,,,,,,,,,,,,,,,,,,,,,,
,,,,,,,,,,,,,,,,,,,,,,,20,female,2020-09-23_22h39.05.347,torte-2b,2020.1.3,Win32,60,13441,,,,,,,,,,,,,space,,,,,,4,0.084,0,15,15,15,1,,,,,,,,,,,,,,,,,,,,,,,,,,,,,,,,,,,,,,,,,
,,,,,,,,,,,,,,,,,,,,,,,20,female,2020-09-23_22h39.05.347,torte-2b,2020.1.3,Win32,60,13441,,,,,,,,,,,,,,,,,,,5,,0,16,16,16,1,,,,,,,,,,,,,,,,,,,,,,,,,,,,,,,,,,,,,,,,,
,,,,,,,,,,,,,,,,,,,,,,,20,female,2020-09-23_22h39.05.347,torte-2b,2020.1.3,Win32,60,13441,,,,,,,,,,,,,,,,,,,3,,0,17,17,17,1,,,,,,,,,,,,,,,,,,,,,,,,,,,,,,,,,,,,,,,,,
,,,,,,,,,,,,,,,,,,,,,,,20,female,2020-09-23_22h39.05.347,torte-2b,2020.1.3,Win32,60,13441,,,,,,,,,,,,,space,,,,,,6,1.872,0,18,18,18,1,,,,,,,,,,,,,,,,,,,,,,,,,,,,,,,,,,,,,,,,,
,,,,,,,,,,,,,,,,,,,,,,,20,female,2020-09-23_22h39.05.347,torte-2b,2020.1.3,Win32,60,13441,,,,,,,,,,,,,space,,,,,,6,0.819,0,19,19,19,1,,,,,,,,,,,,,,,,,,,,,,,,,,,,,,,,,,,,,,,,,
,,,,,,,,,,,,,,,,,,,,,,,20,female,2020-09-23_22h39.05.347,torte-2b,2020.1.3,Win32,60,13441,,,,,,,,,,,,,,,,,,,6,,0,20,20,20,1,,,,,,,,,,,,,,,,,,,,,,,,,,,,,,,,,,,,,,,,,
,,,,,,,,,,,,,,,,,,,,,,,20,female,2020-09-23_22h39.05.347,torte-2b,2020.1.3,Win32,60,13441,,,,,,,,,,,,,,,,,,,4,,0,21,21,21,1,,,,,,,,,,,,,,,,,,,,,,,,,,,,,,,,,,,,,,,,,
,,,,,,,,,,,,,,,,,,,,,,,20,female,2020-09-23_22h39.05.347,torte-2b,2020.1.3,Win32,60,13441,,,,,,,,,,,,,,,,,,,6,,0,22,22,22,1,,,,,,,,,,,,,,,,,,,,,,,,,,,,,,,,,,,,,,,,,
,,,,,,,,,,,,,,,,,,,,,,,20,female,2020-09-23_22h39.05.347,torte-2b,2020.1.3,Win32,60,13441,,,,,,,,,,,,,,,,,,,4,,0,23,23,23,1,,,,,,,,,,,,,,,,,,,,,,,,,,,,,,,,,,,,,,,,,
,,,,,,,,,,,,,,,,,,,,,,,20,female,2020-09-23_22h39.05.347,torte-2b,2020.1.3,Win32,60,13441,,,,,,,,,,,,,,,,,,,6,,0,24,24,24,1,,,,,,,,,,,,,,,,,,,,,,,,,,,,,,,,,,,,,,,,,
,,,,,,,,,,,,,,,,,,,,,,,20,female,2020-09-23_22h39.05.347,torte-2b,2020.1.3,Win32,60,13441,,,,,,,,,,,,,,,,,,,6,,0,25,25,25,1,,,,,,,,,,,,,,,,,,,,,,,,,,,,,,,,,,,,,,,,,
,,,,,,,,,,,,,,,,,,,,,,,20,female,2020-09-23_22h39.05.347,torte-2b,2020.1.3,Win32,60,13441,,,,,,,,,,,,,,,,,,,7,,0,26,26,26,1,,,,,,,,,,,,,,,,,,,,,,,,,,,,,,,,,,,,,,,,,
,,,,,,,,,,,,,,,,,,,,,,,20,female,2020-09-23_22h39.05.347,torte-2b,2020.1.3,Win32,60,13441,,,,,,,,,,,,,,,,,,,1,,0,27,27,27,1,,,,,,,,,,,,,,,,,,,,,,,,,,,,,,,,,,,,,,,,,
,,,,,,,,,,,,,,,,,,,,,,,20,female,2020-09-23_22h39.05.347,torte-2b,2020.1.3,Win32,60,13441,,,,,,,,,,,,,,,,,,,7,,0,28,28,28,1,,,,,,,,,,,,,,,,,,,,,,,,,,,,,,,,,,,,,,,,,
,,,,,,,,,,,,,,,,,,,,,,,20,female,2020-09-23_22h39.05.347,torte-2b,2020.1.3,Win32,60,13441,,,,,,,,,,,,,,,,,,,4,,0,29,29,29,1,,,,,,,,,,,,,,,,,,,,,,,,,,,,,,,,,,,,,,,,,
,,,,,,,,,,,,,,,,,,,,,,,20,female,2020-09-23_22h39.05.347,torte-2b,2020.1.3,Win32,60,13441,,,,,,,,,,,,,,,,,,,7,,0,30,30,30,1,,,,,,,,,,,,,,,,,,,,,,,,,,,,,,,,,,,,,,,,,
,,,,,,,,,,,,,,,,,,,,,,,20,female,2020-09-23_22h39.05.347,torte-2b,2020.1.3,Win32,60,13441,,,,,,,,,,,,,,,,,,,3,,0,31,31,31,1,,,,,,,,,,,,,,,,,,,,,,,,,,,,,,,,,,,,,,,,,
,,,,,,,,,,,,,,,,,,,,,,,20,female,2020-09-23_22h39.05.347,torte-2b,2020.1.3,Win32,60,13441,,,,,,,,,,,,,,,,,,,2,,0,32,32,32,1,,,,,,,,,,,,,,,,,,,,,,,,,,,,,,,,,,,,,,,,,
,,,,,,,,,,,,,,,,,,,,,,,20,female,2020-09-23_22h39.05.347,torte-2b,2020.1.3,Win32,60,13441,,,,,,,,,,,,,,,,,,,6,,0,33,33,33,1,,,,,,,,,,,,,,,,,,,,,,,,,,,,,,,,,,,,,,,,,
,,,,,,,,,,,,,,,,,,,,,,,20,female,2020-09-23_22h39.05.347,torte-2b,2020.1.3,Win32,60,13441,,,,,,,,,,,,,,,,,,,3,,0,34,34,34,1,,,,,,,,,,,,,,,,,,,,,,,,,,,,,,,,,,,,,,,,,
,,,,,,,,,,,,,,,,,,,,,,,20,female,2020-09-23_22h39.05.347,torte-2b,2020.1.3,Win32,60,13441,,,,,,,,,,,,,,,,,,,7,,,,,,,0,0,0,0,1,,,,,,,,,,,,,,,,,,,,,,,,,,,,,,,,,,,,
,,,,,,,,,,,,,,,,,,,,,,,20,female,2020-09-23_22h39.05.347,torte-2b,2020.1.3,Win32,60,13441,,,,,,,,,,,,,,,,,,,5,,,,,,,0,1,1,1,1,,,,,,,,,,,,,,,,,,,,,,,,,,,,,,,,,,,,
,,,,,,,,,,,,,,,,,,,,,,,20,female,2020-09-23_22h39.05.347,torte-2b,2020.1.3,Win32,60,13441,,,,,,,,,,,,,,,,,,,4,,,,,,,0,2,2,2,1,,,,,,,,,,,,,,,,,,,,,,,,,,,,,,,,,,,,
,,,,,,,,,,,,,,,,,,,,,,,20,female,2020-09-23_22h39.05.347,torte-2b,2020.1.3,Win32,60,13441,,,,,,,,,,,,,,,,,,,5,,,,,,,0,3,3,3,1,,,,,,,,,,,,,,,,,,,,,,,,,,,,,,,,,,,,
,,,,,,,,,,,,,,,,,,,,,,,20,female,2020-09-23_22h39.05.347,torte-2b,2020.1.3,Win32,60,13441,,,,,,,,,,,,,,,,,,,6,,,,,,,0,4,4,4,1,,,,,,,,,,,,,,,,,,,,,,,,,,,,,,,,,,,,
,,,,,,,,,,,,,,,,,,,,,,,20,female,2020-09-23_22h39.05.347,torte-2b,2020.1.3,Win32,60,13441,,,,,,,,,,,,,,,,,,,5,,,,,,,0,5,5,5,1,,,,,,,,,,,,,,,,,,,,,,,,,,,,,,,,,,,,
,,,,,,,,,,,,,,,,,,,,,,,20,female,2020-09-23_22h39.05.347,torte-2b,2020.1.3,Win32,60,13441,,,,,,,,,,,,,space,,,,,,3,1.688,,,,,,0,6,6,6,1,,,,,,,,,,,,,,,,,,,,,,,,,,,,,,,,,,,,
,,,,,,,,,,,,,,,,,,,,,,,20,female,2020-09-23_22h39.05.347,torte-2b,2020.1.3,Win32,60,13441,,,,,,,,,,,,,,,,,,,4,,,,,,,0,7,7,7,1,,,,,,,,,,,,,,,,,,,,,,,,,,,,,,,,,,,,
,,,,,,,,,,,,,,,,,,,,,,,20,female,2020-09-23_22h39.05.347,torte-2b,2020.1.3,Win32,60,13441,,,,,,,,,,,,,,,,,,,3,,,,,,,0,8,8,8,1,,,,,,,,,,,,,,,,,,,,,,,,,,,,,,,,,,,,
,,,,,,,,,,,,,,,,,,,,,,,20,female,2020-09-23_22h39.05.347,torte-2b,2020.1.3,Win32,60,13441,,,,,,,,,,,,,,,,,,,1,,,,,,,0,9,9,9,1,,,,,,,,,,,,,,,,,,,,,,,,,,,,,,,,,,,,
,,,,,,,,,,,,,,,,,,,,,,,20,female,2020-09-23_22h39.05.347,torte-2b,2020.1.3,Win32,60,13441,,,,,,,,,,,,,,,,,,,2,,,,,,,0,10,10,10,1,,,,,,,,,,,,,,,,,,,,,,,,,,,,,,,,,,,,
,,,,,,,,,,,,,,,,,,,,,,,20,female,2020-09-23_22h39.05.347,torte-2b,2020.1.3,Win32,60,13441,,,,,,,,,,,,,,,,,,,1,,,,,,,0,11,11,11,1,,,,,,,,,,,,,,,,,,,,,,,,,,,,,,,,,,,,
,,,,,,,,,,,,,,,,,,,,,,,20,female,2020-09-23_22h39.05.347,torte-2b,2020.1.3,Win32,60,13441,,,,,,,,,,,,,,,,,,,2,,,,,,,0,12,12,12,1,,,,,,,,,,,,,,,,,,,,,,,,,,,,,,,,,,,,
,,,,,,,,,,,,,,,,,,,,,,,20,female,2020-09-23_22h39.05.347,torte-2b,2020.1.3,Win32,60,13441,,,,,,,,,,,,,,,,,,,1,,,,,,,0,13,13,13,1,,,,,,,,,,,,,,,,,,,,,,,,,,,,,,,,,,,,
,,,,,,,,,,,,,,,,,,,,,,,20,female,2020-09-23_22h39.05.347,torte-2b,2020.1.3,Win32,60,13441,,,,,,,,,,,,,,,,,,,3,,,,,,,0,14,14,14,1,,,,,,,,,,,,,,,,,,,,,,,,,,,,,,,,,,,,
,,,,,,,,,,,,,,,,,,,,,,,20,female,2020-09-23_22h39.05.347,torte-2b,2020.1.3,Win32,60,13441,,,,,,,,,,,,,,,,,,,1,,,,,,,0,15,15,15,1,,,,,,,,,,,,,,,,,,,,,,,,,,,,,,,,,,,,
,,,,,,,,,,,,,,,,,,,,,,,20,female,2020-09-23_22h39.05.347,torte-2b,2020.1.3,Win32,60,13441,,,,,,,,,,,,,,,,,,,7,,,,,,,0,16,16,16,1,,,,,,,,,,,,,,,,,,,,,,,,,,,,,,,,,,,,
,,,,,,,,,,,,,,,,,,,,,,,20,female,2020-09-23_22h39.05.347,torte-2b,2020.1.3,Win32,60,13441,,,,,,,,,,,,,,,,,,,7,,,,,,,0,17,17,17,1,,,,,,,,,,,,,,,,,,,,,,,,,,,,,,,,,,,,
,,,,,,,,,,,,,,,,,,,,,,,20,female,2020-09-23_22h39.05.347,torte-2b,2020.1.3,Win32,60,13441,,,,,,,,,,,,,,,,,,,4,,,,,,,0,18,18,18,1,,,,,,,,,,,,,,,,,,,,,,,,,,,,,,,,,,,,
,,,,,,,,,,,,,,,,,,,,,,,20,female,2020-09-23_22h39.05.347,torte-2b,2020.1.3,Win32,60,13441,,,,,,,,,,,,,,,,,,,7,,,,,,,0,19,19,19,1,,,,,,,,,,,,,,,,,,,,,,,,,,,,,,,,,,,,
,,,,,,,,,,,,,,,,,,,,,,,20,female,2020-09-23_22h39.05.347,torte-2b,2020.1.3,Win32,60,13441,,,,,,,,,,,,,,,,,,,3,,,,,,,0,20,20,20,1,,,,,,,,,,,,,,,,,,,,,,,,,,,,,,,,,,,,
,,,,,,,,,,,,,,,,,,,,,,,20,female,2020-09-23_22h39.05.347,torte-2b,2020.1.3,Win32,60,13441,,,,,,,,,,,,,,,,,,,7,,,,,,,0,21,21,21,1,,,,,,,,,,,,,,,,,,,,,,,,,,,,,,,,,,,,
,,,,,,,,,,,,,,,,,,,,,,,20,female,2020-09-23_22h39.05.347,torte-2b,2020.1.3,Win32,60,13441,,,,,,,,,,,,,,,,,,,3,,,,,,,0,22,22,22,1,,,,,,,,,,,,,,,,,,,,,,,,,,,,,,,,,,,,
,,,,,,,,,,,,,,,,,,,,,,,20,female,2020-09-23_22h39.05.347,torte-2b,2020.1.3,Win32,60,13441,,,,,,,,,,,,,,,,,,,1,,,,,,,0,23,23,23,1,,,,,,,,,,,,,,,,,,,,,,,,,,,,,,,,,,,,
,,,,,,,,,,,,,,,,,,,,,,,20,female,2020-09-23_22h39.05.347,torte-2b,2020.1.3,Win32,60,13441,,,,,,,,,,,,,,,,,,,6,,,,,,,0,24,24,24,1,,,,,,,,,,,,,,,,,,,,,,,,,,,,,,,,,,,,
,,,,,,,,,,,,,,,,,,,,,,,20,female,2020-09-23_22h39.05.347,torte-2b,2020.1.3,Win32,60,13441,,,,,,,,,,,,,,,,,,,3,,,,,,,0,25,25,25,1,,,,,,,,,,,,,,,,,,,,,,,,,,,,,,,,,,,,
,,,,,,,,,,,,,,,,,,,,,,,20,female,2020-09-23_22h39.05.347,torte-2b,2020.1.3,Win32,60,13441,,,,,,,,,,,,,,,,,,,2,,,,,,,0,26,26,26,1,,,,,,,,,,,,,,,,,,,,,,,,,,,,,,,,,,,,
,,,,,,,,,,,,,,,,,,,,,,,20,female,2020-09-23_22h39.05.347,torte-2b,2020.1.3,Win32,60,13441,,,,,,,,,,,,,,,,,,,3,,,,,,,0,27,27,27,1,,,,,,,,,,,,,,,,,,,,,,,,,,,,,,,,,,,,
,,,,,,,,,,,,,,,,,,,,,,,20,female,2020-09-23_22h39.05.347,torte-2b,2020.1.3,Win32,60,13441,,,,,,,,,,,,,,,,,,,1,,,,,,,0,28,28,28,1,,,,,,,,,,,,,,,,,,,,,,,,,,,,,,,,,,,,
,,,,,,,,,,,,,,,,,,,,,,,20,female,2020-09-23_22h39.05.347,torte-2b,2020.1.3,Win32,60,13441,,,,,,,,,,,,,,,,,,,3,,,,,,,0,29,29,29,1,,,,,,,,,,,,,,,,,,,,,,,,,,,,,,,,,,,,
,,,,,,,,,,,,,,,,,,,,,,,20,female,2020-09-23_22h39.05.347,torte-2b,2020.1.3,Win32,60,13441,,,,,,,,,,,,,,,,,,,1,,,,,,,0,30,30,30,1,,,,,,,,,,,,,,,,,,,,,,,,,,,,,,,,,,,,
,,,,,,,,,,,,,,,,,,,,,,,20,female,2020-09-23_22h39.05.347,torte-2b,2020.1.3,Win32,60,13441,,,,,,,,,,,,,,,,,,,7,,,,,,,0,31,31,31,1,,,,,,,,,,,,,,,,,,,,,,,,,,,,,,,,,,,,
,,,,,,,,,,,,,,,,,,,,,,,20,female,2020-09-23_22h39.05.347,torte-2b,2020.1.3,Win32,60,13441,,,,,,,,,,,,,,,,,,,5,,,,,,,0,32,32,32,1,,,,,,,,,,,,,,,,,,,,,,,,,,,,,,,,,,,,
,,,,,,,,,,,,,,,,,,,,,,,20,female,2020-09-23_22h39.05.347,torte-2b,2020.1.3,Win32,60,13441,,,,,,,,,,,,,,,,,,,7,,,,,,,0,33,33,33,1,,,,,,,,,,,,,,,,,,,,,,,,,,,,,,,,,,,,
,,,,,,,,,,,,,,,,,,,,,,,20,female,2020-09-23_22h39.05.347,torte-2b,2020.1.3,Win32,60,13441,,,,,,,,,,,,,,,,,,,2,,,,,,,0,34,34,34,1,,,,,,,,,,,,,,,,,,,,,,,,,,,,,,,,,,,,
,,,,,,,,,,,,,,,,,,,,,,,20,female,2020-09-23_22h39.05.347,torte-2b,2020.1.3,Win32,60,13441,,,,,,,,,,,,,space,,,,,,3,0.485,,,,,,,,,,,0,0,0,0,1,,,,,,,,,,,,,,,,,,,,,,,,,,,,,,,
,,,,,,,,,,,,,,,,,,,,,,,20,female,2020-09-23_22h39.05.347,torte-2b,2020.1.3,Win32,60,13441,,,,,,,,,,,,,space,,,,,,7,0.502,,,,,,,,,,,0,1,1,1,1,,,,,,,,,,,,,,,,,,,,,,,,,,,,,,,
,,,,,,,,,,,,,,,,,,,,,,,20,female,2020-09-23_22h39.05.347,torte-2b,2020.1.3,Win32,60,13441,,,,,,,,,,,,,,,,,,,7,,,,,,,,,,,,0,2,2,2,1,,,,,,,,,,,,,,,,,,,,,,,,,,,,,,,
,,,,,,,,,,,,,,,,,,,,,,,20,female,2020-09-23_22h39.05.347,torte-2b,2020.1.3,Win32,60,13441,,,,,,,,,,,,,,,,,,,4,,,,,,,,,,,,0,3,3,3,1,,,,,,,,,,,,,,,,,,,,,,,,,,,,,,,
,,,,,,,,,,,,,,,,,,,,,,,20,female,2020-09-23_22h39.05.347,torte-2b,2020.1.3,Win32,60,13441,,,,,,,,,,,,,,,,,,,5,,,,,,,,,,,,0,4,4,4,1,,,,,,,,,,,,,,,,,,,,,,,,,,,,,,,
,,,,,,,,,,,,,,,,,,,,,,,20,female,2020-09-23_22h39.05.347,torte-2b,2020.1.3,Win32,60,13441,,,,,,,,,,,,,,,,,,,4,,,,,,,,,,,,0,5,5,5,1,,,,,,,,,,,,,,,,,,,,,,,,,,,,,,,
,,,,,,,,,,,,,,,,,,,,,,,20,female,2020-09-23_22h39.05.347,torte-2b,2020.1.3,Win32,60,13441,,,,,,,,,,,,,,,,,,,2,,,,,,,,,,,,0,6,6,6,1,,,,,,,,,,,,,,,,,,,,,,,,,,,,,,,
,,,,,,,,,,,,,,,,,,,,,,,20,female,2020-09-23_22h39.05.347,torte-2b,2020.1.3,Win32,60,13441,,,,,,,,,,,,,space,,,,,,4,1.252,,,,,,,,,,,0,7,7,7,1,,,,,,,,,,,,,,,,,,,,,,,,,,,,,,,
,,,,,,,,,,,,,,,,,,,,,,,20,female,2020-09-23_22h39.05.347,torte-2b,2020.1.3,Win32,60,13441,,,,,,,,,,,,,space,,,,,,2,0.837,,,,,,,,,,,0,8,8,8,1,,,,,,,,,,,,,,,,,,,,,,,,,,,,,,,
,,,,,,,,,,,,,,,,,,,,,,,20,female,2020-09-23_22h39.05.347,torte-2b,2020.1.3,Win32,60,13441,,,,,,,,,,,,,space,,,,,,2,0.217,,,,,,,,,,,0,9,9,9,1,,,,,,,,,,,,,,,,,,,,,,,,,,,,,,,
,,,,,,,,,,,,,,,,,,,,,,,20,female,2020-09-23_22h39.05.347,torte-2b,2020.1.3,Win32,60,13441,,,,,,,,,,,,,,,,,,,6,,,,,,,,,,,,0,10,10,10,1,,,,,,,,,,,,,,,,,,,,,,,,,,,,,,,
,,,,,,,,,,,,,,,,,,,,,,,20,female,2020-09-23_22h39.05.347,torte-2b,2020.1.3,Win32,60,13441,,,,,,,,,,,,,,,,,,,2,,,,,,,,,,,,0,11,11,11,1,,,,,,,,,,,,,,,,,,,,,,,,,,,,,,,
,,,,,,,,,,,,,,,,,,,,,,,20,female,2020-09-23_22h39.05.347,torte-2b,2020.1.3,Win32,60,13441,,,,,,,,,,,,,,,,,,,2,,,,,,,,,,,,0,12,12,12,1,,,,,,,,,,,,,,,,,,,,,,,,,,,,,,,
,,,,,,,,,,,,,,,,,,,,,,,20,female,2020-09-23_22h39.05.347,torte-2b,2020.1.3,Win32,60,13441,,,,,,,,,,,,,,,,,,,2,,,,,,,,,,,,0,13,13,13,1,,,,,,,,,,,,,,,,,,,,,,,,,,,,,,,
,,,,,,,,,,,,,,,,,,,,,,,20,female,2020-09-23_22h39.05.347,torte-2b,2020.1.3,Win32,60,13441,,,,,,,,,,,,,,,,,,,2,,,,,,,,,,,,0,14,14,14,1,,,,,,,,,,,,,,,,,,,,,,,,,,,,,,,
,,,,,,,,,,,,,,,,,,,,,,,20,female,2020-09-23_22h39.05.347,torte-2b,2020.1.3,Win32,60,13441,,,,,,,,,,,,,,,,,,,4,,,,,,,,,,,,0,15,15,15,1,,,,,,,,,,,,,,,,,,,,,,,,,,,,,,,
,,,,,,,,,,,,,,,,,,,,,,,20,female,2020-09-23_22h39.05.347,torte-2b,2020.1.3,Win32,60,13441,,,,,,,,,,,,,,,,,,,3,,,,,,,,,,,,0,16,16,16,1,,,,,,,,,,,,,,,,,,,,,,,,,,,,,,,
,,,,,,,,,,,,,,,,,,,,,,,20,female,2020-09-23_22h39.05.347,torte-2b,2020.1.3,Win32,60,13441,,,,,,,,,,,,,,,,,,,7,,,,,,,,,,,,0,17,17,17,1,,,,,,,,,,,,,,,,,,,,,,,,,,,,,,,
,,,,,,,,,,,,,,,,,,,,,,,20,female,2020-09-23_22h39.05.347,torte-2b,2020.1.3,Win32,60,13441,,,,,,,,,,,,,,,,,,,4,,,,,,,,,,,,0,18,18,18,1,,,,,,,,,,,,,,,,,,,,,,,,,,,,,,,
,,,,,,,,,,,,,,,,,,,,,,,20,female,2020-09-23_22h39.05.347,torte-2b,2020.1.3,Win32,60,13441,,,,,,,,,,,,,,,,,,,7,,,,,,,,,,,,0,19,19,19,1,,,,,,,,,,,,,,,,,,,,,,,,,,,,,,,
,,,,,,,,,,,,,,,,,,,,,,,20,female,2020-09-23_22h39.05.347,torte-2b,2020.1.3,Win32,60,13441,,,,,,,,,,,,,,,,,,,7,,,,,,,,,,,,0,20,20,20,1,,,,,,,,,,,,,,,,,,,,,,,,,,,,,,,
,,,,,,,,,,,,,,,,,,,,,,,20,female,2020-09-23_22h39.05.347,torte-2b,2020.1.3,Win32,60,13441,,,,,,,,,,,,,,,,,,,7,,,,,,,,,,,,0,21,21,21,1,,,,,,,,,,,,,,,,,,,,,,,,,,,,,,,
,,,,,,,,,,,,,,,,,,,,,,,20,female,2020-09-23_22h39.05.347,torte-2b,2020.1.3,Win32,60,13441,,,,,,,,,,,,,,,,,,,7,,,,,,,,,,,,0,22,22,22,1,,,,,,,,,,,,,,,,,,,,,,,,,,,,,,,
,,,,,,,,,,,,,,,,,,,,,,,20,female,2020-09-23_22h39.05.347,torte-2b,2020.1.3,Win32,60,13441,,,,,,,,,,,,,,,,,,,1,,,,,,,,,,,,0,23,23,23,1,,,,,,,,,,,,,,,,,,,,,,,,,,,,,,,
,,,,,,,,,,,,,,,,,,,,,,,20,female,2020-09-23_22h39.05.347,torte-2b,2020.1.3,Win32,60,13441,,,,,,,,,,,,,,,,,,,7,,,,,,,,,,,,0,24,24,24,1,,,,,,,,,,,,,,,,,,,,,,,,,,,,,,,
,,,,,,,,,,,,,,,,,,,,,,,20,female,2020-09-23_22h39.05.347,torte-2b,2020.1.3,Win32,60,13441,,,,,,,,,,,,,,,,,,,1,,,,,,,,,,,,0,25,25,25,1,,,,,,,,,,,,,,,,,,,,,,,,,,,,,,,
,,,,,,,,,,,,,,,,,,,,,,,20,female,2020-09-23_22h39.05.347,torte-2b,2020.1.3,Win32,60,13441,,,,,,,,,,,,,,,,,,,7,,,,,,,,,,,,0,26,26,26,1,,,,,,,,,,,,,,,,,,,,,,,,,,,,,,,
,,,,,,,,,,,,,,,,,,,,,,,20,female,2020-09-23_22h39.05.347,torte-2b,2020.1.3,Win32,60,13441,,,,,,,,,,,,,,,,,,,2,,,,,,,,,,,,0,27,27,27,1,,,,,,,,,,,,,,,,,,,,,,,,,,,,,,,
,,,,,,,,,,,,,,,,,,,,,,,20,female,2020-09-23_22h39.05.347,torte-2b,2020.1.3,Win32,60,13441,,,,,,,,,,,,,,,,,,,5,,,,,,,,,,,,0,28,28,28,1,,,,,,,,,,,,,,,,,,,,,,,,,,,,,,,
,,,,,,,,,,,,,,,,,,,,,,,20,female,2020-09-23_22h39.05.347,torte-2b,2020.1.3,Win32,60,13441,,,,,,,,,,,,,,,,,,,5,,,,,,,,,,,,0,29,29,29,1,,,,,,,,,,,,,,,,,,,,,,,,,,,,,,,
,,,,,,,,,,,,,,,,,,,,,,,20,female,2020-09-23_22h39.05.347,torte-2b,2020.1.3,Win32,60,13441,,,,,,,,,,,,,,,,,,,5,,,,,,,,,,,,0,30,30,30,1,,,,,,,,,,,,,,,,,,,,,,,,,,,,,,,
,,,,,,,,,,,,,,,,,,,,,,,20,female,2020-09-23_22h39.05.347,torte-2b,2020.1.3,Win32,60,13441,,,,,,,,,,,,,,,,,,,1,,,,,,,,,,,,0,31,31,31,1,,,,,,,,,,,,,,,,,,,,,,,,,,,,,,,
,,,,,,,,,,,,,,,,,,,,,,,20,female,2020-09-23_22h39.05.347,torte-2b,2020.1.3,Win32,60,13441,,,,,,,,,,,,,,,,,,,5,,,,,,,,,,,,0,32,32,32,1,,,,,,,,,,,,,,,,,,,,,,,,,,,,,,,
,,,,,,,,,,,,,,,,,,,,,,,20,female,2020-09-23_22h39.05.347,torte-2b,2020.1.3,Win32,60,13441,,,,,,,,,,,,,,,,,,,3,,,,,,,,,,,,0,33,33,33,1,,,,,,,,,,,,,,,,,,,,,,,,,,,,,,,
,,,,,,,,,,,,,,,,,,,,,,,20,female,2020-09-23_22h39.05.347,torte-2b,2020.1.3,Win32,60,13441,,,,,,,,,,,,,,,,,,,3,,,,,,,,,,,,0,34,34,34,1,,,,,,,,,,,,,,,,,,,,,,,,,,,,,,,
,,,,,,,,,,,,l,Correct!,,,,,,t5.png,t2.png,3,0.0000131,20,female,2020-09-23_22h39.05.347,torte-2b,2020.1.3,Win32,60,13441,1.07,space,23.546,,,,,,,,,,,,,,,,,,,,,,,,,,,,,,,,,space,11.807,0,0,0,91,1,,,,,,,,,,,,,,,,,,,,,,,,
,,,,,,,,,,,,a,Incorrect,,,,,,t5.png,t3.png,2,0.056466,20,female,2020-09-23_22h39.05.347,torte-2b,2020.1.3,Win32,60,13441,0.518,,,,,,,,,,,,,,,,,,,,,,,,,,,,,,,,,,,,,0,1,1,108,1,,,,,,,,,,,,,,,,,,,,,,,,
,,,,,,,,,,,,l,Incorrect,,,,,,t5.png,t4.png,1,0.90025,20,female,2020-09-23_22h39.05.347,torte-2b,2020.1.3,Win32,60,13441,0.018,,,,,,,,,,,,,,,,,,,,,,,,,,,,,,,,,,,,,0,2,2,34,1,,,,,,,,,,,,,,,,,,,,,,,,
,,,,,,,,,,,,l,Correct!,,,,,,t1.png,t3.png,2,0.056466,20,female,2020-09-23_22h39.05.347,torte-2b,2020.1.3,Win32,60,13441,0.035,,,,,,,,,,,,,,,,,,,,,,,,,,,,,,,,,,,,,0,3,3,63,1,,,,,,,,,,,,,,,,,,,,,,,,
,,,,,,,,,,,,a,Incorrect,,,,,,t4.png,t1.png,3,0.0000131,20,female,2020-09-23_22h39.05.347,torte-2b,2020.1.3,Win32,60,13441,0.085,,,,,,,,,,,,,,,,,,,,,,,,,,,,,,,,,,,,,0,4,4,61,1,,,,,,,,,,,,,,,,,,,,,,,,
,,,,,,,,,,,,a,Correct!,,,,,,t2.png,t3.png,1,0.90855,20,female,2020-09-23_22h39.05.347,torte-2b,2020.1.3,Win32,60,13441,0.001,,,,,,,,,,,,,,,,,,,,,,,,,,,,,,,,,,,,,0,5,5,10,1,,,,,,,,,,,,,,,,,,,,,,,,
,,,,,,,,,,,,l,Incorrect,,,,,,t1.png,t2.png,1,0.90025,20,female,2020-09-23_22h39.05.347,torte-2b,2020.1.3,Win32,60,13441,0.084,,,,,,,,,,,,,,,,,,,,,,,,,,,,,,,,,,,,,0,6,6,105,1,,,,,,,,,,,,,,,,,,,,,,,,
,,,,,,,,,,,,a,Incorrect,,,,,,t4.png,t1.png,3,0.0000131,20,female,2020-09-23_22h39.05.347,torte-2b,2020.1.3,Win32,60,13441,0.135,,,,,,,,,,,,,,,,,,,,,,,,,,,,,,,,,,,,,0,7,7,42,1,,,,,,,,,,,,,,,,,,,,,,,,
,,,,,,,,,,,,l,Incorrect,,,,,,t2.png,t3.png,1,0.90855,20,female,2020-09-23_22h39.05.347,torte-2b,2020.1.3,Win32,60,13441,0.101,,,,,,,,,,,,,,,,,,,,,,,,,,,,,,,,,,,,,0,8,8,65,1,,,,,,,,,,,,,,,,,,,,,,,,
,,,,,,,,,,,,l,Incorrect,,,,,,t5.png,t4.png,1,0.9,20,female,2020-09-23_22h39.05.347,torte-2b,2020.1.3,Win32,60,13441,0.034,,,,,,,,,,,,,,,,,,,,,,,,,,,,,,,,,,,,,0,9,9,49,1,,,,,,,,,,,,,,,,,,,,,,,,
,,,,,,,,,,,,l,Incorrect,,,,,,t3.png,t4.png,1,0.909,20,female,2020-09-23_22h39.05.347,torte-2b,2020.1.3,Win32,60,13441,0.001,,,,,,,,,,,,,,,,,,,,,,,,,,,,,,,,,,,,,0,10,10,89,1,,,,,,,,,,,,,,,,,,,,,,,,
,,,,,,,,,,,,l,Incorrect,,,,,,t3.png,t2.png,1,0.909,20,female,2020-09-23_22h39.05.347,torte-2b,2020.1.3,Win32,60,13441,0.101,,,,,,,,,,,,,,,,,,,,,,,,,,,,,,,,,,,,,0,11,11,3,1,,,,,,,,,,,,,,,,,,,,,,,,
,,,,,,,,,,,,a,Incorrect,,,,,,t5.png,t1.png,4,9.55E-11,20,female,2020-09-23_22h39.05.347,torte-2b,2020.1.3,Win32,60,13441,0.002,,,,,,,,,,,,,,,,,,,,,,,,,,,,,,,,,,,,,0,12,12,102,1,,,,,,,,,,,,,,,,,,,,,,,,
,,,,,,,,,,,,l,Incorrect,,,,,,t1.png,t1.png,0,0.97829,20,female,2020-09-23_22h39.05.347,torte-2b,2020.1.3,Win32,60,13441,0.034,,,,,,,,,,,,,,,,,,,,,,,,,,,,,,,,,,,,,0,13,13,67,1,,,,,,,,,,,,,,,,,,,,,,,,
,,,,,,,,,,,,a,Incorrect,,,,,,t2.png,t2.png,0,0.98115,20,female,2020-09-23_22h39.05.347,torte-2b,2020.1.3,Win32,60,13441,0.068,,,,,,,,,,,,,,,,,,,,,,,,,,,,,,,,,,,,,0,14,14,7,1,,,,,,,,,,,,,,,,,,,,,,,,
,,,,,,,,,,,,l,Correct!,,,,,,t5.png,t3.png,2,0.056466,20,female,2020-09-23_22h39.05.347,torte-2b,2020.1.3,Win32,60,13441,0.034,,,,,,,,,,,,,,,,,,,,,,,,,,,,,,,,,,,,,0,15,15,114,1,,,,,,,,,,,,,,,,,,,,,,,,
,,,,,,,,,,,,l,Incorrect,,,,,,t2.png,t1.png,1,0.9,20,female,2020-09-23_22h39.05.347,torte-2b,2020.1.3,Win32,60,13441,0.051,,,,,,,,,,,,,,,,,,,,,,,,,,,,,,,,,,,,,0,16,16,118,1,,,,,,,,,,,,,,,,,,,,,,,,
,,,,,,,,,,,,l,Incorrect,,,,,,t2.png,t1.png,1,0.90025,20,female,2020-09-23_22h39.05.347,torte-2b,2020.1.3,Win32,60,13441,0.117,,,,,,,,,,,,,,,,,,,,,,,,,,,,,,,,,,,,,0,17,17,62,1,,,,,,,,,,,,,,,,,,,,,,,,
,,,,,,,,,,,,l,Correct!,,,,,,t2.png,t4.png,2,0.059078,20,female,2020-09-23_22h39.05.347,torte-2b,2020.1.3,Win32,60,13441,0.118,,,,,,,,,,,,,,,,,,,,,,,,,,,,,,,,,,,,,0,18,18,11,1,,,,,,,,,,,,,,,,,,,,,,,,
,,,,,,,,,,,,a,Incorrect,,,,,,t1.png,t5.png,4,9.55E-11,20,female,2020-09-23_22h39.05.347,torte-2b,2020.1.3,Win32,60,13441,0.118,,,,,,,,,,,,,,,,,,,,,,,,,,,,,,,,,,,,,0,19,19,41,1,,,,,,,,,,,,,,,,,,,,,,,,
,,,,,,,,,,,,a,Incorrect,,,,,,t3.png,t1.png,2,0.056466,20,female,2020-09-23_22h39.05.347,torte-2b,2020.1.3,Win32,60,13441,0.034,,,,,,,,,,,,,,,,,,,,,,,,,,,,,,,,,,,,,0,20,20,29,1,,,,,,,,,,,,,,,,,,,,,,,,
,,,,,,,,,,,,a,Incorrect,,,,,,t5.png,t3.png,2,0.056466,20,female,2020-09-23_22h39.05.347,torte-2b,2020.1.3,Win32,60,13441,0.034,,,,,,,,,,,,,,,,,,,,,,,,,,,,,,,,,,,,,0,21,21,38,1,,,,,,,,,,,,,,,,,,,,,,,,
,,,,,,,,,,,,a,Incorrect,,,,,,t2.png,t4.png,2,0.059078,20,female,2020-09-23_22h39.05.347,torte-2b,2020.1.3,Win32,60,13441,0.017,,,,,,,,,,,,,,,,,,,,,,,,,,,,,,,,,,,,,0,22,22,77,1,,,,,,,,,,,,,,,,,,,,,,,,
,,,,,,,,,,,,a,Correct!,,,,,,t4.png,t4.png,0,0.98115,20,female,2020-09-23_22h39.05.347,torte-2b,2020.1.3,Win32,60,13441,0.037,,,,,,,,,,,,,,,,,,,,,,,,,,,,,,,,,,,,,0,23,23,21,1,,,,,,,,,,,,,,,,,,,,,,,,
,,,,,,,,,,,,a,Incorrect,,,,,,t4.png,t1.png,3,0.0000131,20,female,2020-09-23_22h39.05.347,torte-2b,2020.1.3,Win32,60,13441,0.084,,,,,,,,,,,,,,,,,,,,,,,,,,,,,,,,,,,,,0,24,24,48,1,,,,,,,,,,,,,,,,,,,,,,,,
,,,,,,,,,,,,a,Correct!,,,,,,t5.png,t5.png,0,0.97829,20,female,2020-09-23_22h39.05.347,torte-2b,2020.1.3,Win32,60,13441,0.085,,,,,,,,,,,,,,,,,,,,,,,,,,,,,,,,,,,,,0,25,25,73,1,,,,,,,,,,,,,,,,,,,,,,,,
,,,,,,,,,,,,l,Correct!,,,,,,t2.png,t5.png,3,0.0000131,20,female,2020-09-23_22h39.05.347,torte-2b,2020.1.3,Win32,60,13441,0.068,,,,,,,,,,,,,,,,,,,,,,,,,,,,,,,,,,,,,0,26,26,8,1,,,,,,,,,,,,,,,,,,,,,,,,
,,,,,,,,,,,,l,Incorrect,,,,,,t5.png,t5.png,0,0.97829,20,female,2020-09-23_22h39.05.347,torte-2b,2020.1.3,Win32,60,13441,0.084,,,,,,,,,,,,,,,,,,,,,,,,,,,,,,,,,,,,,0,27,27,25,1,,,,,,,,,,,,,,,,,,,,,,,,
,,,,,,,,,,,,l,Correct!,,,,,,t1.png,t3.png,2,0.056466,20,female,2020-09-23_22h39.05.347,torte-2b,2020.1.3,Win32,60,13441,0.051,,,,,,,,,,,,,,,,,,,,,,,,,,,,,,,,,,,,,0,28,28,87,1,,,,,,,,,,,,,,,,,,,,,,,,
,,,,,,,,,,,,l,Correct!,,,,,,t2.png,t4.png,2,0.059078,20,female,2020-09-23_22h39.05.347,torte-2b,2020.1.3,Win32,60,13441,0.035,,,,,,,,,,,,,,,,,,,,,,,,,,,,,,,,,,,,,0,29,29,24,1,,,,,,,,,,,,,,,,,,,,,,,,
,,,,,,,,,,,,a,Incorrect,,,,,,t1.png,t5.png,4,9.55E-11,20,female,2020-09-23_22h39.05.347,torte-2b,2020.1.3,Win32,60,13441,0.017,,,,,,,,,,,,,,,,,,,,,,,,,,,,,,,,,,,,,0,30,30,12,1,,,,,,,,,,,,,,,,,,,,,,,,
,,,,,,,,,,,,a,Incorrect,,,,,,t1.png,t5.png,4,9.55E-11,20,female,2020-09-23_22h39.05.347,torte-2b,2020.1.3,Win32,60,13441,0.018,,,,,,,,,,,,,,,,,,,,,,,,,,,,,,,,,,,,,0,31,31,16,1,,,,,,,,,,,,,,,,,,,,,,,,
,,,,,,,,,,,,l,Correct!,,,,,,t1.png,t3.png,2,0.056466,20,female,2020-09-23_22h39.05.347,torte-2b,2020.1.3,Win32,60,13441,0.035,,,,,,,,,,,,,,,,,,,,,,,,,,,,,,,,,,,,,0,32,32,99,1,,,,,,,,,,,,,,,,,,,,,,,,
,,,,,,,,,,,,l,Correct!,,,,,,t1.png,t3.png,2,0.056466,20,female,2020-09-23_22h39.05.347,torte-2b,2020.1.3,Win32,60,13441,0.001,,,,,,,,,,,,,,,,,,,,,,,,,,,,,,,,,,,,,0,33,33,69,1,,,,,,,,,,,,,,,,,,,,,,,,
,,,,,,,,,,,,a,Correct!,,,,,,t5.png,t5.png,0,0.978,20,female,2020-09-23_22h39.05.347,torte-2b,2020.1.3,Win32,60,13441,0.135,,,,,,,,,,,,,,,,,,,,,,,,,,,,,,,,,,,,,0,34,34,117,1,,,,,,,,,,,,,,,,,,,,,,,,
,,,,,,,,,,,,l,Incorrect,,,,,,t2.png,t1.png,1,0.90025,20,female,2020-09-23_22h39.05.347,torte-2b,2020.1.3,Win32,60,13441,0.051,,,,,,,,,,,,,,,,,,,,,,,,,,,,,,,,,,,,,0,35,35,5,1,,,,,,,,,,,,,,,,,,,,,,,,
,,,,,,,,,,,,a,Incorrect,,,,,,t1.png,t4.png,3,0.0000131,20,female,2020-09-23_22h39.05.347,torte-2b,2020.1.3,Win32,60,13441,0.018,,,,,,,,,,,,,,,,,,,,,,,,,,,,,,,,,,,,,0,36,36,81,1,,,,,,,,,,,,,,,,,,,,,,,,
,,,,,,,,,,,,a,Correct!,,,,,,t3.png,t2.png,1,0.90855,20,female,2020-09-23_22h39.05.347,torte-2b,2020.1.3,Win32,60,13441,0.017,,,,,,,,,,,,,,,,,,,,,,,,,,,,,,,,,,,,,0,37,37,97,1,,,,,,,,,,,,,,,,,,,,,,,,
,,,,,,,,,,,,l,Correct!,,,,,,t4.png,t2.png,2,0.059078,20,female,2020-09-23_22h39.05.347,torte-2b,2020.1.3,Win32,60,13441,0.085,,,,,,,,,,,,,,,,,,,,,,,,,,,,,,,,,,,,,0,38,38,110,1,,,,,,,,,,,,,,,,,,,,,,,,
,,,,,,,,,,,,a,Incorrect,,,,,,t4.png,t1.png,3,0.0000131,20,female,2020-09-23_22h39.05.347,torte-2b,2020.1.3,Win32,60,13441,0.084,,,,,,,,,,,,,,,,,,,,,,,,,,,,,,,,,,,,,0,39,39,93,1,,,,,,,,,,,,,,,,,,,,,,,,
,,,,,,,,,,,,,Too slow :(,,,,,,t3.png,t1.png,2,0.056466,20,female,2020-09-23_22h39.05.347,torte-2b,2020.1.3,Win32,60,13441,,,,,,,,,,,,,,,,,,,,,,,,,,,,,,,,,,,,,,0,40,40,0,1,,,,,,,,,,,,,,,,,,,,,,,,
,,,,,,,,,,,,l,Incorrect,,,,,,t1.png,t1.png,0,0.97829,20,female,2020-09-23_22h39.05.347,torte-2b,2020.1.3,Win32,60,13441,0.301,,,,,,,,,,,,,,,,,,,,,,,,,,,,,,,,,,,,,0,41,41,78,1,,,,,,,,,,,,,,,,,,,,,,,,
,,,,,,,,,,,,a,Correct!,,,,,,t4.png,t5.png,1,0.90025,20,female,2020-09-23_22h39.05.347,torte-2b,2020.1.3,Win32,60,13441,0.068,,,,,,,,,,,,,,,,,,,,,,,,,,,,,,,,,,,,,0,42,42,47,1,,,,,,,,,,,,,,,,,,,,,,,,
,,,,,,,,,,,,l,Incorrect,,,,,,t4.png,t4.png,0,0.98115,20,female,2020-09-23_22h39.05.347,torte-2b,2020.1.3,Win32,60,13441,0.017,,,,,,,,,,,,,,,,,,,,,,,,,,,,,,,,,,,,,0,43,43,80,1,,,,,,,,,,,,,,,,,,,,,,,,
,,,,,,,,,,,,l,Incorrect,,,,,,t2.png,t3.png,1,0.90855,20,female,2020-09-23_22h39.05.347,torte-2b,2020.1.3,Win32,60,13441,0.068,,,,,,,,,,,,,,,,,,,,,,,,,,,,,,,,,,,,,0,44,44,68,1,,,,,,,,,,,,,,,,,,,,,,,,
,,,,,,,,,,,,a,Incorrect,,,,,,t5.png,t3.png,2,0.0565,20,female,2020-09-23_22h39.05.347,torte-2b,2020.1.3,Win32,60,13441,0.001,,,,,,,,,,,,,,,,,,,,,,,,,,,,,,,,,,,,,0,45,45,39,1,,,,,,,,,,,,,,,,,,,,,,,,
,,,,,,,,,,,,l,Incorrect,,,,,,t1.png,t1.png,0,0.978,20,female,2020-09-23_22h39.05.347,torte-2b,2020.1.3,Win32,60,13441,0.051,,,,,,,,,,,,,,,,,,,,,,,,,,,,,,,,,,,,,0,46,46,54,1,,,,,,,,,,,,,,,,,,,,,,,,
,,,,,,,,,,,,a,Correct!,,,,,,t4.png,t3.png,1,0.90855,20,female,2020-09-23_22h39.05.347,torte-2b,2020.1.3,Win32,60,13441,0.018,,,,,,,,,,,,,,,,,,,,,,,,,,,,,,,,,,,,,0,47,47,35,1,,,,,,,,,,,,,,,,,,,,,,,,
,,,,,,,,,,,,a,Incorrect,,,,,,t3.png,t5.png,2,0.056466,20,female,2020-09-23_22h39.05.347,torte-2b,2020.1.3,Win32,60,13441,0.034,,,,,,,,,,,,,,,,,,,,,,,,,,,,,,,,,,,,,0,48,48,6,1,,,,,,,,,,,,,,,,,,,,,,,,
,,,,,,,,,,,,l,Incorrect,,,,,,t4.png,t5.png,1,0.90025,20,female,2020-09-23_22h39.05.347,torte-2b,2020.1.3,Win32,60,13441,0.085,,,,,,,,,,,,,,,,,,,,,,,,,,,,,,,,,,,,,0,49,49,103,1,,,,,,,,,,,,,,,,,,,,,,,,
,,,,,,,,,,,,a,Incorrect,,,,,,t3.png,t1.png,2,0.056466,20,female,2020-09-23_22h39.05.347,torte-2b,2020.1.3,Win32,60,13441,0.017,,,,,,,,,,,,,,,,,,,,,,,,,,,,,,,,,,,,,0,50,50,64,1,,,,,,,,,,,,,,,,,,,,,,,,
,,,,,,,,,,,,a,Correct!,,,,,,t3.png,t4.png,1,0.90855,20,female,2020-09-23_22h39.05.347,torte-2b,2020.1.3,Win32,60,13441,0.151,,,,,,,,,,,,,,,,,,,,,,,,,,,,,,,,,,,,,0,51,51,84,1,,,,,,,,,,,,,,,,,,,,,,,,
,,,,,,,,,,,,l,Correct!,,,,,,t3.png,t5.png,2,0.0565,20,female,2020-09-23_22h39.05.347,torte-2b,2020.1.3,Win32,60,13441,0.017,,,,,,,,,,,,,,,,,,,,,,,,,,,,,,,,,,,,,0,52,52,30,1,,,,,,,,,,,,,,,,,,,,,,,,
,,,,,,,,,,,,l,Incorrect,,,,,,t2.png,t3.png,1,0.90855,20,female,2020-09-23_22h39.05.347,torte-2b,2020.1.3,Win32,60,13441,0.168,,,,,,,,,,,,,,,,,,,,,,,,,,,,,,,,,,,,,0,53,53,111,1,,,,,,,,,,,,,,,,,,,,,,,,
,,,,,,,,,,,,l,Correct!,,,,,,t3.png,t1.png,2,0.0565,20,female,2020-09-23_22h39.05.347,torte-2b,2020.1.3,Win32,60,13441,0.001,,,,,,,,,,,,,,,,,,,,,,,,,,,,,,,,,,,,,0,54,54,31,1,,,,,,,,,,,,,,,,,,,,,,,,
,,,,,,,,,,,,l,Correct!,,,,,,t4.png,t2.png,2,0.059078,20,female,2020-09-23_22h39.05.347,torte-2b,2020.1.3,Win32,60,13441,0.084,,,,,,,,,,,,,,,,,,,,,,,,,,,,,,,,,,,,,0,55,55,88,1,,,,,,,,,,,,,,,,,,,,,,,,
,,,,,,,,,,,,l,Correct!,,,,,,t5.png,t4.png,1,0.90025,20,female,2020-09-23_22h39.05.347,torte-2b,2020.1.3,Win32,60,13441,0.118,,,,,,,,,,,,,,,,,,,,,,,,,,,,,,,,,,,,,0,56,56,26,1,,,,,,,,,,,,,,,,,,,,,,,,
,,,,,,,,,,,,a,Correct!,,,,,,t1.png,t2.png,1,0.90025,20,female,2020-09-23_22h39.05.347,torte-2b,2020.1.3,Win32,60,13441,0.034,,,,,,,,,,,,,,,,,,,,,,,,,,,,,,,,,,,,,0,57,57,33,1,,,,,,,,,,,,,,,,,,,,,,,,
,,,,,,,,,,,,l,Correct!,,,,,,t5.png,t3.png,2,0.056466,20,female,2020-09-23_22h39.05.347,torte-2b,2020.1.3,Win32,60,13441,0.035,,,,,,,,,,,,,,,,,,,,,,,,,,,,,,,,,,,,,0,58,58,56,1,,,,,,,,,,,,,,,,,,,,,,,,
,,,,,,,,,,,,l,Correct!,,,,,,t3.png,t5.png,2,0.056466,20,female,2020-09-23_22h39.05.347,torte-2b,2020.1.3,Win32,60,13441,0.001,,,,,,,,,,,,,,,,,,,,,,,,,,,,,,,,,,,,,0,59,59,14,1,,,,,,,,,,,,,,,,,,,,,,,,
,,,,,,,,,,,,a,Correct!,,,,,,t5.png,t4.png,1,0.90025,20,female,2020-09-23_22h39.05.347,torte-2b,2020.1.3,Win32,60,13441,0.035,,,,,,,,,,,,,,,,,,,,,,,,,,,,,,,,,,,,,0,60,60,27,1,,,,,,,,,,,,,,,,,,,,,,,,
,,,,,,,,,,,,a,Correct!,,,,,,t5.png,t4.png,1,0.9,20,female,2020-09-23_22h39.05.347,torte-2b,2020.1.3,Win32,60,13441,0.017,,,,,,,,,,,,,,,,,,,,,,,,,,,,,,,,,,,,,0,61,61,76,1,,,,,,,,,,,,,,,,,,,,,,,,
,,,,,,,,,,,,a,Incorrect,,,,,,t1.png,t5.png,4,9.55E-11,20,female,2020-09-23_22h39.05.347,torte-2b,2020.1.3,Win32,60,13441,0.068,,,,,,,,,,,,,,,,,,,,,,,,,,,,,,,,,,,,,0,62,62,55,1,,,,,,,,,,,,,,,,,,,,,,,,
,,,,,,,,,,,,a,Correct!,,,,,,t2.png,t2.png,0,0.98115,20,female,2020-09-23_22h39.05.347,torte-2b,2020.1.3,Win32,60,13441,0.101,,,,,,,,,,,,,,,,,,,,,,,,,,,,,,,,,,,,,0,63,63,57,1,,,,,,,,,,,,,,,,,,,,,,,,
,,,,,,,,,,,,a,Correct!,,,,,,t1.png,t1.png,0,0.978,20,female,2020-09-23_22h39.05.347,torte-2b,2020.1.3,Win32,60,13441,0.017,,,,,,,,,,,,,,,,,,,,,,,,,,,,,,,,,,,,,0,64,64,28,1,,,,,,,,,,,,,,,,,,,,,,,,
,,,,,,,,,,,,l,Correct!,,,,,,t5.png,t2.png,3,0.0000131,20,female,2020-09-23_22h39.05.347,torte-2b,2020.1.3,Win32,60,13441,0.068,,,,,,,,,,,,,,,,,,,,,,,,,,,,,,,,,,,,,0,65,65,51,1,,,,,,,,,,,,,,,,,,,,,,,,
,,,,,,,,,,,,l,Incorrect,,,,,,t3.png,t2.png,1,0.90855,20,female,2020-09-23_22h39.05.347,torte-2b,2020.1.3,Win32,60,13441,0.084,,,,,,,,,,,,,,,,,,,,,,,,,,,,,,,,,,,,,0,66,66,53,1,,,,,,,,,,,,,,,,,,,,,,,,
,,,,,,,,,,,,l,Correct!,,,,,,t5.png,t1.png,4,9.55E-11,20,female,2020-09-23_22h39.05.347,torte-2b,2020.1.3,Win32,60,13441,0.151,,,,,,,,,,,,,,,,,,,,,,,,,,,,,,,,,,,,,0,67,67,43,1,,,,,,,,,,,,,,,,,,,,,,,,
,,,,,,,,,,,,l,Incorrect,,,,,,t4.png,t5.png,1,0.90025,20,female,2020-09-23_22h39.05.347,torte-2b,2020.1.3,Win32,60,13441,0.051,,,,,,,,,,,,,,,,,,,,,,,,,,,,,,,,,,,,,0,68,68,113,1,,,,,,,,,,,,,,,,,,,,,,,,
,,,,,,,,,,,,l,Incorrect,,,,,,t2.png,t4.png,2,0.059078,20,female,2020-09-23_22h39.05.347,torte-2b,2020.1.3,Win32,60,13441,0.051,,,,,,,,,,,,,,,,,,,,,,,,,,,,,,,,,,,,,0,69,69,37,1,,,,,,,,,,,,,,,,,,,,,,,,
,,,,,,,,,,,,a,Incorrect,,,,,,t4.png,t2.png,2,0.059078,20,female,2020-09-23_22h39.05.347,torte-2b,2020.1.3,Win32,60,13441,0.034,,,,,,,,,,,,,,,,,,,,,,,,,,,,,,,,,,,,,0,70,70,109,1,,,,,,,,,,,,,,,,,,,,,,,,
,,,,,,,,,,,,l,Correct!,,,,,,t5.png,t1.png,4,9.55E-11,20,female,2020-09-23_22h39.05.347,torte-2b,2020.1.3,Win32,60,13441,0.001,,,,,,,,,,,,,,,,,,,,,,,,,,,,,,,,,,,,,0,71,71,22,1,,,,,,,,,,,,,,,,,,,,,,,,
,,,,,,,,,,,,a,Incorrect,,,,,,t2.png,t5.png,3,0.0000131,20,female,2020-09-23_22h39.05.347,torte-2b,2020.1.3,Win32,60,13441,0.101,,,,,,,,,,,,,,,,,,,,,,,,,,,,,,,,,,,,,0,72,72,66,1,,,,,,,,,,,,,,,,,,,,,,,,
,,,,,,,,,,,,l,Correct!,,,,,,t3.png,t5.png,2,0.0565,20,female,2020-09-23_22h39.05.347,torte-2b,2020.1.3,Win32,60,13441,0.051,,,,,,,,,,,,,,,,,,,,,,,,,,,,,,,,,,,,,0,73,73,83,1,,,,,,,,,,,,,,,,,,,,,,,,
,,,,,,,,,,,,a,Incorrect,,,,,,t2.png,t5.png,3,0.0000131,20,female,2020-09-23_22h39.05.347,torte-2b,2020.1.3,Win32,60,13441,0.118,,,,,,,,,,,,,,,,,,,,,,,,,,,,,,,,,,,,,0,74,74,40,1,,,,,,,,,,,,,,,,,,,,,,,,
,,,,,,,,,,,,a,Incorrect,,,,,,t5.png,t1.png,4,9.55E-11,20,female,2020-09-23_22h39.05.347,torte-2b,2020.1.3,Win32,60,13441,0.018,,,,,,,,,,,,,,,,,,,,,,,,,,,,,,,,,,,,,0,75,75,100,1,,,,,,,,,,,,,,,,,,,,,,,,
,,,,,,,,,,,,l,Incorrect,,,,,,t2.png,t1.png,1,0.90025,20,female,2020-09-23_22h39.05.347,torte-2b,2020.1.3,Win32,60,13441,0.102,,,,,,,,,,,,,,,,,,,,,,,,,,,,,,,,,,,,,0,76,76,19,1,,,,,,,,,,,,,,,,,,,,,,,,
,,,,,,,,,,,,a,Correct!,,,,,,t3.png,t2.png,1,0.909,20,female,2020-09-23_22h39.05.347,torte-2b,2020.1.3,Win32,60,13441,0.101,,,,,,,,,,,,,,,,,,,,,,,,,,,,,,,,,,,,,0,77,77,23,1,,,,,,,,,,,,,,,,,,,,,,,,
,,,,,,,,,,,,l,Correct!,,,,,,t2.png,t5.png,3,0.0000131,20,female,2020-09-23_22h39.05.347,torte-2b,2020.1.3,Win32,60,13441,0.118,,,,,,,,,,,,,,,,,,,,,,,,,,,,,,,,,,,,,0,78,78,104,1,,,,,,,,,,,,,,,,,,,,,,,,
,,,,,,,,,,,,a,Correct!,,,,,,t3.png,t4.png,1,0.90855,20,female,2020-09-23_22h39.05.347,torte-2b,2020.1.3,Win32,60,13441,0.001,,,,,,,,,,,,,,,,,,,,,,,,,,,,,,,,,,,,,0,79,79,96,1,,,,,,,,,,,,,,,,,,,,,,,,
,,,,,,,,,,,,l,Correct!,,,,,,t3.png,t1.png,2,0.056466,20,female,2020-09-23_22h39.05.347,torte-2b,2020.1.3,Win32,60,13441,0.051,,,,,,,,,,,,,,,,,,,,,,,,,,,,,,,,,,,,,0,80,80,32,1,,,,,,,,,,,,,,,,,,,,,,,,
,,,,,,,,,,,,a,Incorrect,,,,,,t4.png,t2.png,2,0.0591,20,female,2020-09-23_22h39.05.347,torte-2b,2020.1.3,Win32,60,13441,0.068,,,,,,,,,,,,,,,,,,,,,,,,,,,,,,,,,,,,,0,81,81,36,1,,,,,,,,,,,,,,,,,,,,,,,,
,,,,,,,,,,,,l,Incorrect,,,,,,t4.png,t3.png,1,0.909,20,female,2020-09-23_22h39.05.347,torte-2b,2020.1.3,Win32,60,13441,0.135,,,,,,,,,,,,,,,,,,,,,,,,,,,,,,,,,,,,,0,82,82,20,1,,,,,,,,,,,,,,,,,,,,,,,,
,,,,,,,,,,,,l,Incorrect,,,,,,t4.png,t3.png,1,0.90855,20,female,2020-09-23_22h39.05.347,torte-2b,2020.1.3,Win32,60,13441,0.034,,,,,,,,,,,,,,,,,,,,,,,,,,,,,,,,,,,,,0,83,83,45,1,,,,,,,,,,,,,,,,,,,,,,,,
,,,,,,,,,,,,a,Incorrect,,,,,,t2.png,t4.png,2,0.0591,20,female,2020-09-23_22h39.05.347,torte-2b,2020.1.3,Win32,60,13441,0.084,,,,,,,,,,,,,,,,,,,,,,,,,,,,,,,,,,,,,0,84,84,15,1,,,,,,,,,,,,,,,,,,,,,,,,
,,,,,,,,,,,,a,Correct!,,,,,,t3.png,t2.png,1,0.90855,20,female,2020-09-23_22h39.05.347,torte-2b,2020.1.3,Win32,60,13441,0.067,,,,,,,,,,,,,,,,,,,,,,,,,,,,,,,,,,,,,0,85,85,18,1,,,,,,,,,,,,,,,,,,,,,,,,
,,,,,,,,,,,,l,Incorrect,,,,,,t4.png,t5.png,1,0.90025,20,female,2020-09-23_22h39.05.347,torte-2b,2020.1.3,Win32,60,13441,0.085,,,,,,,,,,,,,,,,,,,,,,,,,,,,,,,,,,,,,0,86,86,58,1,,,,,,,,,,,,,,,,,,,,,,,,
,,,,,,,,,,,,a,Correct!,,,,,,t3.png,t4.png,1,0.909,20,female,2020-09-23_22h39.05.347,torte-2b,2020.1.3,Win32,60,13441,0.068,,,,,,,,,,,,,,,,,,,,,,,,,,,,,,,,,,,,,0,87,87,82,1,,,,,,,,,,,,,,,,,,,,,,,,
,,,,,,,,,,,,a,Incorrect,,,,,,t2.png,t5.png,3,0.0000131,20,female,2020-09-23_22h39.05.347,torte-2b,2020.1.3,Win32,60,13441,0.001,,,,,,,,,,,,,,,,,,,,,,,,,,,,,,,,,,,,,0,88,88,95,1,,,,,,,,,,,,,,,,,,,,,,,,
,,,,,,,,,,,,,Too slow :(,,,,,,t1.png,t5.png,4,9.55E-11,20,female,2020-09-23_22h39.05.347,torte-2b,2020.1.3,Win32,60,13441,,,,,,,,,,,,,,,,,,,,,,,,,,,,,,,,,,,,,,0,89,89,85,1,,,,,,,,,,,,,,,,,,,,,,,,
,,,,,,,,,,,,a,Correct!,,,,,,t2.png,t2.png,0,0.98115,20,female,2020-09-23_22h39.05.347,torte-2b,2020.1.3,Win32,60,13441,0.351,,,,,,,,,,,,,,,,,,,,,,,,,,,,,,,,,,,,,0,90,90,2,1,,,,,,,,,,,,,,,,,,,,,,,,
,,,,,,,,,,,,a,Correct!,,,,,,t1.png,t2.png,1,0.90025,20,female,2020-09-23_22h39.05.347,torte-2b,2020.1.3,Win32,60,13441,0.167,,,,,,,,,,,,,,,,,,,,,,,,,,,,,,,,,,,,,0,91,91,72,1,,,,,,,,,,,,,,,,,,,,,,,,
,,,,,,,,,,,,a,Incorrect,,,,,,t4.png,t1.png,3,0.0000131,20,female,2020-09-23_22h39.05.347,torte-2b,2020.1.3,Win32,60,13441,0.118,,,,,,,,,,,,,,,,,,,,,,,,,,,,,,,,,,,,,0,92,92,13,1,,,,,,,,,,,,,,,,,,,,,,,,
,,,,,,,,,,,,a,Correct!,,,,,,t1.png,t1.png,0,0.97829,20,female,2020-09-23_22h39.05.347,torte-2b,2020.1.3,Win32,60,13441,0.068,,,,,,,,,,,,,,,,,,,,,,,,,,,,,,,,,,,,,0,93,93,9,1,,,,,,,,,,,,,,,,,,,,,,,,
,,,,,,,,,,,,a,Incorrect,,,,,,t3.png,t5.png,2,0.056466,20,female,2020-09-23_22h39.05.347,torte-2b,2020.1.3,Win32,60,13441,0.085,,,,,,,,,,,,,,,,,,,,,,,,,,,,,,,,,,,,,0,94,94,44,1,,,,,,,,,,,,,,,,,,,,,,,,
,,,,,,,,,,,,a,Correct!,,,,,,t2.png,t2.png,0,0.981,20,female,2020-09-23_22h39.05.347,torte-2b,2020.1.3,Win32,60,13441,0.169,,,,,,,,,,,,,,,,,,,,,,,,,,,,,,,,,,,,,0,95,95,101,1,,,,,,,,,,,,,,,,,,,,,,,,
,,,,,,,,,,,,l,Incorrect,,,,,,t4.png,t4.png,0,0.98115,20,female,2020-09-23_22h39.05.347,torte-2b,2020.1.3,Win32,60,13441,0.017,,,,,,,,,,,,,,,,,,,,,,,,,,,,,,,,,,,,,0,96,96,52,1,,,,,,,,,,,,,,,,,,,,,,,,
,,,,,,,,,,,,a,Correct!,,,,,,t4.png,t5.png,1,0.9,20,female,2020-09-23_22h39.05.347,torte-2b,2020.1.3,Win32,60,13441,0.018,,,,,,,,,,,,,,,,,,,,,,,,,,,,,,,,,,,,,0,97,97,115,1,,,,,,,,,,,,,,,,,,,,,,,,
,,,,,,,,,,,,a,Incorrect,,,,,,t5.png,t2.png,3,0.0000131,20,female,2020-09-23_22h39.05.347,torte-2b,2020.1.3,Win32,60,13441,0.034,,,,,,,,,,,,,,,,,,,,,,,,,,,,,,,,,,,,,0,98,98,98,1,,,,,,,,,,,,,,,,,,,,,,,,
,,,,,,,,,,,,l,Incorrect,,,,,,t4.png,t4.png,0,0.98115,20,female,2020-09-23_22h39.05.347,torte-2b,2020.1.3,Win32,60,13441,0.051,,,,,,,,,,,,,,,,,,,,,,,,,,,,,,,,,,,,,0,99,99,79,1,,,,,,,,,,,,,,,,,,,,,,,,
,,,,,,,,,,,,l,Correct!,,,,,,t1.png,t4.png,3,0.0000131,20,female,2020-09-23_22h39.05.347,torte-2b,2020.1.3,Win32,60,13441,0.051,,,,,,,,,,,,,,,,,,,,,,,,,,,,,,,,,,,,,0,100,100,107,1,,,,,,,,,,,,,,,,,,,,,,,,
,,,,,,,,,,,,l,Incorrect,,,,,,t1.png,t2.png,1,0.90025,20,female,2020-09-23_22h39.05.347,torte-2b,2020.1.3,Win32,60,13441,0.235,,,,,,,,,,,,,,,,,,,,,,,,,,,,,,,,,,,,,0,101,101,112,1,,,,,,,,,,,,,,,,,,,,,,,,
,,,,,,,,,,,,l,Incorrect,,,,,,t2.png,t1.png,1,0.90025,20,female,2020-09-23_22h39.05.347,torte-2b,2020.1.3,Win32,60,13441,0.119,,,,,,,,,,,,,,,,,,,,,,,,,,,,,,,,,,,,,0,102,102,4,1,,,,,,,,,,,,,,,,,,,,,,,,
,,,,,,,,,,,,a,Correct!,,,,,,t3.png,t4.png,1,0.909,20,female,2020-09-23_22h39.05.347,torte-2b,2020.1.3,Win32,60,13441,0.168,,,,,,,,,,,,,,,,,,,,,,,,,,,,,,,,,,,,,0,103,103,106,1,,,,,,,,,,,,,,,,,,,,,,,,
,,,,,,,,,,,,l,Incorrect,,,,,,t1.png,t2.png,1,0.9,20,female,2020-09-23_22h39.05.347,torte-2b,2020.1.3,Win32,60,13441,0.269,,,,,,,,,,,,,,,,,,,,,,,,,,,,,,,,,,,,,0,104,104,1,1,,,,,,,,,,,,,,,,,,,,,,,,
,,,,,,,,,,,,l,Incorrect,,,,,,t2.png,t3.png,1,0.909,20,female,2020-09-23_22h39.05.347,torte-2b,2020.1.3,Win32,60,13441,0.252,,,,,,,,,,,,,,,,,,,,,,,,,,,,,,,,,,,,,0,105,105,74,1,,,,,,,,,,,,,,,,,,,,,,,,
,,,,,,,,,,,,l,Correct!,,,,,,t1.png,t4.png,3,0.0000131,20,female,2020-09-23_22h39.05.347,torte-2b,2020.1.3,Win32,60,13441,0.335,,,,,,,,,,,,,,,,,,,,,,,,,,,,,,,,,,,,,0,106,106,92,1,,,,,,,,,,,,,,,,,,,,,,,,
,,,,,,,,,,,,l,Correct!,,,,,,t5.png,t2.png,3,0.0000131,20,female,2020-09-23_22h39.05.347,torte-2b,2020.1.3,Win32,60,13441,0.302,,,,,,,,,,,,,,,,,,,,,,,,,,,,,,,,,,,,,0,107,107,116,1,,,,,,,,,,,,,,,,,,,,,,,,
,,,,,,,,,,,,l,Incorrect,,,,,,t5.png,t5.png,0,0.97829,20,female,2020-09-23_22h39.05.347,torte-2b,2020.1.3,Win32,60,13441,0.269,,,,,,,,,,,,,,,,,,,,,,,,,,,,,,,,,,,,,0,108,108,70,1,,,,,,,,,,,,,,,,,,,,,,,,
,,,,,,,,,,,,a,Incorrect,,,,,,t4.png,t2.png,2,0.059078,20,female,2020-09-23_22h39.05.347,torte-2b,2020.1.3,Win32,60,13441,0.319,,,,,,,,,,,,,,,,,,,,,,,,,,,,,,,,,,,,,0,109,109,86,1,,,,,,,,,,,,,,,,,,,,,,,,
,,,,,,,,,,,,l,Incorrect,,,,,,t1.png,t3.png,2,0.056466,20,female,2020-09-23_22h39.05.347,torte-2b,2020.1.3,Win32,60,13441,0.285,,,,,,,,,,,,,,,,,,,,,,,,,,,,,,,,,,,,,0,110,110,60,1,,,,,,,,,,,,,,,,,,,,,,,,
,,,,,,,,,,,,a,Correct!,,,,,,t2.png,t2.png,0,0.98115,20,female,2020-09-23_22h39.05.347,torte-2b,2020.1.3,Win32,60,13441,0.252,,,,,,,,,,,,,,,,,,,,,,,,,,,,,,,,,,,,,0,111,111,59,1,,,,,,,,,,,,,,,,,,,,,,,,
,,,,,,,,,,,,a,Incorrect,,,,,,t5.png,t2.png,3,0.0000131,20,female,2020-09-23_22h39.05.347,torte-2b,2020.1.3,Win32,60,13441,0.168,,,,,,,,,,,,,,,,,,,,,,,,,,,,,,,,,,,,,0,112,112,119,1,,,,,,,,,,,,,,,,,,,,,,,,
,,,,,,,,,,,,l,Incorrect,,,,,,t5.png,t5.png,0,0.97829,20,female,2020-09-23_22h39.05.347,torte-2b,2020.1.3,Win32,60,13441,0.018,,,,,,,,,,,,,,,,,,,,,,,,,,,,,,,,,,,,,0,113,113,94,1,,,,,,,,,,,,,,,,,,,,,,,,
,,,,,,,,,,,,a,Correct!,,,,,,t4.png,t4.png,0,0.98115,20,female,2020-09-23_22h39.05.347,torte-2b,2020.1.3,Win32,60,13441,0.084,,,,,,,,,,,,,,,,,,,,,,,,,,,,,,,,,,,,,0,114,114,90,1,,,,,,,,,,,,,,,,,,,,,,,,
,,,,,,,,,,,,a,Incorrect,,,,,,t5.png,t1.png,4,9.55E-11,20,female,2020-09-23_22h39.05.347,torte-2b,2020.1.3,Win32,60,13441,0.051,,,,,,,,,,,,,,,,,,,,,,,,,,,,,,,,,,,,,0,115,115,71,1,,,,,,,,,,,,,,,,,,,,,,,,
,,,,,,,,,,,,l,Correct!,,,,,,t1.png,t4.png,3,0.0000131,20,female,2020-09-23_22h39.05.347,torte-2b,2020.1.3,Win32,60,13441,0.452,,,,,,,,,,,,,,,,,,,,,,,,,,,,,,,,,,,,,0,116,116,50,1,,,,,,,,,,,,,,,,,,,,,,,,
,,,,,,,,,,,,l,Incorrect,,,,,,t4.png,t3.png,1,0.909,20,female,2020-09-23_22h39.05.347,torte-2b,2020.1.3,Win32,60,13441,0.018,,,,,,,,,,,,,,,,,,,,,,,,,,,,,,,,,,,,,0,117,117,46,1,,,,,,,,,,,,,,,,,,,,,,,,
,,,,,,,,,,,,a,Incorrect,,,,,,t1.png,t4.png,3,0.0000131,20,female,2020-09-23_22h39.05.347,torte-2b,2020.1.3,Win32,60,13441,0.134,,,,,,,,,,,,,,,,,,,,,,,,,,,,,,,,,,,,,0,118,118,17,1,,,,,,,,,,,,,,,,,,,,,,,,
,,,,,,,,,,,,a,Correct!,,,,,,t4.png,t3.png,1,0.90855,20,female,2020-09-23_22h39.05.347,torte-2b,2020.1.3,Win32,60,13441,0.068,,,,,,,,,,,,,,,,,,,,,,,,,,,,,,,,,,,,,0,119,119,75,1,,,,,,,,,,,,,,,,,,,,,,,,
,,,,,,,,,,,,,,,,,,,,,,,20,female,2020-09-23_22h39.05.347,torte-2b,2020.1.3,Win32,60,13441,,l,1.17,,,,,,,,,,,,,,,,,,,,,,,,,,,,,,,,,,,,,,,,-117,12,1,0,0,s4,-131,6,1,0,0,t2,257,-98,1,0,0,proceed,return,7.512,return,2.138,return,0.466
