key_resp_8.keys,key_resp_8.rt,key_resp_9.keys,key_resp_9.rt,key_resp_10.keys,key_resp_10.rt,key_resp_11.keys,key_resp_11.rt,key_resp_2.keys,key_resp_2.rt,key_resp_3.keys,key_resp_3.rt,key_resp.keys,Feedback,train.thisRepN,train.thisTrialN,train.thisN,train.thisIndex,train.ran,torta_sx,torta_dx,difference,probability,age,gender,date,expName,psychopyVersion,OS,frameRate,participant,key_resp.rt,key_resp_15.keys,key_resp_15.rt,key_resp_6.keys,key_resp_6.rt,test1.thisRepN,test1.thisTrialN,test1.thisN,test1.thisIndex,test1.ran,key_resp_4.keys,key_resp_4.rt,key_resp_5.keys,back1.thisRepN,back1.thisTrialN,back1.thisN,back1.thisIndex,back1.ran,letter,key_resp_5.rt,back2.thisRepN,back2.thisTrialN,back2.thisN,back2.thisIndex,back2.ran,back3.thisRepN,back3.thisTrialN,back3.thisN,back3.thisIndex,back3.ran,back4.thisRepN,back4.thisTrialN,back4.thisN,back4.thisIndex,back4.ran,key_resp_7.keys,key_resp_7.rt,test2.thisRepN,test2.thisTrialN,test2.thisN,test2.thisIndex,test2.ran,mouse.x,mouse.y,mouse.leftButton,mouse.midButton,mouse.rightButton,mouse.clicked_name,mouse_2.x,mouse_2.y,mouse_2.leftButton,mouse_2.midButton,mouse_2.rightButton,mouse_2.clicked_name,mouse_3.x,mouse_3.y,mouse_3.leftButton,mouse_3.midButton,mouse_3.rightButton,mouse_3.clicked_name,key_resp_12.keys,key_resp_12.rt,key_resp_13.keys,key_resp_13.rt,key_resp_14.keys,key_resp_14.rt
space,18.247975,space,6.910945,space,5.49523,space,9.63384,N/A,2.736035,space,34.33314,,Too slow :(,0,0,0,85,1,t3.png,t2.png,1,0.90855,20,Female,2020-11-25_16h55.04.233,torte-2b,2020.1.3,Win32,60,13948,,,,,,,,,,,,,,,,,,,,,,,,,,,,,,,,,,,,,,,,,,,,,,,,,,,,,,,,,,,,,,,,,,
,,,,,,,,,,,,a,Incorrect,0,1,1,72,1,t4.png,t2.png,2,0.059078,20,Female,2020-11-25_16h55.04.233,torte-2b,2020.1.3,Win32,60,13948,0.89826,,,,,,,,,,,,,,,,,,,,,,,,,,,,,,,,,,,,,,,,,,,,,,,,,,,,,,,,,,,,,,,,,
,,,,,,,,,,,,,Too slow :(,0,2,2,59,1,t5.png,t4.png,1,0.9,20,Female,2020-11-25_16h55.04.233,torte-2b,2020.1.3,Win32,60,13948,,,,,,,,,,,,,,,,,,,,,,,,,,,,,,,,,,,,,,,,,,,,,,,,,,,,,,,,,,,,,,,,,,
,,,,,,,,,,,,l,Incorrect,0,3,3,100,1,t4.png,t5.png,1,0.90025,20,Female,2020-11-25_16h55.04.233,torte-2b,2020.1.3,Win32,60,13948,1.233645,,,,,,,,,,,,,,,,,,,,,,,,,,,,,,,,,,,,,,,,,,,,,,,,,,,,,,,,,,,,,,,,,
,,,,,,,,,,,,l,Incorrect,0,4,4,2,1,t3.png,t2.png,1,0.90855,20,Female,2020-11-25_16h55.04.233,torte-2b,2020.1.3,Win32,60,13948,1.54583,,,,,,,,,,,,,,,,,,,,,,,,,,,,,,,,,,,,,,,,,,,,,,,,,,,,,,,,,,,,,,,,,
,,,,,,,,,,,,a,Incorrect,0,5,5,46,1,t4.png,t2.png,2,0.059078,20,Female,2020-11-25_16h55.04.233,torte-2b,2020.1.3,Win32,60,13948,1.153535,,,,,,,,,,,,,,,,,,,,,,,,,,,,,,,,,,,,,,,,,,,,,,,,,,,,,,,,,,,,,,,,,
,,,,,,,,,,,,a,Correct!,0,6,6,76,1,t3.png,t2.png,1,0.90855,20,Female,2020-11-25_16h55.04.233,torte-2b,2020.1.3,Win32,60,13948,1.58375,,,,,,,,,,,,,,,,,,,,,,,,,,,,,,,,,,,,,,,,,,,,,,,,,,,,,,,,,,,,,,,,,
,,,,,,,,,,,,a,Incorrect,0,7,7,30,1,t3.png,t1.png,2,0.056466,20,Female,2020-11-25_16h55.04.233,torte-2b,2020.1.3,Win32,60,13948,1.38645,,,,,,,,,,,,,,,,,,,,,,,,,,,,,,,,,,,,,,,,,,,,,,,,,,,,,,,,,,,,,,,,,
,,,,,,,,,,,,l,Incorrect,0,8,8,110,1,t4.png,t5.png,1,0.90025,20,Female,2020-11-25_16h55.04.233,torte-2b,2020.1.3,Win32,60,13948,1.449505,,,,,,,,,,,,,,,,,,,,,,,,,,,,,,,,,,,,,,,,,,,,,,,,,,,,,,,,,,,,,,,,,
,,,,,,,,,,,,,Too slow :(,0,9,9,99,1,t1.png,t5.png,4,9.55E-11,20,Female,2020-11-25_16h55.04.233,torte-2b,2020.1.3,Win32,60,13948,,,,,,,,,,,,,,,,,,,,,,,,,,,,,,,,,,,,,,,,,,,,,,,,,,,,,,,,,,,,,,,,,,
,,,,,,,,,,,,l,Incorrect,0,10,10,96,1,t1.png,t1.png,0,0.97829,20,Female,2020-11-25_16h55.04.233,torte-2b,2020.1.3,Win32,60,13948,1.4344,,,,,,,,,,,,,,,,,,,,,,,,,,,,,,,,,,,,,,,,,,,,,,,,,,,,,,,,,,,,,,,,,
,,,,,,,,,,,,a,Incorrect,0,11,11,80,1,t1.png,t4.png,3,0.0000131,20,Female,2020-11-25_16h55.04.233,torte-2b,2020.1.3,Win32,60,13948,1.801745,,,,,,,,,,,,,,,,,,,,,,,,,,,,,,,,,,,,,,,,,,,,,,,,,,,,,,,,,,,,,,,,,
,,,,,,,,,,,,l,Incorrect,0,12,12,39,1,t3.png,t2.png,1,0.90855,20,Female,2020-11-25_16h55.04.233,torte-2b,2020.1.3,Win32,60,13948,1.54188,,,,,,,,,,,,,,,,,,,,,,,,,,,,,,,,,,,,,,,,,,,,,,,,,,,,,,,,,,,,,,,,,
,,,,,,,,,,,,a,Correct!,0,13,13,112,1,t1.png,t1.png,0,0.97829,20,Female,2020-11-25_16h55.04.233,torte-2b,2020.1.3,Win32,60,13948,1.732365,,,,,,,,,,,,,,,,,,,,,,,,,,,,,,,,,,,,,,,,,,,,,,,,,,,,,,,,,,,,,,,,,
,,,,,,,,,,,,a,Incorrect,0,14,14,50,1,t5.png,t1.png,4,9.55E-11,20,Female,2020-11-25_16h55.04.233,torte-2b,2020.1.3,Win32,60,13948,1.961895,,,,,,,,,,,,,,,,,,,,,,,,,,,,,,,,,,,,,,,,,,,,,,,,,,,,,,,,,,,,,,,,,
,,,,,,,,,,,,a,Correct!,0,15,15,45,1,t3.png,t2.png,1,0.90855,20,Female,2020-11-25_16h55.04.233,torte-2b,2020.1.3,Win32,60,13948,2.13438,,,,,,,,,,,,,,,,,,,,,,,,,,,,,,,,,,,,,,,,,,,,,,,,,,,,,,,,,,,,,,,,,
,,,,,,,,,,,,l,Correct!,0,16,16,1,1,t2.png,t4.png,2,0.059078,20,Female,2020-11-25_16h55.04.233,torte-2b,2020.1.3,Win32,60,13948,1.31362,,,,,,,,,,,,,,,,,,,,,,,,,,,,,,,,,,,,,,,,,,,,,,,,,,,,,,,,,,,,,,,,,
,,,,,,,,,,,,a,Correct!,0,17,17,118,1,t5.png,t5.png,0,0.978,20,Female,2020-11-25_16h55.04.233,torte-2b,2020.1.3,Win32,60,13948,0.655435,,,,,,,,,,,,,,,,,,,,,,,,,,,,,,,,,,,,,,,,,,,,,,,,,,,,,,,,,,,,,,,,,
,,,,,,,,,,,,l,Correct!,0,18,18,94,1,t5.png,t1.png,4,9.55E-11,20,Female,2020-11-25_16h55.04.233,torte-2b,2020.1.3,Win32,60,13948,0.61806,,,,,,,,,,,,,,,,,,,,,,,,,,,,,,,,,,,,,,,,,,,,,,,,,,,,,,,,,,,,,,,,,
,,,,,,,,,,,,a,Incorrect,0,19,19,68,1,t1.png,t4.png,3,0.0000131,20,Female,2020-11-25_16h55.04.233,torte-2b,2020.1.3,Win32,60,13948,0.661155,,,,,,,,,,,,,,,,,,,,,,,,,,,,,,,,,,,,,,,,,,,,,,,,,,,,,,,,,,,,,,,,,
,,,,,,,,,,,,l,Correct!,0,20,20,98,1,t2.png,t4.png,2,0.0591,20,Female,2020-11-25_16h55.04.233,torte-2b,2020.1.3,Win32,60,13948,1.68696,,,,,,,,,,,,,,,,,,,,,,,,,,,,,,,,,,,,,,,,,,,,,,,,,,,,,,,,,,,,,,,,,
,,,,,,,,,,,,a,Correct!,0,21,21,113,1,t5.png,t4.png,1,0.9,20,Female,2020-11-25_16h55.04.233,torte-2b,2020.1.3,Win32,60,13948,0.999895,,,,,,,,,,,,,,,,,,,,,,,,,,,,,,,,,,,,,,,,,,,,,,,,,,,,,,,,,,,,,,,,,
,,,,,,,,,,,,l,Correct!,0,22,22,91,1,t1.png,t4.png,3,0.0000131,20,Female,2020-11-25_16h55.04.233,torte-2b,2020.1.3,Win32,60,13948,0.99958,,,,,,,,,,,,,,,,,,,,,,,,,,,,,,,,,,,,,,,,,,,,,,,,,,,,,,,,,,,,,,,,,
,,,,,,,,,,,,a,Correct!,0,23,23,62,1,t5.png,t5.png,0,0.978,20,Female,2020-11-25_16h55.04.233,torte-2b,2020.1.3,Win32,60,13948,0.681115,,,,,,,,,,,,,,,,,,,,,,,,,,,,,,,,,,,,,,,,,,,,,,,,,,,,,,,,,,,,,,,,,
,,,,,,,,,,,,l,Incorrect,0,24,24,66,1,t4.png,t5.png,1,0.9,20,Female,2020-11-25_16h55.04.233,torte-2b,2020.1.3,Win32,60,13948,0.79387,,,,,,,,,,,,,,,,,,,,,,,,,,,,,,,,,,,,,,,,,,,,,,,,,,,,,,,,,,,,,,,,,
,,,,,,,,,,,,a,Correct!,0,25,25,64,1,t1.png,t1.png,0,0.978,20,Female,2020-11-25_16h55.04.233,torte-2b,2020.1.3,Win32,60,13948,0.741025,,,,,,,,,,,,,,,,,,,,,,,,,,,,,,,,,,,,,,,,,,,,,,,,,,,,,,,,,,,,,,,,,
,,,,,,,,,,,,l,Incorrect,0,26,26,32,1,t4.png,t5.png,1,0.90025,20,Female,2020-11-25_16h55.04.233,torte-2b,2020.1.3,Win32,60,13948,0.82016,,,,,,,,,,,,,,,,,,,,,,,,,,,,,,,,,,,,,,,,,,,,,,,,,,,,,,,,,,,,,,,,,
,,,,,,,,,,,,a,Incorrect,0,27,27,103,1,t3.png,t1.png,2,0.056466,20,Female,2020-11-25_16h55.04.233,torte-2b,2020.1.3,Win32,60,13948,1.014985,,,,,,,,,,,,,,,,,,,,,,,,,,,,,,,,,,,,,,,,,,,,,,,,,,,,,,,,,,,,,,,,,
,,,,,,,,,,,,a,Correct!,0,28,28,70,1,t5.png,t5.png,0,0.978,20,Female,2020-11-25_16h55.04.233,torte-2b,2020.1.3,Win32,60,13948,0.61835,,,,,,,,,,,,,,,,,,,,,,,,,,,,,,,,,,,,,,,,,,,,,,,,,,,,,,,,,,,,,,,,,
,,,,,,,,,,,,l,Correct!,0,29,29,6,1,t1.png,t4.png,3,0.0000131,20,Female,2020-11-25_16h55.04.233,torte-2b,2020.1.3,Win32,60,13948,1.72186,,,,,,,,,,,,,,,,,,,,,,,,,,,,,,,,,,,,,,,,,,,,,,,,,,,,,,,,,,,,,,,,,
,,,,,,,,,,,,l,Correct!,0,30,30,55,1,t2.png,t4.png,2,0.059078,20,Female,2020-11-25_16h55.04.233,torte-2b,2020.1.3,Win32,60,13948,2.143905,,,,,,,,,,,,,,,,,,,,,,,,,,,,,,,,,,,,,,,,,,,,,,,,,,,,,,,,,,,,,,,,,
,,,,,,,,,,,,a,Correct!,0,31,31,20,1,t2.png,t3.png,1,0.90855,20,Female,2020-11-25_16h55.04.233,torte-2b,2020.1.3,Win32,60,13948,2.386585,,,,,,,,,,,,,,,,,,,,,,,,,,,,,,,,,,,,,,,,,,,,,,,,,,,,,,,,,,,,,,,,,
,,,,,,,,,,,,l,Correct!,0,32,32,115,1,t2.png,t4.png,2,0.059078,20,Female,2020-11-25_16h55.04.233,torte-2b,2020.1.3,Win32,60,13948,1.70558,,,,,,,,,,,,,,,,,,,,,,,,,,,,,,,,,,,,,,,,,,,,,,,,,,,,,,,,,,,,,,,,,
,,,,,,,,,,,,a,Incorrect,0,33,33,111,1,t5.png,t1.png,4,9.55E-11,20,Female,2020-11-25_16h55.04.233,torte-2b,2020.1.3,Win32,60,13948,1.200585,,,,,,,,,,,,,,,,,,,,,,,,,,,,,,,,,,,,,,,,,,,,,,,,,,,,,,,,,,,,,,,,,
,,,,,,,,,,,,a,Correct!,0,34,34,77,1,t1.png,t1.png,0,0.97829,20,Female,2020-11-25_16h55.04.233,torte-2b,2020.1.3,Win32,60,13948,1.853395,,,,,,,,,,,,,,,,,,,,,,,,,,,,,,,,,,,,,,,,,,,,,,,,,,,,,,,,,,,,,,,,,
,,,,,,,,,,,,l,Incorrect,0,35,35,79,1,t3.png,t2.png,1,0.909,20,Female,2020-11-25_16h55.04.233,torte-2b,2020.1.3,Win32,60,13948,1.8413,,,,,,,,,,,,,,,,,,,,,,,,,,,,,,,,,,,,,,,,,,,,,,,,,,,,,,,,,,,,,,,,,
,,,,,,,,,,,,a,Correct!,0,36,36,22,1,t2.png,t3.png,1,0.90855,20,Female,2020-11-25_16h55.04.233,torte-2b,2020.1.3,Win32,60,13948,1.752025,,,,,,,,,,,,,,,,,,,,,,,,,,,,,,,,,,,,,,,,,,,,,,,,,,,,,,,,,,,,,,,,,
,,,,,,,,,,,,l,Incorrect,0,37,37,10,1,t2.png,t3.png,1,0.90855,20,Female,2020-11-25_16h55.04.233,torte-2b,2020.1.3,Win32,60,13948,2.35547,,,,,,,,,,,,,,,,,,,,,,,,,,,,,,,,,,,,,,,,,,,,,,,,,,,,,,,,,,,,,,,,,
,,,,,,,,,,,,l,Correct!,0,38,38,5,1,t2.png,t4.png,2,0.059078,20,Female,2020-11-25_16h55.04.233,torte-2b,2020.1.3,Win32,60,13948,1.98575,,,,,,,,,,,,,,,,,,,,,,,,,,,,,,,,,,,,,,,,,,,,,,,,,,,,,,,,,,,,,,,,,
,,,,,,,,,,,,a,Correct!,0,39,39,44,1,t2.png,t3.png,1,0.909,20,Female,2020-11-25_16h55.04.233,torte-2b,2020.1.3,Win32,60,13948,1.98246,,,,,,,,,,,,,,,,,,,,,,,,,,,,,,,,,,,,,,,,,,,,,,,,,,,,,,,,,,,,,,,,,
,,,,,,,,,,,,l,Incorrect,0,40,40,81,1,t1.png,t1.png,0,0.97829,20,Female,2020-11-25_16h55.04.233,torte-2b,2020.1.3,Win32,60,13948,1.36936,,,,,,,,,,,,,,,,,,,,,,,,,,,,,,,,,,,,,,,,,,,,,,,,,,,,,,,,,,,,,,,,,
,,,,,,,,,,,,a,Correct!,0,41,41,49,1,t4.png,t5.png,1,0.9,20,Female,2020-11-25_16h55.04.233,torte-2b,2020.1.3,Win32,60,13948,2.08266,,,,,,,,,,,,,,,,,,,,,,,,,,,,,,,,,,,,,,,,,,,,,,,,,,,,,,,,,,,,,,,,,
,,,,,,,,,,,,a,Incorrect,0,42,42,47,1,t4.png,t2.png,2,0.059078,20,Female,2020-11-25_16h55.04.233,torte-2b,2020.1.3,Win32,60,13948,1.41538,,,,,,,,,,,,,,,,,,,,,,,,,,,,,,,,,,,,,,,,,,,,,,,,,,,,,,,,,,,,,,,,,
,,,,,,,,,,,,l,Correct!,0,43,43,14,1,t2.png,t4.png,2,0.059078,20,Female,2020-11-25_16h55.04.233,torte-2b,2020.1.3,Win32,60,13948,1.085675,,,,,,,,,,,,,,,,,,,,,,,,,,,,,,,,,,,,,,,,,,,,,,,,,,,,,,,,,,,,,,,,,
,,,,,,,,,,,,a,Correct!,0,44,44,95,1,t1.png,t1.png,0,0.978,20,Female,2020-11-25_16h55.04.233,torte-2b,2020.1.3,Win32,60,13948,1.16789,,,,,,,,,,,,,,,,,,,,,,,,,,,,,,,,,,,,,,,,,,,,,,,,,,,,,,,,,,,,,,,,,
,,,,,,,,,,,,l,Correct!,0,45,45,31,1,t1.png,t5.png,4,9.55E-11,20,Female,2020-11-25_16h55.04.233,torte-2b,2020.1.3,Win32,60,13948,1.21617,,,,,,,,,,,,,,,,,,,,,,,,,,,,,,,,,,,,,,,,,,,,,,,,,,,,,,,,,,,,,,,,,
,,,,,,,,,,,,a,Incorrect,0,46,46,0,1,t5.png,t1.png,4,9.55E-11,20,Female,2020-11-25_16h55.04.233,torte-2b,2020.1.3,Win32,60,13948,0.951805,,,,,,,,,,,,,,,,,,,,,,,,,,,,,,,,,,,,,,,,,,,,,,,,,,,,,,,,,,,,,,,,,
,,,,,,,,,,,,l,Correct!,0,47,47,61,1,t1.png,t4.png,3,0.0000131,20,Female,2020-11-25_16h55.04.233,torte-2b,2020.1.3,Win32,60,13948,2.298295,,,,,,,,,,,,,,,,,,,,,,,,,,,,,,,,,,,,,,,,,,,,,,,,,,,,,,,,,,,,,,,,,
,,,,,,,,,,,,a,Incorrect,0,48,48,33,1,t5.png,t1.png,4,9.55E-11,20,Female,2020-11-25_16h55.04.233,torte-2b,2020.1.3,Win32,60,13948,1.46602,,,,,,,,,,,,,,,,,,,,,,,,,,,,,,,,,,,,,,,,,,,,,,,,,,,,,,,,,,,,,,,,,
,,,,,,,,,,,,a,Incorrect,0,49,49,89,1,t1.png,t4.png,3,0.0000131,20,Female,2020-11-25_16h55.04.233,torte-2b,2020.1.3,Win32,60,13948,1.497385,,,,,,,,,,,,,,,,,,,,,,,,,,,,,,,,,,,,,,,,,,,,,,,,,,,,,,,,,,,,,,,,,
,,,,,,,,,,,,l,Correct!,0,50,50,11,1,t1.png,t4.png,3,0.0000131,20,Female,2020-11-25_16h55.04.233,torte-2b,2020.1.3,Win32,60,13948,0.93223,,,,,,,,,,,,,,,,,,,,,,,,,,,,,,,,,,,,,,,,,,,,,,,,,,,,,,,,,,,,,,,,,
,,,,,,,,,,,,l,Incorrect,0,51,51,34,1,t5.png,t4.png,1,0.9,20,Female,2020-11-25_16h55.04.233,torte-2b,2020.1.3,Win32,60,13948,1.48379,,,,,,,,,,,,,,,,,,,,,,,,,,,,,,,,,,,,,,,,,,,,,,,,,,,,,,,,,,,,,,,,,
,,,,,,,,,,,,a,Incorrect,0,52,52,56,1,t5.png,t1.png,4,9.55E-11,20,Female,2020-11-25_16h55.04.233,torte-2b,2020.1.3,Win32,60,13948,1.43314,,,,,,,,,,,,,,,,,,,,,,,,,,,,,,,,,,,,,,,,,,,,,,,,,,,,,,,,,,,,,,,,,
,,,,,,,,,,,,a,Correct!,0,53,53,9,1,t4.png,t5.png,1,0.9,20,Female,2020-11-25_16h55.04.233,torte-2b,2020.1.3,Win32,60,13948,0.782735,,,,,,,,,,,,,,,,,,,,,,,,,,,,,,,,,,,,,,,,,,,,,,,,,,,,,,,,,,,,,,,,,
,,,,,,,,,,,,,Too slow :(,0,54,54,71,1,t5.png,t5.png,0,0.97829,20,Female,2020-11-25_16h55.04.233,torte-2b,2020.1.3,Win32,60,13948,,,,,,,,,,,,,,,,,,,,,,,,,,,,,,,,,,,,,,,,,,,,,,,,,,,,,,,,,,,,,,,,,,
,,,,,,,,,,,,l,Incorrect,0,55,55,28,1,t2.png,t3.png,1,0.909,20,Female,2020-11-25_16h55.04.233,torte-2b,2020.1.3,Win32,60,13948,1.8311,,,,,,,,,,,,,,,,,,,,,,,,,,,,,,,,,,,,,,,,,,,,,,,,,,,,,,,,,,,,,,,,,
,,,,,,,,,,,,a,Incorrect,0,56,56,26,1,t4.png,t2.png,2,0.0591,20,Female,2020-11-25_16h55.04.233,torte-2b,2020.1.3,Win32,60,13948,1.80276,,,,,,,,,,,,,,,,,,,,,,,,,,,,,,,,,,,,,,,,,,,,,,,,,,,,,,,,,,,,,,,,,
,,,,,,,,,,,,l,Correct!,0,57,57,93,1,t2.png,t4.png,2,0.059078,20,Female,2020-11-25_16h55.04.233,torte-2b,2020.1.3,Win32,60,13948,1.1873,,,,,,,,,,,,,,,,,,,,,,,,,,,,,,,,,,,,,,,,,,,,,,,,,,,,,,,,,,,,,,,,,
,,,,,,,,,,,,l,Correct!,0,58,58,37,1,t1.png,t4.png,3,0.0000131,20,Female,2020-11-25_16h55.04.233,torte-2b,2020.1.3,Win32,60,13948,1.48402,,,,,,,,,,,,,,,,,,,,,,,,,,,,,,,,,,,,,,,,,,,,,,,,,,,,,,,,,,,,,,,,,
,,,,,,,,,,,,a,Incorrect,0,59,59,87,1,t5.png,t1.png,4,9.55E-11,20,Female,2020-11-25_16h55.04.233,torte-2b,2020.1.3,Win32,60,13948,0.96702,,,,,,,,,,,,,,,,,,,,,,,,,,,,,,,,,,,,,,,,,,,,,,,,,,,,,,,,,,,,,,,,,
,,,,,,,,,,,,l,Correct!,0,60,60,119,1,t1.png,t5.png,4,9.55E-11,20,Female,2020-11-25_16h55.04.233,torte-2b,2020.1.3,Win32,60,13948,0.84943,,,,,,,,,,,,,,,,,,,,,,,,,,,,,,,,,,,,,,,,,,,,,,,,,,,,,,,,,,,,,,,,,
,,,,,,,,,,,,l,Incorrect,0,61,61,65,1,t4.png,t5.png,1,0.90025,20,Female,2020-11-25_16h55.04.233,torte-2b,2020.1.3,Win32,60,13948,2.152315,,,,,,,,,,,,,,,,,,,,,,,,,,,,,,,,,,,,,,,,,,,,,,,,,,,,,,,,,,,,,,,,,
,,,,,,,,,,,,l,Incorrect,0,62,62,106,1,t2.png,t3.png,1,0.90855,20,Female,2020-11-25_16h55.04.233,torte-2b,2020.1.3,Win32,60,13948,1.72066,,,,,,,,,,,,,,,,,,,,,,,,,,,,,,,,,,,,,,,,,,,,,,,,,,,,,,,,,,,,,,,,,
,,,,,,,,,,,,a,Correct!,0,63,63,105,1,t3.png,t2.png,1,0.90855,20,Female,2020-11-25_16h55.04.233,torte-2b,2020.1.3,Win32,60,13948,0.500435,,,,,,,,,,,,,,,,,,,,,,,,,,,,,,,,,,,,,,,,,,,,,,,,,,,,,,,,,,,,,,,,,
,,,,,,,,,,,,a,Incorrect,0,64,64,24,1,t4.png,t2.png,2,0.059078,20,Female,2020-11-25_16h55.04.233,torte-2b,2020.1.3,Win32,60,13948,0.56484,,,,,,,,,,,,,,,,,,,,,,,,,,,,,,,,,,,,,,,,,,,,,,,,,,,,,,,,,,,,,,,,,
,,,,,,,,,,,,a,Correct!,0,65,65,84,1,t1.png,t1.png,0,0.97829,20,Female,2020-11-25_16h55.04.233,torte-2b,2020.1.3,Win32,60,13948,1.336345,,,,,,,,,,,,,,,,,,,,,,,,,,,,,,,,,,,,,,,,,,,,,,,,,,,,,,,,,,,,,,,,,
,,,,,,,,,,,,a,Incorrect,0,66,66,69,1,t4.png,t2.png,2,0.059078,20,Female,2020-11-25_16h55.04.233,torte-2b,2020.1.3,Win32,60,13948,1.835705,,,,,,,,,,,,,,,,,,,,,,,,,,,,,,,,,,,,,,,,,,,,,,,,,,,,,,,,,,,,,,,,,
,,,,,,,,,,,,l,Incorrect,0,67,67,75,1,t1.png,t1.png,0,0.97829,20,Female,2020-11-25_16h55.04.233,torte-2b,2020.1.3,Win32,60,13948,0.84923,,,,,,,,,,,,,,,,,,,,,,,,,,,,,,,,,,,,,,,,,,,,,,,,,,,,,,,,,,,,,,,,,
,,,,,,,,,,,,a,Correct!,0,68,68,16,1,t5.png,t4.png,1,0.9,20,Female,2020-11-25_16h55.04.233,torte-2b,2020.1.3,Win32,60,13948,1.579815,,,,,,,,,,,,,,,,,,,,,,,,,,,,,,,,,,,,,,,,,,,,,,,,,,,,,,,,,,,,,,,,,
,,,,,,,,,,,,a,Incorrect,0,69,69,86,1,t3.png,t1.png,2,0.056466,20,Female,2020-11-25_16h55.04.233,torte-2b,2020.1.3,Win32,60,13948,1.135925,,,,,,,,,,,,,,,,,,,,,,,,,,,,,,,,,,,,,,,,,,,,,,,,,,,,,,,,,,,,,,,,,
,,,,,,,,,,,,l,Correct!,0,70,70,57,1,t2.png,t4.png,2,0.059078,20,Female,2020-11-25_16h55.04.233,torte-2b,2020.1.3,Win32,60,13948,0.483145,,,,,,,,,,,,,,,,,,,,,,,,,,,,,,,,,,,,,,,,,,,,,,,,,,,,,,,,,,,,,,,,,
,,,,,,,,,,,,a,Correct!,0,71,71,48,1,t5.png,t5.png,0,0.97829,20,Female,2020-11-25_16h55.04.233,torte-2b,2020.1.3,Win32,60,13948,0.33917,,,,,,,,,,,,,,,,,,,,,,,,,,,,,,,,,,,,,,,,,,,,,,,,,,,,,,,,,,,,,,,,,
,,,,,,,,,,,,l,Correct!,0,72,72,88,1,t3.png,t1.png,2,0.056466,20,Female,2020-11-25_16h55.04.233,torte-2b,2020.1.3,Win32,60,13948,0.465925,,,,,,,,,,,,,,,,,,,,,,,,,,,,,,,,,,,,,,,,,,,,,,,,,,,,,,,,,,,,,,,,,
,,,,,,,,,,,,a,Correct!,0,73,73,63,1,t2.png,t3.png,1,0.909,20,Female,2020-11-25_16h55.04.233,torte-2b,2020.1.3,Win32,60,13948,0.332885,,,,,,,,,,,,,,,,,,,,,,,,,,,,,,,,,,,,,,,,,,,,,,,,,,,,,,,,,,,,,,,,,
,,,,,,,,,,,,l,Incorrect,0,74,74,7,1,t4.png,t5.png,1,0.90025,20,Female,2020-11-25_16h55.04.233,torte-2b,2020.1.3,Win32,60,13948,0.36955,,,,,,,,,,,,,,,,,,,,,,,,,,,,,,,,,,,,,,,,,,,,,,,,,,,,,,,,,,,,,,,,,
,,,,,,,,,,,,a,Incorrect,0,75,75,67,1,t1.png,t5.png,4,9.55E-11,20,Female,2020-11-25_16h55.04.233,torte-2b,2020.1.3,Win32,60,13948,1.416915,,,,,,,,,,,,,,,,,,,,,,,,,,,,,,,,,,,,,,,,,,,,,,,,,,,,,,,,,,,,,,,,,
,,,,,,,,,,,,a,Incorrect,0,76,76,38,1,t3.png,t1.png,2,0.056466,20,Female,2020-11-25_16h55.04.233,torte-2b,2020.1.3,Win32,60,13948,0.620165,,,,,,,,,,,,,,,,,,,,,,,,,,,,,,,,,,,,,,,,,,,,,,,,,,,,,,,,,,,,,,,,,
,,,,,,,,,,,,l,Correct!,0,77,77,90,1,t1.png,t5.png,4,9.55E-11,20,Female,2020-11-25_16h55.04.233,torte-2b,2020.1.3,Win32,60,13948,0.515765,,,,,,,,,,,,,,,,,,,,,,,,,,,,,,,,,,,,,,,,,,,,,,,,,,,,,,,,,,,,,,,,,
,,,,,,,,,,,,a,Correct!,0,78,78,74,1,t5.png,t4.png,1,0.9,20,Female,2020-11-25_16h55.04.233,torte-2b,2020.1.3,Win32,60,13948,1.11594,,,,,,,,,,,,,,,,,,,,,,,,,,,,,,,,,,,,,,,,,,,,,,,,,,,,,,,,,,,,,,,,,
,,,,,,,,,,,,a,Incorrect,0,79,79,108,1,t5.png,t1.png,4,9.55E-11,20,Female,2020-11-25_16h55.04.233,torte-2b,2020.1.3,Win32,60,13948,0.653295,,,,,,,,,,,,,,,,,,,,,,,,,,,,,,,,,,,,,,,,,,,,,,,,,,,,,,,,,,,,,,,,,
,,,,,,,,,,,,l,Incorrect,0,80,80,21,1,t5.png,t4.png,1,0.90025,20,Female,2020-11-25_16h55.04.233,torte-2b,2020.1.3,Win32,60,13948,1.54051,,,,,,,,,,,,,,,,,,,,,,,,,,,,,,,,,,,,,,,,,,,,,,,,,,,,,,,,,,,,,,,,,
,,,,,,,,,,,,a,Incorrect,0,81,81,19,1,t4.png,t2.png,2,0.059078,20,Female,2020-11-25_16h55.04.233,torte-2b,2020.1.3,Win32,60,13948,0.636665,,,,,,,,,,,,,,,,,,,,,,,,,,,,,,,,,,,,,,,,,,,,,,,,,,,,,,,,,,,,,,,,,
,,,,,,,,,,,,a,Correct!,0,82,82,42,1,t5.png,t4.png,1,0.90025,20,Female,2020-11-25_16h55.04.233,torte-2b,2020.1.3,Win32,60,13948,1.10002,,,,,,,,,,,,,,,,,,,,,,,,,,,,,,,,,,,,,,,,,,,,,,,,,,,,,,,,,,,,,,,,,
,,,,,,,,,,,,a,Correct!,0,83,83,116,1,t5.png,t4.png,1,0.90025,20,Female,2020-11-25_16h55.04.233,torte-2b,2020.1.3,Win32,60,13948,1.401115,,,,,,,,,,,,,,,,,,,,,,,,,,,,,,,,,,,,,,,,,,,,,,,,,,,,,,,,,,,,,,,,,
,,,,,,,,,,,,l,Correct!,0,84,84,73,1,t4.png,t2.png,2,0.059078,20,Female,2020-11-25_16h55.04.233,torte-2b,2020.1.3,Win32,60,13948,1.00002,,,,,,,,,,,,,,,,,,,,,,,,,,,,,,,,,,,,,,,,,,,,,,,,,,,,,,,,,,,,,,,,,
,,,,,,,,,,,,l,Correct!,0,85,85,27,1,t3.png,t1.png,2,0.0565,20,Female,2020-11-25_16h55.04.233,torte-2b,2020.1.3,Win32,60,13948,1.834825,,,,,,,,,,,,,,,,,,,,,,,,,,,,,,,,,,,,,,,,,,,,,,,,,,,,,,,,,,,,,,,,,
,,,,,,,,,,,,l,Incorrect,0,86,86,13,1,t5.png,t5.png,0,0.97829,20,Female,2020-11-25_16h55.04.233,torte-2b,2020.1.3,Win32,60,13948,1.437825,,,,,,,,,,,,,,,,,,,,,,,,,,,,,,,,,,,,,,,,,,,,,,,,,,,,,,,,,,,,,,,,,
,,,,,,,,,,,,l,Incorrect,0,87,87,104,1,t2.png,t3.png,1,0.90855,20,Female,2020-11-25_16h55.04.233,torte-2b,2020.1.3,Win32,60,13948,1.337095,,,,,,,,,,,,,,,,,,,,,,,,,,,,,,,,,,,,,,,,,,,,,,,,,,,,,,,,,,,,,,,,,
,,,,,,,,,,,,a,Incorrect,0,88,88,82,1,t5.png,t1.png,4,9.55E-11,20,Female,2020-11-25_16h55.04.233,torte-2b,2020.1.3,Win32,60,13948,0.970525,,,,,,,,,,,,,,,,,,,,,,,,,,,,,,,,,,,,,,,,,,,,,,,,,,,,,,,,,,,,,,,,,
,,,,,,,,,,,,a,Incorrect,0,89,89,102,1,t4.png,t2.png,2,0.059078,20,Female,2020-11-25_16h55.04.233,torte-2b,2020.1.3,Win32,60,13948,1.100095,,,,,,,,,,,,,,,,,,,,,,,,,,,,,,,,,,,,,,,,,,,,,,,,,,,,,,,,,,,,,,,,,
,,,,,,,,,,,,l,Incorrect,0,90,90,18,1,t4.png,t5.png,1,0.90025,20,Female,2020-11-25_16h55.04.233,torte-2b,2020.1.3,Win32,60,13948,0.95397,,,,,,,,,,,,,,,,,,,,,,,,,,,,,,,,,,,,,,,,,,,,,,,,,,,,,,,,,,,,,,,,,
,,,,,,,,,,,,a,Correct!,0,91,91,29,1,t5.png,t5.png,0,0.97829,20,Female,2020-11-25_16h55.04.233,torte-2b,2020.1.3,Win32,60,13948,1.03396,,,,,,,,,,,,,,,,,,,,,,,,,,,,,,,,,,,,,,,,,,,,,,,,,,,,,,,,,,,,,,,,,
,,,,,,,,,,,,l,Incorrect,0,92,92,92,1,t2.png,t3.png,1,0.909,20,Female,2020-11-25_16h55.04.233,torte-2b,2020.1.3,Win32,60,13948,1.6219,,,,,,,,,,,,,,,,,,,,,,,,,,,,,,,,,,,,,,,,,,,,,,,,,,,,,,,,,,,,,,,,,
,,,,,,,,,,,,a,Correct!,0,93,93,8,1,t3.png,t2.png,1,0.90855,20,Female,2020-11-25_16h55.04.233,torte-2b,2020.1.3,Win32,60,13948,0.536575,,,,,,,,,,,,,,,,,,,,,,,,,,,,,,,,,,,,,,,,,,,,,,,,,,,,,,,,,,,,,,,,,
,,,,,,,,,,,,l,Correct!,0,94,94,54,1,t1.png,t5.png,4,9.55E-11,20,Female,2020-11-25_16h55.04.233,torte-2b,2020.1.3,Win32,60,13948,0.766735,,,,,,,,,,,,,,,,,,,,,,,,,,,,,,,,,,,,,,,,,,,,,,,,,,,,,,,,,,,,,,,,,
,,,,,,,,,,,,a,Correct!,0,95,95,78,1,t1.png,t1.png,0,0.978,20,Female,2020-11-25_16h55.04.233,torte-2b,2020.1.3,Win32,60,13948,1.016925,,,,,,,,,,,,,,,,,,,,,,,,,,,,,,,,,,,,,,,,,,,,,,,,,,,,,,,,,,,,,,,,,
,,,,,,,,,,,,a,Incorrect,0,96,96,36,1,t3.png,t1.png,2,0.0565,20,Female,2020-11-25_16h55.04.233,torte-2b,2020.1.3,Win32,60,13948,1.539585,,,,,,,,,,,,,,,,,,,,,,,,,,,,,,,,,,,,,,,,,,,,,,,,,,,,,,,,,,,,,,,,,
,,,,,,,,,,,,a,Incorrect,0,97,97,109,1,t5.png,t5.png,0,0.97829,20,Female,2020-11-25_16h55.04.233,torte-2b,2020.1.3,Win32,60,13948,0.883715,,,,,,,,,,,,,,,,,,,,,,,,,,,,,,,,,,,,,,,,,,,,,,,,,,,,,,,,,,,,,,,,,
,,,,,,,,,,,,l,Correct!,0,98,98,4,1,t1.png,t5.png,4,9.55E-11,20,Female,2020-11-25_16h55.04.233,torte-2b,2020.1.3,Win32,60,13948,0.91608,,,,,,,,,,,,,,,,,,,,,,,,,,,,,,,,,,,,,,,,,,,,,,,,,,,,,,,,,,,,,,,,,
,,,,,,,,,,,,a,Correct!,0,99,99,41,1,t3.png,t2.png,1,0.90855,20,Female,2020-11-25_16h55.04.233,torte-2b,2020.1.3,Win32,60,13948,1.982545,,,,,,,,,,,,,,,,,,,,,,,,,,,,,,,,,,,,,,,,,,,,,,,,,,,,,,,,,,,,,,,,,
,,,,,,,,,,,,a,Correct!,0,100,100,97,1,t5.png,t5.png,0,0.97829,20,Female,2020-11-25_16h55.04.233,torte-2b,2020.1.3,Win32,60,13948,0.899785,,,,,,,,,,,,,,,,,,,,,,,,,,,,,,,,,,,,,,,,,,,,,,,,,,,,,,,,,,,,,,,,,
,,,,,,,,,,,,l,Incorrect,0,101,101,114,1,t2.png,t3.png,1,0.90855,20,Female,2020-11-25_16h55.04.233,torte-2b,2020.1.3,Win32,60,13948,1.36608,,,,,,,,,,,,,,,,,,,,,,,,,,,,,,,,,,,,,,,,,,,,,,,,,,,,,,,,,,,,,,,,,
,,,,,,,,,,,,l,Correct!,0,102,102,3,1,t1.png,t5.png,4,9.55E-11,20,Female,2020-11-25_16h55.04.233,torte-2b,2020.1.3,Win32,60,13948,1.40287,,,,,,,,,,,,,,,,,,,,,,,,,,,,,,,,,,,,,,,,,,,,,,,,,,,,,,,,,,,,,,,,,
,,,,,,,,,,,,l,Correct!,0,103,103,60,1,t2.png,t4.png,2,0.059078,20,Female,2020-11-25_16h55.04.233,torte-2b,2020.1.3,Win32,60,13948,1.75346,,,,,,,,,,,,,,,,,,,,,,,,,,,,,,,,,,,,,,,,,,,,,,,,,,,,,,,,,,,,,,,,,
,,,,,,,,,,,,a,Incorrect,0,104,104,35,1,t1.png,t4.png,3,0.0000131,20,Female,2020-11-25_16h55.04.233,torte-2b,2020.1.3,Win32,60,13948,1.307605,,,,,,,,,,,,,,,,,,,,,,,,,,,,,,,,,,,,,,,,,,,,,,,,,,,,,,,,,,,,,,,,,
,,,,,,,,,,,,a,Incorrect,0,105,105,53,1,t3.png,t1.png,2,0.056466,20,Female,2020-11-25_16h55.04.233,torte-2b,2020.1.3,Win32,60,13948,1.56148,,,,,,,,,,,,,,,,,,,,,,,,,,,,,,,,,,,,,,,,,,,,,,,,,,,,,,,,,,,,,,,,,
,,,,,,,,,,,,l,Incorrect,0,106,106,101,1,t4.png,t5.png,1,0.90025,20,Female,2020-11-25_16h55.04.233,torte-2b,2020.1.3,Win32,60,13948,2.01912,,,,,,,,,,,,,,,,,,,,,,,,,,,,,,,,,,,,,,,,,,,,,,,,,,,,,,,,,,,,,,,,,
,,,,,,,,,,,,a,Correct!,0,107,107,15,1,t3.png,t2.png,1,0.90855,20,Female,2020-11-25_16h55.04.233,torte-2b,2020.1.3,Win32,60,13948,2.05985,,,,,,,,,,,,,,,,,,,,,,,,,,,,,,,,,,,,,,,,,,,,,,,,,,,,,,,,,,,,,,,,,
,,,,,,,,,,,,a,Correct!,0,108,108,58,1,t5.png,t4.png,1,0.90025,20,Female,2020-11-25_16h55.04.233,torte-2b,2020.1.3,Win32,60,13948,1.017135,,,,,,,,,,,,,,,,,,,,,,,,,,,,,,,,,,,,,,,,,,,,,,,,,,,,,,,,,,,,,,,,,
,,,,,,,,,,,,a,Incorrect,0,109,109,12,1,t5.png,t1.png,4,9.55E-11,20,Female,2020-11-25_16h55.04.233,torte-2b,2020.1.3,Win32,60,13948,0.849045,,,,,,,,,,,,,,,,,,,,,,,,,,,,,,,,,,,,,,,,,,,,,,,,,,,,,,,,,,,,,,,,,
,,,,,,,,,,,,a,Incorrect,0,110,110,17,1,t1.png,t4.png,3,0.0000131,20,Female,2020-11-25_16h55.04.233,torte-2b,2020.1.3,Win32,60,13948,2.182595,,,,,,,,,,,,,,,,,,,,,,,,,,,,,,,,,,,,,,,,,,,,,,,,,,,,,,,,,,,,,,,,,
,,,,,,,,,,,,a,Correct!,0,111,111,107,1,t1.png,t1.png,0,0.978,20,Female,2020-11-25_16h55.04.233,torte-2b,2020.1.3,Win32,60,13948,0.788315,,,,,,,,,,,,,,,,,,,,,,,,,,,,,,,,,,,,,,,,,,,,,,,,,,,,,,,,,,,,,,,,,
,,,,,,,,,,,,l,Correct!,0,112,112,117,1,t1.png,t5.png,4,9.55E-11,20,Female,2020-11-25_16h55.04.233,torte-2b,2020.1.3,Win32,60,13948,0.76841,,,,,,,,,,,,,,,,,,,,,,,,,,,,,,,,,,,,,,,,,,,,,,,,,,,,,,,,,,,,,,,,,
,,,,,,,,,,,,l,Correct!,0,113,113,51,1,t3.png,t1.png,2,0.056466,20,Female,2020-11-25_16h55.04.233,torte-2b,2020.1.3,Win32,60,13948,1.679445,,,,,,,,,,,,,,,,,,,,,,,,,,,,,,,,,,,,,,,,,,,,,,,,,,,,,,,,,,,,,,,,,
,,,,,,,,,,,,a,Correct!,0,114,114,25,1,t5.png,t5.png,0,0.97829,20,Female,2020-11-25_16h55.04.233,torte-2b,2020.1.3,Win32,60,13948,0.93065,,,,,,,,,,,,,,,,,,,,,,,,,,,,,,,,,,,,,,,,,,,,,,,,,,,,,,,,,,,,,,,,,
,,,,,,,,,,,,l,Correct!,0,115,115,52,1,t2.png,t4.png,2,0.059078,20,Female,2020-11-25_16h55.04.233,torte-2b,2020.1.3,Win32,60,13948,1.40312,,,,,,,,,,,,,,,,,,,,,,,,,,,,,,,,,,,,,,,,,,,,,,,,,,,,,,,,,,,,,,,,,
,,,,,,,,,,,,l,Correct!,0,116,116,40,1,t1.png,t5.png,4,9.55E-11,20,Female,2020-11-25_16h55.04.233,torte-2b,2020.1.3,Win32,60,13948,0.89878,,,,,,,,,,,,,,,,,,,,,,,,,,,,,,,,,,,,,,,,,,,,,,,,,,,,,,,,,,,,,,,,,
,,,,,,,,,,,,a,Correct!,0,117,117,23,1,t5.png,t4.png,1,0.90025,20,Female,2020-11-25_16h55.04.233,torte-2b,2020.1.3,Win32,60,13948,1.89971,,,,,,,,,,,,,,,,,,,,,,,,,,,,,,,,,,,,,,,,,,,,,,,,,,,,,,,,,,,,,,,,,
,,,,,,,,,,,,a,Incorrect,0,118,118,43,1,t4.png,t2.png,2,0.059078,20,Female,2020-11-25_16h55.04.233,torte-2b,2020.1.3,Win32,60,13948,1.337435,,,,,,,,,,,,,,,,,,,,,,,,,,,,,,,,,,,,,,,,,,,,,,,,,,,,,,,,,,,,,,,,,
,,,,,,,,,,,,a,Incorrect,0,119,119,83,1,t3.png,t1.png,2,0.056466,20,Female,2020-11-25_16h55.04.233,torte-2b,2020.1.3,Win32,60,13948,2.449075,,,,,,,,,,,,,,,,,,,,,,,,,,,,,,,,,,,,,,,,,,,,,,,,,,,,,,,,,,,,,,,,,
,,,,,,,,,,,,,Too slow :(,,,,,,t4.png,t4.png,0,0.98115,20,Female,2020-11-25_16h55.04.233,torte-2b,2020.1.3,Win32,60,13948,,space,4.64938,space,24.408915,0,0,0,52,1,,,,,,,,,,,,,,,,,,,,,,,,,,,,,,,,,,,,,,,,,,,,,,,,,,,,,,,,
,,,,,,,,,,,,l,Correct!,,,,,,t1.png,t5.png,4,9.55E-11,20,Female,2020-11-25_16h55.04.233,torte-2b,2020.1.3,Win32,60,13948,2.11751,,,,,0,1,1,85,1,,,,,,,,,,,,,,,,,,,,,,,,,,,,,,,,,,,,,,,,,,,,,,,,,,,,,,,,
,,,,,,,,,,,,a,Correct!,,,,,,t5.png,t5.png,0,0.97829,20,Female,2020-11-25_16h55.04.233,torte-2b,2020.1.3,Win32,60,13948,1.053995,,,,,0,2,2,70,1,,,,,,,,,,,,,,,,,,,,,,,,,,,,,,,,,,,,,,,,,,,,,,,,,,,,,,,,
,,,,,,,,,,,,,Too slow :(,,,,,,t3.png,t4.png,1,0.90855,20,Female,2020-11-25_16h55.04.233,torte-2b,2020.1.3,Win32,60,13948,,,,,,0,3,3,96,1,,,,,,,,,,,,,,,,,,,,,,,,,,,,,,,,,,,,,,,,,,,,,,,,,,,,,,,,
,,,,,,,,,,,,l,Correct!,,,,,,t2.png,t1.png,1,0.9,20,Female,2020-11-25_16h55.04.233,torte-2b,2020.1.3,Win32,60,13948,1.999725,,,,,0,4,4,118,1,,,,,,,,,,,,,,,,,,,,,,,,,,,,,,,,,,,,,,,,,,,,,,,,,,,,,,,,
,,,,,,,,,,,,a,Incorrect,,,,,,t5.png,t3.png,2,0.056466,20,Female,2020-11-25_16h55.04.233,torte-2b,2020.1.3,Win32,60,13948,2.3934,,,,,0,5,5,108,1,,,,,,,,,,,,,,,,,,,,,,,,,,,,,,,,,,,,,,,,,,,,,,,,,,,,,,,,
,,,,,,,,,,,,l,Correct!,,,,,,t2.png,t4.png,2,0.0591,20,Female,2020-11-25_16h55.04.233,torte-2b,2020.1.3,Win32,60,13948,1.767815,,,,,0,6,6,15,1,,,,,,,,,,,,,,,,,,,,,,,,,,,,,,,,,,,,,,,,,,,,,,,,,,,,,,,,
,,,,,,,,,,,,l,Correct!,,,,,,t1.png,t5.png,4,9.55E-11,20,Female,2020-11-25_16h55.04.233,torte-2b,2020.1.3,Win32,60,13948,1.166115,,,,,0,7,7,55,1,,,,,,,,,,,,,,,,,,,,,,,,,,,,,,,,,,,,,,,,,,,,,,,,,,,,,,,,
,,,,,,,,,,,,a,Incorrect,,,,,,t5.png,t3.png,2,0.056466,20,Female,2020-11-25_16h55.04.233,torte-2b,2020.1.3,Win32,60,13948,1.6502,,,,,0,8,8,38,1,,,,,,,,,,,,,,,,,,,,,,,,,,,,,,,,,,,,,,,,,,,,,,,,,,,,,,,,
,,,,,,,,,,,,l,Correct!,,,,,,t4.png,t1.png,3,0.0000131,20,Female,2020-11-25_16h55.04.233,torte-2b,2020.1.3,Win32,60,13948,2.198975,,,,,0,9,9,93,1,,,,,,,,,,,,,,,,,,,,,,,,,,,,,,,,,,,,,,,,,,,,,,,,,,,,,,,,
,,,,,,,,,,,,,Too slow :(,,,,,,t1.png,t2.png,1,0.90025,20,Female,2020-11-25_16h55.04.233,torte-2b,2020.1.3,Win32,60,13948,,,,,,0,10,10,105,1,,,,,,,,,,,,,,,,,,,,,,,,,,,,,,,,,,,,,,,,,,,,,,,,,,,,,,,,
,,,,,,,,,,,,a,Correct!,,,,,,t1.png,t1.png,0,0.97829,20,Female,2020-11-25_16h55.04.233,torte-2b,2020.1.3,Win32,60,13948,0.99937,,,,,0,11,11,78,1,,,,,,,,,,,,,,,,,,,,,,,,,,,,,,,,,,,,,,,,,,,,,,,,,,,,,,,,
,,,,,,,,,,,,a,Correct!,,,,,,t2.png,t2.png,0,0.981,20,Female,2020-11-25_16h55.04.233,torte-2b,2020.1.3,Win32,60,13948,1.132775,,,,,0,12,12,101,1,,,,,,,,,,,,,,,,,,,,,,,,,,,,,,,,,,,,,,,,,,,,,,,,,,,,,,,,
,,,,,,,,,,,,a,Incorrect,,,,,,t4.png,t3.png,1,0.90855,20,Female,2020-11-25_16h55.04.233,torte-2b,2020.1.3,Win32,60,13948,1.83465,,,,,0,13,13,35,1,,,,,,,,,,,,,,,,,,,,,,,,,,,,,,,,,,,,,,,,,,,,,,,,,,,,,,,,
,,,,,,,,,,,,,Too slow :(,,,,,,t2.png,t5.png,3,0.0000131,20,Female,2020-11-25_16h55.04.233,torte-2b,2020.1.3,Win32,60,13948,,,,,,0,14,14,95,1,,,,,,,,,,,,,,,,,,,,,,,,,,,,,,,,,,,,,,,,,,,,,,,,,,,,,,,,
,,,,,,,,,,,,a,Correct!,,,,,,t5.png,t5.png,0,0.97829,20,Female,2020-11-25_16h55.04.233,torte-2b,2020.1.3,Win32,60,13948,1.13339,,,,,0,15,15,73,1,,,,,,,,,,,,,,,,,,,,,,,,,,,,,,,,,,,,,,,,,,,,,,,,,,,,,,,,
,,,,,,,,,,,,a,Correct!,,,,,,t1.png,t1.png,0,0.97829,20,Female,2020-11-25_16h55.04.233,torte-2b,2020.1.3,Win32,60,13948,0.823365,,,,,0,16,16,67,1,,,,,,,,,,,,,,,,,,,,,,,,,,,,,,,,,,,,,,,,,,,,,,,,,,,,,,,,
,,,,,,,,,,,,,Too slow :(,,,,,,t1.png,t3.png,2,0.056466,20,Female,2020-11-25_16h55.04.233,torte-2b,2020.1.3,Win32,60,13948,,,,,,0,17,17,60,1,,,,,,,,,,,,,,,,,,,,,,,,,,,,,,,,,,,,,,,,,,,,,,,,,,,,,,,,
,,,,,,,,,,,,a,Correct!,,,,,,t4.png,t4.png,0,0.98115,20,Female,2020-11-25_16h55.04.233,torte-2b,2020.1.3,Win32,60,13948,1.05023,,,,,0,18,18,90,1,,,,,,,,,,,,,,,,,,,,,,,,,,,,,,,,,,,,,,,,,,,,,,,,,,,,,,,,
,,,,,,,,,,,,,Too slow :(,,,,,,t4.png,t3.png,1,0.90855,20,Female,2020-11-25_16h55.04.233,torte-2b,2020.1.3,Win32,60,13948,,,,,,0,19,19,75,1,,,,,,,,,,,,,,,,,,,,,,,,,,,,,,,,,,,,,,,,,,,,,,,,,,,,,,,,
,,,,,,,,,,,,,Too slow :(,,,,,,t3.png,t4.png,1,0.909,20,Female,2020-11-25_16h55.04.233,torte-2b,2020.1.3,Win32,60,13948,,,,,,0,20,20,89,1,,,,,,,,,,,,,,,,,,,,,,,,,,,,,,,,,,,,,,,,,,,,,,,,,,,,,,,,
,,,,,,,,,,,,l,Incorrect,,,,,,t2.png,t3.png,1,0.90855,20,Female,2020-11-25_16h55.04.233,torte-2b,2020.1.3,Win32,60,13948,2.011835,,,,,0,21,21,10,1,,,,,,,,,,,,,,,,,,,,,,,,,,,,,,,,,,,,,,,,,,,,,,,,,,,,,,,,
,,,,,,,,,,,,,Too slow :(,,,,,,t1.png,t2.png,1,0.90025,20,Female,2020-11-25_16h55.04.233,torte-2b,2020.1.3,Win32,60,13948,,,,,,0,22,22,112,1,,,,,,,,,,,,,,,,,,,,,,,,,,,,,,,,,,,,,,,,,,,,,,,,,,,,,,,,
,,,,,,,,,,,,a,Incorrect,,,,,,t1.png,t1.png,0,0.978,20,Female,2020-11-25_16h55.04.233,torte-2b,2020.1.3,Win32,60,13948,0.75246,,,,,0,23,23,28,1,,,,,,,,,,,,,,,,,,,,,,,,,,,,,,,,,,,,,,,,,,,,,,,,,,,,,,,,
,,,,,,,,,,,,a,Correct!,,,,,,t3.png,t4.png,1,0.909,20,Female,2020-11-25_16h55.04.233,torte-2b,2020.1.3,Win32,60,13948,1.535765,,,,,0,24,24,106,1,,,,,,,,,,,,,,,,,,,,,,,,,,,,,,,,,,,,,,,,,,,,,,,,,,,,,,,,
,,,,,,,,,,,,a,Incorrect,,,,,,t3.png,t5.png,2,0.056466,20,Female,2020-11-25_16h55.04.233,torte-2b,2020.1.3,Win32,60,13948,2.18166,,,,,0,25,25,14,1,,,,,,,,,,,,,,,,,,,,,,,,,,,,,,,,,,,,,,,,,,,,,,,,,,,,,,,,
,,,,,,,,,,,,a,Incorrect,,,,,,t1.png,t3.png,2,0.056466,20,Female,2020-11-25_16h55.04.233,torte-2b,2020.1.3,Win32,60,13948,1.83607,,,,,0,26,26,87,1,,,,,,,,,,,,,,,,,,,,,,,,,,,,,,,,,,,,,,,,,,,,,,,,,,,,,,,,
,,,,,,,,,,,,l,Correct!,,,,,,t1.png,t4.png,3,0.0000131,20,Female,2020-11-25_16h55.04.233,torte-2b,2020.1.3,Win32,60,13948,1.369115,,,,,0,27,27,92,1,,,,,,,,,,,,,,,,,,,,,,,,,,,,,,,,,,,,,,,,,,,,,,,,,,,,,,,,
,,,,,,,,,,,,,Too slow :(,,,,,,t5.png,t2.png,3,0.0000131,20,Female,2020-11-25_16h55.04.233,torte-2b,2020.1.3,Win32,60,13948,,,,,,0,28,28,119,1,,,,,,,,,,,,,,,,,,,,,,,,,,,,,,,,,,,,,,,,,,,,,,,,,,,,,,,,
,,,,,,,,,,,,a,Incorrect,,,,,,t5.png,t2.png,3,0.0000131,20,Female,2020-11-25_16h55.04.233,torte-2b,2020.1.3,Win32,60,13948,2.099835,,,,,0,29,29,116,1,,,,,,,,,,,,,,,,,,,,,,,,,,,,,,,,,,,,,,,,,,,,,,,,,,,,,,,,
,,,,,,,,,,,,l,Correct!,,,,,,t2.png,t5.png,3,0.0000131,20,Female,2020-11-25_16h55.04.233,torte-2b,2020.1.3,Win32,60,13948,1.69686,,,,,0,30,30,104,1,,,,,,,,,,,,,,,,,,,,,,,,,,,,,,,,,,,,,,,,,,,,,,,,,,,,,,,,
,,,,,,,,,,,,,Too slow :(,,,,,,t2.png,t3.png,1,0.90855,20,Female,2020-11-25_16h55.04.233,torte-2b,2020.1.3,Win32,60,13948,,,,,,0,31,31,111,1,,,,,,,,,,,,,,,,,,,,,,,,,,,,,,,,,,,,,,,,,,,,,,,,,,,,,,,,
,,,,,,,,,,,,a,Incorrect,,,,,,t5.png,t1.png,4,9.55E-11,20,Female,2020-11-25_16h55.04.233,torte-2b,2020.1.3,Win32,60,13948,1.119915,,,,,0,32,32,71,1,,,,,,,,,,,,,,,,,,,,,,,,,,,,,,,,,,,,,,,,,,,,,,,,,,,,,,,,
,,,,,,,,,,,,,Too slow :(,,,,,,t3.png,t5.png,2,0.0565,20,Female,2020-11-25_16h55.04.233,torte-2b,2020.1.3,Win32,60,13948,,,,,,0,33,33,83,1,,,,,,,,,,,,,,,,,,,,,,,,,,,,,,,,,,,,,,,,,,,,,,,,,,,,,,,,
,,,,,,,,,,,,a,Incorrect,,,,,,t3.png,t1.png,2,0.056466,20,Female,2020-11-25_16h55.04.233,torte-2b,2020.1.3,Win32,60,13948,1.33436,,,,,0,34,34,64,1,,,,,,,,,,,,,,,,,,,,,,,,,,,,,,,,,,,,,,,,,,,,,,,,,,,,,,,,
,,,,,,,,,,,,a,Correct!,,,,,,t1.png,t1.png,0,0.97829,20,Female,2020-11-25_16h55.04.233,torte-2b,2020.1.3,Win32,60,13948,0.927005,,,,,0,35,35,9,1,,,,,,,,,,,,,,,,,,,,,,,,,,,,,,,,,,,,,,,,,,,,,,,,,,,,,,,,
,,,,,,,,,,,,a,Correct!,,,,,,t5.png,t5.png,0,0.97829,20,Female,2020-11-25_16h55.04.233,torte-2b,2020.1.3,Win32,60,13948,1.132805,,,,,0,36,36,25,1,,,,,,,,,,,,,,,,,,,,,,,,,,,,,,,,,,,,,,,,,,,,,,,,,,,,,,,,
,,,,,,,,,,,,l,Correct!,,,,,,t1.png,t3.png,2,0.056466,20,Female,2020-11-25_16h55.04.233,torte-2b,2020.1.3,Win32,60,13948,1.599835,,,,,0,37,37,69,1,,,,,,,,,,,,,,,,,,,,,,,,,,,,,,,,,,,,,,,,,,,,,,,,,,,,,,,,
,,,,,,,,,,,,,Too slow :(,,,,,,t2.png,t4.png,2,0.059078,20,Female,2020-11-25_16h55.04.233,torte-2b,2020.1.3,Win32,60,13948,,,,,,0,38,38,77,1,,,,,,,,,,,,,,,,,,,,,,,,,,,,,,,,,,,,,,,,,,,,,,,,,,,,,,,,
,,,,,,,,,,,,a,Correct!,,,,,,t3.png,t2.png,1,0.909,20,Female,2020-11-25_16h55.04.233,torte-2b,2020.1.3,Win32,60,13948,1.434015,,,,,0,39,39,23,1,,,,,,,,,,,,,,,,,,,,,,,,,,,,,,,,,,,,,,,,,,,,,,,,,,,,,,,,
,,,,,,,,,,,,l,Correct!,,,,,,t1.png,t4.png,3,0.0000131,20,Female,2020-11-25_16h55.04.233,torte-2b,2020.1.3,Win32,60,13948,1.350175,,,,,0,40,40,17,1,,,,,,,,,,,,,,,,,,,,,,,,,,,,,,,,,,,,,,,,,,,,,,,,,,,,,,,,
,,,,,,,,,,,,a,Incorrect,,,,,,t5.png,t2.png,3,0.0000131,20,Female,2020-11-25_16h55.04.233,torte-2b,2020.1.3,Win32,60,13948,1.235545,,,,,0,41,41,91,1,,,,,,,,,,,,,,,,,,,,,,,,,,,,,,,,,,,,,,,,,,,,,,,,,,,,,,,,
,,,,,,,,,,,,l,Correct!,,,,,,t1.png,t5.png,4,9.55E-11,20,Female,2020-11-25_16h55.04.233,torte-2b,2020.1.3,Win32,60,13948,1.85022,,,,,0,42,42,41,1,,,,,,,,,,,,,,,,,,,,,,,,,,,,,,,,,,,,,,,,,,,,,,,,,,,,,,,,
,,,,,,,,,,,,,Too slow :(,,,,,,t3.png,t2.png,1,0.90855,20,Female,2020-11-25_16h55.04.233,torte-2b,2020.1.3,Win32,60,13948,,,,,,0,43,43,53,1,,,,,,,,,,,,,,,,,,,,,,,,,,,,,,,,,,,,,,,,,,,,,,,,,,,,,,,,
,,,,,,,,,,,,a,Correct!,,,,,,t5.png,t4.png,1,0.90025,20,Female,2020-11-25_16h55.04.233,torte-2b,2020.1.3,Win32,60,13948,1.31649,,,,,0,44,44,27,1,,,,,,,,,,,,,,,,,,,,,,,,,,,,,,,,,,,,,,,,,,,,,,,,,,,,,,,,
,,,,,,,,,,,,a,Incorrect,,,,,,t4.png,t2.png,2,0.059078,20,Female,2020-11-25_16h55.04.233,torte-2b,2020.1.3,Win32,60,13948,1.23246,,,,,0,45,45,86,1,,,,,,,,,,,,,,,,,,,,,,,,,,,,,,,,,,,,,,,,,,,,,,,,,,,,,,,,
,,,,,,,,,,,,l,Correct!,,,,,,t2.png,t5.png,3,0.0000131,20,Female,2020-11-25_16h55.04.233,torte-2b,2020.1.3,Win32,60,13948,1.552745,,,,,0,46,46,8,1,,,,,,,,,,,,,,,,,,,,,,,,,,,,,,,,,,,,,,,,,,,,,,,,,,,,,,,,
,,,,,,,,,,,,a,Incorrect,,,,,,t3.png,t1.png,2,0.056466,20,Female,2020-11-25_16h55.04.233,torte-2b,2020.1.3,Win32,60,13948,1.16926,,,,,0,47,47,29,1,,,,,,,,,,,,,,,,,,,,,,,,,,,,,,,,,,,,,,,,,,,,,,,,,,,,,,,,
,,,,,,,,,,,,l,Incorrect,,,,,,t4.png,t5.png,1,0.90025,20,Female,2020-11-25_16h55.04.233,torte-2b,2020.1.3,Win32,60,13948,1.74988,,,,,0,48,48,58,1,,,,,,,,,,,,,,,,,,,,,,,,,,,,,,,,,,,,,,,,,,,,,,,,,,,,,,,,
,,,,,,,,,,,,a,Incorrect,,,,,,t5.png,t1.png,4,9.55E-11,20,Female,2020-11-25_16h55.04.233,torte-2b,2020.1.3,Win32,60,13948,1.56642,,,,,0,49,49,102,1,,,,,,,,,,,,,,,,,,,,,,,,,,,,,,,,,,,,,,,,,,,,,,,,,,,,,,,,
,,,,,,,,,,,,l,Incorrect,,,,,,t4.png,t5.png,1,0.90025,20,Female,2020-11-25_16h55.04.233,torte-2b,2020.1.3,Win32,60,13948,2.283105,,,,,0,50,50,47,1,,,,,,,,,,,,,,,,,,,,,,,,,,,,,,,,,,,,,,,,,,,,,,,,,,,,,,,,
,,,,,,,,,,,,a,Correct!,,,,,,t4.png,t3.png,1,0.909,20,Female,2020-11-25_16h55.04.233,torte-2b,2020.1.3,Win32,60,13948,1.98848,,,,,0,51,51,46,1,,,,,,,,,,,,,,,,,,,,,,,,,,,,,,,,,,,,,,,,,,,,,,,,,,,,,,,,
,,,,,,,,,,,,a,Correct!,,,,,,t4.png,t3.png,1,0.90855,20,Female,2020-11-25_16h55.04.233,torte-2b,2020.1.3,Win32,60,13948,0.81678,,,,,0,52,52,45,1,,,,,,,,,,,,,,,,,,,,,,,,,,,,,,,,,,,,,,,,,,,,,,,,,,,,,,,,
,,,,,,,,,,,,l,Incorrect,,,,,,t4.png,t5.png,1,0.90025,20,Female,2020-11-25_16h55.04.233,torte-2b,2020.1.3,Win32,60,13948,1.85032,,,,,0,53,53,113,1,,,,,,,,,,,,,,,,,,,,,,,,,,,,,,,,,,,,,,,,,,,,,,,,,,,,,,,,
,,,,,,,,,,,,a,Incorrect,,,,,,t5.png,t3.png,2,0.0565,20,Female,2020-11-25_16h55.04.233,torte-2b,2020.1.3,Win32,60,13948,1.369395,,,,,0,54,54,39,1,,,,,,,,,,,,,,,,,,,,,,,,,,,,,,,,,,,,,,,,,,,,,,,,,,,,,,,,
,,,,,,,,,,,,l,Incorrect,,,,,,t3.png,t4.png,1,0.909,20,Female,2020-11-25_16h55.04.233,torte-2b,2020.1.3,Win32,60,13948,1.46815,,,,,0,55,55,82,1,,,,,,,,,,,,,,,,,,,,,,,,,,,,,,,,,,,,,,,,,,,,,,,,,,,,,,,,
,,,,,,,,,,,,l,Correct!,,,,,,t3.png,t5.png,2,0.056466,20,Female,2020-11-25_16h55.04.233,torte-2b,2020.1.3,Win32,60,13948,0.920075,,,,,0,56,56,44,1,,,,,,,,,,,,,,,,,,,,,,,,,,,,,,,,,,,,,,,,,,,,,,,,,,,,,,,,
,,,,,,,,,,,,a,Correct!,,,,,,t2.png,t1.png,1,0.90025,20,Female,2020-11-25_16h55.04.233,torte-2b,2020.1.3,Win32,60,13948,1.901005,,,,,0,57,57,5,1,,,,,,,,,,,,,,,,,,,,,,,,,,,,,,,,,,,,,,,,,,,,,,,,,,,,,,,,
,,,,,,,,,,,,l,Correct!,,,,,,t1.png,t3.png,2,0.056466,20,Female,2020-11-25_16h55.04.233,torte-2b,2020.1.3,Win32,60,13948,1.247755,,,,,0,58,58,63,1,,,,,,,,,,,,,,,,,,,,,,,,,,,,,,,,,,,,,,,,,,,,,,,,,,,,,,,,
,,,,,,,,,,,,l,Correct!,,,,,,t1.png,t4.png,3,0.0000131,20,Female,2020-11-25_16h55.04.233,torte-2b,2020.1.3,Win32,60,13948,0.93208,,,,,0,59,59,50,1,,,,,,,,,,,,,,,,,,,,,,,,,,,,,,,,,,,,,,,,,,,,,,,,,,,,,,,,
,,,,,,,,,,,,l,Correct!,,,,,,t1.png,t4.png,3,0.0000131,20,Female,2020-11-25_16h55.04.233,torte-2b,2020.1.3,Win32,60,13948,1.04968,,,,,0,60,60,81,1,,,,,,,,,,,,,,,,,,,,,,,,,,,,,,,,,,,,,,,,,,,,,,,,,,,,,,,,
,,,,,,,,,,,,l,Correct!,,,,,,t1.png,t5.png,4,9.55E-11,20,Female,2020-11-25_16h55.04.233,torte-2b,2020.1.3,Win32,60,13948,0.800835,,,,,0,61,61,12,1,,,,,,,,,,,,,,,,,,,,,,,,,,,,,,,,,,,,,,,,,,,,,,,,,,,,,,,,
,,,,,,,,,,,,a,Correct!,,,,,,t1.png,t1.png,0,0.978,20,Female,2020-11-25_16h55.04.233,torte-2b,2020.1.3,Win32,60,13948,0.85267,,,,,0,62,62,54,1,,,,,,,,,,,,,,,,,,,,,,,,,,,,,,,,,,,,,,,,,,,,,,,,,,,,,,,,
,,,,,,,,,,,,l,Incorrect,,,,,,t2.png,t3.png,1,0.90855,20,Female,2020-11-25_16h55.04.233,torte-2b,2020.1.3,Win32,60,13948,1.8219,,,,,0,63,63,68,1,,,,,,,,,,,,,,,,,,,,,,,,,,,,,,,,,,,,,,,,,,,,,,,,,,,,,,,,
,,,,,,,,,,,,a,Incorrect,,,,,,t4.png,t2.png,2,0.059078,20,Female,2020-11-25_16h55.04.233,torte-2b,2020.1.3,Win32,60,13948,0.96331,,,,,0,64,64,109,1,,,,,,,,,,,,,,,,,,,,,,,,,,,,,,,,,,,,,,,,,,,,,,,,,,,,,,,,
,,,,,,,,,,,,a,Incorrect,,,,,,t5.png,t2.png,3,0.0000131,20,Female,2020-11-25_16h55.04.233,torte-2b,2020.1.3,Win32,60,13948,0.920595,,,,,0,65,65,98,1,,,,,,,,,,,,,,,,,,,,,,,,,,,,,,,,,,,,,,,,,,,,,,,,,,,,,,,,
,,,,,,,,,,,,a,Incorrect,,,,,,t4.png,t1.png,3,0.0000131,20,Female,2020-11-25_16h55.04.233,torte-2b,2020.1.3,Win32,60,13948,0.651595,,,,,0,66,66,48,1,,,,,,,,,,,,,,,,,,,,,,,,,,,,,,,,,,,,,,,,,,,,,,,,,,,,,,,,
,,,,,,,,,,,,a,Incorrect,,,,,,t4.png,t2.png,2,0.0591,20,Female,2020-11-25_16h55.04.233,torte-2b,2020.1.3,Win32,60,13948,0.97766,,,,,0,67,67,36,1,,,,,,,,,,,,,,,,,,,,,,,,,,,,,,,,,,,,,,,,,,,,,,,,,,,,,,,,
,,,,,,,,,,,,a,Incorrect,,,,,,t4.png,t2.png,2,0.059078,20,Female,2020-11-25_16h55.04.233,torte-2b,2020.1.3,Win32,60,13948,0.77163,,,,,0,68,68,110,1,,,,,,,,,,,,,,,,,,,,,,,,,,,,,,,,,,,,,,,,,,,,,,,,,,,,,,,,
,,,,,,,,,,,,a,Correct!,,,,,,t2.png,t2.png,0,0.98115,20,Female,2020-11-25_16h55.04.233,torte-2b,2020.1.3,Win32,60,13948,1.034295,,,,,0,69,69,57,1,,,,,,,,,,,,,,,,,,,,,,,,,,,,,,,,,,,,,,,,,,,,,,,,,,,,,,,,
,,,,,,,,,,,,l,Incorrect,,,,,,t2.png,t3.png,1,0.909,20,Female,2020-11-25_16h55.04.233,torte-2b,2020.1.3,Win32,60,13948,0.852695,,,,,0,70,70,74,1,,,,,,,,,,,,,,,,,,,,,,,,,,,,,,,,,,,,,,,,,,,,,,,,,,,,,,,,
,,,,,,,,,,,,l,Correct!,,,,,,t4.png,t5.png,1,0.9,20,Female,2020-11-25_16h55.04.233,torte-2b,2020.1.3,Win32,60,13948,1.01961,,,,,0,71,71,115,1,,,,,,,,,,,,,,,,,,,,,,,,,,,,,,,,,,,,,,,,,,,,,,,,,,,,,,,,
,,,,,,,,,,,,a,Correct!,,,,,,t2.png,t2.png,0,0.98115,20,Female,2020-11-25_16h55.04.233,torte-2b,2020.1.3,Win32,60,13948,0.87028,,,,,0,72,72,7,1,,,,,,,,,,,,,,,,,,,,,,,,,,,,,,,,,,,,,,,,,,,,,,,,,,,,,,,,
,,,,,,,,,,,,a,Incorrect,,,,,,t4.png,t1.png,3,0.0000131,20,Female,2020-11-25_16h55.04.233,torte-2b,2020.1.3,Win32,60,13948,0.85133,,,,,0,73,73,42,1,,,,,,,,,,,,,,,,,,,,,,,,,,,,,,,,,,,,,,,,,,,,,,,,,,,,,,,,
,,,,,,,,,,,,a,Correct!,,,,,,t2.png,t1.png,1,0.90025,20,Female,2020-11-25_16h55.04.233,torte-2b,2020.1.3,Win32,60,13948,1.06692,,,,,0,74,74,62,1,,,,,,,,,,,,,,,,,,,,,,,,,,,,,,,,,,,,,,,,,,,,,,,,,,,,,,,,
,,,,,,,,,,,,a,Correct!,,,,,,t5.png,t5.png,0,0.97829,20,Female,2020-11-25_16h55.04.233,torte-2b,2020.1.3,Win32,60,13948,1.07585,,,,,0,75,75,94,1,,,,,,,,,,,,,,,,,,,,,,,,,,,,,,,,,,,,,,,,,,,,,,,,,,,,,,,,
,,,,,,,,,,,,l,Correct!,,,,,,t1.png,t5.png,4,9.55E-11,20,Female,2020-11-25_16h55.04.233,torte-2b,2020.1.3,Win32,60,13948,0.79469,,,,,0,76,76,16,1,,,,,,,,,,,,,,,,,,,,,,,,,,,,,,,,,,,,,,,,,,,,,,,,,,,,,,,,
,,,,,,,,,,,,a,Incorrect,,,,,,t5.png,t1.png,4,9.55E-11,20,Female,2020-11-25_16h55.04.233,torte-2b,2020.1.3,Win32,60,13948,0.98556,,,,,0,77,77,22,1,,,,,,,,,,,,,,,,,,,,,,,,,,,,,,,,,,,,,,,,,,,,,,,,,,,,,,,,
,,,,,,,,,,,,a,Correct!,,,,,,t5.png,t4.png,1,0.9,20,Female,2020-11-25_16h55.04.233,torte-2b,2020.1.3,Win32,60,13948,1.73346,,,,,0,78,78,49,1,,,,,,,,,,,,,,,,,,,,,,,,,,,,,,,,,,,,,,,,,,,,,,,,,,,,,,,,
,,,,,,,,,,,,a,Incorrect,,,,,,t3.png,t1.png,2,0.056466,20,Female,2020-11-25_16h55.04.233,torte-2b,2020.1.3,Win32,60,13948,1.133585,,,,,0,79,79,32,1,,,,,,,,,,,,,,,,,,,,,,,,,,,,,,,,,,,,,,,,,,,,,,,,,,,,,,,,
,,,,,,,,,,,,l,Correct!,,,,,,t2.png,t5.png,3,0.0000131,20,Female,2020-11-25_16h55.04.233,torte-2b,2020.1.3,Win32,60,13948,1.00346,,,,,0,80,80,40,1,,,,,,,,,,,,,,,,,,,,,,,,,,,,,,,,,,,,,,,,,,,,,,,,,,,,,,,,
,,,,,,,,,,,,a,Correct!,,,,,,t2.png,t2.png,0,0.98115,20,Female,2020-11-25_16h55.04.233,torte-2b,2020.1.3,Win32,60,13948,0.79242,,,,,0,81,81,2,1,,,,,,,,,,,,,,,,,,,,,,,,,,,,,,,,,,,,,,,,,,,,,,,,,,,,,,,,
,,,,,,,,,,,,l,Incorrect,,,,,,t2.png,t3.png,1,0.90855,20,Female,2020-11-25_16h55.04.233,torte-2b,2020.1.3,Win32,60,13948,1.303375,,,,,0,82,82,65,1,,,,,,,,,,,,,,,,,,,,,,,,,,,,,,,,,,,,,,,,,,,,,,,,,,,,,,,,
,,,,,,,,,,,,a,Incorrect,,,,,,t5.png,t1.png,4,9.55E-11,20,Female,2020-11-25_16h55.04.233,torte-2b,2020.1.3,Win32,60,13948,0.786555,,,,,0,83,83,100,1,,,,,,,,,,,,,,,,,,,,,,,,,,,,,,,,,,,,,,,,,,,,,,,,,,,,,,,,
,,,,,,,,,,,,l,Incorrect,,,,,,t1.png,t2.png,1,0.9,20,Female,2020-11-25_16h55.04.233,torte-2b,2020.1.3,Win32,60,13948,0.90335,,,,,0,84,84,1,1,,,,,,,,,,,,,,,,,,,,,,,,,,,,,,,,,,,,,,,,,,,,,,,,,,,,,,,,
,,,,,,,,,,,,a,Correct!,,,,,,t2.png,t1.png,1,0.90025,20,Female,2020-11-25_16h55.04.233,torte-2b,2020.1.3,Win32,60,13948,1.28335,,,,,0,85,85,19,1,,,,,,,,,,,,,,,,,,,,,,,,,,,,,,,,,,,,,,,,,,,,,,,,,,,,,,,,
,,,,,,,,,,,,l,Correct!,,,,,,t1.png,t3.png,2,0.056466,20,Female,2020-11-25_16h55.04.233,torte-2b,2020.1.3,Win32,60,13948,0.73266,,,,,0,86,86,99,1,,,,,,,,,,,,,,,,,,,,,,,,,,,,,,,,,,,,,,,,,,,,,,,,,,,,,,,,
,,,,,,,,,,,,l,Correct!,,,,,,t1.png,t4.png,3,0.0000131,20,Female,2020-11-25_16h55.04.233,torte-2b,2020.1.3,Win32,60,13948,0.966935,,,,,0,87,87,107,1,,,,,,,,,,,,,,,,,,,,,,,,,,,,,,,,,,,,,,,,,,,,,,,,,,,,,,,,
,,,,,,,,,,,,l,Correct!,,,,,,t2.png,t4.png,2,0.059078,20,Female,2020-11-25_16h55.04.233,torte-2b,2020.1.3,Win32,60,13948,0.861655,,,,,0,88,88,11,1,,,,,,,,,,,,,,,,,,,,,,,,,,,,,,,,,,,,,,,,,,,,,,,,,,,,,,,,
,,,,,,,,,,,,a,Incorrect,,,,,,t4.png,t2.png,2,0.059078,20,Female,2020-11-25_16h55.04.233,torte-2b,2020.1.3,Win32,60,13948,1.00281,,,,,0,89,89,88,1,,,,,,,,,,,,,,,,,,,,,,,,,,,,,,,,,,,,,,,,,,,,,,,,,,,,,,,,
,,,,,,,,,,,,a,Correct!,,,,,,t4.png,t4.png,0,0.98115,20,Female,2020-11-25_16h55.04.233,torte-2b,2020.1.3,Win32,60,13948,0.72777,,,,,0,90,90,80,1,,,,,,,,,,,,,,,,,,,,,,,,,,,,,,,,,,,,,,,,,,,,,,,,,,,,,,,,
,,,,,,,,,,,,l,Correct!,,,,,,t2.png,t5.png,3,0.0000131,20,Female,2020-11-25_16h55.04.233,torte-2b,2020.1.3,Win32,60,13948,1.576545,,,,,0,91,91,66,1,,,,,,,,,,,,,,,,,,,,,,,,,,,,,,,,,,,,,,,,,,,,,,,,,,,,,,,,
,,,,,,,,,,,,a,Incorrect,,,,,,t5.png,t3.png,2,0.056466,20,Female,2020-11-25_16h55.04.233,torte-2b,2020.1.3,Win32,60,13948,1.56555,,,,,0,92,92,114,1,,,,,,,,,,,,,,,,,,,,,,,,,,,,,,,,,,,,,,,,,,,,,,,,,,,,,,,,
,,,,,,,,,,,,a,Incorrect,,,,,,t4.png,t1.png,3,0.0000131,20,Female,2020-11-25_16h55.04.233,torte-2b,2020.1.3,Win32,60,13948,0.900215,,,,,0,93,93,61,1,,,,,,,,,,,,,,,,,,,,,,,,,,,,,,,,,,,,,,,,,,,,,,,,,,,,,,,,
,,,,,,,,,,,,a,Correct!,,,,,,t4.png,t4.png,0,0.98115,20,Female,2020-11-25_16h55.04.233,torte-2b,2020.1.3,Win32,60,13948,0.93282,,,,,0,94,94,21,1,,,,,,,,,,,,,,,,,,,,,,,,,,,,,,,,,,,,,,,,,,,,,,,,,,,,,,,,
,,,,,,,,,,,,a,Incorrect,,,,,,t5.png,t1.png,4,9.55E-11,20,Female,2020-11-25_16h55.04.233,torte-2b,2020.1.3,Win32,60,13948,0.77557,,,,,0,95,95,43,1,,,,,,,,,,,,,,,,,,,,,,,,,,,,,,,,,,,,,,,,,,,,,,,,,,,,,,,,
,,,,,,,,,,,,a,Incorrect,,,,,,t3.png,t1.png,2,0.0565,20,Female,2020-11-25_16h55.04.233,torte-2b,2020.1.3,Win32,60,13948,0.80013,,,,,0,96,96,31,1,,,,,,,,,,,,,,,,,,,,,,,,,,,,,,,,,,,,,,,,,,,,,,,,,,,,,,,,
,,,,,,,,,,,,l,Incorrect,,,,,,t4.png,t5.png,1,0.90025,20,Female,2020-11-25_16h55.04.233,torte-2b,2020.1.3,Win32,60,13948,0.93475,,,,,0,97,97,103,1,,,,,,,,,,,,,,,,,,,,,,,,,,,,,,,,,,,,,,,,,,,,,,,,,,,,,,,,
,,,,,,,,,,,,a,Incorrect,,,,,,t3.png,t1.png,2,0.056466,20,Female,2020-11-25_16h55.04.233,torte-2b,2020.1.3,Win32,60,13948,0.552775,,,,,0,98,98,0,1,,,,,,,,,,,,,,,,,,,,,,,,,,,,,,,,,,,,,,,,,,,,,,,,,,,,,,,,
,,,,,,,,,,,,a,Incorrect,,,,,,t5.png,t2.png,3,0.0000131,20,Female,2020-11-25_16h55.04.233,torte-2b,2020.1.3,Win32,60,13948,0.703165,,,,,0,99,99,51,1,,,,,,,,,,,,,,,,,,,,,,,,,,,,,,,,,,,,,,,,,,,,,,,,,,,,,,,,
,,,,,,,,,,,,a,Correct!,,,,,,t5.png,t5.png,0,0.978,20,Female,2020-11-25_16h55.04.233,torte-2b,2020.1.3,Win32,60,13948,0.82013,,,,,0,100,100,117,1,,,,,,,,,,,,,,,,,,,,,,,,,,,,,,,,,,,,,,,,,,,,,,,,,,,,,,,,
,,,,,,,,,,,,a,Incorrect,,,,,,t5.png,t3.png,2,0.056466,20,Female,2020-11-25_16h55.04.233,torte-2b,2020.1.3,Win32,60,13948,0.673105,,,,,0,101,101,56,1,,,,,,,,,,,,,,,,,,,,,,,,,,,,,,,,,,,,,,,,,,,,,,,,,,,,,,,,
,,,,,,,,,,,,l,Correct!,,,,,,t3.png,t5.png,2,0.056466,20,Female,2020-11-25_16h55.04.233,torte-2b,2020.1.3,Win32,60,13948,0.81923,,,,,0,102,102,6,1,,,,,,,,,,,,,,,,,,,,,,,,,,,,,,,,,,,,,,,,,,,,,,,,,,,,,,,,
,,,,,,,,,,,,a,Correct!,,,,,,t3.png,t2.png,1,0.90855,20,Female,2020-11-25_16h55.04.233,torte-2b,2020.1.3,Win32,60,13948,1.1535,,,,,0,103,103,97,1,,,,,,,,,,,,,,,,,,,,,,,,,,,,,,,,,,,,,,,,,,,,,,,,,,,,,,,,
,,,,,,,,,,,,a,Correct!,,,,,,t3.png,t2.png,1,0.909,20,Female,2020-11-25_16h55.04.233,torte-2b,2020.1.3,Win32,60,13948,0.77143,,,,,0,104,104,3,1,,,,,,,,,,,,,,,,,,,,,,,,,,,,,,,,,,,,,,,,,,,,,,,,,,,,,,,,
,,,,,,,,,,,,a,Correct!,,,,,,t4.png,t4.png,0,0.98115,20,Female,2020-11-25_16h55.04.233,torte-2b,2020.1.3,Win32,60,13948,2.0661,,,,,0,105,105,79,1,,,,,,,,,,,,,,,,,,,,,,,,,,,,,,,,,,,,,,,,,,,,,,,,,,,,,,,,
,,,,,,,,,,,,l,Incorrect,,,,,,t1.png,t2.png,1,0.90025,20,Female,2020-11-25_16h55.04.233,torte-2b,2020.1.3,Win32,60,13948,0.86658,,,,,0,106,106,72,1,,,,,,,,,,,,,,,,,,,,,,,,,,,,,,,,,,,,,,,,,,,,,,,,,,,,,,,,
,,,,,,,,,,,,l,Correct!,,,,,,t2.png,t4.png,2,0.059078,20,Female,2020-11-25_16h55.04.233,torte-2b,2020.1.3,Win32,60,13948,0.78269,,,,,0,107,107,24,1,,,,,,,,,,,,,,,,,,,,,,,,,,,,,,,,,,,,,,,,,,,,,,,,,,,,,,,,
,,,,,,,,,,,,a,Correct!,,,,,,t5.png,t4.png,1,0.90025,20,Female,2020-11-25_16h55.04.233,torte-2b,2020.1.3,Win32,60,13948,1.699735,,,,,0,108,108,34,1,,,,,,,,,,,,,,,,,,,,,,,,,,,,,,,,,,,,,,,,,,,,,,,,,,,,,,,,
,,,,,,,,,,,,a,Correct!,,,,,,t5.png,t4.png,1,0.9,20,Female,2020-11-25_16h55.04.233,torte-2b,2020.1.3,Win32,60,13948,2.249175,,,,,0,109,109,76,1,,,,,,,,,,,,,,,,,,,,,,,,,,,,,,,,,,,,,,,,,,,,,,,,,,,,,,,,
,,,,,,,,,,,,,Too slow :(,,,,,,t4.png,t3.png,1,0.909,20,Female,2020-11-25_16h55.04.233,torte-2b,2020.1.3,Win32,60,13948,,,,,,0,110,110,20,1,,,,,,,,,,,,,,,,,,,,,,,,,,,,,,,,,,,,,,,,,,,,,,,,,,,,,,,,
,,,,,,,,,,,,,Too slow :(,,,,,,t5.png,t4.png,1,0.90025,20,Female,2020-11-25_16h55.04.233,torte-2b,2020.1.3,Win32,60,13948,,,,,,0,111,111,26,1,,,,,,,,,,,,,,,,,,,,,,,,,,,,,,,,,,,,,,,,,,,,,,,,,,,,,,,,
,,,,,,,,,,,,a,Incorrect,,,,,,t4.png,t1.png,3,0.0000131,20,Female,2020-11-25_16h55.04.233,torte-2b,2020.1.3,Win32,60,13948,0.936745,,,,,0,112,112,13,1,,,,,,,,,,,,,,,,,,,,,,,,,,,,,,,,,,,,,,,,,,,,,,,,,,,,,,,,
,,,,,,,,,,,,a,Correct!,,,,,,t2.png,t2.png,0,0.98115,20,Female,2020-11-25_16h55.04.233,torte-2b,2020.1.3,Win32,60,13948,0.803225,,,,,0,113,113,59,1,,,,,,,,,,,,,,,,,,,,,,,,,,,,,,,,,,,,,,,,,,,,,,,,,,,,,,,,
,,,,,,,,,,,,l,Correct!,,,,,,t2.png,t4.png,2,0.059078,20,Female,2020-11-25_16h55.04.233,torte-2b,2020.1.3,Win32,60,13948,1.208355,,,,,0,114,114,37,1,,,,,,,,,,,,,,,,,,,,,,,,,,,,,,,,,,,,,,,,,,,,,,,,,,,,,,,,
,,,,,,,,,,,,a,Correct!,,,,,,t2.png,t1.png,1,0.90025,20,Female,2020-11-25_16h55.04.233,torte-2b,2020.1.3,Win32,60,13948,1.517595,,,,,0,115,115,4,1,,,,,,,,,,,,,,,,,,,,,,,,,,,,,,,,,,,,,,,,,,,,,,,,,,,,,,,,
,,,,,,,,,,,,a,Correct!,,,,,,t3.png,t2.png,1,0.90855,20,Female,2020-11-25_16h55.04.233,torte-2b,2020.1.3,Win32,60,13948,1.331685,,,,,0,116,116,18,1,,,,,,,,,,,,,,,,,,,,,,,,,,,,,,,,,,,,,,,,,,,,,,,,,,,,,,,,
,,,,,,,,,,,,l,Incorrect,,,,,,t3.png,t4.png,1,0.90855,20,Female,2020-11-25_16h55.04.233,torte-2b,2020.1.3,Win32,60,13948,0.835095,,,,,0,117,117,84,1,,,,,,,,,,,,,,,,,,,,,,,,,,,,,,,,,,,,,,,,,,,,,,,,,,,,,,,,
,,,,,,,,,,,,l,Correct!,,,,,,t3.png,t5.png,2,0.0565,20,Female,2020-11-25_16h55.04.233,torte-2b,2020.1.3,Win32,60,13948,0.68283,,,,,0,118,118,30,1,,,,,,,,,,,,,,,,,,,,,,,,,,,,,,,,,,,,,,,,,,,,,,,,,,,,,,,,
,,,,,,,,,,,,l,Incorrect,,,,,,t1.png,t2.png,1,0.90025,20,Female,2020-11-25_16h55.04.233,torte-2b,2020.1.3,Win32,60,13948,0.67785,,,,,0,119,119,33,1,,,,,,,,,,,,,,,,,,,,,,,,,,,,,,,,,,,,,,,,,,,,,,,,,,,,,,,,
,,,,,,,,,,,,,,,,,,,,,,,20,Female,2020-11-25_16h55.04.233,torte-2b,2020.1.3,Win32,60,13948,,space,3.234985,,,,,,,,space,53.005035,,0,0,0,0,1,6,,,,,,,,,,,,,,,,,,,,,,,,,,,,,,,,,,,,,,,,,,,,,,,
,,,,,,,,,,,,,,,,,,,,,,,20,Female,2020-11-25_16h55.04.233,torte-2b,2020.1.3,Win32,60,13948,,,,,,,,,,,,,,0,1,1,1,1,7,,,,,,,,,,,,,,,,,,,,,,,,,,,,,,,,,,,,,,,,,,,,,,,
,,,,,,,,,,,,,,,,,,,,,,,20,Female,2020-11-25_16h55.04.233,torte-2b,2020.1.3,Win32,60,13948,,,,,,,,,,,,,,0,2,2,2,1,6,,,,,,,,,,,,,,,,,,,,,,,,,,,,,,,,,,,,,,,,,,,,,,,
,,,,,,,,,,,,,,,,,,,,,,,20,Female,2020-11-25_16h55.04.233,torte-2b,2020.1.3,Win32,60,13948,,,,,,,,,,,,,,0,3,3,3,1,7,,,,,,,,,,,,,,,,,,,,,,,,,,,,,,,,,,,,,,,,,,,,,,,
,,,,,,,,,,,,,,,,,,,,,,,20,Female,2020-11-25_16h55.04.233,torte-2b,2020.1.3,Win32,60,13948,,,,,,,,,,,,,,0,4,4,4,1,5,,,,,,,,,,,,,,,,,,,,,,,,,,,,,,,,,,,,,,,,,,,,,,,
,,,,,,,,,,,,,,,,,,,,,,,20,Female,2020-11-25_16h55.04.233,torte-2b,2020.1.3,Win32,60,13948,,,,,,,,,,,,,space,0,5,5,5,1,7,0.27614,,,,,,,,,,,,,,,,,,,,,,,,,,,,,,,,,,,,,,,,,,,,,,
,,,,,,,,,,,,,,,,,,,,,,,20,Female,2020-11-25_16h55.04.233,torte-2b,2020.1.3,Win32,60,13948,,,,,,,,,,,,,,0,6,6,6,1,2,,,,,,,,,,,,,,,,,,,,,,,,,,,,,,,,,,,,,,,,,,,,,,,
,,,,,,,,,,,,,,,,,,,,,,,20,Female,2020-11-25_16h55.04.233,torte-2b,2020.1.3,Win32,60,13948,,,,,,,,,,,,,,0,7,7,7,1,4,,,,,,,,,,,,,,,,,,,,,,,,,,,,,,,,,,,,,,,,,,,,,,,
,,,,,,,,,,,,,,,,,,,,,,,20,Female,2020-11-25_16h55.04.233,torte-2b,2020.1.3,Win32,60,13948,,,,,,,,,,,,,,0,8,8,8,1,7,,,,,,,,,,,,,,,,,,,,,,,,,,,,,,,,,,,,,,,,,,,,,,,
,,,,,,,,,,,,,,,,,,,,,,,20,Female,2020-11-25_16h55.04.233,torte-2b,2020.1.3,Win32,60,13948,,,,,,,,,,,,,space,0,9,9,9,1,4,0.69917,,,,,,,,,,,,,,,,,,,,,,,,,,,,,,,,,,,,,,,,,,,,,,
,,,,,,,,,,,,,,,,,,,,,,,20,Female,2020-11-25_16h55.04.233,torte-2b,2020.1.3,Win32,60,13948,,,,,,,,,,,,,,0,10,10,10,1,7,,,,,,,,,,,,,,,,,,,,,,,,,,,,,,,,,,,,,,,,,,,,,,,
,,,,,,,,,,,,,,,,,,,,,,,20,Female,2020-11-25_16h55.04.233,torte-2b,2020.1.3,Win32,60,13948,,,,,,,,,,,,,,0,11,11,11,1,7,,,,,,,,,,,,,,,,,,,,,,,,,,,,,,,,,,,,,,,,,,,,,,,
,,,,,,,,,,,,,,,,,,,,,,,20,Female,2020-11-25_16h55.04.233,torte-2b,2020.1.3,Win32,60,13948,,,,,,,,,,,,,space,0,12,12,12,1,7,0.295935,,,,,,,,,,,,,,,,,,,,,,,,,,,,,,,,,,,,,,,,,,,,,,
,,,,,,,,,,,,,,,,,,,,,,,20,Female,2020-11-25_16h55.04.233,torte-2b,2020.1.3,Win32,60,13948,,,,,,,,,,,,,,0,13,13,13,1,4,,,,,,,,,,,,,,,,,,,,,,,,,,,,,,,,,,,,,,,,,,,,,,,
,,,,,,,,,,,,,,,,,,,,,,,20,Female,2020-11-25_16h55.04.233,torte-2b,2020.1.3,Win32,60,13948,,,,,,,,,,,,,,0,14,14,14,1,6,,,,,,,,,,,,,,,,,,,,,,,,,,,,,,,,,,,,,,,,,,,,,,,
,,,,,,,,,,,,,,,,,,,,,,,20,Female,2020-11-25_16h55.04.233,torte-2b,2020.1.3,Win32,60,13948,,,,,,,,,,,,,,0,15,15,15,1,4,,,,,,,,,,,,,,,,,,,,,,,,,,,,,,,,,,,,,,,,,,,,,,,
,,,,,,,,,,,,,,,,,,,,,,,20,Female,2020-11-25_16h55.04.233,torte-2b,2020.1.3,Win32,60,13948,,,,,,,,,,,,,space,0,16,16,16,1,6,0.387145,,,,,,,,,,,,,,,,,,,,,,,,,,,,,,,,,,,,,,,,,,,,,,
,,,,,,,,,,,,,,,,,,,,,,,20,Female,2020-11-25_16h55.04.233,torte-2b,2020.1.3,Win32,60,13948,,,,,,,,,,,,,,0,17,17,17,1,7,,,,,,,,,,,,,,,,,,,,,,,,,,,,,,,,,,,,,,,,,,,,,,,
,,,,,,,,,,,,,,,,,,,,,,,20,Female,2020-11-25_16h55.04.233,torte-2b,2020.1.3,Win32,60,13948,,,,,,,,,,,,,,0,18,18,18,1,6,,,,,,,,,,,,,,,,,,,,,,,,,,,,,,,,,,,,,,,,,,,,,,,
,,,,,,,,,,,,,,,,,,,,,,,20,Female,2020-11-25_16h55.04.233,torte-2b,2020.1.3,Win32,60,13948,,,,,,,,,,,,,,0,19,19,19,1,7,,,,,,,,,,,,,,,,,,,,,,,,,,,,,,,,,,,,,,,,,,,,,,,
,,,,,,,,,,,,,,,,,,,,,,,20,Female,2020-11-25_16h55.04.233,torte-2b,2020.1.3,Win32,60,13948,,,,,,,,,,,,,,0,20,20,20,1,5,,,,,,,,,,,,,,,,,,,,,,,,,,,,,,,,,,,,,,,,,,,,,,,
,,,,,,,,,,,,,,,,,,,,,,,20,Female,2020-11-25_16h55.04.233,torte-2b,2020.1.3,Win32,60,13948,,,,,,,,,,,,,,0,21,21,21,1,1,,,,,,,,,,,,,,,,,,,,,,,,,,,,,,,,,,,,,,,,,,,,,,,
,,,,,,,,,,,,,,,,,,,,,,,20,Female,2020-11-25_16h55.04.233,torte-2b,2020.1.3,Win32,60,13948,,,,,,,,,,,,,space,0,22,22,22,1,6,0.47061,,,,,,,,,,,,,,,,,,,,,,,,,,,,,,,,,,,,,,,,,,,,,,
,,,,,,,,,,,,,,,,,,,,,,,20,Female,2020-11-25_16h55.04.233,torte-2b,2020.1.3,Win32,60,13948,,,,,,,,,,,,,,0,23,23,23,1,1,,,,,,,,,,,,,,,,,,,,,,,,,,,,,,,,,,,,,,,,,,,,,,,
,,,,,,,,,,,,,,,,,,,,,,,20,Female,2020-11-25_16h55.04.233,torte-2b,2020.1.3,Win32,60,13948,,,,,,,,,,,,,space,0,24,24,24,1,5,0.622505,,,,,,,,,,,,,,,,,,,,,,,,,,,,,,,,,,,,,,,,,,,,,,
,,,,,,,,,,,,,,,,,,,,,,,20,Female,2020-11-25_16h55.04.233,torte-2b,2020.1.3,Win32,60,13948,,,,,,,,,,,,,,0,25,25,25,1,6,,,,,,,,,,,,,,,,,,,,,,,,,,,,,,,,,,,,,,,,,,,,,,,
,,,,,,,,,,,,,,,,,,,,,,,20,Female,2020-11-25_16h55.04.233,torte-2b,2020.1.3,Win32,60,13948,,,,,,,,,,,,,,0,26,26,26,1,6,,,,,,,,,,,,,,,,,,,,,,,,,,,,,,,,,,,,,,,,,,,,,,,
,,,,,,,,,,,,,,,,,,,,,,,20,Female,2020-11-25_16h55.04.233,torte-2b,2020.1.3,Win32,60,13948,,,,,,,,,,,,,space,0,27,27,27,1,6,0.30191,,,,,,,,,,,,,,,,,,,,,,,,,,,,,,,,,,,,,,,,,,,,,,
,,,,,,,,,,,,,,,,,,,,,,,20,Female,2020-11-25_16h55.04.233,torte-2b,2020.1.3,Win32,60,13948,,,,,,,,,,,,,,0,28,28,28,1,5,,,,,,,,,,,,,,,,,,,,,,,,,,,,,,,,,,,,,,,,,,,,,,,
,,,,,,,,,,,,,,,,,,,,,,,20,Female,2020-11-25_16h55.04.233,torte-2b,2020.1.3,Win32,60,13948,,,,,,,,,,,,,,0,29,29,29,1,2,,,,,,,,,,,,,,,,,,,,,,,,,,,,,,,,,,,,,,,,,,,,,,,
,,,,,,,,,,,,,,,,,,,,,,,20,Female,2020-11-25_16h55.04.233,torte-2b,2020.1.3,Win32,60,13948,,,,,,,,,,,,,space,0,30,30,30,1,5,0.37123,,,,,,,,,,,,,,,,,,,,,,,,,,,,,,,,,,,,,,,,,,,,,,
,,,,,,,,,,,,,,,,,,,,,,,20,Female,2020-11-25_16h55.04.233,torte-2b,2020.1.3,Win32,60,13948,,,,,,,,,,,,,,0,31,31,31,1,2,,,,,,,,,,,,,,,,,,,,,,,,,,,,,,,,,,,,,,,,,,,,,,,
,,,,,,,,,,,,,,,,,,,,,,,20,Female,2020-11-25_16h55.04.233,torte-2b,2020.1.3,Win32,60,13948,,,,,,,,,,,,,space,0,32,32,32,1,5,0.571375,,,,,,,,,,,,,,,,,,,,,,,,,,,,,,,,,,,,,,,,,,,,,,
,,,,,,,,,,,,,,,,,,,,,,,20,Female,2020-11-25_16h55.04.233,torte-2b,2020.1.3,Win32,60,13948,,,,,,,,,,,,,,0,33,33,33,1,1,,,,,,,,,,,,,,,,,,,,,,,,,,,,,,,,,,,,,,,,,,,,,,,
,,,,,,,,,,,,,,,,,,,,,,,20,Female,2020-11-25_16h55.04.233,torte-2b,2020.1.3,Win32,60,13948,,,,,,,,,,,,,,0,34,34,34,1,1,,,,,,,,,,,,,,,,,,,,,,,,,,,,,,,,,,,,,,,,,,,,,,,
,,,,,,,,,,,,,,,,,,,,,,,20,Female,2020-11-25_16h55.04.233,torte-2b,2020.1.3,Win32,60,13948,,,,,,,,,,,,,,,,,,,2,,0,0,0,0,1,,,,,,,,,,,,,,,,,,,,,,,,,,,,,,,,,,,,,,,,,
,,,,,,,,,,,,,,,,,,,,,,,20,Female,2020-11-25_16h55.04.233,torte-2b,2020.1.3,Win32,60,13948,,,,,,,,,,,,,,,,,,,2,,0,1,1,1,1,,,,,,,,,,,,,,,,,,,,,,,,,,,,,,,,,,,,,,,,,
,,,,,,,,,,,,,,,,,,,,,,,20,Female,2020-11-25_16h55.04.233,torte-2b,2020.1.3,Win32,60,13948,,,,,,,,,,,,,,,,,,,6,,0,2,2,2,1,,,,,,,,,,,,,,,,,,,,,,,,,,,,,,,,,,,,,,,,,
,,,,,,,,,,,,,,,,,,,,,,,20,Female,2020-11-25_16h55.04.233,torte-2b,2020.1.3,Win32,60,13948,,,,,,,,,,,,,space,,,,,,2,0.2873,0,3,3,3,1,,,,,,,,,,,,,,,,,,,,,,,,,,,,,,,,,,,,,,,,,
,,,,,,,,,,,,,,,,,,,,,,,20,Female,2020-11-25_16h55.04.233,torte-2b,2020.1.3,Win32,60,13948,,,,,,,,,,,,,,,,,,,6,,0,4,4,4,1,,,,,,,,,,,,,,,,,,,,,,,,,,,,,,,,,,,,,,,,,
,,,,,,,,,,,,,,,,,,,,,,,20,Female,2020-11-25_16h55.04.233,torte-2b,2020.1.3,Win32,60,13948,,,,,,,,,,,,,,,,,,,2,,0,5,5,5,1,,,,,,,,,,,,,,,,,,,,,,,,,,,,,,,,,,,,,,,,,
,,,,,,,,,,,,,,,,,,,,,,,20,Female,2020-11-25_16h55.04.233,torte-2b,2020.1.3,Win32,60,13948,,,,,,,,,,,,,,,,,,,7,,0,6,6,6,1,,,,,,,,,,,,,,,,,,,,,,,,,,,,,,,,,,,,,,,,,
,,,,,,,,,,,,,,,,,,,,,,,20,Female,2020-11-25_16h55.04.233,torte-2b,2020.1.3,Win32,60,13948,,,,,,,,,,,,,,,,,,,2,,0,7,7,7,1,,,,,,,,,,,,,,,,,,,,,,,,,,,,,,,,,,,,,,,,,
,,,,,,,,,,,,,,,,,,,,,,,20,Female,2020-11-25_16h55.04.233,torte-2b,2020.1.3,Win32,60,13948,,,,,,,,,,,,,,,,,,,7,,0,8,8,8,1,,,,,,,,,,,,,,,,,,,,,,,,,,,,,,,,,,,,,,,,,
,,,,,,,,,,,,,,,,,,,,,,,20,Female,2020-11-25_16h55.04.233,torte-2b,2020.1.3,Win32,60,13948,,,,,,,,,,,,,,,,,,,2,,0,9,9,9,1,,,,,,,,,,,,,,,,,,,,,,,,,,,,,,,,,,,,,,,,,
,,,,,,,,,,,,,,,,,,,,,,,20,Female,2020-11-25_16h55.04.233,torte-2b,2020.1.3,Win32,60,13948,,,,,,,,,,,,,,,,,,,5,,0,10,10,10,1,,,,,,,,,,,,,,,,,,,,,,,,,,,,,,,,,,,,,,,,,
,,,,,,,,,,,,,,,,,,,,,,,20,Female,2020-11-25_16h55.04.233,torte-2b,2020.1.3,Win32,60,13948,,,,,,,,,,,,,,,,,,,4,,0,11,11,11,1,,,,,,,,,,,,,,,,,,,,,,,,,,,,,,,,,,,,,,,,,
,,,,,,,,,,,,,,,,,,,,,,,20,Female,2020-11-25_16h55.04.233,torte-2b,2020.1.3,Win32,60,13948,,,,,,,,,,,,,,,,,,,5,,0,12,12,12,1,,,,,,,,,,,,,,,,,,,,,,,,,,,,,,,,,,,,,,,,,
,,,,,,,,,,,,,,,,,,,,,,,20,Female,2020-11-25_16h55.04.233,torte-2b,2020.1.3,Win32,60,13948,,,,,,,,,,,,,,,,,,,6,,0,13,13,13,1,,,,,,,,,,,,,,,,,,,,,,,,,,,,,,,,,,,,,,,,,
,,,,,,,,,,,,,,,,,,,,,,,20,Female,2020-11-25_16h55.04.233,torte-2b,2020.1.3,Win32,60,13948,,,,,,,,,,,,,space,,,,,,5,0.471965,0,14,14,14,1,,,,,,,,,,,,,,,,,,,,,,,,,,,,,,,,,,,,,,,,,
,,,,,,,,,,,,,,,,,,,,,,,20,Female,2020-11-25_16h55.04.233,torte-2b,2020.1.3,Win32,60,13948,,,,,,,,,,,,,,,,,,,4,,0,15,15,15,1,,,,,,,,,,,,,,,,,,,,,,,,,,,,,,,,,,,,,,,,,
,,,,,,,,,,,,,,,,,,,,,,,20,Female,2020-11-25_16h55.04.233,torte-2b,2020.1.3,Win32,60,13948,,,,,,,,,,,,,,,,,,,5,,0,16,16,16,1,,,,,,,,,,,,,,,,,,,,,,,,,,,,,,,,,,,,,,,,,
,,,,,,,,,,,,,,,,,,,,,,,20,Female,2020-11-25_16h55.04.233,torte-2b,2020.1.3,Win32,60,13948,,,,,,,,,,,,,,,,,,,3,,0,17,17,17,1,,,,,,,,,,,,,,,,,,,,,,,,,,,,,,,,,,,,,,,,,
,,,,,,,,,,,,,,,,,,,,,,,20,Female,2020-11-25_16h55.04.233,torte-2b,2020.1.3,Win32,60,13948,,,,,,,,,,,,,,,,,,,6,,0,18,18,18,1,,,,,,,,,,,,,,,,,,,,,,,,,,,,,,,,,,,,,,,,,
,,,,,,,,,,,,,,,,,,,,,,,20,Female,2020-11-25_16h55.04.233,torte-2b,2020.1.3,Win32,60,13948,,,,,,,,,,,,,,,,,,,6,,0,19,19,19,1,,,,,,,,,,,,,,,,,,,,,,,,,,,,,,,,,,,,,,,,,
,,,,,,,,,,,,,,,,,,,,,,,20,Female,2020-11-25_16h55.04.233,torte-2b,2020.1.3,Win32,60,13948,,,,,,,,,,,,,space,,,,,,6,0.2811,0,20,20,20,1,,,,,,,,,,,,,,,,,,,,,,,,,,,,,,,,,,,,,,,,,
,,,,,,,,,,,,,,,,,,,,,,,20,Female,2020-11-25_16h55.04.233,torte-2b,2020.1.3,Win32,60,13948,,,,,,,,,,,,,,,,,,,4,,0,21,21,21,1,,,,,,,,,,,,,,,,,,,,,,,,,,,,,,,,,,,,,,,,,
,,,,,,,,,,,,,,,,,,,,,,,20,Female,2020-11-25_16h55.04.233,torte-2b,2020.1.3,Win32,60,13948,,,,,,,,,,,,,,,,,,,6,,0,22,22,22,1,,,,,,,,,,,,,,,,,,,,,,,,,,,,,,,,,,,,,,,,,
,,,,,,,,,,,,,,,,,,,,,,,20,Female,2020-11-25_16h55.04.233,torte-2b,2020.1.3,Win32,60,13948,,,,,,,,,,,,,,,,,,,4,,0,23,23,23,1,,,,,,,,,,,,,,,,,,,,,,,,,,,,,,,,,,,,,,,,,
,,,,,,,,,,,,,,,,,,,,,,,20,Female,2020-11-25_16h55.04.233,torte-2b,2020.1.3,Win32,60,13948,,,,,,,,,,,,,,,,,,,6,,0,24,24,24,1,,,,,,,,,,,,,,,,,,,,,,,,,,,,,,,,,,,,,,,,,
,,,,,,,,,,,,,,,,,,,,,,,20,Female,2020-11-25_16h55.04.233,torte-2b,2020.1.3,Win32,60,13948,,,,,,,,,,,,,space,,,,,,6,0.502,0,25,25,25,1,,,,,,,,,,,,,,,,,,,,,,,,,,,,,,,,,,,,,,,,,
,,,,,,,,,,,,,,,,,,,,,,,20,Female,2020-11-25_16h55.04.233,torte-2b,2020.1.3,Win32,60,13948,,,,,,,,,,,,,,,,,,,7,,0,26,26,26,1,,,,,,,,,,,,,,,,,,,,,,,,,,,,,,,,,,,,,,,,,
,,,,,,,,,,,,,,,,,,,,,,,20,Female,2020-11-25_16h55.04.233,torte-2b,2020.1.3,Win32,60,13948,,,,,,,,,,,,,,,,,,,1,,0,27,27,27,1,,,,,,,,,,,,,,,,,,,,,,,,,,,,,,,,,,,,,,,,,
,,,,,,,,,,,,,,,,,,,,,,,20,Female,2020-11-25_16h55.04.233,torte-2b,2020.1.3,Win32,60,13948,,,,,,,,,,,,,,,,,,,7,,0,28,28,28,1,,,,,,,,,,,,,,,,,,,,,,,,,,,,,,,,,,,,,,,,,
,,,,,,,,,,,,,,,,,,,,,,,20,Female,2020-11-25_16h55.04.233,torte-2b,2020.1.3,Win32,60,13948,,,,,,,,,,,,,,,,,,,4,,0,29,29,29,1,,,,,,,,,,,,,,,,,,,,,,,,,,,,,,,,,,,,,,,,,
,,,,,,,,,,,,,,,,,,,,,,,20,Female,2020-11-25_16h55.04.233,torte-2b,2020.1.3,Win32,60,13948,,,,,,,,,,,,,,,,,,,7,,0,30,30,30,1,,,,,,,,,,,,,,,,,,,,,,,,,,,,,,,,,,,,,,,,,
,,,,,,,,,,,,,,,,,,,,,,,20,Female,2020-11-25_16h55.04.233,torte-2b,2020.1.3,Win32,60,13948,,,,,,,,,,,,,,,,,,,3,,0,31,31,31,1,,,,,,,,,,,,,,,,,,,,,,,,,,,,,,,,,,,,,,,,,
,,,,,,,,,,,,,,,,,,,,,,,20,Female,2020-11-25_16h55.04.233,torte-2b,2020.1.3,Win32,60,13948,,,,,,,,,,,,,,,,,,,2,,0,32,32,32,1,,,,,,,,,,,,,,,,,,,,,,,,,,,,,,,,,,,,,,,,,
,,,,,,,,,,,,,,,,,,,,,,,20,Female,2020-11-25_16h55.04.233,torte-2b,2020.1.3,Win32,60,13948,,,,,,,,,,,,,,,,,,,6,,0,33,33,33,1,,,,,,,,,,,,,,,,,,,,,,,,,,,,,,,,,,,,,,,,,
,,,,,,,,,,,,,,,,,,,,,,,20,Female,2020-11-25_16h55.04.233,torte-2b,2020.1.3,Win32,60,13948,,,,,,,,,,,,,,,,,,,3,,0,34,34,34,1,,,,,,,,,,,,,,,,,,,,,,,,,,,,,,,,,,,,,,,,,
,,,,,,,,,,,,,,,,,,,,,,,20,Female,2020-11-25_16h55.04.233,torte-2b,2020.1.3,Win32,60,13948,,,,,,,,,,,,,,,,,,,7,,,,,,,0,0,0,0,1,,,,,,,,,,,,,,,,,,,,,,,,,,,,,,,,,,,,
,,,,,,,,,,,,,,,,,,,,,,,20,Female,2020-11-25_16h55.04.233,torte-2b,2020.1.3,Win32,60,13948,,,,,,,,,,,,,,,,,,,5,,,,,,,0,1,1,1,1,,,,,,,,,,,,,,,,,,,,,,,,,,,,,,,,,,,,
,,,,,,,,,,,,,,,,,,,,,,,20,Female,2020-11-25_16h55.04.233,torte-2b,2020.1.3,Win32,60,13948,,,,,,,,,,,,,,,,,,,4,,,,,,,0,2,2,2,1,,,,,,,,,,,,,,,,,,,,,,,,,,,,,,,,,,,,
,,,,,,,,,,,,,,,,,,,,,,,20,Female,2020-11-25_16h55.04.233,torte-2b,2020.1.3,Win32,60,13948,,,,,,,,,,,,,,,,,,,5,,,,,,,0,3,3,3,1,,,,,,,,,,,,,,,,,,,,,,,,,,,,,,,,,,,,
,,,,,,,,,,,,,,,,,,,,,,,20,Female,2020-11-25_16h55.04.233,torte-2b,2020.1.3,Win32,60,13948,,,,,,,,,,,,,,,,,,,6,,,,,,,0,4,4,4,1,,,,,,,,,,,,,,,,,,,,,,,,,,,,,,,,,,,,
,,,,,,,,,,,,,,,,,,,,,,,20,Female,2020-11-25_16h55.04.233,torte-2b,2020.1.3,Win32,60,13948,,,,,,,,,,,,,space,,,,,,5,0.469825,,,,,,0,5,5,5,1,,,,,,,,,,,,,,,,,,,,,,,,,,,,,,,,,,,,
,,,,,,,,,,,,,,,,,,,,,,,20,Female,2020-11-25_16h55.04.233,torte-2b,2020.1.3,Win32,60,13948,,,,,,,,,,,,,,,,,,,3,,,,,,,0,6,6,6,1,,,,,,,,,,,,,,,,,,,,,,,,,,,,,,,,,,,,
,,,,,,,,,,,,,,,,,,,,,,,20,Female,2020-11-25_16h55.04.233,torte-2b,2020.1.3,Win32,60,13948,,,,,,,,,,,,,,,,,,,4,,,,,,,0,7,7,7,1,,,,,,,,,,,,,,,,,,,,,,,,,,,,,,,,,,,,
,,,,,,,,,,,,,,,,,,,,,,,20,Female,2020-11-25_16h55.04.233,torte-2b,2020.1.3,Win32,60,13948,,,,,,,,,,,,,,,,,,,3,,,,,,,0,8,8,8,1,,,,,,,,,,,,,,,,,,,,,,,,,,,,,,,,,,,,
,,,,,,,,,,,,,,,,,,,,,,,20,Female,2020-11-25_16h55.04.233,torte-2b,2020.1.3,Win32,60,13948,,,,,,,,,,,,,,,,,,,1,,,,,,,0,9,9,9,1,,,,,,,,,,,,,,,,,,,,,,,,,,,,,,,,,,,,
,,,,,,,,,,,,,,,,,,,,,,,20,Female,2020-11-25_16h55.04.233,torte-2b,2020.1.3,Win32,60,13948,,,,,,,,,,,,,,,,,,,2,,,,,,,0,10,10,10,1,,,,,,,,,,,,,,,,,,,,,,,,,,,,,,,,,,,,
,,,,,,,,,,,,,,,,,,,,,,,20,Female,2020-11-25_16h55.04.233,torte-2b,2020.1.3,Win32,60,13948,,,,,,,,,,,,,,,,,,,1,,,,,,,0,11,11,11,1,,,,,,,,,,,,,,,,,,,,,,,,,,,,,,,,,,,,
,,,,,,,,,,,,,,,,,,,,,,,20,Female,2020-11-25_16h55.04.233,torte-2b,2020.1.3,Win32,60,13948,,,,,,,,,,,,,,,,,,,2,,,,,,,0,12,12,12,1,,,,,,,,,,,,,,,,,,,,,,,,,,,,,,,,,,,,
,,,,,,,,,,,,,,,,,,,,,,,20,Female,2020-11-25_16h55.04.233,torte-2b,2020.1.3,Win32,60,13948,,,,,,,,,,,,,space,,,,,,1,0.76532,,,,,,0,13,13,13,1,,,,,,,,,,,,,,,,,,,,,,,,,,,,,,,,,,,,
,,,,,,,,,,,,,,,,,,,,,,,20,Female,2020-11-25_16h55.04.233,torte-2b,2020.1.3,Win32,60,13948,,,,,,,,,,,,,,,,,,,3,,,,,,,0,14,14,14,1,,,,,,,,,,,,,,,,,,,,,,,,,,,,,,,,,,,,
,,,,,,,,,,,,,,,,,,,,,,,20,Female,2020-11-25_16h55.04.233,torte-2b,2020.1.3,Win32,60,13948,,,,,,,,,,,,,,,,,,,1,,,,,,,0,15,15,15,1,,,,,,,,,,,,,,,,,,,,,,,,,,,,,,,,,,,,
,,,,,,,,,,,,,,,,,,,,,,,20,Female,2020-11-25_16h55.04.233,torte-2b,2020.1.3,Win32,60,13948,,,,,,,,,,,,,,,,,,,7,,,,,,,0,16,16,16,1,,,,,,,,,,,,,,,,,,,,,,,,,,,,,,,,,,,,
,,,,,,,,,,,,,,,,,,,,,,,20,Female,2020-11-25_16h55.04.233,torte-2b,2020.1.3,Win32,60,13948,,,,,,,,,,,,,,,,,,,7,,,,,,,0,17,17,17,1,,,,,,,,,,,,,,,,,,,,,,,,,,,,,,,,,,,,
,,,,,,,,,,,,,,,,,,,,,,,20,Female,2020-11-25_16h55.04.233,torte-2b,2020.1.3,Win32,60,13948,,,,,,,,,,,,,space,,,,,,4,0.30408,,,,,,0,18,18,18,1,,,,,,,,,,,,,,,,,,,,,,,,,,,,,,,,,,,,
,,,,,,,,,,,,,,,,,,,,,,,20,Female,2020-11-25_16h55.04.233,torte-2b,2020.1.3,Win32,60,13948,,,,,,,,,,,,,,,,,,,7,,,,,,,0,19,19,19,1,,,,,,,,,,,,,,,,,,,,,,,,,,,,,,,,,,,,
,,,,,,,,,,,,,,,,,,,,,,,20,Female,2020-11-25_16h55.04.233,torte-2b,2020.1.3,Win32,60,13948,,,,,,,,,,,,,,,,,,,3,,,,,,,0,20,20,20,1,,,,,,,,,,,,,,,,,,,,,,,,,,,,,,,,,,,,
,,,,,,,,,,,,,,,,,,,,,,,20,Female,2020-11-25_16h55.04.233,torte-2b,2020.1.3,Win32,60,13948,,,,,,,,,,,,,,,,,,,7,,,,,,,0,21,21,21,1,,,,,,,,,,,,,,,,,,,,,,,,,,,,,,,,,,,,
,,,,,,,,,,,,,,,,,,,,,,,20,Female,2020-11-25_16h55.04.233,torte-2b,2020.1.3,Win32,60,13948,,,,,,,,,,,,,,,,,,,3,,,,,,,0,22,22,22,1,,,,,,,,,,,,,,,,,,,,,,,,,,,,,,,,,,,,
,,,,,,,,,,,,,,,,,,,,,,,20,Female,2020-11-25_16h55.04.233,torte-2b,2020.1.3,Win32,60,13948,,,,,,,,,,,,,,,,,,,1,,,,,,,0,23,23,23,1,,,,,,,,,,,,,,,,,,,,,,,,,,,,,,,,,,,,
,,,,,,,,,,,,,,,,,,,,,,,20,Female,2020-11-25_16h55.04.233,torte-2b,2020.1.3,Win32,60,13948,,,,,,,,,,,,,,,,,,,6,,,,,,,0,24,24,24,1,,,,,,,,,,,,,,,,,,,,,,,,,,,,,,,,,,,,
,,,,,,,,,,,,,,,,,,,,,,,20,Female,2020-11-25_16h55.04.233,torte-2b,2020.1.3,Win32,60,13948,,,,,,,,,,,,,,,,,,,3,,,,,,,0,25,25,25,1,,,,,,,,,,,,,,,,,,,,,,,,,,,,,,,,,,,,
,,,,,,,,,,,,,,,,,,,,,,,20,Female,2020-11-25_16h55.04.233,torte-2b,2020.1.3,Win32,60,13948,,,,,,,,,,,,,,,,,,,2,,,,,,,0,26,26,26,1,,,,,,,,,,,,,,,,,,,,,,,,,,,,,,,,,,,,
,,,,,,,,,,,,,,,,,,,,,,,20,Female,2020-11-25_16h55.04.233,torte-2b,2020.1.3,Win32,60,13948,,,,,,,,,,,,,,,,,,,3,,,,,,,0,27,27,27,1,,,,,,,,,,,,,,,,,,,,,,,,,,,,,,,,,,,,
,,,,,,,,,,,,,,,,,,,,,,,20,Female,2020-11-25_16h55.04.233,torte-2b,2020.1.3,Win32,60,13948,,,,,,,,,,,,,,,,,,,1,,,,,,,0,28,28,28,1,,,,,,,,,,,,,,,,,,,,,,,,,,,,,,,,,,,,
,,,,,,,,,,,,,,,,,,,,,,,20,Female,2020-11-25_16h55.04.233,torte-2b,2020.1.3,Win32,60,13948,,,,,,,,,,,,,,,,,,,3,,,,,,,0,29,29,29,1,,,,,,,,,,,,,,,,,,,,,,,,,,,,,,,,,,,,
,,,,,,,,,,,,,,,,,,,,,,,20,Female,2020-11-25_16h55.04.233,torte-2b,2020.1.3,Win32,60,13948,,,,,,,,,,,,,,,,,,,1,,,,,,,0,30,30,30,1,,,,,,,,,,,,,,,,,,,,,,,,,,,,,,,,,,,,
,,,,,,,,,,,,,,,,,,,,,,,20,Female,2020-11-25_16h55.04.233,torte-2b,2020.1.3,Win32,60,13948,,,,,,,,,,,,,,,,,,,7,,,,,,,0,31,31,31,1,,,,,,,,,,,,,,,,,,,,,,,,,,,,,,,,,,,,
,,,,,,,,,,,,,,,,,,,,,,,20,Female,2020-11-25_16h55.04.233,torte-2b,2020.1.3,Win32,60,13948,,,,,,,,,,,,,,,,,,,5,,,,,,,0,32,32,32,1,,,,,,,,,,,,,,,,,,,,,,,,,,,,,,,,,,,,
,,,,,,,,,,,,,,,,,,,,,,,20,Female,2020-11-25_16h55.04.233,torte-2b,2020.1.3,Win32,60,13948,,,,,,,,,,,,,,,,,,,7,,,,,,,0,33,33,33,1,,,,,,,,,,,,,,,,,,,,,,,,,,,,,,,,,,,,
,,,,,,,,,,,,,,,,,,,,,,,20,Female,2020-11-25_16h55.04.233,torte-2b,2020.1.3,Win32,60,13948,,,,,,,,,,,,,,,,,,,2,,,,,,,0,34,34,34,1,,,,,,,,,,,,,,,,,,,,,,,,,,,,,,,,,,,,
,,,,,,,,,,,,,,,,,,,,,,,20,Female,2020-11-25_16h55.04.233,torte-2b,2020.1.3,Win32,60,13948,,,,,,,,,,,,,,,,,,,3,,,,,,,,,,,,0,0,0,0,1,,,,,,,,,,,,,,,,,,,,,,,,,,,,,,,
,,,,,,,,,,,,,,,,,,,,,,,20,Female,2020-11-25_16h55.04.233,torte-2b,2020.1.3,Win32,60,13948,,,,,,,,,,,,,,,,,,,7,,,,,,,,,,,,0,1,1,1,1,,,,,,,,,,,,,,,,,,,,,,,,,,,,,,,
,,,,,,,,,,,,,,,,,,,,,,,20,Female,2020-11-25_16h55.04.233,torte-2b,2020.1.3,Win32,60,13948,,,,,,,,,,,,,,,,,,,7,,,,,,,,,,,,0,2,2,2,1,,,,,,,,,,,,,,,,,,,,,,,,,,,,,,,
,,,,,,,,,,,,,,,,,,,,,,,20,Female,2020-11-25_16h55.04.233,torte-2b,2020.1.3,Win32,60,13948,,,,,,,,,,,,,,,,,,,4,,,,,,,,,,,,0,3,3,3,1,,,,,,,,,,,,,,,,,,,,,,,,,,,,,,,
,,,,,,,,,,,,,,,,,,,,,,,20,Female,2020-11-25_16h55.04.233,torte-2b,2020.1.3,Win32,60,13948,,,,,,,,,,,,,,,,,,,5,,,,,,,,,,,,0,4,4,4,1,,,,,,,,,,,,,,,,,,,,,,,,,,,,,,,
,,,,,,,,,,,,,,,,,,,,,,,20,Female,2020-11-25_16h55.04.233,torte-2b,2020.1.3,Win32,60,13948,,,,,,,,,,,,,,,,,,,4,,,,,,,,,,,,0,5,5,5,1,,,,,,,,,,,,,,,,,,,,,,,,,,,,,,,
,,,,,,,,,,,,,,,,,,,,,,,20,Female,2020-11-25_16h55.04.233,torte-2b,2020.1.3,Win32,60,13948,,,,,,,,,,,,,,,,,,,2,,,,,,,,,,,,0,6,6,6,1,,,,,,,,,,,,,,,,,,,,,,,,,,,,,,,
,,,,,,,,,,,,,,,,,,,,,,,20,Female,2020-11-25_16h55.04.233,torte-2b,2020.1.3,Win32,60,13948,,,,,,,,,,,,,,,,,,,4,,,,,,,,,,,,0,7,7,7,1,,,,,,,,,,,,,,,,,,,,,,,,,,,,,,,
,,,,,,,,,,,,,,,,,,,,,,,20,Female,2020-11-25_16h55.04.233,torte-2b,2020.1.3,Win32,60,13948,,,,,,,,,,,,,,,,,,,2,,,,,,,,,,,,0,8,8,8,1,,,,,,,,,,,,,,,,,,,,,,,,,,,,,,,
,,,,,,,,,,,,,,,,,,,,,,,20,Female,2020-11-25_16h55.04.233,torte-2b,2020.1.3,Win32,60,13948,,,,,,,,,,,,,,,,,,,2,,,,,,,,,,,,0,9,9,9,1,,,,,,,,,,,,,,,,,,,,,,,,,,,,,,,
,,,,,,,,,,,,,,,,,,,,,,,20,Female,2020-11-25_16h55.04.233,torte-2b,2020.1.3,Win32,60,13948,,,,,,,,,,,,,,,,,,,6,,,,,,,,,,,,0,10,10,10,1,,,,,,,,,,,,,,,,,,,,,,,,,,,,,,,
,,,,,,,,,,,,,,,,,,,,,,,20,Female,2020-11-25_16h55.04.233,torte-2b,2020.1.3,Win32,60,13948,,,,,,,,,,,,,,,,,,,2,,,,,,,,,,,,0,11,11,11,1,,,,,,,,,,,,,,,,,,,,,,,,,,,,,,,
,,,,,,,,,,,,,,,,,,,,,,,20,Female,2020-11-25_16h55.04.233,torte-2b,2020.1.3,Win32,60,13948,,,,,,,,,,,,,,,,,,,2,,,,,,,,,,,,0,12,12,12,1,,,,,,,,,,,,,,,,,,,,,,,,,,,,,,,
,,,,,,,,,,,,,,,,,,,,,,,20,Female,2020-11-25_16h55.04.233,torte-2b,2020.1.3,Win32,60,13948,,,,,,,,,,,,,space,,,,,,2,0.350595,,,,,,,,,,,0,13,13,13,1,,,,,,,,,,,,,,,,,,,,,,,,,,,,,,,
,,,,,,,,,,,,,,,,,,,,,,,20,Female,2020-11-25_16h55.04.233,torte-2b,2020.1.3,Win32,60,13948,,,,,,,,,,,,,,,,,,,2,,,,,,,,,,,,0,14,14,14,1,,,,,,,,,,,,,,,,,,,,,,,,,,,,,,,
,,,,,,,,,,,,,,,,,,,,,,,20,Female,2020-11-25_16h55.04.233,torte-2b,2020.1.3,Win32,60,13948,,,,,,,,,,,,,,,,,,,4,,,,,,,,,,,,0,15,15,15,1,,,,,,,,,,,,,,,,,,,,,,,,,,,,,,,
,,,,,,,,,,,,,,,,,,,,,,,20,Female,2020-11-25_16h55.04.233,torte-2b,2020.1.3,Win32,60,13948,,,,,,,,,,,,,,,,,,,3,,,,,,,,,,,,0,16,16,16,1,,,,,,,,,,,,,,,,,,,,,,,,,,,,,,,
,,,,,,,,,,,,,,,,,,,,,,,20,Female,2020-11-25_16h55.04.233,torte-2b,2020.1.3,Win32,60,13948,,,,,,,,,,,,,,,,,,,7,,,,,,,,,,,,0,17,17,17,1,,,,,,,,,,,,,,,,,,,,,,,,,,,,,,,
,,,,,,,,,,,,,,,,,,,,,,,20,Female,2020-11-25_16h55.04.233,torte-2b,2020.1.3,Win32,60,13948,,,,,,,,,,,,,,,,,,,4,,,,,,,,,,,,0,18,18,18,1,,,,,,,,,,,,,,,,,,,,,,,,,,,,,,,
,,,,,,,,,,,,,,,,,,,,,,,20,Female,2020-11-25_16h55.04.233,torte-2b,2020.1.3,Win32,60,13948,,,,,,,,,,,,,,,,,,,7,,,,,,,,,,,,0,19,19,19,1,,,,,,,,,,,,,,,,,,,,,,,,,,,,,,,
,,,,,,,,,,,,,,,,,,,,,,,20,Female,2020-11-25_16h55.04.233,torte-2b,2020.1.3,Win32,60,13948,,,,,,,,,,,,,space,,,,,,7,0.37351,,,,,,,,,,,0,20,20,20,1,,,,,,,,,,,,,,,,,,,,,,,,,,,,,,,
,,,,,,,,,,,,,,,,,,,,,,,20,Female,2020-11-25_16h55.04.233,torte-2b,2020.1.3,Win32,60,13948,,,,,,,,,,,,,,,,,,,7,,,,,,,,,,,,0,21,21,21,1,,,,,,,,,,,,,,,,,,,,,,,,,,,,,,,
,,,,,,,,,,,,,,,,,,,,,,,20,Female,2020-11-25_16h55.04.233,torte-2b,2020.1.3,Win32,60,13948,,,,,,,,,,,,,,,,,,,7,,,,,,,,,,,,0,22,22,22,1,,,,,,,,,,,,,,,,,,,,,,,,,,,,,,,
,,,,,,,,,,,,,,,,,,,,,,,20,Female,2020-11-25_16h55.04.233,torte-2b,2020.1.3,Win32,60,13948,,,,,,,,,,,,,,,,,,,1,,,,,,,,,,,,0,23,23,23,1,,,,,,,,,,,,,,,,,,,,,,,,,,,,,,,
,,,,,,,,,,,,,,,,,,,,,,,20,Female,2020-11-25_16h55.04.233,torte-2b,2020.1.3,Win32,60,13948,,,,,,,,,,,,,,,,,,,7,,,,,,,,,,,,0,24,24,24,1,,,,,,,,,,,,,,,,,,,,,,,,,,,,,,,
,,,,,,,,,,,,,,,,,,,,,,,20,Female,2020-11-25_16h55.04.233,torte-2b,2020.1.3,Win32,60,13948,,,,,,,,,,,,,,,,,,,1,,,,,,,,,,,,0,25,25,25,1,,,,,,,,,,,,,,,,,,,,,,,,,,,,,,,
,,,,,,,,,,,,,,,,,,,,,,,20,Female,2020-11-25_16h55.04.233,torte-2b,2020.1.3,Win32,60,13948,,,,,,,,,,,,,,,,,,,7,,,,,,,,,,,,0,26,26,26,1,,,,,,,,,,,,,,,,,,,,,,,,,,,,,,,
,,,,,,,,,,,,,,,,,,,,,,,20,Female,2020-11-25_16h55.04.233,torte-2b,2020.1.3,Win32,60,13948,,,,,,,,,,,,,,,,,,,2,,,,,,,,,,,,0,27,27,27,1,,,,,,,,,,,,,,,,,,,,,,,,,,,,,,,
,,,,,,,,,,,,,,,,,,,,,,,20,Female,2020-11-25_16h55.04.233,torte-2b,2020.1.3,Win32,60,13948,,,,,,,,,,,,,,,,,,,5,,,,,,,,,,,,0,28,28,28,1,,,,,,,,,,,,,,,,,,,,,,,,,,,,,,,
,,,,,,,,,,,,,,,,,,,,,,,20,Female,2020-11-25_16h55.04.233,torte-2b,2020.1.3,Win32,60,13948,,,,,,,,,,,,,,,,,,,5,,,,,,,,,,,,0,29,29,29,1,,,,,,,,,,,,,,,,,,,,,,,,,,,,,,,
,,,,,,,,,,,,,,,,,,,,,,,20,Female,2020-11-25_16h55.04.233,torte-2b,2020.1.3,Win32,60,13948,,,,,,,,,,,,,space,,,,,,5,0.28123,,,,,,,,,,,0,30,30,30,1,,,,,,,,,,,,,,,,,,,,,,,,,,,,,,,
,,,,,,,,,,,,,,,,,,,,,,,20,Female,2020-11-25_16h55.04.233,torte-2b,2020.1.3,Win32,60,13948,,,,,,,,,,,,,,,,,,,1,,,,,,,,,,,,0,31,31,31,1,,,,,,,,,,,,,,,,,,,,,,,,,,,,,,,
,,,,,,,,,,,,,,,,,,,,,,,20,Female,2020-11-25_16h55.04.233,torte-2b,2020.1.3,Win32,60,13948,,,,,,,,,,,,,,,,,,,5,,,,,,,,,,,,0,32,32,32,1,,,,,,,,,,,,,,,,,,,,,,,,,,,,,,,
,,,,,,,,,,,,,,,,,,,,,,,20,Female,2020-11-25_16h55.04.233,torte-2b,2020.1.3,Win32,60,13948,,,,,,,,,,,,,,,,,,,3,,,,,,,,,,,,0,33,33,33,1,,,,,,,,,,,,,,,,,,,,,,,,,,,,,,,
,,,,,,,,,,,,,,,,,,,,,,,20,Female,2020-11-25_16h55.04.233,torte-2b,2020.1.3,Win32,60,13948,,,,,,,,,,,,,,,,,,,3,,,,,,,,,,,,0,34,34,34,1,,,,,,,,,,,,,,,,,,,,,,,,,,,,,,,
,,,,,,,,,,,,l,Incorrect,,,,,,t2.png,t3.png,1,0.90855,20,Female,2020-11-25_16h55.04.233,torte-2b,2020.1.3,Win32,60,13948,2.01193,space,2.32132,,,,,,,,,,,,,,,,,,,,,,,,,,,,,,,,,space,12.31808,0,0,0,68,1,,,,,,,,,,,,,,,,,,,,,,,,
,,,,,,,,,,,,a,Incorrect,,,,,,t4.png,t2.png,2,0.059078,20,Female,2020-11-25_16h55.04.233,torte-2b,2020.1.3,Win32,60,13948,0.98464,,,,,,,,,,,,,,,,,,,,,,,,,,,,,,,,,,,,,0,1,1,86,1,,,,,,,,,,,,,,,,,,,,,,,,
,,,,,,,,,,,,a,Correct!,,,,,,t4.png,t4.png,0,0.98115,20,Female,2020-11-25_16h55.04.233,torte-2b,2020.1.3,Win32,60,13948,1.687535,,,,,,,,,,,,,,,,,,,,,,,,,,,,,,,,,,,,,0,2,2,79,1,,,,,,,,,,,,,,,,,,,,,,,,
,,,,,,,,,,,,a,Correct!,,,,,,t5.png,t5.png,0,0.97829,20,Female,2020-11-25_16h55.04.233,torte-2b,2020.1.3,Win32,60,13948,1.200055,,,,,,,,,,,,,,,,,,,,,,,,,,,,,,,,,,,,,0,3,3,70,1,,,,,,,,,,,,,,,,,,,,,,,,
,,,,,,,,,,,,a,Incorrect,,,,,,t5.png,t1.png,4,9.55E-11,20,Female,2020-11-25_16h55.04.233,torte-2b,2020.1.3,Win32,60,13948,0.94943,,,,,,,,,,,,,,,,,,,,,,,,,,,,,,,,,,,,,0,4,4,22,1,,,,,,,,,,,,,,,,,,,,,,,,
,,,,,,,,,,,,a,Correct!,,,,,,t2.png,t1.png,1,0.9,20,Female,2020-11-25_16h55.04.233,torte-2b,2020.1.3,Win32,60,13948,1.202145,,,,,,,,,,,,,,,,,,,,,,,,,,,,,,,,,,,,,0,5,5,118,1,,,,,,,,,,,,,,,,,,,,,,,,
,,,,,,,,,,,,a,Correct!,,,,,,t3.png,t2.png,1,0.909,20,Female,2020-11-25_16h55.04.233,torte-2b,2020.1.3,Win32,60,13948,0.835485,,,,,,,,,,,,,,,,,,,,,,,,,,,,,,,,,,,,,0,6,6,23,1,,,,,,,,,,,,,,,,,,,,,,,,
,,,,,,,,,,,,l,Correct!,,,,,,t1.png,t4.png,3,0.0000131,20,Female,2020-11-25_16h55.04.233,torte-2b,2020.1.3,Win32,60,13948,0.6328,,,,,,,,,,,,,,,,,,,,,,,,,,,,,,,,,,,,,0,7,7,50,1,,,,,,,,,,,,,,,,,,,,,,,,
,,,,,,,,,,,,a,Correct!,,,,,,t2.png,t2.png,0,0.98115,20,Female,2020-11-25_16h55.04.233,torte-2b,2020.1.3,Win32,60,13948,1.235835,,,,,,,,,,,,,,,,,,,,,,,,,,,,,,,,,,,,,0,8,8,7,1,,,,,,,,,,,,,,,,,,,,,,,,
,,,,,,,,,,,,a,Correct!,,,,,,t2.png,t1.png,1,0.90025,20,Female,2020-11-25_16h55.04.233,torte-2b,2020.1.3,Win32,60,13948,0.68209,,,,,,,,,,,,,,,,,,,,,,,,,,,,,,,,,,,,,0,9,9,62,1,,,,,,,,,,,,,,,,,,,,,,,,
,,,,,,,,,,,,l,Incorrect,,,,,,t3.png,t5.png,2,0.0565,20,Female,2020-11-25_16h55.04.233,torte-2b,2020.1.3,Win32,60,13948,1.174675,,,,,,,,,,,,,,,,,,,,,,,,,,,,,,,,,,,,,0,10,10,30,1,,,,,,,,,,,,,,,,,,,,,,,,
,,,,,,,,,,,,l,Correct!,,,,,,t2.png,t5.png,3,0.0000131,20,Female,2020-11-25_16h55.04.233,torte-2b,2020.1.3,Win32,60,13948,0.71668,,,,,,,,,,,,,,,,,,,,,,,,,,,,,,,,,,,,,0,11,11,8,1,,,,,,,,,,,,,,,,,,,,,,,,
,,,,,,,,,,,,l,Incorrect,,,,,,t2.png,t3.png,1,0.909,20,Female,2020-11-25_16h55.04.233,torte-2b,2020.1.3,Win32,60,13948,0.85043,,,,,,,,,,,,,,,,,,,,,,,,,,,,,,,,,,,,,0,12,12,74,1,,,,,,,,,,,,,,,,,,,,,,,,
,,,,,,,,,,,,l,Correct!,,,,,,t1.png,t3.png,2,0.056466,20,Female,2020-11-25_16h55.04.233,torte-2b,2020.1.3,Win32,60,13948,0.80826,,,,,,,,,,,,,,,,,,,,,,,,,,,,,,,,,,,,,0,13,13,87,1,,,,,,,,,,,,,,,,,,,,,,,,
,,,,,,,,,,,,a,Correct!,,,,,,t5.png,t4.png,1,0.90025,20,Female,2020-11-25_16h55.04.233,torte-2b,2020.1.3,Win32,60,13948,0.7658,,,,,,,,,,,,,,,,,,,,,,,,,,,,,,,,,,,,,0,14,14,26,1,,,,,,,,,,,,,,,,,,,,,,,,
,,,,,,,,,,,,a,Correct!,,,,,,t5.png,t4.png,1,0.90025,20,Female,2020-11-25_16h55.04.233,torte-2b,2020.1.3,Win32,60,13948,0.70417,,,,,,,,,,,,,,,,,,,,,,,,,,,,,,,,,,,,,0,15,15,27,1,,,,,,,,,,,,,,,,,,,,,,,,
,,,,,,,,,,,,l,Correct!,,,,,,t1.png,t5.png,4,9.55E-11,20,Female,2020-11-25_16h55.04.233,torte-2b,2020.1.3,Win32,60,13948,0.621815,,,,,,,,,,,,,,,,,,,,,,,,,,,,,,,,,,,,,0,16,16,55,1,,,,,,,,,,,,,,,,,,,,,,,,
,,,,,,,,,,,,l,Correct!,,,,,,t2.png,t4.png,2,0.059078,20,Female,2020-11-25_16h55.04.233,torte-2b,2020.1.3,Win32,60,13948,0.848955,,,,,,,,,,,,,,,,,,,,,,,,,,,,,,,,,,,,,0,17,17,37,1,,,,,,,,,,,,,,,,,,,,,,,,
,,,,,,,,,,,,l,Incorrect,,,,,,t1.png,t2.png,1,0.90025,20,Female,2020-11-25_16h55.04.233,torte-2b,2020.1.3,Win32,60,13948,1.272435,,,,,,,,,,,,,,,,,,,,,,,,,,,,,,,,,,,,,0,18,18,105,1,,,,,,,,,,,,,,,,,,,,,,,,
,,,,,,,,,,,,a,Incorrect,,,,,,t3.png,t1.png,2,0.056466,20,Female,2020-11-25_16h55.04.233,torte-2b,2020.1.3,Win32,60,13948,1.03412,,,,,,,,,,,,,,,,,,,,,,,,,,,,,,,,,,,,,0,19,19,64,1,,,,,,,,,,,,,,,,,,,,,,,,
,,,,,,,,,,,,a,Incorrect,,,,,,t5.png,t2.png,3,0.0000131,20,Female,2020-11-25_16h55.04.233,torte-2b,2020.1.3,Win32,60,13948,1.519185,,,,,,,,,,,,,,,,,,,,,,,,,,,,,,,,,,,,,0,20,20,91,1,,,,,,,,,,,,,,,,,,,,,,,,
,,,,,,,,,,,,a,Correct!,,,,,,t2.png,t2.png,0,0.98115,20,Female,2020-11-25_16h55.04.233,torte-2b,2020.1.3,Win32,60,13948,1.083165,,,,,,,,,,,,,,,,,,,,,,,,,,,,,,,,,,,,,0,21,21,2,1,,,,,,,,,,,,,,,,,,,,,,,,
,,,,,,,,,,,,a,Incorrect,,,,,,t5.png,t1.png,4,9.55E-11,20,Female,2020-11-25_16h55.04.233,torte-2b,2020.1.3,Win32,60,13948,1.260215,,,,,,,,,,,,,,,,,,,,,,,,,,,,,,,,,,,,,0,22,22,43,1,,,,,,,,,,,,,,,,,,,,,,,,
,,,,,,,,,,,,l,Correct!,,,,,,t3.png,t5.png,2,0.056466,20,Female,2020-11-25_16h55.04.233,torte-2b,2020.1.3,Win32,60,13948,1.140015,,,,,,,,,,,,,,,,,,,,,,,,,,,,,,,,,,,,,0,23,23,14,1,,,,,,,,,,,,,,,,,,,,,,,,
,,,,,,,,,,,,a,Correct!,,,,,,t5.png,t4.png,1,0.9,20,Female,2020-11-25_16h55.04.233,torte-2b,2020.1.3,Win32,60,13948,0.814535,,,,,,,,,,,,,,,,,,,,,,,,,,,,,,,,,,,,,0,24,24,76,1,,,,,,,,,,,,,,,,,,,,,,,,
,,,,,,,,,,,,a,Correct!,,,,,,t5.png,t5.png,0,0.97829,20,Female,2020-11-25_16h55.04.233,torte-2b,2020.1.3,Win32,60,13948,0.742195,,,,,,,,,,,,,,,,,,,,,,,,,,,,,,,,,,,,,0,25,25,94,1,,,,,,,,,,,,,,,,,,,,,,,,
,,,,,,,,,,,,l,Correct!,,,,,,t4.png,t5.png,1,0.90025,20,Female,2020-11-25_16h55.04.233,torte-2b,2020.1.3,Win32,60,13948,1.05311,,,,,,,,,,,,,,,,,,,,,,,,,,,,,,,,,,,,,0,26,26,47,1,,,,,,,,,,,,,,,,,,,,,,,,
,,,,,,,,,,,,a,Incorrect,,,,,,t4.png,t1.png,3,0.0000131,20,Female,2020-11-25_16h55.04.233,torte-2b,2020.1.3,Win32,60,13948,0.753835,,,,,,,,,,,,,,,,,,,,,,,,,,,,,,,,,,,,,0,27,27,48,1,,,,,,,,,,,,,,,,,,,,,,,,
,,,,,,,,,,,,a,Correct!,,,,,,t4.png,t3.png,1,0.90855,20,Female,2020-11-25_16h55.04.233,torte-2b,2020.1.3,Win32,60,13948,0.85453,,,,,,,,,,,,,,,,,,,,,,,,,,,,,,,,,,,,,0,28,28,35,1,,,,,,,,,,,,,,,,,,,,,,,,
,,,,,,,,,,,,l,Correct!,,,,,,t1.png,t3.png,2,0.056466,20,Female,2020-11-25_16h55.04.233,torte-2b,2020.1.3,Win32,60,13948,0.715675,,,,,,,,,,,,,,,,,,,,,,,,,,,,,,,,,,,,,0,29,29,60,1,,,,,,,,,,,,,,,,,,,,,,,,
,,,,,,,,,,,,l,Incorrect,,,,,,t4.png,t5.png,1,0.90025,20,Female,2020-11-25_16h55.04.233,torte-2b,2020.1.3,Win32,60,13948,0.91618,,,,,,,,,,,,,,,,,,,,,,,,,,,,,,,,,,,,,0,30,30,113,1,,,,,,,,,,,,,,,,,,,,,,,,
,,,,,,,,,,,,l,Incorrect,,,,,,t4.png,t5.png,1,0.9,20,Female,2020-11-25_16h55.04.233,torte-2b,2020.1.3,Win32,60,13948,0.849575,,,,,,,,,,,,,,,,,,,,,,,,,,,,,,,,,,,,,0,31,31,115,1,,,,,,,,,,,,,,,,,,,,,,,,
,,,,,,,,,,,,a,Correct!,,,,,,t1.png,t1.png,0,0.97829,20,Female,2020-11-25_16h55.04.233,torte-2b,2020.1.3,Win32,60,13948,0.67093,,,,,,,,,,,,,,,,,,,,,,,,,,,,,,,,,,,,,0,32,32,78,1,,,,,,,,,,,,,,,,,,,,,,,,
,,,,,,,,,,,,a,Correct!,,,,,,t2.png,t2.png,0,0.981,20,Female,2020-11-25_16h55.04.233,torte-2b,2020.1.3,Win32,60,13948,0.87875,,,,,,,,,,,,,,,,,,,,,,,,,,,,,,,,,,,,,0,33,33,101,1,,,,,,,,,,,,,,,,,,,,,,,,
,,,,,,,,,,,,a,Correct!,,,,,,t2.png,t2.png,0,0.98115,20,Female,2020-11-25_16h55.04.233,torte-2b,2020.1.3,Win32,60,13948,0.71936,,,,,,,,,,,,,,,,,,,,,,,,,,,,,,,,,,,,,0,34,34,59,1,,,,,,,,,,,,,,,,,,,,,,,,
,,,,,,,,,,,,l,Incorrect,,,,,,t1.png,t2.png,1,0.90025,20,Female,2020-11-25_16h55.04.233,torte-2b,2020.1.3,Win32,60,13948,0.794045,,,,,,,,,,,,,,,,,,,,,,,,,,,,,,,,,,,,,0,35,35,33,1,,,,,,,,,,,,,,,,,,,,,,,,
,,,,,,,,,,,,a,Correct!,,,,,,t4.png,t3.png,1,0.90855,20,Female,2020-11-25_16h55.04.233,torte-2b,2020.1.3,Win32,60,13948,1.039575,,,,,,,,,,,,,,,,,,,,,,,,,,,,,,,,,,,,,0,36,36,45,1,,,,,,,,,,,,,,,,,,,,,,,,
,,,,,,,,,,,,l,Correct!,,,,,,t1.png,t5.png,4,9.55E-11,20,Female,2020-11-25_16h55.04.233,torte-2b,2020.1.3,Win32,60,13948,0.666035,,,,,,,,,,,,,,,,,,,,,,,,,,,,,,,,,,,,,0,37,37,12,1,,,,,,,,,,,,,,,,,,,,,,,,
,,,,,,,,,,,,a,Incorrect,,,,,,t5.png,t2.png,3,0.0000131,20,Female,2020-11-25_16h55.04.233,torte-2b,2020.1.3,Win32,60,13948,0.616955,,,,,,,,,,,,,,,,,,,,,,,,,,,,,,,,,,,,,0,38,38,98,1,,,,,,,,,,,,,,,,,,,,,,,,
,,,,,,,,,,,,l,Incorrect,,,,,,t3.png,t4.png,1,0.909,20,Female,2020-11-25_16h55.04.233,torte-2b,2020.1.3,Win32,60,13948,1.16486,,,,,,,,,,,,,,,,,,,,,,,,,,,,,,,,,,,,,0,39,39,89,1,,,,,,,,,,,,,,,,,,,,,,,,
,,,,,,,,,,,,l,Incorrect,,,,,,t2.png,t3.png,1,0.90855,20,Female,2020-11-25_16h55.04.233,torte-2b,2020.1.3,Win32,60,13948,1.020145,,,,,,,,,,,,,,,,,,,,,,,,,,,,,,,,,,,,,0,40,40,10,1,,,,,,,,,,,,,,,,,,,,,,,,
,,,,,,,,,,,,l,Incorrect,,,,,,t2.png,t3.png,1,0.90855,20,Female,2020-11-25_16h55.04.233,torte-2b,2020.1.3,Win32,60,13948,1.250525,,,,,,,,,,,,,,,,,,,,,,,,,,,,,,,,,,,,,0,41,41,65,1,,,,,,,,,,,,,,,,,,,,,,,,
,,,,,,,,,,,,l,Correct!,,,,,,t2.png,t4.png,2,0.059078,20,Female,2020-11-25_16h55.04.233,torte-2b,2020.1.3,Win32,60,13948,0.98477,,,,,,,,,,,,,,,,,,,,,,,,,,,,,,,,,,,,,0,42,42,11,1,,,,,,,,,,,,,,,,,,,,,,,,
,,,,,,,,,,,,a,Correct!,,,,,,t1.png,t1.png,0,0.97829,20,Female,2020-11-25_16h55.04.233,torte-2b,2020.1.3,Win32,60,13948,0.87125,,,,,,,,,,,,,,,,,,,,,,,,,,,,,,,,,,,,,0,43,43,67,1,,,,,,,,,,,,,,,,,,,,,,,,
,,,,,,,,,,,,a,Incorrect,,,,,,t3.png,t1.png,2,0.0565,20,Female,2020-11-25_16h55.04.233,torte-2b,2020.1.3,Win32,60,13948,0.716365,,,,,,,,,,,,,,,,,,,,,,,,,,,,,,,,,,,,,0,44,44,31,1,,,,,,,,,,,,,,,,,,,,,,,,
,,,,,,,,,,,,l,Correct!,,,,,,t2.png,t5.png,3,0.0000131,20,Female,2020-11-25_16h55.04.233,torte-2b,2020.1.3,Win32,60,13948,0.534735,,,,,,,,,,,,,,,,,,,,,,,,,,,,,,,,,,,,,0,45,45,95,1,,,,,,,,,,,,,,,,,,,,,,,,
,,,,,,,,,,,,a,Incorrect,,,,,,t4.png,t1.png,3,0.0000131,20,Female,2020-11-25_16h55.04.233,torte-2b,2020.1.3,Win32,60,13948,0.48582,,,,,,,,,,,,,,,,,,,,,,,,,,,,,,,,,,,,,0,46,46,61,1,,,,,,,,,,,,,,,,,,,,,,,,
,,,,,,,,,,,,a,Correct!,,,,,,t1.png,t1.png,0,0.978,20,Female,2020-11-25_16h55.04.233,torte-2b,2020.1.3,Win32,60,13948,0.91615,,,,,,,,,,,,,,,,,,,,,,,,,,,,,,,,,,,,,0,47,47,54,1,,,,,,,,,,,,,,,,,,,,,,,,
,,,,,,,,,,,,l,Correct!,,,,,,t1.png,t4.png,3,0.0000131,20,Female,2020-11-25_16h55.04.233,torte-2b,2020.1.3,Win32,60,13948,0.686865,,,,,,,,,,,,,,,,,,,,,,,,,,,,,,,,,,,,,0,48,48,81,1,,,,,,,,,,,,,,,,,,,,,,,,
,,,,,,,,,,,,a,Correct!,,,,,,t2.png,t1.png,1,0.90025,20,Female,2020-11-25_16h55.04.233,torte-2b,2020.1.3,Win32,60,13948,1.038475,,,,,,,,,,,,,,,,,,,,,,,,,,,,,,,,,,,,,0,49,49,5,1,,,,,,,,,,,,,,,,,,,,,,,,
,,,,,,,,,,,,a,Correct!,,,,,,t3.png,t2.png,1,0.909,20,Female,2020-11-25_16h55.04.233,torte-2b,2020.1.3,Win32,60,13948,0.933825,,,,,,,,,,,,,,,,,,,,,,,,,,,,,,,,,,,,,0,50,50,3,1,,,,,,,,,,,,,,,,,,,,,,,,
,,,,,,,,,,,,l,Correct!,,,,,,t1.png,t5.png,4,9.55E-11,20,Female,2020-11-25_16h55.04.233,torte-2b,2020.1.3,Win32,60,13948,0.837235,,,,,,,,,,,,,,,,,,,,,,,,,,,,,,,,,,,,,0,51,51,41,1,,,,,,,,,,,,,,,,,,,,,,,,
,,,,,,,,,,,,l,Incorrect,,,,,,t3.png,t4.png,1,0.909,20,Female,2020-11-25_16h55.04.233,torte-2b,2020.1.3,Win32,60,13948,1.482335,,,,,,,,,,,,,,,,,,,,,,,,,,,,,,,,,,,,,0,52,52,106,1,,,,,,,,,,,,,,,,,,,,,,,,
,,,,,,,,,,,,a,Correct!,,,,,,t5.png,t5.png,0,0.978,20,Female,2020-11-25_16h55.04.233,torte-2b,2020.1.3,Win32,60,13948,0.76512,,,,,,,,,,,,,,,,,,,,,,,,,,,,,,,,,,,,,0,53,53,117,1,,,,,,,,,,,,,,,,,,,,,,,,
,,,,,,,,,,,,l,Incorrect,,,,,,t4.png,t3.png,1,0.90855,20,Female,2020-11-25_16h55.04.233,torte-2b,2020.1.3,Win32,60,13948,1.833235,,,,,,,,,,,,,,,,,,,,,,,,,,,,,,,,,,,,,0,54,54,75,1,,,,,,,,,,,,,,,,,,,,,,,,
,,,,,,,,,,,,l,Incorrect,,,,,,t2.png,t3.png,1,0.90855,20,Female,2020-11-25_16h55.04.233,torte-2b,2020.1.3,Win32,60,13948,0.985235,,,,,,,,,,,,,,,,,,,,,,,,,,,,,,,,,,,,,0,55,55,111,1,,,,,,,,,,,,,,,,,,,,,,,,
,,,,,,,,,,,,a,Correct!,,,,,,t5.png,t3.png,2,0.056466,20,Female,2020-11-25_16h55.04.233,torte-2b,2020.1.3,Win32,60,13948,0.7335,,,,,,,,,,,,,,,,,,,,,,,,,,,,,,,,,,,,,0,56,56,56,1,,,,,,,,,,,,,,,,,,,,,,,,
,,,,,,,,,,,,l,Incorrect,,,,,,t4.png,t5.png,1,0.90025,20,Female,2020-11-25_16h55.04.233,torte-2b,2020.1.3,Win32,60,13948,0.835995,,,,,,,,,,,,,,,,,,,,,,,,,,,,,,,,,,,,,0,57,57,103,1,,,,,,,,,,,,,,,,,,,,,,,,
,,,,,,,,,,,,a,Incorrect,,,,,,t4.png,t2.png,2,0.059078,20,Female,2020-11-25_16h55.04.233,torte-2b,2020.1.3,Win32,60,13948,0.484415,,,,,,,,,,,,,,,,,,,,,,,,,,,,,,,,,,,,,0,58,58,109,1,,,,,,,,,,,,,,,,,,,,,,,,
,,,,,,,,,,,,l,Correct!,,,,,,t1.png,t4.png,3,0.0000131,20,Female,2020-11-25_16h55.04.233,torte-2b,2020.1.3,Win32,60,13948,1.088255,,,,,,,,,,,,,,,,,,,,,,,,,,,,,,,,,,,,,0,59,59,107,1,,,,,,,,,,,,,,,,,,,,,,,,
,,,,,,,,,,,,l,Correct!,,,,,,t2.png,t5.png,3,0.0000131,20,Female,2020-11-25_16h55.04.233,torte-2b,2020.1.3,Win32,60,13948,0.893375,,,,,,,,,,,,,,,,,,,,,,,,,,,,,,,,,,,,,0,60,60,104,1,,,,,,,,,,,,,,,,,,,,,,,,
,,,,,,,,,,,,l,Incorrect,,,,,,t3.png,t5.png,2,0.056466,20,Female,2020-11-25_16h55.04.233,torte-2b,2020.1.3,Win32,60,13948,0.79845,,,,,,,,,,,,,,,,,,,,,,,,,,,,,,,,,,,,,0,61,61,44,1,,,,,,,,,,,,,,,,,,,,,,,,
,,,,,,,,,,,,l,Correct!,,,,,,t2.png,t4.png,2,0.0591,20,Female,2020-11-25_16h55.04.233,torte-2b,2020.1.3,Win32,60,13948,0.765935,,,,,,,,,,,,,,,,,,,,,,,,,,,,,,,,,,,,,0,62,62,15,1,,,,,,,,,,,,,,,,,,,,,,,,
,,,,,,,,,,,,a,Correct!,,,,,,t1.png,t1.png,0,0.978,20,Female,2020-11-25_16h55.04.233,torte-2b,2020.1.3,Win32,60,13948,0.65328,,,,,,,,,,,,,,,,,,,,,,,,,,,,,,,,,,,,,0,63,63,28,1,,,,,,,,,,,,,,,,,,,,,,,,
,,,,,,,,,,,,l,Correct!,,,,,,t1.png,t3.png,2,0.056466,20,Female,2020-11-25_16h55.04.233,torte-2b,2020.1.3,Win32,60,13948,0.737735,,,,,,,,,,,,,,,,,,,,,,,,,,,,,,,,,,,,,0,64,64,69,1,,,,,,,,,,,,,,,,,,,,,,,,
,,,,,,,,,,,,a,Incorrect,,,,,,t3.png,t1.png,2,0.056466,20,Female,2020-11-25_16h55.04.233,torte-2b,2020.1.3,Win32,60,13948,0.505345,,,,,,,,,,,,,,,,,,,,,,,,,,,,,,,,,,,,,0,65,65,32,1,,,,,,,,,,,,,,,,,,,,,,,,
,,,,,,,,,,,,a,Correct!,,,,,,t1.png,t1.png,0,0.97829,20,Female,2020-11-25_16h55.04.233,torte-2b,2020.1.3,Win32,60,13948,0.605085,,,,,,,,,,,,,,,,,,,,,,,,,,,,,,,,,,,,,0,66,66,9,1,,,,,,,,,,,,,,,,,,,,,,,,
,,,,,,,,,,,,a,Incorrect,,,,,,t5.png,t1.png,4,9.55E-11,20,Female,2020-11-25_16h55.04.233,torte-2b,2020.1.3,Win32,60,13948,0.68338,,,,,,,,,,,,,,,,,,,,,,,,,,,,,,,,,,,,,0,67,67,71,1,,,,,,,,,,,,,,,,,,,,,,,,
,,,,,,,,,,,,a,Correct!,,,,,,t3.png,t2.png,1,0.90855,20,Female,2020-11-25_16h55.04.233,torte-2b,2020.1.3,Win32,60,13948,0.96673,,,,,,,,,,,,,,,,,,,,,,,,,,,,,,,,,,,,,0,68,68,53,1,,,,,,,,,,,,,,,,,,,,,,,,
,,,,,,,,,,,,l,Incorrect,,,,,,t3.png,t4.png,1,0.909,20,Female,2020-11-25_16h55.04.233,torte-2b,2020.1.3,Win32,60,13948,0.753615,,,,,,,,,,,,,,,,,,,,,,,,,,,,,,,,,,,,,0,69,69,82,1,,,,,,,,,,,,,,,,,,,,,,,,
,,,,,,,,,,,,a,Correct!,,,,,,t3.png,t2.png,1,0.90855,20,Female,2020-11-25_16h55.04.233,torte-2b,2020.1.3,Win32,60,13948,0.904155,,,,,,,,,,,,,,,,,,,,,,,,,,,,,,,,,,,,,0,70,70,18,1,,,,,,,,,,,,,,,,,,,,,,,,
,,,,,,,,,,,,a,Correct!,,,,,,t4.png,t3.png,1,0.909,20,Female,2020-11-25_16h55.04.233,torte-2b,2020.1.3,Win32,60,13948,0.78552,,,,,,,,,,,,,,,,,,,,,,,,,,,,,,,,,,,,,0,71,71,20,1,,,,,,,,,,,,,,,,,,,,,,,,
,,,,,,,,,,,,a,Incorrect,,,,,,t5.png,t2.png,3,0.0000131,20,Female,2020-11-25_16h55.04.233,torte-2b,2020.1.3,Win32,60,13948,0.549725,,,,,,,,,,,,,,,,,,,,,,,,,,,,,,,,,,,,,0,72,72,51,1,,,,,,,,,,,,,,,,,,,,,,,,
,,,,,,,,,,,,a,Correct!,,,,,,t5.png,t5.png,0,0.97829,20,Female,2020-11-25_16h55.04.233,torte-2b,2020.1.3,Win32,60,13948,0.58308,,,,,,,,,,,,,,,,,,,,,,,,,,,,,,,,,,,,,0,73,73,73,1,,,,,,,,,,,,,,,,,,,,,,,,
,,,,,,,,,,,,a,Correct!,,,,,,t2.png,t1.png,1,0.90025,20,Female,2020-11-25_16h55.04.233,torte-2b,2020.1.3,Win32,60,13948,0.76082,,,,,,,,,,,,,,,,,,,,,,,,,,,,,,,,,,,,,0,74,74,4,1,,,,,,,,,,,,,,,,,,,,,,,,
,,,,,,,,,,,,l,Correct!,,,,,,t1.png,t4.png,3,0.0000131,20,Female,2020-11-25_16h55.04.233,torte-2b,2020.1.3,Win32,60,13948,0.583685,,,,,,,,,,,,,,,,,,,,,,,,,,,,,,,,,,,,,0,75,75,17,1,,,,,,,,,,,,,,,,,,,,,,,,
,,,,,,,,,,,,a,Incorrect,,,,,,t4.png,t2.png,2,0.0591,20,Female,2020-11-25_16h55.04.233,torte-2b,2020.1.3,Win32,60,13948,0.504325,,,,,,,,,,,,,,,,,,,,,,,,,,,,,,,,,,,,,0,76,76,36,1,,,,,,,,,,,,,,,,,,,,,,,,
,,,,,,,,,,,,a,Correct!,,,,,,t4.png,t4.png,0,0.98115,20,Female,2020-11-25_16h55.04.233,torte-2b,2020.1.3,Win32,60,13948,1.303255,,,,,,,,,,,,,,,,,,,,,,,,,,,,,,,,,,,,,0,77,77,21,1,,,,,,,,,,,,,,,,,,,,,,,,
,,,,,,,,,,,,a,Correct!,,,,,,t3.png,t2.png,1,0.90855,20,Female,2020-11-25_16h55.04.233,torte-2b,2020.1.3,Win32,60,13948,0.80499,,,,,,,,,,,,,,,,,,,,,,,,,,,,,,,,,,,,,0,78,78,97,1,,,,,,,,,,,,,,,,,,,,,,,,
,,,,,,,,,,,,l,Correct!,,,,,,t1.png,t3.png,2,0.056466,20,Female,2020-11-25_16h55.04.233,torte-2b,2020.1.3,Win32,60,13948,0.71031,,,,,,,,,,,,,,,,,,,,,,,,,,,,,,,,,,,,,0,79,79,63,1,,,,,,,,,,,,,,,,,,,,,,,,
,,,,,,,,,,,,a,Incorrect,,,,,,t5.png,t1.png,4,9.55E-11,20,Female,2020-11-25_16h55.04.233,torte-2b,2020.1.3,Win32,60,13948,0.504055,,,,,,,,,,,,,,,,,,,,,,,,,,,,,,,,,,,,,0,80,80,100,1,,,,,,,,,,,,,,,,,,,,,,,,
,,,,,,,,,,,,l,Incorrect,,,,,,t1.png,t2.png,1,0.90025,20,Female,2020-11-25_16h55.04.233,torte-2b,2020.1.3,Win32,60,13948,0.91801,,,,,,,,,,,,,,,,,,,,,,,,,,,,,,,,,,,,,0,81,81,72,1,,,,,,,,,,,,,,,,,,,,,,,,
,,,,,,,,,,,,a,Incorrect,,,,,,t5.png,t3.png,2,0.056466,20,Female,2020-11-25_16h55.04.233,torte-2b,2020.1.3,Win32,60,13948,0.717885,,,,,,,,,,,,,,,,,,,,,,,,,,,,,,,,,,,,,0,82,82,114,1,,,,,,,,,,,,,,,,,,,,,,,,
,,,,,,,,,,,,a,Incorrect,,,,,,t4.png,t2.png,2,0.059078,20,Female,2020-11-25_16h55.04.233,torte-2b,2020.1.3,Win32,60,13948,0.602435,,,,,,,,,,,,,,,,,,,,,,,,,,,,,,,,,,,,,0,83,83,88,1,,,,,,,,,,,,,,,,,,,,,,,,
,,,,,,,,,,,,a,Incorrect,,,,,,t5.png,t3.png,2,0.056466,20,Female,2020-11-25_16h55.04.233,torte-2b,2020.1.3,Win32,60,13948,0.816825,,,,,,,,,,,,,,,,,,,,,,,,,,,,,,,,,,,,,0,84,84,108,1,,,,,,,,,,,,,,,,,,,,,,,,
,,,,,,,,,,,,a,Incorrect,,,,,,t3.png,t1.png,2,0.056466,20,Female,2020-11-25_16h55.04.233,torte-2b,2020.1.3,Win32,60,13948,0.765385,,,,,,,,,,,,,,,,,,,,,,,,,,,,,,,,,,,,,0,85,85,0,1,,,,,,,,,,,,,,,,,,,,,,,,
,,,,,,,,,,,,l,Incorrect,,,,,,t4.png,t5.png,1,0.90025,20,Female,2020-11-25_16h55.04.233,torte-2b,2020.1.3,Win32,60,13948,0.85733,,,,,,,,,,,,,,,,,,,,,,,,,,,,,,,,,,,,,0,86,86,58,1,,,,,,,,,,,,,,,,,,,,,,,,
,,,,,,,,,,,,a,Correct!,,,,,,t3.png,t4.png,1,0.90855,20,Female,2020-11-25_16h55.04.233,torte-2b,2020.1.3,Win32,60,13948,0.82465,,,,,,,,,,,,,,,,,,,,,,,,,,,,,,,,,,,,,0,87,87,96,1,,,,,,,,,,,,,,,,,,,,,,,,
,,,,,,,,,,,,a,Incorrect,,,,,,t4.png,t1.png,3,0.0000131,20,Female,2020-11-25_16h55.04.233,torte-2b,2020.1.3,Win32,60,13948,0.480295,,,,,,,,,,,,,,,,,,,,,,,,,,,,,,,,,,,,,0,88,88,13,1,,,,,,,,,,,,,,,,,,,,,,,,
,,,,,,,,,,,,a,Correct!,,,,,,t5.png,t5.png,0,0.97829,20,Female,2020-11-25_16h55.04.233,torte-2b,2020.1.3,Win32,60,13948,0.970945,,,,,,,,,,,,,,,,,,,,,,,,,,,,,,,,,,,,,0,89,89,25,1,,,,,,,,,,,,,,,,,,,,,,,,
,,,,,,,,,,,,a,Incorrect,,,,,,t3.png,t1.png,2,0.056466,20,Female,2020-11-25_16h55.04.233,torte-2b,2020.1.3,Win32,60,13948,1.06594,,,,,,,,,,,,,,,,,,,,,,,,,,,,,,,,,,,,,0,90,90,29,1,,,,,,,,,,,,,,,,,,,,,,,,
,,,,,,,,,,,,a,Incorrect,,,,,,t4.png,t2.png,2,0.059078,20,Female,2020-11-25_16h55.04.233,torte-2b,2020.1.3,Win32,60,13948,0.76924,,,,,,,,,,,,,,,,,,,,,,,,,,,,,,,,,,,,,0,91,91,110,1,,,,,,,,,,,,,,,,,,,,,,,,
,,,,,,,,,,,,l,Correct!,,,,,,t2.png,t4.png,2,0.059078,20,Female,2020-11-25_16h55.04.233,torte-2b,2020.1.3,Win32,60,13948,0.886285,,,,,,,,,,,,,,,,,,,,,,,,,,,,,,,,,,,,,0,92,92,77,1,,,,,,,,,,,,,,,,,,,,,,,,
,,,,,,,,,,,,l,Correct!,,,,,,t3.png,t5.png,2,0.0565,20,Female,2020-11-25_16h55.04.233,torte-2b,2020.1.3,Win32,60,13948,0.98689,,,,,,,,,,,,,,,,,,,,,,,,,,,,,,,,,,,,,0,93,93,83,1,,,,,,,,,,,,,,,,,,,,,,,,
,,,,,,,,,,,,l,Correct!,,,,,,t1.png,t3.png,2,0.056466,20,Female,2020-11-25_16h55.04.233,torte-2b,2020.1.3,Win32,60,13948,0.636945,,,,,,,,,,,,,,,,,,,,,,,,,,,,,,,,,,,,,0,94,94,99,1,,,,,,,,,,,,,,,,,,,,,,,,
,,,,,,,,,,,,l,Correct!,,,,,,t1.png,t5.png,4,9.55E-11,20,Female,2020-11-25_16h55.04.233,torte-2b,2020.1.3,Win32,60,13948,0.969855,,,,,,,,,,,,,,,,,,,,,,,,,,,,,,,,,,,,,0,95,95,16,1,,,,,,,,,,,,,,,,,,,,,,,,
,,,,,,,,,,,,l,Correct!,,,,,,t3.png,t5.png,2,0.056466,20,Female,2020-11-25_16h55.04.233,torte-2b,2020.1.3,Win32,60,13948,0.618745,,,,,,,,,,,,,,,,,,,,,,,,,,,,,,,,,,,,,0,96,96,6,1,,,,,,,,,,,,,,,,,,,,,,,,
,,,,,,,,,,,,a,Incorrect,,,,,,t4.png,t1.png,3,0.0000131,20,Female,2020-11-25_16h55.04.233,torte-2b,2020.1.3,Win32,60,13948,0.91838,,,,,,,,,,,,,,,,,,,,,,,,,,,,,,,,,,,,,0,97,97,42,1,,,,,,,,,,,,,,,,,,,,,,,,
,,,,,,,,,,,,l,Correct!,,,,,,t2.png,t5.png,3,0.0000131,20,Female,2020-11-25_16h55.04.233,torte-2b,2020.1.3,Win32,60,13948,0.482495,,,,,,,,,,,,,,,,,,,,,,,,,,,,,,,,,,,,,0,98,98,40,1,,,,,,,,,,,,,,,,,,,,,,,,
,,,,,,,,,,,,a,Incorrect,,,,,,t5.png,t2.png,3,0.0000131,20,Female,2020-11-25_16h55.04.233,torte-2b,2020.1.3,Win32,60,13948,0.719925,,,,,,,,,,,,,,,,,,,,,,,,,,,,,,,,,,,,,0,99,99,119,1,,,,,,,,,,,,,,,,,,,,,,,,
,,,,,,,,,,,,l,Incorrect,,,,,,t1.png,t2.png,1,0.9,20,Female,2020-11-25_16h55.04.233,torte-2b,2020.1.3,Win32,60,13948,0.69184,,,,,,,,,,,,,,,,,,,,,,,,,,,,,,,,,,,,,0,100,100,1,1,,,,,,,,,,,,,,,,,,,,,,,,
,,,,,,,,,,,,a,Correct!,,,,,,t4.png,t4.png,0,0.98115,20,Female,2020-11-25_16h55.04.233,torte-2b,2020.1.3,Win32,60,13948,1.851735,,,,,,,,,,,,,,,,,,,,,,,,,,,,,,,,,,,,,0,101,101,90,1,,,,,,,,,,,,,,,,,,,,,,,,
,,,,,,,,,,,,l,Correct!,,,,,,t2.png,t5.png,3,0.0000131,20,Female,2020-11-25_16h55.04.233,torte-2b,2020.1.3,Win32,60,13948,0.517745,,,,,,,,,,,,,,,,,,,,,,,,,,,,,,,,,,,,,0,102,102,66,1,,,,,,,,,,,,,,,,,,,,,,,,
,,,,,,,,,,,,l,Correct!,,,,,,t1.png,t5.png,4,9.55E-11,20,Female,2020-11-25_16h55.04.233,torte-2b,2020.1.3,Win32,60,13948,0.53771,,,,,,,,,,,,,,,,,,,,,,,,,,,,,,,,,,,,,0,103,103,85,1,,,,,,,,,,,,,,,,,,,,,,,,
,,,,,,,,,,,,l,Incorrect,,,,,,t2.png,t4.png,2,0.059078,20,Female,2020-11-25_16h55.04.233,torte-2b,2020.1.3,Win32,60,13948,0.499025,,,,,,,,,,,,,,,,,,,,,,,,,,,,,,,,,,,,,0,104,104,24,1,,,,,,,,,,,,,,,,,,,,,,,,
,,,,,,,,,,,,a,Incorrect,,,,,,t5.png,t3.png,2,0.0565,20,Female,2020-11-25_16h55.04.233,torte-2b,2020.1.3,Win32,60,13948,0.52075,,,,,,,,,,,,,,,,,,,,,,,,,,,,,,,,,,,,,0,105,105,39,1,,,,,,,,,,,,,,,,,,,,,,,,
,,,,,,,,,,,,a,Incorrect,,,,,,t4.png,t1.png,3,0.0000131,20,Female,2020-11-25_16h55.04.233,torte-2b,2020.1.3,Win32,60,13948,0.58897,,,,,,,,,,,,,,,,,,,,,,,,,,,,,,,,,,,,,0,106,106,93,1,,,,,,,,,,,,,,,,,,,,,,,,
,,,,,,,,,,,,a,Incorrect,,,,,,t5.png,t2.png,3,0.0000131,20,Female,2020-11-25_16h55.04.233,torte-2b,2020.1.3,Win32,60,13948,0.4503,,,,,,,,,,,,,,,,,,,,,,,,,,,,,,,,,,,,,0,107,107,116,1,,,,,,,,,,,,,,,,,,,,,,,,
,,,,,,,,,,,,l,Correct!,,,,,,t1.png,t4.png,3,0.0000131,20,Female,2020-11-25_16h55.04.233,torte-2b,2020.1.3,Win32,60,13948,0.66287,,,,,,,,,,,,,,,,,,,,,,,,,,,,,,,,,,,,,0,108,108,92,1,,,,,,,,,,,,,,,,,,,,,,,,
,,,,,,,,,,,,a,Correct!,,,,,,t4.png,t4.png,0,0.98115,20,Female,2020-11-25_16h55.04.233,torte-2b,2020.1.3,Win32,60,13948,1.020495,,,,,,,,,,,,,,,,,,,,,,,,,,,,,,,,,,,,,0,109,109,80,1,,,,,,,,,,,,,,,,,,,,,,,,
,,,,,,,,,,,,a,Correct!,,,,,,t5.png,t4.png,1,0.90025,20,Female,2020-11-25_16h55.04.233,torte-2b,2020.1.3,Win32,60,13948,1.97511,,,,,,,,,,,,,,,,,,,,,,,,,,,,,,,,,,,,,0,110,110,34,1,,,,,,,,,,,,,,,,,,,,,,,,
,,,,,,,,,,,,a,Correct!,,,,,,t4.png,t3.png,1,0.909,20,Female,2020-11-25_16h55.04.233,torte-2b,2020.1.3,Win32,60,13948,1.386595,,,,,,,,,,,,,,,,,,,,,,,,,,,,,,,,,,,,,0,111,111,46,1,,,,,,,,,,,,,,,,,,,,,,,,
,,,,,,,,,,,,a,Incorrect,,,,,,t5.png,t3.png,2,0.056466,20,Female,2020-11-25_16h55.04.233,torte-2b,2020.1.3,Win32,60,13948,0.64938,,,,,,,,,,,,,,,,,,,,,,,,,,,,,,,,,,,,,0,112,112,38,1,,,,,,,,,,,,,,,,,,,,,,,,
,,,,,,,,,,,,a,Correct!,,,,,,t5.png,t4.png,1,0.9,20,Female,2020-11-25_16h55.04.233,torte-2b,2020.1.3,Win32,60,13948,0.783715,,,,,,,,,,,,,,,,,,,,,,,,,,,,,,,,,,,,,0,113,113,49,1,,,,,,,,,,,,,,,,,,,,,,,,
,,,,,,,,,,,,l,Incorrect,,,,,,t3.png,t4.png,1,0.90855,20,Female,2020-11-25_16h55.04.233,torte-2b,2020.1.3,Win32,60,13948,0.935625,,,,,,,,,,,,,,,,,,,,,,,,,,,,,,,,,,,,,0,114,114,84,1,,,,,,,,,,,,,,,,,,,,,,,,
,,,,,,,,,,,,a,Correct!,,,,,,t2.png,t1.png,1,0.90025,20,Female,2020-11-25_16h55.04.233,torte-2b,2020.1.3,Win32,60,13948,1.167125,,,,,,,,,,,,,,,,,,,,,,,,,,,,,,,,,,,,,0,115,115,19,1,,,,,,,,,,,,,,,,,,,,,,,,
,,,,,,,,,,,,a,Correct!,,,,,,t4.png,t4.png,0,0.98115,20,Female,2020-11-25_16h55.04.233,torte-2b,2020.1.3,Win32,60,13948,1.318085,,,,,,,,,,,,,,,,,,,,,,,,,,,,,,,,,,,,,0,116,116,52,1,,,,,,,,,,,,,,,,,,,,,,,,
,,,,,,,,,,,,l,Incorrect,,,,,,t1.png,t2.png,1,0.90025,20,Female,2020-11-25_16h55.04.233,torte-2b,2020.1.3,Win32,60,13948,0.73809,,,,,,,,,,,,,,,,,,,,,,,,,,,,,,,,,,,,,0,117,117,112,1,,,,,,,,,,,,,,,,,,,,,,,,
,,,,,,,,,,,,a,Correct!,,,,,,t2.png,t2.png,0,0.98115,20,Female,2020-11-25_16h55.04.233,torte-2b,2020.1.3,Win32,60,13948,0.8326,,,,,,,,,,,,,,,,,,,,,,,,,,,,,,,,,,,,,0,118,118,57,1,,,,,,,,,,,,,,,,,,,,,,,,
,,,,,,,,,,,,a,Incorrect,,,,,,t5.png,t1.png,4,9.55E-11,20,Female,2020-11-25_16h55.04.233,torte-2b,2020.1.3,Win32,60,13948,0.96497,,,,,,,,,,,,,,,,,,,,,,,,,,,,,,,,,,,,,0,119,119,102,1,,,,,,,,,,,,,,,,,,,,,,,,
,,,,,,,,,,,,,,,,,,,,,,,20,Female,2020-11-25_16h55.04.233,torte-2b,2020.1.3,Win32,60,13948,,space,10.283015,,,,,,,,,,,,,,,,,,,,,,,,,,,,,,,,,,,,,,,,81.60001266,186.3999963,1,0,0,s1,-20.79998887,42.39999419,1,0,0,t2,261.6000153,-92.00000781,1,0,0,proceed,space,1.41504,space,1.33873,space,0.531475
