key_resp_8.keys,key_resp_8.rt,key_resp_9.keys,key_resp_9.rt,key_resp_10.keys,key_resp_10.rt,key_resp_11.keys,key_resp_11.rt,key_resp_2.keys,key_resp_2.rt,key_resp_3.keys,key_resp_3.rt,key_resp.keys,Feedback,train.thisRepN,train.thisTrialN,train.thisN,train.thisIndex,train.ran,torta_sx,torta_dx,difference,probability,age,gender,date,expName,psychopyVersion,OS,frameRate,participant,key_resp.rt,key_resp_15.keys,key_resp_15.rt,key_resp_6.keys,key_resp_6.rt,test1.thisRepN,test1.thisTrialN,test1.thisN,test1.thisIndex,test1.ran,key_resp_4.keys,key_resp_4.rt,key_resp_5.keys,key_resp_5.rt,back1.thisRepN,back1.thisTrialN,back1.thisN,back1.thisIndex,back1.ran,letter,back2.thisRepN,back2.thisTrialN,back2.thisN,back2.thisIndex,back2.ran,back3.thisRepN,back3.thisTrialN,back3.thisN,back3.thisIndex,back3.ran,back4.thisRepN,back4.thisTrialN,back4.thisN,back4.thisIndex,back4.ran,key_resp_7.keys,key_resp_7.rt,test2.thisRepN,test2.thisTrialN,test2.thisN,test2.thisIndex,test2.ran,mouse.x,mouse.y,mouse.leftButton,mouse.midButton,mouse.rightButton,mouse.clicked_name,mouse_2.x,mouse_2.y,mouse_2.leftButton,mouse_2.midButton,mouse_2.rightButton,mouse_2.clicked_name,mouse_3.x,mouse_3.y,mouse_3.leftButton,mouse_3.midButton,mouse_3.rightButton,mouse_3.clicked_name,key_resp_12.keys,key_resp_12.rt,key_resp_13.keys,key_resp_13.rt,key_resp_14.keys,key_resp_14.rt
space,6.733695,space,1.360295,space,1.1942,space,3.04989,k,0.24394,num_enter,65.869355,,Too slow :(,0,0,0,2,1,t3.png,t2.png,1,0.90855,52,Female,2020-12-01_12h30.17.864,torte-2b,2020.1.3,Win32,60,14114,,,,,,,,,,,,,,,,,,,,,,,,,,,,,,,,,,,,,,,,,,,,,,,,,,,,,,,,,,,,,,,,,,
,,,,,,,,,,,,a,Incorrect,0,1,1,26,1,t4.png,t2.png,2,0.0591,52,Female,2020-12-01_12h30.17.864,torte-2b,2020.1.3,Win32,60,14114,0.680525,,,,,,,,,,,,,,,,,,,,,,,,,,,,,,,,,,,,,,,,,,,,,,,,,,,,,,,,,,,,,,,,,
,,,,,,,,,,,,a,Correct!,0,2,2,42,1,t5.png,t4.png,1,0.90025,52,Female,2020-12-01_12h30.17.864,torte-2b,2020.1.3,Win32,60,14114,1.584775,,,,,,,,,,,,,,,,,,,,,,,,,,,,,,,,,,,,,,,,,,,,,,,,,,,,,,,,,,,,,,,,,
,,,,,,,,,,,,a,Correct!,0,3,3,34,1,t5.png,t4.png,1,0.9,52,Female,2020-12-01_12h30.17.864,torte-2b,2020.1.3,Win32,60,14114,1.01521,,,,,,,,,,,,,,,,,,,,,,,,,,,,,,,,,,,,,,,,,,,,,,,,,,,,,,,,,,,,,,,,,
,,,,,,,,,,,,a,Incorrect,0,4,4,68,1,t1.png,t4.png,3,0.0000131,52,Female,2020-12-01_12h30.17.864,torte-2b,2020.1.3,Win32,60,14114,0.71573,,,,,,,,,,,,,,,,,,,,,,,,,,,,,,,,,,,,,,,,,,,,,,,,,,,,,,,,,,,,,,,,,
,,,,,,,,,,,,,Too slow :(,0,5,5,48,1,t5.png,t5.png,0,0.97829,52,Female,2020-12-01_12h30.17.864,torte-2b,2020.1.3,Win32,60,14114,,,,,,,,,,,,,,,,,,,,,,,,,,,,,,,,,,,,,,,,,,,,,,,,,,,,,,,,,,,,,,,,,,
,,,,,,,,,,,,a,Incorrect,0,6,6,6,1,t1.png,t4.png,3,0.0000131,52,Female,2020-12-01_12h30.17.864,torte-2b,2020.1.3,Win32,60,14114,1.898645,,,,,,,,,,,,,,,,,,,,,,,,,,,,,,,,,,,,,,,,,,,,,,,,,,,,,,,,,,,,,,,,,
,,,,,,,,,,,,a,Incorrect,0,7,7,43,1,t4.png,t2.png,2,0.059078,52,Female,2020-12-01_12h30.17.864,torte-2b,2020.1.3,Win32,60,14114,0.898115,,,,,,,,,,,,,,,,,,,,,,,,,,,,,,,,,,,,,,,,,,,,,,,,,,,,,,,,,,,,,,,,,
,,,,,,,,,,,,l,Incorrect,0,8,8,18,1,t4.png,t5.png,1,0.90025,52,Female,2020-12-01_12h30.17.864,torte-2b,2020.1.3,Win32,60,14114,1.151785,,,,,,,,,,,,,,,,,,,,,,,,,,,,,,,,,,,,,,,,,,,,,,,,,,,,,,,,,,,,,,,,,
,,,,,,,,,,,,l,Incorrect,0,9,9,22,1,t2.png,t3.png,1,0.90855,52,Female,2020-12-01_12h30.17.864,torte-2b,2020.1.3,Win32,60,14114,2.26898,,,,,,,,,,,,,,,,,,,,,,,,,,,,,,,,,,,,,,,,,,,,,,,,,,,,,,,,,,,,,,,,,
,,,,,,,,,,,,l,Correct!,0,10,10,117,1,t1.png,t5.png,4,9.55E-11,52,Female,2020-12-01_12h30.17.864,torte-2b,2020.1.3,Win32,60,14114,2.039265,,,,,,,,,,,,,,,,,,,,,,,,,,,,,,,,,,,,,,,,,,,,,,,,,,,,,,,,,,,,,,,,,
,,,,,,,,,,,,l,Incorrect,0,11,11,44,1,t2.png,t3.png,1,0.909,52,Female,2020-12-01_12h30.17.864,torte-2b,2020.1.3,Win32,60,14114,1.483845,,,,,,,,,,,,,,,,,,,,,,,,,,,,,,,,,,,,,,,,,,,,,,,,,,,,,,,,,,,,,,,,,
,,,,,,,,,,,,a,Correct!,0,12,12,76,1,t3.png,t2.png,1,0.90855,52,Female,2020-12-01_12h30.17.864,torte-2b,2020.1.3,Win32,60,14114,0.65041,,,,,,,,,,,,,,,,,,,,,,,,,,,,,,,,,,,,,,,,,,,,,,,,,,,,,,,,,,,,,,,,,
,,,,,,,,,,,,l,Incorrect,0,13,13,28,1,t2.png,t3.png,1,0.909,52,Female,2020-12-01_12h30.17.864,torte-2b,2020.1.3,Win32,60,14114,1.022145,,,,,,,,,,,,,,,,,,,,,,,,,,,,,,,,,,,,,,,,,,,,,,,,,,,,,,,,,,,,,,,,,
,,,,,,,,,,,,l,Incorrect,0,14,14,49,1,t4.png,t5.png,1,0.9,52,Female,2020-12-01_12h30.17.864,torte-2b,2020.1.3,Win32,60,14114,1.46597,,,,,,,,,,,,,,,,,,,,,,,,,,,,,,,,,,,,,,,,,,,,,,,,,,,,,,,,,,,,,,,,,
,,,,,,,,,,,,a,Correct!,0,15,15,85,1,t3.png,t2.png,1,0.90855,52,Female,2020-12-01_12h30.17.864,torte-2b,2020.1.3,Win32,60,14114,1.038535,,,,,,,,,,,,,,,,,,,,,,,,,,,,,,,,,,,,,,,,,,,,,,,,,,,,,,,,,,,,,,,,,
,,,,,,,,,,,,a,Correct!,0,16,16,7,1,t4.png,t5.png,1,0.90025,52,Female,2020-12-01_12h30.17.864,torte-2b,2020.1.3,Win32,60,14114,2.234435,,,,,,,,,,,,,,,,,,,,,,,,,,,,,,,,,,,,,,,,,,,,,,,,,,,,,,,,,,,,,,,,,
,,,,,,,,,,,,a,Correct!,0,17,17,29,1,t5.png,t5.png,0,0.97829,52,Female,2020-12-01_12h30.17.864,torte-2b,2020.1.3,Win32,60,14114,1.8204,,,,,,,,,,,,,,,,,,,,,,,,,,,,,,,,,,,,,,,,,,,,,,,,,,,,,,,,,,,,,,,,,
,,,,,,,,,,,,l,Correct!,0,18,18,31,1,t1.png,t5.png,4,9.55E-11,52,Female,2020-12-01_12h30.17.864,torte-2b,2020.1.3,Win32,60,14114,2.01696,,,,,,,,,,,,,,,,,,,,,,,,,,,,,,,,,,,,,,,,,,,,,,,,,,,,,,,,,,,,,,,,,
,,,,,,,,,,,,a,Correct!,0,19,19,96,1,t1.png,t1.png,0,0.97829,52,Female,2020-12-01_12h30.17.864,torte-2b,2020.1.3,Win32,60,14114,1.496985,,,,,,,,,,,,,,,,,,,,,,,,,,,,,,,,,,,,,,,,,,,,,,,,,,,,,,,,,,,,,,,,,
,,,,,,,,,,,,l,Correct!,0,20,20,37,1,t1.png,t4.png,3,0.0000131,52,Female,2020-12-01_12h30.17.864,torte-2b,2020.1.3,Win32,60,14114,1.951525,,,,,,,,,,,,,,,,,,,,,,,,,,,,,,,,,,,,,,,,,,,,,,,,,,,,,,,,,,,,,,,,,
,,,,,,,,,,,,l,Incorrect,0,21,21,92,1,t2.png,t3.png,1,0.909,52,Female,2020-12-01_12h30.17.864,torte-2b,2020.1.3,Win32,60,14114,2.03401,,,,,,,,,,,,,,,,,,,,,,,,,,,,,,,,,,,,,,,,,,,,,,,,,,,,,,,,,,,,,,,,,
,,,,,,,,,,,,l,Correct!,0,22,22,99,1,t1.png,t5.png,4,9.55E-11,52,Female,2020-12-01_12h30.17.864,torte-2b,2020.1.3,Win32,60,14114,1.22499,,,,,,,,,,,,,,,,,,,,,,,,,,,,,,,,,,,,,,,,,,,,,,,,,,,,,,,,,,,,,,,,,
,,,,,,,,,,,,,Too slow :(,0,23,23,9,1,t4.png,t5.png,1,0.9,52,Female,2020-12-01_12h30.17.864,torte-2b,2020.1.3,Win32,60,14114,,,,,,,,,,,,,,,,,,,,,,,,,,,,,,,,,,,,,,,,,,,,,,,,,,,,,,,,,,,,,,,,,,
,,,,,,,,,,,,a,Correct!,0,24,24,74,1,t5.png,t4.png,1,0.9,52,Female,2020-12-01_12h30.17.864,torte-2b,2020.1.3,Win32,60,14114,0.88069,,,,,,,,,,,,,,,,,,,,,,,,,,,,,,,,,,,,,,,,,,,,,,,,,,,,,,,,,,,,,,,,,
,,,,,,,,,,,,a,Incorrect,0,25,25,111,1,t5.png,t1.png,4,9.55E-11,52,Female,2020-12-01_12h30.17.864,torte-2b,2020.1.3,Win32,60,14114,0.69433,,,,,,,,,,,,,,,,,,,,,,,,,,,,,,,,,,,,,,,,,,,,,,,,,,,,,,,,,,,,,,,,,
,,,,,,,,,,,,l,Correct!,0,26,26,89,1,t1.png,t4.png,3,0.0000131,52,Female,2020-12-01_12h30.17.864,torte-2b,2020.1.3,Win32,60,14114,0.634225,,,,,,,,,,,,,,,,,,,,,,,,,,,,,,,,,,,,,,,,,,,,,,,,,,,,,,,,,,,,,,,,,
,,,,,,,,,,,,l,Incorrect,0,27,27,100,1,t4.png,t5.png,1,0.90025,52,Female,2020-12-01_12h30.17.864,torte-2b,2020.1.3,Win32,60,14114,1.55131,,,,,,,,,,,,,,,,,,,,,,,,,,,,,,,,,,,,,,,,,,,,,,,,,,,,,,,,,,,,,,,,,
,,,,,,,,,,,,a,Incorrect,0,28,28,27,1,t3.png,t1.png,2,0.0565,52,Female,2020-12-01_12h30.17.864,torte-2b,2020.1.3,Win32,60,14114,0.83159,,,,,,,,,,,,,,,,,,,,,,,,,,,,,,,,,,,,,,,,,,,,,,,,,,,,,,,,,,,,,,,,,
,,,,,,,,,,,,l,Incorrect,0,29,29,109,1,t5.png,t5.png,0,0.97829,52,Female,2020-12-01_12h30.17.864,torte-2b,2020.1.3,Win32,60,14114,1.93551,,,,,,,,,,,,,,,,,,,,,,,,,,,,,,,,,,,,,,,,,,,,,,,,,,,,,,,,,,,,,,,,,
,,,,,,,,,,,,a,Correct!,0,30,30,77,1,t1.png,t1.png,0,0.97829,52,Female,2020-12-01_12h30.17.864,torte-2b,2020.1.3,Win32,60,14114,1.073375,,,,,,,,,,,,,,,,,,,,,,,,,,,,,,,,,,,,,,,,,,,,,,,,,,,,,,,,,,,,,,,,,
,,,,,,,,,,,,a,Incorrect,0,31,31,86,1,t3.png,t1.png,2,0.056466,52,Female,2020-12-01_12h30.17.864,torte-2b,2020.1.3,Win32,60,14114,0.9861,,,,,,,,,,,,,,,,,,,,,,,,,,,,,,,,,,,,,,,,,,,,,,,,,,,,,,,,,,,,,,,,,
,,,,,,,,,,,,l,Correct!,0,32,32,61,1,t1.png,t4.png,3,0.0000131,52,Female,2020-12-01_12h30.17.864,torte-2b,2020.1.3,Win32,60,14114,0.62023,,,,,,,,,,,,,,,,,,,,,,,,,,,,,,,,,,,,,,,,,,,,,,,,,,,,,,,,,,,,,,,,,
,,,,,,,,,,,,a,Correct!,0,33,33,105,1,t3.png,t2.png,1,0.90855,52,Female,2020-12-01_12h30.17.864,torte-2b,2020.1.3,Win32,60,14114,1.84724,,,,,,,,,,,,,,,,,,,,,,,,,,,,,,,,,,,,,,,,,,,,,,,,,,,,,,,,,,,,,,,,,
,,,,,,,,,,,,l,Incorrect,0,34,34,32,1,t4.png,t5.png,1,0.90025,52,Female,2020-12-01_12h30.17.864,torte-2b,2020.1.3,Win32,60,14114,1.57372,,,,,,,,,,,,,,,,,,,,,,,,,,,,,,,,,,,,,,,,,,,,,,,,,,,,,,,,,,,,,,,,,
,,,,,,,,,,,,a,Correct!,0,35,35,116,1,t5.png,t4.png,1,0.90025,52,Female,2020-12-01_12h30.17.864,torte-2b,2020.1.3,Win32,60,14114,1.542995,,,,,,,,,,,,,,,,,,,,,,,,,,,,,,,,,,,,,,,,,,,,,,,,,,,,,,,,,,,,,,,,,
,,,,,,,,,,,,a,Incorrect,0,36,36,83,1,t3.png,t1.png,2,0.056466,52,Female,2020-12-01_12h30.17.864,torte-2b,2020.1.3,Win32,60,14114,0.97139,,,,,,,,,,,,,,,,,,,,,,,,,,,,,,,,,,,,,,,,,,,,,,,,,,,,,,,,,,,,,,,,,
,,,,,,,,,,,,l,Incorrect,0,37,37,114,1,t2.png,t3.png,1,0.90855,52,Female,2020-12-01_12h30.17.864,torte-2b,2020.1.3,Win32,60,14114,0.89846,,,,,,,,,,,,,,,,,,,,,,,,,,,,,,,,,,,,,,,,,,,,,,,,,,,,,,,,,,,,,,,,,
,,,,,,,,,,,,l,Correct!,0,38,38,35,1,t1.png,t4.png,3,0.0000131,52,Female,2020-12-01_12h30.17.864,torte-2b,2020.1.3,Win32,60,14114,1.317015,,,,,,,,,,,,,,,,,,,,,,,,,,,,,,,,,,,,,,,,,,,,,,,,,,,,,,,,,,,,,,,,,
,,,,,,,,,,,,a,Incorrect,0,39,39,73,1,t4.png,t2.png,2,0.059078,52,Female,2020-12-01_12h30.17.864,torte-2b,2020.1.3,Win32,60,14114,0.98768,,,,,,,,,,,,,,,,,,,,,,,,,,,,,,,,,,,,,,,,,,,,,,,,,,,,,,,,,,,,,,,,,
,,,,,,,,,,,,a,Correct!,0,40,40,113,1,t5.png,t4.png,1,0.9,52,Female,2020-12-01_12h30.17.864,torte-2b,2020.1.3,Win32,60,14114,1.53073,,,,,,,,,,,,,,,,,,,,,,,,,,,,,,,,,,,,,,,,,,,,,,,,,,,,,,,,,,,,,,,,,
,,,,,,,,,,,,a,Incorrect,0,41,41,72,1,t4.png,t2.png,2,0.059078,52,Female,2020-12-01_12h30.17.864,torte-2b,2020.1.3,Win32,60,14114,1.224245,,,,,,,,,,,,,,,,,,,,,,,,,,,,,,,,,,,,,,,,,,,,,,,,,,,,,,,,,,,,,,,,,
,,,,,,,,,,,,a,Incorrect,0,42,42,33,1,t5.png,t1.png,4,9.55E-11,52,Female,2020-12-01_12h30.17.864,torte-2b,2020.1.3,Win32,60,14114,0.864625,,,,,,,,,,,,,,,,,,,,,,,,,,,,,,,,,,,,,,,,,,,,,,,,,,,,,,,,,,,,,,,,,
,,,,,,,,,,,,a,Correct!,0,43,43,118,1,t5.png,t5.png,0,0.978,52,Female,2020-12-01_12h30.17.864,torte-2b,2020.1.3,Win32,60,14114,1.33129,,,,,,,,,,,,,,,,,,,,,,,,,,,,,,,,,,,,,,,,,,,,,,,,,,,,,,,,,,,,,,,,,
,,,,,,,,,,,,a,Incorrect,0,44,44,38,1,t3.png,t1.png,2,0.056466,52,Female,2020-12-01_12h30.17.864,torte-2b,2020.1.3,Win32,60,14114,1.44842,,,,,,,,,,,,,,,,,,,,,,,,,,,,,,,,,,,,,,,,,,,,,,,,,,,,,,,,,,,,,,,,,
,,,,,,,,,,,,a,Correct!,0,45,45,21,1,t5.png,t4.png,1,0.90025,52,Female,2020-12-01_12h30.17.864,torte-2b,2020.1.3,Win32,60,14114,1.63442,,,,,,,,,,,,,,,,,,,,,,,,,,,,,,,,,,,,,,,,,,,,,,,,,,,,,,,,,,,,,,,,,
,,,,,,,,,,,,l,Incorrect,0,46,46,106,1,t2.png,t3.png,1,0.90855,52,Female,2020-12-01_12h30.17.864,torte-2b,2020.1.3,Win32,60,14114,1.0208,,,,,,,,,,,,,,,,,,,,,,,,,,,,,,,,,,,,,,,,,,,,,,,,,,,,,,,,,,,,,,,,,
,,,,,,,,,,,,a,Incorrect,0,47,47,93,1,t2.png,t4.png,2,0.059078,52,Female,2020-12-01_12h30.17.864,torte-2b,2020.1.3,Win32,60,14114,1.741825,,,,,,,,,,,,,,,,,,,,,,,,,,,,,,,,,,,,,,,,,,,,,,,,,,,,,,,,,,,,,,,,,
,,,,,,,,,,,,a,Incorrect,0,48,48,0,1,t5.png,t1.png,4,9.55E-11,52,Female,2020-12-01_12h30.17.864,torte-2b,2020.1.3,Win32,60,14114,0.79925,,,,,,,,,,,,,,,,,,,,,,,,,,,,,,,,,,,,,,,,,,,,,,,,,,,,,,,,,,,,,,,,,
,,,,,,,,,,,,l,Correct!,0,49,49,115,1,t2.png,t4.png,2,0.059078,52,Female,2020-12-01_12h30.17.864,torte-2b,2020.1.3,Win32,60,14114,1.101775,,,,,,,,,,,,,,,,,,,,,,,,,,,,,,,,,,,,,,,,,,,,,,,,,,,,,,,,,,,,,,,,,
,,,,,,,,,,,,a,Correct!,0,50,50,41,1,t3.png,t2.png,1,0.90855,52,Female,2020-12-01_12h30.17.864,torte-2b,2020.1.3,Win32,60,14114,0.85342,,,,,,,,,,,,,,,,,,,,,,,,,,,,,,,,,,,,,,,,,,,,,,,,,,,,,,,,,,,,,,,,,
,,,,,,,,,,,,l,Correct!,0,51,51,51,1,t3.png,t1.png,2,0.056466,52,Female,2020-12-01_12h30.17.864,torte-2b,2020.1.3,Win32,60,14114,1.302475,,,,,,,,,,,,,,,,,,,,,,,,,,,,,,,,,,,,,,,,,,,,,,,,,,,,,,,,,,,,,,,,,
,,,,,,,,,,,,,Too slow :(,0,52,52,70,1,t5.png,t5.png,0,0.978,52,Female,2020-12-01_12h30.17.864,torte-2b,2020.1.3,Win32,60,14114,,,,,,,,,,,,,,,,,,,,,,,,,,,,,,,,,,,,,,,,,,,,,,,,,,,,,,,,,,,,,,,,,,
,,,,,,,,,,,,l,Incorrect,0,53,53,45,1,t3.png,t2.png,1,0.90855,52,Female,2020-12-01_12h30.17.864,torte-2b,2020.1.3,Win32,60,14114,1.61811,,,,,,,,,,,,,,,,,,,,,,,,,,,,,,,,,,,,,,,,,,,,,,,,,,,,,,,,,,,,,,,,,
,,,,,,,,,,,,l,Incorrect,0,54,54,8,1,t3.png,t2.png,1,0.90855,52,Female,2020-12-01_12h30.17.864,torte-2b,2020.1.3,Win32,60,14114,1.397555,,,,,,,,,,,,,,,,,,,,,,,,,,,,,,,,,,,,,,,,,,,,,,,,,,,,,,,,,,,,,,,,,
,,,,,,,,,,,,a,Incorrect,0,55,55,94,1,t5.png,t1.png,4,9.55E-11,52,Female,2020-12-01_12h30.17.864,torte-2b,2020.1.3,Win32,60,14114,0.52467,,,,,,,,,,,,,,,,,,,,,,,,,,,,,,,,,,,,,,,,,,,,,,,,,,,,,,,,,,,,,,,,,
,,,,,,,,,,,,l,Incorrect,0,56,56,64,1,t1.png,t1.png,0,0.978,52,Female,2020-12-01_12h30.17.864,torte-2b,2020.1.3,Win32,60,14114,0.78515,,,,,,,,,,,,,,,,,,,,,,,,,,,,,,,,,,,,,,,,,,,,,,,,,,,,,,,,,,,,,,,,,
,,,,,,,,,,,,l,Incorrect,0,57,57,10,1,t2.png,t3.png,1,0.90855,52,Female,2020-12-01_12h30.17.864,torte-2b,2020.1.3,Win32,60,14114,1.45285,,,,,,,,,,,,,,,,,,,,,,,,,,,,,,,,,,,,,,,,,,,,,,,,,,,,,,,,,,,,,,,,,
,,,,,,,,,,,,l,Correct!,0,58,58,57,1,t2.png,t4.png,2,0.059078,52,Female,2020-12-01_12h30.17.864,torte-2b,2020.1.3,Win32,60,14114,1.066565,,,,,,,,,,,,,,,,,,,,,,,,,,,,,,,,,,,,,,,,,,,,,,,,,,,,,,,,,,,,,,,,,
,,,,,,,,,,,,a,Incorrect,0,59,59,102,1,t4.png,t2.png,2,0.059078,52,Female,2020-12-01_12h30.17.864,torte-2b,2020.1.3,Win32,60,14114,0.748195,,,,,,,,,,,,,,,,,,,,,,,,,,,,,,,,,,,,,,,,,,,,,,,,,,,,,,,,,,,,,,,,,
,,,,,,,,,,,,a,Correct!,0,60,60,58,1,t5.png,t4.png,1,0.90025,52,Female,2020-12-01_12h30.17.864,torte-2b,2020.1.3,Win32,60,14114,1.706785,,,,,,,,,,,,,,,,,,,,,,,,,,,,,,,,,,,,,,,,,,,,,,,,,,,,,,,,,,,,,,,,,
,,,,,,,,,,,,l,Incorrect,0,61,61,20,1,t2.png,t3.png,1,0.90855,52,Female,2020-12-01_12h30.17.864,torte-2b,2020.1.3,Win32,60,14114,1.365175,,,,,,,,,,,,,,,,,,,,,,,,,,,,,,,,,,,,,,,,,,,,,,,,,,,,,,,,,,,,,,,,,
,,,,,,,,,,,,a,Correct!,0,62,62,104,1,t2.png,t3.png,1,0.90855,52,Female,2020-12-01_12h30.17.864,torte-2b,2020.1.3,Win32,60,14114,1.29492,,,,,,,,,,,,,,,,,,,,,,,,,,,,,,,,,,,,,,,,,,,,,,,,,,,,,,,,,,,,,,,,,
,,,,,,,,,,,,l,Correct!,0,63,63,4,1,t1.png,t5.png,4,9.55E-11,52,Female,2020-12-01_12h30.17.864,torte-2b,2020.1.3,Win32,60,14114,1.039245,,,,,,,,,,,,,,,,,,,,,,,,,,,,,,,,,,,,,,,,,,,,,,,,,,,,,,,,,,,,,,,,,
,,,,,,,,,,,,a,Incorrect,0,64,64,108,1,t5.png,t1.png,4,9.55E-11,52,Female,2020-12-01_12h30.17.864,torte-2b,2020.1.3,Win32,60,14114,0.78825,,,,,,,,,,,,,,,,,,,,,,,,,,,,,,,,,,,,,,,,,,,,,,,,,,,,,,,,,,,,,,,,,
,,,,,,,,,,,,a,Incorrect,0,65,65,12,1,t5.png,t1.png,4,9.55E-11,52,Female,2020-12-01_12h30.17.864,torte-2b,2020.1.3,Win32,60,14114,1.748405,,,,,,,,,,,,,,,,,,,,,,,,,,,,,,,,,,,,,,,,,,,,,,,,,,,,,,,,,,,,,,,,,
,,,,,,,,,,,,l,Incorrect,0,66,66,101,1,t4.png,t5.png,1,0.90025,52,Female,2020-12-01_12h30.17.864,torte-2b,2020.1.3,Win32,60,14114,1.097385,,,,,,,,,,,,,,,,,,,,,,,,,,,,,,,,,,,,,,,,,,,,,,,,,,,,,,,,,,,,,,,,,
,,,,,,,,,,,,a,Incorrect,0,67,67,103,1,t3.png,t1.png,2,0.056466,52,Female,2020-12-01_12h30.17.864,torte-2b,2020.1.3,Win32,60,14114,0.8492,,,,,,,,,,,,,,,,,,,,,,,,,,,,,,,,,,,,,,,,,,,,,,,,,,,,,,,,,,,,,,,,,
,,,,,,,,,,,,a,Correct!,0,68,68,39,1,t3.png,t2.png,1,0.90855,52,Female,2020-12-01_12h30.17.864,torte-2b,2020.1.3,Win32,60,14114,1.12306,,,,,,,,,,,,,,,,,,,,,,,,,,,,,,,,,,,,,,,,,,,,,,,,,,,,,,,,,,,,,,,,,
,,,,,,,,,,,,a,Correct!,0,69,69,75,1,t1.png,t1.png,0,0.97829,52,Female,2020-12-01_12h30.17.864,torte-2b,2020.1.3,Win32,60,14114,1.26457,,,,,,,,,,,,,,,,,,,,,,,,,,,,,,,,,,,,,,,,,,,,,,,,,,,,,,,,,,,,,,,,,
,,,,,,,,,,,,l,Correct!,0,70,70,14,1,t2.png,t4.png,2,0.059078,52,Female,2020-12-01_12h30.17.864,torte-2b,2020.1.3,Win32,60,14114,1.20017,,,,,,,,,,,,,,,,,,,,,,,,,,,,,,,,,,,,,,,,,,,,,,,,,,,,,,,,,,,,,,,,,
,,,,,,,,,,,,l,Incorrect,0,71,71,107,1,t1.png,t1.png,0,0.978,52,Female,2020-12-01_12h30.17.864,torte-2b,2020.1.3,Win32,60,14114,1.247745,,,,,,,,,,,,,,,,,,,,,,,,,,,,,,,,,,,,,,,,,,,,,,,,,,,,,,,,,,,,,,,,,
,,,,,,,,,,,,l,Incorrect,0,72,72,63,1,t2.png,t3.png,1,0.909,52,Female,2020-12-01_12h30.17.864,torte-2b,2020.1.3,Win32,60,14114,1.131575,,,,,,,,,,,,,,,,,,,,,,,,,,,,,,,,,,,,,,,,,,,,,,,,,,,,,,,,,,,,,,,,,
,,,,,,,,,,,,l,Correct!,0,73,73,5,1,t2.png,t4.png,2,0.059078,52,Female,2020-12-01_12h30.17.864,torte-2b,2020.1.3,Win32,60,14114,1.06503,,,,,,,,,,,,,,,,,,,,,,,,,,,,,,,,,,,,,,,,,,,,,,,,,,,,,,,,,,,,,,,,,
,,,,,,,,,,,,a,Incorrect,0,74,74,47,1,t4.png,t2.png,2,0.059078,52,Female,2020-12-01_12h30.17.864,torte-2b,2020.1.3,Win32,60,14114,0.88944,,,,,,,,,,,,,,,,,,,,,,,,,,,,,,,,,,,,,,,,,,,,,,,,,,,,,,,,,,,,,,,,,
,,,,,,,,,,,,l,Correct!,0,75,75,3,1,t1.png,t5.png,4,9.55E-11,52,Female,2020-12-01_12h30.17.864,torte-2b,2020.1.3,Win32,60,14114,0.90651,,,,,,,,,,,,,,,,,,,,,,,,,,,,,,,,,,,,,,,,,,,,,,,,,,,,,,,,,,,,,,,,,
,,,,,,,,,,,,a,Incorrect,0,76,76,53,1,t3.png,t1.png,2,0.056466,52,Female,2020-12-01_12h30.17.864,torte-2b,2020.1.3,Win32,60,14114,1.130185,,,,,,,,,,,,,,,,,,,,,,,,,,,,,,,,,,,,,,,,,,,,,,,,,,,,,,,,,,,,,,,,,
,,,,,,,,,,,,a,Incorrect,0,77,77,30,1,t3.png,t1.png,2,0.056466,52,Female,2020-12-01_12h30.17.864,torte-2b,2020.1.3,Win32,60,14114,1.851655,,,,,,,,,,,,,,,,,,,,,,,,,,,,,,,,,,,,,,,,,,,,,,,,,,,,,,,,,,,,,,,,,
,,,,,,,,,,,,a,Correct!,0,78,78,65,1,t4.png,t5.png,1,0.90025,52,Female,2020-12-01_12h30.17.864,torte-2b,2020.1.3,Win32,60,14114,1.938745,,,,,,,,,,,,,,,,,,,,,,,,,,,,,,,,,,,,,,,,,,,,,,,,,,,,,,,,,,,,,,,,,
,,,,,,,,,,,,l,Incorrect,0,79,79,66,1,t4.png,t5.png,1,0.9,52,Female,2020-12-01_12h30.17.864,torte-2b,2020.1.3,Win32,60,14114,1.13407,,,,,,,,,,,,,,,,,,,,,,,,,,,,,,,,,,,,,,,,,,,,,,,,,,,,,,,,,,,,,,,,,
,,,,,,,,,,,,l,Correct!,0,80,80,80,1,t1.png,t4.png,3,0.0000131,52,Female,2020-12-01_12h30.17.864,torte-2b,2020.1.3,Win32,60,14114,0.78407,,,,,,,,,,,,,,,,,,,,,,,,,,,,,,,,,,,,,,,,,,,,,,,,,,,,,,,,,,,,,,,,,
,,,,,,,,,,,,l,Correct!,0,81,81,17,1,t1.png,t4.png,3,0.0000131,52,Female,2020-12-01_12h30.17.864,torte-2b,2020.1.3,Win32,60,14114,0.71909,,,,,,,,,,,,,,,,,,,,,,,,,,,,,,,,,,,,,,,,,,,,,,,,,,,,,,,,,,,,,,,,,
,,,,,,,,,,,,a,Incorrect,0,82,82,36,1,t3.png,t1.png,2,0.0565,52,Female,2020-12-01_12h30.17.864,torte-2b,2020.1.3,Win32,60,14114,0.726275,,,,,,,,,,,,,,,,,,,,,,,,,,,,,,,,,,,,,,,,,,,,,,,,,,,,,,,,,,,,,,,,,
,,,,,,,,,,,,a,Incorrect,0,83,83,50,1,t5.png,t1.png,4,9.55E-11,52,Female,2020-12-01_12h30.17.864,torte-2b,2020.1.3,Win32,60,14114,0.797365,,,,,,,,,,,,,,,,,,,,,,,,,,,,,,,,,,,,,,,,,,,,,,,,,,,,,,,,,,,,,,,,,
,,,,,,,,,,,,a,Incorrect,0,84,84,46,1,t4.png,t2.png,2,0.059078,52,Female,2020-12-01_12h30.17.864,torte-2b,2020.1.3,Win32,60,14114,2.42605,,,,,,,,,,,,,,,,,,,,,,,,,,,,,,,,,,,,,,,,,,,,,,,,,,,,,,,,,,,,,,,,,
,,,,,,,,,,,,l,Correct!,0,85,85,40,1,t1.png,t5.png,4,9.55E-11,52,Female,2020-12-01_12h30.17.864,torte-2b,2020.1.3,Win32,60,14114,0.58153,,,,,,,,,,,,,,,,,,,,,,,,,,,,,,,,,,,,,,,,,,,,,,,,,,,,,,,,,,,,,,,,,
,,,,,,,,,,,,a,Incorrect,0,86,86,23,1,t5.png,t4.png,1,0.90025,52,Female,2020-12-01_12h30.17.864,torte-2b,2020.1.3,Win32,60,14114,1.085915,,,,,,,,,,,,,,,,,,,,,,,,,,,,,,,,,,,,,,,,,,,,,,,,,,,,,,,,,,,,,,,,,
,,,,,,,,,,,,l,Incorrect,0,87,87,81,1,t1.png,t1.png,0,0.97829,52,Female,2020-12-01_12h30.17.864,torte-2b,2020.1.3,Win32,60,14114,0.74953,,,,,,,,,,,,,,,,,,,,,,,,,,,,,,,,,,,,,,,,,,,,,,,,,,,,,,,,,,,,,,,,,
,,,,,,,,,,,,a,Correct!,0,88,88,79,1,t3.png,t2.png,1,0.909,52,Female,2020-12-01_12h30.17.864,torte-2b,2020.1.3,Win32,60,14114,0.71731,,,,,,,,,,,,,,,,,,,,,,,,,,,,,,,,,,,,,,,,,,,,,,,,,,,,,,,,,,,,,,,,,
,,,,,,,,,,,,l,Correct!,0,89,89,11,1,t1.png,t4.png,3,0.0000131,52,Female,2020-12-01_12h30.17.864,torte-2b,2020.1.3,Win32,60,14114,1.148885,,,,,,,,,,,,,,,,,,,,,,,,,,,,,,,,,,,,,,,,,,,,,,,,,,,,,,,,,,,,,,,,,
,,,,,,,,,,,,l,Incorrect,0,90,90,15,1,t3.png,t2.png,1,0.90855,52,Female,2020-12-01_12h30.17.864,torte-2b,2020.1.3,Win32,60,14114,1.3688,,,,,,,,,,,,,,,,,,,,,,,,,,,,,,,,,,,,,,,,,,,,,,,,,,,,,,,,,,,,,,,,,
,,,,,,,,,,,,a,Correct!,0,91,91,62,1,t5.png,t5.png,0,0.978,52,Female,2020-12-01_12h30.17.864,torte-2b,2020.1.3,Win32,60,14114,0.907495,,,,,,,,,,,,,,,,,,,,,,,,,,,,,,,,,,,,,,,,,,,,,,,,,,,,,,,,,,,,,,,,,
,,,,,,,,,,,,a,Incorrect,0,92,92,91,1,t1.png,t4.png,3,0.0000131,52,Female,2020-12-01_12h30.17.864,torte-2b,2020.1.3,Win32,60,14114,1.86503,,,,,,,,,,,,,,,,,,,,,,,,,,,,,,,,,,,,,,,,,,,,,,,,,,,,,,,,,,,,,,,,,
,,,,,,,,,,,,a,Correct!,0,93,93,59,1,t5.png,t4.png,1,0.9,52,Female,2020-12-01_12h30.17.864,torte-2b,2020.1.3,Win32,60,14114,1.32613,,,,,,,,,,,,,,,,,,,,,,,,,,,,,,,,,,,,,,,,,,,,,,,,,,,,,,,,,,,,,,,,,
,,,,,,,,,,,,l,Correct!,0,94,94,19,1,t4.png,t2.png,2,0.059078,52,Female,2020-12-01_12h30.17.864,torte-2b,2020.1.3,Win32,60,14114,1.63157,,,,,,,,,,,,,,,,,,,,,,,,,,,,,,,,,,,,,,,,,,,,,,,,,,,,,,,,,,,,,,,,,
,,,,,,,,,,,,l,Incorrect,0,95,95,78,1,t1.png,t1.png,0,0.978,52,Female,2020-12-01_12h30.17.864,torte-2b,2020.1.3,Win32,60,14114,2.13126,,,,,,,,,,,,,,,,,,,,,,,,,,,,,,,,,,,,,,,,,,,,,,,,,,,,,,,,,,,,,,,,,
,,,,,,,,,,,,a,Correct!,0,96,96,84,1,t1.png,t1.png,0,0.97829,52,Female,2020-12-01_12h30.17.864,torte-2b,2020.1.3,Win32,60,14114,0.82179,,,,,,,,,,,,,,,,,,,,,,,,,,,,,,,,,,,,,,,,,,,,,,,,,,,,,,,,,,,,,,,,,
,,,,,,,,,,,,a,Correct!,0,97,97,97,1,t5.png,t5.png,0,0.97829,52,Female,2020-12-01_12h30.17.864,torte-2b,2020.1.3,Win32,60,14114,1.31446,,,,,,,,,,,,,,,,,,,,,,,,,,,,,,,,,,,,,,,,,,,,,,,,,,,,,,,,,,,,,,,,,
,,,,,,,,,,,,a,Correct!,0,98,98,95,1,t1.png,t1.png,0,0.978,52,Female,2020-12-01_12h30.17.864,torte-2b,2020.1.3,Win32,60,14114,0.91501,,,,,,,,,,,,,,,,,,,,,,,,,,,,,,,,,,,,,,,,,,,,,,,,,,,,,,,,,,,,,,,,,
,,,,,,,,,,,,a,Correct!,0,99,99,112,1,t1.png,t1.png,0,0.97829,52,Female,2020-12-01_12h30.17.864,torte-2b,2020.1.3,Win32,60,14114,0.648285,,,,,,,,,,,,,,,,,,,,,,,,,,,,,,,,,,,,,,,,,,,,,,,,,,,,,,,,,,,,,,,,,
,,,,,,,,,,,,l,Correct!,0,100,100,55,1,t2.png,t4.png,2,0.059078,52,Female,2020-12-01_12h30.17.864,torte-2b,2020.1.3,Win32,60,14114,1.11449,,,,,,,,,,,,,,,,,,,,,,,,,,,,,,,,,,,,,,,,,,,,,,,,,,,,,,,,,,,,,,,,,
,,,,,,,,,,,,l,Incorrect,0,101,101,110,1,t4.png,t5.png,1,0.90025,52,Female,2020-12-01_12h30.17.864,torte-2b,2020.1.3,Win32,60,14114,1.44081,,,,,,,,,,,,,,,,,,,,,,,,,,,,,,,,,,,,,,,,,,,,,,,,,,,,,,,,,,,,,,,,,
,,,,,,,,,,,,l,Correct!,0,102,102,54,1,t1.png,t5.png,4,9.55E-11,52,Female,2020-12-01_12h30.17.864,torte-2b,2020.1.3,Win32,60,14114,1.672425,,,,,,,,,,,,,,,,,,,,,,,,,,,,,,,,,,,,,,,,,,,,,,,,,,,,,,,,,,,,,,,,,
,,,,,,,,,,,,a,Incorrect,0,103,103,82,1,t5.png,t1.png,4,9.55E-11,52,Female,2020-12-01_12h30.17.864,torte-2b,2020.1.3,Win32,60,14114,1.034775,,,,,,,,,,,,,,,,,,,,,,,,,,,,,,,,,,,,,,,,,,,,,,,,,,,,,,,,,,,,,,,,,
,,,,,,,,,,,,a,Correct!,0,104,104,25,1,t5.png,t5.png,0,0.97829,52,Female,2020-12-01_12h30.17.864,torte-2b,2020.1.3,Win32,60,14114,1.432465,,,,,,,,,,,,,,,,,,,,,,,,,,,,,,,,,,,,,,,,,,,,,,,,,,,,,,,,,,,,,,,,,
,,,,,,,,,,,,a,Incorrect,0,105,105,24,1,t4.png,t2.png,2,0.059078,52,Female,2020-12-01_12h30.17.864,torte-2b,2020.1.3,Win32,60,14114,1.22089,,,,,,,,,,,,,,,,,,,,,,,,,,,,,,,,,,,,,,,,,,,,,,,,,,,,,,,,,,,,,,,,,
,,,,,,,,,,,,l,Correct!,0,106,106,56,1,t5.png,t1.png,4,9.55E-11,52,Female,2020-12-01_12h30.17.864,torte-2b,2020.1.3,Win32,60,14114,1.2347,,,,,,,,,,,,,,,,,,,,,,,,,,,,,,,,,,,,,,,,,,,,,,,,,,,,,,,,,,,,,,,,,
,,,,,,,,,,,,l,Correct!,0,107,107,60,1,t2.png,t4.png,2,0.059078,52,Female,2020-12-01_12h30.17.864,torte-2b,2020.1.3,Win32,60,14114,2.07312,,,,,,,,,,,,,,,,,,,,,,,,,,,,,,,,,,,,,,,,,,,,,,,,,,,,,,,,,,,,,,,,,
,,,,,,,,,,,,l,Correct!,0,108,108,16,1,t5.png,t4.png,1,0.9,52,Female,2020-12-01_12h30.17.864,torte-2b,2020.1.3,Win32,60,14114,1.072515,,,,,,,,,,,,,,,,,,,,,,,,,,,,,,,,,,,,,,,,,,,,,,,,,,,,,,,,,,,,,,,,,
,,,,,,,,,,,,l,Incorrect,0,109,109,71,1,t5.png,t5.png,0,0.97829,52,Female,2020-12-01_12h30.17.864,torte-2b,2020.1.3,Win32,60,14114,0.97511,,,,,,,,,,,,,,,,,,,,,,,,,,,,,,,,,,,,,,,,,,,,,,,,,,,,,,,,,,,,,,,,,
,,,,,,,,,,,,l,Correct!,0,110,110,67,1,t1.png,t5.png,4,9.55E-11,52,Female,2020-12-01_12h30.17.864,torte-2b,2020.1.3,Win32,60,14114,1.537035,,,,,,,,,,,,,,,,,,,,,,,,,,,,,,,,,,,,,,,,,,,,,,,,,,,,,,,,,,,,,,,,,
,,,,,,,,,,,,l,Correct!,0,111,111,119,1,t1.png,t5.png,4,9.55E-11,52,Female,2020-12-01_12h30.17.864,torte-2b,2020.1.3,Win32,60,14114,0.84937,,,,,,,,,,,,,,,,,,,,,,,,,,,,,,,,,,,,,,,,,,,,,,,,,,,,,,,,,,,,,,,,,
,,,,,,,,,,,,l,Correct!,0,112,112,69,1,t4.png,t2.png,2,0.059078,52,Female,2020-12-01_12h30.17.864,torte-2b,2020.1.3,Win32,60,14114,0.773335,,,,,,,,,,,,,,,,,,,,,,,,,,,,,,,,,,,,,,,,,,,,,,,,,,,,,,,,,,,,,,,,,
,,,,,,,,,,,,a,Correct!,0,113,113,13,1,t5.png,t5.png,0,0.97829,52,Female,2020-12-01_12h30.17.864,torte-2b,2020.1.3,Win32,60,14114,0.85537,,,,,,,,,,,,,,,,,,,,,,,,,,,,,,,,,,,,,,,,,,,,,,,,,,,,,,,,,,,,,,,,,
,,,,,,,,,,,,l,Correct!,0,114,114,87,1,t5.png,t1.png,4,9.55E-11,52,Female,2020-12-01_12h30.17.864,torte-2b,2020.1.3,Win32,60,14114,0.97897,,,,,,,,,,,,,,,,,,,,,,,,,,,,,,,,,,,,,,,,,,,,,,,,,,,,,,,,,,,,,,,,,
,,,,,,,,,,,,l,Correct!,0,115,115,90,1,t1.png,t5.png,4,9.55E-11,52,Female,2020-12-01_12h30.17.864,torte-2b,2020.1.3,Win32,60,14114,1.551855,,,,,,,,,,,,,,,,,,,,,,,,,,,,,,,,,,,,,,,,,,,,,,,,,,,,,,,,,,,,,,,,,
,,,,,,,,,,,,l,Correct!,0,116,116,88,1,t3.png,t1.png,2,0.056466,52,Female,2020-12-01_12h30.17.864,torte-2b,2020.1.3,Win32,60,14114,1.13132,,,,,,,,,,,,,,,,,,,,,,,,,,,,,,,,,,,,,,,,,,,,,,,,,,,,,,,,,,,,,,,,,
,,,,,,,,,,,,l,Correct!,0,117,117,98,1,t2.png,t4.png,2,0.0591,52,Female,2020-12-01_12h30.17.864,torte-2b,2020.1.3,Win32,60,14114,1.03244,,,,,,,,,,,,,,,,,,,,,,,,,,,,,,,,,,,,,,,,,,,,,,,,,,,,,,,,,,,,,,,,,
,,,,,,,,,,,,l,Correct!,0,118,118,1,1,t2.png,t4.png,2,0.059078,52,Female,2020-12-01_12h30.17.864,torte-2b,2020.1.3,Win32,60,14114,1.7393,,,,,,,,,,,,,,,,,,,,,,,,,,,,,,,,,,,,,,,,,,,,,,,,,,,,,,,,,,,,,,,,,
,,,,,,,,,,,,l,Correct!,0,119,119,52,1,t2.png,t4.png,2,0.059078,52,Female,2020-12-01_12h30.17.864,torte-2b,2020.1.3,Win32,60,14114,1.31625,,,,,,,,,,,,,,,,,,,,,,,,,,,,,,,,,,,,,,,,,,,,,,,,,,,,,,,,,,,,,,,,,
,,,,,,,,,,,,,Too slow :(,,,,,,t2.png,t4.png,2,0.059078,52,Female,2020-12-01_12h30.17.864,torte-2b,2020.1.3,Win32,60,14114,,l,2.06467,j,23.23789,0,0,0,77,1,,,,,,,,,,,,,,,,,,,,,,,,,,,,,,,,,,,,,,,,,,,,,,,,,,,,,,,,
,,,,,,,,,,,,l,Correct!,,,,,,t1.png,t5.png,4,9.55E-11,52,Female,2020-12-01_12h30.17.864,torte-2b,2020.1.3,Win32,60,14114,2.342165,,,,,0,1,1,16,1,,,,,,,,,,,,,,,,,,,,,,,,,,,,,,,,,,,,,,,,,,,,,,,,,,,,,,,,
,,,,,,,,,,,,l,Correct!,,,,,,t3.png,t1.png,2,0.056466,52,Female,2020-12-01_12h30.17.864,torte-2b,2020.1.3,Win32,60,14114,1.958125,,,,,0,2,2,29,1,,,,,,,,,,,,,,,,,,,,,,,,,,,,,,,,,,,,,,,,,,,,,,,,,,,,,,,,
,,,,,,,,,,,,l,Incorrect,,,,,,t3.png,t2.png,1,0.909,52,Female,2020-12-01_12h30.17.864,torte-2b,2020.1.3,Win32,60,14114,2.35052,,,,,0,3,3,3,1,,,,,,,,,,,,,,,,,,,,,,,,,,,,,,,,,,,,,,,,,,,,,,,,,,,,,,,,
,,,,,,,,,,,,,Too slow :(,,,,,,t5.png,t3.png,2,0.056466,52,Female,2020-12-01_12h30.17.864,torte-2b,2020.1.3,Win32,60,14114,,,,,,0,4,4,108,1,,,,,,,,,,,,,,,,,,,,,,,,,,,,,,,,,,,,,,,,,,,,,,,,,,,,,,,,
,,,,,,,,,,,,l,Incorrect,,,,,,t2.png,t2.png,0,0.98115,52,Female,2020-12-01_12h30.17.864,torte-2b,2020.1.3,Win32,60,14114,1.224195,,,,,0,5,5,7,1,,,,,,,,,,,,,,,,,,,,,,,,,,,,,,,,,,,,,,,,,,,,,,,,,,,,,,,,
,,,,,,,,,,,,l,Incorrect,,,,,,t2.png,t1.png,1,0.90025,52,Female,2020-12-01_12h30.17.864,torte-2b,2020.1.3,Win32,60,14114,1.081935,,,,,0,6,6,62,1,,,,,,,,,,,,,,,,,,,,,,,,,,,,,,,,,,,,,,,,,,,,,,,,,,,,,,,,
,,,,,,,,,,,,,Too slow :(,,,,,,t5.png,t4.png,1,0.9,52,Female,2020-12-01_12h30.17.864,torte-2b,2020.1.3,Win32,60,14114,,,,,,0,7,7,49,1,,,,,,,,,,,,,,,,,,,,,,,,,,,,,,,,,,,,,,,,,,,,,,,,,,,,,,,,
,,,,,,,,,,,,l,Correct!,,,,,,t5.png,t1.png,4,9.55E-11,52,Female,2020-12-01_12h30.17.864,torte-2b,2020.1.3,Win32,60,14114,1.117565,,,,,0,8,8,102,1,,,,,,,,,,,,,,,,,,,,,,,,,,,,,,,,,,,,,,,,,,,,,,,,,,,,,,,,
,,,,,,,,,,,,l,Correct!,,,,,,t2.png,t5.png,3,0.0000131,52,Female,2020-12-01_12h30.17.864,torte-2b,2020.1.3,Win32,60,14114,1.13267,,,,,0,9,9,95,1,,,,,,,,,,,,,,,,,,,,,,,,,,,,,,,,,,,,,,,,,,,,,,,,,,,,,,,,
,,,,,,,,,,,,l,Correct!,,,,,,t1.png,t5.png,4,9.55E-11,52,Female,2020-12-01_12h30.17.864,torte-2b,2020.1.3,Win32,60,14114,0.815295,,,,,0,10,10,85,1,,,,,,,,,,,,,,,,,,,,,,,,,,,,,,,,,,,,,,,,,,,,,,,,,,,,,,,,
,,,,,,,,,,,,l,Correct!,,,,,,t5.png,t2.png,3,0.0000131,52,Female,2020-12-01_12h30.17.864,torte-2b,2020.1.3,Win32,60,14114,0.99121,,,,,0,11,11,116,1,,,,,,,,,,,,,,,,,,,,,,,,,,,,,,,,,,,,,,,,,,,,,,,,,,,,,,,,
,,,,,,,,,,,,l,Incorrect,,,,,,t4.png,t2.png,2,0.059078,52,Female,2020-12-01_12h30.17.864,torte-2b,2020.1.3,Win32,60,14114,1.081675,,,,,0,12,12,109,1,,,,,,,,,,,,,,,,,,,,,,,,,,,,,,,,,,,,,,,,,,,,,,,,,,,,,,,,
,,,,,,,,,,,,l,Correct!,,,,,,t5.png,t2.png,3,0.0000131,52,Female,2020-12-01_12h30.17.864,torte-2b,2020.1.3,Win32,60,14114,0.84222,,,,,0,13,13,91,1,,,,,,,,,,,,,,,,,,,,,,,,,,,,,,,,,,,,,,,,,,,,,,,,,,,,,,,,
,,,,,,,,,,,,l,Correct!,,,,,,t2.png,t4.png,2,0.0591,52,Female,2020-12-01_12h30.17.864,torte-2b,2020.1.3,Win32,60,14114,1.01906,,,,,0,14,14,15,1,,,,,,,,,,,,,,,,,,,,,,,,,,,,,,,,,,,,,,,,,,,,,,,,,,,,,,,,
,,,,,,,,,,,,l,Incorrect,,,,,,t2.png,t1.png,1,0.90025,52,Female,2020-12-01_12h30.17.864,torte-2b,2020.1.3,Win32,60,14114,0.86827,,,,,0,15,15,4,1,,,,,,,,,,,,,,,,,,,,,,,,,,,,,,,,,,,,,,,,,,,,,,,,,,,,,,,,
,,,,,,,,,,,,l,Correct!,,,,,,t3.png,t1.png,2,0.0565,52,Female,2020-12-01_12h30.17.864,torte-2b,2020.1.3,Win32,60,14114,0.780165,,,,,0,16,16,31,1,,,,,,,,,,,,,,,,,,,,,,,,,,,,,,,,,,,,,,,,,,,,,,,,,,,,,,,,
,,,,,,,,,,,,l,Incorrect,,,,,,t1.png,t1.png,0,0.97829,52,Female,2020-12-01_12h30.17.864,torte-2b,2020.1.3,Win32,60,14114,0.83719,,,,,0,17,17,67,1,,,,,,,,,,,,,,,,,,,,,,,,,,,,,,,,,,,,,,,,,,,,,,,,,,,,,,,,
,,,,,,,,,,,,l,Correct!,,,,,,t2.png,t1.png,1,0.9,52,Female,2020-12-01_12h30.17.864,torte-2b,2020.1.3,Win32,60,14114,0.901885,,,,,0,18,18,118,1,,,,,,,,,,,,,,,,,,,,,,,,,,,,,,,,,,,,,,,,,,,,,,,,,,,,,,,,
,,,,,,,,,,,,l,Incorrect,,,,,,t1.png,t1.png,0,0.97829,52,Female,2020-12-01_12h30.17.864,torte-2b,2020.1.3,Win32,60,14114,0.69218,,,,,0,19,19,9,1,,,,,,,,,,,,,,,,,,,,,,,,,,,,,,,,,,,,,,,,,,,,,,,,,,,,,,,,
,,,,,,,,,,,,l,Incorrect,,,,,,t5.png,t5.png,0,0.97829,52,Female,2020-12-01_12h30.17.864,torte-2b,2020.1.3,Win32,60,14114,1.624395,,,,,0,20,20,73,1,,,,,,,,,,,,,,,,,,,,,,,,,,,,,,,,,,,,,,,,,,,,,,,,,,,,,,,,
,,,,,,,,,,,,,Too slow :(,,,,,,t4.png,t2.png,2,0.059078,52,Female,2020-12-01_12h30.17.864,torte-2b,2020.1.3,Win32,60,14114,,,,,,0,21,21,86,1,,,,,,,,,,,,,,,,,,,,,,,,,,,,,,,,,,,,,,,,,,,,,,,,,,,,,,,,
,,,,,,,,,,,,l,Incorrect,,,,,,t4.png,t5.png,1,0.9,52,Female,2020-12-01_12h30.17.864,torte-2b,2020.1.3,Win32,60,14114,2.04072,,,,,0,22,22,115,1,,,,,,,,,,,,,,,,,,,,,,,,,,,,,,,,,,,,,,,,,,,,,,,,,,,,,,,,
,,,,,,,,,,,,l,Correct!,,,,,,t4.png,t2.png,2,0.0591,52,Female,2020-12-01_12h30.17.864,torte-2b,2020.1.3,Win32,60,14114,1.3317,,,,,0,23,23,36,1,,,,,,,,,,,,,,,,,,,,,,,,,,,,,,,,,,,,,,,,,,,,,,,,,,,,,,,,
,,,,,,,,,,,,l,Correct!,,,,,,t4.png,t1.png,3,0.0000131,52,Female,2020-12-01_12h30.17.864,torte-2b,2020.1.3,Win32,60,14114,1.048305,,,,,0,24,24,48,1,,,,,,,,,,,,,,,,,,,,,,,,,,,,,,,,,,,,,,,,,,,,,,,,,,,,,,,,
,,,,,,,,,,,,,Too slow :(,,,,,,t5.png,t2.png,3,0.0000131,52,Female,2020-12-01_12h30.17.864,torte-2b,2020.1.3,Win32,60,14114,,,,,,0,25,25,119,1,,,,,,,,,,,,,,,,,,,,,,,,,,,,,,,,,,,,,,,,,,,,,,,,,,,,,,,,
,,,,,,,,,,,,,Too slow :(,,,,,,t2.png,t5.png,3,0.0000131,52,Female,2020-12-01_12h30.17.864,torte-2b,2020.1.3,Win32,60,14114,,,,,,0,26,26,40,1,,,,,,,,,,,,,,,,,,,,,,,,,,,,,,,,,,,,,,,,,,,,,,,,,,,,,,,,
,,,,,,,,,,,,l,Correct!,,,,,,t2.png,t5.png,3,0.0000131,52,Female,2020-12-01_12h30.17.864,torte-2b,2020.1.3,Win32,60,14114,0.84835,,,,,0,27,27,104,1,,,,,,,,,,,,,,,,,,,,,,,,,,,,,,,,,,,,,,,,,,,,,,,,,,,,,,,,
,,,,,,,,,,,,l,Incorrect,,,,,,t4.png,t3.png,1,0.90855,52,Female,2020-12-01_12h30.17.864,torte-2b,2020.1.3,Win32,60,14114,2.231115,,,,,0,28,28,45,1,,,,,,,,,,,,,,,,,,,,,,,,,,,,,,,,,,,,,,,,,,,,,,,,,,,,,,,,
,,,,,,,,,,,,a,Incorrect,,,,,,t5.png,t2.png,3,0.0000131,52,Female,2020-12-01_12h30.17.864,torte-2b,2020.1.3,Win32,60,14114,1.28653,,,,,0,29,29,98,1,,,,,,,,,,,,,,,,,,,,,,,,,,,,,,,,,,,,,,,,,,,,,,,,,,,,,,,,
,,,,,,,,,,,,l,Incorrect,,,,,,t2.png,t2.png,0,0.981,52,Female,2020-12-01_12h30.17.864,torte-2b,2020.1.3,Win32,60,14114,1.364945,,,,,0,30,30,101,1,,,,,,,,,,,,,,,,,,,,,,,,,,,,,,,,,,,,,,,,,,,,,,,,,,,,,,,,
,,,,,,,,,,,,,Too slow :(,,,,,,t1.png,t3.png,2,0.056466,52,Female,2020-12-01_12h30.17.864,torte-2b,2020.1.3,Win32,60,14114,,,,,,0,31,31,87,1,,,,,,,,,,,,,,,,,,,,,,,,,,,,,,,,,,,,,,,,,,,,,,,,,,,,,,,,
,,,,,,,,,,,,l,Correct!,,,,,,t4.png,t1.png,3,0.0000131,52,Female,2020-12-01_12h30.17.864,torte-2b,2020.1.3,Win32,60,14114,2.447795,,,,,0,32,32,61,1,,,,,,,,,,,,,,,,,,,,,,,,,,,,,,,,,,,,,,,,,,,,,,,,,,,,,,,,
,,,,,,,,,,,,l,Incorrect,,,,,,t1.png,t2.png,1,0.90025,52,Female,2020-12-01_12h30.17.864,torte-2b,2020.1.3,Win32,60,14114,0.817105,,,,,0,33,33,112,1,,,,,,,,,,,,,,,,,,,,,,,,,,,,,,,,,,,,,,,,,,,,,,,,,,,,,,,,
,,,,,,,,,,,,l,Incorrect,,,,,,t2.png,t2.png,0,0.98115,52,Female,2020-12-01_12h30.17.864,torte-2b,2020.1.3,Win32,60,14114,0.849155,,,,,0,34,34,57,1,,,,,,,,,,,,,,,,,,,,,,,,,,,,,,,,,,,,,,,,,,,,,,,,,,,,,,,,
,,,,,,,,,,,,l,Incorrect,,,,,,t3.png,t2.png,1,0.909,52,Female,2020-12-01_12h30.17.864,torte-2b,2020.1.3,Win32,60,14114,0.990565,,,,,0,35,35,23,1,,,,,,,,,,,,,,,,,,,,,,,,,,,,,,,,,,,,,,,,,,,,,,,,,,,,,,,,
,,,,,,,,,,,,l,Correct!,,,,,,t3.png,t1.png,2,0.056466,52,Female,2020-12-01_12h30.17.864,torte-2b,2020.1.3,Win32,60,14114,1.03189,,,,,0,36,36,0,1,,,,,,,,,,,,,,,,,,,,,,,,,,,,,,,,,,,,,,,,,,,,,,,,,,,,,,,,
,,,,,,,,,,,,a,Correct!,,,,,,t4.png,t4.png,0,0.98115,52,Female,2020-12-01_12h30.17.864,torte-2b,2020.1.3,Win32,60,14114,1.18899,,,,,0,37,37,21,1,,,,,,,,,,,,,,,,,,,,,,,,,,,,,,,,,,,,,,,,,,,,,,,,,,,,,,,,
,,,,,,,,,,,,l,Incorrect,,,,,,t4.png,t3.png,1,0.909,52,Female,2020-12-01_12h30.17.864,torte-2b,2020.1.3,Win32,60,14114,2.38108,,,,,0,38,38,46,1,,,,,,,,,,,,,,,,,,,,,,,,,,,,,,,,,,,,,,,,,,,,,,,,,,,,,,,,
,,,,,,,,,,,,l,Correct!,,,,,,t5.png,t1.png,4,9.55E-11,52,Female,2020-12-01_12h30.17.864,torte-2b,2020.1.3,Win32,60,14114,1.35587,,,,,0,39,39,22,1,,,,,,,,,,,,,,,,,,,,,,,,,,,,,,,,,,,,,,,,,,,,,,,,,,,,,,,,
,,,,,,,,,,,,l,Correct!,,,,,,t3.png,t5.png,2,0.056466,52,Female,2020-12-01_12h30.17.864,torte-2b,2020.1.3,Win32,60,14114,1.797905,,,,,0,40,40,14,1,,,,,,,,,,,,,,,,,,,,,,,,,,,,,,,,,,,,,,,,,,,,,,,,,,,,,,,,
,,,,,,,,,,,,l,Correct!,,,,,,t2.png,t4.png,2,0.059078,52,Female,2020-12-01_12h30.17.864,torte-2b,2020.1.3,Win32,60,14114,0.76802,,,,,0,41,41,24,1,,,,,,,,,,,,,,,,,,,,,,,,,,,,,,,,,,,,,,,,,,,,,,,,,,,,,,,,
,,,,,,,,,,,,l,Correct!,,,,,,t1.png,t5.png,4,9.55E-11,52,Female,2020-12-01_12h30.17.864,torte-2b,2020.1.3,Win32,60,14114,1.034905,,,,,0,42,42,55,1,,,,,,,,,,,,,,,,,,,,,,,,,,,,,,,,,,,,,,,,,,,,,,,,,,,,,,,,
,,,,,,,,,,,,l,Incorrect,,,,,,t3.png,t2.png,1,0.90855,52,Female,2020-12-01_12h30.17.864,torte-2b,2020.1.3,Win32,60,14114,2.448805,,,,,0,43,43,53,1,,,,,,,,,,,,,,,,,,,,,,,,,,,,,,,,,,,,,,,,,,,,,,,,,,,,,,,,
,,,,,,,,,,,,l,Incorrect,,,,,,t4.png,t5.png,1,0.90025,52,Female,2020-12-01_12h30.17.864,torte-2b,2020.1.3,Win32,60,14114,1.165175,,,,,0,44,44,58,1,,,,,,,,,,,,,,,,,,,,,,,,,,,,,,,,,,,,,,,,,,,,,,,,,,,,,,,,
,,,,,,,,,,,,a,Correct!,,,,,,t5.png,t5.png,0,0.97829,52,Female,2020-12-01_12h30.17.864,torte-2b,2020.1.3,Win32,60,14114,1.1068,,,,,0,45,45,70,1,,,,,,,,,,,,,,,,,,,,,,,,,,,,,,,,,,,,,,,,,,,,,,,,,,,,,,,,
,,,,,,,,,,,,l,Correct!,,,,,,t4.png,t1.png,3,0.0000131,52,Female,2020-12-01_12h30.17.864,torte-2b,2020.1.3,Win32,60,14114,0.953885,,,,,0,46,46,13,1,,,,,,,,,,,,,,,,,,,,,,,,,,,,,,,,,,,,,,,,,,,,,,,,,,,,,,,,
,,,,,,,,,,,,l,Correct!,,,,,,t4.png,t2.png,2,0.059078,52,Female,2020-12-01_12h30.17.864,torte-2b,2020.1.3,Win32,60,14114,1.22249,,,,,0,47,47,88,1,,,,,,,,,,,,,,,,,,,,,,,,,,,,,,,,,,,,,,,,,,,,,,,,,,,,,,,,
,,,,,,,,,,,,l,Incorrect,,,,,,t1.png,t1.png,0,0.978,52,Female,2020-12-01_12h30.17.864,torte-2b,2020.1.3,Win32,60,14114,0.72124,,,,,0,48,48,28,1,,,,,,,,,,,,,,,,,,,,,,,,,,,,,,,,,,,,,,,,,,,,,,,,,,,,,,,,
,,,,,,,,,,,,l,Incorrect,,,,,,t4.png,t5.png,1,0.90025,52,Female,2020-12-01_12h30.17.864,torte-2b,2020.1.3,Win32,60,14114,2.43453,,,,,0,49,49,113,1,,,,,,,,,,,,,,,,,,,,,,,,,,,,,,,,,,,,,,,,,,,,,,,,,,,,,,,,
,,,,,,,,,,,,l,Incorrect,,,,,,t2.png,t2.png,0,0.98115,52,Female,2020-12-01_12h30.17.864,torte-2b,2020.1.3,Win32,60,14114,0.81825,,,,,0,50,50,2,1,,,,,,,,,,,,,,,,,,,,,,,,,,,,,,,,,,,,,,,,,,,,,,,,,,,,,,,,
,,,,,,,,,,,,l,Correct!,,,,,,t1.png,t3.png,2,0.056466,52,Female,2020-12-01_12h30.17.864,torte-2b,2020.1.3,Win32,60,14114,0.83356,,,,,0,51,51,63,1,,,,,,,,,,,,,,,,,,,,,,,,,,,,,,,,,,,,,,,,,,,,,,,,,,,,,,,,
,,,,,,,,,,,,l,Correct!,,,,,,t3.png,t5.png,2,0.0565,52,Female,2020-12-01_12h30.17.864,torte-2b,2020.1.3,Win32,60,14114,0.89766,,,,,0,52,52,30,1,,,,,,,,,,,,,,,,,,,,,,,,,,,,,,,,,,,,,,,,,,,,,,,,,,,,,,,,
,,,,,,,,,,,,a,Correct!,,,,,,t4.png,t4.png,0,0.98115,52,Female,2020-12-01_12h30.17.864,torte-2b,2020.1.3,Win32,60,14114,1.134575,,,,,0,53,53,79,1,,,,,,,,,,,,,,,,,,,,,,,,,,,,,,,,,,,,,,,,,,,,,,,,,,,,,,,,
,,,,,,,,,,,,l,Correct!,,,,,,t3.png,t1.png,2,0.056466,52,Female,2020-12-01_12h30.17.864,torte-2b,2020.1.3,Win32,60,14114,0.84837,,,,,0,54,54,32,1,,,,,,,,,,,,,,,,,,,,,,,,,,,,,,,,,,,,,,,,,,,,,,,,,,,,,,,,
,,,,,,,,,,,,l,Correct!,,,,,,t1.png,t4.png,3,0.0000131,52,Female,2020-12-01_12h30.17.864,torte-2b,2020.1.3,Win32,60,14114,2.122295,,,,,0,55,55,107,1,,,,,,,,,,,,,,,,,,,,,,,,,,,,,,,,,,,,,,,,,,,,,,,,,,,,,,,,
,,,,,,,,,,,,l,Correct!,,,,,,t1.png,t5.png,4,9.55E-11,52,Female,2020-12-01_12h30.17.864,torte-2b,2020.1.3,Win32,60,14114,1.06478,,,,,0,56,56,41,1,,,,,,,,,,,,,,,,,,,,,,,,,,,,,,,,,,,,,,,,,,,,,,,,,,,,,,,,
,,,,,,,,,,,,l,Correct!,,,,,,t1.png,t4.png,3,0.0000131,52,Female,2020-12-01_12h30.17.864,torte-2b,2020.1.3,Win32,60,14114,0.93021,,,,,0,57,57,17,1,,,,,,,,,,,,,,,,,,,,,,,,,,,,,,,,,,,,,,,,,,,,,,,,,,,,,,,,
,,,,,,,,,,,,l,Correct!,,,,,,t1.png,t3.png,2,0.056466,52,Female,2020-12-01_12h30.17.864,torte-2b,2020.1.3,Win32,60,14114,0.786875,,,,,0,58,58,99,1,,,,,,,,,,,,,,,,,,,,,,,,,,,,,,,,,,,,,,,,,,,,,,,,,,,,,,,,
,,,,,,,,,,,,l,Correct!,,,,,,t4.png,t1.png,3,0.0000131,52,Female,2020-12-01_12h30.17.864,torte-2b,2020.1.3,Win32,60,14114,0.899185,,,,,0,59,59,42,1,,,,,,,,,,,,,,,,,,,,,,,,,,,,,,,,,,,,,,,,,,,,,,,,,,,,,,,,
,,,,,,,,,,,,l,Incorrect,,,,,,t3.png,t4.png,1,0.90855,52,Female,2020-12-01_12h30.17.864,torte-2b,2020.1.3,Win32,60,14114,0.81705,,,,,0,60,60,84,1,,,,,,,,,,,,,,,,,,,,,,,,,,,,,,,,,,,,,,,,,,,,,,,,,,,,,,,,
,,,,,,,,,,,,l,Correct!,,,,,,t1.png,t2.png,1,0.9,52,Female,2020-12-01_12h30.17.864,torte-2b,2020.1.3,Win32,60,14114,0.865815,,,,,0,61,61,1,1,,,,,,,,,,,,,,,,,,,,,,,,,,,,,,,,,,,,,,,,,,,,,,,,,,,,,,,,
,,,,,,,,,,,,a,Correct!,,,,,,t5.png,t5.png,0,0.97829,52,Female,2020-12-01_12h30.17.864,torte-2b,2020.1.3,Win32,60,14114,0.77286,,,,,0,62,62,94,1,,,,,,,,,,,,,,,,,,,,,,,,,,,,,,,,,,,,,,,,,,,,,,,,,,,,,,,,
,,,,,,,,,,,,l,Correct!,,,,,,t4.png,t1.png,3,0.0000131,52,Female,2020-12-01_12h30.17.864,torte-2b,2020.1.3,Win32,60,14114,0.90419,,,,,0,63,63,93,1,,,,,,,,,,,,,,,,,,,,,,,,,,,,,,,,,,,,,,,,,,,,,,,,,,,,,,,,
,,,,,,,,,,,,a,Correct!,,,,,,t4.png,t4.png,0,0.98115,52,Female,2020-12-01_12h30.17.864,torte-2b,2020.1.3,Win32,60,14114,1.164915,,,,,0,64,64,90,1,,,,,,,,,,,,,,,,,,,,,,,,,,,,,,,,,,,,,,,,,,,,,,,,,,,,,,,,
,,,,,,,,,,,,l,Incorrect,,,,,,t4.png,t5.png,1,0.90025,52,Female,2020-12-01_12h30.17.864,torte-2b,2020.1.3,Win32,60,14114,1.088005,,,,,0,65,65,47,1,,,,,,,,,,,,,,,,,,,,,,,,,,,,,,,,,,,,,,,,,,,,,,,,,,,,,,,,
,,,,,,,,,,,,l,Incorrect,,,,,,t3.png,t4.png,1,0.909,52,Female,2020-12-01_12h30.17.864,torte-2b,2020.1.3,Win32,60,14114,1.190115,,,,,0,66,66,106,1,,,,,,,,,,,,,,,,,,,,,,,,,,,,,,,,,,,,,,,,,,,,,,,,,,,,,,,,
,,,,,,,,,,,,a,Correct!,,,,,,t5.png,t5.png,0,0.97829,52,Female,2020-12-01_12h30.17.864,torte-2b,2020.1.3,Win32,60,14114,0.835985,,,,,0,67,67,25,1,,,,,,,,,,,,,,,,,,,,,,,,,,,,,,,,,,,,,,,,,,,,,,,,,,,,,,,,
,,,,,,,,,,,,l,Correct!,,,,,,t5.png,t1.png,4,9.55E-11,52,Female,2020-12-01_12h30.17.864,torte-2b,2020.1.3,Win32,60,14114,0.89207,,,,,0,68,68,43,1,,,,,,,,,,,,,,,,,,,,,,,,,,,,,,,,,,,,,,,,,,,,,,,,,,,,,,,,
,,,,,,,,,,,,l,Correct!,,,,,,t2.png,t4.png,2,0.059078,52,Female,2020-12-01_12h30.17.864,torte-2b,2020.1.3,Win32,60,14114,1.762275,,,,,0,69,69,11,1,,,,,,,,,,,,,,,,,,,,,,,,,,,,,,,,,,,,,,,,,,,,,,,,,,,,,,,,
,,,,,,,,,,,,l,Incorrect,,,,,,t2.png,t3.png,1,0.909,52,Female,2020-12-01_12h30.17.864,torte-2b,2020.1.3,Win32,60,14114,0.91475,,,,,0,70,70,74,1,,,,,,,,,,,,,,,,,,,,,,,,,,,,,,,,,,,,,,,,,,,,,,,,,,,,,,,,
,,,,,,,,,,,,a,Correct!,,,,,,t2.png,t2.png,0,0.98115,52,Female,2020-12-01_12h30.17.864,torte-2b,2020.1.3,Win32,60,14114,1.731955,,,,,0,71,71,59,1,,,,,,,,,,,,,,,,,,,,,,,,,,,,,,,,,,,,,,,,,,,,,,,,,,,,,,,,
,,,,,,,,,,,,l,Correct!,,,,,,t5.png,t3.png,2,0.0565,52,Female,2020-12-01_12h30.17.864,torte-2b,2020.1.3,Win32,60,14114,1.31878,,,,,0,72,72,39,1,,,,,,,,,,,,,,,,,,,,,,,,,,,,,,,,,,,,,,,,,,,,,,,,,,,,,,,,
,,,,,,,,,,,,l,Incorrect,,,,,,t5.png,t4.png,1,0.9,52,Female,2020-12-01_12h30.17.864,torte-2b,2020.1.3,Win32,60,14114,1.60795,,,,,0,73,73,76,1,,,,,,,,,,,,,,,,,,,,,,,,,,,,,,,,,,,,,,,,,,,,,,,,,,,,,,,,
,,,,,,,,,,,,a,Correct!,,,,,,t5.png,t5.png,0,0.978,52,Female,2020-12-01_12h30.17.864,torte-2b,2020.1.3,Win32,60,14114,0.88349,,,,,0,74,74,117,1,,,,,,,,,,,,,,,,,,,,,,,,,,,,,,,,,,,,,,,,,,,,,,,,,,,,,,,,
,,,,,,,,,,,,l,Incorrect,,,,,,t4.png,t3.png,1,0.90855,52,Female,2020-12-01_12h30.17.864,torte-2b,2020.1.3,Win32,60,14114,0.881495,,,,,0,75,75,35,1,,,,,,,,,,,,,,,,,,,,,,,,,,,,,,,,,,,,,,,,,,,,,,,,,,,,,,,,
,,,,,,,,,,,,l,Correct!,,,,,,t5.png,t4.png,1,0.90025,52,Female,2020-12-01_12h30.17.864,torte-2b,2020.1.3,Win32,60,14114,1.98187,,,,,0,76,76,27,1,,,,,,,,,,,,,,,,,,,,,,,,,,,,,,,,,,,,,,,,,,,,,,,,,,,,,,,,
,,,,,,,,,,,,l,Incorrect,,,,,,t1.png,t2.png,1,0.90025,52,Female,2020-12-01_12h30.17.864,torte-2b,2020.1.3,Win32,60,14114,1.314785,,,,,0,77,77,72,1,,,,,,,,,,,,,,,,,,,,,,,,,,,,,,,,,,,,,,,,,,,,,,,,,,,,,,,,
,,,,,,,,,,,,l,Correct!,,,,,,t3.png,t5.png,2,0.056466,52,Female,2020-12-01_12h30.17.864,torte-2b,2020.1.3,Win32,60,14114,0.83127,,,,,0,78,78,44,1,,,,,,,,,,,,,,,,,,,,,,,,,,,,,,,,,,,,,,,,,,,,,,,,,,,,,,,,
,,,,,,,,,,,,l,Correct!,,,,,,t1.png,t4.png,3,0.0000131,52,Female,2020-12-01_12h30.17.864,torte-2b,2020.1.3,Win32,60,14114,0.7548,,,,,0,79,79,92,1,,,,,,,,,,,,,,,,,,,,,,,,,,,,,,,,,,,,,,,,,,,,,,,,,,,,,,,,
,,,,,,,,,,,,l,Incorrect,,,,,,t2.png,t3.png,1,0.90855,52,Female,2020-12-01_12h30.17.864,torte-2b,2020.1.3,Win32,60,14114,1.11658,,,,,0,80,80,111,1,,,,,,,,,,,,,,,,,,,,,,,,,,,,,,,,,,,,,,,,,,,,,,,,,,,,,,,,
,,,,,,,,,,,,l,Incorrect,,,,,,t5.png,t4.png,1,0.90025,52,Female,2020-12-01_12h30.17.864,torte-2b,2020.1.3,Win32,60,14114,1.44858,,,,,0,81,81,26,1,,,,,,,,,,,,,,,,,,,,,,,,,,,,,,,,,,,,,,,,,,,,,,,,,,,,,,,,
,,,,,,,,,,,,a,Correct!,,,,,,t4.png,t4.png,0,0.98115,52,Female,2020-12-01_12h30.17.864,torte-2b,2020.1.3,Win32,60,14114,1.24888,,,,,0,82,82,80,1,,,,,,,,,,,,,,,,,,,,,,,,,,,,,,,,,,,,,,,,,,,,,,,,,,,,,,,,
,,,,,,,,,,,,l,Correct!,,,,,,t1.png,t3.png,2,0.056466,52,Female,2020-12-01_12h30.17.864,torte-2b,2020.1.3,Win32,60,14114,0.587715,,,,,0,83,83,69,1,,,,,,,,,,,,,,,,,,,,,,,,,,,,,,,,,,,,,,,,,,,,,,,,,,,,,,,,
,,,,,,,,,,,,l,Incorrect,,,,,,t2.png,t3.png,1,0.90855,52,Female,2020-12-01_12h30.17.864,torte-2b,2020.1.3,Win32,60,14114,1.164905,,,,,0,84,84,68,1,,,,,,,,,,,,,,,,,,,,,,,,,,,,,,,,,,,,,,,,,,,,,,,,,,,,,,,,
,,,,,,,,,,,,l,Incorrect,,,,,,t2.png,t1.png,1,0.90025,52,Female,2020-12-01_12h30.17.864,torte-2b,2020.1.3,Win32,60,14114,1.242315,,,,,0,85,85,19,1,,,,,,,,,,,,,,,,,,,,,,,,,,,,,,,,,,,,,,,,,,,,,,,,,,,,,,,,
,,,,,,,,,,,,l,Correct!,,,,,,t5.png,t1.png,4,9.55E-11,52,Female,2020-12-01_12h30.17.864,torte-2b,2020.1.3,Win32,60,14114,1.304345,,,,,0,86,86,71,1,,,,,,,,,,,,,,,,,,,,,,,,,,,,,,,,,,,,,,,,,,,,,,,,,,,,,,,,
,,,,,,,,,,,,a,Correct!,,,,,,t4.png,t4.png,0,0.98115,52,Female,2020-12-01_12h30.17.864,torte-2b,2020.1.3,Win32,60,14114,0.983795,,,,,0,87,87,52,1,,,,,,,,,,,,,,,,,,,,,,,,,,,,,,,,,,,,,,,,,,,,,,,,,,,,,,,,
,,,,,,,,,,,,l,Incorrect,,,,,,t1.png,t2.png,1,0.90025,52,Female,2020-12-01_12h30.17.864,torte-2b,2020.1.3,Win32,60,14114,0.64708,,,,,0,88,88,105,1,,,,,,,,,,,,,,,,,,,,,,,,,,,,,,,,,,,,,,,,,,,,,,,,,,,,,,,,
,,,,,,,,,,,,l,Correct!,,,,,,t1.png,t5.png,4,9.55E-11,52,Female,2020-12-01_12h30.17.864,torte-2b,2020.1.3,Win32,60,14114,1.022415,,,,,0,89,89,12,1,,,,,,,,,,,,,,,,,,,,,,,,,,,,,,,,,,,,,,,,,,,,,,,,,,,,,,,,
,,,,,,,,,,,,l,Correct!,,,,,,t2.png,t5.png,3,0.0000131,52,Female,2020-12-01_12h30.17.864,torte-2b,2020.1.3,Win32,60,14114,1.14782,,,,,0,90,90,8,1,,,,,,,,,,,,,,,,,,,,,,,,,,,,,,,,,,,,,,,,,,,,,,,,,,,,,,,,
,,,,,,,,,,,,l,Correct!,,,,,,t5.png,t3.png,2,0.056466,52,Female,2020-12-01_12h30.17.864,torte-2b,2020.1.3,Win32,60,14114,1.24742,,,,,0,91,91,38,1,,,,,,,,,,,,,,,,,,,,,,,,,,,,,,,,,,,,,,,,,,,,,,,,,,,,,,,,
,,,,,,,,,,,,l,Correct!,,,,,,t5.png,t4.png,1,0.90025,52,Female,2020-12-01_12h30.17.864,torte-2b,2020.1.3,Win32,60,14114,1.09228,,,,,0,92,92,34,1,,,,,,,,,,,,,,,,,,,,,,,,,,,,,,,,,,,,,,,,,,,,,,,,,,,,,,,,
,,,,,,,,,,,,l,Incorrect,,,,,,t2.png,t3.png,1,0.90855,52,Female,2020-12-01_12h30.17.864,torte-2b,2020.1.3,Win32,60,14114,0.870855,,,,,0,93,93,65,1,,,,,,,,,,,,,,,,,,,,,,,,,,,,,,,,,,,,,,,,,,,,,,,,,,,,,,,,
,,,,,,,,,,,,l,Incorrect,,,,,,t2.png,t3.png,1,0.90855,52,Female,2020-12-01_12h30.17.864,torte-2b,2020.1.3,Win32,60,14114,0.71877,,,,,0,94,94,10,1,,,,,,,,,,,,,,,,,,,,,,,,,,,,,,,,,,,,,,,,,,,,,,,,,,,,,,,,
,,,,,,,,,,,,l,Incorrect,,,,,,t2.png,t1.png,1,0.90025,52,Female,2020-12-01_12h30.17.864,torte-2b,2020.1.3,Win32,60,14114,0.99816,,,,,0,95,95,5,1,,,,,,,,,,,,,,,,,,,,,,,,,,,,,,,,,,,,,,,,,,,,,,,,,,,,,,,,
,,,,,,,,,,,,l,Incorrect,,,,,,t4.png,t5.png,1,0.90025,52,Female,2020-12-01_12h30.17.864,torte-2b,2020.1.3,Win32,60,14114,1.065715,,,,,0,96,96,103,1,,,,,,,,,,,,,,,,,,,,,,,,,,,,,,,,,,,,,,,,,,,,,,,,,,,,,,,,
,,,,,,,,,,,,l,Correct!,,,,,,t1.png,t4.png,3,0.0000131,52,Female,2020-12-01_12h30.17.864,torte-2b,2020.1.3,Win32,60,14114,0.668625,,,,,0,97,97,50,1,,,,,,,,,,,,,,,,,,,,,,,,,,,,,,,,,,,,,,,,,,,,,,,,,,,,,,,,
,,,,,,,,,,,,a,Correct!,,,,,,t1.png,t1.png,0,0.97829,52,Female,2020-12-01_12h30.17.864,torte-2b,2020.1.3,Win32,60,14114,0.94121,,,,,0,98,98,78,1,,,,,,,,,,,,,,,,,,,,,,,,,,,,,,,,,,,,,,,,,,,,,,,,,,,,,,,,
,,,,,,,,,,,,l,Incorrect,,,,,,t3.png,t2.png,1,0.90855,52,Female,2020-12-01_12h30.17.864,torte-2b,2020.1.3,Win32,60,14114,0.914415,,,,,0,99,99,18,1,,,,,,,,,,,,,,,,,,,,,,,,,,,,,,,,,,,,,,,,,,,,,,,,,,,,,,,,
,,,,,,,,,,,,l,Correct!,,,,,,t1.png,t3.png,2,0.056466,52,Female,2020-12-01_12h30.17.864,torte-2b,2020.1.3,Win32,60,14114,1.124395,,,,,0,100,100,60,1,,,,,,,,,,,,,,,,,,,,,,,,,,,,,,,,,,,,,,,,,,,,,,,,,,,,,,,,
,,,,,,,,,,,,l,Correct!,,,,,,t3.png,t5.png,2,0.056466,52,Female,2020-12-01_12h30.17.864,torte-2b,2020.1.3,Win32,60,14114,0.84288,,,,,0,101,101,6,1,,,,,,,,,,,,,,,,,,,,,,,,,,,,,,,,,,,,,,,,,,,,,,,,,,,,,,,,
,,,,,,,,,,,,l,Correct!,,,,,,t3.png,t5.png,2,0.0565,52,Female,2020-12-01_12h30.17.864,torte-2b,2020.1.3,Win32,60,14114,0.983735,,,,,0,102,102,83,1,,,,,,,,,,,,,,,,,,,,,,,,,,,,,,,,,,,,,,,,,,,,,,,,,,,,,,,,
,,,,,,,,,,,,l,Correct!,,,,,,t1.png,t4.png,3,0.0000131,52,Female,2020-12-01_12h30.17.864,torte-2b,2020.1.3,Win32,60,14114,0.91692,,,,,0,103,103,81,1,,,,,,,,,,,,,,,,,,,,,,,,,,,,,,,,,,,,,,,,,,,,,,,,,,,,,,,,
,,,,,,,,,,,,l,Correct!,,,,,,t5.png,t3.png,2,0.056466,52,Female,2020-12-01_12h30.17.864,torte-2b,2020.1.3,Win32,60,14114,0.79112,,,,,0,104,104,56,1,,,,,,,,,,,,,,,,,,,,,,,,,,,,,,,,,,,,,,,,,,,,,,,,,,,,,,,,
,,,,,,,,,,,,a,Correct!,,,,,,t1.png,t1.png,0,0.978,52,Female,2020-12-01_12h30.17.864,torte-2b,2020.1.3,Win32,60,14114,0.91366,,,,,0,105,105,54,1,,,,,,,,,,,,,,,,,,,,,,,,,,,,,,,,,,,,,,,,,,,,,,,,,,,,,,,,
,,,,,,,,,,,,l,Correct!,,,,,,t4.png,t2.png,2,0.059078,52,Female,2020-12-01_12h30.17.864,torte-2b,2020.1.3,Win32,60,14114,0.830265,,,,,0,106,106,110,1,,,,,,,,,,,,,,,,,,,,,,,,,,,,,,,,,,,,,,,,,,,,,,,,,,,,,,,,
,,,,,,,,,,,,l,Correct!,,,,,,t2.png,t5.png,3,0.0000131,52,Female,2020-12-01_12h30.17.864,torte-2b,2020.1.3,Win32,60,14114,0.88857,,,,,0,107,107,66,1,,,,,,,,,,,,,,,,,,,,,,,,,,,,,,,,,,,,,,,,,,,,,,,,,,,,,,,,
,,,,,,,,,,,,l,Correct!,,,,,,t3.png,t4.png,1,0.90855,52,Female,2020-12-01_12h30.17.864,torte-2b,2020.1.3,Win32,60,14114,0.92295,,,,,0,108,108,96,1,,,,,,,,,,,,,,,,,,,,,,,,,,,,,,,,,,,,,,,,,,,,,,,,,,,,,,,,
,,,,,,,,,,,,l,Correct!,,,,,,t5.png,t3.png,2,0.056466,52,Female,2020-12-01_12h30.17.864,torte-2b,2020.1.3,Win32,60,14114,0.73488,,,,,0,109,109,114,1,,,,,,,,,,,,,,,,,,,,,,,,,,,,,,,,,,,,,,,,,,,,,,,,,,,,,,,,
,,,,,,,,,,,,l,Correct!,,,,,,t2.png,t4.png,2,0.059078,52,Female,2020-12-01_12h30.17.864,torte-2b,2020.1.3,Win32,60,14114,0.68486,,,,,0,110,110,37,1,,,,,,,,,,,,,,,,,,,,,,,,,,,,,,,,,,,,,,,,,,,,,,,,,,,,,,,,
,,,,,,,,,,,,l,Correct!,,,,,,t5.png,t1.png,4,9.55E-11,52,Female,2020-12-01_12h30.17.864,torte-2b,2020.1.3,Win32,60,14114,1.41935,,,,,0,111,111,100,1,,,,,,,,,,,,,,,,,,,,,,,,,,,,,,,,,,,,,,,,,,,,,,,,,,,,,,,,
,,,,,,,,,,,,l,Correct!,,,,,,t3.png,t1.png,2,0.056466,52,Female,2020-12-01_12h30.17.864,torte-2b,2020.1.3,Win32,60,14114,1.83179,,,,,0,112,112,64,1,,,,,,,,,,,,,,,,,,,,,,,,,,,,,,,,,,,,,,,,,,,,,,,,,,,,,,,,
,,,,,,,,,,,,l,Incorrect,,,,,,t4.png,t3.png,1,0.90855,52,Female,2020-12-01_12h30.17.864,torte-2b,2020.1.3,Win32,60,14114,0.81475,,,,,0,113,113,75,1,,,,,,,,,,,,,,,,,,,,,,,,,,,,,,,,,,,,,,,,,,,,,,,,,,,,,,,,
,,,,,,,,,,,,l,Incorrect,,,,,,t1.png,t2.png,1,0.90025,52,Female,2020-12-01_12h30.17.864,torte-2b,2020.1.3,Win32,60,14114,1.95143,,,,,0,114,114,33,1,,,,,,,,,,,,,,,,,,,,,,,,,,,,,,,,,,,,,,,,,,,,,,,,,,,,,,,,
,,,,,,,,,,,,l,Correct!,,,,,,t3.png,t2.png,1,0.90855,52,Female,2020-12-01_12h30.17.864,torte-2b,2020.1.3,Win32,60,14114,1.001955,,,,,0,115,115,97,1,,,,,,,,,,,,,,,,,,,,,,,,,,,,,,,,,,,,,,,,,,,,,,,,,,,,,,,,
,,,,,,,,,,,,l,Incorrect,,,,,,t4.png,t3.png,1,0.909,52,Female,2020-12-01_12h30.17.864,torte-2b,2020.1.3,Win32,60,14114,0.89274,,,,,0,116,116,20,1,,,,,,,,,,,,,,,,,,,,,,,,,,,,,,,,,,,,,,,,,,,,,,,,,,,,,,,,
,,,,,,,,,,,,l,Incorrect,,,,,,t3.png,t4.png,1,0.909,52,Female,2020-12-01_12h30.17.864,torte-2b,2020.1.3,Win32,60,14114,0.91499,,,,,0,117,117,82,1,,,,,,,,,,,,,,,,,,,,,,,,,,,,,,,,,,,,,,,,,,,,,,,,,,,,,,,,
,,,,,,,,,,,,l,Incorrect,,,,,,t3.png,t4.png,1,0.909,52,Female,2020-12-01_12h30.17.864,torte-2b,2020.1.3,Win32,60,14114,0.635425,,,,,0,118,118,89,1,,,,,,,,,,,,,,,,,,,,,,,,,,,,,,,,,,,,,,,,,,,,,,,,,,,,,,,,
,,,,,,,,,,,,l,Correct!,,,,,,t5.png,t2.png,3,0.0000131,52,Female,2020-12-01_12h30.17.864,torte-2b,2020.1.3,Win32,60,14114,1.014875,,,,,0,119,119,51,1,,,,,,,,,,,,,,,,,,,,,,,,,,,,,,,,,,,,,,,,,,,,,,,,,,,,,,,,
,,,,,,,,,,,,,,,,,,,,,,,52,Female,2020-12-01_12h30.17.864,torte-2b,2020.1.3,Win32,60,14114,,space,1.955245,,,,,,,,space,177.02953,space,1.91328,0,0,0,0,1,6,,,,,,,,,,,,,,,,,,,,,,,,,,,,,,,,,,,,,,,,,,,,,,
,,,,,,,,,,,,,,,,,,,,,,,52,Female,2020-12-01_12h30.17.864,torte-2b,2020.1.3,Win32,60,14114,,,,,,,,,,,,,space,1.43652,0,1,1,1,1,7,,,,,,,,,,,,,,,,,,,,,,,,,,,,,,,,,,,,,,,,,,,,,,
,,,,,,,,,,,,,,,,,,,,,,,52,Female,2020-12-01_12h30.17.864,torte-2b,2020.1.3,Win32,60,14114,,,,,,,,,,,,,space,1.18894,0,2,2,2,1,6,,,,,,,,,,,,,,,,,,,,,,,,,,,,,,,,,,,,,,,,,,,,,,
,,,,,,,,,,,,,,,,,,,,,,,52,Female,2020-12-01_12h30.17.864,torte-2b,2020.1.3,Win32,60,14114,,,,,,,,,,,,,space,0.32339,0,3,3,3,1,7,,,,,,,,,,,,,,,,,,,,,,,,,,,,,,,,,,,,,,,,,,,,,,
,,,,,,,,,,,,,,,,,,,,,,,52,Female,2020-12-01_12h30.17.864,torte-2b,2020.1.3,Win32,60,14114,,,,,,,,,,,,,space,0.411285,0,4,4,4,1,5,,,,,,,,,,,,,,,,,,,,,,,,,,,,,,,,,,,,,,,,,,,,,,
,,,,,,,,,,,,,,,,,,,,,,,52,Female,2020-12-01_12h30.17.864,torte-2b,2020.1.3,Win32,60,14114,,,,,,,,,,,,,space,0.791015,0,5,5,5,1,7,,,,,,,,,,,,,,,,,,,,,,,,,,,,,,,,,,,,,,,,,,,,,,
,,,,,,,,,,,,,,,,,,,,,,,52,Female,2020-12-01_12h30.17.864,torte-2b,2020.1.3,Win32,60,14114,,,,,,,,,,,,,space,1.068,0,6,6,6,1,2,,,,,,,,,,,,,,,,,,,,,,,,,,,,,,,,,,,,,,,,,,,,,,
,,,,,,,,,,,,,,,,,,,,,,,52,Female,2020-12-01_12h30.17.864,torte-2b,2020.1.3,Win32,60,14114,,,,,,,,,,,,,space,1.24619,0,7,7,7,1,4,,,,,,,,,,,,,,,,,,,,,,,,,,,,,,,,,,,,,,,,,,,,,,
,,,,,,,,,,,,,,,,,,,,,,,52,Female,2020-12-01_12h30.17.864,torte-2b,2020.1.3,Win32,60,14114,,,,,,,,,,,,,space,1.172115,0,8,8,8,1,7,,,,,,,,,,,,,,,,,,,,,,,,,,,,,,,,,,,,,,,,,,,,,,
,,,,,,,,,,,,,,,,,,,,,,,52,Female,2020-12-01_12h30.17.864,torte-2b,2020.1.3,Win32,60,14114,,,,,,,,,,,,,space,0.720595,0,9,9,9,1,4,,,,,,,,,,,,,,,,,,,,,,,,,,,,,,,,,,,,,,,,,,,,,,
,,,,,,,,,,,,,,,,,,,,,,,52,Female,2020-12-01_12h30.17.864,torte-2b,2020.1.3,Win32,60,14114,,,,,,,,,,,,,space,0.402475,0,10,10,10,1,7,,,,,,,,,,,,,,,,,,,,,,,,,,,,,,,,,,,,,,,,,,,,,,
,,,,,,,,,,,,,,,,,,,,,,,52,Female,2020-12-01_12h30.17.864,torte-2b,2020.1.3,Win32,60,14114,,,,,,,,,,,,,space,1.13797,0,11,11,11,1,7,,,,,,,,,,,,,,,,,,,,,,,,,,,,,,,,,,,,,,,,,,,,,,
,,,,,,,,,,,,,,,,,,,,,,,52,Female,2020-12-01_12h30.17.864,torte-2b,2020.1.3,Win32,60,14114,,,,,,,,,,,,,space,0.4252,0,12,12,12,1,7,,,,,,,,,,,,,,,,,,,,,,,,,,,,,,,,,,,,,,,,,,,,,,
,,,,,,,,,,,,,,,,,,,,,,,52,Female,2020-12-01_12h30.17.864,torte-2b,2020.1.3,Win32,60,14114,,,,,,,,,,,,,space,1.15255,0,13,13,13,1,4,,,,,,,,,,,,,,,,,,,,,,,,,,,,,,,,,,,,,,,,,,,,,,
,,,,,,,,,,,,,,,,,,,,,,,52,Female,2020-12-01_12h30.17.864,torte-2b,2020.1.3,Win32,60,14114,,,,,,,,,,,,,space,0.385195,0,14,14,14,1,6,,,,,,,,,,,,,,,,,,,,,,,,,,,,,,,,,,,,,,,,,,,,,,
,,,,,,,,,,,,,,,,,,,,,,,52,Female,2020-12-01_12h30.17.864,torte-2b,2020.1.3,Win32,60,14114,,,,,,,,,,,,,space,1.819195,0,15,15,15,1,4,,,,,,,,,,,,,,,,,,,,,,,,,,,,,,,,,,,,,,,,,,,,,,
,,,,,,,,,,,,,,,,,,,,,,,52,Female,2020-12-01_12h30.17.864,torte-2b,2020.1.3,Win32,60,14114,,,,,,,,,,,,,space,1.20441,0,16,16,16,1,6,,,,,,,,,,,,,,,,,,,,,,,,,,,,,,,,,,,,,,,,,,,,,,
,,,,,,,,,,,,,,,,,,,,,,,52,Female,2020-12-01_12h30.17.864,torte-2b,2020.1.3,Win32,60,14114,,,,,,,,,,,,,space,0.38691,0,17,17,17,1,7,,,,,,,,,,,,,,,,,,,,,,,,,,,,,,,,,,,,,,,,,,,,,,
,,,,,,,,,,,,,,,,,,,,,,,52,Female,2020-12-01_12h30.17.864,torte-2b,2020.1.3,Win32,60,14114,,,,,,,,,,,,,,,0,18,18,18,1,6,,,,,,,,,,,,,,,,,,,,,,,,,,,,,,,,,,,,,,,,,,,,,,
,,,,,,,,,,,,,,,,,,,,,,,52,Female,2020-12-01_12h30.17.864,torte-2b,2020.1.3,Win32,60,14114,,,,,,,,,,,,,space,0.90352,0,19,19,19,1,7,,,,,,,,,,,,,,,,,,,,,,,,,,,,,,,,,,,,,,,,,,,,,,
,,,,,,,,,,,,,,,,,,,,,,,52,Female,2020-12-01_12h30.17.864,torte-2b,2020.1.3,Win32,60,14114,,,,,,,,,,,,,space,1.179505,0,20,20,20,1,5,,,,,,,,,,,,,,,,,,,,,,,,,,,,,,,,,,,,,,,,,,,,,,
,,,,,,,,,,,,,,,,,,,,,,,52,Female,2020-12-01_12h30.17.864,torte-2b,2020.1.3,Win32,60,14114,,,,,,,,,,,,,space,0.87085,0,21,21,21,1,1,,,,,,,,,,,,,,,,,,,,,,,,,,,,,,,,,,,,,,,,,,,,,,
,,,,,,,,,,,,,,,,,,,,,,,52,Female,2020-12-01_12h30.17.864,torte-2b,2020.1.3,Win32,60,14114,,,,,,,,,,,,,space,0.857525,0,22,22,22,1,6,,,,,,,,,,,,,,,,,,,,,,,,,,,,,,,,,,,,,,,,,,,,,,
,,,,,,,,,,,,,,,,,,,,,,,52,Female,2020-12-01_12h30.17.864,torte-2b,2020.1.3,Win32,60,14114,,,,,,,,,,,,,space,1.553165,0,23,23,23,1,1,,,,,,,,,,,,,,,,,,,,,,,,,,,,,,,,,,,,,,,,,,,,,,
,,,,,,,,,,,,,,,,,,,,,,,52,Female,2020-12-01_12h30.17.864,torte-2b,2020.1.3,Win32,60,14114,,,,,,,,,,,,,space,0.71932,0,24,24,24,1,5,,,,,,,,,,,,,,,,,,,,,,,,,,,,,,,,,,,,,,,,,,,,,,
,,,,,,,,,,,,,,,,,,,,,,,52,Female,2020-12-01_12h30.17.864,torte-2b,2020.1.3,Win32,60,14114,,,,,,,,,,,,,space,0.41826,0,25,25,25,1,6,,,,,,,,,,,,,,,,,,,,,,,,,,,,,,,,,,,,,,,,,,,,,,
,,,,,,,,,,,,,,,,,,,,,,,52,Female,2020-12-01_12h30.17.864,torte-2b,2020.1.3,Win32,60,14114,,,,,,,,,,,,,space,0.40869,0,26,26,26,1,6,,,,,,,,,,,,,,,,,,,,,,,,,,,,,,,,,,,,,,,,,,,,,,
,,,,,,,,,,,,,,,,,,,,,,,52,Female,2020-12-01_12h30.17.864,torte-2b,2020.1.3,Win32,60,14114,,,,,,,,,,,,,space,0.35584,0,27,27,27,1,6,,,,,,,,,,,,,,,,,,,,,,,,,,,,,,,,,,,,,,,,,,,,,,
,,,,,,,,,,,,,,,,,,,,,,,52,Female,2020-12-01_12h30.17.864,torte-2b,2020.1.3,Win32,60,14114,,,,,,,,,,,,,space,1.1443,0,28,28,28,1,5,,,,,,,,,,,,,,,,,,,,,,,,,,,,,,,,,,,,,,,,,,,,,,
,,,,,,,,,,,,,,,,,,,,,,,52,Female,2020-12-01_12h30.17.864,torte-2b,2020.1.3,Win32,60,14114,,,,,,,,,,,,,space,0.859175,0,29,29,29,1,2,,,,,,,,,,,,,,,,,,,,,,,,,,,,,,,,,,,,,,,,,,,,,,
,,,,,,,,,,,,,,,,,,,,,,,52,Female,2020-12-01_12h30.17.864,torte-2b,2020.1.3,Win32,60,14114,,,,,,,,,,,,,space,0.644,0,30,30,30,1,5,,,,,,,,,,,,,,,,,,,,,,,,,,,,,,,,,,,,,,,,,,,,,,
,,,,,,,,,,,,,,,,,,,,,,,52,Female,2020-12-01_12h30.17.864,torte-2b,2020.1.3,Win32,60,14114,,,,,,,,,,,,,space,0.7905,0,31,31,31,1,2,,,,,,,,,,,,,,,,,,,,,,,,,,,,,,,,,,,,,,,,,,,,,,
,,,,,,,,,,,,,,,,,,,,,,,52,Female,2020-12-01_12h30.17.864,torte-2b,2020.1.3,Win32,60,14114,,,,,,,,,,,,,space,0.44327,0,32,32,32,1,5,,,,,,,,,,,,,,,,,,,,,,,,,,,,,,,,,,,,,,,,,,,,,,
,,,,,,,,,,,,,,,,,,,,,,,52,Female,2020-12-01_12h30.17.864,torte-2b,2020.1.3,Win32,60,14114,,,,,,,,,,,,,space,0.80217,0,33,33,33,1,1,,,,,,,,,,,,,,,,,,,,,,,,,,,,,,,,,,,,,,,,,,,,,,
,,,,,,,,,,,,,,,,,,,,,,,52,Female,2020-12-01_12h30.17.864,torte-2b,2020.1.3,Win32,60,14114,,,,,,,,,,,,,space,0.8193,0,34,34,34,1,1,,,,,,,,,,,,,,,,,,,,,,,,,,,,,,,,,,,,,,,,,,,,,,
,,,,,,,,,,,,,,,,,,,,,,,52,Female,2020-12-01_12h30.17.864,torte-2b,2020.1.3,Win32,60,14114,,,,,,,,,,,,,space,1.11701,,,,,,2,0,0,0,0,1,,,,,,,,,,,,,,,,,,,,,,,,,,,,,,,,,,,,,,,,,
,,,,,,,,,,,,,,,,,,,,,,,52,Female,2020-12-01_12h30.17.864,torte-2b,2020.1.3,Win32,60,14114,,,,,,,,,,,,,space,1.74918,,,,,,2,0,1,1,1,1,,,,,,,,,,,,,,,,,,,,,,,,,,,,,,,,,,,,,,,,,
,,,,,,,,,,,,,,,,,,,,,,,52,Female,2020-12-01_12h30.17.864,torte-2b,2020.1.3,Win32,60,14114,,,,,,,,,,,,,space,1.13144,,,,,,6,0,2,2,2,1,,,,,,,,,,,,,,,,,,,,,,,,,,,,,,,,,,,,,,,,,
,,,,,,,,,,,,,,,,,,,,,,,52,Female,2020-12-01_12h30.17.864,torte-2b,2020.1.3,Win32,60,14114,,,,,,,,,,,,,space,1.071275,,,,,,2,0,3,3,3,1,,,,,,,,,,,,,,,,,,,,,,,,,,,,,,,,,,,,,,,,,
,,,,,,,,,,,,,,,,,,,,,,,52,Female,2020-12-01_12h30.17.864,torte-2b,2020.1.3,Win32,60,14114,,,,,,,,,,,,,space,1.2717,,,,,,6,0,4,4,4,1,,,,,,,,,,,,,,,,,,,,,,,,,,,,,,,,,,,,,,,,,
,,,,,,,,,,,,,,,,,,,,,,,52,Female,2020-12-01_12h30.17.864,torte-2b,2020.1.3,Win32,60,14114,,,,,,,,,,,,,space,1.303445,,,,,,2,0,5,5,5,1,,,,,,,,,,,,,,,,,,,,,,,,,,,,,,,,,,,,,,,,,
,,,,,,,,,,,,,,,,,,,,,,,52,Female,2020-12-01_12h30.17.864,torte-2b,2020.1.3,Win32,60,14114,,,,,,,,,,,,,space,1.15689,,,,,,7,0,6,6,6,1,,,,,,,,,,,,,,,,,,,,,,,,,,,,,,,,,,,,,,,,,
,,,,,,,,,,,,,,,,,,,,,,,52,Female,2020-12-01_12h30.17.864,torte-2b,2020.1.3,Win32,60,14114,,,,,,,,,,,,,space,0.79093,,,,,,2,0,7,7,7,1,,,,,,,,,,,,,,,,,,,,,,,,,,,,,,,,,,,,,,,,,
,,,,,,,,,,,,,,,,,,,,,,,52,Female,2020-12-01_12h30.17.864,torte-2b,2020.1.3,Win32,60,14114,,,,,,,,,,,,,space,0.874025,,,,,,7,0,8,8,8,1,,,,,,,,,,,,,,,,,,,,,,,,,,,,,,,,,,,,,,,,,
,,,,,,,,,,,,,,,,,,,,,,,52,Female,2020-12-01_12h30.17.864,torte-2b,2020.1.3,Win32,60,14114,,,,,,,,,,,,,space,0.88409,,,,,,2,0,9,9,9,1,,,,,,,,,,,,,,,,,,,,,,,,,,,,,,,,,,,,,,,,,
,,,,,,,,,,,,,,,,,,,,,,,52,Female,2020-12-01_12h30.17.864,torte-2b,2020.1.3,Win32,60,14114,,,,,,,,,,,,,space,0.798635,,,,,,5,0,10,10,10,1,,,,,,,,,,,,,,,,,,,,,,,,,,,,,,,,,,,,,,,,,
,,,,,,,,,,,,,,,,,,,,,,,52,Female,2020-12-01_12h30.17.864,torte-2b,2020.1.3,Win32,60,14114,,,,,,,,,,,,,space,0.902805,,,,,,4,0,11,11,11,1,,,,,,,,,,,,,,,,,,,,,,,,,,,,,,,,,,,,,,,,,
,,,,,,,,,,,,,,,,,,,,,,,52,Female,2020-12-01_12h30.17.864,torte-2b,2020.1.3,Win32,60,14114,,,,,,,,,,,,,space,0.77975,,,,,,5,0,12,12,12,1,,,,,,,,,,,,,,,,,,,,,,,,,,,,,,,,,,,,,,,,,
,,,,,,,,,,,,,,,,,,,,,,,52,Female,2020-12-01_12h30.17.864,torte-2b,2020.1.3,Win32,60,14114,,,,,,,,,,,,,space,0.824185,,,,,,6,0,13,13,13,1,,,,,,,,,,,,,,,,,,,,,,,,,,,,,,,,,,,,,,,,,
,,,,,,,,,,,,,,,,,,,,,,,52,Female,2020-12-01_12h30.17.864,torte-2b,2020.1.3,Win32,60,14114,,,,,,,,,,,,,space,0.807575,,,,,,5,0,14,14,14,1,,,,,,,,,,,,,,,,,,,,,,,,,,,,,,,,,,,,,,,,,
,,,,,,,,,,,,,,,,,,,,,,,52,Female,2020-12-01_12h30.17.864,torte-2b,2020.1.3,Win32,60,14114,,,,,,,,,,,,,space,0.78707,,,,,,4,0,15,15,15,1,,,,,,,,,,,,,,,,,,,,,,,,,,,,,,,,,,,,,,,,,
,,,,,,,,,,,,,,,,,,,,,,,52,Female,2020-12-01_12h30.17.864,torte-2b,2020.1.3,Win32,60,14114,,,,,,,,,,,,,space,0.80354,,,,,,5,0,16,16,16,1,,,,,,,,,,,,,,,,,,,,,,,,,,,,,,,,,,,,,,,,,
,,,,,,,,,,,,,,,,,,,,,,,52,Female,2020-12-01_12h30.17.864,torte-2b,2020.1.3,Win32,60,14114,,,,,,,,,,,,,space,1.02746,,,,,,3,0,17,17,17,1,,,,,,,,,,,,,,,,,,,,,,,,,,,,,,,,,,,,,,,,,
,,,,,,,,,,,,,,,,,,,,,,,52,Female,2020-12-01_12h30.17.864,torte-2b,2020.1.3,Win32,60,14114,,,,,,,,,,,,,space,0.819265,,,,,,6,0,18,18,18,1,,,,,,,,,,,,,,,,,,,,,,,,,,,,,,,,,,,,,,,,,
,,,,,,,,,,,,,,,,,,,,,,,52,Female,2020-12-01_12h30.17.864,torte-2b,2020.1.3,Win32,60,14114,,,,,,,,,,,,,space,0.71916,,,,,,6,0,19,19,19,1,,,,,,,,,,,,,,,,,,,,,,,,,,,,,,,,,,,,,,,,,
,,,,,,,,,,,,,,,,,,,,,,,52,Female,2020-12-01_12h30.17.864,torte-2b,2020.1.3,Win32,60,14114,,,,,,,,,,,,,space,0.390195,,,,,,6,0,20,20,20,1,,,,,,,,,,,,,,,,,,,,,,,,,,,,,,,,,,,,,,,,,
,,,,,,,,,,,,,,,,,,,,,,,52,Female,2020-12-01_12h30.17.864,torte-2b,2020.1.3,Win32,60,14114,,,,,,,,,,,,,space,0.779985,,,,,,4,0,21,21,21,1,,,,,,,,,,,,,,,,,,,,,,,,,,,,,,,,,,,,,,,,,
,,,,,,,,,,,,,,,,,,,,,,,52,Female,2020-12-01_12h30.17.864,torte-2b,2020.1.3,Win32,60,14114,,,,,,,,,,,,,space,0.84313,,,,,,6,0,22,22,22,1,,,,,,,,,,,,,,,,,,,,,,,,,,,,,,,,,,,,,,,,,
,,,,,,,,,,,,,,,,,,,,,,,52,Female,2020-12-01_12h30.17.864,torte-2b,2020.1.3,Win32,60,14114,,,,,,,,,,,,,space,0.872865,,,,,,4,0,23,23,23,1,,,,,,,,,,,,,,,,,,,,,,,,,,,,,,,,,,,,,,,,,
,,,,,,,,,,,,,,,,,,,,,,,52,Female,2020-12-01_12h30.17.864,torte-2b,2020.1.3,Win32,60,14114,,,,,,,,,,,,,space,0.9015,,,,,,6,0,24,24,24,1,,,,,,,,,,,,,,,,,,,,,,,,,,,,,,,,,,,,,,,,,
,,,,,,,,,,,,,,,,,,,,,,,52,Female,2020-12-01_12h30.17.864,torte-2b,2020.1.3,Win32,60,14114,,,,,,,,,,,,,space,0.818325,,,,,,6,0,25,25,25,1,,,,,,,,,,,,,,,,,,,,,,,,,,,,,,,,,,,,,,,,,
,,,,,,,,,,,,,,,,,,,,,,,52,Female,2020-12-01_12h30.17.864,torte-2b,2020.1.3,Win32,60,14114,,,,,,,,,,,,,space,0.780245,,,,,,7,0,26,26,26,1,,,,,,,,,,,,,,,,,,,,,,,,,,,,,,,,,,,,,,,,,
,,,,,,,,,,,,,,,,,,,,,,,52,Female,2020-12-01_12h30.17.864,torte-2b,2020.1.3,Win32,60,14114,,,,,,,,,,,,,space,0.836095,,,,,,1,0,27,27,27,1,,,,,,,,,,,,,,,,,,,,,,,,,,,,,,,,,,,,,,,,,
,,,,,,,,,,,,,,,,,,,,,,,52,Female,2020-12-01_12h30.17.864,torte-2b,2020.1.3,Win32,60,14114,,,,,,,,,,,,,space,0.79562,,,,,,7,0,28,28,28,1,,,,,,,,,,,,,,,,,,,,,,,,,,,,,,,,,,,,,,,,,
,,,,,,,,,,,,,,,,,,,,,,,52,Female,2020-12-01_12h30.17.864,torte-2b,2020.1.3,Win32,60,14114,,,,,,,,,,,,,space,0.33298,,,,,,4,0,29,29,29,1,,,,,,,,,,,,,,,,,,,,,,,,,,,,,,,,,,,,,,,,,
,,,,,,,,,,,,,,,,,,,,,,,52,Female,2020-12-01_12h30.17.864,torte-2b,2020.1.3,Win32,60,14114,,,,,,,,,,,,,space,0.87698,,,,,,7,0,30,30,30,1,,,,,,,,,,,,,,,,,,,,,,,,,,,,,,,,,,,,,,,,,
,,,,,,,,,,,,,,,,,,,,,,,52,Female,2020-12-01_12h30.17.864,torte-2b,2020.1.3,Win32,60,14114,,,,,,,,,,,,,space,0.842,,,,,,3,0,31,31,31,1,,,,,,,,,,,,,,,,,,,,,,,,,,,,,,,,,,,,,,,,,
,,,,,,,,,,,,,,,,,,,,,,,52,Female,2020-12-01_12h30.17.864,torte-2b,2020.1.3,Win32,60,14114,,,,,,,,,,,,,space,0.812535,,,,,,2,0,32,32,32,1,,,,,,,,,,,,,,,,,,,,,,,,,,,,,,,,,,,,,,,,,
,,,,,,,,,,,,,,,,,,,,,,,52,Female,2020-12-01_12h30.17.864,torte-2b,2020.1.3,Win32,60,14114,,,,,,,,,,,,,space,0.901145,,,,,,6,0,33,33,33,1,,,,,,,,,,,,,,,,,,,,,,,,,,,,,,,,,,,,,,,,,
,,,,,,,,,,,,,,,,,,,,,,,52,Female,2020-12-01_12h30.17.864,torte-2b,2020.1.3,Win32,60,14114,,,,,,,,,,,,,space,0.786365,,,,,,3,0,34,34,34,1,,,,,,,,,,,,,,,,,,,,,,,,,,,,,,,,,,,,,,,,,
,,,,,,,,,,,,,,,,,,,,,,,52,Female,2020-12-01_12h30.17.864,torte-2b,2020.1.3,Win32,60,14114,,,,,,,,,,,,,,,,,,,,7,,,,,,0,0,0,0,1,,,,,,,,,,,,,,,,,,,,,,,,,,,,,,,,,,,,
,,,,,,,,,,,,,,,,,,,,,,,52,Female,2020-12-01_12h30.17.864,torte-2b,2020.1.3,Win32,60,14114,,,,,,,,,,,,,,,,,,,,5,,,,,,0,1,1,1,1,,,,,,,,,,,,,,,,,,,,,,,,,,,,,,,,,,,,
,,,,,,,,,,,,,,,,,,,,,,,52,Female,2020-12-01_12h30.17.864,torte-2b,2020.1.3,Win32,60,14114,,,,,,,,,,,,,,,,,,,,4,,,,,,0,2,2,2,1,,,,,,,,,,,,,,,,,,,,,,,,,,,,,,,,,,,,
,,,,,,,,,,,,,,,,,,,,,,,52,Female,2020-12-01_12h30.17.864,torte-2b,2020.1.3,Win32,60,14114,,,,,,,,,,,,,space,0.803385,,,,,,5,,,,,,0,3,3,3,1,,,,,,,,,,,,,,,,,,,,,,,,,,,,,,,,,,,,
,,,,,,,,,,,,,,,,,,,,,,,52,Female,2020-12-01_12h30.17.864,torte-2b,2020.1.3,Win32,60,14114,,,,,,,,,,,,,,,,,,,,6,,,,,,0,4,4,4,1,,,,,,,,,,,,,,,,,,,,,,,,,,,,,,,,,,,,
,,,,,,,,,,,,,,,,,,,,,,,52,Female,2020-12-01_12h30.17.864,torte-2b,2020.1.3,Win32,60,14114,,,,,,,,,,,,,space,0.551705,,,,,,5,,,,,,0,5,5,5,1,,,,,,,,,,,,,,,,,,,,,,,,,,,,,,,,,,,,
,,,,,,,,,,,,,,,,,,,,,,,52,Female,2020-12-01_12h30.17.864,torte-2b,2020.1.3,Win32,60,14114,,,,,,,,,,,,,,,,,,,,3,,,,,,0,6,6,6,1,,,,,,,,,,,,,,,,,,,,,,,,,,,,,,,,,,,,
,,,,,,,,,,,,,,,,,,,,,,,52,Female,2020-12-01_12h30.17.864,torte-2b,2020.1.3,Win32,60,14114,,,,,,,,,,,,,space,0.818155,,,,,,4,,,,,,0,7,7,7,1,,,,,,,,,,,,,,,,,,,,,,,,,,,,,,,,,,,,
,,,,,,,,,,,,,,,,,,,,,,,52,Female,2020-12-01_12h30.17.864,torte-2b,2020.1.3,Win32,60,14114,,,,,,,,,,,,,,,,,,,,3,,,,,,0,8,8,8,1,,,,,,,,,,,,,,,,,,,,,,,,,,,,,,,,,,,,
,,,,,,,,,,,,,,,,,,,,,,,52,Female,2020-12-01_12h30.17.864,torte-2b,2020.1.3,Win32,60,14114,,,,,,,,,,,,,,,,,,,,1,,,,,,0,9,9,9,1,,,,,,,,,,,,,,,,,,,,,,,,,,,,,,,,,,,,
,,,,,,,,,,,,,,,,,,,,,,,52,Female,2020-12-01_12h30.17.864,torte-2b,2020.1.3,Win32,60,14114,,,,,,,,,,,,,,,,,,,,2,,,,,,0,10,10,10,1,,,,,,,,,,,,,,,,,,,,,,,,,,,,,,,,,,,,
,,,,,,,,,,,,,,,,,,,,,,,52,Female,2020-12-01_12h30.17.864,torte-2b,2020.1.3,Win32,60,14114,,,,,,,,,,,,,space,0.46905,,,,,,1,,,,,,0,11,11,11,1,,,,,,,,,,,,,,,,,,,,,,,,,,,,,,,,,,,,
,,,,,,,,,,,,,,,,,,,,,,,52,Female,2020-12-01_12h30.17.864,torte-2b,2020.1.3,Win32,60,14114,,,,,,,,,,,,,space,1.28998,,,,,,2,,,,,,0,12,12,12,1,,,,,,,,,,,,,,,,,,,,,,,,,,,,,,,,,,,,
,,,,,,,,,,,,,,,,,,,,,,,52,Female,2020-12-01_12h30.17.864,torte-2b,2020.1.3,Win32,60,14114,,,,,,,,,,,,,space,1.945605,,,,,,1,,,,,,0,13,13,13,1,,,,,,,,,,,,,,,,,,,,,,,,,,,,,,,,,,,,
,,,,,,,,,,,,,,,,,,,,,,,52,Female,2020-12-01_12h30.17.864,torte-2b,2020.1.3,Win32,60,14114,,,,,,,,,,,,,,,,,,,,3,,,,,,0,14,14,14,1,,,,,,,,,,,,,,,,,,,,,,,,,,,,,,,,,,,,
,,,,,,,,,,,,,,,,,,,,,,,52,Female,2020-12-01_12h30.17.864,torte-2b,2020.1.3,Win32,60,14114,,,,,,,,,,,,,,,,,,,,1,,,,,,0,15,15,15,1,,,,,,,,,,,,,,,,,,,,,,,,,,,,,,,,,,,,
,,,,,,,,,,,,,,,,,,,,,,,52,Female,2020-12-01_12h30.17.864,torte-2b,2020.1.3,Win32,60,14114,,,,,,,,,,,,,,,,,,,,7,,,,,,0,16,16,16,1,,,,,,,,,,,,,,,,,,,,,,,,,,,,,,,,,,,,
,,,,,,,,,,,,,,,,,,,,,,,52,Female,2020-12-01_12h30.17.864,torte-2b,2020.1.3,Win32,60,14114,,,,,,,,,,,,,space,0.612375,,,,,,7,,,,,,0,17,17,17,1,,,,,,,,,,,,,,,,,,,,,,,,,,,,,,,,,,,,
,,,,,,,,,,,,,,,,,,,,,,,52,Female,2020-12-01_12h30.17.864,torte-2b,2020.1.3,Win32,60,14114,,,,,,,,,,,,,,,,,,,,4,,,,,,0,18,18,18,1,,,,,,,,,,,,,,,,,,,,,,,,,,,,,,,,,,,,
,,,,,,,,,,,,,,,,,,,,,,,52,Female,2020-12-01_12h30.17.864,torte-2b,2020.1.3,Win32,60,14114,,,,,,,,,,,,,space,0.56061,,,,,,7,,,,,,0,19,19,19,1,,,,,,,,,,,,,,,,,,,,,,,,,,,,,,,,,,,,
,,,,,,,,,,,,,,,,,,,,,,,52,Female,2020-12-01_12h30.17.864,torte-2b,2020.1.3,Win32,60,14114,,,,,,,,,,,,,,,,,,,,3,,,,,,0,20,20,20,1,,,,,,,,,,,,,,,,,,,,,,,,,,,,,,,,,,,,
,,,,,,,,,,,,,,,,,,,,,,,52,Female,2020-12-01_12h30.17.864,torte-2b,2020.1.3,Win32,60,14114,,,,,,,,,,,,,space,1.06178,,,,,,7,,,,,,0,21,21,21,1,,,,,,,,,,,,,,,,,,,,,,,,,,,,,,,,,,,,
,,,,,,,,,,,,,,,,,,,,,,,52,Female,2020-12-01_12h30.17.864,torte-2b,2020.1.3,Win32,60,14114,,,,,,,,,,,,,space,0.971325,,,,,,3,,,,,,0,22,22,22,1,,,,,,,,,,,,,,,,,,,,,,,,,,,,,,,,,,,,
,,,,,,,,,,,,,,,,,,,,,,,52,Female,2020-12-01_12h30.17.864,torte-2b,2020.1.3,Win32,60,14114,,,,,,,,,,,,,,,,,,,,1,,,,,,0,23,23,23,1,,,,,,,,,,,,,,,,,,,,,,,,,,,,,,,,,,,,
,,,,,,,,,,,,,,,,,,,,,,,52,Female,2020-12-01_12h30.17.864,torte-2b,2020.1.3,Win32,60,14114,,,,,,,,,,,,,,,,,,,,6,,,,,,0,24,24,24,1,,,,,,,,,,,,,,,,,,,,,,,,,,,,,,,,,,,,
,,,,,,,,,,,,,,,,,,,,,,,52,Female,2020-12-01_12h30.17.864,torte-2b,2020.1.3,Win32,60,14114,,,,,,,,,,,,,,,,,,,,3,,,,,,0,25,25,25,1,,,,,,,,,,,,,,,,,,,,,,,,,,,,,,,,,,,,
,,,,,,,,,,,,,,,,,,,,,,,52,Female,2020-12-01_12h30.17.864,torte-2b,2020.1.3,Win32,60,14114,,,,,,,,,,,,,,,,,,,,2,,,,,,0,26,26,26,1,,,,,,,,,,,,,,,,,,,,,,,,,,,,,,,,,,,,
,,,,,,,,,,,,,,,,,,,,,,,52,Female,2020-12-01_12h30.17.864,torte-2b,2020.1.3,Win32,60,14114,,,,,,,,,,,,,space,0.76883,,,,,,3,,,,,,0,27,27,27,1,,,,,,,,,,,,,,,,,,,,,,,,,,,,,,,,,,,,
,,,,,,,,,,,,,,,,,,,,,,,52,Female,2020-12-01_12h30.17.864,torte-2b,2020.1.3,Win32,60,14114,,,,,,,,,,,,,space,0.735575,,,,,,1,,,,,,0,28,28,28,1,,,,,,,,,,,,,,,,,,,,,,,,,,,,,,,,,,,,
,,,,,,,,,,,,,,,,,,,,,,,52,Female,2020-12-01_12h30.17.864,torte-2b,2020.1.3,Win32,60,14114,,,,,,,,,,,,,space,0.67861,,,,,,3,,,,,,0,29,29,29,1,,,,,,,,,,,,,,,,,,,,,,,,,,,,,,,,,,,,
,,,,,,,,,,,,,,,,,,,,,,,52,Female,2020-12-01_12h30.17.864,torte-2b,2020.1.3,Win32,60,14114,,,,,,,,,,,,,space,0.857185,,,,,,1,,,,,,0,30,30,30,1,,,,,,,,,,,,,,,,,,,,,,,,,,,,,,,,,,,,
,,,,,,,,,,,,,,,,,,,,,,,52,Female,2020-12-01_12h30.17.864,torte-2b,2020.1.3,Win32,60,14114,,,,,,,,,,,,,,,,,,,,7,,,,,,0,31,31,31,1,,,,,,,,,,,,,,,,,,,,,,,,,,,,,,,,,,,,
,,,,,,,,,,,,,,,,,,,,,,,52,Female,2020-12-01_12h30.17.864,torte-2b,2020.1.3,Win32,60,14114,,,,,,,,,,,,,,,,,,,,5,,,,,,0,32,32,32,1,,,,,,,,,,,,,,,,,,,,,,,,,,,,,,,,,,,,
,,,,,,,,,,,,,,,,,,,,,,,52,Female,2020-12-01_12h30.17.864,torte-2b,2020.1.3,Win32,60,14114,,,,,,,,,,,,,space,0.523935,,,,,,7,,,,,,0,33,33,33,1,,,,,,,,,,,,,,,,,,,,,,,,,,,,,,,,,,,,
,,,,,,,,,,,,,,,,,,,,,,,52,Female,2020-12-01_12h30.17.864,torte-2b,2020.1.3,Win32,60,14114,,,,,,,,,,,,,,,,,,,,2,,,,,,0,34,34,34,1,,,,,,,,,,,,,,,,,,,,,,,,,,,,,,,,,,,,
,,,,,,,,,,,,,,,,,,,,,,,52,Female,2020-12-01_12h30.17.864,torte-2b,2020.1.3,Win32,60,14114,,,,,,,,,,,,,,,,,,,,3,,,,,,,,,,,0,0,0,0,1,,,,,,,,,,,,,,,,,,,,,,,,,,,,,,,
,,,,,,,,,,,,,,,,,,,,,,,52,Female,2020-12-01_12h30.17.864,torte-2b,2020.1.3,Win32,60,14114,,,,,,,,,,,,,,,,,,,,7,,,,,,,,,,,0,1,1,1,1,,,,,,,,,,,,,,,,,,,,,,,,,,,,,,,
,,,,,,,,,,,,,,,,,,,,,,,52,Female,2020-12-01_12h30.17.864,torte-2b,2020.1.3,Win32,60,14114,,,,,,,,,,,,,space,0.635375,,,,,,7,,,,,,,,,,,0,2,2,2,1,,,,,,,,,,,,,,,,,,,,,,,,,,,,,,,
,,,,,,,,,,,,,,,,,,,,,,,52,Female,2020-12-01_12h30.17.864,torte-2b,2020.1.3,Win32,60,14114,,,,,,,,,,,,,,,,,,,,4,,,,,,,,,,,0,3,3,3,1,,,,,,,,,,,,,,,,,,,,,,,,,,,,,,,
,,,,,,,,,,,,,,,,,,,,,,,52,Female,2020-12-01_12h30.17.864,torte-2b,2020.1.3,Win32,60,14114,,,,,,,,,,,,,,,,,,,,5,,,,,,,,,,,0,4,4,4,1,,,,,,,,,,,,,,,,,,,,,,,,,,,,,,,
,,,,,,,,,,,,,,,,,,,,,,,52,Female,2020-12-01_12h30.17.864,torte-2b,2020.1.3,Win32,60,14114,,,,,,,,,,,,,space,0.96904,,,,,,4,,,,,,,,,,,0,5,5,5,1,,,,,,,,,,,,,,,,,,,,,,,,,,,,,,,
,,,,,,,,,,,,,,,,,,,,,,,52,Female,2020-12-01_12h30.17.864,torte-2b,2020.1.3,Win32,60,14114,,,,,,,,,,,,,,,,,,,,2,,,,,,,,,,,0,6,6,6,1,,,,,,,,,,,,,,,,,,,,,,,,,,,,,,,
,,,,,,,,,,,,,,,,,,,,,,,52,Female,2020-12-01_12h30.17.864,torte-2b,2020.1.3,Win32,60,14114,,,,,,,,,,,,,space,0.55137,,,,,,4,,,,,,,,,,,0,7,7,7,1,,,,,,,,,,,,,,,,,,,,,,,,,,,,,,,
,,,,,,,,,,,,,,,,,,,,,,,52,Female,2020-12-01_12h30.17.864,torte-2b,2020.1.3,Win32,60,14114,,,,,,,,,,,,,space,0.537175,,,,,,2,,,,,,,,,,,0,8,8,8,1,,,,,,,,,,,,,,,,,,,,,,,,,,,,,,,
,,,,,,,,,,,,,,,,,,,,,,,52,Female,2020-12-01_12h30.17.864,torte-2b,2020.1.3,Win32,60,14114,,,,,,,,,,,,,,,,,,,,2,,,,,,,,,,,0,9,9,9,1,,,,,,,,,,,,,,,,,,,,,,,,,,,,,,,
,,,,,,,,,,,,,,,,,,,,,,,52,Female,2020-12-01_12h30.17.864,torte-2b,2020.1.3,Win32,60,14114,,,,,,,,,,,,,,,,,,,,6,,,,,,,,,,,0,10,10,10,1,,,,,,,,,,,,,,,,,,,,,,,,,,,,,,,
,,,,,,,,,,,,,,,,,,,,,,,52,Female,2020-12-01_12h30.17.864,torte-2b,2020.1.3,Win32,60,14114,,,,,,,,,,,,,space,0.56922,,,,,,2,,,,,,,,,,,0,11,11,11,1,,,,,,,,,,,,,,,,,,,,,,,,,,,,,,,
,,,,,,,,,,,,,,,,,,,,,,,52,Female,2020-12-01_12h30.17.864,torte-2b,2020.1.3,Win32,60,14114,,,,,,,,,,,,,,,,,,,,2,,,,,,,,,,,0,12,12,12,1,,,,,,,,,,,,,,,,,,,,,,,,,,,,,,,
,,,,,,,,,,,,,,,,,,,,,,,52,Female,2020-12-01_12h30.17.864,torte-2b,2020.1.3,Win32,60,14114,,,,,,,,,,,,,space,0.504645,,,,,,2,,,,,,,,,,,0,13,13,13,1,,,,,,,,,,,,,,,,,,,,,,,,,,,,,,,
,,,,,,,,,,,,,,,,,,,,,,,52,Female,2020-12-01_12h30.17.864,torte-2b,2020.1.3,Win32,60,14114,,,,,,,,,,,,,space,0.768115,,,,,,2,,,,,,,,,,,0,14,14,14,1,,,,,,,,,,,,,,,,,,,,,,,,,,,,,,,
,,,,,,,,,,,,,,,,,,,,,,,52,Female,2020-12-01_12h30.17.864,torte-2b,2020.1.3,Win32,60,14114,,,,,,,,,,,,,,,,,,,,4,,,,,,,,,,,0,15,15,15,1,,,,,,,,,,,,,,,,,,,,,,,,,,,,,,,
,,,,,,,,,,,,,,,,,,,,,,,52,Female,2020-12-01_12h30.17.864,torte-2b,2020.1.3,Win32,60,14114,,,,,,,,,,,,,,,,,,,,3,,,,,,,,,,,0,16,16,16,1,,,,,,,,,,,,,,,,,,,,,,,,,,,,,,,
,,,,,,,,,,,,,,,,,,,,,,,52,Female,2020-12-01_12h30.17.864,torte-2b,2020.1.3,Win32,60,14114,,,,,,,,,,,,,,,,,,,,7,,,,,,,,,,,0,17,17,17,1,,,,,,,,,,,,,,,,,,,,,,,,,,,,,,,
,,,,,,,,,,,,,,,,,,,,,,,52,Female,2020-12-01_12h30.17.864,torte-2b,2020.1.3,Win32,60,14114,,,,,,,,,,,,,,,,,,,,4,,,,,,,,,,,0,18,18,18,1,,,,,,,,,,,,,,,,,,,,,,,,,,,,,,,
,,,,,,,,,,,,,,,,,,,,,,,52,Female,2020-12-01_12h30.17.864,torte-2b,2020.1.3,Win32,60,14114,,,,,,,,,,,,,space,0.6355,,,,,,7,,,,,,,,,,,0,19,19,19,1,,,,,,,,,,,,,,,,,,,,,,,,,,,,,,,
,,,,,,,,,,,,,,,,,,,,,,,52,Female,2020-12-01_12h30.17.864,torte-2b,2020.1.3,Win32,60,14114,,,,,,,,,,,,,space,0.745565,,,,,,7,,,,,,,,,,,0,20,20,20,1,,,,,,,,,,,,,,,,,,,,,,,,,,,,,,,
,,,,,,,,,,,,,,,,,,,,,,,52,Female,2020-12-01_12h30.17.864,torte-2b,2020.1.3,Win32,60,14114,,,,,,,,,,,,,space,0.528175,,,,,,7,,,,,,,,,,,0,21,21,21,1,,,,,,,,,,,,,,,,,,,,,,,,,,,,,,,
,,,,,,,,,,,,,,,,,,,,,,,52,Female,2020-12-01_12h30.17.864,torte-2b,2020.1.3,Win32,60,14114,,,,,,,,,,,,,space,0.4349,,,,,,7,,,,,,,,,,,0,22,22,22,1,,,,,,,,,,,,,,,,,,,,,,,,,,,,,,,
,,,,,,,,,,,,,,,,,,,,,,,52,Female,2020-12-01_12h30.17.864,torte-2b,2020.1.3,Win32,60,14114,,,,,,,,,,,,,,,,,,,,1,,,,,,,,,,,0,23,23,23,1,,,,,,,,,,,,,,,,,,,,,,,,,,,,,,,
,,,,,,,,,,,,,,,,,,,,,,,52,Female,2020-12-01_12h30.17.864,torte-2b,2020.1.3,Win32,60,14114,,,,,,,,,,,,,space,0.902195,,,,,,7,,,,,,,,,,,0,24,24,24,1,,,,,,,,,,,,,,,,,,,,,,,,,,,,,,,
,,,,,,,,,,,,,,,,,,,,,,,52,Female,2020-12-01_12h30.17.864,torte-2b,2020.1.3,Win32,60,14114,,,,,,,,,,,,,space,0.804505,,,,,,1,,,,,,,,,,,0,25,25,25,1,,,,,,,,,,,,,,,,,,,,,,,,,,,,,,,
,,,,,,,,,,,,,,,,,,,,,,,52,Female,2020-12-01_12h30.17.864,torte-2b,2020.1.3,Win32,60,14114,,,,,,,,,,,,,space,0.45769,,,,,,7,,,,,,,,,,,0,26,26,26,1,,,,,,,,,,,,,,,,,,,,,,,,,,,,,,,
,,,,,,,,,,,,,,,,,,,,,,,52,Female,2020-12-01_12h30.17.864,torte-2b,2020.1.3,Win32,60,14114,,,,,,,,,,,,,,,,,,,,2,,,,,,,,,,,0,27,27,27,1,,,,,,,,,,,,,,,,,,,,,,,,,,,,,,,
,,,,,,,,,,,,,,,,,,,,,,,52,Female,2020-12-01_12h30.17.864,torte-2b,2020.1.3,Win32,60,14114,,,,,,,,,,,,,,,,,,,,5,,,,,,,,,,,0,28,28,28,1,,,,,,,,,,,,,,,,,,,,,,,,,,,,,,,
,,,,,,,,,,,,,,,,,,,,,,,52,Female,2020-12-01_12h30.17.864,torte-2b,2020.1.3,Win32,60,14114,,,,,,,,,,,,,,,,,,,,5,,,,,,,,,,,0,29,29,29,1,,,,,,,,,,,,,,,,,,,,,,,,,,,,,,,
,,,,,,,,,,,,,,,,,,,,,,,52,Female,2020-12-01_12h30.17.864,torte-2b,2020.1.3,Win32,60,14114,,,,,,,,,,,,,space,0.40529,,,,,,5,,,,,,,,,,,0,30,30,30,1,,,,,,,,,,,,,,,,,,,,,,,,,,,,,,,
,,,,,,,,,,,,,,,,,,,,,,,52,Female,2020-12-01_12h30.17.864,torte-2b,2020.1.3,Win32,60,14114,,,,,,,,,,,,,,,,,,,,1,,,,,,,,,,,0,31,31,31,1,,,,,,,,,,,,,,,,,,,,,,,,,,,,,,,
,,,,,,,,,,,,,,,,,,,,,,,52,Female,2020-12-01_12h30.17.864,torte-2b,2020.1.3,Win32,60,14114,,,,,,,,,,,,,space,0.377085,,,,,,5,,,,,,,,,,,0,32,32,32,1,,,,,,,,,,,,,,,,,,,,,,,,,,,,,,,
,,,,,,,,,,,,,,,,,,,,,,,52,Female,2020-12-01_12h30.17.864,torte-2b,2020.1.3,Win32,60,14114,,,,,,,,,,,,,,,,,,,,3,,,,,,,,,,,0,33,33,33,1,,,,,,,,,,,,,,,,,,,,,,,,,,,,,,,
,,,,,,,,,,,,,,,,,,,,,,,52,Female,2020-12-01_12h30.17.864,torte-2b,2020.1.3,Win32,60,14114,,,,,,,,,,,,,space,0.618455,,,,,,3,,,,,,,,,,,0,34,34,34,1,,,,,,,,,,,,,,,,,,,,,,,,,,,,,,,
,,,,,,,,,,,,l,Incorrect,,,,,,t2.png,t1.png,1,0.90025,52,Female,2020-12-01_12h30.17.864,torte-2b,2020.1.3,Win32,60,14114,1.15243,space,1.71997,,,,,,,,,,,,,,,,,,,,,,,,,,,,,,,,,space,24.20575,0,0,0,5,1,,,,,,,,,,,,,,,,,,,,,,,,
,,,,,,,,,,,,,Too slow :(,,,,,,t2.png,t5.png,3,0.0000131,52,Female,2020-12-01_12h30.17.864,torte-2b,2020.1.3,Win32,60,14114,,,,,,,,,,,,,,,,,,,,,,,,,,,,,,,,,,,,,,0,1,1,66,1,,,,,,,,,,,,,,,,,,,,,,,,
,,,,,,,,,,,,l,Correct!,,,,,,t1.png,t3.png,2,0.056466,52,Female,2020-12-01_12h30.17.864,torte-2b,2020.1.3,Win32,60,14114,1.187155,,,,,,,,,,,,,,,,,,,,,,,,,,,,,,,,,,,,,0,2,2,63,1,,,,,,,,,,,,,,,,,,,,,,,,
,,,,,,,,,,,,a,Correct!,,,,,,t5.png,t5.png,0,0.97829,52,Female,2020-12-01_12h30.17.864,torte-2b,2020.1.3,Win32,60,14114,0.69314,,,,,,,,,,,,,,,,,,,,,,,,,,,,,,,,,,,,,0,3,3,94,1,,,,,,,,,,,,,,,,,,,,,,,,
,,,,,,,,,,,,l,Correct!,,,,,,t4.png,t1.png,3,0.0000131,52,Female,2020-12-01_12h30.17.864,torte-2b,2020.1.3,Win32,60,14114,0.82746,,,,,,,,,,,,,,,,,,,,,,,,,,,,,,,,,,,,,0,4,4,13,1,,,,,,,,,,,,,,,,,,,,,,,,
,,,,,,,,,,,,l,Correct!,,,,,,t2.png,t5.png,3,0.0000131,52,Female,2020-12-01_12h30.17.864,torte-2b,2020.1.3,Win32,60,14114,0.986185,,,,,,,,,,,,,,,,,,,,,,,,,,,,,,,,,,,,,0,5,5,8,1,,,,,,,,,,,,,,,,,,,,,,,,
,,,,,,,,,,,,a,Incorrect,,,,,,t5.png,t1.png,4,9.55E-11,52,Female,2020-12-01_12h30.17.864,torte-2b,2020.1.3,Win32,60,14114,1.10961,,,,,,,,,,,,,,,,,,,,,,,,,,,,,,,,,,,,,0,6,6,43,1,,,,,,,,,,,,,,,,,,,,,,,,
,,,,,,,,,,,,l,Correct!,,,,,,t5.png,t2.png,3,0.0000131,52,Female,2020-12-01_12h30.17.864,torte-2b,2020.1.3,Win32,60,14114,0.886955,,,,,,,,,,,,,,,,,,,,,,,,,,,,,,,,,,,,,0,7,7,91,1,,,,,,,,,,,,,,,,,,,,,,,,
,,,,,,,,,,,,l,Incorrect,,,,,,t3.png,t2.png,1,0.909,52,Female,2020-12-01_12h30.17.864,torte-2b,2020.1.3,Win32,60,14114,1.951715,,,,,,,,,,,,,,,,,,,,,,,,,,,,,,,,,,,,,0,8,8,3,1,,,,,,,,,,,,,,,,,,,,,,,,
,,,,,,,,,,,,l,Incorrect,,,,,,t4.png,t5.png,1,0.90025,52,Female,2020-12-01_12h30.17.864,torte-2b,2020.1.3,Win32,60,14114,1.472785,,,,,,,,,,,,,,,,,,,,,,,,,,,,,,,,,,,,,0,9,9,58,1,,,,,,,,,,,,,,,,,,,,,,,,
,,,,,,,,,,,,l,Correct!,,,,,,t5.png,t2.png,3,0.0000131,52,Female,2020-12-01_12h30.17.864,torte-2b,2020.1.3,Win32,60,14114,0.98595,,,,,,,,,,,,,,,,,,,,,,,,,,,,,,,,,,,,,0,10,10,116,1,,,,,,,,,,,,,,,,,,,,,,,,
,,,,,,,,,,,,l,Incorrect,,,,,,t5.png,t4.png,1,0.90025,52,Female,2020-12-01_12h30.17.864,torte-2b,2020.1.3,Win32,60,14114,1.252735,,,,,,,,,,,,,,,,,,,,,,,,,,,,,,,,,,,,,0,11,11,26,1,,,,,,,,,,,,,,,,,,,,,,,,
,,,,,,,,,,,,l,Incorrect,,,,,,t2.png,t3.png,1,0.90855,52,Female,2020-12-01_12h30.17.864,torte-2b,2020.1.3,Win32,60,14114,1.10399,,,,,,,,,,,,,,,,,,,,,,,,,,,,,,,,,,,,,0,12,12,65,1,,,,,,,,,,,,,,,,,,,,,,,,
,,,,,,,,,,,,l,Correct!,,,,,,t3.png,t1.png,2,0.056466,52,Female,2020-12-01_12h30.17.864,torte-2b,2020.1.3,Win32,60,14114,0.929345,,,,,,,,,,,,,,,,,,,,,,,,,,,,,,,,,,,,,0,13,13,32,1,,,,,,,,,,,,,,,,,,,,,,,,
,,,,,,,,,,,,l,Incorrect,,,,,,t2.png,t3.png,1,0.909,52,Female,2020-12-01_12h30.17.864,torte-2b,2020.1.3,Win32,60,14114,0.927435,,,,,,,,,,,,,,,,,,,,,,,,,,,,,,,,,,,,,0,14,14,74,1,,,,,,,,,,,,,,,,,,,,,,,,
,,,,,,,,,,,,,Too slow :(,,,,,,t4.png,t5.png,1,0.90025,52,Female,2020-12-01_12h30.17.864,torte-2b,2020.1.3,Win32,60,14114,,,,,,,,,,,,,,,,,,,,,,,,,,,,,,,,,,,,,,0,15,15,47,1,,,,,,,,,,,,,,,,,,,,,,,,
,,,,,,,,,,,,l,Incorrect,,,,,,t1.png,t2.png,1,0.90025,52,Female,2020-12-01_12h30.17.864,torte-2b,2020.1.3,Win32,60,14114,1.001425,,,,,,,,,,,,,,,,,,,,,,,,,,,,,,,,,,,,,0,16,16,72,1,,,,,,,,,,,,,,,,,,,,,,,,
,,,,,,,,,,,,a,Correct!,,,,,,t2.png,t2.png,0,0.98115,52,Female,2020-12-01_12h30.17.864,torte-2b,2020.1.3,Win32,60,14114,1.3399,,,,,,,,,,,,,,,,,,,,,,,,,,,,,,,,,,,,,0,17,17,59,1,,,,,,,,,,,,,,,,,,,,,,,,
,,,,,,,,,,,,l,Correct!,,,,,,t2.png,t5.png,3,0.0000131,52,Female,2020-12-01_12h30.17.864,torte-2b,2020.1.3,Win32,60,14114,0.72589,,,,,,,,,,,,,,,,,,,,,,,,,,,,,,,,,,,,,0,18,18,40,1,,,,,,,,,,,,,,,,,,,,,,,,
,,,,,,,,,,,,l,Correct!,,,,,,t3.png,t5.png,2,0.056466,52,Female,2020-12-01_12h30.17.864,torte-2b,2020.1.3,Win32,60,14114,0.912065,,,,,,,,,,,,,,,,,,,,,,,,,,,,,,,,,,,,,0,19,19,14,1,,,,,,,,,,,,,,,,,,,,,,,,
,,,,,,,,,,,,a,Correct!,,,,,,t4.png,t4.png,0,0.98115,52,Female,2020-12-01_12h30.17.864,torte-2b,2020.1.3,Win32,60,14114,1.295145,,,,,,,,,,,,,,,,,,,,,,,,,,,,,,,,,,,,,0,20,20,21,1,,,,,,,,,,,,,,,,,,,,,,,,
,,,,,,,,,,,,l,Correct!,,,,,,t2.png,t4.png,2,0.0591,52,Female,2020-12-01_12h30.17.864,torte-2b,2020.1.3,Win32,60,14114,1.10211,,,,,,,,,,,,,,,,,,,,,,,,,,,,,,,,,,,,,0,21,21,15,1,,,,,,,,,,,,,,,,,,,,,,,,
,,,,,,,,,,,,l,Correct!,,,,,,t1.png,t5.png,4,9.55E-11,52,Female,2020-12-01_12h30.17.864,torte-2b,2020.1.3,Win32,60,14114,1.186165,,,,,,,,,,,,,,,,,,,,,,,,,,,,,,,,,,,,,0,22,22,16,1,,,,,,,,,,,,,,,,,,,,,,,,
,,,,,,,,,,,,a,Correct!,,,,,,t2.png,t2.png,0,0.98115,52,Female,2020-12-01_12h30.17.864,torte-2b,2020.1.3,Win32,60,14114,1.159275,,,,,,,,,,,,,,,,,,,,,,,,,,,,,,,,,,,,,0,23,23,7,1,,,,,,,,,,,,,,,,,,,,,,,,
,,,,,,,,,,,,l,Correct!,,,,,,t4.png,t2.png,2,0.059078,52,Female,2020-12-01_12h30.17.864,torte-2b,2020.1.3,Win32,60,14114,1.0265,,,,,,,,,,,,,,,,,,,,,,,,,,,,,,,,,,,,,0,24,24,110,1,,,,,,,,,,,,,,,,,,,,,,,,
,,,,,,,,,,,,l,Incorrect,,,,,,t3.png,t4.png,1,0.909,52,Female,2020-12-01_12h30.17.864,torte-2b,2020.1.3,Win32,60,14114,1.589255,,,,,,,,,,,,,,,,,,,,,,,,,,,,,,,,,,,,,0,25,25,82,1,,,,,,,,,,,,,,,,,,,,,,,,
,,,,,,,,,,,,l,Correct!,,,,,,t3.png,t1.png,2,0.0565,52,Female,2020-12-01_12h30.17.864,torte-2b,2020.1.3,Win32,60,14114,0.83602,,,,,,,,,,,,,,,,,,,,,,,,,,,,,,,,,,,,,0,26,26,31,1,,,,,,,,,,,,,,,,,,,,,,,,
,,,,,,,,,,,,a,Correct!,,,,,,t5.png,t5.png,0,0.97829,52,Female,2020-12-01_12h30.17.864,torte-2b,2020.1.3,Win32,60,14114,1.15334,,,,,,,,,,,,,,,,,,,,,,,,,,,,,,,,,,,,,0,27,27,73,1,,,,,,,,,,,,,,,,,,,,,,,,
,,,,,,,,,,,,l,Incorrect,,,,,,t2.png,t1.png,1,0.90025,52,Female,2020-12-01_12h30.17.864,torte-2b,2020.1.3,Win32,60,14114,0.688475,,,,,,,,,,,,,,,,,,,,,,,,,,,,,,,,,,,,,0,28,28,4,1,,,,,,,,,,,,,,,,,,,,,,,,
,,,,,,,,,,,,l,Incorrect,,,,,,t3.png,t4.png,1,0.90855,52,Female,2020-12-01_12h30.17.864,torte-2b,2020.1.3,Win32,60,14114,0.9186,,,,,,,,,,,,,,,,,,,,,,,,,,,,,,,,,,,,,0,29,29,84,1,,,,,,,,,,,,,,,,,,,,,,,,
,,,,,,,,,,,,l,Incorrect,,,,,,t5.png,t4.png,1,0.9,52,Female,2020-12-01_12h30.17.864,torte-2b,2020.1.3,Win32,60,14114,2.168655,,,,,,,,,,,,,,,,,,,,,,,,,,,,,,,,,,,,,0,30,30,49,1,,,,,,,,,,,,,,,,,,,,,,,,
,,,,,,,,,,,,l,Incorrect,,,,,,t1.png,t2.png,1,0.90025,52,Female,2020-12-01_12h30.17.864,torte-2b,2020.1.3,Win32,60,14114,1.68004,,,,,,,,,,,,,,,,,,,,,,,,,,,,,,,,,,,,,0,31,31,33,1,,,,,,,,,,,,,,,,,,,,,,,,
,,,,,,,,,,,,a,Correct!,,,,,,t3.png,t4.png,1,0.909,52,Female,2020-12-01_12h30.17.864,torte-2b,2020.1.3,Win32,60,14114,1.30295,,,,,,,,,,,,,,,,,,,,,,,,,,,,,,,,,,,,,0,32,32,89,1,,,,,,,,,,,,,,,,,,,,,,,,
,,,,,,,,,,,,l,Correct!,,,,,,t1.png,t5.png,4,9.55E-11,52,Female,2020-12-01_12h30.17.864,torte-2b,2020.1.3,Win32,60,14114,1.696825,,,,,,,,,,,,,,,,,,,,,,,,,,,,,,,,,,,,,0,33,33,85,1,,,,,,,,,,,,,,,,,,,,,,,,
,,,,,,,,,,,,l,Incorrect,,,,,,t3.png,t2.png,1,0.90855,52,Female,2020-12-01_12h30.17.864,torte-2b,2020.1.3,Win32,60,14114,1.15938,,,,,,,,,,,,,,,,,,,,,,,,,,,,,,,,,,,,,0,34,34,97,1,,,,,,,,,,,,,,,,,,,,,,,,
,,,,,,,,,,,,a,Correct!,,,,,,t4.png,t3.png,1,0.90855,52,Female,2020-12-01_12h30.17.864,torte-2b,2020.1.3,Win32,60,14114,2.13574,,,,,,,,,,,,,,,,,,,,,,,,,,,,,,,,,,,,,0,35,35,45,1,,,,,,,,,,,,,,,,,,,,,,,,
,,,,,,,,,,,,,Too slow :(,,,,,,t3.png,t5.png,2,0.0565,52,Female,2020-12-01_12h30.17.864,torte-2b,2020.1.3,Win32,60,14114,,,,,,,,,,,,,,,,,,,,,,,,,,,,,,,,,,,,,,0,36,36,83,1,,,,,,,,,,,,,,,,,,,,,,,,
,,,,,,,,,,,,l,Correct!,,,,,,t1.png,t4.png,3,0.0000131,52,Female,2020-12-01_12h30.17.864,torte-2b,2020.1.3,Win32,60,14114,1.336085,,,,,,,,,,,,,,,,,,,,,,,,,,,,,,,,,,,,,0,37,37,50,1,,,,,,,,,,,,,,,,,,,,,,,,
,,,,,,,,,,,,a,Correct!,,,,,,t1.png,t1.png,0,0.97829,52,Female,2020-12-01_12h30.17.864,torte-2b,2020.1.3,Win32,60,14114,0.860205,,,,,,,,,,,,,,,,,,,,,,,,,,,,,,,,,,,,,0,38,38,67,1,,,,,,,,,,,,,,,,,,,,,,,,
,,,,,,,,,,,,l,Correct!,,,,,,t2.png,t4.png,2,0.059078,52,Female,2020-12-01_12h30.17.864,torte-2b,2020.1.3,Win32,60,14114,0.975635,,,,,,,,,,,,,,,,,,,,,,,,,,,,,,,,,,,,,0,39,39,77,1,,,,,,,,,,,,,,,,,,,,,,,,
,,,,,,,,,,,,a,Correct!,,,,,,t2.png,t2.png,0,0.98115,52,Female,2020-12-01_12h30.17.864,torte-2b,2020.1.3,Win32,60,14114,0.7928,,,,,,,,,,,,,,,,,,,,,,,,,,,,,,,,,,,,,0,40,40,57,1,,,,,,,,,,,,,,,,,,,,,,,,
,,,,,,,,,,,,l,Incorrect,,,,,,t1.png,t1.png,0,0.978,52,Female,2020-12-01_12h30.17.864,torte-2b,2020.1.3,Win32,60,14114,0.673475,,,,,,,,,,,,,,,,,,,,,,,,,,,,,,,,,,,,,0,41,41,54,1,,,,,,,,,,,,,,,,,,,,,,,,
,,,,,,,,,,,,a,Incorrect,,,,,,t4.png,t2.png,2,0.0591,52,Female,2020-12-01_12h30.17.864,torte-2b,2020.1.3,Win32,60,14114,1.269555,,,,,,,,,,,,,,,,,,,,,,,,,,,,,,,,,,,,,0,42,42,36,1,,,,,,,,,,,,,,,,,,,,,,,,
,,,,,,,,,,,,l,Incorrect,,,,,,t3.png,t4.png,1,0.909,52,Female,2020-12-01_12h30.17.864,torte-2b,2020.1.3,Win32,60,14114,0.905475,,,,,,,,,,,,,,,,,,,,,,,,,,,,,,,,,,,,,0,43,43,106,1,,,,,,,,,,,,,,,,,,,,,,,,
,,,,,,,,,,,,a,Correct!,,,,,,t4.png,t3.png,1,0.909,52,Female,2020-12-01_12h30.17.864,torte-2b,2020.1.3,Win32,60,14114,1.176795,,,,,,,,,,,,,,,,,,,,,,,,,,,,,,,,,,,,,0,44,44,20,1,,,,,,,,,,,,,,,,,,,,,,,,
,,,,,,,,,,,,l,Incorrect,,,,,,t1.png,t2.png,1,0.90025,52,Female,2020-12-01_12h30.17.864,torte-2b,2020.1.3,Win32,60,14114,1.26804,,,,,,,,,,,,,,,,,,,,,,,,,,,,,,,,,,,,,0,45,45,112,1,,,,,,,,,,,,,,,,,,,,,,,,
,,,,,,,,,,,,l,Correct!,,,,,,t4.png,t1.png,3,0.0000131,52,Female,2020-12-01_12h30.17.864,torte-2b,2020.1.3,Win32,60,14114,1.245125,,,,,,,,,,,,,,,,,,,,,,,,,,,,,,,,,,,,,0,46,46,42,1,,,,,,,,,,,,,,,,,,,,,,,,
,,,,,,,,,,,,l,Correct!,,,,,,t5.png,t1.png,4,9.55E-11,52,Female,2020-12-01_12h30.17.864,torte-2b,2020.1.3,Win32,60,14114,0.785965,,,,,,,,,,,,,,,,,,,,,,,,,,,,,,,,,,,,,0,47,47,100,1,,,,,,,,,,,,,,,,,,,,,,,,
,,,,,,,,,,,,a,Correct!,,,,,,t4.png,t4.png,0,0.98115,52,Female,2020-12-01_12h30.17.864,torte-2b,2020.1.3,Win32,60,14114,2.21177,,,,,,,,,,,,,,,,,,,,,,,,,,,,,,,,,,,,,0,48,48,79,1,,,,,,,,,,,,,,,,,,,,,,,,
,,,,,,,,,,,,l,Correct!,,,,,,t1.png,t3.png,2,0.056466,52,Female,2020-12-01_12h30.17.864,torte-2b,2020.1.3,Win32,60,14114,0.8075,,,,,,,,,,,,,,,,,,,,,,,,,,,,,,,,,,,,,0,49,49,69,1,,,,,,,,,,,,,,,,,,,,,,,,
,,,,,,,,,,,,l,Incorrect,,,,,,t1.png,t1.png,0,0.97829,52,Female,2020-12-01_12h30.17.864,torte-2b,2020.1.3,Win32,60,14114,0.628775,,,,,,,,,,,,,,,,,,,,,,,,,,,,,,,,,,,,,0,50,50,78,1,,,,,,,,,,,,,,,,,,,,,,,,
,,,,,,,,,,,,l,Correct!,,,,,,t1.png,t3.png,2,0.056466,52,Female,2020-12-01_12h30.17.864,torte-2b,2020.1.3,Win32,60,14114,0.70876,,,,,,,,,,,,,,,,,,,,,,,,,,,,,,,,,,,,,0,51,51,99,1,,,,,,,,,,,,,,,,,,,,,,,,
,,,,,,,,,,,,l,Correct!,,,,,,t1.png,t3.png,2,0.056466,52,Female,2020-12-01_12h30.17.864,torte-2b,2020.1.3,Win32,60,14114,0.559535,,,,,,,,,,,,,,,,,,,,,,,,,,,,,,,,,,,,,0,52,52,87,1,,,,,,,,,,,,,,,,,,,,,,,,
,,,,,,,,,,,,l,Correct!,,,,,,t5.png,t1.png,4,9.55E-11,52,Female,2020-12-01_12h30.17.864,torte-2b,2020.1.3,Win32,60,14114,0.78502,,,,,,,,,,,,,,,,,,,,,,,,,,,,,,,,,,,,,0,53,53,22,1,,,,,,,,,,,,,,,,,,,,,,,,
,,,,,,,,,,,,l,Correct!,,,,,,t3.png,t1.png,2,0.056466,52,Female,2020-12-01_12h30.17.864,torte-2b,2020.1.3,Win32,60,14114,0.452495,,,,,,,,,,,,,,,,,,,,,,,,,,,,,,,,,,,,,0,54,54,29,1,,,,,,,,,,,,,,,,,,,,,,,,
,,,,,,,,,,,,l,Correct!,,,,,,t2.png,t4.png,2,0.059078,52,Female,2020-12-01_12h30.17.864,torte-2b,2020.1.3,Win32,60,14114,1.358775,,,,,,,,,,,,,,,,,,,,,,,,,,,,,,,,,,,,,0,55,55,37,1,,,,,,,,,,,,,,,,,,,,,,,,
,,,,,,,,,,,,l,Correct!,,,,,,t3.png,t5.png,2,0.0565,52,Female,2020-12-01_12h30.17.864,torte-2b,2020.1.3,Win32,60,14114,0.705695,,,,,,,,,,,,,,,,,,,,,,,,,,,,,,,,,,,,,0,56,56,30,1,,,,,,,,,,,,,,,,,,,,,,,,
,,,,,,,,,,,,l,Correct!,,,,,,t5.png,t2.png,3,0.0000131,52,Female,2020-12-01_12h30.17.864,torte-2b,2020.1.3,Win32,60,14114,0.617355,,,,,,,,,,,,,,,,,,,,,,,,,,,,,,,,,,,,,0,57,57,98,1,,,,,,,,,,,,,,,,,,,,,,,,
,,,,,,,,,,,,l,Incorrect,,,,,,t1.png,t2.png,1,0.90025,52,Female,2020-12-01_12h30.17.864,torte-2b,2020.1.3,Win32,60,14114,0.635015,,,,,,,,,,,,,,,,,,,,,,,,,,,,,,,,,,,,,0,58,58,105,1,,,,,,,,,,,,,,,,,,,,,,,,
,,,,,,,,,,,,,Too slow :(,,,,,,t2.png,t4.png,2,0.059078,52,Female,2020-12-01_12h30.17.864,torte-2b,2020.1.3,Win32,60,14114,,,,,,,,,,,,,,,,,,,,,,,,,,,,,,,,,,,,,,0,59,59,24,1,,,,,,,,,,,,,,,,,,,,,,,,
,,,,,,,,,,,,l,Correct!,,,,,,t5.png,t2.png,3,0.0000131,52,Female,2020-12-01_12h30.17.864,torte-2b,2020.1.3,Win32,60,14114,0.904295,,,,,,,,,,,,,,,,,,,,,,,,,,,,,,,,,,,,,0,60,60,51,1,,,,,,,,,,,,,,,,,,,,,,,,
,,,,,,,,,,,,l,Incorrect,,,,,,t2.png,t3.png,1,0.90855,52,Female,2020-12-01_12h30.17.864,torte-2b,2020.1.3,Win32,60,14114,0.55176,,,,,,,,,,,,,,,,,,,,,,,,,,,,,,,,,,,,,0,61,61,68,1,,,,,,,,,,,,,,,,,,,,,,,,
,,,,,,,,,,,,l,Incorrect,,,,,,t4.png,t5.png,1,0.9,52,Female,2020-12-01_12h30.17.864,torte-2b,2020.1.3,Win32,60,14114,1.525225,,,,,,,,,,,,,,,,,,,,,,,,,,,,,,,,,,,,,0,62,62,115,1,,,,,,,,,,,,,,,,,,,,,,,,
,,,,,,,,,,,,l,Correct!,,,,,,t4.png,t5.png,1,0.90025,52,Female,2020-12-01_12h30.17.864,torte-2b,2020.1.3,Win32,60,14114,0.801875,,,,,,,,,,,,,,,,,,,,,,,,,,,,,,,,,,,,,0,63,63,113,1,,,,,,,,,,,,,,,,,,,,,,,,
,,,,,,,,,,,,l,Correct!,,,,,,t1.png,t5.png,4,9.55E-11,52,Female,2020-12-01_12h30.17.864,torte-2b,2020.1.3,Win32,60,14114,0.736145,,,,,,,,,,,,,,,,,,,,,,,,,,,,,,,,,,,,,0,64,64,41,1,,,,,,,,,,,,,,,,,,,,,,,,
,,,,,,,,,,,,l,Correct!,,,,,,t4.png,t2.png,2,0.059078,52,Female,2020-12-01_12h30.17.864,torte-2b,2020.1.3,Win32,60,14114,0.703145,,,,,,,,,,,,,,,,,,,,,,,,,,,,,,,,,,,,,0,65,65,88,1,,,,,,,,,,,,,,,,,,,,,,,,
,,,,,,,,,,,,l,Correct!,,,,,,t4.png,t1.png,3,0.0000131,52,Female,2020-12-01_12h30.17.864,torte-2b,2020.1.3,Win32,60,14114,0.528105,,,,,,,,,,,,,,,,,,,,,,,,,,,,,,,,,,,,,0,66,66,93,1,,,,,,,,,,,,,,,,,,,,,,,,
,,,,,,,,,,,,l,Correct!,,,,,,t3.png,t5.png,2,0.056466,52,Female,2020-12-01_12h30.17.864,torte-2b,2020.1.3,Win32,60,14114,0.55251,,,,,,,,,,,,,,,,,,,,,,,,,,,,,,,,,,,,,0,67,67,6,1,,,,,,,,,,,,,,,,,,,,,,,,
,,,,,,,,,,,,l,Correct!,,,,,,t4.png,t1.png,3,0.0000131,52,Female,2020-12-01_12h30.17.864,torte-2b,2020.1.3,Win32,60,14114,0.519705,,,,,,,,,,,,,,,,,,,,,,,,,,,,,,,,,,,,,0,68,68,61,1,,,,,,,,,,,,,,,,,,,,,,,,
,,,,,,,,,,,,a,Correct!,,,,,,t5.png,t5.png,0,0.97829,52,Female,2020-12-01_12h30.17.864,torte-2b,2020.1.3,Win32,60,14114,1.10329,,,,,,,,,,,,,,,,,,,,,,,,,,,,,,,,,,,,,0,69,69,25,1,,,,,,,,,,,,,,,,,,,,,,,,
,,,,,,,,,,,,l,Correct!,,,,,,t3.png,t5.png,2,0.056466,52,Female,2020-12-01_12h30.17.864,torte-2b,2020.1.3,Win32,60,14114,0.69348,,,,,,,,,,,,,,,,,,,,,,,,,,,,,,,,,,,,,0,70,70,44,1,,,,,,,,,,,,,,,,,,,,,,,,
,,,,,,,,,,,,l,Correct!,,,,,,t5.png,t2.png,3,0.0000131,52,Female,2020-12-01_12h30.17.864,torte-2b,2020.1.3,Win32,60,14114,0.56819,,,,,,,,,,,,,,,,,,,,,,,,,,,,,,,,,,,,,0,71,71,119,1,,,,,,,,,,,,,,,,,,,,,,,,
,,,,,,,,,,,,l,Correct!,,,,,,t5.png,t1.png,4,9.55E-11,52,Female,2020-12-01_12h30.17.864,torte-2b,2020.1.3,Win32,60,14114,0.670795,,,,,,,,,,,,,,,,,,,,,,,,,,,,,,,,,,,,,0,72,72,102,1,,,,,,,,,,,,,,,,,,,,,,,,
,,,,,,,,,,,,l,Correct!,,,,,,t1.png,t5.png,4,9.55E-11,52,Female,2020-12-01_12h30.17.864,torte-2b,2020.1.3,Win32,60,14114,0.49622,,,,,,,,,,,,,,,,,,,,,,,,,,,,,,,,,,,,,0,73,73,12,1,,,,,,,,,,,,,,,,,,,,,,,,
,,,,,,,,,,,,a,Correct!,,,,,,t1.png,t1.png,0,0.97829,52,Female,2020-12-01_12h30.17.864,torte-2b,2020.1.3,Win32,60,14114,0.79339,,,,,,,,,,,,,,,,,,,,,,,,,,,,,,,,,,,,,0,74,74,9,1,,,,,,,,,,,,,,,,,,,,,,,,
,,,,,,,,,,,,l,Incorrect,,,,,,t4.png,t3.png,1,0.90855,52,Female,2020-12-01_12h30.17.864,torte-2b,2020.1.3,Win32,60,14114,1.50585,,,,,,,,,,,,,,,,,,,,,,,,,,,,,,,,,,,,,0,75,75,35,1,,,,,,,,,,,,,,,,,,,,,,,,
,,,,,,,,,,,,l,Correct!,,,,,,t1.png,t4.png,3,0.0000131,52,Female,2020-12-01_12h30.17.864,torte-2b,2020.1.3,Win32,60,14114,0.52097,,,,,,,,,,,,,,,,,,,,,,,,,,,,,,,,,,,,,0,76,76,92,1,,,,,,,,,,,,,,,,,,,,,,,,
,,,,,,,,,,,,l,Correct!,,,,,,t5.png,t1.png,4,9.55E-11,52,Female,2020-12-01_12h30.17.864,torte-2b,2020.1.3,Win32,60,14114,0.629345,,,,,,,,,,,,,,,,,,,,,,,,,,,,,,,,,,,,,0,77,77,71,1,,,,,,,,,,,,,,,,,,,,,,,,
,,,,,,,,,,,,l,Correct!,,,,,,t3.png,t1.png,2,0.056466,52,Female,2020-12-01_12h30.17.864,torte-2b,2020.1.3,Win32,60,14114,0.459125,,,,,,,,,,,,,,,,,,,,,,,,,,,,,,,,,,,,,0,78,78,0,1,,,,,,,,,,,,,,,,,,,,,,,,
,,,,,,,,,,,,l,Incorrect,,,,,,t2.png,t1.png,1,0.9,52,Female,2020-12-01_12h30.17.864,torte-2b,2020.1.3,Win32,60,14114,0.390325,,,,,,,,,,,,,,,,,,,,,,,,,,,,,,,,,,,,,0,79,79,118,1,,,,,,,,,,,,,,,,,,,,,,,,
,,,,,,,,,,,,a,Correct!,,,,,,t5.png,t5.png,0,0.97829,52,Female,2020-12-01_12h30.17.864,torte-2b,2020.1.3,Win32,60,14114,0.868485,,,,,,,,,,,,,,,,,,,,,,,,,,,,,,,,,,,,,0,80,80,70,1,,,,,,,,,,,,,,,,,,,,,,,,
,,,,,,,,,,,,l,Incorrect,,,,,,t1.png,t2.png,1,0.9,52,Female,2020-12-01_12h30.17.864,torte-2b,2020.1.3,Win32,60,14114,1.56101,,,,,,,,,,,,,,,,,,,,,,,,,,,,,,,,,,,,,0,81,81,1,1,,,,,,,,,,,,,,,,,,,,,,,,
,,,,,,,,,,,,l,Correct!,,,,,,t5.png,t3.png,2,0.056466,52,Female,2020-12-01_12h30.17.864,torte-2b,2020.1.3,Win32,60,14114,0.769175,,,,,,,,,,,,,,,,,,,,,,,,,,,,,,,,,,,,,0,82,82,56,1,,,,,,,,,,,,,,,,,,,,,,,,
,,,,,,,,,,,,l,Incorrect,,,,,,t4.png,t5.png,1,0.90025,52,Female,2020-12-01_12h30.17.864,torte-2b,2020.1.3,Win32,60,14114,0.60296,,,,,,,,,,,,,,,,,,,,,,,,,,,,,,,,,,,,,0,83,83,103,1,,,,,,,,,,,,,,,,,,,,,,,,
,,,,,,,,,,,,l,Correct!,,,,,,t2.png,t5.png,3,0.0000131,52,Female,2020-12-01_12h30.17.864,torte-2b,2020.1.3,Win32,60,14114,0.652615,,,,,,,,,,,,,,,,,,,,,,,,,,,,,,,,,,,,,0,84,84,104,1,,,,,,,,,,,,,,,,,,,,,,,,
,,,,,,,,,,,,a,Correct!,,,,,,t4.png,t4.png,0,0.98115,52,Female,2020-12-01_12h30.17.864,torte-2b,2020.1.3,Win32,60,14114,1.185995,,,,,,,,,,,,,,,,,,,,,,,,,,,,,,,,,,,,,0,85,85,90,1,,,,,,,,,,,,,,,,,,,,,,,,
,,,,,,,,,,,,l,Correct!,,,,,,t1.png,t4.png,3,0.0000131,52,Female,2020-12-01_12h30.17.864,torte-2b,2020.1.3,Win32,60,14114,1.701475,,,,,,,,,,,,,,,,,,,,,,,,,,,,,,,,,,,,,0,86,86,17,1,,,,,,,,,,,,,,,,,,,,,,,,
,,,,,,,,,,,,l,Correct!,,,,,,t4.png,t2.png,2,0.059078,52,Female,2020-12-01_12h30.17.864,torte-2b,2020.1.3,Win32,60,14114,0.886905,,,,,,,,,,,,,,,,,,,,,,,,,,,,,,,,,,,,,0,87,87,86,1,,,,,,,,,,,,,,,,,,,,,,,,
,,,,,,,,,,,,l,Incorrect,,,,,,t2.png,t3.png,1,0.90855,52,Female,2020-12-01_12h30.17.864,torte-2b,2020.1.3,Win32,60,14114,1.419445,,,,,,,,,,,,,,,,,,,,,,,,,,,,,,,,,,,,,0,88,88,10,1,,,,,,,,,,,,,,,,,,,,,,,,
,,,,,,,,,,,,l,Correct!,,,,,,t5.png,t3.png,2,0.056466,52,Female,2020-12-01_12h30.17.864,torte-2b,2020.1.3,Win32,60,14114,0.7196,,,,,,,,,,,,,,,,,,,,,,,,,,,,,,,,,,,,,0,89,89,108,1,,,,,,,,,,,,,,,,,,,,,,,,
,,,,,,,,,,,,a,Correct!,,,,,,t4.png,t4.png,0,0.98115,52,Female,2020-12-01_12h30.17.864,torte-2b,2020.1.3,Win32,60,14114,1.06184,,,,,,,,,,,,,,,,,,,,,,,,,,,,,,,,,,,,,0,90,90,52,1,,,,,,,,,,,,,,,,,,,,,,,,
,,,,,,,,,,,,l,Correct!,,,,,,t1.png,t4.png,3,0.0000131,52,Female,2020-12-01_12h30.17.864,torte-2b,2020.1.3,Win32,60,14114,0.751,,,,,,,,,,,,,,,,,,,,,,,,,,,,,,,,,,,,,0,91,91,81,1,,,,,,,,,,,,,,,,,,,,,,,,
,,,,,,,,,,,,l,Correct!,,,,,,t1.png,t4.png,3,0.0000131,52,Female,2020-12-01_12h30.17.864,torte-2b,2020.1.3,Win32,60,14114,0.603565,,,,,,,,,,,,,,,,,,,,,,,,,,,,,,,,,,,,,0,92,92,107,1,,,,,,,,,,,,,,,,,,,,,,,,
,,,,,,,,,,,,l,Incorrect,,,,,,t3.png,t2.png,1,0.90855,52,Female,2020-12-01_12h30.17.864,torte-2b,2020.1.3,Win32,60,14114,0.92141,,,,,,,,,,,,,,,,,,,,,,,,,,,,,,,,,,,,,0,93,93,53,1,,,,,,,,,,,,,,,,,,,,,,,,
,,,,,,,,,,,,l,Correct!,,,,,,t1.png,t3.png,2,0.056466,52,Female,2020-12-01_12h30.17.864,torte-2b,2020.1.3,Win32,60,14114,0.619495,,,,,,,,,,,,,,,,,,,,,,,,,,,,,,,,,,,,,0,94,94,60,1,,,,,,,,,,,,,,,,,,,,,,,,
,,,,,,,,,,,,l,Correct!,,,,,,t3.png,t4.png,1,0.90855,52,Female,2020-12-01_12h30.17.864,torte-2b,2020.1.3,Win32,60,14114,0.986505,,,,,,,,,,,,,,,,,,,,,,,,,,,,,,,,,,,,,0,95,95,96,1,,,,,,,,,,,,,,,,,,,,,,,,
,,,,,,,,,,,,l,Incorrect,,,,,,t5.png,t4.png,1,0.9,52,Female,2020-12-01_12h30.17.864,torte-2b,2020.1.3,Win32,60,14114,1.172965,,,,,,,,,,,,,,,,,,,,,,,,,,,,,,,,,,,,,0,96,96,76,1,,,,,,,,,,,,,,,,,,,,,,,,
,,,,,,,,,,,,a,Correct!,,,,,,t5.png,t5.png,0,0.978,52,Female,2020-12-01_12h30.17.864,torte-2b,2020.1.3,Win32,60,14114,0.903375,,,,,,,,,,,,,,,,,,,,,,,,,,,,,,,,,,,,,0,97,97,117,1,,,,,,,,,,,,,,,,,,,,,,,,
,,,,,,,,,,,,l,Correct!,,,,,,t1.png,t5.png,4,9.55E-11,52,Female,2020-12-01_12h30.17.864,torte-2b,2020.1.3,Win32,60,14114,0.802515,,,,,,,,,,,,,,,,,,,,,,,,,,,,,,,,,,,,,0,98,98,55,1,,,,,,,,,,,,,,,,,,,,,,,,
,,,,,,,,,,,,l,Correct!,,,,,,t4.png,t1.png,3,0.0000131,52,Female,2020-12-01_12h30.17.864,torte-2b,2020.1.3,Win32,60,14114,0.753185,,,,,,,,,,,,,,,,,,,,,,,,,,,,,,,,,,,,,0,99,99,48,1,,,,,,,,,,,,,,,,,,,,,,,,
,,,,,,,,,,,,l,Incorrect,,,,,,t3.png,t2.png,1,0.909,52,Female,2020-12-01_12h30.17.864,torte-2b,2020.1.3,Win32,60,14114,0.91949,,,,,,,,,,,,,,,,,,,,,,,,,,,,,,,,,,,,,0,100,100,23,1,,,,,,,,,,,,,,,,,,,,,,,,
,,,,,,,,,,,,l,Incorrect,,,,,,t4.png,t3.png,1,0.909,52,Female,2020-12-01_12h30.17.864,torte-2b,2020.1.3,Win32,60,14114,0.85719,,,,,,,,,,,,,,,,,,,,,,,,,,,,,,,,,,,,,0,101,101,46,1,,,,,,,,,,,,,,,,,,,,,,,,
,,,,,,,,,,,,l,Incorrect,,,,,,t3.png,t2.png,1,0.90855,52,Female,2020-12-01_12h30.17.864,torte-2b,2020.1.3,Win32,60,14114,0.90264,,,,,,,,,,,,,,,,,,,,,,,,,,,,,,,,,,,,,0,102,102,18,1,,,,,,,,,,,,,,,,,,,,,,,,
,,,,,,,,,,,,l,Incorrect,,,,,,t2.png,t1.png,1,0.90025,52,Female,2020-12-01_12h30.17.864,torte-2b,2020.1.3,Win32,60,14114,1.128005,,,,,,,,,,,,,,,,,,,,,,,,,,,,,,,,,,,,,0,103,103,19,1,,,,,,,,,,,,,,,,,,,,,,,,
,,,,,,,,,,,,l,Correct!,,,,,,t3.png,t1.png,2,0.056466,52,Female,2020-12-01_12h30.17.864,torte-2b,2020.1.3,Win32,60,14114,0.59349,,,,,,,,,,,,,,,,,,,,,,,,,,,,,,,,,,,,,0,104,104,64,1,,,,,,,,,,,,,,,,,,,,,,,,
,,,,,,,,,,,,l,Incorrect,,,,,,t4.png,t3.png,1,0.90855,52,Female,2020-12-01_12h30.17.864,torte-2b,2020.1.3,Win32,60,14114,0.843175,,,,,,,,,,,,,,,,,,,,,,,,,,,,,,,,,,,,,0,105,105,75,1,,,,,,,,,,,,,,,,,,,,,,,,
,,,,,,,,,,,,l,Correct!,,,,,,t5.png,t3.png,2,0.0565,52,Female,2020-12-01_12h30.17.864,torte-2b,2020.1.3,Win32,60,14114,0.69291,,,,,,,,,,,,,,,,,,,,,,,,,,,,,,,,,,,,,0,106,106,39,1,,,,,,,,,,,,,,,,,,,,,,,,
,,,,,,,,,,,,l,Correct!,,,,,,t5.png,t3.png,2,0.056466,52,Female,2020-12-01_12h30.17.864,torte-2b,2020.1.3,Win32,60,14114,0.89575,,,,,,,,,,,,,,,,,,,,,,,,,,,,,,,,,,,,,0,107,107,114,1,,,,,,,,,,,,,,,,,,,,,,,,
,,,,,,,,,,,,l,Correct!,,,,,,t2.png,t5.png,3,0.0000131,52,Female,2020-12-01_12h30.17.864,torte-2b,2020.1.3,Win32,60,14114,0.876975,,,,,,,,,,,,,,,,,,,,,,,,,,,,,,,,,,,,,0,108,108,95,1,,,,,,,,,,,,,,,,,,,,,,,,
,,,,,,,,,,,,l,Incorrect,,,,,,t5.png,t3.png,2,0.056466,52,Female,2020-12-01_12h30.17.864,torte-2b,2020.1.3,Win32,60,14114,0.836655,,,,,,,,,,,,,,,,,,,,,,,,,,,,,,,,,,,,,0,109,109,38,1,,,,,,,,,,,,,,,,,,,,,,,,
,,,,,,,,,,,,l,Incorrect,,,,,,t5.png,t4.png,1,0.90025,52,Female,2020-12-01_12h30.17.864,torte-2b,2020.1.3,Win32,60,14114,1.107995,,,,,,,,,,,,,,,,,,,,,,,,,,,,,,,,,,,,,0,110,110,34,1,,,,,,,,,,,,,,,,,,,,,,,,
,,,,,,,,,,,,a,Correct!,,,,,,t2.png,t2.png,0,0.98115,52,Female,2020-12-01_12h30.17.864,torte-2b,2020.1.3,Win32,60,14114,0.903615,,,,,,,,,,,,,,,,,,,,,,,,,,,,,,,,,,,,,0,111,111,2,1,,,,,,,,,,,,,,,,,,,,,,,,
,,,,,,,,,,,,l,Correct!,,,,,,t4.png,t2.png,2,0.059078,52,Female,2020-12-01_12h30.17.864,torte-2b,2020.1.3,Win32,60,14114,0.946145,,,,,,,,,,,,,,,,,,,,,,,,,,,,,,,,,,,,,0,112,112,109,1,,,,,,,,,,,,,,,,,,,,,,,,
,,,,,,,,,,,,a,Correct!,,,,,,t2.png,t2.png,0,0.981,52,Female,2020-12-01_12h30.17.864,torte-2b,2020.1.3,Win32,60,14114,0.941495,,,,,,,,,,,,,,,,,,,,,,,,,,,,,,,,,,,,,0,113,113,101,1,,,,,,,,,,,,,,,,,,,,,,,,
,,,,,,,,,,,,l,Correct!,,,,,,t2.png,t4.png,2,0.059078,52,Female,2020-12-01_12h30.17.864,torte-2b,2020.1.3,Win32,60,14114,0.83593,,,,,,,,,,,,,,,,,,,,,,,,,,,,,,,,,,,,,0,114,114,11,1,,,,,,,,,,,,,,,,,,,,,,,,
,,,,,,,,,,,,l,Incorrect,,,,,,t2.png,t3.png,1,0.90855,52,Female,2020-12-01_12h30.17.864,torte-2b,2020.1.3,Win32,60,14114,1.08009,,,,,,,,,,,,,,,,,,,,,,,,,,,,,,,,,,,,,0,115,115,111,1,,,,,,,,,,,,,,,,,,,,,,,,
,,,,,,,,,,,,l,Incorrect,,,,,,t2.png,t1.png,1,0.90025,52,Female,2020-12-01_12h30.17.864,torte-2b,2020.1.3,Win32,60,14114,1.11956,,,,,,,,,,,,,,,,,,,,,,,,,,,,,,,,,,,,,0,116,116,62,1,,,,,,,,,,,,,,,,,,,,,,,,
,,,,,,,,,,,,l,Incorrect,,,,,,t1.png,t1.png,0,0.978,52,Female,2020-12-01_12h30.17.864,torte-2b,2020.1.3,Win32,60,14114,0.667535,,,,,,,,,,,,,,,,,,,,,,,,,,,,,,,,,,,,,0,117,117,28,1,,,,,,,,,,,,,,,,,,,,,,,,
,,,,,,,,,,,,a,Correct!,,,,,,t4.png,t4.png,0,0.98115,52,Female,2020-12-01_12h30.17.864,torte-2b,2020.1.3,Win32,60,14114,1.13462,,,,,,,,,,,,,,,,,,,,,,,,,,,,,,,,,,,,,0,118,118,80,1,,,,,,,,,,,,,,,,,,,,,,,,
,,,,,,,,,,,,l,Incorrect,,,,,,t5.png,t4.png,1,0.90025,52,Female,2020-12-01_12h30.17.864,torte-2b,2020.1.3,Win32,60,14114,1.18559,,,,,,,,,,,,,,,,,,,,,,,,,,,,,,,,,,,,,0,119,119,27,1,,,,,,,,,,,,,,,,,,,,,,,,
,,,,,,,,,,,,,,,,,,,,,,,52,Female,2020-12-01_12h30.17.864,torte-2b,2020.1.3,Win32,60,14114,,space,2.05758,,,,,,,,,,,,,,,,,,,,,,,,,,,,,,,,,,,,,,,,-83.99998981,179.9999962,1,0,0,s1,1.14441E-05,-29.60000688,1,0,0,t3,271.2001131,-104.000008,1,0,0,proceed,m,7.951895,n,2.70845,m,2.14024
