key_resp_8.keys,key_resp_8.rt,key_resp_9.keys,key_resp_9.rt,key_resp_10.keys,key_resp_10.rt,key_resp_11.keys,key_resp_11.rt,key_resp_2.keys,key_resp_2.rt,key_resp_3.keys,key_resp_3.rt,key_resp.keys,Feedback,train.thisRepN,train.thisTrialN,train.thisN,train.thisIndex,train.ran,torta_sx,torta_dx,difference,probability,age,gender,date,expName,psychopyVersion,OS,frameRate,participant,key_resp.rt,key_resp_15.keys,key_resp_15.rt,key_resp_6.keys,key_resp_6.rt,test1.thisRepN,test1.thisTrialN,test1.thisN,test1.thisIndex,test1.ran,key_resp_16.keys,key_resp_16.rt,key_resp_7.keys,key_resp_7.rt,test2.thisRepN,test2.thisTrialN,test2.thisN,test2.thisIndex,test2.ran,rating.response,rating.rt,mouse.x,mouse.y,mouse.leftButton,mouse.midButton,mouse.rightButton,mouse.clicked_name,mouse_2.x,mouse_2.y,mouse_2.leftButton,mouse_2.midButton,mouse_2.rightButton,mouse_2.clicked_name,mouse_3.x,mouse_3.y,mouse_3.leftButton,mouse_3.midButton,mouse_3.rightButton,mouse_3.clicked_name,key_resp_12.keys,key_resp_12.rt,key_resp_13.keys,key_resp_13.rt,key_resp_14.keys,key_resp_14.rt
space,11.73085,space,0.66383,space,0.812305,space,3.00852,space,30.94094,space,50.534075,,Too slow :(,0,0,0,77,1,t1.png,t1.png,0,0.97829,20,male,2020-10-14_14h48.18.989,torte-q,2020.1.3,Win32,60,12840,,,,,,,,,,,,,,,,,,,,,,,,,,,,,,,,,,,,,,,,,,,,,
,,,,,,,,,,,,a,Incorrect,0,1,1,82,1,t5.png,t1.png,4,9.55E-11,20,male,2020-10-14_14h48.18.989,torte-q,2020.1.3,Win32,60,12840,0.885255,,,,,,,,,,,,,,,,,,,,,,,,,,,,,,,,,,,,,,,,,,,,
,,,,,,,,,,,,l,Correct!,0,2,2,86,1,t3.png,t1.png,2,0.056466,20,male,2020-10-14_14h48.18.989,torte-q,2020.1.3,Win32,60,12840,1.560465,,,,,,,,,,,,,,,,,,,,,,,,,,,,,,,,,,,,,,,,,,,,
,,,,,,,,,,,,l,Incorrect,0,3,3,96,1,t1.png,t1.png,0,0.97829,20,male,2020-10-14_14h48.18.989,torte-q,2020.1.3,Win32,60,12840,1.013825,,,,,,,,,,,,,,,,,,,,,,,,,,,,,,,,,,,,,,,,,,,,
,,,,,,,,,,,,l,Correct!,0,4,4,19,1,t4.png,t2.png,2,0.059078,20,male,2020-10-14_14h48.18.989,torte-q,2020.1.3,Win32,60,12840,1.60121,,,,,,,,,,,,,,,,,,,,,,,,,,,,,,,,,,,,,,,,,,,,
,,,,,,,,,,,,a,Correct!,0,5,5,15,1,t3.png,t2.png,1,0.90855,20,male,2020-10-14_14h48.18.989,torte-q,2020.1.3,Win32,60,12840,1.431255,,,,,,,,,,,,,,,,,,,,,,,,,,,,,,,,,,,,,,,,,,,,
,,,,,,,,,,,,a,Correct!,0,6,6,105,1,t3.png,t2.png,1,0.90855,20,male,2020-10-14_14h48.18.989,torte-q,2020.1.3,Win32,60,12840,1.24303,,,,,,,,,,,,,,,,,,,,,,,,,,,,,,,,,,,,,,,,,,,,
,,,,,,,,,,,,l,Incorrect,0,7,7,25,1,t5.png,t5.png,0,0.97829,20,male,2020-10-14_14h48.18.989,torte-q,2020.1.3,Win32,60,12840,2.368895,,,,,,,,,,,,,,,,,,,,,,,,,,,,,,,,,,,,,,,,,,,,
,,,,,,,,,,,,a,Correct!,0,8,8,76,1,t3.png,t2.png,1,0.90855,20,male,2020-10-14_14h48.18.989,torte-q,2020.1.3,Win32,60,12840,1.1867,,,,,,,,,,,,,,,,,,,,,,,,,,,,,,,,,,,,,,,,,,,,
,,,,,,,,,,,,l,Incorrect,0,9,9,21,1,t5.png,t4.png,1,0.90025,20,male,2020-10-14_14h48.18.989,torte-q,2020.1.3,Win32,60,12840,2.200285,,,,,,,,,,,,,,,,,,,,,,,,,,,,,,,,,,,,,,,,,,,,
,,,,,,,,,,,,a,Correct!,0,10,10,16,1,t5.png,t4.png,1,0.9,20,male,2020-10-14_14h48.18.989,torte-q,2020.1.3,Win32,60,12840,1.60611,,,,,,,,,,,,,,,,,,,,,,,,,,,,,,,,,,,,,,,,,,,,
,,,,,,,,,,,,a,Incorrect,0,11,11,111,1,t5.png,t1.png,4,9.55E-11,20,male,2020-10-14_14h48.18.989,torte-q,2020.1.3,Win32,60,12840,1.66661,,,,,,,,,,,,,,,,,,,,,,,,,,,,,,,,,,,,,,,,,,,,
,,,,,,,,,,,,a,Correct!,0,12,12,116,1,t5.png,t4.png,1,0.90025,20,male,2020-10-14_14h48.18.989,torte-q,2020.1.3,Win32,60,12840,1.54857,,,,,,,,,,,,,,,,,,,,,,,,,,,,,,,,,,,,,,,,,,,,
,,,,,,,,,,,,a,Correct!,0,13,13,107,1,t1.png,t1.png,0,0.978,20,male,2020-10-14_14h48.18.989,torte-q,2020.1.3,Win32,60,12840,1.364625,,,,,,,,,,,,,,,,,,,,,,,,,,,,,,,,,,,,,,,,,,,,
,,,,,,,,,,,,l,Incorrect,0,14,14,70,1,t5.png,t5.png,0,0.978,20,male,2020-10-14_14h48.18.989,torte-q,2020.1.3,Win32,60,12840,1.23441,,,,,,,,,,,,,,,,,,,,,,,,,,,,,,,,,,,,,,,,,,,,
,,,,,,,,,,,,l,Correct!,0,15,15,27,1,t3.png,t1.png,2,0.0565,20,male,2020-10-14_14h48.18.989,torte-q,2020.1.3,Win32,60,12840,1.59067,,,,,,,,,,,,,,,,,,,,,,,,,,,,,,,,,,,,,,,,,,,,
,,,,,,,,,,,,a,Incorrect,0,16,16,9,1,t4.png,t5.png,1,0.9,20,male,2020-10-14_14h48.18.989,torte-q,2020.1.3,Win32,60,12840,1.4167,,,,,,,,,,,,,,,,,,,,,,,,,,,,,,,,,,,,,,,,,,,,
,,,,,,,,,,,,l,Correct!,0,17,17,31,1,t1.png,t5.png,4,9.55E-11,20,male,2020-10-14_14h48.18.989,torte-q,2020.1.3,Win32,60,12840,2.14827,,,,,,,,,,,,,,,,,,,,,,,,,,,,,,,,,,,,,,,,,,,,
,,,,,,,,,,,,a,Correct!,0,18,18,84,1,t1.png,t1.png,0,0.97829,20,male,2020-10-14_14h48.18.989,torte-q,2020.1.3,Win32,60,12840,1.69947,,,,,,,,,,,,,,,,,,,,,,,,,,,,,,,,,,,,,,,,,,,,
,,,,,,,,,,,,l,Correct!,0,19,19,93,1,t2.png,t4.png,2,0.059078,20,male,2020-10-14_14h48.18.989,torte-q,2020.1.3,Win32,60,12840,1.59997,,,,,,,,,,,,,,,,,,,,,,,,,,,,,,,,,,,,,,,,,,,,
,,,,,,,,,,,,l,Incorrect,0,20,20,49,1,t4.png,t5.png,1,0.9,20,male,2020-10-14_14h48.18.989,torte-q,2020.1.3,Win32,60,12840,1.94758,,,,,,,,,,,,,,,,,,,,,,,,,,,,,,,,,,,,,,,,,,,,
,,,,,,,,,,,,a,Correct!,0,21,21,78,1,t1.png,t1.png,0,0.978,20,male,2020-10-14_14h48.18.989,torte-q,2020.1.3,Win32,60,12840,1.49719,,,,,,,,,,,,,,,,,,,,,,,,,,,,,,,,,,,,,,,,,,,,
,,,,,,,,,,,,l,Correct!,0,22,22,47,1,t4.png,t2.png,2,0.059078,20,male,2020-10-14_14h48.18.989,torte-q,2020.1.3,Win32,60,12840,1.285655,,,,,,,,,,,,,,,,,,,,,,,,,,,,,,,,,,,,,,,,,,,,
,,,,,,,,,,,,l,Correct!,0,23,23,0,1,t5.png,t1.png,4,9.55E-11,20,male,2020-10-14_14h48.18.989,torte-q,2020.1.3,Win32,60,12840,1.18384,,,,,,,,,,,,,,,,,,,,,,,,,,,,,,,,,,,,,,,,,,,,
,,,,,,,,,,,,l,Correct!,0,24,24,69,1,t4.png,t2.png,2,0.059078,20,male,2020-10-14_14h48.18.989,torte-q,2020.1.3,Win32,60,12840,0.9983,,,,,,,,,,,,,,,,,,,,,,,,,,,,,,,,,,,,,,,,,,,,
,,,,,,,,,,,,a,Correct!,0,25,25,45,1,t3.png,t2.png,1,0.90855,20,male,2020-10-14_14h48.18.989,torte-q,2020.1.3,Win32,60,12840,1.46215,,,,,,,,,,,,,,,,,,,,,,,,,,,,,,,,,,,,,,,,,,,,
,,,,,,,,,,,,l,Correct!,0,26,26,83,1,t3.png,t1.png,2,0.056466,20,male,2020-10-14_14h48.18.989,torte-q,2020.1.3,Win32,60,12840,1.637855,,,,,,,,,,,,,,,,,,,,,,,,,,,,,,,,,,,,,,,,,,,,
,,,,,,,,,,,,a,Incorrect,0,27,27,113,1,t5.png,t4.png,1,0.9,20,male,2020-10-14_14h48.18.989,torte-q,2020.1.3,Win32,60,12840,1.58469,,,,,,,,,,,,,,,,,,,,,,,,,,,,,,,,,,,,,,,,,,,,
,,,,,,,,,,,,a,Incorrect,0,28,28,80,1,t1.png,t4.png,3,0.0000131,20,male,2020-10-14_14h48.18.989,torte-q,2020.1.3,Win32,60,12840,1.445545,,,,,,,,,,,,,,,,,,,,,,,,,,,,,,,,,,,,,,,,,,,,
,,,,,,,,,,,,a,Correct!,0,29,29,62,1,t5.png,t5.png,0,0.978,20,male,2020-10-14_14h48.18.989,torte-q,2020.1.3,Win32,60,12840,1.699335,,,,,,,,,,,,,,,,,,,,,,,,,,,,,,,,,,,,,,,,,,,,
,,,,,,,,,,,,l,Incorrect,0,30,30,42,1,t5.png,t4.png,1,0.90025,20,male,2020-10-14_14h48.18.989,torte-q,2020.1.3,Win32,60,12840,1.814505,,,,,,,,,,,,,,,,,,,,,,,,,,,,,,,,,,,,,,,,,,,,
,,,,,,,,,,,,l,Correct!,0,31,31,94,1,t5.png,t1.png,4,9.55E-11,20,male,2020-10-14_14h48.18.989,torte-q,2020.1.3,Win32,60,12840,1.364375,,,,,,,,,,,,,,,,,,,,,,,,,,,,,,,,,,,,,,,,,,,,
,,,,,,,,,,,,a,Correct!,0,32,32,58,1,t5.png,t4.png,1,0.90025,20,male,2020-10-14_14h48.18.989,torte-q,2020.1.3,Win32,60,12840,1.363855,,,,,,,,,,,,,,,,,,,,,,,,,,,,,,,,,,,,,,,,,,,,
,,,,,,,,,,,,a,Correct!,0,33,33,29,1,t5.png,t5.png,0,0.97829,20,male,2020-10-14_14h48.18.989,torte-q,2020.1.3,Win32,60,12840,1.898755,,,,,,,,,,,,,,,,,,,,,,,,,,,,,,,,,,,,,,,,,,,,
,,,,,,,,,,,,l,Incorrect,0,34,34,74,1,t5.png,t4.png,1,0.9,20,male,2020-10-14_14h48.18.989,torte-q,2020.1.3,Win32,60,12840,1.63903,,,,,,,,,,,,,,,,,,,,,,,,,,,,,,,,,,,,,,,,,,,,
,,,,,,,,,,,,a,Incorrect,0,35,35,22,1,t2.png,t3.png,1,0.90855,20,male,2020-10-14_14h48.18.989,torte-q,2020.1.3,Win32,60,12840,1.684145,,,,,,,,,,,,,,,,,,,,,,,,,,,,,,,,,,,,,,,,,,,,
,,,,,,,,,,,,l,Correct!,0,36,36,50,1,t5.png,t1.png,4,9.55E-11,20,male,2020-10-14_14h48.18.989,torte-q,2020.1.3,Win32,60,12840,0.938025,,,,,,,,,,,,,,,,,,,,,,,,,,,,,,,,,,,,,,,,,,,,
,,,,,,,,,,,,a,Correct!,0,37,37,28,1,t2.png,t3.png,1,0.909,20,male,2020-10-14_14h48.18.989,torte-q,2020.1.3,Win32,60,12840,1.547875,,,,,,,,,,,,,,,,,,,,,,,,,,,,,,,,,,,,,,,,,,,,
,,,,,,,,,,,,a,Incorrect,0,38,38,68,1,t1.png,t4.png,3,0.0000131,20,male,2020-10-14_14h48.18.989,torte-q,2020.1.3,Win32,60,12840,1.266055,,,,,,,,,,,,,,,,,,,,,,,,,,,,,,,,,,,,,,,,,,,,
,,,,,,,,,,,,a,Correct!,0,39,39,39,1,t3.png,t2.png,1,0.90855,20,male,2020-10-14_14h48.18.989,torte-q,2020.1.3,Win32,60,12840,0.998635,,,,,,,,,,,,,,,,,,,,,,,,,,,,,,,,,,,,,,,,,,,,
,,,,,,,,,,,,l,Correct!,0,40,40,54,1,t1.png,t5.png,4,9.55E-11,20,male,2020-10-14_14h48.18.989,torte-q,2020.1.3,Win32,60,12840,1.126985,,,,,,,,,,,,,,,,,,,,,,,,,,,,,,,,,,,,,,,,,,,,
,,,,,,,,,,,,l,Correct!,0,41,41,6,1,t1.png,t4.png,3,0.0000131,20,male,2020-10-14_14h48.18.989,torte-q,2020.1.3,Win32,60,12840,1.537535,,,,,,,,,,,,,,,,,,,,,,,,,,,,,,,,,,,,,,,,,,,,
,,,,,,,,,,,,l,Correct!,0,42,42,5,1,t2.png,t4.png,2,0.059078,20,male,2020-10-14_14h48.18.989,torte-q,2020.1.3,Win32,60,12840,1.52404,,,,,,,,,,,,,,,,,,,,,,,,,,,,,,,,,,,,,,,,,,,,
,,,,,,,,,,,,l,Correct!,0,43,43,12,1,t5.png,t1.png,4,9.55E-11,20,male,2020-10-14_14h48.18.989,torte-q,2020.1.3,Win32,60,12840,0.97068,,,,,,,,,,,,,,,,,,,,,,,,,,,,,,,,,,,,,,,,,,,,
,,,,,,,,,,,,l,Incorrect,0,44,44,92,1,t2.png,t3.png,1,0.909,20,male,2020-10-14_14h48.18.989,torte-q,2020.1.3,Win32,60,12840,1.904185,,,,,,,,,,,,,,,,,,,,,,,,,,,,,,,,,,,,,,,,,,,,
,,,,,,,,,,,,l,Correct!,0,45,45,14,1,t2.png,t4.png,2,0.059078,20,male,2020-10-14_14h48.18.989,torte-q,2020.1.3,Win32,60,12840,0.94619,,,,,,,,,,,,,,,,,,,,,,,,,,,,,,,,,,,,,,,,,,,,
,,,,,,,,,,,,l,Correct!,0,46,46,117,1,t1.png,t5.png,4,9.55E-11,20,male,2020-10-14_14h48.18.989,torte-q,2020.1.3,Win32,60,12840,0.68055,,,,,,,,,,,,,,,,,,,,,,,,,,,,,,,,,,,,,,,,,,,,
,,,,,,,,,,,,l,Correct!,0,47,47,51,1,t3.png,t1.png,2,0.056466,20,male,2020-10-14_14h48.18.989,torte-q,2020.1.3,Win32,60,12840,1.536935,,,,,,,,,,,,,,,,,,,,,,,,,,,,,,,,,,,,,,,,,,,,
,,,,,,,,,,,,l,Correct!,0,48,48,26,1,t4.png,t2.png,2,0.0591,20,male,2020-10-14_14h48.18.989,torte-q,2020.1.3,Win32,60,12840,0.911745,,,,,,,,,,,,,,,,,,,,,,,,,,,,,,,,,,,,,,,,,,,,
,,,,,,,,,,,,a,Correct!,0,49,49,110,1,t4.png,t5.png,1,0.90025,20,male,2020-10-14_14h48.18.989,torte-q,2020.1.3,Win32,60,12840,1.918,,,,,,,,,,,,,,,,,,,,,,,,,,,,,,,,,,,,,,,,,,,,
,,,,,,,,,,,,a,Correct!,0,50,50,79,1,t3.png,t2.png,1,0.909,20,male,2020-10-14_14h48.18.989,torte-q,2020.1.3,Win32,60,12840,1.601545,,,,,,,,,,,,,,,,,,,,,,,,,,,,,,,,,,,,,,,,,,,,
,,,,,,,,,,,,l,Correct!,0,51,51,11,1,t1.png,t4.png,3,0.0000131,20,male,2020-10-14_14h48.18.989,torte-q,2020.1.3,Win32,60,12840,1.153845,,,,,,,,,,,,,,,,,,,,,,,,,,,,,,,,,,,,,,,,,,,,
,,,,,,,,,,,,l,Correct!,0,52,52,119,1,t1.png,t5.png,4,9.55E-11,20,male,2020-10-14_14h48.18.989,torte-q,2020.1.3,Win32,60,12840,0.85223,,,,,,,,,,,,,,,,,,,,,,,,,,,,,,,,,,,,,,,,,,,,
,,,,,,,,,,,,l,Incorrect,0,53,53,98,1,t2.png,t4.png,2,0.0591,20,male,2020-10-14_14h48.18.989,torte-q,2020.1.3,Win32,60,12840,1.050355,,,,,,,,,,,,,,,,,,,,,,,,,,,,,,,,,,,,,,,,,,,,
,,,,,,,,,,,,a,Correct!,0,54,54,97,1,t5.png,t5.png,0,0.97829,20,male,2020-10-14_14h48.18.989,torte-q,2020.1.3,Win32,60,12840,1.368985,,,,,,,,,,,,,,,,,,,,,,,,,,,,,,,,,,,,,,,,,,,,
,,,,,,,,,,,,l,Incorrect,0,55,55,101,1,t4.png,t5.png,1,0.90025,20,male,2020-10-14_14h48.18.989,torte-q,2020.1.3,Win32,60,12840,1.81998,,,,,,,,,,,,,,,,,,,,,,,,,,,,,,,,,,,,,,,,,,,,
,,,,,,,,,,,,a,Correct!,0,56,56,65,1,t4.png,t5.png,1,0.90025,20,male,2020-10-14_14h48.18.989,torte-q,2020.1.3,Win32,60,12840,1.39959,,,,,,,,,,,,,,,,,,,,,,,,,,,,,,,,,,,,,,,,,,,,
,,,,,,,,,,,,a,Correct!,0,57,57,104,1,t2.png,t3.png,1,0.90855,20,male,2020-10-14_14h48.18.989,torte-q,2020.1.3,Win32,60,12840,2.09836,,,,,,,,,,,,,,,,,,,,,,,,,,,,,,,,,,,,,,,,,,,,
,,,,,,,,,,,,a,Correct!,0,58,58,66,1,t4.png,t5.png,1,0.9,20,male,2020-10-14_14h48.18.989,torte-q,2020.1.3,Win32,60,12840,1.81378,,,,,,,,,,,,,,,,,,,,,,,,,,,,,,,,,,,,,,,,,,,,
,,,,,,,,,,,,a,Correct!,0,59,59,71,1,t5.png,t5.png,0,0.97829,20,male,2020-10-14_14h48.18.989,torte-q,2020.1.3,Win32,60,12840,1.002885,,,,,,,,,,,,,,,,,,,,,,,,,,,,,,,,,,,,,,,,,,,,
,,,,,,,,,,,,a,Incorrect,0,60,60,37,1,t1.png,t4.png,3,0.0000131,20,male,2020-10-14_14h48.18.989,torte-q,2020.1.3,Win32,60,12840,1.12312,,,,,,,,,,,,,,,,,,,,,,,,,,,,,,,,,,,,,,,,,,,,
,,,,,,,,,,,,l,Correct!,0,61,61,55,1,t2.png,t4.png,2,0.059078,20,male,2020-10-14_14h48.18.989,torte-q,2020.1.3,Win32,60,12840,1.13564,,,,,,,,,,,,,,,,,,,,,,,,,,,,,,,,,,,,,,,,,,,,
,,,,,,,,,,,,a,Correct!,0,62,62,13,1,t5.png,t5.png,0,0.97829,20,male,2020-10-14_14h48.18.989,torte-q,2020.1.3,Win32,60,12840,1.334915,,,,,,,,,,,,,,,,,,,,,,,,,,,,,,,,,,,,,,,,,,,,
,,,,,,,,,,,,l,Incorrect,0,63,63,114,1,t2.png,t3.png,1,0.90855,20,male,2020-10-14_14h48.18.989,torte-q,2020.1.3,Win32,60,12840,1.322265,,,,,,,,,,,,,,,,,,,,,,,,,,,,,,,,,,,,,,,,,,,,
,,,,,,,,,,,,a,Correct!,0,64,64,2,1,t3.png,t2.png,1,0.90855,20,male,2020-10-14_14h48.18.989,torte-q,2020.1.3,Win32,60,12840,1.848225,,,,,,,,,,,,,,,,,,,,,,,,,,,,,,,,,,,,,,,,,,,,
,,,,,,,,,,,,a,Correct!,0,65,65,18,1,t4.png,t5.png,1,0.90025,20,male,2020-10-14_14h48.18.989,torte-q,2020.1.3,Win32,60,12840,1.917175,,,,,,,,,,,,,,,,,,,,,,,,,,,,,,,,,,,,,,,,,,,,
,,,,,,,,,,,,l,Correct!,0,66,66,72,1,t4.png,t2.png,2,0.059078,20,male,2020-10-14_14h48.18.989,torte-q,2020.1.3,Win32,60,12840,1.35131,,,,,,,,,,,,,,,,,,,,,,,,,,,,,,,,,,,,,,,,,,,,
,,,,,,,,,,,,a,Correct!,0,67,67,34,1,t5.png,t4.png,1,0.9,20,male,2020-10-14_14h48.18.989,torte-q,2020.1.3,Win32,60,12840,1.318485,,,,,,,,,,,,,,,,,,,,,,,,,,,,,,,,,,,,,,,,,,,,
,,,,,,,,,,,,l,Correct!,0,68,68,102,1,t4.png,t2.png,2,0.059078,20,male,2020-10-14_14h48.18.989,torte-q,2020.1.3,Win32,60,12840,1.06839,,,,,,,,,,,,,,,,,,,,,,,,,,,,,,,,,,,,,,,,,,,,
,,,,,,,,,,,,l,Correct!,0,69,69,90,1,t1.png,t5.png,4,9.55E-11,20,male,2020-10-14_14h48.18.989,torte-q,2020.1.3,Win32,60,12840,0.984605,,,,,,,,,,,,,,,,,,,,,,,,,,,,,,,,,,,,,,,,,,,,
,,,,,,,,,,,,l,Correct!,0,70,70,24,1,t4.png,t2.png,2,0.059078,20,male,2020-10-14_14h48.18.989,torte-q,2020.1.3,Win32,60,12840,0.8017,,,,,,,,,,,,,,,,,,,,,,,,,,,,,,,,,,,,,,,,,,,,
,,,,,,,,,,,,a,Incorrect,0,71,71,23,1,t5.png,t4.png,1,0.90025,20,male,2020-10-14_14h48.18.989,torte-q,2020.1.3,Win32,60,12840,1.03846,,,,,,,,,,,,,,,,,,,,,,,,,,,,,,,,,,,,,,,,,,,,
,,,,,,,,,,,,a,Incorrect,0,72,72,61,1,t1.png,t4.png,3,0.0000131,20,male,2020-10-14_14h48.18.989,torte-q,2020.1.3,Win32,60,12840,1.385345,,,,,,,,,,,,,,,,,,,,,,,,,,,,,,,,,,,,,,,,,,,,
,,,,,,,,,,,,l,Incorrect,0,73,73,8,1,t3.png,t2.png,1,0.90855,20,male,2020-10-14_14h48.18.989,torte-q,2020.1.3,Win32,60,12840,1.56844,,,,,,,,,,,,,,,,,,,,,,,,,,,,,,,,,,,,,,,,,,,,
,,,,,,,,,,,,l,Correct!,0,74,74,38,1,t3.png,t1.png,2,0.056466,20,male,2020-10-14_14h48.18.989,torte-q,2020.1.3,Win32,60,12840,1.785905,,,,,,,,,,,,,,,,,,,,,,,,,,,,,,,,,,,,,,,,,,,,
,,,,,,,,,,,,a,Correct!,0,75,75,118,1,t5.png,t5.png,0,0.978,20,male,2020-10-14_14h48.18.989,torte-q,2020.1.3,Win32,60,12840,1.174295,,,,,,,,,,,,,,,,,,,,,,,,,,,,,,,,,,,,,,,,,,,,
,,,,,,,,,,,,l,Correct!,0,76,76,99,1,t1.png,t5.png,4,9.55E-11,20,male,2020-10-14_14h48.18.989,torte-q,2020.1.3,Win32,60,12840,0.952685,,,,,,,,,,,,,,,,,,,,,,,,,,,,,,,,,,,,,,,,,,,,
,,,,,,,,,,,,a,Correct!,0,77,77,106,1,t2.png,t3.png,1,0.90855,20,male,2020-10-14_14h48.18.989,torte-q,2020.1.3,Win32,60,12840,1.288725,,,,,,,,,,,,,,,,,,,,,,,,,,,,,,,,,,,,,,,,,,,,
,,,,,,,,,,,,l,Correct!,0,78,78,40,1,t1.png,t5.png,4,9.55E-11,20,male,2020-10-14_14h48.18.989,torte-q,2020.1.3,Win32,60,12840,0.898835,,,,,,,,,,,,,,,,,,,,,,,,,,,,,,,,,,,,,,,,,,,,
,,,,,,,,,,,,l,Correct!,0,79,79,88,1,t3.png,t1.png,2,0.056466,20,male,2020-10-14_14h48.18.989,torte-q,2020.1.3,Win32,60,12840,1.467525,,,,,,,,,,,,,,,,,,,,,,,,,,,,,,,,,,,,,,,,,,,,
,,,,,,,,,,,,a,Correct!,0,80,80,59,1,t5.png,t4.png,1,0.9,20,male,2020-10-14_14h48.18.989,torte-q,2020.1.3,Win32,60,12840,1.525375,,,,,,,,,,,,,,,,,,,,,,,,,,,,,,,,,,,,,,,,,,,,
,,,,,,,,,,,,l,Correct!,0,81,81,53,1,t3.png,t1.png,2,0.056466,20,male,2020-10-14_14h48.18.989,torte-q,2020.1.3,Win32,60,12840,1.70621,,,,,,,,,,,,,,,,,,,,,,,,,,,,,,,,,,,,,,,,,,,,
,,,,,,,,,,,,a,Correct!,0,82,82,63,1,t2.png,t3.png,1,0.909,20,male,2020-10-14_14h48.18.989,torte-q,2020.1.3,Win32,60,12840,1.00519,,,,,,,,,,,,,,,,,,,,,,,,,,,,,,,,,,,,,,,,,,,,
,,,,,,,,,,,,l,Correct!,0,83,83,36,1,t3.png,t1.png,2,0.0565,20,male,2020-10-14_14h48.18.989,torte-q,2020.1.3,Win32,60,12840,1.348345,,,,,,,,,,,,,,,,,,,,,,,,,,,,,,,,,,,,,,,,,,,,
,,,,,,,,,,,,l,Incorrect,0,84,84,95,1,t1.png,t1.png,0,0.978,20,male,2020-10-14_14h48.18.989,torte-q,2020.1.3,Win32,60,12840,0.783675,,,,,,,,,,,,,,,,,,,,,,,,,,,,,,,,,,,,,,,,,,,,
,,,,,,,,,,,,l,Correct!,0,85,85,56,1,t5.png,t1.png,4,9.55E-11,20,male,2020-10-14_14h48.18.989,torte-q,2020.1.3,Win32,60,12840,1.246525,,,,,,,,,,,,,,,,,,,,,,,,,,,,,,,,,,,,,,,,,,,,
,,,,,,,,,,,,a,Correct!,0,86,86,100,1,t4.png,t5.png,1,0.90025,20,male,2020-10-14_14h48.18.989,torte-q,2020.1.3,Win32,60,12840,1.26759,,,,,,,,,,,,,,,,,,,,,,,,,,,,,,,,,,,,,,,,,,,,
,,,,,,,,,,,,a,Correct!,0,87,87,81,1,t1.png,t1.png,0,0.97829,20,male,2020-10-14_14h48.18.989,torte-q,2020.1.3,Win32,60,12840,0.966765,,,,,,,,,,,,,,,,,,,,,,,,,,,,,,,,,,,,,,,,,,,,
,,,,,,,,,,,,a,Correct!,0,88,88,44,1,t2.png,t3.png,1,0.909,20,male,2020-10-14_14h48.18.989,torte-q,2020.1.3,Win32,60,12840,1.2551,,,,,,,,,,,,,,,,,,,,,,,,,,,,,,,,,,,,,,,,,,,,
,,,,,,,,,,,,l,Correct!,0,89,89,91,1,t1.png,t4.png,3,0.0000131,20,male,2020-10-14_14h48.18.989,torte-q,2020.1.3,Win32,60,12840,1.28929,,,,,,,,,,,,,,,,,,,,,,,,,,,,,,,,,,,,,,,,,,,,
,,,,,,,,,,,,l,Correct!,0,90,90,87,1,t5.png,t1.png,4,9.55E-11,20,male,2020-10-14_14h48.18.989,torte-q,2020.1.3,Win32,60,12840,0.881675,,,,,,,,,,,,,,,,,,,,,,,,,,,,,,,,,,,,,,,,,,,,
,,,,,,,,,,,,l,Correct!,0,91,91,108,1,t5.png,t1.png,4,9.55E-11,20,male,2020-10-14_14h48.18.989,torte-q,2020.1.3,Win32,60,12840,0.96357,,,,,,,,,,,,,,,,,,,,,,,,,,,,,,,,,,,,,,,,,,,,
,,,,,,,,,,,,a,Correct!,0,92,92,7,1,t4.png,t5.png,1,0.90025,20,male,2020-10-14_14h48.18.989,torte-q,2020.1.3,Win32,60,12840,1.25202,,,,,,,,,,,,,,,,,,,,,,,,,,,,,,,,,,,,,,,,,,,,
,,,,,,,,,,,,a,Correct!,0,93,93,32,1,t4.png,t5.png,1,0.90025,20,male,2020-10-14_14h48.18.989,torte-q,2020.1.3,Win32,60,12840,0.74246,,,,,,,,,,,,,,,,,,,,,,,,,,,,,,,,,,,,,,,,,,,,
,,,,,,,,,,,,l,Correct!,0,94,94,73,1,t4.png,t2.png,2,0.059078,20,male,2020-10-14_14h48.18.989,torte-q,2020.1.3,Win32,60,12840,1.2199,,,,,,,,,,,,,,,,,,,,,,,,,,,,,,,,,,,,,,,,,,,,
,,,,,,,,,,,,a,Correct!,0,95,95,109,1,t5.png,t5.png,0,0.97829,20,male,2020-10-14_14h48.18.989,torte-q,2020.1.3,Win32,60,12840,1.007965,,,,,,,,,,,,,,,,,,,,,,,,,,,,,,,,,,,,,,,,,,,,
,,,,,,,,,,,,l,Correct!,0,96,96,43,1,t4.png,t2.png,2,0.059078,20,male,2020-10-14_14h48.18.989,torte-q,2020.1.3,Win32,60,12840,0.856805,,,,,,,,,,,,,,,,,,,,,,,,,,,,,,,,,,,,,,,,,,,,
,,,,,,,,,,,,l,Correct!,0,97,97,103,1,t3.png,t1.png,2,0.056466,20,male,2020-10-14_14h48.18.989,torte-q,2020.1.3,Win32,60,12840,1.16726,,,,,,,,,,,,,,,,,,,,,,,,,,,,,,,,,,,,,,,,,,,,
,,,,,,,,,,,,l,Correct!,0,98,98,17,1,t1.png,t4.png,3,0.0000131,20,male,2020-10-14_14h48.18.989,torte-q,2020.1.3,Win32,60,12840,1.31308,,,,,,,,,,,,,,,,,,,,,,,,,,,,,,,,,,,,,,,,,,,,
,,,,,,,,,,,,a,Correct!,0,99,99,64,1,t1.png,t1.png,0,0.978,20,male,2020-10-14_14h48.18.989,torte-q,2020.1.3,Win32,60,12840,0.915605,,,,,,,,,,,,,,,,,,,,,,,,,,,,,,,,,,,,,,,,,,,,
,,,,,,,,,,,,l,Correct!,0,100,100,115,1,t2.png,t4.png,2,0.059078,20,male,2020-10-14_14h48.18.989,torte-q,2020.1.3,Win32,60,12840,0.963875,,,,,,,,,,,,,,,,,,,,,,,,,,,,,,,,,,,,,,,,,,,,
,,,,,,,,,,,,l,Correct!,0,101,101,52,1,t2.png,t4.png,2,0.059078,20,male,2020-10-14_14h48.18.989,torte-q,2020.1.3,Win32,60,12840,0.95473,,,,,,,,,,,,,,,,,,,,,,,,,,,,,,,,,,,,,,,,,,,,
,,,,,,,,,,,,a,Correct!,0,102,102,48,1,t5.png,t5.png,0,0.97829,20,male,2020-10-14_14h48.18.989,torte-q,2020.1.3,Win32,60,12840,0.83855,,,,,,,,,,,,,,,,,,,,,,,,,,,,,,,,,,,,,,,,,,,,
,,,,,,,,,,,,l,Correct!,0,103,103,60,1,t2.png,t4.png,2,0.059078,20,male,2020-10-14_14h48.18.989,torte-q,2020.1.3,Win32,60,12840,0.90755,,,,,,,,,,,,,,,,,,,,,,,,,,,,,,,,,,,,,,,,,,,,
,,,,,,,,,,,,l,Correct!,0,104,104,30,1,t3.png,t1.png,2,0.056466,20,male,2020-10-14_14h48.18.989,torte-q,2020.1.3,Win32,60,12840,1.178695,,,,,,,,,,,,,,,,,,,,,,,,,,,,,,,,,,,,,,,,,,,,
,,,,,,,,,,,,a,Correct!,0,105,105,41,1,t3.png,t2.png,1,0.90855,20,male,2020-10-14_14h48.18.989,torte-q,2020.1.3,Win32,60,12840,1.41599,,,,,,,,,,,,,,,,,,,,,,,,,,,,,,,,,,,,,,,,,,,,
,,,,,,,,,,,,l,Correct!,0,106,106,33,1,t5.png,t1.png,4,9.55E-11,20,male,2020-10-14_14h48.18.989,torte-q,2020.1.3,Win32,60,12840,0.948345,,,,,,,,,,,,,,,,,,,,,,,,,,,,,,,,,,,,,,,,,,,,
,,,,,,,,,,,,l,Correct!,0,107,107,1,1,t2.png,t4.png,2,0.059078,20,male,2020-10-14_14h48.18.989,torte-q,2020.1.3,Win32,60,12840,0.822015,,,,,,,,,,,,,,,,,,,,,,,,,,,,,,,,,,,,,,,,,,,,
,,,,,,,,,,,,l,Correct!,0,108,108,89,1,t1.png,t4.png,3,0.0000131,20,male,2020-10-14_14h48.18.989,torte-q,2020.1.3,Win32,60,12840,1.24266,,,,,,,,,,,,,,,,,,,,,,,,,,,,,,,,,,,,,,,,,,,,
,,,,,,,,,,,,a,Correct!,0,109,109,85,1,t3.png,t2.png,1,0.90855,20,male,2020-10-14_14h48.18.989,torte-q,2020.1.3,Win32,60,12840,1.198195,,,,,,,,,,,,,,,,,,,,,,,,,,,,,,,,,,,,,,,,,,,,
,,,,,,,,,,,,a,Correct!,0,110,110,75,1,t1.png,t1.png,0,0.97829,20,male,2020-10-14_14h48.18.989,torte-q,2020.1.3,Win32,60,12840,0.800825,,,,,,,,,,,,,,,,,,,,,,,,,,,,,,,,,,,,,,,,,,,,
,,,,,,,,,,,,a,Correct!,0,111,111,112,1,t1.png,t1.png,0,0.97829,20,male,2020-10-14_14h48.18.989,torte-q,2020.1.3,Win32,60,12840,0.607095,,,,,,,,,,,,,,,,,,,,,,,,,,,,,,,,,,,,,,,,,,,,
,,,,,,,,,,,,l,Correct!,0,112,112,4,1,t1.png,t5.png,4,9.55E-11,20,male,2020-10-14_14h48.18.989,torte-q,2020.1.3,Win32,60,12840,0.85097,,,,,,,,,,,,,,,,,,,,,,,,,,,,,,,,,,,,,,,,,,,,
,,,,,,,,,,,,a,Correct!,0,113,113,10,1,t2.png,t3.png,1,0.90855,20,male,2020-10-14_14h48.18.989,torte-q,2020.1.3,Win32,60,12840,1.08606,,,,,,,,,,,,,,,,,,,,,,,,,,,,,,,,,,,,,,,,,,,,
,,,,,,,,,,,,l,Correct!,0,114,114,35,1,t1.png,t4.png,3,0.0000131,20,male,2020-10-14_14h48.18.989,torte-q,2020.1.3,Win32,60,12840,1.15278,,,,,,,,,,,,,,,,,,,,,,,,,,,,,,,,,,,,,,,,,,,,
,,,,,,,,,,,,a,Correct!,0,115,115,20,1,t2.png,t3.png,1,0.90855,20,male,2020-10-14_14h48.18.989,torte-q,2020.1.3,Win32,60,12840,0.9182,,,,,,,,,,,,,,,,,,,,,,,,,,,,,,,,,,,,,,,,,,,,
,,,,,,,,,,,,l,Correct!,0,116,116,3,1,t1.png,t5.png,4,9.55E-11,20,male,2020-10-14_14h48.18.989,torte-q,2020.1.3,Win32,60,12840,0.785335,,,,,,,,,,,,,,,,,,,,,,,,,,,,,,,,,,,,,,,,,,,,
,,,,,,,,,,,,l,Correct!,0,117,117,46,1,t4.png,t2.png,2,0.059078,20,male,2020-10-14_14h48.18.989,torte-q,2020.1.3,Win32,60,12840,1.11932,,,,,,,,,,,,,,,,,,,,,,,,,,,,,,,,,,,,,,,,,,,,
,,,,,,,,,,,,l,Correct!,0,118,118,67,1,t1.png,t5.png,4,9.55E-11,20,male,2020-10-14_14h48.18.989,torte-q,2020.1.3,Win32,60,12840,1.00144,,,,,,,,,,,,,,,,,,,,,,,,,,,,,,,,,,,,,,,,,,,,
,,,,,,,,,,,,l,Correct!,0,119,119,57,1,t2.png,t4.png,2,0.059078,20,male,2020-10-14_14h48.18.989,torte-q,2020.1.3,Win32,60,12840,0.890885,,,,,,,,,,,,,,,,,,,,,,,,,,,,,,,,,,,,,,,,,,,,
,,,,,,,,,,,,l,Correct!,,,,,,t2.png,t4.png,2,0.059078,20,male,2020-10-14_14h48.18.989,torte-q,2020.1.3,Win32,60,12840,1.418625,space,14.704745,space,5.67581,0,0,0,77,1,,,,,,,,,,,,,,,,,,,,,,,,,,,,,,,,,,,
,,,,,,,,,,,,l,Incorrect,,,,,,t4.png,t2.png,2,0.059078,20,male,2020-10-14_14h48.18.989,torte-q,2020.1.3,Win32,60,12840,0.807315,,,,,0,1,1,109,1,,,,,,,,,,,,,,,,,,,,,,,,,,,,,,,,,,,
,,,,,,,,,,,,a,Correct!,,,,,,t4.png,t3.png,1,0.90855,20,male,2020-10-14_14h48.18.989,torte-q,2020.1.3,Win32,60,12840,1.78357,,,,,0,2,2,35,1,,,,,,,,,,,,,,,,,,,,,,,,,,,,,,,,,,,
,,,,,,,,,,,,a,Correct!,,,,,,t4.png,t3.png,1,0.90855,20,male,2020-10-14_14h48.18.989,torte-q,2020.1.3,Win32,60,12840,1.39929,,,,,0,3,3,75,1,,,,,,,,,,,,,,,,,,,,,,,,,,,,,,,,,,,
,,,,,,,,,,,,a,Incorrect,,,,,,t2.png,t5.png,3,0.0000131,20,male,2020-10-14_14h48.18.989,torte-q,2020.1.3,Win32,60,12840,1.63201,,,,,0,4,4,66,1,,,,,,,,,,,,,,,,,,,,,,,,,,,,,,,,,,,
,,,,,,,,,,,,l,Correct!,,,,,,t5.png,t2.png,3,0.0000131,20,male,2020-10-14_14h48.18.989,torte-q,2020.1.3,Win32,60,12840,1.63068,,,,,0,5,5,91,1,,,,,,,,,,,,,,,,,,,,,,,,,,,,,,,,,,,
,,,,,,,,,,,,l,Correct!,,,,,,t5.png,t2.png,3,0.0000131,20,male,2020-10-14_14h48.18.989,torte-q,2020.1.3,Win32,60,12840,1.272255,,,,,0,6,6,51,1,,,,,,,,,,,,,,,,,,,,,,,,,,,,,,,,,,,
,,,,,,,,,,,,a,Correct!,,,,,,t5.png,t4.png,1,0.9,20,male,2020-10-14_14h48.18.989,torte-q,2020.1.3,Win32,60,12840,1.97969,,,,,0,7,7,49,1,,,,,,,,,,,,,,,,,,,,,,,,,,,,,,,,,,,
,,,,,,,,,,,,a,Correct!,,,,,,t4.png,t5.png,1,0.90025,20,male,2020-10-14_14h48.18.989,torte-q,2020.1.3,Win32,60,12840,1.51966,,,,,0,8,8,113,1,,,,,,,,,,,,,,,,,,,,,,,,,,,,,,,,,,,
,,,,,,,,,,,,a,Incorrect,,,,,,t3.png,t5.png,2,0.056466,20,male,2020-10-14_14h48.18.989,torte-q,2020.1.3,Win32,60,12840,1.287565,,,,,0,9,9,14,1,,,,,,,,,,,,,,,,,,,,,,,,,,,,,,,,,,,
,,,,,,,,,,,,l,Correct!,,,,,,t1.png,t5.png,4,9.55E-11,20,male,2020-10-14_14h48.18.989,torte-q,2020.1.3,Win32,60,12840,0.98243,,,,,0,10,10,55,1,,,,,,,,,,,,,,,,,,,,,,,,,,,,,,,,,,,
,,,,,,,,,,,,a,Correct!,,,,,,t2.png,t3.png,1,0.90855,20,male,2020-10-14_14h48.18.989,torte-q,2020.1.3,Win32,60,12840,1.385355,,,,,0,11,11,111,1,,,,,,,,,,,,,,,,,,,,,,,,,,,,,,,,,,,
,,,,,,,,,,,,a,Correct!,,,,,,t3.png,t2.png,1,0.90855,20,male,2020-10-14_14h48.18.989,torte-q,2020.1.3,Win32,60,12840,1.22199,,,,,0,12,12,18,1,,,,,,,,,,,,,,,,,,,,,,,,,,,,,,,,,,,
,,,,,,,,,,,,l,Correct!,,,,,,t2.png,t4.png,2,0.059078,20,male,2020-10-14_14h48.18.989,torte-q,2020.1.3,Win32,60,12840,1.349295,,,,,0,13,13,24,1,,,,,,,,,,,,,,,,,,,,,,,,,,,,,,,,,,,
,,,,,,,,,,,,l,Correct!,,,,,,t3.png,t1.png,2,0.0565,20,male,2020-10-14_14h48.18.989,torte-q,2020.1.3,Win32,60,12840,1.341275,,,,,0,14,14,31,1,,,,,,,,,,,,,,,,,,,,,,,,,,,,,,,,,,,
,,,,,,,,,,,,a,Correct!,,,,,,t2.png,t1.png,1,0.9,20,male,2020-10-14_14h48.18.989,torte-q,2020.1.3,Win32,60,12840,1.78894,,,,,0,15,15,118,1,,,,,,,,,,,,,,,,,,,,,,,,,,,,,,,,,,,
,,,,,,,,,,,,a,Correct!,,,,,,t1.png,t1.png,0,0.978,20,male,2020-10-14_14h48.18.989,torte-q,2020.1.3,Win32,60,12840,1.02338,,,,,0,16,16,54,1,,,,,,,,,,,,,,,,,,,,,,,,,,,,,,,,,,,
,,,,,,,,,,,,a,Correct!,,,,,,t5.png,t4.png,1,0.90025,20,male,2020-10-14_14h48.18.989,torte-q,2020.1.3,Win32,60,12840,1.785185,,,,,0,17,17,26,1,,,,,,,,,,,,,,,,,,,,,,,,,,,,,,,,,,,
,,,,,,,,,,,,a,Incorrect,,,,,,t3.png,t5.png,2,0.0565,20,male,2020-10-14_14h48.18.989,torte-q,2020.1.3,Win32,60,12840,2.06319,,,,,0,18,18,30,1,,,,,,,,,,,,,,,,,,,,,,,,,,,,,,,,,,,
,,,,,,,,,,,,a,Correct!,,,,,,t3.png,t2.png,1,0.909,20,male,2020-10-14_14h48.18.989,torte-q,2020.1.3,Win32,60,12840,1.69728,,,,,0,19,19,3,1,,,,,,,,,,,,,,,,,,,,,,,,,,,,,,,,,,,
,,,,,,,,,,,,l,Correct!,,,,,,t1.png,t4.png,3,0.0000131,20,male,2020-10-14_14h48.18.989,torte-q,2020.1.3,Win32,60,12840,1.583435,,,,,0,20,20,81,1,,,,,,,,,,,,,,,,,,,,,,,,,,,,,,,,,,,
,,,,,,,,,,,,l,Correct!,,,,,,t3.png,t1.png,2,0.056466,20,male,2020-10-14_14h48.18.989,torte-q,2020.1.3,Win32,60,12840,1.133885,,,,,0,21,21,29,1,,,,,,,,,,,,,,,,,,,,,,,,,,,,,,,,,,,
,,,,,,,,,,,,a,Correct!,,,,,,t2.png,t3.png,1,0.90855,20,male,2020-10-14_14h48.18.989,torte-q,2020.1.3,Win32,60,12840,1.132205,,,,,0,22,22,10,1,,,,,,,,,,,,,,,,,,,,,,,,,,,,,,,,,,,
,,,,,,,,,,,,a,Incorrect,,,,,,t5.png,t2.png,3,0.0000131,20,male,2020-10-14_14h48.18.989,torte-q,2020.1.3,Win32,60,12840,1.550385,,,,,0,23,23,119,1,,,,,,,,,,,,,,,,,,,,,,,,,,,,,,,,,,,
,,,,,,,,,,,,l,Correct!,,,,,,t1.png,t5.png,4,9.55E-11,20,male,2020-10-14_14h48.18.989,torte-q,2020.1.3,Win32,60,12840,0.90769,,,,,0,24,24,12,1,,,,,,,,,,,,,,,,,,,,,,,,,,,,,,,,,,,
,,,,,,,,,,,,a,Incorrect,,,,,,t5.png,t3.png,2,0.056466,20,male,2020-10-14_14h48.18.989,torte-q,2020.1.3,Win32,60,12840,1.230615,,,,,0,25,25,114,1,,,,,,,,,,,,,,,,,,,,,,,,,,,,,,,,,,,
,,,,,,,,,,,,a,Correct!,,,,,,t1.png,t1.png,0,0.97829,20,male,2020-10-14_14h48.18.989,torte-q,2020.1.3,Win32,60,12840,1.201525,,,,,0,26,26,78,1,,,,,,,,,,,,,,,,,,,,,,,,,,,,,,,,,,,
,,,,,,,,,,,,a,Correct!,,,,,,t3.png,t2.png,1,0.90855,20,male,2020-10-14_14h48.18.989,torte-q,2020.1.3,Win32,60,12840,1.03242,,,,,0,27,27,53,1,,,,,,,,,,,,,,,,,,,,,,,,,,,,,,,,,,,
,,,,,,,,,,,,a,Incorrect,,,,,,t1.png,t3.png,2,0.056466,20,male,2020-10-14_14h48.18.989,torte-q,2020.1.3,Win32,60,12840,2.386715,,,,,0,28,28,69,1,,,,,,,,,,,,,,,,,,,,,,,,,,,,,,,,,,,
,,,,,,,,,,,,l,Correct!,,,,,,t5.png,t1.png,4,9.55E-11,20,male,2020-10-14_14h48.18.989,torte-q,2020.1.3,Win32,60,12840,0.79839,,,,,0,29,29,43,1,,,,,,,,,,,,,,,,,,,,,,,,,,,,,,,,,,,
,,,,,,,,,,,,a,Incorrect,,,,,,t5.png,t3.png,2,0.0565,20,male,2020-10-14_14h48.18.989,torte-q,2020.1.3,Win32,60,12840,1.934895,,,,,0,30,30,39,1,,,,,,,,,,,,,,,,,,,,,,,,,,,,,,,,,,,
,,,,,,,,,,,,l,Correct!,,,,,,t2.png,t4.png,2,0.059078,20,male,2020-10-14_14h48.18.989,torte-q,2020.1.3,Win32,60,12840,1.107835,,,,,0,31,31,11,1,,,,,,,,,,,,,,,,,,,,,,,,,,,,,,,,,,,
,,,,,,,,,,,,l,Correct!,,,,,,t5.png,t1.png,4,9.55E-11,20,male,2020-10-14_14h48.18.989,torte-q,2020.1.3,Win32,60,12840,0.835365,,,,,0,32,32,100,1,,,,,,,,,,,,,,,,,,,,,,,,,,,,,,,,,,,
,,,,,,,,,,,,l,Incorrect,,,,,,t5.png,t4.png,1,0.90025,20,male,2020-10-14_14h48.18.989,torte-q,2020.1.3,Win32,60,12840,1.785145,,,,,0,33,33,27,1,,,,,,,,,,,,,,,,,,,,,,,,,,,,,,,,,,,
,,,,,,,,,,,,a,Correct!,,,,,,t4.png,t5.png,1,0.90025,20,male,2020-10-14_14h48.18.989,torte-q,2020.1.3,Win32,60,12840,0.9682,,,,,0,34,34,47,1,,,,,,,,,,,,,,,,,,,,,,,,,,,,,,,,,,,
,,,,,,,,,,,,l,Incorrect,,,,,,t2.png,t2.png,0,0.98115,20,male,2020-10-14_14h48.18.989,torte-q,2020.1.3,Win32,60,12840,1.087115,,,,,0,35,35,2,1,,,,,,,,,,,,,,,,,,,,,,,,,,,,,,,,,,,
,,,,,,,,,,,,a,Correct!,,,,,,t4.png,t5.png,1,0.9,20,male,2020-10-14_14h48.18.989,torte-q,2020.1.3,Win32,60,12840,0.984385,,,,,0,36,36,115,1,,,,,,,,,,,,,,,,,,,,,,,,,,,,,,,,,,,
,,,,,,,,,,,,l,Correct!,,,,,,t1.png,t5.png,4,9.55E-11,20,male,2020-10-14_14h48.18.989,torte-q,2020.1.3,Win32,60,12840,0.752685,,,,,0,37,37,16,1,,,,,,,,,,,,,,,,,,,,,,,,,,,,,,,,,,,
,,,,,,,,,,,,l,Correct!,,,,,,t4.png,t1.png,3,0.0000131,20,male,2020-10-14_14h48.18.989,torte-q,2020.1.3,Win32,60,12840,1.658485,,,,,0,38,38,61,1,,,,,,,,,,,,,,,,,,,,,,,,,,,,,,,,,,,
,,,,,,,,,,,,a,Correct!,,,,,,t3.png,t2.png,1,0.909,20,male,2020-10-14_14h48.18.989,torte-q,2020.1.3,Win32,60,12840,0.99688,,,,,0,39,39,23,1,,,,,,,,,,,,,,,,,,,,,,,,,,,,,,,,,,,
,,,,,,,,,,,,a,Correct!,,,,,,t1.png,t1.png,0,0.97829,20,male,2020-10-14_14h48.18.989,torte-q,2020.1.3,Win32,60,12840,1.997615,,,,,0,40,40,67,1,,,,,,,,,,,,,,,,,,,,,,,,,,,,,,,,,,,
,,,,,,,,,,,,a,Correct!,,,,,,t3.png,t4.png,1,0.909,20,male,2020-10-14_14h48.18.989,torte-q,2020.1.3,Win32,60,12840,1.389085,,,,,0,41,41,89,1,,,,,,,,,,,,,,,,,,,,,,,,,,,,,,,,,,,
,,,,,,,,,,,,l,Incorrect,,,,,,t2.png,t2.png,0,0.98115,20,male,2020-10-14_14h48.18.989,torte-q,2020.1.3,Win32,60,12840,1.274525,,,,,0,42,42,57,1,,,,,,,,,,,,,,,,,,,,,,,,,,,,,,,,,,,
,,,,,,,,,,,,a,Incorrect,,,,,,t1.png,t4.png,3,0.0000131,20,male,2020-10-14_14h48.18.989,torte-q,2020.1.3,Win32,60,12840,1.2578,,,,,0,43,43,92,1,,,,,,,,,,,,,,,,,,,,,,,,,,,,,,,,,,,
,,,,,,,,,,,,l,Incorrect,,,,,,t4.png,t2.png,2,0.059078,20,male,2020-10-14_14h48.18.989,torte-q,2020.1.3,Win32,60,12840,0.867625,,,,,0,44,44,88,1,,,,,,,,,,,,,,,,,,,,,,,,,,,,,,,,,,,
,,,,,,,,,,,,a,Incorrect,,,,,,t3.png,t4.png,1,0.90855,20,male,2020-10-14_14h48.18.989,torte-q,2020.1.3,Win32,60,12840,1.48268,,,,,0,45,45,96,1,,,,,,,,,,,,,,,,,,,,,,,,,,,,,,,,,,,
,,,,,,,,,,,,a,Incorrect,,,,,,t3.png,t5.png,2,0.0565,20,male,2020-10-14_14h48.18.989,torte-q,2020.1.3,Win32,60,12840,0.949545,,,,,0,46,46,83,1,,,,,,,,,,,,,,,,,,,,,,,,,,,,,,,,,,,
,,,,,,,,,,,,a,Incorrect,,,,,,t5.png,t3.png,2,0.056466,20,male,2020-10-14_14h48.18.989,torte-q,2020.1.3,Win32,60,12840,0.94192,,,,,0,47,47,56,1,,,,,,,,,,,,,,,,,,,,,,,,,,,,,,,,,,,
,,,,,,,,,,,,a,Correct!,,,,,,t2.png,t3.png,1,0.90855,20,male,2020-10-14_14h48.18.989,torte-q,2020.1.3,Win32,60,12840,1.214985,,,,,0,48,48,65,1,,,,,,,,,,,,,,,,,,,,,,,,,,,,,,,,,,,
,,,,,,,,,,,,a,Correct!,,,,,,t2.png,t3.png,1,0.909,20,male,2020-10-14_14h48.18.989,torte-q,2020.1.3,Win32,60,12840,0.950555,,,,,0,49,49,74,1,,,,,,,,,,,,,,,,,,,,,,,,,,,,,,,,,,,
,,,,,,,,,,,,a,Correct!,,,,,,t5.png,t4.png,1,0.9,20,male,2020-10-14_14h48.18.989,torte-q,2020.1.3,Win32,60,12840,1.243245,,,,,0,50,50,76,1,,,,,,,,,,,,,,,,,,,,,,,,,,,,,,,,,,,
,,,,,,,,,,,,a,Incorrect,,,,,,t2.png,t5.png,3,0.0000131,20,male,2020-10-14_14h48.18.989,torte-q,2020.1.3,Win32,60,12840,0.938815,,,,,0,51,51,95,1,,,,,,,,,,,,,,,,,,,,,,,,,,,,,,,,,,,
,,,,,,,,,,,,a,Incorrect,,,,,,t1.png,t1.png,0,0.97829,20,male,2020-10-14_14h48.18.989,torte-q,2020.1.3,Win32,60,12840,0.949195,,,,,0,52,52,9,1,,,,,,,,,,,,,,,,,,,,,,,,,,,,,,,,,,,
,,,,,,,,,,,,a,Correct!,,,,,,t4.png,t4.png,0,0.98115,20,male,2020-10-14_14h48.18.989,torte-q,2020.1.3,Win32,60,12840,2.030855,,,,,0,53,53,21,1,,,,,,,,,,,,,,,,,,,,,,,,,,,,,,,,,,,
,,,,,,,,,,,,a,Incorrect,,,,,,t2.png,t1.png,1,0.90025,20,male,2020-10-14_14h48.18.989,torte-q,2020.1.3,Win32,60,12840,1.68714,,,,,0,54,54,62,1,,,,,,,,,,,,,,,,,,,,,,,,,,,,,,,,,,,
,,,,,,,,,,,,,Too slow :(,,,,,,t5.png,t2.png,3,0.0000131,20,male,2020-10-14_14h48.18.989,torte-q,2020.1.3,Win32,60,12840,,,,,,0,55,55,98,1,,,,,,,,,,,,,,,,,,,,,,,,,,,,,,,,,,,
,,,,,,,,,,,,l,Correct!,,,,,,t4.png,t1.png,3,0.0000131,20,male,2020-10-14_14h48.18.989,torte-q,2020.1.3,Win32,60,12840,1.73449,,,,,0,56,56,93,1,,,,,,,,,,,,,,,,,,,,,,,,,,,,,,,,,,,
,,,,,,,,,,,,l,Correct!,,,,,,t4.png,t1.png,3,0.0000131,20,male,2020-10-14_14h48.18.989,torte-q,2020.1.3,Win32,60,12840,1.052025,,,,,0,57,57,48,1,,,,,,,,,,,,,,,,,,,,,,,,,,,,,,,,,,,
,,,,,,,,,,,,l,Correct!,,,,,,t1.png,t4.png,3,0.0000131,20,male,2020-10-14_14h48.18.989,torte-q,2020.1.3,Win32,60,12840,1.07107,,,,,0,58,58,17,1,,,,,,,,,,,,,,,,,,,,,,,,,,,,,,,,,,,
,,,,,,,,,,,,a,Correct!,,,,,,t5.png,t5.png,0,0.97829,20,male,2020-10-14_14h48.18.989,torte-q,2020.1.3,Win32,60,12840,1.86523,,,,,0,59,59,94,1,,,,,,,,,,,,,,,,,,,,,,,,,,,,,,,,,,,
,,,,,,,,,,,,a,Correct!,,,,,,t3.png,t4.png,1,0.909,20,male,2020-10-14_14h48.18.989,torte-q,2020.1.3,Win32,60,12840,1.829805,,,,,0,60,60,106,1,,,,,,,,,,,,,,,,,,,,,,,,,,,,,,,,,,,
,,,,,,,,,,,,l,Incorrect,,,,,,t1.png,t2.png,1,0.90025,20,male,2020-10-14_14h48.18.989,torte-q,2020.1.3,Win32,60,12840,1.06801,,,,,0,61,61,112,1,,,,,,,,,,,,,,,,,,,,,,,,,,,,,,,,,,,
,,,,,,,,,,,,l,Correct!,,,,,,t2.png,t4.png,2,0.0591,20,male,2020-10-14_14h48.18.989,torte-q,2020.1.3,Win32,60,12840,1.055485,,,,,0,62,62,15,1,,,,,,,,,,,,,,,,,,,,,,,,,,,,,,,,,,,
,,,,,,,,,,,,a,Incorrect,,,,,,t3.png,t5.png,2,0.056466,20,male,2020-10-14_14h48.18.989,torte-q,2020.1.3,Win32,60,12840,1.103025,,,,,0,63,63,6,1,,,,,,,,,,,,,,,,,,,,,,,,,,,,,,,,,,,
,,,,,,,,,,,,l,Correct!,,,,,,t4.png,t2.png,2,0.059078,20,male,2020-10-14_14h48.18.989,torte-q,2020.1.3,Win32,60,12840,0.93355,,,,,0,64,64,86,1,,,,,,,,,,,,,,,,,,,,,,,,,,,,,,,,,,,
,,,,,,,,,,,,l,Correct!,,,,,,t1.png,t5.png,4,9.55E-11,20,male,2020-10-14_14h48.18.989,torte-q,2020.1.3,Win32,60,12840,0.885055,,,,,0,65,65,41,1,,,,,,,,,,,,,,,,,,,,,,,,,,,,,,,,,,,
,,,,,,,,,,,,a,Correct!,,,,,,t4.png,t5.png,1,0.90025,20,male,2020-10-14_14h48.18.989,torte-q,2020.1.3,Win32,60,12840,1.436215,,,,,0,66,66,103,1,,,,,,,,,,,,,,,,,,,,,,,,,,,,,,,,,,,
,,,,,,,,,,,,a,Correct!,,,,,,t5.png,t4.png,1,0.90025,20,male,2020-10-14_14h48.18.989,torte-q,2020.1.3,Win32,60,12840,1.31084,,,,,0,67,67,34,1,,,,,,,,,,,,,,,,,,,,,,,,,,,,,,,,,,,
,,,,,,,,,,,,a,Correct!,,,,,,t5.png,t5.png,0,0.978,20,male,2020-10-14_14h48.18.989,torte-q,2020.1.3,Win32,60,12840,0.8989,,,,,0,68,68,117,1,,,,,,,,,,,,,,,,,,,,,,,,,,,,,,,,,,,
,,,,,,,,,,,,a,Correct!,,,,,,t4.png,t4.png,0,0.98115,20,male,2020-10-14_14h48.18.989,torte-q,2020.1.3,Win32,60,12840,0.980845,,,,,0,69,69,52,1,,,,,,,,,,,,,,,,,,,,,,,,,,,,,,,,,,,
,,,,,,,,,,,,l,Correct!,,,,,,t3.png,t1.png,2,0.056466,20,male,2020-10-14_14h48.18.989,torte-q,2020.1.3,Win32,60,12840,1.03475,,,,,0,70,70,0,1,,,,,,,,,,,,,,,,,,,,,,,,,,,,,,,,,,,
,,,,,,,,,,,,a,Incorrect,,,,,,t2.png,t5.png,3,0.0000131,20,male,2020-10-14_14h48.18.989,torte-q,2020.1.3,Win32,60,12840,2.318595,,,,,0,71,71,104,1,,,,,,,,,,,,,,,,,,,,,,,,,,,,,,,,,,,
,,,,,,,,,,,,l,Correct!,,,,,,t1.png,t5.png,4,9.55E-11,20,male,2020-10-14_14h48.18.989,torte-q,2020.1.3,Win32,60,12840,0.66635,,,,,0,72,72,85,1,,,,,,,,,,,,,,,,,,,,,,,,,,,,,,,,,,,
,,,,,,,,,,,,l,Incorrect,,,,,,t4.png,t3.png,1,0.90855,20,male,2020-10-14_14h48.18.989,torte-q,2020.1.3,Win32,60,12840,0.98838,,,,,0,73,73,45,1,,,,,,,,,,,,,,,,,,,,,,,,,,,,,,,,,,,
,,,,,,,,,,,,l,Incorrect,,,,,,t2.png,t2.png,0,0.98115,20,male,2020-10-14_14h48.18.989,torte-q,2020.1.3,Win32,60,12840,1.014425,,,,,0,74,74,7,1,,,,,,,,,,,,,,,,,,,,,,,,,,,,,,,,,,,
,,,,,,,,,,,,a,Correct!,,,,,,t1.png,t1.png,0,0.978,20,male,2020-10-14_14h48.18.989,torte-q,2020.1.3,Win32,60,12840,1.009365,,,,,0,75,75,28,1,,,,,,,,,,,,,,,,,,,,,,,,,,,,,,,,,,,
,,,,,,,,,,,,a,Correct!,,,,,,t3.png,t4.png,1,0.909,20,male,2020-10-14_14h48.18.989,torte-q,2020.1.3,Win32,60,12840,1.86873,,,,,0,76,76,82,1,,,,,,,,,,,,,,,,,,,,,,,,,,,,,,,,,,,
,,,,,,,,,,,,l,Incorrect,,,,,,t1.png,t2.png,1,0.9,20,male,2020-10-14_14h48.18.989,torte-q,2020.1.3,Win32,60,12840,1.218815,,,,,0,77,77,1,1,,,,,,,,,,,,,,,,,,,,,,,,,,,,,,,,,,,
,,,,,,,,,,,,l,Correct!,,,,,,t4.png,t2.png,2,0.0591,20,male,2020-10-14_14h48.18.989,torte-q,2020.1.3,Win32,60,12840,0.836235,,,,,0,78,78,36,1,,,,,,,,,,,,,,,,,,,,,,,,,,,,,,,,,,,
,,,,,,,,,,,,a,Incorrect,,,,,,t5.png,t3.png,2,0.056466,20,male,2020-10-14_14h48.18.989,torte-q,2020.1.3,Win32,60,12840,1.6853,,,,,0,79,79,38,1,,,,,,,,,,,,,,,,,,,,,,,,,,,,,,,,,,,
,,,,,,,,,,,,a,Incorrect,,,,,,t2.png,t5.png,3,0.0000131,20,male,2020-10-14_14h48.18.989,torte-q,2020.1.3,Win32,60,12840,0.820075,,,,,0,80,80,40,1,,,,,,,,,,,,,,,,,,,,,,,,,,,,,,,,,,,
,,,,,,,,,,,,a,Incorrect,,,,,,t2.png,t3.png,1,0.90855,20,male,2020-10-14_14h48.18.989,torte-q,2020.1.3,Win32,60,12840,1.43573,,,,,0,81,81,68,1,,,,,,,,,,,,,,,,,,,,,,,,,,,,,,,,,,,
,,,,,,,,,,,,a,Correct!,,,,,,t4.png,t4.png,0,0.98115,20,male,2020-10-14_14h48.18.989,torte-q,2020.1.3,Win32,60,12840,0.886295,,,,,0,82,82,90,1,,,,,,,,,,,,,,,,,,,,,,,,,,,,,,,,,,,
,,,,,,,,,,,,a,Correct!,,,,,,t2.png,t1.png,1,0.90025,20,male,2020-10-14_14h48.18.989,torte-q,2020.1.3,Win32,60,12840,1.034785,,,,,0,83,83,19,1,,,,,,,,,,,,,,,,,,,,,,,,,,,,,,,,,,,
,,,,,,,,,,,,a,Correct!,,,,,,t5.png,t5.png,0,0.97829,20,male,2020-10-14_14h48.18.989,torte-q,2020.1.3,Win32,60,12840,1.465315,,,,,0,84,84,73,1,,,,,,,,,,,,,,,,,,,,,,,,,,,,,,,,,,,
,,,,,,,,,,,,a,Incorrect,,,,,,t5.png,t5.png,0,0.97829,20,male,2020-10-14_14h48.18.989,torte-q,2020.1.3,Win32,60,12840,0.74626,,,,,0,85,85,25,1,,,,,,,,,,,,,,,,,,,,,,,,,,,,,,,,,,,
,,,,,,,,,,,,a,Incorrect,,,,,,t5.png,t2.png,3,0.0000131,20,male,2020-10-14_14h48.18.989,torte-q,2020.1.3,Win32,60,12840,1.131855,,,,,0,86,86,116,1,,,,,,,,,,,,,,,,,,,,,,,,,,,,,,,,,,,
,,,,,,,,,,,,a,Correct!,,,,,,t3.png,t4.png,1,0.90855,20,male,2020-10-14_14h48.18.989,torte-q,2020.1.3,Win32,60,12840,0.921185,,,,,0,87,87,84,1,,,,,,,,,,,,,,,,,,,,,,,,,,,,,,,,,,,
,,,,,,,,,,,,l,Correct!,,,,,,t4.png,t1.png,3,0.0000131,20,male,2020-10-14_14h48.18.989,torte-q,2020.1.3,Win32,60,12840,0.93965,,,,,0,88,88,42,1,,,,,,,,,,,,,,,,,,,,,,,,,,,,,,,,,,,
,,,,,,,,,,,,a,Incorrect,,,,,,t2.png,t5.png,3,0.0000131,20,male,2020-10-14_14h48.18.989,torte-q,2020.1.3,Win32,60,12840,1.53294,,,,,0,89,89,8,1,,,,,,,,,,,,,,,,,,,,,,,,,,,,,,,,,,,
,,,,,,,,,,,,a,Correct!,,,,,,t2.png,t1.png,1,0.90025,20,male,2020-10-14_14h48.18.989,torte-q,2020.1.3,Win32,60,12840,0.97047,,,,,0,90,90,5,1,,,,,,,,,,,,,,,,,,,,,,,,,,,,,,,,,,,
,,,,,,,,,,,,l,Incorrect,,,,,,t2.png,t2.png,0,0.981,20,male,2020-10-14_14h48.18.989,torte-q,2020.1.3,Win32,60,12840,1.067145,,,,,0,91,91,101,1,,,,,,,,,,,,,,,,,,,,,,,,,,,,,,,,,,,
,,,,,,,,,,,,l,Correct!,,,,,,t4.png,t1.png,3,0.0000131,20,male,2020-10-14_14h48.18.989,torte-q,2020.1.3,Win32,60,12840,0.98493,,,,,0,92,92,13,1,,,,,,,,,,,,,,,,,,,,,,,,,,,,,,,,,,,
,,,,,,,,,,,,a,Correct!,,,,,,t4.png,t4.png,0,0.98115,20,male,2020-10-14_14h48.18.989,torte-q,2020.1.3,Win32,60,12840,1.085555,,,,,0,93,93,80,1,,,,,,,,,,,,,,,,,,,,,,,,,,,,,,,,,,,
,,,,,,,,,,,,a,Correct!,,,,,,t4.png,t4.png,0,0.98115,20,male,2020-10-14_14h48.18.989,torte-q,2020.1.3,Win32,60,12840,0.81948,,,,,0,94,94,79,1,,,,,,,,,,,,,,,,,,,,,,,,,,,,,,,,,,,
,,,,,,,,,,,,a,Correct!,,,,,,t1.png,t2.png,1,0.90025,20,male,2020-10-14_14h48.18.989,torte-q,2020.1.3,Win32,60,12840,1.015545,,,,,0,95,95,33,1,,,,,,,,,,,,,,,,,,,,,,,,,,,,,,,,,,,
,,,,,,,,,,,,a,Correct!,,,,,,t1.png,t2.png,1,0.90025,20,male,2020-10-14_14h48.18.989,torte-q,2020.1.3,Win32,60,12840,0.874925,,,,,0,96,96,72,1,,,,,,,,,,,,,,,,,,,,,,,,,,,,,,,,,,,
,,,,,,,,,,,,a,Correct!,,,,,,t2.png,t1.png,1,0.90025,20,male,2020-10-14_14h48.18.989,torte-q,2020.1.3,Win32,60,12840,0.704605,,,,,0,97,97,4,1,,,,,,,,,,,,,,,,,,,,,,,,,,,,,,,,,,,
,,,,,,,,,,,,a,Correct!,,,,,,t1.png,t2.png,1,0.90025,20,male,2020-10-14_14h48.18.989,torte-q,2020.1.3,Win32,60,12840,0.68911,,,,,0,98,98,105,1,,,,,,,,,,,,,,,,,,,,,,,,,,,,,,,,,,,
,,,,,,,,,,,,a,Correct!,,,,,,t4.png,t3.png,1,0.909,20,male,2020-10-14_14h48.18.989,torte-q,2020.1.3,Win32,60,12840,1.11731,,,,,0,99,99,46,1,,,,,,,,,,,,,,,,,,,,,,,,,,,,,,,,,,,
,,,,,,,,,,,,l,Correct!,,,,,,t5.png,t1.png,4,9.55E-11,20,male,2020-10-14_14h48.18.989,torte-q,2020.1.3,Win32,60,12840,1.021225,,,,,0,100,100,102,1,,,,,,,,,,,,,,,,,,,,,,,,,,,,,,,,,,,
,,,,,,,,,,,,l,Correct!,,,,,,t5.png,t1.png,4,9.55E-11,20,male,2020-10-14_14h48.18.989,torte-q,2020.1.3,Win32,60,12840,0.58695,,,,,0,101,101,71,1,,,,,,,,,,,,,,,,,,,,,,,,,,,,,,,,,,,
,,,,,,,,,,,,l,Correct!,,,,,,t3.png,t1.png,2,0.056466,20,male,2020-10-14_14h48.18.989,torte-q,2020.1.3,Win32,60,12840,1.21928,,,,,0,102,102,32,1,,,,,,,,,,,,,,,,,,,,,,,,,,,,,,,,,,,
,,,,,,,,,,,,a,Correct!,,,,,,t4.png,t5.png,1,0.90025,20,male,2020-10-14_14h48.18.989,torte-q,2020.1.3,Win32,60,12840,0.774495,,,,,0,103,103,58,1,,,,,,,,,,,,,,,,,,,,,,,,,,,,,,,,,,,
,,,,,,,,,,,,a,Incorrect,,,,,,t5.png,t3.png,2,0.056466,20,male,2020-10-14_14h48.18.989,torte-q,2020.1.3,Win32,60,12840,0.808285,,,,,0,104,104,108,1,,,,,,,,,,,,,,,,,,,,,,,,,,,,,,,,,,,
,,,,,,,,,,,,a,Incorrect,,,,,,t1.png,t4.png,3,0.0000131,20,male,2020-10-14_14h48.18.989,torte-q,2020.1.3,Win32,60,12840,1.003385,,,,,0,105,105,107,1,,,,,,,,,,,,,,,,,,,,,,,,,,,,,,,,,,,
,,,,,,,,,,,,a,Correct!,,,,,,t3.png,t2.png,1,0.90855,20,male,2020-10-14_14h48.18.989,torte-q,2020.1.3,Win32,60,12840,1.368845,,,,,0,106,106,97,1,,,,,,,,,,,,,,,,,,,,,,,,,,,,,,,,,,,
,,,,,,,,,,,,a,Correct!,,,,,,t5.png,t5.png,0,0.97829,20,male,2020-10-14_14h48.18.989,torte-q,2020.1.3,Win32,60,12840,0.753935,,,,,0,107,107,70,1,,,,,,,,,,,,,,,,,,,,,,,,,,,,,,,,,,,
,,,,,,,,,,,,a,Correct!,,,,,,t4.png,t3.png,1,0.909,20,male,2020-10-14_14h48.18.989,torte-q,2020.1.3,Win32,60,12840,0.78191,,,,,0,108,108,20,1,,,,,,,,,,,,,,,,,,,,,,,,,,,,,,,,,,,
,,,,,,,,,,,,a,Incorrect,,,,,,t1.png,t3.png,2,0.056466,20,male,2020-10-14_14h48.18.989,torte-q,2020.1.3,Win32,60,12840,0.864735,,,,,0,109,109,99,1,,,,,,,,,,,,,,,,,,,,,,,,,,,,,,,,,,,
,,,,,,,,,,,,l,Correct!,,,,,,t4.png,t2.png,2,0.059078,20,male,2020-10-14_14h48.18.989,torte-q,2020.1.3,Win32,60,12840,0.93153,,,,,0,110,110,110,1,,,,,,,,,,,,,,,,,,,,,,,,,,,,,,,,,,,
,,,,,,,,,,,,l,Correct!,,,,,,t5.png,t1.png,4,9.55E-11,20,male,2020-10-14_14h48.18.989,torte-q,2020.1.3,Win32,60,12840,0.757135,,,,,0,111,111,22,1,,,,,,,,,,,,,,,,,,,,,,,,,,,,,,,,,,,
,,,,,,,,,,,,l,Incorrect,,,,,,t2.png,t2.png,0,0.98115,20,male,2020-10-14_14h48.18.989,torte-q,2020.1.3,Win32,60,12840,0.909445,,,,,0,112,112,59,1,,,,,,,,,,,,,,,,,,,,,,,,,,,,,,,,,,,
,,,,,,,,,,,,l,Correct!,,,,,,t3.png,t1.png,2,0.056466,20,male,2020-10-14_14h48.18.989,torte-q,2020.1.3,Win32,60,12840,1.23801,,,,,0,113,113,64,1,,,,,,,,,,,,,,,,,,,,,,,,,,,,,,,,,,,
,,,,,,,,,,,,l,Correct!,,,,,,t1.png,t3.png,2,0.056466,20,male,2020-10-14_14h48.18.989,torte-q,2020.1.3,Win32,60,12840,0.864135,,,,,0,114,114,60,1,,,,,,,,,,,,,,,,,,,,,,,,,,,,,,,,,,,
,,,,,,,,,,,,a,Incorrect,,,,,,t3.png,t5.png,2,0.056466,20,male,2020-10-14_14h48.18.989,torte-q,2020.1.3,Win32,60,12840,0.782045,,,,,0,115,115,44,1,,,,,,,,,,,,,,,,,,,,,,,,,,,,,,,,,,,
,,,,,,,,,,,,l,Correct!,,,,,,t2.png,t4.png,2,0.059078,20,male,2020-10-14_14h48.18.989,torte-q,2020.1.3,Win32,60,12840,0.85216,,,,,0,116,116,37,1,,,,,,,,,,,,,,,,,,,,,,,,,,,,,,,,,,,
,,,,,,,,,,,,a,Incorrect,,,,,,t1.png,t4.png,3,0.0000131,20,male,2020-10-14_14h48.18.989,torte-q,2020.1.3,Win32,60,12840,0.919615,,,,,0,117,117,50,1,,,,,,,,,,,,,,,,,,,,,,,,,,,,,,,,,,,
,,,,,,,,,,,,a,Incorrect,,,,,,t1.png,t3.png,2,0.056466,20,male,2020-10-14_14h48.18.989,torte-q,2020.1.3,Win32,60,12840,0.836835,,,,,0,118,118,63,1,,,,,,,,,,,,,,,,,,,,,,,,,,,,,,,,,,,
,,,,,,,,,,,,a,Correct!,,,,,,t1.png,t3.png,2,0.056466,20,male,2020-10-14_14h48.18.989,torte-q,2020.1.3,Win32,60,12840,0.914605,,,,,0,119,119,87,1,,,,,,,,,,,,,,,,,,,,,,,,,,,,,,,,,,,
,,,,,,,,,,,,a,Correct!,,,,,,t2.png,t3.png,1,0.90855,20,male,2020-10-14_14h48.18.989,torte-q,2020.1.3,Win32,60,12840,1.340695,space,2.35212,,,,,,,,space,13.519705,space,0.739945,0,0,0,65,1,,,,,,,,,,,,,,,,,,,,,,,,,,
,,,,,,,,,,,,l,Correct!,,,,,,t1.png,t5.png,4,9.55E-11,20,male,2020-10-14_14h48.18.989,torte-q,2020.1.3,Win32,60,12840,1.668545,,,,,,,,,,,,,,0,1,1,85,1,,,,,,,,,,,,,,,,,,,,,,,,,,
,,,,,,,,,,,,a,Correct!,,,,,,t2.png,t1.png,1,0.9,20,male,2020-10-14_14h48.18.989,torte-q,2020.1.3,Win32,60,12840,1.140615,,,,,,,,,,,,,,0,2,2,118,1,,,,,,,,,,,,,,,,,,,,,,,,,,
,,,,,,,,,,,,a,Correct!,,,,,,t2.png,t3.png,1,0.90855,20,male,2020-10-14_14h48.18.989,torte-q,2020.1.3,Win32,60,12840,0.99811,,,,,,,,,,,,,,0,3,3,111,1,,,,,,,,,,,,,,,,,,,,,,,,,,
,,,,,,,,,,,,l,Correct!,,,,,,t4.png,t2.png,2,0.059078,20,male,2020-10-14_14h48.18.989,torte-q,2020.1.3,Win32,60,12840,0.898955,,,,,,,,,,,,,,0,4,4,109,1,,,,,,,,,,,,,,,,,,,,,,,,,,
,,,,,,,,,,,,a,Incorrect,,,,,,t3.png,t5.png,2,0.056466,20,male,2020-10-14_14h48.18.989,torte-q,2020.1.3,Win32,60,12840,1.308225,,,,,,,,,,,,,,0,5,5,14,1,,,,,,,,,,,,,,,,,,,,,,,,,,
,,,,,,,,,,,,a,Incorrect,,,,,,t5.png,t2.png,3,0.0000131,20,male,2020-10-14_14h48.18.989,torte-q,2020.1.3,Win32,60,12840,1.10457,,,,,,,,,,,,,,0,6,6,91,1,,,,,,,,,,,,,,,,,,,,,,,,,,
,,,,,,,,,,,,a,Incorrect,,,,,,t5.png,t3.png,2,0.056466,20,male,2020-10-14_14h48.18.989,torte-q,2020.1.3,Win32,60,12840,1.031815,,,,,,,,,,,,,,0,7,7,108,1,,,,,,,,,,,,,,,,,,,,,,,,,,
,,,,,,,,,,,,l,Correct!,,,,,,t1.png,t4.png,3,0.0000131,20,male,2020-10-14_14h48.18.989,torte-q,2020.1.3,Win32,60,12840,1.302185,,,,,,,,,,,,,,0,8,8,92,1,,,,,,,,,,,,,,,,,,,,,,,,,,
,,,,,,,,,,,,a,Correct!,,,,,,t2.png,t1.png,1,0.90025,20,male,2020-10-14_14h48.18.989,torte-q,2020.1.3,Win32,60,12840,1.134615,,,,,,,,,,,,,,0,9,9,4,1,,,,,,,,,,,,,,,,,,,,,,,,,,
,,,,,,,,,,,,a,Correct!,,,,,,t5.png,t4.png,1,0.90025,20,male,2020-10-14_14h48.18.989,torte-q,2020.1.3,Win32,60,12840,2.329925,,,,,,,,,,,,,,0,10,10,26,1,,,,,,,,,,,,,,,,,,,,,,,,,,
,,,,,,,,,,,,a,Correct!,,,,,,t5.png,t4.png,1,0.90025,20,male,2020-10-14_14h48.18.989,torte-q,2020.1.3,Win32,60,12840,1.053915,,,,,,,,,,,,,,0,11,11,27,1,,,,,,,,,,,,,,,,,,,,,,,,,,
,,,,,,,,,,,,a,Incorrect,,,,,,t3.png,t2.png,1,0.909,20,male,2020-10-14_14h48.18.989,torte-q,2020.1.3,Win32,60,12840,1.442215,,,,,,,,,,,,,,0,12,12,23,1,,,,,,,,,,,,,,,,,,,,,,,,,,
,,,,,,,,,,,,l,Correct!,,,,,,t1.png,t3.png,2,0.056466,20,male,2020-10-14_14h48.18.989,torte-q,2020.1.3,Win32,60,12840,1.0682,,,,,,,,,,,,,,0,13,13,87,1,,,,,,,,,,,,,,,,,,,,,,,,,,
,,,,,,,,,,,,a,Correct!,,,,,,t5.png,t5.png,0,0.97829,20,male,2020-10-14_14h48.18.989,torte-q,2020.1.3,Win32,60,12840,1.2372,,,,,,,,,,,,,,0,14,14,25,1,,,,,,,,,,,,,,,,,,,,,,,,,,
,,,,,,,,,,,,l,Incorrect,,,,,,t1.png,t2.png,1,0.90025,20,male,2020-10-14_14h48.18.989,torte-q,2020.1.3,Win32,60,12840,1.683845,,,,,,,,,,,,,,0,15,15,112,1,,,,,,,,,,,,,,,,,,,,,,,,,,
,,,,,,,,,,,,l,Correct!,,,,,,t1.png,t2.png,1,0.90025,20,male,2020-10-14_14h48.18.989,torte-q,2020.1.3,Win32,60,12840,0.717035,,,,,,,,,,,,,,0,16,16,72,1,,,,,,,,,,,,,,,,,,,,,,,,,,
,,,,,,,,,,,,a,Correct!,,,,,,t1.png,t1.png,0,0.97829,20,male,2020-10-14_14h48.18.989,torte-q,2020.1.3,Win32,60,12840,1.1162,,,,,,,,,,,,,,0,17,17,78,1,,,,,,,,,,,,,,,,,,,,,,,,,,
,,,,,,,,,,,,l,Correct!,,,,,,t4.png,t2.png,2,0.059078,20,male,2020-10-14_14h48.18.989,torte-q,2020.1.3,Win32,60,12840,1.300175,,,,,,,,,,,,,,0,18,18,88,1,,,,,,,,,,,,,,,,,,,,,,,,,,
,,,,,,,,,,,,a,Incorrect,,,,,,t2.png,t5.png,3,0.0000131,20,male,2020-10-14_14h48.18.989,torte-q,2020.1.3,Win32,60,12840,1.15215,,,,,,,,,,,,,,0,19,19,40,1,,,,,,,,,,,,,,,,,,,,,,,,,,
,,,,,,,,,,,,l,Correct!,,,,,,t5.png,t1.png,4,9.55E-11,20,male,2020-10-14_14h48.18.989,torte-q,2020.1.3,Win32,60,12840,0.90249,,,,,,,,,,,,,,0,20,20,43,1,,,,,,,,,,,,,,,,,,,,,,,,,,
,,,,,,,,,,,,l,Incorrect,,,,,,t2.png,t2.png,0,0.98115,20,male,2020-10-14_14h48.18.989,torte-q,2020.1.3,Win32,60,12840,1.117845,,,,,,,,,,,,,,0,21,21,7,1,,,,,,,,,,,,,,,,,,,,,,,,,,
,,,,,,,,,,,,l,Incorrect,,,,,,t1.png,t2.png,1,0.90025,20,male,2020-10-14_14h48.18.989,torte-q,2020.1.3,Win32,60,12840,1.22338,,,,,,,,,,,,,,0,22,22,33,1,,,,,,,,,,,,,,,,,,,,,,,,,,
,,,,,,,,,,,,l,Correct!,,,,,,t1.png,t3.png,2,0.056466,20,male,2020-10-14_14h48.18.989,torte-q,2020.1.3,Win32,60,12840,1.218225,,,,,,,,,,,,,,0,23,23,99,1,,,,,,,,,,,,,,,,,,,,,,,,,,
,,,,,,,,,,,,a,Incorrect,,,,,,t5.png,t2.png,3,0.0000131,20,male,2020-10-14_14h48.18.989,torte-q,2020.1.3,Win32,60,12840,1.85175,,,,,,,,,,,,,,0,24,24,119,1,,,,,,,,,,,,,,,,,,,,,,,,,,
,,,,,,,,,,,,a,Incorrect,,,,,,t5.png,t3.png,2,0.056466,20,male,2020-10-14_14h48.18.989,torte-q,2020.1.3,Win32,60,12840,0.967255,,,,,,,,,,,,,,0,25,25,56,1,,,,,,,,,,,,,,,,,,,,,,,,,,
,,,,,,,,,,,,l,Incorrect,,,,,,t1.png,t2.png,1,0.90025,20,male,2020-10-14_14h48.18.989,torte-q,2020.1.3,Win32,60,12840,1.024425,,,,,,,,,,,,,,0,26,26,105,1,,,,,,,,,,,,,,,,,,,,,,,,,,
,,,,,,,,,,,,l,Incorrect,,,,,,t2.png,t1.png,1,0.90025,20,male,2020-10-14_14h48.18.989,torte-q,2020.1.3,Win32,60,12840,1.485685,,,,,,,,,,,,,,0,27,27,5,1,,,,,,,,,,,,,,,,,,,,,,,,,,
,,,,,,,,,,,,l,Correct!,,,,,,t1.png,t5.png,4,9.55E-11,20,male,2020-10-14_14h48.18.989,torte-q,2020.1.3,Win32,60,12840,0.81741,,,,,,,,,,,,,,0,28,28,55,1,,,,,,,,,,,,,,,,,,,,,,,,,,
,,,,,,,,,,,,l,Correct!,,,,,,t4.png,t2.png,2,0.059078,20,male,2020-10-14_14h48.18.989,torte-q,2020.1.3,Win32,60,12840,1.03039,,,,,,,,,,,,,,0,29,29,110,1,,,,,,,,,,,,,,,,,,,,,,,,,,
,,,,,,,,,,,,a,Correct!,,,,,,t5.png,t5.png,0,0.97829,20,male,2020-10-14_14h48.18.989,torte-q,2020.1.3,Win32,60,12840,0.88148,,,,,,,,,,,,,,0,30,30,70,1,,,,,,,,,,,,,,,,,,,,,,,,,,
,,,,,,,,,,,,a,Correct!,,,,,,t4.png,t3.png,1,0.909,20,male,2020-10-14_14h48.18.989,torte-q,2020.1.3,Win32,60,12840,0.951335,,,,,,,,,,,,,,0,31,31,20,1,,,,,,,,,,,,,,,,,,,,,,,,,,
,,,,,,,,,,,,a,Correct!,,,,,,t3.png,t4.png,1,0.909,20,male,2020-10-14_14h48.18.989,torte-q,2020.1.3,Win32,60,12840,1.19008,,,,,,,,,,,,,,0,32,32,82,1,,,,,,,,,,,,,,,,,,,,,,,,,,
,,,,,,,,,,,,a,Correct!,,,,,,t2.png,t3.png,1,0.90855,20,male,2020-10-14_14h48.18.989,torte-q,2020.1.3,Win32,60,12840,1.03244,,,,,,,,,,,,,,0,33,33,10,1,,,,,,,,,,,,,,,,,,,,,,,,,,
,,,,,,,,,,,,l,Correct!,,,,,,t5.png,t1.png,4,9.55E-11,20,male,2020-10-14_14h48.18.989,torte-q,2020.1.3,Win32,60,12840,0.700055,,,,,,,,,,,,,,0,34,34,102,1,,,,,,,,,,,,,,,,,,,,,,,,,,
,,,,,,,,,,,,l,Correct!,,,,,,t1.png,t5.png,4,9.55E-11,20,male,2020-10-14_14h48.18.989,torte-q,2020.1.3,Win32,60,12840,0.67429,,,,,,,,,,,,,,0,35,35,12,1,,,,,,,,,,,,,,,,,,,,,,,,,,
,,,,,,,,,,,,l,Incorrect,,,,,,t2.png,t2.png,0,0.98115,20,male,2020-10-14_14h48.18.989,torte-q,2020.1.3,Win32,60,12840,0.9382,,,,,,,,,,,,,,0,36,36,57,1,,,,,,,,,,,,,,,,,,,,,,,,,,
,,,,,,,,,,,,a,Correct!,,,,,,t2.png,t3.png,1,0.909,20,male,2020-10-14_14h48.18.989,torte-q,2020.1.3,Win32,60,12840,1.33211,,,,,,,,,,,,,,0,37,37,74,1,,,,,,,,,,,,,,,,,,,,,,,,,,
,,,,,,,,,,,,a,Incorrect,,,,,,t5.png,t2.png,3,0.0000131,20,male,2020-10-14_14h48.18.989,torte-q,2020.1.3,Win32,60,12840,1.307695,,,,,,,,,,,,,,0,38,38,51,1,,,,,,,,,,,,,,,,,,,,,,,,,,
,,,,,,,,,,,,a,Correct!,,,,,,t3.png,t4.png,1,0.909,20,male,2020-10-14_14h48.18.989,torte-q,2020.1.3,Win32,60,12840,1.20046,,,,,,,,,,,,,,0,39,39,89,1,,,,,,,,,,,,,,,,,,,,,,,,,,
,,,,,,,,,,,,a,Correct!,,,,,,t3.png,t4.png,1,0.90855,20,male,2020-10-14_14h48.18.989,torte-q,2020.1.3,Win32,60,12840,1.13402,,,,,,,,,,,,,,0,40,40,96,1,,,,,,,,,,,,,,,,,,,,,,,,,,
,,,,,,,,,,,,a,Incorrect,,,,,,t3.png,t5.png,2,0.056466,20,male,2020-10-14_14h48.18.989,torte-q,2020.1.3,Win32,60,12840,0.631555,,,,,,,,,,,,,,0,41,41,6,1,,,,,,,,,,,,,,,,,,,,,,,,,,
,,,,,,,,,,,,l,Incorrect,,,,,,t2.png,t2.png,0,0.98115,20,male,2020-10-14_14h48.18.989,torte-q,2020.1.3,Win32,60,12840,0.91997,,,,,,,,,,,,,,0,42,42,2,1,,,,,,,,,,,,,,,,,,,,,,,,,,
,,,,,,,,,,,,,Too slow :(,,,,,,t4.png,t3.png,1,0.90855,20,male,2020-10-14_14h48.18.989,torte-q,2020.1.3,Win32,60,12840,,,,,,,,,,,,,,,0,43,43,35,1,,,,,,,,,,,,,,,,,,,,,,,,,,
,,,,,,,,,,,,a,Correct!,,,,,,t4.png,t4.png,0,0.98115,20,male,2020-10-14_14h48.18.989,torte-q,2020.1.3,Win32,60,12840,1.00601,,,,,,,,,,,,,,0,44,44,80,1,,,,,,,,,,,,,,,,,,,,,,,,,,
,,,,,,,,,,,,l,Correct!,,,,,,t5.png,t1.png,4,9.55E-11,20,male,2020-10-14_14h48.18.989,torte-q,2020.1.3,Win32,60,12840,0.708065,,,,,,,,,,,,,,0,45,45,71,1,,,,,,,,,,,,,,,,,,,,,,,,,,
,,,,,,,,,,,,l,Correct!,,,,,,t1.png,t3.png,2,0.056466,20,male,2020-10-14_14h48.18.989,torte-q,2020.1.3,Win32,60,12840,1.16827,,,,,,,,,,,,,,0,46,46,60,1,,,,,,,,,,,,,,,,,,,,,,,,,,
,,,,,,,,,,,,l,Correct!,,,,,,t3.png,t1.png,2,0.056466,20,male,2020-10-14_14h48.18.989,torte-q,2020.1.3,Win32,60,12840,1.61862,,,,,,,,,,,,,,0,47,47,0,1,,,,,,,,,,,,,,,,,,,,,,,,,,
,,,,,,,,,,,,a,Correct!,,,,,,t5.png,t4.png,1,0.9,20,male,2020-10-14_14h48.18.989,torte-q,2020.1.3,Win32,60,12840,1.23357,,,,,,,,,,,,,,0,48,48,76,1,,,,,,,,,,,,,,,,,,,,,,,,,,
,,,,,,,,,,,,a,Correct!,,,,,,t5.png,t4.png,1,0.9,20,male,2020-10-14_14h48.18.989,torte-q,2020.1.3,Win32,60,12840,0.97944,,,,,,,,,,,,,,0,49,49,49,1,,,,,,,,,,,,,,,,,,,,,,,,,,
,,,,,,,,,,,,,Too slow :(,,,,,,t3.png,t4.png,1,0.90855,20,male,2020-10-14_14h48.18.989,torte-q,2020.1.3,Win32,60,12840,,,,,,,,,,,,,,,0,50,50,84,1,,,,,,,,,,,,,,,,,,,,,,,,,,
,,,,,,,,,,,,l,Correct!,,,,,,t2.png,t4.png,2,0.059078,20,male,2020-10-14_14h48.18.989,torte-q,2020.1.3,Win32,60,12840,0.933075,,,,,,,,,,,,,,0,51,51,37,1,,,,,,,,,,,,,,,,,,,,,,,,,,
,,,,,,,,,,,,l,Correct!,,,,,,t1.png,t3.png,2,0.056466,20,male,2020-10-14_14h48.18.989,torte-q,2020.1.3,Win32,60,12840,0.73065,,,,,,,,,,,,,,0,52,52,69,1,,,,,,,,,,,,,,,,,,,,,,,,,,
,,,,,,,,,,,,l,Correct!,,,,,,t2.png,t4.png,2,0.059078,20,male,2020-10-14_14h48.18.989,torte-q,2020.1.3,Win32,60,12840,1.08615,,,,,,,,,,,,,,0,53,53,24,1,,,,,,,,,,,,,,,,,,,,,,,,,,
,,,,,,,,,,,,a,Correct!,,,,,,t3.png,t2.png,1,0.90855,20,male,2020-10-14_14h48.18.989,torte-q,2020.1.3,Win32,60,12840,1.1488,,,,,,,,,,,,,,0,54,54,18,1,,,,,,,,,,,,,,,,,,,,,,,,,,
,,,,,,,,,,,,a,Correct!,,,,,,t4.png,t4.png,0,0.98115,20,male,2020-10-14_14h48.18.989,torte-q,2020.1.3,Win32,60,12840,0.715995,,,,,,,,,,,,,,0,55,55,52,1,,,,,,,,,,,,,,,,,,,,,,,,,,
,,,,,,,,,,,,l,Incorrect,,,,,,t2.png,t2.png,0,0.98115,20,male,2020-10-14_14h48.18.989,torte-q,2020.1.3,Win32,60,12840,0.876935,,,,,,,,,,,,,,0,56,56,59,1,,,,,,,,,,,,,,,,,,,,,,,,,,
,,,,,,,,,,,,a,Correct!,,,,,,t3.png,t2.png,1,0.90855,20,male,2020-10-14_14h48.18.989,torte-q,2020.1.3,Win32,60,12840,1.091725,,,,,,,,,,,,,,0,57,57,53,1,,,,,,,,,,,,,,,,,,,,,,,,,,
,,,,,,,,,,,,a,Incorrect,,,,,,t4.png,t5.png,1,0.90025,20,male,2020-10-14_14h48.18.989,torte-q,2020.1.3,Win32,60,12840,0.83895,,,,,,,,,,,,,,0,58,58,103,1,,,,,,,,,,,,,,,,,,,,,,,,,,
,,,,,,,,,,,,l,Incorrect,,,,,,t1.png,t1.png,0,0.97829,20,male,2020-10-14_14h48.18.989,torte-q,2020.1.3,Win32,60,12840,0.765495,,,,,,,,,,,,,,0,59,59,9,1,,,,,,,,,,,,,,,,,,,,,,,,,,
,,,,,,,,,,,,l,Correct!,,,,,,t1.png,t4.png,3,0.0000131,20,male,2020-10-14_14h48.18.989,torte-q,2020.1.3,Win32,60,12840,0.831065,,,,,,,,,,,,,,0,60,60,107,1,,,,,,,,,,,,,,,,,,,,,,,,,,
,,,,,,,,,,,,a,Correct!,,,,,,t5.png,t5.png,0,0.978,20,male,2020-10-14_14h48.18.989,torte-q,2020.1.3,Win32,60,12840,0.99999,,,,,,,,,,,,,,0,61,61,117,1,,,,,,,,,,,,,,,,,,,,,,,,,,
,,,,,,,,,,,,a,Incorrect,,,,,,t5.png,t2.png,3,0.0000131,20,male,2020-10-14_14h48.18.989,torte-q,2020.1.3,Win32,60,12840,0.978175,,,,,,,,,,,,,,0,62,62,98,1,,,,,,,,,,,,,,,,,,,,,,,,,,
,,,,,,,,,,,,l,Correct!,,,,,,t3.png,t1.png,2,0.0565,20,male,2020-10-14_14h48.18.989,torte-q,2020.1.3,Win32,60,12840,1.174765,,,,,,,,,,,,,,0,63,63,31,1,,,,,,,,,,,,,,,,,,,,,,,,,,
,,,,,,,,,,,,a,Correct!,,,,,,t1.png,t1.png,0,0.97829,20,male,2020-10-14_14h48.18.989,torte-q,2020.1.3,Win32,60,12840,0.80158,,,,,,,,,,,,,,0,64,64,67,1,,,,,,,,,,,,,,,,,,,,,,,,,,
,,,,,,,,,,,,l,Incorrect,,,,,,t2.png,t2.png,0,0.981,20,male,2020-10-14_14h48.18.989,torte-q,2020.1.3,Win32,60,12840,0.951005,,,,,,,,,,,,,,0,65,65,101,1,,,,,,,,,,,,,,,,,,,,,,,,,,
,,,,,,,,,,,,a,Correct!,,,,,,t4.png,t5.png,1,0.9,20,male,2020-10-14_14h48.18.989,torte-q,2020.1.3,Win32,60,12840,1.113205,,,,,,,,,,,,,,0,66,66,115,1,,,,,,,,,,,,,,,,,,,,,,,,,,
,,,,,,,,,,,,l,Correct!,,,,,,t1.png,t4.png,3,0.0000131,20,male,2020-10-14_14h48.18.989,torte-q,2020.1.3,Win32,60,12840,0.85478,,,,,,,,,,,,,,0,67,67,50,1,,,,,,,,,,,,,,,,,,,,,,,,,,
,,,,,,,,,,,,l,Incorrect,,,,,,t1.png,t2.png,1,0.9,20,male,2020-10-14_14h48.18.989,torte-q,2020.1.3,Win32,60,12840,1.215085,,,,,,,,,,,,,,0,68,68,1,1,,,,,,,,,,,,,,,,,,,,,,,,,,
,,,,,,,,,,,,l,Correct!,,,,,,t4.png,t2.png,2,0.0591,20,male,2020-10-14_14h48.18.989,torte-q,2020.1.3,Win32,60,12840,1.14901,,,,,,,,,,,,,,0,69,69,36,1,,,,,,,,,,,,,,,,,,,,,,,,,,
,,,,,,,,,,,,l,Correct!,,,,,,t1.png,t5.png,4,9.55E-11,20,male,2020-10-14_14h48.18.989,torte-q,2020.1.3,Win32,60,12840,0.730935,,,,,,,,,,,,,,0,70,70,16,1,,,,,,,,,,,,,,,,,,,,,,,,,,
,,,,,,,,,,,,l,Correct!,,,,,,t1.png,t4.png,3,0.0000131,20,male,2020-10-14_14h48.18.989,torte-q,2020.1.3,Win32,60,12840,1.323525,,,,,,,,,,,,,,0,71,71,17,1,,,,,,,,,,,,,,,,,,,,,,,,,,
,,,,,,,,,,,,a,Incorrect,,,,,,t2.png,t5.png,3,0.0000131,20,male,2020-10-14_14h48.18.989,torte-q,2020.1.3,Win32,60,12840,0.863375,,,,,,,,,,,,,,0,72,72,104,1,,,,,,,,,,,,,,,,,,,,,,,,,,
,,,,,,,,,,,,l,Incorrect,,,,,,t2.png,t1.png,1,0.90025,20,male,2020-10-14_14h48.18.989,torte-q,2020.1.3,Win32,60,12840,1.38041,,,,,,,,,,,,,,0,73,73,62,1,,,,,,,,,,,,,,,,,,,,,,,,,,
,,,,,,,,,,,,a,Correct!,,,,,,t5.png,t4.png,1,0.90025,20,male,2020-10-14_14h48.18.989,torte-q,2020.1.3,Win32,60,12840,0.785385,,,,,,,,,,,,,,0,74,74,34,1,,,,,,,,,,,,,,,,,,,,,,,,,,
,,,,,,,,,,,,a,Correct!,,,,,,t5.png,t5.png,0,0.97829,20,male,2020-10-14_14h48.18.989,torte-q,2020.1.3,Win32,60,12840,0.66882,,,,,,,,,,,,,,0,75,75,94,1,,,,,,,,,,,,,,,,,,,,,,,,,,
,,,,,,,,,,,,a,Incorrect,,,,,,t2.png,t5.png,3,0.0000131,20,male,2020-10-14_14h48.18.989,torte-q,2020.1.3,Win32,60,12840,1.004455,,,,,,,,,,,,,,0,76,76,95,1,,,,,,,,,,,,,,,,,,,,,,,,,,
,,,,,,,,,,,,a,Incorrect,,,,,,t4.png,t5.png,1,0.90025,20,male,2020-10-14_14h48.18.989,torte-q,2020.1.3,Win32,60,12840,0.796405,,,,,,,,,,,,,,0,77,77,47,1,,,,,,,,,,,,,,,,,,,,,,,,,,
,,,,,,,,,,,,a,Correct!,,,,,,t4.png,t3.png,1,0.909,20,male,2020-10-14_14h48.18.989,torte-q,2020.1.3,Win32,60,12840,0.99647,,,,,,,,,,,,,,0,78,78,46,1,,,,,,,,,,,,,,,,,,,,,,,,,,
,,,,,,,,,,,,a,Correct!,,,,,,t4.png,t4.png,0,0.98115,20,male,2020-10-14_14h48.18.989,torte-q,2020.1.3,Win32,60,12840,0.68587,,,,,,,,,,,,,,0,79,79,21,1,,,,,,,,,,,,,,,,,,,,,,,,,,
,,,,,,,,,,,,a,Incorrect,,,,,,t3.png,t5.png,2,0.056466,20,male,2020-10-14_14h48.18.989,torte-q,2020.1.3,Win32,60,12840,0.62841,,,,,,,,,,,,,,0,80,80,44,1,,,,,,,,,,,,,,,,,,,,,,,,,,
,,,,,,,,,,,,l,Correct!,,,,,,t5.png,t1.png,4,9.55E-11,20,male,2020-10-14_14h48.18.989,torte-q,2020.1.3,Win32,60,12840,0.66944,,,,,,,,,,,,,,0,81,81,22,1,,,,,,,,,,,,,,,,,,,,,,,,,,
,,,,,,,,,,,,l,Correct!,,,,,,t4.png,t1.png,3,0.0000131,20,male,2020-10-14_14h48.18.989,torte-q,2020.1.3,Win32,60,12840,1.183745,,,,,,,,,,,,,,0,82,82,13,1,,,,,,,,,,,,,,,,,,,,,,,,,,
,,,,,,,,,,,,l,Correct!,,,,,,t3.png,t1.png,2,0.056466,20,male,2020-10-14_14h48.18.989,torte-q,2020.1.3,Win32,60,12840,0.865085,,,,,,,,,,,,,,0,83,83,32,1,,,,,,,,,,,,,,,,,,,,,,,,,,
,,,,,,,,,,,,a,Correct!,,,,,,t4.png,t4.png,0,0.98115,20,male,2020-10-14_14h48.18.989,torte-q,2020.1.3,Win32,60,12840,0.73162,,,,,,,,,,,,,,0,84,84,90,1,,,,,,,,,,,,,,,,,,,,,,,,,,
,,,,,,,,,,,,l,Correct!,,,,,,t4.png,t1.png,3,0.0000131,20,male,2020-10-14_14h48.18.989,torte-q,2020.1.3,Win32,60,12840,0.72039,,,,,,,,,,,,,,0,85,85,93,1,,,,,,,,,,,,,,,,,,,,,,,,,,
,,,,,,,,,,,,l,Correct!,,,,,,t5.png,t1.png,4,9.55E-11,20,male,2020-10-14_14h48.18.989,torte-q,2020.1.3,Win32,60,12840,0.697975,,,,,,,,,,,,,,0,86,86,100,1,,,,,,,,,,,,,,,,,,,,,,,,,,
,,,,,,,,,,,,a,Correct!,,,,,,t3.png,t2.png,1,0.909,20,male,2020-10-14_14h48.18.989,torte-q,2020.1.3,Win32,60,12840,2.071715,,,,,,,,,,,,,,0,87,87,3,1,,,,,,,,,,,,,,,,,,,,,,,,,,
,,,,,,,,,,,,l,Correct!,,,,,,t4.png,t1.png,3,0.0000131,20,male,2020-10-14_14h48.18.989,torte-q,2020.1.3,Win32,60,12840,0.79879,,,,,,,,,,,,,,0,88,88,42,1,,,,,,,,,,,,,,,,,,,,,,,,,,
,,,,,,,,,,,,l,Correct!,,,,,,t1.png,t3.png,2,0.056466,20,male,2020-10-14_14h48.18.989,torte-q,2020.1.3,Win32,60,12840,0.799705,,,,,,,,,,,,,,0,89,89,63,1,,,,,,,,,,,,,,,,,,,,,,,,,,
,,,,,,,,,,,,a,Correct!,,,,,,t4.png,t3.png,1,0.90855,20,male,2020-10-14_14h48.18.989,torte-q,2020.1.3,Win32,60,12840,0.805185,,,,,,,,,,,,,,0,90,90,45,1,,,,,,,,,,,,,,,,,,,,,,,,,,
,,,,,,,,,,,,a,Incorrect,,,,,,t5.png,t3.png,2,0.056466,20,male,2020-10-14_14h48.18.989,torte-q,2020.1.3,Win32,60,12840,0.767195,,,,,,,,,,,,,,0,91,91,38,1,,,,,,,,,,,,,,,,,,,,,,,,,,
,,,,,,,,,,,,a,Correct!,,,,,,t1.png,t1.png,0,0.978,20,male,2020-10-14_14h48.18.989,torte-q,2020.1.3,Win32,60,12840,0.864965,,,,,,,,,,,,,,0,92,92,28,1,,,,,,,,,,,,,,,,,,,,,,,,,,
,,,,,,,,,,,,l,Correct!,,,,,,t2.png,t4.png,2,0.059078,20,male,2020-10-14_14h48.18.989,torte-q,2020.1.3,Win32,60,12840,0.93028,,,,,,,,,,,,,,0,93,93,11,1,,,,,,,,,,,,,,,,,,,,,,,,,,
,,,,,,,,,,,,l,Correct!,,,,,,t4.png,t1.png,3,0.0000131,20,male,2020-10-14_14h48.18.989,torte-q,2020.1.3,Win32,60,12840,0.872155,,,,,,,,,,,,,,0,94,94,48,1,,,,,,,,,,,,,,,,,,,,,,,,,,
,,,,,,,,,,,,a,Incorrect,,,,,,t2.png,t5.png,3,0.0000131,20,male,2020-10-14_14h48.18.989,torte-q,2020.1.3,Win32,60,12840,0.83248,,,,,,,,,,,,,,0,95,95,66,1,,,,,,,,,,,,,,,,,,,,,,,,,,
,,,,,,,,,,,,a,Correct!,,,,,,t2.png,t1.png,1,0.90025,20,male,2020-10-14_14h48.18.989,torte-q,2020.1.3,Win32,60,12840,1.67414,,,,,,,,,,,,,,0,96,96,19,1,,,,,,,,,,,,,,,,,,,,,,,,,,
,,,,,,,,,,,,a,Correct!,,,,,,t1.png,t1.png,0,0.978,20,male,2020-10-14_14h48.18.989,torte-q,2020.1.3,Win32,60,12840,1.033855,,,,,,,,,,,,,,0,97,97,54,1,,,,,,,,,,,,,,,,,,,,,,,,,,
,,,,,,,,,,,,l,Correct!,,,,,,t1.png,t4.png,3,0.0000131,20,male,2020-10-14_14h48.18.989,torte-q,2020.1.3,Win32,60,12840,0.883965,,,,,,,,,,,,,,0,98,98,81,1,,,,,,,,,,,,,,,,,,,,,,,,,,
,,,,,,,,,,,,l,Correct!,,,,,,t3.png,t1.png,2,0.056466,20,male,2020-10-14_14h48.18.989,torte-q,2020.1.3,Win32,60,12840,0.65492,,,,,,,,,,,,,,0,99,99,29,1,,,,,,,,,,,,,,,,,,,,,,,,,,
,,,,,,,,,,,,a,Correct!,,,,,,t4.png,t5.png,1,0.90025,20,male,2020-10-14_14h48.18.989,torte-q,2020.1.3,Win32,60,12840,0.746745,,,,,,,,,,,,,,0,100,100,113,1,,,,,,,,,,,,,,,,,,,,,,,,,,
,,,,,,,,,,,,l,Correct!,,,,,,t3.png,t1.png,2,0.056466,20,male,2020-10-14_14h48.18.989,torte-q,2020.1.3,Win32,60,12840,0.63329,,,,,,,,,,,,,,0,101,101,64,1,,,,,,,,,,,,,,,,,,,,,,,,,,
,,,,,,,,,,,,a,Correct!,,,,,,t3.png,t2.png,1,0.90855,20,male,2020-10-14_14h48.18.989,torte-q,2020.1.3,Win32,60,12840,1.26676,,,,,,,,,,,,,,0,102,102,97,1,,,,,,,,,,,,,,,,,,,,,,,,,,
,,,,,,,,,,,,a,Correct!,,,,,,t4.png,t5.png,1,0.90025,20,male,2020-10-14_14h48.18.989,torte-q,2020.1.3,Win32,60,12840,0.66847,,,,,,,,,,,,,,0,103,103,58,1,,,,,,,,,,,,,,,,,,,,,,,,,,
,,,,,,,,,,,,a,Correct!,,,,,,t2.png,t3.png,1,0.90855,20,male,2020-10-14_14h48.18.989,torte-q,2020.1.3,Win32,60,12840,1.233555,,,,,,,,,,,,,,0,104,104,68,1,,,,,,,,,,,,,,,,,,,,,,,,,,
,,,,,,,,,,,,a,Incorrect,,,,,,t5.png,t2.png,3,0.0000131,20,male,2020-10-14_14h48.18.989,torte-q,2020.1.3,Win32,60,12840,0.852375,,,,,,,,,,,,,,0,105,105,116,1,,,,,,,,,,,,,,,,,,,,,,,,,,
,,,,,,,,,,,,a,Incorrect,,,,,,t5.png,t3.png,2,0.0565,20,male,2020-10-14_14h48.18.989,torte-q,2020.1.3,Win32,60,12840,0.539515,,,,,,,,,,,,,,0,106,106,39,1,,,,,,,,,,,,,,,,,,,,,,,,,,
,,,,,,,,,,,,a,Correct!,,,,,,t3.png,t5.png,2,0.0565,20,male,2020-10-14_14h48.18.989,torte-q,2020.1.3,Win32,60,12840,0.61791,,,,,,,,,,,,,,0,107,107,83,1,,,,,,,,,,,,,,,,,,,,,,,,,,
,,,,,,,,,,,,a,Incorrect,,,,,,t3.png,t5.png,2,0.0565,20,male,2020-10-14_14h48.18.989,torte-q,2020.1.3,Win32,60,12840,0.615055,,,,,,,,,,,,,,0,108,108,30,1,,,,,,,,,,,,,,,,,,,,,,,,,,
,,,,,,,,,,,,l,Correct!,,,,,,t1.png,t5.png,4,9.55E-11,20,male,2020-10-14_14h48.18.989,torte-q,2020.1.3,Win32,60,12840,0.829025,,,,,,,,,,,,,,0,109,109,41,1,,,,,,,,,,,,,,,,,,,,,,,,,,
,,,,,,,,,,,,a,Incorrect,,,,,,t2.png,t5.png,3,0.0000131,20,male,2020-10-14_14h48.18.989,torte-q,2020.1.3,Win32,60,12840,0.68215,,,,,,,,,,,,,,0,110,110,8,1,,,,,,,,,,,,,,,,,,,,,,,,,,
,,,,,,,,,,,,l,Correct!,,,,,,t2.png,t4.png,2,0.059078,20,male,2020-10-14_14h48.18.989,torte-q,2020.1.3,Win32,60,12840,0.780875,,,,,,,,,,,,,,0,111,111,77,1,,,,,,,,,,,,,,,,,,,,,,,,,,
,,,,,,,,,,,,a,Correct!,,,,,,t4.png,t4.png,0,0.98115,20,male,2020-10-14_14h48.18.989,torte-q,2020.1.3,Win32,60,12840,0.90091,,,,,,,,,,,,,,0,112,112,79,1,,,,,,,,,,,,,,,,,,,,,,,,,,
,,,,,,,,,,,,a,Incorrect,,,,,,t4.png,t2.png,2,0.059078,20,male,2020-10-14_14h48.18.989,torte-q,2020.1.3,Win32,60,12840,0.96772,,,,,,,,,,,,,,0,113,113,86,1,,,,,,,,,,,,,,,,,,,,,,,,,,
,,,,,,,,,,,,a,Correct!,,,,,,t5.png,t5.png,0,0.97829,20,male,2020-10-14_14h48.18.989,torte-q,2020.1.3,Win32,60,12840,0.599685,,,,,,,,,,,,,,0,114,114,73,1,,,,,,,,,,,,,,,,,,,,,,,,,,
,,,,,,,,,,,,a,Incorrect,,,,,,t3.png,t4.png,1,0.909,20,male,2020-10-14_14h48.18.989,torte-q,2020.1.3,Win32,60,12840,0.737505,,,,,,,,,,,,,,0,115,115,106,1,,,,,,,,,,,,,,,,,,,,,,,,,,
,,,,,,,,,,,,l,Correct!,,,,,,t2.png,t4.png,2,0.0591,20,male,2020-10-14_14h48.18.989,torte-q,2020.1.3,Win32,60,12840,0.700285,,,,,,,,,,,,,,0,116,116,15,1,,,,,,,,,,,,,,,,,,,,,,,,,,
,,,,,,,,,,,,l,Correct!,,,,,,t4.png,t1.png,3,0.0000131,20,male,2020-10-14_14h48.18.989,torte-q,2020.1.3,Win32,60,12840,0.848065,,,,,,,,,,,,,,0,117,117,61,1,,,,,,,,,,,,,,,,,,,,,,,,,,
,,,,,,,,,,,,a,Incorrect,,,,,,t5.png,t3.png,2,0.056466,20,male,2020-10-14_14h48.18.989,torte-q,2020.1.3,Win32,60,12840,0.64891,,,,,,,,,,,,,,0,118,118,114,1,,,,,,,,,,,,,,,,,,,,,,,,,,
,,,,,,,,,,,,a,Incorrect,,,,,,t4.png,t3.png,1,0.90855,20,male,2020-10-14_14h48.18.989,torte-q,2020.1.3,Win32,60,12840,0.62727,,,,,,,,,,,,,,0,119,119,75,1,,,,,,,,,,,,,,,,,,,,,,,,,,
,,,,,,,,,,,,,,,,,,,,,,,20,male,2020-10-14_14h48.18.989,torte-q,2020.1.3,Win32,60,12840,,space,1.062605,,,,,,,,,,,,,,,,,6.01,7.25926,85.33335495,-190.0000164,1,0,0,s7,44.00002038,85.3333048,1,0,0,t1,162.6666906,-104.6666805,1,0,0,proceed,space,14.799355,space,0.612955,space,0.33481
