key_resp_8.keys,key_resp_8.rt,key_resp_9.keys,key_resp_9.rt,key_resp_10.keys,key_resp_10.rt,key_resp_11.keys,key_resp_11.rt,key_resp_2.keys,key_resp_2.rt,key_resp_3.keys,key_resp_3.rt,key_resp.keys,Feedback,train.thisRepN,train.thisTrialN,train.thisN,train.thisIndex,train.ran,torta_sx,torta_dx,difference,probability,age,gender,date,expName,psychopyVersion,OS,frameRate,participant,key_resp.rt,key_resp_15.keys,key_resp_15.rt,key_resp_6.keys,key_resp_6.rt,test1.thisRepN,test1.thisTrialN,test1.thisN,test1.thisIndex,test1.ran,key_resp_16.keys,key_resp_16.rt,key_resp_7.keys,key_resp_7.rt,test2.thisRepN,test2.thisTrialN,test2.thisN,test2.thisIndex,test2.ran,rating.response,rating.rt,mouse.x,mouse.y,mouse.leftButton,mouse.midButton,mouse.rightButton,mouse.clicked_name,mouse_2.x,mouse_2.y,mouse_2.leftButton,mouse_2.midButton,mouse_2.rightButton,mouse_2.clicked_name,mouse_3.x,mouse_3.y,mouse_3.leftButton,mouse_3.midButton,mouse_3.rightButton,mouse_3.clicked_name,key_resp_12.keys,key_resp_12.rt,key_resp_13.keys,key_resp_13.rt,key_resp_14.keys,key_resp_14.rt
space,13.67294,space,2.40995,space,1.17431,space,5.91549,space,12.96218,space,33.781535,,Too slow :(,0,0,0,68,1,t1.png,t4.png,3,0.0000131,19,Female ,2020-10-20_16h10.27.849,torte-q,2020.1.3,Win32,60,13197,,,,,,,,,,,,,,,,,,,,,,,,,,,,,,,,,,,,,,,,,,,,,
,,,,,,,,,,,,a,Incorrect,0,1,1,53,1,t3.png,t1.png,2,0.056466,19,Female ,2020-10-20_16h10.27.849,torte-q,2020.1.3,Win32,60,13197,0.95187,,,,,,,,,,,,,,,,,,,,,,,,,,,,,,,,,,,,,,,,,,,,
,,,,,,,,,,,,a,Correct!,0,2,2,101,1,t4.png,t5.png,1,0.90025,19,Female ,2020-10-20_16h10.27.849,torte-q,2020.1.3,Win32,60,13197,1.635025,,,,,,,,,,,,,,,,,,,,,,,,,,,,,,,,,,,,,,,,,,,,
,,,,,,,,,,,,l,Incorrect,0,3,3,114,1,t2.png,t3.png,1,0.90855,19,Female ,2020-10-20_16h10.27.849,torte-q,2020.1.3,Win32,60,13197,1.236855,,,,,,,,,,,,,,,,,,,,,,,,,,,,,,,,,,,,,,,,,,,,
,,,,,,,,,,,,a,Incorrect,0,4,4,73,1,t4.png,t2.png,2,0.059078,19,Female ,2020-10-20_16h10.27.849,torte-q,2020.1.3,Win32,60,13197,1.110205,,,,,,,,,,,,,,,,,,,,,,,,,,,,,,,,,,,,,,,,,,,,
,,,,,,,,,,,,l,Incorrect,0,5,5,18,1,t4.png,t5.png,1,0.90025,19,Female ,2020-10-20_16h10.27.849,torte-q,2020.1.3,Win32,60,13197,1.18681,,,,,,,,,,,,,,,,,,,,,,,,,,,,,,,,,,,,,,,,,,,,
,,,,,,,,,,,,l,Correct!,0,6,6,99,1,t1.png,t5.png,4,9.55E-11,19,Female ,2020-10-20_16h10.27.849,torte-q,2020.1.3,Win32,60,13197,1.65272,,,,,,,,,,,,,,,,,,,,,,,,,,,,,,,,,,,,,,,,,,,,
,,,,,,,,,,,,a,Correct!,0,7,7,76,1,t3.png,t2.png,1,0.90855,19,Female ,2020-10-20_16h10.27.849,torte-q,2020.1.3,Win32,60,13197,1.17262,,,,,,,,,,,,,,,,,,,,,,,,,,,,,,,,,,,,,,,,,,,,
,,,,,,,,,,,,l,Correct!,0,8,8,90,1,t1.png,t5.png,4,9.55E-11,19,Female ,2020-10-20_16h10.27.849,torte-q,2020.1.3,Win32,60,13197,1.524305,,,,,,,,,,,,,,,,,,,,,,,,,,,,,,,,,,,,,,,,,,,,
,,,,,,,,,,,,a,Incorrect,0,9,9,102,1,t4.png,t2.png,2,0.059078,19,Female ,2020-10-20_16h10.27.849,torte-q,2020.1.3,Win32,60,13197,0.787195,,,,,,,,,,,,,,,,,,,,,,,,,,,,,,,,,,,,,,,,,,,,
,,,,,,,,,,,,l,Incorrect,0,10,10,100,1,t4.png,t5.png,1,0.90025,19,Female ,2020-10-20_16h10.27.849,torte-q,2020.1.3,Win32,60,13197,0.735875,,,,,,,,,,,,,,,,,,,,,,,,,,,,,,,,,,,,,,,,,,,,
,,,,,,,,,,,,l,Incorrect,0,11,11,39,1,t3.png,t2.png,1,0.90855,19,Female ,2020-10-20_16h10.27.849,torte-q,2020.1.3,Win32,60,13197,1.205,,,,,,,,,,,,,,,,,,,,,,,,,,,,,,,,,,,,,,,,,,,,
,,,,,,,,,,,,a,Correct!,0,12,12,32,1,t4.png,t5.png,1,0.90025,19,Female ,2020-10-20_16h10.27.849,torte-q,2020.1.3,Win32,60,13197,1.140705,,,,,,,,,,,,,,,,,,,,,,,,,,,,,,,,,,,,,,,,,,,,
,,,,,,,,,,,,l,Incorrect,0,13,13,75,1,t1.png,t1.png,0,0.97829,19,Female ,2020-10-20_16h10.27.849,torte-q,2020.1.3,Win32,60,13197,1.069085,,,,,,,,,,,,,,,,,,,,,,,,,,,,,,,,,,,,,,,,,,,,
,,,,,,,,,,,,a,Correct!,0,14,14,10,1,t2.png,t3.png,1,0.90855,19,Female ,2020-10-20_16h10.27.849,torte-q,2020.1.3,Win32,60,13197,1.03979,,,,,,,,,,,,,,,,,,,,,,,,,,,,,,,,,,,,,,,,,,,,
,,,,,,,,,,,,a,Correct!,0,15,15,8,1,t3.png,t2.png,1,0.90855,19,Female ,2020-10-20_16h10.27.849,torte-q,2020.1.3,Win32,60,13197,0.729185,,,,,,,,,,,,,,,,,,,,,,,,,,,,,,,,,,,,,,,,,,,,
,,,,,,,,,,,,l,Incorrect,0,16,16,22,1,t2.png,t3.png,1,0.90855,19,Female ,2020-10-20_16h10.27.849,torte-q,2020.1.3,Win32,60,13197,0.65302,,,,,,,,,,,,,,,,,,,,,,,,,,,,,,,,,,,,,,,,,,,,
,,,,,,,,,,,,a,Incorrect,0,17,17,47,1,t4.png,t2.png,2,0.059078,19,Female ,2020-10-20_16h10.27.849,torte-q,2020.1.3,Win32,60,13197,0.65767,,,,,,,,,,,,,,,,,,,,,,,,,,,,,,,,,,,,,,,,,,,,
,,,,,,,,,,,,l,Correct!,0,18,18,86,1,t3.png,t1.png,2,0.056466,19,Female ,2020-10-20_16h10.27.849,torte-q,2020.1.3,Win32,60,13197,0.86833,,,,,,,,,,,,,,,,,,,,,,,,,,,,,,,,,,,,,,,,,,,,
,,,,,,,,,,,,l,Incorrect,0,19,19,71,1,t5.png,t5.png,0,0.97829,19,Female ,2020-10-20_16h10.27.849,torte-q,2020.1.3,Win32,60,13197,0.930375,,,,,,,,,,,,,,,,,,,,,,,,,,,,,,,,,,,,,,,,,,,,
,,,,,,,,,,,,a,Correct!,0,20,20,74,1,t5.png,t4.png,1,0.9,19,Female ,2020-10-20_16h10.27.849,torte-q,2020.1.3,Win32,60,13197,0.81806,,,,,,,,,,,,,,,,,,,,,,,,,,,,,,,,,,,,,,,,,,,,
,,,,,,,,,,,,a,Correct!,0,21,21,13,1,t5.png,t5.png,0,0.97829,19,Female ,2020-10-20_16h10.27.849,torte-q,2020.1.3,Win32,60,13197,0.77061,,,,,,,,,,,,,,,,,,,,,,,,,,,,,,,,,,,,,,,,,,,,
,,,,,,,,,,,,a,Correct!,0,22,22,65,1,t4.png,t5.png,1,0.90025,19,Female ,2020-10-20_16h10.27.849,torte-q,2020.1.3,Win32,60,13197,0.95273,,,,,,,,,,,,,,,,,,,,,,,,,,,,,,,,,,,,,,,,,,,,
,,,,,,,,,,,,a,Incorrect,0,23,23,30,1,t3.png,t1.png,2,0.056466,19,Female ,2020-10-20_16h10.27.849,torte-q,2020.1.3,Win32,60,13197,0.758205,,,,,,,,,,,,,,,,,,,,,,,,,,,,,,,,,,,,,,,,,,,,
,,,,,,,,,,,,l,Incorrect,0,24,24,104,1,t2.png,t3.png,1,0.90855,19,Female ,2020-10-20_16h10.27.849,torte-q,2020.1.3,Win32,60,13197,1.252875,,,,,,,,,,,,,,,,,,,,,,,,,,,,,,,,,,,,,,,,,,,,
,,,,,,,,,,,,a,Correct!,0,25,25,28,1,t2.png,t3.png,1,0.909,19,Female ,2020-10-20_16h10.27.849,torte-q,2020.1.3,Win32,60,13197,1.13635,,,,,,,,,,,,,,,,,,,,,,,,,,,,,,,,,,,,,,,,,,,,
,,,,,,,,,,,,l,Correct!,0,26,26,1,1,t2.png,t4.png,2,0.059078,19,Female ,2020-10-20_16h10.27.849,torte-q,2020.1.3,Win32,60,13197,0.850815,,,,,,,,,,,,,,,,,,,,,,,,,,,,,,,,,,,,,,,,,,,,
,,,,,,,,,,,,a,Correct!,0,27,27,58,1,t5.png,t4.png,1,0.90025,19,Female ,2020-10-20_16h10.27.849,torte-q,2020.1.3,Win32,60,13197,0.82082,,,,,,,,,,,,,,,,,,,,,,,,,,,,,,,,,,,,,,,,,,,,
,,,,,,,,,,,,l,Correct!,0,28,28,87,1,t5.png,t1.png,4,9.55E-11,19,Female ,2020-10-20_16h10.27.849,torte-q,2020.1.3,Win32,60,13197,0.835335,,,,,,,,,,,,,,,,,,,,,,,,,,,,,,,,,,,,,,,,,,,,
,,,,,,,,,,,,l,Correct!,0,29,29,64,1,t1.png,t1.png,0,0.978,19,Female ,2020-10-20_16h10.27.849,torte-q,2020.1.3,Win32,60,13197,0.805475,,,,,,,,,,,,,,,,,,,,,,,,,,,,,,,,,,,,,,,,,,,,
,,,,,,,,,,,,l,Correct!,0,30,30,35,1,t1.png,t4.png,3,0.0000131,19,Female ,2020-10-20_16h10.27.849,torte-q,2020.1.3,Win32,60,13197,0.802475,,,,,,,,,,,,,,,,,,,,,,,,,,,,,,,,,,,,,,,,,,,,
,,,,,,,,,,,,l,Incorrect,0,31,31,7,1,t4.png,t5.png,1,0.90025,19,Female ,2020-10-20_16h10.27.849,torte-q,2020.1.3,Win32,60,13197,0.668,,,,,,,,,,,,,,,,,,,,,,,,,,,,,,,,,,,,,,,,,,,,
,,,,,,,,,,,,a,Incorrect,0,32,32,37,1,t1.png,t4.png,3,0.0000131,19,Female ,2020-10-20_16h10.27.849,torte-q,2020.1.3,Win32,60,13197,1.21961,,,,,,,,,,,,,,,,,,,,,,,,,,,,,,,,,,,,,,,,,,,,
,,,,,,,,,,,,a,Incorrect,0,33,33,0,1,t5.png,t1.png,4,9.55E-11,19,Female ,2020-10-20_16h10.27.849,torte-q,2020.1.3,Win32,60,13197,0.859545,,,,,,,,,,,,,,,,,,,,,,,,,,,,,,,,,,,,,,,,,,,,
,,,,,,,,,,,,l,Correct!,0,34,34,83,1,t3.png,t1.png,2,0.056466,19,Female ,2020-10-20_16h10.27.849,torte-q,2020.1.3,Win32,60,13197,0.58481,,,,,,,,,,,,,,,,,,,,,,,,,,,,,,,,,,,,,,,,,,,,
,,,,,,,,,,,,l,Correct!,0,35,35,94,1,t5.png,t1.png,4,9.55E-11,19,Female ,2020-10-20_16h10.27.849,torte-q,2020.1.3,Win32,60,13197,0.59059,,,,,,,,,,,,,,,,,,,,,,,,,,,,,,,,,,,,,,,,,,,,
,,,,,,,,,,,,a,Incorrect,0,36,36,44,1,t2.png,t3.png,1,0.909,19,Female ,2020-10-20_16h10.27.849,torte-q,2020.1.3,Win32,60,13197,1.369335,,,,,,,,,,,,,,,,,,,,,,,,,,,,,,,,,,,,,,,,,,,,
,,,,,,,,,,,,l,Correct!,0,37,37,91,1,t1.png,t4.png,3,0.0000131,19,Female ,2020-10-20_16h10.27.849,torte-q,2020.1.3,Win32,60,13197,1.520265,,,,,,,,,,,,,,,,,,,,,,,,,,,,,,,,,,,,,,,,,,,,
,,,,,,,,,,,,a,Correct!,0,38,38,113,1,t5.png,t4.png,1,0.9,19,Female ,2020-10-20_16h10.27.849,torte-q,2020.1.3,Win32,60,13197,1.6518,,,,,,,,,,,,,,,,,,,,,,,,,,,,,,,,,,,,,,,,,,,,
,,,,,,,,,,,,l,Correct!,0,39,39,119,1,t1.png,t5.png,4,9.55E-11,19,Female ,2020-10-20_16h10.27.849,torte-q,2020.1.3,Win32,60,13197,0.84955,,,,,,,,,,,,,,,,,,,,,,,,,,,,,,,,,,,,,,,,,,,,
,,,,,,,,,,,,l,Correct!,0,40,40,67,1,t1.png,t5.png,4,9.55E-11,19,Female ,2020-10-20_16h10.27.849,torte-q,2020.1.3,Win32,60,13197,0.969785,,,,,,,,,,,,,,,,,,,,,,,,,,,,,,,,,,,,,,,,,,,,
,,,,,,,,,,,,l,Correct!,0,41,41,95,1,t1.png,t1.png,0,0.978,19,Female ,2020-10-20_16h10.27.849,torte-q,2020.1.3,Win32,60,13197,1.10285,,,,,,,,,,,,,,,,,,,,,,,,,,,,,,,,,,,,,,,,,,,,
,,,,,,,,,,,,a,Correct!,0,42,42,29,1,t5.png,t5.png,0,0.97829,19,Female ,2020-10-20_16h10.27.849,torte-q,2020.1.3,Win32,60,13197,1.119645,,,,,,,,,,,,,,,,,,,,,,,,,,,,,,,,,,,,,,,,,,,,
,,,,,,,,,,,,a,Incorrect,0,43,43,26,1,t4.png,t2.png,2,0.0591,19,Female ,2020-10-20_16h10.27.849,torte-q,2020.1.3,Win32,60,13197,0.718215,,,,,,,,,,,,,,,,,,,,,,,,,,,,,,,,,,,,,,,,,,,,
,,,,,,,,,,,,l,Correct!,0,44,44,115,1,t2.png,t4.png,2,0.059078,19,Female ,2020-10-20_16h10.27.849,torte-q,2020.1.3,Win32,60,13197,0.90282,,,,,,,,,,,,,,,,,,,,,,,,,,,,,,,,,,,,,,,,,,,,
,,,,,,,,,,,,a,Incorrect,0,45,45,50,1,t5.png,t1.png,4,9.55E-11,19,Female ,2020-10-20_16h10.27.849,torte-q,2020.1.3,Win32,60,13197,0.734995,,,,,,,,,,,,,,,,,,,,,,,,,,,,,,,,,,,,,,,,,,,,
,,,,,,,,,,,,a,Incorrect,0,46,46,93,1,t2.png,t4.png,2,0.059078,19,Female ,2020-10-20_16h10.27.849,torte-q,2020.1.3,Win32,60,13197,1.00357,,,,,,,,,,,,,,,,,,,,,,,,,,,,,,,,,,,,,,,,,,,,
,,,,,,,,,,,,l,Correct!,0,47,47,108,1,t5.png,t1.png,4,9.55E-11,19,Female ,2020-10-20_16h10.27.849,torte-q,2020.1.3,Win32,60,13197,0.683805,,,,,,,,,,,,,,,,,,,,,,,,,,,,,,,,,,,,,,,,,,,,
,,,,,,,,,,,,l,Correct!,0,48,48,52,1,t2.png,t4.png,2,0.059078,19,Female ,2020-10-20_16h10.27.849,torte-q,2020.1.3,Win32,60,13197,0.98051,,,,,,,,,,,,,,,,,,,,,,,,,,,,,,,,,,,,,,,,,,,,
,,,,,,,,,,,,a,Correct!,0,49,49,70,1,t5.png,t5.png,0,0.978,19,Female ,2020-10-20_16h10.27.849,torte-q,2020.1.3,Win32,60,13197,0.728535,,,,,,,,,,,,,,,,,,,,,,,,,,,,,,,,,,,,,,,,,,,,
,,,,,,,,,,,,l,Incorrect,0,50,50,116,1,t5.png,t4.png,1,0.90025,19,Female ,2020-10-20_16h10.27.849,torte-q,2020.1.3,Win32,60,13197,0.6196,,,,,,,,,,,,,,,,,,,,,,,,,,,,,,,,,,,,,,,,,,,,
,,,,,,,,,,,,l,Correct!,0,51,51,88,1,t3.png,t1.png,2,0.056466,19,Female ,2020-10-20_16h10.27.849,torte-q,2020.1.3,Win32,60,13197,0.83472,,,,,,,,,,,,,,,,,,,,,,,,,,,,,,,,,,,,,,,,,,,,
,,,,,,,,,,,,a,Incorrect,0,52,52,4,1,t1.png,t5.png,4,9.55E-11,19,Female ,2020-10-20_16h10.27.849,torte-q,2020.1.3,Win32,60,13197,0.88553,,,,,,,,,,,,,,,,,,,,,,,,,,,,,,,,,,,,,,,,,,,,
,,,,,,,,,,,,l,Correct!,0,53,53,56,1,t5.png,t1.png,4,9.55E-11,19,Female ,2020-10-20_16h10.27.849,torte-q,2020.1.3,Win32,60,13197,0.604925,,,,,,,,,,,,,,,,,,,,,,,,,,,,,,,,,,,,,,,,,,,,
,,,,,,,,,,,,l,Correct!,0,54,54,5,1,t2.png,t4.png,2,0.059078,19,Female ,2020-10-20_16h10.27.849,torte-q,2020.1.3,Win32,60,13197,0.76876,,,,,,,,,,,,,,,,,,,,,,,,,,,,,,,,,,,,,,,,,,,,
,,,,,,,,,,,,l,Correct!,0,55,55,69,1,t4.png,t2.png,2,0.059078,19,Female ,2020-10-20_16h10.27.849,torte-q,2020.1.3,Win32,60,13197,0.714995,,,,,,,,,,,,,,,,,,,,,,,,,,,,,,,,,,,,,,,,,,,,
,,,,,,,,,,,,l,Incorrect,0,56,56,92,1,t2.png,t3.png,1,0.909,19,Female ,2020-10-20_16h10.27.849,torte-q,2020.1.3,Win32,60,13197,0.62101,,,,,,,,,,,,,,,,,,,,,,,,,,,,,,,,,,,,,,,,,,,,
,,,,,,,,,,,,l,Incorrect,0,57,57,66,1,t4.png,t5.png,1,0.9,19,Female ,2020-10-20_16h10.27.849,torte-q,2020.1.3,Win32,60,13197,0.88472,,,,,,,,,,,,,,,,,,,,,,,,,,,,,,,,,,,,,,,,,,,,
,,,,,,,,,,,,a,Incorrect,0,58,58,42,1,t5.png,t4.png,1,0.90025,19,Female ,2020-10-20_16h10.27.849,torte-q,2020.1.3,Win32,60,13197,0.588945,,,,,,,,,,,,,,,,,,,,,,,,,,,,,,,,,,,,,,,,,,,,
,,,,,,,,,,,,l,Correct!,0,59,59,27,1,t3.png,t1.png,2,0.0565,19,Female ,2020-10-20_16h10.27.849,torte-q,2020.1.3,Win32,60,13197,0.65368,,,,,,,,,,,,,,,,,,,,,,,,,,,,,,,,,,,,,,,,,,,,
,,,,,,,,,,,,l,Incorrect,0,60,60,63,1,t2.png,t3.png,1,0.909,19,Female ,2020-10-20_16h10.27.849,torte-q,2020.1.3,Win32,60,13197,1.017215,,,,,,,,,,,,,,,,,,,,,,,,,,,,,,,,,,,,,,,,,,,,
,,,,,,,,,,,,a,Incorrect,0,61,61,117,1,t1.png,t5.png,4,9.55E-11,19,Female ,2020-10-20_16h10.27.849,torte-q,2020.1.3,Win32,60,13197,0.870985,,,,,,,,,,,,,,,,,,,,,,,,,,,,,,,,,,,,,,,,,,,,
,,,,,,,,,,,,l,Incorrect,0,62,62,118,1,t5.png,t5.png,0,0.978,19,Female ,2020-10-20_16h10.27.849,torte-q,2020.1.3,Win32,60,13197,1.02049,,,,,,,,,,,,,,,,,,,,,,,,,,,,,,,,,,,,,,,,,,,,
,,,,,,,,,,,,a,Incorrect,0,63,63,14,1,t2.png,t4.png,2,0.059078,19,Female ,2020-10-20_16h10.27.849,torte-q,2020.1.3,Win32,60,13197,1.03644,,,,,,,,,,,,,,,,,,,,,,,,,,,,,,,,,,,,,,,,,,,,
,,,,,,,,,,,,l,Incorrect,0,64,64,79,1,t3.png,t2.png,1,0.909,19,Female ,2020-10-20_16h10.27.849,torte-q,2020.1.3,Win32,60,13197,1.05721,,,,,,,,,,,,,,,,,,,,,,,,,,,,,,,,,,,,,,,,,,,,
,,,,,,,,,,,,l,Correct!,0,65,65,36,1,t3.png,t1.png,2,0.0565,19,Female ,2020-10-20_16h10.27.849,torte-q,2020.1.3,Win32,60,13197,0.71893,,,,,,,,,,,,,,,,,,,,,,,,,,,,,,,,,,,,,,,,,,,,
,,,,,,,,,,,,l,Incorrect,0,66,66,106,1,t2.png,t3.png,1,0.90855,19,Female ,2020-10-20_16h10.27.849,torte-q,2020.1.3,Win32,60,13197,0.92589,,,,,,,,,,,,,,,,,,,,,,,,,,,,,,,,,,,,,,,,,,,,
,,,,,,,,,,,,l,Incorrect,0,67,67,77,1,t1.png,t1.png,0,0.97829,19,Female ,2020-10-20_16h10.27.849,torte-q,2020.1.3,Win32,60,13197,0.868485,,,,,,,,,,,,,,,,,,,,,,,,,,,,,,,,,,,,,,,,,,,,
,,,,,,,,,,,,a,Incorrect,0,68,68,31,1,t1.png,t5.png,4,9.55E-11,19,Female ,2020-10-20_16h10.27.849,torte-q,2020.1.3,Win32,60,13197,0.90167,,,,,,,,,,,,,,,,,,,,,,,,,,,,,,,,,,,,,,,,,,,,
,,,,,,,,,,,,l,Incorrect,0,69,69,109,1,t5.png,t5.png,0,0.97829,19,Female ,2020-10-20_16h10.27.849,torte-q,2020.1.3,Win32,60,13197,1.067925,,,,,,,,,,,,,,,,,,,,,,,,,,,,,,,,,,,,,,,,,,,,
,,,,,,,,,,,,l,Correct!,0,70,70,54,1,t1.png,t5.png,4,9.55E-11,19,Female ,2020-10-20_16h10.27.849,torte-q,2020.1.3,Win32,60,13197,1.370945,,,,,,,,,,,,,,,,,,,,,,,,,,,,,,,,,,,,,,,,,,,,
,,,,,,,,,,,,l,Incorrect,0,71,71,112,1,t1.png,t1.png,0,0.97829,19,Female ,2020-10-20_16h10.27.849,torte-q,2020.1.3,Win32,60,13197,0.884965,,,,,,,,,,,,,,,,,,,,,,,,,,,,,,,,,,,,,,,,,,,,
,,,,,,,,,,,,a,Incorrect,0,72,72,24,1,t4.png,t2.png,2,0.059078,19,Female ,2020-10-20_16h10.27.849,torte-q,2020.1.3,Win32,60,13197,0.89314,,,,,,,,,,,,,,,,,,,,,,,,,,,,,,,,,,,,,,,,,,,,
,,,,,,,,,,,,l,Incorrect,0,73,73,23,1,t5.png,t4.png,1,0.90025,19,Female ,2020-10-20_16h10.27.849,torte-q,2020.1.3,Win32,60,13197,0.850615,,,,,,,,,,,,,,,,,,,,,,,,,,,,,,,,,,,,,,,,,,,,
,,,,,,,,,,,,a,Incorrect,0,74,74,110,1,t4.png,t5.png,1,0.90025,19,Female ,2020-10-20_16h10.27.849,torte-q,2020.1.3,Win32,60,13197,0.70649,,,,,,,,,,,,,,,,,,,,,,,,,,,,,,,,,,,,,,,,,,,,
,,,,,,,,,,,,l,Incorrect,0,75,75,97,1,t5.png,t5.png,0,0.97829,19,Female ,2020-10-20_16h10.27.849,torte-q,2020.1.3,Win32,60,13197,0.777385,,,,,,,,,,,,,,,,,,,,,,,,,,,,,,,,,,,,,,,,,,,,
,,,,,,,,,,,,l,Correct!,0,76,76,51,1,t3.png,t1.png,2,0.056466,19,Female ,2020-10-20_16h10.27.849,torte-q,2020.1.3,Win32,60,13197,0.68748,,,,,,,,,,,,,,,,,,,,,,,,,,,,,,,,,,,,,,,,,,,,
,,,,,,,,,,,,l,Incorrect,0,77,77,21,1,t5.png,t4.png,1,0.90025,19,Female ,2020-10-20_16h10.27.849,torte-q,2020.1.3,Win32,60,13197,0.816295,,,,,,,,,,,,,,,,,,,,,,,,,,,,,,,,,,,,,,,,,,,,
,,,,,,,,,,,,l,Correct!,0,78,78,46,1,t4.png,t2.png,2,0.059078,19,Female ,2020-10-20_16h10.27.849,torte-q,2020.1.3,Win32,60,13197,0.927015,,,,,,,,,,,,,,,,,,,,,,,,,,,,,,,,,,,,,,,,,,,,
,,,,,,,,,,,,a,Incorrect,0,79,79,60,1,t2.png,t4.png,2,0.059078,19,Female ,2020-10-20_16h10.27.849,torte-q,2020.1.3,Win32,60,13197,0.63619,,,,,,,,,,,,,,,,,,,,,,,,,,,,,,,,,,,,,,,,,,,,
,,,,,,,,,,,,l,Correct!,0,80,80,82,1,t5.png,t1.png,4,9.55E-11,19,Female ,2020-10-20_16h10.27.849,torte-q,2020.1.3,Win32,60,13197,0.641715,,,,,,,,,,,,,,,,,,,,,,,,,,,,,,,,,,,,,,,,,,,,
,,,,,,,,,,,,l,Correct!,0,81,81,40,1,t1.png,t5.png,4,9.55E-11,19,Female ,2020-10-20_16h10.27.849,torte-q,2020.1.3,Win32,60,13197,0.95611,,,,,,,,,,,,,,,,,,,,,,,,,,,,,,,,,,,,,,,,,,,,
,,,,,,,,,,,,a,Correct!,0,82,82,2,1,t3.png,t2.png,1,0.90855,19,Female ,2020-10-20_16h10.27.849,torte-q,2020.1.3,Win32,60,13197,0.958845,,,,,,,,,,,,,,,,,,,,,,,,,,,,,,,,,,,,,,,,,,,,
,,,,,,,,,,,,l,Incorrect,0,83,83,20,1,t2.png,t3.png,1,0.90855,19,Female ,2020-10-20_16h10.27.849,torte-q,2020.1.3,Win32,60,13197,0.63744,,,,,,,,,,,,,,,,,,,,,,,,,,,,,,,,,,,,,,,,,,,,
,,,,,,,,,,,,a,Incorrect,0,84,84,19,1,t4.png,t2.png,2,0.059078,19,Female ,2020-10-20_16h10.27.849,torte-q,2020.1.3,Win32,60,13197,0.63065,,,,,,,,,,,,,,,,,,,,,,,,,,,,,,,,,,,,,,,,,,,,
,,,,,,,,,,,,l,Correct!,0,85,85,3,1,t1.png,t5.png,4,9.55E-11,19,Female ,2020-10-20_16h10.27.849,torte-q,2020.1.3,Win32,60,13197,0.390105,,,,,,,,,,,,,,,,,,,,,,,,,,,,,,,,,,,,,,,,,,,,
,,,,,,,,,,,,l,Incorrect,0,86,86,49,1,t4.png,t5.png,1,0.9,19,Female ,2020-10-20_16h10.27.849,torte-q,2020.1.3,Win32,60,13197,0.98498,,,,,,,,,,,,,,,,,,,,,,,,,,,,,,,,,,,,,,,,,,,,
,,,,,,,,,,,,a,Incorrect,0,87,87,17,1,t1.png,t4.png,3,0.0000131,19,Female ,2020-10-20_16h10.27.849,torte-q,2020.1.3,Win32,60,13197,0.739355,,,,,,,,,,,,,,,,,,,,,,,,,,,,,,,,,,,,,,,,,,,,
,,,,,,,,,,,,l,Incorrect,0,88,88,84,1,t1.png,t1.png,0,0.97829,19,Female ,2020-10-20_16h10.27.849,torte-q,2020.1.3,Win32,60,13197,0.553245,,,,,,,,,,,,,,,,,,,,,,,,,,,,,,,,,,,,,,,,,,,,
,,,,,,,,,,,,a,Correct!,0,89,89,15,1,t3.png,t2.png,1,0.90855,19,Female ,2020-10-20_16h10.27.849,torte-q,2020.1.3,Win32,60,13197,0.576245,,,,,,,,,,,,,,,,,,,,,,,,,,,,,,,,,,,,,,,,,,,,
,,,,,,,,,,,,l,Incorrect,0,90,90,62,1,t5.png,t5.png,0,0.978,19,Female ,2020-10-20_16h10.27.849,torte-q,2020.1.3,Win32,60,13197,0.48898,,,,,,,,,,,,,,,,,,,,,,,,,,,,,,,,,,,,,,,,,,,,
,,,,,,,,,,,,a,Incorrect,0,91,91,6,1,t1.png,t4.png,3,0.0000131,19,Female ,2020-10-20_16h10.27.849,torte-q,2020.1.3,Win32,60,13197,0.671055,,,,,,,,,,,,,,,,,,,,,,,,,,,,,,,,,,,,,,,,,,,,
,,,,,,,,,,,,l,Correct!,0,92,92,98,1,t2.png,t4.png,2,0.0591,19,Female ,2020-10-20_16h10.27.849,torte-q,2020.1.3,Win32,60,13197,0.45187,,,,,,,,,,,,,,,,,,,,,,,,,,,,,,,,,,,,,,,,,,,,
,,,,,,,,,,,,l,Correct!,0,93,93,80,1,t1.png,t4.png,3,0.0000131,19,Female ,2020-10-20_16h10.27.849,torte-q,2020.1.3,Win32,60,13197,0.46859,,,,,,,,,,,,,,,,,,,,,,,,,,,,,,,,,,,,,,,,,,,,
,,,,,,,,,,,,l,Incorrect,0,94,94,59,1,t5.png,t4.png,1,0.9,19,Female ,2020-10-20_16h10.27.849,torte-q,2020.1.3,Win32,60,13197,0.57047,,,,,,,,,,,,,,,,,,,,,,,,,,,,,,,,,,,,,,,,,,,,
,,,,,,,,,,,,l,Incorrect,0,95,95,107,1,t1.png,t1.png,0,0.978,19,Female ,2020-10-20_16h10.27.849,torte-q,2020.1.3,Win32,60,13197,0.472265,,,,,,,,,,,,,,,,,,,,,,,,,,,,,,,,,,,,,,,,,,,,
,,,,,,,,,,,,a,Incorrect,0,96,96,12,1,t5.png,t1.png,4,9.55E-11,19,Female ,2020-10-20_16h10.27.849,torte-q,2020.1.3,Win32,60,13197,0.539755,,,,,,,,,,,,,,,,,,,,,,,,,,,,,,,,,,,,,,,,,,,,
,,,,,,,,,,,,l,Correct!,0,97,97,61,1,t1.png,t4.png,3,0.0000131,19,Female ,2020-10-20_16h10.27.849,torte-q,2020.1.3,Win32,60,13197,0.650685,,,,,,,,,,,,,,,,,,,,,,,,,,,,,,,,,,,,,,,,,,,,
,,,,,,,,,,,,l,Incorrect,0,98,98,96,1,t1.png,t1.png,0,0.97829,19,Female ,2020-10-20_16h10.27.849,torte-q,2020.1.3,Win32,60,13197,0.53551,,,,,,,,,,,,,,,,,,,,,,,,,,,,,,,,,,,,,,,,,,,,
,,,,,,,,,,,,l,Incorrect,0,99,99,34,1,t5.png,t4.png,1,0.9,19,Female ,2020-10-20_16h10.27.849,torte-q,2020.1.3,Win32,60,13197,0.554535,,,,,,,,,,,,,,,,,,,,,,,,,,,,,,,,,,,,,,,,,,,,
,,,,,,,,,,,,l,Correct!,0,100,100,57,1,t2.png,t4.png,2,0.059078,19,Female ,2020-10-20_16h10.27.849,torte-q,2020.1.3,Win32,60,13197,0.385005,,,,,,,,,,,,,,,,,,,,,,,,,,,,,,,,,,,,,,,,,,,,
,,,,,,,,,,,,l,Correct!,0,101,101,9,1,t4.png,t5.png,1,0.9,19,Female ,2020-10-20_16h10.27.849,torte-q,2020.1.3,Win32,60,13197,0.656485,,,,,,,,,,,,,,,,,,,,,,,,,,,,,,,,,,,,,,,,,,,,
,,,,,,,,,,,,l,Correct!,0,102,102,89,1,t1.png,t4.png,3,0.0000131,19,Female ,2020-10-20_16h10.27.849,torte-q,2020.1.3,Win32,60,13197,0.683785,,,,,,,,,,,,,,,,,,,,,,,,,,,,,,,,,,,,,,,,,,,,
,,,,,,,,,,,,l,Incorrect,0,103,103,81,1,t1.png,t1.png,0,0.97829,19,Female ,2020-10-20_16h10.27.849,torte-q,2020.1.3,Win32,60,13197,0.488115,,,,,,,,,,,,,,,,,,,,,,,,,,,,,,,,,,,,,,,,,,,,
,,,,,,,,,,,,l,Correct!,0,104,104,55,1,t2.png,t4.png,2,0.059078,19,Female ,2020-10-20_16h10.27.849,torte-q,2020.1.3,Win32,60,13197,0.81807,,,,,,,,,,,,,,,,,,,,,,,,,,,,,,,,,,,,,,,,,,,,
,,,,,,,,,,,,l,Incorrect,0,105,105,16,1,t5.png,t4.png,1,0.9,19,Female ,2020-10-20_16h10.27.849,torte-q,2020.1.3,Win32,60,13197,0.56841,,,,,,,,,,,,,,,,,,,,,,,,,,,,,,,,,,,,,,,,,,,,
,,,,,,,,,,,,l,Correct!,0,106,106,72,1,t4.png,t2.png,2,0.059078,19,Female ,2020-10-20_16h10.27.849,torte-q,2020.1.3,Win32,60,13197,0.544225,,,,,,,,,,,,,,,,,,,,,,,,,,,,,,,,,,,,,,,,,,,,
,,,,,,,,,,,,a,Correct!,0,107,107,85,1,t3.png,t2.png,1,0.90855,19,Female ,2020-10-20_16h10.27.849,torte-q,2020.1.3,Win32,60,13197,0.45175,,,,,,,,,,,,,,,,,,,,,,,,,,,,,,,,,,,,,,,,,,,,
,,,,,,,,,,,,a,Correct!,0,108,108,48,1,t5.png,t5.png,0,0.97829,19,Female ,2020-10-20_16h10.27.849,torte-q,2020.1.3,Win32,60,13197,0.81913,,,,,,,,,,,,,,,,,,,,,,,,,,,,,,,,,,,,,,,,,,,,
,,,,,,,,,,,,l,Correct!,0,109,109,33,1,t5.png,t1.png,4,9.55E-11,19,Female ,2020-10-20_16h10.27.849,torte-q,2020.1.3,Win32,60,13197,0.784685,,,,,,,,,,,,,,,,,,,,,,,,,,,,,,,,,,,,,,,,,,,,
,,,,,,,,,,,,a,Incorrect,0,110,110,43,1,t4.png,t2.png,2,0.059078,19,Female ,2020-10-20_16h10.27.849,torte-q,2020.1.3,Win32,60,13197,0.60863,,,,,,,,,,,,,,,,,,,,,,,,,,,,,,,,,,,,,,,,,,,,
,,,,,,,,,,,,l,Incorrect,0,111,111,78,1,t1.png,t1.png,0,0.978,19,Female ,2020-10-20_16h10.27.849,torte-q,2020.1.3,Win32,60,13197,0.703045,,,,,,,,,,,,,,,,,,,,,,,,,,,,,,,,,,,,,,,,,,,,
,,,,,,,,,,,,a,Incorrect,0,112,112,111,1,t5.png,t1.png,4,9.55E-11,19,Female ,2020-10-20_16h10.27.849,torte-q,2020.1.3,Win32,60,13197,0.819645,,,,,,,,,,,,,,,,,,,,,,,,,,,,,,,,,,,,,,,,,,,,
,,,,,,,,,,,,l,Incorrect,0,113,113,25,1,t5.png,t5.png,0,0.97829,19,Female ,2020-10-20_16h10.27.849,torte-q,2020.1.3,Win32,60,13197,0.65325,,,,,,,,,,,,,,,,,,,,,,,,,,,,,,,,,,,,,,,,,,,,
,,,,,,,,,,,,a,Incorrect,0,114,114,11,1,t1.png,t4.png,3,0.0000131,19,Female ,2020-10-20_16h10.27.849,torte-q,2020.1.3,Win32,60,13197,0.720345,,,,,,,,,,,,,,,,,,,,,,,,,,,,,,,,,,,,,,,,,,,,
,,,,,,,,,,,,l,Incorrect,0,115,115,41,1,t3.png,t2.png,1,0.90855,19,Female ,2020-10-20_16h10.27.849,torte-q,2020.1.3,Win32,60,13197,0.55148,,,,,,,,,,,,,,,,,,,,,,,,,,,,,,,,,,,,,,,,,,,,
,,,,,,,,,,,,a,Incorrect,0,116,116,103,1,t3.png,t1.png,2,0.056466,19,Female ,2020-10-20_16h10.27.849,torte-q,2020.1.3,Win32,60,13197,0.49335,,,,,,,,,,,,,,,,,,,,,,,,,,,,,,,,,,,,,,,,,,,,
,,,,,,,,,,,,l,Incorrect,0,117,117,105,1,t3.png,t2.png,1,0.90855,19,Female ,2020-10-20_16h10.27.849,torte-q,2020.1.3,Win32,60,13197,0.819495,,,,,,,,,,,,,,,,,,,,,,,,,,,,,,,,,,,,,,,,,,,,
,,,,,,,,,,,,a,Incorrect,0,118,118,45,1,t3.png,t2.png,1,0.90855,19,Female ,2020-10-20_16h10.27.849,torte-q,2020.1.3,Win32,60,13197,0.369605,,,,,,,,,,,,,,,,,,,,,,,,,,,,,,,,,,,,,,,,,,,,
,,,,,,,,,,,,l,Correct!,0,119,119,38,1,t3.png,t1.png,2,0.056466,19,Female ,2020-10-20_16h10.27.849,torte-q,2020.1.3,Win32,60,13197,0.416365,,,,,,,,,,,,,,,,,,,,,,,,,,,,,,,,,,,,,,,,,,,,
,,,,,,,,,,,,l,Correct!,,,,,,t3.png,t5.png,2,0.056466,19,Female ,2020-10-20_16h10.27.849,torte-q,2020.1.3,Win32,60,13197,0.870155,space,1.893165,space,136.349605,0,0,0,44,1,,,,,,,,,,,,,,,,,,,,,,,,,,,,,,,,,,,
,,,,,,,,,,,,l,Incorrect,,,,,,t2.png,t1.png,1,0.90025,19,Female ,2020-10-20_16h10.27.849,torte-q,2020.1.3,Win32,60,13197,1.13128,,,,,0,1,1,62,1,,,,,,,,,,,,,,,,,,,,,,,,,,,,,,,,,,,
,,,,,,,,,,,,l,Correct!,,,,,,t2.png,t3.png,1,0.909,19,Female ,2020-10-20_16h10.27.849,torte-q,2020.1.3,Win32,60,13197,0.97708,,,,,0,2,2,74,1,,,,,,,,,,,,,,,,,,,,,,,,,,,,,,,,,,,
,,,,,,,,,,,,l,Correct!,,,,,,t1.png,t4.png,3,0.0000131,19,Female ,2020-10-20_16h10.27.849,torte-q,2020.1.3,Win32,60,13197,1.254375,,,,,0,3,3,81,1,,,,,,,,,,,,,,,,,,,,,,,,,,,,,,,,,,,
,,,,,,,,,,,,a,Incorrect,,,,,,t4.png,t1.png,3,0.0000131,19,Female ,2020-10-20_16h10.27.849,torte-q,2020.1.3,Win32,60,13197,0.631755,,,,,0,4,4,13,1,,,,,,,,,,,,,,,,,,,,,,,,,,,,,,,,,,,
,,,,,,,,,,,,a,Incorrect,,,,,,t4.png,t1.png,3,0.0000131,19,Female ,2020-10-20_16h10.27.849,torte-q,2020.1.3,Win32,60,13197,1.314805,,,,,0,5,5,48,1,,,,,,,,,,,,,,,,,,,,,,,,,,,,,,,,,,,
,,,,,,,,,,,,l,Correct!,,,,,,t4.png,t2.png,2,0.059078,19,Female ,2020-10-20_16h10.27.849,torte-q,2020.1.3,Win32,60,13197,1.347035,,,,,0,6,6,109,1,,,,,,,,,,,,,,,,,,,,,,,,,,,,,,,,,,,
,,,,,,,,,,,,l,Correct!,,,,,,t3.png,t5.png,2,0.056466,19,Female ,2020-10-20_16h10.27.849,torte-q,2020.1.3,Win32,60,13197,0.8562,,,,,0,7,7,14,1,,,,,,,,,,,,,,,,,,,,,,,,,,,,,,,,,,,
,,,,,,,,,,,,l,Incorrect,,,,,,t3.png,t4.png,1,0.909,19,Female ,2020-10-20_16h10.27.849,torte-q,2020.1.3,Win32,60,13197,1.234975,,,,,0,8,8,82,1,,,,,,,,,,,,,,,,,,,,,,,,,,,,,,,,,,,
,,,,,,,,,,,,l,Incorrect,,,,,,t2.png,t1.png,1,0.90025,19,Female ,2020-10-20_16h10.27.849,torte-q,2020.1.3,Win32,60,13197,0.655665,,,,,0,9,9,19,1,,,,,,,,,,,,,,,,,,,,,,,,,,,,,,,,,,,
,,,,,,,,,,,,a,Incorrect,,,,,,t3.png,t5.png,2,0.0565,19,Female ,2020-10-20_16h10.27.849,torte-q,2020.1.3,Win32,60,13197,0.915265,,,,,0,10,10,83,1,,,,,,,,,,,,,,,,,,,,,,,,,,,,,,,,,,,
,,,,,,,,,,,,l,Correct!,,,,,,t1.png,t4.png,3,0.0000131,19,Female ,2020-10-20_16h10.27.849,torte-q,2020.1.3,Win32,60,13197,1.4151,,,,,0,11,11,50,1,,,,,,,,,,,,,,,,,,,,,,,,,,,,,,,,,,,
,,,,,,,,,,,,l,Correct!,,,,,,t1.png,t2.png,1,0.9,19,Female ,2020-10-20_16h10.27.849,torte-q,2020.1.3,Win32,60,13197,0.9209,,,,,0,12,12,1,1,,,,,,,,,,,,,,,,,,,,,,,,,,,,,,,,,,,
,,,,,,,,,,,,l,Correct!,,,,,,t5.png,t2.png,3,0.0000131,19,Female ,2020-10-20_16h10.27.849,torte-q,2020.1.3,Win32,60,13197,0.54877,,,,,0,13,13,116,1,,,,,,,,,,,,,,,,,,,,,,,,,,,,,,,,,,,
,,,,,,,,,,,,l,Incorrect,,,,,,t5.png,t4.png,1,0.90025,19,Female ,2020-10-20_16h10.27.849,torte-q,2020.1.3,Win32,60,13197,1.324375,,,,,0,14,14,26,1,,,,,,,,,,,,,,,,,,,,,,,,,,,,,,,,,,,
,,,,,,,,,,,,l,Incorrect,,,,,,t1.png,t1.png,0,0.97829,19,Female ,2020-10-20_16h10.27.849,torte-q,2020.1.3,Win32,60,13197,0.533625,,,,,0,15,15,9,1,,,,,,,,,,,,,,,,,,,,,,,,,,,,,,,,,,,
,,,,,,,,,,,,l,Incorrect,,,,,,t1.png,t2.png,1,0.90025,19,Female ,2020-10-20_16h10.27.849,torte-q,2020.1.3,Win32,60,13197,0.91566,,,,,0,16,16,112,1,,,,,,,,,,,,,,,,,,,,,,,,,,,,,,,,,,,
,,,,,,,,,,,,a,Incorrect,,,,,,t4.png,t2.png,2,0.059078,19,Female ,2020-10-20_16h10.27.849,torte-q,2020.1.3,Win32,60,13197,0.48723,,,,,0,17,17,86,1,,,,,,,,,,,,,,,,,,,,,,,,,,,,,,,,,,,
,,,,,,,,,,,,a,Incorrect,,,,,,t2.png,t4.png,2,0.0591,19,Female ,2020-10-20_16h10.27.849,torte-q,2020.1.3,Win32,60,13197,0.674495,,,,,0,18,18,15,1,,,,,,,,,,,,,,,,,,,,,,,,,,,,,,,,,,,
,,,,,,,,,,,,l,Incorrect,,,,,,t5.png,t4.png,1,0.9,19,Female ,2020-10-20_16h10.27.849,torte-q,2020.1.3,Win32,60,13197,0.822855,,,,,0,19,19,76,1,,,,,,,,,,,,,,,,,,,,,,,,,,,,,,,,,,,
,,,,,,,,,,,,l,Correct!,,,,,,t2.png,t5.png,3,0.0000131,19,Female ,2020-10-20_16h10.27.849,torte-q,2020.1.3,Win32,60,13197,0.61565,,,,,0,20,20,8,1,,,,,,,,,,,,,,,,,,,,,,,,,,,,,,,,,,,
,,,,,,,,,,,,a,Correct!,,,,,,t4.png,t3.png,1,0.90855,19,Female ,2020-10-20_16h10.27.849,torte-q,2020.1.3,Win32,60,13197,0.5867,,,,,0,21,21,45,1,,,,,,,,,,,,,,,,,,,,,,,,,,,,,,,,,,,
,,,,,,,,,,,,l,Correct!,,,,,,t5.png,t2.png,3,0.0000131,19,Female ,2020-10-20_16h10.27.849,torte-q,2020.1.3,Win32,60,13197,0.437425,,,,,0,22,22,98,1,,,,,,,,,,,,,,,,,,,,,,,,,,,,,,,,,,,
,,,,,,,,,,,,l,Correct!,,,,,,t4.png,t1.png,3,0.0000131,19,Female ,2020-10-20_16h10.27.849,torte-q,2020.1.3,Win32,60,13197,0.598185,,,,,0,23,23,61,1,,,,,,,,,,,,,,,,,,,,,,,,,,,,,,,,,,,
,,,,,,,,,,,,l,Incorrect,,,,,,t4.png,t3.png,1,0.909,19,Female ,2020-10-20_16h10.27.849,torte-q,2020.1.3,Win32,60,13197,0.533195,,,,,0,24,24,46,1,,,,,,,,,,,,,,,,,,,,,,,,,,,,,,,,,,,
,,,,,,,,,,,,a,Correct!,,,,,,t2.png,t2.png,0,0.981,19,Female ,2020-10-20_16h10.27.849,torte-q,2020.1.3,Win32,60,13197,0.766965,,,,,0,25,25,101,1,,,,,,,,,,,,,,,,,,,,,,,,,,,,,,,,,,,
,,,,,,,,,,,,l,Correct!,,,,,,t4.png,t2.png,2,0.0591,19,Female ,2020-10-20_16h10.27.849,torte-q,2020.1.3,Win32,60,13197,0.500175,,,,,0,26,26,36,1,,,,,,,,,,,,,,,,,,,,,,,,,,,,,,,,,,,
,,,,,,,,,,,,l,Incorrect,,,,,,t2.png,t3.png,1,0.90855,19,Female ,2020-10-20_16h10.27.849,torte-q,2020.1.3,Win32,60,13197,0.93321,,,,,0,27,27,10,1,,,,,,,,,,,,,,,,,,,,,,,,,,,,,,,,,,,
,,,,,,,,,,,,l,Correct!,,,,,,t4.png,t2.png,2,0.059078,19,Female ,2020-10-20_16h10.27.849,torte-q,2020.1.3,Win32,60,13197,0.51617,,,,,0,28,28,110,1,,,,,,,,,,,,,,,,,,,,,,,,,,,,,,,,,,,
,,,,,,,,,,,,l,Correct!,,,,,,t1.png,t3.png,2,0.056466,19,Female ,2020-10-20_16h10.27.849,torte-q,2020.1.3,Win32,60,13197,1.121565,,,,,0,29,29,87,1,,,,,,,,,,,,,,,,,,,,,,,,,,,,,,,,,,,
,,,,,,,,,,,,l,Incorrect,,,,,,t2.png,t3.png,1,0.90855,19,Female ,2020-10-20_16h10.27.849,torte-q,2020.1.3,Win32,60,13197,0.714435,,,,,0,30,30,111,1,,,,,,,,,,,,,,,,,,,,,,,,,,,,,,,,,,,
,,,,,,,,,,,,l,Incorrect,,,,,,t4.png,t5.png,1,0.90025,19,Female ,2020-10-20_16h10.27.849,torte-q,2020.1.3,Win32,60,13197,0.666585,,,,,0,31,31,58,1,,,,,,,,,,,,,,,,,,,,,,,,,,,,,,,,,,,
,,,,,,,,,,,,l,Incorrect,,,,,,t4.png,t4.png,0,0.98115,19,Female ,2020-10-20_16h10.27.849,torte-q,2020.1.3,Win32,60,13197,0.790565,,,,,0,32,32,90,1,,,,,,,,,,,,,,,,,,,,,,,,,,,,,,,,,,,
,,,,,,,,,,,,l,Incorrect,,,,,,t4.png,t3.png,1,0.90855,19,Female ,2020-10-20_16h10.27.849,torte-q,2020.1.3,Win32,60,13197,0.781925,,,,,0,33,33,35,1,,,,,,,,,,,,,,,,,,,,,,,,,,,,,,,,,,,
,,,,,,,,,,,,l,Incorrect,,,,,,t1.png,t1.png,0,0.97829,19,Female ,2020-10-20_16h10.27.849,torte-q,2020.1.3,Win32,60,13197,0.632845,,,,,0,34,34,78,1,,,,,,,,,,,,,,,,,,,,,,,,,,,,,,,,,,,
,,,,,,,,,,,,l,Correct!,,,,,,t2.png,t4.png,2,0.059078,19,Female ,2020-10-20_16h10.27.849,torte-q,2020.1.3,Win32,60,13197,1.16906,,,,,0,35,35,37,1,,,,,,,,,,,,,,,,,,,,,,,,,,,,,,,,,,,
,,,,,,,,,,,,a,Incorrect,,,,,,t5.png,t2.png,3,0.0000131,19,Female ,2020-10-20_16h10.27.849,torte-q,2020.1.3,Win32,60,13197,0.49872,,,,,0,36,36,51,1,,,,,,,,,,,,,,,,,,,,,,,,,,,,,,,,,,,
,,,,,,,,,,,,a,Correct!,,,,,,t4.png,t4.png,0,0.98115,19,Female ,2020-10-20_16h10.27.849,torte-q,2020.1.3,Win32,60,13197,0.71594,,,,,0,37,37,79,1,,,,,,,,,,,,,,,,,,,,,,,,,,,,,,,,,,,
,,,,,,,,,,,,a,Correct!,,,,,,t5.png,t5.png,0,0.978,19,Female ,2020-10-20_16h10.27.849,torte-q,2020.1.3,Win32,60,13197,1.01489,,,,,0,38,38,117,1,,,,,,,,,,,,,,,,,,,,,,,,,,,,,,,,,,,
,,,,,,,,,,,,l,Correct!,,,,,,t1.png,t3.png,2,0.056466,19,Female ,2020-10-20_16h10.27.849,torte-q,2020.1.3,Win32,60,13197,1.03787,,,,,0,39,39,63,1,,,,,,,,,,,,,,,,,,,,,,,,,,,,,,,,,,,
,,,,,,,,,,,,a,Correct!,,,,,,t4.png,t5.png,1,0.9,19,Female ,2020-10-20_16h10.27.849,torte-q,2020.1.3,Win32,60,13197,0.83053,,,,,0,40,40,115,1,,,,,,,,,,,,,,,,,,,,,,,,,,,,,,,,,,,
,,,,,,,,,,,,l,Correct!,,,,,,t5.png,t3.png,2,0.056466,19,Female ,2020-10-20_16h10.27.849,torte-q,2020.1.3,Win32,60,13197,0.8312,,,,,0,41,41,114,1,,,,,,,,,,,,,,,,,,,,,,,,,,,,,,,,,,,
,,,,,,,,,,,,a,Incorrect,,,,,,t1.png,t3.png,2,0.056466,19,Female ,2020-10-20_16h10.27.849,torte-q,2020.1.3,Win32,60,13197,0.65669,,,,,0,42,42,60,1,,,,,,,,,,,,,,,,,,,,,,,,,,,,,,,,,,,
,,,,,,,,,,,,l,Correct!,,,,,,t4.png,t3.png,1,0.90855,19,Female ,2020-10-20_16h10.27.849,torte-q,2020.1.3,Win32,60,13197,0.698805,,,,,0,43,43,75,1,,,,,,,,,,,,,,,,,,,,,,,,,,,,,,,,,,,
,,,,,,,,,,,,l,Incorrect,,,,,,t2.png,t2.png,0,0.98115,19,Female ,2020-10-20_16h10.27.849,torte-q,2020.1.3,Win32,60,13197,0.649435,,,,,0,44,44,57,1,,,,,,,,,,,,,,,,,,,,,,,,,,,,,,,,,,,
,,,,,,,,,,,,l,Incorrect,,,,,,t4.png,t5.png,1,0.90025,19,Female ,2020-10-20_16h10.27.849,torte-q,2020.1.3,Win32,60,13197,0.89793,,,,,0,45,45,113,1,,,,,,,,,,,,,,,,,,,,,,,,,,,,,,,,,,,
,,,,,,,,,,,,a,Incorrect,,,,,,t4.png,t1.png,3,0.0000131,19,Female ,2020-10-20_16h10.27.849,torte-q,2020.1.3,Win32,60,13197,0.3837,,,,,0,46,46,93,1,,,,,,,,,,,,,,,,,,,,,,,,,,,,,,,,,,,
,,,,,,,,,,,,l,Correct!,,,,,,t1.png,t4.png,3,0.0000131,19,Female ,2020-10-20_16h10.27.849,torte-q,2020.1.3,Win32,60,13197,1.380325,,,,,0,47,47,92,1,,,,,,,,,,,,,,,,,,,,,,,,,,,,,,,,,,,
,,,,,,,,,,,,l,Incorrect,,,,,,t2.png,t3.png,1,0.90855,19,Female ,2020-10-20_16h10.27.849,torte-q,2020.1.3,Win32,60,13197,0.78813,,,,,0,48,48,68,1,,,,,,,,,,,,,,,,,,,,,,,,,,,,,,,,,,,
,,,,,,,,,,,,a,Correct!,,,,,,t1.png,t1.png,0,0.978,19,Female ,2020-10-20_16h10.27.849,torte-q,2020.1.3,Win32,60,13197,0.707705,,,,,0,49,49,54,1,,,,,,,,,,,,,,,,,,,,,,,,,,,,,,,,,,,
,,,,,,,,,,,,l,Correct!,,,,,,t2.png,t5.png,3,0.0000131,19,Female ,2020-10-20_16h10.27.849,torte-q,2020.1.3,Win32,60,13197,0.78913,,,,,0,50,50,66,1,,,,,,,,,,,,,,,,,,,,,,,,,,,,,,,,,,,
,,,,,,,,,,,,l,Correct!,,,,,,t5.png,t1.png,4,9.55E-11,19,Female ,2020-10-20_16h10.27.849,torte-q,2020.1.3,Win32,60,13197,0.85601,,,,,0,51,51,43,1,,,,,,,,,,,,,,,,,,,,,,,,,,,,,,,,,,,
,,,,,,,,,,,,l,Incorrect,,,,,,t4.png,t5.png,1,0.90025,19,Female ,2020-10-20_16h10.27.849,torte-q,2020.1.3,Win32,60,13197,0.78939,,,,,0,52,52,103,1,,,,,,,,,,,,,,,,,,,,,,,,,,,,,,,,,,,
,,,,,,,,,,,,l,Incorrect,,,,,,t3.png,t2.png,1,0.90855,19,Female ,2020-10-20_16h10.27.849,torte-q,2020.1.3,Win32,60,13197,0.598715,,,,,0,53,53,97,1,,,,,,,,,,,,,,,,,,,,,,,,,,,,,,,,,,,
,,,,,,,,,,,,l,Incorrect,,,,,,t2.png,t2.png,0,0.98115,19,Female ,2020-10-20_16h10.27.849,torte-q,2020.1.3,Win32,60,13197,0.709385,,,,,0,54,54,7,1,,,,,,,,,,,,,,,,,,,,,,,,,,,,,,,,,,,
,,,,,,,,,,,,l,Correct!,,,,,,t1.png,t5.png,4,9.55E-11,19,Female ,2020-10-20_16h10.27.849,torte-q,2020.1.3,Win32,60,13197,0.82282,,,,,0,55,55,12,1,,,,,,,,,,,,,,,,,,,,,,,,,,,,,,,,,,,
,,,,,,,,,,,,l,Correct!,,,,,,t5.png,t3.png,2,0.056466,19,Female ,2020-10-20_16h10.27.849,torte-q,2020.1.3,Win32,60,13197,0.598305,,,,,0,56,56,38,1,,,,,,,,,,,,,,,,,,,,,,,,,,,,,,,,,,,
,,,,,,,,,,,,a,Correct!,,,,,,t3.png,t4.png,1,0.909,19,Female ,2020-10-20_16h10.27.849,torte-q,2020.1.3,Win32,60,13197,0.81795,,,,,0,57,57,89,1,,,,,,,,,,,,,,,,,,,,,,,,,,,,,,,,,,,
,,,,,,,,,,,,a,Incorrect,,,,,,t5.png,t2.png,3,0.0000131,19,Female ,2020-10-20_16h10.27.849,torte-q,2020.1.3,Win32,60,13197,0.44888,,,,,0,58,58,119,1,,,,,,,,,,,,,,,,,,,,,,,,,,,,,,,,,,,
,,,,,,,,,,,,l,Incorrect,,,,,,t3.png,t2.png,1,0.909,19,Female ,2020-10-20_16h10.27.849,torte-q,2020.1.3,Win32,60,13197,0.47357,,,,,0,59,59,23,1,,,,,,,,,,,,,,,,,,,,,,,,,,,,,,,,,,,
,,,,,,,,,,,,l,Incorrect,,,,,,t3.png,t2.png,1,0.90855,19,Female ,2020-10-20_16h10.27.849,torte-q,2020.1.3,Win32,60,13197,0.457925,,,,,0,60,60,53,1,,,,,,,,,,,,,,,,,,,,,,,,,,,,,,,,,,,
,,,,,,,,,,,,l,Incorrect,,,,,,t3.png,t2.png,1,0.90855,19,Female ,2020-10-20_16h10.27.849,torte-q,2020.1.3,Win32,60,13197,0.483355,,,,,0,61,61,18,1,,,,,,,,,,,,,,,,,,,,,,,,,,,,,,,,,,,
,,,,,,,,,,,,l,Incorrect,,,,,,t3.png,t2.png,1,0.909,19,Female ,2020-10-20_16h10.27.849,torte-q,2020.1.3,Win32,60,13197,0.782455,,,,,0,62,62,3,1,,,,,,,,,,,,,,,,,,,,,,,,,,,,,,,,,,,
,,,,,,,,,,,,l,Incorrect,,,,,,t2.png,t3.png,1,0.90855,19,Female ,2020-10-20_16h10.27.849,torte-q,2020.1.3,Win32,60,13197,0.60738,,,,,0,63,63,65,1,,,,,,,,,,,,,,,,,,,,,,,,,,,,,,,,,,,
,,,,,,,,,,,,a,Correct!,,,,,,t3.png,t4.png,1,0.90855,19,Female ,2020-10-20_16h10.27.849,torte-q,2020.1.3,Win32,60,13197,0.533775,,,,,0,64,64,96,1,,,,,,,,,,,,,,,,,,,,,,,,,,,,,,,,,,,
,,,,,,,,,,,,l,Incorrect,,,,,,t5.png,t4.png,1,0.90025,19,Female ,2020-10-20_16h10.27.849,torte-q,2020.1.3,Win32,60,13197,0.48179,,,,,0,65,65,34,1,,,,,,,,,,,,,,,,,,,,,,,,,,,,,,,,,,,
,,,,,,,,,,,,l,Correct!,,,,,,t5.png,t3.png,2,0.056466,19,Female ,2020-10-20_16h10.27.849,torte-q,2020.1.3,Win32,60,13197,0.599625,,,,,0,66,66,108,1,,,,,,,,,,,,,,,,,,,,,,,,,,,,,,,,,,,
,,,,,,,,,,,,l,Incorrect,,,,,,t3.png,t1.png,2,0.056466,19,Female ,2020-10-20_16h10.27.849,torte-q,2020.1.3,Win32,60,13197,0.767035,,,,,0,67,67,32,1,,,,,,,,,,,,,,,,,,,,,,,,,,,,,,,,,,,
,,,,,,,,,,,,l,Incorrect,,,,,,t5.png,t4.png,1,0.90025,19,Female ,2020-10-20_16h10.27.849,torte-q,2020.1.3,Win32,60,13197,0.737305,,,,,0,68,68,27,1,,,,,,,,,,,,,,,,,,,,,,,,,,,,,,,,,,,
,,,,,,,,,,,,a,Correct!,,,,,,t2.png,t2.png,0,0.98115,19,Female ,2020-10-20_16h10.27.849,torte-q,2020.1.3,Win32,60,13197,0.599645,,,,,0,69,69,2,1,,,,,,,,,,,,,,,,,,,,,,,,,,,,,,,,,,,
,,,,,,,,,,,,l,Incorrect,,,,,,t4.png,t5.png,1,0.90025,19,Female ,2020-10-20_16h10.27.849,torte-q,2020.1.3,Win32,60,13197,0.56447,,,,,0,70,70,47,1,,,,,,,,,,,,,,,,,,,,,,,,,,,,,,,,,,,
,,,,,,,,,,,,l,Correct!,,,,,,t3.png,t5.png,2,0.056466,19,Female ,2020-10-20_16h10.27.849,torte-q,2020.1.3,Win32,60,13197,0.448245,,,,,0,71,71,6,1,,,,,,,,,,,,,,,,,,,,,,,,,,,,,,,,,,,
,,,,,,,,,,,,l,Correct!,,,,,,t1.png,t5.png,4,9.55E-11,19,Female ,2020-10-20_16h10.27.849,torte-q,2020.1.3,Win32,60,13197,0.833595,,,,,0,72,72,41,1,,,,,,,,,,,,,,,,,,,,,,,,,,,,,,,,,,,
,,,,,,,,,,,,l,Correct!,,,,,,t5.png,t2.png,3,0.0000131,19,Female ,2020-10-20_16h10.27.849,torte-q,2020.1.3,Win32,60,13197,0.500095,,,,,0,73,73,91,1,,,,,,,,,,,,,,,,,,,,,,,,,,,,,,,,,,,
,,,,,,,,,,,,l,Incorrect,,,,,,t5.png,t5.png,0,0.97829,19,Female ,2020-10-20_16h10.27.849,torte-q,2020.1.3,Win32,60,13197,0.641035,,,,,0,74,74,70,1,,,,,,,,,,,,,,,,,,,,,,,,,,,,,,,,,,,
,,,,,,,,,,,,l,Incorrect,,,,,,t4.png,t3.png,1,0.909,19,Female ,2020-10-20_16h10.27.849,torte-q,2020.1.3,Win32,60,13197,0.74805,,,,,0,75,75,20,1,,,,,,,,,,,,,,,,,,,,,,,,,,,,,,,,,,,
,,,,,,,,,,,,l,Correct!,,,,,,t1.png,t5.png,4,9.55E-11,19,Female ,2020-10-20_16h10.27.849,torte-q,2020.1.3,Win32,60,13197,0.8451,,,,,0,76,76,55,1,,,,,,,,,,,,,,,,,,,,,,,,,,,,,,,,,,,
,,,,,,,,,,,,l,Correct!,,,,,,t5.png,t1.png,4,9.55E-11,19,Female ,2020-10-20_16h10.27.849,torte-q,2020.1.3,Win32,60,13197,0.814815,,,,,0,77,77,22,1,,,,,,,,,,,,,,,,,,,,,,,,,,,,,,,,,,,
,,,,,,,,,,,,a,Incorrect,,,,,,t1.png,t4.png,3,0.0000131,19,Female ,2020-10-20_16h10.27.849,torte-q,2020.1.3,Win32,60,13197,1.035915,,,,,0,78,78,107,1,,,,,,,,,,,,,,,,,,,,,,,,,,,,,,,,,,,
,,,,,,,,,,,,l,Incorrect,,,,,,t3.png,t4.png,1,0.909,19,Female ,2020-10-20_16h10.27.849,torte-q,2020.1.3,Win32,60,13197,0.334445,,,,,0,79,79,106,1,,,,,,,,,,,,,,,,,,,,,,,,,,,,,,,,,,,
,,,,,,,,,,,,l,Correct!,,,,,,t5.png,t1.png,4,9.55E-11,19,Female ,2020-10-20_16h10.27.849,torte-q,2020.1.3,Win32,60,13197,0.548375,,,,,0,80,80,102,1,,,,,,,,,,,,,,,,,,,,,,,,,,,,,,,,,,,
,,,,,,,,,,,,l,Incorrect,,,,,,t5.png,t5.png,0,0.97829,19,Female ,2020-10-20_16h10.27.849,torte-q,2020.1.3,Win32,60,13197,0.503715,,,,,0,81,81,94,1,,,,,,,,,,,,,,,,,,,,,,,,,,,,,,,,,,,
,,,,,,,,,,,,a,Correct!,,,,,,t3.png,t1.png,2,0.056466,19,Female ,2020-10-20_16h10.27.849,torte-q,2020.1.3,Win32,60,13197,0.454655,,,,,0,82,82,29,1,,,,,,,,,,,,,,,,,,,,,,,,,,,,,,,,,,,
,,,,,,,,,,,,l,Incorrect,,,,,,t1.png,t2.png,1,0.90025,19,Female ,2020-10-20_16h10.27.849,torte-q,2020.1.3,Win32,60,13197,0.564835,,,,,0,83,83,105,1,,,,,,,,,,,,,,,,,,,,,,,,,,,,,,,,,,,
,,,,,,,,,,,,l,Incorrect,,,,,,t2.png,t1.png,1,0.90025,19,Female ,2020-10-20_16h10.27.849,torte-q,2020.1.3,Win32,60,13197,0.531055,,,,,0,84,84,4,1,,,,,,,,,,,,,,,,,,,,,,,,,,,,,,,,,,,
,,,,,,,,,,,,a,Incorrect,,,,,,t1.png,t5.png,4,9.55E-11,19,Female ,2020-10-20_16h10.27.849,torte-q,2020.1.3,Win32,60,13197,1.3485,,,,,0,85,85,16,1,,,,,,,,,,,,,,,,,,,,,,,,,,,,,,,,,,,
,,,,,,,,,,,,l,Incorrect,,,,,,t1.png,t1.png,0,0.978,19,Female ,2020-10-20_16h10.27.849,torte-q,2020.1.3,Win32,60,13197,0.49941,,,,,0,86,86,28,1,,,,,,,,,,,,,,,,,,,,,,,,,,,,,,,,,,,
,,,,,,,,,,,,l,Correct!,,,,,,t1.png,t4.png,3,0.0000131,19,Female ,2020-10-20_16h10.27.849,torte-q,2020.1.3,Win32,60,13197,0.640055,,,,,0,87,87,17,1,,,,,,,,,,,,,,,,,,,,,,,,,,,,,,,,,,,
,,,,,,,,,,,,l,Correct!,,,,,,t5.png,t1.png,4,9.55E-11,19,Female ,2020-10-20_16h10.27.849,torte-q,2020.1.3,Win32,60,13197,0.514075,,,,,0,88,88,100,1,,,,,,,,,,,,,,,,,,,,,,,,,,,,,,,,,,,
,,,,,,,,,,,,l,Correct!,,,,,,t2.png,t5.png,3,0.0000131,19,Female ,2020-10-20_16h10.27.849,torte-q,2020.1.3,Win32,60,13197,0.69896,,,,,0,89,89,95,1,,,,,,,,,,,,,,,,,,,,,,,,,,,,,,,,,,,
,,,,,,,,,,,,l,Incorrect,,,,,,t4.png,t4.png,0,0.98115,19,Female ,2020-10-20_16h10.27.849,torte-q,2020.1.3,Win32,60,13197,0.90409,,,,,0,90,90,52,1,,,,,,,,,,,,,,,,,,,,,,,,,,,,,,,,,,,
,,,,,,,,,,,,l,Incorrect,,,,,,t4.png,t4.png,0,0.98115,19,Female ,2020-10-20_16h10.27.849,torte-q,2020.1.3,Win32,60,13197,0.648565,,,,,0,91,91,21,1,,,,,,,,,,,,,,,,,,,,,,,,,,,,,,,,,,,
,,,,,,,,,,,,l,Incorrect,,,,,,t2.png,t1.png,1,0.90025,19,Female ,2020-10-20_16h10.27.849,torte-q,2020.1.3,Win32,60,13197,0.652365,,,,,0,92,92,5,1,,,,,,,,,,,,,,,,,,,,,,,,,,,,,,,,,,,
,,,,,,,,,,,,l,Correct!,,,,,,t2.png,t4.png,2,0.059078,19,Female ,2020-10-20_16h10.27.849,torte-q,2020.1.3,Win32,60,13197,0.6383,,,,,0,93,93,77,1,,,,,,,,,,,,,,,,,,,,,,,,,,,,,,,,,,,
,,,,,,,,,,,,l,Correct!,,,,,,t3.png,t1.png,2,0.0565,19,Female ,2020-10-20_16h10.27.849,torte-q,2020.1.3,Win32,60,13197,0.69868,,,,,0,94,94,31,1,,,,,,,,,,,,,,,,,,,,,,,,,,,,,,,,,,,
,,,,,,,,,,,,a,Incorrect,,,,,,t3.png,t5.png,2,0.0565,19,Female ,2020-10-20_16h10.27.849,torte-q,2020.1.3,Win32,60,13197,1.08746,,,,,0,95,95,30,1,,,,,,,,,,,,,,,,,,,,,,,,,,,,,,,,,,,
,,,,,,,,,,,,l,Incorrect,,,,,,t5.png,t5.png,0,0.97829,19,Female ,2020-10-20_16h10.27.849,torte-q,2020.1.3,Win32,60,13197,0.324035,,,,,0,96,96,73,1,,,,,,,,,,,,,,,,,,,,,,,,,,,,,,,,,,,
,,,,,,,,,,,,l,Correct!,,,,,,t4.png,t2.png,2,0.059078,19,Female ,2020-10-20_16h10.27.849,torte-q,2020.1.3,Win32,60,13197,0.5212,,,,,0,97,97,88,1,,,,,,,,,,,,,,,,,,,,,,,,,,,,,,,,,,,
,,,,,,,,,,,,l,Incorrect,,,,,,t4.png,t4.png,0,0.98115,19,Female ,2020-10-20_16h10.27.849,torte-q,2020.1.3,Win32,60,13197,0.485435,,,,,0,98,98,80,1,,,,,,,,,,,,,,,,,,,,,,,,,,,,,,,,,,,
,,,,,,,,,,,,l,Correct!,,,,,,t5.png,t1.png,4,9.55E-11,19,Female ,2020-10-20_16h10.27.849,torte-q,2020.1.3,Win32,60,13197,0.51749,,,,,0,99,99,71,1,,,,,,,,,,,,,,,,,,,,,,,,,,,,,,,,,,,
,,,,,,,,,,,,a,Incorrect,,,,,,t2.png,t4.png,2,0.059078,19,Female ,2020-10-20_16h10.27.849,torte-q,2020.1.3,Win32,60,13197,0.59094,,,,,0,100,100,11,1,,,,,,,,,,,,,,,,,,,,,,,,,,,,,,,,,,,
,,,,,,,,,,,,l,Incorrect,,,,,,t1.png,t2.png,1,0.90025,19,Female ,2020-10-20_16h10.27.849,torte-q,2020.1.3,Win32,60,13197,0.351705,,,,,0,101,101,33,1,,,,,,,,,,,,,,,,,,,,,,,,,,,,,,,,,,,
,,,,,,,,,,,,l,Incorrect,,,,,,t1.png,t2.png,1,0.90025,19,Female ,2020-10-20_16h10.27.849,torte-q,2020.1.3,Win32,60,13197,0.567615,,,,,0,102,102,72,1,,,,,,,,,,,,,,,,,,,,,,,,,,,,,,,,,,,
,,,,,,,,,,,,l,Correct!,,,,,,t2.png,t5.png,3,0.0000131,19,Female ,2020-10-20_16h10.27.849,torte-q,2020.1.3,Win32,60,13197,0.82675,,,,,0,103,103,40,1,,,,,,,,,,,,,,,,,,,,,,,,,,,,,,,,,,,
,,,,,,,,,,,,a,Incorrect,,,,,,t5.png,t3.png,2,0.056466,19,Female ,2020-10-20_16h10.27.849,torte-q,2020.1.3,Win32,60,13197,0.752755,,,,,0,104,104,56,1,,,,,,,,,,,,,,,,,,,,,,,,,,,,,,,,,,,
,,,,,,,,,,,,l,Incorrect,,,,,,t2.png,t2.png,0,0.98115,19,Female ,2020-10-20_16h10.27.849,torte-q,2020.1.3,Win32,60,13197,0.48425,,,,,0,105,105,59,1,,,,,,,,,,,,,,,,,,,,,,,,,,,,,,,,,,,
,,,,,,,,,,,,l,Correct!,,,,,,t3.png,t1.png,2,0.056466,19,Female ,2020-10-20_16h10.27.849,torte-q,2020.1.3,Win32,60,13197,0.569695,,,,,0,106,106,64,1,,,,,,,,,,,,,,,,,,,,,,,,,,,,,,,,,,,
,,,,,,,,,,,,l,Incorrect,,,,,,t2.png,t1.png,1,0.9,19,Female ,2020-10-20_16h10.27.849,torte-q,2020.1.3,Win32,60,13197,0.585875,,,,,0,107,107,118,1,,,,,,,,,,,,,,,,,,,,,,,,,,,,,,,,,,,
,,,,,,,,,,,,l,Correct!,,,,,,t3.png,t1.png,2,0.056466,19,Female ,2020-10-20_16h10.27.849,torte-q,2020.1.3,Win32,60,13197,0.42998,,,,,0,108,108,0,1,,,,,,,,,,,,,,,,,,,,,,,,,,,,,,,,,,,
,,,,,,,,,,,,l,Incorrect,,,,,,t5.png,t4.png,1,0.9,19,Female ,2020-10-20_16h10.27.849,torte-q,2020.1.3,Win32,60,13197,0.675025,,,,,0,109,109,49,1,,,,,,,,,,,,,,,,,,,,,,,,,,,,,,,,,,,
,,,,,,,,,,,,a,Incorrect,,,,,,t1.png,t5.png,4,9.55E-11,19,Female ,2020-10-20_16h10.27.849,torte-q,2020.1.3,Win32,60,13197,1.252245,,,,,0,110,110,85,1,,,,,,,,,,,,,,,,,,,,,,,,,,,,,,,,,,,
,,,,,,,,,,,,l,Incorrect,,,,,,t3.png,t4.png,1,0.90855,19,Female ,2020-10-20_16h10.27.849,torte-q,2020.1.3,Win32,60,13197,0.49357,,,,,0,111,111,84,1,,,,,,,,,,,,,,,,,,,,,,,,,,,,,,,,,,,
,,,,,,,,,,,,l,Correct!,,,,,,t5.png,t3.png,2,0.0565,19,Female ,2020-10-20_16h10.27.849,torte-q,2020.1.3,Win32,60,13197,0.504125,,,,,0,112,112,39,1,,,,,,,,,,,,,,,,,,,,,,,,,,,,,,,,,,,
,,,,,,,,,,,,l,Incorrect,,,,,,t1.png,t1.png,0,0.97829,19,Female ,2020-10-20_16h10.27.849,torte-q,2020.1.3,Win32,60,13197,0.54185,,,,,0,113,113,67,1,,,,,,,,,,,,,,,,,,,,,,,,,,,,,,,,,,,
,,,,,,,,,,,,l,Correct!,,,,,,t1.png,t3.png,2,0.056466,19,Female ,2020-10-20_16h10.27.849,torte-q,2020.1.3,Win32,60,13197,0.331595,,,,,0,114,114,99,1,,,,,,,,,,,,,,,,,,,,,,,,,,,,,,,,,,,
,,,,,,,,,,,,a,Incorrect,,,,,,t4.png,t1.png,3,0.0000131,19,Female ,2020-10-20_16h10.27.849,torte-q,2020.1.3,Win32,60,13197,0.556985,,,,,0,115,115,42,1,,,,,,,,,,,,,,,,,,,,,,,,,,,,,,,,,,,
,,,,,,,,,,,,l,Correct!,,,,,,t2.png,t5.png,3,0.0000131,19,Female ,2020-10-20_16h10.27.849,torte-q,2020.1.3,Win32,60,13197,0.269765,,,,,0,116,116,104,1,,,,,,,,,,,,,,,,,,,,,,,,,,,,,,,,,,,
,,,,,,,,,,,,l,Correct!,,,,,,t2.png,t4.png,2,0.059078,19,Female ,2020-10-20_16h10.27.849,torte-q,2020.1.3,Win32,60,13197,0.49016,,,,,0,117,117,24,1,,,,,,,,,,,,,,,,,,,,,,,,,,,,,,,,,,,
,,,,,,,,,,,,l,Incorrect,,,,,,t5.png,t5.png,0,0.97829,19,Female ,2020-10-20_16h10.27.849,torte-q,2020.1.3,Win32,60,13197,0.488455,,,,,0,118,118,25,1,,,,,,,,,,,,,,,,,,,,,,,,,,,,,,,,,,,
,,,,,,,,,,,,l,Correct!,,,,,,t1.png,t3.png,2,0.056466,19,Female ,2020-10-20_16h10.27.849,torte-q,2020.1.3,Win32,60,13197,0.468725,,,,,0,119,119,69,1,,,,,,,,,,,,,,,,,,,,,,,,,,,,,,,,,,,
,,,,,,,,,,,,l,Incorrect,,,,,,t1.png,t2.png,1,0.90025,19,Female ,2020-10-20_16h10.27.849,torte-q,2020.1.3,Win32,60,13197,1.53693,space,2.52424,,,,,,,,space,10.663205,space,44.813935,0,0,0,72,1,,,,,,,,,,,,,,,,,,,,,,,,,,
,,,,,,,,,,,,l,Correct!,,,,,,t2.png,t5.png,3,0.0000131,19,Female ,2020-10-20_16h10.27.849,torte-q,2020.1.3,Win32,60,13197,1.09589,,,,,,,,,,,,,,0,1,1,8,1,,,,,,,,,,,,,,,,,,,,,,,,,,
,,,,,,,,,,,,a,Correct!,,,,,,t5.png,t5.png,0,0.97829,19,Female ,2020-10-20_16h10.27.849,torte-q,2020.1.3,Win32,60,13197,1.065185,,,,,,,,,,,,,,0,2,2,94,1,,,,,,,,,,,,,,,,,,,,,,,,,,
,,,,,,,,,,,,a,Correct!,,,,,,t1.png,t2.png,1,0.90025,19,Female ,2020-10-20_16h10.27.849,torte-q,2020.1.3,Win32,60,13197,0.84816,,,,,,,,,,,,,,0,3,3,105,1,,,,,,,,,,,,,,,,,,,,,,,,,,
,,,,,,,,,,,,l,Correct!,,,,,,t3.png,t1.png,2,0.056466,19,Female ,2020-10-20_16h10.27.849,torte-q,2020.1.3,Win32,60,13197,0.55711,,,,,,,,,,,,,,0,4,4,0,1,,,,,,,,,,,,,,,,,,,,,,,,,,
,,,,,,,,,,,,l,Correct!,,,,,,t4.png,t2.png,2,0.059078,19,Female ,2020-10-20_16h10.27.849,torte-q,2020.1.3,Win32,60,13197,0.71478,,,,,,,,,,,,,,0,5,5,110,1,,,,,,,,,,,,,,,,,,,,,,,,,,
,,,,,,,,,,,,l,Correct!,,,,,,t2.png,t5.png,3,0.0000131,19,Female ,2020-10-20_16h10.27.849,torte-q,2020.1.3,Win32,60,13197,0.548445,,,,,,,,,,,,,,0,6,6,40,1,,,,,,,,,,,,,,,,,,,,,,,,,,
,,,,,,,,,,,,l,Incorrect,,,,,,t5.png,t4.png,1,0.90025,19,Female ,2020-10-20_16h10.27.849,torte-q,2020.1.3,Win32,60,13197,1.24854,,,,,,,,,,,,,,0,7,7,26,1,,,,,,,,,,,,,,,,,,,,,,,,,,
,,,,,,,,,,,,l,Correct!,,,,,,t4.png,t1.png,3,0.0000131,19,Female ,2020-10-20_16h10.27.849,torte-q,2020.1.3,Win32,60,13197,0.547855,,,,,,,,,,,,,,0,8,8,93,1,,,,,,,,,,,,,,,,,,,,,,,,,,
,,,,,,,,,,,,a,Correct!,,,,,,t5.png,t4.png,1,0.9,19,Female ,2020-10-20_16h10.27.849,torte-q,2020.1.3,Win32,60,13197,0.566605,,,,,,,,,,,,,,0,9,9,76,1,,,,,,,,,,,,,,,,,,,,,,,,,,
,,,,,,,,,,,,l,Incorrect,,,,,,t1.png,t1.png,0,0.978,19,Female ,2020-10-20_16h10.27.849,torte-q,2020.1.3,Win32,60,13197,0.58093,,,,,,,,,,,,,,0,10,10,54,1,,,,,,,,,,,,,,,,,,,,,,,,,,
,,,,,,,,,,,,l,Incorrect,,,,,,t1.png,t1.png,0,0.97829,19,Female ,2020-10-20_16h10.27.849,torte-q,2020.1.3,Win32,60,13197,0.34675,,,,,,,,,,,,,,0,11,11,67,1,,,,,,,,,,,,,,,,,,,,,,,,,,
,,,,,,,,,,,,l,Incorrect,,,,,,t2.png,t2.png,0,0.98115,19,Female ,2020-10-20_16h10.27.849,torte-q,2020.1.3,Win32,60,13197,0.42401,,,,,,,,,,,,,,0,12,12,57,1,,,,,,,,,,,,,,,,,,,,,,,,,,
,,,,,,,,,,,,l,Correct!,,,,,,t2.png,t4.png,2,0.059078,19,Female ,2020-10-20_16h10.27.849,torte-q,2020.1.3,Win32,60,13197,0.54912,,,,,,,,,,,,,,0,13,13,24,1,,,,,,,,,,,,,,,,,,,,,,,,,,
,,,,,,,,,,,,l,Correct!,,,,,,t2.png,t5.png,3,0.0000131,19,Female ,2020-10-20_16h10.27.849,torte-q,2020.1.3,Win32,60,13197,0.756595,,,,,,,,,,,,,,0,14,14,104,1,,,,,,,,,,,,,,,,,,,,,,,,,,
,,,,,,,,,,,,l,Incorrect,,,,,,t3.png,t1.png,2,0.056466,19,Female ,2020-10-20_16h10.27.849,torte-q,2020.1.3,Win32,60,13197,0.39112,,,,,,,,,,,,,,0,15,15,64,1,,,,,,,,,,,,,,,,,,,,,,,,,,
,,,,,,,,,,,,l,Incorrect,,,,,,t4.png,t3.png,1,0.90855,19,Female ,2020-10-20_16h10.27.849,torte-q,2020.1.3,Win32,60,13197,0.39733,,,,,,,,,,,,,,0,16,16,35,1,,,,,,,,,,,,,,,,,,,,,,,,,,
,,,,,,,,,,,,l,Correct!,,,,,,t1.png,t5.png,4,9.55E-11,19,Female ,2020-10-20_16h10.27.849,torte-q,2020.1.3,Win32,60,13197,0.49927,,,,,,,,,,,,,,0,17,17,16,1,,,,,,,,,,,,,,,,,,,,,,,,,,
,,,,,,,,,,,,l,Incorrect,,,,,,t4.png,t3.png,1,0.90855,19,Female ,2020-10-20_16h10.27.849,torte-q,2020.1.3,Win32,60,13197,0.555975,,,,,,,,,,,,,,0,18,18,75,1,,,,,,,,,,,,,,,,,,,,,,,,,,
,,,,,,,,,,,,a,Incorrect,,,,,,t2.png,t4.png,2,0.0591,19,Female ,2020-10-20_16h10.27.849,torte-q,2020.1.3,Win32,60,13197,0.55163,,,,,,,,,,,,,,0,19,19,15,1,,,,,,,,,,,,,,,,,,,,,,,,,,
,,,,,,,,,,,,l,Incorrect,,,,,,t2.png,t3.png,1,0.90855,19,Female ,2020-10-20_16h10.27.849,torte-q,2020.1.3,Win32,60,13197,0.553595,,,,,,,,,,,,,,0,20,20,68,1,,,,,,,,,,,,,,,,,,,,,,,,,,
,,,,,,,,,,,,l,Correct!,,,,,,t1.png,t4.png,3,0.0000131,19,Female ,2020-10-20_16h10.27.849,torte-q,2020.1.3,Win32,60,13197,0.88442,,,,,,,,,,,,,,0,21,21,17,1,,,,,,,,,,,,,,,,,,,,,,,,,,
,,,,,,,,,,,,l,Correct!,,,,,,t5.png,t1.png,4,9.55E-11,19,Female ,2020-10-20_16h10.27.849,torte-q,2020.1.3,Win32,60,13197,0.50255,,,,,,,,,,,,,,0,22,22,102,1,,,,,,,,,,,,,,,,,,,,,,,,,,
,,,,,,,,,,,,l,Correct!,,,,,,t1.png,t4.png,3,0.0000131,19,Female ,2020-10-20_16h10.27.849,torte-q,2020.1.3,Win32,60,13197,0.81432,,,,,,,,,,,,,,0,23,23,81,1,,,,,,,,,,,,,,,,,,,,,,,,,,
,,,,,,,,,,,,l,Correct!,,,,,,t4.png,t1.png,3,0.0000131,19,Female ,2020-10-20_16h10.27.849,torte-q,2020.1.3,Win32,60,13197,0.91702,,,,,,,,,,,,,,0,24,24,61,1,,,,,,,,,,,,,,,,,,,,,,,,,,
,,,,,,,,,,,,l,Correct!,,,,,,t5.png,t2.png,3,0.0000131,19,Female ,2020-10-20_16h10.27.849,torte-q,2020.1.3,Win32,60,13197,1.440675,,,,,,,,,,,,,,0,25,25,98,1,,,,,,,,,,,,,,,,,,,,,,,,,,
,,,,,,,,,,,,a,Correct!,,,,,,t3.png,t2.png,1,0.909,19,Female ,2020-10-20_16h10.27.849,torte-q,2020.1.3,Win32,60,13197,0.43319,,,,,,,,,,,,,,0,26,26,23,1,,,,,,,,,,,,,,,,,,,,,,,,,,
,,,,,,,,,,,,a,Incorrect,,,,,,t4.png,t1.png,3,0.0000131,19,Female ,2020-10-20_16h10.27.849,torte-q,2020.1.3,Win32,60,13197,0.53163,,,,,,,,,,,,,,0,27,27,13,1,,,,,,,,,,,,,,,,,,,,,,,,,,
,,,,,,,,,,,,l,Correct!,,,,,,t2.png,t5.png,3,0.0000131,19,Female ,2020-10-20_16h10.27.849,torte-q,2020.1.3,Win32,60,13197,0.955575,,,,,,,,,,,,,,0,28,28,95,1,,,,,,,,,,,,,,,,,,,,,,,,,,
,,,,,,,,,,,,l,Correct!,,,,,,t1.png,t4.png,3,0.0000131,19,Female ,2020-10-20_16h10.27.849,torte-q,2020.1.3,Win32,60,13197,0.782715,,,,,,,,,,,,,,0,29,29,107,1,,,,,,,,,,,,,,,,,,,,,,,,,,
,,,,,,,,,,,,l,Incorrect,,,,,,t4.png,t4.png,0,0.98115,19,Female ,2020-10-20_16h10.27.849,torte-q,2020.1.3,Win32,60,13197,0.682595,,,,,,,,,,,,,,0,30,30,52,1,,,,,,,,,,,,,,,,,,,,,,,,,,
,,,,,,,,,,,,a,Incorrect,,,,,,t1.png,t3.png,2,0.056466,19,Female ,2020-10-20_16h10.27.849,torte-q,2020.1.3,Win32,60,13197,0.499805,,,,,,,,,,,,,,0,31,31,60,1,,,,,,,,,,,,,,,,,,,,,,,,,,
,,,,,,,,,,,,l,Incorrect,,,,,,t1.png,t1.png,0,0.978,19,Female ,2020-10-20_16h10.27.849,torte-q,2020.1.3,Win32,60,13197,0.41372,,,,,,,,,,,,,,0,32,32,28,1,,,,,,,,,,,,,,,,,,,,,,,,,,
,,,,,,,,,,,,l,Correct!,,,,,,t2.png,t4.png,2,0.059078,19,Female ,2020-10-20_16h10.27.849,torte-q,2020.1.3,Win32,60,13197,0.45403,,,,,,,,,,,,,,0,33,33,37,1,,,,,,,,,,,,,,,,,,,,,,,,,,
,,,,,,,,,,,,l,Correct!,,,,,,t5.png,t3.png,2,0.056466,19,Female ,2020-10-20_16h10.27.849,torte-q,2020.1.3,Win32,60,13197,0.641455,,,,,,,,,,,,,,0,34,34,38,1,,,,,,,,,,,,,,,,,,,,,,,,,,
,,,,,,,,,,,,l,Correct!,,,,,,t4.png,t2.png,2,0.059078,19,Female ,2020-10-20_16h10.27.849,torte-q,2020.1.3,Win32,60,13197,0.89236,,,,,,,,,,,,,,0,35,35,109,1,,,,,,,,,,,,,,,,,,,,,,,,,,
,,,,,,,,,,,,a,Incorrect,,,,,,t4.png,t2.png,2,0.059078,19,Female ,2020-10-20_16h10.27.849,torte-q,2020.1.3,Win32,60,13197,0.815615,,,,,,,,,,,,,,0,36,36,88,1,,,,,,,,,,,,,,,,,,,,,,,,,,
,,,,,,,,,,,,l,Correct!,,,,,,t5.png,t3.png,2,0.056466,19,Female ,2020-10-20_16h10.27.849,torte-q,2020.1.3,Win32,60,13197,0.430035,,,,,,,,,,,,,,0,37,37,114,1,,,,,,,,,,,,,,,,,,,,,,,,,,
,,,,,,,,,,,,l,Correct!,,,,,,t2.png,t4.png,2,0.059078,19,Female ,2020-10-20_16h10.27.849,torte-q,2020.1.3,Win32,60,13197,0.500375,,,,,,,,,,,,,,0,38,38,11,1,,,,,,,,,,,,,,,,,,,,,,,,,,
,,,,,,,,,,,,l,Incorrect,,,,,,t2.png,t1.png,1,0.9,19,Female ,2020-10-20_16h10.27.849,torte-q,2020.1.3,Win32,60,13197,0.61944,,,,,,,,,,,,,,0,39,39,118,1,,,,,,,,,,,,,,,,,,,,,,,,,,
,,,,,,,,,,,,l,Correct!,,,,,,t5.png,t2.png,3,0.0000131,19,Female ,2020-10-20_16h10.27.849,torte-q,2020.1.3,Win32,60,13197,0.40397,,,,,,,,,,,,,,0,40,40,119,1,,,,,,,,,,,,,,,,,,,,,,,,,,
,,,,,,,,,,,,l,Incorrect,,,,,,t4.png,t3.png,1,0.909,19,Female ,2020-10-20_16h10.27.849,torte-q,2020.1.3,Win32,60,13197,0.72303,,,,,,,,,,,,,,0,41,41,20,1,,,,,,,,,,,,,,,,,,,,,,,,,,
,,,,,,,,,,,,l,Incorrect,,,,,,t2.png,t1.png,1,0.90025,19,Female ,2020-10-20_16h10.27.849,torte-q,2020.1.3,Win32,60,13197,0.953635,,,,,,,,,,,,,,0,42,42,62,1,,,,,,,,,,,,,,,,,,,,,,,,,,
,,,,,,,,,,,,l,Correct!,,,,,,t3.png,t5.png,2,0.056466,19,Female ,2020-10-20_16h10.27.849,torte-q,2020.1.3,Win32,60,13197,0.52285,,,,,,,,,,,,,,0,43,43,6,1,,,,,,,,,,,,,,,,,,,,,,,,,,
,,,,,,,,,,,,l,Incorrect,,,,,,t2.png,t2.png,0,0.98115,19,Female ,2020-10-20_16h10.27.849,torte-q,2020.1.3,Win32,60,13197,1.15324,,,,,,,,,,,,,,0,44,44,59,1,,,,,,,,,,,,,,,,,,,,,,,,,,
,,,,,,,,,,,,l,Incorrect,,,,,,t3.png,t4.png,1,0.909,19,Female ,2020-10-20_16h10.27.849,torte-q,2020.1.3,Win32,60,13197,0.78557,,,,,,,,,,,,,,0,45,45,82,1,,,,,,,,,,,,,,,,,,,,,,,,,,
,,,,,,,,,,,,l,Incorrect,,,,,,t3.png,t4.png,1,0.909,19,Female ,2020-10-20_16h10.27.849,torte-q,2020.1.3,Win32,60,13197,0.750915,,,,,,,,,,,,,,0,46,46,106,1,,,,,,,,,,,,,,,,,,,,,,,,,,
,,,,,,,,,,,,a,Correct!,,,,,,t2.png,t3.png,1,0.90855,19,Female ,2020-10-20_16h10.27.849,torte-q,2020.1.3,Win32,60,13197,0.430795,,,,,,,,,,,,,,0,47,47,65,1,,,,,,,,,,,,,,,,,,,,,,,,,,
,,,,,,,,,,,,l,Correct!,,,,,,t3.png,t5.png,2,0.0565,19,Female ,2020-10-20_16h10.27.849,torte-q,2020.1.3,Win32,60,13197,0.60788,,,,,,,,,,,,,,0,48,48,30,1,,,,,,,,,,,,,,,,,,,,,,,,,,
,,,,,,,,,,,,a,Correct!,,,,,,t4.png,t4.png,0,0.98115,19,Female ,2020-10-20_16h10.27.849,torte-q,2020.1.3,Win32,60,13197,0.303435,,,,,,,,,,,,,,0,49,49,80,1,,,,,,,,,,,,,,,,,,,,,,,,,,
,,,,,,,,,,,,l,Correct!,,,,,,t5.png,t1.png,4,9.55E-11,19,Female ,2020-10-20_16h10.27.849,torte-q,2020.1.3,Win32,60,13197,0.585425,,,,,,,,,,,,,,0,50,50,43,1,,,,,,,,,,,,,,,,,,,,,,,,,,
,,,,,,,,,,,,l,Correct!,,,,,,t4.png,t1.png,3,0.0000131,19,Female ,2020-10-20_16h10.27.849,torte-q,2020.1.3,Win32,60,13197,0.52168,,,,,,,,,,,,,,0,51,51,48,1,,,,,,,,,,,,,,,,,,,,,,,,,,
,,,,,,,,,,,,l,Incorrect,,,,,,t5.png,t4.png,1,0.9,19,Female ,2020-10-20_16h10.27.849,torte-q,2020.1.3,Win32,60,13197,0.65188,,,,,,,,,,,,,,0,52,52,49,1,,,,,,,,,,,,,,,,,,,,,,,,,,
,,,,,,,,,,,,l,Incorrect,,,,,,t4.png,t5.png,1,0.90025,19,Female ,2020-10-20_16h10.27.849,torte-q,2020.1.3,Win32,60,13197,0.73174,,,,,,,,,,,,,,0,53,53,113,1,,,,,,,,,,,,,,,,,,,,,,,,,,
,,,,,,,,,,,,l,Incorrect,,,,,,t2.png,t3.png,1,0.909,19,Female ,2020-10-20_16h10.27.849,torte-q,2020.1.3,Win32,60,13197,0.84945,,,,,,,,,,,,,,0,54,54,74,1,,,,,,,,,,,,,,,,,,,,,,,,,,
,,,,,,,,,,,,l,Correct!,,,,,,t2.png,t3.png,1,0.90855,19,Female ,2020-10-20_16h10.27.849,torte-q,2020.1.3,Win32,60,13197,0.58668,,,,,,,,,,,,,,0,55,55,111,1,,,,,,,,,,,,,,,,,,,,,,,,,,
,,,,,,,,,,,,a,Incorrect,,,,,,t5.png,t3.png,2,0.0565,19,Female ,2020-10-20_16h10.27.849,torte-q,2020.1.3,Win32,60,13197,0.3318,,,,,,,,,,,,,,0,56,56,39,1,,,,,,,,,,,,,,,,,,,,,,,,,,
,,,,,,,,,,,,l,Correct!,,,,,,t3.png,t4.png,1,0.90855,19,Female ,2020-10-20_16h10.27.849,torte-q,2020.1.3,Win32,60,13197,0.50026,,,,,,,,,,,,,,0,57,57,96,1,,,,,,,,,,,,,,,,,,,,,,,,,,
,,,,,,,,,,,,a,Correct!,,,,,,t4.png,t3.png,1,0.90855,19,Female ,2020-10-20_16h10.27.849,torte-q,2020.1.3,Win32,60,13197,0.65042,,,,,,,,,,,,,,0,58,58,45,1,,,,,,,,,,,,,,,,,,,,,,,,,,
,,,,,,,,,,,,l,Correct!,,,,,,t4.png,t5.png,1,0.90025,19,Female ,2020-10-20_16h10.27.849,torte-q,2020.1.3,Win32,60,13197,0.51625,,,,,,,,,,,,,,0,59,59,58,1,,,,,,,,,,,,,,,,,,,,,,,,,,
,,,,,,,,,,,,l,Correct!,,,,,,t2.png,t4.png,2,0.059078,19,Female ,2020-10-20_16h10.27.849,torte-q,2020.1.3,Win32,60,13197,0.666875,,,,,,,,,,,,,,0,60,60,77,1,,,,,,,,,,,,,,,,,,,,,,,,,,
,,,,,,,,,,,,l,Correct!,,,,,,t4.png,t1.png,3,0.0000131,19,Female ,2020-10-20_16h10.27.849,torte-q,2020.1.3,Win32,60,13197,0.45028,,,,,,,,,,,,,,0,61,61,42,1,,,,,,,,,,,,,,,,,,,,,,,,,,
,,,,,,,,,,,,l,Incorrect,,,,,,t3.png,t2.png,1,0.90855,19,Female ,2020-10-20_16h10.27.849,torte-q,2020.1.3,Win32,60,13197,0.54978,,,,,,,,,,,,,,0,62,62,97,1,,,,,,,,,,,,,,,,,,,,,,,,,,
,,,,,,,,,,,,l,Incorrect,,,,,,t5.png,t5.png,0,0.978,19,Female ,2020-10-20_16h10.27.849,torte-q,2020.1.3,Win32,60,13197,0.48302,,,,,,,,,,,,,,0,63,63,117,1,,,,,,,,,,,,,,,,,,,,,,,,,,
,,,,,,,,,,,,l,Incorrect,,,,,,t2.png,t2.png,0,0.98115,19,Female ,2020-10-20_16h10.27.849,torte-q,2020.1.3,Win32,60,13197,0.56595,,,,,,,,,,,,,,0,64,64,7,1,,,,,,,,,,,,,,,,,,,,,,,,,,
,,,,,,,,,,,,a,Incorrect,,,,,,t5.png,t1.png,4,9.55E-11,19,Female ,2020-10-20_16h10.27.849,torte-q,2020.1.3,Win32,60,13197,0.748085,,,,,,,,,,,,,,0,65,65,71,1,,,,,,,,,,,,,,,,,,,,,,,,,,
,,,,,,,,,,,,l,Correct!,,,,,,t1.png,t5.png,4,9.55E-11,19,Female ,2020-10-20_16h10.27.849,torte-q,2020.1.3,Win32,60,13197,0.280435,,,,,,,,,,,,,,0,66,66,55,1,,,,,,,,,,,,,,,,,,,,,,,,,,
,,,,,,,,,,,,l,Correct!,,,,,,t4.png,t2.png,2,0.0591,19,Female ,2020-10-20_16h10.27.849,torte-q,2020.1.3,Win32,60,13197,0.532685,,,,,,,,,,,,,,0,67,67,36,1,,,,,,,,,,,,,,,,,,,,,,,,,,
,,,,,,,,,,,,l,Correct!,,,,,,t4.png,t2.png,2,0.059078,19,Female ,2020-10-20_16h10.27.849,torte-q,2020.1.3,Win32,60,13197,0.571735,,,,,,,,,,,,,,0,68,68,86,1,,,,,,,,,,,,,,,,,,,,,,,,,,
,,,,,,,,,,,,a,Incorrect,,,,,,t5.png,t2.png,3,0.0000131,19,Female ,2020-10-20_16h10.27.849,torte-q,2020.1.3,Win32,60,13197,0.917695,,,,,,,,,,,,,,0,69,69,51,1,,,,,,,,,,,,,,,,,,,,,,,,,,
,,,,,,,,,,,,l,Incorrect,,,,,,t3.png,t4.png,1,0.909,19,Female ,2020-10-20_16h10.27.849,torte-q,2020.1.3,Win32,60,13197,0.439985,,,,,,,,,,,,,,0,70,70,89,1,,,,,,,,,,,,,,,,,,,,,,,,,,
,,,,,,,,,,,,l,Correct!,,,,,,t3.png,t5.png,2,0.056466,19,Female ,2020-10-20_16h10.27.849,torte-q,2020.1.3,Win32,60,13197,0.533375,,,,,,,,,,,,,,0,71,71,44,1,,,,,,,,,,,,,,,,,,,,,,,,,,
,,,,,,,,,,,,l,Incorrect,,,,,,t4.png,t4.png,0,0.98115,19,Female ,2020-10-20_16h10.27.849,torte-q,2020.1.3,Win32,60,13197,0.689515,,,,,,,,,,,,,,0,72,72,79,1,,,,,,,,,,,,,,,,,,,,,,,,,,
,,,,,,,,,,,,l,Incorrect,,,,,,t1.png,t2.png,1,0.90025,19,Female ,2020-10-20_16h10.27.849,torte-q,2020.1.3,Win32,60,13197,0.54988,,,,,,,,,,,,,,0,73,73,33,1,,,,,,,,,,,,,,,,,,,,,,,,,,
,,,,,,,,,,,,a,Incorrect,,,,,,t2.png,t5.png,3,0.0000131,19,Female ,2020-10-20_16h10.27.849,torte-q,2020.1.3,Win32,60,13197,0.73857,,,,,,,,,,,,,,0,74,74,66,1,,,,,,,,,,,,,,,,,,,,,,,,,,
,,,,,,,,,,,,l,Correct!,,,,,,t3.png,t1.png,2,0.056466,19,Female ,2020-10-20_16h10.27.849,torte-q,2020.1.3,Win32,60,13197,0.398885,,,,,,,,,,,,,,0,75,75,32,1,,,,,,,,,,,,,,,,,,,,,,,,,,
,,,,,,,,,,,,l,Incorrect,,,,,,t5.png,t4.png,1,0.90025,19,Female ,2020-10-20_16h10.27.849,torte-q,2020.1.3,Win32,60,13197,0.356465,,,,,,,,,,,,,,0,76,76,27,1,,,,,,,,,,,,,,,,,,,,,,,,,,
,,,,,,,,,,,,l,Incorrect,,,,,,t4.png,t4.png,0,0.98115,19,Female ,2020-10-20_16h10.27.849,torte-q,2020.1.3,Win32,60,13197,0.382135,,,,,,,,,,,,,,0,77,77,90,1,,,,,,,,,,,,,,,,,,,,,,,,,,
,,,,,,,,,,,,l,Incorrect,,,,,,t1.png,t1.png,0,0.97829,19,Female ,2020-10-20_16h10.27.849,torte-q,2020.1.3,Win32,60,13197,0.401865,,,,,,,,,,,,,,0,78,78,9,1,,,,,,,,,,,,,,,,,,,,,,,,,,
,,,,,,,,,,,,l,Correct!,,,,,,t1.png,t3.png,2,0.056466,19,Female ,2020-10-20_16h10.27.849,torte-q,2020.1.3,Win32,60,13197,0.599355,,,,,,,,,,,,,,0,79,79,87,1,,,,,,,,,,,,,,,,,,,,,,,,,,
,,,,,,,,,,,,a,Correct!,,,,,,t3.png,t2.png,1,0.90855,19,Female ,2020-10-20_16h10.27.849,torte-q,2020.1.3,Win32,60,13197,0.37096,,,,,,,,,,,,,,0,80,80,53,1,,,,,,,,,,,,,,,,,,,,,,,,,,
,,,,,,,,,,,,l,Incorrect,,,,,,t4.png,t5.png,1,0.90025,19,Female ,2020-10-20_16h10.27.849,torte-q,2020.1.3,Win32,60,13197,0.28845,,,,,,,,,,,,,,0,81,81,103,1,,,,,,,,,,,,,,,,,,,,,,,,,,
,,,,,,,,,,,,l,Incorrect,,,,,,t4.png,t3.png,1,0.909,19,Female ,2020-10-20_16h10.27.849,torte-q,2020.1.3,Win32,60,13197,0.500035,,,,,,,,,,,,,,0,82,82,46,1,,,,,,,,,,,,,,,,,,,,,,,,,,
,,,,,,,,,,,,l,Incorrect,,,,,,t3.png,t2.png,1,0.909,19,Female ,2020-10-20_16h10.27.849,torte-q,2020.1.3,Win32,60,13197,0.41764,,,,,,,,,,,,,,0,83,83,3,1,,,,,,,,,,,,,,,,,,,,,,,,,,
,,,,,,,,,,,,l,Correct!,,,,,,t5.png,t1.png,4,9.55E-11,19,Female ,2020-10-20_16h10.27.849,torte-q,2020.1.3,Win32,60,13197,0.423285,,,,,,,,,,,,,,0,84,84,100,1,,,,,,,,,,,,,,,,,,,,,,,,,,
,,,,,,,,,,,,l,Correct!,,,,,,t3.png,t1.png,2,0.0565,19,Female ,2020-10-20_16h10.27.849,torte-q,2020.1.3,Win32,60,13197,0.565685,,,,,,,,,,,,,,0,85,85,31,1,,,,,,,,,,,,,,,,,,,,,,,,,,
,,,,,,,,,,,,a,Correct!,,,,,,t3.png,t2.png,1,0.90855,19,Female ,2020-10-20_16h10.27.849,torte-q,2020.1.3,Win32,60,13197,0.590865,,,,,,,,,,,,,,0,86,86,18,1,,,,,,,,,,,,,,,,,,,,,,,,,,
,,,,,,,,,,,,l,Correct!,,,,,,t5.png,t1.png,4,9.55E-11,19,Female ,2020-10-20_16h10.27.849,torte-q,2020.1.3,Win32,60,13197,0.30129,,,,,,,,,,,,,,0,87,87,22,1,,,,,,,,,,,,,,,,,,,,,,,,,,
,,,,,,,,,,,,l,Incorrect,,,,,,t2.png,t2.png,0,0.981,19,Female ,2020-10-20_16h10.27.849,torte-q,2020.1.3,Win32,60,13197,0.43251,,,,,,,,,,,,,,0,88,88,101,1,,,,,,,,,,,,,,,,,,,,,,,,,,
,,,,,,,,,,,,l,Correct!,,,,,,t1.png,t5.png,4,9.55E-11,19,Female ,2020-10-20_16h10.27.849,torte-q,2020.1.3,Win32,60,13197,0.321785,,,,,,,,,,,,,,0,89,89,41,1,,,,,,,,,,,,,,,,,,,,,,,,,,
,,,,,,,,,,,,l,Incorrect,,,,,,t1.png,t1.png,0,0.97829,19,Female ,2020-10-20_16h10.27.849,torte-q,2020.1.3,Win32,60,13197,0.69806,,,,,,,,,,,,,,0,90,90,78,1,,,,,,,,,,,,,,,,,,,,,,,,,,
,,,,,,,,,,,,a,Correct!,,,,,,t5.png,t4.png,1,0.90025,19,Female ,2020-10-20_16h10.27.849,torte-q,2020.1.3,Win32,60,13197,0.41475,,,,,,,,,,,,,,0,91,91,34,1,,,,,,,,,,,,,,,,,,,,,,,,,,
,,,,,,,,,,,,l,Correct!,,,,,,t5.png,t2.png,3,0.0000131,19,Female ,2020-10-20_16h10.27.849,torte-q,2020.1.3,Win32,60,13197,0.448865,,,,,,,,,,,,,,0,92,92,91,1,,,,,,,,,,,,,,,,,,,,,,,,,,
,,,,,,,,,,,,a,Incorrect,,,,,,t5.png,t2.png,3,0.0000131,19,Female ,2020-10-20_16h10.27.849,torte-q,2020.1.3,Win32,60,13197,0.41227,,,,,,,,,,,,,,0,93,93,116,1,,,,,,,,,,,,,,,,,,,,,,,,,,
,,,,,,,,,,,,l,Incorrect,,,,,,t2.png,t2.png,0,0.98115,19,Female ,2020-10-20_16h10.27.849,torte-q,2020.1.3,Win32,60,13197,0.403585,,,,,,,,,,,,,,0,94,94,2,1,,,,,,,,,,,,,,,,,,,,,,,,,,
,,,,,,,,,,,,l,Incorrect,,,,,,t2.png,t1.png,1,0.90025,19,Female ,2020-10-20_16h10.27.849,torte-q,2020.1.3,Win32,60,13197,0.481035,,,,,,,,,,,,,,0,95,95,19,1,,,,,,,,,,,,,,,,,,,,,,,,,,
,,,,,,,,,,,,a,Correct!,,,,,,t4.png,t4.png,0,0.98115,19,Female ,2020-10-20_16h10.27.849,torte-q,2020.1.3,Win32,60,13197,0.58048,,,,,,,,,,,,,,0,96,96,21,1,,,,,,,,,,,,,,,,,,,,,,,,,,
,,,,,,,,,,,,l,Correct!,,,,,,t1.png,t3.png,2,0.056466,19,Female ,2020-10-20_16h10.27.849,torte-q,2020.1.3,Win32,60,13197,0.417,,,,,,,,,,,,,,0,97,97,99,1,,,,,,,,,,,,,,,,,,,,,,,,,,
,,,,,,,,,,,,a,Correct!,,,,,,t2.png,t3.png,1,0.90855,19,Female ,2020-10-20_16h10.27.849,torte-q,2020.1.3,Win32,60,13197,0.365745,,,,,,,,,,,,,,0,98,98,10,1,,,,,,,,,,,,,,,,,,,,,,,,,,
,,,,,,,,,,,,l,Correct!,,,,,,t1.png,t4.png,3,0.0000131,19,Female ,2020-10-20_16h10.27.849,torte-q,2020.1.3,Win32,60,13197,0.39609,,,,,,,,,,,,,,0,99,99,50,1,,,,,,,,,,,,,,,,,,,,,,,,,,
,,,,,,,,,,,,a,Correct!,,,,,,t5.png,t5.png,0,0.97829,19,Female ,2020-10-20_16h10.27.849,torte-q,2020.1.3,Win32,60,13197,0.38133,,,,,,,,,,,,,,0,100,100,25,1,,,,,,,,,,,,,,,,,,,,,,,,,,
,,,,,,,,,,,,l,Correct!,,,,,,t1.png,t4.png,3,0.0000131,19,Female ,2020-10-20_16h10.27.849,torte-q,2020.1.3,Win32,60,13197,0.88245,,,,,,,,,,,,,,0,101,101,92,1,,,,,,,,,,,,,,,,,,,,,,,,,,
,,,,,,,,,,,,l,Correct!,,,,,,t1.png,t3.png,2,0.056466,19,Female ,2020-10-20_16h10.27.849,torte-q,2020.1.3,Win32,60,13197,0.53139,,,,,,,,,,,,,,0,102,102,69,1,,,,,,,,,,,,,,,,,,,,,,,,,,
,,,,,,,,,,,,a,Incorrect,,,,,,t1.png,t5.png,4,9.55E-11,19,Female ,2020-10-20_16h10.27.849,torte-q,2020.1.3,Win32,60,13197,0.61594,,,,,,,,,,,,,,0,103,103,12,1,,,,,,,,,,,,,,,,,,,,,,,,,,
,,,,,,,,,,,,l,Correct!,,,,,,t1.png,t3.png,2,0.056466,19,Female ,2020-10-20_16h10.27.849,torte-q,2020.1.3,Win32,60,13197,0.433295,,,,,,,,,,,,,,0,104,104,63,1,,,,,,,,,,,,,,,,,,,,,,,,,,
,,,,,,,,,,,,l,Incorrect,,,,,,t5.png,t5.png,0,0.97829,19,Female ,2020-10-20_16h10.27.849,torte-q,2020.1.3,Win32,60,13197,0.69248,,,,,,,,,,,,,,0,105,105,70,1,,,,,,,,,,,,,,,,,,,,,,,,,,
,,,,,,,,,,,,l,Correct!,,,,,,t3.png,t1.png,2,0.056466,19,Female ,2020-10-20_16h10.27.849,torte-q,2020.1.3,Win32,60,13197,1.00345,,,,,,,,,,,,,,0,106,106,29,1,,,,,,,,,,,,,,,,,,,,,,,,,,
,,,,,,,,,,,,l,Incorrect,,,,,,t4.png,t5.png,1,0.90025,19,Female ,2020-10-20_16h10.27.849,torte-q,2020.1.3,Win32,60,13197,0.499475,,,,,,,,,,,,,,0,107,107,47,1,,,,,,,,,,,,,,,,,,,,,,,,,,
,,,,,,,,,,,,l,Incorrect,,,,,,t1.png,t2.png,1,0.9,19,Female ,2020-10-20_16h10.27.849,torte-q,2020.1.3,Win32,60,13197,0.699095,,,,,,,,,,,,,,0,108,108,1,1,,,,,,,,,,,,,,,,,,,,,,,,,,
,,,,,,,,,,,,l,Incorrect,,,,,,t5.png,t5.png,0,0.97829,19,Female ,2020-10-20_16h10.27.849,torte-q,2020.1.3,Win32,60,13197,0.616795,,,,,,,,,,,,,,0,109,109,73,1,,,,,,,,,,,,,,,,,,,,,,,,,,
,,,,,,,,,,,,l,Incorrect,,,,,,t2.png,t1.png,1,0.90025,19,Female ,2020-10-20_16h10.27.849,torte-q,2020.1.3,Win32,60,13197,0.516165,,,,,,,,,,,,,,0,110,110,5,1,,,,,,,,,,,,,,,,,,,,,,,,,,
,,,,,,,,,,,,a,Incorrect,,,,,,t3.png,t5.png,2,0.0565,19,Female ,2020-10-20_16h10.27.849,torte-q,2020.1.3,Win32,60,13197,0.61947,,,,,,,,,,,,,,0,111,111,83,1,,,,,,,,,,,,,,,,,,,,,,,,,,
,,,,,,,,,,,,l,Incorrect,,,,,,t3.png,t4.png,1,0.90855,19,Female ,2020-10-20_16h10.27.849,torte-q,2020.1.3,Win32,60,13197,0.600915,,,,,,,,,,,,,,0,112,112,84,1,,,,,,,,,,,,,,,,,,,,,,,,,,
,,,,,,,,,,,,l,Correct!,,,,,,t5.png,t3.png,2,0.056466,19,Female ,2020-10-20_16h10.27.849,torte-q,2020.1.3,Win32,60,13197,0.298945,,,,,,,,,,,,,,0,113,113,108,1,,,,,,,,,,,,,,,,,,,,,,,,,,
,,,,,,,,,,,,l,Correct!,,,,,,t2.png,t1.png,1,0.90025,19,Female ,2020-10-20_16h10.27.849,torte-q,2020.1.3,Win32,60,13197,0.498745,,,,,,,,,,,,,,0,114,114,4,1,,,,,,,,,,,,,,,,,,,,,,,,,,
,,,,,,,,,,,,l,Correct!,,,,,,t5.png,t3.png,2,0.056466,19,Female ,2020-10-20_16h10.27.849,torte-q,2020.1.3,Win32,60,13197,0.63279,,,,,,,,,,,,,,0,115,115,56,1,,,,,,,,,,,,,,,,,,,,,,,,,,
,,,,,,,,,,,,l,Incorrect,,,,,,t4.png,t5.png,1,0.9,19,Female ,2020-10-20_16h10.27.849,torte-q,2020.1.3,Win32,60,13197,0.604155,,,,,,,,,,,,,,0,116,116,115,1,,,,,,,,,,,,,,,,,,,,,,,,,,
,,,,,,,,,,,,l,Incorrect,,,,,,t1.png,t2.png,1,0.90025,19,Female ,2020-10-20_16h10.27.849,torte-q,2020.1.3,Win32,60,13197,0.37372,,,,,,,,,,,,,,0,117,117,112,1,,,,,,,,,,,,,,,,,,,,,,,,,,
,,,,,,,,,,,,l,Incorrect,,,,,,t3.png,t5.png,2,0.056466,19,Female ,2020-10-20_16h10.27.849,torte-q,2020.1.3,Win32,60,13197,0.52161,,,,,,,,,,,,,,0,118,118,14,1,,,,,,,,,,,,,,,,,,,,,,,,,,
,,,,,,,,,,,,l,Correct!,,,,,,t1.png,t5.png,4,9.55E-11,19,Female ,2020-10-20_16h10.27.849,torte-q,2020.1.3,Win32,60,13197,0.958555,,,,,,,,,,,,,,0,119,119,85,1,,,,,,,,,,,,,,,,,,,,,,,,,,
,,,,,,,,,,,,,,,,,,,,,,,19,Female ,2020-10-20_16h10.27.849,torte-q,2020.1.3,Win32,60,13197,,space,1.513665,,,,,,,,,,,,,,,,,4.96,6.834835,62.66668761,197.9999952,1,0,0,s1,-20.66660752,-98.66668034,1,0,0,t4,138.0000232,-114.0000141,1,0,0,proceed,space,10.51105,space,3.00455,space,0.68004
