key_resp_8.keys,key_resp_8.rt,key_resp_9.keys,key_resp_9.rt,key_resp_10.keys,key_resp_10.rt,key_resp_11.keys,key_resp_11.rt,key_resp_2.keys,key_resp_2.rt,key_resp_3.keys,key_resp_3.rt,key_resp.keys,Feedback,train.thisRepN,train.thisTrialN,train.thisN,train.thisIndex,train.ran,torta_sx,torta_dx,difference,probability,age,gender,date,expName,psychopyVersion,OS,frameRate,participant,key_resp.rt,key_resp_15.keys,key_resp_15.rt,key_resp_6.keys,key_resp_6.rt,test1.thisRepN,test1.thisTrialN,test1.thisN,test1.thisIndex,test1.ran,key_resp_16.keys,key_resp_16.rt,key_resp_7.keys,key_resp_7.rt,test2.thisRepN,test2.thisTrialN,test2.thisN,test2.thisIndex,test2.ran,rating.response,rating.rt,mouse.x,mouse.y,mouse.leftButton,mouse.midButton,mouse.rightButton,mouse.clicked_name,mouse_2.x,mouse_2.y,mouse_2.leftButton,mouse_2.midButton,mouse_2.rightButton,mouse_2.clicked_name,mouse_3.x,mouse_3.y,mouse_3.leftButton,mouse_3.midButton,mouse_3.rightButton,mouse_3.clicked_name,key_resp_12.keys,key_resp_12.rt,key_resp_13.keys,key_resp_13.rt,key_resp_14.keys,key_resp_14.rt
space,39.689205,space,5.022775,space,2.51848,space,4.63094,left,0.100525,space,29.425875,,Too slow :(,0,0,0,99,1,t1.png,t5.png,4,9.55E-11,19,female,2020-10-23_12h45.55.452,torte-q,2020.1.3,Win32,60,13191,,,,,,,,,,,,,,,,,,,,,,,,,,,,,,,,,,,,,,,,,,,,,
,,,,,,,,,,,,a,Correct!,0,1,1,25,1,t5.png,t5.png,0,0.97829,19,female,2020-10-23_12h45.55.452,torte-q,2020.1.3,Win32,60,13191,1.982295,,,,,,,,,,,,,,,,,,,,,,,,,,,,,,,,,,,,,,,,,,,,
,,,,,,,,,,,,l,Incorrect,0,2,2,9,1,t4.png,t5.png,1,0.9,19,female,2020-10-23_12h45.55.452,torte-q,2020.1.3,Win32,60,13191,0.964825,,,,,,,,,,,,,,,,,,,,,,,,,,,,,,,,,,,,,,,,,,,,
,,,,,,,,,,,,a,Incorrect,0,3,3,56,1,t5.png,t1.png,4,9.55E-11,19,female,2020-10-23_12h45.55.452,torte-q,2020.1.3,Win32,60,13191,0.842975,,,,,,,,,,,,,,,,,,,,,,,,,,,,,,,,,,,,,,,,,,,,
,,,,,,,,,,,,l,Incorrect,0,4,4,116,1,t5.png,t4.png,1,0.90025,19,female,2020-10-23_12h45.55.452,torte-q,2020.1.3,Win32,60,13191,1.872025,,,,,,,,,,,,,,,,,,,,,,,,,,,,,,,,,,,,,,,,,,,,
,,,,,,,,,,,,a,Incorrect,0,5,5,90,1,t1.png,t5.png,4,9.55E-11,19,female,2020-10-23_12h45.55.452,torte-q,2020.1.3,Win32,60,13191,0.956505,,,,,,,,,,,,,,,,,,,,,,,,,,,,,,,,,,,,,,,,,,,,
,,,,,,,,,,,,l,Correct!,0,6,6,35,1,t1.png,t4.png,3,0.0000131,19,female,2020-10-23_12h45.55.452,torte-q,2020.1.3,Win32,60,13191,1.401765,,,,,,,,,,,,,,,,,,,,,,,,,,,,,,,,,,,,,,,,,,,,
,,,,,,,,,,,,,Too slow :(,0,7,7,95,1,t1.png,t1.png,0,0.978,19,female,2020-10-23_12h45.55.452,torte-q,2020.1.3,Win32,60,13191,,,,,,,,,,,,,,,,,,,,,,,,,,,,,,,,,,,,,,,,,,,,,
,,,,,,,,,,,,a,Incorrect,0,8,8,43,1,t4.png,t2.png,2,0.059078,19,female,2020-10-23_12h45.55.452,torte-q,2020.1.3,Win32,60,13191,1.47083,,,,,,,,,,,,,,,,,,,,,,,,,,,,,,,,,,,,,,,,,,,,
,,,,,,,,,,,,l,Correct!,0,9,9,54,1,t1.png,t5.png,4,9.55E-11,19,female,2020-10-23_12h45.55.452,torte-q,2020.1.3,Win32,60,13191,1.21359,,,,,,,,,,,,,,,,,,,,,,,,,,,,,,,,,,,,,,,,,,,,
,,,,,,,,,,,,l,Correct!,0,10,10,93,1,t2.png,t4.png,2,0.059078,19,female,2020-10-23_12h45.55.452,torte-q,2020.1.3,Win32,60,13191,1.679555,,,,,,,,,,,,,,,,,,,,,,,,,,,,,,,,,,,,,,,,,,,,
,,,,,,,,,,,,a,Correct!,0,11,11,112,1,t1.png,t1.png,0,0.97829,19,female,2020-10-23_12h45.55.452,torte-q,2020.1.3,Win32,60,13191,1.457625,,,,,,,,,,,,,,,,,,,,,,,,,,,,,,,,,,,,,,,,,,,,
,,,,,,,,,,,,l,Correct!,0,12,12,98,1,t2.png,t4.png,2,0.0591,19,female,2020-10-23_12h45.55.452,torte-q,2020.1.3,Win32,60,13191,0.8899,,,,,,,,,,,,,,,,,,,,,,,,,,,,,,,,,,,,,,,,,,,,
,,,,,,,,,,,,l,Incorrect,0,13,13,20,1,t2.png,t3.png,1,0.90855,19,female,2020-10-23_12h45.55.452,torte-q,2020.1.3,Win32,60,13191,1.380445,,,,,,,,,,,,,,,,,,,,,,,,,,,,,,,,,,,,,,,,,,,,
,,,,,,,,,,,,a,Correct!,0,14,14,75,1,t1.png,t1.png,0,0.97829,19,female,2020-10-23_12h45.55.452,torte-q,2020.1.3,Win32,60,13191,1.023595,,,,,,,,,,,,,,,,,,,,,,,,,,,,,,,,,,,,,,,,,,,,
,,,,,,,,,,,,l,Incorrect,0,15,15,66,1,t4.png,t5.png,1,0.9,19,female,2020-10-23_12h45.55.452,torte-q,2020.1.3,Win32,60,13191,1.080365,,,,,,,,,,,,,,,,,,,,,,,,,,,,,,,,,,,,,,,,,,,,
,,,,,,,,,,,,l,Correct!,0,16,16,80,1,t1.png,t4.png,3,0.0000131,19,female,2020-10-23_12h45.55.452,torte-q,2020.1.3,Win32,60,13191,0.616695,,,,,,,,,,,,,,,,,,,,,,,,,,,,,,,,,,,,,,,,,,,,
,,,,,,,,,,,,a,Incorrect,0,17,17,16,1,t5.png,t4.png,1,0.9,19,female,2020-10-23_12h45.55.452,torte-q,2020.1.3,Win32,60,13191,0.83241,,,,,,,,,,,,,,,,,,,,,,,,,,,,,,,,,,,,,,,,,,,,
,,,,,,,,,,,,a,Incorrect,0,18,18,14,1,t2.png,t4.png,2,0.059078,19,female,2020-10-23_12h45.55.452,torte-q,2020.1.3,Win32,60,13191,1.304585,,,,,,,,,,,,,,,,,,,,,,,,,,,,,,,,,,,,,,,,,,,,
,,,,,,,,,,,,a,Incorrect,0,19,19,69,1,t4.png,t2.png,2,0.059078,19,female,2020-10-23_12h45.55.452,torte-q,2020.1.3,Win32,60,13191,0.8826,,,,,,,,,,,,,,,,,,,,,,,,,,,,,,,,,,,,,,,,,,,,
,,,,,,,,,,,,l,Incorrect,0,20,20,92,1,t2.png,t3.png,1,0.909,19,female,2020-10-23_12h45.55.452,torte-q,2020.1.3,Win32,60,13191,1.03802,,,,,,,,,,,,,,,,,,,,,,,,,,,,,,,,,,,,,,,,,,,,
,,,,,,,,,,,,a,Correct!,0,21,21,48,1,t5.png,t5.png,0,0.97829,19,female,2020-10-23_12h45.55.452,torte-q,2020.1.3,Win32,60,13191,1.337955,,,,,,,,,,,,,,,,,,,,,,,,,,,,,,,,,,,,,,,,,,,,
,,,,,,,,,,,,a,Incorrect,0,22,22,47,1,t4.png,t2.png,2,0.059078,19,female,2020-10-23_12h45.55.452,torte-q,2020.1.3,Win32,60,13191,0.72167,,,,,,,,,,,,,,,,,,,,,,,,,,,,,,,,,,,,,,,,,,,,
,,,,,,,,,,,,a,Correct!,0,23,23,45,1,t3.png,t2.png,1,0.90855,19,female,2020-10-23_12h45.55.452,torte-q,2020.1.3,Win32,60,13191,1.796195,,,,,,,,,,,,,,,,,,,,,,,,,,,,,,,,,,,,,,,,,,,,
,,,,,,,,,,,,a,Incorrect,0,24,24,26,1,t4.png,t2.png,2,0.0591,19,female,2020-10-23_12h45.55.452,torte-q,2020.1.3,Win32,60,13191,0.6261,,,,,,,,,,,,,,,,,,,,,,,,,,,,,,,,,,,,,,,,,,,,
,,,,,,,,,,,,l,Correct!,0,25,25,10,1,t2.png,t3.png,1,0.90855,19,female,2020-10-23_12h45.55.452,torte-q,2020.1.3,Win32,60,13191,1.085775,,,,,,,,,,,,,,,,,,,,,,,,,,,,,,,,,,,,,,,,,,,,
,,,,,,,,,,,,l,Incorrect,0,26,26,110,1,t4.png,t5.png,1,0.90025,19,female,2020-10-23_12h45.55.452,torte-q,2020.1.3,Win32,60,13191,0.754455,,,,,,,,,,,,,,,,,,,,,,,,,,,,,,,,,,,,,,,,,,,,
,,,,,,,,,,,,l,Correct!,0,27,27,60,1,t2.png,t4.png,2,0.059078,19,female,2020-10-23_12h45.55.452,torte-q,2020.1.3,Win32,60,13191,0.63888,,,,,,,,,,,,,,,,,,,,,,,,,,,,,,,,,,,,,,,,,,,,
,,,,,,,,,,,,a,Incorrect,0,28,28,87,1,t5.png,t1.png,4,9.55E-11,19,female,2020-10-23_12h45.55.452,torte-q,2020.1.3,Win32,60,13191,0.598325,,,,,,,,,,,,,,,,,,,,,,,,,,,,,,,,,,,,,,,,,,,,
,,,,,,,,,,,,l,Incorrect,0,29,29,49,1,t4.png,t5.png,1,0.9,19,female,2020-10-23_12h45.55.452,torte-q,2020.1.3,Win32,60,13191,0.81702,,,,,,,,,,,,,,,,,,,,,,,,,,,,,,,,,,,,,,,,,,,,
,,,,,,,,,,,,l,Incorrect,0,30,30,44,1,t2.png,t3.png,1,0.909,19,female,2020-10-23_12h45.55.452,torte-q,2020.1.3,Win32,60,13191,0.597965,,,,,,,,,,,,,,,,,,,,,,,,,,,,,,,,,,,,,,,,,,,,
,,,,,,,,,,,,l,Correct!,0,31,31,57,1,t2.png,t4.png,2,0.059078,19,female,2020-10-23_12h45.55.452,torte-q,2020.1.3,Win32,60,13191,0.532485,,,,,,,,,,,,,,,,,,,,,,,,,,,,,,,,,,,,,,,,,,,,
,,,,,,,,,,,,l,Correct!,0,32,32,67,1,t1.png,t5.png,4,9.55E-11,19,female,2020-10-23_12h45.55.452,torte-q,2020.1.3,Win32,60,13191,0.64916,,,,,,,,,,,,,,,,,,,,,,,,,,,,,,,,,,,,,,,,,,,,
,,,,,,,,,,,,l,Correct!,0,33,33,6,1,t1.png,t4.png,3,0.0000131,19,female,2020-10-23_12h45.55.452,torte-q,2020.1.3,Win32,60,13191,0.46253,,,,,,,,,,,,,,,,,,,,,,,,,,,,,,,,,,,,,,,,,,,,
,,,,,,,,,,,,a,Incorrect,0,34,34,103,1,t3.png,t1.png,2,0.056466,19,female,2020-10-23_12h45.55.452,torte-q,2020.1.3,Win32,60,13191,0.47281,,,,,,,,,,,,,,,,,,,,,,,,,,,,,,,,,,,,,,,,,,,,
,,,,,,,,,,,,a,Incorrect,0,35,35,108,1,t5.png,t1.png,4,9.55E-11,19,female,2020-10-23_12h45.55.452,torte-q,2020.1.3,Win32,60,13191,0.468105,,,,,,,,,,,,,,,,,,,,,,,,,,,,,,,,,,,,,,,,,,,,
,,,,,,,,,,,,l,Correct!,0,36,36,30,1,t3.png,t1.png,2,0.056466,19,female,2020-10-23_12h45.55.452,torte-q,2020.1.3,Win32,60,13191,0.864935,,,,,,,,,,,,,,,,,,,,,,,,,,,,,,,,,,,,,,,,,,,,
,,,,,,,,,,,,l,Correct!,0,37,37,88,1,t3.png,t1.png,2,0.056466,19,female,2020-10-23_12h45.55.452,torte-q,2020.1.3,Win32,60,13191,0.559365,,,,,,,,,,,,,,,,,,,,,,,,,,,,,,,,,,,,,,,,,,,,
,,,,,,,,,,,,l,Correct!,0,38,38,40,1,t1.png,t5.png,4,9.55E-11,19,female,2020-10-23_12h45.55.452,torte-q,2020.1.3,Win32,60,13191,0.76511,,,,,,,,,,,,,,,,,,,,,,,,,,,,,,,,,,,,,,,,,,,,
,,,,,,,,,,,,l,Incorrect,0,39,39,97,1,t5.png,t5.png,0,0.97829,19,female,2020-10-23_12h45.55.452,torte-q,2020.1.3,Win32,60,13191,0.507275,,,,,,,,,,,,,,,,,,,,,,,,,,,,,,,,,,,,,,,,,,,,
,,,,,,,,,,,,l,Incorrect,0,40,40,78,1,t1.png,t1.png,0,0.978,19,female,2020-10-23_12h45.55.452,torte-q,2020.1.3,Win32,60,13191,0.484695,,,,,,,,,,,,,,,,,,,,,,,,,,,,,,,,,,,,,,,,,,,,
,,,,,,,,,,,,a,Correct!,0,41,41,71,1,t5.png,t5.png,0,0.97829,19,female,2020-10-23_12h45.55.452,torte-q,2020.1.3,Win32,60,13191,1.428795,,,,,,,,,,,,,,,,,,,,,,,,,,,,,,,,,,,,,,,,,,,,
,,,,,,,,,,,,l,Correct!,0,42,42,68,1,t1.png,t4.png,3,0.0000131,19,female,2020-10-23_12h45.55.452,torte-q,2020.1.3,Win32,60,13191,0.40724,,,,,,,,,,,,,,,,,,,,,,,,,,,,,,,,,,,,,,,,,,,,
,,,,,,,,,,,,a,Correct!,0,43,43,29,1,t5.png,t5.png,0,0.97829,19,female,2020-10-23_12h45.55.452,torte-q,2020.1.3,Win32,60,13191,0.89822,,,,,,,,,,,,,,,,,,,,,,,,,,,,,,,,,,,,,,,,,,,,
,,,,,,,,,,,,l,Incorrect,0,44,44,114,1,t2.png,t3.png,1,0.90855,19,female,2020-10-23_12h45.55.452,torte-q,2020.1.3,Win32,60,13191,0.52021,,,,,,,,,,,,,,,,,,,,,,,,,,,,,,,,,,,,,,,,,,,,
,,,,,,,,,,,,a,Correct!,0,45,45,34,1,t5.png,t4.png,1,0.9,19,female,2020-10-23_12h45.55.452,torte-q,2020.1.3,Win32,60,13191,1.13623,,,,,,,,,,,,,,,,,,,,,,,,,,,,,,,,,,,,,,,,,,,,
,,,,,,,,,,,,a,Correct!,0,46,46,70,1,t5.png,t5.png,0,0.978,19,female,2020-10-23_12h45.55.452,torte-q,2020.1.3,Win32,60,13191,0.44127,,,,,,,,,,,,,,,,,,,,,,,,,,,,,,,,,,,,,,,,,,,,
,,,,,,,,,,,,l,Correct!,0,47,47,1,1,t2.png,t4.png,2,0.059078,19,female,2020-10-23_12h45.55.452,torte-q,2020.1.3,Win32,60,13191,0.49316,,,,,,,,,,,,,,,,,,,,,,,,,,,,,,,,,,,,,,,,,,,,
,,,,,,,,,,,,a,Correct!,0,48,48,22,1,t2.png,t3.png,1,0.90855,19,female,2020-10-23_12h45.55.452,torte-q,2020.1.3,Win32,60,13191,0.67142,,,,,,,,,,,,,,,,,,,,,,,,,,,,,,,,,,,,,,,,,,,,
,,,,,,,,,,,,l,Correct!,0,49,49,37,1,t1.png,t4.png,3,0.0000131,19,female,2020-10-23_12h45.55.452,torte-q,2020.1.3,Win32,60,13191,0.43337,,,,,,,,,,,,,,,,,,,,,,,,,,,,,,,,,,,,,,,,,,,,
,,,,,,,,,,,,a,Correct!,0,50,50,39,1,t3.png,t2.png,1,0.90855,19,female,2020-10-23_12h45.55.452,torte-q,2020.1.3,Win32,60,13191,0.43931,,,,,,,,,,,,,,,,,,,,,,,,,,,,,,,,,,,,,,,,,,,,
,,,,,,,,,,,,l,Incorrect,0,51,51,84,1,t1.png,t1.png,0,0.97829,19,female,2020-10-23_12h45.55.452,torte-q,2020.1.3,Win32,60,13191,0.448745,,,,,,,,,,,,,,,,,,,,,,,,,,,,,,,,,,,,,,,,,,,,
,,,,,,,,,,,,a,Correct!,0,52,52,100,1,t4.png,t5.png,1,0.90025,19,female,2020-10-23_12h45.55.452,torte-q,2020.1.3,Win32,60,13191,0.520545,,,,,,,,,,,,,,,,,,,,,,,,,,,,,,,,,,,,,,,,,,,,
,,,,,,,,,,,,l,Incorrect,0,53,53,101,1,t4.png,t5.png,1,0.90025,19,female,2020-10-23_12h45.55.452,torte-q,2020.1.3,Win32,60,13191,0.148835,,,,,,,,,,,,,,,,,,,,,,,,,,,,,,,,,,,,,,,,,,,,
,,,,,,,,,,,,l,Incorrect,0,54,54,28,1,t2.png,t3.png,1,0.909,19,female,2020-10-23_12h45.55.452,torte-q,2020.1.3,Win32,60,13191,0.514685,,,,,,,,,,,,,,,,,,,,,,,,,,,,,,,,,,,,,,,,,,,,
,,,,,,,,,,,,a,Correct!,0,55,55,23,1,t5.png,t4.png,1,0.90025,19,female,2020-10-23_12h45.55.452,torte-q,2020.1.3,Win32,60,13191,0.471045,,,,,,,,,,,,,,,,,,,,,,,,,,,,,,,,,,,,,,,,,,,,
,,,,,,,,,,,,l,Incorrect,0,56,56,63,1,t2.png,t3.png,1,0.909,19,female,2020-10-23_12h45.55.452,torte-q,2020.1.3,Win32,60,13191,0.7592,,,,,,,,,,,,,,,,,,,,,,,,,,,,,,,,,,,,,,,,,,,,
,,,,,,,,,,,,a,Correct!,0,57,57,15,1,t3.png,t2.png,1,0.90855,19,female,2020-10-23_12h45.55.452,torte-q,2020.1.3,Win32,60,13191,0.490805,,,,,,,,,,,,,,,,,,,,,,,,,,,,,,,,,,,,,,,,,,,,
,,,,,,,,,,,,l,Correct!,0,58,58,3,1,t1.png,t5.png,4,9.55E-11,19,female,2020-10-23_12h45.55.452,torte-q,2020.1.3,Win32,60,13191,0.489445,,,,,,,,,,,,,,,,,,,,,,,,,,,,,,,,,,,,,,,,,,,,
,,,,,,,,,,,,a,Incorrect,0,59,59,72,1,t4.png,t2.png,2,0.059078,19,female,2020-10-23_12h45.55.452,torte-q,2020.1.3,Win32,60,13191,0.46404,,,,,,,,,,,,,,,,,,,,,,,,,,,,,,,,,,,,,,,,,,,,
,,,,,,,,,,,,a,Incorrect,0,60,60,94,1,t5.png,t1.png,4,9.55E-11,19,female,2020-10-23_12h45.55.452,torte-q,2020.1.3,Win32,60,13191,0.492105,,,,,,,,,,,,,,,,,,,,,,,,,,,,,,,,,,,,,,,,,,,,
,,,,,,,,,,,,l,Correct!,0,61,61,27,1,t3.png,t1.png,2,0.0565,19,female,2020-10-23_12h45.55.452,torte-q,2020.1.3,Win32,60,13191,0.331905,,,,,,,,,,,,,,,,,,,,,,,,,,,,,,,,,,,,,,,,,,,,
,,,,,,,,,,,,a,Incorrect,0,62,62,38,1,t3.png,t1.png,2,0.056466,19,female,2020-10-23_12h45.55.452,torte-q,2020.1.3,Win32,60,13191,0.43871,,,,,,,,,,,,,,,,,,,,,,,,,,,,,,,,,,,,,,,,,,,,
,,,,,,,,,,,,a,Correct!,0,63,63,32,1,t4.png,t5.png,1,0.90025,19,female,2020-10-23_12h45.55.452,torte-q,2020.1.3,Win32,60,13191,0.449365,,,,,,,,,,,,,,,,,,,,,,,,,,,,,,,,,,,,,,,,,,,,
,,,,,,,,,,,,a,Correct!,0,64,64,58,1,t5.png,t4.png,1,0.90025,19,female,2020-10-23_12h45.55.452,torte-q,2020.1.3,Win32,60,13191,0.46048,,,,,,,,,,,,,,,,,,,,,,,,,,,,,,,,,,,,,,,,,,,,
,,,,,,,,,,,,a,Correct!,0,65,65,13,1,t5.png,t5.png,0,0.97829,19,female,2020-10-23_12h45.55.452,torte-q,2020.1.3,Win32,60,13191,0.347955,,,,,,,,,,,,,,,,,,,,,,,,,,,,,,,,,,,,,,,,,,,,
,,,,,,,,,,,,a,Correct!,0,66,66,59,1,t5.png,t4.png,1,0.9,19,female,2020-10-23_12h45.55.452,torte-q,2020.1.3,Win32,60,13191,0.39062,,,,,,,,,,,,,,,,,,,,,,,,,,,,,,,,,,,,,,,,,,,,
,,,,,,,,,,,,a,Correct!,0,67,67,42,1,t5.png,t4.png,1,0.90025,19,female,2020-10-23_12h45.55.452,torte-q,2020.1.3,Win32,60,13191,0.286165,,,,,,,,,,,,,,,,,,,,,,,,,,,,,,,,,,,,,,,,,,,,
,,,,,,,,,,,,a,Correct!,0,68,68,79,1,t3.png,t2.png,1,0.909,19,female,2020-10-23_12h45.55.452,torte-q,2020.1.3,Win32,60,13191,0.5592,,,,,,,,,,,,,,,,,,,,,,,,,,,,,,,,,,,,,,,,,,,,
,,,,,,,,,,,,l,Correct!,0,69,69,4,1,t1.png,t5.png,4,9.55E-11,19,female,2020-10-23_12h45.55.452,torte-q,2020.1.3,Win32,60,13191,0.71527,,,,,,,,,,,,,,,,,,,,,,,,,,,,,,,,,,,,,,,,,,,,
,,,,,,,,,,,,a,Incorrect,0,70,70,46,1,t4.png,t2.png,2,0.059078,19,female,2020-10-23_12h45.55.452,torte-q,2020.1.3,Win32,60,13191,0.39864,,,,,,,,,,,,,,,,,,,,,,,,,,,,,,,,,,,,,,,,,,,,
,,,,,,,,,,,,a,Correct!,0,71,71,7,1,t4.png,t5.png,1,0.90025,19,female,2020-10-23_12h45.55.452,torte-q,2020.1.3,Win32,60,13191,0.47456,,,,,,,,,,,,,,,,,,,,,,,,,,,,,,,,,,,,,,,,,,,,
,,,,,,,,,,,,l,Incorrect,0,72,72,65,1,t4.png,t5.png,1,0.90025,19,female,2020-10-23_12h45.55.452,torte-q,2020.1.3,Win32,60,13191,0.516115,,,,,,,,,,,,,,,,,,,,,,,,,,,,,,,,,,,,,,,,,,,,
,,,,,,,,,,,,l,Correct!,0,73,73,31,1,t1.png,t5.png,4,9.55E-11,19,female,2020-10-23_12h45.55.452,torte-q,2020.1.3,Win32,60,13191,0.538655,,,,,,,,,,,,,,,,,,,,,,,,,,,,,,,,,,,,,,,,,,,,
,,,,,,,,,,,,a,Correct!,0,74,74,105,1,t3.png,t2.png,1,0.90855,19,female,2020-10-23_12h45.55.452,torte-q,2020.1.3,Win32,60,13191,0.559935,,,,,,,,,,,,,,,,,,,,,,,,,,,,,,,,,,,,,,,,,,,,
,,,,,,,,,,,,l,Correct!,0,75,75,5,1,t2.png,t4.png,2,0.059078,19,female,2020-10-23_12h45.55.452,torte-q,2020.1.3,Win32,60,13191,0.48247,,,,,,,,,,,,,,,,,,,,,,,,,,,,,,,,,,,,,,,,,,,,
,,,,,,,,,,,,l,Incorrect,0,76,76,77,1,t1.png,t1.png,0,0.97829,19,female,2020-10-23_12h45.55.452,torte-q,2020.1.3,Win32,60,13191,0.39738,,,,,,,,,,,,,,,,,,,,,,,,,,,,,,,,,,,,,,,,,,,,
,,,,,,,,,,,,l,Incorrect,0,77,77,64,1,t1.png,t1.png,0,0.978,19,female,2020-10-23_12h45.55.452,torte-q,2020.1.3,Win32,60,13191,0.44804,,,,,,,,,,,,,,,,,,,,,,,,,,,,,,,,,,,,,,,,,,,,
,,,,,,,,,,,,l,Correct!,0,78,78,53,1,t3.png,t1.png,2,0.056466,19,female,2020-10-23_12h45.55.452,torte-q,2020.1.3,Win32,60,13191,0.26879,,,,,,,,,,,,,,,,,,,,,,,,,,,,,,,,,,,,,,,,,,,,
,,,,,,,,,,,,l,Incorrect,0,79,79,18,1,t4.png,t5.png,1,0.90025,19,female,2020-10-23_12h45.55.452,torte-q,2020.1.3,Win32,60,13191,0.34499,,,,,,,,,,,,,,,,,,,,,,,,,,,,,,,,,,,,,,,,,,,,
,,,,,,,,,,,,a,Incorrect,0,80,80,50,1,t5.png,t1.png,4,9.55E-11,19,female,2020-10-23_12h45.55.452,torte-q,2020.1.3,Win32,60,13191,0.49078,,,,,,,,,,,,,,,,,,,,,,,,,,,,,,,,,,,,,,,,,,,,
,,,,,,,,,,,,a,Incorrect,0,81,81,61,1,t1.png,t4.png,3,0.0000131,19,female,2020-10-23_12h45.55.452,torte-q,2020.1.3,Win32,60,13191,0.37108,,,,,,,,,,,,,,,,,,,,,,,,,,,,,,,,,,,,,,,,,,,,
,,,,,,,,,,,,l,Incorrect,0,82,82,106,1,t2.png,t3.png,1,0.90855,19,female,2020-10-23_12h45.55.452,torte-q,2020.1.3,Win32,60,13191,0.533255,,,,,,,,,,,,,,,,,,,,,,,,,,,,,,,,,,,,,,,,,,,,
,,,,,,,,,,,,l,Incorrect,0,83,83,2,1,t3.png,t2.png,1,0.90855,19,female,2020-10-23_12h45.55.452,torte-q,2020.1.3,Win32,60,13191,0.33208,,,,,,,,,,,,,,,,,,,,,,,,,,,,,,,,,,,,,,,,,,,,
,,,,,,,,,,,,a,Incorrect,0,84,84,33,1,t5.png,t1.png,4,9.55E-11,19,female,2020-10-23_12h45.55.452,torte-q,2020.1.3,Win32,60,13191,0.381105,,,,,,,,,,,,,,,,,,,,,,,,,,,,,,,,,,,,,,,,,,,,
,,,,,,,,,,,,a,Incorrect,0,85,85,86,1,t3.png,t1.png,2,0.056466,19,female,2020-10-23_12h45.55.452,torte-q,2020.1.3,Win32,60,13191,0.50602,,,,,,,,,,,,,,,,,,,,,,,,,,,,,,,,,,,,,,,,,,,,
,,,,,,,,,,,,a,Incorrect,0,86,86,102,1,t4.png,t2.png,2,0.059078,19,female,2020-10-23_12h45.55.452,torte-q,2020.1.3,Win32,60,13191,0.4976,,,,,,,,,,,,,,,,,,,,,,,,,,,,,,,,,,,,,,,,,,,,
,,,,,,,,,,,,l,Incorrect,0,87,87,81,1,t1.png,t1.png,0,0.97829,19,female,2020-10-23_12h45.55.452,torte-q,2020.1.3,Win32,60,13191,0.33093,,,,,,,,,,,,,,,,,,,,,,,,,,,,,,,,,,,,,,,,,,,,
,,,,,,,,,,,,a,Incorrect,0,88,88,113,1,t5.png,t4.png,1,0.9,19,female,2020-10-23_12h45.55.452,torte-q,2020.1.3,Win32,60,13191,0.248545,,,,,,,,,,,,,,,,,,,,,,,,,,,,,,,,,,,,,,,,,,,,
,,,,,,,,,,,,a,Correct!,0,89,89,41,1,t3.png,t2.png,1,0.90855,19,female,2020-10-23_12h45.55.452,torte-q,2020.1.3,Win32,60,13191,2.102265,,,,,,,,,,,,,,,,,,,,,,,,,,,,,,,,,,,,,,,,,,,,
,,,,,,,,,,,,l,Correct!,0,90,90,55,1,t2.png,t4.png,2,0.059078,19,female,2020-10-23_12h45.55.452,torte-q,2020.1.3,Win32,60,13191,1.433615,,,,,,,,,,,,,,,,,,,,,,,,,,,,,,,,,,,,,,,,,,,,
,,,,,,,,,,,,l,Correct!,0,91,91,111,1,t5.png,t1.png,4,9.55E-11,19,female,2020-10-23_12h45.55.452,torte-q,2020.1.3,Win32,60,13191,0.991115,,,,,,,,,,,,,,,,,,,,,,,,,,,,,,,,,,,,,,,,,,,,
,,,,,,,,,,,,a,Correct!,0,92,92,8,1,t3.png,t2.png,1,0.90855,19,female,2020-10-23_12h45.55.452,torte-q,2020.1.3,Win32,60,13191,1.32356,,,,,,,,,,,,,,,,,,,,,,,,,,,,,,,,,,,,,,,,,,,,
,,,,,,,,,,,,l,Correct!,0,93,93,83,1,t3.png,t1.png,2,0.056466,19,female,2020-10-23_12h45.55.452,torte-q,2020.1.3,Win32,60,13191,0.94801,,,,,,,,,,,,,,,,,,,,,,,,,,,,,,,,,,,,,,,,,,,,
,,,,,,,,,,,,a,Correct!,0,94,94,21,1,t5.png,t4.png,1,0.90025,19,female,2020-10-23_12h45.55.452,torte-q,2020.1.3,Win32,60,13191,1.781705,,,,,,,,,,,,,,,,,,,,,,,,,,,,,,,,,,,,,,,,,,,,
,,,,,,,,,,,,l,Correct!,0,95,95,36,1,t3.png,t1.png,2,0.0565,19,female,2020-10-23_12h45.55.452,torte-q,2020.1.3,Win32,60,13191,0.714265,,,,,,,,,,,,,,,,,,,,,,,,,,,,,,,,,,,,,,,,,,,,
,,,,,,,,,,,,a,Correct!,0,96,96,109,1,t5.png,t5.png,0,0.97829,19,female,2020-10-23_12h45.55.452,torte-q,2020.1.3,Win32,60,13191,0.96893,,,,,,,,,,,,,,,,,,,,,,,,,,,,,,,,,,,,,,,,,,,,
,,,,,,,,,,,,l,Correct!,0,97,97,82,1,t5.png,t1.png,4,9.55E-11,19,female,2020-10-23_12h45.55.452,torte-q,2020.1.3,Win32,60,13191,0.83596,,,,,,,,,,,,,,,,,,,,,,,,,,,,,,,,,,,,,,,,,,,,
,,,,,,,,,,,,a,Incorrect,0,98,98,119,1,t1.png,t5.png,4,9.55E-11,19,female,2020-10-23_12h45.55.452,torte-q,2020.1.3,Win32,60,13191,0.98375,,,,,,,,,,,,,,,,,,,,,,,,,,,,,,,,,,,,,,,,,,,,
,,,,,,,,,,,,l,Incorrect,0,99,99,76,1,t3.png,t2.png,1,0.90855,19,female,2020-10-23_12h45.55.452,torte-q,2020.1.3,Win32,60,13191,0.549775,,,,,,,,,,,,,,,,,,,,,,,,,,,,,,,,,,,,,,,,,,,,
,,,,,,,,,,,,a,Incorrect,0,100,100,89,1,t1.png,t4.png,3,0.0000131,19,female,2020-10-23_12h45.55.452,torte-q,2020.1.3,Win32,60,13191,0.341465,,,,,,,,,,,,,,,,,,,,,,,,,,,,,,,,,,,,,,,,,,,,
,,,,,,,,,,,,l,Correct!,0,101,101,12,1,t5.png,t1.png,4,9.55E-11,19,female,2020-10-23_12h45.55.452,torte-q,2020.1.3,Win32,60,13191,0.16522,,,,,,,,,,,,,,,,,,,,,,,,,,,,,,,,,,,,,,,,,,,,
,,,,,,,,,,,,a,Incorrect,0,102,102,51,1,t3.png,t1.png,2,0.056466,19,female,2020-10-23_12h45.55.452,torte-q,2020.1.3,Win32,60,13191,0.371755,,,,,,,,,,,,,,,,,,,,,,,,,,,,,,,,,,,,,,,,,,,,
,,,,,,,,,,,,l,Correct!,0,103,103,19,1,t4.png,t2.png,2,0.059078,19,female,2020-10-23_12h45.55.452,torte-q,2020.1.3,Win32,60,13191,0.27129,,,,,,,,,,,,,,,,,,,,,,,,,,,,,,,,,,,,,,,,,,,,
,,,,,,,,,,,,a,Correct!,0,104,104,62,1,t5.png,t5.png,0,0.978,19,female,2020-10-23_12h45.55.452,torte-q,2020.1.3,Win32,60,13191,0.42235,,,,,,,,,,,,,,,,,,,,,,,,,,,,,,,,,,,,,,,,,,,,
,,,,,,,,,,,,a,Incorrect,0,105,105,73,1,t4.png,t2.png,2,0.059078,19,female,2020-10-23_12h45.55.452,torte-q,2020.1.3,Win32,60,13191,0.348435,,,,,,,,,,,,,,,,,,,,,,,,,,,,,,,,,,,,,,,,,,,,
,,,,,,,,,,,,l,Correct!,0,106,106,115,1,t2.png,t4.png,2,0.059078,19,female,2020-10-23_12h45.55.452,torte-q,2020.1.3,Win32,60,13191,0.338905,,,,,,,,,,,,,,,,,,,,,,,,,,,,,,,,,,,,,,,,,,,,
,,,,,,,,,,,,l,Incorrect,0,107,107,107,1,t1.png,t1.png,0,0.978,19,female,2020-10-23_12h45.55.452,torte-q,2020.1.3,Win32,60,13191,0.109725,,,,,,,,,,,,,,,,,,,,,,,,,,,,,,,,,,,,,,,,,,,,
,,,,,,,,,,,,a,Correct!,0,108,108,74,1,t5.png,t4.png,1,0.9,19,female,2020-10-23_12h45.55.452,torte-q,2020.1.3,Win32,60,13191,0.20066,,,,,,,,,,,,,,,,,,,,,,,,,,,,,,,,,,,,,,,,,,,,
,,,,,,,,,,,,a,Incorrect,0,109,109,91,1,t1.png,t4.png,3,0.0000131,19,female,2020-10-23_12h45.55.452,torte-q,2020.1.3,Win32,60,13191,0.28125,,,,,,,,,,,,,,,,,,,,,,,,,,,,,,,,,,,,,,,,,,,,
,,,,,,,,,,,,l,Incorrect,0,110,110,96,1,t1.png,t1.png,0,0.97829,19,female,2020-10-23_12h45.55.452,torte-q,2020.1.3,Win32,60,13191,0.35449,,,,,,,,,,,,,,,,,,,,,,,,,,,,,,,,,,,,,,,,,,,,
,,,,,,,,,,,,a,Correct!,0,111,111,118,1,t5.png,t5.png,0,0.978,19,female,2020-10-23_12h45.55.452,torte-q,2020.1.3,Win32,60,13191,0.391695,,,,,,,,,,,,,,,,,,,,,,,,,,,,,,,,,,,,,,,,,,,,
,,,,,,,,,,,,a,Incorrect,0,112,112,117,1,t1.png,t5.png,4,9.55E-11,19,female,2020-10-23_12h45.55.452,torte-q,2020.1.3,Win32,60,13191,0.29728,,,,,,,,,,,,,,,,,,,,,,,,,,,,,,,,,,,,,,,,,,,,
,,,,,,,,,,,,l,Correct!,0,113,113,52,1,t2.png,t4.png,2,0.059078,19,female,2020-10-23_12h45.55.452,torte-q,2020.1.3,Win32,60,13191,0.097695,,,,,,,,,,,,,,,,,,,,,,,,,,,,,,,,,,,,,,,,,,,,
,,,,,,,,,,,,l,Incorrect,0,114,114,104,1,t2.png,t3.png,1,0.90855,19,female,2020-10-23_12h45.55.452,torte-q,2020.1.3,Win32,60,13191,0.25569,,,,,,,,,,,,,,,,,,,,,,,,,,,,,,,,,,,,,,,,,,,,
,,,,,,,,,,,,l,Correct!,0,115,115,11,1,t1.png,t4.png,3,0.0000131,19,female,2020-10-23_12h45.55.452,torte-q,2020.1.3,Win32,60,13191,0.252615,,,,,,,,,,,,,,,,,,,,,,,,,,,,,,,,,,,,,,,,,,,,
,,,,,,,,,,,,l,Correct!,0,116,116,17,1,t1.png,t4.png,3,0.0000131,19,female,2020-10-23_12h45.55.452,torte-q,2020.1.3,Win32,60,13191,0.30663,,,,,,,,,,,,,,,,,,,,,,,,,,,,,,,,,,,,,,,,,,,,
,,,,,,,,,,,,a,Incorrect,0,117,117,0,1,t5.png,t1.png,4,9.55E-11,19,female,2020-10-23_12h45.55.452,torte-q,2020.1.3,Win32,60,13191,0.4649,,,,,,,,,,,,,,,,,,,,,,,,,,,,,,,,,,,,,,,,,,,,
,,,,,,,,,,,,l,Incorrect,0,118,118,24,1,t4.png,t2.png,2,0.059078,19,female,2020-10-23_12h45.55.452,torte-q,2020.1.3,Win32,60,13191,0.30115,,,,,,,,,,,,,,,,,,,,,,,,,,,,,,,,,,,,,,,,,,,,
,,,,,,,,,,,,a,Correct!,0,119,119,85,1,t3.png,t2.png,1,0.90855,19,female,2020-10-23_12h45.55.452,torte-q,2020.1.3,Win32,60,13191,0.470755,,,,,,,,,,,,,,,,,,,,,,,,,,,,,,,,,,,,,,,,,,,,
,,,,,,,,,,,,l,Correct!,,,,,,t2.png,t4.png,2,0.059078,19,female,2020-10-23_12h45.55.452,torte-q,2020.1.3,Win32,60,13191,0.77893,space,2.172205,space,13.123645,0,0,0,24,1,,,,,,,,,,,,,,,,,,,,,,,,,,,,,,,,,,,
,,,,,,,,,,,,l,Incorrect,,,,,,t1.png,t1.png,0,0.97829,19,female,2020-10-23_12h45.55.452,torte-q,2020.1.3,Win32,60,13191,0.90045,,,,,0,1,1,67,1,,,,,,,,,,,,,,,,,,,,,,,,,,,,,,,,,,,
,,,,,,,,,,,,a,Incorrect,,,,,,t4.png,t2.png,2,0.059078,19,female,2020-10-23_12h45.55.452,torte-q,2020.1.3,Win32,60,13191,0.61751,,,,,0,2,2,86,1,,,,,,,,,,,,,,,,,,,,,,,,,,,,,,,,,,,
,,,,,,,,,,,,l,Correct!,,,,,,t1.png,t5.png,4,9.55E-11,19,female,2020-10-23_12h45.55.452,torte-q,2020.1.3,Win32,60,13191,0.38386,,,,,0,3,3,16,1,,,,,,,,,,,,,,,,,,,,,,,,,,,,,,,,,,,
,,,,,,,,,,,,a,Correct!,,,,,,t2.png,t1.png,1,0.90025,19,female,2020-10-23_12h45.55.452,torte-q,2020.1.3,Win32,60,13191,0.492545,,,,,0,4,4,4,1,,,,,,,,,,,,,,,,,,,,,,,,,,,,,,,,,,,
,,,,,,,,,,,,l,Correct!,,,,,,t1.png,t3.png,2,0.056466,19,female,2020-10-23_12h45.55.452,torte-q,2020.1.3,Win32,60,13191,0.36174,,,,,0,5,5,87,1,,,,,,,,,,,,,,,,,,,,,,,,,,,,,,,,,,,
,,,,,,,,,,,,l,Incorrect,,,,,,t2.png,t3.png,1,0.90855,19,female,2020-10-23_12h45.55.452,torte-q,2020.1.3,Win32,60,13191,0.55689,,,,,0,6,6,65,1,,,,,,,,,,,,,,,,,,,,,,,,,,,,,,,,,,,
,,,,,,,,,,,,l,Correct!,,,,,,t1.png,t5.png,4,9.55E-11,19,female,2020-10-23_12h45.55.452,torte-q,2020.1.3,Win32,60,13191,0.351205,,,,,0,7,7,55,1,,,,,,,,,,,,,,,,,,,,,,,,,,,,,,,,,,,
,,,,,,,,,,,,l,Correct!,,,,,,t3.png,t5.png,2,0.0565,19,female,2020-10-23_12h45.55.452,torte-q,2020.1.3,Win32,60,13191,0.37456,,,,,0,8,8,30,1,,,,,,,,,,,,,,,,,,,,,,,,,,,,,,,,,,,
,,,,,,,,,,,,l,Incorrect,,,,,,t1.png,t2.png,1,0.90025,19,female,2020-10-23_12h45.55.452,torte-q,2020.1.3,Win32,60,13191,0.412535,,,,,0,9,9,112,1,,,,,,,,,,,,,,,,,,,,,,,,,,,,,,,,,,,
,,,,,,,,,,,,a,Incorrect,,,,,,t5.png,t1.png,4,9.55E-11,19,female,2020-10-23_12h45.55.452,torte-q,2020.1.3,Win32,60,13191,0.336475,,,,,0,10,10,71,1,,,,,,,,,,,,,,,,,,,,,,,,,,,,,,,,,,,
,,,,,,,,,,,,l,Incorrect,,,,,,t3.png,t4.png,1,0.90855,19,female,2020-10-23_12h45.55.452,torte-q,2020.1.3,Win32,60,13191,0.47566,,,,,0,11,11,96,1,,,,,,,,,,,,,,,,,,,,,,,,,,,,,,,,,,,
,,,,,,,,,,,,l,Correct!,,,,,,t2.png,t4.png,2,0.059078,19,female,2020-10-23_12h45.55.452,torte-q,2020.1.3,Win32,60,13191,0.41783,,,,,0,12,12,11,1,,,,,,,,,,,,,,,,,,,,,,,,,,,,,,,,,,,
,,,,,,,,,,,,a,Incorrect,,,,,,t4.png,t1.png,3,0.0000131,19,female,2020-10-23_12h45.55.452,torte-q,2020.1.3,Win32,60,13191,0.37843,,,,,0,13,13,61,1,,,,,,,,,,,,,,,,,,,,,,,,,,,,,,,,,,,
,,,,,,,,,,,,a,Correct!,,,,,,t5.png,t5.png,0,0.97829,19,female,2020-10-23_12h45.55.452,torte-q,2020.1.3,Win32,60,13191,0.44451,,,,,0,14,14,94,1,,,,,,,,,,,,,,,,,,,,,,,,,,,,,,,,,,,
,,,,,,,,,,,,l,Correct!,,,,,,t1.png,t3.png,2,0.056466,19,female,2020-10-23_12h45.55.452,torte-q,2020.1.3,Win32,60,13191,0.43848,,,,,0,15,15,69,1,,,,,,,,,,,,,,,,,,,,,,,,,,,,,,,,,,,
,,,,,,,,,,,,l,Correct!,,,,,,t2.png,t5.png,3,0.0000131,19,female,2020-10-23_12h45.55.452,torte-q,2020.1.3,Win32,60,13191,0.436065,,,,,0,16,16,8,1,,,,,,,,,,,,,,,,,,,,,,,,,,,,,,,,,,,
,,,,,,,,,,,,l,Incorrect,,,,,,t2.png,t3.png,1,0.909,19,female,2020-10-23_12h45.55.452,torte-q,2020.1.3,Win32,60,13191,0.49597,,,,,0,17,17,74,1,,,,,,,,,,,,,,,,,,,,,,,,,,,,,,,,,,,
,,,,,,,,,,,,a,Incorrect,,,,,,t5.png,t1.png,4,9.55E-11,19,female,2020-10-23_12h45.55.452,torte-q,2020.1.3,Win32,60,13191,0.484515,,,,,0,18,18,102,1,,,,,,,,,,,,,,,,,,,,,,,,,,,,,,,,,,,
,,,,,,,,,,,,a,Incorrect,,,,,,t4.png,t2.png,2,0.059078,19,female,2020-10-23_12h45.55.452,torte-q,2020.1.3,Win32,60,13191,0.39042,,,,,0,19,19,109,1,,,,,,,,,,,,,,,,,,,,,,,,,,,,,,,,,,,
,,,,,,,,,,,,l,Correct!,,,,,,t1.png,t4.png,3,0.0000131,19,female,2020-10-23_12h45.55.452,torte-q,2020.1.3,Win32,60,13191,0.383775,,,,,0,20,20,17,1,,,,,,,,,,,,,,,,,,,,,,,,,,,,,,,,,,,
,,,,,,,,,,,,l,Correct!,,,,,,t1.png,t4.png,3,0.0000131,19,female,2020-10-23_12h45.55.452,torte-q,2020.1.3,Win32,60,13191,0.393355,,,,,0,21,21,81,1,,,,,,,,,,,,,,,,,,,,,,,,,,,,,,,,,,,
,,,,,,,,,,,,l,Correct!,,,,,,t1.png,t5.png,4,9.55E-11,19,female,2020-10-23_12h45.55.452,torte-q,2020.1.3,Win32,60,13191,0.37052,,,,,0,22,22,12,1,,,,,,,,,,,,,,,,,,,,,,,,,,,,,,,,,,,
,,,,,,,,,,,,l,Incorrect,,,,,,t2.png,t3.png,1,0.90855,19,female,2020-10-23_12h45.55.452,torte-q,2020.1.3,Win32,60,13191,0.54147,,,,,0,23,23,10,1,,,,,,,,,,,,,,,,,,,,,,,,,,,,,,,,,,,
,,,,,,,,,,,,l,Correct!,,,,,,t2.png,t5.png,3,0.0000131,19,female,2020-10-23_12h45.55.452,torte-q,2020.1.3,Win32,60,13191,0.444175,,,,,0,24,24,66,1,,,,,,,,,,,,,,,,,,,,,,,,,,,,,,,,,,,
,,,,,,,,,,,,a,Correct!,,,,,,t5.png,t5.png,0,0.978,19,female,2020-10-23_12h45.55.452,torte-q,2020.1.3,Win32,60,13191,0.47962,,,,,0,25,25,117,1,,,,,,,,,,,,,,,,,,,,,,,,,,,,,,,,,,,
,,,,,,,,,,,,l,Incorrect,,,,,,t1.png,t1.png,0,0.97829,19,female,2020-10-23_12h45.55.452,torte-q,2020.1.3,Win32,60,13191,0.389915,,,,,0,26,26,9,1,,,,,,,,,,,,,,,,,,,,,,,,,,,,,,,,,,,
,,,,,,,,,,,,a,Correct!,,,,,,t4.png,t2.png,2,0.059078,19,female,2020-10-23_12h45.55.452,torte-q,2020.1.3,Win32,60,13191,0.306925,,,,,0,27,27,88,1,,,,,,,,,,,,,,,,,,,,,,,,,,,,,,,,,,,
,,,,,,,,,,,,l,Incorrect,,,,,,t4.png,t4.png,0,0.98115,19,female,2020-10-23_12h45.55.452,torte-q,2020.1.3,Win32,60,13191,0.395895,,,,,0,28,28,90,1,,,,,,,,,,,,,,,,,,,,,,,,,,,,,,,,,,,
,,,,,,,,,,,,l,Correct!,,,,,,t2.png,t5.png,3,0.0000131,19,female,2020-10-23_12h45.55.452,torte-q,2020.1.3,Win32,60,13191,0.566715,,,,,0,29,29,95,1,,,,,,,,,,,,,,,,,,,,,,,,,,,,,,,,,,,
,,,,,,,,,,,,l,Incorrect,,,,,,t3.png,t4.png,1,0.909,19,female,2020-10-23_12h45.55.452,torte-q,2020.1.3,Win32,60,13191,0.47426,,,,,0,30,30,106,1,,,,,,,,,,,,,,,,,,,,,,,,,,,,,,,,,,,
,,,,,,,,,,,,l,Correct!,,,,,,t2.png,t4.png,2,0.0591,19,female,2020-10-23_12h45.55.452,torte-q,2020.1.3,Win32,60,13191,0.403,,,,,0,31,31,15,1,,,,,,,,,,,,,,,,,,,,,,,,,,,,,,,,,,,
,,,,,,,,,,,,a,Incorrect,,,,,,t4.png,t1.png,3,0.0000131,19,female,2020-10-23_12h45.55.452,torte-q,2020.1.3,Win32,60,13191,0.55604,,,,,0,32,32,42,1,,,,,,,,,,,,,,,,,,,,,,,,,,,,,,,,,,,
,,,,,,,,,,,,l,Correct!,,,,,,t5.png,t1.png,4,9.55E-11,19,female,2020-10-23_12h45.55.452,torte-q,2020.1.3,Win32,60,13191,0.54185,,,,,0,33,33,100,1,,,,,,,,,,,,,,,,,,,,,,,,,,,,,,,,,,,
,,,,,,,,,,,,l,Incorrect,,,,,,t2.png,t2.png,0,0.98115,19,female,2020-10-23_12h45.55.452,torte-q,2020.1.3,Win32,60,13191,0.40122,,,,,0,34,34,59,1,,,,,,,,,,,,,,,,,,,,,,,,,,,,,,,,,,,
,,,,,,,,,,,,a,Correct!,,,,,,t4.png,t3.png,1,0.90855,19,female,2020-10-23_12h45.55.452,torte-q,2020.1.3,Win32,60,13191,0.37366,,,,,0,35,35,75,1,,,,,,,,,,,,,,,,,,,,,,,,,,,,,,,,,,,
,,,,,,,,,,,,a,Correct!,,,,,,t2.png,t1.png,1,0.90025,19,female,2020-10-23_12h45.55.452,torte-q,2020.1.3,Win32,60,13191,0.590295,,,,,0,36,36,62,1,,,,,,,,,,,,,,,,,,,,,,,,,,,,,,,,,,,
,,,,,,,,,,,,l,Incorrect,,,,,,t2.png,t3.png,1,0.90855,19,female,2020-10-23_12h45.55.452,torte-q,2020.1.3,Win32,60,13191,0.5439,,,,,0,37,37,111,1,,,,,,,,,,,,,,,,,,,,,,,,,,,,,,,,,,,
,,,,,,,,,,,,a,Incorrect,,,,,,t4.png,t2.png,2,0.0591,19,female,2020-10-23_12h45.55.452,torte-q,2020.1.3,Win32,60,13191,0.38566,,,,,0,38,38,36,1,,,,,,,,,,,,,,,,,,,,,,,,,,,,,,,,,,,
,,,,,,,,,,,,a,Incorrect,,,,,,t5.png,t3.png,2,0.0565,19,female,2020-10-23_12h45.55.452,torte-q,2020.1.3,Win32,60,13191,0.55268,,,,,0,39,39,39,1,,,,,,,,,,,,,,,,,,,,,,,,,,,,,,,,,,,
,,,,,,,,,,,,a,Incorrect,,,,,,t3.png,t1.png,2,0.056466,19,female,2020-10-23_12h45.55.452,torte-q,2020.1.3,Win32,60,13191,0.44062,,,,,0,40,40,0,1,,,,,,,,,,,,,,,,,,,,,,,,,,,,,,,,,,,
,,,,,,,,,,,,a,Correct!,,,,,,t5.png,t5.png,0,0.97829,19,female,2020-10-23_12h45.55.452,torte-q,2020.1.3,Win32,60,13191,0.37009,,,,,0,41,41,25,1,,,,,,,,,,,,,,,,,,,,,,,,,,,,,,,,,,,
,,,,,,,,,,,,a,Correct!,,,,,,t2.png,t1.png,1,0.90025,19,female,2020-10-23_12h45.55.452,torte-q,2020.1.3,Win32,60,13191,0.6861,,,,,0,42,42,19,1,,,,,,,,,,,,,,,,,,,,,,,,,,,,,,,,,,,
,,,,,,,,,,,,a,Incorrect,,,,,,t5.png,t3.png,2,0.056466,19,female,2020-10-23_12h45.55.452,torte-q,2020.1.3,Win32,60,13191,0.37352,,,,,0,43,43,56,1,,,,,,,,,,,,,,,,,,,,,,,,,,,,,,,,,,,
,,,,,,,,,,,,a,Incorrect,,,,,,t5.png,t1.png,4,9.55E-11,19,female,2020-10-23_12h45.55.452,torte-q,2020.1.3,Win32,60,13191,0.34235,,,,,0,44,44,43,1,,,,,,,,,,,,,,,,,,,,,,,,,,,,,,,,,,,
,,,,,,,,,,,,a,Correct!,,,,,,t2.png,t2.png,0,0.981,19,female,2020-10-23_12h45.55.452,torte-q,2020.1.3,Win32,60,13191,0.276375,,,,,0,45,45,101,1,,,,,,,,,,,,,,,,,,,,,,,,,,,,,,,,,,,
,,,,,,,,,,,,a,Correct!,,,,,,t4.png,t4.png,0,0.98115,19,female,2020-10-23_12h45.55.452,torte-q,2020.1.3,Win32,60,13191,0.36983,,,,,0,46,46,80,1,,,,,,,,,,,,,,,,,,,,,,,,,,,,,,,,,,,
,,,,,,,,,,,,a,Correct!,,,,,,t5.png,t5.png,0,0.97829,19,female,2020-10-23_12h45.55.452,torte-q,2020.1.3,Win32,60,13191,0.46093,,,,,0,47,47,73,1,,,,,,,,,,,,,,,,,,,,,,,,,,,,,,,,,,,
,,,,,,,,,,,,l,Correct!,,,,,,t5.png,t1.png,4,9.55E-11,19,female,2020-10-23_12h45.55.452,torte-q,2020.1.3,Win32,60,13191,0.651135,,,,,0,48,48,22,1,,,,,,,,,,,,,,,,,,,,,,,,,,,,,,,,,,,
,,,,,,,,,,,,l,Incorrect,,,,,,t2.png,t2.png,0,0.98115,19,female,2020-10-23_12h45.55.452,torte-q,2020.1.3,Win32,60,13191,0.746245,,,,,0,49,49,7,1,,,,,,,,,,,,,,,,,,,,,,,,,,,,,,,,,,,
,,,,,,,,,,,,a,Incorrect,,,,,,t3.png,t1.png,2,0.0565,19,female,2020-10-23_12h45.55.452,torte-q,2020.1.3,Win32,60,13191,0.525585,,,,,0,50,50,31,1,,,,,,,,,,,,,,,,,,,,,,,,,,,,,,,,,,,
,,,,,,,,,,,,a,Incorrect,,,,,,t5.png,t2.png,3,0.0000131,19,female,2020-10-23_12h45.55.452,torte-q,2020.1.3,Win32,60,13191,0.450635,,,,,0,51,51,51,1,,,,,,,,,,,,,,,,,,,,,,,,,,,,,,,,,,,
,,,,,,,,,,,,a,Correct!,,,,,,t2.png,t1.png,1,0.9,19,female,2020-10-23_12h45.55.452,torte-q,2020.1.3,Win32,60,13191,0.44251,,,,,0,52,52,118,1,,,,,,,,,,,,,,,,,,,,,,,,,,,,,,,,,,,
,,,,,,,,,,,,a,Incorrect,,,,,,t4.png,t1.png,3,0.0000131,19,female,2020-10-23_12h45.55.452,torte-q,2020.1.3,Win32,60,13191,0.40249,,,,,0,53,53,48,1,,,,,,,,,,,,,,,,,,,,,,,,,,,,,,,,,,,
,,,,,,,,,,,,a,Correct!,,,,,,t4.png,t4.png,0,0.98115,19,female,2020-10-23_12h45.55.452,torte-q,2020.1.3,Win32,60,13191,0.390975,,,,,0,54,54,79,1,,,,,,,,,,,,,,,,,,,,,,,,,,,,,,,,,,,
,,,,,,,,,,,,a,Correct!,,,,,,t5.png,t4.png,1,0.90025,19,female,2020-10-23_12h45.55.452,torte-q,2020.1.3,Win32,60,13191,0.436045,,,,,0,55,55,26,1,,,,,,,,,,,,,,,,,,,,,,,,,,,,,,,,,,,
,,,,,,,,,,,,a,Incorrect,,,,,,t3.png,t1.png,2,0.056466,19,female,2020-10-23_12h45.55.452,torte-q,2020.1.3,Win32,60,13191,0.53592,,,,,0,56,56,64,1,,,,,,,,,,,,,,,,,,,,,,,,,,,,,,,,,,,
,,,,,,,,,,,,l,Incorrect,,,,,,t3.png,t4.png,1,0.909,19,female,2020-10-23_12h45.55.452,torte-q,2020.1.3,Win32,60,13191,0.52145,,,,,0,57,57,82,1,,,,,,,,,,,,,,,,,,,,,,,,,,,,,,,,,,,
,,,,,,,,,,,,l,Correct!,,,,,,t2.png,t5.png,3,0.0000131,19,female,2020-10-23_12h45.55.452,torte-q,2020.1.3,Win32,60,13191,0.453465,,,,,0,58,58,40,1,,,,,,,,,,,,,,,,,,,,,,,,,,,,,,,,,,,
,,,,,,,,,,,,l,Correct!,,,,,,t3.png,t5.png,2,0.056466,19,female,2020-10-23_12h45.55.452,torte-q,2020.1.3,Win32,60,13191,0.476225,,,,,0,59,59,6,1,,,,,,,,,,,,,,,,,,,,,,,,,,,,,,,,,,,
,,,,,,,,,,,,l,Incorrect,,,,,,t1.png,t2.png,1,0.9,19,female,2020-10-23_12h45.55.452,torte-q,2020.1.3,Win32,60,13191,0.459525,,,,,0,60,60,1,1,,,,,,,,,,,,,,,,,,,,,,,,,,,,,,,,,,,
,,,,,,,,,,,,l,Correct!,,,,,,t2.png,t4.png,2,0.059078,19,female,2020-10-23_12h45.55.452,torte-q,2020.1.3,Win32,60,13191,0.495045,,,,,0,61,61,37,1,,,,,,,,,,,,,,,,,,,,,,,,,,,,,,,,,,,
,,,,,,,,,,,,a,Correct!,,,,,,t5.png,t5.png,0,0.97829,19,female,2020-10-23_12h45.55.452,torte-q,2020.1.3,Win32,60,13191,0.39463,,,,,0,62,62,70,1,,,,,,,,,,,,,,,,,,,,,,,,,,,,,,,,,,,
,,,,,,,,,,,,a,Incorrect,,,,,,t5.png,t3.png,2,0.056466,19,female,2020-10-23_12h45.55.452,torte-q,2020.1.3,Win32,60,13191,0.374205,,,,,0,63,63,108,1,,,,,,,,,,,,,,,,,,,,,,,,,,,,,,,,,,,
,,,,,,,,,,,,a,Correct!,,,,,,t4.png,t5.png,1,0.9,19,female,2020-10-23_12h45.55.452,torte-q,2020.1.3,Win32,60,13191,0.45305,,,,,0,64,64,115,1,,,,,,,,,,,,,,,,,,,,,,,,,,,,,,,,,,,
,,,,,,,,,,,,a,Incorrect,,,,,,t5.png,t3.png,2,0.056466,19,female,2020-10-23_12h45.55.452,torte-q,2020.1.3,Win32,60,13191,0.46868,,,,,0,65,65,38,1,,,,,,,,,,,,,,,,,,,,,,,,,,,,,,,,,,,
,,,,,,,,,,,,a,Correct!,,,,,,t5.png,t4.png,1,0.9,19,female,2020-10-23_12h45.55.452,torte-q,2020.1.3,Win32,60,13191,0.5069,,,,,0,66,66,49,1,,,,,,,,,,,,,,,,,,,,,,,,,,,,,,,,,,,
,,,,,,,,,,,,l,Incorrect,,,,,,t2.png,t3.png,1,0.90855,19,female,2020-10-23_12h45.55.452,torte-q,2020.1.3,Win32,60,13191,0.527725,,,,,0,67,67,68,1,,,,,,,,,,,,,,,,,,,,,,,,,,,,,,,,,,,
,,,,,,,,,,,,a,Incorrect,,,,,,t1.png,t4.png,3,0.0000131,19,female,2020-10-23_12h45.55.452,torte-q,2020.1.3,Win32,60,13191,0.30575,,,,,0,68,68,92,1,,,,,,,,,,,,,,,,,,,,,,,,,,,,,,,,,,,
,,,,,,,,,,,,a,Incorrect,,,,,,t5.png,t3.png,2,0.056466,19,female,2020-10-23_12h45.55.452,torte-q,2020.1.3,Win32,60,13191,0.434455,,,,,0,69,69,114,1,,,,,,,,,,,,,,,,,,,,,,,,,,,,,,,,,,,
,,,,,,,,,,,,a,Incorrect,,,,,,t5.png,t2.png,3,0.0000131,19,female,2020-10-23_12h45.55.452,torte-q,2020.1.3,Win32,60,13191,0.327995,,,,,0,70,70,119,1,,,,,,,,,,,,,,,,,,,,,,,,,,,,,,,,,,,
,,,,,,,,,,,,a,Incorrect,,,,,,t4.png,t1.png,3,0.0000131,19,female,2020-10-23_12h45.55.452,torte-q,2020.1.3,Win32,60,13191,0.36,,,,,0,71,71,13,1,,,,,,,,,,,,,,,,,,,,,,,,,,,,,,,,,,,
,,,,,,,,,,,,l,Correct!,,,,,,t1.png,t4.png,3,0.0000131,19,female,2020-10-23_12h45.55.452,torte-q,2020.1.3,Win32,60,13191,0.50956,,,,,0,72,72,107,1,,,,,,,,,,,,,,,,,,,,,,,,,,,,,,,,,,,
,,,,,,,,,,,,a,Correct!,,,,,,t3.png,t2.png,1,0.90855,19,female,2020-10-23_12h45.55.452,torte-q,2020.1.3,Win32,60,13191,0.48586,,,,,0,73,73,97,1,,,,,,,,,,,,,,,,,,,,,,,,,,,,,,,,,,,
,,,,,,,,,,,,l,Incorrect,,,,,,t1.png,t1.png,0,0.978,19,female,2020-10-23_12h45.55.452,torte-q,2020.1.3,Win32,60,13191,0.41309,,,,,0,74,74,54,1,,,,,,,,,,,,,,,,,,,,,,,,,,,,,,,,,,,
,,,,,,,,,,,,l,Correct!,,,,,,t3.png,t5.png,2,0.056466,19,female,2020-10-23_12h45.55.452,torte-q,2020.1.3,Win32,60,13191,0.538915,,,,,0,75,75,44,1,,,,,,,,,,,,,,,,,,,,,,,,,,,,,,,,,,,
,,,,,,,,,,,,l,Incorrect,,,,,,t4.png,t4.png,0,0.98115,19,female,2020-10-23_12h45.55.452,torte-q,2020.1.3,Win32,60,13191,0.50997,,,,,0,76,76,52,1,,,,,,,,,,,,,,,,,,,,,,,,,,,,,,,,,,,
,,,,,,,,,,,,a,Correct!,,,,,,t4.png,t5.png,1,0.90025,19,female,2020-10-23_12h45.55.452,torte-q,2020.1.3,Win32,60,13191,0.47741,,,,,0,77,77,103,1,,,,,,,,,,,,,,,,,,,,,,,,,,,,,,,,,,,
,,,,,,,,,,,,a,Correct!,,,,,,t3.png,t2.png,1,0.909,19,female,2020-10-23_12h45.55.452,torte-q,2020.1.3,Win32,60,13191,0.467895,,,,,0,78,78,23,1,,,,,,,,,,,,,,,,,,,,,,,,,,,,,,,,,,,
,,,,,,,,,,,,a,Incorrect,,,,,,t4.png,t1.png,3,0.0000131,19,female,2020-10-23_12h45.55.452,torte-q,2020.1.3,Win32,60,13191,0.45191,,,,,0,79,79,93,1,,,,,,,,,,,,,,,,,,,,,,,,,,,,,,,,,,,
,,,,,,,,,,,,a,Correct!,,,,,,t5.png,t4.png,1,0.9,19,female,2020-10-23_12h45.55.452,torte-q,2020.1.3,Win32,60,13191,0.36871,,,,,0,80,80,76,1,,,,,,,,,,,,,,,,,,,,,,,,,,,,,,,,,,,
,,,,,,,,,,,,a,Correct!,,,,,,t4.png,t4.png,0,0.98115,19,female,2020-10-23_12h45.55.452,torte-q,2020.1.3,Win32,60,13191,0.68424,,,,,0,81,81,21,1,,,,,,,,,,,,,,,,,,,,,,,,,,,,,,,,,,,
,,,,,,,,,,,,l,Incorrect,,,,,,t1.png,t2.png,1,0.90025,19,female,2020-10-23_12h45.55.452,torte-q,2020.1.3,Win32,60,13191,0.55317,,,,,0,82,82,105,1,,,,,,,,,,,,,,,,,,,,,,,,,,,,,,,,,,,
,,,,,,,,,,,,a,Correct!,,,,,,t4.png,t3.png,1,0.90855,19,female,2020-10-23_12h45.55.452,torte-q,2020.1.3,Win32,60,13191,0.405145,,,,,0,83,83,45,1,,,,,,,,,,,,,,,,,,,,,,,,,,,,,,,,,,,
,,,,,,,,,,,,a,Incorrect,,,,,,t5.png,t2.png,3,0.0000131,19,female,2020-10-23_12h45.55.452,torte-q,2020.1.3,Win32,60,13191,0.44993,,,,,0,84,84,91,1,,,,,,,,,,,,,,,,,,,,,,,,,,,,,,,,,,,
,,,,,,,,,,,,a,Correct!,,,,,,t2.png,t1.png,1,0.90025,19,female,2020-10-23_12h45.55.452,torte-q,2020.1.3,Win32,60,13191,0.553225,,,,,0,85,85,5,1,,,,,,,,,,,,,,,,,,,,,,,,,,,,,,,,,,,
,,,,,,,,,,,,a,Correct!,,,,,,t3.png,t2.png,1,0.90855,19,female,2020-10-23_12h45.55.452,torte-q,2020.1.3,Win32,60,13191,0.495925,,,,,0,86,86,53,1,,,,,,,,,,,,,,,,,,,,,,,,,,,,,,,,,,,
,,,,,,,,,,,,a,Correct!,,,,,,t4.png,t3.png,1,0.909,19,female,2020-10-23_12h45.55.452,torte-q,2020.1.3,Win32,60,13191,0.404075,,,,,0,87,87,46,1,,,,,,,,,,,,,,,,,,,,,,,,,,,,,,,,,,,
,,,,,,,,,,,,a,Correct!,,,,,,t4.png,t3.png,1,0.90855,19,female,2020-10-23_12h45.55.452,torte-q,2020.1.3,Win32,60,13191,0.352705,,,,,0,88,88,35,1,,,,,,,,,,,,,,,,,,,,,,,,,,,,,,,,,,,
,,,,,,,,,,,,l,Incorrect,,,,,,t4.png,t5.png,1,0.90025,19,female,2020-10-23_12h45.55.452,torte-q,2020.1.3,Win32,60,13191,0.67915,,,,,0,89,89,113,1,,,,,,,,,,,,,,,,,,,,,,,,,,,,,,,,,,,
,,,,,,,,,,,,a,Incorrect,,,,,,t5.png,t2.png,3,0.0000131,19,female,2020-10-23_12h45.55.452,torte-q,2020.1.3,Win32,60,13191,0.450385,,,,,0,90,90,98,1,,,,,,,,,,,,,,,,,,,,,,,,,,,,,,,,,,,
,,,,,,,,,,,,l,Incorrect,,,,,,t1.png,t1.png,0,0.978,19,female,2020-10-23_12h45.55.452,torte-q,2020.1.3,Win32,60,13191,0.52418,,,,,0,91,91,28,1,,,,,,,,,,,,,,,,,,,,,,,,,,,,,,,,,,,
,,,,,,,,,,,,l,Incorrect,,,,,,t1.png,t1.png,0,0.97829,19,female,2020-10-23_12h45.55.452,torte-q,2020.1.3,Win32,60,13191,0.617645,,,,,0,92,92,78,1,,,,,,,,,,,,,,,,,,,,,,,,,,,,,,,,,,,
,,,,,,,,,,,,l,Correct!,,,,,,t1.png,t4.png,3,0.0000131,19,female,2020-10-23_12h45.55.452,torte-q,2020.1.3,Win32,60,13191,0.574905,,,,,0,93,93,50,1,,,,,,,,,,,,,,,,,,,,,,,,,,,,,,,,,,,
,,,,,,,,,,,,a,Incorrect,,,,,,t3.png,t1.png,2,0.056466,19,female,2020-10-23_12h45.55.452,torte-q,2020.1.3,Win32,60,13191,0.45954,,,,,0,94,94,32,1,,,,,,,,,,,,,,,,,,,,,,,,,,,,,,,,,,,
,,,,,,,,,,,,l,Correct!,,,,,,t1.png,t3.png,2,0.056466,19,female,2020-10-23_12h45.55.452,torte-q,2020.1.3,Win32,60,13191,0.51925,,,,,0,95,95,99,1,,,,,,,,,,,,,,,,,,,,,,,,,,,,,,,,,,,
,,,,,,,,,,,,a,Correct!,,,,,,t4.png,t3.png,1,0.909,19,female,2020-10-23_12h45.55.452,torte-q,2020.1.3,Win32,60,13191,0.552625,,,,,0,96,96,20,1,,,,,,,,,,,,,,,,,,,,,,,,,,,,,,,,,,,
,,,,,,,,,,,,l,Incorrect,,,,,,t3.png,t4.png,1,0.90855,19,female,2020-10-23_12h45.55.452,torte-q,2020.1.3,Win32,60,13191,0.53567,,,,,0,97,97,84,1,,,,,,,,,,,,,,,,,,,,,,,,,,,,,,,,,,,
,,,,,,,,,,,,l,Correct!,,,,,,t1.png,t3.png,2,0.056466,19,female,2020-10-23_12h45.55.452,torte-q,2020.1.3,Win32,60,13191,0.53524,,,,,0,98,98,63,1,,,,,,,,,,,,,,,,,,,,,,,,,,,,,,,,,,,
,,,,,,,,,,,,l,Correct!,,,,,,t1.png,t5.png,4,9.55E-11,19,female,2020-10-23_12h45.55.452,torte-q,2020.1.3,Win32,60,13191,0.50468,,,,,0,99,99,41,1,,,,,,,,,,,,,,,,,,,,,,,,,,,,,,,,,,,
,,,,,,,,,,,,l,Correct!,,,,,,t2.png,t4.png,2,0.059078,19,female,2020-10-23_12h45.55.452,torte-q,2020.1.3,Win32,60,13191,0.417485,,,,,0,100,100,77,1,,,,,,,,,,,,,,,,,,,,,,,,,,,,,,,,,,,
,,,,,,,,,,,,l,Correct!,,,,,,t4.png,t5.png,1,0.90025,19,female,2020-10-23_12h45.55.452,torte-q,2020.1.3,Win32,60,13191,0.50344,,,,,0,101,101,47,1,,,,,,,,,,,,,,,,,,,,,,,,,,,,,,,,,,,
,,,,,,,,,,,,a,Correct!,,,,,,t3.png,t2.png,1,0.909,19,female,2020-10-23_12h45.55.452,torte-q,2020.1.3,Win32,60,13191,0.55037,,,,,0,102,102,3,1,,,,,,,,,,,,,,,,,,,,,,,,,,,,,,,,,,,
,,,,,,,,,,,,a,Correct!,,,,,,t5.png,t4.png,1,0.90025,19,female,2020-10-23_12h45.55.452,torte-q,2020.1.3,Win32,60,13191,0.450875,,,,,0,103,103,34,1,,,,,,,,,,,,,,,,,,,,,,,,,,,,,,,,,,,
,,,,,,,,,,,,a,Incorrect,,,,,,t3.png,t1.png,2,0.056466,19,female,2020-10-23_12h45.55.452,torte-q,2020.1.3,Win32,60,13191,0.535135,,,,,0,104,104,29,1,,,,,,,,,,,,,,,,,,,,,,,,,,,,,,,,,,,
,,,,,,,,,,,,l,Correct!,,,,,,t1.png,t5.png,4,9.55E-11,19,female,2020-10-23_12h45.55.452,torte-q,2020.1.3,Win32,60,13191,0.45172,,,,,0,105,105,85,1,,,,,,,,,,,,,,,,,,,,,,,,,,,,,,,,,,,
,,,,,,,,,,,,l,Incorrect,,,,,,t1.png,t2.png,1,0.90025,19,female,2020-10-23_12h45.55.452,torte-q,2020.1.3,Win32,60,13191,0.51707,,,,,0,106,106,72,1,,,,,,,,,,,,,,,,,,,,,,,,,,,,,,,,,,,
,,,,,,,,,,,,a,Correct!,,,,,,t2.png,t2.png,0,0.98115,19,female,2020-10-23_12h45.55.452,torte-q,2020.1.3,Win32,60,13191,0.538455,,,,,0,107,107,2,1,,,,,,,,,,,,,,,,,,,,,,,,,,,,,,,,,,,
,,,,,,,,,,,,l,Correct!,,,,,,t3.png,t5.png,2,0.056466,19,female,2020-10-23_12h45.55.452,torte-q,2020.1.3,Win32,60,13191,0.4394,,,,,0,108,108,14,1,,,,,,,,,,,,,,,,,,,,,,,,,,,,,,,,,,,
,,,,,,,,,,,,l,Correct!,,,,,,t1.png,t3.png,2,0.056466,19,female,2020-10-23_12h45.55.452,torte-q,2020.1.3,Win32,60,13191,0.42335,,,,,0,109,109,60,1,,,,,,,,,,,,,,,,,,,,,,,,,,,,,,,,,,,
,,,,,,,,,,,,l,Incorrect,,,,,,t5.png,t4.png,1,0.90025,19,female,2020-10-23_12h45.55.452,torte-q,2020.1.3,Win32,60,13191,0.534685,,,,,0,110,110,27,1,,,,,,,,,,,,,,,,,,,,,,,,,,,,,,,,,,,
,,,,,,,,,,,,l,Incorrect,,,,,,t2.png,t2.png,0,0.98115,19,female,2020-10-23_12h45.55.452,torte-q,2020.1.3,Win32,60,13191,0.49558,,,,,0,111,111,57,1,,,,,,,,,,,,,,,,,,,,,,,,,,,,,,,,,,,
,,,,,,,,,,,,l,Incorrect,,,,,,t1.png,t2.png,1,0.90025,19,female,2020-10-23_12h45.55.452,torte-q,2020.1.3,Win32,60,13191,0.427375,,,,,0,112,112,33,1,,,,,,,,,,,,,,,,,,,,,,,,,,,,,,,,,,,
,,,,,,,,,,,,a,Incorrect,,,,,,t3.png,t5.png,2,0.0565,19,female,2020-10-23_12h45.55.452,torte-q,2020.1.3,Win32,60,13191,0.45082,,,,,0,113,113,83,1,,,,,,,,,,,,,,,,,,,,,,,,,,,,,,,,,,,
,,,,,,,,,,,,l,Incorrect,,,,,,t3.png,t4.png,1,0.909,19,female,2020-10-23_12h45.55.452,torte-q,2020.1.3,Win32,60,13191,0.56735,,,,,0,114,114,89,1,,,,,,,,,,,,,,,,,,,,,,,,,,,,,,,,,,,
,,,,,,,,,,,,l,Incorrect,,,,,,t4.png,t5.png,1,0.90025,19,female,2020-10-23_12h45.55.452,torte-q,2020.1.3,Win32,60,13191,0.683755,,,,,0,115,115,58,1,,,,,,,,,,,,,,,,,,,,,,,,,,,,,,,,,,,
,,,,,,,,,,,,a,Incorrect,,,,,,t5.png,t2.png,3,0.0000131,19,female,2020-10-23_12h45.55.452,torte-q,2020.1.3,Win32,60,13191,0.451035,,,,,0,116,116,116,1,,,,,,,,,,,,,,,,,,,,,,,,,,,,,,,,,,,
,,,,,,,,,,,,l,Correct!,,,,,,t2.png,t5.png,3,0.0000131,19,female,2020-10-23_12h45.55.452,torte-q,2020.1.3,Win32,60,13191,0.521625,,,,,0,117,117,104,1,,,,,,,,,,,,,,,,,,,,,,,,,,,,,,,,,,,
,,,,,,,,,,,,a,Correct!,,,,,,t3.png,t2.png,1,0.90855,19,female,2020-10-23_12h45.55.452,torte-q,2020.1.3,Win32,60,13191,0.53486,,,,,0,118,118,18,1,,,,,,,,,,,,,,,,,,,,,,,,,,,,,,,,,,,
,,,,,,,,,,,,a,Incorrect,,,,,,t4.png,t2.png,2,0.059078,19,female,2020-10-23_12h45.55.452,torte-q,2020.1.3,Win32,60,13191,0.45377,,,,,0,119,119,110,1,,,,,,,,,,,,,,,,,,,,,,,,,,,,,,,,,,,
,,,,,,,,,,,,l,Correct!,,,,,,t1.png,t4.png,3,0.0000131,19,female,2020-10-23_12h45.55.452,torte-q,2020.1.3,Win32,60,13191,0.588715,space,2.45877,,,,,,,,space,9.17696,space,0.7202,0,0,0,81,1,,,,,,,,,,,,,,,,,,,,,,,,,,
,,,,,,,,,,,,a,Correct!,,,,,,t4.png,t4.png,0,0.98115,19,female,2020-10-23_12h45.55.452,torte-q,2020.1.3,Win32,60,13191,0.50495,,,,,,,,,,,,,,0,1,1,80,1,,,,,,,,,,,,,,,,,,,,,,,,,,
,,,,,,,,,,,,a,Incorrect,,,,,,t5.png,t3.png,2,0.056466,19,female,2020-10-23_12h45.55.452,torte-q,2020.1.3,Win32,60,13191,0.38624,,,,,,,,,,,,,,0,2,2,114,1,,,,,,,,,,,,,,,,,,,,,,,,,,
,,,,,,,,,,,,a,Incorrect,,,,,,t5.png,t2.png,3,0.0000131,19,female,2020-10-23_12h45.55.452,torte-q,2020.1.3,Win32,60,13191,0.315745,,,,,,,,,,,,,,0,3,3,91,1,,,,,,,,,,,,,,,,,,,,,,,,,,
,,,,,,,,,,,,l,Correct!,,,,,,t3.png,t1.png,2,0.056466,19,female,2020-10-23_12h45.55.452,torte-q,2020.1.3,Win32,60,13191,0.379805,,,,,,,,,,,,,,0,4,4,29,1,,,,,,,,,,,,,,,,,,,,,,,,,,
,,,,,,,,,,,,a,Incorrect,,,,,,t5.png,t1.png,4,9.55E-11,19,female,2020-10-23_12h45.55.452,torte-q,2020.1.3,Win32,60,13191,0.394405,,,,,,,,,,,,,,0,5,5,22,1,,,,,,,,,,,,,,,,,,,,,,,,,,
,,,,,,,,,,,,l,Correct!,,,,,,t2.png,t5.png,3,0.0000131,19,female,2020-10-23_12h45.55.452,torte-q,2020.1.3,Win32,60,13191,0.39904,,,,,,,,,,,,,,0,6,6,66,1,,,,,,,,,,,,,,,,,,,,,,,,,,
,,,,,,,,,,,,a,Correct!,,,,,,t2.png,t1.png,1,0.90025,19,female,2020-10-23_12h45.55.452,torte-q,2020.1.3,Win32,60,13191,0.513295,,,,,,,,,,,,,,0,7,7,5,1,,,,,,,,,,,,,,,,,,,,,,,,,,
,,,,,,,,,,,,a,Correct!,,,,,,t3.png,t2.png,1,0.90855,19,female,2020-10-23_12h45.55.452,torte-q,2020.1.3,Win32,60,13191,0.432285,,,,,,,,,,,,,,0,8,8,97,1,,,,,,,,,,,,,,,,,,,,,,,,,,
,,,,,,,,,,,,l,Incorrect,,,,,,t3.png,t4.png,1,0.90855,19,female,2020-10-23_12h45.55.452,torte-q,2020.1.3,Win32,60,13191,0.580015,,,,,,,,,,,,,,0,9,9,96,1,,,,,,,,,,,,,,,,,,,,,,,,,,
,,,,,,,,,,,,a,Correct!,,,,,,t3.png,t2.png,1,0.909,19,female,2020-10-23_12h45.55.452,torte-q,2020.1.3,Win32,60,13191,0.435185,,,,,,,,,,,,,,0,10,10,3,1,,,,,,,,,,,,,,,,,,,,,,,,,,
,,,,,,,,,,,,a,Incorrect,,,,,,t5.png,t2.png,3,0.0000131,19,female,2020-10-23_12h45.55.452,torte-q,2020.1.3,Win32,60,13191,0.408695,,,,,,,,,,,,,,0,11,11,98,1,,,,,,,,,,,,,,,,,,,,,,,,,,
,,,,,,,,,,,,l,Correct!,,,,,,t1.png,t3.png,2,0.056466,19,female,2020-10-23_12h45.55.452,torte-q,2020.1.3,Win32,60,13191,0.41397,,,,,,,,,,,,,,0,12,12,99,1,,,,,,,,,,,,,,,,,,,,,,,,,,
,,,,,,,,,,,,l,Incorrect,,,,,,t1.png,t1.png,0,0.97829,19,female,2020-10-23_12h45.55.452,torte-q,2020.1.3,Win32,60,13191,0.448885,,,,,,,,,,,,,,0,13,13,67,1,,,,,,,,,,,,,,,,,,,,,,,,,,
,,,,,,,,,,,,a,Incorrect,,,,,,t3.png,t1.png,2,0.056466,19,female,2020-10-23_12h45.55.452,torte-q,2020.1.3,Win32,60,13191,0.382335,,,,,,,,,,,,,,0,14,14,32,1,,,,,,,,,,,,,,,,,,,,,,,,,,
,,,,,,,,,,,,l,Correct!,,,,,,t2.png,t5.png,3,0.0000131,19,female,2020-10-23_12h45.55.452,torte-q,2020.1.3,Win32,60,13191,0.464275,,,,,,,,,,,,,,0,15,15,104,1,,,,,,,,,,,,,,,,,,,,,,,,,,
,,,,,,,,,,,,a,Incorrect,,,,,,t5.png,t3.png,2,0.056466,19,female,2020-10-23_12h45.55.452,torte-q,2020.1.3,Win32,60,13191,0.44833,,,,,,,,,,,,,,0,16,16,38,1,,,,,,,,,,,,,,,,,,,,,,,,,,
,,,,,,,,,,,,l,Correct!,,,,,,t2.png,t4.png,2,0.059078,19,female,2020-10-23_12h45.55.452,torte-q,2020.1.3,Win32,60,13191,0.398355,,,,,,,,,,,,,,0,17,17,11,1,,,,,,,,,,,,,,,,,,,,,,,,,,
,,,,,,,,,,,,a,Incorrect,,,,,,t5.png,t1.png,4,9.55E-11,19,female,2020-10-23_12h45.55.452,torte-q,2020.1.3,Win32,60,13191,0.38166,,,,,,,,,,,,,,0,18,18,43,1,,,,,,,,,,,,,,,,,,,,,,,,,,
,,,,,,,,,,,,l,Correct!,,,,,,t3.png,t5.png,2,0.056466,19,female,2020-10-23_12h45.55.452,torte-q,2020.1.3,Win32,60,13191,0.448275,,,,,,,,,,,,,,0,19,19,44,1,,,,,,,,,,,,,,,,,,,,,,,,,,
,,,,,,,,,,,,a,Correct!,,,,,,t5.png,t5.png,0,0.97829,19,female,2020-10-23_12h45.55.452,torte-q,2020.1.3,Win32,60,13191,0.424035,,,,,,,,,,,,,,0,20,20,73,1,,,,,,,,,,,,,,,,,,,,,,,,,,
,,,,,,,,,,,,a,Incorrect,,,,,,t4.png,t1.png,3,0.0000131,19,female,2020-10-23_12h45.55.452,torte-q,2020.1.3,Win32,60,13191,0.47356,,,,,,,,,,,,,,0,21,21,93,1,,,,,,,,,,,,,,,,,,,,,,,,,,
,,,,,,,,,,,,a,Incorrect,,,,,,t4.png,t2.png,2,0.059078,19,female,2020-10-23_12h45.55.452,torte-q,2020.1.3,Win32,60,13191,0.468875,,,,,,,,,,,,,,0,22,22,110,1,,,,,,,,,,,,,,,,,,,,,,,,,,
,,,,,,,,,,,,l,Correct!,,,,,,t3.png,t5.png,2,0.0565,19,female,2020-10-23_12h45.55.452,torte-q,2020.1.3,Win32,60,13191,0.49787,,,,,,,,,,,,,,0,23,23,83,1,,,,,,,,,,,,,,,,,,,,,,,,,,
,,,,,,,,,,,,a,Incorrect,,,,,,t3.png,t1.png,2,0.056466,19,female,2020-10-23_12h45.55.452,torte-q,2020.1.3,Win32,60,13191,0.4941,,,,,,,,,,,,,,0,24,24,0,1,,,,,,,,,,,,,,,,,,,,,,,,,,
,,,,,,,,,,,,l,Incorrect,,,,,,t2.png,t3.png,1,0.90855,19,female,2020-10-23_12h45.55.452,torte-q,2020.1.3,Win32,60,13191,0.592885,,,,,,,,,,,,,,0,25,25,65,1,,,,,,,,,,,,,,,,,,,,,,,,,,
,,,,,,,,,,,,a,Correct!,,,,,,t3.png,t1.png,2,0.0565,19,female,2020-10-23_12h45.55.452,torte-q,2020.1.3,Win32,60,13191,0.41605,,,,,,,,,,,,,,0,26,26,31,1,,,,,,,,,,,,,,,,,,,,,,,,,,
,,,,,,,,,,,,l,Correct!,,,,,,t2.png,t4.png,2,0.059078,19,female,2020-10-23_12h45.55.452,torte-q,2020.1.3,Win32,60,13191,0.46594,,,,,,,,,,,,,,0,27,27,77,1,,,,,,,,,,,,,,,,,,,,,,,,,,
,,,,,,,,,,,,a,Correct!,,,,,,t4.png,t3.png,1,0.90855,19,female,2020-10-23_12h45.55.452,torte-q,2020.1.3,Win32,60,13191,0.31416,,,,,,,,,,,,,,0,28,28,75,1,,,,,,,,,,,,,,,,,,,,,,,,,,
,,,,,,,,,,,,a,Incorrect,,,,,,t5.png,t1.png,4,9.55E-11,19,female,2020-10-23_12h45.55.452,torte-q,2020.1.3,Win32,60,13191,0.35103,,,,,,,,,,,,,,0,29,29,100,1,,,,,,,,,,,,,,,,,,,,,,,,,,
,,,,,,,,,,,,l,Correct!,,,,,,t1.png,t3.png,2,0.056466,19,female,2020-10-23_12h45.55.452,torte-q,2020.1.3,Win32,60,13191,0.407585,,,,,,,,,,,,,,0,30,30,69,1,,,,,,,,,,,,,,,,,,,,,,,,,,
,,,,,,,,,,,,a,Incorrect,,,,,,t5.png,t1.png,4,9.55E-11,19,female,2020-10-23_12h45.55.452,torte-q,2020.1.3,Win32,60,13191,0.367155,,,,,,,,,,,,,,0,31,31,71,1,,,,,,,,,,,,,,,,,,,,,,,,,,
,,,,,,,,,,,,l,Correct!,,,,,,t2.png,t5.png,3,0.0000131,19,female,2020-10-23_12h45.55.452,torte-q,2020.1.3,Win32,60,13191,0.38067,,,,,,,,,,,,,,0,32,32,40,1,,,,,,,,,,,,,,,,,,,,,,,,,,
,,,,,,,,,,,,a,Correct!,,,,,,t2.png,t3.png,1,0.90855,19,female,2020-10-23_12h45.55.452,torte-q,2020.1.3,Win32,60,13191,0.46703,,,,,,,,,,,,,,0,33,33,10,1,,,,,,,,,,,,,,,,,,,,,,,,,,
,,,,,,,,,,,,a,Correct!,,,,,,t3.png,t1.png,2,0.056466,19,female,2020-10-23_12h45.55.452,torte-q,2020.1.3,Win32,60,13191,0.312965,,,,,,,,,,,,,,0,34,34,64,1,,,,,,,,,,,,,,,,,,,,,,,,,,
,,,,,,,,,,,,a,Incorrect,,,,,,t4.png,t2.png,2,0.059078,19,female,2020-10-23_12h45.55.452,torte-q,2020.1.3,Win32,60,13191,0.358635,,,,,,,,,,,,,,0,35,35,86,1,,,,,,,,,,,,,,,,,,,,,,,,,,
,,,,,,,,,,,,a,Correct!,,,,,,t4.png,t3.png,1,0.909,19,female,2020-10-23_12h45.55.452,torte-q,2020.1.3,Win32,60,13191,0.418765,,,,,,,,,,,,,,0,36,36,46,1,,,,,,,,,,,,,,,,,,,,,,,,,,
,,,,,,,,,,,,l,Incorrect,,,,,,t4.png,t5.png,1,0.90025,19,female,2020-10-23_12h45.55.452,torte-q,2020.1.3,Win32,60,13191,0.55106,,,,,,,,,,,,,,0,37,37,103,1,,,,,,,,,,,,,,,,,,,,,,,,,,
,,,,,,,,,,,,a,Correct!,,,,,,t4.png,t3.png,1,0.90855,19,female,2020-10-23_12h45.55.452,torte-q,2020.1.3,Win32,60,13191,0.56145,,,,,,,,,,,,,,0,38,38,45,1,,,,,,,,,,,,,,,,,,,,,,,,,,
,,,,,,,,,,,,a,Correct!,,,,,,t2.png,t2.png,0,0.98115,19,female,2020-10-23_12h45.55.452,torte-q,2020.1.3,Win32,60,13191,0.57035,,,,,,,,,,,,,,0,39,39,59,1,,,,,,,,,,,,,,,,,,,,,,,,,,
,,,,,,,,,,,,l,Correct!,,,,,,t1.png,t4.png,3,0.0000131,19,female,2020-10-23_12h45.55.452,torte-q,2020.1.3,Win32,60,13191,0.552085,,,,,,,,,,,,,,0,40,40,50,1,,,,,,,,,,,,,,,,,,,,,,,,,,
,,,,,,,,,,,,a,Correct!,,,,,,t2.png,t2.png,0,0.98115,19,female,2020-10-23_12h45.55.452,torte-q,2020.1.3,Win32,60,13191,0.5943,,,,,,,,,,,,,,0,41,41,2,1,,,,,,,,,,,,,,,,,,,,,,,,,,
,,,,,,,,,,,,a,Correct!,,,,,,t5.png,t5.png,0,0.97829,19,female,2020-10-23_12h45.55.452,torte-q,2020.1.3,Win32,60,13191,0.53414,,,,,,,,,,,,,,0,42,42,25,1,,,,,,,,,,,,,,,,,,,,,,,,,,
,,,,,,,,,,,,l,Correct!,,,,,,t3.png,t5.png,2,0.056466,19,female,2020-10-23_12h45.55.452,torte-q,2020.1.3,Win32,60,13191,0.48417,,,,,,,,,,,,,,0,43,43,6,1,,,,,,,,,,,,,,,,,,,,,,,,,,
,,,,,,,,,,,,a,Correct!,,,,,,t5.png,t3.png,2,0.056466,19,female,2020-10-23_12h45.55.452,torte-q,2020.1.3,Win32,60,13191,0.418265,,,,,,,,,,,,,,0,44,44,108,1,,,,,,,,,,,,,,,,,,,,,,,,,,
,,,,,,,,,,,,a,Correct!,,,,,,t4.png,t4.png,0,0.98115,19,female,2020-10-23_12h45.55.452,torte-q,2020.1.3,Win32,60,13191,0.33735,,,,,,,,,,,,,,0,45,45,52,1,,,,,,,,,,,,,,,,,,,,,,,,,,
,,,,,,,,,,,,l,Incorrect,,,,,,t1.png,t2.png,1,0.90025,19,female,2020-10-23_12h45.55.452,torte-q,2020.1.3,Win32,60,13191,0.441645,,,,,,,,,,,,,,0,46,46,72,1,,,,,,,,,,,,,,,,,,,,,,,,,,
,,,,,,,,,,,,l,Correct!,,,,,,t1.png,t3.png,2,0.056466,19,female,2020-10-23_12h45.55.452,torte-q,2020.1.3,Win32,60,13191,0.97314,,,,,,,,,,,,,,0,47,47,60,1,,,,,,,,,,,,,,,,,,,,,,,,,,
,,,,,,,,,,,,l,Incorrect,,,,,,t1.png,t2.png,1,0.90025,19,female,2020-10-23_12h45.55.452,torte-q,2020.1.3,Win32,60,13191,0.73608,,,,,,,,,,,,,,0,48,48,112,1,,,,,,,,,,,,,,,,,,,,,,,,,,
,,,,,,,,,,,,l,Correct!,,,,,,t1.png,t5.png,4,9.55E-11,19,female,2020-10-23_12h45.55.452,torte-q,2020.1.3,Win32,60,13191,0.535045,,,,,,,,,,,,,,0,49,49,16,1,,,,,,,,,,,,,,,,,,,,,,,,,,
,,,,,,,,,,,,a,Correct!,,,,,,t1.png,t2.png,1,0.90025,19,female,2020-10-23_12h45.55.452,torte-q,2020.1.3,Win32,60,13191,0.450725,,,,,,,,,,,,,,0,50,50,33,1,,,,,,,,,,,,,,,,,,,,,,,,,,
,,,,,,,,,,,,a,Correct!,,,,,,t5.png,t3.png,2,0.056466,19,female,2020-10-23_12h45.55.452,torte-q,2020.1.3,Win32,60,13191,0.38964,,,,,,,,,,,,,,0,51,51,56,1,,,,,,,,,,,,,,,,,,,,,,,,,,
,,,,,,,,,,,,a,Correct!,,,,,,t4.png,t5.png,1,0.9,19,female,2020-10-23_12h45.55.452,torte-q,2020.1.3,Win32,60,13191,0.5178,,,,,,,,,,,,,,0,52,52,115,1,,,,,,,,,,,,,,,,,,,,,,,,,,
,,,,,,,,,,,,a,Incorrect,,,,,,t5.png,t2.png,3,0.0000131,19,female,2020-10-23_12h45.55.452,torte-q,2020.1.3,Win32,60,13191,0.35057,,,,,,,,,,,,,,0,53,53,116,1,,,,,,,,,,,,,,,,,,,,,,,,,,
,,,,,,,,,,,,a,Incorrect,,,,,,t5.png,t4.png,1,0.9,19,female,2020-10-23_12h45.55.452,torte-q,2020.1.3,Win32,60,13191,0.367975,,,,,,,,,,,,,,0,54,54,49,1,,,,,,,,,,,,,,,,,,,,,,,,,,
,,,,,,,,,,,,l,Incorrect,,,,,,t2.png,t3.png,1,0.909,19,female,2020-10-23_12h45.55.452,torte-q,2020.1.3,Win32,60,13191,0.47377,,,,,,,,,,,,,,0,55,55,74,1,,,,,,,,,,,,,,,,,,,,,,,,,,
,,,,,,,,,,,,a,Correct!,,,,,,t2.png,t2.png,0,0.98115,19,female,2020-10-23_12h45.55.452,torte-q,2020.1.3,Win32,60,13191,0.45675,,,,,,,,,,,,,,0,56,56,7,1,,,,,,,,,,,,,,,,,,,,,,,,,,
,,,,,,,,,,,,l,Correct!,,,,,,t1.png,t4.png,3,0.0000131,19,female,2020-10-23_12h45.55.452,torte-q,2020.1.3,Win32,60,13191,0.456345,,,,,,,,,,,,,,0,57,57,107,1,,,,,,,,,,,,,,,,,,,,,,,,,,
,,,,,,,,,,,,a,Correct!,,,,,,t5.png,t5.png,0,0.97829,19,female,2020-10-23_12h45.55.452,torte-q,2020.1.3,Win32,60,13191,0.303065,,,,,,,,,,,,,,0,58,58,70,1,,,,,,,,,,,,,,,,,,,,,,,,,,
,,,,,,,,,,,,a,Correct!,,,,,,t1.png,t1.png,0,0.97829,19,female,2020-10-23_12h45.55.452,torte-q,2020.1.3,Win32,60,13191,0.54215,,,,,,,,,,,,,,0,59,59,78,1,,,,,,,,,,,,,,,,,,,,,,,,,,
,,,,,,,,,,,,a,Incorrect,,,,,,t4.png,t1.png,3,0.0000131,19,female,2020-10-23_12h45.55.452,torte-q,2020.1.3,Win32,60,13191,0.458415,,,,,,,,,,,,,,0,60,60,48,1,,,,,,,,,,,,,,,,,,,,,,,,,,
,,,,,,,,,,,,l,Incorrect,,,,,,t2.png,t3.png,1,0.90855,19,female,2020-10-23_12h45.55.452,torte-q,2020.1.3,Win32,60,13191,0.826145,,,,,,,,,,,,,,0,61,61,111,1,,,,,,,,,,,,,,,,,,,,,,,,,,
,,,,,,,,,,,,l,Correct!,,,,,,t1.png,t3.png,2,0.056466,19,female,2020-10-23_12h45.55.452,torte-q,2020.1.3,Win32,60,13191,0.86861,,,,,,,,,,,,,,0,62,62,63,1,,,,,,,,,,,,,,,,,,,,,,,,,,
,,,,,,,,,,,,l,Incorrect,,,,,,t3.png,t4.png,1,0.909,19,female,2020-10-23_12h45.55.452,torte-q,2020.1.3,Win32,60,13191,0.855975,,,,,,,,,,,,,,0,63,63,89,1,,,,,,,,,,,,,,,,,,,,,,,,,,
,,,,,,,,,,,,l,Correct!,,,,,,t3.png,t5.png,2,0.0565,19,female,2020-10-23_12h45.55.452,torte-q,2020.1.3,Win32,60,13191,1.320045,,,,,,,,,,,,,,0,64,64,30,1,,,,,,,,,,,,,,,,,,,,,,,,,,
,,,,,,,,,,,,l,Incorrect,,,,,,t4.png,t5.png,1,0.90025,19,female,2020-10-23_12h45.55.452,torte-q,2020.1.3,Win32,60,13191,0.896495,,,,,,,,,,,,,,0,65,65,47,1,,,,,,,,,,,,,,,,,,,,,,,,,,
,,,,,,,,,,,,a,Correct!,,,,,,t2.png,t1.png,1,0.90025,19,female,2020-10-23_12h45.55.452,torte-q,2020.1.3,Win32,60,13191,0.423085,,,,,,,,,,,,,,0,66,66,62,1,,,,,,,,,,,,,,,,,,,,,,,,,,
,,,,,,,,,,,,l,Incorrect,,,,,,t3.png,t4.png,1,0.909,19,female,2020-10-23_12h45.55.452,torte-q,2020.1.3,Win32,60,13191,0.467515,,,,,,,,,,,,,,0,67,67,106,1,,,,,,,,,,,,,,,,,,,,,,,,,,
,,,,,,,,,,,,l,Correct!,,,,,,t3.png,t5.png,2,0.056466,19,female,2020-10-23_12h45.55.452,torte-q,2020.1.3,Win32,60,13191,0.45696,,,,,,,,,,,,,,0,68,68,14,1,,,,,,,,,,,,,,,,,,,,,,,,,,
,,,,,,,,,,,,l,Correct!,,,,,,t2.png,t4.png,2,0.059078,19,female,2020-10-23_12h45.55.452,torte-q,2020.1.3,Win32,60,13191,0.50248,,,,,,,,,,,,,,0,69,69,37,1,,,,,,,,,,,,,,,,,,,,,,,,,,
,,,,,,,,,,,,a,Incorrect,,,,,,t3.png,t2.png,1,0.90855,19,female,2020-10-23_12h45.55.452,torte-q,2020.1.3,Win32,60,13191,0.787335,,,,,,,,,,,,,,0,70,70,53,1,,,,,,,,,,,,,,,,,,,,,,,,,,
,,,,,,,,,,,,a,Incorrect,,,,,,t4.png,t2.png,2,0.059078,19,female,2020-10-23_12h45.55.452,torte-q,2020.1.3,Win32,60,13191,0.536795,,,,,,,,,,,,,,0,71,71,88,1,,,,,,,,,,,,,,,,,,,,,,,,,,
,,,,,,,,,,,,l,Correct!,,,,,,t2.png,t5.png,3,0.0000131,19,female,2020-10-23_12h45.55.452,torte-q,2020.1.3,Win32,60,13191,0.490735,,,,,,,,,,,,,,0,72,72,95,1,,,,,,,,,,,,,,,,,,,,,,,,,,
,,,,,,,,,,,,l,Correct!,,,,,,t1.png,t5.png,4,9.55E-11,19,female,2020-10-23_12h45.55.452,torte-q,2020.1.3,Win32,60,13191,0.61753,,,,,,,,,,,,,,0,73,73,55,1,,,,,,,,,,,,,,,,,,,,,,,,,,
,,,,,,,,,,,,a,Correct!,,,,,,t4.png,t4.png,0,0.98115,19,female,2020-10-23_12h45.55.452,torte-q,2020.1.3,Win32,60,13191,0.634075,,,,,,,,,,,,,,0,74,74,90,1,,,,,,,,,,,,,,,,,,,,,,,,,,
,,,,,,,,,,,,l,Correct!,,,,,,t2.png,t4.png,2,0.059078,19,female,2020-10-23_12h45.55.452,torte-q,2020.1.3,Win32,60,13191,0.55994,,,,,,,,,,,,,,0,75,75,24,1,,,,,,,,,,,,,,,,,,,,,,,,,,
,,,,,,,,,,,,l,Incorrect,,,,,,t1.png,t1.png,0,0.97829,19,female,2020-10-23_12h45.55.452,torte-q,2020.1.3,Win32,60,13191,0.585,,,,,,,,,,,,,,0,76,76,9,1,,,,,,,,,,,,,,,,,,,,,,,,,,
,,,,,,,,,,,,a,Correct!,,,,,,t2.png,t2.png,0,0.981,19,female,2020-10-23_12h45.55.452,torte-q,2020.1.3,Win32,60,13191,0.535425,,,,,,,,,,,,,,0,77,77,101,1,,,,,,,,,,,,,,,,,,,,,,,,,,
,,,,,,,,,,,,l,Incorrect,,,,,,t5.png,t5.png,0,0.978,19,female,2020-10-23_12h45.55.452,torte-q,2020.1.3,Win32,60,13191,0.64061,,,,,,,,,,,,,,0,78,78,117,1,,,,,,,,,,,,,,,,,,,,,,,,,,
,,,,,,,,,,,,a,Correct!,,,,,,t4.png,t3.png,1,0.909,19,female,2020-10-23_12h45.55.452,torte-q,2020.1.3,Win32,60,13191,0.485035,,,,,,,,,,,,,,0,79,79,20,1,,,,,,,,,,,,,,,,,,,,,,,,,,
,,,,,,,,,,,,l,Correct!,,,,,,t2.png,t5.png,3,0.0000131,19,female,2020-10-23_12h45.55.452,torte-q,2020.1.3,Win32,60,13191,0.67415,,,,,,,,,,,,,,0,80,80,8,1,,,,,,,,,,,,,,,,,,,,,,,,,,
,,,,,,,,,,,,a,Correct!,,,,,,t5.png,t4.png,1,0.9,19,female,2020-10-23_12h45.55.452,torte-q,2020.1.3,Win32,60,13191,0.555925,,,,,,,,,,,,,,0,81,81,76,1,,,,,,,,,,,,,,,,,,,,,,,,,,
,,,,,,,,,,,,a,Correct!,,,,,,t4.png,t2.png,2,0.0591,19,female,2020-10-23_12h45.55.452,torte-q,2020.1.3,Win32,60,13191,0.437135,,,,,,,,,,,,,,0,82,82,36,1,,,,,,,,,,,,,,,,,,,,,,,,,,
,,,,,,,,,,,,a,Correct!,,,,,,t4.png,t3.png,1,0.90855,19,female,2020-10-23_12h45.55.452,torte-q,2020.1.3,Win32,60,13191,0.46666,,,,,,,,,,,,,,0,83,83,35,1,,,,,,,,,,,,,,,,,,,,,,,,,,
,,,,,,,,,,,,l,Incorrect,,,,,,t4.png,t5.png,1,0.90025,19,female,2020-10-23_12h45.55.452,torte-q,2020.1.3,Win32,60,13191,0.692155,,,,,,,,,,,,,,0,84,84,113,1,,,,,,,,,,,,,,,,,,,,,,,,,,
,,,,,,,,,,,,l,Correct!,,,,,,t1.png,t5.png,4,9.55E-11,19,female,2020-10-23_12h45.55.452,torte-q,2020.1.3,Win32,60,13191,0.436045,,,,,,,,,,,,,,0,85,85,12,1,,,,,,,,,,,,,,,,,,,,,,,,,,
,,,,,,,,,,,,a,Correct!,,,,,,t3.png,t4.png,1,0.90855,19,female,2020-10-23_12h45.55.452,torte-q,2020.1.3,Win32,60,13191,0.3688,,,,,,,,,,,,,,0,86,86,84,1,,,,,,,,,,,,,,,,,,,,,,,,,,
,,,,,,,,,,,,a,Correct!,,,,,,t1.png,t1.png,0,0.978,19,female,2020-10-23_12h45.55.452,torte-q,2020.1.3,Win32,60,13191,0.698905,,,,,,,,,,,,,,0,87,87,28,1,,,,,,,,,,,,,,,,,,,,,,,,,,
,,,,,,,,,,,,l,Correct!,,,,,,t1.png,t3.png,2,0.056466,19,female,2020-10-23_12h45.55.452,torte-q,2020.1.3,Win32,60,13191,0.48993,,,,,,,,,,,,,,0,88,88,87,1,,,,,,,,,,,,,,,,,,,,,,,,,,
,,,,,,,,,,,,a,Correct!,,,,,,t5.png,t5.png,0,0.97829,19,female,2020-10-23_12h45.55.452,torte-q,2020.1.3,Win32,60,13191,0.53707,,,,,,,,,,,,,,0,89,89,94,1,,,,,,,,,,,,,,,,,,,,,,,,,,
,,,,,,,,,,,,l,Correct!,,,,,,t1.png,t5.png,4,9.55E-11,19,female,2020-10-23_12h45.55.452,torte-q,2020.1.3,Win32,60,13191,0.484125,,,,,,,,,,,,,,0,90,90,41,1,,,,,,,,,,,,,,,,,,,,,,,,,,
,,,,,,,,,,,,a,Correct!,,,,,,t4.png,t4.png,0,0.98115,19,female,2020-10-23_12h45.55.452,torte-q,2020.1.3,Win32,60,13191,0.58685,,,,,,,,,,,,,,0,91,91,79,1,,,,,,,,,,,,,,,,,,,,,,,,,,
,,,,,,,,,,,,a,Correct!,,,,,,t2.png,t2.png,0,0.98115,19,female,2020-10-23_12h45.55.452,torte-q,2020.1.3,Win32,60,13191,0.68426,,,,,,,,,,,,,,0,92,92,57,1,,,,,,,,,,,,,,,,,,,,,,,,,,
,,,,,,,,,,,,l,Incorrect,,,,,,t1.png,t2.png,1,0.9,19,female,2020-10-23_12h45.55.452,torte-q,2020.1.3,Win32,60,13191,0.600875,,,,,,,,,,,,,,0,93,93,1,1,,,,,,,,,,,,,,,,,,,,,,,,,,
,,,,,,,,,,,,a,Incorrect,,,,,,t2.png,t4.png,2,0.0591,19,female,2020-10-23_12h45.55.452,torte-q,2020.1.3,Win32,60,13191,0.526155,,,,,,,,,,,,,,0,94,94,15,1,,,,,,,,,,,,,,,,,,,,,,,,,,
,,,,,,,,,,,,a,Correct!,,,,,,t5.png,t4.png,1,0.90025,19,female,2020-10-23_12h45.55.452,torte-q,2020.1.3,Win32,60,13191,0.70075,,,,,,,,,,,,,,0,95,95,27,1,,,,,,,,,,,,,,,,,,,,,,,,,,
,,,,,,,,,,,,a,Correct!,,,,,,t4.png,t4.png,0,0.98115,19,female,2020-10-23_12h45.55.452,torte-q,2020.1.3,Win32,60,13191,0.65664,,,,,,,,,,,,,,0,96,96,21,1,,,,,,,,,,,,,,,,,,,,,,,,,,
,,,,,,,,,,,,a,Incorrect,,,,,,t4.png,t1.png,3,0.0000131,19,female,2020-10-23_12h45.55.452,torte-q,2020.1.3,Win32,60,13191,0.50587,,,,,,,,,,,,,,0,97,97,42,1,,,,,,,,,,,,,,,,,,,,,,,,,,
,,,,,,,,,,,,l,Incorrect,,,,,,t2.png,t3.png,1,0.90855,19,female,2020-10-23_12h45.55.452,torte-q,2020.1.3,Win32,60,13191,0.625825,,,,,,,,,,,,,,0,98,98,68,1,,,,,,,,,,,,,,,,,,,,,,,,,,
,,,,,,,,,,,,a,Incorrect,,,,,,t5.png,t3.png,2,0.0565,19,female,2020-10-23_12h45.55.452,torte-q,2020.1.3,Win32,60,13191,0.507075,,,,,,,,,,,,,,0,99,99,39,1,,,,,,,,,,,,,,,,,,,,,,,,,,
,,,,,,,,,,,,l,Incorrect,,,,,,t1.png,t2.png,1,0.90025,19,female,2020-10-23_12h45.55.452,torte-q,2020.1.3,Win32,60,13191,0.64266,,,,,,,,,,,,,,0,100,100,105,1,,,,,,,,,,,,,,,,,,,,,,,,,,
,,,,,,,,,,,,a,Correct!,,,,,,t2.png,t1.png,1,0.9,19,female,2020-10-23_12h45.55.452,torte-q,2020.1.3,Win32,60,13191,0.567655,,,,,,,,,,,,,,0,101,101,118,1,,,,,,,,,,,,,,,,,,,,,,,,,,
,,,,,,,,,,,,a,Incorrect,,,,,,t5.png,t2.png,3,0.0000131,19,female,2020-10-23_12h45.55.452,torte-q,2020.1.3,Win32,60,13191,1.127285,,,,,,,,,,,,,,0,102,102,119,1,,,,,,,,,,,,,,,,,,,,,,,,,,
,,,,,,,,,,,,a,Correct!,,,,,,t5.png,t4.png,1,0.90025,19,female,2020-10-23_12h45.55.452,torte-q,2020.1.3,Win32,60,13191,0.658635,,,,,,,,,,,,,,0,103,103,34,1,,,,,,,,,,,,,,,,,,,,,,,,,,
,,,,,,,,,,,,a,Correct!,,,,,,t4.png,t5.png,1,0.90025,19,female,2020-10-23_12h45.55.452,torte-q,2020.1.3,Win32,60,13191,0.65143,,,,,,,,,,,,,,0,104,104,58,1,,,,,,,,,,,,,,,,,,,,,,,,,,
,,,,,,,,,,,,l,Incorrect,,,,,,t3.png,t4.png,1,0.909,19,female,2020-10-23_12h45.55.452,torte-q,2020.1.3,Win32,60,13191,0.556665,,,,,,,,,,,,,,0,105,105,82,1,,,,,,,,,,,,,,,,,,,,,,,,,,
,,,,,,,,,,,,a,Correct!,,,,,,t2.png,t1.png,1,0.90025,19,female,2020-10-23_12h45.55.452,torte-q,2020.1.3,Win32,60,13191,0.50264,,,,,,,,,,,,,,0,106,106,4,1,,,,,,,,,,,,,,,,,,,,,,,,,,
,,,,,,,,,,,,a,Correct!,,,,,,t5.png,t4.png,1,0.90025,19,female,2020-10-23_12h45.55.452,torte-q,2020.1.3,Win32,60,13191,0.5632,,,,,,,,,,,,,,0,107,107,26,1,,,,,,,,,,,,,,,,,,,,,,,,,,
,,,,,,,,,,,,a,Incorrect,,,,,,t5.png,t1.png,4,9.55E-11,19,female,2020-10-23_12h45.55.452,torte-q,2020.1.3,Win32,60,13191,1.137685,,,,,,,,,,,,,,0,108,108,102,1,,,,,,,,,,,,,,,,,,,,,,,,,,
,,,,,,,,,,,,a,Correct!,,,,,,t3.png,t2.png,1,0.90855,19,female,2020-10-23_12h45.55.452,torte-q,2020.1.3,Win32,60,13191,0.60684,,,,,,,,,,,,,,0,109,109,18,1,,,,,,,,,,,,,,,,,,,,,,,,,,
,,,,,,,,,,,,a,Correct!,,,,,,t2.png,t1.png,1,0.90025,19,female,2020-10-23_12h45.55.452,torte-q,2020.1.3,Win32,60,13191,0.41981,,,,,,,,,,,,,,0,110,110,19,1,,,,,,,,,,,,,,,,,,,,,,,,,,
,,,,,,,,,,,,a,Incorrect,,,,,,t5.png,t2.png,3,0.0000131,19,female,2020-10-23_12h45.55.452,torte-q,2020.1.3,Win32,60,13191,0.340475,,,,,,,,,,,,,,0,111,111,51,1,,,,,,,,,,,,,,,,,,,,,,,,,,
,,,,,,,,,,,,a,Incorrect,,,,,,t4.png,t1.png,3,0.0000131,19,female,2020-10-23_12h45.55.452,torte-q,2020.1.3,Win32,60,13191,0.484225,,,,,,,,,,,,,,0,112,112,13,1,,,,,,,,,,,,,,,,,,,,,,,,,,
,,,,,,,,,,,,a,Incorrect,,,,,,t4.png,t2.png,2,0.059078,19,female,2020-10-23_12h45.55.452,torte-q,2020.1.3,Win32,60,13191,0.49534,,,,,,,,,,,,,,0,113,113,109,1,,,,,,,,,,,,,,,,,,,,,,,,,,
,,,,,,,,,,,,l,Correct!,,,,,,t1.png,t4.png,3,0.0000131,19,female,2020-10-23_12h45.55.452,torte-q,2020.1.3,Win32,60,13191,0.78434,,,,,,,,,,,,,,0,114,114,92,1,,,,,,,,,,,,,,,,,,,,,,,,,,
,,,,,,,,,,,,a,Incorrect,,,,,,t4.png,t1.png,3,0.0000131,19,female,2020-10-23_12h45.55.452,torte-q,2020.1.3,Win32,60,13191,0.511335,,,,,,,,,,,,,,0,115,115,61,1,,,,,,,,,,,,,,,,,,,,,,,,,,
,,,,,,,,,,,,a,Correct!,,,,,,t1.png,t1.png,0,0.978,19,female,2020-10-23_12h45.55.452,torte-q,2020.1.3,Win32,60,13191,0.848325,,,,,,,,,,,,,,0,116,116,54,1,,,,,,,,,,,,,,,,,,,,,,,,,,
,,,,,,,,,,,,l,Correct!,,,,,,t1.png,t5.png,4,9.55E-11,19,female,2020-10-23_12h45.55.452,torte-q,2020.1.3,Win32,60,13191,0.474175,,,,,,,,,,,,,,0,117,117,85,1,,,,,,,,,,,,,,,,,,,,,,,,,,
,,,,,,,,,,,,l,Correct!,,,,,,t1.png,t4.png,3,0.0000131,19,female,2020-10-23_12h45.55.452,torte-q,2020.1.3,Win32,60,13191,0.686335,,,,,,,,,,,,,,0,118,118,17,1,,,,,,,,,,,,,,,,,,,,,,,,,,
,,,,,,,,,,,,a,Correct!,,,,,,t3.png,t2.png,1,0.909,19,female,2020-10-23_12h45.55.452,torte-q,2020.1.3,Win32,60,13191,0.418975,,,,,,,,,,,,,,0,119,119,23,1,,,,,,,,,,,,,,,,,,,,,,,,,,
,,,,,,,,,,,,,,,,,,,,,,,19,female,2020-10-23_12h45.55.452,torte-q,2020.1.3,Win32,60,13191,,space,1.53426,,,,,,,,,,,,,,,,,4.015,4.28859,17.33339361,56.66665763,1,0,0,s3,24.66668648,27.99999011,1,0,0,t2,160.6666905,-102.0000138,1,0,0,proceed,space,0.172025,space,0.490065,space,0.008035
