key_resp_8.keys,key_resp_8.rt,key_resp_9.keys,key_resp_9.rt,key_resp_10.keys,key_resp_10.rt,key_resp_11.keys,key_resp_11.rt,key_resp_2.keys,key_resp_2.rt,key_resp_3.keys,key_resp_3.rt,key_resp.keys,Feedback,train.thisRepN,train.thisTrialN,train.thisN,train.thisIndex,train.ran,torta_sx,torta_dx,difference,probability,age,gender,date,expName,psychopyVersion,OS,frameRate,participant,key_resp.rt,key_resp_15.keys,key_resp_15.rt,key_resp_6.keys,key_resp_6.rt,test1.thisRepN,test1.thisTrialN,test1.thisN,test1.thisIndex,test1.ran,key_resp_16.keys,key_resp_16.rt,key_resp_7.keys,key_resp_7.rt,test2.thisRepN,test2.thisTrialN,test2.thisN,test2.thisIndex,test2.ran,rating.response,rating.rt,mouse.x,mouse.y,mouse.leftButton,mouse.midButton,mouse.rightButton,mouse.clicked_name,mouse_2.x,mouse_2.y,mouse_2.leftButton,mouse_2.midButton,mouse_2.rightButton,mouse_2.clicked_name,mouse_3.x,mouse_3.y,mouse_3.leftButton,mouse_3.midButton,mouse_3.rightButton,mouse_3.clicked_name,key_resp_12.keys,key_resp_12.rt,key_resp_13.keys,key_resp_13.rt,key_resp_14.keys,key_resp_14.rt
space,5.748,space,0.152,space,1.459,space,0.042,space,15.618,space,15.168,,Too slow :(,0,0,0,1,1,t2.png,t4.png,2,0.059078,20,Female,2020-10-25_13h40.18.548,torte-q,2020.1.3,Win32,60,13208,,,,,,,,,,,,,,,,,,,,,,,,,,,,,,,,,,,,,,,,,,,,,
,,,,,,,,,,,,a,Incorrect,0,1,1,27,1,t3.png,t1.png,2,0.0565,20,Female,2020-10-25_13h40.18.548,torte-q,2020.1.3,Win32,60,13208,1.216,,,,,,,,,,,,,,,,,,,,,,,,,,,,,,,,,,,,,,,,,,,,
,,,,,,,,,,,,l,Correct!,0,2,2,38,1,t3.png,t1.png,2,0.056466,20,Female,2020-10-25_13h40.18.548,torte-q,2020.1.3,Win32,60,13208,1.049,,,,,,,,,,,,,,,,,,,,,,,,,,,,,,,,,,,,,,,,,,,,
,,,,,,,,,,,,a,Incorrect,0,3,3,30,1,t3.png,t1.png,2,0.056466,20,Female,2020-10-25_13h40.18.548,torte-q,2020.1.3,Win32,60,13208,0.699,,,,,,,,,,,,,,,,,,,,,,,,,,,,,,,,,,,,,,,,,,,,
,,,,,,,,,,,,a,Incorrect,0,4,4,88,1,t3.png,t1.png,2,0.056466,20,Female,2020-10-25_13h40.18.548,torte-q,2020.1.3,Win32,60,13208,1.786,,,,,,,,,,,,,,,,,,,,,,,,,,,,,,,,,,,,,,,,,,,,
,,,,,,,,,,,,l,Incorrect,0,5,5,84,1,t1.png,t1.png,0,0.97829,20,Female,2020-10-25_13h40.18.548,torte-q,2020.1.3,Win32,60,13208,1.419,,,,,,,,,,,,,,,,,,,,,,,,,,,,,,,,,,,,,,,,,,,,
,,,,,,,,,,,,l,Incorrect,0,6,6,105,1,t3.png,t2.png,1,0.90855,20,Female,2020-10-25_13h40.18.548,torte-q,2020.1.3,Win32,60,13208,2.162,,,,,,,,,,,,,,,,,,,,,,,,,,,,,,,,,,,,,,,,,,,,
,,,,,,,,,,,,a,Correct!,0,7,7,25,1,t5.png,t5.png,0,0.97829,20,Female,2020-10-25_13h40.18.548,torte-q,2020.1.3,Win32,60,13208,2.184,,,,,,,,,,,,,,,,,,,,,,,,,,,,,,,,,,,,,,,,,,,,
,,,,,,,,,,,,,Too slow :(,0,8,8,12,1,t5.png,t1.png,4,9.55E-11,20,Female,2020-10-25_13h40.18.548,torte-q,2020.1.3,Win32,60,13208,,,,,,,,,,,,,,,,,,,,,,,,,,,,,,,,,,,,,,,,,,,,,
,,,,,,,,,,,,,Too slow :(,0,9,9,72,1,t4.png,t2.png,2,0.059078,20,Female,2020-10-25_13h40.18.548,torte-q,2020.1.3,Win32,60,13208,,,,,,,,,,,,,,,,,,,,,,,,,,,,,,,,,,,,,,,,,,,,,
,,,,,,,,,,,,l,Incorrect,0,10,10,15,1,t3.png,t2.png,1,0.90855,20,Female,2020-10-25_13h40.18.548,torte-q,2020.1.3,Win32,60,13208,1.299,,,,,,,,,,,,,,,,,,,,,,,,,,,,,,,,,,,,,,,,,,,,
,,,,,,,,,,,,a,Incorrect,0,11,11,67,1,t1.png,t5.png,4,9.55E-11,20,Female,2020-10-25_13h40.18.548,torte-q,2020.1.3,Win32,60,13208,1.402,,,,,,,,,,,,,,,,,,,,,,,,,,,,,,,,,,,,,,,,,,,,
,,,,,,,,,,,,l,Correct!,0,12,12,85,1,t3.png,t2.png,1,0.90855,20,Female,2020-10-25_13h40.18.548,torte-q,2020.1.3,Win32,60,13208,1.269,,,,,,,,,,,,,,,,,,,,,,,,,,,,,,,,,,,,,,,,,,,,
,,,,,,,,,,,,a,Incorrect,0,13,13,94,1,t5.png,t1.png,4,9.55E-11,20,Female,2020-10-25_13h40.18.548,torte-q,2020.1.3,Win32,60,13208,1.948,,,,,,,,,,,,,,,,,,,,,,,,,,,,,,,,,,,,,,,,,,,,
,,,,,,,,,,,,l,Correct!,0,14,14,33,1,t5.png,t1.png,4,9.55E-11,20,Female,2020-10-25_13h40.18.548,torte-q,2020.1.3,Win32,60,13208,1.016,,,,,,,,,,,,,,,,,,,,,,,,,,,,,,,,,,,,,,,,,,,,
,,,,,,,,,,,,l,Incorrect,0,15,15,20,1,t2.png,t3.png,1,0.90855,20,Female,2020-10-25_13h40.18.548,torte-q,2020.1.3,Win32,60,13208,1.214,,,,,,,,,,,,,,,,,,,,,,,,,,,,,,,,,,,,,,,,,,,,
,,,,,,,,,,,,a,Correct!,0,16,16,81,1,t1.png,t1.png,0,0.97829,20,Female,2020-10-25_13h40.18.548,torte-q,2020.1.3,Win32,60,13208,1.634,,,,,,,,,,,,,,,,,,,,,,,,,,,,,,,,,,,,,,,,,,,,
,,,,,,,,,,,,a,Incorrect,0,17,17,83,1,t3.png,t1.png,2,0.056466,20,Female,2020-10-25_13h40.18.548,torte-q,2020.1.3,Win32,60,13208,0.95,,,,,,,,,,,,,,,,,,,,,,,,,,,,,,,,,,,,,,,,,,,,
,,,,,,,,,,,,l,Correct!,0,18,18,36,1,t3.png,t1.png,2,0.0565,20,Female,2020-10-25_13h40.18.548,torte-q,2020.1.3,Win32,60,13208,1.951,,,,,,,,,,,,,,,,,,,,,,,,,,,,,,,,,,,,,,,,,,,,
,,,,,,,,,,,,a,Incorrect,0,19,19,24,1,t4.png,t2.png,2,0.059078,20,Female,2020-10-25_13h40.18.548,torte-q,2020.1.3,Win32,60,13208,1.945,,,,,,,,,,,,,,,,,,,,,,,,,,,,,,,,,,,,,,,,,,,,
,,,,,,,,,,,,l,Correct!,0,20,20,87,1,t5.png,t1.png,4,9.55E-11,20,Female,2020-10-25_13h40.18.548,torte-q,2020.1.3,Win32,60,13208,1.622,,,,,,,,,,,,,,,,,,,,,,,,,,,,,,,,,,,,,,,,,,,,
,,,,,,,,,,,,a,Incorrect,0,21,21,6,1,t1.png,t4.png,3,0.0000131,20,Female,2020-10-25_13h40.18.548,torte-q,2020.1.3,Win32,60,13208,1.665,,,,,,,,,,,,,,,,,,,,,,,,,,,,,,,,,,,,,,,,,,,,
,,,,,,,,,,,,l,Correct!,0,22,22,108,1,t5.png,t1.png,4,9.55E-11,20,Female,2020-10-25_13h40.18.548,torte-q,2020.1.3,Win32,60,13208,1.099,,,,,,,,,,,,,,,,,,,,,,,,,,,,,,,,,,,,,,,,,,,,
,,,,,,,,,,,,a,Incorrect,0,23,23,40,1,t1.png,t5.png,4,9.55E-11,20,Female,2020-10-25_13h40.18.548,torte-q,2020.1.3,Win32,60,13208,1.566,,,,,,,,,,,,,,,,,,,,,,,,,,,,,,,,,,,,,,,,,,,,
,,,,,,,,,,,,l,Incorrect,0,24,24,109,1,t5.png,t5.png,0,0.97829,20,Female,2020-10-25_13h40.18.548,torte-q,2020.1.3,Win32,60,13208,1.799,,,,,,,,,,,,,,,,,,,,,,,,,,,,,,,,,,,,,,,,,,,,
,,,,,,,,,,,,l,Correct!,0,25,25,47,1,t4.png,t2.png,2,0.059078,20,Female,2020-10-25_13h40.18.548,torte-q,2020.1.3,Win32,60,13208,1.1,,,,,,,,,,,,,,,,,,,,,,,,,,,,,,,,,,,,,,,,,,,,
,,,,,,,,,,,,l,Correct!,0,26,26,100,1,t4.png,t5.png,1,0.90025,20,Female,2020-10-25_13h40.18.548,torte-q,2020.1.3,Win32,60,13208,1.232,,,,,,,,,,,,,,,,,,,,,,,,,,,,,,,,,,,,,,,,,,,,
,,,,,,,,,,,,l,Correct!,0,27,27,31,1,t1.png,t5.png,4,9.55E-11,20,Female,2020-10-25_13h40.18.548,torte-q,2020.1.3,Win32,60,13208,1.116,,,,,,,,,,,,,,,,,,,,,,,,,,,,,,,,,,,,,,,,,,,,
,,,,,,,,,,,,l,Incorrect,0,28,28,19,1,t4.png,t2.png,2,0.059078,20,Female,2020-10-25_13h40.18.548,torte-q,2020.1.3,Win32,60,13208,1.066,,,,,,,,,,,,,,,,,,,,,,,,,,,,,,,,,,,,,,,,,,,,
,,,,,,,,,,,,a,Correct!,0,29,29,2,1,t3.png,t2.png,1,0.90855,20,Female,2020-10-25_13h40.18.548,torte-q,2020.1.3,Win32,60,13208,1.766,,,,,,,,,,,,,,,,,,,,,,,,,,,,,,,,,,,,,,,,,,,,
,,,,,,,,,,,,l,Correct!,0,30,30,60,1,t2.png,t4.png,2,0.059078,20,Female,2020-10-25_13h40.18.548,torte-q,2020.1.3,Win32,60,13208,1.401,,,,,,,,,,,,,,,,,,,,,,,,,,,,,,,,,,,,,,,,,,,,
,,,,,,,,,,,,l,Correct!,0,31,31,17,1,t1.png,t4.png,3,0.0000131,20,Female,2020-10-25_13h40.18.548,torte-q,2020.1.3,Win32,60,13208,1.252,,,,,,,,,,,,,,,,,,,,,,,,,,,,,,,,,,,,,,,,,,,,
,,,,,,,,,,,,a,Correct!,0,32,32,64,1,t1.png,t1.png,0,0.978,20,Female,2020-10-25_13h40.18.548,torte-q,2020.1.3,Win32,60,13208,1.53,,,,,,,,,,,,,,,,,,,,,,,,,,,,,,,,,,,,,,,,,,,,
,,,,,,,,,,,,,Too slow :(,0,33,33,57,1,t2.png,t4.png,2,0.059078,20,Female,2020-10-25_13h40.18.548,torte-q,2020.1.3,Win32,60,13208,,,,,,,,,,,,,,,,,,,,,,,,,,,,,,,,,,,,,,,,,,,,,
,,,,,,,,,,,,a,Incorrect,0,34,34,50,1,t5.png,t1.png,4,9.55E-11,20,Female,2020-10-25_13h40.18.548,torte-q,2020.1.3,Win32,60,13208,1.902,,,,,,,,,,,,,,,,,,,,,,,,,,,,,,,,,,,,,,,,,,,,
,,,,,,,,,,,,l,Incorrect,0,35,35,42,1,t5.png,t4.png,1,0.90025,20,Female,2020-10-25_13h40.18.548,torte-q,2020.1.3,Win32,60,13208,1.283,,,,,,,,,,,,,,,,,,,,,,,,,,,,,,,,,,,,,,,,,,,,
,,,,,,,,,,,,l,Correct!,0,36,36,52,1,t2.png,t4.png,2,0.059078,20,Female,2020-10-25_13h40.18.548,torte-q,2020.1.3,Win32,60,13208,1.91,,,,,,,,,,,,,,,,,,,,,,,,,,,,,,,,,,,,,,,,,,,,
,,,,,,,,,,,,l,Incorrect,0,37,37,48,1,t5.png,t5.png,0,0.97829,20,Female,2020-10-25_13h40.18.548,torte-q,2020.1.3,Win32,60,13208,2.181,,,,,,,,,,,,,,,,,,,,,,,,,,,,,,,,,,,,,,,,,,,,
,,,,,,,,,,,,l,Correct!,0,38,38,89,1,t1.png,t4.png,3,0.0000131,20,Female,2020-10-25_13h40.18.548,torte-q,2020.1.3,Win32,60,13208,1.803,,,,,,,,,,,,,,,,,,,,,,,,,,,,,,,,,,,,,,,,,,,,
,,,,,,,,,,,,a,Incorrect,0,39,39,56,1,t5.png,t1.png,4,9.55E-11,20,Female,2020-10-25_13h40.18.548,torte-q,2020.1.3,Win32,60,13208,1.916,,,,,,,,,,,,,,,,,,,,,,,,,,,,,,,,,,,,,,,,,,,,
,,,,,,,,,,,,a,Correct!,0,40,40,39,1,t3.png,t2.png,1,0.90855,20,Female,2020-10-25_13h40.18.548,torte-q,2020.1.3,Win32,60,13208,2.104,,,,,,,,,,,,,,,,,,,,,,,,,,,,,,,,,,,,,,,,,,,,
,,,,,,,,,,,,l,Correct!,0,41,41,46,1,t4.png,t2.png,2,0.059078,20,Female,2020-10-25_13h40.18.548,torte-q,2020.1.3,Win32,60,13208,1.199,,,,,,,,,,,,,,,,,,,,,,,,,,,,,,,,,,,,,,,,,,,,
,,,,,,,,,,,,a,Correct!,0,42,42,41,1,t3.png,t2.png,1,0.90855,20,Female,2020-10-25_13h40.18.548,torte-q,2020.1.3,Win32,60,13208,1.248,,,,,,,,,,,,,,,,,,,,,,,,,,,,,,,,,,,,,,,,,,,,
,,,,,,,,,,,,l,Correct!,0,43,43,11,1,t1.png,t4.png,3,0.0000131,20,Female,2020-10-25_13h40.18.548,torte-q,2020.1.3,Win32,60,13208,1.312,,,,,,,,,,,,,,,,,,,,,,,,,,,,,,,,,,,,,,,,,,,,
,,,,,,,,,,,,l,Correct!,0,44,44,91,1,t1.png,t4.png,3,0.0000131,20,Female,2020-10-25_13h40.18.548,torte-q,2020.1.3,Win32,60,13208,1.174,,,,,,,,,,,,,,,,,,,,,,,,,,,,,,,,,,,,,,,,,,,,
,,,,,,,,,,,,a,Correct!,0,45,45,78,1,t1.png,t1.png,0,0.978,20,Female,2020-10-25_13h40.18.548,torte-q,2020.1.3,Win32,60,13208,1.116,,,,,,,,,,,,,,,,,,,,,,,,,,,,,,,,,,,,,,,,,,,,
,,,,,,,,,,,,l,Incorrect,0,46,46,114,1,t2.png,t3.png,1,0.90855,20,Female,2020-10-25_13h40.18.548,torte-q,2020.1.3,Win32,60,13208,1.152,,,,,,,,,,,,,,,,,,,,,,,,,,,,,,,,,,,,,,,,,,,,
,,,,,,,,,,,,l,Incorrect,0,47,47,32,1,t4.png,t5.png,1,0.90025,20,Female,2020-10-25_13h40.18.548,torte-q,2020.1.3,Win32,60,13208,1.136,,,,,,,,,,,,,,,,,,,,,,,,,,,,,,,,,,,,,,,,,,,,
,,,,,,,,,,,,a,Correct!,0,48,48,7,1,t4.png,t5.png,1,0.90025,20,Female,2020-10-25_13h40.18.548,torte-q,2020.1.3,Win32,60,13208,1.294,,,,,,,,,,,,,,,,,,,,,,,,,,,,,,,,,,,,,,,,,,,,
,,,,,,,,,,,,a,Correct!,0,49,49,49,1,t4.png,t5.png,1,0.9,20,Female,2020-10-25_13h40.18.548,torte-q,2020.1.3,Win32,60,13208,1.219,,,,,,,,,,,,,,,,,,,,,,,,,,,,,,,,,,,,,,,,,,,,
,,,,,,,,,,,,a,Correct!,0,50,50,113,1,t5.png,t4.png,1,0.9,20,Female,2020-10-25_13h40.18.548,torte-q,2020.1.3,Win32,60,13208,0.879,,,,,,,,,,,,,,,,,,,,,,,,,,,,,,,,,,,,,,,,,,,,
,,,,,,,,,,,,a,Correct!,0,51,51,110,1,t4.png,t5.png,1,0.90025,20,Female,2020-10-25_13h40.18.548,torte-q,2020.1.3,Win32,60,13208,0.966,,,,,,,,,,,,,,,,,,,,,,,,,,,,,,,,,,,,,,,,,,,,
,,,,,,,,,,,,a,Incorrect,0,52,52,23,1,t5.png,t4.png,1,0.90025,20,Female,2020-10-25_13h40.18.548,torte-q,2020.1.3,Win32,60,13208,1.122,,,,,,,,,,,,,,,,,,,,,,,,,,,,,,,,,,,,,,,,,,,,
,,,,,,,,,,,,l,Incorrect,0,53,53,58,1,t5.png,t4.png,1,0.90025,20,Female,2020-10-25_13h40.18.548,torte-q,2020.1.3,Win32,60,13208,2.068,,,,,,,,,,,,,,,,,,,,,,,,,,,,,,,,,,,,,,,,,,,,
,,,,,,,,,,,,a,Incorrect,0,54,54,82,1,t5.png,t1.png,4,9.55E-11,20,Female,2020-10-25_13h40.18.548,torte-q,2020.1.3,Win32,60,13208,1.254,,,,,,,,,,,,,,,,,,,,,,,,,,,,,,,,,,,,,,,,,,,,
,,,,,,,,,,,,a,Correct!,0,55,55,28,1,t2.png,t3.png,1,0.909,20,Female,2020-10-25_13h40.18.548,torte-q,2020.1.3,Win32,60,13208,1.355,,,,,,,,,,,,,,,,,,,,,,,,,,,,,,,,,,,,,,,,,,,,
,,,,,,,,,,,,a,Correct!,0,56,56,107,1,t1.png,t1.png,0,0.978,20,Female,2020-10-25_13h40.18.548,torte-q,2020.1.3,Win32,60,13208,1.266,,,,,,,,,,,,,,,,,,,,,,,,,,,,,,,,,,,,,,,,,,,,
,,,,,,,,,,,,a,Correct!,0,57,57,44,1,t2.png,t3.png,1,0.909,20,Female,2020-10-25_13h40.18.548,torte-q,2020.1.3,Win32,60,13208,1.517,,,,,,,,,,,,,,,,,,,,,,,,,,,,,,,,,,,,,,,,,,,,
,,,,,,,,,,,,a,Incorrect,0,58,58,93,1,t2.png,t4.png,2,0.059078,20,Female,2020-10-25_13h40.18.548,torte-q,2020.1.3,Win32,60,13208,2.336,,,,,,,,,,,,,,,,,,,,,,,,,,,,,,,,,,,,,,,,,,,,
,,,,,,,,,,,,a,Incorrect,0,59,59,115,1,t2.png,t4.png,2,0.059078,20,Female,2020-10-25_13h40.18.548,torte-q,2020.1.3,Win32,60,13208,2.401,,,,,,,,,,,,,,,,,,,,,,,,,,,,,,,,,,,,,,,,,,,,
,,,,,,,,,,,,a,Incorrect,0,60,60,4,1,t1.png,t5.png,4,9.55E-11,20,Female,2020-10-25_13h40.18.548,torte-q,2020.1.3,Win32,60,13208,1.573,,,,,,,,,,,,,,,,,,,,,,,,,,,,,,,,,,,,,,,,,,,,
,,,,,,,,,,,,a,Correct!,0,61,61,96,1,t1.png,t1.png,0,0.97829,20,Female,2020-10-25_13h40.18.548,torte-q,2020.1.3,Win32,60,13208,1.083,,,,,,,,,,,,,,,,,,,,,,,,,,,,,,,,,,,,,,,,,,,,
,,,,,,,,,,,,a,Correct!,0,62,62,77,1,t1.png,t1.png,0,0.97829,20,Female,2020-10-25_13h40.18.548,torte-q,2020.1.3,Win32,60,13208,0.766,,,,,,,,,,,,,,,,,,,,,,,,,,,,,,,,,,,,,,,,,,,,
,,,,,,,,,,,,l,Correct!,0,63,63,54,1,t1.png,t5.png,4,9.55E-11,20,Female,2020-10-25_13h40.18.548,torte-q,2020.1.3,Win32,60,13208,1.505,,,,,,,,,,,,,,,,,,,,,,,,,,,,,,,,,,,,,,,,,,,,
,,,,,,,,,,,,l,Correct!,0,64,64,55,1,t2.png,t4.png,2,0.059078,20,Female,2020-10-25_13h40.18.548,torte-q,2020.1.3,Win32,60,13208,1.107,,,,,,,,,,,,,,,,,,,,,,,,,,,,,,,,,,,,,,,,,,,,
,,,,,,,,,,,,a,Correct!,0,65,65,71,1,t5.png,t5.png,0,0.97829,20,Female,2020-10-25_13h40.18.548,torte-q,2020.1.3,Win32,60,13208,0.864,,,,,,,,,,,,,,,,,,,,,,,,,,,,,,,,,,,,,,,,,,,,
,,,,,,,,,,,,l,Correct!,0,66,66,37,1,t1.png,t4.png,3,0.0000131,20,Female,2020-10-25_13h40.18.548,torte-q,2020.1.3,Win32,60,13208,1.549,,,,,,,,,,,,,,,,,,,,,,,,,,,,,,,,,,,,,,,,,,,,
,,,,,,,,,,,,a,Correct!,0,67,67,10,1,t2.png,t3.png,1,0.90855,20,Female,2020-10-25_13h40.18.548,torte-q,2020.1.3,Win32,60,13208,1.118,,,,,,,,,,,,,,,,,,,,,,,,,,,,,,,,,,,,,,,,,,,,
,,,,,,,,,,,,a,Correct!,0,68,68,104,1,t2.png,t3.png,1,0.90855,20,Female,2020-10-25_13h40.18.548,torte-q,2020.1.3,Win32,60,13208,0.796,,,,,,,,,,,,,,,,,,,,,,,,,,,,,,,,,,,,,,,,,,,,
,,,,,,,,,,,,l,Correct!,0,69,69,111,1,t5.png,t1.png,4,9.55E-11,20,Female,2020-10-25_13h40.18.548,torte-q,2020.1.3,Win32,60,13208,1.22,,,,,,,,,,,,,,,,,,,,,,,,,,,,,,,,,,,,,,,,,,,,
,,,,,,,,,,,,a,Correct!,0,70,70,29,1,t5.png,t5.png,0,0.97829,20,Female,2020-10-25_13h40.18.548,torte-q,2020.1.3,Win32,60,13208,0.932,,,,,,,,,,,,,,,,,,,,,,,,,,,,,,,,,,,,,,,,,,,,
,,,,,,,,,,,,a,Correct!,0,71,71,65,1,t4.png,t5.png,1,0.90025,20,Female,2020-10-25_13h40.18.548,torte-q,2020.1.3,Win32,60,13208,1.599,,,,,,,,,,,,,,,,,,,,,,,,,,,,,,,,,,,,,,,,,,,,
,,,,,,,,,,,,a,Incorrect,0,72,72,51,1,t3.png,t1.png,2,0.056466,20,Female,2020-10-25_13h40.18.548,torte-q,2020.1.3,Win32,60,13208,1.217,,,,,,,,,,,,,,,,,,,,,,,,,,,,,,,,,,,,,,,,,,,,
,,,,,,,,,,,,a,Incorrect,0,73,73,102,1,t4.png,t2.png,2,0.059078,20,Female,2020-10-25_13h40.18.548,torte-q,2020.1.3,Win32,60,13208,1.064,,,,,,,,,,,,,,,,,,,,,,,,,,,,,,,,,,,,,,,,,,,,
,,,,,,,,,,,,a,Correct!,0,74,74,112,1,t1.png,t1.png,0,0.97829,20,Female,2020-10-25_13h40.18.548,torte-q,2020.1.3,Win32,60,13208,0.827,,,,,,,,,,,,,,,,,,,,,,,,,,,,,,,,,,,,,,,,,,,,
,,,,,,,,,,,,l,Correct!,0,75,75,5,1,t2.png,t4.png,2,0.059078,20,Female,2020-10-25_13h40.18.548,torte-q,2020.1.3,Win32,60,13208,1.57,,,,,,,,,,,,,,,,,,,,,,,,,,,,,,,,,,,,,,,,,,,,
,,,,,,,,,,,,a,Correct!,0,76,76,34,1,t5.png,t4.png,1,0.9,20,Female,2020-10-25_13h40.18.548,torte-q,2020.1.3,Win32,60,13208,1.081,,,,,,,,,,,,,,,,,,,,,,,,,,,,,,,,,,,,,,,,,,,,
,,,,,,,,,,,,a,Correct!,0,77,77,18,1,t4.png,t5.png,1,0.90025,20,Female,2020-10-25_13h40.18.548,torte-q,2020.1.3,Win32,60,13208,1.037,,,,,,,,,,,,,,,,,,,,,,,,,,,,,,,,,,,,,,,,,,,,
,,,,,,,,,,,,a,Correct!,0,78,78,74,1,t5.png,t4.png,1,0.9,20,Female,2020-10-25_13h40.18.548,torte-q,2020.1.3,Win32,60,13208,0.963,,,,,,,,,,,,,,,,,,,,,,,,,,,,,,,,,,,,,,,,,,,,
,,,,,,,,,,,,a,Correct!,0,79,79,95,1,t1.png,t1.png,0,0.978,20,Female,2020-10-25_13h40.18.548,torte-q,2020.1.3,Win32,60,13208,0.838,,,,,,,,,,,,,,,,,,,,,,,,,,,,,,,,,,,,,,,,,,,,
,,,,,,,,,,,,a,Incorrect,0,80,80,92,1,t2.png,t3.png,1,0.909,20,Female,2020-10-25_13h40.18.548,torte-q,2020.1.3,Win32,60,13208,0.854,,,,,,,,,,,,,,,,,,,,,,,,,,,,,,,,,,,,,,,,,,,,
,,,,,,,,,,,,l,Correct!,0,81,81,69,1,t4.png,t2.png,2,0.059078,20,Female,2020-10-25_13h40.18.548,torte-q,2020.1.3,Win32,60,13208,2.231,,,,,,,,,,,,,,,,,,,,,,,,,,,,,,,,,,,,,,,,,,,,
,,,,,,,,,,,,a,Correct!,0,82,82,97,1,t5.png,t5.png,0,0.97829,20,Female,2020-10-25_13h40.18.548,torte-q,2020.1.3,Win32,60,13208,1.163,,,,,,,,,,,,,,,,,,,,,,,,,,,,,,,,,,,,,,,,,,,,
,,,,,,,,,,,,a,Correct!,0,83,83,116,1,t5.png,t4.png,1,0.90025,20,Female,2020-10-25_13h40.18.548,torte-q,2020.1.3,Win32,60,13208,1.416,,,,,,,,,,,,,,,,,,,,,,,,,,,,,,,,,,,,,,,,,,,,
,,,,,,,,,,,,a,Correct!,0,84,84,66,1,t4.png,t5.png,1,0.9,20,Female,2020-10-25_13h40.18.548,torte-q,2020.1.3,Win32,60,13208,0.808,,,,,,,,,,,,,,,,,,,,,,,,,,,,,,,,,,,,,,,,,,,,
,,,,,,,,,,,,a,Correct!,0,85,85,45,1,t3.png,t2.png,1,0.90855,20,Female,2020-10-25_13h40.18.548,torte-q,2020.1.3,Win32,60,13208,0.811,,,,,,,,,,,,,,,,,,,,,,,,,,,,,,,,,,,,,,,,,,,,
,,,,,,,,,,,,l,Correct!,0,86,86,103,1,t3.png,t1.png,2,0.056466,20,Female,2020-10-25_13h40.18.548,torte-q,2020.1.3,Win32,60,13208,0.932,,,,,,,,,,,,,,,,,,,,,,,,,,,,,,,,,,,,,,,,,,,,
,,,,,,,,,,,,a,Correct!,0,87,87,8,1,t3.png,t2.png,1,0.90855,20,Female,2020-10-25_13h40.18.548,torte-q,2020.1.3,Win32,60,13208,0.992,,,,,,,,,,,,,,,,,,,,,,,,,,,,,,,,,,,,,,,,,,,,
,,,,,,,,,,,,l,Correct!,0,88,88,73,1,t4.png,t2.png,2,0.059078,20,Female,2020-10-25_13h40.18.548,torte-q,2020.1.3,Win32,60,13208,1.361,,,,,,,,,,,,,,,,,,,,,,,,,,,,,,,,,,,,,,,,,,,,
,,,,,,,,,,,,l,Correct!,0,89,89,26,1,t4.png,t2.png,2,0.0591,20,Female,2020-10-25_13h40.18.548,torte-q,2020.1.3,Win32,60,13208,2.034,,,,,,,,,,,,,,,,,,,,,,,,,,,,,,,,,,,,,,,,,,,,
,,,,,,,,,,,,a,Correct!,0,90,90,22,1,t2.png,t3.png,1,0.90855,20,Female,2020-10-25_13h40.18.548,torte-q,2020.1.3,Win32,60,13208,0.865,,,,,,,,,,,,,,,,,,,,,,,,,,,,,,,,,,,,,,,,,,,,
,,,,,,,,,,,,a,Correct!,0,91,91,62,1,t5.png,t5.png,0,0.978,20,Female,2020-10-25_13h40.18.548,torte-q,2020.1.3,Win32,60,13208,0.969,,,,,,,,,,,,,,,,,,,,,,,,,,,,,,,,,,,,,,,,,,,,
,,,,,,,,,,,,l,Correct!,0,92,92,53,1,t3.png,t1.png,2,0.056466,20,Female,2020-10-25_13h40.18.548,torte-q,2020.1.3,Win32,60,13208,1.1,,,,,,,,,,,,,,,,,,,,,,,,,,,,,,,,,,,,,,,,,,,,
,,,,,,,,,,,,l,Correct!,0,93,93,99,1,t1.png,t5.png,4,9.55E-11,20,Female,2020-10-25_13h40.18.548,torte-q,2020.1.3,Win32,60,13208,0.815,,,,,,,,,,,,,,,,,,,,,,,,,,,,,,,,,,,,,,,,,,,,
,,,,,,,,,,,,l,Correct!,0,94,94,14,1,t2.png,t4.png,2,0.059078,20,Female,2020-10-25_13h40.18.548,torte-q,2020.1.3,Win32,60,13208,1.351,,,,,,,,,,,,,,,,,,,,,,,,,,,,,,,,,,,,,,,,,,,,
,,,,,,,,,,,,a,Correct!,0,95,95,13,1,t5.png,t5.png,0,0.97829,20,Female,2020-10-25_13h40.18.548,torte-q,2020.1.3,Win32,60,13208,0.718,,,,,,,,,,,,,,,,,,,,,,,,,,,,,,,,,,,,,,,,,,,,
,,,,,,,,,,,,a,Correct!,0,96,96,70,1,t5.png,t5.png,0,0.978,20,Female,2020-10-25_13h40.18.548,torte-q,2020.1.3,Win32,60,13208,0.817,,,,,,,,,,,,,,,,,,,,,,,,,,,,,,,,,,,,,,,,,,,,
,,,,,,,,,,,,a,Correct!,0,97,97,75,1,t1.png,t1.png,0,0.97829,20,Female,2020-10-25_13h40.18.548,torte-q,2020.1.3,Win32,60,13208,0.819,,,,,,,,,,,,,,,,,,,,,,,,,,,,,,,,,,,,,,,,,,,,
,,,,,,,,,,,,l,Correct!,0,98,98,61,1,t1.png,t4.png,3,0.0000131,20,Female,2020-10-25_13h40.18.548,torte-q,2020.1.3,Win32,60,13208,0.883,,,,,,,,,,,,,,,,,,,,,,,,,,,,,,,,,,,,,,,,,,,,
,,,,,,,,,,,,l,Correct!,0,99,99,3,1,t1.png,t5.png,4,9.55E-11,20,Female,2020-10-25_13h40.18.548,torte-q,2020.1.3,Win32,60,13208,0.753,,,,,,,,,,,,,,,,,,,,,,,,,,,,,,,,,,,,,,,,,,,,
,,,,,,,,,,,,a,Correct!,0,100,100,76,1,t3.png,t2.png,1,0.90855,20,Female,2020-10-25_13h40.18.548,torte-q,2020.1.3,Win32,60,13208,0.937,,,,,,,,,,,,,,,,,,,,,,,,,,,,,,,,,,,,,,,,,,,,
,,,,,,,,,,,,l,Correct!,0,101,101,90,1,t1.png,t5.png,4,9.55E-11,20,Female,2020-10-25_13h40.18.548,torte-q,2020.1.3,Win32,60,13208,0.782,,,,,,,,,,,,,,,,,,,,,,,,,,,,,,,,,,,,,,,,,,,,
,,,,,,,,,,,,a,Correct!,0,102,102,63,1,t2.png,t3.png,1,0.909,20,Female,2020-10-25_13h40.18.548,torte-q,2020.1.3,Win32,60,13208,0.903,,,,,,,,,,,,,,,,,,,,,,,,,,,,,,,,,,,,,,,,,,,,
,,,,,,,,,,,,a,Correct!,0,103,103,59,1,t5.png,t4.png,1,0.9,20,Female,2020-10-25_13h40.18.548,torte-q,2020.1.3,Win32,60,13208,1.432,,,,,,,,,,,,,,,,,,,,,,,,,,,,,,,,,,,,,,,,,,,,
,,,,,,,,,,,,l,Correct!,0,104,104,68,1,t1.png,t4.png,3,0.0000131,20,Female,2020-10-25_13h40.18.548,torte-q,2020.1.3,Win32,60,13208,0.733,,,,,,,,,,,,,,,,,,,,,,,,,,,,,,,,,,,,,,,,,,,,
,,,,,,,,,,,,l,Correct!,0,105,105,0,1,t5.png,t1.png,4,9.55E-11,20,Female,2020-10-25_13h40.18.548,torte-q,2020.1.3,Win32,60,13208,0.722,,,,,,,,,,,,,,,,,,,,,,,,,,,,,,,,,,,,,,,,,,,,
,,,,,,,,,,,,a,Correct!,0,106,106,9,1,t4.png,t5.png,1,0.9,20,Female,2020-10-25_13h40.18.548,torte-q,2020.1.3,Win32,60,13208,0.925,,,,,,,,,,,,,,,,,,,,,,,,,,,,,,,,,,,,,,,,,,,,
,,,,,,,,,,,,a,Incorrect,0,107,107,16,1,t5.png,t4.png,1,0.9,20,Female,2020-10-25_13h40.18.548,torte-q,2020.1.3,Win32,60,13208,1.165,,,,,,,,,,,,,,,,,,,,,,,,,,,,,,,,,,,,,,,,,,,,
,,,,,,,,,,,,l,Correct!,0,108,108,117,1,t1.png,t5.png,4,9.55E-11,20,Female,2020-10-25_13h40.18.548,torte-q,2020.1.3,Win32,60,13208,0.969,,,,,,,,,,,,,,,,,,,,,,,,,,,,,,,,,,,,,,,,,,,,
,,,,,,,,,,,,a,Correct!,0,109,109,21,1,t5.png,t4.png,1,0.90025,20,Female,2020-10-25_13h40.18.548,torte-q,2020.1.3,Win32,60,13208,0.911,,,,,,,,,,,,,,,,,,,,,,,,,,,,,,,,,,,,,,,,,,,,
,,,,,,,,,,,,l,Correct!,0,110,110,98,1,t2.png,t4.png,2,0.0591,20,Female,2020-10-25_13h40.18.548,torte-q,2020.1.3,Win32,60,13208,0.741,,,,,,,,,,,,,,,,,,,,,,,,,,,,,,,,,,,,,,,,,,,,
,,,,,,,,,,,,l,Correct!,0,111,111,86,1,t3.png,t1.png,2,0.056466,20,Female,2020-10-25_13h40.18.548,torte-q,2020.1.3,Win32,60,13208,0.917,,,,,,,,,,,,,,,,,,,,,,,,,,,,,,,,,,,,,,,,,,,,
,,,,,,,,,,,,a,Correct!,0,112,112,118,1,t5.png,t5.png,0,0.978,20,Female,2020-10-25_13h40.18.548,torte-q,2020.1.3,Win32,60,13208,1.262,,,,,,,,,,,,,,,,,,,,,,,,,,,,,,,,,,,,,,,,,,,,
,,,,,,,,,,,,l,Correct!,0,113,113,80,1,t1.png,t4.png,3,0.0000131,20,Female,2020-10-25_13h40.18.548,torte-q,2020.1.3,Win32,60,13208,0.868,,,,,,,,,,,,,,,,,,,,,,,,,,,,,,,,,,,,,,,,,,,,
,,,,,,,,,,,,a,Correct!,0,114,114,106,1,t2.png,t3.png,1,0.90855,20,Female,2020-10-25_13h40.18.548,torte-q,2020.1.3,Win32,60,13208,0.916,,,,,,,,,,,,,,,,,,,,,,,,,,,,,,,,,,,,,,,,,,,,
,,,,,,,,,,,,l,Correct!,0,115,115,43,1,t4.png,t2.png,2,0.059078,20,Female,2020-10-25_13h40.18.548,torte-q,2020.1.3,Win32,60,13208,1.684,,,,,,,,,,,,,,,,,,,,,,,,,,,,,,,,,,,,,,,,,,,,
,,,,,,,,,,,,a,Correct!,0,116,116,79,1,t3.png,t2.png,1,0.909,20,Female,2020-10-25_13h40.18.548,torte-q,2020.1.3,Win32,60,13208,0.753,,,,,,,,,,,,,,,,,,,,,,,,,,,,,,,,,,,,,,,,,,,,
,,,,,,,,,,,,l,Correct!,0,117,117,35,1,t1.png,t4.png,3,0.0000131,20,Female,2020-10-25_13h40.18.548,torte-q,2020.1.3,Win32,60,13208,0.682,,,,,,,,,,,,,,,,,,,,,,,,,,,,,,,,,,,,,,,,,,,,
,,,,,,,,,,,,a,Correct!,0,118,118,101,1,t4.png,t5.png,1,0.90025,20,Female,2020-10-25_13h40.18.548,torte-q,2020.1.3,Win32,60,13208,1.283,,,,,,,,,,,,,,,,,,,,,,,,,,,,,,,,,,,,,,,,,,,,
,,,,,,,,,,,,l,Correct!,0,119,119,119,1,t1.png,t5.png,4,9.55E-11,20,Female,2020-10-25_13h40.18.548,torte-q,2020.1.3,Win32,60,13208,0.8,,,,,,,,,,,,,,,,,,,,,,,,,,,,,,,,,,,,,,,,,,,,
,,,,,,,,,,,,l,Correct!,,,,,,t1.png,t4.png,3,0.0000131,20,Female,2020-10-25_13h40.18.548,torte-q,2020.1.3,Win32,60,13208,1.032,space,5.08,return,4.702,0,0,0,107,1,,,,,,,,,,,,,,,,,,,,,,,,,,,,,,,,,,,
,,,,,,,,,,,,a,Correct!,,,,,,t2.png,t1.png,1,0.90025,20,Female,2020-10-25_13h40.18.548,torte-q,2020.1.3,Win32,60,13208,1.133,,,,,0,1,1,19,1,,,,,,,,,,,,,,,,,,,,,,,,,,,,,,,,,,,
,,,,,,,,,,,,l,Correct!,,,,,,t1.png,t3.png,2,0.056466,20,Female,2020-10-25_13h40.18.548,torte-q,2020.1.3,Win32,60,13208,1.271,,,,,0,2,2,87,1,,,,,,,,,,,,,,,,,,,,,,,,,,,,,,,,,,,
,,,,,,,,,,,,a,Correct!,,,,,,t2.png,t2.png,0,0.98115,20,Female,2020-10-25_13h40.18.548,torte-q,2020.1.3,Win32,60,13208,1.005,,,,,0,3,3,59,1,,,,,,,,,,,,,,,,,,,,,,,,,,,,,,,,,,,
,,,,,,,,,,,,l,Correct!,,,,,,t3.png,t4.png,1,0.909,20,Female,2020-10-25_13h40.18.548,torte-q,2020.1.3,Win32,60,13208,1.214,,,,,0,4,4,106,1,,,,,,,,,,,,,,,,,,,,,,,,,,,,,,,,,,,
,,,,,,,,,,,,l,Correct!,,,,,,t5.png,t1.png,4,9.55E-11,20,Female,2020-10-25_13h40.18.548,torte-q,2020.1.3,Win32,60,13208,1.049,,,,,0,5,5,43,1,,,,,,,,,,,,,,,,,,,,,,,,,,,,,,,,,,,
,,,,,,,,,,,,l,Correct!,,,,,,t1.png,t3.png,2,0.056466,20,Female,2020-10-25_13h40.18.548,torte-q,2020.1.3,Win32,60,13208,1.182,,,,,0,6,6,99,1,,,,,,,,,,,,,,,,,,,,,,,,,,,,,,,,,,,
,,,,,,,,,,,,l,Correct!,,,,,,t5.png,t3.png,2,0.056466,20,Female,2020-10-25_13h40.18.548,torte-q,2020.1.3,Win32,60,13208,1.8,,,,,0,7,7,108,1,,,,,,,,,,,,,,,,,,,,,,,,,,,,,,,,,,,
,,,,,,,,,,,,l,Correct!,,,,,,t3.png,t1.png,2,0.056466,20,Female,2020-10-25_13h40.18.548,torte-q,2020.1.3,Win32,60,13208,1.188,,,,,0,8,8,0,1,,,,,,,,,,,,,,,,,,,,,,,,,,,,,,,,,,,
,,,,,,,,,,,,a,Correct!,,,,,,t2.png,t2.png,0,0.981,20,Female,2020-10-25_13h40.18.548,torte-q,2020.1.3,Win32,60,13208,0.805,,,,,0,9,9,101,1,,,,,,,,,,,,,,,,,,,,,,,,,,,,,,,,,,,
,,,,,,,,,,,,l,Correct!,,,,,,t2.png,t5.png,3,0.0000131,20,Female,2020-10-25_13h40.18.548,torte-q,2020.1.3,Win32,60,13208,1.065,,,,,0,10,10,66,1,,,,,,,,,,,,,,,,,,,,,,,,,,,,,,,,,,,
,,,,,,,,,,,,a,Correct!,,,,,,t2.png,t3.png,1,0.90855,20,Female,2020-10-25_13h40.18.548,torte-q,2020.1.3,Win32,60,13208,1.133,,,,,0,11,11,68,1,,,,,,,,,,,,,,,,,,,,,,,,,,,,,,,,,,,
,,,,,,,,,,,,l,Correct!,,,,,,t4.png,t1.png,3,0.0000131,20,Female,2020-10-25_13h40.18.548,torte-q,2020.1.3,Win32,60,13208,1.648,,,,,0,12,12,93,1,,,,,,,,,,,,,,,,,,,,,,,,,,,,,,,,,,,
,,,,,,,,,,,,a,Correct!,,,,,,t2.png,t1.png,1,0.9,20,Female,2020-10-25_13h40.18.548,torte-q,2020.1.3,Win32,60,13208,1.633,,,,,0,13,13,118,1,,,,,,,,,,,,,,,,,,,,,,,,,,,,,,,,,,,
,,,,,,,,,,,,l,Correct!,,,,,,t4.png,t1.png,3,0.0000131,20,Female,2020-10-25_13h40.18.548,torte-q,2020.1.3,Win32,60,13208,1.352,,,,,0,14,14,13,1,,,,,,,,,,,,,,,,,,,,,,,,,,,,,,,,,,,
,,,,,,,,,,,,a,Correct!,,,,,,t5.png,t5.png,0,0.978,20,Female,2020-10-25_13h40.18.548,torte-q,2020.1.3,Win32,60,13208,1.016,,,,,0,15,15,117,1,,,,,,,,,,,,,,,,,,,,,,,,,,,,,,,,,,,
,,,,,,,,,,,,a,Correct!,,,,,,t5.png,t4.png,1,0.90025,20,Female,2020-10-25_13h40.18.548,torte-q,2020.1.3,Win32,60,13208,0.821,,,,,0,16,16,34,1,,,,,,,,,,,,,,,,,,,,,,,,,,,,,,,,,,,
,,,,,,,,,,,,a,Correct!,,,,,,t2.png,t1.png,1,0.90025,20,Female,2020-10-25_13h40.18.548,torte-q,2020.1.3,Win32,60,13208,0.916,,,,,0,17,17,62,1,,,,,,,,,,,,,,,,,,,,,,,,,,,,,,,,,,,
,,,,,,,,,,,,a,Correct!,,,,,,t4.png,t3.png,1,0.909,20,Female,2020-10-25_13h40.18.548,torte-q,2020.1.3,Win32,60,13208,0.985,,,,,0,18,18,20,1,,,,,,,,,,,,,,,,,,,,,,,,,,,,,,,,,,,
,,,,,,,,,,,,l,Correct!,,,,,,t1.png,t5.png,4,9.55E-11,20,Female,2020-10-25_13h40.18.548,torte-q,2020.1.3,Win32,60,13208,0.95,,,,,0,19,19,85,1,,,,,,,,,,,,,,,,,,,,,,,,,,,,,,,,,,,
,,,,,,,,,,,,a,Correct!,,,,,,t4.png,t3.png,1,0.909,20,Female,2020-10-25_13h40.18.548,torte-q,2020.1.3,Win32,60,13208,1.364,,,,,0,20,20,46,1,,,,,,,,,,,,,,,,,,,,,,,,,,,,,,,,,,,
,,,,,,,,,,,,a,Correct!,,,,,,t1.png,t2.png,1,0.90025,20,Female,2020-10-25_13h40.18.548,torte-q,2020.1.3,Win32,60,13208,1.055,,,,,0,21,21,33,1,,,,,,,,,,,,,,,,,,,,,,,,,,,,,,,,,,,
,,,,,,,,,,,,a,Correct!,,,,,,t5.png,t4.png,1,0.90025,20,Female,2020-10-25_13h40.18.548,torte-q,2020.1.3,Win32,60,13208,0.896,,,,,0,22,22,26,1,,,,,,,,,,,,,,,,,,,,,,,,,,,,,,,,,,,
,,,,,,,,,,,,l,Correct!,,,,,,t5.png,t2.png,3,0.0000131,20,Female,2020-10-25_13h40.18.548,torte-q,2020.1.3,Win32,60,13208,1.5,,,,,0,23,23,98,1,,,,,,,,,,,,,,,,,,,,,,,,,,,,,,,,,,,
,,,,,,,,,,,,l,Correct!,,,,,,t5.png,t1.png,4,9.55E-11,20,Female,2020-10-25_13h40.18.548,torte-q,2020.1.3,Win32,60,13208,1.044,,,,,0,24,24,22,1,,,,,,,,,,,,,,,,,,,,,,,,,,,,,,,,,,,
,,,,,,,,,,,,a,Correct!,,,,,,t2.png,t1.png,1,0.90025,20,Female,2020-10-25_13h40.18.548,torte-q,2020.1.3,Win32,60,13208,0.785,,,,,0,25,25,5,1,,,,,,,,,,,,,,,,,,,,,,,,,,,,,,,,,,,
,,,,,,,,,,,,l,Incorrect,,,,,,t2.png,t3.png,1,0.90855,20,Female,2020-10-25_13h40.18.548,torte-q,2020.1.3,Win32,60,13208,1.052,,,,,0,26,26,111,1,,,,,,,,,,,,,,,,,,,,,,,,,,,,,,,,,,,
,,,,,,,,,,,,a,Correct!,,,,,,t4.png,t4.png,0,0.98115,20,Female,2020-10-25_13h40.18.548,torte-q,2020.1.3,Win32,60,13208,0.981,,,,,0,27,27,90,1,,,,,,,,,,,,,,,,,,,,,,,,,,,,,,,,,,,
,,,,,,,,,,,,a,Correct!,,,,,,t3.png,t2.png,1,0.909,20,Female,2020-10-25_13h40.18.548,torte-q,2020.1.3,Win32,60,13208,0.894,,,,,0,28,28,23,1,,,,,,,,,,,,,,,,,,,,,,,,,,,,,,,,,,,
,,,,,,,,,,,,a,Correct!,,,,,,t4.png,t3.png,1,0.90855,20,Female,2020-10-25_13h40.18.548,torte-q,2020.1.3,Win32,60,13208,0.9,,,,,0,29,29,75,1,,,,,,,,,,,,,,,,,,,,,,,,,,,,,,,,,,,
,,,,,,,,,,,,a,Correct!,,,,,,t4.png,t4.png,0,0.98115,20,Female,2020-10-25_13h40.18.548,torte-q,2020.1.3,Win32,60,13208,0.763,,,,,0,30,30,52,1,,,,,,,,,,,,,,,,,,,,,,,,,,,,,,,,,,,
,,,,,,,,,,,,l,Correct!,,,,,,t3.png,t1.png,2,0.0565,20,Female,2020-10-25_13h40.18.548,torte-q,2020.1.3,Win32,60,13208,0.981,,,,,0,31,31,31,1,,,,,,,,,,,,,,,,,,,,,,,,,,,,,,,,,,,
,,,,,,,,,,,,l,Correct!,,,,,,t5.png,t3.png,2,0.056466,20,Female,2020-10-25_13h40.18.548,torte-q,2020.1.3,Win32,60,13208,1.432,,,,,0,32,32,38,1,,,,,,,,,,,,,,,,,,,,,,,,,,,,,,,,,,,
,,,,,,,,,,,,a,Correct!,,,,,,t4.png,t4.png,0,0.98115,20,Female,2020-10-25_13h40.18.548,torte-q,2020.1.3,Win32,60,13208,0.804,,,,,0,33,33,79,1,,,,,,,,,,,,,,,,,,,,,,,,,,,,,,,,,,,
,,,,,,,,,,,,a,Correct!,,,,,,t1.png,t2.png,1,0.90025,20,Female,2020-10-25_13h40.18.548,torte-q,2020.1.3,Win32,60,13208,0.82,,,,,0,34,34,112,1,,,,,,,,,,,,,,,,,,,,,,,,,,,,,,,,,,,
,,,,,,,,,,,,l,Correct!,,,,,,t1.png,t4.png,3,0.0000131,20,Female,2020-10-25_13h40.18.548,torte-q,2020.1.3,Win32,60,13208,0.816,,,,,0,35,35,17,1,,,,,,,,,,,,,,,,,,,,,,,,,,,,,,,,,,,
,,,,,,,,,,,,a,Correct!,,,,,,t4.png,t5.png,1,0.90025,20,Female,2020-10-25_13h40.18.548,torte-q,2020.1.3,Win32,60,13208,1.03,,,,,0,36,36,58,1,,,,,,,,,,,,,,,,,,,,,,,,,,,,,,,,,,,
,,,,,,,,,,,,a,Incorrect,,,,,,t4.png,t5.png,1,0.90025,20,Female,2020-10-25_13h40.18.548,torte-q,2020.1.3,Win32,60,13208,0.881,,,,,0,37,37,103,1,,,,,,,,,,,,,,,,,,,,,,,,,,,,,,,,,,,
,,,,,,,,,,,,l,Correct!,,,,,,t1.png,t3.png,2,0.056466,20,Female,2020-10-25_13h40.18.548,torte-q,2020.1.3,Win32,60,13208,1.136,,,,,0,38,38,63,1,,,,,,,,,,,,,,,,,,,,,,,,,,,,,,,,,,,
,,,,,,,,,,,,l,Correct!,,,,,,t3.png,t1.png,2,0.056466,20,Female,2020-10-25_13h40.18.548,torte-q,2020.1.3,Win32,60,13208,1.187,,,,,0,39,39,64,1,,,,,,,,,,,,,,,,,,,,,,,,,,,,,,,,,,,
,,,,,,,,,,,,a,Correct!,,,,,,t3.png,t2.png,1,0.90855,20,Female,2020-10-25_13h40.18.548,torte-q,2020.1.3,Win32,60,13208,0.938,,,,,0,40,40,53,1,,,,,,,,,,,,,,,,,,,,,,,,,,,,,,,,,,,
,,,,,,,,,,,,a,Incorrect,,,,,,t1.png,t1.png,0,0.97829,20,Female,2020-10-25_13h40.18.548,torte-q,2020.1.3,Win32,60,13208,0.982,,,,,0,41,41,67,1,,,,,,,,,,,,,,,,,,,,,,,,,,,,,,,,,,,
,,,,,,,,,,,,l,Correct!,,,,,,t4.png,t1.png,3,0.0000131,20,Female,2020-10-25_13h40.18.548,torte-q,2020.1.3,Win32,60,13208,0.983,,,,,0,42,42,48,1,,,,,,,,,,,,,,,,,,,,,,,,,,,,,,,,,,,
,,,,,,,,,,,,a,Correct!,,,,,,t1.png,t1.png,0,0.978,20,Female,2020-10-25_13h40.18.548,torte-q,2020.1.3,Win32,60,13208,0.754,,,,,0,43,43,54,1,,,,,,,,,,,,,,,,,,,,,,,,,,,,,,,,,,,
,,,,,,,,,,,,l,Correct!,,,,,,t2.png,t5.png,3,0.0000131,20,Female,2020-10-25_13h40.18.548,torte-q,2020.1.3,Win32,60,13208,1.182,,,,,0,44,44,95,1,,,,,,,,,,,,,,,,,,,,,,,,,,,,,,,,,,,
,,,,,,,,,,,,l,Correct!,,,,,,t3.png,t5.png,2,0.0565,20,Female,2020-10-25_13h40.18.548,torte-q,2020.1.3,Win32,60,13208,1.612,,,,,0,45,45,83,1,,,,,,,,,,,,,,,,,,,,,,,,,,,,,,,,,,,
,,,,,,,,,,,,a,Correct!,,,,,,t2.png,t1.png,1,0.90025,20,Female,2020-10-25_13h40.18.548,torte-q,2020.1.3,Win32,60,13208,0.765,,,,,0,46,46,4,1,,,,,,,,,,,,,,,,,,,,,,,,,,,,,,,,,,,
,,,,,,,,,,,,l,Correct!,,,,,,t5.png,t1.png,4,9.55E-11,20,Female,2020-10-25_13h40.18.548,torte-q,2020.1.3,Win32,60,13208,0.803,,,,,0,47,47,100,1,,,,,,,,,,,,,,,,,,,,,,,,,,,,,,,,,,,
,,,,,,,,,,,,a,Correct!,,,,,,t1.png,t1.png,0,0.97829,20,Female,2020-10-25_13h40.18.548,torte-q,2020.1.3,Win32,60,13208,0.655,,,,,0,48,48,78,1,,,,,,,,,,,,,,,,,,,,,,,,,,,,,,,,,,,
,,,,,,,,,,,,a,Correct!,,,,,,t3.png,t4.png,1,0.909,20,Female,2020-10-25_13h40.18.548,torte-q,2020.1.3,Win32,60,13208,1.22,,,,,0,49,49,89,1,,,,,,,,,,,,,,,,,,,,,,,,,,,,,,,,,,,
,,,,,,,,,,,,l,Correct!,,,,,,t2.png,t4.png,2,0.059078,20,Female,2020-10-25_13h40.18.548,torte-q,2020.1.3,Win32,60,13208,0.817,,,,,0,50,50,24,1,,,,,,,,,,,,,,,,,,,,,,,,,,,,,,,,,,,
,,,,,,,,,,,,a,Correct!,,,,,,t4.png,t5.png,1,0.90025,20,Female,2020-10-25_13h40.18.548,torte-q,2020.1.3,Win32,60,13208,0.916,,,,,0,51,51,113,1,,,,,,,,,,,,,,,,,,,,,,,,,,,,,,,,,,,
,,,,,,,,,,,,a,Correct!,,,,,,t2.png,t3.png,1,0.90855,20,Female,2020-10-25_13h40.18.548,torte-q,2020.1.3,Win32,60,13208,0.966,,,,,0,52,52,10,1,,,,,,,,,,,,,,,,,,,,,,,,,,,,,,,,,,,
,,,,,,,,,,,,l,Correct!,,,,,,t1.png,t5.png,4,9.55E-11,20,Female,2020-10-25_13h40.18.548,torte-q,2020.1.3,Win32,60,13208,0.862,,,,,0,53,53,55,1,,,,,,,,,,,,,,,,,,,,,,,,,,,,,,,,,,,
,,,,,,,,,,,,a,Correct!,,,,,,t4.png,t3.png,1,0.90855,20,Female,2020-10-25_13h40.18.548,torte-q,2020.1.3,Win32,60,13208,0.879,,,,,0,54,54,45,1,,,,,,,,,,,,,,,,,,,,,,,,,,,,,,,,,,,
,,,,,,,,,,,,l,Correct!,,,,,,t3.png,t1.png,2,0.056466,20,Female,2020-10-25_13h40.18.548,torte-q,2020.1.3,Win32,60,13208,0.882,,,,,0,55,55,29,1,,,,,,,,,,,,,,,,,,,,,,,,,,,,,,,,,,,
,,,,,,,,,,,,l,Correct!,,,,,,t4.png,t2.png,2,0.059078,20,Female,2020-10-25_13h40.18.548,torte-q,2020.1.3,Win32,60,13208,0.988,,,,,0,56,56,109,1,,,,,,,,,,,,,,,,,,,,,,,,,,,,,,,,,,,
,,,,,,,,,,,,a,Correct!,,,,,,t4.png,t5.png,1,0.90025,20,Female,2020-10-25_13h40.18.548,torte-q,2020.1.3,Win32,60,13208,0.872,,,,,0,57,57,47,1,,,,,,,,,,,,,,,,,,,,,,,,,,,,,,,,,,,
,,,,,,,,,,,,l,Correct!,,,,,,t1.png,t3.png,2,0.056466,20,Female,2020-10-25_13h40.18.548,torte-q,2020.1.3,Win32,60,13208,1.101,,,,,0,58,58,60,1,,,,,,,,,,,,,,,,,,,,,,,,,,,,,,,,,,,
,,,,,,,,,,,,a,Incorrect,,,,,,t2.png,t2.png,0,0.98115,20,Female,2020-10-25_13h40.18.548,torte-q,2020.1.3,Win32,60,13208,1.079,,,,,0,59,59,2,1,,,,,,,,,,,,,,,,,,,,,,,,,,,,,,,,,,,
,,,,,,,,,,,,a,Correct!,,,,,,t2.png,t3.png,1,0.90855,20,Female,2020-10-25_13h40.18.548,torte-q,2020.1.3,Win32,60,13208,1.183,,,,,0,60,60,65,1,,,,,,,,,,,,,,,,,,,,,,,,,,,,,,,,,,,
,,,,,,,,,,,,a,Correct!,,,,,,t3.png,t2.png,1,0.90855,20,Female,2020-10-25_13h40.18.548,torte-q,2020.1.3,Win32,60,13208,0.982,,,,,0,61,61,18,1,,,,,,,,,,,,,,,,,,,,,,,,,,,,,,,,,,,
,,,,,,,,,,,,a,Correct!,,,,,,t2.png,t2.png,0,0.98115,20,Female,2020-10-25_13h40.18.548,torte-q,2020.1.3,Win32,60,13208,1.084,,,,,0,62,62,7,1,,,,,,,,,,,,,,,,,,,,,,,,,,,,,,,,,,,
,,,,,,,,,,,,l,Correct!,,,,,,t5.png,t2.png,3,0.0000131,20,Female,2020-10-25_13h40.18.548,torte-q,2020.1.3,Win32,60,13208,1.248,,,,,0,63,63,116,1,,,,,,,,,,,,,,,,,,,,,,,,,,,,,,,,,,,
,,,,,,,,,,,,l,Correct!,,,,,,t1.png,t3.png,2,0.056466,20,Female,2020-10-25_13h40.18.548,torte-q,2020.1.3,Win32,60,13208,1.117,,,,,0,64,64,69,1,,,,,,,,,,,,,,,,,,,,,,,,,,,,,,,,,,,
,,,,,,,,,,,,l,Correct!,,,,,,t5.png,t2.png,3,0.0000131,20,Female,2020-10-25_13h40.18.548,torte-q,2020.1.3,Win32,60,13208,1.365,,,,,0,65,65,51,1,,,,,,,,,,,,,,,,,,,,,,,,,,,,,,,,,,,
,,,,,,,,,,,,a,Correct!,,,,,,t4.png,t5.png,1,0.9,20,Female,2020-10-25_13h40.18.548,torte-q,2020.1.3,Win32,60,13208,1.035,,,,,0,66,66,115,1,,,,,,,,,,,,,,,,,,,,,,,,,,,,,,,,,,,
,,,,,,,,,,,,a,Correct!,,,,,,t5.png,t4.png,1,0.9,20,Female,2020-10-25_13h40.18.548,torte-q,2020.1.3,Win32,60,13208,1.033,,,,,0,67,67,76,1,,,,,,,,,,,,,,,,,,,,,,,,,,,,,,,,,,,
,,,,,,,,,,,,l,Correct!,,,,,,t2.png,t4.png,2,0.0591,20,Female,2020-10-25_13h40.18.548,torte-q,2020.1.3,Win32,60,13208,0.901,,,,,0,68,68,15,1,,,,,,,,,,,,,,,,,,,,,,,,,,,,,,,,,,,
,,,,,,,,,,,,l,Correct!,,,,,,t5.png,t3.png,2,0.056466,20,Female,2020-10-25_13h40.18.548,torte-q,2020.1.3,Win32,60,13208,0.937,,,,,0,69,69,114,1,,,,,,,,,,,,,,,,,,,,,,,,,,,,,,,,,,,
,,,,,,,,,,,,l,Correct!,,,,,,t4.png,t2.png,2,0.059078,20,Female,2020-10-25_13h40.18.548,torte-q,2020.1.3,Win32,60,13208,0.997,,,,,0,70,70,110,1,,,,,,,,,,,,,,,,,,,,,,,,,,,,,,,,,,,
,,,,,,,,,,,,l,Correct!,,,,,,t1.png,t4.png,3,0.0000131,20,Female,2020-10-25_13h40.18.548,torte-q,2020.1.3,Win32,60,13208,1.105,,,,,0,71,71,50,1,,,,,,,,,,,,,,,,,,,,,,,,,,,,,,,,,,,
,,,,,,,,,,,,a,Correct!,,,,,,t5.png,t5.png,0,0.97829,20,Female,2020-10-25_13h40.18.548,torte-q,2020.1.3,Win32,60,13208,1.25,,,,,0,72,72,94,1,,,,,,,,,,,,,,,,,,,,,,,,,,,,,,,,,,,
,,,,,,,,,,,,l,Correct!,,,,,,t4.png,t2.png,2,0.0591,20,Female,2020-10-25_13h40.18.548,torte-q,2020.1.3,Win32,60,13208,1.132,,,,,0,73,73,36,1,,,,,,,,,,,,,,,,,,,,,,,,,,,,,,,,,,,
,,,,,,,,,,,,l,Correct!,,,,,,t1.png,t4.png,3,0.0000131,20,Female,2020-10-25_13h40.18.548,torte-q,2020.1.3,Win32,60,13208,1.336,,,,,0,74,74,81,1,,,,,,,,,,,,,,,,,,,,,,,,,,,,,,,,,,,
,,,,,,,,,,,,l,Correct!,,,,,,t5.png,t2.png,3,0.0000131,20,Female,2020-10-25_13h40.18.548,torte-q,2020.1.3,Win32,60,13208,0.782,,,,,0,75,75,91,1,,,,,,,,,,,,,,,,,,,,,,,,,,,,,,,,,,,
,,,,,,,,,,,,l,Correct!,,,,,,t3.png,t5.png,2,0.056466,20,Female,2020-10-25_13h40.18.548,torte-q,2020.1.3,Win32,60,13208,0.9,,,,,0,76,76,14,1,,,,,,,,,,,,,,,,,,,,,,,,,,,,,,,,,,,
,,,,,,,,,,,,l,Correct!,,,,,,t2.png,t5.png,3,0.0000131,20,Female,2020-10-25_13h40.18.548,torte-q,2020.1.3,Win32,60,13208,0.833,,,,,0,77,77,40,1,,,,,,,,,,,,,,,,,,,,,,,,,,,,,,,,,,,
,,,,,,,,,,,,a,Incorrect,,,,,,t1.png,t2.png,1,0.9,20,Female,2020-10-25_13h40.18.548,torte-q,2020.1.3,Win32,60,13208,1.017,,,,,0,78,78,1,1,,,,,,,,,,,,,,,,,,,,,,,,,,,,,,,,,,,
,,,,,,,,,,,,a,Correct!,,,,,,t3.png,t4.png,1,0.90855,20,Female,2020-10-25_13h40.18.548,torte-q,2020.1.3,Win32,60,13208,1.548,,,,,0,79,79,84,1,,,,,,,,,,,,,,,,,,,,,,,,,,,,,,,,,,,
,,,,,,,,,,,,a,Incorrect,,,,,,t5.png,t4.png,1,0.90025,20,Female,2020-10-25_13h40.18.548,torte-q,2020.1.3,Win32,60,13208,0.917,,,,,0,80,80,27,1,,,,,,,,,,,,,,,,,,,,,,,,,,,,,,,,,,,
,,,,,,,,,,,,a,Correct!,,,,,,t1.png,t2.png,1,0.90025,20,Female,2020-10-25_13h40.18.548,torte-q,2020.1.3,Win32,60,13208,0.916,,,,,0,81,81,72,1,,,,,,,,,,,,,,,,,,,,,,,,,,,,,,,,,,,
,,,,,,,,,,,,a,Correct!,,,,,,t1.png,t2.png,1,0.90025,20,Female,2020-10-25_13h40.18.548,torte-q,2020.1.3,Win32,60,13208,0.865,,,,,0,82,82,105,1,,,,,,,,,,,,,,,,,,,,,,,,,,,,,,,,,,,
,,,,,,,,,,,,l,Correct!,,,,,,t2.png,t4.png,2,0.059078,20,Female,2020-10-25_13h40.18.548,torte-q,2020.1.3,Win32,60,13208,1.304,,,,,0,83,83,11,1,,,,,,,,,,,,,,,,,,,,,,,,,,,,,,,,,,,
,,,,,,,,,,,,l,Correct!,,,,,,t3.png,t5.png,2,0.056466,20,Female,2020-10-25_13h40.18.548,torte-q,2020.1.3,Win32,60,13208,1.216,,,,,0,84,84,6,1,,,,,,,,,,,,,,,,,,,,,,,,,,,,,,,,,,,
,,,,,,,,,,,,a,Incorrect,,,,,,t3.png,t4.png,1,0.90855,20,Female,2020-10-25_13h40.18.548,torte-q,2020.1.3,Win32,60,13208,0.838,,,,,0,85,85,96,1,,,,,,,,,,,,,,,,,,,,,,,,,,,,,,,,,,,
,,,,,,,,,,,,a,Correct!,,,,,,t5.png,t5.png,0,0.97829,20,Female,2020-10-25_13h40.18.548,torte-q,2020.1.3,Win32,60,13208,0.854,,,,,0,86,86,73,1,,,,,,,,,,,,,,,,,,,,,,,,,,,,,,,,,,,
,,,,,,,,,,,,l,Correct!,,,,,,t4.png,t1.png,3,0.0000131,20,Female,2020-10-25_13h40.18.548,torte-q,2020.1.3,Win32,60,13208,0.968,,,,,0,87,87,61,1,,,,,,,,,,,,,,,,,,,,,,,,,,,,,,,,,,,
,,,,,,,,,,,,a,Correct!,,,,,,t2.png,t2.png,0,0.98115,20,Female,2020-10-25_13h40.18.548,torte-q,2020.1.3,Win32,60,13208,0.877,,,,,0,88,88,57,1,,,,,,,,,,,,,,,,,,,,,,,,,,,,,,,,,,,
,,,,,,,,,,,,a,Correct!,,,,,,t5.png,t5.png,0,0.97829,20,Female,2020-10-25_13h40.18.548,torte-q,2020.1.3,Win32,60,13208,0.8,,,,,0,89,89,70,1,,,,,,,,,,,,,,,,,,,,,,,,,,,,,,,,,,,
,,,,,,,,,,,,a,Correct!,,,,,,t1.png,t1.png,0,0.978,20,Female,2020-10-25_13h40.18.548,torte-q,2020.1.3,Win32,60,13208,0.782,,,,,0,90,90,28,1,,,,,,,,,,,,,,,,,,,,,,,,,,,,,,,,,,,
,,,,,,,,,,,,a,Correct!,,,,,,t4.png,t4.png,0,0.98115,20,Female,2020-10-25_13h40.18.548,torte-q,2020.1.3,Win32,60,13208,0.734,,,,,0,91,91,21,1,,,,,,,,,,,,,,,,,,,,,,,,,,,,,,,,,,,
,,,,,,,,,,,,l,Correct!,,,,,,t5.png,t1.png,4,9.55E-11,20,Female,2020-10-25_13h40.18.548,torte-q,2020.1.3,Win32,60,13208,0.784,,,,,0,92,92,102,1,,,,,,,,,,,,,,,,,,,,,,,,,,,,,,,,,,,
,,,,,,,,,,,,a,Correct!,,,,,,t3.png,t2.png,1,0.90855,20,Female,2020-10-25_13h40.18.548,torte-q,2020.1.3,Win32,60,13208,0.8,,,,,0,93,93,97,1,,,,,,,,,,,,,,,,,,,,,,,,,,,,,,,,,,,
,,,,,,,,,,,,l,Correct!,,,,,,t4.png,t2.png,2,0.059078,20,Female,2020-10-25_13h40.18.548,torte-q,2020.1.3,Win32,60,13208,0.982,,,,,0,94,94,88,1,,,,,,,,,,,,,,,,,,,,,,,,,,,,,,,,,,,
,,,,,,,,,,,,l,Correct!,,,,,,t1.png,t5.png,4,9.55E-11,20,Female,2020-10-25_13h40.18.548,torte-q,2020.1.3,Win32,60,13208,1.498,,,,,0,95,95,16,1,,,,,,,,,,,,,,,,,,,,,,,,,,,,,,,,,,,
,,,,,,,,,,,,l,Correct!,,,,,,t2.png,t4.png,2,0.059078,20,Female,2020-10-25_13h40.18.548,torte-q,2020.1.3,Win32,60,13208,0.682,,,,,0,96,96,37,1,,,,,,,,,,,,,,,,,,,,,,,,,,,,,,,,,,,
,,,,,,,,,,,,a,Correct!,,,,,,t3.png,t4.png,1,0.909,20,Female,2020-10-25_13h40.18.548,torte-q,2020.1.3,Win32,60,13208,0.837,,,,,0,97,97,82,1,,,,,,,,,,,,,,,,,,,,,,,,,,,,,,,,,,,
,,,,,,,,,,,,l,Correct!,,,,,,t2.png,t5.png,3,0.0000131,20,Female,2020-10-25_13h40.18.548,torte-q,2020.1.3,Win32,60,13208,0.833,,,,,0,98,98,104,1,,,,,,,,,,,,,,,,,,,,,,,,,,,,,,,,,,,
,,,,,,,,,,,,l,Correct!,,,,,,t3.png,t1.png,2,0.056466,20,Female,2020-10-25_13h40.18.548,torte-q,2020.1.3,Win32,60,13208,0.835,,,,,0,99,99,32,1,,,,,,,,,,,,,,,,,,,,,,,,,,,,,,,,,,,
,,,,,,,,,,,,a,Correct!,,,,,,t5.png,t5.png,0,0.97829,20,Female,2020-10-25_13h40.18.548,torte-q,2020.1.3,Win32,60,13208,0.734,,,,,0,100,100,25,1,,,,,,,,,,,,,,,,,,,,,,,,,,,,,,,,,,,
,,,,,,,,,,,,l,Correct!,,,,,,t1.png,t5.png,4,9.55E-11,20,Female,2020-10-25_13h40.18.548,torte-q,2020.1.3,Win32,60,13208,0.748,,,,,0,101,101,12,1,,,,,,,,,,,,,,,,,,,,,,,,,,,,,,,,,,,
,,,,,,,,,,,,a,Correct!,,,,,,t5.png,t4.png,1,0.9,20,Female,2020-10-25_13h40.18.548,torte-q,2020.1.3,Win32,60,13208,0.821,,,,,0,102,102,49,1,,,,,,,,,,,,,,,,,,,,,,,,,,,,,,,,,,,
,,,,,,,,,,,,l,Correct!,,,,,,t1.png,t5.png,4,9.55E-11,20,Female,2020-10-25_13h40.18.548,torte-q,2020.1.3,Win32,60,13208,0.855,,,,,0,103,103,41,1,,,,,,,,,,,,,,,,,,,,,,,,,,,,,,,,,,,
,,,,,,,,,,,,l,Correct!,,,,,,t5.png,t2.png,3,0.0000131,20,Female,2020-10-25_13h40.18.548,torte-q,2020.1.3,Win32,60,13208,2.198,,,,,0,104,104,119,1,,,,,,,,,,,,,,,,,,,,,,,,,,,,,,,,,,,
,,,,,,,,,,,,l,Correct!,,,,,,t5.png,t3.png,2,0.056466,20,Female,2020-10-25_13h40.18.548,torte-q,2020.1.3,Win32,60,13208,1.518,,,,,0,105,105,56,1,,,,,,,,,,,,,,,,,,,,,,,,,,,,,,,,,,,
,,,,,,,,,,,,l,Correct!,,,,,,t4.png,t2.png,2,0.059078,20,Female,2020-10-25_13h40.18.548,torte-q,2020.1.3,Win32,60,13208,1.678,,,,,0,106,106,86,1,,,,,,,,,,,,,,,,,,,,,,,,,,,,,,,,,,,
,,,,,,,,,,,,a,Correct!,,,,,,t1.png,t1.png,0,0.97829,20,Female,2020-10-25_13h40.18.548,torte-q,2020.1.3,Win32,60,13208,0.652,,,,,0,107,107,9,1,,,,,,,,,,,,,,,,,,,,,,,,,,,,,,,,,,,
,,,,,,,,,,,,l,Correct!,,,,,,t2.png,t4.png,2,0.059078,20,Female,2020-10-25_13h40.18.548,torte-q,2020.1.3,Win32,60,13208,1.197,,,,,0,108,108,77,1,,,,,,,,,,,,,,,,,,,,,,,,,,,,,,,,,,,
,,,,,,,,,,,,l,Correct!,,,,,,t3.png,t5.png,2,0.056466,20,Female,2020-10-25_13h40.18.548,torte-q,2020.1.3,Win32,60,13208,1.349,,,,,0,109,109,44,1,,,,,,,,,,,,,,,,,,,,,,,,,,,,,,,,,,,
,,,,,,,,,,,,l,Correct!,,,,,,t1.png,t4.png,3,0.0000131,20,Female,2020-10-25_13h40.18.548,torte-q,2020.1.3,Win32,60,13208,1.419,,,,,0,110,110,92,1,,,,,,,,,,,,,,,,,,,,,,,,,,,,,,,,,,,
,,,,,,,,,,,,l,Correct!,,,,,,t5.png,t3.png,2,0.0565,20,Female,2020-10-25_13h40.18.548,torte-q,2020.1.3,Win32,60,13208,1.232,,,,,0,111,111,39,1,,,,,,,,,,,,,,,,,,,,,,,,,,,,,,,,,,,
,,,,,,,,,,,,a,Correct!,,,,,,t3.png,t2.png,1,0.909,20,Female,2020-10-25_13h40.18.548,torte-q,2020.1.3,Win32,60,13208,0.97,,,,,0,112,112,3,1,,,,,,,,,,,,,,,,,,,,,,,,,,,,,,,,,,,
,,,,,,,,,,,,a,Incorrect,,,,,,t4.png,t3.png,1,0.90855,20,Female,2020-10-25_13h40.18.548,torte-q,2020.1.3,Win32,60,13208,0.767,,,,,0,113,113,35,1,,,,,,,,,,,,,,,,,,,,,,,,,,,,,,,,,,,
,,,,,,,,,,,,l,Correct!,,,,,,t5.png,t1.png,4,9.55E-11,20,Female,2020-10-25_13h40.18.548,torte-q,2020.1.3,Win32,60,13208,0.844,,,,,0,114,114,71,1,,,,,,,,,,,,,,,,,,,,,,,,,,,,,,,,,,,
,,,,,,,,,,,,l,Correct!,,,,,,t4.png,t1.png,3,0.0000131,20,Female,2020-10-25_13h40.18.548,torte-q,2020.1.3,Win32,60,13208,0.733,,,,,0,115,115,42,1,,,,,,,,,,,,,,,,,,,,,,,,,,,,,,,,,,,
,,,,,,,,,,,,a,Correct!,,,,,,t4.png,t4.png,0,0.98115,20,Female,2020-10-25_13h40.18.548,torte-q,2020.1.3,Win32,60,13208,0.75,,,,,0,116,116,80,1,,,,,,,,,,,,,,,,,,,,,,,,,,,,,,,,,,,
,,,,,,,,,,,,l,Correct!,,,,,,t2.png,t5.png,3,0.0000131,20,Female,2020-10-25_13h40.18.548,torte-q,2020.1.3,Win32,60,13208,0.849,,,,,0,117,117,8,1,,,,,,,,,,,,,,,,,,,,,,,,,,,,,,,,,,,
,,,,,,,,,,,,a,Correct!,,,,,,t2.png,t3.png,1,0.909,20,Female,2020-10-25_13h40.18.548,torte-q,2020.1.3,Win32,60,13208,0.884,,,,,0,118,118,74,1,,,,,,,,,,,,,,,,,,,,,,,,,,,,,,,,,,,
,,,,,,,,,,,,l,Incorrect,,,,,,t3.png,t5.png,2,0.0565,20,Female,2020-10-25_13h40.18.548,torte-q,2020.1.3,Win32,60,13208,0.818,,,,,0,119,119,30,1,,,,,,,,,,,,,,,,,,,,,,,,,,,,,,,,,,,
,,,,,,,,,,,,a,Incorrect,,,,,,t3.png,t2.png,1,0.909,20,Female,2020-10-25_13h40.18.548,torte-q,2020.1.3,Win32,60,13208,1.397,space,2.328,,,,,,,,space,17.251,return,8.88,0,0,0,23,1,,,,,,,,,,,,,,,,,,,,,,,,,,
,,,,,,,,,,,,l,Correct!,,,,,,t4.png,t2.png,2,0.059078,20,Female,2020-10-25_13h40.18.548,torte-q,2020.1.3,Win32,60,13208,0.966,,,,,,,,,,,,,,0,1,1,110,1,,,,,,,,,,,,,,,,,,,,,,,,,,
,,,,,,,,,,,,a,Correct!,,,,,,t2.png,t2.png,0,0.98115,20,Female,2020-10-25_13h40.18.548,torte-q,2020.1.3,Win32,60,13208,1.181,,,,,,,,,,,,,,0,2,2,59,1,,,,,,,,,,,,,,,,,,,,,,,,,,
,,,,,,,,,,,,l,Correct!,,,,,,t1.png,t3.png,2,0.056466,20,Female,2020-10-25_13h40.18.548,torte-q,2020.1.3,Win32,60,13208,1.016,,,,,,,,,,,,,,0,3,3,63,1,,,,,,,,,,,,,,,,,,,,,,,,,,
,,,,,,,,,,,,a,Correct!,,,,,,t5.png,t5.png,0,0.978,20,Female,2020-10-25_13h40.18.548,torte-q,2020.1.3,Win32,60,13208,1.35,,,,,,,,,,,,,,0,4,4,117,1,,,,,,,,,,,,,,,,,,,,,,,,,,
,,,,,,,,,,,,l,Correct!,,,,,,t2.png,t5.png,3,0.0000131,20,Female,2020-10-25_13h40.18.548,torte-q,2020.1.3,Win32,60,13208,0.996,,,,,,,,,,,,,,0,5,5,40,1,,,,,,,,,,,,,,,,,,,,,,,,,,
,,,,,,,,,,,,a,Correct!,,,,,,t5.png,t5.png,0,0.97829,20,Female,2020-10-25_13h40.18.548,torte-q,2020.1.3,Win32,60,13208,0.835,,,,,,,,,,,,,,0,6,6,94,1,,,,,,,,,,,,,,,,,,,,,,,,,,
,,,,,,,,,,,,a,Correct!,,,,,,t2.png,t1.png,1,0.90025,20,Female,2020-10-25_13h40.18.548,torte-q,2020.1.3,Win32,60,13208,0.937,,,,,,,,,,,,,,0,7,7,19,1,,,,,,,,,,,,,,,,,,,,,,,,,,
,,,,,,,,,,,,a,Correct!,,,,,,t4.png,t4.png,0,0.98115,20,Female,2020-10-25_13h40.18.548,torte-q,2020.1.3,Win32,60,13208,0.721,,,,,,,,,,,,,,0,8,8,21,1,,,,,,,,,,,,,,,,,,,,,,,,,,
,,,,,,,,,,,,l,Correct!,,,,,,t4.png,t2.png,2,0.059078,20,Female,2020-10-25_13h40.18.548,torte-q,2020.1.3,Win32,60,13208,0.954,,,,,,,,,,,,,,0,9,9,88,1,,,,,,,,,,,,,,,,,,,,,,,,,,
,,,,,,,,,,,,l,Correct!,,,,,,t2.png,t4.png,2,0.059078,20,Female,2020-10-25_13h40.18.548,torte-q,2020.1.3,Win32,60,13208,1.122,,,,,,,,,,,,,,0,10,10,11,1,,,,,,,,,,,,,,,,,,,,,,,,,,
,,,,,,,,,,,,a,Correct!,,,,,,t2.png,t1.png,1,0.90025,20,Female,2020-10-25_13h40.18.548,torte-q,2020.1.3,Win32,60,13208,0.833,,,,,,,,,,,,,,0,11,11,5,1,,,,,,,,,,,,,,,,,,,,,,,,,,
,,,,,,,,,,,,a,Correct!,,,,,,t2.png,t2.png,0,0.981,20,Female,2020-10-25_13h40.18.548,torte-q,2020.1.3,Win32,60,13208,0.951,,,,,,,,,,,,,,0,12,12,101,1,,,,,,,,,,,,,,,,,,,,,,,,,,
,,,,,,,,,,,,l,Correct!,,,,,,t2.png,t4.png,2,0.059078,20,Female,2020-10-25_13h40.18.548,torte-q,2020.1.3,Win32,60,13208,1.066,,,,,,,,,,,,,,0,13,13,24,1,,,,,,,,,,,,,,,,,,,,,,,,,,
,,,,,,,,,,,,l,Correct!,,,,,,t5.png,t3.png,2,0.056466,20,Female,2020-10-25_13h40.18.548,torte-q,2020.1.3,Win32,60,13208,1.42,,,,,,,,,,,,,,0,14,14,56,1,,,,,,,,,,,,,,,,,,,,,,,,,,
,,,,,,,,,,,,l,Correct!,,,,,,t1.png,t5.png,4,9.55E-11,20,Female,2020-10-25_13h40.18.548,torte-q,2020.1.3,Win32,60,13208,0.898,,,,,,,,,,,,,,0,15,15,41,1,,,,,,,,,,,,,,,,,,,,,,,,,,
,,,,,,,,,,,,a,Correct!,,,,,,t1.png,t1.png,0,0.97829,20,Female,2020-10-25_13h40.18.548,torte-q,2020.1.3,Win32,60,13208,0.737,,,,,,,,,,,,,,0,16,16,67,1,,,,,,,,,,,,,,,,,,,,,,,,,,
,,,,,,,,,,,,a,Correct!,,,,,,t2.png,t3.png,1,0.90855,20,Female,2020-10-25_13h40.18.548,torte-q,2020.1.3,Win32,60,13208,0.917,,,,,,,,,,,,,,0,17,17,68,1,,,,,,,,,,,,,,,,,,,,,,,,,,
,,,,,,,,,,,,l,Correct!,,,,,,t1.png,t3.png,2,0.056466,20,Female,2020-10-25_13h40.18.548,torte-q,2020.1.3,Win32,60,13208,1.116,,,,,,,,,,,,,,0,18,18,69,1,,,,,,,,,,,,,,,,,,,,,,,,,,
,,,,,,,,,,,,l,Correct!,,,,,,t4.png,t2.png,2,0.059078,20,Female,2020-10-25_13h40.18.548,torte-q,2020.1.3,Win32,60,13208,1.183,,,,,,,,,,,,,,0,19,19,109,1,,,,,,,,,,,,,,,,,,,,,,,,,,
,,,,,,,,,,,,a,Correct!,,,,,,t4.png,t4.png,0,0.98115,20,Female,2020-10-25_13h40.18.548,torte-q,2020.1.3,Win32,60,13208,0.819,,,,,,,,,,,,,,0,20,20,52,1,,,,,,,,,,,,,,,,,,,,,,,,,,
,,,,,,,,,,,,l,Correct!,,,,,,t5.png,t1.png,4,9.55E-11,20,Female,2020-10-25_13h40.18.548,torte-q,2020.1.3,Win32,60,13208,0.699,,,,,,,,,,,,,,0,21,21,100,1,,,,,,,,,,,,,,,,,,,,,,,,,,
,,,,,,,,,,,,l,Correct!,,,,,,t3.png,t5.png,2,0.0565,20,Female,2020-10-25_13h40.18.548,torte-q,2020.1.3,Win32,60,13208,0.915,,,,,,,,,,,,,,0,22,22,30,1,,,,,,,,,,,,,,,,,,,,,,,,,,
,,,,,,,,,,,,l,Correct!,,,,,,t4.png,t1.png,3,0.0000131,20,Female,2020-10-25_13h40.18.548,torte-q,2020.1.3,Win32,60,13208,0.741,,,,,,,,,,,,,,0,23,23,61,1,,,,,,,,,,,,,,,,,,,,,,,,,,
,,,,,,,,,,,,a,Correct!,,,,,,t4.png,t3.png,1,0.909,20,Female,2020-10-25_13h40.18.548,torte-q,2020.1.3,Win32,60,13208,1.165,,,,,,,,,,,,,,0,24,24,20,1,,,,,,,,,,,,,,,,,,,,,,,,,,
,,,,,,,,,,,,a,Correct!,,,,,,t4.png,t5.png,1,0.90025,20,Female,2020-10-25_13h40.18.548,torte-q,2020.1.3,Win32,60,13208,1.03,,,,,,,,,,,,,,0,25,25,58,1,,,,,,,,,,,,,,,,,,,,,,,,,,
,,,,,,,,,,,,l,Correct!,,,,,,t1.png,t3.png,2,0.056466,20,Female,2020-10-25_13h40.18.548,torte-q,2020.1.3,Win32,60,13208,0.964,,,,,,,,,,,,,,0,26,26,99,1,,,,,,,,,,,,,,,,,,,,,,,,,,
,,,,,,,,,,,,l,Correct!,,,,,,t5.png,t2.png,3,0.0000131,20,Female,2020-10-25_13h40.18.548,torte-q,2020.1.3,Win32,60,13208,1.1,,,,,,,,,,,,,,0,27,27,116,1,,,,,,,,,,,,,,,,,,,,,,,,,,
,,,,,,,,,,,,a,Correct!,,,,,,t5.png,t5.png,0,0.97829,20,Female,2020-10-25_13h40.18.548,torte-q,2020.1.3,Win32,60,13208,0.899,,,,,,,,,,,,,,0,28,28,73,1,,,,,,,,,,,,,,,,,,,,,,,,,,
,,,,,,,,,,,,a,Correct!,,,,,,t2.png,t1.png,1,0.90025,20,Female,2020-10-25_13h40.18.548,torte-q,2020.1.3,Win32,60,13208,0.933,,,,,,,,,,,,,,0,29,29,4,1,,,,,,,,,,,,,,,,,,,,,,,,,,
,,,,,,,,,,,,l,Correct!,,,,,,t1.png,t5.png,4,9.55E-11,20,Female,2020-10-25_13h40.18.548,torte-q,2020.1.3,Win32,60,13208,0.687,,,,,,,,,,,,,,0,30,30,85,1,,,,,,,,,,,,,,,,,,,,,,,,,,
,,,,,,,,,,,,l,Correct!,,,,,,t5.png,t1.png,4,9.55E-11,20,Female,2020-10-25_13h40.18.548,torte-q,2020.1.3,Win32,60,13208,0.806,,,,,,,,,,,,,,0,31,31,102,1,,,,,,,,,,,,,,,,,,,,,,,,,,
,,,,,,,,,,,,a,Correct!,,,,,,t2.png,t2.png,0,0.98115,20,Female,2020-10-25_13h40.18.548,torte-q,2020.1.3,Win32,60,13208,0.783,,,,,,,,,,,,,,0,32,32,7,1,,,,,,,,,,,,,,,,,,,,,,,,,,
,,,,,,,,,,,,l,Correct!,,,,,,t5.png,t3.png,2,0.056466,20,Female,2020-10-25_13h40.18.548,torte-q,2020.1.3,Win32,60,13208,0.983,,,,,,,,,,,,,,0,33,33,108,1,,,,,,,,,,,,,,,,,,,,,,,,,,
,,,,,,,,,,,,a,Correct!,,,,,,t4.png,t4.png,0,0.98115,20,Female,2020-10-25_13h40.18.548,torte-q,2020.1.3,Win32,60,13208,0.937,,,,,,,,,,,,,,0,34,34,90,1,,,,,,,,,,,,,,,,,,,,,,,,,,
,,,,,,,,,,,,l,Correct!,,,,,,t2.png,t5.png,3,0.0000131,20,Female,2020-10-25_13h40.18.548,torte-q,2020.1.3,Win32,60,13208,0.7,,,,,,,,,,,,,,0,35,35,8,1,,,,,,,,,,,,,,,,,,,,,,,,,,
,,,,,,,,,,,,a,Correct!,,,,,,t4.png,t4.png,0,0.98115,20,Female,2020-10-25_13h40.18.548,torte-q,2020.1.3,Win32,60,13208,0.833,,,,,,,,,,,,,,0,36,36,79,1,,,,,,,,,,,,,,,,,,,,,,,,,,
,,,,,,,,,,,,l,Correct!,,,,,,t1.png,t5.png,4,9.55E-11,20,Female,2020-10-25_13h40.18.548,torte-q,2020.1.3,Win32,60,13208,0.771,,,,,,,,,,,,,,0,37,37,12,1,,,,,,,,,,,,,,,,,,,,,,,,,,
,,,,,,,,,,,,l,Correct!,,,,,,t5.png,t2.png,3,0.0000131,20,Female,2020-10-25_13h40.18.548,torte-q,2020.1.3,Win32,60,13208,1.004,,,,,,,,,,,,,,0,38,38,98,1,,,,,,,,,,,,,,,,,,,,,,,,,,
,,,,,,,,,,,,l,Correct!,,,,,,t1.png,t3.png,2,0.056466,20,Female,2020-10-25_13h40.18.548,torte-q,2020.1.3,Win32,60,13208,0.982,,,,,,,,,,,,,,0,39,39,87,1,,,,,,,,,,,,,,,,,,,,,,,,,,
,,,,,,,,,,,,a,Correct!,,,,,,t1.png,t2.png,1,0.90025,20,Female,2020-10-25_13h40.18.548,torte-q,2020.1.3,Win32,60,13208,0.815,,,,,,,,,,,,,,0,40,40,33,1,,,,,,,,,,,,,,,,,,,,,,,,,,
,,,,,,,,,,,,a,Correct!,,,,,,t5.png,t4.png,1,0.90025,20,Female,2020-10-25_13h40.18.548,torte-q,2020.1.3,Win32,60,13208,1.101,,,,,,,,,,,,,,0,41,41,34,1,,,,,,,,,,,,,,,,,,,,,,,,,,
,,,,,,,,,,,,a,Correct!,,,,,,t4.png,t3.png,1,0.90855,20,Female,2020-10-25_13h40.18.548,torte-q,2020.1.3,Win32,60,13208,0.948,,,,,,,,,,,,,,0,42,42,35,1,,,,,,,,,,,,,,,,,,,,,,,,,,
,,,,,,,,,,,,a,Correct!,,,,,,t2.png,t1.png,1,0.9,20,Female,2020-10-25_13h40.18.548,torte-q,2020.1.3,Win32,60,13208,0.7,,,,,,,,,,,,,,0,43,43,118,1,,,,,,,,,,,,,,,,,,,,,,,,,,
,,,,,,,,,,,,l,Correct!,,,,,,t1.png,t5.png,4,9.55E-11,20,Female,2020-10-25_13h40.18.548,torte-q,2020.1.3,Win32,60,13208,0.67,,,,,,,,,,,,,,0,44,44,55,1,,,,,,,,,,,,,,,,,,,,,,,,,,
,,,,,,,,,,,,a,Correct!,,,,,,t3.png,t4.png,1,0.90855,20,Female,2020-10-25_13h40.18.548,torte-q,2020.1.3,Win32,60,13208,0.999,,,,,,,,,,,,,,0,45,45,96,1,,,,,,,,,,,,,,,,,,,,,,,,,,
,,,,,,,,,,,,l,Correct!,,,,,,t1.png,t5.png,4,9.55E-11,20,Female,2020-10-25_13h40.18.548,torte-q,2020.1.3,Win32,60,13208,0.604,,,,,,,,,,,,,,0,46,46,16,1,,,,,,,,,,,,,,,,,,,,,,,,,,
,,,,,,,,,,,,a,Correct!,,,,,,t2.png,t1.png,1,0.90025,20,Female,2020-10-25_13h40.18.548,torte-q,2020.1.3,Win32,60,13208,0.771,,,,,,,,,,,,,,0,47,47,62,1,,,,,,,,,,,,,,,,,,,,,,,,,,
,,,,,,,,,,,,l,Correct!,,,,,,t3.png,t5.png,2,0.056466,20,Female,2020-10-25_13h40.18.548,torte-q,2020.1.3,Win32,60,13208,0.771,,,,,,,,,,,,,,0,48,48,6,1,,,,,,,,,,,,,,,,,,,,,,,,,,
,,,,,,,,,,,,l,Correct!,,,,,,t3.png,t1.png,2,0.056466,20,Female,2020-10-25_13h40.18.548,torte-q,2020.1.3,Win32,60,13208,0.839,,,,,,,,,,,,,,0,49,49,0,1,,,,,,,,,,,,,,,,,,,,,,,,,,
,,,,,,,,,,,,l,Correct!,,,,,,t2.png,t3.png,1,0.90855,20,Female,2020-10-25_13h40.18.548,torte-q,2020.1.3,Win32,60,13208,1.09,,,,,,,,,,,,,,0,50,50,65,1,,,,,,,,,,,,,,,,,,,,,,,,,,
,,,,,,,,,,,,l,Correct!,,,,,,t1.png,t4.png,3,0.0000131,20,Female,2020-10-25_13h40.18.548,torte-q,2020.1.3,Win32,60,13208,0.838,,,,,,,,,,,,,,0,51,51,50,1,,,,,,,,,,,,,,,,,,,,,,,,,,
,,,,,,,,,,,,a,Correct!,,,,,,t4.png,t3.png,1,0.909,20,Female,2020-10-25_13h40.18.548,torte-q,2020.1.3,Win32,60,13208,1.118,,,,,,,,,,,,,,0,52,52,46,1,,,,,,,,,,,,,,,,,,,,,,,,,,
,,,,,,,,,,,,l,Correct!,,,,,,t3.png,t1.png,2,0.056466,20,Female,2020-10-25_13h40.18.548,torte-q,2020.1.3,Win32,60,13208,0.816,,,,,,,,,,,,,,0,53,53,32,1,,,,,,,,,,,,,,,,,,,,,,,,,,
,,,,,,,,,,,,l,Correct!,,,,,,t1.png,t4.png,3,0.0000131,20,Female,2020-10-25_13h40.18.548,torte-q,2020.1.3,Win32,60,13208,0.751,,,,,,,,,,,,,,0,54,54,107,1,,,,,,,,,,,,,,,,,,,,,,,,,,
,,,,,,,,,,,,a,Correct!,,,,,,t4.png,t5.png,1,0.9,20,Female,2020-10-25_13h40.18.548,torte-q,2020.1.3,Win32,60,13208,1,,,,,,,,,,,,,,0,55,55,115,1,,,,,,,,,,,,,,,,,,,,,,,,,,
,,,,,,,,,,,,a,Correct!,,,,,,t2.png,t2.png,0,0.98115,20,Female,2020-10-25_13h40.18.548,torte-q,2020.1.3,Win32,60,13208,0.95,,,,,,,,,,,,,,0,56,56,57,1,,,,,,,,,,,,,,,,,,,,,,,,,,
,,,,,,,,,,,,l,Incorrect,,,,,,t3.png,t4.png,1,0.909,20,Female,2020-10-25_13h40.18.548,torte-q,2020.1.3,Win32,60,13208,0.884,,,,,,,,,,,,,,0,57,57,82,1,,,,,,,,,,,,,,,,,,,,,,,,,,
,,,,,,,,,,,,a,Correct!,,,,,,t2.png,t2.png,0,0.98115,20,Female,2020-10-25_13h40.18.548,torte-q,2020.1.3,Win32,60,13208,0.799,,,,,,,,,,,,,,0,58,58,2,1,,,,,,,,,,,,,,,,,,,,,,,,,,
,,,,,,,,,,,,l,Correct!,,,,,,t2.png,t4.png,2,0.059078,20,Female,2020-10-25_13h40.18.548,torte-q,2020.1.3,Win32,60,13208,0.849,,,,,,,,,,,,,,0,59,59,77,1,,,,,,,,,,,,,,,,,,,,,,,,,,
,,,,,,,,,,,,a,Correct!,,,,,,t5.png,t4.png,1,0.90025,20,Female,2020-10-25_13h40.18.548,torte-q,2020.1.3,Win32,60,13208,0.9,,,,,,,,,,,,,,0,60,60,26,1,,,,,,,,,,,,,,,,,,,,,,,,,,
,,,,,,,,,,,,a,Correct!,,,,,,t4.png,t5.png,1,0.90025,20,Female,2020-10-25_13h40.18.548,torte-q,2020.1.3,Win32,60,13208,1.033,,,,,,,,,,,,,,0,61,61,47,1,,,,,,,,,,,,,,,,,,,,,,,,,,
,,,,,,,,,,,,a,Correct!,,,,,,t3.png,t4.png,1,0.90855,20,Female,2020-10-25_13h40.18.548,torte-q,2020.1.3,Win32,60,13208,0.916,,,,,,,,,,,,,,0,62,62,84,1,,,,,,,,,,,,,,,,,,,,,,,,,,
,,,,,,,,,,,,a,Correct!,,,,,,t1.png,t1.png,0,0.978,20,Female,2020-10-25_13h40.18.548,torte-q,2020.1.3,Win32,60,13208,0.67,,,,,,,,,,,,,,0,63,63,28,1,,,,,,,,,,,,,,,,,,,,,,,,,,
,,,,,,,,,,,,l,Correct!,,,,,,t5.png,t2.png,3,0.0000131,20,Female,2020-10-25_13h40.18.548,torte-q,2020.1.3,Win32,60,13208,1.034,,,,,,,,,,,,,,0,64,64,51,1,,,,,,,,,,,,,,,,,,,,,,,,,,
,,,,,,,,,,,,l,Correct!,,,,,,t5.png,t3.png,2,0.056466,20,Female,2020-10-25_13h40.18.548,torte-q,2020.1.3,Win32,60,13208,1.199,,,,,,,,,,,,,,0,65,65,38,1,,,,,,,,,,,,,,,,,,,,,,,,,,
,,,,,,,,,,,,l,Correct!,,,,,,t4.png,t1.png,3,0.0000131,20,Female,2020-10-25_13h40.18.548,torte-q,2020.1.3,Win32,60,13208,1.049,,,,,,,,,,,,,,0,66,66,48,1,,,,,,,,,,,,,,,,,,,,,,,,,,
,,,,,,,,,,,,l,Correct!,,,,,,t1.png,t4.png,3,0.0000131,20,Female,2020-10-25_13h40.18.548,torte-q,2020.1.3,Win32,60,13208,1.403,,,,,,,,,,,,,,0,67,67,92,1,,,,,,,,,,,,,,,,,,,,,,,,,,
,,,,,,,,,,,,a,Correct!,,,,,,t3.png,t2.png,1,0.90855,20,Female,2020-10-25_13h40.18.548,torte-q,2020.1.3,Win32,60,13208,1.048,,,,,,,,,,,,,,0,68,68,97,1,,,,,,,,,,,,,,,,,,,,,,,,,,
,,,,,,,,,,,,a,Correct!,,,,,,t4.png,t3.png,1,0.90855,20,Female,2020-10-25_13h40.18.548,torte-q,2020.1.3,Win32,60,13208,1.05,,,,,,,,,,,,,,0,69,69,75,1,,,,,,,,,,,,,,,,,,,,,,,,,,
,,,,,,,,,,,,l,Correct!,,,,,,t4.png,t2.png,2,0.0591,20,Female,2020-10-25_13h40.18.548,torte-q,2020.1.3,Win32,60,13208,1.001,,,,,,,,,,,,,,0,70,70,36,1,,,,,,,,,,,,,,,,,,,,,,,,,,
,,,,,,,,,,,,a,Correct!,,,,,,t3.png,t2.png,1,0.90855,20,Female,2020-10-25_13h40.18.548,torte-q,2020.1.3,Win32,60,13208,0.963,,,,,,,,,,,,,,0,71,71,53,1,,,,,,,,,,,,,,,,,,,,,,,,,,
,,,,,,,,,,,,a,Correct!,,,,,,t4.png,t5.png,1,0.90025,20,Female,2020-10-25_13h40.18.548,torte-q,2020.1.3,Win32,60,13208,1.184,,,,,,,,,,,,,,0,72,72,103,1,,,,,,,,,,,,,,,,,,,,,,,,,,
,,,,,,,,,,,,a,Incorrect,,,,,,t1.png,t2.png,1,0.90025,20,Female,2020-10-25_13h40.18.548,torte-q,2020.1.3,Win32,60,13208,0.903,,,,,,,,,,,,,,0,73,73,72,1,,,,,,,,,,,,,,,,,,,,,,,,,,
,,,,,,,,,,,,a,Correct!,,,,,,t5.png,t4.png,1,0.9,20,Female,2020-10-25_13h40.18.548,torte-q,2020.1.3,Win32,60,13208,0.943,,,,,,,,,,,,,,0,74,74,76,1,,,,,,,,,,,,,,,,,,,,,,,,,,
,,,,,,,,,,,,l,Correct!,,,,,,t3.png,t1.png,2,0.0565,20,Female,2020-10-25_13h40.18.548,torte-q,2020.1.3,Win32,60,13208,0.856,,,,,,,,,,,,,,0,75,75,31,1,,,,,,,,,,,,,,,,,,,,,,,,,,
,,,,,,,,,,,,a,Correct!,,,,,,t3.png,t2.png,1,0.90855,20,Female,2020-10-25_13h40.18.548,torte-q,2020.1.3,Win32,60,13208,0.861,,,,,,,,,,,,,,0,76,76,18,1,,,,,,,,,,,,,,,,,,,,,,,,,,
,,,,,,,,,,,,l,Correct!,,,,,,t3.png,t5.png,2,0.056466,20,Female,2020-10-25_13h40.18.548,torte-q,2020.1.3,Win32,60,13208,1.013,,,,,,,,,,,,,,0,77,77,44,1,,,,,,,,,,,,,,,,,,,,,,,,,,
,,,,,,,,,,,,l,Correct!,,,,,,t2.png,t5.png,3,0.0000131,20,Female,2020-10-25_13h40.18.548,torte-q,2020.1.3,Win32,60,13208,1.034,,,,,,,,,,,,,,0,78,78,95,1,,,,,,,,,,,,,,,,,,,,,,,,,,
,,,,,,,,,,,,l,Correct!,,,,,,t5.png,t1.png,4,9.55E-11,20,Female,2020-10-25_13h40.18.548,torte-q,2020.1.3,Win32,60,13208,0.717,,,,,,,,,,,,,,0,79,79,71,1,,,,,,,,,,,,,,,,,,,,,,,,,,
,,,,,,,,,,,,l,Correct!,,,,,,t3.png,t1.png,2,0.056466,20,Female,2020-10-25_13h40.18.548,torte-q,2020.1.3,Win32,60,13208,0.817,,,,,,,,,,,,,,0,80,80,29,1,,,,,,,,,,,,,,,,,,,,,,,,,,
,,,,,,,,,,,,l,Correct!,,,,,,t1.png,t3.png,2,0.056466,20,Female,2020-10-25_13h40.18.548,torte-q,2020.1.3,Win32,60,13208,0.917,,,,,,,,,,,,,,0,81,81,60,1,,,,,,,,,,,,,,,,,,,,,,,,,,
,,,,,,,,,,,,a,Correct!,,,,,,t3.png,t4.png,1,0.909,20,Female,2020-10-25_13h40.18.548,torte-q,2020.1.3,Win32,60,13208,1.314,,,,,,,,,,,,,,0,82,82,106,1,,,,,,,,,,,,,,,,,,,,,,,,,,
,,,,,,,,,,,,a,Correct!,,,,,,t1.png,t1.png,0,0.97829,20,Female,2020-10-25_13h40.18.548,torte-q,2020.1.3,Win32,60,13208,0.75,,,,,,,,,,,,,,0,83,83,78,1,,,,,,,,,,,,,,,,,,,,,,,,,,
,,,,,,,,,,,,l,Correct!,,,,,,t2.png,t4.png,2,0.059078,20,Female,2020-10-25_13h40.18.548,torte-q,2020.1.3,Win32,60,13208,1.004,,,,,,,,,,,,,,0,84,84,37,1,,,,,,,,,,,,,,,,,,,,,,,,,,
,,,,,,,,,,,,l,Correct!,,,,,,t5.png,t2.png,3,0.0000131,20,Female,2020-10-25_13h40.18.548,torte-q,2020.1.3,Win32,60,13208,1.171,,,,,,,,,,,,,,0,85,85,91,1,,,,,,,,,,,,,,,,,,,,,,,,,,
,,,,,,,,,,,,a,Correct!,,,,,,t2.png,t3.png,1,0.90855,20,Female,2020-10-25_13h40.18.548,torte-q,2020.1.3,Win32,60,13208,0.814,,,,,,,,,,,,,,0,86,86,10,1,,,,,,,,,,,,,,,,,,,,,,,,,,
,,,,,,,,,,,,l,Correct!,,,,,,t1.png,t4.png,3,0.0000131,20,Female,2020-10-25_13h40.18.548,torte-q,2020.1.3,Win32,60,13208,0.917,,,,,,,,,,,,,,0,87,87,17,1,,,,,,,,,,,,,,,,,,,,,,,,,,
,,,,,,,,,,,,l,Correct!,,,,,,t5.png,t3.png,2,0.056466,20,Female,2020-10-25_13h40.18.548,torte-q,2020.1.3,Win32,60,13208,1.151,,,,,,,,,,,,,,0,88,88,114,1,,,,,,,,,,,,,,,,,,,,,,,,,,
,,,,,,,,,,,,a,Correct!,,,,,,t1.png,t2.png,1,0.90025,20,Female,2020-10-25_13h40.18.548,torte-q,2020.1.3,Win32,60,13208,1.101,,,,,,,,,,,,,,0,89,89,105,1,,,,,,,,,,,,,,,,,,,,,,,,,,
,,,,,,,,,,,,a,Incorrect,,,,,,t5.png,t4.png,1,0.9,20,Female,2020-10-25_13h40.18.548,torte-q,2020.1.3,Win32,60,13208,0.903,,,,,,,,,,,,,,0,90,90,49,1,,,,,,,,,,,,,,,,,,,,,,,,,,
,,,,,,,,,,,,a,Incorrect,,,,,,t3.png,t4.png,1,0.909,20,Female,2020-10-25_13h40.18.548,torte-q,2020.1.3,Win32,60,13208,0.743,,,,,,,,,,,,,,0,91,91,89,1,,,,,,,,,,,,,,,,,,,,,,,,,,
,,,,,,,,,,,,a,Incorrect,,,,,,t2.png,t4.png,2,0.0591,20,Female,2020-10-25_13h40.18.548,torte-q,2020.1.3,Win32,60,13208,0.902,,,,,,,,,,,,,,0,92,92,15,1,,,,,,,,,,,,,,,,,,,,,,,,,,
,,,,,,,,,,,,a,Correct!,,,,,,t4.png,t5.png,1,0.90025,20,Female,2020-10-25_13h40.18.548,torte-q,2020.1.3,Win32,60,13208,1.051,,,,,,,,,,,,,,0,93,93,113,1,,,,,,,,,,,,,,,,,,,,,,,,,,
,,,,,,,,,,,,a,Correct!,,,,,,t5.png,t5.png,0,0.97829,20,Female,2020-10-25_13h40.18.548,torte-q,2020.1.3,Win32,60,13208,0.879,,,,,,,,,,,,,,0,94,94,70,1,,,,,,,,,,,,,,,,,,,,,,,,,,
,,,,,,,,,,,,l,Correct!,,,,,,t3.png,t1.png,2,0.056466,20,Female,2020-10-25_13h40.18.548,torte-q,2020.1.3,Win32,60,13208,0.867,,,,,,,,,,,,,,0,95,95,64,1,,,,,,,,,,,,,,,,,,,,,,,,,,
,,,,,,,,,,,,l,Correct!,,,,,,t2.png,t5.png,3,0.0000131,20,Female,2020-10-25_13h40.18.548,torte-q,2020.1.3,Win32,60,13208,0.851,,,,,,,,,,,,,,0,96,96,104,1,,,,,,,,,,,,,,,,,,,,,,,,,,
,,,,,,,,,,,,a,Correct!,,,,,,t2.png,t3.png,1,0.909,20,Female,2020-10-25_13h40.18.548,torte-q,2020.1.3,Win32,60,13208,0.685,,,,,,,,,,,,,,0,97,97,74,1,,,,,,,,,,,,,,,,,,,,,,,,,,
,,,,,,,,,,,,a,Correct!,,,,,,t4.png,t4.png,0,0.98115,20,Female,2020-10-25_13h40.18.548,torte-q,2020.1.3,Win32,60,13208,0.967,,,,,,,,,,,,,,0,98,98,80,1,,,,,,,,,,,,,,,,,,,,,,,,,,
,,,,,,,,,,,,a,Correct!,,,,,,t2.png,t3.png,1,0.90855,20,Female,2020-10-25_13h40.18.548,torte-q,2020.1.3,Win32,60,13208,0.803,,,,,,,,,,,,,,0,99,99,111,1,,,,,,,,,,,,,,,,,,,,,,,,,,
,,,,,,,,,,,,a,Correct!,,,,,,t3.png,t2.png,1,0.909,20,Female,2020-10-25_13h40.18.548,torte-q,2020.1.3,Win32,60,13208,0.952,,,,,,,,,,,,,,0,100,100,3,1,,,,,,,,,,,,,,,,,,,,,,,,,,
,,,,,,,,,,,,l,Correct!,,,,,,t4.png,t1.png,3,0.0000131,20,Female,2020-10-25_13h40.18.548,torte-q,2020.1.3,Win32,60,13208,0.802,,,,,,,,,,,,,,0,101,101,42,1,,,,,,,,,,,,,,,,,,,,,,,,,,
,,,,,,,,,,,,l,Correct!,,,,,,t5.png,t2.png,3,0.0000131,20,Female,2020-10-25_13h40.18.548,torte-q,2020.1.3,Win32,60,13208,0.884,,,,,,,,,,,,,,0,102,102,119,1,,,,,,,,,,,,,,,,,,,,,,,,,,
,,,,,,,,,,,,l,Correct!,,,,,,t5.png,t1.png,4,9.55E-11,20,Female,2020-10-25_13h40.18.548,torte-q,2020.1.3,Win32,60,13208,0.701,,,,,,,,,,,,,,0,103,103,43,1,,,,,,,,,,,,,,,,,,,,,,,,,,
,,,,,,,,,,,,a,Incorrect,,,,,,t5.png,t3.png,2,0.0565,20,Female,2020-10-25_13h40.18.548,torte-q,2020.1.3,Win32,60,13208,0.899,,,,,,,,,,,,,,0,104,104,39,1,,,,,,,,,,,,,,,,,,,,,,,,,,
,,,,,,,,,,,,l,Correct!,,,,,,t1.png,t4.png,3,0.0000131,20,Female,2020-10-25_13h40.18.548,torte-q,2020.1.3,Win32,60,13208,0.85,,,,,,,,,,,,,,0,105,105,81,1,,,,,,,,,,,,,,,,,,,,,,,,,,
,,,,,,,,,,,,l,Correct!,,,,,,t3.png,t5.png,2,0.0565,20,Female,2020-10-25_13h40.18.548,torte-q,2020.1.3,Win32,60,13208,0.848,,,,,,,,,,,,,,0,106,106,83,1,,,,,,,,,,,,,,,,,,,,,,,,,,
,,,,,,,,,,,,l,Correct!,,,,,,t5.png,t1.png,4,9.55E-11,20,Female,2020-10-25_13h40.18.548,torte-q,2020.1.3,Win32,60,13208,0.727,,,,,,,,,,,,,,0,107,107,22,1,,,,,,,,,,,,,,,,,,,,,,,,,,
,,,,,,,,,,,,l,Correct!,,,,,,t4.png,t1.png,3,0.0000131,20,Female,2020-10-25_13h40.18.548,torte-q,2020.1.3,Win32,60,13208,1.123,,,,,,,,,,,,,,0,108,108,93,1,,,,,,,,,,,,,,,,,,,,,,,,,,
,,,,,,,,,,,,l,Correct!,,,,,,t2.png,t5.png,3,0.0000131,20,Female,2020-10-25_13h40.18.548,torte-q,2020.1.3,Win32,60,13208,0.785,,,,,,,,,,,,,,0,109,109,66,1,,,,,,,,,,,,,,,,,,,,,,,,,,
,,,,,,,,,,,,a,Correct!,,,,,,t5.png,t4.png,1,0.90025,20,Female,2020-10-25_13h40.18.548,torte-q,2020.1.3,Win32,60,13208,1.081,,,,,,,,,,,,,,0,110,110,27,1,,,,,,,,,,,,,,,,,,,,,,,,,,
,,,,,,,,,,,,a,Correct!,,,,,,t1.png,t2.png,1,0.9,20,Female,2020-10-25_13h40.18.548,torte-q,2020.1.3,Win32,60,13208,0.854,,,,,,,,,,,,,,0,111,111,1,1,,,,,,,,,,,,,,,,,,,,,,,,,,
,,,,,,,,,,,,a,Correct!,,,,,,t1.png,t1.png,0,0.97829,20,Female,2020-10-25_13h40.18.548,torte-q,2020.1.3,Win32,60,13208,0.773,,,,,,,,,,,,,,0,112,112,9,1,,,,,,,,,,,,,,,,,,,,,,,,,,
,,,,,,,,,,,,a,Correct!,,,,,,t1.png,t2.png,1,0.90025,20,Female,2020-10-25_13h40.18.548,torte-q,2020.1.3,Win32,60,13208,0.848,,,,,,,,,,,,,,0,113,113,112,1,,,,,,,,,,,,,,,,,,,,,,,,,,
,,,,,,,,,,,,l,Correct!,,,,,,t4.png,t1.png,3,0.0000131,20,Female,2020-10-25_13h40.18.548,torte-q,2020.1.3,Win32,60,13208,0.89,,,,,,,,,,,,,,0,114,114,13,1,,,,,,,,,,,,,,,,,,,,,,,,,,
,,,,,,,,,,,,a,Correct!,,,,,,t5.png,t5.png,0,0.97829,20,Female,2020-10-25_13h40.18.548,torte-q,2020.1.3,Win32,60,13208,0.704,,,,,,,,,,,,,,0,115,115,25,1,,,,,,,,,,,,,,,,,,,,,,,,,,
,,,,,,,,,,,,l,Correct!,,,,,,t4.png,t2.png,2,0.059078,20,Female,2020-10-25_13h40.18.548,torte-q,2020.1.3,Win32,60,13208,1.169,,,,,,,,,,,,,,0,116,116,86,1,,,,,,,,,,,,,,,,,,,,,,,,,,
,,,,,,,,,,,,a,Correct!,,,,,,t1.png,t1.png,0,0.978,20,Female,2020-10-25_13h40.18.548,torte-q,2020.1.3,Win32,60,13208,0.655,,,,,,,,,,,,,,0,117,117,54,1,,,,,,,,,,,,,,,,,,,,,,,,,,
,,,,,,,,,,,,a,Correct!,,,,,,t4.png,t3.png,1,0.90855,20,Female,2020-10-25_13h40.18.548,torte-q,2020.1.3,Win32,60,13208,0.837,,,,,,,,,,,,,,0,118,118,45,1,,,,,,,,,,,,,,,,,,,,,,,,,,
,,,,,,,,,,,,l,Correct!,,,,,,t3.png,t5.png,2,0.056466,20,Female,2020-10-25_13h40.18.548,torte-q,2020.1.3,Win32,60,13208,0.9,,,,,,,,,,,,,,0,119,119,14,1,,,,,,,,,,,,,,,,,,,,,,,,,,
,,,,,,,,,,,,,,,,,,,,,,,20,Female,2020-10-25_13h40.18.548,torte-q,2020.1.3,Win32,60,13208,,space,1.265,,,,,,,,,,,,,,,,,4.9825,5.422,197,125,1,0,0,s2,194,88,1,0,0,t1,289,-106,1,0,0,proceed,space,0.91,space,0.346,space,0.36
