key_resp_8.keys,key_resp_8.rt,key_resp_9.keys,key_resp_9.rt,key_resp_10.keys,key_resp_10.rt,key_resp_11.keys,key_resp_11.rt,key_resp_2.keys,key_resp_2.rt,key_resp_3.keys,key_resp_3.rt,key_resp.keys,Feedback,train.thisRepN,train.thisTrialN,train.thisN,train.thisIndex,train.ran,torta_sx,torta_dx,difference,probability,age,gender,date,expName,psychopyVersion,OS,frameRate,participant,key_resp.rt,key_resp_15.keys,key_resp_15.rt,key_resp_6.keys,key_resp_6.rt,test1.thisRepN,test1.thisTrialN,test1.thisN,test1.thisIndex,test1.ran,key_resp_16.keys,key_resp_16.rt,key_resp_7.keys,key_resp_7.rt,test2.thisRepN,test2.thisTrialN,test2.thisN,test2.thisIndex,test2.ran,rating.response,rating.rt,mouse.x,mouse.y,mouse.leftButton,mouse.midButton,mouse.rightButton,mouse.clicked_name,mouse_2.x,mouse_2.y,mouse_2.leftButton,mouse_2.midButton,mouse_2.rightButton,mouse_2.clicked_name,mouse_3.x,mouse_3.y,mouse_3.leftButton,mouse_3.midButton,mouse_3.rightButton,mouse_3.clicked_name,key_resp_12.keys,key_resp_12.rt,key_resp_13.keys,key_resp_13.rt,key_resp_14.keys,key_resp_14.rt
space,10.35298,space,0.199695,space,1.584055,space,4.786285,space,9.935295,space,35.61333,,Too slow :(,0,0,0,33,1,t5.png,t1.png,4,9.55E-11,19,Female,2020-11-13_15h05.39.446,torte-q,2020.1.3,MacIntel,60,13209,,,,,,,,,,,,,,,,,,,,,,,,,,,,,,,,,,,,,,,,,,,,,
,,,,,,,,,,,,,Too slow :(,0,1,1,36,1,t3.png,t1.png,2,0.0565,19,Female,2020-11-13_15h05.39.446,torte-q,2020.1.3,MacIntel,60,13209,,,,,,,,,,,,,,,,,,,,,,,,,,,,,,,,,,,,,,,,,,,,,
,,,,,,,,,,,,l,Correct!,0,2,2,47,1,t4.png,t2.png,2,0.059078,19,Female,2020-11-13_15h05.39.446,torte-q,2020.1.3,MacIntel,60,13209,0.966115,,,,,,,,,,,,,,,,,,,,,,,,,,,,,,,,,,,,,,,,,,,,
,,,,,,,,,,,,a,Correct!,0,3,3,44,1,t2.png,t3.png,1,0.909,19,Female,2020-11-13_15h05.39.446,torte-q,2020.1.3,MacIntel,60,13209,1.18307,,,,,,,,,,,,,,,,,,,,,,,,,,,,,,,,,,,,,,,,,,,,
,,,,,,,,,,,,a,Incorrect,0,4,4,21,1,t5.png,t4.png,1,0.90025,19,Female,2020-11-13_15h05.39.446,torte-q,2020.1.3,MacIntel,60,13209,0.91729,,,,,,,,,,,,,,,,,,,,,,,,,,,,,,,,,,,,,,,,,,,,
,,,,,,,,,,,,a,Correct!,0,5,5,92,1,t2.png,t3.png,1,0.909,19,Female,2020-11-13_15h05.39.446,torte-q,2020.1.3,MacIntel,60,13209,1.0661,,,,,,,,,,,,,,,,,,,,,,,,,,,,,,,,,,,,,,,,,,,,
,,,,,,,,,,,,l,Correct!,0,6,6,50,1,t5.png,t1.png,4,9.55E-11,19,Female,2020-11-13_15h05.39.446,torte-q,2020.1.3,MacIntel,60,13209,0.883515,,,,,,,,,,,,,,,,,,,,,,,,,,,,,,,,,,,,,,,,,,,,
,,,,,,,,,,,,a,Correct!,0,7,7,22,1,t2.png,t3.png,1,0.90855,19,Female,2020-11-13_15h05.39.446,torte-q,2020.1.3,MacIntel,60,13209,0.830905,,,,,,,,,,,,,,,,,,,,,,,,,,,,,,,,,,,,,,,,,,,,
,,,,,,,,,,,,a,Incorrect,0,8,8,68,1,t1.png,t4.png,3,0.0000131,19,Female,2020-11-13_15h05.39.446,torte-q,2020.1.3,MacIntel,60,13209,0.88399,,,,,,,,,,,,,,,,,,,,,,,,,,,,,,,,,,,,,,,,,,,,
,,,,,,,,,,,,a,Incorrect,0,9,9,80,1,t1.png,t4.png,3,0.0000131,19,Female,2020-11-13_15h05.39.446,torte-q,2020.1.3,MacIntel,60,13209,1.10263,,,,,,,,,,,,,,,,,,,,,,,,,,,,,,,,,,,,,,,,,,,,
,,,,,,,,,,,,l,Correct!,0,10,10,111,1,t5.png,t1.png,4,9.55E-11,19,Female,2020-11-13_15h05.39.446,torte-q,2020.1.3,MacIntel,60,13209,0.967725,,,,,,,,,,,,,,,,,,,,,,,,,,,,,,,,,,,,,,,,,,,,
,,,,,,,,,,,,a,Correct!,0,11,11,9,1,t4.png,t5.png,1,0.9,19,Female,2020-11-13_15h05.39.446,torte-q,2020.1.3,MacIntel,60,13209,1.59901,,,,,,,,,,,,,,,,,,,,,,,,,,,,,,,,,,,,,,,,,,,,
,,,,,,,,,,,,a,Correct!,0,12,12,75,1,t1.png,t1.png,0,0.97829,19,Female,2020-11-13_15h05.39.446,torte-q,2020.1.3,MacIntel,60,13209,1.481515,,,,,,,,,,,,,,,,,,,,,,,,,,,,,,,,,,,,,,,,,,,,
,,,,,,,,,,,,a,Correct!,0,13,13,104,1,t2.png,t3.png,1,0.90855,19,Female,2020-11-13_15h05.39.446,torte-q,2020.1.3,MacIntel,60,13209,1.351855,,,,,,,,,,,,,,,,,,,,,,,,,,,,,,,,,,,,,,,,,,,,
,,,,,,,,,,,,l,Correct!,0,14,14,87,1,t5.png,t1.png,4,9.55E-11,19,Female,2020-11-13_15h05.39.446,torte-q,2020.1.3,MacIntel,60,13209,0.596545,,,,,,,,,,,,,,,,,,,,,,,,,,,,,,,,,,,,,,,,,,,,
,,,,,,,,,,,,a,Incorrect,0,15,15,30,1,t3.png,t1.png,2,0.056466,19,Female,2020-11-13_15h05.39.446,torte-q,2020.1.3,MacIntel,60,13209,1.03562,,,,,,,,,,,,,,,,,,,,,,,,,,,,,,,,,,,,,,,,,,,,
,,,,,,,,,,,,a,Correct!,0,16,16,45,1,t3.png,t2.png,1,0.90855,19,Female,2020-11-13_15h05.39.446,torte-q,2020.1.3,MacIntel,60,13209,1.13411,,,,,,,,,,,,,,,,,,,,,,,,,,,,,,,,,,,,,,,,,,,,
,,,,,,,,,,,,l,Incorrect,0,17,17,100,1,t4.png,t5.png,1,0.90025,19,Female,2020-11-13_15h05.39.446,torte-q,2020.1.3,MacIntel,60,13209,1.078815,,,,,,,,,,,,,,,,,,,,,,,,,,,,,,,,,,,,,,,,,,,,
,,,,,,,,,,,,l,Correct!,0,18,18,43,1,t4.png,t2.png,2,0.059078,19,Female,2020-11-13_15h05.39.446,torte-q,2020.1.3,MacIntel,60,13209,0.96763,,,,,,,,,,,,,,,,,,,,,,,,,,,,,,,,,,,,,,,,,,,,
,,,,,,,,,,,,a,Correct!,0,19,19,29,1,t5.png,t5.png,0,0.97829,19,Female,2020-11-13_15h05.39.446,torte-q,2020.1.3,MacIntel,60,13209,0.86207,,,,,,,,,,,,,,,,,,,,,,,,,,,,,,,,,,,,,,,,,,,,
,,,,,,,,,,,,l,Incorrect,0,20,20,76,1,t3.png,t2.png,1,0.90855,19,Female,2020-11-13_15h05.39.446,torte-q,2020.1.3,MacIntel,60,13209,0.76686,,,,,,,,,,,,,,,,,,,,,,,,,,,,,,,,,,,,,,,,,,,,
,,,,,,,,,,,,a,Incorrect,0,21,21,72,1,t4.png,t2.png,2,0.059078,19,Female,2020-11-13_15h05.39.446,torte-q,2020.1.3,MacIntel,60,13209,0.995525,,,,,,,,,,,,,,,,,,,,,,,,,,,,,,,,,,,,,,,,,,,,
,,,,,,,,,,,,a,Incorrect,0,22,22,61,1,t1.png,t4.png,3,0.0000131,19,Female,2020-11-13_15h05.39.446,torte-q,2020.1.3,MacIntel,60,13209,1.1164,,,,,,,,,,,,,,,,,,,,,,,,,,,,,,,,,,,,,,,,,,,,
,,,,,,,,,,,,l,Incorrect,0,23,23,2,1,t3.png,t2.png,1,0.90855,19,Female,2020-11-13_15h05.39.446,torte-q,2020.1.3,MacIntel,60,13209,0.89901,,,,,,,,,,,,,,,,,,,,,,,,,,,,,,,,,,,,,,,,,,,,
,,,,,,,,,,,,a,Correct!,0,24,24,77,1,t1.png,t1.png,0,0.97829,19,Female,2020-11-13_15h05.39.446,torte-q,2020.1.3,MacIntel,60,13209,1.099505,,,,,,,,,,,,,,,,,,,,,,,,,,,,,,,,,,,,,,,,,,,,
,,,,,,,,,,,,a,Incorrect,0,25,25,102,1,t4.png,t2.png,2,0.059078,19,Female,2020-11-13_15h05.39.446,torte-q,2020.1.3,MacIntel,60,13209,0.701915,,,,,,,,,,,,,,,,,,,,,,,,,,,,,,,,,,,,,,,,,,,,
,,,,,,,,,,,,a,Correct!,0,26,26,84,1,t1.png,t1.png,0,0.97829,19,Female,2020-11-13_15h05.39.446,torte-q,2020.1.3,MacIntel,60,13209,0.78223,,,,,,,,,,,,,,,,,,,,,,,,,,,,,,,,,,,,,,,,,,,,
,,,,,,,,,,,,l,Correct!,0,27,27,1,1,t2.png,t4.png,2,0.059078,19,Female,2020-11-13_15h05.39.446,torte-q,2020.1.3,MacIntel,60,13209,0.84977,,,,,,,,,,,,,,,,,,,,,,,,,,,,,,,,,,,,,,,,,,,,
,,,,,,,,,,,,a,Incorrect,0,28,28,38,1,t3.png,t1.png,2,0.056466,19,Female,2020-11-13_15h05.39.446,torte-q,2020.1.3,MacIntel,60,13209,0.89525,,,,,,,,,,,,,,,,,,,,,,,,,,,,,,,,,,,,,,,,,,,,
,,,,,,,,,,,,l,Incorrect,0,29,29,23,1,t5.png,t4.png,1,0.90025,19,Female,2020-11-13_15h05.39.446,torte-q,2020.1.3,MacIntel,60,13209,0.900945,,,,,,,,,,,,,,,,,,,,,,,,,,,,,,,,,,,,,,,,,,,,
,,,,,,,,,,,,l,Incorrect,0,30,30,112,1,t1.png,t1.png,0,0.97829,19,Female,2020-11-13_15h05.39.446,torte-q,2020.1.3,MacIntel,60,13209,0.71163,,,,,,,,,,,,,,,,,,,,,,,,,,,,,,,,,,,,,,,,,,,,
,,,,,,,,,,,,l,Incorrect,0,31,31,106,1,t2.png,t3.png,1,0.90855,19,Female,2020-11-13_15h05.39.446,torte-q,2020.1.3,MacIntel,60,13209,1.483155,,,,,,,,,,,,,,,,,,,,,,,,,,,,,,,,,,,,,,,,,,,,
,,,,,,,,,,,,a,Incorrect,0,32,32,10,1,t2.png,t3.png,1,0.90855,19,Female,2020-11-13_15h05.39.446,torte-q,2020.1.3,MacIntel,60,13209,2.36911,,,,,,,,,,,,,,,,,,,,,,,,,,,,,,,,,,,,,,,,,,,,
,,,,,,,,,,,,a,Correct!,0,33,33,39,1,t3.png,t2.png,1,0.90855,19,Female,2020-11-13_15h05.39.446,torte-q,2020.1.3,MacIntel,60,13209,1.24848,,,,,,,,,,,,,,,,,,,,,,,,,,,,,,,,,,,,,,,,,,,,
,,,,,,,,,,,,a,Correct!,0,34,34,97,1,t5.png,t5.png,0,0.97829,19,Female,2020-11-13_15h05.39.446,torte-q,2020.1.3,MacIntel,60,13209,1.283155,,,,,,,,,,,,,,,,,,,,,,,,,,,,,,,,,,,,,,,,,,,,
,,,,,,,,,,,,l,Correct!,0,35,35,73,1,t4.png,t2.png,2,0.059078,19,Female,2020-11-13_15h05.39.446,torte-q,2020.1.3,MacIntel,60,13209,0.88305,,,,,,,,,,,,,,,,,,,,,,,,,,,,,,,,,,,,,,,,,,,,
,,,,,,,,,,,,l,Correct!,0,36,36,46,1,t4.png,t2.png,2,0.059078,19,Female,2020-11-13_15h05.39.446,torte-q,2020.1.3,MacIntel,60,13209,0.61613,,,,,,,,,,,,,,,,,,,,,,,,,,,,,,,,,,,,,,,,,,,,
,,,,,,,,,,,,a,Incorrect,0,37,37,57,1,t2.png,t4.png,2,0.059078,19,Female,2020-11-13_15h05.39.446,torte-q,2020.1.3,MacIntel,60,13209,1.11655,,,,,,,,,,,,,,,,,,,,,,,,,,,,,,,,,,,,,,,,,,,,
,,,,,,,,,,,,l,Correct!,0,38,38,54,1,t1.png,t5.png,4,9.55E-11,19,Female,2020-11-13_15h05.39.446,torte-q,2020.1.3,MacIntel,60,13209,0.91525,,,,,,,,,,,,,,,,,,,,,,,,,,,,,,,,,,,,,,,,,,,,
,,,,,,,,,,,,a,Incorrect,0,39,39,37,1,t1.png,t4.png,3,0.0000131,19,Female,2020-11-13_15h05.39.446,torte-q,2020.1.3,MacIntel,60,13209,1.600105,,,,,,,,,,,,,,,,,,,,,,,,,,,,,,,,,,,,,,,,,,,,
,,,,,,,,,,,,l,Incorrect,0,40,40,34,1,t5.png,t4.png,1,0.9,19,Female,2020-11-13_15h05.39.446,torte-q,2020.1.3,MacIntel,60,13209,1.1317,,,,,,,,,,,,,,,,,,,,,,,,,,,,,,,,,,,,,,,,,,,,
,,,,,,,,,,,,l,Correct!,0,41,41,24,1,t4.png,t2.png,2,0.059078,19,Female,2020-11-13_15h05.39.446,torte-q,2020.1.3,MacIntel,60,13209,0.98318,,,,,,,,,,,,,,,,,,,,,,,,,,,,,,,,,,,,,,,,,,,,
,,,,,,,,,,,,l,Correct!,0,42,42,26,1,t4.png,t2.png,2,0.0591,19,Female,2020-11-13_15h05.39.446,torte-q,2020.1.3,MacIntel,60,13209,1.099075,,,,,,,,,,,,,,,,,,,,,,,,,,,,,,,,,,,,,,,,,,,,
,,,,,,,,,,,,a,Incorrect,0,43,43,86,1,t3.png,t1.png,2,0.056466,19,Female,2020-11-13_15h05.39.446,torte-q,2020.1.3,MacIntel,60,13209,0.899885,,,,,,,,,,,,,,,,,,,,,,,,,,,,,,,,,,,,,,,,,,,,
,,,,,,,,,,,,a,Correct!,0,44,44,58,1,t5.png,t4.png,1,0.90025,19,Female,2020-11-13_15h05.39.446,torte-q,2020.1.3,MacIntel,60,13209,0.88404,,,,,,,,,,,,,,,,,,,,,,,,,,,,,,,,,,,,,,,,,,,,
,,,,,,,,,,,,a,Correct!,0,45,45,110,1,t4.png,t5.png,1,0.90025,19,Female,2020-11-13_15h05.39.446,torte-q,2020.1.3,MacIntel,60,13209,1.52986,,,,,,,,,,,,,,,,,,,,,,,,,,,,,,,,,,,,,,,,,,,,
,,,,,,,,,,,,l,Incorrect,0,46,46,71,1,t5.png,t5.png,0,0.97829,19,Female,2020-11-13_15h05.39.446,torte-q,2020.1.3,MacIntel,60,13209,0.89971,,,,,,,,,,,,,,,,,,,,,,,,,,,,,,,,,,,,,,,,,,,,
,,,,,,,,,,,,a,Correct!,0,47,47,96,1,t1.png,t1.png,0,0.97829,19,Female,2020-11-13_15h05.39.446,torte-q,2020.1.3,MacIntel,60,13209,0.981495,,,,,,,,,,,,,,,,,,,,,,,,,,,,,,,,,,,,,,,,,,,,
,,,,,,,,,,,,l,Correct!,0,48,48,117,1,t1.png,t5.png,4,9.55E-11,19,Female,2020-11-13_15h05.39.446,torte-q,2020.1.3,MacIntel,60,13209,1.20059,,,,,,,,,,,,,,,,,,,,,,,,,,,,,,,,,,,,,,,,,,,,
,,,,,,,,,,,,a,Correct!,0,49,49,8,1,t3.png,t2.png,1,0.90855,19,Female,2020-11-13_15h05.39.446,torte-q,2020.1.3,MacIntel,60,13209,0.985755,,,,,,,,,,,,,,,,,,,,,,,,,,,,,,,,,,,,,,,,,,,,
,,,,,,,,,,,,a,Incorrect,0,50,50,60,1,t2.png,t4.png,2,0.059078,19,Female,2020-11-13_15h05.39.446,torte-q,2020.1.3,MacIntel,60,13209,1.014695,,,,,,,,,,,,,,,,,,,,,,,,,,,,,,,,,,,,,,,,,,,,
,,,,,,,,,,,,l,Correct!,0,51,51,3,1,t1.png,t5.png,4,9.55E-11,19,Female,2020-11-13_15h05.39.446,torte-q,2020.1.3,MacIntel,60,13209,0.73431,,,,,,,,,,,,,,,,,,,,,,,,,,,,,,,,,,,,,,,,,,,,
,,,,,,,,,,,,a,Correct!,0,52,52,118,1,t5.png,t5.png,0,0.978,19,Female,2020-11-13_15h05.39.446,torte-q,2020.1.3,MacIntel,60,13209,0.819275,,,,,,,,,,,,,,,,,,,,,,,,,,,,,,,,,,,,,,,,,,,,
,,,,,,,,,,,,a,Correct!,0,53,53,18,1,t4.png,t5.png,1,0.90025,19,Female,2020-11-13_15h05.39.446,torte-q,2020.1.3,MacIntel,60,13209,1.13518,,,,,,,,,,,,,,,,,,,,,,,,,,,,,,,,,,,,,,,,,,,,
,,,,,,,,,,,,l,Correct!,0,54,54,83,1,t3.png,t1.png,2,0.056466,19,Female,2020-11-13_15h05.39.446,torte-q,2020.1.3,MacIntel,60,13209,0.902755,,,,,,,,,,,,,,,,,,,,,,,,,,,,,,,,,,,,,,,,,,,,
,,,,,,,,,,,,a,Correct!,0,55,55,7,1,t4.png,t5.png,1,0.90025,19,Female,2020-11-13_15h05.39.446,torte-q,2020.1.3,MacIntel,60,13209,1.08485,,,,,,,,,,,,,,,,,,,,,,,,,,,,,,,,,,,,,,,,,,,,
,,,,,,,,,,,,a,Correct!,0,56,56,78,1,t1.png,t1.png,0,0.978,19,Female,2020-11-13_15h05.39.446,torte-q,2020.1.3,MacIntel,60,13209,0.750895,,,,,,,,,,,,,,,,,,,,,,,,,,,,,,,,,,,,,,,,,,,,
,,,,,,,,,,,,l,Correct!,0,57,57,108,1,t5.png,t1.png,4,9.55E-11,19,Female,2020-11-13_15h05.39.446,torte-q,2020.1.3,MacIntel,60,13209,0.550755,,,,,,,,,,,,,,,,,,,,,,,,,,,,,,,,,,,,,,,,,,,,
,,,,,,,,,,,,l,Correct!,0,58,58,14,1,t2.png,t4.png,2,0.059078,19,Female,2020-11-13_15h05.39.446,torte-q,2020.1.3,MacIntel,60,13209,0.98362,,,,,,,,,,,,,,,,,,,,,,,,,,,,,,,,,,,,,,,,,,,,
,,,,,,,,,,,,a,Correct!,0,59,59,27,1,t3.png,t1.png,2,0.0565,19,Female,2020-11-13_15h05.39.446,torte-q,2020.1.3,MacIntel,60,13209,0.7635,,,,,,,,,,,,,,,,,,,,,,,,,,,,,,,,,,,,,,,,,,,,
,,,,,,,,,,,,a,Correct!,0,60,60,116,1,t5.png,t4.png,1,0.90025,19,Female,2020-11-13_15h05.39.446,torte-q,2020.1.3,MacIntel,60,13209,0.816215,,,,,,,,,,,,,,,,,,,,,,,,,,,,,,,,,,,,,,,,,,,,
,,,,,,,,,,,,a,Incorrect,0,61,61,63,1,t2.png,t3.png,1,0.909,19,Female,2020-11-13_15h05.39.446,torte-q,2020.1.3,MacIntel,60,13209,0.766005,,,,,,,,,,,,,,,,,,,,,,,,,,,,,,,,,,,,,,,,,,,,
,,,,,,,,,,,,l,Correct!,0,62,62,56,1,t5.png,t1.png,4,9.55E-11,19,Female,2020-11-13_15h05.39.446,torte-q,2020.1.3,MacIntel,60,13209,0.65047,,,,,,,,,,,,,,,,,,,,,,,,,,,,,,,,,,,,,,,,,,,,
,,,,,,,,,,,,a,Incorrect,0,63,63,6,1,t1.png,t4.png,3,0.0000131,19,Female,2020-11-13_15h05.39.446,torte-q,2020.1.3,MacIntel,60,13209,0.66819,,,,,,,,,,,,,,,,,,,,,,,,,,,,,,,,,,,,,,,,,,,,
,,,,,,,,,,,,a,Correct!,0,64,64,66,1,t4.png,t5.png,1,0.9,19,Female,2020-11-13_15h05.39.446,torte-q,2020.1.3,MacIntel,60,13209,0.81617,,,,,,,,,,,,,,,,,,,,,,,,,,,,,,,,,,,,,,,,,,,,
,,,,,,,,,,,,l,Correct!,0,65,65,99,1,t1.png,t5.png,4,9.55E-11,19,Female,2020-11-13_15h05.39.446,torte-q,2020.1.3,MacIntel,60,13209,0.7501,,,,,,,,,,,,,,,,,,,,,,,,,,,,,,,,,,,,,,,,,,,,
,,,,,,,,,,,,a,Incorrect,0,66,66,115,1,t2.png,t4.png,2,0.059078,19,Female,2020-11-13_15h05.39.446,torte-q,2020.1.3,MacIntel,60,13209,0.916325,,,,,,,,,,,,,,,,,,,,,,,,,,,,,,,,,,,,,,,,,,,,
,,,,,,,,,,,,a,Correct!,0,67,67,16,1,t5.png,t4.png,1,0.9,19,Female,2020-11-13_15h05.39.446,torte-q,2020.1.3,MacIntel,60,13209,1.134695,,,,,,,,,,,,,,,,,,,,,,,,,,,,,,,,,,,,,,,,,,,,
,,,,,,,,,,,,a,Correct!,0,68,68,81,1,t1.png,t1.png,0,0.97829,19,Female,2020-11-13_15h05.39.446,torte-q,2020.1.3,MacIntel,60,13209,0.934805,,,,,,,,,,,,,,,,,,,,,,,,,,,,,,,,,,,,,,,,,,,,
,,,,,,,,,,,,a,Correct!,0,69,69,74,1,t5.png,t4.png,1,0.9,19,Female,2020-11-13_15h05.39.446,torte-q,2020.1.3,MacIntel,60,13209,0.93669,,,,,,,,,,,,,,,,,,,,,,,,,,,,,,,,,,,,,,,,,,,,
,,,,,,,,,,,,a,Correct!,0,70,70,13,1,t5.png,t5.png,0,0.97829,19,Female,2020-11-13_15h05.39.446,torte-q,2020.1.3,MacIntel,60,13209,1.36637,,,,,,,,,,,,,,,,,,,,,,,,,,,,,,,,,,,,,,,,,,,,
,,,,,,,,,,,,a,Correct!,0,71,71,59,1,t5.png,t4.png,1,0.9,19,Female,2020-11-13_15h05.39.446,torte-q,2020.1.3,MacIntel,60,13209,0.78613,,,,,,,,,,,,,,,,,,,,,,,,,,,,,,,,,,,,,,,,,,,,
,,,,,,,,,,,,l,Correct!,0,72,72,103,1,t3.png,t1.png,2,0.056466,19,Female,2020-11-13_15h05.39.446,torte-q,2020.1.3,MacIntel,60,13209,0.668155,,,,,,,,,,,,,,,,,,,,,,,,,,,,,,,,,,,,,,,,,,,,
,,,,,,,,,,,,l,Incorrect,0,73,73,107,1,t1.png,t1.png,0,0.978,19,Female,2020-11-13_15h05.39.446,torte-q,2020.1.3,MacIntel,60,13209,1.017915,,,,,,,,,,,,,,,,,,,,,,,,,,,,,,,,,,,,,,,,,,,,
,,,,,,,,,,,,a,Incorrect,0,74,74,55,1,t2.png,t4.png,2,0.059078,19,Female,2020-11-13_15h05.39.446,torte-q,2020.1.3,MacIntel,60,13209,0.96617,,,,,,,,,,,,,,,,,,,,,,,,,,,,,,,,,,,,,,,,,,,,
,,,,,,,,,,,,a,Correct!,0,75,75,64,1,t1.png,t1.png,0,0.978,19,Female,2020-11-13_15h05.39.446,torte-q,2020.1.3,MacIntel,60,13209,0.852045,,,,,,,,,,,,,,,,,,,,,,,,,,,,,,,,,,,,,,,,,,,,
,,,,,,,,,,,,a,Correct!,0,76,76,25,1,t5.png,t5.png,0,0.97829,19,Female,2020-11-13_15h05.39.446,torte-q,2020.1.3,MacIntel,60,13209,0.85075,,,,,,,,,,,,,,,,,,,,,,,,,,,,,,,,,,,,,,,,,,,,
,,,,,,,,,,,,l,Incorrect,0,77,77,114,1,t2.png,t3.png,1,0.90855,19,Female,2020-11-13_15h05.39.446,torte-q,2020.1.3,MacIntel,60,13209,0.682575,,,,,,,,,,,,,,,,,,,,,,,,,,,,,,,,,,,,,,,,,,,,
,,,,,,,,,,,,a,Correct!,0,78,78,42,1,t5.png,t4.png,1,0.90025,19,Female,2020-11-13_15h05.39.446,torte-q,2020.1.3,MacIntel,60,13209,0.84569,,,,,,,,,,,,,,,,,,,,,,,,,,,,,,,,,,,,,,,,,,,,
,,,,,,,,,,,,a,Incorrect,0,79,79,94,1,t5.png,t1.png,4,9.55E-11,19,Female,2020-11-13_15h05.39.446,torte-q,2020.1.3,MacIntel,60,13209,0.766935,,,,,,,,,,,,,,,,,,,,,,,,,,,,,,,,,,,,,,,,,,,,
,,,,,,,,,,,,a,Correct!,0,80,80,20,1,t2.png,t3.png,1,0.90855,19,Female,2020-11-13_15h05.39.446,torte-q,2020.1.3,MacIntel,60,13209,0.796785,,,,,,,,,,,,,,,,,,,,,,,,,,,,,,,,,,,,,,,,,,,,
,,,,,,,,,,,,l,Incorrect,0,81,81,41,1,t3.png,t2.png,1,0.90855,19,Female,2020-11-13_15h05.39.446,torte-q,2020.1.3,MacIntel,60,13209,1.027795,,,,,,,,,,,,,,,,,,,,,,,,,,,,,,,,,,,,,,,,,,,,
,,,,,,,,,,,,l,Correct!,0,82,82,11,1,t1.png,t4.png,3,0.0000131,19,Female,2020-11-13_15h05.39.446,torte-q,2020.1.3,MacIntel,60,13209,1.00226,,,,,,,,,,,,,,,,,,,,,,,,,,,,,,,,,,,,,,,,,,,,
,,,,,,,,,,,,l,Correct!,0,83,83,51,1,t3.png,t1.png,2,0.056466,19,Female,2020-11-13_15h05.39.446,torte-q,2020.1.3,MacIntel,60,13209,0.885285,,,,,,,,,,,,,,,,,,,,,,,,,,,,,,,,,,,,,,,,,,,,
,,,,,,,,,,,,a,Incorrect,0,84,84,35,1,t1.png,t4.png,3,0.0000131,19,Female,2020-11-13_15h05.39.446,torte-q,2020.1.3,MacIntel,60,13209,0.78417,,,,,,,,,,,,,,,,,,,,,,,,,,,,,,,,,,,,,,,,,,,,
,,,,,,,,,,,,l,Incorrect,0,85,85,19,1,t4.png,t2.png,2,0.059078,19,Female,2020-11-13_15h05.39.446,torte-q,2020.1.3,MacIntel,60,13209,0.93536,,,,,,,,,,,,,,,,,,,,,,,,,,,,,,,,,,,,,,,,,,,,
,,,,,,,,,,,,a,Correct!,0,86,86,48,1,t5.png,t5.png,0,0.97829,19,Female,2020-11-13_15h05.39.446,torte-q,2020.1.3,MacIntel,60,13209,0.983465,,,,,,,,,,,,,,,,,,,,,,,,,,,,,,,,,,,,,,,,,,,,
,,,,,,,,,,,,l,Correct!,0,87,87,40,1,t1.png,t5.png,4,9.55E-11,19,Female,2020-11-13_15h05.39.446,torte-q,2020.1.3,MacIntel,60,13209,1.000155,,,,,,,,,,,,,,,,,,,,,,,,,,,,,,,,,,,,,,,,,,,,
,,,,,,,,,,,,l,Incorrect,0,88,88,85,1,t3.png,t2.png,1,0.90855,19,Female,2020-11-13_15h05.39.446,torte-q,2020.1.3,MacIntel,60,13209,0.951285,,,,,,,,,,,,,,,,,,,,,,,,,,,,,,,,,,,,,,,,,,,,
,,,,,,,,,,,,a,Incorrect,0,89,89,4,1,t1.png,t5.png,4,9.55E-11,19,Female,2020-11-13_15h05.39.446,torte-q,2020.1.3,MacIntel,60,13209,1.010335,,,,,,,,,,,,,,,,,,,,,,,,,,,,,,,,,,,,,,,,,,,,
,,,,,,,,,,,,l,Incorrect,0,90,90,15,1,t3.png,t2.png,1,0.90855,19,Female,2020-11-13_15h05.39.446,torte-q,2020.1.3,MacIntel,60,13209,1.111635,,,,,,,,,,,,,,,,,,,,,,,,,,,,,,,,,,,,,,,,,,,,
,,,,,,,,,,,,a,Correct!,0,91,91,109,1,t5.png,t5.png,0,0.97829,19,Female,2020-11-13_15h05.39.446,torte-q,2020.1.3,MacIntel,60,13209,0.88542,,,,,,,,,,,,,,,,,,,,,,,,,,,,,,,,,,,,,,,,,,,,
,,,,,,,,,,,,l,Correct!,0,92,92,67,1,t1.png,t5.png,4,9.55E-11,19,Female,2020-11-13_15h05.39.446,torte-q,2020.1.3,MacIntel,60,13209,0.90167,,,,,,,,,,,,,,,,,,,,,,,,,,,,,,,,,,,,,,,,,,,,
,,,,,,,,,,,,a,Incorrect,0,93,93,89,1,t1.png,t4.png,3,0.0000131,19,Female,2020-11-13_15h05.39.446,torte-q,2020.1.3,MacIntel,60,13209,1.34638,,,,,,,,,,,,,,,,,,,,,,,,,,,,,,,,,,,,,,,,,,,,
,,,,,,,,,,,,a,Correct!,0,94,94,95,1,t1.png,t1.png,0,0.978,19,Female,2020-11-13_15h05.39.446,torte-q,2020.1.3,MacIntel,60,13209,1.117775,,,,,,,,,,,,,,,,,,,,,,,,,,,,,,,,,,,,,,,,,,,,
,,,,,,,,,,,,a,Correct!,0,95,95,101,1,t4.png,t5.png,1,0.90025,19,Female,2020-11-13_15h05.39.446,torte-q,2020.1.3,MacIntel,60,13209,1.39951,,,,,,,,,,,,,,,,,,,,,,,,,,,,,,,,,,,,,,,,,,,,
,,,,,,,,,,,,l,Correct!,0,96,96,82,1,t5.png,t1.png,4,9.55E-11,19,Female,2020-11-13_15h05.39.446,torte-q,2020.1.3,MacIntel,60,13209,0.835745,,,,,,,,,,,,,,,,,,,,,,,,,,,,,,,,,,,,,,,,,,,,
,,,,,,,,,,,,l,Correct!,0,97,97,119,1,t1.png,t5.png,4,9.55E-11,19,Female,2020-11-13_15h05.39.446,torte-q,2020.1.3,MacIntel,60,13209,0.644885,,,,,,,,,,,,,,,,,,,,,,,,,,,,,,,,,,,,,,,,,,,,
,,,,,,,,,,,,a,Correct!,0,98,98,65,1,t4.png,t5.png,1,0.90025,19,Female,2020-11-13_15h05.39.446,torte-q,2020.1.3,MacIntel,60,13209,0.900365,,,,,,,,,,,,,,,,,,,,,,,,,,,,,,,,,,,,,,,,,,,,
,,,,,,,,,,,,l,Correct!,0,99,99,98,1,t2.png,t4.png,2,0.0591,19,Female,2020-11-13_15h05.39.446,torte-q,2020.1.3,MacIntel,60,13209,1.102065,,,,,,,,,,,,,,,,,,,,,,,,,,,,,,,,,,,,,,,,,,,,
,,,,,,,,,,,,a,Incorrect,0,100,100,53,1,t3.png,t1.png,2,0.056466,19,Female,2020-11-13_15h05.39.446,torte-q,2020.1.3,MacIntel,60,13209,0.766125,,,,,,,,,,,,,,,,,,,,,,,,,,,,,,,,,,,,,,,,,,,,
,,,,,,,,,,,,a,Incorrect,0,101,101,91,1,t1.png,t4.png,3,0.0000131,19,Female,2020-11-13_15h05.39.446,torte-q,2020.1.3,MacIntel,60,13209,1.137125,,,,,,,,,,,,,,,,,,,,,,,,,,,,,,,,,,,,,,,,,,,,
,,,,,,,,,,,,l,Incorrect,0,102,102,28,1,t2.png,t3.png,1,0.909,19,Female,2020-11-13_15h05.39.446,torte-q,2020.1.3,MacIntel,60,13209,1.38581,,,,,,,,,,,,,,,,,,,,,,,,,,,,,,,,,,,,,,,,,,,,
,,,,,,,,,,,,l,Correct!,0,103,103,12,1,t5.png,t1.png,4,9.55E-11,19,Female,2020-11-13_15h05.39.446,torte-q,2020.1.3,MacIntel,60,13209,1.03389,,,,,,,,,,,,,,,,,,,,,,,,,,,,,,,,,,,,,,,,,,,,
,,,,,,,,,,,,l,Correct!,0,104,104,52,1,t2.png,t4.png,2,0.059078,19,Female,2020-11-13_15h05.39.446,torte-q,2020.1.3,MacIntel,60,13209,1.017805,,,,,,,,,,,,,,,,,,,,,,,,,,,,,,,,,,,,,,,,,,,,
,,,,,,,,,,,,l,Incorrect,0,105,105,79,1,t3.png,t2.png,1,0.909,19,Female,2020-11-13_15h05.39.446,torte-q,2020.1.3,MacIntel,60,13209,1.084535,,,,,,,,,,,,,,,,,,,,,,,,,,,,,,,,,,,,,,,,,,,,
,,,,,,,,,,,,a,Correct!,0,106,106,62,1,t5.png,t5.png,0,0.978,19,Female,2020-11-13_15h05.39.446,torte-q,2020.1.3,MacIntel,60,13209,0.946895,,,,,,,,,,,,,,,,,,,,,,,,,,,,,,,,,,,,,,,,,,,,
,,,,,,,,,,,,l,Correct!,0,107,107,69,1,t4.png,t2.png,2,0.059078,19,Female,2020-11-13_15h05.39.446,torte-q,2020.1.3,MacIntel,60,13209,0.834585,,,,,,,,,,,,,,,,,,,,,,,,,,,,,,,,,,,,,,,,,,,,
,,,,,,,,,,,,l,Correct!,0,108,108,93,1,t2.png,t4.png,2,0.059078,19,Female,2020-11-13_15h05.39.446,torte-q,2020.1.3,MacIntel,60,13209,0.95143,,,,,,,,,,,,,,,,,,,,,,,,,,,,,,,,,,,,,,,,,,,,
,,,,,,,,,,,,a,Correct!,0,109,109,105,1,t3.png,t2.png,1,0.90855,19,Female,2020-11-13_15h05.39.446,torte-q,2020.1.3,MacIntel,60,13209,1.28392,,,,,,,,,,,,,,,,,,,,,,,,,,,,,,,,,,,,,,,,,,,,
,,,,,,,,,,,,a,Correct!,0,110,110,70,1,t5.png,t5.png,0,0.978,19,Female,2020-11-13_15h05.39.446,torte-q,2020.1.3,MacIntel,60,13209,0.81659,,,,,,,,,,,,,,,,,,,,,,,,,,,,,,,,,,,,,,,,,,,,
,,,,,,,,,,,,a,Incorrect,0,111,111,88,1,t3.png,t1.png,2,0.056466,19,Female,2020-11-13_15h05.39.446,torte-q,2020.1.3,MacIntel,60,13209,0.89561,,,,,,,,,,,,,,,,,,,,,,,,,,,,,,,,,,,,,,,,,,,,
,,,,,,,,,,,,a,Correct!,0,112,112,32,1,t4.png,t5.png,1,0.90025,19,Female,2020-11-13_15h05.39.446,torte-q,2020.1.3,MacIntel,60,13209,0.81676,,,,,,,,,,,,,,,,,,,,,,,,,,,,,,,,,,,,,,,,,,,,
,,,,,,,,,,,,a,Correct!,0,113,113,113,1,t5.png,t4.png,1,0.9,19,Female,2020-11-13_15h05.39.446,torte-q,2020.1.3,MacIntel,60,13209,0.744455,,,,,,,,,,,,,,,,,,,,,,,,,,,,,,,,,,,,,,,,,,,,
,,,,,,,,,,,,l,Correct!,0,114,114,5,1,t2.png,t4.png,2,0.059078,19,Female,2020-11-13_15h05.39.446,torte-q,2020.1.3,MacIntel,60,13209,0.90069,,,,,,,,,,,,,,,,,,,,,,,,,,,,,,,,,,,,,,,,,,,,
,,,,,,,,,,,,l,Correct!,0,115,115,0,1,t5.png,t1.png,4,9.55E-11,19,Female,2020-11-13_15h05.39.446,torte-q,2020.1.3,MacIntel,60,13209,0.729005,,,,,,,,,,,,,,,,,,,,,,,,,,,,,,,,,,,,,,,,,,,,
,,,,,,,,,,,,a,Incorrect,0,116,116,17,1,t1.png,t4.png,3,0.0000131,19,Female,2020-11-13_15h05.39.446,torte-q,2020.1.3,MacIntel,60,13209,1.052465,,,,,,,,,,,,,,,,,,,,,,,,,,,,,,,,,,,,,,,,,,,,
,,,,,,,,,,,,l,Correct!,0,117,117,90,1,t1.png,t5.png,4,9.55E-11,19,Female,2020-11-13_15h05.39.446,torte-q,2020.1.3,MacIntel,60,13209,1.00058,,,,,,,,,,,,,,,,,,,,,,,,,,,,,,,,,,,,,,,,,,,,
,,,,,,,,,,,,l,Correct!,0,118,118,31,1,t1.png,t5.png,4,9.55E-11,19,Female,2020-11-13_15h05.39.446,torte-q,2020.1.3,MacIntel,60,13209,0.949315,,,,,,,,,,,,,,,,,,,,,,,,,,,,,,,,,,,,,,,,,,,,
,,,,,,,,,,,,a,Correct!,0,119,119,49,1,t4.png,t5.png,1,0.9,19,Female,2020-11-13_15h05.39.446,torte-q,2020.1.3,MacIntel,60,13209,1.117845,,,,,,,,,,,,,,,,,,,,,,,,,,,,,,,,,,,,,,,,,,,,
,,,,,,,,,,,,a,Incorrect,,,,,,t4.png,t1.png,3,0.0000131,19,Female,2020-11-13_15h05.39.446,torte-q,2020.1.3,MacIntel,60,13209,2.200545,l,2.598295,right,8.585935,0,0,0,93,1,,,,,,,,,,,,,,,,,,,,,,,,,,,,,,,,,,,
,,,,,,,,,,,,a,Incorrect,,,,,,t5.png,t2.png,3,0.0000131,19,Female,2020-11-13_15h05.39.446,torte-q,2020.1.3,MacIntel,60,13209,1.78272,,,,,0,1,1,116,1,,,,,,,,,,,,,,,,,,,,,,,,,,,,,,,,,,,
,,,,,,,,,,,,,Too slow :(,,,,,,t4.png,t3.png,1,0.909,19,Female,2020-11-13_15h05.39.446,torte-q,2020.1.3,MacIntel,60,13209,,,,,,0,2,2,20,1,,,,,,,,,,,,,,,,,,,,,,,,,,,,,,,,,,,
,,,,,,,,,,,,a,Incorrect,,,,,,t1.png,t3.png,2,0.056466,19,Female,2020-11-13_15h05.39.446,torte-q,2020.1.3,MacIntel,60,13209,1.652285,,,,,0,3,3,99,1,,,,,,,,,,,,,,,,,,,,,,,,,,,,,,,,,,,
,,,,,,,,,,,,l,Incorrect,,,,,,t1.png,t1.png,0,0.978,19,Female,2020-11-13_15h05.39.446,torte-q,2020.1.3,MacIntel,60,13209,1.39989,,,,,0,4,4,28,1,,,,,,,,,,,,,,,,,,,,,,,,,,,,,,,,,,,
,,,,,,,,,,,,a,Correct!,,,,,,t2.png,t1.png,1,0.90025,19,Female,2020-11-13_15h05.39.446,torte-q,2020.1.3,MacIntel,60,13209,2.3182,,,,,0,5,5,19,1,,,,,,,,,,,,,,,,,,,,,,,,,,,,,,,,,,,
,,,,,,,,,,,,,Too slow :(,,,,,,t3.png,t4.png,1,0.90855,19,Female,2020-11-13_15h05.39.446,torte-q,2020.1.3,MacIntel,60,13209,,,,,,0,6,6,84,1,,,,,,,,,,,,,,,,,,,,,,,,,,,,,,,,,,,
,,,,,,,,,,,,a,Incorrect,,,,,,t5.png,t3.png,2,0.0565,19,Female,2020-11-13_15h05.39.446,torte-q,2020.1.3,MacIntel,60,13209,1.533935,,,,,0,7,7,39,1,,,,,,,,,,,,,,,,,,,,,,,,,,,,,,,,,,,
,,,,,,,,,,,,a,Correct!,,,,,,t5.png,t4.png,1,0.9,19,Female,2020-11-13_15h05.39.446,torte-q,2020.1.3,MacIntel,60,13209,1.98511,,,,,0,8,8,49,1,,,,,,,,,,,,,,,,,,,,,,,,,,,,,,,,,,,
,,,,,,,,,,,,a,Correct!,,,,,,t5.png,t5.png,0,0.97829,19,Female,2020-11-13_15h05.39.446,torte-q,2020.1.3,MacIntel,60,13209,1.03434,,,,,0,9,9,73,1,,,,,,,,,,,,,,,,,,,,,,,,,,,,,,,,,,,
,,,,,,,,,,,,l,Correct!,,,,,,t4.png,t2.png,2,0.059078,19,Female,2020-11-13_15h05.39.446,torte-q,2020.1.3,MacIntel,60,13209,1.00045,,,,,0,10,10,109,1,,,,,,,,,,,,,,,,,,,,,,,,,,,,,,,,,,,
,,,,,,,,,,,,l,Incorrect,,,,,,t3.png,t1.png,2,0.056466,19,Female,2020-11-13_15h05.39.446,torte-q,2020.1.3,MacIntel,60,13209,1.83208,,,,,0,11,11,64,1,,,,,,,,,,,,,,,,,,,,,,,,,,,,,,,,,,,
,,,,,,,,,,,,l,Correct!,,,,,,t5.png,t1.png,4,9.55E-11,19,Female,2020-11-13_15h05.39.446,torte-q,2020.1.3,MacIntel,60,13209,0.81477,,,,,0,12,12,100,1,,,,,,,,,,,,,,,,,,,,,,,,,,,,,,,,,,,
,,,,,,,,,,,,a,Correct!,,,,,,t2.png,t1.png,1,0.9,19,Female,2020-11-13_15h05.39.446,torte-q,2020.1.3,MacIntel,60,13209,1.78399,,,,,0,13,13,118,1,,,,,,,,,,,,,,,,,,,,,,,,,,,,,,,,,,,
,,,,,,,,,,,,l,Incorrect,,,,,,t2.png,t4.png,2,0.059078,19,Female,2020-11-13_15h05.39.446,torte-q,2020.1.3,MacIntel,60,13209,1.0489,,,,,0,14,14,77,1,,,,,,,,,,,,,,,,,,,,,,,,,,,,,,,,,,,
,,,,,,,,,,,,a,Incorrect,,,,,,t1.png,t2.png,1,0.90025,19,Female,2020-11-13_15h05.39.446,torte-q,2020.1.3,MacIntel,60,13209,1.48674,,,,,0,15,15,72,1,,,,,,,,,,,,,,,,,,,,,,,,,,,,,,,,,,,
,,,,,,,,,,,,l,Correct!,,,,,,t2.png,t4.png,2,0.0591,19,Female,2020-11-13_15h05.39.446,torte-q,2020.1.3,MacIntel,60,13209,1.14448,,,,,0,16,16,15,1,,,,,,,,,,,,,,,,,,,,,,,,,,,,,,,,,,,
,,,,,,,,,,,,l,Correct!,,,,,,t5.png,t1.png,4,9.55E-11,19,Female,2020-11-13_15h05.39.446,torte-q,2020.1.3,MacIntel,60,13209,0.983225,,,,,0,17,17,43,1,,,,,,,,,,,,,,,,,,,,,,,,,,,,,,,,,,,
,,,,,,,,,,,,a,Correct!,,,,,,t3.png,t4.png,1,0.909,19,Female,2020-11-13_15h05.39.446,torte-q,2020.1.3,MacIntel,60,13209,1.13458,,,,,0,18,18,82,1,,,,,,,,,,,,,,,,,,,,,,,,,,,,,,,,,,,
,,,,,,,,,,,,a,Correct!,,,,,,t1.png,t1.png,0,0.97829,19,Female,2020-11-13_15h05.39.446,torte-q,2020.1.3,MacIntel,60,13209,1.53437,,,,,0,19,19,67,1,,,,,,,,,,,,,,,,,,,,,,,,,,,,,,,,,,,
,,,,,,,,,,,,l,Correct!,,,,,,t3.png,t1.png,2,0.0565,19,Female,2020-11-13_15h05.39.446,torte-q,2020.1.3,MacIntel,60,13209,2.12101,,,,,0,20,20,31,1,,,,,,,,,,,,,,,,,,,,,,,,,,,,,,,,,,,
,,,,,,,,,,,,a,Correct!,,,,,,t3.png,t2.png,1,0.90855,19,Female,2020-11-13_15h05.39.446,torte-q,2020.1.3,MacIntel,60,13209,2.100075,,,,,0,21,21,97,1,,,,,,,,,,,,,,,,,,,,,,,,,,,,,,,,,,,
,,,,,,,,,,,,a,Correct!,,,,,,t4.png,t4.png,0,0.98115,19,Female,2020-11-13_15h05.39.446,torte-q,2020.1.3,MacIntel,60,13209,1.482935,,,,,0,22,22,80,1,,,,,,,,,,,,,,,,,,,,,,,,,,,,,,,,,,,
,,,,,,,,,,,,a,Incorrect,,,,,,t2.png,t5.png,3,0.0000131,19,Female,2020-11-13_15h05.39.446,torte-q,2020.1.3,MacIntel,60,13209,1.58114,,,,,0,23,23,104,1,,,,,,,,,,,,,,,,,,,,,,,,,,,,,,,,,,,
,,,,,,,,,,,,a,Incorrect,,,,,,t5.png,t3.png,2,0.056466,19,Female,2020-11-13_15h05.39.446,torte-q,2020.1.3,MacIntel,60,13209,1.550445,,,,,0,24,24,56,1,,,,,,,,,,,,,,,,,,,,,,,,,,,,,,,,,,,
,,,,,,,,,,,,a,Correct!,,,,,,t5.png,t4.png,1,0.90025,19,Female,2020-11-13_15h05.39.446,torte-q,2020.1.3,MacIntel,60,13209,2.01615,,,,,0,25,25,27,1,,,,,,,,,,,,,,,,,,,,,,,,,,,,,,,,,,,
,,,,,,,,,,,,l,Correct!,,,,,,t1.png,t4.png,3,0.0000131,19,Female,2020-11-13_15h05.39.446,torte-q,2020.1.3,MacIntel,60,13209,1.18681,,,,,0,26,26,17,1,,,,,,,,,,,,,,,,,,,,,,,,,,,,,,,,,,,
,,,,,,,,,,,,a,Correct!,,,,,,t1.png,t2.png,1,0.90025,19,Female,2020-11-13_15h05.39.446,torte-q,2020.1.3,MacIntel,60,13209,1.88343,,,,,0,27,27,105,1,,,,,,,,,,,,,,,,,,,,,,,,,,,,,,,,,,,
,,,,,,,,,,,,a,Incorrect,,,,,,t2.png,t5.png,3,0.0000131,19,Female,2020-11-13_15h05.39.446,torte-q,2020.1.3,MacIntel,60,13209,1.215895,,,,,0,28,28,95,1,,,,,,,,,,,,,,,,,,,,,,,,,,,,,,,,,,,
,,,,,,,,,,,,a,Incorrect,,,,,,t3.png,t2.png,1,0.909,19,Female,2020-11-13_15h05.39.446,torte-q,2020.1.3,MacIntel,60,13209,1.93232,,,,,0,29,29,23,1,,,,,,,,,,,,,,,,,,,,,,,,,,,,,,,,,,,
,,,,,,,,,,,,l,Correct!,,,,,,t5.png,t1.png,4,9.55E-11,19,Female,2020-11-13_15h05.39.446,torte-q,2020.1.3,MacIntel,60,13209,0.78167,,,,,0,30,30,71,1,,,,,,,,,,,,,,,,,,,,,,,,,,,,,,,,,,,
,,,,,,,,,,,,l,Correct!,,,,,,t1.png,t5.png,4,9.55E-11,19,Female,2020-11-13_15h05.39.446,torte-q,2020.1.3,MacIntel,60,13209,0.80431,,,,,0,31,31,12,1,,,,,,,,,,,,,,,,,,,,,,,,,,,,,,,,,,,
,,,,,,,,,,,,a,Correct!,,,,,,t4.png,t5.png,1,0.90025,19,Female,2020-11-13_15h05.39.446,torte-q,2020.1.3,MacIntel,60,13209,1.884875,,,,,0,32,32,103,1,,,,,,,,,,,,,,,,,,,,,,,,,,,,,,,,,,,
,,,,,,,,,,,,l,Incorrect,,,,,,t3.png,t4.png,1,0.90855,19,Female,2020-11-13_15h05.39.446,torte-q,2020.1.3,MacIntel,60,13209,1.284165,,,,,0,33,33,96,1,,,,,,,,,,,,,,,,,,,,,,,,,,,,,,,,,,,
,,,,,,,,,,,,a,Correct!,,,,,,t5.png,t5.png,0,0.97829,19,Female,2020-11-13_15h05.39.446,torte-q,2020.1.3,MacIntel,60,13209,0.93279,,,,,0,34,34,94,1,,,,,,,,,,,,,,,,,,,,,,,,,,,,,,,,,,,
,,,,,,,,,,,,l,Correct!,,,,,,t3.png,t1.png,2,0.056466,19,Female,2020-11-13_15h05.39.446,torte-q,2020.1.3,MacIntel,60,13209,1.26681,,,,,0,35,35,29,1,,,,,,,,,,,,,,,,,,,,,,,,,,,,,,,,,,,
,,,,,,,,,,,,a,Correct!,,,,,,t4.png,t4.png,0,0.98115,19,Female,2020-11-13_15h05.39.446,torte-q,2020.1.3,MacIntel,60,13209,1.1682,,,,,0,36,36,21,1,,,,,,,,,,,,,,,,,,,,,,,,,,,,,,,,,,,
,,,,,,,,,,,,a,Incorrect,,,,,,t1.png,t2.png,1,0.9,19,Female,2020-11-13_15h05.39.446,torte-q,2020.1.3,MacIntel,60,13209,1.68299,,,,,0,37,37,1,1,,,,,,,,,,,,,,,,,,,,,,,,,,,,,,,,,,,
,,,,,,,,,,,,a,Correct!,,,,,,t1.png,t1.png,0,0.97829,19,Female,2020-11-13_15h05.39.446,torte-q,2020.1.3,MacIntel,60,13209,1.133125,,,,,0,38,38,78,1,,,,,,,,,,,,,,,,,,,,,,,,,,,,,,,,,,,
,,,,,,,,,,,,l,Incorrect,,,,,,t2.png,t2.png,0,0.98115,19,Female,2020-11-13_15h05.39.446,torte-q,2020.1.3,MacIntel,60,13209,1.482985,,,,,0,39,39,57,1,,,,,,,,,,,,,,,,,,,,,,,,,,,,,,,,,,,
,,,,,,,,,,,,a,Incorrect,,,,,,t5.png,t2.png,3,0.0000131,19,Female,2020-11-13_15h05.39.446,torte-q,2020.1.3,MacIntel,60,13209,1.68718,,,,,0,40,40,51,1,,,,,,,,,,,,,,,,,,,,,,,,,,,,,,,,,,,
,,,,,,,,,,,,a,Correct!,,,,,,t4.png,t5.png,1,0.90025,19,Female,2020-11-13_15h05.39.446,torte-q,2020.1.3,MacIntel,60,13209,0.969635,,,,,0,41,41,58,1,,,,,,,,,,,,,,,,,,,,,,,,,,,,,,,,,,,
,,,,,,,,,,,,a,Incorrect,,,,,,t1.png,t3.png,2,0.056466,19,Female,2020-11-13_15h05.39.446,torte-q,2020.1.3,MacIntel,60,13209,0.88638,,,,,0,42,42,69,1,,,,,,,,,,,,,,,,,,,,,,,,,,,,,,,,,,,
,,,,,,,,,,,,a,Incorrect,,,,,,t1.png,t4.png,3,0.0000131,19,Female,2020-11-13_15h05.39.446,torte-q,2020.1.3,MacIntel,60,13209,0.734095,,,,,0,43,43,81,1,,,,,,,,,,,,,,,,,,,,,,,,,,,,,,,,,,,
,,,,,,,,,,,,a,Correct!,,,,,,t4.png,t4.png,0,0.98115,19,Female,2020-11-13_15h05.39.446,torte-q,2020.1.3,MacIntel,60,13209,0.966975,,,,,0,44,44,90,1,,,,,,,,,,,,,,,,,,,,,,,,,,,,,,,,,,,
,,,,,,,,,,,,a,Incorrect,,,,,,t1.png,t4.png,3,0.0000131,19,Female,2020-11-13_15h05.39.446,torte-q,2020.1.3,MacIntel,60,13209,1.01673,,,,,0,45,45,50,1,,,,,,,,,,,,,,,,,,,,,,,,,,,,,,,,,,,
,,,,,,,,,,,,a,Correct!,,,,,,t2.png,t1.png,1,0.90025,19,Female,2020-11-13_15h05.39.446,torte-q,2020.1.3,MacIntel,60,13209,0.916915,,,,,0,46,46,5,1,,,,,,,,,,,,,,,,,,,,,,,,,,,,,,,,,,,
,,,,,,,,,,,,a,Incorrect,,,,,,t1.png,t4.png,3,0.0000131,19,Female,2020-11-13_15h05.39.446,torte-q,2020.1.3,MacIntel,60,13209,0.899855,,,,,0,47,47,92,1,,,,,,,,,,,,,,,,,,,,,,,,,,,,,,,,,,,
,,,,,,,,,,,,l,Correct!,,,,,,t5.png,t2.png,3,0.0000131,19,Female,2020-11-13_15h05.39.446,torte-q,2020.1.3,MacIntel,60,13209,1.58546,,,,,0,48,48,119,1,,,,,,,,,,,,,,,,,,,,,,,,,,,,,,,,,,,
,,,,,,,,,,,,l,Correct!,,,,,,t4.png,t2.png,2,0.0591,19,Female,2020-11-13_15h05.39.446,torte-q,2020.1.3,MacIntel,60,13209,1.02888,,,,,0,49,49,36,1,,,,,,,,,,,,,,,,,,,,,,,,,,,,,,,,,,,
,,,,,,,,,,,,a,Correct!,,,,,,t2.png,t1.png,1,0.90025,19,Female,2020-11-13_15h05.39.446,torte-q,2020.1.3,MacIntel,60,13209,1.15025,,,,,0,50,50,62,1,,,,,,,,,,,,,,,,,,,,,,,,,,,,,,,,,,,
,,,,,,,,,,,,a,Correct!,,,,,,t4.png,t4.png,0,0.98115,19,Female,2020-11-13_15h05.39.446,torte-q,2020.1.3,MacIntel,60,13209,1.345435,,,,,0,51,51,79,1,,,,,,,,,,,,,,,,,,,,,,,,,,,,,,,,,,,
,,,,,,,,,,,,a,Incorrect,,,,,,t3.png,t4.png,1,0.909,19,Female,2020-11-13_15h05.39.446,torte-q,2020.1.3,MacIntel,60,13209,1.016985,,,,,0,52,52,106,1,,,,,,,,,,,,,,,,,,,,,,,,,,,,,,,,,,,
,,,,,,,,,,,,,Too slow :(,,,,,,t1.png,t1.png,0,0.978,19,Female,2020-11-13_15h05.39.446,torte-q,2020.1.3,MacIntel,60,13209,,,,,,0,53,53,54,1,,,,,,,,,,,,,,,,,,,,,,,,,,,,,,,,,,,
,,,,,,,,,,,,l,Correct!,,,,,,t4.png,t1.png,3,0.0000131,19,Female,2020-11-13_15h05.39.446,torte-q,2020.1.3,MacIntel,60,13209,1.15018,,,,,0,54,54,13,1,,,,,,,,,,,,,,,,,,,,,,,,,,,,,,,,,,,
,,,,,,,,,,,,a,Correct!,,,,,,t4.png,t5.png,1,0.90025,19,Female,2020-11-13_15h05.39.446,torte-q,2020.1.3,MacIntel,60,13209,1.066415,,,,,0,55,55,47,1,,,,,,,,,,,,,,,,,,,,,,,,,,,,,,,,,,,
,,,,,,,,,,,,l,Incorrect,,,,,,t3.png,t2.png,1,0.90855,19,Female,2020-11-13_15h05.39.446,torte-q,2020.1.3,MacIntel,60,13209,0.99972,,,,,0,56,56,53,1,,,,,,,,,,,,,,,,,,,,,,,,,,,,,,,,,,,
,,,,,,,,,,,,l,Correct!,,,,,,t3.png,t5.png,2,0.056466,19,Female,2020-11-13_15h05.39.446,torte-q,2020.1.3,MacIntel,60,13209,1.618,,,,,0,57,57,44,1,,,,,,,,,,,,,,,,,,,,,,,,,,,,,,,,,,,
,,,,,,,,,,,,a,Correct!,,,,,,t2.png,t2.png,0,0.981,19,Female,2020-11-13_15h05.39.446,torte-q,2020.1.3,MacIntel,60,13209,1.251645,,,,,0,58,58,101,1,,,,,,,,,,,,,,,,,,,,,,,,,,,,,,,,,,,
,,,,,,,,,,,,a,Incorrect,,,,,,t1.png,t3.png,2,0.056466,19,Female,2020-11-13_15h05.39.446,torte-q,2020.1.3,MacIntel,60,13209,0.81676,,,,,0,59,59,60,1,,,,,,,,,,,,,,,,,,,,,,,,,,,,,,,,,,,
,,,,,,,,,,,,l,Incorrect,,,,,,t4.png,t2.png,2,0.059078,19,Female,2020-11-13_15h05.39.446,torte-q,2020.1.3,MacIntel,60,13209,0.93317,,,,,0,60,60,86,1,,,,,,,,,,,,,,,,,,,,,,,,,,,,,,,,,,,
,,,,,,,,,,,,l,Correct!,,,,,,t2.png,t4.png,2,0.059078,19,Female,2020-11-13_15h05.39.446,torte-q,2020.1.3,MacIntel,60,13209,0.76773,,,,,0,61,61,24,1,,,,,,,,,,,,,,,,,,,,,,,,,,,,,,,,,,,
,,,,,,,,,,,,l,Incorrect,,,,,,t5.png,t5.png,0,0.97829,19,Female,2020-11-13_15h05.39.446,torte-q,2020.1.3,MacIntel,60,13209,0.85005,,,,,0,62,62,25,1,,,,,,,,,,,,,,,,,,,,,,,,,,,,,,,,,,,
,,,,,,,,,,,,a,Correct!,,,,,,t4.png,t3.png,1,0.90855,19,Female,2020-11-13_15h05.39.446,torte-q,2020.1.3,MacIntel,60,13209,1.100845,,,,,0,63,63,45,1,,,,,,,,,,,,,,,,,,,,,,,,,,,,,,,,,,,
,,,,,,,,,,,,l,Correct!,,,,,,t4.png,t2.png,2,0.059078,19,Female,2020-11-13_15h05.39.446,torte-q,2020.1.3,MacIntel,60,13209,1.08358,,,,,0,64,64,110,1,,,,,,,,,,,,,,,,,,,,,,,,,,,,,,,,,,,
,,,,,,,,,,,,a,Correct!,,,,,,t4.png,t4.png,0,0.98115,19,Female,2020-11-13_15h05.39.446,torte-q,2020.1.3,MacIntel,60,13209,0.915615,,,,,0,65,65,52,1,,,,,,,,,,,,,,,,,,,,,,,,,,,,,,,,,,,
,,,,,,,,,,,,a,Correct!,,,,,,t1.png,t2.png,1,0.90025,19,Female,2020-11-13_15h05.39.446,torte-q,2020.1.3,MacIntel,60,13209,1.034805,,,,,0,66,66,33,1,,,,,,,,,,,,,,,,,,,,,,,,,,,,,,,,,,,
,,,,,,,,,,,,a,Correct!,,,,,,t2.png,t2.png,0,0.98115,19,Female,2020-11-13_15h05.39.446,torte-q,2020.1.3,MacIntel,60,13209,0.966655,,,,,0,67,67,7,1,,,,,,,,,,,,,,,,,,,,,,,,,,,,,,,,,,,
,,,,,,,,,,,,a,Incorrect,,,,,,t5.png,t2.png,3,0.0000131,19,Female,2020-11-13_15h05.39.446,torte-q,2020.1.3,MacIntel,60,13209,1.499115,,,,,0,68,68,98,1,,,,,,,,,,,,,,,,,,,,,,,,,,,,,,,,,,,
,,,,,,,,,,,,l,Correct!,,,,,,t2.png,t5.png,3,0.0000131,19,Female,2020-11-13_15h05.39.446,torte-q,2020.1.3,MacIntel,60,13209,1.416835,,,,,0,69,69,8,1,,,,,,,,,,,,,,,,,,,,,,,,,,,,,,,,,,,
,,,,,,,,,,,,a,Correct!,,,,,,t2.png,t2.png,0,0.98115,19,Female,2020-11-13_15h05.39.446,torte-q,2020.1.3,MacIntel,60,13209,1.017885,,,,,0,70,70,2,1,,,,,,,,,,,,,,,,,,,,,,,,,,,,,,,,,,,
,,,,,,,,,,,,a,Correct!,,,,,,t2.png,t1.png,1,0.90025,19,Female,2020-11-13_15h05.39.446,torte-q,2020.1.3,MacIntel,60,13209,1.379555,,,,,0,71,71,4,1,,,,,,,,,,,,,,,,,,,,,,,,,,,,,,,,,,,
,,,,,,,,,,,,l,Incorrect,,,,,,t3.png,t4.png,1,0.909,19,Female,2020-11-13_15h05.39.446,torte-q,2020.1.3,MacIntel,60,13209,1.2814,,,,,0,72,72,89,1,,,,,,,,,,,,,,,,,,,,,,,,,,,,,,,,,,,
,,,,,,,,,,,,a,Correct!,,,,,,t3.png,t2.png,1,0.909,19,Female,2020-11-13_15h05.39.446,torte-q,2020.1.3,MacIntel,60,13209,1.383395,,,,,0,73,73,3,1,,,,,,,,,,,,,,,,,,,,,,,,,,,,,,,,,,,
,,,,,,,,,,,,l,Correct!,,,,,,t5.png,t1.png,4,9.55E-11,19,Female,2020-11-13_15h05.39.446,torte-q,2020.1.3,MacIntel,60,13209,0.812065,,,,,0,74,74,102,1,,,,,,,,,,,,,,,,,,,,,,,,,,,,,,,,,,,
,,,,,,,,,,,,l,Correct!,,,,,,t1.png,t5.png,4,9.55E-11,19,Female,2020-11-13_15h05.39.446,torte-q,2020.1.3,MacIntel,60,13209,1.465705,,,,,0,75,75,85,1,,,,,,,,,,,,,,,,,,,,,,,,,,,,,,,,,,,
,,,,,,,,,,,,a,Correct!,,,,,,t2.png,t3.png,1,0.90855,19,Female,2020-11-13_15h05.39.446,torte-q,2020.1.3,MacIntel,60,13209,1.24531,,,,,0,76,76,65,1,,,,,,,,,,,,,,,,,,,,,,,,,,,,,,,,,,,
,,,,,,,,,,,,a,Correct!,,,,,,t5.png,t4.png,1,0.90025,19,Female,2020-11-13_15h05.39.446,torte-q,2020.1.3,MacIntel,60,13209,0.999775,,,,,0,77,77,26,1,,,,,,,,,,,,,,,,,,,,,,,,,,,,,,,,,,,
,,,,,,,,,,,,a,Incorrect,,,,,,t5.png,t3.png,2,0.056466,19,Female,2020-11-13_15h05.39.446,torte-q,2020.1.3,MacIntel,60,13209,1.200525,,,,,0,78,78,38,1,,,,,,,,,,,,,,,,,,,,,,,,,,,,,,,,,,,
,,,,,,,,,,,,l,Correct!,,,,,,t1.png,t5.png,4,9.55E-11,19,Female,2020-11-13_15h05.39.446,torte-q,2020.1.3,MacIntel,60,13209,0.884465,,,,,0,79,79,41,1,,,,,,,,,,,,,,,,,,,,,,,,,,,,,,,,,,,
,,,,,,,,,,,,a,Incorrect,,,,,,t2.png,t5.png,3,0.0000131,19,Female,2020-11-13_15h05.39.446,torte-q,2020.1.3,MacIntel,60,13209,0.91849,,,,,0,80,80,40,1,,,,,,,,,,,,,,,,,,,,,,,,,,,,,,,,,,,
,,,,,,,,,,,,a,Incorrect,,,,,,t3.png,t5.png,2,0.0565,19,Female,2020-11-13_15h05.39.446,torte-q,2020.1.3,MacIntel,60,13209,0.85065,,,,,0,81,81,30,1,,,,,,,,,,,,,,,,,,,,,,,,,,,,,,,,,,,
,,,,,,,,,,,,a,Incorrect,,,,,,t5.png,t3.png,2,0.056466,19,Female,2020-11-13_15h05.39.446,torte-q,2020.1.3,MacIntel,60,13209,0.78478,,,,,0,82,82,114,1,,,,,,,,,,,,,,,,,,,,,,,,,,,,,,,,,,,
,,,,,,,,,,,,a,Correct!,,,,,,t1.png,t3.png,2,0.056466,19,Female,2020-11-13_15h05.39.446,torte-q,2020.1.3,MacIntel,60,13209,1.10061,,,,,0,83,83,63,1,,,,,,,,,,,,,,,,,,,,,,,,,,,,,,,,,,,
,,,,,,,,,,,,a,Correct!,,,,,,t3.png,t2.png,1,0.90855,19,Female,2020-11-13_15h05.39.446,torte-q,2020.1.3,MacIntel,60,13209,1.13399,,,,,0,84,84,18,1,,,,,,,,,,,,,,,,,,,,,,,,,,,,,,,,,,,
,,,,,,,,,,,,l,Correct!,,,,,,t4.png,t1.png,3,0.0000131,19,Female,2020-11-13_15h05.39.446,torte-q,2020.1.3,MacIntel,60,13209,0.817575,,,,,0,85,85,48,1,,,,,,,,,,,,,,,,,,,,,,,,,,,,,,,,,,,
,,,,,,,,,,,,l,Correct!,,,,,,t4.png,t1.png,3,0.0000131,19,Female,2020-11-13_15h05.39.446,torte-q,2020.1.3,MacIntel,60,13209,0.815085,,,,,0,86,86,42,1,,,,,,,,,,,,,,,,,,,,,,,,,,,,,,,,,,,
,,,,,,,,,,,,a,Incorrect,,,,,,t2.png,t5.png,3,0.0000131,19,Female,2020-11-13_15h05.39.446,torte-q,2020.1.3,MacIntel,60,13209,1.29942,,,,,0,87,87,66,1,,,,,,,,,,,,,,,,,,,,,,,,,,,,,,,,,,,
,,,,,,,,,,,,l,Correct!,,,,,,t3.png,t1.png,2,0.056466,19,Female,2020-11-13_15h05.39.446,torte-q,2020.1.3,MacIntel,60,13209,0.63335,,,,,0,88,88,0,1,,,,,,,,,,,,,,,,,,,,,,,,,,,,,,,,,,,
,,,,,,,,,,,,l,Incorrect,,,,,,t2.png,t3.png,1,0.909,19,Female,2020-11-13_15h05.39.446,torte-q,2020.1.3,MacIntel,60,13209,0.71754,,,,,0,89,89,74,1,,,,,,,,,,,,,,,,,,,,,,,,,,,,,,,,,,,
,,,,,,,,,,,,a,Incorrect,,,,,,t5.png,t2.png,3,0.0000131,19,Female,2020-11-13_15h05.39.446,torte-q,2020.1.3,MacIntel,60,13209,0.784855,,,,,0,90,90,91,1,,,,,,,,,,,,,,,,,,,,,,,,,,,,,,,,,,,
,,,,,,,,,,,,l,Correct!,,,,,,t3.png,t5.png,2,0.056466,19,Female,2020-11-13_15h05.39.446,torte-q,2020.1.3,MacIntel,60,13209,1.75111,,,,,0,91,91,14,1,,,,,,,,,,,,,,,,,,,,,,,,,,,,,,,,,,,
,,,,,,,,,,,,l,Correct!,,,,,,t1.png,t2.png,1,0.90025,19,Female,2020-11-13_15h05.39.446,torte-q,2020.1.3,MacIntel,60,13209,1.001015,,,,,0,92,92,112,1,,,,,,,,,,,,,,,,,,,,,,,,,,,,,,,,,,,
,,,,,,,,,,,,l,Incorrect,,,,,,t4.png,t5.png,1,0.90025,19,Female,2020-11-13_15h05.39.446,torte-q,2020.1.3,MacIntel,60,13209,1.38283,,,,,0,93,93,113,1,,,,,,,,,,,,,,,,,,,,,,,,,,,,,,,,,,,
,,,,,,,,,,,,a,Correct!,,,,,,t5.png,t4.png,1,0.90025,19,Female,2020-11-13_15h05.39.446,torte-q,2020.1.3,MacIntel,60,13209,0.917935,,,,,0,94,94,34,1,,,,,,,,,,,,,,,,,,,,,,,,,,,,,,,,,,,
,,,,,,,,,,,,a,Correct!,,,,,,t2.png,t3.png,1,0.90855,19,Female,2020-11-13_15h05.39.446,torte-q,2020.1.3,MacIntel,60,13209,1.032185,,,,,0,95,95,10,1,,,,,,,,,,,,,,,,,,,,,,,,,,,,,,,,,,,
,,,,,,,,,,,,a,Correct!,,,,,,t2.png,t3.png,1,0.90855,19,Female,2020-11-13_15h05.39.446,torte-q,2020.1.3,MacIntel,60,13209,1.11223,,,,,0,96,96,111,1,,,,,,,,,,,,,,,,,,,,,,,,,,,,,,,,,,,
,,,,,,,,,,,,a,Incorrect,,,,,,t2.png,t3.png,1,0.90855,19,Female,2020-11-13_15h05.39.446,torte-q,2020.1.3,MacIntel,60,13209,0.73515,,,,,0,97,97,68,1,,,,,,,,,,,,,,,,,,,,,,,,,,,,,,,,,,,
,,,,,,,,,,,,l,Correct!,,,,,,t1.png,t5.png,4,9.55E-11,19,Female,2020-11-13_15h05.39.446,torte-q,2020.1.3,MacIntel,60,13209,0.81848,,,,,0,98,98,16,1,,,,,,,,,,,,,,,,,,,,,,,,,,,,,,,,,,,
,,,,,,,,,,,,l,Correct!,,,,,,t4.png,t1.png,3,0.0000131,19,Female,2020-11-13_15h05.39.446,torte-q,2020.1.3,MacIntel,60,13209,1.03699,,,,,0,99,99,61,1,,,,,,,,,,,,,,,,,,,,,,,,,,,,,,,,,,,
,,,,,,,,,,,,a,Incorrect,,,,,,t2.png,t4.png,2,0.059078,19,Female,2020-11-13_15h05.39.446,torte-q,2020.1.3,MacIntel,60,13209,0.91641,,,,,0,100,100,11,1,,,,,,,,,,,,,,,,,,,,,,,,,,,,,,,,,,,
,,,,,,,,,,,,a,Incorrect,,,,,,t3.png,t5.png,2,0.0565,19,Female,2020-11-13_15h05.39.446,torte-q,2020.1.3,MacIntel,60,13209,0.883045,,,,,0,101,101,83,1,,,,,,,,,,,,,,,,,,,,,,,,,,,,,,,,,,,
,,,,,,,,,,,,l,Correct!,,,,,,t2.png,t4.png,2,0.059078,19,Female,2020-11-13_15h05.39.446,torte-q,2020.1.3,MacIntel,60,13209,0.600415,,,,,0,102,102,37,1,,,,,,,,,,,,,,,,,,,,,,,,,,,,,,,,,,,
,,,,,,,,,,,,l,Correct!,,,,,,t1.png,t5.png,4,9.55E-11,19,Female,2020-11-13_15h05.39.446,torte-q,2020.1.3,MacIntel,60,13209,0.7664,,,,,0,103,103,55,1,,,,,,,,,,,,,,,,,,,,,,,,,,,,,,,,,,,
,,,,,,,,,,,,a,Correct!,,,,,,t5.png,t4.png,1,0.9,19,Female,2020-11-13_15h05.39.446,torte-q,2020.1.3,MacIntel,60,13209,1.100005,,,,,0,104,104,76,1,,,,,,,,,,,,,,,,,,,,,,,,,,,,,,,,,,,
,,,,,,,,,,,,l,Incorrect,,,,,,t5.png,t5.png,0,0.97829,19,Female,2020-11-13_15h05.39.446,torte-q,2020.1.3,MacIntel,60,13209,1.282585,,,,,0,105,105,70,1,,,,,,,,,,,,,,,,,,,,,,,,,,,,,,,,,,,
,,,,,,,,,,,,l,Incorrect,,,,,,t1.png,t1.png,0,0.97829,19,Female,2020-11-13_15h05.39.446,torte-q,2020.1.3,MacIntel,60,13209,0.8819,,,,,0,106,106,9,1,,,,,,,,,,,,,,,,,,,,,,,,,,,,,,,,,,,
,,,,,,,,,,,,a,Correct!,,,,,,t4.png,t5.png,1,0.9,19,Female,2020-11-13_15h05.39.446,torte-q,2020.1.3,MacIntel,60,13209,0.90087,,,,,0,107,107,115,1,,,,,,,,,,,,,,,,,,,,,,,,,,,,,,,,,,,
,,,,,,,,,,,,a,Correct!,,,,,,t2.png,t2.png,0,0.98115,19,Female,2020-11-13_15h05.39.446,torte-q,2020.1.3,MacIntel,60,13209,0.835,,,,,0,108,108,59,1,,,,,,,,,,,,,,,,,,,,,,,,,,,,,,,,,,,
,,,,,,,,,,,,l,Correct!,,,,,,t4.png,t2.png,2,0.059078,19,Female,2020-11-13_15h05.39.446,torte-q,2020.1.3,MacIntel,60,13209,0.748395,,,,,0,109,109,88,1,,,,,,,,,,,,,,,,,,,,,,,,,,,,,,,,,,,
,,,,,,,,,,,,a,Correct!,,,,,,t4.png,t3.png,1,0.90855,19,Female,2020-11-13_15h05.39.446,torte-q,2020.1.3,MacIntel,60,13209,1.31671,,,,,0,110,110,75,1,,,,,,,,,,,,,,,,,,,,,,,,,,,,,,,,,,,
,,,,,,,,,,,,a,Correct!,,,,,,t4.png,t3.png,1,0.90855,19,Female,2020-11-13_15h05.39.446,torte-q,2020.1.3,MacIntel,60,13209,0.750165,,,,,0,111,111,35,1,,,,,,,,,,,,,,,,,,,,,,,,,,,,,,,,,,,
,,,,,,,,,,,,a,Incorrect,,,,,,t3.png,t5.png,2,0.056466,19,Female,2020-11-13_15h05.39.446,torte-q,2020.1.3,MacIntel,60,13209,0.83241,,,,,0,112,112,6,1,,,,,,,,,,,,,,,,,,,,,,,,,,,,,,,,,,,
,,,,,,,,,,,,a,Incorrect,,,,,,t3.png,t1.png,2,0.056466,19,Female,2020-11-13_15h05.39.446,torte-q,2020.1.3,MacIntel,60,13209,0.63634,,,,,0,113,113,32,1,,,,,,,,,,,,,,,,,,,,,,,,,,,,,,,,,,,
,,,,,,,,,,,,a,Incorrect,,,,,,t1.png,t4.png,3,0.0000131,19,Female,2020-11-13_15h05.39.446,torte-q,2020.1.3,MacIntel,60,13209,0.31745,,,,,0,114,114,107,1,,,,,,,,,,,,,,,,,,,,,,,,,,,,,,,,,,,
,,,,,,,,,,,,a,Incorrect,,,,,,t5.png,t3.png,2,0.056466,19,Female,2020-11-13_15h05.39.446,torte-q,2020.1.3,MacIntel,60,13209,1.000865,,,,,0,115,115,108,1,,,,,,,,,,,,,,,,,,,,,,,,,,,,,,,,,,,
,,,,,,,,,,,,a,Incorrect,,,,,,t1.png,t3.png,2,0.056466,19,Female,2020-11-13_15h05.39.446,torte-q,2020.1.3,MacIntel,60,13209,0.95056,,,,,0,116,116,87,1,,,,,,,,,,,,,,,,,,,,,,,,,,,,,,,,,,,
,,,,,,,,,,,,a,Correct!,,,,,,t5.png,t5.png,0,0.978,19,Female,2020-11-13_15h05.39.446,torte-q,2020.1.3,MacIntel,60,13209,1.15251,,,,,0,117,117,117,1,,,,,,,,,,,,,,,,,,,,,,,,,,,,,,,,,,,
,,,,,,,,,,,,l,Correct!,,,,,,t5.png,t1.png,4,9.55E-11,19,Female,2020-11-13_15h05.39.446,torte-q,2020.1.3,MacIntel,60,13209,0.866965,,,,,0,118,118,22,1,,,,,,,,,,,,,,,,,,,,,,,,,,,,,,,,,,,
,,,,,,,,,,,,a,Correct!,,,,,,t4.png,t3.png,1,0.909,19,Female,2020-11-13_15h05.39.446,torte-q,2020.1.3,MacIntel,60,13209,1.152115,,,,,0,119,119,46,1,,,,,,,,,,,,,,,,,,,,,,,,,,,,,,,,,,,
,,,,,,,,,,,,a,Incorrect,,,,,,t3.png,t5.png,2,0.056466,19,Female,2020-11-13_15h05.39.446,torte-q,2020.1.3,MacIntel,60,13209,1.01748,space,109.76881,,,,,,,,space,16.01959,space,5.40471,0,0,0,14,1,,,,,,,,,,,,,,,,,,,,,,,,,,
,,,,,,,,,,,,l,Correct!,,,,,,t1.png,t5.png,4,9.55E-11,19,Female,2020-11-13_15h05.39.446,torte-q,2020.1.3,MacIntel,60,13209,0.85275,,,,,,,,,,,,,,0,1,1,85,1,,,,,,,,,,,,,,,,,,,,,,,,,,
,,,,,,,,,,,,l,Correct!,,,,,,t2.png,t4.png,2,0.0591,19,Female,2020-11-13_15h05.39.446,torte-q,2020.1.3,MacIntel,60,13209,0.8155,,,,,,,,,,,,,,0,2,2,15,1,,,,,,,,,,,,,,,,,,,,,,,,,,
,,,,,,,,,,,,l,Correct!,,,,,,t1.png,t5.png,4,9.55E-11,19,Female,2020-11-13_15h05.39.446,torte-q,2020.1.3,MacIntel,60,13209,0.68432,,,,,,,,,,,,,,0,3,3,55,1,,,,,,,,,,,,,,,,,,,,,,,,,,
,,,,,,,,,,,,a,Incorrect,,,,,,t3.png,t5.png,2,0.056466,19,Female,2020-11-13_15h05.39.446,torte-q,2020.1.3,MacIntel,60,13209,0.85039,,,,,,,,,,,,,,0,4,4,44,1,,,,,,,,,,,,,,,,,,,,,,,,,,
,,,,,,,,,,,,l,Correct!,,,,,,t5.png,t1.png,4,9.55E-11,19,Female,2020-11-13_15h05.39.446,torte-q,2020.1.3,MacIntel,60,13209,0.564655,,,,,,,,,,,,,,0,5,5,71,1,,,,,,,,,,,,,,,,,,,,,,,,,,
,,,,,,,,,,,,a,Correct!,,,,,,t5.png,t4.png,1,0.90025,19,Female,2020-11-13_15h05.39.446,torte-q,2020.1.3,MacIntel,60,13209,1.15042,,,,,,,,,,,,,,0,6,6,26,1,,,,,,,,,,,,,,,,,,,,,,,,,,
,,,,,,,,,,,,l,Incorrect,,,,,,t2.png,t3.png,1,0.90855,19,Female,2020-11-13_15h05.39.446,torte-q,2020.1.3,MacIntel,60,13209,1.9334,,,,,,,,,,,,,,0,7,7,68,1,,,,,,,,,,,,,,,,,,,,,,,,,,
,,,,,,,,,,,,a,Correct!,,,,,,t4.png,t4.png,0,0.98115,19,Female,2020-11-13_15h05.39.446,torte-q,2020.1.3,MacIntel,60,13209,1.068125,,,,,,,,,,,,,,0,8,8,52,1,,,,,,,,,,,,,,,,,,,,,,,,,,
,,,,,,,,,,,,a,Correct!,,,,,,t4.png,t3.png,1,0.90855,19,Female,2020-11-13_15h05.39.446,torte-q,2020.1.3,MacIntel,60,13209,1.07907,,,,,,,,,,,,,,0,9,9,75,1,,,,,,,,,,,,,,,,,,,,,,,,,,
,,,,,,,,,,,,a,Incorrect,,,,,,t1.png,t3.png,2,0.056466,19,Female,2020-11-13_15h05.39.446,torte-q,2020.1.3,MacIntel,60,13209,1.3326,,,,,,,,,,,,,,0,10,10,69,1,,,,,,,,,,,,,,,,,,,,,,,,,,
,,,,,,,,,,,,a,Incorrect,,,,,,t5.png,t2.png,3,0.0000131,19,Female,2020-11-13_15h05.39.446,torte-q,2020.1.3,MacIntel,60,13209,1.632895,,,,,,,,,,,,,,0,11,11,51,1,,,,,,,,,,,,,,,,,,,,,,,,,,
,,,,,,,,,,,,a,Correct!,,,,,,t5.png,t5.png,0,0.97829,19,Female,2020-11-13_15h05.39.446,torte-q,2020.1.3,MacIntel,60,13209,0.90186,,,,,,,,,,,,,,0,12,12,73,1,,,,,,,,,,,,,,,,,,,,,,,,,,
,,,,,,,,,,,,l,Correct!,,,,,,t1.png,t4.png,3,0.0000131,19,Female,2020-11-13_15h05.39.446,torte-q,2020.1.3,MacIntel,60,13209,1.395715,,,,,,,,,,,,,,0,13,13,92,1,,,,,,,,,,,,,,,,,,,,,,,,,,
,,,,,,,,,,,,l,Incorrect,,,,,,t2.png,t1.png,1,0.90025,19,Female,2020-11-13_15h05.39.446,torte-q,2020.1.3,MacIntel,60,13209,1.115255,,,,,,,,,,,,,,0,14,14,5,1,,,,,,,,,,,,,,,,,,,,,,,,,,
,,,,,,,,,,,,a,Incorrect,,,,,,t5.png,t3.png,2,0.056466,19,Female,2020-11-13_15h05.39.446,torte-q,2020.1.3,MacIntel,60,13209,0.902115,,,,,,,,,,,,,,0,15,15,108,1,,,,,,,,,,,,,,,,,,,,,,,,,,
,,,,,,,,,,,,a,Correct!,,,,,,t2.png,t1.png,1,0.90025,19,Female,2020-11-13_15h05.39.446,torte-q,2020.1.3,MacIntel,60,13209,1.08267,,,,,,,,,,,,,,0,16,16,4,1,,,,,,,,,,,,,,,,,,,,,,,,,,
,,,,,,,,,,,,l,Correct!,,,,,,t1.png,t4.png,3,0.0000131,19,Female,2020-11-13_15h05.39.446,torte-q,2020.1.3,MacIntel,60,13209,1.30059,,,,,,,,,,,,,,0,17,17,17,1,,,,,,,,,,,,,,,,,,,,,,,,,,
,,,,,,,,,,,,l,Incorrect,,,,,,t2.png,t2.png,0,0.98115,19,Female,2020-11-13_15h05.39.446,torte-q,2020.1.3,MacIntel,60,13209,0.87036,,,,,,,,,,,,,,0,18,18,59,1,,,,,,,,,,,,,,,,,,,,,,,,,,
,,,,,,,,,,,,l,Correct!,,,,,,t4.png,t2.png,2,0.0591,19,Female,2020-11-13_15h05.39.446,torte-q,2020.1.3,MacIntel,60,13209,1.183895,,,,,,,,,,,,,,0,19,19,36,1,,,,,,,,,,,,,,,,,,,,,,,,,,
,,,,,,,,,,,,a,Correct!,,,,,,t2.png,t2.png,0,0.981,19,Female,2020-11-13_15h05.39.446,torte-q,2020.1.3,MacIntel,60,13209,0.884345,,,,,,,,,,,,,,0,20,20,101,1,,,,,,,,,,,,,,,,,,,,,,,,,,
,,,,,,,,,,,,a,Correct!,,,,,,t5.png,t5.png,0,0.97829,19,Female,2020-11-13_15h05.39.446,torte-q,2020.1.3,MacIntel,60,13209,0.86707,,,,,,,,,,,,,,0,21,21,25,1,,,,,,,,,,,,,,,,,,,,,,,,,,
,,,,,,,,,,,,l,Correct!,,,,,,t2.png,t4.png,2,0.059078,19,Female,2020-11-13_15h05.39.446,torte-q,2020.1.3,MacIntel,60,13209,1.284485,,,,,,,,,,,,,,0,22,22,77,1,,,,,,,,,,,,,,,,,,,,,,,,,,
,,,,,,,,,,,,a,Correct!,,,,,,t3.png,t4.png,1,0.90855,19,Female,2020-11-13_15h05.39.446,torte-q,2020.1.3,MacIntel,60,13209,1.116875,,,,,,,,,,,,,,0,23,23,96,1,,,,,,,,,,,,,,,,,,,,,,,,,,
,,,,,,,,,,,,a,Incorrect,,,,,,t1.png,t2.png,1,0.90025,19,Female,2020-11-13_15h05.39.446,torte-q,2020.1.3,MacIntel,60,13209,0.797495,,,,,,,,,,,,,,0,24,24,105,1,,,,,,,,,,,,,,,,,,,,,,,,,,
,,,,,,,,,,,,a,Correct!,,,,,,t2.png,t2.png,0,0.98115,19,Female,2020-11-13_15h05.39.446,torte-q,2020.1.3,MacIntel,60,13209,0.814895,,,,,,,,,,,,,,0,25,25,7,1,,,,,,,,,,,,,,,,,,,,,,,,,,
,,,,,,,,,,,,a,Correct!,,,,,,t2.png,t1.png,1,0.90025,19,Female,2020-11-13_15h05.39.446,torte-q,2020.1.3,MacIntel,60,13209,1.815425,,,,,,,,,,,,,,0,26,26,62,1,,,,,,,,,,,,,,,,,,,,,,,,,,
,,,,,,,,,,,,a,Correct!,,,,,,t2.png,t3.png,1,0.909,19,Female,2020-11-13_15h05.39.446,torte-q,2020.1.3,MacIntel,60,13209,0.96693,,,,,,,,,,,,,,0,27,27,74,1,,,,,,,,,,,,,,,,,,,,,,,,,,
,,,,,,,,,,,,a,Correct!,,,,,,t4.png,t3.png,1,0.90855,19,Female,2020-11-13_15h05.39.446,torte-q,2020.1.3,MacIntel,60,13209,1.349425,,,,,,,,,,,,,,0,28,28,45,1,,,,,,,,,,,,,,,,,,,,,,,,,,
,,,,,,,,,,,,l,Correct!,,,,,,t3.png,t1.png,2,0.0565,19,Female,2020-11-13_15h05.39.446,torte-q,2020.1.3,MacIntel,60,13209,1.551865,,,,,,,,,,,,,,0,29,29,31,1,,,,,,,,,,,,,,,,,,,,,,,,,,
,,,,,,,,,,,,l,Correct!,,,,,,t3.png,t1.png,2,0.056466,19,Female,2020-11-13_15h05.39.446,torte-q,2020.1.3,MacIntel,60,13209,0.929375,,,,,,,,,,,,,,0,30,30,32,1,,,,,,,,,,,,,,,,,,,,,,,,,,
,,,,,,,,,,,,a,Correct!,,,,,,t3.png,t5.png,2,0.056466,19,Female,2020-11-13_15h05.39.446,torte-q,2020.1.3,MacIntel,60,13209,1.38209,,,,,,,,,,,,,,0,31,31,6,1,,,,,,,,,,,,,,,,,,,,,,,,,,
,,,,,,,,,,,,l,Correct!,,,,,,t4.png,t2.png,2,0.059078,19,Female,2020-11-13_15h05.39.446,torte-q,2020.1.3,MacIntel,60,13209,1.132165,,,,,,,,,,,,,,0,32,32,109,1,,,,,,,,,,,,,,,,,,,,,,,,,,
,,,,,,,,,,,,a,Incorrect,,,,,,t2.png,t5.png,3,0.0000131,19,Female,2020-11-13_15h05.39.446,torte-q,2020.1.3,MacIntel,60,13209,0.953375,,,,,,,,,,,,,,0,33,33,66,1,,,,,,,,,,,,,,,,,,,,,,,,,,
,,,,,,,,,,,,l,Incorrect,,,,,,t3.png,t2.png,1,0.90855,19,Female,2020-11-13_15h05.39.446,torte-q,2020.1.3,MacIntel,60,13209,0.817305,,,,,,,,,,,,,,0,34,34,18,1,,,,,,,,,,,,,,,,,,,,,,,,,,
,,,,,,,,,,,,a,Incorrect,,,,,,t5.png,t2.png,3,0.0000131,19,Female,2020-11-13_15h05.39.446,torte-q,2020.1.3,MacIntel,60,13209,1.11789,,,,,,,,,,,,,,0,35,35,91,1,,,,,,,,,,,,,,,,,,,,,,,,,,
,,,,,,,,,,,,l,Incorrect,,,,,,t3.png,t2.png,1,0.90855,19,Female,2020-11-13_15h05.39.446,torte-q,2020.1.3,MacIntel,60,13209,1.41621,,,,,,,,,,,,,,0,36,36,97,1,,,,,,,,,,,,,,,,,,,,,,,,,,
,,,,,,,,,,,,a,Correct!,,,,,,t1.png,t1.png,0,0.978,19,Female,2020-11-13_15h05.39.446,torte-q,2020.1.3,MacIntel,60,13209,0.983245,,,,,,,,,,,,,,0,37,37,28,1,,,,,,,,,,,,,,,,,,,,,,,,,,
,,,,,,,,,,,,a,Incorrect,,,,,,t5.png,t2.png,3,0.0000131,19,Female,2020-11-13_15h05.39.446,torte-q,2020.1.3,MacIntel,60,13209,1.10282,,,,,,,,,,,,,,0,38,38,116,1,,,,,,,,,,,,,,,,,,,,,,,,,,
,,,,,,,,,,,,l,Correct!,,,,,,t1.png,t4.png,3,0.0000131,19,Female,2020-11-13_15h05.39.446,torte-q,2020.1.3,MacIntel,60,13209,1.84537,,,,,,,,,,,,,,0,39,39,50,1,,,,,,,,,,,,,,,,,,,,,,,,,,
,,,,,,,,,,,,l,Incorrect,,,,,,t2.png,t3.png,1,0.90855,19,Female,2020-11-13_15h05.39.446,torte-q,2020.1.3,MacIntel,60,13209,1.668725,,,,,,,,,,,,,,0,40,40,10,1,,,,,,,,,,,,,,,,,,,,,,,,,,
,,,,,,,,,,,,a,Incorrect,,,,,,t5.png,t3.png,2,0.056466,19,Female,2020-11-13_15h05.39.446,torte-q,2020.1.3,MacIntel,60,13209,1.23464,,,,,,,,,,,,,,0,41,41,114,1,,,,,,,,,,,,,,,,,,,,,,,,,,
,,,,,,,,,,,,l,Incorrect,,,,,,t2.png,t3.png,1,0.90855,19,Female,2020-11-13_15h05.39.446,torte-q,2020.1.3,MacIntel,60,13209,1.099715,,,,,,,,,,,,,,0,42,42,65,1,,,,,,,,,,,,,,,,,,,,,,,,,,
,,,,,,,,,,,,l,Correct!,,,,,,t4.png,t1.png,3,0.0000131,19,Female,2020-11-13_15h05.39.446,torte-q,2020.1.3,MacIntel,60,13209,1.250315,,,,,,,,,,,,,,0,43,43,48,1,,,,,,,,,,,,,,,,,,,,,,,,,,
,,,,,,,,,,,,a,Correct!,,,,,,t2.png,t3.png,1,0.90855,19,Female,2020-11-13_15h05.39.446,torte-q,2020.1.3,MacIntel,60,13209,0.946995,,,,,,,,,,,,,,0,44,44,111,1,,,,,,,,,,,,,,,,,,,,,,,,,,
,,,,,,,,,,,,a,Correct!,,,,,,t1.png,t1.png,0,0.97829,19,Female,2020-11-13_15h05.39.446,torte-q,2020.1.3,MacIntel,60,13209,1.198525,,,,,,,,,,,,,,0,45,45,67,1,,,,,,,,,,,,,,,,,,,,,,,,,,
,,,,,,,,,,,,l,Correct!,,,,,,t2.png,t4.png,2,0.059078,19,Female,2020-11-13_15h05.39.446,torte-q,2020.1.3,MacIntel,60,13209,0.98412,,,,,,,,,,,,,,0,46,46,37,1,,,,,,,,,,,,,,,,,,,,,,,,,,
,,,,,,,,,,,,a,Incorrect,,,,,,t1.png,t3.png,2,0.056466,19,Female,2020-11-13_15h05.39.446,torte-q,2020.1.3,MacIntel,60,13209,0.732565,,,,,,,,,,,,,,0,47,47,87,1,,,,,,,,,,,,,,,,,,,,,,,,,,
,,,,,,,,,,,,l,Correct!,,,,,,t2.png,t5.png,3,0.0000131,19,Female,2020-11-13_15h05.39.446,torte-q,2020.1.3,MacIntel,60,13209,0.71688,,,,,,,,,,,,,,0,48,48,104,1,,,,,,,,,,,,,,,,,,,,,,,,,,
,,,,,,,,,,,,a,Incorrect,,,,,,t3.png,t5.png,2,0.0565,19,Female,2020-11-13_15h05.39.446,torte-q,2020.1.3,MacIntel,60,13209,0.999725,,,,,,,,,,,,,,0,49,49,30,1,,,,,,,,,,,,,,,,,,,,,,,,,,
,,,,,,,,,,,,a,Correct!,,,,,,t1.png,t1.png,0,0.97829,19,Female,2020-11-13_15h05.39.446,torte-q,2020.1.3,MacIntel,60,13209,0.73425,,,,,,,,,,,,,,0,50,50,78,1,,,,,,,,,,,,,,,,,,,,,,,,,,
,,,,,,,,,,,,a,Correct!,,,,,,t1.png,t2.png,1,0.90025,19,Female,2020-11-13_15h05.39.446,torte-q,2020.1.3,MacIntel,60,13209,1.934285,,,,,,,,,,,,,,0,51,51,72,1,,,,,,,,,,,,,,,,,,,,,,,,,,
,,,,,,,,,,,,a,Correct!,,,,,,t3.png,t2.png,1,0.90855,19,Female,2020-11-13_15h05.39.446,torte-q,2020.1.3,MacIntel,60,13209,1.328245,,,,,,,,,,,,,,0,52,52,53,1,,,,,,,,,,,,,,,,,,,,,,,,,,
,,,,,,,,,,,,l,Correct!,,,,,,t4.png,t1.png,3,0.0000131,19,Female,2020-11-13_15h05.39.446,torte-q,2020.1.3,MacIntel,60,13209,1.184975,,,,,,,,,,,,,,0,53,53,93,1,,,,,,,,,,,,,,,,,,,,,,,,,,
,,,,,,,,,,,,a,Incorrect,,,,,,t3.png,t5.png,2,0.0565,19,Female,2020-11-13_15h05.39.446,torte-q,2020.1.3,MacIntel,60,13209,0.81636,,,,,,,,,,,,,,0,54,54,83,1,,,,,,,,,,,,,,,,,,,,,,,,,,
,,,,,,,,,,,,a,Correct!,,,,,,t4.png,t4.png,0,0.98115,19,Female,2020-11-13_15h05.39.446,torte-q,2020.1.3,MacIntel,60,13209,0.946945,,,,,,,,,,,,,,0,55,55,90,1,,,,,,,,,,,,,,,,,,,,,,,,,,
,,,,,,,,,,,,a,Correct!,,,,,,t3.png,t4.png,1,0.909,19,Female,2020-11-13_15h05.39.446,torte-q,2020.1.3,MacIntel,60,13209,0.66203,,,,,,,,,,,,,,0,56,56,89,1,,,,,,,,,,,,,,,,,,,,,,,,,,
,,,,,,,,,,,,a,Correct!,,,,,,t4.png,t5.png,1,0.90025,19,Female,2020-11-13_15h05.39.446,torte-q,2020.1.3,MacIntel,60,13209,0.90293,,,,,,,,,,,,,,0,57,57,47,1,,,,,,,,,,,,,,,,,,,,,,,,,,
,,,,,,,,,,,,a,Correct!,,,,,,t5.png,t4.png,1,0.9,19,Female,2020-11-13_15h05.39.446,torte-q,2020.1.3,MacIntel,60,13209,0.984735,,,,,,,,,,,,,,0,58,58,49,1,,,,,,,,,,,,,,,,,,,,,,,,,,
,,,,,,,,,,,,a,Correct!,,,,,,t2.png,t2.png,0,0.98115,19,Female,2020-11-13_15h05.39.446,torte-q,2020.1.3,MacIntel,60,13209,1.1177,,,,,,,,,,,,,,0,59,59,2,1,,,,,,,,,,,,,,,,,,,,,,,,,,
,,,,,,,,,,,,a,Correct!,,,,,,t1.png,t1.png,0,0.97829,19,Female,2020-11-13_15h05.39.446,torte-q,2020.1.3,MacIntel,60,13209,0.687155,,,,,,,,,,,,,,0,60,60,9,1,,,,,,,,,,,,,,,,,,,,,,,,,,
,,,,,,,,,,,,l,Correct!,,,,,,t5.png,t1.png,4,9.55E-11,19,Female,2020-11-13_15h05.39.446,torte-q,2020.1.3,MacIntel,60,13209,0.585265,,,,,,,,,,,,,,0,61,61,22,1,,,,,,,,,,,,,,,,,,,,,,,,,,
,,,,,,,,,,,,l,Correct!,,,,,,t5.png,t1.png,4,9.55E-11,19,Female,2020-11-13_15h05.39.446,torte-q,2020.1.3,MacIntel,60,13209,0.584395,,,,,,,,,,,,,,0,62,62,100,1,,,,,,,,,,,,,,,,,,,,,,,,,,
,,,,,,,,,,,,l,Incorrect,,,,,,t3.png,t2.png,1,0.909,19,Female,2020-11-13_15h05.39.446,torte-q,2020.1.3,MacIntel,60,13209,1.648565,,,,,,,,,,,,,,0,63,63,3,1,,,,,,,,,,,,,,,,,,,,,,,,,,
,,,,,,,,,,,,a,Correct!,,,,,,t4.png,t5.png,1,0.90025,19,Female,2020-11-13_15h05.39.446,torte-q,2020.1.3,MacIntel,60,13209,0.732255,,,,,,,,,,,,,,0,64,64,103,1,,,,,,,,,,,,,,,,,,,,,,,,,,
,,,,,,,,,,,,a,Incorrect,,,,,,t1.png,t4.png,3,0.0000131,19,Female,2020-11-13_15h05.39.446,torte-q,2020.1.3,MacIntel,60,13209,0.70026,,,,,,,,,,,,,,0,65,65,107,1,,,,,,,,,,,,,,,,,,,,,,,,,,
,,,,,,,,,,,,a,Incorrect,,,,,,t1.png,t3.png,2,0.056466,19,Female,2020-11-13_15h05.39.446,torte-q,2020.1.3,MacIntel,60,13209,0.566675,,,,,,,,,,,,,,0,66,66,63,1,,,,,,,,,,,,,,,,,,,,,,,,,,
,,,,,,,,,,,,a,Correct!,,,,,,t1.png,t3.png,2,0.056466,19,Female,2020-11-13_15h05.39.446,torte-q,2020.1.3,MacIntel,60,13209,0.714455,,,,,,,,,,,,,,0,67,67,99,1,,,,,,,,,,,,,,,,,,,,,,,,,,
,,,,,,,,,,,,a,Incorrect,,,,,,t1.png,t5.png,4,9.55E-11,19,Female,2020-11-13_15h05.39.446,torte-q,2020.1.3,MacIntel,60,13209,0.767245,,,,,,,,,,,,,,0,68,68,16,1,,,,,,,,,,,,,,,,,,,,,,,,,,
,,,,,,,,,,,,a,Incorrect,,,,,,t5.png,t3.png,2,0.0565,19,Female,2020-11-13_15h05.39.446,torte-q,2020.1.3,MacIntel,60,13209,0.919195,,,,,,,,,,,,,,0,69,69,39,1,,,,,,,,,,,,,,,,,,,,,,,,,,
,,,,,,,,,,,,l,Correct!,,,,,,t5.png,t1.png,4,9.55E-11,19,Female,2020-11-13_15h05.39.446,torte-q,2020.1.3,MacIntel,60,13209,0.70371,,,,,,,,,,,,,,0,70,70,43,1,,,,,,,,,,,,,,,,,,,,,,,,,,
,,,,,,,,,,,,l,Correct!,,,,,,t4.png,t1.png,3,0.0000131,19,Female,2020-11-13_15h05.39.446,torte-q,2020.1.3,MacIntel,60,13209,1.24769,,,,,,,,,,,,,,0,71,71,42,1,,,,,,,,,,,,,,,,,,,,,,,,,,
,,,,,,,,,,,,l,Correct!,,,,,,t3.png,t1.png,2,0.056466,19,Female,2020-11-13_15h05.39.446,torte-q,2020.1.3,MacIntel,60,13209,1.334165,,,,,,,,,,,,,,0,72,72,0,1,,,,,,,,,,,,,,,,,,,,,,,,,,
,,,,,,,,,,,,a,Correct!,,,,,,t3.png,t4.png,1,0.909,19,Female,2020-11-13_15h05.39.446,torte-q,2020.1.3,MacIntel,60,13209,1.149725,,,,,,,,,,,,,,0,73,73,106,1,,,,,,,,,,,,,,,,,,,,,,,,,,
,,,,,,,,,,,,a,Incorrect,,,,,,t3.png,t1.png,2,0.056466,19,Female,2020-11-13_15h05.39.446,torte-q,2020.1.3,MacIntel,60,13209,1.386455,,,,,,,,,,,,,,0,74,74,29,1,,,,,,,,,,,,,,,,,,,,,,,,,,
,,,,,,,,,,,,a,Incorrect,,,,,,t5.png,t2.png,3,0.0000131,19,Female,2020-11-13_15h05.39.446,torte-q,2020.1.3,MacIntel,60,13209,1.050815,,,,,,,,,,,,,,0,75,75,119,1,,,,,,,,,,,,,,,,,,,,,,,,,,
,,,,,,,,,,,,a,Correct!,,,,,,t4.png,t5.png,1,0.9,19,Female,2020-11-13_15h05.39.446,torte-q,2020.1.3,MacIntel,60,13209,0.369305,,,,,,,,,,,,,,0,76,76,115,1,,,,,,,,,,,,,,,,,,,,,,,,,,
,,,,,,,,,,,,a,Correct!,,,,,,t4.png,t5.png,1,0.90025,19,Female,2020-11-13_15h05.39.446,torte-q,2020.1.3,MacIntel,60,13209,0.65118,,,,,,,,,,,,,,0,77,77,58,1,,,,,,,,,,,,,,,,,,,,,,,,,,
,,,,,,,,,,,,a,Correct!,,,,,,t1.png,t2.png,1,0.90025,19,Female,2020-11-13_15h05.39.446,torte-q,2020.1.3,MacIntel,60,13209,0.697205,,,,,,,,,,,,,,0,78,78,33,1,,,,,,,,,,,,,,,,,,,,,,,,,,
,,,,,,,,,,,,a,Incorrect,,,,,,t5.png,t4.png,1,0.9,19,Female,2020-11-13_15h05.39.446,torte-q,2020.1.3,MacIntel,60,13209,0.499955,,,,,,,,,,,,,,0,79,79,76,1,,,,,,,,,,,,,,,,,,,,,,,,,,
,,,,,,,,,,,,a,Correct!,,,,,,t5.png,t4.png,1,0.90025,19,Female,2020-11-13_15h05.39.446,torte-q,2020.1.3,MacIntel,60,13209,0.750435,,,,,,,,,,,,,,0,80,80,34,1,,,,,,,,,,,,,,,,,,,,,,,,,,
,,,,,,,,,,,,l,Incorrect,,,,,,t2.png,t1.png,1,0.90025,19,Female,2020-11-13_15h05.39.446,torte-q,2020.1.3,MacIntel,60,13209,1.100805,,,,,,,,,,,,,,0,81,81,19,1,,,,,,,,,,,,,,,,,,,,,,,,,,
,,,,,,,,,,,,l,Correct!,,,,,,t2.png,t4.png,2,0.059078,19,Female,2020-11-13_15h05.39.446,torte-q,2020.1.3,MacIntel,60,13209,0.98677,,,,,,,,,,,,,,0,82,82,24,1,,,,,,,,,,,,,,,,,,,,,,,,,,
,,,,,,,,,,,,a,Correct!,,,,,,t5.png,t5.png,0,0.97829,19,Female,2020-11-13_15h05.39.446,torte-q,2020.1.3,MacIntel,60,13209,1.01389,,,,,,,,,,,,,,0,83,83,94,1,,,,,,,,,,,,,,,,,,,,,,,,,,
,,,,,,,,,,,,l,Correct!,,,,,,t4.png,t1.png,3,0.0000131,19,Female,2020-11-13_15h05.39.446,torte-q,2020.1.3,MacIntel,60,13209,0.81509,,,,,,,,,,,,,,0,84,84,61,1,,,,,,,,,,,,,,,,,,,,,,,,,,
,,,,,,,,,,,,l,Correct!,,,,,,t5.png,t1.png,4,9.55E-11,19,Female,2020-11-13_15h05.39.446,torte-q,2020.1.3,MacIntel,60,13209,0.834335,,,,,,,,,,,,,,0,85,85,102,1,,,,,,,,,,,,,,,,,,,,,,,,,,
,,,,,,,,,,,,a,Incorrect,,,,,,t1.png,t4.png,3,0.0000131,19,Female,2020-11-13_15h05.39.446,torte-q,2020.1.3,MacIntel,60,13209,0.77623,,,,,,,,,,,,,,0,86,86,81,1,,,,,,,,,,,,,,,,,,,,,,,,,,
,,,,,,,,,,,,a,Incorrect,,,,,,t3.png,t1.png,2,0.056466,19,Female,2020-11-13_15h05.39.446,torte-q,2020.1.3,MacIntel,60,13209,0.899355,,,,,,,,,,,,,,0,87,87,64,1,,,,,,,,,,,,,,,,,,,,,,,,,,
,,,,,,,,,,,,l,Correct!,,,,,,t1.png,t5.png,4,9.55E-11,19,Female,2020-11-13_15h05.39.446,torte-q,2020.1.3,MacIntel,60,13209,0.68299,,,,,,,,,,,,,,0,88,88,12,1,,,,,,,,,,,,,,,,,,,,,,,,,,
,,,,,,,,,,,,a,Correct!,,,,,,t5.png,t4.png,1,0.90025,19,Female,2020-11-13_15h05.39.446,torte-q,2020.1.3,MacIntel,60,13209,1.94656,,,,,,,,,,,,,,0,89,89,27,1,,,,,,,,,,,,,,,,,,,,,,,,,,
,,,,,,,,,,,,l,Incorrect,,,,,,t2.png,t1.png,1,0.9,19,Female,2020-11-13_15h05.39.446,torte-q,2020.1.3,MacIntel,60,13209,0.93361,,,,,,,,,,,,,,0,90,90,118,1,,,,,,,,,,,,,,,,,,,,,,,,,,
,,,,,,,,,,,,l,Incorrect,,,,,,t1.png,t2.png,1,0.90025,19,Female,2020-11-13_15h05.39.446,torte-q,2020.1.3,MacIntel,60,13209,1.285365,,,,,,,,,,,,,,0,91,91,112,1,,,,,,,,,,,,,,,,,,,,,,,,,,
,,,,,,,,,,,,a,Incorrect,,,,,,t2.png,t5.png,3,0.0000131,19,Female,2020-11-13_15h05.39.446,torte-q,2020.1.3,MacIntel,60,13209,1.53437,,,,,,,,,,,,,,0,92,92,40,1,,,,,,,,,,,,,,,,,,,,,,,,,,
,,,,,,,,,,,,a,Incorrect,,,,,,t2.png,t5.png,3,0.0000131,19,Female,2020-11-13_15h05.39.446,torte-q,2020.1.3,MacIntel,60,13209,0.751125,,,,,,,,,,,,,,0,93,93,95,1,,,,,,,,,,,,,,,,,,,,,,,,,,
,,,,,,,,,,,,a,Incorrect,,,,,,t2.png,t4.png,2,0.059078,19,Female,2020-11-13_15h05.39.446,torte-q,2020.1.3,MacIntel,60,13209,0.62979,,,,,,,,,,,,,,0,94,94,11,1,,,,,,,,,,,,,,,,,,,,,,,,,,
,,,,,,,,,,,,a,Correct!,,,,,,t3.png,t4.png,1,0.909,19,Female,2020-11-13_15h05.39.446,torte-q,2020.1.3,MacIntel,60,13209,1.382235,,,,,,,,,,,,,,0,95,95,82,1,,,,,,,,,,,,,,,,,,,,,,,,,,
,,,,,,,,,,,,a,Incorrect,,,,,,t5.png,t3.png,2,0.056466,19,Female,2020-11-13_15h05.39.446,torte-q,2020.1.3,MacIntel,60,13209,0.832955,,,,,,,,,,,,,,0,96,96,38,1,,,,,,,,,,,,,,,,,,,,,,,,,,
,,,,,,,,,,,,a,Correct!,,,,,,t5.png,t5.png,0,0.978,19,Female,2020-11-13_15h05.39.446,torte-q,2020.1.3,MacIntel,60,13209,0.61761,,,,,,,,,,,,,,0,97,97,117,1,,,,,,,,,,,,,,,,,,,,,,,,,,
,,,,,,,,,,,,l,Correct!,,,,,,t5.png,t2.png,3,0.0000131,19,Female,2020-11-13_15h05.39.446,torte-q,2020.1.3,MacIntel,60,13209,0.68409,,,,,,,,,,,,,,0,98,98,98,1,,,,,,,,,,,,,,,,,,,,,,,,,,
,,,,,,,,,,,,l,Incorrect,,,,,,t3.png,t2.png,1,0.909,19,Female,2020-11-13_15h05.39.446,torte-q,2020.1.3,MacIntel,60,13209,1.299125,,,,,,,,,,,,,,0,99,99,23,1,,,,,,,,,,,,,,,,,,,,,,,,,,
,,,,,,,,,,,,a,Correct!,,,,,,t4.png,t3.png,1,0.90855,19,Female,2020-11-13_15h05.39.446,torte-q,2020.1.3,MacIntel,60,13209,0.8835,,,,,,,,,,,,,,0,100,100,35,1,,,,,,,,,,,,,,,,,,,,,,,,,,
,,,,,,,,,,,,a,Correct!,,,,,,t4.png,t3.png,1,0.909,19,Female,2020-11-13_15h05.39.446,torte-q,2020.1.3,MacIntel,60,13209,0.851475,,,,,,,,,,,,,,0,101,101,20,1,,,,,,,,,,,,,,,,,,,,,,,,,,
,,,,,,,,,,,,a,Correct!,,,,,,t3.png,t4.png,1,0.90855,19,Female,2020-11-13_15h05.39.446,torte-q,2020.1.3,MacIntel,60,13209,1.333845,,,,,,,,,,,,,,0,102,102,84,1,,,,,,,,,,,,,,,,,,,,,,,,,,
,,,,,,,,,,,,l,Correct!,,,,,,t2.png,t5.png,3,0.0000131,19,Female,2020-11-13_15h05.39.446,torte-q,2020.1.3,MacIntel,60,13209,1.133395,,,,,,,,,,,,,,0,103,103,8,1,,,,,,,,,,,,,,,,,,,,,,,,,,
,,,,,,,,,,,,l,Incorrect,,,,,,t1.png,t1.png,0,0.978,19,Female,2020-11-13_15h05.39.446,torte-q,2020.1.3,MacIntel,60,13209,1.000475,,,,,,,,,,,,,,0,104,104,54,1,,,,,,,,,,,,,,,,,,,,,,,,,,
,,,,,,,,,,,,l,Incorrect,,,,,,t4.png,t4.png,0,0.98115,19,Female,2020-11-13_15h05.39.446,torte-q,2020.1.3,MacIntel,60,13209,0.800955,,,,,,,,,,,,,,0,105,105,79,1,,,,,,,,,,,,,,,,,,,,,,,,,,
,,,,,,,,,,,,a,Correct!,,,,,,t4.png,t3.png,1,0.909,19,Female,2020-11-13_15h05.39.446,torte-q,2020.1.3,MacIntel,60,13209,1.232585,,,,,,,,,,,,,,0,106,106,46,1,,,,,,,,,,,,,,,,,,,,,,,,,,
,,,,,,,,,,,,l,Incorrect,,,,,,t1.png,t2.png,1,0.9,19,Female,2020-11-13_15h05.39.446,torte-q,2020.1.3,MacIntel,60,13209,1.04968,,,,,,,,,,,,,,0,107,107,1,1,,,,,,,,,,,,,,,,,,,,,,,,,,
,,,,,,,,,,,,a,Correct!,,,,,,t2.png,t2.png,0,0.98115,19,Female,2020-11-13_15h05.39.446,torte-q,2020.1.3,MacIntel,60,13209,1.16633,,,,,,,,,,,,,,0,108,108,57,1,,,,,,,,,,,,,,,,,,,,,,,,,,
,,,,,,,,,,,,l,Correct!,,,,,,t4.png,t2.png,2,0.059078,19,Female,2020-11-13_15h05.39.446,torte-q,2020.1.3,MacIntel,60,13209,1.33509,,,,,,,,,,,,,,0,109,109,86,1,,,,,,,,,,,,,,,,,,,,,,,,,,
,,,,,,,,,,,,a,Correct!,,,,,,t4.png,t5.png,1,0.90025,19,Female,2020-11-13_15h05.39.446,torte-q,2020.1.3,MacIntel,60,13209,0.917865,,,,,,,,,,,,,,0,110,110,113,1,,,,,,,,,,,,,,,,,,,,,,,,,,
,,,,,,,,,,,,a,Correct!,,,,,,t5.png,t5.png,0,0.97829,19,Female,2020-11-13_15h05.39.446,torte-q,2020.1.3,MacIntel,60,13209,0.9658,,,,,,,,,,,,,,0,111,111,70,1,,,,,,,,,,,,,,,,,,,,,,,,,,
,,,,,,,,,,,,l,Correct!,,,,,,t4.png,t2.png,2,0.059078,19,Female,2020-11-13_15h05.39.446,torte-q,2020.1.3,MacIntel,60,13209,1.00043,,,,,,,,,,,,,,0,112,112,88,1,,,,,,,,,,,,,,,,,,,,,,,,,,
,,,,,,,,,,,,a,Correct!,,,,,,t4.png,t4.png,0,0.98115,19,Female,2020-11-13_15h05.39.446,torte-q,2020.1.3,MacIntel,60,13209,0.818815,,,,,,,,,,,,,,0,113,113,21,1,,,,,,,,,,,,,,,,,,,,,,,,,,
,,,,,,,,,,,,l,Correct!,,,,,,t1.png,t5.png,4,9.55E-11,19,Female,2020-11-13_15h05.39.446,torte-q,2020.1.3,MacIntel,60,13209,0.816985,,,,,,,,,,,,,,0,114,114,41,1,,,,,,,,,,,,,,,,,,,,,,,,,,
,,,,,,,,,,,,a,Incorrect,,,,,,t5.png,t3.png,2,0.056466,19,Female,2020-11-13_15h05.39.446,torte-q,2020.1.3,MacIntel,60,13209,0.7659,,,,,,,,,,,,,,0,115,115,56,1,,,,,,,,,,,,,,,,,,,,,,,,,,
,,,,,,,,,,,,l,Correct!,,,,,,t4.png,t1.png,3,0.0000131,19,Female,2020-11-13_15h05.39.446,torte-q,2020.1.3,MacIntel,60,13209,1.196965,,,,,,,,,,,,,,0,116,116,13,1,,,,,,,,,,,,,,,,,,,,,,,,,,
,,,,,,,,,,,,l,Correct!,,,,,,t4.png,t2.png,2,0.059078,19,Female,2020-11-13_15h05.39.446,torte-q,2020.1.3,MacIntel,60,13209,0.784085,,,,,,,,,,,,,,0,117,117,110,1,,,,,,,,,,,,,,,,,,,,,,,,,,
,,,,,,,,,,,,a,Correct!,,,,,,t4.png,t4.png,0,0.98115,19,Female,2020-11-13_15h05.39.446,torte-q,2020.1.3,MacIntel,60,13209,0.801675,,,,,,,,,,,,,,0,118,118,80,1,,,,,,,,,,,,,,,,,,,,,,,,,,
,,,,,,,,,,,,l,Correct!,,,,,,t1.png,t3.png,2,0.056466,19,Female,2020-11-13_15h05.39.446,torte-q,2020.1.3,MacIntel,60,13209,0.884325,,,,,,,,,,,,,,0,119,119,60,1,,,,,,,,,,,,,,,,,,,,,,,,,,
,,,,,,,,,,,,,,,,,,,,,,,19,Female,2020-11-13_15h05.39.446,torte-q,2020.1.3,MacIntel,60,13209,,l,1.31331,,,,,,,,,,,,,,,,,4.997617187,6.7453,206.734375,163.9414063,1,0,0,s1,90.3671875,95.5859375,1,0,0,t1,252.5507813,-102.15625,1,0,0,proceed,space,9.5504,space,1.185815,space,0.616215
