key_resp_8.keys,key_resp_8.rt,key_resp_9.keys,key_resp_9.rt,key_resp_10.keys,key_resp_10.rt,key_resp_11.keys,key_resp_11.rt,key_resp_2.keys,key_resp_2.rt,key_resp_3.keys,key_resp_3.rt,key_resp.keys,key_resp.rt,Feedback,train.thisRepN,train.thisTrialN,train.thisN,train.thisIndex,train.ran,torta_sx,torta_dx,difference,probability,age,gender,date,expName,psychopyVersion,OS,frameRate,participant,key_resp_15.keys,key_resp_15.rt,key_resp_6.keys,key_resp_6.rt,test1.thisRepN,test1.thisTrialN,test1.thisN,test1.thisIndex,test1.ran,key_resp_16.keys,key_resp_16.rt,key_resp_7.keys,key_resp_7.rt,test2.thisRepN,test2.thisTrialN,test2.thisN,test2.thisIndex,test2.ran,rating.response,rating.rt,mouse.x,mouse.y,mouse.leftButton,mouse.midButton,mouse.rightButton,mouse.clicked_name,mouse_2.x,mouse_2.y,mouse_2.leftButton,mouse_2.midButton,mouse_2.rightButton,mouse_2.clicked_name,mouse_3.x,mouse_3.y,mouse_3.leftButton,mouse_3.midButton,mouse_3.rightButton,mouse_3.clicked_name,key_resp_12.keys,key_resp_12.rt,key_resp_13.keys,key_resp_13.rt,key_resp_14.keys,key_resp_14.rt
space,0.803,space,0.433,space,0.099,space,0.561,space,0.12,space,26.018,a,1.525,Correct!,0,0,0,8,1,t3.png,t2.png,1,0.90855,20,Male,2020-11-06_16h48.27.461,torte-q,2020.1.3,MacIntel,60,13212,,,,,,,,,,,,,,,,,,,,,,,,,,,,,,,,,,,,,,,,,,,,
,,,,,,,,,,,,l,0.9,Incorrect,0,1,1,7,1,t4.png,t5.png,1,0.90025,20,Male,2020-11-06_16h48.27.461,torte-q,2020.1.3,MacIntel,60,13212,,,,,,,,,,,,,,,,,,,,,,,,,,,,,,,,,,,,,,,,,,,,
,,,,,,,,,,,,a,0.685,Correct!,0,2,2,42,1,t5.png,t4.png,1,0.90025,20,Male,2020-11-06_16h48.27.461,torte-q,2020.1.3,MacIntel,60,13212,,,,,,,,,,,,,,,,,,,,,,,,,,,,,,,,,,,,,,,,,,,,
,,,,,,,,,,,,l,0.601,Correct!,0,3,3,54,1,t1.png,t5.png,4,9.55E-11,20,Male,2020-11-06_16h48.27.461,torte-q,2020.1.3,MacIntel,60,13212,,,,,,,,,,,,,,,,,,,,,,,,,,,,,,,,,,,,,,,,,,,,
,,,,,,,,,,,,l,0.699,Incorrect,0,4,4,10,1,t2.png,t3.png,1,0.90855,20,Male,2020-11-06_16h48.27.461,torte-q,2020.1.3,MacIntel,60,13212,,,,,,,,,,,,,,,,,,,,,,,,,,,,,,,,,,,,,,,,,,,,
,,,,,,,,,,,,l,0.701,Correct!,0,5,5,9,1,t4.png,t5.png,1,0.9,20,Male,2020-11-06_16h48.27.461,torte-q,2020.1.3,MacIntel,60,13212,,,,,,,,,,,,,,,,,,,,,,,,,,,,,,,,,,,,,,,,,,,,
,,,,,,,,,,,,a,0.502,Incorrect,0,6,6,50,1,t5.png,t1.png,4,9.55E-11,20,Male,2020-11-06_16h48.27.461,torte-q,2020.1.3,MacIntel,60,13212,,,,,,,,,,,,,,,,,,,,,,,,,,,,,,,,,,,,,,,,,,,,
,,,,,,,,,,,,a,0.702,Incorrect,0,7,7,82,1,t5.png,t1.png,4,9.55E-11,20,Male,2020-11-06_16h48.27.461,torte-q,2020.1.3,MacIntel,60,13212,,,,,,,,,,,,,,,,,,,,,,,,,,,,,,,,,,,,,,,,,,,,
,,,,,,,,,,,,l,0.721,Correct!,0,8,8,94,1,t5.png,t1.png,4,9.55E-11,20,Male,2020-11-06_16h48.27.461,torte-q,2020.1.3,MacIntel,60,13212,,,,,,,,,,,,,,,,,,,,,,,,,,,,,,,,,,,,,,,,,,,,
,,,,,,,,,,,,l,1.518,Incorrect,0,9,9,118,1,t5.png,t5.png,0,0.978,20,Male,2020-11-06_16h48.27.461,torte-q,2020.1.3,MacIntel,60,13212,,,,,,,,,,,,,,,,,,,,,,,,,,,,,,,,,,,,,,,,,,,,
,,,,,,,,,,,,l,1.386,Correct!,0,10,10,73,1,t4.png,t2.png,2,0.059078,20,Male,2020-11-06_16h48.27.461,torte-q,2020.1.3,MacIntel,60,13212,,,,,,,,,,,,,,,,,,,,,,,,,,,,,,,,,,,,,,,,,,,,
,,,,,,,,,,,,a,0.985,Incorrect,0,11,11,88,1,t3.png,t1.png,2,0.056466,20,Male,2020-11-06_16h48.27.461,torte-q,2020.1.3,MacIntel,60,13212,,,,,,,,,,,,,,,,,,,,,,,,,,,,,,,,,,,,,,,,,,,,
,,,,,,,,,,,,l,1.618,Incorrect,0,12,12,113,1,t5.png,t4.png,1,0.9,20,Male,2020-11-06_16h48.27.461,torte-q,2020.1.3,MacIntel,60,13212,,,,,,,,,,,,,,,,,,,,,,,,,,,,,,,,,,,,,,,,,,,,
,,,,,,,,,,,,l,1.585,Correct!,0,13,13,103,1,t3.png,t1.png,2,0.056466,20,Male,2020-11-06_16h48.27.461,torte-q,2020.1.3,MacIntel,60,13212,,,,,,,,,,,,,,,,,,,,,,,,,,,,,,,,,,,,,,,,,,,,
,,,,,,,,,,,,,,Too slow :(,0,14,14,116,1,t5.png,t4.png,1,0.90025,20,Male,2020-11-06_16h48.27.461,torte-q,2020.1.3,MacIntel,60,13212,,,,,,,,,,,,,,,,,,,,,,,,,,,,,,,,,,,,,,,,,,,,
,,,,,,,,,,,,l,0.85,Incorrect,0,15,15,15,1,t3.png,t2.png,1,0.90855,20,Male,2020-11-06_16h48.27.461,torte-q,2020.1.3,MacIntel,60,13212,,,,,,,,,,,,,,,,,,,,,,,,,,,,,,,,,,,,,,,,,,,,
,,,,,,,,,,,,a,1.671,Correct!,0,16,16,29,1,t5.png,t5.png,0,0.97829,20,Male,2020-11-06_16h48.27.461,torte-q,2020.1.3,MacIntel,60,13212,,,,,,,,,,,,,,,,,,,,,,,,,,,,,,,,,,,,,,,,,,,,
,,,,,,,,,,,,a,2.185,Incorrect,0,17,17,31,1,t1.png,t5.png,4,9.55E-11,20,Male,2020-11-06_16h48.27.461,torte-q,2020.1.3,MacIntel,60,13212,,,,,,,,,,,,,,,,,,,,,,,,,,,,,,,,,,,,,,,,,,,,
,,,,,,,,,,,,l,1.169,Correct!,0,18,18,33,1,t5.png,t1.png,4,9.55E-11,20,Male,2020-11-06_16h48.27.461,torte-q,2020.1.3,MacIntel,60,13212,,,,,,,,,,,,,,,,,,,,,,,,,,,,,,,,,,,,,,,,,,,,
,,,,,,,,,,,,l,1.253,Incorrect,0,19,19,64,1,t1.png,t1.png,0,0.978,20,Male,2020-11-06_16h48.27.461,torte-q,2020.1.3,MacIntel,60,13212,,,,,,,,,,,,,,,,,,,,,,,,,,,,,,,,,,,,,,,,,,,,
,,,,,,,,,,,,a,0.82,Correct!,0,20,20,112,1,t1.png,t1.png,0,0.97829,20,Male,2020-11-06_16h48.27.461,torte-q,2020.1.3,MacIntel,60,13212,,,,,,,,,,,,,,,,,,,,,,,,,,,,,,,,,,,,,,,,,,,,
,,,,,,,,,,,,a,1.417,Incorrect,0,21,21,99,1,t1.png,t5.png,4,9.55E-11,20,Male,2020-11-06_16h48.27.461,torte-q,2020.1.3,MacIntel,60,13212,,,,,,,,,,,,,,,,,,,,,,,,,,,,,,,,,,,,,,,,,,,,
,,,,,,,,,,,,l,1.134,Incorrect,0,22,22,114,1,t2.png,t3.png,1,0.90855,20,Male,2020-11-06_16h48.27.461,torte-q,2020.1.3,MacIntel,60,13212,,,,,,,,,,,,,,,,,,,,,,,,,,,,,,,,,,,,,,,,,,,,
,,,,,,,,,,,,a,1.434,Incorrect,0,23,23,57,1,t2.png,t4.png,2,0.059078,20,Male,2020-11-06_16h48.27.461,torte-q,2020.1.3,MacIntel,60,13212,,,,,,,,,,,,,,,,,,,,,,,,,,,,,,,,,,,,,,,,,,,,
,,,,,,,,,,,,l,1.955,Correct!,0,24,24,37,1,t1.png,t4.png,3,0.0000131,20,Male,2020-11-06_16h48.27.461,torte-q,2020.1.3,MacIntel,60,13212,,,,,,,,,,,,,,,,,,,,,,,,,,,,,,,,,,,,,,,,,,,,
,,,,,,,,,,,,l,1.234,Correct!,0,25,25,11,1,t1.png,t4.png,3,0.0000131,20,Male,2020-11-06_16h48.27.461,torte-q,2020.1.3,MacIntel,60,13212,,,,,,,,,,,,,,,,,,,,,,,,,,,,,,,,,,,,,,,,,,,,
,,,,,,,,,,,,a,1.237,Correct!,0,26,26,85,1,t3.png,t2.png,1,0.90855,20,Male,2020-11-06_16h48.27.461,torte-q,2020.1.3,MacIntel,60,13212,,,,,,,,,,,,,,,,,,,,,,,,,,,,,,,,,,,,,,,,,,,,
,,,,,,,,,,,,l,1.817,Incorrect,0,27,27,49,1,t4.png,t5.png,1,0.9,20,Male,2020-11-06_16h48.27.461,torte-q,2020.1.3,MacIntel,60,13212,,,,,,,,,,,,,,,,,,,,,,,,,,,,,,,,,,,,,,,,,,,,
,,,,,,,,,,,,a,1.485,Incorrect,0,28,28,117,1,t1.png,t5.png,4,9.55E-11,20,Male,2020-11-06_16h48.27.461,torte-q,2020.1.3,MacIntel,60,13212,,,,,,,,,,,,,,,,,,,,,,,,,,,,,,,,,,,,,,,,,,,,
,,,,,,,,,,,,l,2.372,Incorrect,0,29,29,20,1,t2.png,t3.png,1,0.90855,20,Male,2020-11-06_16h48.27.461,torte-q,2020.1.3,MacIntel,60,13212,,,,,,,,,,,,,,,,,,,,,,,,,,,,,,,,,,,,,,,,,,,,
,,,,,,,,,,,,a,1.334,Correct!,0,30,30,74,1,t5.png,t4.png,1,0.9,20,Male,2020-11-06_16h48.27.461,torte-q,2020.1.3,MacIntel,60,13212,,,,,,,,,,,,,,,,,,,,,,,,,,,,,,,,,,,,,,,,,,,,
,,,,,,,,,,,,l,2.201,Incorrect,0,31,31,77,1,t1.png,t1.png,0,0.97829,20,Male,2020-11-06_16h48.27.461,torte-q,2020.1.3,MacIntel,60,13212,,,,,,,,,,,,,,,,,,,,,,,,,,,,,,,,,,,,,,,,,,,,
,,,,,,,,,,,,a,1.237,Correct!,0,32,32,92,1,t2.png,t3.png,1,0.909,20,Male,2020-11-06_16h48.27.461,torte-q,2020.1.3,MacIntel,60,13212,,,,,,,,,,,,,,,,,,,,,,,,,,,,,,,,,,,,,,,,,,,,
,,,,,,,,,,,,a,1.12,Incorrect,0,33,33,80,1,t1.png,t4.png,3,0.0000131,20,Male,2020-11-06_16h48.27.461,torte-q,2020.1.3,MacIntel,60,13212,,,,,,,,,,,,,,,,,,,,,,,,,,,,,,,,,,,,,,,,,,,,
,,,,,,,,,,,,l,1.603,Correct!,0,34,34,69,1,t4.png,t2.png,2,0.059078,20,Male,2020-11-06_16h48.27.461,torte-q,2020.1.3,MacIntel,60,13212,,,,,,,,,,,,,,,,,,,,,,,,,,,,,,,,,,,,,,,,,,,,
,,,,,,,,,,,,a,1.786,Correct!,0,35,35,59,1,t5.png,t4.png,1,0.9,20,Male,2020-11-06_16h48.27.461,torte-q,2020.1.3,MacIntel,60,13212,,,,,,,,,,,,,,,,,,,,,,,,,,,,,,,,,,,,,,,,,,,,
,,,,,,,,,,,,a,2.403,Correct!,0,36,36,44,1,t2.png,t3.png,1,0.909,20,Male,2020-11-06_16h48.27.461,torte-q,2020.1.3,MacIntel,60,13212,,,,,,,,,,,,,,,,,,,,,,,,,,,,,,,,,,,,,,,,,,,,
,,,,,,,,,,,,l,1.783,Correct!,0,37,37,14,1,t2.png,t4.png,2,0.059078,20,Male,2020-11-06_16h48.27.461,torte-q,2020.1.3,MacIntel,60,13212,,,,,,,,,,,,,,,,,,,,,,,,,,,,,,,,,,,,,,,,,,,,
,,,,,,,,,,,,a,1.536,Incorrect,0,38,38,67,1,t1.png,t5.png,4,9.55E-11,20,Male,2020-11-06_16h48.27.461,torte-q,2020.1.3,MacIntel,60,13212,,,,,,,,,,,,,,,,,,,,,,,,,,,,,,,,,,,,,,,,,,,,
,,,,,,,,,,,,a,0.834,Correct!,0,39,39,95,1,t1.png,t1.png,0,0.978,20,Male,2020-11-06_16h48.27.461,torte-q,2020.1.3,MacIntel,60,13212,,,,,,,,,,,,,,,,,,,,,,,,,,,,,,,,,,,,,,,,,,,,
,,,,,,,,,,,,l,1.453,Incorrect,0,40,40,18,1,t4.png,t5.png,1,0.90025,20,Male,2020-11-06_16h48.27.461,torte-q,2020.1.3,MacIntel,60,13212,,,,,,,,,,,,,,,,,,,,,,,,,,,,,,,,,,,,,,,,,,,,
,,,,,,,,,,,,a,0.517,Correct!,0,41,41,13,1,t5.png,t5.png,0,0.97829,20,Male,2020-11-06_16h48.27.461,torte-q,2020.1.3,MacIntel,60,13212,,,,,,,,,,,,,,,,,,,,,,,,,,,,,,,,,,,,,,,,,,,,
,,,,,,,,,,,,l,0.884,Correct!,0,42,42,5,1,t2.png,t4.png,2,0.059078,20,Male,2020-11-06_16h48.27.461,torte-q,2020.1.3,MacIntel,60,13212,,,,,,,,,,,,,,,,,,,,,,,,,,,,,,,,,,,,,,,,,,,,
,,,,,,,,,,,,l,1.052,Correct!,0,43,43,40,1,t1.png,t5.png,4,9.55E-11,20,Male,2020-11-06_16h48.27.461,torte-q,2020.1.3,MacIntel,60,13212,,,,,,,,,,,,,,,,,,,,,,,,,,,,,,,,,,,,,,,,,,,,
,,,,,,,,,,,,l,2.22,Correct!,0,44,44,93,1,t2.png,t4.png,2,0.059078,20,Male,2020-11-06_16h48.27.461,torte-q,2020.1.3,MacIntel,60,13212,,,,,,,,,,,,,,,,,,,,,,,,,,,,,,,,,,,,,,,,,,,,
,,,,,,,,,,,,l,1.651,Correct!,0,45,45,61,1,t1.png,t4.png,3,0.0000131,20,Male,2020-11-06_16h48.27.461,torte-q,2020.1.3,MacIntel,60,13212,,,,,,,,,,,,,,,,,,,,,,,,,,,,,,,,,,,,,,,,,,,,
,,,,,,,,,,,,a,0.735,Correct!,0,46,46,78,1,t1.png,t1.png,0,0.978,20,Male,2020-11-06_16h48.27.461,torte-q,2020.1.3,MacIntel,60,13212,,,,,,,,,,,,,,,,,,,,,,,,,,,,,,,,,,,,,,,,,,,,
,,,,,,,,,,,,l,0.919,Correct!,0,47,47,68,1,t1.png,t4.png,3,0.0000131,20,Male,2020-11-06_16h48.27.461,torte-q,2020.1.3,MacIntel,60,13212,,,,,,,,,,,,,,,,,,,,,,,,,,,,,,,,,,,,,,,,,,,,
,,,,,,,,,,,,a,1.367,Incorrect,0,48,48,51,1,t3.png,t1.png,2,0.056466,20,Male,2020-11-06_16h48.27.461,torte-q,2020.1.3,MacIntel,60,13212,,,,,,,,,,,,,,,,,,,,,,,,,,,,,,,,,,,,,,,,,,,,
,,,,,,,,,,,,a,1.352,Correct!,0,49,49,70,1,t5.png,t5.png,0,0.978,20,Male,2020-11-06_16h48.27.461,torte-q,2020.1.3,MacIntel,60,13212,,,,,,,,,,,,,,,,,,,,,,,,,,,,,,,,,,,,,,,,,,,,
,,,,,,,,,,,,a,0.77,Correct!,0,50,50,84,1,t1.png,t1.png,0,0.97829,20,Male,2020-11-06_16h48.27.461,torte-q,2020.1.3,MacIntel,60,13212,,,,,,,,,,,,,,,,,,,,,,,,,,,,,,,,,,,,,,,,,,,,
,,,,,,,,,,,,a,1.35,Incorrect,0,51,51,102,1,t4.png,t2.png,2,0.059078,20,Male,2020-11-06_16h48.27.461,torte-q,2020.1.3,MacIntel,60,13212,,,,,,,,,,,,,,,,,,,,,,,,,,,,,,,,,,,,,,,,,,,,
,,,,,,,,,,,,,,Too slow :(,0,52,52,111,1,t5.png,t1.png,4,9.55E-11,20,Male,2020-11-06_16h48.27.461,torte-q,2020.1.3,MacIntel,60,13212,,,,,,,,,,,,,,,,,,,,,,,,,,,,,,,,,,,,,,,,,,,,
,,,,,,,,,,,,a,1.218,Correct!,0,53,53,79,1,t3.png,t2.png,1,0.909,20,Male,2020-11-06_16h48.27.461,torte-q,2020.1.3,MacIntel,60,13212,,,,,,,,,,,,,,,,,,,,,,,,,,,,,,,,,,,,,,,,,,,,
,,,,,,,,,,,,a,1.319,Incorrect,0,54,54,4,1,t1.png,t5.png,4,9.55E-11,20,Male,2020-11-06_16h48.27.461,torte-q,2020.1.3,MacIntel,60,13212,,,,,,,,,,,,,,,,,,,,,,,,,,,,,,,,,,,,,,,,,,,,
,,,,,,,,,,,,a,0.767,Incorrect,0,55,55,91,1,t1.png,t4.png,3,0.0000131,20,Male,2020-11-06_16h48.27.461,torte-q,2020.1.3,MacIntel,60,13212,,,,,,,,,,,,,,,,,,,,,,,,,,,,,,,,,,,,,,,,,,,,
,,,,,,,,,,,,a,0.318,Incorrect,0,56,56,86,1,t3.png,t1.png,2,0.056466,20,Male,2020-11-06_16h48.27.461,torte-q,2020.1.3,MacIntel,60,13212,,,,,,,,,,,,,,,,,,,,,,,,,,,,,,,,,,,,,,,,,,,,
,,,,,,,,,,,,l,0.604,Correct!,0,57,57,47,1,t4.png,t2.png,2,0.059078,20,Male,2020-11-06_16h48.27.461,torte-q,2020.1.3,MacIntel,60,13212,,,,,,,,,,,,,,,,,,,,,,,,,,,,,,,,,,,,,,,,,,,,
,,,,,,,,,,,,a,0.917,Incorrect,0,58,58,19,1,t4.png,t2.png,2,0.059078,20,Male,2020-11-06_16h48.27.461,torte-q,2020.1.3,MacIntel,60,13212,,,,,,,,,,,,,,,,,,,,,,,,,,,,,,,,,,,,,,,,,,,,
,,,,,,,,,,,,l,0.786,Incorrect,0,59,59,98,1,t2.png,t4.png,2,0.0591,20,Male,2020-11-06_16h48.27.461,torte-q,2020.1.3,MacIntel,60,13212,,,,,,,,,,,,,,,,,,,,,,,,,,,,,,,,,,,,,,,,,,,,
,,,,,,,,,,,,l,1.272,Incorrect,0,60,60,45,1,t3.png,t2.png,1,0.90855,20,Male,2020-11-06_16h48.27.461,torte-q,2020.1.3,MacIntel,60,13212,,,,,,,,,,,,,,,,,,,,,,,,,,,,,,,,,,,,,,,,,,,,
,,,,,,,,,,,,a,0.683,Incorrect,0,61,61,52,1,t2.png,t4.png,2,0.059078,20,Male,2020-11-06_16h48.27.461,torte-q,2020.1.3,MacIntel,60,13212,,,,,,,,,,,,,,,,,,,,,,,,,,,,,,,,,,,,,,,,,,,,
,,,,,,,,,,,,a,0.818,Correct!,0,62,62,75,1,t1.png,t1.png,0,0.97829,20,Male,2020-11-06_16h48.27.461,torte-q,2020.1.3,MacIntel,60,13212,,,,,,,,,,,,,,,,,,,,,,,,,,,,,,,,,,,,,,,,,,,,
,,,,,,,,,,,,l,0.952,Incorrect,0,63,63,26,1,t4.png,t2.png,2,0.0591,20,Male,2020-11-06_16h48.27.461,torte-q,2020.1.3,MacIntel,60,13212,,,,,,,,,,,,,,,,,,,,,,,,,,,,,,,,,,,,,,,,,,,,
,,,,,,,,,,,,a,0.385,Correct!,0,64,64,23,1,t5.png,t4.png,1,0.90025,20,Male,2020-11-06_16h48.27.461,torte-q,2020.1.3,MacIntel,60,13212,,,,,,,,,,,,,,,,,,,,,,,,,,,,,,,,,,,,,,,,,,,,
,,,,,,,,,,,,a,0.685,Correct!,0,65,65,107,1,t1.png,t1.png,0,0.978,20,Male,2020-11-06_16h48.27.461,torte-q,2020.1.3,MacIntel,60,13212,,,,,,,,,,,,,,,,,,,,,,,,,,,,,,,,,,,,,,,,,,,,
,,,,,,,,,,,,a,1.119,Correct!,0,66,66,97,1,t5.png,t5.png,0,0.97829,20,Male,2020-11-06_16h48.27.461,torte-q,2020.1.3,MacIntel,60,13212,,,,,,,,,,,,,,,,,,,,,,,,,,,,,,,,,,,,,,,,,,,,
,,,,,,,,,,,,l,1.6,Correct!,0,67,67,87,1,t5.png,t1.png,4,9.55E-11,20,Male,2020-11-06_16h48.27.461,torte-q,2020.1.3,MacIntel,60,13212,,,,,,,,,,,,,,,,,,,,,,,,,,,,,,,,,,,,,,,,,,,,
,,,,,,,,,,,,l,1.615,Incorrect,0,68,68,39,1,t3.png,t2.png,1,0.90855,20,Male,2020-11-06_16h48.27.461,torte-q,2020.1.3,MacIntel,60,13212,,,,,,,,,,,,,,,,,,,,,,,,,,,,,,,,,,,,,,,,,,,,
,,,,,,,,,,,,,,Too slow :(,0,69,69,76,1,t3.png,t2.png,1,0.90855,20,Male,2020-11-06_16h48.27.461,torte-q,2020.1.3,MacIntel,60,13212,,,,,,,,,,,,,,,,,,,,,,,,,,,,,,,,,,,,,,,,,,,,
,,,,,,,,,,,,a,1.098,Correct!,0,70,70,110,1,t4.png,t5.png,1,0.90025,20,Male,2020-11-06_16h48.27.461,torte-q,2020.1.3,MacIntel,60,13212,,,,,,,,,,,,,,,,,,,,,,,,,,,,,,,,,,,,,,,,,,,,
,,,,,,,,,,,,a,1.352,Correct!,0,71,71,22,1,t2.png,t3.png,1,0.90855,20,Male,2020-11-06_16h48.27.461,torte-q,2020.1.3,MacIntel,60,13212,,,,,,,,,,,,,,,,,,,,,,,,,,,,,,,,,,,,,,,,,,,,
,,,,,,,,,,,,a,0.851,Incorrect,0,72,72,1,1,t2.png,t4.png,2,0.059078,20,Male,2020-11-06_16h48.27.461,torte-q,2020.1.3,MacIntel,60,13212,,,,,,,,,,,,,,,,,,,,,,,,,,,,,,,,,,,,,,,,,,,,
,,,,,,,,,,,,a,2.292,Correct!,0,73,73,58,1,t5.png,t4.png,1,0.90025,20,Male,2020-11-06_16h48.27.461,torte-q,2020.1.3,MacIntel,60,13212,,,,,,,,,,,,,,,,,,,,,,,,,,,,,,,,,,,,,,,,,,,,
,,,,,,,,,,,,a,0.887,Correct!,0,74,74,96,1,t1.png,t1.png,0,0.97829,20,Male,2020-11-06_16h48.27.461,torte-q,2020.1.3,MacIntel,60,13212,,,,,,,,,,,,,,,,,,,,,,,,,,,,,,,,,,,,,,,,,,,,
,,,,,,,,,,,,a,0.901,Correct!,0,75,75,109,1,t5.png,t5.png,0,0.97829,20,Male,2020-11-06_16h48.27.461,torte-q,2020.1.3,MacIntel,60,13212,,,,,,,,,,,,,,,,,,,,,,,,,,,,,,,,,,,,,,,,,,,,
,,,,,,,,,,,,a,1.218,Incorrect,0,76,76,24,1,t4.png,t2.png,2,0.059078,20,Male,2020-11-06_16h48.27.461,torte-q,2020.1.3,MacIntel,60,13212,,,,,,,,,,,,,,,,,,,,,,,,,,,,,,,,,,,,,,,,,,,,
,,,,,,,,,,,,l,0.869,Correct!,0,77,77,46,1,t4.png,t2.png,2,0.059078,20,Male,2020-11-06_16h48.27.461,torte-q,2020.1.3,MacIntel,60,13212,,,,,,,,,,,,,,,,,,,,,,,,,,,,,,,,,,,,,,,,,,,,
,,,,,,,,,,,,l,1.551,Correct!,0,78,78,3,1,t1.png,t5.png,4,9.55E-11,20,Male,2020-11-06_16h48.27.461,torte-q,2020.1.3,MacIntel,60,13212,,,,,,,,,,,,,,,,,,,,,,,,,,,,,,,,,,,,,,,,,,,,
,,,,,,,,,,,,l,1.369,Correct!,0,79,79,72,1,t4.png,t2.png,2,0.059078,20,Male,2020-11-06_16h48.27.461,torte-q,2020.1.3,MacIntel,60,13212,,,,,,,,,,,,,,,,,,,,,,,,,,,,,,,,,,,,,,,,,,,,
,,,,,,,,,,,,l,0.902,Correct!,0,80,80,90,1,t1.png,t5.png,4,9.55E-11,20,Male,2020-11-06_16h48.27.461,torte-q,2020.1.3,MacIntel,60,13212,,,,,,,,,,,,,,,,,,,,,,,,,,,,,,,,,,,,,,,,,,,,
,,,,,,,,,,,,l,0.67,Correct!,0,81,81,119,1,t1.png,t5.png,4,9.55E-11,20,Male,2020-11-06_16h48.27.461,torte-q,2020.1.3,MacIntel,60,13212,,,,,,,,,,,,,,,,,,,,,,,,,,,,,,,,,,,,,,,,,,,,
,,,,,,,,,,,,l,0.72,Correct!,0,82,82,30,1,t3.png,t1.png,2,0.056466,20,Male,2020-11-06_16h48.27.461,torte-q,2020.1.3,MacIntel,60,13212,,,,,,,,,,,,,,,,,,,,,,,,,,,,,,,,,,,,,,,,,,,,
,,,,,,,,,,,,l,1.011,Correct!,0,83,83,35,1,t1.png,t4.png,3,0.0000131,20,Male,2020-11-06_16h48.27.461,torte-q,2020.1.3,MacIntel,60,13212,,,,,,,,,,,,,,,,,,,,,,,,,,,,,,,,,,,,,,,,,,,,
,,,,,,,,,,,,l,0.666,Correct!,0,84,84,89,1,t1.png,t4.png,3,0.0000131,20,Male,2020-11-06_16h48.27.461,torte-q,2020.1.3,MacIntel,60,13212,,,,,,,,,,,,,,,,,,,,,,,,,,,,,,,,,,,,,,,,,,,,
,,,,,,,,,,,,l,0.715,Incorrect,0,85,85,106,1,t2.png,t3.png,1,0.90855,20,Male,2020-11-06_16h48.27.461,torte-q,2020.1.3,MacIntel,60,13212,,,,,,,,,,,,,,,,,,,,,,,,,,,,,,,,,,,,,,,,,,,,
,,,,,,,,,,,,a,0.451,Incorrect,0,86,86,60,1,t2.png,t4.png,2,0.059078,20,Male,2020-11-06_16h48.27.461,torte-q,2020.1.3,MacIntel,60,13212,,,,,,,,,,,,,,,,,,,,,,,,,,,,,,,,,,,,,,,,,,,,
,,,,,,,,,,,,l,0.801,Correct!,0,87,87,83,1,t3.png,t1.png,2,0.056466,20,Male,2020-11-06_16h48.27.461,torte-q,2020.1.3,MacIntel,60,13212,,,,,,,,,,,,,,,,,,,,,,,,,,,,,,,,,,,,,,,,,,,,
,,,,,,,,,,,,l,0.458,Correct!,0,88,88,12,1,t5.png,t1.png,4,9.55E-11,20,Male,2020-11-06_16h48.27.461,torte-q,2020.1.3,MacIntel,60,13212,,,,,,,,,,,,,,,,,,,,,,,,,,,,,,,,,,,,,,,,,,,,
,,,,,,,,,,,,a,0.983,Correct!,0,89,89,32,1,t4.png,t5.png,1,0.90025,20,Male,2020-11-06_16h48.27.461,torte-q,2020.1.3,MacIntel,60,13212,,,,,,,,,,,,,,,,,,,,,,,,,,,,,,,,,,,,,,,,,,,,
,,,,,,,,,,,,l,0.566,Incorrect,0,90,90,16,1,t5.png,t4.png,1,0.9,20,Male,2020-11-06_16h48.27.461,torte-q,2020.1.3,MacIntel,60,13212,,,,,,,,,,,,,,,,,,,,,,,,,,,,,,,,,,,,,,,,,,,,
,,,,,,,,,,,,a,0.269,Correct!,0,91,91,41,1,t3.png,t2.png,1,0.90855,20,Male,2020-11-06_16h48.27.461,torte-q,2020.1.3,MacIntel,60,13212,,,,,,,,,,,,,,,,,,,,,,,,,,,,,,,,,,,,,,,,,,,,
,,,,,,,,,,,,l,0.601,Incorrect,0,92,92,25,1,t5.png,t5.png,0,0.97829,20,Male,2020-11-06_16h48.27.461,torte-q,2020.1.3,MacIntel,60,13212,,,,,,,,,,,,,,,,,,,,,,,,,,,,,,,,,,,,,,,,,,,,
,,,,,,,,,,,,a,0.268,Correct!,0,93,93,65,1,t4.png,t5.png,1,0.90025,20,Male,2020-11-06_16h48.27.461,torte-q,2020.1.3,MacIntel,60,13212,,,,,,,,,,,,,,,,,,,,,,,,,,,,,,,,,,,,,,,,,,,,
,,,,,,,,,,,,l,0.02,Correct!,0,94,94,6,1,t1.png,t4.png,3,0.0000131,20,Male,2020-11-06_16h48.27.461,torte-q,2020.1.3,MacIntel,60,13212,,,,,,,,,,,,,,,,,,,,,,,,,,,,,,,,,,,,,,,,,,,,
,,,,,,,,,,,,l,0.419,Correct!,0,95,95,56,1,t5.png,t1.png,4,9.55E-11,20,Male,2020-11-06_16h48.27.461,torte-q,2020.1.3,MacIntel,60,13212,,,,,,,,,,,,,,,,,,,,,,,,,,,,,,,,,,,,,,,,,,,,
,,,,,,,,,,,,l,0.066,Incorrect,0,96,96,101,1,t4.png,t5.png,1,0.90025,20,Male,2020-11-06_16h48.27.461,torte-q,2020.1.3,MacIntel,60,13212,,,,,,,,,,,,,,,,,,,,,,,,,,,,,,,,,,,,,,,,,,,,
,,,,,,,,,,,,a,0.669,Incorrect,0,97,97,27,1,t3.png,t1.png,2,0.0565,20,Male,2020-11-06_16h48.27.461,torte-q,2020.1.3,MacIntel,60,13212,,,,,,,,,,,,,,,,,,,,,,,,,,,,,,,,,,,,,,,,,,,,
,,,,,,,,,,,,l,0.267,Incorrect,0,98,98,48,1,t5.png,t5.png,0,0.97829,20,Male,2020-11-06_16h48.27.461,torte-q,2020.1.3,MacIntel,60,13212,,,,,,,,,,,,,,,,,,,,,,,,,,,,,,,,,,,,,,,,,,,,
,,,,,,,,,,,,l,0.384,Incorrect,0,99,99,62,1,t5.png,t5.png,0,0.978,20,Male,2020-11-06_16h48.27.461,torte-q,2020.1.3,MacIntel,60,13212,,,,,,,,,,,,,,,,,,,,,,,,,,,,,,,,,,,,,,,,,,,,
,,,,,,,,,,,,a,0.287,Incorrect,0,100,100,38,1,t3.png,t1.png,2,0.056466,20,Male,2020-11-06_16h48.27.461,torte-q,2020.1.3,MacIntel,60,13212,,,,,,,,,,,,,,,,,,,,,,,,,,,,,,,,,,,,,,,,,,,,
,,,,,,,,,,,,l,0.503,Incorrect,0,101,101,21,1,t5.png,t4.png,1,0.90025,20,Male,2020-11-06_16h48.27.461,torte-q,2020.1.3,MacIntel,60,13212,,,,,,,,,,,,,,,,,,,,,,,,,,,,,,,,,,,,,,,,,,,,
,,,,,,,,,,,,l,0.553,Incorrect,0,102,102,81,1,t1.png,t1.png,0,0.97829,20,Male,2020-11-06_16h48.27.461,torte-q,2020.1.3,MacIntel,60,13212,,,,,,,,,,,,,,,,,,,,,,,,,,,,,,,,,,,,,,,,,,,,
,,,,,,,,,,,,a,0.566,Incorrect,0,103,103,43,1,t4.png,t2.png,2,0.059078,20,Male,2020-11-06_16h48.27.461,torte-q,2020.1.3,MacIntel,60,13212,,,,,,,,,,,,,,,,,,,,,,,,,,,,,,,,,,,,,,,,,,,,
,,,,,,,,,,,,l,1.252,Incorrect,0,104,104,71,1,t5.png,t5.png,0,0.97829,20,Male,2020-11-06_16h48.27.461,torte-q,2020.1.3,MacIntel,60,13212,,,,,,,,,,,,,,,,,,,,,,,,,,,,,,,,,,,,,,,,,,,,
,,,,,,,,,,,,a,1.351,Correct!,0,105,105,28,1,t2.png,t3.png,1,0.909,20,Male,2020-11-06_16h48.27.461,torte-q,2020.1.3,MacIntel,60,13212,,,,,,,,,,,,,,,,,,,,,,,,,,,,,,,,,,,,,,,,,,,,
,,,,,,,,,,,,l,1.532,Incorrect,0,106,106,63,1,t2.png,t3.png,1,0.909,20,Male,2020-11-06_16h48.27.461,torte-q,2020.1.3,MacIntel,60,13212,,,,,,,,,,,,,,,,,,,,,,,,,,,,,,,,,,,,,,,,,,,,
,,,,,,,,,,,,a,1.2,Incorrect,0,107,107,55,1,t2.png,t4.png,2,0.059078,20,Male,2020-11-06_16h48.27.461,torte-q,2020.1.3,MacIntel,60,13212,,,,,,,,,,,,,,,,,,,,,,,,,,,,,,,,,,,,,,,,,,,,
,,,,,,,,,,,,a,1.334,Correct!,0,108,108,2,1,t3.png,t2.png,1,0.90855,20,Male,2020-11-06_16h48.27.461,torte-q,2020.1.3,MacIntel,60,13212,,,,,,,,,,,,,,,,,,,,,,,,,,,,,,,,,,,,,,,,,,,,
,,,,,,,,,,,,l,1.77,Incorrect,0,109,109,34,1,t5.png,t4.png,1,0.9,20,Male,2020-11-06_16h48.27.461,torte-q,2020.1.3,MacIntel,60,13212,,,,,,,,,,,,,,,,,,,,,,,,,,,,,,,,,,,,,,,,,,,,
,,,,,,,,,,,,,,Too slow :(,0,110,110,53,1,t3.png,t1.png,2,0.056466,20,Male,2020-11-06_16h48.27.461,torte-q,2020.1.3,MacIntel,60,13212,,,,,,,,,,,,,,,,,,,,,,,,,,,,,,,,,,,,,,,,,,,,
,,,,,,,,,,,,l,1.303,Correct!,0,111,111,115,1,t2.png,t4.png,2,0.059078,20,Male,2020-11-06_16h48.27.461,torte-q,2020.1.3,MacIntel,60,13212,,,,,,,,,,,,,,,,,,,,,,,,,,,,,,,,,,,,,,,,,,,,
,,,,,,,,,,,,l,0.126,Correct!,0,112,112,104,1,t2.png,t3.png,1,0.90855,20,Male,2020-11-06_16h48.27.461,torte-q,2020.1.3,MacIntel,60,13212,,,,,,,,,,,,,,,,,,,,,,,,,,,,,,,,,,,,,,,,,,,,
,,,,,,,,,,,,,,Too slow :(,0,113,113,100,1,t4.png,t5.png,1,0.90025,20,Male,2020-11-06_16h48.27.461,torte-q,2020.1.3,MacIntel,60,13212,,,,,,,,,,,,,,,,,,,,,,,,,,,,,,,,,,,,,,,,,,,,
,,,,,,,,,,,,l,0.253,Correct!,0,114,114,36,1,t3.png,t1.png,2,0.0565,20,Male,2020-11-06_16h48.27.461,torte-q,2020.1.3,MacIntel,60,13212,,,,,,,,,,,,,,,,,,,,,,,,,,,,,,,,,,,,,,,,,,,,
,,,,,,,,,,,,l,0.285,Incorrect,0,115,115,105,1,t3.png,t2.png,1,0.90855,20,Male,2020-11-06_16h48.27.461,torte-q,2020.1.3,MacIntel,60,13212,,,,,,,,,,,,,,,,,,,,,,,,,,,,,,,,,,,,,,,,,,,,
,,,,,,,,,,,,a,0.301,Incorrect,0,116,116,108,1,t5.png,t1.png,4,9.55E-11,20,Male,2020-11-06_16h48.27.461,torte-q,2020.1.3,MacIntel,60,13212,,,,,,,,,,,,,,,,,,,,,,,,,,,,,,,,,,,,,,,,,,,,
,,,,,,,,,,,,l,0.749,Correct!,0,117,117,17,1,t1.png,t4.png,3,0.0000131,20,Male,2020-11-06_16h48.27.461,torte-q,2020.1.3,MacIntel,60,13212,,,,,,,,,,,,,,,,,,,,,,,,,,,,,,,,,,,,,,,,,,,,
,,,,,,,,,,,,l,0.734,Incorrect,0,118,118,66,1,t4.png,t5.png,1,0.9,20,Male,2020-11-06_16h48.27.461,torte-q,2020.1.3,MacIntel,60,13212,,,,,,,,,,,,,,,,,,,,,,,,,,,,,,,,,,,,,,,,,,,,
,,,,,,,,,,,,a,0.184,Incorrect,0,119,119,0,1,t5.png,t1.png,4,9.55E-11,20,Male,2020-11-06_16h48.27.461,torte-q,2020.1.3,MacIntel,60,13212,,,,,,,,,,,,,,,,,,,,,,,,,,,,,,,,,,,,,,,,,,,,
,,,,,,,,,,,,l,0.85,Incorrect,,,,,,t4.png,t4.png,0,0.98115,20,Male,2020-11-06_16h48.27.461,torte-q,2020.1.3,MacIntel,60,13212,space,1.598,space,12.8,0,0,0,21,1,,,,,,,,,,,,,,,,,,,,,,,,,,,,,,,,,,,
,,,,,,,,,,,,a,0.32,Correct!,,,,,,t3.png,t4.png,1,0.909,20,Male,2020-11-06_16h48.27.461,torte-q,2020.1.3,MacIntel,60,13212,,,,,0,1,1,89,1,,,,,,,,,,,,,,,,,,,,,,,,,,,,,,,,,,,
,,,,,,,,,,,,l,0.324,Incorrect,,,,,,t3.png,t4.png,1,0.909,20,Male,2020-11-06_16h48.27.461,torte-q,2020.1.3,MacIntel,60,13212,,,,,0,2,2,82,1,,,,,,,,,,,,,,,,,,,,,,,,,,,,,,,,,,,
,,,,,,,,,,,,l,0.601,Correct!,,,,,,t2.png,t4.png,2,0.059078,20,Male,2020-11-06_16h48.27.461,torte-q,2020.1.3,MacIntel,60,13212,,,,,0,3,3,37,1,,,,,,,,,,,,,,,,,,,,,,,,,,,,,,,,,,,
,,,,,,,,,,,,l,1.069,Correct!,,,,,,t5.png,t1.png,4,9.55E-11,20,Male,2020-11-06_16h48.27.461,torte-q,2020.1.3,MacIntel,60,13212,,,,,0,4,4,100,1,,,,,,,,,,,,,,,,,,,,,,,,,,,,,,,,,,,
,,,,,,,,,,,,l,1.336,Correct!,,,,,,t5.png,t3.png,2,0.056466,20,Male,2020-11-06_16h48.27.461,torte-q,2020.1.3,MacIntel,60,13212,,,,,0,5,5,114,1,,,,,,,,,,,,,,,,,,,,,,,,,,,,,,,,,,,
,,,,,,,,,,,,,,Too slow :(,,,,,,t4.png,t2.png,2,0.059078,20,Male,2020-11-06_16h48.27.461,torte-q,2020.1.3,MacIntel,60,13212,,,,,0,6,6,109,1,,,,,,,,,,,,,,,,,,,,,,,,,,,,,,,,,,,
,,,,,,,,,,,,a,1.236,Correct!,,,,,,t2.png,t1.png,1,0.90025,20,Male,2020-11-06_16h48.27.461,torte-q,2020.1.3,MacIntel,60,13212,,,,,0,7,7,19,1,,,,,,,,,,,,,,,,,,,,,,,,,,,,,,,,,,,
,,,,,,,,,,,,a,0.769,Correct!,,,,,,t2.png,t2.png,0,0.98115,20,Male,2020-11-06_16h48.27.461,torte-q,2020.1.3,MacIntel,60,13212,,,,,0,8,8,7,1,,,,,,,,,,,,,,,,,,,,,,,,,,,,,,,,,,,
,,,,,,,,,,,,l,1.17,Incorrect,,,,,,t4.png,t5.png,1,0.90025,20,Male,2020-11-06_16h48.27.461,torte-q,2020.1.3,MacIntel,60,13212,,,,,0,9,9,103,1,,,,,,,,,,,,,,,,,,,,,,,,,,,,,,,,,,,
,,,,,,,,,,,,l,1.352,Incorrect,,,,,,t5.png,t4.png,1,0.90025,20,Male,2020-11-06_16h48.27.461,torte-q,2020.1.3,MacIntel,60,13212,,,,,0,10,10,34,1,,,,,,,,,,,,,,,,,,,,,,,,,,,,,,,,,,,
,,,,,,,,,,,,a,1.536,Correct!,,,,,,t5.png,t4.png,1,0.9,20,Male,2020-11-06_16h48.27.461,torte-q,2020.1.3,MacIntel,60,13212,,,,,0,11,11,76,1,,,,,,,,,,,,,,,,,,,,,,,,,,,,,,,,,,,
,,,,,,,,,,,,a,0.985,Incorrect,,,,,,t5.png,t2.png,3,0.0000131,20,Male,2020-11-06_16h48.27.461,torte-q,2020.1.3,MacIntel,60,13212,,,,,0,12,12,119,1,,,,,,,,,,,,,,,,,,,,,,,,,,,,,,,,,,,
,,,,,,,,,,,,a,1.136,Incorrect,,,,,,t4.png,t1.png,3,0.0000131,20,Male,2020-11-06_16h48.27.461,torte-q,2020.1.3,MacIntel,60,13212,,,,,0,13,13,42,1,,,,,,,,,,,,,,,,,,,,,,,,,,,,,,,,,,,
,,,,,,,,,,,,a,0.818,Incorrect,,,,,,t5.png,t1.png,4,9.55E-11,20,Male,2020-11-06_16h48.27.461,torte-q,2020.1.3,MacIntel,60,13212,,,,,0,14,14,102,1,,,,,,,,,,,,,,,,,,,,,,,,,,,,,,,,,,,
,,,,,,,,,,,,a,2.087,Correct!,,,,,,t3.png,t4.png,1,0.90855,20,Male,2020-11-06_16h48.27.461,torte-q,2020.1.3,MacIntel,60,13212,,,,,0,15,15,96,1,,,,,,,,,,,,,,,,,,,,,,,,,,,,,,,,,,,
,,,,,,,,,,,,a,0.819,Correct!,,,,,,t1.png,t1.png,0,0.978,20,Male,2020-11-06_16h48.27.461,torte-q,2020.1.3,MacIntel,60,13212,,,,,0,16,16,54,1,,,,,,,,,,,,,,,,,,,,,,,,,,,,,,,,,,,
,,,,,,,,,,,,a,1.601,Correct!,,,,,,t4.png,t4.png,0,0.98115,20,Male,2020-11-06_16h48.27.461,torte-q,2020.1.3,MacIntel,60,13212,,,,,0,17,17,80,1,,,,,,,,,,,,,,,,,,,,,,,,,,,,,,,,,,,
,,,,,,,,,,,,l,1.186,Incorrect,,,,,,t2.png,t3.png,1,0.90855,20,Male,2020-11-06_16h48.27.461,torte-q,2020.1.3,MacIntel,60,13212,,,,,0,18,18,68,1,,,,,,,,,,,,,,,,,,,,,,,,,,,,,,,,,,,
,,,,,,,,,,,,a,0.934,Incorrect,,,,,,t2.png,t4.png,2,0.059078,20,Male,2020-11-06_16h48.27.461,torte-q,2020.1.3,MacIntel,60,13212,,,,,0,19,19,24,1,,,,,,,,,,,,,,,,,,,,,,,,,,,,,,,,,,,
,,,,,,,,,,,,l,1.786,Correct!,,,,,,t3.png,t5.png,2,0.0565,20,Male,2020-11-06_16h48.27.461,torte-q,2020.1.3,MacIntel,60,13212,,,,,0,20,20,30,1,,,,,,,,,,,,,,,,,,,,,,,,,,,,,,,,,,,
,,,,,,,,,,,,a,1.436,Incorrect,,,,,,t5.png,t3.png,2,0.056466,20,Male,2020-11-06_16h48.27.461,torte-q,2020.1.3,MacIntel,60,13212,,,,,0,21,21,108,1,,,,,,,,,,,,,,,,,,,,,,,,,,,,,,,,,,,
,,,,,,,,,,,,l,0.935,Correct!,,,,,,t4.png,t1.png,3,0.0000131,20,Male,2020-11-06_16h48.27.461,torte-q,2020.1.3,MacIntel,60,13212,,,,,0,22,22,48,1,,,,,,,,,,,,,,,,,,,,,,,,,,,,,,,,,,,
,,,,,,,,,,,,a,2.197,Correct!,,,,,,t2.png,t3.png,1,0.90855,20,Male,2020-11-06_16h48.27.461,torte-q,2020.1.3,MacIntel,60,13212,,,,,0,23,23,10,1,,,,,,,,,,,,,,,,,,,,,,,,,,,,,,,,,,,
,,,,,,,,,,,,a,0.434,Correct!,,,,,,t2.png,t2.png,0,0.98115,20,Male,2020-11-06_16h48.27.461,torte-q,2020.1.3,MacIntel,60,13212,,,,,0,24,24,57,1,,,,,,,,,,,,,,,,,,,,,,,,,,,,,,,,,,,
,,,,,,,,,,,,l,1.069,Incorrect,,,,,,t4.png,t3.png,1,0.909,20,Male,2020-11-06_16h48.27.461,torte-q,2020.1.3,MacIntel,60,13212,,,,,0,25,25,20,1,,,,,,,,,,,,,,,,,,,,,,,,,,,,,,,,,,,
,,,,,,,,,,,,l,1.366,Incorrect,,,,,,t2.png,t1.png,1,0.90025,20,Male,2020-11-06_16h48.27.461,torte-q,2020.1.3,MacIntel,60,13212,,,,,0,26,26,62,1,,,,,,,,,,,,,,,,,,,,,,,,,,,,,,,,,,,
,,,,,,,,,,,,l,1.679,Incorrect,,,,,,t5.png,t4.png,1,0.90025,20,Male,2020-11-06_16h48.27.461,torte-q,2020.1.3,MacIntel,60,13212,,,,,0,27,27,27,1,,,,,,,,,,,,,,,,,,,,,,,,,,,,,,,,,,,
,,,,,,,,,,,,l,2.026,Correct!,,,,,,t3.png,t1.png,2,0.056466,20,Male,2020-11-06_16h48.27.461,torte-q,2020.1.3,MacIntel,60,13212,,,,,0,28,28,32,1,,,,,,,,,,,,,,,,,,,,,,,,,,,,,,,,,,,
,,,,,,,,,,,,l,1.885,Correct!,,,,,,t2.png,t5.png,3,0.0000131,20,Male,2020-11-06_16h48.27.461,torte-q,2020.1.3,MacIntel,60,13212,,,,,0,29,29,8,1,,,,,,,,,,,,,,,,,,,,,,,,,,,,,,,,,,,
,,,,,,,,,,,,a,0.799,Correct!,,,,,,t1.png,t2.png,1,0.90025,20,Male,2020-11-06_16h48.27.461,torte-q,2020.1.3,MacIntel,60,13212,,,,,0,30,30,72,1,,,,,,,,,,,,,,,,,,,,,,,,,,,,,,,,,,,
,,,,,,,,,,,,a,0.685,Correct!,,,,,,t5.png,t5.png,0,0.97829,20,Male,2020-11-06_16h48.27.461,torte-q,2020.1.3,MacIntel,60,13212,,,,,0,31,31,73,1,,,,,,,,,,,,,,,,,,,,,,,,,,,,,,,,,,,
,,,,,,,,,,,,l,1.284,Incorrect,,,,,,t5.png,t4.png,1,0.90025,20,Male,2020-11-06_16h48.27.461,torte-q,2020.1.3,MacIntel,60,13212,,,,,0,32,32,26,1,,,,,,,,,,,,,,,,,,,,,,,,,,,,,,,,,,,
,,,,,,,,,,,,l,1.798,Incorrect,,,,,,t4.png,t5.png,1,0.9,20,Male,2020-11-06_16h48.27.461,torte-q,2020.1.3,MacIntel,60,13212,,,,,0,33,33,115,1,,,,,,,,,,,,,,,,,,,,,,,,,,,,,,,,,,,
,,,,,,,,,,,,l,1.354,Correct!,,,,,,t3.png,t1.png,2,0.056466,20,Male,2020-11-06_16h48.27.461,torte-q,2020.1.3,MacIntel,60,13212,,,,,0,34,34,64,1,,,,,,,,,,,,,,,,,,,,,,,,,,,,,,,,,,,
,,,,,,,,,,,,a,0.717,Incorrect,,,,,,t1.png,t5.png,4,9.55E-11,20,Male,2020-11-06_16h48.27.461,torte-q,2020.1.3,MacIntel,60,13212,,,,,0,35,35,12,1,,,,,,,,,,,,,,,,,,,,,,,,,,,,,,,,,,,
,,,,,,,,,,,,a,1.32,Incorrect,,,,,,t3.png,t5.png,2,0.056466,20,Male,2020-11-06_16h48.27.461,torte-q,2020.1.3,MacIntel,60,13212,,,,,0,36,36,44,1,,,,,,,,,,,,,,,,,,,,,,,,,,,,,,,,,,,
,,,,,,,,,,,,a,1.618,Correct!,,,,,,t5.png,t5.png,0,0.97829,20,Male,2020-11-06_16h48.27.461,torte-q,2020.1.3,MacIntel,60,13212,,,,,0,37,37,25,1,,,,,,,,,,,,,,,,,,,,,,,,,,,,,,,,,,,
,,,,,,,,,,,,l,1.186,Correct!,,,,,,t5.png,t1.png,4,9.55E-11,20,Male,2020-11-06_16h48.27.461,torte-q,2020.1.3,MacIntel,60,13212,,,,,0,38,38,22,1,,,,,,,,,,,,,,,,,,,,,,,,,,,,,,,,,,,
,,,,,,,,,,,,a,0.919,Incorrect,,,,,,t3.png,t5.png,2,0.056466,20,Male,2020-11-06_16h48.27.461,torte-q,2020.1.3,MacIntel,60,13212,,,,,0,39,39,14,1,,,,,,,,,,,,,,,,,,,,,,,,,,,,,,,,,,,
,,,,,,,,,,,,l,0.949,Correct!,,,,,,t5.png,t3.png,2,0.056466,20,Male,2020-11-06_16h48.27.461,torte-q,2020.1.3,MacIntel,60,13212,,,,,0,40,40,56,1,,,,,,,,,,,,,,,,,,,,,,,,,,,,,,,,,,,
,,,,,,,,,,,,a,1.1,Correct!,,,,,,t1.png,t2.png,1,0.90025,20,Male,2020-11-06_16h48.27.461,torte-q,2020.1.3,MacIntel,60,13212,,,,,0,41,41,112,1,,,,,,,,,,,,,,,,,,,,,,,,,,,,,,,,,,,
,,,,,,,,,,,,a,1.001,Correct!,,,,,,t2.png,t3.png,1,0.90855,20,Male,2020-11-06_16h48.27.461,torte-q,2020.1.3,MacIntel,60,13212,,,,,0,42,42,111,1,,,,,,,,,,,,,,,,,,,,,,,,,,,,,,,,,,,
,,,,,,,,,,,,a,0.987,Correct!,,,,,,t5.png,t5.png,0,0.97829,20,Male,2020-11-06_16h48.27.461,torte-q,2020.1.3,MacIntel,60,13212,,,,,0,43,43,70,1,,,,,,,,,,,,,,,,,,,,,,,,,,,,,,,,,,,
,,,,,,,,,,,,a,0.78,Incorrect,,,,,,t1.png,t3.png,2,0.056466,20,Male,2020-11-06_16h48.27.461,torte-q,2020.1.3,MacIntel,60,13212,,,,,0,44,44,69,1,,,,,,,,,,,,,,,,,,,,,,,,,,,,,,,,,,,
,,,,,,,,,,,,a,0.734,Correct!,,,,,,t1.png,t1.png,0,0.97829,20,Male,2020-11-06_16h48.27.461,torte-q,2020.1.3,MacIntel,60,13212,,,,,0,45,45,78,1,,,,,,,,,,,,,,,,,,,,,,,,,,,,,,,,,,,
,,,,,,,,,,,,a,0.785,Correct!,,,,,,t5.png,t5.png,0,0.97829,20,Male,2020-11-06_16h48.27.461,torte-q,2020.1.3,MacIntel,60,13212,,,,,0,46,46,94,1,,,,,,,,,,,,,,,,,,,,,,,,,,,,,,,,,,,
,,,,,,,,,,,,a,1.366,Incorrect,,,,,,t1.png,t3.png,2,0.056466,20,Male,2020-11-06_16h48.27.461,torte-q,2020.1.3,MacIntel,60,13212,,,,,0,47,47,87,1,,,,,,,,,,,,,,,,,,,,,,,,,,,,,,,,,,,
,,,,,,,,,,,,l,1.52,Incorrect,,,,,,t3.png,t2.png,1,0.90855,20,Male,2020-11-06_16h48.27.461,torte-q,2020.1.3,MacIntel,60,13212,,,,,0,48,48,53,1,,,,,,,,,,,,,,,,,,,,,,,,,,,,,,,,,,,
,,,,,,,,,,,,l,1.818,Correct!,,,,,,t4.png,t1.png,3,0.0000131,20,Male,2020-11-06_16h48.27.461,torte-q,2020.1.3,MacIntel,60,13212,,,,,0,49,49,13,1,,,,,,,,,,,,,,,,,,,,,,,,,,,,,,,,,,,
,,,,,,,,,,,,l,1.052,Correct!,,,,,,t4.png,t2.png,2,0.0591,20,Male,2020-11-06_16h48.27.461,torte-q,2020.1.3,MacIntel,60,13212,,,,,0,50,50,36,1,,,,,,,,,,,,,,,,,,,,,,,,,,,,,,,,,,,
,,,,,,,,,,,,l,1.983,Correct!,,,,,,t5.png,t1.png,4,9.55E-11,20,Male,2020-11-06_16h48.27.461,torte-q,2020.1.3,MacIntel,60,13212,,,,,0,51,51,43,1,,,,,,,,,,,,,,,,,,,,,,,,,,,,,,,,,,,
,,,,,,,,,,,,l,0.538,Incorrect,,,,,,t4.png,t5.png,1,0.90025,20,Male,2020-11-06_16h48.27.461,torte-q,2020.1.3,MacIntel,60,13212,,,,,0,52,52,58,1,,,,,,,,,,,,,,,,,,,,,,,,,,,,,,,,,,,
,,,,,,,,,,,,a,0.084,Correct!,,,,,,t1.png,t1.png,0,0.978,20,Male,2020-11-06_16h48.27.461,torte-q,2020.1.3,MacIntel,60,13212,,,,,0,53,53,28,1,,,,,,,,,,,,,,,,,,,,,,,,,,,,,,,,,,,
,,,,,,,,,,,,l,0.822,Correct!,,,,,,t5.png,t3.png,2,0.0565,20,Male,2020-11-06_16h48.27.461,torte-q,2020.1.3,MacIntel,60,13212,,,,,0,54,54,39,1,,,,,,,,,,,,,,,,,,,,,,,,,,,,,,,,,,,
,,,,,,,,,,,,l,0.967,Correct!,,,,,,t3.png,t1.png,2,0.056466,20,Male,2020-11-06_16h48.27.461,torte-q,2020.1.3,MacIntel,60,13212,,,,,0,55,55,0,1,,,,,,,,,,,,,,,,,,,,,,,,,,,,,,,,,,,
,,,,,,,,,,,,a,1.708,Correct!,,,,,,t4.png,t5.png,1,0.90025,20,Male,2020-11-06_16h48.27.461,torte-q,2020.1.3,MacIntel,60,13212,,,,,0,56,56,113,1,,,,,,,,,,,,,,,,,,,,,,,,,,,,,,,,,,,
,,,,,,,,,,,,l,0.853,Correct!,,,,,,t4.png,t2.png,2,0.059078,20,Male,2020-11-06_16h48.27.461,torte-q,2020.1.3,MacIntel,60,13212,,,,,0,57,57,88,1,,,,,,,,,,,,,,,,,,,,,,,,,,,,,,,,,,,
,,,,,,,,,,,,a,1.608,Incorrect,,,,,,t2.png,t4.png,2,0.0591,20,Male,2020-11-06_16h48.27.461,torte-q,2020.1.3,MacIntel,60,13212,,,,,0,58,58,15,1,,,,,,,,,,,,,,,,,,,,,,,,,,,,,,,,,,,
,,,,,,,,,,,,a,1.152,Incorrect,,,,,,t1.png,t5.png,4,9.55E-11,20,Male,2020-11-06_16h48.27.461,torte-q,2020.1.3,MacIntel,60,13212,,,,,0,59,59,16,1,,,,,,,,,,,,,,,,,,,,,,,,,,,,,,,,,,,
,,,,,,,,,,,,a,0.767,Correct!,,,,,,t4.png,t4.png,0,0.98115,20,Male,2020-11-06_16h48.27.461,torte-q,2020.1.3,MacIntel,60,13212,,,,,0,60,60,79,1,,,,,,,,,,,,,,,,,,,,,,,,,,,,,,,,,,,
,,,,,,,,,,,,a,0.733,Incorrect,,,,,,t3.png,t5.png,2,0.056466,20,Male,2020-11-06_16h48.27.461,torte-q,2020.1.3,MacIntel,60,13212,,,,,0,61,61,6,1,,,,,,,,,,,,,,,,,,,,,,,,,,,,,,,,,,,
,,,,,,,,,,,,a,0.666,Incorrect,,,,,,t2.png,t5.png,3,0.0000131,20,Male,2020-11-06_16h48.27.461,torte-q,2020.1.3,MacIntel,60,13212,,,,,0,62,62,104,1,,,,,,,,,,,,,,,,,,,,,,,,,,,,,,,,,,,
,,,,,,,,,,,,l,0.983,Incorrect,,,,,,t2.png,t1.png,1,0.9,20,Male,2020-11-06_16h48.27.461,torte-q,2020.1.3,MacIntel,60,13212,,,,,0,63,63,118,1,,,,,,,,,,,,,,,,,,,,,,,,,,,,,,,,,,,
,,,,,,,,,,,,a,1.101,Correct!,,,,,,t2.png,t2.png,0,0.98115,20,Male,2020-11-06_16h48.27.461,torte-q,2020.1.3,MacIntel,60,13212,,,,,0,64,64,2,1,,,,,,,,,,,,,,,,,,,,,,,,,,,,,,,,,,,
,,,,,,,,,,,,l,0.907,Incorrect,,,,,,t3.png,t2.png,1,0.909,20,Male,2020-11-06_16h48.27.461,torte-q,2020.1.3,MacIntel,60,13212,,,,,0,65,65,3,1,,,,,,,,,,,,,,,,,,,,,,,,,,,,,,,,,,,
,,,,,,,,,,,,l,1.107,Incorrect,,,,,,t2.png,t2.png,0,0.981,20,Male,2020-11-06_16h48.27.461,torte-q,2020.1.3,MacIntel,60,13212,,,,,0,66,66,101,1,,,,,,,,,,,,,,,,,,,,,,,,,,,,,,,,,,,
,,,,,,,,,,,,l,1.233,Correct!,,,,,,t1.png,t4.png,3,0.0000131,20,Male,2020-11-06_16h48.27.461,torte-q,2020.1.3,MacIntel,60,13212,,,,,0,67,67,92,1,,,,,,,,,,,,,,,,,,,,,,,,,,,,,,,,,,,
,,,,,,,,,,,,a,0.742,Incorrect,,,,,,t1.png,t4.png,3,0.0000131,20,Male,2020-11-06_16h48.27.461,torte-q,2020.1.3,MacIntel,60,13212,,,,,0,68,68,17,1,,,,,,,,,,,,,,,,,,,,,,,,,,,,,,,,,,,
,,,,,,,,,,,,l,0.101,Correct!,,,,,,t5.png,t2.png,3,0.0000131,20,Male,2020-11-06_16h48.27.461,torte-q,2020.1.3,MacIntel,60,13212,,,,,0,69,69,91,1,,,,,,,,,,,,,,,,,,,,,,,,,,,,,,,,,,,
,,,,,,,,,,,,a,0.9,Incorrect,,,,,,t1.png,t3.png,2,0.056466,20,Male,2020-11-06_16h48.27.461,torte-q,2020.1.3,MacIntel,60,13212,,,,,0,70,70,60,1,,,,,,,,,,,,,,,,,,,,,,,,,,,,,,,,,,,
,,,,,,,,,,,,l,1.051,Incorrect,,,,,,t3.png,t2.png,1,0.90855,20,Male,2020-11-06_16h48.27.461,torte-q,2020.1.3,MacIntel,60,13212,,,,,0,71,71,18,1,,,,,,,,,,,,,,,,,,,,,,,,,,,,,,,,,,,
,,,,,,,,,,,,a,0.684,Incorrect,,,,,,t1.png,t3.png,2,0.056466,20,Male,2020-11-06_16h48.27.461,torte-q,2020.1.3,MacIntel,60,13212,,,,,0,72,72,99,1,,,,,,,,,,,,,,,,,,,,,,,,,,,,,,,,,,,
,,,,,,,,,,,,a,0.868,Incorrect,,,,,,t2.png,t4.png,2,0.059078,20,Male,2020-11-06_16h48.27.461,torte-q,2020.1.3,MacIntel,60,13212,,,,,0,73,73,11,1,,,,,,,,,,,,,,,,,,,,,,,,,,,,,,,,,,,
,,,,,,,,,,,,a,0.702,Incorrect,,,,,,t3.png,t5.png,2,0.0565,20,Male,2020-11-06_16h48.27.461,torte-q,2020.1.3,MacIntel,60,13212,,,,,0,74,74,83,1,,,,,,,,,,,,,,,,,,,,,,,,,,,,,,,,,,,
,,,,,,,,,,,,l,0.668,Incorrect,,,,,,t5.png,t5.png,0,0.978,20,Male,2020-11-06_16h48.27.461,torte-q,2020.1.3,MacIntel,60,13212,,,,,0,75,75,117,1,,,,,,,,,,,,,,,,,,,,,,,,,,,,,,,,,,,
,,,,,,,,,,,,a,0.148,Incorrect,,,,,,t2.png,t5.png,3,0.0000131,20,Male,2020-11-06_16h48.27.461,torte-q,2020.1.3,MacIntel,60,13212,,,,,0,76,76,95,1,,,,,,,,,,,,,,,,,,,,,,,,,,,,,,,,,,,
,,,,,,,,,,,,l,0.954,Incorrect,,,,,,t5.png,t3.png,2,0.056466,20,Male,2020-11-06_16h48.27.461,torte-q,2020.1.3,MacIntel,60,13212,,,,,0,77,77,38,1,,,,,,,,,,,,,,,,,,,,,,,,,,,,,,,,,,,
,,,,,,,,,,,,l,1.085,Incorrect,,,,,,t2.png,t1.png,1,0.90025,20,Male,2020-11-06_16h48.27.461,torte-q,2020.1.3,MacIntel,60,13212,,,,,0,78,78,4,1,,,,,,,,,,,,,,,,,,,,,,,,,,,,,,,,,,,
,,,,,,,,,,,,a,1.169,Correct!,,,,,,t4.png,t4.png,0,0.98115,20,Male,2020-11-06_16h48.27.461,torte-q,2020.1.3,MacIntel,60,13212,,,,,0,79,79,52,1,,,,,,,,,,,,,,,,,,,,,,,,,,,,,,,,,,,
,,,,,,,,,,,,l,0.987,Correct!,,,,,,t5.png,t2.png,3,0.0000131,20,Male,2020-11-06_16h48.27.461,torte-q,2020.1.3,MacIntel,60,13212,,,,,0,80,80,116,1,,,,,,,,,,,,,,,,,,,,,,,,,,,,,,,,,,,
,,,,,,,,,,,,l,1.351,Correct!,,,,,,t4.png,t2.png,2,0.059078,20,Male,2020-11-06_16h48.27.461,torte-q,2020.1.3,MacIntel,60,13212,,,,,0,81,81,86,1,,,,,,,,,,,,,,,,,,,,,,,,,,,,,,,,,,,
,,,,,,,,,,,,l,0.67,Correct!,,,,,,t3.png,t1.png,2,0.0565,20,Male,2020-11-06_16h48.27.461,torte-q,2020.1.3,MacIntel,60,13212,,,,,0,82,82,31,1,,,,,,,,,,,,,,,,,,,,,,,,,,,,,,,,,,,
,,,,,,,,,,,,a,1.3,Incorrect,,,,,,t3.png,t4.png,1,0.909,20,Male,2020-11-06_16h48.27.461,torte-q,2020.1.3,MacIntel,60,13212,,,,,0,83,83,106,1,,,,,,,,,,,,,,,,,,,,,,,,,,,,,,,,,,,
,,,,,,,,,,,,a,1.616,Correct!,,,,,,t1.png,t2.png,1,0.9,20,Male,2020-11-06_16h48.27.461,torte-q,2020.1.3,MacIntel,60,13212,,,,,0,84,84,1,1,,,,,,,,,,,,,,,,,,,,,,,,,,,,,,,,,,,
,,,,,,,,,,,,a,1.102,Correct!,,,,,,t2.png,t2.png,0,0.98115,20,Male,2020-11-06_16h48.27.461,torte-q,2020.1.3,MacIntel,60,13212,,,,,0,85,85,59,1,,,,,,,,,,,,,,,,,,,,,,,,,,,,,,,,,,,
,,,,,,,,,,,,l,0.853,Incorrect,,,,,,t3.png,t2.png,1,0.90855,20,Male,2020-11-06_16h48.27.461,torte-q,2020.1.3,MacIntel,60,13212,,,,,0,86,86,97,1,,,,,,,,,,,,,,,,,,,,,,,,,,,,,,,,,,,
,,,,,,,,,,,,a,0.72,Incorrect,,,,,,t1.png,t5.png,4,9.55E-11,20,Male,2020-11-06_16h48.27.461,torte-q,2020.1.3,MacIntel,60,13212,,,,,0,87,87,41,1,,,,,,,,,,,,,,,,,,,,,,,,,,,,,,,,,,,
,,,,,,,,,,,,l,0.868,Correct!,,,,,,t5.png,t2.png,3,0.0000131,20,Male,2020-11-06_16h48.27.461,torte-q,2020.1.3,MacIntel,60,13212,,,,,0,88,88,98,1,,,,,,,,,,,,,,,,,,,,,,,,,,,,,,,,,,,
,,,,,,,,,,,,l,0.95,Incorrect,,,,,,t4.png,t3.png,1,0.909,20,Male,2020-11-06_16h48.27.461,torte-q,2020.1.3,MacIntel,60,13212,,,,,0,89,89,46,1,,,,,,,,,,,,,,,,,,,,,,,,,,,,,,,,,,,
,,,,,,,,,,,,a,0.802,Incorrect,,,,,,t1.png,t5.png,4,9.55E-11,20,Male,2020-11-06_16h48.27.461,torte-q,2020.1.3,MacIntel,60,13212,,,,,0,90,90,85,1,,,,,,,,,,,,,,,,,,,,,,,,,,,,,,,,,,,
,,,,,,,,,,,,l,0.818,Incorrect,,,,,,t3.png,t2.png,1,0.909,20,Male,2020-11-06_16h48.27.461,torte-q,2020.1.3,MacIntel,60,13212,,,,,0,91,91,23,1,,,,,,,,,,,,,,,,,,,,,,,,,,,,,,,,,,,
,,,,,,,,,,,,a,0.669,Correct!,,,,,,t2.png,t3.png,1,0.909,20,Male,2020-11-06_16h48.27.461,torte-q,2020.1.3,MacIntel,60,13212,,,,,0,92,92,74,1,,,,,,,,,,,,,,,,,,,,,,,,,,,,,,,,,,,
,,,,,,,,,,,,a,0.652,Incorrect,,,,,,t2.png,t5.png,3,0.0000131,20,Male,2020-11-06_16h48.27.461,torte-q,2020.1.3,MacIntel,60,13212,,,,,0,93,93,66,1,,,,,,,,,,,,,,,,,,,,,,,,,,,,,,,,,,,
,,,,,,,,,,,,a,0.551,Incorrect,,,,,,t2.png,t4.png,2,0.059078,20,Male,2020-11-06_16h48.27.461,torte-q,2020.1.3,MacIntel,60,13212,,,,,0,94,94,77,1,,,,,,,,,,,,,,,,,,,,,,,,,,,,,,,,,,,
,,,,,,,,,,,,a,0.504,Incorrect,,,,,,t1.png,t4.png,3,0.0000131,20,Male,2020-11-06_16h48.27.461,torte-q,2020.1.3,MacIntel,60,13212,,,,,0,95,95,50,1,,,,,,,,,,,,,,,,,,,,,,,,,,,,,,,,,,,
,,,,,,,,,,,,l,0.92,Correct!,,,,,,t4.png,t2.png,2,0.059078,20,Male,2020-11-06_16h48.27.461,torte-q,2020.1.3,MacIntel,60,13212,,,,,0,96,96,110,1,,,,,,,,,,,,,,,,,,,,,,,,,,,,,,,,,,,
,,,,,,,,,,,,a,0.986,Correct!,,,,,,t1.png,t1.png,0,0.97829,20,Male,2020-11-06_16h48.27.461,torte-q,2020.1.3,MacIntel,60,13212,,,,,0,97,97,9,1,,,,,,,,,,,,,,,,,,,,,,,,,,,,,,,,,,,
,,,,,,,,,,,,a,0.585,Correct!,,,,,,t1.png,t2.png,1,0.90025,20,Male,2020-11-06_16h48.27.461,torte-q,2020.1.3,MacIntel,60,13212,,,,,0,98,98,105,1,,,,,,,,,,,,,,,,,,,,,,,,,,,,,,,,,,,
,,,,,,,,,,,,l,0.802,Incorrect,,,,,,t4.png,t3.png,1,0.90855,20,Male,2020-11-06_16h48.27.461,torte-q,2020.1.3,MacIntel,60,13212,,,,,0,99,99,35,1,,,,,,,,,,,,,,,,,,,,,,,,,,,,,,,,,,,
,,,,,,,,,,,,l,0.703,Incorrect,,,,,,t1.png,t3.png,2,0.056466,20,Male,2020-11-06_16h48.27.461,torte-q,2020.1.3,MacIntel,60,13212,,,,,0,100,100,63,1,,,,,,,,,,,,,,,,,,,,,,,,,,,,,,,,,,,
,,,,,,,,,,,,l,0.633,Correct!,,,,,,t4.png,t1.png,3,0.0000131,20,Male,2020-11-06_16h48.27.461,torte-q,2020.1.3,MacIntel,60,13212,,,,,0,101,101,61,1,,,,,,,,,,,,,,,,,,,,,,,,,,,,,,,,,,,
,,,,,,,,,,,,a,1.2,Incorrect,,,,,,t4.png,t5.png,1,0.90025,20,Male,2020-11-06_16h48.27.461,torte-q,2020.1.3,MacIntel,60,13212,,,,,0,102,102,47,1,,,,,,,,,,,,,,,,,,,,,,,,,,,,,,,,,,,
,,,,,,,,,,,,l,0.801,Incorrect,,,,,,t2.png,t1.png,1,0.90025,20,Male,2020-11-06_16h48.27.461,torte-q,2020.1.3,MacIntel,60,13212,,,,,0,103,103,5,1,,,,,,,,,,,,,,,,,,,,,,,,,,,,,,,,,,,
,,,,,,,,,,,,a,0.703,Incorrect,,,,,,t2.png,t5.png,3,0.0000131,20,Male,2020-11-06_16h48.27.461,torte-q,2020.1.3,MacIntel,60,13212,,,,,0,104,104,40,1,,,,,,,,,,,,,,,,,,,,,,,,,,,,,,,,,,,
,,,,,,,,,,,,l,0.835,Incorrect,,,,,,t4.png,t3.png,1,0.90855,20,Male,2020-11-06_16h48.27.461,torte-q,2020.1.3,MacIntel,60,13212,,,,,0,105,105,75,1,,,,,,,,,,,,,,,,,,,,,,,,,,,,,,,,,,,
,,,,,,,,,,,,l,0.719,Correct!,,,,,,t5.png,t2.png,3,0.0000131,20,Male,2020-11-06_16h48.27.461,torte-q,2020.1.3,MacIntel,60,13212,,,,,0,106,106,51,1,,,,,,,,,,,,,,,,,,,,,,,,,,,,,,,,,,,
,,,,,,,,,,,,a,1.32,Incorrect,,,,,,t4.png,t4.png,0,0.98115,20,Male,2020-11-06_16h48.27.461,torte-q,2020.1.3,MacIntel,60,13212,,,,,0,107,107,90,1,,,,,,,,,,,,,,,,,,,,,,,,,,,,,,,,,,,
,,,,,,,,,,,,l,0.918,Incorrect,,,,,,t5.png,t4.png,1,0.9,20,Male,2020-11-06_16h48.27.461,torte-q,2020.1.3,MacIntel,60,13212,,,,,0,108,108,49,1,,,,,,,,,,,,,,,,,,,,,,,,,,,,,,,,,,,
,,,,,,,,,,,,l,0.92,Incorrect,,,,,,t4.png,t3.png,1,0.90855,20,Male,2020-11-06_16h48.27.461,torte-q,2020.1.3,MacIntel,60,13212,,,,,0,109,109,45,1,,,,,,,,,,,,,,,,,,,,,,,,,,,,,,,,,,,
,,,,,,,,,,,,l,0.668,Correct!,,,,,,t5.png,t1.png,4,9.55E-11,20,Male,2020-11-06_16h48.27.461,torte-q,2020.1.3,MacIntel,60,13212,,,,,0,110,110,71,1,,,,,,,,,,,,,,,,,,,,,,,,,,,,,,,,,,,
,,,,,,,,,,,,l,0.785,Correct!,,,,,,t4.png,t1.png,3,0.0000131,20,Male,2020-11-06_16h48.27.461,torte-q,2020.1.3,MacIntel,60,13212,,,,,0,111,111,93,1,,,,,,,,,,,,,,,,,,,,,,,,,,,,,,,,,,,
,,,,,,,,,,,,l,0.553,Correct!,,,,,,t3.png,t1.png,2,0.056466,20,Male,2020-11-06_16h48.27.461,torte-q,2020.1.3,MacIntel,60,13212,,,,,0,112,112,29,1,,,,,,,,,,,,,,,,,,,,,,,,,,,,,,,,,,,
,,,,,,,,,,,,l,0.852,Incorrect,,,,,,t2.png,t3.png,1,0.90855,20,Male,2020-11-06_16h48.27.461,torte-q,2020.1.3,MacIntel,60,13212,,,,,0,113,113,65,1,,,,,,,,,,,,,,,,,,,,,,,,,,,,,,,,,,,
,,,,,,,,,,,,a,1.018,Correct!,,,,,,t1.png,t1.png,0,0.97829,20,Male,2020-11-06_16h48.27.461,torte-q,2020.1.3,MacIntel,60,13212,,,,,0,114,114,67,1,,,,,,,,,,,,,,,,,,,,,,,,,,,,,,,,,,,
,,,,,,,,,,,,a,0.419,Incorrect,,,,,,t1.png,t4.png,3,0.0000131,20,Male,2020-11-06_16h48.27.461,torte-q,2020.1.3,MacIntel,60,13212,,,,,0,115,115,107,1,,,,,,,,,,,,,,,,,,,,,,,,,,,,,,,,,,,
,,,,,,,,,,,,a,0.621,Incorrect,,,,,,t1.png,t4.png,3,0.0000131,20,Male,2020-11-06_16h48.27.461,torte-q,2020.1.3,MacIntel,60,13212,,,,,0,116,116,81,1,,,,,,,,,,,,,,,,,,,,,,,,,,,,,,,,,,,
,,,,,,,,,,,,a,1.067,Correct!,,,,,,t3.png,t4.png,1,0.90855,20,Male,2020-11-06_16h48.27.461,torte-q,2020.1.3,MacIntel,60,13212,,,,,0,117,117,84,1,,,,,,,,,,,,,,,,,,,,,,,,,,,,,,,,,,,
,,,,,,,,,,,,a,0.701,Correct!,,,,,,t1.png,t2.png,1,0.90025,20,Male,2020-11-06_16h48.27.461,torte-q,2020.1.3,MacIntel,60,13212,,,,,0,118,118,33,1,,,,,,,,,,,,,,,,,,,,,,,,,,,,,,,,,,,
,,,,,,,,,,,,a,0.67,Incorrect,,,,,,t1.png,t5.png,4,9.55E-11,20,Male,2020-11-06_16h48.27.461,torte-q,2020.1.3,MacIntel,60,13212,,,,,0,119,119,55,1,,,,,,,,,,,,,,,,,,,,,,,,,,,,,,,,,,,
,,,,,,,,,,,,a,1.018,Incorrect,,,,,,t1.png,t3.png,2,0.056466,20,Male,2020-11-06_16h48.27.461,torte-q,2020.1.3,MacIntel,60,13212,space,1.445,,,,,,,,space,4.883,c,13.874,0,0,0,99,1,,,,,,,,,,,,,,,,,,,,,,,,,,
,,,,,,,,,,,,l,0.053,Correct!,,,,,,t1.png,t3.png,2,0.056466,20,Male,2020-11-06_16h48.27.461,torte-q,2020.1.3,MacIntel,60,13212,,,,,,,,,,,,,,0,1,1,87,1,,,,,,,,,,,,,,,,,,,,,,,,,,
,,,,,,,,,,,,a,0.817,Correct!,,,,,,t4.png,t3.png,1,0.90855,20,Male,2020-11-06_16h48.27.461,torte-q,2020.1.3,MacIntel,60,13212,,,,,,,,,,,,,,0,2,2,45,1,,,,,,,,,,,,,,,,,,,,,,,,,,
,,,,,,,,,,,,l,0.474,Incorrect,,,,,,t2.png,t2.png,0,0.98115,20,Male,2020-11-06_16h48.27.461,torte-q,2020.1.3,MacIntel,60,13212,,,,,,,,,,,,,,0,3,3,2,1,,,,,,,,,,,,,,,,,,,,,,,,,,
,,,,,,,,,,,,a,0.85,Correct!,,,,,,t1.png,t1.png,0,0.978,20,Male,2020-11-06_16h48.27.461,torte-q,2020.1.3,MacIntel,60,13212,,,,,,,,,,,,,,0,4,4,54,1,,,,,,,,,,,,,,,,,,,,,,,,,,
,,,,,,,,,,,,a,1.5,Incorrect,,,,,,t1.png,t4.png,3,0.0000131,20,Male,2020-11-06_16h48.27.461,torte-q,2020.1.3,MacIntel,60,13212,,,,,,,,,,,,,,0,5,5,17,1,,,,,,,,,,,,,,,,,,,,,,,,,,
,,,,,,,,,,,,l,1.167,Correct!,,,,,,t5.png,t1.png,4,9.55E-11,20,Male,2020-11-06_16h48.27.461,torte-q,2020.1.3,MacIntel,60,13212,,,,,,,,,,,,,,0,6,6,102,1,,,,,,,,,,,,,,,,,,,,,,,,,,
,,,,,,,,,,,,l,0.968,Incorrect,,,,,,t3.png,t2.png,1,0.90855,20,Male,2020-11-06_16h48.27.461,torte-q,2020.1.3,MacIntel,60,13212,,,,,,,,,,,,,,0,7,7,18,1,,,,,,,,,,,,,,,,,,,,,,,,,,
,,,,,,,,,,,,a,0.785,Incorrect,,,,,,t3.png,t4.png,1,0.90855,20,Male,2020-11-06_16h48.27.461,torte-q,2020.1.3,MacIntel,60,13212,,,,,,,,,,,,,,0,8,8,96,1,,,,,,,,,,,,,,,,,,,,,,,,,,
,,,,,,,,,,,,a,0.719,Incorrect,,,,,,t1.png,t3.png,2,0.056466,20,Male,2020-11-06_16h48.27.461,torte-q,2020.1.3,MacIntel,60,13212,,,,,,,,,,,,,,0,9,9,63,1,,,,,,,,,,,,,,,,,,,,,,,,,,
,,,,,,,,,,,,l,0.436,Incorrect,,,,,,t2.png,t3.png,1,0.90855,20,Male,2020-11-06_16h48.27.461,torte-q,2020.1.3,MacIntel,60,13212,,,,,,,,,,,,,,0,10,10,10,1,,,,,,,,,,,,,,,,,,,,,,,,,,
,,,,,,,,,,,,a,1.836,Incorrect,,,,,,t5.png,t1.png,4,9.55E-11,20,Male,2020-11-06_16h48.27.461,torte-q,2020.1.3,MacIntel,60,13212,,,,,,,,,,,,,,0,11,11,100,1,,,,,,,,,,,,,,,,,,,,,,,,,,
,,,,,,,,,,,,a,1.469,Incorrect,,,,,,t1.png,t3.png,2,0.056466,20,Male,2020-11-06_16h48.27.461,torte-q,2020.1.3,MacIntel,60,13212,,,,,,,,,,,,,,0,12,12,69,1,,,,,,,,,,,,,,,,,,,,,,,,,,
,,,,,,,,,,,,a,1.852,Incorrect,,,,,,t3.png,t5.png,2,0.056466,20,Male,2020-11-06_16h48.27.461,torte-q,2020.1.3,MacIntel,60,13212,,,,,,,,,,,,,,0,13,13,14,1,,,,,,,,,,,,,,,,,,,,,,,,,,
,,,,,,,,,,,,l,2.087,Incorrect,,,,,,t5.png,t4.png,1,0.90025,20,Male,2020-11-06_16h48.27.461,torte-q,2020.1.3,MacIntel,60,13212,,,,,,,,,,,,,,0,14,14,27,1,,,,,,,,,,,,,,,,,,,,,,,,,,
,,,,,,,,,,,,l,0.967,Correct!,,,,,,t4.png,t2.png,2,0.059078,20,Male,2020-11-06_16h48.27.461,torte-q,2020.1.3,MacIntel,60,13212,,,,,,,,,,,,,,0,15,15,110,1,,,,,,,,,,,,,,,,,,,,,,,,,,
,,,,,,,,,,,,l,0.95,Incorrect,,,,,,t2.png,t2.png,0,0.98115,20,Male,2020-11-06_16h48.27.461,torte-q,2020.1.3,MacIntel,60,13212,,,,,,,,,,,,,,0,16,16,7,1,,,,,,,,,,,,,,,,,,,,,,,,,,
,,,,,,,,,,,,,,Too slow :(,,,,,,t5.png,t5.png,0,0.97829,20,Male,2020-11-06_16h48.27.461,torte-q,2020.1.3,MacIntel,60,13212,,,,,,,,,,,,,,0,17,17,73,1,,,,,,,,,,,,,,,,,,,,,,,,,,
,,,,,,,,,,,,l,0.936,Incorrect,,,,,,t3.png,t2.png,1,0.909,20,Male,2020-11-06_16h48.27.461,torte-q,2020.1.3,MacIntel,60,13212,,,,,,,,,,,,,,0,18,18,23,1,,,,,,,,,,,,,,,,,,,,,,,,,,
,,,,,,,,,,,,l,1.12,Correct!,,,,,,t2.png,t3.png,1,0.90855,20,Male,2020-11-06_16h48.27.461,torte-q,2020.1.3,MacIntel,60,13212,,,,,,,,,,,,,,0,19,19,65,1,,,,,,,,,,,,,,,,,,,,,,,,,,
,,,,,,,,,,,,a,1.036,Incorrect,,,,,,t4.png,t1.png,3,0.0000131,20,Male,2020-11-06_16h48.27.461,torte-q,2020.1.3,MacIntel,60,13212,,,,,,,,,,,,,,0,20,20,13,1,,,,,,,,,,,,,,,,,,,,,,,,,,
,,,,,,,,,,,,a,0.736,Incorrect,,,,,,t1.png,t3.png,2,0.056466,20,Male,2020-11-06_16h48.27.461,torte-q,2020.1.3,MacIntel,60,13212,,,,,,,,,,,,,,0,21,21,60,1,,,,,,,,,,,,,,,,,,,,,,,,,,
,,,,,,,,,,,,l,0.3,Incorrect,,,,,,t5.png,t5.png,0,0.978,20,Male,2020-11-06_16h48.27.461,torte-q,2020.1.3,MacIntel,60,13212,,,,,,,,,,,,,,0,22,22,117,1,,,,,,,,,,,,,,,,,,,,,,,,,,
,,,,,,,,,,,,a,0.219,Correct!,,,,,,t1.png,t1.png,0,0.97829,20,Male,2020-11-06_16h48.27.461,torte-q,2020.1.3,MacIntel,60,13212,,,,,,,,,,,,,,0,23,23,9,1,,,,,,,,,,,,,,,,,,,,,,,,,,
,,,,,,,,,,,,a,1.302,Incorrect,,,,,,t2.png,t4.png,2,0.059078,20,Male,2020-11-06_16h48.27.461,torte-q,2020.1.3,MacIntel,60,13212,,,,,,,,,,,,,,0,24,24,37,1,,,,,,,,,,,,,,,,,,,,,,,,,,
,,,,,,,,,,,,l,1.568,Correct!,,,,,,t3.png,t1.png,2,0.056466,20,Male,2020-11-06_16h48.27.461,torte-q,2020.1.3,MacIntel,60,13212,,,,,,,,,,,,,,0,25,25,32,1,,,,,,,,,,,,,,,,,,,,,,,,,,
,,,,,,,,,,,,a,1.153,Correct!,,,,,,t4.png,t4.png,0,0.98115,20,Male,2020-11-06_16h48.27.461,torte-q,2020.1.3,MacIntel,60,13212,,,,,,,,,,,,,,0,26,26,52,1,,,,,,,,,,,,,,,,,,,,,,,,,,
,,,,,,,,,,,,a,1.302,Incorrect,,,,,,t2.png,t4.png,2,0.059078,20,Male,2020-11-06_16h48.27.461,torte-q,2020.1.3,MacIntel,60,13212,,,,,,,,,,,,,,0,27,27,24,1,,,,,,,,,,,,,,,,,,,,,,,,,,
,,,,,,,,,,,,l,1.318,Correct!,,,,,,t3.png,t1.png,2,0.056466,20,Male,2020-11-06_16h48.27.461,torte-q,2020.1.3,MacIntel,60,13212,,,,,,,,,,,,,,0,28,28,64,1,,,,,,,,,,,,,,,,,,,,,,,,,,
,,,,,,,,,,,,a,1.435,Correct!,,,,,,t4.png,t3.png,1,0.90855,20,Male,2020-11-06_16h48.27.461,torte-q,2020.1.3,MacIntel,60,13212,,,,,,,,,,,,,,0,29,29,75,1,,,,,,,,,,,,,,,,,,,,,,,,,,
,,,,,,,,,,,,a,1.351,Incorrect,,,,,,t2.png,t5.png,3,0.0000131,20,Male,2020-11-06_16h48.27.461,torte-q,2020.1.3,MacIntel,60,13212,,,,,,,,,,,,,,0,30,30,8,1,,,,,,,,,,,,,,,,,,,,,,,,,,
,,,,,,,,,,,,l,1.266,Incorrect,,,,,,t1.png,t2.png,1,0.9,20,Male,2020-11-06_16h48.27.461,torte-q,2020.1.3,MacIntel,60,13212,,,,,,,,,,,,,,0,31,31,1,1,,,,,,,,,,,,,,,,,,,,,,,,,,
,,,,,,,,,,,,a,1.152,Incorrect,,,,,,t1.png,t5.png,4,9.55E-11,20,Male,2020-11-06_16h48.27.461,torte-q,2020.1.3,MacIntel,60,13212,,,,,,,,,,,,,,0,32,32,41,1,,,,,,,,,,,,,,,,,,,,,,,,,,
,,,,,,,,,,,,a,0.965,Incorrect,,,,,,t3.png,t5.png,2,0.056466,20,Male,2020-11-06_16h48.27.461,torte-q,2020.1.3,MacIntel,60,13212,,,,,,,,,,,,,,0,33,33,6,1,,,,,,,,,,,,,,,,,,,,,,,,,,
,,,,,,,,,,,,a,1.077,Correct!,,,,,,t2.png,t2.png,0,0.981,20,Male,2020-11-06_16h48.27.461,torte-q,2020.1.3,MacIntel,60,13212,,,,,,,,,,,,,,0,34,34,101,1,,,,,,,,,,,,,,,,,,,,,,,,,,
,,,,,,,,,,,,a,1.882,Incorrect,,,,,,t3.png,t1.png,2,0.056466,20,Male,2020-11-06_16h48.27.461,torte-q,2020.1.3,MacIntel,60,13212,,,,,,,,,,,,,,0,35,35,29,1,,,,,,,,,,,,,,,,,,,,,,,,,,
,,,,,,,,,,,,a,0.871,Incorrect,,,,,,t5.png,t1.png,4,9.55E-11,20,Male,2020-11-06_16h48.27.461,torte-q,2020.1.3,MacIntel,60,13212,,,,,,,,,,,,,,0,36,36,43,1,,,,,,,,,,,,,,,,,,,,,,,,,,
,,,,,,,,,,,,a,0.718,Correct!,,,,,,t4.png,t5.png,1,0.90025,20,Male,2020-11-06_16h48.27.461,torte-q,2020.1.3,MacIntel,60,13212,,,,,,,,,,,,,,0,37,37,113,1,,,,,,,,,,,,,,,,,,,,,,,,,,
,,,,,,,,,,,,a,1.3,Correct!,,,,,,t4.png,t4.png,0,0.98115,20,Male,2020-11-06_16h48.27.461,torte-q,2020.1.3,MacIntel,60,13212,,,,,,,,,,,,,,0,38,38,80,1,,,,,,,,,,,,,,,,,,,,,,,,,,
,,,,,,,,,,,,a,1.852,Incorrect,,,,,,t2.png,t4.png,2,0.059078,20,Male,2020-11-06_16h48.27.461,torte-q,2020.1.3,MacIntel,60,13212,,,,,,,,,,,,,,0,39,39,11,1,,,,,,,,,,,,,,,,,,,,,,,,,,
,,,,,,,,,,,,a,1.186,Correct!,,,,,,t4.png,t5.png,1,0.9,20,Male,2020-11-06_16h48.27.461,torte-q,2020.1.3,MacIntel,60,13212,,,,,,,,,,,,,,0,40,40,115,1,,,,,,,,,,,,,,,,,,,,,,,,,,
,,,,,,,,,,,,a,1.455,Correct!,,,,,,t4.png,t4.png,0,0.98115,20,Male,2020-11-06_16h48.27.461,torte-q,2020.1.3,MacIntel,60,13212,,,,,,,,,,,,,,0,41,41,21,1,,,,,,,,,,,,,,,,,,,,,,,,,,
,,,,,,,,,,,,a,0.901,Correct!,,,,,,t1.png,t1.png,0,0.97829,20,Male,2020-11-06_16h48.27.461,torte-q,2020.1.3,MacIntel,60,13212,,,,,,,,,,,,,,0,42,42,78,1,,,,,,,,,,,,,,,,,,,,,,,,,,
,,,,,,,,,,,,l,2.069,Incorrect,,,,,,t3.png,t1.png,2,0.056466,20,Male,2020-11-06_16h48.27.461,torte-q,2020.1.3,MacIntel,60,13212,,,,,,,,,,,,,,0,43,43,0,1,,,,,,,,,,,,,,,,,,,,,,,,,,
,,,,,,,,,,,,a,0.953,Incorrect,,,,,,t2.png,t4.png,2,0.0591,20,Male,2020-11-06_16h48.27.461,torte-q,2020.1.3,MacIntel,60,13212,,,,,,,,,,,,,,0,44,44,15,1,,,,,,,,,,,,,,,,,,,,,,,,,,
,,,,,,,,,,,,l,2.286,Incorrect,,,,,,t5.png,t4.png,1,0.90025,20,Male,2020-11-06_16h48.27.461,torte-q,2020.1.3,MacIntel,60,13212,,,,,,,,,,,,,,0,45,45,34,1,,,,,,,,,,,,,,,,,,,,,,,,,,
,,,,,,,,,,,,l,1.704,Incorrect,,,,,,t4.png,t3.png,1,0.90855,20,Male,2020-11-06_16h48.27.461,torte-q,2020.1.3,MacIntel,60,13212,,,,,,,,,,,,,,0,46,46,35,1,,,,,,,,,,,,,,,,,,,,,,,,,,
,,,,,,,,,,,,l,1.068,Correct!,,,,,,t5.png,t2.png,3,0.0000131,20,Male,2020-11-06_16h48.27.461,torte-q,2020.1.3,MacIntel,60,13212,,,,,,,,,,,,,,0,47,47,116,1,,,,,,,,,,,,,,,,,,,,,,,,,,
,,,,,,,,,,,,l,1.119,Correct!,,,,,,t5.png,t1.png,4,9.55E-11,20,Male,2020-11-06_16h48.27.461,torte-q,2020.1.3,MacIntel,60,13212,,,,,,,,,,,,,,0,48,48,22,1,,,,,,,,,,,,,,,,,,,,,,,,,,
,,,,,,,,,,,,l,1.418,Correct!,,,,,,t5.png,t3.png,2,0.056466,20,Male,2020-11-06_16h48.27.461,torte-q,2020.1.3,MacIntel,60,13212,,,,,,,,,,,,,,0,49,49,114,1,,,,,,,,,,,,,,,,,,,,,,,,,,
,,,,,,,,,,,,l,0.833,Incorrect,,,,,,t2.png,t3.png,1,0.90855,20,Male,2020-11-06_16h48.27.461,torte-q,2020.1.3,MacIntel,60,13212,,,,,,,,,,,,,,0,50,50,111,1,,,,,,,,,,,,,,,,,,,,,,,,,,
,,,,,,,,,,,,a,1.156,Correct!,,,,,,t4.png,t4.png,0,0.98115,20,Male,2020-11-06_16h48.27.461,torte-q,2020.1.3,MacIntel,60,13212,,,,,,,,,,,,,,0,51,51,79,1,,,,,,,,,,,,,,,,,,,,,,,,,,
,,,,,,,,,,,,a,1.252,Incorrect,,,,,,t1.png,t4.png,3,0.0000131,20,Male,2020-11-06_16h48.27.461,torte-q,2020.1.3,MacIntel,60,13212,,,,,,,,,,,,,,0,52,52,81,1,,,,,,,,,,,,,,,,,,,,,,,,,,
,,,,,,,,,,,,a,1.218,Correct!,,,,,,t5.png,t5.png,0,0.97829,20,Male,2020-11-06_16h48.27.461,torte-q,2020.1.3,MacIntel,60,13212,,,,,,,,,,,,,,0,53,53,25,1,,,,,,,,,,,,,,,,,,,,,,,,,,
,,,,,,,,,,,,a,1.034,Incorrect,,,,,,t3.png,t5.png,2,0.056466,20,Male,2020-11-06_16h48.27.461,torte-q,2020.1.3,MacIntel,60,13212,,,,,,,,,,,,,,0,54,54,44,1,,,,,,,,,,,,,,,,,,,,,,,,,,
,,,,,,,,,,,,l,1.432,Correct!,,,,,,t5.png,t2.png,3,0.0000131,20,Male,2020-11-06_16h48.27.461,torte-q,2020.1.3,MacIntel,60,13212,,,,,,,,,,,,,,0,55,55,91,1,,,,,,,,,,,,,,,,,,,,,,,,,,
,,,,,,,,,,,,l,1.601,Incorrect,,,,,,t3.png,t2.png,1,0.909,20,Male,2020-11-06_16h48.27.461,torte-q,2020.1.3,MacIntel,60,13212,,,,,,,,,,,,,,0,56,56,3,1,,,,,,,,,,,,,,,,,,,,,,,,,,
,,,,,,,,,,,,l,1.452,Correct!,,,,,,t3.png,t1.png,2,0.0565,20,Male,2020-11-06_16h48.27.461,torte-q,2020.1.3,MacIntel,60,13212,,,,,,,,,,,,,,0,57,57,31,1,,,,,,,,,,,,,,,,,,,,,,,,,,
,,,,,,,,,,,,l,0.935,Correct!,,,,,,t5.png,t2.png,3,0.0000131,20,Male,2020-11-06_16h48.27.461,torte-q,2020.1.3,MacIntel,60,13212,,,,,,,,,,,,,,0,58,58,51,1,,,,,,,,,,,,,,,,,,,,,,,,,,
,,,,,,,,,,,,l,1.034,Incorrect,,,,,,t2.png,t1.png,1,0.90025,20,Male,2020-11-06_16h48.27.461,torte-q,2020.1.3,MacIntel,60,13212,,,,,,,,,,,,,,0,59,59,19,1,,,,,,,,,,,,,,,,,,,,,,,,,,
,,,,,,,,,,,,l,1.684,Correct!,,,,,,t5.png,t3.png,2,0.056466,20,Male,2020-11-06_16h48.27.461,torte-q,2020.1.3,MacIntel,60,13212,,,,,,,,,,,,,,0,60,60,56,1,,,,,,,,,,,,,,,,,,,,,,,,,,
,,,,,,,,,,,,a,1.021,Incorrect,,,,,,t3.png,t5.png,2,0.0565,20,Male,2020-11-06_16h48.27.461,torte-q,2020.1.3,MacIntel,60,13212,,,,,,,,,,,,,,0,61,61,83,1,,,,,,,,,,,,,,,,,,,,,,,,,,
,,,,,,,,,,,,l,0.749,Correct!,,,,,,t4.png,t1.png,3,0.0000131,20,Male,2020-11-06_16h48.27.461,torte-q,2020.1.3,MacIntel,60,13212,,,,,,,,,,,,,,0,62,62,61,1,,,,,,,,,,,,,,,,,,,,,,,,,,
,,,,,,,,,,,,l,0.852,Incorrect,,,,,,t3.png,t2.png,1,0.90855,20,Male,2020-11-06_16h48.27.461,torte-q,2020.1.3,MacIntel,60,13212,,,,,,,,,,,,,,0,63,63,53,1,,,,,,,,,,,,,,,,,,,,,,,,,,
,,,,,,,,,,,,a,0.904,Correct!,,,,,,t3.png,t4.png,1,0.909,20,Male,2020-11-06_16h48.27.461,torte-q,2020.1.3,MacIntel,60,13212,,,,,,,,,,,,,,0,64,64,106,1,,,,,,,,,,,,,,,,,,,,,,,,,,
,,,,,,,,,,,,l,0.85,Correct!,,,,,,t4.png,t1.png,3,0.0000131,20,Male,2020-11-06_16h48.27.461,torte-q,2020.1.3,MacIntel,60,13212,,,,,,,,,,,,,,0,65,65,42,1,,,,,,,,,,,,,,,,,,,,,,,,,,
,,,,,,,,,,,,a,1.27,Incorrect,,,,,,t1.png,t5.png,4,9.55E-11,20,Male,2020-11-06_16h48.27.461,torte-q,2020.1.3,MacIntel,60,13212,,,,,,,,,,,,,,0,66,66,85,1,,,,,,,,,,,,,,,,,,,,,,,,,,
,,,,,,,,,,,,l,0.733,Incorrect,,,,,,t5.png,t4.png,1,0.9,20,Male,2020-11-06_16h48.27.461,torte-q,2020.1.3,MacIntel,60,13212,,,,,,,,,,,,,,0,67,67,49,1,,,,,,,,,,,,,,,,,,,,,,,,,,
,,,,,,,,,,,,a,0.671,Incorrect,,,,,,t3.png,t5.png,2,0.0565,20,Male,2020-11-06_16h48.27.461,torte-q,2020.1.3,MacIntel,60,13212,,,,,,,,,,,,,,0,68,68,30,1,,,,,,,,,,,,,,,,,,,,,,,,,,
,,,,,,,,,,,,a,0.701,Incorrect,,,,,,t1.png,t4.png,3,0.0000131,20,Male,2020-11-06_16h48.27.461,torte-q,2020.1.3,MacIntel,60,13212,,,,,,,,,,,,,,0,69,69,107,1,,,,,,,,,,,,,,,,,,,,,,,,,,
,,,,,,,,,,,,a,0.801,Incorrect,,,,,,t1.png,t5.png,4,9.55E-11,20,Male,2020-11-06_16h48.27.461,torte-q,2020.1.3,MacIntel,60,13212,,,,,,,,,,,,,,0,70,70,16,1,,,,,,,,,,,,,,,,,,,,,,,,,,
,,,,,,,,,,,,l,1.385,Incorrect,,,,,,t5.png,t4.png,1,0.90025,20,Male,2020-11-06_16h48.27.461,torte-q,2020.1.3,MacIntel,60,13212,,,,,,,,,,,,,,0,71,71,26,1,,,,,,,,,,,,,,,,,,,,,,,,,,
,,,,,,,,,,,,l,1.6,Incorrect,,,,,,t1.png,t2.png,1,0.90025,20,Male,2020-11-06_16h48.27.461,torte-q,2020.1.3,MacIntel,60,13212,,,,,,,,,,,,,,0,72,72,112,1,,,,,,,,,,,,,,,,,,,,,,,,,,
,,,,,,,,,,,,a,1.197,Correct!,,,,,,t3.png,t4.png,1,0.909,20,Male,2020-11-06_16h48.27.461,torte-q,2020.1.3,MacIntel,60,13212,,,,,,,,,,,,,,0,73,73,82,1,,,,,,,,,,,,,,,,,,,,,,,,,,
,,,,,,,,,,,,l,0.733,Correct!,,,,,,t5.png,t2.png,3,0.0000131,20,Male,2020-11-06_16h48.27.461,torte-q,2020.1.3,MacIntel,60,13212,,,,,,,,,,,,,,0,74,74,98,1,,,,,,,,,,,,,,,,,,,,,,,,,,
,,,,,,,,,,,,a,1.402,Correct!,,,,,,t1.png,t2.png,1,0.90025,20,Male,2020-11-06_16h48.27.461,torte-q,2020.1.3,MacIntel,60,13212,,,,,,,,,,,,,,0,75,75,33,1,,,,,,,,,,,,,,,,,,,,,,,,,,
,,,,,,,,,,,,l,1.638,Correct!,,,,,,t4.png,t1.png,3,0.0000131,20,Male,2020-11-06_16h48.27.461,torte-q,2020.1.3,MacIntel,60,13212,,,,,,,,,,,,,,0,76,76,48,1,,,,,,,,,,,,,,,,,,,,,,,,,,
,,,,,,,,,,,,l,1.071,Incorrect,,,,,,t2.png,t1.png,1,0.90025,20,Male,2020-11-06_16h48.27.461,torte-q,2020.1.3,MacIntel,60,13212,,,,,,,,,,,,,,0,77,77,4,1,,,,,,,,,,,,,,,,,,,,,,,,,,
,,,,,,,,,,,,l,2.119,Incorrect,,,,,,t4.png,t4.png,0,0.98115,20,Male,2020-11-06_16h48.27.461,torte-q,2020.1.3,MacIntel,60,13212,,,,,,,,,,,,,,0,78,78,90,1,,,,,,,,,,,,,,,,,,,,,,,,,,
,,,,,,,,,,,,a,2.102,Correct!,,,,,,t5.png,t5.png,0,0.97829,20,Male,2020-11-06_16h48.27.461,torte-q,2020.1.3,MacIntel,60,13212,,,,,,,,,,,,,,0,79,79,70,1,,,,,,,,,,,,,,,,,,,,,,,,,,
,,,,,,,,,,,,l,0.92,Correct!,,,,,,t4.png,t2.png,2,0.059078,20,Male,2020-11-06_16h48.27.461,torte-q,2020.1.3,MacIntel,60,13212,,,,,,,,,,,,,,0,80,80,88,1,,,,,,,,,,,,,,,,,,,,,,,,,,
,,,,,,,,,,,,a,1.635,Incorrect,,,,,,t4.png,t5.png,1,0.90025,20,Male,2020-11-06_16h48.27.461,torte-q,2020.1.3,MacIntel,60,13212,,,,,,,,,,,,,,0,81,81,47,1,,,,,,,,,,,,,,,,,,,,,,,,,,
,,,,,,,,,,,,a,0.889,Correct!,,,,,,t1.png,t1.png,0,0.978,20,Male,2020-11-06_16h48.27.461,torte-q,2020.1.3,MacIntel,60,13212,,,,,,,,,,,,,,0,82,82,28,1,,,,,,,,,,,,,,,,,,,,,,,,,,
,,,,,,,,,,,,a,1.236,Incorrect,,,,,,t2.png,t5.png,3,0.0000131,20,Male,2020-11-06_16h48.27.461,torte-q,2020.1.3,MacIntel,60,13212,,,,,,,,,,,,,,0,83,83,66,1,,,,,,,,,,,,,,,,,,,,,,,,,,
,,,,,,,,,,,,a,1.036,Correct!,,,,,,t1.png,t2.png,1,0.90025,20,Male,2020-11-06_16h48.27.461,torte-q,2020.1.3,MacIntel,60,13212,,,,,,,,,,,,,,0,84,84,105,1,,,,,,,,,,,,,,,,,,,,,,,,,,
,,,,,,,,,,,,l,1.15,Correct!,,,,,,t5.png,t1.png,4,9.55E-11,20,Male,2020-11-06_16h48.27.461,torte-q,2020.1.3,MacIntel,60,13212,,,,,,,,,,,,,,0,85,85,71,1,,,,,,,,,,,,,,,,,,,,,,,,,,
,,,,,,,,,,,,l,1.42,Correct!,,,,,,t5.png,t3.png,2,0.0565,20,Male,2020-11-06_16h48.27.461,torte-q,2020.1.3,MacIntel,60,13212,,,,,,,,,,,,,,0,86,86,39,1,,,,,,,,,,,,,,,,,,,,,,,,,,
,,,,,,,,,,,,l,1.103,Correct!,,,,,,t4.png,t2.png,2,0.059078,20,Male,2020-11-06_16h48.27.461,torte-q,2020.1.3,MacIntel,60,13212,,,,,,,,,,,,,,0,87,87,86,1,,,,,,,,,,,,,,,,,,,,,,,,,,
,,,,,,,,,,,,a,2.218,Incorrect,,,,,,t1.png,t5.png,4,9.55E-11,20,Male,2020-11-06_16h48.27.461,torte-q,2020.1.3,MacIntel,60,13212,,,,,,,,,,,,,,0,88,88,12,1,,,,,,,,,,,,,,,,,,,,,,,,,,
,,,,,,,,,,,,a,1.122,Correct!,,,,,,t2.png,t3.png,1,0.90855,20,Male,2020-11-06_16h48.27.461,torte-q,2020.1.3,MacIntel,60,13212,,,,,,,,,,,,,,0,89,89,68,1,,,,,,,,,,,,,,,,,,,,,,,,,,
,,,,,,,,,,,,a,1.137,Incorrect,,,,,,t2.png,t5.png,3,0.0000131,20,Male,2020-11-06_16h48.27.461,torte-q,2020.1.3,MacIntel,60,13212,,,,,,,,,,,,,,0,90,90,40,1,,,,,,,,,,,,,,,,,,,,,,,,,,
,,,,,,,,,,,,a,0.987,Incorrect,,,,,,t2.png,t5.png,3,0.0000131,20,Male,2020-11-06_16h48.27.461,torte-q,2020.1.3,MacIntel,60,13212,,,,,,,,,,,,,,0,91,91,104,1,,,,,,,,,,,,,,,,,,,,,,,,,,
,,,,,,,,,,,,a,0.838,Incorrect,,,,,,t2.png,t4.png,2,0.059078,20,Male,2020-11-06_16h48.27.461,torte-q,2020.1.3,MacIntel,60,13212,,,,,,,,,,,,,,0,92,92,77,1,,,,,,,,,,,,,,,,,,,,,,,,,,
,,,,,,,,,,,,a,1.402,Correct!,,,,,,t4.png,t5.png,1,0.90025,20,Male,2020-11-06_16h48.27.461,torte-q,2020.1.3,MacIntel,60,13212,,,,,,,,,,,,,,0,93,93,103,1,,,,,,,,,,,,,,,,,,,,,,,,,,
,,,,,,,,,,,,l,1.285,Correct!,,,,,,t4.png,t1.png,3,0.0000131,20,Male,2020-11-06_16h48.27.461,torte-q,2020.1.3,MacIntel,60,13212,,,,,,,,,,,,,,0,94,94,93,1,,,,,,,,,,,,,,,,,,,,,,,,,,
,,,,,,,,,,,,l,0.935,Correct!,,,,,,t5.png,t2.png,3,0.0000131,20,Male,2020-11-06_16h48.27.461,torte-q,2020.1.3,MacIntel,60,13212,,,,,,,,,,,,,,0,95,95,119,1,,,,,,,,,,,,,,,,,,,,,,,,,,
,,,,,,,,,,,,a,2.321,Correct!,,,,,,t5.png,t5.png,0,0.97829,20,Male,2020-11-06_16h48.27.461,torte-q,2020.1.3,MacIntel,60,13212,,,,,,,,,,,,,,0,96,96,94,1,,,,,,,,,,,,,,,,,,,,,,,,,,
,,,,,,,,,,,,a,0.768,Correct!,,,,,,t2.png,t2.png,0,0.98115,20,Male,2020-11-06_16h48.27.461,torte-q,2020.1.3,MacIntel,60,13212,,,,,,,,,,,,,,0,97,97,57,1,,,,,,,,,,,,,,,,,,,,,,,,,,
,,,,,,,,,,,,l,1.334,Correct!,,,,,,t5.png,t3.png,2,0.056466,20,Male,2020-11-06_16h48.27.461,torte-q,2020.1.3,MacIntel,60,13212,,,,,,,,,,,,,,0,98,98,108,1,,,,,,,,,,,,,,,,,,,,,,,,,,
,,,,,,,,,,,,a,1.474,Incorrect,,,,,,t2.png,t5.png,3,0.0000131,20,Male,2020-11-06_16h48.27.461,torte-q,2020.1.3,MacIntel,60,13212,,,,,,,,,,,,,,0,99,99,95,1,,,,,,,,,,,,,,,,,,,,,,,,,,
,,,,,,,,,,,,a,1.4,Correct!,,,,,,t2.png,t2.png,0,0.98115,20,Male,2020-11-06_16h48.27.461,torte-q,2020.1.3,MacIntel,60,13212,,,,,,,,,,,,,,0,100,100,59,1,,,,,,,,,,,,,,,,,,,,,,,,,,
,,,,,,,,,,,,a,0.62,Incorrect,,,,,,t1.png,t5.png,4,9.55E-11,20,Male,2020-11-06_16h48.27.461,torte-q,2020.1.3,MacIntel,60,13212,,,,,,,,,,,,,,0,101,101,55,1,,,,,,,,,,,,,,,,,,,,,,,,,,
,,,,,,,,,,,,a,1.537,Correct!,,,,,,t3.png,t4.png,1,0.90855,20,Male,2020-11-06_16h48.27.461,torte-q,2020.1.3,MacIntel,60,13212,,,,,,,,,,,,,,0,102,102,84,1,,,,,,,,,,,,,,,,,,,,,,,,,,
,,,,,,,,,,,,l,0.953,Correct!,,,,,,t4.png,t2.png,2,0.059078,20,Male,2020-11-06_16h48.27.461,torte-q,2020.1.3,MacIntel,60,13212,,,,,,,,,,,,,,0,103,103,109,1,,,,,,,,,,,,,,,,,,,,,,,,,,
,,,,,,,,,,,,l,1.786,Incorrect,,,,,,t4.png,t3.png,1,0.909,20,Male,2020-11-06_16h48.27.461,torte-q,2020.1.3,MacIntel,60,13212,,,,,,,,,,,,,,0,104,104,46,1,,,,,,,,,,,,,,,,,,,,,,,,,,
,,,,,,,,,,,,l,0.902,Incorrect,,,,,,t3.png,t2.png,1,0.90855,20,Male,2020-11-06_16h48.27.461,torte-q,2020.1.3,MacIntel,60,13212,,,,,,,,,,,,,,0,105,105,97,1,,,,,,,,,,,,,,,,,,,,,,,,,,
,,,,,,,,,,,,a,0.602,Incorrect,,,,,,t1.png,t4.png,3,0.0000131,20,Male,2020-11-06_16h48.27.461,torte-q,2020.1.3,MacIntel,60,13212,,,,,,,,,,,,,,0,106,106,92,1,,,,,,,,,,,,,,,,,,,,,,,,,,
,,,,,,,,,,,,a,0.721,Correct!,,,,,,t3.png,t4.png,1,0.909,20,Male,2020-11-06_16h48.27.461,torte-q,2020.1.3,MacIntel,60,13212,,,,,,,,,,,,,,0,107,107,89,1,,,,,,,,,,,,,,,,,,,,,,,,,,
,,,,,,,,,,,,l,1.385,Incorrect,,,,,,t5.png,t4.png,1,0.9,20,Male,2020-11-06_16h48.27.461,torte-q,2020.1.3,MacIntel,60,13212,,,,,,,,,,,,,,0,108,108,76,1,,,,,,,,,,,,,,,,,,,,,,,,,,
,,,,,,,,,,,,l,0.918,Incorrect,,,,,,t2.png,t1.png,1,0.90025,20,Male,2020-11-06_16h48.27.461,torte-q,2020.1.3,MacIntel,60,13212,,,,,,,,,,,,,,0,109,109,62,1,,,,,,,,,,,,,,,,,,,,,,,,,,
,,,,,,,,,,,,a,1.604,Correct!,,,,,,t1.png,t2.png,1,0.90025,20,Male,2020-11-06_16h48.27.461,torte-q,2020.1.3,MacIntel,60,13212,,,,,,,,,,,,,,0,110,110,72,1,,,,,,,,,,,,,,,,,,,,,,,,,,
,,,,,,,,,,,,a,0.318,Incorrect,,,,,,t5.png,t3.png,2,0.056466,20,Male,2020-11-06_16h48.27.461,torte-q,2020.1.3,MacIntel,60,13212,,,,,,,,,,,,,,0,111,111,38,1,,,,,,,,,,,,,,,,,,,,,,,,,,
,,,,,,,,,,,,l,0.134,Incorrect,,,,,,t2.png,t3.png,1,0.909,20,Male,2020-11-06_16h48.27.461,torte-q,2020.1.3,MacIntel,60,13212,,,,,,,,,,,,,,0,112,112,74,1,,,,,,,,,,,,,,,,,,,,,,,,,,
,,,,,,,,,,,,l,0.852,Incorrect,,,,,,t1.png,t1.png,0,0.97829,20,Male,2020-11-06_16h48.27.461,torte-q,2020.1.3,MacIntel,60,13212,,,,,,,,,,,,,,0,113,113,67,1,,,,,,,,,,,,,,,,,,,,,,,,,,
,,,,,,,,,,,,a,0.653,Incorrect,,,,,,t4.png,t2.png,2,0.0591,20,Male,2020-11-06_16h48.27.461,torte-q,2020.1.3,MacIntel,60,13212,,,,,,,,,,,,,,0,114,114,36,1,,,,,,,,,,,,,,,,,,,,,,,,,,
,,,,,,,,,,,,l,0.67,Incorrect,,,,,,t4.png,t3.png,1,0.909,20,Male,2020-11-06_16h48.27.461,torte-q,2020.1.3,MacIntel,60,13212,,,,,,,,,,,,,,0,115,115,20,1,,,,,,,,,,,,,,,,,,,,,,,,,,
,,,,,,,,,,,,a,0.704,Correct!,,,,,,t4.png,t5.png,1,0.90025,20,Male,2020-11-06_16h48.27.461,torte-q,2020.1.3,MacIntel,60,13212,,,,,,,,,,,,,,0,116,116,58,1,,,,,,,,,,,,,,,,,,,,,,,,,,
,,,,,,,,,,,,l,0.819,Correct!,,,,,,t2.png,t1.png,1,0.90025,20,Male,2020-11-06_16h48.27.461,torte-q,2020.1.3,MacIntel,60,13212,,,,,,,,,,,,,,0,117,117,5,1,,,,,,,,,,,,,,,,,,,,,,,,,,
,,,,,,,,,,,,a,0.685,Incorrect,,,,,,t1.png,t4.png,3,0.0000131,20,Male,2020-11-06_16h48.27.461,torte-q,2020.1.3,MacIntel,60,13212,,,,,,,,,,,,,,0,118,118,50,1,,,,,,,,,,,,,,,,,,,,,,,,,,
,,,,,,,,,,,,l,0.92,Incorrect,,,,,,t2.png,t1.png,1,0.9,20,Male,2020-11-06_16h48.27.461,torte-q,2020.1.3,MacIntel,60,13212,,,,,,,,,,,,,,0,119,119,118,1,,,,,,,,,,,,,,,,,,,,,,,,,,
,,,,,,,,,,,,,,,,,,,,,,,,20,Male,2020-11-06_16h48.27.461,torte-q,2020.1.3,MacIntel,60,13212,lcontrol,0.651,,,,,,,,,,,,,,,,,3.025,3.53,-127,174,1,0,0,s1,7,-99,1,0,0,t4,162,-106,1,0,0,proceed,space,6.384,space,0.564,space,0.403
