key_resp_8.keys,key_resp_8.rt,key_resp_9.keys,key_resp_9.rt,key_resp_10.keys,key_resp_10.rt,key_resp_11.keys,key_resp_11.rt,key_resp_2.keys,key_resp_2.rt,key_resp_3.keys,key_resp_3.rt,key_resp.keys,key_resp.rt,Feedback,train.thisRepN,train.thisTrialN,train.thisN,train.thisIndex,train.ran,torta_sx,torta_dx,difference,probability,age,gender,date,expName,psychopyVersion,OS,frameRate,participant,key_resp_15.keys,key_resp_15.rt,key_resp_6.keys,key_resp_6.rt,test1.thisRepN,test1.thisTrialN,test1.thisN,test1.thisIndex,test1.ran,key_resp_16.keys,key_resp_16.rt,key_resp_7.keys,key_resp_7.rt,test2.thisRepN,test2.thisTrialN,test2.thisN,test2.thisIndex,test2.ran,rating.response,rating.rt,mouse.x,mouse.y,mouse.leftButton,mouse.midButton,mouse.rightButton,mouse.clicked_name,mouse_2.x,mouse_2.y,mouse_2.leftButton,mouse_2.midButton,mouse_2.rightButton,mouse_2.clicked_name,mouse_3.x,mouse_3.y,mouse_3.leftButton,mouse_3.midButton,mouse_3.rightButton,mouse_3.clicked_name,key_resp_12.keys,key_resp_12.rt,key_resp_13.keys,key_resp_13.rt,key_resp_14.keys,key_resp_14.rt
space,19.204515,space,4.146705,space,2.33205,space,4.885285,space,20.39032,space,30.873035,a,1.147155,Incorrect,0,0,0,12,1,t5.png,t1.png,4,9.55E-11,19,Female,2020-10-20_12h57.14.501,torte-q,2020.1.3,Win32,60,13228,,,,,,,,,,,,,,,,,,,,,,,,,,,,,,,,,,,,,,,,,,,,
,,,,,,,,,,,,a,1.54127,Correct!,0,1,1,42,1,t5.png,t4.png,1,0.90025,19,Female,2020-10-20_12h57.14.501,torte-q,2020.1.3,Win32,60,13228,,,,,,,,,,,,,,,,,,,,,,,,,,,,,,,,,,,,,,,,,,,,
,,,,,,,,,,,,l,1.203085,Incorrect,0,2,2,8,1,t3.png,t2.png,1,0.90855,19,Female,2020-10-20_12h57.14.501,torte-q,2020.1.3,Win32,60,13228,,,,,,,,,,,,,,,,,,,,,,,,,,,,,,,,,,,,,,,,,,,,
,,,,,,,,,,,,l,1.56835,Correct!,0,3,3,83,1,t3.png,t1.png,2,0.056466,19,Female,2020-10-20_12h57.14.501,torte-q,2020.1.3,Win32,60,13228,,,,,,,,,,,,,,,,,,,,,,,,,,,,,,,,,,,,,,,,,,,,
,,,,,,,,,,,,a,1.250175,Correct!,0,4,4,59,1,t5.png,t4.png,1,0.9,19,Female,2020-10-20_12h57.14.501,torte-q,2020.1.3,Win32,60,13228,,,,,,,,,,,,,,,,,,,,,,,,,,,,,,,,,,,,,,,,,,,,
,,,,,,,,,,,,l,0.391675,Incorrect,0,5,5,65,1,t4.png,t5.png,1,0.90025,19,Female,2020-10-20_12h57.14.501,torte-q,2020.1.3,Win32,60,13228,,,,,,,,,,,,,,,,,,,,,,,,,,,,,,,,,,,,,,,,,,,,
,,,,,,,,,,,,l,0.25473,Incorrect,0,6,6,76,1,t3.png,t2.png,1,0.90855,19,Female,2020-10-20_12h57.14.501,torte-q,2020.1.3,Win32,60,13228,,,,,,,,,,,,,,,,,,,,,,,,,,,,,,,,,,,,,,,,,,,,
,,,,,,,,,,,,a,1.1695,Incorrect,0,7,7,19,1,t4.png,t2.png,2,0.059078,19,Female,2020-10-20_12h57.14.501,torte-q,2020.1.3,Win32,60,13228,,,,,,,,,,,,,,,,,,,,,,,,,,,,,,,,,,,,,,,,,,,,
,,,,,,,,,,,,a,2.06879,Incorrect,0,8,8,31,1,t1.png,t5.png,4,9.55E-11,19,Female,2020-10-20_12h57.14.501,torte-q,2020.1.3,Win32,60,13228,,,,,,,,,,,,,,,,,,,,,,,,,,,,,,,,,,,,,,,,,,,,
,,,,,,,,,,,,l,1.983385,Correct!,0,9,9,98,1,t2.png,t4.png,2,0.0591,19,Female,2020-10-20_12h57.14.501,torte-q,2020.1.3,Win32,60,13228,,,,,,,,,,,,,,,,,,,,,,,,,,,,,,,,,,,,,,,,,,,,
,,,,,,,,,,,,l,2.371805,Correct!,0,10,10,54,1,t1.png,t5.png,4,9.55E-11,19,Female,2020-10-20_12h57.14.501,torte-q,2020.1.3,Win32,60,13228,,,,,,,,,,,,,,,,,,,,,,,,,,,,,,,,,,,,,,,,,,,,
,,,,,,,,,,,,l,1.58459,Correct!,0,11,11,0,1,t5.png,t1.png,4,9.55E-11,19,Female,2020-10-20_12h57.14.501,torte-q,2020.1.3,Win32,60,13228,,,,,,,,,,,,,,,,,,,,,,,,,,,,,,,,,,,,,,,,,,,,
,,,,,,,,,,,,,,Too slow :(,0,12,12,25,1,t5.png,t5.png,0,0.97829,19,Female,2020-10-20_12h57.14.501,torte-q,2020.1.3,Win32,60,13228,,,,,,,,,,,,,,,,,,,,,,,,,,,,,,,,,,,,,,,,,,,,
,,,,,,,,,,,,l,1.575585,Incorrect,0,13,13,23,1,t5.png,t4.png,1,0.90025,19,Female,2020-10-20_12h57.14.501,torte-q,2020.1.3,Win32,60,13228,,,,,,,,,,,,,,,,,,,,,,,,,,,,,,,,,,,,,,,,,,,,
,,,,,,,,,,,,l,1.454975,Correct!,0,14,14,117,1,t1.png,t5.png,4,9.55E-11,19,Female,2020-10-20_12h57.14.501,torte-q,2020.1.3,Win32,60,13228,,,,,,,,,,,,,,,,,,,,,,,,,,,,,,,,,,,,,,,,,,,,
,,,,,,,,,,,,a,1.300405,Correct!,0,15,15,101,1,t4.png,t5.png,1,0.90025,19,Female,2020-10-20_12h57.14.501,torte-q,2020.1.3,Win32,60,13228,,,,,,,,,,,,,,,,,,,,,,,,,,,,,,,,,,,,,,,,,,,,
,,,,,,,,,,,,a,1.294875,Correct!,0,16,16,109,1,t5.png,t5.png,0,0.97829,19,Female,2020-10-20_12h57.14.501,torte-q,2020.1.3,Win32,60,13228,,,,,,,,,,,,,,,,,,,,,,,,,,,,,,,,,,,,,,,,,,,,
,,,,,,,,,,,,l,1.35032,Correct!,0,17,17,43,1,t4.png,t2.png,2,0.059078,19,Female,2020-10-20_12h57.14.501,torte-q,2020.1.3,Win32,60,13228,,,,,,,,,,,,,,,,,,,,,,,,,,,,,,,,,,,,,,,,,,,,
,,,,,,,,,,,,a,1.203215,Correct!,0,18,18,74,1,t5.png,t4.png,1,0.9,19,Female,2020-10-20_12h57.14.501,torte-q,2020.1.3,Win32,60,13228,,,,,,,,,,,,,,,,,,,,,,,,,,,,,,,,,,,,,,,,,,,,
,,,,,,,,,,,,a,1.243995,Correct!,0,19,19,116,1,t5.png,t4.png,1,0.90025,19,Female,2020-10-20_12h57.14.501,torte-q,2020.1.3,Win32,60,13228,,,,,,,,,,,,,,,,,,,,,,,,,,,,,,,,,,,,,,,,,,,,
,,,,,,,,,,,,l,1.11099,Correct!,0,20,20,102,1,t4.png,t2.png,2,0.059078,19,Female,2020-10-20_12h57.14.501,torte-q,2020.1.3,Win32,60,13228,,,,,,,,,,,,,,,,,,,,,,,,,,,,,,,,,,,,,,,,,,,,
,,,,,,,,,,,,a,1.12108,Correct!,0,21,21,15,1,t3.png,t2.png,1,0.90855,19,Female,2020-10-20_12h57.14.501,torte-q,2020.1.3,Win32,60,13228,,,,,,,,,,,,,,,,,,,,,,,,,,,,,,,,,,,,,,,,,,,,
,,,,,,,,,,,,a,1.150715,Correct!,0,22,22,88,1,t3.png,t1.png,2,0.056466,19,Female,2020-10-20_12h57.14.501,torte-q,2020.1.3,Win32,60,13228,,,,,,,,,,,,,,,,,,,,,,,,,,,,,,,,,,,,,,,,,,,,
,,,,,,,,,,,,l,0.993055,Correct!,0,23,23,93,1,t2.png,t4.png,2,0.059078,19,Female,2020-10-20_12h57.14.501,torte-q,2020.1.3,Win32,60,13228,,,,,,,,,,,,,,,,,,,,,,,,,,,,,,,,,,,,,,,,,,,,
,,,,,,,,,,,,a,0.97512,Incorrect,0,24,24,38,1,t3.png,t1.png,2,0.056466,19,Female,2020-10-20_12h57.14.501,torte-q,2020.1.3,Win32,60,13228,,,,,,,,,,,,,,,,,,,,,,,,,,,,,,,,,,,,,,,,,,,,
,,,,,,,,,,,,a,1.552225,Correct!,0,25,25,18,1,t4.png,t5.png,1,0.90025,19,Female,2020-10-20_12h57.14.501,torte-q,2020.1.3,Win32,60,13228,,,,,,,,,,,,,,,,,,,,,,,,,,,,,,,,,,,,,,,,,,,,
,,,,,,,,,,,,l,1.18536,Incorrect,0,26,26,77,1,t1.png,t1.png,0,0.97829,19,Female,2020-10-20_12h57.14.501,torte-q,2020.1.3,Win32,60,13228,,,,,,,,,,,,,,,,,,,,,,,,,,,,,,,,,,,,,,,,,,,,
,,,,,,,,,,,,a,1.202435,Incorrect,0,27,27,11,1,t1.png,t4.png,3,0.0000131,19,Female,2020-10-20_12h57.14.501,torte-q,2020.1.3,Win32,60,13228,,,,,,,,,,,,,,,,,,,,,,,,,,,,,,,,,,,,,,,,,,,,
,,,,,,,,,,,,l,1.13339,Correct!,0,28,28,28,1,t2.png,t3.png,1,0.909,19,Female,2020-10-20_12h57.14.501,torte-q,2020.1.3,Win32,60,13228,,,,,,,,,,,,,,,,,,,,,,,,,,,,,,,,,,,,,,,,,,,,
,,,,,,,,,,,,l,1.019195,Correct!,0,29,29,94,1,t5.png,t1.png,4,9.55E-11,19,Female,2020-10-20_12h57.14.501,torte-q,2020.1.3,Win32,60,13228,,,,,,,,,,,,,,,,,,,,,,,,,,,,,,,,,,,,,,,,,,,,
,,,,,,,,,,,,l,1.165175,Incorrect,0,30,30,75,1,t1.png,t1.png,0,0.97829,19,Female,2020-10-20_12h57.14.501,torte-q,2020.1.3,Win32,60,13228,,,,,,,,,,,,,,,,,,,,,,,,,,,,,,,,,,,,,,,,,,,,
,,,,,,,,,,,,a,1.26854,Correct!,0,31,31,7,1,t4.png,t5.png,1,0.90025,19,Female,2020-10-20_12h57.14.501,torte-q,2020.1.3,Win32,60,13228,,,,,,,,,,,,,,,,,,,,,,,,,,,,,,,,,,,,,,,,,,,,
,,,,,,,,,,,,a,0.97345,Correct!,0,32,32,112,1,t1.png,t1.png,0,0.97829,19,Female,2020-10-20_12h57.14.501,torte-q,2020.1.3,Win32,60,13228,,,,,,,,,,,,,,,,,,,,,,,,,,,,,,,,,,,,,,,,,,,,
,,,,,,,,,,,,l,1.052155,Incorrect,0,33,33,70,1,t5.png,t5.png,0,0.978,19,Female,2020-10-20_12h57.14.501,torte-q,2020.1.3,Win32,60,13228,,,,,,,,,,,,,,,,,,,,,,,,,,,,,,,,,,,,,,,,,,,,
,,,,,,,,,,,,a,1.4737,Incorrect,0,34,34,63,1,t2.png,t3.png,1,0.909,19,Female,2020-10-20_12h57.14.501,torte-q,2020.1.3,Win32,60,13228,,,,,,,,,,,,,,,,,,,,,,,,,,,,,,,,,,,,,,,,,,,,
,,,,,,,,,,,,l,1.221445,Incorrect,0,35,35,100,1,t4.png,t5.png,1,0.90025,19,Female,2020-10-20_12h57.14.501,torte-q,2020.1.3,Win32,60,13228,,,,,,,,,,,,,,,,,,,,,,,,,,,,,,,,,,,,,,,,,,,,
,,,,,,,,,,,,l,1.102075,Correct!,0,36,36,26,1,t4.png,t2.png,2,0.0591,19,Female,2020-10-20_12h57.14.501,torte-q,2020.1.3,Win32,60,13228,,,,,,,,,,,,,,,,,,,,,,,,,,,,,,,,,,,,,,,,,,,,
,,,,,,,,,,,,l,1.040845,Correct!,0,37,37,108,1,t5.png,t1.png,4,9.55E-11,19,Female,2020-10-20_12h57.14.501,torte-q,2020.1.3,Win32,60,13228,,,,,,,,,,,,,,,,,,,,,,,,,,,,,,,,,,,,,,,,,,,,
,,,,,,,,,,,,a,1.34325,Correct!,0,38,38,10,1,t2.png,t3.png,1,0.90855,19,Female,2020-10-20_12h57.14.501,torte-q,2020.1.3,Win32,60,13228,,,,,,,,,,,,,,,,,,,,,,,,,,,,,,,,,,,,,,,,,,,,
,,,,,,,,,,,,a,1.29047,Correct!,0,39,39,113,1,t5.png,t4.png,1,0.9,19,Female,2020-10-20_12h57.14.501,torte-q,2020.1.3,Win32,60,13228,,,,,,,,,,,,,,,,,,,,,,,,,,,,,,,,,,,,,,,,,,,,
,,,,,,,,,,,,l,0.78412,Correct!,0,40,40,82,1,t5.png,t1.png,4,9.55E-11,19,Female,2020-10-20_12h57.14.501,torte-q,2020.1.3,Win32,60,13228,,,,,,,,,,,,,,,,,,,,,,,,,,,,,,,,,,,,,,,,,,,,
,,,,,,,,,,,,a,0.90062,Incorrect,0,41,41,103,1,t3.png,t1.png,2,0.056466,19,Female,2020-10-20_12h57.14.501,torte-q,2020.1.3,Win32,60,13228,,,,,,,,,,,,,,,,,,,,,,,,,,,,,,,,,,,,,,,,,,,,
,,,,,,,,,,,,l,0.88664,Correct!,0,42,42,36,1,t3.png,t1.png,2,0.0565,19,Female,2020-10-20_12h57.14.501,torte-q,2020.1.3,Win32,60,13228,,,,,,,,,,,,,,,,,,,,,,,,,,,,,,,,,,,,,,,,,,,,
,,,,,,,,,,,,l,1.009055,Incorrect,0,43,43,106,1,t2.png,t3.png,1,0.90855,19,Female,2020-10-20_12h57.14.501,torte-q,2020.1.3,Win32,60,13228,,,,,,,,,,,,,,,,,,,,,,,,,,,,,,,,,,,,,,,,,,,,
,,,,,,,,,,,,a,1.019035,Correct!,0,44,44,107,1,t1.png,t1.png,0,0.978,19,Female,2020-10-20_12h57.14.501,torte-q,2020.1.3,Win32,60,13228,,,,,,,,,,,,,,,,,,,,,,,,,,,,,,,,,,,,,,,,,,,,
,,,,,,,,,,,,l,1.219545,Incorrect,0,45,45,45,1,t3.png,t2.png,1,0.90855,19,Female,2020-10-20_12h57.14.501,torte-q,2020.1.3,Win32,60,13228,,,,,,,,,,,,,,,,,,,,,,,,,,,,,,,,,,,,,,,,,,,,
,,,,,,,,,,,,a,1.273325,Correct!,0,46,46,16,1,t5.png,t4.png,1,0.9,19,Female,2020-10-20_12h57.14.501,torte-q,2020.1.3,Win32,60,13228,,,,,,,,,,,,,,,,,,,,,,,,,,,,,,,,,,,,,,,,,,,,
,,,,,,,,,,,,a,1.17044,Correct!,0,47,47,48,1,t5.png,t5.png,0,0.97829,19,Female,2020-10-20_12h57.14.501,torte-q,2020.1.3,Win32,60,13228,,,,,,,,,,,,,,,,,,,,,,,,,,,,,,,,,,,,,,,,,,,,
,,,,,,,,,,,,a,1.09197,Incorrect,0,48,48,89,1,t1.png,t4.png,3,0.0000131,19,Female,2020-10-20_12h57.14.501,torte-q,2020.1.3,Win32,60,13228,,,,,,,,,,,,,,,,,,,,,,,,,,,,,,,,,,,,,,,,,,,,
,,,,,,,,,,,,l,1.202075,Incorrect,0,49,49,66,1,t4.png,t5.png,1,0.9,19,Female,2020-10-20_12h57.14.501,torte-q,2020.1.3,Win32,60,13228,,,,,,,,,,,,,,,,,,,,,,,,,,,,,,,,,,,,,,,,,,,,
,,,,,,,,,,,,l,1.04117,Correct!,0,50,50,111,1,t5.png,t1.png,4,9.55E-11,19,Female,2020-10-20_12h57.14.501,torte-q,2020.1.3,Win32,60,13228,,,,,,,,,,,,,,,,,,,,,,,,,,,,,,,,,,,,,,,,,,,,
,,,,,,,,,,,,a,0.935705,Incorrect,0,51,51,17,1,t1.png,t4.png,3,0.0000131,19,Female,2020-10-20_12h57.14.501,torte-q,2020.1.3,Win32,60,13228,,,,,,,,,,,,,,,,,,,,,,,,,,,,,,,,,,,,,,,,,,,,
,,,,,,,,,,,,l,1.29248,Correct!,0,52,52,44,1,t2.png,t3.png,1,0.909,19,Female,2020-10-20_12h57.14.501,torte-q,2020.1.3,Win32,60,13228,,,,,,,,,,,,,,,,,,,,,,,,,,,,,,,,,,,,,,,,,,,,
,,,,,,,,,,,,l,0.83764,Incorrect,0,53,53,21,1,t5.png,t4.png,1,0.90025,19,Female,2020-10-20_12h57.14.501,torte-q,2020.1.3,Win32,60,13228,,,,,,,,,,,,,,,,,,,,,,,,,,,,,,,,,,,,,,,,,,,,
,,,,,,,,,,,,l,0.628335,Correct!,0,54,54,4,1,t1.png,t5.png,4,9.55E-11,19,Female,2020-10-20_12h57.14.501,torte-q,2020.1.3,Win32,60,13228,,,,,,,,,,,,,,,,,,,,,,,,,,,,,,,,,,,,,,,,,,,,
,,,,,,,,,,,,a,0.81186,Incorrect,0,55,55,68,1,t1.png,t4.png,3,0.0000131,19,Female,2020-10-20_12h57.14.501,torte-q,2020.1.3,Win32,60,13228,,,,,,,,,,,,,,,,,,,,,,,,,,,,,,,,,,,,,,,,,,,,
,,,,,,,,,,,,a,1.22929,Correct!,0,56,56,114,1,t2.png,t3.png,1,0.90855,19,Female,2020-10-20_12h57.14.501,torte-q,2020.1.3,Win32,60,13228,,,,,,,,,,,,,,,,,,,,,,,,,,,,,,,,,,,,,,,,,,,,
,,,,,,,,,,,,a,1.212815,Correct!,0,57,57,104,1,t2.png,t3.png,1,0.90855,19,Female,2020-10-20_12h57.14.501,torte-q,2020.1.3,Win32,60,13228,,,,,,,,,,,,,,,,,,,,,,,,,,,,,,,,,,,,,,,,,,,,
,,,,,,,,,,,,l,0.942305,Correct!,0,58,58,6,1,t1.png,t4.png,3,0.0000131,19,Female,2020-10-20_12h57.14.501,torte-q,2020.1.3,Win32,60,13228,,,,,,,,,,,,,,,,,,,,,,,,,,,,,,,,,,,,,,,,,,,,
,,,,,,,,,,,,a,0.686585,Correct!,0,59,59,105,1,t3.png,t2.png,1,0.90855,19,Female,2020-10-20_12h57.14.501,torte-q,2020.1.3,Win32,60,13228,,,,,,,,,,,,,,,,,,,,,,,,,,,,,,,,,,,,,,,,,,,,
,,,,,,,,,,,,a,1.31684,Correct!,0,60,60,39,1,t3.png,t2.png,1,0.90855,19,Female,2020-10-20_12h57.14.501,torte-q,2020.1.3,Win32,60,13228,,,,,,,,,,,,,,,,,,,,,,,,,,,,,,,,,,,,,,,,,,,,
,,,,,,,,,,,,l,0.534035,Correct!,0,61,61,80,1,t1.png,t4.png,3,0.0000131,19,Female,2020-10-20_12h57.14.501,torte-q,2020.1.3,Win32,60,13228,,,,,,,,,,,,,,,,,,,,,,,,,,,,,,,,,,,,,,,,,,,,
,,,,,,,,,,,,a,0.952635,Correct!,0,62,62,13,1,t5.png,t5.png,0,0.97829,19,Female,2020-10-20_12h57.14.501,torte-q,2020.1.3,Win32,60,13228,,,,,,,,,,,,,,,,,,,,,,,,,,,,,,,,,,,,,,,,,,,,
,,,,,,,,,,,,a,1.133905,Correct!,0,63,63,20,1,t2.png,t3.png,1,0.90855,19,Female,2020-10-20_12h57.14.501,torte-q,2020.1.3,Win32,60,13228,,,,,,,,,,,,,,,,,,,,,,,,,,,,,,,,,,,,,,,,,,,,
,,,,,,,,,,,,a,0.96871,Correct!,0,64,64,85,1,t3.png,t2.png,1,0.90855,19,Female,2020-10-20_12h57.14.501,torte-q,2020.1.3,Win32,60,13228,,,,,,,,,,,,,,,,,,,,,,,,,,,,,,,,,,,,,,,,,,,,
,,,,,,,,,,,,l,0.518995,Correct!,0,65,65,99,1,t1.png,t5.png,4,9.55E-11,19,Female,2020-10-20_12h57.14.501,torte-q,2020.1.3,Win32,60,13228,,,,,,,,,,,,,,,,,,,,,,,,,,,,,,,,,,,,,,,,,,,,
,,,,,,,,,,,,l,0.76761,Correct!,0,66,66,35,1,t1.png,t4.png,3,0.0000131,19,Female,2020-10-20_12h57.14.501,torte-q,2020.1.3,Win32,60,13228,,,,,,,,,,,,,,,,,,,,,,,,,,,,,,,,,,,,,,,,,,,,
,,,,,,,,,,,,l,1.568085,Correct!,0,67,67,5,1,t2.png,t4.png,2,0.059078,19,Female,2020-10-20_12h57.14.501,torte-q,2020.1.3,Win32,60,13228,,,,,,,,,,,,,,,,,,,,,,,,,,,,,,,,,,,,,,,,,,,,
,,,,,,,,,,,,a,0.785555,Incorrect,0,68,68,24,1,t4.png,t2.png,2,0.059078,19,Female,2020-10-20_12h57.14.501,torte-q,2020.1.3,Win32,60,13228,,,,,,,,,,,,,,,,,,,,,,,,,,,,,,,,,,,,,,,,,,,,
,,,,,,,,,,,,a,1.01459,Correct!,0,69,69,92,1,t2.png,t3.png,1,0.909,19,Female,2020-10-20_12h57.14.501,torte-q,2020.1.3,Win32,60,13228,,,,,,,,,,,,,,,,,,,,,,,,,,,,,,,,,,,,,,,,,,,,
,,,,,,,,,,,,l,0.783215,Correct!,0,70,70,40,1,t1.png,t5.png,4,9.55E-11,19,Female,2020-10-20_12h57.14.501,torte-q,2020.1.3,Win32,60,13228,,,,,,,,,,,,,,,,,,,,,,,,,,,,,,,,,,,,,,,,,,,,
,,,,,,,,,,,,a,1.159475,Incorrect,0,71,71,86,1,t3.png,t1.png,2,0.056466,19,Female,2020-10-20_12h57.14.501,torte-q,2020.1.3,Win32,60,13228,,,,,,,,,,,,,,,,,,,,,,,,,,,,,,,,,,,,,,,,,,,,
,,,,,,,,,,,,a,1.049855,Correct!,0,72,72,29,1,t5.png,t5.png,0,0.97829,19,Female,2020-10-20_12h57.14.501,torte-q,2020.1.3,Win32,60,13228,,,,,,,,,,,,,,,,,,,,,,,,,,,,,,,,,,,,,,,,,,,,
,,,,,,,,,,,,l,0.857715,Incorrect,0,73,73,32,1,t4.png,t5.png,1,0.90025,19,Female,2020-10-20_12h57.14.501,torte-q,2020.1.3,Win32,60,13228,,,,,,,,,,,,,,,,,,,,,,,,,,,,,,,,,,,,,,,,,,,,
,,,,,,,,,,,,a,1.08525,Correct!,0,74,74,81,1,t1.png,t1.png,0,0.97829,19,Female,2020-10-20_12h57.14.501,torte-q,2020.1.3,Win32,60,13228,,,,,,,,,,,,,,,,,,,,,,,,,,,,,,,,,,,,,,,,,,,,
,,,,,,,,,,,,l,1.245625,Incorrect,0,75,75,49,1,t4.png,t5.png,1,0.9,19,Female,2020-10-20_12h57.14.501,torte-q,2020.1.3,Win32,60,13228,,,,,,,,,,,,,,,,,,,,,,,,,,,,,,,,,,,,,,,,,,,,
,,,,,,,,,,,,l,0.702245,Correct!,0,76,76,90,1,t1.png,t5.png,4,9.55E-11,19,Female,2020-10-20_12h57.14.501,torte-q,2020.1.3,Win32,60,13228,,,,,,,,,,,,,,,,,,,,,,,,,,,,,,,,,,,,,,,,,,,,
,,,,,,,,,,,,a,0.851825,Incorrect,0,77,77,37,1,t1.png,t4.png,3,0.0000131,19,Female,2020-10-20_12h57.14.501,torte-q,2020.1.3,Win32,60,13228,,,,,,,,,,,,,,,,,,,,,,,,,,,,,,,,,,,,,,,,,,,,
,,,,,,,,,,,,l,0.84082,Correct!,0,78,78,52,1,t2.png,t4.png,2,0.059078,19,Female,2020-10-20_12h57.14.501,torte-q,2020.1.3,Win32,60,13228,,,,,,,,,,,,,,,,,,,,,,,,,,,,,,,,,,,,,,,,,,,,
,,,,,,,,,,,,l,0.973885,Correct!,0,79,79,33,1,t5.png,t1.png,4,9.55E-11,19,Female,2020-10-20_12h57.14.501,torte-q,2020.1.3,Win32,60,13228,,,,,,,,,,,,,,,,,,,,,,,,,,,,,,,,,,,,,,,,,,,,
,,,,,,,,,,,,l,0.914105,Correct!,0,80,80,61,1,t1.png,t4.png,3,0.0000131,19,Female,2020-10-20_12h57.14.501,torte-q,2020.1.3,Win32,60,13228,,,,,,,,,,,,,,,,,,,,,,,,,,,,,,,,,,,,,,,,,,,,
,,,,,,,,,,,,a,0.93405,Correct!,0,81,81,71,1,t5.png,t5.png,0,0.97829,19,Female,2020-10-20_12h57.14.501,torte-q,2020.1.3,Win32,60,13228,,,,,,,,,,,,,,,,,,,,,,,,,,,,,,,,,,,,,,,,,,,,
,,,,,,,,,,,,l,0.90248,Correct!,0,82,82,60,1,t2.png,t4.png,2,0.059078,19,Female,2020-10-20_12h57.14.501,torte-q,2020.1.3,Win32,60,13228,,,,,,,,,,,,,,,,,,,,,,,,,,,,,,,,,,,,,,,,,,,,
,,,,,,,,,,,,a,0.840575,Correct!,0,83,83,84,1,t1.png,t1.png,0,0.97829,19,Female,2020-10-20_12h57.14.501,torte-q,2020.1.3,Win32,60,13228,,,,,,,,,,,,,,,,,,,,,,,,,,,,,,,,,,,,,,,,,,,,
,,,,,,,,,,,,a,0.86748,Correct!,0,84,84,118,1,t5.png,t5.png,0,0.978,19,Female,2020-10-20_12h57.14.501,torte-q,2020.1.3,Win32,60,13228,,,,,,,,,,,,,,,,,,,,,,,,,,,,,,,,,,,,,,,,,,,,
,,,,,,,,,,,,l,0.7009,Correct!,0,85,85,50,1,t5.png,t1.png,4,9.55E-11,19,Female,2020-10-20_12h57.14.501,torte-q,2020.1.3,Win32,60,13228,,,,,,,,,,,,,,,,,,,,,,,,,,,,,,,,,,,,,,,,,,,,
,,,,,,,,,,,,a,0.77023,Correct!,0,86,86,9,1,t4.png,t5.png,1,0.9,19,Female,2020-10-20_12h57.14.501,torte-q,2020.1.3,Win32,60,13228,,,,,,,,,,,,,,,,,,,,,,,,,,,,,,,,,,,,,,,,,,,,
,,,,,,,,,,,,l,0.78112,Correct!,0,87,87,46,1,t4.png,t2.png,2,0.059078,19,Female,2020-10-20_12h57.14.501,torte-q,2020.1.3,Win32,60,13228,,,,,,,,,,,,,,,,,,,,,,,,,,,,,,,,,,,,,,,,,,,,
,,,,,,,,,,,,l,0.704575,Correct!,0,88,88,69,1,t4.png,t2.png,2,0.059078,19,Female,2020-10-20_12h57.14.501,torte-q,2020.1.3,Win32,60,13228,,,,,,,,,,,,,,,,,,,,,,,,,,,,,,,,,,,,,,,,,,,,
,,,,,,,,,,,,a,0.723445,Incorrect,0,89,89,30,1,t3.png,t1.png,2,0.056466,19,Female,2020-10-20_12h57.14.501,torte-q,2020.1.3,Win32,60,13228,,,,,,,,,,,,,,,,,,,,,,,,,,,,,,,,,,,,,,,,,,,,
,,,,,,,,,,,,l,1.00213,Incorrect,0,90,90,41,1,t3.png,t2.png,1,0.90855,19,Female,2020-10-20_12h57.14.501,torte-q,2020.1.3,Win32,60,13228,,,,,,,,,,,,,,,,,,,,,,,,,,,,,,,,,,,,,,,,,,,,
,,,,,,,,,,,,a,1.091115,Correct!,0,91,91,22,1,t2.png,t3.png,1,0.90855,19,Female,2020-10-20_12h57.14.501,torte-q,2020.1.3,Win32,60,13228,,,,,,,,,,,,,,,,,,,,,,,,,,,,,,,,,,,,,,,,,,,,
,,,,,,,,,,,,l,0.938465,Correct!,0,92,92,55,1,t2.png,t4.png,2,0.059078,19,Female,2020-10-20_12h57.14.501,torte-q,2020.1.3,Win32,60,13228,,,,,,,,,,,,,,,,,,,,,,,,,,,,,,,,,,,,,,,,,,,,
,,,,,,,,,,,,a,0.9199,Correct!,0,93,93,62,1,t5.png,t5.png,0,0.978,19,Female,2020-10-20_12h57.14.501,torte-q,2020.1.3,Win32,60,13228,,,,,,,,,,,,,,,,,,,,,,,,,,,,,,,,,,,,,,,,,,,,
,,,,,,,,,,,,l,1.14681,Correct!,0,94,94,1,1,t2.png,t4.png,2,0.059078,19,Female,2020-10-20_12h57.14.501,torte-q,2020.1.3,Win32,60,13228,,,,,,,,,,,,,,,,,,,,,,,,,,,,,,,,,,,,,,,,,,,,
,,,,,,,,,,,,a,1.205725,Incorrect,0,95,95,27,1,t3.png,t1.png,2,0.0565,19,Female,2020-10-20_12h57.14.501,torte-q,2020.1.3,Win32,60,13228,,,,,,,,,,,,,,,,,,,,,,,,,,,,,,,,,,,,,,,,,,,,
,,,,,,,,,,,,l,0.83121,Correct!,0,96,96,87,1,t5.png,t1.png,4,9.55E-11,19,Female,2020-10-20_12h57.14.501,torte-q,2020.1.3,Win32,60,13228,,,,,,,,,,,,,,,,,,,,,,,,,,,,,,,,,,,,,,,,,,,,
,,,,,,,,,,,,l,0.83122,Correct!,0,97,97,51,1,t3.png,t1.png,2,0.056466,19,Female,2020-10-20_12h57.14.501,torte-q,2020.1.3,Win32,60,13228,,,,,,,,,,,,,,,,,,,,,,,,,,,,,,,,,,,,,,,,,,,,
,,,,,,,,,,,,l,0.705035,Correct!,0,98,98,73,1,t4.png,t2.png,2,0.059078,19,Female,2020-10-20_12h57.14.501,torte-q,2020.1.3,Win32,60,13228,,,,,,,,,,,,,,,,,,,,,,,,,,,,,,,,,,,,,,,,,,,,
,,,,,,,,,,,,a,0.83701,Correct!,0,99,99,78,1,t1.png,t1.png,0,0.978,19,Female,2020-10-20_12h57.14.501,torte-q,2020.1.3,Win32,60,13228,,,,,,,,,,,,,,,,,,,,,,,,,,,,,,,,,,,,,,,,,,,,
,,,,,,,,,,,,a,1.33032,Correct!,0,100,100,58,1,t5.png,t4.png,1,0.90025,19,Female,2020-10-20_12h57.14.501,torte-q,2020.1.3,Win32,60,13228,,,,,,,,,,,,,,,,,,,,,,,,,,,,,,,,,,,,,,,,,,,,
,,,,,,,,,,,,l,1.031845,Correct!,0,101,101,14,1,t2.png,t4.png,2,0.059078,19,Female,2020-10-20_12h57.14.501,torte-q,2020.1.3,Win32,60,13228,,,,,,,,,,,,,,,,,,,,,,,,,,,,,,,,,,,,,,,,,,,,
,,,,,,,,,,,,a,0.886895,Correct!,0,102,102,2,1,t3.png,t2.png,1,0.90855,19,Female,2020-10-20_12h57.14.501,torte-q,2020.1.3,Win32,60,13228,,,,,,,,,,,,,,,,,,,,,,,,,,,,,,,,,,,,,,,,,,,,
,,,,,,,,,,,,l,0.764915,Incorrect,0,103,103,115,1,t2.png,t4.png,2,0.059078,19,Female,2020-10-20_12h57.14.501,torte-q,2020.1.3,Win32,60,13228,,,,,,,,,,,,,,,,,,,,,,,,,,,,,,,,,,,,,,,,,,,,
,,,,,,,,,,,,l,1.388175,Incorrect,0,104,104,34,1,t5.png,t4.png,1,0.9,19,Female,2020-10-20_12h57.14.501,torte-q,2020.1.3,Win32,60,13228,,,,,,,,,,,,,,,,,,,,,,,,,,,,,,,,,,,,,,,,,,,,
,,,,,,,,,,,,l,0.8221,Correct!,0,105,105,72,1,t4.png,t2.png,2,0.059078,19,Female,2020-10-20_12h57.14.501,torte-q,2020.1.3,Win32,60,13228,,,,,,,,,,,,,,,,,,,,,,,,,,,,,,,,,,,,,,,,,,,,
,,,,,,,,,,,,a,0.782335,Correct!,0,106,106,96,1,t1.png,t1.png,0,0.97829,19,Female,2020-10-20_12h57.14.501,torte-q,2020.1.3,Win32,60,13228,,,,,,,,,,,,,,,,,,,,,,,,,,,,,,,,,,,,,,,,,,,,
,,,,,,,,,,,,a,0.965155,Incorrect,0,107,107,53,1,t3.png,t1.png,2,0.056466,19,Female,2020-10-20_12h57.14.501,torte-q,2020.1.3,Win32,60,13228,,,,,,,,,,,,,,,,,,,,,,,,,,,,,,,,,,,,,,,,,,,,
,,,,,,,,,,,,a,1.133465,Correct!,0,108,108,110,1,t4.png,t5.png,1,0.90025,19,Female,2020-10-20_12h57.14.501,torte-q,2020.1.3,Win32,60,13228,,,,,,,,,,,,,,,,,,,,,,,,,,,,,,,,,,,,,,,,,,,,
,,,,,,,,,,,,l,0.80626,Correct!,0,109,109,57,1,t2.png,t4.png,2,0.059078,19,Female,2020-10-20_12h57.14.501,torte-q,2020.1.3,Win32,60,13228,,,,,,,,,,,,,,,,,,,,,,,,,,,,,,,,,,,,,,,,,,,,
,,,,,,,,,,,,l,1.07161,Correct!,0,110,110,91,1,t1.png,t4.png,3,0.0000131,19,Female,2020-10-20_12h57.14.501,torte-q,2020.1.3,Win32,60,13228,,,,,,,,,,,,,,,,,,,,,,,,,,,,,,,,,,,,,,,,,,,,
,,,,,,,,,,,,a,0.78813,Incorrect,0,111,111,3,1,t1.png,t5.png,4,9.55E-11,19,Female,2020-10-20_12h57.14.501,torte-q,2020.1.3,Win32,60,13228,,,,,,,,,,,,,,,,,,,,,,,,,,,,,,,,,,,,,,,,,,,,
,,,,,,,,,,,,a,1.357095,Correct!,0,112,112,79,1,t3.png,t2.png,1,0.909,19,Female,2020-10-20_12h57.14.501,torte-q,2020.1.3,Win32,60,13228,,,,,,,,,,,,,,,,,,,,,,,,,,,,,,,,,,,,,,,,,,,,
,,,,,,,,,,,,a,1.41667,Correct!,0,113,113,97,1,t5.png,t5.png,0,0.97829,19,Female,2020-10-20_12h57.14.501,torte-q,2020.1.3,Win32,60,13228,,,,,,,,,,,,,,,,,,,,,,,,,,,,,,,,,,,,,,,,,,,,
,,,,,,,,,,,,l,0.616555,Correct!,0,114,114,56,1,t5.png,t1.png,4,9.55E-11,19,Female,2020-10-20_12h57.14.501,torte-q,2020.1.3,Win32,60,13228,,,,,,,,,,,,,,,,,,,,,,,,,,,,,,,,,,,,,,,,,,,,
,,,,,,,,,,,,l,0.9371,Correct!,0,115,115,47,1,t4.png,t2.png,2,0.059078,19,Female,2020-10-20_12h57.14.501,torte-q,2020.1.3,Win32,60,13228,,,,,,,,,,,,,,,,,,,,,,,,,,,,,,,,,,,,,,,,,,,,
,,,,,,,,,,,,l,0.55622,Correct!,0,116,116,95,1,t1.png,t1.png,0,0.978,19,Female,2020-10-20_12h57.14.501,torte-q,2020.1.3,Win32,60,13228,,,,,,,,,,,,,,,,,,,,,,,,,,,,,,,,,,,,,,,,,,,,
,,,,,,,,,,,,l,0.75854,Correct!,0,117,117,119,1,t1.png,t5.png,4,9.55E-11,19,Female,2020-10-20_12h57.14.501,torte-q,2020.1.3,Win32,60,13228,,,,,,,,,,,,,,,,,,,,,,,,,,,,,,,,,,,,,,,,,,,,
,,,,,,,,,,,,l,0.6233,Correct!,0,118,118,67,1,t1.png,t5.png,4,9.55E-11,19,Female,2020-10-20_12h57.14.501,torte-q,2020.1.3,Win32,60,13228,,,,,,,,,,,,,,,,,,,,,,,,,,,,,,,,,,,,,,,,,,,,
,,,,,,,,,,,,a,0.76746,Correct!,0,119,119,64,1,t1.png,t1.png,0,0.978,19,Female,2020-10-20_12h57.14.501,torte-q,2020.1.3,Win32,60,13228,,,,,,,,,,,,,,,,,,,,,,,,,,,,,,,,,,,,,,,,,,,,
,,,,,,,,,,,,a,0.86543,Correct!,,,,,,t1.png,t2.png,1,0.90025,19,Female,2020-10-20_12h57.14.501,torte-q,2020.1.3,Win32,60,13228,space,3.55446,space,13.495855,0,0,0,33,1,,,,,,,,,,,,,,,,,,,,,,,,,,,,,,,,,,,
,,,,,,,,,,,,a,1.05741,Correct!,,,,,,t2.png,t1.png,1,0.90025,19,Female,2020-10-20_12h57.14.501,torte-q,2020.1.3,Win32,60,13228,,,,,0,1,1,19,1,,,,,,,,,,,,,,,,,,,,,,,,,,,,,,,,,,,
,,,,,,,,,,,,a,1.26895,Incorrect,,,,,,t3.png,t5.png,2,0.0565,19,Female,2020-10-20_12h57.14.501,torte-q,2020.1.3,Win32,60,13228,,,,,0,2,2,83,1,,,,,,,,,,,,,,,,,,,,,,,,,,,,,,,,,,,
,,,,,,,,,,,,l,0.62233,Correct!,,,,,,t5.png,t1.png,4,9.55E-11,19,Female,2020-10-20_12h57.14.501,torte-q,2020.1.3,Win32,60,13228,,,,,0,3,3,22,1,,,,,,,,,,,,,,,,,,,,,,,,,,,,,,,,,,,
,,,,,,,,,,,,l,0.669085,Correct!,,,,,,t5.png,t1.png,4,9.55E-11,19,Female,2020-10-20_12h57.14.501,torte-q,2020.1.3,Win32,60,13228,,,,,0,4,4,102,1,,,,,,,,,,,,,,,,,,,,,,,,,,,,,,,,,,,
,,,,,,,,,,,,a,0.939365,Incorrect,,,,,,t4.png,t1.png,3,0.0000131,19,Female,2020-10-20_12h57.14.501,torte-q,2020.1.3,Win32,60,13228,,,,,0,5,5,93,1,,,,,,,,,,,,,,,,,,,,,,,,,,,,,,,,,,,
,,,,,,,,,,,,l,0.63564,Correct!,,,,,,t5.png,t1.png,4,9.55E-11,19,Female,2020-10-20_12h57.14.501,torte-q,2020.1.3,Win32,60,13228,,,,,0,6,6,100,1,,,,,,,,,,,,,,,,,,,,,,,,,,,,,,,,,,,
,,,,,,,,,,,,l,1.16776,Incorrect,,,,,,t2.png,t2.png,0,0.98115,19,Female,2020-10-20_12h57.14.501,torte-q,2020.1.3,Win32,60,13228,,,,,0,7,7,7,1,,,,,,,,,,,,,,,,,,,,,,,,,,,,,,,,,,,
,,,,,,,,,,,,l,1.198865,Correct!,,,,,,t4.png,t5.png,1,0.9,19,Female,2020-10-20_12h57.14.501,torte-q,2020.1.3,Win32,60,13228,,,,,0,8,8,115,1,,,,,,,,,,,,,,,,,,,,,,,,,,,,,,,,,,,
,,,,,,,,,,,,l,1.06529,Incorrect,,,,,,t4.png,t5.png,1,0.90025,19,Female,2020-10-20_12h57.14.501,torte-q,2020.1.3,Win32,60,13228,,,,,0,9,9,103,1,,,,,,,,,,,,,,,,,,,,,,,,,,,,,,,,,,,
,,,,,,,,,,,,a,1.115085,Incorrect,,,,,,t5.png,t2.png,3,0.0000131,19,Female,2020-10-20_12h57.14.501,torte-q,2020.1.3,Win32,60,13228,,,,,0,10,10,98,1,,,,,,,,,,,,,,,,,,,,,,,,,,,,,,,,,,,
,,,,,,,,,,,,l,1.08056,Correct!,,,,,,t4.png,t2.png,2,0.059078,19,Female,2020-10-20_12h57.14.501,torte-q,2020.1.3,Win32,60,13228,,,,,0,11,11,110,1,,,,,,,,,,,,,,,,,,,,,,,,,,,,,,,,,,,
,,,,,,,,,,,,a,1.297725,Correct!,,,,,,t5.png,t4.png,1,0.9,19,Female,2020-10-20_12h57.14.501,torte-q,2020.1.3,Win32,60,13228,,,,,0,12,12,76,1,,,,,,,,,,,,,,,,,,,,,,,,,,,,,,,,,,,
,,,,,,,,,,,,a,0.966,Correct!,,,,,,t2.png,t3.png,1,0.90855,19,Female,2020-10-20_12h57.14.501,torte-q,2020.1.3,Win32,60,13228,,,,,0,13,13,65,1,,,,,,,,,,,,,,,,,,,,,,,,,,,,,,,,,,,
,,,,,,,,,,,,l,1.22331,Correct!,,,,,,t3.png,t1.png,2,0.056466,19,Female,2020-10-20_12h57.14.501,torte-q,2020.1.3,Win32,60,13228,,,,,0,14,14,64,1,,,,,,,,,,,,,,,,,,,,,,,,,,,,,,,,,,,
,,,,,,,,,,,,l,1.3882,Incorrect,,,,,,t5.png,t4.png,1,0.90025,19,Female,2020-10-20_12h57.14.501,torte-q,2020.1.3,Win32,60,13228,,,,,0,15,15,27,1,,,,,,,,,,,,,,,,,,,,,,,,,,,,,,,,,,,
,,,,,,,,,,,,l,0.94751,Incorrect,,,,,,t2.png,t1.png,1,0.90025,19,Female,2020-10-20_12h57.14.501,torte-q,2020.1.3,Win32,60,13228,,,,,0,16,16,5,1,,,,,,,,,,,,,,,,,,,,,,,,,,,,,,,,,,,
,,,,,,,,,,,,a,1.15082,Incorrect,,,,,,t1.png,t4.png,3,0.0000131,19,Female,2020-10-20_12h57.14.501,torte-q,2020.1.3,Win32,60,13228,,,,,0,17,17,92,1,,,,,,,,,,,,,,,,,,,,,,,,,,,,,,,,,,,
,,,,,,,,,,,,l,0.881595,Incorrect,,,,,,t1.png,t3.png,2,0.056466,19,Female,2020-10-20_12h57.14.501,torte-q,2020.1.3,Win32,60,13228,,,,,0,18,18,69,1,,,,,,,,,,,,,,,,,,,,,,,,,,,,,,,,,,,
,,,,,,,,,,,,l,0.654095,Correct!,,,,,,t3.png,t1.png,2,0.056466,19,Female,2020-10-20_12h57.14.501,torte-q,2020.1.3,Win32,60,13228,,,,,0,19,19,0,1,,,,,,,,,,,,,,,,,,,,,,,,,,,,,,,,,,,
,,,,,,,,,,,,l,0.72194,Correct!,,,,,,t1.png,t5.png,4,9.55E-11,19,Female,2020-10-20_12h57.14.501,torte-q,2020.1.3,Win32,60,13228,,,,,0,20,20,85,1,,,,,,,,,,,,,,,,,,,,,,,,,,,,,,,,,,,
,,,,,,,,,,,,a,0.79063,Correct!,,,,,,t3.png,t2.png,1,0.90855,19,Female,2020-10-20_12h57.14.501,torte-q,2020.1.3,Win32,60,13228,,,,,0,21,21,97,1,,,,,,,,,,,,,,,,,,,,,,,,,,,,,,,,,,,
,,,,,,,,,,,,a,1.05407,Correct!,,,,,,t4.png,t5.png,1,0.90025,19,Female,2020-10-20_12h57.14.501,torte-q,2020.1.3,Win32,60,13228,,,,,0,22,22,58,1,,,,,,,,,,,,,,,,,,,,,,,,,,,,,,,,,,,
,,,,,,,,,,,,l,1.18186,Incorrect,,,,,,t2.png,t3.png,1,0.909,19,Female,2020-10-20_12h57.14.501,torte-q,2020.1.3,Win32,60,13228,,,,,0,23,23,74,1,,,,,,,,,,,,,,,,,,,,,,,,,,,,,,,,,,,
,,,,,,,,,,,,l,0.62466,Correct!,,,,,,t5.png,t3.png,2,0.056466,19,Female,2020-10-20_12h57.14.501,torte-q,2020.1.3,Win32,60,13228,,,,,0,24,24,56,1,,,,,,,,,,,,,,,,,,,,,,,,,,,,,,,,,,,
,,,,,,,,,,,,l,0.669975,Correct!,,,,,,t5.png,t3.png,2,0.056466,19,Female,2020-10-20_12h57.14.501,torte-q,2020.1.3,Win32,60,13228,,,,,0,25,25,108,1,,,,,,,,,,,,,,,,,,,,,,,,,,,,,,,,,,,
,,,,,,,,,,,,a,0.96569,Correct!,,,,,,t4.png,t4.png,0,0.98115,19,Female,2020-10-20_12h57.14.501,torte-q,2020.1.3,Win32,60,13228,,,,,0,26,26,52,1,,,,,,,,,,,,,,,,,,,,,,,,,,,,,,,,,,,
,,,,,,,,,,,,l,0.720555,Correct!,,,,,,t3.png,t5.png,2,0.0565,19,Female,2020-10-20_12h57.14.501,torte-q,2020.1.3,Win32,60,13228,,,,,0,27,27,30,1,,,,,,,,,,,,,,,,,,,,,,,,,,,,,,,,,,,
,,,,,,,,,,,,l,0.636105,Incorrect,,,,,,t5.png,t5.png,0,0.97829,19,Female,2020-10-20_12h57.14.501,torte-q,2020.1.3,Win32,60,13228,,,,,0,28,28,25,1,,,,,,,,,,,,,,,,,,,,,,,,,,,,,,,,,,,
,,,,,,,,,,,,a,0.794655,Correct!,,,,,,t3.png,t4.png,1,0.909,19,Female,2020-10-20_12h57.14.501,torte-q,2020.1.3,Win32,60,13228,,,,,0,29,29,89,1,,,,,,,,,,,,,,,,,,,,,,,,,,,,,,,,,,,
,,,,,,,,,,,,l,0.657,Correct!,,,,,,t5.png,t3.png,2,0.056466,19,Female,2020-10-20_12h57.14.501,torte-q,2020.1.3,Win32,60,13228,,,,,0,30,30,114,1,,,,,,,,,,,,,,,,,,,,,,,,,,,,,,,,,,,
,,,,,,,,,,,,l,0.705595,Correct!,,,,,,t3.png,t5.png,2,0.056466,19,Female,2020-10-20_12h57.14.501,torte-q,2020.1.3,Win32,60,13228,,,,,0,31,31,14,1,,,,,,,,,,,,,,,,,,,,,,,,,,,,,,,,,,,
,,,,,,,,,,,,l,0.666865,Incorrect,,,,,,t1.png,t1.png,0,0.978,19,Female,2020-10-20_12h57.14.501,torte-q,2020.1.3,Win32,60,13228,,,,,0,32,32,54,1,,,,,,,,,,,,,,,,,,,,,,,,,,,,,,,,,,,
,,,,,,,,,,,,l,1.067315,Correct!,,,,,,t1.png,t3.png,2,0.056466,19,Female,2020-10-20_12h57.14.501,torte-q,2020.1.3,Win32,60,13228,,,,,0,33,33,87,1,,,,,,,,,,,,,,,,,,,,,,,,,,,,,,,,,,,
,,,,,,,,,,,,l,1.449735,Correct!,,,,,,t1.png,t4.png,3,0.0000131,19,Female,2020-10-20_12h57.14.501,torte-q,2020.1.3,Win32,60,13228,,,,,0,34,34,81,1,,,,,,,,,,,,,,,,,,,,,,,,,,,,,,,,,,,
,,,,,,,,,,,,a,0.96945,Correct!,,,,,,t2.png,t2.png,0,0.98115,19,Female,2020-10-20_12h57.14.501,torte-q,2020.1.3,Win32,60,13228,,,,,0,35,35,59,1,,,,,,,,,,,,,,,,,,,,,,,,,,,,,,,,,,,
,,,,,,,,,,,,a,1.071285,Incorrect,,,,,,t2.png,t5.png,3,0.0000131,19,Female,2020-10-20_12h57.14.501,torte-q,2020.1.3,Win32,60,13228,,,,,0,36,36,95,1,,,,,,,,,,,,,,,,,,,,,,,,,,,,,,,,,,,
,,,,,,,,,,,,l,1.17006,Correct!,,,,,,t2.png,t1.png,1,0.90025,19,Female,2020-10-20_12h57.14.501,torte-q,2020.1.3,Win32,60,13228,,,,,0,37,37,4,1,,,,,,,,,,,,,,,,,,,,,,,,,,,,,,,,,,,
,,,,,,,,,,,,l,1.14582,Correct!,,,,,,t1.png,t3.png,2,0.056466,19,Female,2020-10-20_12h57.14.501,torte-q,2020.1.3,Win32,60,13228,,,,,0,38,38,63,1,,,,,,,,,,,,,,,,,,,,,,,,,,,,,,,,,,,
,,,,,,,,,,,,a,1.17769,Incorrect,,,,,,t5.png,t3.png,2,0.056466,19,Female,2020-10-20_12h57.14.501,torte-q,2020.1.3,Win32,60,13228,,,,,0,39,39,38,1,,,,,,,,,,,,,,,,,,,,,,,,,,,,,,,,,,,
,,,,,,,,,,,,a,0.873725,Incorrect,,,,,,t4.png,t1.png,3,0.0000131,19,Female,2020-10-20_12h57.14.501,torte-q,2020.1.3,Win32,60,13228,,,,,0,40,40,48,1,,,,,,,,,,,,,,,,,,,,,,,,,,,,,,,,,,,
,,,,,,,,,,,,a,1.152545,Correct!,,,,,,t5.png,t5.png,0,0.97829,19,Female,2020-10-20_12h57.14.501,torte-q,2020.1.3,Win32,60,13228,,,,,0,41,41,73,1,,,,,,,,,,,,,,,,,,,,,,,,,,,,,,,,,,,
,,,,,,,,,,,,a,0.88479,Correct!,,,,,,t5.png,t5.png,0,0.978,19,Female,2020-10-20_12h57.14.501,torte-q,2020.1.3,Win32,60,13228,,,,,0,42,42,117,1,,,,,,,,,,,,,,,,,,,,,,,,,,,,,,,,,,,
,,,,,,,,,,,,a,1.12472,Incorrect,,,,,,t3.png,t4.png,1,0.909,19,Female,2020-10-20_12h57.14.501,torte-q,2020.1.3,Win32,60,13228,,,,,0,43,43,106,1,,,,,,,,,,,,,,,,,,,,,,,,,,,,,,,,,,,
,,,,,,,,,,,,l,1.172655,Incorrect,,,,,,t5.png,t4.png,1,0.90025,19,Female,2020-10-20_12h57.14.501,torte-q,2020.1.3,Win32,60,13228,,,,,0,44,44,34,1,,,,,,,,,,,,,,,,,,,,,,,,,,,,,,,,,,,
,,,,,,,,,,,,l,0.884565,Correct!,,,,,,t4.png,t1.png,3,0.0000131,19,Female,2020-10-20_12h57.14.501,torte-q,2020.1.3,Win32,60,13228,,,,,0,45,45,61,1,,,,,,,,,,,,,,,,,,,,,,,,,,,,,,,,,,,
,,,,,,,,,,,,l,1.030435,Incorrect,,,,,,t4.png,t3.png,1,0.909,19,Female,2020-10-20_12h57.14.501,torte-q,2020.1.3,Win32,60,13228,,,,,0,46,46,20,1,,,,,,,,,,,,,,,,,,,,,,,,,,,,,,,,,,,
,,,,,,,,,,,,a,1.00083,Correct!,,,,,,t3.png,t4.png,1,0.909,19,Female,2020-10-20_12h57.14.501,torte-q,2020.1.3,Win32,60,13228,,,,,0,47,47,82,1,,,,,,,,,,,,,,,,,,,,,,,,,,,,,,,,,,,
,,,,,,,,,,,,l,1.02074,Incorrect,,,,,,t4.png,t3.png,1,0.90855,19,Female,2020-10-20_12h57.14.501,torte-q,2020.1.3,Win32,60,13228,,,,,0,48,48,75,1,,,,,,,,,,,,,,,,,,,,,,,,,,,,,,,,,,,
,,,,,,,,,,,,l,0.710325,Incorrect,,,,,,t4.png,t4.png,0,0.98115,19,Female,2020-10-20_12h57.14.501,torte-q,2020.1.3,Win32,60,13228,,,,,0,49,49,79,1,,,,,,,,,,,,,,,,,,,,,,,,,,,,,,,,,,,
,,,,,,,,,,,,l,0.88407,Correct!,,,,,,t5.png,t2.png,3,0.0000131,19,Female,2020-10-20_12h57.14.501,torte-q,2020.1.3,Win32,60,13228,,,,,0,50,50,119,1,,,,,,,,,,,,,,,,,,,,,,,,,,,,,,,,,,,
,,,,,,,,,,,,l,0.8948,Incorrect,,,,,,t2.png,t2.png,0,0.981,19,Female,2020-10-20_12h57.14.501,torte-q,2020.1.3,Win32,60,13228,,,,,0,51,51,101,1,,,,,,,,,,,,,,,,,,,,,,,,,,,,,,,,,,,
,,,,,,,,,,,,l,1.166855,Incorrect,,,,,,t1.png,t2.png,1,0.90025,19,Female,2020-10-20_12h57.14.501,torte-q,2020.1.3,Win32,60,13228,,,,,0,52,52,72,1,,,,,,,,,,,,,,,,,,,,,,,,,,,,,,,,,,,
,,,,,,,,,,,,l,1.702755,Incorrect,,,,,,t4.png,t4.png,0,0.98115,19,Female,2020-10-20_12h57.14.501,torte-q,2020.1.3,Win32,60,13228,,,,,0,53,53,80,1,,,,,,,,,,,,,,,,,,,,,,,,,,,,,,,,,,,
,,,,,,,,,,,,a,1.037385,Incorrect,,,,,,t5.png,t1.png,4,9.55E-11,19,Female,2020-10-20_12h57.14.501,torte-q,2020.1.3,Win32,60,13228,,,,,0,54,54,71,1,,,,,,,,,,,,,,,,,,,,,,,,,,,,,,,,,,,
,,,,,,,,,,,,a,1.72221,Incorrect,,,,,,t5.png,t2.png,3,0.0000131,19,Female,2020-10-20_12h57.14.501,torte-q,2020.1.3,Win32,60,13228,,,,,0,55,55,116,1,,,,,,,,,,,,,,,,,,,,,,,,,,,,,,,,,,,
,,,,,,,,,,,,a,1.35902,Correct!,,,,,,t4.png,t3.png,1,0.90855,19,Female,2020-10-20_12h57.14.501,torte-q,2020.1.3,Win32,60,13228,,,,,0,56,56,45,1,,,,,,,,,,,,,,,,,,,,,,,,,,,,,,,,,,,
,,,,,,,,,,,,l,0.78555,Correct!,,,,,,t1.png,t4.png,3,0.0000131,19,Female,2020-10-20_12h57.14.501,torte-q,2020.1.3,Win32,60,13228,,,,,0,57,57,17,1,,,,,,,,,,,,,,,,,,,,,,,,,,,,,,,,,,,
,,,,,,,,,,,,a,0.951145,Correct!,,,,,,t1.png,t1.png,0,0.97829,19,Female,2020-10-20_12h57.14.501,torte-q,2020.1.3,Win32,60,13228,,,,,0,58,58,9,1,,,,,,,,,,,,,,,,,,,,,,,,,,,,,,,,,,,
,,,,,,,,,,,,l,1.22683,Incorrect,,,,,,t4.png,t3.png,1,0.909,19,Female,2020-10-20_12h57.14.501,torte-q,2020.1.3,Win32,60,13228,,,,,0,59,59,46,1,,,,,,,,,,,,,,,,,,,,,,,,,,,,,,,,,,,
,,,,,,,,,,,,l,1.23408,Incorrect,,,,,,t4.png,t4.png,0,0.98115,19,Female,2020-10-20_12h57.14.501,torte-q,2020.1.3,Win32,60,13228,,,,,0,60,60,90,1,,,,,,,,,,,,,,,,,,,,,,,,,,,,,,,,,,,
,,,,,,,,,,,,a,1.08679,Correct!,,,,,,t4.png,t3.png,1,0.90855,19,Female,2020-10-20_12h57.14.501,torte-q,2020.1.3,Win32,60,13228,,,,,0,61,61,35,1,,,,,,,,,,,,,,,,,,,,,,,,,,,,,,,,,,,
,,,,,,,,,,,,l,0.90788,Incorrect,,,,,,t5.png,t5.png,0,0.97829,19,Female,2020-10-20_12h57.14.501,torte-q,2020.1.3,Win32,60,13228,,,,,0,62,62,70,1,,,,,,,,,,,,,,,,,,,,,,,,,,,,,,,,,,,
,,,,,,,,,,,,l,0.98152,Incorrect,,,,,,t3.png,t2.png,1,0.90855,19,Female,2020-10-20_12h57.14.501,torte-q,2020.1.3,Win32,60,13228,,,,,0,63,63,18,1,,,,,,,,,,,,,,,,,,,,,,,,,,,,,,,,,,,
,,,,,,,,,,,,l,0.78277,Incorrect,,,,,,t4.png,t5.png,1,0.90025,19,Female,2020-10-20_12h57.14.501,torte-q,2020.1.3,Win32,60,13228,,,,,0,64,64,113,1,,,,,,,,,,,,,,,,,,,,,,,,,,,,,,,,,,,
,,,,,,,,,,,,a,1.41781,Incorrect,,,,,,t2.png,t5.png,3,0.0000131,19,Female,2020-10-20_12h57.14.501,torte-q,2020.1.3,Win32,60,13228,,,,,0,65,65,66,1,,,,,,,,,,,,,,,,,,,,,,,,,,,,,,,,,,,
,,,,,,,,,,,,l,0.781355,Correct!,,,,,,t2.png,t4.png,2,0.059078,19,Female,2020-10-20_12h57.14.501,torte-q,2020.1.3,Win32,60,13228,,,,,0,66,66,77,1,,,,,,,,,,,,,,,,,,,,,,,,,,,,,,,,,,,
,,,,,,,,,,,,l,1.05874,Incorrect,,,,,,t1.png,t2.png,1,0.90025,19,Female,2020-10-20_12h57.14.501,torte-q,2020.1.3,Win32,60,13228,,,,,0,67,67,105,1,,,,,,,,,,,,,,,,,,,,,,,,,,,,,,,,,,,
,,,,,,,,,,,,l,1.1311,Incorrect,,,,,,t3.png,t2.png,1,0.909,19,Female,2020-10-20_12h57.14.501,torte-q,2020.1.3,Win32,60,13228,,,,,0,68,68,23,1,,,,,,,,,,,,,,,,,,,,,,,,,,,,,,,,,,,
,,,,,,,,,,,,l,1.41548,Incorrect,,,,,,t3.png,t4.png,1,0.90855,19,Female,2020-10-20_12h57.14.501,torte-q,2020.1.3,Win32,60,13228,,,,,0,69,69,84,1,,,,,,,,,,,,,,,,,,,,,,,,,,,,,,,,,,,
,,,,,,,,,,,,l,0.906735,Correct!,,,,,,t1.png,t5.png,4,9.55E-11,19,Female,2020-10-20_12h57.14.501,torte-q,2020.1.3,Win32,60,13228,,,,,0,70,70,16,1,,,,,,,,,,,,,,,,,,,,,,,,,,,,,,,,,,,
,,,,,,,,,,,,a,1.11554,Correct!,,,,,,t5.png,t5.png,0,0.97829,19,Female,2020-10-20_12h57.14.501,torte-q,2020.1.3,Win32,60,13228,,,,,0,71,71,94,1,,,,,,,,,,,,,,,,,,,,,,,,,,,,,,,,,,,
,,,,,,,,,,,,a,1.02691,Incorrect,,,,,,t2.png,t2.png,0,0.98115,19,Female,2020-10-20_12h57.14.501,torte-q,2020.1.3,Win32,60,13228,,,,,0,72,72,57,1,,,,,,,,,,,,,,,,,,,,,,,,,,,,,,,,,,,
,,,,,,,,,,,,l,1.18252,Correct!,,,,,,t5.png,t3.png,2,0.0565,19,Female,2020-10-20_12h57.14.501,torte-q,2020.1.3,Win32,60,13228,,,,,0,73,73,39,1,,,,,,,,,,,,,,,,,,,,,,,,,,,,,,,,,,,
,,,,,,,,,,,,l,1.115945,Incorrect,,,,,,t2.png,t1.png,1,0.9,19,Female,2020-10-20_12h57.14.501,torte-q,2020.1.3,Win32,60,13228,,,,,0,74,74,118,1,,,,,,,,,,,,,,,,,,,,,,,,,,,,,,,,,,,
,,,,,,,,,,,,a,1.31916,Correct!,,,,,,t2.png,t2.png,0,0.98115,19,Female,2020-10-20_12h57.14.501,torte-q,2020.1.3,Win32,60,13228,,,,,0,75,75,2,1,,,,,,,,,,,,,,,,,,,,,,,,,,,,,,,,,,,
,,,,,,,,,,,,l,0.88295,Correct!,,,,,,t5.png,t1.png,4,9.55E-11,19,Female,2020-10-20_12h57.14.501,torte-q,2020.1.3,Win32,60,13228,,,,,0,76,76,43,1,,,,,,,,,,,,,,,,,,,,,,,,,,,,,,,,,,,
,,,,,,,,,,,,a,1.42455,Incorrect,,,,,,t5.png,t2.png,3,0.0000131,19,Female,2020-10-20_12h57.14.501,torte-q,2020.1.3,Win32,60,13228,,,,,0,77,77,91,1,,,,,,,,,,,,,,,,,,,,,,,,,,,,,,,,,,,
,,,,,,,,,,,,l,1.148535,Incorrect,,,,,,t1.png,t2.png,1,0.9,19,Female,2020-10-20_12h57.14.501,torte-q,2020.1.3,Win32,60,13228,,,,,0,78,78,1,1,,,,,,,,,,,,,,,,,,,,,,,,,,,,,,,,,,,
,,,,,,,,,,,,a,1.304205,Incorrect,,,,,,t2.png,t5.png,3,0.0000131,19,Female,2020-10-20_12h57.14.501,torte-q,2020.1.3,Win32,60,13228,,,,,0,79,79,40,1,,,,,,,,,,,,,,,,,,,,,,,,,,,,,,,,,,,
,,,,,,,,,,,,a,1.073675,Correct!,,,,,,t1.png,t1.png,0,0.97829,19,Female,2020-10-20_12h57.14.501,torte-q,2020.1.3,Win32,60,13228,,,,,0,80,80,67,1,,,,,,,,,,,,,,,,,,,,,,,,,,,,,,,,,,,
,,,,,,,,,,,,l,1.8817,Incorrect,,,,,,t3.png,t2.png,1,0.909,19,Female,2020-10-20_12h57.14.501,torte-q,2020.1.3,Win32,60,13228,,,,,0,81,81,3,1,,,,,,,,,,,,,,,,,,,,,,,,,,,,,,,,,,,
,,,,,,,,,,,,a,2.3062,Correct!,,,,,,t3.png,t4.png,1,0.90855,19,Female,2020-10-20_12h57.14.501,torte-q,2020.1.3,Win32,60,13228,,,,,0,82,82,96,1,,,,,,,,,,,,,,,,,,,,,,,,,,,,,,,,,,,
,,,,,,,,,,,,l,1.585,Incorrect,,,,,,t2.png,t3.png,1,0.90855,19,Female,2020-10-20_12h57.14.501,torte-q,2020.1.3,Win32,60,13228,,,,,0,83,83,68,1,,,,,,,,,,,,,,,,,,,,,,,,,,,,,,,,,,,
,,,,,,,,,,,,l,1.685895,Correct!,,,,,,t2.png,t4.png,2,0.059078,19,Female,2020-10-20_12h57.14.501,torte-q,2020.1.3,Win32,60,13228,,,,,0,84,84,11,1,,,,,,,,,,,,,,,,,,,,,,,,,,,,,,,,,,,
,,,,,,,,,,,,a,1.257365,Incorrect,,,,,,t1.png,t4.png,3,0.0000131,19,Female,2020-10-20_12h57.14.501,torte-q,2020.1.3,Win32,60,13228,,,,,0,85,85,50,1,,,,,,,,,,,,,,,,,,,,,,,,,,,,,,,,,,,
,,,,,,,,,,,,a,1.37035,Correct!,,,,,,t1.png,t1.png,0,0.97829,19,Female,2020-10-20_12h57.14.501,torte-q,2020.1.3,Win32,60,13228,,,,,0,86,86,78,1,,,,,,,,,,,,,,,,,,,,,,,,,,,,,,,,,,,
,,,,,,,,,,,,l,1.20312,Correct!,,,,,,t4.png,t1.png,3,0.0000131,19,Female,2020-10-20_12h57.14.501,torte-q,2020.1.3,Win32,60,13228,,,,,0,87,87,42,1,,,,,,,,,,,,,,,,,,,,,,,,,,,,,,,,,,,
,,,,,,,,,,,,l,1.81274,Incorrect,,,,,,t5.png,t4.png,1,0.90025,19,Female,2020-10-20_12h57.14.501,torte-q,2020.1.3,Win32,60,13228,,,,,0,88,88,26,1,,,,,,,,,,,,,,,,,,,,,,,,,,,,,,,,,,,
,,,,,,,,,,,,l,1.55717,Incorrect,,,,,,t4.png,t5.png,1,0.90025,19,Female,2020-10-20_12h57.14.501,torte-q,2020.1.3,Win32,60,13228,,,,,0,89,89,47,1,,,,,,,,,,,,,,,,,,,,,,,,,,,,,,,,,,,
,,,,,,,,,,,,l,1.10504,Correct!,,,,,,t4.png,t2.png,2,0.059078,19,Female,2020-10-20_12h57.14.501,torte-q,2020.1.3,Win32,60,13228,,,,,0,90,90,88,1,,,,,,,,,,,,,,,,,,,,,,,,,,,,,,,,,,,
,,,,,,,,,,,,a,1.10827,Incorrect,,,,,,t3.png,t1.png,2,0.056466,19,Female,2020-10-20_12h57.14.501,torte-q,2020.1.3,Win32,60,13228,,,,,0,91,91,29,1,,,,,,,,,,,,,,,,,,,,,,,,,,,,,,,,,,,
,,,,,,,,,,,,l,1.59045,Correct!,,,,,,t2.png,t4.png,2,0.059078,19,Female,2020-10-20_12h57.14.501,torte-q,2020.1.3,Win32,60,13228,,,,,0,92,92,37,1,,,,,,,,,,,,,,,,,,,,,,,,,,,,,,,,,,,
,,,,,,,,,,,,l,1.098045,Correct!,,,,,,t1.png,t4.png,3,0.0000131,19,Female,2020-10-20_12h57.14.501,torte-q,2020.1.3,Win32,60,13228,,,,,0,93,93,107,1,,,,,,,,,,,,,,,,,,,,,,,,,,,,,,,,,,,
,,,,,,,,,,,,l,0.95305,Correct!,,,,,,t4.png,t1.png,3,0.0000131,19,Female,2020-10-20_12h57.14.501,torte-q,2020.1.3,Win32,60,13228,,,,,0,94,94,13,1,,,,,,,,,,,,,,,,,,,,,,,,,,,,,,,,,,,
,,,,,,,,,,,,a,1.19064,Correct!,,,,,,t5.png,t4.png,1,0.9,19,Female,2020-10-20_12h57.14.501,torte-q,2020.1.3,Win32,60,13228,,,,,0,95,95,49,1,,,,,,,,,,,,,,,,,,,,,,,,,,,,,,,,,,,
,,,,,,,,,,,,l,0.964335,Correct!,,,,,,t1.png,t5.png,4,9.55E-11,19,Female,2020-10-20_12h57.14.501,torte-q,2020.1.3,Win32,60,13228,,,,,0,96,96,12,1,,,,,,,,,,,,,,,,,,,,,,,,,,,,,,,,,,,
,,,,,,,,,,,,a,1.58807,Incorrect,,,,,,t1.png,t3.png,2,0.056466,19,Female,2020-10-20_12h57.14.501,torte-q,2020.1.3,Win32,60,13228,,,,,0,97,97,60,1,,,,,,,,,,,,,,,,,,,,,,,,,,,,,,,,,,,
,,,,,,,,,,,,a,1.41425,Incorrect,,,,,,t3.png,t5.png,2,0.056466,19,Female,2020-10-20_12h57.14.501,torte-q,2020.1.3,Win32,60,13228,,,,,0,98,98,6,1,,,,,,,,,,,,,,,,,,,,,,,,,,,,,,,,,,,
,,,,,,,,,,,,l,1.196895,Incorrect,,,,,,t1.png,t2.png,1,0.90025,19,Female,2020-10-20_12h57.14.501,torte-q,2020.1.3,Win32,60,13228,,,,,0,99,99,112,1,,,,,,,,,,,,,,,,,,,,,,,,,,,,,,,,,,,
,,,,,,,,,,,,l,1.06889,Correct!,,,,,,t2.png,t5.png,3,0.0000131,19,Female,2020-10-20_12h57.14.501,torte-q,2020.1.3,Win32,60,13228,,,,,0,100,100,104,1,,,,,,,,,,,,,,,,,,,,,,,,,,,,,,,,,,,
,,,,,,,,,,,,a,1.1487,Correct!,,,,,,t1.png,t1.png,0,0.978,19,Female,2020-10-20_12h57.14.501,torte-q,2020.1.3,Win32,60,13228,,,,,0,101,101,28,1,,,,,,,,,,,,,,,,,,,,,,,,,,,,,,,,,,,
,,,,,,,,,,,,l,1.39801,Correct!,,,,,,t2.png,t5.png,3,0.0000131,19,Female,2020-10-20_12h57.14.501,torte-q,2020.1.3,Win32,60,13228,,,,,0,102,102,8,1,,,,,,,,,,,,,,,,,,,,,,,,,,,,,,,,,,,
,,,,,,,,,,,,l,0.842695,Correct!,,,,,,t4.png,t2.png,2,0.0591,19,Female,2020-10-20_12h57.14.501,torte-q,2020.1.3,Win32,60,13228,,,,,0,103,103,36,1,,,,,,,,,,,,,,,,,,,,,,,,,,,,,,,,,,,
,,,,,,,,,,,,a,1.1517,Incorrect,,,,,,t3.png,t1.png,2,0.056466,19,Female,2020-10-20_12h57.14.501,torte-q,2020.1.3,Win32,60,13228,,,,,0,104,104,32,1,,,,,,,,,,,,,,,,,,,,,,,,,,,,,,,,,,,
,,,,,,,,,,,,l,1.765745,Correct!,,,,,,t3.png,t2.png,1,0.90855,19,Female,2020-10-20_12h57.14.501,torte-q,2020.1.3,Win32,60,13228,,,,,0,105,105,53,1,,,,,,,,,,,,,,,,,,,,,,,,,,,,,,,,,,,
,,,,,,,,,,,,a,1.310835,Incorrect,,,,,,t1.png,t3.png,2,0.056466,19,Female,2020-10-20_12h57.14.501,torte-q,2020.1.3,Win32,60,13228,,,,,0,106,106,99,1,,,,,,,,,,,,,,,,,,,,,,,,,,,,,,,,,,,
,,,,,,,,,,,,l,0.833045,Incorrect,,,,,,t2.png,t1.png,1,0.90025,19,Female,2020-10-20_12h57.14.501,torte-q,2020.1.3,Win32,60,13228,,,,,0,107,107,62,1,,,,,,,,,,,,,,,,,,,,,,,,,,,,,,,,,,,
,,,,,,,,,,,,a,1.25528,Incorrect,,,,,,t2.png,t4.png,2,0.0591,19,Female,2020-10-20_12h57.14.501,torte-q,2020.1.3,Win32,60,13228,,,,,0,108,108,15,1,,,,,,,,,,,,,,,,,,,,,,,,,,,,,,,,,,,
,,,,,,,,,,,,l,0.722645,Correct!,,,,,,t1.png,t5.png,4,9.55E-11,19,Female,2020-10-20_12h57.14.501,torte-q,2020.1.3,Win32,60,13228,,,,,0,109,109,41,1,,,,,,,,,,,,,,,,,,,,,,,,,,,,,,,,,,,
,,,,,,,,,,,,a,1.201205,Incorrect,,,,,,t3.png,t1.png,2,0.0565,19,Female,2020-10-20_12h57.14.501,torte-q,2020.1.3,Win32,60,13228,,,,,0,110,110,31,1,,,,,,,,,,,,,,,,,,,,,,,,,,,,,,,,,,,
,,,,,,,,,,,,l,1.247415,Correct!,,,,,,t5.png,t2.png,3,0.0000131,19,Female,2020-10-20_12h57.14.501,torte-q,2020.1.3,Win32,60,13228,,,,,0,111,111,51,1,,,,,,,,,,,,,,,,,,,,,,,,,,,,,,,,,,,
,,,,,,,,,,,,l,0.88103,Correct!,,,,,,t2.png,t4.png,2,0.059078,19,Female,2020-10-20_12h57.14.501,torte-q,2020.1.3,Win32,60,13228,,,,,0,112,112,24,1,,,,,,,,,,,,,,,,,,,,,,,,,,,,,,,,,,,
,,,,,,,,,,,,l,0.98225,Correct!,,,,,,t4.png,t2.png,2,0.059078,19,Female,2020-10-20_12h57.14.501,torte-q,2020.1.3,Win32,60,13228,,,,,0,113,113,109,1,,,,,,,,,,,,,,,,,,,,,,,,,,,,,,,,,,,
,,,,,,,,,,,,l,0.714645,Correct!,,,,,,t4.png,t2.png,2,0.059078,19,Female,2020-10-20_12h57.14.501,torte-q,2020.1.3,Win32,60,13228,,,,,0,114,114,86,1,,,,,,,,,,,,,,,,,,,,,,,,,,,,,,,,,,,
,,,,,,,,,,,,l,0.81268,Correct!,,,,,,t1.png,t5.png,4,9.55E-11,19,Female,2020-10-20_12h57.14.501,torte-q,2020.1.3,Win32,60,13228,,,,,0,115,115,55,1,,,,,,,,,,,,,,,,,,,,,,,,,,,,,,,,,,,
,,,,,,,,,,,,l,1.01189,Incorrect,,,,,,t2.png,t3.png,1,0.90855,19,Female,2020-10-20_12h57.14.501,torte-q,2020.1.3,Win32,60,13228,,,,,0,116,116,10,1,,,,,,,,,,,,,,,,,,,,,,,,,,,,,,,,,,,
,,,,,,,,,,,,a,1.164195,Incorrect,,,,,,t3.png,t5.png,2,0.056466,19,Female,2020-10-20_12h57.14.501,torte-q,2020.1.3,Win32,60,13228,,,,,0,117,117,44,1,,,,,,,,,,,,,,,,,,,,,,,,,,,,,,,,,,,
,,,,,,,,,,,,a,1.30294,Correct!,,,,,,t2.png,t3.png,1,0.90855,19,Female,2020-10-20_12h57.14.501,torte-q,2020.1.3,Win32,60,13228,,,,,0,118,118,111,1,,,,,,,,,,,,,,,,,,,,,,,,,,,,,,,,,,,
,,,,,,,,,,,,l,1.098495,Incorrect,,,,,,t4.png,t4.png,0,0.98115,19,Female,2020-10-20_12h57.14.501,torte-q,2020.1.3,Win32,60,13228,,,,,0,119,119,21,1,,,,,,,,,,,,,,,,,,,,,,,,,,,,,,,,,,,
,,,,,,,,,,,,l,1.001295,Correct!,,,,,,t2.png,t4.png,2,0.059078,19,Female,2020-10-20_12h57.14.501,torte-q,2020.1.3,Win32,60,13228,space,1.584785,,,,,,,,N/A,9.84469,space,8.244035,0,0,0,11,1,,,,,,,,,,,,,,,,,,,,,,,,,,
,,,,,,,,,,,,a,0.847175,Correct!,,,,,,t1.png,t1.png,0,0.97829,19,Female,2020-10-20_12h57.14.501,torte-q,2020.1.3,Win32,60,13228,,,,,,,,,,,,,,0,1,1,67,1,,,,,,,,,,,,,,,,,,,,,,,,,,
,,,,,,,,,,,,l,1.09043,Correct!,,,,,,t1.png,t4.png,3,0.0000131,19,Female,2020-10-20_12h57.14.501,torte-q,2020.1.3,Win32,60,13228,,,,,,,,,,,,,,0,2,2,81,1,,,,,,,,,,,,,,,,,,,,,,,,,,
,,,,,,,,,,,,l,0.95766,Incorrect,,,,,,t5.png,t5.png,0,0.97829,19,Female,2020-10-20_12h57.14.501,torte-q,2020.1.3,Win32,60,13228,,,,,,,,,,,,,,0,3,3,73,1,,,,,,,,,,,,,,,,,,,,,,,,,,
,,,,,,,,,,,,a,1.034085,Incorrect,,,,,,t3.png,t5.png,2,0.0565,19,Female,2020-10-20_12h57.14.501,torte-q,2020.1.3,Win32,60,13228,,,,,,,,,,,,,,0,4,4,30,1,,,,,,,,,,,,,,,,,,,,,,,,,,
,,,,,,,,,,,,l,0.815725,Incorrect,,,,,,t4.png,t5.png,1,0.9,19,Female,2020-10-20_12h57.14.501,torte-q,2020.1.3,Win32,60,13228,,,,,,,,,,,,,,0,5,5,115,1,,,,,,,,,,,,,,,,,,,,,,,,,,
,,,,,,,,,,,,l,1.01492,Incorrect,,,,,,t2.png,t2.png,0,0.98115,19,Female,2020-10-20_12h57.14.501,torte-q,2020.1.3,Win32,60,13228,,,,,,,,,,,,,,0,6,6,59,1,,,,,,,,,,,,,,,,,,,,,,,,,,
,,,,,,,,,,,,a,1.08767,Incorrect,,,,,,t3.png,t1.png,2,0.056466,19,Female,2020-10-20_12h57.14.501,torte-q,2020.1.3,Win32,60,13228,,,,,,,,,,,,,,0,7,7,0,1,,,,,,,,,,,,,,,,,,,,,,,,,,
,,,,,,,,,,,,l,1.031005,Correct!,,,,,,t2.png,t4.png,2,0.059078,19,Female,2020-10-20_12h57.14.501,torte-q,2020.1.3,Win32,60,13228,,,,,,,,,,,,,,0,8,8,77,1,,,,,,,,,,,,,,,,,,,,,,,,,,
,,,,,,,,,,,,a,0.982065,Correct!,,,,,,t3.png,t2.png,1,0.909,19,Female,2020-10-20_12h57.14.501,torte-q,2020.1.3,Win32,60,13228,,,,,,,,,,,,,,0,9,9,3,1,,,,,,,,,,,,,,,,,,,,,,,,,,
,,,,,,,,,,,,a,1.18478,Correct!,,,,,,t4.png,t5.png,1,0.90025,19,Female,2020-10-20_12h57.14.501,torte-q,2020.1.3,Win32,60,13228,,,,,,,,,,,,,,0,10,10,103,1,,,,,,,,,,,,,,,,,,,,,,,,,,
,,,,,,,,,,,,a,1.91594,Correct!,,,,,,t1.png,t2.png,1,0.90025,19,Female,2020-10-20_12h57.14.501,torte-q,2020.1.3,Win32,60,13228,,,,,,,,,,,,,,0,11,11,33,1,,,,,,,,,,,,,,,,,,,,,,,,,,
,,,,,,,,,,,,l,1.084065,Incorrect,,,,,,t2.png,t4.png,2,0.0591,19,Female,2020-10-20_12h57.14.501,torte-q,2020.1.3,Win32,60,13228,,,,,,,,,,,,,,0,12,12,15,1,,,,,,,,,,,,,,,,,,,,,,,,,,
,,,,,,,,,,,,l,0.934295,Correct!,,,,,,t1.png,t5.png,4,9.55E-11,19,Female,2020-10-20_12h57.14.501,torte-q,2020.1.3,Win32,60,13228,,,,,,,,,,,,,,0,13,13,12,1,,,,,,,,,,,,,,,,,,,,,,,,,,
,,,,,,,,,,,,l,0.93354,Correct!,,,,,,t4.png,t2.png,2,0.0591,19,Female,2020-10-20_12h57.14.501,torte-q,2020.1.3,Win32,60,13228,,,,,,,,,,,,,,0,14,14,36,1,,,,,,,,,,,,,,,,,,,,,,,,,,
,,,,,,,,,,,,a,1.283835,Correct!,,,,,,t4.png,t3.png,1,0.909,19,Female,2020-10-20_12h57.14.501,torte-q,2020.1.3,Win32,60,13228,,,,,,,,,,,,,,0,15,15,46,1,,,,,,,,,,,,,,,,,,,,,,,,,,
,,,,,,,,,,,,l,1.0675,Incorrect,,,,,,t2.png,t1.png,1,0.90025,19,Female,2020-10-20_12h57.14.501,torte-q,2020.1.3,Win32,60,13228,,,,,,,,,,,,,,0,16,16,62,1,,,,,,,,,,,,,,,,,,,,,,,,,,
,,,,,,,,,,,,a,1.283925,Correct!,,,,,,t4.png,t4.png,0,0.98115,19,Female,2020-10-20_12h57.14.501,torte-q,2020.1.3,Win32,60,13228,,,,,,,,,,,,,,0,17,17,21,1,,,,,,,,,,,,,,,,,,,,,,,,,,
,,,,,,,,,,,,l,1.084285,Incorrect,,,,,,t5.png,t5.png,0,0.97829,19,Female,2020-10-20_12h57.14.501,torte-q,2020.1.3,Win32,60,13228,,,,,,,,,,,,,,0,18,18,70,1,,,,,,,,,,,,,,,,,,,,,,,,,,
,,,,,,,,,,,,l,0.950835,Correct!,,,,,,t5.png,t2.png,3,0.0000131,19,Female,2020-10-20_12h57.14.501,torte-q,2020.1.3,Win32,60,13228,,,,,,,,,,,,,,0,19,19,116,1,,,,,,,,,,,,,,,,,,,,,,,,,,
,,,,,,,,,,,,l,0.917845,Correct!,,,,,,t1.png,t5.png,4,9.55E-11,19,Female,2020-10-20_12h57.14.501,torte-q,2020.1.3,Win32,60,13228,,,,,,,,,,,,,,0,20,20,16,1,,,,,,,,,,,,,,,,,,,,,,,,,,
,,,,,,,,,,,,l,1.234135,Incorrect,,,,,,t5.png,t4.png,1,0.9,19,Female,2020-10-20_12h57.14.501,torte-q,2020.1.3,Win32,60,13228,,,,,,,,,,,,,,0,21,21,76,1,,,,,,,,,,,,,,,,,,,,,,,,,,
,,,,,,,,,,,,l,0.701035,Correct!,,,,,,t4.png,t1.png,3,0.0000131,19,Female,2020-10-20_12h57.14.501,torte-q,2020.1.3,Win32,60,13228,,,,,,,,,,,,,,0,22,22,93,1,,,,,,,,,,,,,,,,,,,,,,,,,,
,,,,,,,,,,,,l,0.850875,Incorrect,,,,,,t4.png,t4.png,0,0.98115,19,Female,2020-10-20_12h57.14.501,torte-q,2020.1.3,Win32,60,13228,,,,,,,,,,,,,,0,23,23,52,1,,,,,,,,,,,,,,,,,,,,,,,,,,
,,,,,,,,,,,,l,0.80094,Correct!,,,,,,t4.png,t1.png,3,0.0000131,19,Female,2020-10-20_12h57.14.501,torte-q,2020.1.3,Win32,60,13228,,,,,,,,,,,,,,0,24,24,48,1,,,,,,,,,,,,,,,,,,,,,,,,,,
,,,,,,,,,,,,l,0.75115,Incorrect,,,,,,t3.png,t4.png,1,0.909,19,Female,2020-10-20_12h57.14.501,torte-q,2020.1.3,Win32,60,13228,,,,,,,,,,,,,,0,25,25,89,1,,,,,,,,,,,,,,,,,,,,,,,,,,
,,,,,,,,,,,,l,0.634345,Correct!,,,,,,t5.png,t1.png,4,9.55E-11,19,Female,2020-10-20_12h57.14.501,torte-q,2020.1.3,Win32,60,13228,,,,,,,,,,,,,,0,26,26,71,1,,,,,,,,,,,,,,,,,,,,,,,,,,
,,,,,,,,,,,,l,0.790985,Incorrect,,,,,,t3.png,t2.png,1,0.90855,19,Female,2020-10-20_12h57.14.501,torte-q,2020.1.3,Win32,60,13228,,,,,,,,,,,,,,0,27,27,18,1,,,,,,,,,,,,,,,,,,,,,,,,,,
,,,,,,,,,,,,l,1.01358,Incorrect,,,,,,t5.png,t5.png,0,0.978,19,Female,2020-10-20_12h57.14.501,torte-q,2020.1.3,Win32,60,13228,,,,,,,,,,,,,,0,28,28,117,1,,,,,,,,,,,,,,,,,,,,,,,,,,
,,,,,,,,,,,,l,0.64566,Incorrect,,,,,,t4.png,t4.png,0,0.98115,19,Female,2020-10-20_12h57.14.501,torte-q,2020.1.3,Win32,60,13228,,,,,,,,,,,,,,0,29,29,79,1,,,,,,,,,,,,,,,,,,,,,,,,,,
,,,,,,,,,,,,l,0.668885,Incorrect,,,,,,t4.png,t5.png,1,0.90025,19,Female,2020-10-20_12h57.14.501,torte-q,2020.1.3,Win32,60,13228,,,,,,,,,,,,,,0,30,30,113,1,,,,,,,,,,,,,,,,,,,,,,,,,,
,,,,,,,,,,,,l,0.858955,Correct!,,,,,,t4.png,t1.png,3,0.0000131,19,Female,2020-10-20_12h57.14.501,torte-q,2020.1.3,Win32,60,13228,,,,,,,,,,,,,,0,31,31,42,1,,,,,,,,,,,,,,,,,,,,,,,,,,
,,,,,,,,,,,,a,0.96675,Incorrect,,,,,,t3.png,t5.png,2,0.0565,19,Female,2020-10-20_12h57.14.501,torte-q,2020.1.3,Win32,60,13228,,,,,,,,,,,,,,0,32,32,83,1,,,,,,,,,,,,,,,,,,,,,,,,,,
,,,,,,,,,,,,a,0.907945,Incorrect,,,,,,t5.png,t3.png,2,0.056466,19,Female,2020-10-20_12h57.14.501,torte-q,2020.1.3,Win32,60,13228,,,,,,,,,,,,,,0,33,33,108,1,,,,,,,,,,,,,,,,,,,,,,,,,,
,,,,,,,,,,,,l,0.95297,Correct!,,,,,,t1.png,t4.png,3,0.0000131,19,Female,2020-10-20_12h57.14.501,torte-q,2020.1.3,Win32,60,13228,,,,,,,,,,,,,,0,34,34,107,1,,,,,,,,,,,,,,,,,,,,,,,,,,
,,,,,,,,,,,,l,1.15071,Correct!,,,,,,t1.png,t3.png,2,0.056466,19,Female,2020-10-20_12h57.14.501,torte-q,2020.1.3,Win32,60,13228,,,,,,,,,,,,,,0,35,35,87,1,,,,,,,,,,,,,,,,,,,,,,,,,,
,,,,,,,,,,,,l,1.15043,Correct!,,,,,,t1.png,t4.png,3,0.0000131,19,Female,2020-10-20_12h57.14.501,torte-q,2020.1.3,Win32,60,13228,,,,,,,,,,,,,,0,36,36,17,1,,,,,,,,,,,,,,,,,,,,,,,,,,
,,,,,,,,,,,,l,0.900825,Incorrect,,,,,,t5.png,t4.png,1,0.9,19,Female,2020-10-20_12h57.14.501,torte-q,2020.1.3,Win32,60,13228,,,,,,,,,,,,,,0,37,37,49,1,,,,,,,,,,,,,,,,,,,,,,,,,,
,,,,,,,,,,,,a,1.067605,Correct!,,,,,,t1.png,t1.png,0,0.978,19,Female,2020-10-20_12h57.14.501,torte-q,2020.1.3,Win32,60,13228,,,,,,,,,,,,,,0,38,38,54,1,,,,,,,,,,,,,,,,,,,,,,,,,,
,,,,,,,,,,,,a,1.72414,Correct!,,,,,,t2.png,t2.png,0,0.98115,19,Female,2020-10-20_12h57.14.501,torte-q,2020.1.3,Win32,60,13228,,,,,,,,,,,,,,0,39,39,2,1,,,,,,,,,,,,,,,,,,,,,,,,,,
,,,,,,,,,,,,l,1.20952,Correct!,,,,,,t2.png,t5.png,3,0.0000131,19,Female,2020-10-20_12h57.14.501,torte-q,2020.1.3,Win32,60,13228,,,,,,,,,,,,,,0,40,40,104,1,,,,,,,,,,,,,,,,,,,,,,,,,,
,,,,,,,,,,,,l,1.04477,Correct!,,,,,,t4.png,t2.png,2,0.059078,19,Female,2020-10-20_12h57.14.501,torte-q,2020.1.3,Win32,60,13228,,,,,,,,,,,,,,0,41,41,109,1,,,,,,,,,,,,,,,,,,,,,,,,,,
,,,,,,,,,,,,a,1.150625,Correct!,,,,,,t4.png,t3.png,1,0.90855,19,Female,2020-10-20_12h57.14.501,torte-q,2020.1.3,Win32,60,13228,,,,,,,,,,,,,,0,42,42,35,1,,,,,,,,,,,,,,,,,,,,,,,,,,
,,,,,,,,,,,,l,0.835775,Incorrect,,,,,,t2.png,t1.png,1,0.90025,19,Female,2020-10-20_12h57.14.501,torte-q,2020.1.3,Win32,60,13228,,,,,,,,,,,,,,0,43,43,5,1,,,,,,,,,,,,,,,,,,,,,,,,,,
,,,,,,,,,,,,l,1.12014,Correct!,,,,,,t5.png,t2.png,3,0.0000131,19,Female,2020-10-20_12h57.14.501,torte-q,2020.1.3,Win32,60,13228,,,,,,,,,,,,,,0,44,44,119,1,,,,,,,,,,,,,,,,,,,,,,,,,,
,,,,,,,,,,,,a,1.177745,Correct!,,,,,,t2.png,t3.png,1,0.90855,19,Female,2020-10-20_12h57.14.501,torte-q,2020.1.3,Win32,60,13228,,,,,,,,,,,,,,0,45,45,111,1,,,,,,,,,,,,,,,,,,,,,,,,,,
,,,,,,,,,,,,l,1.31687,Incorrect,,,,,,t5.png,t4.png,1,0.90025,19,Female,2020-10-20_12h57.14.501,torte-q,2020.1.3,Win32,60,13228,,,,,,,,,,,,,,0,46,46,27,1,,,,,,,,,,,,,,,,,,,,,,,,,,
,,,,,,,,,,,,l,1.10802,Correct!,,,,,,t2.png,t5.png,3,0.0000131,19,Female,2020-10-20_12h57.14.501,torte-q,2020.1.3,Win32,60,13228,,,,,,,,,,,,,,0,47,47,95,1,,,,,,,,,,,,,,,,,,,,,,,,,,
,,,,,,,,,,,,l,1.042505,Correct!,,,,,,t5.png,t3.png,2,0.0565,19,Female,2020-10-20_12h57.14.501,torte-q,2020.1.3,Win32,60,13228,,,,,,,,,,,,,,0,48,48,39,1,,,,,,,,,,,,,,,,,,,,,,,,,,
,,,,,,,,,,,,l,1.050795,Correct!,,,,,,t1.png,t3.png,2,0.056466,19,Female,2020-10-20_12h57.14.501,torte-q,2020.1.3,Win32,60,13228,,,,,,,,,,,,,,0,49,49,99,1,,,,,,,,,,,,,,,,,,,,,,,,,,
,,,,,,,,,,,,l,0.82368,Correct!,,,,,,t2.png,t4.png,2,0.059078,19,Female,2020-10-20_12h57.14.501,torte-q,2020.1.3,Win32,60,13228,,,,,,,,,,,,,,0,50,50,37,1,,,,,,,,,,,,,,,,,,,,,,,,,,
,,,,,,,,,,,,a,1.40165,Correct!,,,,,,t1.png,t2.png,1,0.90025,19,Female,2020-10-20_12h57.14.501,torte-q,2020.1.3,Win32,60,13228,,,,,,,,,,,,,,0,51,51,72,1,,,,,,,,,,,,,,,,,,,,,,,,,,
,,,,,,,,,,,,l,1.33337,Correct!,,,,,,t2.png,t5.png,3,0.0000131,19,Female,2020-10-20_12h57.14.501,torte-q,2020.1.3,Win32,60,13228,,,,,,,,,,,,,,0,52,52,8,1,,,,,,,,,,,,,,,,,,,,,,,,,,
,,,,,,,,,,,,a,1.070005,Correct!,,,,,,t2.png,t3.png,1,0.90855,19,Female,2020-10-20_12h57.14.501,torte-q,2020.1.3,Win32,60,13228,,,,,,,,,,,,,,0,53,53,65,1,,,,,,,,,,,,,,,,,,,,,,,,,,
,,,,,,,,,,,,l,1.26711,Correct!,,,,,,t3.png,t1.png,2,0.056466,19,Female,2020-10-20_12h57.14.501,torte-q,2020.1.3,Win32,60,13228,,,,,,,,,,,,,,0,54,54,64,1,,,,,,,,,,,,,,,,,,,,,,,,,,
,,,,,,,,,,,,l,1.256075,Incorrect,,,,,,t4.png,t3.png,1,0.90855,19,Female,2020-10-20_12h57.14.501,torte-q,2020.1.3,Win32,60,13228,,,,,,,,,,,,,,0,55,55,45,1,,,,,,,,,,,,,,,,,,,,,,,,,,
,,,,,,,,,,,,a,1.20046,Incorrect,,,,,,t3.png,t1.png,2,0.0565,19,Female,2020-10-20_12h57.14.501,torte-q,2020.1.3,Win32,60,13228,,,,,,,,,,,,,,0,56,56,31,1,,,,,,,,,,,,,,,,,,,,,,,,,,
,,,,,,,,,,,,l,1.15237,Incorrect,,,,,,t4.png,t3.png,1,0.909,19,Female,2020-10-20_12h57.14.501,torte-q,2020.1.3,Win32,60,13228,,,,,,,,,,,,,,0,57,57,20,1,,,,,,,,,,,,,,,,,,,,,,,,,,
,,,,,,,,,,,,l,1.512335,Correct!,,,,,,t3.png,t5.png,2,0.056466,19,Female,2020-10-20_12h57.14.501,torte-q,2020.1.3,Win32,60,13228,,,,,,,,,,,,,,0,58,58,6,1,,,,,,,,,,,,,,,,,,,,,,,,,,
,,,,,,,,,,,,l,0.852755,Correct!,,,,,,t5.png,t1.png,4,9.55E-11,19,Female,2020-10-20_12h57.14.501,torte-q,2020.1.3,Win32,60,13228,,,,,,,,,,,,,,0,59,59,102,1,,,,,,,,,,,,,,,,,,,,,,,,,,
,,,,,,,,,,,,l,1.0853,Correct!,,,,,,t1.png,t4.png,3,0.0000131,19,Female,2020-10-20_12h57.14.501,torte-q,2020.1.3,Win32,60,13228,,,,,,,,,,,,,,0,60,60,92,1,,,,,,,,,,,,,,,,,,,,,,,,,,
,,,,,,,,,,,,a,1.340575,Correct!,,,,,,t5.png,t3.png,2,0.056466,19,Female,2020-10-20_12h57.14.501,torte-q,2020.1.3,Win32,60,13228,,,,,,,,,,,,,,0,61,61,56,1,,,,,,,,,,,,,,,,,,,,,,,,,,
,,,,,,,,,,,,l,1.582855,Incorrect,,,,,,t3.png,t4.png,1,0.90855,19,Female,2020-10-20_12h57.14.501,torte-q,2020.1.3,Win32,60,13228,,,,,,,,,,,,,,0,62,62,84,1,,,,,,,,,,,,,,,,,,,,,,,,,,
,,,,,,,,,,,,a,1.1387,Incorrect,,,,,,t3.png,t5.png,2,0.056466,19,Female,2020-10-20_12h57.14.501,torte-q,2020.1.3,Win32,60,13228,,,,,,,,,,,,,,0,63,63,44,1,,,,,,,,,,,,,,,,,,,,,,,,,,
,,,,,,,,,,,,l,1.058745,Incorrect,,,,,,t1.png,t2.png,1,0.9,19,Female,2020-10-20_12h57.14.501,torte-q,2020.1.3,Win32,60,13228,,,,,,,,,,,,,,0,64,64,1,1,,,,,,,,,,,,,,,,,,,,,,,,,,
,,,,,,,,,,,,a,1.12317,Correct!,,,,,,t1.png,t1.png,0,0.97829,19,Female,2020-10-20_12h57.14.501,torte-q,2020.1.3,Win32,60,13228,,,,,,,,,,,,,,0,65,65,9,1,,,,,,,,,,,,,,,,,,,,,,,,,,
,,,,,,,,,,,,a,0.60137,Incorrect,,,,,,t2.png,t5.png,3,0.0000131,19,Female,2020-10-20_12h57.14.501,torte-q,2020.1.3,Win32,60,13228,,,,,,,,,,,,,,0,66,66,40,1,,,,,,,,,,,,,,,,,,,,,,,,,,
,,,,,,,,,,,,l,0.71162,Incorrect,,,,,,t4.png,t4.png,0,0.98115,19,Female,2020-10-20_12h57.14.501,torte-q,2020.1.3,Win32,60,13228,,,,,,,,,,,,,,0,67,67,90,1,,,,,,,,,,,,,,,,,,,,,,,,,,
,,,,,,,,,,,,l,1.15184,Incorrect,,,,,,t3.png,t2.png,1,0.909,19,Female,2020-10-20_12h57.14.501,torte-q,2020.1.3,Win32,60,13228,,,,,,,,,,,,,,0,68,68,23,1,,,,,,,,,,,,,,,,,,,,,,,,,,
,,,,,,,,,,,,l,1.035735,Incorrect,,,,,,t5.png,t4.png,1,0.90025,19,Female,2020-10-20_12h57.14.501,torte-q,2020.1.3,Win32,60,13228,,,,,,,,,,,,,,0,69,69,34,1,,,,,,,,,,,,,,,,,,,,,,,,,,
,,,,,,,,,,,,a,0.98577,Correct!,,,,,,t2.png,t1.png,1,0.90025,19,Female,2020-10-20_12h57.14.501,torte-q,2020.1.3,Win32,60,13228,,,,,,,,,,,,,,0,70,70,19,1,,,,,,,,,,,,,,,,,,,,,,,,,,
,,,,,,,,,,,,l,1.127855,Incorrect,,,,,,t4.png,t5.png,1,0.90025,19,Female,2020-10-20_12h57.14.501,torte-q,2020.1.3,Win32,60,13228,,,,,,,,,,,,,,0,71,71,47,1,,,,,,,,,,,,,,,,,,,,,,,,,,
,,,,,,,,,,,,l,1.42309,Correct!,,,,,,t5.png,t3.png,2,0.056466,19,Female,2020-10-20_12h57.14.501,torte-q,2020.1.3,Win32,60,13228,,,,,,,,,,,,,,0,72,72,114,1,,,,,,,,,,,,,,,,,,,,,,,,,,
,,,,,,,,,,,,l,1.40106,Correct!,,,,,,t4.png,t3.png,1,0.90855,19,Female,2020-10-20_12h57.14.501,torte-q,2020.1.3,Win32,60,13228,,,,,,,,,,,,,,0,73,73,75,1,,,,,,,,,,,,,,,,,,,,,,,,,,
,,,,,,,,,,,,l,1.59414,Incorrect,,,,,,t2.png,t2.png,0,0.98115,19,Female,2020-10-20_12h57.14.501,torte-q,2020.1.3,Win32,60,13228,,,,,,,,,,,,,,0,74,74,57,1,,,,,,,,,,,,,,,,,,,,,,,,,,
,,,,,,,,,,,,a,1.18378,Incorrect,,,,,,t3.png,t1.png,2,0.056466,19,Female,2020-10-20_12h57.14.501,torte-q,2020.1.3,Win32,60,13228,,,,,,,,,,,,,,0,75,75,29,1,,,,,,,,,,,,,,,,,,,,,,,,,,
,,,,,,,,,,,,l,2.066295,Incorrect,,,,,,t3.png,t4.png,1,0.909,19,Female,2020-10-20_12h57.14.501,torte-q,2020.1.3,Win32,60,13228,,,,,,,,,,,,,,0,76,76,82,1,,,,,,,,,,,,,,,,,,,,,,,,,,
,,,,,,,,,,,,l,1.15181,Correct!,,,,,,t5.png,t1.png,4,9.55E-11,19,Female,2020-10-20_12h57.14.501,torte-q,2020.1.3,Win32,60,13228,,,,,,,,,,,,,,0,77,77,100,1,,,,,,,,,,,,,,,,,,,,,,,,,,
,,,,,,,,,,,,l,0.895005,Correct!,,,,,,t4.png,t2.png,2,0.059078,19,Female,2020-10-20_12h57.14.501,torte-q,2020.1.3,Win32,60,13228,,,,,,,,,,,,,,0,78,78,110,1,,,,,,,,,,,,,,,,,,,,,,,,,,
,,,,,,,,,,,,l,0.65071,Correct!,,,,,,t5.png,t1.png,4,9.55E-11,19,Female,2020-10-20_12h57.14.501,torte-q,2020.1.3,Win32,60,13228,,,,,,,,,,,,,,0,79,79,22,1,,,,,,,,,,,,,,,,,,,,,,,,,,
,,,,,,,,,,,,a,0.796145,Correct!,,,,,,t1.png,t1.png,0,0.97829,19,Female,2020-10-20_12h57.14.501,torte-q,2020.1.3,Win32,60,13228,,,,,,,,,,,,,,0,80,80,78,1,,,,,,,,,,,,,,,,,,,,,,,,,,
,,,,,,,,,,,,l,1.144175,Incorrect,,,,,,t3.png,t2.png,1,0.90855,19,Female,2020-10-20_12h57.14.501,torte-q,2020.1.3,Win32,60,13228,,,,,,,,,,,,,,0,81,81,53,1,,,,,,,,,,,,,,,,,,,,,,,,,,
,,,,,,,,,,,,l,1.000645,Correct!,,,,,,t5.png,t2.png,3,0.0000131,19,Female,2020-10-20_12h57.14.501,torte-q,2020.1.3,Win32,60,13228,,,,,,,,,,,,,,0,82,82,51,1,,,,,,,,,,,,,,,,,,,,,,,,,,
,,,,,,,,,,,,a,0.96101,Correct!,,,,,,t1.png,t2.png,1,0.90025,19,Female,2020-10-20_12h57.14.501,torte-q,2020.1.3,Win32,60,13228,,,,,,,,,,,,,,0,83,83,105,1,,,,,,,,,,,,,,,,,,,,,,,,,,
,,,,,,,,,,,,a,0.967615,Correct!,,,,,,t1.png,t2.png,1,0.90025,19,Female,2020-10-20_12h57.14.501,torte-q,2020.1.3,Win32,60,13228,,,,,,,,,,,,,,0,84,84,112,1,,,,,,,,,,,,,,,,,,,,,,,,,,
,,,,,,,,,,,,l,0.87556,Correct!,,,,,,t4.png,t2.png,2,0.059078,19,Female,2020-10-20_12h57.14.501,torte-q,2020.1.3,Win32,60,13228,,,,,,,,,,,,,,0,85,85,88,1,,,,,,,,,,,,,,,,,,,,,,,,,,
,,,,,,,,,,,,l,0.91913,Incorrect,,,,,,t5.png,t5.png,0,0.97829,19,Female,2020-10-20_12h57.14.501,torte-q,2020.1.3,Win32,60,13228,,,,,,,,,,,,,,0,86,86,94,1,,,,,,,,,,,,,,,,,,,,,,,,,,
,,,,,,,,,,,,a,1.18562,Incorrect,,,,,,t1.png,t3.png,2,0.056466,19,Female,2020-10-20_12h57.14.501,torte-q,2020.1.3,Win32,60,13228,,,,,,,,,,,,,,0,87,87,69,1,,,,,,,,,,,,,,,,,,,,,,,,,,
,,,,,,,,,,,,l,1.196905,Correct!,,,,,,t2.png,t5.png,3,0.0000131,19,Female,2020-10-20_12h57.14.501,torte-q,2020.1.3,Win32,60,13228,,,,,,,,,,,,,,0,88,88,66,1,,,,,,,,,,,,,,,,,,,,,,,,,,
,,,,,,,,,,,,a,1.504555,Correct!,,,,,,t2.png,t2.png,0,0.981,19,Female,2020-10-20_12h57.14.501,torte-q,2020.1.3,Win32,60,13228,,,,,,,,,,,,,,0,89,89,101,1,,,,,,,,,,,,,,,,,,,,,,,,,,
,,,,,,,,,,,,l,0.919155,Correct!,,,,,,t1.png,t4.png,3,0.0000131,19,Female,2020-10-20_12h57.14.501,torte-q,2020.1.3,Win32,60,13228,,,,,,,,,,,,,,0,90,90,50,1,,,,,,,,,,,,,,,,,,,,,,,,,,
,,,,,,,,,,,,l,1.137825,Incorrect,,,,,,t1.png,t1.png,0,0.978,19,Female,2020-10-20_12h57.14.501,torte-q,2020.1.3,Win32,60,13228,,,,,,,,,,,,,,0,91,91,28,1,,,,,,,,,,,,,,,,,,,,,,,,,,
,,,,,,,,,,,,l,0.68792,Correct!,,,,,,t1.png,t5.png,4,9.55E-11,19,Female,2020-10-20_12h57.14.501,torte-q,2020.1.3,Win32,60,13228,,,,,,,,,,,,,,0,92,92,41,1,,,,,,,,,,,,,,,,,,,,,,,,,,
,,,,,,,,,,,,l,0.50264,Correct!,,,,,,t1.png,t5.png,4,9.55E-11,19,Female,2020-10-20_12h57.14.501,torte-q,2020.1.3,Win32,60,13228,,,,,,,,,,,,,,0,93,93,55,1,,,,,,,,,,,,,,,,,,,,,,,,,,
,,,,,,,,,,,,l,0.837165,Correct!,,,,,,t4.png,t1.png,3,0.0000131,19,Female,2020-10-20_12h57.14.501,torte-q,2020.1.3,Win32,60,13228,,,,,,,,,,,,,,0,94,94,61,1,,,,,,,,,,,,,,,,,,,,,,,,,,
,,,,,,,,,,,,l,0.934015,Incorrect,,,,,,t3.png,t2.png,1,0.90855,19,Female,2020-10-20_12h57.14.501,torte-q,2020.1.3,Win32,60,13228,,,,,,,,,,,,,,0,95,95,97,1,,,,,,,,,,,,,,,,,,,,,,,,,,
,,,,,,,,,,,,l,1.000635,Incorrect,,,,,,t5.png,t5.png,0,0.97829,19,Female,2020-10-20_12h57.14.501,torte-q,2020.1.3,Win32,60,13228,,,,,,,,,,,,,,0,96,96,25,1,,,,,,,,,,,,,,,,,,,,,,,,,,
,,,,,,,,,,,,a,1.140335,Incorrect,,,,,,t3.png,t5.png,2,0.056466,19,Female,2020-10-20_12h57.14.501,torte-q,2020.1.3,Win32,60,13228,,,,,,,,,,,,,,0,97,97,14,1,,,,,,,,,,,,,,,,,,,,,,,,,,
,,,,,,,,,,,,a,0.92173,Correct!,,,,,,t2.png,t1.png,1,0.9,19,Female,2020-10-20_12h57.14.501,torte-q,2020.1.3,Win32,60,13228,,,,,,,,,,,,,,0,98,98,118,1,,,,,,,,,,,,,,,,,,,,,,,,,,
,,,,,,,,,,,,a,1.21926,Correct!,,,,,,t2.png,t3.png,1,0.909,19,Female,2020-10-20_12h57.14.501,torte-q,2020.1.3,Win32,60,13228,,,,,,,,,,,,,,0,99,99,74,1,,,,,,,,,,,,,,,,,,,,,,,,,,
,,,,,,,,,,,,l,0.98404,Correct!,,,,,,t4.png,t5.png,1,0.90025,19,Female,2020-10-20_12h57.14.501,torte-q,2020.1.3,Win32,60,13228,,,,,,,,,,,,,,0,100,100,58,1,,,,,,,,,,,,,,,,,,,,,,,,,,
,,,,,,,,,,,,l,1.00147,Correct!,,,,,,t1.png,t3.png,2,0.056466,19,Female,2020-10-20_12h57.14.501,torte-q,2020.1.3,Win32,60,13228,,,,,,,,,,,,,,0,101,101,63,1,,,,,,,,,,,,,,,,,,,,,,,,,,
,,,,,,,,,,,,a,1.182505,Incorrect,,,,,,t2.png,t4.png,2,0.059078,19,Female,2020-10-20_12h57.14.501,torte-q,2020.1.3,Win32,60,13228,,,,,,,,,,,,,,0,102,102,24,1,,,,,,,,,,,,,,,,,,,,,,,,,,
,,,,,,,,,,,,l,0.8336,Incorrect,,,,,,t5.png,t4.png,1,0.90025,19,Female,2020-10-20_12h57.14.501,torte-q,2020.1.3,Win32,60,13228,,,,,,,,,,,,,,0,103,103,26,1,,,,,,,,,,,,,,,,,,,,,,,,,,
,,,,,,,,,,,,l,1.003555,Correct!,,,,,,t5.png,t2.png,3,0.0000131,19,Female,2020-10-20_12h57.14.501,torte-q,2020.1.3,Win32,60,13228,,,,,,,,,,,,,,0,104,104,98,1,,,,,,,,,,,,,,,,,,,,,,,,,,
,,,,,,,,,,,,a,1.192415,Incorrect,,,,,,t3.png,t1.png,2,0.056466,19,Female,2020-10-20_12h57.14.501,torte-q,2020.1.3,Win32,60,13228,,,,,,,,,,,,,,0,105,105,32,1,,,,,,,,,,,,,,,,,,,,,,,,,,
,,,,,,,,,,,,l,0.75413,Incorrect,,,,,,t3.png,t4.png,1,0.909,19,Female,2020-10-20_12h57.14.501,torte-q,2020.1.3,Win32,60,13228,,,,,,,,,,,,,,0,106,106,106,1,,,,,,,,,,,,,,,,,,,,,,,,,,
,,,,,,,,,,,,l,0.835975,Correct!,,,,,,t5.png,t3.png,2,0.056466,19,Female,2020-10-20_12h57.14.501,torte-q,2020.1.3,Win32,60,13228,,,,,,,,,,,,,,0,107,107,38,1,,,,,,,,,,,,,,,,,,,,,,,,,,
,,,,,,,,,,,,l,0.684535,Correct!,,,,,,t1.png,t5.png,4,9.55E-11,19,Female,2020-10-20_12h57.14.501,torte-q,2020.1.3,Win32,60,13228,,,,,,,,,,,,,,0,108,108,85,1,,,,,,,,,,,,,,,,,,,,,,,,,,
,,,,,,,,,,,,l,0.77002,Correct!,,,,,,t5.png,t2.png,3,0.0000131,19,Female,2020-10-20_12h57.14.501,torte-q,2020.1.3,Win32,60,13228,,,,,,,,,,,,,,0,109,109,91,1,,,,,,,,,,,,,,,,,,,,,,,,,,
,,,,,,,,,,,,l,0.921845,Incorrect,,,,,,t2.png,t3.png,1,0.90855,19,Female,2020-10-20_12h57.14.501,torte-q,2020.1.3,Win32,60,13228,,,,,,,,,,,,,,0,110,110,68,1,,,,,,,,,,,,,,,,,,,,,,,,,,
,,,,,,,,,,,,l,0.81902,Correct!,,,,,,t4.png,t1.png,3,0.0000131,19,Female,2020-10-20_12h57.14.501,torte-q,2020.1.3,Win32,60,13228,,,,,,,,,,,,,,0,111,111,13,1,,,,,,,,,,,,,,,,,,,,,,,,,,
,,,,,,,,,,,,l,0.57949,Correct!,,,,,,t5.png,t1.png,4,9.55E-11,19,Female,2020-10-20_12h57.14.501,torte-q,2020.1.3,Win32,60,13228,,,,,,,,,,,,,,0,112,112,43,1,,,,,,,,,,,,,,,,,,,,,,,,,,
,,,,,,,,,,,,l,0.85085,Correct!,,,,,,t4.png,t2.png,2,0.059078,19,Female,2020-10-20_12h57.14.501,torte-q,2020.1.3,Win32,60,13228,,,,,,,,,,,,,,0,113,113,86,1,,,,,,,,,,,,,,,,,,,,,,,,,,
,,,,,,,,,,,,a,1.438415,Correct!,,,,,,t3.png,t4.png,1,0.90855,19,Female,2020-10-20_12h57.14.501,torte-q,2020.1.3,Win32,60,13228,,,,,,,,,,,,,,0,114,114,96,1,,,,,,,,,,,,,,,,,,,,,,,,,,
,,,,,,,,,,,,l,1.17391,Incorrect,,,,,,t2.png,t3.png,1,0.90855,19,Female,2020-10-20_12h57.14.501,torte-q,2020.1.3,Win32,60,13228,,,,,,,,,,,,,,0,115,115,10,1,,,,,,,,,,,,,,,,,,,,,,,,,,
,,,,,,,,,,,,a,1.02469,Correct!,,,,,,t2.png,t1.png,1,0.90025,19,Female,2020-10-20_12h57.14.501,torte-q,2020.1.3,Win32,60,13228,,,,,,,,,,,,,,0,116,116,4,1,,,,,,,,,,,,,,,,,,,,,,,,,,
,,,,,,,,,,,,l,1.09571,Incorrect,,,,,,t2.png,t2.png,0,0.98115,19,Female,2020-10-20_12h57.14.501,torte-q,2020.1.3,Win32,60,13228,,,,,,,,,,,,,,0,117,117,7,1,,,,,,,,,,,,,,,,,,,,,,,,,,
,,,,,,,,,,,,a,1.02119,Incorrect,,,,,,t1.png,t3.png,2,0.056466,19,Female,2020-10-20_12h57.14.501,torte-q,2020.1.3,Win32,60,13228,,,,,,,,,,,,,,0,118,118,60,1,,,,,,,,,,,,,,,,,,,,,,,,,,
,,,,,,,,,,,,l,0.73428,Incorrect,,,,,,t4.png,t4.png,0,0.98115,19,Female,2020-10-20_12h57.14.501,torte-q,2020.1.3,Win32,60,13228,,,,,,,,,,,,,,0,119,119,80,1,,,,,,,,,,,,,,,,,,,,,,,,,,
,,,,,,,,,,,,,,,,,,,,,,,,19,Female,2020-10-20_12h57.14.501,torte-q,2020.1.3,Win32,60,13228,space,1.053235,,,,,,,,,,,,,,,,,4.975,8.29418,199,-188,1,0,0,s7,84,32,1,0,0,t2,226,-105,1,0,0,proceed,space,5.02514,space,0.638745,space,0.263575
