key_resp_8.keys,key_resp_8.rt,key_resp_9.keys,key_resp_9.rt,key_resp_10.keys,key_resp_10.rt,key_resp_11.keys,key_resp_11.rt,key_resp_2.keys,key_resp_2.rt,key_resp_3.keys,key_resp_3.rt,key_resp.keys,Feedback,train.thisRepN,train.thisTrialN,train.thisN,train.thisIndex,train.ran,torta_sx,torta_dx,difference,probability,age,gender,date,expName,psychopyVersion,OS,frameRate,participant,key_resp.rt,key_resp_15.keys,key_resp_15.rt,key_resp_6.keys,key_resp_6.rt,test1.thisRepN,test1.thisTrialN,test1.thisN,test1.thisIndex,test1.ran,key_resp_16.keys,key_resp_16.rt,key_resp_7.keys,key_resp_7.rt,test2.thisRepN,test2.thisTrialN,test2.thisN,test2.thisIndex,test2.ran,rating.response,rating.rt,mouse.x,mouse.y,mouse.leftButton,mouse.midButton,mouse.rightButton,mouse.clicked_name,mouse_2.x,mouse_2.y,mouse_2.leftButton,mouse_2.midButton,mouse_2.rightButton,mouse_2.clicked_name,mouse_3.x,mouse_3.y,mouse_3.leftButton,mouse_3.midButton,mouse_3.rightButton,mouse_3.clicked_name,key_resp_12.keys,key_resp_12.rt,key_resp_13.keys,key_resp_13.rt,key_resp_14.keys,key_resp_14.rt
space,99.111885,space,28.559085,space,5.341255,space,22.577245,space,43.9935,space,61.09423,,Too slow :(,0,0,0,59,1,t5.png,t4.png,1,0.9,19,female,2020-10-20_13h12.33.671,torte-q,2020.1.3,Win32,60,13221,,,,,,,,,,,,,,,,,,,,,,,,,,,,,,,,,,,,,,,,,,,,,
,,,,,,,,,,,,l,Correct!,0,1,1,4,1,t1.png,t5.png,4,9.55E-11,19,female,2020-10-20_13h12.33.671,torte-q,2020.1.3,Win32,60,13221,1.28891,,,,,,,,,,,,,,,,,,,,,,,,,,,,,,,,,,,,,,,,,,,,
,,,,,,,,,,,,a,Correct!,0,2,2,77,1,t1.png,t1.png,0,0.97829,19,female,2020-10-20_13h12.33.671,torte-q,2020.1.3,Win32,60,13221,0.88546,,,,,,,,,,,,,,,,,,,,,,,,,,,,,,,,,,,,,,,,,,,,
,,,,,,,,,,,,l,Correct!,0,3,3,119,1,t1.png,t5.png,4,9.55E-11,19,female,2020-10-20_13h12.33.671,torte-q,2020.1.3,Win32,60,13221,0.673265,,,,,,,,,,,,,,,,,,,,,,,,,,,,,,,,,,,,,,,,,,,,
,,,,,,,,,,,,l,Correct!,0,4,4,108,1,t5.png,t1.png,4,9.55E-11,19,female,2020-10-20_13h12.33.671,torte-q,2020.1.3,Win32,60,13221,0.884365,,,,,,,,,,,,,,,,,,,,,,,,,,,,,,,,,,,,,,,,,,,,
,,,,,,,,,,,,l,Correct!,0,5,5,86,1,t3.png,t1.png,2,0.056466,19,female,2020-10-20_13h12.33.671,torte-q,2020.1.3,Win32,60,13221,1.452385,,,,,,,,,,,,,,,,,,,,,,,,,,,,,,,,,,,,,,,,,,,,
,,,,,,,,,,,,l,Correct!,0,6,6,56,1,t5.png,t1.png,4,9.55E-11,19,female,2020-10-20_13h12.33.671,torte-q,2020.1.3,Win32,60,13221,0.650775,,,,,,,,,,,,,,,,,,,,,,,,,,,,,,,,,,,,,,,,,,,,
,,,,,,,,,,,,a,Correct!,0,7,7,96,1,t1.png,t1.png,0,0.97829,19,female,2020-10-20_13h12.33.671,torte-q,2020.1.3,Win32,60,13221,0.486245,,,,,,,,,,,,,,,,,,,,,,,,,,,,,,,,,,,,,,,,,,,,
,,,,,,,,,,,,l,Incorrect,0,8,8,97,1,t5.png,t5.png,0,0.97829,19,female,2020-10-20_13h12.33.671,torte-q,2020.1.3,Win32,60,13221,0.51862,,,,,,,,,,,,,,,,,,,,,,,,,,,,,,,,,,,,,,,,,,,,
,,,,,,,,,,,,l,Correct!,0,9,9,115,1,t2.png,t4.png,2,0.059078,19,female,2020-10-20_13h12.33.671,torte-q,2020.1.3,Win32,60,13221,1.14898,,,,,,,,,,,,,,,,,,,,,,,,,,,,,,,,,,,,,,,,,,,,
,,,,,,,,,,,,l,Incorrect,0,10,10,2,1,t3.png,t2.png,1,0.90855,19,female,2020-10-20_13h12.33.671,torte-q,2020.1.3,Win32,60,13221,0.872345,,,,,,,,,,,,,,,,,,,,,,,,,,,,,,,,,,,,,,,,,,,,
,,,,,,,,,,,,l,Incorrect,0,11,11,15,1,t3.png,t2.png,1,0.90855,19,female,2020-10-20_13h12.33.671,torte-q,2020.1.3,Win32,60,13221,0.928185,,,,,,,,,,,,,,,,,,,,,,,,,,,,,,,,,,,,,,,,,,,,
,,,,,,,,,,,,a,Incorrect,0,12,12,94,1,t5.png,t1.png,4,9.55E-11,19,female,2020-10-20_13h12.33.671,torte-q,2020.1.3,Win32,60,13221,0.936635,,,,,,,,,,,,,,,,,,,,,,,,,,,,,,,,,,,,,,,,,,,,
,,,,,,,,,,,,a,Correct!,0,13,13,107,1,t1.png,t1.png,0,0.978,19,female,2020-10-20_13h12.33.671,torte-q,2020.1.3,Win32,60,13221,1.0866,,,,,,,,,,,,,,,,,,,,,,,,,,,,,,,,,,,,,,,,,,,,
,,,,,,,,,,,,l,Correct!,0,14,14,54,1,t1.png,t5.png,4,9.55E-11,19,female,2020-10-20_13h12.33.671,torte-q,2020.1.3,Win32,60,13221,1.547325,,,,,,,,,,,,,,,,,,,,,,,,,,,,,,,,,,,,,,,,,,,,
,,,,,,,,,,,,a,Incorrect,0,15,15,98,1,t2.png,t4.png,2,0.0591,19,female,2020-10-20_13h12.33.671,torte-q,2020.1.3,Win32,60,13221,1.097325,,,,,,,,,,,,,,,,,,,,,,,,,,,,,,,,,,,,,,,,,,,,
,,,,,,,,,,,,l,Incorrect,0,16,16,18,1,t4.png,t5.png,1,0.90025,19,female,2020-10-20_13h12.33.671,torte-q,2020.1.3,Win32,60,13221,1.56278,,,,,,,,,,,,,,,,,,,,,,,,,,,,,,,,,,,,,,,,,,,,
,,,,,,,,,,,,l,Correct!,0,17,17,0,1,t5.png,t1.png,4,9.55E-11,19,female,2020-10-20_13h12.33.671,torte-q,2020.1.3,Win32,60,13221,1.272685,,,,,,,,,,,,,,,,,,,,,,,,,,,,,,,,,,,,,,,,,,,,
,,,,,,,,,,,,l,Correct!,0,18,18,69,1,t4.png,t2.png,2,0.059078,19,female,2020-10-20_13h12.33.671,torte-q,2020.1.3,Win32,60,13221,1.122345,,,,,,,,,,,,,,,,,,,,,,,,,,,,,,,,,,,,,,,,,,,,
,,,,,,,,,,,,a,Correct!,0,19,19,85,1,t3.png,t2.png,1,0.90855,19,female,2020-10-20_13h12.33.671,torte-q,2020.1.3,Win32,60,13221,0.79972,,,,,,,,,,,,,,,,,,,,,,,,,,,,,,,,,,,,,,,,,,,,
,,,,,,,,,,,,a,Correct!,0,20,20,100,1,t4.png,t5.png,1,0.90025,19,female,2020-10-20_13h12.33.671,torte-q,2020.1.3,Win32,60,13221,1.389815,,,,,,,,,,,,,,,,,,,,,,,,,,,,,,,,,,,,,,,,,,,,
,,,,,,,,,,,,l,Correct!,0,21,21,60,1,t2.png,t4.png,2,0.059078,19,female,2020-10-20_13h12.33.671,torte-q,2020.1.3,Win32,60,13221,1.980775,,,,,,,,,,,,,,,,,,,,,,,,,,,,,,,,,,,,,,,,,,,,
,,,,,,,,,,,,l,Correct!,0,22,22,12,1,t5.png,t1.png,4,9.55E-11,19,female,2020-10-20_13h12.33.671,torte-q,2020.1.3,Win32,60,13221,1.02313,,,,,,,,,,,,,,,,,,,,,,,,,,,,,,,,,,,,,,,,,,,,
,,,,,,,,,,,,a,Incorrect,0,23,23,80,1,t1.png,t4.png,3,0.0000131,19,female,2020-10-20_13h12.33.671,torte-q,2020.1.3,Win32,60,13221,1.188335,,,,,,,,,,,,,,,,,,,,,,,,,,,,,,,,,,,,,,,,,,,,
,,,,,,,,,,,,l,Correct!,0,24,24,57,1,t2.png,t4.png,2,0.059078,19,female,2020-10-20_13h12.33.671,torte-q,2020.1.3,Win32,60,13221,1.398265,,,,,,,,,,,,,,,,,,,,,,,,,,,,,,,,,,,,,,,,,,,,
,,,,,,,,,,,,l,Correct!,0,25,25,3,1,t1.png,t5.png,4,9.55E-11,19,female,2020-10-20_13h12.33.671,torte-q,2020.1.3,Win32,60,13221,1.29778,,,,,,,,,,,,,,,,,,,,,,,,,,,,,,,,,,,,,,,,,,,,
,,,,,,,,,,,,a,Correct!,0,26,26,88,1,t3.png,t1.png,2,0.056466,19,female,2020-10-20_13h12.33.671,torte-q,2020.1.3,Win32,60,13221,1.636215,,,,,,,,,,,,,,,,,,,,,,,,,,,,,,,,,,,,,,,,,,,,
,,,,,,,,,,,,l,Incorrect,0,27,27,7,1,t4.png,t5.png,1,0.90025,19,female,2020-10-20_13h12.33.671,torte-q,2020.1.3,Win32,60,13221,2.12882,,,,,,,,,,,,,,,,,,,,,,,,,,,,,,,,,,,,,,,,,,,,
,,,,,,,,,,,,a,Correct!,0,28,28,45,1,t3.png,t2.png,1,0.90855,19,female,2020-10-20_13h12.33.671,torte-q,2020.1.3,Win32,60,13221,1.70924,,,,,,,,,,,,,,,,,,,,,,,,,,,,,,,,,,,,,,,,,,,,
,,,,,,,,,,,,l,Correct!,0,29,29,26,1,t4.png,t2.png,2,0.0591,19,female,2020-10-20_13h12.33.671,torte-q,2020.1.3,Win32,60,13221,1.550565,,,,,,,,,,,,,,,,,,,,,,,,,,,,,,,,,,,,,,,,,,,,
,,,,,,,,,,,,a,Correct!,0,30,30,71,1,t5.png,t5.png,0,0.97829,19,female,2020-10-20_13h12.33.671,torte-q,2020.1.3,Win32,60,13221,1.51313,,,,,,,,,,,,,,,,,,,,,,,,,,,,,,,,,,,,,,,,,,,,
,,,,,,,,,,,,l,Correct!,0,31,31,117,1,t1.png,t5.png,4,9.55E-11,19,female,2020-10-20_13h12.33.671,torte-q,2020.1.3,Win32,60,13221,1.01798,,,,,,,,,,,,,,,,,,,,,,,,,,,,,,,,,,,,,,,,,,,,
,,,,,,,,,,,,l,Correct!,0,32,32,1,1,t2.png,t4.png,2,0.059078,19,female,2020-10-20_13h12.33.671,torte-q,2020.1.3,Win32,60,13221,1.20138,,,,,,,,,,,,,,,,,,,,,,,,,,,,,,,,,,,,,,,,,,,,
,,,,,,,,,,,,a,Incorrect,0,33,33,89,1,t1.png,t4.png,3,0.0000131,19,female,2020-10-20_13h12.33.671,torte-q,2020.1.3,Win32,60,13221,1.181705,,,,,,,,,,,,,,,,,,,,,,,,,,,,,,,,,,,,,,,,,,,,
,,,,,,,,,,,,a,Correct!,0,34,34,104,1,t2.png,t3.png,1,0.90855,19,female,2020-10-20_13h12.33.671,torte-q,2020.1.3,Win32,60,13221,1.451,,,,,,,,,,,,,,,,,,,,,,,,,,,,,,,,,,,,,,,,,,,,
,,,,,,,,,,,,a,Correct!,0,35,35,62,1,t5.png,t5.png,0,0.978,19,female,2020-10-20_13h12.33.671,torte-q,2020.1.3,Win32,60,13221,1.262815,,,,,,,,,,,,,,,,,,,,,,,,,,,,,,,,,,,,,,,,,,,,
,,,,,,,,,,,,l,Correct!,0,36,36,67,1,t1.png,t5.png,4,9.55E-11,19,female,2020-10-20_13h12.33.671,torte-q,2020.1.3,Win32,60,13221,0.863015,,,,,,,,,,,,,,,,,,,,,,,,,,,,,,,,,,,,,,,,,,,,
,,,,,,,,,,,,a,Correct!,0,37,37,28,1,t2.png,t3.png,1,0.909,19,female,2020-10-20_13h12.33.671,torte-q,2020.1.3,Win32,60,13221,1.3414,,,,,,,,,,,,,,,,,,,,,,,,,,,,,,,,,,,,,,,,,,,,
,,,,,,,,,,,,l,Correct!,0,38,38,82,1,t5.png,t1.png,4,9.55E-11,19,female,2020-10-20_13h12.33.671,torte-q,2020.1.3,Win32,60,13221,1.15122,,,,,,,,,,,,,,,,,,,,,,,,,,,,,,,,,,,,,,,,,,,,
,,,,,,,,,,,,a,Correct!,0,39,39,13,1,t5.png,t5.png,0,0.97829,19,female,2020-10-20_13h12.33.671,torte-q,2020.1.3,Win32,60,13221,1.04764,,,,,,,,,,,,,,,,,,,,,,,,,,,,,,,,,,,,,,,,,,,,
,,,,,,,,,,,,a,Correct!,0,40,40,113,1,t5.png,t4.png,1,0.9,19,female,2020-10-20_13h12.33.671,torte-q,2020.1.3,Win32,60,13221,1.235915,,,,,,,,,,,,,,,,,,,,,,,,,,,,,,,,,,,,,,,,,,,,
,,,,,,,,,,,,a,Incorrect,0,41,41,51,1,t3.png,t1.png,2,0.056466,19,female,2020-10-20_13h12.33.671,torte-q,2020.1.3,Win32,60,13221,1.59787,,,,,,,,,,,,,,,,,,,,,,,,,,,,,,,,,,,,,,,,,,,,
,,,,,,,,,,,,l,Incorrect,0,42,42,8,1,t3.png,t2.png,1,0.90855,19,female,2020-10-20_13h12.33.671,torte-q,2020.1.3,Win32,60,13221,1.340795,,,,,,,,,,,,,,,,,,,,,,,,,,,,,,,,,,,,,,,,,,,,
,,,,,,,,,,,,l,Correct!,0,43,43,19,1,t4.png,t2.png,2,0.059078,19,female,2020-10-20_13h12.33.671,torte-q,2020.1.3,Win32,60,13221,1.28098,,,,,,,,,,,,,,,,,,,,,,,,,,,,,,,,,,,,,,,,,,,,
,,,,,,,,,,,,l,Correct!,0,44,44,90,1,t1.png,t5.png,4,9.55E-11,19,female,2020-10-20_13h12.33.671,torte-q,2020.1.3,Win32,60,13221,1.064085,,,,,,,,,,,,,,,,,,,,,,,,,,,,,,,,,,,,,,,,,,,,
,,,,,,,,,,,,a,Correct!,0,45,45,78,1,t1.png,t1.png,0,0.978,19,female,2020-10-20_13h12.33.671,torte-q,2020.1.3,Win32,60,13221,1.651155,,,,,,,,,,,,,,,,,,,,,,,,,,,,,,,,,,,,,,,,,,,,
,,,,,,,,,,,,l,Incorrect,0,46,46,73,1,t4.png,t2.png,2,0.059078,19,female,2020-10-20_13h12.33.671,torte-q,2020.1.3,Win32,60,13221,0.848725,,,,,,,,,,,,,,,,,,,,,,,,,,,,,,,,,,,,,,,,,,,,
,,,,,,,,,,,,l,Correct!,0,47,47,5,1,t2.png,t4.png,2,0.059078,19,female,2020-10-20_13h12.33.671,torte-q,2020.1.3,Win32,60,13221,1.415165,,,,,,,,,,,,,,,,,,,,,,,,,,,,,,,,,,,,,,,,,,,,
,,,,,,,,,,,,a,Incorrect,0,48,48,38,1,t3.png,t1.png,2,0.056466,19,female,2020-10-20_13h12.33.671,torte-q,2020.1.3,Win32,60,13221,1.14729,,,,,,,,,,,,,,,,,,,,,,,,,,,,,,,,,,,,,,,,,,,,
,,,,,,,,,,,,l,Incorrect,0,49,49,79,1,t3.png,t2.png,1,0.909,19,female,2020-10-20_13h12.33.671,torte-q,2020.1.3,Win32,60,13221,1.13027,,,,,,,,,,,,,,,,,,,,,,,,,,,,,,,,,,,,,,,,,,,,
,,,,,,,,,,,,a,Incorrect,0,50,50,6,1,t1.png,t4.png,3,0.0000131,19,female,2020-10-20_13h12.33.671,torte-q,2020.1.3,Win32,60,13221,1.76499,,,,,,,,,,,,,,,,,,,,,,,,,,,,,,,,,,,,,,,,,,,,
,,,,,,,,,,,,l,Correct!,0,51,51,61,1,t1.png,t4.png,3,0.0000131,19,female,2020-10-20_13h12.33.671,torte-q,2020.1.3,Win32,60,13221,1.121905,,,,,,,,,,,,,,,,,,,,,,,,,,,,,,,,,,,,,,,,,,,,
,,,,,,,,,,,,a,Correct!,0,52,52,32,1,t4.png,t5.png,1,0.90025,19,female,2020-10-20_13h12.33.671,torte-q,2020.1.3,Win32,60,13221,1.914205,,,,,,,,,,,,,,,,,,,,,,,,,,,,,,,,,,,,,,,,,,,,
,,,,,,,,,,,,l,Correct!,0,53,53,31,1,t1.png,t5.png,4,9.55E-11,19,female,2020-10-20_13h12.33.671,torte-q,2020.1.3,Win32,60,13221,1.031515,,,,,,,,,,,,,,,,,,,,,,,,,,,,,,,,,,,,,,,,,,,,
,,,,,,,,,,,,l,Incorrect,0,54,54,39,1,t3.png,t2.png,1,0.90855,19,female,2020-10-20_13h12.33.671,torte-q,2020.1.3,Win32,60,13221,1.38718,,,,,,,,,,,,,,,,,,,,,,,,,,,,,,,,,,,,,,,,,,,,
,,,,,,,,,,,,l,Correct!,0,55,55,93,1,t2.png,t4.png,2,0.059078,19,female,2020-10-20_13h12.33.671,torte-q,2020.1.3,Win32,60,13221,1.431325,,,,,,,,,,,,,,,,,,,,,,,,,,,,,,,,,,,,,,,,,,,,
,,,,,,,,,,,,a,Correct!,0,56,56,118,1,t5.png,t5.png,0,0.978,19,female,2020-10-20_13h12.33.671,torte-q,2020.1.3,Win32,60,13221,0.991505,,,,,,,,,,,,,,,,,,,,,,,,,,,,,,,,,,,,,,,,,,,,
,,,,,,,,,,,,a,Correct!,0,57,57,64,1,t1.png,t1.png,0,0.978,19,female,2020-10-20_13h12.33.671,torte-q,2020.1.3,Win32,60,13221,1.019615,,,,,,,,,,,,,,,,,,,,,,,,,,,,,,,,,,,,,,,,,,,,
,,,,,,,,,,,,l,Correct!,0,58,58,52,1,t2.png,t4.png,2,0.059078,19,female,2020-10-20_13h12.33.671,torte-q,2020.1.3,Win32,60,13221,0.994045,,,,,,,,,,,,,,,,,,,,,,,,,,,,,,,,,,,,,,,,,,,,
,,,,,,,,,,,,l,Incorrect,0,59,59,105,1,t3.png,t2.png,1,0.90855,19,female,2020-10-20_13h12.33.671,torte-q,2020.1.3,Win32,60,13221,1.465685,,,,,,,,,,,,,,,,,,,,,,,,,,,,,,,,,,,,,,,,,,,,
,,,,,,,,,,,,l,Correct!,0,60,60,72,1,t4.png,t2.png,2,0.059078,19,female,2020-10-20_13h12.33.671,torte-q,2020.1.3,Win32,60,13221,1.28094,,,,,,,,,,,,,,,,,,,,,,,,,,,,,,,,,,,,,,,,,,,,
,,,,,,,,,,,,a,Correct!,0,61,61,101,1,t4.png,t5.png,1,0.90025,19,female,2020-10-20_13h12.33.671,torte-q,2020.1.3,Win32,60,13221,1.708345,,,,,,,,,,,,,,,,,,,,,,,,,,,,,,,,,,,,,,,,,,,,
,,,,,,,,,,,,l,Correct!,0,62,62,47,1,t4.png,t2.png,2,0.059078,19,female,2020-10-20_13h12.33.671,torte-q,2020.1.3,Win32,60,13221,1.12151,,,,,,,,,,,,,,,,,,,,,,,,,,,,,,,,,,,,,,,,,,,,
,,,,,,,,,,,,a,Correct!,0,63,63,25,1,t5.png,t5.png,0,0.97829,19,female,2020-10-20_13h12.33.671,torte-q,2020.1.3,Win32,60,13221,0.984405,,,,,,,,,,,,,,,,,,,,,,,,,,,,,,,,,,,,,,,,,,,,
,,,,,,,,,,,,a,Correct!,0,64,64,81,1,t1.png,t1.png,0,0.97829,19,female,2020-10-20_13h12.33.671,torte-q,2020.1.3,Win32,60,13221,0.929525,,,,,,,,,,,,,,,,,,,,,,,,,,,,,,,,,,,,,,,,,,,,
,,,,,,,,,,,,l,Correct!,0,65,65,27,1,t3.png,t1.png,2,0.0565,19,female,2020-10-20_13h12.33.671,torte-q,2020.1.3,Win32,60,13221,1.40739,,,,,,,,,,,,,,,,,,,,,,,,,,,,,,,,,,,,,,,,,,,,
,,,,,,,,,,,,l,Correct!,0,66,66,14,1,t2.png,t4.png,2,0.059078,19,female,2020-10-20_13h12.33.671,torte-q,2020.1.3,Win32,60,13221,1.17081,,,,,,,,,,,,,,,,,,,,,,,,,,,,,,,,,,,,,,,,,,,,
,,,,,,,,,,,,a,Correct!,0,67,67,95,1,t1.png,t1.png,0,0.978,19,female,2020-10-20_13h12.33.671,torte-q,2020.1.3,Win32,60,13221,1.13288,,,,,,,,,,,,,,,,,,,,,,,,,,,,,,,,,,,,,,,,,,,,
,,,,,,,,,,,,l,Correct!,0,68,68,111,1,t5.png,t1.png,4,9.55E-11,19,female,2020-10-20_13h12.33.671,torte-q,2020.1.3,Win32,60,13221,0.79237,,,,,,,,,,,,,,,,,,,,,,,,,,,,,,,,,,,,,,,,,,,,
,,,,,,,,,,,,a,Correct!,0,69,69,84,1,t1.png,t1.png,0,0.97829,19,female,2020-10-20_13h12.33.671,torte-q,2020.1.3,Win32,60,13221,1.10001,,,,,,,,,,,,,,,,,,,,,,,,,,,,,,,,,,,,,,,,,,,,
,,,,,,,,,,,,l,Correct!,0,70,70,35,1,t1.png,t4.png,3,0.0000131,19,female,2020-10-20_13h12.33.671,torte-q,2020.1.3,Win32,60,13221,2.214615,,,,,,,,,,,,,,,,,,,,,,,,,,,,,,,,,,,,,,,,,,,,
,,,,,,,,,,,,l,Correct!,0,71,71,53,1,t3.png,t1.png,2,0.056466,19,female,2020-10-20_13h12.33.671,torte-q,2020.1.3,Win32,60,13221,1.737075,,,,,,,,,,,,,,,,,,,,,,,,,,,,,,,,,,,,,,,,,,,,
,,,,,,,,,,,,a,Correct!,0,72,72,21,1,t5.png,t4.png,1,0.90025,19,female,2020-10-20_13h12.33.671,torte-q,2020.1.3,Win32,60,13221,1.18245,,,,,,,,,,,,,,,,,,,,,,,,,,,,,,,,,,,,,,,,,,,,
,,,,,,,,,,,,l,Correct!,0,73,73,43,1,t4.png,t2.png,2,0.059078,19,female,2020-10-20_13h12.33.671,torte-q,2020.1.3,Win32,60,13221,1.401205,,,,,,,,,,,,,,,,,,,,,,,,,,,,,,,,,,,,,,,,,,,,
,,,,,,,,,,,,l,Correct!,0,74,74,33,1,t5.png,t1.png,4,9.55E-11,19,female,2020-10-20_13h12.33.671,torte-q,2020.1.3,Win32,60,13221,0.799665,,,,,,,,,,,,,,,,,,,,,,,,,,,,,,,,,,,,,,,,,,,,
,,,,,,,,,,,,a,Correct!,0,75,75,63,1,t2.png,t3.png,1,0.909,19,female,2020-10-20_13h12.33.671,torte-q,2020.1.3,Win32,60,13221,1.38389,,,,,,,,,,,,,,,,,,,,,,,,,,,,,,,,,,,,,,,,,,,,
,,,,,,,,,,,,l,Correct!,0,76,76,50,1,t5.png,t1.png,4,9.55E-11,19,female,2020-10-20_13h12.33.671,torte-q,2020.1.3,Win32,60,13221,0.675735,,,,,,,,,,,,,,,,,,,,,,,,,,,,,,,,,,,,,,,,,,,,
,,,,,,,,,,,,a,Correct!,0,77,77,9,1,t4.png,t5.png,1,0.9,19,female,2020-10-20_13h12.33.671,torte-q,2020.1.3,Win32,60,13221,1.850935,,,,,,,,,,,,,,,,,,,,,,,,,,,,,,,,,,,,,,,,,,,,
,,,,,,,,,,,,a,Correct!,0,78,78,20,1,t2.png,t3.png,1,0.90855,19,female,2020-10-20_13h12.33.671,torte-q,2020.1.3,Win32,60,13221,1.33679,,,,,,,,,,,,,,,,,,,,,,,,,,,,,,,,,,,,,,,,,,,,
,,,,,,,,,,,,a,Correct!,0,79,79,76,1,t3.png,t2.png,1,0.90855,19,female,2020-10-20_13h12.33.671,torte-q,2020.1.3,Win32,60,13221,0.902645,,,,,,,,,,,,,,,,,,,,,,,,,,,,,,,,,,,,,,,,,,,,
,,,,,,,,,,,,a,Incorrect,0,80,80,16,1,t5.png,t4.png,1,0.9,19,female,2020-10-20_13h12.33.671,torte-q,2020.1.3,Win32,60,13221,0.93037,,,,,,,,,,,,,,,,,,,,,,,,,,,,,,,,,,,,,,,,,,,,
,,,,,,,,,,,,a,Correct!,0,81,81,75,1,t1.png,t1.png,0,0.97829,19,female,2020-10-20_13h12.33.671,torte-q,2020.1.3,Win32,60,13221,1.27541,,,,,,,,,,,,,,,,,,,,,,,,,,,,,,,,,,,,,,,,,,,,
,,,,,,,,,,,,l,Correct!,0,82,82,40,1,t1.png,t5.png,4,9.55E-11,19,female,2020-10-20_13h12.33.671,torte-q,2020.1.3,Win32,60,13221,0.92925,,,,,,,,,,,,,,,,,,,,,,,,,,,,,,,,,,,,,,,,,,,,
,,,,,,,,,,,,l,Correct!,0,83,83,30,1,t3.png,t1.png,2,0.056466,19,female,2020-10-20_13h12.33.671,torte-q,2020.1.3,Win32,60,13221,1.58304,,,,,,,,,,,,,,,,,,,,,,,,,,,,,,,,,,,,,,,,,,,,
,,,,,,,,,,,,a,Correct!,0,84,84,70,1,t5.png,t5.png,0,0.978,19,female,2020-10-20_13h12.33.671,torte-q,2020.1.3,Win32,60,13221,1.00653,,,,,,,,,,,,,,,,,,,,,,,,,,,,,,,,,,,,,,,,,,,,
,,,,,,,,,,,,a,Correct!,0,85,85,29,1,t5.png,t5.png,0,0.97829,19,female,2020-10-20_13h12.33.671,torte-q,2020.1.3,Win32,60,13221,0.78359,,,,,,,,,,,,,,,,,,,,,,,,,,,,,,,,,,,,,,,,,,,,
,,,,,,,,,,,,a,Correct!,0,86,86,109,1,t5.png,t5.png,0,0.97829,19,female,2020-10-20_13h12.33.671,torte-q,2020.1.3,Win32,60,13221,0.74126,,,,,,,,,,,,,,,,,,,,,,,,,,,,,,,,,,,,,,,,,,,,
,,,,,,,,,,,,a,Correct!,0,87,87,74,1,t5.png,t4.png,1,0.9,19,female,2020-10-20_13h12.33.671,torte-q,2020.1.3,Win32,60,13221,0.688235,,,,,,,,,,,,,,,,,,,,,,,,,,,,,,,,,,,,,,,,,,,,
,,,,,,,,,,,,l,Correct!,0,88,88,36,1,t3.png,t1.png,2,0.0565,19,female,2020-10-20_13h12.33.671,torte-q,2020.1.3,Win32,60,13221,1.26015,,,,,,,,,,,,,,,,,,,,,,,,,,,,,,,,,,,,,,,,,,,,
,,,,,,,,,,,,,Too slow :(,0,89,89,34,1,t5.png,t4.png,1,0.9,19,female,2020-10-20_13h12.33.671,torte-q,2020.1.3,Win32,60,13221,,,,,,,,,,,,,,,,,,,,,,,,,,,,,,,,,,,,,,,,,,,,,
,,,,,,,,,,,,l,Correct!,0,90,90,68,1,t1.png,t4.png,3,0.0000131,19,female,2020-10-20_13h12.33.671,torte-q,2020.1.3,Win32,60,13221,2.164735,,,,,,,,,,,,,,,,,,,,,,,,,,,,,,,,,,,,,,,,,,,,
,,,,,,,,,,,,a,Correct!,0,91,91,48,1,t5.png,t5.png,0,0.97829,19,female,2020-10-20_13h12.33.671,torte-q,2020.1.3,Win32,60,13221,1.48236,,,,,,,,,,,,,,,,,,,,,,,,,,,,,,,,,,,,,,,,,,,,
,,,,,,,,,,,,a,Incorrect,0,92,92,91,1,t1.png,t4.png,3,0.0000131,19,female,2020-10-20_13h12.33.671,torte-q,2020.1.3,Win32,60,13221,1.602695,,,,,,,,,,,,,,,,,,,,,,,,,,,,,,,,,,,,,,,,,,,,
,,,,,,,,,,,,,Too slow :(,0,93,93,114,1,t2.png,t3.png,1,0.90855,19,female,2020-10-20_13h12.33.671,torte-q,2020.1.3,Win32,60,13221,,,,,,,,,,,,,,,,,,,,,,,,,,,,,,,,,,,,,,,,,,,,,
,,,,,,,,,,,,a,Correct!,0,94,94,116,1,t5.png,t4.png,1,0.90025,19,female,2020-10-20_13h12.33.671,torte-q,2020.1.3,Win32,60,13221,0.97661,,,,,,,,,,,,,,,,,,,,,,,,,,,,,,,,,,,,,,,,,,,,
,,,,,,,,,,,,a,Correct!,0,95,95,110,1,t4.png,t5.png,1,0.90025,19,female,2020-10-20_13h12.33.671,torte-q,2020.1.3,Win32,60,13221,1.01014,,,,,,,,,,,,,,,,,,,,,,,,,,,,,,,,,,,,,,,,,,,,
,,,,,,,,,,,,l,Correct!,0,96,96,99,1,t1.png,t5.png,4,9.55E-11,19,female,2020-10-20_13h12.33.671,torte-q,2020.1.3,Win32,60,13221,1.07017,,,,,,,,,,,,,,,,,,,,,,,,,,,,,,,,,,,,,,,,,,,,
,,,,,,,,,,,,l,Correct!,0,97,97,83,1,t3.png,t1.png,2,0.056466,19,female,2020-10-20_13h12.33.671,torte-q,2020.1.3,Win32,60,13221,1.515195,,,,,,,,,,,,,,,,,,,,,,,,,,,,,,,,,,,,,,,,,,,,
,,,,,,,,,,,,a,Correct!,0,98,98,66,1,t4.png,t5.png,1,0.9,19,female,2020-10-20_13h12.33.671,torte-q,2020.1.3,Win32,60,13221,1.12602,,,,,,,,,,,,,,,,,,,,,,,,,,,,,,,,,,,,,,,,,,,,
,,,,,,,,,,,,l,Correct!,0,99,99,102,1,t4.png,t2.png,2,0.059078,19,female,2020-10-20_13h12.33.671,torte-q,2020.1.3,Win32,60,13221,1.34819,,,,,,,,,,,,,,,,,,,,,,,,,,,,,,,,,,,,,,,,,,,,
,,,,,,,,,,,,a,Correct!,0,100,100,41,1,t3.png,t2.png,1,0.90855,19,female,2020-10-20_13h12.33.671,torte-q,2020.1.3,Win32,60,13221,1.5526,,,,,,,,,,,,,,,,,,,,,,,,,,,,,,,,,,,,,,,,,,,,
,,,,,,,,,,,,a,Incorrect,0,101,101,11,1,t1.png,t4.png,3,0.0000131,19,female,2020-10-20_13h12.33.671,torte-q,2020.1.3,Win32,60,13221,1.3235,,,,,,,,,,,,,,,,,,,,,,,,,,,,,,,,,,,,,,,,,,,,
,,,,,,,,,,,,a,Correct!,0,102,102,92,1,t2.png,t3.png,1,0.909,19,female,2020-10-20_13h12.33.671,torte-q,2020.1.3,Win32,60,13221,1.26353,,,,,,,,,,,,,,,,,,,,,,,,,,,,,,,,,,,,,,,,,,,,
,,,,,,,,,,,,a,Correct!,0,103,103,58,1,t5.png,t4.png,1,0.90025,19,female,2020-10-20_13h12.33.671,torte-q,2020.1.3,Win32,60,13221,1.699795,,,,,,,,,,,,,,,,,,,,,,,,,,,,,,,,,,,,,,,,,,,,
,,,,,,,,,,,,a,Correct!,0,104,104,10,1,t2.png,t3.png,1,0.90855,19,female,2020-10-20_13h12.33.671,torte-q,2020.1.3,Win32,60,13221,1.46628,,,,,,,,,,,,,,,,,,,,,,,,,,,,,,,,,,,,,,,,,,,,
,,,,,,,,,,,,a,Correct!,0,105,105,65,1,t4.png,t5.png,1,0.90025,19,female,2020-10-20_13h12.33.671,torte-q,2020.1.3,Win32,60,13221,1.354835,,,,,,,,,,,,,,,,,,,,,,,,,,,,,,,,,,,,,,,,,,,,
,,,,,,,,,,,,a,Correct!,0,106,106,22,1,t2.png,t3.png,1,0.90855,19,female,2020-10-20_13h12.33.671,torte-q,2020.1.3,Win32,60,13221,1.13313,,,,,,,,,,,,,,,,,,,,,,,,,,,,,,,,,,,,,,,,,,,,
,,,,,,,,,,,,a,Correct!,0,107,107,23,1,t5.png,t4.png,1,0.90025,19,female,2020-10-20_13h12.33.671,torte-q,2020.1.3,Win32,60,13221,1.07384,,,,,,,,,,,,,,,,,,,,,,,,,,,,,,,,,,,,,,,,,,,,
,,,,,,,,,,,,a,Correct!,0,108,108,42,1,t5.png,t4.png,1,0.90025,19,female,2020-10-20_13h12.33.671,torte-q,2020.1.3,Win32,60,13221,0.90453,,,,,,,,,,,,,,,,,,,,,,,,,,,,,,,,,,,,,,,,,,,,
,,,,,,,,,,,,l,Correct!,0,109,109,37,1,t1.png,t4.png,3,0.0000131,19,female,2020-10-20_13h12.33.671,torte-q,2020.1.3,Win32,60,13221,1.57171,,,,,,,,,,,,,,,,,,,,,,,,,,,,,,,,,,,,,,,,,,,,
,,,,,,,,,,,,l,Correct!,0,110,110,17,1,t1.png,t4.png,3,0.0000131,19,female,2020-10-20_13h12.33.671,torte-q,2020.1.3,Win32,60,13221,0.905995,,,,,,,,,,,,,,,,,,,,,,,,,,,,,,,,,,,,,,,,,,,,
,,,,,,,,,,,,a,Correct!,0,111,111,106,1,t2.png,t3.png,1,0.90855,19,female,2020-10-20_13h12.33.671,torte-q,2020.1.3,Win32,60,13221,1.68244,,,,,,,,,,,,,,,,,,,,,,,,,,,,,,,,,,,,,,,,,,,,
,,,,,,,,,,,,l,Incorrect,0,112,112,112,1,t1.png,t1.png,0,0.97829,19,female,2020-10-20_13h12.33.671,torte-q,2020.1.3,Win32,60,13221,1.86394,,,,,,,,,,,,,,,,,,,,,,,,,,,,,,,,,,,,,,,,,,,,
,,,,,,,,,,,,a,Correct!,0,113,113,49,1,t4.png,t5.png,1,0.9,19,female,2020-10-20_13h12.33.671,torte-q,2020.1.3,Win32,60,13221,1.21974,,,,,,,,,,,,,,,,,,,,,,,,,,,,,,,,,,,,,,,,,,,,
,,,,,,,,,,,,l,Correct!,0,114,114,46,1,t4.png,t2.png,2,0.059078,19,female,2020-10-20_13h12.33.671,torte-q,2020.1.3,Win32,60,13221,1.123555,,,,,,,,,,,,,,,,,,,,,,,,,,,,,,,,,,,,,,,,,,,,
,,,,,,,,,,,,l,Correct!,0,115,115,87,1,t5.png,t1.png,4,9.55E-11,19,female,2020-10-20_13h12.33.671,torte-q,2020.1.3,Win32,60,13221,0.774635,,,,,,,,,,,,,,,,,,,,,,,,,,,,,,,,,,,,,,,,,,,,
,,,,,,,,,,,,a,Correct!,0,116,116,44,1,t2.png,t3.png,1,0.909,19,female,2020-10-20_13h12.33.671,torte-q,2020.1.3,Win32,60,13221,1.36607,,,,,,,,,,,,,,,,,,,,,,,,,,,,,,,,,,,,,,,,,,,,
,,,,,,,,,,,,l,Incorrect,0,117,117,103,1,t3.png,t1.png,2,0.056466,19,female,2020-10-20_13h12.33.671,torte-q,2020.1.3,Win32,60,13221,1.45011,,,,,,,,,,,,,,,,,,,,,,,,,,,,,,,,,,,,,,,,,,,,
,,,,,,,,,,,,l,Correct!,0,118,118,24,1,t4.png,t2.png,2,0.059078,19,female,2020-10-20_13h12.33.671,torte-q,2020.1.3,Win32,60,13221,1.399335,,,,,,,,,,,,,,,,,,,,,,,,,,,,,,,,,,,,,,,,,,,,
,,,,,,,,,,,,l,Correct!,0,119,119,55,1,t2.png,t4.png,2,0.059078,19,female,2020-10-20_13h12.33.671,torte-q,2020.1.3,Win32,60,13221,1.635585,,,,,,,,,,,,,,,,,,,,,,,,,,,,,,,,,,,,,,,,,,,,
,,,,,,,,,,,,a,Correct!,,,,,,t5.png,t4.png,1,0.9,19,female,2020-10-20_13h12.33.671,torte-q,2020.1.3,Win32,60,13221,1.76782,space,3.256645,space,23.353215,0,0,0,76,1,,,,,,,,,,,,,,,,,,,,,,,,,,,,,,,,,,,
,,,,,,,,,,,,a,Correct!,,,,,,t2.png,t2.png,0,0.981,19,female,2020-10-20_13h12.33.671,torte-q,2020.1.3,Win32,60,13221,1.445335,,,,,0,1,1,101,1,,,,,,,,,,,,,,,,,,,,,,,,,,,,,,,,,,,
,,,,,,,,,,,,a,Correct!,,,,,,t1.png,t2.png,1,0.90025,19,female,2020-10-20_13h12.33.671,torte-q,2020.1.3,Win32,60,13221,1.19578,,,,,0,2,2,72,1,,,,,,,,,,,,,,,,,,,,,,,,,,,,,,,,,,,
,,,,,,,,,,,,a,Correct!,,,,,,t3.png,t2.png,1,0.90855,19,female,2020-10-20_13h12.33.671,torte-q,2020.1.3,Win32,60,13221,2.0145,,,,,0,3,3,53,1,,,,,,,,,,,,,,,,,,,,,,,,,,,,,,,,,,,
,,,,,,,,,,,,a,Correct!,,,,,,t5.png,t4.png,1,0.90025,19,female,2020-10-20_13h12.33.671,torte-q,2020.1.3,Win32,60,13221,1.486155,,,,,0,4,4,27,1,,,,,,,,,,,,,,,,,,,,,,,,,,,,,,,,,,,
,,,,,,,,,,,,a,Correct!,,,,,,t2.png,t1.png,1,0.90025,19,female,2020-10-20_13h12.33.671,torte-q,2020.1.3,Win32,60,13221,1.93298,,,,,0,5,5,19,1,,,,,,,,,,,,,,,,,,,,,,,,,,,,,,,,,,,
,,,,,,,,,,,,a,Incorrect,,,,,,t4.png,t5.png,1,0.90025,19,female,2020-10-20_13h12.33.671,torte-q,2020.1.3,Win32,60,13221,1.524695,,,,,0,6,6,103,1,,,,,,,,,,,,,,,,,,,,,,,,,,,,,,,,,,,
,,,,,,,,,,,,l,Correct!,,,,,,t2.png,t4.png,2,0.059078,19,female,2020-10-20_13h12.33.671,torte-q,2020.1.3,Win32,60,13221,1.26443,,,,,0,7,7,37,1,,,,,,,,,,,,,,,,,,,,,,,,,,,,,,,,,,,
,,,,,,,,,,,,l,Correct!,,,,,,t5.png,t1.png,4,9.55E-11,19,female,2020-10-20_13h12.33.671,torte-q,2020.1.3,Win32,60,13221,1.08483,,,,,0,8,8,71,1,,,,,,,,,,,,,,,,,,,,,,,,,,,,,,,,,,,
,,,,,,,,,,,,l,Correct!,,,,,,t2.png,t4.png,2,0.059078,19,female,2020-10-20_13h12.33.671,torte-q,2020.1.3,Win32,60,13221,0.98435,,,,,0,9,9,24,1,,,,,,,,,,,,,,,,,,,,,,,,,,,,,,,,,,,
,,,,,,,,,,,,a,Correct!,,,,,,t3.png,t4.png,1,0.909,19,female,2020-10-20_13h12.33.671,torte-q,2020.1.3,Win32,60,13221,1.68109,,,,,0,10,10,82,1,,,,,,,,,,,,,,,,,,,,,,,,,,,,,,,,,,,
,,,,,,,,,,,,l,Correct!,,,,,,t1.png,t4.png,3,0.0000131,19,female,2020-10-20_13h12.33.671,torte-q,2020.1.3,Win32,60,13221,1.961965,,,,,0,11,11,107,1,,,,,,,,,,,,,,,,,,,,,,,,,,,,,,,,,,,
,,,,,,,,,,,,l,Correct!,,,,,,t1.png,t4.png,3,0.0000131,19,female,2020-10-20_13h12.33.671,torte-q,2020.1.3,Win32,60,13221,0.81384,,,,,0,12,12,17,1,,,,,,,,,,,,,,,,,,,,,,,,,,,,,,,,,,,
,,,,,,,,,,,,a,Correct!,,,,,,t1.png,t2.png,1,0.9,19,female,2020-10-20_13h12.33.671,torte-q,2020.1.3,Win32,60,13221,1.049665,,,,,0,13,13,1,1,,,,,,,,,,,,,,,,,,,,,,,,,,,,,,,,,,,
,,,,,,,,,,,,a,Correct!,,,,,,t2.png,t1.png,1,0.90025,19,female,2020-10-20_13h12.33.671,torte-q,2020.1.3,Win32,60,13221,1.049765,,,,,0,14,14,4,1,,,,,,,,,,,,,,,,,,,,,,,,,,,,,,,,,,,
,,,,,,,,,,,,a,Incorrect,,,,,,t4.png,t1.png,3,0.0000131,19,female,2020-10-20_13h12.33.671,torte-q,2020.1.3,Win32,60,13221,2.13017,,,,,0,15,15,48,1,,,,,,,,,,,,,,,,,,,,,,,,,,,,,,,,,,,
,,,,,,,,,,,,a,Correct!,,,,,,t5.png,t5.png,0,0.97829,19,female,2020-10-20_13h12.33.671,torte-q,2020.1.3,Win32,60,13221,1.06653,,,,,0,16,16,73,1,,,,,,,,,,,,,,,,,,,,,,,,,,,,,,,,,,,
,,,,,,,,,,,,a,Correct!,,,,,,t4.png,t5.png,1,0.90025,19,female,2020-10-20_13h12.33.671,torte-q,2020.1.3,Win32,60,13221,0.932285,,,,,0,17,17,113,1,,,,,,,,,,,,,,,,,,,,,,,,,,,,,,,,,,,
,,,,,,,,,,,,a,Correct!,,,,,,t4.png,t4.png,0,0.98115,19,female,2020-10-20_13h12.33.671,torte-q,2020.1.3,Win32,60,13221,0.763435,,,,,0,18,18,90,1,,,,,,,,,,,,,,,,,,,,,,,,,,,,,,,,,,,
,,,,,,,,,,,,l,Correct!,,,,,,t4.png,t1.png,3,0.0000131,19,female,2020-10-20_13h12.33.671,torte-q,2020.1.3,Win32,60,13221,1.130435,,,,,0,19,19,42,1,,,,,,,,,,,,,,,,,,,,,,,,,,,,,,,,,,,
,,,,,,,,,,,,a,Correct!,,,,,,t5.png,t5.png,0,0.97829,19,female,2020-10-20_13h12.33.671,torte-q,2020.1.3,Win32,60,13221,1.0802,,,,,0,20,20,94,1,,,,,,,,,,,,,,,,,,,,,,,,,,,,,,,,,,,
,,,,,,,,,,,,a,Correct!,,,,,,t5.png,t4.png,1,0.90025,19,female,2020-10-20_13h12.33.671,torte-q,2020.1.3,Win32,60,13221,1.163015,,,,,0,21,21,34,1,,,,,,,,,,,,,,,,,,,,,,,,,,,,,,,,,,,
,,,,,,,,,,,,a,Correct!,,,,,,t1.png,t2.png,1,0.90025,19,female,2020-10-20_13h12.33.671,torte-q,2020.1.3,Win32,60,13221,1.198375,,,,,0,22,22,112,1,,,,,,,,,,,,,,,,,,,,,,,,,,,,,,,,,,,
,,,,,,,,,,,,l,Correct!,,,,,,t1.png,t4.png,3,0.0000131,19,female,2020-10-20_13h12.33.671,torte-q,2020.1.3,Win32,60,13221,1.20753,,,,,0,23,23,81,1,,,,,,,,,,,,,,,,,,,,,,,,,,,,,,,,,,,
,,,,,,,,,,,,a,Incorrect,,,,,,t2.png,t3.png,1,0.90855,19,female,2020-10-20_13h12.33.671,torte-q,2020.1.3,Win32,60,13221,1.370735,,,,,0,24,24,65,1,,,,,,,,,,,,,,,,,,,,,,,,,,,,,,,,,,,
,,,,,,,,,,,,l,Correct!,,,,,,t2.png,t4.png,2,0.0591,19,female,2020-10-20_13h12.33.671,torte-q,2020.1.3,Win32,60,13221,1.18277,,,,,0,25,25,15,1,,,,,,,,,,,,,,,,,,,,,,,,,,,,,,,,,,,
,,,,,,,,,,,,l,Correct!,,,,,,t4.png,t2.png,2,0.059078,19,female,2020-10-20_13h12.33.671,torte-q,2020.1.3,Win32,60,13221,0.87983,,,,,0,26,26,86,1,,,,,,,,,,,,,,,,,,,,,,,,,,,,,,,,,,,
,,,,,,,,,,,,a,Incorrect,,,,,,t3.png,t5.png,2,0.056466,19,female,2020-10-20_13h12.33.671,torte-q,2020.1.3,Win32,60,13221,1.09992,,,,,0,27,27,14,1,,,,,,,,,,,,,,,,,,,,,,,,,,,,,,,,,,,
,,,,,,,,,,,,a,Incorrect,,,,,,t1.png,t3.png,2,0.056466,19,female,2020-10-20_13h12.33.671,torte-q,2020.1.3,Win32,60,13221,1.03451,,,,,0,28,28,99,1,,,,,,,,,,,,,,,,,,,,,,,,,,,,,,,,,,,
,,,,,,,,,,,,a,Correct!,,,,,,t3.png,t2.png,1,0.909,19,female,2020-10-20_13h12.33.671,torte-q,2020.1.3,Win32,60,13221,0.716335,,,,,0,29,29,23,1,,,,,,,,,,,,,,,,,,,,,,,,,,,,,,,,,,,
,,,,,,,,,,,,a,Correct!,,,,,,t1.png,t1.png,0,0.978,19,female,2020-10-20_13h12.33.671,torte-q,2020.1.3,Win32,60,13221,1.1817,,,,,0,30,30,54,1,,,,,,,,,,,,,,,,,,,,,,,,,,,,,,,,,,,
,,,,,,,,,,,,a,Correct!,,,,,,t4.png,t5.png,1,0.90025,19,female,2020-10-20_13h12.33.671,torte-q,2020.1.3,Win32,60,13221,0.820605,,,,,0,31,31,47,1,,,,,,,,,,,,,,,,,,,,,,,,,,,,,,,,,,,
,,,,,,,,,,,,l,Correct!,,,,,,t4.png,t1.png,3,0.0000131,19,female,2020-10-20_13h12.33.671,torte-q,2020.1.3,Win32,60,13221,1.079155,,,,,0,32,32,13,1,,,,,,,,,,,,,,,,,,,,,,,,,,,,,,,,,,,
,,,,,,,,,,,,a,Correct!,,,,,,t4.png,t4.png,0,0.98115,19,female,2020-10-20_13h12.33.671,torte-q,2020.1.3,Win32,60,13221,0.75521,,,,,0,33,33,52,1,,,,,,,,,,,,,,,,,,,,,,,,,,,,,,,,,,,
,,,,,,,,,,,,a,Incorrect,,,,,,t3.png,t1.png,2,0.056466,19,female,2020-10-20_13h12.33.671,torte-q,2020.1.3,Win32,60,13221,1.39885,,,,,0,34,34,29,1,,,,,,,,,,,,,,,,,,,,,,,,,,,,,,,,,,,
,,,,,,,,,,,,a,Correct!,,,,,,t3.png,t1.png,2,0.0565,19,female,2020-10-20_13h12.33.671,torte-q,2020.1.3,Win32,60,13221,1.139085,,,,,0,35,35,31,1,,,,,,,,,,,,,,,,,,,,,,,,,,,,,,,,,,,
,,,,,,,,,,,,a,Incorrect,,,,,,t3.png,t1.png,2,0.056466,19,female,2020-10-20_13h12.33.671,torte-q,2020.1.3,Win32,60,13221,0.703625,,,,,0,36,36,64,1,,,,,,,,,,,,,,,,,,,,,,,,,,,,,,,,,,,
,,,,,,,,,,,,l,Correct!,,,,,,t5.png,t2.png,3,0.0000131,19,female,2020-10-20_13h12.33.671,torte-q,2020.1.3,Win32,60,13221,0.948945,,,,,0,37,37,91,1,,,,,,,,,,,,,,,,,,,,,,,,,,,,,,,,,,,
,,,,,,,,,,,,a,Incorrect,,,,,,t2.png,t5.png,3,0.0000131,19,female,2020-10-20_13h12.33.671,torte-q,2020.1.3,Win32,60,13221,2.138595,,,,,0,38,38,104,1,,,,,,,,,,,,,,,,,,,,,,,,,,,,,,,,,,,
,,,,,,,,,,,,l,Correct!,,,,,,t1.png,t5.png,4,9.55E-11,19,female,2020-10-20_13h12.33.671,torte-q,2020.1.3,Win32,60,13221,0.813285,,,,,0,39,39,41,1,,,,,,,,,,,,,,,,,,,,,,,,,,,,,,,,,,,
,,,,,,,,,,,,a,Incorrect,,,,,,t5.png,t3.png,2,0.0565,19,female,2020-10-20_13h12.33.671,torte-q,2020.1.3,Win32,60,13221,0.836475,,,,,0,40,40,39,1,,,,,,,,,,,,,,,,,,,,,,,,,,,,,,,,,,,
,,,,,,,,,,,,l,Correct!,,,,,,t2.png,t4.png,2,0.059078,19,female,2020-10-20_13h12.33.671,torte-q,2020.1.3,Win32,60,13221,1.08246,,,,,0,41,41,77,1,,,,,,,,,,,,,,,,,,,,,,,,,,,,,,,,,,,
,,,,,,,,,,,,a,Correct!,,,,,,t4.png,t4.png,0,0.98115,19,female,2020-10-20_13h12.33.671,torte-q,2020.1.3,Win32,60,13221,0.698645,,,,,0,42,42,79,1,,,,,,,,,,,,,,,,,,,,,,,,,,,,,,,,,,,
,,,,,,,,,,,,a,Correct!,,,,,,t5.png,t4.png,1,0.9,19,female,2020-10-20_13h12.33.671,torte-q,2020.1.3,Win32,60,13221,0.707885,,,,,0,43,43,49,1,,,,,,,,,,,,,,,,,,,,,,,,,,,,,,,,,,,
,,,,,,,,,,,,a,Correct!,,,,,,t4.png,t5.png,1,0.9,19,female,2020-10-20_13h12.33.671,torte-q,2020.1.3,Win32,60,13221,0.556555,,,,,0,44,44,115,1,,,,,,,,,,,,,,,,,,,,,,,,,,,,,,,,,,,
,,,,,,,,,,,,a,Correct!,,,,,,t2.png,t2.png,0,0.98115,19,female,2020-10-20_13h12.33.671,torte-q,2020.1.3,Win32,60,13221,0.88029,,,,,0,45,45,2,1,,,,,,,,,,,,,,,,,,,,,,,,,,,,,,,,,,,
,,,,,,,,,,,,l,Correct!,,,,,,t5.png,t1.png,4,9.55E-11,19,female,2020-10-20_13h12.33.671,torte-q,2020.1.3,Win32,60,13221,0.781975,,,,,0,46,46,22,1,,,,,,,,,,,,,,,,,,,,,,,,,,,,,,,,,,,
,,,,,,,,,,,,a,Incorrect,,,,,,t3.png,t5.png,2,0.056466,19,female,2020-10-20_13h12.33.671,torte-q,2020.1.3,Win32,60,13221,0.636025,,,,,0,47,47,6,1,,,,,,,,,,,,,,,,,,,,,,,,,,,,,,,,,,,
,,,,,,,,,,,,a,Incorrect,,,,,,t5.png,t2.png,3,0.0000131,19,female,2020-10-20_13h12.33.671,torte-q,2020.1.3,Win32,60,13221,1.06542,,,,,0,48,48,116,1,,,,,,,,,,,,,,,,,,,,,,,,,,,,,,,,,,,
,,,,,,,,,,,,a,Correct!,,,,,,t2.png,t2.png,0,0.98115,19,female,2020-10-20_13h12.33.671,torte-q,2020.1.3,Win32,60,13221,0.649545,,,,,0,49,49,7,1,,,,,,,,,,,,,,,,,,,,,,,,,,,,,,,,,,,
,,,,,,,,,,,,a,Correct!,,,,,,t3.png,t2.png,1,0.90855,19,female,2020-10-20_13h12.33.671,torte-q,2020.1.3,Win32,60,13221,0.718945,,,,,0,50,50,97,1,,,,,,,,,,,,,,,,,,,,,,,,,,,,,,,,,,,
,,,,,,,,,,,,l,Correct!,,,,,,t1.png,t4.png,3,0.0000131,19,female,2020-10-20_13h12.33.671,torte-q,2020.1.3,Win32,60,13221,1.213885,,,,,0,51,51,92,1,,,,,,,,,,,,,,,,,,,,,,,,,,,,,,,,,,,
,,,,,,,,,,,,l,Correct!,,,,,,t1.png,t5.png,4,9.55E-11,19,female,2020-10-20_13h12.33.671,torte-q,2020.1.3,Win32,60,13221,0.77305,,,,,0,52,52,12,1,,,,,,,,,,,,,,,,,,,,,,,,,,,,,,,,,,,
,,,,,,,,,,,,a,Incorrect,,,,,,t5.png,t2.png,3,0.0000131,19,female,2020-10-20_13h12.33.671,torte-q,2020.1.3,Win32,60,13221,1.130535,,,,,0,53,53,98,1,,,,,,,,,,,,,,,,,,,,,,,,,,,,,,,,,,,
,,,,,,,,,,,,l,Incorrect,,,,,,t3.png,t2.png,1,0.90855,19,female,2020-10-20_13h12.33.671,torte-q,2020.1.3,Win32,60,13221,1.47082,,,,,0,54,54,18,1,,,,,,,,,,,,,,,,,,,,,,,,,,,,,,,,,,,
,,,,,,,,,,,,l,Correct!,,,,,,t1.png,t5.png,4,9.55E-11,19,female,2020-10-20_13h12.33.671,torte-q,2020.1.3,Win32,60,13221,0.749005,,,,,0,55,55,85,1,,,,,,,,,,,,,,,,,,,,,,,,,,,,,,,,,,,
,,,,,,,,,,,,a,Correct!,,,,,,t3.png,t4.png,1,0.909,19,female,2020-10-20_13h12.33.671,torte-q,2020.1.3,Win32,60,13221,0.958775,,,,,0,56,56,106,1,,,,,,,,,,,,,,,,,,,,,,,,,,,,,,,,,,,
,,,,,,,,,,,,l,Correct!,,,,,,t4.png,t2.png,2,0.0591,19,female,2020-10-20_13h12.33.671,torte-q,2020.1.3,Win32,60,13221,1.00774,,,,,0,57,57,36,1,,,,,,,,,,,,,,,,,,,,,,,,,,,,,,,,,,,
,,,,,,,,,,,,a,Incorrect,,,,,,t3.png,t5.png,2,0.0565,19,female,2020-10-20_13h12.33.671,torte-q,2020.1.3,Win32,60,13221,1.10629,,,,,0,58,58,83,1,,,,,,,,,,,,,,,,,,,,,,,,,,,,,,,,,,,
,,,,,,,,,,,,a,Correct!,,,,,,t4.png,t5.png,1,0.90025,19,female,2020-10-20_13h12.33.671,torte-q,2020.1.3,Win32,60,13221,1.20212,,,,,0,59,59,58,1,,,,,,,,,,,,,,,,,,,,,,,,,,,,,,,,,,,
,,,,,,,,,,,,a,Correct!,,,,,,t2.png,t3.png,1,0.90855,19,female,2020-10-20_13h12.33.671,torte-q,2020.1.3,Win32,60,13221,1.104515,,,,,0,60,60,68,1,,,,,,,,,,,,,,,,,,,,,,,,,,,,,,,,,,,
,,,,,,,,,,,,a,Incorrect,,,,,,t5.png,t3.png,2,0.056466,19,female,2020-10-20_13h12.33.671,torte-q,2020.1.3,Win32,60,13221,0.900865,,,,,0,61,61,56,1,,,,,,,,,,,,,,,,,,,,,,,,,,,,,,,,,,,
,,,,,,,,,,,,a,Correct!,,,,,,t2.png,t1.png,1,0.90025,19,female,2020-10-20_13h12.33.671,torte-q,2020.1.3,Win32,60,13221,0.949615,,,,,0,62,62,62,1,,,,,,,,,,,,,,,,,,,,,,,,,,,,,,,,,,,
,,,,,,,,,,,,a,Correct!,,,,,,t2.png,t1.png,1,0.9,19,female,2020-10-20_13h12.33.671,torte-q,2020.1.3,Win32,60,13221,0.619505,,,,,0,63,63,118,1,,,,,,,,,,,,,,,,,,,,,,,,,,,,,,,,,,,
,,,,,,,,,,,,a,Correct!,,,,,,t4.png,t3.png,1,0.90855,19,female,2020-10-20_13h12.33.671,torte-q,2020.1.3,Win32,60,13221,0.809375,,,,,0,64,64,45,1,,,,,,,,,,,,,,,,,,,,,,,,,,,,,,,,,,,
,,,,,,,,,,,,l,Correct!,,,,,,t2.png,t4.png,2,0.059078,19,female,2020-10-20_13h12.33.671,torte-q,2020.1.3,Win32,60,13221,0.9845,,,,,0,65,65,11,1,,,,,,,,,,,,,,,,,,,,,,,,,,,,,,,,,,,
,,,,,,,,,,,,a,Incorrect,,,,,,t1.png,t3.png,2,0.056466,19,female,2020-10-20_13h12.33.671,torte-q,2020.1.3,Win32,60,13221,1.060545,,,,,0,66,66,60,1,,,,,,,,,,,,,,,,,,,,,,,,,,,,,,,,,,,
,,,,,,,,,,,,a,Correct!,,,,,,t5.png,t5.png,0,0.97829,19,female,2020-10-20_13h12.33.671,torte-q,2020.1.3,Win32,60,13221,0.623355,,,,,0,67,67,25,1,,,,,,,,,,,,,,,,,,,,,,,,,,,,,,,,,,,
,,,,,,,,,,,,a,Correct!,,,,,,t2.png,t3.png,1,0.90855,19,female,2020-10-20_13h12.33.671,torte-q,2020.1.3,Win32,60,13221,0.930495,,,,,0,68,68,10,1,,,,,,,,,,,,,,,,,,,,,,,,,,,,,,,,,,,
,,,,,,,,,,,,a,Correct!,,,,,,t3.png,t4.png,1,0.90855,19,female,2020-10-20_13h12.33.671,torte-q,2020.1.3,Win32,60,13221,1.4403,,,,,0,69,69,96,1,,,,,,,,,,,,,,,,,,,,,,,,,,,,,,,,,,,
,,,,,,,,,,,,a,Incorrect,,,,,,t1.png,t3.png,2,0.056466,19,female,2020-10-20_13h12.33.671,torte-q,2020.1.3,Win32,60,13221,0.951505,,,,,0,70,70,69,1,,,,,,,,,,,,,,,,,,,,,,,,,,,,,,,,,,,
,,,,,,,,,,,,l,Correct!,,,,,,t4.png,t2.png,2,0.059078,19,female,2020-10-20_13h12.33.671,torte-q,2020.1.3,Win32,60,13221,0.86916,,,,,0,71,71,109,1,,,,,,,,,,,,,,,,,,,,,,,,,,,,,,,,,,,
,,,,,,,,,,,,a,Incorrect,,,,,,t1.png,t3.png,2,0.056466,19,female,2020-10-20_13h12.33.671,torte-q,2020.1.3,Win32,60,13221,0.91582,,,,,0,72,72,87,1,,,,,,,,,,,,,,,,,,,,,,,,,,,,,,,,,,,
,,,,,,,,,,,,a,Correct!,,,,,,t1.png,t1.png,0,0.978,19,female,2020-10-20_13h12.33.671,torte-q,2020.1.3,Win32,60,13221,0.752775,,,,,0,73,73,28,1,,,,,,,,,,,,,,,,,,,,,,,,,,,,,,,,,,,
,,,,,,,,,,,,a,Correct!,,,,,,t4.png,t3.png,1,0.909,19,female,2020-10-20_13h12.33.671,torte-q,2020.1.3,Win32,60,13221,0.888995,,,,,0,74,74,46,1,,,,,,,,,,,,,,,,,,,,,,,,,,,,,,,,,,,
,,,,,,,,,,,,l,Correct!,,,,,,t1.png,t5.png,4,9.55E-11,19,female,2020-10-20_13h12.33.671,torte-q,2020.1.3,Win32,60,13221,0.718965,,,,,0,75,75,55,1,,,,,,,,,,,,,,,,,,,,,,,,,,,,,,,,,,,
,,,,,,,,,,,,a,Correct!,,,,,,t4.png,t3.png,1,0.90855,19,female,2020-10-20_13h12.33.671,torte-q,2020.1.3,Win32,60,13221,0.840655,,,,,0,76,76,35,1,,,,,,,,,,,,,,,,,,,,,,,,,,,,,,,,,,,
,,,,,,,,,,,,a,Incorrect,,,,,,t3.png,t1.png,2,0.056466,19,female,2020-10-20_13h12.33.671,torte-q,2020.1.3,Win32,60,13221,0.908805,,,,,0,77,77,32,1,,,,,,,,,,,,,,,,,,,,,,,,,,,,,,,,,,,
,,,,,,,,,,,,a,Correct!,,,,,,t3.png,t2.png,1,0.909,19,female,2020-10-20_13h12.33.671,torte-q,2020.1.3,Win32,60,13221,0.953135,,,,,0,78,78,3,1,,,,,,,,,,,,,,,,,,,,,,,,,,,,,,,,,,,
,,,,,,,,,,,,l,Correct!,,,,,,t5.png,t1.png,4,9.55E-11,19,female,2020-10-20_13h12.33.671,torte-q,2020.1.3,Win32,60,13221,0.69872,,,,,0,79,79,100,1,,,,,,,,,,,,,,,,,,,,,,,,,,,,,,,,,,,
,,,,,,,,,,,,a,Correct!,,,,,,t2.png,t1.png,1,0.90025,19,female,2020-10-20_13h12.33.671,torte-q,2020.1.3,Win32,60,13221,0.946855,,,,,0,80,80,5,1,,,,,,,,,,,,,,,,,,,,,,,,,,,,,,,,,,,
,,,,,,,,,,,,l,Incorrect,,,,,,t2.png,t2.png,0,0.98115,19,female,2020-10-20_13h12.33.671,torte-q,2020.1.3,Win32,60,13221,1.916545,,,,,0,81,81,57,1,,,,,,,,,,,,,,,,,,,,,,,,,,,,,,,,,,,
,,,,,,,,,,,,a,Correct!,,,,,,t5.png,t5.png,0,0.97829,19,female,2020-10-20_13h12.33.671,torte-q,2020.1.3,Win32,60,13221,0.94881,,,,,0,82,82,70,1,,,,,,,,,,,,,,,,,,,,,,,,,,,,,,,,,,,
,,,,,,,,,,,,a,Incorrect,,,,,,t3.png,t5.png,2,0.056466,19,female,2020-10-20_13h12.33.671,torte-q,2020.1.3,Win32,60,13221,1.11545,,,,,0,83,83,44,1,,,,,,,,,,,,,,,,,,,,,,,,,,,,,,,,,,,
,,,,,,,,,,,,a,Correct!,,,,,,t1.png,t1.png,0,0.97829,19,female,2020-10-20_13h12.33.671,torte-q,2020.1.3,Win32,60,13221,0.528555,,,,,0,84,84,9,1,,,,,,,,,,,,,,,,,,,,,,,,,,,,,,,,,,,
,,,,,,,,,,,,l,Correct!,,,,,,t2.png,t5.png,3,0.0000131,19,female,2020-10-20_13h12.33.671,torte-q,2020.1.3,Win32,60,13221,0.781355,,,,,0,85,85,8,1,,,,,,,,,,,,,,,,,,,,,,,,,,,,,,,,,,,
,,,,,,,,,,,,a,Correct!,,,,,,t5.png,t4.png,1,0.90025,19,female,2020-10-20_13h12.33.671,torte-q,2020.1.3,Win32,60,13221,0.633875,,,,,0,86,86,26,1,,,,,,,,,,,,,,,,,,,,,,,,,,,,,,,,,,,
,,,,,,,,,,,,a,Incorrect,,,,,,t5.png,t3.png,2,0.056466,19,female,2020-10-20_13h12.33.671,torte-q,2020.1.3,Win32,60,13221,0.8362,,,,,0,87,87,114,1,,,,,,,,,,,,,,,,,,,,,,,,,,,,,,,,,,,
,,,,,,,,,,,,a,Correct!,,,,,,t2.png,t3.png,1,0.909,19,female,2020-10-20_13h12.33.671,torte-q,2020.1.3,Win32,60,13221,0.85298,,,,,0,88,88,74,1,,,,,,,,,,,,,,,,,,,,,,,,,,,,,,,,,,,
,,,,,,,,,,,,l,Correct!,,,,,,t5.png,t1.png,4,9.55E-11,19,female,2020-10-20_13h12.33.671,torte-q,2020.1.3,Win32,60,13221,1.0725,,,,,0,89,89,102,1,,,,,,,,,,,,,,,,,,,,,,,,,,,,,,,,,,,
,,,,,,,,,,,,a,Correct!,,,,,,t5.png,t5.png,0,0.978,19,female,2020-10-20_13h12.33.671,torte-q,2020.1.3,Win32,60,13221,0.78447,,,,,0,90,90,117,1,,,,,,,,,,,,,,,,,,,,,,,,,,,,,,,,,,,
,,,,,,,,,,,,a,Incorrect,,,,,,t2.png,t5.png,3,0.0000131,19,female,2020-10-20_13h12.33.671,torte-q,2020.1.3,Win32,60,13221,1.167405,,,,,0,91,91,66,1,,,,,,,,,,,,,,,,,,,,,,,,,,,,,,,,,,,
,,,,,,,,,,,,a,Correct!,,,,,,t4.png,t3.png,1,0.909,19,female,2020-10-20_13h12.33.671,torte-q,2020.1.3,Win32,60,13221,0.931505,,,,,0,92,92,20,1,,,,,,,,,,,,,,,,,,,,,,,,,,,,,,,,,,,
,,,,,,,,,,,,l,Correct!,,,,,,t4.png,t1.png,3,0.0000131,19,female,2020-10-20_13h12.33.671,torte-q,2020.1.3,Win32,60,13221,0.90614,,,,,0,93,93,61,1,,,,,,,,,,,,,,,,,,,,,,,,,,,,,,,,,,,
,,,,,,,,,,,,l,Correct!,,,,,,t1.png,t4.png,3,0.0000131,19,female,2020-10-20_13h12.33.671,torte-q,2020.1.3,Win32,60,13221,0.834765,,,,,0,94,94,50,1,,,,,,,,,,,,,,,,,,,,,,,,,,,,,,,,,,,
,,,,,,,,,,,,a,Correct!,,,,,,t2.png,t2.png,0,0.98115,19,female,2020-10-20_13h12.33.671,torte-q,2020.1.3,Win32,60,13221,1.12112,,,,,0,95,95,59,1,,,,,,,,,,,,,,,,,,,,,,,,,,,,,,,,,,,
,,,,,,,,,,,,a,Correct!,,,,,,t4.png,t4.png,0,0.98115,19,female,2020-10-20_13h12.33.671,torte-q,2020.1.3,Win32,60,13221,0.774005,,,,,0,96,96,80,1,,,,,,,,,,,,,,,,,,,,,,,,,,,,,,,,,,,
,,,,,,,,,,,,l,Correct!,,,,,,t4.png,t2.png,2,0.059078,19,female,2020-10-20_13h12.33.671,torte-q,2020.1.3,Win32,60,13221,0.7924,,,,,0,97,97,110,1,,,,,,,,,,,,,,,,,,,,,,,,,,,,,,,,,,,
,,,,,,,,,,,,l,Correct!,,,,,,t4.png,t2.png,2,0.059078,19,female,2020-10-20_13h12.33.671,torte-q,2020.1.3,Win32,60,13221,0.68192,,,,,0,98,98,88,1,,,,,,,,,,,,,,,,,,,,,,,,,,,,,,,,,,,
,,,,,,,,,,,,a,Incorrect,,,,,,t3.png,t5.png,2,0.0565,19,female,2020-10-20_13h12.33.671,torte-q,2020.1.3,Win32,60,13221,0.800565,,,,,0,99,99,30,1,,,,,,,,,,,,,,,,,,,,,,,,,,,,,,,,,,,
,,,,,,,,,,,,a,Correct!,,,,,,t1.png,t1.png,0,0.97829,19,female,2020-10-20_13h12.33.671,torte-q,2020.1.3,Win32,60,13221,1.228845,,,,,0,100,100,67,1,,,,,,,,,,,,,,,,,,,,,,,,,,,,,,,,,,,
,,,,,,,,,,,,l,Correct!,,,,,,t2.png,t5.png,3,0.0000131,19,female,2020-10-20_13h12.33.671,torte-q,2020.1.3,Win32,60,13221,1.00908,,,,,0,101,101,40,1,,,,,,,,,,,,,,,,,,,,,,,,,,,,,,,,,,,
,,,,,,,,,,,,a,Incorrect,,,,,,t4.png,t3.png,1,0.90855,19,female,2020-10-20_13h12.33.671,torte-q,2020.1.3,Win32,60,13221,1.079765,,,,,0,102,102,75,1,,,,,,,,,,,,,,,,,,,,,,,,,,,,,,,,,,,
,,,,,,,,,,,,a,Incorrect,,,,,,t5.png,t3.png,2,0.056466,19,female,2020-10-20_13h12.33.671,torte-q,2020.1.3,Win32,60,13221,0.71396,,,,,0,103,103,38,1,,,,,,,,,,,,,,,,,,,,,,,,,,,,,,,,,,,
,,,,,,,,,,,,l,Correct!,,,,,,t4.png,t1.png,3,0.0000131,19,female,2020-10-20_13h12.33.671,torte-q,2020.1.3,Win32,60,13221,0.816945,,,,,0,104,104,93,1,,,,,,,,,,,,,,,,,,,,,,,,,,,,,,,,,,,
,,,,,,,,,,,,a,Correct!,,,,,,t3.png,t4.png,1,0.90855,19,female,2020-10-20_13h12.33.671,torte-q,2020.1.3,Win32,60,13221,0.731805,,,,,0,105,105,84,1,,,,,,,,,,,,,,,,,,,,,,,,,,,,,,,,,,,
,,,,,,,,,,,,a,Incorrect,,,,,,t2.png,t5.png,3,0.0000131,19,female,2020-10-20_13h12.33.671,torte-q,2020.1.3,Win32,60,13221,1.00321,,,,,0,106,106,95,1,,,,,,,,,,,,,,,,,,,,,,,,,,,,,,,,,,,
,,,,,,,,,,,,a,Correct!,,,,,,t4.png,t4.png,0,0.98115,19,female,2020-10-20_13h12.33.671,torte-q,2020.1.3,Win32,60,13221,0.68122,,,,,0,107,107,21,1,,,,,,,,,,,,,,,,,,,,,,,,,,,,,,,,,,,
,,,,,,,,,,,,a,Correct!,,,,,,t1.png,t1.png,0,0.97829,19,female,2020-10-20_13h12.33.671,torte-q,2020.1.3,Win32,60,13221,0.63543,,,,,0,108,108,78,1,,,,,,,,,,,,,,,,,,,,,,,,,,,,,,,,,,,
,,,,,,,,,,,,a,Correct!,,,,,,t1.png,t2.png,1,0.90025,19,female,2020-10-20_13h12.33.671,torte-q,2020.1.3,Win32,60,13221,1.01041,,,,,0,109,109,33,1,,,,,,,,,,,,,,,,,,,,,,,,,,,,,,,,,,,
,,,,,,,,,,,,a,Incorrect,,,,,,t1.png,t3.png,2,0.056466,19,female,2020-10-20_13h12.33.671,torte-q,2020.1.3,Win32,60,13221,0.60386,,,,,0,110,110,63,1,,,,,,,,,,,,,,,,,,,,,,,,,,,,,,,,,,,
,,,,,,,,,,,,a,Incorrect,,,,,,t5.png,t2.png,3,0.0000131,19,female,2020-10-20_13h12.33.671,torte-q,2020.1.3,Win32,60,13221,0.824005,,,,,0,111,111,51,1,,,,,,,,,,,,,,,,,,,,,,,,,,,,,,,,,,,
,,,,,,,,,,,,l,Correct!,,,,,,t2.png,t3.png,1,0.90855,19,female,2020-10-20_13h12.33.671,torte-q,2020.1.3,Win32,60,13221,1.356765,,,,,0,112,112,111,1,,,,,,,,,,,,,,,,,,,,,,,,,,,,,,,,,,,
,,,,,,,,,,,,l,Correct!,,,,,,t5.png,t1.png,4,9.55E-11,19,female,2020-10-20_13h12.33.671,torte-q,2020.1.3,Win32,60,13221,0.700825,,,,,0,113,113,43,1,,,,,,,,,,,,,,,,,,,,,,,,,,,,,,,,,,,
,,,,,,,,,,,,l,Correct!,,,,,,t1.png,t5.png,4,9.55E-11,19,female,2020-10-20_13h12.33.671,torte-q,2020.1.3,Win32,60,13221,0.651625,,,,,0,114,114,16,1,,,,,,,,,,,,,,,,,,,,,,,,,,,,,,,,,,,
,,,,,,,,,,,,a,Correct!,,,,,,t3.png,t4.png,1,0.909,19,female,2020-10-20_13h12.33.671,torte-q,2020.1.3,Win32,60,13221,0.78097,,,,,0,115,115,89,1,,,,,,,,,,,,,,,,,,,,,,,,,,,,,,,,,,,
,,,,,,,,,,,,a,Incorrect,,,,,,t5.png,t3.png,2,0.056466,19,female,2020-10-20_13h12.33.671,torte-q,2020.1.3,Win32,60,13221,0.8162,,,,,0,116,116,108,1,,,,,,,,,,,,,,,,,,,,,,,,,,,,,,,,,,,
,,,,,,,,,,,,a,Incorrect,,,,,,t5.png,t2.png,3,0.0000131,19,female,2020-10-20_13h12.33.671,torte-q,2020.1.3,Win32,60,13221,0.554605,,,,,0,117,117,119,1,,,,,,,,,,,,,,,,,,,,,,,,,,,,,,,,,,,
,,,,,,,,,,,,a,Incorrect,,,,,,t3.png,t1.png,2,0.056466,19,female,2020-10-20_13h12.33.671,torte-q,2020.1.3,Win32,60,13221,1.374085,,,,,0,118,118,0,1,,,,,,,,,,,,,,,,,,,,,,,,,,,,,,,,,,,
,,,,,,,,,,,,a,Correct!,,,,,,t1.png,t2.png,1,0.90025,19,female,2020-10-20_13h12.33.671,torte-q,2020.1.3,Win32,60,13221,0.80404,,,,,0,119,119,105,1,,,,,,,,,,,,,,,,,,,,,,,,,,,,,,,,,,,
,,,,,,,,,,,,a,Incorrect,,,,,,t5.png,t2.png,3,0.0000131,19,female,2020-10-20_13h12.33.671,torte-q,2020.1.3,Win32,60,13221,1.88282,space,2.82338,,,,,,,,space,29.659325,lshift,13.943985,0,0,0,51,1,,,,,,,,,,,,,,,,,,,,,,,,,,
,,,,,,,,,,,,a,Correct!,,,,,,t5.png,t5.png,0,0.97829,19,female,2020-10-20_13h12.33.671,torte-q,2020.1.3,Win32,60,13221,0.701075,,,,,,,,,,,,,,0,1,1,94,1,,,,,,,,,,,,,,,,,,,,,,,,,,
,,,,,,,,,,,,a,Correct!,,,,,,t1.png,t1.png,0,0.97829,19,female,2020-10-20_13h12.33.671,torte-q,2020.1.3,Win32,60,13221,0.688785,,,,,,,,,,,,,,0,2,2,78,1,,,,,,,,,,,,,,,,,,,,,,,,,,
,,,,,,,,,,,,l,Incorrect,,,,,,t2.png,t3.png,1,0.90855,19,female,2020-10-20_13h12.33.671,torte-q,2020.1.3,Win32,60,13221,1.33493,,,,,,,,,,,,,,0,3,3,111,1,,,,,,,,,,,,,,,,,,,,,,,,,,
,,,,,,,,,,,,a,Correct!,,,,,,t4.png,t3.png,1,0.90855,19,female,2020-10-20_13h12.33.671,torte-q,2020.1.3,Win32,60,13221,1.224365,,,,,,,,,,,,,,0,4,4,35,1,,,,,,,,,,,,,,,,,,,,,,,,,,
,,,,,,,,,,,,l,Correct!,,,,,,t4.png,t1.png,3,0.0000131,19,female,2020-10-20_13h12.33.671,torte-q,2020.1.3,Win32,60,13221,1.03502,,,,,,,,,,,,,,0,5,5,93,1,,,,,,,,,,,,,,,,,,,,,,,,,,
,,,,,,,,,,,,a,Incorrect,,,,,,t3.png,t5.png,2,0.0565,19,female,2020-10-20_13h12.33.671,torte-q,2020.1.3,Win32,60,13221,0.92754,,,,,,,,,,,,,,0,6,6,30,1,,,,,,,,,,,,,,,,,,,,,,,,,,
,,,,,,,,,,,,a,Correct!,,,,,,t5.png,t4.png,1,0.9,19,female,2020-10-20_13h12.33.671,torte-q,2020.1.3,Win32,60,13221,0.80713,,,,,,,,,,,,,,0,7,7,76,1,,,,,,,,,,,,,,,,,,,,,,,,,,
,,,,,,,,,,,,a,Incorrect,,,,,,t5.png,t2.png,3,0.0000131,19,female,2020-10-20_13h12.33.671,torte-q,2020.1.3,Win32,60,13221,1.075975,,,,,,,,,,,,,,0,8,8,98,1,,,,,,,,,,,,,,,,,,,,,,,,,,
,,,,,,,,,,,,a,Incorrect,,,,,,t5.png,t4.png,1,0.90025,19,female,2020-10-20_13h12.33.671,torte-q,2020.1.3,Win32,60,13221,0.524695,,,,,,,,,,,,,,0,9,9,26,1,,,,,,,,,,,,,,,,,,,,,,,,,,
,,,,,,,,,,,,l,Correct!,,,,,,t5.png,t1.png,4,9.55E-11,19,female,2020-10-20_13h12.33.671,torte-q,2020.1.3,Win32,60,13221,1.219885,,,,,,,,,,,,,,0,10,10,43,1,,,,,,,,,,,,,,,,,,,,,,,,,,
,,,,,,,,,,,,a,Correct!,,,,,,t1.png,t2.png,1,0.90025,19,female,2020-10-20_13h12.33.671,torte-q,2020.1.3,Win32,60,13221,1.15786,,,,,,,,,,,,,,0,11,11,112,1,,,,,,,,,,,,,,,,,,,,,,,,,,
,,,,,,,,,,,,a,Correct!,,,,,,t1.png,t2.png,1,0.9,19,female,2020-10-20_13h12.33.671,torte-q,2020.1.3,Win32,60,13221,0.802535,,,,,,,,,,,,,,0,12,12,1,1,,,,,,,,,,,,,,,,,,,,,,,,,,
,,,,,,,,,,,,l,Correct!,,,,,,t1.png,t5.png,4,9.55E-11,19,female,2020-10-20_13h12.33.671,torte-q,2020.1.3,Win32,60,13221,0.89161,,,,,,,,,,,,,,0,13,13,41,1,,,,,,,,,,,,,,,,,,,,,,,,,,
,,,,,,,,,,,,a,Incorrect,,,,,,t1.png,t3.png,2,0.056466,19,female,2020-10-20_13h12.33.671,torte-q,2020.1.3,Win32,60,13221,0.934975,,,,,,,,,,,,,,0,14,14,99,1,,,,,,,,,,,,,,,,,,,,,,,,,,
,,,,,,,,,,,,l,Incorrect,,,,,,t2.png,t3.png,1,0.90855,19,female,2020-10-20_13h12.33.671,torte-q,2020.1.3,Win32,60,13221,1.05107,,,,,,,,,,,,,,0,15,15,68,1,,,,,,,,,,,,,,,,,,,,,,,,,,
,,,,,,,,,,,,l,Correct!,,,,,,t4.png,t1.png,3,0.0000131,19,female,2020-10-20_13h12.33.671,torte-q,2020.1.3,Win32,60,13221,0.83788,,,,,,,,,,,,,,0,16,16,61,1,,,,,,,,,,,,,,,,,,,,,,,,,,
,,,,,,,,,,,,l,Correct!,,,,,,t5.png,t1.png,4,9.55E-11,19,female,2020-10-20_13h12.33.671,torte-q,2020.1.3,Win32,60,13221,0.61799,,,,,,,,,,,,,,0,17,17,22,1,,,,,,,,,,,,,,,,,,,,,,,,,,
,,,,,,,,,,,,a,Correct!,,,,,,t2.png,t1.png,1,0.9,19,female,2020-10-20_13h12.33.671,torte-q,2020.1.3,Win32,60,13221,0.677135,,,,,,,,,,,,,,0,18,18,118,1,,,,,,,,,,,,,,,,,,,,,,,,,,
,,,,,,,,,,,,a,Incorrect,,,,,,t2.png,t5.png,3,0.0000131,19,female,2020-10-20_13h12.33.671,torte-q,2020.1.3,Win32,60,13221,1.517545,,,,,,,,,,,,,,0,19,19,95,1,,,,,,,,,,,,,,,,,,,,,,,,,,
,,,,,,,,,,,,a,Incorrect,,,,,,t3.png,t1.png,2,0.0565,19,female,2020-10-20_13h12.33.671,torte-q,2020.1.3,Win32,60,13221,0.83706,,,,,,,,,,,,,,0,20,20,31,1,,,,,,,,,,,,,,,,,,,,,,,,,,
,,,,,,,,,,,,a,Correct!,,,,,,t3.png,t5.png,2,0.056466,19,female,2020-10-20_13h12.33.671,torte-q,2020.1.3,Win32,60,13221,1.22794,,,,,,,,,,,,,,0,21,21,6,1,,,,,,,,,,,,,,,,,,,,,,,,,,
,,,,,,,,,,,,a,Incorrect,,,,,,t3.png,t5.png,2,0.056466,19,female,2020-10-20_13h12.33.671,torte-q,2020.1.3,Win32,60,13221,1.03978,,,,,,,,,,,,,,0,22,22,44,1,,,,,,,,,,,,,,,,,,,,,,,,,,
,,,,,,,,,,,,l,Incorrect,,,,,,t2.png,t3.png,1,0.90855,19,female,2020-10-20_13h12.33.671,torte-q,2020.1.3,Win32,60,13221,1.07243,,,,,,,,,,,,,,0,23,23,65,1,,,,,,,,,,,,,,,,,,,,,,,,,,
,,,,,,,,,,,,a,Correct!,,,,,,t3.png,t4.png,1,0.90855,19,female,2020-10-20_13h12.33.671,torte-q,2020.1.3,Win32,60,13221,1.277605,,,,,,,,,,,,,,0,24,24,96,1,,,,,,,,,,,,,,,,,,,,,,,,,,
,,,,,,,,,,,,a,Incorrect,,,,,,t1.png,t3.png,2,0.056466,19,female,2020-10-20_13h12.33.671,torte-q,2020.1.3,Win32,60,13221,1.054955,,,,,,,,,,,,,,0,25,25,60,1,,,,,,,,,,,,,,,,,,,,,,,,,,
,,,,,,,,,,,,l,Incorrect,,,,,,t2.png,t3.png,1,0.909,19,female,2020-10-20_13h12.33.671,torte-q,2020.1.3,Win32,60,13221,1.017785,,,,,,,,,,,,,,0,26,26,74,1,,,,,,,,,,,,,,,,,,,,,,,,,,
,,,,,,,,,,,,a,Incorrect,,,,,,t3.png,t4.png,1,0.909,19,female,2020-10-20_13h12.33.671,torte-q,2020.1.3,Win32,60,13221,1.15113,,,,,,,,,,,,,,0,27,27,82,1,,,,,,,,,,,,,,,,,,,,,,,,,,
,,,,,,,,,,,,l,Incorrect,,,,,,t3.png,t2.png,1,0.90855,19,female,2020-10-20_13h12.33.671,torte-q,2020.1.3,Win32,60,13221,0.87043,,,,,,,,,,,,,,0,28,28,97,1,,,,,,,,,,,,,,,,,,,,,,,,,,
,,,,,,,,,,,,a,Correct!,,,,,,t4.png,t5.png,1,0.90025,19,female,2020-10-20_13h12.33.671,torte-q,2020.1.3,Win32,60,13221,0.969095,,,,,,,,,,,,,,0,29,29,113,1,,,,,,,,,,,,,,,,,,,,,,,,,,
,,,,,,,,,,,,a,Correct!,,,,,,t4.png,t5.png,1,0.90025,19,female,2020-10-20_13h12.33.671,torte-q,2020.1.3,Win32,60,13221,0.656015,,,,,,,,,,,,,,0,30,30,58,1,,,,,,,,,,,,,,,,,,,,,,,,,,
,,,,,,,,,,,,a,Correct!,,,,,,t5.png,t4.png,1,0.90025,19,female,2020-10-20_13h12.33.671,torte-q,2020.1.3,Win32,60,13221,0.68581,,,,,,,,,,,,,,0,31,31,27,1,,,,,,,,,,,,,,,,,,,,,,,,,,
,,,,,,,,,,,,l,Correct!,,,,,,t1.png,t4.png,3,0.0000131,19,female,2020-10-20_13h12.33.671,torte-q,2020.1.3,Win32,60,13221,0.797125,,,,,,,,,,,,,,0,32,32,107,1,,,,,,,,,,,,,,,,,,,,,,,,,,
,,,,,,,,,,,,a,Correct!,,,,,,t3.png,t4.png,1,0.909,19,female,2020-10-20_13h12.33.671,torte-q,2020.1.3,Win32,60,13221,0.70728,,,,,,,,,,,,,,0,33,33,106,1,,,,,,,,,,,,,,,,,,,,,,,,,,
,,,,,,,,,,,,l,Correct!,,,,,,t4.png,t1.png,3,0.0000131,19,female,2020-10-20_13h12.33.671,torte-q,2020.1.3,Win32,60,13221,0.834715,,,,,,,,,,,,,,0,34,34,42,1,,,,,,,,,,,,,,,,,,,,,,,,,,
,,,,,,,,,,,,l,Correct!,,,,,,t1.png,t4.png,3,0.0000131,19,female,2020-10-20_13h12.33.671,torte-q,2020.1.3,Win32,60,13221,0.785085,,,,,,,,,,,,,,0,35,35,50,1,,,,,,,,,,,,,,,,,,,,,,,,,,
,,,,,,,,,,,,a,Correct!,,,,,,t1.png,t1.png,0,0.97829,19,female,2020-10-20_13h12.33.671,torte-q,2020.1.3,Win32,60,13221,0.67815,,,,,,,,,,,,,,0,36,36,67,1,,,,,,,,,,,,,,,,,,,,,,,,,,
,,,,,,,,,,,,a,Incorrect,,,,,,t5.png,t3.png,2,0.056466,19,female,2020-10-20_13h12.33.671,torte-q,2020.1.3,Win32,60,13221,0.74117,,,,,,,,,,,,,,0,37,37,38,1,,,,,,,,,,,,,,,,,,,,,,,,,,
,,,,,,,,,,,,a,Incorrect,,,,,,t4.png,t4.png,0,0.98115,19,female,2020-10-20_13h12.33.671,torte-q,2020.1.3,Win32,60,13221,0.67303,,,,,,,,,,,,,,0,38,38,90,1,,,,,,,,,,,,,,,,,,,,,,,,,,
,,,,,,,,,,,,a,Correct!,,,,,,t2.png,t2.png,0,0.98115,19,female,2020-10-20_13h12.33.671,torte-q,2020.1.3,Win32,60,13221,0.76968,,,,,,,,,,,,,,0,39,39,2,1,,,,,,,,,,,,,,,,,,,,,,,,,,
,,,,,,,,,,,,a,Correct!,,,,,,t4.png,t5.png,1,0.90025,19,female,2020-10-20_13h12.33.671,torte-q,2020.1.3,Win32,60,13221,0.60116,,,,,,,,,,,,,,0,40,40,103,1,,,,,,,,,,,,,,,,,,,,,,,,,,
,,,,,,,,,,,,l,Incorrect,,,,,,t3.png,t2.png,1,0.909,19,female,2020-10-20_13h12.33.671,torte-q,2020.1.3,Win32,60,13221,1.037275,,,,,,,,,,,,,,0,41,41,3,1,,,,,,,,,,,,,,,,,,,,,,,,,,
,,,,,,,,,,,,a,Incorrect,,,,,,t2.png,t5.png,3,0.0000131,19,female,2020-10-20_13h12.33.671,torte-q,2020.1.3,Win32,60,13221,0.95655,,,,,,,,,,,,,,0,42,42,40,1,,,,,,,,,,,,,,,,,,,,,,,,,,
,,,,,,,,,,,,a,Correct!,,,,,,t4.png,t4.png,0,0.98115,19,female,2020-10-20_13h12.33.671,torte-q,2020.1.3,Win32,60,13221,0.6179,,,,,,,,,,,,,,0,43,43,79,1,,,,,,,,,,,,,,,,,,,,,,,,,,
,,,,,,,,,,,,a,Correct!,,,,,,t5.png,t4.png,1,0.90025,19,female,2020-10-20_13h12.33.671,torte-q,2020.1.3,Win32,60,13221,0.51745,,,,,,,,,,,,,,0,44,44,34,1,,,,,,,,,,,,,,,,,,,,,,,,,,
,,,,,,,,,,,,a,Correct!,,,,,,t4.png,t4.png,0,0.98115,19,female,2020-10-20_13h12.33.671,torte-q,2020.1.3,Win32,60,13221,0.52624,,,,,,,,,,,,,,0,45,45,80,1,,,,,,,,,,,,,,,,,,,,,,,,,,
,,,,,,,,,,,,l,Incorrect,,,,,,t2.png,t3.png,1,0.90855,19,female,2020-10-20_13h12.33.671,torte-q,2020.1.3,Win32,60,13221,0.808845,,,,,,,,,,,,,,0,46,46,10,1,,,,,,,,,,,,,,,,,,,,,,,,,,
,,,,,,,,,,,,a,Correct!,,,,,,t4.png,t5.png,1,0.90025,19,female,2020-10-20_13h12.33.671,torte-q,2020.1.3,Win32,60,13221,1.407725,,,,,,,,,,,,,,0,47,47,47,1,,,,,,,,,,,,,,,,,,,,,,,,,,
,,,,,,,,,,,,a,Correct!,,,,,,t1.png,t1.png,0,0.978,19,female,2020-10-20_13h12.33.671,torte-q,2020.1.3,Win32,60,13221,0.56307,,,,,,,,,,,,,,0,48,48,28,1,,,,,,,,,,,,,,,,,,,,,,,,,,
,,,,,,,,,,,,a,Correct!,,,,,,t3.png,t2.png,1,0.90855,19,female,2020-10-20_13h12.33.671,torte-q,2020.1.3,Win32,60,13221,0.44215,,,,,,,,,,,,,,0,49,49,53,1,,,,,,,,,,,,,,,,,,,,,,,,,,
,,,,,,,,,,,,l,Correct!,,,,,,t4.png,t1.png,3,0.0000131,19,female,2020-10-20_13h12.33.671,torte-q,2020.1.3,Win32,60,13221,0.853355,,,,,,,,,,,,,,0,50,50,13,1,,,,,,,,,,,,,,,,,,,,,,,,,,
,,,,,,,,,,,,a,Incorrect,,,,,,t5.png,t2.png,3,0.0000131,19,female,2020-10-20_13h12.33.671,torte-q,2020.1.3,Win32,60,13221,0.65575,,,,,,,,,,,,,,0,51,51,91,1,,,,,,,,,,,,,,,,,,,,,,,,,,
,,,,,,,,,,,,a,Incorrect,,,,,,t1.png,t5.png,4,9.55E-11,19,female,2020-10-20_13h12.33.671,torte-q,2020.1.3,Win32,60,13221,0.86235,,,,,,,,,,,,,,0,52,52,12,1,,,,,,,,,,,,,,,,,,,,,,,,,,
,,,,,,,,,,,,a,Incorrect,,,,,,t3.png,t1.png,2,0.056466,19,female,2020-10-20_13h12.33.671,torte-q,2020.1.3,Win32,60,13221,1.074525,,,,,,,,,,,,,,0,53,53,32,1,,,,,,,,,,,,,,,,,,,,,,,,,,
,,,,,,,,,,,,l,Correct!,,,,,,t2.png,t4.png,2,0.059078,19,female,2020-10-20_13h12.33.671,torte-q,2020.1.3,Win32,60,13221,2.06243,,,,,,,,,,,,,,0,54,54,11,1,,,,,,,,,,,,,,,,,,,,,,,,,,
,,,,,,,,,,,,a,Incorrect,,,,,,t1.png,t4.png,3,0.0000131,19,female,2020-10-20_13h12.33.671,torte-q,2020.1.3,Win32,60,13221,0.9463,,,,,,,,,,,,,,0,55,55,17,1,,,,,,,,,,,,,,,,,,,,,,,,,,
,,,,,,,,,,,,a,Correct!,,,,,,t5.png,t5.png,0,0.978,19,female,2020-10-20_13h12.33.671,torte-q,2020.1.3,Win32,60,13221,0.634915,,,,,,,,,,,,,,0,56,56,117,1,,,,,,,,,,,,,,,,,,,,,,,,,,
,,,,,,,,,,,,a,Incorrect,,,,,,t5.png,t3.png,2,0.0565,19,female,2020-10-20_13h12.33.671,torte-q,2020.1.3,Win32,60,13221,0.79295,,,,,,,,,,,,,,0,57,57,39,1,,,,,,,,,,,,,,,,,,,,,,,,,,
,,,,,,,,,,,,a,Incorrect,,,,,,t1.png,t3.png,2,0.056466,19,female,2020-10-20_13h12.33.671,torte-q,2020.1.3,Win32,60,13221,1.77017,,,,,,,,,,,,,,0,58,58,87,1,,,,,,,,,,,,,,,,,,,,,,,,,,
,,,,,,,,,,,,a,Correct!,,,,,,t5.png,t5.png,0,0.97829,19,female,2020-10-20_13h12.33.671,torte-q,2020.1.3,Win32,60,13221,0.58735,,,,,,,,,,,,,,0,59,59,70,1,,,,,,,,,,,,,,,,,,,,,,,,,,
,,,,,,,,,,,,l,Correct!,,,,,,t5.png,t1.png,4,9.55E-11,19,female,2020-10-20_13h12.33.671,torte-q,2020.1.3,Win32,60,13221,1.510875,,,,,,,,,,,,,,0,60,60,102,1,,,,,,,,,,,,,,,,,,,,,,,,,,
,,,,,,,,,,,,a,Correct!,,,,,,t1.png,t2.png,1,0.90025,19,female,2020-10-20_13h12.33.671,torte-q,2020.1.3,Win32,60,13221,1.318305,,,,,,,,,,,,,,0,61,61,105,1,,,,,,,,,,,,,,,,,,,,,,,,,,
,,,,,,,,,,,,l,Correct!,,,,,,t2.png,t4.png,2,0.0591,19,female,2020-10-20_13h12.33.671,torte-q,2020.1.3,Win32,60,13221,1.18752,,,,,,,,,,,,,,0,62,62,15,1,,,,,,,,,,,,,,,,,,,,,,,,,,
,,,,,,,,,,,,a,Correct!,,,,,,t2.png,t1.png,1,0.90025,19,female,2020-10-20_13h12.33.671,torte-q,2020.1.3,Win32,60,13221,1.571445,,,,,,,,,,,,,,0,63,63,19,1,,,,,,,,,,,,,,,,,,,,,,,,,,
,,,,,,,,,,,,l,Correct!,,,,,,t1.png,t3.png,2,0.056466,19,female,2020-10-20_13h12.33.671,torte-q,2020.1.3,Win32,60,13221,1.033295,,,,,,,,,,,,,,0,64,64,69,1,,,,,,,,,,,,,,,,,,,,,,,,,,
,,,,,,,,,,,,l,Correct!,,,,,,t3.png,t1.png,2,0.056466,19,female,2020-10-20_13h12.33.671,torte-q,2020.1.3,Win32,60,13221,1.451345,,,,,,,,,,,,,,0,65,65,64,1,,,,,,,,,,,,,,,,,,,,,,,,,,
,,,,,,,,,,,,l,Correct!,,,,,,t5.png,t1.png,4,9.55E-11,19,female,2020-10-20_13h12.33.671,torte-q,2020.1.3,Win32,60,13221,0.73887,,,,,,,,,,,,,,0,66,66,71,1,,,,,,,,,,,,,,,,,,,,,,,,,,
,,,,,,,,,,,,a,Incorrect,,,,,,t5.png,t2.png,3,0.0000131,19,female,2020-10-20_13h12.33.671,torte-q,2020.1.3,Win32,60,13221,1.67061,,,,,,,,,,,,,,0,67,67,119,1,,,,,,,,,,,,,,,,,,,,,,,,,,
,,,,,,,,,,,,a,Correct!,,,,,,t4.png,t5.png,1,0.9,19,female,2020-10-20_13h12.33.671,torte-q,2020.1.3,Win32,60,13221,1.01887,,,,,,,,,,,,,,0,68,68,115,1,,,,,,,,,,,,,,,,,,,,,,,,,,
,,,,,,,,,,,,a,Correct!,,,,,,t2.png,t2.png,0,0.98115,19,female,2020-10-20_13h12.33.671,torte-q,2020.1.3,Win32,60,13221,0.83757,,,,,,,,,,,,,,0,69,69,59,1,,,,,,,,,,,,,,,,,,,,,,,,,,
,,,,,,,,,,,,a,Correct!,,,,,,t2.png,t2.png,0,0.981,19,female,2020-10-20_13h12.33.671,torte-q,2020.1.3,Win32,60,13221,0.851535,,,,,,,,,,,,,,0,70,70,101,1,,,,,,,,,,,,,,,,,,,,,,,,,,
,,,,,,,,,,,,a,Correct!,,,,,,t4.png,t3.png,1,0.909,19,female,2020-10-20_13h12.33.671,torte-q,2020.1.3,Win32,60,13221,1.1625,,,,,,,,,,,,,,0,71,71,46,1,,,,,,,,,,,,,,,,,,,,,,,,,,
,,,,,,,,,,,,l,Correct!,,,,,,t1.png,t5.png,4,9.55E-11,19,female,2020-10-20_13h12.33.671,torte-q,2020.1.3,Win32,60,13221,0.723865,,,,,,,,,,,,,,0,72,72,85,1,,,,,,,,,,,,,,,,,,,,,,,,,,
,,,,,,,,,,,,a,Correct!,,,,,,t1.png,t1.png,0,0.978,19,female,2020-10-20_13h12.33.671,torte-q,2020.1.3,Win32,60,13221,0.668215,,,,,,,,,,,,,,0,73,73,54,1,,,,,,,,,,,,,,,,,,,,,,,,,,
,,,,,,,,,,,,a,Correct!,,,,,,t4.png,t3.png,1,0.90855,19,female,2020-10-20_13h12.33.671,torte-q,2020.1.3,Win32,60,13221,0.816875,,,,,,,,,,,,,,0,74,74,75,1,,,,,,,,,,,,,,,,,,,,,,,,,,
,,,,,,,,,,,,a,Correct!,,,,,,t5.png,t5.png,0,0.97829,19,female,2020-10-20_13h12.33.671,torte-q,2020.1.3,Win32,60,13221,0.695405,,,,,,,,,,,,,,0,75,75,73,1,,,,,,,,,,,,,,,,,,,,,,,,,,
,,,,,,,,,,,,a,Correct!,,,,,,t2.png,t2.png,0,0.98115,19,female,2020-10-20_13h12.33.671,torte-q,2020.1.3,Win32,60,13221,0.67756,,,,,,,,,,,,,,0,76,76,57,1,,,,,,,,,,,,,,,,,,,,,,,,,,
,,,,,,,,,,,,a,Correct!,,,,,,t2.png,t2.png,0,0.98115,19,female,2020-10-20_13h12.33.671,torte-q,2020.1.3,Win32,60,13221,0.55255,,,,,,,,,,,,,,0,77,77,7,1,,,,,,,,,,,,,,,,,,,,,,,,,,
,,,,,,,,,,,,l,Correct!,,,,,,t4.png,t2.png,2,0.059078,19,female,2020-10-20_13h12.33.671,torte-q,2020.1.3,Win32,60,13221,0.823665,,,,,,,,,,,,,,0,78,78,86,1,,,,,,,,,,,,,,,,,,,,,,,,,,
,,,,,,,,,,,,a,Incorrect,,,,,,t2.png,t5.png,3,0.0000131,19,female,2020-10-20_13h12.33.671,torte-q,2020.1.3,Win32,60,13221,0.84121,,,,,,,,,,,,,,0,79,79,104,1,,,,,,,,,,,,,,,,,,,,,,,,,,
,,,,,,,,,,,,a,Correct!,,,,,,t1.png,t2.png,1,0.90025,19,female,2020-10-20_13h12.33.671,torte-q,2020.1.3,Win32,60,13221,0.717815,,,,,,,,,,,,,,0,80,80,72,1,,,,,,,,,,,,,,,,,,,,,,,,,,
,,,,,,,,,,,,l,Correct!,,,,,,t1.png,t4.png,3,0.0000131,19,female,2020-10-20_13h12.33.671,torte-q,2020.1.3,Win32,60,13221,0.904015,,,,,,,,,,,,,,0,81,81,81,1,,,,,,,,,,,,,,,,,,,,,,,,,,
,,,,,,,,,,,,a,Incorrect,,,,,,t5.png,t2.png,3,0.0000131,19,female,2020-10-20_13h12.33.671,torte-q,2020.1.3,Win32,60,13221,0.668235,,,,,,,,,,,,,,0,82,82,116,1,,,,,,,,,,,,,,,,,,,,,,,,,,
,,,,,,,,,,,,l,Correct!,,,,,,t5.png,t1.png,4,9.55E-11,19,female,2020-10-20_13h12.33.671,torte-q,2020.1.3,Win32,60,13221,0.636895,,,,,,,,,,,,,,0,83,83,100,1,,,,,,,,,,,,,,,,,,,,,,,,,,
,,,,,,,,,,,,a,Incorrect,,,,,,t3.png,t5.png,2,0.056466,19,female,2020-10-20_13h12.33.671,torte-q,2020.1.3,Win32,60,13221,0.801795,,,,,,,,,,,,,,0,84,84,14,1,,,,,,,,,,,,,,,,,,,,,,,,,,
,,,,,,,,,,,,a,Incorrect,,,,,,t5.png,t3.png,2,0.056466,19,female,2020-10-20_13h12.33.671,torte-q,2020.1.3,Win32,60,13221,0.646685,,,,,,,,,,,,,,0,85,85,108,1,,,,,,,,,,,,,,,,,,,,,,,,,,
,,,,,,,,,,,,l,Correct!,,,,,,t4.png,t2.png,2,0.0591,19,female,2020-10-20_13h12.33.671,torte-q,2020.1.3,Win32,60,13221,0.85021,,,,,,,,,,,,,,0,86,86,36,1,,,,,,,,,,,,,,,,,,,,,,,,,,
,,,,,,,,,,,,l,Correct!,,,,,,t4.png,t2.png,2,0.059078,19,female,2020-10-20_13h12.33.671,torte-q,2020.1.3,Win32,60,13221,0.718515,,,,,,,,,,,,,,0,87,87,109,1,,,,,,,,,,,,,,,,,,,,,,,,,,
,,,,,,,,,,,,a,Correct!,,,,,,t4.png,t4.png,0,0.98115,19,female,2020-10-20_13h12.33.671,torte-q,2020.1.3,Win32,60,13221,0.869685,,,,,,,,,,,,,,0,88,88,52,1,,,,,,,,,,,,,,,,,,,,,,,,,,
,,,,,,,,,,,,a,Correct!,,,,,,t4.png,t3.png,1,0.909,19,female,2020-10-20_13h12.33.671,torte-q,2020.1.3,Win32,60,13221,0.638745,,,,,,,,,,,,,,0,89,89,20,1,,,,,,,,,,,,,,,,,,,,,,,,,,
,,,,,,,,,,,,a,Correct!,,,,,,t1.png,t1.png,0,0.97829,19,female,2020-10-20_13h12.33.671,torte-q,2020.1.3,Win32,60,13221,0.65905,,,,,,,,,,,,,,0,90,90,9,1,,,,,,,,,,,,,,,,,,,,,,,,,,
,,,,,,,,,,,,l,Correct!,,,,,,t2.png,t4.png,2,0.059078,19,female,2020-10-20_13h12.33.671,torte-q,2020.1.3,Win32,60,13221,0.93922,,,,,,,,,,,,,,0,91,91,77,1,,,,,,,,,,,,,,,,,,,,,,,,,,
,,,,,,,,,,,,a,Incorrect,,,,,,t3.png,t1.png,2,0.056466,19,female,2020-10-20_13h12.33.671,torte-q,2020.1.3,Win32,60,13221,0.755665,,,,,,,,,,,,,,0,92,92,0,1,,,,,,,,,,,,,,,,,,,,,,,,,,
,,,,,,,,,,,,l,Correct!,,,,,,t1.png,t5.png,4,9.55E-11,19,female,2020-10-20_13h12.33.671,torte-q,2020.1.3,Win32,60,13221,0.967415,,,,,,,,,,,,,,0,93,93,16,1,,,,,,,,,,,,,,,,,,,,,,,,,,
,,,,,,,,,,,,l,Correct!,,,,,,t4.png,t2.png,2,0.059078,19,female,2020-10-20_13h12.33.671,torte-q,2020.1.3,Win32,60,13221,0.9214,,,,,,,,,,,,,,0,94,94,88,1,,,,,,,,,,,,,,,,,,,,,,,,,,
,,,,,,,,,,,,a,Incorrect,,,,,,t2.png,t5.png,3,0.0000131,19,female,2020-10-20_13h12.33.671,torte-q,2020.1.3,Win32,60,13221,1.08552,,,,,,,,,,,,,,0,95,95,66,1,,,,,,,,,,,,,,,,,,,,,,,,,,
,,,,,,,,,,,,a,Incorrect,,,,,,t5.png,t3.png,2,0.056466,19,female,2020-10-20_13h12.33.671,torte-q,2020.1.3,Win32,60,13221,0.66891,,,,,,,,,,,,,,0,96,96,56,1,,,,,,,,,,,,,,,,,,,,,,,,,,
,,,,,,,,,,,,l,Correct!,,,,,,t4.png,t1.png,3,0.0000131,19,female,2020-10-20_13h12.33.671,torte-q,2020.1.3,Win32,60,13221,0.70195,,,,,,,,,,,,,,0,97,97,48,1,,,,,,,,,,,,,,,,,,,,,,,,,,
,,,,,,,,,,,,a,Incorrect,,,,,,t2.png,t5.png,3,0.0000131,19,female,2020-10-20_13h12.33.671,torte-q,2020.1.3,Win32,60,13221,1.12026,,,,,,,,,,,,,,0,98,98,8,1,,,,,,,,,,,,,,,,,,,,,,,,,,
,,,,,,,,,,,,l,Correct!,,,,,,t1.png,t4.png,3,0.0000131,19,female,2020-10-20_13h12.33.671,torte-q,2020.1.3,Win32,60,13221,0.687945,,,,,,,,,,,,,,0,99,99,92,1,,,,,,,,,,,,,,,,,,,,,,,,,,
,,,,,,,,,,,,l,Correct!,,,,,,t1.png,t5.png,4,9.55E-11,19,female,2020-10-20_13h12.33.671,torte-q,2020.1.3,Win32,60,13221,0.6733,,,,,,,,,,,,,,0,100,100,55,1,,,,,,,,,,,,,,,,,,,,,,,,,,
,,,,,,,,,,,,l,Correct!,,,,,,t2.png,t4.png,2,0.059078,19,female,2020-10-20_13h12.33.671,torte-q,2020.1.3,Win32,60,13221,0.86155,,,,,,,,,,,,,,0,101,101,24,1,,,,,,,,,,,,,,,,,,,,,,,,,,
,,,,,,,,,,,,a,Correct!,,,,,,t3.png,t2.png,1,0.90855,19,female,2020-10-20_13h12.33.671,torte-q,2020.1.3,Win32,60,13221,1.425775,,,,,,,,,,,,,,0,102,102,18,1,,,,,,,,,,,,,,,,,,,,,,,,,,
,,,,,,,,,,,,l,Correct!,,,,,,t3.png,t1.png,2,0.056466,19,female,2020-10-20_13h12.33.671,torte-q,2020.1.3,Win32,60,13221,0.60187,,,,,,,,,,,,,,0,103,103,29,1,,,,,,,,,,,,,,,,,,,,,,,,,,
,,,,,,,,,,,,a,Correct!,,,,,,t2.png,t1.png,1,0.90025,19,female,2020-10-20_13h12.33.671,torte-q,2020.1.3,Win32,60,13221,1.06136,,,,,,,,,,,,,,0,104,104,5,1,,,,,,,,,,,,,,,,,,,,,,,,,,
,,,,,,,,,,,,a,Incorrect,,,,,,t3.png,t5.png,2,0.0565,19,female,2020-10-20_13h12.33.671,torte-q,2020.1.3,Win32,60,13221,0.885775,,,,,,,,,,,,,,0,105,105,83,1,,,,,,,,,,,,,,,,,,,,,,,,,,
,,,,,,,,,,,,a,Correct!,,,,,,t4.png,t3.png,1,0.90855,19,female,2020-10-20_13h12.33.671,torte-q,2020.1.3,Win32,60,13221,0.895875,,,,,,,,,,,,,,0,106,106,45,1,,,,,,,,,,,,,,,,,,,,,,,,,,
,,,,,,,,,,,,a,Correct!,,,,,,t3.png,t2.png,1,0.909,19,female,2020-10-20_13h12.33.671,torte-q,2020.1.3,Win32,60,13221,1.91016,,,,,,,,,,,,,,0,107,107,23,1,,,,,,,,,,,,,,,,,,,,,,,,,,
,,,,,,,,,,,,a,Incorrect,,,,,,t2.png,t4.png,2,0.059078,19,female,2020-10-20_13h12.33.671,torte-q,2020.1.3,Win32,60,13221,1.2503,,,,,,,,,,,,,,0,108,108,37,1,,,,,,,,,,,,,,,,,,,,,,,,,,
,,,,,,,,,,,,a,Correct!,,,,,,t4.png,t4.png,0,0.98115,19,female,2020-10-20_13h12.33.671,torte-q,2020.1.3,Win32,60,13221,0.745815,,,,,,,,,,,,,,0,109,109,21,1,,,,,,,,,,,,,,,,,,,,,,,,,,
,,,,,,,,,,,,a,Correct!,,,,,,t5.png,t4.png,1,0.9,19,female,2020-10-20_13h12.33.671,torte-q,2020.1.3,Win32,60,13221,0.69986,,,,,,,,,,,,,,0,110,110,49,1,,,,,,,,,,,,,,,,,,,,,,,,,,
,,,,,,,,,,,,a,Correct!,,,,,,t5.png,t5.png,0,0.97829,19,female,2020-10-20_13h12.33.671,torte-q,2020.1.3,Win32,60,13221,0.65109,,,,,,,,,,,,,,0,111,111,25,1,,,,,,,,,,,,,,,,,,,,,,,,,,
,,,,,,,,,,,,a,Correct!,,,,,,t1.png,t2.png,1,0.90025,19,female,2020-10-20_13h12.33.671,torte-q,2020.1.3,Win32,60,13221,0.8971,,,,,,,,,,,,,,0,112,112,33,1,,,,,,,,,,,,,,,,,,,,,,,,,,
,,,,,,,,,,,,a,Correct!,,,,,,t3.png,t4.png,1,0.90855,19,female,2020-10-20_13h12.33.671,torte-q,2020.1.3,Win32,60,13221,0.784495,,,,,,,,,,,,,,0,113,113,84,1,,,,,,,,,,,,,,,,,,,,,,,,,,
,,,,,,,,,,,,a,Correct!,,,,,,t2.png,t1.png,1,0.90025,19,female,2020-10-20_13h12.33.671,torte-q,2020.1.3,Win32,60,13221,0.843645,,,,,,,,,,,,,,0,114,114,62,1,,,,,,,,,,,,,,,,,,,,,,,,,,
,,,,,,,,,,,,a,Correct!,,,,,,t2.png,t1.png,1,0.90025,19,female,2020-10-20_13h12.33.671,torte-q,2020.1.3,Win32,60,13221,0.668775,,,,,,,,,,,,,,0,115,115,4,1,,,,,,,,,,,,,,,,,,,,,,,,,,
,,,,,,,,,,,,a,Correct!,,,,,,t3.png,t4.png,1,0.909,19,female,2020-10-20_13h12.33.671,torte-q,2020.1.3,Win32,60,13221,0.671245,,,,,,,,,,,,,,0,116,116,89,1,,,,,,,,,,,,,,,,,,,,,,,,,,
,,,,,,,,,,,,a,Incorrect,,,,,,t1.png,t3.png,2,0.056466,19,female,2020-10-20_13h12.33.671,torte-q,2020.1.3,Win32,60,13221,0.883355,,,,,,,,,,,,,,0,117,117,63,1,,,,,,,,,,,,,,,,,,,,,,,,,,
,,,,,,,,,,,,l,Correct!,,,,,,t4.png,t2.png,2,0.059078,19,female,2020-10-20_13h12.33.671,torte-q,2020.1.3,Win32,60,13221,0.753185,,,,,,,,,,,,,,0,118,118,110,1,,,,,,,,,,,,,,,,,,,,,,,,,,
,,,,,,,,,,,,a,Incorrect,,,,,,t5.png,t3.png,2,0.056466,19,female,2020-10-20_13h12.33.671,torte-q,2020.1.3,Win32,60,13221,0.67028,,,,,,,,,,,,,,0,119,119,114,1,,,,,,,,,,,,,,,,,,,,,,,,,,
,,,,,,,,,,,,,,,,,,,,,,,19,female,2020-10-20_13h12.33.671,torte-q,2020.1.3,Win32,60,13221,,l,1.178845,,,,,,,,,,,,,,,,,4.995000153,7.279115,273.3333606,185.3333281,1,0,0,s1,19.33339367,90.66665864,1,0,0,t1,324.6666954,-101.3333471,1,0,0,proceed,space,1.85075,space,1.43928,space,0.63649
