key_resp_8.keys,key_resp_8.rt,key_resp_9.keys,key_resp_9.rt,key_resp_10.keys,key_resp_10.rt,key_resp_11.keys,key_resp_11.rt,key_resp_2.keys,key_resp_2.rt,key_resp_3.keys,key_resp_3.rt,key_resp.keys,Feedback,train.thisRepN,train.thisTrialN,train.thisN,train.thisIndex,train.ran,torta_sx,torta_dx,difference,probability,age,gender,date,expName,psychopyVersion,OS,frameRate,participant,key_resp.rt,key_resp_15.keys,key_resp_15.rt,key_resp_6.keys,key_resp_6.rt,test1.thisRepN,test1.thisTrialN,test1.thisN,test1.thisIndex,test1.ran,key_resp_16.keys,key_resp_16.rt,key_resp_7.keys,key_resp_7.rt,test2.thisRepN,test2.thisTrialN,test2.thisN,test2.thisIndex,test2.ran,rating.response,rating.rt,mouse.x,mouse.y,mouse.leftButton,mouse.midButton,mouse.rightButton,mouse.clicked_name,mouse_2.x,mouse_2.y,mouse_2.leftButton,mouse_2.midButton,mouse_2.rightButton,mouse_2.clicked_name,mouse_3.x,mouse_3.y,mouse_3.leftButton,mouse_3.midButton,mouse_3.rightButton,mouse_3.clicked_name,key_resp_12.keys,key_resp_12.rt,key_resp_13.keys,key_resp_13.rt,key_resp_14.keys,key_resp_14.rt
space,3.83379,space,4.62741,space,1.43217,space,2.211115,space,6.7849,space,35.77563,,Too slow :(,0,0,0,35,1,t1.png,t4.png,3,0.0000131,19,female,2020-10-22_12h26.17.901,torte-q,2020.1.3,Win32,60,13274,,,,,,,,,,,,,,,,,,,,,,,,,,,,,,,,,,,,,,,,,,,,,
,,,,,,,,,,,,l,Correct!,0,1,1,6,1,t1.png,t4.png,3,0.0000131,19,female,2020-10-22_12h26.17.901,torte-q,2020.1.3,Win32,60,13274,0.71548,,,,,,,,,,,,,,,,,,,,,,,,,,,,,,,,,,,,,,,,,,,,
,,,,,,,,,,,,a,Correct!,0,2,2,39,1,t3.png,t2.png,1,0.90855,19,female,2020-10-22_12h26.17.901,torte-q,2020.1.3,Win32,60,13274,1.660305,,,,,,,,,,,,,,,,,,,,,,,,,,,,,,,,,,,,,,,,,,,,
,,,,,,,,,,,,l,Incorrect,0,3,3,28,1,t2.png,t3.png,1,0.909,19,female,2020-10-22_12h26.17.901,torte-q,2020.1.3,Win32,60,13274,0.716055,,,,,,,,,,,,,,,,,,,,,,,,,,,,,,,,,,,,,,,,,,,,
,,,,,,,,,,,,l,Correct!,0,4,4,90,1,t1.png,t5.png,4,9.55E-11,19,female,2020-10-22_12h26.17.901,torte-q,2020.1.3,Win32,60,13274,1.481135,,,,,,,,,,,,,,,,,,,,,,,,,,,,,,,,,,,,,,,,,,,,
,,,,,,,,,,,,l,Incorrect,0,5,5,79,1,t3.png,t2.png,1,0.909,19,female,2020-10-22_12h26.17.901,torte-q,2020.1.3,Win32,60,13274,1.451775,,,,,,,,,,,,,,,,,,,,,,,,,,,,,,,,,,,,,,,,,,,,
,,,,,,,,,,,,l,Correct!,0,6,6,11,1,t1.png,t4.png,3,0.0000131,19,female,2020-10-22_12h26.17.901,torte-q,2020.1.3,Win32,60,13274,1.156265,,,,,,,,,,,,,,,,,,,,,,,,,,,,,,,,,,,,,,,,,,,,
,,,,,,,,,,,,,Too slow :(,0,7,7,105,1,t3.png,t2.png,1,0.90855,19,female,2020-10-22_12h26.17.901,torte-q,2020.1.3,Win32,60,13274,,,,,,,,,,,,,,,,,,,,,,,,,,,,,,,,,,,,,,,,,,,,,
,,,,,,,,,,,,l,Correct!,0,8,8,80,1,t1.png,t4.png,3,0.0000131,19,female,2020-10-22_12h26.17.901,torte-q,2020.1.3,Win32,60,13274,0.705095,,,,,,,,,,,,,,,,,,,,,,,,,,,,,,,,,,,,,,,,,,,,
,,,,,,,,,,,,l,Incorrect,0,9,9,45,1,t3.png,t2.png,1,0.90855,19,female,2020-10-22_12h26.17.901,torte-q,2020.1.3,Win32,60,13274,1.240935,,,,,,,,,,,,,,,,,,,,,,,,,,,,,,,,,,,,,,,,,,,,
,,,,,,,,,,,,l,Correct!,0,10,10,37,1,t1.png,t4.png,3,0.0000131,19,female,2020-10-22_12h26.17.901,torte-q,2020.1.3,Win32,60,13274,0.84832,,,,,,,,,,,,,,,,,,,,,,,,,,,,,,,,,,,,,,,,,,,,
,,,,,,,,,,,,a,Correct!,0,11,11,104,1,t2.png,t3.png,1,0.90855,19,female,2020-10-22_12h26.17.901,torte-q,2020.1.3,Win32,60,13274,0.626805,,,,,,,,,,,,,,,,,,,,,,,,,,,,,,,,,,,,,,,,,,,,
,,,,,,,,,,,,a,Correct!,0,12,12,34,1,t5.png,t4.png,1,0.9,19,female,2020-10-22_12h26.17.901,torte-q,2020.1.3,Win32,60,13274,0.839495,,,,,,,,,,,,,,,,,,,,,,,,,,,,,,,,,,,,,,,,,,,,
,,,,,,,,,,,,a,Correct!,0,13,13,76,1,t3.png,t2.png,1,0.90855,19,female,2020-10-22_12h26.17.901,torte-q,2020.1.3,Win32,60,13274,1.79786,,,,,,,,,,,,,,,,,,,,,,,,,,,,,,,,,,,,,,,,,,,,
,,,,,,,,,,,,a,Incorrect,0,14,14,82,1,t5.png,t1.png,4,9.55E-11,19,female,2020-10-22_12h26.17.901,torte-q,2020.1.3,Win32,60,13274,0.605625,,,,,,,,,,,,,,,,,,,,,,,,,,,,,,,,,,,,,,,,,,,,
,,,,,,,,,,,,,Too slow :(,0,15,15,23,1,t5.png,t4.png,1,0.90025,19,female,2020-10-22_12h26.17.901,torte-q,2020.1.3,Win32,60,13274,,,,,,,,,,,,,,,,,,,,,,,,,,,,,,,,,,,,,,,,,,,,,
,,,,,,,,,,,,l,Correct!,0,16,16,55,1,t2.png,t4.png,2,0.059078,19,female,2020-10-22_12h26.17.901,torte-q,2020.1.3,Win32,60,13274,0.657055,,,,,,,,,,,,,,,,,,,,,,,,,,,,,,,,,,,,,,,,,,,,
,,,,,,,,,,,,a,Correct!,0,17,17,59,1,t5.png,t4.png,1,0.9,19,female,2020-10-22_12h26.17.901,torte-q,2020.1.3,Win32,60,13274,1.94281,,,,,,,,,,,,,,,,,,,,,,,,,,,,,,,,,,,,,,,,,,,,
,,,,,,,,,,,,a,Correct!,0,18,18,42,1,t5.png,t4.png,1,0.90025,19,female,2020-10-22_12h26.17.901,torte-q,2020.1.3,Win32,60,13274,0.60193,,,,,,,,,,,,,,,,,,,,,,,,,,,,,,,,,,,,,,,,,,,,
,,,,,,,,,,,,a,Correct!,0,19,19,113,1,t5.png,t4.png,1,0.9,19,female,2020-10-22_12h26.17.901,torte-q,2020.1.3,Win32,60,13274,0.718935,,,,,,,,,,,,,,,,,,,,,,,,,,,,,,,,,,,,,,,,,,,,
,,,,,,,,,,,,l,Incorrect,0,20,20,84,1,t1.png,t1.png,0,0.97829,19,female,2020-10-22_12h26.17.901,torte-q,2020.1.3,Win32,60,13274,1.18208,,,,,,,,,,,,,,,,,,,,,,,,,,,,,,,,,,,,,,,,,,,,
,,,,,,,,,,,,a,Correct!,0,21,21,96,1,t1.png,t1.png,0,0.97829,19,female,2020-10-22_12h26.17.901,torte-q,2020.1.3,Win32,60,13274,0.818595,,,,,,,,,,,,,,,,,,,,,,,,,,,,,,,,,,,,,,,,,,,,
,,,,,,,,,,,,a,Correct!,0,22,22,107,1,t1.png,t1.png,0,0.978,19,female,2020-10-22_12h26.17.901,torte-q,2020.1.3,Win32,60,13274,0.750415,,,,,,,,,,,,,,,,,,,,,,,,,,,,,,,,,,,,,,,,,,,,
,,,,,,,,,,,,l,Correct!,0,23,23,116,1,t5.png,t4.png,1,0.90025,19,female,2020-10-22_12h26.17.901,torte-q,2020.1.3,Win32,60,13274,0.82005,,,,,,,,,,,,,,,,,,,,,,,,,,,,,,,,,,,,,,,,,,,,
,,,,,,,,,,,,l,Correct!,0,24,24,33,1,t5.png,t1.png,4,9.55E-11,19,female,2020-10-22_12h26.17.901,torte-q,2020.1.3,Win32,60,13274,0.583845,,,,,,,,,,,,,,,,,,,,,,,,,,,,,,,,,,,,,,,,,,,,
,,,,,,,,,,,,l,Correct!,0,25,25,7,1,t4.png,t5.png,1,0.90025,19,female,2020-10-22_12h26.17.901,torte-q,2020.1.3,Win32,60,13274,0.885655,,,,,,,,,,,,,,,,,,,,,,,,,,,,,,,,,,,,,,,,,,,,
,,,,,,,,,,,,l,Incorrect,0,26,26,77,1,t1.png,t1.png,0,0.97829,19,female,2020-10-22_12h26.17.901,torte-q,2020.1.3,Win32,60,13274,0.79882,,,,,,,,,,,,,,,,,,,,,,,,,,,,,,,,,,,,,,,,,,,,
,,,,,,,,,,,,a,Incorrect,0,27,27,102,1,t4.png,t2.png,2,0.059078,19,female,2020-10-22_12h26.17.901,torte-q,2020.1.3,Win32,60,13274,2.268065,,,,,,,,,,,,,,,,,,,,,,,,,,,,,,,,,,,,,,,,,,,,
,,,,,,,,,,,,l,Incorrect,0,28,28,44,1,t2.png,t3.png,1,0.909,19,female,2020-10-22_12h26.17.901,torte-q,2020.1.3,Win32,60,13274,0.68923,,,,,,,,,,,,,,,,,,,,,,,,,,,,,,,,,,,,,,,,,,,,
,,,,,,,,,,,,l,Correct!,0,29,29,1,1,t2.png,t4.png,2,0.059078,19,female,2020-10-22_12h26.17.901,torte-q,2020.1.3,Win32,60,13274,1.33709,,,,,,,,,,,,,,,,,,,,,,,,,,,,,,,,,,,,,,,,,,,,
,,,,,,,,,,,,l,Correct!,0,30,30,117,1,t1.png,t5.png,4,9.55E-11,19,female,2020-10-22_12h26.17.901,torte-q,2020.1.3,Win32,60,13274,1.020605,,,,,,,,,,,,,,,,,,,,,,,,,,,,,,,,,,,,,,,,,,,,
,,,,,,,,,,,,a,Correct!,0,31,31,112,1,t1.png,t1.png,0,0.97829,19,female,2020-10-22_12h26.17.901,torte-q,2020.1.3,Win32,60,13274,1.18807,,,,,,,,,,,,,,,,,,,,,,,,,,,,,,,,,,,,,,,,,,,,
,,,,,,,,,,,,a,Incorrect,0,32,32,0,1,t5.png,t1.png,4,9.55E-11,19,female,2020-10-22_12h26.17.901,torte-q,2020.1.3,Win32,60,13274,1.001595,,,,,,,,,,,,,,,,,,,,,,,,,,,,,,,,,,,,,,,,,,,,
,,,,,,,,,,,,l,Correct!,0,33,33,119,1,t1.png,t5.png,4,9.55E-11,19,female,2020-10-22_12h26.17.901,torte-q,2020.1.3,Win32,60,13274,0.700465,,,,,,,,,,,,,,,,,,,,,,,,,,,,,,,,,,,,,,,,,,,,
,,,,,,,,,,,,a,Correct!,0,34,34,103,1,t3.png,t1.png,2,0.056466,19,female,2020-10-22_12h26.17.901,torte-q,2020.1.3,Win32,60,13274,0.736415,,,,,,,,,,,,,,,,,,,,,,,,,,,,,,,,,,,,,,,,,,,,
,,,,,,,,,,,,l,Correct!,0,35,35,61,1,t1.png,t4.png,3,0.0000131,19,female,2020-10-22_12h26.17.901,torte-q,2020.1.3,Win32,60,13274,0.519205,,,,,,,,,,,,,,,,,,,,,,,,,,,,,,,,,,,,,,,,,,,,
,,,,,,,,,,,,l,Correct!,0,36,36,88,1,t3.png,t1.png,2,0.056466,19,female,2020-10-22_12h26.17.901,torte-q,2020.1.3,Win32,60,13274,0.71594,,,,,,,,,,,,,,,,,,,,,,,,,,,,,,,,,,,,,,,,,,,,
,,,,,,,,,,,,l,Correct!,0,37,37,19,1,t4.png,t2.png,2,0.059078,19,female,2020-10-22_12h26.17.901,torte-q,2020.1.3,Win32,60,13274,0.699925,,,,,,,,,,,,,,,,,,,,,,,,,,,,,,,,,,,,,,,,,,,,
,,,,,,,,,,,,a,Incorrect,0,38,38,47,1,t4.png,t2.png,2,0.059078,19,female,2020-10-22_12h26.17.901,torte-q,2020.1.3,Win32,60,13274,1.172495,,,,,,,,,,,,,,,,,,,,,,,,,,,,,,,,,,,,,,,,,,,,
,,,,,,,,,,,,a,Incorrect,0,39,39,56,1,t5.png,t1.png,4,9.55E-11,19,female,2020-10-22_12h26.17.901,torte-q,2020.1.3,Win32,60,13274,1.21869,,,,,,,,,,,,,,,,,,,,,,,,,,,,,,,,,,,,,,,,,,,,
,,,,,,,,,,,,l,Correct!,0,40,40,43,1,t4.png,t2.png,2,0.059078,19,female,2020-10-22_12h26.17.901,torte-q,2020.1.3,Win32,60,13274,0.585655,,,,,,,,,,,,,,,,,,,,,,,,,,,,,,,,,,,,,,,,,,,,
,,,,,,,,,,,,l,Incorrect,0,41,41,92,1,t2.png,t3.png,1,0.909,19,female,2020-10-22_12h26.17.901,torte-q,2020.1.3,Win32,60,13274,0.584335,,,,,,,,,,,,,,,,,,,,,,,,,,,,,,,,,,,,,,,,,,,,
,,,,,,,,,,,,a,Incorrect,0,42,42,108,1,t5.png,t1.png,4,9.55E-11,19,female,2020-10-22_12h26.17.901,torte-q,2020.1.3,Win32,60,13274,0.952575,,,,,,,,,,,,,,,,,,,,,,,,,,,,,,,,,,,,,,,,,,,,
,,,,,,,,,,,,l,Correct!,0,43,43,83,1,t3.png,t1.png,2,0.056466,19,female,2020-10-22_12h26.17.901,torte-q,2020.1.3,Win32,60,13274,0.802495,,,,,,,,,,,,,,,,,,,,,,,,,,,,,,,,,,,,,,,,,,,,
,,,,,,,,,,,,l,Correct!,0,44,44,67,1,t1.png,t5.png,4,9.55E-11,19,female,2020-10-22_12h26.17.901,torte-q,2020.1.3,Win32,60,13274,0.904375,,,,,,,,,,,,,,,,,,,,,,,,,,,,,,,,,,,,,,,,,,,,
,,,,,,,,,,,,l,Correct!,0,45,45,38,1,t3.png,t1.png,2,0.056466,19,female,2020-10-22_12h26.17.901,torte-q,2020.1.3,Win32,60,13274,0.532395,,,,,,,,,,,,,,,,,,,,,,,,,,,,,,,,,,,,,,,,,,,,
,,,,,,,,,,,,l,Incorrect,0,46,46,75,1,t1.png,t1.png,0,0.97829,19,female,2020-10-22_12h26.17.901,torte-q,2020.1.3,Win32,60,13274,0.851875,,,,,,,,,,,,,,,,,,,,,,,,,,,,,,,,,,,,,,,,,,,,
,,,,,,,,,,,,l,Incorrect,0,47,47,29,1,t5.png,t5.png,0,0.97829,19,female,2020-10-22_12h26.17.901,torte-q,2020.1.3,Win32,60,13274,0.901105,,,,,,,,,,,,,,,,,,,,,,,,,,,,,,,,,,,,,,,,,,,,
,,,,,,,,,,,,l,Incorrect,0,48,48,65,1,t4.png,t5.png,1,0.90025,19,female,2020-10-22_12h26.17.901,torte-q,2020.1.3,Win32,60,13274,1.050365,,,,,,,,,,,,,,,,,,,,,,,,,,,,,,,,,,,,,,,,,,,,
,,,,,,,,,,,,a,Incorrect,0,49,49,93,1,t2.png,t4.png,2,0.059078,19,female,2020-10-22_12h26.17.901,torte-q,2020.1.3,Win32,60,13274,1.30934,,,,,,,,,,,,,,,,,,,,,,,,,,,,,,,,,,,,,,,,,,,,
,,,,,,,,,,,,l,Incorrect,0,50,50,10,1,t2.png,t3.png,1,0.90855,19,female,2020-10-22_12h26.17.901,torte-q,2020.1.3,Win32,60,13274,1.019225,,,,,,,,,,,,,,,,,,,,,,,,,,,,,,,,,,,,,,,,,,,,
,,,,,,,,,,,,a,Incorrect,0,51,51,89,1,t1.png,t4.png,3,0.0000131,19,female,2020-10-22_12h26.17.901,torte-q,2020.1.3,Win32,60,13274,1.676585,,,,,,,,,,,,,,,,,,,,,,,,,,,,,,,,,,,,,,,,,,,,
,,,,,,,,,,,,l,Incorrect,0,52,52,58,1,t5.png,t4.png,1,0.90025,19,female,2020-10-22_12h26.17.901,torte-q,2020.1.3,Win32,60,13274,0.9614,,,,,,,,,,,,,,,,,,,,,,,,,,,,,,,,,,,,,,,,,,,,
,,,,,,,,,,,,a,Correct!,0,53,53,70,1,t5.png,t5.png,0,0.978,19,female,2020-10-22_12h26.17.901,torte-q,2020.1.3,Win32,60,13274,1.61852,,,,,,,,,,,,,,,,,,,,,,,,,,,,,,,,,,,,,,,,,,,,
,,,,,,,,,,,,a,Correct!,0,54,54,78,1,t1.png,t1.png,0,0.978,19,female,2020-10-22_12h26.17.901,torte-q,2020.1.3,Win32,60,13274,0.96253,,,,,,,,,,,,,,,,,,,,,,,,,,,,,,,,,,,,,,,,,,,,
,,,,,,,,,,,,a,Incorrect,0,55,55,52,1,t2.png,t4.png,2,0.059078,19,female,2020-10-22_12h26.17.901,torte-q,2020.1.3,Win32,60,13274,0.64734,,,,,,,,,,,,,,,,,,,,,,,,,,,,,,,,,,,,,,,,,,,,
,,,,,,,,,,,,l,Incorrect,0,56,56,18,1,t4.png,t5.png,1,0.90025,19,female,2020-10-22_12h26.17.901,torte-q,2020.1.3,Win32,60,13274,1.53079,,,,,,,,,,,,,,,,,,,,,,,,,,,,,,,,,,,,,,,,,,,,
,,,,,,,,,,,,a,Correct!,0,57,57,2,1,t3.png,t2.png,1,0.90855,19,female,2020-10-22_12h26.17.901,torte-q,2020.1.3,Win32,60,13274,0.9554,,,,,,,,,,,,,,,,,,,,,,,,,,,,,,,,,,,,,,,,,,,,
,,,,,,,,,,,,l,Incorrect,0,58,58,109,1,t5.png,t5.png,0,0.97829,19,female,2020-10-22_12h26.17.901,torte-q,2020.1.3,Win32,60,13274,2.2855,,,,,,,,,,,,,,,,,,,,,,,,,,,,,,,,,,,,,,,,,,,,
,,,,,,,,,,,,a,Incorrect,0,59,59,36,1,t3.png,t1.png,2,0.0565,19,female,2020-10-22_12h26.17.901,torte-q,2020.1.3,Win32,60,13274,0.8829,,,,,,,,,,,,,,,,,,,,,,,,,,,,,,,,,,,,,,,,,,,,
,,,,,,,,,,,,l,Correct!,0,60,60,12,1,t5.png,t1.png,4,9.55E-11,19,female,2020-10-22_12h26.17.901,torte-q,2020.1.3,Win32,60,13274,0.457065,,,,,,,,,,,,,,,,,,,,,,,,,,,,,,,,,,,,,,,,,,,,
,,,,,,,,,,,,l,Correct!,0,61,61,41,1,t3.png,t2.png,1,0.90855,19,female,2020-10-22_12h26.17.901,torte-q,2020.1.3,Win32,60,13274,1.17209,,,,,,,,,,,,,,,,,,,,,,,,,,,,,,,,,,,,,,,,,,,,
,,,,,,,,,,,,,Too slow :(,0,62,62,49,1,t4.png,t5.png,1,0.9,19,female,2020-10-22_12h26.17.901,torte-q,2020.1.3,Win32,60,13274,,,,,,,,,,,,,,,,,,,,,,,,,,,,,,,,,,,,,,,,,,,,,
,,,,,,,,,,,,a,Incorrect,0,63,63,99,1,t1.png,t5.png,4,9.55E-11,19,female,2020-10-22_12h26.17.901,torte-q,2020.1.3,Win32,60,13274,1.153305,,,,,,,,,,,,,,,,,,,,,,,,,,,,,,,,,,,,,,,,,,,,
,,,,,,,,,,,,l,Correct!,0,64,64,72,1,t4.png,t2.png,2,0.059078,19,female,2020-10-22_12h26.17.901,torte-q,2020.1.3,Win32,60,13274,0.361055,,,,,,,,,,,,,,,,,,,,,,,,,,,,,,,,,,,,,,,,,,,,
,,,,,,,,,,,,l,Incorrect,0,65,65,25,1,t5.png,t5.png,0,0.97829,19,female,2020-10-22_12h26.17.901,torte-q,2020.1.3,Win32,60,13274,0.63545,,,,,,,,,,,,,,,,,,,,,,,,,,,,,,,,,,,,,,,,,,,,
,,,,,,,,,,,,a,Incorrect,0,66,66,3,1,t1.png,t5.png,4,9.55E-11,19,female,2020-10-22_12h26.17.901,torte-q,2020.1.3,Win32,60,13274,0.68382,,,,,,,,,,,,,,,,,,,,,,,,,,,,,,,,,,,,,,,,,,,,
,,,,,,,,,,,,l,Incorrect,0,67,67,62,1,t5.png,t5.png,0,0.978,19,female,2020-10-22_12h26.17.901,torte-q,2020.1.3,Win32,60,13274,0.4165,,,,,,,,,,,,,,,,,,,,,,,,,,,,,,,,,,,,,,,,,,,,
,,,,,,,,,,,,l,Incorrect,0,68,68,48,1,t5.png,t5.png,0,0.97829,19,female,2020-10-22_12h26.17.901,torte-q,2020.1.3,Win32,60,13274,0.565735,,,,,,,,,,,,,,,,,,,,,,,,,,,,,,,,,,,,,,,,,,,,
,,,,,,,,,,,,a,Incorrect,0,69,69,101,1,t4.png,t5.png,1,0.90025,19,female,2020-10-22_12h26.17.901,torte-q,2020.1.3,Win32,60,13274,1.09168,,,,,,,,,,,,,,,,,,,,,,,,,,,,,,,,,,,,,,,,,,,,
,,,,,,,,,,,,a,Correct!,0,70,70,106,1,t2.png,t3.png,1,0.90855,19,female,2020-10-22_12h26.17.901,torte-q,2020.1.3,Win32,60,13274,1.10492,,,,,,,,,,,,,,,,,,,,,,,,,,,,,,,,,,,,,,,,,,,,
,,,,,,,,,,,,l,Correct!,0,71,71,4,1,t1.png,t5.png,4,9.55E-11,19,female,2020-10-22_12h26.17.901,torte-q,2020.1.3,Win32,60,13274,1.148465,,,,,,,,,,,,,,,,,,,,,,,,,,,,,,,,,,,,,,,,,,,,
,,,,,,,,,,,,l,Correct!,0,72,72,9,1,t4.png,t5.png,1,0.9,19,female,2020-10-22_12h26.17.901,torte-q,2020.1.3,Win32,60,13274,1.386605,,,,,,,,,,,,,,,,,,,,,,,,,,,,,,,,,,,,,,,,,,,,
,,,,,,,,,,,,a,Correct!,0,73,73,14,1,t2.png,t4.png,2,0.059078,19,female,2020-10-22_12h26.17.901,torte-q,2020.1.3,Win32,60,13274,1.398,,,,,,,,,,,,,,,,,,,,,,,,,,,,,,,,,,,,,,,,,,,,
,,,,,,,,,,,,l,Correct!,0,74,74,54,1,t1.png,t5.png,4,9.55E-11,19,female,2020-10-22_12h26.17.901,torte-q,2020.1.3,Win32,60,13274,0.75021,,,,,,,,,,,,,,,,,,,,,,,,,,,,,,,,,,,,,,,,,,,,
,,,,,,,,,,,,l,Incorrect,0,75,75,22,1,t2.png,t3.png,1,0.90855,19,female,2020-10-22_12h26.17.901,torte-q,2020.1.3,Win32,60,13274,1.071585,,,,,,,,,,,,,,,,,,,,,,,,,,,,,,,,,,,,,,,,,,,,
,,,,,,,,,,,,a,Incorrect,0,76,76,51,1,t3.png,t1.png,2,0.056466,19,female,2020-10-22_12h26.17.901,torte-q,2020.1.3,Win32,60,13274,1.63846,,,,,,,,,,,,,,,,,,,,,,,,,,,,,,,,,,,,,,,,,,,,
,,,,,,,,,,,,l,Incorrect,0,77,77,32,1,t4.png,t5.png,1,0.90025,19,female,2020-10-22_12h26.17.901,torte-q,2020.1.3,Win32,60,13274,0.65229,,,,,,,,,,,,,,,,,,,,,,,,,,,,,,,,,,,,,,,,,,,,
,,,,,,,,,,,,a,Incorrect,0,78,78,24,1,t4.png,t2.png,2,0.059078,19,female,2020-10-22_12h26.17.901,torte-q,2020.1.3,Win32,60,13274,0.7355,,,,,,,,,,,,,,,,,,,,,,,,,,,,,,,,,,,,,,,,,,,,
,,,,,,,,,,,,a,Incorrect,0,79,79,115,1,t2.png,t4.png,2,0.059078,19,female,2020-10-22_12h26.17.901,torte-q,2020.1.3,Win32,60,13274,1.98865,,,,,,,,,,,,,,,,,,,,,,,,,,,,,,,,,,,,,,,,,,,,
,,,,,,,,,,,,a,Correct!,0,80,80,64,1,t1.png,t1.png,0,0.978,19,female,2020-10-22_12h26.17.901,torte-q,2020.1.3,Win32,60,13274,0.921265,,,,,,,,,,,,,,,,,,,,,,,,,,,,,,,,,,,,,,,,,,,,
,,,,,,,,,,,,a,Correct!,0,81,81,30,1,t3.png,t1.png,2,0.056466,19,female,2020-10-22_12h26.17.901,torte-q,2020.1.3,Win32,60,13274,0.992015,,,,,,,,,,,,,,,,,,,,,,,,,,,,,,,,,,,,,,,,,,,,
,,,,,,,,,,,,l,Correct!,0,82,82,31,1,t1.png,t5.png,4,9.55E-11,19,female,2020-10-22_12h26.17.901,torte-q,2020.1.3,Win32,60,13274,0.924145,,,,,,,,,,,,,,,,,,,,,,,,,,,,,,,,,,,,,,,,,,,,
,,,,,,,,,,,,a,Incorrect,0,83,83,69,1,t4.png,t2.png,2,0.059078,19,female,2020-10-22_12h26.17.901,torte-q,2020.1.3,Win32,60,13274,1.56846,,,,,,,,,,,,,,,,,,,,,,,,,,,,,,,,,,,,,,,,,,,,
,,,,,,,,,,,,a,Incorrect,0,84,84,60,1,t2.png,t4.png,2,0.059078,19,female,2020-10-22_12h26.17.901,torte-q,2020.1.3,Win32,60,13274,0.82278,,,,,,,,,,,,,,,,,,,,,,,,,,,,,,,,,,,,,,,,,,,,
,,,,,,,,,,,,l,Incorrect,0,85,85,114,1,t2.png,t3.png,1,0.90855,19,female,2020-10-22_12h26.17.901,torte-q,2020.1.3,Win32,60,13274,1.452445,,,,,,,,,,,,,,,,,,,,,,,,,,,,,,,,,,,,,,,,,,,,
,,,,,,,,,,,,l,Incorrect,0,86,86,16,1,t5.png,t4.png,1,0.9,19,female,2020-10-22_12h26.17.901,torte-q,2020.1.3,Win32,60,13274,1.70254,,,,,,,,,,,,,,,,,,,,,,,,,,,,,,,,,,,,,,,,,,,,
,,,,,,,,,,,,l,Incorrect,0,87,87,21,1,t5.png,t4.png,1,0.90025,19,female,2020-10-22_12h26.17.901,torte-q,2020.1.3,Win32,60,13274,1.097515,,,,,,,,,,,,,,,,,,,,,,,,,,,,,,,,,,,,,,,,,,,,
,,,,,,,,,,,,l,Incorrect,0,88,88,27,1,t3.png,t1.png,2,0.0565,19,female,2020-10-22_12h26.17.901,torte-q,2020.1.3,Win32,60,13274,1.268705,,,,,,,,,,,,,,,,,,,,,,,,,,,,,,,,,,,,,,,,,,,,
,,,,,,,,,,,,a,Correct!,0,89,89,81,1,t1.png,t1.png,0,0.97829,19,female,2020-10-22_12h26.17.901,torte-q,2020.1.3,Win32,60,13274,0.916945,,,,,,,,,,,,,,,,,,,,,,,,,,,,,,,,,,,,,,,,,,,,
,,,,,,,,,,,,a,Incorrect,0,90,90,57,1,t2.png,t4.png,2,0.059078,19,female,2020-10-22_12h26.17.901,torte-q,2020.1.3,Win32,60,13274,1.232055,,,,,,,,,,,,,,,,,,,,,,,,,,,,,,,,,,,,,,,,,,,,
,,,,,,,,,,,,a,Incorrect,0,91,91,40,1,t1.png,t5.png,4,9.55E-11,19,female,2020-10-22_12h26.17.901,torte-q,2020.1.3,Win32,60,13274,0.71032,,,,,,,,,,,,,,,,,,,,,,,,,,,,,,,,,,,,,,,,,,,,
,,,,,,,,,,,,l,Correct!,0,92,92,87,1,t5.png,t1.png,4,9.55E-11,19,female,2020-10-22_12h26.17.901,torte-q,2020.1.3,Win32,60,13274,1.522945,,,,,,,,,,,,,,,,,,,,,,,,,,,,,,,,,,,,,,,,,,,,
,,,,,,,,,,,,a,Incorrect,0,93,93,91,1,t1.png,t4.png,3,0.0000131,19,female,2020-10-22_12h26.17.901,torte-q,2020.1.3,Win32,60,13274,1.574005,,,,,,,,,,,,,,,,,,,,,,,,,,,,,,,,,,,,,,,,,,,,
,,,,,,,,,,,,a,Correct!,0,94,94,71,1,t5.png,t5.png,0,0.97829,19,female,2020-10-22_12h26.17.901,torte-q,2020.1.3,Win32,60,13274,1.423365,,,,,,,,,,,,,,,,,,,,,,,,,,,,,,,,,,,,,,,,,,,,
,,,,,,,,,,,,l,Correct!,0,95,95,68,1,t1.png,t4.png,3,0.0000131,19,female,2020-10-22_12h26.17.901,torte-q,2020.1.3,Win32,60,13274,0.687585,,,,,,,,,,,,,,,,,,,,,,,,,,,,,,,,,,,,,,,,,,,,
,,,,,,,,,,,,l,Incorrect,0,96,96,110,1,t4.png,t5.png,1,0.90025,19,female,2020-10-22_12h26.17.901,torte-q,2020.1.3,Win32,60,13274,0.880395,,,,,,,,,,,,,,,,,,,,,,,,,,,,,,,,,,,,,,,,,,,,
,,,,,,,,,,,,l,Correct!,0,97,97,111,1,t5.png,t1.png,4,9.55E-11,19,female,2020-10-22_12h26.17.901,torte-q,2020.1.3,Win32,60,13274,1.02041,,,,,,,,,,,,,,,,,,,,,,,,,,,,,,,,,,,,,,,,,,,,
,,,,,,,,,,,,l,Incorrect,0,98,98,100,1,t4.png,t5.png,1,0.90025,19,female,2020-10-22_12h26.17.901,torte-q,2020.1.3,Win32,60,13274,1.485285,,,,,,,,,,,,,,,,,,,,,,,,,,,,,,,,,,,,,,,,,,,,
,,,,,,,,,,,,l,Correct!,0,99,99,17,1,t1.png,t4.png,3,0.0000131,19,female,2020-10-22_12h26.17.901,torte-q,2020.1.3,Win32,60,13274,0.89854,,,,,,,,,,,,,,,,,,,,,,,,,,,,,,,,,,,,,,,,,,,,
,,,,,,,,,,,,a,Correct!,0,100,100,66,1,t4.png,t5.png,1,0.9,19,female,2020-10-22_12h26.17.901,torte-q,2020.1.3,Win32,60,13274,1.19307,,,,,,,,,,,,,,,,,,,,,,,,,,,,,,,,,,,,,,,,,,,,
,,,,,,,,,,,,l,Correct!,0,101,101,5,1,t2.png,t4.png,2,0.059078,19,female,2020-10-22_12h26.17.901,torte-q,2020.1.3,Win32,60,13274,0.81968,,,,,,,,,,,,,,,,,,,,,,,,,,,,,,,,,,,,,,,,,,,,
,,,,,,,,,,,,l,Correct!,0,102,102,50,1,t5.png,t1.png,4,9.55E-11,19,female,2020-10-22_12h26.17.901,torte-q,2020.1.3,Win32,60,13274,1.10974,,,,,,,,,,,,,,,,,,,,,,,,,,,,,,,,,,,,,,,,,,,,
,,,,,,,,,,,,l,Correct!,0,103,103,98,1,t2.png,t4.png,2,0.0591,19,female,2020-10-22_12h26.17.901,torte-q,2020.1.3,Win32,60,13274,0.835235,,,,,,,,,,,,,,,,,,,,,,,,,,,,,,,,,,,,,,,,,,,,
,,,,,,,,,,,,a,Correct!,0,104,104,85,1,t3.png,t2.png,1,0.90855,19,female,2020-10-22_12h26.17.901,torte-q,2020.1.3,Win32,60,13274,0.832475,,,,,,,,,,,,,,,,,,,,,,,,,,,,,,,,,,,,,,,,,,,,
,,,,,,,,,,,,l,Incorrect,0,105,105,95,1,t1.png,t1.png,0,0.978,19,female,2020-10-22_12h26.17.901,torte-q,2020.1.3,Win32,60,13274,0.902265,,,,,,,,,,,,,,,,,,,,,,,,,,,,,,,,,,,,,,,,,,,,
,,,,,,,,,,,,a,Correct!,0,106,106,118,1,t5.png,t5.png,0,0.978,19,female,2020-10-22_12h26.17.901,torte-q,2020.1.3,Win32,60,13274,1.18495,,,,,,,,,,,,,,,,,,,,,,,,,,,,,,,,,,,,,,,,,,,,
,,,,,,,,,,,,a,Correct!,0,107,107,63,1,t2.png,t3.png,1,0.909,19,female,2020-10-22_12h26.17.901,torte-q,2020.1.3,Win32,60,13274,1.24691,,,,,,,,,,,,,,,,,,,,,,,,,,,,,,,,,,,,,,,,,,,,
,,,,,,,,,,,,a,Correct!,0,108,108,13,1,t5.png,t5.png,0,0.97829,19,female,2020-10-22_12h26.17.901,torte-q,2020.1.3,Win32,60,13274,0.997715,,,,,,,,,,,,,,,,,,,,,,,,,,,,,,,,,,,,,,,,,,,,
,,,,,,,,,,,,l,Incorrect,0,109,109,20,1,t2.png,t3.png,1,0.90855,19,female,2020-10-22_12h26.17.901,torte-q,2020.1.3,Win32,60,13274,0.80225,,,,,,,,,,,,,,,,,,,,,,,,,,,,,,,,,,,,,,,,,,,,
,,,,,,,,,,,,a,Incorrect,0,110,110,46,1,t4.png,t2.png,2,0.059078,19,female,2020-10-22_12h26.17.901,torte-q,2020.1.3,Win32,60,13274,1.084815,,,,,,,,,,,,,,,,,,,,,,,,,,,,,,,,,,,,,,,,,,,,
,,,,,,,,,,,,a,Correct!,0,111,111,97,1,t5.png,t5.png,0,0.97829,19,female,2020-10-22_12h26.17.901,torte-q,2020.1.3,Win32,60,13274,0.836315,,,,,,,,,,,,,,,,,,,,,,,,,,,,,,,,,,,,,,,,,,,,
,,,,,,,,,,,,l,Incorrect,0,112,112,8,1,t3.png,t2.png,1,0.90855,19,female,2020-10-22_12h26.17.901,torte-q,2020.1.3,Win32,60,13274,1.271975,,,,,,,,,,,,,,,,,,,,,,,,,,,,,,,,,,,,,,,,,,,,
,,,,,,,,,,,,a,Incorrect,0,113,113,53,1,t3.png,t1.png,2,0.056466,19,female,2020-10-22_12h26.17.901,torte-q,2020.1.3,Win32,60,13274,0.76902,,,,,,,,,,,,,,,,,,,,,,,,,,,,,,,,,,,,,,,,,,,,
,,,,,,,,,,,,a,Correct!,0,114,114,15,1,t3.png,t2.png,1,0.90855,19,female,2020-10-22_12h26.17.901,torte-q,2020.1.3,Win32,60,13274,0.778515,,,,,,,,,,,,,,,,,,,,,,,,,,,,,,,,,,,,,,,,,,,,
,,,,,,,,,,,,a,Incorrect,0,115,115,73,1,t4.png,t2.png,2,0.059078,19,female,2020-10-22_12h26.17.901,torte-q,2020.1.3,Win32,60,13274,1.21641,,,,,,,,,,,,,,,,,,,,,,,,,,,,,,,,,,,,,,,,,,,,
,,,,,,,,,,,,l,Correct!,0,116,116,26,1,t4.png,t2.png,2,0.0591,19,female,2020-10-22_12h26.17.901,torte-q,2020.1.3,Win32,60,13274,0.76698,,,,,,,,,,,,,,,,,,,,,,,,,,,,,,,,,,,,,,,,,,,,
,,,,,,,,,,,,l,Incorrect,0,117,117,74,1,t5.png,t4.png,1,0.9,19,female,2020-10-22_12h26.17.901,torte-q,2020.1.3,Win32,60,13274,1.87243,,,,,,,,,,,,,,,,,,,,,,,,,,,,,,,,,,,,,,,,,,,,
,,,,,,,,,,,,a,Incorrect,0,118,118,94,1,t5.png,t1.png,4,9.55E-11,19,female,2020-10-22_12h26.17.901,torte-q,2020.1.3,Win32,60,13274,0.656425,,,,,,,,,,,,,,,,,,,,,,,,,,,,,,,,,,,,,,,,,,,,
,,,,,,,,,,,,l,Correct!,0,119,119,86,1,t3.png,t1.png,2,0.056466,19,female,2020-10-22_12h26.17.901,torte-q,2020.1.3,Win32,60,13274,0.871685,,,,,,,,,,,,,,,,,,,,,,,,,,,,,,,,,,,,,,,,,,,,
,,,,,,,,,,,,l,Correct!,,,,,,t1.png,t3.png,2,0.056466,19,female,2020-10-22_12h26.17.901,torte-q,2020.1.3,Win32,60,13274,1.014935,space,2.00614,space,24.147975,0,0,0,99,1,,,,,,,,,,,,,,,,,,,,,,,,,,,,,,,,,,,
,,,,,,,,,,,,l,Correct!,,,,,,t1.png,t4.png,3,0.0000131,19,female,2020-10-22_12h26.17.901,torte-q,2020.1.3,Win32,60,13274,0.552105,,,,,0,1,1,107,1,,,,,,,,,,,,,,,,,,,,,,,,,,,,,,,,,,,
,,,,,,,,,,,,a,Correct!,,,,,,t4.png,t5.png,1,0.90025,19,female,2020-10-22_12h26.17.901,torte-q,2020.1.3,Win32,60,13274,1.01607,,,,,0,2,2,113,1,,,,,,,,,,,,,,,,,,,,,,,,,,,,,,,,,,,
,,,,,,,,,,,,l,Incorrect,,,,,,t5.png,t5.png,0,0.97829,19,female,2020-10-22_12h26.17.901,torte-q,2020.1.3,Win32,60,13274,0.921465,,,,,0,3,3,70,1,,,,,,,,,,,,,,,,,,,,,,,,,,,,,,,,,,,
,,,,,,,,,,,,l,Incorrect,,,,,,t3.png,t2.png,1,0.909,19,female,2020-10-22_12h26.17.901,torte-q,2020.1.3,Win32,60,13274,0.83205,,,,,0,4,4,3,1,,,,,,,,,,,,,,,,,,,,,,,,,,,,,,,,,,,
,,,,,,,,,,,,a,Correct!,,,,,,t4.png,t5.png,1,0.9,19,female,2020-10-22_12h26.17.901,torte-q,2020.1.3,Win32,60,13274,1.210335,,,,,0,5,5,115,1,,,,,,,,,,,,,,,,,,,,,,,,,,,,,,,,,,,
,,,,,,,,,,,,a,Correct!,,,,,,t1.png,t2.png,1,0.90025,19,female,2020-10-22_12h26.17.901,torte-q,2020.1.3,Win32,60,13274,0.94795,,,,,0,6,6,105,1,,,,,,,,,,,,,,,,,,,,,,,,,,,,,,,,,,,
,,,,,,,,,,,,l,Incorrect,,,,,,t1.png,t2.png,1,0.90025,19,female,2020-10-22_12h26.17.901,torte-q,2020.1.3,Win32,60,13274,0.610415,,,,,0,7,7,112,1,,,,,,,,,,,,,,,,,,,,,,,,,,,,,,,,,,,
,,,,,,,,,,,,l,Incorrect,,,,,,t4.png,t4.png,0,0.98115,19,female,2020-10-22_12h26.17.901,torte-q,2020.1.3,Win32,60,13274,0.82791,,,,,0,8,8,79,1,,,,,,,,,,,,,,,,,,,,,,,,,,,,,,,,,,,
,,,,,,,,,,,,l,Incorrect,,,,,,t3.png,t4.png,1,0.909,19,female,2020-10-22_12h26.17.901,torte-q,2020.1.3,Win32,60,13274,1.43148,,,,,0,9,9,89,1,,,,,,,,,,,,,,,,,,,,,,,,,,,,,,,,,,,
,,,,,,,,,,,,l,Incorrect,,,,,,t4.png,t5.png,1,0.90025,19,female,2020-10-22_12h26.17.901,torte-q,2020.1.3,Win32,60,13274,0.939275,,,,,0,10,10,58,1,,,,,,,,,,,,,,,,,,,,,,,,,,,,,,,,,,,
,,,,,,,,,,,,a,Incorrect,,,,,,t4.png,t2.png,2,0.0591,19,female,2020-10-22_12h26.17.901,torte-q,2020.1.3,Win32,60,13274,0.668775,,,,,0,11,11,36,1,,,,,,,,,,,,,,,,,,,,,,,,,,,,,,,,,,,
,,,,,,,,,,,,l,Incorrect,,,,,,t1.png,t1.png,0,0.978,19,female,2020-10-22_12h26.17.901,torte-q,2020.1.3,Win32,60,13274,0.86727,,,,,0,12,12,54,1,,,,,,,,,,,,,,,,,,,,,,,,,,,,,,,,,,,
,,,,,,,,,,,,a,Correct!,,,,,,t2.png,t3.png,1,0.909,19,female,2020-10-22_12h26.17.901,torte-q,2020.1.3,Win32,60,13274,0.68188,,,,,0,13,13,74,1,,,,,,,,,,,,,,,,,,,,,,,,,,,,,,,,,,,
,,,,,,,,,,,,a,Correct!,,,,,,t1.png,t2.png,1,0.9,19,female,2020-10-22_12h26.17.901,torte-q,2020.1.3,Win32,60,13274,0.791015,,,,,0,14,14,1,1,,,,,,,,,,,,,,,,,,,,,,,,,,,,,,,,,,,
,,,,,,,,,,,,l,Correct!,,,,,,t2.png,t5.png,3,0.0000131,19,female,2020-10-22_12h26.17.901,torte-q,2020.1.3,Win32,60,13274,1.16892,,,,,0,15,15,66,1,,,,,,,,,,,,,,,,,,,,,,,,,,,,,,,,,,,
,,,,,,,,,,,,l,Correct!,,,,,,t1.png,t4.png,3,0.0000131,19,female,2020-10-22_12h26.17.901,torte-q,2020.1.3,Win32,60,13274,0.797845,,,,,0,16,16,81,1,,,,,,,,,,,,,,,,,,,,,,,,,,,,,,,,,,,
,,,,,,,,,,,,l,Correct!,,,,,,t3.png,t1.png,2,0.056466,19,female,2020-10-22_12h26.17.901,torte-q,2020.1.3,Win32,60,13274,0.843725,,,,,0,17,17,64,1,,,,,,,,,,,,,,,,,,,,,,,,,,,,,,,,,,,
,,,,,,,,,,,,l,Correct!,,,,,,t5.png,t1.png,4,9.55E-11,19,female,2020-10-22_12h26.17.901,torte-q,2020.1.3,Win32,60,13274,0.62382,,,,,0,18,18,71,1,,,,,,,,,,,,,,,,,,,,,,,,,,,,,,,,,,,
,,,,,,,,,,,,a,Correct!,,,,,,t2.png,t3.png,1,0.90855,19,female,2020-10-22_12h26.17.901,torte-q,2020.1.3,Win32,60,13274,0.95024,,,,,0,19,19,65,1,,,,,,,,,,,,,,,,,,,,,,,,,,,,,,,,,,,
,,,,,,,,,,,,a,Correct!,,,,,,t5.png,t3.png,2,0.056466,19,female,2020-10-22_12h26.17.901,torte-q,2020.1.3,Win32,60,13274,1.01495,,,,,0,20,20,108,1,,,,,,,,,,,,,,,,,,,,,,,,,,,,,,,,,,,
,,,,,,,,,,,,l,Incorrect,,,,,,t5.png,t5.png,0,0.978,19,female,2020-10-22_12h26.17.901,torte-q,2020.1.3,Win32,60,13274,0.899385,,,,,0,21,21,117,1,,,,,,,,,,,,,,,,,,,,,,,,,,,,,,,,,,,
,,,,,,,,,,,,l,Correct!,,,,,,t5.png,t2.png,3,0.0000131,19,female,2020-10-22_12h26.17.901,torte-q,2020.1.3,Win32,60,13274,0.89913,,,,,0,22,22,51,1,,,,,,,,,,,,,,,,,,,,,,,,,,,,,,,,,,,
,,,,,,,,,,,,l,Incorrect,,,,,,t3.png,t4.png,1,0.90855,19,female,2020-10-22_12h26.17.901,torte-q,2020.1.3,Win32,60,13274,0.997765,,,,,0,23,23,84,1,,,,,,,,,,,,,,,,,,,,,,,,,,,,,,,,,,,
,,,,,,,,,,,,a,Incorrect,,,,,,t4.png,t2.png,2,0.059078,19,female,2020-10-22_12h26.17.901,torte-q,2020.1.3,Win32,60,13274,0.84873,,,,,0,24,24,88,1,,,,,,,,,,,,,,,,,,,,,,,,,,,,,,,,,,,
,,,,,,,,,,,,a,Correct!,,,,,,t2.png,t3.png,1,0.90855,19,female,2020-10-22_12h26.17.901,torte-q,2020.1.3,Win32,60,13274,0.88569,,,,,0,25,25,111,1,,,,,,,,,,,,,,,,,,,,,,,,,,,,,,,,,,,
,,,,,,,,,,,,a,Correct!,,,,,,t3.png,t2.png,1,0.90855,19,female,2020-10-22_12h26.17.901,torte-q,2020.1.3,Win32,60,13274,1.30101,,,,,0,26,26,53,1,,,,,,,,,,,,,,,,,,,,,,,,,,,,,,,,,,,
,,,,,,,,,,,,l,Incorrect,,,,,,t2.png,t3.png,1,0.90855,19,female,2020-10-22_12h26.17.901,torte-q,2020.1.3,Win32,60,13274,1.232205,,,,,0,27,27,10,1,,,,,,,,,,,,,,,,,,,,,,,,,,,,,,,,,,,
,,,,,,,,,,,,l,Incorrect,,,,,,t2.png,t1.png,1,0.90025,19,female,2020-10-22_12h26.17.901,torte-q,2020.1.3,Win32,60,13274,0.935565,,,,,0,28,28,62,1,,,,,,,,,,,,,,,,,,,,,,,,,,,,,,,,,,,
,,,,,,,,,,,,a,Incorrect,,,,,,t5.png,t4.png,1,0.90025,19,female,2020-10-22_12h26.17.901,torte-q,2020.1.3,Win32,60,13274,1.276455,,,,,0,29,29,34,1,,,,,,,,,,,,,,,,,,,,,,,,,,,,,,,,,,,
,,,,,,,,,,,,a,Correct!,,,,,,t4.png,t3.png,1,0.90855,19,female,2020-10-22_12h26.17.901,torte-q,2020.1.3,Win32,60,13274,1.218445,,,,,0,30,30,75,1,,,,,,,,,,,,,,,,,,,,,,,,,,,,,,,,,,,
,,,,,,,,,,,,a,Correct!,,,,,,t1.png,t1.png,0,0.97829,19,female,2020-10-22_12h26.17.901,torte-q,2020.1.3,Win32,60,13274,1.182685,,,,,0,31,31,67,1,,,,,,,,,,,,,,,,,,,,,,,,,,,,,,,,,,,
,,,,,,,,,,,,l,Incorrect,,,,,,t2.png,t2.png,0,0.98115,19,female,2020-10-22_12h26.17.901,torte-q,2020.1.3,Win32,60,13274,1.10727,,,,,0,32,32,57,1,,,,,,,,,,,,,,,,,,,,,,,,,,,,,,,,,,,
,,,,,,,,,,,,l,Incorrect,,,,,,t1.png,t1.png,0,0.978,19,female,2020-10-22_12h26.17.901,torte-q,2020.1.3,Win32,60,13274,0.726785,,,,,0,33,33,28,1,,,,,,,,,,,,,,,,,,,,,,,,,,,,,,,,,,,
,,,,,,,,,,,,a,Incorrect,,,,,,t2.png,t5.png,3,0.0000131,19,female,2020-10-22_12h26.17.901,torte-q,2020.1.3,Win32,60,13274,0.719065,,,,,0,34,34,95,1,,,,,,,,,,,,,,,,,,,,,,,,,,,,,,,,,,,
,,,,,,,,,,,,l,Incorrect,,,,,,t4.png,t4.png,0,0.98115,19,female,2020-10-22_12h26.17.901,torte-q,2020.1.3,Win32,60,13274,1.14849,,,,,0,35,35,21,1,,,,,,,,,,,,,,,,,,,,,,,,,,,,,,,,,,,
,,,,,,,,,,,,l,Correct!,,,,,,t1.png,t4.png,3,0.0000131,19,female,2020-10-22_12h26.17.901,torte-q,2020.1.3,Win32,60,13274,0.585825,,,,,0,36,36,17,1,,,,,,,,,,,,,,,,,,,,,,,,,,,,,,,,,,,
,,,,,,,,,,,,a,Incorrect,,,,,,t5.png,t2.png,3,0.0000131,19,female,2020-10-22_12h26.17.901,torte-q,2020.1.3,Win32,60,13274,0.695195,,,,,0,37,37,119,1,,,,,,,,,,,,,,,,,,,,,,,,,,,,,,,,,,,
,,,,,,,,,,,,l,Correct!,,,,,,t2.png,t4.png,2,0.059078,19,female,2020-10-22_12h26.17.901,torte-q,2020.1.3,Win32,60,13274,0.772425,,,,,0,38,38,37,1,,,,,,,,,,,,,,,,,,,,,,,,,,,,,,,,,,,
,,,,,,,,,,,,l,Correct!,,,,,,t1.png,t3.png,2,0.056466,19,female,2020-10-22_12h26.17.901,torte-q,2020.1.3,Win32,60,13274,0.668975,,,,,0,39,39,60,1,,,,,,,,,,,,,,,,,,,,,,,,,,,,,,,,,,,
,,,,,,,,,,,,a,Incorrect,,,,,,t4.png,t1.png,3,0.0000131,19,female,2020-10-22_12h26.17.901,torte-q,2020.1.3,Win32,60,13274,0.56895,,,,,0,40,40,61,1,,,,,,,,,,,,,,,,,,,,,,,,,,,,,,,,,,,
,,,,,,,,,,,,l,Correct!,,,,,,t1.png,t3.png,2,0.056466,19,female,2020-10-22_12h26.17.901,torte-q,2020.1.3,Win32,60,13274,0.738775,,,,,0,41,41,63,1,,,,,,,,,,,,,,,,,,,,,,,,,,,,,,,,,,,
,,,,,,,,,,,,l,Incorrect,,,,,,t4.png,t4.png,0,0.98115,19,female,2020-10-22_12h26.17.901,torte-q,2020.1.3,Win32,60,13274,0.868985,,,,,0,42,42,90,1,,,,,,,,,,,,,,,,,,,,,,,,,,,,,,,,,,,
,,,,,,,,,,,,a,Correct!,,,,,,t2.png,t1.png,1,0.90025,19,female,2020-10-22_12h26.17.901,torte-q,2020.1.3,Win32,60,13274,0.74872,,,,,0,43,43,19,1,,,,,,,,,,,,,,,,,,,,,,,,,,,,,,,,,,,
,,,,,,,,,,,,a,Incorrect,,,,,,t1.png,t5.png,4,9.55E-11,19,female,2020-10-22_12h26.17.901,torte-q,2020.1.3,Win32,60,13274,0.931585,,,,,0,44,44,85,1,,,,,,,,,,,,,,,,,,,,,,,,,,,,,,,,,,,
,,,,,,,,,,,,l,Correct!,,,,,,t3.png,t1.png,2,0.056466,19,female,2020-10-22_12h26.17.901,torte-q,2020.1.3,Win32,60,13274,0.50499,,,,,0,45,45,0,1,,,,,,,,,,,,,,,,,,,,,,,,,,,,,,,,,,,
,,,,,,,,,,,,l,Incorrect,,,,,,t1.png,t1.png,0,0.97829,19,female,2020-10-22_12h26.17.901,torte-q,2020.1.3,Win32,60,13274,0.57255,,,,,0,46,46,9,1,,,,,,,,,,,,,,,,,,,,,,,,,,,,,,,,,,,
,,,,,,,,,,,,a,Incorrect,,,,,,t5.png,t2.png,3,0.0000131,19,female,2020-10-22_12h26.17.901,torte-q,2020.1.3,Win32,60,13274,0.591975,,,,,0,47,47,116,1,,,,,,,,,,,,,,,,,,,,,,,,,,,,,,,,,,,
,,,,,,,,,,,,l,Correct!,,,,,,t5.png,t2.png,3,0.0000131,19,female,2020-10-22_12h26.17.901,torte-q,2020.1.3,Win32,60,13274,0.5195,,,,,0,48,48,98,1,,,,,,,,,,,,,,,,,,,,,,,,,,,,,,,,,,,
,,,,,,,,,,,,l,Incorrect,,,,,,t1.png,t1.png,0,0.97829,19,female,2020-10-22_12h26.17.901,torte-q,2020.1.3,Win32,60,13274,0.556205,,,,,0,49,49,78,1,,,,,,,,,,,,,,,,,,,,,,,,,,,,,,,,,,,
,,,,,,,,,,,,a,Incorrect,,,,,,t1.png,t5.png,4,9.55E-11,19,female,2020-10-22_12h26.17.901,torte-q,2020.1.3,Win32,60,13274,1.235885,,,,,0,50,50,55,1,,,,,,,,,,,,,,,,,,,,,,,,,,,,,,,,,,,
,,,,,,,,,,,,l,Correct!,,,,,,t3.png,t5.png,2,0.0565,19,female,2020-10-22_12h26.17.901,torte-q,2020.1.3,Win32,60,13274,0.73369,,,,,0,51,51,83,1,,,,,,,,,,,,,,,,,,,,,,,,,,,,,,,,,,,
,,,,,,,,,,,,l,Incorrect,,,,,,t4.png,t3.png,1,0.909,19,female,2020-10-22_12h26.17.901,torte-q,2020.1.3,Win32,60,13274,0.735705,,,,,0,52,52,20,1,,,,,,,,,,,,,,,,,,,,,,,,,,,,,,,,,,,
,,,,,,,,,,,,l,Correct!,,,,,,t2.png,t4.png,2,0.059078,19,female,2020-10-22_12h26.17.901,torte-q,2020.1.3,Win32,60,13274,1.568885,,,,,0,53,53,11,1,,,,,,,,,,,,,,,,,,,,,,,,,,,,,,,,,,,
,,,,,,,,,,,,a,Incorrect,,,,,,t4.png,t2.png,2,0.059078,19,female,2020-10-22_12h26.17.901,torte-q,2020.1.3,Win32,60,13274,0.952085,,,,,0,54,54,110,1,,,,,,,,,,,,,,,,,,,,,,,,,,,,,,,,,,,
,,,,,,,,,,,,l,Incorrect,,,,,,t5.png,t5.png,0,0.97829,19,female,2020-10-22_12h26.17.901,torte-q,2020.1.3,Win32,60,13274,0.8727,,,,,0,55,55,25,1,,,,,,,,,,,,,,,,,,,,,,,,,,,,,,,,,,,
,,,,,,,,,,,,a,Incorrect,,,,,,t5.png,t1.png,4,9.55E-11,19,female,2020-10-22_12h26.17.901,torte-q,2020.1.3,Win32,60,13274,1.05218,,,,,0,56,56,102,1,,,,,,,,,,,,,,,,,,,,,,,,,,,,,,,,,,,
,,,,,,,,,,,,l,Correct!,,,,,,t5.png,t3.png,2,0.056466,19,female,2020-10-22_12h26.17.901,torte-q,2020.1.3,Win32,60,13274,0.73113,,,,,0,57,57,114,1,,,,,,,,,,,,,,,,,,,,,,,,,,,,,,,,,,,
,,,,,,,,,,,,l,Incorrect,,,,,,t5.png,t4.png,1,0.9,19,female,2020-10-22_12h26.17.901,torte-q,2020.1.3,Win32,60,13274,0.885535,,,,,0,58,58,49,1,,,,,,,,,,,,,,,,,,,,,,,,,,,,,,,,,,,
,,,,,,,,,,,,l,Correct!,,,,,,t5.png,t1.png,4,9.55E-11,19,female,2020-10-22_12h26.17.901,torte-q,2020.1.3,Win32,60,13274,0.96645,,,,,0,59,59,43,1,,,,,,,,,,,,,,,,,,,,,,,,,,,,,,,,,,,
,,,,,,,,,,,,l,Correct!,,,,,,t4.png,t1.png,3,0.0000131,19,female,2020-10-22_12h26.17.901,torte-q,2020.1.3,Win32,60,13274,1.00647,,,,,0,60,60,48,1,,,,,,,,,,,,,,,,,,,,,,,,,,,,,,,,,,,
,,,,,,,,,,,,a,Incorrect,,,,,,t4.png,t1.png,3,0.0000131,19,female,2020-10-22_12h26.17.901,torte-q,2020.1.3,Win32,60,13274,1.00417,,,,,0,61,61,13,1,,,,,,,,,,,,,,,,,,,,,,,,,,,,,,,,,,,
,,,,,,,,,,,,a,Correct!,,,,,,t4.png,t4.png,0,0.98115,19,female,2020-10-22_12h26.17.901,torte-q,2020.1.3,Win32,60,13274,1.04917,,,,,0,62,62,80,1,,,,,,,,,,,,,,,,,,,,,,,,,,,,,,,,,,,
,,,,,,,,,,,,a,Correct!,,,,,,t2.png,t1.png,1,0.9,19,female,2020-10-22_12h26.17.901,torte-q,2020.1.3,Win32,60,13274,0.839545,,,,,0,63,63,118,1,,,,,,,,,,,,,,,,,,,,,,,,,,,,,,,,,,,
,,,,,,,,,,,,l,Correct!,,,,,,t2.png,t4.png,2,0.059078,19,female,2020-10-22_12h26.17.901,torte-q,2020.1.3,Win32,60,13274,0.96751,,,,,0,64,64,24,1,,,,,,,,,,,,,,,,,,,,,,,,,,,,,,,,,,,
,,,,,,,,,,,,a,Incorrect,,,,,,t5.png,t2.png,3,0.0000131,19,female,2020-10-22_12h26.17.901,torte-q,2020.1.3,Win32,60,13274,1.617765,,,,,0,65,65,91,1,,,,,,,,,,,,,,,,,,,,,,,,,,,,,,,,,,,
,,,,,,,,,,,,l,Correct!,,,,,,t4.png,t2.png,2,0.059078,19,female,2020-10-22_12h26.17.901,torte-q,2020.1.3,Win32,60,13274,0.70024,,,,,0,66,66,109,1,,,,,,,,,,,,,,,,,,,,,,,,,,,,,,,,,,,
,,,,,,,,,,,,l,Incorrect,,,,,,t4.png,t3.png,1,0.90855,19,female,2020-10-22_12h26.17.901,torte-q,2020.1.3,Win32,60,13274,1.035655,,,,,0,67,67,45,1,,,,,,,,,,,,,,,,,,,,,,,,,,,,,,,,,,,
,,,,,,,,,,,,l,Correct!,,,,,,t1.png,t4.png,3,0.0000131,19,female,2020-10-22_12h26.17.901,torte-q,2020.1.3,Win32,60,13274,0.76703,,,,,0,68,68,92,1,,,,,,,,,,,,,,,,,,,,,,,,,,,,,,,,,,,
,,,,,,,,,,,,a,Correct!,,,,,,t2.png,t1.png,1,0.90025,19,female,2020-10-22_12h26.17.901,torte-q,2020.1.3,Win32,60,13274,1.16995,,,,,0,69,69,5,1,,,,,,,,,,,,,,,,,,,,,,,,,,,,,,,,,,,
,,,,,,,,,,,,l,Correct!,,,,,,t1.png,t4.png,3,0.0000131,19,female,2020-10-22_12h26.17.901,torte-q,2020.1.3,Win32,60,13274,0.98192,,,,,0,70,70,50,1,,,,,,,,,,,,,,,,,,,,,,,,,,,,,,,,,,,
,,,,,,,,,,,,a,Incorrect,,,,,,t3.png,t5.png,2,0.056466,19,female,2020-10-22_12h26.17.901,torte-q,2020.1.3,Win32,60,13274,0.968485,,,,,0,71,71,44,1,,,,,,,,,,,,,,,,,,,,,,,,,,,,,,,,,,,
,,,,,,,,,,,,l,Incorrect,,,,,,t3.png,t4.png,1,0.90855,19,female,2020-10-22_12h26.17.901,torte-q,2020.1.3,Win32,60,13274,0.92616,,,,,0,72,72,96,1,,,,,,,,,,,,,,,,,,,,,,,,,,,,,,,,,,,
,,,,,,,,,,,,l,Incorrect,,,,,,t4.png,t5.png,1,0.90025,19,female,2020-10-22_12h26.17.901,torte-q,2020.1.3,Win32,60,13274,0.90939,,,,,0,73,73,47,1,,,,,,,,,,,,,,,,,,,,,,,,,,,,,,,,,,,
,,,,,,,,,,,,a,Incorrect,,,,,,t3.png,t1.png,2,0.056466,19,female,2020-10-22_12h26.17.901,torte-q,2020.1.3,Win32,60,13274,0.886565,,,,,0,74,74,29,1,,,,,,,,,,,,,,,,,,,,,,,,,,,,,,,,,,,
,,,,,,,,,,,,a,Correct!,,,,,,t2.png,t2.png,0,0.981,19,female,2020-10-22_12h26.17.901,torte-q,2020.1.3,Win32,60,13274,0.73236,,,,,0,75,75,101,1,,,,,,,,,,,,,,,,,,,,,,,,,,,,,,,,,,,
,,,,,,,,,,,,l,Incorrect,,,,,,t2.png,t2.png,0,0.98115,19,female,2020-10-22_12h26.17.901,torte-q,2020.1.3,Win32,60,13274,0.636065,,,,,0,76,76,59,1,,,,,,,,,,,,,,,,,,,,,,,,,,,,,,,,,,,
,,,,,,,,,,,,l,Correct!,,,,,,t2.png,t5.png,3,0.0000131,19,female,2020-10-22_12h26.17.901,torte-q,2020.1.3,Win32,60,13274,0.769215,,,,,0,77,77,104,1,,,,,,,,,,,,,,,,,,,,,,,,,,,,,,,,,,,
,,,,,,,,,,,,l,Correct!,,,,,,t3.png,t5.png,2,0.0565,19,female,2020-10-22_12h26.17.901,torte-q,2020.1.3,Win32,60,13274,0.900145,,,,,0,78,78,30,1,,,,,,,,,,,,,,,,,,,,,,,,,,,,,,,,,,,
,,,,,,,,,,,,a,Correct!,,,,,,t2.png,t3.png,1,0.90855,19,female,2020-10-22_12h26.17.901,torte-q,2020.1.3,Win32,60,13274,1.033385,,,,,0,79,79,68,1,,,,,,,,,,,,,,,,,,,,,,,,,,,,,,,,,,,
,,,,,,,,,,,,a,Correct!,,,,,,t5.png,t4.png,1,0.90025,19,female,2020-10-22_12h26.17.901,torte-q,2020.1.3,Win32,60,13274,0.905595,,,,,0,80,80,26,1,,,,,,,,,,,,,,,,,,,,,,,,,,,,,,,,,,,
,,,,,,,,,,,,a,Incorrect,,,,,,t4.png,t1.png,3,0.0000131,19,female,2020-10-22_12h26.17.901,torte-q,2020.1.3,Win32,60,13274,0.95735,,,,,0,81,81,93,1,,,,,,,,,,,,,,,,,,,,,,,,,,,,,,,,,,,
,,,,,,,,,,,,l,Incorrect,,,,,,t3.png,t5.png,2,0.056466,19,female,2020-10-22_12h26.17.901,torte-q,2020.1.3,Win32,60,13274,0.63936,,,,,0,82,82,14,1,,,,,,,,,,,,,,,,,,,,,,,,,,,,,,,,,,,
,,,,,,,,,,,,a,Incorrect,,,,,,t5.png,t3.png,2,0.056466,19,female,2020-10-22_12h26.17.901,torte-q,2020.1.3,Win32,60,13274,0.63578,,,,,0,83,83,56,1,,,,,,,,,,,,,,,,,,,,,,,,,,,,,,,,,,,
,,,,,,,,,,,,l,Incorrect,,,,,,t3.png,t2.png,1,0.909,19,female,2020-10-22_12h26.17.901,torte-q,2020.1.3,Win32,60,13274,0.585735,,,,,0,84,84,23,1,,,,,,,,,,,,,,,,,,,,,,,,,,,,,,,,,,,
,,,,,,,,,,,,a,Incorrect,,,,,,t5.png,t3.png,2,0.056466,19,female,2020-10-22_12h26.17.901,torte-q,2020.1.3,Win32,60,13274,0.58514,,,,,0,85,85,38,1,,,,,,,,,,,,,,,,,,,,,,,,,,,,,,,,,,,
,,,,,,,,,,,,a,Correct!,,,,,,t3.png,t2.png,1,0.90855,19,female,2020-10-22_12h26.17.901,torte-q,2020.1.3,Win32,60,13274,0.691645,,,,,0,86,86,97,1,,,,,,,,,,,,,,,,,,,,,,,,,,,,,,,,,,,
,,,,,,,,,,,,l,Correct!,,,,,,t1.png,t5.png,4,9.55E-11,19,female,2020-10-22_12h26.17.901,torte-q,2020.1.3,Win32,60,13274,0.6602,,,,,0,87,87,41,1,,,,,,,,,,,,,,,,,,,,,,,,,,,,,,,,,,,
,,,,,,,,,,,,l,Correct!,,,,,,t2.png,t5.png,3,0.0000131,19,female,2020-10-22_12h26.17.901,torte-q,2020.1.3,Win32,60,13274,0.668095,,,,,0,88,88,8,1,,,,,,,,,,,,,,,,,,,,,,,,,,,,,,,,,,,
,,,,,,,,,,,,l,Correct!,,,,,,t1.png,t5.png,4,9.55E-11,19,female,2020-10-22_12h26.17.901,torte-q,2020.1.3,Win32,60,13274,0.618935,,,,,0,89,89,16,1,,,,,,,,,,,,,,,,,,,,,,,,,,,,,,,,,,,
,,,,,,,,,,,,a,Correct!,,,,,,t2.png,t1.png,1,0.90025,19,female,2020-10-22_12h26.17.901,torte-q,2020.1.3,Win32,60,13274,0.83568,,,,,0,90,90,4,1,,,,,,,,,,,,,,,,,,,,,,,,,,,,,,,,,,,
,,,,,,,,,,,,a,Incorrect,,,,,,t5.png,t3.png,2,0.0565,19,female,2020-10-22_12h26.17.901,torte-q,2020.1.3,Win32,60,13274,0.66312,,,,,0,91,91,39,1,,,,,,,,,,,,,,,,,,,,,,,,,,,,,,,,,,,
,,,,,,,,,,,,l,Correct!,,,,,,t1.png,t3.png,2,0.056466,19,female,2020-10-22_12h26.17.901,torte-q,2020.1.3,Win32,60,13274,0.48733,,,,,0,92,92,87,1,,,,,,,,,,,,,,,,,,,,,,,,,,,,,,,,,,,
,,,,,,,,,,,,a,Correct!,,,,,,t3.png,t2.png,1,0.90855,19,female,2020-10-22_12h26.17.901,torte-q,2020.1.3,Win32,60,13274,0.557885,,,,,0,93,93,18,1,,,,,,,,,,,,,,,,,,,,,,,,,,,,,,,,,,,
,,,,,,,,,,,,l,Incorrect,,,,,,t3.png,t4.png,1,0.909,19,female,2020-10-22_12h26.17.901,torte-q,2020.1.3,Win32,60,13274,0.59288,,,,,0,94,94,106,1,,,,,,,,,,,,,,,,,,,,,,,,,,,,,,,,,,,
,,,,,,,,,,,,l,Incorrect,,,,,,t1.png,t2.png,1,0.90025,19,female,2020-10-22_12h26.17.901,torte-q,2020.1.3,Win32,60,13274,0.535655,,,,,0,95,95,72,1,,,,,,,,,,,,,,,,,,,,,,,,,,,,,,,,,,,
,,,,,,,,,,,,l,Correct!,,,,,,t1.png,t3.png,2,0.056466,19,female,2020-10-22_12h26.17.901,torte-q,2020.1.3,Win32,60,13274,0.61923,,,,,0,96,96,69,1,,,,,,,,,,,,,,,,,,,,,,,,,,,,,,,,,,,
,,,,,,,,,,,,a,Correct!,,,,,,t2.png,t2.png,0,0.98115,19,female,2020-10-22_12h26.17.901,torte-q,2020.1.3,Win32,60,13274,0.702155,,,,,0,97,97,7,1,,,,,,,,,,,,,,,,,,,,,,,,,,,,,,,,,,,
,,,,,,,,,,,,a,Incorrect,,,,,,t3.png,t1.png,2,0.0565,19,female,2020-10-22_12h26.17.901,torte-q,2020.1.3,Win32,60,13274,0.569365,,,,,0,98,98,31,1,,,,,,,,,,,,,,,,,,,,,,,,,,,,,,,,,,,
,,,,,,,,,,,,l,Correct!,,,,,,t3.png,t1.png,2,0.056466,19,female,2020-10-22_12h26.17.901,torte-q,2020.1.3,Win32,60,13274,0.60657,,,,,0,99,99,32,1,,,,,,,,,,,,,,,,,,,,,,,,,,,,,,,,,,,
,,,,,,,,,,,,a,Correct!,,,,,,t5.png,t4.png,1,0.90025,19,female,2020-10-22_12h26.17.901,torte-q,2020.1.3,Win32,60,13274,0.717085,,,,,0,100,100,27,1,,,,,,,,,,,,,,,,,,,,,,,,,,,,,,,,,,,
,,,,,,,,,,,,l,Correct!,,,,,,t2.png,t5.png,3,0.0000131,19,female,2020-10-22_12h26.17.901,torte-q,2020.1.3,Win32,60,13274,0.516415,,,,,0,101,101,40,1,,,,,,,,,,,,,,,,,,,,,,,,,,,,,,,,,,,
,,,,,,,,,,,,l,Correct!,,,,,,t2.png,t4.png,2,0.0591,19,female,2020-10-22_12h26.17.901,torte-q,2020.1.3,Win32,60,13274,0.490925,,,,,0,102,102,15,1,,,,,,,,,,,,,,,,,,,,,,,,,,,,,,,,,,,
,,,,,,,,,,,,a,Correct!,,,,,,t4.png,t4.png,0,0.98115,19,female,2020-10-22_12h26.17.901,torte-q,2020.1.3,Win32,60,13274,0.53939,,,,,0,103,103,52,1,,,,,,,,,,,,,,,,,,,,,,,,,,,,,,,,,,,
,,,,,,,,,,,,l,Correct!,,,,,,t5.png,t1.png,4,9.55E-11,19,female,2020-10-22_12h26.17.901,torte-q,2020.1.3,Win32,60,13274,0.955765,,,,,0,104,104,22,1,,,,,,,,,,,,,,,,,,,,,,,,,,,,,,,,,,,
,,,,,,,,,,,,l,Incorrect,,,,,,t1.png,t2.png,1,0.90025,19,female,2020-10-22_12h26.17.901,torte-q,2020.1.3,Win32,60,13274,0.60774,,,,,0,105,105,33,1,,,,,,,,,,,,,,,,,,,,,,,,,,,,,,,,,,,
,,,,,,,,,,,,l,Incorrect,,,,,,t2.png,t2.png,0,0.98115,19,female,2020-10-22_12h26.17.901,torte-q,2020.1.3,Win32,60,13274,0.77316,,,,,0,106,106,2,1,,,,,,,,,,,,,,,,,,,,,,,,,,,,,,,,,,,
,,,,,,,,,,,,l,Correct!,,,,,,t4.png,t1.png,3,0.0000131,19,female,2020-10-22_12h26.17.901,torte-q,2020.1.3,Win32,60,13274,0.687225,,,,,0,107,107,42,1,,,,,,,,,,,,,,,,,,,,,,,,,,,,,,,,,,,
,,,,,,,,,,,,a,Incorrect,,,,,,t4.png,t2.png,2,0.059078,19,female,2020-10-22_12h26.17.901,torte-q,2020.1.3,Win32,60,13274,0.70585,,,,,0,108,108,86,1,,,,,,,,,,,,,,,,,,,,,,,,,,,,,,,,,,,
,,,,,,,,,,,,a,Correct!,,,,,,t4.png,t3.png,1,0.90855,19,female,2020-10-22_12h26.17.901,torte-q,2020.1.3,Win32,60,13274,0.64952,,,,,0,109,109,35,1,,,,,,,,,,,,,,,,,,,,,,,,,,,,,,,,,,,
,,,,,,,,,,,,l,Incorrect,,,,,,t3.png,t4.png,1,0.909,19,female,2020-10-22_12h26.17.901,torte-q,2020.1.3,Win32,60,13274,1.117395,,,,,0,110,110,82,1,,,,,,,,,,,,,,,,,,,,,,,,,,,,,,,,,,,
,,,,,,,,,,,,a,Correct!,,,,,,t4.png,t5.png,1,0.90025,19,female,2020-10-22_12h26.17.901,torte-q,2020.1.3,Win32,60,13274,0.91673,,,,,0,111,111,103,1,,,,,,,,,,,,,,,,,,,,,,,,,,,,,,,,,,,
,,,,,,,,,,,,l,Incorrect,,,,,,t5.png,t4.png,1,0.9,19,female,2020-10-22_12h26.17.901,torte-q,2020.1.3,Win32,60,13274,0.574775,,,,,0,112,112,76,1,,,,,,,,,,,,,,,,,,,,,,,,,,,,,,,,,,,
,,,,,,,,,,,,a,Incorrect,,,,,,t5.png,t1.png,4,9.55E-11,19,female,2020-10-22_12h26.17.901,torte-q,2020.1.3,Win32,60,13274,0.625745,,,,,0,113,113,100,1,,,,,,,,,,,,,,,,,,,,,,,,,,,,,,,,,,,
,,,,,,,,,,,,l,Correct!,,,,,,t3.png,t5.png,2,0.056466,19,female,2020-10-22_12h26.17.901,torte-q,2020.1.3,Win32,60,13274,0.53953,,,,,0,114,114,6,1,,,,,,,,,,,,,,,,,,,,,,,,,,,,,,,,,,,
,,,,,,,,,,,,a,Incorrect,,,,,,t2.png,t4.png,2,0.059078,19,female,2020-10-22_12h26.17.901,torte-q,2020.1.3,Win32,60,13274,0.70565,,,,,0,115,115,77,1,,,,,,,,,,,,,,,,,,,,,,,,,,,,,,,,,,,
,,,,,,,,,,,,a,Correct!,,,,,,t5.png,t5.png,0,0.97829,19,female,2020-10-22_12h26.17.901,torte-q,2020.1.3,Win32,60,13274,0.683775,,,,,0,116,116,73,1,,,,,,,,,,,,,,,,,,,,,,,,,,,,,,,,,,,
,,,,,,,,,,,,a,Incorrect,,,,,,t1.png,t5.png,4,9.55E-11,19,female,2020-10-22_12h26.17.901,torte-q,2020.1.3,Win32,60,13274,0.752205,,,,,0,117,117,12,1,,,,,,,,,,,,,,,,,,,,,,,,,,,,,,,,,,,
,,,,,,,,,,,,a,Correct!,,,,,,t5.png,t5.png,0,0.97829,19,female,2020-10-22_12h26.17.901,torte-q,2020.1.3,Win32,60,13274,0.752505,,,,,0,118,118,94,1,,,,,,,,,,,,,,,,,,,,,,,,,,,,,,,,,,,
,,,,,,,,,,,,l,Incorrect,,,,,,t4.png,t3.png,1,0.909,19,female,2020-10-22_12h26.17.901,torte-q,2020.1.3,Win32,60,13274,0.612715,,,,,0,119,119,46,1,,,,,,,,,,,,,,,,,,,,,,,,,,,,,,,,,,,
,,,,,,,,,,,,l,Correct!,,,,,,t1.png,t5.png,4,9.55E-11,19,female,2020-10-22_12h26.17.901,torte-q,2020.1.3,Win32,60,13274,0.41892,space,3.36217,,,,,,,,space,8.43341,l,4.32243,0,0,0,55,1,,,,,,,,,,,,,,,,,,,,,,,,,,
,,,,,,,,,,,,l,Correct!,,,,,,t3.png,t5.png,2,0.0565,19,female,2020-10-22_12h26.17.901,torte-q,2020.1.3,Win32,60,13274,0.372665,,,,,,,,,,,,,,0,1,1,30,1,,,,,,,,,,,,,,,,,,,,,,,,,,
,,,,,,,,,,,,l,Correct!,,,,,,t2.png,t4.png,2,0.059078,19,female,2020-10-22_12h26.17.901,torte-q,2020.1.3,Win32,60,13274,0.42059,,,,,,,,,,,,,,0,2,2,77,1,,,,,,,,,,,,,,,,,,,,,,,,,,
,,,,,,,,,,,,a,Correct!,,,,,,t5.png,t4.png,1,0.9,19,female,2020-10-22_12h26.17.901,torte-q,2020.1.3,Win32,60,13274,0.417575,,,,,,,,,,,,,,0,3,3,76,1,,,,,,,,,,,,,,,,,,,,,,,,,,
,,,,,,,,,,,,a,Incorrect,,,,,,t4.png,t2.png,2,0.059078,19,female,2020-10-22_12h26.17.901,torte-q,2020.1.3,Win32,60,13274,0.750685,,,,,,,,,,,,,,0,4,4,88,1,,,,,,,,,,,,,,,,,,,,,,,,,,
,,,,,,,,,,,,l,Correct!,,,,,,t1.png,t5.png,4,9.55E-11,19,female,2020-10-22_12h26.17.901,torte-q,2020.1.3,Win32,60,13274,0.446935,,,,,,,,,,,,,,0,5,5,85,1,,,,,,,,,,,,,,,,,,,,,,,,,,
,,,,,,,,,,,,a,Incorrect,,,,,,t2.png,t5.png,3,0.0000131,19,female,2020-10-22_12h26.17.901,torte-q,2020.1.3,Win32,60,13274,0.71649,,,,,,,,,,,,,,0,6,6,95,1,,,,,,,,,,,,,,,,,,,,,,,,,,
,,,,,,,,,,,,l,Correct!,,,,,,t1.png,t3.png,2,0.056466,19,female,2020-10-22_12h26.17.901,torte-q,2020.1.3,Win32,60,13274,0.45314,,,,,,,,,,,,,,0,7,7,87,1,,,,,,,,,,,,,,,,,,,,,,,,,,
,,,,,,,,,,,,a,Incorrect,,,,,,t5.png,t1.png,4,9.55E-11,19,female,2020-10-22_12h26.17.901,torte-q,2020.1.3,Win32,60,13274,0.552055,,,,,,,,,,,,,,0,8,8,102,1,,,,,,,,,,,,,,,,,,,,,,,,,,
,,,,,,,,,,,,l,Incorrect,,,,,,t5.png,t5.png,0,0.97829,19,female,2020-10-22_12h26.17.901,torte-q,2020.1.3,Win32,60,13274,0.753285,,,,,,,,,,,,,,0,9,9,94,1,,,,,,,,,,,,,,,,,,,,,,,,,,
,,,,,,,,,,,,a,Correct!,,,,,,t2.png,t1.png,1,0.90025,19,female,2020-10-22_12h26.17.901,torte-q,2020.1.3,Win32,60,13274,0.556545,,,,,,,,,,,,,,0,10,10,5,1,,,,,,,,,,,,,,,,,,,,,,,,,,
,,,,,,,,,,,,l,Correct!,,,,,,t5.png,t3.png,2,0.056466,19,female,2020-10-22_12h26.17.901,torte-q,2020.1.3,Win32,60,13274,0.491855,,,,,,,,,,,,,,0,11,11,114,1,,,,,,,,,,,,,,,,,,,,,,,,,,
,,,,,,,,,,,,a,Incorrect,,,,,,t4.png,t1.png,3,0.0000131,19,female,2020-10-22_12h26.17.901,torte-q,2020.1.3,Win32,60,13274,0.403975,,,,,,,,,,,,,,0,12,12,61,1,,,,,,,,,,,,,,,,,,,,,,,,,,
,,,,,,,,,,,,l,Incorrect,,,,,,t1.png,t1.png,0,0.97829,19,female,2020-10-22_12h26.17.901,torte-q,2020.1.3,Win32,60,13274,0.569205,,,,,,,,,,,,,,0,13,13,67,1,,,,,,,,,,,,,,,,,,,,,,,,,,
,,,,,,,,,,,,l,Incorrect,,,,,,t2.png,t2.png,0,0.98115,19,female,2020-10-22_12h26.17.901,torte-q,2020.1.3,Win32,60,13274,0.436845,,,,,,,,,,,,,,0,14,14,57,1,,,,,,,,,,,,,,,,,,,,,,,,,,
,,,,,,,,,,,,a,Correct!,,,,,,t1.png,t1.png,0,0.97829,19,female,2020-10-22_12h26.17.901,torte-q,2020.1.3,Win32,60,13274,0.76805,,,,,,,,,,,,,,0,15,15,78,1,,,,,,,,,,,,,,,,,,,,,,,,,,
,,,,,,,,,,,,a,Incorrect,,,,,,t5.png,t3.png,2,0.056466,19,female,2020-10-22_12h26.17.901,torte-q,2020.1.3,Win32,60,13274,0.65068,,,,,,,,,,,,,,0,16,16,38,1,,,,,,,,,,,,,,,,,,,,,,,,,,
,,,,,,,,,,,,a,Correct!,,,,,,t5.png,t5.png,0,0.978,19,female,2020-10-22_12h26.17.901,torte-q,2020.1.3,Win32,60,13274,1.098195,,,,,,,,,,,,,,0,17,17,117,1,,,,,,,,,,,,,,,,,,,,,,,,,,
,,,,,,,,,,,,l,Correct!,,,,,,t2.png,t5.png,3,0.0000131,19,female,2020-10-22_12h26.17.901,torte-q,2020.1.3,Win32,60,13274,0.521215,,,,,,,,,,,,,,0,18,18,104,1,,,,,,,,,,,,,,,,,,,,,,,,,,
,,,,,,,,,,,,a,Correct!,,,,,,t2.png,t1.png,1,0.90025,19,female,2020-10-22_12h26.17.901,torte-q,2020.1.3,Win32,60,13274,0.533605,,,,,,,,,,,,,,0,19,19,4,1,,,,,,,,,,,,,,,,,,,,,,,,,,
,,,,,,,,,,,,l,Correct!,,,,,,t5.png,t1.png,4,9.55E-11,19,female,2020-10-22_12h26.17.901,torte-q,2020.1.3,Win32,60,13274,0.482335,,,,,,,,,,,,,,0,20,20,22,1,,,,,,,,,,,,,,,,,,,,,,,,,,
,,,,,,,,,,,,a,Incorrect,,,,,,t5.png,t3.png,2,0.056466,19,female,2020-10-22_12h26.17.901,torte-q,2020.1.3,Win32,60,13274,0.235905,,,,,,,,,,,,,,0,21,21,108,1,,,,,,,,,,,,,,,,,,,,,,,,,,
,,,,,,,,,,,,l,Correct!,,,,,,t4.png,t1.png,3,0.0000131,19,female,2020-10-22_12h26.17.901,torte-q,2020.1.3,Win32,60,13274,0.165675,,,,,,,,,,,,,,0,22,22,93,1,,,,,,,,,,,,,,,,,,,,,,,,,,
,,,,,,,,,,,,l,Incorrect,,,,,,t3.png,t1.png,2,0.056466,19,female,2020-10-22_12h26.17.901,torte-q,2020.1.3,Win32,60,13274,0.18642,,,,,,,,,,,,,,0,23,23,32,1,,,,,,,,,,,,,,,,,,,,,,,,,,
,,,,,,,,,,,,a,Correct!,,,,,,t5.png,t5.png,0,0.97829,19,female,2020-10-22_12h26.17.901,torte-q,2020.1.3,Win32,60,13274,0.40038,,,,,,,,,,,,,,0,24,24,25,1,,,,,,,,,,,,,,,,,,,,,,,,,,
,,,,,,,,,,,,l,Correct!,,,,,,t1.png,t3.png,2,0.056466,19,female,2020-10-22_12h26.17.901,torte-q,2020.1.3,Win32,60,13274,0.514435,,,,,,,,,,,,,,0,25,25,99,1,,,,,,,,,,,,,,,,,,,,,,,,,,
,,,,,,,,,,,,l,Correct!,,,,,,t3.png,t5.png,2,0.0565,19,female,2020-10-22_12h26.17.901,torte-q,2020.1.3,Win32,60,13274,0.417445,,,,,,,,,,,,,,0,26,26,83,1,,,,,,,,,,,,,,,,,,,,,,,,,,
,,,,,,,,,,,,l,Incorrect,,,,,,t4.png,t4.png,0,0.98115,19,female,2020-10-22_12h26.17.901,torte-q,2020.1.3,Win32,60,13274,0.5678,,,,,,,,,,,,,,0,27,27,90,1,,,,,,,,,,,,,,,,,,,,,,,,,,
,,,,,,,,,,,,l,Incorrect,,,,,,t2.png,t2.png,0,0.981,19,female,2020-10-22_12h26.17.901,torte-q,2020.1.3,Win32,60,13274,0.640665,,,,,,,,,,,,,,0,28,28,101,1,,,,,,,,,,,,,,,,,,,,,,,,,,
,,,,,,,,,,,,l,Incorrect,,,,,,t1.png,t2.png,1,0.90025,19,female,2020-10-22_12h26.17.901,torte-q,2020.1.3,Win32,60,13274,0.541425,,,,,,,,,,,,,,0,29,29,72,1,,,,,,,,,,,,,,,,,,,,,,,,,,
,,,,,,,,,,,,a,Correct!,,,,,,t3.png,t2.png,1,0.90855,19,female,2020-10-22_12h26.17.901,torte-q,2020.1.3,Win32,60,13274,0.818645,,,,,,,,,,,,,,0,30,30,97,1,,,,,,,,,,,,,,,,,,,,,,,,,,
,,,,,,,,,,,,a,Correct!,,,,,,t1.png,t1.png,0,0.978,19,female,2020-10-22_12h26.17.901,torte-q,2020.1.3,Win32,60,13274,0.693875,,,,,,,,,,,,,,0,31,31,28,1,,,,,,,,,,,,,,,,,,,,,,,,,,
,,,,,,,,,,,,l,Correct!,,,,,,t5.png,t2.png,3,0.0000131,19,female,2020-10-22_12h26.17.901,torte-q,2020.1.3,Win32,60,13274,0.55635,,,,,,,,,,,,,,0,32,32,51,1,,,,,,,,,,,,,,,,,,,,,,,,,,
,,,,,,,,,,,,l,Incorrect,,,,,,t1.png,t2.png,1,0.90025,19,female,2020-10-22_12h26.17.901,torte-q,2020.1.3,Win32,60,13274,0.542375,,,,,,,,,,,,,,0,33,33,33,1,,,,,,,,,,,,,,,,,,,,,,,,,,
,,,,,,,,,,,,a,Incorrect,,,,,,t4.png,t2.png,2,0.059078,19,female,2020-10-22_12h26.17.901,torte-q,2020.1.3,Win32,60,13274,0.49775,,,,,,,,,,,,,,0,34,34,109,1,,,,,,,,,,,,,,,,,,,,,,,,,,
,,,,,,,,,,,,l,Incorrect,,,,,,t4.png,t4.png,0,0.98115,19,female,2020-10-22_12h26.17.901,torte-q,2020.1.3,Win32,60,13274,0.353215,,,,,,,,,,,,,,0,35,35,80,1,,,,,,,,,,,,,,,,,,,,,,,,,,
,,,,,,,,,,,,l,Incorrect,,,,,,t4.png,t5.png,1,0.90025,19,female,2020-10-22_12h26.17.901,torte-q,2020.1.3,Win32,60,13274,0.34922,,,,,,,,,,,,,,0,36,36,58,1,,,,,,,,,,,,,,,,,,,,,,,,,,
,,,,,,,,,,,,l,Correct!,,,,,,t1.png,t4.png,3,0.0000131,19,female,2020-10-22_12h26.17.901,torte-q,2020.1.3,Win32,60,13274,0.602415,,,,,,,,,,,,,,0,37,37,17,1,,,,,,,,,,,,,,,,,,,,,,,,,,
,,,,,,,,,,,,l,Correct!,,,,,,t1.png,t4.png,3,0.0000131,19,female,2020-10-22_12h26.17.901,torte-q,2020.1.3,Win32,60,13274,0.335895,,,,,,,,,,,,,,0,38,38,50,1,,,,,,,,,,,,,,,,,,,,,,,,,,
,,,,,,,,,,,,a,Incorrect,,,,,,t1.png,t3.png,2,0.056466,19,female,2020-10-22_12h26.17.901,torte-q,2020.1.3,Win32,60,13274,0.50394,,,,,,,,,,,,,,0,39,39,60,1,,,,,,,,,,,,,,,,,,,,,,,,,,
,,,,,,,,,,,,a,Correct!,,,,,,t4.png,t3.png,1,0.90855,19,female,2020-10-22_12h26.17.901,torte-q,2020.1.3,Win32,60,13274,0.525245,,,,,,,,,,,,,,0,40,40,45,1,,,,,,,,,,,,,,,,,,,,,,,,,,
,,,,,,,,,,,,a,Incorrect,,,,,,t1.png,t5.png,4,9.55E-11,19,female,2020-10-22_12h26.17.901,torte-q,2020.1.3,Win32,60,13274,1.316255,,,,,,,,,,,,,,0,41,41,41,1,,,,,,,,,,,,,,,,,,,,,,,,,,
,,,,,,,,,,,,l,Incorrect,,,,,,t2.png,t2.png,0,0.98115,19,female,2020-10-22_12h26.17.901,torte-q,2020.1.3,Win32,60,13274,0.47522,,,,,,,,,,,,,,0,42,42,2,1,,,,,,,,,,,,,,,,,,,,,,,,,,
,,,,,,,,,,,,l,Correct!,,,,,,t2.png,t5.png,3,0.0000131,19,female,2020-10-22_12h26.17.901,torte-q,2020.1.3,Win32,60,13274,0.60247,,,,,,,,,,,,,,0,43,43,8,1,,,,,,,,,,,,,,,,,,,,,,,,,,
,,,,,,,,,,,,l,Correct!,,,,,,t4.png,t2.png,2,0.059078,19,female,2020-10-22_12h26.17.901,torte-q,2020.1.3,Win32,60,13274,0.919545,,,,,,,,,,,,,,0,44,44,86,1,,,,,,,,,,,,,,,,,,,,,,,,,,
,,,,,,,,,,,,a,Correct!,,,,,,t2.png,t1.png,1,0.90025,19,female,2020-10-22_12h26.17.901,torte-q,2020.1.3,Win32,60,13274,0.573625,,,,,,,,,,,,,,0,45,45,62,1,,,,,,,,,,,,,,,,,,,,,,,,,,
,,,,,,,,,,,,l,Correct!,,,,,,t1.png,t3.png,2,0.056466,19,female,2020-10-22_12h26.17.901,torte-q,2020.1.3,Win32,60,13274,0.563595,,,,,,,,,,,,,,0,46,46,69,1,,,,,,,,,,,,,,,,,,,,,,,,,,
,,,,,,,,,,,,a,Correct!,,,,,,t2.png,t3.png,1,0.90855,19,female,2020-10-22_12h26.17.901,torte-q,2020.1.3,Win32,60,13274,0.54088,,,,,,,,,,,,,,0,47,47,10,1,,,,,,,,,,,,,,,,,,,,,,,,,,
,,,,,,,,,,,,a,Correct!,,,,,,t1.png,t2.png,1,0.9,19,female,2020-10-22_12h26.17.901,torte-q,2020.1.3,Win32,60,13274,0.7314,,,,,,,,,,,,,,0,48,48,1,1,,,,,,,,,,,,,,,,,,,,,,,,,,
,,,,,,,,,,,,a,Correct!,,,,,,t2.png,t3.png,1,0.90855,19,female,2020-10-22_12h26.17.901,torte-q,2020.1.3,Win32,60,13274,0.72496,,,,,,,,,,,,,,0,49,49,65,1,,,,,,,,,,,,,,,,,,,,,,,,,,
,,,,,,,,,,,,a,Correct!,,,,,,t4.png,t4.png,0,0.98115,19,female,2020-10-22_12h26.17.901,torte-q,2020.1.3,Win32,60,13274,0.886445,,,,,,,,,,,,,,0,50,50,52,1,,,,,,,,,,,,,,,,,,,,,,,,,,
,,,,,,,,,,,,l,Incorrect,,,,,,t4.png,t5.png,1,0.90025,19,female,2020-10-22_12h26.17.901,torte-q,2020.1.3,Win32,60,13274,0.63306,,,,,,,,,,,,,,0,51,51,113,1,,,,,,,,,,,,,,,,,,,,,,,,,,
,,,,,,,,,,,,a,Correct!,,,,,,t1.png,t1.png,0,0.978,19,female,2020-10-22_12h26.17.901,torte-q,2020.1.3,Win32,60,13274,1.59043,,,,,,,,,,,,,,0,52,52,54,1,,,,,,,,,,,,,,,,,,,,,,,,,,
,,,,,,,,,,,,a,Correct!,,,,,,t3.png,t2.png,1,0.90855,19,female,2020-10-22_12h26.17.901,torte-q,2020.1.3,Win32,60,13274,0.485055,,,,,,,,,,,,,,0,53,53,18,1,,,,,,,,,,,,,,,,,,,,,,,,,,
,,,,,,,,,,,,,Too slow :(,,,,,,t3.png,t5.png,2,0.056466,19,female,2020-10-22_12h26.17.901,torte-q,2020.1.3,Win32,60,13274,,,,,,,,,,,,,,,0,54,54,14,1,,,,,,,,,,,,,,,,,,,,,,,,,,
,,,,,,,,,,,,l,Correct!,,,,,,t3.png,t1.png,2,0.056466,19,female,2020-10-22_12h26.17.901,torte-q,2020.1.3,Win32,60,13274,0.65912,,,,,,,,,,,,,,0,55,55,0,1,,,,,,,,,,,,,,,,,,,,,,,,,,
,,,,,,,,,,,,l,Correct!,,,,,,t2.png,t4.png,2,0.059078,19,female,2020-10-22_12h26.17.901,torte-q,2020.1.3,Win32,60,13274,1.294245,,,,,,,,,,,,,,0,56,56,24,1,,,,,,,,,,,,,,,,,,,,,,,,,,
,,,,,,,,,,,,a,Correct!,,,,,,t5.png,t4.png,1,0.90025,19,female,2020-10-22_12h26.17.901,torte-q,2020.1.3,Win32,60,13274,1.70925,,,,,,,,,,,,,,0,57,57,34,1,,,,,,,,,,,,,,,,,,,,,,,,,,
,,,,,,,,,,,,l,Correct!,,,,,,t2.png,t5.png,3,0.0000131,19,female,2020-10-22_12h26.17.901,torte-q,2020.1.3,Win32,60,13274,2.239795,,,,,,,,,,,,,,0,58,58,40,1,,,,,,,,,,,,,,,,,,,,,,,,,,
,,,,,,,,,,,,a,Incorrect,,,,,,t3.png,t1.png,2,0.056466,19,female,2020-10-22_12h26.17.901,torte-q,2020.1.3,Win32,60,13274,1.00215,,,,,,,,,,,,,,0,59,59,29,1,,,,,,,,,,,,,,,,,,,,,,,,,,
,,,,,,,,,,,,a,Incorrect,,,,,,t2.png,t4.png,2,0.0591,19,female,2020-10-22_12h26.17.901,torte-q,2020.1.3,Win32,60,13274,1.74743,,,,,,,,,,,,,,0,60,60,15,1,,,,,,,,,,,,,,,,,,,,,,,,,,
,,,,,,,,,,,,a,Incorrect,,,,,,t4.png,t2.png,2,0.059078,19,female,2020-10-22_12h26.17.901,torte-q,2020.1.3,Win32,60,13274,2.136295,,,,,,,,,,,,,,0,61,61,110,1,,,,,,,,,,,,,,,,,,,,,,,,,,
,,,,,,,,,,,,l,Incorrect,,,,,,t4.png,t4.png,0,0.98115,19,female,2020-10-22_12h26.17.901,torte-q,2020.1.3,Win32,60,13274,1.63157,,,,,,,,,,,,,,0,62,62,21,1,,,,,,,,,,,,,,,,,,,,,,,,,,
,,,,,,,,,,,,a,Incorrect,,,,,,t2.png,t4.png,2,0.059078,19,female,2020-10-22_12h26.17.901,torte-q,2020.1.3,Win32,60,13274,1.097965,,,,,,,,,,,,,,0,63,63,11,1,,,,,,,,,,,,,,,,,,,,,,,,,,
,,,,,,,,,,,,l,Correct!,,,,,,t5.png,t1.png,4,9.55E-11,19,female,2020-10-22_12h26.17.901,torte-q,2020.1.3,Win32,60,13274,0.92412,,,,,,,,,,,,,,0,64,64,100,1,,,,,,,,,,,,,,,,,,,,,,,,,,
,,,,,,,,,,,,a,Correct!,,,,,,t1.png,t1.png,0,0.97829,19,female,2020-10-22_12h26.17.901,torte-q,2020.1.3,Win32,60,13274,0.73493,,,,,,,,,,,,,,0,65,65,9,1,,,,,,,,,,,,,,,,,,,,,,,,,,
,,,,,,,,,,,,l,Correct!,,,,,,t1.png,t5.png,4,9.55E-11,19,female,2020-10-22_12h26.17.901,torte-q,2020.1.3,Win32,60,13274,0.683425,,,,,,,,,,,,,,0,66,66,16,1,,,,,,,,,,,,,,,,,,,,,,,,,,
,,,,,,,,,,,,l,Correct!,,,,,,t4.png,t1.png,3,0.0000131,19,female,2020-10-22_12h26.17.901,torte-q,2020.1.3,Win32,60,13274,0.54757,,,,,,,,,,,,,,0,67,67,13,1,,,,,,,,,,,,,,,,,,,,,,,,,,
,,,,,,,,,,,,l,Incorrect,,,,,,t5.png,t5.png,0,0.97829,19,female,2020-10-22_12h26.17.901,torte-q,2020.1.3,Win32,60,13274,1.01655,,,,,,,,,,,,,,0,68,68,70,1,,,,,,,,,,,,,,,,,,,,,,,,,,
,,,,,,,,,,,,a,Incorrect,,,,,,t3.png,t5.png,2,0.056466,19,female,2020-10-22_12h26.17.901,torte-q,2020.1.3,Win32,60,13274,0.582295,,,,,,,,,,,,,,0,69,69,6,1,,,,,,,,,,,,,,,,,,,,,,,,,,
,,,,,,,,,,,,a,Correct!,,,,,,t1.png,t2.png,1,0.90025,19,female,2020-10-22_12h26.17.901,torte-q,2020.1.3,Win32,60,13274,0.798965,,,,,,,,,,,,,,0,70,70,112,1,,,,,,,,,,,,,,,,,,,,,,,,,,
,,,,,,,,,,,,l,Correct!,,,,,,t5.png,t3.png,2,0.0565,19,female,2020-10-22_12h26.17.901,torte-q,2020.1.3,Win32,60,13274,0.597755,,,,,,,,,,,,,,0,71,71,39,1,,,,,,,,,,,,,,,,,,,,,,,,,,
,,,,,,,,,,,,a,Correct!,,,,,,t4.png,t3.png,1,0.909,19,female,2020-10-22_12h26.17.901,torte-q,2020.1.3,Win32,60,13274,0.467775,,,,,,,,,,,,,,0,72,72,20,1,,,,,,,,,,,,,,,,,,,,,,,,,,
,,,,,,,,,,,,l,Correct!,,,,,,t1.png,t5.png,4,9.55E-11,19,female,2020-10-22_12h26.17.901,torte-q,2020.1.3,Win32,60,13274,1.083185,,,,,,,,,,,,,,0,73,73,12,1,,,,,,,,,,,,,,,,,,,,,,,,,,
,,,,,,,,,,,,a,Incorrect,,,,,,t5.png,t2.png,3,0.0000131,19,female,2020-10-22_12h26.17.901,torte-q,2020.1.3,Win32,60,13274,0.582115,,,,,,,,,,,,,,0,74,74,116,1,,,,,,,,,,,,,,,,,,,,,,,,,,
,,,,,,,,,,,,l,Incorrect,,,,,,t3.png,t4.png,1,0.909,19,female,2020-10-22_12h26.17.901,torte-q,2020.1.3,Win32,60,13274,0.506155,,,,,,,,,,,,,,0,75,75,82,1,,,,,,,,,,,,,,,,,,,,,,,,,,
,,,,,,,,,,,,a,Incorrect,,,,,,t5.png,t2.png,3,0.0000131,19,female,2020-10-22_12h26.17.901,torte-q,2020.1.3,Win32,60,13274,0.52212,,,,,,,,,,,,,,0,76,76,98,1,,,,,,,,,,,,,,,,,,,,,,,,,,
,,,,,,,,,,,,l,Correct!,,,,,,t4.png,t2.png,2,0.0591,19,female,2020-10-22_12h26.17.901,torte-q,2020.1.3,Win32,60,13274,0.56583,,,,,,,,,,,,,,0,77,77,36,1,,,,,,,,,,,,,,,,,,,,,,,,,,
,,,,,,,,,,,,a,Incorrect,,,,,,t5.png,t2.png,3,0.0000131,19,female,2020-10-22_12h26.17.901,torte-q,2020.1.3,Win32,60,13274,0.559255,,,,,,,,,,,,,,0,78,78,91,1,,,,,,,,,,,,,,,,,,,,,,,,,,
,,,,,,,,,,,,l,Correct!,,,,,,t4.png,t1.png,3,0.0000131,19,female,2020-10-22_12h26.17.901,torte-q,2020.1.3,Win32,60,13274,0.58214,,,,,,,,,,,,,,0,79,79,48,1,,,,,,,,,,,,,,,,,,,,,,,,,,
,,,,,,,,,,,,a,Incorrect,,,,,,t5.png,t2.png,3,0.0000131,19,female,2020-10-22_12h26.17.901,torte-q,2020.1.3,Win32,60,13274,0.552275,,,,,,,,,,,,,,0,80,80,119,1,,,,,,,,,,,,,,,,,,,,,,,,,,
,,,,,,,,,,,,l,Incorrect,,,,,,t5.png,t4.png,1,0.90025,19,female,2020-10-22_12h26.17.901,torte-q,2020.1.3,Win32,60,13274,0.45597,,,,,,,,,,,,,,0,81,81,27,1,,,,,,,,,,,,,,,,,,,,,,,,,,
,,,,,,,,,,,,l,Correct!,,,,,,t2.png,t5.png,3,0.0000131,19,female,2020-10-22_12h26.17.901,torte-q,2020.1.3,Win32,60,13274,0.50473,,,,,,,,,,,,,,0,82,82,66,1,,,,,,,,,,,,,,,,,,,,,,,,,,
,,,,,,,,,,,,a,Correct!,,,,,,t3.png,t4.png,1,0.909,19,female,2020-10-22_12h26.17.901,torte-q,2020.1.3,Win32,60,13274,0.770375,,,,,,,,,,,,,,0,83,83,106,1,,,,,,,,,,,,,,,,,,,,,,,,,,
,,,,,,,,,,,,l,Incorrect,,,,,,t2.png,t3.png,1,0.90855,19,female,2020-10-22_12h26.17.901,torte-q,2020.1.3,Win32,60,13274,0.41885,,,,,,,,,,,,,,0,84,84,68,1,,,,,,,,,,,,,,,,,,,,,,,,,,
,,,,,,,,,,,,l,Incorrect,,,,,,t2.png,t3.png,1,0.90855,19,female,2020-10-22_12h26.17.901,torte-q,2020.1.3,Win32,60,13274,0.836555,,,,,,,,,,,,,,0,85,85,111,1,,,,,,,,,,,,,,,,,,,,,,,,,,
,,,,,,,,,,,,l,Incorrect,,,,,,t4.png,t5.png,1,0.9,19,female,2020-10-22_12h26.17.901,torte-q,2020.1.3,Win32,60,13274,0.27738,,,,,,,,,,,,,,0,86,86,115,1,,,,,,,,,,,,,,,,,,,,,,,,,,
,,,,,,,,,,,,a,Incorrect,,,,,,t3.png,t1.png,2,0.056466,19,female,2020-10-22_12h26.17.901,torte-q,2020.1.3,Win32,60,13274,0.56604,,,,,,,,,,,,,,0,87,87,64,1,,,,,,,,,,,,,,,,,,,,,,,,,,
,,,,,,,,,,,,l,Incorrect,,,,,,t3.png,t2.png,1,0.909,19,female,2020-10-22_12h26.17.901,torte-q,2020.1.3,Win32,60,13274,0.40831,,,,,,,,,,,,,,0,88,88,3,1,,,,,,,,,,,,,,,,,,,,,,,,,,
,,,,,,,,,,,,l,Correct!,,,,,,t4.png,t1.png,3,0.0000131,19,female,2020-10-22_12h26.17.901,torte-q,2020.1.3,Win32,60,13274,1.25247,,,,,,,,,,,,,,0,89,89,42,1,,,,,,,,,,,,,,,,,,,,,,,,,,
,,,,,,,,,,,,a,Correct!,,,,,,t4.png,t5.png,1,0.90025,19,female,2020-10-22_12h26.17.901,torte-q,2020.1.3,Win32,60,13274,1.102255,,,,,,,,,,,,,,0,90,90,47,1,,,,,,,,,,,,,,,,,,,,,,,,,,
,,,,,,,,,,,,a,Incorrect,,,,,,t5.png,t1.png,4,9.55E-11,19,female,2020-10-22_12h26.17.901,torte-q,2020.1.3,Win32,60,13274,0.516285,,,,,,,,,,,,,,0,91,91,43,1,,,,,,,,,,,,,,,,,,,,,,,,,,
,,,,,,,,,,,,l,Incorrect,,,,,,t2.png,t1.png,1,0.9,19,female,2020-10-22_12h26.17.901,torte-q,2020.1.3,Win32,60,13274,0.78601,,,,,,,,,,,,,,0,92,92,118,1,,,,,,,,,,,,,,,,,,,,,,,,,,
,,,,,,,,,,,,l,Incorrect,,,,,,t4.png,t4.png,0,0.98115,19,female,2020-10-22_12h26.17.901,torte-q,2020.1.3,Win32,60,13274,0.800125,,,,,,,,,,,,,,0,93,93,79,1,,,,,,,,,,,,,,,,,,,,,,,,,,
,,,,,,,,,,,,l,Incorrect,,,,,,t5.png,t4.png,1,0.9,19,female,2020-10-22_12h26.17.901,torte-q,2020.1.3,Win32,60,13274,0.598265,,,,,,,,,,,,,,0,94,94,49,1,,,,,,,,,,,,,,,,,,,,,,,,,,
,,,,,,,,,,,,a,Incorrect,,,,,,t2.png,t3.png,1,0.909,19,female,2020-10-22_12h26.17.901,torte-q,2020.1.3,Win32,60,13274,0.83091,,,,,,,,,,,,,,0,95,95,74,1,,,,,,,,,,,,,,,,,,,,,,,,,,
,,,,,,,,,,,,l,Incorrect,,,,,,t5.png,t3.png,2,0.056466,19,female,2020-10-22_12h26.17.901,torte-q,2020.1.3,Win32,60,13274,0.98895,,,,,,,,,,,,,,0,96,96,56,1,,,,,,,,,,,,,,,,,,,,,,,,,,
,,,,,,,,,,,,a,Incorrect,,,,,,t5.png,t1.png,4,9.55E-11,19,female,2020-10-22_12h26.17.901,torte-q,2020.1.3,Win32,60,13274,0.622025,,,,,,,,,,,,,,0,97,97,71,1,,,,,,,,,,,,,,,,,,,,,,,,,,
,,,,,,,,,,,,l,Incorrect,,,,,,t5.png,t4.png,1,0.90025,19,female,2020-10-22_12h26.17.901,torte-q,2020.1.3,Win32,60,13274,0.63908,,,,,,,,,,,,,,0,98,98,26,1,,,,,,,,,,,,,,,,,,,,,,,,,,
,,,,,,,,,,,,l,Correct!,,,,,,t2.png,t4.png,2,0.059078,19,female,2020-10-22_12h26.17.901,torte-q,2020.1.3,Win32,60,13274,0.96915,,,,,,,,,,,,,,0,99,99,37,1,,,,,,,,,,,,,,,,,,,,,,,,,,
,,,,,,,,,,,,a,Correct!,,,,,,t3.png,t4.png,1,0.90855,19,female,2020-10-22_12h26.17.901,torte-q,2020.1.3,Win32,60,13274,0.836835,,,,,,,,,,,,,,0,100,100,96,1,,,,,,,,,,,,,,,,,,,,,,,,,,
,,,,,,,,,,,,a,Correct!,,,,,,t3.png,t4.png,1,0.909,19,female,2020-10-22_12h26.17.901,torte-q,2020.1.3,Win32,60,13274,0.63235,,,,,,,,,,,,,,0,101,101,89,1,,,,,,,,,,,,,,,,,,,,,,,,,,
,,,,,,,,,,,,l,Correct!,,,,,,t3.png,t1.png,2,0.0565,19,female,2020-10-22_12h26.17.901,torte-q,2020.1.3,Win32,60,13274,0.452325,,,,,,,,,,,,,,0,102,102,31,1,,,,,,,,,,,,,,,,,,,,,,,,,,
,,,,,,,,,,,,l,Incorrect,,,,,,t2.png,t1.png,1,0.90025,19,female,2020-10-22_12h26.17.901,torte-q,2020.1.3,Win32,60,13274,0.403655,,,,,,,,,,,,,,0,103,103,19,1,,,,,,,,,,,,,,,,,,,,,,,,,,
,,,,,,,,,,,,l,Correct!,,,,,,t1.png,t3.png,2,0.056466,19,female,2020-10-22_12h26.17.901,torte-q,2020.1.3,Win32,60,13274,0.466655,,,,,,,,,,,,,,0,104,104,63,1,,,,,,,,,,,,,,,,,,,,,,,,,,
,,,,,,,,,,,,a,Correct!,,,,,,t4.png,t3.png,1,0.90855,19,female,2020-10-22_12h26.17.901,torte-q,2020.1.3,Win32,60,13274,0.60002,,,,,,,,,,,,,,0,105,105,35,1,,,,,,,,,,,,,,,,,,,,,,,,,,
,,,,,,,,,,,,a,Incorrect,,,,,,t1.png,t4.png,3,0.0000131,19,female,2020-10-22_12h26.17.901,torte-q,2020.1.3,Win32,60,13274,0.56874,,,,,,,,,,,,,,0,106,106,107,1,,,,,,,,,,,,,,,,,,,,,,,,,,
,,,,,,,,,,,,l,Incorrect,,,,,,t1.png,t2.png,1,0.90025,19,female,2020-10-22_12h26.17.901,torte-q,2020.1.3,Win32,60,13274,0.652195,,,,,,,,,,,,,,0,107,107,105,1,,,,,,,,,,,,,,,,,,,,,,,,,,
,,,,,,,,,,,,a,Correct!,,,,,,t3.png,t2.png,1,0.909,19,female,2020-10-22_12h26.17.901,torte-q,2020.1.3,Win32,60,13274,0.40217,,,,,,,,,,,,,,0,108,108,23,1,,,,,,,,,,,,,,,,,,,,,,,,,,
,,,,,,,,,,,,l,Incorrect,,,,,,t5.png,t5.png,0,0.97829,19,female,2020-10-22_12h26.17.901,torte-q,2020.1.3,Win32,60,13274,0.584795,,,,,,,,,,,,,,0,109,109,73,1,,,,,,,,,,,,,,,,,,,,,,,,,,
,,,,,,,,,,,,l,Incorrect,,,,,,t3.png,t4.png,1,0.90855,19,female,2020-10-22_12h26.17.901,torte-q,2020.1.3,Win32,60,13274,0.55224,,,,,,,,,,,,,,0,110,110,84,1,,,,,,,,,,,,,,,,,,,,,,,,,,
,,,,,,,,,,,,a,Incorrect,,,,,,t1.png,t4.png,3,0.0000131,19,female,2020-10-22_12h26.17.901,torte-q,2020.1.3,Win32,60,13274,1.002115,,,,,,,,,,,,,,0,111,111,92,1,,,,,,,,,,,,,,,,,,,,,,,,,,
,,,,,,,,,,,,a,Correct!,,,,,,t4.png,t3.png,1,0.90855,19,female,2020-10-22_12h26.17.901,torte-q,2020.1.3,Win32,60,13274,0.3939,,,,,,,,,,,,,,0,112,112,75,1,,,,,,,,,,,,,,,,,,,,,,,,,,
,,,,,,,,,,,,l,Correct!,,,,,,t3.png,t5.png,2,0.056466,19,female,2020-10-22_12h26.17.901,torte-q,2020.1.3,Win32,60,13274,0.46869,,,,,,,,,,,,,,0,113,113,44,1,,,,,,,,,,,,,,,,,,,,,,,,,,
,,,,,,,,,,,,l,Correct!,,,,,,t1.png,t4.png,3,0.0000131,19,female,2020-10-22_12h26.17.901,torte-q,2020.1.3,Win32,60,13274,0.402635,,,,,,,,,,,,,,0,114,114,81,1,,,,,,,,,,,,,,,,,,,,,,,,,,
,,,,,,,,,,,,a,Correct!,,,,,,t2.png,t2.png,0,0.98115,19,female,2020-10-22_12h26.17.901,torte-q,2020.1.3,Win32,60,13274,0.387895,,,,,,,,,,,,,,0,115,115,7,1,,,,,,,,,,,,,,,,,,,,,,,,,,
,,,,,,,,,,,,a,Correct!,,,,,,t3.png,t2.png,1,0.90855,19,female,2020-10-22_12h26.17.901,torte-q,2020.1.3,Win32,60,13274,0.485815,,,,,,,,,,,,,,0,116,116,53,1,,,,,,,,,,,,,,,,,,,,,,,,,,
,,,,,,,,,,,,l,Incorrect,,,,,,t2.png,t2.png,0,0.98115,19,female,2020-10-22_12h26.17.901,torte-q,2020.1.3,Win32,60,13274,0.397085,,,,,,,,,,,,,,0,117,117,59,1,,,,,,,,,,,,,,,,,,,,,,,,,,
,,,,,,,,,,,,a,Correct!,,,,,,t4.png,t5.png,1,0.90025,19,female,2020-10-22_12h26.17.901,torte-q,2020.1.3,Win32,60,13274,0.351225,,,,,,,,,,,,,,0,118,118,103,1,,,,,,,,,,,,,,,,,,,,,,,,,,
,,,,,,,,,,,,a,Incorrect,,,,,,t4.png,t3.png,1,0.909,19,female,2020-10-22_12h26.17.901,torte-q,2020.1.3,Win32,60,13274,0.443305,,,,,,,,,,,,,,0,119,119,46,1,,,,,,,,,,,,,,,,,,,,,,,,,,
,,,,,,,,,,,,,,,,,,,,,,,19,female,2020-10-22_12h26.17.901,torte-q,2020.1.3,Win32,60,13274,,comma,1.13832,,,,,,,,,,,,,,,,,4.980000153,4.953095,262.0000269,119.9999928,1,0,0,s2,176.666691,21.3333029,1,0,0,t2,210.666692,-90.6666801,1,0,0,proceed,space,1.3262,space,0.6969,space,0.365485
