key_resp_8.keys,key_resp_8.rt,key_resp_9.keys,key_resp_9.rt,key_resp_10.keys,key_resp_10.rt,key_resp_11.keys,key_resp_11.rt,key_resp_2.keys,key_resp_2.rt,key_resp_3.keys,key_resp_3.rt,key_resp.keys,Feedback,train.thisRepN,train.thisTrialN,train.thisN,train.thisIndex,train.ran,torta_sx,torta_dx,difference,probability,age,gender,date,expName,psychopyVersion,OS,frameRate,participant,key_resp.rt,key_resp_15.keys,key_resp_15.rt,key_resp_6.keys,key_resp_6.rt,test1.thisRepN,test1.thisTrialN,test1.thisN,test1.thisIndex,test1.ran,key_resp_16.keys,key_resp_16.rt,key_resp_7.keys,key_resp_7.rt,test2.thisRepN,test2.thisTrialN,test2.thisN,test2.thisIndex,test2.ran,rating.response,rating.rt,mouse.x,mouse.y,mouse.leftButton,mouse.midButton,mouse.rightButton,mouse.clicked_name,mouse_2.x,mouse_2.y,mouse_2.leftButton,mouse_2.midButton,mouse_2.rightButton,mouse_2.clicked_name,mouse_3.x,mouse_3.y,mouse_3.leftButton,mouse_3.midButton,mouse_3.rightButton,mouse_3.clicked_name,key_resp_12.keys,key_resp_12.rt,key_resp_13.keys,key_resp_13.rt,key_resp_14.keys,key_resp_14.rt
space,74.28261,space,3.97915,space,1.05876,space,3.775685,space,16.15758,space,47.19548,,Too slow :(,0,0,0,49,1,t4.png,t5.png,1,0.9,40,Female,2020-10-19_20h54.56.973,torte-q,2020.1.3,Win32,60,13276,,,,,,,,,,,,,,,,,,,,,,,,,,,,,,,,,,,,,,,,,,,,,
,,,,,,,,,,,,l,Incorrect,0,1,1,97,1,t5.png,t5.png,0,0.97829,40,Female,2020-10-19_20h54.56.973,torte-q,2020.1.3,Win32,60,13276,1.078285,,,,,,,,,,,,,,,,,,,,,,,,,,,,,,,,,,,,,,,,,,,,
,,,,,,,,,,,,l,Correct!,0,2,2,30,1,t3.png,t1.png,2,0.056466,40,Female,2020-10-19_20h54.56.973,torte-q,2020.1.3,Win32,60,13276,1.136705,,,,,,,,,,,,,,,,,,,,,,,,,,,,,,,,,,,,,,,,,,,,
,,,,,,,,,,,,a,Incorrect,0,3,3,108,1,t5.png,t1.png,4,9.55E-11,40,Female,2020-10-19_20h54.56.973,torte-q,2020.1.3,Win32,60,13276,0.98686,,,,,,,,,,,,,,,,,,,,,,,,,,,,,,,,,,,,,,,,,,,,
,,,,,,,,,,,,l,Correct!,0,4,4,115,1,t2.png,t4.png,2,0.059078,40,Female,2020-10-19_20h54.56.973,torte-q,2020.1.3,Win32,60,13276,0.72978,,,,,,,,,,,,,,,,,,,,,,,,,,,,,,,,,,,,,,,,,,,,
,,,,,,,,,,,,l,Correct!,0,5,5,3,1,t1.png,t5.png,4,9.55E-11,40,Female,2020-10-19_20h54.56.973,torte-q,2020.1.3,Win32,60,13276,1.473195,,,,,,,,,,,,,,,,,,,,,,,,,,,,,,,,,,,,,,,,,,,,
,,,,,,,,,,,,a,Correct!,0,6,6,42,1,t5.png,t4.png,1,0.90025,40,Female,2020-10-19_20h54.56.973,torte-q,2020.1.3,Win32,60,13276,0.952535,,,,,,,,,,,,,,,,,,,,,,,,,,,,,,,,,,,,,,,,,,,,
,,,,,,,,,,,,l,Incorrect,0,7,7,10,1,t2.png,t3.png,1,0.90855,40,Female,2020-10-19_20h54.56.973,torte-q,2020.1.3,Win32,60,13276,0.911375,,,,,,,,,,,,,,,,,,,,,,,,,,,,,,,,,,,,,,,,,,,,
,,,,,,,,,,,,a,Correct!,0,8,8,78,1,t1.png,t1.png,0,0.978,40,Female,2020-10-19_20h54.56.973,torte-q,2020.1.3,Win32,60,13276,1.839745,,,,,,,,,,,,,,,,,,,,,,,,,,,,,,,,,,,,,,,,,,,,
,,,,,,,,,,,,l,Incorrect,0,9,9,23,1,t5.png,t4.png,1,0.90025,40,Female,2020-10-19_20h54.56.973,torte-q,2020.1.3,Win32,60,13276,1.864435,,,,,,,,,,,,,,,,,,,,,,,,,,,,,,,,,,,,,,,,,,,,
,,,,,,,,,,,,l,Correct!,0,10,10,37,1,t1.png,t4.png,3,0.0000131,40,Female,2020-10-19_20h54.56.973,torte-q,2020.1.3,Win32,60,13276,1.38448,,,,,,,,,,,,,,,,,,,,,,,,,,,,,,,,,,,,,,,,,,,,
,,,,,,,,,,,,a,Incorrect,0,11,11,102,1,t4.png,t2.png,2,0.059078,40,Female,2020-10-19_20h54.56.973,torte-q,2020.1.3,Win32,60,13276,2.16736,,,,,,,,,,,,,,,,,,,,,,,,,,,,,,,,,,,,,,,,,,,,
,,,,,,,,,,,,a,Correct!,0,12,12,13,1,t5.png,t5.png,0,0.97829,40,Female,2020-10-19_20h54.56.973,torte-q,2020.1.3,Win32,60,13276,1.31874,,,,,,,,,,,,,,,,,,,,,,,,,,,,,,,,,,,,,,,,,,,,
,,,,,,,,,,,,l,Incorrect,0,13,13,106,1,t2.png,t3.png,1,0.90855,40,Female,2020-10-19_20h54.56.973,torte-q,2020.1.3,Win32,60,13276,2.101675,,,,,,,,,,,,,,,,,,,,,,,,,,,,,,,,,,,,,,,,,,,,
,,,,,,,,,,,,l,Correct!,0,14,14,50,1,t5.png,t1.png,4,9.55E-11,40,Female,2020-10-19_20h54.56.973,torte-q,2020.1.3,Win32,60,13276,1.148915,,,,,,,,,,,,,,,,,,,,,,,,,,,,,,,,,,,,,,,,,,,,
,,,,,,,,,,,,l,Correct!,0,15,15,38,1,t3.png,t1.png,2,0.056466,40,Female,2020-10-19_20h54.56.973,torte-q,2020.1.3,Win32,60,13276,1.73263,,,,,,,,,,,,,,,,,,,,,,,,,,,,,,,,,,,,,,,,,,,,
,,,,,,,,,,,,l,Incorrect,0,16,16,114,1,t2.png,t3.png,1,0.90855,40,Female,2020-10-19_20h54.56.973,torte-q,2020.1.3,Win32,60,13276,1.70411,,,,,,,,,,,,,,,,,,,,,,,,,,,,,,,,,,,,,,,,,,,,
,,,,,,,,,,,,,Too slow :(,0,17,17,1,1,t2.png,t4.png,2,0.059078,40,Female,2020-10-19_20h54.56.973,torte-q,2020.1.3,Win32,60,13276,,,,,,,,,,,,,,,,,,,,,,,,,,,,,,,,,,,,,,,,,,,,,
,,,,,,,,,,,,a,Incorrect,0,18,18,111,1,t5.png,t1.png,4,9.55E-11,40,Female,2020-10-19_20h54.56.973,torte-q,2020.1.3,Win32,60,13276,1.21539,,,,,,,,,,,,,,,,,,,,,,,,,,,,,,,,,,,,,,,,,,,,
,,,,,,,,,,,,l,Incorrect,0,19,19,32,1,t4.png,t5.png,1,0.90025,40,Female,2020-10-19_20h54.56.973,torte-q,2020.1.3,Win32,60,13276,2.286675,,,,,,,,,,,,,,,,,,,,,,,,,,,,,,,,,,,,,,,,,,,,
,,,,,,,,,,,,a,Correct!,0,20,20,25,1,t5.png,t5.png,0,0.97829,40,Female,2020-10-19_20h54.56.973,torte-q,2020.1.3,Win32,60,13276,1.447815,,,,,,,,,,,,,,,,,,,,,,,,,,,,,,,,,,,,,,,,,,,,
,,,,,,,,,,,,a,Correct!,0,21,21,29,1,t5.png,t5.png,0,0.97829,40,Female,2020-10-19_20h54.56.973,torte-q,2020.1.3,Win32,60,13276,1.06603,,,,,,,,,,,,,,,,,,,,,,,,,,,,,,,,,,,,,,,,,,,,
,,,,,,,,,,,,l,Correct!,0,22,22,4,1,t1.png,t5.png,4,9.55E-11,40,Female,2020-10-19_20h54.56.973,torte-q,2020.1.3,Win32,60,13276,1.25122,,,,,,,,,,,,,,,,,,,,,,,,,,,,,,,,,,,,,,,,,,,,
,,,,,,,,,,,,a,Correct!,0,23,23,58,1,t5.png,t4.png,1,0.90025,40,Female,2020-10-19_20h54.56.973,torte-q,2020.1.3,Win32,60,13276,1.34157,,,,,,,,,,,,,,,,,,,,,,,,,,,,,,,,,,,,,,,,,,,,
,,,,,,,,,,,,l,Correct!,0,24,24,19,1,t4.png,t2.png,2,0.059078,40,Female,2020-10-19_20h54.56.973,torte-q,2020.1.3,Win32,60,13276,1.10869,,,,,,,,,,,,,,,,,,,,,,,,,,,,,,,,,,,,,,,,,,,,
,,,,,,,,,,,,a,Incorrect,0,25,25,60,1,t2.png,t4.png,2,0.059078,40,Female,2020-10-19_20h54.56.973,torte-q,2020.1.3,Win32,60,13276,2.06947,,,,,,,,,,,,,,,,,,,,,,,,,,,,,,,,,,,,,,,,,,,,
,,,,,,,,,,,,l,Correct!,0,26,26,43,1,t4.png,t2.png,2,0.059078,40,Female,2020-10-19_20h54.56.973,torte-q,2020.1.3,Win32,60,13276,1.102665,,,,,,,,,,,,,,,,,,,,,,,,,,,,,,,,,,,,,,,,,,,,
,,,,,,,,,,,,a,Incorrect,0,27,27,26,1,t4.png,t2.png,2,0.0591,40,Female,2020-10-19_20h54.56.973,torte-q,2020.1.3,Win32,60,13276,2.18695,,,,,,,,,,,,,,,,,,,,,,,,,,,,,,,,,,,,,,,,,,,,
,,,,,,,,,,,,a,Correct!,0,28,28,48,1,t5.png,t5.png,0,0.97829,40,Female,2020-10-19_20h54.56.973,torte-q,2020.1.3,Win32,60,13276,1.00419,,,,,,,,,,,,,,,,,,,,,,,,,,,,,,,,,,,,,,,,,,,,
,,,,,,,,,,,,l,Incorrect,0,29,29,116,1,t5.png,t4.png,1,0.90025,40,Female,2020-10-19_20h54.56.973,torte-q,2020.1.3,Win32,60,13276,1.495475,,,,,,,,,,,,,,,,,,,,,,,,,,,,,,,,,,,,,,,,,,,,
,,,,,,,,,,,,l,Incorrect,0,30,30,100,1,t4.png,t5.png,1,0.90025,40,Female,2020-10-19_20h54.56.973,torte-q,2020.1.3,Win32,60,13276,0.802215,,,,,,,,,,,,,,,,,,,,,,,,,,,,,,,,,,,,,,,,,,,,
,,,,,,,,,,,,l,Correct!,0,31,31,87,1,t5.png,t1.png,4,9.55E-11,40,Female,2020-10-19_20h54.56.973,torte-q,2020.1.3,Win32,60,13276,1.707475,,,,,,,,,,,,,,,,,,,,,,,,,,,,,,,,,,,,,,,,,,,,
,,,,,,,,,,,,a,Correct!,0,32,32,75,1,t1.png,t1.png,0,0.97829,40,Female,2020-10-19_20h54.56.973,torte-q,2020.1.3,Win32,60,13276,1.69885,,,,,,,,,,,,,,,,,,,,,,,,,,,,,,,,,,,,,,,,,,,,
,,,,,,,,,,,,,Too slow :(,0,33,33,66,1,t4.png,t5.png,1,0.9,40,Female,2020-10-19_20h54.56.973,torte-q,2020.1.3,Win32,60,13276,,,,,,,,,,,,,,,,,,,,,,,,,,,,,,,,,,,,,,,,,,,,,
,,,,,,,,,,,,a,Correct!,0,34,34,16,1,t5.png,t4.png,1,0.9,40,Female,2020-10-19_20h54.56.973,torte-q,2020.1.3,Win32,60,13276,1.23033,,,,,,,,,,,,,,,,,,,,,,,,,,,,,,,,,,,,,,,,,,,,
,,,,,,,,,,,,a,Correct!,0,35,35,76,1,t3.png,t2.png,1,0.90855,40,Female,2020-10-19_20h54.56.973,torte-q,2020.1.3,Win32,60,13276,1.09942,,,,,,,,,,,,,,,,,,,,,,,,,,,,,,,,,,,,,,,,,,,,
,,,,,,,,,,,,l,Correct!,0,36,36,63,1,t2.png,t3.png,1,0.909,40,Female,2020-10-19_20h54.56.973,torte-q,2020.1.3,Win32,60,13276,1.1206,,,,,,,,,,,,,,,,,,,,,,,,,,,,,,,,,,,,,,,,,,,,
,,,,,,,,,,,,l,Incorrect,0,37,37,8,1,t3.png,t2.png,1,0.90855,40,Female,2020-10-19_20h54.56.973,torte-q,2020.1.3,Win32,60,13276,1.17335,,,,,,,,,,,,,,,,,,,,,,,,,,,,,,,,,,,,,,,,,,,,
,,,,,,,,,,,,a,Incorrect,0,38,38,18,1,t4.png,t5.png,1,0.90025,40,Female,2020-10-19_20h54.56.973,torte-q,2020.1.3,Win32,60,13276,1.33952,,,,,,,,,,,,,,,,,,,,,,,,,,,,,,,,,,,,,,,,,,,,
,,,,,,,,,,,,a,Correct!,0,39,39,59,1,t5.png,t4.png,1,0.9,40,Female,2020-10-19_20h54.56.973,torte-q,2020.1.3,Win32,60,13276,1.720095,,,,,,,,,,,,,,,,,,,,,,,,,,,,,,,,,,,,,,,,,,,,
,,,,,,,,,,,,l,Incorrect,0,40,40,84,1,t1.png,t1.png,0,0.97829,40,Female,2020-10-19_20h54.56.973,torte-q,2020.1.3,Win32,60,13276,1.52222,,,,,,,,,,,,,,,,,,,,,,,,,,,,,,,,,,,,,,,,,,,,
,,,,,,,,,,,,l,Incorrect,0,41,41,92,1,t2.png,t3.png,1,0.909,40,Female,2020-10-19_20h54.56.973,torte-q,2020.1.3,Win32,60,13276,1.02049,,,,,,,,,,,,,,,,,,,,,,,,,,,,,,,,,,,,,,,,,,,,
,,,,,,,,,,,,a,Incorrect,0,42,42,36,1,t3.png,t1.png,2,0.0565,40,Female,2020-10-19_20h54.56.973,torte-q,2020.1.3,Win32,60,13276,0.95878,,,,,,,,,,,,,,,,,,,,,,,,,,,,,,,,,,,,,,,,,,,,
,,,,,,,,,,,,l,Incorrect,0,43,43,74,1,t5.png,t4.png,1,0.9,40,Female,2020-10-19_20h54.56.973,torte-q,2020.1.3,Win32,60,13276,1.48432,,,,,,,,,,,,,,,,,,,,,,,,,,,,,,,,,,,,,,,,,,,,
,,,,,,,,,,,,a,Incorrect,0,44,44,73,1,t4.png,t2.png,2,0.059078,40,Female,2020-10-19_20h54.56.973,torte-q,2020.1.3,Win32,60,13276,0.690105,,,,,,,,,,,,,,,,,,,,,,,,,,,,,,,,,,,,,,,,,,,,
,,,,,,,,,,,,a,Incorrect,0,45,45,88,1,t3.png,t1.png,2,0.056466,40,Female,2020-10-19_20h54.56.973,torte-q,2020.1.3,Win32,60,13276,1.458225,,,,,,,,,,,,,,,,,,,,,,,,,,,,,,,,,,,,,,,,,,,,
,,,,,,,,,,,,l,Incorrect,0,46,46,109,1,t5.png,t5.png,0,0.97829,40,Female,2020-10-19_20h54.56.973,torte-q,2020.1.3,Win32,60,13276,1.93432,,,,,,,,,,,,,,,,,,,,,,,,,,,,,,,,,,,,,,,,,,,,
,,,,,,,,,,,,l,Correct!,0,47,47,82,1,t5.png,t1.png,4,9.55E-11,40,Female,2020-10-19_20h54.56.973,torte-q,2020.1.3,Win32,60,13276,0.83538,,,,,,,,,,,,,,,,,,,,,,,,,,,,,,,,,,,,,,,,,,,,
,,,,,,,,,,,,l,Correct!,0,48,48,99,1,t1.png,t5.png,4,9.55E-11,40,Female,2020-10-19_20h54.56.973,torte-q,2020.1.3,Win32,60,13276,2.303655,,,,,,,,,,,,,,,,,,,,,,,,,,,,,,,,,,,,,,,,,,,,
,,,,,,,,,,,,a,Incorrect,0,49,49,61,1,t1.png,t4.png,3,0.0000131,40,Female,2020-10-19_20h54.56.973,torte-q,2020.1.3,Win32,60,13276,1.652545,,,,,,,,,,,,,,,,,,,,,,,,,,,,,,,,,,,,,,,,,,,,
,,,,,,,,,,,,a,Incorrect,0,50,50,0,1,t5.png,t1.png,4,9.55E-11,40,Female,2020-10-19_20h54.56.973,torte-q,2020.1.3,Win32,60,13276,2.180805,,,,,,,,,,,,,,,,,,,,,,,,,,,,,,,,,,,,,,,,,,,,
,,,,,,,,,,,,l,Incorrect,0,51,51,81,1,t1.png,t1.png,0,0.97829,40,Female,2020-10-19_20h54.56.973,torte-q,2020.1.3,Win32,60,13276,0.678355,,,,,,,,,,,,,,,,,,,,,,,,,,,,,,,,,,,,,,,,,,,,
,,,,,,,,,,,,l,Correct!,0,52,52,6,1,t1.png,t4.png,3,0.0000131,40,Female,2020-10-19_20h54.56.973,torte-q,2020.1.3,Win32,60,13276,1.58901,,,,,,,,,,,,,,,,,,,,,,,,,,,,,,,,,,,,,,,,,,,,
,,,,,,,,,,,,l,Incorrect,0,53,53,20,1,t2.png,t3.png,1,0.90855,40,Female,2020-10-19_20h54.56.973,torte-q,2020.1.3,Win32,60,13276,1.74936,,,,,,,,,,,,,,,,,,,,,,,,,,,,,,,,,,,,,,,,,,,,
,,,,,,,,,,,,a,Correct!,0,54,54,77,1,t1.png,t1.png,0,0.97829,40,Female,2020-10-19_20h54.56.973,torte-q,2020.1.3,Win32,60,13276,0.703515,,,,,,,,,,,,,,,,,,,,,,,,,,,,,,,,,,,,,,,,,,,,
,,,,,,,,,,,,l,Correct!,0,55,55,51,1,t3.png,t1.png,2,0.056466,40,Female,2020-10-19_20h54.56.973,torte-q,2020.1.3,Win32,60,13276,1.830665,,,,,,,,,,,,,,,,,,,,,,,,,,,,,,,,,,,,,,,,,,,,
,,,,,,,,,,,,a,Correct!,0,56,56,96,1,t1.png,t1.png,0,0.97829,40,Female,2020-10-19_20h54.56.973,torte-q,2020.1.3,Win32,60,13276,1.65337,,,,,,,,,,,,,,,,,,,,,,,,,,,,,,,,,,,,,,,,,,,,
,,,,,,,,,,,,l,Incorrect,0,57,57,44,1,t2.png,t3.png,1,0.909,40,Female,2020-10-19_20h54.56.973,torte-q,2020.1.3,Win32,60,13276,1.007035,,,,,,,,,,,,,,,,,,,,,,,,,,,,,,,,,,,,,,,,,,,,
,,,,,,,,,,,,a,Correct!,0,58,58,28,1,t2.png,t3.png,1,0.909,40,Female,2020-10-19_20h54.56.973,torte-q,2020.1.3,Win32,60,13276,1.284135,,,,,,,,,,,,,,,,,,,,,,,,,,,,,,,,,,,,,,,,,,,,
,,,,,,,,,,,,l,Correct!,0,59,59,68,1,t1.png,t4.png,3,0.0000131,40,Female,2020-10-19_20h54.56.973,torte-q,2020.1.3,Win32,60,13276,0.96197,,,,,,,,,,,,,,,,,,,,,,,,,,,,,,,,,,,,,,,,,,,,
,,,,,,,,,,,,a,Correct!,0,60,60,85,1,t3.png,t2.png,1,0.90855,40,Female,2020-10-19_20h54.56.973,torte-q,2020.1.3,Win32,60,13276,1.08705,,,,,,,,,,,,,,,,,,,,,,,,,,,,,,,,,,,,,,,,,,,,
,,,,,,,,,,,,l,Incorrect,0,61,61,104,1,t2.png,t3.png,1,0.90855,40,Female,2020-10-19_20h54.56.973,torte-q,2020.1.3,Win32,60,13276,1.09108,,,,,,,,,,,,,,,,,,,,,,,,,,,,,,,,,,,,,,,,,,,,
,,,,,,,,,,,,l,Correct!,0,62,62,80,1,t1.png,t4.png,3,0.0000131,40,Female,2020-10-19_20h54.56.973,torte-q,2020.1.3,Win32,60,13276,1.809685,,,,,,,,,,,,,,,,,,,,,,,,,,,,,,,,,,,,,,,,,,,,
,,,,,,,,,,,,a,Incorrect,0,63,63,56,1,t5.png,t1.png,4,9.55E-11,40,Female,2020-10-19_20h54.56.973,torte-q,2020.1.3,Win32,60,13276,1.406975,,,,,,,,,,,,,,,,,,,,,,,,,,,,,,,,,,,,,,,,,,,,
,,,,,,,,,,,,a,Correct!,0,64,64,64,1,t1.png,t1.png,0,0.978,40,Female,2020-10-19_20h54.56.973,torte-q,2020.1.3,Win32,60,13276,1.0927,,,,,,,,,,,,,,,,,,,,,,,,,,,,,,,,,,,,,,,,,,,,
,,,,,,,,,,,,a,Incorrect,0,65,65,95,1,t1.png,t1.png,0,0.978,40,Female,2020-10-19_20h54.56.973,torte-q,2020.1.3,Win32,60,13276,0.970035,,,,,,,,,,,,,,,,,,,,,,,,,,,,,,,,,,,,,,,,,,,,
,,,,,,,,,,,,l,Correct!,0,66,66,57,1,t2.png,t4.png,2,0.059078,40,Female,2020-10-19_20h54.56.973,torte-q,2020.1.3,Win32,60,13276,0.70805,,,,,,,,,,,,,,,,,,,,,,,,,,,,,,,,,,,,,,,,,,,,
,,,,,,,,,,,,l,Correct!,0,67,67,24,1,t4.png,t2.png,2,0.059078,40,Female,2020-10-19_20h54.56.973,torte-q,2020.1.3,Win32,60,13276,1.236865,,,,,,,,,,,,,,,,,,,,,,,,,,,,,,,,,,,,,,,,,,,,
,,,,,,,,,,,,a,Correct!,0,68,68,65,1,t4.png,t5.png,1,0.90025,40,Female,2020-10-19_20h54.56.973,torte-q,2020.1.3,Win32,60,13276,1.543125,,,,,,,,,,,,,,,,,,,,,,,,,,,,,,,,,,,,,,,,,,,,
,,,,,,,,,,,,l,Incorrect,0,69,69,9,1,t4.png,t5.png,1,0.9,40,Female,2020-10-19_20h54.56.973,torte-q,2020.1.3,Win32,60,13276,2.128655,,,,,,,,,,,,,,,,,,,,,,,,,,,,,,,,,,,,,,,,,,,,
,,,,,,,,,,,,l,Correct!,0,70,70,47,1,t4.png,t2.png,2,0.059078,40,Female,2020-10-19_20h54.56.973,torte-q,2020.1.3,Win32,60,13276,1.18476,,,,,,,,,,,,,,,,,,,,,,,,,,,,,,,,,,,,,,,,,,,,
,,,,,,,,,,,,a,Incorrect,0,71,71,53,1,t3.png,t1.png,2,0.056466,40,Female,2020-10-19_20h54.56.973,torte-q,2020.1.3,Win32,60,13276,1.14237,,,,,,,,,,,,,,,,,,,,,,,,,,,,,,,,,,,,,,,,,,,,
,,,,,,,,,,,,l,Correct!,0,72,72,2,1,t3.png,t2.png,1,0.90855,40,Female,2020-10-19_20h54.56.973,torte-q,2020.1.3,Win32,60,13276,0.90203,,,,,,,,,,,,,,,,,,,,,,,,,,,,,,,,,,,,,,,,,,,,
,,,,,,,,,,,,a,Correct!,0,73,73,34,1,t5.png,t4.png,1,0.9,40,Female,2020-10-19_20h54.56.973,torte-q,2020.1.3,Win32,60,13276,1.097845,,,,,,,,,,,,,,,,,,,,,,,,,,,,,,,,,,,,,,,,,,,,
,,,,,,,,,,,,l,Correct!,0,74,74,31,1,t1.png,t5.png,4,9.55E-11,40,Female,2020-10-19_20h54.56.973,torte-q,2020.1.3,Win32,60,13276,1.635065,,,,,,,,,,,,,,,,,,,,,,,,,,,,,,,,,,,,,,,,,,,,
,,,,,,,,,,,,a,Correct!,0,75,75,7,1,t4.png,t5.png,1,0.90025,40,Female,2020-10-19_20h54.56.973,torte-q,2020.1.3,Win32,60,13276,1.015005,,,,,,,,,,,,,,,,,,,,,,,,,,,,,,,,,,,,,,,,,,,,
,,,,,,,,,,,,l,Correct!,0,76,76,113,1,t5.png,t4.png,1,0.9,40,Female,2020-10-19_20h54.56.973,torte-q,2020.1.3,Win32,60,13276,1.520225,,,,,,,,,,,,,,,,,,,,,,,,,,,,,,,,,,,,,,,,,,,,
,,,,,,,,,,,,a,Correct!,0,77,77,62,1,t5.png,t5.png,0,0.978,40,Female,2020-10-19_20h54.56.973,torte-q,2020.1.3,Win32,60,13276,1.01994,,,,,,,,,,,,,,,,,,,,,,,,,,,,,,,,,,,,,,,,,,,,
,,,,,,,,,,,,l,Correct!,0,78,78,54,1,t1.png,t5.png,4,9.55E-11,40,Female,2020-10-19_20h54.56.973,torte-q,2020.1.3,Win32,60,13276,1.320185,,,,,,,,,,,,,,,,,,,,,,,,,,,,,,,,,,,,,,,,,,,,
,,,,,,,,,,,,a,Incorrect,0,79,79,17,1,t1.png,t4.png,3,0.0000131,40,Female,2020-10-19_20h54.56.973,torte-q,2020.1.3,Win32,60,13276,1.08418,,,,,,,,,,,,,,,,,,,,,,,,,,,,,,,,,,,,,,,,,,,,
,,,,,,,,,,,,a,Incorrect,0,80,80,89,1,t1.png,t4.png,3,0.0000131,40,Female,2020-10-19_20h54.56.973,torte-q,2020.1.3,Win32,60,13276,1.23769,,,,,,,,,,,,,,,,,,,,,,,,,,,,,,,,,,,,,,,,,,,,
,,,,,,,,,,,,l,Incorrect,0,81,81,79,1,t3.png,t2.png,1,0.909,40,Female,2020-10-19_20h54.56.973,torte-q,2020.1.3,Win32,60,13276,1.675655,,,,,,,,,,,,,,,,,,,,,,,,,,,,,,,,,,,,,,,,,,,,
,,,,,,,,,,,,l,Incorrect,0,82,82,39,1,t3.png,t2.png,1,0.90855,40,Female,2020-10-19_20h54.56.973,torte-q,2020.1.3,Win32,60,13276,1.14232,,,,,,,,,,,,,,,,,,,,,,,,,,,,,,,,,,,,,,,,,,,,
,,,,,,,,,,,,l,Correct!,0,83,83,67,1,t1.png,t5.png,4,9.55E-11,40,Female,2020-10-19_20h54.56.973,torte-q,2020.1.3,Win32,60,13276,1.57368,,,,,,,,,,,,,,,,,,,,,,,,,,,,,,,,,,,,,,,,,,,,
,,,,,,,,,,,,a,Incorrect,0,84,84,11,1,t1.png,t4.png,3,0.0000131,40,Female,2020-10-19_20h54.56.973,torte-q,2020.1.3,Win32,60,13276,1.739855,,,,,,,,,,,,,,,,,,,,,,,,,,,,,,,,,,,,,,,,,,,,
,,,,,,,,,,,,l,Correct!,0,85,85,12,1,t5.png,t1.png,4,9.55E-11,40,Female,2020-10-19_20h54.56.973,torte-q,2020.1.3,Win32,60,13276,1.49252,,,,,,,,,,,,,,,,,,,,,,,,,,,,,,,,,,,,,,,,,,,,
,,,,,,,,,,,,a,Correct!,0,86,86,70,1,t5.png,t5.png,0,0.978,40,Female,2020-10-19_20h54.56.973,torte-q,2020.1.3,Win32,60,13276,1.286065,,,,,,,,,,,,,,,,,,,,,,,,,,,,,,,,,,,,,,,,,,,,
,,,,,,,,,,,,l,Incorrect,0,87,87,105,1,t3.png,t2.png,1,0.90855,40,Female,2020-10-19_20h54.56.973,torte-q,2020.1.3,Win32,60,13276,1.47011,,,,,,,,,,,,,,,,,,,,,,,,,,,,,,,,,,,,,,,,,,,,
,,,,,,,,,,,,l,Correct!,0,88,88,90,1,t1.png,t5.png,4,9.55E-11,40,Female,2020-10-19_20h54.56.973,torte-q,2020.1.3,Win32,60,13276,1.35248,,,,,,,,,,,,,,,,,,,,,,,,,,,,,,,,,,,,,,,,,,,,
,,,,,,,,,,,,a,Incorrect,0,89,89,52,1,t2.png,t4.png,2,0.059078,40,Female,2020-10-19_20h54.56.973,torte-q,2020.1.3,Win32,60,13276,1.39585,,,,,,,,,,,,,,,,,,,,,,,,,,,,,,,,,,,,,,,,,,,,
,,,,,,,,,,,,a,Correct!,0,90,90,22,1,t2.png,t3.png,1,0.90855,40,Female,2020-10-19_20h54.56.973,torte-q,2020.1.3,Win32,60,13276,2.019915,,,,,,,,,,,,,,,,,,,,,,,,,,,,,,,,,,,,,,,,,,,,
,,,,,,,,,,,,l,Correct!,0,91,91,14,1,t2.png,t4.png,2,0.059078,40,Female,2020-10-19_20h54.56.973,torte-q,2020.1.3,Win32,60,13276,1.179265,,,,,,,,,,,,,,,,,,,,,,,,,,,,,,,,,,,,,,,,,,,,
,,,,,,,,,,,,l,Incorrect,0,92,92,45,1,t3.png,t2.png,1,0.90855,40,Female,2020-10-19_20h54.56.973,torte-q,2020.1.3,Win32,60,13276,1.82285,,,,,,,,,,,,,,,,,,,,,,,,,,,,,,,,,,,,,,,,,,,,
,,,,,,,,,,,,a,Correct!,0,93,93,107,1,t1.png,t1.png,0,0.978,40,Female,2020-10-19_20h54.56.973,torte-q,2020.1.3,Win32,60,13276,1.355335,,,,,,,,,,,,,,,,,,,,,,,,,,,,,,,,,,,,,,,,,,,,
,,,,,,,,,,,,l,Correct!,0,94,94,103,1,t3.png,t1.png,2,0.056466,40,Female,2020-10-19_20h54.56.973,torte-q,2020.1.3,Win32,60,13276,1.302065,,,,,,,,,,,,,,,,,,,,,,,,,,,,,,,,,,,,,,,,,,,,
,,,,,,,,,,,,a,Correct!,0,95,95,118,1,t5.png,t5.png,0,0.978,40,Female,2020-10-19_20h54.56.973,torte-q,2020.1.3,Win32,60,13276,0.91909,,,,,,,,,,,,,,,,,,,,,,,,,,,,,,,,,,,,,,,,,,,,
,,,,,,,,,,,,a,Correct!,0,96,96,71,1,t5.png,t5.png,0,0.97829,40,Female,2020-10-19_20h54.56.973,torte-q,2020.1.3,Win32,60,13276,1.871125,,,,,,,,,,,,,,,,,,,,,,,,,,,,,,,,,,,,,,,,,,,,
,,,,,,,,,,,,l,Correct!,0,97,97,98,1,t2.png,t4.png,2,0.0591,40,Female,2020-10-19_20h54.56.973,torte-q,2020.1.3,Win32,60,13276,0.98595,,,,,,,,,,,,,,,,,,,,,,,,,,,,,,,,,,,,,,,,,,,,
,,,,,,,,,,,,l,Correct!,0,98,98,27,1,t3.png,t1.png,2,0.0565,40,Female,2020-10-19_20h54.56.973,torte-q,2020.1.3,Win32,60,13276,2.15232,,,,,,,,,,,,,,,,,,,,,,,,,,,,,,,,,,,,,,,,,,,,
,,,,,,,,,,,,a,Incorrect,0,99,99,91,1,t1.png,t4.png,3,0.0000131,40,Female,2020-10-19_20h54.56.973,torte-q,2020.1.3,Win32,60,13276,1.3062,,,,,,,,,,,,,,,,,,,,,,,,,,,,,,,,,,,,,,,,,,,,
,,,,,,,,,,,,l,Correct!,0,100,100,40,1,t1.png,t5.png,4,9.55E-11,40,Female,2020-10-19_20h54.56.973,torte-q,2020.1.3,Win32,60,13276,1.352175,,,,,,,,,,,,,,,,,,,,,,,,,,,,,,,,,,,,,,,,,,,,
,,,,,,,,,,,,a,Incorrect,0,101,101,5,1,t2.png,t4.png,2,0.059078,40,Female,2020-10-19_20h54.56.973,torte-q,2020.1.3,Win32,60,13276,1.07177,,,,,,,,,,,,,,,,,,,,,,,,,,,,,,,,,,,,,,,,,,,,
,,,,,,,,,,,,l,Incorrect,0,102,102,110,1,t4.png,t5.png,1,0.90025,40,Female,2020-10-19_20h54.56.973,torte-q,2020.1.3,Win32,60,13276,1.06024,,,,,,,,,,,,,,,,,,,,,,,,,,,,,,,,,,,,,,,,,,,,
,,,,,,,,,,,,l,Correct!,0,103,103,119,1,t1.png,t5.png,4,9.55E-11,40,Female,2020-10-19_20h54.56.973,torte-q,2020.1.3,Win32,60,13276,1.084995,,,,,,,,,,,,,,,,,,,,,,,,,,,,,,,,,,,,,,,,,,,,
,,,,,,,,,,,,a,Incorrect,0,104,104,86,1,t3.png,t1.png,2,0.056466,40,Female,2020-10-19_20h54.56.973,torte-q,2020.1.3,Win32,60,13276,0.889045,,,,,,,,,,,,,,,,,,,,,,,,,,,,,,,,,,,,,,,,,,,,
,,,,,,,,,,,,l,Correct!,0,105,105,33,1,t5.png,t1.png,4,9.55E-11,40,Female,2020-10-19_20h54.56.973,torte-q,2020.1.3,Win32,60,13276,1.29082,,,,,,,,,,,,,,,,,,,,,,,,,,,,,,,,,,,,,,,,,,,,
,,,,,,,,,,,,a,Correct!,0,106,106,112,1,t1.png,t1.png,0,0.97829,40,Female,2020-10-19_20h54.56.973,torte-q,2020.1.3,Win32,60,13276,1.24533,,,,,,,,,,,,,,,,,,,,,,,,,,,,,,,,,,,,,,,,,,,,
,,,,,,,,,,,,l,Correct!,0,107,107,83,1,t3.png,t1.png,2,0.056466,40,Female,2020-10-19_20h54.56.973,torte-q,2020.1.3,Win32,60,13276,0.85472,,,,,,,,,,,,,,,,,,,,,,,,,,,,,,,,,,,,,,,,,,,,
,,,,,,,,,,,,a,Correct!,0,108,108,101,1,t4.png,t5.png,1,0.90025,40,Female,2020-10-19_20h54.56.973,torte-q,2020.1.3,Win32,60,13276,0.85393,,,,,,,,,,,,,,,,,,,,,,,,,,,,,,,,,,,,,,,,,,,,
,,,,,,,,,,,,l,Incorrect,0,109,109,41,1,t3.png,t2.png,1,0.90855,40,Female,2020-10-19_20h54.56.973,torte-q,2020.1.3,Win32,60,13276,1.07021,,,,,,,,,,,,,,,,,,,,,,,,,,,,,,,,,,,,,,,,,,,,
,,,,,,,,,,,,a,Incorrect,0,110,110,35,1,t1.png,t4.png,3,0.0000131,40,Female,2020-10-19_20h54.56.973,torte-q,2020.1.3,Win32,60,13276,0.792285,,,,,,,,,,,,,,,,,,,,,,,,,,,,,,,,,,,,,,,,,,,,
,,,,,,,,,,,,l,Correct!,0,111,111,46,1,t4.png,t2.png,2,0.059078,40,Female,2020-10-19_20h54.56.973,torte-q,2020.1.3,Win32,60,13276,1.41867,,,,,,,,,,,,,,,,,,,,,,,,,,,,,,,,,,,,,,,,,,,,
,,,,,,,,,,,,a,Incorrect,0,112,112,94,1,t5.png,t1.png,4,9.55E-11,40,Female,2020-10-19_20h54.56.973,torte-q,2020.1.3,Win32,60,13276,1.486165,,,,,,,,,,,,,,,,,,,,,,,,,,,,,,,,,,,,,,,,,,,,
,,,,,,,,,,,,a,Correct!,0,113,113,21,1,t5.png,t4.png,1,0.90025,40,Female,2020-10-19_20h54.56.973,torte-q,2020.1.3,Win32,60,13276,0.90906,,,,,,,,,,,,,,,,,,,,,,,,,,,,,,,,,,,,,,,,,,,,
,,,,,,,,,,,,l,Correct!,0,114,114,93,1,t2.png,t4.png,2,0.059078,40,Female,2020-10-19_20h54.56.973,torte-q,2020.1.3,Win32,60,13276,0.952205,,,,,,,,,,,,,,,,,,,,,,,,,,,,,,,,,,,,,,,,,,,,
,,,,,,,,,,,,a,Incorrect,0,115,115,117,1,t1.png,t5.png,4,9.55E-11,40,Female,2020-10-19_20h54.56.973,torte-q,2020.1.3,Win32,60,13276,1.483105,,,,,,,,,,,,,,,,,,,,,,,,,,,,,,,,,,,,,,,,,,,,
,,,,,,,,,,,,l,Correct!,0,116,116,69,1,t4.png,t2.png,2,0.059078,40,Female,2020-10-19_20h54.56.973,torte-q,2020.1.3,Win32,60,13276,0.728435,,,,,,,,,,,,,,,,,,,,,,,,,,,,,,,,,,,,,,,,,,,,
,,,,,,,,,,,,l,Correct!,0,117,117,55,1,t2.png,t4.png,2,0.059078,40,Female,2020-10-19_20h54.56.973,torte-q,2020.1.3,Win32,60,13276,1.60726,,,,,,,,,,,,,,,,,,,,,,,,,,,,,,,,,,,,,,,,,,,,
,,,,,,,,,,,,a,Correct!,0,118,118,15,1,t3.png,t2.png,1,0.90855,40,Female,2020-10-19_20h54.56.973,torte-q,2020.1.3,Win32,60,13276,1.059945,,,,,,,,,,,,,,,,,,,,,,,,,,,,,,,,,,,,,,,,,,,,
,,,,,,,,,,,,a,Incorrect,0,119,119,72,1,t4.png,t2.png,2,0.059078,40,Female,2020-10-19_20h54.56.973,torte-q,2020.1.3,Win32,60,13276,1.222375,,,,,,,,,,,,,,,,,,,,,,,,,,,,,,,,,,,,,,,,,,,,
,,,,,,,,,,,,a,Correct!,,,,,,t4.png,t4.png,0,0.98115,40,Female,2020-10-19_20h54.56.973,torte-q,2020.1.3,Win32,60,13276,1.102555,space,2.25973,space,14.36192,0,0,0,90,1,,,,,,,,,,,,,,,,,,,,,,,,,,,,,,,,,,,
,,,,,,,,,,,,l,Correct!,,,,,,t1.png,t4.png,3,0.0000131,40,Female,2020-10-19_20h54.56.973,torte-q,2020.1.3,Win32,60,13276,1.38797,,,,,0,1,1,17,1,,,,,,,,,,,,,,,,,,,,,,,,,,,,,,,,,,,
,,,,,,,,,,,,a,Correct!,,,,,,t5.png,t5.png,0,0.97829,40,Female,2020-10-19_20h54.56.973,torte-q,2020.1.3,Win32,60,13276,1.33405,,,,,0,2,2,70,1,,,,,,,,,,,,,,,,,,,,,,,,,,,,,,,,,,,
,,,,,,,,,,,,a,Correct!,,,,,,t5.png,t5.png,0,0.97829,40,Female,2020-10-19_20h54.56.973,torte-q,2020.1.3,Win32,60,13276,0.89932,,,,,0,3,3,94,1,,,,,,,,,,,,,,,,,,,,,,,,,,,,,,,,,,,
,,,,,,,,,,,,l,Correct!,,,,,,t5.png,t2.png,3,0.0000131,40,Female,2020-10-19_20h54.56.973,torte-q,2020.1.3,Win32,60,13276,1.627525,,,,,0,4,4,116,1,,,,,,,,,,,,,,,,,,,,,,,,,,,,,,,,,,,
,,,,,,,,,,,,l,Correct!,,,,,,t1.png,t4.png,3,0.0000131,40,Female,2020-10-19_20h54.56.973,torte-q,2020.1.3,Win32,60,13276,1.540805,,,,,0,5,5,81,1,,,,,,,,,,,,,,,,,,,,,,,,,,,,,,,,,,,
,,,,,,,,,,,,a,Correct!,,,,,,t2.png,t1.png,1,0.90025,40,Female,2020-10-19_20h54.56.973,torte-q,2020.1.3,Win32,60,13276,1.802945,,,,,0,6,6,19,1,,,,,,,,,,,,,,,,,,,,,,,,,,,,,,,,,,,
,,,,,,,,,,,,l,Correct!,,,,,,t1.png,t3.png,2,0.056466,40,Female,2020-10-19_20h54.56.973,torte-q,2020.1.3,Win32,60,13276,1.819545,,,,,0,7,7,60,1,,,,,,,,,,,,,,,,,,,,,,,,,,,,,,,,,,,
,,,,,,,,,,,,,Too slow :(,,,,,,t4.png,t5.png,1,0.9,40,Female,2020-10-19_20h54.56.973,torte-q,2020.1.3,Win32,60,13276,,,,,,0,8,8,115,1,,,,,,,,,,,,,,,,,,,,,,,,,,,,,,,,,,,
,,,,,,,,,,,,a,Incorrect,,,,,,t5.png,t2.png,3,0.0000131,40,Female,2020-10-19_20h54.56.973,torte-q,2020.1.3,Win32,60,13276,0.986125,,,,,0,9,9,91,1,,,,,,,,,,,,,,,,,,,,,,,,,,,,,,,,,,,
,,,,,,,,,,,,a,Incorrect,,,,,,t5.png,t3.png,2,0.0565,40,Female,2020-10-19_20h54.56.973,torte-q,2020.1.3,Win32,60,13276,1.253345,,,,,0,10,10,39,1,,,,,,,,,,,,,,,,,,,,,,,,,,,,,,,,,,,
,,,,,,,,,,,,l,Correct!,,,,,,t2.png,t5.png,3,0.0000131,40,Female,2020-10-19_20h54.56.973,torte-q,2020.1.3,Win32,60,13276,0.892685,,,,,0,11,11,40,1,,,,,,,,,,,,,,,,,,,,,,,,,,,,,,,,,,,
,,,,,,,,,,,,l,Correct!,,,,,,t3.png,t5.png,2,0.0565,40,Female,2020-10-19_20h54.56.973,torte-q,2020.1.3,Win32,60,13276,1.087505,,,,,0,12,12,83,1,,,,,,,,,,,,,,,,,,,,,,,,,,,,,,,,,,,
,,,,,,,,,,,,a,Correct!,,,,,,t5.png,t4.png,1,0.9,40,Female,2020-10-19_20h54.56.973,torte-q,2020.1.3,Win32,60,13276,1.27263,,,,,0,13,13,49,1,,,,,,,,,,,,,,,,,,,,,,,,,,,,,,,,,,,
,,,,,,,,,,,,a,Correct!,,,,,,t5.png,t4.png,1,0.9,40,Female,2020-10-19_20h54.56.973,torte-q,2020.1.3,Win32,60,13276,1.151965,,,,,0,14,14,76,1,,,,,,,,,,,,,,,,,,,,,,,,,,,,,,,,,,,
,,,,,,,,,,,,l,Incorrect,,,,,,t1.png,t3.png,2,0.056466,40,Female,2020-10-19_20h54.56.973,torte-q,2020.1.3,Win32,60,13276,1.516915,,,,,0,15,15,63,1,,,,,,,,,,,,,,,,,,,,,,,,,,,,,,,,,,,
,,,,,,,,,,,,a,Correct!,,,,,,t4.png,t4.png,0,0.98115,40,Female,2020-10-19_20h54.56.973,torte-q,2020.1.3,Win32,60,13276,0.803155,,,,,0,16,16,79,1,,,,,,,,,,,,,,,,,,,,,,,,,,,,,,,,,,,
,,,,,,,,,,,,l,Correct!,,,,,,t4.png,t1.png,3,0.0000131,40,Female,2020-10-19_20h54.56.973,torte-q,2020.1.3,Win32,60,13276,1.159185,,,,,0,17,17,93,1,,,,,,,,,,,,,,,,,,,,,,,,,,,,,,,,,,,
,,,,,,,,,,,,a,Incorrect,,,,,,t1.png,t3.png,2,0.056466,40,Female,2020-10-19_20h54.56.973,torte-q,2020.1.3,Win32,60,13276,1.45086,,,,,0,18,18,99,1,,,,,,,,,,,,,,,,,,,,,,,,,,,,,,,,,,,
,,,,,,,,,,,,a,Correct!,,,,,,t5.png,t3.png,2,0.056466,40,Female,2020-10-19_20h54.56.973,torte-q,2020.1.3,Win32,60,13276,1.011855,,,,,0,19,19,56,1,,,,,,,,,,,,,,,,,,,,,,,,,,,,,,,,,,,
,,,,,,,,,,,,a,Correct!,,,,,,t3.png,t4.png,1,0.909,40,Female,2020-10-19_20h54.56.973,torte-q,2020.1.3,Win32,60,13276,1.19351,,,,,0,20,20,82,1,,,,,,,,,,,,,,,,,,,,,,,,,,,,,,,,,,,
,,,,,,,,,,,,l,Incorrect,,,,,,t2.png,t2.png,0,0.98115,40,Female,2020-10-19_20h54.56.973,torte-q,2020.1.3,Win32,60,13276,0.77365,,,,,0,21,21,2,1,,,,,,,,,,,,,,,,,,,,,,,,,,,,,,,,,,,
,,,,,,,,,,,,a,Incorrect,,,,,,t5.png,t2.png,3,0.0000131,40,Female,2020-10-19_20h54.56.973,torte-q,2020.1.3,Win32,60,13276,1.636135,,,,,0,22,22,51,1,,,,,,,,,,,,,,,,,,,,,,,,,,,,,,,,,,,
,,,,,,,,,,,,l,Correct!,,,,,,t4.png,t5.png,1,0.90025,40,Female,2020-10-19_20h54.56.973,torte-q,2020.1.3,Win32,60,13276,1.256805,,,,,0,23,23,113,1,,,,,,,,,,,,,,,,,,,,,,,,,,,,,,,,,,,
,,,,,,,,,,,,l,Correct!,,,,,,t4.png,t3.png,1,0.90855,40,Female,2020-10-19_20h54.56.973,torte-q,2020.1.3,Win32,60,13276,1.054145,,,,,0,24,24,35,1,,,,,,,,,,,,,,,,,,,,,,,,,,,,,,,,,,,
,,,,,,,,,,,,l,Correct!,,,,,,t4.png,t2.png,2,0.059078,40,Female,2020-10-19_20h54.56.973,torte-q,2020.1.3,Win32,60,13276,1.35117,,,,,0,25,25,109,1,,,,,,,,,,,,,,,,,,,,,,,,,,,,,,,,,,,
,,,,,,,,,,,,a,Incorrect,,,,,,t1.png,t5.png,4,9.55E-11,40,Female,2020-10-19_20h54.56.973,torte-q,2020.1.3,Win32,60,13276,0.972065,,,,,0,26,26,85,1,,,,,,,,,,,,,,,,,,,,,,,,,,,,,,,,,,,
,,,,,,,,,,,,l,Incorrect,,,,,,t2.png,t2.png,0,0.98115,40,Female,2020-10-19_20h54.56.973,torte-q,2020.1.3,Win32,60,13276,1.16024,,,,,0,27,27,59,1,,,,,,,,,,,,,,,,,,,,,,,,,,,,,,,,,,,
,,,,,,,,,,,,a,Incorrect,,,,,,t2.png,t4.png,2,0.059078,40,Female,2020-10-19_20h54.56.973,torte-q,2020.1.3,Win32,60,13276,1.225235,,,,,0,28,28,77,1,,,,,,,,,,,,,,,,,,,,,,,,,,,,,,,,,,,
,,,,,,,,,,,,l,Incorrect,,,,,,t4.png,t3.png,1,0.90855,40,Female,2020-10-19_20h54.56.973,torte-q,2020.1.3,Win32,60,13276,1.88876,,,,,0,29,29,45,1,,,,,,,,,,,,,,,,,,,,,,,,,,,,,,,,,,,
,,,,,,,,,,,,l,Incorrect,,,,,,t4.png,t3.png,1,0.90855,40,Female,2020-10-19_20h54.56.973,torte-q,2020.1.3,Win32,60,13276,1.20898,,,,,0,30,30,75,1,,,,,,,,,,,,,,,,,,,,,,,,,,,,,,,,,,,
,,,,,,,,,,,,l,Correct!,,,,,,t5.png,t1.png,4,9.55E-11,40,Female,2020-10-19_20h54.56.973,torte-q,2020.1.3,Win32,60,13276,1.35511,,,,,0,31,31,43,1,,,,,,,,,,,,,,,,,,,,,,,,,,,,,,,,,,,
,,,,,,,,,,,,a,Incorrect,,,,,,t3.png,t5.png,2,0.056466,40,Female,2020-10-19_20h54.56.973,torte-q,2020.1.3,Win32,60,13276,1.33421,,,,,0,32,32,14,1,,,,,,,,,,,,,,,,,,,,,,,,,,,,,,,,,,,
,,,,,,,,,,,,l,Correct!,,,,,,t2.png,t5.png,3,0.0000131,40,Female,2020-10-19_20h54.56.973,torte-q,2020.1.3,Win32,60,13276,1.4686,,,,,0,33,33,104,1,,,,,,,,,,,,,,,,,,,,,,,,,,,,,,,,,,,
,,,,,,,,,,,,a,Correct!,,,,,,t1.png,t1.png,0,0.978,40,Female,2020-10-19_20h54.56.973,torte-q,2020.1.3,Win32,60,13276,1.25454,,,,,0,34,34,28,1,,,,,,,,,,,,,,,,,,,,,,,,,,,,,,,,,,,
,,,,,,,,,,,,l,Correct!,,,,,,t1.png,t4.png,3,0.0000131,40,Female,2020-10-19_20h54.56.973,torte-q,2020.1.3,Win32,60,13276,2.175,,,,,0,35,35,107,1,,,,,,,,,,,,,,,,,,,,,,,,,,,,,,,,,,,
,,,,,,,,,,,,l,Correct!,,,,,,t1.png,t5.png,4,9.55E-11,40,Female,2020-10-19_20h54.56.973,torte-q,2020.1.3,Win32,60,13276,0.71908,,,,,0,36,36,41,1,,,,,,,,,,,,,,,,,,,,,,,,,,,,,,,,,,,
,,,,,,,,,,,,a,Correct!,,,,,,t2.png,t3.png,1,0.90855,40,Female,2020-10-19_20h54.56.973,torte-q,2020.1.3,Win32,60,13276,0.804395,,,,,0,37,37,10,1,,,,,,,,,,,,,,,,,,,,,,,,,,,,,,,,,,,
,,,,,,,,,,,,a,Correct!,,,,,,t2.png,t3.png,1,0.90855,40,Female,2020-10-19_20h54.56.973,torte-q,2020.1.3,Win32,60,13276,0.80459,,,,,0,38,38,65,1,,,,,,,,,,,,,,,,,,,,,,,,,,,,,,,,,,,
,,,,,,,,,,,,l,Incorrect,,,,,,t3.png,t2.png,1,0.90855,40,Female,2020-10-19_20h54.56.973,torte-q,2020.1.3,Win32,60,13276,1.18546,,,,,0,39,39,53,1,,,,,,,,,,,,,,,,,,,,,,,,,,,,,,,,,,,
,,,,,,,,,,,,l,Correct!,,,,,,t4.png,t2.png,2,0.059078,40,Female,2020-10-19_20h54.56.973,torte-q,2020.1.3,Win32,60,13276,2.385025,,,,,0,40,40,110,1,,,,,,,,,,,,,,,,,,,,,,,,,,,,,,,,,,,
,,,,,,,,,,,,l,Incorrect,,,,,,t1.png,t2.png,1,0.90025,40,Female,2020-10-19_20h54.56.973,torte-q,2020.1.3,Win32,60,13276,2.02014,,,,,0,41,41,105,1,,,,,,,,,,,,,,,,,,,,,,,,,,,,,,,,,,,
,,,,,,,,,,,,l,Incorrect,,,,,,t1.png,t2.png,1,0.90025,40,Female,2020-10-19_20h54.56.973,torte-q,2020.1.3,Win32,60,13276,1.018055,,,,,0,42,42,112,1,,,,,,,,,,,,,,,,,,,,,,,,,,,,,,,,,,,
,,,,,,,,,,,,,Too slow :(,,,,,,t3.png,t1.png,2,0.056466,40,Female,2020-10-19_20h54.56.973,torte-q,2020.1.3,Win32,60,13276,,,,,,0,43,43,0,1,,,,,,,,,,,,,,,,,,,,,,,,,,,,,,,,,,,
,,,,,,,,,,,,l,Correct!,,,,,,t2.png,t5.png,3,0.0000131,40,Female,2020-10-19_20h54.56.973,torte-q,2020.1.3,Win32,60,13276,1.83472,,,,,0,44,44,8,1,,,,,,,,,,,,,,,,,,,,,,,,,,,,,,,,,,,
,,,,,,,,,,,,,Too slow :(,,,,,,t3.png,t2.png,1,0.909,40,Female,2020-10-19_20h54.56.973,torte-q,2020.1.3,Win32,60,13276,,,,,,0,45,45,23,1,,,,,,,,,,,,,,,,,,,,,,,,,,,,,,,,,,,
,,,,,,,,,,,,a,Incorrect,,,,,,t2.png,t4.png,2,0.0591,40,Female,2020-10-19_20h54.56.973,torte-q,2020.1.3,Win32,60,13276,1.84456,,,,,0,46,46,15,1,,,,,,,,,,,,,,,,,,,,,,,,,,,,,,,,,,,
,,,,,,,,,,,,l,Incorrect,,,,,,t2.png,t3.png,1,0.90855,40,Female,2020-10-19_20h54.56.973,torte-q,2020.1.3,Win32,60,13276,1.15182,,,,,0,47,47,111,1,,,,,,,,,,,,,,,,,,,,,,,,,,,,,,,,,,,
,,,,,,,,,,,,a,Incorrect,,,,,,t2.png,t4.png,2,0.059078,40,Female,2020-10-19_20h54.56.973,torte-q,2020.1.3,Win32,60,13276,2.421655,,,,,0,48,48,11,1,,,,,,,,,,,,,,,,,,,,,,,,,,,,,,,,,,,
,,,,,,,,,,,,l,Correct!,,,,,,t3.png,t1.png,2,0.0565,40,Female,2020-10-19_20h54.56.973,torte-q,2020.1.3,Win32,60,13276,1.703435,,,,,0,49,49,31,1,,,,,,,,,,,,,,,,,,,,,,,,,,,,,,,,,,,
,,,,,,,,,,,,l,Incorrect,,,,,,t1.png,t2.png,1,0.90025,40,Female,2020-10-19_20h54.56.973,torte-q,2020.1.3,Win32,60,13276,1.69447,,,,,0,50,50,33,1,,,,,,,,,,,,,,,,,,,,,,,,,,,,,,,,,,,
,,,,,,,,,,,,l,Incorrect,,,,,,t2.png,t1.png,1,0.90025,40,Female,2020-10-19_20h54.56.973,torte-q,2020.1.3,Win32,60,13276,1.36807,,,,,0,51,51,4,1,,,,,,,,,,,,,,,,,,,,,,,,,,,,,,,,,,,
,,,,,,,,,,,,a,Correct!,,,,,,t5.png,t5.png,0,0.978,40,Female,2020-10-19_20h54.56.973,torte-q,2020.1.3,Win32,60,13276,1.31438,,,,,0,52,52,117,1,,,,,,,,,,,,,,,,,,,,,,,,,,,,,,,,,,,
,,,,,,,,,,,,l,Incorrect,,,,,,t1.png,t1.png,0,0.97829,40,Female,2020-10-19_20h54.56.973,torte-q,2020.1.3,Win32,60,13276,1.490325,,,,,0,53,53,9,1,,,,,,,,,,,,,,,,,,,,,,,,,,,,,,,,,,,
,,,,,,,,,,,,a,Correct!,,,,,,t5.png,t4.png,1,0.90025,40,Female,2020-10-19_20h54.56.973,torte-q,2020.1.3,Win32,60,13276,1.73674,,,,,0,54,54,26,1,,,,,,,,,,,,,,,,,,,,,,,,,,,,,,,,,,,
,,,,,,,,,,,,a,Correct!,,,,,,t1.png,t1.png,0,0.97829,40,Female,2020-10-19_20h54.56.973,torte-q,2020.1.3,Win32,60,13276,1.42724,,,,,0,55,55,78,1,,,,,,,,,,,,,,,,,,,,,,,,,,,,,,,,,,,
,,,,,,,,,,,,l,Incorrect,,,,,,t2.png,t1.png,1,0.9,40,Female,2020-10-19_20h54.56.973,torte-q,2020.1.3,Win32,60,13276,2.0137,,,,,0,56,56,118,1,,,,,,,,,,,,,,,,,,,,,,,,,,,,,,,,,,,
,,,,,,,,,,,,a,Correct!,,,,,,t1.png,t1.png,0,0.97829,40,Female,2020-10-19_20h54.56.973,torte-q,2020.1.3,Win32,60,13276,1.383575,,,,,0,57,57,67,1,,,,,,,,,,,,,,,,,,,,,,,,,,,,,,,,,,,
,,,,,,,,,,,,l,Correct!,,,,,,t4.png,t2.png,2,0.059078,40,Female,2020-10-19_20h54.56.973,torte-q,2020.1.3,Win32,60,13276,1.77026,,,,,0,58,58,86,1,,,,,,,,,,,,,,,,,,,,,,,,,,,,,,,,,,,
,,,,,,,,,,,,l,Correct!,,,,,,t4.png,t2.png,2,0.059078,40,Female,2020-10-19_20h54.56.973,torte-q,2020.1.3,Win32,60,13276,1.200605,,,,,0,59,59,88,1,,,,,,,,,,,,,,,,,,,,,,,,,,,,,,,,,,,
,,,,,,,,,,,,a,Incorrect,,,,,,t2.png,t5.png,3,0.0000131,40,Female,2020-10-19_20h54.56.973,torte-q,2020.1.3,Win32,60,13276,2.30053,,,,,0,60,60,95,1,,,,,,,,,,,,,,,,,,,,,,,,,,,,,,,,,,,
,,,,,,,,,,,,,Too slow :(,,,,,,t2.png,t2.png,0,0.981,40,Female,2020-10-19_20h54.56.973,torte-q,2020.1.3,Win32,60,13276,,,,,,0,61,61,101,1,,,,,,,,,,,,,,,,,,,,,,,,,,,,,,,,,,,
,,,,,,,,,,,,l,Incorrect,,,,,,t3.png,t4.png,1,0.90855,40,Female,2020-10-19_20h54.56.973,torte-q,2020.1.3,Win32,60,13276,2.036585,,,,,0,62,62,96,1,,,,,,,,,,,,,,,,,,,,,,,,,,,,,,,,,,,
,,,,,,,,,,,,l,Correct!,,,,,,t3.png,t5.png,2,0.0565,40,Female,2020-10-19_20h54.56.973,torte-q,2020.1.3,Win32,60,13276,1.93652,,,,,0,63,63,30,1,,,,,,,,,,,,,,,,,,,,,,,,,,,,,,,,,,,
,,,,,,,,,,,,l,Correct!,,,,,,t2.png,t5.png,3,0.0000131,40,Female,2020-10-19_20h54.56.973,torte-q,2020.1.3,Win32,60,13276,1.18214,,,,,0,64,64,66,1,,,,,,,,,,,,,,,,,,,,,,,,,,,,,,,,,,,
,,,,,,,,,,,,a,Correct!,,,,,,t4.png,t3.png,1,0.909,40,Female,2020-10-19_20h54.56.973,torte-q,2020.1.3,Win32,60,13276,0.88687,,,,,0,65,65,20,1,,,,,,,,,,,,,,,,,,,,,,,,,,,,,,,,,,,
,,,,,,,,,,,,l,Incorrect,,,,,,t3.png,t4.png,1,0.90855,40,Female,2020-10-19_20h54.56.973,torte-q,2020.1.3,Win32,60,13276,2.318215,,,,,0,66,66,84,1,,,,,,,,,,,,,,,,,,,,,,,,,,,,,,,,,,,
,,,,,,,,,,,,a,Correct!,,,,,,t1.png,t1.png,0,0.978,40,Female,2020-10-19_20h54.56.973,torte-q,2020.1.3,Win32,60,13276,1.93575,,,,,0,67,67,54,1,,,,,,,,,,,,,,,,,,,,,,,,,,,,,,,,,,,
,,,,,,,,,,,,l,Correct!,,,,,,t5.png,t2.png,3,0.0000131,40,Female,2020-10-19_20h54.56.973,torte-q,2020.1.3,Win32,60,13276,1.785975,,,,,0,68,68,119,1,,,,,,,,,,,,,,,,,,,,,,,,,,,,,,,,,,,
,,,,,,,,,,,,l,Correct!,,,,,,t4.png,t1.png,3,0.0000131,40,Female,2020-10-19_20h54.56.973,torte-q,2020.1.3,Win32,60,13276,1.834925,,,,,0,69,69,61,1,,,,,,,,,,,,,,,,,,,,,,,,,,,,,,,,,,,
,,,,,,,,,,,,a,Correct!,,,,,,t2.png,t2.png,0,0.98115,40,Female,2020-10-19_20h54.56.973,torte-q,2020.1.3,Win32,60,13276,2.37046,,,,,0,70,70,57,1,,,,,,,,,,,,,,,,,,,,,,,,,,,,,,,,,,,
,,,,,,,,,,,,a,Incorrect,,,,,,t4.png,t1.png,3,0.0000131,40,Female,2020-10-19_20h54.56.973,torte-q,2020.1.3,Win32,60,13276,1.152675,,,,,0,71,71,42,1,,,,,,,,,,,,,,,,,,,,,,,,,,,,,,,,,,,
,,,,,,,,,,,,l,Correct!,,,,,,t3.png,t1.png,2,0.056466,40,Female,2020-10-19_20h54.56.973,torte-q,2020.1.3,Win32,60,13276,0.950355,,,,,0,72,72,64,1,,,,,,,,,,,,,,,,,,,,,,,,,,,,,,,,,,,
,,,,,,,,,,,,l,Correct!,,,,,,t1.png,t3.png,2,0.056466,40,Female,2020-10-19_20h54.56.973,torte-q,2020.1.3,Win32,60,13276,1.03074,,,,,0,73,73,87,1,,,,,,,,,,,,,,,,,,,,,,,,,,,,,,,,,,,
,,,,,,,,,,,,l,Incorrect,,,,,,t3.png,t2.png,1,0.90855,40,Female,2020-10-19_20h54.56.973,torte-q,2020.1.3,Win32,60,13276,1.418855,,,,,0,74,74,97,1,,,,,,,,,,,,,,,,,,,,,,,,,,,,,,,,,,,
,,,,,,,,,,,,a,Incorrect,,,,,,t1.png,t3.png,2,0.056466,40,Female,2020-10-19_20h54.56.973,torte-q,2020.1.3,Win32,60,13276,1.74188,,,,,0,75,75,69,1,,,,,,,,,,,,,,,,,,,,,,,,,,,,,,,,,,,
,,,,,,,,,,,,a,Correct!,,,,,,t4.png,t5.png,1,0.90025,40,Female,2020-10-19_20h54.56.973,torte-q,2020.1.3,Win32,60,13276,0.802355,,,,,0,76,76,47,1,,,,,,,,,,,,,,,,,,,,,,,,,,,,,,,,,,,
,,,,,,,,,,,,l,Correct!,,,,,,t1.png,t4.png,3,0.0000131,40,Female,2020-10-19_20h54.56.973,torte-q,2020.1.3,Win32,60,13276,1.45505,,,,,0,77,77,50,1,,,,,,,,,,,,,,,,,,,,,,,,,,,,,,,,,,,
,,,,,,,,,,,,l,Incorrect,,,,,,t2.png,t3.png,1,0.90855,40,Female,2020-10-19_20h54.56.973,torte-q,2020.1.3,Win32,60,13276,0.994035,,,,,0,78,78,68,1,,,,,,,,,,,,,,,,,,,,,,,,,,,,,,,,,,,
,,,,,,,,,,,,a,Correct!,,,,,,t3.png,t2.png,1,0.90855,40,Female,2020-10-19_20h54.56.973,torte-q,2020.1.3,Win32,60,13276,1.02002,,,,,0,79,79,18,1,,,,,,,,,,,,,,,,,,,,,,,,,,,,,,,,,,,
,,,,,,,,,,,,a,Incorrect,,,,,,t5.png,t3.png,2,0.056466,40,Female,2020-10-19_20h54.56.973,torte-q,2020.1.3,Win32,60,13276,1.288305,,,,,0,80,80,114,1,,,,,,,,,,,,,,,,,,,,,,,,,,,,,,,,,,,
,,,,,,,,,,,,a,Incorrect,,,,,,t5.png,t1.png,4,9.55E-11,40,Female,2020-10-19_20h54.56.973,torte-q,2020.1.3,Win32,60,13276,0.67491,,,,,0,81,81,102,1,,,,,,,,,,,,,,,,,,,,,,,,,,,,,,,,,,,
,,,,,,,,,,,,a,Incorrect,,,,,,t2.png,t4.png,2,0.059078,40,Female,2020-10-19_20h54.56.973,torte-q,2020.1.3,Win32,60,13276,1.409315,,,,,0,82,82,24,1,,,,,,,,,,,,,,,,,,,,,,,,,,,,,,,,,,,
,,,,,,,,,,,,l,Incorrect,,,,,,t2.png,t2.png,0,0.98115,40,Female,2020-10-19_20h54.56.973,torte-q,2020.1.3,Win32,60,13276,1.818335,,,,,0,83,83,7,1,,,,,,,,,,,,,,,,,,,,,,,,,,,,,,,,,,,
,,,,,,,,,,,,l,Incorrect,,,,,,t5.png,t4.png,1,0.90025,40,Female,2020-10-19_20h54.56.973,torte-q,2020.1.3,Win32,60,13276,1.4023,,,,,0,84,84,34,1,,,,,,,,,,,,,,,,,,,,,,,,,,,,,,,,,,,
,,,,,,,,,,,,l,Incorrect,,,,,,t2.png,t1.png,1,0.90025,40,Female,2020-10-19_20h54.56.973,torte-q,2020.1.3,Win32,60,13276,1.10174,,,,,0,85,85,62,1,,,,,,,,,,,,,,,,,,,,,,,,,,,,,,,,,,,
,,,,,,,,,,,,l,Incorrect,,,,,,t1.png,t2.png,1,0.90025,40,Female,2020-10-19_20h54.56.973,torte-q,2020.1.3,Win32,60,13276,1.075455,,,,,0,86,86,72,1,,,,,,,,,,,,,,,,,,,,,,,,,,,,,,,,,,,
,,,,,,,,,,,,a,Incorrect,,,,,,t3.png,t1.png,2,0.056466,40,Female,2020-10-19_20h54.56.973,torte-q,2020.1.3,Win32,60,13276,1.37096,,,,,0,87,87,32,1,,,,,,,,,,,,,,,,,,,,,,,,,,,,,,,,,,,
,,,,,,,,,,,,a,Correct!,,,,,,t4.png,t4.png,0,0.98115,40,Female,2020-10-19_20h54.56.973,torte-q,2020.1.3,Win32,60,13276,0.96824,,,,,0,88,88,80,1,,,,,,,,,,,,,,,,,,,,,,,,,,,,,,,,,,,
,,,,,,,,,,,,l,Correct!,,,,,,t4.png,t1.png,3,0.0000131,40,Female,2020-10-19_20h54.56.973,torte-q,2020.1.3,Win32,60,13276,1.00074,,,,,0,89,89,48,1,,,,,,,,,,,,,,,,,,,,,,,,,,,,,,,,,,,
,,,,,,,,,,,,a,Incorrect,,,,,,t5.png,t4.png,1,0.90025,40,Female,2020-10-19_20h54.56.973,torte-q,2020.1.3,Win32,60,13276,1.009125,,,,,0,90,90,27,1,,,,,,,,,,,,,,,,,,,,,,,,,,,,,,,,,,,
,,,,,,,,,,,,l,Incorrect,,,,,,t2.png,t3.png,1,0.909,40,Female,2020-10-19_20h54.56.973,torte-q,2020.1.3,Win32,60,13276,1.6588,,,,,0,91,91,74,1,,,,,,,,,,,,,,,,,,,,,,,,,,,,,,,,,,,
,,,,,,,,,,,,a,Correct!,,,,,,t4.png,t5.png,1,0.90025,40,Female,2020-10-19_20h54.56.973,torte-q,2020.1.3,Win32,60,13276,1.012575,,,,,0,92,92,103,1,,,,,,,,,,,,,,,,,,,,,,,,,,,,,,,,,,,
,,,,,,,,,,,,a,Incorrect,,,,,,t5.png,t3.png,2,0.056466,40,Female,2020-10-19_20h54.56.973,torte-q,2020.1.3,Win32,60,13276,0.96822,,,,,0,93,93,108,1,,,,,,,,,,,,,,,,,,,,,,,,,,,,,,,,,,,
,,,,,,,,,,,,a,Correct!,,,,,,t3.png,t4.png,1,0.909,40,Female,2020-10-19_20h54.56.973,torte-q,2020.1.3,Win32,60,13276,2.184425,,,,,0,94,94,106,1,,,,,,,,,,,,,,,,,,,,,,,,,,,,,,,,,,,
,,,,,,,,,,,,a,Incorrect,,,,,,t3.png,t5.png,2,0.056466,40,Female,2020-10-19_20h54.56.973,torte-q,2020.1.3,Win32,60,13276,0.88531,,,,,0,95,95,6,1,,,,,,,,,,,,,,,,,,,,,,,,,,,,,,,,,,,
,,,,,,,,,,,,l,Correct!,,,,,,t2.png,t4.png,2,0.059078,40,Female,2020-10-19_20h54.56.973,torte-q,2020.1.3,Win32,60,13276,0.902215,,,,,0,96,96,37,1,,,,,,,,,,,,,,,,,,,,,,,,,,,,,,,,,,,
,,,,,,,,,,,,a,Incorrect,,,,,,t3.png,t1.png,2,0.056466,40,Female,2020-10-19_20h54.56.973,torte-q,2020.1.3,Win32,60,13276,2.18759,,,,,0,97,97,29,1,,,,,,,,,,,,,,,,,,,,,,,,,,,,,,,,,,,
,,,,,,,,,,,,l,Incorrect,,,,,,t3.png,t2.png,1,0.909,40,Female,2020-10-19_20h54.56.973,torte-q,2020.1.3,Win32,60,13276,2.039875,,,,,0,98,98,3,1,,,,,,,,,,,,,,,,,,,,,,,,,,,,,,,,,,,
,,,,,,,,,,,,l,Correct!,,,,,,t5.png,t1.png,4,9.55E-11,40,Female,2020-10-19_20h54.56.973,torte-q,2020.1.3,Win32,60,13276,0.71947,,,,,0,99,99,100,1,,,,,,,,,,,,,,,,,,,,,,,,,,,,,,,,,,,
,,,,,,,,,,,,l,Correct!,,,,,,t1.png,t5.png,4,9.55E-11,40,Female,2020-10-19_20h54.56.973,torte-q,2020.1.3,Win32,60,13276,2.35346,,,,,0,100,100,16,1,,,,,,,,,,,,,,,,,,,,,,,,,,,,,,,,,,,
,,,,,,,,,,,,a,Incorrect,,,,,,t1.png,t4.png,3,0.0000131,40,Female,2020-10-19_20h54.56.973,torte-q,2020.1.3,Win32,60,13276,1.55548,,,,,0,101,101,92,1,,,,,,,,,,,,,,,,,,,,,,,,,,,,,,,,,,,
,,,,,,,,,,,,a,Incorrect,,,,,,t3.png,t5.png,2,0.056466,40,Female,2020-10-19_20h54.56.973,torte-q,2020.1.3,Win32,60,13276,2.11936,,,,,0,102,102,44,1,,,,,,,,,,,,,,,,,,,,,,,,,,,,,,,,,,,
,,,,,,,,,,,,l,Correct!,,,,,,t1.png,t5.png,4,9.55E-11,40,Female,2020-10-19_20h54.56.973,torte-q,2020.1.3,Win32,60,13276,0.869985,,,,,0,103,103,55,1,,,,,,,,,,,,,,,,,,,,,,,,,,,,,,,,,,,
,,,,,,,,,,,,l,Incorrect,,,,,,t2.png,t1.png,1,0.90025,40,Female,2020-10-19_20h54.56.973,torte-q,2020.1.3,Win32,60,13276,1.169945,,,,,0,104,104,5,1,,,,,,,,,,,,,,,,,,,,,,,,,,,,,,,,,,,
,,,,,,,,,,,,a,Correct!,,,,,,t5.png,t5.png,0,0.97829,40,Female,2020-10-19_20h54.56.973,torte-q,2020.1.3,Win32,60,13276,1.29535,,,,,0,105,105,25,1,,,,,,,,,,,,,,,,,,,,,,,,,,,,,,,,,,,
,,,,,,,,,,,,a,Correct!,,,,,,t4.png,t4.png,0,0.98115,40,Female,2020-10-19_20h54.56.973,torte-q,2020.1.3,Win32,60,13276,1.84249,,,,,0,106,106,21,1,,,,,,,,,,,,,,,,,,,,,,,,,,,,,,,,,,,
,,,,,,,,,,,,l,Correct!,,,,,,t5.png,t1.png,4,9.55E-11,40,Female,2020-10-19_20h54.56.973,torte-q,2020.1.3,Win32,60,13276,0.982935,,,,,0,107,107,22,1,,,,,,,,,,,,,,,,,,,,,,,,,,,,,,,,,,,
,,,,,,,,,,,,a,Correct!,,,,,,t5.png,t5.png,0,0.97829,40,Female,2020-10-19_20h54.56.973,torte-q,2020.1.3,Win32,60,13276,1.029375,,,,,0,108,108,73,1,,,,,,,,,,,,,,,,,,,,,,,,,,,,,,,,,,,
,,,,,,,,,,,,l,Correct!,,,,,,t5.png,t3.png,2,0.056466,40,Female,2020-10-19_20h54.56.973,torte-q,2020.1.3,Win32,60,13276,1.996585,,,,,0,109,109,38,1,,,,,,,,,,,,,,,,,,,,,,,,,,,,,,,,,,,
,,,,,,,,,,,,l,Incorrect,,,,,,t1.png,t2.png,1,0.9,40,Female,2020-10-19_20h54.56.973,torte-q,2020.1.3,Win32,60,13276,2.178405,,,,,0,110,110,1,1,,,,,,,,,,,,,,,,,,,,,,,,,,,,,,,,,,,
,,,,,,,,,,,,a,Incorrect,,,,,,t4.png,t2.png,2,0.0591,40,Female,2020-10-19_20h54.56.973,torte-q,2020.1.3,Win32,60,13276,2.112825,,,,,0,111,111,36,1,,,,,,,,,,,,,,,,,,,,,,,,,,,,,,,,,,,
,,,,,,,,,,,,,Too slow :(,,,,,,t4.png,t4.png,0,0.98115,40,Female,2020-10-19_20h54.56.973,torte-q,2020.1.3,Win32,60,13276,,,,,,0,112,112,52,1,,,,,,,,,,,,,,,,,,,,,,,,,,,,,,,,,,,
,,,,,,,,,,,,l,Correct!,,,,,,t4.png,t1.png,3,0.0000131,40,Female,2020-10-19_20h54.56.973,torte-q,2020.1.3,Win32,60,13276,1.818555,,,,,0,113,113,13,1,,,,,,,,,,,,,,,,,,,,,,,,,,,,,,,,,,,
,,,,,,,,,,,,l,Incorrect,,,,,,t3.png,t4.png,1,0.909,40,Female,2020-10-19_20h54.56.973,torte-q,2020.1.3,Win32,60,13276,1.736035,,,,,0,114,114,89,1,,,,,,,,,,,,,,,,,,,,,,,,,,,,,,,,,,,
,,,,,,,,,,,,l,Incorrect,,,,,,t4.png,t5.png,1,0.90025,40,Female,2020-10-19_20h54.56.973,torte-q,2020.1.3,Win32,60,13276,1.6505,,,,,0,115,115,58,1,,,,,,,,,,,,,,,,,,,,,,,,,,,,,,,,,,,
,,,,,,,,,,,,a,Incorrect,,,,,,t5.png,t2.png,3,0.0000131,40,Female,2020-10-19_20h54.56.973,torte-q,2020.1.3,Win32,60,13276,1.479305,,,,,0,116,116,98,1,,,,,,,,,,,,,,,,,,,,,,,,,,,,,,,,,,,
,,,,,,,,,,,,l,Correct!,,,,,,t1.png,t5.png,4,9.55E-11,40,Female,2020-10-19_20h54.56.973,torte-q,2020.1.3,Win32,60,13276,2.384835,,,,,0,117,117,12,1,,,,,,,,,,,,,,,,,,,,,,,,,,,,,,,,,,,
,,,,,,,,,,,,a,Correct!,,,,,,t4.png,t3.png,1,0.909,40,Female,2020-10-19_20h54.56.973,torte-q,2020.1.3,Win32,60,13276,1.73797,,,,,0,118,118,46,1,,,,,,,,,,,,,,,,,,,,,,,,,,,,,,,,,,,
,,,,,,,,,,,,l,Correct!,,,,,,t5.png,t1.png,4,9.55E-11,40,Female,2020-10-19_20h54.56.973,torte-q,2020.1.3,Win32,60,13276,1.249055,,,,,0,119,119,71,1,,,,,,,,,,,,,,,,,,,,,,,,,,,,,,,,,,,
,,,,,,,,,,,,a,Incorrect,,,,,,t5.png,t3.png,2,0.056466,40,Female,2020-10-19_20h54.56.973,torte-q,2020.1.3,Win32,60,13276,2.028195,space,4.549805,,,,,,,,space,17.69756,space,5.587475,0,0,0,38,1,,,,,,,,,,,,,,,,,,,,,,,,,,
,,,,,,,,,,,,l,Correct!,,,,,,t2.png,t4.png,2,0.0591,40,Female,2020-10-19_20h54.56.973,torte-q,2020.1.3,Win32,60,13276,1.203525,,,,,,,,,,,,,,0,1,1,15,1,,,,,,,,,,,,,,,,,,,,,,,,,,
,,,,,,,,,,,,l,Correct!,,,,,,t1.png,t3.png,2,0.056466,40,Female,2020-10-19_20h54.56.973,torte-q,2020.1.3,Win32,60,13276,1.38679,,,,,,,,,,,,,,0,2,2,69,1,,,,,,,,,,,,,,,,,,,,,,,,,,
,,,,,,,,,,,,a,Correct!,,,,,,t3.png,t4.png,1,0.90855,40,Female,2020-10-19_20h54.56.973,torte-q,2020.1.3,Win32,60,13276,1.53599,,,,,,,,,,,,,,0,3,3,96,1,,,,,,,,,,,,,,,,,,,,,,,,,,
,,,,,,,,,,,,l,Correct!,,,,,,t4.png,t1.png,3,0.0000131,40,Female,2020-10-19_20h54.56.973,torte-q,2020.1.3,Win32,60,13276,1.456605,,,,,,,,,,,,,,0,4,4,48,1,,,,,,,,,,,,,,,,,,,,,,,,,,
,,,,,,,,,,,,a,Incorrect,,,,,,t3.png,t5.png,2,0.056466,40,Female,2020-10-19_20h54.56.973,torte-q,2020.1.3,Win32,60,13276,2.33616,,,,,,,,,,,,,,0,5,5,14,1,,,,,,,,,,,,,,,,,,,,,,,,,,
,,,,,,,,,,,,l,Correct!,,,,,,t5.png,t2.png,3,0.0000131,40,Female,2020-10-19_20h54.56.973,torte-q,2020.1.3,Win32,60,13276,1.550515,,,,,,,,,,,,,,0,6,6,98,1,,,,,,,,,,,,,,,,,,,,,,,,,,
,,,,,,,,,,,,l,Correct!,,,,,,t5.png,t2.png,3,0.0000131,40,Female,2020-10-19_20h54.56.973,torte-q,2020.1.3,Win32,60,13276,0.971455,,,,,,,,,,,,,,0,7,7,51,1,,,,,,,,,,,,,,,,,,,,,,,,,,
,,,,,,,,,,,,,Too slow :(,,,,,,t5.png,t2.png,3,0.0000131,40,Female,2020-10-19_20h54.56.973,torte-q,2020.1.3,Win32,60,13276,,,,,,,,,,,,,,,0,8,8,116,1,,,,,,,,,,,,,,,,,,,,,,,,,,
,,,,,,,,,,,,l,Incorrect,,,,,,t2.png,t1.png,1,0.90025,40,Female,2020-10-19_20h54.56.973,torte-q,2020.1.3,Win32,60,13276,1.70235,,,,,,,,,,,,,,0,9,9,4,1,,,,,,,,,,,,,,,,,,,,,,,,,,
,,,,,,,,,,,,l,Correct!,,,,,,t3.png,t1.png,2,0.0565,40,Female,2020-10-19_20h54.56.973,torte-q,2020.1.3,Win32,60,13276,0.856545,,,,,,,,,,,,,,0,10,10,31,1,,,,,,,,,,,,,,,,,,,,,,,,,,
,,,,,,,,,,,,a,Correct!,,,,,,t5.png,t3.png,2,0.056466,40,Female,2020-10-19_20h54.56.973,torte-q,2020.1.3,Win32,60,13276,0.89991,,,,,,,,,,,,,,0,11,11,108,1,,,,,,,,,,,,,,,,,,,,,,,,,,
,,,,,,,,,,,,l,Incorrect,,,,,,t1.png,t2.png,1,0.90025,40,Female,2020-10-19_20h54.56.973,torte-q,2020.1.3,Win32,60,13276,0.785095,,,,,,,,,,,,,,0,12,12,72,1,,,,,,,,,,,,,,,,,,,,,,,,,,
,,,,,,,,,,,,a,Correct!,,,,,,t2.png,t3.png,1,0.90855,40,Female,2020-10-19_20h54.56.973,torte-q,2020.1.3,Win32,60,13276,1.01411,,,,,,,,,,,,,,0,13,13,65,1,,,,,,,,,,,,,,,,,,,,,,,,,,
,,,,,,,,,,,,a,Incorrect,,,,,,t4.png,t5.png,1,0.90025,40,Female,2020-10-19_20h54.56.973,torte-q,2020.1.3,Win32,60,13276,0.93725,,,,,,,,,,,,,,0,14,14,103,1,,,,,,,,,,,,,,,,,,,,,,,,,,
,,,,,,,,,,,,a,Correct!,,,,,,t5.png,t5.png,0,0.978,40,Female,2020-10-19_20h54.56.973,torte-q,2020.1.3,Win32,60,13276,0.6825,,,,,,,,,,,,,,0,15,15,117,1,,,,,,,,,,,,,,,,,,,,,,,,,,
,,,,,,,,,,,,a,Correct!,,,,,,t5.png,t4.png,1,0.9,40,Female,2020-10-19_20h54.56.973,torte-q,2020.1.3,Win32,60,13276,1.152275,,,,,,,,,,,,,,0,16,16,76,1,,,,,,,,,,,,,,,,,,,,,,,,,,
,,,,,,,,,,,,a,Correct!,,,,,,t5.png,t5.png,0,0.97829,40,Female,2020-10-19_20h54.56.973,torte-q,2020.1.3,Win32,60,13276,0.95251,,,,,,,,,,,,,,0,17,17,94,1,,,,,,,,,,,,,,,,,,,,,,,,,,
,,,,,,,,,,,,l,Correct!,,,,,,t1.png,t5.png,4,9.55E-11,40,Female,2020-10-19_20h54.56.973,torte-q,2020.1.3,Win32,60,13276,0.77897,,,,,,,,,,,,,,0,18,18,41,1,,,,,,,,,,,,,,,,,,,,,,,,,,
,,,,,,,,,,,,a,Correct!,,,,,,t4.png,t3.png,1,0.90855,40,Female,2020-10-19_20h54.56.973,torte-q,2020.1.3,Win32,60,13276,1.254255,,,,,,,,,,,,,,0,19,19,35,1,,,,,,,,,,,,,,,,,,,,,,,,,,
,,,,,,,,,,,,l,Correct!,,,,,,t1.png,t3.png,2,0.056466,40,Female,2020-10-19_20h54.56.973,torte-q,2020.1.3,Win32,60,13276,0.92098,,,,,,,,,,,,,,0,20,20,87,1,,,,,,,,,,,,,,,,,,,,,,,,,,
,,,,,,,,,,,,l,Correct!,,,,,,t1.png,t3.png,2,0.056466,40,Female,2020-10-19_20h54.56.973,torte-q,2020.1.3,Win32,60,13276,0.634225,,,,,,,,,,,,,,0,21,21,99,1,,,,,,,,,,,,,,,,,,,,,,,,,,
,,,,,,,,,,,,a,Incorrect,,,,,,t4.png,t2.png,2,0.059078,40,Female,2020-10-19_20h54.56.973,torte-q,2020.1.3,Win32,60,13276,1.169285,,,,,,,,,,,,,,0,22,22,88,1,,,,,,,,,,,,,,,,,,,,,,,,,,
,,,,,,,,,,,,l,Correct!,,,,,,t5.png,t2.png,3,0.0000131,40,Female,2020-10-19_20h54.56.973,torte-q,2020.1.3,Win32,60,13276,0.98137,,,,,,,,,,,,,,0,23,23,91,1,,,,,,,,,,,,,,,,,,,,,,,,,,
,,,,,,,,,,,,l,Correct!,,,,,,t1.png,t3.png,2,0.056466,40,Female,2020-10-19_20h54.56.973,torte-q,2020.1.3,Win32,60,13276,0.59457,,,,,,,,,,,,,,0,24,24,63,1,,,,,,,,,,,,,,,,,,,,,,,,,,
,,,,,,,,,,,,a,Correct!,,,,,,t3.png,t5.png,2,0.056466,40,Female,2020-10-19_20h54.56.973,torte-q,2020.1.3,Win32,60,13276,1.58606,,,,,,,,,,,,,,0,25,25,44,1,,,,,,,,,,,,,,,,,,,,,,,,,,
,,,,,,,,,,,,a,Correct!,,,,,,t4.png,t4.png,0,0.98115,40,Female,2020-10-19_20h54.56.973,torte-q,2020.1.3,Win32,60,13276,0.753215,,,,,,,,,,,,,,0,26,26,52,1,,,,,,,,,,,,,,,,,,,,,,,,,,
,,,,,,,,,,,,l,Correct!,,,,,,t4.png,t2.png,2,0.059078,40,Female,2020-10-19_20h54.56.973,torte-q,2020.1.3,Win32,60,13276,1.08781,,,,,,,,,,,,,,0,27,27,109,1,,,,,,,,,,,,,,,,,,,,,,,,,,
,,,,,,,,,,,,l,Incorrect,,,,,,t1.png,t2.png,1,0.9,40,Female,2020-10-19_20h54.56.973,torte-q,2020.1.3,Win32,60,13276,1.0623,,,,,,,,,,,,,,0,28,28,1,1,,,,,,,,,,,,,,,,,,,,,,,,,,
,,,,,,,,,,,,l,Incorrect,,,,,,t2.png,t3.png,1,0.90855,40,Female,2020-10-19_20h54.56.973,torte-q,2020.1.3,Win32,60,13276,0.680355,,,,,,,,,,,,,,0,29,29,10,1,,,,,,,,,,,,,,,,,,,,,,,,,,
,,,,,,,,,,,,l,Incorrect,,,,,,t1.png,t1.png,0,0.978,40,Female,2020-10-19_20h54.56.973,torte-q,2020.1.3,Win32,60,13276,0.701555,,,,,,,,,,,,,,0,30,30,54,1,,,,,,,,,,,,,,,,,,,,,,,,,,
,,,,,,,,,,,,a,Incorrect,,,,,,t3.png,t1.png,2,0.056466,40,Female,2020-10-19_20h54.56.973,torte-q,2020.1.3,Win32,60,13276,1.40423,,,,,,,,,,,,,,0,31,31,0,1,,,,,,,,,,,,,,,,,,,,,,,,,,
,,,,,,,,,,,,a,Correct!,,,,,,t4.png,t5.png,1,0.9,40,Female,2020-10-19_20h54.56.973,torte-q,2020.1.3,Win32,60,13276,0.93776,,,,,,,,,,,,,,0,32,32,115,1,,,,,,,,,,,,,,,,,,,,,,,,,,
,,,,,,,,,,,,l,Correct!,,,,,,t4.png,t1.png,3,0.0000131,40,Female,2020-10-19_20h54.56.973,torte-q,2020.1.3,Win32,60,13276,0.784975,,,,,,,,,,,,,,0,33,33,61,1,,,,,,,,,,,,,,,,,,,,,,,,,,
,,,,,,,,,,,,a,Incorrect,,,,,,t1.png,t1.png,0,0.97829,40,Female,2020-10-19_20h54.56.973,torte-q,2020.1.3,Win32,60,13276,0.882005,,,,,,,,,,,,,,0,34,34,67,1,,,,,,,,,,,,,,,,,,,,,,,,,,
,,,,,,,,,,,,l,Correct!,,,,,,t1.png,t5.png,4,9.55E-11,40,Female,2020-10-19_20h54.56.973,torte-q,2020.1.3,Win32,60,13276,1.448045,,,,,,,,,,,,,,0,35,35,85,1,,,,,,,,,,,,,,,,,,,,,,,,,,
,,,,,,,,,,,,l,Correct!,,,,,,t2.png,t5.png,3,0.0000131,40,Female,2020-10-19_20h54.56.973,torte-q,2020.1.3,Win32,60,13276,1.31435,,,,,,,,,,,,,,0,36,36,8,1,,,,,,,,,,,,,,,,,,,,,,,,,,
,,,,,,,,,,,,a,Correct!,,,,,,t4.png,t4.png,0,0.98115,40,Female,2020-10-19_20h54.56.973,torte-q,2020.1.3,Win32,60,13276,0.817125,,,,,,,,,,,,,,0,37,37,90,1,,,,,,,,,,,,,,,,,,,,,,,,,,
,,,,,,,,,,,,a,Correct!,,,,,,t4.png,t5.png,1,0.90025,40,Female,2020-10-19_20h54.56.973,torte-q,2020.1.3,Win32,60,13276,1.05182,,,,,,,,,,,,,,0,38,38,47,1,,,,,,,,,,,,,,,,,,,,,,,,,,
,,,,,,,,,,,,a,Correct!,,,,,,t1.png,t1.png,0,0.978,40,Female,2020-10-19_20h54.56.973,torte-q,2020.1.3,Win32,60,13276,1.106325,,,,,,,,,,,,,,0,39,39,28,1,,,,,,,,,,,,,,,,,,,,,,,,,,
,,,,,,,,,,,,l,Correct!,,,,,,t1.png,t4.png,3,0.0000131,40,Female,2020-10-19_20h54.56.973,torte-q,2020.1.3,Win32,60,13276,1.00173,,,,,,,,,,,,,,0,40,40,107,1,,,,,,,,,,,,,,,,,,,,,,,,,,
,,,,,,,,,,,,a,Correct!,,,,,,t4.png,t3.png,1,0.90855,40,Female,2020-10-19_20h54.56.973,torte-q,2020.1.3,Win32,60,13276,1.26807,,,,,,,,,,,,,,0,41,41,45,1,,,,,,,,,,,,,,,,,,,,,,,,,,
,,,,,,,,,,,,l,Incorrect,,,,,,t3.png,t4.png,1,0.909,40,Female,2020-10-19_20h54.56.973,torte-q,2020.1.3,Win32,60,13276,1.56937,,,,,,,,,,,,,,0,42,42,82,1,,,,,,,,,,,,,,,,,,,,,,,,,,
,,,,,,,,,,,,l,Incorrect,,,,,,t2.png,t3.png,1,0.90855,40,Female,2020-10-19_20h54.56.973,torte-q,2020.1.3,Win32,60,13276,1.101485,,,,,,,,,,,,,,0,43,43,68,1,,,,,,,,,,,,,,,,,,,,,,,,,,
,,,,,,,,,,,,a,Correct!,,,,,,t4.png,t5.png,1,0.90025,40,Female,2020-10-19_20h54.56.973,torte-q,2020.1.3,Win32,60,13276,1.56765,,,,,,,,,,,,,,0,44,44,58,1,,,,,,,,,,,,,,,,,,,,,,,,,,
,,,,,,,,,,,,l,Incorrect,,,,,,t3.png,t2.png,1,0.90855,40,Female,2020-10-19_20h54.56.973,torte-q,2020.1.3,Win32,60,13276,1.10203,,,,,,,,,,,,,,0,45,45,97,1,,,,,,,,,,,,,,,,,,,,,,,,,,
,,,,,,,,,,,,a,Correct!,,,,,,t3.png,t4.png,1,0.909,40,Female,2020-10-19_20h54.56.973,torte-q,2020.1.3,Win32,60,13276,2.15574,,,,,,,,,,,,,,0,46,46,106,1,,,,,,,,,,,,,,,,,,,,,,,,,,
,,,,,,,,,,,,a,Correct!,,,,,,t2.png,t2.png,0,0.981,40,Female,2020-10-19_20h54.56.973,torte-q,2020.1.3,Win32,60,13276,1.399815,,,,,,,,,,,,,,0,47,47,101,1,,,,,,,,,,,,,,,,,,,,,,,,,,
,,,,,,,,,,,,l,Correct!,,,,,,t1.png,t4.png,3,0.0000131,40,Female,2020-10-19_20h54.56.973,torte-q,2020.1.3,Win32,60,13276,0.935985,,,,,,,,,,,,,,0,48,48,92,1,,,,,,,,,,,,,,,,,,,,,,,,,,
,,,,,,,,,,,,l,Correct!,,,,,,t1.png,t5.png,4,9.55E-11,40,Female,2020-10-19_20h54.56.973,torte-q,2020.1.3,Win32,60,13276,0.795685,,,,,,,,,,,,,,0,49,49,12,1,,,,,,,,,,,,,,,,,,,,,,,,,,
,,,,,,,,,,,,a,Correct!,,,,,,t5.png,t4.png,1,0.90025,40,Female,2020-10-19_20h54.56.973,torte-q,2020.1.3,Win32,60,13276,1.033305,,,,,,,,,,,,,,0,50,50,34,1,,,,,,,,,,,,,,,,,,,,,,,,,,
,,,,,,,,,,,,l,Correct!,,,,,,t3.png,t1.png,2,0.056466,40,Female,2020-10-19_20h54.56.973,torte-q,2020.1.3,Win32,60,13276,0.850695,,,,,,,,,,,,,,0,51,51,64,1,,,,,,,,,,,,,,,,,,,,,,,,,,
,,,,,,,,,,,,a,Correct!,,,,,,t5.png,t5.png,0,0.97829,40,Female,2020-10-19_20h54.56.973,torte-q,2020.1.3,Win32,60,13276,1.2293,,,,,,,,,,,,,,0,52,52,70,1,,,,,,,,,,,,,,,,,,,,,,,,,,
,,,,,,,,,,,,a,Incorrect,,,,,,t5.png,t1.png,4,9.55E-11,40,Female,2020-10-19_20h54.56.973,torte-q,2020.1.3,Win32,60,13276,2.035585,,,,,,,,,,,,,,0,53,53,100,1,,,,,,,,,,,,,,,,,,,,,,,,,,
,,,,,,,,,,,,l,Correct!,,,,,,t4.png,t1.png,3,0.0000131,40,Female,2020-10-19_20h54.56.973,torte-q,2020.1.3,Win32,60,13276,1.4493,,,,,,,,,,,,,,0,54,54,93,1,,,,,,,,,,,,,,,,,,,,,,,,,,
,,,,,,,,,,,,l,Incorrect,,,,,,t1.png,t2.png,1,0.90025,40,Female,2020-10-19_20h54.56.973,torte-q,2020.1.3,Win32,60,13276,1.368305,,,,,,,,,,,,,,0,55,55,33,1,,,,,,,,,,,,,,,,,,,,,,,,,,
,,,,,,,,,,,,a,Incorrect,,,,,,t3.png,t4.png,1,0.909,40,Female,2020-10-19_20h54.56.973,torte-q,2020.1.3,Win32,60,13276,1.86754,,,,,,,,,,,,,,0,56,56,89,1,,,,,,,,,,,,,,,,,,,,,,,,,,
,,,,,,,,,,,,l,Correct!,,,,,,t5.png,t1.png,4,9.55E-11,40,Female,2020-10-19_20h54.56.973,torte-q,2020.1.3,Win32,60,13276,1.49302,,,,,,,,,,,,,,0,57,57,22,1,,,,,,,,,,,,,,,,,,,,,,,,,,
,,,,,,,,,,,,l,Incorrect,,,,,,t1.png,t2.png,1,0.90025,40,Female,2020-10-19_20h54.56.973,torte-q,2020.1.3,Win32,60,13276,0.93673,,,,,,,,,,,,,,0,58,58,105,1,,,,,,,,,,,,,,,,,,,,,,,,,,
,,,,,,,,,,,,l,Correct!,,,,,,t3.png,t1.png,2,0.056466,40,Female,2020-10-19_20h54.56.973,torte-q,2020.1.3,Win32,60,13276,0.936095,,,,,,,,,,,,,,0,59,59,32,1,,,,,,,,,,,,,,,,,,,,,,,,,,
,,,,,,,,,,,,a,Correct!,,,,,,t2.png,t1.png,1,0.90025,40,Female,2020-10-19_20h54.56.973,torte-q,2020.1.3,Win32,60,13276,1.076945,,,,,,,,,,,,,,0,60,60,5,1,,,,,,,,,,,,,,,,,,,,,,,,,,
,,,,,,,,,,,,a,Correct!,,,,,,t4.png,t3.png,1,0.909,40,Female,2020-10-19_20h54.56.973,torte-q,2020.1.3,Win32,60,13276,0.827245,,,,,,,,,,,,,,0,61,61,20,1,,,,,,,,,,,,,,,,,,,,,,,,,,
,,,,,,,,,,,,l,Incorrect,,,,,,t3.png,t2.png,1,0.909,40,Female,2020-10-19_20h54.56.973,torte-q,2020.1.3,Win32,60,13276,0.796045,,,,,,,,,,,,,,0,62,62,23,1,,,,,,,,,,,,,,,,,,,,,,,,,,
,,,,,,,,,,,,l,Correct!,,,,,,t4.png,t1.png,3,0.0000131,40,Female,2020-10-19_20h54.56.973,torte-q,2020.1.3,Win32,60,13276,1.01769,,,,,,,,,,,,,,0,63,63,42,1,,,,,,,,,,,,,,,,,,,,,,,,,,
,,,,,,,,,,,,l,Correct!,,,,,,t3.png,t5.png,2,0.056466,40,Female,2020-10-19_20h54.56.973,torte-q,2020.1.3,Win32,60,13276,1.20492,,,,,,,,,,,,,,0,64,64,6,1,,,,,,,,,,,,,,,,,,,,,,,,,,
,,,,,,,,,,,,,Too slow :(,,,,,,t4.png,t2.png,2,0.059078,40,Female,2020-10-19_20h54.56.973,torte-q,2020.1.3,Win32,60,13276,,,,,,,,,,,,,,,0,65,65,86,1,,,,,,,,,,,,,,,,,,,,,,,,,,
,,,,,,,,,,,,a,Incorrect,,,,,,t3.png,t5.png,2,0.0565,40,Female,2020-10-19_20h54.56.973,torte-q,2020.1.3,Win32,60,13276,0.76974,,,,,,,,,,,,,,0,66,66,30,1,,,,,,,,,,,,,,,,,,,,,,,,,,
,,,,,,,,,,,,a,Incorrect,,,,,,t2.png,t4.png,2,0.059078,40,Female,2020-10-19_20h54.56.973,torte-q,2020.1.3,Win32,60,13276,1.845095,,,,,,,,,,,,,,0,67,67,11,1,,,,,,,,,,,,,,,,,,,,,,,,,,
,,,,,,,,,,,,l,Correct!,,,,,,t1.png,t3.png,2,0.056466,40,Female,2020-10-19_20h54.56.973,torte-q,2020.1.3,Win32,60,13276,0.97004,,,,,,,,,,,,,,0,68,68,60,1,,,,,,,,,,,,,,,,,,,,,,,,,,
,,,,,,,,,,,,l,Incorrect,,,,,,t3.png,t2.png,1,0.90855,40,Female,2020-10-19_20h54.56.973,torte-q,2020.1.3,Win32,60,13276,0.736375,,,,,,,,,,,,,,0,69,69,18,1,,,,,,,,,,,,,,,,,,,,,,,,,,
,,,,,,,,,,,,a,Correct!,,,,,,t4.png,t4.png,0,0.98115,40,Female,2020-10-19_20h54.56.973,torte-q,2020.1.3,Win32,60,13276,0.684665,,,,,,,,,,,,,,0,70,70,21,1,,,,,,,,,,,,,,,,,,,,,,,,,,
,,,,,,,,,,,,a,Incorrect,,,,,,t2.png,t5.png,3,0.0000131,40,Female,2020-10-19_20h54.56.973,torte-q,2020.1.3,Win32,60,13276,0.697825,,,,,,,,,,,,,,0,71,71,95,1,,,,,,,,,,,,,,,,,,,,,,,,,,
,,,,,,,,,,,,l,Incorrect,,,,,,t2.png,t1.png,1,0.90025,40,Female,2020-10-19_20h54.56.973,torte-q,2020.1.3,Win32,60,13276,0.73825,,,,,,,,,,,,,,0,72,72,62,1,,,,,,,,,,,,,,,,,,,,,,,,,,
,,,,,,,,,,,,l,Correct!,,,,,,t2.png,t3.png,1,0.90855,40,Female,2020-10-19_20h54.56.973,torte-q,2020.1.3,Win32,60,13276,0.73214,,,,,,,,,,,,,,0,73,73,111,1,,,,,,,,,,,,,,,,,,,,,,,,,,
,,,,,,,,,,,,a,Correct!,,,,,,t2.png,t2.png,0,0.98115,40,Female,2020-10-19_20h54.56.973,torte-q,2020.1.3,Win32,60,13276,1.51326,,,,,,,,,,,,,,0,74,74,2,1,,,,,,,,,,,,,,,,,,,,,,,,,,
,,,,,,,,,,,,a,Incorrect,,,,,,t3.png,t5.png,2,0.0565,40,Female,2020-10-19_20h54.56.973,torte-q,2020.1.3,Win32,60,13276,1.35567,,,,,,,,,,,,,,0,75,75,83,1,,,,,,,,,,,,,,,,,,,,,,,,,,
,,,,,,,,,,,,l,Incorrect,,,,,,t2.png,t2.png,0,0.98115,40,Female,2020-10-19_20h54.56.973,torte-q,2020.1.3,Win32,60,13276,1.31382,,,,,,,,,,,,,,0,76,76,57,1,,,,,,,,,,,,,,,,,,,,,,,,,,
,,,,,,,,,,,,l,Correct!,,,,,,t3.png,t2.png,1,0.909,40,Female,2020-10-19_20h54.56.973,torte-q,2020.1.3,Win32,60,13276,0.789815,,,,,,,,,,,,,,0,77,77,3,1,,,,,,,,,,,,,,,,,,,,,,,,,,
,,,,,,,,,,,,a,Incorrect,,,,,,t5.png,t3.png,2,0.0565,40,Female,2020-10-19_20h54.56.973,torte-q,2020.1.3,Win32,60,13276,1.101635,,,,,,,,,,,,,,0,78,78,39,1,,,,,,,,,,,,,,,,,,,,,,,,,,
,,,,,,,,,,,,a,Correct!,,,,,,t5.png,t4.png,1,0.90025,40,Female,2020-10-19_20h54.56.973,torte-q,2020.1.3,Win32,60,13276,1.033685,,,,,,,,,,,,,,0,79,79,27,1,,,,,,,,,,,,,,,,,,,,,,,,,,
,,,,,,,,,,,,a,Correct!,,,,,,t4.png,t4.png,0,0.98115,40,Female,2020-10-19_20h54.56.973,torte-q,2020.1.3,Win32,60,13276,1.069235,,,,,,,,,,,,,,0,80,80,79,1,,,,,,,,,,,,,,,,,,,,,,,,,,
,,,,,,,,,,,,a,Correct!,,,,,,t4.png,t4.png,0,0.98115,40,Female,2020-10-19_20h54.56.973,torte-q,2020.1.3,Win32,60,13276,0.86774,,,,,,,,,,,,,,0,81,81,80,1,,,,,,,,,,,,,,,,,,,,,,,,,,
,,,,,,,,,,,,l,Correct!,,,,,,t3.png,t1.png,2,0.056466,40,Female,2020-10-19_20h54.56.973,torte-q,2020.1.3,Win32,60,13276,0.691245,,,,,,,,,,,,,,0,82,82,29,1,,,,,,,,,,,,,,,,,,,,,,,,,,
,,,,,,,,,,,,a,Incorrect,,,,,,t4.png,t2.png,2,0.059078,40,Female,2020-10-19_20h54.56.973,torte-q,2020.1.3,Win32,60,13276,1.068665,,,,,,,,,,,,,,0,83,83,110,1,,,,,,,,,,,,,,,,,,,,,,,,,,
,,,,,,,,,,,,l,Correct!,,,,,,t2.png,t5.png,3,0.0000131,40,Female,2020-10-19_20h54.56.973,torte-q,2020.1.3,Win32,60,13276,0.834535,,,,,,,,,,,,,,0,84,84,104,1,,,,,,,,,,,,,,,,,,,,,,,,,,
,,,,,,,,,,,,l,Correct!,,,,,,t5.png,t2.png,3,0.0000131,40,Female,2020-10-19_20h54.56.973,torte-q,2020.1.3,Win32,60,13276,0.622785,,,,,,,,,,,,,,0,85,85,119,1,,,,,,,,,,,,,,,,,,,,,,,,,,
,,,,,,,,,,,,l,Incorrect,,,,,,t2.png,t1.png,1,0.9,40,Female,2020-10-19_20h54.56.973,torte-q,2020.1.3,Win32,60,13276,0.67342,,,,,,,,,,,,,,0,86,86,118,1,,,,,,,,,,,,,,,,,,,,,,,,,,
,,,,,,,,,,,,a,Incorrect,,,,,,t1.png,t5.png,4,9.55E-11,40,Female,2020-10-19_20h54.56.973,torte-q,2020.1.3,Win32,60,13276,0.72637,,,,,,,,,,,,,,0,87,87,55,1,,,,,,,,,,,,,,,,,,,,,,,,,,
,,,,,,,,,,,,l,Correct!,,,,,,t2.png,t5.png,3,0.0000131,40,Female,2020-10-19_20h54.56.973,torte-q,2020.1.3,Win32,60,13276,0.660935,,,,,,,,,,,,,,0,88,88,40,1,,,,,,,,,,,,,,,,,,,,,,,,,,
,,,,,,,,,,,,l,Incorrect,,,,,,t1.png,t2.png,1,0.90025,40,Female,2020-10-19_20h54.56.973,torte-q,2020.1.3,Win32,60,13276,0.653805,,,,,,,,,,,,,,0,89,89,112,1,,,,,,,,,,,,,,,,,,,,,,,,,,
,,,,,,,,,,,,a,Incorrect,,,,,,t5.png,t1.png,4,9.55E-11,40,Female,2020-10-19_20h54.56.973,torte-q,2020.1.3,Win32,60,13276,0.852905,,,,,,,,,,,,,,0,90,90,102,1,,,,,,,,,,,,,,,,,,,,,,,,,,
,,,,,,,,,,,,a,Correct!,,,,,,t5.png,t4.png,1,0.90025,40,Female,2020-10-19_20h54.56.973,torte-q,2020.1.3,Win32,60,13276,0.91942,,,,,,,,,,,,,,0,91,91,26,1,,,,,,,,,,,,,,,,,,,,,,,,,,
,,,,,,,,,,,,l,Correct!,,,,,,t5.png,t1.png,4,9.55E-11,40,Female,2020-10-19_20h54.56.973,torte-q,2020.1.3,Win32,60,13276,1.150445,,,,,,,,,,,,,,0,92,92,71,1,,,,,,,,,,,,,,,,,,,,,,,,,,
,,,,,,,,,,,,a,Incorrect,,,,,,t5.png,t3.png,2,0.056466,40,Female,2020-10-19_20h54.56.973,torte-q,2020.1.3,Win32,60,13276,0.84195,,,,,,,,,,,,,,0,93,93,56,1,,,,,,,,,,,,,,,,,,,,,,,,,,
,,,,,,,,,,,,l,Incorrect,,,,,,t2.png,t1.png,1,0.90025,40,Female,2020-10-19_20h54.56.973,torte-q,2020.1.3,Win32,60,13276,0.86463,,,,,,,,,,,,,,0,94,94,19,1,,,,,,,,,,,,,,,,,,,,,,,,,,
,,,,,,,,,,,,a,Correct!,,,,,,t2.png,t2.png,0,0.98115,40,Female,2020-10-19_20h54.56.973,torte-q,2020.1.3,Win32,60,13276,1.19135,,,,,,,,,,,,,,0,95,95,7,1,,,,,,,,,,,,,,,,,,,,,,,,,,
,,,,,,,,,,,,a,Correct!,,,,,,t4.png,t5.png,1,0.90025,40,Female,2020-10-19_20h54.56.973,torte-q,2020.1.3,Win32,60,13276,0.85075,,,,,,,,,,,,,,0,96,96,113,1,,,,,,,,,,,,,,,,,,,,,,,,,,
,,,,,,,,,,,,l,Correct!,,,,,,t1.png,t4.png,3,0.0000131,40,Female,2020-10-19_20h54.56.973,torte-q,2020.1.3,Win32,60,13276,0.74748,,,,,,,,,,,,,,0,97,97,50,1,,,,,,,,,,,,,,,,,,,,,,,,,,
,,,,,,,,,,,,a,Incorrect,,,,,,t4.png,t1.png,3,0.0000131,40,Female,2020-10-19_20h54.56.973,torte-q,2020.1.3,Win32,60,13276,0.678135,,,,,,,,,,,,,,0,98,98,13,1,,,,,,,,,,,,,,,,,,,,,,,,,,
,,,,,,,,,,,,l,Correct!,,,,,,t1.png,t4.png,3,0.0000131,40,Female,2020-10-19_20h54.56.973,torte-q,2020.1.3,Win32,60,13276,0.85072,,,,,,,,,,,,,,0,99,99,17,1,,,,,,,,,,,,,,,,,,,,,,,,,,
,,,,,,,,,,,,a,Incorrect,,,,,,t2.png,t4.png,2,0.059078,40,Female,2020-10-19_20h54.56.973,torte-q,2020.1.3,Win32,60,13276,1.005945,,,,,,,,,,,,,,0,100,100,24,1,,,,,,,,,,,,,,,,,,,,,,,,,,
,,,,,,,,,,,,a,Correct!,,,,,,t1.png,t1.png,0,0.97829,40,Female,2020-10-19_20h54.56.973,torte-q,2020.1.3,Win32,60,13276,1.115205,,,,,,,,,,,,,,0,101,101,78,1,,,,,,,,,,,,,,,,,,,,,,,,,,
,,,,,,,,,,,,l,Correct!,,,,,,t1.png,t4.png,3,0.0000131,40,Female,2020-10-19_20h54.56.973,torte-q,2020.1.3,Win32,60,13276,0.761735,,,,,,,,,,,,,,0,102,102,81,1,,,,,,,,,,,,,,,,,,,,,,,,,,
,,,,,,,,,,,,a,Incorrect,,,,,,t5.png,t3.png,2,0.056466,40,Female,2020-10-19_20h54.56.973,torte-q,2020.1.3,Win32,60,13276,1.533055,,,,,,,,,,,,,,0,103,103,114,1,,,,,,,,,,,,,,,,,,,,,,,,,,
,,,,,,,,,,,,l,Correct!,,,,,,t2.png,t4.png,2,0.059078,40,Female,2020-10-19_20h54.56.973,torte-q,2020.1.3,Win32,60,13276,0.72884,,,,,,,,,,,,,,0,104,104,77,1,,,,,,,,,,,,,,,,,,,,,,,,,,
,,,,,,,,,,,,l,Incorrect,,,,,,t3.png,t2.png,1,0.90855,40,Female,2020-10-19_20h54.56.973,torte-q,2020.1.3,Win32,60,13276,1.457645,,,,,,,,,,,,,,0,105,105,53,1,,,,,,,,,,,,,,,,,,,,,,,,,,
,,,,,,,,,,,,a,Incorrect,,,,,,t1.png,t5.png,4,9.55E-11,40,Female,2020-10-19_20h54.56.973,torte-q,2020.1.3,Win32,60,13276,0.85278,,,,,,,,,,,,,,0,106,106,16,1,,,,,,,,,,,,,,,,,,,,,,,,,,
,,,,,,,,,,,,a,Incorrect,,,,,,t5.png,t1.png,4,9.55E-11,40,Female,2020-10-19_20h54.56.973,torte-q,2020.1.3,Win32,60,13276,1.58661,,,,,,,,,,,,,,0,107,107,43,1,,,,,,,,,,,,,,,,,,,,,,,,,,
,,,,,,,,,,,,a,Incorrect,,,,,,t5.png,t4.png,1,0.9,40,Female,2020-10-19_20h54.56.973,torte-q,2020.1.3,Win32,60,13276,1.085885,,,,,,,,,,,,,,0,108,108,49,1,,,,,,,,,,,,,,,,,,,,,,,,,,
,,,,,,,,,,,,l,Correct!,,,,,,t4.png,t2.png,2,0.0591,40,Female,2020-10-19_20h54.56.973,torte-q,2020.1.3,Win32,60,13276,0.720325,,,,,,,,,,,,,,0,109,109,36,1,,,,,,,,,,,,,,,,,,,,,,,,,,
,,,,,,,,,,,,l,Correct!,,,,,,t2.png,t5.png,3,0.0000131,40,Female,2020-10-19_20h54.56.973,torte-q,2020.1.3,Win32,60,13276,0.727645,,,,,,,,,,,,,,0,110,110,66,1,,,,,,,,,,,,,,,,,,,,,,,,,,
,,,,,,,,,,,,a,Correct!,,,,,,t3.png,t4.png,1,0.90855,40,Female,2020-10-19_20h54.56.973,torte-q,2020.1.3,Win32,60,13276,1.20448,,,,,,,,,,,,,,0,111,111,84,1,,,,,,,,,,,,,,,,,,,,,,,,,,
,,,,,,,,,,,,a,Incorrect,,,,,,t4.png,t3.png,1,0.90855,40,Female,2020-10-19_20h54.56.973,torte-q,2020.1.3,Win32,60,13276,1.0453,,,,,,,,,,,,,,0,112,112,75,1,,,,,,,,,,,,,,,,,,,,,,,,,,
,,,,,,,,,,,,l,Incorrect,,,,,,t2.png,t2.png,0,0.98115,40,Female,2020-10-19_20h54.56.973,torte-q,2020.1.3,Win32,60,13276,1.45405,,,,,,,,,,,,,,0,113,113,59,1,,,,,,,,,,,,,,,,,,,,,,,,,,
,,,,,,,,,,,,a,Correct!,,,,,,t1.png,t1.png,0,0.97829,40,Female,2020-10-19_20h54.56.973,torte-q,2020.1.3,Win32,60,13276,1.30068,,,,,,,,,,,,,,0,114,114,9,1,,,,,,,,,,,,,,,,,,,,,,,,,,
,,,,,,,,,,,,a,Correct!,,,,,,t5.png,t5.png,0,0.97829,40,Female,2020-10-19_20h54.56.973,torte-q,2020.1.3,Win32,60,13276,0.75232,,,,,,,,,,,,,,0,115,115,25,1,,,,,,,,,,,,,,,,,,,,,,,,,,
,,,,,,,,,,,,a,Correct!,,,,,,t5.png,t5.png,0,0.97829,40,Female,2020-10-19_20h54.56.973,torte-q,2020.1.3,Win32,60,13276,1.002165,,,,,,,,,,,,,,0,116,116,73,1,,,,,,,,,,,,,,,,,,,,,,,,,,
,,,,,,,,,,,,l,Correct!,,,,,,t2.png,t3.png,1,0.909,40,Female,2020-10-19_20h54.56.973,torte-q,2020.1.3,Win32,60,13276,0.86848,,,,,,,,,,,,,,0,117,117,74,1,,,,,,,,,,,,,,,,,,,,,,,,,,
,,,,,,,,,,,,a,Incorrect,,,,,,t2.png,t4.png,2,0.059078,40,Female,2020-10-19_20h54.56.973,torte-q,2020.1.3,Win32,60,13276,0.783705,,,,,,,,,,,,,,0,118,118,37,1,,,,,,,,,,,,,,,,,,,,,,,,,,
,,,,,,,,,,,,a,Correct!,,,,,,t4.png,t3.png,1,0.909,40,Female,2020-10-19_20h54.56.973,torte-q,2020.1.3,Win32,60,13276,0.72436,,,,,,,,,,,,,,0,119,119,46,1,,,,,,,,,,,,,,,,,,,,,,,,,,
,,,,,,,,,,,,,,,,,,,,,,,40,Female,2020-10-19_20h54.56.973,torte-q,2020.1.3,Win32,60,13276,,space,1.10386,,,,,,,,,,,,,,,,,4.009000092,7.74423,-82.39994286,-120.0000072,1,0,0,s6,-122.7999923,-73.60000646,1,0,0,t4,183.6000123,-108.400007,1,0,0,proceed,space,12.107005,space,1.355635,space,0.918765
