key_resp_8.keys,key_resp_8.rt,key_resp_9.keys,key_resp_9.rt,key_resp_10.keys,key_resp_10.rt,key_resp_11.keys,key_resp_11.rt,key_resp_2.keys,key_resp_2.rt,key_resp_3.keys,key_resp_3.rt,key_resp.keys,Feedback,train.thisRepN,train.thisTrialN,train.thisN,train.thisIndex,train.ran,torta_sx,torta_dx,difference,probability,age,gender,date,expName,psychopyVersion,OS,frameRate,participant,key_resp.rt,key_resp_15.keys,key_resp_15.rt,key_resp_6.keys,key_resp_6.rt,test1.thisRepN,test1.thisTrialN,test1.thisN,test1.thisIndex,test1.ran,key_resp_16.keys,key_resp_16.rt,key_resp_7.keys,key_resp_7.rt,test2.thisRepN,test2.thisTrialN,test2.thisN,test2.thisIndex,test2.ran,rating.response,rating.rt,mouse.x,mouse.y,mouse.leftButton,mouse.midButton,mouse.rightButton,mouse.clicked_name,mouse_2.x,mouse_2.y,mouse_2.leftButton,mouse_2.midButton,mouse_2.rightButton,mouse_2.clicked_name,mouse_3.x,mouse_3.y,mouse_3.leftButton,mouse_3.midButton,mouse_3.rightButton,mouse_3.clicked_name,key_resp_12.keys,key_resp_12.rt,key_resp_13.keys,key_resp_13.rt,key_resp_14.keys,key_resp_14.rt
space,41.99162,space,43.906835,space,1.07473,space,2.91992,return,41.26445,space,58.687885,,Too slow :(,0,0,0,49,1,t4.png,t5.png,1,0.9,20,female ,2020-10-17_18h26.44.476,torte-q,2020.1.3,Win32,60,13360,,,,,,,,,,,,,,,,,,,,,,,,,,,,,,,,,,,,,,,,,,,,,
,,,,,,,,,,,,a,Correct!,0,1,1,62,1,t5.png,t5.png,0,0.978,20,female ,2020-10-17_18h26.44.476,torte-q,2020.1.3,Win32,60,13360,0.13293,,,,,,,,,,,,,,,,,,,,,,,,,,,,,,,,,,,,,,,,,,,,
,,,,,,,,,,,,l,Incorrect,0,2,2,8,1,t3.png,t2.png,1,0.90855,20,female ,2020-10-17_18h26.44.476,torte-q,2020.1.3,Win32,60,13360,1.40354,,,,,,,,,,,,,,,,,,,,,,,,,,,,,,,,,,,,,,,,,,,,
,,,,,,,,,,,,a,Incorrect,0,3,3,26,1,t4.png,t2.png,2,0.0591,20,female ,2020-10-17_18h26.44.476,torte-q,2020.1.3,Win32,60,13360,0.765985,,,,,,,,,,,,,,,,,,,,,,,,,,,,,,,,,,,,,,,,,,,,
,,,,,,,,,,,,a,Incorrect,0,4,4,39,1,t3.png,t2.png,1,0.90855,20,female ,2020-10-17_18h26.44.476,torte-q,2020.1.3,Win32,60,13360,1.000565,,,,,,,,,,,,,,,,,,,,,,,,,,,,,,,,,,,,,,,,,,,,
,,,,,,,,,,,,a,Incorrect,0,5,5,6,1,t1.png,t4.png,3,0.0000131,20,female ,2020-10-17_18h26.44.476,torte-q,2020.1.3,Win32,60,13360,0.843255,,,,,,,,,,,,,,,,,,,,,,,,,,,,,,,,,,,,,,,,,,,,
,,,,,,,,,,,,l,Incorrect,0,6,6,20,1,t2.png,t3.png,1,0.90855,20,female ,2020-10-17_18h26.44.476,torte-q,2020.1.3,Win32,60,13360,0.585875,,,,,,,,,,,,,,,,,,,,,,,,,,,,,,,,,,,,,,,,,,,,
,,,,,,,,,,,,l,Correct!,0,7,7,37,1,t1.png,t4.png,3,0.0000131,20,female ,2020-10-17_18h26.44.476,torte-q,2020.1.3,Win32,60,13360,1.72223,,,,,,,,,,,,,,,,,,,,,,,,,,,,,,,,,,,,,,,,,,,,
,,,,,,,,,,,,l,Correct!,0,8,8,90,1,t1.png,t5.png,4,9.55E-11,20,female ,2020-10-17_18h26.44.476,torte-q,2020.1.3,Win32,60,13360,1.177895,,,,,,,,,,,,,,,,,,,,,,,,,,,,,,,,,,,,,,,,,,,,
,,,,,,,,,,,,l,Incorrect,0,9,9,22,1,t2.png,t3.png,1,0.90855,20,female ,2020-10-17_18h26.44.476,torte-q,2020.1.3,Win32,60,13360,1.419285,,,,,,,,,,,,,,,,,,,,,,,,,,,,,,,,,,,,,,,,,,,,
,,,,,,,,,,,,l,Correct!,0,10,10,98,1,t2.png,t4.png,2,0.0591,20,female ,2020-10-17_18h26.44.476,torte-q,2020.1.3,Win32,60,13360,0.8873,,,,,,,,,,,,,,,,,,,,,,,,,,,,,,,,,,,,,,,,,,,,
,,,,,,,,,,,,a,Correct!,0,11,11,74,1,t5.png,t4.png,1,0.9,20,female ,2020-10-17_18h26.44.476,torte-q,2020.1.3,Win32,60,13360,0.99023,,,,,,,,,,,,,,,,,,,,,,,,,,,,,,,,,,,,,,,,,,,,
,,,,,,,,,,,,l,Incorrect,0,12,12,64,1,t1.png,t1.png,0,0.978,20,female ,2020-10-17_18h26.44.476,torte-q,2020.1.3,Win32,60,13360,1.809135,,,,,,,,,,,,,,,,,,,,,,,,,,,,,,,,,,,,,,,,,,,,
,,,,,,,,,,,,a,Correct!,0,13,13,76,1,t3.png,t2.png,1,0.90855,20,female ,2020-10-17_18h26.44.476,torte-q,2020.1.3,Win32,60,13360,1.052325,,,,,,,,,,,,,,,,,,,,,,,,,,,,,,,,,,,,,,,,,,,,
,,,,,,,,,,,,a,Incorrect,0,14,14,87,1,t5.png,t1.png,4,9.55E-11,20,female ,2020-10-17_18h26.44.476,torte-q,2020.1.3,Win32,60,13360,0.81894,,,,,,,,,,,,,,,,,,,,,,,,,,,,,,,,,,,,,,,,,,,,
,,,,,,,,,,,,a,Correct!,0,15,15,21,1,t5.png,t4.png,1,0.90025,20,female ,2020-10-17_18h26.44.476,torte-q,2020.1.3,Win32,60,13360,1.38721,,,,,,,,,,,,,,,,,,,,,,,,,,,,,,,,,,,,,,,,,,,,
,,,,,,,,,,,,l,Correct!,0,16,16,89,1,t1.png,t4.png,3,0.0000131,20,female ,2020-10-17_18h26.44.476,torte-q,2020.1.3,Win32,60,13360,0.8558,,,,,,,,,,,,,,,,,,,,,,,,,,,,,,,,,,,,,,,,,,,,
,,,,,,,,,,,,a,Correct!,0,17,17,10,1,t2.png,t3.png,1,0.90855,20,female ,2020-10-17_18h26.44.476,torte-q,2020.1.3,Win32,60,13360,1.30377,,,,,,,,,,,,,,,,,,,,,,,,,,,,,,,,,,,,,,,,,,,,
,,,,,,,,,,,,a,Correct!,0,18,18,58,1,t5.png,t4.png,1,0.90025,20,female ,2020-10-17_18h26.44.476,torte-q,2020.1.3,Win32,60,13360,1.203825,,,,,,,,,,,,,,,,,,,,,,,,,,,,,,,,,,,,,,,,,,,,
,,,,,,,,,,,,a,Incorrect,0,19,19,56,1,t5.png,t1.png,4,9.55E-11,20,female ,2020-10-17_18h26.44.476,torte-q,2020.1.3,Win32,60,13360,0.833535,,,,,,,,,,,,,,,,,,,,,,,,,,,,,,,,,,,,,,,,,,,,
,,,,,,,,,,,,a,Incorrect,0,20,20,11,1,t1.png,t4.png,3,0.0000131,20,female ,2020-10-17_18h26.44.476,torte-q,2020.1.3,Win32,60,13360,1.721215,,,,,,,,,,,,,,,,,,,,,,,,,,,,,,,,,,,,,,,,,,,,
,,,,,,,,,,,,l,Correct!,0,21,21,17,1,t1.png,t4.png,3,0.0000131,20,female ,2020-10-17_18h26.44.476,torte-q,2020.1.3,Win32,60,13360,0.72248,,,,,,,,,,,,,,,,,,,,,,,,,,,,,,,,,,,,,,,,,,,,
,,,,,,,,,,,,a,Incorrect,0,22,22,92,1,t2.png,t3.png,1,0.909,20,female ,2020-10-17_18h26.44.476,torte-q,2020.1.3,Win32,60,13360,1.221925,,,,,,,,,,,,,,,,,,,,,,,,,,,,,,,,,,,,,,,,,,,,
,,,,,,,,,,,,l,Correct!,0,23,23,31,1,t1.png,t5.png,4,9.55E-11,20,female ,2020-10-17_18h26.44.476,torte-q,2020.1.3,Win32,60,13360,0.74271,,,,,,,,,,,,,,,,,,,,,,,,,,,,,,,,,,,,,,,,,,,,
,,,,,,,,,,,,a,Incorrect,0,24,24,111,1,t5.png,t1.png,4,9.55E-11,20,female ,2020-10-17_18h26.44.476,torte-q,2020.1.3,Win32,60,13360,0.92379,,,,,,,,,,,,,,,,,,,,,,,,,,,,,,,,,,,,,,,,,,,,
,,,,,,,,,,,,l,Incorrect,0,25,25,100,1,t4.png,t5.png,1,0.90025,20,female ,2020-10-17_18h26.44.476,torte-q,2020.1.3,Win32,60,13360,1.13703,,,,,,,,,,,,,,,,,,,,,,,,,,,,,,,,,,,,,,,,,,,,
,,,,,,,,,,,,l,Incorrect,0,26,26,77,1,t1.png,t1.png,0,0.97829,20,female ,2020-10-17_18h26.44.476,torte-q,2020.1.3,Win32,60,13360,1.574005,,,,,,,,,,,,,,,,,,,,,,,,,,,,,,,,,,,,,,,,,,,,
,,,,,,,,,,,,l,Correct!,0,27,27,57,1,t2.png,t4.png,2,0.059078,20,female ,2020-10-17_18h26.44.476,torte-q,2020.1.3,Win32,60,13360,1.253315,,,,,,,,,,,,,,,,,,,,,,,,,,,,,,,,,,,,,,,,,,,,
,,,,,,,,,,,,l,Incorrect,0,28,28,65,1,t4.png,t5.png,1,0.90025,20,female ,2020-10-17_18h26.44.476,torte-q,2020.1.3,Win32,60,13360,2.27395,,,,,,,,,,,,,,,,,,,,,,,,,,,,,,,,,,,,,,,,,,,,
,,,,,,,,,,,,l,Correct!,0,29,29,52,1,t2.png,t4.png,2,0.059078,20,female ,2020-10-17_18h26.44.476,torte-q,2020.1.3,Win32,60,13360,1.503855,,,,,,,,,,,,,,,,,,,,,,,,,,,,,,,,,,,,,,,,,,,,
,,,,,,,,,,,,a,Correct!,0,30,30,71,1,t5.png,t5.png,0,0.97829,20,female ,2020-10-17_18h26.44.476,torte-q,2020.1.3,Win32,60,13360,1.142775,,,,,,,,,,,,,,,,,,,,,,,,,,,,,,,,,,,,,,,,,,,,
,,,,,,,,,,,,,Too slow :(,0,31,31,9,1,t4.png,t5.png,1,0.9,20,female ,2020-10-17_18h26.44.476,torte-q,2020.1.3,Win32,60,13360,,,,,,,,,,,,,,,,,,,,,,,,,,,,,,,,,,,,,,,,,,,,,
,,,,,,,,,,,,l,Correct!,0,32,32,102,1,t4.png,t2.png,2,0.059078,20,female ,2020-10-17_18h26.44.476,torte-q,2020.1.3,Win32,60,13360,1.206975,,,,,,,,,,,,,,,,,,,,,,,,,,,,,,,,,,,,,,,,,,,,
,,,,,,,,,,,,a,Correct!,0,33,33,75,1,t1.png,t1.png,0,0.97829,20,female ,2020-10-17_18h26.44.476,torte-q,2020.1.3,Win32,60,13360,1.4765,,,,,,,,,,,,,,,,,,,,,,,,,,,,,,,,,,,,,,,,,,,,
,,,,,,,,,,,,l,Incorrect,0,34,34,85,1,t3.png,t2.png,1,0.90855,20,female ,2020-10-17_18h26.44.476,torte-q,2020.1.3,Win32,60,13360,1.054805,,,,,,,,,,,,,,,,,,,,,,,,,,,,,,,,,,,,,,,,,,,,
,,,,,,,,,,,,l,Incorrect,0,35,35,18,1,t4.png,t5.png,1,0.90025,20,female ,2020-10-17_18h26.44.476,torte-q,2020.1.3,Win32,60,13360,2.306415,,,,,,,,,,,,,,,,,,,,,,,,,,,,,,,,,,,,,,,,,,,,
,,,,,,,,,,,,a,Incorrect,0,36,36,46,1,t4.png,t2.png,2,0.059078,20,female ,2020-10-17_18h26.44.476,torte-q,2020.1.3,Win32,60,13360,1.057495,,,,,,,,,,,,,,,,,,,,,,,,,,,,,,,,,,,,,,,,,,,,
,,,,,,,,,,,,l,Correct!,0,37,37,88,1,t3.png,t1.png,2,0.056466,20,female ,2020-10-17_18h26.44.476,torte-q,2020.1.3,Win32,60,13360,1.141195,,,,,,,,,,,,,,,,,,,,,,,,,,,,,,,,,,,,,,,,,,,,
,,,,,,,,,,,,a,Correct!,0,38,38,114,1,t2.png,t3.png,1,0.90855,20,female ,2020-10-17_18h26.44.476,torte-q,2020.1.3,Win32,60,13360,1.509525,,,,,,,,,,,,,,,,,,,,,,,,,,,,,,,,,,,,,,,,,,,,
,,,,,,,,,,,,l,Correct!,0,39,39,86,1,t3.png,t1.png,2,0.056466,20,female ,2020-10-17_18h26.44.476,torte-q,2020.1.3,Win32,60,13360,0.93227,,,,,,,,,,,,,,,,,,,,,,,,,,,,,,,,,,,,,,,,,,,,
,,,,,,,,,,,,l,Correct!,0,40,40,30,1,t3.png,t1.png,2,0.056466,20,female ,2020-10-17_18h26.44.476,torte-q,2020.1.3,Win32,60,13360,0.848505,,,,,,,,,,,,,,,,,,,,,,,,,,,,,,,,,,,,,,,,,,,,
,,,,,,,,,,,,a,Correct!,0,41,41,7,1,t4.png,t5.png,1,0.90025,20,female ,2020-10-17_18h26.44.476,torte-q,2020.1.3,Win32,60,13360,1.59366,,,,,,,,,,,,,,,,,,,,,,,,,,,,,,,,,,,,,,,,,,,,
,,,,,,,,,,,,a,Incorrect,0,42,42,69,1,t4.png,t2.png,2,0.059078,20,female ,2020-10-17_18h26.44.476,torte-q,2020.1.3,Win32,60,13360,1.091795,,,,,,,,,,,,,,,,,,,,,,,,,,,,,,,,,,,,,,,,,,,,
,,,,,,,,,,,,a,Incorrect,0,43,43,50,1,t5.png,t1.png,4,9.55E-11,20,female ,2020-10-17_18h26.44.476,torte-q,2020.1.3,Win32,60,13360,0.888155,,,,,,,,,,,,,,,,,,,,,,,,,,,,,,,,,,,,,,,,,,,,
,,,,,,,,,,,,l,Incorrect,0,44,44,59,1,t5.png,t4.png,1,0.9,20,female ,2020-10-17_18h26.44.476,torte-q,2020.1.3,Win32,60,13360,1.379585,,,,,,,,,,,,,,,,,,,,,,,,,,,,,,,,,,,,,,,,,,,,
,,,,,,,,,,,,l,Incorrect,0,45,45,45,1,t3.png,t2.png,1,0.90855,20,female ,2020-10-17_18h26.44.476,torte-q,2020.1.3,Win32,60,13360,0.852015,,,,,,,,,,,,,,,,,,,,,,,,,,,,,,,,,,,,,,,,,,,,
,,,,,,,,,,,,l,Incorrect,0,46,46,96,1,t1.png,t1.png,0,0.97829,20,female ,2020-10-17_18h26.44.476,torte-q,2020.1.3,Win32,60,13360,0.93346,,,,,,,,,,,,,,,,,,,,,,,,,,,,,,,,,,,,,,,,,,,,
,,,,,,,,,,,,a,Correct!,0,47,47,116,1,t5.png,t4.png,1,0.90025,20,female ,2020-10-17_18h26.44.476,torte-q,2020.1.3,Win32,60,13360,0.927145,,,,,,,,,,,,,,,,,,,,,,,,,,,,,,,,,,,,,,,,,,,,
,,,,,,,,,,,,l,Correct!,0,48,48,1,1,t2.png,t4.png,2,0.059078,20,female ,2020-10-17_18h26.44.476,torte-q,2020.1.3,Win32,60,13360,1.25391,,,,,,,,,,,,,,,,,,,,,,,,,,,,,,,,,,,,,,,,,,,,
,,,,,,,,,,,,l,Incorrect,0,49,49,32,1,t4.png,t5.png,1,0.90025,20,female ,2020-10-17_18h26.44.476,torte-q,2020.1.3,Win32,60,13360,1.07068,,,,,,,,,,,,,,,,,,,,,,,,,,,,,,,,,,,,,,,,,,,,
,,,,,,,,,,,,a,Incorrect,0,50,50,101,1,t4.png,t5.png,1,0.90025,20,female ,2020-10-17_18h26.44.476,torte-q,2020.1.3,Win32,60,13360,1.083545,,,,,,,,,,,,,,,,,,,,,,,,,,,,,,,,,,,,,,,,,,,,
,,,,,,,,,,,,a,Incorrect,0,51,51,61,1,t1.png,t4.png,3,0.0000131,20,female ,2020-10-17_18h26.44.476,torte-q,2020.1.3,Win32,60,13360,1.418775,,,,,,,,,,,,,,,,,,,,,,,,,,,,,,,,,,,,,,,,,,,,
,,,,,,,,,,,,a,Incorrect,0,52,52,12,1,t5.png,t1.png,4,9.55E-11,20,female ,2020-10-17_18h26.44.476,torte-q,2020.1.3,Win32,60,13360,0.882985,,,,,,,,,,,,,,,,,,,,,,,,,,,,,,,,,,,,,,,,,,,,
,,,,,,,,,,,,l,Incorrect,0,53,53,107,1,t1.png,t1.png,0,0.978,20,female ,2020-10-17_18h26.44.476,torte-q,2020.1.3,Win32,60,13360,0.852955,,,,,,,,,,,,,,,,,,,,,,,,,,,,,,,,,,,,,,,,,,,,
,,,,,,,,,,,,l,Correct!,0,54,54,55,1,t2.png,t4.png,2,0.059078,20,female ,2020-10-17_18h26.44.476,torte-q,2020.1.3,Win32,60,13360,1.214075,,,,,,,,,,,,,,,,,,,,,,,,,,,,,,,,,,,,,,,,,,,,
,,,,,,,,,,,,a,Incorrect,0,55,55,3,1,t1.png,t5.png,4,9.55E-11,20,female ,2020-10-17_18h26.44.476,torte-q,2020.1.3,Win32,60,13360,1.2921,,,,,,,,,,,,,,,,,,,,,,,,,,,,,,,,,,,,,,,,,,,,
,,,,,,,,,,,,l,Correct!,0,56,56,79,1,t3.png,t2.png,1,0.909,20,female ,2020-10-17_18h26.44.476,torte-q,2020.1.3,Win32,60,13360,1.0075,,,,,,,,,,,,,,,,,,,,,,,,,,,,,,,,,,,,,,,,,,,,
,,,,,,,,,,,,l,Incorrect,0,57,57,81,1,t1.png,t1.png,0,0.97829,20,female ,2020-10-17_18h26.44.476,torte-q,2020.1.3,Win32,60,13360,0.940465,,,,,,,,,,,,,,,,,,,,,,,,,,,,,,,,,,,,,,,,,,,,
,,,,,,,,,,,,a,Incorrect,0,58,58,4,1,t1.png,t5.png,4,9.55E-11,20,female ,2020-10-17_18h26.44.476,torte-q,2020.1.3,Win32,60,13360,1.190905,,,,,,,,,,,,,,,,,,,,,,,,,,,,,,,,,,,,,,,,,,,,
,,,,,,,,,,,,a,Incorrect,0,59,59,67,1,t1.png,t5.png,4,9.55E-11,20,female ,2020-10-17_18h26.44.476,torte-q,2020.1.3,Win32,60,13360,1.077455,,,,,,,,,,,,,,,,,,,,,,,,,,,,,,,,,,,,,,,,,,,,
,,,,,,,,,,,,a,Correct!,0,60,60,106,1,t2.png,t3.png,1,0.90855,20,female ,2020-10-17_18h26.44.476,torte-q,2020.1.3,Win32,60,13360,2.19788,,,,,,,,,,,,,,,,,,,,,,,,,,,,,,,,,,,,,,,,,,,,
,,,,,,,,,,,,l,Incorrect,0,61,61,34,1,t5.png,t4.png,1,0.9,20,female ,2020-10-17_18h26.44.476,torte-q,2020.1.3,Win32,60,13360,1.30497,,,,,,,,,,,,,,,,,,,,,,,,,,,,,,,,,,,,,,,,,,,,
,,,,,,,,,,,,a,Incorrect,0,62,62,35,1,t1.png,t4.png,3,0.0000131,20,female ,2020-10-17_18h26.44.476,torte-q,2020.1.3,Win32,60,13360,1.07489,,,,,,,,,,,,,,,,,,,,,,,,,,,,,,,,,,,,,,,,,,,,
,,,,,,,,,,,,l,Incorrect,0,63,63,42,1,t5.png,t4.png,1,0.90025,20,female ,2020-10-17_18h26.44.476,torte-q,2020.1.3,Win32,60,13360,1.136235,,,,,,,,,,,,,,,,,,,,,,,,,,,,,,,,,,,,,,,,,,,,
,,,,,,,,,,,,a,Correct!,0,64,64,72,1,t4.png,t2.png,2,0.059078,20,female ,2020-10-17_18h26.44.476,torte-q,2020.1.3,Win32,60,13360,1.306075,,,,,,,,,,,,,,,,,,,,,,,,,,,,,,,,,,,,,,,,,,,,
,,,,,,,,,,,,l,Correct!,0,65,65,91,1,t1.png,t4.png,3,0.0000131,20,female ,2020-10-17_18h26.44.476,torte-q,2020.1.3,Win32,60,13360,0.9917,,,,,,,,,,,,,,,,,,,,,,,,,,,,,,,,,,,,,,,,,,,,
,,,,,,,,,,,,l,Correct!,0,66,66,103,1,t3.png,t1.png,2,0.056466,20,female ,2020-10-17_18h26.44.476,torte-q,2020.1.3,Win32,60,13360,1.10012,,,,,,,,,,,,,,,,,,,,,,,,,,,,,,,,,,,,,,,,,,,,
,,,,,,,,,,,,l,Correct!,0,67,67,83,1,t3.png,t1.png,2,0.056466,20,female ,2020-10-17_18h26.44.476,torte-q,2020.1.3,Win32,60,13360,0.95282,,,,,,,,,,,,,,,,,,,,,,,,,,,,,,,,,,,,,,,,,,,,
,,,,,,,,,,,,l,Incorrect,0,68,68,44,1,t2.png,t3.png,1,0.909,20,female ,2020-10-17_18h26.44.476,torte-q,2020.1.3,Win32,60,13360,1.654455,,,,,,,,,,,,,,,,,,,,,,,,,,,,,,,,,,,,,,,,,,,,
,,,,,,,,,,,,a,Correct!,0,69,69,29,1,t5.png,t5.png,0,0.97829,20,female ,2020-10-17_18h26.44.476,torte-q,2020.1.3,Win32,60,13360,1.929605,,,,,,,,,,,,,,,,,,,,,,,,,,,,,,,,,,,,,,,,,,,,
,,,,,,,,,,,,l,Correct!,0,70,70,43,1,t4.png,t2.png,2,0.059078,20,female ,2020-10-17_18h26.44.476,torte-q,2020.1.3,Win32,60,13360,1.53957,,,,,,,,,,,,,,,,,,,,,,,,,,,,,,,,,,,,,,,,,,,,
,,,,,,,,,,,,a,Correct!,0,71,71,28,1,t2.png,t3.png,1,0.909,20,female ,2020-10-17_18h26.44.476,torte-q,2020.1.3,Win32,60,13360,1.426025,,,,,,,,,,,,,,,,,,,,,,,,,,,,,,,,,,,,,,,,,,,,
,,,,,,,,,,,,a,Correct!,0,72,72,118,1,t5.png,t5.png,0,0.978,20,female ,2020-10-17_18h26.44.476,torte-q,2020.1.3,Win32,60,13360,1.05938,,,,,,,,,,,,,,,,,,,,,,,,,,,,,,,,,,,,,,,,,,,,
,,,,,,,,,,,,l,Incorrect,0,73,73,78,1,t1.png,t1.png,0,0.978,20,female ,2020-10-17_18h26.44.476,torte-q,2020.1.3,Win32,60,13360,1.423365,,,,,,,,,,,,,,,,,,,,,,,,,,,,,,,,,,,,,,,,,,,,
,,,,,,,,,,,,a,Incorrect,0,74,74,47,1,t4.png,t2.png,2,0.059078,20,female ,2020-10-17_18h26.44.476,torte-q,2020.1.3,Win32,60,13360,0.69269,,,,,,,,,,,,,,,,,,,,,,,,,,,,,,,,,,,,,,,,,,,,
,,,,,,,,,,,,l,Incorrect,0,75,75,15,1,t3.png,t2.png,1,0.90855,20,female ,2020-10-17_18h26.44.476,torte-q,2020.1.3,Win32,60,13360,1.070335,,,,,,,,,,,,,,,,,,,,,,,,,,,,,,,,,,,,,,,,,,,,
,,,,,,,,,,,,l,Correct!,0,76,76,80,1,t1.png,t4.png,3,0.0000131,20,female ,2020-10-17_18h26.44.476,torte-q,2020.1.3,Win32,60,13360,1.212165,,,,,,,,,,,,,,,,,,,,,,,,,,,,,,,,,,,,,,,,,,,,
,,,,,,,,,,,,a,Correct!,0,77,77,25,1,t5.png,t5.png,0,0.97829,20,female ,2020-10-17_18h26.44.476,torte-q,2020.1.3,Win32,60,13360,1.1187,,,,,,,,,,,,,,,,,,,,,,,,,,,,,,,,,,,,,,,,,,,,
,,,,,,,,,,,,a,Correct!,0,78,78,13,1,t5.png,t5.png,0,0.97829,20,female ,2020-10-17_18h26.44.476,torte-q,2020.1.3,Win32,60,13360,1.331175,,,,,,,,,,,,,,,,,,,,,,,,,,,,,,,,,,,,,,,,,,,,
,,,,,,,,,,,,l,Incorrect,0,79,79,95,1,t1.png,t1.png,0,0.978,20,female ,2020-10-17_18h26.44.476,torte-q,2020.1.3,Win32,60,13360,0.833765,,,,,,,,,,,,,,,,,,,,,,,,,,,,,,,,,,,,,,,,,,,,
,,,,,,,,,,,,l,Correct!,0,80,80,14,1,t2.png,t4.png,2,0.059078,20,female ,2020-10-17_18h26.44.476,torte-q,2020.1.3,Win32,60,13360,1.373895,,,,,,,,,,,,,,,,,,,,,,,,,,,,,,,,,,,,,,,,,,,,
,,,,,,,,,,,,a,Correct!,0,81,81,112,1,t1.png,t1.png,0,0.97829,20,female ,2020-10-17_18h26.44.476,torte-q,2020.1.3,Win32,60,13360,0.9286,,,,,,,,,,,,,,,,,,,,,,,,,,,,,,,,,,,,,,,,,,,,
,,,,,,,,,,,,l,Correct!,0,82,82,51,1,t3.png,t1.png,2,0.056466,20,female ,2020-10-17_18h26.44.476,torte-q,2020.1.3,Win32,60,13360,1.213575,,,,,,,,,,,,,,,,,,,,,,,,,,,,,,,,,,,,,,,,,,,,
,,,,,,,,,,,,a,Incorrect,0,83,83,23,1,t5.png,t4.png,1,0.90025,20,female ,2020-10-17_18h26.44.476,torte-q,2020.1.3,Win32,60,13360,1.272265,,,,,,,,,,,,,,,,,,,,,,,,,,,,,,,,,,,,,,,,,,,,
,,,,,,,,,,,,l,Correct!,0,84,84,82,1,t5.png,t1.png,4,9.55E-11,20,female ,2020-10-17_18h26.44.476,torte-q,2020.1.3,Win32,60,13360,1.20966,,,,,,,,,,,,,,,,,,,,,,,,,,,,,,,,,,,,,,,,,,,,
,,,,,,,,,,,,l,Correct!,0,85,85,68,1,t1.png,t4.png,3,0.0000131,20,female ,2020-10-17_18h26.44.476,torte-q,2020.1.3,Win32,60,13360,0.886895,,,,,,,,,,,,,,,,,,,,,,,,,,,,,,,,,,,,,,,,,,,,
,,,,,,,,,,,,a,Correct!,0,86,86,104,1,t2.png,t3.png,1,0.90855,20,female ,2020-10-17_18h26.44.476,torte-q,2020.1.3,Win32,60,13360,1.102995,,,,,,,,,,,,,,,,,,,,,,,,,,,,,,,,,,,,,,,,,,,,
,,,,,,,,,,,,a,Incorrect,0,87,87,108,1,t5.png,t1.png,4,9.55E-11,20,female ,2020-10-17_18h26.44.476,torte-q,2020.1.3,Win32,60,13360,1.23831,,,,,,,,,,,,,,,,,,,,,,,,,,,,,,,,,,,,,,,,,,,,
,,,,,,,,,,,,l,Correct!,0,88,88,5,1,t2.png,t4.png,2,0.059078,20,female ,2020-10-17_18h26.44.476,torte-q,2020.1.3,Win32,60,13360,0.90832,,,,,,,,,,,,,,,,,,,,,,,,,,,,,,,,,,,,,,,,,,,,
,,,,,,,,,,,,a,Correct!,0,89,89,110,1,t4.png,t5.png,1,0.90025,20,female ,2020-10-17_18h26.44.476,torte-q,2020.1.3,Win32,60,13360,1.50363,,,,,,,,,,,,,,,,,,,,,,,,,,,,,,,,,,,,,,,,,,,,
,,,,,,,,,,,,a,Correct!,0,90,90,48,1,t5.png,t5.png,0,0.97829,20,female ,2020-10-17_18h26.44.476,torte-q,2020.1.3,Win32,60,13360,1.34244,,,,,,,,,,,,,,,,,,,,,,,,,,,,,,,,,,,,,,,,,,,,
,,,,,,,,,,,,l,Incorrect,0,91,91,27,1,t3.png,t1.png,2,0.0565,20,female ,2020-10-17_18h26.44.476,torte-q,2020.1.3,Win32,60,13360,0.898765,,,,,,,,,,,,,,,,,,,,,,,,,,,,,,,,,,,,,,,,,,,,
,,,,,,,,,,,,a,Correct!,0,92,92,109,1,t5.png,t5.png,0,0.97829,20,female ,2020-10-17_18h26.44.476,torte-q,2020.1.3,Win32,60,13360,0.87356,,,,,,,,,,,,,,,,,,,,,,,,,,,,,,,,,,,,,,,,,,,,
,,,,,,,,,,,,a,Incorrect,0,93,93,99,1,t1.png,t5.png,4,9.55E-11,20,female ,2020-10-17_18h26.44.476,torte-q,2020.1.3,Win32,60,13360,1.286785,,,,,,,,,,,,,,,,,,,,,,,,,,,,,,,,,,,,,,,,,,,,
,,,,,,,,,,,,l,Correct!,0,94,94,24,1,t4.png,t2.png,2,0.059078,20,female ,2020-10-17_18h26.44.476,torte-q,2020.1.3,Win32,60,13360,1.23662,,,,,,,,,,,,,,,,,,,,,,,,,,,,,,,,,,,,,,,,,,,,
,,,,,,,,,,,,l,Incorrect,0,95,95,113,1,t5.png,t4.png,1,0.9,20,female ,2020-10-17_18h26.44.476,torte-q,2020.1.3,Win32,60,13360,1.286325,,,,,,,,,,,,,,,,,,,,,,,,,,,,,,,,,,,,,,,,,,,,
,,,,,,,,,,,,a,Correct!,0,96,96,70,1,t5.png,t5.png,0,0.978,20,female ,2020-10-17_18h26.44.476,torte-q,2020.1.3,Win32,60,13360,1.018065,,,,,,,,,,,,,,,,,,,,,,,,,,,,,,,,,,,,,,,,,,,,
,,,,,,,,,,,,l,Correct!,0,97,97,93,1,t2.png,t4.png,2,0.059078,20,female ,2020-10-17_18h26.44.476,torte-q,2020.1.3,Win32,60,13360,1.536275,,,,,,,,,,,,,,,,,,,,,,,,,,,,,,,,,,,,,,,,,,,,
,,,,,,,,,,,,a,Correct!,0,98,98,2,1,t3.png,t2.png,1,0.90855,20,female ,2020-10-17_18h26.44.476,torte-q,2020.1.3,Win32,60,13360,1.72026,,,,,,,,,,,,,,,,,,,,,,,,,,,,,,,,,,,,,,,,,,,,
,,,,,,,,,,,,a,Incorrect,0,99,99,119,1,t1.png,t5.png,4,9.55E-11,20,female ,2020-10-17_18h26.44.476,torte-q,2020.1.3,Win32,60,13360,1.35431,,,,,,,,,,,,,,,,,,,,,,,,,,,,,,,,,,,,,,,,,,,,
,,,,,,,,,,,,l,Correct!,0,100,100,63,1,t2.png,t3.png,1,0.909,20,female ,2020-10-17_18h26.44.476,torte-q,2020.1.3,Win32,60,13360,1.0844,,,,,,,,,,,,,,,,,,,,,,,,,,,,,,,,,,,,,,,,,,,,
,,,,,,,,,,,,a,Correct!,0,101,101,41,1,t3.png,t2.png,1,0.90855,20,female ,2020-10-17_18h26.44.476,torte-q,2020.1.3,Win32,60,13360,0.77519,,,,,,,,,,,,,,,,,,,,,,,,,,,,,,,,,,,,,,,,,,,,
,,,,,,,,,,,,a,Correct!,0,102,102,97,1,t5.png,t5.png,0,0.97829,20,female ,2020-10-17_18h26.44.476,torte-q,2020.1.3,Win32,60,13360,2.239785,,,,,,,,,,,,,,,,,,,,,,,,,,,,,,,,,,,,,,,,,,,,
,,,,,,,,,,,,a,Incorrect,0,103,103,19,1,t4.png,t2.png,2,0.059078,20,female ,2020-10-17_18h26.44.476,torte-q,2020.1.3,Win32,60,13360,1.092865,,,,,,,,,,,,,,,,,,,,,,,,,,,,,,,,,,,,,,,,,,,,
,,,,,,,,,,,,l,Correct!,0,104,104,94,1,t5.png,t1.png,4,9.55E-11,20,female ,2020-10-17_18h26.44.476,torte-q,2020.1.3,Win32,60,13360,1.03696,,,,,,,,,,,,,,,,,,,,,,,,,,,,,,,,,,,,,,,,,,,,
,,,,,,,,,,,,a,Correct!,0,105,105,84,1,t1.png,t1.png,0,0.97829,20,female ,2020-10-17_18h26.44.476,torte-q,2020.1.3,Win32,60,13360,1.32581,,,,,,,,,,,,,,,,,,,,,,,,,,,,,,,,,,,,,,,,,,,,
,,,,,,,,,,,,l,Correct!,0,106,106,117,1,t1.png,t5.png,4,9.55E-11,20,female ,2020-10-17_18h26.44.476,torte-q,2020.1.3,Win32,60,13360,1.041085,,,,,,,,,,,,,,,,,,,,,,,,,,,,,,,,,,,,,,,,,,,,
,,,,,,,,,,,,a,Incorrect,0,107,107,38,1,t3.png,t1.png,2,0.056466,20,female ,2020-10-17_18h26.44.476,torte-q,2020.1.3,Win32,60,13360,1.00292,,,,,,,,,,,,,,,,,,,,,,,,,,,,,,,,,,,,,,,,,,,,
,,,,,,,,,,,,a,Correct!,0,108,108,16,1,t5.png,t4.png,1,0.9,20,female ,2020-10-17_18h26.44.476,torte-q,2020.1.3,Win32,60,13360,1.52842,,,,,,,,,,,,,,,,,,,,,,,,,,,,,,,,,,,,,,,,,,,,
,,,,,,,,,,,,l,Correct!,0,109,109,60,1,t2.png,t4.png,2,0.059078,20,female ,2020-10-17_18h26.44.476,torte-q,2020.1.3,Win32,60,13360,1.047,,,,,,,,,,,,,,,,,,,,,,,,,,,,,,,,,,,,,,,,,,,,
,,,,,,,,,,,,a,Incorrect,0,110,110,0,1,t5.png,t1.png,4,9.55E-11,20,female ,2020-10-17_18h26.44.476,torte-q,2020.1.3,Win32,60,13360,0.93431,,,,,,,,,,,,,,,,,,,,,,,,,,,,,,,,,,,,,,,,,,,,
,,,,,,,,,,,,l,Correct!,0,111,111,53,1,t3.png,t1.png,2,0.056466,20,female ,2020-10-17_18h26.44.476,torte-q,2020.1.3,Win32,60,13360,1.152345,,,,,,,,,,,,,,,,,,,,,,,,,,,,,,,,,,,,,,,,,,,,
,,,,,,,,,,,,a,Incorrect,0,112,112,40,1,t1.png,t5.png,4,9.55E-11,20,female ,2020-10-17_18h26.44.476,torte-q,2020.1.3,Win32,60,13360,1.33588,,,,,,,,,,,,,,,,,,,,,,,,,,,,,,,,,,,,,,,,,,,,
,,,,,,,,,,,,l,Correct!,0,113,113,36,1,t3.png,t1.png,2,0.0565,20,female ,2020-10-17_18h26.44.476,torte-q,2020.1.3,Win32,60,13360,0.886455,,,,,,,,,,,,,,,,,,,,,,,,,,,,,,,,,,,,,,,,,,,,
,,,,,,,,,,,,l,Correct!,0,114,114,73,1,t4.png,t2.png,2,0.059078,20,female ,2020-10-17_18h26.44.476,torte-q,2020.1.3,Win32,60,13360,1.255095,,,,,,,,,,,,,,,,,,,,,,,,,,,,,,,,,,,,,,,,,,,,
,,,,,,,,,,,,a,Correct!,0,115,115,66,1,t4.png,t5.png,1,0.9,20,female ,2020-10-17_18h26.44.476,torte-q,2020.1.3,Win32,60,13360,1.369935,,,,,,,,,,,,,,,,,,,,,,,,,,,,,,,,,,,,,,,,,,,,
,,,,,,,,,,,,a,Incorrect,0,116,116,54,1,t1.png,t5.png,4,9.55E-11,20,female ,2020-10-17_18h26.44.476,torte-q,2020.1.3,Win32,60,13360,1.057285,,,,,,,,,,,,,,,,,,,,,,,,,,,,,,,,,,,,,,,,,,,,
,,,,,,,,,,,,l,Correct!,0,117,117,33,1,t5.png,t1.png,4,9.55E-11,20,female ,2020-10-17_18h26.44.476,torte-q,2020.1.3,Win32,60,13360,0.935845,,,,,,,,,,,,,,,,,,,,,,,,,,,,,,,,,,,,,,,,,,,,
,,,,,,,,,,,,a,Correct!,0,118,118,105,1,t3.png,t2.png,1,0.90855,20,female ,2020-10-17_18h26.44.476,torte-q,2020.1.3,Win32,60,13360,0.75308,,,,,,,,,,,,,,,,,,,,,,,,,,,,,,,,,,,,,,,,,,,,
,,,,,,,,,,,,l,Correct!,0,119,119,115,1,t2.png,t4.png,2,0.059078,20,female ,2020-10-17_18h26.44.476,torte-q,2020.1.3,Win32,60,13360,1.30835,,,,,,,,,,,,,,,,,,,,,,,,,,,,,,,,,,,,,,,,,,,,
,,,,,,,,,,,,a,Correct!,,,,,,t5.png,t5.png,0,0.97829,20,female ,2020-10-17_18h26.44.476,torte-q,2020.1.3,Win32,60,13360,2.21174,space,28.98289,space,14.77981,0,0,0,25,1,,,,,,,,,,,,,,,,,,,,,,,,,,,,,,,,,,,
,,,,,,,,,,,,l,Correct!,,,,,,t1.png,t3.png,2,0.056466,20,female ,2020-10-17_18h26.44.476,torte-q,2020.1.3,Win32,60,13360,1.771315,,,,,0,1,1,60,1,,,,,,,,,,,,,,,,,,,,,,,,,,,,,,,,,,,
,,,,,,,,,,,,l,Incorrect,,,,,,t2.png,t1.png,1,0.90025,20,female ,2020-10-17_18h26.44.476,torte-q,2020.1.3,Win32,60,13360,2.020335,,,,,0,2,2,4,1,,,,,,,,,,,,,,,,,,,,,,,,,,,,,,,,,,,
,,,,,,,,,,,,a,Incorrect,,,,,,t1.png,t5.png,4,9.55E-11,20,female ,2020-10-17_18h26.44.476,torte-q,2020.1.3,Win32,60,13360,1.308425,,,,,0,3,3,16,1,,,,,,,,,,,,,,,,,,,,,,,,,,,,,,,,,,,
,,,,,,,,,,,,a,Incorrect,,,,,,t3.png,t1.png,2,0.0565,20,female ,2020-10-17_18h26.44.476,torte-q,2020.1.3,Win32,60,13360,1.42688,,,,,0,4,4,31,1,,,,,,,,,,,,,,,,,,,,,,,,,,,,,,,,,,,
,,,,,,,,,,,,l,Incorrect,,,,,,t2.png,t2.png,0,0.98115,20,female ,2020-10-17_18h26.44.476,torte-q,2020.1.3,Win32,60,13360,1.408795,,,,,0,5,5,2,1,,,,,,,,,,,,,,,,,,,,,,,,,,,,,,,,,,,
,,,,,,,,,,,,a,Incorrect,,,,,,t3.png,t5.png,2,0.0565,20,female ,2020-10-17_18h26.44.476,torte-q,2020.1.3,Win32,60,13360,1.45887,,,,,0,6,6,83,1,,,,,,,,,,,,,,,,,,,,,,,,,,,,,,,,,,,
,,,,,,,,,,,,a,Incorrect,,,,,,t5.png,t1.png,4,9.55E-11,20,female ,2020-10-17_18h26.44.476,torte-q,2020.1.3,Win32,60,13360,1.58561,,,,,0,7,7,22,1,,,,,,,,,,,,,,,,,,,,,,,,,,,,,,,,,,,
,,,,,,,,,,,,l,Correct!,,,,,,t5.png,t2.png,3,0.0000131,20,female ,2020-10-17_18h26.44.476,torte-q,2020.1.3,Win32,60,13360,1.33781,,,,,0,8,8,119,1,,,,,,,,,,,,,,,,,,,,,,,,,,,,,,,,,,,
,,,,,,,,,,,,l,Correct!,,,,,,t5.png,t1.png,4,9.55E-11,20,female ,2020-10-17_18h26.44.476,torte-q,2020.1.3,Win32,60,13360,1.72545,,,,,0,9,9,100,1,,,,,,,,,,,,,,,,,,,,,,,,,,,,,,,,,,,
,,,,,,,,,,,,l,Incorrect,,,,,,t3.png,t4.png,1,0.909,20,female ,2020-10-17_18h26.44.476,torte-q,2020.1.3,Win32,60,13360,0.854235,,,,,0,10,10,89,1,,,,,,,,,,,,,,,,,,,,,,,,,,,,,,,,,,,
,,,,,,,,,,,,a,Incorrect,,,,,,t1.png,t5.png,4,9.55E-11,20,female ,2020-10-17_18h26.44.476,torte-q,2020.1.3,Win32,60,13360,1.47612,,,,,0,11,11,41,1,,,,,,,,,,,,,,,,,,,,,,,,,,,,,,,,,,,
,,,,,,,,,,,,l,Correct!,,,,,,t4.png,t2.png,2,0.0591,20,female ,2020-10-17_18h26.44.476,torte-q,2020.1.3,Win32,60,13360,1.33619,,,,,0,12,12,36,1,,,,,,,,,,,,,,,,,,,,,,,,,,,,,,,,,,,
,,,,,,,,,,,,,Too slow :(,,,,,,t3.png,t1.png,2,0.056466,20,female ,2020-10-17_18h26.44.476,torte-q,2020.1.3,Win32,60,13360,,,,,,0,13,13,32,1,,,,,,,,,,,,,,,,,,,,,,,,,,,,,,,,,,,
,,,,,,,,,,,,a,Incorrect,,,,,,t5.png,t2.png,3,0.0000131,20,female ,2020-10-17_18h26.44.476,torte-q,2020.1.3,Win32,60,13360,1.53682,,,,,0,14,14,51,1,,,,,,,,,,,,,,,,,,,,,,,,,,,,,,,,,,,
,,,,,,,,,,,,a,Incorrect,,,,,,t5.png,t3.png,2,0.056466,20,female ,2020-10-17_18h26.44.476,torte-q,2020.1.3,Win32,60,13360,1.789925,,,,,0,15,15,38,1,,,,,,,,,,,,,,,,,,,,,,,,,,,,,,,,,,,
,,,,,,,,,,,,l,Incorrect,,,,,,t1.png,t2.png,1,0.90025,20,female ,2020-10-17_18h26.44.476,torte-q,2020.1.3,Win32,60,13360,1.070475,,,,,0,16,16,105,1,,,,,,,,,,,,,,,,,,,,,,,,,,,,,,,,,,,
,,,,,,,,,,,,l,Incorrect,,,,,,t5.png,t4.png,1,0.9,20,female ,2020-10-17_18h26.44.476,torte-q,2020.1.3,Win32,60,13360,0.95219,,,,,0,17,17,76,1,,,,,,,,,,,,,,,,,,,,,,,,,,,,,,,,,,,
,,,,,,,,,,,,a,Correct!,,,,,,t2.png,t3.png,1,0.90855,20,female ,2020-10-17_18h26.44.476,torte-q,2020.1.3,Win32,60,13360,1.236,,,,,0,18,18,10,1,,,,,,,,,,,,,,,,,,,,,,,,,,,,,,,,,,,
,,,,,,,,,,,,a,Correct!,,,,,,t4.png,t3.png,1,0.90855,20,female ,2020-10-17_18h26.44.476,torte-q,2020.1.3,Win32,60,13360,1.56044,,,,,0,19,19,45,1,,,,,,,,,,,,,,,,,,,,,,,,,,,,,,,,,,,
,,,,,,,,,,,,l,Incorrect,,,,,,t4.png,t4.png,0,0.98115,20,female ,2020-10-17_18h26.44.476,torte-q,2020.1.3,Win32,60,13360,1.17721,,,,,0,20,20,79,1,,,,,,,,,,,,,,,,,,,,,,,,,,,,,,,,,,,
,,,,,,,,,,,,l,Correct!,,,,,,t4.png,t1.png,3,0.0000131,20,female ,2020-10-17_18h26.44.476,torte-q,2020.1.3,Win32,60,13360,1.488295,,,,,0,21,21,42,1,,,,,,,,,,,,,,,,,,,,,,,,,,,,,,,,,,,
,,,,,,,,,,,,a,Incorrect,,,,,,t5.png,t1.png,4,9.55E-11,20,female ,2020-10-17_18h26.44.476,torte-q,2020.1.3,Win32,60,13360,1.13621,,,,,0,22,22,43,1,,,,,,,,,,,,,,,,,,,,,,,,,,,,,,,,,,,
,,,,,,,,,,,,a,Correct!,,,,,,t2.png,t3.png,1,0.90855,20,female ,2020-10-17_18h26.44.476,torte-q,2020.1.3,Win32,60,13360,1.1865,,,,,0,23,23,68,1,,,,,,,,,,,,,,,,,,,,,,,,,,,,,,,,,,,
,,,,,,,,,,,,a,Correct!,,,,,,t4.png,t3.png,1,0.90855,20,female ,2020-10-17_18h26.44.476,torte-q,2020.1.3,Win32,60,13360,1.61186,,,,,0,24,24,35,1,,,,,,,,,,,,,,,,,,,,,,,,,,,,,,,,,,,
,,,,,,,,,,,,l,Correct!,,,,,,t2.png,t5.png,3,0.0000131,20,female ,2020-10-17_18h26.44.476,torte-q,2020.1.3,Win32,60,13360,1.191915,,,,,0,25,25,40,1,,,,,,,,,,,,,,,,,,,,,,,,,,,,,,,,,,,
,,,,,,,,,,,,l,Incorrect,,,,,,t2.png,t1.png,1,0.90025,20,female ,2020-10-17_18h26.44.476,torte-q,2020.1.3,Win32,60,13360,1.06294,,,,,0,26,26,5,1,,,,,,,,,,,,,,,,,,,,,,,,,,,,,,,,,,,
,,,,,,,,,,,,a,Incorrect,,,,,,t4.png,t1.png,3,0.0000131,20,female ,2020-10-17_18h26.44.476,torte-q,2020.1.3,Win32,60,13360,0.67481,,,,,0,27,27,13,1,,,,,,,,,,,,,,,,,,,,,,,,,,,,,,,,,,,
,,,,,,,,,,,,a,Incorrect,,,,,,t4.png,t2.png,2,0.059078,20,female ,2020-10-17_18h26.44.476,torte-q,2020.1.3,Win32,60,13360,1.35448,,,,,0,28,28,86,1,,,,,,,,,,,,,,,,,,,,,,,,,,,,,,,,,,,
,,,,,,,,,,,,a,Correct!,,,,,,t2.png,t3.png,1,0.909,20,female ,2020-10-17_18h26.44.476,torte-q,2020.1.3,Win32,60,13360,1.286855,,,,,0,29,29,74,1,,,,,,,,,,,,,,,,,,,,,,,,,,,,,,,,,,,
,,,,,,,,,,,,a,Incorrect,,,,,,t5.png,t3.png,2,0.056466,20,female ,2020-10-17_18h26.44.476,torte-q,2020.1.3,Win32,60,13360,1.48863,,,,,0,30,30,56,1,,,,,,,,,,,,,,,,,,,,,,,,,,,,,,,,,,,
,,,,,,,,,,,,l,Correct!,,,,,,t2.png,t4.png,2,0.059078,20,female ,2020-10-17_18h26.44.476,torte-q,2020.1.3,Win32,60,13360,0.690745,,,,,0,31,31,37,1,,,,,,,,,,,,,,,,,,,,,,,,,,,,,,,,,,,
,,,,,,,,,,,,l,Correct!,,,,,,t2.png,t5.png,3,0.0000131,20,female ,2020-10-17_18h26.44.476,torte-q,2020.1.3,Win32,60,13360,1.102985,,,,,0,32,32,95,1,,,,,,,,,,,,,,,,,,,,,,,,,,,,,,,,,,,
,,,,,,,,,,,,a,Incorrect,,,,,,t2.png,t5.png,3,0.0000131,20,female ,2020-10-17_18h26.44.476,torte-q,2020.1.3,Win32,60,13360,1.186175,,,,,0,33,33,8,1,,,,,,,,,,,,,,,,,,,,,,,,,,,,,,,,,,,
,,,,,,,,,,,,a,Incorrect,,,,,,t5.png,t3.png,2,0.056466,20,female ,2020-10-17_18h26.44.476,torte-q,2020.1.3,Win32,60,13360,0.95892,,,,,0,34,34,114,1,,,,,,,,,,,,,,,,,,,,,,,,,,,,,,,,,,,
,,,,,,,,,,,,l,Correct!,,,,,,t3.png,t5.png,2,0.056466,20,female ,2020-10-17_18h26.44.476,torte-q,2020.1.3,Win32,60,13360,1.85585,,,,,0,35,35,6,1,,,,,,,,,,,,,,,,,,,,,,,,,,,,,,,,,,,
,,,,,,,,,,,,a,Correct!,,,,,,t5.png,t5.png,0,0.978,20,female ,2020-10-17_18h26.44.476,torte-q,2020.1.3,Win32,60,13360,1.496265,,,,,0,36,36,117,1,,,,,,,,,,,,,,,,,,,,,,,,,,,,,,,,,,,
,,,,,,,,,,,,l,Correct!,,,,,,t2.png,t4.png,2,0.059078,20,female ,2020-10-17_18h26.44.476,torte-q,2020.1.3,Win32,60,13360,0.91604,,,,,0,37,37,24,1,,,,,,,,,,,,,,,,,,,,,,,,,,,,,,,,,,,
,,,,,,,,,,,,l,Incorrect,,,,,,t3.png,t2.png,1,0.90855,20,female ,2020-10-17_18h26.44.476,torte-q,2020.1.3,Win32,60,13360,0.83535,,,,,0,38,38,97,1,,,,,,,,,,,,,,,,,,,,,,,,,,,,,,,,,,,
,,,,,,,,,,,,l,Correct!,,,,,,t2.png,t4.png,2,0.059078,20,female ,2020-10-17_18h26.44.476,torte-q,2020.1.3,Win32,60,13360,0.896085,,,,,0,39,39,11,1,,,,,,,,,,,,,,,,,,,,,,,,,,,,,,,,,,,
,,,,,,,,,,,,a,Incorrect,,,,,,t2.png,t1.png,1,0.9,20,female ,2020-10-17_18h26.44.476,torte-q,2020.1.3,Win32,60,13360,1.06952,,,,,0,40,40,118,1,,,,,,,,,,,,,,,,,,,,,,,,,,,,,,,,,,,
,,,,,,,,,,,,l,Correct!,,,,,,t2.png,t4.png,2,0.059078,20,female ,2020-10-17_18h26.44.476,torte-q,2020.1.3,Win32,60,13360,0.960305,,,,,0,41,41,77,1,,,,,,,,,,,,,,,,,,,,,,,,,,,,,,,,,,,
,,,,,,,,,,,,l,Correct!,,,,,,t2.png,t4.png,2,0.0591,20,female ,2020-10-17_18h26.44.476,torte-q,2020.1.3,Win32,60,13360,0.703855,,,,,0,42,42,15,1,,,,,,,,,,,,,,,,,,,,,,,,,,,,,,,,,,,
,,,,,,,,,,,,a,Incorrect,,,,,,t4.png,t1.png,3,0.0000131,20,female ,2020-10-17_18h26.44.476,torte-q,2020.1.3,Win32,60,13360,1.44618,,,,,0,43,43,61,1,,,,,,,,,,,,,,,,,,,,,,,,,,,,,,,,,,,
,,,,,,,,,,,,l,Incorrect,,,,,,t5.png,t4.png,1,0.90025,20,female ,2020-10-17_18h26.44.476,torte-q,2020.1.3,Win32,60,13360,1.35384,,,,,0,44,44,34,1,,,,,,,,,,,,,,,,,,,,,,,,,,,,,,,,,,,
,,,,,,,,,,,,a,Correct!,,,,,,t1.png,t2.png,1,0.90025,20,female ,2020-10-17_18h26.44.476,torte-q,2020.1.3,Win32,60,13360,0.985625,,,,,0,45,45,72,1,,,,,,,,,,,,,,,,,,,,,,,,,,,,,,,,,,,
,,,,,,,,,,,,l,Incorrect,,,,,,t3.png,t4.png,1,0.909,20,female ,2020-10-17_18h26.44.476,torte-q,2020.1.3,Win32,60,13360,0.854005,,,,,0,46,46,106,1,,,,,,,,,,,,,,,,,,,,,,,,,,,,,,,,,,,
,,,,,,,,,,,,a,Correct!,,,,,,t4.png,t3.png,1,0.90855,20,female ,2020-10-17_18h26.44.476,torte-q,2020.1.3,Win32,60,13360,0.907595,,,,,0,47,47,75,1,,,,,,,,,,,,,,,,,,,,,,,,,,,,,,,,,,,
,,,,,,,,,,,,a,Correct!,,,,,,t5.png,t5.png,0,0.97829,20,female ,2020-10-17_18h26.44.476,torte-q,2020.1.3,Win32,60,13360,1.277075,,,,,0,48,48,94,1,,,,,,,,,,,,,,,,,,,,,,,,,,,,,,,,,,,
,,,,,,,,,,,,a,Incorrect,,,,,,t5.png,t3.png,2,0.0565,20,female ,2020-10-17_18h26.44.476,torte-q,2020.1.3,Win32,60,13360,1.137705,,,,,0,49,49,39,1,,,,,,,,,,,,,,,,,,,,,,,,,,,,,,,,,,,
,,,,,,,,,,,,a,Incorrect,,,,,,t2.png,t5.png,3,0.0000131,20,female ,2020-10-17_18h26.44.476,torte-q,2020.1.3,Win32,60,13360,1.23491,,,,,0,50,50,66,1,,,,,,,,,,,,,,,,,,,,,,,,,,,,,,,,,,,
,,,,,,,,,,,,l,Incorrect,,,,,,t3.png,t4.png,1,0.909,20,female ,2020-10-17_18h26.44.476,torte-q,2020.1.3,Win32,60,13360,0.685275,,,,,0,51,51,82,1,,,,,,,,,,,,,,,,,,,,,,,,,,,,,,,,,,,
,,,,,,,,,,,,l,Incorrect,,,,,,t4.png,t2.png,2,0.059078,20,female ,2020-10-17_18h26.44.476,torte-q,2020.1.3,Win32,60,13360,1.42172,,,,,0,52,52,109,1,,,,,,,,,,,,,,,,,,,,,,,,,,,,,,,,,,,
,,,,,,,,,,,,a,Correct!,,,,,,t2.png,t3.png,1,0.90855,20,female ,2020-10-17_18h26.44.476,torte-q,2020.1.3,Win32,60,13360,0.920235,,,,,0,53,53,65,1,,,,,,,,,,,,,,,,,,,,,,,,,,,,,,,,,,,
,,,,,,,,,,,,a,Correct!,,,,,,t4.png,t5.png,1,0.90025,20,female ,2020-10-17_18h26.44.476,torte-q,2020.1.3,Win32,60,13360,2.05341,,,,,0,54,54,47,1,,,,,,,,,,,,,,,,,,,,,,,,,,,,,,,,,,,
,,,,,,,,,,,,l,Incorrect,,,,,,t3.png,t2.png,1,0.90855,20,female ,2020-10-17_18h26.44.476,torte-q,2020.1.3,Win32,60,13360,0.720815,,,,,0,55,55,18,1,,,,,,,,,,,,,,,,,,,,,,,,,,,,,,,,,,,
,,,,,,,,,,,,a,Incorrect,,,,,,t1.png,t5.png,4,9.55E-11,20,female ,2020-10-17_18h26.44.476,torte-q,2020.1.3,Win32,60,13360,1.02078,,,,,0,56,56,55,1,,,,,,,,,,,,,,,,,,,,,,,,,,,,,,,,,,,
,,,,,,,,,,,,l,Incorrect,,,,,,t5.png,t5.png,0,0.97829,20,female ,2020-10-17_18h26.44.476,torte-q,2020.1.3,Win32,60,13360,1.136975,,,,,0,57,57,70,1,,,,,,,,,,,,,,,,,,,,,,,,,,,,,,,,,,,
,,,,,,,,,,,,a,Correct!,,,,,,t5.png,t5.png,0,0.97829,20,female ,2020-10-17_18h26.44.476,torte-q,2020.1.3,Win32,60,13360,1.55614,,,,,0,58,58,73,1,,,,,,,,,,,,,,,,,,,,,,,,,,,,,,,,,,,
,,,,,,,,,,,,l,Incorrect,,,,,,t2.png,t2.png,0,0.98115,20,female ,2020-10-17_18h26.44.476,torte-q,2020.1.3,Win32,60,13360,0.82846,,,,,0,59,59,59,1,,,,,,,,,,,,,,,,,,,,,,,,,,,,,,,,,,,
,,,,,,,,,,,,l,Incorrect,,,,,,t4.png,t4.png,0,0.98115,20,female ,2020-10-17_18h26.44.476,torte-q,2020.1.3,Win32,60,13360,1.29095,,,,,0,60,60,21,1,,,,,,,,,,,,,,,,,,,,,,,,,,,,,,,,,,,
,,,,,,,,,,,,a,Correct!,,,,,,t1.png,t1.png,0,0.97829,20,female ,2020-10-17_18h26.44.476,torte-q,2020.1.3,Win32,60,13360,1.302875,,,,,0,61,61,9,1,,,,,,,,,,,,,,,,,,,,,,,,,,,,,,,,,,,
,,,,,,,,,,,,l,Incorrect,,,,,,t2.png,t2.png,0,0.981,20,female ,2020-10-17_18h26.44.476,torte-q,2020.1.3,Win32,60,13360,0.91897,,,,,0,62,62,101,1,,,,,,,,,,,,,,,,,,,,,,,,,,,,,,,,,,,
,,,,,,,,,,,,a,Incorrect,,,,,,t1.png,t3.png,2,0.056466,20,female ,2020-10-17_18h26.44.476,torte-q,2020.1.3,Win32,60,13360,0.851715,,,,,0,63,63,69,1,,,,,,,,,,,,,,,,,,,,,,,,,,,,,,,,,,,
,,,,,,,,,,,,l,Incorrect,,,,,,t1.png,t1.png,0,0.97829,20,female ,2020-10-17_18h26.44.476,torte-q,2020.1.3,Win32,60,13360,0.761535,,,,,0,64,64,78,1,,,,,,,,,,,,,,,,,,,,,,,,,,,,,,,,,,,
,,,,,,,,,,,,l,Correct!,,,,,,t3.png,t1.png,2,0.056466,20,female ,2020-10-17_18h26.44.476,torte-q,2020.1.3,Win32,60,13360,0.952285,,,,,0,65,65,29,1,,,,,,,,,,,,,,,,,,,,,,,,,,,,,,,,,,,
,,,,,,,,,,,,l,Incorrect,,,,,,t2.png,t2.png,0,0.98115,20,female ,2020-10-17_18h26.44.476,torte-q,2020.1.3,Win32,60,13360,0.771735,,,,,0,66,66,7,1,,,,,,,,,,,,,,,,,,,,,,,,,,,,,,,,,,,
,,,,,,,,,,,,a,Incorrect,,,,,,t1.png,t5.png,4,9.55E-11,20,female ,2020-10-17_18h26.44.476,torte-q,2020.1.3,Win32,60,13360,0.89196,,,,,0,67,67,85,1,,,,,,,,,,,,,,,,,,,,,,,,,,,,,,,,,,,
,,,,,,,,,,,,l,Incorrect,,,,,,t3.png,t2.png,1,0.90855,20,female ,2020-10-17_18h26.44.476,torte-q,2020.1.3,Win32,60,13360,0.75055,,,,,0,68,68,53,1,,,,,,,,,,,,,,,,,,,,,,,,,,,,,,,,,,,
,,,,,,,,,,,,a,Incorrect,,,,,,t5.png,t3.png,2,0.056466,20,female ,2020-10-17_18h26.44.476,torte-q,2020.1.3,Win32,60,13360,0.91938,,,,,0,69,69,108,1,,,,,,,,,,,,,,,,,,,,,,,,,,,,,,,,,,,
,,,,,,,,,,,,l,Incorrect,,,,,,t5.png,t4.png,1,0.90025,20,female ,2020-10-17_18h26.44.476,torte-q,2020.1.3,Win32,60,13360,0.976695,,,,,0,70,70,26,1,,,,,,,,,,,,,,,,,,,,,,,,,,,,,,,,,,,
,,,,,,,,,,,,a,Incorrect,,,,,,t1.png,t3.png,2,0.056466,20,female ,2020-10-17_18h26.44.476,torte-q,2020.1.3,Win32,60,13360,1.05084,,,,,0,71,71,99,1,,,,,,,,,,,,,,,,,,,,,,,,,,,,,,,,,,,
,,,,,,,,,,,,a,Incorrect,,,,,,t1.png,t3.png,2,0.056466,20,female ,2020-10-17_18h26.44.476,torte-q,2020.1.3,Win32,60,13360,0.652515,,,,,0,72,72,87,1,,,,,,,,,,,,,,,,,,,,,,,,,,,,,,,,,,,
,,,,,,,,,,,,a,Correct!,,,,,,t4.png,t3.png,1,0.909,20,female ,2020-10-17_18h26.44.476,torte-q,2020.1.3,Win32,60,13360,0.98811,,,,,0,73,73,20,1,,,,,,,,,,,,,,,,,,,,,,,,,,,,,,,,,,,
,,,,,,,,,,,,a,Incorrect,,,,,,t4.png,t1.png,3,0.0000131,20,female ,2020-10-17_18h26.44.476,torte-q,2020.1.3,Win32,60,13360,0.735995,,,,,0,74,74,48,1,,,,,,,,,,,,,,,,,,,,,,,,,,,,,,,,,,,
,,,,,,,,,,,,l,Incorrect,,,,,,t1.png,t1.png,0,0.978,20,female ,2020-10-17_18h26.44.476,torte-q,2020.1.3,Win32,60,13360,0.784075,,,,,0,75,75,54,1,,,,,,,,,,,,,,,,,,,,,,,,,,,,,,,,,,,
,,,,,,,,,,,,l,Incorrect,,,,,,t1.png,t2.png,1,0.90025,20,female ,2020-10-17_18h26.44.476,torte-q,2020.1.3,Win32,60,13360,0.790065,,,,,0,76,76,112,1,,,,,,,,,,,,,,,,,,,,,,,,,,,,,,,,,,,
,,,,,,,,,,,,a,Incorrect,,,,,,t4.png,t2.png,2,0.059078,20,female ,2020-10-17_18h26.44.476,torte-q,2020.1.3,Win32,60,13360,0.51845,,,,,0,77,77,88,1,,,,,,,,,,,,,,,,,,,,,,,,,,,,,,,,,,,
,,,,,,,,,,,,l,Incorrect,,,,,,t1.png,t2.png,1,0.9,20,female ,2020-10-17_18h26.44.476,torte-q,2020.1.3,Win32,60,13360,0.795205,,,,,0,78,78,1,1,,,,,,,,,,,,,,,,,,,,,,,,,,,,,,,,,,,
,,,,,,,,,,,,l,Correct!,,,,,,t5.png,t2.png,3,0.0000131,20,female ,2020-10-17_18h26.44.476,torte-q,2020.1.3,Win32,60,13360,0.83744,,,,,0,79,79,98,1,,,,,,,,,,,,,,,,,,,,,,,,,,,,,,,,,,,
,,,,,,,,,,,,a,Correct!,,,,,,t4.png,t4.png,0,0.98115,20,female ,2020-10-17_18h26.44.476,torte-q,2020.1.3,Win32,60,13360,2.105445,,,,,0,80,80,52,1,,,,,,,,,,,,,,,,,,,,,,,,,,,,,,,,,,,
,,,,,,,,,,,,a,Correct!,,,,,,t4.png,t5.png,1,0.90025,20,female ,2020-10-17_18h26.44.476,torte-q,2020.1.3,Win32,60,13360,0.90229,,,,,0,81,81,58,1,,,,,,,,,,,,,,,,,,,,,,,,,,,,,,,,,,,
,,,,,,,,,,,,a,Correct!,,,,,,t2.png,t1.png,1,0.90025,20,female ,2020-10-17_18h26.44.476,torte-q,2020.1.3,Win32,60,13360,2.108225,,,,,0,82,82,19,1,,,,,,,,,,,,,,,,,,,,,,,,,,,,,,,,,,,
,,,,,,,,,,,,l,Incorrect,,,,,,t3.png,t4.png,1,0.90855,20,female ,2020-10-17_18h26.44.476,torte-q,2020.1.3,Win32,60,13360,0.499005,,,,,0,83,83,84,1,,,,,,,,,,,,,,,,,,,,,,,,,,,,,,,,,,,
,,,,,,,,,,,,l,Correct!,,,,,,t1.png,t4.png,3,0.0000131,20,female ,2020-10-17_18h26.44.476,torte-q,2020.1.3,Win32,60,13360,0.589055,,,,,0,84,84,17,1,,,,,,,,,,,,,,,,,,,,,,,,,,,,,,,,,,,
,,,,,,,,,,,,l,Correct!,,,,,,t3.png,t5.png,2,0.056466,20,female ,2020-10-17_18h26.44.476,torte-q,2020.1.3,Win32,60,13360,1.16988,,,,,0,85,85,14,1,,,,,,,,,,,,,,,,,,,,,,,,,,,,,,,,,,,
,,,,,,,,,,,,l,Correct!,,,,,,t1.png,t4.png,3,0.0000131,20,female ,2020-10-17_18h26.44.476,torte-q,2020.1.3,Win32,60,13360,0.806435,,,,,0,86,86,81,1,,,,,,,,,,,,,,,,,,,,,,,,,,,,,,,,,,,
,,,,,,,,,,,,l,Incorrect,,,,,,t5.png,t4.png,1,0.90025,20,female ,2020-10-17_18h26.44.476,torte-q,2020.1.3,Win32,60,13360,1.036865,,,,,0,87,87,27,1,,,,,,,,,,,,,,,,,,,,,,,,,,,,,,,,,,,
,,,,,,,,,,,,a,Incorrect,,,,,,t4.png,t1.png,3,0.0000131,20,female ,2020-10-17_18h26.44.476,torte-q,2020.1.3,Win32,60,13360,0.81597,,,,,0,88,88,93,1,,,,,,,,,,,,,,,,,,,,,,,,,,,,,,,,,,,
,,,,,,,,,,,,l,Correct!,,,,,,t5.png,t1.png,4,9.55E-11,20,female ,2020-10-17_18h26.44.476,torte-q,2020.1.3,Win32,60,13360,0.81947,,,,,0,89,89,102,1,,,,,,,,,,,,,,,,,,,,,,,,,,,,,,,,,,,
,,,,,,,,,,,,l,Incorrect,,,,,,t3.png,t4.png,1,0.90855,20,female ,2020-10-17_18h26.44.476,torte-q,2020.1.3,Win32,60,13360,0.670375,,,,,0,90,90,96,1,,,,,,,,,,,,,,,,,,,,,,,,,,,,,,,,,,,
,,,,,,,,,,,,l,Correct!,,,,,,t3.png,t5.png,2,0.056466,20,female ,2020-10-17_18h26.44.476,torte-q,2020.1.3,Win32,60,13360,1.252365,,,,,0,91,91,44,1,,,,,,,,,,,,,,,,,,,,,,,,,,,,,,,,,,,
,,,,,,,,,,,,l,Incorrect,,,,,,t3.png,t2.png,1,0.909,20,female ,2020-10-17_18h26.44.476,torte-q,2020.1.3,Win32,60,13360,0.638455,,,,,0,92,92,3,1,,,,,,,,,,,,,,,,,,,,,,,,,,,,,,,,,,,
,,,,,,,,,,,,a,Correct!,,,,,,t4.png,t5.png,1,0.9,20,female ,2020-10-17_18h26.44.476,torte-q,2020.1.3,Win32,60,13360,1.059985,,,,,0,93,93,115,1,,,,,,,,,,,,,,,,,,,,,,,,,,,,,,,,,,,
,,,,,,,,,,,,a,Correct!,,,,,,t4.png,t5.png,1,0.90025,20,female ,2020-10-17_18h26.44.476,torte-q,2020.1.3,Win32,60,13360,0.968605,,,,,0,94,94,113,1,,,,,,,,,,,,,,,,,,,,,,,,,,,,,,,,,,,
,,,,,,,,,,,,l,Incorrect,,,,,,t3.png,t2.png,1,0.909,20,female ,2020-10-17_18h26.44.476,torte-q,2020.1.3,Win32,60,13360,0.655425,,,,,0,95,95,23,1,,,,,,,,,,,,,,,,,,,,,,,,,,,,,,,,,,,
,,,,,,,,,,,,a,Correct!,,,,,,t4.png,t3.png,1,0.909,20,female ,2020-10-17_18h26.44.476,torte-q,2020.1.3,Win32,60,13360,0.98683,,,,,0,96,96,46,1,,,,,,,,,,,,,,,,,,,,,,,,,,,,,,,,,,,
,,,,,,,,,,,,a,Correct!,,,,,,t4.png,t5.png,1,0.90025,20,female ,2020-10-17_18h26.44.476,torte-q,2020.1.3,Win32,60,13360,1.054165,,,,,0,97,97,103,1,,,,,,,,,,,,,,,,,,,,,,,,,,,,,,,,,,,
,,,,,,,,,,,,l,Incorrect,,,,,,t1.png,t1.png,0,0.97829,20,female ,2020-10-17_18h26.44.476,torte-q,2020.1.3,Win32,60,13360,0.822915,,,,,0,98,98,67,1,,,,,,,,,,,,,,,,,,,,,,,,,,,,,,,,,,,
,,,,,,,,,,,,l,Correct!,,,,,,t3.png,t1.png,2,0.056466,20,female ,2020-10-17_18h26.44.476,torte-q,2020.1.3,Win32,60,13360,0.669545,,,,,0,99,99,64,1,,,,,,,,,,,,,,,,,,,,,,,,,,,,,,,,,,,
,,,,,,,,,,,,a,Correct!,,,,,,t4.png,t4.png,0,0.98115,20,female ,2020-10-17_18h26.44.476,torte-q,2020.1.3,Win32,60,13360,1.190515,,,,,0,100,100,90,1,,,,,,,,,,,,,,,,,,,,,,,,,,,,,,,,,,,
,,,,,,,,,,,,l,Correct!,,,,,,t5.png,t1.png,4,9.55E-11,20,female ,2020-10-17_18h26.44.476,torte-q,2020.1.3,Win32,60,13360,1.15335,,,,,0,101,101,71,1,,,,,,,,,,,,,,,,,,,,,,,,,,,,,,,,,,,
,,,,,,,,,,,,l,Correct!,,,,,,t3.png,t1.png,2,0.056466,20,female ,2020-10-17_18h26.44.476,torte-q,2020.1.3,Win32,60,13360,0.667845,,,,,0,102,102,0,1,,,,,,,,,,,,,,,,,,,,,,,,,,,,,,,,,,,
,,,,,,,,,,,,l,Correct!,,,,,,t1.png,t4.png,3,0.0000131,20,female ,2020-10-17_18h26.44.476,torte-q,2020.1.3,Win32,60,13360,0.836435,,,,,0,103,103,50,1,,,,,,,,,,,,,,,,,,,,,,,,,,,,,,,,,,,
,,,,,,,,,,,,a,Incorrect,,,,,,t5.png,t2.png,3,0.0000131,20,female ,2020-10-17_18h26.44.476,torte-q,2020.1.3,Win32,60,13360,1.18782,,,,,0,104,104,116,1,,,,,,,,,,,,,,,,,,,,,,,,,,,,,,,,,,,
,,,,,,,,,,,,a,Incorrect,,,,,,t2.png,t5.png,3,0.0000131,20,female ,2020-10-17_18h26.44.476,torte-q,2020.1.3,Win32,60,13360,0.988575,,,,,0,105,105,104,1,,,,,,,,,,,,,,,,,,,,,,,,,,,,,,,,,,,
,,,,,,,,,,,,a,Incorrect,,,,,,t5.png,t2.png,3,0.0000131,20,female ,2020-10-17_18h26.44.476,torte-q,2020.1.3,Win32,60,13360,1.187765,,,,,0,106,106,91,1,,,,,,,,,,,,,,,,,,,,,,,,,,,,,,,,,,,
,,,,,,,,,,,,l,Incorrect,,,,,,t4.png,t4.png,0,0.98115,20,female ,2020-10-17_18h26.44.476,torte-q,2020.1.3,Win32,60,13360,1.045355,,,,,0,107,107,80,1,,,,,,,,,,,,,,,,,,,,,,,,,,,,,,,,,,,
,,,,,,,,,,,,a,Incorrect,,,,,,t1.png,t3.png,2,0.056466,20,female ,2020-10-17_18h26.44.476,torte-q,2020.1.3,Win32,60,13360,0.89218,,,,,0,108,108,63,1,,,,,,,,,,,,,,,,,,,,,,,,,,,,,,,,,,,
,,,,,,,,,,,,a,Correct!,,,,,,t2.png,t1.png,1,0.90025,20,female ,2020-10-17_18h26.44.476,torte-q,2020.1.3,Win32,60,13360,0.93614,,,,,0,109,109,62,1,,,,,,,,,,,,,,,,,,,,,,,,,,,,,,,,,,,
,,,,,,,,,,,,l,Correct!,,,,,,t3.png,t5.png,2,0.0565,20,female ,2020-10-17_18h26.44.476,torte-q,2020.1.3,Win32,60,13360,2.021605,,,,,0,110,110,30,1,,,,,,,,,,,,,,,,,,,,,,,,,,,,,,,,,,,
,,,,,,,,,,,,a,Correct!,,,,,,t2.png,t2.png,0,0.98115,20,female ,2020-10-17_18h26.44.476,torte-q,2020.1.3,Win32,60,13360,2.35714,,,,,0,111,111,57,1,,,,,,,,,,,,,,,,,,,,,,,,,,,,,,,,,,,
,,,,,,,,,,,,l,Correct!,,,,,,t1.png,t4.png,3,0.0000131,20,female ,2020-10-17_18h26.44.476,torte-q,2020.1.3,Win32,60,13360,0.852865,,,,,0,112,112,107,1,,,,,,,,,,,,,,,,,,,,,,,,,,,,,,,,,,,
,,,,,,,,,,,,a,Incorrect,,,,,,t4.png,t2.png,2,0.059078,20,female ,2020-10-17_18h26.44.476,torte-q,2020.1.3,Win32,60,13360,0.710315,,,,,0,113,113,110,1,,,,,,,,,,,,,,,,,,,,,,,,,,,,,,,,,,,
,,,,,,,,,,,,a,Correct!,,,,,,t2.png,t3.png,1,0.90855,20,female ,2020-10-17_18h26.44.476,torte-q,2020.1.3,Win32,60,13360,1.270995,,,,,0,114,114,111,1,,,,,,,,,,,,,,,,,,,,,,,,,,,,,,,,,,,
,,,,,,,,,,,,l,Incorrect,,,,,,t5.png,t4.png,1,0.9,20,female ,2020-10-17_18h26.44.476,torte-q,2020.1.3,Win32,60,13360,1.34059,,,,,0,115,115,49,1,,,,,,,,,,,,,,,,,,,,,,,,,,,,,,,,,,,
,,,,,,,,,,,,a,Incorrect,,,,,,t1.png,t5.png,4,9.55E-11,20,female ,2020-10-17_18h26.44.476,torte-q,2020.1.3,Win32,60,13360,2.137075,,,,,0,116,116,12,1,,,,,,,,,,,,,,,,,,,,,,,,,,,,,,,,,,,
,,,,,,,,,,,,l,Incorrect,,,,,,t1.png,t2.png,1,0.90025,20,female ,2020-10-17_18h26.44.476,torte-q,2020.1.3,Win32,60,13360,0.91826,,,,,0,117,117,33,1,,,,,,,,,,,,,,,,,,,,,,,,,,,,,,,,,,,
,,,,,,,,,,,,l,Correct!,,,,,,t1.png,t4.png,3,0.0000131,20,female ,2020-10-17_18h26.44.476,torte-q,2020.1.3,Win32,60,13360,1.009135,,,,,0,118,118,92,1,,,,,,,,,,,,,,,,,,,,,,,,,,,,,,,,,,,
,,,,,,,,,,,,a,Incorrect,,,,,,t1.png,t1.png,0,0.978,20,female ,2020-10-17_18h26.44.476,torte-q,2020.1.3,Win32,60,13360,0.69143,,,,,0,119,119,28,1,,,,,,,,,,,,,,,,,,,,,,,,,,,,,,,,,,,
,,,,,,,,,,,,l,Incorrect,,,,,,t3.png,t2.png,1,0.909,20,female ,2020-10-17_18h26.44.476,torte-q,2020.1.3,Win32,60,13360,0.975485,space,11.14792,,,,,,,,space,14.195365,space,6.854235,0,0,0,3,1,,,,,,,,,,,,,,,,,,,,,,,,,,
,,,,,,,,,,,,a,Correct!,,,,,,t2.png,t2.png,0,0.98115,20,female ,2020-10-17_18h26.44.476,torte-q,2020.1.3,Win32,60,13360,1.486645,,,,,,,,,,,,,,0,1,1,57,1,,,,,,,,,,,,,,,,,,,,,,,,,,
,,,,,,,,,,,,a,Incorrect,,,,,,t4.png,t1.png,3,0.0000131,20,female ,2020-10-17_18h26.44.476,torte-q,2020.1.3,Win32,60,13360,1.11188,,,,,,,,,,,,,,0,2,2,61,1,,,,,,,,,,,,,,,,,,,,,,,,,,
,,,,,,,,,,,,l,Correct!,,,,,,t3.png,t5.png,2,0.056466,20,female ,2020-10-17_18h26.44.476,torte-q,2020.1.3,Win32,60,13360,1.052225,,,,,,,,,,,,,,0,3,3,14,1,,,,,,,,,,,,,,,,,,,,,,,,,,
,,,,,,,,,,,,a,Incorrect,,,,,,t1.png,t3.png,2,0.056466,20,female ,2020-10-17_18h26.44.476,torte-q,2020.1.3,Win32,60,13360,0.96953,,,,,,,,,,,,,,0,4,4,63,1,,,,,,,,,,,,,,,,,,,,,,,,,,
,,,,,,,,,,,,a,Incorrect,,,,,,t5.png,t2.png,3,0.0000131,20,female ,2020-10-17_18h26.44.476,torte-q,2020.1.3,Win32,60,13360,0.891955,,,,,,,,,,,,,,0,5,5,91,1,,,,,,,,,,,,,,,,,,,,,,,,,,
,,,,,,,,,,,,a,Incorrect,,,,,,t1.png,t3.png,2,0.056466,20,female ,2020-10-17_18h26.44.476,torte-q,2020.1.3,Win32,60,13360,0.98639,,,,,,,,,,,,,,0,6,6,99,1,,,,,,,,,,,,,,,,,,,,,,,,,,
,,,,,,,,,,,,l,Incorrect,,,,,,t3.png,t2.png,1,0.90855,20,female ,2020-10-17_18h26.44.476,torte-q,2020.1.3,Win32,60,13360,0.869505,,,,,,,,,,,,,,0,7,7,97,1,,,,,,,,,,,,,,,,,,,,,,,,,,
,,,,,,,,,,,,a,Correct!,,,,,,t1.png,t1.png,0,0.97829,20,female ,2020-10-17_18h26.44.476,torte-q,2020.1.3,Win32,60,13360,0.94303,,,,,,,,,,,,,,0,8,8,9,1,,,,,,,,,,,,,,,,,,,,,,,,,,
,,,,,,,,,,,,a,Incorrect,,,,,,t5.png,t1.png,4,9.55E-11,20,female ,2020-10-17_18h26.44.476,torte-q,2020.1.3,Win32,60,13360,0.95312,,,,,,,,,,,,,,0,9,9,43,1,,,,,,,,,,,,,,,,,,,,,,,,,,
,,,,,,,,,,,,l,Incorrect,,,,,,t1.png,t1.png,0,0.97829,20,female ,2020-10-17_18h26.44.476,torte-q,2020.1.3,Win32,60,13360,0.95273,,,,,,,,,,,,,,0,10,10,78,1,,,,,,,,,,,,,,,,,,,,,,,,,,
,,,,,,,,,,,,l,Incorrect,,,,,,t1.png,t2.png,1,0.9,20,female ,2020-10-17_18h26.44.476,torte-q,2020.1.3,Win32,60,13360,1.170585,,,,,,,,,,,,,,0,11,11,1,1,,,,,,,,,,,,,,,,,,,,,,,,,,
,,,,,,,,,,,,a,Correct!,,,,,,t4.png,t5.png,1,0.90025,20,female ,2020-10-17_18h26.44.476,torte-q,2020.1.3,Win32,60,13360,1.52875,,,,,,,,,,,,,,0,12,12,58,1,,,,,,,,,,,,,,,,,,,,,,,,,,
,,,,,,,,,,,,a,Correct!,,,,,,t4.png,t3.png,1,0.90855,20,female ,2020-10-17_18h26.44.476,torte-q,2020.1.3,Win32,60,13360,1.25423,,,,,,,,,,,,,,0,13,13,45,1,,,,,,,,,,,,,,,,,,,,,,,,,,
,,,,,,,,,,,,a,Correct!,,,,,,t2.png,t1.png,1,0.90025,20,female ,2020-10-17_18h26.44.476,torte-q,2020.1.3,Win32,60,13360,1.16236,,,,,,,,,,,,,,0,14,14,4,1,,,,,,,,,,,,,,,,,,,,,,,,,,
,,,,,,,,,,,,a,Correct!,,,,,,t2.png,t1.png,1,0.90025,20,female ,2020-10-17_18h26.44.476,torte-q,2020.1.3,Win32,60,13360,1.03905,,,,,,,,,,,,,,0,15,15,19,1,,,,,,,,,,,,,,,,,,,,,,,,,,
,,,,,,,,,,,,a,Incorrect,,,,,,t5.png,t2.png,3,0.0000131,20,female ,2020-10-17_18h26.44.476,torte-q,2020.1.3,Win32,60,13360,1.010015,,,,,,,,,,,,,,0,16,16,116,1,,,,,,,,,,,,,,,,,,,,,,,,,,
,,,,,,,,,,,,a,Correct!,,,,,,t2.png,t3.png,1,0.90855,20,female ,2020-10-17_18h26.44.476,torte-q,2020.1.3,Win32,60,13360,0.953125,,,,,,,,,,,,,,0,17,17,111,1,,,,,,,,,,,,,,,,,,,,,,,,,,
,,,,,,,,,,,,a,Correct!,,,,,,t4.png,t3.png,1,0.909,20,female ,2020-10-17_18h26.44.476,torte-q,2020.1.3,Win32,60,13360,0.921475,,,,,,,,,,,,,,0,18,18,46,1,,,,,,,,,,,,,,,,,,,,,,,,,,
,,,,,,,,,,,,l,Correct!,,,,,,t2.png,t5.png,3,0.0000131,20,female ,2020-10-17_18h26.44.476,torte-q,2020.1.3,Win32,60,13360,1.304035,,,,,,,,,,,,,,0,19,19,104,1,,,,,,,,,,,,,,,,,,,,,,,,,,
,,,,,,,,,,,,l,Incorrect,,,,,,t5.png,t4.png,1,0.9,20,female ,2020-10-17_18h26.44.476,torte-q,2020.1.3,Win32,60,13360,1.168355,,,,,,,,,,,,,,0,20,20,49,1,,,,,,,,,,,,,,,,,,,,,,,,,,
,,,,,,,,,,,,a,Correct!,,,,,,t1.png,t1.png,0,0.978,20,female ,2020-10-17_18h26.44.476,torte-q,2020.1.3,Win32,60,13360,0.788615,,,,,,,,,,,,,,0,21,21,28,1,,,,,,,,,,,,,,,,,,,,,,,,,,
,,,,,,,,,,,,a,Incorrect,,,,,,t5.png,t1.png,4,9.55E-11,20,female ,2020-10-17_18h26.44.476,torte-q,2020.1.3,Win32,60,13360,1.108495,,,,,,,,,,,,,,0,22,22,71,1,,,,,,,,,,,,,,,,,,,,,,,,,,
,,,,,,,,,,,,a,Incorrect,,,,,,t4.png,t2.png,2,0.059078,20,female ,2020-10-17_18h26.44.476,torte-q,2020.1.3,Win32,60,13360,0.84961,,,,,,,,,,,,,,0,23,23,109,1,,,,,,,,,,,,,,,,,,,,,,,,,,
,,,,,,,,,,,,a,Incorrect,,,,,,t5.png,t3.png,2,0.0565,20,female ,2020-10-17_18h26.44.476,torte-q,2020.1.3,Win32,60,13360,1.27762,,,,,,,,,,,,,,0,24,24,39,1,,,,,,,,,,,,,,,,,,,,,,,,,,
,,,,,,,,,,,,l,Correct!,,,,,,t2.png,t5.png,3,0.0000131,20,female ,2020-10-17_18h26.44.476,torte-q,2020.1.3,Win32,60,13360,0.87289,,,,,,,,,,,,,,0,25,25,95,1,,,,,,,,,,,,,,,,,,,,,,,,,,
,,,,,,,,,,,,a,Incorrect,,,,,,t4.png,t2.png,2,0.059078,20,female ,2020-10-17_18h26.44.476,torte-q,2020.1.3,Win32,60,13360,0.820955,,,,,,,,,,,,,,0,26,26,86,1,,,,,,,,,,,,,,,,,,,,,,,,,,
,,,,,,,,,,,,l,Correct!,,,,,,t3.png,t2.png,1,0.90855,20,female ,2020-10-17_18h26.44.476,torte-q,2020.1.3,Win32,60,13360,0.75441,,,,,,,,,,,,,,0,27,27,18,1,,,,,,,,,,,,,,,,,,,,,,,,,,
,,,,,,,,,,,,l,Incorrect,,,,,,t5.png,t4.png,1,0.90025,20,female ,2020-10-17_18h26.44.476,torte-q,2020.1.3,Win32,60,13360,0.97812,,,,,,,,,,,,,,0,28,28,26,1,,,,,,,,,,,,,,,,,,,,,,,,,,
,,,,,,,,,,,,a,Correct!,,,,,,t2.png,t2.png,0,0.981,20,female ,2020-10-17_18h26.44.476,torte-q,2020.1.3,Win32,60,13360,0.79071,,,,,,,,,,,,,,0,29,29,101,1,,,,,,,,,,,,,,,,,,,,,,,,,,
,,,,,,,,,,,,a,Incorrect,,,,,,t5.png,t2.png,3,0.0000131,20,female ,2020-10-17_18h26.44.476,torte-q,2020.1.3,Win32,60,13360,0.640775,,,,,,,,,,,,,,0,30,30,119,1,,,,,,,,,,,,,,,,,,,,,,,,,,
,,,,,,,,,,,,a,Incorrect,,,,,,t4.png,t2.png,2,0.059078,20,female ,2020-10-17_18h26.44.476,torte-q,2020.1.3,Win32,60,13360,0.6515,,,,,,,,,,,,,,0,31,31,110,1,,,,,,,,,,,,,,,,,,,,,,,,,,
,,,,,,,,,,,,l,Incorrect,,,,,,t2.png,t2.png,0,0.98115,20,female ,2020-10-17_18h26.44.476,torte-q,2020.1.3,Win32,60,13360,0.754185,,,,,,,,,,,,,,0,32,32,2,1,,,,,,,,,,,,,,,,,,,,,,,,,,
,,,,,,,,,,,,a,Correct!,,,,,,t2.png,t1.png,1,0.90025,20,female ,2020-10-17_18h26.44.476,torte-q,2020.1.3,Win32,60,13360,0.70171,,,,,,,,,,,,,,0,33,33,5,1,,,,,,,,,,,,,,,,,,,,,,,,,,
,,,,,,,,,,,,l,Correct!,,,,,,t2.png,t4.png,2,0.0591,20,female ,2020-10-17_18h26.44.476,torte-q,2020.1.3,Win32,60,13360,0.773045,,,,,,,,,,,,,,0,34,34,15,1,,,,,,,,,,,,,,,,,,,,,,,,,,
,,,,,,,,,,,,a,Incorrect,,,,,,t5.png,t1.png,4,9.55E-11,20,female ,2020-10-17_18h26.44.476,torte-q,2020.1.3,Win32,60,13360,0.73833,,,,,,,,,,,,,,0,35,35,100,1,,,,,,,,,,,,,,,,,,,,,,,,,,
,,,,,,,,,,,,l,Incorrect,,,,,,t2.png,t1.png,1,0.90025,20,female ,2020-10-17_18h26.44.476,torte-q,2020.1.3,Win32,60,13360,1.1125,,,,,,,,,,,,,,0,36,36,62,1,,,,,,,,,,,,,,,,,,,,,,,,,,
,,,,,,,,,,,,l,Incorrect,,,,,,t3.png,t4.png,1,0.909,20,female ,2020-10-17_18h26.44.476,torte-q,2020.1.3,Win32,60,13360,0.66684,,,,,,,,,,,,,,0,37,37,106,1,,,,,,,,,,,,,,,,,,,,,,,,,,
,,,,,,,,,,,,a,Correct!,,,,,,t2.png,t3.png,1,0.909,20,female ,2020-10-17_18h26.44.476,torte-q,2020.1.3,Win32,60,13360,1.025355,,,,,,,,,,,,,,0,38,38,74,1,,,,,,,,,,,,,,,,,,,,,,,,,,
,,,,,,,,,,,,a,Incorrect,,,,,,t5.png,t3.png,2,0.056466,20,female ,2020-10-17_18h26.44.476,torte-q,2020.1.3,Win32,60,13360,0.68233,,,,,,,,,,,,,,0,39,39,56,1,,,,,,,,,,,,,,,,,,,,,,,,,,
,,,,,,,,,,,,a,Correct!,,,,,,t4.png,t3.png,1,0.909,20,female ,2020-10-17_18h26.44.476,torte-q,2020.1.3,Win32,60,13360,0.6168,,,,,,,,,,,,,,0,40,40,20,1,,,,,,,,,,,,,,,,,,,,,,,,,,
,,,,,,,,,,,,l,Correct!,,,,,,t2.png,t4.png,2,0.059078,20,female ,2020-10-17_18h26.44.476,torte-q,2020.1.3,Win32,60,13360,0.63733,,,,,,,,,,,,,,0,41,41,37,1,,,,,,,,,,,,,,,,,,,,,,,,,,
,,,,,,,,,,,,a,Incorrect,,,,,,t5.png,t5.png,0,0.978,20,female ,2020-10-17_18h26.44.476,torte-q,2020.1.3,Win32,60,13360,1.02862,,,,,,,,,,,,,,0,42,42,117,1,,,,,,,,,,,,,,,,,,,,,,,,,,
,,,,,,,,,,,,a,Correct!,,,,,,t4.png,t3.png,1,0.90855,20,female ,2020-10-17_18h26.44.476,torte-q,2020.1.3,Win32,60,13360,0.789165,,,,,,,,,,,,,,0,43,43,35,1,,,,,,,,,,,,,,,,,,,,,,,,,,
,,,,,,,,,,,,a,Incorrect,,,,,,t4.png,t1.png,3,0.0000131,20,female ,2020-10-17_18h26.44.476,torte-q,2020.1.3,Win32,60,13360,0.676355,,,,,,,,,,,,,,0,44,44,48,1,,,,,,,,,,,,,,,,,,,,,,,,,,
,,,,,,,,,,,,l,Incorrect,,,,,,t4.png,t4.png,0,0.98115,20,female ,2020-10-17_18h26.44.476,torte-q,2020.1.3,Win32,60,13360,1.43812,,,,,,,,,,,,,,0,45,45,80,1,,,,,,,,,,,,,,,,,,,,,,,,,,
,,,,,,,,,,,,l,Correct!,,,,,,t2.png,t5.png,3,0.0000131,20,female ,2020-10-17_18h26.44.476,torte-q,2020.1.3,Win32,60,13360,1.370085,,,,,,,,,,,,,,0,46,46,66,1,,,,,,,,,,,,,,,,,,,,,,,,,,
,,,,,,,,,,,,a,Correct!,,,,,,t4.png,t3.png,1,0.90855,20,female ,2020-10-17_18h26.44.476,torte-q,2020.1.3,Win32,60,13360,0.70203,,,,,,,,,,,,,,0,47,47,75,1,,,,,,,,,,,,,,,,,,,,,,,,,,
,,,,,,,,,,,,l,Incorrect,,,,,,t3.png,t4.png,1,0.90855,20,female ,2020-10-17_18h26.44.476,torte-q,2020.1.3,Win32,60,13360,0.93762,,,,,,,,,,,,,,0,48,48,84,1,,,,,,,,,,,,,,,,,,,,,,,,,,
,,,,,,,,,,,,a,Correct!,,,,,,t2.png,t3.png,1,0.90855,20,female ,2020-10-17_18h26.44.476,torte-q,2020.1.3,Win32,60,13360,0.870165,,,,,,,,,,,,,,0,49,49,65,1,,,,,,,,,,,,,,,,,,,,,,,,,,
,,,,,,,,,,,,l,Correct!,,,,,,t3.png,t5.png,2,0.056466,20,female ,2020-10-17_18h26.44.476,torte-q,2020.1.3,Win32,60,13360,1.16086,,,,,,,,,,,,,,0,50,50,6,1,,,,,,,,,,,,,,,,,,,,,,,,,,
,,,,,,,,,,,,l,Correct!,,,,,,t1.png,t5.png,4,9.55E-11,20,female ,2020-10-17_18h26.44.476,torte-q,2020.1.3,Win32,60,13360,0.98638,,,,,,,,,,,,,,0,51,51,12,1,,,,,,,,,,,,,,,,,,,,,,,,,,
,,,,,,,,,,,,l,Incorrect,,,,,,t3.png,t2.png,1,0.90855,20,female ,2020-10-17_18h26.44.476,torte-q,2020.1.3,Win32,60,13360,0.700195,,,,,,,,,,,,,,0,52,52,53,1,,,,,,,,,,,,,,,,,,,,,,,,,,
,,,,,,,,,,,,l,Correct!,,,,,,t1.png,t5.png,4,9.55E-11,20,female ,2020-10-17_18h26.44.476,torte-q,2020.1.3,Win32,60,13360,0.767845,,,,,,,,,,,,,,0,53,53,55,1,,,,,,,,,,,,,,,,,,,,,,,,,,
,,,,,,,,,,,,l,Correct!,,,,,,t5.png,t4.png,1,0.90025,20,female ,2020-10-17_18h26.44.476,torte-q,2020.1.3,Win32,60,13360,1.130425,,,,,,,,,,,,,,0,54,54,27,1,,,,,,,,,,,,,,,,,,,,,,,,,,
,,,,,,,,,,,,a,Incorrect,,,,,,t2.png,t5.png,3,0.0000131,20,female ,2020-10-17_18h26.44.476,torte-q,2020.1.3,Win32,60,13360,1.1711,,,,,,,,,,,,,,0,55,55,8,1,,,,,,,,,,,,,,,,,,,,,,,,,,
,,,,,,,,,,,,a,Correct!,,,,,,t4.png,t5.png,1,0.90025,20,female ,2020-10-17_18h26.44.476,torte-q,2020.1.3,Win32,60,13360,0.95913,,,,,,,,,,,,,,0,56,56,113,1,,,,,,,,,,,,,,,,,,,,,,,,,,
,,,,,,,,,,,,a,Correct!,,,,,,t5.png,t5.png,0,0.97829,20,female ,2020-10-17_18h26.44.476,torte-q,2020.1.3,Win32,60,13360,1.27,,,,,,,,,,,,,,0,57,57,94,1,,,,,,,,,,,,,,,,,,,,,,,,,,
,,,,,,,,,,,,l,Incorrect,,,,,,t2.png,t1.png,1,0.9,20,female ,2020-10-17_18h26.44.476,torte-q,2020.1.3,Win32,60,13360,0.80688,,,,,,,,,,,,,,0,58,58,118,1,,,,,,,,,,,,,,,,,,,,,,,,,,
,,,,,,,,,,,,a,Correct!,,,,,,t5.png,t5.png,0,0.97829,20,female ,2020-10-17_18h26.44.476,torte-q,2020.1.3,Win32,60,13360,0.917775,,,,,,,,,,,,,,0,59,59,70,1,,,,,,,,,,,,,,,,,,,,,,,,,,
,,,,,,,,,,,,l,Correct!,,,,,,t1.png,t4.png,3,0.0000131,20,female ,2020-10-17_18h26.44.476,torte-q,2020.1.3,Win32,60,13360,1.14045,,,,,,,,,,,,,,0,60,60,17,1,,,,,,,,,,,,,,,,,,,,,,,,,,
,,,,,,,,,,,,a,Correct!,,,,,,t4.png,t4.png,0,0.98115,20,female ,2020-10-17_18h26.44.476,torte-q,2020.1.3,Win32,60,13360,0.81722,,,,,,,,,,,,,,0,61,61,21,1,,,,,,,,,,,,,,,,,,,,,,,,,,
,,,,,,,,,,,,a,Correct!,,,,,,t2.png,t3.png,1,0.90855,20,female ,2020-10-17_18h26.44.476,torte-q,2020.1.3,Win32,60,13360,0.70181,,,,,,,,,,,,,,0,62,62,10,1,,,,,,,,,,,,,,,,,,,,,,,,,,
,,,,,,,,,,,,a,Correct!,,,,,,t4.png,t4.png,0,0.98115,20,female ,2020-10-17_18h26.44.476,torte-q,2020.1.3,Win32,60,13360,1.035065,,,,,,,,,,,,,,0,63,63,90,1,,,,,,,,,,,,,,,,,,,,,,,,,,
,,,,,,,,,,,,l,Correct!,,,,,,t2.png,t4.png,2,0.059078,20,female ,2020-10-17_18h26.44.476,torte-q,2020.1.3,Win32,60,13360,1.071525,,,,,,,,,,,,,,0,64,64,24,1,,,,,,,,,,,,,,,,,,,,,,,,,,
,,,,,,,,,,,,a,Correct!,,,,,,t4.png,t4.png,0,0.98115,20,female ,2020-10-17_18h26.44.476,torte-q,2020.1.3,Win32,60,13360,0.90194,,,,,,,,,,,,,,0,65,65,79,1,,,,,,,,,,,,,,,,,,,,,,,,,,
,,,,,,,,,,,,l,Correct!,,,,,,t1.png,t4.png,3,0.0000131,20,female ,2020-10-17_18h26.44.476,torte-q,2020.1.3,Win32,60,13360,0.88545,,,,,,,,,,,,,,0,66,66,81,1,,,,,,,,,,,,,,,,,,,,,,,,,,
,,,,,,,,,,,,a,Incorrect,,,,,,t4.png,t1.png,3,0.0000131,20,female ,2020-10-17_18h26.44.476,torte-q,2020.1.3,Win32,60,13360,0.67005,,,,,,,,,,,,,,0,67,67,42,1,,,,,,,,,,,,,,,,,,,,,,,,,,
,,,,,,,,,,,,l,Correct!,,,,,,t3.png,t1.png,2,0.056466,20,female ,2020-10-17_18h26.44.476,torte-q,2020.1.3,Win32,60,13360,0.701505,,,,,,,,,,,,,,0,68,68,0,1,,,,,,,,,,,,,,,,,,,,,,,,,,
,,,,,,,,,,,,a,Correct!,,,,,,t1.png,t1.png,0,0.97829,20,female ,2020-10-17_18h26.44.476,torte-q,2020.1.3,Win32,60,13360,0.736795,,,,,,,,,,,,,,0,69,69,67,1,,,,,,,,,,,,,,,,,,,,,,,,,,
,,,,,,,,,,,,l,Correct!,,,,,,t2.png,t5.png,3,0.0000131,20,female ,2020-10-17_18h26.44.476,torte-q,2020.1.3,Win32,60,13360,1.17422,,,,,,,,,,,,,,0,70,70,40,1,,,,,,,,,,,,,,,,,,,,,,,,,,
,,,,,,,,,,,,l,Correct!,,,,,,t3.png,t1.png,2,0.056466,20,female ,2020-10-17_18h26.44.476,torte-q,2020.1.3,Win32,60,13360,0.83669,,,,,,,,,,,,,,0,71,71,32,1,,,,,,,,,,,,,,,,,,,,,,,,,,
,,,,,,,,,,,,a,Incorrect,,,,,,t5.png,t2.png,3,0.0000131,20,female ,2020-10-17_18h26.44.476,torte-q,2020.1.3,Win32,60,13360,0.805015,,,,,,,,,,,,,,0,72,72,98,1,,,,,,,,,,,,,,,,,,,,,,,,,,
,,,,,,,,,,,,a,Correct!,,,,,,t1.png,t3.png,2,0.056466,20,female ,2020-10-17_18h26.44.476,torte-q,2020.1.3,Win32,60,13360,0.740325,,,,,,,,,,,,,,0,73,73,87,1,,,,,,,,,,,,,,,,,,,,,,,,,,
,,,,,,,,,,,,a,Incorrect,,,,,,t5.png,t3.png,2,0.056466,20,female ,2020-10-17_18h26.44.476,torte-q,2020.1.3,Win32,60,13360,0.73477,,,,,,,,,,,,,,0,74,74,38,1,,,,,,,,,,,,,,,,,,,,,,,,,,
,,,,,,,,,,,,l,Incorrect,,,,,,t4.png,t4.png,0,0.98115,20,female ,2020-10-17_18h26.44.476,torte-q,2020.1.3,Win32,60,13360,1.118935,,,,,,,,,,,,,,0,75,75,52,1,,,,,,,,,,,,,,,,,,,,,,,,,,
,,,,,,,,,,,,l,Correct!,,,,,,t1.png,t5.png,4,9.55E-11,20,female ,2020-10-17_18h26.44.476,torte-q,2020.1.3,Win32,60,13360,0.86044,,,,,,,,,,,,,,0,76,76,85,1,,,,,,,,,,,,,,,,,,,,,,,,,,
,,,,,,,,,,,,a,Incorrect,,,,,,t5.png,t1.png,4,9.55E-11,20,female ,2020-10-17_18h26.44.476,torte-q,2020.1.3,Win32,60,13360,0.685515,,,,,,,,,,,,,,0,77,77,22,1,,,,,,,,,,,,,,,,,,,,,,,,,,
,,,,,,,,,,,,l,Correct!,,,,,,t1.png,t2.png,1,0.90025,20,female ,2020-10-17_18h26.44.476,torte-q,2020.1.3,Win32,60,13360,0.95252,,,,,,,,,,,,,,0,78,78,105,1,,,,,,,,,,,,,,,,,,,,,,,,,,
,,,,,,,,,,,,a,Incorrect,,,,,,t5.png,t3.png,2,0.056466,20,female ,2020-10-17_18h26.44.476,torte-q,2020.1.3,Win32,60,13360,0.75216,,,,,,,,,,,,,,0,79,79,114,1,,,,,,,,,,,,,,,,,,,,,,,,,,
,,,,,,,,,,,,l,Incorrect,,,,,,t5.png,t4.png,1,0.9,20,female ,2020-10-17_18h26.44.476,torte-q,2020.1.3,Win32,60,13360,0.750885,,,,,,,,,,,,,,0,80,80,76,1,,,,,,,,,,,,,,,,,,,,,,,,,,
,,,,,,,,,,,,l,Incorrect,,,,,,t3.png,t4.png,1,0.909,20,female ,2020-10-17_18h26.44.476,torte-q,2020.1.3,Win32,60,13360,0.70814,,,,,,,,,,,,,,0,81,81,89,1,,,,,,,,,,,,,,,,,,,,,,,,,,
,,,,,,,,,,,,l,Correct!,,,,,,t1.png,t4.png,3,0.0000131,20,female ,2020-10-17_18h26.44.476,torte-q,2020.1.3,Win32,60,13360,0.70464,,,,,,,,,,,,,,0,82,82,107,1,,,,,,,,,,,,,,,,,,,,,,,,,,
,,,,,,,,,,,,a,Correct!,,,,,,t4.png,t5.png,1,0.90025,20,female ,2020-10-17_18h26.44.476,torte-q,2020.1.3,Win32,60,13360,0.928105,,,,,,,,,,,,,,0,83,83,47,1,,,,,,,,,,,,,,,,,,,,,,,,,,
,,,,,,,,,,,,l,Incorrect,,,,,,t2.png,t2.png,0,0.98115,20,female ,2020-10-17_18h26.44.476,torte-q,2020.1.3,Win32,60,13360,0.734185,,,,,,,,,,,,,,0,84,84,7,1,,,,,,,,,,,,,,,,,,,,,,,,,,
,,,,,,,,,,,,a,Correct!,,,,,,t4.png,t5.png,1,0.9,20,female ,2020-10-17_18h26.44.476,torte-q,2020.1.3,Win32,60,13360,0.841645,,,,,,,,,,,,,,0,85,85,115,1,,,,,,,,,,,,,,,,,,,,,,,,,,
,,,,,,,,,,,,l,Correct!,,,,,,t3.png,t5.png,2,0.056466,20,female ,2020-10-17_18h26.44.476,torte-q,2020.1.3,Win32,60,13360,1.169225,,,,,,,,,,,,,,0,86,86,44,1,,,,,,,,,,,,,,,,,,,,,,,,,,
,,,,,,,,,,,,l,Correct!,,,,,,t1.png,t4.png,3,0.0000131,20,female ,2020-10-17_18h26.44.476,torte-q,2020.1.3,Win32,60,13360,0.969055,,,,,,,,,,,,,,0,87,87,92,1,,,,,,,,,,,,,,,,,,,,,,,,,,
,,,,,,,,,,,,a,Correct!,,,,,,t5.png,t5.png,0,0.97829,20,female ,2020-10-17_18h26.44.476,torte-q,2020.1.3,Win32,60,13360,0.936155,,,,,,,,,,,,,,0,88,88,73,1,,,,,,,,,,,,,,,,,,,,,,,,,,
,,,,,,,,,,,,l,Correct!,,,,,,t2.png,t4.png,2,0.059078,20,female ,2020-10-17_18h26.44.476,torte-q,2020.1.3,Win32,60,13360,0.800765,,,,,,,,,,,,,,0,89,89,11,1,,,,,,,,,,,,,,,,,,,,,,,,,,
,,,,,,,,,,,,a,Correct!,,,,,,t2.png,t3.png,1,0.90855,20,female ,2020-10-17_18h26.44.476,torte-q,2020.1.3,Win32,60,13360,0.791615,,,,,,,,,,,,,,0,90,90,68,1,,,,,,,,,,,,,,,,,,,,,,,,,,
,,,,,,,,,,,,l,Correct!,,,,,,t3.png,t1.png,2,0.0565,20,female ,2020-10-17_18h26.44.476,torte-q,2020.1.3,Win32,60,13360,0.837045,,,,,,,,,,,,,,0,91,91,31,1,,,,,,,,,,,,,,,,,,,,,,,,,,
,,,,,,,,,,,,l,Correct!,,,,,,t3.png,t1.png,2,0.056466,20,female ,2020-10-17_18h26.44.476,torte-q,2020.1.3,Win32,60,13360,0.65372,,,,,,,,,,,,,,0,92,92,64,1,,,,,,,,,,,,,,,,,,,,,,,,,,
,,,,,,,,,,,,l,Correct!,,,,,,t2.png,t4.png,2,0.059078,20,female ,2020-10-17_18h26.44.476,torte-q,2020.1.3,Win32,60,13360,0.71871,,,,,,,,,,,,,,0,93,93,77,1,,,,,,,,,,,,,,,,,,,,,,,,,,
,,,,,,,,,,,,l,Correct!,,,,,,t3.png,t1.png,2,0.056466,20,female ,2020-10-17_18h26.44.476,torte-q,2020.1.3,Win32,60,13360,0.72053,,,,,,,,,,,,,,0,94,94,29,1,,,,,,,,,,,,,,,,,,,,,,,,,,
,,,,,,,,,,,,a,Incorrect,,,,,,t1.png,t5.png,4,9.55E-11,20,female ,2020-10-17_18h26.44.476,torte-q,2020.1.3,Win32,60,13360,0.839385,,,,,,,,,,,,,,0,95,95,41,1,,,,,,,,,,,,,,,,,,,,,,,,,,
,,,,,,,,,,,,a,Incorrect,,,,,,t1.png,t3.png,2,0.056466,20,female ,2020-10-17_18h26.44.476,torte-q,2020.1.3,Win32,60,13360,0.719475,,,,,,,,,,,,,,0,96,96,60,1,,,,,,,,,,,,,,,,,,,,,,,,,,
,,,,,,,,,,,,a,Incorrect,,,,,,t4.png,t1.png,3,0.0000131,20,female ,2020-10-17_18h26.44.476,torte-q,2020.1.3,Win32,60,13360,1.57149,,,,,,,,,,,,,,0,97,97,93,1,,,,,,,,,,,,,,,,,,,,,,,,,,
,,,,,,,,,,,,l,Incorrect,,,,,,t3.png,t4.png,1,0.90855,20,female ,2020-10-17_18h26.44.476,torte-q,2020.1.3,Win32,60,13360,0.684465,,,,,,,,,,,,,,0,98,98,96,1,,,,,,,,,,,,,,,,,,,,,,,,,,
,,,,,,,,,,,,a,Correct!,,,,,,t5.png,t5.png,0,0.97829,20,female ,2020-10-17_18h26.44.476,torte-q,2020.1.3,Win32,60,13360,1.92177,,,,,,,,,,,,,,0,99,99,25,1,,,,,,,,,,,,,,,,,,,,,,,,,,
,,,,,,,,,,,,l,Correct!,,,,,,t3.png,t5.png,2,0.0565,20,female ,2020-10-17_18h26.44.476,torte-q,2020.1.3,Win32,60,13360,1.35909,,,,,,,,,,,,,,0,100,100,83,1,,,,,,,,,,,,,,,,,,,,,,,,,,
,,,,,,,,,,,,a,Incorrect,,,,,,t1.png,t3.png,2,0.056466,20,female ,2020-10-17_18h26.44.476,torte-q,2020.1.3,Win32,60,13360,0.935455,,,,,,,,,,,,,,0,101,101,69,1,,,,,,,,,,,,,,,,,,,,,,,,,,
,,,,,,,,,,,,l,Incorrect,,,,,,t1.png,t1.png,0,0.978,20,female ,2020-10-17_18h26.44.476,torte-q,2020.1.3,Win32,60,13360,0.660435,,,,,,,,,,,,,,0,102,102,54,1,,,,,,,,,,,,,,,,,,,,,,,,,,
,,,,,,,,,,,,l,Incorrect,,,,,,t1.png,t2.png,1,0.90025,20,female ,2020-10-17_18h26.44.476,torte-q,2020.1.3,Win32,60,13360,0.85579,,,,,,,,,,,,,,0,103,103,112,1,,,,,,,,,,,,,,,,,,,,,,,,,,
,,,,,,,,,,,,a,Correct!,,,,,,t1.png,t2.png,1,0.90025,20,female ,2020-10-17_18h26.44.476,torte-q,2020.1.3,Win32,60,13360,1.655305,,,,,,,,,,,,,,0,104,104,33,1,,,,,,,,,,,,,,,,,,,,,,,,,,
,,,,,,,,,,,,a,Incorrect,,,,,,t5.png,t3.png,2,0.056466,20,female ,2020-10-17_18h26.44.476,torte-q,2020.1.3,Win32,60,13360,1.120145,,,,,,,,,,,,,,0,105,105,108,1,,,,,,,,,,,,,,,,,,,,,,,,,,
,,,,,,,,,,,,a,Correct!,,,,,,t4.png,t5.png,1,0.90025,20,female ,2020-10-17_18h26.44.476,torte-q,2020.1.3,Win32,60,13360,1.035875,,,,,,,,,,,,,,0,106,106,103,1,,,,,,,,,,,,,,,,,,,,,,,,,,
,,,,,,,,,,,,a,Incorrect,,,,,,t5.png,t2.png,3,0.0000131,20,female ,2020-10-17_18h26.44.476,torte-q,2020.1.3,Win32,60,13360,0.919605,,,,,,,,,,,,,,0,107,107,51,1,,,,,,,,,,,,,,,,,,,,,,,,,,
,,,,,,,,,,,,a,Incorrect,,,,,,t4.png,t2.png,2,0.059078,20,female ,2020-10-17_18h26.44.476,torte-q,2020.1.3,Win32,60,13360,1.23808,,,,,,,,,,,,,,0,108,108,88,1,,,,,,,,,,,,,,,,,,,,,,,,,,
,,,,,,,,,,,,l,Incorrect,,,,,,t3.png,t4.png,1,0.909,20,female ,2020-10-17_18h26.44.476,torte-q,2020.1.3,Win32,60,13360,1.01179,,,,,,,,,,,,,,0,109,109,82,1,,,,,,,,,,,,,,,,,,,,,,,,,,
,,,,,,,,,,,,a,Correct!,,,,,,t5.png,t4.png,1,0.90025,20,female ,2020-10-17_18h26.44.476,torte-q,2020.1.3,Win32,60,13360,1.70471,,,,,,,,,,,,,,0,110,110,34,1,,,,,,,,,,,,,,,,,,,,,,,,,,
,,,,,,,,,,,,l,Incorrect,,,,,,t2.png,t2.png,0,0.98115,20,female ,2020-10-17_18h26.44.476,torte-q,2020.1.3,Win32,60,13360,0.78466,,,,,,,,,,,,,,0,111,111,59,1,,,,,,,,,,,,,,,,,,,,,,,,,,
,,,,,,,,,,,,a,Incorrect,,,,,,t4.png,t1.png,3,0.0000131,20,female ,2020-10-17_18h26.44.476,torte-q,2020.1.3,Win32,60,13360,0.95347,,,,,,,,,,,,,,0,112,112,13,1,,,,,,,,,,,,,,,,,,,,,,,,,,
,,,,,,,,,,,,l,Correct!,,,,,,t1.png,t4.png,3,0.0000131,20,female ,2020-10-17_18h26.44.476,torte-q,2020.1.3,Win32,60,13360,0.93578,,,,,,,,,,,,,,0,113,113,50,1,,,,,,,,,,,,,,,,,,,,,,,,,,
,,,,,,,,,,,,l,Correct!,,,,,,t1.png,t5.png,4,9.55E-11,20,female ,2020-10-17_18h26.44.476,torte-q,2020.1.3,Win32,60,13360,1.24321,,,,,,,,,,,,,,0,114,114,16,1,,,,,,,,,,,,,,,,,,,,,,,,,,
,,,,,,,,,,,,a,Incorrect,,,,,,t4.png,t2.png,2,0.0591,20,female ,2020-10-17_18h26.44.476,torte-q,2020.1.3,Win32,60,13360,1.172225,,,,,,,,,,,,,,0,115,115,36,1,,,,,,,,,,,,,,,,,,,,,,,,,,
,,,,,,,,,,,,a,Incorrect,,,,,,t5.png,t1.png,4,9.55E-11,20,female ,2020-10-17_18h26.44.476,torte-q,2020.1.3,Win32,60,13360,1.05201,,,,,,,,,,,,,,0,116,116,102,1,,,,,,,,,,,,,,,,,,,,,,,,,,
,,,,,,,,,,,,l,Incorrect,,,,,,t3.png,t2.png,1,0.909,20,female ,2020-10-17_18h26.44.476,torte-q,2020.1.3,Win32,60,13360,0.902035,,,,,,,,,,,,,,0,117,117,23,1,,,,,,,,,,,,,,,,,,,,,,,,,,
,,,,,,,,,,,,l,Incorrect,,,,,,t1.png,t2.png,1,0.90025,20,female ,2020-10-17_18h26.44.476,torte-q,2020.1.3,Win32,60,13360,1.28583,,,,,,,,,,,,,,0,118,118,72,1,,,,,,,,,,,,,,,,,,,,,,,,,,
,,,,,,,,,,,,l,Correct!,,,,,,t3.png,t5.png,2,0.0565,20,female ,2020-10-17_18h26.44.476,torte-q,2020.1.3,Win32,60,13360,1.341495,,,,,,,,,,,,,,0,119,119,30,1,,,,,,,,,,,,,,,,,,,,,,,,,,
,,,,,,,,,,,,,,,,,,,,,,,20,female ,2020-10-17_18h26.44.476,torte-q,2020.1.3,Win32,60,13360,,space,2.12345,,,,,,,,,,,,,,,,,5.0275,10.63617,231,74,1,0,0,s3,13,35,1,0,0,t2,254,-105,1,0,0,proceed,space,20.158745,space,1.0361,space,0.125125
