key_resp_8.keys,key_resp_8.rt,key_resp_9.keys,key_resp_9.rt,key_resp_10.keys,key_resp_10.rt,key_resp_11.keys,key_resp_11.rt,key_resp_2.keys,key_resp_2.rt,key_resp_3.keys,key_resp_3.rt,key_resp.keys,Feedback,train.thisRepN,train.thisTrialN,train.thisN,train.thisIndex,train.ran,torta_sx,torta_dx,difference,probability,age,gender,date,expName,psychopyVersion,OS,frameRate,participant,key_resp.rt,key_resp_15.keys,key_resp_15.rt,key_resp_6.keys,key_resp_6.rt,test1.thisRepN,test1.thisTrialN,test1.thisN,test1.thisIndex,test1.ran,key_resp_16.keys,key_resp_16.rt,key_resp_7.keys,key_resp_7.rt,test2.thisRepN,test2.thisTrialN,test2.thisN,test2.thisIndex,test2.ran,rating.response,rating.rt,mouse.x,mouse.y,mouse.leftButton,mouse.midButton,mouse.rightButton,mouse.clicked_name,mouse_2.x,mouse_2.y,mouse_2.leftButton,mouse_2.midButton,mouse_2.rightButton,mouse_2.clicked_name,mouse_3.x,mouse_3.y,mouse_3.leftButton,mouse_3.midButton,mouse_3.rightButton,mouse_3.clicked_name,key_resp_12.keys,key_resp_12.rt,key_resp_13.keys,key_resp_13.rt,key_resp_14.keys,key_resp_14.rt
space,1.156,space,1.098,space,0.835,space,0.423,j,0.185,j,20.748,,Too slow :(,0,0,0,43,1,t4.png,t2.png,2,0.059078,19,female,2020-11-15_16h03.05.581,torte-q,2020.1.3,MacIntel,60,13363,,,,,,,,,,,,,,,,,,,,,,,,,,,,,,,,,,,,,,,,,,,,,
,,,,,,,,,,,,,Too slow :(,0,1,1,36,1,t3.png,t1.png,2,0.0565,19,female,2020-11-15_16h03.05.581,torte-q,2020.1.3,MacIntel,60,13363,,,,,,,,,,,,,,,,,,,,,,,,,,,,,,,,,,,,,,,,,,,,,
,,,,,,,,,,,,,Too slow :(,0,2,2,18,1,t4.png,t5.png,1,0.90025,19,female,2020-11-15_16h03.05.581,torte-q,2020.1.3,MacIntel,60,13363,,,,,,,,,,,,,,,,,,,,,,,,,,,,,,,,,,,,,,,,,,,,,
,,,,,,,,,,,,,Too slow :(,0,3,3,23,1,t5.png,t4.png,1,0.90025,19,female,2020-11-15_16h03.05.581,torte-q,2020.1.3,MacIntel,60,13363,,,,,,,,,,,,,,,,,,,,,,,,,,,,,,,,,,,,,,,,,,,,,
,,,,,,,,,,,,,Too slow :(,0,4,4,21,1,t5.png,t4.png,1,0.90025,19,female,2020-11-15_16h03.05.581,torte-q,2020.1.3,MacIntel,60,13363,,,,,,,,,,,,,,,,,,,,,,,,,,,,,,,,,,,,,,,,,,,,,
,,,,,,,,,,,,,Too slow :(,0,5,5,111,1,t5.png,t1.png,4,9.55E-11,19,female,2020-11-15_16h03.05.581,torte-q,2020.1.3,MacIntel,60,13363,,,,,,,,,,,,,,,,,,,,,,,,,,,,,,,,,,,,,,,,,,,,,
,,,,,,,,,,,,a,Correct!,0,6,6,25,1,t5.png,t5.png,0,0.97829,19,female,2020-11-15_16h03.05.581,torte-q,2020.1.3,MacIntel,60,13363,1.603,,,,,,,,,,,,,,,,,,,,,,,,,,,,,,,,,,,,,,,,,,,,
,,,,,,,,,,,,a,Incorrect,0,7,7,40,1,t1.png,t5.png,4,9.55E-11,19,female,2020-11-15_16h03.05.581,torte-q,2020.1.3,MacIntel,60,13363,1.787,,,,,,,,,,,,,,,,,,,,,,,,,,,,,,,,,,,,,,,,,,,,
,,,,,,,,,,,,,Too slow :(,0,8,8,10,1,t2.png,t3.png,1,0.90855,19,female,2020-11-15_16h03.05.581,torte-q,2020.1.3,MacIntel,60,13363,,,,,,,,,,,,,,,,,,,,,,,,,,,,,,,,,,,,,,,,,,,,,
,,,,,,,,,,,,,Too slow :(,0,9,9,63,1,t2.png,t3.png,1,0.909,19,female,2020-11-15_16h03.05.581,torte-q,2020.1.3,MacIntel,60,13363,,,,,,,,,,,,,,,,,,,,,,,,,,,,,,,,,,,,,,,,,,,,,
,,,,,,,,,,,,a,Incorrect,0,10,10,82,1,t5.png,t1.png,4,9.55E-11,19,female,2020-11-15_16h03.05.581,torte-q,2020.1.3,MacIntel,60,13363,1.214,,,,,,,,,,,,,,,,,,,,,,,,,,,,,,,,,,,,,,,,,,,,
,,,,,,,,,,,,,Too slow :(,0,11,11,67,1,t1.png,t5.png,4,9.55E-11,19,female,2020-11-15_16h03.05.581,torte-q,2020.1.3,MacIntel,60,13363,,,,,,,,,,,,,,,,,,,,,,,,,,,,,,,,,,,,,,,,,,,,,
,,,,,,,,,,,,,Too slow :(,0,12,12,29,1,t5.png,t5.png,0,0.97829,19,female,2020-11-15_16h03.05.581,torte-q,2020.1.3,MacIntel,60,13363,,,,,,,,,,,,,,,,,,,,,,,,,,,,,,,,,,,,,,,,,,,,,
,,,,,,,,,,,,,Too slow :(,0,13,13,98,1,t2.png,t4.png,2,0.0591,19,female,2020-11-15_16h03.05.581,torte-q,2020.1.3,MacIntel,60,13363,,,,,,,,,,,,,,,,,,,,,,,,,,,,,,,,,,,,,,,,,,,,,
,,,,,,,,,,,,a,Correct!,0,14,14,109,1,t5.png,t5.png,0,0.97829,19,female,2020-11-15_16h03.05.581,torte-q,2020.1.3,MacIntel,60,13363,1.631,,,,,,,,,,,,,,,,,,,,,,,,,,,,,,,,,,,,,,,,,,,,
,,,,,,,,,,,,l,Correct!,0,15,15,60,1,t2.png,t4.png,2,0.059078,19,female,2020-11-15_16h03.05.581,torte-q,2020.1.3,MacIntel,60,13363,0.315,,,,,,,,,,,,,,,,,,,,,,,,,,,,,,,,,,,,,,,,,,,,
,,,,,,,,,,,,l,Incorrect,0,16,16,106,1,t2.png,t3.png,1,0.90855,19,female,2020-11-15_16h03.05.581,torte-q,2020.1.3,MacIntel,60,13363,2.05,,,,,,,,,,,,,,,,,,,,,,,,,,,,,,,,,,,,,,,,,,,,
,,,,,,,,,,,,a,Correct!,0,17,17,95,1,t1.png,t1.png,0,0.978,19,female,2020-11-15_16h03.05.581,torte-q,2020.1.3,MacIntel,60,13363,0.37,,,,,,,,,,,,,,,,,,,,,,,,,,,,,,,,,,,,,,,,,,,,
,,,,,,,,,,,,a,Correct!,0,18,18,74,1,t5.png,t4.png,1,0.9,19,female,2020-11-15_16h03.05.581,torte-q,2020.1.3,MacIntel,60,13363,1.071,,,,,,,,,,,,,,,,,,,,,,,,,,,,,,,,,,,,,,,,,,,,
,,,,,,,,,,,,l,Incorrect,0,19,19,16,1,t5.png,t4.png,1,0.9,19,female,2020-11-15_16h03.05.581,torte-q,2020.1.3,MacIntel,60,13363,0.841,,,,,,,,,,,,,,,,,,,,,,,,,,,,,,,,,,,,,,,,,,,,
,,,,,,,,,,,,a,Correct!,0,20,20,113,1,t5.png,t4.png,1,0.9,19,female,2020-11-15_16h03.05.581,torte-q,2020.1.3,MacIntel,60,13363,0.59,,,,,,,,,,,,,,,,,,,,,,,,,,,,,,,,,,,,,,,,,,,,
,,,,,,,,,,,,l,Incorrect,0,21,21,107,1,t1.png,t1.png,0,0.978,19,female,2020-11-15_16h03.05.581,torte-q,2020.1.3,MacIntel,60,13363,1.052,,,,,,,,,,,,,,,,,,,,,,,,,,,,,,,,,,,,,,,,,,,,
,,,,,,,,,,,,a,Correct!,0,22,22,79,1,t3.png,t2.png,1,0.909,19,female,2020-11-15_16h03.05.581,torte-q,2020.1.3,MacIntel,60,13363,0.673,,,,,,,,,,,,,,,,,,,,,,,,,,,,,,,,,,,,,,,,,,,,
,,,,,,,,,,,,a,Correct!,0,23,23,64,1,t1.png,t1.png,0,0.978,19,female,2020-11-15_16h03.05.581,torte-q,2020.1.3,MacIntel,60,13363,0.701,,,,,,,,,,,,,,,,,,,,,,,,,,,,,,,,,,,,,,,,,,,,
,,,,,,,,,,,,a,Incorrect,0,24,24,0,1,t5.png,t1.png,4,9.55E-11,19,female,2020-11-15_16h03.05.581,torte-q,2020.1.3,MacIntel,60,13363,1.497,,,,,,,,,,,,,,,,,,,,,,,,,,,,,,,,,,,,,,,,,,,,
,,,,,,,,,,,,a,Correct!,0,25,25,110,1,t4.png,t5.png,1,0.90025,19,female,2020-11-15_16h03.05.581,torte-q,2020.1.3,MacIntel,60,13363,1.915,,,,,,,,,,,,,,,,,,,,,,,,,,,,,,,,,,,,,,,,,,,,
,,,,,,,,,,,,a,Incorrect,0,26,26,9,1,t4.png,t5.png,1,0.9,19,female,2020-11-15_16h03.05.581,torte-q,2020.1.3,MacIntel,60,13363,0.472,,,,,,,,,,,,,,,,,,,,,,,,,,,,,,,,,,,,,,,,,,,,
,,,,,,,,,,,,l,Correct!,0,27,27,68,1,t1.png,t4.png,3,0.0000131,19,female,2020-11-15_16h03.05.581,torte-q,2020.1.3,MacIntel,60,13363,0.369,,,,,,,,,,,,,,,,,,,,,,,,,,,,,,,,,,,,,,,,,,,,
,,,,,,,,,,,,a,Correct!,0,28,28,76,1,t3.png,t2.png,1,0.90855,19,female,2020-11-15_16h03.05.581,torte-q,2020.1.3,MacIntel,60,13363,0.405,,,,,,,,,,,,,,,,,,,,,,,,,,,,,,,,,,,,,,,,,,,,
,,,,,,,,,,,,l,Incorrect,0,29,29,112,1,t1.png,t1.png,0,0.97829,19,female,2020-11-15_16h03.05.581,torte-q,2020.1.3,MacIntel,60,13363,0.608,,,,,,,,,,,,,,,,,,,,,,,,,,,,,,,,,,,,,,,,,,,,
,,,,,,,,,,,,a,Correct!,0,30,30,44,1,t2.png,t3.png,1,0.909,19,female,2020-11-15_16h03.05.581,torte-q,2020.1.3,MacIntel,60,13363,0.314,,,,,,,,,,,,,,,,,,,,,,,,,,,,,,,,,,,,,,,,,,,,
,,,,,,,,,,,,l,Correct!,0,31,31,34,1,t5.png,t4.png,1,0.9,19,female,2020-11-15_16h03.05.581,torte-q,2020.1.3,MacIntel,60,13363,0.353,,,,,,,,,,,,,,,,,,,,,,,,,,,,,,,,,,,,,,,,,,,,
,,,,,,,,,,,,l,Correct!,0,32,32,1,1,t2.png,t4.png,2,0.059078,19,female,2020-11-15_16h03.05.581,torte-q,2020.1.3,MacIntel,60,13363,1.021,,,,,,,,,,,,,,,,,,,,,,,,,,,,,,,,,,,,,,,,,,,,
,,,,,,,,,,,,l,Correct!,0,33,33,11,1,t1.png,t4.png,3,0.0000131,19,female,2020-11-15_16h03.05.581,torte-q,2020.1.3,MacIntel,60,13363,0.368,,,,,,,,,,,,,,,,,,,,,,,,,,,,,,,,,,,,,,,,,,,,
,,,,,,,,,,,,l,Incorrect,0,34,34,97,1,t5.png,t5.png,0,0.97829,19,female,2020-11-15_16h03.05.581,torte-q,2020.1.3,MacIntel,60,13363,0.374,,,,,,,,,,,,,,,,,,,,,,,,,,,,,,,,,,,,,,,,,,,,
,,,,,,,,,,,,l,Correct!,0,35,35,89,1,t1.png,t4.png,3,0.0000131,19,female,2020-11-15_16h03.05.581,torte-q,2020.1.3,MacIntel,60,13363,0.44,,,,,,,,,,,,,,,,,,,,,,,,,,,,,,,,,,,,,,,,,,,,
,,,,,,,,,,,,a,Incorrect,0,36,36,26,1,t4.png,t2.png,2,0.0591,19,female,2020-11-15_16h03.05.581,torte-q,2020.1.3,MacIntel,60,13363,0.43,,,,,,,,,,,,,,,,,,,,,,,,,,,,,,,,,,,,,,,,,,,,
,,,,,,,,,,,,l,Incorrect,0,37,37,48,1,t5.png,t5.png,0,0.97829,19,female,2020-11-15_16h03.05.581,torte-q,2020.1.3,MacIntel,60,13363,0.439,,,,,,,,,,,,,,,,,,,,,,,,,,,,,,,,,,,,,,,,,,,,
,,,,,,,,,,,,a,Correct!,0,38,38,101,1,t4.png,t5.png,1,0.90025,19,female,2020-11-15_16h03.05.581,torte-q,2020.1.3,MacIntel,60,13363,0.339,,,,,,,,,,,,,,,,,,,,,,,,,,,,,,,,,,,,,,,,,,,,
,,,,,,,,,,,,l,Incorrect,0,39,39,71,1,t5.png,t5.png,0,0.97829,19,female,2020-11-15_16h03.05.581,torte-q,2020.1.3,MacIntel,60,13363,1.004,,,,,,,,,,,,,,,,,,,,,,,,,,,,,,,,,,,,,,,,,,,,
,,,,,,,,,,,,l,Incorrect,0,40,40,7,1,t4.png,t5.png,1,0.90025,19,female,2020-11-15_16h03.05.581,torte-q,2020.1.3,MacIntel,60,13363,0.777,,,,,,,,,,,,,,,,,,,,,,,,,,,,,,,,,,,,,,,,,,,,
,,,,,,,,,,,,l,Correct!,0,41,41,17,1,t1.png,t4.png,3,0.0000131,19,female,2020-11-15_16h03.05.581,torte-q,2020.1.3,MacIntel,60,13363,0.547,,,,,,,,,,,,,,,,,,,,,,,,,,,,,,,,,,,,,,,,,,,,
,,,,,,,,,,,,a,Incorrect,0,42,42,33,1,t5.png,t1.png,4,9.55E-11,19,female,2020-11-15_16h03.05.581,torte-q,2020.1.3,MacIntel,60,13363,0.532,,,,,,,,,,,,,,,,,,,,,,,,,,,,,,,,,,,,,,,,,,,,
,,,,,,,,,,,,a,Incorrect,0,43,43,108,1,t5.png,t1.png,4,9.55E-11,19,female,2020-11-15_16h03.05.581,torte-q,2020.1.3,MacIntel,60,13363,0.448,,,,,,,,,,,,,,,,,,,,,,,,,,,,,,,,,,,,,,,,,,,,
,,,,,,,,,,,,l,Incorrect,0,44,44,41,1,t3.png,t2.png,1,0.90855,19,female,2020-11-15_16h03.05.581,torte-q,2020.1.3,MacIntel,60,13363,0.047,,,,,,,,,,,,,,,,,,,,,,,,,,,,,,,,,,,,,,,,,,,,
,,,,,,,,,,,,a,Incorrect,0,45,45,53,1,t3.png,t1.png,2,0.056466,19,female,2020-11-15_16h03.05.581,torte-q,2020.1.3,MacIntel,60,13363,1.035,,,,,,,,,,,,,,,,,,,,,,,,,,,,,,,,,,,,,,,,,,,,
,,,,,,,,,,,,l,Incorrect,0,46,46,100,1,t4.png,t5.png,1,0.90025,19,female,2020-11-15_16h03.05.581,torte-q,2020.1.3,MacIntel,60,13363,0.568,,,,,,,,,,,,,,,,,,,,,,,,,,,,,,,,,,,,,,,,,,,,
,,,,,,,,,,,,l,Correct!,0,47,47,35,1,t1.png,t4.png,3,0.0000131,19,female,2020-11-15_16h03.05.581,torte-q,2020.1.3,MacIntel,60,13363,0.4,,,,,,,,,,,,,,,,,,,,,,,,,,,,,,,,,,,,,,,,,,,,
,,,,,,,,,,,,l,Correct!,0,48,48,115,1,t2.png,t4.png,2,0.059078,19,female,2020-11-15_16h03.05.581,torte-q,2020.1.3,MacIntel,60,13363,0.398,,,,,,,,,,,,,,,,,,,,,,,,,,,,,,,,,,,,,,,,,,,,
,,,,,,,,,,,,l,Incorrect,0,49,49,65,1,t4.png,t5.png,1,0.90025,19,female,2020-11-15_16h03.05.581,torte-q,2020.1.3,MacIntel,60,13363,0.465,,,,,,,,,,,,,,,,,,,,,,,,,,,,,,,,,,,,,,,,,,,,
,,,,,,,,,,,,a,Correct!,0,50,50,13,1,t5.png,t5.png,0,0.97829,19,female,2020-11-15_16h03.05.581,torte-q,2020.1.3,MacIntel,60,13363,0.297,,,,,,,,,,,,,,,,,,,,,,,,,,,,,,,,,,,,,,,,,,,,
,,,,,,,,,,,,l,Correct!,0,51,51,46,1,t4.png,t2.png,2,0.059078,19,female,2020-11-15_16h03.05.581,torte-q,2020.1.3,MacIntel,60,13363,0.672,,,,,,,,,,,,,,,,,,,,,,,,,,,,,,,,,,,,,,,,,,,,
,,,,,,,,,,,,l,Incorrect,0,52,52,75,1,t1.png,t1.png,0,0.97829,19,female,2020-11-15_16h03.05.581,torte-q,2020.1.3,MacIntel,60,13363,0.814,,,,,,,,,,,,,,,,,,,,,,,,,,,,,,,,,,,,,,,,,,,,
,,,,,,,,,,,,a,Incorrect,0,53,53,72,1,t4.png,t2.png,2,0.059078,19,female,2020-11-15_16h03.05.581,torte-q,2020.1.3,MacIntel,60,13363,0.347,,,,,,,,,,,,,,,,,,,,,,,,,,,,,,,,,,,,,,,,,,,,
,,,,,,,,,,,,l,Incorrect,0,54,54,78,1,t1.png,t1.png,0,0.978,19,female,2020-11-15_16h03.05.581,torte-q,2020.1.3,MacIntel,60,13363,0.391,,,,,,,,,,,,,,,,,,,,,,,,,,,,,,,,,,,,,,,,,,,,
,,,,,,,,,,,,a,Incorrect,0,55,55,47,1,t4.png,t2.png,2,0.059078,19,female,2020-11-15_16h03.05.581,torte-q,2020.1.3,MacIntel,60,13363,0.323,,,,,,,,,,,,,,,,,,,,,,,,,,,,,,,,,,,,,,,,,,,,
,,,,,,,,,,,,l,Correct!,0,56,56,94,1,t5.png,t1.png,4,9.55E-11,19,female,2020-11-15_16h03.05.581,torte-q,2020.1.3,MacIntel,60,13363,0.549,,,,,,,,,,,,,,,,,,,,,,,,,,,,,,,,,,,,,,,,,,,,
,,,,,,,,,,,,a,Incorrect,0,57,57,55,1,t2.png,t4.png,2,0.059078,19,female,2020-11-15_16h03.05.581,torte-q,2020.1.3,MacIntel,60,13363,0.33,,,,,,,,,,,,,,,,,,,,,,,,,,,,,,,,,,,,,,,,,,,,
,,,,,,,,,,,,l,Correct!,0,58,58,50,1,t5.png,t1.png,4,9.55E-11,19,female,2020-11-15_16h03.05.581,torte-q,2020.1.3,MacIntel,60,13363,0.319,,,,,,,,,,,,,,,,,,,,,,,,,,,,,,,,,,,,,,,,,,,,
,,,,,,,,,,,,a,Correct!,0,59,59,45,1,t3.png,t2.png,1,0.90855,19,female,2020-11-15_16h03.05.581,torte-q,2020.1.3,MacIntel,60,13363,0.3,,,,,,,,,,,,,,,,,,,,,,,,,,,,,,,,,,,,,,,,,,,,
,,,,,,,,,,,,l,Correct!,0,60,60,87,1,t5.png,t1.png,4,9.55E-11,19,female,2020-11-15_16h03.05.581,torte-q,2020.1.3,MacIntel,60,13363,0.331,,,,,,,,,,,,,,,,,,,,,,,,,,,,,,,,,,,,,,,,,,,,
,,,,,,,,,,,,a,Incorrect,0,61,61,88,1,t3.png,t1.png,2,0.056466,19,female,2020-11-15_16h03.05.581,torte-q,2020.1.3,MacIntel,60,13363,0.45,,,,,,,,,,,,,,,,,,,,,,,,,,,,,,,,,,,,,,,,,,,,
,,,,,,,,,,,,l,Correct!,0,62,62,24,1,t4.png,t2.png,2,0.059078,19,female,2020-11-15_16h03.05.581,torte-q,2020.1.3,MacIntel,60,13363,0.351,,,,,,,,,,,,,,,,,,,,,,,,,,,,,,,,,,,,,,,,,,,,
,,,,,,,,,,,,a,Correct!,0,63,63,118,1,t5.png,t5.png,0,0.978,19,female,2020-11-15_16h03.05.581,torte-q,2020.1.3,MacIntel,60,13363,0.315,,,,,,,,,,,,,,,,,,,,,,,,,,,,,,,,,,,,,,,,,,,,
,,,,,,,,,,,,l,Incorrect,0,64,64,102,1,t4.png,t2.png,2,0.059078,19,female,2020-11-15_16h03.05.581,torte-q,2020.1.3,MacIntel,60,13363,0.647,,,,,,,,,,,,,,,,,,,,,,,,,,,,,,,,,,,,,,,,,,,,
,,,,,,,,,,,,a,Correct!,0,65,65,114,1,t2.png,t3.png,1,0.90855,19,female,2020-11-15_16h03.05.581,torte-q,2020.1.3,MacIntel,60,13363,0.332,,,,,,,,,,,,,,,,,,,,,,,,,,,,,,,,,,,,,,,,,,,,
,,,,,,,,,,,,l,Incorrect,0,66,66,96,1,t1.png,t1.png,0,0.97829,19,female,2020-11-15_16h03.05.581,torte-q,2020.1.3,MacIntel,60,13363,0.331,,,,,,,,,,,,,,,,,,,,,,,,,,,,,,,,,,,,,,,,,,,,
,,,,,,,,,,,,a,Incorrect,0,67,67,86,1,t3.png,t1.png,2,0.056466,19,female,2020-11-15_16h03.05.581,torte-q,2020.1.3,MacIntel,60,13363,0.796,,,,,,,,,,,,,,,,,,,,,,,,,,,,,,,,,,,,,,,,,,,,
,,,,,,,,,,,,a,Correct!,0,68,68,62,1,t5.png,t5.png,0,0.978,19,female,2020-11-15_16h03.05.581,torte-q,2020.1.3,MacIntel,60,13363,0.557,,,,,,,,,,,,,,,,,,,,,,,,,,,,,,,,,,,,,,,,,,,,
,,,,,,,,,,,,l,Correct!,0,69,69,99,1,t1.png,t5.png,4,9.55E-11,19,female,2020-11-15_16h03.05.581,torte-q,2020.1.3,MacIntel,60,13363,0.483,,,,,,,,,,,,,,,,,,,,,,,,,,,,,,,,,,,,,,,,,,,,
,,,,,,,,,,,,a,Correct!,0,70,70,105,1,t3.png,t2.png,1,0.90855,19,female,2020-11-15_16h03.05.581,torte-q,2020.1.3,MacIntel,60,13363,0.323,,,,,,,,,,,,,,,,,,,,,,,,,,,,,,,,,,,,,,,,,,,,
,,,,,,,,,,,,a,Incorrect,0,71,71,119,1,t1.png,t5.png,4,9.55E-11,19,female,2020-11-15_16h03.05.581,torte-q,2020.1.3,MacIntel,60,13363,0.336,,,,,,,,,,,,,,,,,,,,,,,,,,,,,,,,,,,,,,,,,,,,
,,,,,,,,,,,,l,Incorrect,0,72,72,22,1,t2.png,t3.png,1,0.90855,19,female,2020-11-15_16h03.05.581,torte-q,2020.1.3,MacIntel,60,13363,0.336,,,,,,,,,,,,,,,,,,,,,,,,,,,,,,,,,,,,,,,,,,,,
,,,,,,,,,,,,l,Correct!,0,73,73,54,1,t1.png,t5.png,4,9.55E-11,19,female,2020-11-15_16h03.05.581,torte-q,2020.1.3,MacIntel,60,13363,0.432,,,,,,,,,,,,,,,,,,,,,,,,,,,,,,,,,,,,,,,,,,,,
,,,,,,,,,,,,l,Correct!,0,74,74,61,1,t1.png,t4.png,3,0.0000131,19,female,2020-11-15_16h03.05.581,torte-q,2020.1.3,MacIntel,60,13363,0.585,,,,,,,,,,,,,,,,,,,,,,,,,,,,,,,,,,,,,,,,,,,,
,,,,,,,,,,,,l,Correct!,0,75,75,103,1,t3.png,t1.png,2,0.056466,19,female,2020-11-15_16h03.05.581,torte-q,2020.1.3,MacIntel,60,13363,0.323,,,,,,,,,,,,,,,,,,,,,,,,,,,,,,,,,,,,,,,,,,,,
,,,,,,,,,,,,a,Correct!,0,76,76,2,1,t3.png,t2.png,1,0.90855,19,female,2020-11-15_16h03.05.581,torte-q,2020.1.3,MacIntel,60,13363,0.463,,,,,,,,,,,,,,,,,,,,,,,,,,,,,,,,,,,,,,,,,,,,
,,,,,,,,,,,,l,Correct!,0,77,77,4,1,t1.png,t5.png,4,9.55E-11,19,female,2020-11-15_16h03.05.581,torte-q,2020.1.3,MacIntel,60,13363,0.429,,,,,,,,,,,,,,,,,,,,,,,,,,,,,,,,,,,,,,,,,,,,
,,,,,,,,,,,,a,Incorrect,0,78,78,57,1,t2.png,t4.png,2,0.059078,19,female,2020-11-15_16h03.05.581,torte-q,2020.1.3,MacIntel,60,13363,1.666,,,,,,,,,,,,,,,,,,,,,,,,,,,,,,,,,,,,,,,,,,,,
,,,,,,,,,,,,l,Incorrect,0,79,79,58,1,t5.png,t4.png,1,0.90025,19,female,2020-11-15_16h03.05.581,torte-q,2020.1.3,MacIntel,60,13363,0.571,,,,,,,,,,,,,,,,,,,,,,,,,,,,,,,,,,,,,,,,,,,,
,,,,,,,,,,,,l,Incorrect,0,80,80,39,1,t3.png,t2.png,1,0.90855,19,female,2020-11-15_16h03.05.581,torte-q,2020.1.3,MacIntel,60,13363,0.472,,,,,,,,,,,,,,,,,,,,,,,,,,,,,,,,,,,,,,,,,,,,
,,,,,,,,,,,,l,Incorrect,0,81,81,49,1,t4.png,t5.png,1,0.9,19,female,2020-11-15_16h03.05.581,torte-q,2020.1.3,MacIntel,60,13363,0.878,,,,,,,,,,,,,,,,,,,,,,,,,,,,,,,,,,,,,,,,,,,,
,,,,,,,,,,,,,Too slow :(,0,82,82,14,1,t2.png,t4.png,2,0.059078,19,female,2020-11-15_16h03.05.581,torte-q,2020.1.3,MacIntel,60,13363,,,,,,,,,,,,,,,,,,,,,,,,,,,,,,,,,,,,,,,,,,,,,
,,,,,,,,,,,,l,Incorrect,0,83,83,8,1,t3.png,t2.png,1,0.90855,19,female,2020-11-15_16h03.05.581,torte-q,2020.1.3,MacIntel,60,13363,1.897,,,,,,,,,,,,,,,,,,,,,,,,,,,,,,,,,,,,,,,,,,,,
,,,,,,,,,,,,a,Incorrect,0,84,84,37,1,t1.png,t4.png,3,0.0000131,19,female,2020-11-15_16h03.05.581,torte-q,2020.1.3,MacIntel,60,13363,2.33,,,,,,,,,,,,,,,,,,,,,,,,,,,,,,,,,,,,,,,,,,,,
,,,,,,,,,,,,,Too slow :(,0,85,85,73,1,t4.png,t2.png,2,0.059078,19,female,2020-11-15_16h03.05.581,torte-q,2020.1.3,MacIntel,60,13363,,,,,,,,,,,,,,,,,,,,,,,,,,,,,,,,,,,,,,,,,,,,,
,,,,,,,,,,,,,Too slow :(,0,86,86,117,1,t1.png,t5.png,4,9.55E-11,19,female,2020-11-15_16h03.05.581,torte-q,2020.1.3,MacIntel,60,13363,,,,,,,,,,,,,,,,,,,,,,,,,,,,,,,,,,,,,,,,,,,,,
,,,,,,,,,,,,a,Correct!,0,87,87,59,1,t5.png,t4.png,1,0.9,19,female,2020-11-15_16h03.05.581,torte-q,2020.1.3,MacIntel,60,13363,0.314,,,,,,,,,,,,,,,,,,,,,,,,,,,,,,,,,,,,,,,,,,,,
,,,,,,,,,,,,a,Incorrect,0,88,88,30,1,t3.png,t1.png,2,0.056466,19,female,2020-11-15_16h03.05.581,torte-q,2020.1.3,MacIntel,60,13363,0.62,,,,,,,,,,,,,,,,,,,,,,,,,,,,,,,,,,,,,,,,,,,,
,,,,,,,,,,,,,Too slow :(,0,89,89,51,1,t3.png,t1.png,2,0.056466,19,female,2020-11-15_16h03.05.581,torte-q,2020.1.3,MacIntel,60,13363,,,,,,,,,,,,,,,,,,,,,,,,,,,,,,,,,,,,,,,,,,,,,
,,,,,,,,,,,,a,Incorrect,0,90,90,12,1,t5.png,t1.png,4,9.55E-11,19,female,2020-11-15_16h03.05.581,torte-q,2020.1.3,MacIntel,60,13363,0.998,,,,,,,,,,,,,,,,,,,,,,,,,,,,,,,,,,,,,,,,,,,,
,,,,,,,,,,,,a,Correct!,0,91,91,66,1,t4.png,t5.png,1,0.9,19,female,2020-11-15_16h03.05.581,torte-q,2020.1.3,MacIntel,60,13363,0.398,,,,,,,,,,,,,,,,,,,,,,,,,,,,,,,,,,,,,,,,,,,,
,,,,,,,,,,,,a,Incorrect,0,92,92,69,1,t4.png,t2.png,2,0.059078,19,female,2020-11-15_16h03.05.581,torte-q,2020.1.3,MacIntel,60,13363,0.302,,,,,,,,,,,,,,,,,,,,,,,,,,,,,,,,,,,,,,,,,,,,
,,,,,,,,,,,,l,Incorrect,0,93,93,28,1,t2.png,t3.png,1,0.909,19,female,2020-11-15_16h03.05.581,torte-q,2020.1.3,MacIntel,60,13363,0.332,,,,,,,,,,,,,,,,,,,,,,,,,,,,,,,,,,,,,,,,,,,,
,,,,,,,,,,,,a,Correct!,0,94,94,77,1,t1.png,t1.png,0,0.97829,19,female,2020-11-15_16h03.05.581,torte-q,2020.1.3,MacIntel,60,13363,0.481,,,,,,,,,,,,,,,,,,,,,,,,,,,,,,,,,,,,,,,,,,,,
,,,,,,,,,,,,,Too slow :(,0,95,95,5,1,t2.png,t4.png,2,0.059078,19,female,2020-11-15_16h03.05.581,torte-q,2020.1.3,MacIntel,60,13363,,,,,,,,,,,,,,,,,,,,,,,,,,,,,,,,,,,,,,,,,,,,,
,,,,,,,,,,,,l,Incorrect,0,96,96,83,1,t3.png,t1.png,2,0.056466,19,female,2020-11-15_16h03.05.581,torte-q,2020.1.3,MacIntel,60,13363,0.388,,,,,,,,,,,,,,,,,,,,,,,,,,,,,,,,,,,,,,,,,,,,
,,,,,,,,,,,,a,Correct!,0,97,97,81,1,t1.png,t1.png,0,0.97829,19,female,2020-11-15_16h03.05.581,torte-q,2020.1.3,MacIntel,60,13363,0.587,,,,,,,,,,,,,,,,,,,,,,,,,,,,,,,,,,,,,,,,,,,,
,,,,,,,,,,,,a,Correct!,0,98,98,42,1,t5.png,t4.png,1,0.90025,19,female,2020-11-15_16h03.05.581,torte-q,2020.1.3,MacIntel,60,13363,0.499,,,,,,,,,,,,,,,,,,,,,,,,,,,,,,,,,,,,,,,,,,,,
,,,,,,,,,,,,a,Incorrect,0,99,99,91,1,t1.png,t4.png,3,0.0000131,19,female,2020-11-15_16h03.05.581,torte-q,2020.1.3,MacIntel,60,13363,0.431,,,,,,,,,,,,,,,,,,,,,,,,,,,,,,,,,,,,,,,,,,,,
,,,,,,,,,,,,l,Correct!,0,100,100,38,1,t3.png,t1.png,2,0.056466,19,female,2020-11-15_16h03.05.581,torte-q,2020.1.3,MacIntel,60,13363,0.443,,,,,,,,,,,,,,,,,,,,,,,,,,,,,,,,,,,,,,,,,,,,
,,,,,,,,,,,,l,Incorrect,0,101,101,85,1,t3.png,t2.png,1,0.90855,19,female,2020-11-15_16h03.05.581,torte-q,2020.1.3,MacIntel,60,13363,0.447,,,,,,,,,,,,,,,,,,,,,,,,,,,,,,,,,,,,,,,,,,,,
,,,,,,,,,,,,a,Correct!,0,102,102,104,1,t2.png,t3.png,1,0.90855,19,female,2020-11-15_16h03.05.581,torte-q,2020.1.3,MacIntel,60,13363,0.253,,,,,,,,,,,,,,,,,,,,,,,,,,,,,,,,,,,,,,,,,,,,
,,,,,,,,,,,,l,Correct!,0,103,103,19,1,t4.png,t2.png,2,0.059078,19,female,2020-11-15_16h03.05.581,torte-q,2020.1.3,MacIntel,60,13363,1.763,,,,,,,,,,,,,,,,,,,,,,,,,,,,,,,,,,,,,,,,,,,,
,,,,,,,,,,,,l,Correct!,0,104,104,6,1,t1.png,t4.png,3,0.0000131,19,female,2020-11-15_16h03.05.581,torte-q,2020.1.3,MacIntel,60,13363,0.455,,,,,,,,,,,,,,,,,,,,,,,,,,,,,,,,,,,,,,,,,,,,
,,,,,,,,,,,,l,Incorrect,0,105,105,15,1,t3.png,t2.png,1,0.90855,19,female,2020-11-15_16h03.05.581,torte-q,2020.1.3,MacIntel,60,13363,0.485,,,,,,,,,,,,,,,,,,,,,,,,,,,,,,,,,,,,,,,,,,,,
,,,,,,,,,,,,l,Correct!,0,106,106,80,1,t1.png,t4.png,3,0.0000131,19,female,2020-11-15_16h03.05.581,torte-q,2020.1.3,MacIntel,60,13363,1.248,,,,,,,,,,,,,,,,,,,,,,,,,,,,,,,,,,,,,,,,,,,,
,,,,,,,,,,,,a,Correct!,0,107,107,116,1,t5.png,t4.png,1,0.90025,19,female,2020-11-15_16h03.05.581,torte-q,2020.1.3,MacIntel,60,13363,0.389,,,,,,,,,,,,,,,,,,,,,,,,,,,,,,,,,,,,,,,,,,,,
,,,,,,,,,,,,l,Correct!,0,108,108,90,1,t1.png,t5.png,4,9.55E-11,19,female,2020-11-15_16h03.05.581,torte-q,2020.1.3,MacIntel,60,13363,0.687,,,,,,,,,,,,,,,,,,,,,,,,,,,,,,,,,,,,,,,,,,,,
,,,,,,,,,,,,l,Correct!,0,109,109,93,1,t2.png,t4.png,2,0.059078,19,female,2020-11-15_16h03.05.581,torte-q,2020.1.3,MacIntel,60,13363,0.86,,,,,,,,,,,,,,,,,,,,,,,,,,,,,,,,,,,,,,,,,,,,
,,,,,,,,,,,,l,Correct!,0,110,110,52,1,t2.png,t4.png,2,0.059078,19,female,2020-11-15_16h03.05.581,torte-q,2020.1.3,MacIntel,60,13363,0.566,,,,,,,,,,,,,,,,,,,,,,,,,,,,,,,,,,,,,,,,,,,,
,,,,,,,,,,,,l,Correct!,0,111,111,31,1,t1.png,t5.png,4,9.55E-11,19,female,2020-11-15_16h03.05.581,torte-q,2020.1.3,MacIntel,60,13363,0.474,,,,,,,,,,,,,,,,,,,,,,,,,,,,,,,,,,,,,,,,,,,,
,,,,,,,,,,,,l,Correct!,0,112,112,70,1,t5.png,t5.png,0,0.978,19,female,2020-11-15_16h03.05.581,torte-q,2020.1.3,MacIntel,60,13363,0.282,,,,,,,,,,,,,,,,,,,,,,,,,,,,,,,,,,,,,,,,,,,,
,,,,,,,,,,,,l,Correct!,0,113,113,3,1,t1.png,t5.png,4,9.55E-11,19,female,2020-11-15_16h03.05.581,torte-q,2020.1.3,MacIntel,60,13363,0.366,,,,,,,,,,,,,,,,,,,,,,,,,,,,,,,,,,,,,,,,,,,,
,,,,,,,,,,,,l,Correct!,0,114,114,27,1,t3.png,t1.png,2,0.0565,19,female,2020-11-15_16h03.05.581,torte-q,2020.1.3,MacIntel,60,13363,0.332,,,,,,,,,,,,,,,,,,,,,,,,,,,,,,,,,,,,,,,,,,,,
,,,,,,,,,,,,l,Incorrect,0,115,115,92,1,t2.png,t3.png,1,0.909,19,female,2020-11-15_16h03.05.581,torte-q,2020.1.3,MacIntel,60,13363,0.281,,,,,,,,,,,,,,,,,,,,,,,,,,,,,,,,,,,,,,,,,,,,
,,,,,,,,,,,,a,Incorrect,0,116,116,32,1,t4.png,t5.png,1,0.90025,19,female,2020-11-15_16h03.05.581,torte-q,2020.1.3,MacIntel,60,13363,0.298,,,,,,,,,,,,,,,,,,,,,,,,,,,,,,,,,,,,,,,,,,,,
,,,,,,,,,,,,l,Incorrect,0,117,117,20,1,t2.png,t3.png,1,0.90855,19,female,2020-11-15_16h03.05.581,torte-q,2020.1.3,MacIntel,60,13363,0.286,,,,,,,,,,,,,,,,,,,,,,,,,,,,,,,,,,,,,,,,,,,,
,,,,,,,,,,,,a,Incorrect,0,118,118,56,1,t5.png,t1.png,4,9.55E-11,19,female,2020-11-15_16h03.05.581,torte-q,2020.1.3,MacIntel,60,13363,0.331,,,,,,,,,,,,,,,,,,,,,,,,,,,,,,,,,,,,,,,,,,,,
,,,,,,,,,,,,l,Incorrect,0,119,119,84,1,t1.png,t1.png,0,0.97829,19,female,2020-11-15_16h03.05.581,torte-q,2020.1.3,MacIntel,60,13363,0.304,,,,,,,,,,,,,,,,,,,,,,,,,,,,,,,,,,,,,,,,,,,,
,,,,,,,,,,,,l,Incorrect,,,,,,t2.png,t3.png,1,0.90855,19,female,2020-11-15_16h03.05.581,torte-q,2020.1.3,MacIntel,60,13363,0.515,a,0.839,l,12.732,0,0,0,68,1,,,,,,,,,,,,,,,,,,,,,,,,,,,,,,,,,,,
,,,,,,,,,,,,l,Incorrect,,,,,,t2.png,t1.png,1,0.90025,19,female,2020-11-15_16h03.05.581,torte-q,2020.1.3,MacIntel,60,13363,0.09,,,,,0,1,1,5,1,,,,,,,,,,,,,,,,,,,,,,,,,,,,,,,,,,,
,,,,,,,,,,,,a,Incorrect,,,,,,t5.png,t2.png,3,0.0000131,19,female,2020-11-15_16h03.05.581,torte-q,2020.1.3,MacIntel,60,13363,0.28,,,,,0,2,2,51,1,,,,,,,,,,,,,,,,,,,,,,,,,,,,,,,,,,,
,,,,,,,,,,,,l,Correct!,,,,,,t2.png,t4.png,2,0.059078,19,female,2020-11-15_16h03.05.581,torte-q,2020.1.3,MacIntel,60,13363,0.27,,,,,0,3,3,24,1,,,,,,,,,,,,,,,,,,,,,,,,,,,,,,,,,,,
,,,,,,,,,,,,a,Incorrect,,,,,,t3.png,t1.png,2,0.0565,19,female,2020-11-15_16h03.05.581,torte-q,2020.1.3,MacIntel,60,13363,0.29,,,,,0,4,4,31,1,,,,,,,,,,,,,,,,,,,,,,,,,,,,,,,,,,,
,,,,,,,,,,,,l,Incorrect,,,,,,t4.png,t4.png,0,0.98115,19,female,2020-11-15_16h03.05.581,torte-q,2020.1.3,MacIntel,60,13363,0.303,,,,,0,5,5,52,1,,,,,,,,,,,,,,,,,,,,,,,,,,,,,,,,,,,
,,,,,,,,,,,,a,Incorrect,,,,,,t5.png,t2.png,3,0.0000131,19,female,2020-11-15_16h03.05.581,torte-q,2020.1.3,MacIntel,60,13363,0.256,,,,,0,6,6,91,1,,,,,,,,,,,,,,,,,,,,,,,,,,,,,,,,,,,
,,,,,,,,,,,,a,Incorrect,,,,,,t3.png,t1.png,2,0.056466,19,female,2020-11-15_16h03.05.581,torte-q,2020.1.3,MacIntel,60,13363,0.331,,,,,0,7,7,0,1,,,,,,,,,,,,,,,,,,,,,,,,,,,,,,,,,,,
,,,,,,,,,,,,a,Incorrect,,,,,,t4.png,t1.png,3,0.0000131,19,female,2020-11-15_16h03.05.581,torte-q,2020.1.3,MacIntel,60,13363,0.282,,,,,0,8,8,48,1,,,,,,,,,,,,,,,,,,,,,,,,,,,,,,,,,,,
,,,,,,,,,,,,l,Incorrect,,,,,,t4.png,t5.png,1,0.90025,19,female,2020-11-15_16h03.05.581,torte-q,2020.1.3,MacIntel,60,13363,0.265,,,,,0,9,9,47,1,,,,,,,,,,,,,,,,,,,,,,,,,,,,,,,,,,,
,,,,,,,,,,,,a,Incorrect,,,,,,t1.png,t5.png,4,9.55E-11,19,female,2020-11-15_16h03.05.581,torte-q,2020.1.3,MacIntel,60,13363,0.3,,,,,0,10,10,41,1,,,,,,,,,,,,,,,,,,,,,,,,,,,,,,,,,,,
,,,,,,,,,,,,l,Correct!,,,,,,t1.png,t3.png,2,0.056466,19,female,2020-11-15_16h03.05.581,torte-q,2020.1.3,MacIntel,60,13363,0.381,,,,,0,11,11,63,1,,,,,,,,,,,,,,,,,,,,,,,,,,,,,,,,,,,
,,,,,,,,,,,,a,Incorrect,,,,,,t5.png,t3.png,2,0.056466,19,female,2020-11-15_16h03.05.581,torte-q,2020.1.3,MacIntel,60,13363,0.558,,,,,0,12,12,114,1,,,,,,,,,,,,,,,,,,,,,,,,,,,,,,,,,,,
,,,,,,,,,,,,l,Incorrect,,,,,,t2.png,t2.png,0,0.98115,19,female,2020-11-15_16h03.05.581,torte-q,2020.1.3,MacIntel,60,13363,0.248,,,,,0,13,13,59,1,,,,,,,,,,,,,,,,,,,,,,,,,,,,,,,,,,,
,,,,,,,,,,,,a,Incorrect,,,,,,t2.png,t5.png,3,0.0000131,19,female,2020-11-15_16h03.05.581,torte-q,2020.1.3,MacIntel,60,13363,0.19,,,,,0,14,14,66,1,,,,,,,,,,,,,,,,,,,,,,,,,,,,,,,,,,,
,,,,,,,,,,,,a,Incorrect,,,,,,t5.png,t1.png,4,9.55E-11,19,female,2020-11-15_16h03.05.581,torte-q,2020.1.3,MacIntel,60,13363,0.284,,,,,0,15,15,100,1,,,,,,,,,,,,,,,,,,,,,,,,,,,,,,,,,,,
,,,,,,,,,,,,a,Incorrect,,,,,,t5.png,t4.png,1,0.90025,19,female,2020-11-15_16h03.05.581,torte-q,2020.1.3,MacIntel,60,13363,0.39,,,,,0,16,16,34,1,,,,,,,,,,,,,,,,,,,,,,,,,,,,,,,,,,,
,,,,,,,,,,,,a,Incorrect,,,,,,t5.png,t1.png,4,9.55E-11,19,female,2020-11-15_16h03.05.581,torte-q,2020.1.3,MacIntel,60,13363,0.274,,,,,0,17,17,22,1,,,,,,,,,,,,,,,,,,,,,,,,,,,,,,,,,,,
,,,,,,,,,,,,l,Incorrect,,,,,,t3.png,t2.png,1,0.90855,19,female,2020-11-15_16h03.05.581,torte-q,2020.1.3,MacIntel,60,13363,0.32,,,,,0,18,18,18,1,,,,,,,,,,,,,,,,,,,,,,,,,,,,,,,,,,,
,,,,,,,,,,,,a,Correct!,,,,,,t2.png,t1.png,1,0.90025,19,female,2020-11-15_16h03.05.581,torte-q,2020.1.3,MacIntel,60,13363,0.323,,,,,0,19,19,62,1,,,,,,,,,,,,,,,,,,,,,,,,,,,,,,,,,,,
,,,,,,,,,,,,l,Correct!,,,,,,t4.png,t2.png,2,0.059078,19,female,2020-11-15_16h03.05.581,torte-q,2020.1.3,MacIntel,60,13363,0.298,,,,,0,20,20,88,1,,,,,,,,,,,,,,,,,,,,,,,,,,,,,,,,,,,
,,,,,,,,,,,,l,Incorrect,,,,,,t2.png,t3.png,1,0.90855,19,female,2020-11-15_16h03.05.581,torte-q,2020.1.3,MacIntel,60,13363,0.685,,,,,0,21,21,10,1,,,,,,,,,,,,,,,,,,,,,,,,,,,,,,,,,,,
,,,,,,,,,,,,a,Incorrect,,,,,,t3.png,t5.png,2,0.056466,19,female,2020-11-15_16h03.05.581,torte-q,2020.1.3,MacIntel,60,13363,0.303,,,,,0,22,22,44,1,,,,,,,,,,,,,,,,,,,,,,,,,,,,,,,,,,,
,,,,,,,,,,,,l,Incorrect,,,,,,t5.png,t4.png,1,0.90025,19,female,2020-11-15_16h03.05.581,torte-q,2020.1.3,MacIntel,60,13363,0.248,,,,,0,23,23,26,1,,,,,,,,,,,,,,,,,,,,,,,,,,,,,,,,,,,
,,,,,,,,,,,,l,Incorrect,,,,,,t1.png,t1.png,0,0.97829,19,female,2020-11-15_16h03.05.581,torte-q,2020.1.3,MacIntel,60,13363,0.467,,,,,0,24,24,78,1,,,,,,,,,,,,,,,,,,,,,,,,,,,,,,,,,,,
,,,,,,,,,,,,a,Incorrect,,,,,,t2.png,t4.png,2,0.059078,19,female,2020-11-15_16h03.05.581,torte-q,2020.1.3,MacIntel,60,13363,1.041,,,,,0,25,25,77,1,,,,,,,,,,,,,,,,,,,,,,,,,,,,,,,,,,,
,,,,,,,,,,,,l,Correct!,,,,,,t2.png,t4.png,2,0.0591,19,female,2020-11-15_16h03.05.581,torte-q,2020.1.3,MacIntel,60,13363,0.339,,,,,0,26,26,15,1,,,,,,,,,,,,,,,,,,,,,,,,,,,,,,,,,,,
,,,,,,,,,,,,l,Correct!,,,,,,t4.png,t1.png,3,0.0000131,19,female,2020-11-15_16h03.05.581,torte-q,2020.1.3,MacIntel,60,13363,0.57,,,,,0,27,27,42,1,,,,,,,,,,,,,,,,,,,,,,,,,,,,,,,,,,,
,,,,,,,,,,,,a,Correct!,,,,,,t3.png,t4.png,1,0.90855,19,female,2020-11-15_16h03.05.581,torte-q,2020.1.3,MacIntel,60,13363,0.373,,,,,0,28,28,96,1,,,,,,,,,,,,,,,,,,,,,,,,,,,,,,,,,,,
,,,,,,,,,,,,l,Correct!,,,,,,t4.png,t2.png,2,0.059078,19,female,2020-11-15_16h03.05.581,torte-q,2020.1.3,MacIntel,60,13363,0.315,,,,,0,29,29,109,1,,,,,,,,,,,,,,,,,,,,,,,,,,,,,,,,,,,
,,,,,,,,,,,,l,Correct!,,,,,,t5.png,t1.png,4,9.55E-11,19,female,2020-11-15_16h03.05.581,torte-q,2020.1.3,MacIntel,60,13363,0.515,,,,,0,30,30,43,1,,,,,,,,,,,,,,,,,,,,,,,,,,,,,,,,,,,
,,,,,,,,,,,,a,Correct!,,,,,,t2.png,t3.png,1,0.90855,19,female,2020-11-15_16h03.05.581,torte-q,2020.1.3,MacIntel,60,13363,0.331,,,,,0,31,31,65,1,,,,,,,,,,,,,,,,,,,,,,,,,,,,,,,,,,,
,,,,,,,,,,,,l,Incorrect,,,,,,t4.png,t5.png,1,0.90025,19,female,2020-11-15_16h03.05.581,torte-q,2020.1.3,MacIntel,60,13363,0.413,,,,,0,32,32,58,1,,,,,,,,,,,,,,,,,,,,,,,,,,,,,,,,,,,
,,,,,,,,,,,,l,Incorrect,,,,,,t4.png,t5.png,1,0.90025,19,female,2020-11-15_16h03.05.581,torte-q,2020.1.3,MacIntel,60,13363,0.304,,,,,0,33,33,103,1,,,,,,,,,,,,,,,,,,,,,,,,,,,,,,,,,,,
,,,,,,,,,,,,l,Incorrect,,,,,,t1.png,t2.png,1,0.90025,19,female,2020-11-15_16h03.05.581,torte-q,2020.1.3,MacIntel,60,13363,0.332,,,,,0,34,34,105,1,,,,,,,,,,,,,,,,,,,,,,,,,,,,,,,,,,,
,,,,,,,,,,,,l,Correct!,,,,,,t1.png,t5.png,4,9.55E-11,19,female,2020-11-15_16h03.05.581,torte-q,2020.1.3,MacIntel,60,13363,0.321,,,,,0,35,35,12,1,,,,,,,,,,,,,,,,,,,,,,,,,,,,,,,,,,,
,,,,,,,,,,,,l,Incorrect,,,,,,t3.png,t4.png,1,0.909,19,female,2020-11-15_16h03.05.581,torte-q,2020.1.3,MacIntel,60,13363,0.415,,,,,0,36,36,82,1,,,,,,,,,,,,,,,,,,,,,,,,,,,,,,,,,,,
,,,,,,,,,,,,a,Incorrect,,,,,,t2.png,t5.png,3,0.0000131,19,female,2020-11-15_16h03.05.581,torte-q,2020.1.3,MacIntel,60,13363,0.271,,,,,0,37,37,95,1,,,,,,,,,,,,,,,,,,,,,,,,,,,,,,,,,,,
,,,,,,,,,,,,l,Incorrect,,,,,,t1.png,t2.png,1,0.90025,19,female,2020-11-15_16h03.05.581,torte-q,2020.1.3,MacIntel,60,13363,0.285,,,,,0,38,38,33,1,,,,,,,,,,,,,,,,,,,,,,,,,,,,,,,,,,,
,,,,,,,,,,,,a,Incorrect,,,,,,t5.png,t2.png,3,0.0000131,19,female,2020-11-15_16h03.05.581,torte-q,2020.1.3,MacIntel,60,13363,0.287,,,,,0,39,39,116,1,,,,,,,,,,,,,,,,,,,,,,,,,,,,,,,,,,,
,,,,,,,,,,,,l,Incorrect,,,,,,t4.png,t3.png,1,0.90855,19,female,2020-11-15_16h03.05.581,torte-q,2020.1.3,MacIntel,60,13363,0.267,,,,,0,40,40,35,1,,,,,,,,,,,,,,,,,,,,,,,,,,,,,,,,,,,
,,,,,,,,,,,,a,Correct!,,,,,,t4.png,t3.png,1,0.90855,19,female,2020-11-15_16h03.05.581,torte-q,2020.1.3,MacIntel,60,13363,0.039,,,,,0,41,41,75,1,,,,,,,,,,,,,,,,,,,,,,,,,,,,,,,,,,,
,,,,,,,,,,,,l,Incorrect,,,,,,t4.png,t4.png,0,0.98115,19,female,2020-11-15_16h03.05.581,torte-q,2020.1.3,MacIntel,60,13363,0.422,,,,,0,42,42,21,1,,,,,,,,,,,,,,,,,,,,,,,,,,,,,,,,,,,
,,,,,,,,,,,,l,Correct!,,,,,,t5.png,t3.png,2,0.0565,19,female,2020-11-15_16h03.05.581,torte-q,2020.1.3,MacIntel,60,13363,0.556,,,,,0,43,43,39,1,,,,,,,,,,,,,,,,,,,,,,,,,,,,,,,,,,,
,,,,,,,,,,,,l,Incorrect,,,,,,t3.png,t4.png,1,0.90855,19,female,2020-11-15_16h03.05.581,torte-q,2020.1.3,MacIntel,60,13363,0.332,,,,,0,44,44,84,1,,,,,,,,,,,,,,,,,,,,,,,,,,,,,,,,,,,
,,,,,,,,,,,,a,Incorrect,,,,,,t4.png,t2.png,2,0.0591,19,female,2020-11-15_16h03.05.581,torte-q,2020.1.3,MacIntel,60,13363,0.287,,,,,0,45,45,36,1,,,,,,,,,,,,,,,,,,,,,,,,,,,,,,,,,,,
,,,,,,,,,,,,a,Correct!,,,,,,t5.png,t5.png,0,0.978,19,female,2020-11-15_16h03.05.581,torte-q,2020.1.3,MacIntel,60,13363,0.231,,,,,0,46,46,117,1,,,,,,,,,,,,,,,,,,,,,,,,,,,,,,,,,,,
,,,,,,,,,,,,a,Correct!,,,,,,t5.png,t4.png,1,0.90025,19,female,2020-11-15_16h03.05.581,torte-q,2020.1.3,MacIntel,60,13363,0.298,,,,,0,47,47,27,1,,,,,,,,,,,,,,,,,,,,,,,,,,,,,,,,,,,
,,,,,,,,,,,,a,Incorrect,,,,,,t5.png,t3.png,2,0.056466,19,female,2020-11-15_16h03.05.581,torte-q,2020.1.3,MacIntel,60,13363,0.349,,,,,0,48,48,56,1,,,,,,,,,,,,,,,,,,,,,,,,,,,,,,,,,,,
,,,,,,,,,,,,a,Correct!,,,,,,t2.png,t3.png,1,0.909,19,female,2020-11-15_16h03.05.581,torte-q,2020.1.3,MacIntel,60,13363,0.392,,,,,0,49,49,74,1,,,,,,,,,,,,,,,,,,,,,,,,,,,,,,,,,,,
,,,,,,,,,,,,l,Incorrect,,,,,,t1.png,t2.png,1,0.90025,19,female,2020-11-15_16h03.05.581,torte-q,2020.1.3,MacIntel,60,13363,0.356,,,,,0,50,50,72,1,,,,,,,,,,,,,,,,,,,,,,,,,,,,,,,,,,,
,,,,,,,,,,,,l,Correct!,,,,,,t1.png,t4.png,3,0.0000131,19,female,2020-11-15_16h03.05.581,torte-q,2020.1.3,MacIntel,60,13363,0.264,,,,,0,51,51,92,1,,,,,,,,,,,,,,,,,,,,,,,,,,,,,,,,,,,
,,,,,,,,,,,,a,Incorrect,,,,,,t2.png,t5.png,3,0.0000131,19,female,2020-11-15_16h03.05.581,torte-q,2020.1.3,MacIntel,60,13363,0.339,,,,,0,52,52,8,1,,,,,,,,,,,,,,,,,,,,,,,,,,,,,,,,,,,
,,,,,,,,,,,,a,Correct!,,,,,,t2.png,t1.png,1,0.9,19,female,2020-11-15_16h03.05.581,torte-q,2020.1.3,MacIntel,60,13363,0.223,,,,,0,53,53,118,1,,,,,,,,,,,,,,,,,,,,,,,,,,,,,,,,,,,
,,,,,,,,,,,,a,Correct!,,,,,,t1.png,t1.png,0,0.97829,19,female,2020-11-15_16h03.05.581,torte-q,2020.1.3,MacIntel,60,13363,0.297,,,,,0,54,54,67,1,,,,,,,,,,,,,,,,,,,,,,,,,,,,,,,,,,,
,,,,,,,,,,,,l,Incorrect,,,,,,t4.png,t4.png,0,0.98115,19,female,2020-11-15_16h03.05.581,torte-q,2020.1.3,MacIntel,60,13363,0.256,,,,,0,55,55,90,1,,,,,,,,,,,,,,,,,,,,,,,,,,,,,,,,,,,
,,,,,,,,,,,,l,Incorrect,,,,,,t5.png,t5.png,0,0.97829,19,female,2020-11-15_16h03.05.581,torte-q,2020.1.3,MacIntel,60,13363,0.215,,,,,0,56,56,70,1,,,,,,,,,,,,,,,,,,,,,,,,,,,,,,,,,,,
,,,,,,,,,,,,l,Incorrect,,,,,,t3.png,t2.png,1,0.90855,19,female,2020-11-15_16h03.05.581,torte-q,2020.1.3,MacIntel,60,13363,0.416,,,,,0,57,57,97,1,,,,,,,,,,,,,,,,,,,,,,,,,,,,,,,,,,,
,,,,,,,,,,,,l,Incorrect,,,,,,t4.png,t4.png,0,0.98115,19,female,2020-11-15_16h03.05.581,torte-q,2020.1.3,MacIntel,60,13363,0.283,,,,,0,58,58,79,1,,,,,,,,,,,,,,,,,,,,,,,,,,,,,,,,,,,
,,,,,,,,,,,,a,Incorrect,,,,,,t2.png,t5.png,3,0.0000131,19,female,2020-11-15_16h03.05.581,torte-q,2020.1.3,MacIntel,60,13363,0.332,,,,,0,59,59,40,1,,,,,,,,,,,,,,,,,,,,,,,,,,,,,,,,,,,
,,,,,,,,,,,,a,Correct!,,,,,,t2.png,t1.png,1,0.90025,19,female,2020-11-15_16h03.05.581,torte-q,2020.1.3,MacIntel,60,13363,0.315,,,,,0,60,60,19,1,,,,,,,,,,,,,,,,,,,,,,,,,,,,,,,,,,,
,,,,,,,,,,,,a,Incorrect,,,,,,t4.png,t1.png,3,0.0000131,19,female,2020-11-15_16h03.05.581,torte-q,2020.1.3,MacIntel,60,13363,0.849,,,,,0,61,61,61,1,,,,,,,,,,,,,,,,,,,,,,,,,,,,,,,,,,,
,,,,,,,,,,,,l,Correct!,,,,,,t4.png,t1.png,3,0.0000131,19,female,2020-11-15_16h03.05.581,torte-q,2020.1.3,MacIntel,60,13363,0.315,,,,,0,62,62,93,1,,,,,,,,,,,,,,,,,,,,,,,,,,,,,,,,,,,
,,,,,,,,,,,,l,Incorrect,,,,,,t4.png,t3.png,1,0.909,19,female,2020-11-15_16h03.05.581,torte-q,2020.1.3,MacIntel,60,13363,0.354,,,,,0,63,63,46,1,,,,,,,,,,,,,,,,,,,,,,,,,,,,,,,,,,,
,,,,,,,,,,,,l,Correct!,,,,,,t1.png,t3.png,2,0.056466,19,female,2020-11-15_16h03.05.581,torte-q,2020.1.3,MacIntel,60,13363,0.498,,,,,0,64,64,60,1,,,,,,,,,,,,,,,,,,,,,,,,,,,,,,,,,,,
,,,,,,,,,,,,a,Correct!,,,,,,t5.png,t5.png,0,0.97829,19,female,2020-11-15_16h03.05.581,torte-q,2020.1.3,MacIntel,60,13363,0.335,,,,,0,65,65,25,1,,,,,,,,,,,,,,,,,,,,,,,,,,,,,,,,,,,
,,,,,,,,,,,,a,Incorrect,,,,,,t1.png,t5.png,4,9.55E-11,19,female,2020-11-15_16h03.05.581,torte-q,2020.1.3,MacIntel,60,13363,0.3,,,,,0,66,66,16,1,,,,,,,,,,,,,,,,,,,,,,,,,,,,,,,,,,,
,,,,,,,,,,,,l,Correct!,,,,,,t3.png,t5.png,2,0.0565,19,female,2020-11-15_16h03.05.581,torte-q,2020.1.3,MacIntel,60,13363,0.227,,,,,0,67,67,83,1,,,,,,,,,,,,,,,,,,,,,,,,,,,,,,,,,,,
,,,,,,,,,,,,l,Incorrect,,,,,,t2.png,t2.png,0,0.98115,19,female,2020-11-15_16h03.05.581,torte-q,2020.1.3,MacIntel,60,13363,0.357,,,,,0,68,68,57,1,,,,,,,,,,,,,,,,,,,,,,,,,,,,,,,,,,,
,,,,,,,,,,,,a,Incorrect,,,,,,t5.png,t3.png,2,0.056466,19,female,2020-11-15_16h03.05.581,torte-q,2020.1.3,MacIntel,60,13363,0.534,,,,,0,69,69,38,1,,,,,,,,,,,,,,,,,,,,,,,,,,,,,,,,,,,
,,,,,,,,,,,,a,Correct!,,,,,,t1.png,t1.png,0,0.978,19,female,2020-11-15_16h03.05.581,torte-q,2020.1.3,MacIntel,60,13363,0.357,,,,,0,70,70,28,1,,,,,,,,,,,,,,,,,,,,,,,,,,,,,,,,,,,
,,,,,,,,,,,,l,Correct!,,,,,,t2.png,t4.png,2,0.059078,19,female,2020-11-15_16h03.05.581,torte-q,2020.1.3,MacIntel,60,13363,0.299,,,,,0,71,71,11,1,,,,,,,,,,,,,,,,,,,,,,,,,,,,,,,,,,,
,,,,,,,,,,,,a,Incorrect,,,,,,t5.png,t3.png,2,0.056466,19,female,2020-11-15_16h03.05.581,torte-q,2020.1.3,MacIntel,60,13363,0.364,,,,,0,72,72,108,1,,,,,,,,,,,,,,,,,,,,,,,,,,,,,,,,,,,
,,,,,,,,,,,,a,Incorrect,,,,,,t1.png,t3.png,2,0.056466,19,female,2020-11-15_16h03.05.581,torte-q,2020.1.3,MacIntel,60,13363,0.316,,,,,0,73,73,69,1,,,,,,,,,,,,,,,,,,,,,,,,,,,,,,,,,,,
,,,,,,,,,,,,a,Correct!,,,,,,t5.png,t4.png,1,0.9,19,female,2020-11-15_16h03.05.581,torte-q,2020.1.3,MacIntel,60,13363,0.491,,,,,0,74,74,49,1,,,,,,,,,,,,,,,,,,,,,,,,,,,,,,,,,,,
,,,,,,,,,,,,a,Incorrect,,,,,,t1.png,t5.png,4,9.55E-11,19,female,2020-11-15_16h03.05.581,torte-q,2020.1.3,MacIntel,60,13363,1.091,,,,,0,75,75,55,1,,,,,,,,,,,,,,,,,,,,,,,,,,,,,,,,,,,
,,,,,,,,,,,,l,Correct!,,,,,,t3.png,t5.png,2,0.0565,19,female,2020-11-15_16h03.05.581,torte-q,2020.1.3,MacIntel,60,13363,0.287,,,,,0,76,76,30,1,,,,,,,,,,,,,,,,,,,,,,,,,,,,,,,,,,,
,,,,,,,,,,,,l,Correct!,,,,,,t1.png,t5.png,4,9.55E-11,19,female,2020-11-15_16h03.05.581,torte-q,2020.1.3,MacIntel,60,13363,0.439,,,,,0,77,77,85,1,,,,,,,,,,,,,,,,,,,,,,,,,,,,,,,,,,,
,,,,,,,,,,,,l,Correct!,,,,,,t3.png,t1.png,2,0.056466,19,female,2020-11-15_16h03.05.581,torte-q,2020.1.3,MacIntel,60,13363,1.899,,,,,0,78,78,29,1,,,,,,,,,,,,,,,,,,,,,,,,,,,,,,,,,,,
,,,,,,,,,,,,l,Incorrect,,,,,,t4.png,t3.png,1,0.909,19,female,2020-11-15_16h03.05.581,torte-q,2020.1.3,MacIntel,60,13363,0.714,,,,,0,79,79,20,1,,,,,,,,,,,,,,,,,,,,,,,,,,,,,,,,,,,
,,,,,,,,,,,,a,Correct!,,,,,,t3.png,t2.png,1,0.909,19,female,2020-11-15_16h03.05.581,torte-q,2020.1.3,MacIntel,60,13363,1.639,,,,,0,80,80,3,1,,,,,,,,,,,,,,,,,,,,,,,,,,,,,,,,,,,
,,,,,,,,,,,,a,Correct!,,,,,,t4.png,t5.png,1,0.90025,19,female,2020-11-15_16h03.05.581,torte-q,2020.1.3,MacIntel,60,13363,0.415,,,,,0,81,81,113,1,,,,,,,,,,,,,,,,,,,,,,,,,,,,,,,,,,,
,,,,,,,,,,,,a,Incorrect,,,,,,t4.png,t2.png,2,0.059078,19,female,2020-11-15_16h03.05.581,torte-q,2020.1.3,MacIntel,60,13363,1.269,,,,,0,82,82,110,1,,,,,,,,,,,,,,,,,,,,,,,,,,,,,,,,,,,
,,,,,,,,,,,,l,Incorrect,,,,,,t4.png,t4.png,0,0.98115,19,female,2020-11-15_16h03.05.581,torte-q,2020.1.3,MacIntel,60,13363,0.346,,,,,0,83,83,80,1,,,,,,,,,,,,,,,,,,,,,,,,,,,,,,,,,,,
,,,,,,,,,,,,a,Incorrect,,,,,,t1.png,t4.png,3,0.0000131,19,female,2020-11-15_16h03.05.581,torte-q,2020.1.3,MacIntel,60,13363,1.954,,,,,0,84,84,81,1,,,,,,,,,,,,,,,,,,,,,,,,,,,,,,,,,,,
,,,,,,,,,,,,a,Incorrect,,,,,,t2.png,t4.png,2,0.059078,19,female,2020-11-15_16h03.05.581,torte-q,2020.1.3,MacIntel,60,13363,0.306,,,,,0,85,85,37,1,,,,,,,,,,,,,,,,,,,,,,,,,,,,,,,,,,,
,,,,,,,,,,,,a,Incorrect,,,,,,t5.png,t2.png,3,0.0000131,19,female,2020-11-15_16h03.05.581,torte-q,2020.1.3,MacIntel,60,13363,0.298,,,,,0,86,86,119,1,,,,,,,,,,,,,,,,,,,,,,,,,,,,,,,,,,,
,,,,,,,,,,,,a,Incorrect,,,,,,t3.png,t5.png,2,0.056466,19,female,2020-11-15_16h03.05.581,torte-q,2020.1.3,MacIntel,60,13363,0.42,,,,,0,87,87,6,1,,,,,,,,,,,,,,,,,,,,,,,,,,,,,,,,,,,
,,,,,,,,,,,,a,Incorrect,,,,,,t2.png,t2.png,0,0.98115,19,female,2020-11-15_16h03.05.581,torte-q,2020.1.3,MacIntel,60,13363,0.497,,,,,0,88,88,7,1,,,,,,,,,,,,,,,,,,,,,,,,,,,,,,,,,,,
,,,,,,,,,,,,a,Correct!,,,,,,t5.png,t5.png,0,0.97829,19,female,2020-11-15_16h03.05.581,torte-q,2020.1.3,MacIntel,60,13363,0.313,,,,,0,89,89,73,1,,,,,,,,,,,,,,,,,,,,,,,,,,,,,,,,,,,
,,,,,,,,,,,,l,Incorrect,,,,,,t2.png,t1.png,1,0.90025,19,female,2020-11-15_16h03.05.581,torte-q,2020.1.3,MacIntel,60,13363,0.232,,,,,0,90,90,4,1,,,,,,,,,,,,,,,,,,,,,,,,,,,,,,,,,,,
,,,,,,,,,,,,l,Correct!,,,,,,t1.png,t4.png,3,0.0000131,19,female,2020-11-15_16h03.05.581,torte-q,2020.1.3,MacIntel,60,13363,0.222,,,,,0,91,91,17,1,,,,,,,,,,,,,,,,,,,,,,,,,,,,,,,,,,,
,,,,,,,,,,,,l,Correct!,,,,,,t3.png,t5.png,2,0.056466,19,female,2020-11-15_16h03.05.581,torte-q,2020.1.3,MacIntel,60,13363,0.007,,,,,0,92,92,14,1,,,,,,,,,,,,,,,,,,,,,,,,,,,,,,,,,,,
,,,,,,,,,,,,l,Correct!,,,,,,t1.png,t4.png,3,0.0000131,19,female,2020-11-15_16h03.05.581,torte-q,2020.1.3,MacIntel,60,13363,0.392,,,,,0,93,93,107,1,,,,,,,,,,,,,,,,,,,,,,,,,,,,,,,,,,,
,,,,,,,,,,,,l,Incorrect,,,,,,t3.png,t4.png,1,0.909,19,female,2020-11-15_16h03.05.581,torte-q,2020.1.3,MacIntel,60,13363,0.301,,,,,0,94,94,106,1,,,,,,,,,,,,,,,,,,,,,,,,,,,,,,,,,,,
,,,,,,,,,,,,a,Incorrect,,,,,,t1.png,t3.png,2,0.056466,19,female,2020-11-15_16h03.05.581,torte-q,2020.1.3,MacIntel,60,13363,0.319,,,,,0,95,95,87,1,,,,,,,,,,,,,,,,,,,,,,,,,,,,,,,,,,,
,,,,,,,,,,,,a,Correct!,,,,,,t4.png,t3.png,1,0.90855,19,female,2020-11-15_16h03.05.581,torte-q,2020.1.3,MacIntel,60,13363,0.323,,,,,0,96,96,45,1,,,,,,,,,,,,,,,,,,,,,,,,,,,,,,,,,,,
,,,,,,,,,,,,a,Incorrect,,,,,,t1.png,t3.png,2,0.056466,19,female,2020-11-15_16h03.05.581,torte-q,2020.1.3,MacIntel,60,13363,0.325,,,,,0,97,97,99,1,,,,,,,,,,,,,,,,,,,,,,,,,,,,,,,,,,,
,,,,,,,,,,,,l,Incorrect,,,,,,t1.png,t1.png,0,0.97829,19,female,2020-11-15_16h03.05.581,torte-q,2020.1.3,MacIntel,60,13363,0.335,,,,,0,98,98,9,1,,,,,,,,,,,,,,,,,,,,,,,,,,,,,,,,,,,
,,,,,,,,,,,,l,Incorrect,,,,,,t3.png,t4.png,1,0.909,19,female,2020-11-15_16h03.05.581,torte-q,2020.1.3,MacIntel,60,13363,0.521,,,,,0,99,99,89,1,,,,,,,,,,,,,,,,,,,,,,,,,,,,,,,,,,,
,,,,,,,,,,,,a,Incorrect,,,,,,t3.png,t1.png,2,0.056466,19,female,2020-11-15_16h03.05.581,torte-q,2020.1.3,MacIntel,60,13363,0.399,,,,,0,100,100,64,1,,,,,,,,,,,,,,,,,,,,,,,,,,,,,,,,,,,
,,,,,,,,,,,,l,Correct!,,,,,,t1.png,t4.png,3,0.0000131,19,female,2020-11-15_16h03.05.581,torte-q,2020.1.3,MacIntel,60,13363,0.305,,,,,0,101,101,50,1,,,,,,,,,,,,,,,,,,,,,,,,,,,,,,,,,,,
,,,,,,,,,,,,l,Correct!,,,,,,t5.png,t1.png,4,9.55E-11,19,female,2020-11-15_16h03.05.581,torte-q,2020.1.3,MacIntel,60,13363,0.383,,,,,0,102,102,102,1,,,,,,,,,,,,,,,,,,,,,,,,,,,,,,,,,,,
,,,,,,,,,,,,a,Correct!,,,,,,t5.png,t5.png,0,0.97829,19,female,2020-11-15_16h03.05.581,torte-q,2020.1.3,MacIntel,60,13363,0.457,,,,,0,103,103,94,1,,,,,,,,,,,,,,,,,,,,,,,,,,,,,,,,,,,
,,,,,,,,,,,,l,Correct!,,,,,,t2.png,t5.png,3,0.0000131,19,female,2020-11-15_16h03.05.581,torte-q,2020.1.3,MacIntel,60,13363,0.606,,,,,0,104,104,104,1,,,,,,,,,,,,,,,,,,,,,,,,,,,,,,,,,,,
,,,,,,,,,,,,a,Incorrect,,,,,,t5.png,t1.png,4,9.55E-11,19,female,2020-11-15_16h03.05.581,torte-q,2020.1.3,MacIntel,60,13363,0.337,,,,,0,105,105,71,1,,,,,,,,,,,,,,,,,,,,,,,,,,,,,,,,,,,
,,,,,,,,,,,,a,Incorrect,,,,,,t5.png,t2.png,3,0.0000131,19,female,2020-11-15_16h03.05.581,torte-q,2020.1.3,MacIntel,60,13363,0.414,,,,,0,106,106,98,1,,,,,,,,,,,,,,,,,,,,,,,,,,,,,,,,,,,
,,,,,,,,,,,,a,Incorrect,,,,,,t4.png,t1.png,3,0.0000131,19,female,2020-11-15_16h03.05.581,torte-q,2020.1.3,MacIntel,60,13363,0.348,,,,,0,107,107,13,1,,,,,,,,,,,,,,,,,,,,,,,,,,,,,,,,,,,
,,,,,,,,,,,,a,Correct!,,,,,,t1.png,t2.png,1,0.90025,19,female,2020-11-15_16h03.05.581,torte-q,2020.1.3,MacIntel,60,13363,0.383,,,,,0,108,108,112,1,,,,,,,,,,,,,,,,,,,,,,,,,,,,,,,,,,,
,,,,,,,,,,,,l,Incorrect,,,,,,t2.png,t2.png,0,0.98115,19,female,2020-11-15_16h03.05.581,torte-q,2020.1.3,MacIntel,60,13363,0.406,,,,,0,109,109,2,1,,,,,,,,,,,,,,,,,,,,,,,,,,,,,,,,,,,
,,,,,,,,,,,,l,Incorrect,,,,,,t2.png,t2.png,0,0.981,19,female,2020-11-15_16h03.05.581,torte-q,2020.1.3,MacIntel,60,13363,0.532,,,,,0,110,110,101,1,,,,,,,,,,,,,,,,,,,,,,,,,,,,,,,,,,,
,,,,,,,,,,,,a,Incorrect,,,,,,t3.png,t1.png,2,0.056466,19,female,2020-11-15_16h03.05.581,torte-q,2020.1.3,MacIntel,60,13363,0.653,,,,,0,111,111,32,1,,,,,,,,,,,,,,,,,,,,,,,,,,,,,,,,,,,
,,,,,,,,,,,,l,Incorrect,,,,,,t2.png,t3.png,1,0.90855,19,female,2020-11-15_16h03.05.581,torte-q,2020.1.3,MacIntel,60,13363,0.331,,,,,0,112,112,111,1,,,,,,,,,,,,,,,,,,,,,,,,,,,,,,,,,,,
,,,,,,,,,,,,l,Correct!,,,,,,t4.png,t2.png,2,0.059078,19,female,2020-11-15_16h03.05.581,torte-q,2020.1.3,MacIntel,60,13363,0.432,,,,,0,113,113,86,1,,,,,,,,,,,,,,,,,,,,,,,,,,,,,,,,,,,
,,,,,,,,,,,,a,Incorrect,,,,,,t4.png,t5.png,1,0.9,19,female,2020-11-15_16h03.05.581,torte-q,2020.1.3,MacIntel,60,13363,0.334,,,,,0,114,114,115,1,,,,,,,,,,,,,,,,,,,,,,,,,,,,,,,,,,,
,,,,,,,,,,,,a,Correct!,,,,,,t3.png,t2.png,1,0.909,19,female,2020-11-15_16h03.05.581,torte-q,2020.1.3,MacIntel,60,13363,0.321,,,,,0,115,115,23,1,,,,,,,,,,,,,,,,,,,,,,,,,,,,,,,,,,,
,,,,,,,,,,,,l,Incorrect,,,,,,t1.png,t1.png,0,0.978,19,female,2020-11-15_16h03.05.581,torte-q,2020.1.3,MacIntel,60,13363,0.564,,,,,0,116,116,54,1,,,,,,,,,,,,,,,,,,,,,,,,,,,,,,,,,,,
,,,,,,,,,,,,a,Correct!,,,,,,t5.png,t4.png,1,0.9,19,female,2020-11-15_16h03.05.581,torte-q,2020.1.3,MacIntel,60,13363,0.354,,,,,0,117,117,76,1,,,,,,,,,,,,,,,,,,,,,,,,,,,,,,,,,,,
,,,,,,,,,,,,a,Correct!,,,,,,t1.png,t2.png,1,0.9,19,female,2020-11-15_16h03.05.581,torte-q,2020.1.3,MacIntel,60,13363,0.45,,,,,0,118,118,1,1,,,,,,,,,,,,,,,,,,,,,,,,,,,,,,,,,,,
,,,,,,,,,,,,a,Correct!,,,,,,t3.png,t2.png,1,0.90855,19,female,2020-11-15_16h03.05.581,torte-q,2020.1.3,MacIntel,60,13363,0.607,,,,,0,119,119,53,1,,,,,,,,,,,,,,,,,,,,,,,,,,,,,,,,,,,
,,,,,,,,,,,,l,Incorrect,,,,,,t3.png,t2.png,1,0.90855,19,female,2020-11-15_16h03.05.581,torte-q,2020.1.3,MacIntel,60,13363,1.754,l,3.151,,,,,,,,l,8.936,return,4.165,0,0,0,53,1,,,,,,,,,,,,,,,,,,,,,,,,,,
,,,,,,,,,,,,a,Incorrect,,,,,,t4.png,t2.png,2,0.059078,19,female,2020-11-15_16h03.05.581,torte-q,2020.1.3,MacIntel,60,13363,0.337,,,,,,,,,,,,,,0,1,1,110,1,,,,,,,,,,,,,,,,,,,,,,,,,,
,,,,,,,,,,,,l,Correct!,,,,,,t1.png,t4.png,3,0.0000131,19,female,2020-11-15_16h03.05.581,torte-q,2020.1.3,MacIntel,60,13363,0.319,,,,,,,,,,,,,,0,2,2,81,1,,,,,,,,,,,,,,,,,,,,,,,,,,
,,,,,,,,,,,,a,Incorrect,,,,,,t2.png,t5.png,3,0.0000131,19,female,2020-11-15_16h03.05.581,torte-q,2020.1.3,MacIntel,60,13363,0.282,,,,,,,,,,,,,,0,3,3,40,1,,,,,,,,,,,,,,,,,,,,,,,,,,
,,,,,,,,,,,,l,Incorrect,,,,,,t1.png,t1.png,0,0.978,19,female,2020-11-15_16h03.05.581,torte-q,2020.1.3,MacIntel,60,13363,0.12,,,,,,,,,,,,,,0,4,4,54,1,,,,,,,,,,,,,,,,,,,,,,,,,,
,,,,,,,,,,,,a,Correct!,,,,,,t4.png,t4.png,0,0.98115,19,female,2020-11-15_16h03.05.581,torte-q,2020.1.3,MacIntel,60,13363,0.256,,,,,,,,,,,,,,0,5,5,90,1,,,,,,,,,,,,,,,,,,,,,,,,,,
,,,,,,,,,,,,l,Correct!,,,,,,t1.png,t3.png,2,0.056466,19,female,2020-11-15_16h03.05.581,torte-q,2020.1.3,MacIntel,60,13363,0.115,,,,,,,,,,,,,,0,6,6,99,1,,,,,,,,,,,,,,,,,,,,,,,,,,
,,,,,,,,,,,,a,Incorrect,,,,,,t5.png,t5.png,0,0.978,19,female,2020-11-15_16h03.05.581,torte-q,2020.1.3,MacIntel,60,13363,0.206,,,,,,,,,,,,,,0,7,7,117,1,,,,,,,,,,,,,,,,,,,,,,,,,,
,,,,,,,,,,,,l,Incorrect,,,,,,t4.png,t4.png,0,0.98115,19,female,2020-11-15_16h03.05.581,torte-q,2020.1.3,MacIntel,60,13363,0.318,,,,,,,,,,,,,,0,8,8,80,1,,,,,,,,,,,,,,,,,,,,,,,,,,
,,,,,,,,,,,,a,Incorrect,,,,,,t3.png,t5.png,2,0.0565,19,female,2020-11-15_16h03.05.581,torte-q,2020.1.3,MacIntel,60,13363,0.286,,,,,,,,,,,,,,0,9,9,83,1,,,,,,,,,,,,,,,,,,,,,,,,,,
,,,,,,,,,,,,l,Incorrect,,,,,,t4.png,t5.png,1,0.90025,19,female,2020-11-15_16h03.05.581,torte-q,2020.1.3,MacIntel,60,13363,0.215,,,,,,,,,,,,,,0,10,10,47,1,,,,,,,,,,,,,,,,,,,,,,,,,,
,,,,,,,,,,,,a,Incorrect,,,,,,t4.png,t2.png,2,0.059078,19,female,2020-11-15_16h03.05.581,torte-q,2020.1.3,MacIntel,60,13363,0.34,,,,,,,,,,,,,,0,11,11,86,1,,,,,,,,,,,,,,,,,,,,,,,,,,
,,,,,,,,,,,,l,Correct!,,,,,,t3.png,t5.png,2,0.0565,19,female,2020-11-15_16h03.05.581,torte-q,2020.1.3,MacIntel,60,13363,0.314,,,,,,,,,,,,,,0,12,12,30,1,,,,,,,,,,,,,,,,,,,,,,,,,,
,,,,,,,,,,,,a,Incorrect,,,,,,t2.png,t4.png,2,0.059078,19,female,2020-11-15_16h03.05.581,torte-q,2020.1.3,MacIntel,60,13363,0.232,,,,,,,,,,,,,,0,13,13,37,1,,,,,,,,,,,,,,,,,,,,,,,,,,
,,,,,,,,,,,,l,Correct!,,,,,,t1.png,t3.png,2,0.056466,19,female,2020-11-15_16h03.05.581,torte-q,2020.1.3,MacIntel,60,13363,0.281,,,,,,,,,,,,,,0,14,14,87,1,,,,,,,,,,,,,,,,,,,,,,,,,,
,,,,,,,,,,,,a,Incorrect,,,,,,t3.png,t5.png,2,0.056466,19,female,2020-11-15_16h03.05.581,torte-q,2020.1.3,MacIntel,60,13363,0.314,,,,,,,,,,,,,,0,15,15,6,1,,,,,,,,,,,,,,,,,,,,,,,,,,
,,,,,,,,,,,,l,Correct!,,,,,,t2.png,t3.png,1,0.90855,19,female,2020-11-15_16h03.05.581,torte-q,2020.1.3,MacIntel,60,13363,0.081,,,,,,,,,,,,,,0,16,16,10,1,,,,,,,,,,,,,,,,,,,,,,,,,,
,,,,,,,,,,,,a,Correct!,,,,,,t1.png,t1.png,0,0.97829,19,female,2020-11-15_16h03.05.581,torte-q,2020.1.3,MacIntel,60,13363,0.303,,,,,,,,,,,,,,0,17,17,78,1,,,,,,,,,,,,,,,,,,,,,,,,,,
,,,,,,,,,,,,l,Correct!,,,,,,t1.png,t5.png,4,9.55E-11,19,female,2020-11-15_16h03.05.581,torte-q,2020.1.3,MacIntel,60,13363,0.265,,,,,,,,,,,,,,0,18,18,16,1,,,,,,,,,,,,,,,,,,,,,,,,,,
,,,,,,,,,,,,a,Incorrect,,,,,,t5.png,t1.png,4,9.55E-11,19,female,2020-11-15_16h03.05.581,torte-q,2020.1.3,MacIntel,60,13363,0.215,,,,,,,,,,,,,,0,19,19,100,1,,,,,,,,,,,,,,,,,,,,,,,,,,
,,,,,,,,,,,,l,Correct!,,,,,,t1.png,t5.png,4,9.55E-11,19,female,2020-11-15_16h03.05.581,torte-q,2020.1.3,MacIntel,60,13363,0.624,,,,,,,,,,,,,,0,20,20,85,1,,,,,,,,,,,,,,,,,,,,,,,,,,
,,,,,,,,,,,,a,Correct!,,,,,,t1.png,t2.png,1,0.90025,19,female,2020-11-15_16h03.05.581,torte-q,2020.1.3,MacIntel,60,13363,0.374,,,,,,,,,,,,,,0,21,21,33,1,,,,,,,,,,,,,,,,,,,,,,,,,,
,,,,,,,,,,,,l,Correct!,,,,,,t1.png,t5.png,4,9.55E-11,19,female,2020-11-15_16h03.05.581,torte-q,2020.1.3,MacIntel,60,13363,0.247,,,,,,,,,,,,,,0,22,22,55,1,,,,,,,,,,,,,,,,,,,,,,,,,,
,,,,,,,,,,,,a,Correct!,,,,,,t3.png,t4.png,1,0.90855,19,female,2020-11-15_16h03.05.581,torte-q,2020.1.3,MacIntel,60,13363,0.29,,,,,,,,,,,,,,0,23,23,96,1,,,,,,,,,,,,,,,,,,,,,,,,,,
,,,,,,,,,,,,l,Correct!,,,,,,t1.png,t4.png,3,0.0000131,19,female,2020-11-15_16h03.05.581,torte-q,2020.1.3,MacIntel,60,13363,0.27,,,,,,,,,,,,,,0,24,24,107,1,,,,,,,,,,,,,,,,,,,,,,,,,,
,,,,,,,,,,,,a,Correct!,,,,,,t2.png,t1.png,1,0.90025,19,female,2020-11-15_16h03.05.581,torte-q,2020.1.3,MacIntel,60,13363,0.247,,,,,,,,,,,,,,0,25,25,62,1,,,,,,,,,,,,,,,,,,,,,,,,,,
,,,,,,,,,,,,l,Correct!,,,,,,t3.png,t1.png,2,0.0565,19,female,2020-11-15_16h03.05.581,torte-q,2020.1.3,MacIntel,60,13363,0.084,,,,,,,,,,,,,,0,26,26,31,1,,,,,,,,,,,,,,,,,,,,,,,,,,
,,,,,,,,,,,,a,Correct!,,,,,,t4.png,t5.png,1,0.90025,19,female,2020-11-15_16h03.05.581,torte-q,2020.1.3,MacIntel,60,13363,0.237,,,,,,,,,,,,,,0,27,27,113,1,,,,,,,,,,,,,,,,,,,,,,,,,,
,,,,,,,,,,,,l,Correct!,,,,,,t3.png,t1.png,2,0.056466,19,female,2020-11-15_16h03.05.581,torte-q,2020.1.3,MacIntel,60,13363,0.457,,,,,,,,,,,,,,0,28,28,0,1,,,,,,,,,,,,,,,,,,,,,,,,,,
,,,,,,,,,,,,a,Correct!,,,,,,t2.png,t3.png,1,0.90855,19,female,2020-11-15_16h03.05.581,torte-q,2020.1.3,MacIntel,60,13363,0.352,,,,,,,,,,,,,,0,29,29,68,1,,,,,,,,,,,,,,,,,,,,,,,,,,
,,,,,,,,,,,,l,Correct!,,,,,,t5.png,t1.png,4,9.55E-11,19,female,2020-11-15_16h03.05.581,torte-q,2020.1.3,MacIntel,60,13363,0.237,,,,,,,,,,,,,,0,30,30,43,1,,,,,,,,,,,,,,,,,,,,,,,,,,
,,,,,,,,,,,,a,Incorrect,,,,,,t4.png,t1.png,3,0.0000131,19,female,2020-11-15_16h03.05.581,torte-q,2020.1.3,MacIntel,60,13363,0.282,,,,,,,,,,,,,,0,31,31,61,1,,,,,,,,,,,,,,,,,,,,,,,,,,
,,,,,,,,,,,,l,Incorrect,,,,,,t4.png,t5.png,1,0.90025,19,female,2020-11-15_16h03.05.581,torte-q,2020.1.3,MacIntel,60,13363,0.168,,,,,,,,,,,,,,0,32,32,103,1,,,,,,,,,,,,,,,,,,,,,,,,,,
,,,,,,,,,,,,a,Incorrect,,,,,,t4.png,t2.png,2,0.0591,19,female,2020-11-15_16h03.05.581,torte-q,2020.1.3,MacIntel,60,13363,0.27,,,,,,,,,,,,,,0,33,33,36,1,,,,,,,,,,,,,,,,,,,,,,,,,,
,,,,,,,,,,,,l,Incorrect,,,,,,t5.png,t4.png,1,0.9,19,female,2020-11-15_16h03.05.581,torte-q,2020.1.3,MacIntel,60,13363,0.116,,,,,,,,,,,,,,0,34,34,76,1,,,,,,,,,,,,,,,,,,,,,,,,,,
,,,,,,,,,,,,a,Incorrect,,,,,,t5.png,t2.png,3,0.0000131,19,female,2020-11-15_16h03.05.581,torte-q,2020.1.3,MacIntel,60,13363,0.303,,,,,,,,,,,,,,0,35,35,116,1,,,,,,,,,,,,,,,,,,,,,,,,,,
,,,,,,,,,,,,l,Incorrect,,,,,,t2.png,t2.png,0,0.98115,19,female,2020-11-15_16h03.05.581,torte-q,2020.1.3,MacIntel,60,13363,0.315,,,,,,,,,,,,,,0,36,36,59,1,,,,,,,,,,,,,,,,,,,,,,,,,,
,,,,,,,,,,,,a,Incorrect,,,,,,t2.png,t4.png,2,0.0591,19,female,2020-11-15_16h03.05.581,torte-q,2020.1.3,MacIntel,60,13363,0.715,,,,,,,,,,,,,,0,37,37,15,1,,,,,,,,,,,,,,,,,,,,,,,,,,
,,,,,,,,,,,,a,Incorrect,,,,,,t3.png,t1.png,2,0.056466,19,female,2020-11-15_16h03.05.581,torte-q,2020.1.3,MacIntel,60,13363,0.719,,,,,,,,,,,,,,0,38,38,29,1,,,,,,,,,,,,,,,,,,,,,,,,,,
,,,,,,,,,,,,l,Incorrect,,,,,,t2.png,t2.png,0,0.98115,19,female,2020-11-15_16h03.05.581,torte-q,2020.1.3,MacIntel,60,13363,1.016,,,,,,,,,,,,,,0,39,39,57,1,,,,,,,,,,,,,,,,,,,,,,,,,,
,,,,,,,,,,,,a,Correct!,,,,,,t2.png,t3.png,1,0.90855,19,female,2020-11-15_16h03.05.581,torte-q,2020.1.3,MacIntel,60,13363,0.248,,,,,,,,,,,,,,0,40,40,65,1,,,,,,,,,,,,,,,,,,,,,,,,,,
,,,,,,,,,,,,l,Correct!,,,,,,t5.png,t1.png,4,9.55E-11,19,female,2020-11-15_16h03.05.581,torte-q,2020.1.3,MacIntel,60,13363,0.286,,,,,,,,,,,,,,0,41,41,22,1,,,,,,,,,,,,,,,,,,,,,,,,,,
,,,,,,,,,,,,a,Incorrect,,,,,,t5.png,t1.png,4,9.55E-11,19,female,2020-11-15_16h03.05.581,torte-q,2020.1.3,MacIntel,60,13363,0.237,,,,,,,,,,,,,,0,42,42,71,1,,,,,,,,,,,,,,,,,,,,,,,,,,
,,,,,,,,,,,,l,Incorrect,,,,,,t4.png,t3.png,1,0.90855,19,female,2020-11-15_16h03.05.581,torte-q,2020.1.3,MacIntel,60,13363,0.432,,,,,,,,,,,,,,0,43,43,75,1,,,,,,,,,,,,,,,,,,,,,,,,,,
,,,,,,,,,,,,a,Correct!,,,,,,t5.png,t3.png,2,0.056466,19,female,2020-11-15_16h03.05.581,torte-q,2020.1.3,MacIntel,60,13363,0.266,,,,,,,,,,,,,,0,44,44,114,1,,,,,,,,,,,,,,,,,,,,,,,,,,
,,,,,,,,,,,,l,Correct!,,,,,,t4.png,t1.png,3,0.0000131,19,female,2020-11-15_16h03.05.581,torte-q,2020.1.3,MacIntel,60,13363,0.1,,,,,,,,,,,,,,0,45,45,13,1,,,,,,,,,,,,,,,,,,,,,,,,,,
,,,,,,,,,,,,a,Correct!,,,,,,t3.png,t4.png,1,0.909,19,female,2020-11-15_16h03.05.581,torte-q,2020.1.3,MacIntel,60,13363,0.539,,,,,,,,,,,,,,0,46,46,106,1,,,,,,,,,,,,,,,,,,,,,,,,,,
,,,,,,,,,,,,l,Incorrect,,,,,,t2.png,t2.png,0,0.981,19,female,2020-11-15_16h03.05.581,torte-q,2020.1.3,MacIntel,60,13363,0.388,,,,,,,,,,,,,,0,47,47,101,1,,,,,,,,,,,,,,,,,,,,,,,,,,
,,,,,,,,,,,,a,Incorrect,,,,,,t4.png,t2.png,2,0.059078,19,female,2020-11-15_16h03.05.581,torte-q,2020.1.3,MacIntel,60,13363,0.209,,,,,,,,,,,,,,0,48,48,88,1,,,,,,,,,,,,,,,,,,,,,,,,,,
,,,,,,,,,,,,l,Correct!,,,,,,t3.png,t1.png,2,0.056466,19,female,2020-11-15_16h03.05.581,torte-q,2020.1.3,MacIntel,60,13363,0.223,,,,,,,,,,,,,,0,49,49,64,1,,,,,,,,,,,,,,,,,,,,,,,,,,
,,,,,,,,,,,,a,Incorrect,,,,,,t3.png,t1.png,2,0.056466,19,female,2020-11-15_16h03.05.581,torte-q,2020.1.3,MacIntel,60,13363,0.24,,,,,,,,,,,,,,0,50,50,32,1,,,,,,,,,,,,,,,,,,,,,,,,,,
,,,,,,,,,,,,a,Incorrect,,,,,,t1.png,t4.png,3,0.0000131,19,female,2020-11-15_16h03.05.581,torte-q,2020.1.3,MacIntel,60,13363,0.282,,,,,,,,,,,,,,0,51,51,17,1,,,,,,,,,,,,,,,,,,,,,,,,,,
,,,,,,,,,,,,a,Correct!,,,,,,t3.png,t2.png,1,0.909,19,female,2020-11-15_16h03.05.581,torte-q,2020.1.3,MacIntel,60,13363,0.291,,,,,,,,,,,,,,0,52,52,23,1,,,,,,,,,,,,,,,,,,,,,,,,,,
,,,,,,,,,,,,a,Incorrect,,,,,,t2.png,t4.png,2,0.059078,19,female,2020-11-15_16h03.05.581,torte-q,2020.1.3,MacIntel,60,13363,0.249,,,,,,,,,,,,,,0,53,53,77,1,,,,,,,,,,,,,,,,,,,,,,,,,,
,,,,,,,,,,,,a,Correct!,,,,,,t2.png,t1.png,1,0.90025,19,female,2020-11-15_16h03.05.581,torte-q,2020.1.3,MacIntel,60,13363,0.257,,,,,,,,,,,,,,0,54,54,19,1,,,,,,,,,,,,,,,,,,,,,,,,,,
,,,,,,,,,,,,a,Correct!,,,,,,t1.png,t2.png,1,0.9,19,female,2020-11-15_16h03.05.581,torte-q,2020.1.3,MacIntel,60,13363,0.325,,,,,,,,,,,,,,0,55,55,1,1,,,,,,,,,,,,,,,,,,,,,,,,,,
,,,,,,,,,,,,l,Incorrect,,,,,,t5.png,t5.png,0,0.97829,19,female,2020-11-15_16h03.05.581,torte-q,2020.1.3,MacIntel,60,13363,0.281,,,,,,,,,,,,,,0,56,56,94,1,,,,,,,,,,,,,,,,,,,,,,,,,,
,,,,,,,,,,,,l,Incorrect,,,,,,t1.png,t2.png,1,0.90025,19,female,2020-11-15_16h03.05.581,torte-q,2020.1.3,MacIntel,60,13363,0.266,,,,,,,,,,,,,,0,57,57,72,1,,,,,,,,,,,,,,,,,,,,,,,,,,
,,,,,,,,,,,,l,Incorrect,,,,,,t4.png,t4.png,0,0.98115,19,female,2020-11-15_16h03.05.581,torte-q,2020.1.3,MacIntel,60,13363,0.465,,,,,,,,,,,,,,0,58,58,21,1,,,,,,,,,,,,,,,,,,,,,,,,,,
,,,,,,,,,,,,a,Incorrect,,,,,,t5.png,t4.png,1,0.90025,19,female,2020-11-15_16h03.05.581,torte-q,2020.1.3,MacIntel,60,13363,0.219,,,,,,,,,,,,,,0,59,59,26,1,,,,,,,,,,,,,,,,,,,,,,,,,,
,,,,,,,,,,,,l,Incorrect,,,,,,t3.png,t2.png,1,0.909,19,female,2020-11-15_16h03.05.581,torte-q,2020.1.3,MacIntel,60,13363,0.323,,,,,,,,,,,,,,0,60,60,3,1,,,,,,,,,,,,,,,,,,,,,,,,,,
,,,,,,,,,,,,a,Incorrect,,,,,,t2.png,t5.png,3,0.0000131,19,female,2020-11-15_16h03.05.581,torte-q,2020.1.3,MacIntel,60,13363,0.248,,,,,,,,,,,,,,0,61,61,95,1,,,,,,,,,,,,,,,,,,,,,,,,,,
,,,,,,,,,,,,l,Incorrect,,,,,,t1.png,t1.png,0,0.978,19,female,2020-11-15_16h03.05.581,torte-q,2020.1.3,MacIntel,60,13363,0.216,,,,,,,,,,,,,,0,62,62,28,1,,,,,,,,,,,,,,,,,,,,,,,,,,
,,,,,,,,,,,,l,Correct!,,,,,,t4.png,t1.png,3,0.0000131,19,female,2020-11-15_16h03.05.581,torte-q,2020.1.3,MacIntel,60,13363,0.256,,,,,,,,,,,,,,0,63,63,42,1,,,,,,,,,,,,,,,,,,,,,,,,,,
,,,,,,,,,,,,l,Correct!,,,,,,t3.png,t5.png,2,0.056466,19,female,2020-11-15_16h03.05.581,torte-q,2020.1.3,MacIntel,60,13363,0.023,,,,,,,,,,,,,,0,64,64,44,1,,,,,,,,,,,,,,,,,,,,,,,,,,
,,,,,,,,,,,,l,Incorrect,,,,,,t1.png,t1.png,0,0.97829,19,female,2020-11-15_16h03.05.581,torte-q,2020.1.3,MacIntel,60,13363,0.182,,,,,,,,,,,,,,0,65,65,67,1,,,,,,,,,,,,,,,,,,,,,,,,,,
,,,,,,,,,,,,a,Correct!,,,,,,t5.png,t4.png,1,0.90025,19,female,2020-11-15_16h03.05.581,torte-q,2020.1.3,MacIntel,60,13363,0.283,,,,,,,,,,,,,,0,66,66,27,1,,,,,,,,,,,,,,,,,,,,,,,,,,
,,,,,,,,,,,,l,Incorrect,,,,,,t5.png,t5.png,0,0.97829,19,female,2020-11-15_16h03.05.581,torte-q,2020.1.3,MacIntel,60,13363,0.3,,,,,,,,,,,,,,0,67,67,25,1,,,,,,,,,,,,,,,,,,,,,,,,,,
,,,,,,,,,,,,l,Correct!,,,,,,t2.png,t5.png,3,0.0000131,19,female,2020-11-15_16h03.05.581,torte-q,2020.1.3,MacIntel,60,13363,0.249,,,,,,,,,,,,,,0,68,68,66,1,,,,,,,,,,,,,,,,,,,,,,,,,,
,,,,,,,,,,,,l,Correct!,,,,,,t5.png,t2.png,3,0.0000131,19,female,2020-11-15_16h03.05.581,torte-q,2020.1.3,MacIntel,60,13363,0.237,,,,,,,,,,,,,,0,69,69,91,1,,,,,,,,,,,,,,,,,,,,,,,,,,
,,,,,,,,,,,,a,Incorrect,,,,,,t1.png,t5.png,4,9.55E-11,19,female,2020-11-15_16h03.05.581,torte-q,2020.1.3,MacIntel,60,13363,0.315,,,,,,,,,,,,,,0,70,70,12,1,,,,,,,,,,,,,,,,,,,,,,,,,,
,,,,,,,,,,,,l,Incorrect,,,,,,t2.png,t2.png,0,0.98115,19,female,2020-11-15_16h03.05.581,torte-q,2020.1.3,MacIntel,60,13363,0.298,,,,,,,,,,,,,,0,71,71,7,1,,,,,,,,,,,,,,,,,,,,,,,,,,
,,,,,,,,,,,,l,Correct!,,,,,,t4.png,t1.png,3,0.0000131,19,female,2020-11-15_16h03.05.581,torte-q,2020.1.3,MacIntel,60,13363,0.49,,,,,,,,,,,,,,0,72,72,93,1,,,,,,,,,,,,,,,,,,,,,,,,,,
,,,,,,,,,,,,l,Incorrect,,,,,,t2.png,t1.png,1,0.9,19,female,2020-11-15_16h03.05.581,torte-q,2020.1.3,MacIntel,60,13363,0.654,,,,,,,,,,,,,,0,73,73,118,1,,,,,,,,,,,,,,,,,,,,,,,,,,
,,,,,,,,,,,,a,Correct!,,,,,,t4.png,t3.png,1,0.90855,19,female,2020-11-15_16h03.05.581,torte-q,2020.1.3,MacIntel,60,13363,0.337,,,,,,,,,,,,,,0,74,74,35,1,,,,,,,,,,,,,,,,,,,,,,,,,,
,,,,,,,,,,,,l,Incorrect,,,,,,t2.png,t2.png,0,0.98115,19,female,2020-11-15_16h03.05.581,torte-q,2020.1.3,MacIntel,60,13363,0.373,,,,,,,,,,,,,,0,75,75,2,1,,,,,,,,,,,,,,,,,,,,,,,,,,
,,,,,,,,,,,,l,Correct!,,,,,,t2.png,t5.png,3,0.0000131,19,female,2020-11-15_16h03.05.581,torte-q,2020.1.3,MacIntel,60,13363,0.303,,,,,,,,,,,,,,0,76,76,8,1,,,,,,,,,,,,,,,,,,,,,,,,,,
,,,,,,,,,,,,a,Incorrect,,,,,,t5.png,t2.png,3,0.0000131,19,female,2020-11-15_16h03.05.581,torte-q,2020.1.3,MacIntel,60,13363,0.368,,,,,,,,,,,,,,0,77,77,119,1,,,,,,,,,,,,,,,,,,,,,,,,,,
,,,,,,,,,,,,l,Correct!,,,,,,t1.png,t3.png,2,0.056466,19,female,2020-11-15_16h03.05.581,torte-q,2020.1.3,MacIntel,60,13363,0.503,,,,,,,,,,,,,,0,78,78,60,1,,,,,,,,,,,,,,,,,,,,,,,,,,
,,,,,,,,,,,,l,Incorrect,,,,,,t5.png,t3.png,2,0.0565,19,female,2020-11-15_16h03.05.581,torte-q,2020.1.3,MacIntel,60,13363,0.287,,,,,,,,,,,,,,0,79,79,39,1,,,,,,,,,,,,,,,,,,,,,,,,,,
,,,,,,,,,,,,l,Incorrect,,,,,,t1.png,t2.png,1,0.90025,19,female,2020-11-15_16h03.05.581,torte-q,2020.1.3,MacIntel,60,13363,0.436,,,,,,,,,,,,,,0,80,80,112,1,,,,,,,,,,,,,,,,,,,,,,,,,,
,,,,,,,,,,,,l,Correct!,,,,,,t3.png,t5.png,2,0.056466,19,female,2020-11-15_16h03.05.581,torte-q,2020.1.3,MacIntel,60,13363,0.399,,,,,,,,,,,,,,0,81,81,14,1,,,,,,,,,,,,,,,,,,,,,,,,,,
,,,,,,,,,,,,l,Incorrect,,,,,,t4.png,t5.png,1,0.90025,19,female,2020-11-15_16h03.05.581,torte-q,2020.1.3,MacIntel,60,13363,0.554,,,,,,,,,,,,,,0,82,82,58,1,,,,,,,,,,,,,,,,,,,,,,,,,,
,,,,,,,,,,,,a,Correct!,,,,,,t3.png,t2.png,1,0.90855,19,female,2020-11-15_16h03.05.581,torte-q,2020.1.3,MacIntel,60,13363,0.553,,,,,,,,,,,,,,0,83,83,18,1,,,,,,,,,,,,,,,,,,,,,,,,,,
,,,,,,,,,,,,l,Correct!,,,,,,t2.png,t4.png,2,0.059078,19,female,2020-11-15_16h03.05.581,torte-q,2020.1.3,MacIntel,60,13363,0.398,,,,,,,,,,,,,,0,84,84,24,1,,,,,,,,,,,,,,,,,,,,,,,,,,
,,,,,,,,,,,,l,Correct!,,,,,,t4.png,t1.png,3,0.0000131,19,female,2020-11-15_16h03.05.581,torte-q,2020.1.3,MacIntel,60,13363,0.481,,,,,,,,,,,,,,0,85,85,48,1,,,,,,,,,,,,,,,,,,,,,,,,,,
,,,,,,,,,,,,a,Incorrect,,,,,,t4.png,t3.png,1,0.909,19,female,2020-11-15_16h03.05.581,torte-q,2020.1.3,MacIntel,60,13363,0.398,,,,,,,,,,,,,,0,86,86,46,1,,,,,,,,,,,,,,,,,,,,,,,,,,
,,,,,,,,,,,,l,Correct!,,,,,,t5.png,t1.png,4,9.55E-11,19,female,2020-11-15_16h03.05.581,torte-q,2020.1.3,MacIntel,60,13363,0.588,,,,,,,,,,,,,,0,87,87,102,1,,,,,,,,,,,,,,,,,,,,,,,,,,
,,,,,,,,,,,,a,Correct!,,,,,,t2.png,t1.png,1,0.90025,19,female,2020-11-15_16h03.05.581,torte-q,2020.1.3,MacIntel,60,13363,0.4,,,,,,,,,,,,,,0,88,88,4,1,,,,,,,,,,,,,,,,,,,,,,,,,,
,,,,,,,,,,,,l,Correct!,,,,,,t5.png,t3.png,2,0.056466,19,female,2020-11-15_16h03.05.581,torte-q,2020.1.3,MacIntel,60,13363,0.304,,,,,,,,,,,,,,0,89,89,108,1,,,,,,,,,,,,,,,,,,,,,,,,,,
,,,,,,,,,,,,a,Correct!,,,,,,t4.png,t3.png,1,0.909,19,female,2020-11-15_16h03.05.581,torte-q,2020.1.3,MacIntel,60,13363,0.291,,,,,,,,,,,,,,0,90,90,20,1,,,,,,,,,,,,,,,,,,,,,,,,,,
,,,,,,,,,,,,l,Correct!,,,,,,t1.png,t3.png,2,0.056466,19,female,2020-11-15_16h03.05.581,torte-q,2020.1.3,MacIntel,60,13363,0.355,,,,,,,,,,,,,,0,91,91,69,1,,,,,,,,,,,,,,,,,,,,,,,,,,
,,,,,,,,,,,,l,Incorrect,,,,,,t2.png,t1.png,1,0.90025,19,female,2020-11-15_16h03.05.581,torte-q,2020.1.3,MacIntel,60,13363,0.558,,,,,,,,,,,,,,0,92,92,5,1,,,,,,,,,,,,,,,,,,,,,,,,,,
,,,,,,,,,,,,a,Correct!,,,,,,t4.png,t5.png,1,0.9,19,female,2020-11-15_16h03.05.581,torte-q,2020.1.3,MacIntel,60,13363,0.324,,,,,,,,,,,,,,0,93,93,115,1,,,,,,,,,,,,,,,,,,,,,,,,,,
,,,,,,,,,,,,l,Correct!,,,,,,t5.png,t2.png,3,0.0000131,19,female,2020-11-15_16h03.05.581,torte-q,2020.1.3,MacIntel,60,13363,0.288,,,,,,,,,,,,,,0,94,94,98,1,,,,,,,,,,,,,,,,,,,,,,,,,,
,,,,,,,,,,,,a,Correct!,,,,,,t3.png,t4.png,1,0.909,19,female,2020-11-15_16h03.05.581,torte-q,2020.1.3,MacIntel,60,13363,0.355,,,,,,,,,,,,,,0,95,95,82,1,,,,,,,,,,,,,,,,,,,,,,,,,,
,,,,,,,,,,,,l,Correct!,,,,,,t5.png,t2.png,3,0.0000131,19,female,2020-11-15_16h03.05.581,torte-q,2020.1.3,MacIntel,60,13363,0.322,,,,,,,,,,,,,,0,96,96,51,1,,,,,,,,,,,,,,,,,,,,,,,,,,
,,,,,,,,,,,,l,Correct!,,,,,,t1.png,t5.png,4,9.55E-11,19,female,2020-11-15_16h03.05.581,torte-q,2020.1.3,MacIntel,60,13363,0.284,,,,,,,,,,,,,,0,97,97,41,1,,,,,,,,,,,,,,,,,,,,,,,,,,
,,,,,,,,,,,,l,Correct!,,,,,,t1.png,t3.png,2,0.056466,19,female,2020-11-15_16h03.05.581,torte-q,2020.1.3,MacIntel,60,13363,0.423,,,,,,,,,,,,,,0,98,98,63,1,,,,,,,,,,,,,,,,,,,,,,,,,,
,,,,,,,,,,,,l,Correct!,,,,,,t5.png,t4.png,1,0.9,19,female,2020-11-15_16h03.05.581,torte-q,2020.1.3,MacIntel,60,13363,0.413,,,,,,,,,,,,,,0,99,99,49,1,,,,,,,,,,,,,,,,,,,,,,,,,,
,,,,,,,,,,,,a,Correct!,,,,,,t3.png,t2.png,1,0.90855,19,female,2020-11-15_16h03.05.581,torte-q,2020.1.3,MacIntel,60,13363,0.336,,,,,,,,,,,,,,0,100,100,97,1,,,,,,,,,,,,,,,,,,,,,,,,,,
,,,,,,,,,,,,a,Correct!,,,,,,t5.png,t5.png,0,0.97829,19,female,2020-11-15_16h03.05.581,torte-q,2020.1.3,MacIntel,60,13363,0.291,,,,,,,,,,,,,,0,101,101,73,1,,,,,,,,,,,,,,,,,,,,,,,,,,
,,,,,,,,,,,,l,Incorrect,,,,,,t4.png,t4.png,0,0.98115,19,female,2020-11-15_16h03.05.581,torte-q,2020.1.3,MacIntel,60,13363,0.321,,,,,,,,,,,,,,0,102,102,79,1,,,,,,,,,,,,,,,,,,,,,,,,,,
,,,,,,,,,,,,l,Incorrect,,,,,,t1.png,t2.png,1,0.90025,19,female,2020-11-15_16h03.05.581,torte-q,2020.1.3,MacIntel,60,13363,0.348,,,,,,,,,,,,,,0,103,103,105,1,,,,,,,,,,,,,,,,,,,,,,,,,,
,,,,,,,,,,,,l,Correct!,,,,,,t2.png,t3.png,1,0.90855,19,female,2020-11-15_16h03.05.581,torte-q,2020.1.3,MacIntel,60,13363,0.317,,,,,,,,,,,,,,0,104,104,111,1,,,,,,,,,,,,,,,,,,,,,,,,,,
,,,,,,,,,,,,l,Correct!,,,,,,t5.png,t3.png,2,0.056466,19,female,2020-11-15_16h03.05.581,torte-q,2020.1.3,MacIntel,60,13363,0.349,,,,,,,,,,,,,,0,105,105,38,1,,,,,,,,,,,,,,,,,,,,,,,,,,
,,,,,,,,,,,,a,Correct!,,,,,,t1.png,t1.png,0,0.97829,19,female,2020-11-15_16h03.05.581,torte-q,2020.1.3,MacIntel,60,13363,0.55,,,,,,,,,,,,,,0,106,106,9,1,,,,,,,,,,,,,,,,,,,,,,,,,,
,,,,,,,,,,,,l,Incorrect,,,,,,t5.png,t4.png,1,0.90025,19,female,2020-11-15_16h03.05.581,torte-q,2020.1.3,MacIntel,60,13363,0.356,,,,,,,,,,,,,,0,107,107,34,1,,,,,,,,,,,,,,,,,,,,,,,,,,
,,,,,,,,,,,,l,Correct!,,,,,,t1.png,t4.png,3,0.0000131,19,female,2020-11-15_16h03.05.581,torte-q,2020.1.3,MacIntel,60,13363,1.054,,,,,,,,,,,,,,0,108,108,92,1,,,,,,,,,,,,,,,,,,,,,,,,,,
,,,,,,,,,,,,a,Incorrect,,,,,,t2.png,t5.png,3,0.0000131,19,female,2020-11-15_16h03.05.581,torte-q,2020.1.3,MacIntel,60,13363,0.299,,,,,,,,,,,,,,0,109,109,104,1,,,,,,,,,,,,,,,,,,,,,,,,,,
,,,,,,,,,,,,l,Incorrect,,,,,,t2.png,t3.png,1,0.909,19,female,2020-11-15_16h03.05.581,torte-q,2020.1.3,MacIntel,60,13363,0.082,,,,,,,,,,,,,,0,110,110,74,1,,,,,,,,,,,,,,,,,,,,,,,,,,
,,,,,,,,,,,,a,Correct!,,,,,,t4.png,t3.png,1,0.90855,19,female,2020-11-15_16h03.05.581,torte-q,2020.1.3,MacIntel,60,13363,0.255,,,,,,,,,,,,,,0,111,111,45,1,,,,,,,,,,,,,,,,,,,,,,,,,,
,,,,,,,,,,,,l,Correct!,,,,,,t1.png,t4.png,3,0.0000131,19,female,2020-11-15_16h03.05.581,torte-q,2020.1.3,MacIntel,60,13363,0.1,,,,,,,,,,,,,,0,112,112,50,1,,,,,,,,,,,,,,,,,,,,,,,,,,
,,,,,,,,,,,,a,Correct!,,,,,,t3.png,t4.png,1,0.909,19,female,2020-11-15_16h03.05.581,torte-q,2020.1.3,MacIntel,60,13363,0.265,,,,,,,,,,,,,,0,113,113,89,1,,,,,,,,,,,,,,,,,,,,,,,,,,
,,,,,,,,,,,,l,Incorrect,,,,,,t3.png,t4.png,1,0.90855,19,female,2020-11-15_16h03.05.581,torte-q,2020.1.3,MacIntel,60,13363,0.147,,,,,,,,,,,,,,0,114,114,84,1,,,,,,,,,,,,,,,,,,,,,,,,,,
,,,,,,,,,,,,l,Correct!,,,,,,t2.png,t4.png,2,0.059078,19,female,2020-11-15_16h03.05.581,torte-q,2020.1.3,MacIntel,60,13363,0.303,,,,,,,,,,,,,,0,115,115,11,1,,,,,,,,,,,,,,,,,,,,,,,,,,
,,,,,,,,,,,,l,Correct!,,,,,,t5.png,t3.png,2,0.056466,19,female,2020-11-15_16h03.05.581,torte-q,2020.1.3,MacIntel,60,13363,0.27,,,,,,,,,,,,,,0,116,116,56,1,,,,,,,,,,,,,,,,,,,,,,,,,,
,,,,,,,,,,,,a,Correct!,,,,,,t4.png,t4.png,0,0.98115,19,female,2020-11-15_16h03.05.581,torte-q,2020.1.3,MacIntel,60,13363,0.407,,,,,,,,,,,,,,0,117,117,52,1,,,,,,,,,,,,,,,,,,,,,,,,,,
,,,,,,,,,,,,l,Correct!,,,,,,t4.png,t2.png,2,0.059078,19,female,2020-11-15_16h03.05.581,torte-q,2020.1.3,MacIntel,60,13363,0.304,,,,,,,,,,,,,,0,118,118,109,1,,,,,,,,,,,,,,,,,,,,,,,,,,
,,,,,,,,,,,,l,Incorrect,,,,,,t5.png,t5.png,0,0.97829,19,female,2020-11-15_16h03.05.581,torte-q,2020.1.3,MacIntel,60,13363,0.871,,,,,,,,,,,,,,0,119,119,70,1,,,,,,,,,,,,,,,,,,,,,,,,,,
,,,,,,,,,,,,,,,,,,,,,,,19,female,2020-11-15_16h03.05.581,torte-q,2020.1.3,MacIntel,60,13363,,l,1.971,,,,,,,,,,,,,,,,,4.0675,3.34,186,64,1,0,0,s3,232,27,1,0,0,t2,248,-108,1,0,0,proceed,space,1.295,space,0.304,space,0.303
