key_resp_8.keys,key_resp_8.rt,key_resp_9.keys,key_resp_9.rt,key_resp_10.keys,key_resp_10.rt,key_resp_11.keys,key_resp_11.rt,key_resp_2.keys,key_resp_2.rt,key_resp_3.keys,key_resp_3.rt,key_resp.keys,key_resp.rt,Feedback,train.thisRepN,train.thisTrialN,train.thisN,train.thisIndex,train.ran,torta_sx,torta_dx,difference,probability,age,gender,date,expName,psychopyVersion,OS,frameRate,participant,key_resp_15.keys,key_resp_15.rt,key_resp_6.keys,key_resp_6.rt,test1.thisRepN,test1.thisTrialN,test1.thisN,test1.thisIndex,test1.ran,key_resp_16.keys,key_resp_16.rt,key_resp_7.keys,key_resp_7.rt,test2.thisRepN,test2.thisTrialN,test2.thisN,test2.thisIndex,test2.ran,rating.response,rating.rt,mouse.x,mouse.y,mouse.leftButton,mouse.midButton,mouse.rightButton,mouse.clicked_name,mouse_2.x,mouse_2.y,mouse_2.leftButton,mouse_2.midButton,mouse_2.rightButton,mouse_2.clicked_name,mouse_3.x,mouse_3.y,mouse_3.leftButton,mouse_3.midButton,mouse_3.rightButton,mouse_3.clicked_name,key_resp_12.keys,key_resp_12.rt,key_resp_13.keys,key_resp_13.rt,key_resp_14.keys,key_resp_14.rt
space,18.36837,space,0.08158,space,0.833695,space,0.71815,h,10.62478,space,16.65801,a,1.90747,Correct!,0,0,0,45,1,t3.png,t2.png,1,0.90855,21,Female,2020-10-30_01h36.19.558,torte-q,2020.1.3,MacIntel,60,13375,,,,,,,,,,,,,,,,,,,,,,,,,,,,,,,,,,,,,,,,,,,,
,,,,,,,,,,,,a,1.3694,Incorrect,0,1,1,86,1,t3.png,t1.png,2,0.056466,21,Female,2020-10-30_01h36.19.558,torte-q,2020.1.3,MacIntel,60,13375,,,,,,,,,,,,,,,,,,,,,,,,,,,,,,,,,,,,,,,,,,,,
,,,,,,,,,,,,l,1.21769,Correct!,0,2,2,4,1,t1.png,t5.png,4,9.55E-11,21,Female,2020-10-30_01h36.19.558,torte-q,2020.1.3,MacIntel,60,13375,,,,,,,,,,,,,,,,,,,,,,,,,,,,,,,,,,,,,,,,,,,,
,,,,,,,,,,,,l,1.335475,Correct!,0,3,3,10,1,t2.png,t3.png,1,0.90855,21,Female,2020-10-30_01h36.19.558,torte-q,2020.1.3,MacIntel,60,13375,,,,,,,,,,,,,,,,,,,,,,,,,,,,,,,,,,,,,,,,,,,,
,,,,,,,,,,,,a,1.253515,Correct!,0,4,4,18,1,t4.png,t5.png,1,0.90025,21,Female,2020-10-30_01h36.19.558,torte-q,2020.1.3,MacIntel,60,13375,,,,,,,,,,,,,,,,,,,,,,,,,,,,,,,,,,,,,,,,,,,,
,,,,,,,,,,,,a,0.91867,Correct!,0,5,5,110,1,t4.png,t5.png,1,0.90025,21,Female,2020-10-30_01h36.19.558,torte-q,2020.1.3,MacIntel,60,13375,,,,,,,,,,,,,,,,,,,,,,,,,,,,,,,,,,,,,,,,,,,,
,,,,,,,,,,,,l,0.95313,Correct!,0,6,6,102,1,t4.png,t2.png,2,0.059078,21,Female,2020-10-30_01h36.19.558,torte-q,2020.1.3,MacIntel,60,13375,,,,,,,,,,,,,,,,,,,,,,,,,,,,,,,,,,,,,,,,,,,,
,,,,,,,,,,,,l,0.75158,Incorrect,0,7,7,66,1,t4.png,t5.png,1,0.9,21,Female,2020-10-30_01h36.19.558,torte-q,2020.1.3,MacIntel,60,13375,,,,,,,,,,,,,,,,,,,,,,,,,,,,,,,,,,,,,,,,,,,,
,,,,,,,,,,,,a,0.404135,Correct!,0,8,8,113,1,t5.png,t4.png,1,0.9,21,Female,2020-10-30_01h36.19.558,torte-q,2020.1.3,MacIntel,60,13375,,,,,,,,,,,,,,,,,,,,,,,,,,,,,,,,,,,,,,,,,,,,
,,,,,,,,,,,,a,1.065575,Incorrect,0,9,9,43,1,t4.png,t2.png,2,0.059078,21,Female,2020-10-30_01h36.19.558,torte-q,2020.1.3,MacIntel,60,13375,,,,,,,,,,,,,,,,,,,,,,,,,,,,,,,,,,,,,,,,,,,,
,,,,,,,,,,,,a,0.854535,Incorrect,0,10,10,67,1,t1.png,t5.png,4,9.55E-11,21,Female,2020-10-30_01h36.19.558,torte-q,2020.1.3,MacIntel,60,13375,,,,,,,,,,,,,,,,,,,,,,,,,,,,,,,,,,,,,,,,,,,,
,,,,,,,,,,,,a,1.26675,Correct!,0,11,11,59,1,t5.png,t4.png,1,0.9,21,Female,2020-10-30_01h36.19.558,torte-q,2020.1.3,MacIntel,60,13375,,,,,,,,,,,,,,,,,,,,,,,,,,,,,,,,,,,,,,,,,,,,
,,,,,,,,,,,,l,1.421215,Incorrect,0,12,12,95,1,t1.png,t1.png,0,0.978,21,Female,2020-10-30_01h36.19.558,torte-q,2020.1.3,MacIntel,60,13375,,,,,,,,,,,,,,,,,,,,,,,,,,,,,,,,,,,,,,,,,,,,
,,,,,,,,,,,,l,0.948085,Correct!,0,13,13,72,1,t4.png,t2.png,2,0.059078,21,Female,2020-10-30_01h36.19.558,torte-q,2020.1.3,MacIntel,60,13375,,,,,,,,,,,,,,,,,,,,,,,,,,,,,,,,,,,,,,,,,,,,
,,,,,,,,,,,,l,1.40073,Incorrect,0,14,14,28,1,t2.png,t3.png,1,0.909,21,Female,2020-10-30_01h36.19.558,torte-q,2020.1.3,MacIntel,60,13375,,,,,,,,,,,,,,,,,,,,,,,,,,,,,,,,,,,,,,,,,,,,
,,,,,,,,,,,,a,0.9166,Correct!,0,15,15,34,1,t5.png,t4.png,1,0.9,21,Female,2020-10-30_01h36.19.558,torte-q,2020.1.3,MacIntel,60,13375,,,,,,,,,,,,,,,,,,,,,,,,,,,,,,,,,,,,,,,,,,,,
,,,,,,,,,,,,a,0.684785,Correct!,0,16,16,23,1,t5.png,t4.png,1,0.90025,21,Female,2020-10-30_01h36.19.558,torte-q,2020.1.3,MacIntel,60,13375,,,,,,,,,,,,,,,,,,,,,,,,,,,,,,,,,,,,,,,,,,,,
,,,,,,,,,,,,l,0.601015,Incorrect,0,17,17,112,1,t1.png,t1.png,0,0.97829,21,Female,2020-10-30_01h36.19.558,torte-q,2020.1.3,MacIntel,60,13375,,,,,,,,,,,,,,,,,,,,,,,,,,,,,,,,,,,,,,,,,,,,
,,,,,,,,,,,,a,0.88559,Correct!,0,18,18,96,1,t1.png,t1.png,0,0.97829,21,Female,2020-10-30_01h36.19.558,torte-q,2020.1.3,MacIntel,60,13375,,,,,,,,,,,,,,,,,,,,,,,,,,,,,,,,,,,,,,,,,,,,
,,,,,,,,,,,,a,1.033635,Incorrect,0,19,19,46,1,t4.png,t2.png,2,0.059078,21,Female,2020-10-30_01h36.19.558,torte-q,2020.1.3,MacIntel,60,13375,,,,,,,,,,,,,,,,,,,,,,,,,,,,,,,,,,,,,,,,,,,,
,,,,,,,,,,,,l,0.620575,Correct!,0,20,20,27,1,t3.png,t1.png,2,0.0565,21,Female,2020-10-30_01h36.19.558,torte-q,2020.1.3,MacIntel,60,13375,,,,,,,,,,,,,,,,,,,,,,,,,,,,,,,,,,,,,,,,,,,,
,,,,,,,,,,,,a,1.0205,Correct!,0,21,21,75,1,t1.png,t1.png,0,0.97829,21,Female,2020-10-30_01h36.19.558,torte-q,2020.1.3,MacIntel,60,13375,,,,,,,,,,,,,,,,,,,,,,,,,,,,,,,,,,,,,,,,,,,,
,,,,,,,,,,,,l,0.43388,Correct!,0,22,22,56,1,t5.png,t1.png,4,9.55E-11,21,Female,2020-10-30_01h36.19.558,torte-q,2020.1.3,MacIntel,60,13375,,,,,,,,,,,,,,,,,,,,,,,,,,,,,,,,,,,,,,,,,,,,
,,,,,,,,,,,,a,0.601375,Incorrect,0,23,23,37,1,t1.png,t4.png,3,0.0000131,21,Female,2020-10-30_01h36.19.558,torte-q,2020.1.3,MacIntel,60,13375,,,,,,,,,,,,,,,,,,,,,,,,,,,,,,,,,,,,,,,,,,,,
,,,,,,,,,,,,l,0.31788,Correct!,0,24,24,83,1,t3.png,t1.png,2,0.056466,21,Female,2020-10-30_01h36.19.558,torte-q,2020.1.3,MacIntel,60,13375,,,,,,,,,,,,,,,,,,,,,,,,,,,,,,,,,,,,,,,,,,,,
,,,,,,,,,,,,a,0.736195,Incorrect,0,25,25,111,1,t5.png,t1.png,4,9.55E-11,21,Female,2020-10-30_01h36.19.558,torte-q,2020.1.3,MacIntel,60,13375,,,,,,,,,,,,,,,,,,,,,,,,,,,,,,,,,,,,,,,,,,,,
,,,,,,,,,,,,l,0.33367,Incorrect,0,26,26,100,1,t4.png,t5.png,1,0.90025,21,Female,2020-10-30_01h36.19.558,torte-q,2020.1.3,MacIntel,60,13375,,,,,,,,,,,,,,,,,,,,,,,,,,,,,,,,,,,,,,,,,,,,
,,,,,,,,,,,,a,0.36783,Correct!,0,27,27,81,1,t1.png,t1.png,0,0.97829,21,Female,2020-10-30_01h36.19.558,torte-q,2020.1.3,MacIntel,60,13375,,,,,,,,,,,,,,,,,,,,,,,,,,,,,,,,,,,,,,,,,,,,
,,,,,,,,,,,,a,0.68218,Incorrect,0,28,28,91,1,t1.png,t4.png,3,0.0000131,21,Female,2020-10-30_01h36.19.558,torte-q,2020.1.3,MacIntel,60,13375,,,,,,,,,,,,,,,,,,,,,,,,,,,,,,,,,,,,,,,,,,,,
,,,,,,,,,,,,l,0.350935,Correct!,0,29,29,94,1,t5.png,t1.png,4,9.55E-11,21,Female,2020-10-30_01h36.19.558,torte-q,2020.1.3,MacIntel,60,13375,,,,,,,,,,,,,,,,,,,,,,,,,,,,,,,,,,,,,,,,,,,,
,,,,,,,,,,,,l,0.36888,Correct!,0,30,30,90,1,t1.png,t5.png,4,9.55E-11,21,Female,2020-10-30_01h36.19.558,torte-q,2020.1.3,MacIntel,60,13375,,,,,,,,,,,,,,,,,,,,,,,,,,,,,,,,,,,,,,,,,,,,
,,,,,,,,,,,,l,0.38442,Incorrect,0,31,31,64,1,t1.png,t1.png,0,0.978,21,Female,2020-10-30_01h36.19.558,torte-q,2020.1.3,MacIntel,60,13375,,,,,,,,,,,,,,,,,,,,,,,,,,,,,,,,,,,,,,,,,,,,
,,,,,,,,,,,,a,0.633195,Incorrect,0,32,32,33,1,t5.png,t1.png,4,9.55E-11,21,Female,2020-10-30_01h36.19.558,torte-q,2020.1.3,MacIntel,60,13375,,,,,,,,,,,,,,,,,,,,,,,,,,,,,,,,,,,,,,,,,,,,
,,,,,,,,,,,,l,0.199045,Correct!,0,33,33,89,1,t1.png,t4.png,3,0.0000131,21,Female,2020-10-30_01h36.19.558,torte-q,2020.1.3,MacIntel,60,13375,,,,,,,,,,,,,,,,,,,,,,,,,,,,,,,,,,,,,,,,,,,,
,,,,,,,,,,,,l,0.38435,Incorrect,0,34,34,65,1,t4.png,t5.png,1,0.90025,21,Female,2020-10-30_01h36.19.558,torte-q,2020.1.3,MacIntel,60,13375,,,,,,,,,,,,,,,,,,,,,,,,,,,,,,,,,,,,,,,,,,,,
,,,,,,,,,,,,a,0.42197,Incorrect,0,35,35,116,1,t5.png,t4.png,1,0.90025,21,Female,2020-10-30_01h36.19.558,torte-q,2020.1.3,MacIntel,60,13375,,,,,,,,,,,,,,,,,,,,,,,,,,,,,,,,,,,,,,,,,,,,
,,,,,,,,,,,,l,0.360245,Correct!,0,36,36,52,1,t2.png,t4.png,2,0.059078,21,Female,2020-10-30_01h36.19.558,torte-q,2020.1.3,MacIntel,60,13375,,,,,,,,,,,,,,,,,,,,,,,,,,,,,,,,,,,,,,,,,,,,
,,,,,,,,,,,,l,1.23575,Correct!,0,37,37,73,1,t4.png,t2.png,2,0.059078,21,Female,2020-10-30_01h36.19.558,torte-q,2020.1.3,MacIntel,60,13375,,,,,,,,,,,,,,,,,,,,,,,,,,,,,,,,,,,,,,,,,,,,
,,,,,,,,,,,,l,0.719315,Incorrect,0,38,38,78,1,t1.png,t1.png,0,0.978,21,Female,2020-10-30_01h36.19.558,torte-q,2020.1.3,MacIntel,60,13375,,,,,,,,,,,,,,,,,,,,,,,,,,,,,,,,,,,,,,,,,,,,
,,,,,,,,,,,,a,0.565565,Correct!,0,39,39,77,1,t1.png,t1.png,0,0.97829,21,Female,2020-10-30_01h36.19.558,torte-q,2020.1.3,MacIntel,60,13375,,,,,,,,,,,,,,,,,,,,,,,,,,,,,,,,,,,,,,,,,,,,
,,,,,,,,,,,,l,1.20151,Correct!,0,40,40,5,1,t2.png,t4.png,2,0.059078,21,Female,2020-10-30_01h36.19.558,torte-q,2020.1.3,MacIntel,60,13375,,,,,,,,,,,,,,,,,,,,,,,,,,,,,,,,,,,,,,,,,,,,
,,,,,,,,,,,,a,1.187705,Correct!,0,41,41,76,1,t3.png,t2.png,1,0.90855,21,Female,2020-10-30_01h36.19.558,torte-q,2020.1.3,MacIntel,60,13375,,,,,,,,,,,,,,,,,,,,,,,,,,,,,,,,,,,,,,,,,,,,
,,,,,,,,,,,,l,1.30322,Incorrect,0,42,42,71,1,t5.png,t5.png,0,0.97829,21,Female,2020-10-30_01h36.19.558,torte-q,2020.1.3,MacIntel,60,13375,,,,,,,,,,,,,,,,,,,,,,,,,,,,,,,,,,,,,,,,,,,,
,,,,,,,,,,,,,,Too slow :(,0,43,43,9,1,t4.png,t5.png,1,0.9,21,Female,2020-10-30_01h36.19.558,torte-q,2020.1.3,MacIntel,60,13375,,,,,,,,,,,,,,,,,,,,,,,,,,,,,,,,,,,,,,,,,,,,
,,,,,,,,,,,,a,0.95115,Incorrect,0,44,44,82,1,t5.png,t1.png,4,9.55E-11,21,Female,2020-10-30_01h36.19.558,torte-q,2020.1.3,MacIntel,60,13375,,,,,,,,,,,,,,,,,,,,,,,,,,,,,,,,,,,,,,,,,,,,
,,,,,,,,,,,,l,0.18641,Incorrect,0,45,45,42,1,t5.png,t4.png,1,0.90025,21,Female,2020-10-30_01h36.19.558,torte-q,2020.1.3,MacIntel,60,13375,,,,,,,,,,,,,,,,,,,,,,,,,,,,,,,,,,,,,,,,,,,,
,,,,,,,,,,,,l,0.13337,Incorrect,0,46,46,29,1,t5.png,t5.png,0,0.97829,21,Female,2020-10-30_01h36.19.558,torte-q,2020.1.3,MacIntel,60,13375,,,,,,,,,,,,,,,,,,,,,,,,,,,,,,,,,,,,,,,,,,,,
,,,,,,,,,,,,a,0.25369,Incorrect,0,47,47,115,1,t2.png,t4.png,2,0.059078,21,Female,2020-10-30_01h36.19.558,torte-q,2020.1.3,MacIntel,60,13375,,,,,,,,,,,,,,,,,,,,,,,,,,,,,,,,,,,,,,,,,,,,
,,,,,,,,,,,,l,0.288065,Incorrect,0,48,48,109,1,t5.png,t5.png,0,0.97829,21,Female,2020-10-30_01h36.19.558,torte-q,2020.1.3,MacIntel,60,13375,,,,,,,,,,,,,,,,,,,,,,,,,,,,,,,,,,,,,,,,,,,,
,,,,,,,,,,,,a,0.25497,Correct!,0,49,49,38,1,t3.png,t1.png,2,0.056466,21,Female,2020-10-30_01h36.19.558,torte-q,2020.1.3,MacIntel,60,13375,,,,,,,,,,,,,,,,,,,,,,,,,,,,,,,,,,,,,,,,,,,,
,,,,,,,,,,,,l,0.23102,Correct!,0,50,50,21,1,t5.png,t4.png,1,0.90025,21,Female,2020-10-30_01h36.19.558,torte-q,2020.1.3,MacIntel,60,13375,,,,,,,,,,,,,,,,,,,,,,,,,,,,,,,,,,,,,,,,,,,,
,,,,,,,,,,,,l,0.20137,Correct!,0,51,51,103,1,t3.png,t1.png,2,0.056466,21,Female,2020-10-30_01h36.19.558,torte-q,2020.1.3,MacIntel,60,13375,,,,,,,,,,,,,,,,,,,,,,,,,,,,,,,,,,,,,,,,,,,,
,,,,,,,,,,,,l,0.319945,Incorrect,0,52,52,105,1,t3.png,t2.png,1,0.90855,21,Female,2020-10-30_01h36.19.558,torte-q,2020.1.3,MacIntel,60,13375,,,,,,,,,,,,,,,,,,,,,,,,,,,,,,,,,,,,,,,,,,,,
,,,,,,,,,,,,l,0.22051,Correct!,0,53,53,53,1,t3.png,t1.png,2,0.056466,21,Female,2020-10-30_01h36.19.558,torte-q,2020.1.3,MacIntel,60,13375,,,,,,,,,,,,,,,,,,,,,,,,,,,,,,,,,,,,,,,,,,,,
,,,,,,,,,,,,l,0.15389,Correct!,0,54,54,68,1,t1.png,t4.png,3,0.0000131,21,Female,2020-10-30_01h36.19.558,torte-q,2020.1.3,MacIntel,60,13375,,,,,,,,,,,,,,,,,,,,,,,,,,,,,,,,,,,,,,,,,,,,
,,,,,,,,,,,,a,0.169885,Correct!,0,55,55,39,1,t3.png,t2.png,1,0.90855,21,Female,2020-10-30_01h36.19.558,torte-q,2020.1.3,MacIntel,60,13375,,,,,,,,,,,,,,,,,,,,,,,,,,,,,,,,,,,,,,,,,,,,
,,,,,,,,,,,,l,0.333745,Correct!,0,56,56,69,1,t4.png,t2.png,2,0.059078,21,Female,2020-10-30_01h36.19.558,torte-q,2020.1.3,MacIntel,60,13375,,,,,,,,,,,,,,,,,,,,,,,,,,,,,,,,,,,,,,,,,,,,
,,,,,,,,,,,,a,0.351915,Correct!,0,57,57,22,1,t2.png,t3.png,1,0.90855,21,Female,2020-10-30_01h36.19.558,torte-q,2020.1.3,MacIntel,60,13375,,,,,,,,,,,,,,,,,,,,,,,,,,,,,,,,,,,,,,,,,,,,
,,,,,,,,,,,,l,0.03358,Correct!,0,58,58,30,1,t3.png,t1.png,2,0.056466,21,Female,2020-10-30_01h36.19.558,torte-q,2020.1.3,MacIntel,60,13375,,,,,,,,,,,,,,,,,,,,,,,,,,,,,,,,,,,,,,,,,,,,
,,,,,,,,,,,,a,0.602785,Incorrect,0,59,59,35,1,t1.png,t4.png,3,0.0000131,21,Female,2020-10-30_01h36.19.558,torte-q,2020.1.3,MacIntel,60,13375,,,,,,,,,,,,,,,,,,,,,,,,,,,,,,,,,,,,,,,,,,,,
,,,,,,,,,,,,l,0.21841,Correct!,0,60,60,40,1,t1.png,t5.png,4,9.55E-11,21,Female,2020-10-30_01h36.19.558,torte-q,2020.1.3,MacIntel,60,13375,,,,,,,,,,,,,,,,,,,,,,,,,,,,,,,,,,,,,,,,,,,,
,,,,,,,,,,,,l,0.100805,Incorrect,0,61,61,74,1,t5.png,t4.png,1,0.9,21,Female,2020-10-30_01h36.19.558,torte-q,2020.1.3,MacIntel,60,13375,,,,,,,,,,,,,,,,,,,,,,,,,,,,,,,,,,,,,,,,,,,,
,,,,,,,,,,,,l,0.04988,Incorrect,0,62,62,85,1,t3.png,t2.png,1,0.90855,21,Female,2020-10-30_01h36.19.558,torte-q,2020.1.3,MacIntel,60,13375,,,,,,,,,,,,,,,,,,,,,,,,,,,,,,,,,,,,,,,,,,,,
,,,,,,,,,,,,l,0.101275,Correct!,0,63,63,24,1,t4.png,t2.png,2,0.059078,21,Female,2020-10-30_01h36.19.558,torte-q,2020.1.3,MacIntel,60,13375,,,,,,,,,,,,,,,,,,,,,,,,,,,,,,,,,,,,,,,,,,,,
,,,,,,,,,,,,l,0.50473,Correct!,0,64,64,2,1,t3.png,t2.png,1,0.90855,21,Female,2020-10-30_01h36.19.558,torte-q,2020.1.3,MacIntel,60,13375,,,,,,,,,,,,,,,,,,,,,,,,,,,,,,,,,,,,,,,,,,,,
,,,,,,,,,,,,l,0.36776,Incorrect,0,65,65,7,1,t4.png,t5.png,1,0.90025,21,Female,2020-10-30_01h36.19.558,torte-q,2020.1.3,MacIntel,60,13375,,,,,,,,,,,,,,,,,,,,,,,,,,,,,,,,,,,,,,,,,,,,
,,,,,,,,,,,,a,0.38332,Correct!,0,66,66,79,1,t3.png,t2.png,1,0.909,21,Female,2020-10-30_01h36.19.558,torte-q,2020.1.3,MacIntel,60,13375,,,,,,,,,,,,,,,,,,,,,,,,,,,,,,,,,,,,,,,,,,,,
,,,,,,,,,,,,l,0.42045,Incorrect,0,67,67,48,1,t5.png,t5.png,0,0.97829,21,Female,2020-10-30_01h36.19.558,torte-q,2020.1.3,MacIntel,60,13375,,,,,,,,,,,,,,,,,,,,,,,,,,,,,,,,,,,,,,,,,,,,
,,,,,,,,,,,,a,0.301935,Correct!,0,68,68,107,1,t1.png,t1.png,0,0.978,21,Female,2020-10-30_01h36.19.558,torte-q,2020.1.3,MacIntel,60,13375,,,,,,,,,,,,,,,,,,,,,,,,,,,,,,,,,,,,,,,,,,,,
,,,,,,,,,,,,l,0.317225,Correct!,0,69,69,51,1,t3.png,t1.png,2,0.056466,21,Female,2020-10-30_01h36.19.558,torte-q,2020.1.3,MacIntel,60,13375,,,,,,,,,,,,,,,,,,,,,,,,,,,,,,,,,,,,,,,,,,,,
,,,,,,,,,,,,a,0.43212,Correct!,0,70,70,20,1,t2.png,t3.png,1,0.90855,21,Female,2020-10-30_01h36.19.558,torte-q,2020.1.3,MacIntel,60,13375,,,,,,,,,,,,,,,,,,,,,,,,,,,,,,,,,,,,,,,,,,,,
,,,,,,,,,,,,l,0.000725,Correct!,0,71,71,54,1,t1.png,t5.png,4,9.55E-11,21,Female,2020-10-30_01h36.19.558,torte-q,2020.1.3,MacIntel,60,13375,,,,,,,,,,,,,,,,,,,,,,,,,,,,,,,,,,,,,,,,,,,,
,,,,,,,,,,,,a,0.52253,Correct!,0,72,72,101,1,t4.png,t5.png,1,0.90025,21,Female,2020-10-30_01h36.19.558,torte-q,2020.1.3,MacIntel,60,13375,,,,,,,,,,,,,,,,,,,,,,,,,,,,,,,,,,,,,,,,,,,,
,,,,,,,,,,,,l,0.366705,Correct!,0,73,73,0,1,t5.png,t1.png,4,9.55E-11,21,Female,2020-10-30_01h36.19.558,torte-q,2020.1.3,MacIntel,60,13375,,,,,,,,,,,,,,,,,,,,,,,,,,,,,,,,,,,,,,,,,,,,
,,,,,,,,,,,,a,0.651105,Incorrect,0,74,74,57,1,t2.png,t4.png,2,0.059078,21,Female,2020-10-30_01h36.19.558,torte-q,2020.1.3,MacIntel,60,13375,,,,,,,,,,,,,,,,,,,,,,,,,,,,,,,,,,,,,,,,,,,,
,,,,,,,,,,,,l,0.35084,Incorrect,0,75,75,41,1,t3.png,t2.png,1,0.90855,21,Female,2020-10-30_01h36.19.558,torte-q,2020.1.3,MacIntel,60,13375,,,,,,,,,,,,,,,,,,,,,,,,,,,,,,,,,,,,,,,,,,,,
,,,,,,,,,,,,a,0.584265,Correct!,0,76,76,25,1,t5.png,t5.png,0,0.97829,21,Female,2020-10-30_01h36.19.558,torte-q,2020.1.3,MacIntel,60,13375,,,,,,,,,,,,,,,,,,,,,,,,,,,,,,,,,,,,,,,,,,,,
,,,,,,,,,,,,l,0.687085,Correct!,0,77,77,12,1,t5.png,t1.png,4,9.55E-11,21,Female,2020-10-30_01h36.19.558,torte-q,2020.1.3,MacIntel,60,13375,,,,,,,,,,,,,,,,,,,,,,,,,,,,,,,,,,,,,,,,,,,,
,,,,,,,,,,,,a,0.28909,Incorrect,0,78,78,88,1,t3.png,t1.png,2,0.056466,21,Female,2020-10-30_01h36.19.558,torte-q,2020.1.3,MacIntel,60,13375,,,,,,,,,,,,,,,,,,,,,,,,,,,,,,,,,,,,,,,,,,,,
,,,,,,,,,,,,l,0.333245,Incorrect,0,79,79,92,1,t2.png,t3.png,1,0.909,21,Female,2020-10-30_01h36.19.558,torte-q,2020.1.3,MacIntel,60,13375,,,,,,,,,,,,,,,,,,,,,,,,,,,,,,,,,,,,,,,,,,,,
,,,,,,,,,,,,a,0.302485,Correct!,0,80,80,44,1,t2.png,t3.png,1,0.909,21,Female,2020-10-30_01h36.19.558,torte-q,2020.1.3,MacIntel,60,13375,,,,,,,,,,,,,,,,,,,,,,,,,,,,,,,,,,,,,,,,,,,,
,,,,,,,,,,,,l,0.3164,Correct!,0,81,81,119,1,t1.png,t5.png,4,9.55E-11,21,Female,2020-10-30_01h36.19.558,torte-q,2020.1.3,MacIntel,60,13375,,,,,,,,,,,,,,,,,,,,,,,,,,,,,,,,,,,,,,,,,,,,
,,,,,,,,,,,,a,0.21515,Correct!,0,82,82,114,1,t2.png,t3.png,1,0.90855,21,Female,2020-10-30_01h36.19.558,torte-q,2020.1.3,MacIntel,60,13375,,,,,,,,,,,,,,,,,,,,,,,,,,,,,,,,,,,,,,,,,,,,
,,,,,,,,,,,,l,0.3008,Correct!,0,83,83,11,1,t1.png,t4.png,3,0.0000131,21,Female,2020-10-30_01h36.19.558,torte-q,2020.1.3,MacIntel,60,13375,,,,,,,,,,,,,,,,,,,,,,,,,,,,,,,,,,,,,,,,,,,,
,,,,,,,,,,,,l,0.532615,Correct!,0,84,84,17,1,t1.png,t4.png,3,0.0000131,21,Female,2020-10-30_01h36.19.558,torte-q,2020.1.3,MacIntel,60,13375,,,,,,,,,,,,,,,,,,,,,,,,,,,,,,,,,,,,,,,,,,,,
,,,,,,,,,,,,a,0.650485,Incorrect,0,85,85,47,1,t4.png,t2.png,2,0.059078,21,Female,2020-10-30_01h36.19.558,torte-q,2020.1.3,MacIntel,60,13375,,,,,,,,,,,,,,,,,,,,,,,,,,,,,,,,,,,,,,,,,,,,
,,,,,,,,,,,,l,0.467155,Incorrect,0,86,86,16,1,t5.png,t4.png,1,0.9,21,Female,2020-10-30_01h36.19.558,torte-q,2020.1.3,MacIntel,60,13375,,,,,,,,,,,,,,,,,,,,,,,,,,,,,,,,,,,,,,,,,,,,
,,,,,,,,,,,,a,0.801275,Incorrect,0,87,87,19,1,t4.png,t2.png,2,0.059078,21,Female,2020-10-30_01h36.19.558,torte-q,2020.1.3,MacIntel,60,13375,,,,,,,,,,,,,,,,,,,,,,,,,,,,,,,,,,,,,,,,,,,,
,,,,,,,,,,,,l,0.466735,Correct!,0,88,88,31,1,t1.png,t5.png,4,9.55E-11,21,Female,2020-10-30_01h36.19.558,torte-q,2020.1.3,MacIntel,60,13375,,,,,,,,,,,,,,,,,,,,,,,,,,,,,,,,,,,,,,,,,,,,
,,,,,,,,,,,,l,0.951375,Incorrect,0,89,89,13,1,t5.png,t5.png,0,0.97829,21,Female,2020-10-30_01h36.19.558,torte-q,2020.1.3,MacIntel,60,13375,,,,,,,,,,,,,,,,,,,,,,,,,,,,,,,,,,,,,,,,,,,,
,,,,,,,,,,,,a,0.68521,Correct!,0,90,90,32,1,t4.png,t5.png,1,0.90025,21,Female,2020-10-30_01h36.19.558,torte-q,2020.1.3,MacIntel,60,13375,,,,,,,,,,,,,,,,,,,,,,,,,,,,,,,,,,,,,,,,,,,,
,,,,,,,,,,,,a,0.788395,Correct!,0,91,91,97,1,t5.png,t5.png,0,0.97829,21,Female,2020-10-30_01h36.19.558,torte-q,2020.1.3,MacIntel,60,13375,,,,,,,,,,,,,,,,,,,,,,,,,,,,,,,,,,,,,,,,,,,,
,,,,,,,,,,,,a,0.55178,Incorrect,0,92,92,50,1,t5.png,t1.png,4,9.55E-11,21,Female,2020-10-30_01h36.19.558,torte-q,2020.1.3,MacIntel,60,13375,,,,,,,,,,,,,,,,,,,,,,,,,,,,,,,,,,,,,,,,,,,,
,,,,,,,,,,,,l,0.98381,Incorrect,0,93,93,118,1,t5.png,t5.png,0,0.978,21,Female,2020-10-30_01h36.19.558,torte-q,2020.1.3,MacIntel,60,13375,,,,,,,,,,,,,,,,,,,,,,,,,,,,,,,,,,,,,,,,,,,,
,,,,,,,,,,,,a,0.702105,Incorrect,0,94,94,98,1,t2.png,t4.png,2,0.0591,21,Female,2020-10-30_01h36.19.558,torte-q,2020.1.3,MacIntel,60,13375,,,,,,,,,,,,,,,,,,,,,,,,,,,,,,,,,,,,,,,,,,,,
,,,,,,,,,,,,,,Too slow :(,0,95,95,117,1,t1.png,t5.png,4,9.55E-11,21,Female,2020-10-30_01h36.19.558,torte-q,2020.1.3,MacIntel,60,13375,,,,,,,,,,,,,,,,,,,,,,,,,,,,,,,,,,,,,,,,,,,,
,,,,,,,,,,,,a,1.315805,Incorrect,0,96,96,14,1,t2.png,t4.png,2,0.059078,21,Female,2020-10-30_01h36.19.558,torte-q,2020.1.3,MacIntel,60,13375,,,,,,,,,,,,,,,,,,,,,,,,,,,,,,,,,,,,,,,,,,,,
,,,,,,,,,,,,l,0.000805,Correct!,0,97,97,108,1,t5.png,t1.png,4,9.55E-11,21,Female,2020-10-30_01h36.19.558,torte-q,2020.1.3,MacIntel,60,13375,,,,,,,,,,,,,,,,,,,,,,,,,,,,,,,,,,,,,,,,,,,,
,,,,,,,,,,,,a,0.533055,Incorrect,0,98,98,60,1,t2.png,t4.png,2,0.059078,21,Female,2020-10-30_01h36.19.558,torte-q,2020.1.3,MacIntel,60,13375,,,,,,,,,,,,,,,,,,,,,,,,,,,,,,,,,,,,,,,,,,,,
,,,,,,,,,,,,,,Too slow :(,0,99,99,8,1,t3.png,t2.png,1,0.90855,21,Female,2020-10-30_01h36.19.558,torte-q,2020.1.3,MacIntel,60,13375,,,,,,,,,,,,,,,,,,,,,,,,,,,,,,,,,,,,,,,,,,,,
,,,,,,,,,,,,a,2.250175,Correct!,0,100,100,63,1,t2.png,t3.png,1,0.909,21,Female,2020-10-30_01h36.19.558,torte-q,2020.1.3,MacIntel,60,13375,,,,,,,,,,,,,,,,,,,,,,,,,,,,,,,,,,,,,,,,,,,,
,,,,,,,,,,,,a,1.087005,Incorrect,0,101,101,61,1,t1.png,t4.png,3,0.0000131,21,Female,2020-10-30_01h36.19.558,torte-q,2020.1.3,MacIntel,60,13375,,,,,,,,,,,,,,,,,,,,,,,,,,,,,,,,,,,,,,,,,,,,
,,,,,,,,,,,,l,0.867025,Correct!,0,102,102,55,1,t2.png,t4.png,2,0.059078,21,Female,2020-10-30_01h36.19.558,torte-q,2020.1.3,MacIntel,60,13375,,,,,,,,,,,,,,,,,,,,,,,,,,,,,,,,,,,,,,,,,,,,
,,,,,,,,,,,,l,0.98385,Correct!,0,103,103,3,1,t1.png,t5.png,4,9.55E-11,21,Female,2020-10-30_01h36.19.558,torte-q,2020.1.3,MacIntel,60,13375,,,,,,,,,,,,,,,,,,,,,,,,,,,,,,,,,,,,,,,,,,,,
,,,,,,,,,,,,a,1.051115,Correct!,0,104,104,104,1,t2.png,t3.png,1,0.90855,21,Female,2020-10-30_01h36.19.558,torte-q,2020.1.3,MacIntel,60,13375,,,,,,,,,,,,,,,,,,,,,,,,,,,,,,,,,,,,,,,,,,,,
,,,,,,,,,,,,l,1.45105,Correct!,0,105,105,93,1,t2.png,t4.png,2,0.059078,21,Female,2020-10-30_01h36.19.558,torte-q,2020.1.3,MacIntel,60,13375,,,,,,,,,,,,,,,,,,,,,,,,,,,,,,,,,,,,,,,,,,,,
,,,,,,,,,,,,a,0.96695,Correct!,0,106,106,15,1,t3.png,t2.png,1,0.90855,21,Female,2020-10-30_01h36.19.558,torte-q,2020.1.3,MacIntel,60,13375,,,,,,,,,,,,,,,,,,,,,,,,,,,,,,,,,,,,,,,,,,,,
,,,,,,,,,,,,l,0.53265,Correct!,0,107,107,26,1,t4.png,t2.png,2,0.0591,21,Female,2020-10-30_01h36.19.558,torte-q,2020.1.3,MacIntel,60,13375,,,,,,,,,,,,,,,,,,,,,,,,,,,,,,,,,,,,,,,,,,,,
,,,,,,,,,,,,a,0.867445,Correct!,0,108,108,58,1,t5.png,t4.png,1,0.90025,21,Female,2020-10-30_01h36.19.558,torte-q,2020.1.3,MacIntel,60,13375,,,,,,,,,,,,,,,,,,,,,,,,,,,,,,,,,,,,,,,,,,,,
,,,,,,,,,,,,l,0.48348,Incorrect,0,109,109,106,1,t2.png,t3.png,1,0.90855,21,Female,2020-10-30_01h36.19.558,torte-q,2020.1.3,MacIntel,60,13375,,,,,,,,,,,,,,,,,,,,,,,,,,,,,,,,,,,,,,,,,,,,
,,,,,,,,,,,,a,0.70176,Incorrect,0,110,110,6,1,t1.png,t4.png,3,0.0000131,21,Female,2020-10-30_01h36.19.558,torte-q,2020.1.3,MacIntel,60,13375,,,,,,,,,,,,,,,,,,,,,,,,,,,,,,,,,,,,,,,,,,,,
,,,,,,,,,,,,l,0.651175,Correct!,0,111,111,36,1,t3.png,t1.png,2,0.0565,21,Female,2020-10-30_01h36.19.558,torte-q,2020.1.3,MacIntel,60,13375,,,,,,,,,,,,,,,,,,,,,,,,,,,,,,,,,,,,,,,,,,,,
,,,,,,,,,,,,l,0.652875,Incorrect,0,112,112,49,1,t4.png,t5.png,1,0.9,21,Female,2020-10-30_01h36.19.558,torte-q,2020.1.3,MacIntel,60,13375,,,,,,,,,,,,,,,,,,,,,,,,,,,,,,,,,,,,,,,,,,,,
,,,,,,,,,,,,a,0.371345,Incorrect,0,113,113,80,1,t1.png,t4.png,3,0.0000131,21,Female,2020-10-30_01h36.19.558,torte-q,2020.1.3,MacIntel,60,13375,,,,,,,,,,,,,,,,,,,,,,,,,,,,,,,,,,,,,,,,,,,,
,,,,,,,,,,,,l,0.382705,Correct!,0,114,114,87,1,t5.png,t1.png,4,9.55E-11,21,Female,2020-10-30_01h36.19.558,torte-q,2020.1.3,MacIntel,60,13375,,,,,,,,,,,,,,,,,,,,,,,,,,,,,,,,,,,,,,,,,,,,
,,,,,,,,,,,,l,0.63448,Incorrect,0,115,115,84,1,t1.png,t1.png,0,0.97829,21,Female,2020-10-30_01h36.19.558,torte-q,2020.1.3,MacIntel,60,13375,,,,,,,,,,,,,,,,,,,,,,,,,,,,,,,,,,,,,,,,,,,,
,,,,,,,,,,,,l,0.371145,Correct!,0,116,116,99,1,t1.png,t5.png,4,9.55E-11,21,Female,2020-10-30_01h36.19.558,torte-q,2020.1.3,MacIntel,60,13375,,,,,,,,,,,,,,,,,,,,,,,,,,,,,,,,,,,,,,,,,,,,
,,,,,,,,,,,,l,0.40076,Incorrect,0,117,117,1,1,t2.png,t4.png,2,0.059078,21,Female,2020-10-30_01h36.19.558,torte-q,2020.1.3,MacIntel,60,13375,,,,,,,,,,,,,,,,,,,,,,,,,,,,,,,,,,,,,,,,,,,,
,,,,,,,,,,,,a,1.06854,Correct!,0,118,118,70,1,t5.png,t5.png,0,0.978,21,Female,2020-10-30_01h36.19.558,torte-q,2020.1.3,MacIntel,60,13375,,,,,,,,,,,,,,,,,,,,,,,,,,,,,,,,,,,,,,,,,,,,
,,,,,,,,,,,,l,0.450005,Incorrect,0,119,119,62,1,t5.png,t5.png,0,0.978,21,Female,2020-10-30_01h36.19.558,torte-q,2020.1.3,MacIntel,60,13375,,,,,,,,,,,,,,,,,,,,,,,,,,,,,,,,,,,,,,,,,,,,
,,,,,,,,,,,,a,2.003795,Incorrect,,,,,,t4.png,t1.png,3,0.0000131,21,Female,2020-10-30_01h36.19.558,torte-q,2020.1.3,MacIntel,60,13375,space,2.133805,space,17.084735,0,0,0,61,1,,,,,,,,,,,,,,,,,,,,,,,,,,,,,,,,,,,
,,,,,,,,,,,,l,0.390455,Correct!,,,,,,t5.png,t2.png,3,0.0000131,21,Female,2020-10-30_01h36.19.558,torte-q,2020.1.3,MacIntel,60,13375,,,,,0,1,1,116,1,,,,,,,,,,,,,,,,,,,,,,,,,,,,,,,,,,,
,,,,,,,,,,,,a,0.666805,Correct!,,,,,,t4.png,t4.png,0,0.98115,21,Female,2020-10-30_01h36.19.558,torte-q,2020.1.3,MacIntel,60,13375,,,,,0,2,2,79,1,,,,,,,,,,,,,,,,,,,,,,,,,,,,,,,,,,,
,,,,,,,,,,,,l,0.285865,Incorrect,,,,,,t2.png,t4.png,2,0.059078,21,Female,2020-10-30_01h36.19.558,torte-q,2020.1.3,MacIntel,60,13375,,,,,0,3,3,77,1,,,,,,,,,,,,,,,,,,,,,,,,,,,,,,,,,,,
,,,,,,,,,,,,l,0.371285,Correct!,,,,,,t5.png,t3.png,2,0.056466,21,Female,2020-10-30_01h36.19.558,torte-q,2020.1.3,MacIntel,60,13375,,,,,0,4,4,108,1,,,,,,,,,,,,,,,,,,,,,,,,,,,,,,,,,,,
,,,,,,,,,,,,a,0.34625,Correct!,,,,,,t5.png,t5.png,0,0.97829,21,Female,2020-10-30_01h36.19.558,torte-q,2020.1.3,MacIntel,60,13375,,,,,0,5,5,25,1,,,,,,,,,,,,,,,,,,,,,,,,,,,,,,,,,,,
,,,,,,,,,,,,l,0.33312,Correct!,,,,,,t5.png,t2.png,3,0.0000131,21,Female,2020-10-30_01h36.19.558,torte-q,2020.1.3,MacIntel,60,13375,,,,,0,6,6,91,1,,,,,,,,,,,,,,,,,,,,,,,,,,,,,,,,,,,
,,,,,,,,,,,,l,0.769855,Correct!,,,,,,t2.png,t4.png,2,0.059078,21,Female,2020-10-30_01h36.19.558,torte-q,2020.1.3,MacIntel,60,13375,,,,,0,7,7,24,1,,,,,,,,,,,,,,,,,,,,,,,,,,,,,,,,,,,
,,,,,,,,,,,,a,0.265935,Correct!,,,,,,t4.png,t3.png,1,0.909,21,Female,2020-10-30_01h36.19.558,torte-q,2020.1.3,MacIntel,60,13375,,,,,0,8,8,20,1,,,,,,,,,,,,,,,,,,,,,,,,,,,,,,,,,,,
,,,,,,,,,,,,l,0.27242,Correct!,,,,,,t1.png,t5.png,4,9.55E-11,21,Female,2020-10-30_01h36.19.558,torte-q,2020.1.3,MacIntel,60,13375,,,,,0,9,9,41,1,,,,,,,,,,,,,,,,,,,,,,,,,,,,,,,,,,,
,,,,,,,,,,,,a,0.300805,Correct!,,,,,,t2.png,t1.png,1,0.90025,21,Female,2020-10-30_01h36.19.558,torte-q,2020.1.3,MacIntel,60,13375,,,,,0,10,10,5,1,,,,,,,,,,,,,,,,,,,,,,,,,,,,,,,,,,,
,,,,,,,,,,,,l,0.31881,Incorrect,,,,,,t4.png,t4.png,0,0.98115,21,Female,2020-10-30_01h36.19.558,torte-q,2020.1.3,MacIntel,60,13375,,,,,0,11,11,80,1,,,,,,,,,,,,,,,,,,,,,,,,,,,,,,,,,,,
,,,,,,,,,,,,l,0.534705,Correct!,,,,,,t3.png,t2.png,1,0.90855,21,Female,2020-10-30_01h36.19.558,torte-q,2020.1.3,MacIntel,60,13375,,,,,0,12,12,18,1,,,,,,,,,,,,,,,,,,,,,,,,,,,,,,,,,,,
,,,,,,,,,,,,a,0.48866,Incorrect,,,,,,t1.png,t3.png,2,0.056466,21,Female,2020-10-30_01h36.19.558,torte-q,2020.1.3,MacIntel,60,13375,,,,,0,13,13,87,1,,,,,,,,,,,,,,,,,,,,,,,,,,,,,,,,,,,
,,,,,,,,,,,,l,0.28393,Correct!,,,,,,t3.png,t1.png,2,0.056466,21,Female,2020-10-30_01h36.19.558,torte-q,2020.1.3,MacIntel,60,13375,,,,,0,14,14,0,1,,,,,,,,,,,,,,,,,,,,,,,,,,,,,,,,,,,
,,,,,,,,,,,,a,0.403785,Incorrect,,,,,,t1.png,t4.png,3,0.0000131,21,Female,2020-10-30_01h36.19.558,torte-q,2020.1.3,MacIntel,60,13375,,,,,0,15,15,50,1,,,,,,,,,,,,,,,,,,,,,,,,,,,,,,,,,,,
,,,,,,,,,,,,l,0.29885,Incorrect,,,,,,t2.png,t2.png,0,0.98115,21,Female,2020-10-30_01h36.19.558,torte-q,2020.1.3,MacIntel,60,13375,,,,,0,16,16,2,1,,,,,,,,,,,,,,,,,,,,,,,,,,,,,,,,,,,
,,,,,,,,,,,,a,0.32044,Correct!,,,,,,t1.png,t1.png,0,0.97829,21,Female,2020-10-30_01h36.19.558,torte-q,2020.1.3,MacIntel,60,13375,,,,,0,17,17,78,1,,,,,,,,,,,,,,,,,,,,,,,,,,,,,,,,,,,
,,,,,,,,,,,,a,0.567405,Incorrect,,,,,,t1.png,t3.png,2,0.056466,21,Female,2020-10-30_01h36.19.558,torte-q,2020.1.3,MacIntel,60,13375,,,,,0,18,18,69,1,,,,,,,,,,,,,,,,,,,,,,,,,,,,,,,,,,,
,,,,,,,,,,,,l,0.434315,Correct!,,,,,,t5.png,t3.png,2,0.056466,21,Female,2020-10-30_01h36.19.558,torte-q,2020.1.3,MacIntel,60,13375,,,,,0,19,19,38,1,,,,,,,,,,,,,,,,,,,,,,,,,,,,,,,,,,,
,,,,,,,,,,,,a,0.449875,Correct!,,,,,,t4.png,t5.png,1,0.90025,21,Female,2020-10-30_01h36.19.558,torte-q,2020.1.3,MacIntel,60,13375,,,,,0,20,20,47,1,,,,,,,,,,,,,,,,,,,,,,,,,,,,,,,,,,,
,,,,,,,,,,,,l,0.38433,Incorrect,,,,,,t4.png,t3.png,1,0.90855,21,Female,2020-10-30_01h36.19.558,torte-q,2020.1.3,MacIntel,60,13375,,,,,0,21,21,35,1,,,,,,,,,,,,,,,,,,,,,,,,,,,,,,,,,,,
,,,,,,,,,,,,a,0.50364,Correct!,,,,,,t4.png,t4.png,0,0.98115,21,Female,2020-10-30_01h36.19.558,torte-q,2020.1.3,MacIntel,60,13375,,,,,0,22,22,52,1,,,,,,,,,,,,,,,,,,,,,,,,,,,,,,,,,,,
,,,,,,,,,,,,l,0.31794,Incorrect,,,,,,t2.png,t2.png,0,0.981,21,Female,2020-10-30_01h36.19.558,torte-q,2020.1.3,MacIntel,60,13375,,,,,0,23,23,101,1,,,,,,,,,,,,,,,,,,,,,,,,,,,,,,,,,,,
,,,,,,,,,,,,a,0.367185,Incorrect,,,,,,t1.png,t3.png,2,0.056466,21,Female,2020-10-30_01h36.19.558,torte-q,2020.1.3,MacIntel,60,13375,,,,,0,24,24,63,1,,,,,,,,,,,,,,,,,,,,,,,,,,,,,,,,,,,
,,,,,,,,,,,,l,0.60018,Correct!,,,,,,t5.png,t3.png,2,0.0565,21,Female,2020-10-30_01h36.19.558,torte-q,2020.1.3,MacIntel,60,13375,,,,,0,25,25,39,1,,,,,,,,,,,,,,,,,,,,,,,,,,,,,,,,,,,
,,,,,,,,,,,,a,0.435825,Incorrect,,,,,,t1.png,t4.png,3,0.0000131,21,Female,2020-10-30_01h36.19.558,torte-q,2020.1.3,MacIntel,60,13375,,,,,0,26,26,107,1,,,,,,,,,,,,,,,,,,,,,,,,,,,,,,,,,,,
,,,,,,,,,,,,l,0.55332,Correct!,,,,,,t4.png,t2.png,2,0.059078,21,Female,2020-10-30_01h36.19.558,torte-q,2020.1.3,MacIntel,60,13375,,,,,0,27,27,88,1,,,,,,,,,,,,,,,,,,,,,,,,,,,,,,,,,,,
,,,,,,,,,,,,a,0.46517,Incorrect,,,,,,t5.png,t1.png,4,9.55E-11,21,Female,2020-10-30_01h36.19.558,torte-q,2020.1.3,MacIntel,60,13375,,,,,0,28,28,71,1,,,,,,,,,,,,,,,,,,,,,,,,,,,,,,,,,,,
,,,,,,,,,,,,l,0.38445,Incorrect,,,,,,t2.png,t2.png,0,0.98115,21,Female,2020-10-30_01h36.19.558,torte-q,2020.1.3,MacIntel,60,13375,,,,,0,29,29,59,1,,,,,,,,,,,,,,,,,,,,,,,,,,,,,,,,,,,
,,,,,,,,,,,,a,0.50238,Correct!,,,,,,t4.png,t4.png,0,0.98115,21,Female,2020-10-30_01h36.19.558,torte-q,2020.1.3,MacIntel,60,13375,,,,,0,30,30,90,1,,,,,,,,,,,,,,,,,,,,,,,,,,,,,,,,,,,
,,,,,,,,,,,,l,0.352415,Incorrect,,,,,,t3.png,t5.png,2,0.0565,21,Female,2020-10-30_01h36.19.558,torte-q,2020.1.3,MacIntel,60,13375,,,,,0,31,31,83,1,,,,,,,,,,,,,,,,,,,,,,,,,,,,,,,,,,,
,,,,,,,,,,,,a,0.133465,Correct!,,,,,,t4.png,t3.png,1,0.909,21,Female,2020-10-30_01h36.19.558,torte-q,2020.1.3,MacIntel,60,13375,,,,,0,32,32,46,1,,,,,,,,,,,,,,,,,,,,,,,,,,,,,,,,,,,
,,,,,,,,,,,,a,0.586605,Correct!,,,,,,t2.png,t1.png,1,0.9,21,Female,2020-10-30_01h36.19.558,torte-q,2020.1.3,MacIntel,60,13375,,,,,0,33,33,118,1,,,,,,,,,,,,,,,,,,,,,,,,,,,,,,,,,,,
,,,,,,,,,,,,a,0.37157,Correct!,,,,,,t5.png,t4.png,1,0.9,21,Female,2020-10-30_01h36.19.558,torte-q,2020.1.3,MacIntel,60,13375,,,,,0,34,34,76,1,,,,,,,,,,,,,,,,,,,,,,,,,,,,,,,,,,,
,,,,,,,,,,,,l,0.350705,Incorrect,,,,,,t4.png,t3.png,1,0.90855,21,Female,2020-10-30_01h36.19.558,torte-q,2020.1.3,MacIntel,60,13375,,,,,0,35,35,45,1,,,,,,,,,,,,,,,,,,,,,,,,,,,,,,,,,,,
,,,,,,,,,,,,a,0.383955,Incorrect,,,,,,t4.png,t5.png,1,0.90025,21,Female,2020-10-30_01h36.19.558,torte-q,2020.1.3,MacIntel,60,13375,,,,,0,36,36,113,1,,,,,,,,,,,,,,,,,,,,,,,,,,,,,,,,,,,
,,,,,,,,,,,,a,1.601405,Incorrect,,,,,,t5.png,t3.png,2,0.056466,21,Female,2020-10-30_01h36.19.558,torte-q,2020.1.3,MacIntel,60,13375,,,,,0,37,37,56,1,,,,,,,,,,,,,,,,,,,,,,,,,,,,,,,,,,,
,,,,,,,,,,,,l,0.13419,Incorrect,,,,,,t2.png,t3.png,1,0.90855,21,Female,2020-10-30_01h36.19.558,torte-q,2020.1.3,MacIntel,60,13375,,,,,0,38,38,10,1,,,,,,,,,,,,,,,,,,,,,,,,,,,,,,,,,,,
,,,,,,,,,,,,a,0.786455,Incorrect,,,,,,t2.png,t4.png,2,0.059078,21,Female,2020-10-30_01h36.19.558,torte-q,2020.1.3,MacIntel,60,13375,,,,,0,39,39,11,1,,,,,,,,,,,,,,,,,,,,,,,,,,,,,,,,,,,
,,,,,,,,,,,,l,0.718915,Correct!,,,,,,t4.png,t1.png,3,0.0000131,21,Female,2020-10-30_01h36.19.558,torte-q,2020.1.3,MacIntel,60,13375,,,,,0,40,40,48,1,,,,,,,,,,,,,,,,,,,,,,,,,,,,,,,,,,,
,,,,,,,,,,,,a,0.299765,Correct!,,,,,,t5.png,t5.png,0,0.97829,21,Female,2020-10-30_01h36.19.558,torte-q,2020.1.3,MacIntel,60,13375,,,,,0,41,41,70,1,,,,,,,,,,,,,,,,,,,,,,,,,,,,,,,,,,,
,,,,,,,,,,,,a,0.6189,Correct!,,,,,,t1.png,t2.png,1,0.90025,21,Female,2020-10-30_01h36.19.558,torte-q,2020.1.3,MacIntel,60,13375,,,,,0,42,42,112,1,,,,,,,,,,,,,,,,,,,,,,,,,,,,,,,,,,,
,,,,,,,,,,,,a,1.099515,Correct!,,,,,,t2.png,t1.png,1,0.90025,21,Female,2020-10-30_01h36.19.558,torte-q,2020.1.3,MacIntel,60,13375,,,,,0,43,43,4,1,,,,,,,,,,,,,,,,,,,,,,,,,,,,,,,,,,,
,,,,,,,,,,,,l,0.919225,Incorrect,,,,,,t3.png,t4.png,1,0.909,21,Female,2020-10-30_01h36.19.558,torte-q,2020.1.3,MacIntel,60,13375,,,,,0,44,44,82,1,,,,,,,,,,,,,,,,,,,,,,,,,,,,,,,,,,,
,,,,,,,,,,,,a,0.569475,Incorrect,,,,,,t3.png,t5.png,2,0.056466,21,Female,2020-10-30_01h36.19.558,torte-q,2020.1.3,MacIntel,60,13375,,,,,0,45,45,6,1,,,,,,,,,,,,,,,,,,,,,,,,,,,,,,,,,,,
,,,,,,,,,,,,l,0.586555,Correct!,,,,,,t4.png,t2.png,2,0.059078,21,Female,2020-10-30_01h36.19.558,torte-q,2020.1.3,MacIntel,60,13375,,,,,0,46,46,110,1,,,,,,,,,,,,,,,,,,,,,,,,,,,,,,,,,,,
,,,,,,,,,,,,a,1.27056,Correct!,,,,,,t3.png,t4.png,1,0.909,21,Female,2020-10-30_01h36.19.558,torte-q,2020.1.3,MacIntel,60,13375,,,,,0,47,47,89,1,,,,,,,,,,,,,,,,,,,,,,,,,,,,,,,,,,,
,,,,,,,,,,,,l,0.571095,Incorrect,,,,,,t1.png,t2.png,1,0.9,21,Female,2020-10-30_01h36.19.558,torte-q,2020.1.3,MacIntel,60,13375,,,,,0,48,48,1,1,,,,,,,,,,,,,,,,,,,,,,,,,,,,,,,,,,,
,,,,,,,,,,,,a,1.117505,Incorrect,,,,,,t5.png,t1.png,4,9.55E-11,21,Female,2020-10-30_01h36.19.558,torte-q,2020.1.3,MacIntel,60,13375,,,,,0,49,49,100,1,,,,,,,,,,,,,,,,,,,,,,,,,,,,,,,,,,,
,,,,,,,,,,,,a,0.618205,Incorrect,,,,,,t2.png,t5.png,3,0.0000131,21,Female,2020-10-30_01h36.19.558,torte-q,2020.1.3,MacIntel,60,13375,,,,,0,50,50,8,1,,,,,,,,,,,,,,,,,,,,,,,,,,,,,,,,,,,
,,,,,,,,,,,,l,1.266535,Correct!,,,,,,t3.png,t5.png,2,0.0565,21,Female,2020-10-30_01h36.19.558,torte-q,2020.1.3,MacIntel,60,13375,,,,,0,51,51,30,1,,,,,,,,,,,,,,,,,,,,,,,,,,,,,,,,,,,
,,,,,,,,,,,,l,0.7371,Correct!,,,,,,t3.png,t5.png,2,0.056466,21,Female,2020-10-30_01h36.19.558,torte-q,2020.1.3,MacIntel,60,13375,,,,,0,52,52,14,1,,,,,,,,,,,,,,,,,,,,,,,,,,,,,,,,,,,
,,,,,,,,,,,,a,2.20276,Incorrect,,,,,,t4.png,t1.png,3,0.0000131,21,Female,2020-10-30_01h36.19.558,torte-q,2020.1.3,MacIntel,60,13375,,,,,0,53,53,42,1,,,,,,,,,,,,,,,,,,,,,,,,,,,,,,,,,,,
,,,,,,,,,,,,,,Too slow :(,,,,,,t3.png,t1.png,2,0.0565,21,Female,2020-10-30_01h36.19.558,torte-q,2020.1.3,MacIntel,60,13375,,,,,0,54,54,31,1,,,,,,,,,,,,,,,,,,,,,,,,,,,,,,,,,,,
,,,,,,,,,,,,l,0.70538,Incorrect,,,,,,t5.png,t4.png,1,0.90025,21,Female,2020-10-30_01h36.19.558,torte-q,2020.1.3,MacIntel,60,13375,,,,,0,55,55,26,1,,,,,,,,,,,,,,,,,,,,,,,,,,,,,,,,,,,
,,,,,,,,,,,,a,0.486825,Incorrect,,,,,,t1.png,t5.png,4,9.55E-11,21,Female,2020-10-30_01h36.19.558,torte-q,2020.1.3,MacIntel,60,13375,,,,,0,56,56,85,1,,,,,,,,,,,,,,,,,,,,,,,,,,,,,,,,,,,
,,,,,,,,,,,,l,0.570465,Incorrect,,,,,,t4.png,t5.png,1,0.9,21,Female,2020-10-30_01h36.19.558,torte-q,2020.1.3,MacIntel,60,13375,,,,,0,57,57,115,1,,,,,,,,,,,,,,,,,,,,,,,,,,,,,,,,,,,
,,,,,,,,,,,,l,0.403365,Incorrect,,,,,,t3.png,t2.png,1,0.909,21,Female,2020-10-30_01h36.19.558,torte-q,2020.1.3,MacIntel,60,13375,,,,,0,58,58,23,1,,,,,,,,,,,,,,,,,,,,,,,,,,,,,,,,,,,
,,,,,,,,,,,,a,0.49388,Correct!,,,,,,t3.png,t2.png,1,0.90855,21,Female,2020-10-30_01h36.19.558,torte-q,2020.1.3,MacIntel,60,13375,,,,,0,59,59,97,1,,,,,,,,,,,,,,,,,,,,,,,,,,,,,,,,,,,
,,,,,,,,,,,,l,0.502085,Incorrect,,,,,,t1.png,t1.png,0,0.978,21,Female,2020-10-30_01h36.19.558,torte-q,2020.1.3,MacIntel,60,13375,,,,,0,60,60,54,1,,,,,,,,,,,,,,,,,,,,,,,,,,,,,,,,,,,
,,,,,,,,,,,,a,1.12132,Correct!,,,,,,t2.png,t1.png,1,0.90025,21,Female,2020-10-30_01h36.19.558,torte-q,2020.1.3,MacIntel,60,13375,,,,,0,61,61,62,1,,,,,,,,,,,,,,,,,,,,,,,,,,,,,,,,,,,
,,,,,,,,,,,,l,0.582815,Correct!,,,,,,t1.png,t3.png,2,0.056466,21,Female,2020-10-30_01h36.19.558,torte-q,2020.1.3,MacIntel,60,13375,,,,,0,62,62,60,1,,,,,,,,,,,,,,,,,,,,,,,,,,,,,,,,,,,
,,,,,,,,,,,,l,0.93611,Correct!,,,,,,t3.png,t1.png,2,0.056466,21,Female,2020-10-30_01h36.19.558,torte-q,2020.1.3,MacIntel,60,13375,,,,,0,63,63,64,1,,,,,,,,,,,,,,,,,,,,,,,,,,,,,,,,,,,
,,,,,,,,,,,,a,0.518125,Correct!,,,,,,t2.png,t3.png,1,0.90855,21,Female,2020-10-30_01h36.19.558,torte-q,2020.1.3,MacIntel,60,13375,,,,,0,64,64,111,1,,,,,,,,,,,,,,,,,,,,,,,,,,,,,,,,,,,
,,,,,,,,,,,,l,0.317785,Correct!,,,,,,t2.png,t5.png,3,0.0000131,21,Female,2020-10-30_01h36.19.558,torte-q,2020.1.3,MacIntel,60,13375,,,,,0,65,65,104,1,,,,,,,,,,,,,,,,,,,,,,,,,,,,,,,,,,,
,,,,,,,,,,,,a,0.38397,Incorrect,,,,,,t5.png,t1.png,4,9.55E-11,21,Female,2020-10-30_01h36.19.558,torte-q,2020.1.3,MacIntel,60,13375,,,,,0,66,66,102,1,,,,,,,,,,,,,,,,,,,,,,,,,,,,,,,,,,,
,,,,,,,,,,,,a,1.033935,Incorrect,,,,,,t2.png,t5.png,3,0.0000131,21,Female,2020-10-30_01h36.19.558,torte-q,2020.1.3,MacIntel,60,13375,,,,,0,67,67,95,1,,,,,,,,,,,,,,,,,,,,,,,,,,,,,,,,,,,
,,,,,,,,,,,,l,0.96732,Incorrect,,,,,,t5.png,t4.png,1,0.90025,21,Female,2020-10-30_01h36.19.558,torte-q,2020.1.3,MacIntel,60,13375,,,,,0,68,68,34,1,,,,,,,,,,,,,,,,,,,,,,,,,,,,,,,,,,,
,,,,,,,,,,,,a,0.886585,Incorrect,,,,,,t1.png,t3.png,2,0.056466,21,Female,2020-10-30_01h36.19.558,torte-q,2020.1.3,MacIntel,60,13375,,,,,0,69,69,99,1,,,,,,,,,,,,,,,,,,,,,,,,,,,,,,,,,,,
,,,,,,,,,,,,a,0.63442,Correct!,,,,,,t5.png,t5.png,0,0.978,21,Female,2020-10-30_01h36.19.558,torte-q,2020.1.3,MacIntel,60,13375,,,,,0,70,70,117,1,,,,,,,,,,,,,,,,,,,,,,,,,,,,,,,,,,,
,,,,,,,,,,,,l,0.852925,Incorrect,,,,,,t3.png,t2.png,1,0.909,21,Female,2020-10-30_01h36.19.558,torte-q,2020.1.3,MacIntel,60,13375,,,,,0,71,71,3,1,,,,,,,,,,,,,,,,,,,,,,,,,,,,,,,,,,,
,,,,,,,,,,,,a,0.20082,Correct!,,,,,,t3.png,t4.png,1,0.90855,21,Female,2020-10-30_01h36.19.558,torte-q,2020.1.3,MacIntel,60,13375,,,,,0,72,72,84,1,,,,,,,,,,,,,,,,,,,,,,,,,,,,,,,,,,,
,,,,,,,,,,,,l,0.60076,Incorrect,,,,,,t2.png,t2.png,0,0.98115,21,Female,2020-10-30_01h36.19.558,torte-q,2020.1.3,MacIntel,60,13375,,,,,0,73,73,57,1,,,,,,,,,,,,,,,,,,,,,,,,,,,,,,,,,,,
,,,,,,,,,,,,a,0.04951,Incorrect,,,,,,t5.png,t2.png,3,0.0000131,21,Female,2020-10-30_01h36.19.558,torte-q,2020.1.3,MacIntel,60,13375,,,,,0,74,74,98,1,,,,,,,,,,,,,,,,,,,,,,,,,,,,,,,,,,,
,,,,,,,,,,,,l,0.316415,Correct!,,,,,,t3.png,t5.png,2,0.056466,21,Female,2020-10-30_01h36.19.558,torte-q,2020.1.3,MacIntel,60,13375,,,,,0,75,75,44,1,,,,,,,,,,,,,,,,,,,,,,,,,,,,,,,,,,,
,,,,,,,,,,,,a,2.318165,Incorrect,,,,,,t2.png,t5.png,3,0.0000131,21,Female,2020-10-30_01h36.19.558,torte-q,2020.1.3,MacIntel,60,13375,,,,,0,76,76,66,1,,,,,,,,,,,,,,,,,,,,,,,,,,,,,,,,,,,
,,,,,,,,,,,,a,0.45412,Correct!,,,,,,t1.png,t2.png,1,0.90025,21,Female,2020-10-30_01h36.19.558,torte-q,2020.1.3,MacIntel,60,13375,,,,,0,77,77,105,1,,,,,,,,,,,,,,,,,,,,,,,,,,,,,,,,,,,
,,,,,,,,,,,,a,0.353835,Correct!,,,,,,t3.png,t2.png,1,0.90855,21,Female,2020-10-30_01h36.19.558,torte-q,2020.1.3,MacIntel,60,13375,,,,,0,78,78,53,1,,,,,,,,,,,,,,,,,,,,,,,,,,,,,,,,,,,
,,,,,,,,,,,,l,0.350525,Correct!,,,,,,t4.png,t2.png,2,0.059078,21,Female,2020-10-30_01h36.19.558,torte-q,2020.1.3,MacIntel,60,13375,,,,,0,79,79,86,1,,,,,,,,,,,,,,,,,,,,,,,,,,,,,,,,,,,
,,,,,,,,,,,,l,0.3873,Correct!,,,,,,t4.png,t1.png,3,0.0000131,21,Female,2020-10-30_01h36.19.558,torte-q,2020.1.3,MacIntel,60,13375,,,,,0,80,80,13,1,,,,,,,,,,,,,,,,,,,,,,,,,,,,,,,,,,,
,,,,,,,,,,,,l,0.65025,Correct!,,,,,,t4.png,t2.png,2,0.0591,21,Female,2020-10-30_01h36.19.558,torte-q,2020.1.3,MacIntel,60,13375,,,,,0,81,81,36,1,,,,,,,,,,,,,,,,,,,,,,,,,,,,,,,,,,,
,,,,,,,,,,,,a,0.469135,Incorrect,,,,,,t5.png,t3.png,2,0.056466,21,Female,2020-10-30_01h36.19.558,torte-q,2020.1.3,MacIntel,60,13375,,,,,0,82,82,114,1,,,,,,,,,,,,,,,,,,,,,,,,,,,,,,,,,,,
,,,,,,,,,,,,l,0.71823,Correct!,,,,,,t5.png,t1.png,4,9.55E-11,21,Female,2020-10-30_01h36.19.558,torte-q,2020.1.3,MacIntel,60,13375,,,,,0,83,83,43,1,,,,,,,,,,,,,,,,,,,,,,,,,,,,,,,,,,,
,,,,,,,,,,,,a,0.62132,Correct!,,,,,,t1.png,t2.png,1,0.90025,21,Female,2020-10-30_01h36.19.558,torte-q,2020.1.3,MacIntel,60,13375,,,,,0,84,84,72,1,,,,,,,,,,,,,,,,,,,,,,,,,,,,,,,,,,,
,,,,,,,,,,,,l,0.399085,Correct!,,,,,,t3.png,t1.png,2,0.056466,21,Female,2020-10-30_01h36.19.558,torte-q,2020.1.3,MacIntel,60,13375,,,,,0,85,85,29,1,,,,,,,,,,,,,,,,,,,,,,,,,,,,,,,,,,,
,,,,,,,,,,,,a,0.718405,Correct!,,,,,,t3.png,t4.png,1,0.90855,21,Female,2020-10-30_01h36.19.558,torte-q,2020.1.3,MacIntel,60,13375,,,,,0,86,86,96,1,,,,,,,,,,,,,,,,,,,,,,,,,,,,,,,,,,,
,,,,,,,,,,,,l,0.567135,Incorrect,,,,,,t3.png,t4.png,1,0.909,21,Female,2020-10-30_01h36.19.558,torte-q,2020.1.3,MacIntel,60,13375,,,,,0,87,87,106,1,,,,,,,,,,,,,,,,,,,,,,,,,,,,,,,,,,,
,,,,,,,,,,,,a,0.33361,Correct!,,,,,,t2.png,t4.png,2,0.0591,21,Female,2020-10-30_01h36.19.558,torte-q,2020.1.3,MacIntel,60,13375,,,,,0,88,88,15,1,,,,,,,,,,,,,,,,,,,,,,,,,,,,,,,,,,,
,,,,,,,,,,,,l,0.107375,Incorrect,,,,,,t2.png,t3.png,1,0.909,21,Female,2020-10-30_01h36.19.558,torte-q,2020.1.3,MacIntel,60,13375,,,,,0,89,89,74,1,,,,,,,,,,,,,,,,,,,,,,,,,,,,,,,,,,,
,,,,,,,,,,,,l,0.01546,Correct!,,,,,,t3.png,t1.png,2,0.056466,21,Female,2020-10-30_01h36.19.558,torte-q,2020.1.3,MacIntel,60,13375,,,,,0,90,90,32,1,,,,,,,,,,,,,,,,,,,,,,,,,,,,,,,,,,,
,,,,,,,,,,,,l,0.066455,Correct!,,,,,,t2.png,t5.png,3,0.0000131,21,Female,2020-10-30_01h36.19.558,torte-q,2020.1.3,MacIntel,60,13375,,,,,0,91,91,40,1,,,,,,,,,,,,,,,,,,,,,,,,,,,,,,,,,,,
,,,,,,,,,,,,a,0.3011,Incorrect,,,,,,t1.png,t4.png,3,0.0000131,21,Female,2020-10-30_01h36.19.558,torte-q,2020.1.3,MacIntel,60,13375,,,,,0,92,92,92,1,,,,,,,,,,,,,,,,,,,,,,,,,,,,,,,,,,,
,,,,,,,,,,,,a,0.383265,Correct!,,,,,,t2.png,t1.png,1,0.90025,21,Female,2020-10-30_01h36.19.558,torte-q,2020.1.3,MacIntel,60,13375,,,,,0,93,93,19,1,,,,,,,,,,,,,,,,,,,,,,,,,,,,,,,,,,,
,,,,,,,,,,,,l,1.271715,Incorrect,,,,,,t4.png,t5.png,1,0.90025,21,Female,2020-10-30_01h36.19.558,torte-q,2020.1.3,MacIntel,60,13375,,,,,0,94,94,58,1,,,,,,,,,,,,,,,,,,,,,,,,,,,,,,,,,,,
,,,,,,,,,,,,a,0.685055,Incorrect,,,,,,t1.png,t5.png,4,9.55E-11,21,Female,2020-10-30_01h36.19.558,torte-q,2020.1.3,MacIntel,60,13375,,,,,0,95,95,12,1,,,,,,,,,,,,,,,,,,,,,,,,,,,,,,,,,,,
,,,,,,,,,,,,a,0.36903,Correct!,,,,,,t1.png,t1.png,0,0.97829,21,Female,2020-10-30_01h36.19.558,torte-q,2020.1.3,MacIntel,60,13375,,,,,0,96,96,9,1,,,,,,,,,,,,,,,,,,,,,,,,,,,,,,,,,,,
,,,,,,,,,,,,a,0.335875,Incorrect,,,,,,t1.png,t5.png,4,9.55E-11,21,Female,2020-10-30_01h36.19.558,torte-q,2020.1.3,MacIntel,60,13375,,,,,0,97,97,55,1,,,,,,,,,,,,,,,,,,,,,,,,,,,,,,,,,,,
,,,,,,,,,,,,a,0.219465,Correct!,,,,,,t4.png,t4.png,0,0.98115,21,Female,2020-10-30_01h36.19.558,torte-q,2020.1.3,MacIntel,60,13375,,,,,0,98,98,21,1,,,,,,,,,,,,,,,,,,,,,,,,,,,,,,,,,,,
,,,,,,,,,,,,l,0.234025,Correct!,,,,,,t5.png,t2.png,3,0.0000131,21,Female,2020-10-30_01h36.19.558,torte-q,2020.1.3,MacIntel,60,13375,,,,,0,99,99,119,1,,,,,,,,,,,,,,,,,,,,,,,,,,,,,,,,,,,
,,,,,,,,,,,,l,0.399915,Incorrect,,,,,,t5.png,t5.png,0,0.97829,21,Female,2020-10-30_01h36.19.558,torte-q,2020.1.3,MacIntel,60,13375,,,,,0,100,100,73,1,,,,,,,,,,,,,,,,,,,,,,,,,,,,,,,,,,,
,,,,,,,,,,,,l,0.336325,Correct!,,,,,,t2.png,t4.png,2,0.059078,21,Female,2020-10-30_01h36.19.558,torte-q,2020.1.3,MacIntel,60,13375,,,,,0,101,101,37,1,,,,,,,,,,,,,,,,,,,,,,,,,,,,,,,,,,,
,,,,,,,,,,,,a,0.13434,Correct!,,,,,,t5.png,t4.png,1,0.90025,21,Female,2020-10-30_01h36.19.558,torte-q,2020.1.3,MacIntel,60,13375,,,,,0,102,102,27,1,,,,,,,,,,,,,,,,,,,,,,,,,,,,,,,,,,,
,,,,,,,,,,,,l,0.27001,Incorrect,,,,,,t2.png,t3.png,1,0.90855,21,Female,2020-10-30_01h36.19.558,torte-q,2020.1.3,MacIntel,60,13375,,,,,0,103,103,68,1,,,,,,,,,,,,,,,,,,,,,,,,,,,,,,,,,,,
,,,,,,,,,,,,a,0.283935,Correct!,,,,,,t5.png,t4.png,1,0.9,21,Female,2020-10-30_01h36.19.558,torte-q,2020.1.3,MacIntel,60,13375,,,,,0,104,104,49,1,,,,,,,,,,,,,,,,,,,,,,,,,,,,,,,,,,,
,,,,,,,,,,,,l,0.150185,Incorrect,,,,,,t5.png,t5.png,0,0.97829,21,Female,2020-10-30_01h36.19.558,torte-q,2020.1.3,MacIntel,60,13375,,,,,0,105,105,94,1,,,,,,,,,,,,,,,,,,,,,,,,,,,,,,,,,,,
,,,,,,,,,,,,l,0.56801,Correct!,,,,,,t5.png,t1.png,4,9.55E-11,21,Female,2020-10-30_01h36.19.558,torte-q,2020.1.3,MacIntel,60,13375,,,,,0,106,106,22,1,,,,,,,,,,,,,,,,,,,,,,,,,,,,,,,,,,,
,,,,,,,,,,,,l,0.78409,Incorrect,,,,,,t1.png,t2.png,1,0.90025,21,Female,2020-10-30_01h36.19.558,torte-q,2020.1.3,MacIntel,60,13375,,,,,0,107,107,33,1,,,,,,,,,,,,,,,,,,,,,,,,,,,,,,,,,,,
,,,,,,,,,,,,l,0.44997,Incorrect,,,,,,t4.png,t5.png,1,0.90025,21,Female,2020-10-30_01h36.19.558,torte-q,2020.1.3,MacIntel,60,13375,,,,,0,108,108,103,1,,,,,,,,,,,,,,,,,,,,,,,,,,,,,,,,,,,
,,,,,,,,,,,,a,0.43609,Correct!,,,,,,t2.png,t2.png,0,0.98115,21,Female,2020-10-30_01h36.19.558,torte-q,2020.1.3,MacIntel,60,13375,,,,,0,109,109,7,1,,,,,,,,,,,,,,,,,,,,,,,,,,,,,,,,,,,
,,,,,,,,,,,,l,0.00098,Correct!,,,,,,t1.png,t5.png,4,9.55E-11,21,Female,2020-10-30_01h36.19.558,torte-q,2020.1.3,MacIntel,60,13375,,,,,0,110,110,16,1,,,,,,,,,,,,,,,,,,,,,,,,,,,,,,,,,,,
,,,,,,,,,,,,a,0.169125,Correct!,,,,,,t4.png,t3.png,1,0.90855,21,Female,2020-10-30_01h36.19.558,torte-q,2020.1.3,MacIntel,60,13375,,,,,0,111,111,75,1,,,,,,,,,,,,,,,,,,,,,,,,,,,,,,,,,,,
,,,,,,,,,,,,l,0.302495,Correct!,,,,,,t4.png,t1.png,3,0.0000131,21,Female,2020-10-30_01h36.19.558,torte-q,2020.1.3,MacIntel,60,13375,,,,,0,112,112,93,1,,,,,,,,,,,,,,,,,,,,,,,,,,,,,,,,,,,
,,,,,,,,,,,,a,0.554565,Incorrect,,,,,,t1.png,t4.png,3,0.0000131,21,Female,2020-10-30_01h36.19.558,torte-q,2020.1.3,MacIntel,60,13375,,,,,0,113,113,81,1,,,,,,,,,,,,,,,,,,,,,,,,,,,,,,,,,,,
,,,,,,,,,,,,a,0.550485,Correct!,,,,,,t1.png,t1.png,0,0.978,21,Female,2020-10-30_01h36.19.558,torte-q,2020.1.3,MacIntel,60,13375,,,,,0,114,114,28,1,,,,,,,,,,,,,,,,,,,,,,,,,,,,,,,,,,,
,,,,,,,,,,,,a,0.41997,Incorrect,,,,,,t5.png,t2.png,3,0.0000131,21,Female,2020-10-30_01h36.19.558,torte-q,2020.1.3,MacIntel,60,13375,,,,,0,115,115,51,1,,,,,,,,,,,,,,,,,,,,,,,,,,,,,,,,,,,
,,,,,,,,,,,,a,0.27055,Correct!,,,,,,t1.png,t1.png,0,0.97829,21,Female,2020-10-30_01h36.19.558,torte-q,2020.1.3,MacIntel,60,13375,,,,,0,116,116,67,1,,,,,,,,,,,,,,,,,,,,,,,,,,,,,,,,,,,
,,,,,,,,,,,,a,0.3698,Incorrect,,,,,,t4.png,t2.png,2,0.059078,21,Female,2020-10-30_01h36.19.558,torte-q,2020.1.3,MacIntel,60,13375,,,,,0,117,117,109,1,,,,,,,,,,,,,,,,,,,,,,,,,,,,,,,,,,,
,,,,,,,,,,,,l,0.304105,Incorrect,,,,,,t2.png,t3.png,1,0.90855,21,Female,2020-10-30_01h36.19.558,torte-q,2020.1.3,MacIntel,60,13375,,,,,0,118,118,65,1,,,,,,,,,,,,,,,,,,,,,,,,,,,,,,,,,,,
,,,,,,,,,,,,a,1.434195,Incorrect,,,,,,t1.png,t4.png,3,0.0000131,21,Female,2020-10-30_01h36.19.558,torte-q,2020.1.3,MacIntel,60,13375,,,,,0,119,119,17,1,,,,,,,,,,,,,,,,,,,,,,,,,,,,,,,,,,,
,,,,,,,,,,,,a,1.48782,Correct!,,,,,,t1.png,t2.png,1,0.90025,21,Female,2020-10-30_01h36.19.558,torte-q,2020.1.3,MacIntel,60,13375,space,21.391235,,,,,,,,space,11.996945,space,10.17457,0,0,0,72,1,,,,,,,,,,,,,,,,,,,,,,,,,,
,,,,,,,,,,,,l,0.934925,Incorrect,,,,,,t4.png,t4.png,0,0.98115,21,Female,2020-10-30_01h36.19.558,torte-q,2020.1.3,MacIntel,60,13375,,,,,,,,,,,,,,0,1,1,90,1,,,,,,,,,,,,,,,,,,,,,,,,,,
,,,,,,,,,,,,a,0.552905,Incorrect,,,,,,t2.png,t5.png,3,0.0000131,21,Female,2020-10-30_01h36.19.558,torte-q,2020.1.3,MacIntel,60,13375,,,,,,,,,,,,,,0,2,2,8,1,,,,,,,,,,,,,,,,,,,,,,,,,,
,,,,,,,,,,,,a,1.40385,Correct!,,,,,,t3.png,t4.png,1,0.90855,21,Female,2020-10-30_01h36.19.558,torte-q,2020.1.3,MacIntel,60,13375,,,,,,,,,,,,,,0,3,3,84,1,,,,,,,,,,,,,,,,,,,,,,,,,,
,,,,,,,,,,,,l,0.932765,Incorrect,,,,,,t3.png,t4.png,1,0.909,21,Female,2020-10-30_01h36.19.558,torte-q,2020.1.3,MacIntel,60,13375,,,,,,,,,,,,,,0,4,4,106,1,,,,,,,,,,,,,,,,,,,,,,,,,,
,,,,,,,,,,,,l,0.6119,Correct!,,,,,,t5.png,t1.png,4,9.55E-11,21,Female,2020-10-30_01h36.19.558,torte-q,2020.1.3,MacIntel,60,13375,,,,,,,,,,,,,,0,5,5,22,1,,,,,,,,,,,,,,,,,,,,,,,,,,
,,,,,,,,,,,,a,0.471575,Correct!,,,,,,t3.png,t2.png,1,0.909,21,Female,2020-10-30_01h36.19.558,torte-q,2020.1.3,MacIntel,60,13375,,,,,,,,,,,,,,0,6,6,3,1,,,,,,,,,,,,,,,,,,,,,,,,,,
,,,,,,,,,,,,l,1.669265,Correct!,,,,,,t2.png,t5.png,3,0.0000131,21,Female,2020-10-30_01h36.19.558,torte-q,2020.1.3,MacIntel,60,13375,,,,,,,,,,,,,,0,7,7,95,1,,,,,,,,,,,,,,,,,,,,,,,,,,
,,,,,,,,,,,,a,0.68494,Correct!,,,,,,t2.png,t2.png,0,0.98115,21,Female,2020-10-30_01h36.19.558,torte-q,2020.1.3,MacIntel,60,13375,,,,,,,,,,,,,,0,8,8,2,1,,,,,,,,,,,,,,,,,,,,,,,,,,
,,,,,,,,,,,,a,0.520085,Correct!,,,,,,t2.png,t1.png,1,0.90025,21,Female,2020-10-30_01h36.19.558,torte-q,2020.1.3,MacIntel,60,13375,,,,,,,,,,,,,,0,9,9,19,1,,,,,,,,,,,,,,,,,,,,,,,,,,
,,,,,,,,,,,,l,1.316955,Correct!,,,,,,t1.png,t3.png,2,0.056466,21,Female,2020-10-30_01h36.19.558,torte-q,2020.1.3,MacIntel,60,13375,,,,,,,,,,,,,,0,10,10,60,1,,,,,,,,,,,,,,,,,,,,,,,,,,
,,,,,,,,,,,,a,2.068795,Incorrect,,,,,,t3.png,t5.png,2,0.056466,21,Female,2020-10-30_01h36.19.558,torte-q,2020.1.3,MacIntel,60,13375,,,,,,,,,,,,,,0,11,11,14,1,,,,,,,,,,,,,,,,,,,,,,,,,,
,,,,,,,,,,,,a,0.36699,Incorrect,,,,,,t4.png,t1.png,3,0.0000131,21,Female,2020-10-30_01h36.19.558,torte-q,2020.1.3,MacIntel,60,13375,,,,,,,,,,,,,,0,12,12,61,1,,,,,,,,,,,,,,,,,,,,,,,,,,
,,,,,,,,,,,,a,0.569155,Correct!,,,,,,t5.png,t4.png,1,0.90025,21,Female,2020-10-30_01h36.19.558,torte-q,2020.1.3,MacIntel,60,13375,,,,,,,,,,,,,,0,13,13,27,1,,,,,,,,,,,,,,,,,,,,,,,,,,
,,,,,,,,,,,,l,0.46788,Correct!,,,,,,t4.png,t1.png,3,0.0000131,21,Female,2020-10-30_01h36.19.558,torte-q,2020.1.3,MacIntel,60,13375,,,,,,,,,,,,,,0,14,14,42,1,,,,,,,,,,,,,,,,,,,,,,,,,,
,,,,,,,,,,,,l,0.65426,Correct!,,,,,,t2.png,t4.png,2,0.059078,21,Female,2020-10-30_01h36.19.558,torte-q,2020.1.3,MacIntel,60,13375,,,,,,,,,,,,,,0,15,15,77,1,,,,,,,,,,,,,,,,,,,,,,,,,,
,,,,,,,,,,,,a,0.330815,Correct!,,,,,,t5.png,t4.png,1,0.9,21,Female,2020-10-30_01h36.19.558,torte-q,2020.1.3,MacIntel,60,13375,,,,,,,,,,,,,,0,16,16,49,1,,,,,,,,,,,,,,,,,,,,,,,,,,
,,,,,,,,,,,,l,0.31953,Incorrect,,,,,,t4.png,t3.png,1,0.90855,21,Female,2020-10-30_01h36.19.558,torte-q,2020.1.3,MacIntel,60,13375,,,,,,,,,,,,,,0,17,17,75,1,,,,,,,,,,,,,,,,,,,,,,,,,,
,,,,,,,,,,,,l,0.38733,Incorrect,,,,,,t4.png,t4.png,0,0.98115,21,Female,2020-10-30_01h36.19.558,torte-q,2020.1.3,MacIntel,60,13375,,,,,,,,,,,,,,0,18,18,52,1,,,,,,,,,,,,,,,,,,,,,,,,,,
,,,,,,,,,,,,l,0.266245,Incorrect,,,,,,t2.png,t2.png,0,0.98115,21,Female,2020-10-30_01h36.19.558,torte-q,2020.1.3,MacIntel,60,13375,,,,,,,,,,,,,,0,19,19,59,1,,,,,,,,,,,,,,,,,,,,,,,,,,
,,,,,,,,,,,,l,0.264445,Incorrect,,,,,,t3.png,t2.png,1,0.90855,21,Female,2020-10-30_01h36.19.558,torte-q,2020.1.3,MacIntel,60,13375,,,,,,,,,,,,,,0,20,20,97,1,,,,,,,,,,,,,,,,,,,,,,,,,,
,,,,,,,,,,,,a,0.16714,Incorrect,,,,,,t1.png,t3.png,2,0.056466,21,Female,2020-10-30_01h36.19.558,torte-q,2020.1.3,MacIntel,60,13375,,,,,,,,,,,,,,0,21,21,63,1,,,,,,,,,,,,,,,,,,,,,,,,,,
,,,,,,,,,,,,a,0.21231,Correct!,,,,,,t2.png,t2.png,0,0.98115,21,Female,2020-10-30_01h36.19.558,torte-q,2020.1.3,MacIntel,60,13375,,,,,,,,,,,,,,0,22,22,57,1,,,,,,,,,,,,,,,,,,,,,,,,,,
,,,,,,,,,,,,a,0.08228,Correct!,,,,,,t4.png,t5.png,1,0.90025,21,Female,2020-10-30_01h36.19.558,torte-q,2020.1.3,MacIntel,60,13375,,,,,,,,,,,,,,0,23,23,58,1,,,,,,,,,,,,,,,,,,,,,,,,,,
,,,,,,,,,,,,l,0.96779,Correct!,,,,,,t1.png,t5.png,4,9.55E-11,21,Female,2020-10-30_01h36.19.558,torte-q,2020.1.3,MacIntel,60,13375,,,,,,,,,,,,,,0,24,24,85,1,,,,,,,,,,,,,,,,,,,,,,,,,,
,,,,,,,,,,,,a,0.36996,Correct!,,,,,,t3.png,t4.png,1,0.90855,21,Female,2020-10-30_01h36.19.558,torte-q,2020.1.3,MacIntel,60,13375,,,,,,,,,,,,,,0,25,25,96,1,,,,,,,,,,,,,,,,,,,,,,,,,,
,,,,,,,,,,,,l,0.20047,Correct!,,,,,,t1.png,t4.png,3,0.0000131,21,Female,2020-10-30_01h36.19.558,torte-q,2020.1.3,MacIntel,60,13375,,,,,,,,,,,,,,0,26,26,17,1,,,,,,,,,,,,,,,,,,,,,,,,,,
,,,,,,,,,,,,a,0.75027,Incorrect,,,,,,t5.png,t3.png,2,0.056466,21,Female,2020-10-30_01h36.19.558,torte-q,2020.1.3,MacIntel,60,13375,,,,,,,,,,,,,,0,27,27,114,1,,,,,,,,,,,,,,,,,,,,,,,,,,
,,,,,,,,,,,,l,0.33842,Correct!,,,,,,t1.png,t3.png,2,0.056466,21,Female,2020-10-30_01h36.19.558,torte-q,2020.1.3,MacIntel,60,13375,,,,,,,,,,,,,,0,28,28,99,1,,,,,,,,,,,,,,,,,,,,,,,,,,
,,,,,,,,,,,,l,0.285975,Incorrect,,,,,,t1.png,t2.png,1,0.90025,21,Female,2020-10-30_01h36.19.558,torte-q,2020.1.3,MacIntel,60,13375,,,,,,,,,,,,,,0,29,29,105,1,,,,,,,,,,,,,,,,,,,,,,,,,,
,,,,,,,,,,,,a,0.3008,Correct!,,,,,,t5.png,t4.png,1,0.90025,21,Female,2020-10-30_01h36.19.558,torte-q,2020.1.3,MacIntel,60,13375,,,,,,,,,,,,,,0,30,30,26,1,,,,,,,,,,,,,,,,,,,,,,,,,,
,,,,,,,,,,,,,,Too slow :(,,,,,,t1.png,t1.png,0,0.97829,21,Female,2020-10-30_01h36.19.558,torte-q,2020.1.3,MacIntel,60,13375,,,,,,,,,,,,,,0,31,31,78,1,,,,,,,,,,,,,,,,,,,,,,,,,,
,,,,,,,,,,,,l,0.836915,Incorrect,,,,,,t4.png,t4.png,0,0.98115,21,Female,2020-10-30_01h36.19.558,torte-q,2020.1.3,MacIntel,60,13375,,,,,,,,,,,,,,0,32,32,79,1,,,,,,,,,,,,,,,,,,,,,,,,,,
,,,,,,,,,,,,l,0.882865,Correct!,,,,,,t4.png,t2.png,2,0.059078,21,Female,2020-10-30_01h36.19.558,torte-q,2020.1.3,MacIntel,60,13375,,,,,,,,,,,,,,0,33,33,109,1,,,,,,,,,,,,,,,,,,,,,,,,,,
,,,,,,,,,,,,l,0.40981,Incorrect,,,,,,t4.png,t5.png,1,0.90025,21,Female,2020-10-30_01h36.19.558,torte-q,2020.1.3,MacIntel,60,13375,,,,,,,,,,,,,,0,34,34,113,1,,,,,,,,,,,,,,,,,,,,,,,,,,
,,,,,,,,,,,,a,0.73368,Incorrect,,,,,,t3.png,t1.png,2,0.056466,21,Female,2020-10-30_01h36.19.558,torte-q,2020.1.3,MacIntel,60,13375,,,,,,,,,,,,,,0,35,35,0,1,,,,,,,,,,,,,,,,,,,,,,,,,,
,,,,,,,,,,,,a,0.764085,Correct!,,,,,,t3.png,t4.png,1,0.909,21,Female,2020-10-30_01h36.19.558,torte-q,2020.1.3,MacIntel,60,13375,,,,,,,,,,,,,,0,36,36,82,1,,,,,,,,,,,,,,,,,,,,,,,,,,
,,,,,,,,,,,,a,0.878725,Correct!,,,,,,t1.png,t2.png,1,0.9,21,Female,2020-10-30_01h36.19.558,torte-q,2020.1.3,MacIntel,60,13375,,,,,,,,,,,,,,0,37,37,1,1,,,,,,,,,,,,,,,,,,,,,,,,,,
,,,,,,,,,,,,l,0.6516,Incorrect,,,,,,t1.png,t1.png,0,0.978,21,Female,2020-10-30_01h36.19.558,torte-q,2020.1.3,MacIntel,60,13375,,,,,,,,,,,,,,0,38,38,54,1,,,,,,,,,,,,,,,,,,,,,,,,,,
,,,,,,,,,,,,l,0.268145,Correct!,,,,,,t5.png,t2.png,3,0.0000131,21,Female,2020-10-30_01h36.19.558,torte-q,2020.1.3,MacIntel,60,13375,,,,,,,,,,,,,,0,39,39,116,1,,,,,,,,,,,,,,,,,,,,,,,,,,
,,,,,,,,,,,,l,0.466315,Correct!,,,,,,t4.png,t1.png,3,0.0000131,21,Female,2020-10-30_01h36.19.558,torte-q,2020.1.3,MacIntel,60,13375,,,,,,,,,,,,,,0,40,40,48,1,,,,,,,,,,,,,,,,,,,,,,,,,,
,,,,,,,,,,,,a,0.370095,Incorrect,,,,,,t5.png,t2.png,3,0.0000131,21,Female,2020-10-30_01h36.19.558,torte-q,2020.1.3,MacIntel,60,13375,,,,,,,,,,,,,,0,41,41,119,1,,,,,,,,,,,,,,,,,,,,,,,,,,
,,,,,,,,,,,,l,0.201495,Incorrect,,,,,,t2.png,t2.png,0,0.981,21,Female,2020-10-30_01h36.19.558,torte-q,2020.1.3,MacIntel,60,13375,,,,,,,,,,,,,,0,42,42,101,1,,,,,,,,,,,,,,,,,,,,,,,,,,
,,,,,,,,,,,,l,0.03397,Incorrect,,,,,,t1.png,t2.png,1,0.90025,21,Female,2020-10-30_01h36.19.558,torte-q,2020.1.3,MacIntel,60,13375,,,,,,,,,,,,,,0,43,43,112,1,,,,,,,,,,,,,,,,,,,,,,,,,,
,,,,,,,,,,,,l,0.071795,Correct!,,,,,,t5.png,t2.png,3,0.0000131,21,Female,2020-10-30_01h36.19.558,torte-q,2020.1.3,MacIntel,60,13375,,,,,,,,,,,,,,0,44,44,91,1,,,,,,,,,,,,,,,,,,,,,,,,,,
,,,,,,,,,,,,l,0.06779,Incorrect,,,,,,t3.png,t2.png,1,0.90855,21,Female,2020-10-30_01h36.19.558,torte-q,2020.1.3,MacIntel,60,13375,,,,,,,,,,,,,,0,45,45,18,1,,,,,,,,,,,,,,,,,,,,,,,,,,
,,,,,,,,,,,,l,0.334165,Correct!,,,,,,t5.png,t3.png,2,0.056466,21,Female,2020-10-30_01h36.19.558,torte-q,2020.1.3,MacIntel,60,13375,,,,,,,,,,,,,,0,46,46,38,1,,,,,,,,,,,,,,,,,,,,,,,,,,
,,,,,,,,,,,,l,0.26906,Incorrect,,,,,,t2.png,t1.png,1,0.90025,21,Female,2020-10-30_01h36.19.558,torte-q,2020.1.3,MacIntel,60,13375,,,,,,,,,,,,,,0,47,47,62,1,,,,,,,,,,,,,,,,,,,,,,,,,,
,,,,,,,,,,,,l,0.23645,Correct!,,,,,,t3.png,t1.png,2,0.056466,21,Female,2020-10-30_01h36.19.558,torte-q,2020.1.3,MacIntel,60,13375,,,,,,,,,,,,,,0,48,48,29,1,,,,,,,,,,,,,,,,,,,,,,,,,,
,,,,,,,,,,,,a,0.498305,Incorrect,,,,,,t2.png,t4.png,2,0.059078,21,Female,2020-10-30_01h36.19.558,torte-q,2020.1.3,MacIntel,60,13375,,,,,,,,,,,,,,0,49,49,24,1,,,,,,,,,,,,,,,,,,,,,,,,,,
,,,,,,,,,,,,l,0.381095,Correct!,,,,,,t3.png,t5.png,2,0.056466,21,Female,2020-10-30_01h36.19.558,torte-q,2020.1.3,MacIntel,60,13375,,,,,,,,,,,,,,0,50,50,44,1,,,,,,,,,,,,,,,,,,,,,,,,,,
,,,,,,,,,,,,l,0.11411,Correct!,,,,,,t1.png,t5.png,4,9.55E-11,21,Female,2020-10-30_01h36.19.558,torte-q,2020.1.3,MacIntel,60,13375,,,,,,,,,,,,,,0,51,51,16,1,,,,,,,,,,,,,,,,,,,,,,,,,,
,,,,,,,,,,,,a,0.000505,Correct!,,,,,,t4.png,t3.png,1,0.90855,21,Female,2020-10-30_01h36.19.558,torte-q,2020.1.3,MacIntel,60,13375,,,,,,,,,,,,,,0,52,52,35,1,,,,,,,,,,,,,,,,,,,,,,,,,,
,,,,,,,,,,,,a,0.0373,Correct!,,,,,,t5.png,t4.png,1,0.9,21,Female,2020-10-30_01h36.19.558,torte-q,2020.1.3,MacIntel,60,13375,,,,,,,,,,,,,,0,53,53,76,1,,,,,,,,,,,,,,,,,,,,,,,,,,
,,,,,,,,,,,,a,0.083405,Correct!,,,,,,t2.png,t1.png,1,0.90025,21,Female,2020-10-30_01h36.19.558,torte-q,2020.1.3,MacIntel,60,13375,,,,,,,,,,,,,,0,54,54,4,1,,,,,,,,,,,,,,,,,,,,,,,,,,
,,,,,,,,,,,,a,0.40074,Incorrect,,,,,,t5.png,t2.png,3,0.0000131,21,Female,2020-10-30_01h36.19.558,torte-q,2020.1.3,MacIntel,60,13375,,,,,,,,,,,,,,0,55,55,51,1,,,,,,,,,,,,,,,,,,,,,,,,,,
,,,,,,,,,,,,a,0.4193,Incorrect,,,,,,t5.png,t2.png,3,0.0000131,21,Female,2020-10-30_01h36.19.558,torte-q,2020.1.3,MacIntel,60,13375,,,,,,,,,,,,,,0,56,56,98,1,,,,,,,,,,,,,,,,,,,,,,,,,,
,,,,,,,,,,,,l,0.168345,Correct!,,,,,,t1.png,t4.png,3,0.0000131,21,Female,2020-10-30_01h36.19.558,torte-q,2020.1.3,MacIntel,60,13375,,,,,,,,,,,,,,0,57,57,81,1,,,,,,,,,,,,,,,,,,,,,,,,,,
,,,,,,,,,,,,l,1.368345,Correct!,,,,,,t4.png,t1.png,3,0.0000131,21,Female,2020-10-30_01h36.19.558,torte-q,2020.1.3,MacIntel,60,13375,,,,,,,,,,,,,,0,58,58,93,1,,,,,,,,,,,,,,,,,,,,,,,,,,
,,,,,,,,,,,,l,0.103235,Correct!,,,,,,t2.png,t5.png,3,0.0000131,21,Female,2020-10-30_01h36.19.558,torte-q,2020.1.3,MacIntel,60,13375,,,,,,,,,,,,,,0,59,59,40,1,,,,,,,,,,,,,,,,,,,,,,,,,,
,,,,,,,,,,,,l,0.214415,Incorrect,,,,,,t5.png,t5.png,0,0.978,21,Female,2020-10-30_01h36.19.558,torte-q,2020.1.3,MacIntel,60,13375,,,,,,,,,,,,,,0,60,60,117,1,,,,,,,,,,,,,,,,,,,,,,,,,,
,,,,,,,,,,,,a,1.134165,Correct!,,,,,,t2.png,t1.png,1,0.9,21,Female,2020-10-30_01h36.19.558,torte-q,2020.1.3,MacIntel,60,13375,,,,,,,,,,,,,,0,61,61,118,1,,,,,,,,,,,,,,,,,,,,,,,,,,
,,,,,,,,,,,,l,0.25094,Incorrect,,,,,,t4.png,t5.png,1,0.90025,21,Female,2020-10-30_01h36.19.558,torte-q,2020.1.3,MacIntel,60,13375,,,,,,,,,,,,,,0,62,62,47,1,,,,,,,,,,,,,,,,,,,,,,,,,,
,,,,,,,,,,,,a,0.270075,Correct!,,,,,,t2.png,t3.png,1,0.90855,21,Female,2020-10-30_01h36.19.558,torte-q,2020.1.3,MacIntel,60,13375,,,,,,,,,,,,,,0,63,63,111,1,,,,,,,,,,,,,,,,,,,,,,,,,,
,,,,,,,,,,,,l,0.32041,Correct!,,,,,,t5.png,t1.png,4,9.55E-11,21,Female,2020-10-30_01h36.19.558,torte-q,2020.1.3,MacIntel,60,13375,,,,,,,,,,,,,,0,64,64,71,1,,,,,,,,,,,,,,,,,,,,,,,,,,
,,,,,,,,,,,,a,0.73335,Incorrect,,,,,,t1.png,t2.png,1,0.90025,21,Female,2020-10-30_01h36.19.558,torte-q,2020.1.3,MacIntel,60,13375,,,,,,,,,,,,,,0,65,65,33,1,,,,,,,,,,,,,,,,,,,,,,,,,,
,,,,,,,,,,,,l,0.350655,Incorrect,,,,,,t2.png,t3.png,1,0.90855,21,Female,2020-10-30_01h36.19.558,torte-q,2020.1.3,MacIntel,60,13375,,,,,,,,,,,,,,0,66,66,10,1,,,,,,,,,,,,,,,,,,,,,,,,,,
,,,,,,,,,,,,a,0.120255,Incorrect,,,,,,t1.png,t3.png,2,0.056466,21,Female,2020-10-30_01h36.19.558,torte-q,2020.1.3,MacIntel,60,13375,,,,,,,,,,,,,,0,67,67,87,1,,,,,,,,,,,,,,,,,,,,,,,,,,
,,,,,,,,,,,,a,0.285295,Correct!,,,,,,t3.png,t2.png,1,0.909,21,Female,2020-10-30_01h36.19.558,torte-q,2020.1.3,MacIntel,60,13375,,,,,,,,,,,,,,0,68,68,23,1,,,,,,,,,,,,,,,,,,,,,,,,,,
,,,,,,,,,,,,l,0.23825,Correct!,,,,,,t5.png,t1.png,4,9.55E-11,21,Female,2020-10-30_01h36.19.558,torte-q,2020.1.3,MacIntel,60,13375,,,,,,,,,,,,,,0,69,69,102,1,,,,,,,,,,,,,,,,,,,,,,,,,,
,,,,,,,,,,,,l,0.2835,Incorrect,,,,,,t4.png,t4.png,0,0.98115,21,Female,2020-10-30_01h36.19.558,torte-q,2020.1.3,MacIntel,60,13375,,,,,,,,,,,,,,0,70,70,21,1,,,,,,,,,,,,,,,,,,,,,,,,,,
,,,,,,,,,,,,l,0.49884,Incorrect,,,,,,t4.png,t3.png,1,0.909,21,Female,2020-10-30_01h36.19.558,torte-q,2020.1.3,MacIntel,60,13375,,,,,,,,,,,,,,0,71,71,46,1,,,,,,,,,,,,,,,,,,,,,,,,,,
,,,,,,,,,,,,l,0.77057,Correct!,,,,,,t1.png,t4.png,3,0.0000131,21,Female,2020-10-30_01h36.19.558,torte-q,2020.1.3,MacIntel,60,13375,,,,,,,,,,,,,,0,72,72,107,1,,,,,,,,,,,,,,,,,,,,,,,,,,
,,,,,,,,,,,,l,0.56892,Incorrect,,,,,,t3.png,t2.png,1,0.90855,21,Female,2020-10-30_01h36.19.558,torte-q,2020.1.3,MacIntel,60,13375,,,,,,,,,,,,,,0,73,73,53,1,,,,,,,,,,,,,,,,,,,,,,,,,,
,,,,,,,,,,,,l,0.73367,Correct!,,,,,,t2.png,t1.png,1,0.90025,21,Female,2020-10-30_01h36.19.558,torte-q,2020.1.3,MacIntel,60,13375,,,,,,,,,,,,,,0,74,74,5,1,,,,,,,,,,,,,,,,,,,,,,,,,,
,,,,,,,,,,,,l,0.768935,Incorrect,,,,,,t1.png,t1.png,0,0.97829,21,Female,2020-10-30_01h36.19.558,torte-q,2020.1.3,MacIntel,60,13375,,,,,,,,,,,,,,0,75,75,9,1,,,,,,,,,,,,,,,,,,,,,,,,,,
,,,,,,,,,,,,l,0.61764,Correct!,,,,,,t3.png,t1.png,2,0.0565,21,Female,2020-10-30_01h36.19.558,torte-q,2020.1.3,MacIntel,60,13375,,,,,,,,,,,,,,0,76,76,31,1,,,,,,,,,,,,,,,,,,,,,,,,,,
,,,,,,,,,,,,l,1.268475,Incorrect,,,,,,t5.png,t5.png,0,0.97829,21,Female,2020-10-30_01h36.19.558,torte-q,2020.1.3,MacIntel,60,13375,,,,,,,,,,,,,,0,77,77,73,1,,,,,,,,,,,,,,,,,,,,,,,,,,
,,,,,,,,,,,,a,0.51891,Correct!,,,,,,t1.png,t1.png,0,0.97829,21,Female,2020-10-30_01h36.19.558,torte-q,2020.1.3,MacIntel,60,13375,,,,,,,,,,,,,,0,78,78,67,1,,,,,,,,,,,,,,,,,,,,,,,,,,
,,,,,,,,,,,,l,1.117815,Correct!,,,,,,t3.png,t5.png,2,0.0565,21,Female,2020-10-30_01h36.19.558,torte-q,2020.1.3,MacIntel,60,13375,,,,,,,,,,,,,,0,79,79,83,1,,,,,,,,,,,,,,,,,,,,,,,,,,
,,,,,,,,,,,,a,0.60385,Correct!,,,,,,t5.png,t5.png,0,0.97829,21,Female,2020-10-30_01h36.19.558,torte-q,2020.1.3,MacIntel,60,13375,,,,,,,,,,,,,,0,80,80,70,1,,,,,,,,,,,,,,,,,,,,,,,,,,
,,,,,,,,,,,,a,0.4007,Incorrect,,,,,,t2.png,t5.png,3,0.0000131,21,Female,2020-10-30_01h36.19.558,torte-q,2020.1.3,MacIntel,60,13375,,,,,,,,,,,,,,0,81,81,104,1,,,,,,,,,,,,,,,,,,,,,,,,,,
,,,,,,,,,,,,a,1.151145,Incorrect,,,,,,t2.png,t4.png,2,0.059078,21,Female,2020-10-30_01h36.19.558,torte-q,2020.1.3,MacIntel,60,13375,,,,,,,,,,,,,,0,82,82,11,1,,,,,,,,,,,,,,,,,,,,,,,,,,
,,,,,,,,,,,,a,1.69016,Correct!,,,,,,t4.png,t3.png,1,0.90855,21,Female,2020-10-30_01h36.19.558,torte-q,2020.1.3,MacIntel,60,13375,,,,,,,,,,,,,,0,83,83,45,1,,,,,,,,,,,,,,,,,,,,,,,,,,
,,,,,,,,,,,,l,0.066245,Correct!,,,,,,t1.png,t5.png,4,9.55E-11,21,Female,2020-10-30_01h36.19.558,torte-q,2020.1.3,MacIntel,60,13375,,,,,,,,,,,,,,0,84,84,55,1,,,,,,,,,,,,,,,,,,,,,,,,,,
,,,,,,,,,,,,l,1.41852,Incorrect,,,,,,t2.png,t3.png,1,0.909,21,Female,2020-10-30_01h36.19.558,torte-q,2020.1.3,MacIntel,60,13375,,,,,,,,,,,,,,0,85,85,74,1,,,,,,,,,,,,,,,,,,,,,,,,,,
,,,,,,,,,,,,a,0.31682,Correct!,,,,,,t4.png,t5.png,1,0.90025,21,Female,2020-10-30_01h36.19.558,torte-q,2020.1.3,MacIntel,60,13375,,,,,,,,,,,,,,0,86,86,103,1,,,,,,,,,,,,,,,,,,,,,,,,,,
,,,,,,,,,,,,a,0.45118,Correct!,,,,,,t5.png,t5.png,0,0.97829,21,Female,2020-10-30_01h36.19.558,torte-q,2020.1.3,MacIntel,60,13375,,,,,,,,,,,,,,0,87,87,25,1,,,,,,,,,,,,,,,,,,,,,,,,,,
,,,,,,,,,,,,a,0.31671,Incorrect,,,,,,t5.png,t3.png,2,0.056466,21,Female,2020-10-30_01h36.19.558,torte-q,2020.1.3,MacIntel,60,13375,,,,,,,,,,,,,,0,88,88,56,1,,,,,,,,,,,,,,,,,,,,,,,,,,
,,,,,,,,,,,,l,0.333015,Incorrect,,,,,,t1.png,t1.png,0,0.978,21,Female,2020-10-30_01h36.19.558,torte-q,2020.1.3,MacIntel,60,13375,,,,,,,,,,,,,,0,89,89,28,1,,,,,,,,,,,,,,,,,,,,,,,,,,
,,,,,,,,,,,,a,0.500445,Incorrect,,,,,,t4.png,t2.png,2,0.059078,21,Female,2020-10-30_01h36.19.558,torte-q,2020.1.3,MacIntel,60,13375,,,,,,,,,,,,,,0,90,90,110,1,,,,,,,,,,,,,,,,,,,,,,,,,,
,,,,,,,,,,,,a,0.499525,Incorrect,,,,,,t3.png,t1.png,2,0.056466,21,Female,2020-10-30_01h36.19.558,torte-q,2020.1.3,MacIntel,60,13375,,,,,,,,,,,,,,0,91,91,64,1,,,,,,,,,,,,,,,,,,,,,,,,,,
,,,,,,,,,,,,a,0.01705,Correct!,,,,,,t5.png,t5.png,0,0.97829,21,Female,2020-10-30_01h36.19.558,torte-q,2020.1.3,MacIntel,60,13375,,,,,,,,,,,,,,0,92,92,94,1,,,,,,,,,,,,,,,,,,,,,,,,,,
,,,,,,,,,,,,l,0.617735,Correct!,,,,,,t1.png,t4.png,3,0.0000131,21,Female,2020-10-30_01h36.19.558,torte-q,2020.1.3,MacIntel,60,13375,,,,,,,,,,,,,,0,93,93,50,1,,,,,,,,,,,,,,,,,,,,,,,,,,
,,,,,,,,,,,,a,0.25103,Correct!,,,,,,t4.png,t3.png,1,0.909,21,Female,2020-10-30_01h36.19.558,torte-q,2020.1.3,MacIntel,60,13375,,,,,,,,,,,,,,0,94,94,20,1,,,,,,,,,,,,,,,,,,,,,,,,,,
,,,,,,,,,,,,l,0.685045,Correct!,,,,,,t4.png,t2.png,2,0.0591,21,Female,2020-10-30_01h36.19.558,torte-q,2020.1.3,MacIntel,60,13375,,,,,,,,,,,,,,0,95,95,36,1,,,,,,,,,,,,,,,,,,,,,,,,,,
,,,,,,,,,,,,a,0.401165,Correct!,,,,,,t2.png,t3.png,1,0.90855,21,Female,2020-10-30_01h36.19.558,torte-q,2020.1.3,MacIntel,60,13375,,,,,,,,,,,,,,0,96,96,65,1,,,,,,,,,,,,,,,,,,,,,,,,,,
,,,,,,,,,,,,a,0.401065,Incorrect,,,,,,t1.png,t3.png,2,0.056466,21,Female,2020-10-30_01h36.19.558,torte-q,2020.1.3,MacIntel,60,13375,,,,,,,,,,,,,,0,97,97,69,1,,,,,,,,,,,,,,,,,,,,,,,,,,
,,,,,,,,,,,,l,0.087785,Incorrect,,,,,,t4.png,t5.png,1,0.9,21,Female,2020-10-30_01h36.19.558,torte-q,2020.1.3,MacIntel,60,13375,,,,,,,,,,,,,,0,98,98,115,1,,,,,,,,,,,,,,,,,,,,,,,,,,
,,,,,,,,,,,,a,0.03366,Incorrect,,,,,,t1.png,t5.png,4,9.55E-11,21,Female,2020-10-30_01h36.19.558,torte-q,2020.1.3,MacIntel,60,13375,,,,,,,,,,,,,,0,99,99,41,1,,,,,,,,,,,,,,,,,,,,,,,,,,
,,,,,,,,,,,,a,0.43513,Correct!,,,,,,t2.png,t2.png,0,0.98115,21,Female,2020-10-30_01h36.19.558,torte-q,2020.1.3,MacIntel,60,13375,,,,,,,,,,,,,,0,100,100,7,1,,,,,,,,,,,,,,,,,,,,,,,,,,
,,,,,,,,,,,,a,0.68415,Incorrect,,,,,,t2.png,t5.png,3,0.0000131,21,Female,2020-10-30_01h36.19.558,torte-q,2020.1.3,MacIntel,60,13375,,,,,,,,,,,,,,0,101,101,66,1,,,,,,,,,,,,,,,,,,,,,,,,,,
,,,,,,,,,,,,a,1.78363,Incorrect,,,,,,t3.png,t5.png,2,0.056466,21,Female,2020-10-30_01h36.19.558,torte-q,2020.1.3,MacIntel,60,13375,,,,,,,,,,,,,,0,102,102,6,1,,,,,,,,,,,,,,,,,,,,,,,,,,
,,,,,,,,,,,,a,0.335255,Correct!,,,,,,t3.png,t4.png,1,0.909,21,Female,2020-10-30_01h36.19.558,torte-q,2020.1.3,MacIntel,60,13375,,,,,,,,,,,,,,0,103,103,89,1,,,,,,,,,,,,,,,,,,,,,,,,,,
,,,,,,,,,,,,l,0.103475,Correct!,,,,,,t5.png,t3.png,2,0.0565,21,Female,2020-10-30_01h36.19.558,torte-q,2020.1.3,MacIntel,60,13375,,,,,,,,,,,,,,0,104,104,39,1,,,,,,,,,,,,,,,,,,,,,,,,,,
,,,,,,,,,,,,a,0.700975,Incorrect,,,,,,t1.png,t5.png,4,9.55E-11,21,Female,2020-10-30_01h36.19.558,torte-q,2020.1.3,MacIntel,60,13375,,,,,,,,,,,,,,0,105,105,12,1,,,,,,,,,,,,,,,,,,,,,,,,,,
,,,,,,,,,,,,l,0.866295,Correct!,,,,,,t5.png,t3.png,2,0.056466,21,Female,2020-10-30_01h36.19.558,torte-q,2020.1.3,MacIntel,60,13375,,,,,,,,,,,,,,0,106,106,108,1,,,,,,,,,,,,,,,,,,,,,,,,,,
,,,,,,,,,,,,a,0.98564,Correct!,,,,,,t2.png,t3.png,1,0.90855,21,Female,2020-10-30_01h36.19.558,torte-q,2020.1.3,MacIntel,60,13375,,,,,,,,,,,,,,0,107,107,68,1,,,,,,,,,,,,,,,,,,,,,,,,,,
,,,,,,,,,,,,,,Too slow :(,,,,,,t4.png,t1.png,3,0.0000131,21,Female,2020-10-30_01h36.19.558,torte-q,2020.1.3,MacIntel,60,13375,,,,,,,,,,,,,,0,108,108,13,1,,,,,,,,,,,,,,,,,,,,,,,,,,
,,,,,,,,,,,,a,0.404395,Incorrect,,,,,,t5.png,t1.png,4,9.55E-11,21,Female,2020-10-30_01h36.19.558,torte-q,2020.1.3,MacIntel,60,13375,,,,,,,,,,,,,,0,109,109,43,1,,,,,,,,,,,,,,,,,,,,,,,,,,
,,,,,,,,,,,,a,0.918125,Incorrect,,,,,,t2.png,t4.png,2,0.059078,21,Female,2020-10-30_01h36.19.558,torte-q,2020.1.3,MacIntel,60,13375,,,,,,,,,,,,,,0,110,110,37,1,,,,,,,,,,,,,,,,,,,,,,,,,,
,,,,,,,,,,,,a,1.953635,Incorrect,,,,,,t1.png,t4.png,3,0.0000131,21,Female,2020-10-30_01h36.19.558,torte-q,2020.1.3,MacIntel,60,13375,,,,,,,,,,,,,,0,111,111,92,1,,,,,,,,,,,,,,,,,,,,,,,,,,
,,,,,,,,,,,,a,0.48478,Correct!,,,,,,t4.png,t4.png,0,0.98115,21,Female,2020-10-30_01h36.19.558,torte-q,2020.1.3,MacIntel,60,13375,,,,,,,,,,,,,,0,112,112,80,1,,,,,,,,,,,,,,,,,,,,,,,,,,
,,,,,,,,,,,,l,2.354975,Incorrect,,,,,,t4.png,t2.png,2,0.059078,21,Female,2020-10-30_01h36.19.558,torte-q,2020.1.3,MacIntel,60,13375,,,,,,,,,,,,,,0,113,113,88,1,,,,,,,,,,,,,,,,,,,,,,,,,,
,,,,,,,,,,,,l,2.118505,Correct!,,,,,,t2.png,t4.png,2,0.0591,21,Female,2020-10-30_01h36.19.558,torte-q,2020.1.3,MacIntel,60,13375,,,,,,,,,,,,,,0,114,114,15,1,,,,,,,,,,,,,,,,,,,,,,,,,,
,,,,,,,,,,,,l,1.589345,Incorrect,,,,,,t5.png,t4.png,1,0.90025,21,Female,2020-10-30_01h36.19.558,torte-q,2020.1.3,MacIntel,60,13375,,,,,,,,,,,,,,0,115,115,34,1,,,,,,,,,,,,,,,,,,,,,,,,,,
,,,,,,,,,,,,a,0.45223,Incorrect,,,,,,t4.png,t2.png,2,0.059078,21,Female,2020-10-30_01h36.19.558,torte-q,2020.1.3,MacIntel,60,13375,,,,,,,,,,,,,,0,116,116,86,1,,,,,,,,,,,,,,,,,,,,,,,,,,
,,,,,,,,,,,,a,1.267365,Incorrect,,,,,,t5.png,t1.png,4,9.55E-11,21,Female,2020-10-30_01h36.19.558,torte-q,2020.1.3,MacIntel,60,13375,,,,,,,,,,,,,,0,117,117,100,1,,,,,,,,,,,,,,,,,,,,,,,,,,
,,,,,,,,,,,,a,1.48648,Incorrect,,,,,,t3.png,t5.png,2,0.0565,21,Female,2020-10-30_01h36.19.558,torte-q,2020.1.3,MacIntel,60,13375,,,,,,,,,,,,,,0,118,118,30,1,,,,,,,,,,,,,,,,,,,,,,,,,,
,,,,,,,,,,,,l,0.56976,Incorrect,,,,,,t3.png,t1.png,2,0.056466,21,Female,2020-10-30_01h36.19.558,torte-q,2020.1.3,MacIntel,60,13375,,,,,,,,,,,,,,0,119,119,32,1,,,,,,,,,,,,,,,,,,,,,,,,,,
,,,,,,,,,,,,,,,,,,,,,,,,21,Female,2020-10-30_01h36.19.558,torte-q,2020.1.3,MacIntel,60,13375,a,1.034325,,,,,,,,,,,,,,,,,2.948154297,9.952955,110.4101563,62.73828125,1,0,0,s3,-0.234375,-24.58984375,1,0,0,t3,200.1210938,-111.7890625,1,0,0,proceed,space,1.105175,space,2.305215,space,2.433535
