key_resp_8.keys,key_resp_8.rt,key_resp_9.keys,key_resp_9.rt,key_resp_10.keys,key_resp_10.rt,key_resp_11.keys,key_resp_11.rt,key_resp_2.keys,key_resp_2.rt,key_resp_3.keys,key_resp_3.rt,key_resp.keys,key_resp.rt,Feedback,train.thisRepN,train.thisTrialN,train.thisN,train.thisIndex,train.ran,torta_sx,torta_dx,difference,probability,age,gender,date,expName,psychopyVersion,OS,frameRate,participant,key_resp_15.keys,key_resp_15.rt,key_resp_6.keys,key_resp_6.rt,test1.thisRepN,test1.thisTrialN,test1.thisN,test1.thisIndex,test1.ran,key_resp_16.keys,key_resp_16.rt,key_resp_7.keys,key_resp_7.rt,test2.thisRepN,test2.thisTrialN,test2.thisN,test2.thisIndex,test2.ran,rating.response,rating.rt,mouse.x,mouse.y,mouse.leftButton,mouse.midButton,mouse.rightButton,mouse.clicked_name,mouse_2.x,mouse_2.y,mouse_2.leftButton,mouse_2.midButton,mouse_2.rightButton,mouse_2.clicked_name,mouse_3.x,mouse_3.y,mouse_3.leftButton,mouse_3.midButton,mouse_3.rightButton,mouse_3.clicked_name,key_resp_12.keys,key_resp_12.rt,key_resp_13.keys,key_resp_13.rt,key_resp_14.keys,key_resp_14.rt
space,47.26489,space,2.54293,space,0.63516,space,7.86259,space,12.411405,down,36.44212,a,2.365135,Incorrect,0,0,0,82,1,t5.png,t1.png,4,9.55E-11,20,Female,2020-11-09_12h01.06.585,torte-q,2020.1.3,Win32,60,13386,,,,,,,,,,,,,,,,,,,,,,,,,,,,,,,,,,,,,,,,,,,,
,,,,,,,,,,,,l,1.28077,Correct!,0,1,1,89,1,t1.png,t4.png,3,0.0000131,20,Female,2020-11-09_12h01.06.585,torte-q,2020.1.3,Win32,60,13386,,,,,,,,,,,,,,,,,,,,,,,,,,,,,,,,,,,,,,,,,,,,
,,,,,,,,,,,,l,1.833225,Correct!,0,2,2,40,1,t1.png,t5.png,4,9.55E-11,20,Female,2020-11-09_12h01.06.585,torte-q,2020.1.3,Win32,60,13386,,,,,,,,,,,,,,,,,,,,,,,,,,,,,,,,,,,,,,,,,,,,
,,,,,,,,,,,,l,1.53728,Correct!,0,3,3,91,1,t1.png,t4.png,3,0.0000131,20,Female,2020-11-09_12h01.06.585,torte-q,2020.1.3,Win32,60,13386,,,,,,,,,,,,,,,,,,,,,,,,,,,,,,,,,,,,,,,,,,,,
,,,,,,,,,,,,a,2.24635,Correct!,0,4,4,13,1,t5.png,t5.png,0,0.97829,20,Female,2020-11-09_12h01.06.585,torte-q,2020.1.3,Win32,60,13386,,,,,,,,,,,,,,,,,,,,,,,,,,,,,,,,,,,,,,,,,,,,
,,,,,,,,,,,,a,1.355925,Correct!,0,5,5,39,1,t3.png,t2.png,1,0.90855,20,Female,2020-11-09_12h01.06.585,torte-q,2020.1.3,Win32,60,13386,,,,,,,,,,,,,,,,,,,,,,,,,,,,,,,,,,,,,,,,,,,,
,,,,,,,,,,,,a,1.580375,Correct!,0,6,6,34,1,t5.png,t4.png,1,0.9,20,Female,2020-11-09_12h01.06.585,torte-q,2020.1.3,Win32,60,13386,,,,,,,,,,,,,,,,,,,,,,,,,,,,,,,,,,,,,,,,,,,,
,,,,,,,,,,,,a,1.283325,Incorrect,0,7,7,73,1,t4.png,t2.png,2,0.059078,20,Female,2020-11-09_12h01.06.585,torte-q,2020.1.3,Win32,60,13386,,,,,,,,,,,,,,,,,,,,,,,,,,,,,,,,,,,,,,,,,,,,
,,,,,,,,,,,,a,0.88925,Incorrect,0,8,8,46,1,t4.png,t2.png,2,0.059078,20,Female,2020-11-09_12h01.06.585,torte-q,2020.1.3,Win32,60,13386,,,,,,,,,,,,,,,,,,,,,,,,,,,,,,,,,,,,,,,,,,,,
,,,,,,,,,,,,l,0.946295,Correct!,0,9,9,104,1,t2.png,t3.png,1,0.90855,20,Female,2020-11-09_12h01.06.585,torte-q,2020.1.3,Win32,60,13386,,,,,,,,,,,,,,,,,,,,,,,,,,,,,,,,,,,,,,,,,,,,
,,,,,,,,,,,,l,0.748175,Incorrect,0,10,10,106,1,t2.png,t3.png,1,0.90855,20,Female,2020-11-09_12h01.06.585,torte-q,2020.1.3,Win32,60,13386,,,,,,,,,,,,,,,,,,,,,,,,,,,,,,,,,,,,,,,,,,,,
,,,,,,,,,,,,l,0.834965,Correct!,0,11,11,119,1,t1.png,t5.png,4,9.55E-11,20,Female,2020-11-09_12h01.06.585,torte-q,2020.1.3,Win32,60,13386,,,,,,,,,,,,,,,,,,,,,,,,,,,,,,,,,,,,,,,,,,,,
,,,,,,,,,,,,l,1.274995,Incorrect,0,12,12,78,1,t1.png,t1.png,0,0.978,20,Female,2020-11-09_12h01.06.585,torte-q,2020.1.3,Win32,60,13386,,,,,,,,,,,,,,,,,,,,,,,,,,,,,,,,,,,,,,,,,,,,
,,,,,,,,,,,,a,1.21626,Incorrect,0,13,13,61,1,t1.png,t4.png,3,0.0000131,20,Female,2020-11-09_12h01.06.585,torte-q,2020.1.3,Win32,60,13386,,,,,,,,,,,,,,,,,,,,,,,,,,,,,,,,,,,,,,,,,,,,
,,,,,,,,,,,,a,1.48237,Correct!,0,14,14,24,1,t4.png,t2.png,2,0.059078,20,Female,2020-11-09_12h01.06.585,torte-q,2020.1.3,Win32,60,13386,,,,,,,,,,,,,,,,,,,,,,,,,,,,,,,,,,,,,,,,,,,,
,,,,,,,,,,,,a,1.034425,Incorrect,0,15,15,27,1,t3.png,t1.png,2,0.0565,20,Female,2020-11-09_12h01.06.585,torte-q,2020.1.3,Win32,60,13386,,,,,,,,,,,,,,,,,,,,,,,,,,,,,,,,,,,,,,,,,,,,
,,,,,,,,,,,,l,1.10486,Correct!,0,16,16,103,1,t3.png,t1.png,2,0.056466,20,Female,2020-11-09_12h01.06.585,torte-q,2020.1.3,Win32,60,13386,,,,,,,,,,,,,,,,,,,,,,,,,,,,,,,,,,,,,,,,,,,,
,,,,,,,,,,,,l,0.984835,Correct!,0,17,17,83,1,t3.png,t1.png,2,0.056466,20,Female,2020-11-09_12h01.06.585,torte-q,2020.1.3,Win32,60,13386,,,,,,,,,,,,,,,,,,,,,,,,,,,,,,,,,,,,,,,,,,,,
,,,,,,,,,,,,l,1.38217,Incorrect,0,18,18,22,1,t2.png,t3.png,1,0.90855,20,Female,2020-11-09_12h01.06.585,torte-q,2020.1.3,Win32,60,13386,,,,,,,,,,,,,,,,,,,,,,,,,,,,,,,,,,,,,,,,,,,,
,,,,,,,,,,,,l,1.581705,Incorrect,0,19,19,101,1,t4.png,t5.png,1,0.90025,20,Female,2020-11-09_12h01.06.585,torte-q,2020.1.3,Win32,60,13386,,,,,,,,,,,,,,,,,,,,,,,,,,,,,,,,,,,,,,,,,,,,
,,,,,,,,,,,,a,1.830925,Correct!,0,20,20,71,1,t5.png,t5.png,0,0.97829,20,Female,2020-11-09_12h01.06.585,torte-q,2020.1.3,Win32,60,13386,,,,,,,,,,,,,,,,,,,,,,,,,,,,,,,,,,,,,,,,,,,,
,,,,,,,,,,,,a,1.036595,Correct!,0,21,21,25,1,t5.png,t5.png,0,0.97829,20,Female,2020-11-09_12h01.06.585,torte-q,2020.1.3,Win32,60,13386,,,,,,,,,,,,,,,,,,,,,,,,,,,,,,,,,,,,,,,,,,,,
,,,,,,,,,,,,l,1.03558,Incorrect,0,22,22,96,1,t1.png,t1.png,0,0.97829,20,Female,2020-11-09_12h01.06.585,torte-q,2020.1.3,Win32,60,13386,,,,,,,,,,,,,,,,,,,,,,,,,,,,,,,,,,,,,,,,,,,,
,,,,,,,,,,,,l,1.239985,Incorrect,0,23,23,110,1,t4.png,t5.png,1,0.90025,20,Female,2020-11-09_12h01.06.585,torte-q,2020.1.3,Win32,60,13386,,,,,,,,,,,,,,,,,,,,,,,,,,,,,,,,,,,,,,,,,,,,
,,,,,,,,,,,,a,1.147565,Incorrect,0,24,24,5,1,t2.png,t4.png,2,0.059078,20,Female,2020-11-09_12h01.06.585,torte-q,2020.1.3,Win32,60,13386,,,,,,,,,,,,,,,,,,,,,,,,,,,,,,,,,,,,,,,,,,,,
,,,,,,,,,,,,l,0.6291,Incorrect,0,25,25,75,1,t1.png,t1.png,0,0.97829,20,Female,2020-11-09_12h01.06.585,torte-q,2020.1.3,Win32,60,13386,,,,,,,,,,,,,,,,,,,,,,,,,,,,,,,,,,,,,,,,,,,,
,,,,,,,,,,,,l,2.327595,Correct!,0,26,26,60,1,t2.png,t4.png,2,0.059078,20,Female,2020-11-09_12h01.06.585,torte-q,2020.1.3,Win32,60,13386,,,,,,,,,,,,,,,,,,,,,,,,,,,,,,,,,,,,,,,,,,,,
,,,,,,,,,,,,l,1.749275,Correct!,0,27,27,11,1,t1.png,t4.png,3,0.0000131,20,Female,2020-11-09_12h01.06.585,torte-q,2020.1.3,Win32,60,13386,,,,,,,,,,,,,,,,,,,,,,,,,,,,,,,,,,,,,,,,,,,,
,,,,,,,,,,,,l,1.368925,Incorrect,0,28,28,63,1,t2.png,t3.png,1,0.909,20,Female,2020-11-09_12h01.06.585,torte-q,2020.1.3,Win32,60,13386,,,,,,,,,,,,,,,,,,,,,,,,,,,,,,,,,,,,,,,,,,,,
,,,,,,,,,,,,a,1.135495,Correct!,0,29,29,95,1,t1.png,t1.png,0,0.978,20,Female,2020-11-09_12h01.06.585,torte-q,2020.1.3,Win32,60,13386,,,,,,,,,,,,,,,,,,,,,,,,,,,,,,,,,,,,,,,,,,,,
,,,,,,,,,,,,l,1.23224,Incorrect,0,30,30,49,1,t4.png,t5.png,1,0.9,20,Female,2020-11-09_12h01.06.585,torte-q,2020.1.3,Win32,60,13386,,,,,,,,,,,,,,,,,,,,,,,,,,,,,,,,,,,,,,,,,,,,
,,,,,,,,,,,,l,1.329795,Correct!,0,31,31,12,1,t5.png,t1.png,4,9.55E-11,20,Female,2020-11-09_12h01.06.585,torte-q,2020.1.3,Win32,60,13386,,,,,,,,,,,,,,,,,,,,,,,,,,,,,,,,,,,,,,,,,,,,
,,,,,,,,,,,,l,0.886065,Correct!,0,32,32,35,1,t1.png,t4.png,3,0.0000131,20,Female,2020-11-09_12h01.06.585,torte-q,2020.1.3,Win32,60,13386,,,,,,,,,,,,,,,,,,,,,,,,,,,,,,,,,,,,,,,,,,,,
,,,,,,,,,,,,l,1.33487,Correct!,0,33,33,111,1,t5.png,t1.png,4,9.55E-11,20,Female,2020-11-09_12h01.06.585,torte-q,2020.1.3,Win32,60,13386,,,,,,,,,,,,,,,,,,,,,,,,,,,,,,,,,,,,,,,,,,,,
,,,,,,,,,,,,a,1.817925,Incorrect,0,34,34,54,1,t1.png,t5.png,4,9.55E-11,20,Female,2020-11-09_12h01.06.585,torte-q,2020.1.3,Win32,60,13386,,,,,,,,,,,,,,,,,,,,,,,,,,,,,,,,,,,,,,,,,,,,
,,,,,,,,,,,,l,1.400295,Correct!,0,35,35,56,1,t5.png,t1.png,4,9.55E-11,20,Female,2020-11-09_12h01.06.585,torte-q,2020.1.3,Win32,60,13386,,,,,,,,,,,,,,,,,,,,,,,,,,,,,,,,,,,,,,,,,,,,
,,,,,,,,,,,,a,1.549045,Correct!,0,36,36,62,1,t5.png,t5.png,0,0.978,20,Female,2020-11-09_12h01.06.585,torte-q,2020.1.3,Win32,60,13386,,,,,,,,,,,,,,,,,,,,,,,,,,,,,,,,,,,,,,,,,,,,
,,,,,,,,,,,,l,2.27512,Incorrect,0,37,37,23,1,t5.png,t4.png,1,0.90025,20,Female,2020-11-09_12h01.06.585,torte-q,2020.1.3,Win32,60,13386,,,,,,,,,,,,,,,,,,,,,,,,,,,,,,,,,,,,,,,,,,,,
,,,,,,,,,,,,l,0.899825,Correct!,0,38,38,26,1,t4.png,t2.png,2,0.0591,20,Female,2020-11-09_12h01.06.585,torte-q,2020.1.3,Win32,60,13386,,,,,,,,,,,,,,,,,,,,,,,,,,,,,,,,,,,,,,,,,,,,
,,,,,,,,,,,,l,1.064115,Correct!,0,39,39,53,1,t3.png,t1.png,2,0.056466,20,Female,2020-11-09_12h01.06.585,torte-q,2020.1.3,Win32,60,13386,,,,,,,,,,,,,,,,,,,,,,,,,,,,,,,,,,,,,,,,,,,,
,,,,,,,,,,,,l,2.23308,Incorrect,0,40,40,113,1,t5.png,t4.png,1,0.9,20,Female,2020-11-09_12h01.06.585,torte-q,2020.1.3,Win32,60,13386,,,,,,,,,,,,,,,,,,,,,,,,,,,,,,,,,,,,,,,,,,,,
,,,,,,,,,,,,a,1.05321,Correct!,0,41,41,48,1,t5.png,t5.png,0,0.97829,20,Female,2020-11-09_12h01.06.585,torte-q,2020.1.3,Win32,60,13386,,,,,,,,,,,,,,,,,,,,,,,,,,,,,,,,,,,,,,,,,,,,
,,,,,,,,,,,,a,0.950955,Correct!,0,42,42,20,1,t2.png,t3.png,1,0.90855,20,Female,2020-11-09_12h01.06.585,torte-q,2020.1.3,Win32,60,13386,,,,,,,,,,,,,,,,,,,,,,,,,,,,,,,,,,,,,,,,,,,,
,,,,,,,,,,,,l,1.203805,Correct!,0,43,43,14,1,t2.png,t4.png,2,0.059078,20,Female,2020-11-09_12h01.06.585,torte-q,2020.1.3,Win32,60,13386,,,,,,,,,,,,,,,,,,,,,,,,,,,,,,,,,,,,,,,,,,,,
,,,,,,,,,,,,l,0.987255,Correct!,0,44,44,51,1,t3.png,t1.png,2,0.056466,20,Female,2020-11-09_12h01.06.585,torte-q,2020.1.3,Win32,60,13386,,,,,,,,,,,,,,,,,,,,,,,,,,,,,,,,,,,,,,,,,,,,
,,,,,,,,,,,,l,0.819965,Incorrect,0,45,45,100,1,t4.png,t5.png,1,0.90025,20,Female,2020-11-09_12h01.06.585,torte-q,2020.1.3,Win32,60,13386,,,,,,,,,,,,,,,,,,,,,,,,,,,,,,,,,,,,,,,,,,,,
,,,,,,,,,,,,l,0.88311,Correct!,0,46,46,67,1,t1.png,t5.png,4,9.55E-11,20,Female,2020-11-09_12h01.06.585,torte-q,2020.1.3,Win32,60,13386,,,,,,,,,,,,,,,,,,,,,,,,,,,,,,,,,,,,,,,,,,,,
,,,,,,,,,,,,l,0.79825,Correct!,0,47,47,69,1,t4.png,t2.png,2,0.059078,20,Female,2020-11-09_12h01.06.585,torte-q,2020.1.3,Win32,60,13386,,,,,,,,,,,,,,,,,,,,,,,,,,,,,,,,,,,,,,,,,,,,
,,,,,,,,,,,,l,0.777475,Correct!,0,48,48,117,1,t1.png,t5.png,4,9.55E-11,20,Female,2020-11-09_12h01.06.585,torte-q,2020.1.3,Win32,60,13386,,,,,,,,,,,,,,,,,,,,,,,,,,,,,,,,,,,,,,,,,,,,
,,,,,,,,,,,,a,0.836695,Correct!,0,49,49,29,1,t5.png,t5.png,0,0.97829,20,Female,2020-11-09_12h01.06.585,torte-q,2020.1.3,Win32,60,13386,,,,,,,,,,,,,,,,,,,,,,,,,,,,,,,,,,,,,,,,,,,,
,,,,,,,,,,,,a,1.131445,Incorrect,0,50,50,108,1,t5.png,t1.png,4,9.55E-11,20,Female,2020-11-09_12h01.06.585,torte-q,2020.1.3,Win32,60,13386,,,,,,,,,,,,,,,,,,,,,,,,,,,,,,,,,,,,,,,,,,,,
,,,,,,,,,,,,a,0.81037,Correct!,0,51,51,64,1,t1.png,t1.png,0,0.978,20,Female,2020-11-09_12h01.06.585,torte-q,2020.1.3,Win32,60,13386,,,,,,,,,,,,,,,,,,,,,,,,,,,,,,,,,,,,,,,,,,,,
,,,,,,,,,,,,a,1.466895,Incorrect,0,52,52,94,1,t5.png,t1.png,4,9.55E-11,20,Female,2020-11-09_12h01.06.585,torte-q,2020.1.3,Win32,60,13386,,,,,,,,,,,,,,,,,,,,,,,,,,,,,,,,,,,,,,,,,,,,
,,,,,,,,,,,,l,0.76505,Correct!,0,53,53,80,1,t1.png,t4.png,3,0.0000131,20,Female,2020-11-09_12h01.06.585,torte-q,2020.1.3,Win32,60,13386,,,,,,,,,,,,,,,,,,,,,,,,,,,,,,,,,,,,,,,,,,,,
,,,,,,,,,,,,l,1.13079,Incorrect,0,54,54,16,1,t5.png,t4.png,1,0.9,20,Female,2020-11-09_12h01.06.585,torte-q,2020.1.3,Win32,60,13386,,,,,,,,,,,,,,,,,,,,,,,,,,,,,,,,,,,,,,,,,,,,
,,,,,,,,,,,,a,0.964805,Correct!,0,55,55,92,1,t2.png,t3.png,1,0.909,20,Female,2020-11-09_12h01.06.585,torte-q,2020.1.3,Win32,60,13386,,,,,,,,,,,,,,,,,,,,,,,,,,,,,,,,,,,,,,,,,,,,
,,,,,,,,,,,,l,0.78656,Incorrect,0,56,56,66,1,t4.png,t5.png,1,0.9,20,Female,2020-11-09_12h01.06.585,torte-q,2020.1.3,Win32,60,13386,,,,,,,,,,,,,,,,,,,,,,,,,,,,,,,,,,,,,,,,,,,,
,,,,,,,,,,,,l,0.798,Incorrect,0,57,57,85,1,t3.png,t2.png,1,0.90855,20,Female,2020-11-09_12h01.06.585,torte-q,2020.1.3,Win32,60,13386,,,,,,,,,,,,,,,,,,,,,,,,,,,,,,,,,,,,,,,,,,,,
,,,,,,,,,,,,l,0.56554,Incorrect,0,58,58,112,1,t1.png,t1.png,0,0.97829,20,Female,2020-11-09_12h01.06.585,torte-q,2020.1.3,Win32,60,13386,,,,,,,,,,,,,,,,,,,,,,,,,,,,,,,,,,,,,,,,,,,,
,,,,,,,,,,,,l,0.800855,Incorrect,0,59,59,76,1,t3.png,t2.png,1,0.90855,20,Female,2020-11-09_12h01.06.585,torte-q,2020.1.3,Win32,60,13386,,,,,,,,,,,,,,,,,,,,,,,,,,,,,,,,,,,,,,,,,,,,
,,,,,,,,,,,,a,0.83389,Correct!,0,60,60,118,1,t5.png,t5.png,0,0.978,20,Female,2020-11-09_12h01.06.585,torte-q,2020.1.3,Win32,60,13386,,,,,,,,,,,,,,,,,,,,,,,,,,,,,,,,,,,,,,,,,,,,
,,,,,,,,,,,,l,1.02218,Correct!,0,61,61,102,1,t4.png,t2.png,2,0.059078,20,Female,2020-11-09_12h01.06.585,torte-q,2020.1.3,Win32,60,13386,,,,,,,,,,,,,,,,,,,,,,,,,,,,,,,,,,,,,,,,,,,,
,,,,,,,,,,,,a,0.93272,Correct!,0,62,62,70,1,t5.png,t5.png,0,0.978,20,Female,2020-11-09_12h01.06.585,torte-q,2020.1.3,Win32,60,13386,,,,,,,,,,,,,,,,,,,,,,,,,,,,,,,,,,,,,,,,,,,,
,,,,,,,,,,,,l,0.677425,Correct!,0,63,63,43,1,t4.png,t2.png,2,0.059078,20,Female,2020-11-09_12h01.06.585,torte-q,2020.1.3,Win32,60,13386,,,,,,,,,,,,,,,,,,,,,,,,,,,,,,,,,,,,,,,,,,,,
,,,,,,,,,,,,a,1.633825,Incorrect,0,64,64,90,1,t1.png,t5.png,4,9.55E-11,20,Female,2020-11-09_12h01.06.585,torte-q,2020.1.3,Win32,60,13386,,,,,,,,,,,,,,,,,,,,,,,,,,,,,,,,,,,,,,,,,,,,
,,,,,,,,,,,,l,1.370305,Incorrect,0,65,65,116,1,t5.png,t4.png,1,0.90025,20,Female,2020-11-09_12h01.06.585,torte-q,2020.1.3,Win32,60,13386,,,,,,,,,,,,,,,,,,,,,,,,,,,,,,,,,,,,,,,,,,,,
,,,,,,,,,,,,l,1.015895,Incorrect,0,66,66,42,1,t5.png,t4.png,1,0.90025,20,Female,2020-11-09_12h01.06.585,torte-q,2020.1.3,Win32,60,13386,,,,,,,,,,,,,,,,,,,,,,,,,,,,,,,,,,,,,,,,,,,,
,,,,,,,,,,,,a,0.997985,Incorrect,0,67,67,0,1,t5.png,t1.png,4,9.55E-11,20,Female,2020-11-09_12h01.06.585,torte-q,2020.1.3,Win32,60,13386,,,,,,,,,,,,,,,,,,,,,,,,,,,,,,,,,,,,,,,,,,,,
,,,,,,,,,,,,l,0.840055,Correct!,0,68,68,79,1,t3.png,t2.png,1,0.909,20,Female,2020-11-09_12h01.06.585,torte-q,2020.1.3,Win32,60,13386,,,,,,,,,,,,,,,,,,,,,,,,,,,,,,,,,,,,,,,,,,,,
,,,,,,,,,,,,l,0.724585,Correct!,0,69,69,1,1,t2.png,t4.png,2,0.059078,20,Female,2020-11-09_12h01.06.585,torte-q,2020.1.3,Win32,60,13386,,,,,,,,,,,,,,,,,,,,,,,,,,,,,,,,,,,,,,,,,,,,
,,,,,,,,,,,,a,0.987345,Correct!,0,70,70,44,1,t2.png,t3.png,1,0.909,20,Female,2020-11-09_12h01.06.585,torte-q,2020.1.3,Win32,60,13386,,,,,,,,,,,,,,,,,,,,,,,,,,,,,,,,,,,,,,,,,,,,
,,,,,,,,,,,,l,1.14137,Incorrect,0,71,71,2,1,t3.png,t2.png,1,0.90855,20,Female,2020-11-09_12h01.06.585,torte-q,2020.1.3,Win32,60,13386,,,,,,,,,,,,,,,,,,,,,,,,,,,,,,,,,,,,,,,,,,,,
,,,,,,,,,,,,l,0.92578,Correct!,0,72,72,19,1,t4.png,t2.png,2,0.059078,20,Female,2020-11-09_12h01.06.585,torte-q,2020.1.3,Win32,60,13386,,,,,,,,,,,,,,,,,,,,,,,,,,,,,,,,,,,,,,,,,,,,
,,,,,,,,,,,,a,1.083185,Incorrect,0,73,73,87,1,t5.png,t1.png,4,9.55E-11,20,Female,2020-11-09_12h01.06.585,torte-q,2020.1.3,Win32,60,13386,,,,,,,,,,,,,,,,,,,,,,,,,,,,,,,,,,,,,,,,,,,,
,,,,,,,,,,,,a,1.14238,Correct!,0,74,74,97,1,t5.png,t5.png,0,0.97829,20,Female,2020-11-09_12h01.06.585,torte-q,2020.1.3,Win32,60,13386,,,,,,,,,,,,,,,,,,,,,,,,,,,,,,,,,,,,,,,,,,,,
,,,,,,,,,,,,l,2.09706,Incorrect,0,75,75,107,1,t1.png,t1.png,0,0.978,20,Female,2020-11-09_12h01.06.585,torte-q,2020.1.3,Win32,60,13386,,,,,,,,,,,,,,,,,,,,,,,,,,,,,,,,,,,,,,,,,,,,
,,,,,,,,,,,,l,0.62249,Incorrect,0,76,76,8,1,t3.png,t2.png,1,0.90855,20,Female,2020-11-09_12h01.06.585,torte-q,2020.1.3,Win32,60,13386,,,,,,,,,,,,,,,,,,,,,,,,,,,,,,,,,,,,,,,,,,,,
,,,,,,,,,,,,l,1.52091,Incorrect,0,77,77,55,1,t2.png,t4.png,2,0.059078,20,Female,2020-11-09_12h01.06.585,torte-q,2020.1.3,Win32,60,13386,,,,,,,,,,,,,,,,,,,,,,,,,,,,,,,,,,,,,,,,,,,,
,,,,,,,,,,,,l,0.98453,Correct!,0,78,78,38,1,t3.png,t1.png,2,0.056466,20,Female,2020-11-09_12h01.06.585,torte-q,2020.1.3,Win32,60,13386,,,,,,,,,,,,,,,,,,,,,,,,,,,,,,,,,,,,,,,,,,,,
,,,,,,,,,,,,a,1.34648,Correct!,0,79,79,18,1,t4.png,t5.png,1,0.90025,20,Female,2020-11-09_12h01.06.585,torte-q,2020.1.3,Win32,60,13386,,,,,,,,,,,,,,,,,,,,,,,,,,,,,,,,,,,,,,,,,,,,
,,,,,,,,,,,,l,0.82265,Correct!,0,80,80,93,1,t2.png,t4.png,2,0.059078,20,Female,2020-11-09_12h01.06.585,torte-q,2020.1.3,Win32,60,13386,,,,,,,,,,,,,,,,,,,,,,,,,,,,,,,,,,,,,,,,,,,,
,,,,,,,,,,,,a,1.34559,Correct!,0,81,81,59,1,t5.png,t4.png,1,0.9,20,Female,2020-11-09_12h01.06.585,torte-q,2020.1.3,Win32,60,13386,,,,,,,,,,,,,,,,,,,,,,,,,,,,,,,,,,,,,,,,,,,,
,,,,,,,,,,,,l,1.363405,Correct!,0,82,82,3,1,t1.png,t5.png,4,9.55E-11,20,Female,2020-11-09_12h01.06.585,torte-q,2020.1.3,Win32,60,13386,,,,,,,,,,,,,,,,,,,,,,,,,,,,,,,,,,,,,,,,,,,,
,,,,,,,,,,,,l,0.705195,Correct!,0,83,83,6,1,t1.png,t4.png,3,0.0000131,20,Female,2020-11-09_12h01.06.585,torte-q,2020.1.3,Win32,60,13386,,,,,,,,,,,,,,,,,,,,,,,,,,,,,,,,,,,,,,,,,,,,
,,,,,,,,,,,,l,0.99874,Correct!,0,84,84,31,1,t1.png,t5.png,4,9.55E-11,20,Female,2020-11-09_12h01.06.585,torte-q,2020.1.3,Win32,60,13386,,,,,,,,,,,,,,,,,,,,,,,,,,,,,,,,,,,,,,,,,,,,
,,,,,,,,,,,,l,1.773065,Correct!,0,85,85,65,1,t4.png,t5.png,1,0.90025,20,Female,2020-11-09_12h01.06.585,torte-q,2020.1.3,Win32,60,13386,,,,,,,,,,,,,,,,,,,,,,,,,,,,,,,,,,,,,,,,,,,,
,,,,,,,,,,,,l,0.641695,Correct!,0,86,86,99,1,t1.png,t5.png,4,9.55E-11,20,Female,2020-11-09_12h01.06.585,torte-q,2020.1.3,Win32,60,13386,,,,,,,,,,,,,,,,,,,,,,,,,,,,,,,,,,,,,,,,,,,,
,,,,,,,,,,,,l,0.91396,Incorrect,0,87,87,58,1,t5.png,t4.png,1,0.90025,20,Female,2020-11-09_12h01.06.585,torte-q,2020.1.3,Win32,60,13386,,,,,,,,,,,,,,,,,,,,,,,,,,,,,,,,,,,,,,,,,,,,
,,,,,,,,,,,,l,0.980865,Correct!,0,88,88,17,1,t1.png,t4.png,3,0.0000131,20,Female,2020-11-09_12h01.06.585,torte-q,2020.1.3,Win32,60,13386,,,,,,,,,,,,,,,,,,,,,,,,,,,,,,,,,,,,,,,,,,,,
,,,,,,,,,,,,l,0.75557,Incorrect,0,89,89,7,1,t4.png,t5.png,1,0.90025,20,Female,2020-11-09_12h01.06.585,torte-q,2020.1.3,Win32,60,13386,,,,,,,,,,,,,,,,,,,,,,,,,,,,,,,,,,,,,,,,,,,,
,,,,,,,,,,,,l,0.829475,Correct!,0,90,90,47,1,t4.png,t2.png,2,0.059078,20,Female,2020-11-09_12h01.06.585,torte-q,2020.1.3,Win32,60,13386,,,,,,,,,,,,,,,,,,,,,,,,,,,,,,,,,,,,,,,,,,,,
,,,,,,,,,,,,l,1.558515,Correct!,0,91,91,4,1,t1.png,t5.png,4,9.55E-11,20,Female,2020-11-09_12h01.06.585,torte-q,2020.1.3,Win32,60,13386,,,,,,,,,,,,,,,,,,,,,,,,,,,,,,,,,,,,,,,,,,,,
,,,,,,,,,,,,a,0.86628,Correct!,0,92,92,114,1,t2.png,t3.png,1,0.90855,20,Female,2020-11-09_12h01.06.585,torte-q,2020.1.3,Win32,60,13386,,,,,,,,,,,,,,,,,,,,,,,,,,,,,,,,,,,,,,,,,,,,
,,,,,,,,,,,,l,0.667285,Correct!,0,93,93,72,1,t4.png,t2.png,2,0.059078,20,Female,2020-11-09_12h01.06.585,torte-q,2020.1.3,Win32,60,13386,,,,,,,,,,,,,,,,,,,,,,,,,,,,,,,,,,,,,,,,,,,,
,,,,,,,,,,,,a,0.839645,Incorrect,0,94,94,10,1,t2.png,t3.png,1,0.90855,20,Female,2020-11-09_12h01.06.585,torte-q,2020.1.3,Win32,60,13386,,,,,,,,,,,,,,,,,,,,,,,,,,,,,,,,,,,,,,,,,,,,
,,,,,,,,,,,,l,0.946205,Correct!,0,95,95,52,1,t2.png,t4.png,2,0.059078,20,Female,2020-11-09_12h01.06.585,torte-q,2020.1.3,Win32,60,13386,,,,,,,,,,,,,,,,,,,,,,,,,,,,,,,,,,,,,,,,,,,,
,,,,,,,,,,,,l,0.68513,Correct!,0,96,96,68,1,t1.png,t4.png,3,0.0000131,20,Female,2020-11-09_12h01.06.585,torte-q,2020.1.3,Win32,60,13386,,,,,,,,,,,,,,,,,,,,,,,,,,,,,,,,,,,,,,,,,,,,
,,,,,,,,,,,,l,0.914155,Correct!,0,97,97,98,1,t2.png,t4.png,2,0.0591,20,Female,2020-11-09_12h01.06.585,torte-q,2020.1.3,Win32,60,13386,,,,,,,,,,,,,,,,,,,,,,,,,,,,,,,,,,,,,,,,,,,,
,,,,,,,,,,,,a,0.934965,Incorrect,0,98,98,33,1,t5.png,t1.png,4,9.55E-11,20,Female,2020-11-09_12h01.06.585,torte-q,2020.1.3,Win32,60,13386,,,,,,,,,,,,,,,,,,,,,,,,,,,,,,,,,,,,,,,,,,,,
,,,,,,,,,,,,l,0.985545,Correct!,0,99,99,36,1,t3.png,t1.png,2,0.0565,20,Female,2020-11-09_12h01.06.585,torte-q,2020.1.3,Win32,60,13386,,,,,,,,,,,,,,,,,,,,,,,,,,,,,,,,,,,,,,,,,,,,
,,,,,,,,,,,,a,1.27994,Correct!,0,100,100,81,1,t1.png,t1.png,0,0.97829,20,Female,2020-11-09_12h01.06.585,torte-q,2020.1.3,Win32,60,13386,,,,,,,,,,,,,,,,,,,,,,,,,,,,,,,,,,,,,,,,,,,,
,,,,,,,,,,,,a,1.766205,Correct!,0,101,101,109,1,t5.png,t5.png,0,0.97829,20,Female,2020-11-09_12h01.06.585,torte-q,2020.1.3,Win32,60,13386,,,,,,,,,,,,,,,,,,,,,,,,,,,,,,,,,,,,,,,,,,,,
,,,,,,,,,,,,l,0.818825,Correct!,0,102,102,37,1,t1.png,t4.png,3,0.0000131,20,Female,2020-11-09_12h01.06.585,torte-q,2020.1.3,Win32,60,13386,,,,,,,,,,,,,,,,,,,,,,,,,,,,,,,,,,,,,,,,,,,,
,,,,,,,,,,,,l,1.057345,Incorrect,0,103,103,28,1,t2.png,t3.png,1,0.909,20,Female,2020-11-09_12h01.06.585,torte-q,2020.1.3,Win32,60,13386,,,,,,,,,,,,,,,,,,,,,,,,,,,,,,,,,,,,,,,,,,,,
,,,,,,,,,,,,l,1.05143,Correct!,0,104,104,57,1,t2.png,t4.png,2,0.059078,20,Female,2020-11-09_12h01.06.585,torte-q,2020.1.3,Win32,60,13386,,,,,,,,,,,,,,,,,,,,,,,,,,,,,,,,,,,,,,,,,,,,
,,,,,,,,,,,,l,0.78646,Correct!,0,105,105,115,1,t2.png,t4.png,2,0.059078,20,Female,2020-11-09_12h01.06.585,torte-q,2020.1.3,Win32,60,13386,,,,,,,,,,,,,,,,,,,,,,,,,,,,,,,,,,,,,,,,,,,,
,,,,,,,,,,,,a,0.96439,Correct!,0,106,106,77,1,t1.png,t1.png,0,0.97829,20,Female,2020-11-09_12h01.06.585,torte-q,2020.1.3,Win32,60,13386,,,,,,,,,,,,,,,,,,,,,,,,,,,,,,,,,,,,,,,,,,,,
,,,,,,,,,,,,l,0.786475,Incorrect,0,107,107,32,1,t4.png,t5.png,1,0.90025,20,Female,2020-11-09_12h01.06.585,torte-q,2020.1.3,Win32,60,13386,,,,,,,,,,,,,,,,,,,,,,,,,,,,,,,,,,,,,,,,,,,,
,,,,,,,,,,,,a,1.215505,Correct!,0,108,108,74,1,t5.png,t4.png,1,0.9,20,Female,2020-11-09_12h01.06.585,torte-q,2020.1.3,Win32,60,13386,,,,,,,,,,,,,,,,,,,,,,,,,,,,,,,,,,,,,,,,,,,,
,,,,,,,,,,,,l,0.886365,Incorrect,0,109,109,41,1,t3.png,t2.png,1,0.90855,20,Female,2020-11-09_12h01.06.585,torte-q,2020.1.3,Win32,60,13386,,,,,,,,,,,,,,,,,,,,,,,,,,,,,,,,,,,,,,,,,,,,
,,,,,,,,,,,,a,1.13318,Incorrect,0,110,110,50,1,t5.png,t1.png,4,9.55E-11,20,Female,2020-11-09_12h01.06.585,torte-q,2020.1.3,Win32,60,13386,,,,,,,,,,,,,,,,,,,,,,,,,,,,,,,,,,,,,,,,,,,,
,,,,,,,,,,,,l,0.93364,Incorrect,0,111,111,105,1,t3.png,t2.png,1,0.90855,20,Female,2020-11-09_12h01.06.585,torte-q,2020.1.3,Win32,60,13386,,,,,,,,,,,,,,,,,,,,,,,,,,,,,,,,,,,,,,,,,,,,
,,,,,,,,,,,,a,0.89909,Correct!,0,112,112,45,1,t3.png,t2.png,1,0.90855,20,Female,2020-11-09_12h01.06.585,torte-q,2020.1.3,Win32,60,13386,,,,,,,,,,,,,,,,,,,,,,,,,,,,,,,,,,,,,,,,,,,,
,,,,,,,,,,,,a,1.291785,Correct!,0,113,113,88,1,t3.png,t1.png,2,0.056466,20,Female,2020-11-09_12h01.06.585,torte-q,2020.1.3,Win32,60,13386,,,,,,,,,,,,,,,,,,,,,,,,,,,,,,,,,,,,,,,,,,,,
,,,,,,,,,,,,a,0.910065,Correct!,0,114,114,84,1,t1.png,t1.png,0,0.97829,20,Female,2020-11-09_12h01.06.585,torte-q,2020.1.3,Win32,60,13386,,,,,,,,,,,,,,,,,,,,,,,,,,,,,,,,,,,,,,,,,,,,
,,,,,,,,,,,,a,1.152285,Correct!,0,115,115,21,1,t5.png,t4.png,1,0.90025,20,Female,2020-11-09_12h01.06.585,torte-q,2020.1.3,Win32,60,13386,,,,,,,,,,,,,,,,,,,,,,,,,,,,,,,,,,,,,,,,,,,,
,,,,,,,,,,,,a,0.99765,Incorrect,0,116,116,30,1,t3.png,t1.png,2,0.056466,20,Female,2020-11-09_12h01.06.585,torte-q,2020.1.3,Win32,60,13386,,,,,,,,,,,,,,,,,,,,,,,,,,,,,,,,,,,,,,,,,,,,
,,,,,,,,,,,,a,0.935595,Incorrect,0,117,117,86,1,t3.png,t1.png,2,0.056466,20,Female,2020-11-09_12h01.06.585,torte-q,2020.1.3,Win32,60,13386,,,,,,,,,,,,,,,,,,,,,,,,,,,,,,,,,,,,,,,,,,,,
,,,,,,,,,,,,l,0.847085,Incorrect,0,118,118,9,1,t4.png,t5.png,1,0.9,20,Female,2020-11-09_12h01.06.585,torte-q,2020.1.3,Win32,60,13386,,,,,,,,,,,,,,,,,,,,,,,,,,,,,,,,,,,,,,,,,,,,
,,,,,,,,,,,,a,1.30467,Correct!,0,119,119,15,1,t3.png,t2.png,1,0.90855,20,Female,2020-11-09_12h01.06.585,torte-q,2020.1.3,Win32,60,13386,,,,,,,,,,,,,,,,,,,,,,,,,,,,,,,,,,,,,,,,,,,,
,,,,,,,,,,,,a,1.329835,Correct!,,,,,,t4.png,t4.png,0,0.98115,20,Female,2020-11-09_12h01.06.585,torte-q,2020.1.3,Win32,60,13386,space,2.372005,space,27.556465,0,0,0,21,1,,,,,,,,,,,,,,,,,,,,,,,,,,,,,,,,,,,
,,,,,,,,,,,,l,1.485935,Correct!,,,,,,t4.png,t2.png,2,0.059078,20,Female,2020-11-09_12h01.06.585,torte-q,2020.1.3,Win32,60,13386,,,,,0,1,1,109,1,,,,,,,,,,,,,,,,,,,,,,,,,,,,,,,,,,,
,,,,,,,,,,,,a,1.165245,Correct!,,,,,,t5.png,t5.png,0,0.97829,20,Female,2020-11-09_12h01.06.585,torte-q,2020.1.3,Win32,60,13386,,,,,0,2,2,94,1,,,,,,,,,,,,,,,,,,,,,,,,,,,,,,,,,,,
,,,,,,,,,,,,a,1.23148,Incorrect,,,,,,t3.png,t1.png,2,0.056466,20,Female,2020-11-09_12h01.06.585,torte-q,2020.1.3,Win32,60,13386,,,,,0,3,3,32,1,,,,,,,,,,,,,,,,,,,,,,,,,,,,,,,,,,,
,,,,,,,,,,,,a,0.8698,Correct!,,,,,,t3.png,t2.png,1,0.909,20,Female,2020-11-09_12h01.06.585,torte-q,2020.1.3,Win32,60,13386,,,,,0,4,4,3,1,,,,,,,,,,,,,,,,,,,,,,,,,,,,,,,,,,,
,,,,,,,,,,,,a,1.113225,Incorrect,,,,,,t4.png,t1.png,3,0.0000131,20,Female,2020-11-09_12h01.06.585,torte-q,2020.1.3,Win32,60,13386,,,,,0,5,5,48,1,,,,,,,,,,,,,,,,,,,,,,,,,,,,,,,,,,,
,,,,,,,,,,,,a,1.64934,Incorrect,,,,,,t3.png,t5.png,2,0.056466,20,Female,2020-11-09_12h01.06.585,torte-q,2020.1.3,Win32,60,13386,,,,,0,6,6,44,1,,,,,,,,,,,,,,,,,,,,,,,,,,,,,,,,,,,
,,,,,,,,,,,,a,0.98547,Correct!,,,,,,t1.png,t1.png,0,0.97829,20,Female,2020-11-09_12h01.06.585,torte-q,2020.1.3,Win32,60,13386,,,,,0,7,7,67,1,,,,,,,,,,,,,,,,,,,,,,,,,,,,,,,,,,,
,,,,,,,,,,,,l,1.96733,Correct!,,,,,,t1.png,t3.png,2,0.056466,20,Female,2020-11-09_12h01.06.585,torte-q,2020.1.3,Win32,60,13386,,,,,0,8,8,60,1,,,,,,,,,,,,,,,,,,,,,,,,,,,,,,,,,,,
,,,,,,,,,,,,l,0.74802,Correct!,,,,,,t1.png,t3.png,2,0.056466,20,Female,2020-11-09_12h01.06.585,torte-q,2020.1.3,Win32,60,13386,,,,,0,9,9,69,1,,,,,,,,,,,,,,,,,,,,,,,,,,,,,,,,,,,
,,,,,,,,,,,,a,1.26648,Incorrect,,,,,,t5.png,t1.png,4,9.55E-11,20,Female,2020-11-09_12h01.06.585,torte-q,2020.1.3,Win32,60,13386,,,,,0,10,10,43,1,,,,,,,,,,,,,,,,,,,,,,,,,,,,,,,,,,,
,,,,,,,,,,,,a,1.324245,Correct!,,,,,,t4.png,t3.png,1,0.90855,20,Female,2020-11-09_12h01.06.585,torte-q,2020.1.3,Win32,60,13386,,,,,0,11,11,45,1,,,,,,,,,,,,,,,,,,,,,,,,,,,,,,,,,,,
,,,,,,,,,,,,a,0.917965,Correct!,,,,,,t1.png,t1.png,0,0.97829,20,Female,2020-11-09_12h01.06.585,torte-q,2020.1.3,Win32,60,13386,,,,,0,12,12,78,1,,,,,,,,,,,,,,,,,,,,,,,,,,,,,,,,,,,
,,,,,,,,,,,,a,1.000655,Incorrect,,,,,,t5.png,t2.png,3,0.0000131,20,Female,2020-11-09_12h01.06.585,torte-q,2020.1.3,Win32,60,13386,,,,,0,13,13,98,1,,,,,,,,,,,,,,,,,,,,,,,,,,,,,,,,,,,
,,,,,,,,,,,,l,1.25052,Incorrect,,,,,,t4.png,t5.png,1,0.90025,20,Female,2020-11-09_12h01.06.585,torte-q,2020.1.3,Win32,60,13386,,,,,0,14,14,103,1,,,,,,,,,,,,,,,,,,,,,,,,,,,,,,,,,,,
,,,,,,,,,,,,l,0.937295,Correct!,,,,,,t1.png,t4.png,3,0.0000131,20,Female,2020-11-09_12h01.06.585,torte-q,2020.1.3,Win32,60,13386,,,,,0,15,15,17,1,,,,,,,,,,,,,,,,,,,,,,,,,,,,,,,,,,,
,,,,,,,,,,,,l,1.82948,Correct!,,,,,,t5.png,t2.png,3,0.0000131,20,Female,2020-11-09_12h01.06.585,torte-q,2020.1.3,Win32,60,13386,,,,,0,16,16,116,1,,,,,,,,,,,,,,,,,,,,,,,,,,,,,,,,,,,
,,,,,,,,,,,,a,1.01869,Incorrect,,,,,,t5.png,t1.png,4,9.55E-11,20,Female,2020-11-09_12h01.06.585,torte-q,2020.1.3,Win32,60,13386,,,,,0,17,17,71,1,,,,,,,,,,,,,,,,,,,,,,,,,,,,,,,,,,,
,,,,,,,,,,,,a,1.75017,Correct!,,,,,,t2.png,t1.png,1,0.90025,20,Female,2020-11-09_12h01.06.585,torte-q,2020.1.3,Win32,60,13386,,,,,0,18,18,19,1,,,,,,,,,,,,,,,,,,,,,,,,,,,,,,,,,,,
,,,,,,,,,,,,a,0.769725,Incorrect,,,,,,t4.png,t1.png,3,0.0000131,20,Female,2020-11-09_12h01.06.585,torte-q,2020.1.3,Win32,60,13386,,,,,0,19,19,93,1,,,,,,,,,,,,,,,,,,,,,,,,,,,,,,,,,,,
,,,,,,,,,,,,l,0.85879,Correct!,,,,,,t1.png,t4.png,3,0.0000131,20,Female,2020-11-09_12h01.06.585,torte-q,2020.1.3,Win32,60,13386,,,,,0,20,20,107,1,,,,,,,,,,,,,,,,,,,,,,,,,,,,,,,,,,,
,,,,,,,,,,,,l,0.686115,Correct!,,,,,,t2.png,t4.png,2,0.059078,20,Female,2020-11-09_12h01.06.585,torte-q,2020.1.3,Win32,60,13386,,,,,0,21,21,11,1,,,,,,,,,,,,,,,,,,,,,,,,,,,,,,,,,,,
,,,,,,,,,,,,a,1.71927,Incorrect,,,,,,t3.png,t1.png,2,0.056466,20,Female,2020-11-09_12h01.06.585,torte-q,2020.1.3,Win32,60,13386,,,,,0,22,22,29,1,,,,,,,,,,,,,,,,,,,,,,,,,,,,,,,,,,,
,,,,,,,,,,,,l,1.397925,Incorrect,,,,,,t2.png,t1.png,1,0.90025,20,Female,2020-11-09_12h01.06.585,torte-q,2020.1.3,Win32,60,13386,,,,,0,23,23,4,1,,,,,,,,,,,,,,,,,,,,,,,,,,,,,,,,,,,
,,,,,,,,,,,,a,0.95491,Incorrect,,,,,,t4.png,t1.png,3,0.0000131,20,Female,2020-11-09_12h01.06.585,torte-q,2020.1.3,Win32,60,13386,,,,,0,24,24,42,1,,,,,,,,,,,,,,,,,,,,,,,,,,,,,,,,,,,
,,,,,,,,,,,,l,0.87581,Incorrect,,,,,,t3.png,t4.png,1,0.909,20,Female,2020-11-09_12h01.06.585,torte-q,2020.1.3,Win32,60,13386,,,,,0,25,25,106,1,,,,,,,,,,,,,,,,,,,,,,,,,,,,,,,,,,,
,,,,,,,,,,,,a,1.315235,Correct!,,,,,,t5.png,t4.png,1,0.90025,20,Female,2020-11-09_12h01.06.585,torte-q,2020.1.3,Win32,60,13386,,,,,0,26,26,34,1,,,,,,,,,,,,,,,,,,,,,,,,,,,,,,,,,,,
,,,,,,,,,,,,l,1.31512,Correct!,,,,,,t2.png,t4.png,2,0.059078,20,Female,2020-11-09_12h01.06.585,torte-q,2020.1.3,Win32,60,13386,,,,,0,27,27,77,1,,,,,,,,,,,,,,,,,,,,,,,,,,,,,,,,,,,
,,,,,,,,,,,,a,1.096035,Correct!,,,,,,t4.png,t3.png,1,0.909,20,Female,2020-11-09_12h01.06.585,torte-q,2020.1.3,Win32,60,13386,,,,,0,28,28,46,1,,,,,,,,,,,,,,,,,,,,,,,,,,,,,,,,,,,
,,,,,,,,,,,,l,0.803115,Incorrect,,,,,,t1.png,t2.png,1,0.90025,20,Female,2020-11-09_12h01.06.585,torte-q,2020.1.3,Win32,60,13386,,,,,0,29,29,33,1,,,,,,,,,,,,,,,,,,,,,,,,,,,,,,,,,,,
,,,,,,,,,,,,l,0.984395,Correct!,,,,,,t1.png,t5.png,4,9.55E-11,20,Female,2020-11-09_12h01.06.585,torte-q,2020.1.3,Win32,60,13386,,,,,0,30,30,16,1,,,,,,,,,,,,,,,,,,,,,,,,,,,,,,,,,,,
,,,,,,,,,,,,a,1.16959,Correct!,,,,,,t2.png,t3.png,1,0.90855,20,Female,2020-11-09_12h01.06.585,torte-q,2020.1.3,Win32,60,13386,,,,,0,31,31,111,1,,,,,,,,,,,,,,,,,,,,,,,,,,,,,,,,,,,
,,,,,,,,,,,,l,0.83909,Correct!,,,,,,t4.png,t5.png,1,0.90025,20,Female,2020-11-09_12h01.06.585,torte-q,2020.1.3,Win32,60,13386,,,,,0,32,32,113,1,,,,,,,,,,,,,,,,,,,,,,,,,,,,,,,,,,,
,,,,,,,,,,,,l,1.346745,Incorrect,,,,,,t3.png,t4.png,1,0.90855,20,Female,2020-11-09_12h01.06.585,torte-q,2020.1.3,Win32,60,13386,,,,,0,33,33,84,1,,,,,,,,,,,,,,,,,,,,,,,,,,,,,,,,,,,
,,,,,,,,,,,,l,1.450015,Correct!,,,,,,t4.png,t2.png,2,0.0591,20,Female,2020-11-09_12h01.06.585,torte-q,2020.1.3,Win32,60,13386,,,,,0,34,34,36,1,,,,,,,,,,,,,,,,,,,,,,,,,,,,,,,,,,,
,,,,,,,,,,,,a,1.09937,Correct!,,,,,,t2.png,t2.png,0,0.981,20,Female,2020-11-09_12h01.06.585,torte-q,2020.1.3,Win32,60,13386,,,,,0,35,35,101,1,,,,,,,,,,,,,,,,,,,,,,,,,,,,,,,,,,,
,,,,,,,,,,,,l,0.88033,Correct!,,,,,,t3.png,t5.png,2,0.0565,20,Female,2020-11-09_12h01.06.585,torte-q,2020.1.3,Win32,60,13386,,,,,0,36,36,83,1,,,,,,,,,,,,,,,,,,,,,,,,,,,,,,,,,,,
,,,,,,,,,,,,a,1.061015,Incorrect,,,,,,t5.png,t3.png,2,0.056466,20,Female,2020-11-09_12h01.06.585,torte-q,2020.1.3,Win32,60,13386,,,,,0,37,37,56,1,,,,,,,,,,,,,,,,,,,,,,,,,,,,,,,,,,,
,,,,,,,,,,,,l,1.225435,Correct!,,,,,,t1.png,t4.png,3,0.0000131,20,Female,2020-11-09_12h01.06.585,torte-q,2020.1.3,Win32,60,13386,,,,,0,38,38,81,1,,,,,,,,,,,,,,,,,,,,,,,,,,,,,,,,,,,
,,,,,,,,,,,,l,0.97043,Correct!,,,,,,t3.png,t5.png,2,0.056466,20,Female,2020-11-09_12h01.06.585,torte-q,2020.1.3,Win32,60,13386,,,,,0,39,39,14,1,,,,,,,,,,,,,,,,,,,,,,,,,,,,,,,,,,,
,,,,,,,,,,,,a,1.00522,Incorrect,,,,,,t1.png,t3.png,2,0.056466,20,Female,2020-11-09_12h01.06.585,torte-q,2020.1.3,Win32,60,13386,,,,,0,40,40,63,1,,,,,,,,,,,,,,,,,,,,,,,,,,,,,,,,,,,
,,,,,,,,,,,,a,0.965305,Correct!,,,,,,t5.png,t4.png,1,0.90025,20,Female,2020-11-09_12h01.06.585,torte-q,2020.1.3,Win32,60,13386,,,,,0,41,41,26,1,,,,,,,,,,,,,,,,,,,,,,,,,,,,,,,,,,,
,,,,,,,,,,,,l,0.82215,Correct!,,,,,,t4.png,t5.png,1,0.9,20,Female,2020-11-09_12h01.06.585,torte-q,2020.1.3,Win32,60,13386,,,,,0,42,42,115,1,,,,,,,,,,,,,,,,,,,,,,,,,,,,,,,,,,,
,,,,,,,,,,,,l,2.219645,Correct!,,,,,,t3.png,t5.png,2,0.0565,20,Female,2020-11-09_12h01.06.585,torte-q,2020.1.3,Win32,60,13386,,,,,0,43,43,30,1,,,,,,,,,,,,,,,,,,,,,,,,,,,,,,,,,,,
,,,,,,,,,,,,l,1.31601,Incorrect,,,,,,t3.png,t2.png,1,0.90855,20,Female,2020-11-09_12h01.06.585,torte-q,2020.1.3,Win32,60,13386,,,,,0,44,44,97,1,,,,,,,,,,,,,,,,,,,,,,,,,,,,,,,,,,,
,,,,,,,,,,,,a,0.815095,Correct!,,,,,,t1.png,t1.png,0,0.97829,20,Female,2020-11-09_12h01.06.585,torte-q,2020.1.3,Win32,60,13386,,,,,0,45,45,9,1,,,,,,,,,,,,,,,,,,,,,,,,,,,,,,,,,,,
,,,,,,,,,,,,a,0.86587,Correct!,,,,,,t2.png,t1.png,1,0.9,20,Female,2020-11-09_12h01.06.585,torte-q,2020.1.3,Win32,60,13386,,,,,0,46,46,118,1,,,,,,,,,,,,,,,,,,,,,,,,,,,,,,,,,,,
,,,,,,,,,,,,a,1.071075,Correct!,,,,,,t4.png,t3.png,1,0.90855,20,Female,2020-11-09_12h01.06.585,torte-q,2020.1.3,Win32,60,13386,,,,,0,47,47,75,1,,,,,,,,,,,,,,,,,,,,,,,,,,,,,,,,,,,
,,,,,,,,,,,,a,0.72447,Incorrect,,,,,,t5.png,t1.png,4,9.55E-11,20,Female,2020-11-09_12h01.06.585,torte-q,2020.1.3,Win32,60,13386,,,,,0,48,48,102,1,,,,,,,,,,,,,,,,,,,,,,,,,,,,,,,,,,,
,,,,,,,,,,,,l,0.84884,Correct!,,,,,,t2.png,t5.png,3,0.0000131,20,Female,2020-11-09_12h01.06.585,torte-q,2020.1.3,Win32,60,13386,,,,,0,49,49,66,1,,,,,,,,,,,,,,,,,,,,,,,,,,,,,,,,,,,
,,,,,,,,,,,,l,0.560315,Correct!,,,,,,t2.png,t5.png,3,0.0000131,20,Female,2020-11-09_12h01.06.585,torte-q,2020.1.3,Win32,60,13386,,,,,0,50,50,104,1,,,,,,,,,,,,,,,,,,,,,,,,,,,,,,,,,,,
,,,,,,,,,,,,a,0.948295,Correct!,,,,,,t4.png,t4.png,0,0.98115,20,Female,2020-11-09_12h01.06.585,torte-q,2020.1.3,Win32,60,13386,,,,,0,51,51,90,1,,,,,,,,,,,,,,,,,,,,,,,,,,,,,,,,,,,
,,,,,,,,,,,,a,1.101205,Correct!,,,,,,t3.png,t4.png,1,0.909,20,Female,2020-11-09_12h01.06.585,torte-q,2020.1.3,Win32,60,13386,,,,,0,52,52,89,1,,,,,,,,,,,,,,,,,,,,,,,,,,,,,,,,,,,
,,,,,,,,,,,,a,1.104185,Correct!,,,,,,t5.png,t5.png,0,0.97829,20,Female,2020-11-09_12h01.06.585,torte-q,2020.1.3,Win32,60,13386,,,,,0,53,53,25,1,,,,,,,,,,,,,,,,,,,,,,,,,,,,,,,,,,,
,,,,,,,,,,,,a,0.55104,Correct!,,,,,,t5.png,t5.png,0,0.97829,20,Female,2020-11-09_12h01.06.585,torte-q,2020.1.3,Win32,60,13386,,,,,0,54,54,70,1,,,,,,,,,,,,,,,,,,,,,,,,,,,,,,,,,,,
,,,,,,,,,,,,a,0.88099,Incorrect,,,,,,t4.png,t2.png,2,0.059078,20,Female,2020-11-09_12h01.06.585,torte-q,2020.1.3,Win32,60,13386,,,,,0,55,55,110,1,,,,,,,,,,,,,,,,,,,,,,,,,,,,,,,,,,,
,,,,,,,,,,,,l,0.77129,Correct!,,,,,,t2.png,t5.png,3,0.0000131,20,Female,2020-11-09_12h01.06.585,torte-q,2020.1.3,Win32,60,13386,,,,,0,56,56,95,1,,,,,,,,,,,,,,,,,,,,,,,,,,,,,,,,,,,
,,,,,,,,,,,,a,0.682905,Incorrect,,,,,,t5.png,t1.png,4,9.55E-11,20,Female,2020-11-09_12h01.06.585,torte-q,2020.1.3,Win32,60,13386,,,,,0,57,57,22,1,,,,,,,,,,,,,,,,,,,,,,,,,,,,,,,,,,,
,,,,,,,,,,,,l,0.600105,Correct!,,,,,,t1.png,t4.png,3,0.0000131,20,Female,2020-11-09_12h01.06.585,torte-q,2020.1.3,Win32,60,13386,,,,,0,58,58,92,1,,,,,,,,,,,,,,,,,,,,,,,,,,,,,,,,,,,
,,,,,,,,,,,,a,1.290035,Correct!,,,,,,t2.png,t1.png,1,0.90025,20,Female,2020-11-09_12h01.06.585,torte-q,2020.1.3,Win32,60,13386,,,,,0,59,59,62,1,,,,,,,,,,,,,,,,,,,,,,,,,,,,,,,,,,,
,,,,,,,,,,,,a,1.090635,Incorrect,,,,,,t2.png,t3.png,1,0.90855,20,Female,2020-11-09_12h01.06.585,torte-q,2020.1.3,Win32,60,13386,,,,,0,60,60,10,1,,,,,,,,,,,,,,,,,,,,,,,,,,,,,,,,,,,
,,,,,,,,,,,,l,1.38551,Incorrect,,,,,,t4.png,t5.png,1,0.90025,20,Female,2020-11-09_12h01.06.585,torte-q,2020.1.3,Win32,60,13386,,,,,0,61,61,58,1,,,,,,,,,,,,,,,,,,,,,,,,,,,,,,,,,,,
,,,,,,,,,,,,l,0.640935,Correct!,,,,,,t1.png,t5.png,4,9.55E-11,20,Female,2020-11-09_12h01.06.585,torte-q,2020.1.3,Win32,60,13386,,,,,0,62,62,55,1,,,,,,,,,,,,,,,,,,,,,,,,,,,,,,,,,,,
,,,,,,,,,,,,a,0.870745,Correct!,,,,,,t4.png,t3.png,1,0.90855,20,Female,2020-11-09_12h01.06.585,torte-q,2020.1.3,Win32,60,13386,,,,,0,63,63,35,1,,,,,,,,,,,,,,,,,,,,,,,,,,,,,,,,,,,
,,,,,,,,,,,,a,0.832055,Correct!,,,,,,t2.png,t2.png,0,0.98115,20,Female,2020-11-09_12h01.06.585,torte-q,2020.1.3,Win32,60,13386,,,,,0,64,64,59,1,,,,,,,,,,,,,,,,,,,,,,,,,,,,,,,,,,,
,,,,,,,,,,,,l,1.65541,Correct!,,,,,,t3.png,t4.png,1,0.90855,20,Female,2020-11-09_12h01.06.585,torte-q,2020.1.3,Win32,60,13386,,,,,0,65,65,96,1,,,,,,,,,,,,,,,,,,,,,,,,,,,,,,,,,,,
,,,,,,,,,,,,a,0.54812,Incorrect,,,,,,t3.png,t1.png,2,0.056466,20,Female,2020-11-09_12h01.06.585,torte-q,2020.1.3,Win32,60,13386,,,,,0,66,66,64,1,,,,,,,,,,,,,,,,,,,,,,,,,,,,,,,,,,,
,,,,,,,,,,,,a,0.639705,Incorrect,,,,,,t5.png,t3.png,2,0.056466,20,Female,2020-11-09_12h01.06.585,torte-q,2020.1.3,Win32,60,13386,,,,,0,67,67,108,1,,,,,,,,,,,,,,,,,,,,,,,,,,,,,,,,,,,
,,,,,,,,,,,,l,0.757405,Correct!,,,,,,t2.png,t5.png,3,0.0000131,20,Female,2020-11-09_12h01.06.585,torte-q,2020.1.3,Win32,60,13386,,,,,0,68,68,40,1,,,,,,,,,,,,,,,,,,,,,,,,,,,,,,,,,,,
,,,,,,,,,,,,l,1.313645,Correct!,,,,,,t1.png,t3.png,2,0.056466,20,Female,2020-11-09_12h01.06.585,torte-q,2020.1.3,Win32,60,13386,,,,,0,69,69,99,1,,,,,,,,,,,,,,,,,,,,,,,,,,,,,,,,,,,
,,,,,,,,,,,,a,0.966995,Correct!,,,,,,t4.png,t4.png,0,0.98115,20,Female,2020-11-09_12h01.06.585,torte-q,2020.1.3,Win32,60,13386,,,,,0,70,70,79,1,,,,,,,,,,,,,,,,,,,,,,,,,,,,,,,,,,,
,,,,,,,,,,,,a,1.13149,Correct!,,,,,,t2.png,t3.png,1,0.909,20,Female,2020-11-09_12h01.06.585,torte-q,2020.1.3,Win32,60,13386,,,,,0,71,71,74,1,,,,,,,,,,,,,,,,,,,,,,,,,,,,,,,,,,,
,,,,,,,,,,,,l,0.801845,Correct!,,,,,,t2.png,t4.png,2,0.059078,20,Female,2020-11-09_12h01.06.585,torte-q,2020.1.3,Win32,60,13386,,,,,0,72,72,24,1,,,,,,,,,,,,,,,,,,,,,,,,,,,,,,,,,,,
,,,,,,,,,,,,a,0.63168,Incorrect,,,,,,t5.png,t2.png,3,0.0000131,20,Female,2020-11-09_12h01.06.585,torte-q,2020.1.3,Win32,60,13386,,,,,0,73,73,91,1,,,,,,,,,,,,,,,,,,,,,,,,,,,,,,,,,,,
,,,,,,,,,,,,l,0.67414,Correct!,,,,,,t1.png,t5.png,4,9.55E-11,20,Female,2020-11-09_12h01.06.585,torte-q,2020.1.3,Win32,60,13386,,,,,0,74,74,41,1,,,,,,,,,,,,,,,,,,,,,,,,,,,,,,,,,,,
,,,,,,,,,,,,l,0.62023,Correct!,,,,,,t2.png,t5.png,3,0.0000131,20,Female,2020-11-09_12h01.06.585,torte-q,2020.1.3,Win32,60,13386,,,,,0,75,75,8,1,,,,,,,,,,,,,,,,,,,,,,,,,,,,,,,,,,,
,,,,,,,,,,,,l,0.715515,Incorrect,,,,,,t1.png,t2.png,1,0.90025,20,Female,2020-11-09_12h01.06.585,torte-q,2020.1.3,Win32,60,13386,,,,,0,76,76,105,1,,,,,,,,,,,,,,,,,,,,,,,,,,,,,,,,,,,
,,,,,,,,,,,,a,0.60177,Incorrect,,,,,,t5.png,t2.png,3,0.0000131,20,Female,2020-11-09_12h01.06.585,torte-q,2020.1.3,Win32,60,13386,,,,,0,77,77,51,1,,,,,,,,,,,,,,,,,,,,,,,,,,,,,,,,,,,
,,,,,,,,,,,,a,0.849425,Correct!,,,,,,t3.png,t2.png,1,0.90855,20,Female,2020-11-09_12h01.06.585,torte-q,2020.1.3,Win32,60,13386,,,,,0,78,78,53,1,,,,,,,,,,,,,,,,,,,,,,,,,,,,,,,,,,,
,,,,,,,,,,,,l,0.76562,Correct!,,,,,,t1.png,t5.png,4,9.55E-11,20,Female,2020-11-09_12h01.06.585,torte-q,2020.1.3,Win32,60,13386,,,,,0,79,79,12,1,,,,,,,,,,,,,,,,,,,,,,,,,,,,,,,,,,,
,,,,,,,,,,,,a,0.8659,Correct!,,,,,,t2.png,t2.png,0,0.98115,20,Female,2020-11-09_12h01.06.585,torte-q,2020.1.3,Win32,60,13386,,,,,0,80,80,2,1,,,,,,,,,,,,,,,,,,,,,,,,,,,,,,,,,,,
,,,,,,,,,,,,l,0.7216,Correct!,,,,,,t2.png,t4.png,2,0.059078,20,Female,2020-11-09_12h01.06.585,torte-q,2020.1.3,Win32,60,13386,,,,,0,81,81,37,1,,,,,,,,,,,,,,,,,,,,,,,,,,,,,,,,,,,
,,,,,,,,,,,,a,1.565515,Correct!,,,,,,t2.png,t3.png,1,0.90855,20,Female,2020-11-09_12h01.06.585,torte-q,2020.1.3,Win32,60,13386,,,,,0,82,82,68,1,,,,,,,,,,,,,,,,,,,,,,,,,,,,,,,,,,,
,,,,,,,,,,,,a,0.90059,Correct!,,,,,,t5.png,t5.png,0,0.97829,20,Female,2020-11-09_12h01.06.585,torte-q,2020.1.3,Win32,60,13386,,,,,0,83,83,73,1,,,,,,,,,,,,,,,,,,,,,,,,,,,,,,,,,,,
,,,,,,,,,,,,a,1.21994,Correct!,,,,,,t3.png,t2.png,1,0.909,20,Female,2020-11-09_12h01.06.585,torte-q,2020.1.3,Win32,60,13386,,,,,0,84,84,23,1,,,,,,,,,,,,,,,,,,,,,,,,,,,,,,,,,,,
,,,,,,,,,,,,a,0.7157,Incorrect,,,,,,t5.png,t1.png,4,9.55E-11,20,Female,2020-11-09_12h01.06.585,torte-q,2020.1.3,Win32,60,13386,,,,,0,85,85,100,1,,,,,,,,,,,,,,,,,,,,,,,,,,,,,,,,,,,
,,,,,,,,,,,,l,1.25607,Correct!,,,,,,t2.png,t4.png,2,0.0591,20,Female,2020-11-09_12h01.06.585,torte-q,2020.1.3,Win32,60,13386,,,,,0,86,86,15,1,,,,,,,,,,,,,,,,,,,,,,,,,,,,,,,,,,,
,,,,,,,,,,,,a,0.651075,Incorrect,,,,,,t4.png,t2.png,2,0.059078,20,Female,2020-11-09_12h01.06.585,torte-q,2020.1.3,Win32,60,13386,,,,,0,87,87,86,1,,,,,,,,,,,,,,,,,,,,,,,,,,,,,,,,,,,
,,,,,,,,,,,,a,1.212195,Correct!,,,,,,t5.png,t4.png,1,0.9,20,Female,2020-11-09_12h01.06.585,torte-q,2020.1.3,Win32,60,13386,,,,,0,88,88,76,1,,,,,,,,,,,,,,,,,,,,,,,,,,,,,,,,,,,
,,,,,,,,,,,,a,0.971935,Correct!,,,,,,t4.png,t4.png,0,0.98115,20,Female,2020-11-09_12h01.06.585,torte-q,2020.1.3,Win32,60,13386,,,,,0,89,89,52,1,,,,,,,,,,,,,,,,,,,,,,,,,,,,,,,,,,,
,,,,,,,,,,,,a,1.50032,Correct!,,,,,,t3.png,t4.png,1,0.909,20,Female,2020-11-09_12h01.06.585,torte-q,2020.1.3,Win32,60,13386,,,,,0,90,90,82,1,,,,,,,,,,,,,,,,,,,,,,,,,,,,,,,,,,,
,,,,,,,,,,,,a,0.736235,Correct!,,,,,,t4.png,t4.png,0,0.98115,20,Female,2020-11-09_12h01.06.585,torte-q,2020.1.3,Win32,60,13386,,,,,0,91,91,80,1,,,,,,,,,,,,,,,,,,,,,,,,,,,,,,,,,,,
,,,,,,,,,,,,a,1.030145,Correct!,,,,,,t1.png,t2.png,1,0.90025,20,Female,2020-11-09_12h01.06.585,torte-q,2020.1.3,Win32,60,13386,,,,,0,92,92,112,1,,,,,,,,,,,,,,,,,,,,,,,,,,,,,,,,,,,
,,,,,,,,,,,,a,0.969745,Correct!,,,,,,t1.png,t2.png,1,0.90025,20,Female,2020-11-09_12h01.06.585,torte-q,2020.1.3,Win32,60,13386,,,,,0,93,93,72,1,,,,,,,,,,,,,,,,,,,,,,,,,,,,,,,,,,,
,,,,,,,,,,,,a,0.86523,Correct!,,,,,,t4.png,t3.png,1,0.909,20,Female,2020-11-09_12h01.06.585,torte-q,2020.1.3,Win32,60,13386,,,,,0,94,94,20,1,,,,,,,,,,,,,,,,,,,,,,,,,,,,,,,,,,,
,,,,,,,,,,,,l,1.215765,Correct!,,,,,,t1.png,t5.png,4,9.55E-11,20,Female,2020-11-09_12h01.06.585,torte-q,2020.1.3,Win32,60,13386,,,,,0,95,95,85,1,,,,,,,,,,,,,,,,,,,,,,,,,,,,,,,,,,,
,,,,,,,,,,,,a,0.715065,Correct!,,,,,,t5.png,t4.png,1,0.9,20,Female,2020-11-09_12h01.06.585,torte-q,2020.1.3,Win32,60,13386,,,,,0,96,96,49,1,,,,,,,,,,,,,,,,,,,,,,,,,,,,,,,,,,,
,,,,,,,,,,,,a,1.26405,Correct!,,,,,,t4.png,t5.png,1,0.90025,20,Female,2020-11-09_12h01.06.585,torte-q,2020.1.3,Win32,60,13386,,,,,0,97,97,47,1,,,,,,,,,,,,,,,,,,,,,,,,,,,,,,,,,,,
,,,,,,,,,,,,a,0.60396,Incorrect,,,,,,t4.png,t1.png,3,0.0000131,20,Female,2020-11-09_12h01.06.585,torte-q,2020.1.3,Win32,60,13386,,,,,0,98,98,13,1,,,,,,,,,,,,,,,,,,,,,,,,,,,,,,,,,,,
,,,,,,,,,,,,a,0.786285,Correct!,,,,,,t2.png,t1.png,1,0.90025,20,Female,2020-11-09_12h01.06.585,torte-q,2020.1.3,Win32,60,13386,,,,,0,99,99,5,1,,,,,,,,,,,,,,,,,,,,,,,,,,,,,,,,,,,
,,,,,,,,,,,,a,0.7813,Incorrect,,,,,,t5.png,t5.png,0,0.978,20,Female,2020-11-09_12h01.06.585,torte-q,2020.1.3,Win32,60,13386,,,,,0,100,100,117,1,,,,,,,,,,,,,,,,,,,,,,,,,,,,,,,,,,,
,,,,,,,,,,,,a,0.48582,Incorrect,,,,,,t5.png,t2.png,3,0.0000131,20,Female,2020-11-09_12h01.06.585,torte-q,2020.1.3,Win32,60,13386,,,,,0,101,101,119,1,,,,,,,,,,,,,,,,,,,,,,,,,,,,,,,,,,,
,,,,,,,,,,,,a,0.948045,Correct!,,,,,,t1.png,t2.png,1,0.9,20,Female,2020-11-09_12h01.06.585,torte-q,2020.1.3,Win32,60,13386,,,,,0,102,102,1,1,,,,,,,,,,,,,,,,,,,,,,,,,,,,,,,,,,,
,,,,,,,,,,,,a,0.616535,Correct!,,,,,,t1.png,t1.png,0,0.978,20,Female,2020-11-09_12h01.06.585,torte-q,2020.1.3,Win32,60,13386,,,,,0,103,103,28,1,,,,,,,,,,,,,,,,,,,,,,,,,,,,,,,,,,,
,,,,,,,,,,,,a,0.5498,Incorrect,,,,,,t5.png,t3.png,2,0.056466,20,Female,2020-11-09_12h01.06.585,torte-q,2020.1.3,Win32,60,13386,,,,,0,104,104,38,1,,,,,,,,,,,,,,,,,,,,,,,,,,,,,,,,,,,
,,,,,,,,,,,,a,0.682525,Correct!,,,,,,t3.png,t2.png,1,0.90855,20,Female,2020-11-09_12h01.06.585,torte-q,2020.1.3,Win32,60,13386,,,,,0,105,105,18,1,,,,,,,,,,,,,,,,,,,,,,,,,,,,,,,,,,,
,,,,,,,,,,,,a,0.436485,Incorrect,,,,,,t4.png,t1.png,3,0.0000131,20,Female,2020-11-09_12h01.06.585,torte-q,2020.1.3,Win32,60,13386,,,,,0,106,106,61,1,,,,,,,,,,,,,,,,,,,,,,,,,,,,,,,,,,,
,,,,,,,,,,,,a,0.597925,Incorrect,,,,,,t5.png,t3.png,2,0.0565,20,Female,2020-11-09_12h01.06.585,torte-q,2020.1.3,Win32,60,13386,,,,,0,107,107,39,1,,,,,,,,,,,,,,,,,,,,,,,,,,,,,,,,,,,
,,,,,,,,,,,,a,0.866035,Correct!,,,,,,t2.png,t3.png,1,0.90855,20,Female,2020-11-09_12h01.06.585,torte-q,2020.1.3,Win32,60,13386,,,,,0,108,108,65,1,,,,,,,,,,,,,,,,,,,,,,,,,,,,,,,,,,,
,,,,,,,,,,,,a,0.649885,Incorrect,,,,,,t4.png,t2.png,2,0.059078,20,Female,2020-11-09_12h01.06.585,torte-q,2020.1.3,Win32,60,13386,,,,,0,109,109,88,1,,,,,,,,,,,,,,,,,,,,,,,,,,,,,,,,,,,
,,,,,,,,,,,,a,0.84947,Correct!,,,,,,t5.png,t4.png,1,0.90025,20,Female,2020-11-09_12h01.06.585,torte-q,2020.1.3,Win32,60,13386,,,,,0,110,110,27,1,,,,,,,,,,,,,,,,,,,,,,,,,,,,,,,,,,,
,,,,,,,,,,,,a,0.52532,Incorrect,,,,,,t5.png,t3.png,2,0.056466,20,Female,2020-11-09_12h01.06.585,torte-q,2020.1.3,Win32,60,13386,,,,,0,111,111,114,1,,,,,,,,,,,,,,,,,,,,,,,,,,,,,,,,,,,
,,,,,,,,,,,,l,0.92105,Correct!,,,,,,t3.png,t5.png,2,0.056466,20,Female,2020-11-09_12h01.06.585,torte-q,2020.1.3,Win32,60,13386,,,,,0,112,112,6,1,,,,,,,,,,,,,,,,,,,,,,,,,,,,,,,,,,,
,,,,,,,,,,,,l,0.632315,Correct!,,,,,,t1.png,t3.png,2,0.056466,20,Female,2020-11-09_12h01.06.585,torte-q,2020.1.3,Win32,60,13386,,,,,0,113,113,87,1,,,,,,,,,,,,,,,,,,,,,,,,,,,,,,,,,,,
,,,,,,,,,,,,l,0.4549,Correct!,,,,,,t1.png,t4.png,3,0.0000131,20,Female,2020-11-09_12h01.06.585,torte-q,2020.1.3,Win32,60,13386,,,,,0,114,114,50,1,,,,,,,,,,,,,,,,,,,,,,,,,,,,,,,,,,,
,,,,,,,,,,,,a,0.671875,Incorrect,,,,,,t3.png,t1.png,2,0.056466,20,Female,2020-11-09_12h01.06.585,torte-q,2020.1.3,Win32,60,13386,,,,,0,115,115,0,1,,,,,,,,,,,,,,,,,,,,,,,,,,,,,,,,,,,
,,,,,,,,,,,,a,0.491115,Incorrect,,,,,,t3.png,t1.png,2,0.0565,20,Female,2020-11-09_12h01.06.585,torte-q,2020.1.3,Win32,60,13386,,,,,0,116,116,31,1,,,,,,,,,,,,,,,,,,,,,,,,,,,,,,,,,,,
,,,,,,,,,,,,a,0.836325,Correct!,,,,,,t2.png,t2.png,0,0.98115,20,Female,2020-11-09_12h01.06.585,torte-q,2020.1.3,Win32,60,13386,,,,,0,117,117,7,1,,,,,,,,,,,,,,,,,,,,,,,,,,,,,,,,,,,
,,,,,,,,,,,,a,0.514335,Correct!,,,,,,t2.png,t2.png,0,0.98115,20,Female,2020-11-09_12h01.06.585,torte-q,2020.1.3,Win32,60,13386,,,,,0,118,118,57,1,,,,,,,,,,,,,,,,,,,,,,,,,,,,,,,,,,,
,,,,,,,,,,,,a,0.62388,Correct!,,,,,,t1.png,t1.png,0,0.978,20,Female,2020-11-09_12h01.06.585,torte-q,2020.1.3,Win32,60,13386,,,,,0,119,119,54,1,,,,,,,,,,,,,,,,,,,,,,,,,,,,,,,,,,,
,,,,,,,,,,,,a,1.46983,Incorrect,,,,,,t5.png,t3.png,2,0.056466,20,Female,2020-11-09_12h01.06.585,torte-q,2020.1.3,Win32,60,13386,space,3.00933,,,,,,,,space,9.19777,space,29.416795,0,0,0,108,1,,,,,,,,,,,,,,,,,,,,,,,,,,
,,,,,,,,,,,,l,1.31272,Correct!,,,,,,t2.png,t5.png,3,0.0000131,20,Female,2020-11-09_12h01.06.585,torte-q,2020.1.3,Win32,60,13386,,,,,,,,,,,,,,0,1,1,95,1,,,,,,,,,,,,,,,,,,,,,,,,,,
,,,,,,,,,,,,a,0.735575,Incorrect,,,,,,t4.png,t3.png,1,0.909,20,Female,2020-11-09_12h01.06.585,torte-q,2020.1.3,Win32,60,13386,,,,,,,,,,,,,,0,2,2,46,1,,,,,,,,,,,,,,,,,,,,,,,,,,
,,,,,,,,,,,,l,0.688625,Incorrect,,,,,,t4.png,t5.png,1,0.90025,20,Female,2020-11-09_12h01.06.585,torte-q,2020.1.3,Win32,60,13386,,,,,,,,,,,,,,0,3,3,47,1,,,,,,,,,,,,,,,,,,,,,,,,,,
,,,,,,,,,,,,a,0.5196,Incorrect,,,,,,t4.png,t1.png,3,0.0000131,20,Female,2020-11-09_12h01.06.585,torte-q,2020.1.3,Win32,60,13386,,,,,,,,,,,,,,0,4,4,93,1,,,,,,,,,,,,,,,,,,,,,,,,,,
,,,,,,,,,,,,a,0.831925,Incorrect,,,,,,t3.png,t1.png,2,0.056466,20,Female,2020-11-09_12h01.06.585,torte-q,2020.1.3,Win32,60,13386,,,,,,,,,,,,,,0,5,5,29,1,,,,,,,,,,,,,,,,,,,,,,,,,,
,,,,,,,,,,,,a,0.953905,Correct!,,,,,,t5.png,t4.png,1,0.9,20,Female,2020-11-09_12h01.06.585,torte-q,2020.1.3,Win32,60,13386,,,,,,,,,,,,,,0,6,6,76,1,,,,,,,,,,,,,,,,,,,,,,,,,,
,,,,,,,,,,,,a,0.79732,Correct!,,,,,,t2.png,t2.png,0,0.981,20,Female,2020-11-09_12h01.06.585,torte-q,2020.1.3,Win32,60,13386,,,,,,,,,,,,,,0,7,7,101,1,,,,,,,,,,,,,,,,,,,,,,,,,,
,,,,,,,,,,,,l,0.781595,Correct!,,,,,,t3.png,t5.png,2,0.056466,20,Female,2020-11-09_12h01.06.585,torte-q,2020.1.3,Win32,60,13386,,,,,,,,,,,,,,0,8,8,6,1,,,,,,,,,,,,,,,,,,,,,,,,,,
,,,,,,,,,,,,a,0.95788,Correct!,,,,,,t4.png,t3.png,1,0.90855,20,Female,2020-11-09_12h01.06.585,torte-q,2020.1.3,Win32,60,13386,,,,,,,,,,,,,,0,9,9,35,1,,,,,,,,,,,,,,,,,,,,,,,,,,
,,,,,,,,,,,,l,0.70198,Correct!,,,,,,t1.png,t4.png,3,0.0000131,20,Female,2020-11-09_12h01.06.585,torte-q,2020.1.3,Win32,60,13386,,,,,,,,,,,,,,0,10,10,17,1,,,,,,,,,,,,,,,,,,,,,,,,,,
,,,,,,,,,,,,l,0.79974,Correct!,,,,,,t1.png,t3.png,2,0.056466,20,Female,2020-11-09_12h01.06.585,torte-q,2020.1.3,Win32,60,13386,,,,,,,,,,,,,,0,11,11,69,1,,,,,,,,,,,,,,,,,,,,,,,,,,
,,,,,,,,,,,,a,0.567045,Correct!,,,,,,t1.png,t1.png,0,0.97829,20,Female,2020-11-09_12h01.06.585,torte-q,2020.1.3,Win32,60,13386,,,,,,,,,,,,,,0,12,12,78,1,,,,,,,,,,,,,,,,,,,,,,,,,,
,,,,,,,,,,,,a,0.483395,Correct!,,,,,,t1.png,t1.png,0,0.978,20,Female,2020-11-09_12h01.06.585,torte-q,2020.1.3,Win32,60,13386,,,,,,,,,,,,,,0,13,13,28,1,,,,,,,,,,,,,,,,,,,,,,,,,,
,,,,,,,,,,,,a,0.48176,Incorrect,,,,,,t5.png,t1.png,4,9.55E-11,20,Female,2020-11-09_12h01.06.585,torte-q,2020.1.3,Win32,60,13386,,,,,,,,,,,,,,0,14,14,100,1,,,,,,,,,,,,,,,,,,,,,,,,,,
,,,,,,,,,,,,a,0.63128,Incorrect,,,,,,t5.png,t3.png,2,0.0565,20,Female,2020-11-09_12h01.06.585,torte-q,2020.1.3,Win32,60,13386,,,,,,,,,,,,,,0,15,15,39,1,,,,,,,,,,,,,,,,,,,,,,,,,,
,,,,,,,,,,,,a,0.571275,Correct!,,,,,,t2.png,t1.png,1,0.90025,20,Female,2020-11-09_12h01.06.585,torte-q,2020.1.3,Win32,60,13386,,,,,,,,,,,,,,0,16,16,4,1,,,,,,,,,,,,,,,,,,,,,,,,,,
,,,,,,,,,,,,a,0.58644,Correct!,,,,,,t1.png,t1.png,0,0.97829,20,Female,2020-11-09_12h01.06.585,torte-q,2020.1.3,Win32,60,13386,,,,,,,,,,,,,,0,17,17,9,1,,,,,,,,,,,,,,,,,,,,,,,,,,
,,,,,,,,,,,,l,0.7978,Incorrect,,,,,,t1.png,t2.png,1,0.90025,20,Female,2020-11-09_12h01.06.585,torte-q,2020.1.3,Win32,60,13386,,,,,,,,,,,,,,0,18,18,72,1,,,,,,,,,,,,,,,,,,,,,,,,,,
,,,,,,,,,,,,a,0.604785,Incorrect,,,,,,t5.png,t3.png,2,0.056466,20,Female,2020-11-09_12h01.06.585,torte-q,2020.1.3,Win32,60,13386,,,,,,,,,,,,,,0,19,19,114,1,,,,,,,,,,,,,,,,,,,,,,,,,,
,,,,,,,,,,,,a,0.633865,Incorrect,,,,,,t5.png,t3.png,2,0.056466,20,Female,2020-11-09_12h01.06.585,torte-q,2020.1.3,Win32,60,13386,,,,,,,,,,,,,,0,20,20,56,1,,,,,,,,,,,,,,,,,,,,,,,,,,
,,,,,,,,,,,,l,0.73208,Correct!,,,,,,t1.png,t3.png,2,0.056466,20,Female,2020-11-09_12h01.06.585,torte-q,2020.1.3,Win32,60,13386,,,,,,,,,,,,,,0,21,21,87,1,,,,,,,,,,,,,,,,,,,,,,,,,,
,,,,,,,,,,,,a,1.02425,Correct!,,,,,,t4.png,t4.png,0,0.98115,20,Female,2020-11-09_12h01.06.585,torte-q,2020.1.3,Win32,60,13386,,,,,,,,,,,,,,0,22,22,90,1,,,,,,,,,,,,,,,,,,,,,,,,,,
,,,,,,,,,,,,a,0.513815,Incorrect,,,,,,t5.png,t1.png,4,9.55E-11,20,Female,2020-11-09_12h01.06.585,torte-q,2020.1.3,Win32,60,13386,,,,,,,,,,,,,,0,23,23,71,1,,,,,,,,,,,,,,,,,,,,,,,,,,
,,,,,,,,,,,,a,0.714465,Correct!,,,,,,t4.png,t4.png,0,0.98115,20,Female,2020-11-09_12h01.06.585,torte-q,2020.1.3,Win32,60,13386,,,,,,,,,,,,,,0,24,24,79,1,,,,,,,,,,,,,,,,,,,,,,,,,,
,,,,,,,,,,,,a,0.83393,Correct!,,,,,,t2.png,t3.png,1,0.90855,20,Female,2020-11-09_12h01.06.585,torte-q,2020.1.3,Win32,60,13386,,,,,,,,,,,,,,0,25,25,65,1,,,,,,,,,,,,,,,,,,,,,,,,,,
,,,,,,,,,,,,a,0.44793,Incorrect,,,,,,t3.png,t1.png,2,0.056466,20,Female,2020-11-09_12h01.06.585,torte-q,2020.1.3,Win32,60,13386,,,,,,,,,,,,,,0,26,26,0,1,,,,,,,,,,,,,,,,,,,,,,,,,,
,,,,,,,,,,,,a,0.913595,Correct!,,,,,,t2.png,t3.png,1,0.90855,20,Female,2020-11-09_12h01.06.585,torte-q,2020.1.3,Win32,60,13386,,,,,,,,,,,,,,0,27,27,111,1,,,,,,,,,,,,,,,,,,,,,,,,,,
,,,,,,,,,,,,l,1.08244,Correct!,,,,,,t1.png,t4.png,3,0.0000131,20,Female,2020-11-09_12h01.06.585,torte-q,2020.1.3,Win32,60,13386,,,,,,,,,,,,,,0,28,28,50,1,,,,,,,,,,,,,,,,,,,,,,,,,,
,,,,,,,,,,,,a,1.103195,Correct!,,,,,,t4.png,t4.png,0,0.98115,20,Female,2020-11-09_12h01.06.585,torte-q,2020.1.3,Win32,60,13386,,,,,,,,,,,,,,0,29,29,80,1,,,,,,,,,,,,,,,,,,,,,,,,,,
,,,,,,,,,,,,a,0.897405,Incorrect,,,,,,t4.png,t1.png,3,0.0000131,20,Female,2020-11-09_12h01.06.585,torte-q,2020.1.3,Win32,60,13386,,,,,,,,,,,,,,0,30,30,61,1,,,,,,,,,,,,,,,,,,,,,,,,,,
,,,,,,,,,,,,a,0.480345,Incorrect,,,,,,t3.png,t1.png,2,0.0565,20,Female,2020-11-09_12h01.06.585,torte-q,2020.1.3,Win32,60,13386,,,,,,,,,,,,,,0,31,31,31,1,,,,,,,,,,,,,,,,,,,,,,,,,,
,,,,,,,,,,,,l,0.603895,Correct!,,,,,,t3.png,t5.png,2,0.0565,20,Female,2020-11-09_12h01.06.585,torte-q,2020.1.3,Win32,60,13386,,,,,,,,,,,,,,0,32,32,30,1,,,,,,,,,,,,,,,,,,,,,,,,,,
,,,,,,,,,,,,a,0.51936,Correct!,,,,,,t2.png,t1.png,1,0.90025,20,Female,2020-11-09_12h01.06.585,torte-q,2020.1.3,Win32,60,13386,,,,,,,,,,,,,,0,33,33,62,1,,,,,,,,,,,,,,,,,,,,,,,,,,
,,,,,,,,,,,,a,1.150755,Correct!,,,,,,t5.png,t5.png,0,0.97829,20,Female,2020-11-09_12h01.06.585,torte-q,2020.1.3,Win32,60,13386,,,,,,,,,,,,,,0,34,34,25,1,,,,,,,,,,,,,,,,,,,,,,,,,,
,,,,,,,,,,,,a,0.49069,Incorrect,,,,,,t4.png,t1.png,3,0.0000131,20,Female,2020-11-09_12h01.06.585,torte-q,2020.1.3,Win32,60,13386,,,,,,,,,,,,,,0,35,35,13,1,,,,,,,,,,,,,,,,,,,,,,,,,,
,,,,,,,,,,,,a,0.59865,Correct!,,,,,,t4.png,t3.png,1,0.90855,20,Female,2020-11-09_12h01.06.585,torte-q,2020.1.3,Win32,60,13386,,,,,,,,,,,,,,0,36,36,75,1,,,,,,,,,,,,,,,,,,,,,,,,,,
,,,,,,,,,,,,l,0.41622,Correct!,,,,,,t1.png,t5.png,4,9.55E-11,20,Female,2020-11-09_12h01.06.585,torte-q,2020.1.3,Win32,60,13386,,,,,,,,,,,,,,0,37,37,85,1,,,,,,,,,,,,,,,,,,,,,,,,,,
,,,,,,,,,,,,a,0.501965,Incorrect,,,,,,t4.png,t2.png,2,0.059078,20,Female,2020-11-09_12h01.06.585,torte-q,2020.1.3,Win32,60,13386,,,,,,,,,,,,,,0,38,38,109,1,,,,,,,,,,,,,,,,,,,,,,,,,,
,,,,,,,,,,,,a,0.59061,Correct!,,,,,,t5.png,t5.png,0,0.97829,20,Female,2020-11-09_12h01.06.585,torte-q,2020.1.3,Win32,60,13386,,,,,,,,,,,,,,0,39,39,70,1,,,,,,,,,,,,,,,,,,,,,,,,,,
,,,,,,,,,,,,a,0.562565,Correct!,,,,,,t5.png,t5.png,0,0.978,20,Female,2020-11-09_12h01.06.585,torte-q,2020.1.3,Win32,60,13386,,,,,,,,,,,,,,0,40,40,117,1,,,,,,,,,,,,,,,,,,,,,,,,,,
,,,,,,,,,,,,l,0.53232,Correct!,,,,,,t1.png,t4.png,3,0.0000131,20,Female,2020-11-09_12h01.06.585,torte-q,2020.1.3,Win32,60,13386,,,,,,,,,,,,,,0,41,41,92,1,,,,,,,,,,,,,,,,,,,,,,,,,,
,,,,,,,,,,,,l,0.639385,Correct!,,,,,,t3.png,t5.png,2,0.0565,20,Female,2020-11-09_12h01.06.585,torte-q,2020.1.3,Win32,60,13386,,,,,,,,,,,,,,0,42,42,83,1,,,,,,,,,,,,,,,,,,,,,,,,,,
,,,,,,,,,,,,a,0.50209,Correct!,,,,,,t3.png,t1.png,2,0.056466,20,Female,2020-11-09_12h01.06.585,torte-q,2020.1.3,Win32,60,13386,,,,,,,,,,,,,,0,43,43,64,1,,,,,,,,,,,,,,,,,,,,,,,,,,
,,,,,,,,,,,,a,0.43189,Incorrect,,,,,,t4.png,t2.png,2,0.059078,20,Female,2020-11-09_12h01.06.585,torte-q,2020.1.3,Win32,60,13386,,,,,,,,,,,,,,0,44,44,86,1,,,,,,,,,,,,,,,,,,,,,,,,,,
,,,,,,,,,,,,a,1.26634,Incorrect,,,,,,t4.png,t5.png,1,0.9,20,Female,2020-11-09_12h01.06.585,torte-q,2020.1.3,Win32,60,13386,,,,,,,,,,,,,,0,45,45,115,1,,,,,,,,,,,,,,,,,,,,,,,,,,
,,,,,,,,,,,,l,0.46618,Correct!,,,,,,t1.png,t5.png,4,9.55E-11,20,Female,2020-11-09_12h01.06.585,torte-q,2020.1.3,Win32,60,13386,,,,,,,,,,,,,,0,46,46,55,1,,,,,,,,,,,,,,,,,,,,,,,,,,
,,,,,,,,,,,,a,0.473675,Correct!,,,,,,t2.png,t2.png,0,0.98115,20,Female,2020-11-09_12h01.06.585,torte-q,2020.1.3,Win32,60,13386,,,,,,,,,,,,,,0,47,47,57,1,,,,,,,,,,,,,,,,,,,,,,,,,,
,,,,,,,,,,,,a,0.48241,Correct!,,,,,,t4.png,t3.png,1,0.909,20,Female,2020-11-09_12h01.06.585,torte-q,2020.1.3,Win32,60,13386,,,,,,,,,,,,,,0,48,48,20,1,,,,,,,,,,,,,,,,,,,,,,,,,,
,,,,,,,,,,,,a,1.190535,Correct!,,,,,,t3.png,t4.png,1,0.909,20,Female,2020-11-09_12h01.06.585,torte-q,2020.1.3,Win32,60,13386,,,,,,,,,,,,,,0,49,49,89,1,,,,,,,,,,,,,,,,,,,,,,,,,,
,,,,,,,,,,,,l,0.78185,Correct!,,,,,,t2.png,t4.png,2,0.059078,20,Female,2020-11-09_12h01.06.585,torte-q,2020.1.3,Win32,60,13386,,,,,,,,,,,,,,0,50,50,24,1,,,,,,,,,,,,,,,,,,,,,,,,,,
,,,,,,,,,,,,a,0.651195,Correct!,,,,,,t4.png,t5.png,1,0.90025,20,Female,2020-11-09_12h01.06.585,torte-q,2020.1.3,Win32,60,13386,,,,,,,,,,,,,,0,51,51,58,1,,,,,,,,,,,,,,,,,,,,,,,,,,
,,,,,,,,,,,,a,0.455165,Correct!,,,,,,t3.png,t2.png,1,0.909,20,Female,2020-11-09_12h01.06.585,torte-q,2020.1.3,Win32,60,13386,,,,,,,,,,,,,,0,52,52,23,1,,,,,,,,,,,,,,,,,,,,,,,,,,
,,,,,,,,,,,,l,0.565575,Incorrect,,,,,,t1.png,t3.png,2,0.056466,20,Female,2020-11-09_12h01.06.585,torte-q,2020.1.3,Win32,60,13386,,,,,,,,,,,,,,0,53,53,60,1,,,,,,,,,,,,,,,,,,,,,,,,,,
,,,,,,,,,,,,a,0.502145,Correct!,,,,,,t4.png,t4.png,0,0.98115,20,Female,2020-11-09_12h01.06.585,torte-q,2020.1.3,Win32,60,13386,,,,,,,,,,,,,,0,54,54,52,1,,,,,,,,,,,,,,,,,,,,,,,,,,
,,,,,,,,,,,,a,0.51395,Correct!,,,,,,t2.png,t1.png,1,0.90025,20,Female,2020-11-09_12h01.06.585,torte-q,2020.1.3,Win32,60,13386,,,,,,,,,,,,,,0,55,55,5,1,,,,,,,,,,,,,,,,,,,,,,,,,,
,,,,,,,,,,,,l,0.538,Correct!,,,,,,t1.png,t5.png,4,9.55E-11,20,Female,2020-11-09_12h01.06.585,torte-q,2020.1.3,Win32,60,13386,,,,,,,,,,,,,,0,56,56,12,1,,,,,,,,,,,,,,,,,,,,,,,,,,
,,,,,,,,,,,,a,0.431965,Incorrect,,,,,,t3.png,t1.png,2,0.056466,20,Female,2020-11-09_12h01.06.585,torte-q,2020.1.3,Win32,60,13386,,,,,,,,,,,,,,0,57,57,32,1,,,,,,,,,,,,,,,,,,,,,,,,,,
,,,,,,,,,,,,a,0.4233,Incorrect,,,,,,t5.png,t1.png,4,9.55E-11,20,Female,2020-11-09_12h01.06.585,torte-q,2020.1.3,Win32,60,13386,,,,,,,,,,,,,,0,58,58,22,1,,,,,,,,,,,,,,,,,,,,,,,,,,
,,,,,,,,,,,,l,0.647335,Correct!,,,,,,t3.png,t5.png,2,0.056466,20,Female,2020-11-09_12h01.06.585,torte-q,2020.1.3,Win32,60,13386,,,,,,,,,,,,,,0,59,59,44,1,,,,,,,,,,,,,,,,,,,,,,,,,,
,,,,,,,,,,,,a,0.56584,Correct!,,,,,,t5.png,t4.png,1,0.90025,20,Female,2020-11-09_12h01.06.585,torte-q,2020.1.3,Win32,60,13386,,,,,,,,,,,,,,0,60,60,26,1,,,,,,,,,,,,,,,,,,,,,,,,,,
,,,,,,,,,,,,l,0.525975,Correct!,,,,,,t1.png,t4.png,3,0.0000131,20,Female,2020-11-09_12h01.06.585,torte-q,2020.1.3,Win32,60,13386,,,,,,,,,,,,,,0,61,61,107,1,,,,,,,,,,,,,,,,,,,,,,,,,,
,,,,,,,,,,,,l,0.582505,Correct!,,,,,,t2.png,t5.png,3,0.0000131,20,Female,2020-11-09_12h01.06.585,torte-q,2020.1.3,Win32,60,13386,,,,,,,,,,,,,,0,62,62,40,1,,,,,,,,,,,,,,,,,,,,,,,,,,
,,,,,,,,,,,,l,0.672845,Incorrect,,,,,,t4.png,t5.png,1,0.90025,20,Female,2020-11-09_12h01.06.585,torte-q,2020.1.3,Win32,60,13386,,,,,,,,,,,,,,0,63,63,103,1,,,,,,,,,,,,,,,,,,,,,,,,,,
,,,,,,,,,,,,a,0.48821,Incorrect,,,,,,t4.png,t1.png,3,0.0000131,20,Female,2020-11-09_12h01.06.585,torte-q,2020.1.3,Win32,60,13386,,,,,,,,,,,,,,0,64,64,42,1,,,,,,,,,,,,,,,,,,,,,,,,,,
,,,,,,,,,,,,a,0.79937,Correct!,,,,,,t1.png,t2.png,1,0.90025,20,Female,2020-11-09_12h01.06.585,torte-q,2020.1.3,Win32,60,13386,,,,,,,,,,,,,,0,65,65,33,1,,,,,,,,,,,,,,,,,,,,,,,,,,
,,,,,,,,,,,,l,0.42416,Correct!,,,,,,t1.png,t5.png,4,9.55E-11,20,Female,2020-11-09_12h01.06.585,torte-q,2020.1.3,Win32,60,13386,,,,,,,,,,,,,,0,66,66,41,1,,,,,,,,,,,,,,,,,,,,,,,,,,
,,,,,,,,,,,,a,0.795995,Correct!,,,,,,t2.png,t3.png,1,0.90855,20,Female,2020-11-09_12h01.06.585,torte-q,2020.1.3,Win32,60,13386,,,,,,,,,,,,,,0,67,67,68,1,,,,,,,,,,,,,,,,,,,,,,,,,,
,,,,,,,,,,,,a,0.597385,Correct!,,,,,,t5.png,t5.png,0,0.97829,20,Female,2020-11-09_12h01.06.585,torte-q,2020.1.3,Win32,60,13386,,,,,,,,,,,,,,0,68,68,94,1,,,,,,,,,,,,,,,,,,,,,,,,,,
,,,,,,,,,,,,a,0.413055,Incorrect,,,,,,t4.png,t2.png,2,0.0591,20,Female,2020-11-09_12h01.06.585,torte-q,2020.1.3,Win32,60,13386,,,,,,,,,,,,,,0,69,69,36,1,,,,,,,,,,,,,,,,,,,,,,,,,,
,,,,,,,,,,,,l,0.415325,Correct!,,,,,,t2.png,t4.png,2,0.059078,20,Female,2020-11-09_12h01.06.585,torte-q,2020.1.3,Win32,60,13386,,,,,,,,,,,,,,0,70,70,11,1,,,,,,,,,,,,,,,,,,,,,,,,,,
,,,,,,,,,,,,l,0.46118,Correct!,,,,,,t2.png,t4.png,2,0.059078,20,Female,2020-11-09_12h01.06.585,torte-q,2020.1.3,Win32,60,13386,,,,,,,,,,,,,,0,71,71,77,1,,,,,,,,,,,,,,,,,,,,,,,,,,
,,,,,,,,,,,,a,0.56582,Correct!,,,,,,t1.png,t1.png,0,0.978,20,Female,2020-11-09_12h01.06.585,torte-q,2020.1.3,Win32,60,13386,,,,,,,,,,,,,,0,72,72,54,1,,,,,,,,,,,,,,,,,,,,,,,,,,
,,,,,,,,,,,,l,0.56764,Correct!,,,,,,t2.png,t5.png,3,0.0000131,20,Female,2020-11-09_12h01.06.585,torte-q,2020.1.3,Win32,60,13386,,,,,,,,,,,,,,0,73,73,8,1,,,,,,,,,,,,,,,,,,,,,,,,,,
,,,,,,,,,,,,a,0.48784,Correct!,,,,,,t2.png,t1.png,1,0.9,20,Female,2020-11-09_12h01.06.585,torte-q,2020.1.3,Win32,60,13386,,,,,,,,,,,,,,0,74,74,118,1,,,,,,,,,,,,,,,,,,,,,,,,,,
,,,,,,,,,,,,a,0.399265,Incorrect,,,,,,t5.png,t2.png,3,0.0000131,20,Female,2020-11-09_12h01.06.585,torte-q,2020.1.3,Win32,60,13386,,,,,,,,,,,,,,0,75,75,91,1,,,,,,,,,,,,,,,,,,,,,,,,,,
,,,,,,,,,,,,l,0.415175,Correct!,,,,,,t2.png,t5.png,3,0.0000131,20,Female,2020-11-09_12h01.06.585,torte-q,2020.1.3,Win32,60,13386,,,,,,,,,,,,,,0,76,76,66,1,,,,,,,,,,,,,,,,,,,,,,,,,,
,,,,,,,,,,,,l,0.583115,Incorrect,,,,,,t3.png,t4.png,1,0.909,20,Female,2020-11-09_12h01.06.585,torte-q,2020.1.3,Win32,60,13386,,,,,,,,,,,,,,0,77,77,106,1,,,,,,,,,,,,,,,,,,,,,,,,,,
,,,,,,,,,,,,a,0.458275,Incorrect,,,,,,t5.png,t1.png,4,9.55E-11,20,Female,2020-11-09_12h01.06.585,torte-q,2020.1.3,Win32,60,13386,,,,,,,,,,,,,,0,78,78,43,1,,,,,,,,,,,,,,,,,,,,,,,,,,
,,,,,,,,,,,,a,0.800655,Correct!,,,,,,t2.png,t3.png,1,0.90855,20,Female,2020-11-09_12h01.06.585,torte-q,2020.1.3,Win32,60,13386,,,,,,,,,,,,,,0,79,79,10,1,,,,,,,,,,,,,,,,,,,,,,,,,,
,,,,,,,,,,,,a,0.69965,Correct!,,,,,,t5.png,t4.png,1,0.90025,20,Female,2020-11-09_12h01.06.585,torte-q,2020.1.3,Win32,60,13386,,,,,,,,,,,,,,0,80,80,34,1,,,,,,,,,,,,,,,,,,,,,,,,,,
,,,,,,,,,,,,a,1.017835,Correct!,,,,,,t4.png,t5.png,1,0.90025,20,Female,2020-11-09_12h01.06.585,torte-q,2020.1.3,Win32,60,13386,,,,,,,,,,,,,,0,81,81,113,1,,,,,,,,,,,,,,,,,,,,,,,,,,
,,,,,,,,,,,,a,0.46873,Incorrect,,,,,,t5.png,t2.png,3,0.0000131,20,Female,2020-11-09_12h01.06.585,torte-q,2020.1.3,Win32,60,13386,,,,,,,,,,,,,,0,82,82,119,1,,,,,,,,,,,,,,,,,,,,,,,,,,
,,,,,,,,,,,,a,0.58382,Correct!,,,,,,t4.png,t4.png,0,0.98115,20,Female,2020-11-09_12h01.06.585,torte-q,2020.1.3,Win32,60,13386,,,,,,,,,,,,,,0,83,83,21,1,,,,,,,,,,,,,,,,,,,,,,,,,,
,,,,,,,,,,,,a,0.453235,Correct!,,,,,,t3.png,t2.png,1,0.90855,20,Female,2020-11-09_12h01.06.585,torte-q,2020.1.3,Win32,60,13386,,,,,,,,,,,,,,0,84,84,18,1,,,,,,,,,,,,,,,,,,,,,,,,,,
,,,,,,,,,,,,l,0.55213,Correct!,,,,,,t1.png,t4.png,3,0.0000131,20,Female,2020-11-09_12h01.06.585,torte-q,2020.1.3,Win32,60,13386,,,,,,,,,,,,,,0,85,85,81,1,,,,,,,,,,,,,,,,,,,,,,,,,,
,,,,,,,,,,,,a,0.82642,Correct!,,,,,,t1.png,t2.png,1,0.90025,20,Female,2020-11-09_12h01.06.585,torte-q,2020.1.3,Win32,60,13386,,,,,,,,,,,,,,0,86,86,112,1,,,,,,,,,,,,,,,,,,,,,,,,,,
,,,,,,,,,,,,l,1.181675,Correct!,,,,,,t3.png,t5.png,2,0.056466,20,Female,2020-11-09_12h01.06.585,torte-q,2020.1.3,Win32,60,13386,,,,,,,,,,,,,,0,87,87,14,1,,,,,,,,,,,,,,,,,,,,,,,,,,
,,,,,,,,,,,,a,0.817635,Incorrect,,,,,,t5.png,t2.png,3,0.0000131,20,Female,2020-11-09_12h01.06.585,torte-q,2020.1.3,Win32,60,13386,,,,,,,,,,,,,,0,88,88,51,1,,,,,,,,,,,,,,,,,,,,,,,,,,
,,,,,,,,,,,,a,0.571935,Correct!,,,,,,t2.png,t2.png,0,0.98115,20,Female,2020-11-09_12h01.06.585,torte-q,2020.1.3,Win32,60,13386,,,,,,,,,,,,,,0,89,89,2,1,,,,,,,,,,,,,,,,,,,,,,,,,,
,,,,,,,,,,,,a,0.440655,Correct!,,,,,,t3.png,t2.png,1,0.90855,20,Female,2020-11-09_12h01.06.585,torte-q,2020.1.3,Win32,60,13386,,,,,,,,,,,,,,0,90,90,97,1,,,,,,,,,,,,,,,,,,,,,,,,,,
,,,,,,,,,,,,l,0.46651,Correct!,,,,,,t2.png,t4.png,2,0.059078,20,Female,2020-11-09_12h01.06.585,torte-q,2020.1.3,Win32,60,13386,,,,,,,,,,,,,,0,91,91,37,1,,,,,,,,,,,,,,,,,,,,,,,,,,
,,,,,,,,,,,,a,0.56578,Correct!,,,,,,t5.png,t5.png,0,0.97829,20,Female,2020-11-09_12h01.06.585,torte-q,2020.1.3,Win32,60,13386,,,,,,,,,,,,,,0,92,92,73,1,,,,,,,,,,,,,,,,,,,,,,,,,,
,,,,,,,,,,,,a,0.49869,Correct!,,,,,,t2.png,t2.png,0,0.98115,20,Female,2020-11-09_12h01.06.585,torte-q,2020.1.3,Win32,60,13386,,,,,,,,,,,,,,0,93,93,59,1,,,,,,,,,,,,,,,,,,,,,,,,,,
,,,,,,,,,,,,a,0.56845,Correct!,,,,,,t5.png,t4.png,1,0.9,20,Female,2020-11-09_12h01.06.585,torte-q,2020.1.3,Win32,60,13386,,,,,,,,,,,,,,0,94,94,49,1,,,,,,,,,,,,,,,,,,,,,,,,,,
,,,,,,,,,,,,l,0.952105,Correct!,,,,,,t1.png,t3.png,2,0.056466,20,Female,2020-11-09_12h01.06.585,torte-q,2020.1.3,Win32,60,13386,,,,,,,,,,,,,,0,95,95,99,1,,,,,,,,,,,,,,,,,,,,,,,,,,
,,,,,,,,,,,,l,0.701895,Incorrect,,,,,,t3.png,t4.png,1,0.90855,20,Female,2020-11-09_12h01.06.585,torte-q,2020.1.3,Win32,60,13386,,,,,,,,,,,,,,0,96,96,96,1,,,,,,,,,,,,,,,,,,,,,,,,,,
,,,,,,,,,,,,a,0.62053,Incorrect,,,,,,t5.png,t1.png,4,9.55E-11,20,Female,2020-11-09_12h01.06.585,torte-q,2020.1.3,Win32,60,13386,,,,,,,,,,,,,,0,97,97,102,1,,,,,,,,,,,,,,,,,,,,,,,,,,
,,,,,,,,,,,,l,0.531885,Correct!,,,,,,t2.png,t4.png,2,0.0591,20,Female,2020-11-09_12h01.06.585,torte-q,2020.1.3,Win32,60,13386,,,,,,,,,,,,,,0,98,98,15,1,,,,,,,,,,,,,,,,,,,,,,,,,,
,,,,,,,,,,,,a,0.87151,Correct!,,,,,,t1.png,t2.png,1,0.9,20,Female,2020-11-09_12h01.06.585,torte-q,2020.1.3,Win32,60,13386,,,,,,,,,,,,,,0,99,99,1,1,,,,,,,,,,,,,,,,,,,,,,,,,,
,,,,,,,,,,,,a,0.50292,Correct!,,,,,,t2.png,t1.png,1,0.90025,20,Female,2020-11-09_12h01.06.585,torte-q,2020.1.3,Win32,60,13386,,,,,,,,,,,,,,0,100,100,19,1,,,,,,,,,,,,,,,,,,,,,,,,,,
,,,,,,,,,,,,a,0.431535,Incorrect,,,,,,t5.png,t2.png,3,0.0000131,20,Female,2020-11-09_12h01.06.585,torte-q,2020.1.3,Win32,60,13386,,,,,,,,,,,,,,0,101,101,116,1,,,,,,,,,,,,,,,,,,,,,,,,,,
,,,,,,,,,,,,a,0.55512,Correct!,,,,,,t4.png,t3.png,1,0.90855,20,Female,2020-11-09_12h01.06.585,torte-q,2020.1.3,Win32,60,13386,,,,,,,,,,,,,,0,102,102,45,1,,,,,,,,,,,,,,,,,,,,,,,,,,
,,,,,,,,,,,,a,0.43448,Incorrect,,,,,,t4.png,t1.png,3,0.0000131,20,Female,2020-11-09_12h01.06.585,torte-q,2020.1.3,Win32,60,13386,,,,,,,,,,,,,,0,103,103,48,1,,,,,,,,,,,,,,,,,,,,,,,,,,
,,,,,,,,,,,,a,0.398795,Incorrect,,,,,,t4.png,t2.png,2,0.059078,20,Female,2020-11-09_12h01.06.585,torte-q,2020.1.3,Win32,60,13386,,,,,,,,,,,,,,0,104,104,110,1,,,,,,,,,,,,,,,,,,,,,,,,,,
,,,,,,,,,,,,a,0.64661,Incorrect,,,,,,t5.png,t3.png,2,0.056466,20,Female,2020-11-09_12h01.06.585,torte-q,2020.1.3,Win32,60,13386,,,,,,,,,,,,,,0,105,105,38,1,,,,,,,,,,,,,,,,,,,,,,,,,,
,,,,,,,,,,,,a,1.380285,Incorrect,,,,,,t4.png,t2.png,2,0.059078,20,Female,2020-11-09_12h01.06.585,torte-q,2020.1.3,Win32,60,13386,,,,,,,,,,,,,,0,106,106,88,1,,,,,,,,,,,,,,,,,,,,,,,,,,
,,,,,,,,,,,,a,1.14683,Incorrect,,,,,,t1.png,t2.png,1,0.90025,20,Female,2020-11-09_12h01.06.585,torte-q,2020.1.3,Win32,60,13386,,,,,,,,,,,,,,0,107,107,105,1,,,,,,,,,,,,,,,,,,,,,,,,,,
,,,,,,,,,,,,l,0.640145,Incorrect,,,,,,t3.png,t4.png,1,0.90855,20,Female,2020-11-09_12h01.06.585,torte-q,2020.1.3,Win32,60,13386,,,,,,,,,,,,,,0,108,108,84,1,,,,,,,,,,,,,,,,,,,,,,,,,,
,,,,,,,,,,,,a,1.183285,Correct!,,,,,,t2.png,t3.png,1,0.909,20,Female,2020-11-09_12h01.06.585,torte-q,2020.1.3,Win32,60,13386,,,,,,,,,,,,,,0,109,109,74,1,,,,,,,,,,,,,,,,,,,,,,,,,,
,,,,,,,,,,,,a,1.25029,Correct!,,,,,,t2.png,t2.png,0,0.98115,20,Female,2020-11-09_12h01.06.585,torte-q,2020.1.3,Win32,60,13386,,,,,,,,,,,,,,0,110,110,7,1,,,,,,,,,,,,,,,,,,,,,,,,,,
,,,,,,,,,,,,l,0.753975,Correct!,,,,,,t1.png,t5.png,4,9.55E-11,20,Female,2020-11-09_12h01.06.585,torte-q,2020.1.3,Win32,60,13386,,,,,,,,,,,,,,0,111,111,16,1,,,,,,,,,,,,,,,,,,,,,,,,,,
,,,,,,,,,,,,l,1.16814,Correct!,,,,,,t2.png,t5.png,3,0.0000131,20,Female,2020-11-09_12h01.06.585,torte-q,2020.1.3,Win32,60,13386,,,,,,,,,,,,,,0,112,112,104,1,,,,,,,,,,,,,,,,,,,,,,,,,,
,,,,,,,,,,,,a,1.243035,Correct!,,,,,,t3.png,t4.png,1,0.909,20,Female,2020-11-09_12h01.06.585,torte-q,2020.1.3,Win32,60,13386,,,,,,,,,,,,,,0,113,113,82,1,,,,,,,,,,,,,,,,,,,,,,,,,,
,,,,,,,,,,,,a,0.53471,Correct!,,,,,,t1.png,t1.png,0,0.97829,20,Female,2020-11-09_12h01.06.585,torte-q,2020.1.3,Win32,60,13386,,,,,,,,,,,,,,0,114,114,67,1,,,,,,,,,,,,,,,,,,,,,,,,,,
,,,,,,,,,,,,a,0.39908,Incorrect,,,,,,t5.png,t2.png,3,0.0000131,20,Female,2020-11-09_12h01.06.585,torte-q,2020.1.3,Win32,60,13386,,,,,,,,,,,,,,0,115,115,98,1,,,,,,,,,,,,,,,,,,,,,,,,,,
,,,,,,,,,,,,l,1.130765,Correct!,,,,,,t1.png,t3.png,2,0.056466,20,Female,2020-11-09_12h01.06.585,torte-q,2020.1.3,Win32,60,13386,,,,,,,,,,,,,,0,116,116,63,1,,,,,,,,,,,,,,,,,,,,,,,,,,
,,,,,,,,,,,,a,0.4163,Correct!,,,,,,t3.png,t2.png,1,0.909,20,Female,2020-11-09_12h01.06.585,torte-q,2020.1.3,Win32,60,13386,,,,,,,,,,,,,,0,117,117,3,1,,,,,,,,,,,,,,,,,,,,,,,,,,
,,,,,,,,,,,,a,0.570685,Correct!,,,,,,t5.png,t4.png,1,0.90025,20,Female,2020-11-09_12h01.06.585,torte-q,2020.1.3,Win32,60,13386,,,,,,,,,,,,,,0,118,118,27,1,,,,,,,,,,,,,,,,,,,,,,,,,,
,,,,,,,,,,,,a,0.649415,Correct!,,,,,,t3.png,t2.png,1,0.90855,20,Female,2020-11-09_12h01.06.585,torte-q,2020.1.3,Win32,60,13386,,,,,,,,,,,,,,0,119,119,53,1,,,,,,,,,,,,,,,,,,,,,,,,,,
,,,,,,,,,,,,,,,,,,,,,,,,20,Female,2020-11-09_12h01.06.585,torte-q,2020.1.3,Win32,60,13386,space,1.598815,,,,,,,,,,,,,,,,,5.518433051,5.560615,177.2895057,179.7894496,1,0,0,s1,72.02640831,31.36840773,1,0,0,t2,229.9210865,-109.6842289,1,0,0,proceed,space,16.87442,space,0.69654,space,0.98081
