key_resp_8.keys,key_resp_8.rt,key_resp_9.keys,key_resp_9.rt,key_resp_10.keys,key_resp_10.rt,key_resp_11.keys,key_resp_11.rt,key_resp_2.keys,key_resp_2.rt,key_resp_3.keys,key_resp_3.rt,key_resp.keys,Feedback,train.thisRepN,train.thisTrialN,train.thisN,train.thisIndex,train.ran,torta_sx,torta_dx,difference,probability,age,gender,date,expName,psychopyVersion,OS,frameRate,participant,key_resp.rt,key_resp_15.keys,key_resp_15.rt,key_resp_6.keys,key_resp_6.rt,test1.thisRepN,test1.thisTrialN,test1.thisN,test1.thisIndex,test1.ran,key_resp_16.keys,key_resp_16.rt,key_resp_7.keys,key_resp_7.rt,test2.thisRepN,test2.thisTrialN,test2.thisN,test2.thisIndex,test2.ran,rating.response,rating.rt,mouse.x,mouse.y,mouse.leftButton,mouse.midButton,mouse.rightButton,mouse.clicked_name,mouse_2.x,mouse_2.y,mouse_2.leftButton,mouse_2.midButton,mouse_2.rightButton,mouse_2.clicked_name,mouse_3.x,mouse_3.y,mouse_3.leftButton,mouse_3.midButton,mouse_3.rightButton,mouse_3.clicked_name,key_resp_12.keys,key_resp_12.rt,key_resp_13.keys,key_resp_13.rt,key_resp_14.keys,key_resp_14.rt
space,14.918,space,0.02,space,0.782,space,6.515,return,0.608,n,43.404,,Too slow :(,0,0,0,108,1,t5.png,t1.png,4,9.55E-11,19,female,2020-10-20_16h27.26.843,torte-q,2020.1.3,MacIntel,60,13401,,,,,,,,,,,,,,,,,,,,,,,,,,,,,,,,,,,,,,,,,,,,,
,,,,,,,,,,,,a,Correct!,0,1,1,78,1,t1.png,t1.png,0,0.978,19,female,2020-10-20_16h27.26.843,torte-q,2020.1.3,MacIntel,60,13401,1.299,,,,,,,,,,,,,,,,,,,,,,,,,,,,,,,,,,,,,,,,,,,,
,,,,,,,,,,,,l,Correct!,0,2,2,53,1,t3.png,t1.png,2,0.056466,19,female,2020-10-20_16h27.26.843,torte-q,2020.1.3,MacIntel,60,13401,1.519,,,,,,,,,,,,,,,,,,,,,,,,,,,,,,,,,,,,,,,,,,,,
,,,,,,,,,,,,a,Correct!,0,3,3,44,1,t2.png,t3.png,1,0.909,19,female,2020-10-20_16h27.26.843,torte-q,2020.1.3,MacIntel,60,13401,1.088,,,,,,,,,,,,,,,,,,,,,,,,,,,,,,,,,,,,,,,,,,,,
,,,,,,,,,,,,a,Correct!,0,4,4,63,1,t2.png,t3.png,1,0.909,19,female,2020-10-20_16h27.26.843,torte-q,2020.1.3,MacIntel,60,13401,0.788,,,,,,,,,,,,,,,,,,,,,,,,,,,,,,,,,,,,,,,,,,,,
,,,,,,,,,,,,a,Incorrect,0,5,5,91,1,t1.png,t4.png,3,0.0000131,19,female,2020-10-20_16h27.26.843,torte-q,2020.1.3,MacIntel,60,13401,1.138,,,,,,,,,,,,,,,,,,,,,,,,,,,,,,,,,,,,,,,,,,,,
,,,,,,,,,,,,a,Correct!,0,6,6,32,1,t4.png,t5.png,1,0.90025,19,female,2020-10-20_16h27.26.843,torte-q,2020.1.3,MacIntel,60,13401,1.595,,,,,,,,,,,,,,,,,,,,,,,,,,,,,,,,,,,,,,,,,,,,
,,,,,,,,,,,,l,Correct!,0,7,7,5,1,t2.png,t4.png,2,0.059078,19,female,2020-10-20_16h27.26.843,torte-q,2020.1.3,MacIntel,60,13401,1.268,,,,,,,,,,,,,,,,,,,,,,,,,,,,,,,,,,,,,,,,,,,,
,,,,,,,,,,,,a,Correct!,0,8,8,74,1,t5.png,t4.png,1,0.9,19,female,2020-10-20_16h27.26.843,torte-q,2020.1.3,MacIntel,60,13401,0.901,,,,,,,,,,,,,,,,,,,,,,,,,,,,,,,,,,,,,,,,,,,,
,,,,,,,,,,,,l,Incorrect,0,9,9,16,1,t5.png,t4.png,1,0.9,19,female,2020-10-20_16h27.26.843,torte-q,2020.1.3,MacIntel,60,13401,0.806,,,,,,,,,,,,,,,,,,,,,,,,,,,,,,,,,,,,,,,,,,,,
,,,,,,,,,,,,l,Correct!,0,10,10,19,1,t4.png,t2.png,2,0.059078,19,female,2020-10-20_16h27.26.843,torte-q,2020.1.3,MacIntel,60,13401,1.04,,,,,,,,,,,,,,,,,,,,,,,,,,,,,,,,,,,,,,,,,,,,
,,,,,,,,,,,,l,Correct!,0,11,11,51,1,t3.png,t1.png,2,0.056466,19,female,2020-10-20_16h27.26.843,torte-q,2020.1.3,MacIntel,60,13401,0.801,,,,,,,,,,,,,,,,,,,,,,,,,,,,,,,,,,,,,,,,,,,,
,,,,,,,,,,,,a,Incorrect,0,12,12,69,1,t4.png,t2.png,2,0.059078,19,female,2020-10-20_16h27.26.843,torte-q,2020.1.3,MacIntel,60,13401,0.712,,,,,,,,,,,,,,,,,,,,,,,,,,,,,,,,,,,,,,,,,,,,
,,,,,,,,,,,,l,Incorrect,0,13,13,75,1,t1.png,t1.png,0,0.97829,19,female,2020-10-20_16h27.26.843,torte-q,2020.1.3,MacIntel,60,13401,0.756,,,,,,,,,,,,,,,,,,,,,,,,,,,,,,,,,,,,,,,,,,,,
,,,,,,,,,,,,l,Incorrect,0,14,14,59,1,t5.png,t4.png,1,0.9,19,female,2020-10-20_16h27.26.843,torte-q,2020.1.3,MacIntel,60,13401,0.904,,,,,,,,,,,,,,,,,,,,,,,,,,,,,,,,,,,,,,,,,,,,
,,,,,,,,,,,,a,Correct!,0,15,15,65,1,t4.png,t5.png,1,0.90025,19,female,2020-10-20_16h27.26.843,torte-q,2020.1.3,MacIntel,60,13401,0.658,,,,,,,,,,,,,,,,,,,,,,,,,,,,,,,,,,,,,,,,,,,,
,,,,,,,,,,,,l,Incorrect,0,16,16,84,1,t1.png,t1.png,0,0.97829,19,female,2020-10-20_16h27.26.843,torte-q,2020.1.3,MacIntel,60,13401,1.181,,,,,,,,,,,,,,,,,,,,,,,,,,,,,,,,,,,,,,,,,,,,
,,,,,,,,,,,,a,Correct!,0,17,17,22,1,t2.png,t3.png,1,0.90855,19,female,2020-10-20_16h27.26.843,torte-q,2020.1.3,MacIntel,60,13401,1.055,,,,,,,,,,,,,,,,,,,,,,,,,,,,,,,,,,,,,,,,,,,,
,,,,,,,,,,,,a,Correct!,0,18,18,13,1,t5.png,t5.png,0,0.97829,19,female,2020-10-20_16h27.26.843,torte-q,2020.1.3,MacIntel,60,13401,1.039,,,,,,,,,,,,,,,,,,,,,,,,,,,,,,,,,,,,,,,,,,,,
,,,,,,,,,,,,a,Correct!,0,19,19,79,1,t3.png,t2.png,1,0.909,19,female,2020-10-20_16h27.26.843,torte-q,2020.1.3,MacIntel,60,13401,1.014,,,,,,,,,,,,,,,,,,,,,,,,,,,,,,,,,,,,,,,,,,,,
,,,,,,,,,,,,l,Correct!,0,20,20,50,1,t5.png,t1.png,4,9.55E-11,19,female,2020-10-20_16h27.26.843,torte-q,2020.1.3,MacIntel,60,13401,0.947,,,,,,,,,,,,,,,,,,,,,,,,,,,,,,,,,,,,,,,,,,,,
,,,,,,,,,,,,l,Correct!,0,21,21,82,1,t5.png,t1.png,4,9.55E-11,19,female,2020-10-20_16h27.26.843,torte-q,2020.1.3,MacIntel,60,13401,1.061,,,,,,,,,,,,,,,,,,,,,,,,,,,,,,,,,,,,,,,,,,,,
,,,,,,,,,,,,a,Correct!,0,22,22,109,1,t5.png,t5.png,0,0.97829,19,female,2020-10-20_16h27.26.843,torte-q,2020.1.3,MacIntel,60,13401,1.056,,,,,,,,,,,,,,,,,,,,,,,,,,,,,,,,,,,,,,,,,,,,
,,,,,,,,,,,,a,Correct!,0,23,23,76,1,t3.png,t2.png,1,0.90855,19,female,2020-10-20_16h27.26.843,torte-q,2020.1.3,MacIntel,60,13401,0.641,,,,,,,,,,,,,,,,,,,,,,,,,,,,,,,,,,,,,,,,,,,,
,,,,,,,,,,,,l,Incorrect,0,24,24,48,1,t5.png,t5.png,0,0.97829,19,female,2020-10-20_16h27.26.843,torte-q,2020.1.3,MacIntel,60,13401,0.75,,,,,,,,,,,,,,,,,,,,,,,,,,,,,,,,,,,,,,,,,,,,
,,,,,,,,,,,,l,Correct!,0,25,25,86,1,t3.png,t1.png,2,0.056466,19,female,2020-10-20_16h27.26.843,torte-q,2020.1.3,MacIntel,60,13401,0.808,,,,,,,,,,,,,,,,,,,,,,,,,,,,,,,,,,,,,,,,,,,,
,,,,,,,,,,,,a,Correct!,0,26,26,20,1,t2.png,t3.png,1,0.90855,19,female,2020-10-20_16h27.26.843,torte-q,2020.1.3,MacIntel,60,13401,1.153,,,,,,,,,,,,,,,,,,,,,,,,,,,,,,,,,,,,,,,,,,,,
,,,,,,,,,,,,l,Incorrect,0,27,27,9,1,t4.png,t5.png,1,0.9,19,female,2020-10-20_16h27.26.843,torte-q,2020.1.3,MacIntel,60,13401,1.12,,,,,,,,,,,,,,,,,,,,,,,,,,,,,,,,,,,,,,,,,,,,
,,,,,,,,,,,,l,Correct!,0,28,28,0,1,t5.png,t1.png,4,9.55E-11,19,female,2020-10-20_16h27.26.843,torte-q,2020.1.3,MacIntel,60,13401,0.996,,,,,,,,,,,,,,,,,,,,,,,,,,,,,,,,,,,,,,,,,,,,
,,,,,,,,,,,,a,Incorrect,0,29,29,93,1,t2.png,t4.png,2,0.059078,19,female,2020-10-20_16h27.26.843,torte-q,2020.1.3,MacIntel,60,13401,1.061,,,,,,,,,,,,,,,,,,,,,,,,,,,,,,,,,,,,,,,,,,,,
,,,,,,,,,,,,a,Incorrect,0,30,30,30,1,t3.png,t1.png,2,0.056466,19,female,2020-10-20_16h27.26.843,torte-q,2020.1.3,MacIntel,60,13401,1.369,,,,,,,,,,,,,,,,,,,,,,,,,,,,,,,,,,,,,,,,,,,,
,,,,,,,,,,,,l,Correct!,0,31,31,26,1,t4.png,t2.png,2,0.0591,19,female,2020-10-20_16h27.26.843,torte-q,2020.1.3,MacIntel,60,13401,1.345,,,,,,,,,,,,,,,,,,,,,,,,,,,,,,,,,,,,,,,,,,,,
,,,,,,,,,,,,a,Incorrect,0,32,32,103,1,t3.png,t1.png,2,0.056466,19,female,2020-10-20_16h27.26.843,torte-q,2020.1.3,MacIntel,60,13401,1.592,,,,,,,,,,,,,,,,,,,,,,,,,,,,,,,,,,,,,,,,,,,,
,,,,,,,,,,,,l,Correct!,0,33,33,73,1,t4.png,t2.png,2,0.059078,19,female,2020-10-20_16h27.26.843,torte-q,2020.1.3,MacIntel,60,13401,0.869,,,,,,,,,,,,,,,,,,,,,,,,,,,,,,,,,,,,,,,,,,,,
,,,,,,,,,,,,l,Incorrect,0,34,34,66,1,t4.png,t5.png,1,0.9,19,female,2020-10-20_16h27.26.843,torte-q,2020.1.3,MacIntel,60,13401,1.138,,,,,,,,,,,,,,,,,,,,,,,,,,,,,,,,,,,,,,,,,,,,
,,,,,,,,,,,,l,Incorrect,0,35,35,15,1,t3.png,t2.png,1,0.90855,19,female,2020-10-20_16h27.26.843,torte-q,2020.1.3,MacIntel,60,13401,1.33,,,,,,,,,,,,,,,,,,,,,,,,,,,,,,,,,,,,,,,,,,,,
,,,,,,,,,,,,a,Incorrect,0,36,36,46,1,t4.png,t2.png,2,0.059078,19,female,2020-10-20_16h27.26.843,torte-q,2020.1.3,MacIntel,60,13401,1.322,,,,,,,,,,,,,,,,,,,,,,,,,,,,,,,,,,,,,,,,,,,,
,,,,,,,,,,,,l,Correct!,0,37,37,111,1,t5.png,t1.png,4,9.55E-11,19,female,2020-10-20_16h27.26.843,torte-q,2020.1.3,MacIntel,60,13401,0.781,,,,,,,,,,,,,,,,,,,,,,,,,,,,,,,,,,,,,,,,,,,,
,,,,,,,,,,,,l,Correct!,0,38,38,43,1,t4.png,t2.png,2,0.059078,19,female,2020-10-20_16h27.26.843,torte-q,2020.1.3,MacIntel,60,13401,0.865,,,,,,,,,,,,,,,,,,,,,,,,,,,,,,,,,,,,,,,,,,,,
,,,,,,,,,,,,l,Incorrect,0,39,39,49,1,t4.png,t5.png,1,0.9,19,female,2020-10-20_16h27.26.843,torte-q,2020.1.3,MacIntel,60,13401,1.131,,,,,,,,,,,,,,,,,,,,,,,,,,,,,,,,,,,,,,,,,,,,
,,,,,,,,,,,,l,Correct!,0,40,40,88,1,t3.png,t1.png,2,0.056466,19,female,2020-10-20_16h27.26.843,torte-q,2020.1.3,MacIntel,60,13401,0.589,,,,,,,,,,,,,,,,,,,,,,,,,,,,,,,,,,,,,,,,,,,,
,,,,,,,,,,,,l,Correct!,0,41,41,12,1,t5.png,t1.png,4,9.55E-11,19,female,2020-10-20_16h27.26.843,torte-q,2020.1.3,MacIntel,60,13401,0.719,,,,,,,,,,,,,,,,,,,,,,,,,,,,,,,,,,,,,,,,,,,,
,,,,,,,,,,,,a,Correct!,0,42,42,107,1,t1.png,t1.png,0,0.978,19,female,2020-10-20_16h27.26.843,torte-q,2020.1.3,MacIntel,60,13401,1.014,,,,,,,,,,,,,,,,,,,,,,,,,,,,,,,,,,,,,,,,,,,,
,,,,,,,,,,,,l,Correct!,0,43,43,40,1,t1.png,t5.png,4,9.55E-11,19,female,2020-10-20_16h27.26.843,torte-q,2020.1.3,MacIntel,60,13401,1.431,,,,,,,,,,,,,,,,,,,,,,,,,,,,,,,,,,,,,,,,,,,,
,,,,,,,,,,,,a,Correct!,0,44,44,106,1,t2.png,t3.png,1,0.90855,19,female,2020-10-20_16h27.26.843,torte-q,2020.1.3,MacIntel,60,13401,0.861,,,,,,,,,,,,,,,,,,,,,,,,,,,,,,,,,,,,,,,,,,,,
,,,,,,,,,,,,a,Incorrect,0,45,45,68,1,t1.png,t4.png,3,0.0000131,19,female,2020-10-20_16h27.26.843,torte-q,2020.1.3,MacIntel,60,13401,1.137,,,,,,,,,,,,,,,,,,,,,,,,,,,,,,,,,,,,,,,,,,,,
,,,,,,,,,,,,l,Incorrect,0,46,46,62,1,t5.png,t5.png,0,0.978,19,female,2020-10-20_16h27.26.843,torte-q,2020.1.3,MacIntel,60,13401,1.725,,,,,,,,,,,,,,,,,,,,,,,,,,,,,,,,,,,,,,,,,,,,
,,,,,,,,,,,,l,Correct!,0,47,47,27,1,t3.png,t1.png,2,0.0565,19,female,2020-10-20_16h27.26.843,torte-q,2020.1.3,MacIntel,60,13401,1.879,,,,,,,,,,,,,,,,,,,,,,,,,,,,,,,,,,,,,,,,,,,,
,,,,,,,,,,,,a,Incorrect,0,48,48,24,1,t4.png,t2.png,2,0.059078,19,female,2020-10-20_16h27.26.843,torte-q,2020.1.3,MacIntel,60,13401,0.568,,,,,,,,,,,,,,,,,,,,,,,,,,,,,,,,,,,,,,,,,,,,
,,,,,,,,,,,,l,Incorrect,0,49,49,70,1,t5.png,t5.png,0,0.978,19,female,2020-10-20_16h27.26.843,torte-q,2020.1.3,MacIntel,60,13401,0.816,,,,,,,,,,,,,,,,,,,,,,,,,,,,,,,,,,,,,,,,,,,,
,,,,,,,,,,,,a,Incorrect,0,50,50,6,1,t1.png,t4.png,3,0.0000131,19,female,2020-10-20_16h27.26.843,torte-q,2020.1.3,MacIntel,60,13401,1.107,,,,,,,,,,,,,,,,,,,,,,,,,,,,,,,,,,,,,,,,,,,,
,,,,,,,,,,,,l,Correct!,0,51,51,119,1,t1.png,t5.png,4,9.55E-11,19,female,2020-10-20_16h27.26.843,torte-q,2020.1.3,MacIntel,60,13401,1.25,,,,,,,,,,,,,,,,,,,,,,,,,,,,,,,,,,,,,,,,,,,,
,,,,,,,,,,,,l,Correct!,0,52,52,94,1,t5.png,t1.png,4,9.55E-11,19,female,2020-10-20_16h27.26.843,torte-q,2020.1.3,MacIntel,60,13401,0.849,,,,,,,,,,,,,,,,,,,,,,,,,,,,,,,,,,,,,,,,,,,,
,,,,,,,,,,,,l,Incorrect,0,53,53,105,1,t3.png,t2.png,1,0.90855,19,female,2020-10-20_16h27.26.843,torte-q,2020.1.3,MacIntel,60,13401,1.187,,,,,,,,,,,,,,,,,,,,,,,,,,,,,,,,,,,,,,,,,,,,
,,,,,,,,,,,,a,Incorrect,0,54,54,17,1,t1.png,t4.png,3,0.0000131,19,female,2020-10-20_16h27.26.843,torte-q,2020.1.3,MacIntel,60,13401,1.265,,,,,,,,,,,,,,,,,,,,,,,,,,,,,,,,,,,,,,,,,,,,
,,,,,,,,,,,,a,Incorrect,0,55,55,31,1,t1.png,t5.png,4,9.55E-11,19,female,2020-10-20_16h27.26.843,torte-q,2020.1.3,MacIntel,60,13401,0.714,,,,,,,,,,,,,,,,,,,,,,,,,,,,,,,,,,,,,,,,,,,,
,,,,,,,,,,,,l,Correct!,0,56,56,98,1,t2.png,t4.png,2,0.0591,19,female,2020-10-20_16h27.26.843,torte-q,2020.1.3,MacIntel,60,13401,0.565,,,,,,,,,,,,,,,,,,,,,,,,,,,,,,,,,,,,,,,,,,,,
,,,,,,,,,,,,l,Correct!,0,57,57,67,1,t1.png,t5.png,4,9.55E-11,19,female,2020-10-20_16h27.26.843,torte-q,2020.1.3,MacIntel,60,13401,0.64,,,,,,,,,,,,,,,,,,,,,,,,,,,,,,,,,,,,,,,,,,,,
,,,,,,,,,,,,l,Incorrect,0,58,58,100,1,t4.png,t5.png,1,0.90025,19,female,2020-10-20_16h27.26.843,torte-q,2020.1.3,MacIntel,60,13401,0.707,,,,,,,,,,,,,,,,,,,,,,,,,,,,,,,,,,,,,,,,,,,,
,,,,,,,,,,,,a,Correct!,0,59,59,21,1,t5.png,t4.png,1,0.90025,19,female,2020-10-20_16h27.26.843,torte-q,2020.1.3,MacIntel,60,13401,1.432,,,,,,,,,,,,,,,,,,,,,,,,,,,,,,,,,,,,,,,,,,,,
,,,,,,,,,,,,a,Correct!,0,60,60,97,1,t5.png,t5.png,0,0.97829,19,female,2020-10-20_16h27.26.843,torte-q,2020.1.3,MacIntel,60,13401,1.475,,,,,,,,,,,,,,,,,,,,,,,,,,,,,,,,,,,,,,,,,,,,
,,,,,,,,,,,,l,Correct!,0,61,61,115,1,t2.png,t4.png,2,0.059078,19,female,2020-10-20_16h27.26.843,torte-q,2020.1.3,MacIntel,60,13401,0.836,,,,,,,,,,,,,,,,,,,,,,,,,,,,,,,,,,,,,,,,,,,,
,,,,,,,,,,,,l,Correct!,0,62,62,1,1,t2.png,t4.png,2,0.059078,19,female,2020-10-20_16h27.26.843,torte-q,2020.1.3,MacIntel,60,13401,2.064,,,,,,,,,,,,,,,,,,,,,,,,,,,,,,,,,,,,,,,,,,,,
,,,,,,,,,,,,a,Incorrect,0,63,63,117,1,t1.png,t5.png,4,9.55E-11,19,female,2020-10-20_16h27.26.843,torte-q,2020.1.3,MacIntel,60,13401,0.762,,,,,,,,,,,,,,,,,,,,,,,,,,,,,,,,,,,,,,,,,,,,
,,,,,,,,,,,,a,Correct!,0,64,64,2,1,t3.png,t2.png,1,0.90855,19,female,2020-10-20_16h27.26.843,torte-q,2020.1.3,MacIntel,60,13401,1.015,,,,,,,,,,,,,,,,,,,,,,,,,,,,,,,,,,,,,,,,,,,,
,,,,,,,,,,,,l,Correct!,0,65,65,58,1,t5.png,t4.png,1,0.90025,19,female,2020-10-20_16h27.26.843,torte-q,2020.1.3,MacIntel,60,13401,1.57,,,,,,,,,,,,,,,,,,,,,,,,,,,,,,,,,,,,,,,,,,,,
,,,,,,,,,,,,l,Incorrect,0,66,66,25,1,t5.png,t5.png,0,0.97829,19,female,2020-10-20_16h27.26.843,torte-q,2020.1.3,MacIntel,60,13401,1.065,,,,,,,,,,,,,,,,,,,,,,,,,,,,,,,,,,,,,,,,,,,,
,,,,,,,,,,,,l,Correct!,0,67,67,72,1,t4.png,t2.png,2,0.059078,19,female,2020-10-20_16h27.26.843,torte-q,2020.1.3,MacIntel,60,13401,1.031,,,,,,,,,,,,,,,,,,,,,,,,,,,,,,,,,,,,,,,,,,,,
,,,,,,,,,,,,a,Incorrect,0,68,68,54,1,t1.png,t5.png,4,9.55E-11,19,female,2020-10-20_16h27.26.843,torte-q,2020.1.3,MacIntel,60,13401,0.821,,,,,,,,,,,,,,,,,,,,,,,,,,,,,,,,,,,,,,,,,,,,
,,,,,,,,,,,,a,Correct!,0,69,69,71,1,t5.png,t5.png,0,0.97829,19,female,2020-10-20_16h27.26.843,torte-q,2020.1.3,MacIntel,60,13401,1.188,,,,,,,,,,,,,,,,,,,,,,,,,,,,,,,,,,,,,,,,,,,,
,,,,,,,,,,,,l,Incorrect,0,70,70,10,1,t2.png,t3.png,1,0.90855,19,female,2020-10-20_16h27.26.843,torte-q,2020.1.3,MacIntel,60,13401,1.653,,,,,,,,,,,,,,,,,,,,,,,,,,,,,,,,,,,,,,,,,,,,
,,,,,,,,,,,,l,Incorrect,0,71,71,36,1,t3.png,t1.png,2,0.0565,19,female,2020-10-20_16h27.26.843,torte-q,2020.1.3,MacIntel,60,13401,0.869,,,,,,,,,,,,,,,,,,,,,,,,,,,,,,,,,,,,,,,,,,,,
,,,,,,,,,,,,a,Incorrect,0,72,72,89,1,t1.png,t4.png,3,0.0000131,19,female,2020-10-20_16h27.26.843,torte-q,2020.1.3,MacIntel,60,13401,0.689,,,,,,,,,,,,,,,,,,,,,,,,,,,,,,,,,,,,,,,,,,,,
,,,,,,,,,,,,a,Correct!,0,73,73,116,1,t5.png,t4.png,1,0.90025,19,female,2020-10-20_16h27.26.843,torte-q,2020.1.3,MacIntel,60,13401,0.74,,,,,,,,,,,,,,,,,,,,,,,,,,,,,,,,,,,,,,,,,,,,
,,,,,,,,,,,,l,Incorrect,0,74,74,81,1,t1.png,t1.png,0,0.97829,19,female,2020-10-20_16h27.26.843,torte-q,2020.1.3,MacIntel,60,13401,1.005,,,,,,,,,,,,,,,,,,,,,,,,,,,,,,,,,,,,,,,,,,,,
,,,,,,,,,,,,l,Correct!,0,75,75,38,1,t3.png,t1.png,2,0.056466,19,female,2020-10-20_16h27.26.843,torte-q,2020.1.3,MacIntel,60,13401,1.057,,,,,,,,,,,,,,,,,,,,,,,,,,,,,,,,,,,,,,,,,,,,
,,,,,,,,,,,,a,Incorrect,0,76,76,33,1,t5.png,t1.png,4,9.55E-11,19,female,2020-10-20_16h27.26.843,torte-q,2020.1.3,MacIntel,60,13401,0.675,,,,,,,,,,,,,,,,,,,,,,,,,,,,,,,,,,,,,,,,,,,,
,,,,,,,,,,,,a,Incorrect,0,77,77,99,1,t1.png,t5.png,4,9.55E-11,19,female,2020-10-20_16h27.26.843,torte-q,2020.1.3,MacIntel,60,13401,0.898,,,,,,,,,,,,,,,,,,,,,,,,,,,,,,,,,,,,,,,,,,,,
,,,,,,,,,,,,l,Correct!,0,78,78,102,1,t4.png,t2.png,2,0.059078,19,female,2020-10-20_16h27.26.843,torte-q,2020.1.3,MacIntel,60,13401,0.871,,,,,,,,,,,,,,,,,,,,,,,,,,,,,,,,,,,,,,,,,,,,
,,,,,,,,,,,,l,Correct!,0,79,79,57,1,t2.png,t4.png,2,0.059078,19,female,2020-10-20_16h27.26.843,torte-q,2020.1.3,MacIntel,60,13401,1.505,,,,,,,,,,,,,,,,,,,,,,,,,,,,,,,,,,,,,,,,,,,,
,,,,,,,,,,,,,Too slow :(,0,80,80,60,1,t2.png,t4.png,2,0.059078,19,female,2020-10-20_16h27.26.843,torte-q,2020.1.3,MacIntel,60,13401,,,,,,,,,,,,,,,,,,,,,,,,,,,,,,,,,,,,,,,,,,,,,
,,,,,,,,,,,,a,Incorrect,0,81,81,14,1,t2.png,t4.png,2,0.059078,19,female,2020-10-20_16h27.26.843,torte-q,2020.1.3,MacIntel,60,13401,0.608,,,,,,,,,,,,,,,,,,,,,,,,,,,,,,,,,,,,,,,,,,,,
,,,,,,,,,,,,l,Correct!,0,82,82,56,1,t5.png,t1.png,4,9.55E-11,19,female,2020-10-20_16h27.26.843,torte-q,2020.1.3,MacIntel,60,13401,0.617,,,,,,,,,,,,,,,,,,,,,,,,,,,,,,,,,,,,,,,,,,,,
,,,,,,,,,,,,l,Correct!,0,83,83,87,1,t5.png,t1.png,4,9.55E-11,19,female,2020-10-20_16h27.26.843,torte-q,2020.1.3,MacIntel,60,13401,0.721,,,,,,,,,,,,,,,,,,,,,,,,,,,,,,,,,,,,,,,,,,,,
,,,,,,,,,,,,a,Incorrect,0,84,84,37,1,t1.png,t4.png,3,0.0000131,19,female,2020-10-20_16h27.26.843,torte-q,2020.1.3,MacIntel,60,13401,0.837,,,,,,,,,,,,,,,,,,,,,,,,,,,,,,,,,,,,,,,,,,,,
,,,,,,,,,,,,l,Incorrect,0,85,85,34,1,t5.png,t4.png,1,0.9,19,female,2020-10-20_16h27.26.843,torte-q,2020.1.3,MacIntel,60,13401,0.521,,,,,,,,,,,,,,,,,,,,,,,,,,,,,,,,,,,,,,,,,,,,
,,,,,,,,,,,,l,Correct!,0,86,86,52,1,t2.png,t4.png,2,0.059078,19,female,2020-10-20_16h27.26.843,torte-q,2020.1.3,MacIntel,60,13401,0.439,,,,,,,,,,,,,,,,,,,,,,,,,,,,,,,,,,,,,,,,,,,,
,,,,,,,,,,,,a,Correct!,0,87,87,101,1,t4.png,t5.png,1,0.90025,19,female,2020-10-20_16h27.26.843,torte-q,2020.1.3,MacIntel,60,13401,0.754,,,,,,,,,,,,,,,,,,,,,,,,,,,,,,,,,,,,,,,,,,,,
,,,,,,,,,,,,l,Incorrect,0,88,88,28,1,t2.png,t3.png,1,0.909,19,female,2020-10-20_16h27.26.843,torte-q,2020.1.3,MacIntel,60,13401,0.889,,,,,,,,,,,,,,,,,,,,,,,,,,,,,,,,,,,,,,,,,,,,
,,,,,,,,,,,,l,Incorrect,0,89,89,45,1,t3.png,t2.png,1,0.90855,19,female,2020-10-20_16h27.26.843,torte-q,2020.1.3,MacIntel,60,13401,0.724,,,,,,,,,,,,,,,,,,,,,,,,,,,,,,,,,,,,,,,,,,,,
,,,,,,,,,,,,l,Correct!,0,90,90,4,1,t1.png,t5.png,4,9.55E-11,19,female,2020-10-20_16h27.26.843,torte-q,2020.1.3,MacIntel,60,13401,1.106,,,,,,,,,,,,,,,,,,,,,,,,,,,,,,,,,,,,,,,,,,,,
,,,,,,,,,,,,a,Correct!,0,91,91,23,1,t5.png,t4.png,1,0.90025,19,female,2020-10-20_16h27.26.843,torte-q,2020.1.3,MacIntel,60,13401,0.817,,,,,,,,,,,,,,,,,,,,,,,,,,,,,,,,,,,,,,,,,,,,
,,,,,,,,,,,,a,Correct!,0,92,92,92,1,t2.png,t3.png,1,0.909,19,female,2020-10-20_16h27.26.843,torte-q,2020.1.3,MacIntel,60,13401,0.854,,,,,,,,,,,,,,,,,,,,,,,,,,,,,,,,,,,,,,,,,,,,
,,,,,,,,,,,,l,Incorrect,0,93,93,110,1,t4.png,t5.png,1,0.90025,19,female,2020-10-20_16h27.26.843,torte-q,2020.1.3,MacIntel,60,13401,0.988,,,,,,,,,,,,,,,,,,,,,,,,,,,,,,,,,,,,,,,,,,,,
,,,,,,,,,,,,l,Incorrect,0,94,94,118,1,t5.png,t5.png,0,0.978,19,female,2020-10-20_16h27.26.843,torte-q,2020.1.3,MacIntel,60,13401,1.04,,,,,,,,,,,,,,,,,,,,,,,,,,,,,,,,,,,,,,,,,,,,
,,,,,,,,,,,,a,Correct!,0,95,95,95,1,t1.png,t1.png,0,0.978,19,female,2020-10-20_16h27.26.843,torte-q,2020.1.3,MacIntel,60,13401,1.209,,,,,,,,,,,,,,,,,,,,,,,,,,,,,,,,,,,,,,,,,,,,
,,,,,,,,,,,,a,Incorrect,0,96,96,11,1,t1.png,t4.png,3,0.0000131,19,female,2020-10-20_16h27.26.843,torte-q,2020.1.3,MacIntel,60,13401,1.018,,,,,,,,,,,,,,,,,,,,,,,,,,,,,,,,,,,,,,,,,,,,
,,,,,,,,,,,,a,Correct!,0,97,97,112,1,t1.png,t1.png,0,0.97829,19,female,2020-10-20_16h27.26.843,torte-q,2020.1.3,MacIntel,60,13401,1.191,,,,,,,,,,,,,,,,,,,,,,,,,,,,,,,,,,,,,,,,,,,,
,,,,,,,,,,,,l,Incorrect,0,98,98,39,1,t3.png,t2.png,1,0.90855,19,female,2020-10-20_16h27.26.843,torte-q,2020.1.3,MacIntel,60,13401,0.98,,,,,,,,,,,,,,,,,,,,,,,,,,,,,,,,,,,,,,,,,,,,
,,,,,,,,,,,,l,Incorrect,0,99,99,64,1,t1.png,t1.png,0,0.978,19,female,2020-10-20_16h27.26.843,torte-q,2020.1.3,MacIntel,60,13401,1.364,,,,,,,,,,,,,,,,,,,,,,,,,,,,,,,,,,,,,,,,,,,,
,,,,,,,,,,,,l,Correct!,0,100,100,3,1,t1.png,t5.png,4,9.55E-11,19,female,2020-10-20_16h27.26.843,torte-q,2020.1.3,MacIntel,60,13401,1.065,,,,,,,,,,,,,,,,,,,,,,,,,,,,,,,,,,,,,,,,,,,,
,,,,,,,,,,,,a,Incorrect,0,101,101,7,1,t4.png,t5.png,1,0.90025,19,female,2020-10-20_16h27.26.843,torte-q,2020.1.3,MacIntel,60,13401,0.964,,,,,,,,,,,,,,,,,,,,,,,,,,,,,,,,,,,,,,,,,,,,
,,,,,,,,,,,,,Too slow :(,0,102,102,83,1,t3.png,t1.png,2,0.056466,19,female,2020-10-20_16h27.26.843,torte-q,2020.1.3,MacIntel,60,13401,,,,,,,,,,,,,,,,,,,,,,,,,,,,,,,,,,,,,,,,,,,,,
,,,,,,,,,,,,a,Correct!,0,103,103,18,1,t4.png,t5.png,1,0.90025,19,female,2020-10-20_16h27.26.843,torte-q,2020.1.3,MacIntel,60,13401,1.799,,,,,,,,,,,,,,,,,,,,,,,,,,,,,,,,,,,,,,,,,,,,
,,,,,,,,,,,,l,Incorrect,0,104,104,29,1,t5.png,t5.png,0,0.97829,19,female,2020-10-20_16h27.26.843,torte-q,2020.1.3,MacIntel,60,13401,1.54,,,,,,,,,,,,,,,,,,,,,,,,,,,,,,,,,,,,,,,,,,,,
,,,,,,,,,,,,l,Incorrect,0,105,105,96,1,t1.png,t1.png,0,0.97829,19,female,2020-10-20_16h27.26.843,torte-q,2020.1.3,MacIntel,60,13401,0.87,,,,,,,,,,,,,,,,,,,,,,,,,,,,,,,,,,,,,,,,,,,,
,,,,,,,,,,,,a,Incorrect,0,106,106,47,1,t4.png,t2.png,2,0.059078,19,female,2020-10-20_16h27.26.843,torte-q,2020.1.3,MacIntel,60,13401,1.303,,,,,,,,,,,,,,,,,,,,,,,,,,,,,,,,,,,,,,,,,,,,
,,,,,,,,,,,,l,Incorrect,0,107,107,42,1,t5.png,t4.png,1,0.90025,19,female,2020-10-20_16h27.26.843,torte-q,2020.1.3,MacIntel,60,13401,0.838,,,,,,,,,,,,,,,,,,,,,,,,,,,,,,,,,,,,,,,,,,,,
,,,,,,,,,,,,a,Correct!,0,108,108,77,1,t1.png,t1.png,0,0.97829,19,female,2020-10-20_16h27.26.843,torte-q,2020.1.3,MacIntel,60,13401,0.437,,,,,,,,,,,,,,,,,,,,,,,,,,,,,,,,,,,,,,,,,,,,
,,,,,,,,,,,,a,Correct!,0,109,109,8,1,t3.png,t2.png,1,0.90855,19,female,2020-10-20_16h27.26.843,torte-q,2020.1.3,MacIntel,60,13401,0.904,,,,,,,,,,,,,,,,,,,,,,,,,,,,,,,,,,,,,,,,,,,,
,,,,,,,,,,,,l,Correct!,0,110,110,61,1,t1.png,t4.png,3,0.0000131,19,female,2020-10-20_16h27.26.843,torte-q,2020.1.3,MacIntel,60,13401,0.902,,,,,,,,,,,,,,,,,,,,,,,,,,,,,,,,,,,,,,,,,,,,
,,,,,,,,,,,,l,Correct!,0,111,111,35,1,t1.png,t4.png,3,0.0000131,19,female,2020-10-20_16h27.26.843,torte-q,2020.1.3,MacIntel,60,13401,0.847,,,,,,,,,,,,,,,,,,,,,,,,,,,,,,,,,,,,,,,,,,,,
,,,,,,,,,,,,l,Correct!,0,112,112,55,1,t2.png,t4.png,2,0.059078,19,female,2020-10-20_16h27.26.843,torte-q,2020.1.3,MacIntel,60,13401,1.066,,,,,,,,,,,,,,,,,,,,,,,,,,,,,,,,,,,,,,,,,,,,
,,,,,,,,,,,,a,Correct!,0,113,113,104,1,t2.png,t3.png,1,0.90855,19,female,2020-10-20_16h27.26.843,torte-q,2020.1.3,MacIntel,60,13401,0.897,,,,,,,,,,,,,,,,,,,,,,,,,,,,,,,,,,,,,,,,,,,,
,,,,,,,,,,,,l,Incorrect,0,114,114,113,1,t5.png,t4.png,1,0.9,19,female,2020-10-20_16h27.26.843,torte-q,2020.1.3,MacIntel,60,13401,1.971,,,,,,,,,,,,,,,,,,,,,,,,,,,,,,,,,,,,,,,,,,,,
,,,,,,,,,,,,l,Incorrect,0,115,115,41,1,t3.png,t2.png,1,0.90855,19,female,2020-10-20_16h27.26.843,torte-q,2020.1.3,MacIntel,60,13401,0.657,,,,,,,,,,,,,,,,,,,,,,,,,,,,,,,,,,,,,,,,,,,,
,,,,,,,,,,,,a,Correct!,0,116,116,85,1,t3.png,t2.png,1,0.90855,19,female,2020-10-20_16h27.26.843,torte-q,2020.1.3,MacIntel,60,13401,0.625,,,,,,,,,,,,,,,,,,,,,,,,,,,,,,,,,,,,,,,,,,,,
,,,,,,,,,,,,,Too slow :(,0,117,117,90,1,t1.png,t5.png,4,9.55E-11,19,female,2020-10-20_16h27.26.843,torte-q,2020.1.3,MacIntel,60,13401,,,,,,,,,,,,,,,,,,,,,,,,,,,,,,,,,,,,,,,,,,,,,
,,,,,,,,,,,,,Too slow :(,0,118,118,80,1,t1.png,t4.png,3,0.0000131,19,female,2020-10-20_16h27.26.843,torte-q,2020.1.3,MacIntel,60,13401,,,,,,,,,,,,,,,,,,,,,,,,,,,,,,,,,,,,,,,,,,,,,
,,,,,,,,,,,,l,Incorrect,0,119,119,114,1,t2.png,t3.png,1,0.90855,19,female,2020-10-20_16h27.26.843,torte-q,2020.1.3,MacIntel,60,13401,2.147,,,,,,,,,,,,,,,,,,,,,,,,,,,,,,,,,,,,,,,,,,,,
,,,,,,,,,,,,,Too slow :(,,,,,,t2.png,t2.png,0,0.98115,19,female,2020-10-20_16h27.26.843,torte-q,2020.1.3,MacIntel,60,13401,,space,8.105,space,18.291,0,0,0,59,1,,,,,,,,,,,,,,,,,,,,,,,,,,,,,,,,,,,
,,,,,,,,,,,,l,Incorrect,,,,,,t2.png,t1.png,1,0.90025,19,female,2020-10-20_16h27.26.843,torte-q,2020.1.3,MacIntel,60,13401,0.865,,,,,0,1,1,19,1,,,,,,,,,,,,,,,,,,,,,,,,,,,,,,,,,,,
,,,,,,,,,,,,a,Incorrect,,,,,,t1.png,t5.png,4,9.55E-11,19,female,2020-10-20_16h27.26.843,torte-q,2020.1.3,MacIntel,60,13401,0.664,,,,,0,2,2,85,1,,,,,,,,,,,,,,,,,,,,,,,,,,,,,,,,,,,
,,,,,,,,,,,,a,Incorrect,,,,,,t1.png,t4.png,3,0.0000131,19,female,2020-10-20_16h27.26.843,torte-q,2020.1.3,MacIntel,60,13401,0.888,,,,,0,3,3,107,1,,,,,,,,,,,,,,,,,,,,,,,,,,,,,,,,,,,
,,,,,,,,,,,,l,Incorrect,,,,,,t3.png,t2.png,1,0.90855,19,female,2020-10-20_16h27.26.843,torte-q,2020.1.3,MacIntel,60,13401,0.837,,,,,0,4,4,97,1,,,,,,,,,,,,,,,,,,,,,,,,,,,,,,,,,,,
,,,,,,,,,,,,l,Correct!,,,,,,t5.png,t3.png,2,0.056466,19,female,2020-10-20_16h27.26.843,torte-q,2020.1.3,MacIntel,60,13401,1.446,,,,,0,5,5,56,1,,,,,,,,,,,,,,,,,,,,,,,,,,,,,,,,,,,
,,,,,,,,,,,,l,Correct!,,,,,,t2.png,t4.png,2,0.059078,19,female,2020-10-20_16h27.26.843,torte-q,2020.1.3,MacIntel,60,13401,1.205,,,,,0,6,6,77,1,,,,,,,,,,,,,,,,,,,,,,,,,,,,,,,,,,,
,,,,,,,,,,,,a,Correct!,,,,,,t3.png,t2.png,1,0.90855,19,female,2020-10-20_16h27.26.843,torte-q,2020.1.3,MacIntel,60,13401,0.757,,,,,0,7,7,18,1,,,,,,,,,,,,,,,,,,,,,,,,,,,,,,,,,,,
,,,,,,,,,,,,l,Incorrect,,,,,,t4.png,t4.png,0,0.98115,19,female,2020-10-20_16h27.26.843,torte-q,2020.1.3,MacIntel,60,13401,0.798,,,,,0,8,8,90,1,,,,,,,,,,,,,,,,,,,,,,,,,,,,,,,,,,,
,,,,,,,,,,,,a,Correct!,,,,,,t4.png,t5.png,1,0.90025,19,female,2020-10-20_16h27.26.843,torte-q,2020.1.3,MacIntel,60,13401,0.646,,,,,0,9,9,113,1,,,,,,,,,,,,,,,,,,,,,,,,,,,,,,,,,,,
,,,,,,,,,,,,l,Incorrect,,,,,,t2.png,t2.png,0,0.98115,19,female,2020-10-20_16h27.26.843,torte-q,2020.1.3,MacIntel,60,13401,0.987,,,,,0,10,10,7,1,,,,,,,,,,,,,,,,,,,,,,,,,,,,,,,,,,,
,,,,,,,,,,,,a,Correct!,,,,,,t3.png,t4.png,1,0.909,19,female,2020-10-20_16h27.26.843,torte-q,2020.1.3,MacIntel,60,13401,0.823,,,,,0,11,11,82,1,,,,,,,,,,,,,,,,,,,,,,,,,,,,,,,,,,,
,,,,,,,,,,,,l,Correct!,,,,,,t2.png,t5.png,3,0.0000131,19,female,2020-10-20_16h27.26.843,torte-q,2020.1.3,MacIntel,60,13401,1.062,,,,,0,12,12,66,1,,,,,,,,,,,,,,,,,,,,,,,,,,,,,,,,,,,
,,,,,,,,,,,,l,Correct!,,,,,,t1.png,t5.png,4,9.55E-11,19,female,2020-10-20_16h27.26.843,torte-q,2020.1.3,MacIntel,60,13401,1.162,,,,,0,13,13,16,1,,,,,,,,,,,,,,,,,,,,,,,,,,,,,,,,,,,
,,,,,,,,,,,,l,Correct!,,,,,,t5.png,t3.png,2,0.0565,19,female,2020-10-20_16h27.26.843,torte-q,2020.1.3,MacIntel,60,13401,1.213,,,,,0,14,14,39,1,,,,,,,,,,,,,,,,,,,,,,,,,,,,,,,,,,,
,,,,,,,,,,,,a,Incorrect,,,,,,t4.png,t2.png,2,0.059078,19,female,2020-10-20_16h27.26.843,torte-q,2020.1.3,MacIntel,60,13401,0.628,,,,,0,15,15,110,1,,,,,,,,,,,,,,,,,,,,,,,,,,,,,,,,,,,
,,,,,,,,,,,,a,Correct!,,,,,,t4.png,t3.png,1,0.90855,19,female,2020-10-20_16h27.26.843,torte-q,2020.1.3,MacIntel,60,13401,0.884,,,,,0,16,16,45,1,,,,,,,,,,,,,,,,,,,,,,,,,,,,,,,,,,,
,,,,,,,,,,,,l,Incorrect,,,,,,t4.png,t5.png,1,0.90025,19,female,2020-10-20_16h27.26.843,torte-q,2020.1.3,MacIntel,60,13401,0.931,,,,,0,17,17,47,1,,,,,,,,,,,,,,,,,,,,,,,,,,,,,,,,,,,
,,,,,,,,,,,,a,Correct!,,,,,,t5.png,t5.png,0,0.97829,19,female,2020-10-20_16h27.26.843,torte-q,2020.1.3,MacIntel,60,13401,0.815,,,,,0,18,18,94,1,,,,,,,,,,,,,,,,,,,,,,,,,,,,,,,,,,,
,,,,,,,,,,,,l,Incorrect,,,,,,t2.png,t2.png,0,0.98115,19,female,2020-10-20_16h27.26.843,torte-q,2020.1.3,MacIntel,60,13401,0.774,,,,,0,19,19,57,1,,,,,,,,,,,,,,,,,,,,,,,,,,,,,,,,,,,
,,,,,,,,,,,,l,Correct!,,,,,,t4.png,t1.png,3,0.0000131,19,female,2020-10-20_16h27.26.843,torte-q,2020.1.3,MacIntel,60,13401,0.963,,,,,0,20,20,93,1,,,,,,,,,,,,,,,,,,,,,,,,,,,,,,,,,,,
,,,,,,,,,,,,a,Correct!,,,,,,t4.png,t4.png,0,0.98115,19,female,2020-10-20_16h27.26.843,torte-q,2020.1.3,MacIntel,60,13401,1.404,,,,,0,21,21,21,1,,,,,,,,,,,,,,,,,,,,,,,,,,,,,,,,,,,
,,,,,,,,,,,,a,Incorrect,,,,,,t5.png,t2.png,3,0.0000131,19,female,2020-10-20_16h27.26.843,torte-q,2020.1.3,MacIntel,60,13401,1.106,,,,,0,22,22,119,1,,,,,,,,,,,,,,,,,,,,,,,,,,,,,,,,,,,
,,,,,,,,,,,,l,Incorrect,,,,,,t4.png,t3.png,1,0.909,19,female,2020-10-20_16h27.26.843,torte-q,2020.1.3,MacIntel,60,13401,0.746,,,,,0,23,23,46,1,,,,,,,,,,,,,,,,,,,,,,,,,,,,,,,,,,,
,,,,,,,,,,,,a,Incorrect,,,,,,t2.png,t4.png,2,0.0591,19,female,2020-10-20_16h27.26.843,torte-q,2020.1.3,MacIntel,60,13401,0.646,,,,,0,24,24,15,1,,,,,,,,,,,,,,,,,,,,,,,,,,,,,,,,,,,
,,,,,,,,,,,,l,Correct!,,,,,,t3.png,t1.png,2,0.056466,19,female,2020-10-20_16h27.26.843,torte-q,2020.1.3,MacIntel,60,13401,0.553,,,,,0,25,25,29,1,,,,,,,,,,,,,,,,,,,,,,,,,,,,,,,,,,,
,,,,,,,,,,,,a,Correct!,,,,,,t5.png,t4.png,1,0.90025,19,female,2020-10-20_16h27.26.843,torte-q,2020.1.3,MacIntel,60,13401,0.75,,,,,0,26,26,34,1,,,,,,,,,,,,,,,,,,,,,,,,,,,,,,,,,,,
,,,,,,,,,,,,l,Incorrect,,,,,,t3.png,t2.png,1,0.909,19,female,2020-10-20_16h27.26.843,torte-q,2020.1.3,MacIntel,60,13401,0.383,,,,,0,27,27,23,1,,,,,,,,,,,,,,,,,,,,,,,,,,,,,,,,,,,
,,,,,,,,,,,,a,Incorrect,,,,,,t5.png,t2.png,3,0.0000131,19,female,2020-10-20_16h27.26.843,torte-q,2020.1.3,MacIntel,60,13401,0.484,,,,,0,28,28,98,1,,,,,,,,,,,,,,,,,,,,,,,,,,,,,,,,,,,
,,,,,,,,,,,,l,Correct!,,,,,,t2.png,t5.png,3,0.0000131,19,female,2020-10-20_16h27.26.843,torte-q,2020.1.3,MacIntel,60,13401,0.483,,,,,0,29,29,95,1,,,,,,,,,,,,,,,,,,,,,,,,,,,,,,,,,,,
,,,,,,,,,,,,a,Correct!,,,,,,t5.png,t4.png,1,0.9,19,female,2020-10-20_16h27.26.843,torte-q,2020.1.3,MacIntel,60,13401,0.696,,,,,0,30,30,49,1,,,,,,,,,,,,,,,,,,,,,,,,,,,,,,,,,,,
,,,,,,,,,,,,a,Correct!,,,,,,t4.png,t4.png,0,0.98115,19,female,2020-10-20_16h27.26.843,torte-q,2020.1.3,MacIntel,60,13401,0.668,,,,,0,31,31,79,1,,,,,,,,,,,,,,,,,,,,,,,,,,,,,,,,,,,
,,,,,,,,,,,,l,Incorrect,,,,,,t2.png,t3.png,1,0.90855,19,female,2020-10-20_16h27.26.843,torte-q,2020.1.3,MacIntel,60,13401,0.696,,,,,0,32,32,10,1,,,,,,,,,,,,,,,,,,,,,,,,,,,,,,,,,,,
,,,,,,,,,,,,l,Correct!,,,,,,t3.png,t1.png,2,0.056466,19,female,2020-10-20_16h27.26.843,torte-q,2020.1.3,MacIntel,60,13401,1.046,,,,,0,33,33,0,1,,,,,,,,,,,,,,,,,,,,,,,,,,,,,,,,,,,
,,,,,,,,,,,,l,Incorrect,,,,,,t5.png,t5.png,0,0.97829,19,female,2020-10-20_16h27.26.843,torte-q,2020.1.3,MacIntel,60,13401,0.892,,,,,0,34,34,73,1,,,,,,,,,,,,,,,,,,,,,,,,,,,,,,,,,,,
,,,,,,,,,,,,a,Incorrect,,,,,,t5.png,t2.png,3,0.0000131,19,female,2020-10-20_16h27.26.843,torte-q,2020.1.3,MacIntel,60,13401,0.731,,,,,0,35,35,51,1,,,,,,,,,,,,,,,,,,,,,,,,,,,,,,,,,,,
,,,,,,,,,,,,a,Correct!,,,,,,t2.png,t1.png,1,0.90025,19,female,2020-10-20_16h27.26.843,torte-q,2020.1.3,MacIntel,60,13401,0.839,,,,,0,36,36,5,1,,,,,,,,,,,,,,,,,,,,,,,,,,,,,,,,,,,
,,,,,,,,,,,,l,Incorrect,,,,,,t2.png,t3.png,1,0.90855,19,female,2020-10-20_16h27.26.843,torte-q,2020.1.3,MacIntel,60,13401,0.506,,,,,0,37,37,65,1,,,,,,,,,,,,,,,,,,,,,,,,,,,,,,,,,,,
,,,,,,,,,,,,a,Correct!,,,,,,t2.png,t2.png,0,0.98115,19,female,2020-10-20_16h27.26.843,torte-q,2020.1.3,MacIntel,60,13401,0.532,,,,,0,38,38,2,1,,,,,,,,,,,,,,,,,,,,,,,,,,,,,,,,,,,
,,,,,,,,,,,,a,Correct!,,,,,,t4.png,t5.png,1,0.9,19,female,2020-10-20_16h27.26.843,torte-q,2020.1.3,MacIntel,60,13401,0.781,,,,,0,39,39,115,1,,,,,,,,,,,,,,,,,,,,,,,,,,,,,,,,,,,
,,,,,,,,,,,,l,Incorrect,,,,,,t2.png,t3.png,1,0.90855,19,female,2020-10-20_16h27.26.843,torte-q,2020.1.3,MacIntel,60,13401,0.788,,,,,0,40,40,111,1,,,,,,,,,,,,,,,,,,,,,,,,,,,,,,,,,,,
,,,,,,,,,,,,a,Incorrect,,,,,,t1.png,t3.png,2,0.056466,19,female,2020-10-20_16h27.26.843,torte-q,2020.1.3,MacIntel,60,13401,0.749,,,,,0,41,41,99,1,,,,,,,,,,,,,,,,,,,,,,,,,,,,,,,,,,,
,,,,,,,,,,,,l,Incorrect,,,,,,t4.png,t3.png,1,0.90855,19,female,2020-10-20_16h27.26.843,torte-q,2020.1.3,MacIntel,60,13401,0.885,,,,,0,42,42,35,1,,,,,,,,,,,,,,,,,,,,,,,,,,,,,,,,,,,
,,,,,,,,,,,,a,Correct!,,,,,,t4.png,t4.png,0,0.98115,19,female,2020-10-20_16h27.26.843,torte-q,2020.1.3,MacIntel,60,13401,0.975,,,,,0,43,43,80,1,,,,,,,,,,,,,,,,,,,,,,,,,,,,,,,,,,,
,,,,,,,,,,,,a,Incorrect,,,,,,t3.png,t5.png,2,0.056466,19,female,2020-10-20_16h27.26.843,torte-q,2020.1.3,MacIntel,60,13401,0.998,,,,,0,44,44,14,1,,,,,,,,,,,,,,,,,,,,,,,,,,,,,,,,,,,
,,,,,,,,,,,,l,Incorrect,,,,,,t5.png,t5.png,0,0.978,19,female,2020-10-20_16h27.26.843,torte-q,2020.1.3,MacIntel,60,13401,0.974,,,,,0,45,45,117,1,,,,,,,,,,,,,,,,,,,,,,,,,,,,,,,,,,,
,,,,,,,,,,,,l,Correct!,,,,,,t1.png,t4.png,3,0.0000131,19,female,2020-10-20_16h27.26.843,torte-q,2020.1.3,MacIntel,60,13401,1.189,,,,,0,46,46,92,1,,,,,,,,,,,,,,,,,,,,,,,,,,,,,,,,,,,
,,,,,,,,,,,,a,Correct!,,,,,,t2.png,t2.png,0,0.981,19,female,2020-10-20_16h27.26.843,torte-q,2020.1.3,MacIntel,60,13401,1.054,,,,,0,47,47,101,1,,,,,,,,,,,,,,,,,,,,,,,,,,,,,,,,,,,
,,,,,,,,,,,,a,Correct!,,,,,,t5.png,t5.png,0,0.97829,19,female,2020-10-20_16h27.26.843,torte-q,2020.1.3,MacIntel,60,13401,0.7,,,,,0,48,48,70,1,,,,,,,,,,,,,,,,,,,,,,,,,,,,,,,,,,,
,,,,,,,,,,,,a,Incorrect,,,,,,t4.png,t2.png,2,0.059078,19,female,2020-10-20_16h27.26.843,torte-q,2020.1.3,MacIntel,60,13401,1.309,,,,,0,49,49,109,1,,,,,,,,,,,,,,,,,,,,,,,,,,,,,,,,,,,
,,,,,,,,,,,,l,Incorrect,,,,,,t3.png,t4.png,1,0.90855,19,female,2020-10-20_16h27.26.843,torte-q,2020.1.3,MacIntel,60,13401,0.914,,,,,0,50,50,96,1,,,,,,,,,,,,,,,,,,,,,,,,,,,,,,,,,,,
,,,,,,,,,,,,a,Incorrect,,,,,,t3.png,t5.png,2,0.0565,19,female,2020-10-20_16h27.26.843,torte-q,2020.1.3,MacIntel,60,13401,0.794,,,,,0,51,51,30,1,,,,,,,,,,,,,,,,,,,,,,,,,,,,,,,,,,,
,,,,,,,,,,,,l,Correct!,,,,,,t1.png,t4.png,3,0.0000131,19,female,2020-10-20_16h27.26.843,torte-q,2020.1.3,MacIntel,60,13401,1,,,,,0,52,52,50,1,,,,,,,,,,,,,,,,,,,,,,,,,,,,,,,,,,,
,,,,,,,,,,,,a,Incorrect,,,,,,t5.png,t2.png,3,0.0000131,19,female,2020-10-20_16h27.26.843,torte-q,2020.1.3,MacIntel,60,13401,0.753,,,,,0,53,53,116,1,,,,,,,,,,,,,,,,,,,,,,,,,,,,,,,,,,,
,,,,,,,,,,,,l,Incorrect,,,,,,t5.png,t5.png,0,0.97829,19,female,2020-10-20_16h27.26.843,torte-q,2020.1.3,MacIntel,60,13401,0.932,,,,,0,54,54,25,1,,,,,,,,,,,,,,,,,,,,,,,,,,,,,,,,,,,
,,,,,,,,,,,,a,Incorrect,,,,,,t2.png,t4.png,2,0.059078,19,female,2020-10-20_16h27.26.843,torte-q,2020.1.3,MacIntel,60,13401,0.756,,,,,0,55,55,24,1,,,,,,,,,,,,,,,,,,,,,,,,,,,,,,,,,,,
,,,,,,,,,,,,a,Correct!,,,,,,t1.png,t2.png,1,0.9,19,female,2020-10-20_16h27.26.843,torte-q,2020.1.3,MacIntel,60,13401,1.381,,,,,0,56,56,1,1,,,,,,,,,,,,,,,,,,,,,,,,,,,,,,,,,,,
,,,,,,,,,,,,l,Incorrect,,,,,,t4.png,t3.png,1,0.909,19,female,2020-10-20_16h27.26.843,torte-q,2020.1.3,MacIntel,60,13401,0.963,,,,,0,57,57,20,1,,,,,,,,,,,,,,,,,,,,,,,,,,,,,,,,,,,
,,,,,,,,,,,,a,Incorrect,,,,,,t5.png,t3.png,2,0.056466,19,female,2020-10-20_16h27.26.843,torte-q,2020.1.3,MacIntel,60,13401,0.841,,,,,0,58,58,114,1,,,,,,,,,,,,,,,,,,,,,,,,,,,,,,,,,,,
,,,,,,,,,,,,l,Correct!,,,,,,t1.png,t1.png,0,0.978,19,female,2020-10-20_16h27.26.843,torte-q,2020.1.3,MacIntel,60,13401,0.73,,,,,0,59,59,28,1,,,,,,,,,,,,,,,,,,,,,,,,,,,,,,,,,,,
,,,,,,,,,,,,l,Correct!,,,,,,t5.png,t3.png,2,0.056466,19,female,2020-10-20_16h27.26.843,torte-q,2020.1.3,MacIntel,60,13401,0.752,,,,,0,60,60,108,1,,,,,,,,,,,,,,,,,,,,,,,,,,,,,,,,,,,
,,,,,,,,,,,,a,Correct!,,,,,,t1.png,t2.png,1,0.90025,19,female,2020-10-20_16h27.26.843,torte-q,2020.1.3,MacIntel,60,13401,0.748,,,,,0,61,61,72,1,,,,,,,,,,,,,,,,,,,,,,,,,,,,,,,,,,,
,,,,,,,,,,,,l,Incorrect,,,,,,t4.png,t3.png,1,0.90855,19,female,2020-10-20_16h27.26.843,torte-q,2020.1.3,MacIntel,60,13401,0.739,,,,,0,62,62,75,1,,,,,,,,,,,,,,,,,,,,,,,,,,,,,,,,,,,
,,,,,,,,,,,,l,Incorrect,,,,,,t2.png,t3.png,1,0.909,19,female,2020-10-20_16h27.26.843,torte-q,2020.1.3,MacIntel,60,13401,1.051,,,,,0,63,63,74,1,,,,,,,,,,,,,,,,,,,,,,,,,,,,,,,,,,,
,,,,,,,,,,,,a,Incorrect,,,,,,t5.png,t1.png,4,9.55E-11,19,female,2020-10-20_16h27.26.843,torte-q,2020.1.3,MacIntel,60,13401,0.881,,,,,0,64,64,43,1,,,,,,,,,,,,,,,,,,,,,,,,,,,,,,,,,,,
,,,,,,,,,,,,l,Correct!,,,,,,t4.png,t1.png,3,0.0000131,19,female,2020-10-20_16h27.26.843,torte-q,2020.1.3,MacIntel,60,13401,1.339,,,,,0,65,65,48,1,,,,,,,,,,,,,,,,,,,,,,,,,,,,,,,,,,,
,,,,,,,,,,,,a,Incorrect,,,,,,t4.png,t2.png,2,0.059078,19,female,2020-10-20_16h27.26.843,torte-q,2020.1.3,MacIntel,60,13401,1.366,,,,,0,66,66,86,1,,,,,,,,,,,,,,,,,,,,,,,,,,,,,,,,,,,
,,,,,,,,,,,,a,Correct!,,,,,,t1.png,t2.png,1,0.90025,19,female,2020-10-20_16h27.26.843,torte-q,2020.1.3,MacIntel,60,13401,1.002,,,,,0,67,67,33,1,,,,,,,,,,,,,,,,,,,,,,,,,,,,,,,,,,,
,,,,,,,,,,,,l,Correct!,,,,,,t2.png,t5.png,3,0.0000131,19,female,2020-10-20_16h27.26.843,torte-q,2020.1.3,MacIntel,60,13401,1.036,,,,,0,68,68,40,1,,,,,,,,,,,,,,,,,,,,,,,,,,,,,,,,,,,
,,,,,,,,,,,,l,Incorrect,,,,,,t2.png,t3.png,1,0.90855,19,female,2020-10-20_16h27.26.843,torte-q,2020.1.3,MacIntel,60,13401,1.113,,,,,0,69,69,68,1,,,,,,,,,,,,,,,,,,,,,,,,,,,,,,,,,,,
,,,,,,,,,,,,a,Incorrect,,,,,,t4.png,t1.png,3,0.0000131,19,female,2020-10-20_16h27.26.843,torte-q,2020.1.3,MacIntel,60,13401,0.717,,,,,0,70,70,13,1,,,,,,,,,,,,,,,,,,,,,,,,,,,,,,,,,,,
,,,,,,,,,,,,a,Incorrect,,,,,,t2.png,t5.png,3,0.0000131,19,female,2020-10-20_16h27.26.843,torte-q,2020.1.3,MacIntel,60,13401,1.098,,,,,0,71,71,8,1,,,,,,,,,,,,,,,,,,,,,,,,,,,,,,,,,,,
,,,,,,,,,,,,a,Correct!,,,,,,t3.png,t2.png,1,0.90855,19,female,2020-10-20_16h27.26.843,torte-q,2020.1.3,MacIntel,60,13401,0.8,,,,,0,72,72,53,1,,,,,,,,,,,,,,,,,,,,,,,,,,,,,,,,,,,
,,,,,,,,,,,,l,Correct!,,,,,,t3.png,t1.png,2,0.056466,19,female,2020-10-20_16h27.26.843,torte-q,2020.1.3,MacIntel,60,13401,1.3,,,,,0,73,73,64,1,,,,,,,,,,,,,,,,,,,,,,,,,,,,,,,,,,,
,,,,,,,,,,,,l,Correct!,,,,,,t2.png,t5.png,3,0.0000131,19,female,2020-10-20_16h27.26.843,torte-q,2020.1.3,MacIntel,60,13401,1.225,,,,,0,74,74,104,1,,,,,,,,,,,,,,,,,,,,,,,,,,,,,,,,,,,
,,,,,,,,,,,,a,Correct!,,,,,,t4.png,t5.png,1,0.90025,19,female,2020-10-20_16h27.26.843,torte-q,2020.1.3,MacIntel,60,13401,2.43,,,,,0,75,75,58,1,,,,,,,,,,,,,,,,,,,,,,,,,,,,,,,,,,,
,,,,,,,,,,,,l,Incorrect,,,,,,t2.png,t4.png,2,0.059078,19,female,2020-10-20_16h27.26.843,torte-q,2020.1.3,MacIntel,60,13401,1.001,,,,,0,76,76,11,1,,,,,,,,,,,,,,,,,,,,,,,,,,,,,,,,,,,
,,,,,,,,,,,,,Too slow :(,,,,,,t5.png,t1.png,4,9.55E-11,19,female,2020-10-20_16h27.26.843,torte-q,2020.1.3,MacIntel,60,13401,,,,,,0,77,77,71,1,,,,,,,,,,,,,,,,,,,,,,,,,,,,,,,,,,,
,,,,,,,,,,,,a,Incorrect,,,,,,t4.png,t1.png,3,0.0000131,19,female,2020-10-20_16h27.26.843,torte-q,2020.1.3,MacIntel,60,13401,0.654,,,,,0,78,78,61,1,,,,,,,,,,,,,,,,,,,,,,,,,,,,,,,,,,,
,,,,,,,,,,,,l,Incorrect,,,,,,t1.png,t1.png,0,0.97829,19,female,2020-10-20_16h27.26.843,torte-q,2020.1.3,MacIntel,60,13401,0.538,,,,,0,79,79,78,1,,,,,,,,,,,,,,,,,,,,,,,,,,,,,,,,,,,
,,,,,,,,,,,,l,Incorrect,,,,,,t1.png,t1.png,0,0.97829,19,female,2020-10-20_16h27.26.843,torte-q,2020.1.3,MacIntel,60,13401,0.748,,,,,0,80,80,9,1,,,,,,,,,,,,,,,,,,,,,,,,,,,,,,,,,,,
,,,,,,,,,,,,a,Incorrect,,,,,,t5.png,t3.png,2,0.056466,19,female,2020-10-20_16h27.26.843,torte-q,2020.1.3,MacIntel,60,13401,0.887,,,,,0,81,81,38,1,,,,,,,,,,,,,,,,,,,,,,,,,,,,,,,,,,,
,,,,,,,,,,,,a,Incorrect,,,,,,t3.png,t1.png,2,0.0565,19,female,2020-10-20_16h27.26.843,torte-q,2020.1.3,MacIntel,60,13401,1.14,,,,,0,82,82,31,1,,,,,,,,,,,,,,,,,,,,,,,,,,,,,,,,,,,
,,,,,,,,,,,,l,Incorrect,,,,,,t5.png,t4.png,1,0.9,19,female,2020-10-20_16h27.26.843,torte-q,2020.1.3,MacIntel,60,13401,1.596,,,,,0,83,83,76,1,,,,,,,,,,,,,,,,,,,,,,,,,,,,,,,,,,,
,,,,,,,,,,,,l,Correct!,,,,,,t1.png,t4.png,3,0.0000131,19,female,2020-10-20_16h27.26.843,torte-q,2020.1.3,MacIntel,60,13401,0.873,,,,,0,84,84,81,1,,,,,,,,,,,,,,,,,,,,,,,,,,,,,,,,,,,
,,,,,,,,,,,,a,Incorrect,,,,,,t3.png,t1.png,2,0.056466,19,female,2020-10-20_16h27.26.843,torte-q,2020.1.3,MacIntel,60,13401,0.348,,,,,0,85,85,32,1,,,,,,,,,,,,,,,,,,,,,,,,,,,,,,,,,,,
,,,,,,,,,,,,a,Correct!,,,,,,t2.png,t1.png,1,0.90025,19,female,2020-10-20_16h27.26.843,torte-q,2020.1.3,MacIntel,60,13401,1.189,,,,,0,86,86,4,1,,,,,,,,,,,,,,,,,,,,,,,,,,,,,,,,,,,
,,,,,,,,,,,,l,Correct!,,,,,,t5.png,t1.png,4,9.55E-11,19,female,2020-10-20_16h27.26.843,torte-q,2020.1.3,MacIntel,60,13401,0.855,,,,,0,87,87,102,1,,,,,,,,,,,,,,,,,,,,,,,,,,,,,,,,,,,
,,,,,,,,,,,,a,Correct!,,,,,,t3.png,t4.png,1,0.909,19,female,2020-10-20_16h27.26.843,torte-q,2020.1.3,MacIntel,60,13401,1.251,,,,,0,88,88,106,1,,,,,,,,,,,,,,,,,,,,,,,,,,,,,,,,,,,
,,,,,,,,,,,,a,Incorrect,,,,,,t4.png,t1.png,3,0.0000131,19,female,2020-10-20_16h27.26.843,torte-q,2020.1.3,MacIntel,60,13401,1.198,,,,,0,89,89,42,1,,,,,,,,,,,,,,,,,,,,,,,,,,,,,,,,,,,
,,,,,,,,,,,,a,Incorrect,,,,,,t4.png,t2.png,2,0.059078,19,female,2020-10-20_16h27.26.843,torte-q,2020.1.3,MacIntel,60,13401,0.538,,,,,0,90,90,88,1,,,,,,,,,,,,,,,,,,,,,,,,,,,,,,,,,,,
,,,,,,,,,,,,l,Correct!,,,,,,t1.png,t4.png,3,0.0000131,19,female,2020-10-20_16h27.26.843,torte-q,2020.1.3,MacIntel,60,13401,0.779,,,,,0,91,91,17,1,,,,,,,,,,,,,,,,,,,,,,,,,,,,,,,,,,,
,,,,,,,,,,,,l,Correct!,,,,,,t2.png,t4.png,2,0.059078,19,female,2020-10-20_16h27.26.843,torte-q,2020.1.3,MacIntel,60,13401,0.825,,,,,0,92,92,37,1,,,,,,,,,,,,,,,,,,,,,,,,,,,,,,,,,,,
,,,,,,,,,,,,a,Incorrect,,,,,,t1.png,t3.png,2,0.056466,19,female,2020-10-20_16h27.26.843,torte-q,2020.1.3,MacIntel,60,13401,0.871,,,,,0,93,93,69,1,,,,,,,,,,,,,,,,,,,,,,,,,,,,,,,,,,,
,,,,,,,,,,,,l,Incorrect,,,,,,t1.png,t1.png,0,0.978,19,female,2020-10-20_16h27.26.843,torte-q,2020.1.3,MacIntel,60,13401,0.504,,,,,0,94,94,54,1,,,,,,,,,,,,,,,,,,,,,,,,,,,,,,,,,,,
,,,,,,,,,,,,l,Incorrect,,,,,,t2.png,t1.png,1,0.9,19,female,2020-10-20_16h27.26.843,torte-q,2020.1.3,MacIntel,60,13401,0.823,,,,,0,95,95,118,1,,,,,,,,,,,,,,,,,,,,,,,,,,,,,,,,,,,
,,,,,,,,,,,,a,Incorrect,,,,,,t3.png,t5.png,2,0.056466,19,female,2020-10-20_16h27.26.843,torte-q,2020.1.3,MacIntel,60,13401,1.114,,,,,0,96,96,44,1,,,,,,,,,,,,,,,,,,,,,,,,,,,,,,,,,,,
,,,,,,,,,,,,a,Incorrect,,,,,,t3.png,t4.png,1,0.90855,19,female,2020-10-20_16h27.26.843,torte-q,2020.1.3,MacIntel,60,13401,0.749,,,,,0,97,97,84,1,,,,,,,,,,,,,,,,,,,,,,,,,,,,,,,,,,,
,,,,,,,,,,,,l,Incorrect,,,,,,t1.png,t2.png,1,0.90025,19,female,2020-10-20_16h27.26.843,torte-q,2020.1.3,MacIntel,60,13401,0.657,,,,,0,98,98,112,1,,,,,,,,,,,,,,,,,,,,,,,,,,,,,,,,,,,
,,,,,,,,,,,,a,Correct!,,,,,,t3.png,t4.png,1,0.909,19,female,2020-10-20_16h27.26.843,torte-q,2020.1.3,MacIntel,60,13401,0.717,,,,,0,99,99,89,1,,,,,,,,,,,,,,,,,,,,,,,,,,,,,,,,,,,
,,,,,,,,,,,,l,Correct!,,,,,,t1.png,t3.png,2,0.056466,19,female,2020-10-20_16h27.26.843,torte-q,2020.1.3,MacIntel,60,13401,0.688,,,,,0,100,100,60,1,,,,,,,,,,,,,,,,,,,,,,,,,,,,,,,,,,,
,,,,,,,,,,,,l,Incorrect,,,,,,t2.png,t1.png,1,0.90025,19,female,2020-10-20_16h27.26.843,torte-q,2020.1.3,MacIntel,60,13401,1.42,,,,,0,101,101,62,1,,,,,,,,,,,,,,,,,,,,,,,,,,,,,,,,,,,
,,,,,,,,,,,,l,Incorrect,,,,,,t1.png,t1.png,0,0.97829,19,female,2020-10-20_16h27.26.843,torte-q,2020.1.3,MacIntel,60,13401,1.124,,,,,0,102,102,67,1,,,,,,,,,,,,,,,,,,,,,,,,,,,,,,,,,,,
,,,,,,,,,,,,a,Incorrect,,,,,,t1.png,t5.png,4,9.55E-11,19,female,2020-10-20_16h27.26.843,torte-q,2020.1.3,MacIntel,60,13401,1.034,,,,,0,103,103,41,1,,,,,,,,,,,,,,,,,,,,,,,,,,,,,,,,,,,
,,,,,,,,,,,,a,Correct!,,,,,,t5.png,t4.png,1,0.90025,19,female,2020-10-20_16h27.26.843,torte-q,2020.1.3,MacIntel,60,13401,0.707,,,,,0,104,104,27,1,,,,,,,,,,,,,,,,,,,,,,,,,,,,,,,,,,,
,,,,,,,,,,,,a,Incorrect,,,,,,t5.png,t2.png,3,0.0000131,19,female,2020-10-20_16h27.26.843,torte-q,2020.1.3,MacIntel,60,13401,0.688,,,,,0,105,105,91,1,,,,,,,,,,,,,,,,,,,,,,,,,,,,,,,,,,,
,,,,,,,,,,,,l,Correct!,,,,,,t3.png,t5.png,2,0.056466,19,female,2020-10-20_16h27.26.843,torte-q,2020.1.3,MacIntel,60,13401,1.103,,,,,0,106,106,6,1,,,,,,,,,,,,,,,,,,,,,,,,,,,,,,,,,,,
,,,,,,,,,,,,l,Correct!,,,,,,t1.png,t3.png,2,0.056466,19,female,2020-10-20_16h27.26.843,torte-q,2020.1.3,MacIntel,60,13401,0.688,,,,,0,107,107,87,1,,,,,,,,,,,,,,,,,,,,,,,,,,,,,,,,,,,
,,,,,,,,,,,,a,Correct!,,,,,,t3.png,t2.png,1,0.909,19,female,2020-10-20_16h27.26.843,torte-q,2020.1.3,MacIntel,60,13401,0.788,,,,,0,108,108,3,1,,,,,,,,,,,,,,,,,,,,,,,,,,,,,,,,,,,
,,,,,,,,,,,,a,Correct!,,,,,,t4.png,t4.png,0,0.98115,19,female,2020-10-20_16h27.26.843,torte-q,2020.1.3,MacIntel,60,13401,1.372,,,,,0,109,109,52,1,,,,,,,,,,,,,,,,,,,,,,,,,,,,,,,,,,,
,,,,,,,,,,,,a,Correct!,,,,,,t4.png,t5.png,1,0.90025,19,female,2020-10-20_16h27.26.843,torte-q,2020.1.3,MacIntel,60,13401,0.503,,,,,0,110,110,103,1,,,,,,,,,,,,,,,,,,,,,,,,,,,,,,,,,,,
,,,,,,,,,,,,a,Incorrect,,,,,,t3.png,t5.png,2,0.0565,19,female,2020-10-20_16h27.26.843,torte-q,2020.1.3,MacIntel,60,13401,1.365,,,,,0,111,111,83,1,,,,,,,,,,,,,,,,,,,,,,,,,,,,,,,,,,,
,,,,,,,,,,,,l,Correct!,,,,,,t4.png,t2.png,2,0.0591,19,female,2020-10-20_16h27.26.843,torte-q,2020.1.3,MacIntel,60,13401,0.81,,,,,0,112,112,36,1,,,,,,,,,,,,,,,,,,,,,,,,,,,,,,,,,,,
,,,,,,,,,,,,l,Correct!,,,,,,t5.png,t4.png,1,0.90025,19,female,2020-10-20_16h27.26.843,torte-q,2020.1.3,MacIntel,60,13401,1.16,,,,,0,113,113,26,1,,,,,,,,,,,,,,,,,,,,,,,,,,,,,,,,,,,
,,,,,,,,,,,,a,Incorrect,,,,,,t1.png,t3.png,2,0.056466,19,female,2020-10-20_16h27.26.843,torte-q,2020.1.3,MacIntel,60,13401,0.781,,,,,0,114,114,63,1,,,,,,,,,,,,,,,,,,,,,,,,,,,,,,,,,,,
,,,,,,,,,,,,l,Correct!,,,,,,t5.png,t1.png,4,9.55E-11,19,female,2020-10-20_16h27.26.843,torte-q,2020.1.3,MacIntel,60,13401,0.907,,,,,0,115,115,100,1,,,,,,,,,,,,,,,,,,,,,,,,,,,,,,,,,,,
,,,,,,,,,,,,a,Incorrect,,,,,,t5.png,t1.png,4,9.55E-11,19,female,2020-10-20_16h27.26.843,torte-q,2020.1.3,MacIntel,60,13401,1.07,,,,,0,116,116,22,1,,,,,,,,,,,,,,,,,,,,,,,,,,,,,,,,,,,
,,,,,,,,,,,,a,Incorrect,,,,,,t1.png,t5.png,4,9.55E-11,19,female,2020-10-20_16h27.26.843,torte-q,2020.1.3,MacIntel,60,13401,1.355,,,,,0,117,117,55,1,,,,,,,,,,,,,,,,,,,,,,,,,,,,,,,,,,,
,,,,,,,,,,,,l,Correct!,,,,,,t1.png,t5.png,4,9.55E-11,19,female,2020-10-20_16h27.26.843,torte-q,2020.1.3,MacIntel,60,13401,1.058,,,,,0,118,118,12,1,,,,,,,,,,,,,,,,,,,,,,,,,,,,,,,,,,,
,,,,,,,,,,,,l,Incorrect,,,,,,t1.png,t2.png,1,0.90025,19,female,2020-10-20_16h27.26.843,torte-q,2020.1.3,MacIntel,60,13401,1.789,,,,,0,119,119,105,1,,,,,,,,,,,,,,,,,,,,,,,,,,,,,,,,,,,
,,,,,,,,,,,,l,Correct!,,,,,,t5.png,t3.png,2,0.056466,19,female,2020-10-20_16h27.26.843,torte-q,2020.1.3,MacIntel,60,13401,1.037,space,38.909,,,,,,,,space,24.845,space,7.525,0,0,0,56,1,,,,,,,,,,,,,,,,,,,,,,,,,,
,,,,,,,,,,,,a,Incorrect,,,,,,t4.png,t2.png,2,0.059078,19,female,2020-10-20_16h27.26.843,torte-q,2020.1.3,MacIntel,60,13401,0.935,,,,,,,,,,,,,,0,1,1,109,1,,,,,,,,,,,,,,,,,,,,,,,,,,
,,,,,,,,,,,,a,Correct!,,,,,,t3.png,t1.png,2,0.056466,19,female,2020-10-20_16h27.26.843,torte-q,2020.1.3,MacIntel,60,13401,0.763,,,,,,,,,,,,,,0,2,2,29,1,,,,,,,,,,,,,,,,,,,,,,,,,,
,,,,,,,,,,,,l,Correct!,,,,,,t5.png,t3.png,2,0.0565,19,female,2020-10-20_16h27.26.843,torte-q,2020.1.3,MacIntel,60,13401,2.082,,,,,,,,,,,,,,0,3,3,39,1,,,,,,,,,,,,,,,,,,,,,,,,,,
,,,,,,,,,,,,l,Incorrect,,,,,,t4.png,t3.png,1,0.909,19,female,2020-10-20_16h27.26.843,torte-q,2020.1.3,MacIntel,60,13401,0.855,,,,,,,,,,,,,,0,4,4,20,1,,,,,,,,,,,,,,,,,,,,,,,,,,
,,,,,,,,,,,,a,Incorrect,,,,,,t4.png,t2.png,2,0.059078,19,female,2020-10-20_16h27.26.843,torte-q,2020.1.3,MacIntel,60,13401,0.531,,,,,,,,,,,,,,0,5,5,88,1,,,,,,,,,,,,,,,,,,,,,,,,,,
,,,,,,,,,,,,l,Incorrect,,,,,,t4.png,t5.png,1,0.90025,19,female,2020-10-20_16h27.26.843,torte-q,2020.1.3,MacIntel,60,13401,0.691,,,,,,,,,,,,,,0,6,6,47,1,,,,,,,,,,,,,,,,,,,,,,,,,,
,,,,,,,,,,,,a,Correct!,,,,,,t4.png,t5.png,1,0.90025,19,female,2020-10-20_16h27.26.843,torte-q,2020.1.3,MacIntel,60,13401,1.391,,,,,,,,,,,,,,0,7,7,103,1,,,,,,,,,,,,,,,,,,,,,,,,,,
,,,,,,,,,,,,a,Correct!,,,,,,t1.png,t2.png,1,0.90025,19,female,2020-10-20_16h27.26.843,torte-q,2020.1.3,MacIntel,60,13401,2.39,,,,,,,,,,,,,,0,8,8,72,1,,,,,,,,,,,,,,,,,,,,,,,,,,
,,,,,,,,,,,,l,Incorrect,,,,,,t4.png,t5.png,1,0.9,19,female,2020-10-20_16h27.26.843,torte-q,2020.1.3,MacIntel,60,13401,1.532,,,,,,,,,,,,,,0,9,9,115,1,,,,,,,,,,,,,,,,,,,,,,,,,,
,,,,,,,,,,,,l,Incorrect,,,,,,t4.png,t4.png,0,0.98115,19,female,2020-10-20_16h27.26.843,torte-q,2020.1.3,MacIntel,60,13401,1.665,,,,,,,,,,,,,,0,10,10,79,1,,,,,,,,,,,,,,,,,,,,,,,,,,
,,,,,,,,,,,,,Too slow :(,,,,,,t4.png,t5.png,1,0.90025,19,female,2020-10-20_16h27.26.843,torte-q,2020.1.3,MacIntel,60,13401,,,,,,,,,,,,,,,0,11,11,113,1,,,,,,,,,,,,,,,,,,,,,,,,,,
,,,,,,,,,,,,a,Correct!,,,,,,t5.png,t5.png,0,0.97829,19,female,2020-10-20_16h27.26.843,torte-q,2020.1.3,MacIntel,60,13401,0.849,,,,,,,,,,,,,,0,12,12,70,1,,,,,,,,,,,,,,,,,,,,,,,,,,
,,,,,,,,,,,,a,Incorrect,,,,,,t4.png,t1.png,3,0.0000131,19,female,2020-10-20_16h27.26.843,torte-q,2020.1.3,MacIntel,60,13401,1.13,,,,,,,,,,,,,,0,13,13,13,1,,,,,,,,,,,,,,,,,,,,,,,,,,
,,,,,,,,,,,,a,Correct!,,,,,,t3.png,t2.png,1,0.909,19,female,2020-10-20_16h27.26.843,torte-q,2020.1.3,MacIntel,60,13401,0.84,,,,,,,,,,,,,,0,14,14,23,1,,,,,,,,,,,,,,,,,,,,,,,,,,
,,,,,,,,,,,,l,Correct!,,,,,,t2.png,t4.png,2,0.059078,19,female,2020-10-20_16h27.26.843,torte-q,2020.1.3,MacIntel,60,13401,1.622,,,,,,,,,,,,,,0,15,15,24,1,,,,,,,,,,,,,,,,,,,,,,,,,,
,,,,,,,,,,,,l,Correct!,,,,,,t2.png,t5.png,3,0.0000131,19,female,2020-10-20_16h27.26.843,torte-q,2020.1.3,MacIntel,60,13401,0.622,,,,,,,,,,,,,,0,16,16,66,1,,,,,,,,,,,,,,,,,,,,,,,,,,
,,,,,,,,,,,,a,Incorrect,,,,,,t2.png,t5.png,3,0.0000131,19,female,2020-10-20_16h27.26.843,torte-q,2020.1.3,MacIntel,60,13401,0.533,,,,,,,,,,,,,,0,17,17,104,1,,,,,,,,,,,,,,,,,,,,,,,,,,
,,,,,,,,,,,,l,Incorrect,,,,,,t3.png,t2.png,1,0.90855,19,female,2020-10-20_16h27.26.843,torte-q,2020.1.3,MacIntel,60,13401,1.401,,,,,,,,,,,,,,0,18,18,18,1,,,,,,,,,,,,,,,,,,,,,,,,,,
,,,,,,,,,,,,l,Incorrect,,,,,,t5.png,t4.png,1,0.9,19,female,2020-10-20_16h27.26.843,torte-q,2020.1.3,MacIntel,60,13401,1.381,,,,,,,,,,,,,,0,19,19,49,1,,,,,,,,,,,,,,,,,,,,,,,,,,
,,,,,,,,,,,,a,Correct!,,,,,,t2.png,t1.png,1,0.90025,19,female,2020-10-20_16h27.26.843,torte-q,2020.1.3,MacIntel,60,13401,1.451,,,,,,,,,,,,,,0,20,20,62,1,,,,,,,,,,,,,,,,,,,,,,,,,,
,,,,,,,,,,,,l,Correct!,,,,,,t1.png,t4.png,3,0.0000131,19,female,2020-10-20_16h27.26.843,torte-q,2020.1.3,MacIntel,60,13401,1.338,,,,,,,,,,,,,,0,21,21,107,1,,,,,,,,,,,,,,,,,,,,,,,,,,
,,,,,,,,,,,,l,Incorrect,,,,,,t5.png,t5.png,0,0.97829,19,female,2020-10-20_16h27.26.843,torte-q,2020.1.3,MacIntel,60,13401,1.14,,,,,,,,,,,,,,0,22,22,94,1,,,,,,,,,,,,,,,,,,,,,,,,,,
,,,,,,,,,,,,a,Correct!,,,,,,t5.png,t4.png,1,0.9,19,female,2020-10-20_16h27.26.843,torte-q,2020.1.3,MacIntel,60,13401,0.705,,,,,,,,,,,,,,0,23,23,76,1,,,,,,,,,,,,,,,,,,,,,,,,,,
,,,,,,,,,,,,l,Correct!,,,,,,t1.png,t3.png,2,0.056466,19,female,2020-10-20_16h27.26.843,torte-q,2020.1.3,MacIntel,60,13401,0.847,,,,,,,,,,,,,,0,24,24,69,1,,,,,,,,,,,,,,,,,,,,,,,,,,
,,,,,,,,,,,,l,Correct!,,,,,,t5.png,t3.png,2,0.056466,19,female,2020-10-20_16h27.26.843,torte-q,2020.1.3,MacIntel,60,13401,0.931,,,,,,,,,,,,,,0,25,25,114,1,,,,,,,,,,,,,,,,,,,,,,,,,,
,,,,,,,,,,,,a,Incorrect,,,,,,t1.png,t2.png,1,0.90025,19,female,2020-10-20_16h27.26.843,torte-q,2020.1.3,MacIntel,60,13401,1.63,,,,,,,,,,,,,,0,26,26,105,1,,,,,,,,,,,,,,,,,,,,,,,,,,
,,,,,,,,,,,,l,Correct!,,,,,,t2.png,t3.png,1,0.909,19,female,2020-10-20_16h27.26.843,torte-q,2020.1.3,MacIntel,60,13401,1.184,,,,,,,,,,,,,,0,27,27,74,1,,,,,,,,,,,,,,,,,,,,,,,,,,
,,,,,,,,,,,,a,Correct!,,,,,,t3.png,t4.png,1,0.90855,19,female,2020-10-20_16h27.26.843,torte-q,2020.1.3,MacIntel,60,13401,1.082,,,,,,,,,,,,,,0,28,28,96,1,,,,,,,,,,,,,,,,,,,,,,,,,,
,,,,,,,,,,,,l,Correct!,,,,,,t1.png,t3.png,2,0.056466,19,female,2020-10-20_16h27.26.843,torte-q,2020.1.3,MacIntel,60,13401,0.988,,,,,,,,,,,,,,0,29,29,63,1,,,,,,,,,,,,,,,,,,,,,,,,,,
,,,,,,,,,,,,l,Correct!,,,,,,t3.png,t1.png,2,0.056466,19,female,2020-10-20_16h27.26.843,torte-q,2020.1.3,MacIntel,60,13401,0.841,,,,,,,,,,,,,,0,30,30,32,1,,,,,,,,,,,,,,,,,,,,,,,,,,
,,,,,,,,,,,,l,Incorrect,,,,,,t5.png,t4.png,1,0.90025,19,female,2020-10-20_16h27.26.843,torte-q,2020.1.3,MacIntel,60,13401,0.587,,,,,,,,,,,,,,0,31,31,34,1,,,,,,,,,,,,,,,,,,,,,,,,,,
,,,,,,,,,,,,a,Correct!,,,,,,t1.png,t2.png,1,0.90025,19,female,2020-10-20_16h27.26.843,torte-q,2020.1.3,MacIntel,60,13401,0.816,,,,,,,,,,,,,,0,32,32,33,1,,,,,,,,,,,,,,,,,,,,,,,,,,
,,,,,,,,,,,,a,Incorrect,,,,,,t5.png,t1.png,4,9.55E-11,19,female,2020-10-20_16h27.26.843,torte-q,2020.1.3,MacIntel,60,13401,0.613,,,,,,,,,,,,,,0,33,33,100,1,,,,,,,,,,,,,,,,,,,,,,,,,,
,,,,,,,,,,,,l,Incorrect,,,,,,t3.png,t4.png,1,0.90855,19,female,2020-10-20_16h27.26.843,torte-q,2020.1.3,MacIntel,60,13401,0.571,,,,,,,,,,,,,,0,34,34,84,1,,,,,,,,,,,,,,,,,,,,,,,,,,
,,,,,,,,,,,,l,Incorrect,,,,,,t2.png,t1.png,1,0.90025,19,female,2020-10-20_16h27.26.843,torte-q,2020.1.3,MacIntel,60,13401,0.549,,,,,,,,,,,,,,0,35,35,5,1,,,,,,,,,,,,,,,,,,,,,,,,,,
,,,,,,,,,,,,l,Incorrect,,,,,,t1.png,t1.png,0,0.97829,19,female,2020-10-20_16h27.26.843,torte-q,2020.1.3,MacIntel,60,13401,0.75,,,,,,,,,,,,,,0,36,36,9,1,,,,,,,,,,,,,,,,,,,,,,,,,,
,,,,,,,,,,,,a,Incorrect,,,,,,t2.png,t5.png,3,0.0000131,19,female,2020-10-20_16h27.26.843,torte-q,2020.1.3,MacIntel,60,13401,0.533,,,,,,,,,,,,,,0,37,37,8,1,,,,,,,,,,,,,,,,,,,,,,,,,,
,,,,,,,,,,,,a,Correct!,,,,,,t1.png,t3.png,2,0.056466,19,female,2020-10-20_16h27.26.843,torte-q,2020.1.3,MacIntel,60,13401,0.86,,,,,,,,,,,,,,0,38,38,87,1,,,,,,,,,,,,,,,,,,,,,,,,,,
,,,,,,,,,,,,a,Correct!,,,,,,t5.png,t5.png,0,0.978,19,female,2020-10-20_16h27.26.843,torte-q,2020.1.3,MacIntel,60,13401,0.805,,,,,,,,,,,,,,0,39,39,117,1,,,,,,,,,,,,,,,,,,,,,,,,,,
,,,,,,,,,,,,a,Incorrect,,,,,,t4.png,t2.png,2,0.0591,19,female,2020-10-20_16h27.26.843,torte-q,2020.1.3,MacIntel,60,13401,0.549,,,,,,,,,,,,,,0,40,40,36,1,,,,,,,,,,,,,,,,,,,,,,,,,,
,,,,,,,,,,,,l,Incorrect,,,,,,t4.png,t3.png,1,0.90855,19,female,2020-10-20_16h27.26.843,torte-q,2020.1.3,MacIntel,60,13401,0.37,,,,,,,,,,,,,,0,41,41,45,1,,,,,,,,,,,,,,,,,,,,,,,,,,
,,,,,,,,,,,,l,Incorrect,,,,,,t4.png,t5.png,1,0.90025,19,female,2020-10-20_16h27.26.843,torte-q,2020.1.3,MacIntel,60,13401,0.646,,,,,,,,,,,,,,0,42,42,58,1,,,,,,,,,,,,,,,,,,,,,,,,,,
,,,,,,,,,,,,a,Incorrect,,,,,,t3.png,t1.png,2,0.0565,19,female,2020-10-20_16h27.26.843,torte-q,2020.1.3,MacIntel,60,13401,0.77,,,,,,,,,,,,,,0,43,43,31,1,,,,,,,,,,,,,,,,,,,,,,,,,,
,,,,,,,,,,,,l,Correct!,,,,,,t2.png,t3.png,1,0.90855,19,female,2020-10-20_16h27.26.843,torte-q,2020.1.3,MacIntel,60,13401,0.558,,,,,,,,,,,,,,0,44,44,65,1,,,,,,,,,,,,,,,,,,,,,,,,,,
,,,,,,,,,,,,l,Correct!,,,,,,t3.png,t1.png,2,0.056466,19,female,2020-10-20_16h27.26.843,torte-q,2020.1.3,MacIntel,60,13401,1.491,,,,,,,,,,,,,,0,45,45,0,1,,,,,,,,,,,,,,,,,,,,,,,,,,
,,,,,,,,,,,,a,Correct!,,,,,,t5.png,t5.png,0,0.97829,19,female,2020-10-20_16h27.26.843,torte-q,2020.1.3,MacIntel,60,13401,1.257,,,,,,,,,,,,,,0,46,46,25,1,,,,,,,,,,,,,,,,,,,,,,,,,,
,,,,,,,,,,,,a,Correct!,,,,,,t5.png,t4.png,1,0.90025,19,female,2020-10-20_16h27.26.843,torte-q,2020.1.3,MacIntel,60,13401,1.832,,,,,,,,,,,,,,0,47,47,27,1,,,,,,,,,,,,,,,,,,,,,,,,,,
,,,,,,,,,,,,l,Correct!,,,,,,t1.png,t5.png,4,9.55E-11,19,female,2020-10-20_16h27.26.843,torte-q,2020.1.3,MacIntel,60,13401,1.44,,,,,,,,,,,,,,0,48,48,55,1,,,,,,,,,,,,,,,,,,,,,,,,,,
,,,,,,,,,,,,a,Incorrect,,,,,,t5.png,t2.png,3,0.0000131,19,female,2020-10-20_16h27.26.843,torte-q,2020.1.3,MacIntel,60,13401,0.598,,,,,,,,,,,,,,0,49,49,91,1,,,,,,,,,,,,,,,,,,,,,,,,,,
,,,,,,,,,,,,a,Incorrect,,,,,,t5.png,t2.png,3,0.0000131,19,female,2020-10-20_16h27.26.843,torte-q,2020.1.3,MacIntel,60,13401,0.903,,,,,,,,,,,,,,0,50,50,51,1,,,,,,,,,,,,,,,,,,,,,,,,,,
,,,,,,,,,,,,l,Incorrect,,,,,,t2.png,t2.png,0,0.98115,19,female,2020-10-20_16h27.26.843,torte-q,2020.1.3,MacIntel,60,13401,0.509,,,,,,,,,,,,,,0,51,51,7,1,,,,,,,,,,,,,,,,,,,,,,,,,,
,,,,,,,,,,,,l,Correct!,,,,,,t1.png,t4.png,3,0.0000131,19,female,2020-10-20_16h27.26.843,torte-q,2020.1.3,MacIntel,60,13401,0.549,,,,,,,,,,,,,,0,52,52,17,1,,,,,,,,,,,,,,,,,,,,,,,,,,
,,,,,,,,,,,,a,Correct!,,,,,,t3.png,t4.png,1,0.909,19,female,2020-10-20_16h27.26.843,torte-q,2020.1.3,MacIntel,60,13401,0.555,,,,,,,,,,,,,,0,53,53,106,1,,,,,,,,,,,,,,,,,,,,,,,,,,
,,,,,,,,,,,,a,Correct!,,,,,,t2.png,t3.png,1,0.90855,19,female,2020-10-20_16h27.26.843,torte-q,2020.1.3,MacIntel,60,13401,1.055,,,,,,,,,,,,,,0,54,54,68,1,,,,,,,,,,,,,,,,,,,,,,,,,,
,,,,,,,,,,,,l,Correct!,,,,,,t2.png,t5.png,3,0.0000131,19,female,2020-10-20_16h27.26.843,torte-q,2020.1.3,MacIntel,60,13401,0.904,,,,,,,,,,,,,,0,55,55,40,1,,,,,,,,,,,,,,,,,,,,,,,,,,
,,,,,,,,,,,,a,Correct!,,,,,,t3.png,t4.png,1,0.909,19,female,2020-10-20_16h27.26.843,torte-q,2020.1.3,MacIntel,60,13401,0.735,,,,,,,,,,,,,,0,56,56,89,1,,,,,,,,,,,,,,,,,,,,,,,,,,
,,,,,,,,,,,,l,Correct!,,,,,,t1.png,t4.png,3,0.0000131,19,female,2020-10-20_16h27.26.843,torte-q,2020.1.3,MacIntel,60,13401,0.517,,,,,,,,,,,,,,0,57,57,50,1,,,,,,,,,,,,,,,,,,,,,,,,,,
,,,,,,,,,,,,a,Incorrect,,,,,,t5.png,t2.png,3,0.0000131,19,female,2020-10-20_16h27.26.843,torte-q,2020.1.3,MacIntel,60,13401,0.533,,,,,,,,,,,,,,0,58,58,116,1,,,,,,,,,,,,,,,,,,,,,,,,,,
,,,,,,,,,,,,a,Correct!,,,,,,t2.png,t2.png,0,0.981,19,female,2020-10-20_16h27.26.843,torte-q,2020.1.3,MacIntel,60,13401,1.204,,,,,,,,,,,,,,0,59,59,101,1,,,,,,,,,,,,,,,,,,,,,,,,,,
,,,,,,,,,,,,l,Correct!,,,,,,t5.png,t3.png,2,0.056466,19,female,2020-10-20_16h27.26.843,torte-q,2020.1.3,MacIntel,60,13401,0.849,,,,,,,,,,,,,,0,60,60,38,1,,,,,,,,,,,,,,,,,,,,,,,,,,
,,,,,,,,,,,,l,Correct!,,,,,,t5.png,t1.png,4,9.55E-11,19,female,2020-10-20_16h27.26.843,torte-q,2020.1.3,MacIntel,60,13401,1.125,,,,,,,,,,,,,,0,61,61,43,1,,,,,,,,,,,,,,,,,,,,,,,,,,
,,,,,,,,,,,,a,Correct!,,,,,,t4.png,t4.png,0,0.98115,19,female,2020-10-20_16h27.26.843,torte-q,2020.1.3,MacIntel,60,13401,0.851,,,,,,,,,,,,,,0,62,62,52,1,,,,,,,,,,,,,,,,,,,,,,,,,,
,,,,,,,,,,,,l,Correct!,,,,,,t1.png,t5.png,4,9.55E-11,19,female,2020-10-20_16h27.26.843,torte-q,2020.1.3,MacIntel,60,13401,1.131,,,,,,,,,,,,,,0,63,63,16,1,,,,,,,,,,,,,,,,,,,,,,,,,,
,,,,,,,,,,,,a,Correct!,,,,,,t2.png,t2.png,0,0.98115,19,female,2020-10-20_16h27.26.843,torte-q,2020.1.3,MacIntel,60,13401,0.657,,,,,,,,,,,,,,0,64,64,57,1,,,,,,,,,,,,,,,,,,,,,,,,,,
,,,,,,,,,,,,l,Incorrect,,,,,,t4.png,t4.png,0,0.98115,19,female,2020-10-20_16h27.26.843,torte-q,2020.1.3,MacIntel,60,13401,0.92,,,,,,,,,,,,,,0,65,65,80,1,,,,,,,,,,,,,,,,,,,,,,,,,,
,,,,,,,,,,,,a,Correct!,,,,,,t2.png,t1.png,1,0.90025,19,female,2020-10-20_16h27.26.843,torte-q,2020.1.3,MacIntel,60,13401,0.749,,,,,,,,,,,,,,0,66,66,19,1,,,,,,,,,,,,,,,,,,,,,,,,,,
,,,,,,,,,,,,l,Correct!,,,,,,t1.png,t5.png,4,9.55E-11,19,female,2020-10-20_16h27.26.843,torte-q,2020.1.3,MacIntel,60,13401,0.747,,,,,,,,,,,,,,0,67,67,41,1,,,,,,,,,,,,,,,,,,,,,,,,,,
,,,,,,,,,,,,a,Incorrect,,,,,,t5.png,t2.png,3,0.0000131,19,female,2020-10-20_16h27.26.843,torte-q,2020.1.3,MacIntel,60,13401,1.307,,,,,,,,,,,,,,0,68,68,119,1,,,,,,,,,,,,,,,,,,,,,,,,,,
,,,,,,,,,,,,,Too slow :(,,,,,,t1.png,t1.png,0,0.978,19,female,2020-10-20_16h27.26.843,torte-q,2020.1.3,MacIntel,60,13401,,,,,,,,,,,,,,,0,69,69,54,1,,,,,,,,,,,,,,,,,,,,,,,,,,
,,,,,,,,,,,,l,Correct!,,,,,,t3.png,t5.png,2,0.056466,19,female,2020-10-20_16h27.26.843,torte-q,2020.1.3,MacIntel,60,13401,1.446,,,,,,,,,,,,,,0,70,70,44,1,,,,,,,,,,,,,,,,,,,,,,,,,,
,,,,,,,,,,,,l,Correct!,,,,,,t3.png,t5.png,2,0.0565,19,female,2020-10-20_16h27.26.843,torte-q,2020.1.3,MacIntel,60,13401,0.949,,,,,,,,,,,,,,0,71,71,30,1,,,,,,,,,,,,,,,,,,,,,,,,,,
,,,,,,,,,,,,a,Incorrect,,,,,,t1.png,t5.png,4,9.55E-11,19,female,2020-10-20_16h27.26.843,torte-q,2020.1.3,MacIntel,60,13401,1.396,,,,,,,,,,,,,,0,72,72,12,1,,,,,,,,,,,,,,,,,,,,,,,,,,
,,,,,,,,,,,,l,Correct!,,,,,,t4.png,t1.png,3,0.0000131,19,female,2020-10-20_16h27.26.843,torte-q,2020.1.3,MacIntel,60,13401,1.131,,,,,,,,,,,,,,0,73,73,61,1,,,,,,,,,,,,,,,,,,,,,,,,,,
,,,,,,,,,,,,l,Correct!,,,,,,t4.png,t1.png,3,0.0000131,19,female,2020-10-20_16h27.26.843,torte-q,2020.1.3,MacIntel,60,13401,1.175,,,,,,,,,,,,,,0,74,74,93,1,,,,,,,,,,,,,,,,,,,,,,,,,,
,,,,,,,,,,,,a,Incorrect,,,,,,t3.png,t1.png,2,0.056466,19,female,2020-10-20_16h27.26.843,torte-q,2020.1.3,MacIntel,60,13401,0.903,,,,,,,,,,,,,,0,75,75,64,1,,,,,,,,,,,,,,,,,,,,,,,,,,
,,,,,,,,,,,,a,Incorrect,,,,,,t1.png,t4.png,3,0.0000131,19,female,2020-10-20_16h27.26.843,torte-q,2020.1.3,MacIntel,60,13401,1.331,,,,,,,,,,,,,,0,76,76,81,1,,,,,,,,,,,,,,,,,,,,,,,,,,
,,,,,,,,,,,,l,Correct!,,,,,,t4.png,t1.png,3,0.0000131,19,female,2020-10-20_16h27.26.843,torte-q,2020.1.3,MacIntel,60,13401,0.686,,,,,,,,,,,,,,0,77,77,42,1,,,,,,,,,,,,,,,,,,,,,,,,,,
,,,,,,,,,,,,a,Incorrect,,,,,,t4.png,t2.png,2,0.059078,19,female,2020-10-20_16h27.26.843,torte-q,2020.1.3,MacIntel,60,13401,0.785,,,,,,,,,,,,,,0,78,78,86,1,,,,,,,,,,,,,,,,,,,,,,,,,,
,,,,,,,,,,,,a,Incorrect,,,,,,t1.png,t4.png,3,0.0000131,19,female,2020-10-20_16h27.26.843,torte-q,2020.1.3,MacIntel,60,13401,1.402,,,,,,,,,,,,,,0,79,79,92,1,,,,,,,,,,,,,,,,,,,,,,,,,,
,,,,,,,,,,,,a,Incorrect,,,,,,t1.png,t3.png,2,0.056466,19,female,2020-10-20_16h27.26.843,torte-q,2020.1.3,MacIntel,60,13401,1.372,,,,,,,,,,,,,,0,80,80,99,1,,,,,,,,,,,,,,,,,,,,,,,,,,
,,,,,,,,,,,,l,Incorrect,,,,,,t4.png,t4.png,0,0.98115,19,female,2020-10-20_16h27.26.843,torte-q,2020.1.3,MacIntel,60,13401,1.073,,,,,,,,,,,,,,0,81,81,21,1,,,,,,,,,,,,,,,,,,,,,,,,,,
,,,,,,,,,,,,a,Incorrect,,,,,,t5.png,t3.png,2,0.056466,19,female,2020-10-20_16h27.26.843,torte-q,2020.1.3,MacIntel,60,13401,0.752,,,,,,,,,,,,,,0,82,82,108,1,,,,,,,,,,,,,,,,,,,,,,,,,,
,,,,,,,,,,,,l,Incorrect,,,,,,t3.png,t2.png,1,0.90855,19,female,2020-10-20_16h27.26.843,torte-q,2020.1.3,MacIntel,60,13401,0.649,,,,,,,,,,,,,,0,83,83,97,1,,,,,,,,,,,,,,,,,,,,,,,,,,
,,,,,,,,,,,,l,Incorrect,,,,,,t1.png,t1.png,0,0.97829,19,female,2020-10-20_16h27.26.843,torte-q,2020.1.3,MacIntel,60,13401,0.822,,,,,,,,,,,,,,0,84,84,67,1,,,,,,,,,,,,,,,,,,,,,,,,,,
,,,,,,,,,,,,l,Incorrect,,,,,,t2.png,t3.png,1,0.90855,19,female,2020-10-20_16h27.26.843,torte-q,2020.1.3,MacIntel,60,13401,0.673,,,,,,,,,,,,,,0,85,85,111,1,,,,,,,,,,,,,,,,,,,,,,,,,,
,,,,,,,,,,,,l,Incorrect,,,,,,t2.png,t2.png,0,0.98115,19,female,2020-10-20_16h27.26.843,torte-q,2020.1.3,MacIntel,60,13401,0.714,,,,,,,,,,,,,,0,86,86,2,1,,,,,,,,,,,,,,,,,,,,,,,,,,
,,,,,,,,,,,,a,Incorrect,,,,,,t5.png,t1.png,4,9.55E-11,19,female,2020-10-20_16h27.26.843,torte-q,2020.1.3,MacIntel,60,13401,0.614,,,,,,,,,,,,,,0,87,87,22,1,,,,,,,,,,,,,,,,,,,,,,,,,,
,,,,,,,,,,,,a,Incorrect,,,,,,t5.png,t1.png,4,9.55E-11,19,female,2020-10-20_16h27.26.843,torte-q,2020.1.3,MacIntel,60,13401,1.391,,,,,,,,,,,,,,0,88,88,71,1,,,,,,,,,,,,,,,,,,,,,,,,,,
,,,,,,,,,,,,l,Incorrect,,,,,,t1.png,t2.png,1,0.90025,19,female,2020-10-20_16h27.26.843,torte-q,2020.1.3,MacIntel,60,13401,0.684,,,,,,,,,,,,,,0,89,89,112,1,,,,,,,,,,,,,,,,,,,,,,,,,,
,,,,,,,,,,,,a,Incorrect,,,,,,t4.png,t1.png,3,0.0000131,19,female,2020-10-20_16h27.26.843,torte-q,2020.1.3,MacIntel,60,13401,0.522,,,,,,,,,,,,,,0,90,90,48,1,,,,,,,,,,,,,,,,,,,,,,,,,,
,,,,,,,,,,,,l,Correct!,,,,,,t3.png,t5.png,2,0.056466,19,female,2020-10-20_16h27.26.843,torte-q,2020.1.3,MacIntel,60,13401,0.888,,,,,,,,,,,,,,0,91,91,14,1,,,,,,,,,,,,,,,,,,,,,,,,,,
,,,,,,,,,,,,l,Correct!,,,,,,t1.png,t5.png,4,9.55E-11,19,female,2020-10-20_16h27.26.843,torte-q,2020.1.3,MacIntel,60,13401,0.798,,,,,,,,,,,,,,0,92,92,85,1,,,,,,,,,,,,,,,,,,,,,,,,,,
,,,,,,,,,,,,a,Correct!,,,,,,t5.png,t5.png,0,0.97829,19,female,2020-10-20_16h27.26.843,torte-q,2020.1.3,MacIntel,60,13401,0.749,,,,,,,,,,,,,,0,93,93,73,1,,,,,,,,,,,,,,,,,,,,,,,,,,
,,,,,,,,,,,,l,Incorrect,,,,,,t3.png,t2.png,1,0.909,19,female,2020-10-20_16h27.26.843,torte-q,2020.1.3,MacIntel,60,13401,0.417,,,,,,,,,,,,,,0,94,94,3,1,,,,,,,,,,,,,,,,,,,,,,,,,,
,,,,,,,,,,,,l,Incorrect,,,,,,t4.png,t4.png,0,0.98115,19,female,2020-10-20_16h27.26.843,torte-q,2020.1.3,MacIntel,60,13401,0.68,,,,,,,,,,,,,,0,95,95,90,1,,,,,,,,,,,,,,,,,,,,,,,,,,
,,,,,,,,,,,,l,Correct!,,,,,,t2.png,t1.png,1,0.90025,19,female,2020-10-20_16h27.26.843,torte-q,2020.1.3,MacIntel,60,13401,0.398,,,,,,,,,,,,,,0,96,96,4,1,,,,,,,,,,,,,,,,,,,,,,,,,,
,,,,,,,,,,,,l,Incorrect,,,,,,t3.png,t2.png,1,0.90855,19,female,2020-10-20_16h27.26.843,torte-q,2020.1.3,MacIntel,60,13401,0.682,,,,,,,,,,,,,,0,97,97,53,1,,,,,,,,,,,,,,,,,,,,,,,,,,
,,,,,,,,,,,,a,Incorrect,,,,,,t2.png,t4.png,2,0.059078,19,female,2020-10-20_16h27.26.843,torte-q,2020.1.3,MacIntel,60,13401,0.409,,,,,,,,,,,,,,0,98,98,37,1,,,,,,,,,,,,,,,,,,,,,,,,,,
,,,,,,,,,,,,a,Incorrect,,,,,,t2.png,t5.png,3,0.0000131,19,female,2020-10-20_16h27.26.843,torte-q,2020.1.3,MacIntel,60,13401,0.53,,,,,,,,,,,,,,0,99,99,95,1,,,,,,,,,,,,,,,,,,,,,,,,,,
,,,,,,,,,,,,l,Incorrect,,,,,,t4.png,t3.png,1,0.90855,19,female,2020-10-20_16h27.26.843,torte-q,2020.1.3,MacIntel,60,13401,0.541,,,,,,,,,,,,,,0,100,100,75,1,,,,,,,,,,,,,,,,,,,,,,,,,,
,,,,,,,,,,,,a,Incorrect,,,,,,t5.png,t1.png,4,9.55E-11,19,female,2020-10-20_16h27.26.843,torte-q,2020.1.3,MacIntel,60,13401,1.01,,,,,,,,,,,,,,0,101,101,102,1,,,,,,,,,,,,,,,,,,,,,,,,,,
,,,,,,,,,,,,l,Correct!,,,,,,t1.png,t3.png,2,0.056466,19,female,2020-10-20_16h27.26.843,torte-q,2020.1.3,MacIntel,60,13401,0.579,,,,,,,,,,,,,,0,102,102,60,1,,,,,,,,,,,,,,,,,,,,,,,,,,
,,,,,,,,,,,,l,Correct!,,,,,,t2.png,t4.png,2,0.059078,19,female,2020-10-20_16h27.26.843,torte-q,2020.1.3,MacIntel,60,13401,0.63,,,,,,,,,,,,,,0,103,103,11,1,,,,,,,,,,,,,,,,,,,,,,,,,,
,,,,,,,,,,,,l,Incorrect,,,,,,t2.png,t2.png,0,0.98115,19,female,2020-10-20_16h27.26.843,torte-q,2020.1.3,MacIntel,60,13401,0.808,,,,,,,,,,,,,,0,104,104,59,1,,,,,,,,,,,,,,,,,,,,,,,,,,
,,,,,,,,,,,,l,Incorrect,,,,,,t2.png,t3.png,1,0.90855,19,female,2020-10-20_16h27.26.843,torte-q,2020.1.3,MacIntel,60,13401,0.762,,,,,,,,,,,,,,0,105,105,10,1,,,,,,,,,,,,,,,,,,,,,,,,,,
,,,,,,,,,,,,a,Incorrect,,,,,,t5.png,t2.png,3,0.0000131,19,female,2020-10-20_16h27.26.843,torte-q,2020.1.3,MacIntel,60,13401,0.556,,,,,,,,,,,,,,0,106,106,98,1,,,,,,,,,,,,,,,,,,,,,,,,,,
,,,,,,,,,,,,l,Incorrect,,,,,,t4.png,t3.png,1,0.90855,19,female,2020-10-20_16h27.26.843,torte-q,2020.1.3,MacIntel,60,13401,0.582,,,,,,,,,,,,,,0,107,107,35,1,,,,,,,,,,,,,,,,,,,,,,,,,,
,,,,,,,,,,,,l,Incorrect,,,,,,t1.png,t1.png,0,0.97829,19,female,2020-10-20_16h27.26.843,torte-q,2020.1.3,MacIntel,60,13401,0.515,,,,,,,,,,,,,,0,108,108,78,1,,,,,,,,,,,,,,,,,,,,,,,,,,
,,,,,,,,,,,,l,Incorrect,,,,,,t1.png,t1.png,0,0.978,19,female,2020-10-20_16h27.26.843,torte-q,2020.1.3,MacIntel,60,13401,0.516,,,,,,,,,,,,,,0,109,109,28,1,,,,,,,,,,,,,,,,,,,,,,,,,,
,,,,,,,,,,,,a,Correct!,,,,,,t2.png,t1.png,1,0.9,19,female,2020-10-20_16h27.26.843,torte-q,2020.1.3,MacIntel,60,13401,0.812,,,,,,,,,,,,,,0,110,110,118,1,,,,,,,,,,,,,,,,,,,,,,,,,,
,,,,,,,,,,,,l,Correct!,,,,,,t1.png,t2.png,1,0.9,19,female,2020-10-20_16h27.26.843,torte-q,2020.1.3,MacIntel,60,13401,0.418,,,,,,,,,,,,,,0,111,111,1,1,,,,,,,,,,,,,,,,,,,,,,,,,,
,,,,,,,,,,,,l,Incorrect,,,,,,t4.png,t3.png,1,0.909,19,female,2020-10-20_16h27.26.843,torte-q,2020.1.3,MacIntel,60,13401,0.792,,,,,,,,,,,,,,0,112,112,46,1,,,,,,,,,,,,,,,,,,,,,,,,,,
,,,,,,,,,,,,a,Incorrect,,,,,,t3.png,t5.png,2,0.056466,19,female,2020-10-20_16h27.26.843,torte-q,2020.1.3,MacIntel,60,13401,0.942,,,,,,,,,,,,,,0,113,113,6,1,,,,,,,,,,,,,,,,,,,,,,,,,,
,,,,,,,,,,,,a,Incorrect,,,,,,t3.png,t5.png,2,0.0565,19,female,2020-10-20_16h27.26.843,torte-q,2020.1.3,MacIntel,60,13401,0.567,,,,,,,,,,,,,,0,114,114,83,1,,,,,,,,,,,,,,,,,,,,,,,,,,
,,,,,,,,,,,,l,Correct!,,,,,,t2.png,t4.png,2,0.0591,19,female,2020-10-20_16h27.26.843,torte-q,2020.1.3,MacIntel,60,13401,0.504,,,,,,,,,,,,,,0,115,115,15,1,,,,,,,,,,,,,,,,,,,,,,,,,,
,,,,,,,,,,,,a,Correct!,,,,,,t5.png,t4.png,1,0.90025,19,female,2020-10-20_16h27.26.843,torte-q,2020.1.3,MacIntel,60,13401,0.599,,,,,,,,,,,,,,0,116,116,26,1,,,,,,,,,,,,,,,,,,,,,,,,,,
,,,,,,,,,,,,l,Correct!,,,,,,t4.png,t2.png,2,0.059078,19,female,2020-10-20_16h27.26.843,torte-q,2020.1.3,MacIntel,60,13401,0.348,,,,,,,,,,,,,,0,117,117,110,1,,,,,,,,,,,,,,,,,,,,,,,,,,
,,,,,,,,,,,,l,Incorrect,,,,,,t3.png,t4.png,1,0.909,19,female,2020-10-20_16h27.26.843,torte-q,2020.1.3,MacIntel,60,13401,0.687,,,,,,,,,,,,,,0,118,118,82,1,,,,,,,,,,,,,,,,,,,,,,,,,,
,,,,,,,,,,,,l,Correct!,,,,,,t2.png,t4.png,2,0.059078,19,female,2020-10-20_16h27.26.843,torte-q,2020.1.3,MacIntel,60,13401,0.888,,,,,,,,,,,,,,0,119,119,77,1,,,,,,,,,,,,,,,,,,,,,,,,,,
,,,,,,,,,,,,,,,,,,,,,,,19,female,2020-10-20_16h27.26.843,torte-q,2020.1.3,MacIntel,60,13401,,space,1.986,,,,,,,,,,,,,,,,,5.005,6.912,-67,55,1,0,0,s3,-31,85,1,0,0,t1,138,-107,1,0,0,proceed,space,1.655,space,1.299,space,1.42
