key_resp_8.keys,key_resp_8.rt,key_resp_9.keys,key_resp_9.rt,key_resp_10.keys,key_resp_10.rt,key_resp_11.keys,key_resp_11.rt,key_resp_2.keys,key_resp_2.rt,key_resp_3.keys,key_resp_3.rt,key_resp.keys,key_resp.rt,Feedback,train.thisRepN,train.thisTrialN,train.thisN,train.thisIndex,train.ran,torta_sx,torta_dx,difference,probability,age,gender,date,expName,psychopyVersion,OS,frameRate,participant,key_resp_15.keys,key_resp_15.rt,key_resp_6.keys,key_resp_6.rt,test1.thisRepN,test1.thisTrialN,test1.thisN,test1.thisIndex,test1.ran,key_resp_16.keys,key_resp_16.rt,key_resp_7.keys,key_resp_7.rt,test2.thisRepN,test2.thisTrialN,test2.thisN,test2.thisIndex,test2.ran,rating.response,rating.rt,mouse.x,mouse.y,mouse.leftButton,mouse.midButton,mouse.rightButton,mouse.clicked_name,mouse_2.x,mouse_2.y,mouse_2.leftButton,mouse_2.midButton,mouse_2.rightButton,mouse_2.clicked_name,mouse_3.x,mouse_3.y,mouse_3.leftButton,mouse_3.midButton,mouse_3.rightButton,mouse_3.clicked_name,key_resp_12.keys,key_resp_12.rt,key_resp_13.keys,key_resp_13.rt,key_resp_14.keys,key_resp_14.rt
space,28.019195,space,6.47334,space,2.056025,space,4.881835,space,109.927545,space,54.41151,a,0.95188,Incorrect,0,0,0,33,1,t5.png,t1.png,4,9.55E-11,21,Female,2020-10-19_12h09.54.155,torte-q,2020.1.3,Win32,60,13426,,,,,,,,,,,,,,,,,,,,,,,,,,,,,,,,,,,,,,,,,,,,
,,,,,,,,,,,,a,1.11739,Incorrect,0,1,1,19,1,t4.png,t2.png,2,0.059078,21,Female,2020-10-19_12h09.54.155,torte-q,2020.1.3,Win32,60,13426,,,,,,,,,,,,,,,,,,,,,,,,,,,,,,,,,,,,,,,,,,,,
,,,,,,,,,,,,l,1.51604,Correct!,0,2,2,3,1,t1.png,t5.png,4,9.55E-11,21,Female,2020-10-19_12h09.54.155,torte-q,2020.1.3,Win32,60,13426,,,,,,,,,,,,,,,,,,,,,,,,,,,,,,,,,,,,,,,,,,,,
,,,,,,,,,,,,l,1.805855,Correct!,0,3,3,115,1,t2.png,t4.png,2,0.059078,21,Female,2020-10-19_12h09.54.155,torte-q,2020.1.3,Win32,60,13426,,,,,,,,,,,,,,,,,,,,,,,,,,,,,,,,,,,,,,,,,,,,
,,,,,,,,,,,,l,1.46783,Correct!,0,4,4,94,1,t5.png,t1.png,4,9.55E-11,21,Female,2020-10-19_12h09.54.155,torte-q,2020.1.3,Win32,60,13426,,,,,,,,,,,,,,,,,,,,,,,,,,,,,,,,,,,,,,,,,,,,
,,,,,,,,,,,,l,1.47544,Correct!,0,5,5,90,1,t1.png,t5.png,4,9.55E-11,21,Female,2020-10-19_12h09.54.155,torte-q,2020.1.3,Win32,60,13426,,,,,,,,,,,,,,,,,,,,,,,,,,,,,,,,,,,,,,,,,,,,
,,,,,,,,,,,,l,1.12812,Correct!,0,6,6,88,1,t3.png,t1.png,2,0.056466,21,Female,2020-10-19_12h09.54.155,torte-q,2020.1.3,Win32,60,13426,,,,,,,,,,,,,,,,,,,,,,,,,,,,,,,,,,,,,,,,,,,,
,,,,,,,,,,,,l,0.9264,Correct!,0,7,7,46,1,t4.png,t2.png,2,0.059078,21,Female,2020-10-19_12h09.54.155,torte-q,2020.1.3,Win32,60,13426,,,,,,,,,,,,,,,,,,,,,,,,,,,,,,,,,,,,,,,,,,,,
,,,,,,,,,,,,l,1.1506,Incorrect,0,8,8,49,1,t4.png,t5.png,1,0.9,21,Female,2020-10-19_12h09.54.155,torte-q,2020.1.3,Win32,60,13426,,,,,,,,,,,,,,,,,,,,,,,,,,,,,,,,,,,,,,,,,,,,
,,,,,,,,,,,,l,1.06225,Correct!,0,9,9,8,1,t3.png,t2.png,1,0.90855,21,Female,2020-10-19_12h09.54.155,torte-q,2020.1.3,Win32,60,13426,,,,,,,,,,,,,,,,,,,,,,,,,,,,,,,,,,,,,,,,,,,,
,,,,,,,,,,,,a,1.085015,Correct!,0,10,10,66,1,t4.png,t5.png,1,0.9,21,Female,2020-10-19_12h09.54.155,torte-q,2020.1.3,Win32,60,13426,,,,,,,,,,,,,,,,,,,,,,,,,,,,,,,,,,,,,,,,,,,,
,,,,,,,,,,,,l,1.221545,Correct!,0,11,11,80,1,t1.png,t4.png,3,0.0000131,21,Female,2020-10-19_12h09.54.155,torte-q,2020.1.3,Win32,60,13426,,,,,,,,,,,,,,,,,,,,,,,,,,,,,,,,,,,,,,,,,,,,
,,,,,,,,,,,,l,1.15031,Correct!,0,12,12,4,1,t1.png,t5.png,4,9.55E-11,21,Female,2020-10-19_12h09.54.155,torte-q,2020.1.3,Win32,60,13426,,,,,,,,,,,,,,,,,,,,,,,,,,,,,,,,,,,,,,,,,,,,
,,,,,,,,,,,,a,0.98894,Correct!,0,13,13,18,1,t4.png,t5.png,1,0.90025,21,Female,2020-10-19_12h09.54.155,torte-q,2020.1.3,Win32,60,13426,,,,,,,,,,,,,,,,,,,,,,,,,,,,,,,,,,,,,,,,,,,,
,,,,,,,,,,,,a,1.400525,Correct!,0,14,14,112,1,t1.png,t1.png,0,0.97829,21,Female,2020-10-19_12h09.54.155,torte-q,2020.1.3,Win32,60,13426,,,,,,,,,,,,,,,,,,,,,,,,,,,,,,,,,,,,,,,,,,,,
,,,,,,,,,,,,l,1.517235,Correct!,0,15,15,35,1,t1.png,t4.png,3,0.0000131,21,Female,2020-10-19_12h09.54.155,torte-q,2020.1.3,Win32,60,13426,,,,,,,,,,,,,,,,,,,,,,,,,,,,,,,,,,,,,,,,,,,,
,,,,,,,,,,,,l,1.183605,Correct!,0,16,16,54,1,t1.png,t5.png,4,9.55E-11,21,Female,2020-10-19_12h09.54.155,torte-q,2020.1.3,Win32,60,13426,,,,,,,,,,,,,,,,,,,,,,,,,,,,,,,,,,,,,,,,,,,,
,,,,,,,,,,,,a,1.057015,Correct!,0,17,17,16,1,t5.png,t4.png,1,0.9,21,Female,2020-10-19_12h09.54.155,torte-q,2020.1.3,Win32,60,13426,,,,,,,,,,,,,,,,,,,,,,,,,,,,,,,,,,,,,,,,,,,,
,,,,,,,,,,,,a,1.652705,Incorrect,0,18,18,73,1,t4.png,t2.png,2,0.059078,21,Female,2020-10-19_12h09.54.155,torte-q,2020.1.3,Win32,60,13426,,,,,,,,,,,,,,,,,,,,,,,,,,,,,,,,,,,,,,,,,,,,
,,,,,,,,,,,,l,1.816835,Correct!,0,19,19,14,1,t2.png,t4.png,2,0.059078,21,Female,2020-10-19_12h09.54.155,torte-q,2020.1.3,Win32,60,13426,,,,,,,,,,,,,,,,,,,,,,,,,,,,,,,,,,,,,,,,,,,,
,,,,,,,,,,,,a,2.139675,Correct!,0,20,20,48,1,t5.png,t5.png,0,0.97829,21,Female,2020-10-19_12h09.54.155,torte-q,2020.1.3,Win32,60,13426,,,,,,,,,,,,,,,,,,,,,,,,,,,,,,,,,,,,,,,,,,,,
,,,,,,,,,,,,a,1.454655,Correct!,0,21,21,62,1,t5.png,t5.png,0,0.978,21,Female,2020-10-19_12h09.54.155,torte-q,2020.1.3,Win32,60,13426,,,,,,,,,,,,,,,,,,,,,,,,,,,,,,,,,,,,,,,,,,,,
,,,,,,,,,,,,l,1.275925,Correct!,0,22,22,102,1,t4.png,t2.png,2,0.059078,21,Female,2020-10-19_12h09.54.155,torte-q,2020.1.3,Win32,60,13426,,,,,,,,,,,,,,,,,,,,,,,,,,,,,,,,,,,,,,,,,,,,
,,,,,,,,,,,,l,1.208165,Correct!,0,23,23,69,1,t4.png,t2.png,2,0.059078,21,Female,2020-10-19_12h09.54.155,torte-q,2020.1.3,Win32,60,13426,,,,,,,,,,,,,,,,,,,,,,,,,,,,,,,,,,,,,,,,,,,,
,,,,,,,,,,,,a,1.353395,Incorrect,0,24,24,31,1,t1.png,t5.png,4,9.55E-11,21,Female,2020-10-19_12h09.54.155,torte-q,2020.1.3,Win32,60,13426,,,,,,,,,,,,,,,,,,,,,,,,,,,,,,,,,,,,,,,,,,,,
,,,,,,,,,,,,a,1.25043,Correct!,0,25,25,63,1,t2.png,t3.png,1,0.909,21,Female,2020-10-19_12h09.54.155,torte-q,2020.1.3,Win32,60,13426,,,,,,,,,,,,,,,,,,,,,,,,,,,,,,,,,,,,,,,,,,,,
,,,,,,,,,,,,l,1.603615,Correct!,0,26,26,26,1,t4.png,t2.png,2,0.0591,21,Female,2020-10-19_12h09.54.155,torte-q,2020.1.3,Win32,60,13426,,,,,,,,,,,,,,,,,,,,,,,,,,,,,,,,,,,,,,,,,,,,
,,,,,,,,,,,,a,1.419635,Incorrect,0,27,27,53,1,t3.png,t1.png,2,0.056466,21,Female,2020-10-19_12h09.54.155,torte-q,2020.1.3,Win32,60,13426,,,,,,,,,,,,,,,,,,,,,,,,,,,,,,,,,,,,,,,,,,,,
,,,,,,,,,,,,l,0.83467,Correct!,0,28,28,38,1,t3.png,t1.png,2,0.056466,21,Female,2020-10-19_12h09.54.155,torte-q,2020.1.3,Win32,60,13426,,,,,,,,,,,,,,,,,,,,,,,,,,,,,,,,,,,,,,,,,,,,
,,,,,,,,,,,,l,1.789835,Correct!,0,29,29,40,1,t1.png,t5.png,4,9.55E-11,21,Female,2020-10-19_12h09.54.155,torte-q,2020.1.3,Win32,60,13426,,,,,,,,,,,,,,,,,,,,,,,,,,,,,,,,,,,,,,,,,,,,
,,,,,,,,,,,,l,1.350535,Incorrect,0,30,30,114,1,t2.png,t3.png,1,0.90855,21,Female,2020-10-19_12h09.54.155,torte-q,2020.1.3,Win32,60,13426,,,,,,,,,,,,,,,,,,,,,,,,,,,,,,,,,,,,,,,,,,,,
,,,,,,,,,,,,a,0.917505,Correct!,0,31,31,39,1,t3.png,t2.png,1,0.90855,21,Female,2020-10-19_12h09.54.155,torte-q,2020.1.3,Win32,60,13426,,,,,,,,,,,,,,,,,,,,,,,,,,,,,,,,,,,,,,,,,,,,
,,,,,,,,,,,,a,0.74349,Correct!,0,32,32,85,1,t3.png,t2.png,1,0.90855,21,Female,2020-10-19_12h09.54.155,torte-q,2020.1.3,Win32,60,13426,,,,,,,,,,,,,,,,,,,,,,,,,,,,,,,,,,,,,,,,,,,,
,,,,,,,,,,,,a,1.901575,Correct!,0,33,33,70,1,t5.png,t5.png,0,0.978,21,Female,2020-10-19_12h09.54.155,torte-q,2020.1.3,Win32,60,13426,,,,,,,,,,,,,,,,,,,,,,,,,,,,,,,,,,,,,,,,,,,,
,,,,,,,,,,,,l,1.521895,Correct!,0,34,34,117,1,t1.png,t5.png,4,9.55E-11,21,Female,2020-10-19_12h09.54.155,torte-q,2020.1.3,Win32,60,13426,,,,,,,,,,,,,,,,,,,,,,,,,,,,,,,,,,,,,,,,,,,,
,,,,,,,,,,,,l,1.333725,Correct!,0,35,35,30,1,t3.png,t1.png,2,0.056466,21,Female,2020-10-19_12h09.54.155,torte-q,2020.1.3,Win32,60,13426,,,,,,,,,,,,,,,,,,,,,,,,,,,,,,,,,,,,,,,,,,,,
,,,,,,,,,,,,l,1.63793,Correct!,0,36,36,37,1,t1.png,t4.png,3,0.0000131,21,Female,2020-10-19_12h09.54.155,torte-q,2020.1.3,Win32,60,13426,,,,,,,,,,,,,,,,,,,,,,,,,,,,,,,,,,,,,,,,,,,,
,,,,,,,,,,,,a,0.884895,Correct!,0,37,37,25,1,t5.png,t5.png,0,0.97829,21,Female,2020-10-19_12h09.54.155,torte-q,2020.1.3,Win32,60,13426,,,,,,,,,,,,,,,,,,,,,,,,,,,,,,,,,,,,,,,,,,,,
,,,,,,,,,,,,l,1.570735,Incorrect,0,38,38,44,1,t2.png,t3.png,1,0.909,21,Female,2020-10-19_12h09.54.155,torte-q,2020.1.3,Win32,60,13426,,,,,,,,,,,,,,,,,,,,,,,,,,,,,,,,,,,,,,,,,,,,
,,,,,,,,,,,,a,1.85907,Correct!,0,39,39,58,1,t5.png,t4.png,1,0.90025,21,Female,2020-10-19_12h09.54.155,torte-q,2020.1.3,Win32,60,13426,,,,,,,,,,,,,,,,,,,,,,,,,,,,,,,,,,,,,,,,,,,,
,,,,,,,,,,,,l,1.683845,Correct!,0,40,40,72,1,t4.png,t2.png,2,0.059078,21,Female,2020-10-19_12h09.54.155,torte-q,2020.1.3,Win32,60,13426,,,,,,,,,,,,,,,,,,,,,,,,,,,,,,,,,,,,,,,,,,,,
,,,,,,,,,,,,l,2.004835,Correct!,0,41,41,50,1,t5.png,t1.png,4,9.55E-11,21,Female,2020-10-19_12h09.54.155,torte-q,2020.1.3,Win32,60,13426,,,,,,,,,,,,,,,,,,,,,,,,,,,,,,,,,,,,,,,,,,,,
,,,,,,,,,,,,l,1.350395,Correct!,0,42,42,52,1,t2.png,t4.png,2,0.059078,21,Female,2020-10-19_12h09.54.155,torte-q,2020.1.3,Win32,60,13426,,,,,,,,,,,,,,,,,,,,,,,,,,,,,,,,,,,,,,,,,,,,
,,,,,,,,,,,,a,1.517875,Correct!,0,43,43,15,1,t3.png,t2.png,1,0.90855,21,Female,2020-10-19_12h09.54.155,torte-q,2020.1.3,Win32,60,13426,,,,,,,,,,,,,,,,,,,,,,,,,,,,,,,,,,,,,,,,,,,,
,,,,,,,,,,,,l,2.16629,Incorrect,0,44,44,81,1,t1.png,t1.png,0,0.97829,21,Female,2020-10-19_12h09.54.155,torte-q,2020.1.3,Win32,60,13426,,,,,,,,,,,,,,,,,,,,,,,,,,,,,,,,,,,,,,,,,,,,
,,,,,,,,,,,,a,1.58915,Correct!,0,45,45,45,1,t3.png,t2.png,1,0.90855,21,Female,2020-10-19_12h09.54.155,torte-q,2020.1.3,Win32,60,13426,,,,,,,,,,,,,,,,,,,,,,,,,,,,,,,,,,,,,,,,,,,,
,,,,,,,,,,,,l,1.45977,Correct!,0,46,46,0,1,t5.png,t1.png,4,9.55E-11,21,Female,2020-10-19_12h09.54.155,torte-q,2020.1.3,Win32,60,13426,,,,,,,,,,,,,,,,,,,,,,,,,,,,,,,,,,,,,,,,,,,,
,,,,,,,,,,,,l,1.27473,Correct!,0,47,47,91,1,t1.png,t4.png,3,0.0000131,21,Female,2020-10-19_12h09.54.155,torte-q,2020.1.3,Win32,60,13426,,,,,,,,,,,,,,,,,,,,,,,,,,,,,,,,,,,,,,,,,,,,
,,,,,,,,,,,,a,1.800055,Correct!,0,48,48,84,1,t1.png,t1.png,0,0.97829,21,Female,2020-10-19_12h09.54.155,torte-q,2020.1.3,Win32,60,13426,,,,,,,,,,,,,,,,,,,,,,,,,,,,,,,,,,,,,,,,,,,,
,,,,,,,,,,,,l,1.54179,Incorrect,0,49,49,22,1,t2.png,t3.png,1,0.90855,21,Female,2020-10-19_12h09.54.155,torte-q,2020.1.3,Win32,60,13426,,,,,,,,,,,,,,,,,,,,,,,,,,,,,,,,,,,,,,,,,,,,
,,,,,,,,,,,,l,2.037915,Correct!,0,50,50,36,1,t3.png,t1.png,2,0.0565,21,Female,2020-10-19_12h09.54.155,torte-q,2020.1.3,Win32,60,13426,,,,,,,,,,,,,,,,,,,,,,,,,,,,,,,,,,,,,,,,,,,,
,,,,,,,,,,,,a,1.20881,Correct!,0,51,51,32,1,t4.png,t5.png,1,0.90025,21,Female,2020-10-19_12h09.54.155,torte-q,2020.1.3,Win32,60,13426,,,,,,,,,,,,,,,,,,,,,,,,,,,,,,,,,,,,,,,,,,,,
,,,,,,,,,,,,l,1.16716,Incorrect,0,52,52,20,1,t2.png,t3.png,1,0.90855,21,Female,2020-10-19_12h09.54.155,torte-q,2020.1.3,Win32,60,13426,,,,,,,,,,,,,,,,,,,,,,,,,,,,,,,,,,,,,,,,,,,,
,,,,,,,,,,,,a,2.15573,Incorrect,0,53,53,111,1,t5.png,t1.png,4,9.55E-11,21,Female,2020-10-19_12h09.54.155,torte-q,2020.1.3,Win32,60,13426,,,,,,,,,,,,,,,,,,,,,,,,,,,,,,,,,,,,,,,,,,,,
,,,,,,,,,,,,l,1.35323,Incorrect,0,54,54,86,1,t3.png,t1.png,2,0.056466,21,Female,2020-10-19_12h09.54.155,torte-q,2020.1.3,Win32,60,13426,,,,,,,,,,,,,,,,,,,,,,,,,,,,,,,,,,,,,,,,,,,,
,,,,,,,,,,,,l,1.483205,Incorrect,0,55,55,64,1,t1.png,t1.png,0,0.978,21,Female,2020-10-19_12h09.54.155,torte-q,2020.1.3,Win32,60,13426,,,,,,,,,,,,,,,,,,,,,,,,,,,,,,,,,,,,,,,,,,,,
,,,,,,,,,,,,l,1.460215,Correct!,0,56,56,5,1,t2.png,t4.png,2,0.059078,21,Female,2020-10-19_12h09.54.155,torte-q,2020.1.3,Win32,60,13426,,,,,,,,,,,,,,,,,,,,,,,,,,,,,,,,,,,,,,,,,,,,
,,,,,,,,,,,,l,1.76037,Incorrect,0,57,57,23,1,t5.png,t4.png,1,0.90025,21,Female,2020-10-19_12h09.54.155,torte-q,2020.1.3,Win32,60,13426,,,,,,,,,,,,,,,,,,,,,,,,,,,,,,,,,,,,,,,,,,,,
,,,,,,,,,,,,l,1.52768,Correct!,0,58,58,56,1,t5.png,t1.png,4,9.55E-11,21,Female,2020-10-19_12h09.54.155,torte-q,2020.1.3,Win32,60,13426,,,,,,,,,,,,,,,,,,,,,,,,,,,,,,,,,,,,,,,,,,,,
,,,,,,,,,,,,a,1.110675,Correct!,0,59,59,65,1,t4.png,t5.png,1,0.90025,21,Female,2020-10-19_12h09.54.155,torte-q,2020.1.3,Win32,60,13426,,,,,,,,,,,,,,,,,,,,,,,,,,,,,,,,,,,,,,,,,,,,
,,,,,,,,,,,,l,1.83409,Incorrect,0,60,60,118,1,t5.png,t5.png,0,0.978,21,Female,2020-10-19_12h09.54.155,torte-q,2020.1.3,Win32,60,13426,,,,,,,,,,,,,,,,,,,,,,,,,,,,,,,,,,,,,,,,,,,,
,,,,,,,,,,,,l,1.51894,Incorrect,0,61,61,101,1,t4.png,t5.png,1,0.90025,21,Female,2020-10-19_12h09.54.155,torte-q,2020.1.3,Win32,60,13426,,,,,,,,,,,,,,,,,,,,,,,,,,,,,,,,,,,,,,,,,,,,
,,,,,,,,,,,,a,1.62442,Incorrect,0,62,62,68,1,t1.png,t4.png,3,0.0000131,21,Female,2020-10-19_12h09.54.155,torte-q,2020.1.3,Win32,60,13426,,,,,,,,,,,,,,,,,,,,,,,,,,,,,,,,,,,,,,,,,,,,
,,,,,,,,,,,,l,1.2573,Correct!,0,63,63,103,1,t3.png,t1.png,2,0.056466,21,Female,2020-10-19_12h09.54.155,torte-q,2020.1.3,Win32,60,13426,,,,,,,,,,,,,,,,,,,,,,,,,,,,,,,,,,,,,,,,,,,,
,,,,,,,,,,,,l,1.717135,Correct!,0,64,64,83,1,t3.png,t1.png,2,0.056466,21,Female,2020-10-19_12h09.54.155,torte-q,2020.1.3,Win32,60,13426,,,,,,,,,,,,,,,,,,,,,,,,,,,,,,,,,,,,,,,,,,,,
,,,,,,,,,,,,a,2.38258,Correct!,0,65,65,42,1,t5.png,t4.png,1,0.90025,21,Female,2020-10-19_12h09.54.155,torte-q,2020.1.3,Win32,60,13426,,,,,,,,,,,,,,,,,,,,,,,,,,,,,,,,,,,,,,,,,,,,
,,,,,,,,,,,,l,1.489255,Incorrect,0,66,66,95,1,t1.png,t1.png,0,0.978,21,Female,2020-10-19_12h09.54.155,torte-q,2020.1.3,Win32,60,13426,,,,,,,,,,,,,,,,,,,,,,,,,,,,,,,,,,,,,,,,,,,,
,,,,,,,,,,,,,,Too slow :(,0,67,67,79,1,t3.png,t2.png,1,0.909,21,Female,2020-10-19_12h09.54.155,torte-q,2020.1.3,Win32,60,13426,,,,,,,,,,,,,,,,,,,,,,,,,,,,,,,,,,,,,,,,,,,,
,,,,,,,,,,,,l,1.01873,Incorrect,0,68,68,104,1,t2.png,t3.png,1,0.90855,21,Female,2020-10-19_12h09.54.155,torte-q,2020.1.3,Win32,60,13426,,,,,,,,,,,,,,,,,,,,,,,,,,,,,,,,,,,,,,,,,,,,
,,,,,,,,,,,,l,1.310115,Correct!,0,69,69,98,1,t2.png,t4.png,2,0.0591,21,Female,2020-10-19_12h09.54.155,torte-q,2020.1.3,Win32,60,13426,,,,,,,,,,,,,,,,,,,,,,,,,,,,,,,,,,,,,,,,,,,,
,,,,,,,,,,,,a,1.25583,Correct!,0,70,70,106,1,t2.png,t3.png,1,0.90855,21,Female,2020-10-19_12h09.54.155,torte-q,2020.1.3,Win32,60,13426,,,,,,,,,,,,,,,,,,,,,,,,,,,,,,,,,,,,,,,,,,,,
,,,,,,,,,,,,l,1.403285,Incorrect,0,71,71,21,1,t5.png,t4.png,1,0.90025,21,Female,2020-10-19_12h09.54.155,torte-q,2020.1.3,Win32,60,13426,,,,,,,,,,,,,,,,,,,,,,,,,,,,,,,,,,,,,,,,,,,,
,,,,,,,,,,,,a,2.243265,Incorrect,0,72,72,89,1,t1.png,t4.png,3,0.0000131,21,Female,2020-10-19_12h09.54.155,torte-q,2020.1.3,Win32,60,13426,,,,,,,,,,,,,,,,,,,,,,,,,,,,,,,,,,,,,,,,,,,,
,,,,,,,,,,,,l,1.800005,Incorrect,0,73,73,113,1,t5.png,t4.png,1,0.9,21,Female,2020-10-19_12h09.54.155,torte-q,2020.1.3,Win32,60,13426,,,,,,,,,,,,,,,,,,,,,,,,,,,,,,,,,,,,,,,,,,,,
,,,,,,,,,,,,l,1.842425,Correct!,0,74,74,43,1,t4.png,t2.png,2,0.059078,21,Female,2020-10-19_12h09.54.155,torte-q,2020.1.3,Win32,60,13426,,,,,,,,,,,,,,,,,,,,,,,,,,,,,,,,,,,,,,,,,,,,
,,,,,,,,,,,,a,2.116525,Incorrect,0,75,75,17,1,t1.png,t4.png,3,0.0000131,21,Female,2020-10-19_12h09.54.155,torte-q,2020.1.3,Win32,60,13426,,,,,,,,,,,,,,,,,,,,,,,,,,,,,,,,,,,,,,,,,,,,
,,,,,,,,,,,,a,2.166015,Correct!,0,76,76,100,1,t4.png,t5.png,1,0.90025,21,Female,2020-10-19_12h09.54.155,torte-q,2020.1.3,Win32,60,13426,,,,,,,,,,,,,,,,,,,,,,,,,,,,,,,,,,,,,,,,,,,,
,,,,,,,,,,,,l,2.01947,Incorrect,0,77,77,41,1,t3.png,t2.png,1,0.90855,21,Female,2020-10-19_12h09.54.155,torte-q,2020.1.3,Win32,60,13426,,,,,,,,,,,,,,,,,,,,,,,,,,,,,,,,,,,,,,,,,,,,
,,,,,,,,,,,,l,1.140015,Incorrect,0,78,78,13,1,t5.png,t5.png,0,0.97829,21,Female,2020-10-19_12h09.54.155,torte-q,2020.1.3,Win32,60,13426,,,,,,,,,,,,,,,,,,,,,,,,,,,,,,,,,,,,,,,,,,,,
,,,,,,,,,,,,a,1.10515,Correct!,0,79,79,1,1,t2.png,t4.png,2,0.059078,21,Female,2020-10-19_12h09.54.155,torte-q,2020.1.3,Win32,60,13426,,,,,,,,,,,,,,,,,,,,,,,,,,,,,,,,,,,,,,,,,,,,
,,,,,,,,,,,,a,1.735025,Incorrect,0,80,80,24,1,t4.png,t2.png,2,0.059078,21,Female,2020-10-19_12h09.54.155,torte-q,2020.1.3,Win32,60,13426,,,,,,,,,,,,,,,,,,,,,,,,,,,,,,,,,,,,,,,,,,,,
,,,,,,,,,,,,l,1.242555,Incorrect,0,81,81,109,1,t5.png,t5.png,0,0.97829,21,Female,2020-10-19_12h09.54.155,torte-q,2020.1.3,Win32,60,13426,,,,,,,,,,,,,,,,,,,,,,,,,,,,,,,,,,,,,,,,,,,,
,,,,,,,,,,,,l,1.37374,Incorrect,0,82,82,7,1,t4.png,t5.png,1,0.90025,21,Female,2020-10-19_12h09.54.155,torte-q,2020.1.3,Win32,60,13426,,,,,,,,,,,,,,,,,,,,,,,,,,,,,,,,,,,,,,,,,,,,
,,,,,,,,,,,,a,1.3865,Incorrect,0,83,83,47,1,t4.png,t2.png,2,0.059078,21,Female,2020-10-19_12h09.54.155,torte-q,2020.1.3,Win32,60,13426,,,,,,,,,,,,,,,,,,,,,,,,,,,,,,,,,,,,,,,,,,,,
,,,,,,,,,,,,l,2.09059,Correct!,0,84,84,61,1,t1.png,t4.png,3,0.0000131,21,Female,2020-10-19_12h09.54.155,torte-q,2020.1.3,Win32,60,13426,,,,,,,,,,,,,,,,,,,,,,,,,,,,,,,,,,,,,,,,,,,,
,,,,,,,,,,,,a,2.004395,Correct!,0,85,85,92,1,t2.png,t3.png,1,0.909,21,Female,2020-10-19_12h09.54.155,torte-q,2020.1.3,Win32,60,13426,,,,,,,,,,,,,,,,,,,,,,,,,,,,,,,,,,,,,,,,,,,,
,,,,,,,,,,,,l,1.699565,Correct!,0,86,86,82,1,t5.png,t1.png,4,9.55E-11,21,Female,2020-10-19_12h09.54.155,torte-q,2020.1.3,Win32,60,13426,,,,,,,,,,,,,,,,,,,,,,,,,,,,,,,,,,,,,,,,,,,,
,,,,,,,,,,,,a,1.35925,Correct!,0,87,87,116,1,t5.png,t4.png,1,0.90025,21,Female,2020-10-19_12h09.54.155,torte-q,2020.1.3,Win32,60,13426,,,,,,,,,,,,,,,,,,,,,,,,,,,,,,,,,,,,,,,,,,,,
,,,,,,,,,,,,l,1.153625,Correct!,0,88,88,51,1,t3.png,t1.png,2,0.056466,21,Female,2020-10-19_12h09.54.155,torte-q,2020.1.3,Win32,60,13426,,,,,,,,,,,,,,,,,,,,,,,,,,,,,,,,,,,,,,,,,,,,
,,,,,,,,,,,,a,0.83942,Incorrect,0,89,89,57,1,t2.png,t4.png,2,0.059078,21,Female,2020-10-19_12h09.54.155,torte-q,2020.1.3,Win32,60,13426,,,,,,,,,,,,,,,,,,,,,,,,,,,,,,,,,,,,,,,,,,,,
,,,,,,,,,,,,a,1.519815,Correct!,0,90,90,110,1,t4.png,t5.png,1,0.90025,21,Female,2020-10-19_12h09.54.155,torte-q,2020.1.3,Win32,60,13426,,,,,,,,,,,,,,,,,,,,,,,,,,,,,,,,,,,,,,,,,,,,
,,,,,,,,,,,,a,1.428065,Correct!,0,91,91,78,1,t1.png,t1.png,0,0.978,21,Female,2020-10-19_12h09.54.155,torte-q,2020.1.3,Win32,60,13426,,,,,,,,,,,,,,,,,,,,,,,,,,,,,,,,,,,,,,,,,,,,
,,,,,,,,,,,,a,1.88338,Correct!,0,92,92,28,1,t2.png,t3.png,1,0.909,21,Female,2020-10-19_12h09.54.155,torte-q,2020.1.3,Win32,60,13426,,,,,,,,,,,,,,,,,,,,,,,,,,,,,,,,,,,,,,,,,,,,
,,,,,,,,,,,,l,1.58313,Incorrect,0,93,93,75,1,t1.png,t1.png,0,0.97829,21,Female,2020-10-19_12h09.54.155,torte-q,2020.1.3,Win32,60,13426,,,,,,,,,,,,,,,,,,,,,,,,,,,,,,,,,,,,,,,,,,,,
,,,,,,,,,,,,a,0.60513,Incorrect,0,94,94,60,1,t2.png,t4.png,2,0.059078,21,Female,2020-10-19_12h09.54.155,torte-q,2020.1.3,Win32,60,13426,,,,,,,,,,,,,,,,,,,,,,,,,,,,,,,,,,,,,,,,,,,,
,,,,,,,,,,,,a,0.754815,Correct!,0,95,95,76,1,t3.png,t2.png,1,0.90855,21,Female,2020-10-19_12h09.54.155,torte-q,2020.1.3,Win32,60,13426,,,,,,,,,,,,,,,,,,,,,,,,,,,,,,,,,,,,,,,,,,,,
,,,,,,,,,,,,a,1.952785,Incorrect,0,96,96,99,1,t1.png,t5.png,4,9.55E-11,21,Female,2020-10-19_12h09.54.155,torte-q,2020.1.3,Win32,60,13426,,,,,,,,,,,,,,,,,,,,,,,,,,,,,,,,,,,,,,,,,,,,
,,,,,,,,,,,,a,0.825525,Correct!,0,97,97,9,1,t4.png,t5.png,1,0.9,21,Female,2020-10-19_12h09.54.155,torte-q,2020.1.3,Win32,60,13426,,,,,,,,,,,,,,,,,,,,,,,,,,,,,,,,,,,,,,,,,,,,
,,,,,,,,,,,,a,1.054775,Correct!,0,98,98,74,1,t5.png,t4.png,1,0.9,21,Female,2020-10-19_12h09.54.155,torte-q,2020.1.3,Win32,60,13426,,,,,,,,,,,,,,,,,,,,,,,,,,,,,,,,,,,,,,,,,,,,
,,,,,,,,,,,,a,1.793525,Incorrect,0,99,99,12,1,t5.png,t1.png,4,9.55E-11,21,Female,2020-10-19_12h09.54.155,torte-q,2020.1.3,Win32,60,13426,,,,,,,,,,,,,,,,,,,,,,,,,,,,,,,,,,,,,,,,,,,,
,,,,,,,,,,,,a,1.07561,Correct!,0,100,100,29,1,t5.png,t5.png,0,0.97829,21,Female,2020-10-19_12h09.54.155,torte-q,2020.1.3,Win32,60,13426,,,,,,,,,,,,,,,,,,,,,,,,,,,,,,,,,,,,,,,,,,,,
,,,,,,,,,,,,l,1.32677,Correct!,0,101,101,119,1,t1.png,t5.png,4,9.55E-11,21,Female,2020-10-19_12h09.54.155,torte-q,2020.1.3,Win32,60,13426,,,,,,,,,,,,,,,,,,,,,,,,,,,,,,,,,,,,,,,,,,,,
,,,,,,,,,,,,a,1.16702,Correct!,0,102,102,59,1,t5.png,t4.png,1,0.9,21,Female,2020-10-19_12h09.54.155,torte-q,2020.1.3,Win32,60,13426,,,,,,,,,,,,,,,,,,,,,,,,,,,,,,,,,,,,,,,,,,,,
,,,,,,,,,,,,l,0.78783,Correct!,0,103,103,93,1,t2.png,t4.png,2,0.059078,21,Female,2020-10-19_12h09.54.155,torte-q,2020.1.3,Win32,60,13426,,,,,,,,,,,,,,,,,,,,,,,,,,,,,,,,,,,,,,,,,,,,
,,,,,,,,,,,,a,0.650175,Incorrect,0,104,104,108,1,t5.png,t1.png,4,9.55E-11,21,Female,2020-10-19_12h09.54.155,torte-q,2020.1.3,Win32,60,13426,,,,,,,,,,,,,,,,,,,,,,,,,,,,,,,,,,,,,,,,,,,,
,,,,,,,,,,,,l,1.733275,Correct!,0,105,105,87,1,t5.png,t1.png,4,9.55E-11,21,Female,2020-10-19_12h09.54.155,torte-q,2020.1.3,Win32,60,13426,,,,,,,,,,,,,,,,,,,,,,,,,,,,,,,,,,,,,,,,,,,,
,,,,,,,,,,,,,,Too slow :(,0,106,106,11,1,t1.png,t4.png,3,0.0000131,21,Female,2020-10-19_12h09.54.155,torte-q,2020.1.3,Win32,60,13426,,,,,,,,,,,,,,,,,,,,,,,,,,,,,,,,,,,,,,,,,,,,
,,,,,,,,,,,,l,1.33719,Incorrect,0,107,107,10,1,t2.png,t3.png,1,0.90855,21,Female,2020-10-19_12h09.54.155,torte-q,2020.1.3,Win32,60,13426,,,,,,,,,,,,,,,,,,,,,,,,,,,,,,,,,,,,,,,,,,,,
,,,,,,,,,,,,a,2.39921,Correct!,0,108,108,105,1,t3.png,t2.png,1,0.90855,21,Female,2020-10-19_12h09.54.155,torte-q,2020.1.3,Win32,60,13426,,,,,,,,,,,,,,,,,,,,,,,,,,,,,,,,,,,,,,,,,,,,
,,,,,,,,,,,,l,1.949695,Incorrect,0,109,109,77,1,t1.png,t1.png,0,0.97829,21,Female,2020-10-19_12h09.54.155,torte-q,2020.1.3,Win32,60,13426,,,,,,,,,,,,,,,,,,,,,,,,,,,,,,,,,,,,,,,,,,,,
,,,,,,,,,,,,a,0.942225,Correct!,0,110,110,107,1,t1.png,t1.png,0,0.978,21,Female,2020-10-19_12h09.54.155,torte-q,2020.1.3,Win32,60,13426,,,,,,,,,,,,,,,,,,,,,,,,,,,,,,,,,,,,,,,,,,,,
,,,,,,,,,,,,a,1.60698,Incorrect,0,111,111,27,1,t3.png,t1.png,2,0.0565,21,Female,2020-10-19_12h09.54.155,torte-q,2020.1.3,Win32,60,13426,,,,,,,,,,,,,,,,,,,,,,,,,,,,,,,,,,,,,,,,,,,,
,,,,,,,,,,,,a,1.40059,Correct!,0,112,112,71,1,t5.png,t5.png,0,0.97829,21,Female,2020-10-19_12h09.54.155,torte-q,2020.1.3,Win32,60,13426,,,,,,,,,,,,,,,,,,,,,,,,,,,,,,,,,,,,,,,,,,,,
,,,,,,,,,,,,,,Too slow :(,0,113,113,67,1,t1.png,t5.png,4,9.55E-11,21,Female,2020-10-19_12h09.54.155,torte-q,2020.1.3,Win32,60,13426,,,,,,,,,,,,,,,,,,,,,,,,,,,,,,,,,,,,,,,,,,,,
,,,,,,,,,,,,a,1.100025,Incorrect,0,114,114,6,1,t1.png,t4.png,3,0.0000131,21,Female,2020-10-19_12h09.54.155,torte-q,2020.1.3,Win32,60,13426,,,,,,,,,,,,,,,,,,,,,,,,,,,,,,,,,,,,,,,,,,,,
,,,,,,,,,,,,,,Too slow :(,0,115,115,34,1,t5.png,t4.png,1,0.9,21,Female,2020-10-19_12h09.54.155,torte-q,2020.1.3,Win32,60,13426,,,,,,,,,,,,,,,,,,,,,,,,,,,,,,,,,,,,,,,,,,,,
,,,,,,,,,,,,a,1.78304,Incorrect,0,116,116,55,1,t2.png,t4.png,2,0.059078,21,Female,2020-10-19_12h09.54.155,torte-q,2020.1.3,Win32,60,13426,,,,,,,,,,,,,,,,,,,,,,,,,,,,,,,,,,,,,,,,,,,,
,,,,,,,,,,,,a,1.056935,Correct!,0,117,117,2,1,t3.png,t2.png,1,0.90855,21,Female,2020-10-19_12h09.54.155,torte-q,2020.1.3,Win32,60,13426,,,,,,,,,,,,,,,,,,,,,,,,,,,,,,,,,,,,,,,,,,,,
,,,,,,,,,,,,a,1.1171,Correct!,0,118,118,97,1,t5.png,t5.png,0,0.97829,21,Female,2020-10-19_12h09.54.155,torte-q,2020.1.3,Win32,60,13426,,,,,,,,,,,,,,,,,,,,,,,,,,,,,,,,,,,,,,,,,,,,
,,,,,,,,,,,,a,1.30551,Correct!,0,119,119,96,1,t1.png,t1.png,0,0.97829,21,Female,2020-10-19_12h09.54.155,torte-q,2020.1.3,Win32,60,13426,,,,,,,,,,,,,,,,,,,,,,,,,,,,,,,,,,,,,,,,,,,,
,,,,,,,,,,,,a,1.100665,Correct!,,,,,,t2.png,t1.png,1,0.90025,21,Female,2020-10-19_12h09.54.155,torte-q,2020.1.3,Win32,60,13426,space,1.94046,space,18.36027,0,0,0,4,1,,,,,,,,,,,,,,,,,,,,,,,,,,,,,,,,,,,
,,,,,,,,,,,,a,1.360675,Incorrect,,,,,,t5.png,t3.png,2,0.056466,21,Female,2020-10-19_12h09.54.155,torte-q,2020.1.3,Win32,60,13426,,,,,0,1,1,56,1,,,,,,,,,,,,,,,,,,,,,,,,,,,,,,,,,,,
,,,,,,,,,,,,a,0.97786,Incorrect,,,,,,t5.png,t2.png,3,0.0000131,21,Female,2020-10-19_12h09.54.155,torte-q,2020.1.3,Win32,60,13426,,,,,0,2,2,91,1,,,,,,,,,,,,,,,,,,,,,,,,,,,,,,,,,,,
,,,,,,,,,,,,a,0.76699,Correct!,,,,,,t1.png,t1.png,0,0.97829,21,Female,2020-10-19_12h09.54.155,torte-q,2020.1.3,Win32,60,13426,,,,,0,3,3,78,1,,,,,,,,,,,,,,,,,,,,,,,,,,,,,,,,,,,
,,,,,,,,,,,,a,1.00084,Correct!,,,,,,t5.png,t4.png,1,0.9,21,Female,2020-10-19_12h09.54.155,torte-q,2020.1.3,Win32,60,13426,,,,,0,4,4,49,1,,,,,,,,,,,,,,,,,,,,,,,,,,,,,,,,,,,
,,,,,,,,,,,,a,1.29977,Correct!,,,,,,t3.png,t2.png,1,0.90855,21,Female,2020-10-19_12h09.54.155,torte-q,2020.1.3,Win32,60,13426,,,,,0,5,5,53,1,,,,,,,,,,,,,,,,,,,,,,,,,,,,,,,,,,,
,,,,,,,,,,,,a,1.111295,Incorrect,,,,,,t4.png,t2.png,2,0.059078,21,Female,2020-10-19_12h09.54.155,torte-q,2020.1.3,Win32,60,13426,,,,,0,6,6,86,1,,,,,,,,,,,,,,,,,,,,,,,,,,,,,,,,,,,
,,,,,,,,,,,,l,0.92507,Correct!,,,,,,t1.png,t2.png,1,0.90025,21,Female,2020-10-19_12h09.54.155,torte-q,2020.1.3,Win32,60,13426,,,,,0,7,7,105,1,,,,,,,,,,,,,,,,,,,,,,,,,,,,,,,,,,,
,,,,,,,,,,,,a,1.034465,Correct!,,,,,,t5.png,t5.png,0,0.97829,21,Female,2020-10-19_12h09.54.155,torte-q,2020.1.3,Win32,60,13426,,,,,0,8,8,73,1,,,,,,,,,,,,,,,,,,,,,,,,,,,,,,,,,,,
,,,,,,,,,,,,a,1.352755,Incorrect,,,,,,t4.png,t1.png,3,0.0000131,21,Female,2020-10-19_12h09.54.155,torte-q,2020.1.3,Win32,60,13426,,,,,0,9,9,48,1,,,,,,,,,,,,,,,,,,,,,,,,,,,,,,,,,,,
,,,,,,,,,,,,a,1.172575,Correct!,,,,,,t4.png,t3.png,1,0.90855,21,Female,2020-10-19_12h09.54.155,torte-q,2020.1.3,Win32,60,13426,,,,,0,10,10,35,1,,,,,,,,,,,,,,,,,,,,,,,,,,,,,,,,,,,
,,,,,,,,,,,,l,1.040495,Correct!,,,,,,t2.png,t5.png,3,0.0000131,21,Female,2020-10-19_12h09.54.155,torte-q,2020.1.3,Win32,60,13426,,,,,0,11,11,104,1,,,,,,,,,,,,,,,,,,,,,,,,,,,,,,,,,,,
,,,,,,,,,,,,l,1.18351,Correct!,,,,,,t1.png,t4.png,3,0.0000131,21,Female,2020-10-19_12h09.54.155,torte-q,2020.1.3,Win32,60,13426,,,,,0,12,12,107,1,,,,,,,,,,,,,,,,,,,,,,,,,,,,,,,,,,,
,,,,,,,,,,,,l,1.040905,Correct!,,,,,,t1.png,t5.png,4,9.55E-11,21,Female,2020-10-19_12h09.54.155,torte-q,2020.1.3,Win32,60,13426,,,,,0,13,13,12,1,,,,,,,,,,,,,,,,,,,,,,,,,,,,,,,,,,,
,,,,,,,,,,,,a,1.550455,Incorrect,,,,,,t3.png,t1.png,2,0.056466,21,Female,2020-10-19_12h09.54.155,torte-q,2020.1.3,Win32,60,13426,,,,,0,14,14,64,1,,,,,,,,,,,,,,,,,,,,,,,,,,,,,,,,,,,
,,,,,,,,,,,,a,1.07041,Incorrect,,,,,,t3.png,t1.png,2,0.056466,21,Female,2020-10-19_12h09.54.155,torte-q,2020.1.3,Win32,60,13426,,,,,0,15,15,29,1,,,,,,,,,,,,,,,,,,,,,,,,,,,,,,,,,,,
,,,,,,,,,,,,l,1.85876,Correct!,,,,,,t1.png,t3.png,2,0.056466,21,Female,2020-10-19_12h09.54.155,torte-q,2020.1.3,Win32,60,13426,,,,,0,16,16,60,1,,,,,,,,,,,,,,,,,,,,,,,,,,,,,,,,,,,
,,,,,,,,,,,,l,2.00042,Incorrect,,,,,,t3.png,t4.png,1,0.909,21,Female,2020-10-19_12h09.54.155,torte-q,2020.1.3,Win32,60,13426,,,,,0,17,17,82,1,,,,,,,,,,,,,,,,,,,,,,,,,,,,,,,,,,,
,,,,,,,,,,,,a,1.15263,Incorrect,,,,,,t4.png,t1.png,3,0.0000131,21,Female,2020-10-19_12h09.54.155,torte-q,2020.1.3,Win32,60,13426,,,,,0,18,18,93,1,,,,,,,,,,,,,,,,,,,,,,,,,,,,,,,,,,,
,,,,,,,,,,,,a,1.273095,Correct!,,,,,,t3.png,t2.png,1,0.90855,21,Female,2020-10-19_12h09.54.155,torte-q,2020.1.3,Win32,60,13426,,,,,0,19,19,97,1,,,,,,,,,,,,,,,,,,,,,,,,,,,,,,,,,,,
,,,,,,,,,,,,l,1.533395,Incorrect,,,,,,t2.png,t3.png,1,0.90855,21,Female,2020-10-19_12h09.54.155,torte-q,2020.1.3,Win32,60,13426,,,,,0,20,20,111,1,,,,,,,,,,,,,,,,,,,,,,,,,,,,,,,,,,,
,,,,,,,,,,,,l,0.967935,Incorrect,,,,,,t3.png,t4.png,1,0.909,21,Female,2020-10-19_12h09.54.155,torte-q,2020.1.3,Win32,60,13426,,,,,0,21,21,89,1,,,,,,,,,,,,,,,,,,,,,,,,,,,,,,,,,,,
,,,,,,,,,,,,a,0.967615,Incorrect,,,,,,t5.png,t1.png,4,9.55E-11,21,Female,2020-10-19_12h09.54.155,torte-q,2020.1.3,Win32,60,13426,,,,,0,22,22,71,1,,,,,,,,,,,,,,,,,,,,,,,,,,,,,,,,,,,
,,,,,,,,,,,,a,0.808045,Incorrect,,,,,,t3.png,t5.png,2,0.056466,21,Female,2020-10-19_12h09.54.155,torte-q,2020.1.3,Win32,60,13426,,,,,0,23,23,14,1,,,,,,,,,,,,,,,,,,,,,,,,,,,,,,,,,,,
,,,,,,,,,,,,a,0.87799,Correct!,,,,,,t3.png,t4.png,1,0.90855,21,Female,2020-10-19_12h09.54.155,torte-q,2020.1.3,Win32,60,13426,,,,,0,24,24,84,1,,,,,,,,,,,,,,,,,,,,,,,,,,,,,,,,,,,
,,,,,,,,,,,,l,0.99174,Incorrect,,,,,,t1.png,t2.png,1,0.90025,21,Female,2020-10-19_12h09.54.155,torte-q,2020.1.3,Win32,60,13426,,,,,0,25,25,33,1,,,,,,,,,,,,,,,,,,,,,,,,,,,,,,,,,,,
,,,,,,,,,,,,a,0.81668,Correct!,,,,,,t4.png,t3.png,1,0.90855,21,Female,2020-10-19_12h09.54.155,torte-q,2020.1.3,Win32,60,13426,,,,,0,26,26,75,1,,,,,,,,,,,,,,,,,,,,,,,,,,,,,,,,,,,
,,,,,,,,,,,,a,1.023965,Incorrect,,,,,,t5.png,t2.png,3,0.0000131,21,Female,2020-10-19_12h09.54.155,torte-q,2020.1.3,Win32,60,13426,,,,,0,27,27,119,1,,,,,,,,,,,,,,,,,,,,,,,,,,,,,,,,,,,
,,,,,,,,,,,,l,1.421525,Incorrect,,,,,,t4.png,t5.png,1,0.90025,21,Female,2020-10-19_12h09.54.155,torte-q,2020.1.3,Win32,60,13426,,,,,0,28,28,47,1,,,,,,,,,,,,,,,,,,,,,,,,,,,,,,,,,,,
,,,,,,,,,,,,a,1.388435,Correct!,,,,,,t2.png,t2.png,0,0.98115,21,Female,2020-10-19_12h09.54.155,torte-q,2020.1.3,Win32,60,13426,,,,,0,29,29,7,1,,,,,,,,,,,,,,,,,,,,,,,,,,,,,,,,,,,
,,,,,,,,,,,,a,1.355245,Incorrect,,,,,,t1.png,t4.png,3,0.0000131,21,Female,2020-10-19_12h09.54.155,torte-q,2020.1.3,Win32,60,13426,,,,,0,30,30,50,1,,,,,,,,,,,,,,,,,,,,,,,,,,,,,,,,,,,
,,,,,,,,,,,,a,0.91707,Correct!,,,,,,t1.png,t1.png,0,0.978,21,Female,2020-10-19_12h09.54.155,torte-q,2020.1.3,Win32,60,13426,,,,,0,31,31,28,1,,,,,,,,,,,,,,,,,,,,,,,,,,,,,,,,,,,
,,,,,,,,,,,,l,0.967365,Incorrect,,,,,,t4.png,t3.png,1,0.909,21,Female,2020-10-19_12h09.54.155,torte-q,2020.1.3,Win32,60,13426,,,,,0,32,32,46,1,,,,,,,,,,,,,,,,,,,,,,,,,,,,,,,,,,,
,,,,,,,,,,,,a,0.971725,Correct!,,,,,,t2.png,t2.png,0,0.981,21,Female,2020-10-19_12h09.54.155,torte-q,2020.1.3,Win32,60,13426,,,,,0,33,33,101,1,,,,,,,,,,,,,,,,,,,,,,,,,,,,,,,,,,,
,,,,,,,,,,,,a,1.30533,Incorrect,,,,,,t3.png,t1.png,2,0.0565,21,Female,2020-10-19_12h09.54.155,torte-q,2020.1.3,Win32,60,13426,,,,,0,34,34,31,1,,,,,,,,,,,,,,,,,,,,,,,,,,,,,,,,,,,
,,,,,,,,,,,,a,1.00068,Incorrect,,,,,,t5.png,t2.png,3,0.0000131,21,Female,2020-10-19_12h09.54.155,torte-q,2020.1.3,Win32,60,13426,,,,,0,35,35,98,1,,,,,,,,,,,,,,,,,,,,,,,,,,,,,,,,,,,
,,,,,,,,,,,,l,0.47258,Correct!,,,,,,t5.png,t1.png,4,9.55E-11,21,Female,2020-10-19_12h09.54.155,torte-q,2020.1.3,Win32,60,13426,,,,,0,36,36,100,1,,,,,,,,,,,,,,,,,,,,,,,,,,,,,,,,,,,
,,,,,,,,,,,,a,1.29204,Correct!,,,,,,t4.png,t4.png,0,0.98115,21,Female,2020-10-19_12h09.54.155,torte-q,2020.1.3,Win32,60,13426,,,,,0,37,37,21,1,,,,,,,,,,,,,,,,,,,,,,,,,,,,,,,,,,,
,,,,,,,,,,,,l,0.95818,Correct!,,,,,,t1.png,t3.png,2,0.056466,21,Female,2020-10-19_12h09.54.155,torte-q,2020.1.3,Win32,60,13426,,,,,0,38,38,87,1,,,,,,,,,,,,,,,,,,,,,,,,,,,,,,,,,,,
,,,,,,,,,,,,a,0.917205,Incorrect,,,,,,t4.png,t2.png,2,0.059078,21,Female,2020-10-19_12h09.54.155,torte-q,2020.1.3,Win32,60,13426,,,,,0,39,39,88,1,,,,,,,,,,,,,,,,,,,,,,,,,,,,,,,,,,,
,,,,,,,,,,,,a,0.91767,Incorrect,,,,,,t4.png,t1.png,3,0.0000131,21,Female,2020-10-19_12h09.54.155,torte-q,2020.1.3,Win32,60,13426,,,,,0,40,40,42,1,,,,,,,,,,,,,,,,,,,,,,,,,,,,,,,,,,,
,,,,,,,,,,,,l,1.007915,Incorrect,,,,,,t2.png,t1.png,1,0.90025,21,Female,2020-10-19_12h09.54.155,torte-q,2020.1.3,Win32,60,13426,,,,,0,41,41,19,1,,,,,,,,,,,,,,,,,,,,,,,,,,,,,,,,,,,
,,,,,,,,,,,,a,1.45063,Incorrect,,,,,,t3.png,t5.png,2,0.0565,21,Female,2020-10-19_12h09.54.155,torte-q,2020.1.3,Win32,60,13426,,,,,0,42,42,83,1,,,,,,,,,,,,,,,,,,,,,,,,,,,,,,,,,,,
,,,,,,,,,,,,l,1.177355,Incorrect,,,,,,t4.png,t4.png,0,0.98115,21,Female,2020-10-19_12h09.54.155,torte-q,2020.1.3,Win32,60,13426,,,,,0,43,43,90,1,,,,,,,,,,,,,,,,,,,,,,,,,,,,,,,,,,,
,,,,,,,,,,,,l,0.783425,Correct!,,,,,,t4.png,t2.png,2,0.059078,21,Female,2020-10-19_12h09.54.155,torte-q,2020.1.3,Win32,60,13426,,,,,0,44,44,110,1,,,,,,,,,,,,,,,,,,,,,,,,,,,,,,,,,,,
,,,,,,,,,,,,a,0.729025,Incorrect,,,,,,t5.png,t3.png,2,0.056466,21,Female,2020-10-19_12h09.54.155,torte-q,2020.1.3,Win32,60,13426,,,,,0,45,45,108,1,,,,,,,,,,,,,,,,,,,,,,,,,,,,,,,,,,,
,,,,,,,,,,,,a,1.054855,Correct!,,,,,,t4.png,t5.png,1,0.90025,21,Female,2020-10-19_12h09.54.155,torte-q,2020.1.3,Win32,60,13426,,,,,0,46,46,103,1,,,,,,,,,,,,,,,,,,,,,,,,,,,,,,,,,,,
,,,,,,,,,,,,l,0.667125,Correct!,,,,,,t1.png,t3.png,2,0.056466,21,Female,2020-10-19_12h09.54.155,torte-q,2020.1.3,Win32,60,13426,,,,,0,47,47,69,1,,,,,,,,,,,,,,,,,,,,,,,,,,,,,,,,,,,
,,,,,,,,,,,,a,0.866925,Incorrect,,,,,,t3.png,t5.png,2,0.056466,21,Female,2020-10-19_12h09.54.155,torte-q,2020.1.3,Win32,60,13426,,,,,0,48,48,6,1,,,,,,,,,,,,,,,,,,,,,,,,,,,,,,,,,,,
,,,,,,,,,,,,a,1.067755,Correct!,,,,,,t2.png,t2.png,0,0.98115,21,Female,2020-10-19_12h09.54.155,torte-q,2020.1.3,Win32,60,13426,,,,,0,49,49,57,1,,,,,,,,,,,,,,,,,,,,,,,,,,,,,,,,,,,
,,,,,,,,,,,,l,0.32213,Correct!,,,,,,t2.png,t4.png,2,0.059078,21,Female,2020-10-19_12h09.54.155,torte-q,2020.1.3,Win32,60,13426,,,,,0,50,50,77,1,,,,,,,,,,,,,,,,,,,,,,,,,,,,,,,,,,,
,,,,,,,,,,,,a,1.252125,Correct!,,,,,,t5.png,t4.png,1,0.90025,21,Female,2020-10-19_12h09.54.155,torte-q,2020.1.3,Win32,60,13426,,,,,0,51,51,34,1,,,,,,,,,,,,,,,,,,,,,,,,,,,,,,,,,,,
,,,,,,,,,,,,l,1.009635,Correct!,,,,,,t2.png,t5.png,3,0.0000131,21,Female,2020-10-19_12h09.54.155,torte-q,2020.1.3,Win32,60,13426,,,,,0,52,52,95,1,,,,,,,,,,,,,,,,,,,,,,,,,,,,,,,,,,,
,,,,,,,,,,,,l,0.788125,Correct!,,,,,,t1.png,t4.png,3,0.0000131,21,Female,2020-10-19_12h09.54.155,torte-q,2020.1.3,Win32,60,13426,,,,,0,53,53,17,1,,,,,,,,,,,,,,,,,,,,,,,,,,,,,,,,,,,
,,,,,,,,,,,,a,1.209435,Correct!,,,,,,t4.png,t4.png,0,0.98115,21,Female,2020-10-19_12h09.54.155,torte-q,2020.1.3,Win32,60,13426,,,,,0,54,54,79,1,,,,,,,,,,,,,,,,,,,,,,,,,,,,,,,,,,,
,,,,,,,,,,,,a,1.20985,Correct!,,,,,,t4.png,t5.png,1,0.90025,21,Female,2020-10-19_12h09.54.155,torte-q,2020.1.3,Win32,60,13426,,,,,0,55,55,113,1,,,,,,,,,,,,,,,,,,,,,,,,,,,,,,,,,,,
,,,,,,,,,,,,l,1.55942,Correct!,,,,,,t5.png,t1.png,4,9.55E-11,21,Female,2020-10-19_12h09.54.155,torte-q,2020.1.3,Win32,60,13426,,,,,0,56,56,43,1,,,,,,,,,,,,,,,,,,,,,,,,,,,,,,,,,,,
,,,,,,,,,,,,l,1.477715,Correct!,,,,,,t2.png,t3.png,1,0.90855,21,Female,2020-10-19_12h09.54.155,torte-q,2020.1.3,Win32,60,13426,,,,,0,57,57,10,1,,,,,,,,,,,,,,,,,,,,,,,,,,,,,,,,,,,
,,,,,,,,,,,,l,0.86984,Correct!,,,,,,t3.png,t2.png,1,0.90855,21,Female,2020-10-19_12h09.54.155,torte-q,2020.1.3,Win32,60,13426,,,,,0,58,58,18,1,,,,,,,,,,,,,,,,,,,,,,,,,,,,,,,,,,,
,,,,,,,,,,,,l,1.001045,Correct!,,,,,,t1.png,t3.png,2,0.056466,21,Female,2020-10-19_12h09.54.155,torte-q,2020.1.3,Win32,60,13426,,,,,0,59,59,99,1,,,,,,,,,,,,,,,,,,,,,,,,,,,,,,,,,,,
,,,,,,,,,,,,a,1.06703,Correct!,,,,,,t2.png,t2.png,0,0.98115,21,Female,2020-10-19_12h09.54.155,torte-q,2020.1.3,Win32,60,13426,,,,,0,60,60,2,1,,,,,,,,,,,,,,,,,,,,,,,,,,,,,,,,,,,
,,,,,,,,,,,,a,1.294085,Incorrect,,,,,,t1.png,t5.png,4,9.55E-11,21,Female,2020-10-19_12h09.54.155,torte-q,2020.1.3,Win32,60,13426,,,,,0,61,61,55,1,,,,,,,,,,,,,,,,,,,,,,,,,,,,,,,,,,,
,,,,,,,,,,,,l,1.21984,Incorrect,,,,,,t2.png,t1.png,1,0.90025,21,Female,2020-10-19_12h09.54.155,torte-q,2020.1.3,Win32,60,13426,,,,,0,62,62,62,1,,,,,,,,,,,,,,,,,,,,,,,,,,,,,,,,,,,
,,,,,,,,,,,,l,1.09418,Correct!,,,,,,t2.png,t4.png,2,0.059078,21,Female,2020-10-19_12h09.54.155,torte-q,2020.1.3,Win32,60,13426,,,,,0,63,63,24,1,,,,,,,,,,,,,,,,,,,,,,,,,,,,,,,,,,,
,,,,,,,,,,,,a,1.20019,Incorrect,,,,,,t4.png,t1.png,3,0.0000131,21,Female,2020-10-19_12h09.54.155,torte-q,2020.1.3,Win32,60,13426,,,,,0,64,64,61,1,,,,,,,,,,,,,,,,,,,,,,,,,,,,,,,,,,,
,,,,,,,,,,,,l,0.634075,Incorrect,,,,,,t1.png,t2.png,1,0.9,21,Female,2020-10-19_12h09.54.155,torte-q,2020.1.3,Win32,60,13426,,,,,0,65,65,1,1,,,,,,,,,,,,,,,,,,,,,,,,,,,,,,,,,,,
,,,,,,,,,,,,a,1.01732,Correct!,,,,,,t1.png,t1.png,0,0.97829,21,Female,2020-10-19_12h09.54.155,torte-q,2020.1.3,Win32,60,13426,,,,,0,66,66,67,1,,,,,,,,,,,,,,,,,,,,,,,,,,,,,,,,,,,
,,,,,,,,,,,,l,1.483565,Correct!,,,,,,t1.png,t5.png,4,9.55E-11,21,Female,2020-10-19_12h09.54.155,torte-q,2020.1.3,Win32,60,13426,,,,,0,67,67,85,1,,,,,,,,,,,,,,,,,,,,,,,,,,,,,,,,,,,
,,,,,,,,,,,,a,0.950435,Incorrect,,,,,,t2.png,t5.png,3,0.0000131,21,Female,2020-10-19_12h09.54.155,torte-q,2020.1.3,Win32,60,13426,,,,,0,68,68,66,1,,,,,,,,,,,,,,,,,,,,,,,,,,,,,,,,,,,
,,,,,,,,,,,,l,1.23358,Correct!,,,,,,t2.png,t4.png,2,0.059078,21,Female,2020-10-19_12h09.54.155,torte-q,2020.1.3,Win32,60,13426,,,,,0,69,69,11,1,,,,,,,,,,,,,,,,,,,,,,,,,,,,,,,,,,,
,,,,,,,,,,,,a,1.58595,Correct!,,,,,,t3.png,t2.png,1,0.909,21,Female,2020-10-19_12h09.54.155,torte-q,2020.1.3,Win32,60,13426,,,,,0,70,70,3,1,,,,,,,,,,,,,,,,,,,,,,,,,,,,,,,,,,,
,,,,,,,,,,,,a,1.99956,Correct!,,,,,,t1.png,t2.png,1,0.90025,21,Female,2020-10-19_12h09.54.155,torte-q,2020.1.3,Win32,60,13426,,,,,0,71,71,72,1,,,,,,,,,,,,,,,,,,,,,,,,,,,,,,,,,,,
,,,,,,,,,,,,l,0.98346,Correct!,,,,,,t3.png,t5.png,2,0.0565,21,Female,2020-10-19_12h09.54.155,torte-q,2020.1.3,Win32,60,13426,,,,,0,72,72,30,1,,,,,,,,,,,,,,,,,,,,,,,,,,,,,,,,,,,
,,,,,,,,,,,,a,0.74135,Correct!,,,,,,t1.png,t2.png,1,0.90025,21,Female,2020-10-19_12h09.54.155,torte-q,2020.1.3,Win32,60,13426,,,,,0,73,73,112,1,,,,,,,,,,,,,,,,,,,,,,,,,,,,,,,,,,,
,,,,,,,,,,,,l,0.327225,Correct!,,,,,,t4.png,t1.png,3,0.0000131,21,Female,2020-10-19_12h09.54.155,torte-q,2020.1.3,Win32,60,13426,,,,,0,74,74,13,1,,,,,,,,,,,,,,,,,,,,,,,,,,,,,,,,,,,
,,,,,,,,,,,,a,0.670825,Correct!,,,,,,t2.png,t1.png,1,0.9,21,Female,2020-10-19_12h09.54.155,torte-q,2020.1.3,Win32,60,13426,,,,,0,75,75,118,1,,,,,,,,,,,,,,,,,,,,,,,,,,,,,,,,,,,
,,,,,,,,,,,,a,1.072645,Incorrect,,,,,,t2.png,t4.png,2,0.059078,21,Female,2020-10-19_12h09.54.155,torte-q,2020.1.3,Win32,60,13426,,,,,0,76,76,37,1,,,,,,,,,,,,,,,,,,,,,,,,,,,,,,,,,,,
,,,,,,,,,,,,l,0.93822,Incorrect,,,,,,t2.png,t3.png,1,0.90855,21,Female,2020-10-19_12h09.54.155,torte-q,2020.1.3,Win32,60,13426,,,,,0,77,77,68,1,,,,,,,,,,,,,,,,,,,,,,,,,,,,,,,,,,,
,,,,,,,,,,,,l,0.744285,Correct!,,,,,,t1.png,t4.png,3,0.0000131,21,Female,2020-10-19_12h09.54.155,torte-q,2020.1.3,Win32,60,13426,,,,,0,78,78,92,1,,,,,,,,,,,,,,,,,,,,,,,,,,,,,,,,,,,
,,,,,,,,,,,,a,0.639385,Correct!,,,,,,t2.png,t2.png,0,0.98115,21,Female,2020-10-19_12h09.54.155,torte-q,2020.1.3,Win32,60,13426,,,,,0,79,79,59,1,,,,,,,,,,,,,,,,,,,,,,,,,,,,,,,,,,,
,,,,,,,,,,,,a,1.62384,Incorrect,,,,,,t1.png,t5.png,4,9.55E-11,21,Female,2020-10-19_12h09.54.155,torte-q,2020.1.3,Win32,60,13426,,,,,0,80,80,16,1,,,,,,,,,,,,,,,,,,,,,,,,,,,,,,,,,,,
,,,,,,,,,,,,l,1.50036,Incorrect,,,,,,t5.png,t5.png,0,0.97829,21,Female,2020-10-19_12h09.54.155,torte-q,2020.1.3,Win32,60,13426,,,,,0,81,81,25,1,,,,,,,,,,,,,,,,,,,,,,,,,,,,,,,,,,,
,,,,,,,,,,,,l,1.1833,Correct!,,,,,,t5.png,t1.png,4,9.55E-11,21,Female,2020-10-19_12h09.54.155,torte-q,2020.1.3,Win32,60,13426,,,,,0,82,82,102,1,,,,,,,,,,,,,,,,,,,,,,,,,,,,,,,,,,,
,,,,,,,,,,,,a,0.49434,Correct!,,,,,,t5.png,t5.png,0,0.97829,21,Female,2020-10-19_12h09.54.155,torte-q,2020.1.3,Win32,60,13426,,,,,0,83,83,94,1,,,,,,,,,,,,,,,,,,,,,,,,,,,,,,,,,,,
,,,,,,,,,,,,l,0.38673,Correct!,,,,,,t5.png,t2.png,3,0.0000131,21,Female,2020-10-19_12h09.54.155,torte-q,2020.1.3,Win32,60,13426,,,,,0,84,84,51,1,,,,,,,,,,,,,,,,,,,,,,,,,,,,,,,,,,,
,,,,,,,,,,,,l,0.950295,Incorrect,,,,,,t1.png,t1.png,0,0.97829,21,Female,2020-10-19_12h09.54.155,torte-q,2020.1.3,Win32,60,13426,,,,,0,85,85,9,1,,,,,,,,,,,,,,,,,,,,,,,,,,,,,,,,,,,
,,,,,,,,,,,,l,1.144285,Correct!,,,,,,t4.png,t2.png,2,0.059078,21,Female,2020-10-19_12h09.54.155,torte-q,2020.1.3,Win32,60,13426,,,,,0,86,86,109,1,,,,,,,,,,,,,,,,,,,,,,,,,,,,,,,,,,,
,,,,,,,,,,,,l,0.971695,Correct!,,,,,,t1.png,t3.png,2,0.056466,21,Female,2020-10-19_12h09.54.155,torte-q,2020.1.3,Win32,60,13426,,,,,0,87,87,63,1,,,,,,,,,,,,,,,,,,,,,,,,,,,,,,,,,,,
,,,,,,,,,,,,a,2.008125,Correct!,,,,,,t3.png,t4.png,1,0.90855,21,Female,2020-10-19_12h09.54.155,torte-q,2020.1.3,Win32,60,13426,,,,,0,88,88,96,1,,,,,,,,,,,,,,,,,,,,,,,,,,,,,,,,,,,
,,,,,,,,,,,,l,2.393095,Incorrect,,,,,,t4.png,t4.png,0,0.98115,21,Female,2020-10-19_12h09.54.155,torte-q,2020.1.3,Win32,60,13426,,,,,0,89,89,52,1,,,,,,,,,,,,,,,,,,,,,,,,,,,,,,,,,,,
,,,,,,,,,,,,l,1.633355,Correct!,,,,,,t3.png,t1.png,2,0.056466,21,Female,2020-10-19_12h09.54.155,torte-q,2020.1.3,Win32,60,13426,,,,,0,90,90,32,1,,,,,,,,,,,,,,,,,,,,,,,,,,,,,,,,,,,
,,,,,,,,,,,,a,1.88779,Correct!,,,,,,t4.png,t5.png,1,0.90025,21,Female,2020-10-19_12h09.54.155,torte-q,2020.1.3,Win32,60,13426,,,,,0,91,91,58,1,,,,,,,,,,,,,,,,,,,,,,,,,,,,,,,,,,,
,,,,,,,,,,,,l,0.545305,Incorrect,,,,,,t2.png,t3.png,1,0.909,21,Female,2020-10-19_12h09.54.155,torte-q,2020.1.3,Win32,60,13426,,,,,0,92,92,74,1,,,,,,,,,,,,,,,,,,,,,,,,,,,,,,,,,,,
,,,,,,,,,,,,a,2.010425,Incorrect,,,,,,t2.png,t5.png,3,0.0000131,21,Female,2020-10-19_12h09.54.155,torte-q,2020.1.3,Win32,60,13426,,,,,0,93,93,40,1,,,,,,,,,,,,,,,,,,,,,,,,,,,,,,,,,,,
,,,,,,,,,,,,l,2.166755,Incorrect,,,,,,t5.png,t3.png,2,0.056466,21,Female,2020-10-19_12h09.54.155,torte-q,2020.1.3,Win32,60,13426,,,,,0,94,94,114,1,,,,,,,,,,,,,,,,,,,,,,,,,,,,,,,,,,,
,,,,,,,,,,,,l,1.21715,Correct!,,,,,,t5.png,t5.png,0,0.978,21,Female,2020-10-19_12h09.54.155,torte-q,2020.1.3,Win32,60,13426,,,,,0,95,95,117,1,,,,,,,,,,,,,,,,,,,,,,,,,,,,,,,,,,,
,,,,,,,,,,,,l,1.43286,Correct!,,,,,,t5.png,t2.png,3,0.0000131,21,Female,2020-10-19_12h09.54.155,torte-q,2020.1.3,Win32,60,13426,,,,,0,96,96,116,1,,,,,,,,,,,,,,,,,,,,,,,,,,,,,,,,,,,
,,,,,,,,,,,,a,0.91088,Incorrect,,,,,,t3.png,t5.png,2,0.056466,21,Female,2020-10-19_12h09.54.155,torte-q,2020.1.3,Win32,60,13426,,,,,0,97,97,44,1,,,,,,,,,,,,,,,,,,,,,,,,,,,,,,,,,,,
,,,,,,,,,,,,l,0.911505,Incorrect,,,,,,t4.png,t3.png,1,0.909,21,Female,2020-10-19_12h09.54.155,torte-q,2020.1.3,Win32,60,13426,,,,,0,98,98,20,1,,,,,,,,,,,,,,,,,,,,,,,,,,,,,,,,,,,
,,,,,,,,,,,,a,1.183815,Incorrect,,,,,,t2.png,t5.png,3,0.0000131,21,Female,2020-10-19_12h09.54.155,torte-q,2020.1.3,Win32,60,13426,,,,,0,99,99,8,1,,,,,,,,,,,,,,,,,,,,,,,,,,,,,,,,,,,
,,,,,,,,,,,,a,1.37547,Correct!,,,,,,t5.png,t4.png,1,0.90025,21,Female,2020-10-19_12h09.54.155,torte-q,2020.1.3,Win32,60,13426,,,,,0,100,100,26,1,,,,,,,,,,,,,,,,,,,,,,,,,,,,,,,,,,,
,,,,,,,,,,,,l,1.00978,Incorrect,,,,,,t1.png,t1.png,0,0.978,21,Female,2020-10-19_12h09.54.155,torte-q,2020.1.3,Win32,60,13426,,,,,0,101,101,54,1,,,,,,,,,,,,,,,,,,,,,,,,,,,,,,,,,,,
,,,,,,,,,,,,l,1.582865,Incorrect,,,,,,t4.png,t4.png,0,0.98115,21,Female,2020-10-19_12h09.54.155,torte-q,2020.1.3,Win32,60,13426,,,,,0,102,102,80,1,,,,,,,,,,,,,,,,,,,,,,,,,,,,,,,,,,,
,,,,,,,,,,,,l,0.84202,Correct!,,,,,,t2.png,t4.png,2,0.0591,21,Female,2020-10-19_12h09.54.155,torte-q,2020.1.3,Win32,60,13426,,,,,0,103,103,15,1,,,,,,,,,,,,,,,,,,,,,,,,,,,,,,,,,,,
,,,,,,,,,,,,a,0.38429,Correct!,,,,,,t5.png,t4.png,1,0.9,21,Female,2020-10-19_12h09.54.155,torte-q,2020.1.3,Win32,60,13426,,,,,0,104,104,76,1,,,,,,,,,,,,,,,,,,,,,,,,,,,,,,,,,,,
,,,,,,,,,,,,l,1.0877,Incorrect,,,,,,t2.png,t1.png,1,0.90025,21,Female,2020-10-19_12h09.54.155,torte-q,2020.1.3,Win32,60,13426,,,,,0,105,105,5,1,,,,,,,,,,,,,,,,,,,,,,,,,,,,,,,,,,,
,,,,,,,,,,,,a,0.90035,Incorrect,,,,,,t4.png,t2.png,2,0.0591,21,Female,2020-10-19_12h09.54.155,torte-q,2020.1.3,Win32,60,13426,,,,,0,106,106,36,1,,,,,,,,,,,,,,,,,,,,,,,,,,,,,,,,,,,
,,,,,,,,,,,,a,1.55014,Correct!,,,,,,t5.png,t4.png,1,0.90025,21,Female,2020-10-19_12h09.54.155,torte-q,2020.1.3,Win32,60,13426,,,,,0,107,107,27,1,,,,,,,,,,,,,,,,,,,,,,,,,,,,,,,,,,,
,,,,,,,,,,,,a,2.26674,Incorrect,,,,,,t1.png,t5.png,4,9.55E-11,21,Female,2020-10-19_12h09.54.155,torte-q,2020.1.3,Win32,60,13426,,,,,0,108,108,41,1,,,,,,,,,,,,,,,,,,,,,,,,,,,,,,,,,,,
,,,,,,,,,,,,l,1.31745,Incorrect,,,,,,t4.png,t3.png,1,0.90855,21,Female,2020-10-19_12h09.54.155,torte-q,2020.1.3,Win32,60,13426,,,,,0,109,109,45,1,,,,,,,,,,,,,,,,,,,,,,,,,,,,,,,,,,,
,,,,,,,,,,,,a,0.593405,Incorrect,,,,,,t5.png,t1.png,4,9.55E-11,21,Female,2020-10-19_12h09.54.155,torte-q,2020.1.3,Win32,60,13426,,,,,0,110,110,22,1,,,,,,,,,,,,,,,,,,,,,,,,,,,,,,,,,,,
,,,,,,,,,,,,l,0.64346,Correct!,,,,,,t5.png,t3.png,2,0.056466,21,Female,2020-10-19_12h09.54.155,torte-q,2020.1.3,Win32,60,13426,,,,,0,111,111,38,1,,,,,,,,,,,,,,,,,,,,,,,,,,,,,,,,,,,
,,,,,,,,,,,,l,1.011395,Incorrect,,,,,,t2.png,t3.png,1,0.90855,21,Female,2020-10-19_12h09.54.155,torte-q,2020.1.3,Win32,60,13426,,,,,0,112,112,65,1,,,,,,,,,,,,,,,,,,,,,,,,,,,,,,,,,,,
,,,,,,,,,,,,a,1.02899,Incorrect,,,,,,t4.png,t5.png,1,0.9,21,Female,2020-10-19_12h09.54.155,torte-q,2020.1.3,Win32,60,13426,,,,,0,113,113,115,1,,,,,,,,,,,,,,,,,,,,,,,,,,,,,,,,,,,
,,,,,,,,,,,,a,0.860585,Correct!,,,,,,t5.png,t5.png,0,0.97829,21,Female,2020-10-19_12h09.54.155,torte-q,2020.1.3,Win32,60,13426,,,,,0,114,114,70,1,,,,,,,,,,,,,,,,,,,,,,,,,,,,,,,,,,,
,,,,,,,,,,,,l,1.257295,Incorrect,,,,,,t3.png,t4.png,1,0.909,21,Female,2020-10-19_12h09.54.155,torte-q,2020.1.3,Win32,60,13426,,,,,0,115,115,106,1,,,,,,,,,,,,,,,,,,,,,,,,,,,,,,,,,,,
,,,,,,,,,,,,l,0.718305,Correct!,,,,,,t1.png,t4.png,3,0.0000131,21,Female,2020-10-19_12h09.54.155,torte-q,2020.1.3,Win32,60,13426,,,,,0,116,116,81,1,,,,,,,,,,,,,,,,,,,,,,,,,,,,,,,,,,,
,,,,,,,,,,,,a,0.55171,Incorrect,,,,,,t3.png,t1.png,2,0.056466,21,Female,2020-10-19_12h09.54.155,torte-q,2020.1.3,Win32,60,13426,,,,,0,117,117,0,1,,,,,,,,,,,,,,,,,,,,,,,,,,,,,,,,,,,
,,,,,,,,,,,,l,0.73915,Incorrect,,,,,,t5.png,t3.png,2,0.0565,21,Female,2020-10-19_12h09.54.155,torte-q,2020.1.3,Win32,60,13426,,,,,0,118,118,39,1,,,,,,,,,,,,,,,,,,,,,,,,,,,,,,,,,,,
,,,,,,,,,,,,a,0.823385,Correct!,,,,,,t3.png,t2.png,1,0.909,21,Female,2020-10-19_12h09.54.155,torte-q,2020.1.3,Win32,60,13426,,,,,0,119,119,23,1,,,,,,,,,,,,,,,,,,,,,,,,,,,,,,,,,,,
,,,,,,,,,,,,l,1.43383,Correct!,,,,,,t5.png,t1.png,4,9.55E-11,21,Female,2020-10-19_12h09.54.155,torte-q,2020.1.3,Win32,60,13426,space,126.222665,,,,,,,,space,16.92152,space,5.182375,0,0,0,22,1,,,,,,,,,,,,,,,,,,,,,,,,,,
,,,,,,,,,,,,l,0.812335,Correct!,,,,,,t1.png,t2.png,1,0.90025,21,Female,2020-10-19_12h09.54.155,torte-q,2020.1.3,Win32,60,13426,,,,,,,,,,,,,,0,1,1,72,1,,,,,,,,,,,,,,,,,,,,,,,,,,
,,,,,,,,,,,,a,1.307315,Incorrect,,,,,,t5.png,t1.png,4,9.55E-11,21,Female,2020-10-19_12h09.54.155,torte-q,2020.1.3,Win32,60,13426,,,,,,,,,,,,,,0,2,2,71,1,,,,,,,,,,,,,,,,,,,,,,,,,,
,,,,,,,,,,,,l,1.649995,Correct!,,,,,,t5.png,t3.png,2,0.056466,21,Female,2020-10-19_12h09.54.155,torte-q,2020.1.3,Win32,60,13426,,,,,,,,,,,,,,0,3,3,38,1,,,,,,,,,,,,,,,,,,,,,,,,,,
,,,,,,,,,,,,l,1.24967,Incorrect,,,,,,t4.png,t5.png,1,0.9,21,Female,2020-10-19_12h09.54.155,torte-q,2020.1.3,Win32,60,13426,,,,,,,,,,,,,,0,4,4,115,1,,,,,,,,,,,,,,,,,,,,,,,,,,
,,,,,,,,,,,,a,1.023525,Incorrect,,,,,,t5.png,t2.png,3,0.0000131,21,Female,2020-10-19_12h09.54.155,torte-q,2020.1.3,Win32,60,13426,,,,,,,,,,,,,,0,5,5,91,1,,,,,,,,,,,,,,,,,,,,,,,,,,
,,,,,,,,,,,,l,1.28503,Incorrect,,,,,,t2.png,t3.png,1,0.90855,21,Female,2020-10-19_12h09.54.155,torte-q,2020.1.3,Win32,60,13426,,,,,,,,,,,,,,0,6,6,65,1,,,,,,,,,,,,,,,,,,,,,,,,,,
,,,,,,,,,,,,a,1.416785,Correct!,,,,,,t4.png,t5.png,1,0.90025,21,Female,2020-10-19_12h09.54.155,torte-q,2020.1.3,Win32,60,13426,,,,,,,,,,,,,,0,7,7,103,1,,,,,,,,,,,,,,,,,,,,,,,,,,
,,,,,,,,,,,,l,1.05042,Incorrect,,,,,,t2.png,t3.png,1,0.90855,21,Female,2020-10-19_12h09.54.155,torte-q,2020.1.3,Win32,60,13426,,,,,,,,,,,,,,0,8,8,68,1,,,,,,,,,,,,,,,,,,,,,,,,,,
,,,,,,,,,,,,l,0.987275,Incorrect,,,,,,t4.png,t3.png,1,0.90855,21,Female,2020-10-19_12h09.54.155,torte-q,2020.1.3,Win32,60,13426,,,,,,,,,,,,,,0,9,9,75,1,,,,,,,,,,,,,,,,,,,,,,,,,,
,,,,,,,,,,,,a,1.467165,Correct!,,,,,,t2.png,t2.png,0,0.98115,21,Female,2020-10-19_12h09.54.155,torte-q,2020.1.3,Win32,60,13426,,,,,,,,,,,,,,0,10,10,57,1,,,,,,,,,,,,,,,,,,,,,,,,,,
,,,,,,,,,,,,l,1.3784,Correct!,,,,,,t1.png,t3.png,2,0.056466,21,Female,2020-10-19_12h09.54.155,torte-q,2020.1.3,Win32,60,13426,,,,,,,,,,,,,,0,11,11,99,1,,,,,,,,,,,,,,,,,,,,,,,,,,
,,,,,,,,,,,,l,0.983735,Correct!,,,,,,t2.png,t5.png,3,0.0000131,21,Female,2020-10-19_12h09.54.155,torte-q,2020.1.3,Win32,60,13426,,,,,,,,,,,,,,0,12,12,95,1,,,,,,,,,,,,,,,,,,,,,,,,,,
,,,,,,,,,,,,a,1.117105,Correct!,,,,,,t4.png,t4.png,0,0.98115,21,Female,2020-10-19_12h09.54.155,torte-q,2020.1.3,Win32,60,13426,,,,,,,,,,,,,,0,13,13,79,1,,,,,,,,,,,,,,,,,,,,,,,,,,
,,,,,,,,,,,,a,1.421765,Incorrect,,,,,,t1.png,t5.png,4,9.55E-11,21,Female,2020-10-19_12h09.54.155,torte-q,2020.1.3,Win32,60,13426,,,,,,,,,,,,,,0,14,14,16,1,,,,,,,,,,,,,,,,,,,,,,,,,,
,,,,,,,,,,,,l,0.70509,Correct!,,,,,,t5.png,t3.png,2,0.056466,21,Female,2020-10-19_12h09.54.155,torte-q,2020.1.3,Win32,60,13426,,,,,,,,,,,,,,0,15,15,56,1,,,,,,,,,,,,,,,,,,,,,,,,,,
,,,,,,,,,,,,l,1.43449,Correct!,,,,,,t3.png,t4.png,1,0.909,21,Female,2020-10-19_12h09.54.155,torte-q,2020.1.3,Win32,60,13426,,,,,,,,,,,,,,0,16,16,82,1,,,,,,,,,,,,,,,,,,,,,,,,,,
,,,,,,,,,,,,l,1.1554,Correct!,,,,,,t1.png,t5.png,4,9.55E-11,21,Female,2020-10-19_12h09.54.155,torte-q,2020.1.3,Win32,60,13426,,,,,,,,,,,,,,0,17,17,12,1,,,,,,,,,,,,,,,,,,,,,,,,,,
,,,,,,,,,,,,a,1.13413,Correct!,,,,,,t4.png,t4.png,0,0.98115,21,Female,2020-10-19_12h09.54.155,torte-q,2020.1.3,Win32,60,13426,,,,,,,,,,,,,,0,18,18,80,1,,,,,,,,,,,,,,,,,,,,,,,,,,
,,,,,,,,,,,,l,1.452655,Incorrect,,,,,,t4.png,t4.png,0,0.98115,21,Female,2020-10-19_12h09.54.155,torte-q,2020.1.3,Win32,60,13426,,,,,,,,,,,,,,0,19,19,90,1,,,,,,,,,,,,,,,,,,,,,,,,,,
,,,,,,,,,,,,a,0.751305,Incorrect,,,,,,t2.png,t4.png,2,0.059078,21,Female,2020-10-19_12h09.54.155,torte-q,2020.1.3,Win32,60,13426,,,,,,,,,,,,,,0,20,20,11,1,,,,,,,,,,,,,,,,,,,,,,,,,,
,,,,,,,,,,,,a,1.157005,Correct!,,,,,,t5.png,t4.png,1,0.9,21,Female,2020-10-19_12h09.54.155,torte-q,2020.1.3,Win32,60,13426,,,,,,,,,,,,,,0,21,21,49,1,,,,,,,,,,,,,,,,,,,,,,,,,,
,,,,,,,,,,,,l,0.928505,Correct!,,,,,,t5.png,t3.png,2,0.056466,21,Female,2020-10-19_12h09.54.155,torte-q,2020.1.3,Win32,60,13426,,,,,,,,,,,,,,0,22,22,114,1,,,,,,,,,,,,,,,,,,,,,,,,,,
,,,,,,,,,,,,a,1.342565,Incorrect,,,,,,t5.png,t2.png,3,0.0000131,21,Female,2020-10-19_12h09.54.155,torte-q,2020.1.3,Win32,60,13426,,,,,,,,,,,,,,0,23,23,119,1,,,,,,,,,,,,,,,,,,,,,,,,,,
,,,,,,,,,,,,l,1.676685,Incorrect,,,,,,t2.png,t2.png,0,0.981,21,Female,2020-10-19_12h09.54.155,torte-q,2020.1.3,Win32,60,13426,,,,,,,,,,,,,,0,24,24,101,1,,,,,,,,,,,,,,,,,,,,,,,,,,
,,,,,,,,,,,,l,1.1257,Incorrect,,,,,,t3.png,t1.png,2,0.056466,21,Female,2020-10-19_12h09.54.155,torte-q,2020.1.3,Win32,60,13426,,,,,,,,,,,,,,0,25,25,0,1,,,,,,,,,,,,,,,,,,,,,,,,,,
,,,,,,,,,,,,a,0.73415,Correct!,,,,,,t3.png,t4.png,1,0.90855,21,Female,2020-10-19_12h09.54.155,torte-q,2020.1.3,Win32,60,13426,,,,,,,,,,,,,,0,26,26,96,1,,,,,,,,,,,,,,,,,,,,,,,,,,
,,,,,,,,,,,,l,0.5682,Incorrect,,,,,,t2.png,t1.png,1,0.9,21,Female,2020-10-19_12h09.54.155,torte-q,2020.1.3,Win32,60,13426,,,,,,,,,,,,,,0,27,27,118,1,,,,,,,,,,,,,,,,,,,,,,,,,,
,,,,,,,,,,,,l,0.970965,Correct!,,,,,,t5.png,t2.png,3,0.0000131,21,Female,2020-10-19_12h09.54.155,torte-q,2020.1.3,Win32,60,13426,,,,,,,,,,,,,,0,28,28,98,1,,,,,,,,,,,,,,,,,,,,,,,,,,
,,,,,,,,,,,,a,0.65898,Correct!,,,,,,t3.png,t2.png,1,0.909,21,Female,2020-10-19_12h09.54.155,torte-q,2020.1.3,Win32,60,13426,,,,,,,,,,,,,,0,29,29,3,1,,,,,,,,,,,,,,,,,,,,,,,,,,
,,,,,,,,,,,,a,0.734675,Incorrect,,,,,,t3.png,t1.png,2,0.0565,21,Female,2020-10-19_12h09.54.155,torte-q,2020.1.3,Win32,60,13426,,,,,,,,,,,,,,0,30,30,31,1,,,,,,,,,,,,,,,,,,,,,,,,,,
,,,,,,,,,,,,l,0.601315,Incorrect,,,,,,t1.png,t2.png,1,0.90025,21,Female,2020-10-19_12h09.54.155,torte-q,2020.1.3,Win32,60,13426,,,,,,,,,,,,,,0,31,31,105,1,,,,,,,,,,,,,,,,,,,,,,,,,,
,,,,,,,,,,,,l,0.535775,Incorrect,,,,,,t1.png,t1.png,0,0.978,21,Female,2020-10-19_12h09.54.155,torte-q,2020.1.3,Win32,60,13426,,,,,,,,,,,,,,0,32,32,28,1,,,,,,,,,,,,,,,,,,,,,,,,,,
,,,,,,,,,,,,a,1.33972,Incorrect,,,,,,t3.png,t5.png,2,0.056466,21,Female,2020-10-19_12h09.54.155,torte-q,2020.1.3,Win32,60,13426,,,,,,,,,,,,,,0,33,33,6,1,,,,,,,,,,,,,,,,,,,,,,,,,,
,,,,,,,,,,,,l,1.101365,Correct!,,,,,,t1.png,t4.png,3,0.0000131,21,Female,2020-10-19_12h09.54.155,torte-q,2020.1.3,Win32,60,13426,,,,,,,,,,,,,,0,34,34,107,1,,,,,,,,,,,,,,,,,,,,,,,,,,
,,,,,,,,,,,,,,Too slow :(,,,,,,t1.png,t2.png,1,0.9,21,Female,2020-10-19_12h09.54.155,torte-q,2020.1.3,Win32,60,13426,,,,,,,,,,,,,,0,35,35,1,1,,,,,,,,,,,,,,,,,,,,,,,,,,
,,,,,,,,,,,,a,1.11783,Incorrect,,,,,,t1.png,t4.png,3,0.0000131,21,Female,2020-10-19_12h09.54.155,torte-q,2020.1.3,Win32,60,13426,,,,,,,,,,,,,,0,36,36,50,1,,,,,,,,,,,,,,,,,,,,,,,,,,
,,,,,,,,,,,,l,1.217495,Incorrect,,,,,,t2.png,t1.png,1,0.90025,21,Female,2020-10-19_12h09.54.155,torte-q,2020.1.3,Win32,60,13426,,,,,,,,,,,,,,0,37,37,19,1,,,,,,,,,,,,,,,,,,,,,,,,,,
,,,,,,,,,,,,l,1.405815,Incorrect,,,,,,t2.png,t2.png,0,0.98115,21,Female,2020-10-19_12h09.54.155,torte-q,2020.1.3,Win32,60,13426,,,,,,,,,,,,,,0,38,38,59,1,,,,,,,,,,,,,,,,,,,,,,,,,,
,,,,,,,,,,,,a,0.727425,Correct!,,,,,,t2.png,t1.png,1,0.90025,21,Female,2020-10-19_12h09.54.155,torte-q,2020.1.3,Win32,60,13426,,,,,,,,,,,,,,0,39,39,62,1,,,,,,,,,,,,,,,,,,,,,,,,,,
,,,,,,,,,,,,a,0.709545,Incorrect,,,,,,t5.png,t1.png,4,9.55E-11,21,Female,2020-10-19_12h09.54.155,torte-q,2020.1.3,Win32,60,13426,,,,,,,,,,,,,,0,40,40,100,1,,,,,,,,,,,,,,,,,,,,,,,,,,
,,,,,,,,,,,,l,0.68519,Incorrect,,,,,,t2.png,t1.png,1,0.90025,21,Female,2020-10-19_12h09.54.155,torte-q,2020.1.3,Win32,60,13426,,,,,,,,,,,,,,0,41,41,4,1,,,,,,,,,,,,,,,,,,,,,,,,,,
,,,,,,,,,,,,a,0.725505,Incorrect,,,,,,t3.png,t5.png,2,0.0565,21,Female,2020-10-19_12h09.54.155,torte-q,2020.1.3,Win32,60,13426,,,,,,,,,,,,,,0,42,42,30,1,,,,,,,,,,,,,,,,,,,,,,,,,,
,,,,,,,,,,,,a,0.501865,Incorrect,,,,,,t1.png,t3.png,2,0.056466,21,Female,2020-10-19_12h09.54.155,torte-q,2020.1.3,Win32,60,13426,,,,,,,,,,,,,,0,43,43,69,1,,,,,,,,,,,,,,,,,,,,,,,,,,
,,,,,,,,,,,,l,0.318525,Incorrect,,,,,,t3.png,t4.png,1,0.909,21,Female,2020-10-19_12h09.54.155,torte-q,2020.1.3,Win32,60,13426,,,,,,,,,,,,,,0,44,44,106,1,,,,,,,,,,,,,,,,,,,,,,,,,,
,,,,,,,,,,,,a,1.28396,Correct!,,,,,,t5.png,t4.png,1,0.90025,21,Female,2020-10-19_12h09.54.155,torte-q,2020.1.3,Win32,60,13426,,,,,,,,,,,,,,0,45,45,26,1,,,,,,,,,,,,,,,,,,,,,,,,,,
,,,,,,,,,,,,a,1.051925,Correct!,,,,,,t1.png,t2.png,1,0.90025,21,Female,2020-10-19_12h09.54.155,torte-q,2020.1.3,Win32,60,13426,,,,,,,,,,,,,,0,46,46,33,1,,,,,,,,,,,,,,,,,,,,,,,,,,
,,,,,,,,,,,,a,2.110775,Incorrect,,,,,,t4.png,t2.png,2,0.059078,21,Female,2020-10-19_12h09.54.155,torte-q,2020.1.3,Win32,60,13426,,,,,,,,,,,,,,0,47,47,110,1,,,,,,,,,,,,,,,,,,,,,,,,,,
,,,,,,,,,,,,a,2.000005,Correct!,,,,,,t1.png,t2.png,1,0.90025,21,Female,2020-10-19_12h09.54.155,torte-q,2020.1.3,Win32,60,13426,,,,,,,,,,,,,,0,48,48,112,1,,,,,,,,,,,,,,,,,,,,,,,,,,
,,,,,,,,,,,,l,0.254795,Correct!,,,,,,t5.png,t4.png,1,0.90025,21,Female,2020-10-19_12h09.54.155,torte-q,2020.1.3,Win32,60,13426,,,,,,,,,,,,,,0,49,49,34,1,,,,,,,,,,,,,,,,,,,,,,,,,,
,,,,,,,,,,,,l,0.634365,Incorrect,,,,,,t4.png,t5.png,1,0.90025,21,Female,2020-10-19_12h09.54.155,torte-q,2020.1.3,Win32,60,13426,,,,,,,,,,,,,,0,50,50,47,1,,,,,,,,,,,,,,,,,,,,,,,,,,
,,,,,,,,,,,,l,0.484315,Incorrect,,,,,,t3.png,t2.png,1,0.909,21,Female,2020-10-19_12h09.54.155,torte-q,2020.1.3,Win32,60,13426,,,,,,,,,,,,,,0,51,51,23,1,,,,,,,,,,,,,,,,,,,,,,,,,,
,,,,,,,,,,,,a,0.284565,Incorrect,,,,,,t5.png,t2.png,3,0.0000131,21,Female,2020-10-19_12h09.54.155,torte-q,2020.1.3,Win32,60,13426,,,,,,,,,,,,,,0,52,52,51,1,,,,,,,,,,,,,,,,,,,,,,,,,,
,,,,,,,,,,,,a,0.728555,Incorrect,,,,,,t1.png,t4.png,3,0.0000131,21,Female,2020-10-19_12h09.54.155,torte-q,2020.1.3,Win32,60,13426,,,,,,,,,,,,,,0,53,53,81,1,,,,,,,,,,,,,,,,,,,,,,,,,,
,,,,,,,,,,,,l,0.000655,Incorrect,,,,,,t2.png,t3.png,1,0.90855,21,Female,2020-10-19_12h09.54.155,torte-q,2020.1.3,Win32,60,13426,,,,,,,,,,,,,,0,54,54,10,1,,,,,,,,,,,,,,,,,,,,,,,,,,
,,,,,,,,,,,,a,0.000885,Incorrect,,,,,,t4.png,t1.png,3,0.0000131,21,Female,2020-10-19_12h09.54.155,torte-q,2020.1.3,Win32,60,13426,,,,,,,,,,,,,,0,55,55,61,1,,,,,,,,,,,,,,,,,,,,,,,,,,
,,,,,,,,,,,,a,0.027845,Incorrect,,,,,,t5.png,t3.png,2,0.0565,21,Female,2020-10-19_12h09.54.155,torte-q,2020.1.3,Win32,60,13426,,,,,,,,,,,,,,0,56,56,39,1,,,,,,,,,,,,,,,,,,,,,,,,,,
,,,,,,,,,,,,l,0.027055,Correct!,,,,,,t3.png,t1.png,2,0.056466,21,Female,2020-10-19_12h09.54.155,torte-q,2020.1.3,Win32,60,13426,,,,,,,,,,,,,,0,57,57,64,1,,,,,,,,,,,,,,,,,,,,,,,,,,
,,,,,,,,,,,,a,0.285165,Correct!,,,,,,t1.png,t1.png,0,0.97829,21,Female,2020-10-19_12h09.54.155,torte-q,2020.1.3,Win32,60,13426,,,,,,,,,,,,,,0,58,58,78,1,,,,,,,,,,,,,,,,,,,,,,,,,,
,,,,,,,,,,,,l,0.222455,Incorrect,,,,,,t5.png,t5.png,0,0.97829,21,Female,2020-10-19_12h09.54.155,torte-q,2020.1.3,Win32,60,13426,,,,,,,,,,,,,,0,59,59,70,1,,,,,,,,,,,,,,,,,,,,,,,,,,
,,,,,,,,,,,,a,0.12093,Incorrect,,,,,,t2.png,t5.png,3,0.0000131,21,Female,2020-10-19_12h09.54.155,torte-q,2020.1.3,Win32,60,13426,,,,,,,,,,,,,,0,60,60,104,1,,,,,,,,,,,,,,,,,,,,,,,,,,
,,,,,,,,,,,,l,0.206615,Incorrect,,,,,,t5.png,t4.png,1,0.9,21,Female,2020-10-19_12h09.54.155,torte-q,2020.1.3,Win32,60,13426,,,,,,,,,,,,,,0,61,61,76,1,,,,,,,,,,,,,,,,,,,,,,,,,,
,,,,,,,,,,,,a,0.23862,Incorrect,,,,,,t1.png,t5.png,4,9.55E-11,21,Female,2020-10-19_12h09.54.155,torte-q,2020.1.3,Win32,60,13426,,,,,,,,,,,,,,0,62,62,85,1,,,,,,,,,,,,,,,,,,,,,,,,,,
,,,,,,,,,,,,a,0.06969,Incorrect,,,,,,t3.png,t1.png,2,0.056466,21,Female,2020-10-19_12h09.54.155,torte-q,2020.1.3,Win32,60,13426,,,,,,,,,,,,,,0,63,63,32,1,,,,,,,,,,,,,,,,,,,,,,,,,,
,,,,,,,,,,,,a,0.234485,Incorrect,,,,,,t1.png,t4.png,3,0.0000131,21,Female,2020-10-19_12h09.54.155,torte-q,2020.1.3,Win32,60,13426,,,,,,,,,,,,,,0,64,64,17,1,,,,,,,,,,,,,,,,,,,,,,,,,,
,,,,,,,,,,,,a,0.223675,Correct!,,,,,,t1.png,t1.png,0,0.97829,21,Female,2020-10-19_12h09.54.155,torte-q,2020.1.3,Win32,60,13426,,,,,,,,,,,,,,0,65,65,67,1,,,,,,,,,,,,,,,,,,,,,,,,,,
,,,,,,,,,,,,a,0.120175,Correct!,,,,,,t4.png,t4.png,0,0.98115,21,Female,2020-10-19_12h09.54.155,torte-q,2020.1.3,Win32,60,13426,,,,,,,,,,,,,,0,66,66,21,1,,,,,,,,,,,,,,,,,,,,,,,,,,
,,,,,,,,,,,,l,0.0368,Correct!,,,,,,t4.png,t2.png,2,0.059078,21,Female,2020-10-19_12h09.54.155,torte-q,2020.1.3,Win32,60,13426,,,,,,,,,,,,,,0,67,67,86,1,,,,,,,,,,,,,,,,,,,,,,,,,,
,,,,,,,,,,,,l,0.041275,Correct!,,,,,,t2.png,t5.png,3,0.0000131,21,Female,2020-10-19_12h09.54.155,torte-q,2020.1.3,Win32,60,13426,,,,,,,,,,,,,,0,68,68,66,1,,,,,,,,,,,,,,,,,,,,,,,,,,
,,,,,,,,,,,,a,0.05837,Correct!,,,,,,t1.png,t1.png,0,0.97829,21,Female,2020-10-19_12h09.54.155,torte-q,2020.1.3,Win32,60,13426,,,,,,,,,,,,,,0,69,69,9,1,,,,,,,,,,,,,,,,,,,,,,,,,,
,,,,,,,,,,,,a,0.35421,Incorrect,,,,,,t1.png,t3.png,2,0.056466,21,Female,2020-10-19_12h09.54.155,torte-q,2020.1.3,Win32,60,13426,,,,,,,,,,,,,,0,70,70,87,1,,,,,,,,,,,,,,,,,,,,,,,,,,
,,,,,,,,,,,,a,0.667455,Incorrect,,,,,,t4.png,t1.png,3,0.0000131,21,Female,2020-10-19_12h09.54.155,torte-q,2020.1.3,Win32,60,13426,,,,,,,,,,,,,,0,71,71,93,1,,,,,,,,,,,,,,,,,,,,,,,,,,
,,,,,,,,,,,,l,0.2854,Correct!,,,,,,t1.png,t5.png,4,9.55E-11,21,Female,2020-10-19_12h09.54.155,torte-q,2020.1.3,Win32,60,13426,,,,,,,,,,,,,,0,72,72,41,1,,,,,,,,,,,,,,,,,,,,,,,,,,
,,,,,,,,,,,,l,0.460095,Correct!,,,,,,t5.png,t2.png,3,0.0000131,21,Female,2020-10-19_12h09.54.155,torte-q,2020.1.3,Win32,60,13426,,,,,,,,,,,,,,0,73,73,116,1,,,,,,,,,,,,,,,,,,,,,,,,,,
,,,,,,,,,,,,a,0.635035,Incorrect,,,,,,t2.png,t5.png,3,0.0000131,21,Female,2020-10-19_12h09.54.155,torte-q,2020.1.3,Win32,60,13426,,,,,,,,,,,,,,0,74,74,40,1,,,,,,,,,,,,,,,,,,,,,,,,,,
,,,,,,,,,,,,a,2.33442,Correct!,,,,,,t3.png,t2.png,1,0.90855,21,Female,2020-10-19_12h09.54.155,torte-q,2020.1.3,Win32,60,13426,,,,,,,,,,,,,,0,75,75,97,1,,,,,,,,,,,,,,,,,,,,,,,,,,
,,,,,,,,,,,,l,0.62534,Correct!,,,,,,t4.png,t1.png,3,0.0000131,21,Female,2020-10-19_12h09.54.155,torte-q,2020.1.3,Win32,60,13426,,,,,,,,,,,,,,0,76,76,48,1,,,,,,,,,,,,,,,,,,,,,,,,,,
,,,,,,,,,,,,a,1.46043,Correct!,,,,,,t3.png,t2.png,1,0.90855,21,Female,2020-10-19_12h09.54.155,torte-q,2020.1.3,Win32,60,13426,,,,,,,,,,,,,,0,77,77,53,1,,,,,,,,,,,,,,,,,,,,,,,,,,
,,,,,,,,,,,,a,0.38422,Incorrect,,,,,,t4.png,t5.png,1,0.90025,21,Female,2020-10-19_12h09.54.155,torte-q,2020.1.3,Win32,60,13426,,,,,,,,,,,,,,0,78,78,58,1,,,,,,,,,,,,,,,,,,,,,,,,,,
,,,,,,,,,,,,l,0.327565,Correct!,,,,,,t3.png,t5.png,2,0.0565,21,Female,2020-10-19_12h09.54.155,torte-q,2020.1.3,Win32,60,13426,,,,,,,,,,,,,,0,79,79,83,1,,,,,,,,,,,,,,,,,,,,,,,,,,
,,,,,,,,,,,,a,0.66848,Correct!,,,,,,t4.png,t3.png,1,0.90855,21,Female,2020-10-19_12h09.54.155,torte-q,2020.1.3,Win32,60,13426,,,,,,,,,,,,,,0,80,80,45,1,,,,,,,,,,,,,,,,,,,,,,,,,,
,,,,,,,,,,,,l,0.489655,Incorrect,,,,,,t3.png,t4.png,1,0.90855,21,Female,2020-10-19_12h09.54.155,torte-q,2020.1.3,Win32,60,13426,,,,,,,,,,,,,,0,81,81,84,1,,,,,,,,,,,,,,,,,,,,,,,,,,
,,,,,,,,,,,,a,0.617495,Incorrect,,,,,,t2.png,t4.png,2,0.059078,21,Female,2020-10-19_12h09.54.155,torte-q,2020.1.3,Win32,60,13426,,,,,,,,,,,,,,0,82,82,37,1,,,,,,,,,,,,,,,,,,,,,,,,,,
,,,,,,,,,,,,l,0.734615,Incorrect,,,,,,t3.png,t2.png,1,0.90855,21,Female,2020-10-19_12h09.54.155,torte-q,2020.1.3,Win32,60,13426,,,,,,,,,,,,,,0,83,83,18,1,,,,,,,,,,,,,,,,,,,,,,,,,,
,,,,,,,,,,,,a,1.039555,Correct!,,,,,,t5.png,t5.png,0,0.97829,21,Female,2020-10-19_12h09.54.155,torte-q,2020.1.3,Win32,60,13426,,,,,,,,,,,,,,0,84,84,94,1,,,,,,,,,,,,,,,,,,,,,,,,,,
,,,,,,,,,,,,l,0.43926,Incorrect,,,,,,t2.png,t2.png,0,0.98115,21,Female,2020-10-19_12h09.54.155,torte-q,2020.1.3,Win32,60,13426,,,,,,,,,,,,,,0,85,85,7,1,,,,,,,,,,,,,,,,,,,,,,,,,,
,,,,,,,,,,,,a,0.273405,Incorrect,,,,,,t1.png,t4.png,3,0.0000131,21,Female,2020-10-19_12h09.54.155,torte-q,2020.1.3,Win32,60,13426,,,,,,,,,,,,,,0,86,86,92,1,,,,,,,,,,,,,,,,,,,,,,,,,,
,,,,,,,,,,,,l,0.22064,Incorrect,,,,,,t5.png,t5.png,0,0.978,21,Female,2020-10-19_12h09.54.155,torte-q,2020.1.3,Win32,60,13426,,,,,,,,,,,,,,0,87,87,117,1,,,,,,,,,,,,,,,,,,,,,,,,,,
,,,,,,,,,,,,a,0.284615,Incorrect,,,,,,t4.png,t2.png,2,0.059078,21,Female,2020-10-19_12h09.54.155,torte-q,2020.1.3,Win32,60,13426,,,,,,,,,,,,,,0,88,88,88,1,,,,,,,,,,,,,,,,,,,,,,,,,,
,,,,,,,,,,,,l,0.172835,Incorrect,,,,,,t1.png,t1.png,0,0.978,21,Female,2020-10-19_12h09.54.155,torte-q,2020.1.3,Win32,60,13426,,,,,,,,,,,,,,0,89,89,54,1,,,,,,,,,,,,,,,,,,,,,,,,,,
,,,,,,,,,,,,a,0.191315,Incorrect,,,,,,t4.png,t5.png,1,0.90025,21,Female,2020-10-19_12h09.54.155,torte-q,2020.1.3,Win32,60,13426,,,,,,,,,,,,,,0,90,90,113,1,,,,,,,,,,,,,,,,,,,,,,,,,,
,,,,,,,,,,,,a,0.30581,Incorrect,,,,,,t2.png,t4.png,2,0.0591,21,Female,2020-10-19_12h09.54.155,torte-q,2020.1.3,Win32,60,13426,,,,,,,,,,,,,,0,91,91,15,1,,,,,,,,,,,,,,,,,,,,,,,,,,
,,,,,,,,,,,,l,0.86793,Correct!,,,,,,t1.png,t3.png,2,0.056466,21,Female,2020-10-19_12h09.54.155,torte-q,2020.1.3,Win32,60,13426,,,,,,,,,,,,,,0,92,92,60,1,,,,,,,,,,,,,,,,,,,,,,,,,,
,,,,,,,,,,,,a,0.64115,Correct!,,,,,,t3.png,t4.png,1,0.909,21,Female,2020-10-19_12h09.54.155,torte-q,2020.1.3,Win32,60,13426,,,,,,,,,,,,,,0,93,93,89,1,,,,,,,,,,,,,,,,,,,,,,,,,,
,,,,,,,,,,,,a,0.876605,Incorrect,,,,,,t5.png,t1.png,4,9.55E-11,21,Female,2020-10-19_12h09.54.155,torte-q,2020.1.3,Win32,60,13426,,,,,,,,,,,,,,0,94,94,102,1,,,,,,,,,,,,,,,,,,,,,,,,,,
,,,,,,,,,,,,l,0.998635,Incorrect,,,,,,t4.png,t4.png,0,0.98115,21,Female,2020-10-19_12h09.54.155,torte-q,2020.1.3,Win32,60,13426,,,,,,,,,,,,,,0,95,95,52,1,,,,,,,,,,,,,,,,,,,,,,,,,,
,,,,,,,,,,,,a,0.92076,Correct!,,,,,,t2.png,t2.png,0,0.98115,21,Female,2020-10-19_12h09.54.155,torte-q,2020.1.3,Win32,60,13426,,,,,,,,,,,,,,0,96,96,2,1,,,,,,,,,,,,,,,,,,,,,,,,,,
,,,,,,,,,,,,a,0.68862,Correct!,,,,,,t4.png,t3.png,1,0.909,21,Female,2020-10-19_12h09.54.155,torte-q,2020.1.3,Win32,60,13426,,,,,,,,,,,,,,0,97,97,20,1,,,,,,,,,,,,,,,,,,,,,,,,,,
,,,,,,,,,,,,l,0.33438,Correct!,,,,,,t5.png,t4.png,1,0.90025,21,Female,2020-10-19_12h09.54.155,torte-q,2020.1.3,Win32,60,13426,,,,,,,,,,,,,,0,98,98,27,1,,,,,,,,,,,,,,,,,,,,,,,,,,
,,,,,,,,,,,,l,0.32031,Incorrect,,,,,,t2.png,t1.png,1,0.90025,21,Female,2020-10-19_12h09.54.155,torte-q,2020.1.3,Win32,60,13426,,,,,,,,,,,,,,0,99,99,5,1,,,,,,,,,,,,,,,,,,,,,,,,,,
,,,,,,,,,,,,l,0.337605,Incorrect,,,,,,t2.png,t3.png,1,0.909,21,Female,2020-10-19_12h09.54.155,torte-q,2020.1.3,Win32,60,13426,,,,,,,,,,,,,,0,100,100,74,1,,,,,,,,,,,,,,,,,,,,,,,,,,
,,,,,,,,,,,,l,0.734115,Correct!,,,,,,t4.png,t1.png,3,0.0000131,21,Female,2020-10-19_12h09.54.155,torte-q,2020.1.3,Win32,60,13426,,,,,,,,,,,,,,0,101,101,42,1,,,,,,,,,,,,,,,,,,,,,,,,,,
,,,,,,,,,,,,l,0.508295,Incorrect,,,,,,t5.png,t5.png,0,0.97829,21,Female,2020-10-19_12h09.54.155,torte-q,2020.1.3,Win32,60,13426,,,,,,,,,,,,,,0,102,102,25,1,,,,,,,,,,,,,,,,,,,,,,,,,,
,,,,,,,,,,,,a,2.11708,Incorrect,,,,,,t3.png,t5.png,2,0.056466,21,Female,2020-10-19_12h09.54.155,torte-q,2020.1.3,Win32,60,13426,,,,,,,,,,,,,,0,103,103,14,1,,,,,,,,,,,,,,,,,,,,,,,,,,
,,,,,,,,,,,,a,0.0009,Incorrect,,,,,,t1.png,t5.png,4,9.55E-11,21,Female,2020-10-19_12h09.54.155,torte-q,2020.1.3,Win32,60,13426,,,,,,,,,,,,,,0,104,104,55,1,,,,,,,,,,,,,,,,,,,,,,,,,,
,,,,,,,,,,,,l,0.950765,Incorrect,,,,,,t4.png,t3.png,1,0.90855,21,Female,2020-10-19_12h09.54.155,torte-q,2020.1.3,Win32,60,13426,,,,,,,,,,,,,,0,105,105,35,1,,,,,,,,,,,,,,,,,,,,,,,,,,
,,,,,,,,,,,,a,0.802705,Correct!,,,,,,t4.png,t3.png,1,0.909,21,Female,2020-10-19_12h09.54.155,torte-q,2020.1.3,Win32,60,13426,,,,,,,,,,,,,,0,106,106,46,1,,,,,,,,,,,,,,,,,,,,,,,,,,
,,,,,,,,,,,,l,0.784435,Correct!,,,,,,t5.png,t1.png,4,9.55E-11,21,Female,2020-10-19_12h09.54.155,torte-q,2020.1.3,Win32,60,13426,,,,,,,,,,,,,,0,107,107,43,1,,,,,,,,,,,,,,,,,,,,,,,,,,
,,,,,,,,,,,,a,0.305755,Incorrect,,,,,,t2.png,t4.png,2,0.059078,21,Female,2020-10-19_12h09.54.155,torte-q,2020.1.3,Win32,60,13426,,,,,,,,,,,,,,0,108,108,24,1,,,,,,,,,,,,,,,,,,,,,,,,,,
,,,,,,,,,,,,l,0.521465,Incorrect,,,,,,t2.png,t3.png,1,0.90855,21,Female,2020-10-19_12h09.54.155,torte-q,2020.1.3,Win32,60,13426,,,,,,,,,,,,,,0,109,109,111,1,,,,,,,,,,,,,,,,,,,,,,,,,,
,,,,,,,,,,,,l,0.255935,Correct!,,,,,,t3.png,t5.png,2,0.056466,21,Female,2020-10-19_12h09.54.155,torte-q,2020.1.3,Win32,60,13426,,,,,,,,,,,,,,0,110,110,44,1,,,,,,,,,,,,,,,,,,,,,,,,,,
,,,,,,,,,,,,l,0.257425,Correct!,,,,,,t4.png,t2.png,2,0.0591,21,Female,2020-10-19_12h09.54.155,torte-q,2020.1.3,Win32,60,13426,,,,,,,,,,,,,,0,111,111,36,1,,,,,,,,,,,,,,,,,,,,,,,,,,
,,,,,,,,,,,,a,0.084965,Incorrect,,,,,,t4.png,t1.png,3,0.0000131,21,Female,2020-10-19_12h09.54.155,torte-q,2020.1.3,Win32,60,13426,,,,,,,,,,,,,,0,112,112,13,1,,,,,,,,,,,,,,,,,,,,,,,,,,
,,,,,,,,,,,,l,0.10165,Incorrect,,,,,,t5.png,t5.png,0,0.97829,21,Female,2020-10-19_12h09.54.155,torte-q,2020.1.3,Win32,60,13426,,,,,,,,,,,,,,0,113,113,73,1,,,,,,,,,,,,,,,,,,,,,,,,,,
,,,,,,,,,,,,l,0.834165,Correct!,,,,,,t2.png,t4.png,2,0.059078,21,Female,2020-10-19_12h09.54.155,torte-q,2020.1.3,Win32,60,13426,,,,,,,,,,,,,,0,114,114,77,1,,,,,,,,,,,,,,,,,,,,,,,,,,
,,,,,,,,,,,,a,0.666165,Incorrect,,,,,,t5.png,t3.png,2,0.056466,21,Female,2020-10-19_12h09.54.155,torte-q,2020.1.3,Win32,60,13426,,,,,,,,,,,,,,0,115,115,108,1,,,,,,,,,,,,,,,,,,,,,,,,,,
,,,,,,,,,,,,a,0.88996,Incorrect,,,,,,t2.png,t5.png,3,0.0000131,21,Female,2020-10-19_12h09.54.155,torte-q,2020.1.3,Win32,60,13426,,,,,,,,,,,,,,0,116,116,8,1,,,,,,,,,,,,,,,,,,,,,,,,,,
,,,,,,,,,,,,a,0.622355,Incorrect,,,,,,t3.png,t1.png,2,0.056466,21,Female,2020-10-19_12h09.54.155,torte-q,2020.1.3,Win32,60,13426,,,,,,,,,,,,,,0,117,117,29,1,,,,,,,,,,,,,,,,,,,,,,,,,,
,,,,,,,,,,,,a,0.58837,Incorrect,,,,,,t1.png,t3.png,2,0.056466,21,Female,2020-10-19_12h09.54.155,torte-q,2020.1.3,Win32,60,13426,,,,,,,,,,,,,,0,118,118,63,1,,,,,,,,,,,,,,,,,,,,,,,,,,
,,,,,,,,,,,,l,0.638775,Incorrect,,,,,,t4.png,t2.png,2,0.059078,21,Female,2020-10-19_12h09.54.155,torte-q,2020.1.3,Win32,60,13426,,,,,,,,,,,,,,0,119,119,109,1,,,,,,,,,,,,,,,,,,,,,,,,,,
,,,,,,,,,,,,,,,,,,,,,,,,21,Female,2020-10-19_12h09.54.155,torte-q,2020.1.3,Win32,60,13426,space,1.47072,,,,,,,,,,,,,,,,,3.01,9.00391,-36.666608,179.9999946,1,0,0,s1,-25.9999817,21.3333029,1,0,0,t2,126.6666895,-100.0000137,1,0,0,proceed,space,1.383965,space,0.6513,space,0.284485
