key_resp_8.keys,key_resp_8.rt,key_resp_9.keys,key_resp_9.rt,key_resp_10.keys,key_resp_10.rt,key_resp_11.keys,key_resp_11.rt,key_resp_2.keys,key_resp_2.rt,key_resp_3.keys,key_resp_3.rt,key_resp.keys,key_resp.rt,Feedback,train.thisRepN,train.thisTrialN,train.thisN,train.thisIndex,train.ran,torta_sx,torta_dx,difference,probability,age,gender,date,expName,psychopyVersion,OS,frameRate,participant,key_resp_15.keys,key_resp_15.rt,key_resp_6.keys,key_resp_6.rt,test1.thisRepN,test1.thisTrialN,test1.thisN,test1.thisIndex,test1.ran,key_resp_16.keys,key_resp_16.rt,key_resp_7.keys,key_resp_7.rt,test2.thisRepN,test2.thisTrialN,test2.thisN,test2.thisIndex,test2.ran,rating.response,rating.rt,mouse.x,mouse.y,mouse.leftButton,mouse.midButton,mouse.rightButton,mouse.clicked_name,mouse_2.x,mouse_2.y,mouse_2.leftButton,mouse_2.midButton,mouse_2.rightButton,mouse_2.clicked_name,mouse_3.x,mouse_3.y,mouse_3.leftButton,mouse_3.midButton,mouse_3.rightButton,mouse_3.clicked_name,key_resp_12.keys,key_resp_12.rt,key_resp_13.keys,key_resp_13.rt,key_resp_14.keys,key_resp_14.rt
space,20.431405,space,4.114605,space,0.7472,space,3.068595,space,14.32517,space,23.47367,a,2.01488,Correct!,0,0,0,62,1,t5.png,t5.png,0,0.978,18,Female,2020-11-09_19h17.29.039,torte-q,2020.1.3,Win32,60,13894,,,,,,,,,,,,,,,,,,,,,,,,,,,,,,,,,,,,,,,,,,,,
,,,,,,,,,,,,a,1.846115,Correct!,0,1,1,20,1,t2.png,t3.png,1,0.90855,18,Female,2020-11-09_19h17.29.039,torte-q,2020.1.3,Win32,60,13894,,,,,,,,,,,,,,,,,,,,,,,,,,,,,,,,,,,,,,,,,,,,
,,,,,,,,,,,,l,1.118125,Correct!,0,2,2,61,1,t1.png,t4.png,3,0.0000131,18,Female,2020-11-09_19h17.29.039,torte-q,2020.1.3,Win32,60,13894,,,,,,,,,,,,,,,,,,,,,,,,,,,,,,,,,,,,,,,,,,,,
,,,,,,,,,,,,a,0.834165,Correct!,0,3,3,106,1,t2.png,t3.png,1,0.90855,18,Female,2020-11-09_19h17.29.039,torte-q,2020.1.3,Win32,60,13894,,,,,,,,,,,,,,,,,,,,,,,,,,,,,,,,,,,,,,,,,,,,
,,,,,,,,,,,,a,0.955325,Correct!,0,4,4,32,1,t4.png,t5.png,1,0.90025,18,Female,2020-11-09_19h17.29.039,torte-q,2020.1.3,Win32,60,13894,,,,,,,,,,,,,,,,,,,,,,,,,,,,,,,,,,,,,,,,,,,,
,,,,,,,,,,,,l,1.247405,Correct!,0,5,5,105,1,t3.png,t2.png,1,0.90855,18,Female,2020-11-09_19h17.29.039,torte-q,2020.1.3,Win32,60,13894,,,,,,,,,,,,,,,,,,,,,,,,,,,,,,,,,,,,,,,,,,,,
,,,,,,,,,,,,a,0.63694,Correct!,0,6,6,36,1,t3.png,t1.png,2,0.0565,18,Female,2020-11-09_19h17.29.039,torte-q,2020.1.3,Win32,60,13894,,,,,,,,,,,,,,,,,,,,,,,,,,,,,,,,,,,,,,,,,,,,
,,,,,,,,,,,,l,0.980655,Incorrect,0,7,7,101,1,t4.png,t5.png,1,0.90025,18,Female,2020-11-09_19h17.29.039,torte-q,2020.1.3,Win32,60,13894,,,,,,,,,,,,,,,,,,,,,,,,,,,,,,,,,,,,,,,,,,,,
,,,,,,,,,,,,l,0.774305,Correct!,0,8,8,119,1,t1.png,t5.png,4,9.55E-11,18,Female,2020-11-09_19h17.29.039,torte-q,2020.1.3,Win32,60,13894,,,,,,,,,,,,,,,,,,,,,,,,,,,,,,,,,,,,,,,,,,,,
,,,,,,,,,,,,l,0.896815,Correct!,0,9,9,87,1,t5.png,t1.png,4,9.55E-11,18,Female,2020-11-09_19h17.29.039,torte-q,2020.1.3,Win32,60,13894,,,,,,,,,,,,,,,,,,,,,,,,,,,,,,,,,,,,,,,,,,,,
,,,,,,,,,,,,l,1.00164,Incorrect,0,10,10,85,1,t3.png,t2.png,1,0.90855,18,Female,2020-11-09_19h17.29.039,torte-q,2020.1.3,Win32,60,13894,,,,,,,,,,,,,,,,,,,,,,,,,,,,,,,,,,,,,,,,,,,,
,,,,,,,,,,,,a,0.8581,Correct!,0,11,11,116,1,t5.png,t4.png,1,0.90025,18,Female,2020-11-09_19h17.29.039,torte-q,2020.1.3,Win32,60,13894,,,,,,,,,,,,,,,,,,,,,,,,,,,,,,,,,,,,,,,,,,,,
,,,,,,,,,,,,l,0.68197,Correct!,0,12,12,31,1,t1.png,t5.png,4,9.55E-11,18,Female,2020-11-09_19h17.29.039,torte-q,2020.1.3,Win32,60,13894,,,,,,,,,,,,,,,,,,,,,,,,,,,,,,,,,,,,,,,,,,,,
,,,,,,,,,,,,l,0.631915,Correct!,0,13,13,117,1,t1.png,t5.png,4,9.55E-11,18,Female,2020-11-09_19h17.29.039,torte-q,2020.1.3,Win32,60,13894,,,,,,,,,,,,,,,,,,,,,,,,,,,,,,,,,,,,,,,,,,,,
,,,,,,,,,,,,a,0.790665,Correct!,0,14,14,71,1,t5.png,t5.png,0,0.97829,18,Female,2020-11-09_19h17.29.039,torte-q,2020.1.3,Win32,60,13894,,,,,,,,,,,,,,,,,,,,,,,,,,,,,,,,,,,,,,,,,,,,
,,,,,,,,,,,,a,0.916725,Incorrect,0,15,15,103,1,t3.png,t1.png,2,0.056466,18,Female,2020-11-09_19h17.29.039,torte-q,2020.1.3,Win32,60,13894,,,,,,,,,,,,,,,,,,,,,,,,,,,,,,,,,,,,,,,,,,,,
,,,,,,,,,,,,l,1.345575,Correct!,0,16,16,19,1,t4.png,t2.png,2,0.059078,18,Female,2020-11-09_19h17.29.039,torte-q,2020.1.3,Win32,60,13894,,,,,,,,,,,,,,,,,,,,,,,,,,,,,,,,,,,,,,,,,,,,
,,,,,,,,,,,,l,0.617755,Correct!,0,17,17,94,1,t5.png,t1.png,4,9.55E-11,18,Female,2020-11-09_19h17.29.039,torte-q,2020.1.3,Win32,60,13894,,,,,,,,,,,,,,,,,,,,,,,,,,,,,,,,,,,,,,,,,,,,
,,,,,,,,,,,,a,0.955575,Incorrect,0,18,18,6,1,t1.png,t4.png,3,0.0000131,18,Female,2020-11-09_19h17.29.039,torte-q,2020.1.3,Win32,60,13894,,,,,,,,,,,,,,,,,,,,,,,,,,,,,,,,,,,,,,,,,,,,
,,,,,,,,,,,,l,0.86633,Correct!,0,19,19,56,1,t5.png,t1.png,4,9.55E-11,18,Female,2020-11-09_19h17.29.039,torte-q,2020.1.3,Win32,60,13894,,,,,,,,,,,,,,,,,,,,,,,,,,,,,,,,,,,,,,,,,,,,
,,,,,,,,,,,,l,1.869575,Incorrect,0,20,20,64,1,t1.png,t1.png,0,0.978,18,Female,2020-11-09_19h17.29.039,torte-q,2020.1.3,Win32,60,13894,,,,,,,,,,,,,,,,,,,,,,,,,,,,,,,,,,,,,,,,,,,,
,,,,,,,,,,,,a,0.998395,Incorrect,0,21,21,51,1,t3.png,t1.png,2,0.056466,18,Female,2020-11-09_19h17.29.039,torte-q,2020.1.3,Win32,60,13894,,,,,,,,,,,,,,,,,,,,,,,,,,,,,,,,,,,,,,,,,,,,
,,,,,,,,,,,,a,0.814485,Correct!,0,22,22,70,1,t5.png,t5.png,0,0.978,18,Female,2020-11-09_19h17.29.039,torte-q,2020.1.3,Win32,60,13894,,,,,,,,,,,,,,,,,,,,,,,,,,,,,,,,,,,,,,,,,,,,
,,,,,,,,,,,,a,1.130285,Incorrect,0,23,23,17,1,t1.png,t4.png,3,0.0000131,18,Female,2020-11-09_19h17.29.039,torte-q,2020.1.3,Win32,60,13894,,,,,,,,,,,,,,,,,,,,,,,,,,,,,,,,,,,,,,,,,,,,
,,,,,,,,,,,,l,1.768045,Correct!,0,24,24,91,1,t1.png,t4.png,3,0.0000131,18,Female,2020-11-09_19h17.29.039,torte-q,2020.1.3,Win32,60,13894,,,,,,,,,,,,,,,,,,,,,,,,,,,,,,,,,,,,,,,,,,,,
,,,,,,,,,,,,l,1.364805,Incorrect,0,25,25,72,1,t4.png,t2.png,2,0.059078,18,Female,2020-11-09_19h17.29.039,torte-q,2020.1.3,Win32,60,13894,,,,,,,,,,,,,,,,,,,,,,,,,,,,,,,,,,,,,,,,,,,,
,,,,,,,,,,,,a,1.164855,Incorrect,0,26,26,89,1,t1.png,t4.png,3,0.0000131,18,Female,2020-11-09_19h17.29.039,torte-q,2020.1.3,Win32,60,13894,,,,,,,,,,,,,,,,,,,,,,,,,,,,,,,,,,,,,,,,,,,,
,,,,,,,,,,,,l,1.297365,Incorrect,0,27,27,44,1,t2.png,t3.png,1,0.909,18,Female,2020-11-09_19h17.29.039,torte-q,2020.1.3,Win32,60,13894,,,,,,,,,,,,,,,,,,,,,,,,,,,,,,,,,,,,,,,,,,,,
,,,,,,,,,,,,a,1.69746,Incorrect,0,28,28,100,1,t4.png,t5.png,1,0.90025,18,Female,2020-11-09_19h17.29.039,torte-q,2020.1.3,Win32,60,13894,,,,,,,,,,,,,,,,,,,,,,,,,,,,,,,,,,,,,,,,,,,,
,,,,,,,,,,,,l,2.11289,Correct!,0,29,29,46,1,t4.png,t2.png,2,0.059078,18,Female,2020-11-09_19h17.29.039,torte-q,2020.1.3,Win32,60,13894,,,,,,,,,,,,,,,,,,,,,,,,,,,,,,,,,,,,,,,,,,,,
,,,,,,,,,,,,a,0.8662,Incorrect,0,30,30,30,1,t3.png,t1.png,2,0.056466,18,Female,2020-11-09_19h17.29.039,torte-q,2020.1.3,Win32,60,13894,,,,,,,,,,,,,,,,,,,,,,,,,,,,,,,,,,,,,,,,,,,,
,,,,,,,,,,,,l,0.74163,Correct!,0,31,31,40,1,t1.png,t5.png,4,9.55E-11,18,Female,2020-11-09_19h17.29.039,torte-q,2020.1.3,Win32,60,13894,,,,,,,,,,,,,,,,,,,,,,,,,,,,,,,,,,,,,,,,,,,,
,,,,,,,,,,,,a,1.014315,Correct!,0,32,32,113,1,t5.png,t4.png,1,0.9,18,Female,2020-11-09_19h17.29.039,torte-q,2020.1.3,Win32,60,13894,,,,,,,,,,,,,,,,,,,,,,,,,,,,,,,,,,,,,,,,,,,,
,,,,,,,,,,,,a,1.08302,Incorrect,0,33,33,21,1,t5.png,t4.png,1,0.90025,18,Female,2020-11-09_19h17.29.039,torte-q,2020.1.3,Win32,60,13894,,,,,,,,,,,,,,,,,,,,,,,,,,,,,,,,,,,,,,,,,,,,
,,,,,,,,,,,,l,0.866295,Correct!,0,34,34,57,1,t2.png,t4.png,2,0.059078,18,Female,2020-11-09_19h17.29.039,torte-q,2020.1.3,Win32,60,13894,,,,,,,,,,,,,,,,,,,,,,,,,,,,,,,,,,,,,,,,,,,,
,,,,,,,,,,,,l,0.83689,Correct!,0,35,35,52,1,t2.png,t4.png,2,0.059078,18,Female,2020-11-09_19h17.29.039,torte-q,2020.1.3,Win32,60,13894,,,,,,,,,,,,,,,,,,,,,,,,,,,,,,,,,,,,,,,,,,,,
,,,,,,,,,,,,l,1.53153,Incorrect,0,36,36,107,1,t1.png,t1.png,0,0.978,18,Female,2020-11-09_19h17.29.039,torte-q,2020.1.3,Win32,60,13894,,,,,,,,,,,,,,,,,,,,,,,,,,,,,,,,,,,,,,,,,,,,
,,,,,,,,,,,,,,Too slow :(,0,37,37,29,1,t5.png,t5.png,0,0.97829,18,Female,2020-11-09_19h17.29.039,torte-q,2020.1.3,Win32,60,13894,,,,,,,,,,,,,,,,,,,,,,,,,,,,,,,,,,,,,,,,,,,,
,,,,,,,,,,,,a,1.531785,Correct!,0,38,38,7,1,t4.png,t5.png,1,0.90025,18,Female,2020-11-09_19h17.29.039,torte-q,2020.1.3,Win32,60,13894,,,,,,,,,,,,,,,,,,,,,,,,,,,,,,,,,,,,,,,,,,,,
,,,,,,,,,,,,l,1.263465,Correct!,0,39,39,86,1,t3.png,t1.png,2,0.056466,18,Female,2020-11-09_19h17.29.039,torte-q,2020.1.3,Win32,60,13894,,,,,,,,,,,,,,,,,,,,,,,,,,,,,,,,,,,,,,,,,,,,
,,,,,,,,,,,,l,0.94716,Correct!,0,40,40,88,1,t3.png,t1.png,2,0.056466,18,Female,2020-11-09_19h17.29.039,torte-q,2020.1.3,Win32,60,13894,,,,,,,,,,,,,,,,,,,,,,,,,,,,,,,,,,,,,,,,,,,,
,,,,,,,,,,,,a,1.16248,Correct!,0,41,41,66,1,t4.png,t5.png,1,0.9,18,Female,2020-11-09_19h17.29.039,torte-q,2020.1.3,Win32,60,13894,,,,,,,,,,,,,,,,,,,,,,,,,,,,,,,,,,,,,,,,,,,,
,,,,,,,,,,,,l,1.396415,Correct!,0,42,42,69,1,t4.png,t2.png,2,0.059078,18,Female,2020-11-09_19h17.29.039,torte-q,2020.1.3,Win32,60,13894,,,,,,,,,,,,,,,,,,,,,,,,,,,,,,,,,,,,,,,,,,,,
,,,,,,,,,,,,l,0.68867,Incorrect,0,43,43,81,1,t1.png,t1.png,0,0.97829,18,Female,2020-11-09_19h17.29.039,torte-q,2020.1.3,Win32,60,13894,,,,,,,,,,,,,,,,,,,,,,,,,,,,,,,,,,,,,,,,,,,,
,,,,,,,,,,,,a,1.337175,Correct!,0,44,44,45,1,t3.png,t2.png,1,0.90855,18,Female,2020-11-09_19h17.29.039,torte-q,2020.1.3,Win32,60,13894,,,,,,,,,,,,,,,,,,,,,,,,,,,,,,,,,,,,,,,,,,,,
,,,,,,,,,,,,l,0.933315,Correct!,0,45,45,33,1,t5.png,t1.png,4,9.55E-11,18,Female,2020-11-09_19h17.29.039,torte-q,2020.1.3,Win32,60,13894,,,,,,,,,,,,,,,,,,,,,,,,,,,,,,,,,,,,,,,,,,,,
,,,,,,,,,,,,a,0.771485,Incorrect,0,46,46,39,1,t3.png,t2.png,1,0.90855,18,Female,2020-11-09_19h17.29.039,torte-q,2020.1.3,Win32,60,13894,,,,,,,,,,,,,,,,,,,,,,,,,,,,,,,,,,,,,,,,,,,,
,,,,,,,,,,,,l,0.60678,Correct!,0,47,47,12,1,t5.png,t1.png,4,9.55E-11,18,Female,2020-11-09_19h17.29.039,torte-q,2020.1.3,Win32,60,13894,,,,,,,,,,,,,,,,,,,,,,,,,,,,,,,,,,,,,,,,,,,,
,,,,,,,,,,,,a,0.846725,Correct!,0,48,48,41,1,t3.png,t2.png,1,0.90855,18,Female,2020-11-09_19h17.29.039,torte-q,2020.1.3,Win32,60,13894,,,,,,,,,,,,,,,,,,,,,,,,,,,,,,,,,,,,,,,,,,,,
,,,,,,,,,,,,a,1.20273,Correct!,0,49,49,65,1,t4.png,t5.png,1,0.90025,18,Female,2020-11-09_19h17.29.039,torte-q,2020.1.3,Win32,60,13894,,,,,,,,,,,,,,,,,,,,,,,,,,,,,,,,,,,,,,,,,,,,
,,,,,,,,,,,,a,0.824025,Correct!,0,50,50,79,1,t3.png,t2.png,1,0.909,18,Female,2020-11-09_19h17.29.039,torte-q,2020.1.3,Win32,60,13894,,,,,,,,,,,,,,,,,,,,,,,,,,,,,,,,,,,,,,,,,,,,
,,,,,,,,,,,,l,0.613625,Correct!,0,51,51,108,1,t5.png,t1.png,4,9.55E-11,18,Female,2020-11-09_19h17.29.039,torte-q,2020.1.3,Win32,60,13894,,,,,,,,,,,,,,,,,,,,,,,,,,,,,,,,,,,,,,,,,,,,
,,,,,,,,,,,,a,1.322125,Correct!,0,52,52,112,1,t1.png,t1.png,0,0.97829,18,Female,2020-11-09_19h17.29.039,torte-q,2020.1.3,Win32,60,13894,,,,,,,,,,,,,,,,,,,,,,,,,,,,,,,,,,,,,,,,,,,,
,,,,,,,,,,,,l,1.087665,Correct!,0,53,53,60,1,t2.png,t4.png,2,0.059078,18,Female,2020-11-09_19h17.29.039,torte-q,2020.1.3,Win32,60,13894,,,,,,,,,,,,,,,,,,,,,,,,,,,,,,,,,,,,,,,,,,,,
,,,,,,,,,,,,a,1.3046,Correct!,0,54,54,74,1,t5.png,t4.png,1,0.9,18,Female,2020-11-09_19h17.29.039,torte-q,2020.1.3,Win32,60,13894,,,,,,,,,,,,,,,,,,,,,,,,,,,,,,,,,,,,,,,,,,,,
,,,,,,,,,,,,a,0.780525,Correct!,0,55,55,92,1,t2.png,t3.png,1,0.909,18,Female,2020-11-09_19h17.29.039,torte-q,2020.1.3,Win32,60,13894,,,,,,,,,,,,,,,,,,,,,,,,,,,,,,,,,,,,,,,,,,,,
,,,,,,,,,,,,a,0.785285,Correct!,0,56,56,15,1,t3.png,t2.png,1,0.90855,18,Female,2020-11-09_19h17.29.039,torte-q,2020.1.3,Win32,60,13894,,,,,,,,,,,,,,,,,,,,,,,,,,,,,,,,,,,,,,,,,,,,
,,,,,,,,,,,,a,0.64771,Incorrect,0,57,57,83,1,t3.png,t1.png,2,0.056466,18,Female,2020-11-09_19h17.29.039,torte-q,2020.1.3,Win32,60,13894,,,,,,,,,,,,,,,,,,,,,,,,,,,,,,,,,,,,,,,,,,,,
,,,,,,,,,,,,a,0.796865,Correct!,0,58,58,95,1,t1.png,t1.png,0,0.978,18,Female,2020-11-09_19h17.29.039,torte-q,2020.1.3,Win32,60,13894,,,,,,,,,,,,,,,,,,,,,,,,,,,,,,,,,,,,,,,,,,,,
,,,,,,,,,,,,l,0.715045,Correct!,0,59,59,90,1,t1.png,t5.png,4,9.55E-11,18,Female,2020-11-09_19h17.29.039,torte-q,2020.1.3,Win32,60,13894,,,,,,,,,,,,,,,,,,,,,,,,,,,,,,,,,,,,,,,,,,,,
,,,,,,,,,,,,l,0.96714,Correct!,0,60,60,1,1,t2.png,t4.png,2,0.059078,18,Female,2020-11-09_19h17.29.039,torte-q,2020.1.3,Win32,60,13894,,,,,,,,,,,,,,,,,,,,,,,,,,,,,,,,,,,,,,,,,,,,
,,,,,,,,,,,,a,0.78002,Correct!,0,61,61,2,1,t3.png,t2.png,1,0.90855,18,Female,2020-11-09_19h17.29.039,torte-q,2020.1.3,Win32,60,13894,,,,,,,,,,,,,,,,,,,,,,,,,,,,,,,,,,,,,,,,,,,,
,,,,,,,,,,,,a,1.130805,Incorrect,0,62,62,42,1,t5.png,t4.png,1,0.90025,18,Female,2020-11-09_19h17.29.039,torte-q,2020.1.3,Win32,60,13894,,,,,,,,,,,,,,,,,,,,,,,,,,,,,,,,,,,,,,,,,,,,
,,,,,,,,,,,,l,0.688475,Correct!,0,63,63,43,1,t4.png,t2.png,2,0.059078,18,Female,2020-11-09_19h17.29.039,torte-q,2020.1.3,Win32,60,13894,,,,,,,,,,,,,,,,,,,,,,,,,,,,,,,,,,,,,,,,,,,,
,,,,,,,,,,,,a,1.06546,Incorrect,0,64,64,49,1,t4.png,t5.png,1,0.9,18,Female,2020-11-09_19h17.29.039,torte-q,2020.1.3,Win32,60,13894,,,,,,,,,,,,,,,,,,,,,,,,,,,,,,,,,,,,,,,,,,,,
,,,,,,,,,,,,l,1.004725,Correct!,0,65,65,26,1,t4.png,t2.png,2,0.0591,18,Female,2020-11-09_19h17.29.039,torte-q,2020.1.3,Win32,60,13894,,,,,,,,,,,,,,,,,,,,,,,,,,,,,,,,,,,,,,,,,,,,
,,,,,,,,,,,,l,0.714305,Correct!,0,66,66,102,1,t4.png,t2.png,2,0.059078,18,Female,2020-11-09_19h17.29.039,torte-q,2020.1.3,Win32,60,13894,,,,,,,,,,,,,,,,,,,,,,,,,,,,,,,,,,,,,,,,,,,,
,,,,,,,,,,,,l,1.19037,Correct!,0,67,67,111,1,t5.png,t1.png,4,9.55E-11,18,Female,2020-11-09_19h17.29.039,torte-q,2020.1.3,Win32,60,13894,,,,,,,,,,,,,,,,,,,,,,,,,,,,,,,,,,,,,,,,,,,,
,,,,,,,,,,,,l,0.62521,Correct!,0,68,68,99,1,t1.png,t5.png,4,9.55E-11,18,Female,2020-11-09_19h17.29.039,torte-q,2020.1.3,Win32,60,13894,,,,,,,,,,,,,,,,,,,,,,,,,,,,,,,,,,,,,,,,,,,,
,,,,,,,,,,,,l,1.546845,Incorrect,0,69,69,9,1,t4.png,t5.png,1,0.9,18,Female,2020-11-09_19h17.29.039,torte-q,2020.1.3,Win32,60,13894,,,,,,,,,,,,,,,,,,,,,,,,,,,,,,,,,,,,,,,,,,,,
,,,,,,,,,,,,l,0.85285,Correct!,0,70,70,67,1,t1.png,t5.png,4,9.55E-11,18,Female,2020-11-09_19h17.29.039,torte-q,2020.1.3,Win32,60,13894,,,,,,,,,,,,,,,,,,,,,,,,,,,,,,,,,,,,,,,,,,,,
,,,,,,,,,,,,l,1.54781,Incorrect,0,71,71,118,1,t5.png,t5.png,0,0.978,18,Female,2020-11-09_19h17.29.039,torte-q,2020.1.3,Win32,60,13894,,,,,,,,,,,,,,,,,,,,,,,,,,,,,,,,,,,,,,,,,,,,
,,,,,,,,,,,,a,1.01532,Correct!,0,72,72,104,1,t2.png,t3.png,1,0.90855,18,Female,2020-11-09_19h17.29.039,torte-q,2020.1.3,Win32,60,13894,,,,,,,,,,,,,,,,,,,,,,,,,,,,,,,,,,,,,,,,,,,,
,,,,,,,,,,,,a,1.000005,Correct!,0,73,73,28,1,t2.png,t3.png,1,0.909,18,Female,2020-11-09_19h17.29.039,torte-q,2020.1.3,Win32,60,13894,,,,,,,,,,,,,,,,,,,,,,,,,,,,,,,,,,,,,,,,,,,,
,,,,,,,,,,,,l,1.714605,Correct!,0,74,74,14,1,t2.png,t4.png,2,0.059078,18,Female,2020-11-09_19h17.29.039,torte-q,2020.1.3,Win32,60,13894,,,,,,,,,,,,,,,,,,,,,,,,,,,,,,,,,,,,,,,,,,,,
,,,,,,,,,,,,a,0.81577,Correct!,0,75,75,76,1,t3.png,t2.png,1,0.90855,18,Female,2020-11-09_19h17.29.039,torte-q,2020.1.3,Win32,60,13894,,,,,,,,,,,,,,,,,,,,,,,,,,,,,,,,,,,,,,,,,,,,
,,,,,,,,,,,,l,0.647115,Correct!,0,76,76,50,1,t5.png,t1.png,4,9.55E-11,18,Female,2020-11-09_19h17.29.039,torte-q,2020.1.3,Win32,60,13894,,,,,,,,,,,,,,,,,,,,,,,,,,,,,,,,,,,,,,,,,,,,
,,,,,,,,,,,,a,0.79772,Correct!,0,77,77,22,1,t2.png,t3.png,1,0.90855,18,Female,2020-11-09_19h17.29.039,torte-q,2020.1.3,Win32,60,13894,,,,,,,,,,,,,,,,,,,,,,,,,,,,,,,,,,,,,,,,,,,,
,,,,,,,,,,,,a,0.798055,Correct!,0,78,78,8,1,t3.png,t2.png,1,0.90855,18,Female,2020-11-09_19h17.29.039,torte-q,2020.1.3,Win32,60,13894,,,,,,,,,,,,,,,,,,,,,,,,,,,,,,,,,,,,,,,,,,,,
,,,,,,,,,,,,l,0.99761,Correct!,0,79,79,53,1,t3.png,t1.png,2,0.056466,18,Female,2020-11-09_19h17.29.039,torte-q,2020.1.3,Win32,60,13894,,,,,,,,,,,,,,,,,,,,,,,,,,,,,,,,,,,,,,,,,,,,
,,,,,,,,,,,,l,0.597745,Correct!,0,80,80,82,1,t5.png,t1.png,4,9.55E-11,18,Female,2020-11-09_19h17.29.039,torte-q,2020.1.3,Win32,60,13894,,,,,,,,,,,,,,,,,,,,,,,,,,,,,,,,,,,,,,,,,,,,
,,,,,,,,,,,,a,0.79165,Correct!,0,81,81,75,1,t1.png,t1.png,0,0.97829,18,Female,2020-11-09_19h17.29.039,torte-q,2020.1.3,Win32,60,13894,,,,,,,,,,,,,,,,,,,,,,,,,,,,,,,,,,,,,,,,,,,,
,,,,,,,,,,,,a,0.546755,Correct!,0,82,82,78,1,t1.png,t1.png,0,0.978,18,Female,2020-11-09_19h17.29.039,torte-q,2020.1.3,Win32,60,13894,,,,,,,,,,,,,,,,,,,,,,,,,,,,,,,,,,,,,,,,,,,,
,,,,,,,,,,,,a,0.721485,Correct!,0,83,83,48,1,t5.png,t5.png,0,0.97829,18,Female,2020-11-09_19h17.29.039,torte-q,2020.1.3,Win32,60,13894,,,,,,,,,,,,,,,,,,,,,,,,,,,,,,,,,,,,,,,,,,,,
,,,,,,,,,,,,l,0.78704,Incorrect,0,84,84,110,1,t4.png,t5.png,1,0.90025,18,Female,2020-11-09_19h17.29.039,torte-q,2020.1.3,Win32,60,13894,,,,,,,,,,,,,,,,,,,,,,,,,,,,,,,,,,,,,,,,,,,,
,,,,,,,,,,,,a,1.26869,Correct!,0,85,85,16,1,t5.png,t4.png,1,0.9,18,Female,2020-11-09_19h17.29.039,torte-q,2020.1.3,Win32,60,13894,,,,,,,,,,,,,,,,,,,,,,,,,,,,,,,,,,,,,,,,,,,,
,,,,,,,,,,,,a,1.06907,Correct!,0,86,86,18,1,t4.png,t5.png,1,0.90025,18,Female,2020-11-09_19h17.29.039,torte-q,2020.1.3,Win32,60,13894,,,,,,,,,,,,,,,,,,,,,,,,,,,,,,,,,,,,,,,,,,,,
,,,,,,,,,,,,a,0.881705,Incorrect,0,87,87,68,1,t1.png,t4.png,3,0.0000131,18,Female,2020-11-09_19h17.29.039,torte-q,2020.1.3,Win32,60,13894,,,,,,,,,,,,,,,,,,,,,,,,,,,,,,,,,,,,,,,,,,,,
,,,,,,,,,,,,a,0.92568,Correct!,0,88,88,10,1,t2.png,t3.png,1,0.90855,18,Female,2020-11-09_19h17.29.039,torte-q,2020.1.3,Win32,60,13894,,,,,,,,,,,,,,,,,,,,,,,,,,,,,,,,,,,,,,,,,,,,
,,,,,,,,,,,,l,1.08479,Correct!,0,89,89,115,1,t2.png,t4.png,2,0.059078,18,Female,2020-11-09_19h17.29.039,torte-q,2020.1.3,Win32,60,13894,,,,,,,,,,,,,,,,,,,,,,,,,,,,,,,,,,,,,,,,,,,,
,,,,,,,,,,,,a,0.69813,Correct!,0,90,90,84,1,t1.png,t1.png,0,0.97829,18,Female,2020-11-09_19h17.29.039,torte-q,2020.1.3,Win32,60,13894,,,,,,,,,,,,,,,,,,,,,,,,,,,,,,,,,,,,,,,,,,,,
,,,,,,,,,,,,l,0.66459,Correct!,0,91,91,54,1,t1.png,t5.png,4,9.55E-11,18,Female,2020-11-09_19h17.29.039,torte-q,2020.1.3,Win32,60,13894,,,,,,,,,,,,,,,,,,,,,,,,,,,,,,,,,,,,,,,,,,,,
,,,,,,,,,,,,a,0.924955,Incorrect,0,92,92,11,1,t1.png,t4.png,3,0.0000131,18,Female,2020-11-09_19h17.29.039,torte-q,2020.1.3,Win32,60,13894,,,,,,,,,,,,,,,,,,,,,,,,,,,,,,,,,,,,,,,,,,,,
,,,,,,,,,,,,l,0.648395,Correct!,0,93,93,0,1,t5.png,t1.png,4,9.55E-11,18,Female,2020-11-09_19h17.29.039,torte-q,2020.1.3,Win32,60,13894,,,,,,,,,,,,,,,,,,,,,,,,,,,,,,,,,,,,,,,,,,,,
,,,,,,,,,,,,a,1.27519,Correct!,0,94,94,58,1,t5.png,t4.png,1,0.90025,18,Female,2020-11-09_19h17.29.039,torte-q,2020.1.3,Win32,60,13894,,,,,,,,,,,,,,,,,,,,,,,,,,,,,,,,,,,,,,,,,,,,
,,,,,,,,,,,,a,0.93006,Incorrect,0,95,95,38,1,t3.png,t1.png,2,0.056466,18,Female,2020-11-09_19h17.29.039,torte-q,2020.1.3,Win32,60,13894,,,,,,,,,,,,,,,,,,,,,,,,,,,,,,,,,,,,,,,,,,,,
,,,,,,,,,,,,l,0.75706,Correct!,0,96,96,47,1,t4.png,t2.png,2,0.059078,18,Female,2020-11-09_19h17.29.039,torte-q,2020.1.3,Win32,60,13894,,,,,,,,,,,,,,,,,,,,,,,,,,,,,,,,,,,,,,,,,,,,
,,,,,,,,,,,,a,0.687435,Correct!,0,97,97,97,1,t5.png,t5.png,0,0.97829,18,Female,2020-11-09_19h17.29.039,torte-q,2020.1.3,Win32,60,13894,,,,,,,,,,,,,,,,,,,,,,,,,,,,,,,,,,,,,,,,,,,,
,,,,,,,,,,,,l,1.55453,Correct!,0,98,98,3,1,t1.png,t5.png,4,9.55E-11,18,Female,2020-11-09_19h17.29.039,torte-q,2020.1.3,Win32,60,13894,,,,,,,,,,,,,,,,,,,,,,,,,,,,,,,,,,,,,,,,,,,,
,,,,,,,,,,,,a,0.69733,Correct!,0,99,99,25,1,t5.png,t5.png,0,0.97829,18,Female,2020-11-09_19h17.29.039,torte-q,2020.1.3,Win32,60,13894,,,,,,,,,,,,,,,,,,,,,,,,,,,,,,,,,,,,,,,,,,,,
,,,,,,,,,,,,a,0.720495,Incorrect,0,100,100,35,1,t1.png,t4.png,3,0.0000131,18,Female,2020-11-09_19h17.29.039,torte-q,2020.1.3,Win32,60,13894,,,,,,,,,,,,,,,,,,,,,,,,,,,,,,,,,,,,,,,,,,,,
,,,,,,,,,,,,l,0.93678,Correct!,0,101,101,55,1,t2.png,t4.png,2,0.059078,18,Female,2020-11-09_19h17.29.039,torte-q,2020.1.3,Win32,60,13894,,,,,,,,,,,,,,,,,,,,,,,,,,,,,,,,,,,,,,,,,,,,
,,,,,,,,,,,,l,1.029605,Correct!,0,102,102,37,1,t1.png,t4.png,3,0.0000131,18,Female,2020-11-09_19h17.29.039,torte-q,2020.1.3,Win32,60,13894,,,,,,,,,,,,,,,,,,,,,,,,,,,,,,,,,,,,,,,,,,,,
,,,,,,,,,,,,a,1.05015,Correct!,0,103,103,109,1,t5.png,t5.png,0,0.97829,18,Female,2020-11-09_19h17.29.039,torte-q,2020.1.3,Win32,60,13894,,,,,,,,,,,,,,,,,,,,,,,,,,,,,,,,,,,,,,,,,,,,
,,,,,,,,,,,,l,0.831845,Correct!,0,104,104,98,1,t2.png,t4.png,2,0.0591,18,Female,2020-11-09_19h17.29.039,torte-q,2020.1.3,Win32,60,13894,,,,,,,,,,,,,,,,,,,,,,,,,,,,,,,,,,,,,,,,,,,,
,,,,,,,,,,,,a,1.401725,Correct!,0,105,105,59,1,t5.png,t4.png,1,0.9,18,Female,2020-11-09_19h17.29.039,torte-q,2020.1.3,Win32,60,13894,,,,,,,,,,,,,,,,,,,,,,,,,,,,,,,,,,,,,,,,,,,,
,,,,,,,,,,,,a,0.998165,Correct!,0,106,106,23,1,t5.png,t4.png,1,0.90025,18,Female,2020-11-09_19h17.29.039,torte-q,2020.1.3,Win32,60,13894,,,,,,,,,,,,,,,,,,,,,,,,,,,,,,,,,,,,,,,,,,,,
,,,,,,,,,,,,a,1.14947,Correct!,0,107,107,63,1,t2.png,t3.png,1,0.909,18,Female,2020-11-09_19h17.29.039,torte-q,2020.1.3,Win32,60,13894,,,,,,,,,,,,,,,,,,,,,,,,,,,,,,,,,,,,,,,,,,,,
,,,,,,,,,,,,l,0.76969,Correct!,0,108,108,73,1,t4.png,t2.png,2,0.059078,18,Female,2020-11-09_19h17.29.039,torte-q,2020.1.3,Win32,60,13894,,,,,,,,,,,,,,,,,,,,,,,,,,,,,,,,,,,,,,,,,,,,
,,,,,,,,,,,,l,1.068475,Correct!,0,109,109,27,1,t3.png,t1.png,2,0.0565,18,Female,2020-11-09_19h17.29.039,torte-q,2020.1.3,Win32,60,13894,,,,,,,,,,,,,,,,,,,,,,,,,,,,,,,,,,,,,,,,,,,,
,,,,,,,,,,,,l,0.81407,Correct!,0,110,110,93,1,t2.png,t4.png,2,0.059078,18,Female,2020-11-09_19h17.29.039,torte-q,2020.1.3,Win32,60,13894,,,,,,,,,,,,,,,,,,,,,,,,,,,,,,,,,,,,,,,,,,,,
,,,,,,,,,,,,a,0.831375,Incorrect,0,111,111,80,1,t1.png,t4.png,3,0.0000131,18,Female,2020-11-09_19h17.29.039,torte-q,2020.1.3,Win32,60,13894,,,,,,,,,,,,,,,,,,,,,,,,,,,,,,,,,,,,,,,,,,,,
,,,,,,,,,,,,a,0.78899,Correct!,0,112,112,77,1,t1.png,t1.png,0,0.97829,18,Female,2020-11-09_19h17.29.039,torte-q,2020.1.3,Win32,60,13894,,,,,,,,,,,,,,,,,,,,,,,,,,,,,,,,,,,,,,,,,,,,
,,,,,,,,,,,,l,0.873035,Correct!,0,113,113,4,1,t1.png,t5.png,4,9.55E-11,18,Female,2020-11-09_19h17.29.039,torte-q,2020.1.3,Win32,60,13894,,,,,,,,,,,,,,,,,,,,,,,,,,,,,,,,,,,,,,,,,,,,
,,,,,,,,,,,,a,0.79038,Correct!,0,114,114,13,1,t5.png,t5.png,0,0.97829,18,Female,2020-11-09_19h17.29.039,torte-q,2020.1.3,Win32,60,13894,,,,,,,,,,,,,,,,,,,,,,,,,,,,,,,,,,,,,,,,,,,,
,,,,,,,,,,,,a,1.36371,Correct!,0,115,115,34,1,t5.png,t4.png,1,0.9,18,Female,2020-11-09_19h17.29.039,torte-q,2020.1.3,Win32,60,13894,,,,,,,,,,,,,,,,,,,,,,,,,,,,,,,,,,,,,,,,,,,,
,,,,,,,,,,,,l,1.031415,Correct!,0,116,116,24,1,t4.png,t2.png,2,0.059078,18,Female,2020-11-09_19h17.29.039,torte-q,2020.1.3,Win32,60,13894,,,,,,,,,,,,,,,,,,,,,,,,,,,,,,,,,,,,,,,,,,,,
,,,,,,,,,,,,a,1.21418,Correct!,0,117,117,114,1,t2.png,t3.png,1,0.90855,18,Female,2020-11-09_19h17.29.039,torte-q,2020.1.3,Win32,60,13894,,,,,,,,,,,,,,,,,,,,,,,,,,,,,,,,,,,,,,,,,,,,
,,,,,,,,,,,,l,0.72372,Correct!,0,118,118,5,1,t2.png,t4.png,2,0.059078,18,Female,2020-11-09_19h17.29.039,torte-q,2020.1.3,Win32,60,13894,,,,,,,,,,,,,,,,,,,,,,,,,,,,,,,,,,,,,,,,,,,,
,,,,,,,,,,,,a,0.78854,Correct!,0,119,119,96,1,t1.png,t1.png,0,0.97829,18,Female,2020-11-09_19h17.29.039,torte-q,2020.1.3,Win32,60,13894,,,,,,,,,,,,,,,,,,,,,,,,,,,,,,,,,,,,,,,,,,,,
,,,,,,,,,,,,a,1.98311,Incorrect,,,,,,t3.png,t5.png,2,0.056466,18,Female,2020-11-09_19h17.29.039,torte-q,2020.1.3,Win32,60,13894,space,5.15065,l,7.89558,0,0,0,44,1,,,,,,,,,,,,,,,,,,,,,,,,,,,,,,,,,,,
,,,,,,,,,,,,a,1.013385,Correct!,,,,,,t2.png,t2.png,0,0.98115,18,Female,2020-11-09_19h17.29.039,torte-q,2020.1.3,Win32,60,13894,,,,,0,1,1,2,1,,,,,,,,,,,,,,,,,,,,,,,,,,,,,,,,,,,
,,,,,,,,,,,,a,2.06588,Correct!,,,,,,t3.png,t4.png,1,0.90855,18,Female,2020-11-09_19h17.29.039,torte-q,2020.1.3,Win32,60,13894,,,,,0,2,2,84,1,,,,,,,,,,,,,,,,,,,,,,,,,,,,,,,,,,,
,,,,,,,,,,,,l,0.95008,Correct!,,,,,,t2.png,t4.png,2,0.059078,18,Female,2020-11-09_19h17.29.039,torte-q,2020.1.3,Win32,60,13894,,,,,0,3,3,77,1,,,,,,,,,,,,,,,,,,,,,,,,,,,,,,,,,,,
,,,,,,,,,,,,l,0.900325,Incorrect,,,,,,t1.png,t1.png,0,0.978,18,Female,2020-11-09_19h17.29.039,torte-q,2020.1.3,Win32,60,13894,,,,,0,4,4,28,1,,,,,,,,,,,,,,,,,,,,,,,,,,,,,,,,,,,
,,,,,,,,,,,,a,1.11787,Correct!,,,,,,t2.png,t3.png,1,0.90855,18,Female,2020-11-09_19h17.29.039,torte-q,2020.1.3,Win32,60,13894,,,,,0,5,5,65,1,,,,,,,,,,,,,,,,,,,,,,,,,,,,,,,,,,,
,,,,,,,,,,,,a,1.54926,Incorrect,,,,,,t1.png,t4.png,3,0.0000131,18,Female,2020-11-09_19h17.29.039,torte-q,2020.1.3,Win32,60,13894,,,,,0,6,6,50,1,,,,,,,,,,,,,,,,,,,,,,,,,,,,,,,,,,,
,,,,,,,,,,,,l,0.94366,Correct!,,,,,,t1.png,t5.png,4,9.55E-11,18,Female,2020-11-09_19h17.29.039,torte-q,2020.1.3,Win32,60,13894,,,,,0,7,7,55,1,,,,,,,,,,,,,,,,,,,,,,,,,,,,,,,,,,,
,,,,,,,,,,,,a,1.384465,Correct!,,,,,,t5.png,t4.png,1,0.9,18,Female,2020-11-09_19h17.29.039,torte-q,2020.1.3,Win32,60,13894,,,,,0,8,8,49,1,,,,,,,,,,,,,,,,,,,,,,,,,,,,,,,,,,,
,,,,,,,,,,,,a,2.066335,Correct!,,,,,,t3.png,t4.png,1,0.909,18,Female,2020-11-09_19h17.29.039,torte-q,2020.1.3,Win32,60,13894,,,,,0,9,9,106,1,,,,,,,,,,,,,,,,,,,,,,,,,,,,,,,,,,,
,,,,,,,,,,,,a,1.56733,Incorrect,,,,,,t5.png,t2.png,3,0.0000131,18,Female,2020-11-09_19h17.29.039,torte-q,2020.1.3,Win32,60,13894,,,,,0,10,10,98,1,,,,,,,,,,,,,,,,,,,,,,,,,,,,,,,,,,,
,,,,,,,,,,,,,,Too slow :(,,,,,,t4.png,t1.png,3,0.0000131,18,Female,2020-11-09_19h17.29.039,torte-q,2020.1.3,Win32,60,13894,,,,,0,11,11,48,1,,,,,,,,,,,,,,,,,,,,,,,,,,,,,,,,,,,
,,,,,,,,,,,,l,1.31706,Correct!,,,,,,t4.png,t2.png,2,0.059078,18,Female,2020-11-09_19h17.29.039,torte-q,2020.1.3,Win32,60,13894,,,,,0,12,12,86,1,,,,,,,,,,,,,,,,,,,,,,,,,,,,,,,,,,,
,,,,,,,,,,,,l,0.976435,Correct!,,,,,,t5.png,t1.png,4,9.55E-11,18,Female,2020-11-09_19h17.29.039,torte-q,2020.1.3,Win32,60,13894,,,,,0,13,13,22,1,,,,,,,,,,,,,,,,,,,,,,,,,,,,,,,,,,,
,,,,,,,,,,,,a,1.51628,Incorrect,,,,,,t4.png,t1.png,3,0.0000131,18,Female,2020-11-09_19h17.29.039,torte-q,2020.1.3,Win32,60,13894,,,,,0,14,14,13,1,,,,,,,,,,,,,,,,,,,,,,,,,,,,,,,,,,,
,,,,,,,,,,,,a,1.01673,Correct!,,,,,,t5.png,t5.png,0,0.97829,18,Female,2020-11-09_19h17.29.039,torte-q,2020.1.3,Win32,60,13894,,,,,0,15,15,73,1,,,,,,,,,,,,,,,,,,,,,,,,,,,,,,,,,,,
,,,,,,,,,,,,l,1.369985,Correct!,,,,,,t3.png,t1.png,2,0.056466,18,Female,2020-11-09_19h17.29.039,torte-q,2020.1.3,Win32,60,13894,,,,,0,16,16,64,1,,,,,,,,,,,,,,,,,,,,,,,,,,,,,,,,,,,
,,,,,,,,,,,,l,0.745415,Correct!,,,,,,t5.png,t1.png,4,9.55E-11,18,Female,2020-11-09_19h17.29.039,torte-q,2020.1.3,Win32,60,13894,,,,,0,17,17,71,1,,,,,,,,,,,,,,,,,,,,,,,,,,,,,,,,,,,
,,,,,,,,,,,,a,1.12717,Correct!,,,,,,t4.png,t4.png,0,0.98115,18,Female,2020-11-09_19h17.29.039,torte-q,2020.1.3,Win32,60,13894,,,,,0,18,18,79,1,,,,,,,,,,,,,,,,,,,,,,,,,,,,,,,,,,,
,,,,,,,,,,,,l,0.75321,Correct!,,,,,,t5.png,t1.png,4,9.55E-11,18,Female,2020-11-09_19h17.29.039,torte-q,2020.1.3,Win32,60,13894,,,,,0,19,19,43,1,,,,,,,,,,,,,,,,,,,,,,,,,,,,,,,,,,,
,,,,,,,,,,,,a,1.5037,Correct!,,,,,,t4.png,t3.png,1,0.90855,18,Female,2020-11-09_19h17.29.039,torte-q,2020.1.3,Win32,60,13894,,,,,0,20,20,45,1,,,,,,,,,,,,,,,,,,,,,,,,,,,,,,,,,,,
,,,,,,,,,,,,a,1.27027,Incorrect,,,,,,t3.png,t2.png,1,0.90855,18,Female,2020-11-09_19h17.29.039,torte-q,2020.1.3,Win32,60,13894,,,,,0,21,21,53,1,,,,,,,,,,,,,,,,,,,,,,,,,,,,,,,,,,,
,,,,,,,,,,,,a,1.520325,Correct!,,,,,,t4.png,t5.png,1,0.9,18,Female,2020-11-09_19h17.29.039,torte-q,2020.1.3,Win32,60,13894,,,,,0,22,22,115,1,,,,,,,,,,,,,,,,,,,,,,,,,,,,,,,,,,,
,,,,,,,,,,,,l,0.70611,Correct!,,,,,,t1.png,t5.png,4,9.55E-11,18,Female,2020-11-09_19h17.29.039,torte-q,2020.1.3,Win32,60,13894,,,,,0,23,23,41,1,,,,,,,,,,,,,,,,,,,,,,,,,,,,,,,,,,,
,,,,,,,,,,,,a,1.013005,Correct!,,,,,,t3.png,t2.png,1,0.909,18,Female,2020-11-09_19h17.29.039,torte-q,2020.1.3,Win32,60,13894,,,,,0,24,24,23,1,,,,,,,,,,,,,,,,,,,,,,,,,,,,,,,,,,,
,,,,,,,,,,,,a,1.484085,Correct!,,,,,,t4.png,t4.png,0,0.98115,18,Female,2020-11-09_19h17.29.039,torte-q,2020.1.3,Win32,60,13894,,,,,0,25,25,52,1,,,,,,,,,,,,,,,,,,,,,,,,,,,,,,,,,,,
,,,,,,,,,,,,l,0.71678,Correct!,,,,,,t5.png,t1.png,4,9.55E-11,18,Female,2020-11-09_19h17.29.039,torte-q,2020.1.3,Win32,60,13894,,,,,0,26,26,100,1,,,,,,,,,,,,,,,,,,,,,,,,,,,,,,,,,,,
,,,,,,,,,,,,a,0.96634,Incorrect,,,,,,t1.png,t4.png,3,0.0000131,18,Female,2020-11-09_19h17.29.039,torte-q,2020.1.3,Win32,60,13894,,,,,0,27,27,17,1,,,,,,,,,,,,,,,,,,,,,,,,,,,,,,,,,,,
,,,,,,,,,,,,a,1.316485,Correct!,,,,,,t5.png,t4.png,1,0.9,18,Female,2020-11-09_19h17.29.039,torte-q,2020.1.3,Win32,60,13894,,,,,0,28,28,76,1,,,,,,,,,,,,,,,,,,,,,,,,,,,,,,,,,,,
,,,,,,,,,,,,a,2.115675,Correct!,,,,,,t2.png,t3.png,1,0.90855,18,Female,2020-11-09_19h17.29.039,torte-q,2020.1.3,Win32,60,13894,,,,,0,29,29,111,1,,,,,,,,,,,,,,,,,,,,,,,,,,,,,,,,,,,
,,,,,,,,,,,,a,2.03253,Correct!,,,,,,t3.png,t4.png,1,0.909,18,Female,2020-11-09_19h17.29.039,torte-q,2020.1.3,Win32,60,13894,,,,,0,30,30,82,1,,,,,,,,,,,,,,,,,,,,,,,,,,,,,,,,,,,
,,,,,,,,,,,,l,1.179215,Correct!,,,,,,t3.png,t1.png,2,0.056466,18,Female,2020-11-09_19h17.29.039,torte-q,2020.1.3,Win32,60,13894,,,,,0,31,31,0,1,,,,,,,,,,,,,,,,,,,,,,,,,,,,,,,,,,,
,,,,,,,,,,,,a,2.042995,Correct!,,,,,,t4.png,t3.png,1,0.90855,18,Female,2020-11-09_19h17.29.039,torte-q,2020.1.3,Win32,60,13894,,,,,0,32,32,35,1,,,,,,,,,,,,,,,,,,,,,,,,,,,,,,,,,,,
,,,,,,,,,,,,a,0.76699,Correct!,,,,,,t5.png,t5.png,0,0.97829,18,Female,2020-11-09_19h17.29.039,torte-q,2020.1.3,Win32,60,13894,,,,,0,33,33,94,1,,,,,,,,,,,,,,,,,,,,,,,,,,,,,,,,,,,
,,,,,,,,,,,,l,0.98386,Correct!,,,,,,t3.png,t1.png,2,0.0565,18,Female,2020-11-09_19h17.29.039,torte-q,2020.1.3,Win32,60,13894,,,,,0,34,34,31,1,,,,,,,,,,,,,,,,,,,,,,,,,,,,,,,,,,,
,,,,,,,,,,,,a,1.26003,Incorrect,,,,,,t5.png,t2.png,3,0.0000131,18,Female,2020-11-09_19h17.29.039,torte-q,2020.1.3,Win32,60,13894,,,,,0,35,35,91,1,,,,,,,,,,,,,,,,,,,,,,,,,,,,,,,,,,,
,,,,,,,,,,,,a,1.43354,Correct!,,,,,,t3.png,t4.png,1,0.909,18,Female,2020-11-09_19h17.29.039,torte-q,2020.1.3,Win32,60,13894,,,,,0,36,36,89,1,,,,,,,,,,,,,,,,,,,,,,,,,,,,,,,,,,,
,,,,,,,,,,,,a,1.45057,Incorrect,,,,,,t4.png,t1.png,3,0.0000131,18,Female,2020-11-09_19h17.29.039,torte-q,2020.1.3,Win32,60,13894,,,,,0,37,37,42,1,,,,,,,,,,,,,,,,,,,,,,,,,,,,,,,,,,,
,,,,,,,,,,,,a,0.83352,Correct!,,,,,,t1.png,t1.png,0,0.97829,18,Female,2020-11-09_19h17.29.039,torte-q,2020.1.3,Win32,60,13894,,,,,0,38,38,9,1,,,,,,,,,,,,,,,,,,,,,,,,,,,,,,,,,,,
,,,,,,,,,,,,,,Too slow :(,,,,,,t5.png,t4.png,1,0.90025,18,Female,2020-11-09_19h17.29.039,torte-q,2020.1.3,Win32,60,13894,,,,,0,39,39,26,1,,,,,,,,,,,,,,,,,,,,,,,,,,,,,,,,,,,
,,,,,,,,,,,,a,1.35648,Correct!,,,,,,t4.png,t4.png,0,0.98115,18,Female,2020-11-09_19h17.29.039,torte-q,2020.1.3,Win32,60,13894,,,,,0,40,40,80,1,,,,,,,,,,,,,,,,,,,,,,,,,,,,,,,,,,,
,,,,,,,,,,,,a,1.187785,Incorrect,,,,,,t5.png,t2.png,3,0.0000131,18,Female,2020-11-09_19h17.29.039,torte-q,2020.1.3,Win32,60,13894,,,,,0,41,41,119,1,,,,,,,,,,,,,,,,,,,,,,,,,,,,,,,,,,,
,,,,,,,,,,,,a,1.06665,Correct!,,,,,,t1.png,t2.png,1,0.90025,18,Female,2020-11-09_19h17.29.039,torte-q,2020.1.3,Win32,60,13894,,,,,0,42,42,105,1,,,,,,,,,,,,,,,,,,,,,,,,,,,,,,,,,,,
,,,,,,,,,,,,l,0.918225,Correct!,,,,,,t1.png,t5.png,4,9.55E-11,18,Female,2020-11-09_19h17.29.039,torte-q,2020.1.3,Win32,60,13894,,,,,0,43,43,16,1,,,,,,,,,,,,,,,,,,,,,,,,,,,,,,,,,,,
,,,,,,,,,,,,a,1.217675,Correct!,,,,,,t2.png,t2.png,0,0.98115,18,Female,2020-11-09_19h17.29.039,torte-q,2020.1.3,Win32,60,13894,,,,,0,44,44,59,1,,,,,,,,,,,,,,,,,,,,,,,,,,,,,,,,,,,
,,,,,,,,,,,,a,1.07204,Incorrect,,,,,,t2.png,t5.png,3,0.0000131,18,Female,2020-11-09_19h17.29.039,torte-q,2020.1.3,Win32,60,13894,,,,,0,45,45,95,1,,,,,,,,,,,,,,,,,,,,,,,,,,,,,,,,,,,
,,,,,,,,,,,,a,0.98372,Correct!,,,,,,t4.png,t4.png,0,0.98115,18,Female,2020-11-09_19h17.29.039,torte-q,2020.1.3,Win32,60,13894,,,,,0,46,46,90,1,,,,,,,,,,,,,,,,,,,,,,,,,,,,,,,,,,,
,,,,,,,,,,,,a,1.425815,Correct!,,,,,,t2.png,t3.png,1,0.90855,18,Female,2020-11-09_19h17.29.039,torte-q,2020.1.3,Win32,60,13894,,,,,0,47,47,68,1,,,,,,,,,,,,,,,,,,,,,,,,,,,,,,,,,,,
,,,,,,,,,,,,l,0.867905,Correct!,,,,,,t4.png,t2.png,2,0.059078,18,Female,2020-11-09_19h17.29.039,torte-q,2020.1.3,Win32,60,13894,,,,,0,48,48,110,1,,,,,,,,,,,,,,,,,,,,,,,,,,,,,,,,,,,
,,,,,,,,,,,,a,0.7405,Incorrect,,,,,,t2.png,t5.png,3,0.0000131,18,Female,2020-11-09_19h17.29.039,torte-q,2020.1.3,Win32,60,13894,,,,,0,49,49,8,1,,,,,,,,,,,,,,,,,,,,,,,,,,,,,,,,,,,
,,,,,,,,,,,,l,0.80017,Correct!,,,,,,t3.png,t1.png,2,0.056466,18,Female,2020-11-09_19h17.29.039,torte-q,2020.1.3,Win32,60,13894,,,,,0,50,50,32,1,,,,,,,,,,,,,,,,,,,,,,,,,,,,,,,,,,,
,,,,,,,,,,,,a,0.7339,Correct!,,,,,,t1.png,t1.png,0,0.97829,18,Female,2020-11-09_19h17.29.039,torte-q,2020.1.3,Win32,60,13894,,,,,0,51,51,78,1,,,,,,,,,,,,,,,,,,,,,,,,,,,,,,,,,,,
,,,,,,,,,,,,a,2.1361,Correct!,,,,,,t4.png,t5.png,1,0.90025,18,Female,2020-11-09_19h17.29.039,torte-q,2020.1.3,Win32,60,13894,,,,,0,52,52,47,1,,,,,,,,,,,,,,,,,,,,,,,,,,,,,,,,,,,
,,,,,,,,,,,,a,1.5454,Correct!,,,,,,t5.png,t4.png,1,0.90025,18,Female,2020-11-09_19h17.29.039,torte-q,2020.1.3,Win32,60,13894,,,,,0,53,53,27,1,,,,,,,,,,,,,,,,,,,,,,,,,,,,,,,,,,,
,,,,,,,,,,,,l,1.287635,Correct!,,,,,,t5.png,t3.png,2,0.056466,18,Female,2020-11-09_19h17.29.039,torte-q,2020.1.3,Win32,60,13894,,,,,0,54,54,38,1,,,,,,,,,,,,,,,,,,,,,,,,,,,,,,,,,,,
,,,,,,,,,,,,l,1.076185,Correct!,,,,,,t2.png,t4.png,2,0.059078,18,Female,2020-11-09_19h17.29.039,torte-q,2020.1.3,Win32,60,13894,,,,,0,55,55,37,1,,,,,,,,,,,,,,,,,,,,,,,,,,,,,,,,,,,
,,,,,,,,,,,,a,0.851405,Incorrect,,,,,,t1.png,t4.png,3,0.0000131,18,Female,2020-11-09_19h17.29.039,torte-q,2020.1.3,Win32,60,13894,,,,,0,56,56,81,1,,,,,,,,,,,,,,,,,,,,,,,,,,,,,,,,,,,
,,,,,,,,,,,,l,1.166325,Correct!,,,,,,t1.png,t3.png,2,0.056466,18,Female,2020-11-09_19h17.29.039,torte-q,2020.1.3,Win32,60,13894,,,,,0,57,57,69,1,,,,,,,,,,,,,,,,,,,,,,,,,,,,,,,,,,,
,,,,,,,,,,,,a,1.323305,Correct!,,,,,,t3.png,t4.png,1,0.90855,18,Female,2020-11-09_19h17.29.039,torte-q,2020.1.3,Win32,60,13894,,,,,0,58,58,96,1,,,,,,,,,,,,,,,,,,,,,,,,,,,,,,,,,,,
,,,,,,,,,,,,l,0.63331,Correct!,,,,,,t1.png,t5.png,4,9.55E-11,18,Female,2020-11-09_19h17.29.039,torte-q,2020.1.3,Win32,60,13894,,,,,0,59,59,85,1,,,,,,,,,,,,,,,,,,,,,,,,,,,,,,,,,,,
,,,,,,,,,,,,a,0.887875,Correct!,,,,,,t3.png,t2.png,1,0.90855,18,Female,2020-11-09_19h17.29.039,torte-q,2020.1.3,Win32,60,13894,,,,,0,60,60,97,1,,,,,,,,,,,,,,,,,,,,,,,,,,,,,,,,,,,
,,,,,,,,,,,,a,0.883405,Incorrect,,,,,,t1.png,t4.png,3,0.0000131,18,Female,2020-11-09_19h17.29.039,torte-q,2020.1.3,Win32,60,13894,,,,,0,61,61,107,1,,,,,,,,,,,,,,,,,,,,,,,,,,,,,,,,,,,
,,,,,,,,,,,,a,0.7513,Incorrect,,,,,,t2.png,t5.png,3,0.0000131,18,Female,2020-11-09_19h17.29.039,torte-q,2020.1.3,Win32,60,13894,,,,,0,62,62,40,1,,,,,,,,,,,,,,,,,,,,,,,,,,,,,,,,,,,
,,,,,,,,,,,,a,0.91854,Correct!,,,,,,t5.png,t5.png,0,0.97829,18,Female,2020-11-09_19h17.29.039,torte-q,2020.1.3,Win32,60,13894,,,,,0,63,63,70,1,,,,,,,,,,,,,,,,,,,,,,,,,,,,,,,,,,,
,,,,,,,,,,,,a,1.150365,Correct!,,,,,,t4.png,t4.png,0,0.98115,18,Female,2020-11-09_19h17.29.039,torte-q,2020.1.3,Win32,60,13894,,,,,0,64,64,21,1,,,,,,,,,,,,,,,,,,,,,,,,,,,,,,,,,,,
,,,,,,,,,,,,a,0.783265,Correct!,,,,,,t3.png,t2.png,1,0.909,18,Female,2020-11-09_19h17.29.039,torte-q,2020.1.3,Win32,60,13894,,,,,0,65,65,3,1,,,,,,,,,,,,,,,,,,,,,,,,,,,,,,,,,,,
,,,,,,,,,,,,l,0.999535,Correct!,,,,,,t4.png,t2.png,2,0.0591,18,Female,2020-11-09_19h17.29.039,torte-q,2020.1.3,Win32,60,13894,,,,,0,66,66,36,1,,,,,,,,,,,,,,,,,,,,,,,,,,,,,,,,,,,
,,,,,,,,,,,,a,1.434885,Incorrect,,,,,,t4.png,t3.png,1,0.909,18,Female,2020-11-09_19h17.29.039,torte-q,2020.1.3,Win32,60,13894,,,,,0,67,67,20,1,,,,,,,,,,,,,,,,,,,,,,,,,,,,,,,,,,,
,,,,,,,,,,,,a,0.96622,Correct!,,,,,,t4.png,t3.png,1,0.90855,18,Female,2020-11-09_19h17.29.039,torte-q,2020.1.3,Win32,60,13894,,,,,0,68,68,75,1,,,,,,,,,,,,,,,,,,,,,,,,,,,,,,,,,,,
,,,,,,,,,,,,a,1.16745,Correct!,,,,,,t2.png,t3.png,1,0.90855,18,Female,2020-11-09_19h17.29.039,torte-q,2020.1.3,Win32,60,13894,,,,,0,69,69,10,1,,,,,,,,,,,,,,,,,,,,,,,,,,,,,,,,,,,
,,,,,,,,,,,,a,0.76748,Correct!,,,,,,t5.png,t5.png,0,0.978,18,Female,2020-11-09_19h17.29.039,torte-q,2020.1.3,Win32,60,13894,,,,,0,70,70,117,1,,,,,,,,,,,,,,,,,,,,,,,,,,,,,,,,,,,
,,,,,,,,,,,,a,1.01596,Incorrect,,,,,,t5.png,t3.png,2,0.056466,18,Female,2020-11-09_19h17.29.039,torte-q,2020.1.3,Win32,60,13894,,,,,0,71,71,108,1,,,,,,,,,,,,,,,,,,,,,,,,,,,,,,,,,,,
,,,,,,,,,,,,a,0.835445,Incorrect,,,,,,t2.png,t1.png,1,0.90025,18,Female,2020-11-09_19h17.29.039,torte-q,2020.1.3,Win32,60,13894,,,,,0,72,72,5,1,,,,,,,,,,,,,,,,,,,,,,,,,,,,,,,,,,,
,,,,,,,,,,,,a,0.750305,Incorrect,,,,,,t3.png,t5.png,2,0.056466,18,Female,2020-11-09_19h17.29.039,torte-q,2020.1.3,Win32,60,13894,,,,,0,73,73,14,1,,,,,,,,,,,,,,,,,,,,,,,,,,,,,,,,,,,
,,,,,,,,,,,,a,1.01136,Correct!,,,,,,t2.png,t1.png,1,0.90025,18,Female,2020-11-09_19h17.29.039,torte-q,2020.1.3,Win32,60,13894,,,,,0,74,74,4,1,,,,,,,,,,,,,,,,,,,,,,,,,,,,,,,,,,,
,,,,,,,,,,,,l,0.70011,Correct!,,,,,,t2.png,t4.png,2,0.059078,18,Female,2020-11-09_19h17.29.039,torte-q,2020.1.3,Win32,60,13894,,,,,0,75,75,24,1,,,,,,,,,,,,,,,,,,,,,,,,,,,,,,,,,,,
,,,,,,,,,,,,l,0.76646,Correct!,,,,,,t1.png,t3.png,2,0.056466,18,Female,2020-11-09_19h17.29.039,torte-q,2020.1.3,Win32,60,13894,,,,,0,76,76,63,1,,,,,,,,,,,,,,,,,,,,,,,,,,,,,,,,,,,
,,,,,,,,,,,,a,0.82689,Incorrect,,,,,,t1.png,t4.png,3,0.0000131,18,Female,2020-11-09_19h17.29.039,torte-q,2020.1.3,Win32,60,13894,,,,,0,77,77,92,1,,,,,,,,,,,,,,,,,,,,,,,,,,,,,,,,,,,
,,,,,,,,,,,,a,0.672385,Incorrect,,,,,,t3.png,t5.png,2,0.0565,18,Female,2020-11-09_19h17.29.039,torte-q,2020.1.3,Win32,60,13894,,,,,0,78,78,83,1,,,,,,,,,,,,,,,,,,,,,,,,,,,,,,,,,,,
,,,,,,,,,,,,l,0.86393,Correct!,,,,,,t4.png,t2.png,2,0.059078,18,Female,2020-11-09_19h17.29.039,torte-q,2020.1.3,Win32,60,13894,,,,,0,79,79,88,1,,,,,,,,,,,,,,,,,,,,,,,,,,,,,,,,,,,
,,,,,,,,,,,,a,0.773775,Incorrect,,,,,,t2.png,t5.png,3,0.0000131,18,Female,2020-11-09_19h17.29.039,torte-q,2020.1.3,Win32,60,13894,,,,,0,80,80,104,1,,,,,,,,,,,,,,,,,,,,,,,,,,,,,,,,,,,
,,,,,,,,,,,,a,0.83322,Correct!,,,,,,t2.png,t1.png,1,0.90025,18,Female,2020-11-09_19h17.29.039,torte-q,2020.1.3,Win32,60,13894,,,,,0,81,81,62,1,,,,,,,,,,,,,,,,,,,,,,,,,,,,,,,,,,,
,,,,,,,,,,,,a,0.91887,Incorrect,,,,,,t5.png,t2.png,3,0.0000131,18,Female,2020-11-09_19h17.29.039,torte-q,2020.1.3,Win32,60,13894,,,,,0,82,82,116,1,,,,,,,,,,,,,,,,,,,,,,,,,,,,,,,,,,,
,,,,,,,,,,,,a,0.77024,Correct!,,,,,,t5.png,t5.png,0,0.97829,18,Female,2020-11-09_19h17.29.039,torte-q,2020.1.3,Win32,60,13894,,,,,0,83,83,25,1,,,,,,,,,,,,,,,,,,,,,,,,,,,,,,,,,,,
,,,,,,,,,,,,l,0.680795,Correct!,,,,,,t2.png,t4.png,2,0.059078,18,Female,2020-11-09_19h17.29.039,torte-q,2020.1.3,Win32,60,13894,,,,,0,84,84,11,1,,,,,,,,,,,,,,,,,,,,,,,,,,,,,,,,,,,
,,,,,,,,,,,,a,1.393815,Correct!,,,,,,t5.png,t4.png,1,0.90025,18,Female,2020-11-09_19h17.29.039,torte-q,2020.1.3,Win32,60,13894,,,,,0,85,85,34,1,,,,,,,,,,,,,,,,,,,,,,,,,,,,,,,,,,,
,,,,,,,,,,,,a,0.792145,Correct!,,,,,,t1.png,t1.png,0,0.97829,18,Female,2020-11-09_19h17.29.039,torte-q,2020.1.3,Win32,60,13894,,,,,0,86,86,67,1,,,,,,,,,,,,,,,,,,,,,,,,,,,,,,,,,,,
,,,,,,,,,,,,a,0.94065,Correct!,,,,,,t2.png,t2.png,0,0.981,18,Female,2020-11-09_19h17.29.039,torte-q,2020.1.3,Win32,60,13894,,,,,0,87,87,101,1,,,,,,,,,,,,,,,,,,,,,,,,,,,,,,,,,,,
,,,,,,,,,,,,a,0.75013,Correct!,,,,,,t1.png,t2.png,1,0.90025,18,Female,2020-11-09_19h17.29.039,torte-q,2020.1.3,Win32,60,13894,,,,,0,88,88,112,1,,,,,,,,,,,,,,,,,,,,,,,,,,,,,,,,,,,
,,,,,,,,,,,,l,0.928125,Incorrect,,,,,,t1.png,t3.png,2,0.056466,18,Female,2020-11-09_19h17.29.039,torte-q,2020.1.3,Win32,60,13894,,,,,0,89,89,60,1,,,,,,,,,,,,,,,,,,,,,,,,,,,,,,,,,,,
,,,,,,,,,,,,a,0.811155,Correct!,,,,,,t1.png,t2.png,1,0.90025,18,Female,2020-11-09_19h17.29.039,torte-q,2020.1.3,Win32,60,13894,,,,,0,90,90,33,1,,,,,,,,,,,,,,,,,,,,,,,,,,,,,,,,,,,
,,,,,,,,,,,,l,0.607655,Incorrect,,,,,,t2.png,t2.png,0,0.98115,18,Female,2020-11-09_19h17.29.039,torte-q,2020.1.3,Win32,60,13894,,,,,0,91,91,7,1,,,,,,,,,,,,,,,,,,,,,,,,,,,,,,,,,,,
,,,,,,,,,,,,a,1.921835,Correct!,,,,,,t4.png,t5.png,1,0.90025,18,Female,2020-11-09_19h17.29.039,torte-q,2020.1.3,Win32,60,13894,,,,,0,92,92,58,1,,,,,,,,,,,,,,,,,,,,,,,,,,,,,,,,,,,
,,,,,,,,,,,,l,0.89228,Correct!,,,,,,t3.png,t1.png,2,0.056466,18,Female,2020-11-09_19h17.29.039,torte-q,2020.1.3,Win32,60,13894,,,,,0,93,93,29,1,,,,,,,,,,,,,,,,,,,,,,,,,,,,,,,,,,,
,,,,,,,,,,,,l,1.12502,Correct!,,,,,,t5.png,t3.png,2,0.056466,18,Female,2020-11-09_19h17.29.039,torte-q,2020.1.3,Win32,60,13894,,,,,0,94,94,114,1,,,,,,,,,,,,,,,,,,,,,,,,,,,,,,,,,,,
,,,,,,,,,,,,l,0.74963,Correct!,,,,,,t1.png,t3.png,2,0.056466,18,Female,2020-11-09_19h17.29.039,torte-q,2020.1.3,Win32,60,13894,,,,,0,95,95,99,1,,,,,,,,,,,,,,,,,,,,,,,,,,,,,,,,,,,
,,,,,,,,,,,,a,0.675705,Correct!,,,,,,t1.png,t1.png,0,0.978,18,Female,2020-11-09_19h17.29.039,torte-q,2020.1.3,Win32,60,13894,,,,,0,96,96,54,1,,,,,,,,,,,,,,,,,,,,,,,,,,,,,,,,,,,
,,,,,,,,,,,,l,1.18455,Incorrect,,,,,,t4.png,t3.png,1,0.909,18,Female,2020-11-09_19h17.29.039,torte-q,2020.1.3,Win32,60,13894,,,,,0,97,97,46,1,,,,,,,,,,,,,,,,,,,,,,,,,,,,,,,,,,,
,,,,,,,,,,,,a,0.84948,Correct!,,,,,,t2.png,t1.png,1,0.9,18,Female,2020-11-09_19h17.29.039,torte-q,2020.1.3,Win32,60,13894,,,,,0,98,98,118,1,,,,,,,,,,,,,,,,,,,,,,,,,,,,,,,,,,,
,,,,,,,,,,,,l,1.03309,Correct!,,,,,,t5.png,t3.png,2,0.0565,18,Female,2020-11-09_19h17.29.039,torte-q,2020.1.3,Win32,60,13894,,,,,0,99,99,39,1,,,,,,,,,,,,,,,,,,,,,,,,,,,,,,,,,,,
,,,,,,,,,,,,a,0.85699,Correct!,,,,,,t2.png,t2.png,0,0.98115,18,Female,2020-11-09_19h17.29.039,torte-q,2020.1.3,Win32,60,13894,,,,,0,100,100,57,1,,,,,,,,,,,,,,,,,,,,,,,,,,,,,,,,,,,
,,,,,,,,,,,,a,0.78662,Correct!,,,,,,t1.png,t2.png,1,0.9,18,Female,2020-11-09_19h17.29.039,torte-q,2020.1.3,Win32,60,13894,,,,,0,101,101,1,1,,,,,,,,,,,,,,,,,,,,,,,,,,,,,,,,,,,
,,,,,,,,,,,,a,1.100685,Incorrect,,,,,,t5.png,t2.png,3,0.0000131,18,Female,2020-11-09_19h17.29.039,torte-q,2020.1.3,Win32,60,13894,,,,,0,102,102,51,1,,,,,,,,,,,,,,,,,,,,,,,,,,,,,,,,,,,
,,,,,,,,,,,,a,0.787345,Correct!,,,,,,t1.png,t2.png,1,0.90025,18,Female,2020-11-09_19h17.29.039,torte-q,2020.1.3,Win32,60,13894,,,,,0,103,103,72,1,,,,,,,,,,,,,,,,,,,,,,,,,,,,,,,,,,,
,,,,,,,,,,,,a,1.169425,Correct!,,,,,,t3.png,t2.png,1,0.90855,18,Female,2020-11-09_19h17.29.039,torte-q,2020.1.3,Win32,60,13894,,,,,0,104,104,18,1,,,,,,,,,,,,,,,,,,,,,,,,,,,,,,,,,,,
,,,,,,,,,,,,a,0.949775,Incorrect,,,,,,t4.png,t1.png,3,0.0000131,18,Female,2020-11-09_19h17.29.039,torte-q,2020.1.3,Win32,60,13894,,,,,0,105,105,93,1,,,,,,,,,,,,,,,,,,,,,,,,,,,,,,,,,,,
,,,,,,,,,,,,l,0.937635,Correct!,,,,,,t1.png,t3.png,2,0.056466,18,Female,2020-11-09_19h17.29.039,torte-q,2020.1.3,Win32,60,13894,,,,,0,106,106,87,1,,,,,,,,,,,,,,,,,,,,,,,,,,,,,,,,,,,
,,,,,,,,,,,,l,0.932685,Correct!,,,,,,t4.png,t2.png,2,0.059078,18,Female,2020-11-09_19h17.29.039,torte-q,2020.1.3,Win32,60,13894,,,,,0,107,107,109,1,,,,,,,,,,,,,,,,,,,,,,,,,,,,,,,,,,,
,,,,,,,,,,,,l,0.717085,Correct!,,,,,,t5.png,t1.png,4,9.55E-11,18,Female,2020-11-09_19h17.29.039,torte-q,2020.1.3,Win32,60,13894,,,,,0,108,108,102,1,,,,,,,,,,,,,,,,,,,,,,,,,,,,,,,,,,,
,,,,,,,,,,,,a,0.81649,Incorrect,,,,,,t2.png,t5.png,3,0.0000131,18,Female,2020-11-09_19h17.29.039,torte-q,2020.1.3,Win32,60,13894,,,,,0,109,109,66,1,,,,,,,,,,,,,,,,,,,,,,,,,,,,,,,,,,,
,,,,,,,,,,,,a,0.723345,Correct!,,,,,,t2.png,t1.png,1,0.90025,18,Female,2020-11-09_19h17.29.039,torte-q,2020.1.3,Win32,60,13894,,,,,0,110,110,19,1,,,,,,,,,,,,,,,,,,,,,,,,,,,,,,,,,,,
,,,,,,,,,,,,a,1.03375,Correct!,,,,,,t2.png,t3.png,1,0.909,18,Female,2020-11-09_19h17.29.039,torte-q,2020.1.3,Win32,60,13894,,,,,0,111,111,74,1,,,,,,,,,,,,,,,,,,,,,,,,,,,,,,,,,,,
,,,,,,,,,,,,l,1.316445,Correct!,,,,,,t3.png,t5.png,2,0.056466,18,Female,2020-11-09_19h17.29.039,torte-q,2020.1.3,Win32,60,13894,,,,,0,112,112,6,1,,,,,,,,,,,,,,,,,,,,,,,,,,,,,,,,,,,
,,,,,,,,,,,,a,1.65031,Correct!,,,,,,t4.png,t5.png,1,0.90025,18,Female,2020-11-09_19h17.29.039,torte-q,2020.1.3,Win32,60,13894,,,,,0,113,113,103,1,,,,,,,,,,,,,,,,,,,,,,,,,,,,,,,,,,,
,,,,,,,,,,,,l,1.13323,Correct!,,,,,,t3.png,t5.png,2,0.0565,18,Female,2020-11-09_19h17.29.039,torte-q,2020.1.3,Win32,60,13894,,,,,0,114,114,30,1,,,,,,,,,,,,,,,,,,,,,,,,,,,,,,,,,,,
,,,,,,,,,,,,a,1.3495,Correct!,,,,,,t4.png,t5.png,1,0.90025,18,Female,2020-11-09_19h17.29.039,torte-q,2020.1.3,Win32,60,13894,,,,,0,115,115,113,1,,,,,,,,,,,,,,,,,,,,,,,,,,,,,,,,,,,
,,,,,,,,,,,,l,1.79216,Correct!,,,,,,t5.png,t3.png,2,0.056466,18,Female,2020-11-09_19h17.29.039,torte-q,2020.1.3,Win32,60,13894,,,,,0,116,116,56,1,,,,,,,,,,,,,,,,,,,,,,,,,,,,,,,,,,,
,,,,,,,,,,,,l,0.900185,Correct!,,,,,,t1.png,t5.png,4,9.55E-11,18,Female,2020-11-09_19h17.29.039,torte-q,2020.1.3,Win32,60,13894,,,,,0,117,117,12,1,,,,,,,,,,,,,,,,,,,,,,,,,,,,,,,,,,,
,,,,,,,,,,,,a,0.97763,Incorrect,,,,,,t4.png,t1.png,3,0.0000131,18,Female,2020-11-09_19h17.29.039,torte-q,2020.1.3,Win32,60,13894,,,,,0,118,118,61,1,,,,,,,,,,,,,,,,,,,,,,,,,,,,,,,,,,,
,,,,,,,,,,,,l,0.788035,Correct!,,,,,,t2.png,t4.png,2,0.0591,18,Female,2020-11-09_19h17.29.039,torte-q,2020.1.3,Win32,60,13894,,,,,0,119,119,15,1,,,,,,,,,,,,,,,,,,,,,,,,,,,,,,,,,,,
,,,,,,,,,,,,a,1.016435,Correct!,,,,,,t5.png,t5.png,0,0.97829,18,Female,2020-11-09_19h17.29.039,torte-q,2020.1.3,Win32,60,13894,space,1.54828,,,,,,,,space,10.609785,space,2.38559,0,0,0,70,1,,,,,,,,,,,,,,,,,,,,,,,,,,
,,,,,,,,,,,,a,1.058575,Incorrect,,,,,,t4.png,t1.png,3,0.0000131,18,Female,2020-11-09_19h17.29.039,torte-q,2020.1.3,Win32,60,13894,,,,,,,,,,,,,,0,1,1,48,1,,,,,,,,,,,,,,,,,,,,,,,,,,
,,,,,,,,,,,,a,0.83067,Correct!,,,,,,t5.png,t5.png,0,0.97829,18,Female,2020-11-09_19h17.29.039,torte-q,2020.1.3,Win32,60,13894,,,,,,,,,,,,,,0,2,2,73,1,,,,,,,,,,,,,,,,,,,,,,,,,,
,,,,,,,,,,,,a,0.90034,Correct!,,,,,,t2.png,t3.png,1,0.909,18,Female,2020-11-09_19h17.29.039,torte-q,2020.1.3,Win32,60,13894,,,,,,,,,,,,,,0,3,3,74,1,,,,,,,,,,,,,,,,,,,,,,,,,,
,,,,,,,,,,,,l,0.65024,Correct!,,,,,,t5.png,t1.png,4,9.55E-11,18,Female,2020-11-09_19h17.29.039,torte-q,2020.1.3,Win32,60,13894,,,,,,,,,,,,,,0,4,4,43,1,,,,,,,,,,,,,,,,,,,,,,,,,,
,,,,,,,,,,,,a,0.650765,Correct!,,,,,,t2.png,t3.png,1,0.90855,18,Female,2020-11-09_19h17.29.039,torte-q,2020.1.3,Win32,60,13894,,,,,,,,,,,,,,0,5,5,65,1,,,,,,,,,,,,,,,,,,,,,,,,,,
,,,,,,,,,,,,a,0.749875,Correct!,,,,,,t1.png,t2.png,1,0.90025,18,Female,2020-11-09_19h17.29.039,torte-q,2020.1.3,Win32,60,13894,,,,,,,,,,,,,,0,6,6,112,1,,,,,,,,,,,,,,,,,,,,,,,,,,
,,,,,,,,,,,,a,1.000975,Correct!,,,,,,t4.png,t5.png,1,0.9,18,Female,2020-11-09_19h17.29.039,torte-q,2020.1.3,Win32,60,13894,,,,,,,,,,,,,,0,7,7,115,1,,,,,,,,,,,,,,,,,,,,,,,,,,
,,,,,,,,,,,,l,1.396635,Correct!,,,,,,t5.png,t3.png,2,0.056466,18,Female,2020-11-09_19h17.29.039,torte-q,2020.1.3,Win32,60,13894,,,,,,,,,,,,,,0,8,8,56,1,,,,,,,,,,,,,,,,,,,,,,,,,,
,,,,,,,,,,,,l,2.249045,Incorrect,,,,,,t5.png,t5.png,0,0.978,18,Female,2020-11-09_19h17.29.039,torte-q,2020.1.3,Win32,60,13894,,,,,,,,,,,,,,0,9,9,117,1,,,,,,,,,,,,,,,,,,,,,,,,,,
,,,,,,,,,,,,l,1.021085,Correct!,,,,,,t5.png,t3.png,2,0.056466,18,Female,2020-11-09_19h17.29.039,torte-q,2020.1.3,Win32,60,13894,,,,,,,,,,,,,,0,10,10,108,1,,,,,,,,,,,,,,,,,,,,,,,,,,
,,,,,,,,,,,,l,0.717085,Correct!,,,,,,t5.png,t1.png,4,9.55E-11,18,Female,2020-11-09_19h17.29.039,torte-q,2020.1.3,Win32,60,13894,,,,,,,,,,,,,,0,11,11,100,1,,,,,,,,,,,,,,,,,,,,,,,,,,
,,,,,,,,,,,,a,1.754125,Correct!,,,,,,t4.png,t3.png,1,0.90855,18,Female,2020-11-09_19h17.29.039,torte-q,2020.1.3,Win32,60,13894,,,,,,,,,,,,,,0,12,12,45,1,,,,,,,,,,,,,,,,,,,,,,,,,,
,,,,,,,,,,,,a,1.36624,Correct!,,,,,,t3.png,t2.png,1,0.90855,18,Female,2020-11-09_19h17.29.039,torte-q,2020.1.3,Win32,60,13894,,,,,,,,,,,,,,0,13,13,97,1,,,,,,,,,,,,,,,,,,,,,,,,,,
,,,,,,,,,,,,a,1.166655,Incorrect,,,,,,t1.png,t4.png,3,0.0000131,18,Female,2020-11-09_19h17.29.039,torte-q,2020.1.3,Win32,60,13894,,,,,,,,,,,,,,0,14,14,81,1,,,,,,,,,,,,,,,,,,,,,,,,,,
,,,,,,,,,,,,l,1.183595,Correct!,,,,,,t3.png,t1.png,2,0.0565,18,Female,2020-11-09_19h17.29.039,torte-q,2020.1.3,Win32,60,13894,,,,,,,,,,,,,,0,15,15,31,1,,,,,,,,,,,,,,,,,,,,,,,,,,
,,,,,,,,,,,,l,0.766575,Correct!,,,,,,t1.png,t5.png,4,9.55E-11,18,Female,2020-11-09_19h17.29.039,torte-q,2020.1.3,Win32,60,13894,,,,,,,,,,,,,,0,16,16,12,1,,,,,,,,,,,,,,,,,,,,,,,,,,
,,,,,,,,,,,,a,1.16659,Correct!,,,,,,t4.png,t4.png,0,0.98115,18,Female,2020-11-09_19h17.29.039,torte-q,2020.1.3,Win32,60,13894,,,,,,,,,,,,,,0,17,17,21,1,,,,,,,,,,,,,,,,,,,,,,,,,,
,,,,,,,,,,,,a,1.650895,Correct!,,,,,,t4.png,t3.png,1,0.90855,18,Female,2020-11-09_19h17.29.039,torte-q,2020.1.3,Win32,60,13894,,,,,,,,,,,,,,0,18,18,35,1,,,,,,,,,,,,,,,,,,,,,,,,,,
,,,,,,,,,,,,l,1.06994,Correct!,,,,,,t2.png,t4.png,2,0.059078,18,Female,2020-11-09_19h17.29.039,torte-q,2020.1.3,Win32,60,13894,,,,,,,,,,,,,,0,19,19,37,1,,,,,,,,,,,,,,,,,,,,,,,,,,
,,,,,,,,,,,,a,1.61653,Incorrect,,,,,,t2.png,t5.png,3,0.0000131,18,Female,2020-11-09_19h17.29.039,torte-q,2020.1.3,Win32,60,13894,,,,,,,,,,,,,,0,20,20,104,1,,,,,,,,,,,,,,,,,,,,,,,,,,
,,,,,,,,,,,,l,0.99328,Correct!,,,,,,t5.png,t3.png,2,0.056466,18,Female,2020-11-09_19h17.29.039,torte-q,2020.1.3,Win32,60,13894,,,,,,,,,,,,,,0,21,21,114,1,,,,,,,,,,,,,,,,,,,,,,,,,,
,,,,,,,,,,,,l,1.0336,Correct!,,,,,,t1.png,t3.png,2,0.056466,18,Female,2020-11-09_19h17.29.039,torte-q,2020.1.3,Win32,60,13894,,,,,,,,,,,,,,0,22,22,63,1,,,,,,,,,,,,,,,,,,,,,,,,,,
,,,,,,,,,,,,a,1.220485,Correct!,,,,,,t4.png,t4.png,0,0.98115,18,Female,2020-11-09_19h17.29.039,torte-q,2020.1.3,Win32,60,13894,,,,,,,,,,,,,,0,23,23,79,1,,,,,,,,,,,,,,,,,,,,,,,,,,
,,,,,,,,,,,,a,1.3552,Correct!,,,,,,t5.png,t4.png,1,0.90025,18,Female,2020-11-09_19h17.29.039,torte-q,2020.1.3,Win32,60,13894,,,,,,,,,,,,,,0,24,24,27,1,,,,,,,,,,,,,,,,,,,,,,,,,,
,,,,,,,,,,,,a,1.616705,Correct!,,,,,,t1.png,t2.png,1,0.90025,18,Female,2020-11-09_19h17.29.039,torte-q,2020.1.3,Win32,60,13894,,,,,,,,,,,,,,0,25,25,33,1,,,,,,,,,,,,,,,,,,,,,,,,,,
,,,,,,,,,,,,,,Too slow :(,,,,,,t4.png,t5.png,1,0.90025,18,Female,2020-11-09_19h17.29.039,torte-q,2020.1.3,Win32,60,13894,,,,,,,,,,,,,,0,26,26,47,1,,,,,,,,,,,,,,,,,,,,,,,,,,
,,,,,,,,,,,,a,0.849715,Correct!,,,,,,t1.png,t2.png,1,0.90025,18,Female,2020-11-09_19h17.29.039,torte-q,2020.1.3,Win32,60,13894,,,,,,,,,,,,,,0,27,27,72,1,,,,,,,,,,,,,,,,,,,,,,,,,,
,,,,,,,,,,,,l,0.90113,Correct!,,,,,,t5.png,t3.png,2,0.0565,18,Female,2020-11-09_19h17.29.039,torte-q,2020.1.3,Win32,60,13894,,,,,,,,,,,,,,0,28,28,39,1,,,,,,,,,,,,,,,,,,,,,,,,,,
,,,,,,,,,,,,l,0.738585,Correct!,,,,,,t1.png,t5.png,4,9.55E-11,18,Female,2020-11-09_19h17.29.039,torte-q,2020.1.3,Win32,60,13894,,,,,,,,,,,,,,0,29,29,55,1,,,,,,,,,,,,,,,,,,,,,,,,,,
,,,,,,,,,,,,l,0.899925,Correct!,,,,,,t1.png,t3.png,2,0.056466,18,Female,2020-11-09_19h17.29.039,torte-q,2020.1.3,Win32,60,13894,,,,,,,,,,,,,,0,30,30,60,1,,,,,,,,,,,,,,,,,,,,,,,,,,
,,,,,,,,,,,,,,Too slow :(,,,,,,t4.png,t5.png,1,0.90025,18,Female,2020-11-09_19h17.29.039,torte-q,2020.1.3,Win32,60,13894,,,,,,,,,,,,,,0,31,31,103,1,,,,,,,,,,,,,,,,,,,,,,,,,,
,,,,,,,,,,,,a,1.84937,Correct!,,,,,,t5.png,t4.png,1,0.90025,18,Female,2020-11-09_19h17.29.039,torte-q,2020.1.3,Win32,60,13894,,,,,,,,,,,,,,0,32,32,34,1,,,,,,,,,,,,,,,,,,,,,,,,,,
,,,,,,,,,,,,l,0.716535,Correct!,,,,,,t5.png,t1.png,4,9.55E-11,18,Female,2020-11-09_19h17.29.039,torte-q,2020.1.3,Win32,60,13894,,,,,,,,,,,,,,0,33,33,102,1,,,,,,,,,,,,,,,,,,,,,,,,,,
,,,,,,,,,,,,a,0.68372,Correct!,,,,,,t2.png,t2.png,0,0.98115,18,Female,2020-11-09_19h17.29.039,torte-q,2020.1.3,Win32,60,13894,,,,,,,,,,,,,,0,34,34,2,1,,,,,,,,,,,,,,,,,,,,,,,,,,
,,,,,,,,,,,,a,1.2128,Incorrect,,,,,,t5.png,t2.png,3,0.0000131,18,Female,2020-11-09_19h17.29.039,torte-q,2020.1.3,Win32,60,13894,,,,,,,,,,,,,,0,35,35,116,1,,,,,,,,,,,,,,,,,,,,,,,,,,
,,,,,,,,,,,,l,1.533555,Correct!,,,,,,t5.png,t3.png,2,0.056466,18,Female,2020-11-09_19h17.29.039,torte-q,2020.1.3,Win32,60,13894,,,,,,,,,,,,,,0,36,36,38,1,,,,,,,,,,,,,,,,,,,,,,,,,,
,,,,,,,,,,,,l,0.678105,Correct!,,,,,,t1.png,t5.png,4,9.55E-11,18,Female,2020-11-09_19h17.29.039,torte-q,2020.1.3,Win32,60,13894,,,,,,,,,,,,,,0,37,37,41,1,,,,,,,,,,,,,,,,,,,,,,,,,,
,,,,,,,,,,,,a,1.033425,Correct!,,,,,,t2.png,t1.png,1,0.90025,18,Female,2020-11-09_19h17.29.039,torte-q,2020.1.3,Win32,60,13894,,,,,,,,,,,,,,0,38,38,5,1,,,,,,,,,,,,,,,,,,,,,,,,,,
,,,,,,,,,,,,l,0.850125,Correct!,,,,,,t3.png,t1.png,2,0.056466,18,Female,2020-11-09_19h17.29.039,torte-q,2020.1.3,Win32,60,13894,,,,,,,,,,,,,,0,39,39,0,1,,,,,,,,,,,,,,,,,,,,,,,,,,
,,,,,,,,,,,,a,0.715965,Correct!,,,,,,t2.png,t1.png,1,0.90025,18,Female,2020-11-09_19h17.29.039,torte-q,2020.1.3,Win32,60,13894,,,,,,,,,,,,,,0,40,40,62,1,,,,,,,,,,,,,,,,,,,,,,,,,,
,,,,,,,,,,,,l,0.683715,Correct!,,,,,,t1.png,t5.png,4,9.55E-11,18,Female,2020-11-09_19h17.29.039,torte-q,2020.1.3,Win32,60,13894,,,,,,,,,,,,,,0,41,41,16,1,,,,,,,,,,,,,,,,,,,,,,,,,,
,,,,,,,,,,,,a,0.783195,Incorrect,,,,,,t4.png,t1.png,3,0.0000131,18,Female,2020-11-09_19h17.29.039,torte-q,2020.1.3,Win32,60,13894,,,,,,,,,,,,,,0,42,42,61,1,,,,,,,,,,,,,,,,,,,,,,,,,,
,,,,,,,,,,,,l,1.166215,Correct!,,,,,,t3.png,t5.png,2,0.056466,18,Female,2020-11-09_19h17.29.039,torte-q,2020.1.3,Win32,60,13894,,,,,,,,,,,,,,0,43,43,44,1,,,,,,,,,,,,,,,,,,,,,,,,,,
,,,,,,,,,,,,a,0.900285,Correct!,,,,,,t3.png,t2.png,1,0.90855,18,Female,2020-11-09_19h17.29.039,torte-q,2020.1.3,Win32,60,13894,,,,,,,,,,,,,,0,44,44,53,1,,,,,,,,,,,,,,,,,,,,,,,,,,
,,,,,,,,,,,,a,0.84386,Incorrect,,,,,,t4.png,t1.png,3,0.0000131,18,Female,2020-11-09_19h17.29.039,torte-q,2020.1.3,Win32,60,13894,,,,,,,,,,,,,,0,45,45,13,1,,,,,,,,,,,,,,,,,,,,,,,,,,
,,,,,,,,,,,,a,1.11745,Incorrect,,,,,,t1.png,t4.png,3,0.0000131,18,Female,2020-11-09_19h17.29.039,torte-q,2020.1.3,Win32,60,13894,,,,,,,,,,,,,,0,46,46,50,1,,,,,,,,,,,,,,,,,,,,,,,,,,
,,,,,,,,,,,,a,1.18323,Incorrect,,,,,,t5.png,t2.png,3,0.0000131,18,Female,2020-11-09_19h17.29.039,torte-q,2020.1.3,Win32,60,13894,,,,,,,,,,,,,,0,47,47,51,1,,,,,,,,,,,,,,,,,,,,,,,,,,
,,,,,,,,,,,,a,0.833535,Correct!,,,,,,t5.png,t5.png,0,0.97829,18,Female,2020-11-09_19h17.29.039,torte-q,2020.1.3,Win32,60,13894,,,,,,,,,,,,,,0,48,48,25,1,,,,,,,,,,,,,,,,,,,,,,,,,,
,,,,,,,,,,,,a,0.88506,Correct!,,,,,,t4.png,t4.png,0,0.98115,18,Female,2020-11-09_19h17.29.039,torte-q,2020.1.3,Win32,60,13894,,,,,,,,,,,,,,0,49,49,80,1,,,,,,,,,,,,,,,,,,,,,,,,,,
,,,,,,,,,,,,a,0.816875,Incorrect,,,,,,t2.png,t5.png,3,0.0000131,18,Female,2020-11-09_19h17.29.039,torte-q,2020.1.3,Win32,60,13894,,,,,,,,,,,,,,0,50,50,95,1,,,,,,,,,,,,,,,,,,,,,,,,,,
,,,,,,,,,,,,a,0.683615,Correct!,,,,,,t5.png,t5.png,0,0.97829,18,Female,2020-11-09_19h17.29.039,torte-q,2020.1.3,Win32,60,13894,,,,,,,,,,,,,,0,51,51,94,1,,,,,,,,,,,,,,,,,,,,,,,,,,
,,,,,,,,,,,,l,0.883105,Correct!,,,,,,t2.png,t4.png,2,0.059078,18,Female,2020-11-09_19h17.29.039,torte-q,2020.1.3,Win32,60,13894,,,,,,,,,,,,,,0,52,52,24,1,,,,,,,,,,,,,,,,,,,,,,,,,,
,,,,,,,,,,,,a,0.83324,Incorrect,,,,,,t2.png,t5.png,3,0.0000131,18,Female,2020-11-09_19h17.29.039,torte-q,2020.1.3,Win32,60,13894,,,,,,,,,,,,,,0,53,53,8,1,,,,,,,,,,,,,,,,,,,,,,,,,,
,,,,,,,,,,,,a,0.74968,Correct!,,,,,,t2.png,t1.png,1,0.9,18,Female,2020-11-09_19h17.29.039,torte-q,2020.1.3,Win32,60,13894,,,,,,,,,,,,,,0,54,54,118,1,,,,,,,,,,,,,,,,,,,,,,,,,,
,,,,,,,,,,,,a,1.149185,Correct!,,,,,,t4.png,t3.png,1,0.90855,18,Female,2020-11-09_19h17.29.039,torte-q,2020.1.3,Win32,60,13894,,,,,,,,,,,,,,0,55,55,75,1,,,,,,,,,,,,,,,,,,,,,,,,,,
,,,,,,,,,,,,l,0.766185,Correct!,,,,,,t5.png,t1.png,4,9.55E-11,18,Female,2020-11-09_19h17.29.039,torte-q,2020.1.3,Win32,60,13894,,,,,,,,,,,,,,0,56,56,71,1,,,,,,,,,,,,,,,,,,,,,,,,,,
,,,,,,,,,,,,a,0.91365,Correct!,,,,,,t3.png,t4.png,1,0.90855,18,Female,2020-11-09_19h17.29.039,torte-q,2020.1.3,Win32,60,13894,,,,,,,,,,,,,,0,57,57,96,1,,,,,,,,,,,,,,,,,,,,,,,,,,
,,,,,,,,,,,,a,0.94989,Correct!,,,,,,t2.png,t3.png,1,0.90855,18,Female,2020-11-09_19h17.29.039,torte-q,2020.1.3,Win32,60,13894,,,,,,,,,,,,,,0,58,58,68,1,,,,,,,,,,,,,,,,,,,,,,,,,,
,,,,,,,,,,,,l,0.78322,Correct!,,,,,,t4.png,t2.png,2,0.059078,18,Female,2020-11-09_19h17.29.039,torte-q,2020.1.3,Win32,60,13894,,,,,,,,,,,,,,0,59,59,86,1,,,,,,,,,,,,,,,,,,,,,,,,,,
,,,,,,,,,,,,l,1.20781,Correct!,,,,,,t3.png,t5.png,2,0.056466,18,Female,2020-11-09_19h17.29.039,torte-q,2020.1.3,Win32,60,13894,,,,,,,,,,,,,,0,60,60,14,1,,,,,,,,,,,,,,,,,,,,,,,,,,
,,,,,,,,,,,,l,0.937145,Correct!,,,,,,t4.png,t2.png,2,0.059078,18,Female,2020-11-09_19h17.29.039,torte-q,2020.1.3,Win32,60,13894,,,,,,,,,,,,,,0,61,61,109,1,,,,,,,,,,,,,,,,,,,,,,,,,,
,,,,,,,,,,,,a,0.96704,Correct!,,,,,,t3.png,t4.png,1,0.909,18,Female,2020-11-09_19h17.29.039,torte-q,2020.1.3,Win32,60,13894,,,,,,,,,,,,,,0,62,62,106,1,,,,,,,,,,,,,,,,,,,,,,,,,,
,,,,,,,,,,,,a,1.12014,Correct!,,,,,,t4.png,t4.png,0,0.98115,18,Female,2020-11-09_19h17.29.039,torte-q,2020.1.3,Win32,60,13894,,,,,,,,,,,,,,0,63,63,52,1,,,,,,,,,,,,,,,,,,,,,,,,,,
,,,,,,,,,,,,a,0.72341,Correct!,,,,,,t1.png,t1.png,0,0.97829,18,Female,2020-11-09_19h17.29.039,torte-q,2020.1.3,Win32,60,13894,,,,,,,,,,,,,,0,64,64,78,1,,,,,,,,,,,,,,,,,,,,,,,,,,
,,,,,,,,,,,,l,0.904215,Correct!,,,,,,t2.png,t4.png,2,0.059078,18,Female,2020-11-09_19h17.29.039,torte-q,2020.1.3,Win32,60,13894,,,,,,,,,,,,,,0,65,65,11,1,,,,,,,,,,,,,,,,,,,,,,,,,,
,,,,,,,,,,,,a,0.683275,Incorrect,,,,,,t3.png,t1.png,2,0.056466,18,Female,2020-11-09_19h17.29.039,torte-q,2020.1.3,Win32,60,13894,,,,,,,,,,,,,,0,66,66,64,1,,,,,,,,,,,,,,,,,,,,,,,,,,
,,,,,,,,,,,,a,1.01619,Incorrect,,,,,,t5.png,t2.png,3,0.0000131,18,Female,2020-11-09_19h17.29.039,torte-q,2020.1.3,Win32,60,13894,,,,,,,,,,,,,,0,67,67,119,1,,,,,,,,,,,,,,,,,,,,,,,,,,
,,,,,,,,,,,,a,0.78655,Correct!,,,,,,t2.png,t1.png,1,0.90025,18,Female,2020-11-09_19h17.29.039,torte-q,2020.1.3,Win32,60,13894,,,,,,,,,,,,,,0,68,68,4,1,,,,,,,,,,,,,,,,,,,,,,,,,,
,,,,,,,,,,,,a,0.72038,Correct!,,,,,,t2.png,t2.png,0,0.98115,18,Female,2020-11-09_19h17.29.039,torte-q,2020.1.3,Win32,60,13894,,,,,,,,,,,,,,0,69,69,7,1,,,,,,,,,,,,,,,,,,,,,,,,,,
,,,,,,,,,,,,l,1.10056,Correct!,,,,,,t3.png,t5.png,2,0.056466,18,Female,2020-11-09_19h17.29.039,torte-q,2020.1.3,Win32,60,13894,,,,,,,,,,,,,,0,70,70,6,1,,,,,,,,,,,,,,,,,,,,,,,,,,
,,,,,,,,,,,,l,1.0327,Correct!,,,,,,t1.png,t3.png,2,0.056466,18,Female,2020-11-09_19h17.29.039,torte-q,2020.1.3,Win32,60,13894,,,,,,,,,,,,,,0,71,71,87,1,,,,,,,,,,,,,,,,,,,,,,,,,,
,,,,,,,,,,,,a,0.66662,Correct!,,,,,,t1.png,t1.png,0,0.978,18,Female,2020-11-09_19h17.29.039,torte-q,2020.1.3,Win32,60,13894,,,,,,,,,,,,,,0,72,72,28,1,,,,,,,,,,,,,,,,,,,,,,,,,,
,,,,,,,,,,,,a,0.7003,Incorrect,,,,,,t2.png,t5.png,3,0.0000131,18,Female,2020-11-09_19h17.29.039,torte-q,2020.1.3,Win32,60,13894,,,,,,,,,,,,,,0,73,73,66,1,,,,,,,,,,,,,,,,,,,,,,,,,,
,,,,,,,,,,,,l,1.066375,Correct!,,,,,,t3.png,t5.png,2,0.0565,18,Female,2020-11-09_19h17.29.039,torte-q,2020.1.3,Win32,60,13894,,,,,,,,,,,,,,0,74,74,30,1,,,,,,,,,,,,,,,,,,,,,,,,,,
,,,,,,,,,,,,a,1.21615,Incorrect,,,,,,t4.png,t1.png,3,0.0000131,18,Female,2020-11-09_19h17.29.039,torte-q,2020.1.3,Win32,60,13894,,,,,,,,,,,,,,0,75,75,42,1,,,,,,,,,,,,,,,,,,,,,,,,,,
,,,,,,,,,,,,a,0.72043,Correct!,,,,,,t1.png,t1.png,0,0.97829,18,Female,2020-11-09_19h17.29.039,torte-q,2020.1.3,Win32,60,13894,,,,,,,,,,,,,,0,76,76,67,1,,,,,,,,,,,,,,,,,,,,,,,,,,
,,,,,,,,,,,,a,0.86746,Incorrect,,,,,,t1.png,t2.png,1,0.9,18,Female,2020-11-09_19h17.29.039,torte-q,2020.1.3,Win32,60,13894,,,,,,,,,,,,,,0,77,77,1,1,,,,,,,,,,,,,,,,,,,,,,,,,,
,,,,,,,,,,,,a,0.68424,Correct!,,,,,,t1.png,t1.png,0,0.978,18,Female,2020-11-09_19h17.29.039,torte-q,2020.1.3,Win32,60,13894,,,,,,,,,,,,,,0,78,78,54,1,,,,,,,,,,,,,,,,,,,,,,,,,,
,,,,,,,,,,,,a,0.88349,Correct!,,,,,,t1.png,t2.png,1,0.90025,18,Female,2020-11-09_19h17.29.039,torte-q,2020.1.3,Win32,60,13894,,,,,,,,,,,,,,0,79,79,105,1,,,,,,,,,,,,,,,,,,,,,,,,,,
,,,,,,,,,,,,a,0.84982,Correct!,,,,,,t4.png,t4.png,0,0.98115,18,Female,2020-11-09_19h17.29.039,torte-q,2020.1.3,Win32,60,13894,,,,,,,,,,,,,,0,80,80,90,1,,,,,,,,,,,,,,,,,,,,,,,,,,
,,,,,,,,,,,,l,1.01703,Correct!,,,,,,t2.png,t4.png,2,0.0591,18,Female,2020-11-09_19h17.29.039,torte-q,2020.1.3,Win32,60,13894,,,,,,,,,,,,,,0,81,81,15,1,,,,,,,,,,,,,,,,,,,,,,,,,,
,,,,,,,,,,,,a,1.032385,Incorrect,,,,,,t1.png,t4.png,3,0.0000131,18,Female,2020-11-09_19h17.29.039,torte-q,2020.1.3,Win32,60,13894,,,,,,,,,,,,,,0,82,82,107,1,,,,,,,,,,,,,,,,,,,,,,,,,,
,,,,,,,,,,,,l,1.103785,Correct!,,,,,,t3.png,t4.png,1,0.909,18,Female,2020-11-09_19h17.29.039,torte-q,2020.1.3,Win32,60,13894,,,,,,,,,,,,,,0,83,83,82,1,,,,,,,,,,,,,,,,,,,,,,,,,,
,,,,,,,,,,,,a,1.54289,Correct!,,,,,,t4.png,t5.png,1,0.90025,18,Female,2020-11-09_19h17.29.039,torte-q,2020.1.3,Win32,60,13894,,,,,,,,,,,,,,0,84,84,58,1,,,,,,,,,,,,,,,,,,,,,,,,,,
,,,,,,,,,,,,l,1.432365,Correct!,,,,,,t4.png,t2.png,2,0.0591,18,Female,2020-11-09_19h17.29.039,torte-q,2020.1.3,Win32,60,13894,,,,,,,,,,,,,,0,85,85,36,1,,,,,,,,,,,,,,,,,,,,,,,,,,
,,,,,,,,,,,,a,0.71277,Correct!,,,,,,t2.png,t2.png,0,0.98115,18,Female,2020-11-09_19h17.29.039,torte-q,2020.1.3,Win32,60,13894,,,,,,,,,,,,,,0,86,86,59,1,,,,,,,,,,,,,,,,,,,,,,,,,,
,,,,,,,,,,,,,,Too slow :(,,,,,,t5.png,t4.png,1,0.9,18,Female,2020-11-09_19h17.29.039,torte-q,2020.1.3,Win32,60,13894,,,,,,,,,,,,,,0,87,87,49,1,,,,,,,,,,,,,,,,,,,,,,,,,,
,,,,,,,,,,,,l,1.008875,Incorrect,,,,,,t3.png,t1.png,2,0.056466,18,Female,2020-11-09_19h17.29.039,torte-q,2020.1.3,Win32,60,13894,,,,,,,,,,,,,,0,88,88,29,1,,,,,,,,,,,,,,,,,,,,,,,,,,
,,,,,,,,,,,,l,0.849885,Correct!,,,,,,t1.png,t3.png,2,0.056466,18,Female,2020-11-09_19h17.29.039,torte-q,2020.1.3,Win32,60,13894,,,,,,,,,,,,,,0,89,89,69,1,,,,,,,,,,,,,,,,,,,,,,,,,,
,,,,,,,,,,,,a,0.78403,Correct!,,,,,,t2.png,t1.png,1,0.90025,18,Female,2020-11-09_19h17.29.039,torte-q,2020.1.3,Win32,60,13894,,,,,,,,,,,,,,0,90,90,19,1,,,,,,,,,,,,,,,,,,,,,,,,,,
,,,,,,,,,,,,a,0.758965,Correct!,,,,,,t1.png,t1.png,0,0.97829,18,Female,2020-11-09_19h17.29.039,torte-q,2020.1.3,Win32,60,13894,,,,,,,,,,,,,,0,91,91,9,1,,,,,,,,,,,,,,,,,,,,,,,,,,
,,,,,,,,,,,,a,1.43256,Correct!,,,,,,t3.png,t2.png,1,0.909,18,Female,2020-11-09_19h17.29.039,torte-q,2020.1.3,Win32,60,13894,,,,,,,,,,,,,,0,92,92,23,1,,,,,,,,,,,,,,,,,,,,,,,,,,
,,,,,,,,,,,,a,0.832725,Incorrect,,,,,,t4.png,t1.png,3,0.0000131,18,Female,2020-11-09_19h17.29.039,torte-q,2020.1.3,Win32,60,13894,,,,,,,,,,,,,,0,93,93,93,1,,,,,,,,,,,,,,,,,,,,,,,,,,
,,,,,,,,,,,,a,1.30013,Incorrect,,,,,,t1.png,t4.png,3,0.0000131,18,Female,2020-11-09_19h17.29.039,torte-q,2020.1.3,Win32,60,13894,,,,,,,,,,,,,,0,94,94,17,1,,,,,,,,,,,,,,,,,,,,,,,,,,
,,,,,,,,,,,,a,1.053525,Incorrect,,,,,,t5.png,t2.png,3,0.0000131,18,Female,2020-11-09_19h17.29.039,torte-q,2020.1.3,Win32,60,13894,,,,,,,,,,,,,,0,95,95,98,1,,,,,,,,,,,,,,,,,,,,,,,,,,
,,,,,,,,,,,,a,0.956105,Correct!,,,,,,t2.png,t3.png,1,0.90855,18,Female,2020-11-09_19h17.29.039,torte-q,2020.1.3,Win32,60,13894,,,,,,,,,,,,,,0,96,96,10,1,,,,,,,,,,,,,,,,,,,,,,,,,,
,,,,,,,,,,,,a,1.491875,Correct!,,,,,,t4.png,t3.png,1,0.909,18,Female,2020-11-09_19h17.29.039,torte-q,2020.1.3,Win32,60,13894,,,,,,,,,,,,,,0,97,97,20,1,,,,,,,,,,,,,,,,,,,,,,,,,,
,,,,,,,,,,,,a,0.8168,Incorrect,,,,,,t5.png,t2.png,3,0.0000131,18,Female,2020-11-09_19h17.29.039,torte-q,2020.1.3,Win32,60,13894,,,,,,,,,,,,,,0,98,98,91,1,,,,,,,,,,,,,,,,,,,,,,,,,,
,,,,,,,,,,,,a,1.19996,Correct!,,,,,,t3.png,t4.png,1,0.90855,18,Female,2020-11-09_19h17.29.039,torte-q,2020.1.3,Win32,60,13894,,,,,,,,,,,,,,0,99,99,84,1,,,,,,,,,,,,,,,,,,,,,,,,,,
,,,,,,,,,,,,a,1.31642,Correct!,,,,,,t4.png,t3.png,1,0.909,18,Female,2020-11-09_19h17.29.039,torte-q,2020.1.3,Win32,60,13894,,,,,,,,,,,,,,0,100,100,46,1,,,,,,,,,,,,,,,,,,,,,,,,,,
,,,,,,,,,,,,l,0.851495,Correct!,,,,,,t3.png,t1.png,2,0.056466,18,Female,2020-11-09_19h17.29.039,torte-q,2020.1.3,Win32,60,13894,,,,,,,,,,,,,,0,101,101,32,1,,,,,,,,,,,,,,,,,,,,,,,,,,
,,,,,,,,,,,,l,1.099785,Correct!,,,,,,t2.png,t4.png,2,0.059078,18,Female,2020-11-09_19h17.29.039,torte-q,2020.1.3,Win32,60,13894,,,,,,,,,,,,,,0,102,102,77,1,,,,,,,,,,,,,,,,,,,,,,,,,,
,,,,,,,,,,,,a,0.900095,Correct!,,,,,,t3.png,t2.png,1,0.909,18,Female,2020-11-09_19h17.29.039,torte-q,2020.1.3,Win32,60,13894,,,,,,,,,,,,,,0,103,103,3,1,,,,,,,,,,,,,,,,,,,,,,,,,,
,,,,,,,,,,,,a,1.05071,Incorrect,,,,,,t2.png,t5.png,3,0.0000131,18,Female,2020-11-09_19h17.29.039,torte-q,2020.1.3,Win32,60,13894,,,,,,,,,,,,,,0,104,104,40,1,,,,,,,,,,,,,,,,,,,,,,,,,,
,,,,,,,,,,,,a,0.883545,Correct!,,,,,,t3.png,t2.png,1,0.90855,18,Female,2020-11-09_19h17.29.039,torte-q,2020.1.3,Win32,60,13894,,,,,,,,,,,,,,0,105,105,18,1,,,,,,,,,,,,,,,,,,,,,,,,,,
,,,,,,,,,,,,a,1.76617,Correct!,,,,,,t4.png,t5.png,1,0.90025,18,Female,2020-11-09_19h17.29.039,torte-q,2020.1.3,Win32,60,13894,,,,,,,,,,,,,,0,106,106,113,1,,,,,,,,,,,,,,,,,,,,,,,,,,
,,,,,,,,,,,,l,0.8827,Correct!,,,,,,t4.png,t2.png,2,0.059078,18,Female,2020-11-09_19h17.29.039,torte-q,2020.1.3,Win32,60,13894,,,,,,,,,,,,,,0,107,107,110,1,,,,,,,,,,,,,,,,,,,,,,,,,,
,,,,,,,,,,,,l,0.80509,Correct!,,,,,,t1.png,t3.png,2,0.056466,18,Female,2020-11-09_19h17.29.039,torte-q,2020.1.3,Win32,60,13894,,,,,,,,,,,,,,0,108,108,99,1,,,,,,,,,,,,,,,,,,,,,,,,,,
,,,,,,,,,,,,l,1.08519,Correct!,,,,,,t3.png,t5.png,2,0.0565,18,Female,2020-11-09_19h17.29.039,torte-q,2020.1.3,Win32,60,13894,,,,,,,,,,,,,,0,109,109,83,1,,,,,,,,,,,,,,,,,,,,,,,,,,
,,,,,,,,,,,,a,0.83354,Correct!,,,,,,t2.png,t2.png,0,0.98115,18,Female,2020-11-09_19h17.29.039,torte-q,2020.1.3,Win32,60,13894,,,,,,,,,,,,,,0,110,110,57,1,,,,,,,,,,,,,,,,,,,,,,,,,,
,,,,,,,,,,,,l,0.933325,Correct!,,,,,,t4.png,t2.png,2,0.059078,18,Female,2020-11-09_19h17.29.039,torte-q,2020.1.3,Win32,60,13894,,,,,,,,,,,,,,0,111,111,88,1,,,,,,,,,,,,,,,,,,,,,,,,,,
,,,,,,,,,,,,a,1.915665,Correct!,,,,,,t5.png,t4.png,1,0.9,18,Female,2020-11-09_19h17.29.039,torte-q,2020.1.3,Win32,60,13894,,,,,,,,,,,,,,0,112,112,76,1,,,,,,,,,,,,,,,,,,,,,,,,,,
,,,,,,,,,,,,a,1.52481,Correct!,,,,,,t5.png,t4.png,1,0.90025,18,Female,2020-11-09_19h17.29.039,torte-q,2020.1.3,Win32,60,13894,,,,,,,,,,,,,,0,113,113,26,1,,,,,,,,,,,,,,,,,,,,,,,,,,
,,,,,,,,,,,,l,0.700335,Correct!,,,,,,t1.png,t5.png,4,9.55E-11,18,Female,2020-11-09_19h17.29.039,torte-q,2020.1.3,Win32,60,13894,,,,,,,,,,,,,,0,114,114,85,1,,,,,,,,,,,,,,,,,,,,,,,,,,
,,,,,,,,,,,,l,0.58553,Correct!,,,,,,t5.png,t1.png,4,9.55E-11,18,Female,2020-11-09_19h17.29.039,torte-q,2020.1.3,Win32,60,13894,,,,,,,,,,,,,,0,115,115,22,1,,,,,,,,,,,,,,,,,,,,,,,,,,
,,,,,,,,,,,,a,1.96571,Incorrect,,,,,,t3.png,t4.png,1,0.909,18,Female,2020-11-09_19h17.29.039,torte-q,2020.1.3,Win32,60,13894,,,,,,,,,,,,,,0,116,116,89,1,,,,,,,,,,,,,,,,,,,,,,,,,,
,,,,,,,,,,,,a,1.066285,Correct!,,,,,,t2.png,t3.png,1,0.90855,18,Female,2020-11-09_19h17.29.039,torte-q,2020.1.3,Win32,60,13894,,,,,,,,,,,,,,0,117,117,111,1,,,,,,,,,,,,,,,,,,,,,,,,,,
,,,,,,,,,,,,a,0.851475,Correct!,,,,,,t2.png,t2.png,0,0.981,18,Female,2020-11-09_19h17.29.039,torte-q,2020.1.3,Win32,60,13894,,,,,,,,,,,,,,0,118,118,101,1,,,,,,,,,,,,,,,,,,,,,,,,,,
,,,,,,,,,,,,a,0.885075,Incorrect,,,,,,t1.png,t4.png,3,0.0000131,18,Female,2020-11-09_19h17.29.039,torte-q,2020.1.3,Win32,60,13894,,,,,,,,,,,,,,0,119,119,92,1,,,,,,,,,,,,,,,,,,,,,,,,,,
,,,,,,,,,,,,,,,,,,,,,,,,18,Female,2020-11-09_19h17.29.039,torte-q,2020.1.3,Win32,60,13894,a,1.166985,,,,,,,,,,,,,,,,,5.265000153,4.56237,120.6666893,-50.00001222,1,0,0,s5,56.66668743,101.9999923,1,0,0,t1,292.6666945,-101.3333471,1,0,0,proceed,space,27.514465,space,3.08192,space,2.13219
