key_resp_8.keys,key_resp_8.rt,key_resp_9.keys,key_resp_9.rt,key_resp_10.keys,key_resp_10.rt,key_resp_11.keys,key_resp_11.rt,key_resp_2.keys,key_resp_2.rt,key_resp_3.keys,key_resp_3.rt,key_resp.keys,Feedback,train.thisRepN,train.thisTrialN,train.thisN,train.thisIndex,train.ran,torta_sx,torta_dx,difference,probability,age,gender,date,expName,psychopyVersion,OS,frameRate,participant,key_resp.rt,key_resp_15.keys,key_resp_15.rt,key_resp_6.keys,key_resp_6.rt,test1.thisRepN,test1.thisTrialN,test1.thisN,test1.thisIndex,test1.ran,key_resp_16.keys,key_resp_16.rt,key_resp_7.keys,key_resp_7.rt,test2.thisRepN,test2.thisTrialN,test2.thisN,test2.thisIndex,test2.ran,rating.response,rating.rt,mouse.x,mouse.y,mouse.leftButton,mouse.midButton,mouse.rightButton,mouse.clicked_name,mouse_2.x,mouse_2.y,mouse_2.leftButton,mouse_2.midButton,mouse_2.rightButton,mouse_2.clicked_name,mouse_3.x,mouse_3.y,mouse_3.leftButton,mouse_3.midButton,mouse_3.rightButton,mouse_3.clicked_name,key_resp_12.keys,key_resp_12.rt,key_resp_13.keys,key_resp_13.rt,key_resp_14.keys,key_resp_14.rt
space,67.29387,space,61.374705,space,13.72764,space,31.01312,space,22.63524,space,64.5129,,Too slow :(,0,0,0,112,1,t1.png,t1.png,0,0.97829,18,Female,2020-11-13_11h00.56.890,torte-q,2020.1.3,Win32,60,13917,,,,,,,,,,,,,,,,,,,,,,,,,,,,,,,,,,,,,,,,,,,,,
,,,,,,,,,,,,a,Incorrect,0,1,1,56,1,t5.png,t1.png,4,9.55E-11,18,Female,2020-11-13_11h00.56.890,torte-q,2020.1.3,Win32,60,13917,1.013315,,,,,,,,,,,,,,,,,,,,,,,,,,,,,,,,,,,,,,,,,,,,
,,,,,,,,,,,,l,Incorrect,0,2,2,79,1,t3.png,t2.png,1,0.909,18,Female,2020-11-13_11h00.56.890,torte-q,2020.1.3,Win32,60,13917,1.34402,,,,,,,,,,,,,,,,,,,,,,,,,,,,,,,,,,,,,,,,,,,,
,,,,,,,,,,,,a,Correct!,0,3,3,106,1,t2.png,t3.png,1,0.90855,18,Female,2020-11-13_11h00.56.890,torte-q,2020.1.3,Win32,60,13917,1.54992,,,,,,,,,,,,,,,,,,,,,,,,,,,,,,,,,,,,,,,,,,,,
,,,,,,,,,,,,a,Incorrect,0,4,4,88,1,t3.png,t1.png,2,0.056466,18,Female,2020-11-13_11h00.56.890,torte-q,2020.1.3,Win32,60,13917,1.865345,,,,,,,,,,,,,,,,,,,,,,,,,,,,,,,,,,,,,,,,,,,,
,,,,,,,,,,,,a,Incorrect,0,5,5,98,1,t2.png,t4.png,2,0.0591,18,Female,2020-11-13_11h00.56.890,torte-q,2020.1.3,Win32,60,13917,1.2627,,,,,,,,,,,,,,,,,,,,,,,,,,,,,,,,,,,,,,,,,,,,
,,,,,,,,,,,,a,Incorrect,0,6,6,47,1,t4.png,t2.png,2,0.059078,18,Female,2020-11-13_11h00.56.890,torte-q,2020.1.3,Win32,60,13917,1.696385,,,,,,,,,,,,,,,,,,,,,,,,,,,,,,,,,,,,,,,,,,,,
,,,,,,,,,,,,a,Incorrect,0,7,7,1,1,t2.png,t4.png,2,0.059078,18,Female,2020-11-13_11h00.56.890,torte-q,2020.1.3,Win32,60,13917,1.346285,,,,,,,,,,,,,,,,,,,,,,,,,,,,,,,,,,,,,,,,,,,,
,,,,,,,,,,,,l,Correct!,0,8,8,53,1,t3.png,t1.png,2,0.056466,18,Female,2020-11-13_11h00.56.890,torte-q,2020.1.3,Win32,60,13917,1.488125,,,,,,,,,,,,,,,,,,,,,,,,,,,,,,,,,,,,,,,,,,,,
,,,,,,,,,,,,a,Incorrect,0,9,9,14,1,t2.png,t4.png,2,0.059078,18,Female,2020-11-13_11h00.56.890,torte-q,2020.1.3,Win32,60,13917,2.0547,,,,,,,,,,,,,,,,,,,,,,,,,,,,,,,,,,,,,,,,,,,,
,,,,,,,,,,,,l,Incorrect,0,10,10,2,1,t3.png,t2.png,1,0.90855,18,Female,2020-11-13_11h00.56.890,torte-q,2020.1.3,Win32,60,13917,1.896845,,,,,,,,,,,,,,,,,,,,,,,,,,,,,,,,,,,,,,,,,,,,
,,,,,,,,,,,,a,Incorrect,0,11,11,94,1,t5.png,t1.png,4,9.55E-11,18,Female,2020-11-13_11h00.56.890,torte-q,2020.1.3,Win32,60,13917,1.048745,,,,,,,,,,,,,,,,,,,,,,,,,,,,,,,,,,,,,,,,,,,,
,,,,,,,,,,,,a,Correct!,0,12,12,25,1,t5.png,t5.png,0,0.97829,18,Female,2020-11-13_11h00.56.890,torte-q,2020.1.3,Win32,60,13917,1.8126,,,,,,,,,,,,,,,,,,,,,,,,,,,,,,,,,,,,,,,,,,,,
,,,,,,,,,,,,l,Incorrect,0,13,13,101,1,t4.png,t5.png,1,0.90025,18,Female,2020-11-13_11h00.56.890,torte-q,2020.1.3,Win32,60,13917,1.71831,,,,,,,,,,,,,,,,,,,,,,,,,,,,,,,,,,,,,,,,,,,,
,,,,,,,,,,,,a,Incorrect,0,14,14,36,1,t3.png,t1.png,2,0.0565,18,Female,2020-11-13_11h00.56.890,torte-q,2020.1.3,Win32,60,13917,1.597705,,,,,,,,,,,,,,,,,,,,,,,,,,,,,,,,,,,,,,,,,,,,
,,,,,,,,,,,,l,Correct!,0,15,15,73,1,t4.png,t2.png,2,0.059078,18,Female,2020-11-13_11h00.56.890,torte-q,2020.1.3,Win32,60,13917,0.997665,,,,,,,,,,,,,,,,,,,,,,,,,,,,,,,,,,,,,,,,,,,,
,,,,,,,,,,,,l,Incorrect,0,16,16,74,1,t5.png,t4.png,1,0.9,18,Female,2020-11-13_11h00.56.890,torte-q,2020.1.3,Win32,60,13917,1.35027,,,,,,,,,,,,,,,,,,,,,,,,,,,,,,,,,,,,,,,,,,,,
,,,,,,,,,,,,a,Incorrect,0,17,17,111,1,t5.png,t1.png,4,9.55E-11,18,Female,2020-11-13_11h00.56.890,torte-q,2020.1.3,Win32,60,13917,1.54602,,,,,,,,,,,,,,,,,,,,,,,,,,,,,,,,,,,,,,,,,,,,
,,,,,,,,,,,,l,Incorrect,0,18,18,75,1,t1.png,t1.png,0,0.97829,18,Female,2020-11-13_11h00.56.890,torte-q,2020.1.3,Win32,60,13917,1.69693,,,,,,,,,,,,,,,,,,,,,,,,,,,,,,,,,,,,,,,,,,,,
,,,,,,,,,,,,a,Correct!,0,19,19,32,1,t4.png,t5.png,1,0.90025,18,Female,2020-11-13_11h00.56.890,torte-q,2020.1.3,Win32,60,13917,1.30583,,,,,,,,,,,,,,,,,,,,,,,,,,,,,,,,,,,,,,,,,,,,
,,,,,,,,,,,,a,Correct!,0,20,20,9,1,t4.png,t5.png,1,0.9,18,Female,2020-11-13_11h00.56.890,torte-q,2020.1.3,Win32,60,13917,1.038785,,,,,,,,,,,,,,,,,,,,,,,,,,,,,,,,,,,,,,,,,,,,
,,,,,,,,,,,,a,Incorrect,0,21,21,87,1,t5.png,t1.png,4,9.55E-11,18,Female,2020-11-13_11h00.56.890,torte-q,2020.1.3,Win32,60,13917,0.906485,,,,,,,,,,,,,,,,,,,,,,,,,,,,,,,,,,,,,,,,,,,,
,,,,,,,,,,,,a,Correct!,0,22,22,22,1,t2.png,t3.png,1,0.90855,18,Female,2020-11-13_11h00.56.890,torte-q,2020.1.3,Win32,60,13917,1.81417,,,,,,,,,,,,,,,,,,,,,,,,,,,,,,,,,,,,,,,,,,,,
,,,,,,,,,,,,l,Correct!,0,23,23,90,1,t1.png,t5.png,4,9.55E-11,18,Female,2020-11-13_11h00.56.890,torte-q,2020.1.3,Win32,60,13917,1.356065,,,,,,,,,,,,,,,,,,,,,,,,,,,,,,,,,,,,,,,,,,,,
,,,,,,,,,,,,l,Incorrect,0,24,24,64,1,t1.png,t1.png,0,0.978,18,Female,2020-11-13_11h00.56.890,torte-q,2020.1.3,Win32,60,13917,1.245805,,,,,,,,,,,,,,,,,,,,,,,,,,,,,,,,,,,,,,,,,,,,
,,,,,,,,,,,,l,Incorrect,0,25,25,116,1,t5.png,t4.png,1,0.90025,18,Female,2020-11-13_11h00.56.890,torte-q,2020.1.3,Win32,60,13917,1.582025,,,,,,,,,,,,,,,,,,,,,,,,,,,,,,,,,,,,,,,,,,,,
,,,,,,,,,,,,a,Correct!,0,26,26,59,1,t5.png,t4.png,1,0.9,18,Female,2020-11-13_11h00.56.890,torte-q,2020.1.3,Win32,60,13917,1.16478,,,,,,,,,,,,,,,,,,,,,,,,,,,,,,,,,,,,,,,,,,,,
,,,,,,,,,,,,a,Correct!,0,27,27,66,1,t4.png,t5.png,1,0.9,18,Female,2020-11-13_11h00.56.890,torte-q,2020.1.3,Win32,60,13917,2.18109,,,,,,,,,,,,,,,,,,,,,,,,,,,,,,,,,,,,,,,,,,,,
,,,,,,,,,,,,l,Correct!,0,28,28,43,1,t4.png,t2.png,2,0.059078,18,Female,2020-11-13_11h00.56.890,torte-q,2020.1.3,Win32,60,13917,1.36378,,,,,,,,,,,,,,,,,,,,,,,,,,,,,,,,,,,,,,,,,,,,
,,,,,,,,,,,,l,Correct!,0,29,29,82,1,t5.png,t1.png,4,9.55E-11,18,Female,2020-11-13_11h00.56.890,torte-q,2020.1.3,Win32,60,13917,1.48186,,,,,,,,,,,,,,,,,,,,,,,,,,,,,,,,,,,,,,,,,,,,
,,,,,,,,,,,,a,Correct!,0,30,30,96,1,t1.png,t1.png,0,0.97829,18,Female,2020-11-13_11h00.56.890,torte-q,2020.1.3,Win32,60,13917,1.42037,,,,,,,,,,,,,,,,,,,,,,,,,,,,,,,,,,,,,,,,,,,,
,,,,,,,,,,,,l,Correct!,0,31,31,115,1,t2.png,t4.png,2,0.059078,18,Female,2020-11-13_11h00.56.890,torte-q,2020.1.3,Win32,60,13917,2.197855,,,,,,,,,,,,,,,,,,,,,,,,,,,,,,,,,,,,,,,,,,,,
,,,,,,,,,,,,a,Incorrect,0,32,32,30,1,t3.png,t1.png,2,0.056466,18,Female,2020-11-13_11h00.56.890,torte-q,2020.1.3,Win32,60,13917,1.58536,,,,,,,,,,,,,,,,,,,,,,,,,,,,,,,,,,,,,,,,,,,,
,,,,,,,,,,,,a,Incorrect,0,33,33,37,1,t1.png,t4.png,3,0.0000131,18,Female,2020-11-13_11h00.56.890,torte-q,2020.1.3,Win32,60,13917,1.93211,,,,,,,,,,,,,,,,,,,,,,,,,,,,,,,,,,,,,,,,,,,,
,,,,,,,,,,,,l,Incorrect,0,34,34,44,1,t2.png,t3.png,1,0.909,18,Female,2020-11-13_11h00.56.890,torte-q,2020.1.3,Win32,60,13917,2.25435,,,,,,,,,,,,,,,,,,,,,,,,,,,,,,,,,,,,,,,,,,,,
,,,,,,,,,,,,a,Correct!,0,35,35,71,1,t5.png,t5.png,0,0.97829,18,Female,2020-11-13_11h00.56.890,torte-q,2020.1.3,Win32,60,13917,1.81362,,,,,,,,,,,,,,,,,,,,,,,,,,,,,,,,,,,,,,,,,,,,
,,,,,,,,,,,,a,Incorrect,0,36,36,91,1,t1.png,t4.png,3,0.0000131,18,Female,2020-11-13_11h00.56.890,torte-q,2020.1.3,Win32,60,13917,1.845275,,,,,,,,,,,,,,,,,,,,,,,,,,,,,,,,,,,,,,,,,,,,
,,,,,,,,,,,,a,Incorrect,0,37,37,12,1,t5.png,t1.png,4,9.55E-11,18,Female,2020-11-13_11h00.56.890,torte-q,2020.1.3,Win32,60,13917,1.920205,,,,,,,,,,,,,,,,,,,,,,,,,,,,,,,,,,,,,,,,,,,,
,,,,,,,,,,,,l,Incorrect,0,38,38,29,1,t5.png,t5.png,0,0.97829,18,Female,2020-11-13_11h00.56.890,torte-q,2020.1.3,Win32,60,13917,1.09983,,,,,,,,,,,,,,,,,,,,,,,,,,,,,,,,,,,,,,,,,,,,
,,,,,,,,,,,,a,Incorrect,0,39,39,21,1,t5.png,t4.png,1,0.90025,18,Female,2020-11-13_11h00.56.890,torte-q,2020.1.3,Win32,60,13917,1.016405,,,,,,,,,,,,,,,,,,,,,,,,,,,,,,,,,,,,,,,,,,,,
,,,,,,,,,,,,l,Correct!,0,40,40,6,1,t1.png,t4.png,3,0.0000131,18,Female,2020-11-13_11h00.56.890,torte-q,2020.1.3,Win32,60,13917,1.64799,,,,,,,,,,,,,,,,,,,,,,,,,,,,,,,,,,,,,,,,,,,,
,,,,,,,,,,,,a,Incorrect,0,41,41,50,1,t5.png,t1.png,4,9.55E-11,18,Female,2020-11-13_11h00.56.890,torte-q,2020.1.3,Win32,60,13917,1.44892,,,,,,,,,,,,,,,,,,,,,,,,,,,,,,,,,,,,,,,,,,,,
,,,,,,,,,,,,a,Correct!,0,42,42,85,1,t3.png,t2.png,1,0.90855,18,Female,2020-11-13_11h00.56.890,torte-q,2020.1.3,Win32,60,13917,2.013055,,,,,,,,,,,,,,,,,,,,,,,,,,,,,,,,,,,,,,,,,,,,
,,,,,,,,,,,,a,Incorrect,0,43,43,26,1,t4.png,t2.png,2,0.0591,18,Female,2020-11-13_11h00.56.890,torte-q,2020.1.3,Win32,60,13917,2.13057,,,,,,,,,,,,,,,,,,,,,,,,,,,,,,,,,,,,,,,,,,,,
,,,,,,,,,,,,a,Incorrect,0,44,44,93,1,t2.png,t4.png,2,0.059078,18,Female,2020-11-13_11h00.56.890,torte-q,2020.1.3,Win32,60,13917,1.554375,,,,,,,,,,,,,,,,,,,,,,,,,,,,,,,,,,,,,,,,,,,,
,,,,,,,,,,,,l,Correct!,0,45,45,31,1,t1.png,t5.png,4,9.55E-11,18,Female,2020-11-13_11h00.56.890,torte-q,2020.1.3,Win32,60,13917,1.5077,,,,,,,,,,,,,,,,,,,,,,,,,,,,,,,,,,,,,,,,,,,,
,,,,,,,,,,,,l,Correct!,0,46,46,5,1,t2.png,t4.png,2,0.059078,18,Female,2020-11-13_11h00.56.890,torte-q,2020.1.3,Win32,60,13917,1.236215,,,,,,,,,,,,,,,,,,,,,,,,,,,,,,,,,,,,,,,,,,,,
,,,,,,,,,,,,a,Incorrect,0,47,47,35,1,t1.png,t4.png,3,0.0000131,18,Female,2020-11-13_11h00.56.890,torte-q,2020.1.3,Win32,60,13917,1.216845,,,,,,,,,,,,,,,,,,,,,,,,,,,,,,,,,,,,,,,,,,,,
,,,,,,,,,,,,a,Correct!,0,48,48,10,1,t2.png,t3.png,1,0.90855,18,Female,2020-11-13_11h00.56.890,torte-q,2020.1.3,Win32,60,13917,2.05104,,,,,,,,,,,,,,,,,,,,,,,,,,,,,,,,,,,,,,,,,,,,
,,,,,,,,,,,,a,Correct!,0,49,49,16,1,t5.png,t4.png,1,0.9,18,Female,2020-11-13_11h00.56.890,torte-q,2020.1.3,Win32,60,13917,1.613275,,,,,,,,,,,,,,,,,,,,,,,,,,,,,,,,,,,,,,,,,,,,
,,,,,,,,,,,,a,Correct!,0,50,50,18,1,t4.png,t5.png,1,0.90025,18,Female,2020-11-13_11h00.56.890,torte-q,2020.1.3,Win32,60,13917,2.346355,,,,,,,,,,,,,,,,,,,,,,,,,,,,,,,,,,,,,,,,,,,,
,,,,,,,,,,,,a,Correct!,0,51,51,8,1,t3.png,t2.png,1,0.90855,18,Female,2020-11-13_11h00.56.890,torte-q,2020.1.3,Win32,60,13917,1.34899,,,,,,,,,,,,,,,,,,,,,,,,,,,,,,,,,,,,,,,,,,,,
,,,,,,,,,,,,l,Correct!,0,52,52,27,1,t3.png,t1.png,2,0.0565,18,Female,2020-11-13_11h00.56.890,torte-q,2020.1.3,Win32,60,13917,1.1681,,,,,,,,,,,,,,,,,,,,,,,,,,,,,,,,,,,,,,,,,,,,
,,,,,,,,,,,,l,Correct!,0,53,53,69,1,t4.png,t2.png,2,0.059078,18,Female,2020-11-13_11h00.56.890,torte-q,2020.1.3,Win32,60,13917,1.552045,,,,,,,,,,,,,,,,,,,,,,,,,,,,,,,,,,,,,,,,,,,,
,,,,,,,,,,,,l,Correct!,0,54,54,3,1,t1.png,t5.png,4,9.55E-11,18,Female,2020-11-13_11h00.56.890,torte-q,2020.1.3,Win32,60,13917,1.091425,,,,,,,,,,,,,,,,,,,,,,,,,,,,,,,,,,,,,,,,,,,,
,,,,,,,,,,,,a,Correct!,0,55,55,13,1,t5.png,t5.png,0,0.97829,18,Female,2020-11-13_11h00.56.890,torte-q,2020.1.3,Win32,60,13917,1.248165,,,,,,,,,,,,,,,,,,,,,,,,,,,,,,,,,,,,,,,,,,,,
,,,,,,,,,,,,a,Incorrect,0,56,56,46,1,t4.png,t2.png,2,0.059078,18,Female,2020-11-13_11h00.56.890,torte-q,2020.1.3,Win32,60,13917,1.622125,,,,,,,,,,,,,,,,,,,,,,,,,,,,,,,,,,,,,,,,,,,,
,,,,,,,,,,,,l,Correct!,0,57,57,80,1,t1.png,t4.png,3,0.0000131,18,Female,2020-11-13_11h00.56.890,torte-q,2020.1.3,Win32,60,13917,1.380095,,,,,,,,,,,,,,,,,,,,,,,,,,,,,,,,,,,,,,,,,,,,
,,,,,,,,,,,,a,Incorrect,0,58,58,83,1,t3.png,t1.png,2,0.056466,18,Female,2020-11-13_11h00.56.890,torte-q,2020.1.3,Win32,60,13917,1.332185,,,,,,,,,,,,,,,,,,,,,,,,,,,,,,,,,,,,,,,,,,,,
,,,,,,,,,,,,l,Incorrect,0,59,59,24,1,t4.png,t2.png,2,0.059078,18,Female,2020-11-13_11h00.56.890,torte-q,2020.1.3,Win32,60,13917,1.588465,,,,,,,,,,,,,,,,,,,,,,,,,,,,,,,,,,,,,,,,,,,,
,,,,,,,,,,,,a,Incorrect,0,60,60,40,1,t1.png,t5.png,4,9.55E-11,18,Female,2020-11-13_11h00.56.890,torte-q,2020.1.3,Win32,60,13917,1.10481,,,,,,,,,,,,,,,,,,,,,,,,,,,,,,,,,,,,,,,,,,,,
,,,,,,,,,,,,a,Incorrect,0,61,61,38,1,t3.png,t1.png,2,0.056466,18,Female,2020-11-13_11h00.56.890,torte-q,2020.1.3,Win32,60,13917,1.315265,,,,,,,,,,,,,,,,,,,,,,,,,,,,,,,,,,,,,,,,,,,,
,,,,,,,,,,,,a,Correct!,0,62,62,109,1,t5.png,t5.png,0,0.97829,18,Female,2020-11-13_11h00.56.890,torte-q,2020.1.3,Win32,60,13917,1.93102,,,,,,,,,,,,,,,,,,,,,,,,,,,,,,,,,,,,,,,,,,,,
,,,,,,,,,,,,l,Correct!,0,63,63,103,1,t3.png,t1.png,2,0.056466,18,Female,2020-11-13_11h00.56.890,torte-q,2020.1.3,Win32,60,13917,1.623485,,,,,,,,,,,,,,,,,,,,,,,,,,,,,,,,,,,,,,,,,,,,
,,,,,,,,,,,,a,Correct!,0,64,64,84,1,t1.png,t1.png,0,0.97829,18,Female,2020-11-13_11h00.56.890,torte-q,2020.1.3,Win32,60,13917,1.84541,,,,,,,,,,,,,,,,,,,,,,,,,,,,,,,,,,,,,,,,,,,,
,,,,,,,,,,,,a,Correct!,0,65,65,95,1,t1.png,t1.png,0,0.978,18,Female,2020-11-13_11h00.56.890,torte-q,2020.1.3,Win32,60,13917,1.171905,,,,,,,,,,,,,,,,,,,,,,,,,,,,,,,,,,,,,,,,,,,,
,,,,,,,,,,,,l,Correct!,0,66,66,108,1,t5.png,t1.png,4,9.55E-11,18,Female,2020-11-13_11h00.56.890,torte-q,2020.1.3,Win32,60,13917,1.848295,,,,,,,,,,,,,,,,,,,,,,,,,,,,,,,,,,,,,,,,,,,,
,,,,,,,,,,,,l,Correct!,0,67,67,17,1,t1.png,t4.png,3,0.0000131,18,Female,2020-11-13_11h00.56.890,torte-q,2020.1.3,Win32,60,13917,1.44869,,,,,,,,,,,,,,,,,,,,,,,,,,,,,,,,,,,,,,,,,,,,
,,,,,,,,,,,,a,Correct!,0,68,68,65,1,t4.png,t5.png,1,0.90025,18,Female,2020-11-13_11h00.56.890,torte-q,2020.1.3,Win32,60,13917,1.93001,,,,,,,,,,,,,,,,,,,,,,,,,,,,,,,,,,,,,,,,,,,,
,,,,,,,,,,,,l,Incorrect,0,69,69,57,1,t2.png,t4.png,2,0.059078,18,Female,2020-11-13_11h00.56.890,torte-q,2020.1.3,Win32,60,13917,1.179225,,,,,,,,,,,,,,,,,,,,,,,,,,,,,,,,,,,,,,,,,,,,
,,,,,,,,,,,,a,Correct!,0,70,70,39,1,t3.png,t2.png,1,0.90855,18,Female,2020-11-13_11h00.56.890,torte-q,2020.1.3,Win32,60,13917,1.65565,,,,,,,,,,,,,,,,,,,,,,,,,,,,,,,,,,,,,,,,,,,,
,,,,,,,,,,,,a,Correct!,0,71,71,105,1,t3.png,t2.png,1,0.90855,18,Female,2020-11-13_11h00.56.890,torte-q,2020.1.3,Win32,60,13917,1.69519,,,,,,,,,,,,,,,,,,,,,,,,,,,,,,,,,,,,,,,,,,,,
,,,,,,,,,,,,l,Correct!,0,72,72,61,1,t1.png,t4.png,3,0.0000131,18,Female,2020-11-13_11h00.56.890,torte-q,2020.1.3,Win32,60,13917,1.313615,,,,,,,,,,,,,,,,,,,,,,,,,,,,,,,,,,,,,,,,,,,,
,,,,,,,,,,,,l,Correct!,0,73,73,20,1,t2.png,t3.png,1,0.90855,18,Female,2020-11-13_11h00.56.890,torte-q,2020.1.3,Win32,60,13917,1.63289,,,,,,,,,,,,,,,,,,,,,,,,,,,,,,,,,,,,,,,,,,,,
,,,,,,,,,,,,l,Correct!,0,74,74,4,1,t1.png,t5.png,4,9.55E-11,18,Female,2020-11-13_11h00.56.890,torte-q,2020.1.3,Win32,60,13917,1.051365,,,,,,,,,,,,,,,,,,,,,,,,,,,,,,,,,,,,,,,,,,,,
,,,,,,,,,,,,l,Correct!,0,75,75,60,1,t2.png,t4.png,2,0.059078,18,Female,2020-11-13_11h00.56.890,torte-q,2020.1.3,Win32,60,13917,1.03742,,,,,,,,,,,,,,,,,,,,,,,,,,,,,,,,,,,,,,,,,,,,
,,,,,,,,,,,,l,Incorrect,0,76,76,104,1,t2.png,t3.png,1,0.90855,18,Female,2020-11-13_11h00.56.890,torte-q,2020.1.3,Win32,60,13917,1.065545,,,,,,,,,,,,,,,,,,,,,,,,,,,,,,,,,,,,,,,,,,,,
,,,,,,,,,,,,l,Correct!,0,77,77,89,1,t1.png,t4.png,3,0.0000131,18,Female,2020-11-13_11h00.56.890,torte-q,2020.1.3,Win32,60,13917,0.98078,,,,,,,,,,,,,,,,,,,,,,,,,,,,,,,,,,,,,,,,,,,,
,,,,,,,,,,,,a,Incorrect,0,78,78,55,1,t2.png,t4.png,2,0.059078,18,Female,2020-11-13_11h00.56.890,torte-q,2020.1.3,Win32,60,13917,1.1857,,,,,,,,,,,,,,,,,,,,,,,,,,,,,,,,,,,,,,,,,,,,
,,,,,,,,,,,,l,Incorrect,0,79,79,45,1,t3.png,t2.png,1,0.90855,18,Female,2020-11-13_11h00.56.890,torte-q,2020.1.3,Win32,60,13917,1.165235,,,,,,,,,,,,,,,,,,,,,,,,,,,,,,,,,,,,,,,,,,,,
,,,,,,,,,,,,a,Correct!,0,80,80,23,1,t5.png,t4.png,1,0.90025,18,Female,2020-11-13_11h00.56.890,torte-q,2020.1.3,Win32,60,13917,1.29881,,,,,,,,,,,,,,,,,,,,,,,,,,,,,,,,,,,,,,,,,,,,
,,,,,,,,,,,,a,Incorrect,0,81,81,86,1,t3.png,t1.png,2,0.056466,18,Female,2020-11-13_11h00.56.890,torte-q,2020.1.3,Win32,60,13917,1.65511,,,,,,,,,,,,,,,,,,,,,,,,,,,,,,,,,,,,,,,,,,,,
,,,,,,,,,,,,a,Correct!,0,82,82,7,1,t4.png,t5.png,1,0.90025,18,Female,2020-11-13_11h00.56.890,torte-q,2020.1.3,Win32,60,13917,1.74861,,,,,,,,,,,,,,,,,,,,,,,,,,,,,,,,,,,,,,,,,,,,
,,,,,,,,,,,,l,Incorrect,0,83,83,76,1,t3.png,t2.png,1,0.90855,18,Female,2020-11-13_11h00.56.890,torte-q,2020.1.3,Win32,60,13917,1.455725,,,,,,,,,,,,,,,,,,,,,,,,,,,,,,,,,,,,,,,,,,,,
,,,,,,,,,,,,l,Correct!,0,84,84,33,1,t5.png,t1.png,4,9.55E-11,18,Female,2020-11-13_11h00.56.890,torte-q,2020.1.3,Win32,60,13917,1.320605,,,,,,,,,,,,,,,,,,,,,,,,,,,,,,,,,,,,,,,,,,,,
,,,,,,,,,,,,a,Incorrect,0,85,85,102,1,t4.png,t2.png,2,0.059078,18,Female,2020-11-13_11h00.56.890,torte-q,2020.1.3,Win32,60,13917,1.14428,,,,,,,,,,,,,,,,,,,,,,,,,,,,,,,,,,,,,,,,,,,,
,,,,,,,,,,,,a,Correct!,0,86,86,49,1,t4.png,t5.png,1,0.9,18,Female,2020-11-13_11h00.56.890,torte-q,2020.1.3,Win32,60,13917,1.96995,,,,,,,,,,,,,,,,,,,,,,,,,,,,,,,,,,,,,,,,,,,,
,,,,,,,,,,,,a,Incorrect,0,87,87,11,1,t1.png,t4.png,3,0.0000131,18,Female,2020-11-13_11h00.56.890,torte-q,2020.1.3,Win32,60,13917,1.414965,,,,,,,,,,,,,,,,,,,,,,,,,,,,,,,,,,,,,,,,,,,,
,,,,,,,,,,,,a,Correct!,0,88,88,70,1,t5.png,t5.png,0,0.978,18,Female,2020-11-13_11h00.56.890,torte-q,2020.1.3,Win32,60,13917,1.723645,,,,,,,,,,,,,,,,,,,,,,,,,,,,,,,,,,,,,,,,,,,,
,,,,,,,,,,,,l,Correct!,0,89,89,68,1,t1.png,t4.png,3,0.0000131,18,Female,2020-11-13_11h00.56.890,torte-q,2020.1.3,Win32,60,13917,1.05297,,,,,,,,,,,,,,,,,,,,,,,,,,,,,,,,,,,,,,,,,,,,
,,,,,,,,,,,,l,Correct!,0,90,90,52,1,t2.png,t4.png,2,0.059078,18,Female,2020-11-13_11h00.56.890,torte-q,2020.1.3,Win32,60,13917,1.15542,,,,,,,,,,,,,,,,,,,,,,,,,,,,,,,,,,,,,,,,,,,,
,,,,,,,,,,,,l,Correct!,0,91,91,51,1,t3.png,t1.png,2,0.056466,18,Female,2020-11-13_11h00.56.890,torte-q,2020.1.3,Win32,60,13917,1.41426,,,,,,,,,,,,,,,,,,,,,,,,,,,,,,,,,,,,,,,,,,,,
,,,,,,,,,,,,l,Incorrect,0,92,92,41,1,t3.png,t2.png,1,0.90855,18,Female,2020-11-13_11h00.56.890,torte-q,2020.1.3,Win32,60,13917,1.46343,,,,,,,,,,,,,,,,,,,,,,,,,,,,,,,,,,,,,,,,,,,,
,,,,,,,,,,,,a,Correct!,0,93,93,118,1,t5.png,t5.png,0,0.978,18,Female,2020-11-13_11h00.56.890,torte-q,2020.1.3,Win32,60,13917,1.77147,,,,,,,,,,,,,,,,,,,,,,,,,,,,,,,,,,,,,,,,,,,,
,,,,,,,,,,,,a,Correct!,0,94,94,78,1,t1.png,t1.png,0,0.978,18,Female,2020-11-13_11h00.56.890,torte-q,2020.1.3,Win32,60,13917,1.20714,,,,,,,,,,,,,,,,,,,,,,,,,,,,,,,,,,,,,,,,,,,,
,,,,,,,,,,,,a,Correct!,0,95,95,62,1,t5.png,t5.png,0,0.978,18,Female,2020-11-13_11h00.56.890,torte-q,2020.1.3,Win32,60,13917,1.28055,,,,,,,,,,,,,,,,,,,,,,,,,,,,,,,,,,,,,,,,,,,,
,,,,,,,,,,,,l,Correct!,0,96,96,99,1,t1.png,t5.png,4,9.55E-11,18,Female,2020-11-13_11h00.56.890,torte-q,2020.1.3,Win32,60,13917,1.164885,,,,,,,,,,,,,,,,,,,,,,,,,,,,,,,,,,,,,,,,,,,,
,,,,,,,,,,,,l,Correct!,0,97,97,117,1,t1.png,t5.png,4,9.55E-11,18,Female,2020-11-13_11h00.56.890,torte-q,2020.1.3,Win32,60,13917,0.79249,,,,,,,,,,,,,,,,,,,,,,,,,,,,,,,,,,,,,,,,,,,,
,,,,,,,,,,,,l,Correct!,0,98,98,119,1,t1.png,t5.png,4,9.55E-11,18,Female,2020-11-13_11h00.56.890,torte-q,2020.1.3,Win32,60,13917,0.630505,,,,,,,,,,,,,,,,,,,,,,,,,,,,,,,,,,,,,,,,,,,,
,,,,,,,,,,,,a,Incorrect,0,99,99,0,1,t5.png,t1.png,4,9.55E-11,18,Female,2020-11-13_11h00.56.890,torte-q,2020.1.3,Win32,60,13917,1.24079,,,,,,,,,,,,,,,,,,,,,,,,,,,,,,,,,,,,,,,,,,,,
,,,,,,,,,,,,l,Incorrect,0,100,100,15,1,t3.png,t2.png,1,0.90855,18,Female,2020-11-13_11h00.56.890,torte-q,2020.1.3,Win32,60,13917,1.272755,,,,,,,,,,,,,,,,,,,,,,,,,,,,,,,,,,,,,,,,,,,,
,,,,,,,,,,,,l,Correct!,0,101,101,72,1,t4.png,t2.png,2,0.059078,18,Female,2020-11-13_11h00.56.890,torte-q,2020.1.3,Win32,60,13917,1.24729,,,,,,,,,,,,,,,,,,,,,,,,,,,,,,,,,,,,,,,,,,,,
,,,,,,,,,,,,a,Correct!,0,102,102,28,1,t2.png,t3.png,1,0.909,18,Female,2020-11-13_11h00.56.890,torte-q,2020.1.3,Win32,60,13917,0.88485,,,,,,,,,,,,,,,,,,,,,,,,,,,,,,,,,,,,,,,,,,,,
,,,,,,,,,,,,a,Correct!,0,103,103,81,1,t1.png,t1.png,0,0.97829,18,Female,2020-11-13_11h00.56.890,torte-q,2020.1.3,Win32,60,13917,0.818735,,,,,,,,,,,,,,,,,,,,,,,,,,,,,,,,,,,,,,,,,,,,
,,,,,,,,,,,,l,Incorrect,0,104,104,114,1,t2.png,t3.png,1,0.90855,18,Female,2020-11-13_11h00.56.890,torte-q,2020.1.3,Win32,60,13917,1.348845,,,,,,,,,,,,,,,,,,,,,,,,,,,,,,,,,,,,,,,,,,,,
,,,,,,,,,,,,a,Correct!,0,105,105,113,1,t5.png,t4.png,1,0.9,18,Female,2020-11-13_11h00.56.890,torte-q,2020.1.3,Win32,60,13917,1.113465,,,,,,,,,,,,,,,,,,,,,,,,,,,,,,,,,,,,,,,,,,,,
,,,,,,,,,,,,a,Correct!,0,106,106,110,1,t4.png,t5.png,1,0.90025,18,Female,2020-11-13_11h00.56.890,torte-q,2020.1.3,Win32,60,13917,1.034075,,,,,,,,,,,,,,,,,,,,,,,,,,,,,,,,,,,,,,,,,,,,
,,,,,,,,,,,,a,Correct!,0,107,107,77,1,t1.png,t1.png,0,0.97829,18,Female,2020-11-13_11h00.56.890,torte-q,2020.1.3,Win32,60,13917,0.80107,,,,,,,,,,,,,,,,,,,,,,,,,,,,,,,,,,,,,,,,,,,,
,,,,,,,,,,,,l,Incorrect,0,108,108,92,1,t2.png,t3.png,1,0.909,18,Female,2020-11-13_11h00.56.890,torte-q,2020.1.3,Win32,60,13917,1.031265,,,,,,,,,,,,,,,,,,,,,,,,,,,,,,,,,,,,,,,,,,,,
,,,,,,,,,,,,a,Correct!,0,109,109,107,1,t1.png,t1.png,0,0.978,18,Female,2020-11-13_11h00.56.890,torte-q,2020.1.3,Win32,60,13917,0.64995,,,,,,,,,,,,,,,,,,,,,,,,,,,,,,,,,,,,,,,,,,,,
,,,,,,,,,,,,a,Correct!,0,110,110,97,1,t5.png,t5.png,0,0.97829,18,Female,2020-11-13_11h00.56.890,torte-q,2020.1.3,Win32,60,13917,0.840195,,,,,,,,,,,,,,,,,,,,,,,,,,,,,,,,,,,,,,,,,,,,
,,,,,,,,,,,,a,Correct!,0,111,111,42,1,t5.png,t4.png,1,0.90025,18,Female,2020-11-13_11h00.56.890,torte-q,2020.1.3,Win32,60,13917,0.96532,,,,,,,,,,,,,,,,,,,,,,,,,,,,,,,,,,,,,,,,,,,,
,,,,,,,,,,,,l,Incorrect,0,112,112,63,1,t2.png,t3.png,1,0.909,18,Female,2020-11-13_11h00.56.890,torte-q,2020.1.3,Win32,60,13917,1.5633,,,,,,,,,,,,,,,,,,,,,,,,,,,,,,,,,,,,,,,,,,,,
,,,,,,,,,,,,l,Correct!,0,113,113,19,1,t4.png,t2.png,2,0.059078,18,Female,2020-11-13_11h00.56.890,torte-q,2020.1.3,Win32,60,13917,1.71072,,,,,,,,,,,,,,,,,,,,,,,,,,,,,,,,,,,,,,,,,,,,
,,,,,,,,,,,,l,Correct!,0,114,114,54,1,t1.png,t5.png,4,9.55E-11,18,Female,2020-11-13_11h00.56.890,torte-q,2020.1.3,Win32,60,13917,0.917025,,,,,,,,,,,,,,,,,,,,,,,,,,,,,,,,,,,,,,,,,,,,
,,,,,,,,,,,,l,Incorrect,0,115,115,58,1,t5.png,t4.png,1,0.90025,18,Female,2020-11-13_11h00.56.890,torte-q,2020.1.3,Win32,60,13917,1.11654,,,,,,,,,,,,,,,,,,,,,,,,,,,,,,,,,,,,,,,,,,,,
,,,,,,,,,,,,a,Correct!,0,116,116,48,1,t5.png,t5.png,0,0.97829,18,Female,2020-11-13_11h00.56.890,torte-q,2020.1.3,Win32,60,13917,0.8548,,,,,,,,,,,,,,,,,,,,,,,,,,,,,,,,,,,,,,,,,,,,
,,,,,,,,,,,,a,Correct!,0,117,117,100,1,t4.png,t5.png,1,0.90025,18,Female,2020-11-13_11h00.56.890,torte-q,2020.1.3,Win32,60,13917,0.738435,,,,,,,,,,,,,,,,,,,,,,,,,,,,,,,,,,,,,,,,,,,,
,,,,,,,,,,,,l,Correct!,0,118,118,67,1,t1.png,t5.png,4,9.55E-11,18,Female,2020-11-13_11h00.56.890,torte-q,2020.1.3,Win32,60,13917,1.135765,,,,,,,,,,,,,,,,,,,,,,,,,,,,,,,,,,,,,,,,,,,,
,,,,,,,,,,,,a,Correct!,0,119,119,34,1,t5.png,t4.png,1,0.9,18,Female,2020-11-13_11h00.56.890,torte-q,2020.1.3,Win32,60,13917,1.64726,,,,,,,,,,,,,,,,,,,,,,,,,,,,,,,,,,,,,,,,,,,,
,,,,,,,,,,,,a,Correct!,,,,,,t2.png,t2.png,0,0.981,18,Female,2020-11-13_11h00.56.890,torte-q,2020.1.3,Win32,60,13917,1.60437,space,2.822615,space,10.99269,0,0,0,101,1,,,,,,,,,,,,,,,,,,,,,,,,,,,,,,,,,,,
,,,,,,,,,,,,a,Correct!,,,,,,t3.png,t4.png,1,0.909,18,Female,2020-11-13_11h00.56.890,torte-q,2020.1.3,Win32,60,13917,1.664055,,,,,0,1,1,89,1,,,,,,,,,,,,,,,,,,,,,,,,,,,,,,,,,,,
,,,,,,,,,,,,l,Incorrect,,,,,,t2.png,t3.png,1,0.90855,18,Female,2020-11-13_11h00.56.890,torte-q,2020.1.3,Win32,60,13917,1.055195,,,,,0,2,2,10,1,,,,,,,,,,,,,,,,,,,,,,,,,,,,,,,,,,,
,,,,,,,,,,,,a,Correct!,,,,,,t3.png,t4.png,1,0.90855,18,Female,2020-11-13_11h00.56.890,torte-q,2020.1.3,Win32,60,13917,1.383685,,,,,0,3,3,84,1,,,,,,,,,,,,,,,,,,,,,,,,,,,,,,,,,,,
,,,,,,,,,,,,a,Correct!,,,,,,t4.png,t5.png,1,0.90025,18,Female,2020-11-13_11h00.56.890,torte-q,2020.1.3,Win32,60,13917,1.19136,,,,,0,4,4,113,1,,,,,,,,,,,,,,,,,,,,,,,,,,,,,,,,,,,
,,,,,,,,,,,,l,Incorrect,,,,,,t1.png,t2.png,1,0.90025,18,Female,2020-11-13_11h00.56.890,torte-q,2020.1.3,Win32,60,13917,1.317035,,,,,0,5,5,33,1,,,,,,,,,,,,,,,,,,,,,,,,,,,,,,,,,,,
,,,,,,,,,,,,a,Correct!,,,,,,t4.png,t4.png,0,0.98115,18,Female,2020-11-13_11h00.56.890,torte-q,2020.1.3,Win32,60,13917,1.46228,,,,,0,6,6,21,1,,,,,,,,,,,,,,,,,,,,,,,,,,,,,,,,,,,
,,,,,,,,,,,,l,Correct!,,,,,,t2.png,t4.png,2,0.059078,18,Female,2020-11-13_11h00.56.890,torte-q,2020.1.3,Win32,60,13917,0.98669,,,,,0,7,7,37,1,,,,,,,,,,,,,,,,,,,,,,,,,,,,,,,,,,,
,,,,,,,,,,,,l,Correct!,,,,,,t5.png,t1.png,4,9.55E-11,18,Female,2020-11-13_11h00.56.890,torte-q,2020.1.3,Win32,60,13917,1.07015,,,,,0,8,8,71,1,,,,,,,,,,,,,,,,,,,,,,,,,,,,,,,,,,,
,,,,,,,,,,,,a,Correct!,,,,,,t1.png,t2.png,1,0.90025,18,Female,2020-11-13_11h00.56.890,torte-q,2020.1.3,Win32,60,13917,1.83086,,,,,0,9,9,112,1,,,,,,,,,,,,,,,,,,,,,,,,,,,,,,,,,,,
,,,,,,,,,,,,a,Correct!,,,,,,t4.png,t5.png,1,0.90025,18,Female,2020-11-13_11h00.56.890,torte-q,2020.1.3,Win32,60,13917,1.08784,,,,,0,10,10,47,1,,,,,,,,,,,,,,,,,,,,,,,,,,,,,,,,,,,
,,,,,,,,,,,,l,Correct!,,,,,,t1.png,t3.png,2,0.056466,18,Female,2020-11-13_11h00.56.890,torte-q,2020.1.3,Win32,60,13917,1.43228,,,,,0,11,11,99,1,,,,,,,,,,,,,,,,,,,,,,,,,,,,,,,,,,,
,,,,,,,,,,,,a,Correct!,,,,,,t2.png,t1.png,1,0.90025,18,Female,2020-11-13_11h00.56.890,torte-q,2020.1.3,Win32,60,13917,1.339865,,,,,0,12,12,19,1,,,,,,,,,,,,,,,,,,,,,,,,,,,,,,,,,,,
,,,,,,,,,,,,a,Correct!,,,,,,t5.png,t4.png,1,0.9,18,Female,2020-11-13_11h00.56.890,torte-q,2020.1.3,Win32,60,13917,1.11445,,,,,0,13,13,76,1,,,,,,,,,,,,,,,,,,,,,,,,,,,,,,,,,,,
,,,,,,,,,,,,l,Correct!,,,,,,t3.png,t1.png,2,0.056466,18,Female,2020-11-13_11h00.56.890,torte-q,2020.1.3,Win32,60,13917,1.054845,,,,,0,14,14,29,1,,,,,,,,,,,,,,,,,,,,,,,,,,,,,,,,,,,
,,,,,,,,,,,,l,Incorrect,,,,,,t2.png,t3.png,1,0.90855,18,Female,2020-11-13_11h00.56.890,torte-q,2020.1.3,Win32,60,13917,0.979275,,,,,0,15,15,65,1,,,,,,,,,,,,,,,,,,,,,,,,,,,,,,,,,,,
,,,,,,,,,,,,a,Correct!,,,,,,t4.png,t3.png,1,0.90855,18,Female,2020-11-13_11h00.56.890,torte-q,2020.1.3,Win32,60,13917,1.231935,,,,,0,16,16,45,1,,,,,,,,,,,,,,,,,,,,,,,,,,,,,,,,,,,
,,,,,,,,,,,,l,Incorrect,,,,,,t2.png,t2.png,0,0.98115,18,Female,2020-11-13_11h00.56.890,torte-q,2020.1.3,Win32,60,13917,1.36386,,,,,0,17,17,7,1,,,,,,,,,,,,,,,,,,,,,,,,,,,,,,,,,,,
,,,,,,,,,,,,l,Incorrect,,,,,,t2.png,t2.png,0,0.98115,18,Female,2020-11-13_11h00.56.890,torte-q,2020.1.3,Win32,60,13917,0.881865,,,,,0,18,18,59,1,,,,,,,,,,,,,,,,,,,,,,,,,,,,,,,,,,,
,,,,,,,,,,,,a,Correct!,,,,,,t4.png,t5.png,1,0.90025,18,Female,2020-11-13_11h00.56.890,torte-q,2020.1.3,Win32,60,13917,1.36602,,,,,0,19,19,103,1,,,,,,,,,,,,,,,,,,,,,,,,,,,,,,,,,,,
,,,,,,,,,,,,l,Incorrect,,,,,,t3.png,t2.png,1,0.909,18,Female,2020-11-13_11h00.56.890,torte-q,2020.1.3,Win32,60,13917,1.29684,,,,,0,20,20,23,1,,,,,,,,,,,,,,,,,,,,,,,,,,,,,,,,,,,
,,,,,,,,,,,,l,Incorrect,,,,,,t3.png,t2.png,1,0.909,18,Female,2020-11-13_11h00.56.890,torte-q,2020.1.3,Win32,60,13917,0.722525,,,,,0,21,21,3,1,,,,,,,,,,,,,,,,,,,,,,,,,,,,,,,,,,,
,,,,,,,,,,,,a,Incorrect,,,,,,t3.png,t5.png,2,0.0565,18,Female,2020-11-13_11h00.56.890,torte-q,2020.1.3,Win32,60,13917,1.41285,,,,,0,22,22,83,1,,,,,,,,,,,,,,,,,,,,,,,,,,,,,,,,,,,
,,,,,,,,,,,,l,Correct!,,,,,,t2.png,t4.png,2,0.059078,18,Female,2020-11-13_11h00.56.890,torte-q,2020.1.3,Win32,60,13917,1.206765,,,,,0,23,23,24,1,,,,,,,,,,,,,,,,,,,,,,,,,,,,,,,,,,,
,,,,,,,,,,,,a,Incorrect,,,,,,t3.png,t1.png,2,0.0565,18,Female,2020-11-13_11h00.56.890,torte-q,2020.1.3,Win32,60,13917,1.032565,,,,,0,24,24,31,1,,,,,,,,,,,,,,,,,,,,,,,,,,,,,,,,,,,
,,,,,,,,,,,,a,Correct!,,,,,,t1.png,t1.png,0,0.97829,18,Female,2020-11-13_11h00.56.890,torte-q,2020.1.3,Win32,60,13917,0.914055,,,,,0,25,25,9,1,,,,,,,,,,,,,,,,,,,,,,,,,,,,,,,,,,,
,,,,,,,,,,,,a,Correct!,,,,,,t1.png,t1.png,0,0.978,18,Female,2020-11-13_11h00.56.890,torte-q,2020.1.3,Win32,60,13917,1.385515,,,,,0,26,26,54,1,,,,,,,,,,,,,,,,,,,,,,,,,,,,,,,,,,,
,,,,,,,,,,,,a,Correct!,,,,,,t1.png,t1.png,0,0.978,18,Female,2020-11-13_11h00.56.890,torte-q,2020.1.3,Win32,60,13917,0.9215,,,,,0,27,27,28,1,,,,,,,,,,,,,,,,,,,,,,,,,,,,,,,,,,,
,,,,,,,,,,,,l,Correct!,,,,,,t3.png,t1.png,2,0.056466,18,Female,2020-11-13_11h00.56.890,torte-q,2020.1.3,Win32,60,13917,1.38982,,,,,0,28,28,0,1,,,,,,,,,,,,,,,,,,,,,,,,,,,,,,,,,,,
,,,,,,,,,,,,a,Correct!,,,,,,t1.png,t2.png,1,0.9,18,Female,2020-11-13_11h00.56.890,torte-q,2020.1.3,Win32,60,13917,1.645725,,,,,0,29,29,1,1,,,,,,,,,,,,,,,,,,,,,,,,,,,,,,,,,,,
,,,,,,,,,,,,a,Correct!,,,,,,t5.png,t5.png,0,0.978,18,Female,2020-11-13_11h00.56.890,torte-q,2020.1.3,Win32,60,13917,1.04099,,,,,0,30,30,117,1,,,,,,,,,,,,,,,,,,,,,,,,,,,,,,,,,,,
,,,,,,,,,,,,l,Correct!,,,,,,t4.png,t2.png,2,0.059078,18,Female,2020-11-13_11h00.56.890,torte-q,2020.1.3,Win32,60,13917,1.349555,,,,,0,31,31,109,1,,,,,,,,,,,,,,,,,,,,,,,,,,,,,,,,,,,
,,,,,,,,,,,,l,Correct!,,,,,,t2.png,t4.png,2,0.0591,18,Female,2020-11-13_11h00.56.890,torte-q,2020.1.3,Win32,60,13917,0.97264,,,,,0,32,32,15,1,,,,,,,,,,,,,,,,,,,,,,,,,,,,,,,,,,,
,,,,,,,,,,,,a,Incorrect,,,,,,t5.png,t2.png,3,0.0000131,18,Female,2020-11-13_11h00.56.890,torte-q,2020.1.3,Win32,60,13917,1.018495,,,,,0,33,33,116,1,,,,,,,,,,,,,,,,,,,,,,,,,,,,,,,,,,,
,,,,,,,,,,,,a,Incorrect,,,,,,t2.png,t5.png,3,0.0000131,18,Female,2020-11-13_11h00.56.890,torte-q,2020.1.3,Win32,60,13917,1.41423,,,,,0,34,34,8,1,,,,,,,,,,,,,,,,,,,,,,,,,,,,,,,,,,,
,,,,,,,,,,,,l,Incorrect,,,,,,t5.png,t4.png,1,0.90025,18,Female,2020-11-13_11h00.56.890,torte-q,2020.1.3,Win32,60,13917,0.797425,,,,,0,35,35,34,1,,,,,,,,,,,,,,,,,,,,,,,,,,,,,,,,,,,
,,,,,,,,,,,,a,Correct!,,,,,,t1.png,t2.png,1,0.90025,18,Female,2020-11-13_11h00.56.890,torte-q,2020.1.3,Win32,60,13917,2.102835,,,,,0,36,36,105,1,,,,,,,,,,,,,,,,,,,,,,,,,,,,,,,,,,,
,,,,,,,,,,,,l,Correct!,,,,,,t5.png,t1.png,4,9.55E-11,18,Female,2020-11-13_11h00.56.890,torte-q,2020.1.3,Win32,60,13917,0.907025,,,,,0,37,37,43,1,,,,,,,,,,,,,,,,,,,,,,,,,,,,,,,,,,,
,,,,,,,,,,,,a,Incorrect,,,,,,t2.png,t1.png,1,0.90025,18,Female,2020-11-13_11h00.56.890,torte-q,2020.1.3,Win32,60,13917,2.114005,,,,,0,38,38,5,1,,,,,,,,,,,,,,,,,,,,,,,,,,,,,,,,,,,
,,,,,,,,,,,,,Too slow :(,,,,,,t4.png,t1.png,3,0.0000131,18,Female,2020-11-13_11h00.56.890,torte-q,2020.1.3,Win32,60,13917,,,,,,0,39,39,93,1,,,,,,,,,,,,,,,,,,,,,,,,,,,,,,,,,,,
,,,,,,,,,,,,a,Incorrect,,,,,,t5.png,t2.png,3,0.0000131,18,Female,2020-11-13_11h00.56.890,torte-q,2020.1.3,Win32,60,13917,1.436415,,,,,0,40,40,91,1,,,,,,,,,,,,,,,,,,,,,,,,,,,,,,,,,,,
,,,,,,,,,,,,a,Correct!,,,,,,t4.png,t4.png,0,0.98115,18,Female,2020-11-13_11h00.56.890,torte-q,2020.1.3,Win32,60,13917,0.91435,,,,,0,41,41,90,1,,,,,,,,,,,,,,,,,,,,,,,,,,,,,,,,,,,
,,,,,,,,,,,,a,Correct!,,,,,,t4.png,t3.png,1,0.90855,18,Female,2020-11-13_11h00.56.890,torte-q,2020.1.3,Win32,60,13917,1.639305,,,,,0,42,42,75,1,,,,,,,,,,,,,,,,,,,,,,,,,,,,,,,,,,,
,,,,,,,,,,,,a,Correct!,,,,,,t5.png,t5.png,0,0.97829,18,Female,2020-11-13_11h00.56.890,torte-q,2020.1.3,Win32,60,13917,0.74947,,,,,0,43,43,25,1,,,,,,,,,,,,,,,,,,,,,,,,,,,,,,,,,,,
,,,,,,,,,,,,l,Correct!,,,,,,t4.png,t1.png,3,0.0000131,18,Female,2020-11-13_11h00.56.890,torte-q,2020.1.3,Win32,60,13917,1.239575,,,,,0,44,44,61,1,,,,,,,,,,,,,,,,,,,,,,,,,,,,,,,,,,,
,,,,,,,,,,,,a,Correct!,,,,,,t5.png,t5.png,0,0.97829,18,Female,2020-11-13_11h00.56.890,torte-q,2020.1.3,Win32,60,13917,1.336595,,,,,0,45,45,73,1,,,,,,,,,,,,,,,,,,,,,,,,,,,,,,,,,,,
,,,,,,,,,,,,a,Correct!,,,,,,t3.png,t4.png,1,0.909,18,Female,2020-11-13_11h00.56.890,torte-q,2020.1.3,Win32,60,13917,1.56326,,,,,0,46,46,106,1,,,,,,,,,,,,,,,,,,,,,,,,,,,,,,,,,,,
,,,,,,,,,,,,,Too slow :(,,,,,,t2.png,t2.png,0,0.98115,18,Female,2020-11-13_11h00.56.890,torte-q,2020.1.3,Win32,60,13917,,,,,,0,47,47,57,1,,,,,,,,,,,,,,,,,,,,,,,,,,,,,,,,,,,
,,,,,,,,,,,,a,Incorrect,,,,,,t1.png,t1.png,0,0.97829,18,Female,2020-11-13_11h00.56.890,torte-q,2020.1.3,Win32,60,13917,0.900145,,,,,0,48,48,78,1,,,,,,,,,,,,,,,,,,,,,,,,,,,,,,,,,,,
,,,,,,,,,,,,a,Correct!,,,,,,t1.png,t1.png,0,0.97829,18,Female,2020-11-13_11h00.56.890,torte-q,2020.1.3,Win32,60,13917,0.666645,,,,,0,49,49,67,1,,,,,,,,,,,,,,,,,,,,,,,,,,,,,,,,,,,
,,,,,,,,,,,,l,Incorrect,,,,,,t2.png,t4.png,2,0.059078,18,Female,2020-11-13_11h00.56.890,torte-q,2020.1.3,Win32,60,13917,1.25585,,,,,0,50,50,11,1,,,,,,,,,,,,,,,,,,,,,,,,,,,,,,,,,,,
,,,,,,,,,,,,l,Correct!,,,,,,t5.png,t1.png,4,9.55E-11,18,Female,2020-11-13_11h00.56.890,torte-q,2020.1.3,Win32,60,13917,0.96417,,,,,0,51,51,22,1,,,,,,,,,,,,,,,,,,,,,,,,,,,,,,,,,,,
,,,,,,,,,,,,l,Correct!,,,,,,t5.png,t1.png,4,9.55E-11,18,Female,2020-11-13_11h00.56.890,torte-q,2020.1.3,Win32,60,13917,0.554625,,,,,0,52,52,100,1,,,,,,,,,,,,,,,,,,,,,,,,,,,,,,,,,,,
,,,,,,,,,,,,a,Incorrect,,,,,,t5.png,t2.png,3,0.0000131,18,Female,2020-11-13_11h00.56.890,torte-q,2020.1.3,Win32,60,13917,1.181905,,,,,0,53,53,98,1,,,,,,,,,,,,,,,,,,,,,,,,,,,,,,,,,,,
,,,,,,,,,,,,l,Correct!,,,,,,t1.png,t3.png,2,0.056466,18,Female,2020-11-13_11h00.56.890,torte-q,2020.1.3,Win32,60,13917,1.06363,,,,,0,54,54,63,1,,,,,,,,,,,,,,,,,,,,,,,,,,,,,,,,,,,
,,,,,,,,,,,,a,Incorrect,,,,,,t3.png,t5.png,2,0.056466,18,Female,2020-11-13_11h00.56.890,torte-q,2020.1.3,Win32,60,13917,1.596965,,,,,0,55,55,14,1,,,,,,,,,,,,,,,,,,,,,,,,,,,,,,,,,,,
,,,,,,,,,,,,a,Correct!,,,,,,t5.png,t5.png,0,0.97829,18,Female,2020-11-13_11h00.56.890,torte-q,2020.1.3,Win32,60,13917,1.313775,,,,,0,56,56,70,1,,,,,,,,,,,,,,,,,,,,,,,,,,,,,,,,,,,
,,,,,,,,,,,,l,Correct!,,,,,,t1.png,t4.png,3,0.0000131,18,Female,2020-11-13_11h00.56.890,torte-q,2020.1.3,Win32,60,13917,1.140455,,,,,0,57,57,17,1,,,,,,,,,,,,,,,,,,,,,,,,,,,,,,,,,,,
,,,,,,,,,,,,a,Incorrect,,,,,,t2.png,t5.png,3,0.0000131,18,Female,2020-11-13_11h00.56.890,torte-q,2020.1.3,Win32,60,13917,2.08061,,,,,0,58,58,104,1,,,,,,,,,,,,,,,,,,,,,,,,,,,,,,,,,,,
,,,,,,,,,,,,a,Incorrect,,,,,,t3.png,t5.png,2,0.056466,18,Female,2020-11-13_11h00.56.890,torte-q,2020.1.3,Win32,60,13917,1.44895,,,,,0,59,59,6,1,,,,,,,,,,,,,,,,,,,,,,,,,,,,,,,,,,,
,,,,,,,,,,,,l,Incorrect,,,,,,t1.png,t2.png,1,0.90025,18,Female,2020-11-13_11h00.56.890,torte-q,2020.1.3,Win32,60,13917,1.357435,,,,,0,60,60,72,1,,,,,,,,,,,,,,,,,,,,,,,,,,,,,,,,,,,
,,,,,,,,,,,,l,Correct!,,,,,,t4.png,t2.png,2,0.059078,18,Female,2020-11-13_11h00.56.890,torte-q,2020.1.3,Win32,60,13917,2.037765,,,,,0,61,61,88,1,,,,,,,,,,,,,,,,,,,,,,,,,,,,,,,,,,,
,,,,,,,,,,,,a,Correct!,,,,,,t4.png,t5.png,1,0.90025,18,Female,2020-11-13_11h00.56.890,torte-q,2020.1.3,Win32,60,13917,0.952885,,,,,0,62,62,58,1,,,,,,,,,,,,,,,,,,,,,,,,,,,,,,,,,,,
,,,,,,,,,,,,a,Correct!,,,,,,t4.png,t4.png,0,0.98115,18,Female,2020-11-13_11h00.56.890,torte-q,2020.1.3,Win32,60,13917,1.88726,,,,,0,63,63,52,1,,,,,,,,,,,,,,,,,,,,,,,,,,,,,,,,,,,
,,,,,,,,,,,,l,Correct!,,,,,,t1.png,t5.png,4,9.55E-11,18,Female,2020-11-13_11h00.56.890,torte-q,2020.1.3,Win32,60,13917,0.830765,,,,,0,64,64,12,1,,,,,,,,,,,,,,,,,,,,,,,,,,,,,,,,,,,
,,,,,,,,,,,,a,Correct!,,,,,,t3.png,t2.png,1,0.90855,18,Female,2020-11-13_11h00.56.890,torte-q,2020.1.3,Win32,60,13917,1.149215,,,,,0,65,65,53,1,,,,,,,,,,,,,,,,,,,,,,,,,,,,,,,,,,,
,,,,,,,,,,,,a,Incorrect,,,,,,t5.png,t4.png,1,0.90025,18,Female,2020-11-13_11h00.56.890,torte-q,2020.1.3,Win32,60,13917,1.0794,,,,,0,66,66,26,1,,,,,,,,,,,,,,,,,,,,,,,,,,,,,,,,,,,
,,,,,,,,,,,,a,Incorrect,,,,,,t4.png,t1.png,3,0.0000131,18,Female,2020-11-13_11h00.56.890,torte-q,2020.1.3,Win32,60,13917,1.686575,,,,,0,67,67,48,1,,,,,,,,,,,,,,,,,,,,,,,,,,,,,,,,,,,
,,,,,,,,,,,,l,Correct!,,,,,,t4.png,t1.png,3,0.0000131,18,Female,2020-11-13_11h00.56.890,torte-q,2020.1.3,Win32,60,13917,0.66577,,,,,0,68,68,42,1,,,,,,,,,,,,,,,,,,,,,,,,,,,,,,,,,,,
,,,,,,,,,,,,l,Incorrect,,,,,,t2.png,t1.png,1,0.90025,18,Female,2020-11-13_11h00.56.890,torte-q,2020.1.3,Win32,60,13917,1.021255,,,,,0,69,69,4,1,,,,,,,,,,,,,,,,,,,,,,,,,,,,,,,,,,,
,,,,,,,,,,,,a,Correct!,,,,,,t4.png,t3.png,1,0.909,18,Female,2020-11-13_11h00.56.890,torte-q,2020.1.3,Win32,60,13917,1.137195,,,,,0,70,70,20,1,,,,,,,,,,,,,,,,,,,,,,,,,,,,,,,,,,,
,,,,,,,,,,,,l,Correct!,,,,,,t1.png,t4.png,3,0.0000131,18,Female,2020-11-13_11h00.56.890,torte-q,2020.1.3,Win32,60,13917,0.830025,,,,,0,71,71,81,1,,,,,,,,,,,,,,,,,,,,,,,,,,,,,,,,,,,
,,,,,,,,,,,,a,Incorrect,,,,,,t3.png,t5.png,2,0.056466,18,Female,2020-11-13_11h00.56.890,torte-q,2020.1.3,Win32,60,13917,0.899345,,,,,0,72,72,44,1,,,,,,,,,,,,,,,,,,,,,,,,,,,,,,,,,,,
,,,,,,,,,,,,l,Correct!,,,,,,t1.png,t5.png,4,9.55E-11,18,Female,2020-11-13_11h00.56.890,torte-q,2020.1.3,Win32,60,13917,0.7658,,,,,0,73,73,55,1,,,,,,,,,,,,,,,,,,,,,,,,,,,,,,,,,,,
,,,,,,,,,,,,a,Incorrect,,,,,,t4.png,t5.png,1,0.9,18,Female,2020-11-13_11h00.56.890,torte-q,2020.1.3,Win32,60,13917,1.263735,,,,,0,74,74,115,1,,,,,,,,,,,,,,,,,,,,,,,,,,,,,,,,,,,
,,,,,,,,,,,,a,Correct!,,,,,,t5.png,t4.png,1,0.90025,18,Female,2020-11-13_11h00.56.890,torte-q,2020.1.3,Win32,60,13917,1.04793,,,,,0,75,75,27,1,,,,,,,,,,,,,,,,,,,,,,,,,,,,,,,,,,,
,,,,,,,,,,,,l,Incorrect,,,,,,t2.png,t3.png,1,0.90855,18,Female,2020-11-13_11h00.56.890,torte-q,2020.1.3,Win32,60,13917,1.85538,,,,,0,76,76,68,1,,,,,,,,,,,,,,,,,,,,,,,,,,,,,,,,,,,
,,,,,,,,,,,,l,Correct!,,,,,,t1.png,t3.png,2,0.056466,18,Female,2020-11-13_11h00.56.890,torte-q,2020.1.3,Win32,60,13917,2.094455,,,,,0,77,77,60,1,,,,,,,,,,,,,,,,,,,,,,,,,,,,,,,,,,,
,,,,,,,,,,,,a,Incorrect,,,,,,t5.png,t3.png,2,0.056466,18,Female,2020-11-13_11h00.56.890,torte-q,2020.1.3,Win32,60,13917,0.747395,,,,,0,78,78,108,1,,,,,,,,,,,,,,,,,,,,,,,,,,,,,,,,,,,
,,,,,,,,,,,,l,Correct!,,,,,,t2.png,t5.png,3,0.0000131,18,Female,2020-11-13_11h00.56.890,torte-q,2020.1.3,Win32,60,13917,1.698585,,,,,0,79,79,66,1,,,,,,,,,,,,,,,,,,,,,,,,,,,,,,,,,,,
,,,,,,,,,,,,l,Correct!,,,,,,t1.png,t4.png,3,0.0000131,18,Female,2020-11-13_11h00.56.890,torte-q,2020.1.3,Win32,60,13917,0.795105,,,,,0,80,80,107,1,,,,,,,,,,,,,,,,,,,,,,,,,,,,,,,,,,,
,,,,,,,,,,,,l,Correct!,,,,,,t2.png,t4.png,2,0.059078,18,Female,2020-11-13_11h00.56.890,torte-q,2020.1.3,Win32,60,13917,1.20783,,,,,0,81,81,77,1,,,,,,,,,,,,,,,,,,,,,,,,,,,,,,,,,,,
,,,,,,,,,,,,l,Incorrect,,,,,,t3.png,t2.png,1,0.90855,18,Female,2020-11-13_11h00.56.890,torte-q,2020.1.3,Win32,60,13917,1.153995,,,,,0,82,82,18,1,,,,,,,,,,,,,,,,,,,,,,,,,,,,,,,,,,,
,,,,,,,,,,,,l,Correct!,,,,,,t1.png,t5.png,4,9.55E-11,18,Female,2020-11-13_11h00.56.890,torte-q,2020.1.3,Win32,60,13917,0.63086,,,,,0,83,83,16,1,,,,,,,,,,,,,,,,,,,,,,,,,,,,,,,,,,,
,,,,,,,,,,,,l,Incorrect,,,,,,t4.png,t3.png,1,0.909,18,Female,2020-11-13_11h00.56.890,torte-q,2020.1.3,Win32,60,13917,0.63554,,,,,0,84,84,46,1,,,,,,,,,,,,,,,,,,,,,,,,,,,,,,,,,,,
,,,,,,,,,,,,l,Incorrect,,,,,,t2.png,t3.png,1,0.909,18,Female,2020-11-13_11h00.56.890,torte-q,2020.1.3,Win32,60,13917,1.232195,,,,,0,85,85,74,1,,,,,,,,,,,,,,,,,,,,,,,,,,,,,,,,,,,
,,,,,,,,,,,,a,Incorrect,,,,,,t5.png,t3.png,2,0.0565,18,Female,2020-11-13_11h00.56.890,torte-q,2020.1.3,Win32,60,13917,0.79795,,,,,0,86,86,39,1,,,,,,,,,,,,,,,,,,,,,,,,,,,,,,,,,,,
,,,,,,,,,,,,l,Correct!,,,,,,t1.png,t5.png,4,9.55E-11,18,Female,2020-11-13_11h00.56.890,torte-q,2020.1.3,Win32,60,13917,0.58154,,,,,0,87,87,41,1,,,,,,,,,,,,,,,,,,,,,,,,,,,,,,,,,,,
,,,,,,,,,,,,a,Incorrect,,,,,,t2.png,t5.png,3,0.0000131,18,Female,2020-11-13_11h00.56.890,torte-q,2020.1.3,Win32,60,13917,0.911005,,,,,0,88,88,40,1,,,,,,,,,,,,,,,,,,,,,,,,,,,,,,,,,,,
,,,,,,,,,,,,l,Incorrect,,,,,,t2.png,t1.png,1,0.90025,18,Female,2020-11-13_11h00.56.890,torte-q,2020.1.3,Win32,60,13917,0.788215,,,,,0,89,89,62,1,,,,,,,,,,,,,,,,,,,,,,,,,,,,,,,,,,,
,,,,,,,,,,,,a,Correct!,,,,,,t4.png,t3.png,1,0.90855,18,Female,2020-11-13_11h00.56.890,torte-q,2020.1.3,Win32,60,13917,1.523635,,,,,0,90,90,35,1,,,,,,,,,,,,,,,,,,,,,,,,,,,,,,,,,,,
,,,,,,,,,,,,a,Correct!,,,,,,t5.png,t5.png,0,0.97829,18,Female,2020-11-13_11h00.56.890,torte-q,2020.1.3,Win32,60,13917,1.24122,,,,,0,91,91,94,1,,,,,,,,,,,,,,,,,,,,,,,,,,,,,,,,,,,
,,,,,,,,,,,,a,Correct!,,,,,,t5.png,t4.png,1,0.9,18,Female,2020-11-13_11h00.56.890,torte-q,2020.1.3,Win32,60,13917,0.63558,,,,,0,92,92,49,1,,,,,,,,,,,,,,,,,,,,,,,,,,,,,,,,,,,
,,,,,,,,,,,,a,Correct!,,,,,,t3.png,t4.png,1,0.90855,18,Female,2020-11-13_11h00.56.890,torte-q,2020.1.3,Win32,60,13917,0.982595,,,,,0,93,93,96,1,,,,,,,,,,,,,,,,,,,,,,,,,,,,,,,,,,,
,,,,,,,,,,,,a,Correct!,,,,,,t4.png,t4.png,0,0.98115,18,Female,2020-11-13_11h00.56.890,torte-q,2020.1.3,Win32,60,13917,0.970595,,,,,0,94,94,79,1,,,,,,,,,,,,,,,,,,,,,,,,,,,,,,,,,,,
,,,,,,,,,,,,a,Incorrect,,,,,,t5.png,t2.png,3,0.0000131,18,Female,2020-11-13_11h00.56.890,torte-q,2020.1.3,Win32,60,13917,1.27997,,,,,0,95,95,51,1,,,,,,,,,,,,,,,,,,,,,,,,,,,,,,,,,,,
,,,,,,,,,,,,l,Correct!,,,,,,t3.png,t1.png,2,0.056466,18,Female,2020-11-13_11h00.56.890,torte-q,2020.1.3,Win32,60,13917,0.87099,,,,,0,96,96,64,1,,,,,,,,,,,,,,,,,,,,,,,,,,,,,,,,,,,
,,,,,,,,,,,,l,Incorrect,,,,,,t3.png,t2.png,1,0.90855,18,Female,2020-11-13_11h00.56.890,torte-q,2020.1.3,Win32,60,13917,0.814485,,,,,0,97,97,97,1,,,,,,,,,,,,,,,,,,,,,,,,,,,,,,,,,,,
,,,,,,,,,,,,l,Correct!,,,,,,t1.png,t5.png,4,9.55E-11,18,Female,2020-11-13_11h00.56.890,torte-q,2020.1.3,Win32,60,13917,1.347305,,,,,0,98,98,85,1,,,,,,,,,,,,,,,,,,,,,,,,,,,,,,,,,,,
,,,,,,,,,,,,l,Correct!,,,,,,t1.png,t4.png,3,0.0000131,18,Female,2020-11-13_11h00.56.890,torte-q,2020.1.3,Win32,60,13917,0.86561,,,,,0,99,99,92,1,,,,,,,,,,,,,,,,,,,,,,,,,,,,,,,,,,,
,,,,,,,,,,,,a,Incorrect,,,,,,t5.png,t3.png,2,0.056466,18,Female,2020-11-13_11h00.56.890,torte-q,2020.1.3,Win32,60,13917,1.10777,,,,,0,100,100,38,1,,,,,,,,,,,,,,,,,,,,,,,,,,,,,,,,,,,
,,,,,,,,,,,,l,Correct!,,,,,,t4.png,t2.png,2,0.0591,18,Female,2020-11-13_11h00.56.890,torte-q,2020.1.3,Win32,60,13917,1.34881,,,,,0,101,101,36,1,,,,,,,,,,,,,,,,,,,,,,,,,,,,,,,,,,,
,,,,,,,,,,,,l,Correct!,,,,,,t1.png,t4.png,3,0.0000131,18,Female,2020-11-13_11h00.56.890,torte-q,2020.1.3,Win32,60,13917,0.917675,,,,,0,102,102,50,1,,,,,,,,,,,,,,,,,,,,,,,,,,,,,,,,,,,
,,,,,,,,,,,,a,Incorrect,,,,,,t5.png,t2.png,3,0.0000131,18,Female,2020-11-13_11h00.56.890,torte-q,2020.1.3,Win32,60,13917,1.05368,,,,,0,103,103,119,1,,,,,,,,,,,,,,,,,,,,,,,,,,,,,,,,,,,
,,,,,,,,,,,,l,Correct!,,,,,,t3.png,t1.png,2,0.056466,18,Female,2020-11-13_11h00.56.890,torte-q,2020.1.3,Win32,60,13917,0.837385,,,,,0,104,104,32,1,,,,,,,,,,,,,,,,,,,,,,,,,,,,,,,,,,,
,,,,,,,,,,,,a,Incorrect,,,,,,t5.png,t3.png,2,0.056466,18,Female,2020-11-13_11h00.56.890,torte-q,2020.1.3,Win32,60,13917,1.44892,,,,,0,105,105,114,1,,,,,,,,,,,,,,,,,,,,,,,,,,,,,,,,,,,
,,,,,,,,,,,,l,Correct!,,,,,,t1.png,t3.png,2,0.056466,18,Female,2020-11-13_11h00.56.890,torte-q,2020.1.3,Win32,60,13917,0.883815,,,,,0,106,106,87,1,,,,,,,,,,,,,,,,,,,,,,,,,,,,,,,,,,,
,,,,,,,,,,,,l,Incorrect,,,,,,t3.png,t4.png,1,0.909,18,Female,2020-11-13_11h00.56.890,torte-q,2020.1.3,Win32,60,13917,0.79717,,,,,0,107,107,82,1,,,,,,,,,,,,,,,,,,,,,,,,,,,,,,,,,,,
,,,,,,,,,,,,a,Incorrect,,,,,,t3.png,t5.png,2,0.0565,18,Female,2020-11-13_11h00.56.890,torte-q,2020.1.3,Win32,60,13917,0.930845,,,,,0,108,108,30,1,,,,,,,,,,,,,,,,,,,,,,,,,,,,,,,,,,,
,,,,,,,,,,,,l,Correct!,,,,,,t5.png,t1.png,4,9.55E-11,18,Female,2020-11-13_11h00.56.890,torte-q,2020.1.3,Win32,60,13917,1.17225,,,,,0,109,109,102,1,,,,,,,,,,,,,,,,,,,,,,,,,,,,,,,,,,,
,,,,,,,,,,,,l,Correct!,,,,,,t4.png,t2.png,2,0.059078,18,Female,2020-11-13_11h00.56.890,torte-q,2020.1.3,Win32,60,13917,0.96973,,,,,0,110,110,86,1,,,,,,,,,,,,,,,,,,,,,,,,,,,,,,,,,,,
,,,,,,,,,,,,l,Correct!,,,,,,t4.png,t2.png,2,0.059078,18,Female,2020-11-13_11h00.56.890,torte-q,2020.1.3,Win32,60,13917,0.82348,,,,,0,111,111,110,1,,,,,,,,,,,,,,,,,,,,,,,,,,,,,,,,,,,
,,,,,,,,,,,,a,Correct!,,,,,,t2.png,t1.png,1,0.9,18,Female,2020-11-13_11h00.56.890,torte-q,2020.1.3,Win32,60,13917,1.51926,,,,,0,112,112,118,1,,,,,,,,,,,,,,,,,,,,,,,,,,,,,,,,,,,
,,,,,,,,,,,,a,Correct!,,,,,,t2.png,t2.png,0,0.98115,18,Female,2020-11-13_11h00.56.890,torte-q,2020.1.3,Win32,60,13917,1.79777,,,,,0,113,113,2,1,,,,,,,,,,,,,,,,,,,,,,,,,,,,,,,,,,,
,,,,,,,,,,,,l,Correct!,,,,,,t4.png,t1.png,3,0.0000131,18,Female,2020-11-13_11h00.56.890,torte-q,2020.1.3,Win32,60,13917,1.31429,,,,,0,114,114,13,1,,,,,,,,,,,,,,,,,,,,,,,,,,,,,,,,,,,
,,,,,,,,,,,,a,Incorrect,,,,,,t5.png,t3.png,2,0.056466,18,Female,2020-11-13_11h00.56.890,torte-q,2020.1.3,Win32,60,13917,0.12058,,,,,0,115,115,56,1,,,,,,,,,,,,,,,,,,,,,,,,,,,,,,,,,,,
,,,,,,,,,,,,l,Correct!,,,,,,t1.png,t3.png,2,0.056466,18,Female,2020-11-13_11h00.56.890,torte-q,2020.1.3,Win32,60,13917,0.881,,,,,0,116,116,69,1,,,,,,,,,,,,,,,,,,,,,,,,,,,,,,,,,,,
,,,,,,,,,,,,a,Correct!,,,,,,t4.png,t4.png,0,0.98115,18,Female,2020-11-13_11h00.56.890,torte-q,2020.1.3,Win32,60,13917,1.33029,,,,,0,117,117,80,1,,,,,,,,,,,,,,,,,,,,,,,,,,,,,,,,,,,
,,,,,,,,,,,,a,Correct!,,,,,,t2.png,t3.png,1,0.90855,18,Female,2020-11-13_11h00.56.890,torte-q,2020.1.3,Win32,60,13917,1.215755,,,,,0,118,118,111,1,,,,,,,,,,,,,,,,,,,,,,,,,,,,,,,,,,,
,,,,,,,,,,,,a,Incorrect,,,,,,t2.png,t5.png,3,0.0000131,18,Female,2020-11-13_11h00.56.890,torte-q,2020.1.3,Win32,60,13917,1.13465,,,,,0,119,119,95,1,,,,,,,,,,,,,,,,,,,,,,,,,,,,,,,,,,,
,,,,,,,,,,,,l,Incorrect,,,,,,t2.png,t3.png,1,0.90855,18,Female,2020-11-13_11h00.56.890,torte-q,2020.1.3,Win32,60,13917,0.932445,space,6.709705,,,,,,,,N/A,12.35876,space,5.824515,0,0,0,111,1,,,,,,,,,,,,,,,,,,,,,,,,,,
,,,,,,,,,,,,l,Correct!,,,,,,t1.png,t4.png,3,0.0000131,18,Female,2020-11-13_11h00.56.890,torte-q,2020.1.3,Win32,60,13917,1.11412,,,,,,,,,,,,,,0,1,1,50,1,,,,,,,,,,,,,,,,,,,,,,,,,,
,,,,,,,,,,,,a,Incorrect,,,,,,t5.png,t2.png,3,0.0000131,18,Female,2020-11-13_11h00.56.890,torte-q,2020.1.3,Win32,60,13917,2.11241,,,,,,,,,,,,,,0,2,2,51,1,,,,,,,,,,,,,,,,,,,,,,,,,,
,,,,,,,,,,,,a,Correct!,,,,,,t4.png,t3.png,1,0.90855,18,Female,2020-11-13_11h00.56.890,torte-q,2020.1.3,Win32,60,13917,1.502685,,,,,,,,,,,,,,0,3,3,45,1,,,,,,,,,,,,,,,,,,,,,,,,,,
,,,,,,,,,,,,l,Correct!,,,,,,t2.png,t4.png,2,0.059078,18,Female,2020-11-13_11h00.56.890,torte-q,2020.1.3,Win32,60,13917,1.382115,,,,,,,,,,,,,,0,4,4,37,1,,,,,,,,,,,,,,,,,,,,,,,,,,
,,,,,,,,,,,,l,Incorrect,,,,,,t3.png,t1.png,2,0.056466,18,Female,2020-11-13_11h00.56.890,torte-q,2020.1.3,Win32,60,13917,1.330375,,,,,,,,,,,,,,0,5,5,64,1,,,,,,,,,,,,,,,,,,,,,,,,,,
,,,,,,,,,,,,l,Correct!,,,,,,t1.png,t5.png,4,9.55E-11,18,Female,2020-11-13_11h00.56.890,torte-q,2020.1.3,Win32,60,13917,1.44631,,,,,,,,,,,,,,0,6,6,55,1,,,,,,,,,,,,,,,,,,,,,,,,,,
,,,,,,,,,,,,l,Correct!,,,,,,t4.png,t2.png,2,0.059078,18,Female,2020-11-13_11h00.56.890,torte-q,2020.1.3,Win32,60,13917,1.1813,,,,,,,,,,,,,,0,7,7,109,1,,,,,,,,,,,,,,,,,,,,,,,,,,
,,,,,,,,,,,,a,Correct!,,,,,,t5.png,t5.png,0,0.97829,18,Female,2020-11-13_11h00.56.890,torte-q,2020.1.3,Win32,60,13917,1.02109,,,,,,,,,,,,,,0,8,8,94,1,,,,,,,,,,,,,,,,,,,,,,,,,,
,,,,,,,,,,,,l,Correct!,,,,,,t1.png,t5.png,4,9.55E-11,18,Female,2020-11-13_11h00.56.890,torte-q,2020.1.3,Win32,60,13917,0.950945,,,,,,,,,,,,,,0,9,9,12,1,,,,,,,,,,,,,,,,,,,,,,,,,,
,,,,,,,,,,,,a,Incorrect,,,,,,t3.png,t5.png,2,0.056466,18,Female,2020-11-13_11h00.56.890,torte-q,2020.1.3,Win32,60,13917,1.546345,,,,,,,,,,,,,,0,10,10,6,1,,,,,,,,,,,,,,,,,,,,,,,,,,
,,,,,,,,,,,,l,Correct!,,,,,,t3.png,t1.png,2,0.056466,18,Female,2020-11-13_11h00.56.890,torte-q,2020.1.3,Win32,60,13917,1.217455,,,,,,,,,,,,,,0,11,11,29,1,,,,,,,,,,,,,,,,,,,,,,,,,,
,,,,,,,,,,,,l,Correct!,,,,,,t5.png,t1.png,4,9.55E-11,18,Female,2020-11-13_11h00.56.890,torte-q,2020.1.3,Win32,60,13917,1.11499,,,,,,,,,,,,,,0,12,12,71,1,,,,,,,,,,,,,,,,,,,,,,,,,,
,,,,,,,,,,,,l,Correct!,,,,,,t1.png,t4.png,3,0.0000131,18,Female,2020-11-13_11h00.56.890,torte-q,2020.1.3,Win32,60,13917,1.130315,,,,,,,,,,,,,,0,13,13,17,1,,,,,,,,,,,,,,,,,,,,,,,,,,
,,,,,,,,,,,,a,Correct!,,,,,,t1.png,t1.png,0,0.97829,18,Female,2020-11-13_11h00.56.890,torte-q,2020.1.3,Win32,60,13917,0.67256,,,,,,,,,,,,,,0,14,14,67,1,,,,,,,,,,,,,,,,,,,,,,,,,,
,,,,,,,,,,,,a,Incorrect,,,,,,t3.png,t5.png,2,0.056466,18,Female,2020-11-13_11h00.56.890,torte-q,2020.1.3,Win32,60,13917,1.265335,,,,,,,,,,,,,,0,15,15,14,1,,,,,,,,,,,,,,,,,,,,,,,,,,
,,,,,,,,,,,,l,Correct!,,,,,,t2.png,t4.png,2,0.059078,18,Female,2020-11-13_11h00.56.890,torte-q,2020.1.3,Win32,60,13917,0.93531,,,,,,,,,,,,,,0,16,16,24,1,,,,,,,,,,,,,,,,,,,,,,,,,,
,,,,,,,,,,,,l,Correct!,,,,,,t5.png,t1.png,4,9.55E-11,18,Female,2020-11-13_11h00.56.890,torte-q,2020.1.3,Win32,60,13917,1.24917,,,,,,,,,,,,,,0,17,17,102,1,,,,,,,,,,,,,,,,,,,,,,,,,,
,,,,,,,,,,,,l,Incorrect,,,,,,t3.png,t2.png,1,0.909,18,Female,2020-11-13_11h00.56.890,torte-q,2020.1.3,Win32,60,13917,1.115635,,,,,,,,,,,,,,0,18,18,3,1,,,,,,,,,,,,,,,,,,,,,,,,,,
,,,,,,,,,,,,a,Incorrect,,,,,,t3.png,t5.png,2,0.056466,18,Female,2020-11-13_11h00.56.890,torte-q,2020.1.3,Win32,60,13917,1.14885,,,,,,,,,,,,,,0,19,19,44,1,,,,,,,,,,,,,,,,,,,,,,,,,,
,,,,,,,,,,,,a,Correct!,,,,,,t5.png,t5.png,0,0.97829,18,Female,2020-11-13_11h00.56.890,torte-q,2020.1.3,Win32,60,13917,1.325075,,,,,,,,,,,,,,0,20,20,70,1,,,,,,,,,,,,,,,,,,,,,,,,,,
,,,,,,,,,,,,l,Correct!,,,,,,t1.png,t3.png,2,0.056466,18,Female,2020-11-13_11h00.56.890,torte-q,2020.1.3,Win32,60,13917,2.13096,,,,,,,,,,,,,,0,21,21,99,1,,,,,,,,,,,,,,,,,,,,,,,,,,
,,,,,,,,,,,,a,Incorrect,,,,,,t2.png,t5.png,3,0.0000131,18,Female,2020-11-13_11h00.56.890,torte-q,2020.1.3,Win32,60,13917,2.22041,,,,,,,,,,,,,,0,22,22,104,1,,,,,,,,,,,,,,,,,,,,,,,,,,
,,,,,,,,,,,,l,Incorrect,,,,,,t2.png,t1.png,1,0.90025,18,Female,2020-11-13_11h00.56.890,torte-q,2020.1.3,Win32,60,13917,1.63192,,,,,,,,,,,,,,0,23,23,62,1,,,,,,,,,,,,,,,,,,,,,,,,,,
,,,,,,,,,,,,l,Correct!,,,,,,t1.png,t3.png,2,0.056466,18,Female,2020-11-13_11h00.56.890,torte-q,2020.1.3,Win32,60,13917,1.28665,,,,,,,,,,,,,,0,24,24,69,1,,,,,,,,,,,,,,,,,,,,,,,,,,
,,,,,,,,,,,,a,Correct!,,,,,,t5.png,t4.png,1,0.90025,18,Female,2020-11-13_11h00.56.890,torte-q,2020.1.3,Win32,60,13917,0.981385,,,,,,,,,,,,,,0,25,25,27,1,,,,,,,,,,,,,,,,,,,,,,,,,,
,,,,,,,,,,,,a,Incorrect,,,,,,t5.png,t3.png,2,0.056466,18,Female,2020-11-13_11h00.56.890,torte-q,2020.1.3,Win32,60,13917,1.848895,,,,,,,,,,,,,,0,26,26,38,1,,,,,,,,,,,,,,,,,,,,,,,,,,
,,,,,,,,,,,,l,Correct!,,,,,,t4.png,t2.png,2,0.059078,18,Female,2020-11-13_11h00.56.890,torte-q,2020.1.3,Win32,60,13917,1.328315,,,,,,,,,,,,,,0,27,27,88,1,,,,,,,,,,,,,,,,,,,,,,,,,,
,,,,,,,,,,,,a,Correct!,,,,,,t4.png,t5.png,1,0.9,18,Female,2020-11-13_11h00.56.890,torte-q,2020.1.3,Win32,60,13917,1.168185,,,,,,,,,,,,,,0,28,28,115,1,,,,,,,,,,,,,,,,,,,,,,,,,,
,,,,,,,,,,,,l,Incorrect,,,,,,t2.png,t3.png,1,0.90855,18,Female,2020-11-13_11h00.56.890,torte-q,2020.1.3,Win32,60,13917,1.30177,,,,,,,,,,,,,,0,29,29,65,1,,,,,,,,,,,,,,,,,,,,,,,,,,
,,,,,,,,,,,,a,Correct!,,,,,,t5.png,t5.png,0,0.978,18,Female,2020-11-13_11h00.56.890,torte-q,2020.1.3,Win32,60,13917,0.869675,,,,,,,,,,,,,,0,30,30,117,1,,,,,,,,,,,,,,,,,,,,,,,,,,
,,,,,,,,,,,,l,Correct!,,,,,,t4.png,t1.png,3,0.0000131,18,Female,2020-11-13_11h00.56.890,torte-q,2020.1.3,Win32,60,13917,0.98362,,,,,,,,,,,,,,0,31,31,42,1,,,,,,,,,,,,,,,,,,,,,,,,,,
,,,,,,,,,,,,a,Correct!,,,,,,t2.png,t2.png,0,0.98115,18,Female,2020-11-13_11h00.56.890,torte-q,2020.1.3,Win32,60,13917,1.287925,,,,,,,,,,,,,,0,32,32,59,1,,,,,,,,,,,,,,,,,,,,,,,,,,
,,,,,,,,,,,,a,Incorrect,,,,,,t5.png,t3.png,2,0.056466,18,Female,2020-11-13_11h00.56.890,torte-q,2020.1.3,Win32,60,13917,1.05591,,,,,,,,,,,,,,0,33,33,114,1,,,,,,,,,,,,,,,,,,,,,,,,,,
,,,,,,,,,,,,a,Correct!,,,,,,t2.png,t2.png,0,0.98115,18,Female,2020-11-13_11h00.56.890,torte-q,2020.1.3,Win32,60,13917,1.020425,,,,,,,,,,,,,,0,34,34,2,1,,,,,,,,,,,,,,,,,,,,,,,,,,
,,,,,,,,,,,,l,Correct!,,,,,,t3.png,t1.png,2,0.056466,18,Female,2020-11-13_11h00.56.890,torte-q,2020.1.3,Win32,60,13917,1.04226,,,,,,,,,,,,,,0,35,35,32,1,,,,,,,,,,,,,,,,,,,,,,,,,,
,,,,,,,,,,,,a,Correct!,,,,,,t1.png,t1.png,0,0.978,18,Female,2020-11-13_11h00.56.890,torte-q,2020.1.3,Win32,60,13917,1.05304,,,,,,,,,,,,,,0,36,36,54,1,,,,,,,,,,,,,,,,,,,,,,,,,,
,,,,,,,,,,,,a,Correct!,,,,,,t4.png,t5.png,1,0.90025,18,Female,2020-11-13_11h00.56.890,torte-q,2020.1.3,Win32,60,13917,1.00488,,,,,,,,,,,,,,0,37,37,58,1,,,,,,,,,,,,,,,,,,,,,,,,,,
,,,,,,,,,,,,l,Correct!,,,,,,t1.png,t3.png,2,0.056466,18,Female,2020-11-13_11h00.56.890,torte-q,2020.1.3,Win32,60,13917,1.125975,,,,,,,,,,,,,,0,38,38,87,1,,,,,,,,,,,,,,,,,,,,,,,,,,
,,,,,,,,,,,,a,Correct!,,,,,,t1.png,t2.png,1,0.90025,18,Female,2020-11-13_11h00.56.890,torte-q,2020.1.3,Win32,60,13917,1.048725,,,,,,,,,,,,,,0,39,39,72,1,,,,,,,,,,,,,,,,,,,,,,,,,,
,,,,,,,,,,,,l,Correct!,,,,,,t3.png,t1.png,2,0.056466,18,Female,2020-11-13_11h00.56.890,torte-q,2020.1.3,Win32,60,13917,0.922645,,,,,,,,,,,,,,0,40,40,0,1,,,,,,,,,,,,,,,,,,,,,,,,,,
,,,,,,,,,,,,l,Correct!,,,,,,t3.png,t1.png,2,0.0565,18,Female,2020-11-13_11h00.56.890,torte-q,2020.1.3,Win32,60,13917,1.298445,,,,,,,,,,,,,,0,41,41,31,1,,,,,,,,,,,,,,,,,,,,,,,,,,
,,,,,,,,,,,,l,Correct!,,,,,,t1.png,t5.png,4,9.55E-11,18,Female,2020-11-13_11h00.56.890,torte-q,2020.1.3,Win32,60,13917,1.16494,,,,,,,,,,,,,,0,42,42,85,1,,,,,,,,,,,,,,,,,,,,,,,,,,
,,,,,,,,,,,,l,Incorrect,,,,,,t2.png,t3.png,1,0.90855,18,Female,2020-11-13_11h00.56.890,torte-q,2020.1.3,Win32,60,13917,1.000775,,,,,,,,,,,,,,0,43,43,10,1,,,,,,,,,,,,,,,,,,,,,,,,,,
,,,,,,,,,,,,l,Correct!,,,,,,t4.png,t2.png,2,0.0591,18,Female,2020-11-13_11h00.56.890,torte-q,2020.1.3,Win32,60,13917,1.731245,,,,,,,,,,,,,,0,44,44,36,1,,,,,,,,,,,,,,,,,,,,,,,,,,
,,,,,,,,,,,,l,Correct!,,,,,,t2.png,t4.png,2,0.0591,18,Female,2020-11-13_11h00.56.890,torte-q,2020.1.3,Win32,60,13917,0.798845,,,,,,,,,,,,,,0,45,45,15,1,,,,,,,,,,,,,,,,,,,,,,,,,,
,,,,,,,,,,,,l,Correct!,,,,,,t2.png,t4.png,2,0.059078,18,Female,2020-11-13_11h00.56.890,torte-q,2020.1.3,Win32,60,13917,0.85074,,,,,,,,,,,,,,0,46,46,77,1,,,,,,,,,,,,,,,,,,,,,,,,,,
,,,,,,,,,,,,a,Incorrect,,,,,,t5.png,t3.png,2,0.056466,18,Female,2020-11-13_11h00.56.890,torte-q,2020.1.3,Win32,60,13917,1.364165,,,,,,,,,,,,,,0,47,47,108,1,,,,,,,,,,,,,,,,,,,,,,,,,,
,,,,,,,,,,,,a,Correct!,,,,,,t4.png,t5.png,1,0.90025,18,Female,2020-11-13_11h00.56.890,torte-q,2020.1.3,Win32,60,13917,1.024325,,,,,,,,,,,,,,0,48,48,103,1,,,,,,,,,,,,,,,,,,,,,,,,,,
,,,,,,,,,,,,a,Correct!,,,,,,t4.png,t5.png,1,0.90025,18,Female,2020-11-13_11h00.56.890,torte-q,2020.1.3,Win32,60,13917,0.95439,,,,,,,,,,,,,,0,49,49,113,1,,,,,,,,,,,,,,,,,,,,,,,,,,
,,,,,,,,,,,,l,Correct!,,,,,,t4.png,t2.png,2,0.059078,18,Female,2020-11-13_11h00.56.890,torte-q,2020.1.3,Win32,60,13917,0.986455,,,,,,,,,,,,,,0,50,50,110,1,,,,,,,,,,,,,,,,,,,,,,,,,,
,,,,,,,,,,,,a,Correct!,,,,,,t5.png,t4.png,1,0.90025,18,Female,2020-11-13_11h00.56.890,torte-q,2020.1.3,Win32,60,13917,0.87201,,,,,,,,,,,,,,0,51,51,34,1,,,,,,,,,,,,,,,,,,,,,,,,,,
,,,,,,,,,,,,l,Incorrect,,,,,,t2.png,t3.png,1,0.90855,18,Female,2020-11-13_11h00.56.890,torte-q,2020.1.3,Win32,60,13917,1.64625,,,,,,,,,,,,,,0,52,52,68,1,,,,,,,,,,,,,,,,,,,,,,,,,,
,,,,,,,,,,,,l,Correct!,,,,,,t2.png,t4.png,2,0.059078,18,Female,2020-11-13_11h00.56.890,torte-q,2020.1.3,Win32,60,13917,0.85575,,,,,,,,,,,,,,0,53,53,11,1,,,,,,,,,,,,,,,,,,,,,,,,,,
,,,,,,,,,,,,a,Correct!,,,,,,t5.png,t5.png,0,0.97829,18,Female,2020-11-13_11h00.56.890,torte-q,2020.1.3,Win32,60,13917,0.898585,,,,,,,,,,,,,,0,54,54,73,1,,,,,,,,,,,,,,,,,,,,,,,,,,
,,,,,,,,,,,,l,Incorrect,,,,,,t3.png,t2.png,1,0.909,18,Female,2020-11-13_11h00.56.890,torte-q,2020.1.3,Win32,60,13917,0.97965,,,,,,,,,,,,,,0,55,55,23,1,,,,,,,,,,,,,,,,,,,,,,,,,,
,,,,,,,,,,,,a,Correct!,,,,,,t3.png,t4.png,1,0.909,18,Female,2020-11-13_11h00.56.890,torte-q,2020.1.3,Win32,60,13917,1.196795,,,,,,,,,,,,,,0,56,56,89,1,,,,,,,,,,,,,,,,,,,,,,,,,,
,,,,,,,,,,,,a,Incorrect,,,,,,t2.png,t5.png,3,0.0000131,18,Female,2020-11-13_11h00.56.890,torte-q,2020.1.3,Win32,60,13917,1.11745,,,,,,,,,,,,,,0,57,57,40,1,,,,,,,,,,,,,,,,,,,,,,,,,,
,,,,,,,,,,,,l,Incorrect,,,,,,t3.png,t2.png,1,0.90855,18,Female,2020-11-13_11h00.56.890,torte-q,2020.1.3,Win32,60,13917,1.0489,,,,,,,,,,,,,,0,58,58,18,1,,,,,,,,,,,,,,,,,,,,,,,,,,
,,,,,,,,,,,,a,Correct!,,,,,,t4.png,t5.png,1,0.90025,18,Female,2020-11-13_11h00.56.890,torte-q,2020.1.3,Win32,60,13917,1.96441,,,,,,,,,,,,,,0,59,59,47,1,,,,,,,,,,,,,,,,,,,,,,,,,,
,,,,,,,,,,,,a,Correct!,,,,,,t3.png,t4.png,1,0.909,18,Female,2020-11-13_11h00.56.890,torte-q,2020.1.3,Win32,60,13917,1.714855,,,,,,,,,,,,,,0,60,60,82,1,,,,,,,,,,,,,,,,,,,,,,,,,,
,,,,,,,,,,,,a,Correct!,,,,,,t5.png,t5.png,0,0.97829,18,Female,2020-11-13_11h00.56.890,torte-q,2020.1.3,Win32,60,13917,1.23845,,,,,,,,,,,,,,0,61,61,25,1,,,,,,,,,,,,,,,,,,,,,,,,,,
,,,,,,,,,,,,a,Correct!,,,,,,t1.png,t1.png,0,0.97829,18,Female,2020-11-13_11h00.56.890,torte-q,2020.1.3,Win32,60,13917,0.89746,,,,,,,,,,,,,,0,62,62,9,1,,,,,,,,,,,,,,,,,,,,,,,,,,
,,,,,,,,,,,,a,Correct!,,,,,,t2.png,t2.png,0,0.98115,18,Female,2020-11-13_11h00.56.890,torte-q,2020.1.3,Win32,60,13917,1.08265,,,,,,,,,,,,,,0,63,63,7,1,,,,,,,,,,,,,,,,,,,,,,,,,,
,,,,,,,,,,,,l,Incorrect,,,,,,t4.png,t3.png,1,0.90855,18,Female,2020-11-13_11h00.56.890,torte-q,2020.1.3,Win32,60,13917,0.85713,,,,,,,,,,,,,,0,64,64,35,1,,,,,,,,,,,,,,,,,,,,,,,,,,
,,,,,,,,,,,,a,Correct!,,,,,,t4.png,t4.png,0,0.98115,18,Female,2020-11-13_11h00.56.890,torte-q,2020.1.3,Win32,60,13917,0.88242,,,,,,,,,,,,,,0,65,65,79,1,,,,,,,,,,,,,,,,,,,,,,,,,,
,,,,,,,,,,,,a,Correct!,,,,,,t1.png,t1.png,0,0.97829,18,Female,2020-11-13_11h00.56.890,torte-q,2020.1.3,Win32,60,13917,0.79854,,,,,,,,,,,,,,0,66,66,78,1,,,,,,,,,,,,,,,,,,,,,,,,,,
,,,,,,,,,,,,a,Incorrect,,,,,,t2.png,t1.png,1,0.9,18,Female,2020-11-13_11h00.56.890,torte-q,2020.1.3,Win32,60,13917,1.199945,,,,,,,,,,,,,,0,67,67,118,1,,,,,,,,,,,,,,,,,,,,,,,,,,
,,,,,,,,,,,,a,Correct!,,,,,,t3.png,t4.png,1,0.90855,18,Female,2020-11-13_11h00.56.890,torte-q,2020.1.3,Win32,60,13917,1.16836,,,,,,,,,,,,,,0,68,68,96,1,,,,,,,,,,,,,,,,,,,,,,,,,,
,,,,,,,,,,,,l,Correct!,,,,,,t1.png,t3.png,2,0.056466,18,Female,2020-11-13_11h00.56.890,torte-q,2020.1.3,Win32,60,13917,0.94873,,,,,,,,,,,,,,0,69,69,63,1,,,,,,,,,,,,,,,,,,,,,,,,,,
,,,,,,,,,,,,l,Correct!,,,,,,t5.png,t1.png,4,9.55E-11,18,Female,2020-11-13_11h00.56.890,torte-q,2020.1.3,Win32,60,13917,1.09271,,,,,,,,,,,,,,0,70,70,22,1,,,,,,,,,,,,,,,,,,,,,,,,,,
,,,,,,,,,,,,l,Incorrect,,,,,,t2.png,t1.png,1,0.90025,18,Female,2020-11-13_11h00.56.890,torte-q,2020.1.3,Win32,60,13917,1.462975,,,,,,,,,,,,,,0,71,71,4,1,,,,,,,,,,,,,,,,,,,,,,,,,,
,,,,,,,,,,,,a,Correct!,,,,,,t1.png,t2.png,1,0.90025,18,Female,2020-11-13_11h00.56.890,torte-q,2020.1.3,Win32,60,13917,0.87409,,,,,,,,,,,,,,0,72,72,33,1,,,,,,,,,,,,,,,,,,,,,,,,,,
,,,,,,,,,,,,l,Correct!,,,,,,t4.png,t1.png,3,0.0000131,18,Female,2020-11-13_11h00.56.890,torte-q,2020.1.3,Win32,60,13917,1.082655,,,,,,,,,,,,,,0,73,73,48,1,,,,,,,,,,,,,,,,,,,,,,,,,,
,,,,,,,,,,,,l,Incorrect,,,,,,t2.png,t1.png,1,0.90025,18,Female,2020-11-13_11h00.56.890,torte-q,2020.1.3,Win32,60,13917,1.8128,,,,,,,,,,,,,,0,74,74,19,1,,,,,,,,,,,,,,,,,,,,,,,,,,
,,,,,,,,,,,,l,Correct!,,,,,,t4.png,t1.png,3,0.0000131,18,Female,2020-11-13_11h00.56.890,torte-q,2020.1.3,Win32,60,13917,1.464045,,,,,,,,,,,,,,0,75,75,61,1,,,,,,,,,,,,,,,,,,,,,,,,,,
,,,,,,,,,,,,l,Correct!,,,,,,t4.png,t1.png,3,0.0000131,18,Female,2020-11-13_11h00.56.890,torte-q,2020.1.3,Win32,60,13917,0.74114,,,,,,,,,,,,,,0,76,76,93,1,,,,,,,,,,,,,,,,,,,,,,,,,,
,,,,,,,,,,,,l,Correct!,,,,,,t1.png,t3.png,2,0.056466,18,Female,2020-11-13_11h00.56.890,torte-q,2020.1.3,Win32,60,13917,1.400795,,,,,,,,,,,,,,0,77,77,60,1,,,,,,,,,,,,,,,,,,,,,,,,,,
,,,,,,,,,,,,l,Correct!,,,,,,t1.png,t4.png,3,0.0000131,18,Female,2020-11-13_11h00.56.890,torte-q,2020.1.3,Win32,60,13917,1.26954,,,,,,,,,,,,,,0,78,78,107,1,,,,,,,,,,,,,,,,,,,,,,,,,,
,,,,,,,,,,,,a,Incorrect,,,,,,t5.png,t2.png,3,0.0000131,18,Female,2020-11-13_11h00.56.890,torte-q,2020.1.3,Win32,60,13917,0.88432,,,,,,,,,,,,,,0,79,79,98,1,,,,,,,,,,,,,,,,,,,,,,,,,,
,,,,,,,,,,,,l,Correct!,,,,,,t1.png,t5.png,4,9.55E-11,18,Female,2020-11-13_11h00.56.890,torte-q,2020.1.3,Win32,60,13917,0.807305,,,,,,,,,,,,,,0,80,80,16,1,,,,,,,,,,,,,,,,,,,,,,,,,,
,,,,,,,,,,,,a,Correct!,,,,,,t4.png,t4.png,0,0.98115,18,Female,2020-11-13_11h00.56.890,torte-q,2020.1.3,Win32,60,13917,1.114855,,,,,,,,,,,,,,0,81,81,90,1,,,,,,,,,,,,,,,,,,,,,,,,,,
,,,,,,,,,,,,a,Correct!,,,,,,t5.png,t4.png,1,0.90025,18,Female,2020-11-13_11h00.56.890,torte-q,2020.1.3,Win32,60,13917,1.40259,,,,,,,,,,,,,,0,82,82,26,1,,,,,,,,,,,,,,,,,,,,,,,,,,
,,,,,,,,,,,,a,Correct!,,,,,,t3.png,t2.png,1,0.90855,18,Female,2020-11-13_11h00.56.890,torte-q,2020.1.3,Win32,60,13917,1.880455,,,,,,,,,,,,,,0,83,83,97,1,,,,,,,,,,,,,,,,,,,,,,,,,,
,,,,,,,,,,,,a,Incorrect,,,,,,t5.png,t2.png,3,0.0000131,18,Female,2020-11-13_11h00.56.890,torte-q,2020.1.3,Win32,60,13917,1.140435,,,,,,,,,,,,,,0,84,84,119,1,,,,,,,,,,,,,,,,,,,,,,,,,,
,,,,,,,,,,,,a,Correct!,,,,,,t4.png,t4.png,0,0.98115,18,Female,2020-11-13_11h00.56.890,torte-q,2020.1.3,Win32,60,13917,0.849355,,,,,,,,,,,,,,0,85,85,80,1,,,,,,,,,,,,,,,,,,,,,,,,,,
,,,,,,,,,,,,l,Incorrect,,,,,,t1.png,t2.png,1,0.90025,18,Female,2020-11-13_11h00.56.890,torte-q,2020.1.3,Win32,60,13917,0.96521,,,,,,,,,,,,,,0,86,86,112,1,,,,,,,,,,,,,,,,,,,,,,,,,,
,,,,,,,,,,,,l,Correct!,,,,,,t1.png,t4.png,3,0.0000131,18,Female,2020-11-13_11h00.56.890,torte-q,2020.1.3,Win32,60,13917,0.87319,,,,,,,,,,,,,,0,87,87,81,1,,,,,,,,,,,,,,,,,,,,,,,,,,
,,,,,,,,,,,,l,Correct!,,,,,,t4.png,t1.png,3,0.0000131,18,Female,2020-11-13_11h00.56.890,torte-q,2020.1.3,Win32,60,13917,1.56691,,,,,,,,,,,,,,0,88,88,13,1,,,,,,,,,,,,,,,,,,,,,,,,,,
,,,,,,,,,,,,l,Incorrect,,,,,,t2.png,t1.png,1,0.90025,18,Female,2020-11-13_11h00.56.890,torte-q,2020.1.3,Win32,60,13917,1.988445,,,,,,,,,,,,,,0,89,89,5,1,,,,,,,,,,,,,,,,,,,,,,,,,,
,,,,,,,,,,,,a,Correct!,,,,,,t2.png,t2.png,0,0.98115,18,Female,2020-11-13_11h00.56.890,torte-q,2020.1.3,Win32,60,13917,0.9637,,,,,,,,,,,,,,0,90,90,57,1,,,,,,,,,,,,,,,,,,,,,,,,,,
,,,,,,,,,,,,a,Correct!,,,,,,t3.png,t4.png,1,0.90855,18,Female,2020-11-13_11h00.56.890,torte-q,2020.1.3,Win32,60,13917,1.448125,,,,,,,,,,,,,,0,91,91,84,1,,,,,,,,,,,,,,,,,,,,,,,,,,
,,,,,,,,,,,,a,Incorrect,,,,,,t2.png,t5.png,3,0.0000131,18,Female,2020-11-13_11h00.56.890,torte-q,2020.1.3,Win32,60,13917,1.01718,,,,,,,,,,,,,,0,92,92,8,1,,,,,,,,,,,,,,,,,,,,,,,,,,
,,,,,,,,,,,,a,Correct!,,,,,,t5.png,t4.png,1,0.9,18,Female,2020-11-13_11h00.56.890,torte-q,2020.1.3,Win32,60,13917,0.91422,,,,,,,,,,,,,,0,93,93,49,1,,,,,,,,,,,,,,,,,,,,,,,,,,
,,,,,,,,,,,,a,Incorrect,,,,,,t5.png,t2.png,3,0.0000131,18,Female,2020-11-13_11h00.56.890,torte-q,2020.1.3,Win32,60,13917,1.18544,,,,,,,,,,,,,,0,94,94,116,1,,,,,,,,,,,,,,,,,,,,,,,,,,
,,,,,,,,,,,,l,Correct!,,,,,,t4.png,t2.png,2,0.059078,18,Female,2020-11-13_11h00.56.890,torte-q,2020.1.3,Win32,60,13917,0.981835,,,,,,,,,,,,,,0,95,95,86,1,,,,,,,,,,,,,,,,,,,,,,,,,,
,,,,,,,,,,,,a,Correct!,,,,,,t1.png,t2.png,1,0.90025,18,Female,2020-11-13_11h00.56.890,torte-q,2020.1.3,Win32,60,13917,1.915905,,,,,,,,,,,,,,0,96,96,105,1,,,,,,,,,,,,,,,,,,,,,,,,,,
,,,,,,,,,,,,a,Correct!,,,,,,t3.png,t4.png,1,0.909,18,Female,2020-11-13_11h00.56.890,torte-q,2020.1.3,Win32,60,13917,1.314335,,,,,,,,,,,,,,0,97,97,106,1,,,,,,,,,,,,,,,,,,,,,,,,,,
,,,,,,,,,,,,l,Incorrect,,,,,,t2.png,t3.png,1,0.909,18,Female,2020-11-13_11h00.56.890,torte-q,2020.1.3,Win32,60,13917,1.05194,,,,,,,,,,,,,,0,98,98,74,1,,,,,,,,,,,,,,,,,,,,,,,,,,
,,,,,,,,,,,,a,Correct!,,,,,,t4.png,t4.png,0,0.98115,18,Female,2020-11-13_11h00.56.890,torte-q,2020.1.3,Win32,60,13917,0.813535,,,,,,,,,,,,,,0,99,99,52,1,,,,,,,,,,,,,,,,,,,,,,,,,,
,,,,,,,,,,,,a,Correct!,,,,,,t5.png,t3.png,2,0.0565,18,Female,2020-11-13_11h00.56.890,torte-q,2020.1.3,Win32,60,13917,0.882285,,,,,,,,,,,,,,0,100,100,39,1,,,,,,,,,,,,,,,,,,,,,,,,,,
,,,,,,,,,,,,a,Correct!,,,,,,t5.png,t4.png,1,0.9,18,Female,2020-11-13_11h00.56.890,torte-q,2020.1.3,Win32,60,13917,1.279825,,,,,,,,,,,,,,0,101,101,76,1,,,,,,,,,,,,,,,,,,,,,,,,,,
,,,,,,,,,,,,a,Incorrect,,,,,,t2.png,t5.png,3,0.0000131,18,Female,2020-11-13_11h00.56.890,torte-q,2020.1.3,Win32,60,13917,0.756325,,,,,,,,,,,,,,0,102,102,66,1,,,,,,,,,,,,,,,,,,,,,,,,,,
,,,,,,,,,,,,l,Correct!,,,,,,t5.png,t1.png,4,9.55E-11,18,Female,2020-11-13_11h00.56.890,torte-q,2020.1.3,Win32,60,13917,0.883555,,,,,,,,,,,,,,0,103,103,43,1,,,,,,,,,,,,,,,,,,,,,,,,,,
,,,,,,,,,,,,l,Correct!,,,,,,t5.png,t1.png,4,9.55E-11,18,Female,2020-11-13_11h00.56.890,torte-q,2020.1.3,Win32,60,13917,0.674075,,,,,,,,,,,,,,0,104,104,100,1,,,,,,,,,,,,,,,,,,,,,,,,,,
,,,,,,,,,,,,l,Correct!,,,,,,t1.png,t4.png,3,0.0000131,18,Female,2020-11-13_11h00.56.890,torte-q,2020.1.3,Win32,60,13917,1.887815,,,,,,,,,,,,,,0,105,105,92,1,,,,,,,,,,,,,,,,,,,,,,,,,,
,,,,,,,,,,,,a,Incorrect,,,,,,t5.png,t3.png,2,0.056466,18,Female,2020-11-13_11h00.56.890,torte-q,2020.1.3,Win32,60,13917,1.222705,,,,,,,,,,,,,,0,106,106,56,1,,,,,,,,,,,,,,,,,,,,,,,,,,
,,,,,,,,,,,,a,Correct!,,,,,,t4.png,t3.png,1,0.90855,18,Female,2020-11-13_11h00.56.890,torte-q,2020.1.3,Win32,60,13917,1.03796,,,,,,,,,,,,,,0,107,107,75,1,,,,,,,,,,,,,,,,,,,,,,,,,,
,,,,,,,,,,,,a,Incorrect,,,,,,t3.png,t5.png,2,0.0565,18,Female,2020-11-13_11h00.56.890,torte-q,2020.1.3,Win32,60,13917,0.882185,,,,,,,,,,,,,,0,108,108,30,1,,,,,,,,,,,,,,,,,,,,,,,,,,
,,,,,,,,,,,,a,Incorrect,,,,,,t2.png,t5.png,3,0.0000131,18,Female,2020-11-13_11h00.56.890,torte-q,2020.1.3,Win32,60,13917,1.24881,,,,,,,,,,,,,,0,109,109,95,1,,,,,,,,,,,,,,,,,,,,,,,,,,
,,,,,,,,,,,,a,Correct!,,,,,,t1.png,t2.png,1,0.9,18,Female,2020-11-13_11h00.56.890,torte-q,2020.1.3,Win32,60,13917,1.248305,,,,,,,,,,,,,,0,110,110,1,1,,,,,,,,,,,,,,,,,,,,,,,,,,
,,,,,,,,,,,,a,Correct!,,,,,,t4.png,t4.png,0,0.98115,18,Female,2020-11-13_11h00.56.890,torte-q,2020.1.3,Win32,60,13917,0.88862,,,,,,,,,,,,,,0,111,111,21,1,,,,,,,,,,,,,,,,,,,,,,,,,,
,,,,,,,,,,,,a,Correct!,,,,,,t4.png,t3.png,1,0.909,18,Female,2020-11-13_11h00.56.890,torte-q,2020.1.3,Win32,60,13917,0.782665,,,,,,,,,,,,,,0,112,112,46,1,,,,,,,,,,,,,,,,,,,,,,,,,,
,,,,,,,,,,,,a,Correct!,,,,,,t1.png,t1.png,0,0.978,18,Female,2020-11-13_11h00.56.890,torte-q,2020.1.3,Win32,60,13917,0.94971,,,,,,,,,,,,,,0,113,113,28,1,,,,,,,,,,,,,,,,,,,,,,,,,,
,,,,,,,,,,,,l,Correct!,,,,,,t1.png,t5.png,4,9.55E-11,18,Female,2020-11-13_11h00.56.890,torte-q,2020.1.3,Win32,60,13917,0.786915,,,,,,,,,,,,,,0,114,114,41,1,,,,,,,,,,,,,,,,,,,,,,,,,,
,,,,,,,,,,,,a,Correct!,,,,,,t4.png,t3.png,1,0.909,18,Female,2020-11-13_11h00.56.890,torte-q,2020.1.3,Win32,60,13917,0.822855,,,,,,,,,,,,,,0,115,115,20,1,,,,,,,,,,,,,,,,,,,,,,,,,,
,,,,,,,,,,,,l,Incorrect,,,,,,t3.png,t2.png,1,0.90855,18,Female,2020-11-13_11h00.56.890,torte-q,2020.1.3,Win32,60,13917,1.0644,,,,,,,,,,,,,,0,116,116,53,1,,,,,,,,,,,,,,,,,,,,,,,,,,
,,,,,,,,,,,,l,Correct!,,,,,,t2.png,t2.png,0,0.981,18,Female,2020-11-13_11h00.56.890,torte-q,2020.1.3,Win32,60,13917,1.74822,,,,,,,,,,,,,,0,117,117,101,1,,,,,,,,,,,,,,,,,,,,,,,,,,
,,,,,,,,,,,,a,Incorrect,,,,,,t5.png,t2.png,3,0.0000131,18,Female,2020-11-13_11h00.56.890,torte-q,2020.1.3,Win32,60,13917,1.62343,,,,,,,,,,,,,,0,118,118,91,1,,,,,,,,,,,,,,,,,,,,,,,,,,
,,,,,,,,,,,,a,Incorrect,,,,,,t3.png,t5.png,2,0.0565,18,Female,2020-11-13_11h00.56.890,torte-q,2020.1.3,Win32,60,13917,1.25565,,,,,,,,,,,,,,0,119,119,83,1,,,,,,,,,,,,,,,,,,,,,,,,,,
,,,,,,,,,,,,,,,,,,,,,,,18,Female,2020-11-13_11h00.56.890,torte-q,2020.1.3,Win32,60,13917,,space,1.70103,,,,,,,,,,,,,,,,,4.948000183,7.547335,59.20001233,-175.200009,1,0,0,s7,80.80001265,98.39999503,1,0,0,t1,130.4000134,-84.00000769,1,0,0,proceed,space,27.557785,space,6.695685,space,6.7759
