key_resp_8.keys,key_resp_8.rt,key_resp_9.keys,key_resp_9.rt,key_resp_10.keys,key_resp_10.rt,key_resp_11.keys,key_resp_11.rt,key_resp_2.keys,key_resp_2.rt,key_resp_3.keys,key_resp_3.rt,key_resp.keys,key_resp.rt,Feedback,train.thisRepN,train.thisTrialN,train.thisN,train.thisIndex,train.ran,torta_sx,torta_dx,difference,probability,age,gender,date,expName,psychopyVersion,OS,frameRate,participant,key_resp_15.keys,key_resp_15.rt,key_resp_6.keys,key_resp_6.rt,test1.thisRepN,test1.thisTrialN,test1.thisN,test1.thisIndex,test1.ran,key_resp_16.keys,key_resp_16.rt,key_resp_7.keys,key_resp_7.rt,test2.thisRepN,test2.thisTrialN,test2.thisN,test2.thisIndex,test2.ran,rating.response,rating.rt,mouse.x,mouse.y,mouse.leftButton,mouse.midButton,mouse.rightButton,mouse.clicked_name,mouse_2.x,mouse_2.y,mouse_2.leftButton,mouse_2.midButton,mouse_2.rightButton,mouse_2.clicked_name,mouse_3.x,mouse_3.y,mouse_3.leftButton,mouse_3.midButton,mouse_3.rightButton,mouse_3.clicked_name,key_resp_12.keys,key_resp_12.rt,key_resp_13.keys,key_resp_13.rt,key_resp_14.keys,key_resp_14.rt
space,0.977275,space,2.154765,space,0.959655,space,2.837335,space,6.884735,space,13.95375,l,1.327215,Correct!,0,0,0,6,1,t1.png,t4.png,3,0.0000131,18,Female,2020-11-07_07h32.41.096,torte-q,2020.1.3,Win32,60,13995,,,,,,,,,,,,,,,,,,,,,,,,,,,,,,,,,,,,,,,,,,,,
,,,,,,,,,,,,l,0.914345,Correct!,0,1,1,89,1,t1.png,t4.png,3,0.0000131,18,Female,2020-11-07_07h32.41.096,torte-q,2020.1.3,Win32,60,13995,,,,,,,,,,,,,,,,,,,,,,,,,,,,,,,,,,,,,,,,,,,,
,,,,,,,,,,,,l,1.563385,Incorrect,0,2,2,49,1,t4.png,t5.png,1,0.9,18,Female,2020-11-07_07h32.41.096,torte-q,2020.1.3,Win32,60,13995,,,,,,,,,,,,,,,,,,,,,,,,,,,,,,,,,,,,,,,,,,,,
,,,,,,,,,,,,l,0.993335,Correct!,0,3,3,31,1,t1.png,t5.png,4,9.55E-11,18,Female,2020-11-07_07h32.41.096,torte-q,2020.1.3,Win32,60,13995,,,,,,,,,,,,,,,,,,,,,,,,,,,,,,,,,,,,,,,,,,,,
,,,,,,,,,,,,a,1.280635,Incorrect,0,4,4,51,1,t3.png,t1.png,2,0.056466,18,Female,2020-11-07_07h32.41.096,torte-q,2020.1.3,Win32,60,13995,,,,,,,,,,,,,,,,,,,,,,,,,,,,,,,,,,,,,,,,,,,,
,,,,,,,,,,,,l,1.069225,Correct!,0,5,5,80,1,t1.png,t4.png,3,0.0000131,18,Female,2020-11-07_07h32.41.096,torte-q,2020.1.3,Win32,60,13995,,,,,,,,,,,,,,,,,,,,,,,,,,,,,,,,,,,,,,,,,,,,
,,,,,,,,,,,,l,1.64864,Incorrect,0,6,6,75,1,t1.png,t1.png,0,0.97829,18,Female,2020-11-07_07h32.41.096,torte-q,2020.1.3,Win32,60,13995,,,,,,,,,,,,,,,,,,,,,,,,,,,,,,,,,,,,,,,,,,,,
,,,,,,,,,,,,a,1.59829,Correct!,0,7,7,79,1,t3.png,t2.png,1,0.909,18,Female,2020-11-07_07h32.41.096,torte-q,2020.1.3,Win32,60,13995,,,,,,,,,,,,,,,,,,,,,,,,,,,,,,,,,,,,,,,,,,,,
,,,,,,,,,,,,a,1.202105,Correct!,0,8,8,76,1,t3.png,t2.png,1,0.90855,18,Female,2020-11-07_07h32.41.096,torte-q,2020.1.3,Win32,60,13995,,,,,,,,,,,,,,,,,,,,,,,,,,,,,,,,,,,,,,,,,,,,
,,,,,,,,,,,,l,1.08232,Incorrect,0,9,9,66,1,t4.png,t5.png,1,0.9,18,Female,2020-11-07_07h32.41.096,torte-q,2020.1.3,Win32,60,13995,,,,,,,,,,,,,,,,,,,,,,,,,,,,,,,,,,,,,,,,,,,,
,,,,,,,,,,,,a,0.798315,Incorrect,0,10,10,27,1,t3.png,t1.png,2,0.0565,18,Female,2020-11-07_07h32.41.096,torte-q,2020.1.3,Win32,60,13995,,,,,,,,,,,,,,,,,,,,,,,,,,,,,,,,,,,,,,,,,,,,
,,,,,,,,,,,,l,0.872985,Correct!,0,11,11,91,1,t1.png,t4.png,3,0.0000131,18,Female,2020-11-07_07h32.41.096,torte-q,2020.1.3,Win32,60,13995,,,,,,,,,,,,,,,,,,,,,,,,,,,,,,,,,,,,,,,,,,,,
,,,,,,,,,,,,a,1.64758,Correct!,0,12,12,85,1,t3.png,t2.png,1,0.90855,18,Female,2020-11-07_07h32.41.096,torte-q,2020.1.3,Win32,60,13995,,,,,,,,,,,,,,,,,,,,,,,,,,,,,,,,,,,,,,,,,,,,
,,,,,,,,,,,,,,Too slow :(,0,13,13,112,1,t1.png,t1.png,0,0.97829,18,Female,2020-11-07_07h32.41.096,torte-q,2020.1.3,Win32,60,13995,,,,,,,,,,,,,,,,,,,,,,,,,,,,,,,,,,,,,,,,,,,,
,,,,,,,,,,,,a,1.883285,Correct!,0,14,14,109,1,t5.png,t5.png,0,0.97829,18,Female,2020-11-07_07h32.41.096,torte-q,2020.1.3,Win32,60,13995,,,,,,,,,,,,,,,,,,,,,,,,,,,,,,,,,,,,,,,,,,,,
,,,,,,,,,,,,a,1.53169,Incorrect,0,15,15,73,1,t4.png,t2.png,2,0.059078,18,Female,2020-11-07_07h32.41.096,torte-q,2020.1.3,Win32,60,13995,,,,,,,,,,,,,,,,,,,,,,,,,,,,,,,,,,,,,,,,,,,,
,,,,,,,,,,,,l,1.274725,Incorrect,0,16,16,110,1,t4.png,t5.png,1,0.90025,18,Female,2020-11-07_07h32.41.096,torte-q,2020.1.3,Win32,60,13995,,,,,,,,,,,,,,,,,,,,,,,,,,,,,,,,,,,,,,,,,,,,
,,,,,,,,,,,,l,1.11487,Incorrect,0,17,17,77,1,t1.png,t1.png,0,0.97829,18,Female,2020-11-07_07h32.41.096,torte-q,2020.1.3,Win32,60,13995,,,,,,,,,,,,,,,,,,,,,,,,,,,,,,,,,,,,,,,,,,,,
,,,,,,,,,,,,a,0.682445,Incorrect,0,18,18,83,1,t3.png,t1.png,2,0.056466,18,Female,2020-11-07_07h32.41.096,torte-q,2020.1.3,Win32,60,13995,,,,,,,,,,,,,,,,,,,,,,,,,,,,,,,,,,,,,,,,,,,,
,,,,,,,,,,,,l,1.85566,Incorrect,0,19,19,78,1,t1.png,t1.png,0,0.978,18,Female,2020-11-07_07h32.41.096,torte-q,2020.1.3,Win32,60,13995,,,,,,,,,,,,,,,,,,,,,,,,,,,,,,,,,,,,,,,,,,,,
,,,,,,,,,,,,l,0.681485,Correct!,0,20,20,61,1,t1.png,t4.png,3,0.0000131,18,Female,2020-11-07_07h32.41.096,torte-q,2020.1.3,Win32,60,13995,,,,,,,,,,,,,,,,,,,,,,,,,,,,,,,,,,,,,,,,,,,,
,,,,,,,,,,,,a,1.198385,Correct!,0,21,21,23,1,t5.png,t4.png,1,0.90025,18,Female,2020-11-07_07h32.41.096,torte-q,2020.1.3,Win32,60,13995,,,,,,,,,,,,,,,,,,,,,,,,,,,,,,,,,,,,,,,,,,,,
,,,,,,,,,,,,l,1.048155,Correct!,0,22,22,22,1,t2.png,t3.png,1,0.90855,18,Female,2020-11-07_07h32.41.096,torte-q,2020.1.3,Win32,60,13995,,,,,,,,,,,,,,,,,,,,,,,,,,,,,,,,,,,,,,,,,,,,
,,,,,,,,,,,,a,0.649245,Incorrect,0,23,23,82,1,t5.png,t1.png,4,9.55E-11,18,Female,2020-11-07_07h32.41.096,torte-q,2020.1.3,Win32,60,13995,,,,,,,,,,,,,,,,,,,,,,,,,,,,,,,,,,,,,,,,,,,,
,,,,,,,,,,,,a,2.282255,Correct!,0,24,24,74,1,t5.png,t4.png,1,0.9,18,Female,2020-11-07_07h32.41.096,torte-q,2020.1.3,Win32,60,13995,,,,,,,,,,,,,,,,,,,,,,,,,,,,,,,,,,,,,,,,,,,,
,,,,,,,,,,,,l,1.20107,Incorrect,0,25,25,65,1,t4.png,t5.png,1,0.90025,18,Female,2020-11-07_07h32.41.096,torte-q,2020.1.3,Win32,60,13995,,,,,,,,,,,,,,,,,,,,,,,,,,,,,,,,,,,,,,,,,,,,
,,,,,,,,,,,,a,0.77468,Incorrect,0,26,26,53,1,t3.png,t1.png,2,0.056466,18,Female,2020-11-07_07h32.41.096,torte-q,2020.1.3,Win32,60,13995,,,,,,,,,,,,,,,,,,,,,,,,,,,,,,,,,,,,,,,,,,,,
,,,,,,,,,,,,l,0.814485,Correct!,0,27,27,60,1,t2.png,t4.png,2,0.059078,18,Female,2020-11-07_07h32.41.096,torte-q,2020.1.3,Win32,60,13995,,,,,,,,,,,,,,,,,,,,,,,,,,,,,,,,,,,,,,,,,,,,
,,,,,,,,,,,,l,0.622725,Correct!,0,28,28,90,1,t1.png,t5.png,4,9.55E-11,18,Female,2020-11-07_07h32.41.096,torte-q,2020.1.3,Win32,60,13995,,,,,,,,,,,,,,,,,,,,,,,,,,,,,,,,,,,,,,,,,,,,
,,,,,,,,,,,,l,1.151585,Incorrect,0,29,29,71,1,t5.png,t5.png,0,0.97829,18,Female,2020-11-07_07h32.41.096,torte-q,2020.1.3,Win32,60,13995,,,,,,,,,,,,,,,,,,,,,,,,,,,,,,,,,,,,,,,,,,,,
,,,,,,,,,,,,a,0.731255,Incorrect,0,30,30,43,1,t4.png,t2.png,2,0.059078,18,Female,2020-11-07_07h32.41.096,torte-q,2020.1.3,Win32,60,13995,,,,,,,,,,,,,,,,,,,,,,,,,,,,,,,,,,,,,,,,,,,,
,,,,,,,,,,,,l,1.11846,Incorrect,0,31,31,20,1,t2.png,t3.png,1,0.90855,18,Female,2020-11-07_07h32.41.096,torte-q,2020.1.3,Win32,60,13995,,,,,,,,,,,,,,,,,,,,,,,,,,,,,,,,,,,,,,,,,,,,
,,,,,,,,,,,,l,0.674115,Correct!,0,32,32,11,1,t1.png,t4.png,3,0.0000131,18,Female,2020-11-07_07h32.41.096,torte-q,2020.1.3,Win32,60,13995,,,,,,,,,,,,,,,,,,,,,,,,,,,,,,,,,,,,,,,,,,,,
,,,,,,,,,,,,a,0.88928,Correct!,0,33,33,2,1,t3.png,t2.png,1,0.90855,18,Female,2020-11-07_07h32.41.096,torte-q,2020.1.3,Win32,60,13995,,,,,,,,,,,,,,,,,,,,,,,,,,,,,,,,,,,,,,,,,,,,
,,,,,,,,,,,,l,0.637045,Correct!,0,34,34,93,1,t2.png,t4.png,2,0.059078,18,Female,2020-11-07_07h32.41.096,torte-q,2020.1.3,Win32,60,13995,,,,,,,,,,,,,,,,,,,,,,,,,,,,,,,,,,,,,,,,,,,,
,,,,,,,,,,,,a,0.70309,Correct!,0,35,35,47,1,t4.png,t2.png,2,0.059078,18,Female,2020-11-07_07h32.41.096,torte-q,2020.1.3,Win32,60,13995,,,,,,,,,,,,,,,,,,,,,,,,,,,,,,,,,,,,,,,,,,,,
,,,,,,,,,,,,,,Too slow :(,0,36,36,21,1,t5.png,t4.png,1,0.90025,18,Female,2020-11-07_07h32.41.096,torte-q,2020.1.3,Win32,60,13995,,,,,,,,,,,,,,,,,,,,,,,,,,,,,,,,,,,,,,,,,,,,
,,,,,,,,,,,,l,0.66462,Incorrect,0,37,37,114,1,t2.png,t3.png,1,0.90855,18,Female,2020-11-07_07h32.41.096,torte-q,2020.1.3,Win32,60,13995,,,,,,,,,,,,,,,,,,,,,,,,,,,,,,,,,,,,,,,,,,,,
,,,,,,,,,,,,l,1.11814,Incorrect,0,38,38,42,1,t5.png,t4.png,1,0.90025,18,Female,2020-11-07_07h32.41.096,torte-q,2020.1.3,Win32,60,13995,,,,,,,,,,,,,,,,,,,,,,,,,,,,,,,,,,,,,,,,,,,,
,,,,,,,,,,,,l,0.68725,Correct!,0,39,39,54,1,t1.png,t5.png,4,9.55E-11,18,Female,2020-11-07_07h32.41.096,torte-q,2020.1.3,Win32,60,13995,,,,,,,,,,,,,,,,,,,,,,,,,,,,,,,,,,,,,,,,,,,,
,,,,,,,,,,,,a,0.549945,Incorrect,0,40,40,50,1,t5.png,t1.png,4,9.55E-11,18,Female,2020-11-07_07h32.41.096,torte-q,2020.1.3,Win32,60,13995,,,,,,,,,,,,,,,,,,,,,,,,,,,,,,,,,,,,,,,,,,,,
,,,,,,,,,,,,l,1.404,Correct!,0,41,41,4,1,t1.png,t5.png,4,9.55E-11,18,Female,2020-11-07_07h32.41.096,torte-q,2020.1.3,Win32,60,13995,,,,,,,,,,,,,,,,,,,,,,,,,,,,,,,,,,,,,,,,,,,,
,,,,,,,,,,,,l,0.940535,Correct!,0,42,42,55,1,t2.png,t4.png,2,0.059078,18,Female,2020-11-07_07h32.41.096,torte-q,2020.1.3,Win32,60,13995,,,,,,,,,,,,,,,,,,,,,,,,,,,,,,,,,,,,,,,,,,,,
,,,,,,,,,,,,l,0.83739,Correct!,0,43,43,117,1,t1.png,t5.png,4,9.55E-11,18,Female,2020-11-07_07h32.41.096,torte-q,2020.1.3,Win32,60,13995,,,,,,,,,,,,,,,,,,,,,,,,,,,,,,,,,,,,,,,,,,,,
,,,,,,,,,,,,a,0.881345,Incorrect,0,44,44,24,1,t4.png,t2.png,2,0.059078,18,Female,2020-11-07_07h32.41.096,torte-q,2020.1.3,Win32,60,13995,,,,,,,,,,,,,,,,,,,,,,,,,,,,,,,,,,,,,,,,,,,,
,,,,,,,,,,,,l,1.639375,Incorrect,0,45,45,84,1,t1.png,t1.png,0,0.97829,18,Female,2020-11-07_07h32.41.096,torte-q,2020.1.3,Win32,60,13995,,,,,,,,,,,,,,,,,,,,,,,,,,,,,,,,,,,,,,,,,,,,
,,,,,,,,,,,,l,1.638545,Incorrect,0,46,46,100,1,t4.png,t5.png,1,0.90025,18,Female,2020-11-07_07h32.41.096,torte-q,2020.1.3,Win32,60,13995,,,,,,,,,,,,,,,,,,,,,,,,,,,,,,,,,,,,,,,,,,,,
,,,,,,,,,,,,a,1.14064,Incorrect,0,47,47,72,1,t4.png,t2.png,2,0.059078,18,Female,2020-11-07_07h32.41.096,torte-q,2020.1.3,Win32,60,13995,,,,,,,,,,,,,,,,,,,,,,,,,,,,,,,,,,,,,,,,,,,,
,,,,,,,,,,,,a,1.491385,Incorrect,0,48,48,34,1,t5.png,t4.png,1,0.9,18,Female,2020-11-07_07h32.41.096,torte-q,2020.1.3,Win32,60,13995,,,,,,,,,,,,,,,,,,,,,,,,,,,,,,,,,,,,,,,,,,,,
,,,,,,,,,,,,a,0.718715,Incorrect,0,49,49,38,1,t3.png,t1.png,2,0.056466,18,Female,2020-11-07_07h32.41.096,torte-q,2020.1.3,Win32,60,13995,,,,,,,,,,,,,,,,,,,,,,,,,,,,,,,,,,,,,,,,,,,,
,,,,,,,,,,,,a,0.73312,Incorrect,0,50,50,33,1,t5.png,t1.png,4,9.55E-11,18,Female,2020-11-07_07h32.41.096,torte-q,2020.1.3,Win32,60,13995,,,,,,,,,,,,,,,,,,,,,,,,,,,,,,,,,,,,,,,,,,,,
,,,,,,,,,,,,l,0.56519,Incorrect,0,51,51,10,1,t2.png,t3.png,1,0.90855,18,Female,2020-11-07_07h32.41.096,torte-q,2020.1.3,Win32,60,13995,,,,,,,,,,,,,,,,,,,,,,,,,,,,,,,,,,,,,,,,,,,,
,,,,,,,,,,,,a,1.339475,Correct!,0,52,52,70,1,t5.png,t5.png,0,0.978,18,Female,2020-11-07_07h32.41.096,torte-q,2020.1.3,Win32,60,13995,,,,,,,,,,,,,,,,,,,,,,,,,,,,,,,,,,,,,,,,,,,,
,,,,,,,,,,,,l,0.707385,Correct!,0,53,53,98,1,t2.png,t4.png,2,0.0591,18,Female,2020-11-07_07h32.41.096,torte-q,2020.1.3,Win32,60,13995,,,,,,,,,,,,,,,,,,,,,,,,,,,,,,,,,,,,,,,,,,,,
,,,,,,,,,,,,a,1.04932,Correct!,0,54,54,59,1,t5.png,t4.png,1,0.9,18,Female,2020-11-07_07h32.41.096,torte-q,2020.1.3,Win32,60,13995,,,,,,,,,,,,,,,,,,,,,,,,,,,,,,,,,,,,,,,,,,,,
,,,,,,,,,,,,a,0.78247,Correct!,0,55,55,46,1,t4.png,t2.png,2,0.059078,18,Female,2020-11-07_07h32.41.096,torte-q,2020.1.3,Win32,60,13995,,,,,,,,,,,,,,,,,,,,,,,,,,,,,,,,,,,,,,,,,,,,
,,,,,,,,,,,,l,0.547855,Correct!,0,56,56,1,1,t2.png,t4.png,2,0.059078,18,Female,2020-11-07_07h32.41.096,torte-q,2020.1.3,Win32,60,13995,,,,,,,,,,,,,,,,,,,,,,,,,,,,,,,,,,,,,,,,,,,,
,,,,,,,,,,,,a,1.15552,Correct!,0,57,57,96,1,t1.png,t1.png,0,0.97829,18,Female,2020-11-07_07h32.41.096,torte-q,2020.1.3,Win32,60,13995,,,,,,,,,,,,,,,,,,,,,,,,,,,,,,,,,,,,,,,,,,,,
,,,,,,,,,,,,a,0.835905,Correct!,0,58,58,8,1,t3.png,t2.png,1,0.90855,18,Female,2020-11-07_07h32.41.096,torte-q,2020.1.3,Win32,60,13995,,,,,,,,,,,,,,,,,,,,,,,,,,,,,,,,,,,,,,,,,,,,
,,,,,,,,,,,,l,0.700445,Correct!,0,59,59,119,1,t1.png,t5.png,4,9.55E-11,18,Female,2020-11-07_07h32.41.096,torte-q,2020.1.3,Win32,60,13995,,,,,,,,,,,,,,,,,,,,,,,,,,,,,,,,,,,,,,,,,,,,
,,,,,,,,,,,,l,0.715125,Correct!,0,60,60,17,1,t1.png,t4.png,3,0.0000131,18,Female,2020-11-07_07h32.41.096,torte-q,2020.1.3,Win32,60,13995,,,,,,,,,,,,,,,,,,,,,,,,,,,,,,,,,,,,,,,,,,,,
,,,,,,,,,,,,a,1.0481,Correct!,0,61,61,95,1,t1.png,t1.png,0,0.978,18,Female,2020-11-07_07h32.41.096,torte-q,2020.1.3,Win32,60,13995,,,,,,,,,,,,,,,,,,,,,,,,,,,,,,,,,,,,,,,,,,,,
,,,,,,,,,,,,a,2.340125,Correct!,0,62,62,25,1,t5.png,t5.png,0,0.97829,18,Female,2020-11-07_07h32.41.096,torte-q,2020.1.3,Win32,60,13995,,,,,,,,,,,,,,,,,,,,,,,,,,,,,,,,,,,,,,,,,,,,
,,,,,,,,,,,,l,0.602825,Correct!,0,63,63,68,1,t1.png,t4.png,3,0.0000131,18,Female,2020-11-07_07h32.41.096,torte-q,2020.1.3,Win32,60,13995,,,,,,,,,,,,,,,,,,,,,,,,,,,,,,,,,,,,,,,,,,,,
,,,,,,,,,,,,l,0.654355,Correct!,0,64,64,99,1,t1.png,t5.png,4,9.55E-11,18,Female,2020-11-07_07h32.41.096,torte-q,2020.1.3,Win32,60,13995,,,,,,,,,,,,,,,,,,,,,,,,,,,,,,,,,,,,,,,,,,,,
,,,,,,,,,,,,l,0.906405,Incorrect,0,65,65,18,1,t4.png,t5.png,1,0.90025,18,Female,2020-11-07_07h32.41.096,torte-q,2020.1.3,Win32,60,13995,,,,,,,,,,,,,,,,,,,,,,,,,,,,,,,,,,,,,,,,,,,,
,,,,,,,,,,,,a,0.7912,Incorrect,0,66,66,103,1,t3.png,t1.png,2,0.056466,18,Female,2020-11-07_07h32.41.096,torte-q,2020.1.3,Win32,60,13995,,,,,,,,,,,,,,,,,,,,,,,,,,,,,,,,,,,,,,,,,,,,
,,,,,,,,,,,,l,0.598705,Correct!,0,67,67,37,1,t1.png,t4.png,3,0.0000131,18,Female,2020-11-07_07h32.41.096,torte-q,2020.1.3,Win32,60,13995,,,,,,,,,,,,,,,,,,,,,,,,,,,,,,,,,,,,,,,,,,,,
,,,,,,,,,,,,a,1.9559,Correct!,0,68,68,118,1,t5.png,t5.png,0,0.978,18,Female,2020-11-07_07h32.41.096,torte-q,2020.1.3,Win32,60,13995,,,,,,,,,,,,,,,,,,,,,,,,,,,,,,,,,,,,,,,,,,,,
,,,,,,,,,,,,l,0.816745,Incorrect,0,69,69,92,1,t2.png,t3.png,1,0.909,18,Female,2020-11-07_07h32.41.096,torte-q,2020.1.3,Win32,60,13995,,,,,,,,,,,,,,,,,,,,,,,,,,,,,,,,,,,,,,,,,,,,
,,,,,,,,,,,,a,0.64252,Incorrect,0,70,70,19,1,t4.png,t2.png,2,0.059078,18,Female,2020-11-07_07h32.41.096,torte-q,2020.1.3,Win32,60,13995,,,,,,,,,,,,,,,,,,,,,,,,,,,,,,,,,,,,,,,,,,,,
,,,,,,,,,,,,a,0.5019,Incorrect,0,71,71,26,1,t4.png,t2.png,2,0.0591,18,Female,2020-11-07_07h32.41.096,torte-q,2020.1.3,Win32,60,13995,,,,,,,,,,,,,,,,,,,,,,,,,,,,,,,,,,,,,,,,,,,,
,,,,,,,,,,,,a,0.756755,Incorrect,0,72,72,30,1,t3.png,t1.png,2,0.056466,18,Female,2020-11-07_07h32.41.096,torte-q,2020.1.3,Win32,60,13995,,,,,,,,,,,,,,,,,,,,,,,,,,,,,,,,,,,,,,,,,,,,
,,,,,,,,,,,,a,0.65513,Incorrect,0,73,73,108,1,t5.png,t1.png,4,9.55E-11,18,Female,2020-11-07_07h32.41.096,torte-q,2020.1.3,Win32,60,13995,,,,,,,,,,,,,,,,,,,,,,,,,,,,,,,,,,,,,,,,,,,,
,,,,,,,,,,,,a,1.07435,Incorrect,0,74,74,52,1,t2.png,t4.png,2,0.059078,18,Female,2020-11-07_07h32.41.096,torte-q,2020.1.3,Win32,60,13995,,,,,,,,,,,,,,,,,,,,,,,,,,,,,,,,,,,,,,,,,,,,
,,,,,,,,,,,,l,0.8024,Correct!,0,75,75,3,1,t1.png,t5.png,4,9.55E-11,18,Female,2020-11-07_07h32.41.096,torte-q,2020.1.3,Win32,60,13995,,,,,,,,,,,,,,,,,,,,,,,,,,,,,,,,,,,,,,,,,,,,
,,,,,,,,,,,,a,0.76522,Incorrect,0,76,76,56,1,t5.png,t1.png,4,9.55E-11,18,Female,2020-11-07_07h32.41.096,torte-q,2020.1.3,Win32,60,13995,,,,,,,,,,,,,,,,,,,,,,,,,,,,,,,,,,,,,,,,,,,,
,,,,,,,,,,,,a,0.798155,Incorrect,0,77,77,36,1,t3.png,t1.png,2,0.0565,18,Female,2020-11-07_07h32.41.096,torte-q,2020.1.3,Win32,60,13995,,,,,,,,,,,,,,,,,,,,,,,,,,,,,,,,,,,,,,,,,,,,
,,,,,,,,,,,,l,0.5499,Incorrect,0,78,78,44,1,t2.png,t3.png,1,0.909,18,Female,2020-11-07_07h32.41.096,torte-q,2020.1.3,Win32,60,13995,,,,,,,,,,,,,,,,,,,,,,,,,,,,,,,,,,,,,,,,,,,,
,,,,,,,,,,,,a,1.065895,Correct!,0,79,79,107,1,t1.png,t1.png,0,0.978,18,Female,2020-11-07_07h32.41.096,torte-q,2020.1.3,Win32,60,13995,,,,,,,,,,,,,,,,,,,,,,,,,,,,,,,,,,,,,,,,,,,,
,,,,,,,,,,,,l,0.569965,Incorrect,0,80,80,28,1,t2.png,t3.png,1,0.909,18,Female,2020-11-07_07h32.41.096,torte-q,2020.1.3,Win32,60,13995,,,,,,,,,,,,,,,,,,,,,,,,,,,,,,,,,,,,,,,,,,,,
,,,,,,,,,,,,l,0.615485,Incorrect,0,81,81,63,1,t2.png,t3.png,1,0.909,18,Female,2020-11-07_07h32.41.096,torte-q,2020.1.3,Win32,60,13995,,,,,,,,,,,,,,,,,,,,,,,,,,,,,,,,,,,,,,,,,,,,
,,,,,,,,,,,,a,0.90503,Incorrect,0,82,82,94,1,t5.png,t1.png,4,9.55E-11,18,Female,2020-11-07_07h32.41.096,torte-q,2020.1.3,Win32,60,13995,,,,,,,,,,,,,,,,,,,,,,,,,,,,,,,,,,,,,,,,,,,,
,,,,,,,,,,,,l,0.621615,Correct!,0,83,83,35,1,t1.png,t4.png,3,0.0000131,18,Female,2020-11-07_07h32.41.096,torte-q,2020.1.3,Win32,60,13995,,,,,,,,,,,,,,,,,,,,,,,,,,,,,,,,,,,,,,,,,,,,
,,,,,,,,,,,,l,0.540245,Incorrect,0,84,84,104,1,t2.png,t3.png,1,0.90855,18,Female,2020-11-07_07h32.41.096,torte-q,2020.1.3,Win32,60,13995,,,,,,,,,,,,,,,,,,,,,,,,,,,,,,,,,,,,,,,,,,,,
,,,,,,,,,,,,a,0.49887,Incorrect,0,85,85,111,1,t5.png,t1.png,4,9.55E-11,18,Female,2020-11-07_07h32.41.096,torte-q,2020.1.3,Win32,60,13995,,,,,,,,,,,,,,,,,,,,,,,,,,,,,,,,,,,,,,,,,,,,
,,,,,,,,,,,,l,1.276135,Correct!,0,86,86,9,1,t4.png,t5.png,1,0.9,18,Female,2020-11-07_07h32.41.096,torte-q,2020.1.3,Win32,60,13995,,,,,,,,,,,,,,,,,,,,,,,,,,,,,,,,,,,,,,,,,,,,
,,,,,,,,,,,,a,0.874015,Correct!,0,87,87,81,1,t1.png,t1.png,0,0.97829,18,Female,2020-11-07_07h32.41.096,torte-q,2020.1.3,Win32,60,13995,,,,,,,,,,,,,,,,,,,,,,,,,,,,,,,,,,,,,,,,,,,,
,,,,,,,,,,,,a,0.548045,Incorrect,0,88,88,12,1,t5.png,t1.png,4,9.55E-11,18,Female,2020-11-07_07h32.41.096,torte-q,2020.1.3,Win32,60,13995,,,,,,,,,,,,,,,,,,,,,,,,,,,,,,,,,,,,,,,,,,,,
,,,,,,,,,,,,a,0.749025,Correct!,0,89,89,41,1,t3.png,t2.png,1,0.90855,18,Female,2020-11-07_07h32.41.096,torte-q,2020.1.3,Win32,60,13995,,,,,,,,,,,,,,,,,,,,,,,,,,,,,,,,,,,,,,,,,,,,
,,,,,,,,,,,,l,0.785405,Incorrect,0,90,90,101,1,t4.png,t5.png,1,0.90025,18,Female,2020-11-07_07h32.41.096,torte-q,2020.1.3,Win32,60,13995,,,,,,,,,,,,,,,,,,,,,,,,,,,,,,,,,,,,,,,,,,,,
,,,,,,,,,,,,l,1.073325,Incorrect,0,91,91,7,1,t4.png,t5.png,1,0.90025,18,Female,2020-11-07_07h32.41.096,torte-q,2020.1.3,Win32,60,13995,,,,,,,,,,,,,,,,,,,,,,,,,,,,,,,,,,,,,,,,,,,,
,,,,,,,,,,,,l,0.823285,Incorrect,0,92,92,32,1,t4.png,t5.png,1,0.90025,18,Female,2020-11-07_07h32.41.096,torte-q,2020.1.3,Win32,60,13995,,,,,,,,,,,,,,,,,,,,,,,,,,,,,,,,,,,,,,,,,,,,
,,,,,,,,,,,,a,1.367435,Correct!,0,93,93,58,1,t5.png,t4.png,1,0.90025,18,Female,2020-11-07_07h32.41.096,torte-q,2020.1.3,Win32,60,13995,,,,,,,,,,,,,,,,,,,,,,,,,,,,,,,,,,,,,,,,,,,,
,,,,,,,,,,,,a,0.923525,Correct!,0,94,94,15,1,t3.png,t2.png,1,0.90855,18,Female,2020-11-07_07h32.41.096,torte-q,2020.1.3,Win32,60,13995,,,,,,,,,,,,,,,,,,,,,,,,,,,,,,,,,,,,,,,,,,,,
,,,,,,,,,,,,l,0.48304,Correct!,0,95,95,14,1,t2.png,t4.png,2,0.059078,18,Female,2020-11-07_07h32.41.096,torte-q,2020.1.3,Win32,60,13995,,,,,,,,,,,,,,,,,,,,,,,,,,,,,,,,,,,,,,,,,,,,
,,,,,,,,,,,,a,0.701415,Correct!,0,96,96,39,1,t3.png,t2.png,1,0.90855,18,Female,2020-11-07_07h32.41.096,torte-q,2020.1.3,Win32,60,13995,,,,,,,,,,,,,,,,,,,,,,,,,,,,,,,,,,,,,,,,,,,,
,,,,,,,,,,,,a,1.191795,Correct!,0,97,97,97,1,t5.png,t5.png,0,0.97829,18,Female,2020-11-07_07h32.41.096,torte-q,2020.1.3,Win32,60,13995,,,,,,,,,,,,,,,,,,,,,,,,,,,,,,,,,,,,,,,,,,,,
,,,,,,,,,,,,a,0.53116,Incorrect,0,98,98,88,1,t3.png,t1.png,2,0.056466,18,Female,2020-11-07_07h32.41.096,torte-q,2020.1.3,Win32,60,13995,,,,,,,,,,,,,,,,,,,,,,,,,,,,,,,,,,,,,,,,,,,,
,,,,,,,,,,,,l,0.55924,Incorrect,0,99,99,5,1,t2.png,t4.png,2,0.059078,18,Female,2020-11-07_07h32.41.096,torte-q,2020.1.3,Win32,60,13995,,,,,,,,,,,,,,,,,,,,,,,,,,,,,,,,,,,,,,,,,,,,
,,,,,,,,,,,,a,0.415615,Incorrect,0,100,100,0,1,t5.png,t1.png,4,9.55E-11,18,Female,2020-11-07_07h32.41.096,torte-q,2020.1.3,Win32,60,13995,,,,,,,,,,,,,,,,,,,,,,,,,,,,,,,,,,,,,,,,,,,,
,,,,,,,,,,,,a,1.289955,Correct!,0,101,101,113,1,t5.png,t4.png,1,0.9,18,Female,2020-11-07_07h32.41.096,torte-q,2020.1.3,Win32,60,13995,,,,,,,,,,,,,,,,,,,,,,,,,,,,,,,,,,,,,,,,,,,,
,,,,,,,,,,,,l,0.497875,Correct!,0,102,102,57,1,t2.png,t4.png,2,0.059078,18,Female,2020-11-07_07h32.41.096,torte-q,2020.1.3,Win32,60,13995,,,,,,,,,,,,,,,,,,,,,,,,,,,,,,,,,,,,,,,,,,,,
,,,,,,,,,,,,a,0.731785,Correct!,0,103,103,13,1,t5.png,t5.png,0,0.97829,18,Female,2020-11-07_07h32.41.096,torte-q,2020.1.3,Win32,60,13995,,,,,,,,,,,,,,,,,,,,,,,,,,,,,,,,,,,,,,,,,,,,
,,,,,,,,,,,,l,0.483065,Correct!,0,104,104,40,1,t1.png,t5.png,4,9.55E-11,18,Female,2020-11-07_07h32.41.096,torte-q,2020.1.3,Win32,60,13995,,,,,,,,,,,,,,,,,,,,,,,,,,,,,,,,,,,,,,,,,,,,
,,,,,,,,,,,,a,1.732195,Correct!,0,105,105,62,1,t5.png,t5.png,0,0.978,18,Female,2020-11-07_07h32.41.096,torte-q,2020.1.3,Win32,60,13995,,,,,,,,,,,,,,,,,,,,,,,,,,,,,,,,,,,,,,,,,,,,
,,,,,,,,,,,,a,0.631855,Correct!,0,106,106,105,1,t3.png,t2.png,1,0.90855,18,Female,2020-11-07_07h32.41.096,torte-q,2020.1.3,Win32,60,13995,,,,,,,,,,,,,,,,,,,,,,,,,,,,,,,,,,,,,,,,,,,,
,,,,,,,,,,,,a,0.881515,Correct!,0,107,107,48,1,t5.png,t5.png,0,0.97829,18,Female,2020-11-07_07h32.41.096,torte-q,2020.1.3,Win32,60,13995,,,,,,,,,,,,,,,,,,,,,,,,,,,,,,,,,,,,,,,,,,,,
,,,,,,,,,,,,l,0.660085,Incorrect,0,108,108,106,1,t2.png,t3.png,1,0.90855,18,Female,2020-11-07_07h32.41.096,torte-q,2020.1.3,Win32,60,13995,,,,,,,,,,,,,,,,,,,,,,,,,,,,,,,,,,,,,,,,,,,,
,,,,,,,,,,,,a,0.74807,Correct!,0,109,109,29,1,t5.png,t5.png,0,0.97829,18,Female,2020-11-07_07h32.41.096,torte-q,2020.1.3,Win32,60,13995,,,,,,,,,,,,,,,,,,,,,,,,,,,,,,,,,,,,,,,,,,,,
,,,,,,,,,,,,a,0.68219,Correct!,0,110,110,45,1,t3.png,t2.png,1,0.90855,18,Female,2020-11-07_07h32.41.096,torte-q,2020.1.3,Win32,60,13995,,,,,,,,,,,,,,,,,,,,,,,,,,,,,,,,,,,,,,,,,,,,
,,,,,,,,,,,,a,1.08192,Incorrect,0,111,111,69,1,t4.png,t2.png,2,0.059078,18,Female,2020-11-07_07h32.41.096,torte-q,2020.1.3,Win32,60,13995,,,,,,,,,,,,,,,,,,,,,,,,,,,,,,,,,,,,,,,,,,,,
,,,,,,,,,,,,a,0.672455,Incorrect,0,112,112,86,1,t3.png,t1.png,2,0.056466,18,Female,2020-11-07_07h32.41.096,torte-q,2020.1.3,Win32,60,13995,,,,,,,,,,,,,,,,,,,,,,,,,,,,,,,,,,,,,,,,,,,,
,,,,,,,,,,,,a,1.26448,Correct!,0,113,113,116,1,t5.png,t4.png,1,0.90025,18,Female,2020-11-07_07h32.41.096,torte-q,2020.1.3,Win32,60,13995,,,,,,,,,,,,,,,,,,,,,,,,,,,,,,,,,,,,,,,,,,,,
,,,,,,,,,,,,l,0.730155,Correct!,0,114,114,115,1,t2.png,t4.png,2,0.059078,18,Female,2020-11-07_07h32.41.096,torte-q,2020.1.3,Win32,60,13995,,,,,,,,,,,,,,,,,,,,,,,,,,,,,,,,,,,,,,,,,,,,
,,,,,,,,,,,,a,1.27453,Correct!,0,115,115,64,1,t1.png,t1.png,0,0.978,18,Female,2020-11-07_07h32.41.096,torte-q,2020.1.3,Win32,60,13995,,,,,,,,,,,,,,,,,,,,,,,,,,,,,,,,,,,,,,,,,,,,
,,,,,,,,,,,,a,1.23329,Correct!,0,116,116,16,1,t5.png,t4.png,1,0.9,18,Female,2020-11-07_07h32.41.096,torte-q,2020.1.3,Win32,60,13995,,,,,,,,,,,,,,,,,,,,,,,,,,,,,,,,,,,,,,,,,,,,
,,,,,,,,,,,,a,0.58137,Incorrect,0,117,117,102,1,t4.png,t2.png,2,0.059078,18,Female,2020-11-07_07h32.41.096,torte-q,2020.1.3,Win32,60,13995,,,,,,,,,,,,,,,,,,,,,,,,,,,,,,,,,,,,,,,,,,,,
,,,,,,,,,,,,a,0.56562,Incorrect,0,118,118,87,1,t5.png,t1.png,4,9.55E-11,18,Female,2020-11-07_07h32.41.096,torte-q,2020.1.3,Win32,60,13995,,,,,,,,,,,,,,,,,,,,,,,,,,,,,,,,,,,,,,,,,,,,
,,,,,,,,,,,,l,0.54116,Correct!,0,119,119,67,1,t1.png,t5.png,4,9.55E-11,18,Female,2020-11-07_07h32.41.096,torte-q,2020.1.3,Win32,60,13995,,,,,,,,,,,,,,,,,,,,,,,,,,,,,,,,,,,,,,,,,,,,
,,,,,,,,,,,,l,0.667815,Correct!,,,,,,t1.png,t5.png,4,9.55E-11,18,Female,2020-11-07_07h32.41.096,torte-q,2020.1.3,Win32,60,13995,space,1.72152,space,90.339955,0,0,0,16,1,,,,,,,,,,,,,,,,,,,,,,,,,,,,,,,,,,,
,,,,,,,,,,,,a,0.588755,Incorrect,,,,,,t5.png,t1.png,4,9.55E-11,18,Female,2020-11-07_07h32.41.096,torte-q,2020.1.3,Win32,60,13995,,,,,0,1,1,22,1,,,,,,,,,,,,,,,,,,,,,,,,,,,,,,,,,,,
,,,,,,,,,,,,a,0.58454,Incorrect,,,,,,t3.png,t1.png,2,0.056466,18,Female,2020-11-07_07h32.41.096,torte-q,2020.1.3,Win32,60,13995,,,,,0,2,2,32,1,,,,,,,,,,,,,,,,,,,,,,,,,,,,,,,,,,,
,,,,,,,,,,,,l,0.549895,Correct!,,,,,,t3.png,t5.png,2,0.056466,18,Female,2020-11-07_07h32.41.096,torte-q,2020.1.3,Win32,60,13995,,,,,0,3,3,44,1,,,,,,,,,,,,,,,,,,,,,,,,,,,,,,,,,,,
,,,,,,,,,,,,a,0.549525,Incorrect,,,,,,t4.png,t1.png,3,0.0000131,18,Female,2020-11-07_07h32.41.096,torte-q,2020.1.3,Win32,60,13995,,,,,0,4,4,61,1,,,,,,,,,,,,,,,,,,,,,,,,,,,,,,,,,,,
,,,,,,,,,,,,a,0.98224,Incorrect,,,,,,t5.png,t4.png,1,0.9,18,Female,2020-11-07_07h32.41.096,torte-q,2020.1.3,Win32,60,13995,,,,,0,5,5,76,1,,,,,,,,,,,,,,,,,,,,,,,,,,,,,,,,,,,
,,,,,,,,,,,,l,0.532105,Correct!,,,,,,t1.png,t3.png,2,0.056466,18,Female,2020-11-07_07h32.41.096,torte-q,2020.1.3,Win32,60,13995,,,,,0,6,6,99,1,,,,,,,,,,,,,,,,,,,,,,,,,,,,,,,,,,,
,,,,,,,,,,,,l,0.534445,Correct!,,,,,,t1.png,t3.png,2,0.056466,18,Female,2020-11-07_07h32.41.096,torte-q,2020.1.3,Win32,60,13995,,,,,0,7,7,87,1,,,,,,,,,,,,,,,,,,,,,,,,,,,,,,,,,,,
,,,,,,,,,,,,l,0.802865,Incorrect,,,,,,t3.png,t4.png,1,0.909,18,Female,2020-11-07_07h32.41.096,torte-q,2020.1.3,Win32,60,13995,,,,,0,8,8,89,1,,,,,,,,,,,,,,,,,,,,,,,,,,,,,,,,,,,
,,,,,,,,,,,,a,1.281935,Correct!,,,,,,t5.png,t5.png,0,0.978,18,Female,2020-11-07_07h32.41.096,torte-q,2020.1.3,Win32,60,13995,,,,,0,9,9,117,1,,,,,,,,,,,,,,,,,,,,,,,,,,,,,,,,,,,
,,,,,,,,,,,,l,0.93982,Incorrect,,,,,,t2.png,t3.png,1,0.90855,18,Female,2020-11-07_07h32.41.096,torte-q,2020.1.3,Win32,60,13995,,,,,0,10,10,68,1,,,,,,,,,,,,,,,,,,,,,,,,,,,,,,,,,,,
,,,,,,,,,,,,l,0.465325,Correct!,,,,,,t1.png,t5.png,4,9.55E-11,18,Female,2020-11-07_07h32.41.096,torte-q,2020.1.3,Win32,60,13995,,,,,0,11,11,12,1,,,,,,,,,,,,,,,,,,,,,,,,,,,,,,,,,,,
,,,,,,,,,,,,l,0.5673,Incorrect,,,,,,t3.png,t4.png,1,0.90855,18,Female,2020-11-07_07h32.41.096,torte-q,2020.1.3,Win32,60,13995,,,,,0,12,12,84,1,,,,,,,,,,,,,,,,,,,,,,,,,,,,,,,,,,,
,,,,,,,,,,,,a,0.489585,Incorrect,,,,,,t5.png,t1.png,4,9.55E-11,18,Female,2020-11-07_07h32.41.096,torte-q,2020.1.3,Win32,60,13995,,,,,0,13,13,71,1,,,,,,,,,,,,,,,,,,,,,,,,,,,,,,,,,,,
,,,,,,,,,,,,a,0.665185,Incorrect,,,,,,t5.png,t2.png,3,0.0000131,18,Female,2020-11-07_07h32.41.096,torte-q,2020.1.3,Win32,60,13995,,,,,0,14,14,119,1,,,,,,,,,,,,,,,,,,,,,,,,,,,,,,,,,,,
,,,,,,,,,,,,l,0.4251,Correct!,,,,,,t2.png,t5.png,3,0.0000131,18,Female,2020-11-07_07h32.41.096,torte-q,2020.1.3,Win32,60,13995,,,,,0,15,15,66,1,,,,,,,,,,,,,,,,,,,,,,,,,,,,,,,,,,,
,,,,,,,,,,,,l,0.61649,Correct!,,,,,,t2.png,t2.png,0,0.981,18,Female,2020-11-07_07h32.41.096,torte-q,2020.1.3,Win32,60,13995,,,,,0,16,16,101,1,,,,,,,,,,,,,,,,,,,,,,,,,,,,,,,,,,,
,,,,,,,,,,,,a,0.69296,Incorrect,,,,,,t5.png,t1.png,4,9.55E-11,18,Female,2020-11-07_07h32.41.096,torte-q,2020.1.3,Win32,60,13995,,,,,0,17,17,100,1,,,,,,,,,,,,,,,,,,,,,,,,,,,,,,,,,,,
,,,,,,,,,,,,a,0.701555,Correct!,,,,,,t4.png,t3.png,1,0.90855,18,Female,2020-11-07_07h32.41.096,torte-q,2020.1.3,Win32,60,13995,,,,,0,18,18,75,1,,,,,,,,,,,,,,,,,,,,,,,,,,,,,,,,,,,
,,,,,,,,,,,,l,0.456845,Correct!,,,,,,t1.png,t4.png,3,0.0000131,18,Female,2020-11-07_07h32.41.096,torte-q,2020.1.3,Win32,60,13995,,,,,0,19,19,92,1,,,,,,,,,,,,,,,,,,,,,,,,,,,,,,,,,,,
,,,,,,,,,,,,a,0.4643,Incorrect,,,,,,t5.png,t2.png,3,0.0000131,18,Female,2020-11-07_07h32.41.096,torte-q,2020.1.3,Win32,60,13995,,,,,0,20,20,116,1,,,,,,,,,,,,,,,,,,,,,,,,,,,,,,,,,,,
,,,,,,,,,,,,l,0.520795,Incorrect,,,,,,t4.png,t5.png,1,0.9,18,Female,2020-11-07_07h32.41.096,torte-q,2020.1.3,Win32,60,13995,,,,,0,21,21,115,1,,,,,,,,,,,,,,,,,,,,,,,,,,,,,,,,,,,
,,,,,,,,,,,,l,1.104345,Incorrect,,,,,,t4.png,t5.png,1,0.90025,18,Female,2020-11-07_07h32.41.096,torte-q,2020.1.3,Win32,60,13995,,,,,0,22,22,58,1,,,,,,,,,,,,,,,,,,,,,,,,,,,,,,,,,,,
,,,,,,,,,,,,a,0.582275,Correct!,,,,,,t4.png,t4.png,0,0.98115,18,Female,2020-11-07_07h32.41.096,torte-q,2020.1.3,Win32,60,13995,,,,,0,23,23,21,1,,,,,,,,,,,,,,,,,,,,,,,,,,,,,,,,,,,
,,,,,,,,,,,,l,0.50862,Correct!,,,,,,t3.png,t5.png,2,0.056466,18,Female,2020-11-07_07h32.41.096,torte-q,2020.1.3,Win32,60,13995,,,,,0,24,24,6,1,,,,,,,,,,,,,,,,,,,,,,,,,,,,,,,,,,,
,,,,,,,,,,,,a,0.385835,Incorrect,,,,,,t4.png,t1.png,3,0.0000131,18,Female,2020-11-07_07h32.41.096,torte-q,2020.1.3,Win32,60,13995,,,,,0,25,25,13,1,,,,,,,,,,,,,,,,,,,,,,,,,,,,,,,,,,,
,,,,,,,,,,,,a,0.9195,Correct!,,,,,,t1.png,t1.png,0,0.978,18,Female,2020-11-07_07h32.41.096,torte-q,2020.1.3,Win32,60,13995,,,,,0,26,26,28,1,,,,,,,,,,,,,,,,,,,,,,,,,,,,,,,,,,,
,,,,,,,,,,,,l,1.27263,Incorrect,,,,,,t4.png,t5.png,1,0.90025,18,Female,2020-11-07_07h32.41.096,torte-q,2020.1.3,Win32,60,13995,,,,,0,27,27,113,1,,,,,,,,,,,,,,,,,,,,,,,,,,,,,,,,,,,
,,,,,,,,,,,,a,0.448255,Incorrect,,,,,,t5.png,t1.png,4,9.55E-11,18,Female,2020-11-07_07h32.41.096,torte-q,2020.1.3,Win32,60,13995,,,,,0,28,28,43,1,,,,,,,,,,,,,,,,,,,,,,,,,,,,,,,,,,,
,,,,,,,,,,,,a,0.967525,Correct!,,,,,,t5.png,t4.png,1,0.90025,18,Female,2020-11-07_07h32.41.096,torte-q,2020.1.3,Win32,60,13995,,,,,0,29,29,34,1,,,,,,,,,,,,,,,,,,,,,,,,,,,,,,,,,,,
,,,,,,,,,,,,l,0.46533,Correct!,,,,,,t2.png,t5.png,3,0.0000131,18,Female,2020-11-07_07h32.41.096,torte-q,2020.1.3,Win32,60,13995,,,,,0,30,30,95,1,,,,,,,,,,,,,,,,,,,,,,,,,,,,,,,,,,,
,,,,,,,,,,,,l,0.665475,Correct!,,,,,,t2.png,t4.png,2,0.059078,18,Female,2020-11-07_07h32.41.096,torte-q,2020.1.3,Win32,60,13995,,,,,0,31,31,37,1,,,,,,,,,,,,,,,,,,,,,,,,,,,,,,,,,,,
,,,,,,,,,,,,a,0.555825,Incorrect,,,,,,t5.png,t3.png,2,0.0565,18,Female,2020-11-07_07h32.41.096,torte-q,2020.1.3,Win32,60,13995,,,,,0,32,32,39,1,,,,,,,,,,,,,,,,,,,,,,,,,,,,,,,,,,,
,,,,,,,,,,,,a,0.57361,Incorrect,,,,,,t5.png,t1.png,4,9.55E-11,18,Female,2020-11-07_07h32.41.096,torte-q,2020.1.3,Win32,60,13995,,,,,0,33,33,102,1,,,,,,,,,,,,,,,,,,,,,,,,,,,,,,,,,,,
,,,,,,,,,,,,l,0.648665,Incorrect,,,,,,t2.png,t3.png,1,0.90855,18,Female,2020-11-07_07h32.41.096,torte-q,2020.1.3,Win32,60,13995,,,,,0,34,34,65,1,,,,,,,,,,,,,,,,,,,,,,,,,,,,,,,,,,,
,,,,,,,,,,,,l,0.53373,Correct!,,,,,,t1.png,t4.png,3,0.0000131,18,Female,2020-11-07_07h32.41.096,torte-q,2020.1.3,Win32,60,13995,,,,,0,35,35,81,1,,,,,,,,,,,,,,,,,,,,,,,,,,,,,,,,,,,
,,,,,,,,,,,,a,1.035585,Correct!,,,,,,t4.png,t4.png,0,0.98115,18,Female,2020-11-07_07h32.41.096,torte-q,2020.1.3,Win32,60,13995,,,,,0,36,36,79,1,,,,,,,,,,,,,,,,,,,,,,,,,,,,,,,,,,,
,,,,,,,,,,,,a,0.864675,Correct!,,,,,,t3.png,t2.png,1,0.909,18,Female,2020-11-07_07h32.41.096,torte-q,2020.1.3,Win32,60,13995,,,,,0,37,37,23,1,,,,,,,,,,,,,,,,,,,,,,,,,,,,,,,,,,,
,,,,,,,,,,,,l,0.452235,Incorrect,,,,,,t2.png,t3.png,1,0.90855,18,Female,2020-11-07_07h32.41.096,torte-q,2020.1.3,Win32,60,13995,,,,,0,38,38,10,1,,,,,,,,,,,,,,,,,,,,,,,,,,,,,,,,,,,
,,,,,,,,,,,,a,1.29817,Correct!,,,,,,t5.png,t5.png,0,0.97829,18,Female,2020-11-07_07h32.41.096,torte-q,2020.1.3,Win32,60,13995,,,,,0,39,39,25,1,,,,,,,,,,,,,,,,,,,,,,,,,,,,,,,,,,,
,,,,,,,,,,,,l,0.439935,Correct!,,,,,,t3.png,t5.png,2,0.056466,18,Female,2020-11-07_07h32.41.096,torte-q,2020.1.3,Win32,60,13995,,,,,0,40,40,14,1,,,,,,,,,,,,,,,,,,,,,,,,,,,,,,,,,,,
,,,,,,,,,,,,l,0.46417,Incorrect,,,,,,t4.png,t5.png,1,0.90025,18,Female,2020-11-07_07h32.41.096,torte-q,2020.1.3,Win32,60,13995,,,,,0,41,41,47,1,,,,,,,,,,,,,,,,,,,,,,,,,,,,,,,,,,,
,,,,,,,,,,,,l,0.38726,Correct!,,,,,,t1.png,t4.png,3,0.0000131,18,Female,2020-11-07_07h32.41.096,torte-q,2020.1.3,Win32,60,13995,,,,,0,42,42,50,1,,,,,,,,,,,,,,,,,,,,,,,,,,,,,,,,,,,
,,,,,,,,,,,,l,0.48322,Correct!,,,,,,t1.png,t5.png,4,9.55E-11,18,Female,2020-11-07_07h32.41.096,torte-q,2020.1.3,Win32,60,13995,,,,,0,43,43,55,1,,,,,,,,,,,,,,,,,,,,,,,,,,,,,,,,,,,
,,,,,,,,,,,,a,0.43212,Incorrect,,,,,,t5.png,t3.png,2,0.056466,18,Female,2020-11-07_07h32.41.096,torte-q,2020.1.3,Win32,60,13995,,,,,0,44,44,56,1,,,,,,,,,,,,,,,,,,,,,,,,,,,,,,,,,,,
,,,,,,,,,,,,a,0.448845,Incorrect,,,,,,t5.png,t3.png,2,0.056466,18,Female,2020-11-07_07h32.41.096,torte-q,2020.1.3,Win32,60,13995,,,,,0,45,45,114,1,,,,,,,,,,,,,,,,,,,,,,,,,,,,,,,,,,,
,,,,,,,,,,,,a,0.41802,Incorrect,,,,,,t4.png,t2.png,2,0.059078,18,Female,2020-11-07_07h32.41.096,torte-q,2020.1.3,Win32,60,13995,,,,,0,46,46,88,1,,,,,,,,,,,,,,,,,,,,,,,,,,,,,,,,,,,
,,,,,,,,,,,,a,0.665095,Correct!,,,,,,t3.png,t2.png,1,0.90855,18,Female,2020-11-07_07h32.41.096,torte-q,2020.1.3,Win32,60,13995,,,,,0,47,47,53,1,,,,,,,,,,,,,,,,,,,,,,,,,,,,,,,,,,,
,,,,,,,,,,,,a,0.620055,Incorrect,,,,,,t3.png,t1.png,2,0.056466,18,Female,2020-11-07_07h32.41.096,torte-q,2020.1.3,Win32,60,13995,,,,,0,48,48,29,1,,,,,,,,,,,,,,,,,,,,,,,,,,,,,,,,,,,
,,,,,,,,,,,,a,0.40247,Incorrect,,,,,,t5.png,t4.png,1,0.9,18,Female,2020-11-07_07h32.41.096,torte-q,2020.1.3,Win32,60,13995,,,,,0,49,49,49,1,,,,,,,,,,,,,,,,,,,,,,,,,,,,,,,,,,,
,,,,,,,,,,,,a,0.73515,Correct!,,,,,,t1.png,t1.png,0,0.97829,18,Female,2020-11-07_07h32.41.096,torte-q,2020.1.3,Win32,60,13995,,,,,0,50,50,67,1,,,,,,,,,,,,,,,,,,,,,,,,,,,,,,,,,,,
,,,,,,,,,,,,l,0.49003,Correct!,,,,,,t3.png,t4.png,1,0.90855,18,Female,2020-11-07_07h32.41.096,torte-q,2020.1.3,Win32,60,13995,,,,,0,51,51,96,1,,,,,,,,,,,,,,,,,,,,,,,,,,,,,,,,,,,
,,,,,,,,,,,,a,0.40568,Incorrect,,,,,,t4.png,t2.png,2,0.059078,18,Female,2020-11-07_07h32.41.096,torte-q,2020.1.3,Win32,60,13995,,,,,0,52,52,110,1,,,,,,,,,,,,,,,,,,,,,,,,,,,,,,,,,,,
,,,,,,,,,,,,l,0.449705,Incorrect,,,,,,t3.png,t4.png,1,0.909,18,Female,2020-11-07_07h32.41.096,torte-q,2020.1.3,Win32,60,13995,,,,,0,53,53,106,1,,,,,,,,,,,,,,,,,,,,,,,,,,,,,,,,,,,
,,,,,,,,,,,,l,0.551175,Correct!,,,,,,t2.png,t5.png,3,0.0000131,18,Female,2020-11-07_07h32.41.096,torte-q,2020.1.3,Win32,60,13995,,,,,0,54,54,8,1,,,,,,,,,,,,,,,,,,,,,,,,,,,,,,,,,,,
,,,,,,,,,,,,a,0.491775,Incorrect,,,,,,t3.png,t1.png,2,0.056466,18,Female,2020-11-07_07h32.41.096,torte-q,2020.1.3,Win32,60,13995,,,,,0,55,55,64,1,,,,,,,,,,,,,,,,,,,,,,,,,,,,,,,,,,,
,,,,,,,,,,,,a,0.699355,Incorrect,,,,,,t4.png,t2.png,2,0.0591,18,Female,2020-11-07_07h32.41.096,torte-q,2020.1.3,Win32,60,13995,,,,,0,56,56,36,1,,,,,,,,,,,,,,,,,,,,,,,,,,,,,,,,,,,
,,,,,,,,,,,,l,0.418785,Correct!,,,,,,t3.png,t5.png,2,0.0565,18,Female,2020-11-07_07h32.41.096,torte-q,2020.1.3,Win32,60,13995,,,,,0,57,57,30,1,,,,,,,,,,,,,,,,,,,,,,,,,,,,,,,,,,,
,,,,,,,,,,,,a,0.42073,Incorrect,,,,,,t3.png,t1.png,2,0.0565,18,Female,2020-11-07_07h32.41.096,torte-q,2020.1.3,Win32,60,13995,,,,,0,58,58,31,1,,,,,,,,,,,,,,,,,,,,,,,,,,,,,,,,,,,
,,,,,,,,,,,,l,0.41572,Incorrect,,,,,,t2.png,t3.png,1,0.909,18,Female,2020-11-07_07h32.41.096,torte-q,2020.1.3,Win32,60,13995,,,,,0,59,59,74,1,,,,,,,,,,,,,,,,,,,,,,,,,,,,,,,,,,,
,,,,,,,,,,,,l,0.764855,Incorrect,,,,,,t4.png,t5.png,1,0.90025,18,Female,2020-11-07_07h32.41.096,torte-q,2020.1.3,Win32,60,13995,,,,,0,60,60,103,1,,,,,,,,,,,,,,,,,,,,,,,,,,,,,,,,,,,
,,,,,,,,,,,,a,0.659115,Correct!,,,,,,t5.png,t5.png,0,0.97829,18,Female,2020-11-07_07h32.41.096,torte-q,2020.1.3,Win32,60,13995,,,,,0,61,61,94,1,,,,,,,,,,,,,,,,,,,,,,,,,,,,,,,,,,,
,,,,,,,,,,,,a,0.615135,Correct!,,,,,,t5.png,t4.png,1,0.90025,18,Female,2020-11-07_07h32.41.096,torte-q,2020.1.3,Win32,60,13995,,,,,0,62,62,27,1,,,,,,,,,,,,,,,,,,,,,,,,,,,,,,,,,,,
,,,,,,,,,,,,l,0.44848,Correct!,,,,,,t2.png,t4.png,2,0.059078,18,Female,2020-11-07_07h32.41.096,torte-q,2020.1.3,Win32,60,13995,,,,,0,63,63,11,1,,,,,,,,,,,,,,,,,,,,,,,,,,,,,,,,,,,
,,,,,,,,,,,,a,0.4655,Correct!,,,,,,t3.png,t2.png,1,0.90855,18,Female,2020-11-07_07h32.41.096,torte-q,2020.1.3,Win32,60,13995,,,,,0,64,64,97,1,,,,,,,,,,,,,,,,,,,,,,,,,,,,,,,,,,,
,,,,,,,,,,,,a,0.641215,Correct!,,,,,,t5.png,t4.png,1,0.90025,18,Female,2020-11-07_07h32.41.096,torte-q,2020.1.3,Win32,60,13995,,,,,0,65,65,26,1,,,,,,,,,,,,,,,,,,,,,,,,,,,,,,,,,,,
,,,,,,,,,,,,a,0.652115,Correct!,,,,,,t3.png,t2.png,1,0.90855,18,Female,2020-11-07_07h32.41.096,torte-q,2020.1.3,Win32,60,13995,,,,,0,66,66,18,1,,,,,,,,,,,,,,,,,,,,,,,,,,,,,,,,,,,
,,,,,,,,,,,,l,0.725775,Incorrect,,,,,,t1.png,t2.png,1,0.90025,18,Female,2020-11-07_07h32.41.096,torte-q,2020.1.3,Win32,60,13995,,,,,0,67,67,33,1,,,,,,,,,,,,,,,,,,,,,,,,,,,,,,,,,,,
,,,,,,,,,,,,a,0.442235,Incorrect,,,,,,t4.png,t3.png,1,0.90855,18,Female,2020-11-07_07h32.41.096,torte-q,2020.1.3,Win32,60,13995,,,,,0,68,68,45,1,,,,,,,,,,,,,,,,,,,,,,,,,,,,,,,,,,,
,,,,,,,,,,,,a,0.43262,Incorrect,,,,,,t5.png,t2.png,3,0.0000131,18,Female,2020-11-07_07h32.41.096,torte-q,2020.1.3,Win32,60,13995,,,,,0,69,69,91,1,,,,,,,,,,,,,,,,,,,,,,,,,,,,,,,,,,,
,,,,,,,,,,,,l,0.60817,Correct!,,,,,,t2.png,t5.png,3,0.0000131,18,Female,2020-11-07_07h32.41.096,torte-q,2020.1.3,Win32,60,13995,,,,,0,70,70,104,1,,,,,,,,,,,,,,,,,,,,,,,,,,,,,,,,,,,
,,,,,,,,,,,,a,0.75577,Correct!,,,,,,t2.png,t1.png,1,0.90025,18,Female,2020-11-07_07h32.41.096,torte-q,2020.1.3,Win32,60,13995,,,,,0,71,71,4,1,,,,,,,,,,,,,,,,,,,,,,,,,,,,,,,,,,,
,,,,,,,,,,,,a,0.88229,Correct!,,,,,,t1.png,t1.png,0,0.97829,18,Female,2020-11-07_07h32.41.096,torte-q,2020.1.3,Win32,60,13995,,,,,0,72,72,78,1,,,,,,,,,,,,,,,,,,,,,,,,,,,,,,,,,,,
,,,,,,,,,,,,a,0.581055,Incorrect,,,,,,t5.png,t3.png,2,0.056466,18,Female,2020-11-07_07h32.41.096,torte-q,2020.1.3,Win32,60,13995,,,,,0,73,73,108,1,,,,,,,,,,,,,,,,,,,,,,,,,,,,,,,,,,,
,,,,,,,,,,,,a,0.401635,Incorrect,,,,,,t5.png,t2.png,3,0.0000131,18,Female,2020-11-07_07h32.41.096,torte-q,2020.1.3,Win32,60,13995,,,,,0,74,74,98,1,,,,,,,,,,,,,,,,,,,,,,,,,,,,,,,,,,,
,,,,,,,,,,,,a,0.50052,Incorrect,,,,,,t3.png,t1.png,2,0.056466,18,Female,2020-11-07_07h32.41.096,torte-q,2020.1.3,Win32,60,13995,,,,,0,75,75,0,1,,,,,,,,,,,,,,,,,,,,,,,,,,,,,,,,,,,
,,,,,,,,,,,,l,1.116675,Incorrect,,,,,,t5.png,t5.png,0,0.97829,18,Female,2020-11-07_07h32.41.096,torte-q,2020.1.3,Win32,60,13995,,,,,0,76,76,73,1,,,,,,,,,,,,,,,,,,,,,,,,,,,,,,,,,,,
,,,,,,,,,,,,a,0.975815,Correct!,,,,,,t1.png,t1.png,0,0.97829,18,Female,2020-11-07_07h32.41.096,torte-q,2020.1.3,Win32,60,13995,,,,,0,77,77,9,1,,,,,,,,,,,,,,,,,,,,,,,,,,,,,,,,,,,
,,,,,,,,,,,,l,0.517155,Correct!,,,,,,t1.png,t3.png,2,0.056466,18,Female,2020-11-07_07h32.41.096,torte-q,2020.1.3,Win32,60,13995,,,,,0,78,78,69,1,,,,,,,,,,,,,,,,,,,,,,,,,,,,,,,,,,,
,,,,,,,,,,,,a,0.5486,Correct!,,,,,,t2.png,t1.png,1,0.90025,18,Female,2020-11-07_07h32.41.096,torte-q,2020.1.3,Win32,60,13995,,,,,0,79,79,19,1,,,,,,,,,,,,,,,,,,,,,,,,,,,,,,,,,,,
,,,,,,,,,,,,a,0.41766,Correct!,,,,,,t2.png,t1.png,1,0.9,18,Female,2020-11-07_07h32.41.096,torte-q,2020.1.3,Win32,60,13995,,,,,0,80,80,118,1,,,,,,,,,,,,,,,,,,,,,,,,,,,,,,,,,,,
,,,,,,,,,,,,l,0.46449,Incorrect,,,,,,t1.png,t2.png,1,0.90025,18,Female,2020-11-07_07h32.41.096,torte-q,2020.1.3,Win32,60,13995,,,,,0,81,81,72,1,,,,,,,,,,,,,,,,,,,,,,,,,,,,,,,,,,,
,,,,,,,,,,,,l,0.466935,Correct!,,,,,,t1.png,t4.png,3,0.0000131,18,Female,2020-11-07_07h32.41.096,torte-q,2020.1.3,Win32,60,13995,,,,,0,82,82,17,1,,,,,,,,,,,,,,,,,,,,,,,,,,,,,,,,,,,
,,,,,,,,,,,,l,0.474035,Correct!,,,,,,t1.png,t3.png,2,0.056466,18,Female,2020-11-07_07h32.41.096,torte-q,2020.1.3,Win32,60,13995,,,,,0,83,83,63,1,,,,,,,,,,,,,,,,,,,,,,,,,,,,,,,,,,,
,,,,,,,,,,,,l,0.49932,Correct!,,,,,,t2.png,t4.png,2,0.059078,18,Female,2020-11-07_07h32.41.096,torte-q,2020.1.3,Win32,60,13995,,,,,0,84,84,77,1,,,,,,,,,,,,,,,,,,,,,,,,,,,,,,,,,,,
,,,,,,,,,,,,a,0.43196,Incorrect,,,,,,t4.png,t1.png,3,0.0000131,18,Female,2020-11-07_07h32.41.096,torte-q,2020.1.3,Win32,60,13995,,,,,0,85,85,42,1,,,,,,,,,,,,,,,,,,,,,,,,,,,,,,,,,,,
,,,,,,,,,,,,l,0.459585,Incorrect,,,,,,t2.png,t2.png,0,0.98115,18,Female,2020-11-07_07h32.41.096,torte-q,2020.1.3,Win32,60,13995,,,,,0,86,86,59,1,,,,,,,,,,,,,,,,,,,,,,,,,,,,,,,,,,,
,,,,,,,,,,,,l,0.54172,Correct!,,,,,,t2.png,t4.png,2,0.0591,18,Female,2020-11-07_07h32.41.096,torte-q,2020.1.3,Win32,60,13995,,,,,0,87,87,15,1,,,,,,,,,,,,,,,,,,,,,,,,,,,,,,,,,,,
,,,,,,,,,,,,a,0.5316,Correct!,,,,,,t4.png,t3.png,1,0.909,18,Female,2020-11-07_07h32.41.096,torte-q,2020.1.3,Win32,60,13995,,,,,0,88,88,20,1,,,,,,,,,,,,,,,,,,,,,,,,,,,,,,,,,,,
,,,,,,,,,,,,l,0.43202,Correct!,,,,,,t1.png,t5.png,4,9.55E-11,18,Female,2020-11-07_07h32.41.096,torte-q,2020.1.3,Win32,60,13995,,,,,0,89,89,85,1,,,,,,,,,,,,,,,,,,,,,,,,,,,,,,,,,,,
,,,,,,,,,,,,a,0.64878,Correct!,,,,,,t2.png,t2.png,0,0.98115,18,Female,2020-11-07_07h32.41.096,torte-q,2020.1.3,Win32,60,13995,,,,,0,90,90,2,1,,,,,,,,,,,,,,,,,,,,,,,,,,,,,,,,,,,
,,,,,,,,,,,,l,0.5594,Correct!,,,,,,t2.png,t5.png,3,0.0000131,18,Female,2020-11-07_07h32.41.096,torte-q,2020.1.3,Win32,60,13995,,,,,0,91,91,40,1,,,,,,,,,,,,,,,,,,,,,,,,,,,,,,,,,,,
,,,,,,,,,,,,a,0.91753,Correct!,,,,,,t4.png,t4.png,0,0.98115,18,Female,2020-11-07_07h32.41.096,torte-q,2020.1.3,Win32,60,13995,,,,,0,92,92,80,1,,,,,,,,,,,,,,,,,,,,,,,,,,,,,,,,,,,
,,,,,,,,,,,,l,0.53811,Correct!,,,,,,t1.png,t3.png,2,0.056466,18,Female,2020-11-07_07h32.41.096,torte-q,2020.1.3,Win32,60,13995,,,,,0,93,93,60,1,,,,,,,,,,,,,,,,,,,,,,,,,,,,,,,,,,,
,,,,,,,,,,,,a,0.51696,Correct!,,,,,,t3.png,t2.png,1,0.909,18,Female,2020-11-07_07h32.41.096,torte-q,2020.1.3,Win32,60,13995,,,,,0,94,94,3,1,,,,,,,,,,,,,,,,,,,,,,,,,,,,,,,,,,,
,,,,,,,,,,,,a,0.63393,Incorrect,,,,,,t4.png,t2.png,2,0.059078,18,Female,2020-11-07_07h32.41.096,torte-q,2020.1.3,Win32,60,13995,,,,,0,95,95,109,1,,,,,,,,,,,,,,,,,,,,,,,,,,,,,,,,,,,
,,,,,,,,,,,,a,0.76603,Correct!,,,,,,t4.png,t4.png,0,0.98115,18,Female,2020-11-07_07h32.41.096,torte-q,2020.1.3,Win32,60,13995,,,,,0,96,96,90,1,,,,,,,,,,,,,,,,,,,,,,,,,,,,,,,,,,,
,,,,,,,,,,,,l,0.53852,Incorrect,,,,,,t3.png,t4.png,1,0.909,18,Female,2020-11-07_07h32.41.096,torte-q,2020.1.3,Win32,60,13995,,,,,0,97,97,82,1,,,,,,,,,,,,,,,,,,,,,,,,,,,,,,,,,,,
,,,,,,,,,,,,a,0.45481,Correct!,,,,,,t2.png,t1.png,1,0.90025,18,Female,2020-11-07_07h32.41.096,torte-q,2020.1.3,Win32,60,13995,,,,,0,98,98,5,1,,,,,,,,,,,,,,,,,,,,,,,,,,,,,,,,,,,
,,,,,,,,,,,,a,0.665095,Correct!,,,,,,t5.png,t5.png,0,0.97829,18,Female,2020-11-07_07h32.41.096,torte-q,2020.1.3,Win32,60,13995,,,,,0,99,99,70,1,,,,,,,,,,,,,,,,,,,,,,,,,,,,,,,,,,,
,,,,,,,,,,,,l,0.556855,Correct!,,,,,,t2.png,t4.png,2,0.059078,18,Female,2020-11-07_07h32.41.096,torte-q,2020.1.3,Win32,60,13995,,,,,0,100,100,24,1,,,,,,,,,,,,,,,,,,,,,,,,,,,,,,,,,,,
,,,,,,,,,,,,a,0.590055,Correct!,,,,,,t4.png,t3.png,1,0.909,18,Female,2020-11-07_07h32.41.096,torte-q,2020.1.3,Win32,60,13995,,,,,0,101,101,46,1,,,,,,,,,,,,,,,,,,,,,,,,,,,,,,,,,,,
,,,,,,,,,,,,a,0.63542,Correct!,,,,,,t4.png,t3.png,1,0.90855,18,Female,2020-11-07_07h32.41.096,torte-q,2020.1.3,Win32,60,13995,,,,,0,102,102,35,1,,,,,,,,,,,,,,,,,,,,,,,,,,,,,,,,,,,
,,,,,,,,,,,,a,0.4982,Incorrect,,,,,,t5.png,t2.png,3,0.0000131,18,Female,2020-11-07_07h32.41.096,torte-q,2020.1.3,Win32,60,13995,,,,,0,103,103,51,1,,,,,,,,,,,,,,,,,,,,,,,,,,,,,,,,,,,
,,,,,,,,,,,,a,0.84846,Correct!,,,,,,t2.png,t2.png,0,0.98115,18,Female,2020-11-07_07h32.41.096,torte-q,2020.1.3,Win32,60,13995,,,,,0,104,104,7,1,,,,,,,,,,,,,,,,,,,,,,,,,,,,,,,,,,,
,,,,,,,,,,,,a,0.648415,Correct!,,,,,,t2.png,t2.png,0,0.98115,18,Female,2020-11-07_07h32.41.096,torte-q,2020.1.3,Win32,60,13995,,,,,0,105,105,57,1,,,,,,,,,,,,,,,,,,,,,,,,,,,,,,,,,,,
,,,,,,,,,,,,l,0.652,Correct!,,,,,,t1.png,t4.png,3,0.0000131,18,Female,2020-11-07_07h32.41.096,torte-q,2020.1.3,Win32,60,13995,,,,,0,106,106,107,1,,,,,,,,,,,,,,,,,,,,,,,,,,,,,,,,,,,
,,,,,,,,,,,,l,0.598615,Incorrect,,,,,,t1.png,t2.png,1,0.90025,18,Female,2020-11-07_07h32.41.096,torte-q,2020.1.3,Win32,60,13995,,,,,0,107,107,105,1,,,,,,,,,,,,,,,,,,,,,,,,,,,,,,,,,,,
,,,,,,,,,,,,l,0.566425,Incorrect,,,,,,t1.png,t2.png,1,0.9,18,Female,2020-11-07_07h32.41.096,torte-q,2020.1.3,Win32,60,13995,,,,,0,108,108,1,1,,,,,,,,,,,,,,,,,,,,,,,,,,,,,,,,,,,
,,,,,,,,,,,,l,0.680545,Correct!,,,,,,t3.png,t5.png,2,0.0565,18,Female,2020-11-07_07h32.41.096,torte-q,2020.1.3,Win32,60,13995,,,,,0,109,109,83,1,,,,,,,,,,,,,,,,,,,,,,,,,,,,,,,,,,,
,,,,,,,,,,,,l,0.52491,Correct!,,,,,,t1.png,t5.png,4,9.55E-11,18,Female,2020-11-07_07h32.41.096,torte-q,2020.1.3,Win32,60,13995,,,,,0,110,110,41,1,,,,,,,,,,,,,,,,,,,,,,,,,,,,,,,,,,,
,,,,,,,,,,,,a,0.482015,Incorrect,,,,,,t4.png,t1.png,3,0.0000131,18,Female,2020-11-07_07h32.41.096,torte-q,2020.1.3,Win32,60,13995,,,,,0,111,111,93,1,,,,,,,,,,,,,,,,,,,,,,,,,,,,,,,,,,,
,,,,,,,,,,,,a,0.47532,Incorrect,,,,,,t4.png,t1.png,3,0.0000131,18,Female,2020-11-07_07h32.41.096,torte-q,2020.1.3,Win32,60,13995,,,,,0,112,112,48,1,,,,,,,,,,,,,,,,,,,,,,,,,,,,,,,,,,,
,,,,,,,,,,,,l,0.5016,Incorrect,,,,,,t2.png,t3.png,1,0.90855,18,Female,2020-11-07_07h32.41.096,torte-q,2020.1.3,Win32,60,13995,,,,,0,113,113,111,1,,,,,,,,,,,,,,,,,,,,,,,,,,,,,,,,,,,
,,,,,,,,,,,,a,0.49044,Incorrect,,,,,,t4.png,t2.png,2,0.059078,18,Female,2020-11-07_07h32.41.096,torte-q,2020.1.3,Win32,60,13995,,,,,0,114,114,86,1,,,,,,,,,,,,,,,,,,,,,,,,,,,,,,,,,,,
,,,,,,,,,,,,l,0.61545,Incorrect,,,,,,t1.png,t2.png,1,0.90025,18,Female,2020-11-07_07h32.41.096,torte-q,2020.1.3,Win32,60,13995,,,,,0,115,115,112,1,,,,,,,,,,,,,,,,,,,,,,,,,,,,,,,,,,,
,,,,,,,,,,,,a,0.502445,Correct!,,,,,,t2.png,t1.png,1,0.90025,18,Female,2020-11-07_07h32.41.096,torte-q,2020.1.3,Win32,60,13995,,,,,0,116,116,62,1,,,,,,,,,,,,,,,,,,,,,,,,,,,,,,,,,,,
,,,,,,,,,,,,a,0.81838,Correct!,,,,,,t1.png,t1.png,0,0.978,18,Female,2020-11-07_07h32.41.096,torte-q,2020.1.3,Win32,60,13995,,,,,0,117,117,54,1,,,,,,,,,,,,,,,,,,,,,,,,,,,,,,,,,,,
,,,,,,,,,,,,a,0.72501,Correct!,,,,,,t4.png,t4.png,0,0.98115,18,Female,2020-11-07_07h32.41.096,torte-q,2020.1.3,Win32,60,13995,,,,,0,118,118,52,1,,,,,,,,,,,,,,,,,,,,,,,,,,,,,,,,,,,
,,,,,,,,,,,,a,0.43195,Incorrect,,,,,,t5.png,t3.png,2,0.056466,18,Female,2020-11-07_07h32.41.096,torte-q,2020.1.3,Win32,60,13995,,,,,0,119,119,38,1,,,,,,,,,,,,,,,,,,,,,,,,,,,,,,,,,,,
,,,,,,,,,,,,a,0.566805,Correct!,,,,,,t4.png,t3.png,1,0.909,18,Female,2020-11-07_07h32.41.096,torte-q,2020.1.3,Win32,60,13995,space,17.865045,,,,,,,,space,47.042025,space,12.54485,0,0,0,46,1,,,,,,,,,,,,,,,,,,,,,,,,,,
,,,,,,,,,,,,a,0.41492,Incorrect,,,,,,t4.png,t1.png,3,0.0000131,18,Female,2020-11-07_07h32.41.096,torte-q,2020.1.3,Win32,60,13995,,,,,,,,,,,,,,0,1,1,93,1,,,,,,,,,,,,,,,,,,,,,,,,,,
,,,,,,,,,,,,l,0.437765,Correct!,,,,,,t3.png,t5.png,2,0.056466,18,Female,2020-11-07_07h32.41.096,torte-q,2020.1.3,Win32,60,13995,,,,,,,,,,,,,,0,2,2,6,1,,,,,,,,,,,,,,,,,,,,,,,,,,
,,,,,,,,,,,,a,0.382485,Incorrect,,,,,,t3.png,t2.png,1,0.90855,18,Female,2020-11-07_07h32.41.096,torte-q,2020.1.3,Win32,60,13995,,,,,,,,,,,,,,0,3,3,97,1,,,,,,,,,,,,,,,,,,,,,,,,,,
,,,,,,,,,,,,a,0.415095,Incorrect,,,,,,t5.png,t3.png,2,0.056466,18,Female,2020-11-07_07h32.41.096,torte-q,2020.1.3,Win32,60,13995,,,,,,,,,,,,,,0,4,4,38,1,,,,,,,,,,,,,,,,,,,,,,,,,,
,,,,,,,,,,,,l,0.708565,Incorrect,,,,,,t5.png,t5.png,0,0.978,18,Female,2020-11-07_07h32.41.096,torte-q,2020.1.3,Win32,60,13995,,,,,,,,,,,,,,0,5,5,117,1,,,,,,,,,,,,,,,,,,,,,,,,,,
,,,,,,,,,,,,a,0.432035,Incorrect,,,,,,t5.png,t3.png,2,0.056466,18,Female,2020-11-07_07h32.41.096,torte-q,2020.1.3,Win32,60,13995,,,,,,,,,,,,,,0,6,6,108,1,,,,,,,,,,,,,,,,,,,,,,,,,,
,,,,,,,,,,,,a,0.72051,Correct!,,,,,,t5.png,t5.png,0,0.97829,18,Female,2020-11-07_07h32.41.096,torte-q,2020.1.3,Win32,60,13995,,,,,,,,,,,,,,0,7,7,94,1,,,,,,,,,,,,,,,,,,,,,,,,,,
,,,,,,,,,,,,l,0.581545,Correct!,,,,,,t1.png,t2.png,1,0.90025,18,Female,2020-11-07_07h32.41.096,torte-q,2020.1.3,Win32,60,13995,,,,,,,,,,,,,,0,8,8,33,1,,,,,,,,,,,,,,,,,,,,,,,,,,
,,,,,,,,,,,,l,0.513775,Correct!,,,,,,t1.png,t5.png,4,9.55E-11,18,Female,2020-11-07_07h32.41.096,torte-q,2020.1.3,Win32,60,13995,,,,,,,,,,,,,,0,9,9,12,1,,,,,,,,,,,,,,,,,,,,,,,,,,
,,,,,,,,,,,,a,0.691575,Correct!,,,,,,t4.png,t5.png,1,0.90025,18,Female,2020-11-07_07h32.41.096,torte-q,2020.1.3,Win32,60,13995,,,,,,,,,,,,,,0,10,10,47,1,,,,,,,,,,,,,,,,,,,,,,,,,,
,,,,,,,,,,,,a,0.665785,Correct!,,,,,,t3.png,t2.png,1,0.909,18,Female,2020-11-07_07h32.41.096,torte-q,2020.1.3,Win32,60,13995,,,,,,,,,,,,,,0,11,11,3,1,,,,,,,,,,,,,,,,,,,,,,,,,,
,,,,,,,,,,,,a,0.48196,Incorrect,,,,,,t5.png,t2.png,3,0.0000131,18,Female,2020-11-07_07h32.41.096,torte-q,2020.1.3,Win32,60,13995,,,,,,,,,,,,,,0,12,12,91,1,,,,,,,,,,,,,,,,,,,,,,,,,,
,,,,,,,,,,,,a,0.881945,Correct!,,,,,,t2.png,t1.png,1,0.90025,18,Female,2020-11-07_07h32.41.096,torte-q,2020.1.3,Win32,60,13995,,,,,,,,,,,,,,0,13,13,5,1,,,,,,,,,,,,,,,,,,,,,,,,,,
,,,,,,,,,,,,a,0.48199,Incorrect,,,,,,t5.png,t1.png,4,9.55E-11,18,Female,2020-11-07_07h32.41.096,torte-q,2020.1.3,Win32,60,13995,,,,,,,,,,,,,,0,14,14,102,1,,,,,,,,,,,,,,,,,,,,,,,,,,
,,,,,,,,,,,,l,0.59606,Correct!,,,,,,t2.png,t4.png,2,0.0591,18,Female,2020-11-07_07h32.41.096,torte-q,2020.1.3,Win32,60,13995,,,,,,,,,,,,,,0,15,15,15,1,,,,,,,,,,,,,,,,,,,,,,,,,,
,,,,,,,,,,,,a,0.915255,Correct!,,,,,,t2.png,t2.png,0,0.98115,18,Female,2020-11-07_07h32.41.096,torte-q,2020.1.3,Win32,60,13995,,,,,,,,,,,,,,0,16,16,7,1,,,,,,,,,,,,,,,,,,,,,,,,,,
,,,,,,,,,,,,l,0.95818,Incorrect,,,,,,t2.png,t3.png,1,0.90855,18,Female,2020-11-07_07h32.41.096,torte-q,2020.1.3,Win32,60,13995,,,,,,,,,,,,,,0,17,17,65,1,,,,,,,,,,,,,,,,,,,,,,,,,,
,,,,,,,,,,,,l,0.666385,Incorrect,,,,,,t2.png,t4.png,2,0.059078,18,Female,2020-11-07_07h32.41.096,torte-q,2020.1.3,Win32,60,13995,,,,,,,,,,,,,,0,18,18,11,1,,,,,,,,,,,,,,,,,,,,,,,,,,
,,,,,,,,,,,,a,0.78168,Correct!,,,,,,t1.png,t1.png,0,0.97829,18,Female,2020-11-07_07h32.41.096,torte-q,2020.1.3,Win32,60,13995,,,,,,,,,,,,,,0,19,19,78,1,,,,,,,,,,,,,,,,,,,,,,,,,,
,,,,,,,,,,,,a,0.588385,Correct!,,,,,,t4.png,t4.png,0,0.98115,18,Female,2020-11-07_07h32.41.096,torte-q,2020.1.3,Win32,60,13995,,,,,,,,,,,,,,0,20,20,79,1,,,,,,,,,,,,,,,,,,,,,,,,,,
,,,,,,,,,,,,a,1.09938,Correct!,,,,,,t4.png,t4.png,0,0.98115,18,Female,2020-11-07_07h32.41.096,torte-q,2020.1.3,Win32,60,13995,,,,,,,,,,,,,,0,21,21,21,1,,,,,,,,,,,,,,,,,,,,,,,,,,
,,,,,,,,,,,,a,0.63151,Incorrect,,,,,,t3.png,t1.png,2,0.056466,18,Female,2020-11-07_07h32.41.096,torte-q,2020.1.3,Win32,60,13995,,,,,,,,,,,,,,0,22,22,29,1,,,,,,,,,,,,,,,,,,,,,,,,,,
,,,,,,,,,,,,a,0.510105,Incorrect,,,,,,t4.png,t2.png,2,0.059078,18,Female,2020-11-07_07h32.41.096,torte-q,2020.1.3,Win32,60,13995,,,,,,,,,,,,,,0,23,23,109,1,,,,,,,,,,,,,,,,,,,,,,,,,,
,,,,,,,,,,,,a,1.16465,Correct!,,,,,,t5.png,t5.png,0,0.97829,18,Female,2020-11-07_07h32.41.096,torte-q,2020.1.3,Win32,60,13995,,,,,,,,,,,,,,0,24,24,73,1,,,,,,,,,,,,,,,,,,,,,,,,,,
,,,,,,,,,,,,a,0.42493,Incorrect,,,,,,t5.png,t2.png,3,0.0000131,18,Female,2020-11-07_07h32.41.096,torte-q,2020.1.3,Win32,60,13995,,,,,,,,,,,,,,0,25,25,116,1,,,,,,,,,,,,,,,,,,,,,,,,,,
,,,,,,,,,,,,l,0.80536,Incorrect,,,,,,t4.png,t5.png,1,0.90025,18,Female,2020-11-07_07h32.41.096,torte-q,2020.1.3,Win32,60,13995,,,,,,,,,,,,,,0,26,26,113,1,,,,,,,,,,,,,,,,,,,,,,,,,,
,,,,,,,,,,,,a,0.464535,Correct!,,,,,,t5.png,t4.png,1,0.90025,18,Female,2020-11-07_07h32.41.096,torte-q,2020.1.3,Win32,60,13995,,,,,,,,,,,,,,0,27,27,27,1,,,,,,,,,,,,,,,,,,,,,,,,,,
,,,,,,,,,,,,a,0.44868,Incorrect,,,,,,t5.png,t3.png,2,0.056466,18,Female,2020-11-07_07h32.41.096,torte-q,2020.1.3,Win32,60,13995,,,,,,,,,,,,,,0,28,28,56,1,,,,,,,,,,,,,,,,,,,,,,,,,,
,,,,,,,,,,,,a,0.476585,Incorrect,,,,,,t5.png,t1.png,4,9.55E-11,18,Female,2020-11-07_07h32.41.096,torte-q,2020.1.3,Win32,60,13995,,,,,,,,,,,,,,0,29,29,71,1,,,,,,,,,,,,,,,,,,,,,,,,,,
,,,,,,,,,,,,a,0.72243,Correct!,,,,,,t2.png,t2.png,0,0.98115,18,Female,2020-11-07_07h32.41.096,torte-q,2020.1.3,Win32,60,13995,,,,,,,,,,,,,,0,30,30,2,1,,,,,,,,,,,,,,,,,,,,,,,,,,
,,,,,,,,,,,,a,0.93612,Correct!,,,,,,t5.png,t4.png,1,0.90025,18,Female,2020-11-07_07h32.41.096,torte-q,2020.1.3,Win32,60,13995,,,,,,,,,,,,,,0,31,31,26,1,,,,,,,,,,,,,,,,,,,,,,,,,,
,,,,,,,,,,,,l,0.46539,Correct!,,,,,,t2.png,t5.png,3,0.0000131,18,Female,2020-11-07_07h32.41.096,torte-q,2020.1.3,Win32,60,13995,,,,,,,,,,,,,,0,32,32,104,1,,,,,,,,,,,,,,,,,,,,,,,,,,
,,,,,,,,,,,,l,0.504395,Correct!,,,,,,t1.png,t4.png,3,0.0000131,18,Female,2020-11-07_07h32.41.096,torte-q,2020.1.3,Win32,60,13995,,,,,,,,,,,,,,0,33,33,107,1,,,,,,,,,,,,,,,,,,,,,,,,,,
,,,,,,,,,,,,a,0.38279,Incorrect,,,,,,t4.png,t2.png,2,0.0591,18,Female,2020-11-07_07h32.41.096,torte-q,2020.1.3,Win32,60,13995,,,,,,,,,,,,,,0,34,34,36,1,,,,,,,,,,,,,,,,,,,,,,,,,,
,,,,,,,,,,,,l,0.451105,Incorrect,,,,,,t3.png,t4.png,1,0.909,18,Female,2020-11-07_07h32.41.096,torte-q,2020.1.3,Win32,60,13995,,,,,,,,,,,,,,0,35,35,82,1,,,,,,,,,,,,,,,,,,,,,,,,,,
,,,,,,,,,,,,a,0.431415,Incorrect,,,,,,t5.png,t1.png,4,9.55E-11,18,Female,2020-11-07_07h32.41.096,torte-q,2020.1.3,Win32,60,13995,,,,,,,,,,,,,,0,36,36,100,1,,,,,,,,,,,,,,,,,,,,,,,,,,
,,,,,,,,,,,,l,0.41736,Incorrect,,,,,,t2.png,t3.png,1,0.90855,18,Female,2020-11-07_07h32.41.096,torte-q,2020.1.3,Win32,60,13995,,,,,,,,,,,,,,0,37,37,111,1,,,,,,,,,,,,,,,,,,,,,,,,,,
,,,,,,,,,,,,a,0.599655,Correct!,,,,,,t3.png,t2.png,1,0.90855,18,Female,2020-11-07_07h32.41.096,torte-q,2020.1.3,Win32,60,13995,,,,,,,,,,,,,,0,38,38,53,1,,,,,,,,,,,,,,,,,,,,,,,,,,
,,,,,,,,,,,,a,0.44903,Incorrect,,,,,,t5.png,t3.png,2,0.0565,18,Female,2020-11-07_07h32.41.096,torte-q,2020.1.3,Win32,60,13995,,,,,,,,,,,,,,0,39,39,39,1,,,,,,,,,,,,,,,,,,,,,,,,,,
,,,,,,,,,,,,a,0.72189,Correct!,,,,,,t5.png,t4.png,1,0.9,18,Female,2020-11-07_07h32.41.096,torte-q,2020.1.3,Win32,60,13995,,,,,,,,,,,,,,0,40,40,76,1,,,,,,,,,,,,,,,,,,,,,,,,,,
,,,,,,,,,,,,a,0.899115,Correct!,,,,,,t4.png,t4.png,0,0.98115,18,Female,2020-11-07_07h32.41.096,torte-q,2020.1.3,Win32,60,13995,,,,,,,,,,,,,,0,41,41,90,1,,,,,,,,,,,,,,,,,,,,,,,,,,
,,,,,,,,,,,,a,0.571645,Correct!,,,,,,t4.png,t3.png,1,0.909,18,Female,2020-11-07_07h32.41.096,torte-q,2020.1.3,Win32,60,13995,,,,,,,,,,,,,,0,42,42,20,1,,,,,,,,,,,,,,,,,,,,,,,,,,
,,,,,,,,,,,,l,0.458415,Correct!,,,,,,t2.png,t5.png,3,0.0000131,18,Female,2020-11-07_07h32.41.096,torte-q,2020.1.3,Win32,60,13995,,,,,,,,,,,,,,0,43,43,8,1,,,,,,,,,,,,,,,,,,,,,,,,,,
,,,,,,,,,,,,a,0.416655,Correct!,,,,,,t4.png,t3.png,1,0.90855,18,Female,2020-11-07_07h32.41.096,torte-q,2020.1.3,Win32,60,13995,,,,,,,,,,,,,,0,44,44,45,1,,,,,,,,,,,,,,,,,,,,,,,,,,
,,,,,,,,,,,,l,0.43293,Correct!,,,,,,t1.png,t3.png,2,0.056466,18,Female,2020-11-07_07h32.41.096,torte-q,2020.1.3,Win32,60,13995,,,,,,,,,,,,,,0,45,45,63,1,,,,,,,,,,,,,,,,,,,,,,,,,,
,,,,,,,,,,,,l,0.483735,Correct!,,,,,,t1.png,t4.png,3,0.0000131,18,Female,2020-11-07_07h32.41.096,torte-q,2020.1.3,Win32,60,13995,,,,,,,,,,,,,,0,46,46,81,1,,,,,,,,,,,,,,,,,,,,,,,,,,
,,,,,,,,,,,,l,0.9677,Incorrect,,,,,,t3.png,t4.png,1,0.909,18,Female,2020-11-07_07h32.41.096,torte-q,2020.1.3,Win32,60,13995,,,,,,,,,,,,,,0,47,47,89,1,,,,,,,,,,,,,,,,,,,,,,,,,,
,,,,,,,,,,,,a,0.46894,Incorrect,,,,,,t3.png,t1.png,2,0.056466,18,Female,2020-11-07_07h32.41.096,torte-q,2020.1.3,Win32,60,13995,,,,,,,,,,,,,,0,48,48,32,1,,,,,,,,,,,,,,,,,,,,,,,,,,
,,,,,,,,,,,,a,0.82151,Correct!,,,,,,t1.png,t1.png,0,0.97829,18,Female,2020-11-07_07h32.41.096,torte-q,2020.1.3,Win32,60,13995,,,,,,,,,,,,,,0,49,49,67,1,,,,,,,,,,,,,,,,,,,,,,,,,,
,,,,,,,,,,,,a,0.483915,Incorrect,,,,,,t5.png,t2.png,3,0.0000131,18,Female,2020-11-07_07h32.41.096,torte-q,2020.1.3,Win32,60,13995,,,,,,,,,,,,,,0,50,50,119,1,,,,,,,,,,,,,,,,,,,,,,,,,,
,,,,,,,,,,,,l,0.451765,Incorrect,,,,,,t1.png,t2.png,1,0.90025,18,Female,2020-11-07_07h32.41.096,torte-q,2020.1.3,Win32,60,13995,,,,,,,,,,,,,,0,51,51,105,1,,,,,,,,,,,,,,,,,,,,,,,,,,
,,,,,,,,,,,,a,0.42966,Correct!,,,,,,t2.png,t1.png,1,0.90025,18,Female,2020-11-07_07h32.41.096,torte-q,2020.1.3,Win32,60,13995,,,,,,,,,,,,,,0,52,52,4,1,,,,,,,,,,,,,,,,,,,,,,,,,,
,,,,,,,,,,,,a,0.37272,Incorrect,,,,,,t4.png,t1.png,3,0.0000131,18,Female,2020-11-07_07h32.41.096,torte-q,2020.1.3,Win32,60,13995,,,,,,,,,,,,,,0,53,53,61,1,,,,,,,,,,,,,,,,,,,,,,,,,,
,,,,,,,,,,,,l,0.40485,Correct!,,,,,,t2.png,t5.png,3,0.0000131,18,Female,2020-11-07_07h32.41.096,torte-q,2020.1.3,Win32,60,13995,,,,,,,,,,,,,,0,54,54,40,1,,,,,,,,,,,,,,,,,,,,,,,,,,
,,,,,,,,,,,,l,0.415625,Incorrect,,,,,,t2.png,t3.png,1,0.90855,18,Female,2020-11-07_07h32.41.096,torte-q,2020.1.3,Win32,60,13995,,,,,,,,,,,,,,0,55,55,10,1,,,,,,,,,,,,,,,,,,,,,,,,,,
,,,,,,,,,,,,l,0.4904,Correct!,,,,,,t1.png,t4.png,3,0.0000131,18,Female,2020-11-07_07h32.41.096,torte-q,2020.1.3,Win32,60,13995,,,,,,,,,,,,,,0,56,56,92,1,,,,,,,,,,,,,,,,,,,,,,,,,,
,,,,,,,,,,,,a,0.91943,Correct!,,,,,,t4.png,t4.png,0,0.98115,18,Female,2020-11-07_07h32.41.096,torte-q,2020.1.3,Win32,60,13995,,,,,,,,,,,,,,0,57,57,52,1,,,,,,,,,,,,,,,,,,,,,,,,,,
,,,,,,,,,,,,l,0.45129,Correct!,,,,,,t1.png,t4.png,3,0.0000131,18,Female,2020-11-07_07h32.41.096,torte-q,2020.1.3,Win32,60,13995,,,,,,,,,,,,,,0,58,58,17,1,,,,,,,,,,,,,,,,,,,,,,,,,,
,,,,,,,,,,,,l,0.400895,Correct!,,,,,,t2.png,t4.png,2,0.059078,18,Female,2020-11-07_07h32.41.096,torte-q,2020.1.3,Win32,60,13995,,,,,,,,,,,,,,0,59,59,77,1,,,,,,,,,,,,,,,,,,,,,,,,,,
,,,,,,,,,,,,l,0.525215,Incorrect,,,,,,t3.png,t4.png,1,0.90855,18,Female,2020-11-07_07h32.41.096,torte-q,2020.1.3,Win32,60,13995,,,,,,,,,,,,,,0,60,60,96,1,,,,,,,,,,,,,,,,,,,,,,,,,,
,,,,,,,,,,,,a,0.832375,Incorrect,,,,,,t5.png,t4.png,1,0.90025,18,Female,2020-11-07_07h32.41.096,torte-q,2020.1.3,Win32,60,13995,,,,,,,,,,,,,,0,61,61,34,1,,,,,,,,,,,,,,,,,,,,,,,,,,
,,,,,,,,,,,,a,0.484795,Incorrect,,,,,,t5.png,t3.png,2,0.056466,18,Female,2020-11-07_07h32.41.096,torte-q,2020.1.3,Win32,60,13995,,,,,,,,,,,,,,0,62,62,114,1,,,,,,,,,,,,,,,,,,,,,,,,,,
,,,,,,,,,,,,l,0.541055,Incorrect,,,,,,t1.png,t2.png,1,0.90025,18,Female,2020-11-07_07h32.41.096,torte-q,2020.1.3,Win32,60,13995,,,,,,,,,,,,,,0,63,63,72,1,,,,,,,,,,,,,,,,,,,,,,,,,,
,,,,,,,,,,,,l,0.45038,Incorrect,,,,,,t1.png,t2.png,1,0.90025,18,Female,2020-11-07_07h32.41.096,torte-q,2020.1.3,Win32,60,13995,,,,,,,,,,,,,,0,64,64,112,1,,,,,,,,,,,,,,,,,,,,,,,,,,
,,,,,,,,,,,,a,0.390425,Incorrect,,,,,,t4.png,t1.png,3,0.0000131,18,Female,2020-11-07_07h32.41.096,torte-q,2020.1.3,Win32,60,13995,,,,,,,,,,,,,,0,65,65,48,1,,,,,,,,,,,,,,,,,,,,,,,,,,
,,,,,,,,,,,,l,0.43509,Correct!,,,,,,t1.png,t5.png,4,9.55E-11,18,Female,2020-11-07_07h32.41.096,torte-q,2020.1.3,Win32,60,13995,,,,,,,,,,,,,,0,66,66,55,1,,,,,,,,,,,,,,,,,,,,,,,,,,
,,,,,,,,,,,,l,0.466275,Correct!,,,,,,t3.png,t5.png,2,0.056466,18,Female,2020-11-07_07h32.41.096,torte-q,2020.1.3,Win32,60,13995,,,,,,,,,,,,,,0,67,67,14,1,,,,,,,,,,,,,,,,,,,,,,,,,,
,,,,,,,,,,,,a,0.66974,Correct!,,,,,,t1.png,t1.png,0,0.978,18,Female,2020-11-07_07h32.41.096,torte-q,2020.1.3,Win32,60,13995,,,,,,,,,,,,,,0,68,68,28,1,,,,,,,,,,,,,,,,,,,,,,,,,,
,,,,,,,,,,,,l,0.44875,Correct!,,,,,,t3.png,t5.png,2,0.0565,18,Female,2020-11-07_07h32.41.096,torte-q,2020.1.3,Win32,60,13995,,,,,,,,,,,,,,0,69,69,30,1,,,,,,,,,,,,,,,,,,,,,,,,,,
,,,,,,,,,,,,a,0.415115,Incorrect,,,,,,t3.png,t1.png,2,0.056466,18,Female,2020-11-07_07h32.41.096,torte-q,2020.1.3,Win32,60,13995,,,,,,,,,,,,,,0,70,70,64,1,,,,,,,,,,,,,,,,,,,,,,,,,,
,,,,,,,,,,,,l,0.38192,Correct!,,,,,,t1.png,t5.png,4,9.55E-11,18,Female,2020-11-07_07h32.41.096,torte-q,2020.1.3,Win32,60,13995,,,,,,,,,,,,,,0,71,71,85,1,,,,,,,,,,,,,,,,,,,,,,,,,,
,,,,,,,,,,,,a,0.498515,Correct!,,,,,,t2.png,t2.png,0,0.981,18,Female,2020-11-07_07h32.41.096,torte-q,2020.1.3,Win32,60,13995,,,,,,,,,,,,,,0,72,72,101,1,,,,,,,,,,,,,,,,,,,,,,,,,,
,,,,,,,,,,,,l,0.418775,Correct!,,,,,,t1.png,t5.png,4,9.55E-11,18,Female,2020-11-07_07h32.41.096,torte-q,2020.1.3,Win32,60,13995,,,,,,,,,,,,,,0,73,73,16,1,,,,,,,,,,,,,,,,,,,,,,,,,,
,,,,,,,,,,,,a,0.38551,Incorrect,,,,,,t4.png,t2.png,2,0.059078,18,Female,2020-11-07_07h32.41.096,torte-q,2020.1.3,Win32,60,13995,,,,,,,,,,,,,,0,74,74,88,1,,,,,,,,,,,,,,,,,,,,,,,,,,
,,,,,,,,,,,,a,0.60742,Correct!,,,,,,t2.png,t1.png,1,0.90025,18,Female,2020-11-07_07h32.41.096,torte-q,2020.1.3,Win32,60,13995,,,,,,,,,,,,,,0,75,75,19,1,,,,,,,,,,,,,,,,,,,,,,,,,,
,,,,,,,,,,,,a,0.43973,Incorrect,,,,,,t5.png,t1.png,4,9.55E-11,18,Female,2020-11-07_07h32.41.096,torte-q,2020.1.3,Win32,60,13995,,,,,,,,,,,,,,0,76,76,22,1,,,,,,,,,,,,,,,,,,,,,,,,,,
,,,,,,,,,,,,l,0.42523,Correct!,,,,,,t2.png,t3.png,1,0.90855,18,Female,2020-11-07_07h32.41.096,torte-q,2020.1.3,Win32,60,13995,,,,,,,,,,,,,,0,77,77,68,1,,,,,,,,,,,,,,,,,,,,,,,,,,
,,,,,,,,,,,,a,0.7815,Correct!,,,,,,t5.png,t5.png,0,0.97829,18,Female,2020-11-07_07h32.41.096,torte-q,2020.1.3,Win32,60,13995,,,,,,,,,,,,,,0,78,78,70,1,,,,,,,,,,,,,,,,,,,,,,,,,,
,,,,,,,,,,,,a,0.43724,Incorrect,,,,,,t3.png,t2.png,1,0.909,18,Female,2020-11-07_07h32.41.096,torte-q,2020.1.3,Win32,60,13995,,,,,,,,,,,,,,0,79,79,23,1,,,,,,,,,,,,,,,,,,,,,,,,,,
,,,,,,,,,,,,a,0.408225,Incorrect,,,,,,t4.png,t1.png,3,0.0000131,18,Female,2020-11-07_07h32.41.096,torte-q,2020.1.3,Win32,60,13995,,,,,,,,,,,,,,0,80,80,13,1,,,,,,,,,,,,,,,,,,,,,,,,,,
,,,,,,,,,,,,a,0.515285,Correct!,,,,,,t3.png,t2.png,1,0.90855,18,Female,2020-11-07_07h32.41.096,torte-q,2020.1.3,Win32,60,13995,,,,,,,,,,,,,,0,81,81,18,1,,,,,,,,,,,,,,,,,,,,,,,,,,
,,,,,,,,,,,,l,0.565235,Incorrect,,,,,,t3.png,t4.png,1,0.909,18,Female,2020-11-07_07h32.41.096,torte-q,2020.1.3,Win32,60,13995,,,,,,,,,,,,,,0,82,82,106,1,,,,,,,,,,,,,,,,,,,,,,,,,,
,,,,,,,,,,,,l,0.46598,Correct!,,,,,,t1.png,t3.png,2,0.056466,18,Female,2020-11-07_07h32.41.096,torte-q,2020.1.3,Win32,60,13995,,,,,,,,,,,,,,0,83,83,60,1,,,,,,,,,,,,,,,,,,,,,,,,,,
,,,,,,,,,,,,a,0.46492,Correct!,,,,,,t2.png,t2.png,0,0.98115,18,Female,2020-11-07_07h32.41.096,torte-q,2020.1.3,Win32,60,13995,,,,,,,,,,,,,,0,84,84,57,1,,,,,,,,,,,,,,,,,,,,,,,,,,
,,,,,,,,,,,,l,0.398535,Correct!,,,,,,t2.png,t5.png,3,0.0000131,18,Female,2020-11-07_07h32.41.096,torte-q,2020.1.3,Win32,60,13995,,,,,,,,,,,,,,0,85,85,95,1,,,,,,,,,,,,,,,,,,,,,,,,,,
,,,,,,,,,,,,a,0.4481,Correct!,,,,,,t2.png,t2.png,0,0.98115,18,Female,2020-11-07_07h32.41.096,torte-q,2020.1.3,Win32,60,13995,,,,,,,,,,,,,,0,86,86,59,1,,,,,,,,,,,,,,,,,,,,,,,,,,
,,,,,,,,,,,,a,0.66555,Correct!,,,,,,t4.png,t4.png,0,0.98115,18,Female,2020-11-07_07h32.41.096,torte-q,2020.1.3,Win32,60,13995,,,,,,,,,,,,,,0,87,87,80,1,,,,,,,,,,,,,,,,,,,,,,,,,,
,,,,,,,,,,,,a,0.369615,Incorrect,,,,,,t4.png,t1.png,3,0.0000131,18,Female,2020-11-07_07h32.41.096,torte-q,2020.1.3,Win32,60,13995,,,,,,,,,,,,,,0,88,88,42,1,,,,,,,,,,,,,,,,,,,,,,,,,,
,,,,,,,,,,,,a,0.398545,Correct!,,,,,,t4.png,t3.png,1,0.90855,18,Female,2020-11-07_07h32.41.096,torte-q,2020.1.3,Win32,60,13995,,,,,,,,,,,,,,0,89,89,35,1,,,,,,,,,,,,,,,,,,,,,,,,,,
,,,,,,,,,,,,l,0.562765,Correct!,,,,,,t4.png,t5.png,1,0.90025,18,Female,2020-11-07_07h32.41.096,torte-q,2020.1.3,Win32,60,13995,,,,,,,,,,,,,,0,90,90,103,1,,,,,,,,,,,,,,,,,,,,,,,,,,
,,,,,,,,,,,,l,0.5164,Correct!,,,,,,t1.png,t3.png,2,0.056466,18,Female,2020-11-07_07h32.41.096,torte-q,2020.1.3,Win32,60,13995,,,,,,,,,,,,,,0,91,91,69,1,,,,,,,,,,,,,,,,,,,,,,,,,,
,,,,,,,,,,,,l,0.424225,Correct!,,,,,,t2.png,t4.png,2,0.059078,18,Female,2020-11-07_07h32.41.096,torte-q,2020.1.3,Win32,60,13995,,,,,,,,,,,,,,0,92,92,24,1,,,,,,,,,,,,,,,,,,,,,,,,,,
,,,,,,,,,,,,l,0.48222,Correct!,,,,,,t2.png,t4.png,2,0.059078,18,Female,2020-11-07_07h32.41.096,torte-q,2020.1.3,Win32,60,13995,,,,,,,,,,,,,,0,93,93,37,1,,,,,,,,,,,,,,,,,,,,,,,,,,
,,,,,,,,,,,,l,0.51505,Correct!,,,,,,t3.png,t5.png,2,0.0565,18,Female,2020-11-07_07h32.41.096,torte-q,2020.1.3,Win32,60,13995,,,,,,,,,,,,,,0,94,94,83,1,,,,,,,,,,,,,,,,,,,,,,,,,,
,,,,,,,,,,,,l,0.43287,Correct!,,,,,,t1.png,t3.png,2,0.056466,18,Female,2020-11-07_07h32.41.096,torte-q,2020.1.3,Win32,60,13995,,,,,,,,,,,,,,0,95,95,87,1,,,,,,,,,,,,,,,,,,,,,,,,,,
,,,,,,,,,,,,a,0.43234,Incorrect,,,,,,t5.png,t2.png,3,0.0000131,18,Female,2020-11-07_07h32.41.096,torte-q,2020.1.3,Win32,60,13995,,,,,,,,,,,,,,0,96,96,98,1,,,,,,,,,,,,,,,,,,,,,,,,,,
,,,,,,,,,,,,a,0.867835,Correct!,,,,,,t5.png,t5.png,0,0.97829,18,Female,2020-11-07_07h32.41.096,torte-q,2020.1.3,Win32,60,13995,,,,,,,,,,,,,,0,97,97,25,1,,,,,,,,,,,,,,,,,,,,,,,,,,
,,,,,,,,,,,,a,0.524035,Correct!,,,,,,t2.png,t1.png,1,0.9,18,Female,2020-11-07_07h32.41.096,torte-q,2020.1.3,Win32,60,13995,,,,,,,,,,,,,,0,98,98,118,1,,,,,,,,,,,,,,,,,,,,,,,,,,
,,,,,,,,,,,,a,0.38162,Incorrect,,,,,,t5.png,t2.png,3,0.0000131,18,Female,2020-11-07_07h32.41.096,torte-q,2020.1.3,Win32,60,13995,,,,,,,,,,,,,,0,99,99,51,1,,,,,,,,,,,,,,,,,,,,,,,,,,
,,,,,,,,,,,,l,0.53627,Correct!,,,,,,t3.png,t5.png,2,0.056466,18,Female,2020-11-07_07h32.41.096,torte-q,2020.1.3,Win32,60,13995,,,,,,,,,,,,,,0,100,100,44,1,,,,,,,,,,,,,,,,,,,,,,,,,,
,,,,,,,,,,,,a,0.37072,Incorrect,,,,,,t4.png,t2.png,2,0.059078,18,Female,2020-11-07_07h32.41.096,torte-q,2020.1.3,Win32,60,13995,,,,,,,,,,,,,,0,101,101,86,1,,,,,,,,,,,,,,,,,,,,,,,,,,
,,,,,,,,,,,,l,0.424935,Correct!,,,,,,t1.png,t3.png,2,0.056466,18,Female,2020-11-07_07h32.41.096,torte-q,2020.1.3,Win32,60,13995,,,,,,,,,,,,,,0,102,102,99,1,,,,,,,,,,,,,,,,,,,,,,,,,,
,,,,,,,,,,,,l,0.690955,Incorrect,,,,,,t3.png,t4.png,1,0.90855,18,Female,2020-11-07_07h32.41.096,torte-q,2020.1.3,Win32,60,13995,,,,,,,,,,,,,,0,103,103,84,1,,,,,,,,,,,,,,,,,,,,,,,,,,
,,,,,,,,,,,,a,0.407085,Incorrect,,,,,,t4.png,t2.png,2,0.059078,18,Female,2020-11-07_07h32.41.096,torte-q,2020.1.3,Win32,60,13995,,,,,,,,,,,,,,0,104,104,110,1,,,,,,,,,,,,,,,,,,,,,,,,,,
,,,,,,,,,,,,a,0.7148,Incorrect,,,,,,t5.png,t4.png,1,0.9,18,Female,2020-11-07_07h32.41.096,torte-q,2020.1.3,Win32,60,13995,,,,,,,,,,,,,,0,105,105,49,1,,,,,,,,,,,,,,,,,,,,,,,,,,
,,,,,,,,,,,,l,0.40192,Incorrect,,,,,,t4.png,t5.png,1,0.9,18,Female,2020-11-07_07h32.41.096,torte-q,2020.1.3,Win32,60,13995,,,,,,,,,,,,,,0,106,106,115,1,,,,,,,,,,,,,,,,,,,,,,,,,,
,,,,,,,,,,,,a,0.834365,Correct!,,,,,,t1.png,t1.png,0,0.978,18,Female,2020-11-07_07h32.41.096,torte-q,2020.1.3,Win32,60,13995,,,,,,,,,,,,,,0,107,107,54,1,,,,,,,,,,,,,,,,,,,,,,,,,,
,,,,,,,,,,,,a,0.44756,Incorrect,,,,,,t3.png,t1.png,2,0.056466,18,Female,2020-11-07_07h32.41.096,torte-q,2020.1.3,Win32,60,13995,,,,,,,,,,,,,,0,108,108,0,1,,,,,,,,,,,,,,,,,,,,,,,,,,
,,,,,,,,,,,,a,0.409345,Incorrect,,,,,,t3.png,t1.png,2,0.0565,18,Female,2020-11-07_07h32.41.096,torte-q,2020.1.3,Win32,60,13995,,,,,,,,,,,,,,0,109,109,31,1,,,,,,,,,,,,,,,,,,,,,,,,,,
,,,,,,,,,,,,l,0.41536,Correct!,,,,,,t1.png,t4.png,3,0.0000131,18,Female,2020-11-07_07h32.41.096,torte-q,2020.1.3,Win32,60,13995,,,,,,,,,,,,,,0,110,110,50,1,,,,,,,,,,,,,,,,,,,,,,,,,,
,,,,,,,,,,,,a,0.588755,Correct!,,,,,,t1.png,t1.png,0,0.97829,18,Female,2020-11-07_07h32.41.096,torte-q,2020.1.3,Win32,60,13995,,,,,,,,,,,,,,0,111,111,9,1,,,,,,,,,,,,,,,,,,,,,,,,,,
,,,,,,,,,,,,l,0.42496,Incorrect,,,,,,t1.png,t2.png,1,0.9,18,Female,2020-11-07_07h32.41.096,torte-q,2020.1.3,Win32,60,13995,,,,,,,,,,,,,,0,112,112,1,1,,,,,,,,,,,,,,,,,,,,,,,,,,
,,,,,,,,,,,,l,0.57262,Incorrect,,,,,,t2.png,t1.png,1,0.90025,18,Female,2020-11-07_07h32.41.096,torte-q,2020.1.3,Win32,60,13995,,,,,,,,,,,,,,0,113,113,62,1,,,,,,,,,,,,,,,,,,,,,,,,,,
,,,,,,,,,,,,l,0.53179,Incorrect,,,,,,t2.png,t3.png,1,0.909,18,Female,2020-11-07_07h32.41.096,torte-q,2020.1.3,Win32,60,13995,,,,,,,,,,,,,,0,114,114,74,1,,,,,,,,,,,,,,,,,,,,,,,,,,
,,,,,,,,,,,,a,0.448715,Correct!,,,,,,t4.png,t3.png,1,0.90855,18,Female,2020-11-07_07h32.41.096,torte-q,2020.1.3,Win32,60,13995,,,,,,,,,,,,,,0,115,115,75,1,,,,,,,,,,,,,,,,,,,,,,,,,,
,,,,,,,,,,,,l,0.465665,Incorrect,,,,,,t4.png,t5.png,1,0.90025,18,Female,2020-11-07_07h32.41.096,torte-q,2020.1.3,Win32,60,13995,,,,,,,,,,,,,,0,116,116,58,1,,,,,,,,,,,,,,,,,,,,,,,,,,
,,,,,,,,,,,,a,0.416015,Incorrect,,,,,,t5.png,t1.png,4,9.55E-11,18,Female,2020-11-07_07h32.41.096,torte-q,2020.1.3,Win32,60,13995,,,,,,,,,,,,,,0,117,117,43,1,,,,,,,,,,,,,,,,,,,,,,,,,,
,,,,,,,,,,,,l,0.38287,Correct!,,,,,,t2.png,t5.png,3,0.0000131,18,Female,2020-11-07_07h32.41.096,torte-q,2020.1.3,Win32,60,13995,,,,,,,,,,,,,,0,118,118,66,1,,,,,,,,,,,,,,,,,,,,,,,,,,
,,,,,,,,,,,,l,0.426615,Correct!,,,,,,t1.png,t5.png,4,9.55E-11,18,Female,2020-11-07_07h32.41.096,torte-q,2020.1.3,Win32,60,13995,,,,,,,,,,,,,,0,119,119,41,1,,,,,,,,,,,,,,,,,,,,,,,,,,
,,,,,,,,,,,,,,,,,,,,,,,,18,Female,2020-11-07_07h32.41.096,torte-q,2020.1.3,Win32,60,13995,space,0.973325,,,,,,,,,,,,,,,,,4.970000305,7.854735,241.3333596,189.3333282,1,0,0,s1,70.00002116,31.99999022,1,0,0,t2,238.0000262,-102.6666805,1,0,0,proceed,space,0.285065,space,0.550885,space,0.39987
