key_resp_8.keys,key_resp_8.rt,key_resp_9.keys,key_resp_9.rt,key_resp_10.keys,key_resp_10.rt,key_resp_11.keys,key_resp_11.rt,key_resp_2.keys,key_resp_2.rt,key_resp_3.keys,key_resp_3.rt,key_resp.keys,Feedback,train.thisRepN,train.thisTrialN,train.thisN,train.thisIndex,train.ran,torta_sx,torta_dx,difference,probability,age,gender,date,expName,psychopyVersion,OS,frameRate,participant,key_resp.rt,key_resp_15.keys,key_resp_15.rt,key_resp_6.keys,key_resp_6.rt,test1.thisRepN,test1.thisTrialN,test1.thisN,test1.thisIndex,test1.ran,key_resp_16.keys,key_resp_16.rt,key_resp_7.keys,key_resp_7.rt,test2.thisRepN,test2.thisTrialN,test2.thisN,test2.thisIndex,test2.ran,rating.response,rating.rt,mouse.x,mouse.y,mouse.leftButton,mouse.midButton,mouse.rightButton,mouse.clicked_name,mouse_2.x,mouse_2.y,mouse_2.leftButton,mouse_2.midButton,mouse_2.rightButton,mouse_2.clicked_name,mouse_3.x,mouse_3.y,mouse_3.leftButton,mouse_3.midButton,mouse_3.rightButton,mouse_3.clicked_name,key_resp_12.keys,key_resp_12.rt,key_resp_13.keys,key_resp_13.rt,key_resp_14.keys,key_resp_14.rt
space,1.17848,space,8.76632,space,1.298065,space,10.39557,space,21.994655,space,51.234935,,Too slow :(,0,0,0,61,1,t1.png,t4.png,3,0.0000131,18,Female,2020-11-10_11h08.15.403,torte-q,2020.1.3,Win32,60,14051,,,,,,,,,,,,,,,,,,,,,,,,,,,,,,,,,,,,,,,,,,,,,
,,,,,,,,,,,,a,Incorrect,0,1,1,36,1,t3.png,t1.png,2,0.0565,18,Female,2020-11-10_11h08.15.403,torte-q,2020.1.3,Win32,60,14051,1.316915,,,,,,,,,,,,,,,,,,,,,,,,,,,,,,,,,,,,,,,,,,,,
,,,,,,,,,,,,a,Correct!,0,2,2,75,1,t1.png,t1.png,0,0.97829,18,Female,2020-11-10_11h08.15.403,torte-q,2020.1.3,Win32,60,14051,1.353285,,,,,,,,,,,,,,,,,,,,,,,,,,,,,,,,,,,,,,,,,,,,
,,,,,,,,,,,,a,Correct!,0,3,3,95,1,t1.png,t1.png,0,0.978,18,Female,2020-11-10_11h08.15.403,torte-q,2020.1.3,Win32,60,14051,0.80026,,,,,,,,,,,,,,,,,,,,,,,,,,,,,,,,,,,,,,,,,,,,
,,,,,,,,,,,,a,Correct!,0,4,4,81,1,t1.png,t1.png,0,0.97829,18,Female,2020-11-10_11h08.15.403,torte-q,2020.1.3,Win32,60,14051,0.990205,,,,,,,,,,,,,,,,,,,,,,,,,,,,,,,,,,,,,,,,,,,,
,,,,,,,,,,,,l,Correct!,0,5,5,103,1,t3.png,t1.png,2,0.056466,18,Female,2020-11-10_11h08.15.403,torte-q,2020.1.3,Win32,60,14051,1.13433,,,,,,,,,,,,,,,,,,,,,,,,,,,,,,,,,,,,,,,,,,,,
,,,,,,,,,,,,a,Correct!,0,6,6,10,1,t2.png,t3.png,1,0.90855,18,Female,2020-11-10_11h08.15.403,torte-q,2020.1.3,Win32,60,14051,1.450085,,,,,,,,,,,,,,,,,,,,,,,,,,,,,,,,,,,,,,,,,,,,
,,,,,,,,,,,,l,Correct!,0,7,7,86,1,t3.png,t1.png,2,0.056466,18,Female,2020-11-10_11h08.15.403,torte-q,2020.1.3,Win32,60,14051,1.11236,,,,,,,,,,,,,,,,,,,,,,,,,,,,,,,,,,,,,,,,,,,,
,,,,,,,,,,,,l,Incorrect,0,8,8,25,1,t5.png,t5.png,0,0.97829,18,Female,2020-11-10_11h08.15.403,torte-q,2020.1.3,Win32,60,14051,1.89215,,,,,,,,,,,,,,,,,,,,,,,,,,,,,,,,,,,,,,,,,,,,
,,,,,,,,,,,,l,Incorrect,0,9,9,110,1,t4.png,t5.png,1,0.90025,18,Female,2020-11-10_11h08.15.403,torte-q,2020.1.3,Win32,60,14051,1.49061,,,,,,,,,,,,,,,,,,,,,,,,,,,,,,,,,,,,,,,,,,,,
,,,,,,,,,,,,a,Incorrect,0,10,10,1,1,t2.png,t4.png,2,0.059078,18,Female,2020-11-10_11h08.15.403,torte-q,2020.1.3,Win32,60,14051,1.13656,,,,,,,,,,,,,,,,,,,,,,,,,,,,,,,,,,,,,,,,,,,,
,,,,,,,,,,,,l,Incorrect,0,11,11,16,1,t5.png,t4.png,1,0.9,18,Female,2020-11-10_11h08.15.403,torte-q,2020.1.3,Win32,60,14051,1.707075,,,,,,,,,,,,,,,,,,,,,,,,,,,,,,,,,,,,,,,,,,,,
,,,,,,,,,,,,l,Correct!,0,12,12,11,1,t1.png,t4.png,3,0.0000131,18,Female,2020-11-10_11h08.15.403,torte-q,2020.1.3,Win32,60,14051,0.858085,,,,,,,,,,,,,,,,,,,,,,,,,,,,,,,,,,,,,,,,,,,,
,,,,,,,,,,,,l,Correct!,0,13,13,119,1,t1.png,t5.png,4,9.55E-11,18,Female,2020-11-10_11h08.15.403,torte-q,2020.1.3,Win32,60,14051,1.628935,,,,,,,,,,,,,,,,,,,,,,,,,,,,,,,,,,,,,,,,,,,,
,,,,,,,,,,,,l,Incorrect,0,14,14,77,1,t1.png,t1.png,0,0.97829,18,Female,2020-11-10_11h08.15.403,torte-q,2020.1.3,Win32,60,14051,1.14542,,,,,,,,,,,,,,,,,,,,,,,,,,,,,,,,,,,,,,,,,,,,
,,,,,,,,,,,,a,Incorrect,0,15,15,5,1,t2.png,t4.png,2,0.059078,18,Female,2020-11-10_11h08.15.403,torte-q,2020.1.3,Win32,60,14051,1.349695,,,,,,,,,,,,,,,,,,,,,,,,,,,,,,,,,,,,,,,,,,,,
,,,,,,,,,,,,a,Correct!,0,16,16,112,1,t1.png,t1.png,0,0.97829,18,Female,2020-11-10_11h08.15.403,torte-q,2020.1.3,Win32,60,14051,1.289205,,,,,,,,,,,,,,,,,,,,,,,,,,,,,,,,,,,,,,,,,,,,
,,,,,,,,,,,,l,Correct!,0,17,17,53,1,t3.png,t1.png,2,0.056466,18,Female,2020-11-10_11h08.15.403,torte-q,2020.1.3,Win32,60,14051,1.12544,,,,,,,,,,,,,,,,,,,,,,,,,,,,,,,,,,,,,,,,,,,,
,,,,,,,,,,,,l,Correct!,0,18,18,111,1,t5.png,t1.png,4,9.55E-11,18,Female,2020-11-10_11h08.15.403,torte-q,2020.1.3,Win32,60,14051,0.85023,,,,,,,,,,,,,,,,,,,,,,,,,,,,,,,,,,,,,,,,,,,,
,,,,,,,,,,,,a,Incorrect,0,19,19,4,1,t1.png,t5.png,4,9.55E-11,18,Female,2020-11-10_11h08.15.403,torte-q,2020.1.3,Win32,60,14051,0.900385,,,,,,,,,,,,,,,,,,,,,,,,,,,,,,,,,,,,,,,,,,,,
,,,,,,,,,,,,l,Incorrect,0,20,20,118,1,t5.png,t5.png,0,0.978,18,Female,2020-11-10_11h08.15.403,torte-q,2020.1.3,Win32,60,14051,1.273575,,,,,,,,,,,,,,,,,,,,,,,,,,,,,,,,,,,,,,,,,,,,
,,,,,,,,,,,,a,Correct!,0,21,21,64,1,t1.png,t1.png,0,0.978,18,Female,2020-11-10_11h08.15.403,torte-q,2020.1.3,Win32,60,14051,0.980235,,,,,,,,,,,,,,,,,,,,,,,,,,,,,,,,,,,,,,,,,,,,
,,,,,,,,,,,,l,Incorrect,0,22,22,85,1,t3.png,t2.png,1,0.90855,18,Female,2020-11-10_11h08.15.403,torte-q,2020.1.3,Win32,60,14051,1.27059,,,,,,,,,,,,,,,,,,,,,,,,,,,,,,,,,,,,,,,,,,,,
,,,,,,,,,,,,a,Incorrect,0,23,23,3,1,t1.png,t5.png,4,9.55E-11,18,Female,2020-11-10_11h08.15.403,torte-q,2020.1.3,Win32,60,14051,2.17408,,,,,,,,,,,,,,,,,,,,,,,,,,,,,,,,,,,,,,,,,,,,
,,,,,,,,,,,,l,Incorrect,0,24,24,45,1,t3.png,t2.png,1,0.90855,18,Female,2020-11-10_11h08.15.403,torte-q,2020.1.3,Win32,60,14051,1.55011,,,,,,,,,,,,,,,,,,,,,,,,,,,,,,,,,,,,,,,,,,,,
,,,,,,,,,,,,a,Correct!,0,25,25,107,1,t1.png,t1.png,0,0.978,18,Female,2020-11-10_11h08.15.403,torte-q,2020.1.3,Win32,60,14051,0.936565,,,,,,,,,,,,,,,,,,,,,,,,,,,,,,,,,,,,,,,,,,,,
,,,,,,,,,,,,a,Correct!,0,26,26,48,1,t5.png,t5.png,0,0.97829,18,Female,2020-11-10_11h08.15.403,torte-q,2020.1.3,Win32,60,14051,1.295805,,,,,,,,,,,,,,,,,,,,,,,,,,,,,,,,,,,,,,,,,,,,
,,,,,,,,,,,,l,Incorrect,0,27,27,7,1,t4.png,t5.png,1,0.90025,18,Female,2020-11-10_11h08.15.403,torte-q,2020.1.3,Win32,60,14051,1.56743,,,,,,,,,,,,,,,,,,,,,,,,,,,,,,,,,,,,,,,,,,,,
,,,,,,,,,,,,a,Incorrect,0,28,28,57,1,t2.png,t4.png,2,0.059078,18,Female,2020-11-10_11h08.15.403,torte-q,2020.1.3,Win32,60,14051,2.02925,,,,,,,,,,,,,,,,,,,,,,,,,,,,,,,,,,,,,,,,,,,,
,,,,,,,,,,,,a,Correct!,0,29,29,109,1,t5.png,t5.png,0,0.97829,18,Female,2020-11-10_11h08.15.403,torte-q,2020.1.3,Win32,60,14051,1.06836,,,,,,,,,,,,,,,,,,,,,,,,,,,,,,,,,,,,,,,,,,,,
,,,,,,,,,,,,a,Incorrect,0,30,30,37,1,t1.png,t4.png,3,0.0000131,18,Female,2020-11-10_11h08.15.403,torte-q,2020.1.3,Win32,60,14051,1.43449,,,,,,,,,,,,,,,,,,,,,,,,,,,,,,,,,,,,,,,,,,,,
,,,,,,,,,,,,a,Incorrect,0,31,31,65,1,t4.png,t5.png,1,0.90025,18,Female,2020-11-10_11h08.15.403,torte-q,2020.1.3,Win32,60,14051,1.43903,,,,,,,,,,,,,,,,,,,,,,,,,,,,,,,,,,,,,,,,,,,,
,,,,,,,,,,,,l,Correct!,0,32,32,9,1,t4.png,t5.png,1,0.9,18,Female,2020-11-10_11h08.15.403,torte-q,2020.1.3,Win32,60,14051,0.946195,,,,,,,,,,,,,,,,,,,,,,,,,,,,,,,,,,,,,,,,,,,,
,,,,,,,,,,,,a,Incorrect,0,33,33,89,1,t1.png,t4.png,3,0.0000131,18,Female,2020-11-10_11h08.15.403,torte-q,2020.1.3,Win32,60,14051,1.57233,,,,,,,,,,,,,,,,,,,,,,,,,,,,,,,,,,,,,,,,,,,,
,,,,,,,,,,,,a,Incorrect,0,34,34,73,1,t4.png,t2.png,2,0.059078,18,Female,2020-11-10_11h08.15.403,torte-q,2020.1.3,Win32,60,14051,1.39169,,,,,,,,,,,,,,,,,,,,,,,,,,,,,,,,,,,,,,,,,,,,
,,,,,,,,,,,,a,Incorrect,0,35,35,31,1,t1.png,t5.png,4,9.55E-11,18,Female,2020-11-10_11h08.15.403,torte-q,2020.1.3,Win32,60,14051,1.5166,,,,,,,,,,,,,,,,,,,,,,,,,,,,,,,,,,,,,,,,,,,,
,,,,,,,,,,,,l,Incorrect,0,36,36,42,1,t5.png,t4.png,1,0.90025,18,Female,2020-11-10_11h08.15.403,torte-q,2020.1.3,Win32,60,14051,1.438445,,,,,,,,,,,,,,,,,,,,,,,,,,,,,,,,,,,,,,,,,,,,
,,,,,,,,,,,,a,Incorrect,0,37,37,68,1,t1.png,t4.png,3,0.0000131,18,Female,2020-11-10_11h08.15.403,torte-q,2020.1.3,Win32,60,14051,1.307265,,,,,,,,,,,,,,,,,,,,,,,,,,,,,,,,,,,,,,,,,,,,
,,,,,,,,,,,,a,Incorrect,0,38,38,108,1,t5.png,t1.png,4,9.55E-11,18,Female,2020-11-10_11h08.15.403,torte-q,2020.1.3,Win32,60,14051,1.531275,,,,,,,,,,,,,,,,,,,,,,,,,,,,,,,,,,,,,,,,,,,,
,,,,,,,,,,,,l,Incorrect,0,39,39,8,1,t3.png,t2.png,1,0.90855,18,Female,2020-11-10_11h08.15.403,torte-q,2020.1.3,Win32,60,14051,1.218285,,,,,,,,,,,,,,,,,,,,,,,,,,,,,,,,,,,,,,,,,,,,
,,,,,,,,,,,,a,Incorrect,0,40,40,72,1,t4.png,t2.png,2,0.059078,18,Female,2020-11-10_11h08.15.403,torte-q,2020.1.3,Win32,60,14051,1.51679,,,,,,,,,,,,,,,,,,,,,,,,,,,,,,,,,,,,,,,,,,,,
,,,,,,,,,,,,l,Correct!,0,41,41,90,1,t1.png,t5.png,4,9.55E-11,18,Female,2020-11-10_11h08.15.403,torte-q,2020.1.3,Win32,60,14051,1.470895,,,,,,,,,,,,,,,,,,,,,,,,,,,,,,,,,,,,,,,,,,,,
,,,,,,,,,,,,l,Correct!,0,42,42,18,1,t4.png,t5.png,1,0.90025,18,Female,2020-11-10_11h08.15.403,torte-q,2020.1.3,Win32,60,14051,1.285325,,,,,,,,,,,,,,,,,,,,,,,,,,,,,,,,,,,,,,,,,,,,
,,,,,,,,,,,,l,Correct!,0,43,43,14,1,t2.png,t4.png,2,0.059078,18,Female,2020-11-10_11h08.15.403,torte-q,2020.1.3,Win32,60,14051,1.463885,,,,,,,,,,,,,,,,,,,,,,,,,,,,,,,,,,,,,,,,,,,,
,,,,,,,,,,,,l,Incorrect,0,44,44,22,1,t2.png,t3.png,1,0.90855,18,Female,2020-11-10_11h08.15.403,torte-q,2020.1.3,Win32,60,14051,1.25031,,,,,,,,,,,,,,,,,,,,,,,,,,,,,,,,,,,,,,,,,,,,
,,,,,,,,,,,,a,Correct!,0,45,45,20,1,t2.png,t3.png,1,0.90855,18,Female,2020-11-10_11h08.15.403,torte-q,2020.1.3,Win32,60,14051,1.083745,,,,,,,,,,,,,,,,,,,,,,,,,,,,,,,,,,,,,,,,,,,,
,,,,,,,,,,,,l,Incorrect,0,46,46,34,1,t5.png,t4.png,1,0.9,18,Female,2020-11-10_11h08.15.403,torte-q,2020.1.3,Win32,60,14051,2.052545,,,,,,,,,,,,,,,,,,,,,,,,,,,,,,,,,,,,,,,,,,,,
,,,,,,,,,,,,a,Incorrect,0,47,47,12,1,t5.png,t1.png,4,9.55E-11,18,Female,2020-11-10_11h08.15.403,torte-q,2020.1.3,Win32,60,14051,1.794395,,,,,,,,,,,,,,,,,,,,,,,,,,,,,,,,,,,,,,,,,,,,
,,,,,,,,,,,,l,Correct!,0,48,48,46,1,t4.png,t2.png,2,0.059078,18,Female,2020-11-10_11h08.15.403,torte-q,2020.1.3,Win32,60,14051,1.100405,,,,,,,,,,,,,,,,,,,,,,,,,,,,,,,,,,,,,,,,,,,,
,,,,,,,,,,,,a,Correct!,0,49,49,23,1,t5.png,t4.png,1,0.90025,18,Female,2020-11-10_11h08.15.403,torte-q,2020.1.3,Win32,60,14051,0.757685,,,,,,,,,,,,,,,,,,,,,,,,,,,,,,,,,,,,,,,,,,,,
,,,,,,,,,,,,l,Correct!,0,50,50,26,1,t4.png,t2.png,2,0.0591,18,Female,2020-11-10_11h08.15.403,torte-q,2020.1.3,Win32,60,14051,0.650475,,,,,,,,,,,,,,,,,,,,,,,,,,,,,,,,,,,,,,,,,,,,
,,,,,,,,,,,,l,Correct!,0,51,51,19,1,t4.png,t2.png,2,0.059078,18,Female,2020-11-10_11h08.15.403,torte-q,2020.1.3,Win32,60,14051,1.02894,,,,,,,,,,,,,,,,,,,,,,,,,,,,,,,,,,,,,,,,,,,,
,,,,,,,,,,,,a,Incorrect,0,52,52,94,1,t5.png,t1.png,4,9.55E-11,18,Female,2020-11-10_11h08.15.403,torte-q,2020.1.3,Win32,60,14051,0.683785,,,,,,,,,,,,,,,,,,,,,,,,,,,,,,,,,,,,,,,,,,,,
,,,,,,,,,,,,l,Incorrect,0,53,53,76,1,t3.png,t2.png,1,0.90855,18,Female,2020-11-10_11h08.15.403,torte-q,2020.1.3,Win32,60,14051,0.533735,,,,,,,,,,,,,,,,,,,,,,,,,,,,,,,,,,,,,,,,,,,,
,,,,,,,,,,,,a,Incorrect,0,54,54,30,1,t3.png,t1.png,2,0.056466,18,Female,2020-11-10_11h08.15.403,torte-q,2020.1.3,Win32,60,14051,1.353795,,,,,,,,,,,,,,,,,,,,,,,,,,,,,,,,,,,,,,,,,,,,
,,,,,,,,,,,,a,Incorrect,0,55,55,33,1,t5.png,t1.png,4,9.55E-11,18,Female,2020-11-10_11h08.15.403,torte-q,2020.1.3,Win32,60,14051,1.725245,,,,,,,,,,,,,,,,,,,,,,,,,,,,,,,,,,,,,,,,,,,,
,,,,,,,,,,,,l,Incorrect,0,56,56,29,1,t5.png,t5.png,0,0.97829,18,Female,2020-11-10_11h08.15.403,torte-q,2020.1.3,Win32,60,14051,1.104575,,,,,,,,,,,,,,,,,,,,,,,,,,,,,,,,,,,,,,,,,,,,
,,,,,,,,,,,,a,Correct!,0,57,57,21,1,t5.png,t4.png,1,0.90025,18,Female,2020-11-10_11h08.15.403,torte-q,2020.1.3,Win32,60,14051,1.426805,,,,,,,,,,,,,,,,,,,,,,,,,,,,,,,,,,,,,,,,,,,,
,,,,,,,,,,,,l,Incorrect,0,58,58,63,1,t2.png,t3.png,1,0.909,18,Female,2020-11-10_11h08.15.403,torte-q,2020.1.3,Win32,60,14051,1.13729,,,,,,,,,,,,,,,,,,,,,,,,,,,,,,,,,,,,,,,,,,,,
,,,,,,,,,,,,l,Incorrect,0,59,59,39,1,t3.png,t2.png,1,0.90855,18,Female,2020-11-10_11h08.15.403,torte-q,2020.1.3,Win32,60,14051,1.53524,,,,,,,,,,,,,,,,,,,,,,,,,,,,,,,,,,,,,,,,,,,,
,,,,,,,,,,,,l,Incorrect,0,60,60,49,1,t4.png,t5.png,1,0.9,18,Female,2020-11-10_11h08.15.403,torte-q,2020.1.3,Win32,60,14051,1.30466,,,,,,,,,,,,,,,,,,,,,,,,,,,,,,,,,,,,,,,,,,,,
,,,,,,,,,,,,a,Correct!,0,61,61,96,1,t1.png,t1.png,0,0.97829,18,Female,2020-11-10_11h08.15.403,torte-q,2020.1.3,Win32,60,14051,1.036855,,,,,,,,,,,,,,,,,,,,,,,,,,,,,,,,,,,,,,,,,,,,
,,,,,,,,,,,,a,Correct!,0,62,62,92,1,t2.png,t3.png,1,0.909,18,Female,2020-11-10_11h08.15.403,torte-q,2020.1.3,Win32,60,14051,1.559605,,,,,,,,,,,,,,,,,,,,,,,,,,,,,,,,,,,,,,,,,,,,
,,,,,,,,,,,,a,Incorrect,0,63,63,52,1,t2.png,t4.png,2,0.059078,18,Female,2020-11-10_11h08.15.403,torte-q,2020.1.3,Win32,60,14051,1.58006,,,,,,,,,,,,,,,,,,,,,,,,,,,,,,,,,,,,,,,,,,,,
,,,,,,,,,,,,a,Incorrect,0,64,64,117,1,t1.png,t5.png,4,9.55E-11,18,Female,2020-11-10_11h08.15.403,torte-q,2020.1.3,Win32,60,14051,1.317915,,,,,,,,,,,,,,,,,,,,,,,,,,,,,,,,,,,,,,,,,,,,
,,,,,,,,,,,,a,Incorrect,0,65,65,115,1,t2.png,t4.png,2,0.059078,18,Female,2020-11-10_11h08.15.403,torte-q,2020.1.3,Win32,60,14051,1.58356,,,,,,,,,,,,,,,,,,,,,,,,,,,,,,,,,,,,,,,,,,,,
,,,,,,,,,,,,l,Correct!,0,66,66,38,1,t3.png,t1.png,2,0.056466,18,Female,2020-11-10_11h08.15.403,torte-q,2020.1.3,Win32,60,14051,1.161785,,,,,,,,,,,,,,,,,,,,,,,,,,,,,,,,,,,,,,,,,,,,
,,,,,,,,,,,,l,Incorrect,0,67,67,44,1,t2.png,t3.png,1,0.909,18,Female,2020-11-10_11h08.15.403,torte-q,2020.1.3,Win32,60,14051,0.79221,,,,,,,,,,,,,,,,,,,,,,,,,,,,,,,,,,,,,,,,,,,,
,,,,,,,,,,,,l,Correct!,0,68,68,83,1,t3.png,t1.png,2,0.056466,18,Female,2020-11-10_11h08.15.403,torte-q,2020.1.3,Win32,60,14051,1.03381,,,,,,,,,,,,,,,,,,,,,,,,,,,,,,,,,,,,,,,,,,,,
,,,,,,,,,,,,a,Correct!,0,69,69,41,1,t3.png,t2.png,1,0.90855,18,Female,2020-11-10_11h08.15.403,torte-q,2020.1.3,Win32,60,14051,1.534295,,,,,,,,,,,,,,,,,,,,,,,,,,,,,,,,,,,,,,,,,,,,
,,,,,,,,,,,,l,Incorrect,0,70,70,104,1,t2.png,t3.png,1,0.90855,18,Female,2020-11-10_11h08.15.403,torte-q,2020.1.3,Win32,60,14051,1.4499,,,,,,,,,,,,,,,,,,,,,,,,,,,,,,,,,,,,,,,,,,,,
,,,,,,,,,,,,a,Incorrect,0,71,71,60,1,t2.png,t4.png,2,0.059078,18,Female,2020-11-10_11h08.15.403,torte-q,2020.1.3,Win32,60,14051,0.876835,,,,,,,,,,,,,,,,,,,,,,,,,,,,,,,,,,,,,,,,,,,,
,,,,,,,,,,,,l,Incorrect,0,72,72,32,1,t4.png,t5.png,1,0.90025,18,Female,2020-11-10_11h08.15.403,torte-q,2020.1.3,Win32,60,14051,1.791625,,,,,,,,,,,,,,,,,,,,,,,,,,,,,,,,,,,,,,,,,,,,
,,,,,,,,,,,,l,Correct!,0,73,73,87,1,t5.png,t1.png,4,9.55E-11,18,Female,2020-11-10_11h08.15.403,torte-q,2020.1.3,Win32,60,14051,1.053235,,,,,,,,,,,,,,,,,,,,,,,,,,,,,,,,,,,,,,,,,,,,
,,,,,,,,,,,,a,Incorrect,0,74,74,27,1,t3.png,t1.png,2,0.0565,18,Female,2020-11-10_11h08.15.403,torte-q,2020.1.3,Win32,60,14051,1.55965,,,,,,,,,,,,,,,,,,,,,,,,,,,,,,,,,,,,,,,,,,,,
,,,,,,,,,,,,a,Correct!,0,75,75,78,1,t1.png,t1.png,0,0.978,18,Female,2020-11-10_11h08.15.403,torte-q,2020.1.3,Win32,60,14051,0.91554,,,,,,,,,,,,,,,,,,,,,,,,,,,,,,,,,,,,,,,,,,,,
,,,,,,,,,,,,l,Incorrect,0,76,76,105,1,t3.png,t2.png,1,0.90855,18,Female,2020-11-10_11h08.15.403,torte-q,2020.1.3,Win32,60,14051,2.03212,,,,,,,,,,,,,,,,,,,,,,,,,,,,,,,,,,,,,,,,,,,,
,,,,,,,,,,,,a,Incorrect,0,77,77,82,1,t5.png,t1.png,4,9.55E-11,18,Female,2020-11-10_11h08.15.403,torte-q,2020.1.3,Win32,60,14051,1.068725,,,,,,,,,,,,,,,,,,,,,,,,,,,,,,,,,,,,,,,,,,,,
,,,,,,,,,,,,a,Incorrect,0,78,78,54,1,t1.png,t5.png,4,9.55E-11,18,Female,2020-11-10_11h08.15.403,torte-q,2020.1.3,Win32,60,14051,2.23216,,,,,,,,,,,,,,,,,,,,,,,,,,,,,,,,,,,,,,,,,,,,
,,,,,,,,,,,,l,Incorrect,0,79,79,79,1,t3.png,t2.png,1,0.909,18,Female,2020-11-10_11h08.15.403,torte-q,2020.1.3,Win32,60,14051,2.060535,,,,,,,,,,,,,,,,,,,,,,,,,,,,,,,,,,,,,,,,,,,,
,,,,,,,,,,,,l,Correct!,0,80,80,17,1,t1.png,t4.png,3,0.0000131,18,Female,2020-11-10_11h08.15.403,torte-q,2020.1.3,Win32,60,14051,2.149025,,,,,,,,,,,,,,,,,,,,,,,,,,,,,,,,,,,,,,,,,,,,
,,,,,,,,,,,,a,Correct!,0,81,81,84,1,t1.png,t1.png,0,0.97829,18,Female,2020-11-10_11h08.15.403,torte-q,2020.1.3,Win32,60,14051,0.80274,,,,,,,,,,,,,,,,,,,,,,,,,,,,,,,,,,,,,,,,,,,,
,,,,,,,,,,,,a,Correct!,0,82,82,47,1,t4.png,t2.png,2,0.059078,18,Female,2020-11-10_11h08.15.403,torte-q,2020.1.3,Win32,60,14051,1.22286,,,,,,,,,,,,,,,,,,,,,,,,,,,,,,,,,,,,,,,,,,,,
,,,,,,,,,,,,a,Incorrect,0,83,83,43,1,t4.png,t2.png,2,0.059078,18,Female,2020-11-10_11h08.15.403,torte-q,2020.1.3,Win32,60,14051,1.4768,,,,,,,,,,,,,,,,,,,,,,,,,,,,,,,,,,,,,,,,,,,,
,,,,,,,,,,,,,Too slow :(,0,84,84,88,1,t3.png,t1.png,2,0.056466,18,Female,2020-11-10_11h08.15.403,torte-q,2020.1.3,Win32,60,14051,,,,,,,,,,,,,,,,,,,,,,,,,,,,,,,,,,,,,,,,,,,,,
,,,,,,,,,,,,l,Correct!,0,85,85,51,1,t3.png,t1.png,2,0.056466,18,Female,2020-11-10_11h08.15.403,torte-q,2020.1.3,Win32,60,14051,0.81555,,,,,,,,,,,,,,,,,,,,,,,,,,,,,,,,,,,,,,,,,,,,
,,,,,,,,,,,,a,Incorrect,0,86,86,55,1,t2.png,t4.png,2,0.059078,18,Female,2020-11-10_11h08.15.403,torte-q,2020.1.3,Win32,60,14051,1.72051,,,,,,,,,,,,,,,,,,,,,,,,,,,,,,,,,,,,,,,,,,,,
,,,,,,,,,,,,,Too slow :(,0,87,87,101,1,t4.png,t5.png,1,0.90025,18,Female,2020-11-10_11h08.15.403,torte-q,2020.1.3,Win32,60,14051,,,,,,,,,,,,,,,,,,,,,,,,,,,,,,,,,,,,,,,,,,,,,
,,,,,,,,,,,,a,Correct!,0,88,88,97,1,t5.png,t5.png,0,0.97829,18,Female,2020-11-10_11h08.15.403,torte-q,2020.1.3,Win32,60,14051,1.03379,,,,,,,,,,,,,,,,,,,,,,,,,,,,,,,,,,,,,,,,,,,,
,,,,,,,,,,,,l,Correct!,0,89,89,80,1,t1.png,t4.png,3,0.0000131,18,Female,2020-11-10_11h08.15.403,torte-q,2020.1.3,Win32,60,14051,1.57435,,,,,,,,,,,,,,,,,,,,,,,,,,,,,,,,,,,,,,,,,,,,
,,,,,,,,,,,,a,Correct!,0,90,90,114,1,t2.png,t3.png,1,0.90855,18,Female,2020-11-10_11h08.15.403,torte-q,2020.1.3,Win32,60,14051,1.641655,,,,,,,,,,,,,,,,,,,,,,,,,,,,,,,,,,,,,,,,,,,,
,,,,,,,,,,,,a,Incorrect,0,91,91,24,1,t4.png,t2.png,2,0.059078,18,Female,2020-11-10_11h08.15.403,torte-q,2020.1.3,Win32,60,14051,1.057405,,,,,,,,,,,,,,,,,,,,,,,,,,,,,,,,,,,,,,,,,,,,
,,,,,,,,,,,,l,Incorrect,0,92,92,100,1,t4.png,t5.png,1,0.90025,18,Female,2020-11-10_11h08.15.403,torte-q,2020.1.3,Win32,60,14051,2.29906,,,,,,,,,,,,,,,,,,,,,,,,,,,,,,,,,,,,,,,,,,,,
,,,,,,,,,,,,a,Correct!,0,93,93,70,1,t5.png,t5.png,0,0.978,18,Female,2020-11-10_11h08.15.403,torte-q,2020.1.3,Win32,60,14051,1.16794,,,,,,,,,,,,,,,,,,,,,,,,,,,,,,,,,,,,,,,,,,,,
,,,,,,,,,,,,a,Incorrect,0,94,94,50,1,t5.png,t1.png,4,9.55E-11,18,Female,2020-11-10_11h08.15.403,torte-q,2020.1.3,Win32,60,14051,1.32766,,,,,,,,,,,,,,,,,,,,,,,,,,,,,,,,,,,,,,,,,,,,
,,,,,,,,,,,,l,Correct!,0,95,95,99,1,t1.png,t5.png,4,9.55E-11,18,Female,2020-11-10_11h08.15.403,torte-q,2020.1.3,Win32,60,14051,1.327515,,,,,,,,,,,,,,,,,,,,,,,,,,,,,,,,,,,,,,,,,,,,
,,,,,,,,,,,,a,Incorrect,0,96,96,91,1,t1.png,t4.png,3,0.0000131,18,Female,2020-11-10_11h08.15.403,torte-q,2020.1.3,Win32,60,14051,2.420895,,,,,,,,,,,,,,,,,,,,,,,,,,,,,,,,,,,,,,,,,,,,
,,,,,,,,,,,,,Too slow :(,0,97,97,15,1,t3.png,t2.png,1,0.90855,18,Female,2020-11-10_11h08.15.403,torte-q,2020.1.3,Win32,60,14051,,,,,,,,,,,,,,,,,,,,,,,,,,,,,,,,,,,,,,,,,,,,,
,,,,,,,,,,,,a,Correct!,0,98,98,116,1,t5.png,t4.png,1,0.90025,18,Female,2020-11-10_11h08.15.403,torte-q,2020.1.3,Win32,60,14051,2.17474,,,,,,,,,,,,,,,,,,,,,,,,,,,,,,,,,,,,,,,,,,,,
,,,,,,,,,,,,a,Correct!,0,99,99,13,1,t5.png,t5.png,0,0.97829,18,Female,2020-11-10_11h08.15.403,torte-q,2020.1.3,Win32,60,14051,1.157605,,,,,,,,,,,,,,,,,,,,,,,,,,,,,,,,,,,,,,,,,,,,
,,,,,,,,,,,,a,Correct!,0,100,100,62,1,t5.png,t5.png,0,0.978,18,Female,2020-11-10_11h08.15.403,torte-q,2020.1.3,Win32,60,14051,1.282565,,,,,,,,,,,,,,,,,,,,,,,,,,,,,,,,,,,,,,,,,,,,
,,,,,,,,,,,,l,Incorrect,0,101,101,66,1,t4.png,t5.png,1,0.9,18,Female,2020-11-10_11h08.15.403,torte-q,2020.1.3,Win32,60,14051,2.12365,,,,,,,,,,,,,,,,,,,,,,,,,,,,,,,,,,,,,,,,,,,,
,,,,,,,,,,,,,Too slow :(,0,102,102,28,1,t2.png,t3.png,1,0.909,18,Female,2020-11-10_11h08.15.403,torte-q,2020.1.3,Win32,60,14051,,,,,,,,,,,,,,,,,,,,,,,,,,,,,,,,,,,,,,,,,,,,,
,,,,,,,,,,,,a,Incorrect,0,103,103,69,1,t4.png,t2.png,2,0.059078,18,Female,2020-11-10_11h08.15.403,torte-q,2020.1.3,Win32,60,14051,1.875855,,,,,,,,,,,,,,,,,,,,,,,,,,,,,,,,,,,,,,,,,,,,
,,,,,,,,,,,,a,Incorrect,0,104,104,35,1,t1.png,t4.png,3,0.0000131,18,Female,2020-11-10_11h08.15.403,torte-q,2020.1.3,Win32,60,14051,1.57547,,,,,,,,,,,,,,,,,,,,,,,,,,,,,,,,,,,,,,,,,,,,
,,,,,,,,,,,,l,Correct!,0,105,105,6,1,t1.png,t4.png,3,0.0000131,18,Female,2020-11-10_11h08.15.403,torte-q,2020.1.3,Win32,60,14051,2.11464,,,,,,,,,,,,,,,,,,,,,,,,,,,,,,,,,,,,,,,,,,,,
,,,,,,,,,,,,l,Correct!,0,106,106,93,1,t2.png,t4.png,2,0.059078,18,Female,2020-11-10_11h08.15.403,torte-q,2020.1.3,Win32,60,14051,1.784655,,,,,,,,,,,,,,,,,,,,,,,,,,,,,,,,,,,,,,,,,,,,
,,,,,,,,,,,,a,Correct!,0,107,107,74,1,t5.png,t4.png,1,0.9,18,Female,2020-11-10_11h08.15.403,torte-q,2020.1.3,Win32,60,14051,1.741485,,,,,,,,,,,,,,,,,,,,,,,,,,,,,,,,,,,,,,,,,,,,
,,,,,,,,,,,,l,Correct!,0,108,108,0,1,t5.png,t1.png,4,9.55E-11,18,Female,2020-11-10_11h08.15.403,torte-q,2020.1.3,Win32,60,14051,1.706135,,,,,,,,,,,,,,,,,,,,,,,,,,,,,,,,,,,,,,,,,,,,
,,,,,,,,,,,,a,Incorrect,0,109,109,40,1,t1.png,t5.png,4,9.55E-11,18,Female,2020-11-10_11h08.15.403,torte-q,2020.1.3,Win32,60,14051,2.120965,,,,,,,,,,,,,,,,,,,,,,,,,,,,,,,,,,,,,,,,,,,,
,,,,,,,,,,,,l,Incorrect,0,110,110,106,1,t2.png,t3.png,1,0.90855,18,Female,2020-11-10_11h08.15.403,torte-q,2020.1.3,Win32,60,14051,2.199155,,,,,,,,,,,,,,,,,,,,,,,,,,,,,,,,,,,,,,,,,,,,
,,,,,,,,,,,,a,Incorrect,0,111,111,102,1,t4.png,t2.png,2,0.059078,18,Female,2020-11-10_11h08.15.403,torte-q,2020.1.3,Win32,60,14051,1.8325,,,,,,,,,,,,,,,,,,,,,,,,,,,,,,,,,,,,,,,,,,,,
,,,,,,,,,,,,l,Incorrect,0,112,112,59,1,t5.png,t4.png,1,0.9,18,Female,2020-11-10_11h08.15.403,torte-q,2020.1.3,Win32,60,14051,1.88732,,,,,,,,,,,,,,,,,,,,,,,,,,,,,,,,,,,,,,,,,,,,
,,,,,,,,,,,,a,Incorrect,0,113,113,58,1,t5.png,t4.png,1,0.90025,18,Female,2020-11-10_11h08.15.403,torte-q,2020.1.3,Win32,60,14051,0.9888,,,,,,,,,,,,,,,,,,,,,,,,,,,,,,,,,,,,,,,,,,,,
,,,,,,,,,,,,l,Correct!,0,114,114,2,1,t3.png,t2.png,1,0.90855,18,Female,2020-11-10_11h08.15.403,torte-q,2020.1.3,Win32,60,14051,2.367775,,,,,,,,,,,,,,,,,,,,,,,,,,,,,,,,,,,,,,,,,,,,
,,,,,,,,,,,,l,Incorrect,0,115,115,113,1,t5.png,t4.png,1,0.9,18,Female,2020-11-10_11h08.15.403,torte-q,2020.1.3,Win32,60,14051,1.66049,,,,,,,,,,,,,,,,,,,,,,,,,,,,,,,,,,,,,,,,,,,,
,,,,,,,,,,,,a,Incorrect,0,116,116,67,1,t1.png,t5.png,4,9.55E-11,18,Female,2020-11-10_11h08.15.403,torte-q,2020.1.3,Win32,60,14051,1.33976,,,,,,,,,,,,,,,,,,,,,,,,,,,,,,,,,,,,,,,,,,,,
,,,,,,,,,,,,l,Correct!,0,117,117,98,1,t2.png,t4.png,2,0.0591,18,Female,2020-11-10_11h08.15.403,torte-q,2020.1.3,Win32,60,14051,2.141795,,,,,,,,,,,,,,,,,,,,,,,,,,,,,,,,,,,,,,,,,,,,
,,,,,,,,,,,,a,Correct!,0,118,118,71,1,t5.png,t5.png,0,0.97829,18,Female,2020-11-10_11h08.15.403,torte-q,2020.1.3,Win32,60,14051,1.10533,,,,,,,,,,,,,,,,,,,,,,,,,,,,,,,,,,,,,,,,,,,,
,,,,,,,,,,,,l,Correct!,0,119,119,56,1,t5.png,t1.png,4,9.55E-11,18,Female,2020-11-10_11h08.15.403,torte-q,2020.1.3,Win32,60,14051,1.32086,,,,,,,,,,,,,,,,,,,,,,,,,,,,,,,,,,,,,,,,,,,,
,,,,,,,,,,,,a,Incorrect,,,,,,t5.png,t1.png,4,9.55E-11,18,Female,2020-11-10_11h08.15.403,torte-q,2020.1.3,Win32,60,14051,0.95955,space,2.60582,space,1.8794,0,0,0,102,1,,,,,,,,,,,,,,,,,,,,,,,,,,,,,,,,,,,
,,,,,,,,,,,,l,Correct!,,,,,,t4.png,t1.png,3,0.0000131,18,Female,2020-11-10_11h08.15.403,torte-q,2020.1.3,Win32,60,14051,1.42539,,,,,0,1,1,13,1,,,,,,,,,,,,,,,,,,,,,,,,,,,,,,,,,,,
,,,,,,,,,,,,l,Correct!,,,,,,t1.png,t3.png,2,0.056466,18,Female,2020-11-10_11h08.15.403,torte-q,2020.1.3,Win32,60,14051,1.52251,,,,,0,2,2,87,1,,,,,,,,,,,,,,,,,,,,,,,,,,,,,,,,,,,
,,,,,,,,,,,,l,Incorrect,,,,,,t4.png,t5.png,1,0.90025,18,Female,2020-11-10_11h08.15.403,torte-q,2020.1.3,Win32,60,14051,2.15983,,,,,0,3,3,103,1,,,,,,,,,,,,,,,,,,,,,,,,,,,,,,,,,,,
,,,,,,,,,,,,a,Incorrect,,,,,,t4.png,t3.png,1,0.90855,18,Female,2020-11-10_11h08.15.403,torte-q,2020.1.3,Win32,60,14051,2.13395,,,,,0,4,4,45,1,,,,,,,,,,,,,,,,,,,,,,,,,,,,,,,,,,,
,,,,,,,,,,,,a,Correct!,,,,,,t5.png,t4.png,1,0.90025,18,Female,2020-11-10_11h08.15.403,torte-q,2020.1.3,Win32,60,14051,1.284625,,,,,0,5,5,27,1,,,,,,,,,,,,,,,,,,,,,,,,,,,,,,,,,,,
,,,,,,,,,,,,a,Incorrect,,,,,,t5.png,t3.png,2,0.056466,18,Female,2020-11-10_11h08.15.403,torte-q,2020.1.3,Win32,60,14051,1.00594,,,,,0,6,6,56,1,,,,,,,,,,,,,,,,,,,,,,,,,,,,,,,,,,,
,,,,,,,,,,,,a,Incorrect,,,,,,t1.png,t2.png,1,0.9,18,Female,2020-11-10_11h08.15.403,torte-q,2020.1.3,Win32,60,14051,1.982125,,,,,0,7,7,1,1,,,,,,,,,,,,,,,,,,,,,,,,,,,,,,,,,,,
,,,,,,,,,,,,l,Incorrect,,,,,,t2.png,t1.png,1,0.90025,18,Female,2020-11-10_11h08.15.403,torte-q,2020.1.3,Win32,60,14051,0.85691,,,,,0,8,8,5,1,,,,,,,,,,,,,,,,,,,,,,,,,,,,,,,,,,,
,,,,,,,,,,,,a,Correct!,,,,,,t5.png,t4.png,1,0.9,18,Female,2020-11-10_11h08.15.403,torte-q,2020.1.3,Win32,60,14051,1.341535,,,,,0,9,9,76,1,,,,,,,,,,,,,,,,,,,,,,,,,,,,,,,,,,,
,,,,,,,,,,,,l,Correct!,,,,,,t1.png,t4.png,3,0.0000131,18,Female,2020-11-10_11h08.15.403,torte-q,2020.1.3,Win32,60,14051,1.501605,,,,,0,10,10,107,1,,,,,,,,,,,,,,,,,,,,,,,,,,,,,,,,,,,
,,,,,,,,,,,,a,Incorrect,,,,,,t4.png,t2.png,2,0.059078,18,Female,2020-11-10_11h08.15.403,torte-q,2020.1.3,Win32,60,14051,2.06576,,,,,0,11,11,109,1,,,,,,,,,,,,,,,,,,,,,,,,,,,,,,,,,,,
,,,,,,,,,,,,l,Correct!,,,,,,t4.png,t1.png,3,0.0000131,18,Female,2020-11-10_11h08.15.403,torte-q,2020.1.3,Win32,60,14051,1.55596,,,,,0,12,12,48,1,,,,,,,,,,,,,,,,,,,,,,,,,,,,,,,,,,,
,,,,,,,,,,,,l,Correct!,,,,,,t4.png,t2.png,2,0.059078,18,Female,2020-11-10_11h08.15.403,torte-q,2020.1.3,Win32,60,14051,1.050535,,,,,0,13,13,110,1,,,,,,,,,,,,,,,,,,,,,,,,,,,,,,,,,,,
,,,,,,,,,,,,a,Incorrect,,,,,,t3.png,t5.png,2,0.0565,18,Female,2020-11-10_11h08.15.403,torte-q,2020.1.3,Win32,60,14051,2.057155,,,,,0,14,14,30,1,,,,,,,,,,,,,,,,,,,,,,,,,,,,,,,,,,,
,,,,,,,,,,,,l,Correct!,,,,,,t5.png,t1.png,4,9.55E-11,18,Female,2020-11-10_11h08.15.403,torte-q,2020.1.3,Win32,60,14051,1.10159,,,,,0,15,15,100,1,,,,,,,,,,,,,,,,,,,,,,,,,,,,,,,,,,,
,,,,,,,,,,,,a,Incorrect,,,,,,t1.png,t3.png,2,0.056466,18,Female,2020-11-10_11h08.15.403,torte-q,2020.1.3,Win32,60,14051,0.859185,,,,,0,16,16,99,1,,,,,,,,,,,,,,,,,,,,,,,,,,,,,,,,,,,
,,,,,,,,,,,,a,Correct!,,,,,,t1.png,t1.png,0,0.97829,18,Female,2020-11-10_11h08.15.403,torte-q,2020.1.3,Win32,60,14051,1.843595,,,,,0,17,17,9,1,,,,,,,,,,,,,,,,,,,,,,,,,,,,,,,,,,,
,,,,,,,,,,,,a,Correct!,,,,,,t4.png,t4.png,0,0.98115,18,Female,2020-11-10_11h08.15.403,torte-q,2020.1.3,Win32,60,14051,2.02381,,,,,0,18,18,52,1,,,,,,,,,,,,,,,,,,,,,,,,,,,,,,,,,,,
,,,,,,,,,,,,a,Correct!,,,,,,t4.png,t4.png,0,0.98115,18,Female,2020-11-10_11h08.15.403,torte-q,2020.1.3,Win32,60,14051,0.804495,,,,,0,19,19,90,1,,,,,,,,,,,,,,,,,,,,,,,,,,,,,,,,,,,
,,,,,,,,,,,,l,Correct!,,,,,,t4.png,t1.png,3,0.0000131,18,Female,2020-11-10_11h08.15.403,torte-q,2020.1.3,Win32,60,14051,1.09998,,,,,0,20,20,93,1,,,,,,,,,,,,,,,,,,,,,,,,,,,,,,,,,,,
,,,,,,,,,,,,a,Incorrect,,,,,,t1.png,t3.png,2,0.056466,18,Female,2020-11-10_11h08.15.403,torte-q,2020.1.3,Win32,60,14051,1.078155,,,,,0,21,21,69,1,,,,,,,,,,,,,,,,,,,,,,,,,,,,,,,,,,,
,,,,,,,,,,,,a,Correct!,,,,,,t5.png,t5.png,0,0.97829,18,Female,2020-11-10_11h08.15.403,torte-q,2020.1.3,Win32,60,14051,0.975655,,,,,0,22,22,25,1,,,,,,,,,,,,,,,,,,,,,,,,,,,,,,,,,,,
,,,,,,,,,,,,l,Incorrect,,,,,,t3.png,t2.png,1,0.90855,18,Female,2020-11-10_11h08.15.403,torte-q,2020.1.3,Win32,60,14051,0.72957,,,,,0,23,23,53,1,,,,,,,,,,,,,,,,,,,,,,,,,,,,,,,,,,,
,,,,,,,,,,,,a,Correct!,,,,,,t2.png,t3.png,1,0.90855,18,Female,2020-11-10_11h08.15.403,torte-q,2020.1.3,Win32,60,14051,0.796795,,,,,0,24,24,10,1,,,,,,,,,,,,,,,,,,,,,,,,,,,,,,,,,,,
,,,,,,,,,,,,a,Correct!,,,,,,t4.png,t3.png,1,0.909,18,Female,2020-11-10_11h08.15.403,torte-q,2020.1.3,Win32,60,14051,0.85133,,,,,0,25,25,20,1,,,,,,,,,,,,,,,,,,,,,,,,,,,,,,,,,,,
,,,,,,,,,,,,a,Incorrect,,,,,,t1.png,t4.png,3,0.0000131,18,Female,2020-11-10_11h08.15.403,torte-q,2020.1.3,Win32,60,14051,0.93948,,,,,0,26,26,17,1,,,,,,,,,,,,,,,,,,,,,,,,,,,,,,,,,,,
,,,,,,,,,,,,l,Correct!,,,,,,t3.png,t5.png,2,0.0565,18,Female,2020-11-10_11h08.15.403,torte-q,2020.1.3,Win32,60,14051,1.103245,,,,,0,27,27,83,1,,,,,,,,,,,,,,,,,,,,,,,,,,,,,,,,,,,
,,,,,,,,,,,,l,Correct!,,,,,,t2.png,t4.png,2,0.059078,18,Female,2020-11-10_11h08.15.403,torte-q,2020.1.3,Win32,60,14051,2.132265,,,,,0,28,28,77,1,,,,,,,,,,,,,,,,,,,,,,,,,,,,,,,,,,,
,,,,,,,,,,,,a,Incorrect,,,,,,t4.png,t2.png,2,0.0591,18,Female,2020-11-10_11h08.15.403,torte-q,2020.1.3,Win32,60,14051,1.769675,,,,,0,29,29,36,1,,,,,,,,,,,,,,,,,,,,,,,,,,,,,,,,,,,
,,,,,,,,,,,,l,Correct!,,,,,,t3.png,t5.png,2,0.056466,18,Female,2020-11-10_11h08.15.403,torte-q,2020.1.3,Win32,60,14051,0.958345,,,,,0,30,30,6,1,,,,,,,,,,,,,,,,,,,,,,,,,,,,,,,,,,,
,,,,,,,,,,,,l,Correct!,,,,,,t3.png,t1.png,2,0.0565,18,Female,2020-11-10_11h08.15.403,torte-q,2020.1.3,Win32,60,14051,1.062595,,,,,0,31,31,31,1,,,,,,,,,,,,,,,,,,,,,,,,,,,,,,,,,,,
,,,,,,,,,,,,l,Incorrect,,,,,,t2.png,t1.png,1,0.90025,18,Female,2020-11-10_11h08.15.403,torte-q,2020.1.3,Win32,60,14051,0.79267,,,,,0,32,32,19,1,,,,,,,,,,,,,,,,,,,,,,,,,,,,,,,,,,,
,,,,,,,,,,,,l,Correct!,,,,,,t2.png,t4.png,2,0.059078,18,Female,2020-11-10_11h08.15.403,torte-q,2020.1.3,Win32,60,14051,1.460835,,,,,0,33,33,11,1,,,,,,,,,,,,,,,,,,,,,,,,,,,,,,,,,,,
,,,,,,,,,,,,l,Correct!,,,,,,t3.png,t1.png,2,0.056466,18,Female,2020-11-10_11h08.15.403,torte-q,2020.1.3,Win32,60,14051,0.673735,,,,,0,34,34,29,1,,,,,,,,,,,,,,,,,,,,,,,,,,,,,,,,,,,
,,,,,,,,,,,,a,Correct!,,,,,,t3.png,t4.png,1,0.90855,18,Female,2020-11-10_11h08.15.403,torte-q,2020.1.3,Win32,60,14051,1.6326,,,,,0,35,35,96,1,,,,,,,,,,,,,,,,,,,,,,,,,,,,,,,,,,,
,,,,,,,,,,,,l,Correct!,,,,,,t4.png,t1.png,3,0.0000131,18,Female,2020-11-10_11h08.15.403,torte-q,2020.1.3,Win32,60,14051,0.632825,,,,,0,36,36,61,1,,,,,,,,,,,,,,,,,,,,,,,,,,,,,,,,,,,
,,,,,,,,,,,,l,Incorrect,,,,,,t1.png,t2.png,1,0.90025,18,Female,2020-11-10_11h08.15.403,torte-q,2020.1.3,Win32,60,14051,1.637855,,,,,0,37,37,112,1,,,,,,,,,,,,,,,,,,,,,,,,,,,,,,,,,,,
,,,,,,,,,,,,a,Correct!,,,,,,t4.png,t4.png,0,0.98115,18,Female,2020-11-10_11h08.15.403,torte-q,2020.1.3,Win32,60,14051,1.715505,,,,,0,38,38,21,1,,,,,,,,,,,,,,,,,,,,,,,,,,,,,,,,,,,
,,,,,,,,,,,,l,Correct!,,,,,,t2.png,t5.png,3,0.0000131,18,Female,2020-11-10_11h08.15.403,torte-q,2020.1.3,Win32,60,14051,0.84381,,,,,0,39,39,95,1,,,,,,,,,,,,,,,,,,,,,,,,,,,,,,,,,,,
,,,,,,,,,,,,a,Incorrect,,,,,,t4.png,t2.png,2,0.059078,18,Female,2020-11-10_11h08.15.403,torte-q,2020.1.3,Win32,60,14051,1.56752,,,,,0,40,40,86,1,,,,,,,,,,,,,,,,,,,,,,,,,,,,,,,,,,,
,,,,,,,,,,,,l,Incorrect,,,,,,t3.png,t4.png,1,0.909,18,Female,2020-11-10_11h08.15.403,torte-q,2020.1.3,Win32,60,14051,0.79944,,,,,0,41,41,89,1,,,,,,,,,,,,,,,,,,,,,,,,,,,,,,,,,,,
,,,,,,,,,,,,l,Incorrect,,,,,,t2.png,t1.png,1,0.90025,18,Female,2020-11-10_11h08.15.403,torte-q,2020.1.3,Win32,60,14051,0.735335,,,,,0,42,42,4,1,,,,,,,,,,,,,,,,,,,,,,,,,,,,,,,,,,,
,,,,,,,,,,,,l,Incorrect,,,,,,t3.png,t4.png,1,0.909,18,Female,2020-11-10_11h08.15.403,torte-q,2020.1.3,Win32,60,14051,1.4238,,,,,0,43,43,82,1,,,,,,,,,,,,,,,,,,,,,,,,,,,,,,,,,,,
,,,,,,,,,,,,l,Correct!,,,,,,t2.png,t5.png,3,0.0000131,18,Female,2020-11-10_11h08.15.403,torte-q,2020.1.3,Win32,60,14051,1.319435,,,,,0,44,44,104,1,,,,,,,,,,,,,,,,,,,,,,,,,,,,,,,,,,,
,,,,,,,,,,,,a,Incorrect,,,,,,t5.png,t2.png,3,0.0000131,18,Female,2020-11-10_11h08.15.403,torte-q,2020.1.3,Win32,60,14051,0.74311,,,,,0,45,45,119,1,,,,,,,,,,,,,,,,,,,,,,,,,,,,,,,,,,,
,,,,,,,,,,,,a,Incorrect,,,,,,t5.png,t2.png,3,0.0000131,18,Female,2020-11-10_11h08.15.403,torte-q,2020.1.3,Win32,60,14051,0.642895,,,,,0,46,46,116,1,,,,,,,,,,,,,,,,,,,,,,,,,,,,,,,,,,,
,,,,,,,,,,,,l,Correct!,,,,,,t4.png,t2.png,2,0.059078,18,Female,2020-11-10_11h08.15.403,torte-q,2020.1.3,Win32,60,14051,1.136785,,,,,0,47,47,88,1,,,,,,,,,,,,,,,,,,,,,,,,,,,,,,,,,,,
,,,,,,,,,,,,a,Incorrect,,,,,,t2.png,t5.png,3,0.0000131,18,Female,2020-11-10_11h08.15.403,torte-q,2020.1.3,Win32,60,14051,1.33237,,,,,0,48,48,40,1,,,,,,,,,,,,,,,,,,,,,,,,,,,,,,,,,,,
,,,,,,,,,,,,a,Incorrect,,,,,,t1.png,t5.png,4,9.55E-11,18,Female,2020-11-10_11h08.15.403,torte-q,2020.1.3,Win32,60,14051,1.648665,,,,,0,49,49,12,1,,,,,,,,,,,,,,,,,,,,,,,,,,,,,,,,,,,
,,,,,,,,,,,,l,Incorrect,,,,,,t3.png,t4.png,1,0.909,18,Female,2020-11-10_11h08.15.403,torte-q,2020.1.3,Win32,60,14051,0.835015,,,,,0,50,50,106,1,,,,,,,,,,,,,,,,,,,,,,,,,,,,,,,,,,,
,,,,,,,,,,,,a,Incorrect,,,,,,t1.png,t3.png,2,0.056466,18,Female,2020-11-10_11h08.15.403,torte-q,2020.1.3,Win32,60,14051,0.859125,,,,,0,51,51,60,1,,,,,,,,,,,,,,,,,,,,,,,,,,,,,,,,,,,
,,,,,,,,,,,,a,Correct!,,,,,,t1.png,t1.png,0,0.978,18,Female,2020-11-10_11h08.15.403,torte-q,2020.1.3,Win32,60,14051,0.91574,,,,,0,52,52,28,1,,,,,,,,,,,,,,,,,,,,,,,,,,,,,,,,,,,
,,,,,,,,,,,,l,Incorrect,,,,,,t2.png,t3.png,1,0.90855,18,Female,2020-11-10_11h08.15.403,torte-q,2020.1.3,Win32,60,14051,1.659705,,,,,0,53,53,65,1,,,,,,,,,,,,,,,,,,,,,,,,,,,,,,,,,,,
,,,,,,,,,,,,l,Incorrect,,,,,,t2.png,t1.png,1,0.9,18,Female,2020-11-10_11h08.15.403,torte-q,2020.1.3,Win32,60,14051,0.725525,,,,,0,54,54,118,1,,,,,,,,,,,,,,,,,,,,,,,,,,,,,,,,,,,
,,,,,,,,,,,,a,Correct!,,,,,,t4.png,t3.png,1,0.909,18,Female,2020-11-10_11h08.15.403,torte-q,2020.1.3,Win32,60,14051,1.306255,,,,,0,55,55,46,1,,,,,,,,,,,,,,,,,,,,,,,,,,,,,,,,,,,
,,,,,,,,,,,,a,Correct!,,,,,,t2.png,t2.png,0,0.981,18,Female,2020-11-10_11h08.15.403,torte-q,2020.1.3,Win32,60,14051,1.279225,,,,,0,56,56,101,1,,,,,,,,,,,,,,,,,,,,,,,,,,,,,,,,,,,
,,,,,,,,,,,,a,Correct!,,,,,,t3.png,t4.png,1,0.90855,18,Female,2020-11-10_11h08.15.403,torte-q,2020.1.3,Win32,60,14051,1.137165,,,,,0,57,57,84,1,,,,,,,,,,,,,,,,,,,,,,,,,,,,,,,,,,,
,,,,,,,,,,,,a,Correct!,,,,,,t2.png,t2.png,0,0.98115,18,Female,2020-11-10_11h08.15.403,torte-q,2020.1.3,Win32,60,14051,1.120125,,,,,0,58,58,57,1,,,,,,,,,,,,,,,,,,,,,,,,,,,,,,,,,,,
,,,,,,,,,,,,a,Correct!,,,,,,t5.png,t4.png,1,0.9,18,Female,2020-11-10_11h08.15.403,torte-q,2020.1.3,Win32,60,14051,1.353645,,,,,0,59,59,49,1,,,,,,,,,,,,,,,,,,,,,,,,,,,,,,,,,,,
,,,,,,,,,,,,a,Correct!,,,,,,t4.png,t3.png,1,0.90855,18,Female,2020-11-10_11h08.15.403,torte-q,2020.1.3,Win32,60,14051,1.452305,,,,,0,60,60,75,1,,,,,,,,,,,,,,,,,,,,,,,,,,,,,,,,,,,
,,,,,,,,,,,,a,Correct!,,,,,,t1.png,t1.png,0,0.97829,18,Female,2020-11-10_11h08.15.403,torte-q,2020.1.3,Win32,60,14051,1.125775,,,,,0,61,61,78,1,,,,,,,,,,,,,,,,,,,,,,,,,,,,,,,,,,,
,,,,,,,,,,,,l,Incorrect,,,,,,t4.png,t5.png,1,0.90025,18,Female,2020-11-10_11h08.15.403,torte-q,2020.1.3,Win32,60,14051,1.296815,,,,,0,62,62,113,1,,,,,,,,,,,,,,,,,,,,,,,,,,,,,,,,,,,
,,,,,,,,,,,,l,Incorrect,,,,,,t1.png,t2.png,1,0.90025,18,Female,2020-11-10_11h08.15.403,torte-q,2020.1.3,Win32,60,14051,0.90523,,,,,0,63,63,72,1,,,,,,,,,,,,,,,,,,,,,,,,,,,,,,,,,,,
,,,,,,,,,,,,l,Incorrect,,,,,,t4.png,t5.png,1,0.90025,18,Female,2020-11-10_11h08.15.403,torte-q,2020.1.3,Win32,60,14051,1.18237,,,,,0,64,64,58,1,,,,,,,,,,,,,,,,,,,,,,,,,,,,,,,,,,,
,,,,,,,,,,,,l,Incorrect,,,,,,t4.png,t3.png,1,0.90855,18,Female,2020-11-10_11h08.15.403,torte-q,2020.1.3,Win32,60,14051,1.454245,,,,,0,65,65,35,1,,,,,,,,,,,,,,,,,,,,,,,,,,,,,,,,,,,
,,,,,,,,,,,,a,Correct!,,,,,,t5.png,t5.png,0,0.97829,18,Female,2020-11-10_11h08.15.403,torte-q,2020.1.3,Win32,60,14051,0.80104,,,,,0,66,66,94,1,,,,,,,,,,,,,,,,,,,,,,,,,,,,,,,,,,,
,,,,,,,,,,,,a,Correct!,,,,,,t1.png,t1.png,0,0.97829,18,Female,2020-11-10_11h08.15.403,torte-q,2020.1.3,Win32,60,14051,0.815765,,,,,0,67,67,67,1,,,,,,,,,,,,,,,,,,,,,,,,,,,,,,,,,,,
,,,,,,,,,,,,a,Correct!,,,,,,t2.png,t3.png,1,0.909,18,Female,2020-11-10_11h08.15.403,torte-q,2020.1.3,Win32,60,14051,1.39928,,,,,0,68,68,74,1,,,,,,,,,,,,,,,,,,,,,,,,,,,,,,,,,,,
,,,,,,,,,,,,l,Incorrect,,,,,,t3.png,t2.png,1,0.909,18,Female,2020-11-10_11h08.15.403,torte-q,2020.1.3,Win32,60,14051,0.88939,,,,,0,69,69,23,1,,,,,,,,,,,,,,,,,,,,,,,,,,,,,,,,,,,
,,,,,,,,,,,,a,Incorrect,,,,,,t1.png,t5.png,4,9.55E-11,18,Female,2020-11-10_11h08.15.403,torte-q,2020.1.3,Win32,60,14051,1.51602,,,,,0,70,70,55,1,,,,,,,,,,,,,,,,,,,,,,,,,,,,,,,,,,,
,,,,,,,,,,,,a,Correct!,,,,,,t5.png,t3.png,2,0.0565,18,Female,2020-11-10_11h08.15.403,torte-q,2020.1.3,Win32,60,14051,1.25512,,,,,0,71,71,39,1,,,,,,,,,,,,,,,,,,,,,,,,,,,,,,,,,,,
,,,,,,,,,,,,a,Correct!,,,,,,t5.png,t5.png,0,0.97829,18,Female,2020-11-10_11h08.15.403,torte-q,2020.1.3,Win32,60,14051,0.986235,,,,,0,72,72,73,1,,,,,,,,,,,,,,,,,,,,,,,,,,,,,,,,,,,
,,,,,,,,,,,,a,Correct!,,,,,,t2.png,t3.png,1,0.90855,18,Female,2020-11-10_11h08.15.403,torte-q,2020.1.3,Win32,60,14051,1.157925,,,,,0,73,73,111,1,,,,,,,,,,,,,,,,,,,,,,,,,,,,,,,,,,,
,,,,,,,,,,,,l,Correct!,,,,,,t5.png,t1.png,4,9.55E-11,18,Female,2020-11-10_11h08.15.403,torte-q,2020.1.3,Win32,60,14051,0.73521,,,,,0,74,74,71,1,,,,,,,,,,,,,,,,,,,,,,,,,,,,,,,,,,,
,,,,,,,,,,,,a,Incorrect,,,,,,t1.png,t5.png,4,9.55E-11,18,Female,2020-11-10_11h08.15.403,torte-q,2020.1.3,Win32,60,14051,0.96051,,,,,0,75,75,16,1,,,,,,,,,,,,,,,,,,,,,,,,,,,,,,,,,,,
,,,,,,,,,,,,l,Incorrect,,,,,,t1.png,t2.png,1,0.90025,18,Female,2020-11-10_11h08.15.403,torte-q,2020.1.3,Win32,60,14051,1.254175,,,,,0,76,76,105,1,,,,,,,,,,,,,,,,,,,,,,,,,,,,,,,,,,,
,,,,,,,,,,,,l,Incorrect,,,,,,t4.png,t5.png,1,0.9,18,Female,2020-11-10_11h08.15.403,torte-q,2020.1.3,Win32,60,14051,1.21749,,,,,0,77,77,115,1,,,,,,,,,,,,,,,,,,,,,,,,,,,,,,,,,,,
,,,,,,,,,,,,a,Incorrect,,,,,,t1.png,t4.png,3,0.0000131,18,Female,2020-11-10_11h08.15.403,torte-q,2020.1.3,Win32,60,14051,0.68307,,,,,0,78,78,81,1,,,,,,,,,,,,,,,,,,,,,,,,,,,,,,,,,,,
,,,,,,,,,,,,l,Correct!,,,,,,t2.png,t5.png,3,0.0000131,18,Female,2020-11-10_11h08.15.403,torte-q,2020.1.3,Win32,60,14051,0.89463,,,,,0,79,79,8,1,,,,,,,,,,,,,,,,,,,,,,,,,,,,,,,,,,,
,,,,,,,,,,,,l,Incorrect,,,,,,t2.png,t1.png,1,0.90025,18,Female,2020-11-10_11h08.15.403,torte-q,2020.1.3,Win32,60,14051,0.616015,,,,,0,80,80,62,1,,,,,,,,,,,,,,,,,,,,,,,,,,,,,,,,,,,
,,,,,,,,,,,,l,Incorrect,,,,,,t3.png,t2.png,1,0.90855,18,Female,2020-11-10_11h08.15.403,torte-q,2020.1.3,Win32,60,14051,1.174875,,,,,0,81,81,97,1,,,,,,,,,,,,,,,,,,,,,,,,,,,,,,,,,,,
,,,,,,,,,,,,a,Incorrect,,,,,,t3.png,t1.png,2,0.056466,18,Female,2020-11-10_11h08.15.403,torte-q,2020.1.3,Win32,60,14051,0.5511,,,,,0,82,82,64,1,,,,,,,,,,,,,,,,,,,,,,,,,,,,,,,,,,,
,,,,,,,,,,,,a,Incorrect,,,,,,t2.png,t4.png,2,0.0591,18,Female,2020-11-10_11h08.15.403,torte-q,2020.1.3,Win32,60,14051,0.884185,,,,,0,83,83,15,1,,,,,,,,,,,,,,,,,,,,,,,,,,,,,,,,,,,
,,,,,,,,,,,,a,Incorrect,,,,,,t2.png,t4.png,2,0.059078,18,Female,2020-11-10_11h08.15.403,torte-q,2020.1.3,Win32,60,14051,1.558985,,,,,0,84,84,37,1,,,,,,,,,,,,,,,,,,,,,,,,,,,,,,,,,,,
,,,,,,,,,,,,l,Correct!,,,,,,t3.png,t5.png,2,0.056466,18,Female,2020-11-10_11h08.15.403,torte-q,2020.1.3,Win32,60,14051,0.98993,,,,,0,85,85,14,1,,,,,,,,,,,,,,,,,,,,,,,,,,,,,,,,,,,
,,,,,,,,,,,,a,Incorrect,,,,,,t5.png,t2.png,3,0.0000131,18,Female,2020-11-10_11h08.15.403,torte-q,2020.1.3,Win32,60,14051,1.849545,,,,,0,86,86,91,1,,,,,,,,,,,,,,,,,,,,,,,,,,,,,,,,,,,
,,,,,,,,,,,,a,Correct!,,,,,,t2.png,t3.png,1,0.90855,18,Female,2020-11-10_11h08.15.403,torte-q,2020.1.3,Win32,60,14051,1.07059,,,,,0,87,87,68,1,,,,,,,,,,,,,,,,,,,,,,,,,,,,,,,,,,,
,,,,,,,,,,,,a,Correct!,,,,,,t2.png,t2.png,0,0.98115,18,Female,2020-11-10_11h08.15.403,torte-q,2020.1.3,Win32,60,14051,1.048185,,,,,0,88,88,2,1,,,,,,,,,,,,,,,,,,,,,,,,,,,,,,,,,,,
,,,,,,,,,,,,a,Incorrect,,,,,,t1.png,t5.png,4,9.55E-11,18,Female,2020-11-10_11h08.15.403,torte-q,2020.1.3,Win32,60,14051,1.309065,,,,,0,89,89,41,1,,,,,,,,,,,,,,,,,,,,,,,,,,,,,,,,,,,
,,,,,,,,,,,,a,Incorrect,,,,,,t5.png,t2.png,3,0.0000131,18,Female,2020-11-10_11h08.15.403,torte-q,2020.1.3,Win32,60,14051,1.382985,,,,,0,90,90,98,1,,,,,,,,,,,,,,,,,,,,,,,,,,,,,,,,,,,
,,,,,,,,,,,,a,Correct!,,,,,,t4.png,t4.png,0,0.98115,18,Female,2020-11-10_11h08.15.403,torte-q,2020.1.3,Win32,60,14051,1.18732,,,,,0,91,91,80,1,,,,,,,,,,,,,,,,,,,,,,,,,,,,,,,,,,,
,,,,,,,,,,,,a,Incorrect,,,,,,t1.png,t4.png,3,0.0000131,18,Female,2020-11-10_11h08.15.403,torte-q,2020.1.3,Win32,60,14051,1.356705,,,,,0,92,92,50,1,,,,,,,,,,,,,,,,,,,,,,,,,,,,,,,,,,,
,,,,,,,,,,,,l,Incorrect,,,,,,t2.png,t2.png,0,0.98115,18,Female,2020-11-10_11h08.15.403,torte-q,2020.1.3,Win32,60,14051,1.494365,,,,,0,93,93,7,1,,,,,,,,,,,,,,,,,,,,,,,,,,,,,,,,,,,
,,,,,,,,,,,,l,Correct!,,,,,,t2.png,t5.png,3,0.0000131,18,Female,2020-11-10_11h08.15.403,torte-q,2020.1.3,Win32,60,14051,0.985385,,,,,0,94,94,66,1,,,,,,,,,,,,,,,,,,,,,,,,,,,,,,,,,,,
,,,,,,,,,,,,l,Incorrect,,,,,,t2.png,t2.png,0,0.98115,18,Female,2020-11-10_11h08.15.403,torte-q,2020.1.3,Win32,60,14051,1.01611,,,,,0,95,95,59,1,,,,,,,,,,,,,,,,,,,,,,,,,,,,,,,,,,,
,,,,,,,,,,,,l,Correct!,,,,,,t5.png,t1.png,4,9.55E-11,18,Female,2020-11-10_11h08.15.403,torte-q,2020.1.3,Win32,60,14051,1.24605,,,,,0,96,96,22,1,,,,,,,,,,,,,,,,,,,,,,,,,,,,,,,,,,,
,,,,,,,,,,,,a,Correct!,,,,,,t5.png,t4.png,1,0.90025,18,Female,2020-11-10_11h08.15.403,torte-q,2020.1.3,Win32,60,14051,1.185285,,,,,0,97,97,26,1,,,,,,,,,,,,,,,,,,,,,,,,,,,,,,,,,,,
,,,,,,,,,,,,a,Correct!,,,,,,t4.png,t4.png,0,0.98115,18,Female,2020-11-10_11h08.15.403,torte-q,2020.1.3,Win32,60,14051,1.68762,,,,,0,98,98,79,1,,,,,,,,,,,,,,,,,,,,,,,,,,,,,,,,,,,
,,,,,,,,,,,,a,Incorrect,,,,,,t1.png,t3.png,2,0.056466,18,Female,2020-11-10_11h08.15.403,torte-q,2020.1.3,Win32,60,14051,1.245565,,,,,0,99,99,63,1,,,,,,,,,,,,,,,,,,,,,,,,,,,,,,,,,,,
,,,,,,,,,,,,a,Incorrect,,,,,,t5.png,t2.png,3,0.0000131,18,Female,2020-11-10_11h08.15.403,torte-q,2020.1.3,Win32,60,14051,1.374545,,,,,0,100,100,51,1,,,,,,,,,,,,,,,,,,,,,,,,,,,,,,,,,,,
,,,,,,,,,,,,l,Correct!,,,,,,t5.png,t1.png,4,9.55E-11,18,Female,2020-11-10_11h08.15.403,torte-q,2020.1.3,Win32,60,14051,0.86893,,,,,0,101,101,43,1,,,,,,,,,,,,,,,,,,,,,,,,,,,,,,,,,,,
,,,,,,,,,,,,a,Correct!,,,,,,t3.png,t2.png,1,0.909,18,Female,2020-11-10_11h08.15.403,torte-q,2020.1.3,Win32,60,14051,1.47187,,,,,0,102,102,3,1,,,,,,,,,,,,,,,,,,,,,,,,,,,,,,,,,,,
,,,,,,,,,,,,a,Incorrect,,,,,,t5.png,t3.png,2,0.056466,18,Female,2020-11-10_11h08.15.403,torte-q,2020.1.3,Win32,60,14051,0.83292,,,,,0,103,103,38,1,,,,,,,,,,,,,,,,,,,,,,,,,,,,,,,,,,,
,,,,,,,,,,,,l,Correct!,,,,,,t2.png,t4.png,2,0.059078,18,Female,2020-11-10_11h08.15.403,torte-q,2020.1.3,Win32,60,14051,1.16621,,,,,0,104,104,24,1,,,,,,,,,,,,,,,,,,,,,,,,,,,,,,,,,,,
,,,,,,,,,,,,l,Correct!,,,,,,t3.png,t1.png,2,0.056466,18,Female,2020-11-10_11h08.15.403,torte-q,2020.1.3,Win32,60,14051,0.717495,,,,,0,105,105,32,1,,,,,,,,,,,,,,,,,,,,,,,,,,,,,,,,,,,
,,,,,,,,,,,,a,Incorrect,,,,,,t5.png,t3.png,2,0.056466,18,Female,2020-11-10_11h08.15.403,torte-q,2020.1.3,Win32,60,14051,1.20207,,,,,0,106,106,108,1,,,,,,,,,,,,,,,,,,,,,,,,,,,,,,,,,,,
,,,,,,,,,,,,l,Correct!,,,,,,t3.png,t1.png,2,0.056466,18,Female,2020-11-10_11h08.15.403,torte-q,2020.1.3,Win32,60,14051,0.66576,,,,,0,107,107,0,1,,,,,,,,,,,,,,,,,,,,,,,,,,,,,,,,,,,
,,,,,,,,,,,,l,Incorrect,,,,,,t3.png,t2.png,1,0.90855,18,Female,2020-11-10_11h08.15.403,torte-q,2020.1.3,Win32,60,14051,0.799645,,,,,0,108,108,18,1,,,,,,,,,,,,,,,,,,,,,,,,,,,,,,,,,,,
,,,,,,,,,,,,a,Correct!,,,,,,t1.png,t1.png,0,0.978,18,Female,2020-11-10_11h08.15.403,torte-q,2020.1.3,Win32,60,14051,0.951125,,,,,0,109,109,54,1,,,,,,,,,,,,,,,,,,,,,,,,,,,,,,,,,,,
,,,,,,,,,,,,l,Incorrect,,,,,,t4.png,t5.png,1,0.90025,18,Female,2020-11-10_11h08.15.403,torte-q,2020.1.3,Win32,60,14051,1.65147,,,,,0,110,110,47,1,,,,,,,,,,,,,,,,,,,,,,,,,,,,,,,,,,,
,,,,,,,,,,,,a,Correct!,,,,,,t5.png,t5.png,0,0.978,18,Female,2020-11-10_11h08.15.403,torte-q,2020.1.3,Win32,60,14051,1.04924,,,,,0,111,111,117,1,,,,,,,,,,,,,,,,,,,,,,,,,,,,,,,,,,,
,,,,,,,,,,,,a,Incorrect,,,,,,t5.png,t4.png,1,0.90025,18,Female,2020-11-10_11h08.15.403,torte-q,2020.1.3,Win32,60,14051,1.63212,,,,,0,112,112,34,1,,,,,,,,,,,,,,,,,,,,,,,,,,,,,,,,,,,
,,,,,,,,,,,,l,Correct!,,,,,,t3.png,t5.png,2,0.056466,18,Female,2020-11-10_11h08.15.403,torte-q,2020.1.3,Win32,60,14051,0.736995,,,,,0,113,113,44,1,,,,,,,,,,,,,,,,,,,,,,,,,,,,,,,,,,,
,,,,,,,,,,,,l,Correct!,,,,,,t4.png,t1.png,3,0.0000131,18,Female,2020-11-10_11h08.15.403,torte-q,2020.1.3,Win32,60,14051,0.76139,,,,,0,114,114,42,1,,,,,,,,,,,,,,,,,,,,,,,,,,,,,,,,,,,
,,,,,,,,,,,,a,Incorrect,,,,,,t5.png,t3.png,2,0.056466,18,Female,2020-11-10_11h08.15.403,torte-q,2020.1.3,Win32,60,14051,1.19885,,,,,0,115,115,114,1,,,,,,,,,,,,,,,,,,,,,,,,,,,,,,,,,,,
,,,,,,,,,,,,l,Correct!,,,,,,t1.png,t5.png,4,9.55E-11,18,Female,2020-11-10_11h08.15.403,torte-q,2020.1.3,Win32,60,14051,1.039495,,,,,0,116,116,85,1,,,,,,,,,,,,,,,,,,,,,,,,,,,,,,,,,,,
,,,,,,,,,,,,a,Correct!,,,,,,t5.png,t5.png,0,0.97829,18,Female,2020-11-10_11h08.15.403,torte-q,2020.1.3,Win32,60,14051,0.895775,,,,,0,117,117,70,1,,,,,,,,,,,,,,,,,,,,,,,,,,,,,,,,,,,
,,,,,,,,,,,,a,Incorrect,,,,,,t1.png,t4.png,3,0.0000131,18,Female,2020-11-10_11h08.15.403,torte-q,2020.1.3,Win32,60,14051,0.783815,,,,,0,118,118,92,1,,,,,,,,,,,,,,,,,,,,,,,,,,,,,,,,,,,
,,,,,,,,,,,,a,Correct!,,,,,,t1.png,t2.png,1,0.90025,18,Female,2020-11-10_11h08.15.403,torte-q,2020.1.3,Win32,60,14051,0.808375,,,,,0,119,119,33,1,,,,,,,,,,,,,,,,,,,,,,,,,,,,,,,,,,,
,,,,,,,,,,,,a,Incorrect,,,,,,t1.png,t3.png,2,0.056466,18,Female,2020-11-10_11h08.15.403,torte-q,2020.1.3,Win32,60,14051,0.73475,space,2.100215,,,,,,,,space,16.438705,space,4.599755,0,0,0,99,1,,,,,,,,,,,,,,,,,,,,,,,,,,
,,,,,,,,,,,,a,Correct!,,,,,,t4.png,t3.png,1,0.90855,18,Female,2020-11-10_11h08.15.403,torte-q,2020.1.3,Win32,60,14051,0.98393,,,,,,,,,,,,,,0,1,1,35,1,,,,,,,,,,,,,,,,,,,,,,,,,,
,,,,,,,,,,,,l,Incorrect,,,,,,t2.png,t1.png,1,0.90025,18,Female,2020-11-10_11h08.15.403,torte-q,2020.1.3,Win32,60,14051,0.74591,,,,,,,,,,,,,,0,2,2,5,1,,,,,,,,,,,,,,,,,,,,,,,,,,
,,,,,,,,,,,,a,Correct!,,,,,,t5.png,t5.png,0,0.97829,18,Female,2020-11-10_11h08.15.403,torte-q,2020.1.3,Win32,60,14051,0.841935,,,,,,,,,,,,,,0,3,3,25,1,,,,,,,,,,,,,,,,,,,,,,,,,,
,,,,,,,,,,,,a,Incorrect,,,,,,t5.png,t2.png,3,0.0000131,18,Female,2020-11-10_11h08.15.403,torte-q,2020.1.3,Win32,60,14051,0.783325,,,,,,,,,,,,,,0,4,4,51,1,,,,,,,,,,,,,,,,,,,,,,,,,,
,,,,,,,,,,,,l,Incorrect,,,,,,t2.png,t3.png,1,0.90855,18,Female,2020-11-10_11h08.15.403,torte-q,2020.1.3,Win32,60,14051,1.490345,,,,,,,,,,,,,,0,5,5,111,1,,,,,,,,,,,,,,,,,,,,,,,,,,
,,,,,,,,,,,,l,Correct!,,,,,,t3.png,t5.png,2,0.056466,18,Female,2020-11-10_11h08.15.403,torte-q,2020.1.3,Win32,60,14051,0.94333,,,,,,,,,,,,,,0,6,6,14,1,,,,,,,,,,,,,,,,,,,,,,,,,,
,,,,,,,,,,,,l,Correct!,,,,,,t3.png,t1.png,2,0.056466,18,Female,2020-11-10_11h08.15.403,torte-q,2020.1.3,Win32,60,14051,0.86142,,,,,,,,,,,,,,0,7,7,64,1,,,,,,,,,,,,,,,,,,,,,,,,,,
,,,,,,,,,,,,a,Incorrect,,,,,,t1.png,t4.png,3,0.0000131,18,Female,2020-11-10_11h08.15.403,torte-q,2020.1.3,Win32,60,14051,0.701185,,,,,,,,,,,,,,0,8,8,50,1,,,,,,,,,,,,,,,,,,,,,,,,,,
,,,,,,,,,,,,l,Incorrect,,,,,,t2.png,t3.png,1,0.90855,18,Female,2020-11-10_11h08.15.403,torte-q,2020.1.3,Win32,60,14051,1.18687,,,,,,,,,,,,,,0,9,9,10,1,,,,,,,,,,,,,,,,,,,,,,,,,,
,,,,,,,,,,,,a,Incorrect,,,,,,t1.png,t3.png,2,0.056466,18,Female,2020-11-10_11h08.15.403,torte-q,2020.1.3,Win32,60,14051,0.6371,,,,,,,,,,,,,,0,10,10,69,1,,,,,,,,,,,,,,,,,,,,,,,,,,
,,,,,,,,,,,,a,Incorrect,,,,,,t1.png,t4.png,3,0.0000131,18,Female,2020-11-10_11h08.15.403,torte-q,2020.1.3,Win32,60,14051,0.64083,,,,,,,,,,,,,,0,11,11,81,1,,,,,,,,,,,,,,,,,,,,,,,,,,
,,,,,,,,,,,,a,Incorrect,,,,,,t5.png,t1.png,4,9.55E-11,18,Female,2020-11-10_11h08.15.403,torte-q,2020.1.3,Win32,60,14051,1.435935,,,,,,,,,,,,,,0,12,12,22,1,,,,,,,,,,,,,,,,,,,,,,,,,,
,,,,,,,,,,,,l,Correct!,,,,,,t1.png,t3.png,2,0.056466,18,Female,2020-11-10_11h08.15.403,torte-q,2020.1.3,Win32,60,14051,0.932695,,,,,,,,,,,,,,0,13,13,63,1,,,,,,,,,,,,,,,,,,,,,,,,,,
,,,,,,,,,,,,a,Correct!,,,,,,t1.png,t2.png,1,0.90025,18,Female,2020-11-10_11h08.15.403,torte-q,2020.1.3,Win32,60,14051,0.702195,,,,,,,,,,,,,,0,14,14,72,1,,,,,,,,,,,,,,,,,,,,,,,,,,
,,,,,,,,,,,,a,Correct!,,,,,,t5.png,t4.png,1,0.9,18,Female,2020-11-10_11h08.15.403,torte-q,2020.1.3,Win32,60,14051,0.642825,,,,,,,,,,,,,,0,15,15,76,1,,,,,,,,,,,,,,,,,,,,,,,,,,
,,,,,,,,,,,,a,Incorrect,,,,,,t5.png,t1.png,4,9.55E-11,18,Female,2020-11-10_11h08.15.403,torte-q,2020.1.3,Win32,60,14051,0.635675,,,,,,,,,,,,,,0,16,16,43,1,,,,,,,,,,,,,,,,,,,,,,,,,,
,,,,,,,,,,,,l,Correct!,,,,,,t2.png,t5.png,3,0.0000131,18,Female,2020-11-10_11h08.15.403,torte-q,2020.1.3,Win32,60,14051,1.002505,,,,,,,,,,,,,,0,17,17,66,1,,,,,,,,,,,,,,,,,,,,,,,,,,
,,,,,,,,,,,,a,Incorrect,,,,,,t2.png,t4.png,2,0.059078,18,Female,2020-11-10_11h08.15.403,torte-q,2020.1.3,Win32,60,14051,0.84417,,,,,,,,,,,,,,0,18,18,37,1,,,,,,,,,,,,,,,,,,,,,,,,,,
,,,,,,,,,,,,a,Incorrect,,,,,,t1.png,t2.png,1,0.90025,18,Female,2020-11-10_11h08.15.403,torte-q,2020.1.3,Win32,60,14051,1.04034,,,,,,,,,,,,,,0,19,19,33,1,,,,,,,,,,,,,,,,,,,,,,,,,,
,,,,,,,,,,,,l,Correct!,,,,,,t2.png,t5.png,3,0.0000131,18,Female,2020-11-10_11h08.15.403,torte-q,2020.1.3,Win32,60,14051,1.108795,,,,,,,,,,,,,,0,20,20,8,1,,,,,,,,,,,,,,,,,,,,,,,,,,
,,,,,,,,,,,,a,Correct!,,,,,,t4.png,t3.png,1,0.90855,18,Female,2020-11-10_11h08.15.403,torte-q,2020.1.3,Win32,60,14051,0.968735,,,,,,,,,,,,,,0,21,21,75,1,,,,,,,,,,,,,,,,,,,,,,,,,,
,,,,,,,,,,,,l,Incorrect,,,,,,t3.png,t2.png,1,0.909,18,Female,2020-11-10_11h08.15.403,torte-q,2020.1.3,Win32,60,14051,1.10269,,,,,,,,,,,,,,0,22,22,23,1,,,,,,,,,,,,,,,,,,,,,,,,,,
,,,,,,,,,,,,a,Correct!,,,,,,t1.png,t2.png,1,0.9,18,Female,2020-11-10_11h08.15.403,torte-q,2020.1.3,Win32,60,14051,0.592385,,,,,,,,,,,,,,0,23,23,1,1,,,,,,,,,,,,,,,,,,,,,,,,,,
,,,,,,,,,,,,l,Correct!,,,,,,t3.png,t5.png,2,0.0565,18,Female,2020-11-10_11h08.15.403,torte-q,2020.1.3,Win32,60,14051,0.986155,,,,,,,,,,,,,,0,24,24,30,1,,,,,,,,,,,,,,,,,,,,,,,,,,
,,,,,,,,,,,,l,Incorrect,,,,,,t3.png,t5.png,2,0.056466,18,Female,2020-11-10_11h08.15.403,torte-q,2020.1.3,Win32,60,14051,0.906375,,,,,,,,,,,,,,0,25,25,44,1,,,,,,,,,,,,,,,,,,,,,,,,,,
,,,,,,,,,,,,a,Correct!,,,,,,t3.png,t2.png,1,0.90855,18,Female,2020-11-10_11h08.15.403,torte-q,2020.1.3,Win32,60,14051,0.78807,,,,,,,,,,,,,,0,26,26,97,1,,,,,,,,,,,,,,,,,,,,,,,,,,
,,,,,,,,,,,,a,Incorrect,,,,,,t5.png,t2.png,3,0.0000131,18,Female,2020-11-10_11h08.15.403,torte-q,2020.1.3,Win32,60,14051,0.542145,,,,,,,,,,,,,,0,27,27,116,1,,,,,,,,,,,,,,,,,,,,,,,,,,
,,,,,,,,,,,,l,Incorrect,,,,,,t2.png,t3.png,1,0.90855,18,Female,2020-11-10_11h08.15.403,torte-q,2020.1.3,Win32,60,14051,0.915705,,,,,,,,,,,,,,0,28,28,65,1,,,,,,,,,,,,,,,,,,,,,,,,,,
,,,,,,,,,,,,a,Incorrect,,,,,,t2.png,t4.png,2,0.059078,18,Female,2020-11-10_11h08.15.403,torte-q,2020.1.3,Win32,60,14051,1.149785,,,,,,,,,,,,,,0,29,29,77,1,,,,,,,,,,,,,,,,,,,,,,,,,,
,,,,,,,,,,,,l,Incorrect,,,,,,t3.png,t4.png,1,0.90855,18,Female,2020-11-10_11h08.15.403,torte-q,2020.1.3,Win32,60,14051,1.577465,,,,,,,,,,,,,,0,30,30,84,1,,,,,,,,,,,,,,,,,,,,,,,,,,
,,,,,,,,,,,,l,Incorrect,,,,,,t1.png,t1.png,0,0.978,18,Female,2020-11-10_11h08.15.403,torte-q,2020.1.3,Win32,60,14051,0.60155,,,,,,,,,,,,,,0,31,31,28,1,,,,,,,,,,,,,,,,,,,,,,,,,,
,,,,,,,,,,,,a,Correct!,,,,,,t4.png,t4.png,0,0.98115,18,Female,2020-11-10_11h08.15.403,torte-q,2020.1.3,Win32,60,14051,1.150645,,,,,,,,,,,,,,0,32,32,79,1,,,,,,,,,,,,,,,,,,,,,,,,,,
,,,,,,,,,,,,l,Correct!,,,,,,t2.png,t5.png,3,0.0000131,18,Female,2020-11-10_11h08.15.403,torte-q,2020.1.3,Win32,60,14051,0.83275,,,,,,,,,,,,,,0,33,33,95,1,,,,,,,,,,,,,,,,,,,,,,,,,,
,,,,,,,,,,,,l,Correct!,,,,,,t2.png,t5.png,3,0.0000131,18,Female,2020-11-10_11h08.15.403,torte-q,2020.1.3,Win32,60,14051,0.87736,,,,,,,,,,,,,,0,34,34,40,1,,,,,,,,,,,,,,,,,,,,,,,,,,
,,,,,,,,,,,,a,Incorrect,,,,,,t1.png,t4.png,3,0.0000131,18,Female,2020-11-10_11h08.15.403,torte-q,2020.1.3,Win32,60,14051,1.19261,,,,,,,,,,,,,,0,35,35,107,1,,,,,,,,,,,,,,,,,,,,,,,,,,
,,,,,,,,,,,,a,Correct!,,,,,,t2.png,t2.png,0,0.98115,18,Female,2020-11-10_11h08.15.403,torte-q,2020.1.3,Win32,60,14051,0.910945,,,,,,,,,,,,,,0,36,36,7,1,,,,,,,,,,,,,,,,,,,,,,,,,,
,,,,,,,,,,,,a,Correct!,,,,,,t2.png,t2.png,0,0.981,18,Female,2020-11-10_11h08.15.403,torte-q,2020.1.3,Win32,60,14051,0.783295,,,,,,,,,,,,,,0,37,37,101,1,,,,,,,,,,,,,,,,,,,,,,,,,,
,,,,,,,,,,,,a,Incorrect,,,,,,t4.png,t2.png,2,0.059078,18,Female,2020-11-10_11h08.15.403,torte-q,2020.1.3,Win32,60,14051,0.78671,,,,,,,,,,,,,,0,38,38,88,1,,,,,,,,,,,,,,,,,,,,,,,,,,
,,,,,,,,,,,,l,Incorrect,,,,,,t4.png,t5.png,1,0.9,18,Female,2020-11-10_11h08.15.403,torte-q,2020.1.3,Win32,60,14051,0.978095,,,,,,,,,,,,,,0,39,39,115,1,,,,,,,,,,,,,,,,,,,,,,,,,,
,,,,,,,,,,,,a,Incorrect,,,,,,t4.png,t2.png,2,0.0591,18,Female,2020-11-10_11h08.15.403,torte-q,2020.1.3,Win32,60,14051,0.803255,,,,,,,,,,,,,,0,40,40,36,1,,,,,,,,,,,,,,,,,,,,,,,,,,
,,,,,,,,,,,,a,Incorrect,,,,,,t5.png,t3.png,2,0.0565,18,Female,2020-11-10_11h08.15.403,torte-q,2020.1.3,Win32,60,14051,0.68664,,,,,,,,,,,,,,0,41,41,39,1,,,,,,,,,,,,,,,,,,,,,,,,,,
,,,,,,,,,,,,l,Correct!,,,,,,t2.png,t4.png,2,0.0591,18,Female,2020-11-10_11h08.15.403,torte-q,2020.1.3,Win32,60,14051,1.578935,,,,,,,,,,,,,,0,42,42,15,1,,,,,,,,,,,,,,,,,,,,,,,,,,
,,,,,,,,,,,,a,Correct!,,,,,,t1.png,t1.png,0,0.97829,18,Female,2020-11-10_11h08.15.403,torte-q,2020.1.3,Win32,60,14051,0.67525,,,,,,,,,,,,,,0,43,43,67,1,,,,,,,,,,,,,,,,,,,,,,,,,,
,,,,,,,,,,,,a,Incorrect,,,,,,t5.png,t1.png,4,9.55E-11,18,Female,2020-11-10_11h08.15.403,torte-q,2020.1.3,Win32,60,14051,0.899975,,,,,,,,,,,,,,0,44,44,102,1,,,,,,,,,,,,,,,,,,,,,,,,,,
,,,,,,,,,,,,a,Incorrect,,,,,,t1.png,t5.png,4,9.55E-11,18,Female,2020-11-10_11h08.15.403,torte-q,2020.1.3,Win32,60,14051,0.94976,,,,,,,,,,,,,,0,45,45,12,1,,,,,,,,,,,,,,,,,,,,,,,,,,
,,,,,,,,,,,,a,Incorrect,,,,,,t5.png,t3.png,2,0.056466,18,Female,2020-11-10_11h08.15.403,torte-q,2020.1.3,Win32,60,14051,0.700025,,,,,,,,,,,,,,0,46,46,56,1,,,,,,,,,,,,,,,,,,,,,,,,,,
,,,,,,,,,,,,a,Incorrect,,,,,,t1.png,t5.png,4,9.55E-11,18,Female,2020-11-10_11h08.15.403,torte-q,2020.1.3,Win32,60,14051,0.73913,,,,,,,,,,,,,,0,47,47,55,1,,,,,,,,,,,,,,,,,,,,,,,,,,
,,,,,,,,,,,,l,Correct!,,,,,,t4.png,t1.png,3,0.0000131,18,Female,2020-11-10_11h08.15.403,torte-q,2020.1.3,Win32,60,14051,0.80872,,,,,,,,,,,,,,0,48,48,61,1,,,,,,,,,,,,,,,,,,,,,,,,,,
,,,,,,,,,,,,a,Correct!,,,,,,t1.png,t1.png,0,0.978,18,Female,2020-11-10_11h08.15.403,torte-q,2020.1.3,Win32,60,14051,0.799495,,,,,,,,,,,,,,0,49,49,54,1,,,,,,,,,,,,,,,,,,,,,,,,,,
,,,,,,,,,,,,l,Correct!,,,,,,t3.png,t1.png,2,0.056466,18,Female,2020-11-10_11h08.15.403,torte-q,2020.1.3,Win32,60,14051,1.409475,,,,,,,,,,,,,,0,50,50,29,1,,,,,,,,,,,,,,,,,,,,,,,,,,
,,,,,,,,,,,,a,Correct!,,,,,,t5.png,t5.png,0,0.97829,18,Female,2020-11-10_11h08.15.403,torte-q,2020.1.3,Win32,60,14051,1.538485,,,,,,,,,,,,,,0,51,51,73,1,,,,,,,,,,,,,,,,,,,,,,,,,,
,,,,,,,,,,,,l,Correct!,,,,,,t4.png,t2.png,2,0.059078,18,Female,2020-11-10_11h08.15.403,torte-q,2020.1.3,Win32,60,14051,0.89399,,,,,,,,,,,,,,0,52,52,109,1,,,,,,,,,,,,,,,,,,,,,,,,,,
,,,,,,,,,,,,a,Correct!,,,,,,t5.png,t5.png,0,0.97829,18,Female,2020-11-10_11h08.15.403,torte-q,2020.1.3,Win32,60,14051,1.108485,,,,,,,,,,,,,,0,53,53,70,1,,,,,,,,,,,,,,,,,,,,,,,,,,
,,,,,,,,,,,,l,Incorrect,,,,,,t4.png,t4.png,0,0.98115,18,Female,2020-11-10_11h08.15.403,torte-q,2020.1.3,Win32,60,14051,0.943445,,,,,,,,,,,,,,0,54,54,21,1,,,,,,,,,,,,,,,,,,,,,,,,,,
,,,,,,,,,,,,a,Correct!,,,,,,t1.png,t2.png,1,0.90025,18,Female,2020-11-10_11h08.15.403,torte-q,2020.1.3,Win32,60,14051,0.666045,,,,,,,,,,,,,,0,55,55,112,1,,,,,,,,,,,,,,,,,,,,,,,,,,
,,,,,,,,,,,,a,Correct!,,,,,,t4.png,t4.png,0,0.98115,18,Female,2020-11-10_11h08.15.403,torte-q,2020.1.3,Win32,60,14051,1.0547,,,,,,,,,,,,,,0,56,56,52,1,,,,,,,,,,,,,,,,,,,,,,,,,,
,,,,,,,,,,,,a,Correct!,,,,,,t4.png,t5.png,1,0.90025,18,Female,2020-11-10_11h08.15.403,torte-q,2020.1.3,Win32,60,14051,0.45252,,,,,,,,,,,,,,0,57,57,58,1,,,,,,,,,,,,,,,,,,,,,,,,,,
,,,,,,,,,,,,l,Correct!,,,,,,t3.png,t1.png,2,0.0565,18,Female,2020-11-10_11h08.15.403,torte-q,2020.1.3,Win32,60,14051,0.78287,,,,,,,,,,,,,,0,58,58,31,1,,,,,,,,,,,,,,,,,,,,,,,,,,
,,,,,,,,,,,,l,Correct!,,,,,,t1.png,t5.png,4,9.55E-11,18,Female,2020-11-10_11h08.15.403,torte-q,2020.1.3,Win32,60,14051,1.38349,,,,,,,,,,,,,,0,59,59,16,1,,,,,,,,,,,,,,,,,,,,,,,,,,
,,,,,,,,,,,,a,Correct!,,,,,,t1.png,t1.png,0,0.97829,18,Female,2020-11-10_11h08.15.403,torte-q,2020.1.3,Win32,60,14051,0.61697,,,,,,,,,,,,,,0,60,60,9,1,,,,,,,,,,,,,,,,,,,,,,,,,,
,,,,,,,,,,,,a,Correct!,,,,,,t3.png,t2.png,1,0.909,18,Female,2020-11-10_11h08.15.403,torte-q,2020.1.3,Win32,60,14051,0.799555,,,,,,,,,,,,,,0,61,61,3,1,,,,,,,,,,,,,,,,,,,,,,,,,,
,,,,,,,,,,,,l,Incorrect,,,,,,t2.png,t1.png,1,0.90025,18,Female,2020-11-10_11h08.15.403,torte-q,2020.1.3,Win32,60,14051,0.660635,,,,,,,,,,,,,,0,62,62,62,1,,,,,,,,,,,,,,,,,,,,,,,,,,
,,,,,,,,,,,,a,Correct!,,,,,,t5.png,t4.png,1,0.9,18,Female,2020-11-10_11h08.15.403,torte-q,2020.1.3,Win32,60,14051,0.79409,,,,,,,,,,,,,,0,63,63,49,1,,,,,,,,,,,,,,,,,,,,,,,,,,
,,,,,,,,,,,,a,Correct!,,,,,,t2.png,t2.png,0,0.98115,18,Female,2020-11-10_11h08.15.403,torte-q,2020.1.3,Win32,60,14051,1.10421,,,,,,,,,,,,,,0,64,64,57,1,,,,,,,,,,,,,,,,,,,,,,,,,,
,,,,,,,,,,,,a,Correct!,,,,,,t3.png,t4.png,1,0.90855,18,Female,2020-11-10_11h08.15.403,torte-q,2020.1.3,Win32,60,14051,0.65423,,,,,,,,,,,,,,0,65,65,96,1,,,,,,,,,,,,,,,,,,,,,,,,,,
,,,,,,,,,,,,a,Correct!,,,,,,t4.png,t4.png,0,0.98115,18,Female,2020-11-10_11h08.15.403,torte-q,2020.1.3,Win32,60,14051,0.849805,,,,,,,,,,,,,,0,66,66,90,1,,,,,,,,,,,,,,,,,,,,,,,,,,
,,,,,,,,,,,,l,Correct!,,,,,,t2.png,t5.png,3,0.0000131,18,Female,2020-11-10_11h08.15.403,torte-q,2020.1.3,Win32,60,14051,0.65624,,,,,,,,,,,,,,0,67,67,104,1,,,,,,,,,,,,,,,,,,,,,,,,,,
,,,,,,,,,,,,a,Correct!,,,,,,t2.png,t2.png,0,0.98115,18,Female,2020-11-10_11h08.15.403,torte-q,2020.1.3,Win32,60,14051,0.890105,,,,,,,,,,,,,,0,68,68,59,1,,,,,,,,,,,,,,,,,,,,,,,,,,
,,,,,,,,,,,,l,Correct!,,,,,,t1.png,t4.png,3,0.0000131,18,Female,2020-11-10_11h08.15.403,torte-q,2020.1.3,Win32,60,14051,1.333375,,,,,,,,,,,,,,0,69,69,17,1,,,,,,,,,,,,,,,,,,,,,,,,,,
,,,,,,,,,,,,l,Correct!,,,,,,t3.png,t1.png,2,0.056466,18,Female,2020-11-10_11h08.15.403,torte-q,2020.1.3,Win32,60,14051,0.701175,,,,,,,,,,,,,,0,70,70,0,1,,,,,,,,,,,,,,,,,,,,,,,,,,
,,,,,,,,,,,,a,Correct!,,,,,,t5.png,t5.png,0,0.97829,18,Female,2020-11-10_11h08.15.403,torte-q,2020.1.3,Win32,60,14051,0.63599,,,,,,,,,,,,,,0,71,71,94,1,,,,,,,,,,,,,,,,,,,,,,,,,,
,,,,,,,,,,,,l,Incorrect,,,,,,t4.png,t5.png,1,0.90025,18,Female,2020-11-10_11h08.15.403,torte-q,2020.1.3,Win32,60,14051,1.03286,,,,,,,,,,,,,,0,72,72,113,1,,,,,,,,,,,,,,,,,,,,,,,,,,
,,,,,,,,,,,,a,Correct!,,,,,,t2.png,t2.png,0,0.98115,18,Female,2020-11-10_11h08.15.403,torte-q,2020.1.3,Win32,60,14051,1.261875,,,,,,,,,,,,,,0,73,73,2,1,,,,,,,,,,,,,,,,,,,,,,,,,,
,,,,,,,,,,,,a,Correct!,,,,,,t1.png,t2.png,1,0.90025,18,Female,2020-11-10_11h08.15.403,torte-q,2020.1.3,Win32,60,14051,0.801025,,,,,,,,,,,,,,0,74,74,105,1,,,,,,,,,,,,,,,,,,,,,,,,,,
,,,,,,,,,,,,l,Incorrect,,,,,,t2.png,t3.png,1,0.90855,18,Female,2020-11-10_11h08.15.403,torte-q,2020.1.3,Win32,60,14051,0.95609,,,,,,,,,,,,,,0,75,75,68,1,,,,,,,,,,,,,,,,,,,,,,,,,,
,,,,,,,,,,,,l,Correct!,,,,,,t3.png,t5.png,2,0.056466,18,Female,2020-11-10_11h08.15.403,torte-q,2020.1.3,Win32,60,14051,0.82295,,,,,,,,,,,,,,0,76,76,6,1,,,,,,,,,,,,,,,,,,,,,,,,,,
,,,,,,,,,,,,a,Correct!,,,,,,t5.png,t4.png,1,0.90025,18,Female,2020-11-10_11h08.15.403,torte-q,2020.1.3,Win32,60,14051,0.70239,,,,,,,,,,,,,,0,77,77,34,1,,,,,,,,,,,,,,,,,,,,,,,,,,
,,,,,,,,,,,,l,Incorrect,,,,,,t2.png,t1.png,1,0.90025,18,Female,2020-11-10_11h08.15.403,torte-q,2020.1.3,Win32,60,14051,0.849155,,,,,,,,,,,,,,0,78,78,4,1,,,,,,,,,,,,,,,,,,,,,,,,,,
,,,,,,,,,,,,l,Incorrect,,,,,,t4.png,t5.png,1,0.90025,18,Female,2020-11-10_11h08.15.403,torte-q,2020.1.3,Win32,60,14051,0.91717,,,,,,,,,,,,,,0,79,79,47,1,,,,,,,,,,,,,,,,,,,,,,,,,,
,,,,,,,,,,,,a,Incorrect,,,,,,t1.png,t3.png,2,0.056466,18,Female,2020-11-10_11h08.15.403,torte-q,2020.1.3,Win32,60,14051,0.828105,,,,,,,,,,,,,,0,80,80,60,1,,,,,,,,,,,,,,,,,,,,,,,,,,
,,,,,,,,,,,,l,Correct!,,,,,,t4.png,t1.png,3,0.0000131,18,Female,2020-11-10_11h08.15.403,torte-q,2020.1.3,Win32,60,14051,0.73907,,,,,,,,,,,,,,0,81,81,13,1,,,,,,,,,,,,,,,,,,,,,,,,,,
,,,,,,,,,,,,l,Incorrect,,,,,,t4.png,t5.png,1,0.90025,18,Female,2020-11-10_11h08.15.403,torte-q,2020.1.3,Win32,60,14051,0.86598,,,,,,,,,,,,,,0,82,82,103,1,,,,,,,,,,,,,,,,,,,,,,,,,,
,,,,,,,,,,,,l,Correct!,,,,,,t5.png,t1.png,4,9.55E-11,18,Female,2020-11-10_11h08.15.403,torte-q,2020.1.3,Win32,60,14051,1.36912,,,,,,,,,,,,,,0,83,83,71,1,,,,,,,,,,,,,,,,,,,,,,,,,,
,,,,,,,,,,,,l,Incorrect,,,,,,t4.png,t3.png,1,0.90855,18,Female,2020-11-10_11h08.15.403,torte-q,2020.1.3,Win32,60,14051,0.932065,,,,,,,,,,,,,,0,84,84,45,1,,,,,,,,,,,,,,,,,,,,,,,,,,
,,,,,,,,,,,,a,Incorrect,,,,,,t5.png,t3.png,2,0.056466,18,Female,2020-11-10_11h08.15.403,torte-q,2020.1.3,Win32,60,14051,0.63898,,,,,,,,,,,,,,0,85,85,38,1,,,,,,,,,,,,,,,,,,,,,,,,,,
,,,,,,,,,,,,l,Incorrect,,,,,,t2.png,t3.png,1,0.909,18,Female,2020-11-10_11h08.15.403,torte-q,2020.1.3,Win32,60,14051,0.86806,,,,,,,,,,,,,,0,86,86,74,1,,,,,,,,,,,,,,,,,,,,,,,,,,
,,,,,,,,,,,,a,Incorrect,,,,,,t5.png,t3.png,2,0.056466,18,Female,2020-11-10_11h08.15.403,torte-q,2020.1.3,Win32,60,14051,0.56556,,,,,,,,,,,,,,0,87,87,114,1,,,,,,,,,,,,,,,,,,,,,,,,,,
,,,,,,,,,,,,a,Incorrect,,,,,,t1.png,t5.png,4,9.55E-11,18,Female,2020-11-10_11h08.15.403,torte-q,2020.1.3,Win32,60,14051,0.649055,,,,,,,,,,,,,,0,88,88,85,1,,,,,,,,,,,,,,,,,,,,,,,,,,
,,,,,,,,,,,,l,Incorrect,,,,,,t5.png,t4.png,1,0.90025,18,Female,2020-11-10_11h08.15.403,torte-q,2020.1.3,Win32,60,14051,0.32113,,,,,,,,,,,,,,0,89,89,26,1,,,,,,,,,,,,,,,,,,,,,,,,,,
,,,,,,,,,,,,a,Incorrect,,,,,,t1.png,t3.png,2,0.056466,18,Female,2020-11-10_11h08.15.403,torte-q,2020.1.3,Win32,60,14051,0.775905,,,,,,,,,,,,,,0,90,90,87,1,,,,,,,,,,,,,,,,,,,,,,,,,,
,,,,,,,,,,,,a,Correct!,,,,,,t5.png,t5.png,0,0.978,18,Female,2020-11-10_11h08.15.403,torte-q,2020.1.3,Win32,60,14051,0.72441,,,,,,,,,,,,,,0,91,91,117,1,,,,,,,,,,,,,,,,,,,,,,,,,,
,,,,,,,,,,,,l,Incorrect,,,,,,t3.png,t4.png,1,0.909,18,Female,2020-11-10_11h08.15.403,torte-q,2020.1.3,Win32,60,14051,0.79117,,,,,,,,,,,,,,0,92,92,82,1,,,,,,,,,,,,,,,,,,,,,,,,,,
,,,,,,,,,,,,l,Correct!,,,,,,t4.png,t1.png,3,0.0000131,18,Female,2020-11-10_11h08.15.403,torte-q,2020.1.3,Win32,60,14051,0.99935,,,,,,,,,,,,,,0,93,93,42,1,,,,,,,,,,,,,,,,,,,,,,,,,,
,,,,,,,,,,,,a,Incorrect,,,,,,t4.png,t2.png,2,0.059078,18,Female,2020-11-10_11h08.15.403,torte-q,2020.1.3,Win32,60,14051,1.36093,,,,,,,,,,,,,,0,94,94,110,1,,,,,,,,,,,,,,,,,,,,,,,,,,
,,,,,,,,,,,,a,Correct!,,,,,,t3.png,t2.png,1,0.90855,18,Female,2020-11-10_11h08.15.403,torte-q,2020.1.3,Win32,60,14051,1.022295,,,,,,,,,,,,,,0,95,95,53,1,,,,,,,,,,,,,,,,,,,,,,,,,,
,,,,,,,,,,,,a,Incorrect,,,,,,t1.png,t4.png,3,0.0000131,18,Female,2020-11-10_11h08.15.403,torte-q,2020.1.3,Win32,60,14051,0.876635,,,,,,,,,,,,,,0,96,96,92,1,,,,,,,,,,,,,,,,,,,,,,,,,,
,,,,,,,,,,,,l,Correct!,,,,,,t2.png,t4.png,2,0.059078,18,Female,2020-11-10_11h08.15.403,torte-q,2020.1.3,Win32,60,14051,1.03708,,,,,,,,,,,,,,0,97,97,24,1,,,,,,,,,,,,,,,,,,,,,,,,,,
,,,,,,,,,,,,a,Incorrect,,,,,,t5.png,t2.png,3,0.0000131,18,Female,2020-11-10_11h08.15.403,torte-q,2020.1.3,Win32,60,14051,1.19185,,,,,,,,,,,,,,0,98,98,91,1,,,,,,,,,,,,,,,,,,,,,,,,,,
,,,,,,,,,,,,a,Correct!,,,,,,t1.png,t1.png,0,0.97829,18,Female,2020-11-10_11h08.15.403,torte-q,2020.1.3,Win32,60,14051,0.60457,,,,,,,,,,,,,,0,99,99,78,1,,,,,,,,,,,,,,,,,,,,,,,,,,
,,,,,,,,,,,,a,Correct!,,,,,,t4.png,t4.png,0,0.98115,18,Female,2020-11-10_11h08.15.403,torte-q,2020.1.3,Win32,60,14051,0.87526,,,,,,,,,,,,,,0,100,100,80,1,,,,,,,,,,,,,,,,,,,,,,,,,,
,,,,,,,,,,,,a,Correct!,,,,,,t5.png,t3.png,2,0.056466,18,Female,2020-11-10_11h08.15.403,torte-q,2020.1.3,Win32,60,14051,0.93778,,,,,,,,,,,,,,0,101,101,108,1,,,,,,,,,,,,,,,,,,,,,,,,,,
,,,,,,,,,,,,l,Correct!,,,,,,t3.png,t1.png,2,0.056466,18,Female,2020-11-10_11h08.15.403,torte-q,2020.1.3,Win32,60,14051,0.76847,,,,,,,,,,,,,,0,102,102,32,1,,,,,,,,,,,,,,,,,,,,,,,,,,
,,,,,,,,,,,,a,Incorrect,,,,,,t4.png,t2.png,2,0.059078,18,Female,2020-11-10_11h08.15.403,torte-q,2020.1.3,Win32,60,14051,0.72104,,,,,,,,,,,,,,0,103,103,86,1,,,,,,,,,,,,,,,,,,,,,,,,,,
,,,,,,,,,,,,l,Correct!,,,,,,t4.png,t1.png,3,0.0000131,18,Female,2020-11-10_11h08.15.403,torte-q,2020.1.3,Win32,60,14051,0.666055,,,,,,,,,,,,,,0,104,104,93,1,,,,,,,,,,,,,,,,,,,,,,,,,,
,,,,,,,,,,,,a,Incorrect,,,,,,t5.png,t2.png,3,0.0000131,18,Female,2020-11-10_11h08.15.403,torte-q,2020.1.3,Win32,60,14051,0.883025,,,,,,,,,,,,,,0,105,105,119,1,,,,,,,,,,,,,,,,,,,,,,,,,,
,,,,,,,,,,,,a,Correct!,,,,,,t4.png,t3.png,1,0.909,18,Female,2020-11-10_11h08.15.403,torte-q,2020.1.3,Win32,60,14051,0.66217,,,,,,,,,,,,,,0,106,106,20,1,,,,,,,,,,,,,,,,,,,,,,,,,,
,,,,,,,,,,,,l,Incorrect,,,,,,t3.png,t4.png,1,0.909,18,Female,2020-11-10_11h08.15.403,torte-q,2020.1.3,Win32,60,14051,0.823225,,,,,,,,,,,,,,0,107,107,106,1,,,,,,,,,,,,,,,,,,,,,,,,,,
,,,,,,,,,,,,l,Incorrect,,,,,,t3.png,t4.png,1,0.909,18,Female,2020-11-10_11h08.15.403,torte-q,2020.1.3,Win32,60,14051,0.8516,,,,,,,,,,,,,,0,108,108,89,1,,,,,,,,,,,,,,,,,,,,,,,,,,
,,,,,,,,,,,,a,Correct!,,,,,,t4.png,t3.png,1,0.909,18,Female,2020-11-10_11h08.15.403,torte-q,2020.1.3,Win32,60,14051,0.944345,,,,,,,,,,,,,,0,109,109,46,1,,,,,,,,,,,,,,,,,,,,,,,,,,
,,,,,,,,,,,,a,Incorrect,,,,,,t5.png,t2.png,3,0.0000131,18,Female,2020-11-10_11h08.15.403,torte-q,2020.1.3,Win32,60,14051,0.845695,,,,,,,,,,,,,,0,110,110,98,1,,,,,,,,,,,,,,,,,,,,,,,,,,
,,,,,,,,,,,,a,Correct!,,,,,,t5.png,t4.png,1,0.90025,18,Female,2020-11-10_11h08.15.403,torte-q,2020.1.3,Win32,60,14051,0.75734,,,,,,,,,,,,,,0,111,111,27,1,,,,,,,,,,,,,,,,,,,,,,,,,,
,,,,,,,,,,,,l,Correct!,,,,,,t2.png,t4.png,2,0.059078,18,Female,2020-11-10_11h08.15.403,torte-q,2020.1.3,Win32,60,14051,0.727885,,,,,,,,,,,,,,0,112,112,11,1,,,,,,,,,,,,,,,,,,,,,,,,,,
,,,,,,,,,,,,a,Incorrect,,,,,,t1.png,t5.png,4,9.55E-11,18,Female,2020-11-10_11h08.15.403,torte-q,2020.1.3,Win32,60,14051,0.770565,,,,,,,,,,,,,,0,113,113,41,1,,,,,,,,,,,,,,,,,,,,,,,,,,
,,,,,,,,,,,,l,Correct!,,,,,,t5.png,t1.png,4,9.55E-11,18,Female,2020-11-10_11h08.15.403,torte-q,2020.1.3,Win32,60,14051,0.709715,,,,,,,,,,,,,,0,114,114,100,1,,,,,,,,,,,,,,,,,,,,,,,,,,
,,,,,,,,,,,,a,Correct!,,,,,,t3.png,t2.png,1,0.90855,18,Female,2020-11-10_11h08.15.403,torte-q,2020.1.3,Win32,60,14051,0.85514,,,,,,,,,,,,,,0,115,115,18,1,,,,,,,,,,,,,,,,,,,,,,,,,,
,,,,,,,,,,,,l,Incorrect,,,,,,t2.png,t1.png,1,0.90025,18,Female,2020-11-10_11h08.15.403,torte-q,2020.1.3,Win32,60,14051,0.71613,,,,,,,,,,,,,,0,116,116,19,1,,,,,,,,,,,,,,,,,,,,,,,,,,
,,,,,,,,,,,,l,Incorrect,,,,,,t2.png,t1.png,1,0.9,18,Female,2020-11-10_11h08.15.403,torte-q,2020.1.3,Win32,60,14051,0.65259,,,,,,,,,,,,,,0,117,117,118,1,,,,,,,,,,,,,,,,,,,,,,,,,,
,,,,,,,,,,,,l,Correct!,,,,,,t3.png,t5.png,2,0.0565,18,Female,2020-11-10_11h08.15.403,torte-q,2020.1.3,Win32,60,14051,0.859605,,,,,,,,,,,,,,0,118,118,83,1,,,,,,,,,,,,,,,,,,,,,,,,,,
,,,,,,,,,,,,l,Correct!,,,,,,t4.png,t1.png,3,0.0000131,18,Female,2020-11-10_11h08.15.403,torte-q,2020.1.3,Win32,60,14051,0.91912,,,,,,,,,,,,,,0,119,119,48,1,,,,,,,,,,,,,,,,,,,,,,,,,,
,,,,,,,,,,,,,,,,,,,,,,,18,Female,2020-11-10_11h08.15.403,torte-q,2020.1.3,Win32,60,14051,,space,1.472625,,,,,,,,,,,,,,,,,2.995,6.618675,1,114,1,0,0,s2,-38,47,1,0,0,t2,179,-83,1,0,0,proceed,space,26.866705,space,0.24906,space,0.08923
